ax,ay,az,gx,gy,gz,label
4.0,-251.0,35.0,-26.0,13.0,3.0,0
5.0,-245.0,39.0,-27.0,11.0,4.0,0
8.0,-249.0,33.0,-26.0,9.0,3.0,0
6.0,-249.0,35.0,-28.0,9.0,4.0,0
6.0,-250.0,34.0,-29.0,9.0,4.0,0
5.0,-249.0,34.0,-32.0,8.0,2.0,0
3.0,-247.0,37.0,-32.0,7.0,2.0,0
5.0,-249.0,36.0,-34.0,8.0,3.0,0
5.0,-249.0,36.0,-33.0,7.0,3.0,0
6.0,-247.0,37.0,-31.0,5.0,3.0,0
4.0,-251.0,37.0,-30.0,3.0,2.0,0
7.0,-253.0,37.0,-32.0,5.0,1.0,0
6.0,-250.0,36.0,-32.0,4.0,1.0,0
7.0,-250.0,35.0,-31.0,3.0,2.0,0
7.0,-250.0,32.0,-28.0,1.0,2.0,0
8.0,-250.0,36.0,-29.0,2.0,1.0,0
7.0,-247.0,33.0,-26.0,0.0,1.0,0
7.0,-249.0,34.0,-24.0,2.0,-1.0,0
8.0,-249.0,37.0,-23.0,4.0,-2.0,0
8.0,-245.0,36.0,-25.0,6.0,-2.0,0
8.0,-251.0,28.0,-28.0,7.0,-3.0,0
7.0,-247.0,37.0,-30.0,7.0,-2.0,0
5.0,-248.0,36.0,-37.0,7.0,-3.0,0
8.0,-248.0,38.0,-41.0,6.0,-2.0,0
8.0,-248.0,36.0,-43.0,6.0,-2.0,0
7.0,-248.0,36.0,-45.0,8.0,0.0,0
6.0,-249.0,39.0,-43.0,9.0,-1.0,0
9.0,-251.0,40.0,-44.0,10.0,0.0,0
4.0,-252.0,34.0,-42.0,11.0,1.0,0
7.0,-248.0,39.0,-41.0,12.0,1.0,0
5.0,-250.0,38.0,-41.0,12.0,0.0,0
8.0,-248.0,37.0,-42.0,12.0,0.0,0
8.0,-252.0,33.0,-42.0,13.0,0.0,0
6.0,-252.0,33.0,-43.0,13.0,0.0,0
6.0,-249.0,36.0,-45.0,12.0,-1.0,0
7.0,-251.0,38.0,-46.0,9.0,-1.0,0
6.0,-251.0,33.0,-46.0,10.0,0.0,0
8.0,-251.0,32.0,-46.0,9.0,0.0,0
8.0,-251.0,38.0,-45.0,9.0,0.0,0
9.0,-251.0,32.0,-44.0,9.0,0.0,0
7.0,-252.0,38.0,-40.0,10.0,0.0,0
7.0,-251.0,35.0,-39.0,11.0,0.0,0
7.0,-250.0,38.0,-37.0,12.0,-1.0,0
6.0,-253.0,32.0,-35.0,14.0,-2.0,0
8.0,-250.0,33.0,-34.0,16.0,-4.0,0
3.0,-246.0,36.0,-34.0,17.0,-5.0,0
7.0,-250.0,33.0,-36.0,18.0,-5.0,0
6.0,-249.0,35.0,-36.0,21.0,-8.0,0
4.0,-248.0,36.0,-38.0,23.0,-7.0,0
7.0,-247.0,40.0,-38.0,24.0,-6.0,0
5.0,-249.0,34.0,-38.0,24.0,-8.0,0
6.0,-248.0,37.0,-37.0,25.0,-8.0,0
4.0,-245.0,36.0,-38.0,24.0,-8.0,0
6.0,-249.0,37.0,-36.0,23.0,-8.0,0
7.0,-250.0,33.0,-37.0,22.0,-9.0,0
2.0,-248.0,35.0,-36.0,24.0,-10.0,0
6.0,-252.0,33.0,-38.0,24.0,-9.0,0
4.0,-248.0,35.0,-42.0,22.0,-8.0,0
12.0,-236.0,27.0,-42.0,21.0,-8.0,0
8.0,-250.0,32.0,-45.0,21.0,-9.0,0
7.0,-251.0,37.0,-44.0,18.0,-4.0,0
3.0,-252.0,35.0,-42.0,15.0,-5.0,0
3.0,-251.0,36.0,-40.0,13.0,-5.0,0
4.0,-250.0,37.0,-39.0,11.0,-3.0,0
3.0,-248.0,35.0,-39.0,10.0,-1.0,0
6.0,-249.0,38.0,-39.0,8.0,-1.0,0
4.0,-251.0,39.0,-39.0,8.0,-1.0,0
6.0,-249.0,37.0,-39.0,5.0,0.0,0
3.0,-250.0,40.0,-39.0,6.0,0.0,0
4.0,-247.0,35.0,-39.0,6.0,-1.0,0
5.0,-250.0,38.0,-40.0,6.0,-1.0,0
7.0,-249.0,34.0,-41.0,6.0,-3.0,0
5.0,-248.0,34.0,-39.0,7.0,-3.0,0
7.0,-246.0,35.0,-39.0,8.0,-4.0,0
5.0,-249.0,34.0,-39.0,10.0,-6.0,0
6.0,-251.0,37.0,-40.0,13.0,-6.0,0
3.0,-249.0,36.0,-40.0,12.0,-7.0,0
6.0,-250.0,33.0,-42.0,14.0,-8.0,0
7.0,-250.0,40.0,-42.0,14.0,-9.0,0
8.0,-252.0,35.0,-45.0,13.0,-9.0,0
4.0,-249.0,37.0,-47.0,14.0,-10.0,0
6.0,-252.0,37.0,-49.0,12.0,-8.0,0
2.0,-250.0,34.0,-52.0,8.0,-8.0,0
5.0,-251.0,38.0,-52.0,8.0,-7.0,0
3.0,-250.0,39.0,-53.0,7.0,-7.0,0
5.0,-248.0,39.0,-50.0,8.0,-7.0,0
4.0,-253.0,36.0,-49.0,9.0,-7.0,0
5.0,-249.0,39.0,-48.0,8.0,-6.0,0
3.0,-251.0,37.0,-51.0,8.0,-6.0,0
4.0,-250.0,39.0,-50.0,10.0,-7.0,0
7.0,-247.0,39.0,-48.0,12.0,-6.0,0
8.0,-250.0,37.0,-48.0,13.0,-5.0,0
6.0,-249.0,36.0,-46.0,15.0,-4.0,0
7.0,-249.0,36.0,-44.0,16.0,-5.0,0
6.0,-249.0,40.0,-43.0,16.0,-3.0,0
2.0,-251.0,38.0,-44.0,14.0,-3.0,0
5.0,-247.0,34.0,-44.0,12.0,-2.0,0
8.0,-251.0,39.0,-43.0,14.0,-1.0,0
7.0,-250.0,40.0,-45.0,14.0,-3.0,0
6.0,-252.0,38.0,-45.0,14.0,-3.0,0
9.0,-251.0,37.0,-42.0,14.0,-4.0,0
8.0,-250.0,37.0,-44.0,15.0,-4.0,0
5.0,-248.0,38.0,-45.0,16.0,-7.0,0
5.0,-252.0,35.0,-44.0,17.0,-9.0,0
5.0,-248.0,35.0,-45.0,20.0,-11.0,0
4.0,-247.0,33.0,-43.0,21.0,-14.0,0
5.0,-248.0,36.0,-44.0,26.0,-15.0,0
3.0,-250.0,39.0,-45.0,28.0,-18.0,0
4.0,-250.0,37.0,-45.0,31.0,-19.0,0
6.0,-252.0,38.0,-45.0,31.0,-20.0,0
7.0,-253.0,35.0,-45.0,33.0,-21.0,0
6.0,-251.0,38.0,-46.0,35.0,-20.0,0
7.0,-240.0,39.0,-42.0,34.0,-20.0,0
5.0,-247.0,36.0,-39.0,33.0,-20.0,0
5.0,-253.0,37.0,-35.0,33.0,-19.0,0
5.0,-248.0,36.0,-34.0,30.0,-18.0,0
5.0,-249.0,36.0,-35.0,29.0,-19.0,0
4.0,-245.0,38.0,-38.0,29.0,-19.0,0
6.0,-250.0,36.0,-43.0,28.0,-18.0,0
4.0,-247.0,39.0,-50.0,27.0,-20.0,0
6.0,-247.0,35.0,-58.0,27.0,-20.0,0
11.0,-249.0,39.0,-62.0,27.0,-22.0,0
6.0,-246.0,35.0,-66.0,29.0,-21.0,0
9.0,-246.0,34.0,-72.0,29.0,-23.0,0
5.0,-248.0,36.0,-77.0,29.0,-22.0,0
7.0,-248.0,37.0,-80.0,31.0,-22.0,0
5.0,-249.0,37.0,-81.0,31.0,-22.0,0
6.0,-250.0,40.0,-82.0,31.0,-25.0,0
8.0,-249.0,37.0,-82.0,33.0,-24.0,0
4.0,-249.0,39.0,-81.0,32.0,-27.0,0
3.0,-250.0,36.0,-80.0,34.0,-27.0,0
3.0,-250.0,33.0,-80.0,36.0,-28.0,0
6.0,-248.0,32.0,-82.0,37.0,-29.0,0
7.0,-249.0,34.0,-85.0,39.0,-30.0,0
6.0,-254.0,30.0,-85.0,40.0,-30.0,0
8.0,-251.0,33.0,-86.0,43.0,-31.0,0
7.0,-251.0,37.0,-87.0,45.0,-30.0,0
7.0,-249.0,37.0,-88.0,46.0,-31.0,0
7.0,-248.0,37.0,-87.0,47.0,-32.0,0
9.0,-249.0,38.0,-87.0,48.0,-34.0,0
7.0,-246.0,36.0,-85.0,52.0,-36.0,0
7.0,-248.0,35.0,-82.0,52.0,-37.0,0
7.0,-249.0,35.0,-82.0,54.0,-39.0,0
8.0,-247.0,37.0,-83.0,57.0,-40.0,0
9.0,-248.0,34.0,-83.0,56.0,-40.0,0
9.0,-248.0,35.0,-86.0,58.0,-41.0,0
13.0,-250.0,37.0,-90.0,58.0,-41.0,0
5.0,-248.0,34.0,-94.0,58.0,-41.0,0
8.0,-250.0,32.0,-97.0,61.0,-42.0,0
8.0,-251.0,28.0,-100.0,65.0,-42.0,0
9.0,-248.0,34.0,-100.0,70.0,-44.0,0
6.0,-251.0,35.0,-100.0,73.0,-46.0,0
7.0,-250.0,30.0,-98.0,79.0,-47.0,0
10.0,-252.0,33.0,-98.0,85.0,-47.0,0
7.0,-250.0,37.0,-95.0,91.0,-47.0,0
8.0,-249.0,34.0,-93.0,95.0,-48.0,0
8.0,-247.0,30.0,-92.0,97.0,-47.0,0
9.0,-251.0,36.0,-91.0,100.0,-48.0,0
9.0,-252.0,34.0,-90.0,104.0,-47.0,0
13.0,-249.0,37.0,-87.0,105.0,-48.0,0
9.0,-254.0,35.0,-83.0,109.0,-50.0,0
11.0,-254.0,37.0,-78.0,113.0,-52.0,0
11.0,-251.0,34.0,-71.0,114.0,-55.0,0
12.0,-254.0,40.0,-67.0,118.0,-57.0,0
10.0,-248.0,35.0,-61.0,122.0,-60.0,0
13.0,-249.0,37.0,-59.0,127.0,-63.0,0
13.0,-246.0,33.0,-58.0,131.0,-67.0,0
17.0,-248.0,37.0,-60.0,139.0,-69.0,0
13.0,-251.0,33.0,-64.0,146.0,-72.0,0
14.0,-245.0,31.0,-68.0,154.0,-73.0,0
12.0,-247.0,34.0,-71.0,161.0,-75.0,0
16.0,-247.0,31.0,-77.0,165.0,-78.0,0
16.0,-246.0,32.0,-82.0,173.0,-80.0,0
15.0,-249.0,33.0,-84.0,179.0,-82.0,0
15.0,-250.0,36.0,-88.0,185.0,-84.0,0
15.0,-251.0,36.0,-93.0,188.0,-83.0,0
12.0,-247.0,38.0,-96.0,191.0,-84.0,0
13.0,-250.0,35.0,-98.0,191.0,-83.0,0
12.0,-248.0,35.0,-102.0,194.0,-86.0,0
13.0,-250.0,32.0,-105.0,198.0,-86.0,0
13.0,-255.0,31.0,-104.0,202.0,-87.0,0
10.0,-251.0,32.0,-104.0,204.0,-89.0,0
10.0,-251.0,35.0,-106.0,210.0,-89.0,0
11.0,-252.0,35.0,-104.0,217.0,-91.0,0
11.0,-250.0,33.0,-104.0,222.0,-94.0,0
10.0,-251.0,32.0,-104.0,229.0,-97.0,0
9.0,-253.0,30.0,-105.0,235.0,-101.0,0
8.0,-252.0,34.0,-101.0,239.0,-103.0,0
10.0,-250.0,33.0,-101.0,240.0,-102.0,0
10.0,-254.0,36.0,-98.0,244.0,-103.0,0
7.0,-254.0,35.0,-94.0,244.0,-104.0,0
9.0,-252.0,32.0,-92.0,247.0,-106.0,0
10.0,-254.0,30.0,-90.0,250.0,-106.0,0
9.0,-250.0,35.0,-90.0,252.0,-107.0,0
11.0,-254.0,33.0,-93.0,254.0,-103.0,0
7.0,-250.0,32.0,-94.0,254.0,-103.0,0
9.0,-249.0,31.0,-96.0,256.0,-101.0,0
8.0,-249.0,36.0,-97.0,255.0,-100.0,0
10.0,-249.0,31.0,-96.0,257.0,-99.0,0
12.0,-251.0,32.0,-96.0,259.0,-98.0,0
15.0,-257.0,45.0,-94.0,260.0,-98.0,0
16.0,-253.0,30.0,-93.0,264.0,-99.0,0
11.0,-250.0,32.0,-91.0,268.0,-101.0,0
12.0,-251.0,31.0,-89.0,270.0,-104.0,0
13.0,-251.0,29.0,-88.0,275.0,-105.0,0
10.0,-249.0,33.0,-84.0,280.0,-111.0,0
12.0,-249.0,32.0,-83.0,286.0,-115.0,0
14.0,-252.0,28.0,-83.0,291.0,-119.0,0
15.0,-249.0,33.0,-86.0,296.0,-122.0,0
14.0,-249.0,27.0,-88.0,304.0,-128.0,0
13.0,-248.0,31.0,-90.0,310.0,-131.0,0
12.0,-248.0,29.0,-93.0,318.0,-135.0,0
15.0,-249.0,30.0,-98.0,325.0,-138.0,0
12.0,-252.0,28.0,-105.0,330.0,-142.0,0
13.0,-249.0,33.0,-111.0,336.0,-145.0,0
13.0,-250.0,26.0,-117.0,341.0,-149.0,0
14.0,-249.0,27.0,-121.0,349.0,-151.0,0
18.0,-253.0,27.0,-122.0,355.0,-152.0,0
19.0,-254.0,30.0,-123.0,360.0,-151.0,0
15.0,-251.0,30.0,-120.0,367.0,-151.0,0
18.0,-251.0,25.0,-120.0,371.0,-152.0,0
18.0,-253.0,28.0,-116.0,378.0,-153.0,0
18.0,-252.0,30.0,-113.0,388.0,-156.0,0
19.0,-247.0,27.0,-110.0,399.0,-155.0,0
21.0,-255.0,28.0,-108.0,406.0,-159.0,0
21.0,-252.0,29.0,-108.0,417.0,-163.0,0
17.0,-252.0,24.0,-105.0,427.0,-166.0,0
21.0,-251.0,28.0,-108.0,435.0,-172.0,0
24.0,-254.0,28.0,-109.0,447.0,-174.0,0
24.0,-256.0,29.0,-112.0,461.0,-179.0,0
24.0,-254.0,29.0,-113.0,470.0,-183.0,0
24.0,-255.0,30.0,-112.0,479.0,-187.0,0
22.0,-256.0,28.0,-112.0,490.0,-192.0,0
25.0,-254.0,22.0,-110.0,497.0,-197.0,0
24.0,-256.0,28.0,-108.0,505.0,-200.0,0
26.0,-257.0,25.0,-106.0,514.0,-205.0,0
23.0,-255.0,24.0,-105.0,523.0,-210.0,0
23.0,-253.0,25.0,-103.0,528.0,-214.0,0
25.0,-255.0,23.0,-102.0,536.0,-219.0,0
25.0,-255.0,22.0,-101.0,545.0,-224.0,0
21.0,-254.0,23.0,-101.0,553.0,-226.0,0
22.0,-253.0,24.0,-102.0,562.0,-231.0,0
23.0,-255.0,21.0,-102.0,571.0,-235.0,0
23.0,-252.0,23.0,-98.0,582.0,-239.0,0
22.0,-253.0,24.0,-91.0,597.0,-245.0,0
21.0,-255.0,25.0,-83.0,610.0,-249.0,0
23.0,-253.0,23.0,-77.0,623.0,-254.0,0
19.0,-253.0,23.0,-71.0,639.0,-258.0,0
24.0,-254.0,27.0,-67.0,652.0,-262.0,0
20.0,-252.0,25.0,-63.0,664.0,-267.0,0
23.0,-252.0,25.0,-62.0,677.0,-271.0,0
20.0,-249.0,23.0,-66.0,688.0,-275.0,0
20.0,-252.0,23.0,-70.0,700.0,-283.0,0
23.0,-255.0,23.0,-75.0,712.0,-287.0,0
18.0,-254.0,23.0,-77.0,720.0,-293.0,0
21.0,-253.0,19.0,-79.0,726.0,-297.0,0
22.0,-254.0,22.0,-79.0,730.0,-302.0,0
19.0,-255.0,19.0,-80.0,733.0,-306.0,0
18.0,-252.0,15.0,-77.0,738.0,-312.0,0
18.0,-257.0,17.0,-75.0,744.0,-317.0,0
17.0,-255.0,14.0,-75.0,746.0,-322.0,0
18.0,-254.0,18.0,-76.0,745.0,-326.0,0
18.0,-256.0,16.0,-80.0,749.0,-329.0,0
17.0,-257.0,18.0,-81.0,758.0,-332.0,0
17.0,-258.0,20.0,-78.0,765.0,-335.0,0
17.0,-256.0,20.0,-75.0,771.0,-334.0,0
16.0,-258.0,18.0,-65.0,776.0,-335.0,0
15.0,-256.0,20.0,-57.0,781.0,-334.0,0
13.0,-256.0,18.0,-50.0,786.0,-334.0,0
13.0,-256.0,13.0,-45.0,788.0,-333.0,0
11.0,-253.0,19.0,-42.0,792.0,-332.0,0
13.0,-256.0,16.0,-42.0,793.0,-329.0,0
10.0,-255.0,18.0,-42.0,795.0,-326.0,0
11.0,-255.0,18.0,-44.0,797.0,-323.0,0
12.0,-255.0,24.0,-45.0,797.0,-322.0,0
11.0,-254.0,20.0,-43.0,795.0,-320.0,0
11.0,-255.0,18.0,-42.0,793.0,-319.0,0
12.0,-251.0,25.0,-40.0,791.0,-319.0,0
11.0,-255.0,17.0,-40.0,790.0,-320.0,0
11.0,-253.0,19.0,-46.0,789.0,-318.0,0
16.0,-254.0,15.0,-54.0,786.0,-318.0,0
10.0,-252.0,17.0,-62.0,785.0,-316.0,0
12.0,-252.0,19.0,-69.0,783.0,-315.0,0
10.0,-256.0,18.0,-76.0,778.0,-315.0,0
10.0,-252.0,17.0,-81.0,774.0,-313.0,0
11.0,-254.0,20.0,-88.0,772.0,-314.0,0
11.0,-252.0,15.0,-89.0,769.0,-313.0,0
11.0,-253.0,15.0,-91.0,763.0,-313.0,0
11.0,-251.0,13.0,-94.0,759.0,-314.0,0
12.0,-252.0,16.0,-94.0,751.0,-312.0,0
13.0,-254.0,15.0,-92.0,743.0,-311.0,0
12.0,-252.0,11.0,-88.0,738.0,-310.0,0
13.0,-252.0,16.0,-87.0,731.0,-311.0,0
12.0,-249.0,13.0,-87.0,729.0,-310.0,0
15.0,-252.0,12.0,-88.0,729.0,-312.0,0
16.0,-249.0,15.0,-87.0,731.0,-309.0,0
16.0,-253.0,17.0,-93.0,733.0,-309.0,0
13.0,-247.0,17.0,-99.0,737.0,-308.0,0
16.0,-251.0,12.0,-107.0,743.0,-307.0,0
15.0,-249.0,17.0,-118.0,747.0,-304.0,0
12.0,-252.0,17.0,-127.0,748.0,-302.0,0
16.0,-253.0,17.0,-134.0,746.0,-300.0,0
15.0,-251.0,21.0,-141.0,742.0,-296.0,0
13.0,-253.0,23.0,-145.0,736.0,-293.0,0
14.0,-251.0,21.0,-148.0,727.0,-289.0,0
15.0,-255.0,18.0,-151.0,718.0,-286.0,0
15.0,-254.0,18.0,-150.0,710.0,-282.0,0
15.0,-256.0,18.0,-150.0,701.0,-280.0,0
19.0,-256.0,19.0,-150.0,692.0,-279.0,0
17.0,-257.0,19.0,-146.0,685.0,-277.0,0
18.0,-258.0,17.0,-141.0,679.0,-276.0,0
15.0,-259.0,17.0,-139.0,676.0,-274.0,0
15.0,-257.0,19.0,-136.0,671.0,-273.0,0
15.0,-256.0,18.0,-134.0,667.0,-271.0,0
14.0,-258.0,17.0,-131.0,667.0,-273.0,0
15.0,-258.0,19.0,-129.0,669.0,-273.0,0
13.0,-257.0,18.0,-129.0,671.0,-272.0,0
12.0,-257.0,16.0,-129.0,674.0,-272.0,0
15.0,-257.0,14.0,-134.0,678.0,-272.0,0
12.0,-257.0,16.0,-138.0,681.0,-270.0,0
11.0,-257.0,14.0,-134.0,684.0,-270.0,0
12.0,-258.0,17.0,-132.0,684.0,-269.0,0
14.0,-258.0,14.0,-128.0,681.0,-268.0,0
11.0,-259.0,17.0,-120.0,674.0,-266.0,0
13.0,-259.0,16.0,-111.0,664.0,-262.0,0
12.0,-254.0,16.0,-99.0,651.0,-259.0,0
13.0,-256.0,13.0,-89.0,636.0,-257.0,0
12.0,-252.0,18.0,-81.0,623.0,-255.0,0
13.0,-252.0,16.0,-74.0,612.0,-251.0,0
14.0,-252.0,19.0,-72.0,602.0,-247.0,0
12.0,-254.0,21.0,-74.0,591.0,-244.0,0
15.0,-252.0,16.0,-79.0,581.0,-238.0,0
13.0,-252.0,17.0,-88.0,570.0,-232.0,0
10.0,-251.0,20.0,-102.0,560.0,-229.0,0
16.0,-257.0,20.0,-109.0,548.0,-223.0,0
12.0,-255.0,19.0,-112.0,537.0,-221.0,0
11.0,-254.0,16.0,-111.0,526.0,-217.0,0
13.0,-258.0,17.0,-111.0,510.0,-211.0,0
12.0,-257.0,17.0,-114.0,495.0,-207.0,0
13.0,-256.0,13.0,-117.0,482.0,-203.0,0
12.0,-255.0,14.0,-120.0,473.0,-198.0,0
5.0,-262.0,22.0,-121.0,465.0,-195.0,0
9.0,-259.0,18.0,-122.0,458.0,-193.0,0
11.0,-258.0,20.0,-117.0,456.0,-190.0,0
14.0,-261.0,20.0,-108.0,457.0,-190.0,0
12.0,-259.0,17.0,-96.0,455.0,-188.0,0
13.0,-256.0,14.0,-87.0,454.0,-186.0,0
12.0,-258.0,14.0,-79.0,452.0,-184.0,0
13.0,-254.0,15.0,-74.0,448.0,-182.0,0
16.0,-257.0,14.0,-72.0,442.0,-178.0,0
11.0,-249.0,16.0,-76.0,435.0,-176.0,0
19.0,-253.0,14.0,-83.0,426.0,-169.0,0
17.0,-251.0,18.0,-93.0,417.0,-164.0,0
16.0,-252.0,16.0,-103.0,408.0,-159.0,0
19.0,-255.0,17.0,-110.0,396.0,-154.0,0
17.0,-253.0,21.0,-114.0,383.0,-150.0,0
22.0,-255.0,17.0,-117.0,373.0,-145.0,0
19.0,-256.0,20.0,-118.0,363.0,-142.0,0
20.0,-256.0,18.0,-117.0,350.0,-139.0,0
19.0,-255.0,20.0,-115.0,342.0,-138.0,0
19.0,-255.0,16.0,-114.0,334.0,-136.0,0
22.0,-253.0,17.0,-116.0,327.0,-136.0,0
23.0,-256.0,18.0,-118.0,326.0,-136.0,0
23.0,-253.0,14.0,-120.0,324.0,-136.0,0
27.0,-255.0,11.0,-124.0,326.0,-138.0,0
22.0,-256.0,12.0,-126.0,327.0,-139.0,0
23.0,-256.0,13.0,-128.0,329.0,-141.0,0
24.0,-254.0,13.0,-130.0,333.0,-142.0,0
26.0,-255.0,15.0,-129.0,335.0,-142.0,0
25.0,-256.0,15.0,-128.0,336.0,-143.0,0
26.0,-254.0,15.0,-127.0,339.0,-142.0,0
25.0,-255.0,12.0,-127.0,337.0,-141.0,0
28.0,-253.0,13.0,-128.0,338.0,-140.0,0
26.0,-254.0,13.0,-128.0,338.0,-139.0,0
27.0,-256.0,8.0,-132.0,335.0,-136.0,0
28.0,-250.0,10.0,-139.0,332.0,-133.0,0
26.0,-254.0,15.0,-143.0,331.0,-132.0,0
28.0,-254.0,9.0,-148.0,329.0,-129.0,0
28.0,-254.0,8.0,-154.0,329.0,-129.0,0
28.0,-255.0,12.0,-158.0,331.0,-129.0,0
27.0,-256.0,11.0,-162.0,333.0,-127.0,0
31.0,-255.0,14.0,-165.0,335.0,-129.0,0
31.0,-256.0,11.0,-165.0,338.0,-130.0,0
34.0,-258.0,11.0,-163.0,338.0,-131.0,0
31.0,-257.0,11.0,-159.0,338.0,-135.0,0
32.0,-259.0,12.0,-155.0,337.0,-136.0,0
34.0,-260.0,10.0,-153.0,336.0,-137.0,0
31.0,-260.0,13.0,-149.0,335.0,-139.0,0
29.0,-260.0,10.0,-145.0,337.0,-139.0,0
31.0,-259.0,9.0,-140.0,338.0,-139.0,0
31.0,-264.0,12.0,-133.0,340.0,-139.0,0
31.0,-260.0,8.0,-124.0,344.0,-140.0,0
32.0,-261.0,14.0,-115.0,349.0,-139.0,0
29.0,-259.0,11.0,-105.0,353.0,-139.0,0
27.0,-258.0,8.0,-98.0,356.0,-139.0,0
31.0,-259.0,13.0,-93.0,359.0,-137.0,0
33.0,-259.0,10.0,-90.0,360.0,-136.0,0
29.0,-257.0,12.0,-86.0,362.0,-136.0,0
29.0,-256.0,10.0,-84.0,362.0,-136.0,0
30.0,-256.0,13.0,-81.0,360.0,-133.0,0
30.0,-255.0,15.0,-79.0,359.0,-133.0,0
31.0,-251.0,15.0,-75.0,358.0,-133.0,0
31.0,-253.0,12.0,-73.0,356.0,-132.0,0
34.0,-254.0,16.0,-75.0,354.0,-131.0,0
31.0,-254.0,17.0,-81.0,354.0,-132.0,0
31.0,-254.0,14.0,-87.0,351.0,-131.0,0
28.0,-255.0,12.0,-96.0,345.0,-131.0,0
31.0,-256.0,14.0,-103.0,343.0,-132.0,0
29.0,-254.0,15.0,-109.0,342.0,-133.0,0
31.0,-259.0,11.0,-111.0,338.0,-132.0,0
29.0,-257.0,12.0,-109.0,336.0,-134.0,0
29.0,-258.0,11.0,-102.0,333.0,-136.0,0
27.0,-260.0,15.0,-94.0,331.0,-136.0,0
28.0,-260.0,14.0,-85.0,330.0,-136.0,0
24.0,-258.0,13.0,-78.0,327.0,-137.0,0
25.0,-258.0,14.0,-70.0,325.0,-137.0,0
23.0,-258.0,11.0,-63.0,324.0,-137.0,0
24.0,-257.0,15.0,-56.0,324.0,-138.0,0
22.0,-258.0,14.0,-52.0,323.0,-137.0,0
23.0,-258.0,12.0,-47.0,318.0,-137.0,0
23.0,-254.0,15.0,-44.0,313.0,-134.0,0
25.0,-256.0,18.0,-43.0,309.0,-134.0,0
23.0,-253.0,15.0,-45.0,306.0,-132.0,0
23.0,-254.0,17.0,-50.0,302.0,-130.0,0
27.0,-253.0,17.0,-54.0,297.0,-131.0,0
23.0,-254.0,16.0,-55.0,291.0,-128.0,0
26.0,-253.0,19.0,-53.0,283.0,-126.0,0
26.0,-254.0,16.0,-53.0,274.0,-127.0,0
27.0,-251.0,14.0,-53.0,265.0,-125.0,0
24.0,-253.0,9.0,-55.0,257.0,-124.0,0
30.0,-256.0,11.0,-57.0,250.0,-125.0,0
28.0,-256.0,13.0,-65.0,244.0,-124.0,0
25.0,-254.0,12.0,-69.0,239.0,-123.0,0
26.0,-259.0,5.0,-76.0,234.0,-122.0,0
25.0,-259.0,10.0,-81.0,230.0,-120.0,0
28.0,-260.0,13.0,-84.0,227.0,-122.0,0
25.0,-259.0,11.0,-82.0,225.0,-120.0,0
26.0,-258.0,11.0,-80.0,222.0,-119.0,0
27.0,-262.0,12.0,-75.0,220.0,-117.0,0
27.0,-260.0,21.0,-69.0,215.0,-117.0,0
26.0,-262.0,12.0,-62.0,209.0,-116.0,0
26.0,-259.0,13.0,-54.0,205.0,-114.0,0
26.0,-259.0,11.0,-48.0,198.0,-113.0,0
26.0,-258.0,9.0,-43.0,188.0,-111.0,0
24.0,-257.0,11.0,-44.0,179.0,-108.0,0
26.0,-259.0,10.0,-42.0,170.0,-105.0,0
29.0,-260.0,10.0,-42.0,158.0,-101.0,0
27.0,-258.0,10.0,-40.0,147.0,-99.0,0
25.0,-258.0,9.0,-37.0,137.0,-96.0,0
25.0,-259.0,15.0,-30.0,131.0,-93.0,0
31.0,-260.0,11.0,-26.0,125.0,-90.0,0
30.0,-257.0,6.0,-23.0,121.0,-87.0,0
33.0,-257.0,10.0,-21.0,120.0,-88.0,0
33.0,-258.0,10.0,-19.0,122.0,-87.0,0
36.0,-256.0,11.0,-21.0,126.0,-90.0,0
32.0,-254.0,11.0,-25.0,132.0,-92.0,0
37.0,-254.0,8.0,-27.0,135.0,-96.0,0
36.0,-255.0,10.0,-34.0,140.0,-97.0,0
35.0,-256.0,3.0,-37.0,141.0,-101.0,0
41.0,-253.0,7.0,-39.0,140.0,-105.0,0
38.0,-255.0,4.0,-44.0,139.0,-108.0,0
42.0,-253.0,5.0,-50.0,135.0,-111.0,0
44.0,-253.0,2.0,-53.0,134.0,-112.0,0
40.0,-257.0,2.0,-56.0,130.0,-111.0,0
44.0,-257.0,0.0,-58.0,129.0,-111.0,0
40.0,-263.0,2.0,-60.0,130.0,-111.0,0
42.0,-258.0,1.0,-57.0,130.0,-112.0,0
36.0,-254.0,2.0,-53.0,132.0,-112.0,0
36.0,-256.0,5.0,-50.0,134.0,-109.0,0
34.0,-256.0,3.0,-45.0,134.0,-108.0,0
35.0,-256.0,3.0,-42.0,133.0,-107.0,0
31.0,-258.0,4.0,-38.0,130.0,-102.0,0
29.0,-255.0,3.0,-36.0,126.0,-97.0,0
31.0,-257.0,7.0,-33.0,121.0,-92.0,0
30.0,-256.0,5.0,-30.0,115.0,-87.0,0
28.0,-257.0,5.0,-27.0,111.0,-81.0,0
30.0,-257.0,4.0,-26.0,110.0,-77.0,0
27.0,-257.0,9.0,-27.0,108.0,-74.0,0
29.0,-256.0,7.0,-27.0,105.0,-69.0,0
29.0,-257.0,4.0,-26.0,106.0,-68.0,0
30.0,-257.0,6.0,-25.0,104.0,-68.0,0
32.0,-257.0,9.0,-23.0,105.0,-66.0,0
31.0,-255.0,8.0,-21.0,103.0,-66.0,0
33.0,-269.0,24.0,-19.0,103.0,-66.0,0
35.0,-254.0,6.0,-15.0,103.0,-70.0,0
39.0,-254.0,3.0,-17.0,99.0,-70.0,0
35.0,-250.0,10.0,-21.0,97.0,-71.0,0
38.0,-250.0,7.0,-28.0,98.0,-73.0,0
38.0,-245.0,7.0,-40.0,100.0,-75.0,0
43.0,-245.0,8.0,-52.0,100.0,-78.0,0
43.0,-244.0,8.0,-65.0,104.0,-80.0,0
42.0,-243.0,6.0,-78.0,110.0,-83.0,0
43.0,-243.0,6.0,-92.0,115.0,-85.0,0
43.0,-243.0,8.0,-105.0,120.0,-88.0,0
41.0,-242.0,4.0,-120.0,127.0,-93.0,0
35.0,-242.0,8.0,-134.0,132.0,-98.0,0
40.0,-241.0,7.0,-149.0,137.0,-101.0,0
36.0,-242.0,14.0,-163.0,139.0,-104.0,0
38.0,-238.0,8.0,-178.0,146.0,-103.0,0
39.0,-241.0,9.0,-192.0,153.0,-103.0,0
37.0,-243.0,9.0,-209.0,159.0,-102.0,0
34.0,-241.0,7.0,-227.0,165.0,-99.0,0
35.0,-241.0,9.0,-250.0,170.0,-93.0,0
39.0,-241.0,3.0,-274.0,173.0,-86.0,0
37.0,-242.0,2.0,-294.0,178.0,-76.0,0
35.0,-241.0,5.0,-312.0,184.0,-66.0,0
38.0,-245.0,3.0,-323.0,189.0,-54.0,0
40.0,-243.0,4.0,-330.0,197.0,-40.0,0
44.0,-245.0,4.0,-330.0,206.0,-23.0,0
42.0,-247.0,4.0,-322.0,214.0,-5.0,0
43.0,-247.0,5.0,-307.0,221.0,12.0,0
44.0,-255.0,6.0,-291.0,227.0,30.0,0
47.0,-251.0,9.0,-266.0,229.0,50.0,0
46.0,-251.0,11.0,-239.0,229.0,69.0,0
49.0,-253.0,14.0,-206.0,226.0,85.0,0
47.0,-250.0,16.0,-176.0,218.0,100.0,0
46.0,-253.0,22.0,-152.0,205.0,113.0,0
46.0,-253.0,21.0,-137.0,189.0,126.0,0
43.0,-250.0,26.0,-129.0,167.0,136.0,0
40.0,-255.0,28.0,-130.0,142.0,147.0,0
37.0,-255.0,30.0,-138.0,109.0,157.0,0
38.0,-256.0,31.0,-146.0,76.0,168.0,0
34.0,-260.0,42.0,-153.0,42.0,178.0,0
29.0,-266.0,41.0,-159.0,9.0,184.0,0
26.0,-268.0,41.0,-160.0,-21.0,191.0,0
21.0,-270.0,40.0,-157.0,-47.0,193.0,0
20.0,-277.0,48.0,-148.0,-70.0,192.0,0
19.0,-278.0,44.0,-139.0,-92.0,192.0,0
19.0,-280.0,43.0,-125.0,-112.0,190.0,0
20.0,-277.0,44.0,-111.0,-126.0,188.0,0
23.0,-280.0,36.0,-99.0,-133.0,183.0,0
22.0,-279.0,35.0,-84.0,-134.0,178.0,0
18.0,-277.0,34.0,-67.0,-130.0,176.0,0
24.0,-278.0,29.0,-45.0,-127.0,172.0,0
22.0,-276.0,28.0,-26.0,-121.0,169.0,0
21.0,-275.0,25.0,2.0,-113.0,165.0,0
23.0,-272.0,29.0,27.0,-105.0,162.0,0
22.0,-268.0,23.0,51.0,-98.0,158.0,0
27.0,-266.0,22.0,76.0,-89.0,152.0,0
28.0,-264.0,22.0,95.0,-79.0,150.0,0
32.0,-262.0,23.0,116.0,-70.0,145.0,0
37.0,-262.0,25.0,138.0,-60.0,140.0,0
43.0,-258.0,23.0,155.0,-47.0,133.0,0
49.0,-256.0,27.0,177.0,-33.0,130.0,0
56.0,-255.0,29.0,199.0,-17.0,125.0,0
64.0,-252.0,26.0,218.0,2.0,121.0,0
67.0,-248.0,26.0,234.0,17.0,117.0,0
72.0,-245.0,28.0,244.0,34.0,112.0,0
75.0,-244.0,31.0,244.0,45.0,108.0,0
76.0,-241.0,31.0,243.0,52.0,105.0,0
79.0,-238.0,27.0,234.0,58.0,102.0,0
79.0,-234.0,24.0,218.0,59.0,100.0,0
80.0,-234.0,27.0,191.0,57.0,99.0,0
79.0,-229.0,23.0,155.0,51.0,99.0,0
76.0,-228.0,24.0,110.0,45.0,100.0,0
76.0,-230.0,29.0,64.0,38.0,103.0,0
72.0,-232.0,25.0,18.0,29.0,108.0,0
69.0,-239.0,26.0,-25.0,21.0,114.0,0
62.0,-239.0,24.0,-60.0,15.0,124.0,0
54.0,-244.0,27.0,-84.0,9.0,134.0,0
51.0,-247.0,22.0,-99.0,-2.0,145.0,0
44.0,-250.0,20.0,-115.0,-19.0,158.0,0
42.0,-255.0,18.0,-132.0,-40.0,170.0,0
37.0,-265.0,18.0,-145.0,-63.0,183.0,0
37.0,-272.0,15.0,-146.0,-81.0,192.0,0
31.0,-284.0,13.0,-131.0,-92.0,199.0,0
31.0,-289.0,15.0,-103.0,-93.0,200.0,0
25.0,-294.0,11.0,-62.0,-84.0,194.0,0
26.0,-300.0,10.0,-19.0,-66.0,182.0,0
25.0,-302.0,7.0,23.0,-45.0,162.0,0
24.0,-306.0,0.0,61.0,-22.0,137.0,0
17.0,-304.0,0.0,91.0,2.0,107.0,0
19.0,-304.0,-9.0,107.0,26.0,72.0,0
22.0,-305.0,-5.0,109.0,53.0,33.0,0
21.0,-302.0,-5.0,101.0,85.0,-13.0,0
26.0,-299.0,1.0,96.0,122.0,-59.0,0
29.0,-298.0,8.0,111.0,164.0,-102.0,0
31.0,-295.0,17.0,147.0,204.0,-140.0,0
26.0,-284.0,19.0,203.0,240.0,-170.0,0
27.0,-278.0,27.0,271.0,267.0,-193.0,0
18.0,-273.0,28.0,341.0,282.0,-205.0,0
24.0,-259.0,27.0,398.0,283.0,-212.0,0
24.0,-252.0,25.0,433.0,273.0,-210.0,0
22.0,-241.0,20.0,442.0,253.0,-202.0,0
24.0,-234.0,15.0,418.0,233.0,-185.0,0
25.0,-227.0,9.0,373.0,212.0,-162.0,0
27.0,-227.0,4.0,312.0,189.0,-135.0,0
28.0,-225.0,6.0,249.0,170.0,-103.0,0
30.0,-222.0,7.0,184.0,154.0,-69.0,0
32.0,-221.0,8.0,138.0,141.0,-37.0,0
33.0,-221.0,12.0,93.0,133.0,-8.0,0
37.0,-220.0,15.0,63.0,127.0,17.0,0
41.0,-221.0,10.0,40.0,125.0,41.0,0
41.0,-222.0,15.0,27.0,121.0,59.0,0
46.0,-226.0,11.0,11.0,120.0,76.0,0
50.0,-231.0,12.0,-5.0,121.0,85.0,0
51.0,-232.0,4.0,-26.0,126.0,94.0,0
51.0,-241.0,1.0,-51.0,142.0,96.0,0
53.0,-246.0,0.0,-78.0,165.0,95.0,0
50.0,-252.0,0.0,-100.0,192.0,91.0,0
50.0,-255.0,5.0,-113.0,223.0,86.0,0
48.0,-259.0,1.0,-111.0,253.0,78.0,0
41.0,-261.0,4.0,-100.0,284.0,71.0,0
39.0,-270.0,3.0,-81.0,309.0,66.0,0
34.0,-270.0,3.0,-54.0,333.0,57.0,0
27.0,-271.0,1.0,-25.0,353.0,53.0,0
28.0,-274.0,2.0,8.0,368.0,51.0,0
17.0,-272.0,4.0,39.0,380.0,48.0,0
15.0,-271.0,6.0,71.0,391.0,49.0,0
7.0,-271.0,5.0,97.0,399.0,49.0,0
5.0,-269.0,12.0,119.0,407.0,51.0,0
3.0,-269.0,11.0,144.0,411.0,56.0,0
3.0,-260.0,11.0,168.0,413.0,61.0,0
0.0,-258.0,15.0,192.0,411.0,65.0,0
0.0,-257.0,14.0,214.0,407.0,70.0,0
-3.0,-253.0,12.0,234.0,403.0,72.0,0
-1.0,-250.0,11.0,248.0,398.0,75.0,0
-3.0,-246.0,12.0,255.0,388.0,72.0,0
0.0,-243.0,11.0,254.0,379.0,70.0,0
0.0,-241.0,10.0,250.0,368.0,66.0,0
1.0,-240.0,7.0,242.0,356.0,60.0,0
1.0,-236.0,8.0,232.0,342.0,56.0,0
6.0,-237.0,6.0,221.0,329.0,50.0,0
13.0,-233.0,4.0,213.0,314.0,43.0,0
8.0,-231.0,4.0,205.0,296.0,36.0,0
12.0,-232.0,4.0,201.0,278.0,33.0,0
12.0,-233.0,3.0,194.0,261.0,28.0,0
10.0,-230.0,1.0,189.0,247.0,23.0,0
15.0,-229.0,-2.0,180.0,233.0,18.0,0
11.0,-230.0,9.0,172.0,223.0,17.0,0
10.0,-228.0,3.0,160.0,212.0,16.0,0
13.0,-231.0,5.0,144.0,203.0,16.0,0
11.0,-227.0,6.0,124.0,197.0,17.0,0
9.0,-228.0,8.0,106.0,193.0,18.0,0
9.0,-227.0,17.0,84.0,194.0,17.0,0
8.0,-228.0,14.0,61.0,200.0,16.0,0
4.0,-230.0,18.0,38.0,207.0,13.0,0
2.0,-232.0,22.0,16.0,213.0,13.0,0
2.0,-237.0,22.0,-5.0,211.0,11.0,0
1.0,-240.0,19.0,-30.0,204.0,12.0,0
0.0,-243.0,19.0,-52.0,191.0,16.0,0
-5.0,-252.0,26.0,-71.0,178.0,21.0,0
0.0,-254.0,27.0,-90.0,164.0,26.0,0
0.0,-261.0,28.0,-110.0,148.0,30.0,0
-5.0,-269.0,30.0,-120.0,133.0,33.0,0
-3.0,-268.0,28.0,-127.0,113.0,33.0,0
-7.0,-272.0,30.0,-126.0,92.0,33.0,0
-7.0,-276.0,31.0,-118.0,68.0,31.0,0
-8.0,-271.0,37.0,-102.0,48.0,29.0,0
-8.0,-273.0,38.0,-83.0,34.0,27.0,0
-12.0,-270.0,40.0,-62.0,16.0,25.0,0
-8.0,-266.0,37.0,-46.0,-1.0,23.0,0
-7.0,-265.0,38.0,-33.0,-14.0,21.0,0
-4.0,-260.0,36.0,-32.0,-26.0,20.0,0
-2.0,-260.0,32.0,-40.0,-36.0,20.0,0
0.0,-257.0,28.0,-56.0,-42.0,21.0,0
2.0,-263.0,28.0,-78.0,-43.0,20.0,0
5.0,-260.0,32.0,-101.0,-40.0,17.0,0
6.0,-260.0,40.0,-116.0,-31.0,12.0,0
10.0,-264.0,36.0,-127.0,-22.0,8.0,0
13.0,-260.0,42.0,-128.0,-11.0,2.0,0
14.0,-262.0,44.0,-123.0,2.0,-3.0,0
19.0,-261.0,47.0,-113.0,15.0,-9.0,0
19.0,-259.0,50.0,-102.0,30.0,-13.0,0
22.0,-258.0,51.0,-87.0,43.0,-19.0,0
24.0,-258.0,57.0,-70.0,55.0,-24.0,0
24.0,-258.0,59.0,-57.0,66.0,-27.0,0
27.0,-258.0,55.0,-45.0,75.0,-31.0,0
27.0,-258.0,52.0,-39.0,82.0,-29.0,0
27.0,-257.0,53.0,-38.0,86.0,-27.0,0
28.0,-258.0,49.0,-41.0,92.0,-23.0,0
31.0,-262.0,52.0,-43.0,99.0,-19.0,0
29.0,-267.0,46.0,-47.0,107.0,-10.0,0
25.0,-269.0,43.0,-50.0,118.0,-2.0,0
25.0,-270.0,44.0,-52.0,131.0,8.0,0
21.0,-271.0,44.0,-47.0,146.0,17.0,0
20.0,-270.0,41.0,-38.0,162.0,25.0,0
17.0,-269.0,33.0,-27.0,179.0,33.0,0
11.0,-269.0,41.0,-10.0,201.0,40.0,0
9.0,-264.0,41.0,9.0,225.0,44.0,0
7.0,-260.0,39.0,32.0,251.0,45.0,0
6.0,-256.0,37.0,54.0,273.0,45.0,0
4.0,-252.0,36.0,72.0,291.0,45.0,0
6.0,-251.0,38.0,85.0,309.0,40.0,0
2.0,-246.0,38.0,92.0,323.0,34.0,0
4.0,-241.0,32.0,89.0,333.0,29.0,0
4.0,-239.0,33.0,85.0,340.0,21.0,0
2.0,-238.0,32.0,74.0,348.0,14.0,0
2.0,-235.0,33.0,63.0,355.0,7.0,0
2.0,-230.0,36.0,51.0,361.0,-1.0,0
1.0,-231.0,31.0,37.0,365.0,-12.0,0
4.0,-229.0,35.0,25.0,368.0,-23.0,0
5.0,-228.0,37.0,20.0,370.0,-33.0,0
8.0,-227.0,35.0,16.0,370.0,-46.0,0
4.0,-226.0,35.0,17.0,370.0,-57.0,0
6.0,-227.0,35.0,15.0,367.0,-68.0,0
7.0,-228.0,32.0,12.0,365.0,-80.0,0
6.0,-228.0,37.0,6.0,360.0,-93.0,0
4.0,-226.0,29.0,-2.0,354.0,-108.0,0
6.0,-229.0,33.0,-13.0,349.0,-121.0,0
4.0,-229.0,29.0,-23.0,342.0,-134.0,0
4.0,-230.0,26.0,-34.0,333.0,-148.0,0
2.0,-232.0,30.0,-44.0,325.0,-165.0,0
0.0,-240.0,36.0,-56.0,325.0,-177.0,0
-4.0,-244.0,38.0,-69.0,325.0,-192.0,0
-3.0,-252.0,36.0,-82.0,329.0,-204.0,0
-7.0,-257.0,42.0,-101.0,333.0,-210.0,0
-13.0,-259.0,35.0,-124.0,336.0,-215.0,0
-9.0,-262.0,32.0,-149.0,334.0,-215.0,0
-11.0,-274.0,28.0,-174.0,331.0,-214.0,0
-9.0,-285.0,27.0,-199.0,332.0,-209.0,0
-5.0,-297.0,33.0,-221.0,350.0,-200.0,0
-1.0,-304.0,34.0,-227.0,381.0,-188.0,0
-2.0,-312.0,46.0,-206.0,415.0,-174.0,0
3.0,-312.0,44.0,-151.0,434.0,-156.0,0
2.0,-312.0,34.0,-75.0,436.0,-128.0,0
6.0,-309.0,32.0,1.0,415.0,-95.0,0
9.0,-306.0,25.0,63.0,383.0,-58.0,0
13.0,-303.0,25.0,107.0,350.0,-27.0,0
10.0,-299.0,26.0,144.0,327.0,-2.0,0
19.0,-297.0,16.0,181.0,307.0,18.0,0
13.0,-283.0,26.0,230.0,295.0,32.0,0
8.0,-268.0,30.0,287.0,286.0,42.0,0
10.0,-258.0,28.0,348.0,274.0,52.0,0
11.0,-245.0,27.0,406.0,259.0,60.0,0
10.0,-234.0,22.0,448.0,240.0,67.0,0
8.0,-226.0,16.0,468.0,222.0,73.0,0
9.0,-219.0,17.0,461.0,205.0,74.0,0
6.0,-207.0,10.0,429.0,194.0,72.0,0
7.0,-203.0,8.0,379.0,192.0,66.0,0
6.0,-196.0,7.0,318.0,202.0,54.0,0
3.0,-192.0,12.0,250.0,220.0,39.0,0
5.0,-192.0,13.0,184.0,243.0,21.0,0
2.0,-193.0,17.0,117.0,268.0,2.0,0
4.0,-193.0,17.0,54.0,290.0,-15.0,0
5.0,-196.0,20.0,0.0,307.0,-32.0,0
6.0,-204.0,20.0,-49.0,320.0,-48.0,0
6.0,-211.0,25.0,-91.0,327.0,-64.0,0
12.0,-219.0,21.0,-121.0,332.0,-78.0,0
2.0,-223.0,27.0,-145.0,334.0,-92.0,0
4.0,-231.0,26.0,-161.0,333.0,-107.0,0
5.0,-240.0,27.0,-170.0,333.0,-120.0,0
4.0,-245.0,27.0,-175.0,328.0,-132.0,0
4.0,-249.0,28.0,-178.0,322.0,-146.0,0
6.0,-255.0,29.0,-180.0,314.0,-157.0,0
5.0,-257.0,27.0,-181.0,306.0,-167.0,0
6.0,-264.0,29.0,-180.0,295.0,-177.0,0
9.0,-266.0,31.0,-175.0,283.0,-186.0,0
5.0,-269.0,26.0,-169.0,268.0,-191.0,0
8.0,-273.0,30.0,-157.0,255.0,-195.0,0
6.0,-273.0,27.0,-141.0,238.0,-198.0,0
4.0,-275.0,25.0,-118.0,219.0,-199.0,0
8.0,-280.0,25.0,-90.0,198.0,-197.0,0
6.0,-278.0,27.0,-57.0,178.0,-196.0,0
5.0,-277.0,22.0,-19.0,155.0,-192.0,0
5.0,-277.0,17.0,15.0,135.0,-187.0,0
4.0,-270.0,16.0,46.0,114.0,-179.0,0
6.0,-268.0,20.0,70.0,96.0,-171.0,0
6.0,-267.0,22.0,87.0,79.0,-162.0,0
2.0,-264.0,19.0,102.0,65.0,-156.0,0
2.0,-259.0,19.0,113.0,52.0,-147.0,0
2.0,-258.0,18.0,122.0,37.0,-138.0,0
3.0,-256.0,23.0,129.0,24.0,-131.0,0
4.0,-255.0,24.0,136.0,13.0,-124.0,0
1.0,-255.0,24.0,142.0,2.0,-116.0,0
4.0,-255.0,28.0,147.0,-6.0,-111.0,0
3.0,-251.0,28.0,149.0,-13.0,-106.0,0
5.0,-253.0,27.0,152.0,-21.0,-103.0,0
6.0,-250.0,28.0,152.0,-27.0,-100.0,0
4.0,-248.0,31.0,154.0,-30.0,-98.0,0
4.0,-248.0,34.0,155.0,-36.0,-98.0,0
5.0,-246.0,32.0,158.0,-39.0,-100.0,0
3.0,-248.0,35.0,161.0,-49.0,-100.0,0
1.0,-251.0,36.0,164.0,-63.0,-98.0,0
0.0,-244.0,33.0,164.0,-83.0,-95.0,0
0.0,-242.0,37.0,162.0,-106.0,-92.0,0
1.0,-244.0,36.0,158.0,-132.0,-87.0,0
0.0,-245.0,37.0,148.0,-159.0,-84.0,0
0.0,-243.0,34.0,135.0,-183.0,-84.0,0
3.0,-246.0,40.0,120.0,-203.0,-83.0,0
5.0,-247.0,37.0,104.0,-217.0,-87.0,0
6.0,-248.0,39.0,90.0,-225.0,-92.0,0
13.0,-249.0,41.0,81.0,-231.0,-99.0,0
14.0,-246.0,40.0,77.0,-232.0,-109.0,0
21.0,-248.0,45.0,77.0,-230.0,-122.0,0
22.0,-244.0,41.0,75.0,-227.0,-132.0,0
27.0,-242.0,42.0,74.0,-224.0,-139.0,0
30.0,-238.0,40.0,67.0,-222.0,-146.0,0
33.0,-240.0,41.0,55.0,-224.0,-148.0,0
37.0,-240.0,44.0,32.0,-228.0,-147.0,0
46.0,-241.0,37.0,-1.0,-234.0,-142.0,0
48.0,-240.0,42.0,-37.0,-238.0,-137.0,0
49.0,-242.0,44.0,-72.0,-238.0,-127.0,0
54.0,-245.0,46.0,-101.0,-236.0,-117.0,0
55.0,-249.0,48.0,-122.0,-231.0,-105.0,0
53.0,-249.0,47.0,-135.0,-227.0,-93.0,0
54.0,-250.0,44.0,-138.0,-222.0,-76.0,0
49.0,-247.0,42.0,-137.0,-219.0,-59.0,0
47.0,-249.0,42.0,-131.0,-219.0,-42.0,0
46.0,-248.0,43.0,-126.0,-221.0,-27.0,0
44.0,-246.0,37.0,-125.0,-221.0,-10.0,0
40.0,-242.0,40.0,-124.0,-223.0,5.0,0
38.0,-239.0,34.0,-130.0,-226.0,21.0,0
35.0,-236.0,36.0,-144.0,-227.0,35.0,0
30.0,-234.0,33.0,-163.0,-233.0,49.0,0
28.0,-236.0,32.0,-185.0,-239.0,61.0,0
25.0,-234.0,28.0,-202.0,-245.0,74.0,0
24.0,-231.0,30.0,-220.0,-254.0,86.0,0
24.0,-231.0,33.0,-237.0,-265.0,96.0,0
23.0,-230.0,29.0,-251.0,-273.0,106.0,0
22.0,-234.0,26.0,-260.0,-280.0,115.0,0
19.0,-232.0,34.0,-264.0,-285.0,123.0,0
20.0,-233.0,28.0,-268.0,-290.0,132.0,0
18.0,-236.0,27.0,-268.0,-294.0,140.0,0
21.0,-239.0,26.0,-268.0,-294.0,147.0,0
23.0,-239.0,30.0,-269.0,-291.0,151.0,0
22.0,-237.0,26.0,-267.0,-286.0,159.0,0
21.0,-241.0,26.0,-269.0,-277.0,162.0,0
20.0,-243.0,38.0,-264.0,-265.0,165.0,0
26.0,-243.0,24.0,-256.0,-252.0,169.0,0
26.0,-245.0,28.0,-244.0,-238.0,171.0,0
31.0,-245.0,31.0,-230.0,-222.0,177.0,0
32.0,-244.0,29.0,-214.0,-203.0,180.0,0
39.0,-242.0,29.0,-198.0,-186.0,183.0,0
41.0,-243.0,32.0,-185.0,-166.0,183.0,0
51.0,-248.0,30.0,-180.0,-144.0,181.0,0
45.0,-245.0,29.0,-182.0,-120.0,178.0,0
51.0,-246.0,35.0,-191.0,-96.0,172.0,0
53.0,-247.0,34.0,-198.0,-74.0,167.0,0
53.0,-252.0,34.0,-204.0,-59.0,162.0,0
50.0,-252.0,34.0,-208.0,-47.0,153.0,0
54.0,-253.0,36.0,-211.0,-39.0,143.0,0
49.0,-255.0,38.0,-209.0,-38.0,134.0,0
49.0,-259.0,36.0,-204.0,-41.0,120.0,0
47.0,-258.0,34.0,-195.0,-48.0,106.0,0
45.0,-258.0,36.0,-180.0,-55.0,91.0,0
43.0,-259.0,34.0,-163.0,-62.0,76.0,0
39.0,-259.0,34.0,-146.0,-67.0,63.0,0
34.0,-258.0,32.0,-126.0,-71.0,49.0,0
28.0,-257.0,31.0,-106.0,-75.0,35.0,0
24.0,-257.0,26.0,-90.0,-83.0,22.0,0
20.0,-254.0,26.0,-78.0,-88.0,13.0,0
15.0,-252.0,29.0,-67.0,-95.0,4.0,0
7.0,-251.0,26.0,-62.0,-103.0,-1.0,0
7.0,-248.0,27.0,-60.0,-109.0,-5.0,0
2.0,-249.0,25.0,-64.0,-114.0,-6.0,0
-4.0,-244.0,29.0,-73.0,-122.0,-5.0,0
-10.0,-243.0,25.0,-88.0,-128.0,-1.0,0
-8.0,-241.0,27.0,-108.0,-133.0,7.0,0
-7.0,-240.0,26.0,-129.0,-138.0,16.0,0
-9.0,-242.0,25.0,-156.0,-141.0,26.0,0
-9.0,-240.0,26.0,-186.0,-144.0,38.0,0
-7.0,-238.0,21.0,-220.0,-146.0,49.0,0
-1.0,-241.0,28.0,-254.0,-147.0,60.0,0
-1.0,-244.0,24.0,-286.0,-148.0,73.0,0
0.0,-248.0,30.0,-316.0,-152.0,83.0,0
1.0,-252.0,23.0,-343.0,-157.0,95.0,0
8.0,-259.0,26.0,-366.0,-163.0,105.0,0
9.0,-260.0,25.0,-381.0,-168.0,113.0,0
13.0,-268.0,23.0,-390.0,-172.0,122.0,0
19.0,-273.0,21.0,-387.0,-178.0,129.0,0
24.0,-279.0,17.0,-375.0,-182.0,136.0,0
29.0,-291.0,18.0,-351.0,-187.0,144.0,0
30.0,-283.0,14.0,-321.0,-192.0,151.0,0
32.0,-285.0,13.0,-288.0,-199.0,157.0,0
34.0,-280.0,11.0,-253.0,-204.0,162.0,0
32.0,-279.0,10.0,-223.0,-208.0,167.0,0
32.0,-279.0,10.0,-200.0,-208.0,169.0,0
32.0,-275.0,13.0,-180.0,-206.0,170.0,0
34.0,-270.0,11.0,-166.0,-201.0,170.0,0
37.0,-272.0,15.0,-155.0,-194.0,171.0,0
33.0,-263.0,12.0,-142.0,-184.0,170.0,0
28.0,-261.0,19.0,-123.0,-174.0,171.0,0
33.0,-262.0,18.0,-104.0,-163.0,168.0,0
29.0,-260.0,18.0,-83.0,-153.0,167.0,0
27.0,-256.0,25.0,-63.0,-142.0,166.0,0
29.0,-257.0,26.0,-46.0,-131.0,165.0,0
28.0,-251.0,27.0,-33.0,-118.0,164.0,0
26.0,-249.0,26.0,-23.0,-109.0,163.0,0
27.0,-248.0,29.0,-21.0,-98.0,161.0,0
25.0,-244.0,31.0,-24.0,-88.0,158.0,0
23.0,-244.0,30.0,-29.0,-76.0,155.0,0
24.0,-243.0,27.0,-38.0,-63.0,151.0,0
22.0,-244.0,24.0,-49.0,-51.0,145.0,0
21.0,-244.0,28.0,-61.0,-37.0,139.0,0
22.0,-243.0,30.0,-71.0,-25.0,132.0,0
18.0,-247.0,30.0,-84.0,-14.0,126.0,0
19.0,-242.0,32.0,-98.0,-6.0,119.0,0
19.0,-249.0,27.0,-111.0,2.0,113.0,0
18.0,-244.0,30.0,-124.0,9.0,106.0,0
16.0,-246.0,28.0,-136.0,14.0,101.0,0
14.0,-246.0,26.0,-150.0,18.0,94.0,0
13.0,-246.0,30.0,-161.0,21.0,88.0,0
12.0,-249.0,25.0,-166.0,24.0,81.0,0
11.0,-252.0,27.0,-171.0,24.0,75.0,0
13.0,-255.0,23.0,-174.0,26.0,70.0,0
12.0,-254.0,25.0,-170.0,26.0,66.0,0
10.0,-254.0,26.0,-168.0,24.0,60.0,0
9.0,-253.0,21.0,-164.0,22.0,54.0,0
12.0,-255.0,23.0,-156.0,18.0,49.0,0
10.0,-257.0,17.0,-149.0,15.0,46.0,0
12.0,-255.0,16.0,-144.0,16.0,41.0,0
9.0,-255.0,19.0,-140.0,15.0,37.0,0
12.0,-253.0,19.0,-135.0,16.0,31.0,0
9.0,-254.0,19.0,-133.0,18.0,30.0,0
9.0,-255.0,20.0,-129.0,18.0,26.0,0
4.0,-254.0,19.0,-128.0,20.0,24.0,0
18.0,-260.0,17.0,-127.0,22.0,23.0,0
11.0,-257.0,21.0,-130.0,25.0,23.0,0
11.0,-256.0,21.0,-132.0,27.0,21.0,0
10.0,-256.0,24.0,-134.0,30.0,20.0,0
11.0,-258.0,19.0,-133.0,33.0,20.0,0
9.0,-263.0,24.0,-132.0,34.0,17.0,0
8.0,-259.0,18.0,-129.0,33.0,16.0,0
12.0,-259.0,21.0,-127.0,32.0,16.0,0
7.0,-260.0,22.0,-125.0,30.0,15.0,0
6.0,-261.0,19.0,-123.0,28.0,13.0,0
7.0,-261.0,14.0,-120.0,23.0,13.0,0
9.0,-270.0,17.0,-115.0,20.0,14.0,0
10.0,-263.0,18.0,-113.0,16.0,15.0,0
6.0,-265.0,17.0,-109.0,13.0,14.0,0
7.0,-269.0,15.0,-106.0,11.0,15.0,0
5.0,-265.0,12.0,-99.0,10.0,13.0,0
6.0,-266.0,16.0,-92.0,11.0,12.0,0
5.0,-265.0,12.0,-81.0,10.0,10.0,0
11.0,-270.0,15.0,-71.0,10.0,8.0,0
10.0,-269.0,15.0,-57.0,9.0,8.0,0
6.0,-268.0,12.0,-42.0,9.0,6.0,0
8.0,-265.0,15.0,-27.0,12.0,5.0,0
5.0,-266.0,15.0,-17.0,12.0,3.0,0
8.0,-265.0,18.0,-4.0,14.0,1.0,0
7.0,-262.0,19.0,7.0,15.0,1.0,0
8.0,-261.0,19.0,16.0,18.0,-1.0,0
12.0,-261.0,18.0,27.0,19.0,-2.0,0
11.0,-258.0,19.0,37.0,20.0,-3.0,0
11.0,-258.0,18.0,47.0,19.0,-3.0,0
13.0,-256.0,20.0,55.0,19.0,-3.0,0
13.0,-256.0,18.0,62.0,17.0,-1.0,0
11.0,-255.0,18.0,69.0,17.0,0.0,0
10.0,-253.0,16.0,74.0,17.0,4.0,0
12.0,-254.0,18.0,76.0,19.0,5.0,0
12.0,-253.0,16.0,80.0,19.0,6.0,0
11.0,-250.0,15.0,83.0,21.0,4.0,0
7.0,-248.0,17.0,84.0,21.0,6.0,0
9.0,-250.0,16.0,83.0,22.0,6.0,0
10.0,-249.0,18.0,80.0,21.0,7.0,0
9.0,-248.0,15.0,73.0,18.0,6.0,0
8.0,-247.0,19.0,64.0,15.0,7.0,0
4.0,-246.0,17.0,54.0,10.0,9.0,0
5.0,-248.0,15.0,41.0,4.0,9.0,0
5.0,-245.0,15.0,30.0,-1.0,9.0,0
7.0,-246.0,16.0,21.0,-7.0,10.0,0
7.0,-247.0,19.0,13.0,-10.0,9.0,0
5.0,-249.0,17.0,6.0,-15.0,10.0,0
3.0,-250.0,19.0,0.0,-18.0,8.0,0
2.0,-248.0,16.0,-6.0,-23.0,6.0,0
4.0,-249.0,15.0,-12.0,-26.0,5.0,0
3.0,-253.0,16.0,-17.0,-31.0,6.0,0
3.0,-249.0,16.0,-24.0,-35.0,7.0,0
3.0,-241.0,-6.0,-31.0,-39.0,9.0,0
3.0,-252.0,15.0,-37.0,-42.0,10.0,0
2.0,-253.0,17.0,-45.0,-46.0,12.0,0
3.0,-254.0,20.0,-52.0,-50.0,15.0,0
4.0,-256.0,19.0,-58.0,-54.0,17.0,0
5.0,-255.0,18.0,-62.0,-57.0,20.0,0
2.0,-253.0,17.0,-64.0,-61.0,21.0,0
4.0,-255.0,13.0,-63.0,-63.0,23.0,0
2.0,-256.0,14.0,-63.0,-66.0,25.0,0
5.0,-257.0,15.0,-62.0,-68.0,27.0,0
6.0,-256.0,17.0,-60.0,-72.0,25.0,0
5.0,-253.0,13.0,-60.0,-75.0,25.0,0
6.0,-256.0,15.0,-60.0,-80.0,24.0,0
4.0,-253.0,13.0,-57.0,-85.0,22.0,0
6.0,-251.0,15.0,-59.0,-90.0,20.0,0
9.0,-253.0,14.0,-60.0,-95.0,21.0,0
9.0,-253.0,18.0,-65.0,-102.0,19.0,0
11.0,-251.0,17.0,-70.0,-106.0,16.0,0
9.0,-254.0,14.0,-75.0,-112.0,18.0,0
9.0,-251.0,21.0,-82.0,-114.0,16.0,0
14.0,-254.0,21.0,-88.0,-117.0,15.0,0
11.0,-251.0,22.0,-92.0,-119.0,15.0,0
11.0,-249.0,21.0,-95.0,-122.0,15.0,0
14.0,-252.0,18.0,-99.0,-125.0,17.0,0
13.0,-253.0,18.0,-99.0,-127.0,18.0,0
12.0,-256.0,18.0,-98.0,-129.0,21.0,0
12.0,-255.0,21.0,-96.0,-130.0,21.0,0
15.0,-256.0,20.0,-95.0,-130.0,21.0,0
17.0,-256.0,18.0,-91.0,-131.0,22.0,0
15.0,-255.0,20.0,-92.0,-131.0,22.0,0
17.0,-255.0,18.0,-92.0,-130.0,20.0,0
15.0,-257.0,16.0,-92.0,-129.0,20.0,0
15.0,-255.0,18.0,-91.0,-127.0,20.0,0
18.0,-256.0,18.0,-91.0,-127.0,20.0,0
17.0,-257.0,16.0,-88.0,-124.0,19.0,0
13.0,-254.0,17.0,-85.0,-122.0,19.0,0
15.0,-257.0,18.0,-85.0,-121.0,18.0,0
16.0,-255.0,17.0,-86.0,-121.0,19.0,0
12.0,-253.0,19.0,-84.0,-120.0,20.0,0
15.0,-256.0,19.0,-87.0,-121.0,20.0,0
15.0,-256.0,17.0,-87.0,-121.0,21.0,0
14.0,-253.0,16.0,-89.0,-117.0,22.0,0
16.0,-259.0,14.0,-88.0,-112.0,23.0,0
12.0,-256.0,17.0,-88.0,-108.0,23.0,0
18.0,-267.0,21.0,-85.0,-106.0,24.0,0
16.0,-260.0,23.0,-81.0,-104.0,25.0,0
14.0,-256.0,22.0,-78.0,-103.0,26.0,0
17.0,-258.0,19.0,-74.0,-99.0,27.0,0
15.0,-256.0,19.0,-72.0,-94.0,28.0,0
14.0,-257.0,23.0,-72.0,-90.0,28.0,0
14.0,-260.0,18.0,-71.0,-85.0,29.0,0
17.0,-259.0,19.0,-72.0,-80.0,29.0,0
19.0,-257.0,18.0,-70.0,-76.0,28.0,0
15.0,-257.0,13.0,-70.0,-71.0,28.0,0
17.0,-256.0,18.0,-69.0,-67.0,29.0,0
17.0,-256.0,17.0,-69.0,-64.0,29.0,0
17.0,-256.0,16.0,-70.0,-62.0,27.0,0
18.0,-255.0,14.0,-68.0,-60.0,28.0,0
17.0,-255.0,13.0,-67.0,-57.0,28.0,0
14.0,-255.0,17.0,-67.0,-55.0,28.0,0
15.0,-254.0,15.0,-63.0,-56.0,26.0,0
17.0,-256.0,15.0,-61.0,-55.0,25.0,0
18.0,-255.0,12.0,-60.0,-53.0,26.0,0
13.0,-252.0,14.0,-61.0,-54.0,27.0,0
13.0,-252.0,18.0,-61.0,-53.0,27.0,0
14.0,-254.0,17.0,-64.0,-54.0,27.0,0
14.0,-253.0,19.0,-64.0,-52.0,29.0,0
13.0,-255.0,17.0,-64.0,-50.0,28.0,0
13.0,-255.0,17.0,-61.0,-48.0,29.0,0
13.0,-255.0,16.0,-60.0,-46.0,29.0,0
14.0,-257.0,21.0,-54.0,-43.0,28.0,0
13.0,-255.0,19.0,-50.0,-39.0,28.0,0
9.0,-256.0,19.0,-47.0,-36.0,27.0,0
13.0,-257.0,19.0,-46.0,-33.0,25.0,0
14.0,-256.0,19.0,-43.0,-31.0,23.0,0
11.0,-256.0,18.0,-43.0,-28.0,23.0,0
9.0,-254.0,18.0,-40.0,-26.0,21.0,0
10.0,-260.0,17.0,-41.0,-23.0,20.0,0
11.0,-276.0,8.0,-42.0,-20.0,18.0,0
10.0,-257.0,20.0,-45.0,-18.0,17.0,0
11.0,-258.0,22.0,-44.0,-16.0,15.0,0
11.0,-254.0,14.0,-42.0,-14.0,14.0,0
13.0,-255.0,19.0,-42.0,-15.0,11.0,0
9.0,-256.0,15.0,-40.0,-16.0,10.0,0
9.0,-255.0,17.0,-42.0,-16.0,10.0,0
14.0,-251.0,16.0,-40.0,-15.0,7.0,0
14.0,-254.0,17.0,-41.0,-16.0,9.0,0
10.0,-252.0,19.0,-40.0,-17.0,8.0,0
10.0,-250.0,14.0,-39.0,-19.0,6.0,0
9.0,-253.0,20.0,-38.0,-22.0,5.0,0
10.0,-255.0,19.0,-39.0,-26.0,5.0,0
9.0,-253.0,19.0,-38.0,-29.0,3.0,0
10.0,-252.0,17.0,-37.0,-31.0,2.0,0
9.0,-254.0,18.0,-35.0,-35.0,1.0,0
10.0,-254.0,15.0,-34.0,-36.0,-2.0,0
5.0,-254.0,19.0,-35.0,-38.0,-5.0,0
8.0,-251.0,18.0,-39.0,-39.0,-7.0,0
8.0,-251.0,19.0,-42.0,-40.0,-9.0,0
11.0,-255.0,23.0,-46.0,-39.0,-10.0,0
7.0,-255.0,17.0,-49.0,-40.0,-13.0,0
6.0,-255.0,18.0,-52.0,-40.0,-15.0,0
8.0,-255.0,20.0,-55.0,-41.0,-18.0,0
6.0,-256.0,23.0,-57.0,-43.0,-20.0,0
2.0,-253.0,18.0,-58.0,-44.0,-19.0,0
4.0,-254.0,15.0,-58.0,-45.0,-23.0,0
7.0,-256.0,19.0,-57.0,-46.0,-25.0,0
9.0,-255.0,20.0,-56.0,-46.0,-26.0,0
8.0,-254.0,16.0,-55.0,-46.0,-27.0,0
6.0,-255.0,17.0,-54.0,-47.0,-28.0,0
7.0,-256.0,17.0,-53.0,-46.0,-28.0,0
8.0,-254.0,17.0,-49.0,-48.0,-28.0,0
9.0,-256.0,16.0,-48.0,-49.0,-26.0,0
9.0,-255.0,17.0,-47.0,-51.0,-26.0,0
9.0,-255.0,22.0,-45.0,-53.0,-27.0,0
10.0,-255.0,18.0,-41.0,-54.0,-27.0,0
7.0,-254.0,11.0,-39.0,-55.0,-26.0,0
10.0,-257.0,18.0,-37.0,-56.0,-25.0,0
8.0,-254.0,16.0,-37.0,-56.0,-24.0,0
9.0,-256.0,19.0,-34.0,-59.0,-26.0,0
10.0,-256.0,17.0,-34.0,-60.0,-25.0,0
10.0,-252.0,17.0,-35.0,-64.0,-25.0,0
8.0,-255.0,18.0,-34.0,-64.0,-24.0,0
10.0,-256.0,18.0,-38.0,-65.0,-24.0,0
7.0,-255.0,16.0,-41.0,-67.0,-22.0,0
10.0,-255.0,18.0,-44.0,-67.0,-22.0,0
8.0,-256.0,21.0,-43.0,-69.0,-19.0,0
10.0,-256.0,18.0,-43.0,-70.0,-17.0,0
9.0,-259.0,17.0,-43.0,-70.0,-16.0,0
10.0,-258.0,25.0,-43.0,-69.0,-13.0,0
10.0,-257.0,18.0,-42.0,-67.0,-11.0,0
10.0,-257.0,19.0,-38.0,-64.0,-9.0,0
6.0,-256.0,16.0,-36.0,-63.0,-5.0,0
11.0,-257.0,18.0,-33.0,-61.0,-3.0,0
12.0,-257.0,18.0,-31.0,-60.0,1.0,0
11.0,-256.0,19.0,-26.0,-60.0,2.0,0
8.0,-255.0,20.0,-25.0,-59.0,5.0,0
12.0,-255.0,15.0,-23.0,-60.0,7.0,0
11.0,-256.0,23.0,-25.0,-60.0,9.0,0
10.0,-256.0,19.0,-26.0,-61.0,8.0,0
11.0,-256.0,21.0,-25.0,-62.0,10.0,0
10.0,-256.0,20.0,-23.0,-65.0,12.0,0
11.0,-255.0,17.0,-20.0,-66.0,13.0,0
12.0,-245.0,0.0,-20.0,-68.0,14.0,0
14.0,-256.0,22.0,-22.0,-70.0,13.0,0
10.0,-254.0,22.0,-20.0,-69.0,12.0,0
14.0,-255.0,17.0,-22.0,-69.0,10.0,0
12.0,-255.0,21.0,-21.0,-67.0,10.0,0
14.0,-250.0,18.0,-19.0,-67.0,8.0,0
11.0,-255.0,16.0,-17.0,-65.0,5.0,0
15.0,-252.0,18.0,-17.0,-63.0,3.0,0
13.0,-252.0,18.0,-19.0,-61.0,1.0,0
15.0,-253.0,19.0,-20.0,-56.0,0.0,0
16.0,-252.0,20.0,-21.0,-49.0,-2.0,0
12.0,-251.0,15.0,-26.0,-44.0,-5.0,0
11.0,-251.0,16.0,-32.0,-38.0,-7.0,0
13.0,-253.0,20.0,-38.0,-32.0,-9.0,0
17.0,-256.0,17.0,-42.0,-28.0,-8.0,0
13.0,-252.0,24.0,-43.0,-25.0,-8.0,0
15.0,-255.0,20.0,-44.0,-21.0,-11.0,0
16.0,-254.0,19.0,-44.0,-18.0,-12.0,0
15.0,-255.0,23.0,-41.0,-13.0,-14.0,0
12.0,-254.0,23.0,-41.0,-12.0,-13.0,0
14.0,-253.0,21.0,-38.0,-9.0,-14.0,0
15.0,-255.0,20.0,-36.0,-7.0,-14.0,0
13.0,-255.0,18.0,-36.0,-5.0,-14.0,0
16.0,-253.0,19.0,-35.0,-4.0,-16.0,0
14.0,-256.0,22.0,-33.0,-1.0,-15.0,0
16.0,-257.0,21.0,-30.0,0.0,-16.0,0
18.0,-255.0,20.0,-29.0,3.0,-17.0,0
14.0,-255.0,20.0,-26.0,3.0,-16.0,0
17.0,-254.0,20.0,-23.0,5.0,-17.0,0
17.0,-256.0,19.0,-21.0,6.0,-17.0,0
18.0,-256.0,23.0,-18.0,9.0,-18.0,0
17.0,-257.0,23.0,-11.0,13.0,-18.0,0
19.0,-257.0,23.0,-7.0,15.0,-19.0,0
13.0,-248.0,20.0,-3.0,21.0,-22.0,0
17.0,-255.0,18.0,1.0,26.0,-24.0,0
19.0,-258.0,18.0,4.0,32.0,-26.0,0
18.0,-255.0,19.0,6.0,38.0,-30.0,0
18.0,-256.0,22.0,6.0,44.0,-33.0,0
19.0,-255.0,23.0,6.0,50.0,-35.0,0
20.0,-254.0,24.0,7.0,55.0,-36.0,0
20.0,-253.0,22.0,8.0,61.0,-37.0,0
25.0,-254.0,22.0,10.0,67.0,-38.0,0
19.0,-251.0,23.0,9.0,72.0,-39.0,0
23.0,-250.0,22.0,7.0,77.0,-41.0,0
16.0,-246.0,22.0,6.0,81.0,-40.0,0
16.0,-247.0,23.0,1.0,84.0,-39.0,0
15.0,-247.0,25.0,-7.0,88.0,-39.0,0
14.0,-246.0,23.0,-18.0,90.0,-38.0,0
16.0,-247.0,17.0,-30.0,91.0,-37.0,0
15.0,-247.0,25.0,-40.0,91.0,-37.0,0
13.0,-245.0,21.0,-50.0,91.0,-37.0,0
14.0,-246.0,24.0,-58.0,93.0,-37.0,0
16.0,-251.0,22.0,-70.0,95.0,-35.0,0
17.0,-250.0,25.0,-76.0,96.0,-35.0,0
14.0,-249.0,25.0,-85.0,98.0,-35.0,0
12.0,-251.0,19.0,-89.0,99.0,-38.0,0
20.0,-255.0,23.0,-95.0,100.0,-39.0,0
13.0,-252.0,23.0,-97.0,102.0,-40.0,0
14.0,-255.0,24.0,-100.0,104.0,-41.0,0
13.0,-256.0,20.0,-101.0,106.0,-44.0,0
12.0,-255.0,24.0,-101.0,108.0,-44.0,0
15.0,-258.0,22.0,-99.0,111.0,-47.0,0
17.0,-258.0,22.0,-94.0,112.0,-50.0,0
14.0,-257.0,20.0,-89.0,113.0,-51.0,0
15.0,-257.0,20.0,-81.0,117.0,-54.0,0
16.0,-257.0,23.0,-77.0,121.0,-55.0,0
13.0,-257.0,21.0,-72.0,126.0,-55.0,0
16.0,-258.0,21.0,-68.0,132.0,-57.0,0
17.0,-260.0,23.0,-67.0,137.0,-58.0,0
20.0,-260.0,25.0,-69.0,144.0,-58.0,0
21.0,-263.0,34.0,-71.0,154.0,-57.0,0
23.0,-266.0,31.0,-73.0,162.0,-59.0,0
24.0,-267.0,35.0,-73.0,173.0,-60.0,0
23.0,-272.0,33.0,-72.0,182.0,-60.0,0
24.0,-273.0,37.0,-73.0,189.0,-60.0,0
21.0,-276.0,36.0,-74.0,192.0,-60.0,0
28.0,-280.0,38.0,-76.0,195.0,-61.0,0
22.0,-284.0,41.0,-74.0,199.0,-64.0,0
27.0,-284.0,41.0,-69.0,202.0,-63.0,0
29.0,-284.0,46.0,-58.0,206.0,-66.0,0
24.0,-283.0,39.0,-42.0,207.0,-69.0,0
24.0,-281.0,36.0,-25.0,211.0,-69.0,0
28.0,-281.0,31.0,-9.0,215.0,-71.0,0
29.0,-279.0,39.0,3.0,220.0,-73.0,0
29.0,-271.0,39.0,10.0,227.0,-74.0,0
31.0,-267.0,38.0,6.0,230.0,-73.0,0
32.0,-265.0,36.0,-8.0,223.0,-68.0,0
34.0,-261.0,34.0,-28.0,199.0,-58.0,0
31.0,-258.0,21.0,-59.0,153.0,-45.0,0
34.0,-256.0,5.0,-111.0,83.0,-30.0,0
32.0,-252.0,-21.0,-183.0,-2.0,-14.0,0
37.0,-255.0,-48.0,-267.0,-90.0,-2.0,0
44.0,-249.0,-66.0,-350.0,-143.0,8.0,0
48.0,-248.0,-76.0,-416.0,-126.0,19.0,0
43.0,-246.0,-73.0,-462.0,-35.0,29.0,0
35.0,-244.0,-63.0,-488.0,84.0,29.0,0
42.0,-241.0,-52.0,-496.0,206.0,21.0,0
36.0,-236.0,-43.0,-487.0,333.0,10.0,0
35.0,-229.0,-22.0,-462.0,464.0,-4.0,0
34.0,-223.0,-8.0,-428.0,580.0,-21.0,0
38.0,-213.0,3.0,-388.0,675.0,-34.0,0
35.0,-204.0,11.0,-354.0,751.0,-44.0,0
33.0,-201.0,16.0,-328.0,819.0,-46.0,0
29.0,-190.0,29.0,-315.0,877.0,-44.0,0
22.0,-183.0,35.0,-313.0,923.0,-34.0,0
19.0,-179.0,42.0,-310.0,951.0,-19.0,0
11.0,-170.0,42.0,-303.0,956.0,-1.0,0
13.0,-170.0,42.0,-291.0,940.0,19.0,0
7.0,-171.0,36.0,-280.0,906.0,34.0,0
4.0,-173.0,27.0,-275.0,865.0,48.0,0
5.0,-176.0,21.0,-287.0,823.0,57.0,0
4.0,-185.0,11.0,-313.0,788.0,56.0,0
9.0,-196.0,1.0,-359.0,763.0,50.0,0
16.0,-207.0,-8.0,-420.0,751.0,31.0,0
11.0,-221.0,-16.0,-473.0,750.0,10.0,0
15.0,-233.0,-16.0,-504.0,751.0,-16.0,0
15.0,-239.0,-25.0,-518.0,745.0,-42.0,0
17.0,-243.0,-30.0,-508.0,733.0,-63.0,0
21.0,-247.0,-36.0,-475.0,708.0,-83.0,0
28.0,-249.0,-40.0,-433.0,677.0,-104.0,0
34.0,-248.0,-32.0,-389.0,651.0,-132.0,0
38.0,-239.0,-38.0,-349.0,631.0,-170.0,0
51.0,-234.0,-35.0,-323.0,628.0,-218.0,0
59.0,-224.0,-30.0,-323.0,648.0,-273.0,0
65.0,-222.0,-22.0,-348.0,695.0,-338.0,0
69.0,-218.0,-12.0,-392.0,776.0,-410.0,0
66.0,-218.0,-4.0,-452.0,877.0,-486.0,0
66.0,-221.0,0.0,-520.0,993.0,-560.0,0
71.0,-230.0,6.0,-589.0,1121.0,-632.0,0
71.0,-241.0,7.0,-649.0,1262.0,-701.0,0
68.0,-258.0,3.0,-689.0,1423.0,-762.0,0
64.0,-276.0,8.0,-702.0,1603.0,-820.0,0
61.0,-299.0,16.0,-670.0,1800.0,-870.0,0
48.0,-316.0,19.0,-582.0,2006.0,-908.0,0
44.0,-326.0,20.0,-441.0,2215.0,-926.0,0
42.0,-331.0,23.0,-255.0,2427.0,-925.0,0
45.0,-324.0,25.0,-31.0,2635.0,-905.0,0
39.0,-303.0,29.0,212.0,2826.0,-877.0,0
32.0,-274.0,27.0,461.0,2984.0,-839.0,0
16.0,-242.0,24.0,698.0,3095.0,-793.0,0
2.0,-202.0,20.0,907.0,3146.0,-737.0,0
-5.0,-168.0,28.0,1065.0,3130.0,-666.0,0
-16.0,-126.0,13.0,1159.0,3050.0,-580.0,0
-24.0,-90.0,1.0,1181.0,2917.0,-487.0,0
-33.0,-51.0,-13.0,1129.0,2746.0,-398.0,0
-45.0,-25.0,-29.0,1002.0,2550.0,-313.0,0
-55.0,3.0,-39.0,816.0,2336.0,-228.0,0
-57.0,20.0,-57.0,581.0,2117.0,-144.0,0
-64.0,35.0,-69.0,314.0,1898.0,-70.0,0
-66.0,36.0,-80.0,26.0,1693.0,-9.0,0
-61.0,30.0,-90.0,-267.0,1516.0,43.0,0
-51.0,17.0,-101.0,-550.0,1381.0,75.0,0
-38.0,1.0,-107.0,-809.0,1310.0,84.0,0
-35.0,-20.0,-108.0,-1035.0,1303.0,74.0,0
-33.0,-46.0,-99.0,-1220.0,1347.0,59.0,0
-29.0,-77.0,-85.0,-1359.0,1424.0,41.0,0
-29.0,-114.0,-77.0,-1451.0,1535.0,24.0,0
-33.0,-141.0,-67.0,-1499.0,1676.0,4.0,0
-41.0,-167.0,-46.0,-1512.0,1826.0,-22.0,0
-49.0,-188.0,-34.0,-1500.0,1955.0,-45.0,0
-51.0,-203.0,-19.0,-1484.0,2036.0,-69.0,0
-58.0,-235.0,-10.0,-1502.0,2059.0,-111.0,0
-79.0,-285.0,-1.0,-1579.0,2016.0,-164.0,0
-107.0,-371.0,16.0,-1721.0,1892.0,-196.0,0
-131.0,-476.0,58.0,-1886.0,1657.0,-174.0,0
-136.0,-588.0,119.0,-1987.0,1311.0,-115.0,0
-114.0,-703.0,172.0,-1957.0,875.0,-65.0,0
-62.0,-783.0,188.0,-1787.0,378.0,-50.0,0
6.0,-802.0,184.0,-1486.0,-91.0,-40.0,0
78.0,-796.0,166.0,-1111.0,-405.0,15.0,0
122.0,-787.0,159.0,-413.0,-518.0,69.0,0
116.0,-728.0,166.0,499.0,-488.0,61.0,0
90.0,-638.0,168.0,1411.0,-445.0,15.0,0
79.0,-528.0,163.0,2087.0,-438.0,-11.0,0
87.0,-419.0,141.0,2399.0,-487.0,-14.0,0
102.0,-332.0,115.0,2373.0,-537.0,-14.0,0
116.0,-265.0,87.0,2112.0,-514.0,-29.0,0
123.0,-218.0,65.0,1746.0,-384.0,-58.0,0
111.0,-190.0,63.0,1370.0,-178.0,-94.0,0
102.0,-170.0,67.0,1037.0,39.0,-125.0,0
88.0,-156.0,80.0,770.0,215.0,-151.0,0
78.0,-146.0,82.0,567.0,334.0,-177.0,0
70.0,-142.0,92.0,402.0,401.0,-209.0,0
67.0,-141.0,94.0,257.0,423.0,-246.0,0
67.0,-146.0,94.0,106.0,404.0,-277.0,0
72.0,-158.0,93.0,-91.0,352.0,-302.0,0
75.0,-176.0,90.0,-367.0,274.0,-319.0,0
79.0,-200.0,93.0,-714.0,172.0,-339.0,0
83.0,-239.0,100.0,-1085.0,58.0,-359.0,0
82.0,-279.0,103.0,-1439.0,-54.0,-377.0,0
78.0,-315.0,116.0,-1738.0,-151.0,-385.0,0
73.0,-349.0,121.0,-1962.0,-228.0,-381.0,0
64.0,-383.0,131.0,-2095.0,-284.0,-364.0,0
61.0,-411.0,150.0,-2138.0,-319.0,-336.0,0
57.0,-432.0,150.0,-2091.0,-339.0,-297.0,0
58.0,-448.0,152.0,-1968.0,-343.0,-250.0,0
60.0,-461.0,148.0,-1792.0,-331.0,-204.0,0
65.0,-464.0,137.0,-1575.0,-306.0,-158.0,0
66.0,-462.0,121.0,-1343.0,-270.0,-118.0,0
69.0,-453.0,107.0,-1120.0,-223.0,-88.0,0
69.0,-441.0,98.0,-927.0,-174.0,-67.0,0
64.0,-426.0,87.0,-765.0,-127.0,-59.0,0
65.0,-412.0,74.0,-629.0,-83.0,-64.0,0
63.0,-390.0,73.0,-507.0,-43.0,-76.0,0
59.0,-371.0,66.0,-392.0,-5.0,-99.0,0
62.0,-349.0,62.0,-287.0,28.0,-128.0,0
59.0,-328.0,57.0,-195.0,51.0,-165.0,0
57.0,-305.0,53.0,-124.0,64.0,-204.0,0
53.0,-284.0,54.0,-73.0,63.0,-243.0,0
49.0,-267.0,41.0,-34.0,50.0,-277.0,0
46.0,-246.0,44.0,-3.0,30.0,-307.0,0
42.0,-228.0,42.0,29.0,9.0,-340.0,0
36.0,-208.0,37.0,58.0,-4.0,-371.0,0
33.0,-192.0,30.0,81.0,-3.0,-399.0,0
32.0,-177.0,22.0,95.0,1.0,-420.0,0
29.0,-165.0,17.0,92.0,12.0,-430.0,0
24.0,-151.0,10.0,61.0,22.0,-424.0,0
23.0,-142.0,5.0,1.0,27.0,-403.0,0
22.0,-134.0,0.0,-72.0,19.0,-371.0,0
20.0,-126.0,-1.0,-143.0,-7.0,-323.0,0
8.0,-117.0,-2.0,-210.0,-57.0,-266.0,0
5.0,-111.0,-5.0,-277.0,-146.0,-191.0,0
4.0,-108.0,-8.0,-339.0,-272.0,-96.0,0
6.0,-100.0,-10.0,-383.0,-404.0,-3.0,0
17.0,-97.0,-2.0,-401.0,-514.0,80.0,0
17.0,-92.0,-6.0,-394.0,-584.0,142.0,0
9.0,-97.0,-24.0,-359.0,-609.0,177.0,0
-13.0,-98.0,-41.0,-276.0,-602.0,195.0,0
-27.0,-98.0,-51.0,-158.0,-595.0,217.0,0
-7.0,-98.0,-50.0,-36.0,-602.0,247.0,0
40.0,-105.0,-52.0,76.0,-619.0,246.0,0
93.0,-106.0,-50.0,206.0,-632.0,218.0,0
87.0,-110.0,-64.0,387.0,-587.0,170.0,0
73.0,-128.0,-91.0,578.0,-460.0,95.0,0
75.0,-146.0,-115.0,698.0,-296.0,13.0,0
73.0,-165.0,-139.0,701.0,-130.0,-77.0,0
75.0,-173.0,-157.0,569.0,72.0,-195.0,0
92.0,-183.0,-168.0,319.0,350.0,-352.0,0
122.0,-196.0,-180.0,5.0,713.0,-553.0,0
140.0,-220.0,-187.0,-338.0,1124.0,-802.0,0
141.0,-247.0,-181.0,-700.0,1530.0,-1084.0,0
122.0,-278.0,-146.0,-1076.0,1867.0,-1371.0,0
78.0,-299.0,-98.0,-1430.0,2067.0,-1619.0,0
36.0,-321.0,-43.0,-1696.0,2091.0,-1779.0,0
11.0,-342.0,0.0,-1823.0,1955.0,-1842.0,0
0.0,-354.0,32.0,-1804.0,1708.0,-1823.0,0
2.0,-365.0,40.0,-1656.0,1416.0,-1730.0,0
0.0,-370.0,35.0,-1406.0,1143.0,-1573.0,0
-2.0,-374.0,31.0,-1094.0,913.0,-1350.0,0
-13.0,-381.0,27.0,-777.0,707.0,-1082.0,0
-21.0,-388.0,27.0,-514.0,504.0,-795.0,0
-45.0,-392.0,25.0,-352.0,306.0,-517.0,0
-62.0,-398.0,17.0,-310.0,143.0,-259.0,0
-75.0,-407.0,12.0,-349.0,50.0,-32.0,0
-98.0,-413.0,3.0,-431.0,49.0,154.0,0
-125.0,-432.0,-4.0,-515.0,120.0,301.0,0
-151.0,-451.0,-5.0,-568.0,221.0,419.0,0
-175.0,-475.0,-2.0,-573.0,308.0,517.0,0
-190.0,-500.0,-5.0,-528.0,352.0,594.0,0
-195.0,-511.0,-6.0,-442.0,351.0,638.0,0
-188.0,-507.0,-4.0,-326.0,324.0,654.0,0
-170.0,-490.0,0.0,-203.0,276.0,655.0,0
-145.0,-469.0,11.0,-97.0,192.0,666.0,0
-126.0,-450.0,21.0,-38.0,54.0,694.0,0
-104.0,-437.0,30.0,-52.0,-129.0,734.0,0
-88.0,-423.0,38.0,-133.0,-330.0,785.0,0
-68.0,-425.0,52.0,-263.0,-513.0,854.0,0
-53.0,-429.0,65.0,-403.0,-661.0,934.0,0
-34.0,-442.0,83.0,-519.0,-761.0,1022.0,0
-18.0,-455.0,102.0,-573.0,-817.0,1114.0,0
-13.0,-472.0,124.0,-549.0,-837.0,1196.0,0
1.0,-481.0,133.0,-440.0,-843.0,1261.0,0
0.0,-474.0,137.0,-249.0,-866.0,1305.0,0
-2.0,-459.0,141.0,-6.0,-921.0,1345.0,0
-11.0,-431.0,121.0,245.0,-1021.0,1395.0,0
-23.0,-388.0,103.0,453.0,-1158.0,1465.0,0
-35.0,-349.0,84.0,586.0,-1316.0,1562.0,0
-44.0,-310.0,57.0,642.0,-1472.0,1688.0,0
-57.0,-264.0,29.0,624.0,-1605.0,1839.0,0
-64.0,-242.0,-1.0,540.0,-1696.0,1995.0,0
-61.0,-234.0,-15.0,403.0,-1728.0,2133.0,0
-60.0,-209.0,-32.0,219.0,-1706.0,2232.0,0
-52.0,-203.0,-40.0,0.0,-1634.0,2275.0,0
-42.0,-197.0,-34.0,-192.0,-1522.0,2258.0,0
-30.0,-194.0,-28.0,-424.0,-1374.0,2187.0,0
-10.0,-197.0,-15.0,-611.0,-1209.0,2080.0,0
14.0,-199.0,-5.0,-728.0,-1077.0,1921.0,0
46.0,-205.0,7.0,-766.0,-925.0,1705.0,0
71.0,-206.0,12.0,-715.0,-801.0,1445.0,0
80.0,-200.0,14.0,-584.0,-697.0,1214.0,0
96.0,-184.0,6.0,-402.0,-600.0,927.0,0
107.0,-162.0,0.0,-181.0,-519.0,639.0,0
112.0,-139.0,-7.0,54.0,-449.0,359.0,0
112.0,-118.0,-28.0,276.0,-388.0,93.0,0
107.0,-96.0,-38.0,465.0,-338.0,-160.0,0
95.0,-71.0,-51.0,606.0,-298.0,-394.0,0
85.0,-49.0,-63.0,687.0,-268.0,-604.0,0
77.0,-25.0,-71.0,712.0,-252.0,-776.0,0
72.0,-10.0,-75.0,692.0,-256.0,-912.0,0
67.0,2.0,-76.0,642.0,-276.0,-1010.0,0
65.0,14.0,-73.0,571.0,-306.0,-1063.0,0
67.0,19.0,-72.0,503.0,-350.0,-1079.0,0
66.0,16.0,-65.0,429.0,-405.0,-1075.0,0
66.0,15.0,-55.0,358.0,-465.0,-1065.0,0
63.0,11.0,-44.0,318.0,-517.0,-1047.0,0
66.0,3.0,-47.0,340.0,-553.0,-1013.0,0
57.0,-18.0,-65.0,437.0,-602.0,-952.0,0
42.0,-26.0,-84.0,619.0,-687.0,-866.0,0
5.0,-41.0,-99.0,850.0,-791.0,-763.0,0
-44.0,-36.0,-101.0,1058.0,-856.0,-651.0,0
-86.0,-33.0,-114.0,1203.0,-883.0,-529.0,0
-125.0,-33.0,-131.0,1267.0,-927.0,-392.0,0
-173.0,-36.0,-163.0,1246.0,-1014.0,-238.0,0
-236.0,-37.0,-203.0,1159.0,-1105.0,-56.0,0
-245.0,-66.0,-252.0,997.0,-1157.0,168.0,0
-203.0,-111.0,-318.0,689.0,-1181.0,441.0,0
-157.0,-177.0,-377.0,140.0,-1153.0,711.0,0
-119.0,-260.0,-410.0,-683.0,-1012.0,948.0,0
-83.0,-355.0,-384.0,-1656.0,-731.0,1162.0,0
-51.0,-450.0,-320.0,-2559.0,-315.0,1368.0,0
-23.0,-546.0,-235.0,-3213.0,210.0,1574.0,0
-1.0,-624.0,-129.0,-3476.0,754.0,1783.0,0
3.0,-714.0,-48.0,-3217.0,1172.0,1967.0,0
-13.0,-799.0,-53.0,-2565.0,1250.0,2011.0,0
-30.0,-836.0,-55.0,-1895.0,844.0,1786.0,0
-23.0,-819.0,-4.0,-1345.0,168.0,1366.0,0
-1.0,-770.0,67.0,-913.0,-477.0,916.0,0
27.0,-720.0,138.0,-573.0,-958.0,487.0,0
32.0,-667.0,193.0,-324.0,-1331.0,-12.0,0
37.0,-615.0,203.0,-169.0,-1650.0,-583.0,0
43.0,-571.0,190.0,-72.0,-1878.0,-1113.0,0
41.0,-527.0,162.0,16.0,-1924.0,-1519.0,0
48.0,-488.0,139.0,183.0,-1748.0,-1774.0,0
48.0,-446.0,120.0,460.0,-1433.0,-1918.0,0
53.0,-399.0,90.0,772.0,-1080.0,-1984.0,0
71.0,-354.0,57.0,996.0,-729.0,-1976.0,0
78.0,-315.0,23.0,1037.0,-388.0,-1903.0,0
84.0,-290.0,-3.0,860.0,-54.0,-1772.0,0
92.0,-278.0,-15.0,483.0,258.0,-1593.0,0
108.0,-280.0,-18.0,-24.0,526.0,-1379.0,0
126.0,-288.0,-10.0,-596.0,748.0,-1150.0,0
142.0,-299.0,3.0,-1171.0,933.0,-931.0,0
151.0,-315.0,20.0,-1660.0,1085.0,-723.0,0
144.0,-329.0,44.0,-2001.0,1196.0,-545.0,0
134.0,-354.0,57.0,-2174.0,1236.0,-401.0,0
129.0,-377.0,62.0,-2196.0,1193.0,-294.0,0
106.0,-392.0,66.0,-2104.0,1077.0,-213.0,0
98.0,-407.0,62.0,-1913.0,904.0,-182.0,0
89.0,-413.0,56.0,-1695.0,708.0,-206.0,0
73.0,-405.0,45.0,-1351.0,525.0,-277.0,0
64.0,-397.0,31.0,-937.0,402.0,-379.0,0
48.0,-381.0,18.0,-473.0,272.0,-497.0,0
34.0,-353.0,3.0,6.0,151.0,-619.0,0
11.0,-323.0,-10.0,474.0,37.0,-710.0,0
-3.0,-288.0,-24.0,888.0,-65.0,-782.0,0
-28.0,-248.0,-33.0,1214.0,-139.0,-798.0,0
-34.0,-202.0,-36.0,1451.0,-181.0,-769.0,0
-38.0,-155.0,-35.0,1632.0,-198.0,-709.0,0
-42.0,-108.0,-35.0,1785.0,-186.0,-631.0,0
-48.0,-58.0,-33.0,1926.0,-135.0,-537.0,0
-54.0,-14.0,-30.0,2047.0,-62.0,-417.0,0
-65.0,25.0,-29.0,2153.0,0.0,-271.0,0
-77.0,53.0,-37.0,2233.0,22.0,-97.0,0
-82.0,68.0,-66.0,2253.0,-7.0,101.0,0
-79.0,82.0,-92.0,2167.0,-87.0,288.0,0
-68.0,79.0,-127.0,1967.0,-202.0,450.0,0
-62.0,82.0,-150.0,1642.0,-333.0,564.0,0
-50.0,74.0,-169.0,1215.0,-448.0,642.0,0
-49.0,75.0,-177.0,749.0,-512.0,698.0,0
-45.0,74.0,-169.0,302.0,-503.0,724.0,0
-46.0,81.0,-138.0,-65.0,-424.0,722.0,0
-43.0,79.0,-105.0,-314.0,-295.0,699.0,0
-39.0,70.0,-74.0,-448.0,-155.0,667.0,0
-41.0,52.0,-48.0,-501.0,-42.0,612.0,0
-43.0,28.0,-46.0,-481.0,20.0,539.0,0
-35.0,-11.0,-38.0,-360.0,47.0,454.0,0
-6.0,-28.0,-59.0,-131.0,70.0,383.0,0
63.0,-57.0,-71.0,186.0,132.0,325.0,0
136.0,-88.0,-90.0,535.0,261.0,245.0,0
203.0,-118.0,-122.0,876.0,440.0,123.0,0
221.0,-129.0,-162.0,1221.0,602.0,-27.0,0
194.0,-140.0,-223.0,1572.0,680.0,-160.0,0
133.0,-151.0,-284.0,1855.0,703.0,-272.0,0
83.0,-157.0,-327.0,1918.0,752.0,-397.0,0
88.0,-170.0,-358.0,1639.0,837.0,-548.0,0
139.0,-197.0,-388.0,997.0,923.0,-743.0,0
197.0,-234.0,-404.0,106.0,1007.0,-1012.0,0
222.0,-287.0,-397.0,-928.0,1066.0,-1353.0,0
188.0,-336.0,-345.0,-2093.0,1016.0,-1750.0,0
110.0,-379.0,-272.0,-3350.0,801.0,-2131.0,0
20.0,-420.0,-185.0,-4549.0,509.0,-2414.0,0
-50.0,-473.0,-102.0,-5432.0,353.0,-2542.0,0
-50.0,-581.0,-48.0,-5835.0,465.0,-2480.0,0
-42.0,-719.0,1.0,-5802.0,784.0,-2290.0,0
-43.0,-855.0,31.0,-5484.0,1153.0,-1934.0,0
-69.0,-997.0,37.0,-5105.0,1474.0,-1325.0,0
-103.0,-1121.0,82.0,-4757.0,1681.0,-484.0,0
-110.0,-1199.0,172.0,-4171.0,1675.0,410.0,0
-127.0,-1195.0,226.0,-3042.0,1447.0,1107.0,0
-140.0,-1096.0,242.0,-1378.0,1089.0,1516.0,0
-143.0,-954.0,231.0,552.0,679.0,1713.0,0
-137.0,-791.0,194.0,2465.0,277.0,1779.0,0
-126.0,-642.0,141.0,4156.0,-83.0,1818.0,0
-107.0,-504.0,91.0,5476.0,-365.0,1880.0,0
-97.0,-385.0,40.0,6314.0,-562.0,1960.0,0
-101.0,-280.0,-17.0,6567.0,-690.0,2028.0,0
-99.0,-195.0,-57.0,6176.0,-790.0,2055.0,0
-89.0,-126.0,-92.0,5207.0,-890.0,2042.0,0
-76.0,-74.0,-109.0,3835.0,-983.0,1999.0,0
-59.0,-47.0,-119.0,2286.0,-1037.0,1950.0,0
-43.0,-30.0,-114.0,752.0,-1028.0,1922.0,0
-30.0,-37.0,-88.0,-372.0,-953.0,1917.0,0
-17.0,-68.0,-45.0,-1553.0,-825.0,1921.0,0
-16.0,-120.0,-5.0,-2408.0,-635.0,1924.0,0
-14.0,-198.0,31.0,-2939.0,-450.0,1897.0,0
-22.0,-272.0,74.0,-3227.0,-219.0,1806.0,0
-29.0,-347.0,99.0,-3297.0,-37.0,1660.0,0
-37.0,-403.0,119.0,-3171.0,91.0,1532.0,0
-36.0,-447.0,115.0,-2862.0,159.0,1383.0,0
-17.0,-469.0,97.0,-2395.0,161.0,1243.0,0
9.0,-456.0,86.0,-1789.0,104.0,1099.0,0
35.0,-417.0,62.0,-1073.0,-4.0,940.0,0
62.0,-367.0,44.0,-282.0,-168.0,773.0,0
85.0,-309.0,6.0,545.0,-386.0,594.0,0
110.0,-242.0,-21.0,1363.0,-652.0,410.0,0
114.0,-169.0,-63.0,2132.0,-968.0,237.0,0
107.0,-94.0,-101.0,2789.0,-1314.0,81.0,0
88.0,-23.0,-147.0,3241.0,-1645.0,-60.0,0
69.0,36.0,-181.0,3430.0,-1902.0,-170.0,0
64.0,78.0,-215.0,3363.0,-2022.0,-252.0,0
48.0,109.0,-241.0,3073.0,-1971.0,-311.0,0
34.0,131.0,-257.0,2569.0,-1775.0,-353.0,0
33.0,145.0,-261.0,1863.0,-1507.0,-379.0,0
41.0,151.0,-251.0,1015.0,-1217.0,-408.0,0
69.0,154.0,-226.0,106.0,-927.0,-456.0,0
82.0,141.0,-190.0,-741.0,-648.0,-545.0,0
91.0,121.0,-139.0,-1424.0,-392.0,-664.0,0
89.0,84.0,-91.0,-1896.0,-187.0,-787.0,0
76.0,54.0,-32.0,-2128.0,-50.0,-887.0,0
76.0,11.0,61.0,-2053.0,43.0,-936.0,0
76.0,-21.0,92.0,-1519.0,151.0,-930.0,0
75.0,-46.0,71.0,-686.0,192.0,-905.0,0
70.0,-51.0,26.0,190.0,153.0,-898.0,0
64.0,-52.0,-43.0,999.0,88.0,-882.0,0
39.0,-45.0,-106.0,1670.0,17.0,-839.0,0
2.0,-39.0,-142.0,2127.0,-20.0,-788.0,0
-42.0,-26.0,-190.0,2302.0,10.0,-736.0,0
-117.0,-36.0,-248.0,2204.0,50.0,-661.0,0
-226.0,-44.0,-273.0,1868.0,-4.0,-504.0,0
-301.0,-52.0,-294.0,1359.0,-166.0,-170.0,0
-283.0,-94.0,-340.0,740.0,-336.0,336.0,0
-181.0,-174.0,-404.0,-12.0,-461.0,867.0,0
-82.0,-258.0,-435.0,-935.0,-527.0,1236.0,0
-54.0,-331.0,-389.0,-2010.0,-439.0,1376.0,0
-80.0,-411.0,-254.0,-3127.0,-99.0,1427.0,0
-104.0,-561.0,-24.0,-4042.0,415.0,1637.0,0
-104.0,-796.0,111.0,-4360.0,942.0,2064.0,0
-68.0,-1003.0,2.0,-4192.0,1428.0,2482.0,0
-53.0,-1180.0,-89.0,-3916.0,1639.0,2430.0,0
-62.0,-1253.0,-50.0,-3434.0,1472.0,1904.0,0
-128.0,-1192.0,112.0,-2619.0,947.0,1128.0,0
-176.0,-1067.0,261.0,-1450.0,90.0,293.0,0
-177.0,-938.0,332.0,-189.0,-887.0,-433.0,0
-125.0,-798.0,317.0,907.0,-1719.0,-1050.0,0
-39.0,-662.0,239.0,1739.0,-2209.0,-1558.0,0
32.0,-538.0,157.0,2315.0,-2281.0,-1898.0,0
73.0,-431.0,103.0,2670.0,-1958.0,-2050.0,0
100.0,-324.0,73.0,2872.0,-1436.0,-2080.0,0
98.0,-252.0,67.0,2956.0,-936.0,-2049.0,0
99.0,-186.0,59.0,2879.0,-551.0,-1951.0,0
108.0,-145.0,41.0,2565.0,-255.0,-1788.0,0
123.0,-125.0,16.0,1954.0,-26.0,-1593.0,0
167.0,-122.0,-19.0,1055.0,140.0,-1369.0,0
202.0,-142.0,-35.0,170.0,252.0,-1111.0,0
235.0,-185.0,-44.0,-1054.0,323.0,-844.0,0
262.0,-224.0,-26.0,-2230.0,368.0,-624.0,0
275.0,-270.0,0.0,-3144.0,440.0,-479.0,0
259.0,-328.0,32.0,-3693.0,575.0,-390.0,0
242.0,-391.0,66.0,-3871.0,777.0,-341.0,0
225.0,-437.0,71.0,-3697.0,988.0,-320.0,0
203.0,-463.0,62.0,-3258.0,1146.0,-390.0,0
175.0,-468.0,41.0,-2707.0,1220.0,-555.0,0
131.0,-451.0,34.0,-2142.0,1233.0,-752.0,0
79.0,-423.0,41.0,-1552.0,1217.0,-896.0,0
31.0,-386.0,47.0,-882.0,1175.0,-935.0,0
-13.0,-336.0,50.0,-123.0,1094.0,-906.0,0
-49.0,-287.0,44.0,690.0,967.0,-853.0,0
-75.0,-233.0,22.0,1500.0,811.0,-785.0,0
-84.0,-175.0,-6.0,2244.0,644.0,-710.0,0
-89.0,-120.0,-33.0,2848.0,482.0,-620.0,0
-102.0,-74.0,-55.0,3277.0,336.0,-509.0,0
-116.0,-33.0,-65.0,3532.0,196.0,-367.0,0
-130.0,-1.0,-79.0,3638.0,70.0,-187.0,0
-127.0,13.0,-107.0,3607.0,-46.0,22.0,0
-116.0,35.0,-126.0,3439.0,-156.0,217.0,0
-111.0,50.0,-155.0,3145.0,-249.0,362.0,0
-101.0,59.0,-174.0,2726.0,-321.0,444.0,0
-90.0,76.0,-185.0,2212.0,-356.0,497.0,0
-83.0,87.0,-176.0,1666.0,-336.0,535.0,0
-79.0,96.0,-161.0,1151.0,-257.0,575.0,0
-77.0,95.0,-131.0,714.0,-135.0,620.0,0
-70.0,79.0,-100.0,366.0,-19.0,636.0,0
-73.0,55.0,-71.0,73.0,55.0,586.0,0
-79.0,36.0,-39.0,-193.0,90.0,512.0,0
-81.0,17.0,4.0,-370.0,97.0,449.0,0
-82.0,-7.0,58.0,-363.0,86.0,404.0,0
-72.0,-27.0,67.0,-125.0,52.0,376.0,0
-64.0,-38.0,58.0,259.0,-6.0,352.0,0
-57.0,-51.0,28.0,697.0,-81.0,336.0,0
-42.0,-62.0,-38.0,1118.0,-163.0,328.0,0
-21.0,-81.0,-114.0,1493.0,-233.0,319.0,0
52.0,-117.0,-195.0,1773.0,-247.0,309.0,0
195.0,-172.0,-295.0,1920.0,-126.0,250.0,0
334.0,-217.0,-361.0,1933.0,214.0,97.0,0
397.0,-266.0,-431.0,1893.0,690.0,-143.0,0
309.0,-265.0,-442.0,1862.0,1008.0,-476.0,0
130.0,-279.0,-431.0,1775.0,1051.0,-825.0,0
138.0,-345.0,-434.0,1437.0,969.0,-1100.0,0
302.0,-416.0,-401.0,632.0,822.0,-1435.0,0
456.0,-507.0,-379.0,-657.0,535.0,-1934.0,0
501.0,-588.0,-384.0,-2371.0,239.0,-2611.0,0
415.0,-698.0,-373.0,-4235.0,196.0,-3353.0,0
146.0,-836.0,-322.0,-5732.0,528.0,-3848.0,0
-93.0,-938.0,-227.0,-6494.0,1200.0,-3717.0,0
-195.0,-1040.0,-96.0,-6510.0,1866.0,-2878.0,0
-182.0,-1101.0,48.0,-6064.0,2158.0,-1695.0,0
-192.0,-1126.0,207.0,-5289.0,2051.0,-631.0,0
-232.0,-1098.0,314.0,-4106.0,1742.0,212.0,0
-258.0,-1033.0,365.0,-2538.0,1422.0,936.0,0
-263.0,-940.0,374.0,-720.0,1122.0,1521.0,0
-266.0,-834.0,340.0,1099.0,774.0,1848.0,0
-278.0,-707.0,298.0,2679.0,378.0,1939.0,0
-269.0,-569.0,246.0,3923.0,-13.0,1951.0,0
-241.0,-443.0,180.0,4658.0,-363.0,1983.0,0
-193.0,-338.0,101.0,5231.0,-654.0,2025.0,0
-139.0,-249.0,23.0,5393.0,-852.0,2075.0,0
-86.0,-190.0,-44.0,5135.0,-918.0,2131.0,0
-47.0,-143.0,-84.0,4503.0,-877.0,2180.0,0
-14.0,-126.0,-124.0,3601.0,-737.0,2208.0,0
2.0,-124.0,-128.0,2520.0,-552.0,2212.0,0
10.0,-136.0,-124.0,1370.0,-374.0,2180.0,0
15.0,-163.0,-98.0,250.0,-214.0,2116.0,0
21.0,-196.0,-49.0,-713.0,-81.0,1996.0,0
30.0,-237.0,13.0,-1408.0,18.0,1820.0,0
38.0,-259.0,78.0,-1765.0,94.0,1620.0,0
37.0,-299.0,116.0,-1771.0,150.0,1437.0,0
36.0,-328.0,126.0,-1537.0,184.0,1252.0,0
35.0,-345.0,132.0,-1165.0,180.0,1065.0,0
34.0,-340.0,106.0,-747.0,128.0,877.0,0
35.0,-309.0,88.0,-372.0,37.0,685.0,0
36.0,-253.0,77.0,-39.0,-81.0,530.0,0
48.0,-198.0,62.0,284.0,-203.0,434.0,0
67.0,-149.0,46.0,564.0,-302.0,384.0,0
94.0,-104.0,29.0,783.0,-363.0,350.0,0
112.0,-64.0,8.0,945.0,-364.0,317.0,0
136.0,-21.0,-4.0,1077.0,-316.0,271.0,0
162.0,12.0,-19.0,1196.0,-256.0,212.0,0
189.0,38.0,-41.0,1312.0,-213.0,136.0,0
195.0,60.0,-64.0,1410.0,-202.0,18.0,0
188.0,67.0,-93.0,1447.0,-228.0,-135.0,0
175.0,86.0,-118.0,1365.0,-285.0,-306.0,0
144.0,95.0,-141.0,1148.0,-372.0,-475.0,0
109.0,112.0,-167.0,781.0,-466.0,-626.0,0
90.0,115.0,-173.0,293.0,-570.0,-748.0,0
74.0,124.0,-165.0,-218.0,-674.0,-858.0,0
61.0,119.0,-159.0,-712.0,-761.0,-982.0,0
38.0,104.0,-151.0,-1144.0,-808.0,-1155.0,0
3.0,91.0,-143.0,-1500.0,-806.0,-1342.0,0
-53.0,71.0,-122.0,-1739.0,-734.0,-1446.0,0
-91.0,63.0,-101.0,-1826.0,-672.0,-1370.0,0
-127.0,63.0,-56.0,-1726.0,-664.0,-1159.0,0
-128.0,51.0,-47.0,-1359.0,-717.0,-862.0,0
-89.0,24.0,-61.0,-802.0,-813.0,-549.0,0
-54.0,-3.0,-81.0,-196.0,-889.0,-340.0,0
-37.0,-32.0,-104.0,334.0,-859.0,-287.0,0
-32.0,-52.0,-101.0,703.0,-693.0,-347.0,0
-19.0,-63.0,-78.0,915.0,-421.0,-448.0,0
-4.0,-80.0,-54.0,1018.0,-108.0,-546.0,0
9.0,-95.0,-32.0,1039.0,188.0,-625.0,0
25.0,-113.0,-14.0,1032.0,446.0,-687.0,0
22.0,-132.0,-15.0,1068.0,674.0,-721.0,0
15.0,-166.0,-24.0,1215.0,863.0,-707.0,0
-13.0,-197.0,-7.0,1494.0,1021.0,-635.0,0
-48.0,-224.0,4.0,1835.0,1214.0,-518.0,0
-129.0,-246.0,-10.0,2063.0,1459.0,-367.0,0
-246.0,-258.0,-67.0,1924.0,1594.0,-160.0,0
-326.0,-277.0,-179.0,1227.0,1370.0,212.0,0
-327.0,-323.0,-287.0,190.0,685.0,851.0,0
-237.0,-428.0,-369.0,-831.0,-194.0,1723.0,0
-89.0,-553.0,-416.0,-1751.0,-780.0,2598.0,0
-11.0,-687.0,-448.0,-2767.0,-719.0,3168.0,0
0.0,-854.0,-456.0,-3976.0,-158.0,3519.0,0
35.0,-1150.0,-421.0,-5094.0,383.0,3868.0,0
85.0,-1350.0,-346.0,-5461.0,276.0,4096.0,0
56.0,-1340.0,-195.0,-4576.0,-433.0,3630.0,0
64.0,-1171.0,13.0,-2400.0,-903.0,2533.0,0
122.0,-973.0,184.0,331.0,-814.0,1448.0,0
153.0,-777.0,287.0,2266.0,-595.0,611.0,0
123.0,-592.0,307.0,4013.0,-519.0,-72.0,0
78.0,-423.0,273.0,4963.0,-528.0,-674.0,0
40.0,-275.0,207.0,5209.0,-529.0,-1174.0,0
15.0,-172.0,132.0,4926.0,-484.0,-1504.0,0
11.0,-98.0,68.0,4278.0,-432.0,-1662.0,0
6.0,-54.0,15.0,3374.0,-381.0,-1830.0,0
-12.0,-11.0,0.0,2247.0,-311.0,-1966.0,0
-24.0,12.0,2.0,959.0,-207.0,-1996.0,0
-33.0,7.0,19.0,-350.0,-78.0,-1905.0,0
-31.0,-27.0,23.0,-1545.0,61.0,-1718.0,0
-26.0,-92.0,32.0,-2602.0,197.0,-1483.0,0
-17.0,-163.0,51.0,-3529.0,309.0,-1241.0,0
0.0,-271.0,70.0,-4266.0,346.0,-1001.0,0
17.0,-379.0,69.0,-4777.0,275.0,-785.0,0
21.0,-472.0,67.0,-5094.0,131.0,-621.0,0
40.0,-559.0,80.0,-5211.0,0.0,-496.0,0
65.0,-625.0,106.0,-5056.0,-38.0,-397.0,0
96.0,-677.0,126.0,-4580.0,36.0,-342.0,0
120.0,-712.0,133.0,-3855.0,194.0,-337.0,0
133.0,-724.0,133.0,-2973.0,370.0,-362.0,0
129.0,-707.0,113.0,-1989.0,486.0,-399.0,0
127.0,-664.0,96.0,-998.0,509.0,-455.0,0
120.0,-599.0,79.0,-104.0,440.0,-539.0,0
115.0,-526.0,56.0,677.0,317.0,-692.0,0
100.0,-445.0,19.0,1320.0,179.0,-927.0,0
91.0,-375.0,-15.0,1764.0,53.0,-1209.0,0
70.0,-298.0,-44.0,1958.0,-49.0,-1462.0,0
52.0,-222.0,-62.0,1916.0,-111.0,-1629.0,0
35.0,-153.0,-56.0,1716.0,-130.0,-1713.0,0
11.0,-90.0,-42.0,1452.0,-123.0,-1711.0,0
-5.0,-34.0,-21.0,1224.0,-113.0,-1638.0,0
-25.0,11.0,-6.0,1098.0,-113.0,-1509.0,0
-30.0,53.0,12.0,1069.0,-122.0,-1313.0,0
-41.0,79.0,28.0,1143.0,-116.0,-1103.0,0
-56.0,103.0,26.0,1305.0,-86.0,-881.0,0
-74.0,118.0,17.0,1519.0,-44.0,-640.0,0
-83.0,128.0,1.0,1706.0,-20.0,-360.0,0
-85.0,122.0,-27.0,1812.0,-39.0,-60.0,0
-76.0,115.0,-65.0,1788.0,-108.0,217.0,0
-60.0,110.0,-109.0,1613.0,-211.0,453.0,0
-33.0,101.0,-151.0,1313.0,-323.0,644.0,0
-6.0,92.0,-192.0,911.0,-391.0,772.0,0
1.0,88.0,-214.0,462.0,-382.0,850.0,0
6.0,82.0,-221.0,28.0,-277.0,907.0,0
3.0,80.0,-199.0,-334.0,-103.0,936.0,0
9.0,73.0,-170.0,-585.0,92.0,925.0,0
18.0,61.0,-135.0,-738.0,256.0,864.0,0
20.0,37.0,-108.0,-823.0,358.0,750.0,0
27.0,2.0,-70.0,-870.0,404.0,608.0,0
24.0,-34.0,9.0,-838.0,418.0,469.0,0
30.0,-66.0,30.0,-561.0,426.0,341.0,0
31.0,-88.0,40.0,-127.0,418.0,220.0,0
37.0,-98.0,27.0,348.0,402.0,98.0,0
51.0,-100.0,6.0,797.0,381.0,-30.0,0
59.0,-100.0,-20.0,1175.0,367.0,-162.0,0
61.0,-104.0,-66.0,1455.0,366.0,-289.0,0
74.0,-112.0,-121.0,1640.0,382.0,-400.0,0
142.0,-132.0,-166.0,1705.0,429.0,-512.0,0
278.0,-162.0,-210.0,1623.0,571.0,-667.0,0
339.0,-148.0,-223.0,1308.0,814.0,-871.0,0
259.0,-105.0,-258.0,760.0,1004.0,-1099.0,0
113.0,-68.0,-344.0,56.0,1083.0,-1334.0,0
46.0,-105.0,-444.0,-698.0,1150.0,-1583.0,0
71.0,-177.0,-486.0,-1546.0,1155.0,-1898.0,0
115.0,-260.0,-460.0,-2612.0,1078.0,-2188.0,0
150.0,-367.0,-422.0,-3808.0,1053.0,-2563.0,0
154.0,-475.0,-402.0,-4956.0,1201.0,-2926.0,0
122.0,-596.0,-370.0,-5955.0,1545.0,-3238.0,0
7.0,-742.0,-283.0,-6714.0,2015.0,-3453.0,0
-156.0,-918.0,-102.0,-7103.0,2403.0,-3507.0,0
-282.0,-1051.0,3.0,-6921.0,2423.0,-3346.0,0
-351.0,-1139.0,2.0,-6236.0,2096.0,-2730.0,0
-336.0,-1175.0,79.0,-5372.0,1632.0,-1512.0,0
-256.0,-1149.0,162.0,-4220.0,1042.0,-125.0,0
-237.0,-1102.0,254.0,-2556.0,366.0,789.0,0
-207.0,-974.0,266.0,-617.0,-239.0,1249.0,0
-205.0,-843.0,212.0,1231.0,-689.0,1531.0,0
-174.0,-689.0,173.0,2745.0,-1013.0,1708.0,0
-139.0,-535.0,126.0,3830.0,-1296.0,1831.0,0
-109.0,-397.0,62.0,4484.0,-1576.0,1960.0,0
-74.0,-303.0,22.0,4680.0,-1784.0,2087.0,0
-38.0,-252.0,-27.0,4383.0,-1832.0,2140.0,0
8.0,-214.0,-50.0,3627.0,-1706.0,2081.0,0
48.0,-190.0,-27.0,2568.0,-1478.0,1950.0,0
77.0,-214.0,-36.0,1415.0,-1243.0,1822.0,0
101.0,-255.0,-9.0,305.0,-1032.0,1722.0,0
114.0,-296.0,20.0,-661.0,-843.0,1628.0,0
123.0,-347.0,50.0,-1420.0,-676.0,1531.0,0
134.0,-398.0,80.0,-1959.0,-538.0,1460.0,0
139.0,-451.0,102.0,-2269.0,-429.0,1432.0,0
144.0,-502.0,111.0,-2338.0,-349.0,1443.0,0
153.0,-529.0,122.0,-2160.0,-293.0,1493.0,0
157.0,-533.0,120.0,-1731.0,-274.0,1542.0,0
152.0,-518.0,103.0,-1159.0,-271.0,1562.0,0
133.0,-487.0,92.0,-549.0,-243.0,1536.0,0
109.0,-438.0,94.0,43.0,-186.0,1461.0,0
71.0,-376.0,96.0,613.0,-119.0,1370.0,0
41.0,-300.0,93.0,1104.0,-61.0,1291.0,0
19.0,-247.0,92.0,1475.0,-51.0,1214.0,0
9.0,-184.0,76.0,1722.0,-101.0,1150.0,0
12.0,-128.0,62.0,1867.0,-195.0,1104.0,0
28.0,-80.0,31.0,1954.0,-313.0,1083.0,0
39.0,-36.0,0.0,1995.0,-433.0,1060.0,0
57.0,0.0,-43.0,1988.0,-537.0,992.0,0
74.0,30.0,-84.0,1928.0,-617.0,842.0,0
74.0,61.0,-121.0,1810.0,-699.0,583.0,0
64.0,86.0,-149.0,1624.0,-795.0,272.0,0
32.0,109.0,-193.0,1362.0,-884.0,-48.0,0
-3.0,119.0,-225.0,985.0,-955.0,-336.0,0
-27.0,123.0,-248.0,476.0,-1003.0,-571.0,0
-39.0,122.0,-254.0,-104.0,-1028.0,-754.0,0
-46.0,116.0,-245.0,-676.0,-1030.0,-910.0,0
-51.0,105.0,-224.0,-1184.0,-998.0,-1058.0,0
-62.0,95.0,-194.0,-1574.0,-932.0,-1173.0,0
-64.0,73.0,-154.0,-1823.0,-847.0,-1238.0,0
-68.0,47.0,-106.0,-1916.0,-756.0,-1274.0,0
-64.0,6.0,-9.0,-1803.0,-660.0,-1276.0,0
-57.0,-29.0,14.0,-1464.0,-545.0,-1235.0,0
-56.0,-56.0,30.0,-854.0,-467.0,-1197.0,0
-51.0,-61.0,20.0,-174.0,-407.0,-1181.0,0
-53.0,-60.0,15.0,504.0,-337.0,-1163.0,0
-52.0,-50.0,8.0,1121.0,-207.0,-1123.0,0
-47.0,-39.0,9.0,1637.0,-35.0,-1072.0,0
-36.0,-21.0,-2.0,2027.0,160.0,-990.0,0
-19.0,-20.0,-10.0,2286.0,340.0,-892.0,0
-3.0,-21.0,-40.0,2417.0,461.0,-777.0,0
2.0,-31.0,-76.0,2443.0,486.0,-648.0,0
-13.0,-38.0,-81.0,2382.0,410.0,-517.0,0
-43.0,-38.0,-73.0,2210.0,324.0,-386.0,0
-64.0,-52.0,-101.0,1875.0,328.0,-239.0,0
-119.0,-78.0,-159.0,1316.0,366.0,-61.0,0
-194.0,-91.0,-217.0,433.0,242.0,187.0,0
-237.0,-94.0,-267.0,-717.0,-154.0,613.0,0
-171.0,-144.0,-348.0,-1864.0,-673.0,1283.0,0
-52.0,-253.0,-410.0,-2780.0,-1008.0,2001.0,0
19.0,-379.0,-419.0,-3465.0,-917.0,2484.0,0
7.0,-551.0,-335.0,-4122.0,-392.0,2721.0,0
-97.0,-786.0,-184.0,-4847.0,239.0,2910.0,0
-131.0,-1121.0,-125.0,-5438.0,628.0,3257.0,0
-46.0,-1414.0,-295.0,-5789.0,606.0,3542.0,0
20.0,-1519.0,-364.0,-5738.0,148.0,3175.0,0
55.0,-1456.0,-183.0,-4860.0,-317.0,2138.0,0
66.0,-1256.0,65.0,-2925.0,-450.0,886.0,0
78.0,-1074.0,245.0,-344.0,-352.0,-92.0,0
66.0,-903.0,314.0,2013.0,-325.0,-786.0,0
49.0,-745.0,290.0,3598.0,-434.0,-1297.0,0
29.0,-586.0,238.0,4399.0,-561.0,-1682.0,0
39.0,-449.0,185.0,4646.0,-568.0,-1935.0,0
68.0,-331.0,135.0,4542.0,-407.0,-2078.0,0
81.0,-228.0,103.0,4183.0,-121.0,-2163.0,0
65.0,-152.0,97.0,3586.0,154.0,-2162.0,0
30.0,-102.0,86.0,2817.0,289.0,-2042.0,0
3.0,-73.0,77.0,1980.0,286.0,-1805.0,0
10.0,-73.0,57.0,1165.0,227.0,-1484.0,0
38.0,-92.0,26.0,380.0,192.0,-1141.0,0
75.0,-122.0,12.0,-395.0,210.0,-846.0,0
92.0,-148.0,10.0,-1132.0,269.0,-665.0,0
103.0,-169.0,18.0,-1798.0,332.0,-600.0,0
94.0,-193.0,21.0,-2348.0,363.0,-630.0,0
90.0,-220.0,12.0,-2799.0,357.0,-711.0,0
92.0,-270.0,10.0,-3171.0,322.0,-820.0,0
98.0,-315.0,14.0,-3409.0,271.0,-906.0,0
112.0,-355.0,16.0,-3412.0,248.0,-958.0,0
109.0,-398.0,-2.0,-3150.0,275.0,-990.0,0
89.0,-422.0,-5.0,-2722.0,364.0,-1020.0,0
64.0,-425.0,-4.0,-2208.0,482.0,-1037.0,0
32.0,-401.0,0.0,-1632.0,579.0,-1030.0,0
1.0,-359.0,4.0,-981.0,598.0,-1009.0,0
-30.0,-312.0,7.0,-266.0,508.0,-961.0,0
-64.0,-258.0,-1.0,459.0,331.0,-868.0,0
-89.0,-207.0,-4.0,1135.0,116.0,-705.0,0
-98.0,-166.0,-19.0,1726.0,-97.0,-482.0,0
-114.0,-124.0,-28.0,2202.0,-278.0,-231.0,0
-113.0,-97.0,-43.0,2541.0,-411.0,16.0,0
-105.0,-65.0,-50.0,2715.0,-507.0,244.0,0
-88.0,-33.0,-52.0,2732.0,-578.0,439.0,0
-68.0,-9.0,-65.0,2622.0,-625.0,594.0,0
-48.0,9.0,-74.0,2424.0,-627.0,694.0,0
-16.0,19.0,-95.0,2173.0,-571.0,746.0,0
8.0,28.0,-110.0,1912.0,-456.0,756.0,0
12.0,39.0,-120.0,1719.0,-274.0,750.0,0
13.0,41.0,-117.0,1507.0,-53.0,744.0,0
19.0,46.0,-106.0,1327.0,155.0,717.0,0
26.0,46.0,-94.0,1169.0,277.0,645.0,0
27.0,42.0,-70.0,1014.0,364.0,535.0,0
27.0,41.0,-48.0,876.0,392.0,410.0,0
22.0,33.0,-33.0,795.0,377.0,309.0,0
18.0,32.0,-27.0,793.0,329.0,196.0,0
20.0,24.0,-43.0,863.0,253.0,103.0,0
13.0,15.0,-69.0,987.0,155.0,26.0,0
8.0,-2.0,-115.0,1142.0,44.0,-32.0,0
44.0,-24.0,-147.0,1295.0,-57.0,-64.0,0
114.0,-61.0,-174.0,1385.0,-104.0,-96.0,0
196.0,-97.0,-193.0,1363.0,-65.0,-166.0,0
240.0,-131.0,-209.0,1234.0,34.0,-287.0,0
201.0,-155.0,-249.0,1020.0,98.0,-451.0,0
91.0,-164.0,-299.0,695.0,87.0,-642.0,0
-10.0,-178.0,-342.0,206.0,131.0,-834.0,0
-40.0,-204.0,-344.0,-486.0,339.0,-1013.0,0
-4.0,-249.0,-310.0,-1345.0,692.0,-1211.0,0
51.0,-297.0,-236.0,-2304.0,1124.0,-1469.0,0
72.0,-373.0,-146.0,-3243.0,1480.0,-1826.0,0
49.0,-538.0,-66.0,-4149.0,1585.0,-2285.0,0
-7.0,-670.0,-70.0,-5101.0,1368.0,-2718.0,0
-40.0,-819.0,-53.0,-6009.0,1056.0,-2853.0,0
-58.0,-963.0,-25.0,-6590.0,819.0,-2572.0,0
-68.0,-1088.0,9.0,-6589.0,643.0,-1876.0,0
-63.0,-1195.0,82.0,-5891.0,512.0,-821.0,0
-48.0,-1257.0,165.0,-4521.0,429.0,231.0,0
-40.0,-1213.0,201.0,-2594.0,334.0,905.0,0
-55.0,-1079.0,193.0,-420.0,188.0,1208.0,0
-57.0,-913.0,177.0,1600.0,-1.0,1383.0,0
-46.0,-731.0,155.0,3212.0,-231.0,1508.0,0
-28.0,-568.0,134.0,4358.0,-490.0,1605.0,0
-11.0,-430.0,116.0,5066.0,-712.0,1700.0,0
-7.0,-314.0,90.0,5347.0,-839.0,1807.0,0
-7.0,-227.0,54.0,5205.0,-862.0,1900.0,0
-7.0,-159.0,15.0,4639.0,-803.0,1953.0,0
-9.0,-119.0,-12.0,3707.0,-694.0,1957.0,0
-16.0,-99.0,-18.0,2528.0,-572.0,1912.0,0
-22.0,-79.0,-2.0,1263.0,-468.0,1841.0,0
-31.0,-72.0,20.0,94.0,-406.0,1805.0,0
-35.0,-83.0,39.0,-885.0,-413.0,1842.0,0
-26.0,-108.0,44.0,-1645.0,-477.0,1917.0,0
-17.0,-149.0,41.0,-2230.0,-574.0,1960.0,0
-11.0,-177.0,32.0,-2683.0,-663.0,1920.0,0
-13.0,-194.0,29.0,-2989.0,-696.0,1806.0,0
-11.0,-206.0,30.0,-3109.0,-684.0,1681.0,0
-11.0,-219.0,38.0,-3017.0,-669.0,1555.0,0
-2.0,-224.0,46.0,-2717.0,-683.0,1416.0,0
5.0,-220.0,51.0,-2244.0,-726.0,1274.0,0
15.0,-215.0,47.0,-1653.0,-797.0,1132.0,0
25.0,-194.0,43.0,-1017.0,-882.0,992.0,0
46.0,-176.0,33.0,-373.0,-952.0,851.0,0
67.0,-152.0,6.0,246.0,-973.0,696.0,0
96.0,-125.0,-16.0,809.0,-936.0,528.0,0
125.0,-101.0,-61.0,1285.0,-838.0,334.0,0
137.0,-75.0,-99.0,1612.0,-693.0,111.0,0
137.0,-54.0,-140.0,1757.0,-530.0,-103.0,0
129.0,-32.0,-178.0,1701.0,-391.0,-280.0,0
109.0,-15.0,-196.0,1551.0,-285.0,-471.0,0
91.0,3.0,-201.0,1310.0,-241.0,-669.0,0
63.0,30.0,-202.0,1064.0,-264.0,-881.0,0
38.0,54.0,-197.0,850.0,-335.0,-1057.0,0
23.0,71.0,-185.0,659.0,-392.0,-1175.0,0
22.0,73.0,-154.0,499.0,-403.0,-1221.0,0
22.0,51.0,-126.0,368.0,-368.0,-1235.0,0
24.0,23.0,-68.0,270.0,-312.0,-1238.0,0
13.0,5.0,-35.0,249.0,-257.0,-1249.0,0
0.0,-16.0,-2.0,336.0,-232.0,-1248.0,0
-15.0,-31.0,0.0,504.0,-233.0,-1223.0,0
-28.0,-39.0,-9.0,712.0,-244.0,-1184.0,0
-41.0,-53.0,-52.0,951.0,-268.0,-1131.0,0
-53.0,-67.0,-91.0,1205.0,-317.0,-1069.0,0
-80.0,-74.0,-106.0,1453.0,-367.0,-997.0,0
-121.0,-82.0,-96.0,1643.0,-342.0,-912.0,0
-183.0,-96.0,-103.0,1689.0,-176.0,-800.0,0
-250.0,-125.0,-139.0,1481.0,100.0,-616.0,0
-273.0,-154.0,-161.0,893.0,350.0,-281.0,0
-205.0,-183.0,-167.0,19.0,451.0,242.0,0
-67.0,-246.0,-195.0,-874.0,409.0,827.0,0
32.0,-345.0,-239.0,-1698.0,382.0,1331.0,0
63.0,-478.0,-275.0,-2515.0,584.0,1735.0,0
44.0,-608.0,-287.0,-3381.0,1027.0,2094.0,0
56.0,-709.0,-272.0,-4153.0,1530.0,2498.0,0
100.0,-869.0,-269.0,-4545.0,1737.0,2934.0,0
90.0,-1072.0,-311.0,-4345.0,1211.0,3170.0,0
10.0,-1164.0,-300.0,-3584.0,103.0,2935.0,0
-35.0,-1061.0,-152.0,-2360.0,-826.0,2189.0,0
-4.0,-887.0,14.0,-693.0,-1114.0,1397.0,0
22.0,-752.0,135.0,1087.0,-984.0,880.0,0
8.0,-638.0,209.0,2514.0,-784.0,470.0,0
-17.0,-532.0,221.0,3397.0,-704.0,7.0,0
-36.0,-432.0,191.0,3735.0,-738.0,-513.0,0
-45.0,-330.0,142.0,3651.0,-737.0,-999.0,0
-38.0,-259.0,93.0,3290.0,-588.0,-1359.0,0
-28.0,-204.0,66.0,2755.0,-341.0,-1591.0,0
-36.0,-156.0,43.0,2126.0,-103.0,-1703.0,0
-51.0,-128.0,31.0,1448.0,81.0,-1707.0,0
-62.0,-120.0,17.0,737.0,223.0,-1656.0,0
-68.0,-133.0,6.0,-5.0,345.0,-1572.0,0
-56.0,-158.0,7.0,-789.0,450.0,-1453.0,0
-29.0,-187.0,24.0,-1604.0,533.0,-1287.0,0
21.0,-243.0,42.0,-2422.0,569.0,-1095.0,0
65.0,-319.0,61.0,-3240.0,532.0,-937.0,0
99.0,-389.0,83.0,-4043.0,429.0,-805.0,0
127.0,-460.0,116.0,-4681.0,286.0,-631.0,0
153.0,-525.0,128.0,-4952.0,133.0,-427.0,0
162.0,-578.0,125.0,-4766.0,14.0,-227.0,0
187.0,-610.0,104.0,-4164.0,-44.0,-91.0,0
181.0,-620.0,81.0,-3236.0,-25.0,-91.0,0
161.0,-600.0,63.0,-2102.0,53.0,-212.0,0
132.0,-554.0,51.0,-876.0,139.0,-409.0,0
112.0,-485.0,40.0,314.0,180.0,-673.0,0
97.0,-396.0,23.0,1365.0,145.0,-964.0,0
79.0,-305.0,9.0,2185.0,60.0,-1240.0,0
66.0,-219.0,-10.0,2761.0,-12.0,-1467.0,0
37.0,-117.0,-31.0,3099.0,-32.0,-1627.0,0
20.0,-60.0,-35.0,3215.0,1.0,-1717.0,0
-17.0,-2.0,-51.0,3158.0,48.0,-1738.0,0
-62.0,40.0,-64.0,3012.0,70.0,-1680.0,0
-105.0,75.0,-77.0,2731.0,48.0,-1520.0,0
-129.0,105.0,-90.0,2367.0,-14.0,-1253.0,0
-142.0,123.0,-109.0,1966.0,-95.0,-917.0,0
-133.0,137.0,-128.0,1543.0,-217.0,-555.0,0
-115.0,131.0,-150.0,1120.0,-347.0,-208.0,0
-92.0,117.0,-172.0,666.0,-466.0,52.0,0
-64.0,91.0,-183.0,207.0,-561.0,340.0,0
-43.0,68.0,-183.0,-213.0,-614.0,566.0,0
-16.0,46.0,-180.0,-567.0,-621.0,721.0,0
2.0,27.0,-174.0,-854.0,-559.0,799.0,0
17.0,1.0,-142.0,-1035.0,-422.0,802.0,0
26.0,-30.0,-98.0,-1102.0,-235.0,764.0,0
29.0,-65.0,-28.0,-1023.0,-49.0,712.0,0
34.0,-94.0,23.0,-730.0,91.0,648.0,0
37.0,-119.0,58.0,-242.0,153.0,579.0,0
44.0,-126.0,71.0,364.0,142.0,514.0,0
51.0,-124.0,74.0,1019.0,90.0,451.0,0
55.0,-118.0,58.0,1659.0,33.0,373.0,0
52.0,-103.0,32.0,2231.0,-5.0,282.0,0
61.0,-92.0,-9.0,2694.0,-11.0,186.0,0
56.0,-87.0,-66.0,3013.0,28.0,82.0,0
70.0,-98.0,-124.0,3187.0,115.0,-25.0,0
139.0,-115.0,-181.0,3195.0,254.0,-138.0,0
276.0,-141.0,-244.0,2976.0,465.0,-278.0,0
379.0,-145.0,-286.0,2509.0,758.0,-463.0,0
342.0,-136.0,-321.0,1866.0,1026.0,-694.0,0
193.0,-120.0,-378.0,1146.0,1127.0,-995.0,0
65.0,-153.0,-423.0,352.0,1086.0,-1354.0,0
30.0,-207.0,-409.0,-638.0,1027.0,-1706.0,0
54.0,-273.0,-341.0,-1834.0,1043.0,-1981.0,0
74.0,-346.0,-278.0,-3114.0,1170.0,-2219.0,0
63.0,-456.0,-241.0,-4366.0,1401.0,-2477.0,0
33.0,-605.0,-223.0,-5453.0,1720.0,-2761.0,0
-42.0,-831.0,-203.0,-6296.0,2011.0,-2950.0,0
-152.0,-1054.0,-126.0,-6852.0,2141.0,-2947.0,0
-256.0,-1198.0,-62.0,-7015.0,1972.0,-2599.0,0
-320.0,-1267.0,5.0,-6690.0,1492.0,-1717.0,0
-270.0,-1281.0,154.0,-5613.0,910.0,-465.0,0
-248.0,-1236.0,203.0,-3554.0,423.0,542.0,0
-257.0,-1126.0,222.0,-925.0,131.0,1073.0,0
-228.0,-963.0,221.0,1625.0,-46.0,1339.0,0
-200.0,-766.0,197.0,3699.0,-215.0,1467.0,0
-136.0,-565.0,147.0,5135.0,-446.0,1511.0,0
-118.0,-373.0,100.0,5948.0,-783.0,1590.0,0
-95.0,-268.0,36.0,6152.0,-1165.0,1755.0,0
-52.0,-181.0,-48.0,5750.0,-1479.0,1930.0,0
2.0,-107.0,-84.0,4786.0,-1661.0,2016.0,0
60.0,-51.0,-110.0,3412.0,-1722.0,2003.0,0
88.0,-21.0,-115.0,1874.0,-1697.0,1955.0,0
92.0,-12.0,-93.0,363.0,-1595.0,1926.0,0
102.0,-59.0,-65.0,-998.0,-1429.0,1926.0,0
85.0,-92.0,-43.0,-2118.0,-1202.0,1928.0,0
64.0,-188.0,-7.0,-2934.0,-948.0,1923.0,0
69.0,-236.0,8.0,-3425.0,-701.0,1903.0,0
53.0,-285.0,31.0,-3645.0,-472.0,1869.0,0
62.0,-323.0,29.0,-3661.0,-279.0,1802.0,0
52.0,-351.0,37.0,-3532.0,-131.0,1686.0,0
65.0,-357.0,57.0,-3247.0,-36.0,1539.0,0
67.0,-326.0,77.0,-2766.0,14.0,1409.0,0
61.0,-330.0,108.0,-2083.0,22.0,1310.0,0
36.0,-300.0,123.0,-1437.0,-10.0,1237.0,0
62.0,-292.0,90.0,-594.0,-76.0,1181.0,0
59.0,-241.0,84.0,211.0,-157.0,1134.0,0
86.0,-198.0,68.0,947.0,-229.0,1111.0,0
122.0,-150.0,55.0,1604.0,-301.0,1096.0,0
151.0,-97.0,13.0,2167.0,-345.0,1044.0,0
171.0,-59.0,-31.0,2609.0,-358.0,940.0,0
188.0,-16.0,-73.0,2896.0,-352.0,742.0,0
184.0,14.0,-114.0,2986.0,-340.0,495.0,0
172.0,45.0,-148.0,2867.0,-324.0,232.0,0
163.0,59.0,-170.0,2534.0,-317.0,-50.0,0
145.0,78.0,-187.0,2015.0,-341.0,-347.0,0
122.0,93.0,-205.0,1384.0,-407.0,-640.0,0
102.0,110.0,-217.0,706.0,-495.0,-894.0,0
74.0,117.0,-215.0,37.0,-565.0,-1083.0,0
44.0,114.0,-204.0,-562.0,-596.0,-1208.0,0
7.0,89.0,-186.0,-1061.0,-580.0,-1264.0,0
-29.0,57.0,-147.0,-1447.0,-544.0,-1267.0,0
-60.0,7.0,-61.0,-1675.0,-527.0,-1232.0,0
-78.0,-34.0,-28.0,-1613.0,-538.0,-1191.0,0
-108.0,-64.0,1.0,-1303.0,-595.0,-1160.0,0
-128.0,-75.0,16.0,-830.0,-672.0,-1136.0,0
-135.0,-81.0,22.0,-266.0,-714.0,-1112.0,0
-128.0,-81.0,19.0,316.0,-679.0,-1079.0,0
-135.0,-79.0,11.0,847.0,-554.0,-1043.0,0
-134.0,-72.0,-1.0,1298.0,-357.0,-1007.0,0
-129.0,-73.0,-21.0,1663.0,-136.0,-955.0,0
-132.0,-83.0,-48.0,1945.0,54.0,-882.0,0
-146.0,-98.0,-46.0,2138.0,205.0,-780.0,0
-172.0,-111.0,-50.0,2192.0,388.0,-646.0,0
-213.0,-131.0,-71.0,2011.0,654.0,-484.0,0
-286.0,-160.0,-145.0,1465.0,927.0,-262.0,0
-286.0,-182.0,-214.0,510.0,1044.0,84.0,0
-185.0,-238.0,-270.0,-678.0,875.0,628.0,0
-30.0,-296.0,-324.0,-1836.0,460.0,1334.0,0
88.0,-368.0,-347.0,-2804.0,176.0,1925.0,0
132.0,-460.0,-384.0,-3657.0,295.0,2246.0,0
116.0,-594.0,-405.0,-4547.0,665.0,2470.0,0
115.0,-884.0,-319.0,-5384.0,874.0,2836.0,0
138.0,-1236.0,-314.0,-5660.0,490.0,3296.0,0
140.0,-1426.0,-331.0,-5276.0,-461.0,3393.0,0
80.0,-1329.0,-124.0,-4388.0,-1248.0,2655.0,0
58.0,-1070.0,151.0,-2522.0,-1299.0,1404.0,0
59.0,-890.0,299.0,130.0,-988.0,467.0,0
50.0,-758.0,311.0,2532.0,-859.0,-47.0,0
23.0,-637.0,244.0,4134.0,-959.0,-425.0,0
0.0,-503.0,149.0,4884.0,-1087.0,-805.0,0
-4.0,-371.0,64.0,4911.0,-1088.0,-1154.0,0
8.0,-265.0,24.0,4437.0,-889.0,-1436.0,0
16.0,-184.0,15.0,3683.0,-566.0,-1646.0,0
1.0,-123.0,29.0,2807.0,-245.0,-1765.0,0
-18.0,-88.0,48.0,1908.0,21.0,-1776.0,0
-38.0,-81.0,49.0,1031.0,233.0,-1693.0,0
-35.0,-95.0,53.0,188.0,411.0,-1523.0,0
-16.0,-132.0,44.0,-620.0,559.0,-1278.0,0
26.0,-181.0,45.0,-1420.0,661.0,-991.0,0
71.0,-229.0,58.0,-2213.0,692.0,-742.0,0
95.0,-278.0,60.0,-2821.0,672.0,-583.0,0
102.0,-336.0,49.0,-3523.0,642.0,-491.0,0
105.0,-389.0,41.0,-4145.0,612.0,-423.0,0
117.0,-452.0,38.0,-4584.0,528.0,-344.0,0
133.0,-498.0,44.0,-4739.0,381.0,-264.0,0
134.0,-525.0,41.0,-4498.0,225.0,-236.0,0
137.0,-547.0,39.0,-3847.0,131.0,-257.0,0
130.0,-541.0,37.0,-2885.0,95.0,-350.0,0
116.0,-519.0,32.0,-1736.0,84.0,-494.0,0
105.0,-471.0,25.0,-536.0,69.0,-668.0,0
93.0,-404.0,22.0,588.0,30.0,-823.0,0
79.0,-324.0,16.0,1556.0,-39.0,-951.0,0
63.0,-244.0,2.0,2326.0,-122.0,-1048.0,0
39.0,-166.0,-6.0,2887.0,-199.0,-1121.0,0
9.0,-93.0,-16.0,3259.0,-247.0,-1169.0,0
-27.0,-37.0,-33.0,3465.0,-274.0,-1183.0,0
-66.0,20.0,-43.0,3523.0,-287.0,-1134.0,0
-92.0,58.0,-58.0,3461.0,-302.0,-1003.0,0
-93.0,76.0,-91.0,3277.0,-342.0,-792.0,0
-79.0,80.0,-129.0,2918.0,-376.0,-522.0,0
-56.0,85.0,-143.0,2367.0,-370.0,-240.0,0
-34.0,90.0,-157.0,1753.0,-319.0,-24.0,0
-22.0,97.0,-155.0,1155.0,-237.0,110.0,0
-30.0,98.0,-152.0,657.0,-131.0,181.0,0
-35.0,94.0,-147.0,247.0,-22.0,246.0,0
-28.0,82.0,-133.0,-86.0,98.0,333.0,0
-7.0,56.0,-109.0,-360.0,231.0,432.0,0
1.0,30.0,-74.0,-546.0,359.0,478.0,0
-2.0,2.0,-22.0,-595.0,455.0,458.0,0
-5.0,-30.0,21.0,-468.0,506.0,421.0,0
-5.0,-53.0,49.0,-167.0,488.0,395.0,0
2.0,-65.0,56.0,260.0,395.0,374.0,0
7.0,-74.0,46.0,744.0,262.0,350.0,0
13.0,-66.0,27.0,1223.0,126.0,320.0,0
23.0,-58.0,0.0,1635.0,12.0,276.0,0
28.0,-42.0,-28.0,1957.0,-57.0,218.0,0
23.0,-39.0,-63.0,2177.0,-77.0,157.0,0
13.0,-53.0,-110.0,2301.0,-57.0,108.0,0
6.0,-72.0,-157.0,2349.0,-3.0,70.0,0
71.0,-104.0,-194.0,2292.0,103.0,34.0,0
238.0,-146.0,-243.0,2061.0,329.0,-36.0,0
353.0,-183.0,-260.0,1663.0,725.0,-197.0,0
360.0,-186.0,-277.0,1161.0,1182.0,-444.0,0
221.0,-163.0,-281.0,530.0,1409.0,-780.0,0
12.0,-162.0,-291.0,-210.0,1286.0,-1115.0,0
-45.0,-227.0,-311.0,-1131.0,1089.0,-1351.0,0
33.0,-328.0,-309.0,-2314.0,1100.0,-1594.0,0
130.0,-449.0,-294.0,-3591.0,1320.0,-1985.0,0
192.0,-594.0,-321.0,-4788.0,1527.0,-2466.0,0
151.0,-769.0,-402.0,-6011.0,1543.0,-2841.0,0
22.0,-987.0,-392.0,-7284.0,1531.0,-2901.0,0
-102.0,-1213.0,-265.0,-8193.0,1604.0,-2566.0,0
-184.0,-1365.0,-84.0,-8237.0,1504.0,-1761.0,0
-230.0,-1434.0,60.0,-7078.0,1254.0,-695.0,0
-222.0,-1408.0,201.0,-4762.0,1130.0,221.0,0
-213.0,-1297.0,275.0,-1693.0,1152.0,748.0,0
-195.0,-1134.0,296.0,1419.0,1189.0,997.0,0
-176.0,-935.0,282.0,3961.0,1087.0,1063.0,0
-157.0,-724.0,254.0,5700.0,786.0,1064.0,0
-123.0,-540.0,191.0,6527.0,332.0,1139.0,0
-81.0,-386.0,109.0,6940.0,-157.0,1303.0,0
-56.0,-255.0,38.0,6758.0,-522.0,1514.0,0
-46.0,-144.0,-14.0,6082.0,-922.0,1720.0,0
-41.0,-39.0,-54.0,5055.0,-1252.0,1891.0,0
-32.0,36.0,-78.0,3855.0,-1497.0,2019.0,0
-13.0,72.0,-91.0,2584.0,-1641.0,2177.0,0
10.0,69.0,-88.0,1323.0,-1676.0,2325.0,0
47.0,32.0,-70.0,106.0,-1582.0,2442.0,0
87.0,-35.0,-24.0,-1033.0,-1384.0,2492.0,0
106.0,-102.0,20.0,-2017.0,-1144.0,2474.0,0
109.0,-153.0,56.0,-2782.0,-907.0,2387.0,0
93.0,-189.0,75.0,-3290.0,-679.0,2258.0,0
85.0,-224.0,93.0,-3539.0,-453.0,2115.0,0
79.0,-254.0,99.0,-3536.0,-227.0,1962.0,0
69.0,-278.0,109.0,-3320.0,-7.0,1805.0,0
71.0,-297.0,122.0,-2936.0,183.0,1632.0,0
83.0,-304.0,128.0,-2399.0,313.0,1439.0,0
94.0,-290.0,110.0,-1766.0,374.0,1233.0,0
98.0,-261.0,86.0,-1102.0,364.0,1021.0,0
104.0,-224.0,68.0,-458.0,296.0,816.0,0
113.0,-181.0,43.0,162.0,207.0,620.0,0
121.0,-141.0,5.0,767.0,118.0,448.0,0
131.0,-107.0,-31.0,1338.0,42.0,309.0,0
138.0,-78.0,-79.0,1819.0,-12.0,185.0,0
130.0,-56.0,-123.0,2155.0,-45.0,50.0,0
101.0,-26.0,-170.0,2302.0,-70.0,-91.0,0
71.0,-10.0,-195.0,2239.0,-99.0,-222.0,0
44.0,7.0,-215.0,1984.0,-174.0,-341.0,0
22.0,23.0,-220.0,1600.0,-320.0,-466.0,0
18.0,45.0,-217.0,1165.0,-525.0,-597.0,0
14.0,62.0,-211.0,746.0,-756.0,-717.0,0
11.0,74.0,-196.0,380.0,-966.0,-812.0,0
7.0,75.0,-176.0,70.0,-1116.0,-889.0,0
-4.0,62.0,-139.0,-183.0,-1177.0,-943.0,0
-16.0,38.0,-84.0,-354.0,-1149.0,-962.0,0
-29.0,9.0,-43.0,-379.0,-1041.0,-958.0,0
-43.0,-12.0,-16.0,-272.0,-886.0,-942.0,0
-46.0,-34.0,-10.0,-69.0,-704.0,-923.0,0
-55.0,-47.0,0.0,173.0,-496.0,-929.0,0
-65.0,-54.0,-3.0,433.0,-269.0,-949.0,0
-78.0,-62.0,-22.0,702.0,-45.0,-962.0,0
-95.0,-75.0,-49.0,987.0,142.0,-960.0,0
-122.0,-91.0,-54.0,1297.0,283.0,-932.0,0
-164.0,-113.0,-37.0,1596.0,427.0,-871.0,0
-237.0,-137.0,-25.0,1819.0,643.0,-766.0,0
-317.0,-158.0,-21.0,1837.0,934.0,-611.0,0
-353.0,-191.0,-55.0,1480.0,1177.0,-343.0,0
-291.0,-212.0,-80.0,663.0,1196.0,115.0,0
-126.0,-248.0,-88.0,-417.0,922.0,685.0,0
22.0,-309.0,-99.0,-1473.0,557.0,1133.0,0
107.0,-400.0,-167.0,-2396.0,478.0,1377.0,0
136.0,-515.0,-356.0,-3381.0,865.0,1544.0,0
168.0,-657.0,-454.0,-4610.0,1593.0,1882.0,0
208.0,-915.0,-331.0,-5627.0,2008.0,2458.0,0
225.0,-1193.0,-331.0,-5702.0,1490.0,3043.0,0
99.0,-1287.0,-268.0,-4831.0,273.0,3026.0,0
22.0,-1085.0,-44.0,-3026.0,-645.0,2230.0,0
42.0,-860.0,133.0,-354.0,-774.0,1325.0,0
86.0,-690.0,222.0,2277.0,-594.0,801.0,0
109.0,-554.0,221.0,4065.0,-544.0,446.0,0
108.0,-414.0,170.0,4920.0,-645.0,-10.0,0
84.0,-297.0,85.0,5050.0,-737.0,-587.0,0
50.0,-198.0,11.0,4652.0,-663.0,-1142.0,0
16.0,-133.0,-29.0,3805.0,-470.0,-1557.0,0
-10.0,-90.0,-30.0,2700.0,-137.0,-1817.0,0
-35.0,-64.0,-19.0,1517.0,207.0,-1951.0,0
-59.0,-65.0,0.0,370.0,527.0,-1975.0,0
-72.0,-97.0,27.0,-671.0,820.0,-1917.0,0
-69.0,-145.0,50.0,-1569.0,1061.0,-1778.0,0
-47.0,-213.0,72.0,-2326.0,1220.0,-1597.0,0
-27.0,-310.0,75.0,-2995.0,1279.0,-1434.0,0
-18.0,-406.0,90.0,-3685.0,1240.0,-1290.0,0
-7.0,-499.0,114.0,-4365.0,1104.0,-1108.0,0
10.0,-577.0,129.0,-4888.0,875.0,-885.0,0
34.0,-632.0,156.0,-5097.0,581.0,-647.0,0
63.0,-662.0,158.0,-4880.0,289.0,-423.0,0
94.0,-682.0,138.0,-4245.0,76.0,-254.0,0
110.0,-668.0,120.0,-3261.0,-31.0,-197.0,0
115.0,-624.0,103.0,-2034.0,-57.0,-270.0,0
107.0,-552.0,75.0,-688.0,-41.0,-461.0,0
107.0,-463.0,54.0,591.0,-20.0,-721.0,0
103.0,-367.0,32.0,1639.0,-32.0,-974.0,0
96.0,-271.0,10.0,2369.0,-74.0,-1179.0,0
93.0,-187.0,-11.0,2782.0,-108.0,-1332.0,0
86.0,-112.0,-29.0,2952.0,-108.0,-1447.0,0
68.0,-54.0,-46.0,2968.0,-83.0,-1556.0,0
45.0,5.0,-55.0,2857.0,-45.0,-1645.0,0
12.0,49.0,-58.0,2656.0,-23.0,-1688.0,0
-25.0,89.0,-61.0,2416.0,-28.0,-1670.0,0
-67.0,123.0,-78.0,2172.0,-58.0,-1584.0,0
-105.0,141.0,-93.0,1917.0,-116.0,-1414.0,0
-107.0,143.0,-128.0,1632.0,-180.0,-1160.0,0
-106.0,130.0,-159.0,1273.0,-229.0,-852.0,0
-100.0,113.0,-186.0,825.0,-260.0,-527.0,0
-96.0,85.0,-200.0,309.0,-277.0,-200.0,0
-86.0,55.0,-200.0,-233.0,-276.0,116.0,0
-62.0,23.0,-184.0,-740.0,-240.0,372.0,0
-34.0,0.0,-154.0,-1133.0,-167.0,507.0,0
-22.0,-14.0,-106.0,-1358.0,-60.0,539.0,0
-19.0,-27.0,-49.0,-1355.0,79.0,533.0,0
-11.0,-50.0,9.0,-1099.0,220.0,527.0,0
-1.0,-78.0,55.0,-626.0,327.0,511.0,0
0.0,-103.0,77.0,-21.0,360.0,477.0,0
3.0,-126.0,87.0,632.0,307.0,436.0,0
6.0,-128.0,73.0,1271.0,191.0,394.0,0
4.0,-126.0,54.0,1858.0,52.0,349.0,0
2.0,-113.0,17.0,2354.0,-68.0,304.0,0
-1.0,-94.0,-45.0,2727.0,-150.0,255.0,0
-4.0,-98.0,-88.0,2976.0,-186.0,198.0,0
4.0,-106.0,-144.0,3107.0,-172.0,130.0,0
76.0,-123.0,-202.0,3100.0,-105.0,53.0,0
223.0,-158.0,-256.0,2930.0,63.0,-59.0,0
353.0,-177.0,-259.0,2606.0,405.0,-249.0,0
380.0,-182.0,-230.0,2135.0,856.0,-518.0,0
283.0,-178.0,-236.0,1507.0,1164.0,-895.0,0
117.0,-182.0,-290.0,704.0,1202.0,-1338.0,0
47.0,-213.0,-359.0,-302.0,1096.0,-1712.0,0
73.0,-275.0,-395.0,-1499.0,1062.0,-2008.0,0
122.0,-361.0,-368.0,-2803.0,1249.0,-2312.0,0
118.0,-470.0,-319.0,-4050.0,1584.0,-2673.0,0
79.0,-621.0,-289.0,-4927.0,1848.0,-3075.0,0
9.0,-820.0,-243.0,-5910.0,1856.0,-3427.0,0
-112.0,-1001.0,-134.0,-6680.0,1688.0,-3549.0,0
-204.0,-1118.0,-29.0,-6909.0,1374.0,-3188.0,0
-221.0,-1185.0,54.0,-6446.0,1009.0,-2195.0,0
-201.0,-1211.0,153.0,-5346.0,687.0,-1147.0,0
-227.0,-1176.0,222.0,-3590.0,457.0,6.0,0
-268.0,-1079.0,254.0,-1366.0,319.0,768.0,0
-289.0,-943.0,242.0,897.0,155.0,1244.0,0
-271.0,-785.0,223.0,2818.0,-142.0,1542.0,0
-228.0,-626.0,179.0,4231.0,-541.0,1713.0,0
-170.0,-480.0,117.0,5123.0,-976.0,1821.0,0
-122.0,-357.0,57.0,5501.0,-1412.0,1938.0,0
-81.0,-252.0,-6.0,5401.0,-1797.0,2068.0,0
-41.0,-169.0,-57.0,4803.0,-2047.0,2146.0,0
1.0,-112.0,-86.0,3770.0,-2127.0,2142.0,0
35.0,-78.0,-90.0,2486.0,-2083.0,2063.0,0
62.0,-71.0,-72.0,1169.0,-1968.0,1971.0,0
79.0,-90.0,-55.0,-48.0,-1808.0,1901.0,0
86.0,-128.0,-17.0,-1101.0,-1613.0,1854.0,0
92.0,-183.0,18.0,-1942.0,-1412.0,1811.0,0
106.0,-242.0,45.0,-2553.0,-1245.0,1750.0,0
116.0,-294.0,65.0,-2945.0,-1124.0,1663.0,0
128.0,-322.0,87.0,-3113.0,-1020.0,1586.0,0
135.0,-347.0,99.0,-3054.0,-888.0,1543.0,0
146.0,-366.0,100.0,-2798.0,-699.0,1529.0,0
155.0,-367.0,108.0,-2395.0,-476.0,1510.0,0
151.0,-345.0,119.0,-1838.0,-254.0,1463.0,0
142.0,-325.0,124.0,-1144.0,-67.0,1398.0,0
129.0,-297.0,115.0,-380.0,75.0,1332.0,0
109.0,-249.0,86.0,337.0,166.0,1248.0,0
113.0,-201.0,73.0,932.0,209.0,1148.0,0
120.0,-154.0,49.0,1408.0,203.0,1037.0,0
127.0,-105.0,20.0,1788.0,167.0,926.0,0
131.0,-63.0,-15.0,2074.0,119.0,833.0,0
145.0,-28.0,-60.0,2241.0,68.0,749.0,0
140.0,3.0,-89.0,2283.0,10.0,640.0,0
128.0,38.0,-126.0,2190.0,-52.0,502.0,0
114.0,63.0,-151.0,1972.0,-130.0,352.0,0
90.0,75.0,-181.0,1651.0,-230.0,195.0,0
61.0,87.0,-205.0,1243.0,-345.0,17.0,0
33.0,95.0,-227.0,754.0,-492.0,-180.0,0
14.0,100.0,-230.0,213.0,-665.0,-386.0,0
-6.0,113.0,-225.0,-330.0,-838.0,-575.0,0
-29.0,119.0,-214.0,-826.0,-971.0,-722.0,0
-46.0,108.0,-186.0,-1246.0,-1038.0,-810.0,0
-68.0,85.0,-140.0,-1563.0,-1040.0,-841.0,0
-86.0,58.0,-62.0,-1728.0,-1004.0,-825.0,0
-106.0,15.0,8.0,-1613.0,-952.0,-772.0,0
-117.0,-24.0,50.0,-1202.0,-922.0,-704.0,0
-118.0,-51.0,62.0,-630.0,-924.0,-658.0,0
-116.0,-59.0,61.0,16.0,-911.0,-645.0,0
-116.0,-56.0,47.0,666.0,-841.0,-652.0,0
-116.0,-46.0,32.0,1260.0,-702.0,-652.0,0
-110.0,-44.0,5.0,1744.0,-496.0,-631.0,0
-101.0,-44.0,-30.0,2097.0,-244.0,-596.0,0
-97.0,-61.0,-62.0,2330.0,1.0,-549.0,0
-109.0,-82.0,-82.0,2455.0,198.0,-480.0,0
-138.0,-103.0,-79.0,2432.0,370.0,-375.0,0
-176.0,-123.0,-87.0,2208.0,570.0,-222.0,0
-216.0,-141.0,-105.0,1715.0,783.0,-6.0,0
-223.0,-166.0,-127.0,870.0,903.0,332.0,0
-131.0,-192.0,-140.0,-252.0,807.0,812.0,0
43.0,-256.0,-136.0,-1350.0,480.0,1274.0,0
183.0,-327.0,-141.0,-2082.0,138.0,1529.0,0
247.0,-399.0,-291.0,-2901.0,83.0,1585.0,0
243.0,-506.0,-482.0,-3978.0,515.0,1670.0,0
228.0,-703.0,-486.0,-5449.0,1068.0,2078.0,0
232.0,-1072.0,-324.0,-6909.0,1357.0,2837.0,0
213.0,-1357.0,-227.0,-7488.0,718.0,3415.0,0
124.0,-1379.0,-83.0,-6756.0,-380.0,3241.0,0
48.0,-1200.0,130.0,-4547.0,-987.0,2172.0,0
48.0,-1027.0,280.0,-1217.0,-929.0,997.0,0
49.0,-880.0,338.0,1992.0,-760.0,302.0,0
34.0,-736.0,308.0,4221.0,-780.0,-113.0,0
1.0,-577.0,223.0,5324.0,-889.0,-486.0,0
-19.0,-418.0,123.0,5483.0,-899.0,-880.0,0
-22.0,-290.0,43.0,4981.0,-728.0,-1281.0,0
-37.0,-164.0,13.0,4131.0,-416.0,-1655.0,0
-63.0,-97.0,26.0,3159.0,-55.0,-1927.0,0
-88.0,-61.0,35.0,2187.0,283.0,-2045.0,0
-105.0,-48.0,52.0,1268.0,573.0,-2026.0,0
-101.0,-69.0,79.0,418.0,800.0,-1891.0,0
-77.0,-85.0,101.0,-364.0,944.0,-1653.0,0
-25.0,-139.0,119.0,-1115.0,985.0,-1344.0,0
20.0,-196.0,132.0,-1847.0,911.0,-1068.0,0
54.0,-258.0,142.0,-2517.0,762.0,-842.0,0
82.0,-322.0,146.0,-3105.0,603.0,-638.0,0
118.0,-393.0,136.0,-3597.0,481.0,-437.0,0
139.0,-453.0,128.0,-3945.0,402.0,-257.0,0
145.0,-496.0,113.0,-4034.0,371.0,-154.0,0
140.0,-512.0,81.0,-3760.0,366.0,-158.0,0
127.0,-513.0,43.0,-3144.0,363.0,-252.0,0
109.0,-506.0,16.0,-2291.0,339.0,-378.0,0
96.0,-482.0,-4.0,-1287.0,257.0,-504.0,0
73.0,-450.0,-28.0,-242.0,87.0,-651.0,0
40.0,-400.0,-38.0,731.0,-145.0,-824.0,0
1.0,-338.0,-52.0,1536.0,-382.0,-1005.0,0
-40.0,-264.0,-50.0,2125.0,-590.0,-1154.0,0
-67.0,-188.0,-51.0,2527.0,-747.0,-1251.0,0
-93.0,-114.0,-60.0,2783.0,-842.0,-1262.0,0
-104.0,-52.0,-65.0,2907.0,-869.0,-1172.0,0
-113.0,-1.0,-78.0,2915.0,-835.0,-996.0,0
-112.0,34.0,-91.0,2817.0,-762.0,-755.0,0
-97.0,55.0,-110.0,2585.0,-693.0,-455.0,0
-69.0,56.0,-131.0,2224.0,-645.0,-142.0,0
-30.0,53.0,-133.0,1753.0,-620.0,132.0,0
8.0,51.0,-138.0,1257.0,-605.0,302.0,0
35.0,51.0,-136.0,844.0,-581.0,361.0,0
52.0,48.0,-130.0,558.0,-513.0,368.0,0
63.0,41.0,-121.0,385.0,-372.0,352.0,0
67.0,30.0,-113.0,330.0,-167.0,320.0,0
72.0,8.0,-99.0,327.0,62.0,274.0,0
77.0,-3.0,-62.0,344.0,263.0,207.0,0
75.0,-9.0,-28.0,431.0,410.0,115.0,0
73.0,-10.0,5.0,604.0,492.0,9.0,0
64.0,0.0,24.0,844.0,519.0,-83.0,0
64.0,0.0,28.0,1116.0,503.0,-151.0,0
59.0,11.0,11.0,1376.0,458.0,-197.0,0
46.0,10.0,-21.0,1595.0,407.0,-221.0,0
22.0,-7.0,-70.0,1773.0,355.0,-227.0,0
16.0,-41.0,-119.0,1908.0,300.0,-205.0,0
60.0,-77.0,-154.0,1956.0,281.0,-175.0,0
178.0,-119.0,-186.0,1833.0,351.0,-185.0,0
295.0,-144.0,-216.0,1484.0,525.0,-280.0,0
319.0,-142.0,-216.0,952.0,690.0,-468.0,0
185.0,-126.0,-256.0,358.0,701.0,-729.0,0
9.0,-137.0,-300.0,-246.0,654.0,-980.0,0
-66.0,-193.0,-309.0,-917.0,803.0,-1140.0,0
-47.0,-273.0,-272.0,-1790.0,1198.0,-1292.0,0
-7.0,-374.0,-201.0,-2825.0,1728.0,-1538.0,0
12.0,-488.0,-155.0,-3777.0,2147.0,-1909.0,0
-21.0,-640.0,-177.0,-4505.0,2161.0,-2307.0,0
-95.0,-827.0,-232.0,-5598.0,1842.0,-2514.0,0
-153.0,-1071.0,-226.0,-6748.0,1644.0,-2439.0,0
-229.0,-1264.0,-93.0,-7543.0,1582.0,-2159.0,0
-293.0,-1321.0,59.0,-7470.0,1297.0,-1590.0,0
-256.0,-1305.0,189.0,-6146.0,734.0,-711.0,0
-166.0,-1244.0,272.0,-3733.0,176.0,-6.0,0
-81.0,-1113.0,289.0,-828.0,-85.0,576.0,0
-55.0,-919.0,279.0,1801.0,-10.0,796.0,0
-61.0,-710.0,244.0,3739.0,156.0,887.0,0
-58.0,-533.0,180.0,5005.0,164.0,1059.0,0
-47.0,-393.0,101.0,5711.0,-53.0,1342.0,0
-41.0,-285.0,29.0,5901.0,-419.0,1653.0,0
-22.0,-190.0,-19.0,5588.0,-812.0,1926.0,0
-2.0,-104.0,-48.0,4879.0,-1146.0,2120.0,0
27.0,-33.0,-54.0,3916.0,-1357.0,2225.0,0
46.0,11.0,-42.0,2817.0,-1412.0,2261.0,0
57.0,22.0,-19.0,1660.0,-1310.0,2236.0,0
66.0,15.0,3.0,511.0,-1101.0,2164.0,0
66.0,-22.0,38.0,-556.0,-849.0,2078.0,0
59.0,-76.0,67.0,-1499.0,-623.0,1992.0,0
34.0,-139.0,84.0,-2310.0,-469.0,1889.0,0
24.0,-208.0,99.0,-2998.0,-379.0,1760.0,0
19.0,-259.0,112.0,-3506.0,-326.0,1599.0,0
25.0,-296.0,120.0,-3747.0,-279.0,1436.0,0
22.0,-318.0,115.0,-3725.0,-227.0,1281.0,0
23.0,-331.0,116.0,-3453.0,-181.0,1133.0,0
24.0,-327.0,121.0,-2942.0,-175.0,1006.0,0
20.0,-309.0,109.0,-2210.0,-230.0,885.0,0
20.0,-286.0,81.0,-1345.0,-356.0,775.0,0
29.0,-252.0,45.0,-461.0,-534.0,695.0,0
41.0,-211.0,8.0,382.0,-719.0,639.0,0
61.0,-168.0,-34.0,1168.0,-869.0,582.0,0
73.0,-121.0,-85.0,1864.0,-948.0,491.0,0
71.0,-73.0,-143.0,2411.0,-939.0,378.0,0
70.0,-31.0,-195.0,2724.0,-830.0,279.0,0
76.0,9.0,-228.0,2743.0,-636.0,196.0,0
77.0,41.0,-242.0,2506.0,-403.0,95.0,0
66.0,67.0,-254.0,2042.0,-181.0,-24.0,0
68.0,84.0,-242.0,1399.0,-60.0,-155.0,0
65.0,99.0,-230.0,652.0,-103.0,-321.0,0
62.0,112.0,-204.0,-113.0,-294.0,-496.0,0
55.0,112.0,-178.0,-812.0,-559.0,-664.0,0
28.0,106.0,-137.0,-1391.0,-794.0,-819.0,0
6.0,80.0,-69.0,-1784.0,-926.0,-914.0,0
-1.0,40.0,-1.0,-1917.0,-955.0,-911.0,0
5.0,-3.0,35.0,-1752.0,-927.0,-846.0,0
14.0,-44.0,51.0,-1389.0,-880.0,-799.0,0
20.0,-74.0,59.0,-910.0,-808.0,-815.0,0
13.0,-92.0,57.0,-380.0,-704.0,-875.0,0
9.0,-102.0,50.0,165.0,-557.0,-934.0,0
6.0,-109.0,42.0,691.0,-359.0,-981.0,0
5.0,-111.0,15.0,1156.0,-117.0,-1017.0,0
9.0,-115.0,-10.0,1538.0,164.0,-1039.0,0
16.0,-123.0,-55.0,1847.0,446.0,-1047.0,0
5.0,-130.0,-94.0,2116.0,642.0,-1027.0,0
-31.0,-133.0,-99.0,2340.0,699.0,-953.0,0
-63.0,-132.0,-94.0,2437.0,667.0,-814.0,0
-123.0,-145.0,-135.0,2267.0,623.0,-595.0,0
-178.0,-154.0,-196.0,1584.0,584.0,-224.0,0
-218.0,-167.0,-225.0,420.0,451.0,296.0,0
-220.0,-198.0,-254.0,-833.0,189.0,909.0,0
-123.0,-265.0,-279.0,-1874.0,-49.0,1564.0,0
-5.0,-333.0,-283.0,-2707.0,-102.0,2054.0,0
5.0,-431.0,-284.0,-3482.0,142.0,2229.0,0
-91.0,-595.0,-290.0,-4211.0,643.0,2344.0,0
-184.0,-822.0,-229.0,-5340.0,1099.0,2827.0,0
-143.0,-1161.0,-213.0,-6339.0,994.0,3590.0,0
-10.0,-1381.0,-257.0,-6724.0,418.0,3896.0,0
55.0,-1418.0,-207.0,-6246.0,-500.0,3092.0,0
-5.0,-1276.0,-26.0,-4735.0,-927.0,1490.0,0
-57.0,-1085.0,169.0,-2248.0,-721.0,385.0,0
-56.0,-951.0,283.0,600.0,-425.0,-363.0,0
-49.0,-817.0,305.0,2958.0,-402.0,-739.0,0
-36.0,-647.0,284.0,4413.0,-555.0,-1059.0,0
-25.0,-472.0,239.0,5095.0,-653.0,-1376.0,0
5.0,-323.0,177.0,5258.0,-567.0,-1666.0,0
19.0,-204.0,134.0,5029.0,-339.0,-1917.0,0
7.0,-111.0,103.0,4470.0,-76.0,-2096.0,0
-17.0,-38.0,82.0,3628.0,133.0,-2160.0,0
-45.0,4.0,66.0,2586.0,258.0,-2065.0,0
-63.0,8.0,60.0,1438.0,298.0,-1805.0,0
-54.0,-3.0,48.0,250.0,257.0,-1425.0,0
-23.0,-50.0,49.0,-933.0,160.0,-994.0,0
33.0,-120.0,35.0,-2076.0,23.0,-613.0,0
72.0,-190.0,25.0,-3147.0,-115.0,-378.0,0
94.0,-254.0,34.0,-4048.0,-188.0,-273.0,0
116.0,-330.0,47.0,-4668.0,-165.0,-243.0,0
116.0,-376.0,51.0,-4923.0,-96.0,-257.0,0
131.0,-412.0,52.0,-4799.0,-13.0,-301.0,0
132.0,-439.0,27.0,-4359.0,84.0,-362.0,0
140.0,-453.0,13.0,-3672.0,150.0,-410.0,0
140.0,-457.0,-13.0,-2801.0,169.0,-495.0,0
129.0,-441.0,-34.0,-1858.0,175.0,-647.0,0
100.0,-401.0,-37.0,-933.0,188.0,-874.0,0
65.0,-348.0,-36.0,-65.0,182.0,-1101.0,0
26.0,-285.0,-42.0,706.0,144.0,-1252.0,0
-12.0,-225.0,-46.0,1342.0,82.0,-1296.0,0
-46.0,-164.0,-53.0,1806.0,17.0,-1240.0,0
-67.0,-107.0,-54.0,2083.0,-42.0,-1092.0,0
-81.0,-65.0,-58.0,2205.0,-104.0,-870.0,0
-71.0,-31.0,-49.0,2195.0,-179.0,-599.0,0
-34.0,-12.0,-49.0,2073.0,-265.0,-321.0,0
5.0,0.0,-55.0,1848.0,-375.0,-87.0,0
36.0,7.0,-55.0,1567.0,-478.0,93.0,0
54.0,15.0,-45.0,1308.0,-539.0,220.0,0
60.0,19.0,-44.0,1159.0,-527.0,291.0,0
68.0,23.0,-45.0,1125.0,-444.0,331.0,0
71.0,25.0,-55.0,1175.0,-304.0,359.0,0
77.0,22.0,-65.0,1265.0,-127.0,374.0,0
77.0,8.0,-80.0,1359.0,54.0,365.0,0
69.0,0.0,-88.0,1421.0,208.0,331.0,0
55.0,-4.0,-93.0,1443.0,315.0,285.0,0
43.0,-6.0,-94.0,1446.0,368.0,241.0,0
27.0,-2.0,-99.0,1438.0,373.0,200.0,0
14.0,0.0,-104.0,1423.0,344.0,167.0,0
8.0,3.0,-110.0,1394.0,308.0,136.0,0
0.0,10.0,-117.0,1330.0,279.0,104.0,0
-10.0,13.0,-126.0,1238.0,265.0,70.0,0
-23.0,21.0,-131.0,1109.0,267.0,27.0,0
-28.0,13.0,-149.0,952.0,279.0,-28.0,0
-34.0,-10.0,-171.0,791.0,302.0,-91.0,0
-18.0,-39.0,-187.0,635.0,349.0,-160.0,0
52.0,-79.0,-183.0,457.0,447.0,-253.0,0
135.0,-116.0,-166.0,211.0,644.0,-402.0,0
167.0,-135.0,-142.0,-104.0,905.0,-587.0,0
141.0,-142.0,-148.0,-449.0,1088.0,-813.0,0
36.0,-126.0,-209.0,-704.0,1131.0,-1096.0,0
-64.0,-154.0,-270.0,-962.0,1163.0,-1334.0,0
-22.0,-206.0,-283.0,-1203.0,1245.0,-1474.0,0
61.0,-279.0,-280.0,-1546.0,1464.0,-1592.0,0
167.0,-342.0,-261.0,-1991.0,1891.0,-1766.0,0
234.0,-414.0,-218.0,-2539.0,2366.0,-1977.0,0
246.0,-525.0,-207.0,-3278.0,2573.0,-2319.0,0
183.0,-669.0,-183.0,-4283.0,2398.0,-2702.0,0
34.0,-871.0,-125.0,-5308.0,1977.0,-2923.0,0
-49.0,-1035.0,-131.0,-6038.0,1532.0,-2687.0,0
-55.0,-1143.0,-63.0,-6359.0,1231.0,-1789.0,0
11.0,-1193.0,74.0,-5983.0,1032.0,-464.0,0
20.0,-1174.0,175.0,-4622.0,892.0,582.0,0
-20.0,-1089.0,220.0,-2505.0,781.0,1051.0,0
-56.0,-960.0,223.0,-212.0,628.0,1222.0,0
-74.0,-801.0,211.0,1794.0,459.0,1282.0,0
-67.0,-647.0,185.0,3336.0,299.0,1265.0,0
-64.0,-503.0,140.0,4364.0,132.0,1260.0,0
-56.0,-382.0,91.0,4855.0,-34.0,1316.0,0
-41.0,-278.0,48.0,4804.0,-171.0,1405.0,0
-30.0,-192.0,12.0,4240.0,-257.0,1490.0,0
-17.0,-133.0,-5.0,3316.0,-297.0,1572.0,0
-4.0,-114.0,-27.0,2226.0,-306.0,1654.0,0
1.0,-125.0,-32.0,1109.0,-280.0,1704.0,0
0.0,-155.0,-20.0,26.0,-230.0,1690.0,0
-14.0,-192.0,12.0,-974.0,-176.0,1633.0,0
-18.0,-228.0,53.0,-1812.0,-132.0,1589.0,0
-8.0,-261.0,75.0,-2413.0,-105.0,1573.0,0
-10.0,-295.0,87.0,-2755.0,-94.0,1592.0,0
-10.0,-325.0,91.0,-2858.0,-80.0,1634.0,0
-20.0,-350.0,75.0,-2771.0,-64.0,1671.0,0
-22.0,-356.0,67.0,-2557.0,-52.0,1676.0,0
-24.0,-350.0,60.0,-2222.0,-48.0,1644.0,0
-22.0,-345.0,50.0,-1798.0,-50.0,1576.0,0
-24.0,-330.0,45.0,-1326.0,-63.0,1474.0,0
-20.0,-299.0,38.0,-819.0,-93.0,1349.0,0
-9.0,-258.0,30.0,-288.0,-150.0,1241.0,0
14.0,-216.0,16.0,270.0,-223.0,1139.0,0
56.0,-171.0,4.0,847.0,-290.0,1018.0,0
90.0,-121.0,-12.0,1417.0,-325.0,871.0,0
118.0,-67.0,-35.0,1940.0,-320.0,699.0,0
129.0,-18.0,-59.0,2360.0,-285.0,530.0,0
127.0,26.0,-83.0,2607.0,-265.0,360.0,0
104.0,51.0,-122.0,2637.0,-279.0,199.0,0
77.0,74.0,-158.0,2438.0,-331.0,54.0,0
47.0,86.0,-185.0,2041.0,-422.0,-86.0,0
24.0,96.0,-204.0,1498.0,-549.0,-239.0,0
8.0,98.0,-218.0,880.0,-688.0,-409.0,0
-1.0,105.0,-224.0,262.0,-799.0,-565.0,0
-13.0,99.0,-207.0,-286.0,-846.0,-683.0,0
-19.0,77.0,-182.0,-715.0,-818.0,-764.0,0
-22.0,51.0,-133.0,-990.0,-739.0,-812.0,0
-24.0,10.0,-85.0,-1060.0,-630.0,-851.0,0
-30.0,-19.0,-48.0,-921.0,-515.0,-889.0,0
-32.0,-43.0,-21.0,-616.0,-400.0,-915.0,0
-31.0,-52.0,2.0,-200.0,-279.0,-928.0,0
-34.0,-55.0,13.0,268.0,-138.0,-929.0,0
-23.0,-54.0,6.0,738.0,25.0,-920.0,0
-28.0,-43.0,10.0,1172.0,194.0,-905.0,0
-31.0,-37.0,-8.0,1539.0,349.0,-886.0,0
-31.0,-37.0,-38.0,1824.0,470.0,-854.0,0
-37.0,-50.0,-63.0,2034.0,527.0,-793.0,0
-60.0,-58.0,-66.0,2126.0,540.0,-688.0,0
-93.0,-64.0,-94.0,2048.0,572.0,-553.0,0
-133.0,-72.0,-160.0,1697.0,621.0,-404.0,0
-219.0,-82.0,-231.0,1019.0,616.0,-221.0,0
-275.0,-103.0,-289.0,70.0,466.0,111.0,0
-231.0,-165.0,-336.0,-984.0,122.0,714.0,0
-82.0,-251.0,-373.0,-1927.0,-320.0,1331.0,0
41.0,-330.0,-384.0,-2682.0,-621.0,1984.0,0
96.0,-412.0,-346.0,-3400.0,-552.0,2327.0,0
54.0,-557.0,-333.0,-4246.0,-137.0,2454.0,0
-34.0,-743.0,-288.0,-5225.0,444.0,2649.0,0
-43.0,-1076.0,-201.0,-6018.0,843.0,3122.0,0
25.0,-1293.0,-278.0,-6162.0,631.0,3538.0,0
49.0,-1309.0,-253.0,-5850.0,-180.0,3176.0,0
6.0,-1137.0,-27.0,-4807.0,-900.0,1952.0,0
26.0,-979.0,156.0,-2612.0,-1060.0,729.0,0
69.0,-892.0,233.0,64.0,-974.0,137.0,0
60.0,-804.0,228.0,2349.0,-894.0,-179.0,0
26.0,-688.0,182.0,3874.0,-821.0,-532.0,0
9.0,-548.0,135.0,4659.0,-750.0,-900.0,0
5.0,-411.0,94.0,4871.0,-668.0,-1224.0,0
8.0,-290.0,63.0,4680.0,-556.0,-1492.0,0
1.0,-194.0,47.0,4199.0,-457.0,-1685.0,0
-16.0,-128.0,43.0,3491.0,-399.0,-1762.0,0
-33.0,-94.0,34.0,2618.0,-341.0,-1709.0,0
-49.0,-97.0,27.0,1670.0,-238.0,-1543.0,0
-47.0,-128.0,18.0,715.0,-81.0,-1279.0,0
-10.0,-179.0,30.0,-205.0,93.0,-954.0,0
32.0,-229.0,42.0,-1085.0,217.0,-691.0,0
62.0,-264.0,55.0,-1907.0,255.0,-543.0,0
86.0,-302.0,63.0,-2635.0,228.0,-488.0,0
108.0,-358.0,69.0,-3242.0,164.0,-473.0,0
126.0,-409.0,68.0,-3732.0,95.0,-472.0,0
141.0,-452.0,74.0,-4016.0,22.0,-460.0,0
153.0,-477.0,75.0,-4007.0,-30.0,-446.0,0
150.0,-493.0,77.0,-3651.0,-51.0,-452.0,0
141.0,-496.0,67.0,-2996.0,-27.0,-497.0,0
118.0,-476.0,63.0,-2138.0,32.0,-606.0,0
101.0,-442.0,54.0,-1212.0,92.0,-754.0,0
79.0,-390.0,47.0,-308.0,101.0,-895.0,0
58.0,-339.0,39.0,510.0,52.0,-1017.0,0
35.0,-268.0,35.0,1188.0,-35.0,-1090.0,0
20.0,-211.0,38.0,1721.0,-123.0,-1109.0,0
10.0,-153.0,33.0,2132.0,-174.0,-1115.0,0
-3.0,-94.0,26.0,2440.0,-165.0,-1145.0,0
-31.0,-43.0,0.0,2654.0,-128.0,-1192.0,0
-62.0,2.0,-21.0,2745.0,-90.0,-1169.0,0
-73.0,39.0,-43.0,2728.0,-77.0,-1020.0,0
-73.0,65.0,-67.0,2636.0,-109.0,-776.0,0
-64.0,84.0,-109.0,2481.0,-170.0,-472.0,0
-43.0,85.0,-146.0,2245.0,-213.0,-160.0,0
-22.0,83.0,-181.0,1884.0,-238.0,103.0,0
-5.0,74.0,-204.0,1412.0,-260.0,295.0,0
6.0,69.0,-218.0,885.0,-277.0,436.0,0
19.0,63.0,-213.0,386.0,-280.0,543.0,0
30.0,52.0,-194.0,-2.0,-256.0,611.0,0
33.0,32.0,-167.0,-226.0,-208.0,643.0,0
32.0,8.0,-133.0,-312.0,-146.0,646.0,0
24.0,-11.0,-90.0,-273.0,-100.0,625.0,0
19.0,-34.0,-49.0,-89.0,-76.0,591.0,0
15.0,-47.0,-9.0,237.0,-75.0,551.0,0
15.0,-58.0,9.0,662.0,-83.0,503.0,0
15.0,-62.0,15.0,1126.0,-94.0,435.0,0
11.0,-61.0,10.0,1562.0,-102.0,346.0,0
5.0,-49.0,-11.0,1912.0,-91.0,237.0,0
10.0,-51.0,-55.0,2107.0,-48.0,119.0,0
18.0,-55.0,-108.0,2240.0,38.0,1.0,0
48.0,-65.0,-153.0,2245.0,167.0,-113.0,0
118.0,-86.0,-193.0,2116.0,302.0,-233.0,0
224.0,-114.0,-218.0,1841.0,524.0,-387.0,0
285.0,-125.0,-223.0,1439.0,792.0,-569.0,0
289.0,-137.0,-214.0,902.0,990.0,-729.0,0
177.0,-142.0,-244.0,239.0,985.0,-997.0,0
36.0,-167.0,-310.0,-479.0,924.0,-1293.0,0
5.0,-228.0,-358.0,-1246.0,1048.0,-1496.0,0
44.0,-312.0,-339.0,-2153.0,1354.0,-1657.0,0
84.0,-402.0,-286.0,-3171.0,1673.0,-1884.0,0
97.0,-516.0,-245.0,-4211.0,1821.0,-2185.0,0
72.0,-677.0,-269.0,-5286.0,1680.0,-2538.0,0
-6.0,-859.0,-294.0,-6416.0,1419.0,-2790.0,0
-110.0,-1064.0,-269.0,-7341.0,1362.0,-2658.0,0
-177.0,-1215.0,-200.0,-7757.0,1413.0,-2070.0,0
-230.0,-1288.0,-99.0,-7383.0,1245.0,-1172.0,0
-245.0,-1281.0,41.0,-5924.0,834.0,-125.0,0
-220.0,-1231.0,151.0,-3381.0,506.0,694.0,0
-186.0,-1113.0,192.0,-360.0,482.0,1075.0,0
-169.0,-953.0,195.0,2341.0,558.0,1170.0,0
-163.0,-767.0,184.0,4281.0,427.0,1184.0,0
-138.0,-585.0,153.0,5463.0,43.0,1224.0,0
-86.0,-402.0,72.0,6054.0,-452.0,1297.0,0
-46.0,-282.0,-1.0,6095.0,-900.0,1393.0,0
-4.0,-186.0,-54.0,5561.0,-1219.0,1499.0,0
35.0,-114.0,-74.0,4549.0,-1394.0,1593.0,0
57.0,-74.0,-81.0,3282.0,-1455.0,1617.0,0
75.0,-59.0,-65.0,1959.0,-1434.0,1560.0,0
94.0,-77.0,-36.0,706.0,-1355.0,1460.0,0
95.0,-101.0,6.0,-408.0,-1227.0,1380.0,0
96.0,-151.0,51.0,-1342.0,-1062.0,1356.0,0
97.0,-211.0,89.0,-2063.0,-878.0,1372.0,0
104.0,-254.0,132.0,-2559.0,-717.0,1373.0,0
106.0,-286.0,155.0,-2806.0,-597.0,1351.0,0
101.0,-310.0,157.0,-2824.0,-479.0,1346.0,0
86.0,-324.0,153.0,-2652.0,-336.0,1366.0,0
79.0,-341.0,133.0,-2335.0,-157.0,1387.0,0
64.0,-332.0,116.0,-1924.0,28.0,1363.0,0
43.0,-316.0,100.0,-1432.0,171.0,1319.0,0
25.0,-294.0,81.0,-892.0,238.0,1268.0,0
15.0,-260.0,62.0,-341.0,212.0,1195.0,0
25.0,-229.0,37.0,214.0,100.0,1094.0,0
48.0,-200.0,-4.0,774.0,-48.0,967.0,0
78.0,-172.0,-55.0,1313.0,-169.0,832.0,0
111.0,-136.0,-96.0,1805.0,-212.0,696.0,0
126.0,-98.0,-135.0,2231.0,-166.0,548.0,0
127.0,-50.0,-169.0,2565.0,-55.0,372.0,0
103.0,-7.0,-195.0,2765.0,49.0,190.0,0
73.0,33.0,-214.0,2774.0,103.0,18.0,0
53.0,65.0,-222.0,2569.0,97.0,-116.0,0
24.0,91.0,-227.0,2159.0,43.0,-222.0,0
18.0,115.0,-218.0,1581.0,-41.0,-309.0,0
22.0,133.0,-200.0,915.0,-162.0,-404.0,0
37.0,149.0,-179.0,246.0,-304.0,-529.0,0
51.0,159.0,-151.0,-364.0,-435.0,-695.0,0
46.0,157.0,-113.0,-877.0,-528.0,-881.0,0
8.0,142.0,-79.0,-1275.0,-556.0,-1033.0,0
-25.0,120.0,-33.0,-1528.0,-524.0,-1067.0,0
-36.0,77.0,11.0,-1593.0,-470.0,-1003.0,0
-37.0,31.0,46.0,-1456.0,-429.0,-929.0,0
-42.0,-10.0,58.0,-1155.0,-403.0,-905.0,0
-54.0,-38.0,63.0,-737.0,-374.0,-908.0,0
-64.0,-57.0,59.0,-242.0,-326.0,-911.0,0
-68.0,-73.0,42.0,184.0,-242.0,-909.0,0
-67.0,-85.0,23.0,696.0,-99.0,-909.0,0
-60.0,-90.0,7.0,1145.0,109.0,-907.0,0
-45.0,-96.0,-5.0,1505.0,301.0,-899.0,0
-21.0,-103.0,-35.0,1769.0,529.0,-870.0,0
-3.0,-116.0,-73.0,1952.0,695.0,-812.0,0
-12.0,-126.0,-100.0,2091.0,748.0,-741.0,0
-57.0,-146.0,-80.0,2169.0,697.0,-609.0,0
-113.0,-153.0,-76.0,2109.0,615.0,-408.0,0
-182.0,-175.0,-143.0,1789.0,570.0,-120.0,0
-245.0,-181.0,-246.0,985.0,548.0,291.0,0
-280.0,-198.0,-313.0,-274.0,400.0,792.0,0
-224.0,-262.0,-386.0,-1603.0,33.0,1375.0,0
-97.0,-352.0,-447.0,-2763.0,-436.0,2037.0,0
-21.0,-434.0,-460.0,-3794.0,-736.0,2530.0,0
-74.0,-558.0,-456.0,-4777.0,-614.0,2664.0,0
-174.0,-740.0,-401.0,-5775.0,-72.0,2712.0,0
-166.0,-1043.0,-319.0,-6704.0,398.0,3053.0,0
-9.0,-1337.0,-303.0,-7115.0,272.0,3422.0,0
107.0,-1450.0,-272.0,-6666.0,-452.0,3071.0,0
121.0,-1357.0,-92.0,-5350.0,-1041.0,1853.0,0
104.0,-1181.0,88.0,-3153.0,-1046.0,499.0,0
112.0,-1025.0,229.0,-479.0,-698.0,-370.0,0
86.0,-879.0,298.0,2030.0,-364.0,-841.0,0
56.0,-732.0,303.0,3904.0,-147.0,-1135.0,0
31.0,-561.0,288.0,5057.0,-25.0,-1385.0,0
25.0,-404.0,243.0,5718.0,25.0,-1619.0,0
40.0,-283.0,176.0,6025.0,37.0,-1814.0,0
51.0,-194.0,114.0,5895.0,53.0,-1979.0,0
41.0,-113.0,65.0,5251.0,113.0,-2101.0,0
12.0,-41.0,40.0,4178.0,200.0,-2113.0,0
-31.0,-12.0,28.0,2898.0,307.0,-1959.0,0
-65.0,-16.0,13.0,1602.0,412.0,-1605.0,0
-71.0,-46.0,16.0,355.0,469.0,-1095.0,0
-39.0,-94.0,21.0,-806.0,420.0,-571.0,0
2.0,-143.0,27.0,-1853.0,228.0,-206.0,0
18.0,-190.0,25.0,-2770.0,-40.0,-70.0,0
24.0,-229.0,18.0,-3528.0,-277.0,-97.0,0
29.0,-261.0,12.0,-4104.0,-430.0,-197.0,0
53.0,-295.0,0.0,-4434.0,-519.0,-313.0,0
68.0,-317.0,-3.0,-4487.0,-532.0,-442.0,0
94.0,-343.0,-13.0,-4267.0,-438.0,-548.0,0
109.0,-372.0,-14.0,-3787.0,-250.0,-589.0,0
122.0,-377.0,-6.0,-3078.0,-4.0,-630.0,0
118.0,-367.0,-2.0,-2200.0,244.0,-718.0,0
109.0,-341.0,1.0,-1276.0,426.0,-832.0,0
90.0,-300.0,5.0,-395.0,516.0,-974.0,0
64.0,-247.0,2.0,386.0,530.0,-1121.0,0
28.0,-194.0,-5.0,1022.0,494.0,-1227.0,0
-7.0,-143.0,-11.0,1516.0,430.0,-1262.0,0
-41.0,-90.0,-18.0,1873.0,327.0,-1220.0,0
-70.0,-55.0,-29.0,2094.0,180.0,-1083.0,0
-84.0,-19.0,-31.0,2175.0,-8.0,-833.0,0
-77.0,-2.0,-49.0,2136.0,-225.0,-485.0,0
-45.0,1.0,-70.0,1978.0,-433.0,-115.0,0
3.0,-5.0,-87.0,1717.0,-601.0,184.0,0
31.0,-14.0,-91.0,1402.0,-718.0,354.0,0
52.0,9.0,-91.0,1112.0,-769.0,416.0,0
52.0,1.0,-67.0,964.0,-734.0,409.0,0
65.0,1.0,-62.0,965.0,-622.0,397.0,0
71.0,-4.0,-58.0,1072.0,-452.0,379.0,0
74.0,-23.0,-56.0,1205.0,-255.0,335.0,0
68.0,-34.0,-51.0,1302.0,-68.0,269.0,0
56.0,-33.0,-35.0,1374.0,84.0,199.0,0
44.0,-31.0,-25.0,1439.0,185.0,133.0,0
36.0,-27.0,-22.0,1529.0,242.0,68.0,0
30.0,-21.0,-34.0,1606.0,263.0,3.0,0
17.0,-13.0,-50.0,1644.0,277.0,-63.0,0
7.0,-17.0,-84.0,1637.0,286.0,-126.0,0
-21.0,-34.0,-129.0,1603.0,296.0,-172.0,0
-39.0,-52.0,-174.0,1569.0,302.0,-218.0,0
5.0,-82.0,-201.0,1512.0,300.0,-246.0,0
115.0,-119.0,-199.0,1379.0,314.0,-286.0,0
203.0,-139.0,-164.0,1165.0,428.0,-384.0,0
206.0,-156.0,-95.0,887.0,636.0,-506.0,0
134.0,-174.0,-86.0,524.0,772.0,-657.0,0
-13.0,-164.0,-172.0,-4.0,768.0,-871.0,0
-88.0,-176.0,-276.0,-742.0,789.0,-1088.0,0
-52.0,-221.0,-330.0,-1724.0,969.0,-1291.0,0
16.0,-293.0,-350.0,-2810.0,1270.0,-1544.0,0
79.0,-405.0,-359.0,-3744.0,1636.0,-1894.0,0
104.0,-577.0,-377.0,-4536.0,1883.0,-2310.0,0
53.0,-761.0,-423.0,-5383.0,1873.0,-2673.0,0
-69.0,-935.0,-375.0,-6321.0,1776.0,-2748.0,0
-175.0,-1102.0,-225.0,-7007.0,1639.0,-2419.0,0
-208.0,-1211.0,-121.0,-6886.0,1276.0,-1727.0,0
-148.0,-1223.0,-20.0,-5723.0,790.0,-731.0,0
-94.0,-1160.0,95.0,-3659.0,368.0,240.0,0
-91.0,-1030.0,182.0,-1106.0,127.0,844.0,0
-112.0,-871.0,224.0,1352.0,62.0,1057.0,0
-121.0,-692.0,230.0,3232.0,89.0,1050.0,0
-115.0,-526.0,202.0,4406.0,65.0,997.0,0
-106.0,-392.0,150.0,4934.0,-130.0,1027.0,0
-93.0,-285.0,90.0,4851.0,-471.0,1158.0,0
-76.0,-196.0,42.0,4215.0,-853.0,1322.0,0
-58.0,-134.0,16.0,3184.0,-1185.0,1457.0,0
-46.0,-113.0,2.0,1993.0,-1430.0,1528.0,0
-31.0,-138.0,4.0,837.0,-1571.0,1546.0,0
-2.0,-192.0,12.0,-180.0,-1587.0,1517.0,0
11.0,-259.0,26.0,-994.0,-1488.0,1455.0,0
17.0,-319.0,48.0,-1573.0,-1315.0,1382.0,0
24.0,-363.0,71.0,-1883.0,-1126.0,1335.0,0
30.0,-411.0,92.0,-1941.0,-942.0,1341.0,0
36.0,-420.0,96.0,-1795.0,-785.0,1375.0,0
44.0,-413.0,95.0,-1474.0,-664.0,1420.0,0
39.0,-395.0,84.0,-1016.0,-572.0,1471.0,0
32.0,-369.0,65.0,-487.0,-490.0,1511.0,0
26.0,-327.0,58.0,64.0,-411.0,1537.0,0
17.0,-288.0,44.0,608.0,-355.0,1539.0,0
18.0,-236.0,29.0,1094.0,-335.0,1516.0,0
26.0,-184.0,18.0,1493.0,-351.0,1480.0,0
44.0,-131.0,3.0,1800.0,-379.0,1449.0,0
58.0,-82.0,-13.0,1997.0,-392.0,1413.0,0
85.0,-32.0,-29.0,2081.0,-374.0,1358.0,0
117.0,7.0,-47.0,2072.0,-319.0,1269.0,0
155.0,47.0,-69.0,1991.0,-228.0,1139.0,0
188.0,67.0,-103.0,1843.0,-108.0,960.0,0
197.0,85.0,-133.0,1609.0,11.0,728.0,0
196.0,87.0,-157.0,1277.0,89.0,466.0,0
179.0,83.0,-182.0,838.0,111.0,188.0,0
155.0,72.0,-199.0,309.0,70.0,-96.0,0
116.0,69.0,-215.0,-259.0,-23.0,-372.0,0
80.0,61.0,-217.0,-774.0,-144.0,-630.0,0
49.0,50.0,-211.0,-1168.0,-244.0,-848.0,0
22.0,37.0,-191.0,-1369.0,-316.0,-1002.0,0
-5.0,12.0,-152.0,-1458.0,-374.0,-1076.0,0
-29.0,-27.0,-102.0,-1374.0,-434.0,-1075.0,0
-51.0,-67.0,-40.0,-1105.0,-501.0,-1043.0,0
-73.0,-93.0,-3.0,-660.0,-623.0,-1006.0,0
-96.0,-111.0,24.0,-99.0,-779.0,-966.0,0
-104.0,-111.0,35.0,487.0,-938.0,-933.0,0
-112.0,-109.0,40.0,1041.0,-1049.0,-893.0,0
-113.0,-90.0,39.0,1523.0,-1066.0,-853.0,0
-107.0,-73.0,40.0,1919.0,-981.0,-814.0,0
-100.0,-56.0,40.0,2211.0,-793.0,-781.0,0
-82.0,-45.0,15.0,2401.0,-534.0,-753.0,0
-78.0,-55.0,-9.0,2500.0,-266.0,-726.0,0
-110.0,-59.0,-24.0,2482.0,-19.0,-678.0,0
-165.0,-68.0,-30.0,2272.0,232.0,-583.0,0
-235.0,-75.0,-56.0,1823.0,501.0,-441.0,0
-306.0,-105.0,-113.0,1081.0,719.0,-204.0,0
-309.0,-169.0,-201.0,-15.0,758.0,307.0,0
-217.0,-267.0,-290.0,-1382.0,493.0,1176.0,0
-97.0,-374.0,-375.0,-2727.0,14.0,2127.0,0
-24.0,-472.0,-447.0,-3785.0,-328.0,2769.0,0
5.0,-569.0,-460.0,-4579.0,-205.0,2999.0,0
-6.0,-659.0,-462.0,-5221.0,248.0,3059.0,0
-4.0,-935.0,-400.0,-5744.0,597.0,3289.0,0
60.0,-1259.0,-328.0,-5637.0,275.0,3625.0,0
152.0,-1439.0,-275.0,-4851.0,-748.0,3527.0,0
172.0,-1297.0,-69.0,-3621.0,-1650.0,2579.0,0
149.0,-1047.0,108.0,-1836.0,-1779.0,1193.0,0
147.0,-855.0,217.0,337.0,-1384.0,166.0,0
133.0,-715.0,260.0,2329.0,-990.0,-431.0,0
117.0,-574.0,238.0,3846.0,-731.0,-836.0,0
99.0,-430.0,192.0,4812.0,-516.0,-1193.0,0
72.0,-296.0,134.0,5242.0,-268.0,-1552.0,0
56.0,-181.0,95.0,5135.0,18.0,-1874.0,0
30.0,-91.0,83.0,4615.0,271.0,-2088.0,0
8.0,-26.0,83.0,3862.0,427.0,-2152.0,0
-11.0,4.0,76.0,2997.0,522.0,-2090.0,0
-20.0,4.0,74.0,2057.0,662.0,-1941.0,0
-14.0,-24.0,68.0,1039.0,915.0,-1733.0,0
7.0,-62.0,74.0,-58.0,1246.0,-1524.0,0
37.0,-117.0,83.0,-1205.0,1559.0,-1378.0,0
56.0,-181.0,79.0,-2367.0,1755.0,-1318.0,0
50.0,-251.0,74.0,-3494.0,1787.0,-1295.0,0
58.0,-311.0,68.0,-4454.0,1659.0,-1223.0,0
75.0,-377.0,56.0,-5078.0,1422.0,-1079.0,0
97.0,-434.0,46.0,-5299.0,1149.0,-901.0,0
117.0,-492.0,35.0,-5126.0,921.0,-724.0,0
125.0,-532.0,27.0,-4601.0,772.0,-600.0,0
129.0,-552.0,15.0,-3813.0,711.0,-555.0,0
124.0,-553.0,0.0,-2842.0,689.0,-574.0,0
105.0,-520.0,0.0,-1721.0,653.0,-632.0,0
81.0,-468.0,-9.0,-530.0,578.0,-736.0,0
41.0,-403.0,-12.0,617.0,452.0,-863.0,0
9.0,-320.0,-12.0,1618.0,262.0,-985.0,0
-30.0,-234.0,-17.0,2426.0,16.0,-1091.0,0
-68.0,-151.0,-25.0,3014.0,-218.0,-1134.0,0
-99.0,-85.0,-38.0,3402.0,-394.0,-1115.0,0
-124.0,-16.0,-38.0,3606.0,-494.0,-1036.0,0
-133.0,40.0,-36.0,3680.0,-525.0,-887.0,0
-128.0,91.0,-40.0,3638.0,-511.0,-680.0,0
-115.0,117.0,-48.0,3465.0,-458.0,-449.0,0
-94.0,132.0,-68.0,3125.0,-372.0,-235.0,0
-78.0,140.0,-93.0,2620.0,-251.0,-55.0,0
-74.0,140.0,-111.0,1973.0,-119.0,74.0,0
-69.0,129.0,-127.0,1250.0,3.0,172.0,0
-62.0,119.0,-132.0,520.0,122.0,256.0,0
-52.0,96.0,-139.0,-108.0,247.0,336.0,0
-24.0,63.0,-141.0,-593.0,383.0,419.0,0
-4.0,20.0,-126.0,-908.0,501.0,465.0,0
-4.0,-14.0,-106.0,-1021.0,563.0,453.0,0
-10.0,-41.0,-79.0,-954.0,539.0,420.0,0
-8.0,-60.0,-49.0,-790.0,430.0,396.0,0
0.0,-74.0,-25.0,-463.0,261.0,376.0,0
3.0,-87.0,-18.0,-37.0,78.0,352.0,0
3.0,-95.0,-24.0,449.0,-56.0,332.0,0
1.0,-101.0,-48.0,940.0,-182.0,320.0,0
-3.0,-111.0,-90.0,1394.0,-261.0,309.0,0
4.0,-128.0,-132.0,1791.0,-299.0,295.0,0
54.0,-154.0,-161.0,2091.0,-304.0,265.0,0
159.0,-191.0,-179.0,2239.0,-257.0,195.0,0
241.0,-216.0,-178.0,2189.0,-116.0,40.0,0
236.0,-223.0,-142.0,1935.0,65.0,-187.0,0
156.0,-199.0,-139.0,1480.0,97.0,-475.0,0
34.0,-177.0,-195.0,886.0,-45.0,-803.0,0
-1.0,-194.0,-260.0,184.0,-137.0,-1102.0,0
38.0,-252.0,-319.0,-749.0,-33.0,-1406.0,0
91.0,-311.0,-349.0,-1926.0,284.0,-1760.0,0
122.0,-379.0,-339.0,-3158.0,844.0,-2129.0,0
118.0,-484.0,-328.0,-4277.0,1450.0,-2476.0,0
73.0,-640.0,-334.0,-5314.0,1870.0,-2817.0,0
-27.0,-837.0,-266.0,-6218.0,2133.0,-3167.0,0
-137.0,-1001.0,-71.0,-6674.0,2282.0,-3398.0,0
-219.0,-1106.0,66.0,-6389.0,2082.0,-3159.0,0
-218.0,-1165.0,158.0,-5420.0,1540.0,-2243.0,0
-114.0,-1153.0,251.0,-3909.0,935.0,-945.0,0
-84.0,-1053.0,274.0,-1876.0,471.0,64.0,0
-89.0,-915.0,252.0,333.0,234.0,647.0,0
-90.0,-760.0,218.0,2216.0,130.0,1020.0,0
-85.0,-605.0,176.0,3567.0,18.0,1293.0,0
-76.0,-469.0,129.0,4358.0,-217.0,1500.0,0
-60.0,-359.0,83.0,4634.0,-574.0,1675.0,0
-44.0,-261.0,48.0,4448.0,-956.0,1826.0,0
-29.0,-182.0,24.0,3892.0,-1256.0,1941.0,0
-9.0,-128.0,15.0,3036.0,-1434.0,2017.0,0
13.0,-118.0,10.0,2000.0,-1505.0,2039.0,0
28.0,-129.0,7.0,925.0,-1492.0,1991.0,0
42.0,-153.0,20.0,-74.0,-1398.0,1872.0,0
55.0,-184.0,27.0,-922.0,-1240.0,1722.0,0
47.0,-217.0,34.0,-1605.0,-1052.0,1594.0,0
42.0,-255.0,40.0,-2115.0,-841.0,1527.0,0
38.0,-298.0,50.0,-2446.0,-625.0,1519.0,0
37.0,-339.0,47.0,-2597.0,-434.0,1539.0,0
40.0,-370.0,46.0,-2605.0,-283.0,1523.0,0
41.0,-384.0,53.0,-2484.0,-192.0,1447.0,0
36.0,-378.0,57.0,-2238.0,-158.0,1329.0,0
30.0,-362.0,56.0,-1856.0,-170.0,1206.0,0
21.0,-328.0,62.0,-1343.0,-207.0,1090.0,0
22.0,-290.0,64.0,-719.0,-258.0,993.0,0
31.0,-246.0,66.0,-34.0,-311.0,910.0,0
47.0,-200.0,65.0,654.0,-356.0,838.0,0
71.0,-145.0,58.0,1298.0,-390.0,765.0,0
99.0,-95.0,44.0,1837.0,-395.0,685.0,0
132.0,-36.0,14.0,2232.0,-351.0,588.0,0
156.0,5.0,-22.0,2459.0,-253.0,461.0,0
149.0,45.0,-77.0,2501.0,-126.0,298.0,0
141.0,58.0,-110.0,2343.0,-9.0,120.0,0
120.0,68.0,-154.0,1992.0,87.0,-57.0,0
89.0,76.0,-192.0,1495.0,136.0,-231.0,0
63.0,81.0,-223.0,917.0,110.0,-402.0,0
43.0,78.0,-236.0,317.0,13.0,-571.0,0
18.0,77.0,-244.0,-245.0,-135.0,-731.0,0
-3.0,75.0,-236.0,-732.0,-293.0,-853.0,0
-21.0,64.0,-206.0,-1101.0,-425.0,-908.0,0
-42.0,39.0,-163.0,-1322.0,-516.0,-886.0,0
-51.0,5.0,-108.0,-1372.0,-580.0,-816.0,0
-61.0,-25.0,-52.0,-1254.0,-645.0,-755.0,0
-74.0,-60.0,-14.0,-932.0,-716.0,-713.0,0
-85.0,-73.0,3.0,-452.0,-787.0,-680.0,0
-97.0,-79.0,14.0,117.0,-828.0,-645.0,0
-100.0,-76.0,5.0,714.0,-832.0,-610.0,0
-102.0,-71.0,-8.0,1284.0,-773.0,-575.0,0
-104.0,-70.0,-36.0,1785.0,-663.0,-546.0,0
-99.0,-78.0,-62.0,2194.0,-526.0,-504.0,0
-134.0,-77.0,-64.0,2476.0,-359.0,-451.0,0
-182.0,-82.0,-70.0,2579.0,-141.0,-378.0,0
-243.0,-88.0,-86.0,2437.0,126.0,-260.0,0
-302.0,-85.0,-122.0,1974.0,387.0,-78.0,0
-291.0,-107.0,-179.0,1157.0,526.0,244.0,0
-181.0,-167.0,-236.0,35.0,434.0,812.0,0
-28.0,-259.0,-272.0,-1156.0,136.0,1490.0,0
72.0,-343.0,-297.0,-2213.0,-89.0,1983.0,0
130.0,-433.0,-275.0,-3134.0,89.0,2166.0,0
128.0,-542.0,-288.0,-3995.0,666.0,2160.0,0
120.0,-658.0,-313.0,-4851.0,1330.0,2263.0,0
143.0,-889.0,-241.0,-5624.0,1507.0,2616.0,0
176.0,-1174.0,-271.0,-5937.0,788.0,2887.0,0
193.0,-1318.0,-263.0,-5692.0,-439.0,2586.0,0
168.0,-1238.0,-108.0,-4746.0,-1260.0,1639.0,0
143.0,-1046.0,90.0,-2880.0,-1266.0,668.0,0
138.0,-899.0,214.0,-439.0,-896.0,141.0,0
100.0,-770.0,249.0,1796.0,-665.0,-209.0,0
52.0,-637.0,218.0,3433.0,-663.0,-585.0,0
17.0,-490.0,151.0,4409.0,-674.0,-982.0,0
3.0,-354.0,85.0,4778.0,-513.0,-1355.0,0
3.0,-246.0,39.0,4647.0,-171.0,-1667.0,0
-4.0,-155.0,29.0,4133.0,208.0,-1891.0,0
-41.0,-78.0,34.0,3376.0,510.0,-2006.0,0
-72.0,-28.0,46.0,2464.0,714.0,-2010.0,0
-91.0,-17.0,52.0,1449.0,845.0,-1903.0,0
-90.0,-40.0,55.0,368.0,918.0,-1701.0,0
-60.0,-89.0,63.0,-729.0,942.0,-1438.0,0
13.0,-187.0,62.0,-1807.0,914.0,-1162.0,0
54.0,-276.0,57.0,-2864.0,842.0,-944.0,0
76.0,-366.0,66.0,-3890.0,748.0,-792.0,0
89.0,-444.0,72.0,-4768.0,641.0,-656.0,0
95.0,-516.0,82.0,-5359.0,528.0,-503.0,0
101.0,-567.0,93.0,-5555.0,420.0,-345.0,0
113.0,-605.0,82.0,-5302.0,323.0,-228.0,0
118.0,-622.0,62.0,-4672.0,241.0,-186.0,0
116.0,-615.0,38.0,-3753.0,187.0,-235.0,0
118.0,-583.0,23.0,-2607.0,172.0,-373.0,0
96.0,-532.0,15.0,-1306.0,195.0,-602.0,0
68.0,-461.0,-1.0,41.0,200.0,-842.0,0
47.0,-380.0,-13.0,1309.0,138.0,-1025.0,0
27.0,-293.0,-23.0,2399.0,18.0,-1140.0,0
9.0,-201.0,-42.0,3247.0,-124.0,-1207.0,0
-17.0,-116.0,-56.0,3818.0,-250.0,-1232.0,0
-37.0,-38.0,-69.0,4105.0,-317.0,-1203.0,0
-60.0,40.0,-65.0,4155.0,-329.0,-1109.0,0
-73.0,94.0,-72.0,4030.0,-310.0,-937.0,0
-86.0,135.0,-87.0,3757.0,-287.0,-697.0,0
-77.0,147.0,-112.0,3355.0,-262.0,-420.0,0
-56.0,141.0,-135.0,2811.0,-234.0,-184.0,0
-38.0,130.0,-156.0,2142.0,-203.0,-50.0,0
-30.0,120.0,-170.0,1408.0,-174.0,4.0,0
-34.0,110.0,-174.0,675.0,-144.0,31.0,0
-38.0,101.0,-153.0,26.0,-96.0,88.0,0
-28.0,86.0,-124.0,-427.0,-16.0,203.0,0
-10.0,61.0,-97.0,-654.0,95.0,333.0,0
2.0,34.0,-69.0,-690.0,205.0,392.0,0
0.0,14.0,-36.0,-571.0,297.0,360.0,0
-5.0,-2.0,-14.0,-324.0,363.0,294.0,0
-6.0,-16.0,5.0,18.0,394.0,234.0,0
