ax,ay,az,gx,gy,gz,label
45.0,-55.0,-55.0,-626.0,699.0,808.0,0
36.0,-49.0,-39.0,-645.0,698.0,882.0,0
20.0,-44.0,-27.0,-608.0,702.0,931.0,0
8.0,-40.0,-17.0,-510.0,710.0,960.0,0
1.0,-40.0,-11.0,-358.0,708.0,965.0,0
-5.0,-36.0,-10.0,-171.0,688.0,936.0,0
-4.0,-31.0,-9.0,25.0,640.0,885.0,0
-8.0,-28.0,-18.0,211.0,566.0,817.0,0
-9.0,-19.0,-30.0,353.0,487.0,746.0,0
-11.0,-10.0,-34.0,426.0,411.0,675.0,0
-12.0,-2.0,-38.0,447.0,350.0,592.0,0
-8.0,8.0,-28.0,437.0,322.0,510.0,0
0.0,3.0,-20.0,402.0,344.0,432.0,0
1.0,5.0,-38.0,326.0,398.0,376.0,0
0.0,8.0,-35.0,193.0,361.0,316.0,0
10.0,8.0,-39.0,68.0,318.0,256.0,0
20.0,-11.0,-78.0,27.0,378.0,204.0,0
32.0,-29.0,-129.0,33.0,536.0,150.0,0
38.0,-47.0,-154.0,45.0,722.0,86.0,0
42.0,-65.0,-180.0,53.0,854.0,1.0,0
49.0,-73.0,-212.0,15.0,910.0,-114.0,0
60.0,-78.0,-241.0,-139.0,923.0,-257.0,0
62.0,-93.0,-235.0,-331.0,939.0,-409.0,0
49.0,-130.0,-192.0,-563.0,960.0,-516.0,0
27.0,-189.0,-142.0,-684.0,963.0,-552.0,0
2.0,-256.0,-93.0,-647.0,919.0,-561.0,0
-15.0,-327.0,-49.0,-463.0,880.0,-562.0,0
-28.0,-395.0,-8.0,-166.0,898.0,-574.0,0
-49.0,-457.0,56.0,202.0,936.0,-612.0,0
-72.0,-512.0,81.0,613.0,921.0,-662.0,0
-96.0,-542.0,58.0,951.0,869.0,-707.0,0
-106.0,-563.0,-28.0,1072.0,811.0,-728.0,0
-103.0,-572.0,-104.0,902.0,741.0,-708.0,0
-103.0,-579.0,-176.0,477.0,621.0,-638.0,0
-88.0,-601.0,-214.0,-111.0,480.0,-490.0,0
-50.0,-624.0,-195.0,-707.0,371.0,-242.0,0
-27.0,-628.0,-146.0,-1091.0,305.0,101.0,0
0.0,-623.0,-84.0,-1084.0,299.0,470.0,0
17.0,-611.0,-37.0,-676.0,313.0,747.0,0
39.0,-574.0,9.0,3.0,310.0,936.0,0
56.0,-519.0,43.0,799.0,286.0,1065.0,0
70.0,-464.0,58.0,1568.0,265.0,1149.0,0
92.0,-396.0,59.0,2163.0,258.0,1217.0,0
113.0,-333.0,46.0,2434.0,259.0,1257.0,0
127.0,-283.0,42.0,2310.0,282.0,1244.0,0
129.0,-247.0,34.0,1856.0,324.0,1201.0,0
123.0,-231.0,31.0,1190.0,357.0,1181.0,0
119.0,-256.0,34.0,589.0,363.0,1209.0,0
111.0,-306.0,37.0,-154.0,350.0,1242.0,0
87.0,-352.0,48.0,-787.0,339.0,1260.0,0
54.0,-391.0,66.0,-1218.0,337.0,1273.0,0
28.0,-424.0,66.0,-1417.0,335.0,1289.0,0
2.0,-434.0,69.0,-1429.0,311.0,1322.0,0
-29.0,-441.0,74.0,-1308.0,260.0,1362.0,0
-68.0,-440.0,83.0,-1102.0,195.0,1411.0,0
-108.0,-440.0,92.0,-867.0,119.0,1453.0,0
-155.0,-430.0,90.0,-659.0,23.0,1470.0,0
-197.0,-417.0,81.0,-522.0,-90.0,1467.0,0
-237.0,-400.0,64.0,-485.0,-215.0,1453.0,0
-261.0,-377.0,42.0,-535.0,-345.0,1416.0,0
-273.0,-350.0,35.0,-632.0,-486.0,1354.0,0
-282.0,-333.0,14.0,-731.0,-625.0,1245.0,0
-283.0,-311.0,-15.0,-811.0,-721.0,1076.0,0
-274.0,-283.0,-44.0,-865.0,-775.0,858.0,0
-244.0,-261.0,-58.0,-860.0,-804.0,613.0,0
-196.0,-231.0,-67.0,-771.0,-819.0,333.0,0
-172.0,-184.0,-73.0,-577.0,-822.0,14.0,0
-141.0,-138.0,-81.0,-300.0,-832.0,-276.0,0
-113.0,-84.0,-94.0,4.0,-845.0,-495.0,0
-77.0,-29.0,-103.0,289.0,-843.0,-646.0,0
-58.0,3.0,-105.0,544.0,-832.0,-740.0,0
-37.0,28.0,-114.0,773.0,-805.0,-787.0,0
-19.0,48.0,-118.0,953.0,-766.0,-789.0,0
-6.0,66.0,-121.0,1048.0,-715.0,-768.0,0
5.0,73.0,-125.0,1086.0,-668.0,-728.0,0
19.0,73.0,-123.0,1009.0,-631.0,-688.0,0
24.0,75.0,-104.0,856.0,-612.0,-654.0,0
22.0,72.0,-89.0,671.0,-609.0,-623.0,0
31.0,63.0,-75.0,484.0,-620.0,-579.0,0
43.0,47.0,-70.0,318.0,-638.0,-536.0,0
51.0,26.0,-65.0,165.0,-657.0,-504.0,0
75.0,12.0,-59.0,18.0,-667.0,-484.0,0
83.0,0.0,-61.0,-103.0,-658.0,-484.0,0
76.0,-13.0,-57.0,-182.0,-625.0,-493.0,0
71.0,-24.0,-58.0,-197.0,-567.0,-499.0,0
66.0,-34.0,-55.0,-155.0,-499.0,-501.0,0
69.0,-40.0,-61.0,-55.0,-426.0,-504.0,0
69.0,-39.0,-62.0,90.0,-349.0,-503.0,0
71.0,-35.0,-62.0,264.0,-276.0,-506.0,0
71.0,-27.0,-73.0,437.0,-211.0,-517.0,0
68.0,-14.0,-88.0,577.0,-160.0,-524.0,0
60.0,-4.0,-115.0,657.0,-130.0,-525.0,0
49.0,-1.0,-136.0,656.0,-152.0,-522.0,0
27.0,-9.0,-146.0,584.0,-237.0,-490.0,0
9.0,-35.0,-156.0,463.0,-360.0,-444.0,0
-5.0,-69.0,-180.0,316.0,-487.0,-380.0,0
-1.0,-121.0,-187.0,153.0,-599.0,-294.0,0
13.0,-202.0,-146.0,10.0,-678.0,-212.0,0
32.0,-293.0,-48.0,-26.0,-705.0,-152.0,0
56.0,-379.0,31.0,49.0,-670.0,-72.0,0
71.0,-462.0,71.0,200.0,-604.0,91.0,0
69.0,-519.0,59.0,274.0,-534.0,324.0,0
52.0,-554.0,35.0,173.0,-501.0,538.0,0
30.0,-595.0,-6.0,-92.0,-475.0,792.0,0
17.0,-640.0,-55.0,-464.0,-483.0,967.0,0
0.0,-685.0,-91.0,-905.0,-562.0,1022.0,0
-37.0,-735.0,-117.0,-1323.0,-646.0,946.0,0
-86.0,-768.0,-106.0,-1576.0,-646.0,722.0,0
-139.0,-792.0,-77.0,-1486.0,-541.0,375.0,0
-178.0,-783.0,-40.0,-1043.0,-373.0,-47.0,0
-190.0,-752.0,-6.0,-350.0,-217.0,-457.0,0
-195.0,-690.0,12.0,430.0,-101.0,-794.0,0
-190.0,-618.0,23.0,1120.0,-17.0,-1062.0,0
-176.0,-537.0,25.0,1614.0,30.0,-1294.0,0
-161.0,-459.0,33.0,1862.0,36.0,-1523.0,0
-137.0,-386.0,39.0,1879.0,5.0,-1741.0,0
-119.0,-322.0,33.0,1687.0,-48.0,-1929.0,0
-99.0,-267.0,25.0,1308.0,-95.0,-2055.0,0
-73.0,-243.0,19.0,759.0,-123.0,-2110.0,0
-40.0,-244.0,28.0,78.0,-114.0,-2058.0,0
3.0,-270.0,50.0,-627.0,-52.0,-1921.0,0
53.0,-307.0,80.0,-1220.0,78.0,-1752.0,0
100.0,-356.0,106.0,-1627.0,262.0,-1572.0,0
137.0,-392.0,121.0,-1834.0,462.0,-1370.0,0
179.0,-420.0,119.0,-1871.0,651.0,-1154.0,0
206.0,-426.0,99.0,-1843.0,781.0,-966.0,0
223.0,-417.0,73.0,-1779.0,840.0,-800.0,0
233.0,-389.0,35.0,-1679.0,851.0,-645.0,0
241.0,-365.0,4.0,-1546.0,861.0,-542.0,0
245.0,-341.0,-22.0,-1372.0,897.0,-425.0,0
229.0,-305.0,-46.0,-1154.0,1005.0,-337.0,0
205.0,-269.0,-60.0,-905.0,1166.0,-271.0,0
164.0,-233.0,-63.0,-649.0,1351.0,-208.0,0
122.0,-198.0,-67.0,-400.0,1518.0,-128.0,0
76.0,-166.0,-60.0,-156.0,1621.0,-25.0,0
41.0,-138.0,-58.0,87.0,1624.0,94.0,0
11.0,-106.0,-63.0,330.0,1533.0,204.0,0
-8.0,-74.0,-68.0,573.0,1379.0,306.0,0
-22.0,-44.0,-74.0,814.0,1195.0,400.0,0
-28.0,-14.0,-80.0,1041.0,1008.0,490.0,0
-36.0,14.0,-83.0,1219.0,823.0,574.0,0
-32.0,41.0,-91.0,1326.0,644.0,632.0,0
-33.0,64.0,-101.0,1340.0,489.0,670.0,0
-30.0,79.0,-107.0,1241.0,377.0,683.0,0
-32.0,91.0,-123.0,1033.0,304.0,714.0,0
-23.0,96.0,-115.0,743.0,283.0,756.0,0
-13.0,82.0,-108.0,400.0,305.0,777.0,0
-9.0,69.0,-104.0,48.0,359.0,757.0,0
-8.0,49.0,-96.0,-270.0,436.0,698.0,0
-2.0,25.0,-84.0,-523.0,518.0,615.0,0
-12.0,8.0,-76.0,-683.0,570.0,521.0,0
-17.0,-9.0,-67.0,-736.0,578.0,438.0,0
-16.0,-22.0,-57.0,-700.0,542.0,370.0,0
-14.0,-34.0,-46.0,-580.0,492.0,315.0,0
-10.0,-37.0,-28.0,-396.0,417.0,271.0,0
-15.0,-40.0,-20.0,-167.0,337.0,238.0,0
-28.0,-34.0,-8.0,92.0,250.0,203.0,0
-46.0,-33.0,-3.0,348.0,160.0,171.0,0
-61.0,-41.0,-14.0,573.0,68.0,144.0,0
-56.0,-49.0,-69.0,759.0,-2.0,137.0,0
-28.0,-52.0,-151.0,867.0,-23.0,130.0,0
9.0,-66.0,-202.0,889.0,41.0,91.0,0
38.0,-102.0,-218.0,933.0,172.0,15.0,0
70.0,-145.0,-221.0,1041.0,326.0,-96.0,0
88.0,-179.0,-205.0,1074.0,447.0,-262.0,0
66.0,-229.0,-116.0,955.0,402.0,-479.0,0
14.0,-287.0,-25.0,794.0,74.0,-706.0,0
-42.0,-372.0,39.0,712.0,-344.0,-880.0,0
-53.0,-459.0,87.0,707.0,-571.0,-954.0,0
-49.0,-535.0,150.0,668.0,-615.0,-988.0,0
-22.0,-598.0,166.0,571.0,-581.0,-1034.0,0
-2.0,-641.0,96.0,386.0,-504.0,-1125.0,0
0.0,-679.0,-19.0,22.0,-314.0,-1239.0,0
-11.0,-715.0,-123.0,-580.0,1.0,-1197.0,0
-34.0,-765.0,-155.0,-1338.0,293.0,-857.0,0
-61.0,-790.0,-133.0,-1964.0,354.0,-311.0,0
-49.0,-782.0,-84.0,-2080.0,159.0,254.0,0
-21.0,-758.0,-33.0,-1546.0,-125.0,686.0,0
20.0,-714.0,8.0,-551.0,-359.0,923.0,0
49.0,-642.0,40.0,366.0,-490.0,1008.0,0
67.0,-562.0,61.0,1445.0,-523.0,1027.0,0
81.0,-476.0,72.0,2328.0,-507.0,1046.0,0
96.0,-388.0,76.0,2918.0,-445.0,1108.0,0
104.0,-308.0,66.0,3135.0,-362.0,1188.0,0
120.0,-231.0,60.0,2924.0,-272.0,1247.0,0
123.0,-189.0,57.0,2288.0,-190.0,1278.0,0
112.0,-174.0,67.0,1331.0,-146.0,1295.0,0
80.0,-198.0,97.0,247.0,-140.0,1319.0,0
52.0,-280.0,119.0,-750.0,-184.0,1341.0,0
9.0,-347.0,134.0,-1553.0,-275.0,1323.0,0
-30.0,-400.0,150.0,-2108.0,-390.0,1278.0,0
-63.0,-431.0,143.0,-2405.0,-504.0,1244.0,0
-99.0,-443.0,110.0,-2490.0,-586.0,1223.0,0
-126.0,-440.0,66.0,-2451.0,-610.0,1217.0,0
-153.0,-431.0,20.0,-2348.0,-590.0,1221.0,0
-183.0,-409.0,-13.0,-2190.0,-559.0,1213.0,0
-205.0,-388.0,-33.0,-1988.0,-558.0,1172.0,0
-219.0,-368.0,-53.0,-1749.0,-611.0,1094.0,0
-221.0,-350.0,-72.0,-1461.0,-684.0,995.0,0
-210.0,-326.0,-86.0,-1111.0,-731.0,881.0,0
-188.0,-300.0,-92.0,-694.0,-743.0,735.0,0
-149.0,-259.0,-99.0,-225.0,-740.0,545.0,0
-107.0,-214.0,-106.0,258.0,-731.0,325.0,0
-48.0,-150.0,-117.0,682.0,-689.0,107.0,0
2.0,-100.0,-122.0,1009.0,-624.0,-78.0,0
41.0,-50.0,-125.0,1229.0,-545.0,-231.0,0
60.0,-2.0,-124.0,1328.0,-471.0,-360.0,0
69.0,34.0,-120.0,1375.0,-427.0,-478.0,0
59.0,69.0,-106.0,1363.0,-380.0,-557.0,0
58.0,76.0,-102.0,1321.0,-334.0,-615.0,0
44.0,86.0,-94.0,1255.0,-305.0,-646.0,0
37.0,88.0,-84.0,1161.0,-291.0,-642.0,0
34.0,90.0,-72.0,1035.0,-285.0,-603.0,0
40.0,90.0,-56.0,884.0,-292.0,-543.0,0
42.0,93.0,-46.0,719.0,-314.0,-499.0,0
42.0,95.0,-43.0,546.0,-347.0,-473.0,0
37.0,88.0,-35.0,369.0,-387.0,-448.0,0
34.0,78.0,-33.0,204.0,-421.0,-411.0,0
29.0,64.0,-38.0,64.0,-435.0,-362.0,0
34.0,41.0,-44.0,-53.0,-424.0,-327.0,0
33.0,23.0,-48.0,-143.0,-385.0,-309.0,0
31.0,8.0,-57.0,-197.0,-333.0,-294.0,0
31.0,-5.0,-63.0,-211.0,-270.0,-285.0,0
29.0,-17.0,-74.0,-191.0,-205.0,-288.0,0
33.0,-25.0,-81.0,-148.0,-128.0,-300.0,0
38.0,-31.0,-82.0,-102.0,-36.0,-315.0,0
41.0,-27.0,-86.0,-45.0,58.0,-333.0,0
46.0,-19.0,-100.0,16.0,143.0,-340.0,0
39.0,-22.0,-118.0,77.0,188.0,-343.0,0
32.0,-22.0,-149.0,131.0,168.0,-350.0,0
1.0,-30.0,-187.0,149.0,74.0,-346.0,0
-35.0,-35.0,-220.0,122.0,-86.0,-335.0,0
-70.0,-45.0,-239.0,30.0,-250.0,-294.0,0
-87.0,-78.0,-256.0,-136.0,-332.0,-205.0,0
-73.0,-135.0,-268.0,-329.0,-265.0,-59.0,0
-43.0,-219.0,-235.0,-623.0,-129.0,95.0,0
-21.0,-331.0,-140.0,-931.0,44.0,202.0,0
-21.0,-462.0,2.0,-1154.0,138.0,351.0,0
-68.0,-593.0,126.0,-1270.0,106.0,582.0,0
-104.0,-699.0,195.0,-1273.0,-83.0,922.0,0
-87.0,-798.0,203.0,-1172.0,-370.0,1328.0,0
-29.0,-885.0,46.0,-1037.0,-659.0,1633.0,0
18.0,-938.0,-104.0,-1091.0,-912.0,1652.0,0
52.0,-998.0,-193.0,-1411.0,-1138.0,1327.0,0
57.0,-1018.0,-202.0,-1648.0,-1197.0,713.0,0
0.0,-984.0,-160.0,-1409.0,-923.0,-51.0,0
-48.0,-928.0,-102.0,-606.0,-390.0,-717.0,0
-85.0,-824.0,-41.0,490.0,148.0,-1217.0,0
-115.0,-706.0,26.0,1583.0,505.0,-1527.0,0
-127.0,-583.0,82.0,2484.0,628.0,-1684.0,0
-126.0,-459.0,109.0,3067.0,561.0,-1754.0,0
-104.0,-346.0,116.0,3230.0,401.0,-1781.0,0
-78.0,-242.0,112.0,2944.0,249.0,-1797.0,0
-59.0,-151.0,99.0,2255.0,156.0,-1821.0,0
-44.0,-88.0,80.0,1323.0,140.0,-1842.0,0
-35.0,-80.0,38.0,280.0,193.0,-1858.0,0
-21.0,-126.0,18.0,-840.0,286.0,-1803.0,0
6.0,-190.0,11.0,-1890.0,426.0,-1688.0,0
44.0,-268.0,21.0,-2726.0,628.0,-1524.0,0
74.0,-342.0,57.0,-3275.0,880.0,-1329.0,0
104.0,-431.0,93.0,-3476.0,1130.0,-1136.0,0
131.0,-492.0,105.0,-3384.0,1316.0,-930.0,0
156.0,-522.0,100.0,-3180.0,1409.0,-718.0,0
183.0,-526.0,81.0,-2815.0,1438.0,-510.0,0
199.0,-506.0,55.0,-2352.0,1476.0,-378.0,0
201.0,-472.0,31.0,-1835.0,1508.0,-303.0,0
193.0,-425.0,14.0,-1298.0,1529.0,-226.0,0
161.0,-373.0,-11.0,-734.0,1532.0,-181.0,0
123.0,-312.0,-31.0,-153.0,1526.0,-161.0,0
82.0,-243.0,-58.0,394.0,1519.0,-110.0,0
55.0,-189.0,-73.0,862.0,1509.0,-29.0,0
25.0,-132.0,-81.0,1230.0,1471.0,59.0,0
7.0,-84.0,-89.0,1514.0,1400.0,132.0,0
0.0,-24.0,-113.0,1729.0,1284.0,202.0,0
-2.0,15.0,-127.0,1869.0,1129.0,273.0,0
-2.0,59.0,-136.0,1906.0,942.0,363.0,0
2.0,88.0,-142.0,1858.0,752.0,454.0,0
-4.0,118.0,-146.0,1722.0,601.0,537.0,0
0.0,132.0,-142.0,1488.0,499.0,624.0,0
2.0,134.0,-129.0,1184.0,433.0,683.0,0
5.0,127.0,-105.0,821.0,370.0,729.0,0
7.0,110.0,-81.0,450.0,300.0,771.0,0
7.0,79.0,-59.0,144.0,239.0,775.0,0
15.0,54.0,-38.0,-81.0,193.0,728.0,0
20.0,35.0,-24.0,-210.0,169.0,642.0,0
19.0,20.0,-19.0,-245.0,176.0,543.0,0
15.0,11.0,-21.0,-207.0,210.0,454.0,0
13.0,14.0,-30.0,-152.0,255.0,373.0,0
5.0,22.0,-38.0,-112.0,307.0,303.0,0
3.0,30.0,-41.0,-97.0,370.0,259.0,0
1.0,32.0,-51.0,-97.0,441.0,249.0,0
-9.0,23.0,-60.0,-108.0,502.0,266.0,0
-21.0,23.0,-69.0,-128.0,574.0,284.0,0
-38.0,11.0,-73.0,-157.0,622.0,299.0,0
-60.0,4.0,-61.0,-198.0,615.0,295.0,0
-85.0,-6.0,-71.0,-246.0,551.0,288.0,0
-90.0,-15.0,-109.0,-281.0,436.0,286.0,0
-67.0,-25.0,-157.0,-298.0,332.0,288.0,0
-26.0,-53.0,-215.0,-296.0,277.0,267.0,0
17.0,-76.0,-259.0,-242.0,279.0,223.0,0
66.0,-108.0,-328.0,-208.0,336.0,128.0,0
96.0,-158.0,-343.0,-361.0,479.0,-83.0,0
71.0,-231.0,-243.0,-594.0,593.0,-378.0,0
22.0,-317.0,-114.0,-668.0,441.0,-641.0,0
-14.0,-428.0,-12.0,-525.0,81.0,-806.0,0
-5.0,-553.0,84.0,-270.0,-193.0,-885.0,0
18.0,-652.0,197.0,-8.0,-312.0,-972.0,0
50.0,-736.0,274.0,244.0,-354.0,-1103.0,0
46.0,-787.0,222.0,483.0,-369.0,-1254.0,0
-5.0,-808.0,-9.0,504.0,-264.0,-1342.0,0
-81.0,-835.0,-224.0,-18.0,48.0,-1191.0,0
-136.0,-877.0,-306.0,-1026.0,381.0,-720.0,0
-153.0,-907.0,-244.0,-1975.0,425.0,-24.0,0
-123.0,-905.0,-119.0,-2189.0,161.0,625.0,0
-73.0,-877.0,-16.0,-1488.0,-181.0,1005.0,0
-16.0,-811.0,48.0,-274.0,-415.0,1149.0,0
26.0,-723.0,92.0,1009.0,-526.0,1165.0,0
55.0,-623.0,120.0,2059.0,-514.0,1150.0,0
77.0,-496.0,138.0,2627.0,-430.0,1153.0,0
97.0,-389.0,145.0,2954.0,-370.0,1175.0,0
118.0,-286.0,139.0,2888.0,-353.0,1203.0,0
130.0,-211.0,116.0,2477.0,-394.0,1237.0,0
131.0,-167.0,88.0,1723.0,-428.0,1272.0,0
120.0,-159.0,74.0,700.0,-436.0,1292.0,0
87.0,-198.0,91.0,-414.0,-441.0,1299.0,0
44.0,-260.0,102.0,-1400.0,-476.0,1289.0,0
-1.0,-329.0,123.0,-2178.0,-540.0,1259.0,0
-56.0,-381.0,123.0,-2710.0,-622.0,1202.0,0
-103.0,-412.0,104.0,-2996.0,-695.0,1153.0,0
-146.0,-442.0,78.0,-3100.0,-767.0,1123.0,0
-188.0,-455.0,61.0,-3044.0,-851.0,1101.0,0
-219.0,-468.0,45.0,-2801.0,-936.0,1068.0,0
-237.0,-468.0,22.0,-2370.0,-1017.0,1018.0,0
-250.0,-451.0,-5.0,-1807.0,-1103.0,949.0,0
-259.0,-424.0,-45.0,-1192.0,-1189.0,866.0,0
-255.0,-383.0,-71.0,-559.0,-1246.0,759.0,0
-240.0,-327.0,-88.0,83.0,-1289.0,619.0,0
-182.0,-232.0,-126.0,701.0,-1337.0,461.0,0
-127.0,-150.0,-151.0,1253.0,-1380.0,299.0,0
-64.0,-66.0,-171.0,1665.0,-1388.0,109.0,0
2.0,8.0,-188.0,1894.0,-1355.0,-112.0,0
42.0,80.0,-200.0,1940.0,-1249.0,-344.0,0
63.0,141.0,-199.0,1834.0,-1080.0,-552.0,0
78.0,186.0,-200.0,1611.0,-898.0,-708.0,0
83.0,210.0,-197.0,1313.0,-745.0,-822.0,0
90.0,206.0,-183.0,962.0,-628.0,-925.0,0
90.0,194.0,-153.0,679.0,-533.0,-1018.0,0
67.0,171.0,-144.0,387.0,-472.0,-1068.0,0
57.0,130.0,-109.0,136.0,-412.0,-1027.0,0
56.0,77.0,-80.0,-120.0,-349.0,-950.0,0
61.0,36.0,-46.0,-355.0,-303.0,-846.0,0
64.0,4.0,-12.0,-507.0,-302.0,-743.0,0
58.0,-17.0,5.0,-528.0,-331.0,-656.0,0
51.0,-31.0,11.0,-445.0,-363.0,-582.0,0
48.0,-38.0,3.0,-315.0,-392.0,-513.0,0
43.0,-39.0,-20.0,-185.0,-412.0,-455.0,0
40.0,-34.0,-48.0,-102.0,-415.0,-411.0,0
34.0,-29.0,-71.0,-78.0,-397.0,-381.0,0
27.0,-19.0,-94.0,-106.0,-358.0,-360.0,0
27.0,-7.0,-114.0,-175.0,-309.0,-347.0,0
25.0,7.0,-130.0,-269.0,-267.0,-338.0,0
36.0,10.0,-138.0,-369.0,-227.0,-331.0,0
42.0,11.0,-144.0,-452.0,-190.0,-326.0,0
55.0,3.0,-142.0,-495.0,-143.0,-319.0,0
70.0,-1.0,-136.0,-473.0,-69.0,-309.0,0
86.0,-13.0,-129.0,-387.0,43.0,-283.0,0
88.0,-16.0,-136.0,-262.0,197.0,-246.0,0
80.0,-22.0,-170.0,-128.0,349.0,-206.0,0
61.0,-30.0,-210.0,-24.0,405.0,-184.0,0
26.0,-42.0,-243.0,43.0,346.0,-179.0,0
-11.0,-53.0,-260.0,23.0,283.0,-124.0,0
-6.0,-79.0,-289.0,-145.0,292.0,25.0,0
26.0,-150.0,-297.0,-382.0,304.0,193.0,0
74.0,-272.0,-196.0,-495.0,363.0,313.0,0
60.0,-397.0,-1.0,-388.0,454.0,421.0,0
-35.0,-524.0,192.0,-95.0,389.0,533.0,0
-123.0,-581.0,239.0,204.0,19.0,653.0,0
-172.0,-620.0,157.0,465.0,-527.0,896.0,0
-154.0,-649.0,28.0,550.0,-858.0,1258.0,0
-125.0,-686.0,-101.0,314.0,-893.0,1591.0,0
-117.0,-767.0,-206.0,-286.0,-915.0,1727.0,0
-132.0,-883.0,-245.0,-1123.0,-1021.0,1559.0,0
-165.0,-1006.0,-215.0,-1950.0,-989.0,1065.0,0
-204.0,-1070.0,-122.0,-2382.0,-713.0,350.0,0
-222.0,-1069.0,-52.0,-2075.0,-331.0,-418.0,0
-210.0,-1012.0,-15.0,-1109.0,-21.0,-1088.0,0
-190.0,-921.0,19.0,124.0,169.0,-1554.0,0
-158.0,-816.0,46.0,1284.0,244.0,-1808.0,0
-114.0,-714.0,75.0,2204.0,229.0,-1953.0,0
-70.0,-601.0,84.0,2827.0,150.0,-2057.0,0
-42.0,-483.0,84.0,3103.0,47.0,-2130.0,0
-25.0,-359.0,86.0,2996.0,-31.0,-2138.0,0
-12.0,-251.0,75.0,2546.0,-58.0,-2074.0,0
19.0,-165.0,48.0,1823.0,-31.0,-1966.0,0
58.0,-151.0,31.0,910.0,68.0,-1839.0,0
92.0,-195.0,24.0,-75.0,256.0,-1704.0,0
132.0,-263.0,35.0,-981.0,511.0,-1528.0,0
163.0,-320.0,54.0,-1705.0,781.0,-1331.0,0
188.0,-370.0,82.0,-2178.0,1050.0,-1135.0,0
196.0,-403.0,106.0,-2377.0,1285.0,-942.0,0
191.0,-407.0,95.0,-2367.0,1424.0,-745.0,0
200.0,-409.0,78.0,-2189.0,1467.0,-538.0,0
190.0,-384.0,44.0,-1887.0,1467.0,-381.0,0
172.0,-351.0,8.0,-1507.0,1457.0,-305.0,0
141.0,-309.0,-15.0,-1115.0,1462.0,-236.0,0
98.0,-256.0,-40.0,-747.0,1498.0,-160.0,0
45.0,-208.0,-63.0,-419.0,1567.0,-61.0,0
4.0,-161.0,-75.0,-141.0,1640.0,71.0,0
-37.0,-114.0,-74.0,99.0,1682.0,223.0,0
-67.0,-69.0,-72.0,355.0,1669.0,377.0,0
-80.0,-44.0,-61.0,642.0,1566.0,524.0,0
-78.0,-10.0,-57.0,947.0,1366.0,653.0,0
-67.0,22.0,-57.0,1252.0,1103.0,765.0,0
-55.0,46.0,-68.0,1525.0,828.0,854.0,0
-39.0,72.0,-78.0,1735.0,582.0,895.0,0
-24.0,94.0,-102.0,1839.0,401.0,879.0,0
2.0,103.0,-118.0,1767.0,271.0,847.0,0
26.0,107.0,-122.0,1473.0,161.0,880.0,0
46.0,91.0,-120.0,1034.0,94.0,924.0,0
52.0,67.0,-101.0,555.0,86.0,913.0,0
48.0,40.0,-93.0,128.0,118.0,833.0,0
43.0,9.0,-82.0,-180.0,163.0,726.0,0
37.0,-14.0,-60.0,-339.0,195.0,620.0,0
31.0,-28.0,-59.0,-362.0,208.0,518.0,0
32.0,-30.0,-57.0,-288.0,209.0,424.0,0
27.0,-26.0,-55.0,-166.0,223.0,341.0,0
20.0,-18.0,-56.0,-24.0,256.0,287.0,0
18.0,-11.0,-53.0,89.0,314.0,268.0,0
11.0,-4.0,-52.0,214.0,372.0,272.0,0
4.0,-1.0,-53.0,307.0,448.0,285.0,0
-7.0,-1.0,-48.0,367.0,514.0,291.0,0
-21.0,-4.0,-49.0,394.0,552.0,296.0,0
-38.0,-7.0,-32.0,403.0,549.0,295.0,0
-58.0,-16.0,-36.0,411.0,495.0,278.0,0
-86.0,-27.0,-30.0,420.0,389.0,247.0,0
-109.0,-36.0,-20.0,430.0,228.0,195.0,0
-116.0,-43.0,-9.0,457.0,29.0,148.0,0
-109.0,-52.0,-37.0,518.0,-172.0,128.0,0
-76.0,-50.0,-130.0,602.0,-320.0,120.0,0
-38.0,-67.0,-190.0,681.0,-318.0,116.0,0
26.0,-109.0,-286.0,815.0,-127.0,107.0,0
105.0,-153.0,-308.0,1002.0,250.0,56.0,0
169.0,-186.0,-358.0,1023.0,650.0,-104.0,0
178.0,-208.0,-341.0,656.0,823.0,-415.0,0
145.0,-288.0,-159.0,79.0,593.0,-725.0,0
115.0,-415.0,-16.0,-314.0,116.0,-893.0,0
125.0,-551.0,121.0,-547.0,-261.0,-900.0,0
175.0,-677.0,221.0,-787.0,-487.0,-848.0,0
213.0,-789.0,252.0,-1093.0,-619.0,-867.0,0
190.0,-853.0,68.0,-1453.0,-616.0,-903.0,0
92.0,-899.0,-135.0,-2026.0,-273.0,-755.0,0
-69.0,-987.0,-263.0,-2818.0,356.0,-311.0,0
-231.0,-1084.0,-262.0,-3421.0,817.0,423.0,0
-240.0,-1090.0,-165.0,-3253.0,728.0,1209.0,0
-234.0,-1030.0,-86.0,-2037.0,222.0,1425.0,0
-194.0,-944.0,-50.0,-158.0,-313.0,1333.0,0
-130.0,-825.0,3.0,1374.0,-546.0,1233.0,0
-77.0,-689.0,60.0,2944.0,-476.0,1108.0,0
-38.0,-548.0,104.0,3984.0,-365.0,982.0,0
-6.0,-393.0,128.0,4457.0,-281.0,896.0,0
29.0,-239.0,144.0,4396.0,-303.0,820.0,0
49.0,-97.0,132.0,3918.0,-392.0,805.0,0
64.0,-2.0,70.0,3028.0,-456.0,864.0,0
75.0,-21.0,76.0,1689.0,-470.0,945.0,0
63.0,-41.0,55.0,211.0,-456.0,973.0,0
46.0,-103.0,31.0,-1127.0,-380.0,985.0,0
25.0,-203.0,30.0,-2258.0,-294.0,964.0,0
5.0,-290.0,52.0,-3104.0,-283.0,858.0,0
-35.0,-385.0,92.0,-3522.0,-345.0,729.0,0
-66.0,-439.0,100.0,-3505.0,-432.0,630.0,0
-83.0,-470.0,84.0,-3153.0,-490.0,600.0,0
-86.0,-479.0,55.0,-2579.0,-487.0,621.0,0
-77.0,-450.0,25.0,-1865.0,-439.0,646.0,0
-71.0,-395.0,-8.0,-1114.0,-361.0,646.0,0
-62.0,-336.0,-41.0,-409.0,-276.0,638.0,0
-52.0,-269.0,-59.0,200.0,-205.0,616.0,0
-37.0,-206.0,-62.0,681.0,-175.0,573.0,0
-19.0,-153.0,-68.0,1044.0,-203.0,511.0,0
-6.0,-101.0,-70.0,1292.0,-263.0,441.0,0
15.0,-61.0,-79.0,1450.0,-330.0,363.0,0
35.0,-21.0,-83.0,1563.0,-408.0,265.0,0
57.0,15.0,-104.0,1666.0,-510.0,109.0,0
62.0,54.0,-125.0,1681.0,-589.0,-89.0,0
65.0,76.0,-143.0,1575.0,-630.0,-263.0,0
59.0,94.0,-150.0,1352.0,-631.0,-396.0,0
63.0,85.0,-156.0,1125.0,-591.0,-498.0,0
51.0,87.0,-120.0,798.0,-533.0,-626.0,0
21.0,90.0,-100.0,524.0,-436.0,-690.0,0
-8.0,74.0,-77.0,337.0,-314.0,-670.0,0
-17.0,62.0,-64.0,213.0,-185.0,-597.0,0
-22.0,49.0,-47.0,130.0,-77.0,-538.0,0
-41.0,41.0,-38.0,90.0,17.0,-489.0,0
-49.0,30.0,-38.0,82.0,104.0,-429.0,0
-42.0,21.0,-43.0,80.0,170.0,-364.0,0
-35.0,16.0,-52.0,70.0,207.0,-325.0,0
-25.0,15.0,-56.0,34.0,222.0,-318.0,0
-14.0,8.0,-66.0,-29.0,209.0,-328.0,0
1.0,4.0,-63.0,-125.0,166.0,-346.0,0
5.0,-5.0,-74.0,-242.0,94.0,-366.0,0
18.0,-16.0,-79.0,-351.0,15.0,-382.0,0
29.0,-31.0,-83.0,-424.0,-43.0,-390.0,0
39.0,-44.0,-87.0,-435.0,-64.0,-397.0,0
50.0,-57.0,-83.0,-379.0,-47.0,-399.0,0
58.0,-66.0,-84.0,-252.0,4.0,-404.0,0
57.0,-71.0,-82.0,-71.0,85.0,-397.0,0
54.0,-77.0,-74.0,124.0,187.0,-372.0,0
50.0,-78.0,-72.0,315.0,294.0,-349.0,0
41.0,-73.0,-103.0,503.0,383.0,-334.0,0
26.0,-70.0,-164.0,635.0,380.0,-342.0,0
-1.0,-71.0,-186.0,675.0,250.0,-373.0,0
-51.0,-79.0,-211.0,616.0,68.0,-379.0,0
-70.0,-89.0,-291.0,364.0,-111.0,-266.0,0
-65.0,-117.0,-419.0,-236.0,-335.0,-60.0,0
-23.0,-230.0,-359.0,-913.0,-490.0,118.0,0
7.0,-401.0,-94.0,-1552.0,-448.0,250.0,0
-19.0,-561.0,127.0,-1636.0,-195.0,415.0,0
-76.0,-683.0,253.0,-1392.0,55.0,723.0,0
-127.0,-754.0,242.0,-1032.0,87.0,1043.0,0
-171.0,-785.0,144.0,-693.0,17.0,1313.0,0
-168.0,-821.0,-9.0,-574.0,-112.0,1527.0,0
-130.0,-873.0,-135.0,-856.0,-451.0,1648.0,0
-52.0,-959.0,-210.0,-1366.0,-911.0,1582.0,0
49.0,-1019.0,-229.0,-1699.0,-1198.0,1231.0,0
78.0,-1012.0,-199.0,-1585.0,-1056.0,555.0,0
27.0,-946.0,-129.0,-933.0,-499.0,-251.0,0
-27.0,-860.0,-47.0,34.0,182.0,-847.0,0
-62.0,-730.0,65.0,1006.0,665.0,-1203.0,0
-66.0,-624.0,120.0,1815.0,883.0,-1395.0,0
-59.0,-513.0,137.0,2375.0,914.0,-1503.0,0
-52.0,-417.0,126.0,2625.0,830.0,-1599.0,0
-37.0,-314.0,102.0,2511.0,680.0,-1726.0,0
-33.0,-217.0,96.0,2045.0,518.0,-1871.0,0
-45.0,-142.0,74.0,1302.0,408.0,-1975.0,0
-49.0,-112.0,53.0,389.0,391.0,-1970.0,0
-24.0,-151.0,42.0,-563.0,492.0,-1851.0,0
3.0,-223.0,40.0,-1437.0,681.0,-1695.0,0
39.0,-307.0,53.0,-2141.0,879.0,-1522.0,0
71.0,-382.0,71.0,-2589.0,1052.0,-1328.0,0
98.0,-448.0,90.0,-2743.0,1208.0,-1135.0,0
108.0,-480.0,90.0,-2653.0,1338.0,-965.0,0
112.0,-492.0,91.0,-2416.0,1444.0,-803.0,0
111.0,-471.0,81.0,-2165.0,1515.0,-658.0,0
113.0,-431.0,63.0,-1825.0,1551.0,-513.0,0
105.0,-381.0,42.0,-1488.0,1581.0,-402.0,0
89.0,-326.0,29.0,-1165.0,1610.0,-293.0,0
57.0,-251.0,9.0,-866.0,1626.0,-198.0,0
23.0,-194.0,-7.0,-599.0,1610.0,-88.0,0
-4.0,-142.0,-19.0,-361.0,1567.0,51.0,0
-22.0,-100.0,-32.0,-155.0,1487.0,219.0,0
-21.0,-61.0,-36.0,32.0,1366.0,388.0,0
-10.0,-31.0,-37.0,240.0,1202.0,518.0,0
-7.0,-2.0,-50.0,494.0,1007.0,586.0,0
11.0,27.0,-67.0,758.0,806.0,634.0,0
25.0,53.0,-83.0,996.0,613.0,672.0,0
45.0,75.0,-98.0,1177.0,445.0,705.0,0
58.0,102.0,-100.0,1298.0,310.0,727.0,0
63.0,109.0,-100.0,1363.0,217.0,724.0,0
63.0,107.0,-100.0,1331.0,129.0,735.0,0
63.0,98.0,-87.0,1192.0,54.0,775.0,0
57.0,78.0,-73.0,1013.0,-2.0,781.0,0
60.0,51.0,-73.0,816.0,-49.0,732.0,0
63.0,29.0,-74.0,599.0,-83.0,660.0,0
62.0,9.0,-76.0,377.0,-74.0,583.0,0
54.0,0.0,-71.0,219.0,-10.0,513.0,0
46.0,-11.0,-74.0,128.0,107.0,459.0,0
40.0,-13.0,-81.0,70.0,268.0,434.0,0
34.0,-13.0,-83.0,43.0,464.0,446.0,0
27.0,-8.0,-77.0,57.0,681.0,487.0,0
14.0,-3.0,-72.0,94.0,889.0,535.0,0
1.0,3.0,-67.0,144.0,1027.0,589.0,0
-9.0,8.0,-61.0,173.0,1147.0,632.0,0
-24.0,8.0,-54.0,161.0,1191.0,677.0,0
-32.0,3.0,-57.0,114.0,1162.0,704.0,0
-46.0,7.0,-47.0,38.0,1063.0,710.0,0
-49.0,-8.0,-41.0,-40.0,908.0,692.0,0
-53.0,-16.0,-46.0,-101.0,715.0,643.0,0
-55.0,-28.0,-85.0,-148.0,504.0,564.0,0
-25.0,-41.0,-167.0,-201.0,311.0,466.0,0
38.0,-70.0,-250.0,-280.0,203.0,340.0,0
116.0,-122.0,-334.0,-319.0,242.0,181.0,0
192.0,-170.0,-438.0,-308.0,508.0,-12.0,0
237.0,-210.0,-523.0,-495.0,902.0,-292.0,0
198.0,-294.0,-426.0,-1019.0,1065.0,-700.0,0
53.0,-461.0,-113.0,-1512.0,662.0,-1170.0,0
-4.0,-627.0,50.0,-1519.0,-37.0,-1497.0,0
0.0,-752.0,198.0,-1164.0,-579.0,-1653.0,0
14.0,-836.0,331.0,-671.0,-871.0,-1758.0,0
19.0,-900.0,337.0,-6.0,-954.0,-1900.0,0
-15.0,-929.0,153.0,773.0,-729.0,-2055.0,0
-90.0,-913.0,-154.0,1162.0,-122.0,-2093.0,0
-209.0,-870.0,-382.0,679.0,697.0,-1854.0,0
-326.0,-827.0,-465.0,-416.0,1345.0,-1210.0,0
-384.0,-802.0,-363.0,-1473.0,1402.0,-218.0,0
-305.0,-791.0,-208.0,-1772.0,770.0,707.0,0
-204.0,-767.0,-88.0,-1208.0,-191.0,1153.0,0
-89.0,-724.0,27.0,-157.0,-999.0,1234.0,0
7.0,-639.0,93.0,1068.0,-1477.0,1118.0,0
70.0,-524.0,117.0,1957.0,-1650.0,899.0,0
126.0,-408.0,119.0,2755.0,-1595.0,716.0,0
190.0,-287.0,110.0,3105.0,-1333.0,673.0,0
251.0,-185.0,87.0,3028.0,-1017.0,707.0,0
284.0,-127.0,53.0,2583.0,-756.0,763.0,0
296.0,-108.0,27.0,1824.0,-575.0,789.0,0
294.0,-125.0,17.0,862.0,-467.0,799.0,0
275.0,-175.0,37.0,-143.0,-421.0,831.0,0
249.0,-239.0,60.0,-1027.0,-400.0,891.0,0
203.0,-304.0,88.0,-1676.0,-385.0,944.0,0
150.0,-363.0,100.0,-2078.0,-378.0,1000.0,0
92.0,-415.0,104.0,-2284.0,-367.0,1101.0,0
42.0,-451.0,95.0,-2358.0,-347.0,1239.0,0
-4.0,-474.0,69.0,-2331.0,-327.0,1381.0,0
-48.0,-474.0,40.0,-2230.0,-306.0,1493.0,0
-85.0,-458.0,11.0,-2084.0,-281.0,1553.0,0
-108.0,-440.0,-27.0,-1909.0,-250.0,1558.0,0
-124.0,-428.0,-50.0,-1724.0,-209.0,1497.0,0
-139.0,-404.0,-64.0,-1514.0,-164.0,1361.0,0
-161.0,-382.0,-60.0,-1251.0,-132.0,1198.0,0
-170.0,-358.0,-48.0,-909.0,-130.0,1057.0,0
-147.0,-312.0,-31.0,-458.0,-168.0,935.0,0
-116.0,-249.0,-35.0,129.0,-270.0,795.0,0
-73.0,-182.0,-50.0,767.0,-383.0,657.0,0
-37.0,-104.0,-52.0,1341.0,-443.0,478.0,0
-1.0,4.0,-71.0,1823.0,-467.0,270.0,0
14.0,82.0,-84.0,2157.0,-447.0,72.0,0
15.0,157.0,-98.0,2335.0,-388.0,-120.0,0
4.0,222.0,-117.0,2355.0,-314.0,-275.0,0
4.0,262.0,-134.0,2217.0,-248.0,-374.0,0
2.0,282.0,-147.0,1905.0,-154.0,-445.0,0
1.0,279.0,-161.0,1455.0,-50.0,-532.0,0
-19.0,287.0,-151.0,897.0,43.0,-614.0,0
-18.0,267.0,-124.0,320.0,101.0,-609.0,0
7.0,198.0,-91.0,-225.0,121.0,-523.0,0
28.0,112.0,-41.0,-698.0,109.0,-464.0,0
35.0,41.0,-13.0,-973.0,99.0,-441.0,0
37.0,-14.0,-8.0,-1035.0,101.0,-422.0,0
35.0,-58.0,2.0,-963.0,103.0,-397.0,0
26.0,-95.0,0.0,-767.0,85.0,-377.0,0
20.0,-112.0,-9.0,-500.0,48.0,-364.0,0
13.0,-113.0,-27.0,-213.0,8.0,-362.0,0
12.0,-112.0,-53.0,59.0,-28.0,-364.0,0
8.0,-101.0,-76.0,288.0,-50.0,-371.0,0
10.0,-80.0,-97.0,458.0,-66.0,-373.0,0
14.0,-67.0,-109.0,565.0,-75.0,-373.0,0
21.0,-58.0,-122.0,611.0,-77.0,-369.0,0
19.0,-42.0,-128.0,600.0,-62.0,-365.0,0
18.0,-37.0,-125.0,547.0,-21.0,-355.0,0
18.0,-29.0,-110.0,479.0,42.0,-344.0,0
24.0,-27.0,-94.0,428.0,126.0,-340.0,0
34.0,-37.0,-86.0,388.0,228.0,-325.0,0
49.0,-40.0,-81.0,342.0,336.0,-296.0,0
52.0,-35.0,-114.0,295.0,436.0,-274.0,0
58.0,-52.0,-163.0,200.0,491.0,-258.0,0
63.0,-64.0,-200.0,121.0,529.0,-260.0,0
62.0,-81.0,-279.0,-17.0,593.0,-233.0,0
61.0,-108.0,-395.0,-366.0,558.0,-150.0,0
80.0,-173.0,-443.0,-1009.0,207.0,-84.0,0
148.0,-335.0,-332.0,-1627.0,-259.0,2.0,0
156.0,-538.0,-84.0,-1771.0,-354.0,193.0,0
77.0,-704.0,180.0,-1459.0,59.0,457.0,0
-48.0,-782.0,290.0,-961.0,455.0,701.0,0
-110.0,-793.0,170.0,-573.0,509.0,953.0,0
-124.0,-807.0,-12.0,-429.0,502.0,1252.0,0
-96.0,-852.0,-149.0,-520.0,517.0,1498.0,0
-50.0,-906.0,-214.0,-751.0,416.0,1497.0,0
-1.0,-939.0,-218.0,-943.0,204.0,1214.0,0
13.0,-910.0,-176.0,-883.0,-3.0,677.0,0
21.0,-857.0,-113.0,-464.0,30.0,73.0,0
33.0,-796.0,-42.0,232.0,370.0,-400.0,0
34.0,-713.0,24.0,995.0,779.0,-740.0,0
31.0,-624.0,70.0,1666.0,1036.0,-984.0,0
30.0,-540.0,102.0,2162.0,1164.0,-1143.0,0
18.0,-447.0,108.0,2429.0,1198.0,-1295.0,0
0.0,-364.0,106.0,2422.0,1117.0,-1463.0,0
-24.0,-265.0,85.0,2132.0,934.0,-1631.0,0
-61.0,-194.0,54.0,1565.0,759.0,-1765.0,0
-94.0,-173.0,39.0,781.0,682.0,-1799.0,0
-102.0,-172.0,31.0,-62.0,675.0,-1742.0,0
-103.0,-192.0,30.0,-809.0,695.0,-1683.0,0
-85.0,-260.0,17.0,-1423.0,749.0,-1614.0,0
-40.0,-326.0,32.0,-1872.0,810.0,-1485.0,0
4.0,-385.0,38.0,-2130.0,869.0,-1345.0,0
47.0,-429.0,48.0,-2214.0,940.0,-1203.0,0
80.0,-460.0,66.0,-2181.0,1020.0,-1068.0,0
104.0,-461.0,67.0,-2010.0,1060.0,-955.0,0
116.0,-445.0,52.0,-1753.0,1055.0,-872.0,0
121.0,-425.0,38.0,-1489.0,1016.0,-759.0,0
111.0,-393.0,23.0,-1240.0,978.0,-631.0,0
96.0,-348.0,13.0,-999.0,952.0,-487.0,0
73.0,-308.0,0.0,-755.0,935.0,-327.0,0
50.0,-255.0,-10.0,-484.0,925.0,-165.0,0
23.0,-209.0,-19.0,-176.0,921.0,-22.0,0
-8.0,-157.0,-23.0,157.0,923.0,100.0,0
-30.0,-110.0,-32.0,498.0,919.0,199.0,0
-34.0,-63.0,-40.0,825.0,883.0,269.0,0
-28.0,-14.0,-49.0,1128.0,798.0,311.0,0
-22.0,25.0,-56.0,1385.0,673.0,348.0,0
-3.0,53.0,-76.0,1562.0,521.0,387.0,0
22.0,79.0,-90.0,1634.0,358.0,425.0,0
34.0,93.0,-96.0,1606.0,203.0,471.0,0
53.0,105.0,-102.0,1513.0,87.0,514.0,0
56.0,93.0,-109.0,1346.0,26.0,537.0,0
49.0,84.0,-89.0,1105.0,15.0,534.0,0
37.0,56.0,-74.0,826.0,41.0,502.0,0
28.0,30.0,-63.0,556.0,97.0,454.0,0
20.0,8.0,-63.0,331.0,170.0,400.0,0
21.0,-11.0,-53.0,150.0,255.0,336.0,0
20.0,-25.0,-53.0,49.0,352.0,250.0,0
24.0,-35.0,-51.0,25.0,457.0,160.0,0
23.0,-36.0,-47.0,78.0,554.0,83.0,0
31.0,-35.0,-43.0,197.0,626.0,27.0,0
39.0,-31.0,-53.0,352.0,662.0,-9.0,0
45.0,-20.0,-68.0,480.0,664.0,-33.0,0
45.0,-4.0,-79.0,622.0,647.0,-50.0,0
38.0,9.0,-94.0,713.0,616.0,-61.0,0
30.0,18.0,-109.0,738.0,582.0,-70.0,0
21.0,17.0,-121.0,692.0,552.0,-78.0,0
32.0,9.0,-184.0,577.0,528.0,-99.0,0
64.0,-12.0,-242.0,391.0,549.0,-138.0,0
107.0,-64.0,-313.0,164.0,654.0,-198.0,0
141.0,-118.0,-398.0,-73.0,852.0,-292.0,0
166.0,-160.0,-488.0,-395.0,1080.0,-456.0,0
152.0,-222.0,-522.0,-948.0,1170.0,-683.0,0
74.0,-331.0,-354.0,-1617.0,970.0,-931.0,0
-68.0,-504.0,-67.0,-1987.0,553.0,-1182.0,0
-156.0,-659.0,181.0,-1804.0,121.0,-1388.0,0
-147.0,-773.0,381.0,-1225.0,-302.0,-1450.0,0
-72.0,-808.0,412.0,-376.0,-598.0,-1420.0,0
-9.0,-785.0,329.0,553.0,-529.0,-1385.0,0
30.0,-742.0,165.0,1327.0,-110.0,-1401.0,0
-4.0,-704.0,-21.0,1619.0,391.0,-1436.0,0
-77.0,-683.0,-176.0,1210.0,703.0,-1292.0,0
-156.0,-678.0,-265.0,264.0,676.0,-825.0,0
-181.0,-683.0,-267.0,-787.0,343.0,-109.0,0
-129.0,-681.0,-233.0,-1360.0,-177.0,581.0,0
-108.0,-650.0,-162.0,-1153.0,-688.0,935.0,0
-99.0,-604.0,-35.0,-353.0,-1097.0,962.0,0
-66.0,-552.0,56.0,765.0,-1445.0,884.0,0
-32.0,-487.0,93.0,1865.0,-1631.0,787.0,0
3.0,-409.0,106.0,2669.0,-1620.0,741.0,0
56.0,-341.0,103.0,2989.0,-1459.0,789.0,0
93.0,-282.0,84.0,2952.0,-1303.0,861.0,0
124.0,-243.0,65.0,2468.0,-1143.0,884.0,0
132.0,-224.0,68.0,1663.0,-1054.0,842.0,0
143.0,-232.0,67.0,732.0,-1050.0,764.0,0
142.0,-264.0,69.0,-157.0,-1104.0,713.0,0
144.0,-314.0,62.0,-896.0,-1154.0,714.0,0
133.0,-362.0,65.0,-1441.0,-1170.0,742.0,0
110.0,-410.0,69.0,-1778.0,-1165.0,781.0,0
78.0,-446.0,63.0,-1929.0,-1159.0,823.0,0
50.0,-474.0,46.0,-1956.0,-1152.0,866.0,0
22.0,-491.0,27.0,-1891.0,-1124.0,906.0,0
-5.0,-491.0,3.0,-1749.0,-1055.0,945.0,0
-38.0,-470.0,-29.0,-1572.0,-964.0,969.0,0
-63.0,-443.0,-44.0,-1383.0,-889.0,982.0,0
-85.0,-407.0,-43.0,-1180.0,-865.0,976.0,0
-88.0,-385.0,-32.0,-940.0,-884.0,961.0,0
-83.0,-362.0,-19.0,-644.0,-918.0,911.0,0
-90.0,-329.0,-13.0,-301.0,-950.0,828.0,0
-71.0,-289.0,-8.0,63.0,-969.0,753.0,0
-54.0,-241.0,-17.0,436.0,-972.0,678.0,0
-30.0,-179.0,-26.0,818.0,-949.0,593.0,0
9.0,-115.0,-40.0,1190.0,-901.0,501.0,0
35.0,-57.0,-48.0,1507.0,-832.0,391.0,0
56.0,7.0,-48.0,1755.0,-735.0,279.0,0
66.0,62.0,-60.0,1932.0,-628.0,169.0,0
59.0,121.0,-68.0,2030.0,-515.0,59.0,0
57.0,161.0,-82.0,2033.0,-425.0,-24.0,0
47.0,194.0,-93.0,1962.0,-357.0,-103.0,0
40.0,205.0,-117.0,1800.0,-296.0,-185.0,0
29.0,225.0,-129.0,1543.0,-241.0,-271.0,0
21.0,223.0,-140.0,1202.0,-173.0,-324.0,0
23.0,213.0,-133.0,777.0,-118.0,-370.0,0
24.0,202.0,-103.0,311.0,-96.0,-412.0,0
16.0,153.0,-75.0,-123.0,-90.0,-425.0,0
13.0,97.0,-53.0,-520.0,-85.0,-403.0,0
8.0,43.0,-39.0,-864.0,-70.0,-410.0,0
-1.0,-13.0,-11.0,-1095.0,-42.0,-431.0,0
-9.0,-65.0,8.0,-1141.0,-13.0,-441.0,0
-17.0,-105.0,-4.0,-987.0,-10.0,-450.0,0
-19.0,-126.0,-14.0,-738.0,-36.0,-465.0,0
-25.0,-137.0,-20.0,-444.0,-84.0,-494.0,0
-27.0,-137.0,-41.0,-127.0,-149.0,-523.0,0
-23.0,-125.0,-69.0,169.0,-231.0,-541.0,0
-18.0,-114.0,-85.0,417.0,-317.0,-541.0,0
-12.0,-97.0,-101.0,614.0,-380.0,-529.0,0
6.0,-77.0,-116.0,757.0,-404.0,-506.0,0
11.0,-60.0,-128.0,833.0,-380.0,-483.0,0
15.0,-43.0,-130.0,839.0,-300.0,-459.0,0
22.0,-35.0,-126.0,787.0,-172.0,-425.0,0
28.0,-17.0,-107.0,695.0,-28.0,-377.0,0
38.0,-18.0,-94.0,583.0,123.0,-330.0,0
47.0,-17.0,-77.0,463.0,266.0,-293.0,0
49.0,-31.0,-85.0,357.0,394.0,-248.0,0
42.0,-43.0,-141.0,249.0,446.0,-221.0,0
18.0,-53.0,-179.0,124.0,367.0,-222.0,0
-12.0,-83.0,-196.0,-26.0,187.0,-220.0,0
-46.0,-112.0,-231.0,-277.0,-92.0,-136.0,0
-54.0,-152.0,-371.0,-677.0,-614.0,46.0,0
19.0,-295.0,-332.0,-1466.0,-1005.0,299.0,0
63.0,-508.0,-85.0,-2078.0,-971.0,635.0,0
41.0,-697.0,136.0,-2132.0,-430.0,938.0,0
-13.0,-817.0,282.0,-1922.0,81.0,1249.0,0
-64.0,-884.0,280.0,-1619.0,303.0,1484.0,0
-96.0,-926.0,134.0,-1271.0,371.0,1722.0,0
-80.0,-966.0,-72.0,-1148.0,405.0,1929.0,0
-14.0,-1044.0,-169.0,-1465.0,224.0,1947.0,0
63.0,-1125.0,-170.0,-1797.0,-186.0,1608.0,0
94.0,-1108.0,-158.0,-1635.0,-551.0,847.0,0
49.0,-1026.0,-108.0,-807.0,-553.0,-107.0,0
20.0,-908.0,-30.0,424.0,-171.0,-823.0,0
1.0,-771.0,56.0,1695.0,333.0,-1240.0,0
-28.0,-592.0,126.0,2775.0,743.0,-1429.0,0
-44.0,-452.0,137.0,3494.0,963.0,-1500.0,0
-58.0,-318.0,125.0,3713.0,983.0,-1547.0,0
-67.0,-197.0,109.0,3389.0,857.0,-1598.0,0
-80.0,-82.0,91.0,2632.0,643.0,-1670.0,0
-123.0,-28.0,30.0,1627.0,427.0,-1765.0,0
-155.0,-26.0,37.0,427.0,280.0,-1764.0,0
-147.0,-73.0,25.0,-683.0,237.0,-1651.0,0
-150.0,-155.0,18.0,-1629.0,266.0,-1544.0,0
-119.0,-238.0,37.0,-2362.0,351.0,-1427.0,0
-79.0,-309.0,44.0,-2768.0,464.0,-1336.0,0
-34.0,-376.0,46.0,-2892.0,599.0,-1265.0,0
10.0,-419.0,43.0,-2831.0,726.0,-1199.0,0
39.0,-441.0,51.0,-2657.0,803.0,-1150.0,0
72.0,-447.0,56.0,-2375.0,825.0,-1117.0,0
96.0,-433.0,53.0,-2101.0,810.0,-1107.0,0
117.0,-405.0,55.0,-1744.0,787.0,-1080.0,0
109.0,-372.0,52.0,-1406.0,756.0,-1024.0,0
103.0,-333.0,44.0,-1096.0,699.0,-949.0,0
93.0,-290.0,28.0,-801.0,654.0,-810.0,0
78.0,-250.0,18.0,-479.0,634.0,-634.0,0
65.0,-207.0,-7.0,-113.0,618.0,-466.0,0
46.0,-166.0,-28.0,281.0,591.0,-325.0,0
34.0,-123.0,-50.0,651.0,543.0,-197.0,0
41.0,-84.0,-64.0,968.0,467.0,-75.0,0
47.0,-53.0,-75.0,1236.0,364.0,20.0,0
55.0,-20.0,-95.0,1462.0,261.0,93.0,0
62.0,8.0,-113.0,1618.0,163.0,149.0,0
62.0,39.0,-124.0,1674.0,64.0,195.0,0
72.0,58.0,-128.0,1640.0,-27.0,250.0,0
87.0,66.0,-128.0,1532.0,-93.0,288.0,0
96.0,68.0,-124.0,1375.0,-103.0,293.0,0
85.0,67.0,-112.0,1165.0,-55.0,263.0,0
63.0,63.0,-84.0,932.0,28.0,217.0,0
42.0,50.0,-57.0,713.0,123.0,178.0,0
26.0,32.0,-33.0,531.0,208.0,142.0,0
20.0,19.0,-17.0,393.0,281.0,103.0,0
13.0,7.0,-17.0,326.0,361.0,62.0,0
7.0,0.0,-25.0,324.0,460.0,26.0,0
11.0,3.0,-32.0,356.0,563.0,-2.0,0
11.0,6.0,-50.0,405.0,659.0,-15.0,0
9.0,11.0,-70.0,444.0,741.0,-17.0,0
10.0,16.0,-88.0,448.0,800.0,-4.0,0
6.0,23.0,-97.0,407.0,823.0,23.0,0
-1.0,23.0,-104.0,340.0,790.0,63.0,0
-19.0,18.0,-96.0,221.0,716.0,105.0,0
-42.0,10.0,-86.0,95.0,574.0,144.0,0
-65.0,-5.0,-69.0,-1.0,395.0,185.0,0
-81.0,-26.0,-51.0,-39.0,196.0,237.0,0
-109.0,-42.0,-20.0,-7.0,-16.0,277.0,0
-130.0,-56.0,-8.0,94.0,-229.0,305.0,0
-137.0,-64.0,-15.0,236.0,-420.0,327.0,0
-121.0,-75.0,-68.0,394.0,-580.0,343.0,0
-94.0,-99.0,-111.0,528.0,-659.0,340.0,0
-60.0,-152.0,-178.0,694.0,-627.0,286.0,0
-7.0,-173.0,-389.0,800.0,-418.0,178.0,0
56.0,-169.0,-661.0,315.0,35.0,25.0,0
55.0,-287.0,-562.0,-924.0,596.0,-228.0,0
-70.0,-518.0,-191.0,-2160.0,697.0,-662.0,0
-152.0,-756.0,64.0,-2535.0,249.0,-1084.0,0
-109.0,-912.0,275.0,-2363.0,-290.0,-1245.0,0
-6.0,-1016.0,449.0,-2073.0,-734.0,-1261.0,0
59.0,-1076.0,427.0,-1403.0,-1120.0,-1392.0,0
68.0,-1085.0,113.0,-566.0,-1454.0,-1631.0,0
77.0,-1079.0,-192.0,-328.0,-1424.0,-1808.0,0
59.0,-1027.0,-315.0,-799.0,-986.0,-1789.0,0
42.0,-934.0,-276.0,-1235.0,-508.0,-1436.0,0
2.0,-822.0,-215.0,-887.0,-314.0,-894.0,0
-55.0,-727.0,-135.0,119.0,-329.0,-396.0,0
-74.0,-617.0,-20.0,1381.0,-516.0,-15.0,0
-73.0,-500.0,81.0,2545.0,-790.0,261.0,0
-42.0,-376.0,125.0,3365.0,-1075.0,482.0,0
-7.0,-251.0,135.0,3725.0,-1292.0,683.0,0
27.0,-142.0,120.0,3646.0,-1415.0,886.0,0
46.0,-76.0,80.0,3280.0,-1451.0,1082.0,0
55.0,-53.0,64.0,2464.0,-1427.0,1227.0,0
47.0,-51.0,53.0,1459.0,-1364.0,1285.0,0
56.0,-72.0,58.0,465.0,-1289.0,1331.0,0
64.0,-127.0,63.0,-394.0,-1243.0,1345.0,0
75.0,-206.0,73.0,-1096.0,-1245.0,1314.0,0
64.0,-286.0,89.0,-1628.0,-1283.0,1234.0,0
30.0,-377.0,102.0,-1987.0,-1334.0,1126.0,0
-3.0,-445.0,115.0,-2179.0,-1398.0,1020.0,0
-39.0,-495.0,107.0,-2191.0,-1459.0,909.0,0
-74.0,-515.0,91.0,-2037.0,-1487.0,788.0,0
-94.0,-515.0,57.0,-1775.0,-1469.0,686.0,0
-101.0,-504.0,30.0,-1480.0,-1426.0,621.0,0
-107.0,-480.0,2.0,-1196.0,-1360.0,578.0,0
-107.0,-448.0,-22.0,-921.0,-1265.0,544.0,0
-111.0,-420.0,-55.0,-683.0,-1153.0,523.0,0
-100.0,-387.0,-65.0,-508.0,-1021.0,500.0,0
-86.0,-351.0,-67.0,-352.0,-895.0,450.0,0
-64.0,-309.0,-54.0,-158.0,-815.0,369.0,0
-24.0,-250.0,-57.0,100.0,-788.0,255.0,0
9.0,-191.0,-80.0,414.0,-790.0,127.0,0
66.0,-114.0,-99.0,684.0,-772.0,1.0,0
88.0,-51.0,-125.0,925.0,-717.0,-148.0,0
96.0,21.0,-135.0,1114.0,-613.0,-317.0,0
89.0,82.0,-137.0,1266.0,-508.0,-474.0,0
69.0,136.0,-136.0,1355.0,-419.0,-624.0,0
41.0,176.0,-130.0,1351.0,-341.0,-765.0,0
26.0,203.0,-124.0,1266.0,-274.0,-889.0,0
2.0,225.0,-115.0,1140.0,-208.0,-979.0,0
-12.0,239.0,-104.0,931.0,-162.0,-1013.0,0
-20.0,239.0,-99.0,713.0,-129.0,-959.0,0
-14.0,217.0,-92.0,489.0,-84.0,-877.0,0
-1.0,172.0,-76.0,252.0,-40.0,-768.0,0
5.0,123.0,-54.0,15.0,3.0,-687.0,0
7.0,76.0,-37.0,-182.0,26.0,-620.0,0
1.0,43.0,-23.0,-316.0,4.0,-561.0,0
-7.0,11.0,-14.0,-374.0,-83.0,-504.0,0
-11.0,-13.0,-12.0,-349.0,-222.0,-446.0,0
-18.0,-33.0,-15.0,-265.0,-376.0,-394.0,0
-17.0,-50.0,-17.0,-141.0,-508.0,-363.0,0
-18.0,-61.0,-22.0,15.0,-595.0,-349.0,0
-13.0,-71.0,-35.0,186.0,-632.0,-356.0,0
-8.0,-69.0,-43.0,363.0,-639.0,-378.0,0
-9.0,-68.0,-60.0,530.0,-630.0,-402.0,0
-9.0,-60.0,-71.0,662.0,-615.0,-413.0,0
0.0,-61.0,-94.0,747.0,-598.0,-414.0,0
2.0,-52.0,-145.0,760.0,-588.0,-410.0,0
2.0,-43.0,-202.0,659.0,-613.0,-414.0,0
-14.0,-49.0,-251.0,421.0,-680.0,-435.0,0
-42.0,-68.0,-270.0,15.0,-767.0,-410.0,0
-71.0,-84.0,-376.0,-613.0,-949.0,-275.0,0
-61.0,-149.0,-432.0,-1462.0,-1326.0,-47.0,0
48.0,-304.0,-304.0,-2184.0,-1549.0,242.0,0
156.0,-504.0,-103.0,-2346.0,-1271.0,607.0,0
166.0,-671.0,107.0,-2027.0,-612.0,966.0,0
99.0,-771.0,248.0,-1467.0,-41.0,1146.0,0
3.0,-800.0,262.0,-814.0,39.0,1197.0,0
-80.0,-791.0,140.0,-292.0,-261.0,1320.0,0
-84.0,-785.0,-28.0,126.0,-576.0,1563.0,0
-47.0,-812.0,-137.0,111.0,-980.0,1714.0,0
25.0,-853.0,-199.0,-208.0,-1369.0,1707.0,0
72.0,-881.0,-200.0,-492.0,-1643.0,1408.0,0
59.0,-876.0,-166.0,-467.0,-1565.0,891.0,0
2.0,-827.0,-123.0,-108.0,-1089.0,303.0,0
-46.0,-761.0,-63.0,461.0,-456.0,-174.0,0
-84.0,-678.0,6.0,1101.0,56.0,-470.0,0
-118.0,-581.0,52.0,1683.0,280.0,-665.0,0
-132.0,-484.0,76.0,2109.0,243.0,-818.0,0
-141.0,-392.0,90.0,2315.0,49.0,-935.0,0
-141.0,-312.0,97.0,2270.0,-226.0,-1044.0,0
-154.0,-236.0,85.0,1982.0,-512.0,-1168.0,0
-187.0,-176.0,70.0,1486.0,-758.0,-1250.0,0
-208.0,-142.0,49.0,839.0,-939.0,-1268.0,0
-216.0,-144.0,40.0,121.0,-1053.0,-1257.0,0
-202.0,-183.0,40.0,-565.0,-1089.0,-1261.0,0
-178.0,-239.0,37.0,-1141.0,-1050.0,-1297.0,0
-143.0,-308.0,36.0,-1577.0,-966.0,-1318.0,0
-104.0,-369.0,43.0,-1854.0,-869.0,-1318.0,0
-67.0,-420.0,43.0,-1959.0,-784.0,-1329.0,0
-30.0,-457.0,41.0,-1915.0,-718.0,-1340.0,0
-3.0,-466.0,43.0,-1776.0,-682.0,-1331.0,0
28.0,-461.0,44.0,-1577.0,-687.0,-1290.0,0
51.0,-441.0,46.0,-1328.0,-709.0,-1218.0,0
71.0,-414.0,46.0,-1057.0,-714.0,-1123.0,0
85.0,-384.0,39.0,-812.0,-696.0,-1010.0,0
94.0,-349.0,36.0,-644.0,-659.0,-888.0,0
107.0,-313.0,24.0,-451.0,-621.0,-756.0,0
99.0,-268.0,11.0,-250.0,-559.0,-637.0,0
92.0,-223.0,2.0,-6.0,-499.0,-555.0,0
82.0,-172.0,-18.0,295.0,-461.0,-478.0,0
72.0,-129.0,-28.0,629.0,-455.0,-426.0,0
59.0,-80.0,-45.0,962.0,-470.0,-383.0,0
61.0,-31.0,-62.0,1246.0,-491.0,-332.0,0
67.0,10.0,-71.0,1507.0,-546.0,-276.0,0
76.0,43.0,-91.0,1735.0,-621.0,-205.0,0
86.0,74.0,-128.0,1887.0,-683.0,-114.0,0
96.0,107.0,-148.0,1932.0,-706.0,-7.0,0
104.0,136.0,-174.0,1879.0,-699.0,101.0,0
98.0,154.0,-200.0,1733.0,-675.0,216.0,0
94.0,167.0,-216.0,1486.0,-639.0,344.0,0
85.0,168.0,-219.0,1145.0,-591.0,458.0,0
70.0,156.0,-216.0,727.0,-530.0,534.0,0
50.0,114.0,-209.0,256.0,-469.0,548.0,0
33.0,67.0,-180.0,-268.0,-395.0,522.0,0
27.0,18.0,-148.0,-751.0,-321.0,463.0,0
29.0,-27.0,-93.0,-1090.0,-268.0,368.0,0
22.0,-67.0,-60.0,-1179.0,-246.0,244.0,0
22.0,-97.0,-35.0,-1010.0,-250.0,126.0,0
20.0,-110.0,-31.0,-667.0,-284.0,28.0,0
21.0,-113.0,-25.0,-226.0,-338.0,-50.0,0
22.0,-106.0,-30.0,226.0,-398.0,-94.0,0
17.0,-97.0,-25.0,639.0,-454.0,-108.0,0
8.0,-81.0,-26.0,976.0,-508.0,-96.0,0
5.0,-54.0,-21.0,1228.0,-551.0,-62.0,0
-13.0,-51.0,-4.0,1348.0,-580.0,-36.0,0
-22.0,-43.0,4.0,1409.0,-618.0,-2.0,0
-42.0,-22.0,-8.0,1352.0,-649.0,22.0,0
-62.0,-16.0,-39.0,1168.0,-717.0,50.0,0
-73.0,-37.0,-18.0,890.0,-844.0,89.0,0
-82.0,-58.0,-131.0,686.0,-1025.0,92.0,0
-83.0,-41.0,-436.0,389.0,-1160.0,72.0,0
-97.0,-64.0,-644.0,-507.0,-1026.0,30.0,0
-142.0,-174.0,-563.0,-1839.0,-761.0,-52.0,0
-269.0,-376.0,-279.0,-2809.0,-656.0,-203.0,0
-399.0,-601.0,-22.0,-2878.0,-583.0,-372.0,0
-455.0,-789.0,225.0,-2366.0,-592.0,-518.0,0
-394.0,-904.0,366.0,-1641.0,-843.0,-610.0,0
-209.0,-930.0,344.0,-760.0,-1301.0,-727.0,0
-32.0,-856.0,158.0,49.0,-1794.0,-924.0,0
124.0,-791.0,-57.0,375.0,-2101.0,-1189.0,0
240.0,-741.0,-232.0,108.0,-2213.0,-1489.0,0
286.0,-695.0,-325.0,-510.0,-2135.0,-1715.0,0
276.0,-655.0,-298.0,-1073.0,-1816.0,-1713.0,0
262.0,-637.0,-222.0,-1211.0,-1384.0,-1445.0,0
237.0,-617.0,-117.0,-847.0,-1063.0,-965.0,0
208.0,-573.0,-33.0,-120.0,-902.0,-509.0,0
180.0,-526.0,47.0,735.0,-915.0,-123.0,0
156.0,-480.0,88.0,1520.0,-1088.0,263.0,0
120.0,-433.0,115.0,2075.0,-1296.0,587.0,0
73.0,-377.0,127.0,2317.0,-1459.0,849.0,0
44.0,-326.0,116.0,2233.0,-1554.0,1092.0,0
42.0,-295.0,94.0,1841.0,-1574.0,1304.0,0
32.0,-283.0,71.0,1189.0,-1522.0,1431.0,0
10.0,-286.0,56.0,398.0,-1429.0,1459.0,0
-20.0,-311.0,57.0,-244.0,-1340.0,1423.0,0
-61.0,-356.0,61.0,-940.0,-1287.0,1346.0,0
-105.0,-411.0,67.0,-1491.0,-1263.0,1232.0,0
-145.0,-465.0,82.0,-1870.0,-1273.0,1111.0,0
-188.0,-511.0,83.0,-2042.0,-1328.0,945.0,0
-220.0,-550.0,76.0,-2008.0,-1388.0,791.0,0
-240.0,-563.0,60.0,-1803.0,-1421.0,643.0,0
-247.0,-563.0,43.0,-1460.0,-1408.0,494.0,0
-249.0,-539.0,10.0,-1040.0,-1360.0,344.0,0
-250.0,-491.0,-19.0,-611.0,-1303.0,199.0,0
-241.0,-432.0,-43.0,-243.0,-1271.0,56.0,0
-208.0,-359.0,-53.0,17.0,-1266.0,-91.0,0
-160.0,-297.0,-38.0,216.0,-1300.0,-246.0,0
-112.0,-248.0,-29.0,430.0,-1366.0,-391.0,0
-58.0,-197.0,-29.0,658.0,-1444.0,-502.0,0
-2.0,-143.0,-43.0,853.0,-1499.0,-592.0,0
38.0,-89.0,-64.0,992.0,-1488.0,-655.0,0
86.0,-43.0,-73.0,1087.0,-1368.0,-679.0,0
114.0,2.0,-78.0,1168.0,-1179.0,-673.0,0
121.0,38.0,-71.0,1245.0,-984.0,-667.0,0
104.0,78.0,-63.0,1313.0,-841.0,-666.0,0
82.0,105.0,-60.0,1349.0,-767.0,-637.0,0
60.0,130.0,-62.0,1325.0,-762.0,-597.0,0
36.0,142.0,-81.0,1226.0,-805.0,-559.0,0
15.0,147.0,-85.0,1049.0,-856.0,-530.0,0
7.0,144.0,-88.0,810.0,-900.0,-498.0,0
2.0,133.0,-84.0,545.0,-927.0,-478.0,0
-2.0,113.0,-79.0,287.0,-928.0,-478.0,0
0.0,89.0,-74.0,67.0,-889.0,-500.0,0
4.0,66.0,-74.0,-79.0,-826.0,-551.0,0
6.0,38.0,-68.0,-206.0,-760.0,-608.0,0
0.0,21.0,-75.0,-283.0,-664.0,-647.0,0
-7.0,0.0,-76.0,-331.0,-567.0,-687.0,0
-4.0,-6.0,-79.0,-359.0,-471.0,-721.0,0
-6.0,-18.0,-82.0,-359.0,-398.0,-746.0,0
-1.0,-16.0,-75.0,-344.0,-353.0,-756.0,0
3.0,-24.0,-64.0,-318.0,-337.0,-753.0,0
11.0,-27.0,-53.0,-276.0,-347.0,-745.0,0
16.0,-25.0,-41.0,-224.0,-377.0,-724.0,0
23.0,-22.0,-31.0,-154.0,-425.0,-689.0,0
26.0,-17.0,-29.0,-71.0,-480.0,-639.0,0
28.0,-13.0,-56.0,7.0,-544.0,-570.0,0
10.0,-10.0,-119.0,45.0,-646.0,-491.0,0
-2.0,-11.0,-183.0,10.0,-798.0,-418.0,0
-14.0,-21.0,-261.0,-113.0,-954.0,-342.0,0
-22.0,-30.0,-332.0,-373.0,-1022.0,-227.0,0
-27.0,-62.0,-351.0,-767.0,-1047.0,-75.0,0
-16.0,-128.0,-312.0,-1139.0,-1131.0,65.0,0
22.0,-217.0,-237.0,-1344.0,-1185.0,213.0,0
70.0,-347.0,-77.0,-1395.0,-1043.0,433.0,0
65.0,-465.0,65.0,-1315.0,-770.0,721.0,0
32.0,-564.0,168.0,-1106.0,-486.0,1027.0,0
-10.0,-622.0,168.0,-774.0,-351.0,1322.0,0
-35.0,-651.0,42.0,-466.0,-433.0,1621.0,0
-43.0,-649.0,-115.0,-439.0,-649.0,1890.0,0
-39.0,-672.0,-244.0,-755.0,-908.0,2058.0,0
-23.0,-709.0,-309.0,-1224.0,-1205.0,2045.0,0
-8.0,-764.0,-314.0,-1638.0,-1471.0,1860.0,0
-35.0,-823.0,-257.0,-1841.0,-1591.0,1461.0,0
-109.0,-858.0,-168.0,-1850.0,-1544.0,834.0,0
-162.0,-861.0,-88.0,-1483.0,-1333.0,279.0,0
-175.0,-851.0,-28.0,-802.0,-1007.0,-346.0,0
-179.0,-812.0,4.0,18.0,-663.0,-903.0,0
-167.0,-743.0,20.0,791.0,-402.0,-1378.0,0
-168.0,-657.0,27.0,1371.0,-261.0,-1744.0,0
-159.0,-573.0,28.0,1704.0,-225.0,-1986.0,0
-139.0,-503.0,28.0,1787.0,-263.0,-2114.0,0
-111.0,-445.0,27.0,1647.0,-328.0,-2165.0,0
-78.0,-385.0,34.0,1343.0,-382.0,-2159.0,0
-55.0,-357.0,40.0,928.0,-394.0,-2084.0,0
-18.0,-352.0,34.0,461.0,-365.0,-1973.0,0
23.0,-358.0,35.0,-38.0,-304.0,-1875.0,0
59.0,-368.0,37.0,-521.0,-213.0,-1794.0,0
91.0,-380.0,35.0,-920.0,-90.0,-1715.0,0
119.0,-390.0,27.0,-1207.0,63.0,-1623.0,0
150.0,-395.0,30.0,-1389.0,236.0,-1520.0,0
171.0,-383.0,27.0,-1504.0,408.0,-1402.0,0
197.0,-376.0,35.0,-1575.0,561.0,-1269.0,0
207.0,-358.0,38.0,-1598.0,690.0,-1144.0,0
212.0,-333.0,40.0,-1563.0,793.0,-1017.0,0
208.0,-310.0,29.0,-1462.0,879.0,-872.0,0
201.0,-281.0,10.0,-1324.0,934.0,-725.0,0
193.0,-253.0,0.0,-1194.0,986.0,-598.0,0
161.0,-222.0,-9.0,-1061.0,1046.0,-514.0,0
125.0,-183.0,-18.0,-930.0,1126.0,-417.0,0
82.0,-156.0,-33.0,-828.0,1239.0,-256.0,0
48.0,-136.0,-46.0,-753.0,1361.0,-32.0,0
17.0,-119.0,-57.0,-600.0,1475.0,229.0,0
0.0,-101.0,-59.0,-305.0,1533.0,483.0,0
-27.0,-73.0,-62.0,158.0,1525.0,648.0,0
-53.0,-39.0,-68.0,731.0,1404.0,818.0,0
-62.0,-7.0,-79.0,1307.0,1185.0,960.0,0
-66.0,20.0,-89.0,1790.0,887.0,1062.0,0
-72.0,44.0,-101.0,2094.0,554.0,1105.0,0
-72.0,65.0,-116.0,2183.0,240.0,1109.0,0
-63.0,80.0,-122.0,2073.0,-10.0,1091.0,0
-44.0,70.0,-130.0,1792.0,-177.0,1050.0,0
-25.0,62.0,-129.0,1399.0,-261.0,994.0,0
-10.0,43.0,-117.0,975.0,-269.0,913.0,0
1.0,22.0,-101.0,607.0,-220.0,822.0,0
10.0,2.0,-84.0,358.0,-139.0,744.0,0
13.0,-14.0,-76.0,250.0,-45.0,667.0,0
12.0,-21.0,-72.0,258.0,30.0,590.0,0
11.0,-25.0,-66.0,337.0,59.0,532.0,0
10.0,-17.0,-61.0,446.0,51.0,504.0,0
15.0,-8.0,-55.0,556.0,17.0,505.0,0
12.0,8.0,-52.0,640.0,-22.0,516.0,0
4.0,23.0,-59.0,677.0,-54.0,535.0,0
2.0,36.0,-61.0,659.0,-75.0,561.0,0
-7.0,43.0,-55.0,597.0,-87.0,582.0,0
-21.0,50.0,-61.0,501.0,-99.0,596.0,0
-29.0,46.0,-77.0,374.0,-126.0,597.0,0
-30.0,39.0,-131.0,221.0,-163.0,581.0,0
-15.0,35.0,-183.0,57.0,-168.0,559.0,0
21.0,21.0,-240.0,-85.0,-101.0,529.0,0
78.0,3.0,-271.0,-176.0,42.0,478.0,0
140.0,-26.0,-372.0,-345.0,217.0,347.0,0
179.0,-74.0,-425.0,-732.0,485.0,159.0,0
145.0,-178.0,-319.0,-1240.0,585.0,-164.0,0
57.0,-316.0,-127.0,-1507.0,259.0,-517.0,0
-10.0,-459.0,46.0,-1317.0,-336.0,-784.0,0
-17.0,-577.0,158.0,-801.0,-780.0,-880.0,0
16.0,-672.0,218.0,-210.0,-942.0,-897.0,0
31.0,-735.0,222.0,322.0,-894.0,-982.0,0
-12.0,-752.0,124.0,661.0,-809.0,-1116.0,0
-75.0,-758.0,-70.0,609.0,-673.0,-1036.0,0
-114.0,-812.0,-241.0,-62.0,-412.0,-588.0,0
-124.0,-864.0,-258.0,-1144.0,-181.0,73.0,0
-107.0,-864.0,-202.0,-2037.0,-188.0,686.0,0
-86.0,-846.0,-146.0,-2182.0,-417.0,1077.0,0
-53.0,-825.0,-100.0,-1563.0,-712.0,1272.0,0
-20.0,-788.0,-47.0,-539.0,-963.0,1359.0,0
1.0,-730.0,4.0,577.0,-1129.0,1387.0,0
17.0,-662.0,42.0,1584.0,-1205.0,1370.0,0
25.0,-583.0,65.0,2346.0,-1208.0,1332.0,0
36.0,-503.0,68.0,2768.0,-1173.0,1304.0,0
50.0,-412.0,73.0,2818.0,-1138.0,1288.0,0
67.0,-332.0,70.0,2527.0,-1124.0,1280.0,0
74.0,-278.0,54.0,1938.0,-1121.0,1266.0,0
78.0,-252.0,47.0,1127.0,-1129.0,1231.0,0
68.0,-266.0,48.0,248.0,-1141.0,1184.0,0
48.0,-312.0,59.0,-541.0,-1167.0,1139.0,0
22.0,-354.0,84.0,-1132.0,-1218.0,1094.0,0
-17.0,-376.0,107.0,-1452.0,-1295.0,1029.0,0
-59.0,-388.0,108.0,-1505.0,-1372.0,969.0,0
-103.0,-377.0,68.0,-1415.0,-1423.0,921.0,0
-134.0,-352.0,35.0,-1304.0,-1465.0,888.0,0
-163.0,-321.0,-12.0,-1209.0,-1462.0,829.0,0
-183.0,-294.0,-36.0,-1147.0,-1396.0,751.0,0
-196.0,-272.0,-69.0,-1103.0,-1293.0,640.0,0
-210.0,-240.0,-89.0,-1063.0,-1183.0,500.0,0
-211.0,-218.0,-109.0,-995.0,-1086.0,343.0,0
-210.0,-188.0,-115.0,-873.0,-1025.0,175.0,0
-185.0,-166.0,-121.0,-679.0,-1020.0,3.0,0
-148.0,-132.0,-125.0,-397.0,-1062.0,-171.0,0
-106.0,-97.0,-126.0,-40.0,-1121.0,-352.0,0
-55.0,-53.0,-119.0,349.0,-1164.0,-507.0,0
2.0,-9.0,-124.0,729.0,-1151.0,-627.0,0
49.0,32.0,-118.0,1046.0,-1065.0,-731.0,0
69.0,59.0,-115.0,1257.0,-949.0,-819.0,0
85.0,83.0,-118.0,1323.0,-840.0,-886.0,0
86.0,87.0,-108.0,1255.0,-748.0,-930.0,0
75.0,89.0,-105.0,1110.0,-683.0,-955.0,0
69.0,69.0,-87.0,936.0,-655.0,-963.0,0
66.0,51.0,-77.0,771.0,-668.0,-973.0,0
64.0,33.0,-58.0,635.0,-704.0,-965.0,0
68.0,21.0,-56.0,537.0,-733.0,-929.0,0
70.0,13.0,-53.0,469.0,-738.0,-871.0,0
68.0,10.0,-59.0,420.0,-709.0,-796.0,0
59.0,15.0,-61.0,384.0,-656.0,-714.0,0
52.0,26.0,-66.0,356.0,-602.0,-627.0,0
47.0,33.0,-75.0,334.0,-555.0,-537.0,0
43.0,36.0,-84.0,288.0,-516.0,-456.0,0
35.0,37.0,-90.0,205.0,-484.0,-393.0,0
30.0,40.0,-95.0,100.0,-444.0,-348.0,0
28.0,39.0,-88.0,-1.0,-411.0,-298.0,0
27.0,38.0,-84.0,-79.0,-391.0,-270.0,0
27.0,33.0,-81.0,-117.0,-379.0,-256.0,0
34.0,22.0,-70.0,-116.0,-375.0,-246.0,0
45.0,8.0,-74.0,-64.0,-376.0,-238.0,0
48.0,-2.0,-81.0,42.0,-365.0,-231.0,0
59.0,-8.0,-124.0,171.0,-345.0,-224.0,0
25.0,-20.0,-202.0,254.0,-371.0,-222.0,0
-11.0,-27.0,-241.0,265.0,-498.0,-246.0,0
-61.0,-34.0,-261.0,219.0,-672.0,-245.0,0
-83.0,-45.0,-304.0,74.0,-793.0,-139.0,0
-87.0,-91.0,-347.0,-227.0,-867.0,43.0,0
-55.0,-183.0,-297.0,-578.0,-913.0,214.0,0
-15.0,-304.0,-131.0,-755.0,-759.0,357.0,0
-38.0,-406.0,23.0,-719.0,-476.0,501.0,0
-85.0,-498.0,117.0,-670.0,-355.0,676.0,0
-143.0,-562.0,111.0,-652.0,-583.0,878.0,0
-157.0,-612.0,24.0,-704.0,-942.0,1146.0,0
-128.0,-668.0,-61.0,-832.0,-1177.0,1391.0,0
-85.0,-725.0,-156.0,-1092.0,-1426.0,1485.0,0
-40.0,-824.0,-225.0,-1513.0,-1790.0,1380.0,0
-3.0,-921.0,-249.0,-1974.0,-2060.0,1025.0,0
10.0,-998.0,-214.0,-2240.0,-1979.0,433.0,0
-23.0,-1018.0,-151.0,-2023.0,-1543.0,-260.0,0
-66.0,-1002.0,-105.0,-1280.0,-979.0,-871.0,0
-100.0,-943.0,-69.0,-473.0,-517.0,-1342.0,0
-127.0,-831.0,-34.0,559.0,-251.0,-1643.0,0
-114.0,-734.0,-18.0,1411.0,-164.0,-1789.0,0
-86.0,-649.0,3.0,1979.0,-138.0,-1851.0,0
-66.0,-557.0,7.0,2248.0,-151.0,-1921.0,0
-54.0,-457.0,7.0,2227.0,-171.0,-1997.0,0
-49.0,-362.0,2.0,1924.0,-174.0,-2039.0,0
-42.0,-286.0,0.0,1387.0,-147.0,-2001.0,0
-27.0,-245.0,-2.0,710.0,-81.0,-1881.0,0
-1.0,-235.0,6.0,-2.0,28.0,-1714.0,0
28.0,-272.0,12.0,-659.0,178.0,-1531.0,0
63.0,-312.0,27.0,-1203.0,350.0,-1347.0,0
104.0,-348.0,45.0,-1571.0,525.0,-1170.0,0
140.0,-381.0,62.0,-1724.0,696.0,-986.0,0
176.0,-401.0,67.0,-1697.0,833.0,-790.0,0
193.0,-406.0,62.0,-1569.0,911.0,-603.0,0
202.0,-398.0,53.0,-1358.0,927.0,-438.0,0
211.0,-384.0,29.0,-1089.0,898.0,-304.0,0
210.0,-355.0,7.0,-784.0,870.0,-217.0,0
193.0,-312.0,-18.0,-468.0,909.0,-191.0,0
152.0,-242.0,-31.0,-164.0,1051.0,-191.0,0
111.0,-189.0,-39.0,120.0,1259.0,-188.0,0
70.0,-142.0,-52.0,374.0,1466.0,-149.0,0
27.0,-96.0,-64.0,599.0,1592.0,-60.0,0
13.0,-53.0,-74.0,804.0,1626.0,80.0,0
1.0,-3.0,-80.0,996.0,1594.0,219.0,0
-12.0,30.0,-80.0,1189.0,1517.0,335.0,0
-26.0,67.0,-84.0,1356.0,1400.0,436.0,0
-43.0,99.0,-86.0,1455.0,1261.0,545.0,0
-46.0,118.0,-93.0,1529.0,1137.0,650.0,0
-54.0,135.0,-101.0,1517.0,972.0,740.0,0
-54.0,144.0,-107.0,1392.0,838.0,817.0,0
-52.0,138.0,-112.0,1156.0,734.0,916.0,0
-46.0,117.0,-93.0,789.0,633.0,997.0,0
-37.0,95.0,-69.0,352.0,509.0,1029.0,0
-25.0,60.0,-33.0,-44.0,367.0,995.0,0
-16.0,26.0,-20.0,-284.0,235.0,920.0,0
0.0,5.0,-16.0,-346.0,139.0,833.0,0
8.0,-11.0,-31.0,-255.0,97.0,727.0,0
27.0,-24.0,-70.0,-92.0,129.0,605.0,0
36.0,-24.0,-90.0,74.0,229.0,476.0,0
40.0,-17.0,-109.0,220.0,367.0,374.0,0
40.0,-8.0,-113.0,337.0,515.0,309.0,0
42.0,6.0,-109.0,433.0,654.0,277.0,0
37.0,15.0,-99.0,508.0,770.0,269.0,0
33.0,22.0,-76.0,552.0,863.0,265.0,0
1.0,15.0,-69.0,558.0,931.0,258.0,0
-27.0,10.0,-50.0,539.0,952.0,245.0,0
-47.0,-3.0,-34.0,512.0,910.0,225.0,0
-55.0,-17.0,-30.0,491.0,807.0,201.0,0
-58.0,-35.0,-56.0,482.0,659.0,190.0,0
-52.0,-40.0,-198.0,462.0,531.0,197.0,0
-6.0,-59.0,-255.0,371.0,541.0,219.0,0
56.0,-113.0,-297.0,347.0,694.0,201.0,0
117.0,-153.0,-340.0,422.0,918.0,121.0,0
147.0,-183.0,-406.0,255.0,1038.0,-65.0,0
122.0,-221.0,-280.0,-236.0,788.0,-359.0,0
59.0,-331.0,-68.0,-523.0,137.0,-601.0,0
37.0,-508.0,83.0,-473.0,-291.0,-642.0,0
78.0,-616.0,155.0,-177.0,-446.0,-586.0,0
132.0,-669.0,202.0,-6.0,-427.0,-594.0,0
171.0,-694.0,189.0,30.0,-450.0,-743.0,0
160.0,-698.0,37.0,34.0,-475.0,-992.0,0
106.0,-719.0,-141.0,-211.0,-187.0,-1067.0,0
2.0,-767.0,-260.0,-883.0,417.0,-814.0,0
-155.0,-823.0,-274.0,-1807.0,905.0,-307.0,0
-246.0,-855.0,-224.0,-2512.0,914.0,386.0,0
-211.0,-856.0,-144.0,-2535.0,483.0,974.0,0
-170.0,-831.0,-74.0,-1785.0,-89.0,1237.0,0
-107.0,-786.0,-18.0,-536.0,-536.0,1305.0,0
-52.0,-717.0,19.0,833.0,-748.0,1279.0,0
-9.0,-640.0,39.0,1988.0,-755.0,1225.0,0
24.0,-559.0,49.0,2740.0,-671.0,1180.0,0
50.0,-468.0,63.0,3048.0,-586.0,1144.0,0
68.0,-386.0,82.0,2938.0,-548.0,1116.0,0
83.0,-304.0,97.0,2477.0,-574.0,1105.0,0
91.0,-254.0,101.0,1735.0,-648.0,1106.0,0
72.0,-225.0,84.0,801.0,-739.0,1077.0,0
38.0,-237.0,62.0,-188.0,-810.0,1021.0,0
-3.0,-281.0,44.0,-1077.0,-856.0,983.0,0
-28.0,-335.0,30.0,-1811.0,-873.0,983.0,0
-51.0,-372.0,10.0,-2319.0,-894.0,974.0,0
-74.0,-400.0,-12.0,-2575.0,-911.0,954.0,0
-102.0,-406.0,-21.0,-2615.0,-927.0,967.0,0
-132.0,-402.0,-27.0,-2488.0,-968.0,1026.0,0
-139.0,-386.0,-35.0,-2215.0,-1062.0,1098.0,0
-129.0,-364.0,-30.0,-1818.0,-1179.0,1135.0,0
-110.0,-325.0,-50.0,-1435.0,-1287.0,1116.0,0
-81.0,-296.0,-52.0,-957.0,-1349.0,1038.0,0
-61.0,-259.0,-55.0,-512.0,-1391.0,926.0,0
-45.0,-214.0,-72.0,-103.0,-1388.0,754.0,0
-23.0,-173.0,-82.0,236.0,-1344.0,582.0,0
2.0,-124.0,-86.0,522.0,-1277.0,419.0,0
29.0,-78.0,-88.0,782.0,-1194.0,250.0,0
60.0,-22.0,-83.0,1048.0,-1095.0,70.0,0
81.0,17.0,-87.0,1288.0,-986.0,-104.0,0
89.0,60.0,-90.0,1456.0,-874.0,-268.0,0
85.0,86.0,-86.0,1515.0,-749.0,-416.0,0
74.0,113.0,-90.0,1478.0,-636.0,-522.0,0
62.0,121.0,-101.0,1361.0,-539.0,-565.0,0
55.0,124.0,-98.0,1148.0,-444.0,-564.0,0
44.0,118.0,-90.0,893.0,-365.0,-564.0,0
37.0,95.0,-83.0,644.0,-307.0,-567.0,0
24.0,68.0,-69.0,408.0,-273.0,-561.0,0
18.0,37.0,-55.0,209.0,-254.0,-536.0,0
17.0,6.0,-48.0,59.0,-243.0,-499.0,0
25.0,-8.0,-29.0,-38.0,-246.0,-456.0,0
26.0,-21.0,-28.0,-82.0,-260.0,-419.0,0
28.0,-29.0,-32.0,-83.0,-276.0,-395.0,0
26.0,-32.0,-32.0,-57.0,-288.0,-375.0,0
19.0,-30.0,-42.0,-11.0,-293.0,-361.0,0
15.0,-32.0,-49.0,50.0,-304.0,-358.0,0
12.0,-34.0,-60.0,102.0,-320.0,-364.0,0
12.0,-29.0,-71.0,127.0,-331.0,-370.0,0
13.0,-33.0,-75.0,127.0,-336.0,-366.0,0
9.0,-26.0,-78.0,136.0,-325.0,-351.0,0
4.0,-19.0,-80.0,165.0,-301.0,-310.0,0
0.0,-15.0,-94.0,208.0,-254.0,-263.0,0
-6.0,-6.0,-102.0,255.0,-192.0,-196.0,0
-6.0,-6.0,-106.0,301.0,-131.0,-127.0,0
-12.0,-7.0,-121.0,347.0,-83.0,-55.0,0
-10.0,-6.0,-169.0,372.0,-66.0,14.0,0
-20.0,-12.0,-236.0,320.0,-124.0,58.0,0
-33.0,-32.0,-273.0,179.0,-244.0,58.0,0
-59.0,-55.0,-317.0,-18.0,-380.0,64.0,0
-78.0,-73.0,-395.0,-341.0,-611.0,155.0,0
-59.0,-133.0,-422.0,-847.0,-1044.0,342.0,0
10.0,-254.0,-233.0,-1288.0,-1328.0,561.0,0
68.0,-402.0,41.0,-1244.0,-1104.0,756.0,0
72.0,-531.0,266.0,-754.0,-560.0,885.0,0
40.0,-617.0,359.0,-106.0,-121.0,896.0,0
-29.0,-629.0,308.0,484.0,44.0,890.0,0
-59.0,-645.0,134.0,746.0,172.0,991.0,0
-67.0,-670.0,-52.0,560.0,321.0,1074.0,0
-70.0,-728.0,-248.0,-167.0,241.0,1005.0,0
-58.0,-814.0,-328.0,-1333.0,-167.0,770.0,0
-20.0,-902.0,-317.0,-2483.0,-600.0,395.0,0
0.0,-937.0,-230.0,-3055.0,-655.0,-128.0,0
-16.0,-946.0,-126.0,-2706.0,-303.0,-652.0,0
-48.0,-929.0,-30.0,-1606.0,153.0,-1050.0,0
-70.0,-874.0,24.0,-203.0,487.0,-1302.0,0
-79.0,-793.0,44.0,1075.0,691.0,-1428.0,0
-81.0,-708.0,56.0,1973.0,804.0,-1520.0,0
-79.0,-622.0,50.0,2360.0,802.0,-1620.0,0
-78.0,-532.0,43.0,2448.0,722.0,-1701.0,0
-79.0,-435.0,38.0,2165.0,573.0,-1732.0,0
-72.0,-352.0,22.0,1614.0,435.0,-1699.0,0
-51.0,-292.0,8.0,890.0,361.0,-1584.0,0
-14.0,-254.0,-1.0,91.0,351.0,-1465.0,0
26.0,-257.0,-8.0,-692.0,430.0,-1359.0,0
66.0,-284.0,-4.0,-1367.0,605.0,-1231.0,0
106.0,-330.0,-1.0,-1898.0,808.0,-1061.0,0
125.0,-328.0,15.0,-2252.0,997.0,-862.0,0
143.0,-347.0,42.0,-2401.0,1167.0,-674.0,0
150.0,-347.0,46.0,-2351.0,1305.0,-517.0,0
163.0,-329.0,47.0,-2149.0,1397.0,-399.0,0
162.0,-302.0,33.0,-1860.0,1457.0,-313.0,0
147.0,-262.0,26.0,-1545.0,1500.0,-242.0,0
128.0,-231.0,16.0,-1232.0,1538.0,-166.0,0
100.0,-190.0,9.0,-925.0,1564.0,-71.0,0
65.0,-157.0,-5.0,-612.0,1560.0,33.0,0
34.0,-123.0,-18.0,-285.0,1511.0,163.0,0
12.0,-90.0,-32.0,66.0,1423.0,309.0,0
-8.0,-52.0,-43.0,437.0,1307.0,435.0,0
-10.0,-7.0,-52.0,803.0,1178.0,542.0,0
-10.0,28.0,-63.0,1144.0,1048.0,625.0,0
-7.0,56.0,-72.0,1420.0,903.0,676.0,0
4.0,77.0,-93.0,1570.0,742.0,693.0,0
4.0,93.0,-108.0,1562.0,564.0,682.0,0
7.0,102.0,-117.0,1402.0,401.0,684.0,0
13.0,97.0,-123.0,1135.0,278.0,719.0,0
24.0,76.0,-122.0,871.0,185.0,740.0,0
22.0,32.0,-104.0,493.0,121.0,727.0,0
15.0,10.0,-90.0,121.0,94.0,696.0,0
5.0,-24.0,-71.0,-161.0,102.0,662.0,0
2.0,-43.0,-49.0,-291.0,154.0,618.0,0
1.0,-63.0,-47.0,-268.0,225.0,562.0,0
6.0,-69.0,-54.0,-142.0,291.0,496.0,0
10.0,-63.0,-68.0,40.0,360.0,427.0,0
10.0,-51.0,-78.0,243.0,427.0,368.0,0
16.0,-34.0,-85.0,438.0,488.0,330.0,0
21.0,-13.0,-95.0,595.0,539.0,319.0,0
21.0,10.0,-95.0,695.0,582.0,329.0,0
19.0,38.0,-91.0,727.0,613.0,347.0,0
19.0,56.0,-93.0,670.0,635.0,365.0,0
7.0,65.0,-86.0,531.0,647.0,380.0,0
-6.0,72.0,-79.0,344.0,648.0,396.0,0
-18.0,72.0,-73.0,136.0,626.0,396.0,0
-17.0,52.0,-74.0,-60.0,577.0,365.0,0
-16.0,34.0,-140.0,-229.0,523.0,311.0,0
5.0,13.0,-230.0,-406.0,539.0,261.0,0
68.0,-38.0,-294.0,-555.0,691.0,222.0,0
124.0,-104.0,-366.0,-607.0,989.0,159.0,0
171.0,-172.0,-450.0,-632.0,1407.0,-16.0,0
144.0,-247.0,-367.0,-833.0,1707.0,-341.0,0
36.0,-353.0,-117.0,-1049.0,1423.0,-748.0,0
-54.0,-487.0,118.0,-846.0,573.0,-1035.0,0
-59.0,-598.0,223.0,-243.0,-231.0,-1105.0,0
13.0,-674.0,255.0,305.0,-583.0,-1059.0,0
74.0,-705.0,247.0,628.0,-551.0,-1093.0,0
90.0,-726.0,134.0,755.0,-406.0,-1263.0,0
35.0,-748.0,-95.0,664.0,-210.0,-1377.0,0
-54.0,-777.0,-313.0,51.0,74.0,-1195.0,0
-141.0,-820.0,-393.0,-1100.0,499.0,-813.0,0
-216.0,-844.0,-326.0,-2253.0,718.0,-156.0,0
-215.0,-851.0,-202.0,-2752.0,513.0,485.0,0
-171.0,-861.0,-106.0,-2365.0,-1.0,846.0,0
-107.0,-841.0,-20.0,-1349.0,-520.0,1019.0,0
-64.0,-789.0,46.0,-56.0,-892.0,1066.0,0
-33.0,-712.0,72.0,1202.0,-1122.0,1052.0,0
4.0,-602.0,59.0,2181.0,-1212.0,1061.0,0
45.0,-501.0,50.0,2744.0,-1177.0,1110.0,0
90.0,-398.0,49.0,2893.0,-1074.0,1170.0,0
134.0,-307.0,48.0,2692.0,-965.0,1206.0,0
158.0,-244.0,34.0,2190.0,-879.0,1212.0,0
162.0,-218.0,27.0,1416.0,-815.0,1207.0,0
130.0,-210.0,33.0,484.0,-779.0,1207.0,0
96.0,-243.0,46.0,-430.0,-794.0,1204.0,0
67.0,-285.0,52.0,-1206.0,-873.0,1191.0,0
35.0,-322.0,52.0,-1791.0,-984.0,1151.0,0
6.0,-347.0,49.0,-2133.0,-1084.0,1083.0,0
-10.0,-368.0,38.0,-2227.0,-1128.0,1011.0,0
-33.0,-374.0,30.0,-2110.0,-1090.0,935.0,0
-43.0,-371.0,18.0,-1832.0,-982.0,866.0,0
-61.0,-355.0,-7.0,-1446.0,-829.0,813.0,0
-67.0,-332.0,-26.0,-1039.0,-663.0,770.0,0
-58.0,-306.0,-40.0,-672.0,-533.0,702.0,0
-59.0,-268.0,-39.0,-332.0,-466.0,588.0,0
-59.0,-223.0,-43.0,5.0,-445.0,461.0,0
-62.0,-166.0,-51.0,334.0,-440.0,361.0,0
-52.0,-122.0,-40.0,650.0,-458.0,268.0,0
-41.0,-75.0,-41.0,910.0,-518.0,160.0,0
-38.0,-23.0,-50.0,1233.0,-581.0,45.0,0
-31.0,22.0,-59.0,1515.0,-634.0,-63.0,0
-14.0,67.0,-72.0,1718.0,-638.0,-152.0,0
-6.0,114.0,-86.0,1820.0,-615.0,-278.0,0
-1.0,143.0,-104.0,1770.0,-572.0,-385.0,0
4.0,156.0,-113.0,1559.0,-513.0,-453.0,0
5.0,157.0,-113.0,1235.0,-442.0,-512.0,0
0.0,155.0,-112.0,851.0,-371.0,-583.0,0
-1.0,139.0,-91.0,460.0,-318.0,-636.0,0
2.0,106.0,-71.0,120.0,-295.0,-664.0,0
15.0,70.0,-56.0,-128.0,-298.0,-684.0,0
26.0,35.0,-39.0,-283.0,-304.0,-696.0,0
30.0,16.0,-37.0,-354.0,-293.0,-686.0,0
28.0,2.0,-47.0,-350.0,-257.0,-648.0,0
19.0,-12.0,-61.0,-302.0,-210.0,-595.0,0
12.0,-29.0,-75.0,-244.0,-169.0,-553.0,0
7.0,-32.0,-81.0,-177.0,-150.0,-540.0,0
6.0,-37.0,-97.0,-100.0,-158.0,-545.0,0
14.0,-42.0,-109.0,-48.0,-185.0,-560.0,0
18.0,-44.0,-113.0,-31.0,-221.0,-576.0,0
22.0,-43.0,-119.0,-24.0,-251.0,-586.0,0
22.0,-40.0,-116.0,-16.0,-260.0,-582.0,0
16.0,-35.0,-102.0,20.0,-246.0,-554.0,0
8.0,-28.0,-97.0,100.0,-216.0,-506.0,0
0.0,-33.0,-98.0,200.0,-180.0,-439.0,0
-1.0,-30.0,-114.0,306.0,-148.0,-367.0,0
-17.0,-11.0,-164.0,407.0,-157.0,-301.0,0
-37.0,5.0,-266.0,424.0,-251.0,-251.0,0
-60.0,-15.0,-338.0,290.0,-385.0,-204.0,0
-90.0,-38.0,-394.0,-76.0,-435.0,-105.0,0
-91.0,-68.0,-474.0,-611.0,-446.0,31.0,0
-58.0,-158.0,-437.0,-1192.0,-560.0,233.0,0
37.0,-296.0,-228.0,-1463.0,-623.0,451.0,0
79.0,-430.0,3.0,-1302.0,-467.0,728.0,0
31.0,-557.0,216.0,-980.0,-233.0,1015.0,0
-37.0,-605.0,248.0,-662.0,-209.0,1206.0,0
-93.0,-628.0,151.0,-345.0,-392.0,1314.0,0
-104.0,-657.0,41.0,-132.0,-511.0,1467.0,0
-83.0,-697.0,-63.0,-120.0,-585.0,1634.0,0
-52.0,-757.0,-148.0,-359.0,-789.0,1680.0,0
-21.0,-835.0,-212.0,-801.0,-1128.0,1495.0,0
15.0,-907.0,-251.0,-1262.0,-1330.0,1029.0,0
16.0,-937.0,-213.0,-1534.0,-1122.0,313.0,0
-28.0,-921.0,-120.0,-1359.0,-553.0,-491.0,0
-68.0,-889.0,-36.0,-662.0,67.0,-1122.0,0
-94.0,-824.0,25.0,318.0,498.0,-1517.0,0
-95.0,-742.0,69.0,1319.0,707.0,-1725.0,0
-82.0,-658.0,95.0,2160.0,767.0,-1821.0,0
-65.0,-567.0,102.0,2714.0,704.0,-1874.0,0
-43.0,-476.0,94.0,2898.0,549.0,-1922.0,0
-42.0,-375.0,90.0,2695.0,383.0,-1951.0,0
-50.0,-277.0,89.0,2162.0,282.0,-1929.0,0
-39.0,-199.0,74.0,1390.0,278.0,-1811.0,0
8.0,-173.0,52.0,467.0,376.0,-1653.0,0
55.0,-204.0,44.0,-501.0,581.0,-1521.0,0
92.0,-258.0,47.0,-1384.0,915.0,-1408.0,0
119.0,-311.0,55.0,-1959.0,1264.0,-1264.0,0
135.0,-349.0,52.0,-2430.0,1506.0,-1078.0,0
149.0,-384.0,45.0,-2646.0,1599.0,-866.0,0
160.0,-405.0,35.0,-2648.0,1605.0,-696.0,0
171.0,-407.0,23.0,-2457.0,1521.0,-510.0,0
182.0,-390.0,10.0,-2093.0,1420.0,-378.0,0
170.0,-355.0,-14.0,-1609.0,1365.0,-290.0,0
142.0,-311.0,-30.0,-1078.0,1386.0,-234.0,0
103.0,-262.0,-49.0,-555.0,1462.0,-173.0,0
58.0,-211.0,-68.0,-82.0,1558.0,-110.0,0
14.0,-164.0,-72.0,297.0,1642.0,-36.0,0
-14.0,-116.0,-74.0,588.0,1691.0,51.0,0
-39.0,-68.0,-66.0,809.0,1692.0,137.0,0
-49.0,-33.0,-63.0,997.0,1645.0,218.0,0
-55.0,-1.0,-66.0,1175.0,1545.0,300.0,0
-46.0,26.0,-69.0,1343.0,1388.0,381.0,0
-27.0,48.0,-79.0,1490.0,1186.0,455.0,0
-6.0,70.0,-83.0,1583.0,968.0,514.0,0
12.0,77.0,-97.0,1614.0,772.0,566.0,0
31.0,79.0,-109.0,1546.0,622.0,618.0,0
47.0,76.0,-122.0,1359.0,510.0,666.0,0
64.0,65.0,-109.0,1050.0,414.0,700.0,0
65.0,44.0,-99.0,668.0,331.0,701.0,0
70.0,30.0,-82.0,294.0,266.0,668.0,0
72.0,10.0,-65.0,21.0,243.0,613.0,0
63.0,-2.0,-57.0,-122.0,256.0,549.0,0
54.0,-11.0,-49.0,-157.0,303.0,479.0,0
40.0,-14.0,-56.0,-114.0,380.0,420.0,0
27.0,-11.0,-61.0,-36.0,489.0,392.0,0
14.0,-9.0,-64.0,40.0,619.0,398.0,0
5.0,1.0,-58.0,144.0,724.0,424.0,0
-11.0,8.0,-54.0,251.0,839.0,461.0,0
-28.0,13.0,-46.0,354.0,923.0,489.0,0
-38.0,13.0,-45.0,435.0,962.0,517.0,0
-51.0,16.0,-62.0,477.0,959.0,522.0,0
-55.0,11.0,-93.0,458.0,922.0,499.0,0
-50.0,6.0,-191.0,378.0,871.0,453.0,0
-22.0,-15.0,-264.0,203.0,864.0,399.0,0
23.0,-50.0,-291.0,-43.0,910.0,344.0,0
75.0,-100.0,-319.0,-228.0,996.0,262.0,0
115.0,-138.0,-367.0,-393.0,1118.0,101.0,0
111.0,-187.0,-328.0,-769.0,1191.0,-153.0,0
43.0,-284.0,-155.0,-1307.0,935.0,-487.0,0
-38.0,-418.0,63.0,-1654.0,271.0,-839.0,0
-68.0,-563.0,220.0,-1522.0,-408.0,-1083.0,0
-22.0,-683.0,295.0,-1014.0,-739.0,-1196.0,0
53.0,-749.0,318.0,-401.0,-651.0,-1238.0,0
132.0,-753.0,244.0,173.0,-284.0,-1312.0,0
150.0,-717.0,54.0,549.0,141.0,-1520.0,0
70.0,-666.0,-201.0,462.0,525.0,-1745.0,0
-58.0,-646.0,-356.0,-217.0,869.0,-1700.0,0
-187.0,-666.0,-380.0,-1220.0,951.0,-1171.0,0
-252.0,-677.0,-310.0,-1982.0,653.0,-257.0,0
-195.0,-662.0,-197.0,-2020.0,146.0,549.0,0
-152.0,-652.0,-113.0,-1366.0,-308.0,902.0,0
-117.0,-641.0,-29.0,-335.0,-677.0,1064.0,0
-84.0,-591.0,28.0,762.0,-944.0,1179.0,0
-59.0,-546.0,57.0,1703.0,-1106.0,1245.0,0
-15.0,-492.0,77.0,2222.0,-1138.0,1336.0,0
38.0,-434.0,90.0,2521.0,-1071.0,1454.0,0
87.0,-379.0,94.0,2447.0,-990.0,1532.0,0
122.0,-335.0,91.0,2057.0,-895.0,1561.0,0
149.0,-312.0,72.0,1407.0,-816.0,1551.0,0
149.0,-300.0,53.0,564.0,-746.0,1479.0,0
117.0,-312.0,45.0,-352.0,-694.0,1352.0,0
76.0,-354.0,53.0,-1196.0,-685.0,1240.0,0
44.0,-406.0,58.0,-1850.0,-715.0,1159.0,0
14.0,-448.0,53.0,-2256.0,-767.0,1064.0,0
-14.0,-476.0,24.0,-2464.0,-820.0,950.0,0
-44.0,-488.0,-3.0,-2530.0,-880.0,827.0,0
-61.0,-486.0,-17.0,-2459.0,-928.0,731.0,0
-85.0,-464.0,-31.0,-2213.0,-934.0,694.0,0
-112.0,-430.0,-40.0,-1812.0,-903.0,708.0,0
-120.0,-388.0,-41.0,-1338.0,-864.0,719.0,0
-123.0,-342.0,-34.0,-873.0,-855.0,713.0,0
-107.0,-297.0,-41.0,-414.0,-877.0,684.0,0
-93.0,-261.0,-32.0,45.0,-890.0,607.0,0
-92.0,-199.0,-51.0,486.0,-873.0,492.0,0
-89.0,-148.0,-56.0,885.0,-849.0,374.0,0
-65.0,-106.0,-52.0,1214.0,-829.0,276.0,0
-31.0,-59.0,-45.0,1498.0,-818.0,182.0,0
10.0,-11.0,-45.0,1773.0,-836.0,64.0,0
41.0,34.0,-57.0,2013.0,-876.0,-93.0,0
63.0,78.0,-72.0,2159.0,-923.0,-272.0,0
69.0,122.0,-86.0,2196.0,-956.0,-426.0,0
65.0,156.0,-96.0,2111.0,-941.0,-522.0,0
74.0,172.0,-100.0,1904.0,-889.0,-552.0,0
74.0,176.0,-105.0,1615.0,-828.0,-550.0,0
64.0,173.0,-117.0,1314.0,-770.0,-557.0,0
53.0,156.0,-114.0,856.0,-731.0,-583.0,0
43.0,132.0,-106.0,351.0,-702.0,-604.0,0
26.0,88.0,-77.0,-146.0,-682.0,-600.0,0
18.0,44.0,-45.0,-561.0,-645.0,-575.0,0
2.0,7.0,-34.0,-812.0,-593.0,-527.0,0
-2.0,-29.0,-40.0,-888.0,-531.0,-466.0,0
-10.0,-52.0,-48.0,-856.0,-448.0,-406.0,0
-15.0,-62.0,-62.0,-768.0,-353.0,-355.0,0
-20.0,-76.0,-79.0,-651.0,-268.0,-309.0,0
-19.0,-87.0,-88.0,-523.0,-194.0,-284.0,0
-16.0,-97.0,-94.0,-374.0,-131.0,-284.0,0
-5.0,-91.0,-97.0,-210.0,-87.0,-300.0,0
4.0,-94.0,-100.0,-44.0,-66.0,-317.0,0
15.0,-85.0,-89.0,125.0,-75.0,-335.0,0
26.0,-76.0,-88.0,312.0,-106.0,-356.0,0
29.0,-66.0,-83.0,510.0,-144.0,-375.0,0
34.0,-59.0,-124.0,704.0,-186.0,-384.0,0
27.0,-54.0,-197.0,829.0,-270.0,-398.0,0
11.0,-50.0,-261.0,851.0,-436.0,-438.0,0
-27.0,-47.0,-281.0,777.0,-608.0,-465.0,0
-62.0,-57.0,-299.0,588.0,-699.0,-403.0,0
-68.0,-80.0,-397.0,182.0,-706.0,-219.0,0
-7.0,-161.0,-340.0,-480.0,-568.0,26.0,0
49.0,-298.0,-91.0,-1075.0,-230.0,296.0,0
57.0,-431.0,132.0,-1272.0,161.0,606.0,0
26.0,-544.0,270.0,-1164.0,359.0,928.0,0
-27.0,-607.0,278.0,-919.0,247.0,1167.0,0
-69.0,-645.0,173.0,-668.0,49.0,1363.0,0
-66.0,-667.0,13.0,-598.0,-85.0,1567.0,0
-33.0,-691.0,-147.0,-770.0,-339.0,1704.0,0
7.0,-746.0,-250.0,-1218.0,-676.0,1672.0,0
52.0,-818.0,-270.0,-1722.0,-1054.0,1367.0,0
55.0,-875.0,-225.0,-2021.0,-1064.0,920.0,0
-8.0,-873.0,-136.0,-1904.0,-599.0,221.0,0
-72.0,-859.0,-59.0,-1303.0,72.0,-432.0,0
-118.0,-821.0,-8.0,-426.0,668.0,-969.0,0
-130.0,-755.0,43.0,476.0,1062.0,-1395.0,0
-130.0,-675.0,70.0,1226.0,1222.0,-1705.0,0
-120.0,-594.0,73.0,1718.0,1186.0,-1909.0,0
-101.0,-515.0,55.0,1885.0,1049.0,-2024.0,0
-79.0,-420.0,47.0,1732.0,887.0,-2105.0,0
-75.0,-347.0,45.0,1336.0,763.0,-2183.0,0
-66.0,-285.0,39.0,772.0,702.0,-2211.0,0
-43.0,-247.0,25.0,119.0,694.0,-2140.0,0
5.0,-247.0,10.0,-578.0,741.0,-1996.0,0
47.0,-274.0,22.0,-1251.0,895.0,-1823.0,0
100.0,-318.0,41.0,-1793.0,1149.0,-1629.0,0
135.0,-359.0,52.0,-2122.0,1415.0,-1430.0,0
158.0,-386.0,76.0,-2251.0,1632.0,-1235.0,0
175.0,-401.0,88.0,-2211.0,1782.0,-1036.0,0
190.0,-395.0,94.0,-2049.0,1849.0,-848.0,0
199.0,-372.0,82.0,-1809.0,1862.0,-673.0,0
203.0,-340.0,69.0,-1522.0,1852.0,-528.0,0
192.0,-293.0,44.0,-1211.0,1847.0,-427.0,0
167.0,-242.0,23.0,-869.0,1859.0,-361.0,0
133.0,-187.0,-16.0,-531.0,1878.0,-278.0,0
100.0,-134.0,-43.0,-225.0,1898.0,-172.0,0
71.0,-79.0,-67.0,47.0,1919.0,-52.0,0
63.0,-42.0,-94.0,253.0,1942.0,65.0,0
43.0,18.0,-114.0,483.0,1942.0,170.0,0
23.0,59.0,-118.0,715.0,1890.0,270.0,0
4.0,89.0,-125.0,941.0,1756.0,362.0,0
-8.0,106.0,-130.0,1101.0,1521.0,486.0,0
-26.0,116.0,-130.0,1149.0,1211.0,569.0,0
-49.0,123.0,-123.0,1064.0,874.0,651.0,0
-74.0,110.0,-113.0,880.0,566.0,748.0,0
-95.0,74.0,-90.0,622.0,309.0,865.0,0
-90.0,29.0,-63.0,350.0,105.0,993.0,0
-79.0,-13.0,-38.0,154.0,-65.0,1054.0,0
-71.0,-44.0,-33.0,89.0,-178.0,1032.0,0
-62.0,-67.0,-38.0,159.0,-205.0,979.0,0
-53.0,-82.0,-48.0,325.0,-167.0,916.0,0
-40.0,-83.0,-60.0,526.0,-91.0,838.0,0
-30.0,-73.0,-81.0,702.0,10.0,754.0,0
-18.0,-59.0,-87.0,824.0,122.0,680.0,0
-4.0,-40.0,-100.0,888.0,236.0,629.0,0
2.0,-7.0,-107.0,894.0,340.0,604.0,0
5.0,18.0,-111.0,850.0,430.0,599.0,0
3.0,42.0,-110.0,744.0,512.0,612.0,0
-9.0,50.0,-97.0,588.0,568.0,628.0,0
-21.0,44.0,-77.0,399.0,592.0,649.0,0
-31.0,34.0,-50.0,208.0,570.0,650.0,0
-48.0,19.0,-19.0,42.0,483.0,622.0,0
-64.0,2.0,9.0,-66.0,338.0,579.0,0
-77.0,-17.0,23.0,-113.0,155.0,531.0,0
-74.0,-35.0,-16.0,-111.0,-33.0,483.0,0
-57.0,-42.0,-145.0,-81.0,-152.0,438.0,0
3.0,-52.0,-199.0,-51.0,-68.0,398.0,0
90.0,-84.0,-300.0,27.0,256.0,320.0,0
187.0,-117.0,-469.0,181.0,679.0,164.0,0
255.0,-148.0,-640.0,37.0,1323.0,-89.0,0
280.0,-241.0,-531.0,-721.0,1683.0,-414.0,0
185.0,-395.0,-174.0,-1593.0,1076.0,-979.0,0
118.0,-578.0,87.0,-1767.0,-73.0,-1463.0,0
150.0,-697.0,222.0,-1338.0,-850.0,-1686.0,0
217.0,-767.0,310.0,-909.0,-1169.0,-1782.0,0
228.0,-825.0,268.0,-584.0,-1312.0,-1930.0,0
156.0,-859.0,-36.0,-270.0,-1158.0,-2092.0,0
74.0,-870.0,-328.0,-374.0,-378.0,-2026.0,0
-74.0,-908.0,-445.0,-1185.0,832.0,-1621.0,0
-295.0,-949.0,-436.0,-2247.0,1762.0,-864.0,0
-406.0,-975.0,-302.0,-3025.0,1815.0,182.0,0
-349.0,-959.0,-144.0,-2972.0,1006.0,1150.0,0
-259.0,-930.0,-19.0,-1880.0,-146.0,1664.0,0
-174.0,-865.0,39.0,-131.0,-1094.0,1746.0,0
-107.0,-766.0,57.0,1646.0,-1613.0,1575.0,0
-44.0,-644.0,67.0,3037.0,-1736.0,1302.0,0
11.0,-504.0,72.0,3856.0,-1548.0,1060.0,0
71.0,-361.0,74.0,4138.0,-1244.0,901.0,0
127.0,-237.0,70.0,3937.0,-980.0,838.0,0
157.0,-144.0,63.0,3304.0,-827.0,832.0,0
164.0,-106.0,48.0,2322.0,-796.0,849.0,0
141.0,-105.0,38.0,1117.0,-845.0,857.0,0
110.0,-141.0,36.0,-108.0,-911.0,880.0,0
92.0,-214.0,49.0,-1151.0,-998.0,904.0,0
71.0,-272.0,49.0,-1906.0,-1105.0,873.0,0
55.0,-334.0,74.0,-2331.0,-1167.0,824.0,0
24.0,-360.0,69.0,-2442.0,-1129.0,815.0,0
-12.0,-370.0,54.0,-2364.0,-1009.0,878.0,0
-35.0,-360.0,32.0,-2123.0,-893.0,992.0,0
-43.0,-328.0,3.0,-1797.0,-775.0,1123.0,0
-43.0,-291.0,-28.0,-1428.0,-703.0,1205.0,0
-38.0,-261.0,-49.0,-1091.0,-673.0,1235.0,0
-41.0,-229.0,-67.0,-804.0,-683.0,1171.0,0
-35.0,-195.0,-75.0,-555.0,-707.0,1079.0,0
-22.0,-176.0,-66.0,-314.0,-745.0,978.0,0
-4.0,-140.0,-42.0,-34.0,-786.0,857.0,0
3.0,-110.0,-43.0,331.0,-835.0,704.0,0
15.0,-65.0,-43.0,717.0,-845.0,488.0,0
8.0,-30.0,-63.0,1096.0,-793.0,219.0,0
13.0,10.0,-85.0,1386.0,-666.0,-69.0,0
20.0,44.0,-95.0,1527.0,-500.0,-324.0,0
13.0,63.0,-110.0,1533.0,-333.0,-522.0,0
5.0,96.0,-98.0,1440.0,-182.0,-696.0,0
-10.0,110.0,-105.0,1300.0,-54.0,-820.0,0
-18.0,128.0,-97.0,1102.0,41.0,-880.0,0
-2.0,129.0,-83.0,859.0,88.0,-888.0,0
6.0,110.0,-70.0,585.0,92.0,-880.0,0
10.0,97.0,-48.0,315.0,66.0,-863.0,0
12.0,80.0,-42.0,86.0,16.0,-810.0,0
15.0,71.0,-43.0,-72.0,-41.0,-723.0,0
19.0,61.0,-59.0,-159.0,-78.0,-624.0,0
20.0,49.0,-80.0,-196.0,-83.0,-524.0,0
14.0,40.0,-94.0,-216.0,-65.0,-441.0,0
7.0,30.0,-115.0,-236.0,-49.0,-389.0,0
3.0,20.0,-130.0,-275.0,-57.0,-372.0,0
1.0,9.0,-137.0,-333.0,-96.0,-383.0,0
3.0,-6.0,-132.0,-417.0,-150.0,-399.0,0
1.0,-19.0,-127.0,-480.0,-202.0,-402.0,0
3.0,-35.0,-116.0,-530.0,-230.0,-397.0,0
2.0,-49.0,-107.0,-526.0,-246.0,-385.0,0
-2.0,-54.0,-89.0,-457.0,-235.0,-370.0,0
-7.0,-58.0,-77.0,-320.0,-197.0,-344.0,0
-12.0,-61.0,-64.0,-131.0,-151.0,-308.0,0
-13.0,-62.0,-80.0,86.0,-108.0,-257.0,0
-10.0,-63.0,-144.0,274.0,-83.0,-199.0,0
-7.0,-61.0,-219.0,334.0,-116.0,-139.0,0
-18.0,-65.0,-270.0,225.0,-193.0,-107.0,0
-36.0,-76.0,-320.0,-7.0,-192.0,-73.0,0
-47.0,-96.0,-443.0,-384.0,-115.0,22.0,0
-34.0,-165.0,-498.0,-987.0,-148.0,197.0,0
46.0,-312.0,-323.0,-1525.0,-239.0,409.0,0
93.0,-468.0,-60.0,-1543.0,-183.0,643.0,0
75.0,-600.0,149.0,-1158.0,0.0,849.0,0
9.0,-665.0,222.0,-723.0,18.0,964.0,0
-52.0,-687.0,127.0,-430.0,-229.0,1055.0,0
-80.0,-714.0,-21.0,-309.0,-429.0,1205.0,0
-71.0,-767.0,-144.0,-353.0,-459.0,1363.0,0
-50.0,-833.0,-210.0,-516.0,-443.0,1372.0,0
-21.0,-882.0,-213.0,-704.0,-410.0,1133.0,0
2.0,-894.0,-176.0,-828.0,-287.0,646.0,0
-23.0,-857.0,-104.0,-707.0,12.0,-22.0,0
-49.0,-811.0,-50.0,-236.0,380.0,-581.0,0
-77.0,-734.0,4.0,450.0,652.0,-916.0,0
-95.0,-664.0,36.0,1176.0,751.0,-1122.0,0
-95.0,-596.0,57.0,1809.0,699.0,-1287.0,0
-94.0,-524.0,65.0,2281.0,566.0,-1462.0,0
-89.0,-444.0,62.0,2486.0,420.0,-1637.0,0
-88.0,-368.0,50.0,2458.0,330.0,-1789.0,0
-96.0,-297.0,47.0,2106.0,266.0,-1880.0,0
-100.0,-236.0,37.0,1503.0,251.0,-1901.0,0
-89.0,-219.0,23.0,749.0,264.0,-1871.0,0
-72.0,-218.0,11.0,-66.0,307.0,-1801.0,0
-39.0,-247.0,19.0,-848.0,407.0,-1703.0,0
2.0,-286.0,34.0,-1481.0,591.0,-1562.0,0
43.0,-326.0,45.0,-1913.0,795.0,-1392.0,0
72.0,-350.0,56.0,-2152.0,953.0,-1203.0,0
111.0,-379.0,66.0,-2243.0,1058.0,-989.0,0
132.0,-394.0,76.0,-2220.0,1108.0,-755.0,0
157.0,-388.0,79.0,-2078.0,1108.0,-522.0,0
176.0,-367.0,64.0,-1820.0,1057.0,-331.0,0
182.0,-334.0,41.0,-1472.0,957.0,-196.0,0
170.0,-290.0,5.0,-1076.0,855.0,-91.0,0
155.0,-237.0,-24.0,-664.0,803.0,-11.0,0
132.0,-182.0,-53.0,-254.0,832.0,73.0,0
114.0,-124.0,-73.0,137.0,933.0,169.0,0
88.0,-66.0,-81.0,485.0,1063.0,245.0,0
66.0,-15.0,-81.0,792.0,1187.0,304.0,0
55.0,25.0,-79.0,1051.0,1273.0,356.0,0
59.0,59.0,-80.0,1222.0,1290.0,402.0,0
57.0,85.0,-89.0,1274.0,1229.0,442.0,0
59.0,104.0,-90.0,1219.0,1098.0,482.0,0
63.0,108.0,-105.0,1081.0,931.0,528.0,0
64.0,93.0,-114.0,848.0,779.0,570.0,0
63.0,63.0,-119.0,528.0,666.0,596.0,0
54.0,19.0,-107.0,185.0,616.0,618.0,0
48.0,-33.0,-84.0,-96.0,613.0,625.0,0
35.0,-80.0,-60.0,-226.0,629.0,583.0,0
23.0,-114.0,-46.0,-206.0,643.0,516.0,0
11.0,-128.0,-45.0,-51.0,652.0,469.0,0
7.0,-134.0,-51.0,186.0,673.0,458.0,0
8.0,-119.0,-74.0,428.0,708.0,447.0,0
1.0,-86.0,-90.0,637.0,762.0,417.0,0
-2.0,-57.0,-103.0,786.0,827.0,385.0,0
-11.0,-22.0,-103.0,887.0,887.0,367.0,0
-26.0,8.0,-97.0,968.0,926.0,373.0,0
-38.0,29.0,-96.0,1025.0,935.0,412.0,0
-46.0,44.0,-97.0,1037.0,909.0,484.0,0
-49.0,53.0,-115.0,982.0,858.0,546.0,0
-45.0,59.0,-210.0,841.0,807.0,564.0,0
-24.0,54.0,-289.0,571.0,839.0,543.0,0
17.0,19.0,-340.0,211.0,981.0,509.0,0
65.0,-31.0,-385.0,-129.0,1226.0,459.0,0
125.0,-76.0,-398.0,-445.0,1498.0,363.0,0
135.0,-149.0,-314.0,-905.0,1553.0,158.0,0
57.0,-265.0,-103.0,-1430.0,999.0,-197.0,0
-42.0,-433.0,132.0,-1646.0,-18.0,-576.0,0
-94.0,-600.0,253.0,-1313.0,-863.0,-865.0,0
-61.0,-727.0,299.0,-746.0,-1233.0,-1063.0,0
10.0,-798.0,294.0,-322.0,-1213.0,-1236.0,0
28.0,-808.0,152.0,-95.0,-935.0,-1478.0,0
-47.0,-776.0,-101.0,-67.0,-443.0,-1773.0,0
-208.0,-748.0,-329.0,-516.0,258.0,-1890.0,0
-361.0,-751.0,-394.0,-1454.0,892.0,-1536.0,0
-404.0,-773.0,-333.0,-2329.0,969.0,-719.0,0
-294.0,-753.0,-239.0,-2485.0,379.0,140.0,0
-210.0,-734.0,-163.0,-1771.0,-446.0,536.0,0
-133.0,-700.0,-94.0,-810.0,-1156.0,694.0,0
-60.0,-644.0,-28.0,545.0,-1613.0,790.0,0
-2.0,-571.0,20.0,1807.0,-1798.0,826.0,0
28.0,-486.0,44.0,2799.0,-1825.0,822.0,0
60.0,-397.0,58.0,3377.0,-1689.0,826.0,0
115.0,-314.0,75.0,3487.0,-1491.0,895.0,0
177.0,-252.0,78.0,3159.0,-1329.0,1024.0,0
225.0,-197.0,47.0,2437.0,-1256.0,1137.0,0
254.0,-174.0,23.0,1386.0,-1234.0,1189.0,0
257.0,-178.0,-6.0,159.0,-1203.0,1196.0,0
228.0,-230.0,-11.0,-1038.0,-1128.0,1222.0,0
175.0,-335.0,17.0,-2039.0,-1013.0,1258.0,0
125.0,-408.0,44.0,-2754.0,-922.0,1237.0,0
77.0,-467.0,60.0,-3109.0,-903.0,1173.0,0
33.0,-503.0,52.0,-3104.0,-939.0,1108.0,0
-6.0,-500.0,28.0,-2812.0,-983.0,1074.0,0
-38.0,-475.0,5.0,-2336.0,-996.0,1070.0,0
-58.0,-438.0,-20.0,-1732.0,-987.0,1076.0,0
-72.0,-387.0,-22.0,-1041.0,-983.0,1094.0,0
-75.0,-328.0,-31.0,-339.0,-968.0,1109.0,0
-79.0,-260.0,-36.0,286.0,-932.0,1089.0,0
-82.0,-191.0,-27.0,818.0,-878.0,1014.0,0
-93.0,-125.0,-33.0,1251.0,-808.0,902.0,0
-92.0,-67.0,-47.0,1573.0,-739.0,784.0,0
-82.0,-17.0,-55.0,1770.0,-702.0,661.0,0
-62.0,27.0,-66.0,1861.0,-716.0,505.0,0
-32.0,62.0,-85.0,1869.0,-782.0,308.0,0
-5.0,85.0,-111.0,1790.0,-871.0,92.0,0
8.0,95.0,-127.0,1612.0,-935.0,-124.0,0
35.0,110.0,-124.0,1402.0,-969.0,-342.0,0
77.0,121.0,-146.0,1235.0,-990.0,-563.0,0
73.0,129.0,-165.0,1020.0,-985.0,-725.0,0
63.0,118.0,-143.0,764.0,-910.0,-766.0,0
58.0,71.0,-133.0,471.0,-756.0,-745.0,0
66.0,58.0,-78.0,193.0,-599.0,-725.0,0
37.0,17.0,-65.0,-19.0,-487.0,-738.0,0
22.0,-5.0,-12.0,-124.0,-408.0,-715.0,0
13.0,-28.0,3.0,-86.0,-368.0,-625.0,0
0.0,-36.0,-14.0,54.0,-348.0,-509.0,0
-6.0,-35.0,-28.0,226.0,-305.0,-409.0,0
-8.0,-29.0,-58.0,396.0,-225.0,-333.0,0
-17.0,-25.0,-84.0,513.0,-117.0,-298.0,0
-29.0,-18.0,-114.0,550.0,-12.0,-303.0,0
-32.0,-15.0,-133.0,510.0,62.0,-324.0,0
-28.0,-26.0,-150.0,408.0,87.0,-353.0,0
-17.0,-31.0,-145.0,264.0,60.0,-390.0,0
-7.0,-34.0,-137.0,123.0,-5.0,-427.0,0
4.0,-47.0,-101.0,34.0,-92.0,-460.0,0
11.0,-52.0,-74.0,37.0,-173.0,-481.0,0
20.0,-54.0,-31.0,133.0,-215.0,-483.0,0
20.0,-52.0,-9.0,314.0,-205.0,-472.0,0
45.0,-61.0,-25.0,547.0,-136.0,-455.0,0
42.0,-57.0,-89.0,734.0,-64.0,-438.0,0
27.0,-56.0,-177.0,776.0,-87.0,-414.0,0
-2.0,-60.0,-207.0,681.0,-233.0,-394.0,0
-56.0,-79.0,-251.0,472.0,-392.0,-327.0,0
-87.0,-93.0,-358.0,33.0,-503.0,-156.0,0
-55.0,-157.0,-450.0,-760.0,-480.0,104.0,0
46.0,-306.0,-240.0,-1633.0,-113.0,382.0,0
61.0,-482.0,55.0,-2000.0,428.0,653.0,0
31.0,-628.0,213.0,-2043.0,706.0,891.0,0
-70.0,-710.0,196.0,-1959.0,600.0,1058.0,0
-138.0,-783.0,180.0,-1860.0,358.0,1226.0,0
-123.0,-849.0,83.0,-1735.0,220.0,1534.0,0
-96.0,-912.0,-64.0,-1693.0,-69.0,1747.0,0
-25.0,-987.0,-217.0,-1853.0,-549.0,1628.0,0
56.0,-1019.0,-270.0,-2024.0,-886.0,1071.0,0
70.0,-977.0,-265.0,-1849.0,-676.0,184.0,0
21.0,-896.0,-142.0,-1152.0,36.0,-677.0,0
-26.0,-805.0,-44.0,-110.0,783.0,-1262.0,0
-58.0,-697.0,26.0,992.0,1235.0,-1603.0,0
-56.0,-584.0,63.0,1937.0,1410.0,-1764.0,0
-33.0,-482.0,72.0,2549.0,1405.0,-1817.0,0
5.0,-386.0,72.0,2690.0,1279.0,-1824.0,0
17.0,-327.0,71.0,2334.0,1077.0,-1814.0,0
-11.0,-257.0,72.0,1595.0,877.0,-1779.0,0
-22.0,-185.0,69.0,681.0,769.0,-1717.0,0
-18.0,-179.0,59.0,-235.0,747.0,-1638.0,0
-21.0,-158.0,8.0,-1100.0,797.0,-1546.0,0
-21.0,-211.0,39.0,-1841.0,914.0,-1422.0,0
15.0,-255.0,30.0,-2351.0,1098.0,-1254.0,0
49.0,-307.0,17.0,-2657.0,1291.0,-1065.0,0
68.0,-341.0,28.0,-2749.0,1456.0,-872.0,0
70.0,-357.0,43.0,-2639.0,1573.0,-701.0,0
86.0,-373.0,58.0,-2406.0,1626.0,-557.0,0
106.0,-375.0,66.0,-2101.0,1628.0,-434.0,0
114.0,-351.0,60.0,-1764.0,1601.0,-355.0,0
115.0,-310.0,46.0,-1437.0,1568.0,-326.0,0
92.0,-275.0,43.0,-1140.0,1537.0,-306.0,0
65.0,-232.0,23.0,-865.0,1497.0,-252.0,0
48.0,-184.0,10.0,-649.0,1431.0,-158.0,0
18.0,-135.0,1.0,-369.0,1360.0,-55.0,0
3.0,-101.0,-13.0,-72.0,1255.0,32.0,0
-2.0,-70.0,-32.0,238.0,1140.0,97.0,0
1.0,-37.0,-55.0,549.0,1027.0,169.0,0
1.0,-9.0,-78.0,845.0,915.0,247.0,0
6.0,6.0,-90.0,1130.0,793.0,303.0,0
13.0,28.0,-115.0,1342.0,649.0,381.0,0
23.0,47.0,-121.0,1444.0,502.0,478.0,0
17.0,60.0,-148.0,1434.0,384.0,573.0,0
9.0,61.0,-153.0,1316.0,317.0,656.0,0
0.0,57.0,-152.0,1107.0,304.0,731.0,0
-5.0,38.0,-139.0,843.0,317.0,785.0,0
-2.0,13.0,-111.0,587.0,307.0,790.0,0
-7.0,-1.0,-96.0,421.0,252.0,734.0,0
8.0,-18.0,-75.0,347.0,174.0,658.0,0
17.0,-31.0,-65.0,349.0,110.0,572.0,0
31.0,-31.0,-59.0,385.0,91.0,483.0,0
27.0,-13.0,-68.0,425.0,128.0,398.0,0
30.0,-4.0,-73.0,452.0,217.0,335.0,0
21.0,10.0,-66.0,469.0,338.0,307.0,0
16.0,9.0,-62.0,482.0,470.0,312.0,0
14.0,20.0,-51.0,486.0,595.0,332.0,0
7.0,18.0,-42.0,478.0,683.0,353.0,0
-6.0,17.0,-33.0,450.0,716.0,368.0,0
-14.0,10.0,-35.0,400.0,688.0,366.0,0
-11.0,-1.0,-74.0,341.0,620.0,365.0,0
1.0,-2.0,-178.0,259.0,569.0,361.0,0
46.0,-3.0,-277.0,94.0,602.0,362.0,0
132.0,-43.0,-342.0,-145.0,748.0,331.0,0
215.0,-50.0,-490.0,-379.0,1061.0,252.0,0
305.0,-98.0,-655.0,-864.0,1461.0,98.0,0
327.0,-210.0,-628.0,-1649.0,1830.0,-246.0,0
206.0,-359.0,-329.0,-2396.0,1481.0,-707.0,0
47.0,-540.0,-8.0,-2548.0,564.0,-1272.0,0
16.0,-735.0,189.0,-2048.0,-204.0,-1575.0,0
60.0,-815.0,280.0,-1328.0,-541.0,-1711.0,0
89.0,-844.0,309.0,-534.0,-587.0,-1860.0,0
44.0,-884.0,183.0,364.0,-465.0,-2064.0,0
-68.0,-861.0,-94.0,1090.0,-87.0,-2166.0,0
-210.0,-841.0,-322.0,1078.0,589.0,-1941.0,0
-364.0,-842.0,-411.0,231.0,1197.0,-1261.0,0
-450.0,-836.0,-379.0,-928.0,1282.0,-239.0,0
-348.0,-798.0,-276.0,-1700.0,730.0,797.0,0
-233.0,-768.0,-164.0,-1651.0,-213.0,1406.0,0
-121.0,-720.0,-49.0,-900.0,-1099.0,1598.0,0
-37.0,-649.0,22.0,274.0,-1712.0,1487.0,0
25.0,-562.0,53.0,1482.0,-2006.0,1231.0,0
63.0,-457.0,69.0,2401.0,-1985.0,1017.0,0
110.0,-359.0,68.0,2850.0,-1742.0,933.0,0
161.0,-269.0,67.0,2840.0,-1452.0,951.0,0
204.0,-204.0,56.0,2457.0,-1225.0,999.0,0
227.0,-169.0,36.0,1773.0,-1079.0,1019.0,0
230.0,-156.0,25.0,891.0,-989.0,1005.0,0
201.0,-191.0,20.0,-26.0,-942.0,999.0,0
178.0,-245.0,37.0,-808.0,-948.0,1032.0,0
143.0,-308.0,56.0,-1367.0,-999.0,1095.0,0
114.0,-347.0,61.0,-1675.0,-1067.0,1157.0,0
75.0,-376.0,69.0,-1762.0,-1112.0,1227.0,0
26.0,-379.0,55.0,-1728.0,-1113.0,1318.0,0
-18.0,-370.0,52.0,-1617.0,-1081.0,1427.0,0
-54.0,-353.0,41.0,-1482.0,-1049.0,1531.0,0
-65.0,-328.0,29.0,-1352.0,-1021.0,1584.0,0
-71.0,-307.0,6.0,-1241.0,-990.0,1576.0,0
-86.0,-288.0,-12.0,-1145.0,-924.0,1482.0,0
-102.0,-275.0,-26.0,-1035.0,-812.0,1345.0,0
-113.0,-257.0,-33.0,-915.0,-654.0,1200.0,0
-116.0,-245.0,-33.0,-747.0,-497.0,1043.0,0
-112.0,-218.0,-34.0,-459.0,-406.0,849.0,0
-101.0,-186.0,-34.0,-27.0,-372.0,643.0,0
-94.0,-143.0,-45.0,501.0,-370.0,421.0,0
-75.0,-82.0,-53.0,1047.0,-393.0,136.0,0
-55.0,-17.0,-78.0,1551.0,-443.0,-177.0,0
-30.0,62.0,-112.0,1933.0,-483.0,-418.0,0
-8.0,107.0,-139.0,2145.0,-500.0,-559.0,0
5.0,141.0,-154.0,2167.0,-478.0,-653.0,0
11.0,165.0,-157.0,2011.0,-420.0,-742.0,0
13.0,181.0,-157.0,1708.0,-358.0,-810.0,0
19.0,174.0,-158.0,1264.0,-326.0,-815.0,0
36.0,140.0,-142.0,679.0,-334.0,-783.0,0
43.0,98.0,-97.0,45.0,-373.0,-769.0,0
46.0,44.0,-44.0,-480.0,-421.0,-748.0,0
43.0,-1.0,-12.0,-742.0,-468.0,-707.0,0
36.0,-35.0,-18.0,-752.0,-495.0,-642.0,0
27.0,-56.0,-31.0,-598.0,-477.0,-568.0,0
25.0,-72.0,-43.0,-351.0,-421.0,-507.0,0
19.0,-78.0,-58.0,-64.0,-344.0,-478.0,0
12.0,-89.0,-78.0,209.0,-253.0,-483.0,0
11.0,-72.0,-100.0,381.0,-170.0,-512.0,0
9.0,-65.0,-107.0,521.0,-119.0,-555.0,0
11.0,-57.0,-111.0,588.0,-87.0,-588.0,0
10.0,-46.0,-109.0,590.0,-104.0,-600.0,0
4.0,-26.0,-101.0,550.0,-158.0,-596.0,0
5.0,-18.0,-94.0,502.0,-216.0,-567.0,0
3.0,-10.0,-84.0,473.0,-242.0,-519.0,0
2.0,-6.0,-61.0,471.0,-210.0,-465.0,0
-3.0,-3.0,-38.0,506.0,-116.0,-394.0,0
1.0,-2.0,-33.0,566.0,9.0,-303.0,0
3.0,-2.0,-71.0,602.0,125.0,-211.0,0
-3.0,8.0,-152.0,541.0,164.0,-129.0,0
-26.0,12.0,-245.0,340.0,47.0,-67.0,0
-77.0,8.0,-300.0,8.0,-196.0,-11.0,0
-125.0,-17.0,-424.0,-482.0,-442.0,113.0,0
-113.0,-66.0,-621.0,-1251.0,-786.0,338.0,0
32.0,-233.0,-538.0,-2179.0,-1015.0,656.0,0
98.0,-459.0,-194.0,-2536.0,-734.0,1058.0,0
35.0,-641.0,141.0,-2181.0,-79.0,1451.0,0
-69.0,-742.0,302.0,-1656.0,285.0,1704.0,0
-153.0,-771.0,240.0,-1236.0,94.0,1809.0,0
-175.0,-793.0,121.0,-913.0,-146.0,1895.0,0
-132.0,-858.0,-112.0,-771.0,-317.0,1941.0,0
-75.0,-944.0,-251.0,-1046.0,-578.0,1827.0,0
10.0,-1048.0,-307.0,-1596.0,-912.0,1464.0,0
105.0,-1097.0,-298.0,-1956.0,-1057.0,774.0,0
114.0,-1067.0,-217.0,-1711.0,-775.0,-232.0,0
66.0,-984.0,-127.0,-763.0,-73.0,-1169.0,0
22.0,-876.0,-43.0,586.0,693.0,-1706.0,0
-12.0,-743.0,17.0,1685.0,1194.0,-1940.0,0
-30.0,-616.0,62.0,2846.0,1392.0,-1997.0,0
-41.0,-485.0,73.0,3585.0,1455.0,-1942.0,0
-41.0,-370.0,80.0,3792.0,1350.0,-1854.0,0
-42.0,-256.0,76.0,3468.0,1117.0,-1752.0,0
-57.0,-151.0,64.0,2746.0,873.0,-1696.0,0
-70.0,-75.0,55.0,1817.0,723.0,-1692.0,0
-76.0,-44.0,41.0,835.0,710.0,-1675.0,0
-74.0,-57.0,29.0,-115.0,832.0,-1612.0,0
-40.0,-121.0,36.0,-978.0,1020.0,-1484.0,0
6.0,-182.0,43.0,-1680.0,1220.0,-1326.0,0
45.0,-241.0,59.0,-2178.0,1417.0,-1172.0,0
91.0,-299.0,74.0,-2442.0,1596.0,-1012.0,0
120.0,-347.0,82.0,-2526.0,1705.0,-834.0,0
143.0,-374.0,80.0,-2453.0,1726.0,-642.0,0
164.0,-379.0,55.0,-2235.0,1672.0,-489.0,0
163.0,-373.0,28.0,-1919.0,1570.0,-405.0,0
155.0,-354.0,-5.0,-1553.0,1469.0,-371.0,0
127.0,-313.0,-22.0,-1158.0,1409.0,-373.0,0
95.0,-266.0,-33.0,-731.0,1402.0,-369.0,0
61.0,-217.0,-49.0,-278.0,1423.0,-324.0,0
29.0,-158.0,-69.0,182.0,1453.0,-260.0,0
5.0,-104.0,-75.0,609.0,1472.0,-180.0,0
-11.0,-58.0,-84.0,971.0,1476.0,-99.0,0
-25.0,-14.0,-87.0,1252.0,1428.0,-35.0,0
-35.0,21.0,-92.0,1437.0,1315.0,18.0,0
-43.0,55.0,-108.0,1519.0,1142.0,93.0,0
-41.0,76.0,-126.0,1472.0,935.0,195.0,0
-36.0,89.0,-141.0,1299.0,736.0,316.0,0
-36.0,89.0,-151.0,1095.0,579.0,439.0,0
-37.0,70.0,-143.0,790.0,464.0,557.0,0
-37.0,29.0,-114.0,458.0,391.0,658.0,0
-37.0,-16.0,-80.0,162.0,298.0,714.0,0
-30.0,-57.0,-59.0,-18.0,186.0,726.0,0
-22.0,-71.0,-43.0,-50.0,80.0,685.0,0
-11.0,-83.0,-55.0,53.0,15.0,622.0,0
0.0,-81.0,-66.0,236.0,13.0,548.0,0
6.0,-62.0,-83.0,432.0,66.0,477.0,0
12.0,-43.0,-87.0,603.0,158.0,418.0,0
18.0,-19.0,-94.0,739.0,268.0,371.0,0
13.0,8.0,-88.0,837.0,378.0,330.0,0
3.0,30.0,-85.0,884.0,471.0,317.0,0
1.0,42.0,-82.0,879.0,532.0,327.0,0
-2.0,51.0,-79.0,821.0,555.0,334.0,0
-8.0,46.0,-89.0,718.0,539.0,327.0,0
4.0,49.0,-155.0,565.0,505.0,322.0,0
34.0,42.0,-244.0,324.0,536.0,310.0,0
72.0,12.0,-323.0,22.0,710.0,313.0,0
132.0,-41.0,-371.0,-205.0,1028.0,336.0,0
200.0,-89.0,-413.0,-367.0,1387.0,308.0,0
233.0,-172.0,-341.0,-705.0,1513.0,140.0,0
167.0,-311.0,-96.0,-1137.0,1106.0,-202.0,0
59.0,-478.0,135.0,-1217.0,339.0,-581.0,0
-2.0,-619.0,257.0,-839.0,-303.0,-835.0,0
22.0,-708.0,297.0,-312.0,-620.0,-994.0,0
103.0,-742.0,291.0,157.0,-720.0,-1208.0,0
149.0,-727.0,216.0,568.0,-721.0,-1572.0,0
130.0,-706.0,40.0,872.0,-497.0,-1956.0,0
70.0,-695.0,-165.0,724.0,95.0,-2059.0,0
-84.0,-712.0,-297.0,94.0,840.0,-1762.0,0
-268.0,-740.0,-334.0,-1134.0,1225.0,-1007.0,0
-353.0,-777.0,-316.0,-2292.0,1172.0,-168.0,0
-284.0,-764.0,-242.0,-2875.0,604.0,757.0,0
-228.0,-755.0,-146.0,-2590.0,-164.0,1195.0,0
-171.0,-726.0,-40.0,-1585.0,-836.0,1358.0,0
-113.0,-678.0,43.0,-179.0,-1272.0,1405.0,0
-63.0,-608.0,84.0,1301.0,-1460.0,1384.0,0
-29.0,-528.0,98.0,2540.0,-1480.0,1319.0,0
5.0,-445.0,92.0,3320.0,-1417.0,1260.0,0
54.0,-335.0,89.0,3562.0,-1314.0,1227.0,0
86.0,-257.0,85.0,3311.0,-1211.0,1182.0,0
97.0,-199.0,76.0,2641.0,-1153.0,1101.0,0
84.0,-181.0,63.0,1659.0,-1160.0,999.0,0
55.0,-217.0,55.0,498.0,-1210.0,924.0,0
30.0,-283.0,68.0,-668.0,-1262.0,908.0,0
9.0,-352.0,76.0,-1611.0,-1308.0,901.0,0
-12.0,-412.0,83.0,-2213.0,-1335.0,893.0,0
-22.0,-451.0,68.0,-2466.0,-1354.0,883.0,0
-37.0,-465.0,45.0,-2464.0,-1366.0,872.0,0
-55.0,-459.0,18.0,-2285.0,-1356.0,873.0,0
-65.0,-432.0,-17.0,-1977.0,-1322.0,891.0,0
-67.0,-392.0,-36.0,-1622.0,-1273.0,938.0,0
-48.0,-354.0,-48.0,-1260.0,-1218.0,974.0,0
-37.0,-316.0,-49.0,-877.0,-1147.0,963.0,0
-26.0,-273.0,-46.0,-480.0,-1073.0,901.0,0
-20.0,-231.0,-50.0,-94.0,-1022.0,811.0,0
-4.0,-188.0,-58.0,256.0,-992.0,721.0,0
18.0,-151.0,-64.0,572.0,-977.0,606.0,0
50.0,-96.0,-52.0,876.0,-965.0,471.0,0
65.0,-43.0,-52.0,1132.0,-940.0,315.0,0
79.0,-2.0,-64.0,1437.0,-900.0,149.0,0
85.0,37.0,-75.0,1655.0,-819.0,-23.0,0
84.0,77.0,-73.0,1747.0,-710.0,-162.0,0
70.0,114.0,-83.0,1756.0,-609.0,-304.0,0
65.0,136.0,-84.0,1704.0,-514.0,-393.0,0
52.0,147.0,-86.0,1598.0,-440.0,-447.0,0
32.0,154.0,-94.0,1421.0,-389.0,-479.0,0
8.0,146.0,-101.0,1154.0,-368.0,-466.0,0
-16.0,132.0,-98.0,804.0,-362.0,-410.0,0
-26.0,100.0,-83.0,398.0,-357.0,-322.0,0
-35.0,70.0,-66.0,12.0,-364.0,-261.0,0
-41.0,37.0,-55.0,-273.0,-370.0,-226.0,0
-37.0,4.0,-56.0,-421.0,-376.0,-212.0,0
-26.0,-27.0,-68.0,-441.0,-373.0,-209.0,0
-21.0,-52.0,-79.0,-367.0,-358.0,-212.0,0
-20.0,-67.0,-86.0,-243.0,-355.0,-231.0,0
-9.0,-87.0,-98.0,-93.0,-377.0,-287.0,0
0.0,-92.0,-109.0,52.0,-434.0,-383.0,0
8.0,-93.0,-113.0,160.0,-510.0,-501.0,0
18.0,-91.0,-114.0,229.0,-579.0,-606.0,0
23.0,-84.0,-106.0,275.0,-615.0,-689.0,0
29.0,-81.0,-89.0,316.0,-604.0,-744.0,0
29.0,-69.0,-78.0,368.0,-548.0,-768.0,0
26.0,-60.0,-68.0,433.0,-455.0,-762.0,0
21.0,-55.0,-61.0,507.0,-332.0,-729.0,0
8.0,-54.0,-95.0,575.0,-188.0,-672.0,0
-10.0,-46.0,-156.0,582.0,-75.0,-612.0,0
-44.0,-46.0,-243.0,506.0,-33.0,-562.0,0
-89.0,-51.0,-290.0,329.0,-16.0,-489.0,0
-138.0,-61.0,-321.0,92.0,52.0,-328.0,0
-142.0,-94.0,-391.0,-372.0,153.0,-57.0,0
-106.0,-166.0,-421.0,-1102.0,229.0,225.0,0
-36.0,-310.0,-247.0,-1847.0,380.0,444.0,0
-1.0,-487.0,26.0,-2187.0,593.0,775.0,0
-17.0,-638.0,223.0,-2091.0,689.0,1126.0,0
-70.0,-750.0,292.0,-1751.0,464.0,1420.0,0
-85.0,-795.0,223.0,-1270.0,37.0,1651.0,0
-63.0,-813.0,45.0,-770.0,-255.0,1849.0,0
10.0,-826.0,-156.0,-550.0,-403.0,1947.0,0
94.0,-851.0,-285.0,-777.0,-568.0,1803.0,0
176.0,-881.0,-339.0,-1144.0,-689.0,1292.0,0
146.0,-842.0,-304.0,-1297.0,-500.0,471.0,0
72.0,-791.0,-209.0,-965.0,98.0,-366.0,0
9.0,-728.0,-90.0,-224.0,798.0,-946.0,0
-28.0,-653.0,16.0,712.0,1257.0,-1301.0,0
-44.0,-567.0,92.0,1656.0,1411.0,-1507.0,0
-43.0,-483.0,120.0,2401.0,1356.0,-1619.0,0
-38.0,-409.0,110.0,2780.0,1208.0,-1667.0,0
-11.0,-346.0,90.0,2706.0,1050.0,-1659.0,0
3.0,-292.0,74.0,2218.0,947.0,-1638.0,0
-6.0,-233.0,60.0,1458.0,931.0,-1629.0,0
-31.0,-201.0,40.0,588.0,982.0,-1629.0,0
-40.0,-190.0,27.0,-288.0,1083.0,-1575.0,0
-24.0,-218.0,26.0,-1096.0,1227.0,-1472.0,0
19.0,-296.0,47.0,-1772.0,1404.0,-1350.0,0
56.0,-355.0,67.0,-2256.0,1590.0,-1209.0,0
77.0,-401.0,87.0,-2497.0,1736.0,-1055.0,0
97.0,-432.0,94.0,-2505.0,1825.0,-906.0,0
104.0,-442.0,93.0,-2359.0,1848.0,-776.0,0
107.0,-434.0,97.0,-2164.0,1832.0,-666.0,0
118.0,-407.0,82.0,-1826.0,1801.0,-582.0,0
130.0,-369.0,64.0,-1439.0,1745.0,-527.0,0
131.0,-324.0,36.0,-1074.0,1691.0,-499.0,0
128.0,-270.0,18.0,-776.0,1654.0,-467.0,0
116.0,-217.0,-12.0,-528.0,1645.0,-420.0,0
88.0,-162.0,-25.0,-317.0,1664.0,-338.0,0
66.0,-112.0,-41.0,-145.0,1699.0,-234.0,0
45.0,-68.0,-56.0,5.0,1743.0,-108.0,0
28.0,-24.0,-59.0,184.0,1775.0,41.0,0
23.0,8.0,-64.0,428.0,1792.0,181.0,0
16.0,37.0,-68.0,707.0,1769.0,278.0,0
3.0,69.0,-87.0,986.0,1683.0,333.0,0
-30.0,88.0,-98.0,1198.0,1541.0,367.0,0
-71.0,107.0,-123.0,1286.0,1348.0,407.0,0
-107.0,109.0,-140.0,1222.0,1098.0,466.0,0
-137.0,99.0,-152.0,1025.0,817.0,555.0,0
-133.0,69.0,-142.0,708.0,552.0,675.0,0
-95.0,12.0,-122.0,358.0,318.0,790.0,0
-60.0,-27.0,-99.0,78.0,125.0,798.0,0
-32.0,-57.0,-92.0,-64.0,29.0,739.0,0
-16.0,-70.0,-85.0,-84.0,32.0,661.0,0
-6.0,-70.0,-84.0,-15.0,84.0,580.0,0
2.0,-64.0,-85.0,86.0,147.0,504.0,0
8.0,-53.0,-74.0,195.0,200.0,450.0,0
10.0,-37.0,-67.0,322.0,242.0,417.0,0
12.0,-21.0,-61.0,451.0,277.0,418.0,0
10.0,-8.0,-51.0,556.0,314.0,442.0,0
3.0,7.0,-38.0,631.0,364.0,480.0,0
-3.0,11.0,-28.0,658.0,405.0,512.0,0
-22.0,21.0,-13.0,642.0,410.0,535.0,0
-35.0,22.0,1.0,586.0,376.0,549.0,0
-45.0,15.0,-1.0,504.0,292.0,552.0,0
-51.0,11.0,-81.0,405.0,193.0,547.0,0
-20.0,13.0,-166.0,257.0,147.0,546.0,0
34.0,1.0,-276.0,28.0,231.0,537.0,0
122.0,-25.0,-341.0,-248.0,513.0,502.0,0
227.0,-76.0,-432.0,-545.0,1032.0,421.0,0
281.0,-155.0,-526.0,-959.0,1677.0,187.0,0
260.0,-284.0,-342.0,-1639.0,1872.0,-274.0,0
130.0,-447.0,-57.0,-2184.0,1059.0,-920.0,0
33.0,-600.0,97.0,-2119.0,-237.0,-1488.0,0
54.0,-723.0,205.0,-1649.0,-1084.0,-1748.0,0
114.0,-809.0,276.0,-1084.0,-1286.0,-1806.0,0
142.0,-887.0,273.0,-492.0,-1163.0,-1920.0,0
83.0,-951.0,51.0,113.0,-813.0,-2152.0,0
-50.0,-943.0,-263.0,235.0,-71.0,-2237.0,0
-218.0,-934.0,-432.0,-485.0,867.0,-1913.0,0
-389.0,-933.0,-429.0,-1648.0,1449.0,-1106.0,0
-360.0,-899.0,-298.0,-2486.0,1213.0,-18.0,0
-255.0,-854.0,-193.0,-2362.0,310.0,820.0,0
-130.0,-779.0,-73.0,-1385.0,-634.0,1259.0,0
-58.0,-692.0,3.0,44.0,-1300.0,1373.0,0
-18.0,-580.0,54.0,1515.0,-1688.0,1271.0,0
0.0,-468.0,83.0,2702.0,-1790.0,1118.0,0
24.0,-359.0,90.0,3415.0,-1670.0,1043.0,0
83.0,-250.0,92.0,3602.0,-1489.0,1071.0,0
134.0,-180.0,82.0,3333.0,-1335.0,1141.0,0
175.0,-134.0,63.0,2660.0,-1229.0,1197.0,0
195.0,-138.0,44.0,1648.0,-1163.0,1224.0,0
186.0,-168.0,41.0,439.0,-1127.0,1199.0,0
149.0,-242.0,54.0,-488.0,-1115.0,1177.0,0
119.0,-325.0,85.0,-1407.0,-1114.0,1197.0,0
79.0,-393.0,115.0,-1946.0,-1124.0,1203.0,0
41.0,-428.0,122.0,-2123.0,-1145.0,1195.0,0
9.0,-440.0,110.0,-2075.0,-1174.0,1198.0,0
-21.0,-425.0,94.0,-1923.0,-1205.0,1232.0,0
-38.0,-392.0,75.0,-1716.0,-1226.0,1299.0,0
-47.0,-357.0,59.0,-1469.0,-1237.0,1357.0,0
-66.0,-320.0,29.0,-1198.0,-1233.0,1383.0,0
-88.0,-268.0,-8.0,-980.0,-1176.0,1368.0,0
-102.0,-234.0,-21.0,-833.0,-1084.0,1307.0,0
-113.0,-211.0,-40.0,-732.0,-981.0,1196.0,0
-121.0,-179.0,-51.0,-646.0,-880.0,1055.0,0
-94.0,-147.0,-52.0,-544.0,-806.0,900.0,0
-73.0,-118.0,-70.0,-361.0,-828.0,720.0,0
-40.0,-73.0,-85.0,-107.0,-894.0,482.0,0
-7.0,-51.0,-110.0,181.0,-956.0,186.0,0
16.0,-12.0,-132.0,434.0,-971.0,-181.0,0
18.0,24.0,-143.0,625.0,-934.0,-533.0,0
21.0,61.0,-141.0,757.0,-844.0,-785.0,0
19.0,86.0,-130.0,845.0,-715.0,-944.0,0
24.0,105.0,-125.0,911.0,-565.0,-1041.0,0
26.0,105.0,-121.0,931.0,-424.0,-1071.0,0
34.0,98.0,-113.0,869.0,-321.0,-1062.0,0
40.0,76.0,-96.0,710.0,-245.0,-1044.0,0
36.0,60.0,-82.0,487.0,-179.0,-1006.0,0
31.0,45.0,-61.0,252.0,-132.0,-919.0,0
24.0,30.0,-47.0,62.0,-116.0,-801.0,0
13.0,17.0,-40.0,-50.0,-140.0,-674.0,0
11.0,13.0,-47.0,-97.0,-185.0,-551.0,0
10.0,8.0,-56.0,-101.0,-222.0,-432.0,0
8.0,8.0,-73.0,-78.0,-243.0,-345.0,0
7.0,7.0,-84.0,-32.0,-251.0,-303.0,0
8.0,8.0,-97.0,12.0,-257.0,-299.0,0
13.0,3.0,-110.0,35.0,-276.0,-312.0,0
15.0,2.0,-121.0,33.0,-314.0,-330.0,0
15.0,-4.0,-123.0,14.0,-362.0,-355.0,0
12.0,-7.0,-132.0,-7.0,-400.0,-384.0,0
20.0,-10.0,-116.0,-6.0,-408.0,-418.0,0
29.0,-15.0,-102.0,25.0,-379.0,-442.0,0
28.0,-21.0,-83.0,90.0,-305.0,-449.0,0
31.0,-28.0,-68.0,180.0,-207.0,-437.0,0
23.0,-27.0,-84.0,280.0,-118.0,-410.0,0
21.0,-24.0,-148.0,346.0,-80.0,-370.0,0
5.0,-23.0,-249.0,289.0,-148.0,-328.0,0
-23.0,-32.0,-304.0,80.0,-298.0,-289.0,0
-65.0,-55.0,-352.0,-275.0,-448.0,-198.0,0
-88.0,-108.0,-477.0,-750.0,-701.0,-7.0,0
-20.0,-240.0,-414.0,-1297.0,-994.0,295.0,0
60.0,-430.0,-168.0,-1567.0,-912.0,698.0,0
48.0,-600.0,124.0,-1385.0,-384.0,1117.0,0
-19.0,-699.0,292.0,-1001.0,123.0,1416.0,0
-103.0,-729.0,270.0,-616.0,159.0,1526.0,0
-149.0,-741.0,142.0,-254.0,-66.0,1589.0,0
-148.0,-767.0,-3.0,10.0,-249.0,1682.0,0
-105.0,-810.0,-142.0,-37.0,-492.0,1743.0,0
-41.0,-869.0,-257.0,-482.0,-887.0,1634.0,0
52.0,-952.0,-331.0,-1111.0,-1222.0,1234.0,0
124.0,-989.0,-335.0,-1610.0,-1111.0,479.0,0
89.0,-945.0,-229.0,-1626.0,-415.0,-433.0,0
30.0,-870.0,-100.0,-984.0,483.0,-1074.0,0
-27.0,-769.0,13.0,73.0,1091.0,-1403.0,0
-67.0,-656.0,85.0,1030.0,1344.0,-1558.0,0
-79.0,-544.0,117.0,2160.0,1393.0,-1601.0,0
-78.0,-446.0,108.0,3003.0,1304.0,-1615.0,0
-78.0,-348.0,84.0,3354.0,1055.0,-1644.0,0
-89.0,-223.0,53.0,3120.0,733.0,-1704.0,0
-93.0,-136.0,35.0,2401.0,512.0,-1715.0,0
-89.0,-96.0,17.0,1399.0,479.0,-1662.0,0
-72.0,-116.0,8.0,293.0,611.0,-1599.0,0
-53.0,-181.0,20.0,-784.0,852.0,-1560.0,0
-17.0,-256.0,50.0,-1706.0,1143.0,-1504.0,0
17.0,-331.0,73.0,-2355.0,1425.0,-1405.0,0
52.0,-395.0,86.0,-2707.0,1643.0,-1271.0,0
89.0,-436.0,77.0,-2813.0,1769.0,-1130.0,0
113.0,-452.0,62.0,-2754.0,1789.0,-985.0,0
126.0,-450.0,45.0,-2552.0,1728.0,-828.0,0
132.0,-435.0,26.0,-2227.0,1619.0,-658.0,0
143.0,-407.0,4.0,-1815.0,1500.0,-503.0,0
161.0,-369.0,-9.0,-1361.0,1412.0,-381.0,0
130.0,-316.0,-32.0,-866.0,1397.0,-301.0,0
105.0,-260.0,-50.0,-341.0,1464.0,-230.0,0
66.0,-209.0,-59.0,150.0,1554.0,-139.0,0
23.0,-148.0,-63.0,573.0,1609.0,-24.0,0
-2.0,-101.0,-61.0,941.0,1611.0,67.0,0
-34.0,-45.0,-70.0,1255.0,1556.0,117.0,0
-48.0,-4.0,-69.0,1491.0,1437.0,127.0,0
-50.0,32.0,-72.0,1648.0,1254.0,127.0,0
-50.0,62.0,-78.0,1725.0,1034.0,148.0,0
-33.0,80.0,-88.0,1721.0,815.0,186.0,0
-19.0,88.0,-106.0,1626.0,629.0,236.0,0
-9.0,90.0,-127.0,1447.0,494.0,290.0,0
5.0,72.0,-142.0,1175.0,403.0,345.0,0
9.0,55.0,-137.0,821.0,338.0,409.0,0
13.0,23.0,-118.0,534.0,269.0,471.0,0
9.0,-4.0,-92.0,245.0,176.0,496.0,0
7.0,-25.0,-62.0,103.0,89.0,497.0,0
9.0,-43.0,-51.0,137.0,-24.0,493.0,0
12.0,-55.0,-48.0,294.0,-121.0,481.0,0
17.0,-56.0,-43.0,492.0,-188.0,459.0,0
17.0,-52.0,-36.0,693.0,-228.0,436.0,0
29.0,-35.0,-49.0,881.0,-245.0,420.0,0
27.0,-14.0,-51.0,1039.0,-229.0,423.0,0
18.0,16.0,-61.0,1167.0,-175.0,447.0,0
5.0,17.0,-49.0,1223.0,-91.0,480.0,0
-5.0,22.0,-43.0,1228.0,19.0,524.0,0
-14.0,19.0,-24.0,1189.0,125.0,548.0,0
-28.0,17.0,-24.0,1117.0,202.0,543.0,0
-34.0,9.0,-50.0,1014.0,229.0,533.0,0
-17.0,2.0,-144.0,880.0,228.0,529.0,0
17.0,-19.0,-209.0,682.0,272.0,517.0,0
69.0,-57.0,-278.0,473.0,436.0,483.0,0
140.0,-103.0,-408.0,316.0,793.0,410.0,0
216.0,-123.0,-535.0,-34.0,1308.0,250.0,0
226.0,-185.0,-484.0,-879.0,1585.0,-49.0,0
141.0,-316.0,-191.0,-1915.0,1133.0,-509.0,0
33.0,-497.0,100.0,-2385.0,201.0,-943.0,0
12.0,-663.0,291.0,-2112.0,-520.0,-1160.0,0
73.0,-770.0,393.0,-1533.0,-828.0,-1235.0,0
143.0,-807.0,389.0,-893.0,-884.0,-1342.0,0
176.0,-819.0,258.0,-313.0,-804.0,-1555.0,0
140.0,-819.0,4.0,-42.0,-393.0,-1724.0,0
35.0,-811.0,-293.0,-434.0,457.0,-1660.0,0
-144.0,-814.0,-350.0,-1380.0,1311.0,-1272.0,0
-315.0,-825.0,-305.0,-2208.0,1611.0,-511.0,0
-294.0,-784.0,-203.0,-2382.0,1220.0,373.0,0
-227.0,-746.0,-118.0,-1756.0,594.0,864.0,0
-156.0,-701.0,-24.0,-477.0,-229.0,1017.0,0
-91.0,-622.0,51.0,1020.0,-847.0,1082.0,0
-41.0,-529.0,100.0,2377.0,-1203.0,1051.0,0
-8.0,-431.0,110.0,3339.0,-1321.0,988.0,0
27.0,-341.0,107.0,3789.0,-1249.0,975.0,0
62.0,-267.0,93.0,3710.0,-1091.0,1045.0,0
90.0,-215.0,81.0,3137.0,-935.0,1155.0,0
115.0,-183.0,72.0,2167.0,-842.0,1212.0,0
108.0,-176.0,70.0,977.0,-819.0,1197.0,0
73.0,-217.0,75.0,-220.0,-836.0,1167.0,0
44.0,-295.0,93.0,-1244.0,-882.0,1162.0,0
13.0,-362.0,108.0,-1984.0,-953.0,1142.0,0
-12.0,-417.0,110.0,-2393.0,-1035.0,1099.0,0
-28.0,-449.0,90.0,-2491.0,-1070.0,1059.0,0
-55.0,-457.0,40.0,-2372.0,-1011.0,1041.0,0
-75.0,-436.0,3.0,-2131.0,-911.0,1046.0,0
-87.0,-394.0,-12.0,-1814.0,-834.0,1088.0,0
-78.0,-342.0,-36.0,-1435.0,-820.0,1148.0,0
-68.0,-294.0,-49.0,-1035.0,-845.0,1179.0,0
-63.0,-238.0,-57.0,-653.0,-888.0,1150.0,0
-49.0,-188.0,-65.0,-312.0,-922.0,1077.0,0
-34.0,-147.0,-62.0,-16.0,-943.0,974.0,0
-17.0,-112.0,-71.0,249.0,-947.0,869.0,0
-1.0,-85.0,-76.0,496.0,-922.0,748.0,0
20.0,-55.0,-84.0,734.0,-870.0,592.0,0
43.0,-32.0,-102.0,941.0,-809.0,380.0,0
66.0,-6.0,-116.0,1082.0,-738.0,92.0,0
77.0,13.0,-128.0,1156.0,-672.0,-228.0,0
73.0,40.0,-128.0,1184.0,-594.0,-483.0,0
73.0,51.0,-128.0,1162.0,-520.0,-643.0,0
77.0,56.0,-124.0,1114.0,-413.0,-713.0,0
69.0,54.0,-126.0,1046.0,-301.0,-785.0,0
59.0,43.0,-119.0,934.0,-193.0,-850.0,0
44.0,25.0,-101.0,782.0,-95.0,-898.0,0
29.0,8.0,-81.0,629.0,-16.0,-914.0,0
16.0,-6.0,-53.0,500.0,36.0,-883.0,0
1.0,-14.0,-24.0,428.0,64.0,-816.0,0
-12.0,-19.0,-19.0,445.0,67.0,-720.0,0
-21.0,-14.0,-23.0,534.0,46.0,-617.0,0
-24.0,-2.0,-39.0,623.0,9.0,-519.0,0
-27.0,8.0,-45.0,672.0,-21.0,-444.0,0
-27.0,10.0,-64.0,682.0,-39.0,-403.0,0
-37.0,18.0,-74.0,620.0,-45.0,-396.0,0
-36.0,19.0,-82.0,486.0,-53.0,-409.0,0
-46.0,21.0,-84.0,321.0,-77.0,-417.0,0
-47.0,19.0,-91.0,164.0,-115.0,-423.0,0
-45.0,17.0,-98.0,35.0,-154.0,-420.0,0
-47.0,13.0,-99.0,-48.0,-183.0,-410.0,0
-49.0,8.0,-104.0,-74.0,-196.0,-402.0,0
-48.0,4.0,-122.0,-41.0,-190.0,-396.0,0
-59.0,2.0,-159.0,0.0,-172.0,-376.0,0
-69.0,-8.0,-210.0,-29.0,-195.0,-346.0,0
-86.0,-35.0,-288.0,-156.0,-291.0,-341.0,0
-116.0,-53.0,-315.0,-382.0,-414.0,-317.0,0
-138.0,-76.0,-380.0,-768.0,-544.0,-192.0,0
-143.0,-125.0,-470.0,-1385.0,-795.0,34.0,0
-75.0,-245.0,-379.0,-2178.0,-1094.0,317.0,0
4.0,-439.0,-118.0,-2683.0,-1174.0,693.0,0
17.0,-628.0,184.0,-2620.0,-850.0,1141.0,0
15.0,-797.0,446.0,-2035.0,-401.0,1466.0,0
-29.0,-850.0,478.0,-1042.0,-86.0,1528.0,0
-83.0,-831.0,266.0,1.0,-260.0,1481.0,0
-94.0,-790.0,-16.0,588.0,-615.0,1455.0,0
-68.0,-772.0,-262.0,461.0,-909.0,1430.0,0
2.0,-824.0,-371.0,-253.0,-1173.0,1296.0,0
84.0,-893.0,-387.0,-1082.0,-1458.0,956.0,0
142.0,-904.0,-337.0,-1566.0,-1520.0,356.0,0
106.0,-854.0,-248.0,-1434.0,-1070.0,-409.0,0
60.0,-787.0,-127.0,-717.0,-269.0,-1054.0,0
5.0,-698.0,-1.0,329.0,448.0,-1466.0,0
-38.0,-578.0,98.0,1431.0,850.0,-1675.0,0
-55.0,-481.0,141.0,2327.0,973.0,-1758.0,0
-53.0,-384.0,144.0,2821.0,884.0,-1788.0,0
-39.0,-301.0,127.0,2818.0,642.0,-1799.0,0
-36.0,-226.0,106.0,2365.0,370.0,-1781.0,0
-38.0,-159.0,80.0,1623.0,182.0,-1707.0,0
-29.0,-125.0,59.0,753.0,136.0,-1570.0,0
-8.0,-133.0,39.0,-178.0,237.0,-1427.0,0
24.0,-197.0,35.0,-1092.0,432.0,-1323.0,0
61.0,-281.0,51.0,-1892.0,687.0,-1203.0,0
100.0,-361.0,72.0,-2472.0,965.0,-1032.0,0
122.0,-421.0,86.0,-2791.0,1200.0,-843.0,0
142.0,-463.0,87.0,-2875.0,1360.0,-663.0,0
164.0,-488.0,74.0,-2798.0,1450.0,-503.0,0
173.0,-490.0,74.0,-2607.0,1498.0,-385.0,0
169.0,-471.0,66.0,-2308.0,1544.0,-309.0,0
164.0,-433.0,51.0,-1912.0,1619.0,-267.0,0
160.0,-395.0,35.0,-1468.0,1719.0,-262.0,0
145.0,-347.0,5.0,-1041.0,1829.0,-279.0,0
105.0,-272.0,-18.0,-658.0,1950.0,-301.0,0
60.0,-211.0,-39.0,-323.0,2058.0,-299.0,0
27.0,-165.0,-55.0,-94.0,2106.0,-236.0,0
-8.0,-113.0,-61.0,134.0,2083.0,-141.0,0
-31.0,-69.0,-63.0,359.0,2006.0,-67.0,0
-39.0,-23.0,-57.0,618.0,1890.0,8.0,0
-39.0,18.0,-58.0,898.0,1740.0,51.0,0
-39.0,54.0,-59.0,1176.0,1557.0,79.0,0
-38.0,89.0,-69.0,1405.0,1356.0,111.0,0
-36.0,113.0,-75.0,1543.0,1151.0,153.0,0
-39.0,128.0,-87.0,1550.0,945.0,207.0,0
-30.0,131.0,-103.0,1405.0,743.0,265.0,0
-26.0,129.0,-122.0,1117.0,546.0,314.0,0
-15.0,90.0,-120.0,715.0,377.0,379.0,0
0.0,53.0,-109.0,297.0,252.0,445.0,0
4.0,13.0,-97.0,-5.0,181.0,474.0,0
7.0,-22.0,-88.0,-167.0,154.0,465.0,0
2.0,-40.0,-76.0,-217.0,148.0,450.0,0
2.0,-58.0,-76.0,-186.0,139.0,428.0,0
3.0,-61.0,-74.0,-106.0,123.0,398.0,0
12.0,-56.0,-84.0,0.0,123.0,374.0,0
11.0,-35.0,-88.0,112.0,157.0,384.0,0
8.0,-19.0,-86.0,225.0,230.0,429.0,0
-6.0,-5.0,-79.0,329.0,327.0,502.0,0
-26.0,2.0,-65.0,407.0,421.0,582.0,0
-50.0,5.0,-49.0,448.0,469.0,655.0,0
-68.0,2.0,-29.0,458.0,456.0,718.0,0
-78.0,-1.0,-11.0,451.0,376.0,751.0,0
-82.0,-9.0,-9.0,431.0,255.0,760.0,0
-73.0,-14.0,-49.0,383.0,146.0,743.0,0
-45.0,-14.0,-149.0,286.0,112.0,703.0,0
12.0,-19.0,-245.0,96.0,244.0,635.0,0
83.0,-47.0,-328.0,-94.0,609.0,535.0,0
181.0,-102.0,-432.0,-309.0,1089.0,410.0,0
265.0,-157.0,-565.0,-547.0,1842.0,241.0,0
303.0,-267.0,-516.0,-1130.0,2324.0,-159.0,0
208.0,-420.0,-226.0,-1894.0,1874.0,-847.0,0
74.0,-574.0,63.0,-2194.0,614.0,-1569.0,0
62.0,-729.0,270.0,-1796.0,-591.0,-1968.0,0
131.0,-799.0,330.0,-1067.0,-1179.0,-2086.0,0
184.0,-827.0,316.0,-272.0,-1252.0,-2180.0,0
182.0,-844.0,151.0,522.0,-1031.0,-2390.0,0
104.0,-832.0,-117.0,1054.0,-459.0,-2526.0,0
-21.0,-809.0,-318.0,916.0,509.0,-2318.0,0
-211.0,-776.0,-387.0,84.0,1428.0,-1704.0,0
-383.0,-759.0,-370.0,-1009.0,1786.0,-693.0,0
-382.0,-726.0,-278.0,-1826.0,1442.0,446.0,0
-305.0,-702.0,-152.0,-1950.0,581.0,1247.0,0
-224.0,-681.0,-34.0,-1345.0,-443.0,1603.0,0
-149.0,-630.0,42.0,-231.0,-1332.0,1677.0,0
-87.0,-552.0,76.0,1029.0,-1922.0,1589.0,0
-33.0,-461.0,87.0,2102.0,-2127.0,1437.0,0
20.0,-378.0,86.0,2781.0,-1980.0,1343.0,0
77.0,-310.0,79.0,3012.0,-1651.0,1346.0,0
125.0,-254.0,61.0,2834.0,-1335.0,1362.0,0
149.0,-223.0,42.0,2284.0,-1093.0,1327.0,0
156.0,-197.0,30.0,1441.0,-940.0,1225.0,0
145.0,-218.0,34.0,456.0,-871.0,1104.0,0
127.0,-275.0,56.0,-496.0,-859.0,1022.0,0
115.0,-336.0,92.0,-1249.0,-901.0,990.0,0
97.0,-388.0,115.0,-1728.0,-981.0,988.0,0
74.0,-419.0,118.0,-1905.0,-1080.0,998.0,0
45.0,-434.0,110.0,-1954.0,-1141.0,1029.0,0
16.0,-425.0,90.0,-1890.0,-1176.0,1076.0,0
-8.0,-407.0,73.0,-1774.0,-1171.0,1159.0,0
-27.0,-381.0,44.0,-1633.0,-1131.0,1236.0,0
-37.0,-355.0,4.0,-1494.0,-1070.0,1280.0,0
-42.0,-321.0,-21.0,-1392.0,-984.0,1281.0,0
-41.0,-302.0,-35.0,-1308.0,-862.0,1230.0,0
-49.0,-282.0,-40.0,-1196.0,-711.0,1139.0,0
-58.0,-268.0,-44.0,-1031.0,-573.0,1035.0,0
-53.0,-246.0,-46.0,-814.0,-497.0,916.0,0
-36.0,-223.0,-43.0,-510.0,-520.0,780.0,0
-26.0,-187.0,-41.0,-93.0,-634.0,625.0,0
-6.0,-139.0,-53.0,412.0,-761.0,426.0,0
13.0,-58.0,-75.0,949.0,-851.0,156.0,0
36.0,18.0,-92.0,1464.0,-900.0,-158.0,0
33.0,81.0,-125.0,1906.0,-907.0,-438.0,0
17.0,137.0,-150.0,2145.0,-826.0,-640.0,0
5.0,178.0,-152.0,2156.0,-665.0,-785.0,0
-10.0,213.0,-153.0,1997.0,-485.0,-878.0,0
-15.0,227.0,-154.0,1713.0,-330.0,-920.0,0
-15.0,220.0,-164.0,1302.0,-213.0,-902.0,0
1.0,189.0,-157.0,759.0,-119.0,-842.0,0
13.0,141.0,-134.0,150.0,-38.0,-805.0,0
24.0,88.0,-99.0,-406.0,43.0,-773.0,0
22.0,40.0,-63.0,-777.0,111.0,-724.0,0
13.0,-4.0,-43.0,-925.0,150.0,-656.0,0
4.0,-36.0,-34.0,-901.0,151.0,-584.0,0
0.0,-57.0,-29.0,-750.0,110.0,-520.0,0
-4.0,-68.0,-35.0,-562.0,42.0,-480.0,0
-4.0,-69.0,-42.0,-293.0,-20.0,-458.0,0
0.0,-61.0,-55.0,-38.0,-101.0,-442.0,0
5.0,-51.0,-65.0,168.0,-176.0,-415.0,0
8.0,-45.0,-75.0,322.0,-243.0,-383.0,0
11.0,-34.0,-85.0,438.0,-301.0,-352.0,0
19.0,-33.0,-95.0,526.0,-345.0,-325.0,0
15.0,-21.0,-99.0,586.0,-378.0,-304.0,0
12.0,-14.0,-91.0,623.0,-376.0,-276.0,0
8.0,-15.0,-91.0,641.0,-327.0,-245.0,0
2.0,-12.0,-122.0,638.0,-246.0,-219.0,0
-3.0,-4.0,-198.0,566.0,-177.0,-193.0,0
-25.0,-4.0,-272.0,370.0,-182.0,-172.0,0
-61.0,-28.0,-319.0,94.0,-236.0,-141.0,0
-104.0,-58.0,-404.0,-255.0,-265.0,-20.0,0
-121.0,-103.0,-526.0,-836.0,-451.0,216.0,0
-55.0,-234.0,-465.0,-1565.0,-740.0,514.0,0
60.0,-431.0,-178.0,-1871.0,-655.0,871.0,0
63.0,-606.0,99.0,-1638.0,-187.0,1195.0,0
3.0,-710.0,254.0,-1277.0,148.0,1407.0,0
-75.0,-751.0,223.0,-975.0,70.0,1536.0,0
-119.0,-782.0,84.0,-670.0,-48.0,1699.0,0
-89.0,-824.0,-88.0,-487.0,-17.0,1863.0,0
-65.0,-891.0,-256.0,-778.0,-155.0,1811.0,0
-17.0,-960.0,-290.0,-1417.0,-528.0,1538.0,0
57.0,-1009.0,-252.0,-1857.0,-868.0,1005.0,0
56.0,-985.0,-167.0,-1683.0,-817.0,176.0,0
17.0,-925.0,-78.0,-843.0,-287.0,-626.0,0
-26.0,-832.0,-10.0,403.0,362.0,-1135.0,0
-62.0,-712.0,35.0,1692.0,799.0,-1413.0,0
-74.0,-606.0,63.0,2563.0,1019.0,-1531.0,0
-70.0,-505.0,80.0,3311.0,1104.0,-1549.0,0
-59.0,-411.0,81.0,3620.0,1074.0,-1536.0,0
-53.0,-320.0,79.0,3508.0,904.0,-1538.0,0
-54.0,-234.0,75.0,3053.0,664.0,-1562.0,0
-69.0,-153.0,70.0,2340.0,476.0,-1575.0,0
-79.0,-100.0,63.0,1455.0,398.0,-1523.0,0
-80.0,-87.0,62.0,503.0,433.0,-1399.0,0
-64.0,-117.0,53.0,-404.0,540.0,-1286.0,0
-33.0,-187.0,56.0,-1211.0,682.0,-1201.0,0
9.0,-254.0,60.0,-1868.0,827.0,-1103.0,0
54.0,-316.0,70.0,-2290.0,964.0,-993.0,0
98.0,-371.0,62.0,-2459.0,1084.0,-899.0,0
128.0,-398.0,66.0,-2456.0,1171.0,-814.0,0
153.0,-413.0,65.0,-2318.0,1211.0,-732.0,0
167.0,-401.0,45.0,-2064.0,1213.0,-661.0,0
172.0,-378.0,21.0,-1737.0,1203.0,-603.0,0
169.0,-351.0,6.0,-1374.0,1200.0,-563.0,0
139.0,-303.0,-6.0,-982.0,1225.0,-556.0,0
106.0,-253.0,-12.0,-550.0,1281.0,-525.0,0
64.0,-201.0,-12.0,-91.0,1364.0,-456.0,0
42.0,-151.0,-20.0,358.0,1450.0,-361.0,0
12.0,-93.0,-24.0,768.0,1516.0,-281.0,0
3.0,-48.0,-34.0,1111.0,1545.0,-226.0,0
-6.0,-2.0,-39.0,1357.0,1520.0,-183.0,0
-16.0,34.0,-57.0,1516.0,1439.0,-144.0,0
-15.0,60.0,-74.0,1564.0,1293.0,-85.0,0
-15.0,78.0,-87.0,1490.0,1100.0,11.0,0
-1.0,84.0,-103.0,1321.0,895.0,117.0,0
0.0,78.0,-108.0,1077.0,732.0,225.0,0
1.0,63.0,-101.0,849.0,631.0,337.0,0
1.0,18.0,-80.0,556.0,589.0,437.0,0
3.0,-30.0,-49.0,282.0,564.0,518.0,0
2.0,-61.0,-28.0,92.0,528.0,585.0,0
-2.0,-76.0,-27.0,56.0,468.0,599.0,0
-13.0,-75.0,-44.0,162.0,399.0,587.0,0
-6.0,-67.0,-57.0,345.0,325.0,579.0,0
-2.0,-53.0,-81.0,538.0,264.0,556.0,0
10.0,-32.0,-92.0,683.0,244.0,524.0,0
22.0,-1.0,-99.0,781.0,276.0,490.0,0
29.0,15.0,-103.0,857.0,361.0,467.0,0
16.0,31.0,-94.0,925.0,485.0,469.0,0
11.0,49.0,-88.0,979.0,611.0,500.0,0
1.0,57.0,-77.0,999.0,710.0,540.0,0
-9.0,54.0,-50.0,969.0,752.0,571.0,0
-17.0,46.0,-20.0,895.0,725.0,576.0,0
-26.0,37.0,-13.0,788.0,656.0,555.0,0
-26.0,22.0,-27.0,655.0,566.0,518.0,0
-5.0,9.0,-142.0,477.0,493.0,469.0,0
39.0,-17.0,-201.0,209.0,502.0,398.0,0
121.0,-101.0,-303.0,-69.0,613.0,306.0,0
212.0,-155.0,-394.0,-242.0,919.0,179.0,0
300.0,-197.0,-514.0,-607.0,1329.0,-28.0,0
310.0,-297.0,-442.0,-1476.0,1380.0,-444.0,0
213.0,-468.0,-170.0,-2451.0,677.0,-1058.0,0
72.0,-663.0,29.0,-2841.0,-249.0,-1622.0,0
20.0,-816.0,187.0,-2685.0,-729.0,-1947.0,0
36.0,-918.0,284.0,-2227.0,-756.0,-2086.0,0
62.0,-983.0,253.0,-1473.0,-524.0,-2196.0,0
29.0,-984.0,17.0,-762.0,1.0,-2300.0,0
-54.0,-925.0,-288.0,-228.0,726.0,-2204.0,0
-195.0,-889.0,-430.0,-520.0,1741.0,-1880.0,0
-366.0,-881.0,-388.0,-1185.0,2301.0,-1111.0,0
-401.0,-817.0,-292.0,-1465.0,1931.0,-86.0,0
-312.0,-755.0,-177.0,-952.0,880.0,758.0,0
-213.0,-696.0,-99.0,142.0,-203.0,1209.0,0
-106.0,-611.0,-31.0,1477.0,-948.0,1389.0,0
-11.0,-504.0,24.0,2724.0,-1309.0,1348.0,0
70.0,-357.0,78.0,3614.0,-1376.0,1157.0,0
120.0,-251.0,110.0,3997.0,-1245.0,946.0,0
158.0,-168.0,113.0,3889.0,-1056.0,839.0,0
194.0,-119.0,119.0,3325.0,-895.0,842.0,0
217.0,-103.0,115.0,2390.0,-799.0,856.0,0
224.0,-122.0,107.0,1200.0,-783.0,821.0,0
193.0,-189.0,104.0,-93.0,-827.0,757.0,0
151.0,-272.0,115.0,-1307.0,-893.0,738.0,0
91.0,-349.0,145.0,-2206.0,-929.0,787.0,0
42.0,-416.0,161.0,-2626.0,-921.0,896.0,0
-3.0,-456.0,145.0,-2625.0,-885.0,1012.0,0
-47.0,-467.0,115.0,-2388.0,-855.0,1091.0,0
-80.0,-450.0,78.0,-2056.0,-832.0,1185.0,0
-121.0,-423.0,47.0,-1720.0,-818.0,1294.0,0
-152.0,-384.0,12.0,-1428.0,-827.0,1397.0,0
-165.0,-338.0,-22.0,-1237.0,-851.0,1480.0,0
-172.0,-296.0,-44.0,-1141.0,-867.0,1499.0,0
-158.0,-257.0,-48.0,-1085.0,-883.0,1457.0,0
-144.0,-221.0,-44.0,-991.0,-922.0,1397.0,0
-122.0,-186.0,-41.0,-829.0,-986.0,1329.0,0
-99.0,-167.0,-43.0,-664.0,-1064.0,1248.0,0
-76.0,-149.0,-50.0,-445.0,-1122.0,1141.0,0
-46.0,-125.0,-51.0,-224.0,-1161.0,1035.0,0
-1.0,-102.0,-58.0,2.0,-1170.0,856.0,0
47.0,-73.0,-67.0,239.0,-1154.0,614.0,0
79.0,-36.0,-84.0,456.0,-1113.0,306.0,0
104.0,5.0,-89.0,626.0,-1066.0,-33.0,0
104.0,51.0,-104.0,752.0,-1035.0,-356.0,0
89.0,89.0,-105.0,824.0,-1011.0,-588.0,0
90.0,113.0,-103.0,848.0,-976.0,-704.0,0
75.0,124.0,-110.0,823.0,-945.0,-756.0,0
61.0,126.0,-115.0,703.0,-903.0,-785.0,0
38.0,115.0,-112.0,483.0,-831.0,-800.0,0
11.0,96.0,-91.0,202.0,-720.0,-797.0,0
-2.0,60.0,-70.0,-71.0,-573.0,-771.0,0
-15.0,21.0,-38.0,-257.0,-425.0,-731.0,0
-13.0,-11.0,-31.0,-293.0,-315.0,-693.0,0
4.0,-49.0,-53.0,-199.0,-240.0,-663.0,0
13.0,-58.0,-60.0,-44.0,-195.0,-646.0,0
17.0,-64.0,-65.0,107.0,-187.0,-650.0,0
19.0,-67.0,-76.0,213.0,-225.0,-677.0,0
17.0,-60.0,-86.0,273.0,-297.0,-710.0,0
21.0,-61.0,-94.0,297.0,-375.0,-727.0,0
26.0,-58.0,-98.0,298.0,-430.0,-724.0,0
31.0,-53.0,-104.0,296.0,-438.0,-714.0,0
29.0,-53.0,-108.0,308.0,-392.0,-700.0,0
30.0,-54.0,-101.0,347.0,-290.0,-683.0,0
25.0,-49.0,-99.0,419.0,-145.0,-653.0,0
26.0,-52.0,-94.0,500.0,6.0,-603.0,0
16.0,-45.0,-94.0,583.0,141.0,-534.0,0
16.0,-29.0,-129.0,652.0,246.0,-441.0,0
20.0,-30.0,-219.0,684.0,287.0,-340.0,0
17.0,-40.0,-290.0,563.0,278.0,-251.0,0
5.0,-52.0,-319.0,322.0,248.0,-179.0,0
-10.0,-86.0,-376.0,-7.0,169.0,-42.0,0
3.0,-133.0,-430.0,-540.0,-184.0,157.0,0
85.0,-280.0,-297.0,-1292.0,-713.0,402.0,0
126.0,-458.0,-39.0,-1817.0,-881.0,751.0,0
106.0,-629.0,262.0,-1799.0,-494.0,1144.0,0
53.0,-752.0,479.0,-1319.0,63.0,1427.0,0
-14.0,-795.0,444.0,-517.0,223.0,1482.0,0
-67.0,-773.0,227.0,251.0,45.0,1449.0,0
-81.0,-744.0,-33.0,582.0,-19.0,1501.0,0
-56.0,-758.0,-216.0,246.0,71.0,1588.0,0
-13.0,-819.0,-274.0,-572.0,42.0,1538.0,0
35.0,-864.0,-278.0,-1372.0,-165.0,1201.0,0
9.0,-827.0,-257.0,-1739.0,-296.0,535.0,0
-30.0,-774.0,-175.0,-1460.0,-19.0,-186.0,0
-57.0,-726.0,-69.0,-633.0,520.0,-692.0,0
-86.0,-657.0,32.0,421.0,954.0,-1040.0,0
-112.0,-578.0,85.0,1416.0,1164.0,-1273.0,0
-121.0,-501.0,107.0,2138.0,1181.0,-1426.0,0
-109.0,-430.0,98.0,2485.0,1054.0,-1548.0,0
-89.0,-367.0,88.0,2433.0,849.0,-1659.0,0
-72.0,-306.0,73.0,2050.0,634.0,-1755.0,0
-71.0,-227.0,63.0,1444.0,483.0,-1813.0,0
-75.0,-186.0,51.0,713.0,408.0,-1793.0,0
-68.0,-175.0,38.0,-68.0,399.0,-1696.0,0
-38.0,-197.0,27.0,-847.0,438.0,-1565.0,0
10.0,-247.0,24.0,-1403.0,528.0,-1442.0,0
61.0,-302.0,25.0,-1954.0,658.0,-1307.0,0
100.0,-356.0,36.0,-2319.0,761.0,-1141.0,0
127.0,-394.0,50.0,-2490.0,888.0,-989.0,0
157.0,-420.0,77.0,-2476.0,1002.0,-786.0,0
180.0,-426.0,83.0,-2306.0,1065.0,-587.0,0
194.0,-412.0,69.0,-2037.0,1076.0,-414.0,0
203.0,-375.0,46.0,-1742.0,1074.0,-269.0,0
196.0,-334.0,29.0,-1461.0,1096.0,-147.0,0
178.0,-289.0,19.0,-1182.0,1158.0,-37.0,0
147.0,-241.0,5.0,-881.0,1254.0,71.0,0
111.0,-197.0,-16.0,-565.0,1356.0,179.0,0
74.0,-157.0,-33.0,-257.0,1450.0,299.0,0
42.0,-119.0,-46.0,43.0,1521.0,414.0,0
29.0,-88.0,-61.0,361.0,1538.0,504.0,0
26.0,-44.0,-79.0,694.0,1482.0,562.0,0
23.0,-18.0,-89.0,1029.0,1361.0,591.0,0
23.0,11.0,-109.0,1312.0,1179.0,602.0,0
24.0,32.0,-113.0,1508.0,965.0,595.0,0
9.0,55.0,-124.0,1617.0,757.0,570.0,0
-9.0,65.0,-122.0,1631.0,582.0,534.0,0
-28.0,69.0,-119.0,1547.0,436.0,515.0,0
-40.0,66.0,-109.0,1375.0,322.0,516.0,0
-27.0,34.0,-95.0,1133.0,238.0,512.0,0
-4.0,11.0,-80.0,860.0,186.0,471.0,0
1.0,-2.0,-72.0,634.0,203.0,396.0,0
1.0,-8.0,-63.0,499.0,304.0,326.0,0
1.0,-11.0,-62.0,457.0,445.0,263.0,0
1.0,-3.0,-62.0,452.0,578.0,212.0,0
0.0,7.0,-60.0,455.0,676.0,179.0,0
10.0,23.0,-52.0,466.0,729.0,175.0,0
23.0,28.0,-50.0,493.0,745.0,198.0,0
28.0,41.0,-52.0,528.0,744.0,235.0,0
17.0,48.0,-55.0,542.0,735.0,276.0,0
2.0,43.0,-55.0,514.0,722.0,332.0,0
-17.0,39.0,-48.0,439.0,706.0,371.0,0
-39.0,32.0,-40.0,322.0,671.0,387.0,0
-54.0,19.0,-38.0,181.0,613.0,401.0,0
-61.0,8.0,-48.0,47.0,531.0,415.0,0
-54.0,-6.0,-137.0,-67.0,442.0,426.0,0
-23.0,-31.0,-181.0,-200.0,403.0,417.0,0
38.0,-71.0,-282.0,-340.0,494.0,381.0,0
126.0,-103.0,-399.0,-481.0,827.0,323.0,0
218.0,-147.0,-552.0,-794.0,1443.0,186.0,0
249.0,-255.0,-502.0,-1382.0,1972.0,-150.0,0
151.0,-405.0,-206.0,-1925.0,1650.0,-691.0,0
7.0,-571.0,-3.0,-1986.0,503.0,-1203.0,0
-59.0,-707.0,166.0,-1689.0,-623.0,-1462.0,0
-27.0,-830.0,309.0,-1250.0,-1166.0,-1496.0,0
2.0,-920.0,408.0,-619.0,-1216.0,-1534.0,0
-8.0,-1002.0,325.0,229.0,-968.0,-1654.0,0
-98.0,-986.0,5.0,846.0,-489.0,-1727.0,0
-210.0,-944.0,-311.0,579.0,134.0,-1587.0,0
-366.0,-879.0,-438.0,-481.0,621.0,-1146.0,0
-382.0,-800.0,-319.0,-1483.0,651.0,-403.0,0
-268.0,-753.0,-210.0,-1606.0,36.0,341.0,0
-144.0,-701.0,-123.0,-883.0,-847.0,751.0,0
-46.0,-619.0,-45.0,285.0,-1505.0,847.0,0
14.0,-515.0,27.0,1544.0,-1854.0,755.0,0
48.0,-391.0,80.0,2407.0,-1945.0,616.0,0
72.0,-280.0,113.0,3135.0,-1884.0,571.0,0
112.0,-180.0,110.0,3413.0,-1720.0,652.0,0
142.0,-109.0,85.0,3291.0,-1560.0,769.0,0
171.0,-65.0,46.0,2815.0,-1436.0,915.0,0
186.0,-46.0,7.0,1990.0,-1382.0,987.0,0
194.0,-67.0,-17.0,895.0,-1370.0,1002.0,0
189.0,-126.0,-12.0,-293.0,-1368.0,1002.0,0
157.0,-243.0,31.0,-1394.0,-1347.0,974.0,0
123.0,-351.0,90.0,-2240.0,-1310.0,909.0,0
73.0,-444.0,129.0,-2717.0,-1281.0,870.0,0
32.0,-513.0,148.0,-2867.0,-1251.0,881.0,0
-22.0,-559.0,128.0,-2794.0,-1204.0,943.0,0
-66.0,-571.0,82.0,-2579.0,-1146.0,1027.0,0
-89.0,-551.0,51.0,-2292.0,-1106.0,1090.0,0
-119.0,-512.0,20.0,-1952.0,-1085.0,1092.0,0
-131.0,-465.0,-12.0,-1555.0,-1081.0,1038.0,0
-131.0,-418.0,-47.0,-1147.0,-1071.0,951.0,0
-136.0,-362.0,-63.0,-739.0,-1017.0,856.0,0
-135.0,-307.0,-61.0,-340.0,-912.0,791.0,0
-128.0,-261.0,-58.0,37.0,-796.0,748.0,0
-98.0,-210.0,-47.0,408.0,-710.0,698.0,0
-51.0,-151.0,-44.0,789.0,-693.0,591.0,0
-27.0,-101.0,-78.0,1172.0,-730.0,423.0,0
4.0,-45.0,-87.0,1454.0,-765.0,229.0,0
29.0,13.0,-99.0,1649.0,-828.0,20.0,0
37.0,80.0,-112.0,1767.0,-934.0,-201.0,0
39.0,122.0,-123.0,1804.0,-1032.0,-393.0,0
41.0,161.0,-128.0,1768.0,-1081.0,-537.0,0
37.0,191.0,-138.0,1648.0,-1052.0,-644.0,0
28.0,197.0,-153.0,1460.0,-947.0,-695.0,0
21.0,206.0,-138.0,1112.0,-822.0,-694.0,0
31.0,181.0,-117.0,722.0,-655.0,-663.0,0
44.0,137.0,-100.0,336.0,-516.0,-626.0,0
50.0,89.0,-79.0,-44.0,-409.0,-627.0,0
55.0,39.0,-54.0,-345.0,-310.0,-622.0,0
60.0,-5.0,-42.0,-491.0,-220.0,-602.0,0
58.0,-36.0,-47.0,-490.0,-156.0,-578.0,0
58.0,-57.0,-51.0,-392.0,-120.0,-549.0,0
58.0,-77.0,-61.0,-237.0,-112.0,-532.0,0
60.0,-88.0,-65.0,-56.0,-127.0,-538.0,0
53.0,-91.0,-70.0,134.0,-161.0,-557.0,0
48.0,-88.0,-71.0,332.0,-203.0,-583.0,0
46.0,-74.0,-73.0,530.0,-242.0,-610.0,0
44.0,-62.0,-68.0,714.0,-267.0,-622.0,0
45.0,-54.0,-62.0,881.0,-268.0,-627.0,0
40.0,-38.0,-65.0,1020.0,-243.0,-619.0,0
33.0,-28.0,-73.0,1110.0,-197.0,-604.0,0
17.0,-19.0,-93.0,1121.0,-148.0,-571.0,0
2.0,-2.0,-146.0,1032.0,-129.0,-527.0,0
-37.0,9.0,-244.0,813.0,-182.0,-498.0,0
-89.0,7.0,-284.0,459.0,-303.0,-481.0,0
-154.0,-25.0,-349.0,-15.0,-454.0,-405.0,0
-192.0,-66.0,-466.0,-651.0,-663.0,-207.0,0
-162.0,-162.0,-505.0,-1506.0,-934.0,119.0,0
-23.0,-360.0,-329.0,-2307.0,-929.0,581.0,0
67.0,-582.0,-14.0,-2581.0,-410.0,1118.0,0
61.0,-757.0,283.0,-2273.0,363.0,1539.0,0
15.0,-848.0,425.0,-1575.0,758.0,1704.0,0
-54.0,-832.0,320.0,-869.0,519.0,1692.0,0
-90.0,-799.0,75.0,-92.0,61.0,1735.0,0
-53.0,-779.0,-171.0,186.0,-251.0,1863.0,0
23.0,-801.0,-286.0,-249.0,-623.0,1902.0,0
126.0,-862.0,-286.0,-973.0,-1013.0,1703.0,0
187.0,-898.0,-251.0,-1398.0,-1230.0,1106.0,0
118.0,-866.0,-200.0,-1249.0,-976.0,267.0,0
40.0,-806.0,-124.0,-564.0,-268.0,-410.0,0
-14.0,-727.0,-48.0,419.0,499.0,-807.0,0
-64.0,-632.0,20.0,1469.0,1037.0,-1042.0,0
-115.0,-504.0,64.0,2341.0,1252.0,-1187.0,0
-120.0,-418.0,79.0,2866.0,1176.0,-1284.0,0
-118.0,-342.0,84.0,2994.0,927.0,-1368.0,0
-113.0,-269.0,78.0,2749.0,630.0,-1456.0,0
-122.0,-202.0,74.0,2224.0,381.0,-1538.0,0
-136.0,-143.0,68.0,1533.0,217.0,-1578.0,0
-146.0,-115.0,50.0,763.0,134.0,-1526.0,0
-141.0,-133.0,41.0,-38.0,126.0,-1415.0,0
-112.0,-181.0,40.0,-828.0,190.0,-1328.0,0
-77.0,-258.0,47.0,-1548.0,307.0,-1279.0,0
-42.0,-333.0,54.0,-2088.0,430.0,-1224.0,0
-12.0,-394.0,58.0,-2395.0,534.0,-1157.0,0
21.0,-441.0,44.0,-2482.0,609.0,-1076.0,0
49.0,-463.0,34.0,-2414.0,650.0,-1001.0,0
68.0,-467.0,30.0,-2252.0,663.0,-942.0,0
89.0,-460.0,33.0,-1999.0,653.0,-890.0,0
113.0,-446.0,27.0,-1645.0,641.0,-831.0,0
132.0,-429.0,18.0,-1239.0,651.0,-764.0,0
158.0,-395.0,12.0,-843.0,695.0,-693.0,0
154.0,-356.0,8.0,-472.0,766.0,-632.0,0
138.0,-314.0,6.0,-191.0,855.0,-571.0,0
124.0,-268.0,5.0,158.0,947.0,-506.0,0
86.0,-213.0,-4.0,514.0,1018.0,-449.0,0
55.0,-161.0,-15.0,863.0,1103.0,-408.0,0
27.0,-110.0,-23.0,1203.0,1154.0,-369.0,0
10.0,-53.0,-29.0,1550.0,1167.0,-362.0,0
-8.0,-3.0,-39.0,1876.0,1143.0,-380.0,0
-15.0,43.0,-51.0,2149.0,1076.0,-381.0,0
-19.0,83.0,-75.0,2336.0,968.0,-349.0,0
-15.0,117.0,-93.0,2401.0,840.0,-274.0,0
-8.0,144.0,-112.0,2356.0,699.0,-171.0,0
-7.0,159.0,-144.0,2200.0,578.0,-57.0,0
-13.0,173.0,-160.0,1892.0,491.0,71.0,0
-6.0,176.0,-163.0,1473.0,444.0,177.0,0
-10.0,169.0,-157.0,972.0,403.0,231.0,0
-9.0,145.0,-132.0,436.0,338.0,246.0,0
-1.0,107.0,-108.0,-89.0,227.0,238.0,0
8.0,63.0,-80.0,-509.0,106.0,232.0,0
16.0,28.0,-68.0,-770.0,7.0,213.0,0
26.0,-1.0,-57.0,-893.0,-49.0,174.0,0
26.0,-23.0,-51.0,-889.0,-50.0,127.0,0
21.0,-38.0,-50.0,-776.0,11.0,92.0,0
14.0,-46.0,-53.0,-596.0,115.0,81.0,0
3.0,-45.0,-61.0,-393.0,228.0,92.0,0
-1.0,-45.0,-56.0,-205.0,321.0,118.0,0
-19.0,-41.0,-55.0,-56.0,377.0,150.0,0
-31.0,-43.0,-45.0,55.0,399.0,176.0,0
-45.0,-44.0,-36.0,151.0,379.0,212.0,0
-56.0,-48.0,-35.0,235.0,307.0,259.0,0
-62.0,-51.0,-58.0,296.0,201.0,307.0,0
-59.0,-50.0,-108.0,308.0,89.0,313.0,0
-52.0,-62.0,-162.0,253.0,21.0,288.0,0
-36.0,-90.0,-205.0,172.0,-24.0,250.0,0
-3.0,-114.0,-346.0,86.0,11.0,199.0,0
29.0,-127.0,-562.0,-273.0,198.0,92.0,0
20.0,-200.0,-572.0,-1154.0,435.0,-81.0,0
-50.0,-363.0,-234.0,-2259.0,448.0,-351.0,0
-133.0,-572.0,97.0,-2834.0,163.0,-715.0,0
-155.0,-747.0,295.0,-2613.0,-150.0,-957.0,0
-97.0,-850.0,379.0,-1949.0,-367.0,-994.0,0
-4.0,-885.0,350.0,-1063.0,-459.0,-1031.0,0
66.0,-872.0,209.0,-189.0,-554.0,-1257.0,0
106.0,-828.0,-35.0,360.0,-735.0,-1620.0,0
121.0,-798.0,-245.0,281.0,-787.0,-1900.0,0
100.0,-759.0,-309.0,-341.0,-601.0,-1884.0,0
77.0,-717.0,-273.0,-1002.0,-382.0,-1478.0,0
43.0,-668.0,-209.0,-1126.0,-338.0,-850.0,0
-3.0,-625.0,-139.0,-606.0,-400.0,-334.0,0
-20.0,-580.0,-42.0,292.0,-505.0,70.0,0
-24.0,-534.0,47.0,1301.0,-634.0,403.0,0
-26.0,-478.0,117.0,2202.0,-767.0,697.0,0
-28.0,-404.0,154.0,2822.0,-891.0,939.0,0
-32.0,-328.0,158.0,3086.0,-985.0,1113.0,0
-13.0,-251.0,139.0,2980.0,-1031.0,1246.0,0
2.0,-214.0,124.0,2519.0,-1033.0,1338.0,0
2.0,-192.0,108.0,1761.0,-1030.0,1375.0,0
2.0,-193.0,95.0,820.0,-1072.0,1361.0,0
-1.0,-220.0,82.0,-178.0,-1135.0,1331.0,0
-6.0,-283.0,80.0,-1121.0,-1189.0,1276.0,0
-27.0,-360.0,88.0,-1762.0,-1243.0,1182.0,0
-53.0,-434.0,102.0,-2352.0,-1324.0,1056.0,0
-80.0,-499.0,109.0,-2650.0,-1409.0,912.0,0
-110.0,-551.0,101.0,-2637.0,-1508.0,797.0,0
-121.0,-581.0,76.0,-2361.0,-1556.0,660.0,0
-122.0,-582.0,46.0,-1910.0,-1529.0,530.0,0
-124.0,-565.0,6.0,-1371.0,-1420.0,420.0,0
-118.0,-496.0,-15.0,-828.0,-1259.0,341.0,0
-119.0,-436.0,-20.0,-353.0,-1113.0,290.0,0
-111.0,-382.0,-27.0,26.0,-1026.0,245.0,0
-93.0,-324.0,-33.0,314.0,-995.0,167.0,0
-73.0,-271.0,-35.0,551.0,-998.0,48.0,0
-49.0,-220.0,-32.0,781.0,-1017.0,-101.0,0
-5.0,-160.0,-27.0,1014.0,-1041.0,-241.0,0
26.0,-115.0,-45.0,1249.0,-1068.0,-366.0,0
56.0,-60.0,-61.0,1441.0,-1082.0,-464.0,0
77.0,-8.0,-76.0,1579.0,-1082.0,-538.0,0
74.0,37.0,-82.0,1683.0,-1072.0,-599.0,0
68.0,78.0,-101.0,1761.0,-1043.0,-647.0,0
48.0,116.0,-110.0,1819.0,-1006.0,-660.0,0
24.0,149.0,-122.0,1850.0,-979.0,-626.0,0
11.0,172.0,-147.0,1793.0,-955.0,-545.0,0
-1.0,183.0,-163.0,1576.0,-923.0,-455.0,0
-4.0,198.0,-173.0,1186.0,-870.0,-384.0,0
1.0,196.0,-173.0,688.0,-798.0,-334.0,0
15.0,165.0,-163.0,121.0,-717.0,-314.0,0
23.0,126.0,-146.0,-482.0,-633.0,-363.0,0
25.0,79.0,-119.0,-1053.0,-532.0,-427.0,0
37.0,33.0,-92.0,-1474.0,-420.0,-483.0,0
33.0,-15.0,-52.0,-1660.0,-313.0,-542.0,0
33.0,-62.0,-23.0,-1594.0,-230.0,-595.0,0
32.0,-96.0,-17.0,-1394.0,-187.0,-634.0,0
38.0,-121.0,-19.0,-1025.0,-169.0,-674.0,0
33.0,-126.0,-20.0,-603.0,-165.0,-720.0,0
30.0,-118.0,-19.0,-173.0,-172.0,-781.0,0
