ax,ay,az,gx,gy,gz,label
14.0,-226.0,76.0,-82.0,17.0,20.0,0
12.0,-225.0,75.0,-78.0,14.0,24.0,0
11.0,-225.0,76.0,-76.0,9.0,26.0,0
10.0,-229.0,75.0,-72.0,4.0,29.0,0
13.0,-228.0,81.0,-68.0,1.0,31.0,0
7.0,-224.0,93.0,-61.0,-2.0,32.0,0
12.0,-231.0,81.0,-57.0,-2.0,34.0,0
12.0,-230.0,75.0,-53.0,-3.0,35.0,0
11.0,-229.0,76.0,-49.0,-4.0,36.0,0
13.0,-226.0,74.0,-48.0,-4.0,38.0,0
13.0,-228.0,76.0,-48.0,-1.0,37.0,0
16.0,-228.0,78.0,-49.0,0.0,35.0,0
11.0,-226.0,76.0,-49.0,4.0,34.0,0
16.0,-226.0,78.0,-48.0,7.0,33.0,0
13.0,-223.0,67.0,-46.0,12.0,32.0,0
13.0,-224.0,71.0,-45.0,13.0,28.0,0
14.0,-224.0,76.0,-45.0,14.0,26.0,0
13.0,-228.0,73.0,-49.0,16.0,23.0,0
11.0,-231.0,75.0,-57.0,12.0,21.0,0
11.0,-227.0,76.0,-63.0,10.0,17.0,0
15.0,-232.0,77.0,-74.0,10.0,13.0,0
13.0,-235.0,73.0,-80.0,8.0,10.0,0
12.0,-231.0,77.0,-84.0,7.0,6.0,0
9.0,-231.0,81.0,-84.0,7.0,2.0,0
12.0,-231.0,77.0,-81.0,7.0,-2.0,0
13.0,-227.0,77.0,-75.0,11.0,-5.0,0
13.0,-231.0,77.0,-64.0,15.0,-7.0,0
13.0,-229.0,75.0,-54.0,21.0,-7.0,0
13.0,-225.0,71.0,-45.0,27.0,-12.0,0
15.0,-221.0,69.0,-36.0,35.0,-14.0,0
14.0,-219.0,72.0,-32.0,43.0,-15.0,0
10.0,-216.0,70.0,-35.0,49.0,-15.0,0
15.0,-218.0,70.0,-43.0,52.0,-16.0,0
15.0,-222.0,69.0,-55.0,54.0,-14.0,0
12.0,-220.0,73.0,-70.0,56.0,-11.0,0
10.0,-224.0,73.0,-86.0,54.0,-7.0,0
16.0,-232.0,75.0,-98.0,51.0,-3.0,0
11.0,-229.0,74.0,-105.0,48.0,2.0,0
13.0,-233.0,77.0,-106.0,44.0,6.0,0
12.0,-232.0,80.0,-101.0,38.0,11.0,0
9.0,-234.0,80.0,-94.0,32.0,14.0,0
9.0,-239.0,76.0,-83.0,26.0,18.0,0
9.0,-233.0,79.0,-70.0,20.0,18.0,0
6.0,-231.0,77.0,-55.0,16.0,18.0,0
8.0,-233.0,73.0,-42.0,13.0,17.0,0
9.0,-231.0,73.0,-35.0,9.0,13.0,0
7.0,-226.0,72.0,-30.0,7.0,8.0,0
4.0,-226.0,71.0,-29.0,8.0,4.0,0
7.0,-227.0,69.0,-32.0,10.0,1.0,0
6.0,-227.0,70.0,-37.0,13.0,-3.0,0
9.0,-228.0,73.0,-41.0,17.0,-6.0,0
7.0,-229.0,72.0,-48.0,20.0,-8.0,0
6.0,-226.0,73.0,-54.0,23.0,-9.0,0
8.0,-229.0,72.0,-57.0,25.0,-7.0,0
9.0,-230.0,73.0,-57.0,25.0,-6.0,0
4.0,-230.0,74.0,-57.0,24.0,-3.0,0
6.0,-230.0,77.0,-53.0,19.0,2.0,0
5.0,-230.0,80.0,-50.0,13.0,7.0,0
4.0,-229.0,78.0,-47.0,6.0,12.0,0
1.0,-228.0,75.0,-42.0,-1.0,14.0,0
1.0,-226.0,76.0,-41.0,-10.0,17.0,0
6.0,-229.0,76.0,-41.0,-17.0,18.0,0
4.0,-227.0,76.0,-43.0,-24.0,19.0,0
4.0,-226.0,76.0,-48.0,-30.0,21.0,0
5.0,-227.0,72.0,-53.0,-35.0,21.0,0
2.0,-222.0,74.0,-56.0,-38.0,19.0,0
7.0,-228.0,72.0,-62.0,-39.0,16.0,0
14.0,-224.0,69.0,-62.0,-37.0,12.0,0
12.0,-220.0,73.0,-62.0,-31.0,7.0,0
9.0,-212.0,73.0,-61.0,-24.0,0.0,0
16.0,-220.0,73.0,-57.0,-18.0,-5.0,0
16.0,-223.0,70.0,-56.0,-11.0,-11.0,0
15.0,-223.0,75.0,-59.0,-5.0,-18.0,0
19.0,-224.0,72.0,-64.0,2.0,-25.0,0
17.0,-223.0,75.0,-75.0,9.0,-30.0,0
19.0,-227.0,76.0,-92.0,16.0,-36.0,0
19.0,-228.0,80.0,-115.0,22.0,-40.0,0
20.0,-229.0,80.0,-138.0,31.0,-46.0,0
22.0,-231.0,74.0,-160.0,43.0,-53.0,0
23.0,-233.0,73.0,-181.0,56.0,-60.0,0
22.0,-232.0,73.0,-199.0,72.0,-72.0,0
29.0,-234.0,72.0,-210.0,88.0,-86.0,0
28.0,-230.0,67.0,-216.0,105.0,-103.0,0
30.0,-232.0,65.0,-216.0,125.0,-122.0,0
34.0,-229.0,60.0,-218.0,149.0,-143.0,0
36.0,-226.0,60.0,-222.0,175.0,-163.0,0
39.0,-223.0,56.0,-235.0,200.0,-183.0,0
42.0,-221.0,54.0,-251.0,228.0,-202.0,0
44.0,-223.0,58.0,-278.0,257.0,-219.0,0
47.0,-223.0,52.0,-304.0,282.0,-232.0,0
47.0,-221.0,61.0,-332.0,305.0,-243.0,0
49.0,-222.0,62.0,-358.0,322.0,-248.0,0
47.0,-222.0,69.0,-381.0,332.0,-252.0,0
44.0,-221.0,70.0,-394.0,333.0,-252.0,0
46.0,-225.0,70.0,-398.0,329.0,-248.0,0
45.0,-228.0,79.0,-387.0,322.0,-240.0,0
44.0,-230.0,74.0,-366.0,313.0,-227.0,0
38.0,-230.0,78.0,-334.0,302.0,-211.0,0
38.0,-233.0,79.0,-294.0,291.0,-191.0,0
32.0,-237.0,83.0,-252.0,277.0,-168.0,0
28.0,-237.0,79.0,-216.0,264.0,-141.0,0
26.0,-240.0,81.0,-186.0,250.0,-115.0,0
21.0,-241.0,84.0,-161.0,235.0,-89.0,0
19.0,-245.0,83.0,-143.0,219.0,-70.0,0
15.0,-250.0,81.0,-128.0,204.0,-52.0,0
11.0,-246.0,85.0,-119.0,192.0,-38.0,0
9.0,-247.0,82.0,-112.0,178.0,-27.0,0
3.0,-246.0,85.0,-110.0,163.0,-23.0,0
-4.0,-248.0,81.0,-114.0,146.0,-24.0,0
-5.0,-249.0,84.0,-123.0,124.0,-28.0,0
-12.0,-249.0,84.0,-132.0,97.0,-40.0,0
-15.0,-244.0,87.0,-139.0,68.0,-57.0,0
-15.0,-244.0,85.0,-139.0,40.0,-77.0,0
-17.0,-243.0,92.0,-132.0,12.0,-95.0,0
-18.0,-243.0,95.0,-116.0,-11.0,-113.0,0
-16.0,-236.0,90.0,-103.0,-33.0,-132.0,0
-17.0,-237.0,90.0,-85.0,-54.0,-150.0,0
-14.0,-238.0,90.0,-66.0,-73.0,-163.0,0
-14.0,-233.0,91.0,-47.0,-91.0,-175.0,0
-6.0,-228.0,90.0,-26.0,-105.0,-186.0,0
-5.0,-226.0,85.0,-13.0,-114.0,-194.0,0
0.0,-224.0,92.0,0.0,-120.0,-201.0,0
-1.0,-224.0,86.0,6.0,-120.0,-203.0,0
18.0,-217.0,79.0,6.0,-122.0,-202.0,0
10.0,-220.0,82.0,-3.0,-125.0,-198.0,0
13.0,-215.0,79.0,-13.0,-131.0,-194.0,0
20.0,-212.0,77.0,-28.0,-140.0,-187.0,0
22.0,-211.0,76.0,-46.0,-150.0,-180.0,0
23.0,-209.0,73.0,-66.0,-164.0,-173.0,0
26.0,-211.0,72.0,-88.0,-179.0,-165.0,0
31.0,-205.0,70.0,-114.0,-191.0,-161.0,0
31.0,-209.0,68.0,-139.0,-202.0,-152.0,0
34.0,-211.0,70.0,-159.0,-211.0,-147.0,0
38.0,-213.0,65.0,-178.0,-215.0,-144.0,0
39.0,-216.0,66.0,-190.0,-217.0,-136.0,0
40.0,-220.0,70.0,-199.0,-215.0,-131.0,0
42.0,-220.0,66.0,-205.0,-211.0,-127.0,0
39.0,-224.0,67.0,-207.0,-207.0,-122.0,0
43.0,-226.0,67.0,-207.0,-204.0,-120.0,0
38.0,-226.0,68.0,-204.0,-196.0,-115.0,0
40.0,-228.0,70.0,-195.0,-188.0,-109.0,0
40.0,-228.0,71.0,-182.0,-177.0,-107.0,0
42.0,-232.0,70.0,-172.0,-164.0,-107.0,0
40.0,-235.0,70.0,-159.0,-148.0,-103.0,0
42.0,-237.0,70.0,-145.0,-129.0,-101.0,0
45.0,-239.0,70.0,-133.0,-109.0,-100.0,0
42.0,-238.0,71.0,-119.0,-89.0,-101.0,0
40.0,-240.0,72.0,-104.0,-72.0,-102.0,0
42.0,-236.0,70.0,-86.0,-56.0,-103.0,0
44.0,-234.0,69.0,-65.0,-42.0,-108.0,0
43.0,-235.0,75.0,-45.0,-31.0,-111.0,0
44.0,-234.0,73.0,-21.0,-23.0,-112.0,0
44.0,-227.0,74.0,-3.0,-17.0,-114.0,0
41.0,-227.0,72.0,12.0,-10.0,-114.0,0
44.0,-227.0,69.0,16.0,-7.0,-114.0,0
43.0,-225.0,74.0,15.0,-7.0,-113.0,0
40.0,-220.0,70.0,6.0,-10.0,-108.0,0
38.0,-218.0,73.0,-9.0,-16.0,-106.0,0
38.0,-221.0,70.0,-29.0,-19.0,-100.0,0
35.0,-218.0,72.0,-46.0,-23.0,-94.0,0
36.0,-219.0,73.0,-64.0,-28.0,-89.0,0
37.0,-219.0,74.0,-78.0,-33.0,-82.0,0
36.0,-220.0,72.0,-93.0,-38.0,-76.0,0
38.0,-218.0,74.0,-102.0,-44.0,-73.0,0
38.0,-220.0,72.0,-106.0,-46.0,-72.0,0
36.0,-221.0,75.0,-107.0,-48.0,-70.0,0
34.0,-217.0,74.0,-101.0,-48.0,-68.0,0
36.0,-219.0,74.0,-94.0,-45.0,-69.0,0
39.0,-219.0,73.0,-84.0,-38.0,-67.0,0
38.0,-215.0,72.0,-78.0,-29.0,-65.0,0
40.0,-217.0,70.0,-76.0,-18.0,-63.0,0
39.0,-215.0,73.0,-80.0,-8.0,-59.0,0
41.0,-216.0,68.0,-92.0,9.0,-53.0,0
43.0,-210.0,66.0,-107.0,22.0,-50.0,0
45.0,-217.0,68.0,-123.0,34.0,-46.0,0
44.0,-212.0,70.0,-138.0,45.0,-42.0,0
47.0,-211.0,69.0,-151.0,48.0,-37.0,0
48.0,-209.0,67.0,-157.0,46.0,-31.0,0
48.0,-208.0,66.0,-160.0,40.0,-25.0,0
48.0,-205.0,71.0,-158.0,34.0,-17.0,0
50.0,-204.0,69.0,-153.0,29.0,-7.0,0
47.0,-205.0,72.0,-145.0,23.0,4.0,0
46.0,-207.0,69.0,-138.0,22.0,16.0,0
44.0,-205.0,74.0,-137.0,20.0,27.0,0
43.0,-206.0,73.0,-138.0,18.0,47.0,0
45.0,-209.0,74.0,-141.0,16.0,69.0,0
43.0,-214.0,75.0,-149.0,6.0,94.0,0
41.0,-214.0,76.0,-155.0,-9.0,121.0,0
37.0,-216.0,75.0,-160.0,-26.0,149.0,0
42.0,-219.0,78.0,-161.0,-49.0,178.0,0
35.0,-220.0,76.0,-158.0,-72.0,205.0,0
33.0,-224.0,77.0,-153.0,-97.0,231.0,0
30.0,-226.0,77.0,-144.0,-123.0,253.0,0
26.0,-227.0,78.0,-131.0,-148.0,270.0,0
24.0,-230.0,75.0,-120.0,-172.0,281.0,0
16.0,-229.0,76.0,-112.0,-197.0,286.0,0
18.0,-228.0,73.0,-108.0,-221.0,287.0,0
14.0,-230.0,73.0,-110.0,-241.0,286.0,0
10.0,-228.0,72.0,-125.0,-256.0,284.0,0
8.0,-228.0,67.0,-149.0,-267.0,281.0,0
11.0,-229.0,69.0,-181.0,-273.0,280.0,0
11.0,-229.0,63.0,-220.0,-278.0,277.0,0
14.0,-229.0,69.0,-260.0,-283.0,273.0,0
14.0,-230.0,69.0,-293.0,-289.0,268.0,0
17.0,-230.0,69.0,-320.0,-294.0,265.0,0
24.0,-233.0,69.0,-336.0,-300.0,261.0,0
27.0,-232.0,67.0,-342.0,-306.0,256.0,0
32.0,-237.0,70.0,-338.0,-309.0,253.0,0
34.0,-234.0,71.0,-327.0,-313.0,250.0,0
37.0,-234.0,72.0,-313.0,-317.0,252.0,0
39.0,-233.0,70.0,-302.0,-324.0,255.0,0
41.0,-229.0,66.0,-295.0,-332.0,260.0,0
46.0,-228.0,69.0,-293.0,-344.0,269.0,0
44.0,-222.0,67.0,-294.0,-357.0,279.0,0
47.0,-227.0,71.0,-295.0,-369.0,291.0,0
47.0,-223.0,69.0,-301.0,-379.0,301.0,0
48.0,-222.0,60.0,-306.0,-381.0,314.0,0
46.0,-222.0,61.0,-314.0,-377.0,324.0,0
48.0,-223.0,59.0,-323.0,-369.0,335.0,0
47.0,-222.0,56.0,-337.0,-358.0,345.0,0
47.0,-223.0,54.0,-351.0,-344.0,353.0,0
48.0,-223.0,53.0,-369.0,-331.0,360.0,0
46.0,-227.0,55.0,-384.0,-318.0,366.0,0
45.0,-233.0,54.0,-400.0,-307.0,371.0,0
44.0,-234.0,59.0,-406.0,-303.0,374.0,0
43.0,-239.0,60.0,-404.0,-305.0,376.0,0
41.0,-244.0,67.0,-394.0,-311.0,381.0,0
38.0,-250.0,72.0,-379.0,-324.0,387.0,0
32.0,-256.0,69.0,-360.0,-334.0,390.0,0
26.0,-259.0,73.0,-340.0,-342.0,391.0,0
21.0,-262.0,79.0,-311.0,-344.0,387.0,0
18.0,-264.0,84.0,-278.0,-340.0,375.0,0
16.0,-274.0,91.0,-232.0,-332.0,356.0,0
15.0,-266.0,88.0,-189.0,-320.0,325.0,0
13.0,-264.0,80.0,-127.0,-304.0,289.0,0
15.0,-261.0,79.0,-65.0,-283.0,244.0,0
16.0,-256.0,72.0,-16.0,-262.0,198.0,0
22.0,-249.0,63.0,12.0,-233.0,152.0,0
26.0,-242.0,58.0,14.0,-198.0,118.0,0
28.0,-244.0,55.0,-6.0,-163.0,80.0,0
32.0,-239.0,57.0,-42.0,-128.0,47.0,0
35.0,-239.0,51.0,-90.0,-101.0,19.0,0
37.0,-239.0,57.0,-140.0,-88.0,-1.0,0
39.0,-237.0,64.0,-184.0,-90.0,-11.0,0
36.0,-240.0,68.0,-219.0,-108.0,-14.0,0
36.0,-236.0,77.0,-246.0,-139.0,-9.0,0
37.0,-240.0,80.0,-264.0,-179.0,5.0,0
39.0,-248.0,89.0,-273.0,-217.0,25.0,0
38.0,-246.0,91.0,-274.0,-249.0,48.0,0
40.0,-250.0,97.0,-268.0,-268.0,70.0,0
39.0,-263.0,102.0,-258.0,-274.0,92.0,0
40.0,-267.0,102.0,-245.0,-267.0,110.0,0
40.0,-278.0,96.0,-236.0,-248.0,123.0,0
35.0,-287.0,91.0,-238.0,-223.0,129.0,0
35.0,-295.0,83.0,-255.0,-192.0,129.0,0
35.0,-307.0,78.0,-288.0,-159.0,125.0,0
33.0,-313.0,68.0,-341.0,-123.0,112.0,0
39.0,-327.0,65.0,-410.0,-87.0,93.0,0
41.0,-336.0,52.0,-486.0,-59.0,67.0,0
44.0,-343.0,52.0,-562.0,-39.0,37.0,0
41.0,-352.0,48.0,-630.0,-28.0,9.0,0
36.0,-359.0,43.0,-684.0,-26.0,-17.0,0
34.0,-369.0,41.0,-716.0,-26.0,-42.0,0
30.0,-375.0,37.0,-728.0,-27.0,-61.0,0
26.0,-378.0,32.0,-725.0,-29.0,-77.0,0
22.0,-377.0,31.0,-708.0,-32.0,-85.0,0
10.0,-371.0,37.0,-678.0,-38.0,-87.0,0
5.0,-366.0,33.0,-632.0,-44.0,-75.0,0
1.0,-362.0,33.0,-584.0,-57.0,-48.0,0
-4.0,-346.0,26.0,-540.0,-71.0,-14.0,0
-8.0,-343.0,20.0,-504.0,-85.0,23.0,0
-13.0,-332.0,13.0,-471.0,-98.0,67.0,0
-15.0,-322.0,10.0,-448.0,-108.0,117.0,0
-16.0,-307.0,-1.0,-428.0,-124.0,168.0,0
-15.0,-298.0,3.0,-409.0,-139.0,225.0,0
-18.0,-282.0,-7.0,-395.0,-159.0,276.0,0
-16.0,-276.0,-9.0,-388.0,-178.0,323.0,0
-16.0,-264.0,-10.0,-390.0,-192.0,360.0,0
-16.0,-256.0,-12.0,-398.0,-197.0,390.0,0
-18.0,-255.0,-15.0,-409.0,-196.0,408.0,0
-21.0,-252.0,-9.0,-416.0,-190.0,423.0,0
-22.0,-251.0,-7.0,-417.0,-186.0,434.0,0
-26.0,-258.0,-10.0,-415.0,-181.0,449.0,0
-29.0,-259.0,-9.0,-404.0,-181.0,461.0,0
-27.0,-265.0,0.0,-387.0,-186.0,470.0,0
-20.0,-267.0,-3.0,-369.0,-196.0,479.0,0
-18.0,-266.0,4.0,-346.0,-207.0,482.0,0
-17.0,-273.0,4.0,-322.0,-216.0,480.0,0
-13.0,-275.0,2.0,-300.0,-217.0,476.0,0
-11.0,-276.0,3.0,-284.0,-209.0,472.0,0
-8.0,-277.0,-6.0,-274.0,-194.0,465.0,0
-6.0,-276.0,-1.0,-267.0,-176.0,456.0,0
-6.0,-274.0,-3.0,-269.0,-162.0,447.0,0
-4.0,-276.0,-4.0,-280.0,-146.0,439.0,0
-2.0,-272.0,-8.0,-297.0,-131.0,432.0,0
-4.0,-267.0,-7.0,-314.0,-117.0,422.0,0
-4.0,-263.0,-6.0,-335.0,-106.0,413.0,0
-6.0,-258.0,-6.0,-352.0,-98.0,406.0,0
-5.0,-255.0,-6.0,-368.0,-94.0,398.0,0
-5.0,-250.0,-5.0,-379.0,-95.0,389.0,0
-6.0,-248.0,-5.0,-389.0,-96.0,377.0,0
-5.0,-245.0,-9.0,-396.0,-93.0,360.0,0
-1.0,-244.0,-10.0,-400.0,-82.0,340.0,0
1.0,-234.0,-9.0,-400.0,-64.0,319.0,0
7.0,-232.0,-9.0,-397.0,-41.0,298.0,0
8.0,-228.0,-11.0,-387.0,-14.0,275.0,0
11.0,-223.0,-13.0,-373.0,11.0,255.0,0
9.0,-219.0,-11.0,-351.0,34.0,236.0,0
14.0,-215.0,-11.0,-323.0,52.0,220.0,0
17.0,-209.0,-8.0,-289.0,67.0,213.0,0
16.0,-207.0,-7.0,-251.0,83.0,203.0,0
18.0,-201.0,-7.0,-216.0,104.0,199.0,0
21.0,-197.0,-4.0,-169.0,133.0,196.0,0
22.0,-190.0,-8.0,-108.0,169.0,190.0,0
18.0,-187.0,-7.0,-37.0,211.0,189.0,0
15.0,-183.0,-4.0,34.0,250.0,188.0,0
11.0,-182.0,-7.0,93.0,285.0,192.0,0
2.0,-178.0,-6.0,142.0,310.0,197.0,0
-2.0,-178.0,-9.0,175.0,326.0,206.0,0
-14.0,-174.0,-10.0,190.0,326.0,224.0,0
-16.0,-175.0,-14.0,191.0,314.0,247.0,0
-21.0,-175.0,-13.0,177.0,291.0,280.0,0
-24.0,-173.0,-11.0,158.0,266.0,315.0,0
-24.0,-175.0,-9.0,129.0,241.0,352.0,0
-25.0,-176.0,-11.0,102.0,222.0,385.0,0
-26.0,-182.0,-10.0,75.0,212.0,417.0,0
-24.0,-185.0,-10.0,46.0,215.0,449.0,0
-29.0,-188.0,-6.0,19.0,231.0,473.0,0
-30.0,-193.0,-6.0,-6.0,250.0,492.0,0
-34.0,-196.0,-4.0,-28.0,269.0,504.0,0
-39.0,-199.0,-1.0,-41.0,281.0,512.0,0
-43.0,-203.0,3.0,-44.0,285.0,514.0,0
-44.0,-207.0,4.0,-34.0,278.0,515.0,0
-47.0,-211.0,5.0,-16.0,268.0,512.0,0
-45.0,-214.0,8.0,14.0,255.0,505.0,0
-48.0,-217.0,9.0,50.0,241.0,495.0,0
-50.0,-221.0,8.0,87.0,227.0,480.0,0
-50.0,-220.0,6.0,126.0,213.0,463.0,0
-45.0,-224.0,3.0,166.0,204.0,442.0,0
-51.0,-225.0,2.0,202.0,195.0,419.0,0
-43.0,-215.0,-9.0,227.0,193.0,391.0,0
-49.0,-226.0,2.0,238.0,185.0,362.0,0
-47.0,-226.0,2.0,238.0,176.0,337.0,0
-46.0,-228.0,-3.0,227.0,163.0,315.0,0
-45.0,-227.0,2.0,209.0,147.0,299.0,0
-44.0,-221.0,2.0,186.0,126.0,287.0,0
-44.0,-222.0,7.0,163.0,106.0,281.0,0
-43.0,-224.0,9.0,141.0,88.0,279.0,0
-41.0,-220.0,9.0,120.0,70.0,282.0,0
-42.0,-224.0,11.0,106.0,58.0,287.0,0
-39.0,-226.0,13.0,89.0,48.0,293.0,0
-41.0,-226.0,14.0,70.0,41.0,303.0,0
-44.0,-230.0,16.0,51.0,35.0,313.0,0
-39.0,-233.0,15.0,34.0,29.0,324.0,0
-44.0,-234.0,17.0,19.0,21.0,332.0,0
-44.0,-239.0,17.0,9.0,14.0,340.0,0
-41.0,-241.0,21.0,5.0,6.0,343.0,0
-45.0,-245.0,20.0,9.0,2.0,345.0,0
-39.0,-245.0,19.0,20.0,6.0,344.0,0
-35.0,-248.0,16.0,42.0,12.0,336.0,0
-35.0,-246.0,15.0,70.0,23.0,322.0,0
-33.0,-246.0,18.0,109.0,40.0,303.0,0
-31.0,-246.0,15.0,148.0,57.0,282.0,0
-36.0,-241.0,18.0,188.0,74.0,257.0,0
-36.0,-239.0,19.0,227.0,91.0,234.0,0
-38.0,-235.0,15.0,266.0,107.0,211.0,0
-40.0,-236.0,18.0,299.0,118.0,194.0,0
-40.0,-232.0,11.0,325.0,130.0,180.0,0
-39.0,-227.0,16.0,342.0,133.0,171.0,0
-43.0,-225.0,18.0,349.0,133.0,162.0,0
-42.0,-225.0,18.0,339.0,133.0,157.0,0
-45.0,-222.0,22.0,315.0,130.0,153.0,0
-43.0,-222.0,21.0,279.0,124.0,150.0,0
-45.0,-221.0,24.0,232.0,109.0,151.0,0
-44.0,-221.0,26.0,180.0,89.0,155.0,0
-44.0,-224.0,30.0,125.0,65.0,160.0,0
-43.0,-224.0,34.0,74.0,39.0,165.0,0
-47.0,-221.0,31.0,27.0,13.0,169.0,0
-44.0,-230.0,36.0,-12.0,-9.0,173.0,0
-47.0,-229.0,37.0,-40.0,-28.0,177.0,0
-45.0,-228.0,33.0,-56.0,-43.0,179.0,0
-45.0,-229.0,37.0,-64.0,-58.0,178.0,0
-45.0,-234.0,33.0,-62.0,-67.0,172.0,0
-44.0,-238.0,33.0,-50.0,-70.0,165.0,0
-43.0,-242.0,33.0,-32.0,-68.0,154.0,0
-46.0,-240.0,26.0,-10.0,-61.0,144.0,0
-44.0,-240.0,26.0,13.0,-51.0,129.0,0
-43.0,-242.0,25.0,32.0,-38.0,114.0,0
-40.0,-243.0,20.0,49.0,-19.0,99.0,0
-45.0,-243.0,22.0,63.0,2.0,86.0,0
-42.0,-239.0,16.0,73.0,26.0,75.0,0
-38.0,-243.0,18.0,81.0,52.0,66.0,0
-39.0,-238.0,22.0,83.0,76.0,58.0,0
-33.0,-240.0,13.0,83.0,97.0,52.0,0
-35.0,-240.0,19.0,83.0,111.0,47.0,0
-29.0,-231.0,20.0,86.0,124.0,44.0,0
-35.0,-234.0,21.0,90.0,132.0,39.0,0
-33.0,-234.0,25.0,93.0,137.0,38.0,0
-35.0,-232.0,30.0,98.0,141.0,36.0,0
-35.0,-229.0,33.0,101.0,143.0,32.0,0
-40.0,-228.0,35.0,109.0,143.0,26.0,0
-43.0,-229.0,42.0,119.0,144.0,18.0,0
-44.0,-229.0,43.0,130.0,143.0,10.0,0
-48.0,-229.0,46.0,139.0,142.0,0.0,0
-52.0,-226.0,43.0,147.0,135.0,-7.0,0
-53.0,-223.0,45.0,150.0,125.0,-15.0,0
-57.0,-224.0,41.0,147.0,113.0,-22.0,0
-58.0,-221.0,42.0,139.0,103.0,-25.0,0
-59.0,-218.0,39.0,125.0,96.0,-29.0,0
-61.0,-219.0,36.0,108.0,97.0,-32.0,0
-61.0,-219.0,34.0,89.0,105.0,-38.0,0
-60.0,-220.0,31.0,76.0,119.0,-49.0,0
-59.0,-220.0,31.0,65.0,137.0,-59.0,0
-55.0,-222.0,35.0,54.0,158.0,-72.0,0
-54.0,-222.0,35.0,44.0,174.0,-81.0,0
-52.0,-226.0,39.0,37.0,186.0,-91.0,0
-53.0,-225.0,36.0,32.0,198.0,-99.0,0
-57.0,-229.0,42.0,30.0,203.0,-105.0,0
-54.0,-229.0,38.0,32.0,203.0,-110.0,0
-56.0,-234.0,38.0,38.0,196.0,-117.0,0
-54.0,-231.0,38.0,50.0,187.0,-123.0,0
-52.0,-232.0,45.0,66.0,173.0,-129.0,0
-54.0,-232.0,41.0,83.0,157.0,-136.0,0
-54.0,-227.0,47.0,100.0,141.0,-144.0,0
-54.0,-230.0,44.0,115.0,123.0,-149.0,0
-53.0,-227.0,44.0,129.0,107.0,-153.0,0
-56.0,-226.0,48.0,134.0,95.0,-150.0,0
-52.0,-229.0,47.0,136.0,84.0,-145.0,0
-56.0,-223.0,45.0,126.0,78.0,-138.0,0
-52.0,-220.0,43.0,110.0,77.0,-131.0,0
-55.0,-222.0,46.0,87.0,77.0,-121.0,0
-54.0,-220.0,42.0,54.0,82.0,-110.0,0
-50.0,-223.0,42.0,15.0,90.0,-99.0,0
-49.0,-223.0,39.0,-30.0,98.0,-95.0,0
-48.0,-228.0,37.0,-78.0,109.0,-94.0,0
-47.0,-228.0,38.0,-122.0,120.0,-96.0,0
-47.0,-232.0,38.0,-162.0,133.0,-105.0,0
-46.0,-236.0,44.0,-191.0,138.0,-114.0,0
-49.0,-238.0,40.0,-209.0,138.0,-126.0,0
-51.0,-239.0,44.0,-214.0,130.0,-135.0,0
-50.0,-243.0,45.0,-205.0,113.0,-140.0,0
-53.0,-246.0,48.0,-192.0,88.0,-142.0,0
-56.0,-246.0,45.0,-168.0,61.0,-143.0,0
-58.0,-245.0,48.0,-148.0,33.0,-141.0,0
-57.0,-245.0,44.0,-129.0,12.0,-137.0,0
-58.0,-248.0,46.0,-116.0,0.0,-133.0,0
-56.0,-252.0,42.0,-115.0,-3.0,-129.0,0
-57.0,-249.0,43.0,-120.0,4.0,-128.0,0
-55.0,-254.0,45.0,-133.0,19.0,-124.0,0
-49.0,-255.0,36.0,-147.0,41.0,-119.0,0
-56.0,-263.0,46.0,-159.0,64.0,-117.0,0
-54.0,-265.0,43.0,-172.0,85.0,-114.0,0
-52.0,-270.0,46.0,-183.0,110.0,-111.0,0
-53.0,-266.0,48.0,-191.0,132.0,-107.0,0
-51.0,-266.0,44.0,-200.0,153.0,-104.0,0
-51.0,-268.0,45.0,-214.0,168.0,-103.0,0
-49.0,-274.0,50.0,-222.0,181.0,-101.0,0
-46.0,-272.0,48.0,-227.0,190.0,-101.0,0
-42.0,-274.0,50.0,-219.0,191.0,-106.0,0
-38.0,-279.0,51.0,-196.0,191.0,-117.0,0
-34.0,-278.0,49.0,-159.0,197.0,-129.0,0
-34.0,-283.0,52.0,-114.0,210.0,-138.0,0
-32.0,-284.0,57.0,-65.0,227.0,-148.0,0
-28.0,-283.0,61.0,-16.0,240.0,-154.0,0
-30.0,-285.0,63.0,24.0,241.0,-160.0,0
-32.0,-281.0,60.0,55.0,232.0,-162.0,0
-36.0,-280.0,58.0,70.0,218.0,-159.0,0
-42.0,-281.0,56.0,66.0,206.0,-154.0,0
-46.0,-281.0,55.0,47.0,202.0,-142.0,0
-47.0,-285.0,57.0,15.0,204.0,-130.0,0
-52.0,-286.0,58.0,-23.0,214.0,-114.0,0
-51.0,-290.0,54.0,-70.0,225.0,-103.0,0
-51.0,-293.0,55.0,-109.0,239.0,-88.0,0
-53.0,-298.0,54.0,-166.0,251.0,-74.0,0
-54.0,-301.0,57.0,-224.0,257.0,-64.0,0
-55.0,-307.0,54.0,-281.0,257.0,-53.0,0
-54.0,-313.0,51.0,-336.0,248.0,-45.0,0
-55.0,-322.0,50.0,-391.0,231.0,-35.0,0
-57.0,-331.0,51.0,-439.0,209.0,-24.0,0
-58.0,-340.0,48.0,-482.0,182.0,-17.0,0
-63.0,-349.0,41.0,-516.0,158.0,-12.0,0
-65.0,-356.0,36.0,-545.0,135.0,-11.0,0
-64.0,-362.0,23.0,-569.0,117.0,-17.0,0
-66.0,-366.0,12.0,-590.0,95.0,-30.0,0
-65.0,-361.0,9.0,-609.0,69.0,-51.0,0
-62.0,-356.0,-5.0,-629.0,39.0,-76.0,0
-57.0,-349.0,-16.0,-649.0,15.0,-110.0,0
-50.0,-337.0,-26.0,-672.0,10.0,-145.0,0
-47.0,-327.0,-37.0,-696.0,25.0,-180.0,0
-41.0,-314.0,-40.0,-716.0,59.0,-218.0,0
-34.0,-309.0,-40.0,-723.0,108.0,-256.0,0
-25.0,-296.0,-43.0,-713.0,163.0,-296.0,0
-15.0,-286.0,-41.0,-685.0,222.0,-338.0,0
-10.0,-277.0,-41.0,-643.0,277.0,-382.0,0
2.0,-270.0,-39.0,-596.0,328.0,-429.0,0
8.0,-262.0,-38.0,-549.0,376.0,-472.0,0
13.0,-255.0,-46.0,-497.0,424.0,-512.0,0
20.0,-251.0,-42.0,-452.0,468.0,-547.0,0
24.0,-248.0,-39.0,-412.0,506.0,-580.0,0
28.0,-253.0,-39.0,-379.0,537.0,-607.0,0
28.0,-255.0,-39.0,-353.0,556.0,-629.0,0
24.0,-257.0,-40.0,-335.0,561.0,-649.0,0
18.0,-254.0,-36.0,-322.0,551.0,-666.0,0
8.0,-264.0,-32.0,-311.0,528.0,-674.0,0
6.0,-262.0,-37.0,-300.0,497.0,-675.0,0
0.0,-264.0,-34.0,-289.0,456.0,-670.0,0
-9.0,-267.0,-34.0,-274.0,404.0,-662.0,0
-16.0,-266.0,-35.0,-256.0,348.0,-645.0,0
-19.0,-267.0,-28.0,-228.0,292.0,-620.0,0
-27.0,-270.0,-30.0,-195.0,237.0,-592.0,0
-31.0,-266.0,-28.0,-159.0,187.0,-562.0,0
-35.0,-269.0,-29.0,-124.0,146.0,-534.0,0
-37.0,-265.0,-23.0,-90.0,117.0,-508.0,0
-39.0,-262.0,-18.0,-61.0,100.0,-482.0,0
-39.0,-261.0,-25.0,-37.0,96.0,-458.0,0
-37.0,-258.0,-27.0,-17.0,106.0,-435.0,0
-39.0,-256.0,-23.0,2.0,122.0,-414.0,0
-41.0,-257.0,-20.0,18.0,142.0,-397.0,0
-39.0,-255.0,-18.0,37.0,165.0,-387.0,0
-40.0,-252.0,-13.0,59.0,184.0,-378.0,0
-35.0,-249.0,-16.0,86.0,197.0,-374.0,0
-35.0,-247.0,-18.0,114.0,205.0,-373.0,0
-36.0,-244.0,-13.0,143.0,206.0,-374.0,0
-33.0,-240.0,-7.0,172.0,203.0,-378.0,0
-30.0,-232.0,-10.0,200.0,196.0,-384.0,0
-24.0,-231.0,-6.0,231.0,187.0,-388.0,0
-18.0,-224.0,-2.0,261.0,179.0,-394.0,0
-16.0,-220.0,-7.0,293.0,170.0,-403.0,0
-14.0,-214.0,-11.0,321.0,158.0,-417.0,0
-10.0,-210.0,-4.0,342.0,142.0,-429.0,0
-6.0,-207.0,-4.0,356.0,121.0,-443.0,0
-3.0,-204.0,-2.0,362.0,92.0,-459.0,0
1.0,-199.0,-4.0,356.0,55.0,-471.0,0
3.0,-197.0,-6.0,339.0,15.0,-483.0,0
5.0,-195.0,-4.0,313.0,-27.0,-490.0,0
10.0,-194.0,-4.0,281.0,-59.0,-492.0,0
11.0,-191.0,-7.0,246.0,-93.0,-494.0,0
20.0,-193.0,-7.0,213.0,-115.0,-494.0,0
18.0,-196.0,-8.0,182.0,-129.0,-488.0,0
21.0,-196.0,-7.0,154.0,-132.0,-481.0,0
20.0,-196.0,-9.0,134.0,-125.0,-475.0,0
21.0,-200.0,-13.0,119.0,-113.0,-464.0,0
17.0,-200.0,-7.0,110.0,-104.0,-452.0,0
15.0,-200.0,-11.0,106.0,-100.0,-438.0,0
11.0,-201.0,-12.0,105.0,-103.0,-417.0,0
12.0,-204.0,-12.0,104.0,-108.0,-395.0,0
9.0,-204.0,-15.0,102.0,-113.0,-372.0,0
9.0,-209.0,-16.0,99.0,-113.0,-352.0,0
13.0,-212.0,-10.0,92.0,-106.0,-332.0,0
14.0,-218.0,-11.0,89.0,-91.0,-318.0,0
15.0,-221.0,-11.0,86.0,-74.0,-308.0,0
15.0,-223.0,-7.0,89.0,-51.0,-300.0,0
15.0,-233.0,-4.0,92.0,-33.0,-292.0,0
12.0,-233.0,-1.0,102.0,-24.0,-288.0,0
10.0,-235.0,-4.0,119.0,-23.0,-288.0,0
9.0,-234.0,-3.0,139.0,-28.0,-288.0,0
9.0,-235.0,-4.0,160.0,-40.0,-290.0,0
8.0,-237.0,3.0,180.0,-54.0,-294.0,0
5.0,-232.0,-2.0,200.0,-67.0,-297.0,0
7.0,-229.0,0.0,215.0,-79.0,-301.0,0
7.0,-229.0,0.0,227.0,-90.0,-307.0,0
3.0,-225.0,-3.0,237.0,-101.0,-311.0,0
4.0,-227.0,1.0,247.0,-113.0,-313.0,0
-1.0,-226.0,5.0,254.0,-124.0,-316.0,0
-3.0,-226.0,9.0,255.0,-138.0,-319.0,0
-5.0,-222.0,6.0,253.0,-157.0,-320.0,0
-10.0,-217.0,8.0,244.0,-179.0,-318.0,0
-8.0,-219.0,8.0,229.0,-203.0,-320.0,0
-10.0,-218.0,10.0,211.0,-227.0,-318.0,0
-9.0,-215.0,12.0,195.0,-249.0,-320.0,0
-6.0,-218.0,9.0,182.0,-264.0,-318.0,0
-3.0,-219.0,13.0,172.0,-273.0,-314.0,0
1.0,-220.0,14.0,170.0,-274.0,-311.0,0
3.0,-224.0,19.0,177.0,-268.0,-310.0,0
8.0,-226.0,18.0,187.0,-261.0,-311.0,0
12.0,-225.0,17.0,201.0,-253.0,-312.0,0
13.0,-226.0,17.0,221.0,-245.0,-308.0,0
17.0,-227.0,21.0,243.0,-238.0,-302.0,0
22.0,-228.0,19.0,263.0,-234.0,-296.0,0
24.0,-227.0,20.0,284.0,-237.0,-284.0,0
27.0,-228.0,16.0,300.0,-242.0,-271.0,0
30.0,-229.0,18.0,313.0,-247.0,-254.0,0
32.0,-231.0,15.0,325.0,-253.0,-235.0,0
38.0,-237.0,21.0,337.0,-257.0,-218.0,0
39.0,-239.0,22.0,349.0,-260.0,-202.0,0
44.0,-239.0,17.0,364.0,-258.0,-187.0,0
44.0,-240.0,22.0,384.0,-258.0,-172.0,0
46.0,-242.0,25.0,404.0,-258.0,-157.0,0
45.0,-239.0,25.0,426.0,-260.0,-142.0,0
48.0,-239.0,27.0,445.0,-261.0,-128.0,0
48.0,-236.0,29.0,457.0,-261.0,-115.0,0
46.0,-234.0,25.0,458.0,-261.0,-106.0,0
48.0,-234.0,29.0,450.0,-257.0,-97.0,0
45.0,-230.0,28.0,434.0,-250.0,-88.0,0
45.0,-229.0,29.0,407.0,-244.0,-78.0,0
44.0,-225.0,31.0,373.0,-236.0,-72.0,0
44.0,-224.0,32.0,337.0,-232.0,-68.0,0
41.0,-224.0,40.0,301.0,-227.0,-64.0,0
41.0,-226.0,38.0,266.0,-223.0,-61.0,0
40.0,-227.0,39.0,240.0,-219.0,-62.0,0
41.0,-227.0,44.0,218.0,-216.0,-62.0,0
41.0,-226.0,47.0,205.0,-209.0,-63.0,0
45.0,-229.0,49.0,198.0,-200.0,-63.0,0
47.0,-227.0,46.0,202.0,-186.0,-65.0,0
44.0,-230.0,52.0,214.0,-169.0,-69.0,0
44.0,-232.0,54.0,233.0,-150.0,-72.0,0
44.0,-233.0,54.0,257.0,-129.0,-77.0,0
40.0,-230.0,52.0,277.0,-112.0,-82.0,0
46.0,-232.0,49.0,297.0,-103.0,-86.0,0
44.0,-230.0,50.0,312.0,-102.0,-88.0,0
44.0,-231.0,46.0,323.0,-106.0,-87.0,0
51.0,-223.0,44.0,326.0,-119.0,-84.0,0
42.0,-228.0,45.0,327.0,-132.0,-78.0,0
47.0,-227.0,40.0,321.0,-145.0,-68.0,0
46.0,-230.0,44.0,308.0,-156.0,-54.0,0
44.0,-226.0,43.0,288.0,-158.0,-36.0,0
43.0,-223.0,41.0,265.0,-151.0,-22.0,0
43.0,-220.0,42.0,239.0,-133.0,-9.0,0
45.0,-220.0,43.0,215.0,-106.0,0.0,0
45.0,-216.0,48.0,189.0,-76.0,9.0,0
42.0,-211.0,46.0,169.0,-47.0,16.0,0
44.0,-214.0,54.0,154.0,-21.0,20.0,0
47.0,-212.0,52.0,146.0,1.0,26.0,0
46.0,-209.0,59.0,145.0,23.0,31.0,0
44.0,-213.0,60.0,148.0,42.0,35.0,0
47.0,-212.0,61.0,149.0,56.0,41.0,0
47.0,-212.0,61.0,146.0,55.0,50.0,0
48.0,-215.0,62.0,139.0,43.0,57.0,0
47.0,-215.0,64.0,127.0,21.0,68.0,0
44.0,-219.0,63.0,115.0,-4.0,82.0,0
40.0,-218.0,64.0,103.0,-28.0,94.0,0
38.0,-219.0,59.0,94.0,-47.0,108.0,0
35.0,-217.0,53.0,82.0,-60.0,122.0,0
30.0,-219.0,54.0,67.0,-66.0,133.0,0
29.0,-220.0,51.0,41.0,-70.0,143.0,0
26.0,-219.0,47.0,6.0,-71.0,152.0,0
23.0,-225.0,44.0,-37.0,-75.0,161.0,0
19.0,-229.0,43.0,-84.0,-76.0,169.0,0
17.0,-231.0,46.0,-136.0,-79.0,175.0,0
14.0,-234.0,50.0,-186.0,-83.0,183.0,0
15.0,-238.0,46.0,-230.0,-86.0,188.0,0
17.0,-243.0,45.0,-261.0,-90.0,193.0,0
18.0,-245.0,49.0,-277.0,-91.0,193.0,0
19.0,-247.0,52.0,-273.0,-93.0,189.0,0
19.0,-247.0,52.0,-256.0,-94.0,181.0,0
23.0,-250.0,61.0,-227.0,-94.0,171.0,0
27.0,-247.0,55.0,-195.0,-92.0,160.0,0
29.0,-247.0,54.0,-163.0,-94.0,149.0,0
29.0,-241.0,52.0,-136.0,-99.0,140.0,0
28.0,-239.0,52.0,-115.0,-105.0,139.0,0
27.0,-237.0,51.0,-103.0,-119.0,140.0,0
29.0,-234.0,52.0,-96.0,-135.0,140.0,0
29.0,-234.0,52.0,-95.0,-148.0,143.0,0
31.0,-232.0,49.0,-96.0,-158.0,145.0,0
30.0,-229.0,52.0,-93.0,-166.0,151.0,0
30.0,-228.0,51.0,-87.0,-173.0,156.0,0
29.0,-227.0,47.0,-80.0,-179.0,163.0,0
24.0,-222.0,50.0,-77.0,-183.0,171.0,0
30.0,-222.0,52.0,-77.0,-184.0,176.0,0
35.0,-224.0,51.0,-83.0,-183.0,182.0,0
37.0,-231.0,53.0,-93.0,-180.0,184.0,0
38.0,-228.0,56.0,-107.0,-175.0,184.0,0
40.0,-236.0,57.0,-118.0,-171.0,182.0,0
40.0,-235.0,60.0,-128.0,-165.0,182.0,0
38.0,-235.0,64.0,-133.0,-159.0,177.0,0
39.0,-240.0,64.0,-133.0,-150.0,170.0,0
41.0,-238.0,61.0,-129.0,-141.0,157.0,0
40.0,-242.0,64.0,-119.0,-131.0,141.0,0
43.0,-241.0,57.0,-102.0,-121.0,121.0,0
43.0,-241.0,55.0,-90.0,-107.0,102.0,0
46.0,-236.0,61.0,-81.0,-95.0,86.0,0
45.0,-237.0,48.0,-81.0,-87.0,72.0,0
43.0,-235.0,44.0,-94.0,-83.0,62.0,0
46.0,-234.0,42.0,-124.0,-82.0,59.0,0
47.0,-242.0,43.0,-159.0,-90.0,63.0,0
42.0,-236.0,45.0,-201.0,-102.0,75.0,0
44.0,-236.0,43.0,-243.0,-120.0,96.0,0
38.0,-239.0,49.0,-277.0,-138.0,124.0,0
36.0,-236.0,54.0,-305.0,-159.0,153.0,0
32.0,-241.0,56.0,-324.0,-175.0,185.0,0
30.0,-246.0,63.0,-331.0,-187.0,209.0,0
29.0,-248.0,61.0,-328.0,-194.0,230.0,0
26.0,-250.0,66.0,-313.0,-196.0,244.0,0
18.0,-251.0,71.0,-286.0,-196.0,256.0,0
14.0,-249.0,72.0,-250.0,-200.0,261.0,0
12.0,-254.0,71.0,-211.0,-199.0,262.0,0
9.0,-251.0,67.0,-176.0,-199.0,259.0,0
6.0,-253.0,68.0,-152.0,-201.0,252.0,0
7.0,-255.0,66.0,-143.0,-201.0,239.0,0
7.0,-258.0,62.0,-146.0,-201.0,222.0,0
5.0,-256.0,69.0,-154.0,-198.0,203.0,0
3.0,-258.0,69.0,-168.0,-192.0,181.0,0
1.0,-262.0,70.0,-180.0,-188.0,159.0,0
-1.0,-267.0,72.0,-187.0,-181.0,134.0,0
3.0,-277.0,71.0,-194.0,-174.0,110.0,0
7.0,-285.0,76.0,-202.0,-164.0,79.0,0
13.0,-294.0,78.0,-212.0,-150.0,46.0,0
15.0,-303.0,81.0,-230.0,-133.0,9.0,0
25.0,-311.0,83.0,-251.0,-110.0,-26.0,0
33.0,-320.0,78.0,-275.0,-86.0,-63.0,0
40.0,-328.0,80.0,-302.0,-60.0,-96.0,0
47.0,-334.0,75.0,-328.0,-31.0,-129.0,0
55.0,-344.0,72.0,-354.0,-2.0,-160.0,0
61.0,-350.0,71.0,-381.0,20.0,-191.0,0
63.0,-361.0,69.0,-411.0,31.0,-222.0,0
66.0,-369.0,62.0,-445.0,34.0,-249.0,0
66.0,-376.0,54.0,-472.0,31.0,-271.0,0
66.0,-377.0,47.0,-500.0,25.0,-291.0,0
60.0,-378.0,42.0,-525.0,12.0,-304.0,0
52.0,-381.0,37.0,-540.0,-11.0,-308.0,0
44.0,-378.0,35.0,-539.0,-44.0,-301.0,0
40.0,-377.0,32.0,-522.0,-87.0,-288.0,0
35.0,-374.0,27.0,-491.0,-134.0,-271.0,0
33.0,-366.0,18.0,-449.0,-171.0,-249.0,0
26.0,-359.0,18.0,-397.0,-190.0,-222.0,0
29.0,-345.0,8.0,-342.0,-188.0,-196.0,0
25.0,-331.0,-1.0,-284.0,-162.0,-164.0,0
20.0,-310.0,-5.0,-231.0,-124.0,-135.0,0
21.0,-299.0,-12.0,-184.0,-85.0,-105.0,0
20.0,-280.0,-22.0,-148.0,-46.0,-75.0,0
21.0,-259.0,-36.0,-132.0,-15.0,-49.0,0
17.0,-250.0,-32.0,-129.0,4.0,-24.0,0
23.0,-241.0,-38.0,-150.0,11.0,5.0,0
22.0,-227.0,-43.0,-187.0,9.0,38.0,0
24.0,-223.0,-40.0,-239.0,-4.0,73.0,0
28.0,-222.0,-44.0,-303.0,-25.0,107.0,0
26.0,-220.0,-41.0,-370.0,-49.0,153.0,0
30.0,-228.0,-43.0,-432.0,-78.0,204.0,0
28.0,-237.0,-36.0,-481.0,-103.0,260.0,0
29.0,-245.0,-24.0,-505.0,-130.0,315.0,0
31.0,-256.0,-21.0,-498.0,-155.0,368.0,0
29.0,-263.0,-13.0,-460.0,-179.0,410.0,0
26.0,-269.0,-9.0,-395.0,-191.0,447.0,0
26.0,-275.0,-3.0,-311.0,-193.0,479.0,0
24.0,-278.0,-1.0,-217.0,-184.0,505.0,0
24.0,-279.0,1.0,-125.0,-168.0,528.0,0
14.0,-277.0,0.0,-41.0,-153.0,548.0,0
10.0,-277.0,5.0,26.0,-141.0,563.0,0
3.0,-276.0,6.0,76.0,-136.0,576.0,0
-1.0,-274.0,8.0,115.0,-138.0,588.0,0
-4.0,-272.0,4.0,135.0,-145.0,592.0,0
-8.0,-269.0,5.0,141.0,-154.0,590.0,0
-7.0,-269.0,4.0,134.0,-163.0,586.0,0
-8.0,-271.0,-2.0,116.0,-168.0,574.0,0
-8.0,-269.0,-1.0,93.0,-166.0,556.0,0
-8.0,-263.0,0.0,68.0,-156.0,536.0,0
-7.0,-262.0,-3.0,40.0,-136.0,511.0,0
-5.0,-262.0,-2.0,14.0,-109.0,485.0,0
-5.0,-258.0,-7.0,-3.0,-73.0,458.0,0
-3.0,-255.0,-6.0,-13.0,-36.0,430.0,0
-4.0,-247.0,-5.0,-17.0,2.0,408.0,0
1.0,-244.0,-2.0,-11.0,36.0,387.0,0
4.0,-236.0,-4.0,0.0,66.0,372.0,0
2.0,-229.0,3.0,18.0,83.0,362.0,0
10.0,-223.0,-2.0,42.0,89.0,351.0,0
13.0,-219.0,3.0,72.0,82.0,346.0,0
13.0,-208.0,7.0,106.0,66.0,343.0,0
14.0,-202.0,4.0,144.0,47.0,344.0,0
15.0,-199.0,5.0,189.0,26.0,348.0,0
18.0,-190.0,5.0,231.0,13.0,355.0,0
17.0,-188.0,8.0,270.0,6.0,363.0,0
20.0,-186.0,5.0,305.0,5.0,368.0,0
17.0,-181.0,4.0,333.0,9.0,373.0,0
14.0,-177.0,5.0,353.0,18.0,378.0,0
15.0,-176.0,6.0,364.0,28.0,381.0,0
10.0,-170.0,8.0,368.0,37.0,382.0,0
9.0,-169.0,3.0,363.0,41.0,383.0,0
7.0,-167.0,4.0,356.0,44.0,384.0,0
4.0,-163.0,5.0,346.0,41.0,385.0,0
2.0,-166.0,0.0,329.0,35.0,391.0,0
2.0,-165.0,1.0,308.0,25.0,399.0,0
-2.0,-169.0,0.0,281.0,13.0,412.0,0
-4.0,-170.0,2.0,253.0,6.0,424.0,0
-2.0,-175.0,2.0,225.0,8.0,437.0,0
-5.0,-189.0,10.0,197.0,20.0,446.0,0
-6.0,-180.0,6.0,170.0,40.0,451.0,0
-7.0,-186.0,7.0,142.0,67.0,454.0,0
-13.0,-191.0,5.0,119.0,96.0,459.0,0
-15.0,-198.0,6.0,102.0,128.0,461.0,0
-18.0,-202.0,8.0,90.0,155.0,465.0,0
-24.0,-208.0,11.0,85.0,176.0,464.0,0
-32.0,-215.0,9.0,89.0,187.0,462.0,0
-34.0,-218.0,13.0,99.0,196.0,459.0,0
-40.0,-223.0,17.0,115.0,198.0,455.0,0
-39.0,-226.0,15.0,134.0,192.0,447.0,0
-40.0,-232.0,15.0,156.0,181.0,439.0,0
-41.0,-232.0,16.0,172.0,166.0,428.0,0
-46.0,-238.0,16.0,193.0,151.0,414.0,0
-45.0,-239.0,13.0,210.0,137.0,398.0,0
-46.0,-240.0,18.0,219.0,128.0,382.0,0
-48.0,-242.0,19.0,227.0,115.0,364.0,0
-47.0,-241.0,18.0,229.0,98.0,347.0,0
-44.0,-243.0,20.0,225.0,83.0,335.0,0
-41.0,-244.0,24.0,222.0,71.0,315.0,0
-34.0,-245.0,25.0,219.0,66.0,295.0,0
-31.0,-242.0,23.0,214.0,69.0,273.0,0
-27.0,-242.0,27.0,208.0,80.0,250.0,0
-17.0,-243.0,28.0,205.0,95.0,227.0,0
-19.0,-243.0,30.0,208.0,108.0,202.0,0
-15.0,-243.0,32.0,216.0,119.0,186.0,0
-15.0,-239.0,27.0,228.0,124.0,169.0,0
-12.0,-239.0,30.0,243.0,120.0,160.0,0
-8.0,-237.0,31.0,259.0,110.0,157.0,0
-9.0,-233.0,30.0,274.0,100.0,159.0,0
-7.0,-230.0,31.0,289.0,94.0,167.0,0
-11.0,-222.0,35.0,295.0,95.0,173.0,0
-8.0,-220.0,31.0,291.0,106.0,180.0,0
-12.0,-217.0,33.0,279.0,126.0,188.0,0
-11.0,-214.0,33.0,259.0,152.0,200.0,0
-11.0,-212.0,35.0,235.0,177.0,212.0,0
-14.0,-211.0,42.0,213.0,200.0,224.0,0
-14.0,-215.0,39.0,186.0,218.0,237.0,0
-16.0,-220.0,38.0,159.0,235.0,249.0,0
-18.0,-220.0,41.0,134.0,248.0,259.0,0
-20.0,-225.0,40.0,108.0,253.0,265.0,0
-26.0,-230.0,46.0,84.0,254.0,270.0,0
-30.0,-233.0,47.0,67.0,248.0,275.0,0
-31.0,-236.0,48.0,59.0,234.0,279.0,0
-36.0,-237.0,49.0,61.0,216.0,278.0,0
-39.0,-236.0,53.0,75.0,195.0,277.0,0
-42.0,-236.0,54.0,98.0,175.0,275.0,0
-45.0,-237.0,55.0,129.0,153.0,271.0,0
-49.0,-238.0,51.0,163.0,134.0,263.0,0
-49.0,-239.0,45.0,196.0,120.0,256.0,0
-52.0,-235.0,48.0,225.0,111.0,246.0,0
-50.0,-233.0,41.0,247.0,108.0,230.0,0
-49.0,-233.0,43.0,257.0,116.0,213.0,0
-49.0,-229.0,40.0,254.0,130.0,192.0,0
-47.0,-227.0,37.0,236.0,152.0,166.0,0
-41.0,-223.0,41.0,207.0,181.0,144.0,0
-40.0,-220.0,40.0,171.0,209.0,120.0,0
-33.0,-218.0,41.0,128.0,232.0,98.0,0
-33.0,-217.0,40.0,78.0,248.0,82.0,0
-31.0,-216.0,41.0,26.0,258.0,72.0,0
-31.0,-215.0,48.0,-24.0,259.0,66.0,0
-29.0,-218.0,45.0,-72.0,249.0,66.0,0
-27.0,-222.0,51.0,-110.0,231.0,72.0,0
-27.0,-224.0,52.0,-136.0,207.0,76.0,0
-29.0,-232.0,54.0,-151.0,183.0,83.0,0
-29.0,-234.0,51.0,-149.0,165.0,90.0,0
-28.0,-233.0,52.0,-139.0,153.0,99.0,0
-30.0,-235.0,50.0,-119.0,148.0,104.0,0
-30.0,-238.0,47.0,-94.0,152.0,106.0,0
-24.0,-236.0,43.0,-65.0,162.0,107.0,0
-26.0,-236.0,45.0,-31.0,175.0,104.0,0
-31.0,-234.0,43.0,1.0,184.0,99.0,0
-30.0,-229.0,43.0,31.0,191.0,97.0,0
-31.0,-230.0,37.0,61.0,198.0,97.0,0
-33.0,-225.0,37.0,83.0,203.0,98.0,0
-27.0,-222.0,37.0,107.0,209.0,98.0,0
-29.0,-225.0,39.0,126.0,220.0,94.0,0
-27.0,-223.0,39.0,140.0,232.0,90.0,0
-31.0,-221.0,37.0,150.0,249.0,81.0,0
-33.0,-224.0,44.0,158.0,265.0,69.0,0
-34.0,-227.0,46.0,170.0,275.0,58.0,0
-39.0,-226.0,45.0,185.0,276.0,41.0,0
-43.0,-222.0,48.0,203.0,273.0,24.0,0
-46.0,-219.0,49.0,222.0,269.0,6.0,0
-46.0,-217.0,52.0,236.0,267.0,-13.0,0
-46.0,-214.0,56.0,244.0,268.0,-32.0,0
-51.0,-216.0,55.0,240.0,271.0,-52.0,0
-48.0,-213.0,64.0,229.0,273.0,-76.0,0
-52.0,-210.0,61.0,215.0,273.0,-98.0,0
-47.0,-213.0,68.0,202.0,270.0,-122.0,0
-49.0,-208.0,71.0,192.0,263.0,-150.0,0
-46.0,-204.0,65.0,184.0,255.0,-175.0,0
-44.0,-202.0,61.0,166.0,245.0,-197.0,0
-40.0,-195.0,58.0,136.0,233.0,-214.0,0
-44.0,-192.0,53.0,90.0,225.0,-218.0,0
-38.0,-187.0,52.0,31.0,221.0,-216.0,0
-34.0,-190.0,50.0,-42.0,220.0,-208.0,0
-32.0,-191.0,50.0,-122.0,215.0,-198.0,0
-31.0,-193.0,49.0,-197.0,212.0,-185.0,0
-34.0,-196.0,52.0,-272.0,207.0,-168.0,0
-33.0,-205.0,54.0,-337.0,199.0,-146.0,0
-31.0,-211.0,54.0,-394.0,188.0,-123.0,0
-29.0,-222.0,54.0,-439.0,172.0,-102.0,0
-31.0,-227.0,55.0,-473.0,153.0,-84.0,0
-32.0,-234.0,60.0,-500.0,137.0,-68.0,0
-33.0,-237.0,61.0,-515.0,130.0,-55.0,0
-30.0,-244.0,60.0,-518.0,134.0,-45.0,0
-31.0,-244.0,60.0,-507.0,143.0,-38.0,0
-30.0,-247.0,60.0,-481.0,151.0,-32.0,0
-37.0,-256.0,72.0,-444.0,157.0,-25.0,0
-34.0,-245.0,52.0,-399.0,158.0,-22.0,0
-39.0,-242.0,56.0,-353.0,159.0,-24.0,0
-40.0,-240.0,49.0,-313.0,168.0,-27.0,0
-42.0,-237.0,49.0,-284.0,182.0,-31.0,0
-47.0,-239.0,46.0,-268.0,196.0,-42.0,0
-52.0,-235.0,51.0,-262.0,209.0,-53.0,0
-52.0,-241.0,55.0,-265.0,220.0,-68.0,0
-55.0,-241.0,60.0,-267.0,226.0,-82.0,0
-59.0,-245.0,61.0,-268.0,226.0,-96.0,0
-59.0,-247.0,62.0,-266.0,219.0,-110.0,0
-59.0,-248.0,66.0,-267.0,208.0,-125.0,0
-62.0,-250.0,60.0,-270.0,194.0,-137.0,0
-60.0,-248.0,60.0,-273.0,178.0,-146.0,0
-62.0,-246.0,55.0,-278.0,160.0,-147.0,0
-62.0,-243.0,43.0,-285.0,146.0,-146.0,0
-59.0,-243.0,42.0,-293.0,139.0,-144.0,0
-56.0,-236.0,36.0,-304.0,140.0,-143.0,0
-47.0,-237.0,40.0,-318.0,147.0,-145.0,0
-48.0,-230.0,30.0,-333.0,159.0,-149.0,0
-45.0,-233.0,36.0,-347.0,170.0,-154.0,0
-42.0,-234.0,27.0,-360.0,179.0,-160.0,0
-41.0,-234.0,32.0,-371.0,185.0,-168.0,0
-40.0,-235.0,36.0,-384.0,186.0,-174.0,0
-37.0,-244.0,43.0,-400.0,186.0,-183.0,0
-34.0,-246.0,44.0,-415.0,189.0,-195.0,0
-33.0,-250.0,51.0,-426.0,195.0,-212.0,0
-29.0,-252.0,49.0,-434.0,205.0,-229.0,0
-24.0,-257.0,51.0,-434.0,224.0,-247.0,0
-22.0,-260.0,58.0,-428.0,249.0,-262.0,0
-15.0,-263.0,59.0,-419.0,279.0,-274.0,0
-14.0,-264.0,59.0,-405.0,310.0,-281.0,0
-13.0,-260.0,59.0,-383.0,333.0,-286.0,0
-11.0,-260.0,59.0,-356.0,355.0,-287.0,0
-8.0,-262.0,57.0,-329.0,368.0,-284.0,0
-4.0,-264.0,55.0,-309.0,380.0,-280.0,0
0.0,-266.0,52.0,-290.0,395.0,-271.0,0
3.0,-269.0,53.0,-279.0,415.0,-259.0,0
4.0,-273.0,50.0,-274.0,446.0,-247.0,0
-1.0,-276.0,53.0,-275.0,478.0,-231.0,0
-2.0,-283.0,55.0,-279.0,509.0,-217.0,0
-3.0,-290.0,57.0,-285.0,531.0,-204.0,0
-7.0,-297.0,67.0,-291.0,548.0,-187.0,0
-15.0,-302.0,70.0,-294.0,555.0,-169.0,0
-20.0,-309.0,75.0,-292.0,554.0,-152.0,0
-29.0,-318.0,81.0,-284.0,547.0,-131.0,0
-33.0,-327.0,89.0,-267.0,533.0,-107.0,0
-44.0,-341.0,91.0,-241.0,519.0,-81.0,0
-51.0,-350.0,94.0,-206.0,504.0,-58.0,0
-53.0,-365.0,94.0,-169.0,487.0,-37.0,0
-66.0,-372.0,95.0,-133.0,472.0,-13.0,0
-77.0,-379.0,93.0,-103.0,453.0,3.0,0
-83.0,-383.0,83.0,-79.0,431.0,11.0,0
-95.0,-389.0,77.0,-70.0,409.0,13.0,0
-104.0,-391.0,69.0,-80.0,388.0,14.0,0
-110.0,-393.0,52.0,-117.0,370.0,13.0,0
-113.0,-393.0,37.0,-181.0,351.0,13.0,0
-111.0,-395.0,18.0,-270.0,329.0,9.0,0
-102.0,-393.0,10.0,-377.0,307.0,-7.0,0
-89.0,-391.0,2.0,-492.0,288.0,-37.0,0
-80.0,-381.0,-7.0,-599.0,276.0,-81.0,0
-73.0,-374.0,-7.0,-698.0,271.0,-135.0,0
-68.0,-360.0,-10.0,-784.0,268.0,-188.0,0
-60.0,-347.0,-13.0,-850.0,256.0,-234.0,0
-54.0,-336.0,-16.0,-892.0,235.0,-268.0,0
-51.0,-320.0,-19.0,-913.0,207.0,-297.0,0
-42.0,-307.0,-21.0,-905.0,174.0,-324.0,0
-33.0,-294.0,-20.0,-872.0,142.0,-347.0,0
-24.0,-278.0,-20.0,-824.0,119.0,-375.0,0
-16.0,-260.0,-23.0,-751.0,114.0,-404.0,0
-14.0,-249.0,-31.0,-663.0,126.0,-436.0,0
-12.0,-236.0,-38.0,-561.0,154.0,-466.0,0
-7.0,-223.0,-40.0,-453.0,190.0,-491.0,0
-8.0,-214.0,-46.0,-346.0,228.0,-510.0,0
-8.0,-203.0,-44.0,-241.0,266.0,-522.0,0
-9.0,-201.0,-47.0,-144.0,296.0,-528.0,0
-11.0,-197.0,-49.0,-62.0,322.0,-530.0,0
-11.0,-201.0,-49.0,-3.0,339.0,-532.0,0
-14.0,-203.0,-51.0,30.0,347.0,-531.0,0
-16.0,-212.0,-49.0,38.0,349.0,-528.0,0
-15.0,-218.0,-45.0,23.0,342.0,-523.0,0
-15.0,-225.0,-42.0,-1.0,330.0,-512.0,0
-15.0,-233.0,-41.0,-23.0,308.0,-496.0,0
-16.0,-241.0,-34.0,-36.0,277.0,-475.0,0
-17.0,-248.0,-31.0,-37.0,236.0,-454.0,0
-20.0,-252.0,-31.0,-29.0,187.0,-434.0,0
-21.0,-251.0,-29.0,-14.0,136.0,-415.0,0
-24.0,-255.0,-33.0,4.0,91.0,-398.0,0
-29.0,-258.0,-36.0,18.0,53.0,-391.0,0
-29.0,-260.0,-36.0,27.0,21.0,-389.0,0
-31.0,-259.0,-36.0,30.0,2.0,-391.0,0
-34.0,-253.0,-40.0,27.0,-6.0,-398.0,0
-38.0,-251.0,-45.0,13.0,-4.0,-404.0,0
-41.0,-248.0,-53.0,-2.0,8.0,-412.0,0
-46.0,-246.0,-49.0,-19.0,25.0,-420.0,0
-47.0,-246.0,-47.0,-35.0,39.0,-434.0,0
-52.0,-244.0,-44.0,-52.0,46.0,-445.0,0
-52.0,-244.0,-41.0,-62.0,41.0,-458.0,0
-53.0,-241.0,-36.0,-63.0,22.0,-469.0,0
-53.0,-235.0,-29.0,-55.0,1.0,-480.0,0
-51.0,-228.0,-28.0,-37.0,-27.0,-492.0,0
-49.0,-222.0,-13.0,-8.0,-52.0,-504.0,0
-43.0,-216.0,-7.0,35.0,-74.0,-512.0,0
-41.0,-207.0,-4.0,91.0,-86.0,-521.0,0
-35.0,-201.0,0.0,159.0,-88.0,-528.0,0
-27.0,-193.0,3.0,234.0,-80.0,-531.0,0
-23.0,-187.0,5.0,314.0,-72.0,-530.0,0
-17.0,-184.0,9.0,390.0,-67.0,-526.0,0
-15.0,-176.0,1.0,457.0,-67.0,-522.0,0
-8.0,-171.0,2.0,505.0,-74.0,-520.0,0
3.0,-168.0,0.0,538.0,-85.0,-520.0,0
6.0,-163.0,-5.0,551.0,-101.0,-522.0,0
18.0,-163.0,-5.0,541.0,-121.0,-524.0,0
24.0,-163.0,-6.0,511.0,-141.0,-525.0,0
31.0,-160.0,-8.0,464.0,-159.0,-522.0,0
35.0,-163.0,-9.0,401.0,-175.0,-516.0,0
44.0,-169.0,-9.0,325.0,-187.0,-507.0,0
45.0,-172.0,-13.0,242.0,-195.0,-496.0,0
47.0,-177.0,-12.0,163.0,-204.0,-483.0,0
48.0,-183.0,-12.0,93.0,-213.0,-467.0,0
46.0,-186.0,-14.0,25.0,-226.0,-450.0,0
44.0,-189.0,-12.0,-30.0,-240.0,-431.0,0
47.0,-197.0,-13.0,-74.0,-251.0,-406.0,0
47.0,-203.0,-13.0,-107.0,-256.0,-383.0,0
44.0,-205.0,-12.0,-129.0,-257.0,-360.0,0
40.0,-209.0,-8.0,-137.0,-253.0,-334.0,0
38.0,-214.0,-3.0,-130.0,-243.0,-308.0,0
32.0,-218.0,-1.0,-114.0,-231.0,-284.0,0
30.0,-222.0,7.0,-89.0,-218.0,-265.0,0
24.0,-225.0,4.0,-59.0,-211.0,-246.0,0
20.0,-229.0,10.0,-31.0,-206.0,-229.0,0
15.0,-234.0,8.0,-11.0,-201.0,-214.0,0
9.0,-236.0,16.0,5.0,-196.0,-201.0,0
9.0,-243.0,14.0,20.0,-189.0,-195.0,0
4.0,-244.0,12.0,37.0,-180.0,-197.0,0
6.0,-248.0,20.0,58.0,-168.0,-205.0,0
-1.0,-251.0,20.0,85.0,-154.0,-218.0,0
-2.0,-253.0,16.0,112.0,-141.0,-237.0,0
-5.0,-251.0,15.0,139.0,-133.0,-256.0,0
-5.0,-253.0,14.0,164.0,-131.0,-282.0,0
-2.0,-250.0,12.0,184.0,-135.0,-307.0,0
-5.0,-249.0,15.0,199.0,-141.0,-335.0,0
-8.0,-246.0,12.0,207.0,-152.0,-358.0,0
-8.0,-242.0,10.0,213.0,-169.0,-381.0,0
-6.0,-243.0,10.0,213.0,-190.0,-398.0,0
-5.0,-242.0,8.0,205.0,-217.0,-409.0,0
-5.0,-237.0,9.0,187.0,-246.0,-416.0,0
-1.0,-237.0,14.0,168.0,-274.0,-420.0,0
4.0,-233.0,10.0,148.0,-299.0,-421.0,0
12.0,-233.0,14.0,134.0,-320.0,-418.0,0
14.0,-232.0,12.0,131.0,-337.0,-409.0,0
20.0,-232.0,14.0,131.0,-353.0,-396.0,0
26.0,-230.0,15.0,142.0,-365.0,-380.0,0
32.0,-228.0,18.0,159.0,-375.0,-365.0,0
35.0,-226.0,18.0,181.0,-380.0,-342.0,0
38.0,-220.0,22.0,204.0,-381.0,-321.0,0
43.0,-221.0,23.0,229.0,-379.0,-300.0,0
44.0,-220.0,24.0,251.0,-369.0,-279.0,0
47.0,-218.0,27.0,268.0,-357.0,-260.0,0
45.0,-218.0,25.0,273.0,-346.0,-237.0,0
47.0,-217.0,26.0,276.0,-342.0,-213.0,0
47.0,-215.0,26.0,267.0,-342.0,-188.0,0
48.0,-205.0,12.0,255.0,-343.0,-164.0,0
48.0,-217.0,23.0,245.0,-343.0,-141.0,0
49.0,-218.0,25.0,227.0,-338.0,-119.0,0
48.0,-218.0,23.0,208.0,-328.0,-98.0,0
49.0,-219.0,23.0,187.0,-314.0,-83.0,0
52.0,-220.0,28.0,170.0,-292.0,-73.0,0
55.0,-224.0,29.0,161.0,-263.0,-63.0,0
54.0,-225.0,33.0,159.0,-229.0,-60.0,0
53.0,-221.0,33.0,161.0,-190.0,-57.0,0
55.0,-220.0,33.0,165.0,-153.0,-56.0,0
54.0,-224.0,33.0,175.0,-117.0,-55.0,0
58.0,-224.0,34.0,186.0,-87.0,-57.0,0
57.0,-230.0,35.0,190.0,-66.0,-58.0,0
52.0,-231.0,39.0,192.0,-55.0,-63.0,0
56.0,-233.0,33.0,184.0,-49.0,-65.0,0
53.0,-236.0,32.0,172.0,-48.0,-69.0,0
52.0,-236.0,32.0,153.0,-48.0,-71.0,0
51.0,-241.0,34.0,135.0,-46.0,-72.0,0
47.0,-238.0,33.0,113.0,-46.0,-73.0,0
47.0,-242.0,38.0,97.0,-49.0,-70.0,0
40.0,-239.0,36.0,85.0,-51.0,-62.0,0
39.0,-243.0,44.0,81.0,-56.0,-50.0,0
39.0,-243.0,47.0,87.0,-62.0,-35.0,0
33.0,-241.0,48.0,101.0,-67.0,-22.0,0
32.0,-241.0,55.0,122.0,-71.0,-8.0,0
38.0,-239.0,54.0,144.0,-69.0,1.0,0
39.0,-239.0,59.0,172.0,-58.0,8.0,0
41.0,-238.0,59.0,208.0,-36.0,13.0,0
46.0,-237.0,55.0,247.0,-2.0,16.0,0
47.0,-235.0,51.0,290.0,41.0,20.0,0
47.0,-230.0,55.0,330.0,85.0,20.0,0
49.0,-226.0,56.0,363.0,126.0,23.0,0
49.0,-222.0,48.0,389.0,162.0,24.0,0
49.0,-217.0,50.0,406.0,188.0,26.0,0
49.0,-215.0,48.0,414.0,205.0,27.0,0
49.0,-207.0,50.0,410.0,214.0,27.0,0
49.0,-204.0,45.0,394.0,214.0,28.0,0
44.0,-199.0,43.0,366.0,207.0,27.0,0
48.0,-197.0,45.0,323.0,189.0,29.0,0
46.0,-195.0,39.0,268.0,162.0,31.0,0
43.0,-198.0,37.0,200.0,128.0,36.0,0
41.0,-196.0,38.0,122.0,91.0,42.0,0
36.0,-195.0,36.0,41.0,60.0,52.0,0
35.0,-195.0,38.0,-41.0,32.0,64.0,0
32.0,-202.0,38.0,-122.0,15.0,76.0,0
33.0,-204.0,38.0,-193.0,1.0,92.0,0
29.0,-209.0,39.0,-256.0,-9.0,109.0,0
30.0,-215.0,43.0,-303.0,-14.0,125.0,0
26.0,-219.0,40.0,-340.0,-16.0,141.0,0
24.0,-225.0,36.0,-363.0,-14.0,155.0,0
24.0,-229.0,34.0,-373.0,-7.0,168.0,0
23.0,-226.0,32.0,-373.0,0.0,175.0,0
24.0,-237.0,29.0,-367.0,9.0,182.0,0
23.0,-235.0,30.0,-364.0,18.0,187.0,0
27.0,-243.0,26.0,-364.0,22.0,187.0,0
29.0,-244.0,27.0,-369.0,22.0,185.0,0
29.0,-246.0,26.0,-381.0,20.0,181.0,0
32.0,-252.0,30.0,-398.0,18.0,176.0,0
36.0,-255.0,26.0,-417.0,15.0,165.0,0
38.0,-258.0,29.0,-429.0,10.0,152.0,0
39.0,-263.0,36.0,-434.0,3.0,137.0,0
43.0,-267.0,39.0,-429.0,-10.0,119.0,0
36.0,-269.0,42.0,-410.0,-28.0,103.0,0
39.0,-274.0,49.0,-385.0,-49.0,87.0,0
40.0,-276.0,53.0,-358.0,-74.0,74.0,0
39.0,-281.0,59.0,-316.0,-98.0,59.0,0
33.0,-279.0,66.0,-271.0,-118.0,47.0,0
38.0,-290.0,65.0,-218.0,-130.0,32.0,0
37.0,-290.0,68.0,-161.0,-138.0,19.0,0
35.0,-288.0,65.0,-103.0,-139.0,6.0,0
33.0,-292.0,68.0,-48.0,-133.0,-9.0,0
36.0,-293.0,59.0,-2.0,-120.0,-24.0,0
34.0,-291.0,61.0,37.0,-102.0,-39.0,0
32.0,-289.0,62.0,68.0,-87.0,-49.0,0
27.0,-286.0,57.0,86.0,-75.0,-57.0,0
26.0,-283.0,54.0,90.0,-75.0,-57.0,0
26.0,-280.0,55.0,85.0,-84.0,-51.0,0
25.0,-278.0,55.0,68.0,-102.0,-40.0,0
23.0,-278.0,54.0,46.0,-124.0,-24.0,0
29.0,-275.0,55.0,19.0,-149.0,-5.0,0
29.0,-276.0,54.0,-16.0,-173.0,14.0,0
27.0,-274.0,61.0,-52.0,-196.0,35.0,0
29.0,-276.0,64.0,-90.0,-214.0,53.0,0
29.0,-280.0,63.0,-131.0,-227.0,69.0,0
27.0,-282.0,67.0,-171.0,-235.0,81.0,0
32.0,-288.0,71.0,-215.0,-235.0,91.0,0
28.0,-296.0,71.0,-255.0,-230.0,95.0,0
30.0,-306.0,72.0,-296.0,-224.0,94.0,0
31.0,-310.0,68.0,-332.0,-224.0,88.0,0
33.0,-325.0,70.0,-368.0,-229.0,82.0,0
39.0,-336.0,69.0,-400.0,-239.0,73.0,0
38.0,-349.0,71.0,-429.0,-249.0,66.0,0
40.0,-358.0,63.0,-457.0,-263.0,55.0,0
39.0,-369.0,58.0,-479.0,-273.0,46.0,0
42.0,-376.0,50.0,-501.0,-282.0,38.0,0
42.0,-380.0,37.0,-514.0,-285.0,32.0,0
41.0,-381.0,32.0,-522.0,-278.0,34.0,0
44.0,-379.0,17.0,-514.0,-255.0,44.0,0
44.0,-378.0,6.0,-486.0,-226.0,62.0,0
45.0,-376.0,4.0,-442.0,-202.0,85.0,0
38.0,-371.0,2.0,-385.0,-189.0,113.0,0
38.0,-360.0,-1.0,-325.0,-194.0,143.0,0
42.0,-352.0,-6.0,-263.0,-208.0,178.0,0
39.0,-342.0,-13.0,-204.0,-223.0,217.0,0
39.0,-329.0,-18.0,-149.0,-232.0,250.0,0
40.0,-319.0,-19.0,-97.0,-234.0,284.0,0
36.0,-311.0,-19.0,-45.0,-228.0,315.0,0
33.0,-294.0,-26.0,3.0,-223.0,339.0,0
37.0,-280.0,-36.0,45.0,-217.0,363.0,0
28.0,-270.0,-29.0,77.0,-219.0,382.0,0
26.0,-257.0,-29.0,97.0,-230.0,401.0,0
29.0,-251.0,-33.0,98.0,-254.0,416.0,0
22.0,-243.0,-34.0,87.0,-288.0,427.0,0
18.0,-235.0,-36.0,63.0,-337.0,440.0,0
15.0,-228.0,-37.0,29.0,-395.0,450.0,0
10.0,-225.0,-33.0,-11.0,-456.0,464.0,0
4.0,-224.0,-30.0,-52.0,-517.0,483.0,0
-3.0,-226.0,-29.0,-93.0,-572.0,512.0,0
-12.0,-229.0,-29.0,-124.0,-624.0,547.0,0
-16.0,-237.0,-26.0,-147.0,-668.0,593.0,0
-27.0,-242.0,-23.0,-157.0,-702.0,641.0,0
-28.0,-251.0,-19.0,-154.0,-726.0,686.0,0
-37.0,-257.0,-11.0,-132.0,-735.0,724.0,0
-37.0,-261.0,-7.0,-95.0,-729.0,754.0,0
-40.0,-267.0,1.0,-41.0,-709.0,776.0,0
-39.0,-273.0,0.0,21.0,-675.0,791.0,0
-42.0,-275.0,4.0,88.0,-635.0,802.0,0
-43.0,-277.0,3.0,155.0,-591.0,802.0,0
-39.0,-278.0,0.0,205.0,-547.0,795.0,0
-35.0,-279.0,-1.0,260.0,-504.0,782.0,0
-27.0,-276.0,-1.0,307.0,-463.0,763.0,0
-18.0,-276.0,-2.0,344.0,-434.0,730.0,0
-16.0,-268.0,-1.0,371.0,-401.0,691.0,0
-5.0,-265.0,-6.0,388.0,-368.0,643.0,0
2.0,-261.0,-4.0,395.0,-338.0,599.0,0
2.0,-250.0,0.0,394.0,-309.0,541.0,0
14.0,-246.0,1.0,387.0,-279.0,480.0,0
20.0,-245.0,-1.0,377.0,-247.0,418.0,0
26.0,-239.0,0.0,362.0,-220.0,361.0,0
35.0,-231.0,-1.0,336.0,-198.0,310.0,0
43.0,-222.0,-4.0,296.0,-181.0,261.0,0
52.0,-220.0,-8.0,251.0,-167.0,219.0,0
54.0,-208.0,-9.0,204.0,-162.0,184.0,0
56.0,-203.0,-16.0,153.0,-162.0,154.0,0
59.0,-197.0,-17.0,100.0,-163.0,130.0,0
64.0,-194.0,-19.0,48.0,-167.0,113.0,0
61.0,-185.0,-21.0,0.0,-171.0,105.0,0
60.0,-183.0,-18.0,-43.0,-175.0,106.0,0
57.0,-179.0,-12.0,-82.0,-177.0,113.0,0
52.0,-174.0,-13.0,-114.0,-171.0,129.0,0
49.0,-174.0,-12.0,-142.0,-161.0,148.0,0
43.0,-171.0,-7.0,-162.0,-140.0,173.0,0
35.0,-171.0,-3.0,-173.0,-115.0,205.0,0
30.0,-173.0,-2.0,-169.0,-87.0,234.0,0
23.0,-168.0,4.0,-154.0,-55.0,262.0,0
19.0,-175.0,2.0,-124.0,-22.0,293.0,0
11.0,-175.0,3.0,-89.0,14.0,325.0,0
-1.0,-178.0,6.0,-56.0,48.0,355.0,0
-8.0,-183.0,6.0,-27.0,73.0,381.0,0
-15.0,-182.0,5.0,-5.0,93.0,408.0,0
-20.0,-187.0,1.0,15.0,106.0,432.0,0
-31.0,-193.0,7.0,33.0,115.0,454.0,0
-24.0,-182.0,-3.0,51.0,124.0,470.0,0
-36.0,-197.0,8.0,74.0,134.0,483.0,0
-40.0,-201.0,12.0,100.0,147.0,489.0,0
-43.0,-200.0,16.0,128.0,165.0,487.0,0
-43.0,-203.0,16.0,157.0,186.0,481.0,0
-46.0,-205.0,17.0,185.0,210.0,473.0,0
-47.0,-207.0,14.0,208.0,236.0,464.0,0
-49.0,-212.0,16.0,227.0,259.0,453.0,0
-53.0,-214.0,15.0,234.0,275.0,442.0,0
-58.0,-217.0,15.0,232.0,282.0,431.0,0
-57.0,-220.0,12.0,218.0,279.0,421.0,0
-58.0,-220.0,8.0,197.0,268.0,408.0,0
-58.0,-222.0,14.0,172.0,252.0,394.0,0
-52.0,-227.0,12.0,150.0,228.0,377.0,0
-46.0,-230.0,10.0,127.0,207.0,359.0,0
-39.0,-236.0,15.0,109.0,189.0,334.0,0
-34.0,-233.0,15.0,92.0,176.0,309.0,0
-28.0,-236.0,13.0,76.0,171.0,280.0,0
-18.0,-232.0,15.0,61.0,172.0,244.0,0
-16.0,-233.0,15.0,44.0,173.0,207.0,0
-13.0,-230.0,14.0,30.0,173.0,169.0,0
-16.0,-226.0,15.0,17.0,170.0,136.0,0
-13.0,-224.0,18.0,5.0,158.0,105.0,0
-12.0,-223.0,12.0,-4.0,143.0,80.0,0
-8.0,-219.0,14.0,-14.0,126.0,61.0,0
-4.0,-215.0,21.0,-24.0,110.0,49.0,0
-3.0,-215.0,20.0,-34.0,101.0,39.0,0
2.0,-217.0,17.0,-44.0,100.0,35.0,0
2.0,-215.0,20.0,-59.0,106.0,34.0,0
1.0,-213.0,24.0,-74.0,121.0,37.0,0
2.0,-216.0,25.0,-94.0,139.0,50.0,0
-2.0,-215.0,27.0,-113.0,158.0,64.0,0
-4.0,-217.0,26.0,-129.0,179.0,82.0,0
-12.0,-225.0,28.0,-143.0,199.0,105.0,0
-16.0,-225.0,25.0,-152.0,221.0,134.0,0
-16.0,-230.0,27.0,-159.0,239.0,165.0,0
-16.0,-236.0,29.0,-161.0,256.0,199.0,0
-21.0,-238.0,33.0,-154.0,269.0,230.0,0
-19.0,-241.0,33.0,-138.0,286.0,260.0,0
-25.0,-246.0,30.0,-112.0,301.0,284.0,0
-28.0,-250.0,31.0,-79.0,318.0,300.0,0
-29.0,-253.0,35.0,-39.0,332.0,315.0,0
-30.0,-252.0,37.0,5.0,343.0,328.0,0
-39.0,-254.0,35.0,54.0,345.0,337.0,0
-41.0,-256.0,34.0,100.0,344.0,343.0,0
-45.0,-257.0,36.0,145.0,336.0,346.0,0
-53.0,-255.0,35.0,189.0,326.0,346.0,0
-58.0,-255.0,34.0,233.0,315.0,345.0,0
-61.0,-254.0,36.0,268.0,302.0,341.0,0
-65.0,-255.0,32.0,302.0,288.0,336.0,0
-68.0,-250.0,37.0,330.0,273.0,332.0,0
-67.0,-248.0,33.0,348.0,257.0,325.0,0
-67.0,-244.0,33.0,356.0,240.0,318.0,0
-67.0,-241.0,29.0,353.0,230.0,307.0,0
-66.0,-231.0,19.0,337.0,219.0,296.0,0
-59.0,-236.0,35.0,312.0,209.0,284.0,0
-60.0,-234.0,34.0,279.0,199.0,271.0,0
-54.0,-232.0,31.0,245.0,186.0,256.0,0
-53.0,-231.0,37.0,211.0,170.0,239.0,0
-50.0,-227.0,41.0,184.0,148.0,220.0,0
-47.0,-227.0,42.0,163.0,124.0,202.0,0
-44.0,-221.0,39.0,148.0,98.0,188.0,0
-44.0,-220.0,39.0,139.0,77.0,178.0,0
-44.0,-217.0,41.0,141.0,61.0,167.0,0
-44.0,-220.0,43.0,147.0,54.0,157.0,0
-39.0,-216.0,42.0,157.0,53.0,146.0,0
-38.0,-216.0,40.0,165.0,59.0,136.0,0
-37.0,-210.0,45.0,176.0,69.0,126.0,0
-39.0,-207.0,47.0,181.0,76.0,117.0,0
-35.0,-209.0,41.0,181.0,83.0,110.0,0
-36.0,-206.0,41.0,175.0,87.0,108.0,0
-34.0,-205.0,44.0,160.0,95.0,108.0,0
-31.0,-206.0,39.0,135.0,102.0,102.0,0
-27.0,-208.0,40.0,103.0,108.0,97.0,0
-24.0,-208.0,40.0,69.0,117.0,92.0,0
-22.0,-211.0,40.0,39.0,125.0,86.0,0
-25.0,-209.0,44.0,14.0,133.0,79.0,0
-23.0,-213.0,46.0,-5.0,138.0,71.0,0
-24.0,-215.0,46.0,-17.0,138.0,63.0,0
-25.0,-217.0,49.0,-22.0,138.0,55.0,0
-28.0,-219.0,48.0,-18.0,137.0,45.0,0
-27.0,-229.0,52.0,-9.0,139.0,35.0,0
-31.0,-229.0,55.0,7.0,140.0,21.0,0
-34.0,-232.0,55.0,31.0,143.0,12.0,0
-36.0,-234.0,55.0,59.0,149.0,0.0,0
-40.0,-235.0,58.0,91.0,158.0,-10.0,0
-41.0,-234.0,57.0,124.0,168.0,-20.0,0
-42.0,-233.0,56.0,154.0,180.0,-32.0,0
-40.0,-230.0,55.0,178.0,187.0,-44.0,0
-47.0,-223.0,53.0,194.0,194.0,-57.0,0
-44.0,-223.0,50.0,199.0,194.0,-70.0,0
-50.0,-217.0,54.0,194.0,192.0,-83.0,0
-49.0,-214.0,51.0,180.0,184.0,-95.0,0
-49.0,-211.0,50.0,158.0,170.0,-106.0,0
-51.0,-206.0,52.0,136.0,151.0,-112.0,0
-56.0,-205.0,54.0,108.0,127.0,-112.0,0
-57.0,-208.0,54.0,85.0,100.0,-111.0,0
-58.0,-207.0,58.0,62.0,78.0,-106.0,0
-58.0,-207.0,61.0,43.0,49.0,-98.0,0
-60.0,-212.0,67.0,23.0,27.0,-92.0,0
-58.0,-212.0,67.0,0.0,5.0,-87.0,0
-60.0,-218.0,69.0,-25.0,-8.0,-80.0,0
-60.0,-221.0,69.0,-53.0,-17.0,-76.0,0
-60.0,-224.0,69.0,-79.0,-18.0,-75.0,0
-56.0,-227.0,66.0,-100.0,-16.0,-77.0,0
-56.0,-231.0,70.0,-116.0,-12.0,-80.0,0
-53.0,-227.0,64.0,-126.0,-8.0,-86.0,0
-51.0,-228.0,59.0,-131.0,-2.0,-92.0,0
-50.0,-223.0,56.0,-135.0,2.0,-97.0,0
-53.0,-226.0,48.0,-143.0,6.0,-102.0,0
-45.0,-217.0,51.0,-157.0,9.0,-108.0,0
-42.0,-213.0,48.0,-178.0,10.0,-114.0,0
-39.0,-211.0,45.0,-204.0,12.0,-117.0,0
-37.0,-209.0,46.0,-238.0,14.0,-120.0,0
-34.0,-210.0,46.0,-275.0,21.0,-120.0,0
-33.0,-212.0,45.0,-318.0,30.0,-119.0,0
-30.0,-216.0,44.0,-358.0,42.0,-115.0,0
-35.0,-220.0,45.0,-397.0,53.0,-111.0,0
-38.0,-231.0,47.0,-431.0,62.0,-104.0,0
-37.0,-240.0,49.0,-456.0,64.0,-95.0,0
-43.0,-243.0,52.0,-476.0,58.0,-83.0,0
-46.0,-249.0,56.0,-492.0,48.0,-69.0,0
-46.0,-251.0,54.0,-506.0,41.0,-52.0,0
-48.0,-260.0,56.0,-517.0,37.0,-37.0,0
-44.0,-262.0,59.0,-521.0,42.0,-23.0,0
-47.0,-268.0,56.0,-517.0,50.0,-10.0,0
-51.0,-271.0,54.0,-507.0,60.0,2.0,0
-46.0,-277.0,55.0,-484.0,71.0,14.0,0
-50.0,-275.0,44.0,-451.0,82.0,27.0,0
-45.0,-279.0,41.0,-410.0,89.0,41.0,0
-44.0,-276.0,35.0,-369.0,88.0,52.0,0
-42.0,-271.0,39.0,-331.0,79.0,63.0,0
-41.0,-269.0,34.0,-294.0,63.0,69.0,0
-36.0,-263.0,32.0,-269.0,43.0,73.0,0
-35.0,-258.0,31.0,-254.0,32.0,73.0,0
-28.0,-259.0,40.0,-246.0,28.0,68.0,0
-26.0,-254.0,45.0,-238.0,34.0,60.0,0
-21.0,-257.0,51.0,-226.0,53.0,52.0,0
-20.0,-263.0,61.0,-210.0,77.0,41.0,0
-16.0,-270.0,71.0,-188.0,103.0,27.0,0
-18.0,-277.0,76.0,-170.0,128.0,15.0,0
-17.0,-288.0,82.0,-157.0,146.0,11.0,0
-22.0,-295.0,90.0,-157.0,155.0,14.0,0
-26.0,-309.0,93.0,-171.0,152.0,23.0,0
-29.0,-317.0,94.0,-199.0,145.0,36.0,0
-31.0,-335.0,90.0,-239.0,139.0,51.0,0
-38.0,-348.0,85.0,-280.0,135.0,56.0,0
-51.0,-362.0,74.0,-318.0,136.0,64.0,0
-66.0,-369.0,70.0,-346.0,132.0,74.0,0
-80.0,-376.0,63.0,-368.0,111.0,84.0,0
-89.0,-381.0,54.0,-388.0,64.0,86.0,0
-99.0,-379.0,46.0,-409.0,5.0,78.0,0
-101.0,-381.0,31.0,-434.0,-48.0,57.0,0
-97.0,-384.0,27.0,-452.0,-83.0,21.0,0
-89.0,-383.0,22.0,-459.0,-90.0,-29.0,0
-85.0,-383.0,21.0,-441.0,-75.0,-89.0,0
-80.0,-383.0,24.0,-398.0,-50.0,-149.0,0
-76.0,-382.0,24.0,-336.0,-24.0,-211.0,0
-69.0,-378.0,27.0,-264.0,1.0,-271.0,0
-63.0,-373.0,26.0,-196.0,28.0,-330.0,0
-57.0,-363.0,25.0,-145.0,57.0,-389.0,0
-55.0,-355.0,26.0,-116.0,85.0,-445.0,0
-52.0,-345.0,24.0,-103.0,111.0,-494.0,0
-41.0,-334.0,20.0,-102.0,133.0,-536.0,0
-54.0,-323.0,15.0,-109.0,144.0,-572.0,0
-55.0,-310.0,17.0,-120.0,144.0,-598.0,0
-54.0,-302.0,13.0,-138.0,132.0,-612.0,0
-52.0,-289.0,8.0,-158.0,108.0,-616.0,0
-52.0,-276.0,4.0,-185.0,75.0,-612.0,0
-50.0,-266.0,-4.0,-220.0,43.0,-599.0,0
-50.0,-256.0,-8.0,-255.0,12.0,-586.0,0
-44.0,-248.0,-14.0,-286.0,-13.0,-565.0,0
-42.0,-241.0,-15.0,-310.0,-28.0,-534.0,0
-38.0,-233.0,-15.0,-323.0,-35.0,-502.0,0
-29.0,-229.0,-18.0,-323.0,-35.0,-468.0,0
-27.0,-224.0,-18.0,-312.0,-25.0,-439.0,0
-20.0,-224.0,-18.0,-293.0,-9.0,-415.0,0
-15.0,-222.0,-23.0,-261.0,13.0,-395.0,0
-13.0,-222.0,-23.0,-216.0,38.0,-383.0,0
-10.0,-221.0,-35.0,-169.0,61.0,-380.0,0
-8.0,-219.0,-33.0,-117.0,80.0,-384.0,0
-7.0,-219.0,-35.0,-67.0,85.0,-393.0,0
-10.0,-225.0,-35.0,-20.0,81.0,-403.0,0
-13.0,-223.0,-31.0,24.0,61.0,-410.0,0
-16.0,-226.0,-33.0,61.0,34.0,-417.0,0
-16.0,-226.0,-32.0,88.0,6.0,-424.0,0
-16.0,-229.0,-36.0,99.0,-15.0,-429.0,0
-19.0,-233.0,-27.0,97.0,-30.0,-433.0,0
-19.0,-236.0,-31.0,84.0,-42.0,-440.0,0
-23.0,-237.0,-22.0,66.0,-50.0,-447.0,0
-22.0,-240.0,-19.0,51.0,-59.0,-456.0,0
-22.0,-242.0,-20.0,32.0,-68.0,-466.0,0
-24.0,-239.0,-17.0,14.0,-73.0,-476.0,0
-23.0,-243.0,-15.0,0.0,-70.0,-484.0,0
-17.0,-248.0,-19.0,-14.0,-63.0,-491.0,0
-22.0,-248.0,-16.0,-25.0,-50.0,-497.0,0
-19.0,-251.0,-16.0,-34.0,-33.0,-502.0,0
-16.0,-249.0,-16.0,-41.0,-14.0,-506.0,0
-16.0,-251.0,-16.0,-46.0,8.0,-507.0,0
-12.0,-252.0,-13.0,-44.0,32.0,-509.0,0
-11.0,-253.0,-9.0,-38.0,56.0,-510.0,0
-10.0,-248.0,-6.0,-21.0,78.0,-509.0,0
-3.0,-249.0,-3.0,12.0,97.0,-510.0,0
2.0,-244.0,3.0,57.0,108.0,-513.0,0
8.0,-242.0,5.0,111.0,111.0,-514.0,0
7.0,-233.0,8.0,171.0,110.0,-516.0,0
9.0,-221.0,13.0,233.0,105.0,-516.0,0
13.0,-214.0,8.0,294.0,103.0,-519.0,0
21.0,-208.0,10.0,347.0,102.0,-519.0,0
27.0,-196.0,9.0,390.0,101.0,-518.0,0
31.0,-191.0,9.0,420.0,103.0,-522.0,0
31.0,-183.0,8.0,434.0,106.0,-528.0,0
30.0,-180.0,8.0,431.0,106.0,-532.0,0
34.0,-175.0,9.0,419.0,100.0,-536.0,0
24.0,-166.0,7.0,392.0,85.0,-536.0,0
25.0,-162.0,8.0,355.0,67.0,-534.0,0
21.0,-163.0,7.0,304.0,46.0,-532.0,0
26.0,-153.0,-12.0,248.0,23.0,-525.0,0
14.0,-164.0,1.0,185.0,4.0,-514.0,0
14.0,-166.0,-10.0,121.0,-11.0,-503.0,0
15.0,-169.0,-8.0,55.0,-17.0,-488.0,0
15.0,-176.0,-8.0,-6.0,-15.0,-471.0,0
20.0,-181.0,-11.0,-52.0,-5.0,-454.0,0
18.0,-184.0,-7.0,-79.0,15.0,-445.0,0
19.0,-184.0,-9.0,-90.0,39.0,-440.0,0
21.0,-188.0,-11.0,-93.0,64.0,-436.0,0
19.0,-191.0,-9.0,-90.0,81.0,-432.0,0
16.0,-194.0,-11.0,-90.0,92.0,-425.0,0
16.0,-203.0,-4.0,-93.0,96.0,-419.0,0
18.0,-202.0,-1.0,-93.0,102.0,-413.0,0
22.0,-209.0,1.0,-88.0,115.0,-406.0,0
23.0,-215.0,7.0,-79.0,132.0,-400.0,0
26.0,-218.0,5.0,-64.0,152.0,-391.0,0
27.0,-222.0,6.0,-46.0,170.0,-386.0,0
25.0,-224.0,9.0,-26.0,185.0,-379.0,0
27.0,-229.0,10.0,-8.0,197.0,-368.0,0
25.0,-230.0,16.0,10.0,203.0,-359.0,0
24.0,-232.0,17.0,22.0,201.0,-349.0,0
22.0,-231.0,20.0,31.0,194.0,-337.0,0
19.0,-233.0,24.0,38.0,182.0,-326.0,0
16.0,-235.0,23.0,45.0,170.0,-315.0,0
16.0,-232.0,26.0,53.0,157.0,-306.0,0
17.0,-236.0,23.0,62.0,144.0,-296.0,0
10.0,-237.0,19.0,70.0,129.0,-290.0,0
10.0,-237.0,21.0,77.0,111.0,-288.0,0
7.0,-238.0,18.0,84.0,92.0,-288.0,0
7.0,-238.0,19.0,88.0,68.0,-286.0,0
8.0,-240.0,16.0,89.0,40.0,-289.0,0
7.0,-237.0,18.0,90.0,12.0,-295.0,0
9.0,-237.0,16.0,91.0,-16.0,-301.0,0
8.0,-233.0,19.0,89.0,-42.0,-306.0,0
8.0,-234.0,18.0,84.0,-70.0,-319.0,0
8.0,-230.0,18.0,78.0,-92.0,-329.0,0
10.0,-227.0,21.0,68.0,-114.0,-336.0,0
13.0,-228.0,20.0,58.0,-129.0,-342.0,0
13.0,-226.0,21.0,48.0,-140.0,-346.0,0
16.0,-227.0,20.0,43.0,-144.0,-347.0,0
18.0,-226.0,21.0,41.0,-148.0,-344.0,0
20.0,-224.0,25.0,44.0,-145.0,-337.0,0
24.0,-224.0,29.0,51.0,-141.0,-328.0,0
26.0,-221.0,34.0,63.0,-137.0,-316.0,0
27.0,-220.0,31.0,75.0,-135.0,-300.0,0
28.0,-220.0,38.0,85.0,-135.0,-283.0,0
35.0,-221.0,30.0,92.0,-133.0,-261.0,0
36.0,-225.0,36.0,90.0,-128.0,-239.0,0
40.0,-222.0,38.0,86.0,-121.0,-217.0,0
42.0,-224.0,40.0,77.0,-107.0,-194.0,0
40.0,-225.0,43.0,70.0,-89.0,-172.0,0
46.0,-229.0,45.0,67.0,-66.0,-152.0,0
50.0,-233.0,50.0,69.0,-40.0,-136.0,0
55.0,-235.0,43.0,72.0,-13.0,-126.0,0
58.0,-236.0,47.0,80.0,14.0,-117.0,0
70.0,-238.0,47.0,92.0,37.0,-111.0,0
73.0,-237.0,48.0,105.0,60.0,-107.0,0
72.0,-235.0,41.0,115.0,83.0,-107.0,0
76.0,-236.0,45.0,124.0,102.0,-106.0,0
68.0,-233.0,41.0,129.0,118.0,-104.0,0
74.0,-233.0,41.0,132.0,130.0,-103.0,0
72.0,-235.0,41.0,126.0,140.0,-99.0,0
68.0,-236.0,43.0,111.0,151.0,-97.0,0
62.0,-231.0,47.0,92.0,163.0,-89.0,0
56.0,-238.0,46.0,68.0,171.0,-80.0,0
54.0,-232.0,44.0,40.0,172.0,-69.0,0
51.0,-235.0,51.0,12.0,164.0,-58.0,0
47.0,-235.0,56.0,-11.0,149.0,-47.0,0
46.0,-231.0,53.0,-30.0,131.0,-34.0,0
46.0,-230.0,55.0,-40.0,112.0,-19.0,0
40.0,-230.0,56.0,-43.0,97.0,-6.0,0
40.0,-227.0,50.0,-41.0,84.0,5.0,0
39.0,-222.0,51.0,-33.0,80.0,14.0,0
40.0,-220.0,48.0,-23.0,82.0,22.0,0
33.0,-217.0,45.0,-15.0,96.0,27.0,0
32.0,-216.0,47.0,-9.0,116.0,31.0,0
35.0,-210.0,41.0,-4.0,142.0,34.0,0
32.0,-208.0,35.0,-3.0,168.0,38.0,0
31.0,-206.0,38.0,-4.0,191.0,41.0,0
28.0,-205.0,37.0,-8.0,205.0,45.0,0
24.0,-196.0,41.0,-15.0,210.0,49.0,0
26.0,-197.0,38.0,-24.0,208.0,54.0,0
29.0,-196.0,34.0,-35.0,200.0,59.0,0
25.0,-193.0,36.0,-51.0,191.0,65.0,0
29.0,-198.0,35.0,-71.0,183.0,69.0,0
27.0,-195.0,36.0,-96.0,176.0,73.0,0
27.0,-197.0,36.0,-123.0,172.0,78.0,0
27.0,-196.0,34.0,-153.0,161.0,88.0,0
27.0,-201.0,36.0,-181.0,147.0,100.0,0
30.0,-204.0,38.0,-209.0,134.0,109.0,0
32.0,-210.0,41.0,-234.0,124.0,119.0,0
32.0,-213.0,40.0,-254.0,119.0,122.0,0
35.0,-218.0,40.0,-265.0,120.0,122.0,0
41.0,-222.0,41.0,-272.0,124.0,122.0,0
42.0,-227.0,40.0,-273.0,128.0,118.0,0
45.0,-235.0,33.0,-273.0,132.0,118.0,0
49.0,-239.0,37.0,-272.0,139.0,114.0,0
49.0,-245.0,33.0,-276.0,143.0,109.0,0
54.0,-251.0,32.0,-281.0,143.0,105.0,0
54.0,-255.0,33.0,-290.0,144.0,104.0,0
52.0,-261.0,32.0,-301.0,146.0,102.0,0
53.0,-270.0,32.0,-312.0,150.0,101.0,0
53.0,-277.0,32.0,-318.0,149.0,99.0,0
50.0,-279.0,37.0,-332.0,147.0,98.0,0
48.0,-284.0,34.0,-341.0,136.0,92.0,0
48.0,-285.0,39.0,-343.0,121.0,83.0,0
46.0,-290.0,46.0,-341.0,102.0,75.0,0
44.0,-292.0,47.0,-331.0,86.0,66.0,0
39.0,-292.0,55.0,-311.0,69.0,53.0,0
38.0,-306.0,72.0,-280.0,54.0,37.0,0
36.0,-292.0,70.0,-237.0,42.0,26.0,0
34.0,-292.0,70.0,-184.0,32.0,9.0,0
29.0,-285.0,64.0,-125.0,24.0,-4.0,0
31.0,-281.0,66.0,-65.0,21.0,-16.0,0
29.0,-278.0,65.0,-14.0,23.0,-26.0,0
29.0,-278.0,65.0,19.0,29.0,-32.0,0
22.0,-270.0,63.0,34.0,34.0,-36.0,0
24.0,-270.0,60.0,32.0,35.0,-36.0,0
20.0,-264.0,57.0,16.0,33.0,-33.0,0
21.0,-263.0,53.0,-13.0,28.0,-27.0,0
20.0,-257.0,52.0,-49.0,21.0,-19.0,0
23.0,-251.0,46.0,-91.0,13.0,-10.0,0
24.0,-246.0,43.0,-133.0,6.0,3.0,0
27.0,-245.0,45.0,-178.0,-2.0,15.0,0
27.0,-241.0,47.0,-222.0,-9.0,29.0,0
30.0,-237.0,48.0,-265.0,-16.0,42.0,0
32.0,-236.0,46.0,-307.0,-26.0,56.0,0
33.0,-239.0,56.0,-348.0,-37.0,70.0,0
35.0,-245.0,52.0,-389.0,-49.0,81.0,0
43.0,-250.0,55.0,-423.0,-58.0,87.0,0
46.0,-254.0,51.0,-450.0,-65.0,90.0,0
47.0,-260.0,55.0,-468.0,-68.0,89.0,0
52.0,-271.0,53.0,-479.0,-71.0,84.0,0
56.0,-278.0,59.0,-485.0,-72.0,73.0,0
56.0,-286.0,53.0,-485.0,-70.0,58.0,0
61.0,-296.0,47.0,-483.0,-64.0,40.0,0
62.0,-307.0,42.0,-483.0,-55.0,20.0,0
64.0,-313.0,45.0,-486.0,-43.0,-2.0,0
63.0,-324.0,38.0,-495.0,-30.0,-28.0,0
61.0,-334.0,33.0,-509.0,-21.0,-54.0,0
57.0,-342.0,25.0,-527.0,-16.0,-82.0,0
54.0,-359.0,21.0,-550.0,-19.0,-112.0,0
51.0,-368.0,15.0,-572.0,-27.0,-142.0,0
43.0,-376.0,14.0,-594.0,-40.0,-168.0,0
33.0,-384.0,11.0,-607.0,-53.0,-187.0,0
21.0,-388.0,9.0,-612.0,-62.0,-196.0,0
12.0,-389.0,7.0,-604.0,-68.0,-195.0,0
3.0,-390.0,8.0,-587.0,-77.0,-188.0,0
-8.0,-392.0,0.0,-557.0,-90.0,-173.0,0
-15.0,-390.0,-3.0,-517.0,-123.0,-150.0,0
-21.0,-380.0,0.0,-462.0,-174.0,-120.0,0
-29.0,-372.0,1.0,-398.0,-237.0,-90.0,0
-35.0,-363.0,1.0,-335.0,-304.0,-35.0,0
-43.0,-353.0,-6.0,-275.0,-371.0,28.0,0
-45.0,-340.0,-9.0,-219.0,-430.0,101.0,0
-53.0,-323.0,-18.0,-173.0,-474.0,181.0,0
-51.0,-313.0,-22.0,-138.0,-506.0,256.0,0
-49.0,-300.0,-34.0,-116.0,-524.0,324.0,0
-50.0,-285.0,-39.0,-110.0,-533.0,380.0,0
-47.0,-273.0,-40.0,-116.0,-536.0,426.0,0
-39.0,-262.0,-45.0,-137.0,-543.0,456.0,0
-35.0,-248.0,-51.0,-168.0,-554.0,477.0,0
-28.0,-241.0,-54.0,-212.0,-568.0,487.0,0
-15.0,-240.0,-54.0,-258.0,-591.0,487.0,0
-15.0,-234.0,-50.0,-301.0,-615.0,479.0,0
-5.0,-238.0,-50.0,-331.0,-634.0,472.0,0
1.0,-242.0,-51.0,-343.0,-645.0,461.0,0
7.0,-245.0,-49.0,-334.0,-648.0,456.0,0
13.0,-248.0,-43.0,-305.0,-641.0,453.0,0
20.0,-253.0,-46.0,-262.0,-628.0,449.0,0
23.0,-255.0,-46.0,-216.0,-617.0,446.0,0
25.0,-255.0,-43.0,-175.0,-605.0,446.0,0
30.0,-257.0,-45.0,-145.0,-599.0,448.0,0
31.0,-258.0,-42.0,-135.0,-594.0,450.0,0
33.0,-255.0,-41.0,-143.0,-589.0,458.0,0
38.0,-257.0,-46.0,-167.0,-580.0,467.0,0
34.0,-255.0,-36.0,-197.0,-564.0,477.0,0
40.0,-256.0,-36.0,-227.0,-546.0,490.0,0
39.0,-257.0,-33.0,-254.0,-524.0,502.0,0
38.0,-259.0,-33.0,-276.0,-499.0,514.0,0
37.0,-255.0,-34.0,-298.0,-478.0,528.0,0
38.0,-255.0,-29.0,-316.0,-453.0,543.0,0
34.0,-253.0,-30.0,-325.0,-425.0,557.0,0
34.0,-250.0,-32.0,-328.0,-395.0,569.0,0
33.0,-250.0,-31.0,-328.0,-361.0,575.0,0
32.0,-247.0,-38.0,-325.0,-327.0,578.0,0
32.0,-242.0,-36.0,-320.0,-289.0,575.0,0
33.0,-235.0,-29.0,-313.0,-254.0,566.0,0
28.0,-228.0,-32.0,-306.0,-216.0,553.0,0
29.0,-224.0,-27.0,-292.0,-175.0,535.0,0
26.0,-214.0,-25.0,-277.0,-130.0,510.0,0
26.0,-209.0,-26.0,-259.0,-87.0,483.0,0
23.0,-201.0,-29.0,-244.0,-47.0,455.0,0
24.0,-200.0,-28.0,-229.0,-11.0,429.0,0
20.0,-195.0,-25.0,-216.0,18.0,404.0,0
15.0,-186.0,-27.0,-201.0,43.0,379.0,0
16.0,-186.0,-29.0,-185.0,59.0,357.0,0
14.0,-181.0,-25.0,-161.0,72.0,335.0,0
14.0,-178.0,-22.0,-134.0,86.0,319.0,0
11.0,-170.0,-24.0,-103.0,100.0,303.0,0
6.0,-169.0,-23.0,-72.0,114.0,293.0,0
6.0,-163.0,-19.0,-44.0,127.0,284.0,0
3.0,-162.0,-23.0,-27.0,135.0,280.0,0
4.0,-161.0,-23.0,-20.0,139.0,280.0,0
-3.0,-157.0,-23.0,-24.0,138.0,283.0,0
-6.0,-158.0,-23.0,-45.0,135.0,289.0,0
-8.0,-157.0,-23.0,-79.0,128.0,301.0,0
-14.0,-155.0,-20.0,-119.0,119.0,314.0,0
-15.0,-162.0,-24.0,-163.0,110.0,329.0,0
-19.0,-161.0,-24.0,-210.0,103.0,347.0,0
-20.0,-170.0,-18.0,-254.0,97.0,366.0,0
-17.0,-178.0,-17.0,-294.0,96.0,382.0,0
-23.0,-184.0,-14.0,-327.0,101.0,398.0,0
-29.0,-196.0,-10.0,-352.0,109.0,412.0,0
-31.0,-201.0,-8.0,-363.0,121.0,421.0,0
-41.0,-208.0,-8.0,-365.0,136.0,428.0,0
-45.0,-220.0,2.0,-350.0,153.0,437.0,0
-42.0,-217.0,-14.0,-319.0,170.0,439.0,0
-45.0,-238.0,-4.0,-280.0,184.0,438.0,0
-46.0,-245.0,-4.0,-220.0,196.0,435.0,0
-44.0,-253.0,-6.0,-149.0,204.0,432.0,0
-45.0,-257.0,-8.0,-69.0,209.0,426.0,0
-44.0,-261.0,-8.0,23.0,208.0,420.0,0
-42.0,-266.0,-8.0,126.0,199.0,411.0,0
-40.0,-267.0,-5.0,236.0,184.0,401.0,0
-39.0,-270.0,-11.0,347.0,162.0,392.0,0
-37.0,-269.0,-11.0,448.0,137.0,378.0,0
-36.0,-267.0,-18.0,532.0,110.0,361.0,0
-37.0,-261.0,-15.0,595.0,85.0,345.0,0
-34.0,-263.0,-21.0,630.0,61.0,330.0,0
-33.0,-255.0,-22.0,638.0,40.0,313.0,0
-31.0,-254.0,-22.0,626.0,18.0,295.0,0
-34.0,-250.0,-15.0,595.0,-3.0,278.0,0
-29.0,-249.0,-9.0,554.0,-18.0,258.0,0
-28.0,-255.0,-7.0,511.0,-28.0,242.0,0
-25.0,-249.0,-6.0,474.0,-39.0,228.0,0
-25.0,-249.0,4.0,445.0,-49.0,214.0,0
-21.0,-249.0,10.0,426.0,-60.0,204.0,0
-19.0,-250.0,10.0,419.0,-73.0,199.0,0
-16.0,-250.0,10.0,425.0,-81.0,198.0,0
-15.0,-253.0,13.0,443.0,-88.0,198.0,0
-16.0,-249.0,14.0,467.0,-88.0,198.0,0
-11.0,-248.0,12.0,492.0,-83.0,199.0,0
-10.0,-246.0,10.0,515.0,-68.0,200.0,0
-12.0,-243.0,11.0,533.0,-42.0,204.0,0
-9.0,-238.0,18.0,540.0,-5.0,209.0,0
-11.0,-238.0,15.0,539.0,40.0,210.0,0
-9.0,-232.0,17.0,528.0,86.0,212.0,0
-11.0,-228.0,19.0,508.0,133.0,213.0,0
-11.0,-224.0,20.0,485.0,177.0,215.0,0
-10.0,-224.0,21.0,454.0,215.0,213.0,0
-13.0,-220.0,23.0,420.0,250.0,214.0,0
-13.0,-217.0,23.0,386.0,282.0,219.0,0
-15.0,-215.0,23.0,351.0,308.0,225.0,0
-13.0,-218.0,25.0,317.0,329.0,235.0,0
-15.0,-218.0,23.0,287.0,340.0,244.0,0
-14.0,-220.0,21.0,259.0,345.0,252.0,0
-14.0,-224.0,25.0,239.0,343.0,261.0,0
-15.0,-226.0,25.0,222.0,337.0,267.0,0
-16.0,-227.0,26.0,212.0,325.0,271.0,0
-18.0,-231.0,29.0,212.0,307.0,269.0,0
-18.0,-233.0,31.0,223.0,290.0,265.0,0
-23.0,-233.0,31.0,238.0,273.0,258.0,0
-26.0,-231.0,37.0,256.0,261.0,249.0,0
-26.0,-234.0,32.0,275.0,252.0,238.0,0
-30.0,-231.0,33.0,296.0,246.0,230.0,0
-35.0,-232.0,30.0,313.0,242.0,218.0,0
-37.0,-231.0,29.0,327.0,241.0,207.0,0
-40.0,-227.0,29.0,338.0,246.0,197.0,0
-44.0,-227.0,32.0,342.0,251.0,183.0,0
-51.0,-226.0,36.0,339.0,257.0,170.0,0
-59.0,-235.0,43.0,331.0,262.0,155.0,0
-54.0,-225.0,37.0,318.0,264.0,139.0,0
-54.0,-225.0,36.0,304.0,267.0,123.0,0
-52.0,-223.0,36.0,287.0,269.0,105.0,0
-50.0,-227.0,39.0,266.0,274.0,89.0,0
-48.0,-222.0,40.0,245.0,280.0,75.0,0
-45.0,-223.0,42.0,228.0,284.0,61.0,0
-46.0,-222.0,45.0,209.0,290.0,45.0,0
-41.0,-225.0,48.0,198.0,295.0,28.0,0
-42.0,-225.0,49.0,192.0,300.0,12.0,0
-41.0,-223.0,50.0,192.0,301.0,-4.0,0
-43.0,-219.0,52.0,200.0,298.0,-20.0,0
-42.0,-220.0,54.0,215.0,288.0,-33.0,0
-48.0,-218.0,57.0,236.0,269.0,-46.0,0
-50.0,-215.0,49.0,259.0,243.0,-55.0,0
-52.0,-213.0,48.0,290.0,213.0,-66.0,0
-59.0,-206.0,42.0,319.0,179.0,-75.0,0
-65.0,-202.0,42.0,336.0,155.0,-81.0,0
-60.0,-200.0,35.0,338.0,127.0,-85.0,0
-64.0,-196.0,36.0,321.0,104.0,-87.0,0
-66.0,-196.0,38.0,294.0,88.0,-86.0,0
-64.0,-193.0,36.0,254.0,76.0,-83.0,0
-66.0,-195.0,38.0,205.0,67.0,-79.0,0
-65.0,-200.0,39.0,153.0,55.0,-77.0,0
-59.0,-202.0,43.0,99.0,47.0,-78.0,0
-59.0,-207.0,44.0,45.0,47.0,-82.0,0
-52.0,-211.0,45.0,-2.0,57.0,-89.0,0
-53.0,-214.0,50.0,-42.0,71.0,-97.0,0
-51.0,-218.0,46.0,-78.0,86.0,-108.0,0
-43.0,-221.0,41.0,-110.0,93.0,-116.0,0
-45.0,-218.0,43.0,-140.0,94.0,-122.0,0
-42.0,-223.0,42.0,-171.0,92.0,-123.0,0
-41.0,-225.0,39.0,-202.0,94.0,-122.0,0
-39.0,-228.0,44.0,-232.0,97.0,-119.0,0
-38.0,-234.0,40.0,-260.0,101.0,-116.0,0
-37.0,-241.0,36.0,-284.0,107.0,-112.0,0
-37.0,-242.0,42.0,-305.0,114.0,-105.0,0
-37.0,-249.0,41.0,-318.0,117.0,-101.0,0
-39.0,-254.0,41.0,-323.0,118.0,-96.0,0
-33.0,-259.0,46.0,-326.0,124.0,-90.0,0
-34.0,-265.0,43.0,-322.0,130.0,-86.0,0
-35.0,-268.0,46.0,-315.0,136.0,-81.0,0
-35.0,-273.0,43.0,-306.0,139.0,-73.0,0
-31.0,-277.0,43.0,-295.0,142.0,-63.0,0
-31.0,-282.0,42.0,-284.0,147.0,-52.0,0
-29.0,-286.0,37.0,-276.0,155.0,-42.0,0
-30.0,-286.0,37.0,-268.0,170.0,-35.0,0
-30.0,-289.0,31.0,-263.0,186.0,-30.0,0
-35.0,-285.0,25.0,-258.0,204.0,-28.0,0
-34.0,-292.0,28.0,-253.0,217.0,-26.0,0
-37.0,-292.0,28.0,-248.0,232.0,-27.0,0
-41.0,-292.0,26.0,-241.0,250.0,-28.0,0
-44.0,-291.0,31.0,-231.0,272.0,-29.0,0
-50.0,-296.0,35.0,-219.0,303.0,-30.0,0
-54.0,-299.0,40.0,-207.0,338.0,-28.0,0
-59.0,-305.0,43.0,-188.0,368.0,-27.0,0
-65.0,-312.0,43.0,-172.0,383.0,-23.0,0
-72.0,-322.0,44.0,-163.0,378.0,-19.0,0
-73.0,-332.0,49.0,-163.0,364.0,-14.0,0
-75.0,-347.0,49.0,-173.0,346.0,-5.0,0
-79.0,-359.0,46.0,-193.0,331.0,8.0,0
-78.0,-372.0,45.0,-216.0,321.0,25.0,0
-82.0,-379.0,40.0,-240.0,314.0,44.0,0
-79.0,-390.0,35.0,-267.0,300.0,69.0,0
-79.0,-391.0,21.0,-293.0,275.0,92.0,0
-80.0,-396.0,14.0,-321.0,236.0,109.0,0
-82.0,-387.0,8.0,-351.0,188.0,124.0,0
-81.0,-379.0,-1.0,-381.0,129.0,129.0,0
-76.0,-375.0,-8.0,-403.0,74.0,116.0,0
-71.0,-366.0,-9.0,-413.0,32.0,89.0,0
-66.0,-355.0,-12.0,-405.0,9.0,46.0,0
-62.0,-348.0,-12.0,-383.0,5.0,-4.0,0
-62.0,-337.0,-9.0,-357.0,15.0,-55.0,0
-56.0,-326.0,-15.0,-335.0,29.0,-108.0,0
-52.0,-318.0,-16.0,-320.0,40.0,-166.0,0
-51.0,-307.0,-14.0,-312.0,54.0,-217.0,0
-46.0,-296.0,-18.0,-314.0,75.0,-262.0,0
-40.0,-290.0,-19.0,-330.0,95.0,-309.0,0
-40.0,-280.0,-20.0,-352.0,115.0,-352.0,0
-31.0,-268.0,-21.0,-379.0,128.0,-398.0,0
-29.0,-263.0,-28.0,-404.0,139.0,-435.0,0
-21.0,-257.0,-26.0,-427.0,146.0,-468.0,0
-13.0,-248.0,-29.0,-443.0,149.0,-493.0,0
-10.0,-247.0,-32.0,-446.0,152.0,-512.0,0
-7.0,-239.0,-30.0,-442.0,152.0,-530.0,0
2.0,-237.0,-31.0,-433.0,148.0,-541.0,0
5.0,-231.0,-37.0,-417.0,143.0,-550.0,0
5.0,-226.0,-40.0,-389.0,138.0,-555.0,0
3.0,-227.0,-38.0,-358.0,131.0,-555.0,0
3.0,-228.0,-42.0,-323.0,125.0,-546.0,0
6.0,-233.0,-41.0,-291.0,117.0,-535.0,0
5.0,-234.0,-43.0,-263.0,104.0,-515.0,0
-4.0,-236.0,-41.0,-243.0,90.0,-489.0,0
-9.0,-242.0,-41.0,-227.0,69.0,-465.0,0
-16.0,-245.0,-38.0,-207.0,42.0,-432.0,0
-18.0,-251.0,-37.0,-180.0,5.0,-403.0,0
-24.0,-259.0,-32.0,-151.0,-40.0,-379.0,0
-30.0,-262.0,-35.0,-122.0,-86.0,-361.0,0
-37.0,-264.0,-26.0,-95.0,-129.0,-345.0,0
-37.0,-267.0,-27.0,-69.0,-165.0,-336.0,0
-41.0,-269.0,-28.0,-44.0,-191.0,-333.0,0
-43.0,-268.0,-24.0,-22.0,-212.0,-334.0,0
-45.0,-266.0,-22.0,-7.0,-233.0,-339.0,0
-45.0,-265.0,-20.0,3.0,-256.0,-346.0,0
-42.0,-263.0,-21.0,4.0,-279.0,-357.0,0
-42.0,-258.0,-18.0,1.0,-306.0,-368.0,0
-43.0,-252.0,-14.0,-4.0,-325.0,-382.0,0
-42.0,-254.0,-23.0,-6.0,-334.0,-391.0,0
-36.0,-248.0,-19.0,-2.0,-331.0,-400.0,0
-36.0,-247.0,-22.0,3.0,-319.0,-406.0,0
-34.0,-242.0,-18.0,8.0,-304.0,-410.0,0
-30.0,-244.0,-18.0,13.0,-290.0,-413.0,0
-25.0,-238.0,-21.0,15.0,-282.0,-417.0,0
-22.0,-237.0,-18.0,17.0,-281.0,-422.0,0
-15.0,-228.0,-13.0,19.0,-285.0,-428.0,0
-10.0,-227.0,-11.0,24.0,-293.0,-435.0,0
-6.0,-221.0,-9.0,34.0,-304.0,-440.0,0
0.0,-217.0,-10.0,51.0,-314.0,-440.0,0
2.0,-213.0,-9.0,74.0,-326.0,-436.0,0
7.0,-207.0,-13.0,97.0,-334.0,-430.0,0
10.0,-200.0,-14.0,117.0,-340.0,-424.0,0
11.0,-197.0,-17.0,132.0,-341.0,-417.0,0
18.0,-192.0,-20.0,142.0,-336.0,-413.0,0
21.0,-189.0,-20.0,138.0,-325.0,-408.0,0
25.0,-187.0,-21.0,123.0,-309.0,-404.0,0
34.0,-187.0,-24.0,101.0,-291.0,-403.0,0
35.0,-189.0,-24.0,77.0,-268.0,-400.0,0
34.0,-188.0,-18.0,56.0,-245.0,-393.0,0
35.0,-189.0,-23.0,41.0,-226.0,-384.0,0
41.0,-193.0,-20.0,35.0,-211.0,-372.0,0
35.0,-196.0,-16.0,32.0,-202.0,-358.0,0
34.0,-200.0,-11.0,33.0,-196.0,-343.0,0
32.0,-207.0,-13.0,35.0,-191.0,-330.0,0
29.0,-210.0,-13.0,42.0,-187.0,-316.0,0
26.0,-212.0,-10.0,48.0,-180.0,-299.0,0
20.0,-215.0,-11.0,51.0,-172.0,-277.0,0
17.0,-219.0,-12.0,50.0,-160.0,-258.0,0
15.0,-226.0,-12.0,45.0,-145.0,-244.0,0
11.0,-229.0,-15.0,38.0,-123.0,-235.0,0
12.0,-233.0,-6.0,36.0,-100.0,-234.0,0
7.0,-238.0,-3.0,43.0,-77.0,-240.0,0
3.0,-236.0,2.0,62.0,-58.0,-248.0,0
-1.0,-233.0,-1.0,90.0,-47.0,-252.0,0
-2.0,-235.0,2.0,117.0,-44.0,-253.0,0
-5.0,-238.0,5.0,144.0,-47.0,-256.0,0
-3.0,-235.0,4.0,171.0,-50.0,-262.0,0
0.0,-239.0,1.0,203.0,-48.0,-273.0,0
-1.0,-238.0,6.0,236.0,-36.0,-284.0,0
1.0,-239.0,3.0,270.0,-19.0,-297.0,0
1.0,-240.0,1.0,300.0,-2.0,-312.0,0
1.0,-239.0,1.0,322.0,13.0,-329.0,0
3.0,-239.0,2.0,338.0,24.0,-349.0,0
4.0,-237.0,-1.0,347.0,32.0,-368.0,0
5.0,-236.0,5.0,354.0,34.0,-388.0,0
5.0,-237.0,5.0,356.0,29.0,-407.0,0
5.0,-236.0,7.0,357.0,17.0,-425.0,0
6.0,-231.0,6.0,356.0,-1.0,-439.0,0
9.0,-230.0,6.0,354.0,-27.0,-447.0,0
11.0,-227.0,6.0,353.0,-54.0,-454.0,0
14.0,-225.0,9.0,352.0,-79.0,-457.0,0
19.0,-226.0,8.0,348.0,-101.0,-458.0,0
22.0,-223.0,7.0,343.0,-120.0,-458.0,0
21.0,-220.0,8.0,336.0,-131.0,-456.0,0
23.0,-218.0,6.0,325.0,-139.0,-454.0,0
24.0,-216.0,9.0,310.0,-144.0,-449.0,0
20.0,-215.0,11.0,294.0,-145.0,-436.0,0
22.0,-216.0,10.0,278.0,-146.0,-421.0,0
20.0,-216.0,9.0,259.0,-147.0,-407.0,0
22.0,-217.0,11.0,240.0,-148.0,-386.0,0
23.0,-219.0,11.0,221.0,-147.0,-362.0,0
25.0,-217.0,13.0,204.0,-140.0,-339.0,0
25.0,-223.0,17.0,191.0,-129.0,-316.0,0
28.0,-228.0,18.0,183.0,-116.0,-296.0,0
30.0,-230.0,15.0,182.0,-98.0,-278.0,0
29.0,-232.0,21.0,187.0,-81.0,-267.0,0
30.0,-236.0,24.0,197.0,-62.0,-255.0,0
34.0,-239.0,23.0,207.0,-47.0,-247.0,0
36.0,-243.0,25.0,219.0,-33.0,-241.0,0
35.0,-242.0,26.0,233.0,-24.0,-240.0,0
34.0,-240.0,27.0,244.0,-18.0,-241.0,0
33.0,-242.0,30.0,255.0,-12.0,-242.0,0
40.0,-244.0,24.0,263.0,-9.0,-242.0,0
40.0,-242.0,23.0,266.0,-6.0,-244.0,0
41.0,-243.0,21.0,262.0,-6.0,-249.0,0
39.0,-243.0,18.0,251.0,-8.0,-251.0,0
42.0,-244.0,17.0,231.0,-13.0,-252.0,0
38.0,-246.0,16.0,205.0,-25.0,-255.0,0
36.0,-244.0,18.0,177.0,-39.0,-254.0,0
37.0,-247.0,16.0,143.0,-56.0,-253.0,0
31.0,-246.0,18.0,112.0,-74.0,-249.0,0
29.0,-247.0,22.0,82.0,-93.0,-247.0,0
29.0,-248.0,18.0,57.0,-108.0,-242.0,0
28.0,-248.0,25.0,40.0,-118.0,-236.0,0
33.0,-250.0,24.0,34.0,-115.0,-227.0,0
29.0,-248.0,25.0,43.0,-104.0,-226.0,0
31.0,-247.0,30.0,61.0,-90.0,-224.0,0
32.0,-248.0,33.0,83.0,-76.0,-222.0,0
31.0,-242.0,29.0,108.0,-67.0,-221.0,0
33.0,-240.0,31.0,131.0,-63.0,-220.0,0
33.0,-234.0,31.0,153.0,-63.0,-218.0,0
34.0,-233.0,25.0,171.0,-61.0,-217.0,0
35.0,-231.0,20.0,185.0,-57.0,-220.0,0
39.0,-227.0,26.0,190.0,-48.0,-221.0,0
41.0,-226.0,24.0,186.0,-39.0,-222.0,0
46.0,-224.0,22.0,173.0,-32.0,-221.0,0
47.0,-225.0,25.0,157.0,-24.0,-222.0,0
49.0,-224.0,30.0,139.0,-18.0,-221.0,0
50.0,-228.0,28.0,126.0,-9.0,-219.0,0
53.0,-229.0,28.0,115.0,5.0,-216.0,0
51.0,-232.0,33.0,108.0,22.0,-215.0,0
54.0,-231.0,29.0,103.0,38.0,-213.0,0
55.0,-228.0,33.0,102.0,50.0,-209.0,0
54.0,-234.0,35.0,101.0,59.0,-206.0,0
57.0,-230.0,33.0,102.0,64.0,-198.0,0
55.0,-230.0,38.0,106.0,70.0,-192.0,0
53.0,-228.0,40.0,111.0,75.0,-185.0,0
52.0,-230.0,37.0,121.0,80.0,-179.0,0
52.0,-231.0,40.0,135.0,85.0,-173.0,0
51.0,-233.0,43.0,153.0,90.0,-168.0,0
53.0,-234.0,40.0,172.0,95.0,-161.0,0
48.0,-231.0,37.0,192.0,99.0,-154.0,0
49.0,-230.0,44.0,209.0,100.0,-152.0,0
48.0,-228.0,40.0,223.0,101.0,-150.0,0
47.0,-224.0,38.0,235.0,102.0,-148.0,0
45.0,-227.0,43.0,238.0,108.0,-150.0,0
43.0,-220.0,42.0,240.0,114.0,-150.0,0
43.0,-222.0,50.0,241.0,124.0,-153.0,0
43.0,-223.0,46.0,241.0,134.0,-153.0,0
40.0,-221.0,52.0,241.0,148.0,-151.0,0
41.0,-220.0,54.0,237.0,163.0,-144.0,0
45.0,-223.0,55.0,229.0,177.0,-131.0,0
48.0,-222.0,58.0,211.0,189.0,-118.0,0
48.0,-228.0,59.0,195.0,199.0,-102.0,0
49.0,-228.0,60.0,172.0,203.0,-84.0,0
52.0,-229.0,59.0,151.0,203.0,-67.0,0
50.0,-229.0,60.0,134.0,200.0,-50.0,0
49.0,-230.0,61.0,127.0,194.0,-32.0,0
49.0,-228.0,59.0,128.0,182.0,-16.0,0
49.0,-226.0,62.0,134.0,170.0,0.0,0
48.0,-225.0,58.0,139.0,160.0,13.0,0
44.0,-220.0,54.0,143.0,151.0,26.0,0
46.0,-219.0,51.0,138.0,145.0,36.0,0
41.0,-216.0,53.0,125.0,139.0,42.0,0
41.0,-215.0,47.0,102.0,136.0,51.0,0
42.0,-214.0,50.0,75.0,133.0,56.0,0
41.0,-215.0,51.0,46.0,126.0,60.0,0
37.0,-215.0,53.0,13.0,122.0,60.0,0
38.0,-217.0,55.0,-21.0,118.0,60.0,0
39.0,-218.0,58.0,-53.0,118.0,57.0,0
38.0,-220.0,55.0,-87.0,119.0,51.0,0
38.0,-224.0,57.0,-115.0,123.0,47.0,0
37.0,-223.0,54.0,-139.0,126.0,42.0,0
37.0,-226.0,55.0,-159.0,130.0,37.0,0
36.0,-228.0,56.0,-174.0,133.0,33.0,0
33.0,-230.0,54.0,-186.0,135.0,28.0,0
36.0,-226.0,49.0,-196.0,131.0,23.0,0
34.0,-226.0,45.0,-207.0,129.0,19.0,0
34.0,-224.0,44.0,-221.0,124.0,11.0,0
36.0,-221.0,42.0,-235.0,125.0,4.0,0
39.0,-223.0,38.0,-244.0,128.0,-3.0,0
39.0,-220.0,35.0,-256.0,128.0,-13.0,0
40.0,-223.0,33.0,-266.0,124.0,-22.0,0
43.0,-219.0,30.0,-273.0,117.0,-29.0,0
43.0,-221.0,26.0,-283.0,108.0,-36.0,0
44.0,-224.0,24.0,-298.0,97.0,-38.0,0
44.0,-228.0,27.0,-320.0,85.0,-35.0,0
45.0,-232.0,27.0,-350.0,74.0,-26.0,0
45.0,-235.0,31.0,-387.0,62.0,-8.0,0
45.0,-242.0,34.0,-427.0,52.0,14.0,0
46.0,-246.0,39.0,-466.0,39.0,38.0,0
47.0,-246.0,39.0,-493.0,31.0,63.0,0
47.0,-251.0,46.0,-510.0,23.0,85.0,0
46.0,-255.0,47.0,-514.0,12.0,105.0,0
45.0,-256.0,44.0,-508.0,1.0,121.0,0
43.0,-252.0,44.0,-491.0,-15.0,135.0,0
39.0,-251.0,41.0,-468.0,-30.0,144.0,0
41.0,-251.0,42.0,-442.0,-50.0,151.0,0
40.0,-249.0,44.0,-415.0,-70.0,156.0,0
36.0,-248.0,44.0,-396.0,-91.0,158.0,0
33.0,-247.0,39.0,-382.0,-111.0,159.0,0
33.0,-246.0,42.0,-377.0,-130.0,158.0,0
30.0,-247.0,44.0,-379.0,-149.0,157.0,0
24.0,-247.0,42.0,-384.0,-169.0,157.0,0
25.0,-250.0,45.0,-391.0,-192.0,157.0,0
19.0,-249.0,43.0,-395.0,-219.0,159.0,0
21.0,-250.0,46.0,-398.0,-244.0,162.0,0
21.0,-251.0,47.0,-402.0,-264.0,163.0,0
18.0,-251.0,43.0,-400.0,-272.0,164.0,0
18.0,-253.0,42.0,-399.0,-270.0,163.0,0
21.0,-253.0,36.0,-402.0,-256.0,161.0,0
21.0,-251.0,37.0,-410.0,-241.0,158.0,0
24.0,-249.0,34.0,-423.0,-227.0,157.0,0
26.0,-248.0,33.0,-442.0,-222.0,160.0,0
25.0,-247.0,32.0,-466.0,-225.0,167.0,0
33.0,-246.0,30.0,-491.0,-233.0,173.0,0
32.0,-246.0,30.0,-509.0,-241.0,176.0,0
38.0,-243.0,31.0,-533.0,-252.0,178.0,0
39.0,-243.0,28.0,-554.0,-260.0,181.0,0
39.0,-245.0,37.0,-570.0,-264.0,179.0,0
44.0,-250.0,35.0,-579.0,-270.0,177.0,0
45.0,-250.0,38.0,-582.0,-275.0,174.0,0
45.0,-253.0,42.0,-576.0,-275.0,170.0,0
51.0,-261.0,37.0,-567.0,-271.0,161.0,0
51.0,-262.0,39.0,-555.0,-266.0,148.0,0
53.0,-272.0,43.0,-541.0,-257.0,128.0,0
57.0,-276.0,44.0,-524.0,-246.0,102.0,0
54.0,-280.0,40.0,-509.0,-233.0,75.0,0
59.0,-285.0,35.0,-501.0,-217.0,42.0,0
60.0,-285.0,29.0,-503.0,-200.0,10.0,0
61.0,-287.0,29.0,-512.0,-184.0,-21.0,0
62.0,-292.0,32.0,-530.0,-171.0,-50.0,0
65.0,-297.0,30.0,-552.0,-162.0,-75.0,0
65.0,-300.0,35.0,-572.0,-162.0,-95.0,0
66.0,-305.0,31.0,-588.0,-162.0,-107.0,0
66.0,-310.0,33.0,-598.0,-157.0,-114.0,0
65.0,-317.0,34.0,-600.0,-150.0,-121.0,0
66.0,-322.0,34.0,-599.0,-140.0,-122.0,0
64.0,-328.0,34.0,-592.0,-126.0,-123.0,0
59.0,-328.0,31.0,-579.0,-114.0,-122.0,0
58.0,-333.0,25.0,-557.0,-102.0,-118.0,0
52.0,-333.0,28.0,-522.0,-94.0,-114.0,0
49.0,-339.0,25.0,-483.0,-92.0,-104.0,0
46.0,-338.0,22.0,-440.0,-93.0,-94.0,0
40.0,-334.0,19.0,-398.0,-96.0,-77.0,0
34.0,-331.0,16.0,-366.0,-103.0,-60.0,0
30.0,-330.0,8.0,-354.0,-118.0,-41.0,0
21.0,-329.0,3.0,-368.0,-138.0,-20.0,0
13.0,-325.0,-9.0,-405.0,-167.0,2.0,0
3.0,-326.0,-22.0,-470.0,-199.0,32.0,0
-2.0,-322.0,-21.0,-557.0,-234.0,62.0,0
-8.0,-321.0,-28.0,-660.0,-276.0,97.0,0
-13.0,-321.0,-29.0,-769.0,-323.0,136.0,0
-15.0,-326.0,-35.0,-868.0,-374.0,178.0,0
-13.0,-326.0,-34.0,-951.0,-421.0,222.0,0
-12.0,-326.0,-32.0,-1005.0,-460.0,263.0,0
-12.0,-327.0,-33.0,-1022.0,-491.0,305.0,0
-6.0,-321.0,-36.0,-1009.0,-505.0,344.0,0
-3.0,-312.0,-38.0,-969.0,-505.0,381.0,0
2.0,-306.0,-41.0,-915.0,-497.0,413.0,0
8.0,-296.0,-43.0,-851.0,-488.0,451.0,0
12.0,-287.0,-51.0,-789.0,-484.0,482.0,0
15.0,-275.0,-54.0,-725.0,-491.0,512.0,0
17.0,-264.0,-53.0,-662.0,-509.0,545.0,0
19.0,-259.0,-57.0,-592.0,-537.0,571.0,0
21.0,-251.0,-58.0,-512.0,-573.0,597.0,0
20.0,-248.0,-62.0,-425.0,-613.0,618.0,0
23.0,-246.0,-62.0,-334.0,-651.0,640.0,0
23.0,-243.0,-65.0,-245.0,-680.0,658.0,0
25.0,-243.0,-64.0,-170.0,-688.0,672.0,0
27.0,-239.0,-75.0,-116.0,-676.0,681.0,0
33.0,-240.0,-72.0,-88.0,-651.0,683.0,0
32.0,-239.0,-70.0,-88.0,-617.0,678.0,0
31.0,-235.0,-70.0,-116.0,-578.0,672.0,0
35.0,-237.0,-69.0,-169.0,-544.0,669.0,0
34.0,-240.0,-64.0,-239.0,-521.0,666.0,0
35.0,-241.0,-66.0,-317.0,-506.0,667.0,0
40.0,-247.0,-64.0,-396.0,-501.0,666.0,0
39.0,-251.0,-56.0,-472.0,-500.0,669.0,0
36.0,-252.0,-54.0,-537.0,-498.0,671.0,0
41.0,-261.0,-54.0,-588.0,-492.0,673.0,0
36.0,-266.0,-55.0,-622.0,-478.0,671.0,0
40.0,-271.0,-55.0,-641.0,-452.0,666.0,0
33.0,-273.0,-52.0,-647.0,-423.0,658.0,0
32.0,-279.0,-53.0,-637.0,-386.0,648.0,0
26.0,-280.0,-50.0,-612.0,-345.0,633.0,0
22.0,-278.0,-51.0,-574.0,-305.0,613.0,0
19.0,-275.0,-47.0,-524.0,-264.0,592.0,0
20.0,-272.0,-45.0,-466.0,-222.0,566.0,0
19.0,-265.0,-45.0,-400.0,-177.0,534.0,0
19.0,-260.0,-43.0,-327.0,-129.0,496.0,0
17.0,-255.0,-44.0,-275.0,-83.0,459.0,0
16.0,-250.0,-50.0,-221.0,-40.0,425.0,0
21.0,-243.0,-48.0,-181.0,-5.0,398.0,0
22.0,-238.0,-45.0,-158.0,16.0,374.0,0
19.0,-231.0,-49.0,-147.0,36.0,357.0,0
23.0,-228.0,-52.0,-147.0,47.0,343.0,0
20.0,-216.0,-47.0,-156.0,48.0,332.0,0
20.0,-210.0,-46.0,-168.0,45.0,326.0,0
16.0,-205.0,-46.0,-182.0,43.0,328.0,0
13.0,-199.0,-42.0,-195.0,37.0,335.0,0
7.0,-195.0,-39.0,-209.0,30.0,346.0,0
10.0,-194.0,-40.0,-226.0,23.0,362.0,0
2.0,-195.0,-34.0,-243.0,15.0,382.0,0
-4.0,-189.0,-33.0,-264.0,7.0,405.0,0
-7.0,-189.0,-33.0,-283.0,-3.0,432.0,0
-12.0,-188.0,-29.0,-300.0,-8.0,459.0,0
-11.0,-192.0,-23.0,-308.0,-11.0,485.0,0
-13.0,-193.0,-27.0,-305.0,-6.0,510.0,0
-16.0,-198.0,-27.0,-287.0,5.0,531.0,0
-15.0,-203.0,-27.0,-258.0,22.0,544.0,0
-15.0,-205.0,-35.0,-222.0,45.0,553.0,0
-19.0,-203.0,-29.0,-187.0,72.0,553.0,0
-16.0,-207.0,-34.0,-149.0,103.0,550.0,0
-20.0,-207.0,-32.0,-113.0,139.0,540.0,0
-19.0,-213.0,-38.0,-82.0,176.0,527.0,0
-20.0,-211.0,-40.0,-57.0,213.0,512.0,0
-18.0,-211.0,-38.0,-40.0,248.0,496.0,0
-23.0,-211.0,-43.0,-31.0,282.0,480.0,0
-21.0,-209.0,-46.0,-27.0,312.0,459.0,0
-18.0,-210.0,-49.0,-29.0,339.0,435.0,0
-20.0,-211.0,-46.0,-35.0,362.0,407.0,0
-19.0,-212.0,-50.0,-47.0,386.0,374.0,0
-16.0,-209.0,-52.0,-60.0,408.0,337.0,0
-16.0,-211.0,-55.0,-75.0,426.0,301.0,0
-18.0,-210.0,-55.0,-87.0,439.0,266.0,0
-20.0,-208.0,-57.0,-95.0,441.0,240.0,0
-16.0,-211.0,-55.0,-102.0,431.0,220.0,0
-15.0,-215.0,-55.0,-103.0,410.0,205.0,0
-16.0,-216.0,-59.0,-101.0,384.0,197.0,0
-15.0,-213.0,-52.0,-95.0,356.0,196.0,0
-15.0,-214.0,-56.0,-77.0,333.0,200.0,0
-16.0,-220.0,-51.0,-53.0,314.0,207.0,0
-15.0,-218.0,-51.0,-21.0,302.0,218.0,0
-14.0,-222.0,-52.0,12.0,295.0,230.0,0
-17.0,-226.0,-52.0,47.0,293.0,242.0,0
-22.0,-223.0,-52.0,76.0,294.0,253.0,0
-29.0,-224.0,-52.0,99.0,301.0,263.0,0
-29.0,-228.0,-53.0,115.0,312.0,272.0,0
-33.0,-234.0,-53.0,131.0,324.0,277.0,0
-35.0,-235.0,-53.0,145.0,340.0,280.0,0
-40.0,-234.0,-46.0,156.0,356.0,282.0,0
-43.0,-239.0,-47.0,166.0,370.0,287.0,0
-43.0,-241.0,-41.0,177.0,375.0,294.0,0
-48.0,-243.0,-40.0,189.0,377.0,302.0,0
-48.0,-243.0,-40.0,200.0,372.0,312.0,0
-54.0,-245.0,-35.0,211.0,362.0,324.0,0
-51.0,-248.0,-32.0,220.0,344.0,334.0,0
-55.0,-250.0,-29.0,225.0,326.0,345.0,0
-60.0,-249.0,-27.0,228.0,305.0,356.0,0
-60.0,-251.0,-26.0,227.0,285.0,370.0,0
-60.0,-252.0,-23.0,226.0,265.0,384.0,0
-61.0,-255.0,-24.0,220.0,246.0,399.0,0
-61.0,-258.0,-23.0,219.0,224.0,411.0,0
-62.0,-257.0,-23.0,218.0,202.0,422.0,0
-61.0,-259.0,-22.0,224.0,181.0,427.0,0
-57.0,-263.0,-20.0,232.0,160.0,429.0,0
-51.0,-266.0,-22.0,246.0,141.0,430.0,0
-54.0,-269.0,-22.0,266.0,124.0,423.0,0
-51.0,-271.0,-26.0,290.0,108.0,417.0,0
-49.0,-271.0,-21.0,319.0,92.0,409.0,0
-53.0,-269.0,-19.0,349.0,80.0,400.0,0
-49.0,-267.0,-19.0,377.0,75.0,385.0,0
-51.0,-265.0,-20.0,401.0,78.0,368.0,0
-47.0,-263.0,-25.0,430.0,91.0,348.0,0
-42.0,-259.0,-25.0,453.0,110.0,328.0,0
-40.0,-257.0,-24.0,472.0,128.0,302.0,0
-36.0,-250.0,-21.0,481.0,145.0,278.0,0
-33.0,-245.0,-25.0,484.0,162.0,250.0,0
-26.0,-243.0,-24.0,475.0,179.0,222.0,0
-29.0,-233.0,-25.0,454.0,191.0,200.0,0
-23.0,-228.0,-26.0,420.0,199.0,176.0,0
-22.0,-225.0,-29.0,380.0,206.0,154.0,0
-16.0,-223.0,-29.0,335.0,213.0,137.0,0
-16.0,-216.0,-33.0,283.0,221.0,118.0,0
-16.0,-215.0,-31.0,230.0,230.0,104.0,0
-14.0,-215.0,-27.0,181.0,244.0,93.0,0
-14.0,-213.0,-29.0,141.0,258.0,83.0,0
-11.0,-220.0,-24.0,112.0,274.0,77.0,0
-15.0,-219.0,-24.0,98.0,291.0,74.0,0
-16.0,-220.0,-19.0,102.0,306.0,73.0,0
-19.0,-221.0,-17.0,120.0,317.0,74.0,0
-26.0,-223.0,-13.0,145.0,328.0,76.0,0
-31.0,-227.0,-14.0,183.0,334.0,81.0,0
-39.0,-223.0,-13.0,220.0,339.0,85.0,0
-42.0,-229.0,-11.0,254.0,342.0,88.0,0
-50.0,-229.0,-9.0,285.0,338.0,91.0,0
-51.0,-232.0,-7.0,315.0,330.0,91.0,0
-53.0,-234.0,-7.0,340.0,319.0,93.0,0
-54.0,-234.0,-9.0,359.0,311.0,92.0,0
-51.0,-237.0,-9.0,376.0,306.0,90.0,0
-60.0,-238.0,-9.0,384.0,305.0,87.0,0
-60.0,-240.0,-5.0,387.0,307.0,80.0,0
-62.0,-244.0,-4.0,383.0,305.0,70.0,0
-61.0,-242.0,-4.0,373.0,304.0,56.0,0
-58.0,-243.0,4.0,360.0,302.0,41.0,0
-60.0,-246.0,3.0,342.0,302.0,21.0,0
-60.0,-241.0,5.0,322.0,310.0,0.0,0
-57.0,-247.0,8.0,304.0,323.0,-22.0,0
-56.0,-247.0,6.0,291.0,342.0,-42.0,0
-55.0,-246.0,8.0,283.0,362.0,-62.0,0
-59.0,-244.0,2.0,282.0,381.0,-81.0,0
-53.0,-242.0,8.0,278.0,391.0,-98.0,0
-50.0,-241.0,6.0,273.0,393.0,-113.0,0
-52.0,-235.0,3.0,270.0,390.0,-125.0,0
-46.0,-237.0,4.0,264.0,381.0,-134.0,0
-46.0,-232.0,4.0,251.0,370.0,-140.0,0
-45.0,-227.0,3.0,230.0,357.0,-143.0,0
-43.0,-225.0,3.0,204.0,342.0,-143.0,0
-45.0,-222.0,4.0,176.0,327.0,-141.0,0
-37.0,-224.0,5.0,143.0,316.0,-137.0,0
-43.0,-221.0,8.0,110.0,315.0,-130.0,0
-41.0,-225.0,6.0,76.0,319.0,-126.0,0
-37.0,-227.0,3.0,44.0,334.0,-123.0,0
-36.0,-227.0,5.0,10.0,354.0,-124.0,0
-42.0,-226.0,-7.0,-24.0,368.0,-124.0,0
-47.0,-226.0,-6.0,-62.0,377.0,-125.0,0
-52.0,-227.0,-12.0,-95.0,375.0,-122.0,0
-57.0,-223.0,-12.0,-124.0,360.0,-116.0,0
-63.0,-220.0,-17.0,-149.0,336.0,-108.0,0
-58.0,-217.0,-14.0,-165.0,308.0,-92.0,0
-67.0,-222.0,-16.0,-174.0,282.0,-74.0,0
-70.0,-219.0,-18.0,-176.0,263.0,-52.0,0
-67.0,-227.0,-16.0,-171.0,252.0,-26.0,0
-69.0,-228.0,-10.0,-165.0,252.0,-1.0,0
-67.0,-240.0,-12.0,-154.0,257.0,19.0,0
-74.0,-243.0,-10.0,-144.0,269.0,37.0,0
-73.0,-248.0,-4.0,-129.0,277.0,50.0,0
-77.0,-251.0,-1.0,-111.0,280.0,55.0,0
-77.0,-257.0,6.0,-86.0,272.0,58.0,0
-78.0,-266.0,8.0,-50.0,261.0,55.0,0
-80.0,-273.0,11.0,-16.0,244.0,49.0,0
-80.0,-273.0,16.0,36.0,230.0,38.0,0
-80.0,-288.0,21.0,93.0,216.0,28.0,0
-81.0,-291.0,24.0,152.0,206.0,13.0,0
-78.0,-299.0,23.0,212.0,188.0,-4.0,0
-75.0,-305.0,28.0,262.0,175.0,-11.0,0
-73.0,-312.0,30.0,302.0,158.0,-23.0,0
-72.0,-316.0,25.0,337.0,141.0,-35.0,0
-69.0,-318.0,17.0,361.0,125.0,-51.0,0
-65.0,-322.0,15.0,370.0,118.0,-63.0,0
-57.0,-328.0,13.0,368.0,119.0,-70.0,0
-52.0,-332.0,5.0,348.0,124.0,-82.0,0
-40.0,-341.0,5.0,317.0,134.0,-94.0,0
-39.0,-347.0,-8.0,274.0,146.0,-112.0,0
-30.0,-360.0,-7.0,222.0,166.0,-129.0,0
-26.0,-364.0,-7.0,161.0,196.0,-144.0,0
-24.0,-368.0,-10.0,97.0,228.0,-158.0,0
-26.0,-369.0,-15.0,41.0,263.0,-168.0,0
-28.0,-376.0,-9.0,-16.0,297.0,-165.0,0
-30.0,-376.0,-11.0,-69.0,321.0,-157.0,0
-31.0,-377.0,-7.0,-118.0,336.0,-154.0,0
-37.0,-373.0,-10.0,-162.0,347.0,-155.0,0
-40.0,-372.0,-8.0,-206.0,360.0,-160.0,0
-42.0,-371.0,-4.0,-238.0,372.0,-169.0,0
-45.0,-366.0,-4.0,-259.0,383.0,-181.0,0
-49.0,-360.0,7.0,-266.0,392.0,-194.0,0
-55.0,-357.0,4.0,-259.0,401.0,-205.0,0
-55.0,-356.0,5.0,-239.0,411.0,-214.0,0
-61.0,-348.0,2.0,-216.0,419.0,-222.0,0
-60.0,-342.0,-6.0,-195.0,426.0,-234.0,0
-63.0,-333.0,-12.0,-183.0,431.0,-246.0,0
-63.0,-325.0,-22.0,-185.0,435.0,-256.0,0
-60.0,-316.0,-26.0,-204.0,439.0,-268.0,0
-57.0,-312.0,-38.0,-240.0,447.0,-276.0,0
-55.0,-306.0,-47.0,-290.0,458.0,-287.0,0
-55.0,-298.0,-52.0,-352.0,473.0,-298.0,0
-52.0,-291.0,-56.0,-418.0,490.0,-307.0,0
-50.0,-288.0,-58.0,-477.0,509.0,-317.0,0
-51.0,-278.0,-61.0,-524.0,527.0,-325.0,0
-45.0,-273.0,-60.0,-554.0,545.0,-334.0,0
-42.0,-272.0,-55.0,-565.0,559.0,-341.0,0
-35.0,-265.0,-52.0,-554.0,572.0,-349.0,0
-23.0,-264.0,-49.0,-523.0,582.0,-357.0,0
-16.0,-258.0,-53.0,-477.0,593.0,-362.0,0
-11.0,-255.0,-46.0,-419.0,605.0,-376.0,0
-5.0,-251.0,-44.0,-349.0,619.0,-386.0,0
4.0,-249.0,-42.0,-272.0,632.0,-398.0,0
8.0,-245.0,-43.0,-189.0,639.0,-411.0,0
12.0,-239.0,-40.0,-101.0,643.0,-422.0,0
16.0,-239.0,-37.0,-12.0,643.0,-428.0,0
15.0,-234.0,-39.0,71.0,642.0,-437.0,0
19.0,-230.0,-43.0,139.0,642.0,-445.0,0
18.0,-229.0,-41.0,189.0,644.0,-450.0,0
10.0,-226.0,-48.0,215.0,644.0,-456.0,0
4.0,-222.0,-51.0,220.0,640.0,-465.0,0
2.0,-220.0,-47.0,204.0,630.0,-474.0,0
-1.0,-216.0,-48.0,167.0,612.0,-482.0,0
-6.0,-216.0,-52.0,119.0,589.0,-488.0,0
-8.0,-216.0,-48.0,62.0,569.0,-488.0,0
-12.0,-211.0,-51.0,7.0,551.0,-482.0,0
-13.0,-214.0,-54.0,-45.0,536.0,-473.0,0
-13.0,-215.0,-54.0,-89.0,528.0,-456.0,0
-15.0,-219.0,-56.0,-122.0,532.0,-439.0,0
-11.0,-223.0,-56.0,-145.0,550.0,-423.0,0
-11.0,-221.0,-52.0,-155.0,579.0,-405.0,0
-10.0,-228.0,-48.0,-149.0,613.0,-389.0,0
-8.0,-234.0,-47.0,-131.0,649.0,-375.0,0
-12.0,-236.0,-44.0,-104.0,688.0,-363.0,0
-16.0,-236.0,-45.0,-79.0,725.0,-349.0,0
-16.0,-236.0,-40.0,-47.0,761.0,-332.0,0
-18.0,-235.0,-38.0,-12.0,793.0,-309.0,0
-20.0,-235.0,-37.0,26.0,815.0,-289.0,0
-16.0,-232.0,-39.0,65.0,838.0,-266.0,0
-13.0,-234.0,-35.0,106.0,863.0,-245.0,0
-16.0,-227.0,-35.0,147.0,892.0,-230.0,0
-12.0,-224.0,-35.0,189.0,922.0,-217.0,0
-7.0,-220.0,-35.0,228.0,953.0,-207.0,0
-3.0,-218.0,-34.0,269.0,983.0,-201.0,0
-1.0,-207.0,-39.0,306.0,1010.0,-200.0,0
3.0,-205.0,-40.0,343.0,1027.0,-203.0,0
8.0,-203.0,-37.0,379.0,1038.0,-210.0,0
13.0,-200.0,-38.0,413.0,1043.0,-217.0,0
12.0,-198.0,-39.0,444.0,1042.0,-231.0,0
12.0,-195.0,-41.0,467.0,1038.0,-242.0,0
13.0,-194.0,-41.0,481.0,1029.0,-255.0,0
11.0,-193.0,-43.0,483.0,1016.0,-271.0,0
9.0,-192.0,-43.0,474.0,997.0,-281.0,0
9.0,-200.0,-44.0,454.0,973.0,-291.0,0
7.0,-202.0,-44.0,425.0,945.0,-300.0,0
4.0,-199.0,-42.0,390.0,922.0,-306.0,0
4.0,-202.0,-41.0,352.0,904.0,-311.0,0
12.0,-209.0,-38.0,316.0,897.0,-313.0,0
10.0,-211.0,-30.0,284.0,906.0,-313.0,0
11.0,-215.0,-25.0,259.0,925.0,-309.0,0
7.0,-214.0,-14.0,245.0,956.0,-306.0,0
8.0,-223.0,-24.0,236.0,993.0,-298.0,0
7.0,-224.0,-19.0,233.0,1030.0,-289.0,0
14.0,-220.0,-20.0,234.0,1062.0,-277.0,0
3.0,-230.0,-14.0,240.0,1083.0,-262.0,0
-2.0,-233.0,-10.0,251.0,1100.0,-246.0,0
-3.0,-234.0,-14.0,261.0,1106.0,-227.0,0
-8.0,-236.0,-10.0,274.0,1103.0,-208.0,0
-10.0,-238.0,-13.0,282.0,1094.0,-190.0,0
-11.0,-237.0,-11.0,286.0,1083.0,-173.0,0
-15.0,-238.0,-10.0,288.0,1064.0,-158.0,0
-15.0,-240.0,-10.0,290.0,1046.0,-150.0,0
-16.0,-239.0,-14.0,292.0,1027.0,-145.0,0
-16.0,-241.0,-11.0,291.0,1012.0,-146.0,0
-16.0,-240.0,-11.0,290.0,997.0,-150.0,0
-21.0,-241.0,-13.0,288.0,980.0,-161.0,0
-17.0,-237.0,-11.0,282.0,960.0,-175.0,0
-14.0,-239.0,-8.0,274.0,943.0,-193.0,0
-10.0,-238.0,-5.0,265.0,930.0,-211.0,0
-11.0,-240.0,-11.0,253.0,915.0,-231.0,0
-4.0,-238.0,-8.0,238.0,901.0,-253.0,0
-4.0,-239.0,-8.0,227.0,888.0,-275.0,0
1.0,-238.0,-4.0,218.0,880.0,-296.0,0
6.0,-231.0,-6.0,207.0,868.0,-319.0,0
7.0,-233.0,-7.0,201.0,856.0,-339.0,0
10.0,-234.0,-6.0,192.0,842.0,-353.0,0
7.0,-229.0,-7.0,183.0,825.0,-365.0,0
11.0,-230.0,-7.0,177.0,807.0,-374.0,0
13.0,-227.0,-7.0,171.0,789.0,-378.0,0
12.0,-224.0,-5.0,166.0,769.0,-382.0,0
16.0,-222.0,-10.0,161.0,751.0,-380.0,0
12.0,-219.0,-11.0,156.0,736.0,-378.0,0
16.0,-216.0,-7.0,152.0,726.0,-374.0,0
20.0,-219.0,-4.0,147.0,722.0,-367.0,0
21.0,-217.0,-8.0,141.0,725.0,-360.0,0
25.0,-217.0,-7.0,130.0,728.0,-349.0,0
25.0,-217.0,-4.0,117.0,730.0,-332.0,0
23.0,-216.0,-7.0,102.0,734.0,-310.0,0
27.0,-217.0,3.0,86.0,735.0,-283.0,0
23.0,-220.0,4.0,68.0,730.0,-255.0,0
21.0,-226.0,7.0,53.0,720.0,-222.0,0
19.0,-232.0,8.0,44.0,708.0,-185.0,0
18.0,-233.0,9.0,43.0,692.0,-146.0,0
16.0,-237.0,16.0,55.0,678.0,-111.0,0
13.0,-241.0,14.0,76.0,669.0,-80.0,0
14.0,-244.0,19.0,100.0,664.0,-52.0,0
16.0,-248.0,13.0,132.0,665.0,-25.0,0
15.0,-247.0,11.0,170.0,668.0,0.0,0
13.0,-246.0,13.0,211.0,673.0,25.0,0
10.0,-246.0,11.0,251.0,679.0,46.0,0
9.0,-245.0,14.0,286.0,683.0,65.0,0
7.0,-242.0,10.0,314.0,688.0,80.0,0
6.0,-243.0,13.0,337.0,693.0,95.0,0
7.0,-242.0,17.0,352.0,700.0,106.0,0
1.0,-237.0,14.0,365.0,706.0,113.0,0
1.0,-240.0,26.0,370.0,714.0,116.0,0
-2.0,-238.0,25.0,368.0,720.0,114.0,0
-4.0,-227.0,31.0,359.0,724.0,110.0,0
-3.0,-239.0,30.0,346.0,727.0,102.0,0
-4.0,-242.0,30.0,331.0,728.0,95.0,0
-3.0,-241.0,27.0,317.0,730.0,84.0,0
-1.0,-244.0,33.0,310.0,728.0,74.0,0
-1.0,-247.0,29.0,304.0,723.0,62.0,0
-1.0,-250.0,31.0,304.0,712.0,50.0,0
1.0,-247.0,29.0,309.0,698.0,39.0,0
3.0,-251.0,33.0,323.0,685.0,32.0,0
4.0,-254.0,33.0,342.0,672.0,28.0,0
1.0,-250.0,32.0,364.0,662.0,23.0,0
0.0,-250.0,32.0,387.0,654.0,18.0,0
-1.0,-250.0,29.0,408.0,649.0,13.0,0
-4.0,-247.0,26.0,424.0,644.0,9.0,0
-5.0,-250.0,27.0,437.0,643.0,5.0,0
-6.0,-250.0,26.0,445.0,642.0,0.0,0
-5.0,-248.0,33.0,445.0,644.0,-4.0,0
-7.0,-247.0,38.0,444.0,651.0,-12.0,0
-6.0,-245.0,37.0,444.0,662.0,-16.0,0
-3.0,-246.0,39.0,447.0,676.0,-26.0,0
-4.0,-244.0,41.0,456.0,690.0,-38.0,0
0.0,-245.0,41.0,462.0,706.0,-55.0,0
0.0,-246.0,37.0,469.0,722.0,-74.0,0
1.0,-246.0,34.0,470.0,735.0,-95.0,0
2.0,-247.0,32.0,462.0,745.0,-116.0,0
7.0,-247.0,29.0,444.0,750.0,-138.0,0
8.0,-249.0,20.0,416.0,753.0,-162.0,0
8.0,-249.0,22.0,380.0,754.0,-186.0,0
7.0,-251.0,21.0,335.0,754.0,-212.0,0
10.0,-254.0,11.0,283.0,755.0,-238.0,0
8.0,-254.0,10.0,223.0,759.0,-266.0,0
11.0,-254.0,9.0,166.0,761.0,-295.0,0
9.0,-255.0,8.0,113.0,761.0,-323.0,0
7.0,-254.0,5.0,69.0,760.0,-352.0,0
7.0,-256.0,1.0,33.0,753.0,-377.0,0
7.0,-261.0,4.0,3.0,740.0,-395.0,0
6.0,-257.0,1.0,-17.0,724.0,-413.0,0
4.0,-260.0,-1.0,-31.0,708.0,-426.0,0
5.0,-254.0,1.0,-43.0,690.0,-431.0,0
4.0,-255.0,-6.0,-63.0,670.0,-427.0,0
3.0,-256.0,-9.0,-92.0,650.0,-412.0,0
5.0,-255.0,-12.0,-120.0,631.0,-394.0,0
5.0,-253.0,-11.0,-143.0,604.0,-368.0,0
3.0,-248.0,-15.0,-162.0,575.0,-338.0,0
3.0,-247.0,-12.0,-172.0,537.0,-307.0,0
-3.0,-246.0,-13.0,-188.0,490.0,-268.0,0
-8.0,-246.0,-11.0,-211.0,442.0,-224.0,0
-13.0,-245.0,-17.0,-241.0,394.0,-178.0,0
-16.0,-248.0,-11.0,-275.0,352.0,-131.0,0
-17.0,-256.0,-11.0,-303.0,318.0,-86.0,0
-24.0,-258.0,-9.0,-325.0,290.0,-45.0,0
-32.0,-258.0,-4.0,-331.0,265.0,-7.0,0
-30.0,-264.0,-4.0,-322.0,250.0,24.0,0
-32.0,-268.0,-3.0,-298.0,240.0,51.0,0
-21.0,-278.0,-16.0,-263.0,240.0,76.0,0
-25.0,-280.0,-4.0,-224.0,252.0,99.0,0
-20.0,-284.0,-4.0,-177.0,276.0,115.0,0
-16.0,-283.0,-4.0,-129.0,313.0,127.0,0
-13.0,-291.0,-5.0,-77.0,352.0,128.0,0
-11.0,-287.0,-3.0,-37.0,386.0,123.0,0
-2.0,-283.0,-5.0,18.0,413.0,111.0,0
5.0,-280.0,-7.0,69.0,432.0,96.0,0
9.0,-273.0,-5.0,115.0,447.0,79.0,0
16.0,-269.0,-5.0,153.0,464.0,57.0,0
19.0,-261.0,-1.0,182.0,482.0,40.0,0
19.0,-254.0,-7.0,198.0,499.0,14.0,0
22.0,-249.0,-3.0,206.0,512.0,-13.0,0
22.0,-248.0,-2.0,204.0,521.0,-40.0,0
22.0,-238.0,-3.0,193.0,526.0,-65.0,0
27.0,-237.0,0.0,177.0,531.0,-88.0,0
26.0,-236.0,1.0,160.0,538.0,-112.0,0
25.0,-231.0,4.0,142.0,542.0,-135.0,0
24.0,-227.0,1.0,122.0,549.0,-155.0,0
22.0,-223.0,4.0,99.0,561.0,-168.0,0
20.0,-222.0,6.0,78.0,577.0,-180.0,0
16.0,-214.0,9.0,56.0,597.0,-187.0,0
12.0,-212.0,4.0,30.0,621.0,-186.0,0
9.0,-215.0,5.0,-1.0,648.0,-180.0,0
0.0,-216.0,8.0,-41.0,678.0,-171.0,0
-2.0,-221.0,5.0,-87.0,715.0,-158.0,0
-11.0,-224.0,8.0,-137.0,763.0,-141.0,0
-11.0,-228.0,11.0,-182.0,815.0,-121.0,0
-18.0,-238.0,13.0,-219.0,871.0,-103.0,0
-21.0,-243.0,20.0,-241.0,928.0,-88.0,0
-25.0,-253.0,21.0,-244.0,985.0,-71.0,0
-25.0,-258.0,24.0,-225.0,1041.0,-59.0,0
-30.0,-266.0,27.0,-192.0,1092.0,-49.0,0
-32.0,-277.0,31.0,-152.0,1139.0,-39.0,0
-37.0,-277.0,27.0,-107.0,1180.0,-31.0,0
-36.0,-280.0,33.0,-65.0,1211.0,-24.0,0
-38.0,-283.0,27.0,-29.0,1231.0,-18.0,0
-35.0,-284.0,25.0,3.0,1242.0,-10.0,0
-35.0,-281.0,21.0,26.0,1246.0,-6.0,0
-29.0,-286.0,19.0,40.0,1249.0,-2.0,0
-28.0,-276.0,13.0,44.0,1248.0,-4.0,0
-24.0,-273.0,14.0,47.0,1248.0,-8.0,0
-16.0,-269.0,10.0,45.0,1247.0,-16.0,0
-15.0,-267.0,8.0,39.0,1249.0,-30.0,0
-12.0,-262.0,9.0,24.0,1253.0,-46.0,0
-10.0,-258.0,6.0,9.0,1259.0,-63.0,0
-6.0,-252.0,9.0,-6.0,1268.0,-85.0,0
-4.0,-251.0,3.0,-20.0,1281.0,-108.0,0
-3.0,-248.0,5.0,-30.0,1300.0,-128.0,0
-2.0,-243.0,2.0,-32.0,1323.0,-147.0,0
-1.0,-241.0,6.0,-33.0,1351.0,-167.0,0
-2.0,-236.0,2.0,-28.0,1382.0,-184.0,0
-1.0,-234.0,6.0,-20.0,1413.0,-200.0,0
0.0,-231.0,2.0,-8.0,1446.0,-212.0,0
1.0,-219.0,0.0,-1.0,1476.0,-221.0,0
-5.0,-224.0,4.0,-3.0,1503.0,-230.0,0
-3.0,-221.0,0.0,-13.0,1529.0,-236.0,0
-4.0,-222.0,-3.0,-32.0,1557.0,-241.0,0
-9.0,-221.0,-2.0,-51.0,1585.0,-241.0,0
-11.0,-219.0,-1.0,-65.0,1610.0,-237.0,0
-15.0,-217.0,0.0,-74.0,1635.0,-234.0,0
-16.0,-219.0,3.0,-78.0,1657.0,-229.0,0
-15.0,-219.0,0.0,-77.0,1678.0,-220.0,0
-19.0,-219.0,4.0,-73.0,1706.0,-211.0,0
-16.0,-224.0,1.0,-67.0,1738.0,-202.0,0
-16.0,-224.0,1.0,-65.0,1774.0,-195.0,0
-19.0,-226.0,3.0,-63.0,1819.0,-191.0,0
-17.0,-230.0,0.0,-65.0,1866.0,-192.0,0
-17.0,-229.0,0.0,-66.0,1913.0,-191.0,0
-17.0,-235.0,-3.0,-71.0,1955.0,-194.0,0
-18.0,-237.0,-3.0,-79.0,1991.0,-201.0,0
-16.0,-243.0,-2.0,-84.0,2019.0,-205.0,0
-16.0,-243.0,-5.0,-86.0,2040.0,-214.0,0
-17.0,-246.0,-3.0,-83.0,2054.0,-224.0,0
-18.0,-247.0,1.0,-72.0,2062.0,-235.0,0
-20.0,-249.0,0.0,-55.0,2062.0,-247.0,0
-24.0,-250.0,-1.0,-30.0,2049.0,-259.0,0
-25.0,-252.0,1.0,-8.0,2030.0,-272.0,0
-29.0,-257.0,4.0,26.0,2005.0,-287.0,0
-35.0,-255.0,8.0,63.0,1980.0,-302.0,0
-39.0,-258.0,2.0,106.0,1960.0,-320.0,0
-41.0,-260.0,7.0,151.0,1938.0,-340.0,0
-47.0,-263.0,7.0,205.0,1921.0,-366.0,0
-49.0,-257.0,5.0,256.0,1912.0,-394.0,0
-51.0,-254.0,4.0,311.0,1909.0,-431.0,0
-51.0,-254.0,9.0,364.0,1912.0,-461.0,0
-56.0,-249.0,2.0,414.0,1919.0,-502.0,0
-52.0,-248.0,7.0,460.0,1929.0,-544.0,0
-52.0,-241.0,7.0,501.0,1943.0,-588.0,0
-52.0,-236.0,4.0,533.0,1961.0,-630.0,0
-47.0,-232.0,5.0,551.0,1981.0,-675.0,0
-44.0,-228.0,6.0,553.0,2008.0,-717.0,0
-40.0,-223.0,9.0,540.0,2041.0,-757.0,0
-34.0,-219.0,6.0,519.0,2080.0,-794.0,0
-32.0,-218.0,9.0,487.0,2122.0,-828.0,0
-27.0,-215.0,9.0,453.0,2164.0,-856.0,0
-26.0,-217.0,13.0,416.0,2207.0,-876.0,0
-30.0,-219.0,14.0,381.0,2244.0,-890.0,0
-25.0,-226.0,13.0,350.0,2271.0,-895.0,0
-25.0,-231.0,16.0,323.0,2291.0,-889.0,0
-19.0,-239.0,11.0,293.0,2304.0,-881.0,0
-15.0,-243.0,9.0,253.0,2310.0,-872.0,0
-15.0,-250.0,4.0,202.0,2310.0,-864.0,0
-10.0,-261.0,2.0,143.0,2304.0,-857.0,0
-10.0,-270.0,-1.0,91.0,2307.0,-849.0,0
-4.0,-279.0,-5.0,54.0,2320.0,-834.0,0
-4.0,-286.0,-11.0,24.0,2322.0,-813.0,0
2.0,-299.0,-16.0,-5.0,2296.0,-780.0,0
6.0,-307.0,-18.0,-42.0,2255.0,-733.0,0
10.0,-308.0,-43.0,-80.0,2215.0,-673.0,0
13.0,-319.0,-15.0,-118.0,2183.0,-613.0,0
7.0,-322.0,-8.0,-143.0,2155.0,-555.0,0
3.0,-321.0,-2.0,-151.0,2115.0,-502.0,0
-8.0,-314.0,8.0,-125.0,2060.0,-451.0,0
-14.0,-306.0,17.0,-65.0,1994.0,-401.0,0
-17.0,-294.0,23.0,36.0,1917.0,-353.0,0
-16.0,-282.0,30.0,161.0,1831.0,-313.0,0
-16.0,-270.0,31.0,295.0,1741.0,-288.0,0
-13.0,-260.0,36.0,419.0,1665.0,-281.0,0
-8.0,-251.0,35.0,522.0,1613.0,-292.0,0
-4.0,-245.0,33.0,604.0,1588.0,-314.0,0
-1.0,-237.0,25.0,659.0,1588.0,-344.0,0
5.0,-228.0,25.0,687.0,1605.0,-385.0,0
10.0,-228.0,18.0,690.0,1637.0,-427.0,0
13.0,-219.0,10.0,656.0,1670.0,-473.0,0
18.0,-216.0,6.0,583.0,1698.0,-518.0,0
22.0,-214.0,1.0,473.0,1721.0,-567.0,0
30.0,-212.0,0.0,343.0,1740.0,-618.0,0
33.0,-211.0,-2.0,213.0,1759.0,-670.0,0
43.0,-214.0,5.0,93.0,1777.0,-717.0,0
44.0,-219.0,9.0,-8.0,1799.0,-759.0,0
47.0,-219.0,8.0,-89.0,1820.0,-799.0,0
50.0,-227.0,8.0,-142.0,1841.0,-829.0,0
48.0,-231.0,10.0,-177.0,1859.0,-851.0,0
50.0,-240.0,8.0,-196.0,1872.0,-864.0,0
47.0,-243.0,9.0,-200.0,1875.0,-868.0,0
48.0,-248.0,11.0,-196.0,1866.0,-864.0,0
47.0,-256.0,16.0,-180.0,1844.0,-850.0,0
44.0,-263.0,21.0,-155.0,1814.0,-828.0,0
38.0,-268.0,18.0,-121.0,1779.0,-797.0,0
37.0,-276.0,22.0,-79.0,1743.0,-760.0,0
29.0,-281.0,23.0,-27.0,1709.0,-719.0,0
28.0,-285.0,20.0,28.0,1678.0,-680.0,0
23.0,-285.0,21.0,89.0,1654.0,-646.0,0
25.0,-287.0,24.0,149.0,1637.0,-625.0,0
27.0,-284.0,21.0,207.0,1627.0,-612.0,0
28.0,-278.0,24.0,259.0,1625.0,-607.0,0
27.0,-273.0,14.0,296.0,1630.0,-606.0,0
31.0,-266.0,15.0,320.0,1644.0,-609.0,0
30.0,-260.0,17.0,327.0,1664.0,-614.0,0
28.0,-253.0,11.0,315.0,1682.0,-618.0,0
25.0,-246.0,10.0,285.0,1697.0,-620.0,0
25.0,-239.0,11.0,244.0,1706.0,-621.0,0
22.0,-235.0,11.0,198.0,1706.0,-621.0,0
16.0,-232.0,14.0,147.0,1696.0,-622.0,0
17.0,-226.0,11.0,101.0,1674.0,-622.0,0
9.0,-224.0,17.0,55.0,1641.0,-623.0,0
6.0,-221.0,17.0,15.0,1602.0,-624.0,0
4.0,-219.0,22.0,-16.0,1557.0,-626.0,0
4.0,-219.0,22.0,-55.0,1510.0,-627.0,0
1.0,-219.0,22.0,-93.0,1462.0,-628.0,0
0.0,-219.0,23.0,-134.0,1423.0,-624.0,0
-1.0,-221.0,25.0,-171.0,1375.0,-619.0,0
2.0,-227.0,26.0,-201.0,1333.0,-607.0,0
6.0,-233.0,28.0,-222.0,1299.0,-594.0,0
2.0,-234.0,30.0,-232.0,1271.0,-582.0,0
4.0,-237.0,29.0,-229.0,1250.0,-566.0,0
1.0,-239.0,32.0,-217.0,1233.0,-549.0,0
5.0,-244.0,32.0,-198.0,1219.0,-536.0,0
6.0,-245.0,29.0,-175.0,1206.0,-521.0,0
5.0,-246.0,30.0,-152.0,1197.0,-507.0,0
8.0,-247.0,27.0,-127.0,1190.0,-493.0,0
6.0,-247.0,27.0,-105.0,1188.0,-482.0,0
5.0,-248.0,26.0,-82.0,1188.0,-472.0,0
6.0,-245.0,30.0,-61.0,1187.0,-462.0,0
8.0,-247.0,28.0,-42.0,1188.0,-455.0,0
11.0,-248.0,30.0,-21.0,1188.0,-447.0,0
14.0,-248.0,32.0,-5.0,1184.0,-440.0,0
17.0,-248.0,36.0,11.0,1177.0,-434.0,0
21.0,-247.0,35.0,25.0,1166.0,-427.0,0
23.0,-247.0,32.0,35.0,1153.0,-421.0,0
22.0,-246.0,30.0,42.0,1139.0,-414.0,0
23.0,-246.0,31.0,43.0,1119.0,-405.0,0
23.0,-243.0,30.0,40.0,1095.0,-394.0,0
27.0,-243.0,33.0,33.0,1069.0,-381.0,0
25.0,-240.0,29.0,22.0,1043.0,-368.0,0
27.0,-241.0,35.0,9.0,1019.0,-355.0,0
28.0,-242.0,33.0,-5.0,995.0,-341.0,0
28.0,-240.0,34.0,-18.0,971.0,-327.0,0
26.0,-241.0,40.0,-29.0,946.0,-312.0,0
22.0,-240.0,39.0,-35.0,923.0,-296.0,0
23.0,-241.0,45.0,-37.0,905.0,-282.0,0
21.0,-241.0,45.0,-33.0,890.0,-268.0,0
16.0,-238.0,45.0,-28.0,881.0,-256.0,0
16.0,-238.0,42.0,-21.0,875.0,-244.0,0
18.0,-240.0,40.0,-13.0,874.0,-234.0,0
19.0,-239.0,38.0,-7.0,876.0,-226.0,0
14.0,-234.0,38.0,-4.0,876.0,-220.0,0
16.0,-233.0,35.0,-7.0,874.0,-216.0,0
16.0,-235.0,31.0,-15.0,870.0,-213.0,0
15.0,-232.0,30.0,-23.0,863.0,-211.0,0
14.0,-235.0,29.0,-31.0,853.0,-211.0,0
13.0,-233.0,33.0,-40.0,839.0,-211.0,0
12.0,-235.0,31.0,-49.0,823.0,-211.0,0
13.0,-234.0,37.0,-54.0,802.0,-209.0,0
11.0,-238.0,34.0,-55.0,778.0,-206.0,0
8.0,-236.0,36.0,-56.0,749.0,-203.0,0
9.0,-234.0,35.0,-54.0,719.0,-198.0,0
11.0,-236.0,40.0,-49.0,684.0,-192.0,0
10.0,-236.0,43.0,-40.0,651.0,-183.0,0
9.0,-233.0,53.0,-30.0,621.0,-174.0,0
11.0,-234.0,53.0,-16.0,592.0,-162.0,0
14.0,-235.0,47.0,-2.0,567.0,-150.0,0
11.0,-239.0,58.0,12.0,544.0,-137.0,0
14.0,-241.0,57.0,22.0,525.0,-126.0,0
12.0,-241.0,55.0,32.0,509.0,-113.0,0
11.0,-239.0,56.0,41.0,495.0,-100.0,0
10.0,-240.0,52.0,48.0,484.0,-88.0,0
13.0,-245.0,58.0,55.0,473.0,-79.0,0
16.0,-243.0,55.0,59.0,460.0,-69.0,0
16.0,-243.0,53.0,63.0,445.0,-56.0,0
15.0,-236.0,53.0,62.0,429.0,-42.0,0
11.0,-233.0,55.0,63.0,410.0,-24.0,0
11.0,-234.0,51.0,63.0,391.0,-5.0,0
8.0,-233.0,50.0,65.0,371.0,16.0,0
8.0,-230.0,44.0,67.0,347.0,37.0,0
7.0,-231.0,45.0,68.0,326.0,56.0,0
4.0,-227.0,48.0,70.0,308.0,73.0,0
2.0,-224.0,49.0,74.0,293.0,89.0,0
3.0,-224.0,48.0,80.0,280.0,106.0,0
0.0,-225.0,56.0,88.0,272.0,120.0,0
1.0,-225.0,54.0,100.0,267.0,136.0,0
2.0,-227.0,57.0,116.0,264.0,148.0,0
4.0,-230.0,56.0,135.0,264.0,158.0,0
7.0,-232.0,57.0,156.0,260.0,163.0,0
9.0,-233.0,57.0,178.0,258.0,165.0,0
11.0,-235.0,58.0,199.0,254.0,164.0,0
10.0,-237.0,59.0,213.0,247.0,160.0,0
14.0,-240.0,58.0,223.0,235.0,149.0,0
18.0,-243.0,59.0,228.0,218.0,134.0,0
20.0,-249.0,56.0,227.0,201.0,115.0,0
22.0,-251.0,55.0,222.0,182.0,95.0,0
24.0,-254.0,57.0,214.0,166.0,74.0,0
24.0,-259.0,57.0,210.0,148.0,55.0,0
28.0,-265.0,54.0,208.0,129.0,35.0,0
31.0,-267.0,52.0,210.0,113.0,20.0,0
29.0,-271.0,55.0,215.0,101.0,-1.0,0
32.0,-273.0,54.0,222.0,95.0,-21.0,0
34.0,-275.0,52.0,232.0,95.0,-43.0,0
35.0,-278.0,48.0,242.0,99.0,-64.0,0
39.0,-283.0,51.0,248.0,111.0,-86.0,0
33.0,-283.0,51.0,257.0,124.0,-104.0,0
34.0,-283.0,48.0,265.0,139.0,-125.0,0
32.0,-287.0,49.0,276.0,157.0,-142.0,0
29.0,-289.0,53.0,289.0,167.0,-162.0,0
28.0,-287.0,52.0,306.0,174.0,-182.0,0
27.0,-285.0,50.0,327.0,175.0,-202.0,0
26.0,-284.0,48.0,352.0,181.0,-222.0,0
32.0,-283.0,44.0,379.0,191.0,-241.0,0
32.0,-276.0,46.0,407.0,203.0,-259.0,0
33.0,-268.0,43.0,434.0,219.0,-275.0,0
33.0,-261.0,42.0,456.0,238.0,-288.0,0
38.0,-253.0,35.0,473.0,255.0,-297.0,0
37.0,-245.0,36.0,479.0,273.0,-306.0,0
35.0,-234.0,31.0,472.0,294.0,-311.0,0
37.0,-226.0,32.0,450.0,310.0,-312.0,0
38.0,-221.0,29.0,415.0,323.0,-306.0,0
36.0,-212.0,30.0,366.0,331.0,-295.0,0
37.0,-209.0,34.0,310.0,337.0,-276.0,0
33.0,-209.0,26.0,247.0,334.0,-250.0,0
27.0,-203.0,28.0,182.0,328.0,-215.0,0
25.0,-206.0,23.0,116.0,318.0,-172.0,0
25.0,-215.0,23.0,52.0,307.0,-123.0,0
21.0,-218.0,28.0,-9.0,297.0,-71.0,0
18.0,-228.0,24.0,-62.0,286.0,-16.0,0
16.0,-235.0,24.0,-102.0,277.0,41.0,0
13.0,-244.0,23.0,-124.0,267.0,97.0,0
15.0,-250.0,21.0,-129.0,258.0,148.0,0
13.0,-251.0,18.0,-117.0,254.0,189.0,0
10.0,-253.0,18.0,-92.0,251.0,226.0,0
6.0,-254.0,15.0,-56.0,244.0,259.0,0
2.0,-257.0,11.0,-15.0,233.0,288.0,0
-2.0,-256.0,8.0,24.0,218.0,308.0,0
-5.0,-258.0,4.0,58.0,201.0,320.0,0
-9.0,-257.0,0.0,81.0,184.0,327.0,0
-13.0,-255.0,-5.0,95.0,169.0,326.0,0
-14.0,-258.0,-3.0,99.0,156.0,318.0,0
-23.0,-259.0,-1.0,98.0,148.0,308.0,0
-29.0,-255.0,4.0,92.0,142.0,295.0,0
-32.0,-259.0,3.0,85.0,143.0,279.0,0
-39.0,-261.0,7.0,78.0,143.0,259.0,0
-39.0,-261.0,10.0,73.0,148.0,234.0,0
-41.0,-265.0,18.0,74.0,156.0,211.0,0
-43.0,-260.0,18.0,82.0,167.0,188.0,0
-42.0,-262.0,20.0,98.0,182.0,164.0,0
-41.0,-261.0,20.0,115.0,199.0,142.0,0
-38.0,-265.0,24.0,130.0,213.0,122.0,0
-37.0,-257.0,26.0,147.0,223.0,106.0,0
-37.0,-260.0,24.0,161.0,228.0,96.0,0
-32.0,-255.0,26.0,167.0,226.0,88.0,0
-32.0,-257.0,22.0,166.0,220.0,83.0,0
-28.0,-252.0,23.0,156.0,216.0,81.0,0
-22.0,-249.0,23.0,138.0,217.0,80.0,0
-16.0,-249.0,29.0,118.0,222.0,82.0,0
-12.0,-246.0,28.0,94.0,232.0,84.0,0
-8.0,-240.0,30.0,70.0,247.0,88.0,0
-2.0,-245.0,31.0,48.0,262.0,96.0,0
0.0,-241.0,37.0,29.0,279.0,101.0,0
1.0,-238.0,37.0,13.0,295.0,107.0,0
3.0,-234.0,39.0,5.0,312.0,114.0,0
2.0,-235.0,46.0,2.0,325.0,121.0,0
-1.0,-236.0,48.0,7.0,339.0,130.0,0
0.0,-240.0,50.0,16.0,348.0,140.0,0
0.0,-237.0,46.0,27.0,355.0,148.0,0
-1.0,-243.0,48.0,46.0,358.0,157.0,0
-1.0,-243.0,46.0,68.0,359.0,162.0,0
-4.0,-245.0,43.0,87.0,358.0,162.0,0
-6.0,-245.0,43.0,108.0,359.0,164.0,0
-8.0,-245.0,41.0,127.0,365.0,165.0,0
-8.0,-243.0,44.0,143.0,368.0,165.0,0
-12.0,-243.0,39.0,159.0,370.0,162.0,0
-16.0,-243.0,43.0,172.0,371.0,159.0,0
-19.0,-240.0,39.0,182.0,371.0,153.0,0
-18.0,-239.0,38.0,187.0,372.0,147.0,0
-21.0,-237.0,39.0,188.0,375.0,143.0,0
-25.0,-235.0,39.0,185.0,377.0,138.0,0
-25.0,-237.0,40.0,176.0,380.0,133.0,0
-27.0,-230.0,40.0,160.0,384.0,125.0,0
-27.0,-230.0,42.0,139.0,393.0,117.0,0
-31.0,-232.0,39.0,116.0,400.0,108.0,0
-29.0,-233.0,42.0,88.0,411.0,98.0,0
-28.0,-232.0,42.0,65.0,420.0,90.0,0
-30.0,-231.0,48.0,46.0,428.0,81.0,0
-30.0,-232.0,49.0,32.0,430.0,75.0,0
-32.0,-234.0,49.0,26.0,427.0,70.0,0
-31.0,-236.0,53.0,27.0,422.0,65.0,0
-29.0,-237.0,55.0,36.0,416.0,62.0,0
-27.0,-240.0,55.0,52.0,414.0,60.0,0
-26.0,-240.0,51.0,72.0,412.0,54.0,0
-29.0,-242.0,55.0,97.0,417.0,51.0,0
-26.0,-243.0,55.0,121.0,426.0,46.0,0
-26.0,-236.0,55.0,145.0,436.0,42.0,0
-24.0,-238.0,53.0,166.0,445.0,37.0,0
-21.0,-238.0,50.0,185.0,452.0,32.0,0
-24.0,-236.0,56.0,200.0,457.0,28.0,0
-20.0,-236.0,57.0,209.0,459.0,22.0,0
-24.0,-230.0,54.0,213.0,463.0,16.0,0
-20.0,-230.0,54.0,215.0,467.0,8.0,0
-23.0,-228.0,51.0,213.0,468.0,1.0,0
-25.0,-231.0,51.0,204.0,466.0,-6.0,0
-27.0,-227.0,53.0,196.0,464.0,-16.0,0
-27.0,-227.0,48.0,185.0,458.0,-27.0,0
-22.0,-226.0,51.0,172.0,452.0,-35.0,0
-27.0,-225.0,53.0,161.0,441.0,-46.0,0
-27.0,-226.0,50.0,149.0,430.0,-55.0,0
-27.0,-227.0,51.0,137.0,418.0,-61.0,0
-25.0,-225.0,52.0,124.0,406.0,-69.0,0
-26.0,-223.0,52.0,112.0,398.0,-75.0,0
-23.0,-226.0,54.0,98.0,395.0,-80.0,0
-26.0,-222.0,55.0,85.0,394.0,-83.0,0
-24.0,-223.0,60.0,70.0,394.0,-85.0,0
-24.0,-223.0,55.0,58.0,399.0,-87.0,0
-28.0,-226.0,57.0,50.0,402.0,-86.0,0
-23.0,-228.0,60.0,41.0,406.0,-84.0,0
-25.0,-231.0,56.0,35.0,408.0,-83.0,0
-27.0,-230.0,60.0,34.0,411.0,-79.0,0
-26.0,-228.0,62.0,38.0,410.0,-76.0,0
-25.0,-230.0,60.0,43.0,406.0,-72.0,0
-25.0,-230.0,64.0,52.0,403.0,-69.0,0
-25.0,-228.0,66.0,60.0,400.0,-65.0,0
-28.0,-228.0,67.0,64.0,397.0,-64.0,0
-28.0,-230.0,66.0,69.0,392.0,-65.0,0
-26.0,-228.0,74.0,74.0,387.0,-61.0,0
-29.0,-229.0,65.0,76.0,380.0,-61.0,0
-31.0,-227.0,68.0,78.0,370.0,-60.0,0
-34.0,-224.0,72.0,76.0,355.0,-61.0,0
-32.0,-224.0,63.0,76.0,340.0,-62.0,0
-37.0,-225.0,69.0,72.0,324.0,-63.0,0
-32.0,-224.0,69.0,67.0,311.0,-65.0,0
-33.0,-225.0,67.0,62.0,303.0,-70.0,0
-37.0,-222.0,72.0,57.0,300.0,-77.0,0
-33.0,-225.0,74.0,54.0,304.0,-87.0,0
-32.0,-225.0,76.0,54.0,311.0,-99.0,0
-31.0,-219.0,73.0,58.0,319.0,-111.0,0
-30.0,-223.0,75.0,64.0,330.0,-123.0,0
-28.0,-223.0,78.0,73.0,339.0,-139.0,0
-26.0,-225.0,76.0,81.0,348.0,-150.0,0
-24.0,-219.0,77.0,93.0,355.0,-164.0,0
-23.0,-217.0,77.0,107.0,361.0,-177.0,0
-22.0,-216.0,75.0,116.0,366.0,-190.0,0
-21.0,-214.0,72.0,120.0,374.0,-202.0,0
-19.0,-212.0,71.0,121.0,383.0,-214.0,0
-16.0,-209.0,72.0,117.0,387.0,-225.0,0
-16.0,-209.0,70.0,109.0,392.0,-237.0,0
-16.0,-209.0,69.0,98.0,395.0,-247.0,0
-16.0,-207.0,69.0,85.0,398.0,-255.0,0
-16.0,-210.0,70.0,69.0,402.0,-264.0,0
-17.0,-208.0,70.0,52.0,402.0,-269.0,0
-16.0,-208.0,65.0,35.0,403.0,-273.0,0
-18.0,-211.0,64.0,18.0,401.0,-275.0,0
-16.0,-213.0,63.0,3.0,398.0,-277.0,0
-16.0,-210.0,65.0,-7.0,393.0,-279.0,0
-16.0,-213.0,71.0,-14.0,387.0,-279.0,0
-17.0,-209.0,70.0,-16.0,383.0,-280.0,0
-14.0,-213.0,72.0,-14.0,383.0,-279.0,0
-15.0,-215.0,69.0,-9.0,388.0,-279.0,0
-19.0,-213.0,65.0,-1.0,394.0,-277.0,0
-17.0,-218.0,59.0,8.0,399.0,-273.0,0
-23.0,-216.0,60.0,14.0,399.0,-267.0,0
-24.0,-219.0,57.0,16.0,396.0,-259.0,0
-26.0,-215.0,54.0,19.0,387.0,-250.0,0
-31.0,-217.0,53.0,21.0,377.0,-242.0,0
-35.0,-217.0,51.0,28.0,366.0,-235.0,0
-37.0,-218.0,48.0,39.0,354.0,-231.0,0
-35.0,-221.0,53.0,54.0,350.0,-229.0,0
-35.0,-222.0,54.0,77.0,343.0,-229.0,0
-35.0,-226.0,53.0,105.0,335.0,-230.0,0
-33.0,-225.0,55.0,133.0,324.0,-232.0,0
-33.0,-228.0,56.0,165.0,317.0,-232.0,0
-29.0,-231.0,54.0,196.0,310.0,-232.0,0
-27.0,-228.0,60.0,229.0,307.0,-230.0,0
-24.0,-228.0,61.0,260.0,305.0,-229.0,0
-24.0,-228.0,56.0,289.0,304.0,-230.0,0
-22.0,-231.0,56.0,317.0,299.0,-228.0,0
-23.0,-230.0,62.0,341.0,292.0,-232.0,0
-21.0,-227.0,60.0,361.0,279.0,-237.0,0
-20.0,-224.0,57.0,381.0,262.0,-245.0,0
-16.0,-224.0,58.0,399.0,247.0,-257.0,0
-19.0,-215.0,57.0,412.0,233.0,-271.0,0
-16.0,-213.0,59.0,419.0,219.0,-287.0,0
-16.0,-206.0,60.0,419.0,203.0,-304.0,0
-18.0,-200.0,60.0,418.0,187.0,-317.0,0
-18.0,-197.0,65.0,419.0,167.0,-328.0,0
-23.0,-193.0,66.0,420.0,146.0,-333.0,0
-28.0,-191.0,65.0,422.0,123.0,-333.0,0
-26.0,-188.0,67.0,424.0,103.0,-333.0,0
-27.0,-194.0,70.0,421.0,90.0,-326.0,0
-34.0,-192.0,71.0,410.0,83.0,-319.0,0
-34.0,-194.0,74.0,391.0,81.0,-311.0,0
-30.0,-199.0,72.0,365.0,84.0,-302.0,0
-28.0,-199.0,74.0,336.0,87.0,-292.0,0
-27.0,-202.0,75.0,303.0,92.0,-280.0,0
-23.0,-202.0,75.0,272.0,93.0,-270.0,0
-18.0,-205.0,78.0,241.0,96.0,-262.0,0
-16.0,-207.0,83.0,212.0,103.0,-259.0,0
-15.0,-208.0,84.0,193.0,114.0,-258.0,0
-13.0,-209.0,89.0,183.0,129.0,-264.0,0
-9.0,-210.0,89.0,180.0,143.0,-278.0,0
-11.0,-211.0,86.0,183.0,159.0,-298.0,0
-5.0,-212.0,88.0,188.0,167.0,-327.0,0
-7.0,-211.0,87.0,197.0,168.0,-361.0,0
-5.0,-213.0,85.0,198.0,163.0,-399.0,0
-2.0,-216.0,86.0,195.0,153.0,-438.0,0
-5.0,-213.0,82.0,181.0,140.0,-473.0,0
1.0,-212.0,74.0,148.0,129.0,-506.0,0
1.0,-211.0,72.0,96.0,120.0,-533.0,0
11.0,-210.0,72.0,27.0,120.0,-553.0,0
7.0,-203.0,69.0,-49.0,127.0,-561.0,0
15.0,-204.0,69.0,-128.0,137.0,-562.0,0
16.0,-202.0,69.0,-198.0,150.0,-555.0,0
16.0,-199.0,71.0,-252.0,163.0,-540.0,0
17.0,-203.0,75.0,-282.0,181.0,-521.0,0
16.0,-199.0,80.0,-291.0,203.0,-496.0,0
12.0,-205.0,85.0,-280.0,227.0,-471.0,0
8.0,-206.0,91.0,-250.0,250.0,-444.0,0
4.0,-213.0,93.0,-206.0,271.0,-419.0,0
-3.0,-218.0,95.0,-154.0,284.0,-396.0,0
-10.0,-223.0,99.0,-103.0,288.0,-379.0,0
-11.0,-228.0,99.0,-52.0,280.0,-367.0,0
-16.0,-233.0,99.0,-6.0,265.0,-359.0,0
-16.0,-241.0,95.0,31.0,244.0,-361.0,0
-20.0,-238.0,90.0,53.0,221.0,-369.0,0
-20.0,-238.0,82.0,61.0,197.0,-380.0,0
-17.0,-235.0,79.0,52.0,176.0,-393.0,0
-24.0,-226.0,73.0,26.0,159.0,-404.0,0
-17.0,-222.0,64.0,-9.0,152.0,-412.0,0
-16.0,-208.0,61.0,-55.0,155.0,-416.0,0
-15.0,-204.0,64.0,-109.0,164.0,-411.0,0
-14.0,-200.0,59.0,-163.0,180.0,-401.0,0
-14.0,-194.0,59.0,-214.0,201.0,-388.0,0
-14.0,-193.0,64.0,-255.0,218.0,-373.0,0
-11.0,-190.0,75.0,-283.0,237.0,-350.0,0
-12.0,-191.0,75.0,-290.0,255.0,-326.0,0
-14.0,-192.0,80.0,-276.0,267.0,-301.0,0
-16.0,-195.0,84.0,-246.0,270.0,-277.0,0
-19.0,-198.0,94.0,-201.0,262.0,-255.0,0
-28.0,-207.0,98.0,-151.0,241.0,-237.0,0
-31.0,-210.0,100.0,-97.0,205.0,-219.0,0
-33.0,-216.0,104.0,-42.0,155.0,-204.0,0
-36.0,-217.0,102.0,7.0,100.0,-197.0,0
-32.0,-224.0,100.0,43.0,42.0,-195.0,0
-32.0,-223.0,95.0,63.0,-13.0,-197.0,0
-25.0,-222.0,86.0,68.0,-59.0,-202.0,0
-22.0,-214.0,78.0,53.0,-92.0,-207.0,0
-16.0,-211.0,71.0,22.0,-111.0,-211.0,0
-13.0,-210.0,70.0,-27.0,-111.0,-211.0,0
-6.0,-205.0,66.0,-85.0,-98.0,-207.0,0
0.0,-202.0,65.0,-143.0,-72.0,-199.0,0
-2.0,-201.0,68.0,-197.0,-37.0,-187.0,0
1.0,-197.0,75.0,-238.0,-5.0,-172.0,0
-3.0,-194.0,74.0,-263.0,24.0,-150.0,0
-5.0,-198.0,87.0,-268.0,37.0,-125.0,0
-9.0,-198.0,93.0,-253.0,36.0,-99.0,0
-9.0,-197.0,97.0,-222.0,27.0,-74.0,0
-14.0,-197.0,99.0,-180.0,14.0,-51.0,0
-16.0,-198.0,101.0,-137.0,2.0,-32.0,0
-24.0,-197.0,102.0,-99.0,-13.0,-17.0,0
-24.0,-196.0,98.0,-72.0,-34.0,-5.0,0
-25.0,-191.0,88.0,-61.0,-64.0,5.0,0
-19.0,-189.0,77.0,-78.0,-100.0,7.0,0
-16.0,-183.0,66.0,-124.0,-136.0,7.0,0
-15.0,-176.0,58.0,-203.0,-171.0,8.0,0
-8.0,-175.0,46.0,-305.0,-203.0,6.0,0
-2.0,-172.0,41.0,-416.0,-230.0,6.0,0
3.0,-166.0,42.0,-528.0,-248.0,6.0,0
6.0,-161.0,44.0,-622.0,-255.0,9.0,0
7.0,-163.0,51.0,-695.0,-254.0,18.0,0
7.0,-164.0,60.0,-740.0,-246.0,34.0,0
5.0,-167.0,68.0,-754.0,-233.0,54.0,0
4.0,-170.0,71.0,-740.0,-218.0,75.0,0
-1.0,-178.0,81.0,-696.0,-196.0,94.0,0
-10.0,-184.0,91.0,-622.0,-169.0,114.0,0
-15.0,-188.0,101.0,-520.0,-138.0,129.0,0
-21.0,-201.0,102.0,-400.0,-116.0,146.0,0
-21.0,-206.0,104.0,-274.0,-113.0,166.0,0
-23.0,-215.0,102.0,-147.0,-133.0,178.0,0
-23.0,-217.0,88.0,-40.0,-163.0,188.0,0
-21.0,-224.0,77.0,40.0,-197.0,195.0,0
-19.0,-229.0,67.0,83.0,-230.0,202.0,0
-18.0,-240.0,53.0,86.0,-253.0,213.0,0
-13.0,-251.0,48.0,59.0,-266.0,226.0,0
-8.0,-264.0,45.0,-1.0,-270.0,243.0,0
-3.0,-284.0,43.0,-83.0,-264.0,260.0,0
2.0,-303.0,52.0,-173.0,-262.0,278.0,0
7.0,-327.0,56.0,-263.0,-263.0,303.0,0
16.0,-352.0,62.0,-338.0,-267.0,331.0,0
21.0,-379.0,69.0,-393.0,-269.0,365.0,0
22.0,-408.0,82.0,-413.0,-273.0,397.0,0
24.0,-436.0,90.0,-392.0,-275.0,420.0,0
20.0,-458.0,102.0,-325.0,-278.0,444.0,0
15.0,-476.0,110.0,-211.0,-285.0,455.0,0
10.0,-483.0,117.0,-53.0,-301.0,452.0,0
5.0,-483.0,121.0,140.0,-331.0,435.0,0
3.0,-467.0,123.0,357.0,-373.0,392.0,0
2.0,-439.0,123.0,587.0,-418.0,332.0,0
1.0,-384.0,119.0,819.0,-460.0,265.0,0
2.0,-348.0,108.0,1032.0,-488.0,199.0,0
8.0,-313.0,96.0,1208.0,-506.0,138.0,0
14.0,-278.0,81.0,1333.0,-512.0,88.0,0
23.0,-250.0,64.0,1388.0,-507.0,50.0,0
27.0,-224.0,57.0,1356.0,-487.0,26.0,0
35.0,-206.0,47.0,1248.0,-452.0,16.0,0
41.0,-196.0,49.0,1062.0,-406.0,16.0,0
46.0,-195.0,49.0,820.0,-356.0,29.0,0
43.0,-194.0,51.0,542.0,-305.0,49.0,0
40.0,-196.0,61.0,258.0,-260.0,79.0,0
29.0,-212.0,72.0,-10.0,-219.0,117.0,0
14.0,-220.0,79.0,-234.0,-188.0,158.0,0
2.0,-230.0,85.0,-408.0,-173.0,193.0,0
-9.0,-235.0,92.0,-527.0,-175.0,227.0,0
-14.0,-240.0,95.0,-590.0,-197.0,256.0,0
-19.0,-236.0,100.0,-604.0,-237.0,285.0,0
-27.0,-230.0,99.0,-579.0,-292.0,307.0,0
-27.0,-221.0,99.0,-527.0,-355.0,324.0,0
-24.0,-219.0,94.0,-459.0,-422.0,335.0,0
-25.0,-207.0,90.0,-389.0,-489.0,338.0,0
-27.0,-199.0,82.0,-328.0,-548.0,332.0,0
-24.0,-194.0,70.0,-282.0,-594.0,320.0,0
-21.0,-192.0,68.0,-253.0,-627.0,297.0,0
-16.0,-187.0,65.0,-246.0,-639.0,262.0,0
-11.0,-187.0,53.0,-254.0,-633.0,215.0,0
-6.0,-185.0,53.0,-287.0,-610.0,158.0,0
7.0,-191.0,52.0,-344.0,-575.0,93.0,0
21.0,-199.0,49.0,-422.0,-529.0,24.0,0
28.0,-209.0,45.0,-519.0,-474.0,-39.0,0
38.0,-219.0,53.0,-623.0,-412.0,-90.0,0
45.0,-234.0,55.0,-721.0,-351.0,-134.0,0
53.0,-249.0,53.0,-804.0,-295.0,-169.0,0
62.0,-268.0,53.0,-863.0,-245.0,-197.0,0
69.0,-281.0,54.0,-894.0,-204.0,-212.0,0
69.0,-291.0,51.0,-897.0,-171.0,-220.0,0
73.0,-297.0,53.0,-871.0,-146.0,-217.0,0
77.0,-305.0,48.0,-818.0,-122.0,-209.0,0
77.0,-304.0,45.0,-745.0,-98.0,-189.0,0
81.0,-298.0,40.0,-649.0,-73.0,-165.0,0
77.0,-290.0,41.0,-542.0,-49.0,-139.0,0
72.0,-282.0,41.0,-425.0,-30.0,-112.0,0
72.0,-273.0,38.0,-307.0,-16.0,-90.0,0
71.0,-266.0,36.0,-196.0,-4.0,-73.0,0
68.0,-255.0,33.0,-92.0,14.0,-66.0,0
68.0,-248.0,32.0,0.0,48.0,-62.0,0
67.0,-239.0,30.0,77.0,99.0,-70.0,0
63.0,-228.0,33.0,131.0,165.0,-83.0,0
58.0,-216.0,37.0,164.0,241.0,-102.0,0
54.0,-211.0,39.0,178.0,315.0,-128.0,0
47.0,-206.0,39.0,168.0,381.0,-154.0,0
42.0,-195.0,44.0,137.0,433.0,-183.0,0
38.0,-191.0,39.0,87.0,465.0,-214.0,0
27.0,-185.0,41.0,16.0,482.0,-240.0,0
24.0,-187.0,44.0,-72.0,490.0,-261.0,0
17.0,-190.0,42.0,-169.0,492.0,-275.0,0
12.0,-197.0,47.0,-274.0,491.0,-279.0,0
9.0,-209.0,46.0,-377.0,488.0,-274.0,0
3.0,-210.0,47.0,-473.0,481.0,-263.0,0
3.0,-221.0,57.0,-553.0,473.0,-243.0,0
3.0,-230.0,61.0,-615.0,461.0,-217.0,0
4.0,-239.0,62.0,-649.0,446.0,-193.0,0
3.0,-247.0,63.0,-655.0,430.0,-168.0,0
3.0,-250.0,67.0,-633.0,413.0,-148.0,0
6.0,-254.0,72.0,-585.0,398.0,-130.0,0
5.0,-257.0,68.0,-520.0,383.0,-119.0,0
8.0,-260.0,67.0,-448.0,371.0,-112.0,0
12.0,-260.0,64.0,-376.0,356.0,-111.0,0
12.0,-261.0,59.0,-323.0,344.0,-114.0,0
18.0,-258.0,54.0,-267.0,338.0,-125.0,0
17.0,-253.0,50.0,-223.0,337.0,-140.0,0
19.0,-252.0,51.0,-186.0,346.0,-159.0,0
20.0,-248.0,48.0,-163.0,360.0,-178.0,0
22.0,-248.0,47.0,-149.0,379.0,-193.0,0
18.0,-244.0,44.0,-140.0,400.0,-205.0,0
16.0,-242.0,47.0,-135.0,415.0,-210.0,0
11.0,-240.0,44.0,-133.0,424.0,-211.0,0
9.0,-238.0,47.0,-135.0,423.0,-207.0,0
6.0,-234.0,50.0,-135.0,415.0,-198.0,0
3.0,-233.0,51.0,-131.0,400.0,-187.0,0
1.0,-232.0,52.0,-121.0,380.0,-176.0,0
-1.0,-232.0,47.0,-105.0,356.0,-161.0,0
-1.0,-232.0,50.0,-81.0,328.0,-145.0,0
-3.0,-225.0,48.0,-47.0,300.0,-131.0,0
-7.0,-226.0,49.0,-8.0,273.0,-116.0,0
-8.0,-223.0,55.0,36.0,248.0,-100.0,0
-8.0,-222.0,52.0,83.0,227.0,-87.0,0
-7.0,-219.0,54.0,133.0,207.0,-75.0,0
-8.0,-216.0,60.0,180.0,191.0,-60.0,0
-10.0,-215.0,59.0,224.0,179.0,-44.0,0
-13.0,-214.0,61.0,267.0,170.0,-26.0,0
-11.0,-208.0,60.0,303.0,164.0,-9.0,0
-10.0,-206.0,56.0,329.0,159.0,6.0,0
-3.0,-202.0,54.0,342.0,160.0,20.0,0
3.0,-199.0,52.0,344.0,167.0,31.0,0
8.0,-190.0,50.0,334.0,180.0,43.0,0
13.0,-190.0,45.0,317.0,198.0,55.0,0
22.0,-186.0,45.0,293.0,211.0,68.0,0
26.0,-187.0,42.0,265.0,212.0,81.0,0
28.0,-189.0,42.0,228.0,201.0,97.0,0
30.0,-193.0,45.0,187.0,181.0,115.0,0
28.0,-194.0,51.0,137.0,152.0,132.0,0
26.0,-203.0,54.0,85.0,120.0,152.0,0
24.0,-207.0,55.0,33.0,87.0,166.0,0
21.0,-213.0,61.0,-13.0,56.0,180.0,0
17.0,-219.0,59.0,-44.0,29.0,189.0,0
19.0,-227.0,69.0,-62.0,13.0,196.0,0
14.0,-235.0,66.0,-63.0,7.0,193.0,0
10.0,-241.0,68.0,-50.0,1.0,183.0,0
13.0,-247.0,59.0,-32.0,-1.0,170.0,0
14.0,-246.0,54.0,-14.0,2.0,152.0,0
12.0,-245.0,57.0,-10.0,14.0,130.0,0
16.0,-247.0,49.0,-22.0,34.0,102.0,0
14.0,-242.0,50.0,-44.0,64.0,76.0,0
13.0,-237.0,53.0,-69.0,98.0,52.0,0
16.0,-236.0,54.0,-90.0,137.0,29.0,0
17.0,-236.0,57.0,-101.0,176.0,8.0,0
22.0,-239.0,67.0,-99.0,214.0,-10.0,0
20.0,-233.0,56.0,-92.0,255.0,-25.0,0
22.0,-231.0,56.0,-78.0,293.0,-37.0,0
19.0,-231.0,58.0,-63.0,326.0,-43.0,0
15.0,-227.0,53.0,-52.0,345.0,-43.0,0
13.0,-226.0,49.0,-46.0,351.0,-40.0,0
11.0,-217.0,48.0,-48.0,338.0,-34.0,0
8.0,-211.0,43.0,-58.0,316.0,-23.0,0
3.0,-207.0,39.0,-71.0,291.0,-11.0,0
-2.0,-199.0,36.0,-97.0,259.0,9.0,0
-7.0,-194.0,30.0,-132.0,223.0,29.0,0
-8.0,-187.0,27.0,-178.0,194.0,45.0,0
-10.0,-184.0,28.0,-226.0,175.0,61.0,0
-12.0,-182.0,29.0,-267.0,172.0,73.0,0
-11.0,-180.0,35.0,-299.0,173.0,82.0,0
-11.0,-182.0,40.0,-309.0,175.0,95.0,0
-13.0,-184.0,45.0,-299.0,172.0,111.0,0
-6.0,-188.0,47.0,-272.0,162.0,126.0,0
-7.0,-192.0,49.0,-236.0,143.0,140.0,0
-5.0,-194.0,53.0,-198.0,116.0,153.0,0
-2.0,-196.0,50.0,-165.0,86.0,167.0,0
-5.0,-200.0,54.0,-141.0,51.0,177.0,0
0.0,-202.0,56.0,-122.0,18.0,189.0,0
-6.0,-202.0,59.0,-110.0,-11.0,201.0,0
-4.0,-198.0,68.0,-102.0,-38.0,215.0,0
-6.0,-204.0,71.0,-97.0,-63.0,227.0,0
-5.0,-206.0,75.0,-88.0,-85.0,236.0,0
-4.0,-208.0,83.0,-74.0,-99.0,243.0,0
-9.0,-209.0,86.0,-54.0,-109.0,249.0,0
-8.0,-213.0,92.0,-27.0,-108.0,254.0,0
-7.0,-216.0,94.0,-3.0,-100.0,261.0,0
-5.0,-219.0,101.0,16.0,-85.0,267.0,0
-1.0,-219.0,99.0,23.0,-72.0,275.0,0
3.0,-225.0,102.0,21.0,-62.0,287.0,0
3.0,-228.0,96.0,8.0,-56.0,297.0,0
6.0,-233.0,95.0,-15.0,-57.0,306.0,0
11.0,-236.0,92.0,-38.0,-60.0,316.0,0
12.0,-234.0,81.0,-70.0,-66.0,322.0,0
11.0,-234.0,73.0,-107.0,-72.0,318.0,0
12.0,-233.0,66.0,-148.0,-76.0,306.0,0
9.0,-234.0,57.0,-187.0,-76.0,285.0,0
6.0,-229.0,57.0,-222.0,-69.0,259.0,0
2.0,-227.0,55.0,-248.0,-56.0,230.0,0
-2.0,-230.0,61.0,-257.0,-39.0,201.0,0
1.0,-231.0,69.0,-249.0,-17.0,179.0,0
2.0,-233.0,73.0,-222.0,11.0,151.0,0
5.0,-238.0,80.0,-174.0,43.0,126.0,0
7.0,-239.0,84.0,-119.0,77.0,104.0,0
14.0,-247.0,89.0,-55.0,110.0,82.0,0
22.0,-249.0,90.0,10.0,143.0,68.0,0
25.0,-251.0,93.0,79.0,173.0,57.0,0
27.0,-253.0,88.0,141.0,199.0,47.0,0
27.0,-252.0,89.0,194.0,213.0,39.0,0
29.0,-254.0,81.0,232.0,221.0,38.0,0
33.0,-250.0,79.0,248.0,220.0,34.0,0
35.0,-248.0,76.0,243.0,215.0,30.0,0
38.0,-245.0,67.0,213.0,209.0,23.0,0
40.0,-235.0,63.0,165.0,208.0,13.0,0
40.0,-227.0,58.0,98.0,214.0,0.0,0
35.0,-217.0,58.0,26.0,228.0,-12.0,0
32.0,-205.0,54.0,-44.0,253.0,-26.0,0
30.0,-202.0,57.0,-113.0,281.0,-41.0,0
35.0,-197.0,59.0,-169.0,315.0,-57.0,0
34.0,-198.0,65.0,-212.0,358.0,-74.0,0
39.0,-202.0,75.0,-239.0,406.0,-90.0,0
37.0,-202.0,81.0,-242.0,453.0,-106.0,0
39.0,-211.0,85.0,-228.0,500.0,-121.0,0
45.0,-224.0,90.0,-190.0,543.0,-135.0,0
45.0,-230.0,96.0,-137.0,583.0,-148.0,0
49.0,-238.0,97.0,-76.0,616.0,-160.0,0
49.0,-242.0,98.0,-9.0,640.0,-171.0,0
49.0,-250.0,97.0,57.0,656.0,-183.0,0
48.0,-253.0,95.0,119.0,666.0,-194.0,0
46.0,-251.0,89.0,171.0,672.0,-200.0,0
42.0,-253.0,80.0,206.0,679.0,-207.0,0
38.0,-252.0,78.0,228.0,690.0,-217.0,0
36.0,-245.0,69.0,234.0,706.0,-231.0,0
28.0,-242.0,64.0,226.0,728.0,-248.0,0
15.0,-233.0,64.0,210.0,752.0,-267.0,0
19.0,-227.0,67.0,190.0,773.0,-287.0,0
18.0,-222.0,66.0,165.0,793.0,-308.0,0
15.0,-221.0,69.0,146.0,819.0,-331.0,0
20.0,-221.0,78.0,136.0,853.0,-353.0,0
24.0,-224.0,84.0,141.0,896.0,-379.0,0
25.0,-223.0,94.0,162.0,948.0,-409.0,0
30.0,-227.0,98.0,192.0,1005.0,-444.0,0
30.0,-233.0,103.0,233.0,1057.0,-478.0,0
36.0,-237.0,109.0,275.0,1091.0,-509.0,0
37.0,-243.0,103.0,306.0,1109.0,-538.0,0
37.0,-248.0,96.0,324.0,1100.0,-558.0,0
