ax,ay,az,gx,gy,gz,label
-3.0,-256.0,63.0,-18.0,70.0,-8.0,0
-6.0,-257.0,63.0,-19.0,71.0,-9.0,0
-8.0,-257.0,62.0,-21.0,71.0,-8.0,0
-5.0,-259.0,64.0,-22.0,71.0,-6.0,0
-6.0,-259.0,62.0,-21.0,70.0,-6.0,0
-7.0,-257.0,66.0,-20.0,71.0,-5.0,0
-4.0,-262.0,64.0,-19.0,68.0,-4.0,0
-5.0,-262.0,62.0,-18.0,67.0,-4.0,0
-7.0,-261.0,63.0,-20.0,67.0,-4.0,0
-9.0,-259.0,66.0,-19.0,65.0,-2.0,0
-9.0,-260.0,64.0,-19.0,61.0,-2.0,0
-7.0,-261.0,65.0,-18.0,58.0,-2.0,0
-5.0,-260.0,64.0,-14.0,55.0,-3.0,0
-3.0,-259.0,65.0,-11.0,57.0,-7.0,0
-1.0,-259.0,65.0,-11.0,59.0,-10.0,0
-2.0,-251.0,61.0,-12.0,64.0,-14.0,0
-2.0,-257.0,67.0,-13.0,66.0,-15.0,0
-2.0,-257.0,67.0,-16.0,70.0,-16.0,0
-4.0,-262.0,67.0,-18.0,72.0,-15.0,0
-4.0,-259.0,64.0,-20.0,73.0,-12.0,0
-4.0,-259.0,66.0,-21.0,74.0,-10.0,0
-3.0,-262.0,67.0,-19.0,72.0,-9.0,0
-1.0,-264.0,67.0,-16.0,69.0,-6.0,0
-4.0,-259.0,64.0,-13.0,66.0,-7.0,0
-1.0,-261.0,66.0,-10.0,64.0,-7.0,0
1.0,-259.0,66.0,-7.0,60.0,-10.0,0
-2.0,-259.0,66.0,-4.0,57.0,-13.0,0
0.0,-258.0,66.0,-4.0,56.0,-19.0,0
-2.0,-257.0,66.0,-6.0,57.0,-22.0,0
1.0,-258.0,66.0,-7.0,56.0,-27.0,0
0.0,-256.0,68.0,-6.0,56.0,-30.0,0
1.0,-256.0,65.0,-5.0,56.0,-31.0,0
0.0,-256.0,66.0,-4.0,54.0,-32.0,0
1.0,-255.0,66.0,-6.0,55.0,-33.0,0
0.0,-255.0,70.0,-8.0,55.0,-33.0,0
0.0,-254.0,69.0,-11.0,54.0,-33.0,0
0.0,-251.0,69.0,-14.0,57.0,-33.0,0
10.0,-249.0,71.0,-19.0,60.0,-30.0,0
0.0,-252.0,75.0,-22.0,60.0,-28.0,0
-4.0,-250.0,68.0,-25.0,61.0,-23.0,0
-3.0,-251.0,71.0,-28.0,60.0,-18.0,0
-3.0,-251.0,71.0,-33.0,59.0,-10.0,0
-1.0,-251.0,70.0,-40.0,59.0,-2.0,0
-3.0,-254.0,68.0,-47.0,60.0,7.0,0
-3.0,-254.0,74.0,-54.0,58.0,16.0,0
-4.0,-256.0,76.0,-58.0,58.0,22.0,0
-1.0,-256.0,72.0,-62.0,56.0,28.0,0
-2.0,-255.0,79.0,-64.0,56.0,32.0,0
-2.0,-263.0,71.0,-65.0,52.0,34.0,0
-3.0,-257.0,73.0,-65.0,49.0,35.0,0
0.0,-257.0,74.0,-65.0,45.0,31.0,0
-1.0,-254.0,70.0,-66.0,42.0,31.0,0
0.0,-256.0,74.0,-70.0,40.0,27.0,0
1.0,-256.0,73.0,-76.0,38.0,23.0,0
0.0,-256.0,73.0,-79.0,36.0,19.0,0
-1.0,-257.0,70.0,-84.0,35.0,17.0,0
1.0,-257.0,70.0,-87.0,32.0,16.0,0
0.0,-254.0,66.0,-89.0,30.0,15.0,0
-2.0,-250.0,62.0,-89.0,27.0,18.0,0
1.0,-259.0,67.0,-90.0,24.0,21.0,0
0.0,-259.0,69.0,-90.0,20.0,26.0,0
-1.0,-257.0,69.0,-85.0,17.0,29.0,0
0.0,-258.0,71.0,-79.0,14.0,33.0,0
0.0,-260.0,67.0,-72.0,11.0,36.0,0
0.0,-259.0,67.0,-67.0,9.0,40.0,0
0.0,-260.0,68.0,-62.0,9.0,39.0,0
-1.0,-259.0,70.0,-56.0,7.0,41.0,0
-1.0,-262.0,69.0,-54.0,3.0,43.0,0
-1.0,-263.0,70.0,-50.0,2.0,42.0,0
0.0,-263.0,70.0,-44.0,0.0,44.0,0
0.0,-260.0,75.0,-39.0,-4.0,46.0,0
-1.0,-260.0,67.0,-31.0,-7.0,47.0,0
0.0,-260.0,67.0,-25.0,-11.0,47.0,0
-1.0,-259.0,70.0,-19.0,-14.0,49.0,0
3.0,-260.0,68.0,-12.0,-20.0,51.0,0
2.0,-261.0,70.0,-6.0,-24.0,54.0,0
2.0,-259.0,68.0,-1.0,-30.0,55.0,0
2.0,-260.0,68.0,6.0,-32.0,56.0,0
7.0,-263.0,72.0,14.0,-32.0,56.0,0
8.0,-273.0,66.0,22.0,-32.0,56.0,0
3.0,-260.0,70.0,33.0,-28.0,56.0,0
5.0,-258.0,69.0,42.0,-27.0,57.0,0
7.0,-259.0,65.0,50.0,-30.0,59.0,0
5.0,-258.0,66.0,59.0,-29.0,61.0,0
10.0,-256.0,65.0,70.0,-29.0,65.0,0
7.0,-257.0,65.0,77.0,-29.0,70.0,0
9.0,-257.0,65.0,83.0,-28.0,73.0,0
8.0,-256.0,66.0,88.0,-29.0,76.0,0
12.0,-258.0,64.0,94.0,-26.0,77.0,0
12.0,-259.0,63.0,97.0,-19.0,79.0,0
14.0,-263.0,60.0,100.0,-10.0,79.0,0
17.0,-263.0,59.0,98.0,-1.0,77.0,0
16.0,-269.0,54.0,95.0,13.0,74.0,0
16.0,-267.0,54.0,96.0,27.0,72.0,0
16.0,-271.0,55.0,104.0,42.0,68.0,0
10.0,-272.0,53.0,118.0,55.0,63.0,0
8.0,-271.0,51.0,134.0,64.0,56.0,0
9.0,-265.0,51.0,148.0,72.0,50.0,0
12.0,-270.0,46.0,155.0,80.0,42.0,0
11.0,-262.0,47.0,160.0,92.0,33.0,0
7.0,-262.0,47.0,165.0,109.0,26.0,0
13.0,-266.0,49.0,172.0,129.0,21.0,0
6.0,-257.0,52.0,184.0,143.0,16.0,0
2.0,-260.0,54.0,199.0,144.0,11.0,0
1.0,-257.0,49.0,213.0,134.0,10.0,0
0.0,-254.0,52.0,226.0,117.0,11.0,0
0.0,-249.0,45.0,232.0,97.0,18.0,0
-1.0,-242.0,52.0,233.0,73.0,30.0,0
-1.0,-241.0,46.0,219.0,49.0,49.0,0
-7.0,-235.0,42.0,195.0,29.0,69.0,0
-7.0,-234.0,44.0,166.0,9.0,92.0,0
-21.0,-224.0,43.0,133.0,-14.0,117.0,0
-10.0,-235.0,47.0,87.0,-45.0,148.0,0
-17.0,-234.0,53.0,50.0,-64.0,165.0,0
-25.0,-236.0,52.0,15.0,-88.0,183.0,0
-32.0,-244.0,59.0,-26.0,-124.0,204.0,0
-39.0,-246.0,63.0,-55.0,-168.0,216.0,0
-42.0,-249.0,62.0,-82.0,-215.0,220.0,0
-50.0,-247.0,67.0,-99.0,-250.0,223.0,0
-55.0,-251.0,76.0,-113.0,-268.0,223.0,0
-58.0,-255.0,85.0,-116.0,-279.0,219.0,0
-64.0,-254.0,93.0,-113.0,-288.0,213.0,0
-74.0,-258.0,100.0,-108.0,-297.0,208.0,0
-65.0,-262.0,109.0,-101.0,-304.0,203.0,0
-67.0,-261.0,117.0,-95.0,-307.0,203.0,0
-61.0,-269.0,118.0,-95.0,-303.0,203.0,0
-55.0,-277.0,119.0,-103.0,-282.0,211.0,0
-48.0,-283.0,121.0,-115.0,-250.0,223.0,0
-41.0,-290.0,124.0,-133.0,-216.0,234.0,0
-30.0,-295.0,124.0,-137.0,-187.0,249.0,0
-23.0,-301.0,121.0,-121.0,-150.0,267.0,0
-14.0,-304.0,121.0,-87.0,-117.0,285.0,0
-6.0,-301.0,119.0,-40.0,-87.0,298.0,0
0.0,-296.0,114.0,12.0,-58.0,312.0,0
3.0,-291.0,109.0,54.0,-28.0,328.0,0
7.0,-278.0,108.0,82.0,2.0,342.0,0
3.0,-272.0,106.0,96.0,26.0,350.0,0
2.0,-268.0,108.0,95.0,50.0,365.0,0
1.0,-258.0,111.0,91.0,75.0,378.0,0
-2.0,-255.0,106.0,92.0,98.0,384.0,0
-6.0,-250.0,107.0,94.0,117.0,387.0,0
-13.0,-250.0,106.0,88.0,133.0,389.0,0
-20.0,-244.0,106.0,81.0,152.0,389.0,0
-25.0,-242.0,112.0,80.0,174.0,391.0,0
-31.0,-242.0,113.0,82.0,190.0,390.0,0
-31.0,-242.0,113.0,83.0,204.0,391.0,0
-36.0,-238.0,113.0,80.0,218.0,395.0,0
-34.0,-234.0,109.0,78.0,234.0,399.0,0
-35.0,-239.0,112.0,73.0,249.0,411.0,0
-37.0,-236.0,106.0,67.0,267.0,421.0,0
-38.0,-228.0,104.0,59.0,285.0,428.0,0
-35.0,-225.0,98.0,45.0,305.0,433.0,0
-35.0,-225.0,92.0,14.0,325.0,439.0,0
-38.0,-224.0,90.0,-35.0,347.0,438.0,0
-41.0,-221.0,84.0,-96.0,363.0,436.0,0
-44.0,-224.0,79.0,-155.0,378.0,429.0,0
-46.0,-225.0,76.0,-212.0,396.0,417.0,0
-51.0,-229.0,77.0,-264.0,409.0,400.0,0
-51.0,-235.0,75.0,-307.0,419.0,384.0,0
-51.0,-243.0,72.0,-340.0,430.0,368.0,0
-53.0,-250.0,77.0,-363.0,442.0,345.0,0
-58.0,-254.0,78.0,-373.0,450.0,319.0,0
-53.0,-259.0,79.0,-371.0,453.0,299.0,0
-57.0,-259.0,77.0,-352.0,448.0,278.0,0
-52.0,-260.0,76.0,-312.0,441.0,258.0,0
-44.0,-256.0,87.0,-263.0,438.0,242.0,0
-52.0,-256.0,75.0,-223.0,436.0,227.0,0
-52.0,-251.0,79.0,-193.0,434.0,215.0,0
-54.0,-249.0,75.0,-165.0,426.0,207.0,0
-53.0,-243.0,83.0,-145.0,418.0,199.0,0
-53.0,-242.0,81.0,-135.0,414.0,193.0,0
-57.0,-242.0,75.0,-136.0,413.0,189.0,0
-61.0,-237.0,77.0,-138.0,411.0,186.0,0
-62.0,-236.0,80.0,-142.0,404.0,179.0,0
-66.0,-240.0,80.0,-149.0,393.0,173.0,0
-64.0,-240.0,82.0,-154.0,380.0,166.0,0
-66.0,-242.0,82.0,-153.0,369.0,158.0,0
-68.0,-243.0,83.0,-145.0,359.0,154.0,0
-69.0,-245.0,86.0,-128.0,350.0,149.0,0
-65.0,-246.0,85.0,-112.0,340.0,147.0,0
-67.0,-245.0,82.0,-96.0,331.0,142.0,0
-67.0,-242.0,81.0,-86.0,326.0,140.0,0
-69.0,-242.0,75.0,-84.0,322.0,136.0,0
-67.0,-243.0,75.0,-90.0,318.0,130.0,0
-64.0,-239.0,72.0,-101.0,314.0,118.0,0
-63.0,-239.0,73.0,-115.0,308.0,101.0,0
-63.0,-239.0,78.0,-126.0,300.0,81.0,0
-77.0,-249.0,87.0,-130.0,289.0,61.0,0
-63.0,-242.0,76.0,-133.0,277.0,40.0,0
-66.0,-240.0,77.0,-138.0,270.0,20.0,0
-64.0,-241.0,83.0,-140.0,261.0,-1.0,0
-59.0,-245.0,78.0,-142.0,256.0,-22.0,0
-60.0,-242.0,76.0,-146.0,252.0,-44.0,0
-60.0,-241.0,80.0,-151.0,256.0,-65.0,0
-58.0,-243.0,84.0,-153.0,259.0,-85.0,0
-58.0,-239.0,81.0,-152.0,261.0,-101.0,0
-55.0,-240.0,79.0,-149.0,264.0,-117.0,0
-50.0,-239.0,82.0,-154.0,274.0,-129.0,0
-50.0,-235.0,77.0,-166.0,287.0,-142.0,0
-51.0,-236.0,72.0,-193.0,297.0,-155.0,0
-51.0,-234.0,68.0,-237.0,297.0,-170.0,0
-51.0,-233.0,69.0,-293.0,295.0,-188.0,0
-49.0,-232.0,73.0,-355.0,295.0,-207.0,0
-52.0,-235.0,75.0,-416.0,294.0,-226.0,0
-50.0,-241.0,72.0,-472.0,293.0,-242.0,0
-51.0,-246.0,73.0,-517.0,297.0,-256.0,0
-49.0,-251.0,73.0,-553.0,305.0,-269.0,0
-48.0,-258.0,73.0,-573.0,318.0,-282.0,0
-52.0,-262.0,72.0,-578.0,332.0,-292.0,0
-48.0,-266.0,86.0,-566.0,346.0,-302.0,0
-53.0,-281.0,72.0,-548.0,355.0,-308.0,0
-51.0,-288.0,68.0,-528.0,358.0,-312.0,0
-54.0,-296.0,68.0,-512.0,366.0,-314.0,0
-57.0,-303.0,68.0,-495.0,376.0,-314.0,0
-57.0,-316.0,73.0,-477.0,394.0,-312.0,0
-60.0,-324.0,75.0,-454.0,408.0,-303.0,0
-58.0,-328.0,79.0,-433.0,417.0,-293.0,0
-62.0,-333.0,82.0,-416.0,423.0,-278.0,0
-63.0,-336.0,83.0,-409.0,430.0,-258.0,0
-62.0,-338.0,74.0,-417.0,439.0,-232.0,0
-61.0,-341.0,69.0,-444.0,448.0,-200.0,0
-64.0,-346.0,64.0,-489.0,456.0,-166.0,0
-58.0,-344.0,60.0,-544.0,463.0,-134.0,0
-65.0,-348.0,64.0,-601.0,459.0,-106.0,0
-60.0,-354.0,69.0,-645.0,433.0,-77.0,0
-55.0,-360.0,75.0,-663.0,401.0,-48.0,0
-52.0,-369.0,83.0,-645.0,373.0,-23.0,0
-50.0,-383.0,92.0,-594.0,354.0,2.0,0
-53.0,-391.0,100.0,-526.0,350.0,17.0,0
-61.0,-399.0,101.0,-457.0,350.0,21.0,0
-69.0,-398.0,92.0,-391.0,350.0,19.0,0
-78.0,-389.0,86.0,-334.0,347.0,10.0,0
-82.0,-377.0,65.0,-298.0,336.0,-8.0,0
-78.0,-361.0,50.0,-299.0,322.0,-30.0,0
-71.0,-350.0,36.0,-327.0,310.0,-52.0,0
-66.0,-343.0,24.0,-367.0,309.0,-75.0,0
-68.0,-337.0,18.0,-408.0,315.0,-97.0,0
-67.0,-333.0,8.0,-438.0,316.0,-113.0,0
-62.0,-331.0,5.0,-443.0,289.0,-120.0,0
-59.0,-328.0,-1.0,-414.0,237.0,-119.0,0
-50.0,-316.0,-6.0,-353.0,178.0,-116.0,0
-42.0,-307.0,-9.0,-273.0,130.0,-118.0,0
-35.0,-294.0,-12.0,-195.0,106.0,-120.0,0
-32.0,-281.0,-10.0,-126.0,99.0,-124.0,0
-28.0,-271.0,-6.0,-67.0,101.0,-130.0,0
-30.0,-253.0,1.0,-10.0,96.0,-140.0,0
-28.0,-253.0,3.0,41.0,88.0,-150.0,0
-28.0,-239.0,2.0,84.0,82.0,-159.0,0
-25.0,-237.0,4.0,114.0,81.0,-166.0,0
-24.0,-234.0,2.0,124.0,87.0,-175.0,0
-24.0,-232.0,3.0,114.0,91.0,-186.0,0
-24.0,-228.0,4.0,93.0,93.0,-196.0,0
-19.0,-229.0,2.0,66.0,94.0,-202.0,0
-18.0,-245.0,3.0,39.0,94.0,-202.0,0
-15.0,-247.0,3.0,19.0,95.0,-206.0,0
-9.0,-256.0,2.0,0.0,100.0,-213.0,0
-2.0,-257.0,0.0,-15.0,108.0,-221.0,0
1.0,-265.0,3.0,-21.0,122.0,-231.0,0
0.0,-267.0,6.0,-22.0,141.0,-238.0,0
3.0,-269.0,7.0,-17.0,168.0,-241.0,0
1.0,-269.0,13.0,-5.0,194.0,-239.0,0
-1.0,-272.0,13.0,16.0,214.0,-239.0,0
-3.0,-275.0,16.0,45.0,223.0,-241.0,0
-1.0,-273.0,16.0,72.0,218.0,-245.0,0
-2.0,-276.0,19.0,102.0,208.0,-251.0,0
1.0,-277.0,15.0,131.0,196.0,-259.0,0
0.0,-277.0,17.0,156.0,189.0,-270.0,0
0.0,-268.0,13.0,180.0,185.0,-281.0,0
-1.0,-266.0,8.0,201.0,186.0,-295.0,0
0.0,-264.0,4.0,222.0,186.0,-309.0,0
0.0,-260.0,4.0,239.0,185.0,-323.0,0
0.0,-256.0,0.0,252.0,186.0,-344.0,0
-2.0,-250.0,2.0,261.0,188.0,-364.0,0
-5.0,-247.0,1.0,273.0,189.0,-376.0,0
-3.0,-243.0,7.0,288.0,185.0,-381.0,0
-1.0,-239.0,4.0,309.0,180.0,-383.0,0
-1.0,-238.0,10.0,322.0,174.0,-386.0,0
-1.0,-233.0,4.0,328.0,171.0,-394.0,0
0.0,-229.0,1.0,320.0,174.0,-398.0,0
7.0,-230.0,1.0,298.0,187.0,-402.0,0
11.0,-228.0,4.0,271.0,205.0,-406.0,0
14.0,-231.0,6.0,247.0,228.0,-411.0,0
15.0,-233.0,7.0,229.0,257.0,-413.0,0
19.0,-232.0,8.0,221.0,289.0,-418.0,0
18.0,-231.0,12.0,221.0,315.0,-423.0,0
19.0,-234.0,13.0,220.0,336.0,-428.0,0
23.0,-233.0,17.0,216.0,350.0,-433.0,0
24.0,-236.0,14.0,206.0,359.0,-439.0,0
24.0,-236.0,15.0,191.0,361.0,-449.0,0
22.0,-234.0,14.0,176.0,362.0,-458.0,0
17.0,-238.0,15.0,163.0,359.0,-474.0,0
13.0,-246.0,13.0,145.0,359.0,-488.0,0
12.0,-244.0,17.0,127.0,353.0,-507.0,0
14.0,-247.0,18.0,117.0,345.0,-534.0,0
6.0,-252.0,19.0,108.0,333.0,-562.0,0
6.0,-259.0,26.0,100.0,316.0,-591.0,0
5.0,-257.0,18.0,93.0,302.0,-613.0,0
0.0,-256.0,20.0,88.0,292.0,-635.0,0
0.0,-262.0,20.0,88.0,285.0,-651.0,0
-3.0,-259.0,23.0,98.0,281.0,-658.0,0
-5.0,-261.0,25.0,117.0,280.0,-657.0,0
-6.0,-262.0,21.0,142.0,275.0,-653.0,0
-3.0,-257.0,25.0,169.0,270.0,-646.0,0
-5.0,-257.0,35.0,196.0,263.0,-635.0,0
-12.0,-252.0,38.0,221.0,254.0,-625.0,0
-9.0,-253.0,39.0,246.0,236.0,-615.0,0
-13.0,-246.0,40.0,262.0,210.0,-601.0,0
-14.0,-242.0,39.0,264.0,183.0,-593.0,0
-11.0,-242.0,40.0,255.0,158.0,-582.0,0
-14.0,-239.0,41.0,241.0,133.0,-568.0,0
-11.0,-237.0,41.0,228.0,110.0,-555.0,0
-13.0,-230.0,43.0,218.0,90.0,-541.0,0
-12.0,-233.0,43.0,210.0,68.0,-534.0,0
-4.0,-233.0,42.0,205.0,44.0,-534.0,0
-7.0,-225.0,37.0,192.0,19.0,-528.0,0
-5.0,-218.0,34.0,169.0,1.0,-522.0,0
-2.0,-215.0,30.0,132.0,-8.0,-507.0,0
0.0,-214.0,29.0,97.0,-15.0,-497.0,0
0.0,-209.0,24.0,65.0,-19.0,-491.0,0
3.0,-211.0,33.0,48.0,-22.0,-485.0,0
4.0,-210.0,33.0,47.0,-28.0,-477.0,0
9.0,-216.0,36.0,53.0,-37.0,-466.0,0
16.0,-217.0,39.0,58.0,-39.0,-448.0,0
21.0,-221.0,46.0,63.0,-42.0,-430.0,0
28.0,-224.0,40.0,69.0,-41.0,-418.0,0
27.0,-224.0,49.0,79.0,-39.0,-408.0,0
30.0,-225.0,50.0,94.0,-34.0,-399.0,0
31.0,-223.0,52.0,110.0,-32.0,-390.0,0
35.0,-223.0,59.0,128.0,-29.0,-380.0,0
39.0,-220.0,53.0,143.0,-27.0,-373.0,0
41.0,-214.0,56.0,149.0,-21.0,-363.0,0
44.0,-213.0,54.0,148.0,-10.0,-351.0,0
38.0,-208.0,56.0,140.0,1.0,-342.0,0
39.0,-208.0,52.0,129.0,15.0,-332.0,0
41.0,-205.0,57.0,118.0,28.0,-320.0,0
44.0,-205.0,57.0,107.0,41.0,-308.0,0
46.0,-210.0,55.0,97.0,54.0,-299.0,0
46.0,-212.0,59.0,86.0,75.0,-289.0,0
43.0,-213.0,62.0,72.0,101.0,-278.0,0
50.0,-214.0,65.0,63.0,130.0,-267.0,0
48.0,-220.0,72.0,65.0,166.0,-248.0,0
45.0,-221.0,79.0,86.0,195.0,-224.0,0
37.0,-231.0,87.0,119.0,221.0,-200.0,0
37.0,-239.0,92.0,161.0,235.0,-170.0,0
35.0,-241.0,93.0,207.0,236.0,-145.0,0
32.0,-244.0,99.0,253.0,229.0,-116.0,0
29.0,-242.0,103.0,293.0,219.0,-89.0,0
25.0,-236.0,101.0,318.0,202.0,-71.0,0
29.0,-234.0,97.0,335.0,187.0,-51.0,0
25.0,-228.0,94.0,335.0,177.0,-26.0,0
25.0,-224.0,90.0,314.0,173.0,-13.0,0
23.0,-220.0,89.0,274.0,171.0,-3.0,0
24.0,-221.0,82.0,218.0,177.0,13.0,0
20.0,-220.0,84.0,147.0,178.0,22.0,0
20.0,-219.0,76.0,68.0,176.0,30.0,0
18.0,-224.0,76.0,-13.0,165.0,34.0,0
19.0,-230.0,72.0,-83.0,148.0,48.0,0
20.0,-233.0,69.0,-141.0,125.0,64.0,0
21.0,-241.0,72.0,-183.0,100.0,84.0,0
21.0,-252.0,69.0,-211.0,71.0,102.0,0
24.0,-252.0,67.0,-226.0,35.0,114.0,0
15.0,-264.0,71.0,-233.0,-8.0,124.0,0
9.0,-274.0,74.0,-236.0,-52.0,134.0,0
7.0,-283.0,77.0,-240.0,-97.0,146.0,0
5.0,-287.0,76.0,-250.0,-140.0,157.0,0
4.0,-290.0,72.0,-266.0,-180.0,171.0,0
0.0,-300.0,65.0,-299.0,-212.0,185.0,0
6.0,-306.0,58.0,-352.0,-241.0,194.0,0
5.0,-313.0,52.0,-419.0,-268.0,198.0,0
10.0,-324.0,49.0,-493.0,-293.0,198.0,0
16.0,-337.0,54.0,-565.0,-319.0,195.0,0
23.0,-354.0,52.0,-624.0,-343.0,177.0,0
34.0,-369.0,64.0,-665.0,-364.0,148.0,0
43.0,-384.0,66.0,-687.0,-372.0,111.0,0
56.0,-394.0,72.0,-692.0,-365.0,68.0,0
59.0,-402.0,75.0,-685.0,-345.0,22.0,0
63.0,-410.0,90.0,-658.0,-317.0,-22.0,0
65.0,-416.0,92.0,-612.0,-286.0,-57.0,0
66.0,-415.0,101.0,-552.0,-266.0,-85.0,0
65.0,-411.0,103.0,-494.0,-265.0,-106.0,0
59.0,-404.0,95.0,-454.0,-284.0,-121.0,0
58.0,-399.0,87.0,-436.0,-303.0,-125.0,0
55.0,-397.0,82.0,-436.0,-313.0,-128.0,0
54.0,-393.0,67.0,-443.0,-303.0,-114.0,0
52.0,-388.0,59.0,-459.0,-279.0,-103.0,0
55.0,-383.0,49.0,-480.0,-247.0,-96.0,0
58.0,-378.0,37.0,-499.0,-208.0,-96.0,0
57.0,-375.0,31.0,-512.0,-178.0,-107.0,0
55.0,-366.0,25.0,-507.0,-161.0,-122.0,0
42.0,-348.0,20.0,-481.0,-159.0,-129.0,0
30.0,-335.0,20.0,-434.0,-178.0,-128.0,0
19.0,-315.0,16.0,-372.0,-216.0,-121.0,0
12.0,-302.0,8.0,-313.0,-273.0,-114.0,0
15.0,-283.0,0.0,-256.0,-338.0,-100.0,0
20.0,-269.0,-8.0,-207.0,-390.0,-78.0,0
27.0,-257.0,-17.0,-170.0,-412.0,-48.0,0
31.0,-246.0,-28.0,-149.0,-417.0,-22.0,0
27.0,-240.0,-34.0,-143.0,-419.0,4.0,0
20.0,-227.0,-30.0,-141.0,-436.0,29.0,0
20.0,-230.0,-24.0,-129.0,-465.0,62.0,0
20.0,-229.0,-20.0,-99.0,-509.0,99.0,0
23.0,-231.0,-19.0,-58.0,-551.0,137.0,0
22.0,-232.0,-17.0,-20.0,-583.0,175.0,0
21.0,-238.0,-15.0,6.0,-601.0,208.0,0
27.0,-243.0,-7.0,20.0,-609.0,234.0,0
24.0,-246.0,-2.0,31.0,-608.0,257.0,0
24.0,-252.0,2.0,41.0,-599.0,281.0,0
24.0,-255.0,9.0,54.0,-583.0,309.0,0
23.0,-263.0,6.0,68.0,-565.0,334.0,0
22.0,-266.0,7.0,75.0,-538.0,346.0,0
17.0,-267.0,6.0,82.0,-511.0,354.0,0
13.0,-270.0,9.0,87.0,-484.0,363.0,0
7.0,-270.0,9.0,89.0,-466.0,373.0,0
4.0,-277.0,6.0,91.0,-453.0,379.0,0
2.0,-279.0,3.0,102.0,-450.0,381.0,0
0.0,-277.0,1.0,126.0,-447.0,381.0,0
1.0,-275.0,0.0,165.0,-444.0,384.0,0
1.0,-274.0,-2.0,209.0,-438.0,386.0,0
-3.0,-269.0,-2.0,253.0,-427.0,384.0,0
-3.0,-265.0,1.0,285.0,-413.0,379.0,0
-10.0,-256.0,4.0,306.0,-395.0,374.0,0
-13.0,-250.0,3.0,320.0,-384.0,365.0,0
-16.0,-247.0,7.0,328.0,-378.0,355.0,0
-16.0,-239.0,4.0,340.0,-388.0,344.0,0
-21.0,-232.0,5.0,351.0,-404.0,336.0,0
-14.0,-228.0,7.0,361.0,-416.0,327.0,0
-14.0,-222.0,11.0,366.0,-423.0,325.0,0
-14.0,-222.0,14.0,366.0,-418.0,324.0,0
-14.0,-220.0,12.0,357.0,-408.0,326.0,0
-15.0,-220.0,17.0,341.0,-402.0,331.0,0
-17.0,-219.0,14.0,318.0,-403.0,331.0,0
-17.0,-220.0,18.0,291.0,-406.0,334.0,0
-21.0,-223.0,19.0,260.0,-407.0,336.0,0
-18.0,-224.0,18.0,229.0,-410.0,338.0,0
-17.0,-228.0,17.0,201.0,-411.0,337.0,0
-15.0,-233.0,20.0,179.0,-408.0,336.0,0
-14.0,-237.0,14.0,165.0,-403.0,333.0,0
-18.0,-237.0,16.0,160.0,-393.0,330.0,0
-17.0,-239.0,16.0,165.0,-386.0,328.0,0
-9.0,-238.0,16.0,175.0,-381.0,324.0,0
-11.0,-241.0,14.0,186.0,-377.0,320.0,0
-4.0,-239.0,14.0,197.0,-374.0,320.0,0
-1.0,-238.0,12.0,201.0,-366.0,321.0,0
1.0,-240.0,9.0,190.0,-347.0,326.0,0
2.0,-242.0,12.0,169.0,-322.0,336.0,0
4.0,-241.0,13.0,151.0,-297.0,348.0,0
2.0,-242.0,24.0,138.0,-273.0,361.0,0
7.0,-246.0,16.0,134.0,-254.0,374.0,0
3.0,-252.0,14.0,135.0,-235.0,390.0,0
1.0,-252.0,15.0,143.0,-217.0,410.0,0
0.0,-254.0,20.0,154.0,-196.0,432.0,0
-3.0,-256.0,23.0,167.0,-177.0,450.0,0
3.0,-257.0,22.0,171.0,-165.0,468.0,0
2.0,-256.0,27.0,168.0,-153.0,487.0,0
0.0,-252.0,21.0,169.0,-137.0,500.0,0
3.0,-251.0,21.0,175.0,-116.0,506.0,0
0.0,-244.0,23.0,177.0,-96.0,514.0,0
2.0,-244.0,21.0,183.0,-74.0,525.0,0
1.0,-243.0,25.0,190.0,-54.0,537.0,0
1.0,-244.0,29.0,194.0,-31.0,546.0,0
-2.0,-240.0,30.0,192.0,-9.0,549.0,0
0.0,-240.0,31.0,182.0,12.0,551.0,0
-2.0,-240.0,32.0,170.0,30.0,552.0,0
-8.0,-234.0,37.0,160.0,53.0,553.0,0
-11.0,-235.0,39.0,152.0,74.0,549.0,0
-9.0,-233.0,43.0,155.0,91.0,544.0,0
-9.0,-231.0,40.0,164.0,107.0,540.0,0
-9.0,-231.0,41.0,163.0,125.0,535.0,0
-24.0,-233.0,40.0,150.0,139.0,524.0,0
-17.0,-229.0,37.0,123.0,151.0,514.0,0
-23.0,-228.0,35.0,88.0,160.0,503.0,0
-25.0,-228.0,38.0,50.0,168.0,490.0,0
-29.0,-229.0,40.0,16.0,174.0,483.0,0
-32.0,-229.0,40.0,-10.0,184.0,475.0,0
-36.0,-232.0,41.0,-19.0,191.0,468.0,0
-33.0,-236.0,41.0,-22.0,194.0,460.0,0
-31.0,-237.0,38.0,-25.0,187.0,447.0,0
-31.0,-236.0,35.0,-31.0,181.0,433.0,0
-36.0,-236.0,39.0,-30.0,174.0,417.0,0
-38.0,-234.0,37.0,-27.0,166.0,398.0,0
-40.0,-229.0,36.0,-21.0,156.0,377.0,0
-38.0,-230.0,37.0,-15.0,148.0,352.0,0
-40.0,-230.0,33.0,-16.0,136.0,330.0,0
-41.0,-228.0,33.0,-18.0,129.0,308.0,0
-44.0,-225.0,35.0,-25.0,124.0,290.0,0
-46.0,-226.0,39.0,-32.0,118.0,270.0,0
-48.0,-224.0,39.0,-40.0,112.0,255.0,0
-49.0,-226.0,46.0,-49.0,108.0,242.0,0
-49.0,-224.0,46.0,-56.0,106.0,232.0,0
-50.0,-225.0,48.0,-63.0,105.0,228.0,0
-54.0,-230.0,39.0,-68.0,105.0,224.0,0
-50.0,-230.0,51.0,-77.0,104.0,221.0,0
-53.0,-233.0,49.0,-86.0,102.0,221.0,0
-53.0,-228.0,50.0,-93.0,101.0,221.0,0
-55.0,-230.0,58.0,-98.0,96.0,223.0,0
-53.0,-232.0,51.0,-106.0,87.0,221.0,0
-53.0,-229.0,54.0,-114.0,82.0,222.0,0
-54.0,-232.0,50.0,-126.0,83.0,220.0,0
-52.0,-230.0,54.0,-137.0,84.0,217.0,0
-51.0,-232.0,57.0,-145.0,87.0,211.0,0
-49.0,-238.0,56.0,-146.0,95.0,206.0,0
-43.0,-244.0,57.0,-137.0,106.0,201.0,0
-42.0,-247.0,60.0,-124.0,119.0,197.0,0
-35.0,-250.0,62.0,-107.0,138.0,185.0,0
-29.0,-251.0,64.0,-77.0,158.0,173.0,0
-24.0,-255.0,64.0,-38.0,185.0,161.0,0
-27.0,-255.0,64.0,-1.0,214.0,141.0,0
-33.0,-253.0,65.0,28.0,242.0,126.0,0
-35.0,-254.0,66.0,41.0,266.0,111.0,0
-29.0,-251.0,62.0,50.0,277.0,95.0,0
-35.0,-244.0,60.0,46.0,285.0,73.0,0
-32.0,-244.0,55.0,12.0,303.0,63.0,0
-21.0,-247.0,60.0,-40.0,334.0,56.0,0
-32.0,-250.0,53.0,-95.0,375.0,46.0,0
-29.0,-253.0,53.0,-148.0,417.0,35.0,0
-27.0,-259.0,55.0,-188.0,455.0,27.0,0
-21.0,-264.0,53.0,-220.0,488.0,18.0,0
-18.0,-272.0,55.0,-242.0,516.0,14.0,0
-10.0,-275.0,59.0,-254.0,541.0,9.0,0
-5.0,-285.0,52.0,-258.0,557.0,1.0,0
1.0,-290.0,50.0,-255.0,569.0,-10.0,0
11.0,-298.0,47.0,-258.0,581.0,-27.0,0
8.0,-299.0,45.0,-270.0,590.0,-50.0,0
10.0,-303.0,36.0,-303.0,593.0,-81.0,0
7.0,-304.0,34.0,-365.0,586.0,-118.0,0
-5.0,-312.0,34.0,-437.0,578.0,-163.0,0
-33.0,-323.0,53.0,-497.0,573.0,-196.0,0
-57.0,-336.0,64.0,-535.0,576.0,-213.0,0
-76.0,-353.0,63.0,-565.0,584.0,-209.0,0
-96.0,-373.0,64.0,-593.0,601.0,-180.0,0
-115.0,-394.0,64.0,-620.0,625.0,-132.0,0
-126.0,-418.0,62.0,-647.0,643.0,-69.0,0
-132.0,-439.0,54.0,-670.0,643.0,-1.0,0
-137.0,-450.0,53.0,-674.0,616.0,69.0,0
-141.0,-455.0,38.0,-645.0,570.0,127.0,0
-134.0,-451.0,28.0,-585.0,503.0,168.0,0
-119.0,-446.0,20.0,-498.0,430.0,196.0,0
-94.0,-430.0,18.0,-396.0,369.0,214.0,0
-64.0,-411.0,20.0,-296.0,345.0,220.0,0
-43.0,-395.0,22.0,-216.0,363.0,216.0,0
-30.0,-377.0,32.0,-158.0,389.0,195.0,0
-21.0,-357.0,36.0,-103.0,404.0,160.0,0
-19.0,-337.0,34.0,-40.0,397.0,125.0,0
-13.0,-320.0,25.0,21.0,374.0,91.0,0
-3.0,-300.0,13.0,64.0,340.0,48.0,0
3.0,-284.0,0.0,84.0,320.0,-2.0,0
4.0,-270.0,-13.0,78.0,330.0,-62.0,0
3.0,-256.0,-14.0,52.0,363.0,-124.0,0
-2.0,-246.0,-16.0,25.0,396.0,-181.0,0
-6.0,-237.0,-17.0,-7.0,414.0,-230.0,0
-13.0,-231.0,-16.0,-30.0,417.0,-274.0,0
-12.0,-226.0,-19.0,-52.0,415.0,-315.0,0
-12.0,-232.0,-22.0,-73.0,411.0,-357.0,0
-7.0,-235.0,-21.0,-90.0,408.0,-399.0,0
-8.0,-238.0,-9.0,-105.0,408.0,-433.0,0
-3.0,-241.0,-18.0,-117.0,414.0,-476.0,0
-4.0,-250.0,-14.0,-125.0,426.0,-516.0,0
-3.0,-259.0,-10.0,-122.0,445.0,-545.0,0
-6.0,-265.0,-7.0,-106.0,464.0,-571.0,0
-8.0,-273.0,2.0,-74.0,475.0,-583.0,0
-12.0,-282.0,3.0,-34.0,481.0,-584.0,0
-23.0,-282.0,0.0,7.0,485.0,-575.0,0
-24.0,-287.0,2.0,39.0,493.0,-552.0,0
-31.0,-291.0,1.0,63.0,505.0,-516.0,0
-28.0,-291.0,0.0,74.0,522.0,-480.0,0
-27.0,-293.0,-2.0,80.0,544.0,-447.0,0
-32.0,-290.0,2.0,87.0,568.0,-414.0,0
-33.0,-286.0,3.0,106.0,587.0,-377.0,0
-31.0,-285.0,9.0,136.0,594.0,-341.0,0
-31.0,-281.0,10.0,176.0,585.0,-305.0,0
-30.0,-279.0,13.0,225.0,568.0,-271.0,0
-31.0,-274.0,12.0,276.0,546.0,-239.0,0
-25.0,-266.0,12.0,325.0,529.0,-211.0,0
-25.0,-262.0,13.0,370.0,517.0,-189.0,0
-18.0,-257.0,17.0,403.0,503.0,-178.0,0
-16.0,-252.0,15.0,426.0,486.0,-177.0,0
-19.0,-246.0,17.0,439.0,471.0,-179.0,0
-3.0,-246.0,17.0,442.0,461.0,-183.0,0
-5.0,-233.0,18.0,440.0,452.0,-198.0,0
1.0,-232.0,19.0,435.0,444.0,-218.0,0
2.0,-226.0,22.0,427.0,429.0,-244.0,0
7.0,-221.0,19.0,410.0,413.0,-271.0,0
10.0,-220.0,21.0,383.0,401.0,-297.0,0
8.0,-216.0,21.0,357.0,393.0,-319.0,0
9.0,-219.0,20.0,331.0,391.0,-336.0,0
6.0,-212.0,16.0,305.0,389.0,-349.0,0
4.0,-213.0,20.0,286.0,389.0,-362.0,0
2.0,-215.0,18.0,272.0,389.0,-368.0,0
1.0,-212.0,20.0,265.0,390.0,-367.0,0
1.0,-211.0,17.0,266.0,389.0,-365.0,0
0.0,-210.0,17.0,270.0,383.0,-366.0,0
-1.0,-205.0,15.0,272.0,373.0,-366.0,0
-4.0,-209.0,14.0,273.0,363.0,-363.0,0
-6.0,-208.0,17.0,267.0,347.0,-360.0,0
-6.0,-208.0,15.0,257.0,329.0,-360.0,0
-6.0,-212.0,14.0,240.0,310.0,-364.0,0
-8.0,-220.0,13.0,215.0,285.0,-367.0,0
-10.0,-225.0,19.0,190.0,260.0,-372.0,0
-17.0,-246.0,23.0,171.0,237.0,-377.0,0
-17.0,-239.0,24.0,164.0,213.0,-383.0,0
-15.0,-244.0,24.0,163.0,186.0,-391.0,0
-17.0,-246.0,27.0,164.0,159.0,-402.0,0
-16.0,-249.0,28.0,168.0,133.0,-409.0,0
-21.0,-248.0,27.0,175.0,109.0,-416.0,0
-23.0,-251.0,34.0,184.0,88.0,-422.0,0
-19.0,-252.0,28.0,196.0,69.0,-427.0,0
-23.0,-246.0,29.0,214.0,48.0,-425.0,0
-24.0,-243.0,28.0,238.0,26.0,-422.0,0
-24.0,-239.0,26.0,263.0,4.0,-414.0,0
-23.0,-234.0,26.0,285.0,-17.0,-407.0,0
-23.0,-229.0,25.0,305.0,-34.0,-398.0,0
-23.0,-222.0,27.0,322.0,-51.0,-386.0,0
-19.0,-218.0,27.0,334.0,-69.0,-376.0,0
-17.0,-210.0,27.0,341.0,-90.0,-371.0,0
-13.0,-205.0,22.0,341.0,-108.0,-369.0,0
-3.0,-201.0,24.0,334.0,-118.0,-365.0,0
0.0,-203.0,27.0,317.0,-126.0,-362.0,0
4.0,-195.0,27.0,295.0,-131.0,-361.0,0
10.0,-196.0,29.0,268.0,-134.0,-362.0,0
15.0,-193.0,29.0,241.0,-137.0,-358.0,0
21.0,-198.0,37.0,222.0,-142.0,-356.0,0
22.0,-201.0,34.0,205.0,-148.0,-352.0,0
26.0,-203.0,38.0,190.0,-154.0,-345.0,0
27.0,-204.0,40.0,176.0,-159.0,-337.0,0
33.0,-211.0,43.0,165.0,-162.0,-331.0,0
32.0,-214.0,41.0,156.0,-161.0,-322.0,0
35.0,-214.0,45.0,150.0,-155.0,-311.0,0
37.0,-220.0,42.0,147.0,-144.0,-301.0,0
42.0,-224.0,48.0,144.0,-130.0,-279.0,0
42.0,-230.0,45.0,144.0,-113.0,-256.0,0
36.0,-231.0,47.0,139.0,-97.0,-231.0,0
38.0,-237.0,50.0,132.0,-82.0,-203.0,0
31.0,-237.0,47.0,129.0,-73.0,-179.0,0
33.0,-239.0,52.0,125.0,-68.0,-158.0,0
36.0,-238.0,46.0,124.0,-64.0,-141.0,0
36.0,-241.0,41.0,120.0,-54.0,-125.0,0
36.0,-243.0,46.0,113.0,-33.0,-111.0,0
36.0,-242.0,50.0,106.0,-3.0,-100.0,0
36.0,-238.0,53.0,103.0,28.0,-87.0,0
34.0,-239.0,54.0,106.0,53.0,-72.0,0
30.0,-238.0,56.0,112.0,71.0,-55.0,0
31.0,-233.0,55.0,117.0,85.0,-37.0,0
30.0,-238.0,60.0,117.0,95.0,-21.0,0
29.0,-239.0,63.0,114.0,104.0,-6.0,0
28.0,-235.0,65.0,109.0,110.0,7.0,0
27.0,-237.0,64.0,107.0,113.0,16.0,0
27.0,-237.0,67.0,106.0,116.0,22.0,0
28.0,-235.0,66.0,102.0,122.0,29.0,0
28.0,-236.0,63.0,97.0,134.0,35.0,0
30.0,-236.0,66.0,85.0,147.0,40.0,0
33.0,-235.0,68.0,71.0,162.0,40.0,0
35.0,-238.0,70.0,57.0,178.0,37.0,0
33.0,-241.0,73.0,41.0,198.0,33.0,0
31.0,-242.0,74.0,29.0,223.0,31.0,0
32.0,-243.0,77.0,23.0,250.0,32.0,0
30.0,-243.0,81.0,21.0,273.0,33.0,0
26.0,-247.0,86.0,19.0,288.0,34.0,0
22.0,-245.0,87.0,16.0,293.0,37.0,0
21.0,-247.0,88.0,9.0,289.0,41.0,0
18.0,-245.0,85.0,-1.0,281.0,44.0,0
18.0,-247.0,79.0,-15.0,270.0,46.0,0
18.0,-249.0,83.0,-26.0,261.0,44.0,0
12.0,-250.0,78.0,-33.0,253.0,41.0,0
13.0,-253.0,77.0,-38.0,247.0,36.0,0
9.0,-254.0,82.0,-38.0,236.0,28.0,0
10.0,-257.0,81.0,-36.0,220.0,23.0,0
8.0,-261.0,84.0,-30.0,196.0,21.0,0
5.0,-266.0,85.0,-16.0,167.0,21.0,0
3.0,-273.0,86.0,6.0,137.0,25.0,0
4.0,-276.0,82.0,29.0,110.0,32.0,0
1.0,-280.0,77.0,46.0,94.0,39.0,0
-6.0,-281.0,74.0,47.0,80.0,48.0,0
-15.0,-283.0,65.0,26.0,58.0,55.0,0
-20.0,-286.0,66.0,-7.0,15.0,63.0,0
-34.0,-283.0,59.0,-59.0,-36.0,70.0,0
-36.0,-285.0,64.0,-129.0,-89.0,62.0,0
-33.0,-289.0,64.0,-208.0,-145.0,37.0,0
-25.0,-296.0,58.0,-291.0,-190.0,11.0,0
-17.0,-308.0,57.0,-381.0,-213.0,-24.0,0
-14.0,-323.0,64.0,-480.0,-232.0,-72.0,0
-15.0,-351.0,73.0,-577.0,-259.0,-136.0,0
-13.0,-376.0,85.0,-655.0,-302.0,-208.0,0
-15.0,-392.0,88.0,-695.0,-346.0,-275.0,0
-8.0,-411.0,91.0,-686.0,-374.0,-328.0,0
9.0,-425.0,90.0,-637.0,-387.0,-371.0,0
8.0,-428.0,81.0,-565.0,-387.0,-414.0,0
15.0,-433.0,83.0,-483.0,-380.0,-450.0,0
22.0,-433.0,88.0,-410.0,-371.0,-478.0,0
28.0,-427.0,87.0,-357.0,-370.0,-495.0,0
35.0,-423.0,87.0,-328.0,-382.0,-497.0,0
47.0,-414.0,81.0,-322.0,-395.0,-478.0,0
59.0,-401.0,69.0,-340.0,-390.0,-450.0,0
65.0,-386.0,54.0,-377.0,-362.0,-419.0,0
68.0,-379.0,40.0,-430.0,-309.0,-400.0,0
67.0,-368.0,28.0,-489.0,-246.0,-382.0,0
61.0,-360.0,20.0,-543.0,-186.0,-361.0,0
47.0,-354.0,16.0,-576.0,-149.0,-338.0,0
38.0,-349.0,19.0,-589.0,-139.0,-306.0,0
36.0,-342.0,17.0,-568.0,-148.0,-270.0,0
43.0,-341.0,13.0,-518.0,-157.0,-229.0,0
57.0,-337.0,7.0,-447.0,-151.0,-189.0,0
61.0,-331.0,0.0,-372.0,-128.0,-150.0,0
63.0,-328.0,-1.0,-290.0,-105.0,-113.0,0
61.0,-320.0,1.0,-202.0,-100.0,-88.0,0
58.0,-310.0,4.0,-104.0,-114.0,-58.0,0
53.0,-301.0,8.0,5.0,-149.0,-17.0,0
48.0,-280.0,10.0,121.0,-193.0,24.0,0
52.0,-283.0,10.0,232.0,-231.0,60.0,0
51.0,-274.0,5.0,326.0,-248.0,85.0,0
49.0,-263.0,5.0,395.0,-245.0,98.0,0
43.0,-258.0,7.0,432.0,-225.0,103.0,0
45.0,-253.0,3.0,436.0,-193.0,108.0,0
45.0,-251.0,4.0,414.0,-161.0,115.0,0
36.0,-250.0,7.0,377.0,-131.0,125.0,0
39.0,-251.0,9.0,332.0,-110.0,139.0,0
33.0,-253.0,9.0,291.0,-96.0,149.0,0
28.0,-254.0,13.0,257.0,-81.0,154.0,0
24.0,-254.0,15.0,236.0,-68.0,162.0,0
20.0,-256.0,13.0,226.0,-59.0,175.0,0
14.0,-252.0,12.0,231.0,-57.0,185.0,0
12.0,-250.0,8.0,245.0,-60.0,195.0,0
8.0,-252.0,6.0,264.0,-66.0,203.0,0
8.0,-249.0,5.0,286.0,-72.0,209.0,0
7.0,-247.0,5.0,312.0,-80.0,212.0,0
4.0,-240.0,2.0,344.0,-88.0,217.0,0
4.0,-235.0,2.0,372.0,-91.0,226.0,0
0.0,-232.0,4.0,396.0,-92.0,241.0,0
-1.0,-217.0,2.0,410.0,-93.0,256.0,0
-3.0,-220.0,15.0,420.0,-98.0,270.0,0
-4.0,-215.0,15.0,426.0,-103.0,279.0,0
-1.0,-213.0,16.0,421.0,-108.0,287.0,0
-3.0,-206.0,21.0,408.0,-109.0,300.0,0
-4.0,-203.0,27.0,381.0,-114.0,316.0,0
0.0,-202.0,30.0,351.0,-118.0,334.0,0
-3.0,-204.0,28.0,318.0,-115.0,352.0,0
-1.0,-202.0,36.0,281.0,-107.0,369.0,0
-3.0,-209.0,38.0,247.0,-99.0,387.0,0
-1.0,-211.0,39.0,219.0,-100.0,404.0,0
-6.0,-216.0,41.0,196.0,-106.0,424.0,0
-6.0,-217.0,42.0,175.0,-114.0,443.0,0
-2.0,-221.0,38.0,153.0,-120.0,461.0,0
-7.0,-225.0,37.0,132.0,-124.0,472.0,0
-4.0,-227.0,33.0,116.0,-128.0,484.0,0
-5.0,-228.0,36.0,104.0,-131.0,491.0,0
-9.0,-228.0,31.0,99.0,-130.0,499.0,0
-7.0,-231.0,32.0,100.0,-131.0,503.0,0
-9.0,-229.0,24.0,104.0,-130.0,506.0,0
-5.0,-230.0,33.0,110.0,-131.0,505.0,0
-5.0,-227.0,28.0,118.0,-133.0,504.0,0
-7.0,-225.0,33.0,125.0,-132.0,504.0,0
-7.0,-226.0,27.0,131.0,-127.0,506.0,0
-5.0,-231.0,29.0,139.0,-119.0,510.0,0
-6.0,-229.0,35.0,152.0,-107.0,517.0,0
-6.0,-231.0,33.0,169.0,-95.0,525.0,0
-10.0,-233.0,34.0,182.0,-80.0,536.0,0
-5.0,-235.0,37.0,190.0,-68.0,550.0,0
-7.0,-235.0,34.0,201.0,-55.0,561.0,0
-8.0,-236.0,30.0,200.0,-41.0,572.0,0
-1.0,-239.0,31.0,177.0,-24.0,594.0,0
0.0,-238.0,29.0,154.0,-9.0,609.0,0
1.0,-237.0,29.0,144.0,5.0,616.0,0
0.0,-237.0,27.0,140.0,18.0,616.0,0
0.0,-236.0,28.0,129.0,37.0,620.0,0
0.0,-237.0,28.0,110.0,56.0,625.0,0
1.0,-237.0,33.0,90.0,73.0,631.0,0
-3.0,-235.0,36.0,73.0,84.0,632.0,0
0.0,-236.0,43.0,66.0,92.0,631.0,0
0.0,-237.0,45.0,73.0,101.0,627.0,0
0.0,-239.0,46.0,85.0,114.0,620.0,0
0.0,-236.0,45.0,110.0,126.0,613.0,0
-1.0,-233.0,47.0,133.0,138.0,605.0,0
-2.0,-229.0,45.0,151.0,151.0,590.0,0
0.0,-222.0,42.0,158.0,164.0,570.0,0
-5.0,-220.0,43.0,154.0,179.0,550.0,0
-6.0,-221.0,43.0,141.0,198.0,536.0,0
-10.0,-217.0,46.0,120.0,215.0,519.0,0
-11.0,-215.0,47.0,98.0,228.0,507.0,0
-18.0,-215.0,55.0,77.0,239.0,496.0,0
-21.0,-216.0,53.0,60.0,245.0,485.0,0
-27.0,-213.0,55.0,47.0,253.0,479.0,0
-29.0,-217.0,60.0,35.0,256.0,472.0,0
-32.0,-216.0,60.0,26.0,261.0,463.0,0
-29.0,-213.0,65.0,13.0,262.0,451.0,0
-40.0,-220.0,56.0,-1.0,264.0,435.0,0
-42.0,-223.0,53.0,-11.0,262.0,425.0,0
-51.0,-225.0,57.0,-15.0,259.0,416.0,0
-55.0,-223.0,51.0,-19.0,248.0,406.0,0
-60.0,-223.0,50.0,-23.0,234.0,396.0,0
-60.0,-226.0,45.0,-28.0,214.0,387.0,0
-63.0,-227.0,47.0,-35.0,194.0,376.0,0
-60.0,-224.0,46.0,-42.0,168.0,361.0,0
-57.0,-229.0,51.0,-45.0,147.0,346.0,0
-60.0,-227.0,48.0,-45.0,137.0,331.0,0
-59.0,-228.0,47.0,-45.0,136.0,314.0,0
-57.0,-228.0,50.0,-46.0,138.0,298.0,0
-58.0,-229.0,53.0,-47.0,134.0,284.0,0
-56.0,-234.0,57.0,-46.0,119.0,270.0,0
-56.0,-239.0,63.0,-45.0,97.0,257.0,0
-54.0,-236.0,64.0,-44.0,71.0,240.0,0
-56.0,-238.0,63.0,-46.0,46.0,223.0,0
-54.0,-235.0,63.0,-51.0,30.0,206.0,0
-54.0,-238.0,66.0,-60.0,19.0,188.0,0
-53.0,-234.0,68.0,-76.0,14.0,168.0,0
-50.0,-236.0,66.0,-97.0,6.0,146.0,0
-48.0,-234.0,72.0,-118.0,2.0,123.0,0
-45.0,-237.0,69.0,-134.0,-3.0,102.0,0
-47.0,-239.0,67.0,-139.0,-2.0,81.0,0
-42.0,-238.0,67.0,-134.0,-4.0,57.0,0
-41.0,-242.0,65.0,-118.0,1.0,33.0,0
-33.0,-240.0,64.0,-103.0,11.0,8.0,0
-40.0,-238.0,64.0,-90.0,21.0,-17.0,0
-36.0,-235.0,66.0,-90.0,32.0,-34.0,0
-37.0,-234.0,68.0,-106.0,42.0,-46.0,0
-41.0,-234.0,70.0,-128.0,49.0,-49.0,0
-37.0,-244.0,71.0,-165.0,54.0,-37.0,0
-42.0,-247.0,83.0,-200.0,62.0,-29.0,0
-40.0,-254.0,88.0,-221.0,75.0,-24.0,0
-38.0,-256.0,89.0,-226.0,82.0,-17.0,0
-35.0,-263.0,87.0,-220.0,86.0,-15.0,0
-32.0,-265.0,86.0,-207.0,95.0,-18.0,0
-32.0,-266.0,84.0,-189.0,107.0,-23.0,0
-35.0,-266.0,82.0,-168.0,118.0,-31.0,0
-33.0,-265.0,76.0,-151.0,128.0,-43.0,0
-31.0,-262.0,72.0,-138.0,137.0,-58.0,0
-26.0,-266.0,64.0,-138.0,151.0,-72.0,0
-28.0,-267.0,69.0,-149.0,173.0,-83.0,0
-21.0,-271.0,64.0,-170.0,203.0,-90.0,0
-17.0,-272.0,59.0,-198.0,228.0,-98.0,0
-12.0,-277.0,52.0,-234.0,249.0,-104.0,0
0.0,-287.0,46.0,-279.0,266.0,-116.0,0
0.0,-292.0,43.0,-330.0,280.0,-135.0,0
-4.0,-303.0,49.0,-379.0,297.0,-149.0,0
-11.0,-314.0,66.0,-424.0,303.0,-164.0,0
-29.0,-319.0,76.0,-449.0,303.0,-177.0,0
-37.0,-325.0,77.0,-463.0,296.0,-184.0,0
-56.0,-336.0,81.0,-487.0,300.0,-177.0,0
-62.0,-352.0,76.0,-535.0,322.0,-152.0,0
-76.0,-375.0,79.0,-602.0,352.0,-106.0,0
-80.0,-399.0,71.0,-678.0,388.0,-42.0,0
-90.0,-416.0,78.0,-750.0,420.0,34.0,0
-101.0,-436.0,68.0,-792.0,430.0,117.0,0
-113.0,-447.0,65.0,-785.0,411.0,196.0,0
-117.0,-447.0,51.0,-723.0,361.0,262.0,0
-123.0,-441.0,48.0,-638.0,292.0,314.0,0
-114.0,-430.0,37.0,-572.0,225.0,354.0,0
-101.0,-420.0,30.0,-510.0,179.0,382.0,0
-80.0,-403.0,24.0,-473.0,169.0,390.0,0
-53.0,-389.0,21.0,-457.0,194.0,371.0,0
-30.0,-374.0,32.0,-448.0,226.0,330.0,0
-14.0,-362.0,40.0,-420.0,274.0,274.0,0
-5.0,-345.0,44.0,-362.0,323.0,214.0,0
-4.0,-332.0,42.0,-291.0,367.0,163.0,0
0.0,-318.0,27.0,-230.0,386.0,95.0,0
-4.0,-304.0,8.0,-188.0,377.0,25.0,0
-5.0,-290.0,-7.0,-172.0,354.0,-52.0,0
-6.0,-279.0,-15.0,-176.0,333.0,-138.0,0
-12.0,-268.0,-24.0,-192.0,331.0,-215.0,0
-15.0,-254.0,-30.0,-205.0,351.0,-280.0,0
-24.0,-255.0,-20.0,-217.0,372.0,-337.0,0
-29.0,-251.0,-14.0,-220.0,377.0,-378.0,0
-34.0,-252.0,-11.0,-207.0,371.0,-414.0,0
-32.0,-252.0,-4.0,-184.0,361.0,-444.0,0
-34.0,-252.0,2.0,-158.0,349.0,-474.0,0
-29.0,-255.0,3.0,-127.0,338.0,-502.0,0
-36.0,-253.0,9.0,-91.0,326.0,-521.0,0
-36.0,-256.0,13.0,-55.0,320.0,-527.0,0
-38.0,-256.0,11.0,-25.0,319.0,-524.0,0
-37.0,-260.0,15.0,-1.0,326.0,-513.0,0
-33.0,-260.0,7.0,14.0,337.0,-501.0,0
-31.0,-262.0,9.0,26.0,357.0,-482.0,0
-28.0,-262.0,10.0,32.0,382.0,-458.0,0
-27.0,-264.0,8.0,31.0,413.0,-430.0,0
-21.0,-262.0,7.0,28.0,445.0,-397.0,0
-20.0,-261.0,10.0,22.0,472.0,-363.0,0
-19.0,-259.0,13.0,22.0,487.0,-328.0,0
-20.0,-257.0,11.0,25.0,494.0,-294.0,0
-19.0,-257.0,13.0,34.0,493.0,-263.0,0
-16.0,-256.0,14.0,53.0,485.0,-233.0,0
-15.0,-254.0,13.0,77.0,469.0,-210.0,0
-16.0,-255.0,16.0,104.0,452.0,-193.0,0
-10.0,-254.0,10.0,130.0,434.0,-185.0,0
-10.0,-251.0,11.0,148.0,417.0,-183.0,0
-8.0,-247.0,11.0,160.0,401.0,-188.0,0
-10.0,-247.0,15.0,168.0,383.0,-197.0,0
-9.0,-243.0,16.0,175.0,363.0,-213.0,0
-4.0,-244.0,14.0,185.0,344.0,-228.0,0
-4.0,-239.0,13.0,201.0,329.0,-252.0,0
-1.0,-243.0,14.0,213.0,319.0,-284.0,0
-1.0,-239.0,16.0,215.0,316.0,-322.0,0
-1.0,-241.0,13.0,212.0,313.0,-357.0,0
1.0,-240.0,10.0,208.0,308.0,-390.0,0
-2.0,-235.0,9.0,205.0,305.0,-418.0,0
-3.0,-236.0,10.0,205.0,304.0,-438.0,0
-6.0,-232.0,9.0,203.0,303.0,-452.0,0
-3.0,-230.0,12.0,201.0,306.0,-462.0,0
-8.0,-224.0,11.0,204.0,313.0,-464.0,0
-8.0,-222.0,14.0,209.0,322.0,-463.0,0
-7.0,-219.0,12.0,215.0,331.0,-459.0,0
-10.0,-219.0,15.0,220.0,337.0,-452.0,0
-9.0,-217.0,12.0,223.0,342.0,-443.0,0
-6.0,-214.0,14.0,223.0,345.0,-436.0,0
-1.0,-220.0,10.0,219.0,345.0,-428.0,0
-7.0,-218.0,6.0,216.0,344.0,-417.0,0
-3.0,-217.0,15.0,210.0,340.0,-412.0,0
0.0,-225.0,17.0,205.0,329.0,-411.0,0
0.0,-224.0,19.0,200.0,314.0,-408.0,0
2.0,-228.0,23.0,193.0,299.0,-405.0,0
5.0,-231.0,20.0,178.0,285.0,-404.0,0
4.0,-234.0,25.0,158.0,278.0,-409.0,0
9.0,-236.0,26.0,140.0,273.0,-416.0,0
7.0,-241.0,28.0,131.0,268.0,-425.0,0
6.0,-245.0,29.0,122.0,256.0,-439.0,0
3.0,-246.0,28.0,120.0,243.0,-450.0,0
4.0,-250.0,28.0,122.0,228.0,-461.0,0
4.0,-251.0,27.0,132.0,217.0,-468.0,0
4.0,-252.0,21.0,145.0,210.0,-474.0,0
4.0,-248.0,19.0,158.0,206.0,-481.0,0
3.0,-250.0,17.0,168.0,201.0,-484.0,0
1.0,-245.0,20.0,174.0,204.0,-483.0,0
1.0,-243.0,21.0,185.0,204.0,-481.0,0
0.0,-239.0,22.0,200.0,203.0,-479.0,0
1.0,-233.0,21.0,215.0,198.0,-479.0,0
-2.0,-229.0,17.0,226.0,187.0,-476.0,0
-6.0,-222.0,31.0,235.0,176.0,-470.0,0
-5.0,-219.0,27.0,237.0,162.0,-462.0,0
-7.0,-215.0,28.0,228.0,147.0,-454.0,0
-7.0,-214.0,32.0,218.0,130.0,-451.0,0
-9.0,-209.0,37.0,208.0,118.0,-444.0,0
-4.0,-213.0,33.0,194.0,103.0,-430.0,0
-4.0,-212.0,32.0,177.0,91.0,-418.0,0
3.0,-212.0,39.0,157.0,78.0,-404.0,0
4.0,-216.0,39.0,134.0,70.0,-387.0,0
4.0,-219.0,39.0,111.0,62.0,-375.0,0
9.0,-223.0,38.0,95.0,57.0,-362.0,0
13.0,-230.0,42.0,86.0,56.0,-343.0,0
14.0,-231.0,46.0,85.0,53.0,-321.0,0
16.0,-235.0,43.0,84.0,48.0,-307.0,0
17.0,-241.0,44.0,92.0,42.0,-286.0,0
15.0,-241.0,47.0,104.0,37.0,-269.0,0
19.0,-240.0,41.0,119.0,36.0,-253.0,0
19.0,-237.0,41.0,134.0,34.0,-236.0,0
23.0,-233.0,44.0,146.0,33.0,-218.0,0
24.0,-232.0,45.0,155.0,32.0,-203.0,0
26.0,-231.0,47.0,160.0,33.0,-189.0,0
38.0,-225.0,38.0,159.0,35.0,-176.0,0
30.0,-227.0,48.0,153.0,41.0,-166.0,0
30.0,-224.0,52.0,140.0,45.0,-155.0,0
28.0,-222.0,48.0,125.0,53.0,-139.0,0
31.0,-219.0,52.0,110.0,56.0,-127.0,0
33.0,-225.0,47.0,93.0,64.0,-116.0,0
32.0,-223.0,49.0,70.0,70.0,-109.0,0
35.0,-224.0,53.0,45.0,78.0,-102.0,0
39.0,-226.0,48.0,19.0,86.0,-98.0,0
37.0,-228.0,53.0,-6.0,98.0,-92.0,0
34.0,-231.0,53.0,-25.0,106.0,-86.0,0
32.0,-232.0,57.0,-37.0,110.0,-77.0,0
30.0,-237.0,59.0,-46.0,113.0,-68.0,0
30.0,-239.0,58.0,-56.0,118.0,-55.0,0
32.0,-240.0,62.0,-64.0,123.0,-40.0,0
29.0,-242.0,65.0,-72.0,129.0,-31.0,0
29.0,-242.0,65.0,-81.0,140.0,-21.0,0
27.0,-244.0,63.0,-87.0,150.0,-7.0,0
30.0,-248.0,67.0,-87.0,158.0,7.0,0
29.0,-251.0,72.0,-83.0,165.0,17.0,0
27.0,-252.0,74.0,-77.0,171.0,26.0,0
26.0,-251.0,78.0,-66.0,177.0,35.0,0
23.0,-245.0,90.0,-54.0,179.0,42.0,0
27.0,-254.0,80.0,-43.0,174.0,49.0,0
25.0,-253.0,80.0,-32.0,169.0,53.0,0
23.0,-253.0,80.0,-28.0,164.0,53.0,0
21.0,-256.0,80.0,-31.0,164.0,49.0,0
23.0,-257.0,74.0,-40.0,169.0,49.0,0
23.0,-258.0,75.0,-49.0,176.0,44.0,0
19.0,-260.0,76.0,-54.0,181.0,41.0,0
18.0,-262.0,74.0,-57.0,188.0,39.0,0
19.0,-270.0,74.0,-58.0,187.0,38.0,0
14.0,-270.0,78.0,-60.0,178.0,35.0,0
15.0,-276.0,78.0,-63.0,160.0,29.0,0
8.0,-278.0,76.0,-66.0,133.0,22.0,0
9.0,-286.0,72.0,-68.0,102.0,13.0,0
10.0,-290.0,65.0,-67.0,79.0,3.0,0
2.0,-291.0,58.0,-72.0,71.0,-10.0,0
-5.0,-294.0,60.0,-88.0,71.0,-20.0,0
-19.0,-297.0,65.0,-103.0,58.0,-20.0,0
-41.0,-301.0,71.0,-106.0,26.0,-12.0,0
-52.0,-309.0,83.0,-93.0,-21.0,4.0,0
-55.0,-310.0,91.0,-69.0,-82.0,21.0,0
-48.0,-313.0,82.0,-42.0,-140.0,44.0,0
-27.0,-320.0,67.0,-49.0,-166.0,52.0,0
-11.0,-328.0,66.0,-105.0,-170.0,36.0,0
0.0,-343.0,64.0,-197.0,-188.0,-6.0,0
8.0,-357.0,64.0,-289.0,-228.0,-54.0,0
17.0,-369.0,60.0,-349.0,-262.0,-100.0,0
25.0,-372.0,46.0,-381.0,-276.0,-141.0,0
30.0,-370.0,43.0,-398.0,-275.0,-174.0,0
37.0,-364.0,37.0,-409.0,-263.0,-207.0,0
43.0,-362.0,29.0,-425.0,-248.0,-240.0,0
45.0,-363.0,40.0,-453.0,-243.0,-278.0,0
39.0,-368.0,56.0,-484.0,-255.0,-312.0,0
31.0,-379.0,73.0,-507.0,-284.0,-326.0,0
25.0,-390.0,82.0,-503.0,-325.0,-312.0,0
21.0,-391.0,82.0,-479.0,-377.0,-284.0,0
25.0,-388.0,74.0,-442.0,-425.0,-253.0,0
30.0,-381.0,62.0,-417.0,-458.0,-229.0,0
35.0,-375.0,46.0,-415.0,-479.0,-210.0,0
42.0,-372.0,28.0,-433.0,-475.0,-195.0,0
43.0,-370.0,13.0,-465.0,-448.0,-181.0,0
49.0,-366.0,1.0,-497.0,-413.0,-163.0,0
45.0,-361.0,-1.0,-516.0,-388.0,-139.0,0
47.0,-352.0,-3.0,-507.0,-377.0,-116.0,0
47.0,-346.0,-1.0,-468.0,-376.0,-102.0,0
47.0,-335.0,-4.0,-411.0,-386.0,-98.0,0
50.0,-321.0,-10.0,-344.0,-399.0,-103.0,0
52.0,-308.0,-14.0,-270.0,-412.0,-109.0,0
50.0,-294.0,-16.0,-197.0,-423.0,-110.0,0
50.0,-279.0,-17.0,-127.0,-432.0,-109.0,0
49.0,-270.0,-15.0,-54.0,-441.0,-107.0,0
47.0,-255.0,-13.0,17.0,-452.0,-106.0,0
41.0,-244.0,-13.0,82.0,-463.0,-99.0,0
40.0,-237.0,-5.0,137.0,-469.0,-90.0,0
38.0,-234.0,-5.0,181.0,-474.0,-79.0,0
38.0,-232.0,-1.0,207.0,-477.0,-69.0,0
40.0,-235.0,1.0,212.0,-476.0,-57.0,0
37.0,-241.0,0.0,194.0,-466.0,-43.0,0
36.0,-252.0,4.0,159.0,-454.0,-23.0,0
35.0,-262.0,8.0,124.0,-441.0,3.0,0
27.0,-269.0,12.0,101.0,-429.0,35.0,0
25.0,-271.0,14.0,105.0,-421.0,63.0,0
22.0,-270.0,18.0,140.0,-418.0,88.0,0
18.0,-263.0,11.0,197.0,-417.0,106.0,0
11.0,-258.0,15.0,258.0,-412.0,122.0,0
7.0,-255.0,14.0,311.0,-404.0,155.0,0
5.0,-251.0,13.0,347.0,-395.0,195.0,0
0.0,-247.0,8.0,367.0,-389.0,226.0,0
-6.0,-240.0,12.0,376.0,-385.0,248.0,0
-12.0,-233.0,13.0,386.0,-383.0,269.0,0
-13.0,-229.0,11.0,389.0,-384.0,294.0,0
-15.0,-225.0,9.0,383.0,-381.0,318.0,0
-14.0,-220.0,9.0,370.0,-378.0,343.0,0
-16.0,-215.0,9.0,348.0,-372.0,367.0,0
-15.0,-212.0,6.0,317.0,-371.0,386.0,0
-9.0,-213.0,5.0,285.0,-364.0,399.0,0
-9.0,-209.0,7.0,255.0,-353.0,408.0,0
-8.0,-206.0,4.0,229.0,-338.0,416.0,0
-6.0,-204.0,10.0,207.0,-321.0,424.0,0
0.0,-207.0,14.0,190.0,-311.0,433.0,0
3.0,-209.0,15.0,176.0,-309.0,439.0,0
5.0,-212.0,20.0,167.0,-308.0,441.0,0
9.0,-211.0,25.0,163.0,-303.0,442.0,0
11.0,-216.0,32.0,158.0,-292.0,445.0,0
13.0,-219.0,28.0,149.0,-276.0,445.0,0
9.0,-222.0,30.0,133.0,-263.0,443.0,0
5.0,-226.0,26.0,114.0,-252.0,444.0,0
9.0,-232.0,29.0,95.0,-243.0,443.0,0
7.0,-236.0,28.0,81.0,-234.0,442.0,0
11.0,-235.0,27.0,75.0,-223.0,440.0,0
2.0,-240.0,22.0,75.0,-208.0,435.0,0
1.0,-245.0,21.0,81.0,-196.0,430.0,0
0.0,-245.0,17.0,91.0,-187.0,422.0,0
-4.0,-242.0,18.0,109.0,-178.0,416.0,0
-5.0,-244.0,12.0,130.0,-166.0,410.0,0
-6.0,-243.0,11.0,147.0,-153.0,408.0,0
-9.0,-237.0,12.0,158.0,-140.0,403.0,0
-12.0,-241.0,12.0,160.0,-134.0,399.0,0
-12.0,-237.0,9.0,158.0,-126.0,400.0,0
-14.0,-238.0,8.0,158.0,-120.0,404.0,0
-14.0,-242.0,9.0,152.0,-113.0,415.0,0
-15.0,-238.0,13.0,144.0,-105.0,429.0,0
-14.0,-239.0,9.0,133.0,-97.0,448.0,0
-13.0,-239.0,14.0,117.0,-93.0,465.0,0
-14.0,-240.0,18.0,107.0,-90.0,484.0,0
-11.0,-242.0,20.0,104.0,-89.0,505.0,0
-10.0,-242.0,24.0,105.0,-86.0,529.0,0
-5.0,-246.0,23.0,102.0,-83.0,544.0,0
-5.0,-252.0,29.0,97.0,-75.0,552.0,0
-4.0,-243.0,23.0,96.0,-66.0,556.0,0
-2.0,-244.0,25.0,83.0,-57.0,563.0,0
-5.0,-244.0,28.0,74.0,-43.0,562.0,0
-1.0,-244.0,38.0,72.0,-30.0,562.0,0
-5.0,-246.0,36.0,77.0,-20.0,564.0,0
-10.0,-245.0,40.0,84.0,-14.0,566.0,0
-13.0,-243.0,44.0,91.0,-13.0,568.0,0
-16.0,-241.0,41.0,98.0,-15.0,568.0,0
-17.0,-239.0,44.0,99.0,-20.0,564.0,0
-19.0,-240.0,42.0,96.0,-21.0,561.0,0
-19.0,-237.0,41.0,91.0,-20.0,559.0,0
-20.0,-234.0,43.0,85.0,-14.0,556.0,0
-17.0,-230.0,40.0,78.0,-8.0,543.0,0
-20.0,-225.0,40.0,66.0,-7.0,536.0,0
-18.0,-224.0,39.0,48.0,-3.0,528.0,0
-16.0,-226.0,38.0,23.0,1.0,520.0,0
-16.0,-233.0,45.0,-3.0,12.0,511.0,0
-17.0,-236.0,49.0,-28.0,28.0,498.0,0
-16.0,-237.0,48.0,-46.0,48.0,489.0,0
-19.0,-245.0,48.0,-52.0,67.0,479.0,0
-23.0,-252.0,47.0,-49.0,82.0,467.0,0
-21.0,-254.0,48.0,-44.0,92.0,451.0,0
-20.0,-255.0,52.0,-33.0,100.0,433.0,0
-18.0,-258.0,51.0,-19.0,109.0,416.0,0
-25.0,-258.0,45.0,-3.0,119.0,399.0,0
-22.0,-261.0,37.0,14.0,130.0,383.0,0
-25.0,-258.0,44.0,28.0,138.0,358.0,0
-29.0,-257.0,41.0,44.0,145.0,333.0,0
-35.0,-256.0,40.0,59.0,146.0,308.0,0
-34.0,-249.0,45.0,72.0,141.0,288.0,0
-35.0,-248.0,45.0,78.0,129.0,274.0,0
-35.0,-242.0,49.0,77.0,112.0,260.0,0
-38.0,-236.0,54.0,73.0,89.0,240.0,0
-39.0,-232.0,58.0,68.0,62.0,221.0,0
-43.0,-229.0,61.0,65.0,37.0,207.0,0
-35.0,-229.0,60.0,60.0,17.0,197.0,0
-42.0,-231.0,61.0,49.0,4.0,183.0,0
-40.0,-228.0,61.0,32.0,-8.0,164.0,0
-41.0,-230.0,59.0,11.0,-18.0,150.0,0
-44.0,-232.0,59.0,-13.0,-23.0,136.0,0
-45.0,-232.0,56.0,-34.0,-26.0,121.0,0
-50.0,-232.0,57.0,-53.0,-30.0,106.0,0
-57.0,-233.0,53.0,-65.0,-31.0,95.0,0
-55.0,-240.0,48.0,-76.0,-29.0,87.0,0
-52.0,-242.0,44.0,-89.0,-24.0,78.0,0
-52.0,-245.0,46.0,-101.0,-13.0,75.0,0
-51.0,-247.0,48.0,-116.0,0.0,70.0,0
-50.0,-251.0,50.0,-131.0,11.0,64.0,0
-46.0,-256.0,59.0,-139.0,21.0,61.0,0
-48.0,-255.0,60.0,-139.0,22.0,57.0,0
-37.0,-264.0,63.0,-127.0,17.0,60.0,0
-37.0,-263.0,63.0,-101.0,14.0,59.0,0
-33.0,-264.0,65.0,-66.0,18.0,60.0,0
-31.0,-262.0,63.0,-31.0,29.0,59.0,0
-21.0,-264.0,57.0,-3.0,43.0,56.0,0
-22.0,-256.0,57.0,7.0,58.0,46.0,0
-17.0,-253.0,56.0,-4.0,77.0,35.0,0
-16.0,-250.0,57.0,-28.0,103.0,22.0,0
-13.0,-251.0,54.0,-54.0,137.0,9.0,0
-18.0,-250.0,56.0,-81.0,173.0,-3.0,0
-20.0,-254.0,57.0,-96.0,209.0,-16.0,0
-24.0,-255.0,62.0,-103.0,241.0,-27.0,0
-26.0,-257.0,61.0,-101.0,271.0,-36.0,0
-31.0,-258.0,64.0,-92.0,300.0,-43.0,0
-28.0,-264.0,63.0,-80.0,329.0,-48.0,0
-31.0,-274.0,65.0,-63.0,358.0,-53.0,0
-30.0,-275.0,64.0,-47.0,384.0,-54.0,0
-36.0,-279.0,57.0,-39.0,407.0,-54.0,0
-30.0,-286.0,52.0,-55.0,428.0,-58.0,0
-20.0,-287.0,47.0,-90.0,450.0,-76.0,0
-22.0,-291.0,46.0,-135.0,471.0,-104.0,0
-31.0,-294.0,46.0,-176.0,494.0,-133.0,0
-41.0,-297.0,41.0,-206.0,504.0,-159.0,0
-46.0,-300.0,35.0,-239.0,493.0,-175.0,0
-46.0,-303.0,26.0,-288.0,471.0,-180.0,0
-47.0,-308.0,27.0,-354.0,459.0,-170.0,0
-53.0,-319.0,23.0,-432.0,465.0,-150.0,0
-64.0,-332.0,30.0,-510.0,488.0,-109.0,0
-66.0,-345.0,44.0,-581.0,506.0,-54.0,0
-63.0,-357.0,49.0,-624.0,499.0,2.0,0
-54.0,-367.0,61.0,-619.0,460.0,50.0,0
-54.0,-369.0,67.0,-564.0,396.0,94.0,0
-65.0,-369.0,63.0,-496.0,329.0,143.0,0
-77.0,-362.0,61.0,-410.0,277.0,193.0,0
-85.0,-361.0,56.0,-350.0,235.0,237.0,0
-79.0,-369.0,43.0,-327.0,204.0,275.0,0
-75.0,-366.0,39.0,-329.0,193.0,299.0,0
-57.0,-366.0,36.0,-348.0,203.0,301.0,0
-42.0,-366.0,40.0,-368.0,232.0,281.0,0
-27.0,-363.0,35.0,-380.0,270.0,247.0,0
-17.0,-358.0,34.0,-377.0,313.0,194.0,0
-10.0,-354.0,33.0,-361.0,360.0,145.0,0
-13.0,-345.0,26.0,-345.0,412.0,104.0,0
-12.0,-339.0,16.0,-337.0,457.0,67.0,0
-13.0,-334.0,5.0,-336.0,476.0,34.0,0
-10.0,-328.0,-8.0,-342.0,476.0,-2.0,0
-12.0,-320.0,-17.0,-345.0,464.0,-42.0,0
-13.0,-313.0,-21.0,-342.0,455.0,-85.0,0
-13.0,-303.0,-21.0,-330.0,454.0,-129.0,0
-16.0,-294.0,-22.0,-312.0,463.0,-174.0,0
-20.0,-279.0,-21.0,-289.0,468.0,-215.0,0
-14.0,-275.0,-22.0,-262.0,467.0,-245.0,0
-15.0,-270.0,-23.0,-239.0,464.0,-292.0,0
-20.0,-264.0,-27.0,-222.0,462.0,-344.0,0
-21.0,-258.0,-25.0,-209.0,470.0,-390.0,0
-23.0,-256.0,-26.0,-204.0,473.0,-426.0,0
-20.0,-255.0,-28.0,-204.0,469.0,-452.0,0
-30.0,-254.0,-30.0,-203.0,469.0,-468.0,0
-31.0,-257.0,-31.0,-200.0,474.0,-478.0,0
-28.0,-261.0,-24.0,-195.0,484.0,-482.0,0
-27.0,-269.0,-12.0,-181.0,497.0,-483.0,0
-28.0,-272.0,-3.0,-158.0,508.0,-471.0,0
-29.0,-277.0,6.0,-119.0,515.0,-452.0,0
-26.0,-274.0,7.0,-67.0,521.0,-428.0,0
-24.0,-280.0,6.0,-15.0,526.0,-399.0,0
-25.0,-279.0,18.0,35.0,533.0,-368.0,0
-26.0,-278.0,17.0,75.0,541.0,-336.0,0
-26.0,-275.0,21.0,105.0,551.0,-303.0,0
-32.0,-273.0,14.0,122.0,556.0,-271.0,0
-29.0,-269.0,15.0,129.0,556.0,-242.0,0
-35.0,-264.0,15.0,131.0,550.0,-216.0,0
-33.0,-266.0,20.0,135.0,535.0,-195.0,0
-33.0,-259.0,13.0,143.0,518.0,-181.0,0
-29.0,-259.0,11.0,150.0,494.0,-172.0,0
-28.0,-256.0,11.0,155.0,475.0,-165.0,0
-24.0,-256.0,11.0,160.0,456.0,-160.0,0
-21.0,-254.0,5.0,166.0,442.0,-171.0,0
-21.0,-247.0,6.0,172.0,429.0,-190.0,0
-25.0,-248.0,21.0,181.0,415.0,-211.0,0
-17.0,-244.0,7.0,195.0,397.0,-234.0,0
-15.0,-244.0,10.0,214.0,379.0,-256.0,0
-12.0,-243.0,11.0,232.0,361.0,-279.0,0
-10.0,-238.0,15.0,246.0,341.0,-300.0,0
-9.0,-238.0,15.0,252.0,328.0,-321.0,0
-7.0,-235.0,17.0,256.0,313.0,-340.0,0
-3.0,-237.0,15.0,255.0,301.0,-356.0,0
-4.0,-232.0,18.0,258.0,292.0,-374.0,0
-1.0,-233.0,14.0,260.0,285.0,-390.0,0
0.0,-231.0,8.0,256.0,280.0,-402.0,0
0.0,-229.0,7.0,248.0,276.0,-410.0,0
1.0,-226.0,4.0,238.0,275.0,-414.0,0
2.0,-228.0,-2.0,228.0,281.0,-415.0,0
4.0,-222.0,-1.0,222.0,291.0,-412.0,0
6.0,-221.0,-7.0,216.0,302.0,-409.0,0
5.0,-218.0,-7.0,212.0,314.0,-404.0,0
8.0,-215.0,-7.0,208.0,325.0,-403.0,0
11.0,-214.0,0.0,204.0,329.0,-403.0,0
10.0,-208.0,1.0,199.0,333.0,-404.0,0
15.0,-209.0,4.0,198.0,332.0,-404.0,0
10.0,-205.0,5.0,199.0,333.0,-401.0,0
13.0,-202.0,12.0,200.0,332.0,-401.0,0
18.0,-204.0,16.0,196.0,331.0,-403.0,0
18.0,-205.0,20.0,181.0,327.0,-405.0,0
21.0,-211.0,22.0,161.0,324.0,-405.0,0
19.0,-212.0,22.0,142.0,325.0,-408.0,0
23.0,-219.0,24.0,124.0,326.0,-411.0,0
20.0,-225.0,24.0,105.0,329.0,-416.0,0
19.0,-228.0,22.0,91.0,332.0,-418.0,0
19.0,-235.0,27.0,84.0,337.0,-422.0,0
16.0,-240.0,29.0,86.0,336.0,-427.0,0
14.0,-237.0,27.0,94.0,330.0,-432.0,0
15.0,-245.0,25.0,109.0,322.0,-435.0,0
12.0,-244.0,26.0,122.0,318.0,-437.0,0
7.0,-243.0,27.0,134.0,317.0,-444.0,0
8.0,-245.0,24.0,139.0,316.0,-443.0,0
5.0,-246.0,27.0,143.0,317.0,-447.0,0
6.0,-247.0,23.0,143.0,326.0,-450.0,0
3.0,-245.0,25.0,144.0,336.0,-452.0,0
10.0,-249.0,23.0,148.0,346.0,-451.0,0
5.0,-244.0,22.0,157.0,356.0,-453.0,0
4.0,-246.0,21.0,168.0,357.0,-453.0,0
1.0,-237.0,23.0,172.0,348.0,-452.0,0
3.0,-239.0,21.0,168.0,335.0,-450.0,0
0.0,-236.0,26.0,153.0,316.0,-447.0,0
2.0,-237.0,24.0,141.0,300.0,-443.0,0
2.0,-237.0,25.0,135.0,283.0,-438.0,0
4.0,-239.0,24.0,128.0,270.0,-433.0,0
6.0,-239.0,24.0,122.0,255.0,-427.0,0
7.0,-235.0,25.0,110.0,238.0,-419.0,0
8.0,-234.0,27.0,93.0,216.0,-410.0,0
16.0,-236.0,30.0,73.0,197.0,-405.0,0
18.0,-237.0,26.0,51.0,185.0,-396.0,0
21.0,-243.0,30.0,33.0,186.0,-383.0,0
21.0,-244.0,35.0,20.0,189.0,-369.0,0
22.0,-247.0,40.0,18.0,192.0,-352.0,0
21.0,-251.0,39.0,26.0,190.0,-334.0,0
19.0,-250.0,42.0,38.0,186.0,-316.0,0
22.0,-253.0,40.0,51.0,182.0,-299.0,0
22.0,-251.0,39.0,62.0,181.0,-284.0,0
22.0,-250.0,40.0,69.0,182.0,-272.0,0
24.0,-243.0,38.0,71.0,179.0,-266.0,0
22.0,-236.0,32.0,73.0,179.0,-257.0,0
20.0,-230.0,32.0,69.0,180.0,-250.0,0
16.0,-217.0,30.0,61.0,178.0,-235.0,0
23.0,-219.0,36.0,48.0,177.0,-226.0,0
24.0,-214.0,33.0,24.0,178.0,-223.0,0
25.0,-210.0,33.0,-10.0,184.0,-227.0,0
29.0,-212.0,37.0,-50.0,192.0,-229.0,0
27.0,-212.0,39.0,-87.0,202.0,-237.0,0
28.0,-213.0,41.0,-119.0,202.0,-247.0,0
31.0,-212.0,39.0,-143.0,199.0,-255.0,0
32.0,-215.0,43.0,-162.0,193.0,-261.0,0
32.0,-220.0,40.0,-177.0,187.0,-269.0,0
33.0,-223.0,36.0,-194.0,181.0,-273.0,0
36.0,-229.0,36.0,-213.0,180.0,-277.0,0
37.0,-231.0,35.0,-234.0,185.0,-276.0,0
34.0,-237.0,35.0,-248.0,193.0,-271.0,0
39.0,-241.0,40.0,-260.0,194.0,-266.0,0
32.0,-244.0,41.0,-260.0,187.0,-257.0,0
32.0,-247.0,42.0,-251.0,174.0,-244.0,0
29.0,-249.0,42.0,-240.0,159.0,-223.0,0
28.0,-250.0,46.0,-230.0,145.0,-195.0,0
23.0,-252.0,42.0,-225.0,135.0,-162.0,0
22.0,-254.0,46.0,-223.0,125.0,-126.0,0
25.0,-258.0,49.0,-221.0,115.0,-87.0,0
28.0,-262.0,56.0,-213.0,104.0,-47.0,0
27.0,-262.0,57.0,-196.0,91.0,-7.0,0
31.0,-261.0,56.0,-171.0,81.0,32.0,0
34.0,-261.0,61.0,-141.0,69.0,69.0,0
38.0,-262.0,64.0,-109.0,55.0,101.0,0
38.0,-257.0,64.0,-83.0,41.0,126.0,0
42.0,-259.0,64.0,-65.0,28.0,148.0,0
45.0,-253.0,63.0,-57.0,23.0,164.0,0
42.0,-254.0,65.0,-59.0,19.0,173.0,0
40.0,-250.0,62.0,-70.0,19.0,172.0,0
44.0,-252.0,64.0,-89.0,20.0,168.0,0
39.0,-249.0,58.0,-110.0,23.0,159.0,0
39.0,-254.0,63.0,-136.0,28.0,147.0,0
39.0,-257.0,61.0,-162.0,25.0,132.0,0
35.0,-264.0,60.0,-190.0,21.0,113.0,0
36.0,-274.0,58.0,-218.0,15.0,93.0,0
26.0,-278.0,58.0,-249.0,13.0,72.0,0
14.0,-289.0,66.0,-280.0,5.0,59.0,0
-5.0,-291.0,75.0,-293.0,-23.0,51.0,0
-20.0,-304.0,88.0,-269.0,-68.0,58.0,0
-26.0,-315.0,86.0,-216.0,-119.0,74.0,0
-27.0,-327.0,78.0,-161.0,-156.0,87.0,0
-11.0,-330.0,63.0,-136.0,-154.0,90.0,0
0.0,-336.0,54.0,-155.0,-123.0,72.0,0
2.0,-351.0,56.0,-208.0,-94.0,31.0,0
10.0,-374.0,62.0,-275.0,-101.0,-25.0,0
14.0,-382.0,68.0,-334.0,-135.0,-74.0,0
23.0,-379.0,62.0,-368.0,-180.0,-122.0,0
32.0,-375.0,49.0,-390.0,-208.0,-173.0,0
43.0,-372.0,40.0,-404.0,-195.0,-217.0,0
48.0,-370.0,36.0,-426.0,-149.0,-260.0,0
47.0,-361.0,38.0,-450.0,-104.0,-301.0,0
43.0,-357.0,42.0,-466.0,-64.0,-330.0,0
38.0,-358.0,40.0,-472.0,-63.0,-346.0,0
38.0,-359.0,42.0,-474.0,-105.0,-346.0,0
43.0,-368.0,45.0,-476.0,-172.0,-336.0,0
48.0,-376.0,51.0,-464.0,-241.0,-317.0,0
48.0,-381.0,51.0,-427.0,-295.0,-303.0,0
47.0,-373.0,41.0,-371.0,-333.0,-297.0,0
48.0,-369.0,22.0,-319.0,-362.0,-299.0,0
47.0,-354.0,9.0,-291.0,-372.0,-315.0,0
46.0,-346.0,2.0,-288.0,-363.0,-337.0,0
36.0,-335.0,1.0,-305.0,-349.0,-359.0,0
18.0,-327.0,1.0,-326.0,-345.0,-359.0,0
16.0,-318.0,2.0,-355.0,-368.0,-347.0,0
26.0,-315.0,-7.0,-394.0,-412.0,-323.0,0
36.0,-315.0,-22.0,-437.0,-449.0,-284.0,0
48.0,-315.0,-35.0,-483.0,-458.0,-236.0,0
55.0,-316.0,-36.0,-520.0,-446.0,-189.0,0
51.0,-321.0,-36.0,-533.0,-436.0,-142.0,0
43.0,-319.0,-29.0,-502.0,-443.0,-96.0,0
40.0,-314.0,-31.0,-425.0,-472.0,-47.0,0
38.0,-313.0,-30.0,-323.0,-513.0,2.0,0
33.0,-302.0,-28.0,-212.0,-552.0,47.0,0
33.0,-294.0,-29.0,-110.0,-581.0,82.0,0
33.0,-288.0,-33.0,-21.0,-600.0,103.0,0
34.0,-282.0,-29.0,53.0,-612.0,117.0,0
31.0,-280.0,-33.0,109.0,-617.0,120.0,0
29.0,-279.0,-25.0,151.0,-624.0,117.0,0
24.0,-273.0,-17.0,182.0,-633.0,114.0,0
19.0,-266.0,-19.0,212.0,-642.0,115.0,0
22.0,-264.0,-13.0,237.0,-653.0,117.0,0
19.0,-261.0,-10.0,253.0,-661.0,120.0,0
23.0,-261.0,-11.0,249.0,-658.0,126.0,0
35.0,-256.0,-18.0,232.0,-643.0,132.0,0
24.0,-273.0,-7.0,202.0,-617.0,143.0,0
27.0,-266.0,-5.0,173.0,-589.0,158.0,0
18.0,-268.0,-9.0,147.0,-568.0,175.0,0
14.0,-266.0,-9.0,126.0,-554.0,191.0,0
8.0,-264.0,-6.0,115.0,-550.0,208.0,0
0.0,-264.0,-3.0,119.0,-548.0,228.0,0
0.0,-262.0,-4.0,136.0,-545.0,250.0,0
-1.0,-259.0,-1.0,163.0,-541.0,279.0,0
-4.0,-257.0,0.0,196.0,-530.0,309.0,0
-6.0,-247.0,2.0,231.0,-515.0,340.0,0
-2.0,-239.0,-1.0,262.0,-493.0,375.0,0
-3.0,-238.0,1.0,284.0,-472.0,409.0,0
-1.0,-228.0,1.0,292.0,-452.0,444.0,0
-1.0,-223.0,3.0,291.0,-435.0,471.0,0
-1.0,-217.0,2.0,281.0,-421.0,494.0,0
-1.0,-212.0,2.0,267.0,-409.0,512.0,0
1.0,-207.0,1.0,254.0,-400.0,534.0,0
0.0,-200.0,3.0,240.0,-393.0,553.0,0
5.0,-199.0,1.0,219.0,-385.0,572.0,0
6.0,-199.0,-3.0,192.0,-381.0,590.0,0
10.0,-196.0,-2.0,159.0,-376.0,602.0,0
9.0,-200.0,-4.0,125.0,-364.0,616.0,0
10.0,-205.0,-5.0,95.0,-345.0,626.0,0
13.0,-212.0,-5.0,67.0,-323.0,633.0,0
14.0,-218.0,-4.0,50.0,-302.0,633.0,0
15.0,-221.0,-2.0,41.0,-278.0,628.0,0
9.0,-224.0,-2.0,41.0,-255.0,620.0,0
6.0,-228.0,-1.0,46.0,-234.0,612.0,0
2.0,-231.0,-3.0,57.0,-217.0,600.0,0
3.0,-233.0,-2.0,75.0,-203.0,588.0,0
4.0,-232.0,-4.0,87.0,-188.0,574.0,0
2.0,-228.0,-5.0,96.0,-171.0,560.0,0
0.0,-230.0,-8.0,104.0,-151.0,547.0,0
2.0,-228.0,-5.0,112.0,-128.0,539.0,0
1.0,-227.0,-7.0,109.0,-106.0,536.0,0
0.0,-226.0,-11.0,104.0,-85.0,536.0,0
0.0,-225.0,-2.0,100.0,-65.0,537.0,0
0.0,-228.0,0.0,99.0,-48.0,543.0,0
-4.0,-227.0,1.0,96.0,-34.0,553.0,0
-9.0,-228.0,3.0,93.0,-25.0,568.0,0
-3.0,-230.0,2.0,87.0,-17.0,582.0,0
-5.0,-232.0,1.0,84.0,-10.0,601.0,0
-6.0,-233.0,-3.0,80.0,-3.0,618.0,0
-7.0,-229.0,7.0,64.0,7.0,638.0,0
-9.0,-233.0,9.0,43.0,16.0,661.0,0
-10.0,-232.0,8.0,25.0,19.0,679.0,0
-16.0,-234.0,9.0,12.0,21.0,692.0,0
-21.0,-231.0,8.0,14.0,21.0,703.0,0
-24.0,-229.0,12.0,29.0,18.0,710.0,0
-26.0,-226.0,13.0,49.0,7.0,711.0,0
-27.0,-226.0,7.0,65.0,-3.0,710.0,0
-29.0,-225.0,10.0,81.0,-3.0,712.0,0
-30.0,-221.0,4.0,85.0,4.0,710.0,0
-28.0,-218.0,2.0,79.0,15.0,702.0,0
-30.0,-217.0,4.0,56.0,25.0,691.0,0
-32.0,-214.0,7.0,25.0,33.0,681.0,0
-29.0,-217.0,5.0,-5.0,38.0,674.0,0
-30.0,-214.0,3.0,-32.0,42.0,667.0,0
-32.0,-223.0,7.0,-56.0,45.0,660.0,0
-30.0,-226.0,7.0,-77.0,47.0,655.0,0
-29.0,-232.0,6.0,-93.0,53.0,651.0,0
-27.0,-233.0,7.0,-109.0,64.0,643.0,0
-24.0,-239.0,7.0,-124.0,77.0,631.0,0
-25.0,-243.0,5.0,-133.0,91.0,614.0,0
-20.0,-249.0,7.0,-137.0,102.0,592.0,0
-23.0,-249.0,9.0,-131.0,110.0,567.0,0
-25.0,-251.0,12.0,-119.0,118.0,544.0,0
-23.0,-254.0,9.0,-103.0,128.0,519.0,0
-29.0,-252.0,4.0,-92.0,135.0,493.0,0
-28.0,-250.0,7.0,-90.0,140.0,463.0,0
-31.0,-248.0,6.0,-96.0,142.0,432.0,0
-33.0,-249.0,3.0,-107.0,144.0,402.0,0
-36.0,-247.0,0.0,-120.0,150.0,370.0,0
-36.0,-247.0,1.0,-133.0,162.0,342.0,0
-38.0,-243.0,1.0,-143.0,177.0,318.0,0
-41.0,-245.0,3.0,-150.0,193.0,299.0,0
-44.0,-246.0,7.0,-155.0,207.0,283.0,0
-45.0,-242.0,10.0,-161.0,217.0,276.0,0
-46.0,-241.0,9.0,-166.0,220.0,269.0,0
-48.0,-240.0,19.0,-173.0,218.0,266.0,0
-45.0,-243.0,21.0,-176.0,210.0,265.0,0
-47.0,-242.0,24.0,-177.0,198.0,262.0,0
-47.0,-243.0,23.0,-177.0,188.0,258.0,0
-48.0,-246.0,24.0,-178.0,183.0,255.0,0
-45.0,-247.0,29.0,-184.0,183.0,253.0,0
-50.0,-245.0,26.0,-196.0,184.0,249.0,0
-59.0,-245.0,23.0,-213.0,180.0,242.0,0
-58.0,-249.0,28.0,-233.0,173.0,232.0,0
-58.0,-252.0,28.0,-254.0,166.0,224.0,0
-60.0,-251.0,24.0,-271.0,161.0,213.0,0
-65.0,-254.0,22.0,-281.0,159.0,201.0,0
-67.0,-256.0,29.0,-281.0,157.0,193.0,0
-70.0,-261.0,26.0,-273.0,156.0,190.0,0
-73.0,-258.0,29.0,-260.0,154.0,190.0,0
-72.0,-258.0,31.0,-241.0,147.0,189.0,0
-71.0,-259.0,30.0,-219.0,136.0,190.0,0
-69.0,-260.0,34.0,-197.0,128.0,190.0,0
-67.0,-262.0,38.0,-179.0,125.0,191.0,0
-64.0,-261.0,35.0,-162.0,123.0,187.0,0
-61.0,-261.0,30.0,-151.0,127.0,182.0,0
-57.0,-263.0,34.0,-145.0,134.0,176.0,0
-56.0,-259.0,36.0,-145.0,145.0,168.0,0
-53.0,-261.0,35.0,-146.0,154.0,153.0,0
-47.0,-264.0,31.0,-153.0,165.0,129.0,0
-47.0,-262.0,30.0,-165.0,187.0,108.0,0
-44.0,-262.0,29.0,-178.0,219.0,85.0,0
-42.0,-260.0,30.0,-189.0,254.0,63.0,0
-32.0,-265.0,34.0,-192.0,289.0,41.0,0
-36.0,-269.0,29.0,-182.0,322.0,20.0,0
-34.0,-270.0,27.0,-164.0,362.0,5.0,0
-36.0,-278.0,34.0,-136.0,399.0,-7.0,0
-35.0,-286.0,42.0,-101.0,426.0,-20.0,0
-35.0,-292.0,56.0,-56.0,434.0,-32.0,0
-30.0,-299.0,58.0,-4.0,430.0,-45.0,0
-27.0,-306.0,60.0,48.0,431.0,-57.0,0
-23.0,-311.0,58.0,99.0,432.0,-65.0,0
-16.0,-319.0,49.0,137.0,431.0,-73.0,0
-13.0,-325.0,42.0,167.0,436.0,-94.0,0
-15.0,-324.0,40.0,191.0,450.0,-120.0,0
-23.0,-322.0,32.0,211.0,469.0,-139.0,0
-33.0,-323.0,29.0,224.0,481.0,-153.0,0
-49.0,-320.0,25.0,226.0,483.0,-158.0,0
-66.0,-317.0,22.0,203.0,475.0,-144.0,0
-83.0,-316.0,18.0,148.0,465.0,-107.0,0
-94.0,-318.0,16.0,70.0,445.0,-54.0,0
-101.0,-322.0,14.0,-25.0,415.0,4.0,0
-109.0,-325.0,9.0,-121.0,368.0,56.0,0
-116.0,-335.0,12.0,-198.0,313.0,104.0,0
-125.0,-347.0,8.0,-263.0,257.0,155.0,0
-121.0,-351.0,15.0,-304.0,205.0,202.0,0
-131.0,-361.0,8.0,-326.0,160.0,239.0,0
-128.0,-373.0,9.0,-333.0,123.0,272.0,0
-124.0,-382.0,14.0,-322.0,97.0,293.0,0
-108.0,-386.0,10.0,-291.0,87.0,301.0,0
-90.0,-391.0,10.0,-246.0,91.0,285.0,0
-73.0,-390.0,10.0,-205.0,104.0,256.0,0
-60.0,-391.0,14.0,-147.0,122.0,220.0,0
-52.0,-383.0,17.0,-82.0,137.0,181.0,0
-38.0,-382.0,20.0,-7.0,144.0,142.0,0
-31.0,-365.0,10.0,74.0,141.0,103.0,0
-14.0,-349.0,2.0,150.0,126.0,56.0,0
-10.0,-337.0,-11.0,207.0,100.0,3.0,0
-6.0,-310.0,-26.0,233.0,76.0,-49.0,0
-13.0,-291.0,-36.0,233.0,59.0,-93.0,0
-15.0,-280.0,-37.0,202.0,49.0,-147.0,0
-24.0,-265.0,-38.0,162.0,43.0,-200.0,0
-35.0,-255.0,-38.0,118.0,50.0,-247.0,0
-34.0,-254.0,-32.0,87.0,67.0,-267.0,0
-41.0,-247.0,-33.0,73.0,93.0,-283.0,0
-47.0,-242.0,-36.0,69.0,121.0,-301.0,0
-53.0,-245.0,-35.0,70.0,139.0,-312.0,0
-53.0,-232.0,-41.0,76.0,150.0,-315.0,0
-44.0,-234.0,-44.0,87.0,159.0,-309.0,0
-37.0,-232.0,-47.0,99.0,170.0,-301.0,0
-28.0,-237.0,-46.0,118.0,188.0,-300.0,0
-18.0,-242.0,-47.0,128.0,219.0,-304.0,0
-14.0,-243.0,-48.0,125.0,254.0,-309.0,0
-4.0,-249.0,-42.0,110.0,287.0,-322.0,0
-1.0,-254.0,-42.0,90.0,313.0,-336.0,0
-5.0,-256.0,-40.0,64.0,336.0,-345.0,0
-4.0,-262.0,-31.0,38.0,352.0,-349.0,0
-7.0,-265.0,-29.0,27.0,364.0,-351.0,0
-11.0,-270.0,-20.0,36.0,371.0,-346.0,0
-18.0,-275.0,-14.0,64.0,376.0,-338.0,0
-18.0,-275.0,-1.0,112.0,379.0,-331.0,0
-19.0,-277.0,-4.0,168.0,382.0,-327.0,0
-20.0,-274.0,-3.0,234.0,388.0,-327.0,0
-22.0,-271.0,-1.0,303.0,392.0,-334.0,0
-20.0,-268.0,-1.0,368.0,395.0,-345.0,0
-17.0,-259.0,-5.0,425.0,394.0,-358.0,0
-18.0,-255.0,-11.0,470.0,393.0,-370.0,0
-17.0,-251.0,-16.0,503.0,393.0,-379.0,0
-12.0,-238.0,-13.0,516.0,397.0,-387.0,0
-13.0,-241.0,-25.0,511.0,408.0,-406.0,0
-14.0,-241.0,-22.0,486.0,419.0,-435.0,0
-15.0,-238.0,-23.0,450.0,428.0,-468.0,0
-17.0,-235.0,-16.0,413.0,423.0,-495.0,0
-19.0,-234.0,-15.0,389.0,411.0,-517.0,0
-24.0,-233.0,-5.0,375.0,395.0,-526.0,0
-26.0,-230.0,-3.0,373.0,373.0,-527.0,0
-31.0,-233.0,5.0,378.0,343.0,-521.0,0
-29.0,-233.0,3.0,385.0,314.0,-513.0,0
-28.0,-232.0,4.0,386.0,292.0,-509.0,0
-32.0,-236.0,4.0,375.0,279.0,-504.0,0
-34.0,-235.0,2.0,355.0,268.0,-502.0,0
-34.0,-236.0,3.0,329.0,250.0,-501.0,0
-31.0,-237.0,2.0,305.0,230.0,-502.0,0
-25.0,-235.0,-5.0,288.0,210.0,-503.0,0
-21.0,-233.0,-7.0,283.0,192.0,-499.0,0
-23.0,-229.0,-4.0,287.0,178.0,-492.0,0
-19.0,-230.0,-5.0,297.0,164.0,-484.0,0
-17.0,-227.0,-9.0,311.0,146.0,-477.0,0
-10.0,-223.0,-9.0,326.0,125.0,-478.0,0
-1.0,-219.0,-21.0,339.0,98.0,-482.0,0
-2.0,-214.0,-17.0,347.0,78.0,-491.0,0
-1.0,-209.0,-16.0,351.0,65.0,-503.0,0
2.0,-204.0,-13.0,348.0,56.0,-519.0,0
2.0,-198.0,-12.0,336.0,53.0,-534.0,0
2.0,-199.0,-10.0,312.0,55.0,-545.0,0
1.0,-202.0,-2.0,273.0,59.0,-555.0,0
0.0,-206.0,-3.0,231.0,59.0,-564.0,0
4.0,-216.0,9.0,191.0,53.0,-574.0,0
3.0,-220.0,8.0,162.0,45.0,-588.0,0
2.0,-224.0,7.0,140.0,37.0,-604.0,0
4.0,-229.0,14.0,127.0,30.0,-616.0,0
3.0,-236.0,15.0,120.0,23.0,-626.0,0
5.0,-243.0,18.0,119.0,16.0,-631.0,0
8.0,-248.0,21.0,121.0,9.0,-638.0,0
13.0,-256.0,20.0,123.0,2.0,-644.0,0
10.0,-256.0,26.0,143.0,-4.0,-651.0,0
10.0,-256.0,24.0,180.0,-14.0,-656.0,0
13.0,-254.0,24.0,215.0,-26.0,-657.0,0
12.0,-252.0,12.0,231.0,-33.0,-656.0,0
17.0,-250.0,14.0,223.0,-34.0,-656.0,0
14.0,-247.0,14.0,203.0,-23.0,-658.0,0
11.0,-249.0,19.0,178.0,-19.0,-654.0,0
6.0,-240.0,15.0,160.0,-22.0,-642.0,0
4.0,-236.0,15.0,154.0,-33.0,-626.0,0
1.0,-234.0,12.0,152.0,-45.0,-613.0,0
2.0,-235.0,10.0,150.0,-53.0,-605.0,0
3.0,-234.0,11.0,139.0,-58.0,-595.0,0
4.0,-234.0,12.0,116.0,-64.0,-583.0,0
3.0,-234.0,12.0,88.0,-73.0,-573.0,0
5.0,-237.0,16.0,48.0,-83.0,-561.0,0
3.0,-239.0,19.0,11.0,-95.0,-550.0,0
2.0,-242.0,26.0,-11.0,-109.0,-534.0,0
7.0,-243.0,27.0,-15.0,-121.0,-520.0,0
10.0,-251.0,29.0,-7.0,-139.0,-508.0,0
12.0,-254.0,28.0,0.0,-156.0,-502.0,0
12.0,-253.0,31.0,2.0,-174.0,-498.0,0
15.0,-256.0,30.0,-1.0,-189.0,-495.0,0
15.0,-260.0,35.0,-1.0,-202.0,-492.0,0
16.0,-263.0,41.0,0.0,-212.0,-485.0,0
15.0,-262.0,40.0,8.0,-216.0,-477.0,0
18.0,-259.0,39.0,21.0,-217.0,-468.0,0
21.0,-257.0,37.0,36.0,-212.0,-457.0,0
21.0,-255.0,36.0,49.0,-205.0,-452.0,0
33.0,-246.0,31.0,56.0,-197.0,-438.0,0
27.0,-250.0,32.0,53.0,-192.0,-419.0,0
29.0,-250.0,31.0,41.0,-190.0,-400.0,0
27.0,-246.0,28.0,32.0,-196.0,-385.0,0
35.0,-248.0,27.0,21.0,-204.0,-372.0,0
38.0,-247.0,28.0,3.0,-208.0,-361.0,0
38.0,-242.0,26.0,-13.0,-208.0,-355.0,0
39.0,-243.0,30.0,-31.0,-205.0,-348.0,0
39.0,-239.0,30.0,-48.0,-203.0,-348.0,0
37.0,-235.0,30.0,-59.0,-200.0,-348.0,0
37.0,-235.0,38.0,-61.0,-194.0,-341.0,0
35.0,-233.0,33.0,-60.0,-185.0,-334.0,0
34.0,-229.0,43.0,-57.0,-181.0,-322.0,0
31.0,-228.0,45.0,-55.0,-187.0,-311.0,0
32.0,-226.0,48.0,-58.0,-205.0,-305.0,0
35.0,-223.0,47.0,-67.0,-227.0,-296.0,0
37.0,-223.0,42.0,-78.0,-246.0,-291.0,0
37.0,-225.0,48.0,-93.0,-255.0,-285.0,0
40.0,-223.0,46.0,-107.0,-257.0,-273.0,0
37.0,-221.0,44.0,-118.0,-260.0,-257.0,0
38.0,-223.0,45.0,-124.0,-263.0,-242.0,0
39.0,-225.0,42.0,-127.0,-266.0,-233.0,0
32.0,-229.0,48.0,-128.0,-268.0,-224.0,0
42.0,-228.0,45.0,-125.0,-272.0,-220.0,0
40.0,-227.0,46.0,-114.0,-275.0,-213.0,0
34.0,-224.0,49.0,-99.0,-282.0,-203.0,0
37.0,-228.0,54.0,-78.0,-289.0,-187.0,0
36.0,-228.0,51.0,-58.0,-295.0,-168.0,0
38.0,-226.0,52.0,-45.0,-298.0,-150.0,0
40.0,-230.0,54.0,-37.0,-293.0,-129.0,0
44.0,-237.0,53.0,-38.0,-280.0,-108.0,0
43.0,-236.0,57.0,-45.0,-262.0,-92.0,0
43.0,-240.0,55.0,-51.0,-245.0,-76.0,0
41.0,-241.0,62.0,-51.0,-230.0,-55.0,0
44.0,-241.0,62.0,-46.0,-220.0,-25.0,0
44.0,-243.0,66.0,-40.0,-208.0,11.0,0
45.0,-245.0,64.0,-37.0,-194.0,50.0,0
47.0,-246.0,62.0,-37.0,-177.0,87.0,0
48.0,-247.0,66.0,-39.0,-160.0,123.0,0
48.0,-248.0,64.0,-44.0,-143.0,160.0,0
51.0,-251.0,62.0,-52.0,-130.0,196.0,0
52.0,-253.0,60.0,-66.0,-121.0,229.0,0
56.0,-258.0,54.0,-83.0,-113.0,260.0,0
51.0,-269.0,44.0,-101.0,-101.0,288.0,0
54.0,-267.0,45.0,-121.0,-91.0,316.0,0
49.0,-276.0,36.0,-141.0,-78.0,341.0,0
46.0,-286.0,37.0,-153.0,-56.0,362.0,0
42.0,-303.0,43.0,-164.0,-36.0,378.0,0
34.0,-315.0,49.0,-164.0,-27.0,383.0,0
31.0,-328.0,54.0,-144.0,-32.0,380.0,0
32.0,-336.0,55.0,-113.0,-42.0,366.0,0
34.0,-345.0,55.0,-80.0,-36.0,345.0,0
41.0,-351.0,54.0,-54.0,-9.0,317.0,0
42.0,-355.0,55.0,-41.0,29.0,277.0,0
47.0,-358.0,51.0,-53.0,73.0,230.0,0
53.0,-362.0,39.0,-97.0,118.0,172.0,0
52.0,-368.0,37.0,-168.0,167.0,111.0,0
56.0,-365.0,27.0,-253.0,206.0,59.0,0
63.0,-361.0,25.0,-331.0,230.0,24.0,0
70.0,-357.0,19.0,-390.0,242.0,-1.0,0
81.0,-350.0,19.0,-427.0,250.0,-21.0,0
86.0,-348.0,16.0,-460.0,255.0,-36.0,0
89.0,-352.0,16.0,-501.0,256.0,-50.0,0
87.0,-364.0,21.0,-551.0,258.0,-54.0,0
86.0,-381.0,28.0,-604.0,265.0,-51.0,0
85.0,-397.0,33.0,-637.0,274.0,-40.0,0
79.0,-408.0,31.0,-644.0,280.0,-20.0,0
78.0,-421.0,33.0,-623.0,283.0,8.0,0
83.0,-430.0,29.0,-579.0,292.0,38.0,0
82.0,-435.0,22.0,-530.0,306.0,64.0,0
82.0,-437.0,11.0,-497.0,321.0,80.0,0
75.0,-429.0,2.0,-469.0,338.0,84.0,0
65.0,-421.0,-2.0,-451.0,342.0,88.0,0
55.0,-407.0,-2.0,-428.0,339.0,95.0,0
47.0,-394.0,-2.0,-391.0,324.0,93.0,0
43.0,-378.0,-4.0,-342.0,306.0,81.0,0
38.0,-362.0,-6.0,-278.0,278.0,61.0,0
38.0,-342.0,-3.0,-209.0,248.0,37.0,0
31.0,-322.0,-9.0,-136.0,216.0,19.0,0
29.0,-298.0,-11.0,-64.0,181.0,-6.0,0
24.0,-279.0,-14.0,1.0,139.0,-19.0,0
24.0,-256.0,-15.0,60.0,91.0,-22.0,0
13.0,-237.0,-20.0,108.0,43.0,-21.0,0
6.0,-216.0,-23.0,139.0,-3.0,-15.0,0
4.0,-206.0,-24.0,148.0,-44.0,-4.0,0
0.0,-190.0,-28.0,136.0,-86.0,11.0,0
-12.0,-183.0,-37.0,101.0,-133.0,34.0,0
0.0,-181.0,-36.0,39.0,-180.0,60.0,0
0.0,-181.0,-46.0,-52.0,-221.0,89.0,0
6.0,-192.0,-46.0,-160.0,-247.0,121.0,0
19.0,-210.0,-50.0,-274.0,-255.0,153.0,0
27.0,-230.0,-46.0,-374.0,-245.0,186.0,0
33.0,-242.0,-41.0,-442.0,-226.0,218.0,0
34.0,-258.0,-26.0,-470.0,-205.0,247.0,0
38.0,-266.0,-23.0,-458.0,-187.0,269.0,0
39.0,-272.0,-19.0,-417.0,-170.0,287.0,0
39.0,-276.0,-13.0,-356.0,-150.0,308.0,0
40.0,-279.0,-6.0,-290.0,-129.0,327.0,0
40.0,-280.0,-4.0,-219.0,-102.0,349.0,0
36.0,-277.0,-1.0,-148.0,-68.0,373.0,0
40.0,-274.0,-8.0,-73.0,-26.0,397.0,0
37.0,-267.0,-4.0,1.0,18.0,420.0,0
38.0,-261.0,-15.0,67.0,67.0,441.0,0
40.0,-257.0,-20.0,117.0,117.0,462.0,0
42.0,-252.0,-27.0,151.0,172.0,475.0,0
42.0,-244.0,-30.0,167.0,224.0,480.0,0
40.0,-235.0,-31.0,173.0,274.0,477.0,0
46.0,-232.0,-28.0,186.0,316.0,465.0,0
53.0,-235.0,-35.0,205.0,351.0,445.0,0
52.0,-227.0,-25.0,210.0,388.0,424.0,0
55.0,-225.0,-20.0,210.0,434.0,400.0,0
52.0,-218.0,-17.0,220.0,479.0,377.0,0
49.0,-215.0,-13.0,228.0,520.0,361.0,0
48.0,-213.0,-11.0,220.0,553.0,350.0,0
48.0,-208.0,-8.0,197.0,578.0,341.0,0
46.0,-204.0,-9.0,168.0,597.0,333.0,0
36.0,-204.0,-3.0,137.0,618.0,334.0,0
34.0,-205.0,0.0,110.0,643.0,341.0,0
23.0,-208.0,3.0,85.0,668.0,352.0,0
19.0,-208.0,4.0,68.0,696.0,364.0,0
16.0,-208.0,2.0,63.0,724.0,375.0,0
12.0,-211.0,1.0,66.0,756.0,389.0,0
6.0,-209.0,3.0,76.0,790.0,406.0,0
0.0,-207.0,-2.0,87.0,825.0,422.0,0
-4.0,-208.0,0.0,94.0,853.0,439.0,0
-9.0,-203.0,-5.0,94.0,876.0,451.0,0
-15.0,-201.0,-8.0,86.0,888.0,462.0,0
-20.0,-196.0,-9.0,75.0,891.0,470.0,0
-22.0,-195.0,-11.0,60.0,891.0,476.0,0
-28.0,-198.0,-16.0,41.0,886.0,477.0,0
-41.0,-198.0,-17.0,19.0,876.0,479.0,0
-33.0,-197.0,-11.0,-1.0,862.0,479.0,0
-29.0,-206.0,-1.0,-16.0,849.0,479.0,0
-28.0,-208.0,2.0,-25.0,842.0,479.0,0
-28.0,-216.0,1.0,-31.0,840.0,477.0,0
-24.0,-224.0,8.0,-32.0,837.0,475.0,0
-20.0,-232.0,4.0,-27.0,833.0,473.0,0
-18.0,-235.0,5.0,-12.0,825.0,471.0,0
-9.0,-244.0,12.0,6.0,818.0,470.0,0
-7.0,-247.0,10.0,30.0,818.0,470.0,0
-2.0,-254.0,8.0,56.0,821.0,467.0,0
3.0,-256.0,8.0,87.0,831.0,457.0,0
4.0,-257.0,10.0,121.0,845.0,442.0,0
9.0,-255.0,12.0,155.0,863.0,417.0,0
14.0,-258.0,5.0,184.0,883.0,388.0,0
11.0,-255.0,5.0,213.0,901.0,351.0,0
15.0,-249.0,6.0,239.0,921.0,309.0,0
19.0,-248.0,7.0,269.0,942.0,267.0,0
17.0,-247.0,9.0,297.0,964.0,228.0,0
17.0,-243.0,9.0,317.0,984.0,189.0,0
19.0,-237.0,5.0,337.0,1005.0,152.0,0
11.0,-239.0,-2.0,349.0,1026.0,123.0,0
17.0,-232.0,-4.0,354.0,1049.0,97.0,0
11.0,-229.0,-3.0,350.0,1070.0,81.0,0
9.0,-227.0,-1.0,336.0,1093.0,70.0,0
2.0,-227.0,-8.0,318.0,1106.0,66.0,0
-3.0,-227.0,-8.0,302.0,1114.0,68.0,0
1.0,-228.0,-12.0,283.0,1122.0,72.0,0
-3.0,-229.0,-11.0,267.0,1126.0,79.0,0
-3.0,-225.0,-15.0,251.0,1134.0,86.0,0
-8.0,-228.0,-13.0,239.0,1145.0,95.0,0
-9.0,-231.0,-17.0,221.0,1161.0,101.0,0
-9.0,-233.0,-19.0,199.0,1179.0,109.0,0
-6.0,-237.0,-19.0,176.0,1201.0,115.0,0
-5.0,-242.0,-13.0,155.0,1228.0,121.0,0
-6.0,-245.0,-9.0,140.0,1251.0,122.0,0
-2.0,-254.0,-12.0,132.0,1278.0,122.0,0
-1.0,-254.0,-9.0,133.0,1306.0,118.0,0
0.0,-258.0,-6.0,142.0,1333.0,110.0,0
2.0,-261.0,-7.0,153.0,1355.0,101.0,0
1.0,-265.0,-5.0,166.0,1374.0,89.0,0
4.0,-264.0,-1.0,181.0,1391.0,76.0,0
2.0,-261.0,2.0,199.0,1408.0,60.0,0
7.0,-270.0,-2.0,221.0,1425.0,46.0,0
3.0,-264.0,2.0,242.0,1445.0,32.0,0
7.0,-259.0,4.0,260.0,1467.0,19.0,0
5.0,-256.0,3.0,273.0,1489.0,2.0,0
3.0,-253.0,0.0,275.0,1517.0,-15.0,0
1.0,-251.0,4.0,266.0,1546.0,-29.0,0
-1.0,-251.0,0.0,249.0,1572.0,-41.0,0
0.0,-249.0,-5.0,224.0,1598.0,-55.0,0
-5.0,-249.0,-7.0,192.0,1626.0,-65.0,0
-3.0,-250.0,-3.0,158.0,1652.0,-76.0,0
-5.0,-248.0,0.0,129.0,1675.0,-83.0,0
-3.0,-251.0,-5.0,109.0,1693.0,-86.0,0
-2.0,-250.0,0.0,105.0,1704.0,-86.0,0
0.0,-249.0,-2.0,107.0,1720.0,-87.0,0
1.0,-251.0,-3.0,110.0,1739.0,-89.0,0
7.0,-247.0,-6.0,108.0,1765.0,-94.0,0
8.0,-252.0,-7.0,99.0,1799.0,-101.0,0
6.0,-246.0,-8.0,85.0,1832.0,-109.0,0
14.0,-253.0,-8.0,65.0,1864.0,-118.0,0
13.0,-254.0,-10.0,40.0,1895.0,-133.0,0
17.0,-259.0,-10.0,17.0,1925.0,-145.0,0
18.0,-265.0,-6.0,-3.0,1955.0,-154.0,0
17.0,-268.0,1.0,-13.0,1984.0,-161.0,0
12.0,-272.0,-2.0,-12.0,2004.0,-167.0,0
16.0,-277.0,-1.0,3.0,2016.0,-174.0,0
11.0,-273.0,-1.0,25.0,2032.0,-180.0,0
9.0,-271.0,0.0,52.0,2057.0,-178.0,0
8.0,-270.0,0.0,79.0,2086.0,-177.0,0
3.0,-264.0,2.0,98.0,2115.0,-175.0,0
1.0,-261.0,1.0,107.0,2142.0,-169.0,0
0.0,-256.0,-1.0,100.0,2170.0,-161.0,0
0.0,-260.0,-3.0,84.0,2199.0,-152.0,0
-1.0,-258.0,-6.0,64.0,2230.0,-143.0,0
-1.0,-259.0,-2.0,39.0,2258.0,-134.0,0
-7.0,-258.0,-3.0,19.0,2282.0,-124.0,0
-5.0,-262.0,-2.0,4.0,2301.0,-115.0,0
-10.0,-261.0,2.0,-7.0,2317.0,-104.0,0
-11.0,-268.0,1.0,-14.0,2329.0,-97.0,0
-14.0,-268.0,0.0,-21.0,2340.0,-93.0,0
-13.0,-272.0,9.0,-27.0,2350.0,-88.0,0
-16.0,-273.0,10.0,-27.0,2355.0,-87.0,0
-15.0,-277.0,10.0,-26.0,2357.0,-88.0,0
-18.0,-275.0,13.0,-28.0,2360.0,-91.0,0
-11.0,-272.0,6.0,-34.0,2371.0,-96.0,0
-18.0,-274.0,5.0,-43.0,2387.0,-100.0,0
-19.0,-277.0,6.0,-57.0,2405.0,-102.0,0
-29.0,-272.0,9.0,-67.0,2421.0,-101.0,0
-34.0,-272.0,6.0,-69.0,2425.0,-97.0,0
-41.0,-269.0,3.0,-60.0,2418.0,-83.0,0
-43.0,-270.0,1.0,-45.0,2413.0,-64.0,0
-42.0,-270.0,2.0,-31.0,2410.0,-43.0,0
-44.0,-272.0,1.0,-26.0,2413.0,-25.0,0
-43.0,-272.0,-1.0,-31.0,2424.0,-7.0,0
-41.0,-274.0,2.0,-39.0,2439.0,8.0,0
-34.0,-282.0,6.0,-42.0,2454.0,18.0,0
-26.0,-289.0,9.0,-36.0,2470.0,22.0,0
-28.0,-291.0,16.0,-20.0,2491.0,26.0,0
-31.0,-295.0,23.0,1.0,2515.0,30.0,0
-29.0,-300.0,28.0,27.0,2529.0,29.0,0
-24.0,-303.0,34.0,59.0,2531.0,24.0,0
-22.0,-302.0,38.0,93.0,2520.0,12.0,0
-17.0,-301.0,41.0,129.0,2508.0,1.0,0
-10.0,-296.0,39.0,168.0,2501.0,-11.0,0
-4.0,-292.0,35.0,207.0,2495.0,-28.0,0
-6.0,-278.0,42.0,243.0,2491.0,-42.0,0
-1.0,-275.0,35.0,271.0,2493.0,-55.0,0
-8.0,-265.0,32.0,287.0,2497.0,-67.0,0
-12.0,-254.0,31.0,291.0,2497.0,-75.0,0
-15.0,-248.0,27.0,282.0,2495.0,-80.0,0
-18.0,-242.0,16.0,262.0,2494.0,-86.0,0
-24.0,-237.0,13.0,234.0,2496.0,-92.0,0
-27.0,-235.0,12.0,197.0,2510.0,-101.0,0
-25.0,-239.0,7.0,155.0,2528.0,-115.0,0
-29.0,-239.0,10.0,122.0,2551.0,-133.0,0
-26.0,-249.0,12.0,87.0,2569.0,-151.0,0
-22.0,-256.0,12.0,68.0,2584.0,-173.0,0
-18.0,-261.0,14.0,68.0,2600.0,-197.0,0
-15.0,-267.0,20.0,87.0,2607.0,-219.0,0
-14.0,-269.0,17.0,120.0,2619.0,-240.0,0
-9.0,-272.0,22.0,162.0,2624.0,-265.0,0
-2.0,-268.0,25.0,211.0,2617.0,-291.0,0
-1.0,-267.0,23.0,268.0,2610.0,-312.0,0
-2.0,-257.0,26.0,313.0,2600.0,-340.0,0
-1.0,-254.0,17.0,335.0,2592.0,-366.0,0
-9.0,-248.0,13.0,336.0,2587.0,-387.0,0
-14.0,-240.0,10.0,318.0,2586.0,-401.0,0
-14.0,-240.0,10.0,289.0,2582.0,-410.0,0
-17.0,-238.0,5.0,252.0,2571.0,-418.0,0
-24.0,-234.0,8.0,219.0,2563.0,-426.0,0
-32.0,-230.0,9.0,200.0,2558.0,-431.0,0
-36.0,-234.0,6.0,185.0,2550.0,-433.0,0
-43.0,-235.0,6.0,170.0,2536.0,-433.0,0
-54.0,-241.0,11.0,149.0,2522.0,-429.0,0
-61.0,-245.0,8.0,125.0,2505.0,-418.0,0
-64.0,-247.0,7.0,95.0,2481.0,-400.0,0
-69.0,-256.0,2.0,63.0,2453.0,-378.0,0
-67.0,-260.0,1.0,28.0,2422.0,-350.0,0
-66.0,-267.0,3.0,-4.0,2387.0,-319.0,0
-64.0,-275.0,1.0,-25.0,2351.0,-283.0,0
-63.0,-278.0,0.0,-30.0,2314.0,-244.0,0
-64.0,-277.0,0.0,-19.0,2271.0,-204.0,0
-58.0,-282.0,0.0,0.0,2222.0,-164.0,0
-53.0,-277.0,-2.0,25.0,2166.0,-130.0,0
-43.0,-276.0,0.0,51.0,2103.0,-103.0,0
-33.0,-267.0,1.0,74.0,2040.0,-83.0,0
-26.0,-259.0,0.0,92.0,1988.0,-71.0,0
-14.0,-255.0,-2.0,104.0,1949.0,-64.0,0
-6.0,-254.0,-2.0,106.0,1921.0,-65.0,0
-3.0,-248.0,0.0,95.0,1902.0,-71.0,0
4.0,-250.0,2.0,78.0,1890.0,-78.0,0
10.0,-252.0,2.0,57.0,1880.0,-85.0,0
8.0,-250.0,7.0,39.0,1873.0,-90.0,0
8.0,-254.0,10.0,24.0,1866.0,-89.0,0
9.0,-257.0,8.0,12.0,1856.0,-89.0,0
11.0,-262.0,7.0,5.0,1842.0,-84.0,0
20.0,-262.0,4.0,3.0,1830.0,-78.0,0
25.0,-266.0,3.0,5.0,1828.0,-71.0,0
26.0,-263.0,0.0,7.0,1846.0,-62.0,0
25.0,-262.0,2.0,3.0,1875.0,-54.0,0
23.0,-260.0,0.0,-5.0,1906.0,-43.0,0
24.0,-257.0,-1.0,-17.0,1933.0,-30.0,0
26.0,-261.0,-2.0,-28.0,1956.0,-16.0,0
30.0,-258.0,3.0,-34.0,1974.0,-9.0,0
34.0,-255.0,2.0,-28.0,1993.0,-7.0,0
39.0,-256.0,-5.0,-20.0,2021.0,-5.0,0
43.0,-260.0,-3.0,-26.0,2060.0,-3.0,0
40.0,-258.0,2.0,-41.0,2097.0,-7.0,0
43.0,-263.0,2.0,-56.0,2121.0,-20.0,0
44.0,-270.0,4.0,-71.0,2139.0,-39.0,0
44.0,-277.0,5.0,-86.0,2160.0,-62.0,0
44.0,-278.0,2.0,-100.0,2189.0,-88.0,0
40.0,-287.0,0.0,-112.0,2224.0,-119.0,0
34.0,-293.0,2.0,-120.0,2263.0,-149.0,0
30.0,-297.0,-5.0,-118.0,2298.0,-176.0,0
22.0,-301.0,-6.0,-99.0,2328.0,-200.0,0
19.0,-300.0,-2.0,-64.0,2343.0,-220.0,0
16.0,-301.0,0.0,-20.0,2342.0,-238.0,0
13.0,-297.0,1.0,28.0,2336.0,-255.0,0
10.0,-296.0,2.0,71.0,2335.0,-276.0,0
11.0,-294.0,5.0,106.0,2341.0,-299.0,0
8.0,-290.0,12.0,133.0,2359.0,-320.0,0
4.0,-279.0,16.0,167.0,2381.0,-345.0,0
1.0,-274.0,20.0,206.0,2401.0,-366.0,0
3.0,-268.0,21.0,238.0,2418.0,-380.0,0
-5.0,-263.0,22.0,264.0,2430.0,-393.0,0
-3.0,-257.0,24.0,275.0,2430.0,-400.0,0
0.0,-255.0,17.0,267.0,2418.0,-405.0,0
6.0,-252.0,15.0,240.0,2406.0,-413.0,0
8.0,-252.0,19.0,200.0,2399.0,-420.0,0
8.0,-248.0,26.0,156.0,2401.0,-425.0,0
6.0,-246.0,33.0,114.0,2405.0,-428.0,0
12.0,-247.0,36.0,83.0,2416.0,-431.0,0
14.0,-246.0,38.0,56.0,2425.0,-434.0,0
14.0,-250.0,40.0,27.0,2428.0,-439.0,0
21.0,-254.0,43.0,-9.0,2424.0,-440.0,0
19.0,-257.0,46.0,-45.0,2410.0,-442.0,0
21.0,-263.0,50.0,-68.0,2388.0,-439.0,0
22.0,-267.0,54.0,-73.0,2365.0,-435.0,0
26.0,-273.0,55.0,-65.0,2344.0,-431.0,0
24.0,-274.0,46.0,-51.0,2327.0,-431.0,0
26.0,-277.0,49.0,-40.0,2315.0,-430.0,0
25.0,-275.0,46.0,-31.0,2302.0,-430.0,0
25.0,-272.0,46.0,-25.0,2293.0,-429.0,0
26.0,-268.0,46.0,-17.0,2286.0,-431.0,0
25.0,-267.0,45.0,-11.0,2283.0,-431.0,0
23.0,-263.0,36.0,-6.0,2287.0,-434.0,0
21.0,-262.0,39.0,-9.0,2292.0,-436.0,0
16.0,-259.0,36.0,-14.0,2294.0,-433.0,0
17.0,-263.0,31.0,-26.0,2290.0,-429.0,0
15.0,-261.0,31.0,-41.0,2279.0,-422.0,0
14.0,-266.0,26.0,-53.0,2274.0,-415.0,0
13.0,-267.0,28.0,-66.0,2272.0,-409.0,0
14.0,-273.0,29.0,-74.0,2274.0,-405.0,0
9.0,-276.0,25.0,-77.0,2280.0,-401.0,0
8.0,-279.0,28.0,-78.0,2283.0,-394.0,0
7.0,-285.0,31.0,-74.0,2281.0,-390.0,0
6.0,-285.0,31.0,-69.0,2272.0,-389.0,0
8.0,-285.0,34.0,-63.0,2260.0,-390.0,0
11.0,-289.0,32.0,-55.0,2247.0,-394.0,0
11.0,-283.0,38.0,-42.0,2236.0,-401.0,0
8.0,-279.0,42.0,-20.0,2229.0,-409.0,0
6.0,-276.0,53.0,7.0,2223.0,-416.0,0
7.0,-268.0,58.0,37.0,2210.0,-423.0,0
8.0,-267.0,60.0,60.0,2189.0,-433.0,0
3.0,-258.0,65.0,73.0,2167.0,-445.0,0
5.0,-256.0,66.0,71.0,2148.0,-451.0,0
3.0,-253.0,75.0,53.0,2126.0,-449.0,0
4.0,-255.0,72.0,30.0,2104.0,-442.0,0
0.0,-254.0,73.0,1.0,2079.0,-427.0,0
0.0,-254.0,68.0,-27.0,2051.0,-407.0,0
-1.0,-255.0,66.0,-51.0,2021.0,-381.0,0
-3.0,-255.0,66.0,-68.0,1983.0,-350.0,0
-3.0,-256.0,65.0,-75.0,1945.0,-314.0,0
-1.0,-258.0,59.0,-72.0,1905.0,-274.0,0
-15.0,-254.0,65.0,-57.0,1862.0,-233.0,0
-19.0,-254.0,68.0,-37.0,1815.0,-195.0,0
-26.0,-251.0,71.0,-15.0,1763.0,-159.0,0
-31.0,-249.0,69.0,6.0,1709.0,-125.0,0
-36.0,-245.0,69.0,23.0,1658.0,-93.0,0
-41.0,-237.0,66.0,32.0,1611.0,-67.0,0
-40.0,-233.0,61.0,32.0,1567.0,-40.0,0
-39.0,-227.0,59.0,21.0,1525.0,-19.0,0
-33.0,-220.0,50.0,1.0,1488.0,0.0,0
-25.0,-219.0,45.0,-26.0,1454.0,19.0,0
-17.0,-212.0,44.0,-53.0,1427.0,33.0,0
-8.0,-215.0,43.0,-75.0,1404.0,48.0,0
2.0,-218.0,47.0,-90.0,1391.0,65.0,0
6.0,-223.0,54.0,-103.0,1377.0,82.0,0
12.0,-224.0,59.0,-118.0,1360.0,103.0,0
21.0,-231.0,56.0,-141.0,1334.0,123.0,0
25.0,-240.0,61.0,-175.0,1306.0,141.0,0
34.0,-251.0,57.0,-214.0,1280.0,153.0,0
38.0,-261.0,59.0,-255.0,1263.0,154.0,0
41.0,-272.0,58.0,-283.0,1254.0,148.0,0
39.0,-281.0,56.0,-292.0,1253.0,135.0,0
35.0,-292.0,58.0,-280.0,1256.0,117.0,0
42.0,-301.0,53.0,-251.0,1265.0,94.0,0
41.0,-311.0,55.0,-207.0,1275.0,66.0,0
38.0,-317.0,56.0,-153.0,1282.0,30.0,0
40.0,-317.0,47.0,-93.0,1292.0,-5.0,0
37.0,-318.0,45.0,-33.0,1309.0,-38.0,0
38.0,-317.0,40.0,22.0,1333.0,-68.0,0
37.0,-316.0,39.0,66.0,1362.0,-96.0,0
34.0,-315.0,33.0,98.0,1392.0,-119.0,0
30.0,-312.0,37.0,124.0,1419.0,-141.0,0
18.0,-307.0,37.0,149.0,1438.0,-159.0,0
10.0,-303.0,44.0,175.0,1442.0,-172.0,0
4.0,-301.0,47.0,204.0,1432.0,-186.0,0
0.0,-294.0,47.0,236.0,1414.0,-203.0,0
-7.0,-290.0,50.0,261.0,1391.0,-226.0,0
-17.0,-283.0,53.0,282.0,1369.0,-256.0,0
-28.0,-279.0,50.0,296.0,1345.0,-286.0,0
-38.0,-271.0,56.0,301.0,1312.0,-311.0,0
-46.0,-268.0,61.0,306.0,1262.0,-331.0,0
-54.0,-262.0,59.0,311.0,1199.0,-339.0,0
-59.0,-259.0,64.0,320.0,1127.0,-332.0,0
-62.0,-255.0,60.0,339.0,1065.0,-310.0,0
-63.0,-253.0,60.0,353.0,1005.0,-281.0,0
-68.0,-254.0,61.0,355.0,952.0,-242.0,0
-73.0,-249.0,62.0,357.0,899.0,-193.0,0
-74.0,-245.0,62.0,364.0,839.0,-141.0,0
-76.0,-240.0,63.0,379.0,770.0,-89.0,0
-71.0,-237.0,61.0,395.0,696.0,-40.0,0
-65.0,-232.0,57.0,400.0,626.0,5.0,0
-62.0,-230.0,61.0,390.0,561.0,43.0,0
-54.0,-226.0,61.0,363.0,502.0,64.0,0
-46.0,-230.0,59.0,324.0,449.0,74.0,0
-41.0,-230.0,62.0,279.0,395.0,78.0,0
-30.0,-237.0,64.0,234.0,344.0,79.0,0
-19.0,-244.0,66.0,197.0,305.0,77.0,0
-10.0,-247.0,68.0,166.0,281.0,69.0,0
-5.0,-249.0,68.0,151.0,262.0,59.0,0
0.0,-254.0,66.0,150.0,241.0,50.0,0
4.0,-257.0,68.0,156.0,222.0,42.0,0
4.0,-259.0,66.0,166.0,201.0,36.0,0
8.0,-260.0,65.0,174.0,184.0,29.0,0
12.0,-263.0,63.0,179.0,171.0,26.0,0
14.0,-263.0,56.0,183.0,161.0,25.0,0
25.0,-260.0,61.0,181.0,156.0,25.0,0
14.0,-263.0,52.0,172.0,154.0,26.0,0
13.0,-265.0,57.0,160.0,157.0,32.0,0
9.0,-266.0,55.0,153.0,160.0,38.0,0
7.0,-270.0,54.0,147.0,160.0,44.0,0
2.0,-269.0,54.0,151.0,155.0,52.0,0
1.0,-271.0,56.0,162.0,146.0,61.0,0
-2.0,-267.0,59.0,179.0,138.0,69.0,0
-3.0,-265.0,59.0,199.0,128.0,77.0,0
-7.0,-260.0,60.0,225.0,121.0,85.0,0
-9.0,-255.0,63.0,241.0,114.0,94.0,0
-12.0,-249.0,60.0,250.0,107.0,104.0,0
-11.0,-244.0,62.0,246.0,101.0,113.0,0
-10.0,-241.0,54.0,234.0,94.0,120.0,0
-7.0,-237.0,52.0,212.0,88.0,126.0,0
-5.0,-233.0,52.0,180.0,81.0,130.0,0
-3.0,-228.0,48.0,137.0,75.0,131.0,0
-2.0,-232.0,47.0,87.0,66.0,131.0,0
5.0,-235.0,44.0,28.0,58.0,133.0,0
12.0,-243.0,43.0,-34.0,50.0,134.0,0
15.0,-250.0,49.0,-90.0,48.0,134.0,0
17.0,-255.0,44.0,-128.0,49.0,132.0,0
13.0,-257.0,49.0,-150.0,52.0,131.0,0
12.0,-260.0,46.0,-162.0,55.0,129.0,0
13.0,-262.0,43.0,-166.0,58.0,124.0,0
13.0,-267.0,46.0,-165.0,62.0,120.0,0
17.0,-266.0,46.0,-161.0,66.0,111.0,0
8.0,-267.0,47.0,-151.0,68.0,101.0,0
6.0,-268.0,46.0,-139.0,70.0,91.0,0
6.0,-266.0,47.0,-127.0,72.0,80.0,0
2.0,-270.0,50.0,-117.0,75.0,69.0,0
2.0,-269.0,49.0,-110.0,75.0,58.0,0
0.0,-267.0,55.0,-105.0,73.0,48.0,0
0.0,-270.0,57.0,-100.0,69.0,41.0,0
0.0,-278.0,58.0,-94.0,62.0,34.0,0
0.0,-274.0,55.0,-83.0,55.0,27.0,0
1.0,-279.0,58.0,-67.0,50.0,23.0,0
0.0,-279.0,60.0,-47.0,47.0,22.0,0
0.0,-275.0,60.0,-20.0,43.0,19.0,0
-4.0,-272.0,58.0,4.0,42.0,17.0,0
-2.0,-265.0,61.0,24.0,41.0,13.0,0
0.0,-266.0,55.0,37.0,38.0,10.0,0
0.0,-262.0,54.0,42.0,36.0,9.0,0
-1.0,-256.0,48.0,38.0,36.0,7.0,0
0.0,-258.0,53.0,27.0,36.0,4.0,0
0.0,-256.0,54.0,13.0,35.0,2.0,0
-2.0,-256.0,57.0,3.0,34.0,2.0,0
-2.0,-257.0,60.0,-4.0,32.0,3.0,0
-1.0,-257.0,59.0,-5.0,28.0,5.0,0
-2.0,-258.0,62.0,-2.0,24.0,10.0,0
-2.0,-259.0,61.0,3.0,22.0,15.0,0
-4.0,-257.0,63.0,5.0,20.0,22.0,0
-4.0,-262.0,63.0,8.0,18.0,30.0,0
-4.0,-265.0,62.0,7.0,13.0,39.0,0
-6.0,-265.0,59.0,7.0,5.0,47.0,0
-8.0,-266.0,59.0,9.0,-8.0,56.0,0
-4.0,-269.0,59.0,11.0,-20.0,62.0,0
-3.0,-268.0,57.0,15.0,-30.0,68.0,0
-1.0,-269.0,58.0,24.0,-38.0,73.0,0
-4.0,-268.0,58.0,36.0,-44.0,75.0,0
-7.0,-264.0,59.0,49.0,-50.0,80.0,0
-3.0,-263.0,59.0,59.0,-55.0,85.0,0
-7.0,-261.0,59.0,68.0,-60.0,89.0,0
-3.0,-262.0,59.0,76.0,-68.0,91.0,0
-4.0,-260.0,59.0,80.0,-74.0,92.0,0
-4.0,-258.0,59.0,80.0,-79.0,92.0,0
-2.0,-256.0,58.0,77.0,-83.0,90.0,0
-6.0,-255.0,61.0,69.0,-86.0,88.0,0
-2.0,-256.0,61.0,59.0,-89.0,86.0,0
-1.0,-256.0,62.0,49.0,-90.0,80.0,0
0.0,-253.0,61.0,41.0,-91.0,75.0,0
2.0,-259.0,61.0,33.0,-91.0,71.0,0
1.0,-257.0,63.0,30.0,-91.0,67.0,0
-3.0,-256.0,61.0,27.0,-89.0,60.0,0
0.0,-256.0,65.0,24.0,-86.0,55.0,0
1.0,-257.0,63.0,21.0,-84.0,51.0,0
0.0,-257.0,63.0,17.0,-80.0,47.0,0
1.0,-256.0,62.0,11.0,-76.0,44.0,0
1.0,-256.0,61.0,3.0,-73.0,40.0,0
4.0,-257.0,64.0,-2.0,-71.0,36.0,0
1.0,-255.0,66.0,-6.0,-69.0,33.0,0
0.0,-257.0,63.0,-10.0,-68.0,30.0,0
1.0,-258.0,64.0,-11.0,-68.0,30.0,0
0.0,-257.0,64.0,-13.0,-67.0,26.0,0
2.0,-256.0,63.0,-17.0,-65.0,24.0,0
3.0,-258.0,67.0,-21.0,-64.0,22.0,0
3.0,-256.0,63.0,-28.0,-60.0,21.0,0
2.0,-258.0,62.0,-35.0,-56.0,19.0,0
0.0,-256.0,63.0,-39.0,-52.0,16.0,0
0.0,-257.0,60.0,-42.0,-49.0,15.0,0
0.0,-257.0,61.0,-42.0,-46.0,15.0,0
0.0,-260.0,65.0,-35.0,-40.0,14.0,0
1.0,-258.0,60.0,-27.0,-40.0,15.0,0
0.0,-253.0,60.0,-18.0,-42.0,14.0,0
0.0,-254.0,65.0,-19.0,-41.0,14.0,0
0.0,-255.0,65.0,-24.0,-36.0,14.0,0
1.0,-256.0,65.0,-31.0,-30.0,14.0,0
0.0,-257.0,62.0,-37.0,-22.0,12.0,0
0.0,-257.0,64.0,-44.0,-15.0,10.0,0
1.0,-261.0,65.0,-49.0,-8.0,9.0,0
-1.0,-261.0,67.0,-50.0,-3.0,9.0,0
0.0,-261.0,66.0,-44.0,2.0,9.0,0
1.0,-261.0,65.0,-38.0,5.0,9.0,0
0.0,-260.0,65.0,-37.0,9.0,10.0,0
1.0,-260.0,65.0,-35.0,14.0,10.0,0
1.0,-262.0,66.0,-36.0,23.0,9.0,0
0.0,-258.0,65.0,-35.0,29.0,8.0,0
2.0,-259.0,62.0,-35.0,35.0,9.0,0
1.0,-259.0,63.0,-35.0,42.0,8.0,0
2.0,-259.0,62.0,-37.0,47.0,6.0,0
0.0,-261.0,60.0,-38.0,51.0,6.0,0
0.0,-260.0,64.0,-38.0,55.0,5.0,0
2.0,-261.0,63.0,-37.0,58.0,6.0,0
1.0,-262.0,60.0,-36.0,61.0,4.0,0
1.0,-262.0,62.0,-33.0,64.0,5.0,0
1.0,-259.0,63.0,-29.0,67.0,4.0,0
0.0,-264.0,60.0,-24.0,69.0,5.0,0
0.0,-260.0,60.0,-21.0,75.0,3.0,0
0.0,-259.0,61.0,-19.0,77.0,5.0,0
0.0,-258.0,61.0,-17.0,79.0,2.0,0
-1.0,-263.0,62.0,-15.0,83.0,2.0,0
1.0,-260.0,61.0,-16.0,87.0,2.0,0
0.0,-260.0,64.0,-16.0,90.0,2.0,0
-1.0,-260.0,63.0,-16.0,93.0,1.0,0
0.0,-263.0,63.0,-18.0,96.0,1.0,0
-2.0,-261.0,59.0,-17.0,97.0,0.0,0
0.0,-262.0,61.0,-17.0,101.0,-1.0,0
-2.0,-263.0,58.0,-17.0,102.0,-2.0,0
-11.0,-267.0,66.0,-18.0,104.0,-3.0,0
-1.0,-264.0,58.0,-17.0,105.0,-3.0,0
-2.0,-264.0,63.0,-17.0,106.0,-5.0,0
-4.0,-261.0,58.0,-16.0,105.0,-4.0,0
0.0,-264.0,64.0,-11.0,103.0,-6.0,0
-6.0,-260.0,62.0,-5.0,100.0,-7.0,0
-6.0,-258.0,64.0,4.0,95.0,-10.0,0
-4.0,-257.0,63.0,5.0,95.0,-11.0,0
-5.0,-258.0,62.0,3.0,96.0,-9.0,0
-1.0,-260.0,63.0,-4.0,96.0,-6.0,0
-1.0,-262.0,62.0,-9.0,91.0,-3.0,0
-5.0,-266.0,64.0,-9.0,82.0,-1.0,0
-1.0,-263.0,60.0,-4.0,76.0,1.0,0
0.0,-261.0,62.0,-1.0,69.0,2.0,0
-2.0,-262.0,61.0,2.0,62.0,6.0,0
-1.0,-262.0,58.0,3.0,55.0,9.0,0
0.0,-260.0,62.0,5.0,48.0,10.0,0
-6.0,-258.0,63.0,4.0,41.0,14.0,0
-1.0,-260.0,63.0,5.0,36.0,15.0,0
-3.0,-257.0,63.0,4.0,31.0,17.0,0
-2.0,-257.0,61.0,5.0,27.0,20.0,0
-1.0,-258.0,62.0,4.0,26.0,19.0,0
-3.0,-258.0,62.0,4.0,23.0,19.0,0
-4.0,-255.0,65.0,0.0,20.0,21.0,0
-3.0,-258.0,60.0,-4.0,19.0,20.0,0
-2.0,-257.0,62.0,-8.0,19.0,21.0,0
-2.0,-259.0,59.0,-12.0,17.0,20.0,0
-5.0,-257.0,58.0,-16.0,14.0,19.0,0
-4.0,-261.0,60.0,-17.0,11.0,18.0,0
-3.0,-258.0,62.0,-17.0,7.0,18.0,0
-4.0,-260.0,64.0,-17.0,5.0,17.0,0
-1.0,-261.0,60.0,-16.0,4.0,17.0,0
-4.0,-259.0,60.0,-15.0,1.0,17.0,0
-1.0,-260.0,61.0,-11.0,-1.0,17.0,0
-4.0,-260.0,59.0,-9.0,-2.0,16.0,0
0.0,-262.0,60.0,-6.0,-4.0,17.0,0
0.0,-261.0,61.0,-4.0,-3.0,18.0,0
-1.0,-261.0,63.0,0.0,-3.0,18.0,0
-2.0,-261.0,63.0,6.0,-3.0,20.0,0
1.0,-262.0,63.0,8.0,-1.0,20.0,0
0.0,-260.0,62.0,11.0,-1.0,21.0,0
0.0,-262.0,61.0,14.0,1.0,24.0,0
0.0,-259.0,61.0,17.0,3.0,26.0,0
-2.0,-259.0,71.0,18.0,5.0,25.0,0
0.0,-260.0,60.0,18.0,7.0,25.0,0
0.0,-261.0,59.0,18.0,7.0,25.0,0
0.0,-262.0,61.0,18.0,9.0,25.0,0
1.0,-261.0,63.0,18.0,10.0,25.0,0
1.0,-263.0,62.0,18.0,11.0,26.0,0
0.0,-261.0,62.0,20.0,11.0,27.0,0
0.0,-260.0,59.0,22.0,13.0,26.0,0
1.0,-261.0,59.0,23.0,12.0,26.0,0
2.0,-261.0,60.0,23.0,15.0,25.0,0
2.0,-261.0,62.0,21.0,14.0,24.0,0
0.0,-258.0,61.0,21.0,15.0,22.0,0
2.0,-261.0,62.0,20.0,16.0,21.0,0
0.0,-259.0,64.0,18.0,20.0,19.0,0
1.0,-259.0,64.0,19.0,21.0,17.0,0
0.0,-259.0,64.0,18.0,24.0,17.0,0
0.0,-258.0,64.0,16.0,27.0,16.0,0
0.0,-256.0,63.0,15.0,28.0,16.0,0
1.0,-257.0,60.0,12.0,29.0,12.0,0
-4.0,-257.0,61.0,10.0,32.0,11.0,0
1.0,-258.0,59.0,7.0,33.0,8.0,0
3.0,-257.0,58.0,2.0,35.0,7.0,0
0.0,-259.0,60.0,-3.0,36.0,4.0,0
-4.0,-257.0,64.0,-9.0,37.0,1.0,0
-3.0,-257.0,64.0,-15.0,40.0,0.0,0
0.0,-261.0,64.0,-18.0,42.0,-2.0,0
0.0,-260.0,63.0,-18.0,44.0,-3.0,0
1.0,-264.0,57.0,-15.0,43.0,-5.0,0
1.0,-264.0,60.0,-6.0,45.0,-4.0,0
0.0,-263.0,64.0,7.0,48.0,-3.0,0
-1.0,-261.0,61.0,21.0,44.0,-3.0,0
3.0,-260.0,65.0,27.0,45.0,-5.0,0
-2.0,-258.0,59.0,27.0,48.0,-6.0,0
0.0,-257.0,64.0,24.0,49.0,-6.0,0
0.0,-260.0,62.0,21.0,54.0,-7.0,0
2.0,-260.0,65.0,14.0,60.0,-10.0,0
0.0,-257.0,62.0,8.0,65.0,-11.0,0
-1.0,-257.0,64.0,6.0,69.0,-14.0,0
-2.0,-256.0,65.0,5.0,71.0,-14.0,0
1.0,-259.0,64.0,3.0,70.0,-12.0,0
1.0,-259.0,63.0,1.0,71.0,-13.0,0
1.0,-257.0,62.0,0.0,71.0,-11.0,0
-1.0,-263.0,63.0,-4.0,70.0,-10.0,0
0.0,-261.0,62.0,-9.0,73.0,-10.0,0
-1.0,-260.0,62.0,-13.0,75.0,-9.0,0
0.0,-257.0,63.0,-16.0,78.0,-10.0,0
0.0,-261.0,62.0,-18.0,80.0,-9.0,0
-3.0,-258.0,62.0,-19.0,82.0,-8.0,0
0.0,-260.0,64.0,-17.0,84.0,-9.0,0
-1.0,-258.0,64.0,-16.0,86.0,-9.0,0
0.0,-259.0,64.0,-13.0,87.0,-9.0,0
-2.0,-259.0,62.0,-12.0,88.0,-9.0,0
0.0,-258.0,63.0,-13.0,87.0,-8.0,0
-2.0,-257.0,64.0,-15.0,88.0,-9.0,0
1.0,-260.0,62.0,-17.0,89.0,-9.0,0
0.0,-259.0,66.0,-19.0,90.0,-10.0,0
-2.0,-258.0,66.0,-21.0,89.0,-11.0,0
0.0,-258.0,60.0,-20.0,89.0,-12.0,0
0.0,-260.0,62.0,-20.0,86.0,-11.0,0
-1.0,-258.0,63.0,-22.0,89.0,-12.0,0
-1.0,-260.0,60.0,-22.0,91.0,-12.0,0
1.0,-260.0,63.0,-22.0,93.0,-14.0,0
-1.0,-260.0,58.0,-23.0,94.0,-14.0,0
0.0,-260.0,63.0,-22.0,95.0,-14.0,0
-3.0,-266.0,79.0,-23.0,96.0,-14.0,0
0.0,-262.0,62.0,-23.0,97.0,-13.0,0
0.0,-263.0,63.0,-22.0,99.0,-12.0,0
0.0,-261.0,64.0,-20.0,97.0,-12.0,0
2.0,-263.0,64.0,-19.0,100.0,-12.0,0
-1.0,-260.0,63.0,-16.0,100.0,-12.0,0
0.0,-261.0,63.0,-13.0,101.0,-14.0,0
-2.0,-259.0,60.0,-9.0,101.0,-14.0,0
0.0,-259.0,60.0,-4.0,98.0,-13.0,0
0.0,-257.0,63.0,-2.0,97.0,-13.0,0
0.0,-261.0,63.0,-1.0,97.0,-13.0,0
0.0,-260.0,62.0,1.0,97.0,-12.0,0
-3.0,-258.0,63.0,1.0,97.0,-12.0,0
0.0,-260.0,63.0,2.0,98.0,-14.0,0
-1.0,-258.0,62.0,2.0,97.0,-14.0,0
-4.0,-258.0,62.0,2.0,98.0,-13.0,0
-2.0,-258.0,62.0,2.0,98.0,-13.0,0
-1.0,-260.0,63.0,2.0,98.0,-14.0,0
-2.0,-256.0,63.0,0.0,98.0,-13.0,0
-2.0,-257.0,63.0,1.0,97.0,-15.0,0
-1.0,-258.0,67.0,-1.0,98.0,-15.0,0
4.0,-256.0,58.0,-2.0,99.0,-15.0,0
0.0,-258.0,62.0,-2.0,98.0,-16.0,0
0.0,-259.0,65.0,-3.0,99.0,-16.0,0
-4.0,-258.0,63.0,-2.0,98.0,-17.0,0
0.0,-258.0,63.0,0.0,98.0,-17.0,0
-2.0,-258.0,64.0,0.0,97.0,-17.0,0
0.0,-255.0,61.0,1.0,97.0,-18.0,0
-3.0,-262.0,62.0,3.0,96.0,-18.0,0
-2.0,-259.0,63.0,4.0,97.0,-18.0,0
-5.0,-258.0,63.0,7.0,97.0,-20.0,0
0.0,-259.0,64.0,7.0,98.0,-21.0,0
-1.0,-257.0,63.0,8.0,98.0,-21.0,0
-3.0,-257.0,63.0,11.0,100.0,-22.0,0
-4.0,-260.0,64.0,14.0,101.0,-21.0,0
-4.0,-261.0,64.0,18.0,102.0,-21.0,0
-3.0,-257.0,64.0,21.0,102.0,-21.0,0
0.0,-259.0,65.0,23.0,103.0,-22.0,0
-4.0,-257.0,63.0,24.0,105.0,-22.0,0
-3.0,-258.0,66.0,26.0,108.0,-23.0,0
-2.0,-265.0,67.0,28.0,112.0,-22.0,0
-5.0,-258.0,67.0,32.0,114.0,-23.0,0
-6.0,-256.0,67.0,37.0,115.0,-21.0,0
-4.0,-261.0,63.0,44.0,115.0,-21.0,0
-2.0,-259.0,63.0,51.0,111.0,-20.0,0
0.0,-262.0,61.0,57.0,106.0,-19.0,0
-4.0,-257.0,60.0,60.0,104.0,-20.0,0
-1.0,-256.0,62.0,57.0,100.0,-21.0,0
0.0,-256.0,61.0,51.0,97.0,-21.0,0
-3.0,-256.0,62.0,45.0,94.0,-20.0,0
-4.0,-260.0,62.0,39.0,92.0,-20.0,0
-2.0,-259.0,63.0,35.0,90.0,-19.0,0
-5.0,-258.0,64.0,32.0,87.0,-18.0,0
-4.0,-259.0,66.0,32.0,86.0,-17.0,0
-5.0,-258.0,63.0,34.0,85.0,-16.0,0
-5.0,-258.0,65.0,38.0,80.0,-16.0,0
-6.0,-258.0,63.0,43.0,77.0,-17.0,0
-4.0,-258.0,63.0,47.0,74.0,-19.0,0
-5.0,-259.0,64.0,49.0,72.0,-20.0,0
-4.0,-260.0,63.0,48.0,73.0,-22.0,0
-5.0,-259.0,65.0,47.0,74.0,-24.0,0
-1.0,-261.0,65.0,45.0,76.0,-24.0,0
-5.0,-262.0,68.0,44.0,79.0,-25.0,0
-1.0,-264.0,65.0,47.0,81.0,-24.0,0
-3.0,-260.0,63.0,50.0,84.0,-24.0,0
0.0,-266.0,68.0,54.0,85.0,-23.0,0
-2.0,-264.0,66.0,57.0,85.0,-22.0,0
-3.0,-262.0,65.0,60.0,84.0,-20.0,0
-1.0,-261.0,67.0,64.0,85.0,-18.0,0
0.0,-260.0,64.0,68.0,88.0,-18.0,0
2.0,-260.0,65.0,69.0,96.0,-19.0,0
1.0,-260.0,70.0,68.0,103.0,-20.0,0
1.0,-261.0,63.0,72.0,105.0,-22.0,0
0.0,-261.0,65.0,80.0,109.0,-23.0,0
0.0,-257.0,67.0,88.0,116.0,-24.0,0
1.0,-256.0,66.0,89.0,121.0,-28.0,0
0.0,-256.0,66.0,87.0,125.0,-32.0,0
-1.0,-258.0,66.0,78.0,126.0,-37.0,0
0.0,-257.0,66.0,67.0,126.0,-40.0,0
-2.0,-259.0,69.0,54.0,130.0,-43.0,0
-3.0,-257.0,68.0,45.0,137.0,-48.0,0
-1.0,-260.0,69.0,33.0,141.0,-51.0,0
-3.0,-258.0,75.0,30.0,146.0,-56.0,0
-7.0,-257.0,71.0,34.0,149.0,-58.0,0
-6.0,-262.0,67.0,39.0,151.0,-57.0,0
-8.0,-261.0,70.0,45.0,154.0,-59.0,0
-8.0,-257.0,66.0,49.0,153.0,-59.0,0
-8.0,-258.0,66.0,53.0,151.0,-59.0,0
-9.0,-255.0,65.0,50.0,154.0,-58.0,0
-9.0,-254.0,61.0,42.0,155.0,-60.0,0
-9.0,-255.0,63.0,32.0,154.0,-60.0,0
-10.0,-254.0,62.0,20.0,148.0,-59.0,0
-11.0,-255.0,65.0,9.0,141.0,-60.0,0
-11.0,-254.0,67.0,0.0,135.0,-60.0,0
-11.0,-256.0,66.0,-6.0,127.0,-57.0,0
-10.0,-257.0,65.0,-13.0,122.0,-56.0,0
-13.0,-259.0,70.0,-19.0,117.0,-57.0,0
-15.0,-259.0,68.0,-24.0,108.0,-59.0,0
-12.0,-263.0,70.0,-21.0,95.0,-60.0,0
-13.0,-260.0,68.0,-14.0,76.0,-58.0,0
-12.0,-265.0,69.0,-6.0,61.0,-56.0,0
-13.0,-260.0,70.0,3.0,49.0,-53.0,0
-12.0,-260.0,68.0,11.0,37.0,-50.0,0
-13.0,-261.0,68.0,19.0,28.0,-46.0,0
-13.0,-262.0,66.0,31.0,14.0,-41.0,0
-15.0,-262.0,67.0,45.0,2.0,-36.0,0
-12.0,-260.0,66.0,55.0,-9.0,-30.0,0
-12.0,-257.0,65.0,56.0,-18.0,-25.0,0
-13.0,-256.0,60.0,51.0,-28.0,-20.0,0
-4.0,-255.0,58.0,43.0,-32.0,-19.0,0
-15.0,-252.0,54.0,38.0,-26.0,-32.0,0
-14.0,-255.0,56.0,21.0,-19.0,-20.0,0
-7.0,-257.0,60.0,2.0,-25.0,-14.0,0
-7.0,-258.0,58.0,1.0,-36.0,-15.0,0
-9.0,-259.0,61.0,16.0,-45.0,-17.0,0
-6.0,-257.0,62.0,35.0,-52.0,-21.0,0
-9.0,-253.0,63.0,48.0,-53.0,-21.0,0
0.0,-255.0,59.0,56.0,-54.0,-23.0,0
-1.0,-256.0,55.0,63.0,-49.0,-16.0,0
-1.0,-253.0,53.0,65.0,-45.0,-9.0,0
0.0,-253.0,57.0,69.0,-40.0,2.0,0
0.0,-254.0,58.0,78.0,-40.0,12.0,0
-2.0,-250.0,56.0,93.0,-47.0,27.0,0
3.0,-245.0,56.0,110.0,-50.0,41.0,0
1.0,-239.0,62.0,125.0,-50.0,56.0,0
2.0,-232.0,61.0,135.0,-46.0,73.0,0
3.0,-227.0,63.0,134.0,-37.0,88.0,0
4.0,-224.0,63.0,121.0,-27.0,106.0,0
20.0,-223.0,48.0,99.0,-10.0,124.0,0
9.0,-220.0,62.0,70.0,10.0,144.0,0
11.0,-222.0,63.0,39.0,32.0,163.0,0
12.0,-221.0,64.0,8.0,56.0,176.0,0
15.0,-225.0,64.0,-29.0,80.0,191.0,0
16.0,-228.0,65.0,-55.0,110.0,201.0,0
15.0,-233.0,72.0,-92.0,138.0,209.0,0
18.0,-244.0,80.0,-126.0,161.0,214.0,0
19.0,-249.0,88.0,-149.0,177.0,221.0,0
22.0,-256.0,91.0,-157.0,184.0,226.0,0
22.0,-261.0,103.0,-150.0,184.0,232.0,0
23.0,-270.0,103.0,-132.0,178.0,234.0,0
25.0,-276.0,105.0,-116.0,174.0,230.0,0
20.0,-275.0,111.0,-110.0,176.0,227.0,0
26.0,-278.0,102.0,-105.0,181.0,218.0,0
27.0,-281.0,100.0,-107.0,190.0,209.0,0
27.0,-281.0,99.0,-112.0,202.0,196.0,0
23.0,-277.0,100.0,-118.0,217.0,180.0,0
19.0,-277.0,103.0,-120.0,230.0,163.0,0
17.0,-274.0,102.0,-116.0,237.0,144.0,0
8.0,-268.0,108.0,-111.0,238.0,124.0,0
6.0,-267.0,120.0,-106.0,236.0,100.0,0
5.0,-268.0,104.0,-108.0,233.0,76.0,0
3.0,-263.0,106.0,-116.0,230.0,49.0,0
1.0,-268.0,104.0,-127.0,226.0,26.0,0
-5.0,-268.0,108.0,-137.0,216.0,4.0,0
-12.0,-269.0,108.0,-143.0,201.0,-16.0,0
-15.0,-273.0,107.0,-144.0,180.0,-32.0,0
-16.0,-273.0,105.0,-138.0,156.0,-48.0,0
-15.0,-275.0,106.0,-128.0,131.0,-60.0,0
-18.0,-268.0,100.0,-116.0,108.0,-72.0,0
-20.0,-270.0,95.0,-106.0,87.0,-82.0,0
-24.0,-265.0,94.0,-98.0,67.0,-94.0,0
-22.0,-260.0,92.0,-89.0,50.0,-105.0,0
-17.0,-259.0,89.0,-81.0,31.0,-118.0,0
-21.0,-255.0,91.0,-77.0,8.0,-129.0,0
-16.0,-250.0,91.0,-80.0,-16.0,-140.0,0
-14.0,-246.0,90.0,-89.0,-40.0,-150.0,0
-7.0,-245.0,92.0,-99.0,-60.0,-156.0,0
-1.0,-239.0,90.0,-113.0,-79.0,-162.0,0
0.0,-240.0,91.0,-126.0,-92.0,-162.0,0
0.0,-242.0,87.0,-142.0,-106.0,-163.0,0
5.0,-243.0,86.0,-157.0,-119.0,-160.0,0
4.0,-238.0,80.0,-171.0,-130.0,-159.0,0
3.0,-244.0,87.0,-184.0,-144.0,-156.0,0
6.0,-249.0,85.0,-188.0,-159.0,-148.0,0
10.0,-248.0,84.0,-193.0,-173.0,-140.0,0
11.0,-252.0,88.0,-194.0,-191.0,-131.0,0
8.0,-251.0,92.0,-194.0,-205.0,-123.0,0
10.0,-250.0,88.0,-191.0,-216.0,-113.0,0
8.0,-251.0,92.0,-183.0,-224.0,-105.0,0
12.0,-253.0,88.0,-171.0,-227.0,-94.0,0
11.0,-251.0,93.0,-157.0,-225.0,-87.0,0
12.0,-248.0,89.0,-138.0,-221.0,-79.0,0
10.0,-245.0,92.0,-119.0,-216.0,-73.0,0
10.0,-242.0,93.0,-103.0,-213.0,-67.0,0
14.0,-243.0,95.0,-90.0,-209.0,-62.0,0
16.0,-236.0,99.0,-83.0,-203.0,-54.0,0
17.0,-237.0,99.0,-82.0,-195.0,-46.0,0
15.0,-234.0,101.0,-85.0,-182.0,-41.0,0
20.0,-235.0,103.0,-89.0,-170.0,-36.0,0
20.0,-235.0,103.0,-99.0,-156.0,-32.0,0
22.0,-237.0,104.0,-113.0,-141.0,-25.0,0
21.0,-242.0,104.0,-130.0,-127.0,-23.0,0
21.0,-241.0,100.0,-150.0,-113.0,-20.0,0
25.0,-242.0,105.0,-170.0,-99.0,-17.0,0
21.0,-241.0,97.0,-187.0,-87.0,-13.0,0
21.0,-246.0,96.0,-195.0,-78.0,-12.0,0
20.0,-248.0,94.0,-198.0,-71.0,-8.0,0
21.0,-252.0,96.0,-201.0,-63.0,-8.0,0
14.0,-250.0,97.0,-201.0,-55.0,-4.0,0
18.0,-253.0,93.0,-200.0,-47.0,0.0,0
12.0,-255.0,89.0,-202.0,-41.0,4.0,0
8.0,-256.0,93.0,-200.0,-37.0,8.0,0
7.0,-258.0,96.0,-192.0,-35.0,11.0,0
6.0,-258.0,98.0,-180.0,-41.0,14.0,0
2.0,-256.0,98.0,-162.0,-51.0,14.0,0
3.0,-255.0,97.0,-147.0,-64.0,16.0,0
2.0,-255.0,101.0,-132.0,-78.0,16.0,0
0.0,-250.0,97.0,-124.0,-87.0,16.0,0
2.0,-255.0,93.0,-118.0,-100.0,14.0,0
1.0,-254.0,97.0,-117.0,-112.0,16.0,0
3.0,-255.0,98.0,-124.0,-125.0,15.0,0
0.0,-253.0,97.0,-135.0,-134.0,15.0,0
2.0,-255.0,97.0,-148.0,-144.0,15.0,0
2.0,-258.0,98.0,-159.0,-157.0,15.0,0
5.0,-263.0,89.0,-166.0,-176.0,17.0,0
2.0,-261.0,93.0,-168.0,-194.0,18.0,0
5.0,-267.0,86.0,-169.0,-209.0,18.0,0
7.0,-270.0,85.0,-168.0,-220.0,15.0,0
7.0,-275.0,87.0,-162.0,-227.0,8.0,0
8.0,-279.0,80.0,-148.0,-236.0,-2.0,0
10.0,-283.0,77.0,-129.0,-249.0,-15.0,0
10.0,-287.0,74.0,-112.0,-262.0,-28.0,0
14.0,-292.0,73.0,-89.0,-272.0,-41.0,0
17.0,-292.0,72.0,-61.0,-279.0,-54.0,0
19.0,-296.0,72.0,-32.0,-280.0,-66.0,0
23.0,-292.0,65.0,-3.0,-282.0,-78.0,0
20.0,-288.0,63.0,29.0,-279.0,-90.0,0
26.0,-288.0,59.0,54.0,-273.0,-102.0,0
28.0,-285.0,57.0,75.0,-264.0,-108.0,0
28.0,-283.0,55.0,93.0,-253.0,-115.0,0
30.0,-281.0,52.0,108.0,-239.0,-120.0,0
32.0,-280.0,52.0,120.0,-224.0,-124.0,0
30.0,-277.0,51.0,129.0,-215.0,-128.0,0
32.0,-277.0,50.0,139.0,-208.0,-126.0,0
34.0,-277.0,43.0,155.0,-202.0,-118.0,0
25.0,-276.0,44.0,173.0,-194.0,-105.0,0
24.0,-271.0,48.0,193.0,-186.0,-89.0,0
24.0,-270.0,42.0,210.0,-179.0,-75.0,0
21.0,-268.0,42.0,222.0,-175.0,-60.0,0
18.0,-262.0,41.0,229.0,-174.0,-44.0,0
13.0,-258.0,39.0,230.0,-180.0,-27.0,0
12.0,-260.0,40.0,227.0,-187.0,-6.0,0
11.0,-256.0,36.0,214.0,-191.0,20.0,0
10.0,-257.0,32.0,195.0,-191.0,46.0,0
7.0,-257.0,33.0,172.0,-191.0,74.0,0
3.0,-261.0,28.0,151.0,-195.0,102.0,0
1.0,-258.0,34.0,136.0,-201.0,129.0,0
0.0,-258.0,31.0,128.0,-213.0,155.0,0
-1.0,-256.0,33.0,127.0,-230.0,177.0,0
-1.0,-259.0,35.0,131.0,-245.0,195.0,0
-7.0,-256.0,37.0,139.0,-255.0,206.0,0
-9.0,-253.0,35.0,147.0,-263.0,212.0,0
-10.0,-251.0,39.0,152.0,-266.0,208.0,0
-16.0,-250.0,40.0,155.0,-270.0,197.0,0
-16.0,-248.0,45.0,158.0,-277.0,182.0,0
-26.0,-245.0,46.0,156.0,-281.0,164.0,0
-27.0,-243.0,51.0,150.0,-287.0,142.0,0
-20.0,-242.0,58.0,141.0,-292.0,121.0,0
-27.0,-247.0,58.0,133.0,-293.0,103.0,0
-29.0,-248.0,63.0,123.0,-285.0,85.0,0
-31.0,-255.0,66.0,109.0,-276.0,73.0,0
-29.0,-256.0,71.0,89.0,-264.0,63.0,0
-28.0,-257.0,74.0,74.0,-248.0,54.0,0
-28.0,-261.0,68.0,70.0,-230.0,51.0,0
-23.0,-269.0,72.0,70.0,-212.0,57.0,0
-23.0,-273.0,71.0,73.0,-195.0,68.0,0
-21.0,-275.0,67.0,74.0,-179.0,83.0,0
-18.0,-280.0,65.0,73.0,-163.0,100.0,0
-15.0,-280.0,66.0,72.0,-147.0,121.0,0
-11.0,-278.0,62.0,74.0,-131.0,146.0,0
-11.0,-278.0,63.0,82.0,-111.0,172.0,0
-4.0,-275.0,60.0,96.0,-94.0,199.0,0
0.0,-274.0,58.0,112.0,-76.0,223.0,0
0.0,-269.0,59.0,124.0,-54.0,242.0,0
4.0,-262.0,56.0,131.0,-31.0,262.0,0
5.0,-261.0,58.0,134.0,-5.0,281.0,0
2.0,-255.0,59.0,134.0,14.0,295.0,0
4.0,-252.0,56.0,129.0,30.0,307.0,0
8.0,-251.0,53.0,120.0,43.0,318.0,0
2.0,-247.0,57.0,108.0,58.0,325.0,0
2.0,-248.0,59.0,94.0,74.0,330.0,0
4.0,-243.0,56.0,77.0,85.0,331.0,0
4.0,-243.0,56.0,58.0,94.0,330.0,0
2.0,-237.0,58.0,39.0,108.0,327.0,0
2.0,-239.0,57.0,21.0,125.0,321.0,0
-1.0,-241.0,61.0,5.0,144.0,313.0,0
-1.0,-239.0,56.0,-11.0,158.0,306.0,0
-5.0,-245.0,63.0,-23.0,168.0,298.0,0
-11.0,-245.0,61.0,-30.0,175.0,290.0,0
-15.0,-241.0,63.0,-26.0,177.0,282.0,0
-16.0,-241.0,62.0,-17.0,176.0,272.0,0
-19.0,-242.0,60.0,-7.0,176.0,265.0,0
-19.0,-242.0,63.0,7.0,180.0,256.0,0
-23.0,-239.0,58.0,24.0,193.0,246.0,0
-26.0,-238.0,54.0,36.0,212.0,236.0,0
-27.0,-236.0,54.0,43.0,237.0,225.0,0
-31.0,-232.0,50.0,49.0,257.0,216.0,0
-32.0,-232.0,49.0,49.0,276.0,207.0,0
-34.0,-231.0,43.0,46.0,289.0,198.0,0
-35.0,-225.0,46.0,43.0,297.0,189.0,0
-35.0,-227.0,43.0,38.0,298.0,179.0,0
-38.0,-218.0,49.0,35.0,297.0,171.0,0
-34.0,-215.0,47.0,35.0,297.0,165.0,0
-33.0,-216.0,55.0,45.0,294.0,154.0,0
-29.0,-216.0,64.0,62.0,296.0,139.0,0
-27.0,-214.0,65.0,79.0,298.0,124.0,0
-23.0,-216.0,71.0,109.0,304.0,108.0,0
-17.0,-215.0,74.0,139.0,310.0,91.0,0
-16.0,-215.0,79.0,170.0,321.0,70.0,0
-7.0,-216.0,80.0,195.0,331.0,48.0,0
0.0,-214.0,73.0,214.0,347.0,24.0,0
1.0,-208.0,68.0,221.0,375.0,3.0,0
2.0,-202.0,64.0,219.0,408.0,-17.0,0
1.0,-193.0,62.0,206.0,443.0,-35.0,0
1.0,-188.0,57.0,182.0,472.0,-52.0,0
2.0,-183.0,53.0,152.0,485.0,-71.0,0
0.0,-179.0,54.0,124.0,483.0,-89.0,0
4.0,-175.0,50.0,98.0,470.0,-101.0,0
1.0,-172.0,56.0,78.0,459.0,-121.0,0
-1.0,-171.0,63.0,62.0,451.0,-144.0,0
-9.0,-176.0,73.0,56.0,443.0,-169.0,0
-7.0,-183.0,86.0,61.0,432.0,-190.0,0
-9.0,-188.0,99.0,80.0,420.0,-210.0,0
-18.0,-198.0,105.0,111.0,415.0,-225.0,0
-17.0,-213.0,113.0,143.0,421.0,-237.0,0
-17.0,-219.0,112.0,173.0,440.0,-251.0,0
-20.0,-227.0,108.0,189.0,462.0,-265.0,0
-20.0,-229.0,93.0,195.0,492.0,-274.0,0
-21.0,-220.0,66.0,194.0,531.0,-282.0,0
-26.0,-215.0,51.0,190.0,578.0,-278.0,0
-29.0,-204.0,30.0,175.0,619.0,-268.0,0
-28.0,-193.0,20.0,141.0,638.0,-256.0,0
-29.0,-182.0,13.0,93.0,618.0,-249.0,0
-25.0,-175.0,20.0,44.0,563.0,-249.0,0
-23.0,-165.0,29.0,24.0,505.0,-258.0,0
-25.0,-162.0,49.0,30.0,462.0,-269.0,0
-26.0,-165.0,77.0,48.0,426.0,-284.0,0
-34.0,-168.0,112.0,58.0,386.0,-301.0,0
-38.0,-183.0,136.0,65.0,337.0,-318.0,0
-37.0,-199.0,164.0,74.0,292.0,-331.0,0
-42.0,-228.0,178.0,94.0,269.0,-343.0,0
-43.0,-248.0,184.0,119.0,263.0,-353.0,0
-48.0,-268.0,173.0,141.0,266.0,-363.0,0
-49.0,-280.0,141.0,146.0,280.0,-369.0,0
-63.0,-289.0,92.0,128.0,290.0,-366.0,0
-63.0,-299.0,47.0,89.0,279.0,-361.0,0
-65.0,-296.0,8.0,55.0,231.0,-355.0,0
-64.0,-285.0,-9.0,63.0,153.0,-354.0,0
-60.0,-266.0,-17.0,136.0,68.0,-357.0,0
-52.0,-238.0,1.0,269.0,12.0,-370.0,0
-46.0,-207.0,29.0,409.0,1.0,-391.0,0
-45.0,-182.0,64.0,499.0,6.0,-409.0,0
-50.0,-158.0,102.0,509.0,-16.0,-416.0,0
-50.0,-148.0,133.0,454.0,-81.0,-412.0,0
-49.0,-155.0,149.0,358.0,-171.0,-398.0,0
-46.0,-171.0,154.0,242.0,-248.0,-386.0,0
-47.0,-194.0,155.0,131.0,-292.0,-376.0,0
-44.0,-221.0,144.0,50.0,-306.0,-362.0,0
-44.0,-251.0,133.0,2.0,-296.0,-347.0,0
-49.0,-274.0,116.0,-16.0,-273.0,-326.0,0
-45.0,-298.0,101.0,-7.0,-238.0,-303.0,0
-42.0,-314.0,88.0,39.0,-200.0,-277.0,0
-42.0,-318.0,71.0,118.0,-165.0,-249.0,0
-44.0,-311.0,55.0,220.0,-138.0,-215.0,0
-44.0,-299.0,47.0,326.0,-112.0,-176.0,0
-40.0,-273.0,46.0,425.0,-86.0,-129.0,0
-35.0,-248.0,49.0,521.0,-66.0,-85.0,0
-29.0,-223.0,53.0,604.0,-44.0,-42.0,0
-23.0,-199.0,64.0,660.0,-23.0,1.0,0
-15.0,-181.0,80.0,677.0,0.0,42.0,0
-6.0,-171.0,92.0,666.0,20.0,77.0,0
5.0,-169.0,104.0,632.0,18.0,109.0,0
19.0,-181.0,115.0,577.0,7.0,132.0,0
32.0,-196.0,116.0,504.0,10.0,142.0,0
33.0,-211.0,117.0,418.0,40.0,148.0,0
37.0,-235.0,115.0,322.0,92.0,153.0,0
40.0,-261.0,113.0,229.0,138.0,157.0,0
45.0,-280.0,98.0,151.0,170.0,161.0,0
47.0,-305.0,77.0,85.0,198.0,172.0,0
52.0,-321.0,53.0,19.0,234.0,186.0,0
48.0,-340.0,28.0,-62.0,271.0,204.0,0
44.0,-359.0,10.0,-147.0,305.0,232.0,0
48.0,-382.0,5.0,-210.0,344.0,276.0,0
50.0,-397.0,3.0,-240.0,389.0,328.0,0
52.0,-409.0,8.0,-230.0,432.0,383.0,0
42.0,-412.0,18.0,-182.0,459.0,437.0,0
38.0,-417.0,28.0,-90.0,453.0,490.0,0
22.0,-410.0,33.0,44.0,423.0,535.0,0
30.0,-396.0,56.0,205.0,383.0,554.0,0
30.0,-373.0,73.0,363.0,356.0,548.0,0
21.0,-353.0,96.0,488.0,357.0,531.0,0
14.0,-333.0,117.0,568.0,369.0,509.0,0
12.0,-317.0,135.0,598.0,375.0,482.0,0
13.0,-315.0,145.0,591.0,366.0,454.0,0
20.0,-315.0,149.0,567.0,356.0,430.0,0
24.0,-319.0,150.0,532.0,354.0,406.0,0
31.0,-324.0,147.0,480.0,365.0,380.0,0
26.0,-337.0,147.0,430.0,380.0,357.0,0
26.0,-348.0,148.0,365.0,388.0,336.0,0
28.0,-352.0,148.0,307.0,384.0,316.0,0
18.0,-353.0,138.0,269.0,377.0,298.0,0
15.0,-350.0,132.0,251.0,372.0,279.0,0
20.0,-352.0,114.0,244.0,380.0,245.0,0
24.0,-345.0,114.0,227.0,417.0,179.0,0
12.0,-337.0,126.0,205.0,451.0,105.0,0
16.0,-329.0,126.0,194.0,438.0,41.0,0
21.0,-322.0,112.0,195.0,414.0,-9.0,0
20.0,-310.0,99.0,189.0,415.0,-71.0,0
7.0,-303.0,107.0,170.0,431.0,-136.0,0
0.0,-287.0,107.0,148.0,434.0,-200.0,0
-9.0,-278.0,109.0,135.0,415.0,-254.0,0
-17.0,-268.0,107.0,127.0,380.0,-297.0,0
-26.0,-260.0,100.0,108.0,347.0,-337.0,0
-27.0,-256.0,105.0,64.0,322.0,-373.0,0
-29.0,-250.0,112.0,8.0,295.0,-398.0,0
-28.0,-254.0,107.0,-55.0,267.0,-407.0,0
-25.0,-258.0,112.0,-124.0,248.0,-404.0,0
-17.0,-261.0,109.0,-196.0,236.0,-389.0,0
-13.0,-270.0,111.0,-263.0,231.0,-364.0,0
-7.0,-283.0,107.0,-314.0,227.0,-331.0,0
1.0,-288.0,111.0,-340.0,223.0,-298.0,0
5.0,-294.0,111.0,-337.0,218.0,-268.0,0
9.0,-293.0,108.0,-312.0,202.0,-243.0,0
13.0,-287.0,103.0,-270.0,176.0,-229.0,0
19.0,-278.0,94.0,-225.0,149.0,-227.0,0
23.0,-266.0,89.0,-188.0,127.0,-238.0,0
27.0,-254.0,79.0,-170.0,112.0,-259.0,0
27.0,-242.0,78.0,-166.0,108.0,-284.0,0
31.0,-230.0,75.0,-178.0,115.0,-310.0,0
29.0,-220.0,74.0,-205.0,125.0,-341.0,0
33.0,-215.0,83.0,-238.0,136.0,-368.0,0
21.0,-206.0,77.0,-275.0,147.0,-390.0,0
16.0,-197.0,86.0,-305.0,154.0,-405.0,0
16.0,-197.0,86.0,-327.0,160.0,-411.0,0
14.0,-197.0,87.0,-339.0,165.0,-410.0,0
13.0,-198.0,91.0,-345.0,169.0,-403.0,0
11.0,-197.0,94.0,-348.0,165.0,-392.0,0
6.0,-202.0,95.0,-348.0,155.0,-378.0,0
7.0,-206.0,91.0,-343.0,141.0,-363.0,0
1.0,-203.0,94.0,-335.0,119.0,-347.0,0
2.0,-207.0,88.0,-318.0,96.0,-330.0,0
-2.0,-203.0,89.0,-297.0,81.0,-312.0,0
-3.0,-201.0,85.0,-274.0,69.0,-293.0,0
-6.0,-197.0,81.0,-256.0,61.0,-274.0,0
-5.0,-193.0,76.0,-246.0,57.0,-250.0,0
-11.0,-190.0,70.0,-243.0,54.0,-221.0,0
-4.0,-189.0,75.0,-247.0,56.0,-184.0,0
-9.0,-190.0,71.0,-247.0,58.0,-141.0,0
-6.0,-192.0,73.0,-240.0,62.0,-95.0,0
-9.0,-193.0,83.0,-222.0,68.0,-43.0,0
-11.0,-192.0,89.0,-191.0,73.0,8.0,0
-7.0,-186.0,93.0,-153.0,73.0,57.0,0
-10.0,-185.0,99.0,-111.0,66.0,104.0,0
-12.0,-185.0,101.0,-69.0,56.0,150.0,0
-8.0,-184.0,109.0,-33.0,46.0,191.0,0
-4.0,-189.0,112.0,-4.0,33.0,226.0,0
0.0,-191.0,111.0,13.0,19.0,257.0,0
3.0,-193.0,110.0,19.0,8.0,278.0,0
7.0,-192.0,111.0,14.0,5.0,292.0,0
8.0,-194.0,111.0,3.0,14.0,301.0,0
11.0,-194.0,104.0,-1.0,26.0,304.0,0
11.0,-191.0,99.0,2.0,36.0,308.0,0
14.0,-193.0,88.0,11.0,40.0,310.0,0
17.0,-191.0,77.0,20.0,46.0,315.0,0
22.0,-190.0,70.0,21.0,62.0,321.0,0
24.0,-191.0,69.0,15.0,87.0,330.0,0
26.0,-195.0,72.0,9.0,119.0,343.0,0
27.0,-196.0,79.0,5.0,154.0,353.0,0
29.0,-197.0,83.0,3.0,187.0,362.0,0
40.0,-199.0,105.0,3.0,217.0,374.0,0
38.0,-201.0,108.0,-3.0,238.0,372.0,0
50.0,-201.0,107.0,-19.0,268.0,370.0,0
52.0,-202.0,109.0,-48.0,295.0,362.0,0
61.0,-204.0,107.0,-86.0,317.0,351.0,0
57.0,-210.0,96.0,-117.0,344.0,332.0,0
60.0,-217.0,84.0,-130.0,374.0,303.0,0
58.0,-216.0,76.0,-125.0,404.0,256.0,0
57.0,-215.0,66.0,-108.0,437.0,194.0,0
55.0,-213.0,59.0,-88.0,469.0,127.0,0
54.0,-211.0,58.0,-63.0,497.0,62.0,0
43.0,-210.0,56.0,-33.0,521.0,3.0,0
44.0,-206.0,64.0,5.0,542.0,-49.0,0
40.0,-205.0,72.0,51.0,560.0,-93.0,0
37.0,-202.0,80.0,96.0,588.0,-129.0,0
35.0,-200.0,92.0,131.0,630.0,-158.0,0
28.0,-196.0,108.0,153.0,674.0,-174.0,0
20.0,-193.0,120.0,163.0,711.0,-177.0,0
13.0,-196.0,127.0,162.0,738.0,-164.0,0
12.0,-193.0,130.0,144.0,762.0,-141.0,0
10.0,-196.0,128.0,111.0,781.0,-108.0,0
10.0,-201.0,120.0,79.0,793.0,-77.0,0
12.0,-204.0,113.0,50.0,789.0,-57.0,0
12.0,-199.0,91.0,15.0,764.0,-44.0,0
17.0,-199.0,71.0,-12.0,727.0,-40.0,0
10.0,-195.0,63.0,-29.0,688.0,-48.0,0
5.0,-182.0,45.0,-31.0,649.0,-61.0,0
8.0,-190.0,44.0,-37.0,576.0,-77.0,0
2.0,-185.0,37.0,-55.0,501.0,-106.0,0
-1.0,-190.0,36.0,-83.0,456.0,-142.0,0
-14.0,-199.0,41.0,-116.0,422.0,-181.0,0
-30.0,-212.0,62.0,-140.0,390.0,-209.0,0
-41.0,-238.0,87.0,-162.0,348.0,-240.0,0
-43.0,-269.0,100.0,-196.0,271.0,-271.0,0
-32.0,-315.0,101.0,-240.0,176.0,-305.0,0
-24.0,-354.0,93.0,-286.0,121.0,-348.0,0
-23.0,-397.0,82.0,-351.0,124.0,-392.0,0
-26.0,-448.0,80.0,-445.0,156.0,-429.0,0
-35.0,-480.0,76.0,-535.0,173.0,-450.0,0
-33.0,-514.0,56.0,-569.0,144.0,-443.0,0
-26.0,-533.0,25.0,-523.0,105.0,-419.0,0
-18.0,-536.0,6.0,-391.0,73.0,-399.0,0
-20.0,-527.0,1.0,-170.0,36.0,-384.0,0
-27.0,-501.0,14.0,116.0,-12.0,-361.0,0
-40.0,-456.0,40.0,450.0,-86.0,-315.0,0
-57.0,-412.0,61.0,782.0,-182.0,-234.0,0
-60.0,-365.0,79.0,1034.0,-284.0,-150.0,0
-67.0,-329.0,95.0,1156.0,-386.0,-79.0,0
-54.0,-299.0,103.0,1153.0,-469.0,-24.0,0
-42.0,-291.0,102.0,1049.0,-517.0,16.0,0
-31.0,-293.0,89.0,874.0,-515.0,33.0,0
-35.0,-305.0,85.0,664.0,-475.0,24.0,0
-44.0,-326.0,85.0,457.0,-423.0,3.0,0
-51.0,-354.0,85.0,286.0,-388.0,-24.0,0
-50.0,-380.0,87.0,164.0,-371.0,-50.0,0
-41.0,-398.0,89.0,94.0,-358.0,-77.0,0
-32.0,-403.0,99.0,85.0,-348.0,-82.0,0
-24.0,-395.0,101.0,134.0,-332.0,-64.0,0
-19.0,-389.0,109.0,219.0,-317.0,-19.0,0
-14.0,-374.0,108.0,304.0,-304.0,36.0,0
-11.0,-356.0,113.0,366.0,-289.0,95.0,0
-8.0,-343.0,110.0,397.0,-263.0,155.0,0
-4.0,-329.0,111.0,408.0,-224.0,215.0,0
-3.0,-319.0,111.0,404.0,-176.0,269.0,0
0.0,-314.0,113.0,388.0,-133.0,308.0,0
1.0,-298.0,118.0,362.0,-99.0,335.0,0
3.0,-291.0,117.0,322.0,-76.0,352.0,0
11.0,-279.0,117.0,273.0,-50.0,365.0,0
10.0,-269.0,119.0,220.0,-17.0,378.0,0
8.0,-258.0,109.0,159.0,24.0,393.0,0
13.0,-250.0,107.0,94.0,69.0,412.0,0
15.0,-243.0,102.0,35.0,117.0,436.0,0
17.0,-238.0,98.0,-19.0,169.0,466.0,0
17.0,-227.0,94.0,-67.0,221.0,496.0,0
21.0,-225.0,93.0,-112.0,284.0,523.0,0
22.0,-215.0,87.0,-163.0,351.0,546.0,0
15.0,-212.0,85.0,-216.0,413.0,570.0,0
13.0,-214.0,77.0,-277.0,463.0,585.0,0
3.0,-213.0,69.0,-343.0,510.0,589.0,0
-5.0,-217.0,71.0,-409.0,547.0,583.0,0
-18.0,-225.0,75.0,-475.0,568.0,567.0,0
-30.0,-237.0,74.0,-536.0,566.0,534.0,0
-37.0,-248.0,74.0,-587.0,542.0,493.0,0
-41.0,-253.0,71.0,-624.0,512.0,442.0,0
-47.0,-257.0,77.0,-649.0,479.0,383.0,0
-53.0,-262.0,80.0,-666.0,452.0,321.0,0
-63.0,-262.0,77.0,-666.0,433.0,257.0,0
-69.0,-259.0,84.0,-646.0,415.0,206.0,0
-74.0,-256.0,85.0,-603.0,386.0,174.0,0
-85.0,-248.0,89.0,-547.0,345.0,153.0,0
-88.0,-240.0,87.0,-484.0,306.0,139.0,0
-95.0,-231.0,86.0,-420.0,263.0,133.0,0
-98.0,-227.0,83.0,-362.0,215.0,133.0,0
-97.0,-221.0,78.0,-311.0,165.0,135.0,0
-97.0,-216.0,76.0,-268.0,116.0,140.0,0
-93.0,-215.0,76.0,-231.0,74.0,147.0,0
-88.0,-212.0,68.0,-201.0,43.0,153.0,0
-82.0,-211.0,64.0,-182.0,17.0,158.0,0
-78.0,-209.0,65.0,-174.0,-7.0,155.0,0
-70.0,-210.0,62.0,-175.0,-33.0,152.0,0
-68.0,-207.0,64.0,-177.0,-59.0,142.0,0
-60.0,-208.0,67.0,-176.0,-91.0,131.0,0
-55.0,-210.0,68.0,-169.0,-124.0,119.0,0
-48.0,-208.0,69.0,-158.0,-151.0,107.0,0
-43.0,-210.0,72.0,-147.0,-177.0,95.0,0
-31.0,-213.0,73.0,-133.0,-194.0,82.0,0
-26.0,-217.0,75.0,-120.0,-202.0,71.0,0
-19.0,-222.0,78.0,-106.0,-204.0,55.0,0
-10.0,-225.0,81.0,-89.0,-199.0,40.0,0
-4.0,-231.0,87.0,-70.0,-194.0,26.0,0
0.0,-233.0,83.0,-49.0,-191.0,11.0,0
0.0,-228.0,82.0,-23.0,-191.0,-4.0,0
-1.0,-223.0,89.0,9.0,-196.0,-16.0,0
-2.0,-219.0,88.0,41.0,-206.0,-24.0,0
-10.0,-209.0,85.0,71.0,-217.0,-31.0,0
-14.0,-204.0,79.0,93.0,-222.0,-38.0,0
-19.0,-199.0,76.0,100.0,-223.0,-43.0,0
-22.0,-192.0,83.0,89.0,-220.0,-48.0,0
-33.0,-189.0,83.0,66.0,-217.0,-50.0,0
-37.0,-188.0,89.0,35.0,-222.0,-51.0,0
-41.0,-187.0,86.0,5.0,-233.0,-49.0,0
-46.0,-188.0,85.0,-30.0,-244.0,-53.0,0
-51.0,-190.0,86.0,-68.0,-252.0,-59.0,0
-59.0,-192.0,85.0,-105.0,-252.0,-65.0,0
-62.0,-201.0,90.0,-131.0,-254.0,-73.0,0
-65.0,-208.0,93.0,-149.0,-260.0,-79.0,0
-70.0,-211.0,90.0,-148.0,-272.0,-79.0,0
-67.0,-218.0,95.0,-126.0,-290.0,-77.0,0
-67.0,-216.0,96.0,-88.0,-326.0,-69.0,0
-62.0,-219.0,91.0,-33.0,-363.0,-60.0,0
-61.0,-211.0,88.0,22.0,-409.0,-45.0,0
-58.0,-205.0,83.0,65.0,-442.0,-28.0,0
-51.0,-198.0,88.0,95.0,-466.0,-11.0,0
-47.0,-192.0,90.0,116.0,-482.0,3.0,0
-50.0,-184.0,86.0,124.0,-495.0,16.0,0
-50.0,-187.0,87.0,113.0,-504.0,28.0,0
-45.0,-181.0,78.0,83.0,-511.0,39.0,0
-48.0,-182.0,71.0,44.0,-516.0,49.0,0
-44.0,-182.0,53.0,-1.0,-514.0,53.0,0
-43.0,-181.0,48.0,-50.0,-505.0,52.0,0
-37.0,-179.0,45.0,-97.0,-503.0,47.0,0
-28.0,-182.0,48.0,-130.0,-519.0,38.0,0
-20.0,-182.0,55.0,-135.0,-546.0,23.0,0
-16.0,-180.0,63.0,-119.0,-571.0,6.0,0
-9.0,-177.0,76.0,-97.0,-588.0,-14.0,0
-7.0,-173.0,88.0,-86.0,-602.0,-38.0,0
-4.0,-183.0,109.0,-89.0,-621.0,-63.0,0
-11.0,-187.0,121.0,-102.0,-647.0,-82.0,0
-13.0,-197.0,126.0,-117.0,-677.0,-100.0,0
-17.0,-207.0,121.0,-136.0,-702.0,-112.0,0
-22.0,-217.0,114.0,-158.0,-711.0,-124.0,0
-20.0,-227.0,92.0,-180.0,-697.0,-135.0,0
-24.0,-234.0,70.0,-200.0,-663.0,-146.0,0
-29.0,-237.0,51.0,-214.0,-616.0,-150.0,0
-31.0,-240.0,37.0,-215.0,-571.0,-146.0,0
-25.0,-238.0,27.0,-198.0,-543.0,-137.0,0
-17.0,-236.0,38.0,-159.0,-545.0,-135.0,0
-18.0,-228.0,47.0,-93.0,-556.0,-131.0,0
-22.0,-219.0,69.0,-20.0,-569.0,-124.0,0
-25.0,-211.0,101.0,37.0,-586.0,-114.0,0
-26.0,-209.0,123.0,70.0,-618.0,-101.0,0
-35.0,-215.0,132.0,85.0,-657.0,-85.0,0
-38.0,-226.0,146.0,82.0,-688.0,-66.0,0
-39.0,-239.0,150.0,76.0,-711.0,-52.0,0
-45.0,-250.0,146.0,80.0,-722.0,-41.0,0
-52.0,-261.0,139.0,99.0,-718.0,-33.0,0
-51.0,-270.0,125.0,131.0,-700.0,-26.0,0
-49.0,-272.0,108.0,171.0,-671.0,-17.0,0
-43.0,-261.0,78.0,224.0,-633.0,-11.0,0
-39.0,-253.0,63.0,288.0,-590.0,-12.0,0
-29.0,-245.0,54.0,352.0,-547.0,-6.0,0
-24.0,-226.0,52.0,416.0,-516.0,0.0,0
-18.0,-205.0,59.0,476.0,-505.0,10.0,0
-12.0,-189.0,67.0,531.0,-506.0,19.0,0
-12.0,-172.0,86.0,576.0,-518.0,31.0,0
-9.0,-162.0,108.0,603.0,-527.0,49.0,0
-8.0,-157.0,112.0,595.0,-523.0,76.0,0
-13.0,-153.0,121.0,544.0,-511.0,114.0,0
-40.0,-181.0,129.0,459.0,-496.0,173.0,0
-52.0,-201.0,126.0,354.0,-466.0,259.0,0
-42.0,-236.0,109.0,221.0,-406.0,373.0,0
-8.0,-280.0,76.0,46.0,-339.0,507.0,0
15.0,-332.0,55.0,-154.0,-277.0,658.0,0
37.0,-386.0,31.0,-337.0,-198.0,816.0,0
41.0,-425.0,20.0,-465.0,-104.0,954.0,0
41.0,-449.0,15.0,-508.0,-46.0,1047.0,0
26.0,-450.0,21.0,-439.0,-52.0,1075.0,0
26.0,-444.0,30.0,-264.0,-112.0,1043.0,0
30.0,-425.0,41.0,-41.0,-193.0,952.0,0
32.0,-404.0,56.0,153.0,-247.0,806.0,0
36.0,-386.0,75.0,277.0,-251.0,627.0,0
34.0,-373.0,103.0,345.0,-208.0,445.0,0
18.0,-353.0,125.0,399.0,-147.0,293.0,0
3.0,-330.0,127.0,473.0,-110.0,179.0,0
-12.0,-312.0,126.0,557.0,-96.0,99.0,0
-20.0,-286.0,110.0,621.0,-76.0,48.0,0
-27.0,-274.0,91.0,622.0,-39.0,19.0,0
-25.0,-265.0,82.0,549.0,19.0,12.0,0
-18.0,-278.0,72.0,418.0,83.0,28.0,0
-11.0,-303.0,64.0,252.0,151.0,73.0,0
12.0,-339.0,78.0,68.0,218.0,146.0,0
28.0,-386.0,92.0,-119.0,288.0,260.0,0
39.0,-437.0,110.0,-285.0,342.0,385.0,0
46.0,-477.0,133.0,-386.0,369.0,493.0,0
47.0,-502.0,153.0,-386.0,349.0,547.0,0
48.0,-508.0,163.0,-258.0,273.0,538.0,0
51.0,-494.0,143.0,-20.0,181.0,484.0,0
62.0,-471.0,117.0,257.0,133.0,390.0,0
67.0,-438.0,99.0,491.0,148.0,260.0,0
60.0,-400.0,97.0,645.0,197.0,118.0,0
42.0,-369.0,95.0,710.0,235.0,-17.0,0
23.0,-336.0,109.0,707.0,246.0,-123.0,0
1.0,-310.0,123.0,664.0,228.0,-196.0,0
-19.0,-291.0,123.0,600.0,200.0,-249.0,0
-39.0,-277.0,124.0,520.0,177.0,-292.0,0
-62.0,-265.0,129.0,439.0,157.0,-317.0,0
-77.0,-257.0,129.0,365.0,126.0,-339.0,0
-89.0,-254.0,126.0,296.0,85.0,-358.0,0
-90.0,-254.0,125.0,232.0,31.0,-381.0,0
-90.0,-252.0,116.0,167.0,-25.0,-411.0,0
-84.0,-252.0,119.0,98.0,-80.0,-450.0,0
-79.0,-252.0,110.0,31.0,-139.0,-491.0,0
-70.0,-252.0,105.0,-11.0,-196.0,-536.0,0
-63.0,-247.0,99.0,-51.0,-243.0,-583.0,0
-47.0,-248.0,98.0,-79.0,-278.0,-632.0,0
-36.0,-245.0,92.0,-103.0,-301.0,-674.0,0
-23.0,-240.0,90.0,-125.0,-312.0,-708.0,0
-12.0,-238.0,86.0,-146.0,-317.0,-727.0,0
-1.0,-235.0,86.0,-170.0,-311.0,-741.0,0
6.0,-230.0,82.0,-194.0,-297.0,-741.0,0
15.0,-231.0,80.0,-219.0,-271.0,-732.0,0
22.0,-227.0,86.0,-246.0,-236.0,-705.0,0
28.0,-228.0,85.0,-271.0,-197.0,-661.0,0
38.0,-234.0,88.0,-297.0,-155.0,-604.0,0
43.0,-236.0,89.0,-322.0,-116.0,-541.0,0
43.0,-235.0,90.0,-340.0,-81.0,-481.0,0
41.0,-232.0,90.0,-346.0,-52.0,-429.0,0
43.0,-225.0,87.0,-342.0,-27.0,-385.0,0
42.0,-222.0,87.0,-329.0,-1.0,-349.0,0
42.0,-217.0,80.0,-317.0,30.0,-315.0,0
41.0,-213.0,81.0,-310.0,65.0,-287.0,0
40.0,-210.0,82.0,-308.0,99.0,-266.0,0
37.0,-205.0,89.0,-310.0,134.0,-248.0,0
39.0,-206.0,92.0,-311.0,168.0,-233.0,0
34.0,-204.0,93.0,-313.0,198.0,-220.0,0
27.0,-206.0,95.0,-314.0,219.0,-213.0,0
29.0,-204.0,98.0,-321.0,231.0,-205.0,0
24.0,-204.0,101.0,-327.0,238.0,-200.0,0
26.0,-207.0,107.0,-329.0,245.0,-194.0,0
25.0,-207.0,102.0,-332.0,254.0,-190.0,0
21.0,-207.0,108.0,-336.0,268.0,-183.0,0
18.0,-210.0,109.0,-339.0,281.0,-177.0,0
16.0,-213.0,108.0,-342.0,291.0,-168.0,0
12.0,-214.0,111.0,-341.0,298.0,-158.0,0
13.0,-214.0,111.0,-333.0,299.0,-143.0,0
8.0,-214.0,113.0,-318.0,298.0,-122.0,0
6.0,-218.0,112.0,-299.0,294.0,-98.0,0
3.0,-219.0,109.0,-276.0,293.0,-67.0,0
2.0,-218.0,105.0,-252.0,293.0,-37.0,0
-1.0,-218.0,102.0,-231.0,298.0,-4.0,0
-4.0,-218.0,95.0,-216.0,304.0,32.0,0
-7.0,-218.0,91.0,-203.0,308.0,71.0,0
-9.0,-220.0,89.0,-186.0,309.0,108.0,0
-11.0,-220.0,86.0,-157.0,304.0,144.0,0
-17.0,-218.0,78.0,-120.0,298.0,178.0,0
-15.0,-209.0,89.0,-81.0,293.0,205.0,0
-11.0,-207.0,88.0,-45.0,289.0,227.0,0
-12.0,-207.0,90.0,-18.0,286.0,246.0,0
-10.0,-200.0,94.0,0.0,277.0,257.0,0
-11.0,-197.0,100.0,13.0,264.0,264.0,0
-4.0,-195.0,99.0,20.0,250.0,263.0,0
-4.0,-192.0,103.0,19.0,237.0,258.0,0
-1.0,-195.0,105.0,11.0,224.0,251.0,0
0.0,-193.0,108.0,-3.0,209.0,239.0,0
1.0,-195.0,106.0,-21.0,198.0,228.0,0
5.0,-199.0,106.0,-44.0,189.0,214.0,0
3.0,-197.0,102.0,-67.0,186.0,198.0,0
13.0,-201.0,100.0,-85.0,189.0,184.0,0
13.0,-200.0,105.0,-103.0,193.0,167.0,0
19.0,-198.0,102.0,-119.0,207.0,151.0,0
22.0,-194.0,99.0,-136.0,226.0,136.0,0
25.0,-189.0,97.0,-152.0,249.0,129.0,0
29.0,-189.0,96.0,-167.0,268.0,125.0,0
31.0,-191.0,91.0,-175.0,283.0,121.0,0
38.0,-187.0,91.0,-184.0,292.0,116.0,0
39.0,-187.0,88.0,-197.0,305.0,110.0,0
33.0,-193.0,85.0,-206.0,328.0,103.0,0
43.0,-187.0,90.0,-207.0,363.0,92.0,0
40.0,-183.0,88.0,-206.0,402.0,83.0,0
40.0,-184.0,88.0,-203.0,439.0,73.0,0
39.0,-189.0,90.0,-201.0,478.0,67.0,0
34.0,-188.0,91.0,-198.0,515.0,68.0,0
33.0,-190.0,94.0,-194.0,556.0,70.0,0
34.0,-190.0,98.0,-192.0,597.0,72.0,0
31.0,-192.0,96.0,-190.0,638.0,74.0,0
30.0,-198.0,102.0,-187.0,677.0,77.0,0
26.0,-199.0,107.0,-181.0,716.0,75.0,0
24.0,-199.0,109.0,-169.0,747.0,71.0,0
29.0,-203.0,108.0,-161.0,766.0,69.0,0
35.0,-206.0,103.0,-163.0,781.0,68.0,0
41.0,-216.0,90.0,-179.0,797.0,63.0,0
51.0,-225.0,80.0,-203.0,821.0,55.0,0
52.0,-228.0,72.0,-219.0,854.0,44.0,0
46.0,-239.0,69.0,-217.0,892.0,34.0,0
36.0,-238.0,75.0,-184.0,926.0,27.0,0
19.0,-239.0,81.0,-117.0,948.0,21.0,0
12.0,-232.0,95.0,-40.0,958.0,14.0,0
1.0,-228.0,103.0,25.0,956.0,7.0,0
0.0,-212.0,101.0,66.0,954.0,-1.0,0
-7.0,-204.0,105.0,82.0,949.0,-7.0,0
-8.0,-199.0,99.0,75.0,945.0,-5.0,0
-9.0,-200.0,103.0,52.0,946.0,-6.0,0
-8.0,-201.0,95.0,14.0,939.0,-10.0,0
-9.0,-203.0,90.0,-28.0,924.0,-12.0,0
-7.0,-209.0,81.0,-62.0,905.0,-13.0,0
0.0,-213.0,68.0,-82.0,879.0,-14.0,0
0.0,-217.0,61.0,-86.0,849.0,-16.0,0
0.0,-217.0,46.0,-77.0,815.0,-19.0,0
-8.0,-219.0,45.0,-43.0,784.0,-22.0,0
-24.0,-211.0,55.0,23.0,762.0,-23.0,0
-35.0,-202.0,64.0,118.0,741.0,-20.0,0
-38.0,-189.0,83.0,218.0,709.0,-13.0,0
-40.0,-186.0,99.0,285.0,653.0,-7.0,0
-29.0,-184.0,111.0,335.0,566.0,7.0,0
-20.0,-191.0,112.0,350.0,482.0,20.0,0
-18.0,-199.0,113.0,332.0,423.0,27.0,0
-25.0,-216.0,119.0,281.0,376.0,33.0,0
-38.0,-239.0,127.0,211.0,329.0,27.0,0
-46.0,-266.0,122.0,141.0,236.0,6.0,0
-37.0,-304.0,92.0,72.0,125.0,-29.0,0
-44.0,-341.0,53.0,0.0,73.0,-94.0,0
-56.0,-382.0,37.0,-94.0,102.0,-192.0,0
-66.0,-424.0,37.0,-208.0,139.0,-311.0,0
-71.0,-462.0,52.0,-279.0,129.0,-412.0,0
-59.0,-489.0,58.0,-247.0,67.0,-530.0,0
-36.0,-506.0,47.0,-111.0,-19.0,-628.0,0
-8.0,-508.0,30.0,78.0,-84.0,-705.0,0
12.0,-497.0,21.0,278.0,-93.0,-757.0,0
19.0,-483.0,30.0,472.0,-61.0,-780.0,0
12.0,-463.0,55.0,661.0,-26.0,-767.0,0
0.0,-438.0,78.0,852.0,-15.0,-712.0,0
-10.0,-403.0,87.0,1043.0,-24.0,-618.0,0
-21.0,-370.0,85.0,1210.0,-44.0,-517.0,0
-25.0,-338.0,91.0,1311.0,-68.0,-421.0,0
-24.0,-302.0,87.0,1336.0,-91.0,-326.0,0
-23.0,-279.0,75.0,1288.0,-114.0,-246.0,0
-18.0,-273.0,68.0,1169.0,-109.0,-167.0,0
-6.0,-273.0,63.0,1005.0,-68.0,-92.0,0
-13.0,-271.0,64.0,822.0,-8.0,-48.0,0
-22.0,-271.0,69.0,653.0,66.0,-17.0,0
-18.0,-273.0,81.0,522.0,136.0,17.0,0
-25.0,-283.0,85.0,420.0,194.0,50.0,0
-23.0,-290.0,99.0,333.0,226.0,73.0,0
-24.0,-297.0,108.0,243.0,239.0,82.0,0
-21.0,-312.0,112.0,139.0,244.0,83.0,0
-22.0,-322.0,114.0,34.0,251.0,77.0,0
-28.0,-345.0,116.0,-60.0,263.0,71.0,0
-34.0,-358.0,124.0,-126.0,279.0,69.0,0
-42.0,-367.0,128.0,-143.0,286.0,68.0,0
-43.0,-374.0,135.0,-108.0,286.0,78.0,0
-48.0,-376.0,139.0,-27.0,282.0,100.0,0
-49.0,-377.0,143.0,79.0,279.0,130.0,0
-47.0,-367.0,145.0,186.0,285.0,170.0,0
-49.0,-353.0,135.0,275.0,288.0,205.0,0
-45.0,-342.0,128.0,327.0,293.0,239.0,0
-42.0,-323.0,122.0,343.0,298.0,274.0,0
-37.0,-311.0,119.0,334.0,303.0,316.0,0
-33.0,-293.0,116.0,318.0,307.0,356.0,0
-31.0,-275.0,111.0,296.0,317.0,393.0,0
-29.0,-263.0,110.0,263.0,333.0,420.0,0
-34.0,-251.0,108.0,214.0,352.0,438.0,0
-35.0,-239.0,103.0,153.0,372.0,449.0,0
-35.0,-235.0,99.0,83.0,394.0,451.0,0
-37.0,-228.0,97.0,14.0,412.0,444.0,0
-34.0,-223.0,94.0,-49.0,432.0,431.0,0
-31.0,-221.0,86.0,-111.0,451.0,414.0,0
-34.0,-218.0,82.0,-171.0,471.0,394.0,0
-30.0,-216.0,84.0,-230.0,497.0,369.0,0
-30.0,-212.0,75.0,-295.0,527.0,341.0,0
-33.0,-210.0,78.0,-362.0,549.0,307.0,0
-25.0,-213.0,76.0,-429.0,561.0,263.0,0
-29.0,-214.0,73.0,-493.0,561.0,211.0,0
-28.0,-220.0,75.0,-557.0,558.0,156.0,0
-30.0,-223.0,82.0,-608.0,555.0,97.0,0
-29.0,-229.0,90.0,-638.0,549.0,43.0,0
-28.0,-227.0,93.0,-639.0,538.0,0.0,0
-30.0,-232.0,98.0,-616.0,522.0,-26.0,0
-30.0,-230.0,94.0,-585.0,502.0,-41.0,0
-36.0,-226.0,89.0,-554.0,475.0,-47.0,0
-43.0,-221.0,85.0,-528.0,445.0,-48.0,0
-47.0,-221.0,82.0,-500.0,419.0,-41.0,0
-50.0,-215.0,81.0,-479.0,389.0,-28.0,0
-51.0,-212.0,76.0,-462.0,363.0,-19.0,0
-57.0,-205.0,75.0,-447.0,339.0,-10.0,0
-57.0,-201.0,82.0,-432.0,320.0,-3.0,0
-60.0,-205.0,78.0,-415.0,304.0,0.0,0
-63.0,-204.0,76.0,-396.0,289.0,1.0,0
-70.0,-202.0,80.0,-382.0,272.0,-2.0,0
-67.0,-213.0,83.0,-373.0,250.0,-6.0,0
-68.0,-216.0,90.0,-364.0,223.0,-13.0,0
-63.0,-223.0,92.0,-346.0,202.0,-20.0,0
-57.0,-232.0,94.0,-317.0,184.0,-29.0,0
-50.0,-235.0,97.0,-280.0,174.0,-42.0,0
-40.0,-244.0,94.0,-244.0,165.0,-59.0,0
-37.0,-247.0,96.0,-209.0,155.0,-77.0,0
-34.0,-250.0,94.0,-172.0,146.0,-97.0,0
-32.0,-249.0,91.0,-132.0,140.0,-121.0,0
-29.0,-248.0,89.0,-89.0,135.0,-145.0,0
-28.0,-241.0,85.0,-39.0,136.0,-165.0,0
-24.0,-232.0,83.0,14.0,140.0,-187.0,0
-29.0,-220.0,79.0,57.0,140.0,-204.0,0
-30.0,-212.0,78.0,91.0,130.0,-219.0,0
-27.0,-202.0,78.0,114.0,121.0,-235.0,0
-31.0,-192.0,76.0,129.0,113.0,-246.0,0
-30.0,-192.0,79.0,136.0,110.0,-259.0,0
-34.0,-194.0,80.0,137.0,106.0,-270.0,0
-37.0,-194.0,86.0,135.0,98.0,-281.0,0
-43.0,-194.0,87.0,134.0,84.0,-291.0,0
-47.0,-196.0,89.0,139.0,65.0,-299.0,0
-56.0,-195.0,97.0,152.0,41.0,-304.0,0
-55.0,-195.0,101.0,169.0,13.0,-304.0,0
-59.0,-198.0,103.0,185.0,-14.0,-300.0,0
-59.0,-196.0,103.0,202.0,-41.0,-290.0,0
-63.0,-195.0,106.0,215.0,-62.0,-275.0,0
-61.0,-195.0,106.0,219.0,-81.0,-254.0,0
-62.0,-189.0,105.0,212.0,-101.0,-225.0,0
-64.0,-191.0,102.0,201.0,-126.0,-197.0,0
-64.0,-184.0,101.0,188.0,-157.0,-165.0,0
-64.0,-186.0,96.0,172.0,-191.0,-131.0,0
-62.0,-180.0,91.0,151.0,-227.0,-99.0,0
-61.0,-178.0,79.0,130.0,-252.0,-72.0,0
-62.0,-182.0,83.0,110.0,-270.0,-51.0,0
-65.0,-177.0,81.0,85.0,-288.0,-31.0,0
-72.0,-180.0,78.0,55.0,-319.0,-14.0,0
-75.0,-183.0,90.0,25.0,-364.0,0.0,0
-74.0,-188.0,96.0,-1.0,-417.0,14.0,0
-73.0,-189.0,100.0,-11.0,-471.0,20.0,0
-73.0,-187.0,110.0,-11.0,-520.0,21.0,0
-73.0,-193.0,110.0,-7.0,-561.0,21.0,0
-75.0,-196.0,118.0,-3.0,-598.0,19.0,0
-76.0,-198.0,114.0,-4.0,-634.0,20.0,0
-79.0,-204.0,110.0,-14.0,-668.0,23.0,0
-80.0,-208.0,102.0,-33.0,-705.0,28.0,0
-80.0,-214.0,98.0,-56.0,-738.0,38.0,0
-72.0,-215.0,99.0,-72.0,-788.0,45.0,0
-65.0,-217.0,89.0,-78.0,-838.0,54.0,0
-62.0,-215.0,86.0,-73.0,-880.0,65.0,0
-55.0,-217.0,84.0,-66.0,-915.0,73.0,0
-50.0,-215.0,85.0,-58.0,-940.0,79.0,0
-49.0,-213.0,85.0,-62.0,-960.0,82.0,0
-50.0,-217.0,77.0,-86.0,-973.0,87.0,0
-45.0,-222.0,81.0,-127.0,-972.0,91.0,0
-42.0,-231.0,78.0,-168.0,-961.0,92.0,0
-40.0,-237.0,78.0,-197.0,-946.0,91.0,0
-33.0,-241.0,74.0,-211.0,-930.0,95.0,0
-27.0,-250.0,75.0,-202.0,-920.0,100.0,0
-23.0,-244.0,80.0,-173.0,-921.0,110.0,0
-15.0,-240.0,82.0,-124.0,-929.0,124.0,0
-10.0,-234.0,84.0,-67.0,-934.0,135.0,0
-4.0,-227.0,81.0,-9.0,-932.0,149.0,0
-6.0,-215.0,88.0,39.0,-926.0,164.0,0
-6.0,-205.0,104.0,76.0,-924.0,176.0,0
-3.0,-198.0,110.0,109.0,-928.0,187.0,0
0.0,-195.0,119.0,136.0,-926.0,193.0,0
4.0,-192.0,126.0,160.0,-917.0,195.0,0
3.0,-190.0,128.0,177.0,-901.0,195.0,0
1.0,-189.0,127.0,190.0,-885.0,196.0,0
2.0,-189.0,128.0,198.0,-869.0,193.0,0
1.0,-191.0,123.0,199.0,-844.0,189.0,0
0.0,-191.0,113.0,194.0,-813.0,180.0,0
0.0,-191.0,102.0,188.0,-779.0,170.0,0
-1.0,-194.0,99.0,185.0,-744.0,158.0,0
0.0,-190.0,96.0,187.0,-713.0,150.0,0
-9.0,-191.0,95.0,193.0,-686.0,137.0,0
-18.0,-192.0,93.0,197.0,-660.0,128.0,0
-20.0,-192.0,82.0,188.0,-625.0,127.0,0
-40.0,-191.0,79.0,154.0,-590.0,142.0,0
-53.0,-203.0,72.0,88.0,-572.0,189.0,0
-60.0,-225.0,57.0,2.0,-559.0,253.0,0
