ax,ay,az,gx,gy,gz,label
39.0,-255.0,63.0,-51.0,274.0,-80.0,0
33.0,-252.0,61.0,-54.0,267.0,-78.0,0
27.0,-253.0,60.0,-56.0,260.0,-79.0,0
23.0,-253.0,58.0,-63.0,255.0,-75.0,0
17.0,-250.0,57.0,-72.0,248.0,-77.0,0
16.0,-251.0,59.0,-82.0,240.0,-71.0,0
15.0,-251.0,56.0,-90.0,225.0,-71.0,0
11.0,-250.0,57.0,-99.0,204.0,-62.0,0
13.0,-247.0,54.0,-110.0,182.0,-60.0,0
10.0,-246.0,52.0,-122.0,161.0,-56.0,0
13.0,-246.0,51.0,-130.0,140.0,-57.0,0
15.0,-246.0,55.0,-126.0,121.0,-54.0,0
18.0,-246.0,58.0,-115.0,99.0,-58.0,0
20.0,-240.0,61.0,-99.0,82.0,-58.0,0
23.0,-243.0,59.0,-91.0,69.0,-64.0,0
29.0,-247.0,58.0,-99.0,71.0,-68.0,0
32.0,-252.0,58.0,-121.0,92.0,-77.0,0
36.0,-258.0,64.0,-145.0,122.0,-78.0,0
40.0,-265.0,68.0,-165.0,142.0,-78.0,0
43.0,-264.0,66.0,-179.0,148.0,-68.0,0
45.0,-262.0,63.0,-190.0,147.0,-62.0,0
49.0,-257.0,50.0,-210.0,150.0,-51.0,0
44.0,-254.0,44.0,-242.0,167.0,-47.0,0
36.0,-245.0,34.0,-284.0,199.0,-43.0,0
42.0,-241.0,34.0,-327.0,234.0,-42.0,0
30.0,-253.0,48.0,-357.0,255.0,-32.0,0
29.0,-262.0,50.0,-372.0,262.0,-23.0,0
21.0,-267.0,44.0,-375.0,255.0,-10.0,0
21.0,-257.0,57.0,-363.0,234.0,-3.0,0
11.0,-270.0,67.0,-334.0,195.0,10.0,0
2.0,-268.0,74.0,-295.0,159.0,19.0,0
2.0,-260.0,82.0,-274.0,117.0,35.0,0
-6.0,-254.0,78.0,-274.0,69.0,43.0,0
-7.0,-253.0,81.0,-283.0,21.0,61.0,0
-11.0,-259.0,81.0,-291.0,-18.0,69.0,0
-12.0,-272.0,88.0,-288.0,-55.0,79.0,0
-6.0,-271.0,95.0,-268.0,-95.0,82.0,0
-9.0,-255.0,103.0,-231.0,-142.0,91.0,0
-7.0,-257.0,106.0,-188.0,-196.0,99.0,0
-9.0,-254.0,111.0,-157.0,-252.0,108.0,0
-7.0,-255.0,87.0,-150.0,-322.0,109.0,0
-6.0,-254.0,83.0,-167.0,-376.0,110.0,0
0.0,-255.0,84.0,-186.0,-428.0,115.0,0
7.0,-255.0,76.0,-199.0,-470.0,114.0,0
9.0,-253.0,80.0,-204.0,-503.0,104.0,0
15.0,-254.0,77.0,-201.0,-537.0,104.0,0
15.0,-252.0,75.0,-200.0,-569.0,99.0,0
14.0,-252.0,77.0,-203.0,-596.0,97.0,0
17.0,-254.0,79.0,-209.0,-622.0,96.0,0
14.0,-259.0,85.0,-219.0,-646.0,104.0,0
11.0,-251.0,74.0,-237.0,-670.0,106.0,0
9.0,-251.0,73.0,-263.0,-709.0,110.0,0
7.0,-247.0,75.0,-286.0,-744.0,110.0,0
3.0,-245.0,73.0,-301.0,-775.0,116.0,0
6.0,-244.0,75.0,-312.0,-801.0,120.0,0
4.0,-240.0,78.0,-319.0,-827.0,127.0,0
10.0,-241.0,75.0,-325.0,-855.0,128.0,0
18.0,-239.0,74.0,-335.0,-881.0,133.0,0
23.0,-243.0,74.0,-347.0,-903.0,134.0,0
25.0,-246.0,75.0,-355.0,-916.0,134.0,0
31.0,-252.0,73.0,-360.0,-921.0,131.0,0
34.0,-252.0,75.0,-360.0,-934.0,130.0,0
37.0,-255.0,70.0,-357.0,-946.0,125.0,0
40.0,-256.0,63.0,-358.0,-955.0,121.0,0
42.0,-253.0,64.0,-369.0,-961.0,108.0,0
34.0,-254.0,55.0,-390.0,-967.0,102.0,0
37.0,-253.0,60.0,-415.0,-968.0,88.0,0
36.0,-258.0,62.0,-434.0,-963.0,76.0,0
34.0,-255.0,62.0,-440.0,-951.0,58.0,0
35.0,-262.0,59.0,-426.0,-937.0,53.0,0
36.0,-258.0,58.0,-407.0,-927.0,46.0,0
34.0,-252.0,59.0,-394.0,-919.0,40.0,0
32.0,-247.0,59.0,-394.0,-910.0,24.0,0
33.0,-245.0,57.0,-399.0,-914.0,22.0,0
42.0,-245.0,54.0,-407.0,-920.0,21.0,0
46.0,-243.0,56.0,-409.0,-923.0,17.0,0
51.0,-245.0,54.0,-409.0,-920.0,1.0,0
55.0,-248.0,54.0,-406.0,-912.0,-6.0,0
58.0,-243.0,55.0,-400.0,-895.0,-13.0,0
61.0,-245.0,50.0,-401.0,-880.0,-17.0,0
63.0,-246.0,50.0,-409.0,-862.0,-28.0,0
63.0,-250.0,46.0,-425.0,-846.0,-32.0,0
63.0,-253.0,48.0,-445.0,-831.0,-48.0,0
62.0,-253.0,49.0,-457.0,-809.0,-48.0,0
65.0,-251.0,49.0,-451.0,-782.0,-55.0,0
63.0,-248.0,43.0,-438.0,-755.0,-49.0,0
57.0,-244.0,45.0,-423.0,-731.0,-52.0,0
63.0,-241.0,46.0,-415.0,-710.0,-50.0,0
67.0,-241.0,44.0,-408.0,-690.0,-50.0,0
67.0,-241.0,45.0,-402.0,-662.0,-45.0,0
71.0,-244.0,47.0,-395.0,-625.0,-49.0,0
71.0,-251.0,52.0,-380.0,-579.0,-48.0,0
70.0,-253.0,57.0,-358.0,-534.0,-45.0,0
66.0,-249.0,48.0,-343.0,-483.0,-29.0,0
59.0,-250.0,44.0,-341.0,-446.0,-23.0,0
54.0,-244.0,35.0,-351.0,-410.0,-14.0,0
53.0,-242.0,36.0,-360.0,-373.0,-13.0,0
52.0,-242.0,37.0,-354.0,-337.0,-8.0,0
49.0,-241.0,40.0,-341.0,-306.0,-3.0,0
41.0,-241.0,44.0,-326.0,-278.0,5.0,0
38.0,-239.0,49.0,-318.0,-250.0,8.0,0
35.0,-237.0,48.0,-323.0,-229.0,17.0,0
30.0,-236.0,53.0,-334.0,-216.0,21.0,0
29.0,-237.0,50.0,-345.0,-209.0,36.0,0
27.0,-246.0,57.0,-354.0,-210.0,49.0,0
24.0,-243.0,55.0,-354.0,-224.0,70.0,0
23.0,-247.0,55.0,-351.0,-244.0,87.0,0
23.0,-248.0,53.0,-348.0,-270.0,105.0,0
25.0,-248.0,52.0,-339.0,-297.0,115.0,0
20.0,-251.0,46.0,-330.0,-319.0,123.0,0
26.0,-252.0,45.0,-316.0,-339.0,123.0,0
27.0,-257.0,49.0,-302.0,-351.0,126.0,0
27.0,-259.0,48.0,-287.0,-362.0,126.0,0
21.0,-262.0,48.0,-277.0,-375.0,133.0,0
22.0,-261.0,50.0,-270.0,-398.0,140.0,0
22.0,-264.0,51.0,-267.0,-421.0,149.0,0
18.0,-260.0,50.0,-269.0,-444.0,149.0,0
24.0,-259.0,46.0,-273.0,-468.0,150.0,0
28.0,-258.0,46.0,-281.0,-493.0,147.0,0
32.0,-259.0,38.0,-289.0,-516.0,150.0,0
34.0,-262.0,36.0,-301.0,-535.0,153.0,0
39.0,-264.0,31.0,-314.0,-549.0,167.0,0
35.0,-267.0,27.0,-329.0,-553.0,183.0,0
34.0,-272.0,24.0,-354.0,-556.0,208.0,0
31.0,-284.0,22.0,-373.0,-570.0,232.0,0
36.0,-293.0,26.0,-372.0,-598.0,253.0,0
43.0,-304.0,20.0,-358.0,-627.0,258.0,0
55.0,-306.0,9.0,-342.0,-640.0,241.0,0
63.0,-307.0,1.0,-337.0,-632.0,211.0,0
71.0,-311.0,-1.0,-347.0,-609.0,182.0,0
73.0,-319.0,0.0,-374.0,-574.0,139.0,0
64.0,-326.0,3.0,-401.0,-540.0,89.0,0
57.0,-337.0,20.0,-411.0,-519.0,34.0,0
47.0,-342.0,30.0,-388.0,-528.0,-10.0,0
46.0,-349.0,34.0,-335.0,-557.0,-53.0,0
44.0,-351.0,32.0,-267.0,-595.0,-94.0,0
49.0,-356.0,33.0,-194.0,-619.0,-118.0,0
48.0,-348.0,26.0,-155.0,-639.0,-128.0,0
51.0,-340.0,13.0,-134.0,-650.0,-135.0,0
54.0,-334.0,5.0,-133.0,-644.0,-123.0,0
60.0,-325.0,2.0,-142.0,-617.0,-107.0,0
66.0,-324.0,0.0,-155.0,-578.0,-87.0,0
78.0,-324.0,0.0,-176.0,-535.0,-71.0,0
89.0,-329.0,-1.0,-192.0,-488.0,-55.0,0
99.0,-335.0,7.0,-198.0,-440.0,-47.0,0
104.0,-340.0,5.0,-192.0,-383.0,-38.0,0
109.0,-340.0,4.0,-184.0,-341.0,-40.0,0
116.0,-345.0,2.0,-189.0,-314.0,-46.0,0
121.0,-346.0,0.0,-203.0,-297.0,-53.0,0
121.0,-351.0,-12.0,-225.0,-281.0,-55.0,0
117.0,-356.0,-21.0,-248.0,-254.0,-52.0,0
105.0,-356.0,-21.0,-259.0,-217.0,-42.0,0
97.0,-356.0,-14.0,-238.0,-177.0,-30.0,0
78.0,-351.0,-14.0,-182.0,-144.0,-9.0,0
71.0,-339.0,-22.0,-114.0,-119.0,13.0,0
60.0,-323.0,-21.0,-61.0,-94.0,46.0,0
57.0,-309.0,-22.0,-38.0,-50.0,71.0,0
52.0,-296.0,-27.0,-48.0,-4.0,98.0,0
53.0,-285.0,-31.0,-79.0,47.0,122.0,0
52.0,-276.0,-29.0,-126.0,94.0,150.0,0
56.0,-276.0,-34.0,-180.0,134.0,176.0,0
64.0,-279.0,-41.0,-232.0,168.0,206.0,0
67.0,-279.0,-42.0,-275.0,195.0,235.0,0
76.0,-288.0,-48.0,-303.0,212.0,276.0,0
81.0,-293.0,-49.0,-314.0,223.0,316.0,0
83.0,-300.0,-55.0,-303.0,234.0,366.0,0
83.0,-306.0,-62.0,-267.0,257.0,404.0,0
78.0,-308.0,-67.0,-240.0,279.0,441.0,0
78.0,-311.0,-65.0,-212.0,297.0,473.0,0
68.0,-314.0,-62.0,-176.0,307.0,503.0,0
59.0,-315.0,-56.0,-133.0,308.0,529.0,0
54.0,-312.0,-53.0,-81.0,301.0,548.0,0
51.0,-309.0,-52.0,-35.0,288.0,557.0,0
44.0,-301.0,-52.0,-9.0,271.0,564.0,0
43.0,-299.0,-52.0,-6.0,256.0,563.0,0
41.0,-299.0,-55.0,-12.0,250.0,555.0,0
40.0,-296.0,-47.0,-17.0,250.0,540.0,0
32.0,-290.0,-49.0,2.0,252.0,523.0,0
31.0,-283.0,-36.0,46.0,250.0,501.0,0
30.0,-276.0,-32.0,98.0,238.0,485.0,0
26.0,-263.0,-30.0,151.0,240.0,471.0,0
30.0,-255.0,-23.0,198.0,256.0,462.0,0
25.0,-245.0,-22.0,230.0,282.0,433.0,0
30.0,-241.0,-29.0,231.0,302.0,408.0,0
36.0,-238.0,-35.0,199.0,316.0,390.0,0
33.0,-234.0,-42.0,135.0,336.0,375.0,0
36.0,-235.0,-51.0,65.0,385.0,355.0,0
27.0,-238.0,-52.0,-7.0,433.0,340.0,0
25.0,-244.0,-50.0,-52.0,475.0,324.0,0
24.0,-251.0,-43.0,-83.0,511.0,328.0,0
14.0,-255.0,-36.0,-95.0,537.0,322.0,0
14.0,-254.0,-34.0,-88.0,542.0,316.0,0
7.0,-259.0,-33.0,-69.0,526.0,335.0,0
5.0,-255.0,-33.0,-41.0,502.0,354.0,0
7.0,-257.0,-29.0,-17.0,475.0,373.0,0
6.0,-257.0,-29.0,-1.0,452.0,385.0,0
5.0,-256.0,-28.0,9.0,430.0,397.0,0
-4.0,-254.0,-31.0,5.0,402.0,403.0,0
-4.0,-254.0,-31.0,-8.0,375.0,407.0,0
-3.0,-253.0,-31.0,-27.0,340.0,409.0,0
-6.0,-252.0,-32.0,-48.0,311.0,406.0,0
-9.0,-254.0,-41.0,-73.0,290.0,399.0,0
-13.0,-247.0,-43.0,-104.0,273.0,392.0,0
-18.0,-248.0,-44.0,-138.0,257.0,394.0,0
-23.0,-245.0,-39.0,-167.0,234.0,392.0,0
-19.0,-252.0,-42.0,-192.0,200.0,410.0,0
-23.0,-246.0,-36.0,-212.0,165.0,420.0,0
-23.0,-248.0,-33.0,-226.0,126.0,435.0,0
-22.0,-250.0,-29.0,-233.0,99.0,444.0,0
-24.0,-251.0,-26.0,-235.0,67.0,455.0,0
-21.0,-254.0,-20.0,-233.0,31.0,477.0,0
-15.0,-252.0,-18.0,-230.0,-5.0,493.0,0
-13.0,-253.0,-18.0,-224.0,-32.0,508.0,0
-16.0,-252.0,-16.0,-220.0,-49.0,519.0,0
-20.0,-250.0,-14.0,-207.0,-54.0,525.0,0
-19.0,-253.0,-17.0,-200.0,-64.0,537.0,0
-12.0,-250.0,-16.0,-195.0,-83.0,552.0,0
-9.0,-253.0,-19.0,-185.0,-102.0,560.0,0
-5.0,-250.0,-17.0,-162.0,-115.0,562.0,0
6.0,-252.0,-13.0,-136.0,-117.0,572.0,0
9.0,-248.0,-16.0,-113.0,-114.0,582.0,0
16.0,-251.0,-17.0,-92.0,-104.0,590.0,0
9.0,-250.0,-15.0,-74.0,-91.0,594.0,0
7.0,-251.0,-13.0,-65.0,-73.0,590.0,0
0.0,-249.0,-7.0,-62.0,-65.0,579.0,0
0.0,-251.0,-6.0,-52.0,-67.0,598.0,0
-1.0,-255.0,-8.0,-45.0,-58.0,617.0,0
-5.0,-249.0,-5.0,-35.0,-42.0,622.0,0
-6.0,-246.0,-11.0,-24.0,-21.0,630.0,0
-9.0,-243.0,-9.0,-25.0,-4.0,639.0,0
-9.0,-240.0,-14.0,-35.0,13.0,638.0,0
-7.0,-237.0,-9.0,-47.0,25.0,631.0,0
-11.0,-240.0,-12.0,-61.0,35.0,647.0,0
-12.0,-244.0,-10.0,-68.0,57.0,650.0,0
-15.0,-243.0,-7.0,-72.0,78.0,641.0,0
-21.0,-251.0,-4.0,-70.0,97.0,645.0,0
-24.0,-258.0,-1.0,-63.0,109.0,643.0,0
-24.0,-262.0,0.0,-47.0,109.0,644.0,0
-23.0,-263.0,-2.0,-24.0,117.0,620.0,0
-20.0,-269.0,0.0,4.0,138.0,600.0,0
-21.0,-265.0,-3.0,31.0,163.0,584.0,0
-25.0,-263.0,-3.0,70.0,187.0,559.0,0
-27.0,-258.0,-3.0,112.0,208.0,528.0,0
-26.0,-250.0,-11.0,146.0,228.0,497.0,0
-21.0,-243.0,-8.0,164.0,254.0,475.0,0
-12.0,-238.0,-12.0,165.0,286.0,464.0,0
-12.0,-238.0,-10.0,148.0,328.0,440.0,0
-12.0,-237.0,-2.0,123.0,374.0,401.0,0
-16.0,-242.0,-2.0,101.0,415.0,353.0,0
-20.0,-247.0,2.0,90.0,444.0,323.0,0
-24.0,-254.0,13.0,86.0,453.0,305.0,0
-27.0,-260.0,6.0,74.0,450.0,278.0,0
-24.0,-268.0,9.0,61.0,444.0,254.0,0
-22.0,-268.0,16.0,48.0,434.0,237.0,0
-25.0,-272.0,12.0,44.0,425.0,235.0,0
-23.0,-273.0,17.0,42.0,422.0,213.0,0
-27.0,-271.0,16.0,39.0,417.0,188.0,0
-25.0,-272.0,11.0,33.0,421.0,176.0,0
-25.0,-275.0,13.0,15.0,434.0,159.0,0
-31.0,-274.0,16.0,-8.0,453.0,124.0,0
-33.0,-274.0,22.0,-30.0,463.0,101.0,0
-36.0,-278.0,19.0,-41.0,466.0,78.0,0
-39.0,-276.0,18.0,-48.0,458.0,48.0,0
-50.0,-277.0,2.0,-60.0,440.0,12.0,0
-58.0,-277.0,-4.0,-91.0,411.0,-14.0,0
-62.0,-288.0,-20.0,-149.0,366.0,-27.0,0
-68.0,-296.0,-43.0,-227.0,305.0,-32.0,0
-74.0,-311.0,-47.0,-312.0,228.0,-38.0,0
-73.0,-324.0,-56.0,-383.0,141.0,-37.0,0
-69.0,-340.0,-57.0,-414.0,50.0,-31.0,0
-60.0,-352.0,-57.0,-404.0,1.0,-14.0,0
-48.0,-362.0,-58.0,-375.0,-15.0,9.0,0
-37.0,-372.0,-43.0,-339.0,-3.0,38.0,0
-34.0,-380.0,-27.0,-286.0,29.0,69.0,0
-31.0,-379.0,-9.0,-212.0,65.0,99.0,0
-30.0,-373.0,0.0,-120.0,95.0,125.0,0
-26.0,-367.0,0.0,-25.0,123.0,136.0,0
-20.0,-359.0,-11.0,51.0,142.0,138.0,0
-13.0,-344.0,-24.0,104.0,151.0,135.0,0
-5.0,-334.0,-44.0,135.0,147.0,124.0,0
4.0,-319.0,-66.0,138.0,135.0,109.0,0
12.0,-304.0,-76.0,112.0,137.0,80.0,0
15.0,-297.0,-83.0,69.0,155.0,44.0,0
6.0,-290.0,-81.0,24.0,179.0,-1.0,0
1.0,-293.0,-81.0,-9.0,201.0,-46.0,0
-9.0,-285.0,-71.0,-29.0,223.0,-92.0,0
-17.0,-285.0,-66.0,-33.0,239.0,-135.0,0
-29.0,-282.0,-64.0,-30.0,249.0,-180.0,0
-36.0,-277.0,-64.0,-31.0,251.0,-226.0,0
-47.0,-273.0,-61.0,-46.0,245.0,-289.0,0
-48.0,-271.0,-65.0,-89.0,229.0,-336.0,0
-46.0,-270.0,-69.0,-142.0,216.0,-389.0,0
-36.0,-274.0,-75.0,-192.0,213.0,-437.0,0
-32.0,-278.0,-85.0,-231.0,227.0,-483.0,0
-31.0,-286.0,-82.0,-246.0,244.0,-518.0,0
-27.0,-300.0,-81.0,-229.0,265.0,-546.0,0
-26.0,-307.0,-78.0,-181.0,287.0,-557.0,0
-24.0,-310.0,-71.0,-100.0,305.0,-562.0,0
-22.0,-304.0,-75.0,-8.0,318.0,-560.0,0
-19.0,-296.0,-76.0,88.0,331.0,-554.0,0
-12.0,-281.0,-77.0,175.0,350.0,-542.0,0
-17.0,-268.0,-79.0,251.0,376.0,-534.0,0
-18.0,-255.0,-72.0,288.0,398.0,-520.0,0
-27.0,-243.0,-63.0,310.0,409.0,-509.0,0
-30.0,-235.0,-51.0,321.0,398.0,-489.0,0
-30.0,-228.0,-41.0,328.0,361.0,-468.0,0
-28.0,-227.0,-32.0,333.0,310.0,-440.0,0
-23.0,-227.0,-35.0,331.0,267.0,-413.0,0
-19.0,-227.0,-36.0,317.0,251.0,-392.0,0
-12.0,-233.0,-38.0,279.0,260.0,-383.0,0
-10.0,-234.0,-39.0,222.0,275.0,-382.0,0
-8.0,-249.0,-38.0,140.0,277.0,-390.0,0
-8.0,-258.0,-29.0,72.0,269.0,-392.0,0
-7.0,-270.0,-21.0,29.0,253.0,-401.0,0
-6.0,-279.0,-13.0,23.0,230.0,-400.0,0
-7.0,-291.0,-14.0,43.0,204.0,-399.0,0
-3.0,-293.0,-6.0,81.0,179.0,-408.0,0
-1.0,-295.0,-6.0,132.0,144.0,-408.0,0
5.0,-289.0,-13.0,181.0,116.0,-405.0,0
2.0,-279.0,-15.0,212.0,94.0,-423.0,0
10.0,-278.0,-26.0,236.0,80.0,-424.0,0
13.0,-268.0,-33.0,244.0,78.0,-444.0,0
13.0,-263.0,-34.0,246.0,81.0,-446.0,0
18.0,-255.0,-38.0,245.0,101.0,-461.0,0
17.0,-245.0,-34.0,243.0,119.0,-477.0,0
25.0,-252.0,-37.0,236.0,143.0,-475.0,0
21.0,-238.0,-33.0,220.0,168.0,-500.0,0
24.0,-240.0,-31.0,206.0,183.0,-498.0,0
20.0,-239.0,-25.0,190.0,194.0,-488.0,0
14.0,-237.0,-22.0,175.0,207.0,-487.0,0
19.0,-242.0,-12.0,158.0,212.0,-474.0,0
17.0,-245.0,-20.0,143.0,221.0,-466.0,0
24.0,-245.0,-21.0,134.0,225.0,-452.0,0
24.0,-248.0,-20.0,129.0,236.0,-440.0,0
21.0,-246.0,-17.0,128.0,249.0,-431.0,0
21.0,-243.0,-17.0,135.0,262.0,-435.0,0
23.0,-238.0,-15.0,148.0,264.0,-441.0,0
32.0,-241.0,-16.0,162.0,264.0,-442.0,0
28.0,-234.0,-14.0,174.0,264.0,-455.0,0
29.0,-231.0,-15.0,182.0,265.0,-454.0,0
27.0,-226.0,-15.0,184.0,274.0,-484.0,0
28.0,-222.0,-18.0,183.0,268.0,-505.0,0
29.0,-217.0,-16.0,173.0,273.0,-523.0,0
24.0,-210.0,-12.0,152.0,272.0,-551.0,0
20.0,-212.0,-14.0,128.0,270.0,-551.0,0
20.0,-207.0,-16.0,101.0,270.0,-577.0,0
19.0,-204.0,-14.0,72.0,256.0,-581.0,0
19.0,-209.0,-14.0,45.0,241.0,-577.0,0
18.0,-208.0,-16.0,19.0,227.0,-594.0,0
16.0,-209.0,-15.0,-6.0,213.0,-603.0,0
12.0,-210.0,-15.0,-32.0,199.0,-594.0,0
7.0,-213.0,-17.0,-54.0,183.0,-597.0,0
8.0,-212.0,-16.0,-74.0,167.0,-622.0,0
9.0,-213.0,-16.0,-82.0,146.0,-617.0,0
6.0,-212.0,-16.0,-89.0,133.0,-608.0,0
10.0,-214.0,-11.0,-93.0,118.0,-616.0,0
11.0,-209.0,-12.0,-99.0,95.0,-607.0,0
18.0,-214.0,-13.0,-105.0,70.0,-597.0,0
24.0,-220.0,-7.0,-118.0,53.0,-582.0,0
27.0,-219.0,-1.0,-131.0,41.0,-585.0,0
32.0,-227.0,2.0,-130.0,24.0,-563.0,0
33.0,-232.0,0.0,-119.0,-1.0,-540.0,0
35.0,-235.0,1.0,-107.0,-21.0,-536.0,0
36.0,-230.0,3.0,-103.0,-46.0,-546.0,0
46.0,-233.0,3.0,-95.0,-68.0,-513.0,0
47.0,-231.0,-4.0,-82.0,-73.0,-494.0,0
48.0,-232.0,-6.0,-76.0,-67.0,-484.0,0
53.0,-237.0,-11.0,-77.0,-54.0,-492.0,0
52.0,-236.0,-7.0,-85.0,-50.0,-492.0,0
56.0,-246.0,-3.0,-85.0,-45.0,-464.0,0
58.0,-250.0,-1.0,-83.0,-42.0,-450.0,0
59.0,-256.0,1.0,-84.0,-44.0,-443.0,0
58.0,-262.0,4.0,-79.0,-53.0,-431.0,0
56.0,-266.0,4.0,-69.0,-61.0,-421.0,0
52.0,-273.0,8.0,-52.0,-70.0,-404.0,0
50.0,-272.0,13.0,-24.0,-83.0,-390.0,0
41.0,-273.0,14.0,12.0,-102.0,-364.0,0
34.0,-273.0,18.0,48.0,-128.0,-337.0,0
32.0,-269.0,19.0,80.0,-153.0,-299.0,0
26.0,-276.0,23.0,105.0,-171.0,-267.0,0
19.0,-257.0,28.0,122.0,-182.0,-246.0,0
22.0,-249.0,28.0,127.0,-199.0,-202.0,0
20.0,-242.0,22.0,116.0,-207.0,-154.0,0
22.0,-236.0,18.0,89.0,-204.0,-129.0,0
18.0,-239.0,20.0,45.0,-196.0,-108.0,0
23.0,-240.0,21.0,-11.0,-192.0,-113.0,0
29.0,-249.0,19.0,-71.0,-207.0,-91.0,0
32.0,-262.0,24.0,-126.0,-238.0,-78.0,0
42.0,-273.0,18.0,-169.0,-279.0,-69.0,0
50.0,-282.0,21.0,-198.0,-313.0,-68.0,0
53.0,-288.0,16.0,-212.0,-333.0,-59.0,0
59.0,-292.0,11.0,-215.0,-340.0,-58.0,0
60.0,-299.0,9.0,-223.0,-342.0,-53.0,0
61.0,-309.0,8.0,-244.0,-343.0,-41.0,0
63.0,-324.0,5.0,-273.0,-344.0,-32.0,0
66.0,-338.0,6.0,-295.0,-352.0,-27.0,0
78.0,-350.0,-4.0,-301.0,-362.0,-11.0,0
97.0,-365.0,-11.0,-290.0,-360.0,-6.0,0
104.0,-370.0,-24.0,-278.0,-332.0,-16.0,0
108.0,-382.0,-30.0,-271.0,-281.0,-46.0,0
101.0,-385.0,-32.0,-268.0,-225.0,-71.0,0
90.0,-391.0,-13.0,-254.0,-187.0,-98.0,0
80.0,-392.0,-4.0,-221.0,-185.0,-124.0,0
71.0,-388.0,5.0,-147.0,-205.0,-150.0,0
61.0,-381.0,8.0,-60.0,-225.0,-142.0,0
54.0,-373.0,9.0,38.0,-242.0,-130.0,0
43.0,-361.0,0.0,128.0,-253.0,-109.0,0
36.0,-349.0,-15.0,204.0,-259.0,-93.0,0
25.0,-336.0,-41.0,249.0,-265.0,-72.0,0
23.0,-329.0,-58.0,252.0,-272.0,-45.0,0
21.0,-317.0,-85.0,211.0,-286.0,-12.0,0
17.0,-304.0,-97.0,138.0,-304.0,16.0,0
15.0,-298.0,-105.0,47.0,-320.0,55.0,0
14.0,-292.0,-113.0,-52.0,-328.0,87.0,0
20.0,-294.0,-108.0,-110.0,-336.0,127.0,0
24.0,-294.0,-98.0,-136.0,-334.0,161.0,0
29.0,-298.0,-90.0,-130.0,-324.0,195.0,0
35.0,-304.0,-88.0,-96.0,-312.0,223.0,0
42.0,-306.0,-77.0,-41.0,-312.0,256.0,0
51.0,-303.0,-79.0,13.0,-319.0,283.0,0
56.0,-299.0,-79.0,55.0,-324.0,308.0,0
62.0,-291.0,-80.0,75.0,-320.0,323.0,0
64.0,-282.0,-73.0,76.0,-304.0,343.0,0
63.0,-282.0,-68.0,61.0,-278.0,349.0,0
65.0,-277.0,-62.0,47.0,-254.0,360.0,0
65.0,-276.0,-58.0,44.0,-230.0,362.0,0
58.0,-272.0,-53.0,46.0,-204.0,368.0,0
57.0,-270.0,-45.0,53.0,-175.0,370.0,0
52.0,-267.0,-48.0,58.0,-147.0,376.0,0
52.0,-270.0,-44.0,56.0,-124.0,375.0,0
49.0,-271.0,-51.0,54.0,-105.0,375.0,0
49.0,-267.0,-53.0,50.0,-85.0,367.0,0
44.0,-263.0,-52.0,49.0,-60.0,365.0,0
43.0,-258.0,-54.0,57.0,-32.0,354.0,0
41.0,-255.0,-49.0,72.0,-13.0,349.0,0
44.0,-250.0,-50.0,84.0,12.0,338.0,0
45.0,-247.0,-46.0,99.0,55.0,331.0,0
39.0,-248.0,-36.0,116.0,97.0,318.0,0
40.0,-249.0,-35.0,133.0,125.0,308.0,0
37.0,-248.0,-30.0,140.0,129.0,299.0,0
36.0,-249.0,-29.0,130.0,119.0,299.0,0
37.0,-242.0,-35.0,98.0,114.0,298.0,0
41.0,-247.0,-33.0,61.0,125.0,303.0,0
40.0,-254.0,-26.0,24.0,159.0,300.0,0
37.0,-254.0,-20.0,12.0,197.0,298.0,0
35.0,-257.0,-23.0,10.0,228.0,296.0,0
34.0,-254.0,-13.0,9.0,249.0,301.0,0
34.0,-252.0,-16.0,5.0,262.0,310.0,0
38.0,-251.0,-24.0,-2.0,271.0,329.0,0
31.0,-247.0,-26.0,-18.0,283.0,338.0,0
31.0,-243.0,-27.0,-37.0,299.0,361.0,0
25.0,-238.0,-32.0,-54.0,313.0,377.0,0
20.0,-236.0,-26.0,-69.0,330.0,394.0,0
12.0,-234.0,-28.0,-79.0,344.0,412.0,0
4.0,-234.0,-23.0,-80.0,353.0,427.0,0
-3.0,-238.0,-22.0,-76.0,355.0,445.0,0
-12.0,-231.0,-18.0,-74.0,348.0,455.0,0
-25.0,-232.0,-21.0,-74.0,329.0,464.0,0
-27.0,-228.0,-17.0,-80.0,297.0,472.0,0
-25.0,-231.0,-20.0,-92.0,257.0,487.0,0
-29.0,-234.0,-21.0,-114.0,218.0,489.0,0
-31.0,-228.0,-25.0,-141.0,173.0,488.0,0
-28.0,-236.0,-27.0,-169.0,130.0,502.0,0
-29.0,-244.0,-28.0,-190.0,80.0,495.0,0
-27.0,-246.0,-26.0,-204.0,37.0,500.0,0
-19.0,-257.0,-28.0,-193.0,2.0,510.0,0
-18.0,-254.0,-29.0,-163.0,-21.0,499.0,0
-12.0,-253.0,-29.0,-133.0,-41.0,488.0,0
-7.0,-253.0,-32.0,-111.0,-58.0,499.0,0
0.0,-252.0,-27.0,-91.0,-64.0,521.0,0
-3.0,-245.0,-22.0,-77.0,-64.0,513.0,0
-2.0,-241.0,-21.0,-64.0,-72.0,511.0,0
6.0,-239.0,-15.0,-46.0,-85.0,545.0,0
7.0,-238.0,-15.0,-26.0,-84.0,556.0,0
7.0,-233.0,-18.0,-19.0,-88.0,554.0,0
10.0,-228.0,-18.0,-25.0,-93.0,572.0,0
10.0,-235.0,-18.0,-30.0,-91.0,618.0,0
11.0,-233.0,-17.0,-41.0,-79.0,613.0,0
11.0,-237.0,-21.0,-51.0,-76.0,626.0,0
14.0,-236.0,-21.0,-54.0,-66.0,645.0,0
17.0,-235.0,-16.0,-52.0,-56.0,645.0,0
14.0,-235.0,-22.0,-47.0,-52.0,666.0,0
9.0,-232.0,-19.0,-40.0,-38.0,675.0,0
10.0,-229.0,-16.0,-36.0,-17.0,661.0,0
5.0,-238.0,-17.0,-41.0,-3.0,682.0,0
2.0,-238.0,-13.0,-48.0,20.0,676.0,0
-5.0,-243.0,-18.0,-53.0,34.0,662.0,0
-7.0,-244.0,-14.0,-57.0,39.0,667.0,0
-5.0,-250.0,-17.0,-54.0,54.0,696.0,0
-9.0,-250.0,-15.0,-52.0,79.0,672.0,0
-12.0,-249.0,-13.0,-48.0,101.0,653.0,0
-11.0,-245.0,-16.0,-43.0,119.0,648.0,0
-12.0,-249.0,-16.0,-31.0,143.0,668.0,0
-20.0,-251.0,-12.0,-27.0,167.0,642.0,0
-27.0,-248.0,-9.0,-18.0,183.0,628.0,0
-30.0,-245.0,-10.0,-12.0,191.0,639.0,0
-32.0,-245.0,-9.0,-4.0,204.0,644.0,0
-36.0,-240.0,-12.0,-2.0,213.0,607.0,0
-34.0,-241.0,-13.0,-9.0,217.0,581.0,0
-33.0,-242.0,-13.0,-20.0,217.0,565.0,0
-32.0,-243.0,-17.0,-39.0,210.0,549.0,0
-39.0,-240.0,-16.0,-60.0,198.0,524.0,0
-40.0,-243.0,-15.0,-81.0,183.0,501.0,0
-42.0,-245.0,-20.0,-102.0,164.0,469.0,0
-41.0,-245.0,-21.0,-125.0,142.0,445.0,0
-43.0,-249.0,-21.0,-143.0,128.0,427.0,0
-42.0,-256.0,-18.0,-155.0,128.0,410.0,0
-42.0,-259.0,-13.0,-164.0,131.0,353.0,0
-40.0,-265.0,-6.0,-163.0,140.0,328.0,0
-40.0,-270.0,-3.0,-147.0,155.0,298.0,0
-37.0,-277.0,0.0,-123.0,180.0,274.0,0
-37.0,-282.0,5.0,-95.0,204.0,251.0,0
-36.0,-293.0,10.0,-69.0,219.0,240.0,0
-34.0,-297.0,10.0,-45.0,220.0,239.0,0
-26.0,-297.0,13.0,-11.0,223.0,244.0,0
-22.0,-298.0,12.0,28.0,239.0,255.0,0
-17.0,-294.0,14.0,75.0,267.0,244.0,0
-12.0,-285.0,10.0,122.0,298.0,219.0,0
-12.0,-274.0,9.0,159.0,322.0,210.0,0
-10.0,-266.0,5.0,180.0,338.0,214.0,0
-12.0,-260.0,5.0,176.0,347.0,204.0,0
-12.0,-253.0,4.0,149.0,345.0,188.0,0
-11.0,-256.0,4.0,108.0,342.0,196.0,0
-12.0,-258.0,3.0,57.0,349.0,191.0,0
-13.0,-262.0,1.0,-10.0,376.0,166.0,0
-15.0,-268.0,4.0,-60.0,408.0,147.0,0
-21.0,-271.0,9.0,-104.0,443.0,129.0,0
-27.0,-279.0,9.0,-139.0,469.0,101.0,0
-34.0,-290.0,0.0,-168.0,480.0,69.0,0
-44.0,-298.0,-6.0,-195.0,476.0,37.0,0
-48.0,-311.0,-19.0,-234.0,462.0,12.0,0
-60.0,-316.0,-26.0,-283.0,430.0,-11.0,0
-66.0,-329.0,-29.0,-328.0,386.0,-25.0,0
-78.0,-332.0,-40.0,-365.0,327.0,-33.0,0
-80.0,-340.0,-50.0,-396.0,245.0,-25.0,0
-79.0,-344.0,-53.0,-421.0,190.0,-15.0,0
-72.0,-353.0,-50.0,-442.0,168.0,-4.0,0
-66.0,-363.0,-43.0,-449.0,189.0,8.0,0
-65.0,-373.0,-23.0,-432.0,238.0,22.0,0
-66.0,-382.0,-9.0,-381.0,282.0,33.0,0
-65.0,-386.0,1.0,-294.0,294.0,48.0,0
-60.0,-376.0,4.0,-191.0,282.0,63.0,0
-57.0,-366.0,-1.0,-97.0,262.0,79.0,0
-55.0,-348.0,-10.0,-35.0,240.0,86.0,0
-48.0,-331.0,-24.0,-11.0,207.0,93.0,0
-42.0,-317.0,-30.0,-26.0,182.0,92.0,0
-31.0,-309.0,-43.0,-62.0,165.0,86.0,0
-22.0,-300.0,-64.0,-114.0,159.0,68.0,0
-19.0,-291.0,-77.0,-172.0,163.0,41.0,0
-12.0,-287.0,-81.0,-233.0,177.0,9.0,0
-13.0,-286.0,-90.0,-294.0,189.0,-24.0,0
-12.0,-292.0,-97.0,-342.0,197.0,-61.0,0
-12.0,-296.0,-97.0,-376.0,213.0,-96.0,0
-15.0,-299.0,-96.0,-388.0,238.0,-142.0,0
-22.0,-295.0,-99.0,-369.0,263.0,-184.0,0
-27.0,-295.0,-92.0,-322.0,279.0,-215.0,0
-32.0,-290.0,-93.0,-280.0,281.0,-246.0,0
-39.0,-284.0,-80.0,-239.0,273.0,-273.0,0
-39.0,-276.0,-75.0,-207.0,259.0,-295.0,0
-38.0,-273.0,-75.0,-194.0,251.0,-319.0,0
-35.0,-268.0,-74.0,-198.0,253.0,-345.0,0
-28.0,-270.0,-72.0,-213.0,264.0,-371.0,0
-25.0,-269.0,-73.0,-224.0,287.0,-393.0,0
-24.0,-271.0,-68.0,-229.0,315.0,-418.0,0
-17.0,-276.0,-72.0,-230.0,343.0,-446.0,0
-16.0,-283.0,-72.0,-231.0,356.0,-469.0,0
-12.0,-290.0,-73.0,-225.0,360.0,-491.0,0
-12.0,-295.0,-70.0,-201.0,352.0,-511.0,0
-13.0,-297.0,-63.0,-157.0,338.0,-528.0,0
-14.0,-294.0,-65.0,-89.0,319.0,-545.0,0
-12.0,-294.0,-63.0,-13.0,297.0,-558.0,0
-10.0,-284.0,-61.0,58.0,274.0,-570.0,0
-13.0,-275.0,-65.0,114.0,255.0,-579.0,0
-18.0,-259.0,-57.0,147.0,240.0,-583.0,0
-20.0,-250.0,-55.0,160.0,219.0,-581.0,0
-26.0,-241.0,-51.0,158.0,193.0,-570.0,0
-27.0,-235.0,-47.0,146.0,159.0,-555.0,0
-31.0,-229.0,-44.0,128.0,119.0,-529.0,0
-28.0,-231.0,-42.0,104.0,83.0,-498.0,0
-30.0,-232.0,-45.0,70.0,57.0,-468.0,0
-29.0,-242.0,-48.0,32.0,42.0,-440.0,0
-28.0,-247.0,-46.0,-10.0,28.0,-414.0,0
-30.0,-251.0,-42.0,-44.0,6.0,-392.0,0
-29.0,-257.0,-39.0,-65.0,-22.0,-373.0,0
-25.0,-267.0,-37.0,-71.0,-60.0,-357.0,0
-22.0,-271.0,-34.0,-56.0,-91.0,-351.0,0
-22.0,-270.0,-30.0,-31.0,-118.0,-348.0,0
-15.0,-274.0,-28.0,-1.0,-145.0,-348.0,0
-12.0,-270.0,-30.0,31.0,-173.0,-349.0,0
-1.0,-266.0,-31.0,62.0,-202.0,-354.0,0
7.0,-263.0,-30.0,87.0,-222.0,-364.0,0
8.0,-253.0,-37.0,105.0,-236.0,-369.0,0
19.0,-247.0,-41.0,111.0,-238.0,-372.0,0
17.0,-240.0,-44.0,110.0,-234.0,-388.0,0
26.0,-238.0,-43.0,98.0,-228.0,-388.0,0
32.0,-237.0,-46.0,71.0,-210.0,-391.0,0
37.0,-230.0,-46.0,39.0,-180.0,-428.0,0
43.0,-230.0,-46.0,11.0,-156.0,-425.0,0
41.0,-238.0,-44.0,-16.0,-119.0,-417.0,0
38.0,-232.0,-42.0,-40.0,-69.0,-447.0,0
40.0,-240.0,-39.0,-54.0,-41.0,-441.0,0
36.0,-242.0,-40.0,-56.0,-12.0,-415.0,0
34.0,-245.0,-28.0,-50.0,25.0,-421.0,0
31.0,-244.0,-31.0,-38.0,43.0,-431.0,0
30.0,-243.0,-34.0,-18.0,58.0,-386.0,0
26.0,-242.0,-31.0,5.0,99.0,-390.0,0
19.0,-235.0,-38.0,22.0,119.0,-397.0,0
18.0,-239.0,-39.0,39.0,136.0,-360.0,0
19.0,-234.0,-39.0,49.0,158.0,-360.0,0
15.0,-227.0,-42.0,49.0,166.0,-380.0,0
19.0,-227.0,-37.0,48.0,168.0,-357.0,0
19.0,-231.0,-38.0,45.0,182.0,-354.0,0
19.0,-223.0,-42.0,32.0,196.0,-400.0,0
28.0,-222.0,-41.0,23.0,194.0,-391.0,0
32.0,-226.0,-46.0,14.0,208.0,-382.0,0
30.0,-221.0,-40.0,-2.0,245.0,-434.0,0
32.0,-222.0,-36.0,-18.0,254.0,-474.0,0
37.0,-225.0,-43.0,-29.0,266.0,-459.0,0
36.0,-227.0,-41.0,-41.0,284.0,-460.0,0
32.0,-230.0,-38.0,-55.0,300.0,-486.0,0
28.0,-222.0,-36.0,-76.0,303.0,-545.0,0
34.0,-226.0,-37.0,-92.0,283.0,-525.0,0
30.0,-230.0,-36.0,-111.0,280.0,-499.0,0
19.0,-235.0,-41.0,-139.0,286.0,-505.0,0
13.0,-233.0,-39.0,-175.0,285.0,-553.0,0
11.0,-236.0,-38.0,-209.0,247.0,-526.0,0
12.0,-242.0,-42.0,-233.0,223.0,-502.0,0
6.0,-252.0,-39.0,-252.0,213.0,-514.0,0
3.0,-244.0,-35.0,-258.0,198.0,-557.0,0
3.0,-247.0,-39.0,-246.0,175.0,-532.0,0
4.0,-252.0,-40.0,-230.0,168.0,-514.0,0
-3.0,-253.0,-39.0,-221.0,173.0,-521.0,0
-3.0,-250.0,-36.0,-213.0,168.0,-558.0,0
0.0,-252.0,-35.0,-196.0,130.0,-548.0,0
8.0,-253.0,-39.0,-169.0,96.0,-522.0,0
10.0,-247.0,-33.0,-151.0,66.0,-531.0,0
7.0,-252.0,-35.0,-135.0,41.0,-549.0,0
21.0,-245.0,-34.0,-124.0,24.0,-590.0,0
23.0,-243.0,-35.0,-115.0,-15.0,-571.0,0
29.0,-246.0,-35.0,-107.0,-37.0,-545.0,0
30.0,-243.0,-33.0,-102.0,-54.0,-544.0,0
31.0,-246.0,-36.0,-95.0,-72.0,-539.0,0
32.0,-244.0,-39.0,-88.0,-86.0,-533.0,0
35.0,-248.0,-35.0,-80.0,-96.0,-521.0,0
30.0,-251.0,-32.0,-61.0,-97.0,-515.0,0
39.0,-256.0,-24.0,-35.0,-96.0,-513.0,0
42.0,-258.0,-24.0,2.0,-94.0,-510.0,0
45.0,-258.0,-20.0,32.0,-90.0,-499.0,0
47.0,-260.0,-15.0,58.0,-86.0,-499.0,0
42.0,-257.0,-18.0,82.0,-97.0,-490.0,0
48.0,-258.0,-19.0,99.0,-108.0,-453.0,0
50.0,-261.0,-16.0,104.0,-117.0,-425.0,0
52.0,-261.0,-12.0,104.0,-131.0,-401.0,0
56.0,-264.0,-8.0,110.0,-138.0,-378.0,0
62.0,-266.0,-1.0,127.0,-134.0,-361.0,0
57.0,-267.0,0.0,153.0,-125.0,-344.0,0
59.0,-263.0,-2.0,179.0,-122.0,-335.0,0
63.0,-260.0,-2.0,194.0,-124.0,-324.0,0
62.0,-260.0,-4.0,195.0,-124.0,-319.0,0
64.0,-261.0,-8.0,184.0,-119.0,-307.0,0
63.0,-263.0,-7.0,169.0,-114.0,-297.0,0
61.0,-267.0,-5.0,146.0,-109.0,-279.0,0
60.0,-268.0,-8.0,120.0,-107.0,-264.0,0
53.0,-271.0,-1.0,88.0,-112.0,-243.0,0
45.0,-272.0,-2.0,50.0,-122.0,-217.0,0
43.0,-277.0,-7.0,17.0,-142.0,-179.0,0
35.0,-279.0,-4.0,-33.0,-170.0,-145.0,0
24.0,-283.0,-5.0,-72.0,-201.0,-105.0,0
21.0,-288.0,-8.0,-105.0,-251.0,-60.0,0
29.0,-298.0,-10.0,-130.0,-313.0,-12.0,0
33.0,-303.0,-19.0,-149.0,-359.0,25.0,0
47.0,-311.0,-24.0,-159.0,-380.0,52.0,0
53.0,-317.0,-43.0,-175.0,-370.0,59.0,0
65.0,-329.0,-53.0,-201.0,-334.0,47.0,0
71.0,-336.0,-65.0,-243.0,-288.0,21.0,0
72.0,-350.0,-64.0,-293.0,-242.0,-19.0,0
78.0,-365.0,-63.0,-339.0,-195.0,-50.0,0
83.0,-372.0,-56.0,-348.0,-169.0,-73.0,0
88.0,-384.0,-50.0,-322.0,-151.0,-104.0,0
92.0,-381.0,-47.0,-271.0,-133.0,-118.0,0
88.0,-386.0,-42.0,-200.0,-119.0,-146.0,0
85.0,-377.0,-33.0,-127.0,-116.0,-157.0,0
79.0,-373.0,-30.0,-32.0,-126.0,-102.0,0
73.0,-362.0,-24.0,78.0,-144.0,-74.0,0
61.0,-345.0,-19.0,192.0,-175.0,-64.0,0
62.0,-336.0,-24.0,302.0,-216.0,-22.0,0
61.0,-326.0,-41.0,413.0,-241.0,25.0,0
52.0,-313.0,-58.0,460.0,-248.0,54.0,0
39.0,-292.0,-85.0,442.0,-258.0,81.0,0
33.0,-279.0,-106.0,361.0,-275.0,116.0,0
24.0,-271.0,-118.0,240.0,-288.0,147.0,0
24.0,-273.0,-118.0,106.0,-297.0,175.0,0
15.0,-279.0,-105.0,-10.0,-305.0,192.0,0
14.0,-285.0,-96.0,-79.0,-317.0,222.0,0
11.0,-289.0,-82.0,-81.0,-338.0,249.0,0
13.0,-294.0,-72.0,-33.0,-374.0,279.0,0
23.0,-289.0,-71.0,40.0,-413.0,308.0,0
27.0,-279.0,-75.0,96.0,-434.0,322.0,0
32.0,-270.0,-78.0,127.0,-434.0,318.0,0
38.0,-265.0,-76.0,128.0,-413.0,329.0,0
40.0,-260.0,-77.0,110.0,-388.0,331.0,0
35.0,-257.0,-72.0,77.0,-366.0,331.0,0
37.0,-257.0,-73.0,32.0,-349.0,339.0,0
36.0,-259.0,-75.0,-16.0,-338.0,360.0,0
33.0,-262.0,-74.0,-62.0,-339.0,379.0,0
30.0,-264.0,-84.0,-97.0,-354.0,406.0,0
33.0,-267.0,-86.0,-124.0,-377.0,422.0,0
31.0,-269.0,-95.0,-134.0,-391.0,441.0,0
32.0,-271.0,-93.0,-135.0,-396.0,450.0,0
33.0,-273.0,-94.0,-122.0,-382.0,457.0,0
35.0,-275.0,-90.0,-88.0,-350.0,453.0,0
37.0,-273.0,-79.0,-39.0,-308.0,450.0,0
41.0,-272.0,-78.0,14.0,-262.0,436.0,0
39.0,-270.0,-69.0,62.0,-210.0,425.0,0
37.0,-270.0,-61.0,103.0,-158.0,408.0,0
36.0,-268.0,-63.0,142.0,-114.0,397.0,0
36.0,-267.0,-47.0,176.0,-88.0,377.0,0
38.0,-264.0,-49.0,196.0,-86.0,367.0,0
36.0,-261.0,-45.0,205.0,-90.0,358.0,0
39.0,-259.0,-47.0,201.0,-91.0,359.0,0
43.0,-262.0,-50.0,187.0,-87.0,350.0,0
37.0,-257.0,-54.0,161.0,-71.0,349.0,0
36.0,-256.0,-51.0,130.0,-47.0,344.0,0
40.0,-259.0,-47.0,107.0,-15.0,346.0,0
39.0,-259.0,-46.0,96.0,22.0,340.0,0
40.0,-257.0,-42.0,97.0,58.0,337.0,0
42.0,-263.0,-39.0,113.0,106.0,347.0,0
34.0,-257.0,-43.0,125.0,153.0,341.0,0
34.0,-251.0,-36.0,137.0,190.0,338.0,0
25.0,-251.0,-36.0,145.0,215.0,367.0,0
12.0,-242.0,-40.0,141.0,232.0,365.0,0
9.0,-235.0,-39.0,127.0,234.0,374.0,0
4.0,-241.0,-40.0,110.0,231.0,405.0,0
-5.0,-235.0,-44.0,83.0,233.0,403.0,0
-18.0,-228.0,-56.0,52.0,228.0,416.0,0
-15.0,-232.0,-46.0,29.0,228.0,455.0,0
-21.0,-233.0,-46.0,1.0,222.0,442.0,0
-20.0,-228.0,-43.0,-30.0,199.0,457.0,0
-19.0,-237.0,-55.0,-48.0,168.0,495.0,0
-12.0,-237.0,-52.0,-69.0,154.0,487.0,0
-11.0,-238.0,-56.0,-90.0,135.0,475.0,0
-1.0,-235.0,-55.0,-107.0,118.0,486.0,0
1.0,-248.0,-60.0,-119.0,108.0,509.0,0
-5.0,-246.0,-51.0,-132.0,118.0,485.0,0
-6.0,-244.0,-56.0,-132.0,117.0,462.0,0
1.0,-243.0,-51.0,-116.0,109.0,477.0,0
3.0,-246.0,-53.0,-93.0,112.0,492.0,0
5.0,-241.0,-50.0,-75.0,116.0,472.0,0
3.0,-240.0,-47.0,-60.0,109.0,478.0,0
5.0,-239.0,-51.0,-45.0,95.0,516.0,0
4.0,-241.0,-47.0,-45.0,100.0,511.0,0
-2.0,-236.0,-48.0,-57.0,100.0,500.0,0
-4.0,-232.0,-49.0,-74.0,96.0,520.0,0
-4.0,-240.0,-48.0,-86.0,95.0,572.0,0
-15.0,-233.0,-41.0,-102.0,99.0,552.0,0
-12.0,-237.0,-36.0,-112.0,85.0,557.0,0
-10.0,-240.0,-40.0,-116.0,69.0,584.0,0
-15.0,-246.0,-39.0,-108.0,54.0,631.0,0
-21.0,-247.0,-30.0,-104.0,50.0,610.0,0
-23.0,-244.0,-35.0,-100.0,27.0,596.0,0
-25.0,-248.0,-36.0,-99.0,4.0,604.0,0
-25.0,-247.0,-38.0,-95.0,-16.0,623.0,0
-23.0,-258.0,-33.0,-81.0,-25.0,649.0,0
-36.0,-250.0,-29.0,-74.0,-31.0,614.0,0
-36.0,-250.0,-28.0,-64.0,-51.0,604.0,0
-35.0,-250.0,-36.0,-52.0,-68.0,622.0,0
-30.0,-251.0,-29.0,-43.0,-72.0,627.0,0
-27.0,-252.0,-36.0,-42.0,-63.0,626.0,0
-28.0,-254.0,-36.0,-48.0,-56.0,633.0,0
-22.0,-257.0,-31.0,-48.0,-37.0,651.0,0
-26.0,-254.0,-33.0,-50.0,-27.0,609.0,0
-27.0,-256.0,-34.0,-41.0,-33.0,603.0,0
-22.0,-253.0,-30.0,-23.0,-40.0,604.0,0
-26.0,-249.0,-31.0,0.0,-47.0,598.0,0
-21.0,-250.0,-32.0,28.0,-50.0,577.0,0
-20.0,-246.0,-32.0,53.0,-42.0,560.0,0
-21.0,-241.0,-33.0,64.0,-20.0,535.0,0
-17.0,-238.0,-29.0,68.0,-1.0,517.0,0
-20.0,-240.0,-26.0,66.0,10.0,500.0,0
-22.0,-230.0,-28.0,61.0,11.0,493.0,0
-12.0,-240.0,-23.0,60.0,20.0,494.0,0
-23.0,-231.0,-18.0,54.0,24.0,439.0,0
-21.0,-236.0,-19.0,48.0,25.0,419.0,0
-25.0,-235.0,-19.0,45.0,28.0,411.0,0
-21.0,-237.0,-16.0,37.0,38.0,401.0,0
-19.0,-243.0,-18.0,31.0,53.0,399.0,0
-21.0,-236.0,-20.0,21.0,68.0,372.0,0
-18.0,-235.0,-16.0,7.0,81.0,362.0,0
-12.0,-234.0,-14.0,-3.0,96.0,362.0,0
-14.0,-246.0,-12.0,-12.0,118.0,359.0,0
-23.0,-243.0,-9.0,-21.0,134.0,310.0,0
-13.0,-247.0,-7.0,-18.0,137.0,296.0,0
-12.0,-252.0,-5.0,-9.0,146.0,288.0,0
-14.0,-256.0,-6.0,2.0,164.0,278.0,0
-19.0,-254.0,-3.0,7.0,178.0,257.0,0
-14.0,-252.0,-14.0,8.0,182.0,236.0,0
-12.0,-249.0,-11.0,4.0,188.0,211.0,0
-10.0,-259.0,-24.0,-11.0,206.0,218.0,0
-16.0,-257.0,-18.0,-32.0,236.0,172.0,0
-16.0,-260.0,-17.0,-51.0,257.0,147.0,0
-12.0,-259.0,-17.0,-62.0,270.0,135.0,0
-12.0,-257.0,-22.0,-67.0,286.0,127.0,0
-14.0,-263.0,-22.0,-72.0,308.0,123.0,0
-25.0,-264.0,-11.0,-86.0,332.0,94.0,0
-30.0,-269.0,-9.0,-99.0,342.0,72.0,0
-36.0,-269.0,-7.0,-108.0,343.0,69.0,0
-34.0,-276.0,-7.0,-109.0,345.0,64.0,0
-42.0,-277.0,-2.0,-97.0,345.0,60.0,0
-45.0,-276.0,-10.0,-87.0,341.0,43.0,0
-46.0,-283.0,-9.0,-81.0,331.0,32.0,0
-46.0,-287.0,-14.0,-78.0,316.0,17.0,0
-46.0,-286.0,-26.0,-80.0,292.0,5.0,0
-43.0,-293.0,-37.0,-89.0,270.0,-13.0,0
-48.0,-296.0,-46.0,-98.0,252.0,-34.0,0
-51.0,-307.0,-54.0,-111.0,224.0,-55.0,0
-59.0,-317.0,-57.0,-121.0,180.0,-66.0,0
-63.0,-326.0,-68.0,-130.0,114.0,-66.0,0
-68.0,-335.0,-68.0,-156.0,64.0,-47.0,0
-70.0,-342.0,-68.0,-185.0,27.0,-21.0,0
-70.0,-351.0,-66.0,-211.0,9.0,8.0,0
-70.0,-360.0,-59.0,-223.0,15.0,32.0,0
-70.0,-372.0,-45.0,-214.0,34.0,59.0,0
-70.0,-386.0,-27.0,-173.0,49.0,83.0,0
-70.0,-390.0,-19.0,-101.0,50.0,108.0,0
-61.0,-388.0,-18.0,-5.0,44.0,124.0,0
-54.0,-383.0,-23.0,90.0,40.0,137.0,0
-44.0,-375.0,-30.0,177.0,43.0,141.0,0
-36.0,-359.0,-37.0,263.0,42.0,135.0,0
-26.0,-350.0,-50.0,316.0,33.0,123.0,0
-18.0,-331.0,-67.0,346.0,22.0,109.0,0
-10.0,-317.0,-85.0,345.0,13.0,92.0,0
-1.0,-305.0,-105.0,308.0,16.0,68.0,0
-3.0,-302.0,-112.0,237.0,40.0,33.0,0
2.0,-297.0,-119.0,142.0,77.0,-11.0,0
3.0,-302.0,-120.0,47.0,128.0,-67.0,0
-3.0,-310.0,-121.0,-35.0,182.0,-121.0,0
-6.0,-317.0,-112.0,-82.0,234.0,-184.0,0
-10.0,-318.0,-107.0,-88.0,293.0,-233.0,0
-10.0,-319.0,-97.0,-58.0,333.0,-276.0,0
-12.0,-310.0,-95.0,-13.0,366.0,-310.0,0
-12.0,-303.0,-89.0,33.0,398.0,-337.0,0
-13.0,-296.0,-80.0,66.0,430.0,-361.0,0
-15.0,-289.0,-74.0,86.0,459.0,-378.0,0
-17.0,-283.0,-69.0,88.0,477.0,-388.0,0
-21.0,-278.0,-63.0,85.0,481.0,-396.0,0
-16.0,-279.0,-65.0,82.0,479.0,-398.0,0
-13.0,-280.0,-71.0,80.0,479.0,-404.0,0
-11.0,-278.0,-76.0,74.0,495.0,-416.0,0
-11.0,-284.0,-77.0,68.0,518.0,-428.0,0
-11.0,-286.0,-84.0,65.0,543.0,-444.0,0
-12.0,-288.0,-78.0,72.0,562.0,-460.0,0
-13.0,-293.0,-74.0,97.0,572.0,-476.0,0
-15.0,-296.0,-67.0,143.0,570.0,-492.0,0
-18.0,-295.0,-61.0,200.0,559.0,-507.0,0
-15.0,-288.0,-61.0,264.0,543.0,-526.0,0
-18.0,-281.0,-61.0,321.0,535.0,-542.0,0
-19.0,-268.0,-64.0,365.0,531.0,-559.0,0
-24.0,-256.0,-58.0,397.0,534.0,-571.0,0
-31.0,-248.0,-51.0,409.0,530.0,-578.0,0
-40.0,-236.0,-49.0,415.0,514.0,-577.0,0
-41.0,-220.0,-48.0,415.0,477.0,-570.0,0
-46.0,-220.0,-49.0,401.0,429.0,-555.0,0
-43.0,-218.0,-48.0,372.0,381.0,-533.0,0
-43.0,-220.0,-50.0,332.0,341.0,-502.0,0
-41.0,-223.0,-51.0,284.0,313.0,-476.0,0
-39.0,-233.0,-47.0,237.0,290.0,-450.0,0
-38.0,-244.0,-39.0,199.0,259.0,-420.0,0
-37.0,-251.0,-33.0,182.0,217.0,-401.0,0
-32.0,-262.0,-30.0,192.0,177.0,-380.0,0
-28.0,-271.0,-23.0,210.0,140.0,-367.0,0
-26.0,-275.0,-21.0,232.0,106.0,-359.0,0
-23.0,-276.0,-17.0,258.0,73.0,-359.0,0
-14.0,-278.0,-16.0,284.0,41.0,-355.0,0
-12.0,-272.0,-23.0,306.0,14.0,-355.0,0
-12.0,-263.0,-24.0,321.0,-12.0,-374.0,0
-6.0,-256.0,-28.0,330.0,-36.0,-364.0,0
2.0,-246.0,-32.0,333.0,-52.0,-381.0,0
7.0,-244.0,-31.0,324.0,-74.0,-392.0,0
12.0,-246.0,-41.0,311.0,-77.0,-387.0,0
14.0,-233.0,-39.0,288.0,-65.0,-418.0,0
25.0,-236.0,-42.0,263.0,-52.0,-411.0,0
27.0,-236.0,-45.0,241.0,-25.0,-425.0,0
28.0,-233.0,-37.0,217.0,-7.0,-439.0,0
31.0,-237.0,-41.0,200.0,10.0,-424.0,0
31.0,-235.0,-34.0,188.0,32.0,-448.0,0
37.0,-237.0,-48.0,180.0,46.0,-444.0,0
37.0,-242.0,-38.0,173.0,69.0,-430.0,0
33.0,-238.0,-38.0,167.0,106.0,-440.0,0
30.0,-240.0,-32.0,164.0,130.0,-413.0,0
23.0,-237.0,-34.0,164.0,151.0,-424.0,0
22.0,-235.0,-32.0,170.0,153.0,-412.0,0
23.0,-242.0,-34.0,177.0,152.0,-388.0,0
16.0,-232.0,-32.0,178.0,158.0,-394.0,0
19.0,-233.0,-32.0,180.0,153.0,-372.0,0
15.0,-236.0,-36.0,174.0,149.0,-347.0,0
8.0,-229.0,-39.0,159.0,147.0,-373.0,0
7.0,-228.0,-42.0,141.0,126.0,-357.0,0
6.0,-234.0,-42.0,120.0,115.0,-343.0,0
3.0,-232.0,-42.0,99.0,119.0,-372.0,0
6.0,-232.0,-42.0,87.0,111.0,-381.0,0
7.0,-232.0,-40.0,82.0,104.0,-367.0,0
7.0,-235.0,-41.0,80.0,109.0,-384.0,0
5.0,-231.0,-33.0,77.0,104.0,-417.0,0
11.0,-236.0,-27.0,80.0,94.0,-407.0,0
10.0,-240.0,-31.0,82.0,89.0,-409.0,0
7.0,-231.0,-30.0,78.0,83.0,-443.0,0
12.0,-233.0,-27.0,74.0,61.0,-427.0,0
17.0,-239.0,-34.0,63.0,52.0,-430.0,0
16.0,-230.0,-33.0,40.0,55.0,-465.0,0
21.0,-232.0,-35.0,19.0,53.0,-459.0,0
27.0,-244.0,-32.0,2.0,58.0,-455.0,0
28.0,-235.0,-28.0,-11.0,68.0,-496.0,0
32.0,-238.0,-32.0,-20.0,70.0,-490.0,0
35.0,-240.0,-28.0,-27.0,78.0,-479.0,0
34.0,-244.0,-21.0,-35.0,93.0,-492.0,0
33.0,-238.0,-19.0,-43.0,93.0,-514.0,0
38.0,-243.0,-18.0,-40.0,82.0,-488.0,0
36.0,-245.0,-16.0,-36.0,69.0,-484.0,0
37.0,-247.0,-15.0,-36.0,56.0,-497.0,0
30.0,-240.0,-13.0,-38.0,35.0,-510.0,0
35.0,-241.0,-14.0,-41.0,22.0,-480.0,0
30.0,-237.0,-15.0,-50.0,22.0,-474.0,0
27.0,-232.0,-15.0,-64.0,23.0,-475.0,0
20.0,-227.0,-15.0,-84.0,23.0,-484.0,0
24.0,-226.0,-18.0,-105.0,9.0,-481.0,0
26.0,-225.0,-20.0,-118.0,-4.0,-454.0,0
24.0,-221.0,-10.0,-122.0,-12.0,-443.0,0
25.0,-219.0,-15.0,-124.0,-27.0,-438.0,0
28.0,-223.0,-11.0,-146.0,-44.0,-436.0,0
26.0,-229.0,-1.0,-179.0,-57.0,-443.0,0
28.0,-230.0,3.0,-214.0,-72.0,-450.0,0
26.0,-236.0,4.0,-246.0,-89.0,-460.0,0
26.0,-242.0,12.0,-267.0,-108.0,-464.0,0
24.0,-250.0,23.0,-277.0,-125.0,-467.0,0
24.0,-254.0,19.0,-266.0,-137.0,-461.0,0
21.0,-258.0,25.0,-238.0,-146.0,-454.0,0
24.0,-261.0,29.0,-198.0,-156.0,-445.0,0
21.0,-255.0,26.0,-152.0,-179.0,-433.0,0
26.0,-251.0,25.0,-100.0,-200.0,-421.0,0
28.0,-240.0,26.0,-67.0,-218.0,-404.0,0
29.0,-233.0,22.0,-46.0,-230.0,-385.0,0
27.0,-225.0,24.0,-38.0,-239.0,-369.0,0
25.0,-224.0,24.0,-50.0,-237.0,-345.0,0
18.0,-227.0,14.0,-76.0,-233.0,-319.0,0
21.0,-234.0,20.0,-110.0,-233.0,-288.0,0
20.0,-236.0,17.0,-154.0,-244.0,-272.0,0
25.0,-249.0,18.0,-194.0,-268.0,-239.0,0
25.0,-261.0,21.0,-230.0,-293.0,-213.0,0
24.0,-269.0,16.0,-260.0,-308.0,-217.0,0
26.0,-277.0,13.0,-276.0,-329.0,-196.0,0
24.0,-287.0,7.0,-282.0,-352.0,-162.0,0
18.0,-298.0,3.0,-287.0,-369.0,-155.0,0
17.0,-304.0,0.0,-289.0,-393.0,-146.0,0
21.0,-317.0,-7.0,-280.0,-424.0,-126.0,0
29.0,-333.0,-16.0,-264.0,-445.0,-106.0,0
37.0,-339.0,-21.0,-246.0,-455.0,-100.0,0
48.0,-343.0,-35.0,-227.0,-455.0,-95.0,0
63.0,-350.0,-50.0,-215.0,-445.0,-94.0,0
81.0,-359.0,-56.0,-217.0,-430.0,-117.0,0
84.0,-363.0,-56.0,-238.0,-413.0,-171.0,0
96.0,-370.0,-47.0,-260.0,-406.0,-203.0,0
93.0,-374.0,-38.0,-270.0,-410.0,-221.0,0
81.0,-378.0,-18.0,-256.0,-417.0,-229.0,0
73.0,-379.0,-14.0,-214.0,-436.0,-237.0,0
67.0,-368.0,-14.0,-149.0,-465.0,-239.0,0
59.0,-365.0,-16.0,-72.0,-496.0,-215.0,0
49.0,-355.0,-31.0,6.0,-511.0,-179.0,0
44.0,-355.0,-38.0,70.0,-523.0,-134.0,0
35.0,-348.0,-54.0,110.0,-537.0,-97.0,0
34.0,-349.0,-75.0,109.0,-554.0,-61.0,0
36.0,-346.0,-105.0,84.0,-564.0,-28.0,0
38.0,-343.0,-123.0,33.0,-566.0,-8.0,0
43.0,-338.0,-134.0,-36.0,-561.0,10.0,0
49.0,-334.0,-134.0,-108.0,-550.0,24.0,0
51.0,-338.0,-127.0,-161.0,-533.0,50.0,0
52.0,-340.0,-113.0,-176.0,-521.0,82.0,0
51.0,-349.0,-97.0,-144.0,-519.0,120.0,0
50.0,-347.0,-96.0,-73.0,-538.0,161.0,0
47.0,-340.0,-90.0,40.0,-565.0,202.0,0
49.0,-332.0,-97.0,130.0,-587.0,231.0,0
53.0,-322.0,-95.0,195.0,-590.0,262.0,0
53.0,-308.0,-86.0,242.0,-576.0,283.0,0
55.0,-296.0,-81.0,268.0,-549.0,302.0,0
58.0,-284.0,-79.0,277.0,-520.0,317.0,0
63.0,-279.0,-75.0,273.0,-491.0,336.0,0
65.0,-274.0,-69.0,255.0,-456.0,351.0,0
69.0,-273.0,-66.0,227.0,-414.0,366.0,0
67.0,-275.0,-56.0,192.0,-362.0,382.0,0
66.0,-275.0,-50.0,154.0,-324.0,400.0,0
58.0,-272.0,-50.0,120.0,-302.0,421.0,0
54.0,-273.0,-49.0,84.0,-291.0,452.0,0
56.0,-273.0,-47.0,49.0,-288.0,479.0,0
51.0,-275.0,-46.0,18.0,-282.0,505.0,0
50.0,-275.0,-45.0,-1.0,-269.0,519.0,0
48.0,-272.0,-44.0,-1.0,-254.0,525.0,0
43.0,-265.0,-43.0,16.0,-237.0,520.0,0
45.0,-255.0,-52.0,36.0,-225.0,509.0,0
52.0,-243.0,-56.0,48.0,-202.0,483.0,0
47.0,-232.0,-61.0,43.0,-152.0,456.0,0
42.0,-229.0,-58.0,27.0,-88.0,417.0,0
40.0,-231.0,-50.0,12.0,-32.0,384.0,0
29.0,-233.0,-46.0,1.0,-4.0,342.0,0
29.0,-235.0,-40.0,-4.0,5.0,327.0,0
24.0,-237.0,-42.0,-18.0,-2.0,308.0,0
24.0,-241.0,-44.0,-46.0,-7.0,309.0,0
21.0,-245.0,-44.0,-81.0,-8.0,300.0,0
23.0,-250.0,-45.0,-109.0,0.0,314.0,0
24.0,-247.0,-39.0,-123.0,23.0,298.0,0
24.0,-257.0,-38.0,-124.0,36.0,321.0,0
21.0,-255.0,-39.0,-114.0,57.0,314.0,0
18.0,-259.0,-43.0,-104.0,72.0,325.0,0
19.0,-258.0,-48.0,-88.0,94.0,332.0,0
14.0,-252.0,-51.0,-75.0,117.0,331.0,0
12.0,-245.0,-55.0,-66.0,139.0,348.0,0
3.0,-247.0,-57.0,-67.0,163.0,342.0,0
-1.0,-238.0,-61.0,-78.0,177.0,340.0,0
-5.0,-237.0,-60.0,-93.0,181.0,369.0,0
-12.0,-240.0,-59.0,-113.0,185.0,352.0,0
-12.0,-235.0,-58.0,-140.0,172.0,356.0,0
-11.0,-238.0,-57.0,-158.0,154.0,371.0,0
-18.0,-237.0,-51.0,-168.0,130.0,396.0,0
-15.0,-244.0,-50.0,-169.0,105.0,412.0,0
-14.0,-243.0,-50.0,-166.0,80.0,406.0,0
-11.0,-242.0,-54.0,-161.0,51.0,411.0,0
-7.0,-246.0,-57.0,-154.0,28.0,427.0,0
-1.0,-249.0,-57.0,-149.0,8.0,434.0,0
2.0,-251.0,-57.0,-146.0,-6.0,437.0,0
-1.0,-250.0,-54.0,-142.0,-21.0,451.0,0
5.0,-255.0,-49.0,-126.0,-20.0,448.0,0
5.0,-253.0,-43.0,-113.0,-25.0,424.0,0
8.0,-252.0,-42.0,-93.0,-37.0,428.0,0
7.0,-248.0,-42.0,-63.0,-48.0,435.0,0
8.0,-246.0,-44.0,-38.0,-56.0,456.0,0
13.0,-246.0,-47.0,-17.0,-46.0,476.0,0
9.0,-241.0,-47.0,-6.0,-31.0,461.0,0
9.0,-239.0,-46.0,-4.0,-24.0,468.0,0
12.0,-231.0,-49.0,-6.0,-19.0,493.0,0
10.0,-237.0,-53.0,-4.0,-17.0,540.0,0
5.0,-232.0,-44.0,-3.0,3.0,548.0,0
-2.0,-227.0,-44.0,0.0,8.0,536.0,0
0.0,-228.0,-37.0,2.0,0.0,563.0,0
-4.0,-233.0,-46.0,4.0,-6.0,606.0,0
-1.0,-235.0,-39.0,-4.0,7.0,620.0,0
-6.0,-237.0,-36.0,-20.0,15.0,594.0,0
-4.0,-244.0,-35.0,-34.0,21.0,604.0,0
-8.0,-239.0,-33.0,-41.0,25.0,619.0,0
-8.0,-245.0,-34.0,-40.0,31.0,650.0,0
-12.0,-244.0,-31.0,-37.0,40.0,610.0,0
-15.0,-243.0,-29.0,-27.0,26.0,610.0,0
-13.0,-241.0,-31.0,-17.0,6.0,619.0,0
-19.0,-236.0,-31.0,-10.0,-17.0,644.0,0
-14.0,-244.0,-29.0,-9.0,-20.0,657.0,0
-23.0,-237.0,-32.0,-16.0,-27.0,624.0,0
-19.0,-234.0,-29.0,-22.0,-38.0,613.0,0
-18.0,-236.0,-26.0,-21.0,-42.0,627.0,0
-26.0,-238.0,-29.0,-17.0,-31.0,618.0,0
-18.0,-229.0,-23.0,-10.0,-22.0,609.0,0
-23.0,-244.0,-30.0,6.0,-20.0,637.0,0
-27.0,-239.0,-33.0,12.0,-9.0,585.0,0
-28.0,-235.0,-34.0,15.0,-14.0,550.0,0
-24.0,-232.0,-34.0,18.0,-13.0,545.0,0
-18.0,-233.0,-37.0,15.0,-2.0,533.0,0
-19.0,-234.0,-34.0,-2.0,10.0,516.0,0
-22.0,-232.0,-32.0,-25.0,20.0,501.0,0
-26.0,-230.0,-30.0,-46.0,23.0,495.0,0
-29.0,-235.0,-31.0,-63.0,21.0,483.0,0
-25.0,-236.0,-31.0,-78.0,16.0,475.0,0
-28.0,-237.0,-26.0,-91.0,19.0,458.0,0
-31.0,-240.0,-25.0,-107.0,20.0,446.0,0
-30.0,-241.0,-24.0,-128.0,15.0,433.0,0
-31.0,-248.0,-23.0,-153.0,8.0,422.0,0
-30.0,-248.0,-23.0,-172.0,0.0,410.0,0
-28.0,-255.0,-23.0,-183.0,-5.0,401.0,0
-24.0,-259.0,-21.0,-180.0,1.0,386.0,0
-18.0,-264.0,-23.0,-165.0,12.0,374.0,0
-12.0,-265.0,-15.0,-144.0,34.0,358.0,0
-11.0,-271.0,-15.0,-121.0,64.0,344.0,0
-12.0,-274.0,-15.0,-100.0,102.0,327.0,0
-11.0,-276.0,-6.0,-81.0,147.0,311.0,0
-7.0,-276.0,-1.0,-58.0,179.0,295.0,0
-8.0,-278.0,0.0,-35.0,201.0,283.0,0
-2.0,-269.0,2.0,-7.0,220.0,280.0,0
3.0,-281.0,0.0,22.0,248.0,307.0,0
-8.0,-266.0,-2.0,33.0,279.0,237.0,0
3.0,-262.0,-8.0,28.0,299.0,229.0,0
6.0,-261.0,-13.0,7.0,317.0,214.0,0
8.0,-258.0,-17.0,-31.0,343.0,198.0,0
3.0,-259.0,-17.0,-74.0,367.0,188.0,0
14.0,-272.0,-13.0,-117.0,399.0,169.0,0
7.0,-267.0,-22.0,-164.0,426.0,112.0,0
11.0,-272.0,-22.0,-194.0,456.0,92.0,0
13.0,-271.0,-29.0,-232.0,480.0,56.0,0
6.0,-280.0,-24.0,-260.0,511.0,14.0,0
-10.0,-291.0,-21.0,-279.0,539.0,-31.0,0
-19.0,-296.0,-24.0,-282.0,529.0,-64.0,0
-42.0,-293.0,-36.0,-257.0,479.0,-88.0,0
-61.0,-294.0,-55.0,-236.0,403.0,-86.0,0
-75.0,-281.0,-78.0,-254.0,314.0,-79.0,0
-82.0,-282.0,-93.0,-325.0,209.0,-44.0,0
-79.0,-295.0,-101.0,-469.0,151.0,2.0,0
-80.0,-323.0,-88.0,-592.0,143.0,53.0,0
-86.0,-355.0,-60.0,-670.0,182.0,98.0,0
-97.0,-378.0,-31.0,-662.0,225.0,130.0,0
-101.0,-402.0,-6.0,-561.0,228.0,146.0,0
-105.0,-414.0,13.0,-391.0,192.0,161.0,0
-100.0,-412.0,8.0,-189.0,130.0,178.0,0
-86.0,-401.0,-4.0,-1.0,63.0,201.0,0
-72.0,-372.0,-33.0,135.0,13.0,217.0,0
-54.0,-343.0,-60.0,196.0,-30.0,222.0,0
-36.0,-320.0,-95.0,160.0,-60.0,207.0,0
-23.0,-308.0,-111.0,49.0,-83.0,167.0,0
-12.0,-294.0,-131.0,-110.0,-90.0,117.0,0
-9.0,-290.0,-140.0,-288.0,-79.0,63.0,0
0.0,-305.0,-143.0,-453.0,-47.0,19.0,0
7.0,-337.0,-140.0,-581.0,12.0,-10.0,0
-8.0,-340.0,-138.0,-656.0,98.0,-96.0,0
-7.0,-344.0,-132.0,-649.0,186.0,-145.0,0
-8.0,-345.0,-126.0,-573.0,259.0,-180.0,0
-12.0,-339.0,-122.0,-458.0,320.0,-215.0,0
-15.0,-324.0,-123.0,-311.0,344.0,-234.0,0
-20.0,-309.0,-114.0,-210.0,347.0,-248.0,0
-23.0,-292.0,-114.0,-146.0,334.0,-258.0,0
-17.0,-277.0,-113.0,-123.0,321.0,-269.0,0
-14.0,-268.0,-112.0,-136.0,320.0,-277.0,0
-10.0,-268.0,-103.0,-176.0,339.0,-291.0,0
-10.0,-271.0,-103.0,-226.0,377.0,-306.0,0
-11.0,-276.0,-90.0,-273.0,422.0,-319.0,0
-12.0,-283.0,-87.0,-306.0,461.0,-331.0,0
-18.0,-288.0,-84.0,-315.0,486.0,-342.0,0
-18.0,-290.0,-87.0,-297.0,489.0,-347.0,0
-20.0,-292.0,-96.0,-266.0,475.0,-356.0,0
-18.0,-292.0,-99.0,-228.0,464.0,-368.0,0
-17.0,-290.0,-105.0,-195.0,460.0,-382.0,0
-19.0,-292.0,-101.0,-168.0,462.0,-400.0,0
-20.0,-289.0,-95.0,-143.0,467.0,-424.0,0
-13.0,-294.0,-100.0,-111.0,472.0,-448.0,0
-13.0,-285.0,-95.0,-73.0,481.0,-470.0,0
-17.0,-280.0,-96.0,-28.0,490.0,-489.0,0
-19.0,-273.0,-93.0,13.0,500.0,-508.0,0
-21.0,-260.0,-88.0,55.0,507.0,-516.0,0
-23.0,-247.0,-80.0,94.0,501.0,-516.0,0
-20.0,-242.0,-70.0,134.0,487.0,-506.0,0
-20.0,-235.0,-71.0,167.0,463.0,-488.0,0
-17.0,-232.0,-64.0,187.0,437.0,-461.0,0
-17.0,-227.0,-62.0,195.0,418.0,-430.0,0
-18.0,-225.0,-61.0,187.0,401.0,-398.0,0
-19.0,-228.0,-66.0,163.0,390.0,-369.0,0
-22.0,-233.0,-73.0,122.0,377.0,-347.0,0
-21.0,-237.0,-74.0,67.0,360.0,-322.0,0
-21.0,-239.0,-73.0,0.0,335.0,-300.0,0
-23.0,-244.0,-74.0,-52.0,308.0,-288.0,0
-23.0,-248.0,-68.0,-89.0,284.0,-277.0,0
-11.0,-250.0,-61.0,-102.0,261.0,-273.0,0
-6.0,-250.0,-64.0,-92.0,242.0,-275.0,0
-5.0,-251.0,-59.0,-63.0,229.0,-278.0,0
4.0,-245.0,-57.0,-22.0,218.0,-278.0,0
7.0,-241.0,-58.0,22.0,212.0,-282.0,0
14.0,-235.0,-58.0,55.0,208.0,-284.0,0
16.0,-229.0,-62.0,76.0,212.0,-284.0,0
25.0,-228.0,-67.0,77.0,229.0,-289.0,0
28.0,-225.0,-67.0,60.0,248.0,-292.0,0
34.0,-225.0,-67.0,33.0,272.0,-303.0,0
35.0,-223.0,-69.0,3.0,297.0,-319.0,0
34.0,-224.0,-65.0,-26.0,323.0,-320.0,0
36.0,-226.0,-62.0,-52.0,355.0,-331.0,0
32.0,-224.0,-64.0,-70.0,385.0,-336.0,0
34.0,-232.0,-60.0,-82.0,411.0,-333.0,0
24.0,-233.0,-60.0,-83.0,441.0,-318.0,0
21.0,-240.0,-52.0,-79.0,472.0,-318.0,0
16.0,-235.0,-50.0,-66.0,501.0,-328.0,0
19.0,-244.0,-57.0,-43.0,510.0,-306.0,0
14.0,-242.0,-51.0,-25.0,522.0,-285.0,0
6.0,-246.0,-52.0,-15.0,526.0,-291.0,0
0.0,-245.0,-51.0,-7.0,524.0,-306.0,0
-2.0,-244.0,-51.0,-2.0,514.0,-347.0,0
2.0,-244.0,-52.0,5.0,487.0,-333.0,0
1.0,-245.0,-51.0,10.0,474.0,-330.0,0
-8.0,-247.0,-54.0,10.0,470.0,-355.0,0
-5.0,-233.0,-49.0,2.0,470.0,-424.0,0
4.0,-236.0,-52.0,5.0,443.0,-425.0,0
10.0,-239.0,-49.0,20.0,443.0,-429.0,0
9.0,-238.0,-45.0,29.0,451.0,-464.0,0
6.0,-233.0,-46.0,39.0,462.0,-535.0,0
12.0,-230.0,-47.0,51.0,442.0,-547.0,0
15.0,-230.0,-48.0,69.0,429.0,-536.0,0
11.0,-232.0,-47.0,80.0,419.0,-556.0,0
7.0,-217.0,-39.0,80.0,416.0,-622.0,0
14.0,-225.0,-46.0,73.0,387.0,-619.0,0
12.0,-230.0,-48.0,68.0,369.0,-599.0,0
10.0,-234.0,-45.0,52.0,353.0,-618.0,0
6.0,-224.0,-36.0,34.0,329.0,-670.0,0
20.0,-239.0,-40.0,33.0,297.0,-629.0,0
14.0,-237.0,-44.0,38.0,287.0,-620.0,0
10.0,-244.0,-34.0,42.0,282.0,-636.0,0
12.0,-237.0,-35.0,42.0,270.0,-682.0,0
23.0,-247.0,-39.0,43.0,239.0,-646.0,0
31.0,-250.0,-43.0,51.0,228.0,-630.0,0
30.0,-247.0,-42.0,55.0,226.0,-637.0,0
32.0,-247.0,-49.0,57.0,228.0,-659.0,0
44.0,-238.0,-45.0,61.0,230.0,-667.0,0
49.0,-238.0,-45.0,74.0,241.0,-638.0,0
45.0,-228.0,-54.0,78.0,260.0,-636.0,0
48.0,-232.0,-49.0,75.0,276.0,-638.0,0
50.0,-233.0,-47.0,70.0,293.0,-637.0,0
52.0,-239.0,-46.0,63.0,299.0,-633.0,0
47.0,-249.0,-42.0,51.0,299.0,-624.0,0
45.0,-256.0,-39.0,35.0,297.0,-622.0,0
42.0,-270.0,-34.0,21.0,293.0,-621.0,0
40.0,-262.0,-28.0,11.0,280.0,-655.0,0
42.0,-274.0,-31.0,31.0,271.0,-584.0,0
37.0,-275.0,-20.0,74.0,287.0,-559.0,0
36.0,-273.0,-26.0,115.0,281.0,-522.0,0
31.0,-265.0,-20.0,155.0,263.0,-488.0,0
29.0,-260.0,-19.0,187.0,237.0,-446.0,0
27.0,-256.0,-23.0,206.0,212.0,-402.0,0
30.0,-254.0,-17.0,210.0,192.0,-356.0,0
27.0,-260.0,-17.0,204.0,175.0,-321.0,0
35.0,-258.0,-12.0,192.0,149.0,-302.0,0
44.0,-266.0,-11.0,189.0,131.0,-228.0,0
44.0,-269.0,-8.0,184.0,119.0,-190.0,0
45.0,-270.0,-11.0,170.0,95.0,-168.0,0
46.0,-275.0,-15.0,160.0,65.0,-143.0,0
47.0,-279.0,-6.0,150.0,40.0,-122.0,0
44.0,-284.0,-8.0,138.0,18.0,-100.0,0
48.0,-294.0,-9.0,125.0,-1.0,-84.0,0
42.0,-292.0,-16.0,113.0,-17.0,-55.0,0
40.0,-299.0,-21.0,96.0,-26.0,-27.0,0
33.0,-305.0,-30.0,80.0,-35.0,-1.0,0
31.0,-300.0,-38.0,58.0,-52.0,0.0,0
38.0,-309.0,-47.0,28.0,-79.0,77.0,0
43.0,-318.0,-58.0,-10.0,-102.0,115.0,0
55.0,-330.0,-63.0,-37.0,-100.0,117.0,0
78.0,-340.0,-71.0,-43.0,-88.0,133.0,0
98.0,-352.0,-76.0,-39.0,-53.0,138.0,0
109.0,-358.0,-73.0,-37.0,-11.0,83.0,0
115.0,-361.0,-75.0,-50.0,24.0,10.0,0
113.0,-366.0,-71.0,-77.0,50.0,-72.0,0
98.0,-370.0,-60.0,-102.0,66.0,-148.0,0
84.0,-367.0,-44.0,-102.0,66.0,-210.0,0
66.0,-362.0,-45.0,-51.0,50.0,-273.0,0
45.0,-343.0,-46.0,55.0,-3.0,-323.0,0
38.0,-339.0,-55.0,160.0,-58.0,-282.0,0
17.0,-326.0,-61.0,254.0,-114.0,-228.0,0
6.0,-316.0,-67.0,333.0,-179.0,-189.0,0
-3.0,-307.0,-85.0,385.0,-253.0,-165.0,0
-5.0,-295.0,-110.0,402.0,-325.0,-109.0,0
-4.0,-282.0,-131.0,371.0,-379.0,-48.0,0
6.0,-275.0,-145.0,299.0,-418.0,10.0,0
15.0,-275.0,-147.0,199.0,-439.0,46.0,0
20.0,-279.0,-135.0,99.0,-449.0,90.0,0
17.0,-286.0,-119.0,22.0,-464.0,124.0,0
13.0,-295.0,-99.0,20.0,-498.0,160.0,0
12.0,-298.0,-93.0,65.0,-556.0,197.0,0
10.0,-293.0,-89.0,134.0,-627.0,238.0,0
24.0,-287.0,-92.0,197.0,-685.0,268.0,0
30.0,-277.0,-91.0,240.0,-714.0,290.0,0
33.0,-271.0,-91.0,254.0,-715.0,301.0,0
36.0,-265.0,-90.0,242.0,-692.0,310.0,0
34.0,-260.0,-95.0,208.0,-662.0,314.0,0
38.0,-262.0,-84.0,163.0,-640.0,325.0,0
40.0,-265.0,-87.0,101.0,-625.0,338.0,0
38.0,-264.0,-85.0,55.0,-618.0,354.0,0
47.0,-275.0,-79.0,24.0,-605.0,364.0,0
52.0,-274.0,-84.0,11.0,-587.0,377.0,0
54.0,-280.0,-81.0,22.0,-557.0,384.0,0
59.0,-278.0,-76.0,52.0,-520.0,399.0,0
57.0,-278.0,-73.0,93.0,-480.0,409.0,0
57.0,-276.0,-76.0,140.0,-445.0,424.0,0
56.0,-274.0,-77.0,177.0,-416.0,429.0,0
56.0,-265.0,-78.0,206.0,-392.0,435.0,0
54.0,-256.0,-75.0,220.0,-370.0,432.0,0
54.0,-246.0,-77.0,224.0,-353.0,427.0,0
54.0,-243.0,-80.0,218.0,-327.0,416.0,0
54.0,-241.0,-76.0,206.0,-286.0,407.0,0
48.0,-236.0,-70.0,198.0,-236.0,388.0,0
49.0,-240.0,-68.0,192.0,-187.0,369.0,0
46.0,-238.0,-65.0,180.0,-150.0,346.0,0
43.0,-238.0,-63.0,164.0,-128.0,332.0,0
44.0,-245.0,-66.0,141.0,-115.0,322.0,0
41.0,-248.0,-61.0,108.0,-101.0,324.0,0
36.0,-249.0,-56.0,76.0,-81.0,322.0,0
38.0,-259.0,-54.0,48.0,-63.0,332.0,0
33.0,-262.0,-53.0,41.0,-38.0,325.0,0
27.0,-263.0,-44.0,46.0,-15.0,336.0,0
18.0,-261.0,-45.0,66.0,17.0,342.0,0
18.0,-255.0,-42.0,91.0,48.0,338.0,0
9.0,-253.0,-43.0,116.0,69.0,357.0,0
2.0,-243.0,-40.0,125.0,91.0,356.0,0
-2.0,-238.0,-43.0,120.0,105.0,350.0,0
-6.0,-236.0,-46.0,110.0,108.0,376.0,0
-14.0,-228.0,-48.0,95.0,113.0,362.0,0
-19.0,-225.0,-47.0,66.0,96.0,353.0,0
-16.0,-217.0,-49.0,41.0,67.0,356.0,0
-16.0,-229.0,-50.0,13.0,35.0,376.0,0
-23.0,-229.0,-49.0,-16.0,12.0,356.0,0
-16.0,-235.0,-44.0,-43.0,-19.0,355.0,0
-17.0,-238.0,-46.0,-57.0,-50.0,364.0,0
-12.0,-250.0,-47.0,-58.0,-72.0,384.0,0
-12.0,-252.0,-43.0,-56.0,-93.0,359.0,0
-12.0,-255.0,-44.0,-50.0,-119.0,359.0,0
-7.0,-249.0,-54.0,-41.0,-147.0,371.0,0
-5.0,-255.0,-49.0,-21.0,-172.0,392.0,0
-5.0,-249.0,-49.0,-8.0,-183.0,371.0,0
-2.0,-251.0,-50.0,3.0,-200.0,373.0,0
-2.0,-243.0,-44.0,21.0,-213.0,382.0,0
0.0,-241.0,-48.0,45.0,-218.0,404.0,0
5.0,-241.0,-50.0,71.0,-206.0,417.0,0
5.0,-236.0,-53.0,80.0,-188.0,406.0,0
4.0,-231.0,-49.0,86.0,-177.0,414.0,0
2.0,-229.0,-48.0,90.0,-166.0,440.0,0
2.0,-232.0,-49.0,96.0,-154.0,470.0,0
0.0,-234.0,-43.0,100.0,-145.0,458.0,0
0.0,-229.0,-44.0,102.0,-156.0,471.0,0
0.0,-235.0,-46.0,112.0,-168.0,506.0,0
-1.0,-235.0,-42.0,123.0,-163.0,514.0,0
-1.0,-230.0,-47.0,125.0,-163.0,498.0,0
2.0,-234.0,-49.0,122.0,-168.0,501.0,0
3.0,-234.0,-49.0,121.0,-163.0,519.0,0
2.0,-230.0,-41.0,121.0,-141.0,516.0,0
0.0,-234.0,-40.0,113.0,-113.0,485.0,0
5.0,-235.0,-41.0,103.0,-92.0,478.0,0
6.0,-243.0,-39.0,101.0,-67.0,501.0,0
6.0,-248.0,-34.0,99.0,-31.0,483.0,0
0.0,-251.0,-34.0,99.0,-3.0,467.0,0
2.0,-245.0,-24.0,113.0,14.0,473.0,0
-5.0,-257.0,-34.0,146.0,21.0,503.0,0
-9.0,-256.0,-32.0,177.0,32.0,467.0,0
-10.0,-252.0,-33.0,204.0,26.0,441.0,0
-9.0,-249.0,-44.0,225.0,21.0,442.0,0
-9.0,-246.0,-41.0,243.0,33.0,439.0,0
-12.0,-245.0,-34.0,260.0,52.0,445.0,0
-20.0,-239.0,-34.0,275.0,85.0,427.0,0
-22.0,-237.0,-33.0,274.0,97.0,404.0,0
-22.0,-236.0,-30.0,263.0,91.0,406.0,0
-23.0,-238.0,-29.0,248.0,83.0,407.0,0
-28.0,-234.0,-34.0,235.0,75.0,406.0,0
-28.0,-233.0,-30.0,217.0,65.0,407.0,0
-29.0,-237.0,-36.0,200.0,60.0,434.0,0
-37.0,-235.0,-35.0,184.0,66.0,422.0,0
-37.0,-235.0,-36.0,166.0,59.0,409.0,0
-37.0,-240.0,-33.0,150.0,54.0,411.0,0
-31.0,-242.0,-31.0,133.0,56.0,411.0,0
-34.0,-242.0,-34.0,123.0,65.0,401.0,0
-31.0,-245.0,-30.0,110.0,67.0,393.0,0
-35.0,-244.0,-31.0,92.0,66.0,384.0,0
-31.0,-248.0,-34.0,73.0,57.0,378.0,0
-29.0,-250.0,-29.0,54.0,46.0,370.0,0
-29.0,-256.0,-28.0,39.0,34.0,358.0,0
-30.0,-259.0,-24.0,28.0,24.0,345.0,0
-27.0,-264.0,-19.0,25.0,20.0,332.0,0
-25.0,-263.0,-21.0,34.0,16.0,317.0,0
-26.0,-269.0,-27.0,50.0,13.0,328.0,0
-29.0,-271.0,-20.0,71.0,27.0,291.0,0
-28.0,-272.0,-22.0,74.0,32.0,261.0,0
-28.0,-271.0,-25.0,74.0,39.0,257.0,0
-26.0,-273.0,-24.0,67.0,56.0,248.0,0
-24.0,-275.0,-20.0,65.0,76.0,239.0,0
-22.0,-277.0,-21.0,68.0,95.0,231.0,0
-16.0,-275.0,-21.0,81.0,111.0,221.0,0
-16.0,-275.0,-21.0,103.0,134.0,216.0,0
-12.0,-270.0,-15.0,127.0,161.0,201.0,0
-10.0,-276.0,-17.0,152.0,190.0,199.0,0
-13.0,-267.0,-10.0,178.0,216.0,153.0,0
-12.0,-270.0,0.0,195.0,229.0,126.0,0
-12.0,-265.0,2.0,208.0,243.0,102.0,0
-20.0,-268.0,3.0,216.0,260.0,82.0,0
-23.0,-273.0,7.0,221.0,281.0,66.0,0
-27.0,-276.0,18.0,220.0,296.0,48.0,0
-26.0,-280.0,23.0,214.0,310.0,35.0,0
-31.0,-285.0,23.0,207.0,325.0,30.0,0
-27.0,-292.0,29.0,203.0,344.0,23.0,0
-29.0,-294.0,30.0,205.0,364.0,14.0,0
-30.0,-295.0,30.0,216.0,381.0,13.0,0
-27.0,-302.0,24.0,224.0,390.0,17.0,0
-23.0,-301.0,27.0,230.0,393.0,26.0,0
-12.0,-301.0,18.0,235.0,399.0,32.0,0
-3.0,-304.0,20.0,240.0,410.0,33.0,0
12.0,-304.0,16.0,250.0,431.0,27.0,0
16.0,-302.0,15.0,268.0,469.0,19.0,0
15.0,-311.0,9.0,294.0,521.0,7.0,0
5.0,-311.0,1.0,300.0,570.0,-21.0,0
-10.0,-309.0,-12.0,276.0,589.0,-23.0,0
-26.0,-313.0,-22.0,205.0,572.0,-2.0,0
-45.0,-310.0,-30.0,121.0,533.0,20.0,0
-49.0,-321.0,-30.0,40.0,488.0,74.0,0
-49.0,-335.0,-42.0,-30.0,464.0,128.0,0
-44.0,-349.0,-41.0,-92.0,478.0,173.0,0
-43.0,-363.0,-35.0,-129.0,526.0,202.0,0
-42.0,-370.0,-35.0,-123.0,582.0,211.0,0
-41.0,-378.0,-30.0,-77.0,632.0,208.0,0
-41.0,-384.0,-26.0,-13.0,662.0,213.0,0
-36.0,-378.0,-28.0,36.0,674.0,198.0,0
-25.0,-370.0,-33.0,58.0,671.0,180.0,0
-18.0,-363.0,-36.0,59.0,677.0,155.0,0
-15.0,-354.0,-40.0,61.0,693.0,136.0,0
-24.0,-348.0,-39.0,75.0,714.0,122.0,0
-27.0,-345.0,-52.0,81.0,709.0,87.0,0
-29.0,-337.0,-76.0,74.0,682.0,71.0,0
-31.0,-334.0,-100.0,46.0,648.0,53.0,0
-25.0,-322.0,-115.0,-5.0,619.0,30.0,0
-24.0,-313.0,-125.0,-59.0,601.0,16.0,0
-19.0,-314.0,-126.0,-104.0,614.0,-3.0,0
-23.0,-311.0,-120.0,-134.0,651.0,-19.0,0
-26.0,-310.0,-106.0,-131.0,689.0,-32.0,0
-33.0,-306.0,-102.0,-100.0,709.0,-43.0,0
-34.0,-298.0,-90.0,-49.0,709.0,-54.0,0
-34.0,-292.0,-87.0,3.0,693.0,-66.0,0
-33.0,-288.0,-81.0,52.0,668.0,-75.0,0
-33.0,-285.0,-79.0,79.0,636.0,-86.0,0
-34.0,-280.0,-76.0,79.0,606.0,-101.0,0
-35.0,-285.0,-72.0,58.0,575.0,-117.0,0
-31.0,-286.0,-69.0,26.0,537.0,-141.0,0
-30.0,-291.0,-69.0,-4.0,512.0,-164.0,0
-25.0,-294.0,-66.0,-10.0,494.0,-190.0,0
-28.0,-297.0,-63.0,5.0,476.0,-215.0,0
-26.0,-297.0,-61.0,36.0,458.0,-241.0,0
-25.0,-297.0,-64.0,75.0,445.0,-265.0,0
-25.0,-297.0,-64.0,118.0,435.0,-289.0,0
-14.0,-296.0,-60.0,162.0,430.0,-310.0,0
-12.0,-294.0,-56.0,209.0,427.0,-333.0,0
-8.0,-290.0,-50.0,262.0,422.0,-352.0,0
-4.0,-282.0,-50.0,315.0,410.0,-369.0,0
4.0,-275.0,-48.0,374.0,401.0,-374.0,0
7.0,-269.0,-45.0,414.0,392.0,-376.0,0
8.0,-257.0,-46.0,447.0,385.0,-369.0,0
12.0,-240.0,-47.0,465.0,378.0,-361.0,0
9.0,-230.0,-54.0,472.0,373.0,-345.0,0
10.0,-224.0,-52.0,462.0,369.0,-330.0,0
4.0,-213.0,-53.0,433.0,362.0,-311.0,0
5.0,-208.0,-54.0,394.0,348.0,-293.0,0
3.0,-209.0,-53.0,347.0,334.0,-273.0,0
2.0,-211.0,-50.0,293.0,325.0,-251.0,0
-2.0,-217.0,-45.0,221.0,326.0,-229.0,0
-6.0,-226.0,-40.0,163.0,327.0,-214.0,0
-8.0,-233.0,-38.0,110.0,322.0,-202.0,0
-11.0,-238.0,-37.0,69.0,313.0,-198.0,0
-9.0,-247.0,-39.0,42.0,299.0,-191.0,0
-5.0,-251.0,-36.0,32.0,286.0,-188.0,0
-10.0,-248.0,-35.0,38.0,273.0,-181.0,0
-9.0,-250.0,-36.0,54.0,263.0,-182.0,0
-9.0,-248.0,-39.0,73.0,249.0,-184.0,0
-11.0,-246.0,-38.0,96.0,232.0,-184.0,0
-8.0,-245.0,-38.0,117.0,215.0,-186.0,0
-11.0,-242.0,-35.0,133.0,201.0,-189.0,0
-11.0,-240.0,-39.0,140.0,190.0,-191.0,0
-12.0,-238.0,-39.0,139.0,182.0,-199.0,0
-9.0,-236.0,-47.0,129.0,177.0,-198.0,0
-6.0,-234.0,-45.0,115.0,180.0,-204.0,0
-1.0,-231.0,-51.0,96.0,192.0,-206.0,0
-3.0,-229.0,-50.0,77.0,213.0,-208.0,0
0.0,-230.0,-48.0,59.0,236.0,-205.0,0
5.0,-234.0,-46.0,49.0,265.0,-210.0,0
11.0,-231.0,-51.0,47.0,285.0,-217.0,0
18.0,-233.0,-49.0,53.0,304.0,-203.0,0
17.0,-234.0,-49.0,60.0,328.0,-190.0,0
21.0,-234.0,-50.0,66.0,351.0,-188.0,0
20.0,-239.0,-46.0,71.0,376.0,-186.0,0
23.0,-236.0,-43.0,79.0,412.0,-202.0,0
29.0,-237.0,-48.0,84.0,440.0,-188.0,0
34.0,-243.0,-51.0,89.0,476.0,-177.0,0
31.0,-242.0,-47.0,96.0,518.0,-177.0,0
32.0,-243.0,-45.0,101.0,567.0,-183.0,0
32.0,-238.0,-46.0,106.0,604.0,-187.0,0
32.0,-239.0,-45.0,109.0,634.0,-192.0,0
32.0,-232.0,-42.0,107.0,664.0,-209.0,0
35.0,-235.0,-45.0,101.0,681.0,-202.0,0
33.0,-236.0,-45.0,95.0,705.0,-186.0,0
30.0,-235.0,-44.0,84.0,731.0,-192.0,0
29.0,-237.0,-48.0,72.0,754.0,-195.0,0
30.0,-235.0,-50.0,53.0,778.0,-202.0,0
28.0,-234.0,-47.0,28.0,805.0,-211.0,0
24.0,-234.0,-50.0,2.0,837.0,-223.0,0
21.0,-238.0,-49.0,-34.0,862.0,-224.0,0
19.0,-232.0,-47.0,-64.0,882.0,-253.0,0
23.0,-235.0,-46.0,-87.0,892.0,-239.0,0
19.0,-236.0,-47.0,-106.0,909.0,-234.0,0
12.0,-235.0,-45.0,-120.0,927.0,-237.0,0
4.0,-234.0,-44.0,-127.0,938.0,-245.0,0
5.0,-232.0,-43.0,-130.0,945.0,-245.0,0
5.0,-235.0,-40.0,-134.0,945.0,-252.0,0
-3.0,-227.0,-33.0,-138.0,954.0,-269.0,0
1.0,-230.0,-43.0,-146.0,950.0,-266.0,0
2.0,-235.0,-40.0,-148.0,959.0,-248.0,0
-3.0,-233.0,-33.0,-151.0,965.0,-261.0,0
-4.0,-236.0,-32.0,-153.0,958.0,-266.0,0
-4.0,-231.0,-29.0,-155.0,953.0,-282.0,0
1.0,-235.0,-29.0,-158.0,940.0,-264.0,0
1.0,-236.0,-20.0,-155.0,931.0,-266.0,0
2.0,-235.0,-27.0,-151.0,922.0,-278.0,0
-2.0,-232.0,-28.0,-148.0,915.0,-289.0,0
4.0,-228.0,-22.0,-151.0,905.0,-299.0,0
9.0,-229.0,-25.0,-162.0,895.0,-285.0,0
7.0,-229.0,-18.0,-179.0,886.0,-284.0,0
12.0,-230.0,-16.0,-193.0,874.0,-286.0,0
15.0,-233.0,-12.0,-202.0,864.0,-275.0,0
17.0,-234.0,-8.0,-198.0,864.0,-275.0,0
16.0,-236.0,-13.0,-189.0,859.0,-261.0,0
16.0,-237.0,-11.0,-177.0,858.0,-227.0,0
21.0,-238.0,-14.0,-167.0,856.0,-209.0,0
20.0,-235.0,-18.0,-166.0,845.0,-198.0,0
21.0,-242.0,-13.0,-173.0,829.0,-179.0,0
22.0,-246.0,-11.0,-183.0,819.0,-163.0,0
23.0,-253.0,-6.0,-182.0,812.0,-146.0,0
26.0,-257.0,-1.0,-160.0,815.0,-134.0,0
26.0,-257.0,3.0,-123.0,825.0,-116.0,0
26.0,-256.0,1.0,-82.0,840.0,-104.0,0
29.0,-256.0,1.0,-52.0,855.0,-86.0,0
31.0,-256.0,1.0,-24.0,871.0,-75.0,0
36.0,-258.0,2.0,-2.0,887.0,-63.0,0
36.0,-257.0,2.0,16.0,906.0,-58.0,0
38.0,-259.0,3.0,32.0,921.0,-47.0,0
39.0,-261.0,8.0,49.0,931.0,-40.0,0
40.0,-259.0,7.0,65.0,930.0,-28.0,0
41.0,-261.0,8.0,76.0,928.0,-18.0,0
48.0,-260.0,7.0,81.0,935.0,-2.0,0
50.0,-257.0,-2.0,75.0,940.0,12.0,0
51.0,-259.0,-10.0,62.0,952.0,32.0,0
53.0,-263.0,-10.0,31.0,971.0,42.0,0
50.0,-266.0,-18.0,-7.0,990.0,61.0,0
53.0,-272.0,-24.0,-49.0,1012.0,72.0,0
52.0,-274.0,-30.0,-87.0,1037.0,86.0,0
50.0,-275.0,-33.0,-121.0,1074.0,96.0,0
50.0,-280.0,-33.0,-145.0,1106.0,112.0,0
45.0,-292.0,-28.0,-157.0,1132.0,127.0,0
39.0,-299.0,-23.0,-161.0,1144.0,154.0,0
37.0,-301.0,-26.0,-157.0,1144.0,173.0,0
33.0,-303.0,-25.0,-144.0,1140.0,195.0,0
33.0,-304.0,-28.0,-134.0,1139.0,210.0,0
32.0,-304.0,-35.0,-124.0,1151.0,220.0,0
30.0,-310.0,-30.0,-108.0,1172.0,217.0,0
23.0,-311.0,-30.0,-77.0,1193.0,210.0,0
13.0,-309.0,-22.0,-36.0,1219.0,180.0,0
10.0,-309.0,-21.0,-6.0,1227.0,153.0,0
7.0,-307.0,-21.0,22.0,1220.0,121.0,0
7.0,-304.0,-21.0,53.0,1212.0,94.0,0
6.0,-302.0,-21.0,84.0,1212.0,68.0,0
7.0,-296.0,-25.0,112.0,1219.0,51.0,0
10.0,-292.0,-27.0,133.0,1226.0,27.0,0
15.0,-287.0,-36.0,141.0,1231.0,-3.0,0
22.0,-277.0,-42.0,127.0,1245.0,-34.0,0
25.0,-274.0,-52.0,110.0,1268.0,-75.0,0
31.0,-265.0,-50.0,81.0,1307.0,-110.0,0
38.0,-261.0,-57.0,61.0,1346.0,-140.0,0
36.0,-260.0,-57.0,40.0,1385.0,-172.0,0
31.0,-256.0,-46.0,19.0,1412.0,-180.0,0
23.0,-255.0,-46.0,23.0,1407.0,-198.0,0
23.0,-259.0,-42.0,18.0,1392.0,-186.0,0
17.0,-252.0,-45.0,24.0,1373.0,-175.0,0
1.0,-249.0,-43.0,41.0,1346.0,-184.0,0
-1.0,-255.0,-36.0,44.0,1321.0,-162.0,0
2.0,-250.0,-37.0,40.0,1296.0,-122.0,0
-7.0,-253.0,-39.0,37.0,1270.0,-112.0,0
-10.0,-254.0,-38.0,36.0,1245.0,-97.0,0
-8.0,-256.0,-44.0,29.0,1225.0,-72.0,0
-7.0,-252.0,-47.0,28.0,1200.0,-61.0,0
-8.0,-252.0,-51.0,19.0,1176.0,-66.0,0
-1.0,-252.0,-58.0,-5.0,1160.0,-49.0,0
2.0,-255.0,-55.0,-27.0,1154.0,-64.0,0
5.0,-258.0,-54.0,-60.0,1146.0,-66.0,0
9.0,-263.0,-52.0,-88.0,1145.0,-71.0,0
15.0,-270.0,-50.0,-109.0,1143.0,-80.0,0
15.0,-273.0,-47.0,-129.0,1150.0,-80.0,0
23.0,-275.0,-50.0,-130.0,1163.0,-75.0,0
29.0,-279.0,-49.0,-114.0,1171.0,-84.0,0
32.0,-280.0,-53.0,-102.0,1181.0,-74.0,0
35.0,-280.0,-54.0,-87.0,1190.0,-56.0,0
35.0,-280.0,-55.0,-64.0,1198.0,-40.0,0
33.0,-277.0,-60.0,-46.0,1210.0,-26.0,0
31.0,-279.0,-63.0,-32.0,1223.0,-9.0,0
34.0,-277.0,-64.0,-21.0,1239.0,3.0,0
34.0,-278.0,-66.0,-11.0,1258.0,20.0,0
31.0,-276.0,-66.0,3.0,1285.0,33.0,0
28.0,-279.0,-65.0,13.0,1312.0,45.0,0
28.0,-277.0,-67.0,25.0,1338.0,50.0,0
29.0,-278.0,-71.0,36.0,1366.0,57.0,0
28.0,-275.0,-75.0,45.0,1388.0,60.0,0
25.0,-275.0,-73.0,55.0,1404.0,63.0,0
24.0,-272.0,-75.0,67.0,1417.0,63.0,0
23.0,-263.0,-74.0,75.0,1428.0,65.0,0
25.0,-264.0,-75.0,81.0,1437.0,58.0,0
26.0,-260.0,-76.0,87.0,1448.0,56.0,0
15.0,-255.0,-69.0,94.0,1463.0,45.0,0
16.0,-252.0,-71.0,95.0,1474.0,37.0,0
12.0,-250.0,-73.0,95.0,1479.0,27.0,0
8.0,-249.0,-65.0,93.0,1484.0,19.0,0
1.0,-248.0,-63.0,87.0,1492.0,10.0,0
-2.0,-249.0,-57.0,82.0,1495.0,2.0,0
-10.0,-247.0,-50.0,76.0,1498.0,-12.0,0
-11.0,-250.0,-44.0,70.0,1500.0,-25.0,0
-16.0,-249.0,-45.0,68.0,1499.0,-41.0,0
-19.0,-250.0,-37.0,63.0,1497.0,-53.0,0
-21.0,-251.0,-37.0,57.0,1491.0,-70.0,0
-24.0,-256.0,-38.0,43.0,1487.0,-81.0,0
-26.0,-256.0,-33.0,27.0,1487.0,-88.0,0
-25.0,-261.0,-33.0,7.0,1486.0,-92.0,0
-24.0,-262.0,-32.0,-16.0,1489.0,-95.0,0
-26.0,-268.0,-28.0,-36.0,1493.0,-97.0,0
-26.0,-274.0,-31.0,-58.0,1496.0,-96.0,0
-22.0,-279.0,-28.0,-77.0,1500.0,-92.0,0
-21.0,-282.0,-31.0,-96.0,1503.0,-90.0,0
-17.0,-291.0,-31.0,-112.0,1507.0,-85.0,0
-12.0,-293.0,-29.0,-130.0,1515.0,-79.0,0
-11.0,-296.0,-31.0,-138.0,1524.0,-74.0,0
-10.0,-297.0,-38.0,-140.0,1534.0,-70.0,0
-10.0,-299.0,-34.0,-138.0,1541.0,-64.0,0
-6.0,-294.0,-35.0,-128.0,1540.0,-56.0,0
-3.0,-295.0,-42.0,-110.0,1538.0,-46.0,0
-1.0,-296.0,-34.0,-89.0,1540.0,-36.0,0
2.0,-290.0,-38.0,-68.0,1551.0,-25.0,0
5.0,-290.0,-40.0,-46.0,1563.0,-19.0,0
3.0,-283.0,-40.0,-24.0,1577.0,-10.0,0
4.0,-282.0,-43.0,-4.0,1594.0,-2.0,0
1.0,-277.0,-39.0,8.0,1604.0,3.0,0
5.0,-276.0,-44.0,14.0,1613.0,10.0,0
6.0,-276.0,-42.0,15.0,1624.0,17.0,0
2.0,-275.0,-44.0,13.0,1638.0,22.0,0
9.0,-275.0,-44.0,10.0,1654.0,24.0,0
9.0,-274.0,-44.0,9.0,1677.0,26.0,0
10.0,-272.0,-47.0,13.0,1705.0,27.0,0
9.0,-271.0,-47.0,20.0,1739.0,26.0,0
10.0,-269.0,-46.0,25.0,1768.0,22.0,0
12.0,-269.0,-46.0,27.0,1803.0,16.0,0
10.0,-267.0,-42.0,29.0,1832.0,10.0,0
10.0,-267.0,-40.0,32.0,1858.0,3.0,0
7.0,-264.0,-43.0,42.0,1883.0,-4.0,0
2.0,-262.0,-36.0,52.0,1905.0,-13.0,0
-3.0,-264.0,-38.0,59.0,1924.0,-22.0,0
-6.0,-259.0,-40.0,64.0,1939.0,-31.0,0
-10.0,-260.0,-36.0,63.0,1947.0,-41.0,0
-12.0,-264.0,-39.0,55.0,1952.0,-49.0,0
-12.0,-264.0,-41.0,41.0,1952.0,-55.0,0
-15.0,-268.0,-42.0,27.0,1955.0,-62.0,0
-20.0,-266.0,-37.0,11.0,1958.0,-70.0,0
-23.0,-266.0,-33.0,1.0,1959.0,-72.0,0
-24.0,-272.0,-34.0,-9.0,1960.0,-74.0,0
-27.0,-268.0,-37.0,-15.0,1956.0,-75.0,0
-27.0,-271.0,-35.0,-14.0,1953.0,-74.0,0
-27.0,-272.0,-33.0,-11.0,1950.0,-72.0,0
-25.0,-274.0,-34.0,-7.0,1951.0,-71.0,0
-26.0,-271.0,-35.0,-5.0,1954.0,-73.0,0
-19.0,-271.0,-34.0,-6.0,1957.0,-78.0,0
-17.0,-270.0,-40.0,-6.0,1961.0,-87.0,0
-15.0,-265.0,-42.0,-6.0,1966.0,-97.0,0
-11.0,-269.0,-43.0,-3.0,1971.0,-108.0,0
-12.0,-262.0,-44.0,3.0,1975.0,-121.0,0
-11.0,-261.0,-40.0,11.0,1978.0,-134.0,0
-6.0,-266.0,-43.0,13.0,1981.0,-151.0,0
-6.0,-260.0,-52.0,4.0,1986.0,-166.0,0
-11.0,-260.0,-52.0,-22.0,1990.0,-179.0,0
-11.0,-266.0,-57.0,-53.0,1992.0,-187.0,0
-16.0,-267.0,-51.0,-91.0,1989.0,-188.0,0
-23.0,-271.0,-49.0,-118.0,1972.0,-185.0,0
-22.0,-271.0,-52.0,-138.0,1957.0,-181.0,0
-26.0,-273.0,-51.0,-150.0,1947.0,-175.0,0
-23.0,-273.0,-55.0,-162.0,1945.0,-171.0,0
-23.0,-270.0,-58.0,-171.0,1950.0,-163.0,0
-29.0,-273.0,-53.0,-176.0,1961.0,-158.0,0
-36.0,-274.0,-56.0,-182.0,1970.0,-150.0,0
-41.0,-275.0,-48.0,-187.0,1977.0,-144.0,0
-44.0,-278.0,-45.0,-194.0,1980.0,-135.0,0
-48.0,-283.0,-45.0,-205.0,1974.0,-123.0,0
-48.0,-293.0,-43.0,-226.0,1940.0,-105.0,0
-39.0,-297.0,-48.0,-249.0,1906.0,-92.0,0
-32.0,-298.0,-54.0,-264.0,1881.0,-74.0,0
-22.0,-298.0,-54.0,-267.0,1870.0,-63.0,0
-17.0,-292.0,-52.0,-263.0,1864.0,-50.0,0
-11.0,-295.0,-61.0,-248.0,1857.0,-41.0,0
-6.0,-288.0,-61.0,-232.0,1845.0,-31.0,0
-1.0,-286.0,-57.0,-213.0,1833.0,-23.0,0
0.0,-276.0,-58.0,-193.0,1822.0,-14.0,0
6.0,-273.0,-58.0,-178.0,1809.0,-7.0,0
13.0,-271.0,-59.0,-173.0,1790.0,6.0,0
17.0,-268.0,-53.0,-165.0,1770.0,14.0,0
26.0,-271.0,-51.0,-148.0,1750.0,21.0,0
25.0,-270.0,-50.0,-113.0,1737.0,23.0,0
23.0,-267.0,-52.0,-64.0,1730.0,26.0,0
26.0,-270.0,-52.0,-25.0,1727.0,22.0,0
31.0,-266.0,-55.0,-2.0,1717.0,24.0,0
33.0,-262.0,-54.0,5.0,1706.0,21.0,0
35.0,-263.0,-52.0,5.0,1705.0,21.0,0
37.0,-260.0,-56.0,0.0,1708.0,16.0,0
42.0,-260.0,-53.0,-5.0,1715.0,10.0,0
43.0,-257.0,-52.0,-9.0,1723.0,-1.0,0
45.0,-258.0,-47.0,-7.0,1737.0,-5.0,0
50.0,-257.0,-47.0,-4.0,1759.0,-15.0,0
45.0,-253.0,-41.0,-3.0,1783.0,-25.0,0
42.0,-245.0,-43.0,-4.0,1806.0,-40.0,0
40.0,-244.0,-39.0,-16.0,1825.0,-52.0,0
36.0,-244.0,-36.0,-44.0,1832.0,-67.0,0
37.0,-247.0,-34.0,-87.0,1831.0,-78.0,0
36.0,-250.0,-33.0,-136.0,1828.0,-91.0,0
34.0,-258.0,-25.0,-179.0,1826.0,-98.0,0
32.0,-256.0,-25.0,-210.0,1823.0,-103.0,0
36.0,-265.0,-18.0,-214.0,1822.0,-98.0,0
42.0,-270.0,-15.0,-199.0,1829.0,-96.0,0
46.0,-273.0,-12.0,-173.0,1842.0,-88.0,0
42.0,-269.0,-13.0,-136.0,1860.0,-82.0,0
47.0,-274.0,-10.0,-94.0,1875.0,-68.0,0
43.0,-268.0,-8.0,-55.0,1885.0,-57.0,0
45.0,-264.0,-6.0,-28.0,1892.0,-43.0,0
49.0,-262.0,-12.0,-15.0,1898.0,-31.0,0
50.0,-257.0,-12.0,-15.0,1907.0,-12.0,0
51.0,-250.0,-17.0,-22.0,1918.0,-2.0,0
52.0,-249.0,-18.0,-33.0,1933.0,12.0,0
52.0,-248.0,-18.0,-51.0,1947.0,15.0,0
53.0,-246.0,-22.0,-76.0,1967.0,15.0,0
53.0,-246.0,-22.0,-110.0,1990.0,8.0,0
52.0,-244.0,-27.0,-157.0,2014.0,2.0,0
52.0,-248.0,-31.0,-216.0,2035.0,-14.0,0
48.0,-251.0,-38.0,-283.0,2056.0,-23.0,0
49.0,-254.0,-38.0,-344.0,2075.0,-38.0,0
49.0,-265.0,-41.0,-391.0,2102.0,-52.0,0
48.0,-272.0,-40.0,-416.0,2135.0,-72.0,0
40.0,-277.0,-37.0,-415.0,2162.0,-86.0,0
32.0,-278.0,-35.0,-398.0,2183.0,-101.0,0
27.0,-280.0,-35.0,-370.0,2194.0,-112.0,0
19.0,-279.0,-38.0,-344.0,2196.0,-123.0,0
15.0,-278.0,-35.0,-322.0,2193.0,-121.0,0
13.0,-279.0,-37.0,-298.0,2188.0,-120.0,0
9.0,-282.0,-29.0,-275.0,2179.0,-110.0,0
11.0,-285.0,-26.0,-252.0,2166.0,-103.0,0
5.0,-288.0,-26.0,-228.0,2151.0,-85.0,0
1.0,-287.0,-28.0,-202.0,2132.0,-79.0,0
0.0,-287.0,-28.0,-186.0,2111.0,-70.0,0
-2.0,-288.0,-23.0,-173.0,2090.0,-67.0,0
-7.0,-290.0,-21.0,-159.0,2069.0,-62.0,0
-11.0,-293.0,-18.0,-144.0,2045.0,-61.0,0
-9.0,-293.0,-16.0,-124.0,2015.0,-57.0,0
-10.0,-291.0,-6.0,-102.0,1980.0,-57.0,0
-9.0,-292.0,-3.0,-77.0,1937.0,-53.0,0
-11.0,-293.0,-2.0,-45.0,1890.0,-53.0,0
-8.0,-290.0,1.0,-10.0,1839.0,-47.0,0
-10.0,-287.0,-2.0,30.0,1772.0,-47.0,0
-5.0,-283.0,3.0,53.0,1717.0,-47.0,0
0.0,-281.0,2.0,62.0,1664.0,-51.0,0
1.0,-277.0,6.0,64.0,1622.0,-55.0,0
-1.0,-275.0,2.0,64.0,1589.0,-63.0,0
2.0,-276.0,4.0,59.0,1551.0,-67.0,0
5.0,-274.0,5.0,57.0,1512.0,-75.0,0
5.0,-274.0,0.0,56.0,1475.0,-79.0,0
9.0,-274.0,1.0,53.0,1448.0,-91.0,0
10.0,-273.0,1.0,53.0,1429.0,-99.0,0
17.0,-273.0,2.0,52.0,1407.0,-115.0,0
13.0,-270.0,5.0,49.0,1391.0,-123.0,0
15.0,-274.0,8.0,50.0,1376.0,-132.0,0
15.0,-270.0,13.0,54.0,1357.0,-136.0,0
13.0,-270.0,8.0,58.0,1333.0,-143.0,0
19.0,-268.0,8.0,57.0,1305.0,-140.0,0
22.0,-267.0,4.0,47.0,1280.0,-143.0,0
22.0,-266.0,2.0,34.0,1265.0,-138.0,0
27.0,-264.0,5.0,24.0,1252.0,-139.0,0
29.0,-264.0,4.0,20.0,1243.0,-134.0,0
34.0,-263.0,4.0,19.0,1231.0,-134.0,0
37.0,-264.0,2.0,19.0,1227.0,-132.0,0
40.0,-260.0,3.0,18.0,1225.0,-134.0,0
43.0,-258.0,3.0,16.0,1224.0,-134.0,0
43.0,-256.0,5.0,9.0,1223.0,-139.0,0
44.0,-256.0,2.0,-1.0,1221.0,-138.0,0
46.0,-256.0,3.0,-13.0,1216.0,-141.0,0
46.0,-256.0,3.0,-29.0,1211.0,-141.0,0
43.0,-255.0,9.0,-45.0,1207.0,-143.0,0
46.0,-257.0,14.0,-57.0,1202.0,-142.0,0
41.0,-258.0,15.0,-67.0,1193.0,-143.0,0
36.0,-257.0,11.0,-75.0,1182.0,-140.0,0
40.0,-260.0,9.0,-81.0,1168.0,-142.0,0
38.0,-263.0,12.0,-87.0,1155.0,-141.0,0
35.0,-261.0,10.0,-93.0,1140.0,-143.0,0
34.0,-261.0,11.0,-100.0,1130.0,-141.0,0
33.0,-259.0,7.0,-110.0,1121.0,-141.0,0
29.0,-258.0,2.0,-122.0,1110.0,-136.0,0
26.0,-253.0,2.0,-136.0,1100.0,-132.0,0
25.0,-249.0,4.0,-150.0,1083.0,-121.0,0
27.0,-246.0,4.0,-162.0,1061.0,-107.0,0
24.0,-247.0,9.0,-171.0,1042.0,-91.0,0
26.0,-251.0,6.0,-175.0,1022.0,-78.0,0
24.0,-253.0,4.0,-179.0,997.0,-62.0,0
24.0,-252.0,3.0,-180.0,969.0,-49.0,0
25.0,-259.0,4.0,-181.0,941.0,-34.0,0
26.0,-260.0,3.0,-180.0,915.0,-24.0,0
30.0,-263.0,3.0,-183.0,891.0,-11.0,0
29.0,-265.0,-5.0,-188.0,870.0,-3.0,0
29.0,-266.0,-4.0,-191.0,856.0,9.0,0
28.0,-272.0,-6.0,-191.0,842.0,15.0,0
30.0,-275.0,-6.0,-187.0,829.0,22.0,0
31.0,-277.0,-7.0,-188.0,810.0,23.0,0
30.0,-282.0,-13.0,-191.0,786.0,26.0,0
33.0,-286.0,-9.0,-198.0,763.0,23.0,0
37.0,-296.0,-16.0,-208.0,742.0,20.0,0
38.0,-299.0,-21.0,-209.0,724.0,8.0,0
47.0,-305.0,-22.0,-205.0,707.0,-4.0,0
50.0,-303.0,-26.0,-201.0,693.0,-27.0,0
56.0,-309.0,-31.0,-189.0,700.0,-52.0,0
52.0,-309.0,-27.0,-169.0,720.0,-87.0,0
45.0,-305.0,-28.0,-133.0,720.0,-109.0,0
42.0,-304.0,-24.0,-101.0,695.0,-124.0,0
33.0,-297.0,-23.0,-63.0,668.0,-127.0,0
28.0,-293.0,-24.0,-22.0,648.0,-127.0,0
17.0,-286.0,-24.0,24.0,638.0,-118.0,0
16.0,-280.0,-16.0,76.0,630.0,-108.0,0
6.0,-276.0,-23.0,123.0,622.0,-91.0,0
0.0,-269.0,-27.0,162.0,612.0,-77.0,0
-3.0,-267.0,-29.0,191.0,601.0,-59.0,0
2.0,-248.0,-20.0,208.0,585.0,-40.0,0
-8.0,-261.0,-26.0,222.0,570.0,-22.0,0
-4.0,-259.0,-28.0,233.0,553.0,-8.0,0
-1.0,-258.0,-21.0,240.0,533.0,6.0,0
3.0,-256.0,-21.0,247.0,512.0,19.0,0
7.0,-256.0,-17.0,250.0,487.0,30.0,0
12.0,-258.0,-18.0,249.0,458.0,39.0,0
17.0,-257.0,-15.0,239.0,425.0,49.0,0
26.0,-257.0,-17.0,230.0,394.0,54.0,0
31.0,-256.0,-19.0,217.0,370.0,63.0,0
34.0,-258.0,-17.0,205.0,352.0,66.0,0
33.0,-262.0,-18.0,188.0,341.0,68.0,0
39.0,-263.0,-15.0,176.0,335.0,67.0,0
41.0,-261.0,-20.0,162.0,329.0,66.0,0
42.0,-260.0,-18.0,148.0,329.0,63.0,0
43.0,-266.0,-13.0,134.0,329.0,60.0,0
44.0,-263.0,-13.0,119.0,334.0,53.0,0
40.0,-262.0,-13.0,108.0,339.0,51.0,0
40.0,-264.0,-13.0,100.0,346.0,48.0,0
41.0,-263.0,-17.0,92.0,350.0,51.0,0
42.0,-263.0,-17.0,83.0,352.0,52.0,0
39.0,-267.0,-15.0,71.0,354.0,57.0,0
41.0,-268.0,-19.0,60.0,357.0,59.0,0
44.0,-270.0,-19.0,50.0,360.0,58.0,0
44.0,-274.0,-25.0,37.0,365.0,56.0,0
43.0,-273.0,-29.0,26.0,370.0,51.0,0
47.0,-275.0,-31.0,10.0,383.0,42.0,0
44.0,-276.0,-37.0,-3.0,400.0,33.0,0
49.0,-278.0,-41.0,-13.0,420.0,22.0,0
46.0,-277.0,-43.0,-20.0,441.0,15.0,0
45.0,-278.0,-43.0,-20.0,462.0,5.0,0
47.0,-280.0,-40.0,-14.0,489.0,-1.0,0
44.0,-280.0,-34.0,-5.0,510.0,-7.0,0
37.0,-287.0,-31.0,1.0,526.0,-10.0,0
38.0,-282.0,-33.0,13.0,538.0,-9.0,0
34.0,-291.0,-30.0,25.0,543.0,-5.0,0
26.0,-287.0,-27.0,38.0,540.0,-1.0,0
27.0,-287.0,-24.0,58.0,535.0,6.0,0
21.0,-288.0,-29.0,80.0,525.0,13.0,0
22.0,-286.0,-32.0,104.0,513.0,27.0,0
17.0,-276.0,-34.0,125.0,504.0,43.0,0
14.0,-276.0,-28.0,148.0,485.0,58.0,0
10.0,-277.0,-31.0,163.0,466.0,75.0,0
6.0,-277.0,-26.0,173.0,442.0,90.0,0
1.0,-272.0,-31.0,184.0,416.0,108.0,0
1.0,-274.0,-27.0,198.0,387.0,124.0,0
-3.0,-271.0,-29.0,213.0,354.0,137.0,0
-2.0,-271.0,-25.0,225.0,323.0,150.0,0
-4.0,-268.0,-30.0,231.0,293.0,158.0,0
-8.0,-270.0,-35.0,235.0,265.0,167.0,0
-10.0,-267.0,-34.0,231.0,231.0,177.0,0
-8.0,-267.0,-32.0,222.0,192.0,180.0,0
-6.0,-269.0,-33.0,211.0,159.0,185.0,0
-8.0,-267.0,-35.0,203.0,133.0,186.0,0
-9.0,-264.0,-33.0,195.0,105.0,190.0,0
-7.0,-268.0,-32.0,191.0,80.0,191.0,0
-10.0,-262.0,-34.0,193.0,51.0,190.0,0
-11.0,-260.0,-35.0,194.0,25.0,188.0,0
-10.0,-258.0,-39.0,185.0,-3.0,183.0,0
-10.0,-260.0,-44.0,169.0,-28.0,176.0,0
-12.0,-261.0,-40.0,152.0,-49.0,168.0,0
-11.0,-261.0,-38.0,143.0,-69.0,159.0,0
-12.0,-259.0,-34.0,139.0,-83.0,150.0,0
-12.0,-262.0,-36.0,140.0,-96.0,141.0,0
-14.0,-261.0,-33.0,143.0,-106.0,132.0,0
-15.0,-266.0,-32.0,142.0,-111.0,124.0,0
-12.0,-269.0,-34.0,138.0,-111.0,114.0,0
-16.0,-269.0,-26.0,132.0,-109.0,104.0,0
-12.0,-272.0,-19.0,132.0,-110.0,95.0,0
-15.0,-276.0,-20.0,135.0,-110.0,90.0,0
-13.0,-277.0,-21.0,139.0,-109.0,87.0,0
-12.0,-278.0,-16.0,146.0,-104.0,84.0,0
-9.0,-280.0,-19.0,141.0,-96.0,86.0,0
-7.0,-284.0,-19.0,133.0,-89.0,89.0,0
-7.0,-287.0,-12.0,128.0,-75.0,92.0,0
-8.0,-287.0,-13.0,125.0,-62.0,96.0,0
-7.0,-286.0,-14.0,127.0,-48.0,102.0,0
-5.0,-286.0,-11.0,130.0,-36.0,107.0,0
-3.0,-283.0,-14.0,128.0,-28.0,115.0,0
-4.0,-284.0,-14.0,125.0,-19.0,125.0,0
-3.0,-285.0,-15.0,120.0,-12.0,135.0,0
2.0,-286.0,-15.0,117.0,-3.0,147.0,0
-1.0,-286.0,-19.0,106.0,7.0,157.0,0
1.0,-284.0,-13.0,102.0,17.0,164.0,0
-4.0,-283.0,-19.0,102.0,23.0,174.0,0
2.0,-282.0,-15.0,104.0,27.0,182.0,0
2.0,-278.0,-14.0,112.0,36.0,190.0,0
3.0,-279.0,-20.0,120.0,52.0,192.0,0
0.0,-272.0,-14.0,124.0,69.0,197.0,0
0.0,-271.0,-11.0,123.0,84.0,199.0,0
-1.0,-266.0,-9.0,119.0,95.0,202.0,0
-4.0,-264.0,-13.0,109.0,105.0,200.0,0
-4.0,-261.0,-10.0,86.0,115.0,203.0,0
-4.0,-258.0,-10.0,63.0,121.0,202.0,0
-6.0,-255.0,-13.0,35.0,125.0,202.0,0
-9.0,-256.0,-14.0,7.0,124.0,197.0,0
-10.0,-255.0,-6.0,-21.0,124.0,195.0,0
-11.0,-258.0,-13.0,-42.0,122.0,194.0,0
-12.0,-261.0,-5.0,-61.0,121.0,194.0,0
-12.0,-263.0,-5.0,-71.0,124.0,186.0,0
-12.0,-264.0,1.0,-75.0,126.0,175.0,0
-13.0,-266.0,0.0,-73.0,126.0,166.0,0
-15.0,-261.0,3.0,-67.0,125.0,162.0,0
-14.0,-262.0,3.0,-65.0,126.0,159.0,0
-12.0,-260.0,-1.0,-69.0,125.0,160.0,0
-15.0,-258.0,8.0,-81.0,122.0,157.0,0
-14.0,-255.0,6.0,-98.0,116.0,156.0,0
-14.0,-256.0,6.0,-117.0,110.0,155.0,0
-12.0,-255.0,1.0,-135.0,106.0,154.0,0
-13.0,-256.0,2.0,-152.0,102.0,157.0,0
-12.0,-254.0,-1.0,-172.0,101.0,154.0,0
-12.0,-257.0,1.0,-195.0,96.0,141.0,0
-9.0,-263.0,0.0,-224.0,97.0,139.0,0
-8.0,-267.0,0.0,-244.0,101.0,130.0,0
-5.0,-272.0,5.0,-254.0,107.0,123.0,0
-1.0,-273.0,5.0,-250.0,115.0,112.0,0
1.0,-274.0,4.0,-235.0,123.0,107.0,0
1.0,-276.0,13.0,-216.0,131.0,102.0,0
2.0,-275.0,10.0,-198.0,139.0,96.0,0
8.0,-276.0,10.0,-185.0,149.0,87.0,0
6.0,-273.0,9.0,-180.0,161.0,79.0,0
10.0,-276.0,7.0,-180.0,177.0,69.0,0
13.0,-277.0,8.0,-176.0,190.0,65.0,0
11.0,-278.0,9.0,-168.0,205.0,59.0,0
9.0,-280.0,12.0,-151.0,217.0,68.0,0
5.0,-279.0,15.0,-126.0,236.0,59.0,0
5.0,-276.0,16.0,-102.0,249.0,49.0,0
3.0,-277.0,9.0,-84.0,260.0,50.0,0
4.0,-276.0,5.0,-73.0,275.0,48.0,0
2.0,-276.0,4.0,-70.0,292.0,44.0,0
3.0,-276.0,8.0,-65.0,310.0,44.0,0
1.0,-278.0,12.0,-55.0,329.0,38.0,0
-1.0,-282.0,15.0,-26.0,342.0,38.0,0
-2.0,-280.0,11.0,6.0,349.0,38.0,0
-2.0,-279.0,14.0,40.0,355.0,54.0,0
-6.0,-284.0,10.0,72.0,365.0,41.0,0
-5.0,-279.0,13.0,101.0,371.0,31.0,0
-4.0,-275.0,13.0,125.0,373.0,26.0,0
-8.0,-274.0,15.0,144.0,376.0,23.0,0
-9.0,-269.0,19.0,159.0,377.0,13.0,0
-8.0,-267.0,16.0,169.0,374.0,8.0,0
-10.0,-262.0,10.0,168.0,370.0,0.0,0
-10.0,-261.0,11.0,159.0,365.0,-5.0,0
-10.0,-258.0,9.0,146.0,364.0,-12.0,0
-11.0,-256.0,11.0,133.0,364.0,-18.0,0
-11.0,-262.0,12.0,121.0,366.0,-28.0,0
-9.0,-258.0,11.0,115.0,368.0,-35.0,0
-10.0,-260.0,12.0,107.0,369.0,-50.0,0
-12.0,-261.0,14.0,101.0,372.0,-57.0,0
-11.0,-259.0,9.0,85.0,372.0,-69.0,0
-12.0,-260.0,8.0,65.0,371.0,-74.0,0
-9.0,-262.0,4.0,40.0,370.0,-82.0,0
-12.0,-266.0,5.0,13.0,369.0,-81.0,0
-7.0,-269.0,6.0,-7.0,367.0,-83.0,0
-7.0,-275.0,6.0,-22.0,365.0,-77.0,0
-9.0,-277.0,4.0,-33.0,364.0,-76.0,0
-11.0,-280.0,2.0,-46.0,366.0,-65.0,0
-9.0,-285.0,1.0,-57.0,365.0,-57.0,0
-12.0,-282.0,0.0,-64.0,361.0,-42.0,0
-10.0,-285.0,-3.0,-71.0,353.0,-27.0,0
-10.0,-285.0,-13.0,-76.0,341.0,-7.0,0
-12.0,-279.0,-14.0,-77.0,326.0,12.0,0
-10.0,-278.0,-14.0,-72.0,311.0,31.0,0
-6.0,-276.0,-19.0,-65.0,303.0,40.0,0
-8.0,-271.0,-15.0,-60.0,299.0,54.0,0
-6.0,-274.0,-16.0,-57.0,294.0,59.0,0
-9.0,-273.0,-20.0,-55.0,292.0,66.0,0
-6.0,-273.0,-15.0,-52.0,290.0,67.0,0
-9.0,-274.0,-15.0,-46.0,286.0,70.0,0
-2.0,-271.0,-15.0,-39.0,281.0,69.0,0
-1.0,-269.0,-17.0,-30.0,277.0,69.0,0
1.0,-269.0,-16.0,-15.0,277.0,63.0,0
1.0,-265.0,-15.0,5.0,278.0,62.0,0
1.0,-265.0,-21.0,18.0,278.0,54.0,0
2.0,-263.0,-19.0,23.0,277.0,50.0,0
0.0,-261.0,-16.0,18.0,272.0,42.0,0
2.0,-262.0,-17.0,9.0,266.0,37.0,0
-2.0,-262.0,-13.0,-1.0,262.0,28.0,0
1.0,-264.0,-16.0,-2.0,256.0,26.0,0
0.0,-267.0,-8.0,3.0,249.0,20.0,0
0.0,-266.0,-10.0,11.0,243.0,18.0,0
-3.0,-266.0,-7.0,25.0,243.0,8.0,0
-8.0,-267.0,-11.0,39.0,246.0,4.0,0
-6.0,-262.0,-4.0,47.0,244.0,-5.0,0
-5.0,-268.0,-9.0,55.0,240.0,-7.0,0
-7.0,-264.0,-4.0,56.0,235.0,-11.0,0
-9.0,-262.0,-1.0,55.0,229.0,-11.0,0
-6.0,-262.0,-1.0,53.0,220.0,-12.0,0
-7.0,-262.0,-1.0,51.0,210.0,-10.0,0
-4.0,-261.0,-3.0,46.0,199.0,-14.0,0
-5.0,-262.0,0.0,41.0,188.0,-11.0,0
-1.0,-263.0,-1.0,36.0,176.0,-16.0,0
1.0,-262.0,-4.0,29.0,163.0,-19.0,0
0.0,-260.0,-3.0,24.0,157.0,-26.0,0
7.0,-263.0,-4.0,13.0,149.0,-29.0,0
2.0,-263.0,0.0,-3.0,144.0,-35.0,0
3.0,-267.0,-3.0,-18.0,140.0,-39.0,0
2.0,-268.0,-3.0,-35.0,136.0,-45.0,0
5.0,-268.0,0.0,-46.0,133.0,-48.0,0
2.0,-268.0,0.0,-51.0,129.0,-54.0,0
2.0,-267.0,-4.0,-55.0,127.0,-54.0,0
2.0,-268.0,-10.0,-57.0,125.0,-59.0,0
2.0,-269.0,-10.0,-60.0,122.0,-58.0,0
2.0,-269.0,-5.0,-64.0,118.0,-58.0,0
-1.0,-268.0,-9.0,-69.0,113.0,-55.0,0
-4.0,-263.0,-10.0,-75.0,107.0,-55.0,0
-1.0,-267.0,-8.0,-79.0,99.0,-51.0,0
0.0,-268.0,-9.0,-81.0,90.0,-48.0,0
-2.0,-265.0,-7.0,-84.0,83.0,-41.0,0
-7.0,-267.0,0.0,-87.0,75.0,-39.0,0
-4.0,-265.0,-3.0,-90.0,65.0,-33.0,0
-4.0,-267.0,-6.0,-91.0,58.0,-33.0,0
-2.0,-268.0,-4.0,-90.0,54.0,-32.0,0
1.0,-268.0,-4.0,-92.0,55.0,-37.0,0
0.0,-270.0,-7.0,-98.0,56.0,-39.0,0
4.0,-268.0,-3.0,-105.0,57.0,-42.0,0
4.0,-271.0,-6.0,-112.0,57.0,-43.0,0
4.0,-271.0,-8.0,-121.0,54.0,-48.0,0
6.0,-270.0,-8.0,-125.0,51.0,-47.0,0
5.0,-270.0,-9.0,-125.0,49.0,-50.0,0
8.0,-274.0,-5.0,-123.0,48.0,-49.0,0
9.0,-270.0,-7.0,-117.0,45.0,-50.0,0
5.0,-275.0,-14.0,-115.0,41.0,-45.0,0
6.0,-274.0,-13.0,-113.0,39.0,-42.0,0
7.0,-272.0,-15.0,-111.0,36.0,-34.0,0
3.0,-271.0,-9.0,-107.0,36.0,-30.0,0
5.0,-275.0,-11.0,-104.0,34.0,-23.0,0
4.0,-275.0,-14.0,-102.0,33.0,-20.0,0
5.0,-275.0,-16.0,-102.0,29.0,-12.0,0
4.0,-276.0,-19.0,-101.0,27.0,-9.0,0
4.0,-274.0,-11.0,-99.0,29.0,-3.0,0
4.0,-275.0,-16.0,-97.0,29.0,-2.0,0
2.0,-276.0,-14.0,-91.0,29.0,2.0,0
2.0,-277.0,-17.0,-82.0,25.0,3.0,0
0.0,-277.0,-7.0,-74.0,21.0,7.0,0
1.0,-281.0,-14.0,-66.0,17.0,6.0,0
3.0,-279.0,-12.0,-56.0,15.0,9.0,0
2.0,-281.0,-13.0,-46.0,9.0,7.0,0
0.0,-281.0,-16.0,-35.0,5.0,9.0,0
0.0,-281.0,-19.0,-24.0,-1.0,7.0,0
3.0,-280.0,-18.0,-12.0,-2.0,6.0,0
3.0,-279.0,-15.0,3.0,-2.0,2.0,0
3.0,-275.0,-18.0,16.0,3.0,-1.0,0
3.0,-275.0,-17.0,32.0,11.0,-6.0,0
1.0,-269.0,-19.0,45.0,17.0,-8.0,0
5.0,-273.0,-20.0,54.0,22.0,-10.0,0
1.0,-268.0,-19.0,60.0,28.0,-10.0,0
1.0,-269.0,-20.0,61.0,29.0,-10.0,0
4.0,-272.0,-19.0,58.0,28.0,-8.0,0
3.0,-270.0,-15.0,53.0,28.0,-8.0,0
-1.0,-272.0,-14.0,51.0,24.0,-7.0,0
2.0,-272.0,-15.0,53.0,23.0,-8.0,0
-3.0,-268.0,-14.0,58.0,21.0,-5.0,0
2.0,-271.0,-9.0,62.0,17.0,-4.0,0
2.0,-270.0,-12.0,65.0,14.0,-4.0,0
3.0,-267.0,-4.0,66.0,11.0,-2.0,0
1.0,-266.0,-10.0,63.0,8.0,0.0,0
-1.0,-269.0,-7.0,58.0,6.0,1.0,0
0.0,-267.0,-10.0,51.0,4.0,4.0,0
-3.0,-267.0,-11.0,43.0,5.0,4.0,0
1.0,-269.0,-11.0,37.0,8.0,8.0,0
-2.0,-265.0,-4.0,30.0,9.0,7.0,0
-1.0,-271.0,-12.0,23.0,9.0,9.0,0
3.0,-270.0,-10.0,12.0,8.0,9.0,0
1.0,-271.0,-4.0,6.0,7.0,8.0,0
0.0,-273.0,-9.0,1.0,9.0,5.0,0
2.0,-271.0,-7.0,-5.0,9.0,3.0,0
2.0,-275.0,-11.0,-12.0,6.0,-3.0,0
2.0,-274.0,-12.0,-18.0,5.0,-9.0,0
2.0,-274.0,-13.0,-25.0,8.0,-13.0,0
3.0,-273.0,-10.0,-27.0,9.0,-16.0,0
2.0,-272.0,-13.0,-27.0,12.0,-21.0,0
2.0,-271.0,-12.0,-27.0,12.0,-24.0,0
3.0,-272.0,-16.0,-24.0,11.0,-24.0,0
5.0,-271.0,-15.0,-21.0,8.0,-26.0,0
2.0,-268.0,-17.0,-19.0,9.0,-27.0,0
4.0,-271.0,-18.0,-18.0,10.0,-28.0,0
1.0,-270.0,-13.0,-19.0,11.0,-28.0,0
1.0,-270.0,-12.0,-17.0,13.0,-29.0,0
2.0,-270.0,-10.0,-14.0,15.0,-31.0,0
2.0,-272.0,-15.0,-8.0,17.0,-33.0,0
3.0,-269.0,-14.0,-1.0,21.0,-34.0,0
6.0,-274.0,-10.0,8.0,25.0,-36.0,0
5.0,-270.0,-13.0,11.0,33.0,-36.0,0
7.0,-268.0,-10.0,13.0,40.0,-39.0,0
11.0,-268.0,-10.0,9.0,47.0,-40.0,0
9.0,-267.0,-12.0,1.0,53.0,-42.0,0
10.0,-267.0,-12.0,-7.0,59.0,-41.0,0
15.0,-268.0,-14.0,-13.0,64.0,-39.0,0
12.0,-269.0,-11.0,-14.0,69.0,-36.0,0
13.0,-264.0,-17.0,-15.0,70.0,-33.0,0
12.0,-266.0,-15.0,-17.0,74.0,-28.0,0
13.0,-264.0,-14.0,-18.0,80.0,-23.0,0
11.0,-263.0,-10.0,-18.0,91.0,-18.0,0
12.0,-266.0,-14.0,-15.0,98.0,-15.0,0
12.0,-264.0,-13.0,-11.0,103.0,-8.0,0
13.0,-265.0,-7.0,-9.0,107.0,-3.0,0
16.0,-262.0,-14.0,-9.0,113.0,2.0,0
15.0,-262.0,-15.0,-16.0,120.0,6.0,0
15.0,-263.0,-12.0,-19.0,132.0,9.0,0
17.0,-262.0,-11.0,-24.0,143.0,10.0,0
16.0,-266.0,-11.0,-26.0,155.0,13.0,0
18.0,-263.0,-7.0,-29.0,168.0,15.0,0
24.0,-266.0,-11.0,-34.0,182.0,17.0,0
23.0,-263.0,-7.0,-41.0,193.0,17.0,0
24.0,-264.0,-15.0,-53.0,200.0,19.0,0
24.0,-266.0,-7.0,-66.0,202.0,20.0,0
23.0,-263.0,-7.0,-82.0,203.0,24.0,0
17.0,-262.0,-11.0,-98.0,204.0,27.0,0
16.0,-268.0,-7.0,-112.0,204.0,30.0,0
17.0,-268.0,-17.0,-124.0,202.0,33.0,0
12.0,-270.0,-16.0,-133.0,200.0,40.0,0
11.0,-270.0,-15.0,-142.0,199.0,44.0,0
10.0,-271.0,-14.0,-146.0,199.0,50.0,0
4.0,-272.0,-15.0,-147.0,198.0,51.0,0
3.0,-275.0,-16.0,-147.0,198.0,54.0,0
2.0,-274.0,-15.0,-147.0,198.0,54.0,0
1.0,-279.0,-13.0,-147.0,199.0,54.0,0
2.0,-277.0,-16.0,-144.0,197.0,51.0,0
1.0,-281.0,-12.0,-138.0,193.0,50.0,0
0.0,-280.0,-15.0,-130.0,190.0,43.0,0
0.0,-278.0,-13.0,-122.0,184.0,37.0,0
1.0,-278.0,-10.0,-115.0,174.0,33.0,0
0.0,-277.0,-11.0,-113.0,162.0,28.0,0
7.0,-277.0,-14.0,-112.0,152.0,24.0,0
3.0,-277.0,-14.0,-116.0,143.0,22.0,0
6.0,-275.0,-16.0,-122.0,133.0,17.0,0
7.0,-276.0,-19.0,-126.0,126.0,16.0,0
8.0,-273.0,-18.0,-128.0,117.0,9.0,0
7.0,-276.0,-21.0,-122.0,108.0,5.0,0
6.0,-278.0,-17.0,-116.0,103.0,0.0,0
5.0,-279.0,-17.0,-110.0,97.0,-2.0,0
4.0,-281.0,-23.0,-105.0,90.0,-5.0,0
2.0,-286.0,-17.0,-104.0,80.0,-5.0,0
5.0,-286.0,-19.0,-104.0,76.0,-10.0,0
3.0,-288.0,-17.0,-97.0,75.0,-11.0,0
3.0,-288.0,-22.0,-82.0,75.0,-15.0,0
5.0,-289.0,-20.0,-62.0,75.0,-18.0,0
6.0,-286.0,-18.0,-37.0,78.0,-24.0,0
5.0,-282.0,-19.0,-10.0,83.0,-27.0,0
10.0,-280.0,-19.0,14.0,87.0,-35.0,0
5.0,-274.0,-18.0,33.0,93.0,-36.0,0
7.0,-272.0,-20.0,45.0,98.0,-43.0,0
7.0,-269.0,-15.0,52.0,105.0,-45.0,0
10.0,-269.0,-14.0,54.0,111.0,-49.0,0
9.0,-266.0,-12.0,56.0,116.0,-50.0,0
7.0,-265.0,-13.0,59.0,120.0,-54.0,0
3.0,-264.0,-13.0,62.0,122.0,-56.0,0
5.0,-258.0,-16.0,59.0,123.0,-61.0,0
4.0,-260.0,-21.0,47.0,129.0,-62.0,0
1.0,-257.0,-16.0,27.0,136.0,-66.0,0
4.0,-259.0,-17.0,-3.0,146.0,-68.0,0
7.0,-259.0,-18.0,-34.0,159.0,-73.0,0
2.0,-250.0,-16.0,-52.0,177.0,-74.0,0
7.0,-263.0,-20.0,-58.0,193.0,-79.0,0
10.0,-263.0,-26.0,-62.0,204.0,-82.0,0
9.0,-262.0,-23.0,-66.0,211.0,-88.0,0
13.0,-271.0,-27.0,-74.0,211.0,-87.0,0
14.0,-273.0,-31.0,-80.0,213.0,-89.0,0
23.0,-273.0,-32.0,-77.0,222.0,-86.0,0
23.0,-274.0,-32.0,-64.0,236.0,-89.0,0
26.0,-275.0,-30.0,-40.0,264.0,-86.0,0
24.0,-279.0,-29.0,-11.0,300.0,-88.0,0
26.0,-280.0,-23.0,17.0,344.0,-88.0,0
25.0,-283.0,-24.0,52.0,375.0,-90.0,0
30.0,-283.0,-17.0,78.0,406.0,-87.0,0
25.0,-278.0,-14.0,105.0,440.0,-88.0,0
28.0,-275.0,-10.0,128.0,475.0,-83.0,0
25.0,-271.0,-12.0,153.0,511.0,-83.0,0
18.0,-265.0,-10.0,169.0,544.0,-75.0,0
15.0,-264.0,-7.0,174.0,570.0,-71.0,0
8.0,-264.0,-6.0,170.0,590.0,-63.0,0
5.0,-263.0,-2.0,157.0,602.0,-58.0,0
-1.0,-262.0,4.0,141.0,608.0,-46.0,0
-4.0,-263.0,5.0,126.0,605.0,-45.0,0
-10.0,-266.0,6.0,115.0,599.0,-39.0,0
-12.0,-264.0,12.0,107.0,589.0,-39.0,0
-16.0,-265.0,12.0,96.0,571.0,-34.0,0
-17.0,-267.0,10.0,81.0,546.0,-31.0,0
-20.0,-270.0,14.0,66.0,519.0,-22.0,0
-24.0,-273.0,15.0,51.0,493.0,-17.0,0
-24.0,-279.0,24.0,40.0,465.0,-7.0,0
-26.0,-284.0,22.0,40.0,431.0,-2.0,0
-26.0,-284.0,25.0,51.0,383.0,5.0,0
-26.0,-289.0,31.0,72.0,345.0,5.0,0
-23.0,-286.0,30.0,91.0,304.0,7.0,0
-24.0,-285.0,29.0,109.0,267.0,1.0,0
-21.0,-283.0,25.0,119.0,233.0,0.0,0
-15.0,-278.0,26.0,125.0,207.0,-6.0,0
-12.0,-279.0,22.0,120.0,183.0,-8.0,0
-8.0,-279.0,27.0,114.0,162.0,-20.0,0
-11.0,-276.0,25.0,111.0,147.0,-28.0,0
-8.0,-276.0,20.0,113.0,130.0,-39.0,0
-5.0,-275.0,22.0,117.0,116.0,-46.0,0
1.0,-276.0,16.0,120.0,101.0,-57.0,0
3.0,-274.0,20.0,124.0,89.0,-65.0,0
6.0,-272.0,22.0,128.0,79.0,-75.0,0
11.0,-276.0,20.0,135.0,71.0,-77.0,0
8.0,-271.0,16.0,145.0,63.0,-86.0,0
11.0,-272.0,16.0,151.0,53.0,-87.0,0
13.0,-272.0,14.0,159.0,49.0,-95.0,0
13.0,-269.0,16.0,169.0,47.0,-96.0,0
17.0,-268.0,9.0,181.0,52.0,-103.0,0
17.0,-264.0,8.0,190.0,56.0,-106.0,0
17.0,-260.0,15.0,198.0,64.0,-113.0,0
19.0,-262.0,11.0,201.0,70.0,-114.0,0
23.0,-264.0,19.0,208.0,81.0,-119.0,0
21.0,-264.0,22.0,222.0,91.0,-119.0,0
22.0,-262.0,28.0,244.0,100.0,-122.0,0
21.0,-258.0,30.0,264.0,104.0,-118.0,0
21.0,-255.0,22.0,275.0,102.0,-117.0,0
24.0,-251.0,24.0,273.0,95.0,-112.0,0
25.0,-253.0,30.0,264.0,92.0,-113.0,0
21.0,-251.0,25.0,253.0,96.0,-107.0,0
16.0,-251.0,32.0,248.0,99.0,-103.0,0
14.0,-251.0,30.0,246.0,98.0,-93.0,0
9.0,-249.0,28.0,246.0,87.0,-82.0,0
10.0,-244.0,25.0,244.0,72.0,-66.0,0
5.0,-242.0,27.0,240.0,55.0,-53.0,0
0.0,-240.0,22.0,233.0,42.0,-35.0,0
2.0,-239.0,22.0,227.0,35.0,-21.0,0
0.0,-243.0,27.0,226.0,32.0,-2.0,0
-1.0,-245.0,24.0,233.0,23.0,13.0,0
3.0,-242.0,19.0,248.0,11.0,36.0,0
-1.0,-242.0,15.0,266.0,-5.0,49.0,0
1.0,-231.0,16.0,278.0,-10.0,63.0,0
1.0,-225.0,11.0,285.0,-6.0,72.0,0
1.0,-221.0,10.0,290.0,4.0,84.0,0
3.0,-220.0,10.0,293.0,18.0,95.0,0
1.0,-218.0,10.0,295.0,24.0,112.0,0
0.0,-216.0,14.0,299.0,26.0,125.0,0
4.0,-215.0,11.0,303.0,29.0,144.0,0
4.0,-213.0,6.0,309.0,30.0,156.0,0
10.0,-210.0,12.0,319.0,37.0,173.0,0
16.0,-208.0,18.0,339.0,51.0,178.0,0
16.0,-207.0,22.0,360.0,62.0,187.0,0
16.0,-207.0,25.0,383.0,73.0,193.0,0
9.0,-208.0,40.0,402.0,69.0,205.0,0
4.0,-209.0,49.0,409.0,50.0,214.0,0
0.0,-207.0,55.0,401.0,18.0,226.0,0
-6.0,-210.0,51.0,372.0,-21.0,235.0,0
-10.0,-211.0,56.0,327.0,-56.0,249.0,0
-10.0,-212.0,55.0,273.0,-83.0,257.0,0
-9.0,-216.0,52.0,220.0,-98.0,271.0,0
-9.0,-222.0,52.0,167.0,-93.0,286.0,0
-9.0,-225.0,45.0,136.0,-85.0,302.0,0
-7.0,-229.0,48.0,115.0,-73.0,314.0,0
-1.0,-240.0,52.0,101.0,-54.0,327.0,0
0.0,-246.0,60.0,93.0,-31.0,334.0,0
-2.0,-259.0,57.0,95.0,-6.0,338.0,0
4.0,-270.0,57.0,102.0,6.0,334.0,0
1.0,-274.0,54.0,114.0,0.0,332.0,0
4.0,-276.0,44.0,131.0,-19.0,323.0,0
5.0,-278.0,28.0,152.0,-34.0,313.0,0
7.0,-274.0,19.0,184.0,-35.0,294.0,0
8.0,-271.0,21.0,217.0,-20.0,277.0,0
0.0,-261.0,22.0,256.0,-1.0,259.0,0
0.0,-256.0,28.0,295.0,7.0,245.0,0
-3.0,-245.0,17.0,320.0,-5.0,229.0,0
-5.0,-235.0,10.0,318.0,-28.0,216.0,0
-2.0,-230.0,7.0,291.0,-44.0,200.0,0
-7.0,-230.0,18.0,261.0,-45.0,188.0,0
-9.0,-235.0,32.0,244.0,-34.0,175.0,0
-9.0,-243.0,50.0,248.0,-33.0,169.0,0
-11.0,-250.0,52.0,260.0,-66.0,167.0,0
-8.0,-252.0,51.0,264.0,-116.0,170.0,0
-6.0,-254.0,48.0,256.0,-159.0,172.0,0
-5.0,-253.0,47.0,249.0,-179.0,175.0,0
-6.0,-251.0,44.0,246.0,-180.0,176.0,0
-7.0,-251.0,48.0,249.0,-172.0,184.0,0
-1.0,-255.0,50.0,254.0,-169.0,194.0,0
4.0,-251.0,44.0,252.0,-174.0,208.0,0
4.0,-246.0,44.0,248.0,-181.0,216.0,0
10.0,-247.0,39.0,242.0,-180.0,222.0,0
10.0,-247.0,45.0,240.0,-165.0,222.0,0
12.0,-244.0,47.0,249.0,-148.0,219.0,0
16.0,-245.0,60.0,263.0,-132.0,214.0,0
18.0,-243.0,60.0,274.0,-122.0,212.0,0
18.0,-237.0,62.0,272.0,-116.0,209.0,0
19.0,-235.0,50.0,258.0,-109.0,202.0,0
17.0,-229.0,54.0,239.0,-93.0,191.0,0
16.0,-232.0,50.0,221.0,-74.0,181.0,0
13.0,-231.0,51.0,210.0,-59.0,173.0,0
7.0,-226.0,52.0,202.0,-53.0,173.0,0
12.0,-227.0,49.0,191.0,-52.0,172.0,0
14.0,-233.0,37.0,174.0,-57.0,171.0,0
13.0,-228.0,38.0,160.0,-61.0,169.0,0
16.0,-229.0,34.0,152.0,-66.0,171.0,0
12.0,-233.0,40.0,150.0,-75.0,173.0,0
10.0,-230.0,42.0,159.0,-84.0,174.0,0
12.0,-234.0,46.0,182.0,-95.0,177.0,0
14.0,-233.0,52.0,210.0,-109.0,183.0,0
17.0,-236.0,56.0,235.0,-121.0,183.0,0
21.0,-233.0,54.0,251.0,-123.0,182.0,0
17.0,-234.0,51.0,264.0,-111.0,168.0,0
19.0,-233.0,42.0,267.0,-95.0,152.0,0
16.0,-223.0,33.0,266.0,-80.0,138.0,0
15.0,-221.0,24.0,254.0,-66.0,122.0,0
17.0,-215.0,11.0,230.0,-53.0,95.0,0
22.0,-213.0,0.0,204.0,-33.0,75.0,0
19.0,-213.0,-5.0,194.0,-3.0,73.0,0
17.0,-211.0,5.0,188.0,44.0,55.0,0
19.0,-212.0,22.0,192.0,101.0,35.0,0
18.0,-217.0,32.0,204.0,156.0,21.0,0
17.0,-226.0,44.0,217.0,194.0,22.0,0
19.0,-236.0,64.0,223.0,206.0,31.0,0
29.0,-250.0,74.0,237.0,197.0,20.0,0
29.0,-251.0,69.0,237.0,168.0,-21.0,0
29.0,-251.0,53.0,207.0,144.0,-55.0,0
30.0,-258.0,32.0,142.0,145.0,-93.0,0
22.0,-265.0,28.0,60.0,160.0,-134.0,0
12.0,-272.0,41.0,-12.0,174.0,-165.0,0
4.0,-281.0,50.0,-45.0,177.0,-189.0,0
-8.0,-289.0,50.0,-52.0,161.0,-201.0,0
-11.0,-300.0,43.0,-55.0,114.0,-209.0,0
-12.0,-314.0,34.0,-81.0,57.0,-226.0,0
-12.0,-325.0,14.0,-136.0,-4.0,-251.0,0
-10.0,-343.0,-6.0,-211.0,-47.0,-284.0,0
-12.0,-359.0,-20.0,-268.0,-60.0,-316.0,0
-20.0,-370.0,-27.0,-270.0,-41.0,-341.0,0
-32.0,-369.0,-25.0,-211.0,-10.0,-352.0,0
-40.0,-362.0,-29.0,-120.0,16.0,-345.0,0
-53.0,-346.0,-33.0,-44.0,12.0,-326.0,0
-55.0,-332.0,-38.0,-12.0,-29.0,-296.0,0
-55.0,-329.0,-43.0,-30.0,-109.0,-267.0,0
-57.0,-327.0,-43.0,-70.0,-175.0,-249.0,0
-61.0,-327.0,-46.0,-108.0,-230.0,-241.0,0
-66.0,-332.0,-46.0,-127.0,-267.0,-238.0,0
-68.0,-335.0,-33.0,-116.0,-290.0,-237.0,0
-71.0,-336.0,-21.0,-74.0,-306.0,-244.0,0
-69.0,-336.0,-6.0,-22.0,-321.0,-244.0,0
-72.0,-332.0,5.0,32.0,-328.0,-236.0,0
-70.0,-329.0,12.0,67.0,-326.0,-235.0,0
-63.0,-326.0,22.0,73.0,-317.0,-225.0,0
-52.0,-324.0,30.0,50.0,-303.0,-213.0,0
-39.0,-334.0,46.0,27.0,-293.0,-210.0,0
-34.0,-338.0,57.0,10.0,-286.0,-202.0,0
-29.0,-341.0,68.0,-2.0,-284.0,-195.0,0
-29.0,-350.0,68.0,-15.0,-287.0,-196.0,0
-31.0,-355.0,66.0,-29.0,-292.0,-207.0,0
-27.0,-356.0,66.0,-39.0,-298.0,-213.0,0
-22.0,-358.0,65.0,-37.0,-300.0,-221.0,0
-24.0,-354.0,64.0,-9.0,-296.0,-215.0,0
-21.0,-343.0,68.0,42.0,-287.0,-199.0,0
-23.0,-333.0,67.0,105.0,-278.0,-168.0,0
-19.0,-319.0,69.0,143.0,-283.0,-131.0,0
-22.0,-304.0,65.0,156.0,-289.0,-101.0,0
-18.0,-292.0,63.0,144.0,-296.0,-56.0,0
-13.0,-282.0,56.0,114.0,-294.0,-23.0,0
-12.0,-279.0,62.0,79.0,-296.0,2.0,0
-5.0,-281.0,73.0,62.0,-289.0,40.0,0
-9.0,-286.0,75.0,65.0,-284.0,58.0,0
-7.0,-286.0,77.0,80.0,-288.0,72.0,0
2.0,-286.0,76.0,96.0,-300.0,93.0,0
-2.0,-289.0,71.0,95.0,-317.0,100.0,0
0.0,-284.0,66.0,76.0,-320.0,94.0,0
-6.0,-285.0,72.0,53.0,-321.0,93.0,0
-13.0,-279.0,69.0,43.0,-326.0,80.0,0
-13.0,-276.0,68.0,47.0,-349.0,93.0,0
-19.0,-271.0,67.0,58.0,-377.0,101.0,0
-22.0,-262.0,64.0,65.0,-406.0,118.0,0
-27.0,-255.0,56.0,58.0,-427.0,115.0,0
-29.0,-246.0,51.0,43.0,-445.0,118.0,0
-34.0,-240.0,47.0,23.0,-458.0,130.0,0
-41.0,-231.0,45.0,0.0,-472.0,134.0,0
-43.0,-230.0,40.0,-35.0,-487.0,141.0,0
-39.0,-231.0,37.0,-70.0,-501.0,163.0,0
-44.0,-231.0,38.0,-103.0,-503.0,164.0,0
-41.0,-230.0,35.0,-128.0,-497.0,164.0,0
-37.0,-226.0,31.0,-146.0,-483.0,160.0,0
-29.0,-228.0,32.0,-160.0,-470.0,170.0,0
-27.0,-224.0,23.0,-174.0,-457.0,172.0,0
-19.0,-218.0,28.0,-190.0,-444.0,162.0,0
-9.0,-219.0,25.0,-201.0,-436.0,157.0,0
-3.0,-219.0,28.0,-206.0,-425.0,163.0,0
3.0,-218.0,27.0,-206.0,-412.0,149.0,0
11.0,-216.0,27.0,-203.0,-394.0,137.0,0
15.0,-213.0,21.0,-197.0,-373.0,117.0,0
15.0,-212.0,19.0,-189.0,-351.0,99.0,0
21.0,-211.0,23.0,-173.0,-326.0,77.0,0
23.0,-213.0,28.0,-152.0,-301.0,63.0,0
17.0,-214.0,23.0,-125.0,-271.0,42.0,0
18.0,-219.0,32.0,-98.0,-237.0,14.0,0
18.0,-220.0,41.0,-63.0,-196.0,-19.0,0
13.0,-226.0,44.0,-23.0,-146.0,-51.0,0
17.0,-230.0,43.0,29.0,-106.0,-83.0,0
18.0,-240.0,50.0,70.0,-70.0,-114.0,0
14.0,-242.0,54.0,118.0,-42.0,-144.0,0
7.0,-233.0,55.0,174.0,-21.0,-162.0,0
5.0,-225.0,47.0,224.0,-8.0,-183.0,0
-1.0,-216.0,40.0,251.0,-7.0,-196.0,0
-1.0,-207.0,39.0,251.0,-14.0,-212.0,0
-4.0,-198.0,38.0,235.0,-16.0,-222.0,0
-3.0,-192.0,36.0,221.0,-12.0,-234.0,0
-7.0,-187.0,44.0,217.0,-5.0,-242.0,0
-9.0,-183.0,41.0,226.0,1.0,-252.0,0
-4.0,-176.0,45.0,235.0,8.0,-254.0,0
-10.0,-164.0,45.0,232.0,18.0,-258.0,0
-12.0,-162.0,45.0,221.0,25.0,-256.0,0
-12.0,-158.0,51.0,201.0,17.0,-256.0,0
-12.0,-156.0,56.0,174.0,-5.0,-251.0,0
-12.0,-160.0,52.0,140.0,-24.0,-252.0,0
-16.0,-165.0,50.0,87.0,-30.0,-255.0,0
-18.0,-179.0,56.0,22.0,-26.0,-267.0,0
-16.0,-196.0,56.0,-41.0,-19.0,-279.0,0
-22.0,-203.0,59.0,-94.0,-18.0,-291.0,0
-16.0,-219.0,61.0,-115.0,-31.0,-296.0,0
-15.0,-231.0,60.0,-116.0,-51.0,-303.0,0
-10.0,-243.0,67.0,-93.0,-66.0,-306.0,0
-8.0,-250.0,67.0,-48.0,-74.0,-312.0,0
-6.0,-256.0,67.0,4.0,-79.0,-311.0,0
-6.0,-255.0,67.0,48.0,-87.0,-313.0,0
-2.0,-256.0,62.0,75.0,-99.0,-306.0,0
0.0,-255.0,65.0,90.0,-108.0,-297.0,0
4.0,-257.0,72.0,101.0,-103.0,-280.0,0
-2.0,-252.0,71.0,114.0,-90.0,-272.0,0
-8.0,-251.0,67.0,118.0,-83.0,-260.0,0
-10.0,-248.0,59.0,112.0,-91.0,-251.0,0
-10.0,-242.0,59.0,96.0,-112.0,-237.0,0
-9.0,-240.0,56.0,85.0,-134.0,-225.0,0
-8.0,-239.0,58.0,83.0,-148.0,-211.0,0
-8.0,-243.0,61.0,85.0,-153.0,-204.0,0
-9.0,-240.0,63.0,81.0,-155.0,-194.0,0
-8.0,-241.0,65.0,76.0,-158.0,-189.0,0
-5.0,-241.0,66.0,74.0,-165.0,-174.0,0
0.0,-242.0,67.0,83.0,-177.0,-160.0,0
3.0,-243.0,62.0,90.0,-192.0,-135.0,0
6.0,-247.0,55.0,94.0,-204.0,-113.0,0
14.0,-251.0,59.0,93.0,-204.0,-88.0,0
14.0,-252.0,63.0,93.0,-196.0,-71.0,0
16.0,-258.0,67.0,104.0,-183.0,-51.0,0
12.0,-258.0,68.0,121.0,-164.0,-38.0,0
9.0,-250.0,64.0,137.0,-142.0,-19.0,0
7.0,-248.0,60.0,148.0,-114.0,-6.0,0
6.0,-242.0,56.0,147.0,-87.0,16.0,0
8.0,-238.0,51.0,138.0,-54.0,33.0,0
5.0,-236.0,50.0,134.0,-30.0,52.0,0
5.0,-235.0,50.0,133.0,-9.0,63.0,0
1.0,-229.0,53.0,134.0,8.0,77.0,0
2.0,-226.0,50.0,138.0,21.0,88.0,0
-5.0,-225.0,49.0,143.0,27.0,105.0,0
-9.0,-228.0,57.0,139.0,34.0,127.0,0
-12.0,-231.0,55.0,130.0,43.0,152.0,0
-12.0,-235.0,57.0,100.0,45.0,184.0,0
-4.0,-241.0,57.0,67.0,22.0,236.0,0
3.0,-247.0,56.0,43.0,0.0,284.0,0
8.0,-254.0,45.0,31.0,18.0,326.0,0
12.0,-259.0,39.0,13.0,70.0,350.0,0
11.0,-261.0,32.0,-23.0,136.0,370.0,0
14.0,-270.0,20.0,-88.0,208.0,383.0,0
17.0,-280.0,8.0,-173.0,277.0,399.0,0
22.0,-299.0,0.0,-266.0,348.0,422.0,0
21.0,-311.0,-7.0,-355.0,423.0,456.0,0
27.0,-333.0,-21.0,-428.0,507.0,492.0,0
34.0,-349.0,-27.0,-479.0,590.0,536.0,0
41.0,-365.0,-39.0,-510.0,671.0,599.0,0
48.0,-377.0,-44.0,-530.0,723.0,668.0,0
59.0,-390.0,-59.0,-525.0,768.0,734.0,0
69.0,-392.0,-61.0,-493.0,806.0,786.0,0
78.0,-391.0,-52.0,-437.0,826.0,811.0,0
80.0,-390.0,-45.0,-355.0,826.0,817.0,0
80.0,-394.0,-35.0,-269.0,813.0,801.0,0
82.0,-396.0,-15.0,-188.0,791.0,775.0,0
79.0,-400.0,1.0,-126.0,755.0,731.0,0
77.0,-403.0,18.0,-71.0,709.0,673.0,0
75.0,-399.0,33.0,-14.0,657.0,585.0,0
70.0,-389.0,35.0,75.0,629.0,503.0,0
62.0,-377.0,46.0,166.0,624.0,409.0,0
52.0,-360.0,53.0,257.0,636.0,314.0,0
41.0,-341.0,55.0,314.0,655.0,227.0,0
25.0,-327.0,53.0,312.0,671.0,159.0,0
18.0,-320.0,49.0,241.0,678.0,108.0,0
6.0,-321.0,51.0,120.0,681.0,78.0,0
-5.0,-331.0,39.0,-9.0,691.0,56.0,0
-24.0,-341.0,37.0,-130.0,716.0,40.0,0
-41.0,-348.0,42.0,-221.0,744.0,17.0,0
-59.0,-355.0,45.0,-255.0,755.0,-4.0,0
-67.0,-362.0,54.0,-227.0,737.0,-26.0,0
-64.0,-369.0,63.0,-161.0,706.0,-50.0,0
-61.0,-370.0,69.0,-73.0,676.0,-84.0,0
-54.0,-367.0,87.0,22.0,654.0,-127.0,0
-44.0,-360.0,82.0,114.0,624.0,-173.0,0
-42.0,-345.0,72.0,176.0,586.0,-226.0,0
-26.0,-332.0,66.0,199.0,547.0,-288.0,0
-10.0,-314.0,63.0,193.0,520.0,-350.0,0
5.0,-292.0,56.0,172.0,510.0,-411.0,0
15.0,-275.0,54.0,138.0,510.0,-448.0,0
22.0,-261.0,46.0,89.0,511.0,-483.0,0
25.0,-252.0,40.0,16.0,508.0,-501.0,0
27.0,-237.0,43.0,-82.0,497.0,-523.0,0
35.0,-243.0,43.0,-176.0,477.0,-496.0,0
32.0,-257.0,42.0,-259.0,460.0,-489.0,0
35.0,-256.0,48.0,-324.0,444.0,-497.0,0
42.0,-264.0,41.0,-364.0,429.0,-466.0,0
37.0,-270.0,36.0,-382.0,432.0,-456.0,0
29.0,-267.0,37.0,-385.0,449.0,-477.0,0
27.0,-268.0,27.0,-378.0,461.0,-452.0,0
15.0,-266.0,22.0,-367.0,483.0,-456.0,0
6.0,-262.0,29.0,-356.0,505.0,-471.0,0
-3.0,-254.0,32.0,-333.0,506.0,-449.0,0
-12.0,-249.0,27.0,-309.0,496.0,-432.0,0
-17.0,-233.0,37.0,-293.0,476.0,-444.0,0
-16.0,-223.0,34.0,-289.0,430.0,-417.0,0
-21.0,-220.0,27.0,-301.0,383.0,-387.0,0
-22.0,-214.0,32.0,-346.0,353.0,-386.0,0
-16.0,-217.0,29.0,-408.0,318.0,-348.0,0
-13.0,-218.0,29.0,-456.0,284.0,-321.0,0
-11.0,-219.0,27.0,-476.0,262.0,-319.0,0
3.0,-221.0,21.0,-483.0,238.0,-278.0,0
1.0,-233.0,26.0,-488.0,225.0,-249.0,0
17.0,-228.0,17.0,-497.0,229.0,-241.0,0
23.0,-235.0,17.0,-494.0,228.0,-220.0,0
31.0,-243.0,24.0,-468.0,221.0,-192.0,0
37.0,-243.0,24.0,-428.0,218.0,-179.0,0
37.0,-244.0,28.0,-374.0,208.0,-167.0,0
41.0,-243.0,36.0,-310.0,190.0,-152.0,0
34.0,-239.0,39.0,-244.0,161.0,-131.0,0
29.0,-234.0,37.0,-174.0,138.0,-114.0,0
24.0,-229.0,35.0,-126.0,121.0,-96.0,0
19.0,-225.0,38.0,-90.0,116.0,-76.0,0
17.0,-225.0,40.0,-66.0,120.0,-52.0,0
13.0,-223.0,47.0,-46.0,130.0,-25.0,0
8.0,-224.0,52.0,-29.0,135.0,4.0,0
3.0,-223.0,48.0,-12.0,135.0,33.0,0
2.0,-215.0,47.0,1.0,145.0,61.0,0
0.0,-214.0,42.0,10.0,166.0,84.0,0
2.0,-208.0,35.0,13.0,206.0,108.0,0
6.0,-202.0,32.0,8.0,239.0,127.0,0
5.0,-194.0,29.0,-3.0,272.0,140.0,0
15.0,-191.0,26.0,-15.0,305.0,148.0,0
19.0,-193.0,26.0,-29.0,334.0,153.0,0
25.0,-197.0,27.0,-47.0,355.0,158.0,0
29.0,-201.0,31.0,-61.0,365.0,167.0,0
32.0,-210.0,40.0,-61.0,364.0,178.0,0
36.0,-212.0,45.0,-43.0,353.0,195.0,0
31.0,-212.0,45.0,-11.0,332.0,210.0,0
34.0,-212.0,36.0,18.0,306.0,226.0,0
30.0,-210.0,37.0,33.0,289.0,233.0,0
26.0,-206.0,31.0,21.0,278.0,231.0,0
18.0,-205.0,35.0,-3.0,276.0,226.0,0
11.0,-202.0,31.0,-33.0,277.0,216.0,0
8.0,-205.0,35.0,-63.0,285.0,205.0,0
4.0,-207.0,39.0,-89.0,296.0,196.0,0
5.0,-214.0,37.0,-116.0,315.0,192.0,0
0.0,-214.0,38.0,-148.0,331.0,188.0,0
-1.0,-223.0,36.0,-181.0,343.0,186.0,0
-3.0,-232.0,39.0,-221.0,351.0,181.0,0
-3.0,-235.0,42.0,-248.0,348.0,178.0,0
-7.0,-241.0,42.0,-261.0,345.0,176.0,0
-5.0,-244.0,43.0,-257.0,340.0,180.0,0
-6.0,-248.0,41.0,-237.0,332.0,183.0,0
-4.0,-250.0,41.0,-203.0,317.0,189.0,0
-1.0,-248.0,39.0,-167.0,299.0,191.0,0
1.0,-248.0,29.0,-134.0,281.0,192.0,0
-4.0,-245.0,19.0,-114.0,274.0,187.0,0
-2.0,-248.0,12.0,-109.0,275.0,176.0,0
-7.0,-248.0,10.0,-116.0,277.0,159.0,0
-10.0,-251.0,18.0,-122.0,278.0,147.0,0
-12.0,-256.0,16.0,-117.0,262.0,137.0,0
-13.0,-260.0,15.0,-100.0,229.0,132.0,0
-13.0,-261.0,21.0,-66.0,193.0,121.0,0
-17.0,-258.0,22.0,-15.0,162.0,107.0,0
-20.0,-258.0,30.0,46.0,141.0,94.0,0
-23.0,-258.0,38.0,111.0,111.0,88.0,0
-23.0,-253.0,44.0,174.0,73.0,87.0,0
-20.0,-248.0,43.0,224.0,25.0,92.0,0
-18.0,-241.0,43.0,262.0,-29.0,95.0,0
-19.0,-233.0,40.0,284.0,-59.0,95.0,0
-22.0,-227.0,40.0,300.0,-77.0,88.0,0
-23.0,-218.0,37.0,310.0,-95.0,83.0,0
-21.0,-216.0,27.0,310.0,-116.0,71.0,0
-13.0,-212.0,23.0,304.0,-137.0,61.0,0
-12.0,-211.0,29.0,302.0,-149.0,49.0,0
-9.0,-209.0,28.0,312.0,-154.0,38.0,0
-8.0,-205.0,27.0,340.0,-148.0,21.0,0
-9.0,-201.0,34.0,375.0,-143.0,8.0,0
-8.0,-194.0,39.0,416.0,-146.0,-6.0,0
-2.0,-192.0,45.0,442.0,-155.0,-10.0,0
-5.0,-183.0,46.0,460.0,-166.0,-15.0,0
-4.0,-175.0,50.0,472.0,-178.0,-13.0,0
-6.0,-172.0,48.0,469.0,-187.0,-13.0,0
-1.0,-179.0,61.0,434.0,-199.0,-12.0,0
3.0,-178.0,65.0,389.0,-228.0,-20.0,0
11.0,-186.0,50.0,329.0,-261.0,-37.0,0
14.0,-197.0,48.0,238.0,-266.0,-64.0,0
11.0,-209.0,42.0,141.0,-252.0,-94.0,0
4.0,-224.0,45.0,28.0,-256.0,-137.0,0
-1.0,-244.0,45.0,-57.0,-287.0,-166.0,0
3.0,-265.0,48.0,-131.0,-321.0,-195.0,0
4.0,-282.0,42.0,-185.0,-345.0,-217.0,0
5.0,-302.0,38.0,-242.0,-351.0,-246.0,0
6.0,-323.0,31.0,-319.0,-346.0,-284.0,0
12.0,-347.0,20.0,-414.0,-337.0,-339.0,0
19.0,-368.0,11.0,-503.0,-332.0,-399.0,0
24.0,-387.0,-2.0,-566.0,-329.0,-457.0,0
27.0,-399.0,-24.0,-605.0,-322.0,-504.0,0
28.0,-408.0,-51.0,-632.0,-288.0,-554.0,0
23.0,-409.0,-71.0,-658.0,-233.0,-582.0,0
19.0,-417.0,-80.0,-663.0,-149.0,-595.0,0
16.0,-410.0,-85.0,-639.0,-57.0,-574.0,0
10.0,-413.0,-82.0,-578.0,26.0,-524.0,0
4.0,-407.0,-68.0,-467.0,92.0,-448.0,0
-7.0,-391.0,-50.0,-309.0,136.0,-371.0,0
-10.0,-369.0,-33.0,-131.0,144.0,-299.0,0
-9.0,-350.0,-25.0,12.0,111.0,-244.0,0
-2.0,-339.0,-17.0,87.0,56.0,-204.0,0
-1.0,-335.0,-6.0,100.0,-4.0,-179.0,0
-3.0,-333.0,-8.0,52.0,-51.0,-168.0,0
-4.0,-335.0,-9.0,-13.0,-88.0,-168.0,0
-5.0,-338.0,-12.0,-79.0,-119.0,-172.0,0
-4.0,-348.0,-12.0,-134.0,-143.0,-184.0,0
-7.0,-355.0,-3.0,-170.0,-164.0,-190.0,0
-8.0,-361.0,0.0,-181.0,-182.0,-202.0,0
-5.0,-368.0,6.0,-167.0,-205.0,-208.0,0
-8.0,-369.0,8.0,-137.0,-233.0,-208.0,0
-11.0,-368.0,18.0,-96.0,-261.0,-201.0,0
-12.0,-369.0,24.0,-56.0,-290.0,-191.0,0
-15.0,-368.0,32.0,-11.0,-304.0,-171.0,0
-21.0,-363.0,40.0,31.0,-312.0,-155.0,0
-28.0,-351.0,41.0,81.0,-310.0,-129.0,0
-30.0,-340.0,40.0,140.0,-305.0,-99.0,0
-35.0,-327.0,49.0,202.0,-291.0,-52.0,0
-38.0,-309.0,49.0,270.0,-273.0,-3.0,0
-38.0,-292.0,56.0,345.0,-254.0,61.0,0
-33.0,-275.0,55.0,414.0,-236.0,121.0,0
-31.0,-258.0,55.0,455.0,-226.0,178.0,0
-22.0,-246.0,48.0,443.0,-228.0,231.0,0
-12.0,-238.0,40.0,353.0,-241.0,265.0,0
-4.0,-238.0,32.0,219.0,-260.0,271.0,0
1.0,-244.0,24.0,47.0,-272.0,258.0,0
4.0,-260.0,21.0,-130.0,-272.0,230.0,0
6.0,-276.0,22.0,-283.0,-264.0,195.0,0
8.0,-288.0,22.0,-396.0,-259.0,154.0,0
17.0,-304.0,28.0,-452.0,-256.0,127.0,0
23.0,-308.0,38.0,-442.0,-253.0,107.0,0
22.0,-306.0,48.0,-378.0,-249.0,103.0,0
21.0,-304.0,52.0,-279.0,-233.0,105.0,0
18.0,-293.0,54.0,-141.0,-221.0,112.0,0
18.0,-278.0,52.0,-36.0,-222.0,116.0,0
11.0,-258.0,42.0,39.0,-230.0,128.0,0
12.0,-246.0,38.0,77.0,-241.0,136.0,0
5.0,-227.0,24.0,83.0,-248.0,144.0,0
7.0,-212.0,20.0,66.0,-249.0,146.0,0
3.0,-203.0,10.0,40.0,-257.0,168.0,0
-4.0,-198.0,6.0,-3.0,-258.0,163.0,0
-8.0,-185.0,5.0,-56.0,-269.0,157.0,0
-11.0,-185.0,5.0,-102.0,-284.0,167.0,0
-12.0,-193.0,2.0,-148.0,-304.0,171.0,0
-14.0,-197.0,8.0,-175.0,-318.0,149.0,0
-12.0,-205.0,12.0,-184.0,-330.0,142.0,0
-12.0,-212.0,24.0,-178.0,-344.0,133.0,0
-16.0,-218.0,23.0,-165.0,-357.0,118.0,0
-14.0,-224.0,35.0,-143.0,-374.0,104.0,0
-12.0,-232.0,31.0,-108.0,-390.0,102.0,0
-11.0,-239.0,45.0,-62.0,-396.0,95.0,0
-10.0,-246.0,43.0,-10.0,-387.0,86.0,0
-7.0,-248.0,46.0,48.0,-365.0,61.0,0
-2.0,-249.0,48.0,119.0,-335.0,42.0,0
3.0,-247.0,50.0,175.0,-309.0,16.0,0
9.0,-245.0,54.0,231.0,-280.0,-7.0,0
10.0,-240.0,53.0,280.0,-253.0,-39.0,0
11.0,-232.0,55.0,317.0,-227.0,-71.0,0
9.0,-221.0,55.0,343.0,-211.0,-108.0,0
4.0,-213.0,55.0,353.0,-211.0,-138.0,0
0.0,-209.0,54.0,343.0,-226.0,-170.0,0
-2.0,-210.0,54.0,314.0,-258.0,-193.0,0
-6.0,-207.0,56.0,276.0,-291.0,-220.0,0
-4.0,-212.0,61.0,245.0,-327.0,-235.0,0
-8.0,-209.0,60.0,242.0,-353.0,-249.0,0
-9.0,-206.0,61.0,264.0,-380.0,-255.0,0
-11.0,-203.0,56.0,298.0,-405.0,-259.0,0
-11.0,-199.0,51.0,336.0,-427.0,-254.0,0
-16.0,-198.0,53.0,369.0,-439.0,-255.0,0
-18.0,-193.0,52.0,389.0,-438.0,-252.0,0
-24.0,-194.0,54.0,399.0,-420.0,-255.0,0
-23.0,-196.0,57.0,393.0,-399.0,-251.0,0
-24.0,-195.0,59.0,369.0,-380.0,-243.0,0
-24.0,-199.0,60.0,317.0,-361.0,-229.0,0
-17.0,-207.0,60.0,272.0,-350.0,-215.0,0
-12.0,-217.0,58.0,234.0,-340.0,-199.0,0
-4.0,-227.0,57.0,215.0,-329.0,-185.0,0
8.0,-243.0,55.0,215.0,-322.0,-167.0,0
12.0,-248.0,49.0,233.0,-318.0,-152.0,0
18.0,-256.0,45.0,257.0,-318.0,-137.0,0
21.0,-252.0,39.0,281.0,-316.0,-127.0,0
23.0,-252.0,34.0,303.0,-308.0,-112.0,0
20.0,-251.0,33.0,312.0,-298.0,-95.0,0
23.0,-250.0,34.0,309.0,-286.0,-79.0,0
22.0,-250.0,25.0,297.0,-267.0,-67.0,0
22.0,-252.0,35.0,287.0,-245.0,-52.0,0
18.0,-249.0,32.0,290.0,-217.0,-38.0,0
16.0,-248.0,36.0,305.0,-183.0,-18.0,0
10.0,-244.0,33.0,327.0,-149.0,-2.0,0
1.0,-240.0,37.0,348.0,-119.0,18.0,0
-5.0,-237.0,36.0,363.0,-93.0,31.0,0
-12.0,-231.0,35.0,373.0,-76.0,49.0,0
-18.0,-227.0,33.0,376.0,-63.0,66.0,0
-20.0,-221.0,43.0,370.0,-52.0,81.0,0
-15.0,-219.0,40.0,357.0,-47.0,95.0,0
-21.0,-218.0,46.0,342.0,-42.0,112.0,0
-27.0,-226.0,53.0,317.0,-31.0,124.0,0
-35.0,-235.0,55.0,288.0,-12.0,141.0,0
-33.0,-244.0,50.0,240.0,0.0,164.0,0
-16.0,-251.0,37.0,173.0,-20.0,197.0,0
-7.0,-259.0,23.0,103.0,-37.0,239.0,0
7.0,-272.0,25.0,52.0,-23.0,283.0,0
19.0,-282.0,39.0,45.0,20.0,329.0,0
29.0,-287.0,40.0,93.0,73.0,361.0,0
26.0,-279.0,31.0,142.0,104.0,386.0,0
27.0,-276.0,20.0,160.0,127.0,409.0,0
22.0,-277.0,9.0,145.0,154.0,420.0,0
13.0,-277.0,7.0,106.0,191.0,429.0,0
9.0,-281.0,1.0,46.0,223.0,436.0,0
5.0,-295.0,1.0,-28.0,233.0,449.0,0
10.0,-310.0,-1.0,-101.0,228.0,472.0,0
17.0,-327.0,3.0,-149.0,227.0,506.0,0
25.0,-338.0,3.0,-161.0,243.0,544.0,0
29.0,-345.0,0.0,-137.0,290.0,576.0,0
22.0,-341.0,1.0,-95.0,336.0,597.0,0
18.0,-346.0,2.0,-56.0,372.0,610.0,0
24.0,-343.0,-2.0,-45.0,383.0,617.0,0
28.0,-349.0,-8.0,-79.0,363.0,621.0,0
37.0,-355.0,-11.0,-145.0,333.0,620.0,0
50.0,-371.0,-6.0,-211.0,328.0,613.0,0
57.0,-388.0,6.0,-220.0,357.0,585.0,0
66.0,-388.0,16.0,-161.0,402.0,547.0,0
75.0,-386.0,19.0,-69.0,439.0,498.0,0
75.0,-372.0,13.0,25.0,467.0,462.0,0
86.0,-368.0,13.0,69.0,500.0,433.0,0
82.0,-360.0,19.0,87.0,555.0,407.0,0
75.0,-358.0,31.0,97.0,630.0,386.0,0
62.0,-358.0,42.0,103.0,702.0,369.0,0
49.0,-356.0,45.0,101.0,754.0,361.0,0
34.0,-360.0,49.0,88.0,784.0,360.0,0
31.0,-366.0,49.0,72.0,806.0,358.0,0
25.0,-373.0,56.0,65.0,822.0,352.0,0
14.0,-377.0,56.0,68.0,835.0,333.0,0
7.0,-378.0,62.0,101.0,844.0,307.0,0
-3.0,-374.0,64.0,148.0,842.0,271.0,0
-9.0,-368.0,67.0,198.0,834.0,227.0,0
-14.0,-349.0,58.0,235.0,818.0,174.0,0
-21.0,-333.0,49.0,244.0,798.0,114.0,0
-21.0,-314.0,43.0,222.0,771.0,54.0,0
-27.0,-297.0,50.0,180.0,736.0,-5.0,0
-32.0,-289.0,53.0,125.0,695.0,-63.0,0
-38.0,-283.0,57.0,68.0,636.0,-113.0,0
-40.0,-281.0,55.0,6.0,565.0,-170.0,0
-45.0,-276.0,45.0,-78.0,465.0,-219.0,0
-46.0,-276.0,34.0,-156.0,382.0,-266.0,0
-45.0,-276.0,34.0,-221.0,308.0,-308.0,0
-41.0,-280.0,38.0,-255.0,250.0,-339.0,0
-45.0,-282.0,37.0,-259.0,200.0,-367.0,0
-47.0,-288.0,34.0,-243.0,156.0,-389.0,0
-44.0,-283.0,41.0,-226.0,108.0,-415.0,0
-39.0,-283.0,39.0,-211.0,58.0,-406.0,0
-31.0,-279.0,38.0,-211.0,13.0,-403.0,0
-20.0,-278.0,32.0,-227.0,-24.0,-383.0,0
-8.0,-279.0,31.0,-250.0,-46.0,-371.0,0
-4.0,-280.0,30.0,-266.0,-55.0,-357.0,0
9.0,-275.0,20.0,-271.0,-53.0,-338.0,0
13.0,-272.0,21.0,-266.0,-43.0,-341.0,0
24.0,-268.0,20.0,-249.0,-32.0,-324.0,0
31.0,-260.0,12.0,-230.0,-16.0,-321.0,0
33.0,-250.0,19.0,-219.0,6.0,-316.0,0
36.0,-244.0,16.0,-218.0,26.0,-309.0,0
38.0,-239.0,20.0,-217.0,47.0,-303.0,0
35.0,-226.0,17.0,-216.0,63.0,-309.0,0
37.0,-215.0,14.0,-219.0,67.0,-305.0,0
39.0,-214.0,14.0,-227.0,62.0,-291.0,0
35.0,-212.0,15.0,-252.0,65.0,-292.0,0
37.0,-206.0,19.0,-286.0,67.0,-295.0,0
39.0,-209.0,18.0,-317.0,66.0,-280.0,0
40.0,-211.0,25.0,-335.0,63.0,-266.0,0
39.0,-214.0,31.0,-343.0,61.0,-264.0,0
34.0,-214.0,33.0,-337.0,59.0,-266.0,0
39.0,-218.0,35.0,-320.0,50.0,-248.0,0
35.0,-220.0,39.0,-295.0,38.0,-229.0,0
32.0,-222.0,38.0,-259.0,32.0,-223.0,0
30.0,-224.0,47.0,-226.0,27.0,-208.0,0
23.0,-226.0,48.0,-189.0,26.0,-190.0,0
19.0,-227.0,49.0,-156.0,28.0,-157.0,0
13.0,-231.0,42.0,-128.0,36.0,-119.0,0
11.0,-239.0,48.0,-112.0,52.0,-70.0,0
10.0,-236.0,43.0,-103.0,70.0,-17.0,0
13.0,-240.0,46.0,-92.0,89.0,44.0,0
10.0,-240.0,46.0,-75.0,111.0,103.0,0
12.0,-240.0,48.0,-49.0,135.0,166.0,0
18.0,-234.0,51.0,-1.0,160.0,209.0,0
19.0,-231.0,59.0,49.0,179.0,246.0,0
16.0,-223.0,65.0,100.0,187.0,272.0,0
20.0,-217.0,64.0,147.0,182.0,296.0,0
22.0,-215.0,62.0,179.0,170.0,311.0,0
25.0,-210.0,60.0,191.0,165.0,322.0,0
19.0,-203.0,52.0,177.0,165.0,322.0,0
23.0,-198.0,47.0,143.0,173.0,316.0,0
24.0,-189.0,39.0,92.0,180.0,306.0,0
27.0,-182.0,25.0,29.0,182.0,297.0,0
30.0,-177.0,15.0,-52.0,184.0,285.0,0
33.0,-183.0,13.0,-116.0,188.0,280.0,0
29.0,-183.0,7.0,-173.0,195.0,266.0,0
21.0,-192.0,18.0,-217.0,206.0,250.0,0
12.0,-207.0,22.0,-241.0,219.0,229.0,0
-1.0,-212.0,33.0,-241.0,228.0,212.0,0
-9.0,-226.0,41.0,-217.0,224.0,200.0,0
-11.0,-234.0,52.0,-179.0,210.0,198.0,0
-16.0,-242.0,59.0,-139.0,193.0,203.0,0
-12.0,-251.0,59.0,-106.0,176.0,215.0,0
-8.0,-262.0,63.0,-79.0,176.0,222.0,0
-9.0,-265.0,59.0,-58.0,181.0,237.0,0
-8.0,-263.0,61.0,-41.0,192.0,249.0,0
-2.0,-264.0,51.0,-25.0,202.0,265.0,0
-1.0,-255.0,46.0,-10.0,213.0,272.0,0
1.0,-250.0,44.0,4.0,222.0,278.0,0
7.0,-244.0,43.0,15.0,233.0,276.0,0
8.0,-239.0,42.0,20.0,248.0,270.0,0
12.0,-239.0,44.0,17.0,258.0,257.0,0
14.0,-239.0,43.0,9.0,258.0,244.0,0
22.0,-237.0,41.0,-2.0,250.0,224.0,0
20.0,-236.0,31.0,-5.0,245.0,203.0,0
17.0,-230.0,26.0,-3.0,249.0,172.0,0
11.0,-229.0,21.0,5.0,259.0,143.0,0
6.0,-233.0,24.0,10.0,266.0,110.0,0
-1.0,-236.0,27.0,12.0,258.0,84.0,0
-4.0,-241.0,35.0,6.0,239.0,58.0,0
-11.0,-245.0,35.0,-1.0,219.0,40.0,0
-12.0,-252.0,41.0,2.0,207.0,22.0,0
-14.0,-258.0,53.0,28.0,201.0,17.0,0
-16.0,-253.0,59.0,91.0,192.0,17.0,0
-15.0,-249.0,62.0,153.0,173.0,26.0,0
-13.0,-240.0,62.0,209.0,147.0,39.0,0
-13.0,-232.0,58.0,242.0,113.0,55.0,0
-12.0,-224.0,53.0,254.0,90.0,64.0,0
-11.0,-221.0,58.0,256.0,83.0,71.0,0
-10.0,-217.0,57.0,256.0,83.0,69.0,0
-8.0,-217.0,63.0,254.0,81.0,69.0,0
-4.0,-220.0,59.0,252.0,72.0,62.0,0
-3.0,-220.0,63.0,254.0,72.0,55.0,0
1.0,-218.0,63.0,271.0,88.0,42.0,0
2.0,-215.0,64.0,296.0,110.0,32.0,0
2.0,-213.0,58.0,319.0,134.0,19.0,0
2.0,-210.0,54.0,326.0,147.0,16.0,0
5.0,-208.0,49.0,320.0,151.0,10.0,0
4.0,-202.0,50.0,313.0,154.0,6.0,0
4.0,-198.0,51.0,313.0,158.0,-1.0,0
1.0,-192.0,45.0,321.0,163.0,-8.0,0
1.0,-194.0,46.0,333.0,164.0,-18.0,0
0.0,-200.0,52.0,332.0,147.0,-24.0,0
8.0,-208.0,64.0,321.0,100.0,-36.0,0
12.0,-219.0,56.0,294.0,33.0,-61.0,0
13.0,-226.0,45.0,240.0,-17.0,-94.0,0
8.0,-242.0,45.0,174.0,-40.0,-129.0,0
-1.0,-255.0,50.0,124.0,-63.0,-167.0,0
-8.0,-269.0,60.0,104.0,-105.0,-186.0,0
-11.0,-283.0,71.0,111.0,-157.0,-199.0,0
-14.0,-300.0,73.0,135.0,-205.0,-196.0,0
-19.0,-311.0,76.0,148.0,-247.0,-195.0,0
-12.0,-329.0,62.0,129.0,-305.0,-190.0,0
-13.0,-345.0,50.0,53.0,-352.0,-198.0,0
-15.0,-364.0,23.0,-40.0,-384.0,-217.0,0
-21.0,-383.0,0.0,-134.0,-401.0,-253.0,0
-21.0,-397.0,-14.0,-191.0,-399.0,-294.0,0
-21.0,-409.0,-30.0,-186.0,-379.0,-341.0,0
-22.0,-411.0,-41.0,-117.0,-345.0,-375.0,0
-22.0,-403.0,-45.0,-3.0,-306.0,-397.0,0
-20.0,-392.0,-46.0,123.0,-265.0,-398.0,0
-20.0,-374.0,-38.0,227.0,-229.0,-391.0,0
-27.0,-368.0,-28.0,289.0,-206.0,-378.0,0
-25.0,-352.0,-21.0,304.0,-209.0,-364.0,0
-27.0,-345.0,-14.0,288.0,-232.0,-346.0,0
-27.0,-340.0,-6.0,275.0,-260.0,-328.0,0
-24.0,-337.0,0.0,280.0,-289.0,-304.0,0
-20.0,-335.0,17.0,300.0,-320.0,-284.0,0
-18.0,-333.0,21.0,317.0,-350.0,-261.0,0
-16.0,-334.0,29.0,320.0,-365.0,-250.0,0
-12.0,-338.0,35.0,305.0,-362.0,-235.0,0
-10.0,-339.0,45.0,278.0,-349.0,-227.0,0
-11.0,-348.0,61.0,247.0,-339.0,-213.0,0
-12.0,-354.0,64.0,228.0,-334.0,-203.0,0
-22.0,-364.0,76.0,232.0,-329.0,-197.0,0
-24.0,-369.0,81.0,248.0,-332.0,-198.0,0
-29.0,-378.0,90.0,263.0,-340.0,-198.0,0
-27.0,-376.0,89.0,280.0,-348.0,-213.0,0
-28.0,-376.0,93.0,300.0,-348.0,-223.0,0
-29.0,-375.0,94.0,321.0,-337.0,-242.0,0
-31.0,-372.0,90.0,340.0,-319.0,-248.0,0
-35.0,-359.0,89.0,378.0,-301.0,-244.0,0
-28.0,-342.0,84.0,427.0,-275.0,-213.0,0
-20.0,-329.0,69.0,474.0,-238.0,-178.0,0
-12.0,-305.0,65.0,491.0,-193.0,-130.0,0
-2.0,-279.0,57.0,476.0,-147.0,-73.0,0
10.0,-268.0,56.0,437.0,-108.0,8.0,0
18.0,-255.0,51.0,379.0,-61.0,56.0,0
29.0,-240.0,53.0,312.0,-14.0,108.0,0
38.0,-235.0,50.0,241.0,41.0,170.0,0
39.0,-230.0,56.0,153.0,107.0,180.0,0
43.0,-243.0,58.0,61.0,163.0,206.0,0
37.0,-243.0,58.0,-34.0,238.0,212.0,0
37.0,-253.0,58.0,-131.0,281.0,218.0,0
33.0,-258.0,54.0,-192.0,322.0,224.0,0
25.0,-261.0,52.0,-232.0,347.0,221.0,0
21.0,-263.0,50.0,-251.0,372.0,228.0,0
13.0,-260.0,49.0,-259.0,393.0,214.0,0
7.0,-255.0,44.0,-258.0,408.0,210.0,0
-1.0,-255.0,44.0,-254.0,417.0,208.0,0
-4.0,-247.0,38.0,-257.0,426.0,195.0,0
-11.0,-237.0,39.0,-266.0,428.0,180.0,0
-9.0,-235.0,35.0,-275.0,427.0,174.0,0
-18.0,-226.0,36.0,-285.0,433.0,156.0,0
-24.0,-217.0,33.0,-291.0,434.0,146.0,0
-28.0,-211.0,33.0,-299.0,433.0,136.0,0
-35.0,-206.0,35.0,-313.0,433.0,119.0,0
-37.0,-201.0,30.0,-330.0,424.0,112.0,0
-41.0,-194.0,29.0,-348.0,416.0,119.0,0
-47.0,-191.0,28.0,-375.0,410.0,96.0,0
-50.0,-188.0,27.0,-401.0,397.0,89.0,0
-50.0,-191.0,29.0,-420.0,373.0,88.0,0
-52.0,-199.0,37.0,-428.0,356.0,92.0,0
-52.0,-201.0,37.0,-421.0,341.0,84.0,0
-50.0,-207.0,43.0,-399.0,331.0,82.0,0
-49.0,-211.0,55.0,-360.0,325.0,76.0,0
-45.0,-217.0,58.0,-311.0,314.0,68.0,0
-38.0,-219.0,66.0,-253.0,300.0,58.0,0
-35.0,-218.0,70.0,-189.0,281.0,49.0,0
-34.0,-214.0,71.0,-129.0,255.0,33.0,0
-33.0,-212.0,74.0,-90.0,215.0,16.0,0
-31.0,-206.0,75.0,-75.0,160.0,-15.0,0
-29.0,-207.0,74.0,-84.0,100.0,-57.0,0
-31.0,-206.0,72.0,-110.0,32.0,-98.0,0
-39.0,-203.0,78.0,-127.0,-22.0,-140.0,0
-42.0,-200.0,72.0,-128.0,-83.0,-180.0,0
-46.0,-194.0,75.0,-112.0,-147.0,-210.0,0
-50.0,-189.0,69.0,-85.0,-209.0,-233.0,0
-51.0,-187.0,66.0,-53.0,-264.0,-248.0,0
-50.0,-174.0,61.0,-28.0,-309.0,-260.0,0
-57.0,-170.0,58.0,-19.0,-345.0,-262.0,0
-54.0,-168.0,63.0,-21.0,-383.0,-261.0,0
-53.0,-170.0,69.0,-30.0,-425.0,-248.0,0
-52.0,-175.0,68.0,-42.0,-472.0,-233.0,0
-47.0,-183.0,71.0,-50.0,-510.0,-214.0,0
-41.0,-193.0,75.0,-56.0,-543.0,-197.0,0
-33.0,-203.0,78.0,-62.0,-568.0,-181.0,0
-24.0,-212.0,77.0,-70.0,-594.0,-171.0,0
-21.0,-217.0,76.0,-87.0,-624.0,-164.0,0
-20.0,-233.0,70.0,-108.0,-659.0,-163.0,0
-12.0,-242.0,66.0,-130.0,-695.0,-164.0,0
-10.0,-250.0,65.0,-143.0,-731.0,-168.0,0
-4.0,-248.0,63.0,-136.0,-763.0,-171.0,0
3.0,-253.0,58.0,-97.0,-789.0,-170.0,0
6.0,-247.0,56.0,-42.0,-802.0,-164.0,0
12.0,-240.0,56.0,23.0,-802.0,-152.0,0
13.0,-229.0,52.0,81.0,-801.0,-133.0,0
17.0,-219.0,51.0,126.0,-800.0,-113.0,0
21.0,-212.0,53.0,150.0,-796.0,-91.0,0
20.0,-207.0,49.0,158.0,-787.0,-77.0,0
24.0,-209.0,48.0,149.0,-773.0,-63.0,0
28.0,-211.0,47.0,127.0,-754.0,-55.0,0
23.0,-211.0,49.0,99.0,-720.0,-45.0,0
25.0,-223.0,54.0,67.0,-682.0,-45.0,0
24.0,-233.0,56.0,53.0,-635.0,-46.0,0
23.0,-239.0,60.0,56.0,-586.0,-45.0,0
27.0,-243.0,62.0,76.0,-538.0,-45.0,0
27.0,-247.0,68.0,108.0,-496.0,-44.0,0
26.0,-245.0,73.0,144.0,-462.0,-40.0,0
26.0,-246.0,77.0,182.0,-433.0,-36.0,0
25.0,-251.0,78.0,214.0,-408.0,-32.0,0
30.0,-244.0,80.0,241.0,-384.0,-30.0,0
29.0,-238.0,78.0,260.0,-354.0,-26.0,0
32.0,-232.0,68.0,268.0,-315.0,-20.0,0
28.0,-224.0,67.0,263.0,-283.0,-11.0,0
27.0,-218.0,59.0,243.0,-248.0,1.0,0
25.0,-212.0,57.0,215.0,-212.0,11.0,0
24.0,-213.0,54.0,185.0,-170.0,18.0,0
23.0,-210.0,58.0,157.0,-125.0,18.0,0
20.0,-212.0,61.0,140.0,-77.0,14.0,0
16.0,-213.0,66.0,142.0,-37.0,8.0,0
14.0,-216.0,69.0,163.0,-3.0,3.0,0
10.0,-212.0,79.0,191.0,24.0,-1.0,0
8.0,-215.0,80.0,219.0,44.0,-1.0,0
5.0,-210.0,82.0,229.0,59.0,-2.0,0
0.0,-206.0,84.0,219.0,61.0,0.0,0
-3.0,-203.0,78.0,189.0,55.0,3.0,0
-4.0,-202.0,77.0,142.0,41.0,13.0,0
-11.0,-201.0,72.0,86.0,31.0,28.0,0
-11.0,-210.0,70.0,28.0,36.0,39.0,0
-23.0,-218.0,72.0,-32.0,60.0,46.0,0
-29.0,-228.0,65.0,-91.0,100.0,58.0,0
-30.0,-232.0,49.0,-153.0,128.0,83.0,0
-34.0,-236.0,30.0,-233.0,142.0,114.0,0
-35.0,-241.0,19.0,-300.0,170.0,162.0,0
-38.0,-247.0,8.0,-365.0,229.0,216.0,0
-31.0,-261.0,1.0,-433.0,298.0,271.0,0
-28.0,-269.0,0.0,-505.0,347.0,334.0,0
-12.0,-275.0,-5.0,-583.0,379.0,406.0,0
9.0,-291.0,-4.0,-652.0,413.0,485.0,0
37.0,-311.0,-9.0,-700.0,469.0,566.0,0
50.0,-322.0,-19.0,-728.0,537.0,618.0,0
59.0,-335.0,-17.0,-743.0,608.0,642.0,0
65.0,-350.0,-17.0,-764.0,654.0,646.0,0
79.0,-366.0,-28.0,-787.0,649.0,632.0,0
87.0,-381.0,-35.0,-808.0,611.0,609.0,0
93.0,-402.0,-34.0,-826.0,558.0,572.0,0
99.0,-421.0,-30.0,-822.0,522.0,520.0,0
96.0,-440.0,-19.0,-783.0,521.0,447.0,0
87.0,-449.0,-4.0,-709.0,544.0,358.0,0
77.0,-456.0,3.0,-605.0,561.0,275.0,0
53.0,-462.0,18.0,-488.0,559.0,230.0,0
38.0,-465.0,40.0,-358.0,550.0,218.0,0
13.0,-465.0,62.0,-183.0,531.0,240.0,0
-3.0,-467.0,69.0,-47.0,494.0,271.0,0
-15.0,-458.0,66.0,60.0,445.0,310.0,0
-23.0,-453.0,57.0,121.0,409.0,350.0,0
-37.0,-448.0,47.0,144.0,400.0,385.0,0
-48.0,-441.0,33.0,137.0,411.0,398.0,0
-56.0,-437.0,30.0,118.0,428.0,386.0,0
-61.0,-436.0,39.0,118.0,421.0,359.0,0
-59.0,-438.0,49.0,150.0,373.0,315.0,0
-50.0,-433.0,55.0,203.0,286.0,252.0,0
-33.0,-422.0,51.0,281.0,187.0,209.0,0
-19.0,-400.0,36.0,333.0,145.0,144.0,0
-12.0,-374.0,27.0,359.0,130.0,81.0,0
-1.0,-350.0,28.0,357.0,143.0,10.0,0
-1.0,-322.0,27.0,345.0,161.0,-68.0,0
-2.0,-302.0,39.0,331.0,175.0,-142.0,0
-1.0,-278.0,42.0,312.0,175.0,-202.0,0
0.0,-257.0,50.0,272.0,170.0,-269.0,0
-2.0,-240.0,46.0,196.0,143.0,-326.0,0
-2.0,-232.0,45.0,92.0,121.0,-362.0,0
-4.0,-221.0,41.0,-52.0,101.0,-416.0,0
-5.0,-223.0,34.0,-182.0,78.0,-438.0,0
-7.0,-221.0,31.0,-301.0,64.0,-460.0,0
-7.0,-225.0,26.0,-411.0,42.0,-482.0,0
-4.0,-229.0,22.0,-494.0,21.0,-488.0,0
-4.0,-233.0,18.0,-551.0,-3.0,-510.0,0
0.0,-232.0,11.0,-580.0,-32.0,-497.0,0
0.0,-237.0,8.0,-580.0,-52.0,-490.0,0
3.0,-233.0,11.0,-561.0,-63.0,-494.0,0
3.0,-223.0,10.0,-527.0,-78.0,-472.0,0
5.0,-221.0,14.0,-479.0,-93.0,-438.0,0
7.0,-221.0,13.0,-447.0,-97.0,-419.0,0
13.0,-217.0,16.0,-427.0,-101.0,-386.0,0
16.0,-217.0,24.0,-414.0,-102.0,-341.0,0
20.0,-221.0,26.0,-404.0,-104.0,-294.0,0
22.0,-223.0,29.0,-393.0,-107.0,-255.0,0
30.0,-226.0,33.0,-368.0,-115.0,-216.0,0
34.0,-225.0,36.0,-327.0,-119.0,-186.0,0
40.0,-227.0,38.0,-274.0,-122.0,-156.0,0
39.0,-223.0,34.0,-212.0,-119.0,-131.0,0
37.0,-220.0,37.0,-133.0,-113.0,-110.0,0
34.0,-213.0,37.0,-68.0,-101.0,-96.0,0
32.0,-209.0,37.0,-12.0,-94.0,-76.0,0
26.0,-201.0,32.0,32.0,-92.0,-60.0,0
18.0,-189.0,30.0,67.0,-97.0,-38.0,0
16.0,-182.0,40.0,93.0,-102.0,-15.0,0
16.0,-173.0,31.0,107.0,-109.0,17.0,0
18.0,-165.0,29.0,116.0,-114.0,47.0,0
17.0,-154.0,29.0,106.0,-113.0,86.0,0
19.0,-152.0,29.0,79.0,-106.0,132.0,0
25.0,-154.0,31.0,27.0,-84.0,171.0,0
25.0,-159.0,29.0,-20.0,-58.0,203.0,0
27.0,-172.0,34.0,-66.0,-30.0,237.0,0
31.0,-182.0,40.0,-93.0,-3.0,258.0,0
36.0,-200.0,53.0,-99.0,19.0,282.0,0
36.0,-211.0,51.0,-83.0,35.0,301.0,0
40.0,-222.0,56.0,-53.0,50.0,322.0,0
41.0,-231.0,58.0,-16.0,64.0,334.0,0
39.0,-230.0,54.0,21.0,81.0,340.0,0
38.0,-221.0,43.0,50.0,90.0,334.0,0
34.0,-221.0,38.0,62.0,90.0,326.0,0
35.0,-217.0,32.0,49.0,82.0,307.0,0
30.0,-209.0,30.0,13.0,75.0,289.0,0
31.0,-205.0,21.0,-42.0,77.0,263.0,0
20.0,-202.0,26.0,-111.0,96.0,241.0,0
15.0,-206.0,31.0,-178.0,124.0,220.0,0
6.0,-212.0,41.0,-226.0,152.0,211.0,0
1.0,-221.0,46.0,-254.0,174.0,211.0,0
2.0,-229.0,53.0,-260.0,187.0,225.0,0
10.0,-244.0,52.0,-256.0,196.0,244.0,0
8.0,-253.0,54.0,-250.0,214.0,268.0,0
9.0,-260.0,49.0,-241.0,234.0,284.0,0
7.0,-263.0,48.0,-223.0,248.0,298.0,0
5.0,-264.0,45.0,-193.0,257.0,302.0,0
6.0,-259.0,33.0,-150.0,260.0,298.0,0
7.0,-252.0,28.0,-111.0,261.0,277.0,0
9.0,-243.0,21.0,-88.0,266.0,250.0,0
14.0,-236.0,13.0,-87.0,282.0,207.0,0
21.0,-232.0,8.0,-109.0,305.0,164.0,0
22.0,-229.0,12.0,-140.0,331.0,110.0,0
22.0,-232.0,16.0,-173.0,353.0,74.0,0
24.0,-233.0,25.0,-179.0,365.0,41.0,0
25.0,-241.0,25.0,-165.0,374.0,19.0,0
24.0,-247.0,30.0,-135.0,379.0,-2.0,0
26.0,-245.0,34.0,-94.0,381.0,-12.0,0
22.0,-247.0,35.0,-47.0,375.0,-24.0,0
22.0,-249.0,34.0,-2.0,364.0,-28.0,0
20.0,-246.0,38.0,39.0,358.0,-38.0,0
16.0,-245.0,40.0,80.0,361.0,-43.0,0
6.0,-237.0,44.0,119.0,363.0,-57.0,0
2.0,-232.0,44.0,158.0,359.0,-64.0,0
-4.0,-228.0,38.0,178.0,344.0,-74.0,0
-5.0,-217.0,34.0,187.0,324.0,-79.0,0
-7.0,-214.0,35.0,194.0,308.0,-86.0,0
-8.0,-206.0,30.0,199.0,300.0,-90.0,0
-12.0,-200.0,28.0,207.0,290.0,-98.0,0
-12.0,-191.0,32.0,217.0,280.0,-98.0,0
-11.0,-186.0,30.0,225.0,260.0,-97.0,0
-8.0,-183.0,27.0,231.0,234.0,-92.0,0
-3.0,-178.0,28.0,233.0,215.0,-93.0,0
4.0,-175.0,27.0,233.0,205.0,-94.0,0
6.0,-176.0,30.0,236.0,211.0,-106.0,0
10.0,-170.0,37.0,246.0,224.0,-116.0,0
8.0,-167.0,43.0,256.0,236.0,-131.0,0
16.0,-180.0,45.0,266.0,240.0,-139.0,0
27.0,-195.0,54.0,260.0,229.0,-147.0,0
49.0,-205.0,59.0,254.0,208.0,-155.0,0
52.0,-212.0,40.0,230.0,179.0,-182.0,0
50.0,-215.0,20.0,158.0,186.0,-205.0,0
41.0,-226.0,14.0,55.0,203.0,-247.0,0
23.0,-247.0,9.0,-68.0,203.0,-275.0,0
18.0,-266.0,21.0,-148.0,181.0,-301.0,0
10.0,-285.0,19.0,-183.0,144.0,-321.0,0
14.0,-309.0,12.0,-200.0,128.0,-335.0,0
13.0,-328.0,-1.0,-225.0,140.0,-346.0,0
18.0,-340.0,-14.0,-271.0,169.0,-373.0,0
18.0,-362.0,-36.0,-347.0,198.0,-396.0,0
10.0,-389.0,-49.0,-433.0,218.0,-426.0,0
3.0,-411.0,-68.0,-501.0,233.0,-451.0,0
-9.0,-438.0,-80.0,-535.0,256.0,-486.0,0
-13.0,-462.0,-76.0,-492.0,291.0,-507.0,0
-33.0,-465.0,-66.0,-348.0,317.0,-502.0,0
-50.0,-456.0,-57.0,-126.0,338.0,-456.0,0
-62.0,-438.0,-53.0,116.0,352.0,-391.0,0
-77.0,-412.0,-37.0,318.0,351.0,-317.0,0
-77.0,-383.0,-2.0,458.0,310.0,-255.0,0
-77.0,-361.0,23.0,528.0,224.0,-196.0,0
-68.0,-346.0,42.0,530.0,127.0,-153.0,0
-67.0,-347.0,62.0,479.0,45.0,-117.0,0
-66.0,-360.0,66.0,385.0,-15.0,-101.0,0
-69.0,-369.0,65.0,253.0,-75.0,-108.0,0
-71.0,-388.0,57.0,150.0,-121.0,-130.0,0
-67.0,-412.0,54.0,69.0,-164.0,-160.0,0
-58.0,-432.0,51.0,30.0,-195.0,-195.0,0
-55.0,-449.0,59.0,42.0,-212.0,-218.0,0
-48.0,-460.0,70.0,112.0,-229.0,-226.0,0
-40.0,-454.0,62.0,215.0,-263.0,-215.0,0
-31.0,-433.0,58.0,319.0,-301.0,-182.0,0
-21.0,-414.0,39.0,396.0,-327.0,-137.0,0
-18.0,-384.0,34.0,442.0,-332.0,-84.0,0
-8.0,-362.0,36.0,465.0,-316.0,-31.0,0
-5.0,-339.0,35.0,469.0,-291.0,19.0,0
-7.0,-313.0,41.0,462.0,-256.0,74.0,0
-5.0,-293.0,37.0,444.0,-220.0,125.0,0
-5.0,-278.0,39.0,410.0,-181.0,175.0,0
-5.0,-269.0,33.0,367.0,-134.0,215.0,0
-6.0,-266.0,29.0,304.0,-82.0,247.0,0
-8.0,-255.0,22.0,228.0,-35.0,263.0,0
-9.0,-253.0,18.0,145.0,-7.0,275.0,0
-9.0,-253.0,24.0,67.0,6.0,270.0,0
-6.0,-255.0,29.0,-2.0,3.0,257.0,0
-3.0,-257.0,28.0,-38.0,-6.0,239.0,0
2.0,-260.0,37.0,-53.0,-17.0,222.0,0
