ax,ay,az,gx,gy,gz,label
13.0,-251.0,-34.0,-60.0,26.0,-1.0,0
14.0,-252.0,-33.0,-64.0,27.0,-1.0,0
12.0,-252.0,-37.0,-69.0,25.0,-2.0,0
15.0,-251.0,-34.0,-75.0,26.0,0.0,0
12.0,-250.0,-34.0,-80.0,26.0,0.0,0
16.0,-253.0,-29.0,-82.0,26.0,-1.0,0
13.0,-256.0,-39.0,-87.0,25.0,1.0,0
14.0,-254.0,-31.0,-90.0,26.0,0.0,0
13.0,-255.0,-35.0,-92.0,26.0,0.0,0
13.0,-255.0,-36.0,-92.0,27.0,-1.0,0
12.0,-254.0,-39.0,-91.0,26.0,-1.0,0
13.0,-254.0,-33.0,-90.0,25.0,-1.0,0
12.0,-254.0,-34.0,-85.0,22.0,-2.0,0
13.0,-254.0,-34.0,-80.0,20.0,-2.0,0
12.0,-254.0,-32.0,-77.0,20.0,-1.0,0
12.0,-255.0,-33.0,-75.0,21.0,-2.0,0
12.0,-252.0,-37.0,-71.0,23.0,-1.0,0
13.0,-254.0,-38.0,-69.0,27.0,-2.0,0
11.0,-253.0,-37.0,-69.0,30.0,-4.0,0
13.0,-253.0,-35.0,-71.0,32.0,-3.0,0
12.0,-253.0,-39.0,-70.0,35.0,-3.0,0
10.0,-250.0,-39.0,-72.0,37.0,-5.0,0
13.0,-252.0,-37.0,-74.0,37.0,-5.0,0
12.0,-250.0,-37.0,-80.0,37.0,-5.0,0
11.0,-248.0,-36.0,-84.0,35.0,-4.0,0
13.0,-249.0,-36.0,-93.0,33.0,-3.0,0
10.0,-252.0,-39.0,-99.0,33.0,-1.0,0
9.0,-250.0,-32.0,-103.0,32.0,0.0,0
11.0,-250.0,-38.0,-108.0,34.0,2.0,0
7.0,-252.0,-35.0,-111.0,35.0,7.0,0
12.0,-258.0,-36.0,-112.0,38.0,9.0,0
10.0,-252.0,-36.0,-111.0,41.0,11.0,0
9.0,-250.0,-36.0,-109.0,43.0,12.0,0
9.0,-251.0,-37.0,-106.0,43.0,15.0,0
9.0,-251.0,-32.0,-105.0,44.0,17.0,0
10.0,-250.0,-36.0,-103.0,43.0,20.0,0
10.0,-250.0,-34.0,-105.0,42.0,23.0,0
6.0,-248.0,-35.0,-110.0,39.0,27.0,0
8.0,-249.0,-39.0,-119.0,37.0,31.0,0
5.0,-248.0,-41.0,-134.0,32.0,37.0,0
6.0,-248.0,-41.0,-148.0,31.0,43.0,0
6.0,-247.0,-43.0,-162.0,29.0,48.0,0
4.0,-246.0,-38.0,-175.0,26.0,53.0,0
5.0,-249.0,-38.0,-188.0,25.0,57.0,0
3.0,-250.0,-36.0,-200.0,22.0,58.0,0
7.0,-254.0,-30.0,-207.0,22.0,60.0,0
9.0,-255.0,-32.0,-214.0,22.0,59.0,0
8.0,-258.0,-28.0,-216.0,27.0,56.0,0
11.0,-263.0,-24.0,-214.0,32.0,52.0,0
7.0,-262.0,-22.0,-206.0,37.0,46.0,0
7.0,-263.0,-23.0,-191.0,41.0,42.0,0
8.0,-264.0,-21.0,-171.0,46.0,38.0,0
8.0,-264.0,-23.0,-149.0,51.0,36.0,0
9.0,-264.0,-27.0,-122.0,53.0,35.0,0
7.0,-262.0,-31.0,-101.0,54.0,36.0,0
7.0,-258.0,-34.0,-82.0,52.0,36.0,0
8.0,-254.0,-36.0,-68.0,49.0,38.0,0
7.0,-254.0,-35.0,-62.0,46.0,42.0,0
7.0,-251.0,-36.0,-62.0,43.0,42.0,0
7.0,-246.0,-35.0,-65.0,39.0,43.0,0
7.0,-245.0,-36.0,-72.0,39.0,44.0,0
3.0,-244.0,-29.0,-83.0,39.0,46.0,0
3.0,-240.0,-33.0,-96.0,43.0,47.0,0
3.0,-245.0,-29.0,-109.0,42.0,51.0,0
2.0,-247.0,-29.0,-124.0,43.0,53.0,0
1.0,-247.0,-26.0,-137.0,44.0,55.0,0
1.0,-247.0,-26.0,-148.0,45.0,55.0,0
1.0,-247.0,-27.0,-156.0,47.0,54.0,0
-1.0,-247.0,-29.0,-161.0,49.0,54.0,0
1.0,-247.0,-27.0,-166.0,51.0,54.0,0
1.0,-245.0,-37.0,-169.0,54.0,51.0,0
0.0,-250.0,-32.0,-170.0,60.0,48.0,0
3.0,-252.0,-33.0,-171.0,67.0,43.0,0
2.0,-249.0,-34.0,-173.0,71.0,39.0,0
6.0,-250.0,-35.0,-178.0,75.0,32.0,0
5.0,-255.0,-32.0,-189.0,76.0,26.0,0
6.0,-257.0,-34.0,-198.0,76.0,18.0,0
4.0,-259.0,-38.0,-206.0,75.0,12.0,0
4.0,-262.0,-43.0,-211.0,71.0,6.0,0
-1.0,-259.0,-43.0,-213.0,67.0,-2.0,0
1.0,-258.0,-44.0,-215.0,62.0,-8.0,0
5.0,-265.0,-47.0,-215.0,56.0,-12.0,0
3.0,-262.0,-42.0,-211.0,53.0,-15.0,0
1.0,-263.0,-43.0,-202.0,51.0,-18.0,0
7.0,-263.0,-38.0,-191.0,49.0,-19.0,0
4.0,-264.0,-41.0,-179.0,50.0,-23.0,0
5.0,-262.0,-38.0,-161.0,53.0,-25.0,0
3.0,-258.0,-40.0,-140.0,61.0,-28.0,0
4.0,-258.0,-39.0,-120.0,66.0,-29.0,0
1.0,-257.0,-39.0,-98.0,70.0,-32.0,0
5.0,-256.0,-39.0,-79.0,76.0,-32.0,0
5.0,-253.0,-41.0,-67.0,76.0,-32.0,0
5.0,-251.0,-40.0,-59.0,76.0,-33.0,0
5.0,-250.0,-39.0,-57.0,76.0,-34.0,0
8.0,-249.0,-39.0,-63.0,72.0,-37.0,0
6.0,-249.0,-40.0,-70.0,69.0,-39.0,0
9.0,-251.0,-39.0,-81.0,66.0,-42.0,0
10.0,-251.0,-43.0,-96.0,63.0,-44.0,0
8.0,-248.0,-42.0,-112.0,63.0,-46.0,0
7.0,-248.0,-41.0,-131.0,63.0,-50.0,0
5.0,-248.0,-42.0,-148.0,62.0,-52.0,0
8.0,-250.0,-39.0,-163.0,58.0,-52.0,0
8.0,-248.0,-37.0,-173.0,54.0,-54.0,0
5.0,-248.0,-39.0,-182.0,51.0,-57.0,0
4.0,-247.0,-41.0,-186.0,51.0,-58.0,0
7.0,-247.0,-41.0,-190.0,51.0,-60.0,0
8.0,-250.0,-45.0,-191.0,48.0,-60.0,0
9.0,-247.0,-39.0,-194.0,48.0,-61.0,0
11.0,-248.0,-42.0,-197.0,49.0,-62.0,0
14.0,-248.0,-43.0,-202.0,52.0,-60.0,0
15.0,-251.0,-44.0,-206.0,56.0,-62.0,0
14.0,-251.0,-41.0,-208.0,62.0,-62.0,0
15.0,-253.0,-45.0,-210.0,69.0,-64.0,0
14.0,-256.0,-42.0,-213.0,77.0,-65.0,0
14.0,-257.0,-45.0,-210.0,80.0,-68.0,0
12.0,-256.0,-44.0,-208.0,80.0,-72.0,0
12.0,-256.0,-46.0,-198.0,76.0,-79.0,0
7.0,-257.0,-48.0,-188.0,68.0,-88.0,0
14.0,-259.0,-47.0,-180.0,55.0,-95.0,0
15.0,-257.0,-50.0,-173.0,44.0,-100.0,0
17.0,-256.0,-46.0,-171.0,43.0,-105.0,0
13.0,-257.0,-45.0,-167.0,54.0,-115.0,0
12.0,-257.0,-52.0,-164.0,66.0,-124.0,0
14.0,-255.0,-53.0,-162.0,77.0,-130.0,0
14.0,-257.0,-51.0,-163.0,89.0,-138.0,0
17.0,-254.0,-51.0,-167.0,106.0,-145.0,0
22.0,-257.0,-51.0,-174.0,123.0,-150.0,0
19.0,-255.0,-52.0,-182.0,139.0,-157.0,0
20.0,-252.0,-51.0,-186.0,154.0,-165.0,0
21.0,-255.0,-53.0,-186.0,167.0,-175.0,0
19.0,-249.0,-53.0,-180.0,183.0,-188.0,0
19.0,-251.0,-55.0,-175.0,199.0,-196.0,0
18.0,-247.0,-58.0,-175.0,211.0,-200.0,0
25.0,-245.0,-61.0,-179.0,221.0,-198.0,0
23.0,-244.0,-66.0,-191.0,235.0,-197.0,0
29.0,-243.0,-69.0,-212.0,256.0,-194.0,0
33.0,-245.0,-72.0,-235.0,286.0,-193.0,0
36.0,-243.0,-78.0,-259.0,327.0,-190.0,0
38.0,-243.0,-77.0,-277.0,373.0,-182.0,0
40.0,-246.0,-74.0,-291.0,406.0,-174.0,0
42.0,-249.0,-77.0,-307.0,421.0,-167.0,0
42.0,-248.0,-79.0,-320.0,419.0,-157.0,0
48.0,-251.0,-80.0,-332.0,401.0,-150.0,0
50.0,-258.0,-71.0,-340.0,373.0,-142.0,0
49.0,-262.0,-62.0,-344.0,346.0,-135.0,0
47.0,-263.0,-56.0,-343.0,324.0,-128.0,0
39.0,-264.0,-48.0,-334.0,306.0,-124.0,0
33.0,-270.0,-40.0,-315.0,289.0,-126.0,0
25.0,-271.0,-36.0,-277.0,257.0,-132.0,0
20.0,-274.0,-31.0,-224.0,219.0,-140.0,0
17.0,-275.0,-29.0,-157.0,182.0,-148.0,0
14.0,-278.0,-31.0,-90.0,157.0,-157.0,0
10.0,-276.0,-38.0,-26.0,144.0,-168.0,0
8.0,-279.0,-41.0,21.0,136.0,-183.0,0
2.0,-277.0,-52.0,49.0,121.0,-198.0,0
-1.0,-273.0,-52.0,57.0,96.0,-213.0,0
-7.0,-276.0,-54.0,45.0,60.0,-224.0,0
-8.0,-269.0,-56.0,18.0,20.0,-232.0,0
-9.0,-271.0,-55.0,-12.0,-17.0,-241.0,0
-8.0,-269.0,-52.0,-43.0,-47.0,-249.0,0
-12.0,-268.0,-50.0,-67.0,-70.0,-257.0,0
-18.0,-263.0,-48.0,-80.0,-87.0,-262.0,0
-13.0,-257.0,-45.0,-76.0,-104.0,-260.0,0
-7.0,-252.0,-44.0,-58.0,-116.0,-251.0,0
3.0,-248.0,-44.0,-29.0,-117.0,-240.0,0
6.0,-240.0,-48.0,1.0,-103.0,-229.0,0
9.0,-231.0,-51.0,24.0,-85.0,-218.0,0
11.0,-224.0,-49.0,29.0,-68.0,-208.0,0
17.0,-222.0,-52.0,11.0,-55.0,-197.0,0
23.0,-217.0,-56.0,-26.0,-52.0,-183.0,0
27.0,-215.0,-56.0,-79.0,-54.0,-166.0,0
29.0,-213.0,-56.0,-140.0,-61.0,-146.0,0
38.0,-217.0,-56.0,-190.0,-72.0,-126.0,0
45.0,-224.0,-59.0,-247.0,-84.0,-107.0,0
46.0,-227.0,-58.0,-290.0,-94.0,-88.0,0
47.0,-229.0,-58.0,-325.0,-108.0,-64.0,0
48.0,-233.0,-55.0,-356.0,-122.0,-44.0,0
47.0,-238.0,-53.0,-377.0,-130.0,-21.0,0
53.0,-243.0,-54.0,-386.0,-139.0,-1.0,0
48.0,-247.0,-56.0,-388.0,-141.0,16.0,0
48.0,-251.0,-60.0,-380.0,-142.0,30.0,0
48.0,-249.0,-59.0,-368.0,-141.0,40.0,0
48.0,-250.0,-68.0,-352.0,-141.0,48.0,0
48.0,-257.0,-69.0,-332.0,-137.0,52.0,0
47.0,-257.0,-75.0,-311.0,-132.0,53.0,0
49.0,-257.0,-77.0,-291.0,-123.0,51.0,0
50.0,-257.0,-75.0,-271.0,-109.0,47.0,0
51.0,-262.0,-82.0,-249.0,-94.0,41.0,0
48.0,-256.0,-85.0,-227.0,-76.0,35.0,0
48.0,-255.0,-82.0,-205.0,-56.0,29.0,0
48.0,-254.0,-86.0,-182.0,-34.0,21.0,0
50.0,-259.0,-82.0,-158.0,-7.0,14.0,0
48.0,-254.0,-80.0,-140.0,20.0,8.0,0
50.0,-257.0,-76.0,-124.0,47.0,5.0,0
48.0,-252.0,-77.0,-108.0,71.0,1.0,0
47.0,-249.0,-75.0,-96.0,92.0,-1.0,0
46.0,-251.0,-73.0,-88.0,111.0,-3.0,0
46.0,-247.0,-72.0,-78.0,125.0,-2.0,0
44.0,-248.0,-71.0,-75.0,136.0,-1.0,0
44.0,-247.0,-72.0,-74.0,142.0,3.0,0
38.0,-241.0,-70.0,-75.0,145.0,10.0,0
37.0,-243.0,-70.0,-79.0,143.0,19.0,0
34.0,-244.0,-70.0,-79.0,135.0,30.0,0
30.0,-240.0,-69.0,-81.0,123.0,43.0,0
28.0,-239.0,-70.0,-83.0,113.0,56.0,0
27.0,-240.0,-74.0,-85.0,97.0,69.0,0
25.0,-243.0,-70.0,-89.0,85.0,81.0,0
20.0,-239.0,-72.0,-94.0,74.0,90.0,0
18.0,-243.0,-70.0,-102.0,63.0,96.0,0
14.0,-243.0,-69.0,-108.0,54.0,99.0,0
10.0,-243.0,-70.0,-116.0,44.0,100.0,0
11.0,-246.0,-72.0,-121.0,35.0,98.0,0
14.0,-247.0,-66.0,-126.0,26.0,93.0,0
11.0,-249.0,-69.0,-128.0,22.0,86.0,0
11.0,-250.0,-72.0,-127.0,22.0,75.0,0
15.0,-255.0,-70.0,-127.0,22.0,66.0,0
18.0,-256.0,-68.0,-125.0,26.0,53.0,0
22.0,-258.0,-72.0,-120.0,33.0,38.0,0
26.0,-259.0,-68.0,-111.0,40.0,23.0,0
29.0,-262.0,-69.0,-100.0,47.0,8.0,0
29.0,-262.0,-71.0,-84.0,52.0,-6.0,0
31.0,-264.0,-71.0,-65.0,58.0,-20.0,0
31.0,-263.0,-73.0,-47.0,65.0,-32.0,0
36.0,-264.0,-71.0,-29.0,69.0,-41.0,0
38.0,-262.0,-71.0,-12.0,73.0,-50.0,0
40.0,-264.0,-73.0,5.0,77.0,-54.0,0
40.0,-261.0,-74.0,21.0,79.0,-55.0,0
40.0,-260.0,-76.0,33.0,80.0,-54.0,0
43.0,-255.0,-72.0,42.0,78.0,-49.0,0
43.0,-259.0,-74.0,49.0,75.0,-42.0,0
44.0,-254.0,-74.0,55.0,69.0,-32.0,0
42.0,-252.0,-72.0,63.0,66.0,-23.0,0
43.0,-251.0,-73.0,68.0,63.0,-14.0,0
44.0,-251.0,-76.0,73.0,62.0,-5.0,0
40.0,-248.0,-74.0,77.0,60.0,5.0,0
41.0,-251.0,-74.0,77.0,55.0,13.0,0
38.0,-248.0,-74.0,76.0,49.0,21.0,0
38.0,-247.0,-73.0,72.0,43.0,25.0,0
36.0,-246.0,-73.0,69.0,36.0,30.0,0
38.0,-245.0,-70.0,64.0,34.0,34.0,0
36.0,-243.0,-70.0,58.0,38.0,37.0,0
36.0,-244.0,-72.0,52.0,47.0,38.0,0
34.0,-245.0,-68.0,48.0,57.0,41.0,0
37.0,-241.0,-69.0,40.0,69.0,40.0,0
33.0,-245.0,-74.0,35.0,79.0,40.0,0
27.0,-243.0,-72.0,27.0,88.0,41.0,0
30.0,-245.0,-73.0,21.0,94.0,43.0,0
29.0,-248.0,-70.0,15.0,96.0,44.0,0
25.0,-247.0,-76.0,11.0,94.0,47.0,0
27.0,-251.0,-75.0,6.0,90.0,52.0,0
23.0,-251.0,-75.0,5.0,83.0,57.0,0
23.0,-253.0,-73.0,6.0,71.0,64.0,0
20.0,-254.0,-78.0,8.0,59.0,71.0,0
18.0,-254.0,-75.0,10.0,45.0,77.0,0
17.0,-253.0,-77.0,12.0,33.0,83.0,0
18.0,-255.0,-76.0,17.0,23.0,89.0,0
19.0,-257.0,-77.0,25.0,14.0,93.0,0
18.0,-256.0,-76.0,37.0,4.0,95.0,0
20.0,-256.0,-80.0,48.0,-4.0,95.0,0
21.0,-252.0,-74.0,56.0,-10.0,91.0,0
21.0,-255.0,-74.0,63.0,-16.0,83.0,0
19.0,-254.0,-73.0,66.0,-22.0,78.0,0
20.0,-249.0,-70.0,63.0,-31.0,70.0,0
17.0,-249.0,-68.0,53.0,-37.0,63.0,0
17.0,-252.0,-73.0,36.0,-43.0,56.0,0
21.0,-260.0,-76.0,19.0,-48.0,49.0,0
15.0,-254.0,-70.0,3.0,-50.0,45.0,0
15.0,-252.0,-70.0,-11.0,-54.0,40.0,0
13.0,-256.0,-71.0,-21.0,-58.0,37.0,0
13.0,-253.0,-68.0,-22.0,-63.0,33.0,0
16.0,-250.0,-67.0,-17.0,-65.0,28.0,0
11.0,-250.0,-67.0,-10.0,-68.0,24.0,0
14.0,-248.0,-64.0,0.0,-72.0,22.0,0
14.0,-249.0,-65.0,9.0,-77.0,20.0,0
14.0,-248.0,-66.0,17.0,-81.0,19.0,0
16.0,-247.0,-64.0,17.0,-88.0,21.0,0
14.0,-247.0,-68.0,10.0,-90.0,23.0,0
16.0,-248.0,-69.0,2.0,-93.0,28.0,0
15.0,-248.0,-64.0,-9.0,-97.0,34.0,0
13.0,-248.0,-64.0,-17.0,-101.0,41.0,0
16.0,-247.0,-64.0,-26.0,-107.0,46.0,0
15.0,-249.0,-64.0,-28.0,-111.0,53.0,0
15.0,-250.0,-62.0,-30.0,-114.0,57.0,0
14.0,-248.0,-60.0,-33.0,-116.0,64.0,0
15.0,-249.0,-60.0,-35.0,-119.0,71.0,0
15.0,-249.0,-65.0,-37.0,-121.0,74.0,0
13.0,-249.0,-64.0,-38.0,-122.0,73.0,0
18.0,-248.0,-69.0,-43.0,-123.0,75.0,0
19.0,-250.0,-65.0,-49.0,-123.0,74.0,0
20.0,-248.0,-65.0,-58.0,-122.0,70.0,0
20.0,-249.0,-70.0,-65.0,-118.0,65.0,0
20.0,-248.0,-67.0,-74.0,-113.0,62.0,0
21.0,-248.0,-67.0,-78.0,-107.0,57.0,0
21.0,-250.0,-67.0,-79.0,-105.0,53.0,0
23.0,-251.0,-61.0,-79.0,-103.0,51.0,0
19.0,-250.0,-63.0,-78.0,-104.0,47.0,0
17.0,-248.0,-65.0,-75.0,-104.0,46.0,0
19.0,-251.0,-61.0,-72.0,-104.0,45.0,0
20.0,-252.0,-62.0,-72.0,-104.0,43.0,0
22.0,-250.0,-65.0,-70.0,-103.0,44.0,0
19.0,-251.0,-65.0,-68.0,-100.0,43.0,0
20.0,-249.0,-64.0,-67.0,-97.0,45.0,0
16.0,-250.0,-61.0,-65.0,-96.0,47.0,0
18.0,-248.0,-65.0,-65.0,-95.0,50.0,0
15.0,-248.0,-65.0,-63.0,-93.0,51.0,0
15.0,-248.0,-67.0,-62.0,-92.0,53.0,0
16.0,-248.0,-66.0,-61.0,-88.0,55.0,0
14.0,-247.0,-66.0,-61.0,-85.0,57.0,0
13.0,-248.0,-70.0,-60.0,-82.0,59.0,0
19.0,-249.0,-67.0,-62.0,-80.0,62.0,0
20.0,-249.0,-69.0,-64.0,-78.0,66.0,0
20.0,-250.0,-70.0,-63.0,-76.0,69.0,0
21.0,-246.0,-66.0,-64.0,-73.0,72.0,0
20.0,-249.0,-71.0,-63.0,-71.0,74.0,0
21.0,-249.0,-70.0,-61.0,-70.0,76.0,0
21.0,-252.0,-68.0,-60.0,-66.0,76.0,0
23.0,-251.0,-70.0,-58.0,-64.0,76.0,0
20.0,-252.0,-70.0,-57.0,-61.0,75.0,0
22.0,-253.0,-64.0,-54.0,-58.0,72.0,0
20.0,-254.0,-72.0,-50.0,-54.0,70.0,0
18.0,-253.0,-67.0,-43.0,-51.0,66.0,0
18.0,-252.0,-71.0,-37.0,-46.0,62.0,0
18.0,-253.0,-68.0,-31.0,-41.0,57.0,0
18.0,-254.0,-73.0,-29.0,-36.0,51.0,0
17.0,-257.0,-73.0,-26.0,-28.0,46.0,0
21.0,-259.0,-70.0,-26.0,-21.0,41.0,0
20.0,-256.0,-70.0,-24.0,-13.0,35.0,0
18.0,-258.0,-70.0,-22.0,-5.0,29.0,0
21.0,-256.0,-70.0,-19.0,5.0,23.0,0
20.0,-257.0,-71.0,-15.0,14.0,18.0,0
20.0,-252.0,-62.0,-11.0,24.0,13.0,0
18.0,-255.0,-68.0,-4.0,33.0,9.0,0
18.0,-255.0,-71.0,-1.0,42.0,5.0,0
18.0,-253.0,-67.0,4.0,49.0,1.0,0
19.0,-251.0,-67.0,8.0,54.0,-3.0,0
18.0,-251.0,-68.0,11.0,59.0,-6.0,0
18.0,-251.0,-67.0,14.0,63.0,-8.0,0
14.0,-251.0,-65.0,13.0,66.0,-9.0,0
17.0,-249.0,-64.0,12.0,69.0,-12.0,0
18.0,-251.0,-67.0,10.0,72.0,-12.0,0
21.0,-249.0,-59.0,10.0,79.0,-14.0,0
21.0,-252.0,-65.0,9.0,87.0,-16.0,0
20.0,-250.0,-63.0,8.0,94.0,-16.0,0
23.0,-252.0,-60.0,6.0,100.0,-18.0,0
22.0,-253.0,-60.0,2.0,102.0,-20.0,0
20.0,-248.0,-59.0,1.0,103.0,-21.0,0
20.0,-248.0,-63.0,-3.0,103.0,-24.0,0
18.0,-248.0,-64.0,-8.0,103.0,-27.0,0
19.0,-252.0,-64.0,-11.0,103.0,-30.0,0
16.0,-248.0,-63.0,-17.0,103.0,-34.0,0
17.0,-248.0,-65.0,-22.0,101.0,-36.0,0
15.0,-247.0,-67.0,-25.0,99.0,-39.0,0
16.0,-250.0,-62.0,-24.0,97.0,-41.0,0
14.0,-249.0,-57.0,-21.0,98.0,-44.0,0
17.0,-247.0,-63.0,-19.0,95.0,-48.0,0
17.0,-248.0,-59.0,-15.0,94.0,-50.0,0
18.0,-249.0,-57.0,-15.0,95.0,-54.0,0
12.0,-245.0,-62.0,-17.0,97.0,-57.0,0
13.0,-247.0,-57.0,-21.0,99.0,-61.0,0
13.0,-248.0,-55.0,-25.0,100.0,-64.0,0
13.0,-248.0,-58.0,-27.0,101.0,-65.0,0
16.0,-250.0,-57.0,-28.0,103.0,-67.0,0
13.0,-248.0,-56.0,-29.0,105.0,-69.0,0
14.0,-249.0,-57.0,-29.0,106.0,-68.0,0
14.0,-248.0,-57.0,-28.0,108.0,-71.0,0
14.0,-247.0,-53.0,-29.0,106.0,-71.0,0
16.0,-248.0,-56.0,-30.0,104.0,-72.0,0
15.0,-247.0,-56.0,-31.0,102.0,-75.0,0
16.0,-249.0,-53.0,-36.0,101.0,-77.0,0
19.0,-248.0,-53.0,-39.0,103.0,-80.0,0
18.0,-249.0,-54.0,-45.0,104.0,-82.0,0
13.0,-248.0,-55.0,-51.0,104.0,-86.0,0
16.0,-253.0,-53.0,-52.0,105.0,-89.0,0
17.0,-253.0,-53.0,-55.0,104.0,-93.0,0
16.0,-254.0,-51.0,-55.0,103.0,-95.0,0
19.0,-255.0,-52.0,-54.0,103.0,-97.0,0
18.0,-258.0,-53.0,-54.0,102.0,-101.0,0
16.0,-254.0,-50.0,-51.0,100.0,-102.0,0
19.0,-256.0,-53.0,-49.0,99.0,-103.0,0
20.0,-259.0,-57.0,-45.0,101.0,-102.0,0
20.0,-258.0,-56.0,-40.0,101.0,-100.0,0
17.0,-258.0,-60.0,-38.0,101.0,-97.0,0
17.0,-257.0,-57.0,-38.0,103.0,-93.0,0
15.0,-258.0,-59.0,-42.0,107.0,-86.0,0
15.0,-260.0,-60.0,-45.0,108.0,-79.0,0
12.0,-254.0,-57.0,-48.0,107.0,-73.0,0
13.0,-258.0,-57.0,-53.0,103.0,-65.0,0
16.0,-258.0,-59.0,-58.0,96.0,-57.0,0
16.0,-256.0,-60.0,-60.0,88.0,-46.0,0
19.0,-258.0,-57.0,-59.0,81.0,-36.0,0
17.0,-259.0,-55.0,-60.0,74.0,-25.0,0
18.0,-260.0,-56.0,-59.0,72.0,-17.0,0
18.0,-261.0,-58.0,-56.0,70.0,-9.0,0
16.0,-262.0,-58.0,-54.0,71.0,-1.0,0
21.0,-262.0,-57.0,-51.0,71.0,5.0,0
22.0,-263.0,-58.0,-47.0,71.0,13.0,0
22.0,-264.0,-59.0,-44.0,71.0,17.0,0
20.0,-266.0,-58.0,-38.0,70.0,22.0,0
21.0,-261.0,-58.0,-31.0,68.0,25.0,0
22.0,-261.0,-60.0,-25.0,65.0,28.0,0
21.0,-262.0,-59.0,-19.0,66.0,30.0,0
23.0,-258.0,-59.0,-13.0,66.0,32.0,0
24.0,-258.0,-60.0,-10.0,68.0,36.0,0
23.0,-257.0,-57.0,-8.0,71.0,38.0,0
20.0,-257.0,-56.0,-11.0,77.0,42.0,0
19.0,-260.0,-60.0,-9.0,79.0,44.0,0
16.0,-257.0,-56.0,-1.0,76.0,40.0,0
16.0,-257.0,-58.0,8.0,72.0,36.0,0
13.0,-255.0,-58.0,15.0,69.0,33.0,0
15.0,-255.0,-58.0,22.0,68.0,30.0,0
10.0,-256.0,-58.0,25.0,68.0,28.0,0
13.0,-254.0,-54.0,22.0,72.0,26.0,0
14.0,-251.0,-56.0,17.0,74.0,26.0,0
17.0,-251.0,-52.0,12.0,74.0,23.0,0
16.0,-250.0,-50.0,9.0,76.0,20.0,0
16.0,-247.0,-54.0,11.0,77.0,14.0,0
20.0,-247.0,-53.0,14.0,77.0,10.0,0
22.0,-245.0,-51.0,14.0,80.0,7.0,0
16.0,-251.0,-57.0,1.0,86.0,20.0,0
17.0,-249.0,-53.0,-32.0,96.0,34.0,0
25.0,-247.0,-45.0,-65.0,124.0,33.0,0
7.0,-248.0,-59.0,-77.0,116.0,38.0,0
-2.0,-265.0,-73.0,-133.0,76.0,137.0,0
10.0,-278.0,-56.0,-270.0,51.0,277.0,0
-16.0,-272.0,-44.0,-308.0,25.0,247.0,0
-12.0,-261.0,-50.0,-162.0,-69.0,148.0,0
-3.0,-252.0,-52.0,7.0,-85.0,91.0,0
-1.0,-249.0,-57.0,141.0,-93.0,59.0,0
-1.0,-250.0,-62.0,229.0,-119.0,48.0,0
5.0,-247.0,-67.0,263.0,-139.0,42.0,0
12.0,-243.0,-64.0,253.0,-129.0,42.0,0
17.0,-241.0,-57.0,217.0,-91.0,38.0,0
19.0,-239.0,-55.0,169.0,-40.0,26.0,0
17.0,-238.0,-51.0,132.0,10.0,12.0,0
16.0,-239.0,-47.0,101.0,47.0,1.0,0
16.0,-246.0,-46.0,82.0,64.0,-11.0,0
14.0,-246.0,-47.0,68.0,61.0,-24.0,0
15.0,-247.0,-46.0,59.0,46.0,-38.0,0
16.0,-248.0,-44.0,53.0,28.0,-50.0,0
9.0,-249.0,-50.0,47.0,7.0,-54.0,0
17.0,-250.0,-47.0,40.0,-15.0,-56.0,0
18.0,-250.0,-51.0,33.0,-32.0,-56.0,0
19.0,-248.0,-51.0,23.0,-49.0,-51.0,0
19.0,-250.0,-56.0,11.0,-61.0,-43.0,0
21.0,-247.0,-53.0,-2.0,-67.0,-34.0,0
23.0,-247.0,-57.0,-16.0,-70.0,-26.0,0
23.0,-247.0,-56.0,-35.0,-72.0,-16.0,0
24.0,-249.0,-54.0,-57.0,-69.0,-2.0,0
26.0,-252.0,-55.0,-85.0,-67.0,8.0,0
23.0,-250.0,-55.0,-110.0,-63.0,14.0,0
22.0,-249.0,-53.0,-128.0,-58.0,17.0,0
20.0,-255.0,-57.0,-143.0,-55.0,21.0,0
20.0,-253.0,-55.0,-154.0,-52.0,22.0,0
29.0,-254.0,-56.0,-162.0,-49.0,22.0,0
21.0,-256.0,-56.0,-162.0,-36.0,17.0,0
16.0,-255.0,-60.0,-153.0,-17.0,10.0,0
13.0,-254.0,-58.0,-142.0,-3.0,4.0,0
7.0,-255.0,-57.0,-126.0,5.0,-4.0,0
6.0,-256.0,-58.0,-104.0,4.0,-12.0,0
5.0,-255.0,-62.0,-82.0,-5.0,-19.0,0
11.0,-251.0,-62.0,-58.0,-17.0,-25.0,0
5.0,-251.0,-58.0,-40.0,-32.0,-32.0,0
7.0,-255.0,-61.0,-27.0,-42.0,-39.0,0
6.0,-254.0,-59.0,-21.0,-47.0,-45.0,0
6.0,-252.0,-59.0,-19.0,-48.0,-46.0,0
10.0,-252.0,-61.0,-25.0,-47.0,-48.0,0
12.0,-253.0,-55.0,-34.0,-43.0,-49.0,0
11.0,-252.0,-53.0,-43.0,-37.0,-45.0,0
12.0,-252.0,-53.0,-53.0,-33.0,-40.0,0
11.0,-253.0,-52.0,-62.0,-30.0,-35.0,0
7.0,-253.0,-47.0,-64.0,-31.0,-31.0,0
10.0,-249.0,-55.0,-60.0,-33.0,-28.0,0
12.0,-254.0,-54.0,-54.0,-44.0,-23.0,0
11.0,-253.0,-55.0,-45.0,-56.0,-18.0,0
15.0,-253.0,-52.0,-36.0,-70.0,-11.0,0
14.0,-250.0,-58.0,-32.0,-85.0,-5.0,0
16.0,-250.0,-56.0,-31.0,-95.0,-1.0,0
18.0,-251.0,-59.0,-32.0,-102.0,2.0,0
17.0,-249.0,-58.0,-39.0,-102.0,7.0,0
17.0,-249.0,-56.0,-46.0,-99.0,10.0,0
13.0,-247.0,-57.0,-53.0,-95.0,13.0,0
19.0,-248.0,-57.0,-59.0,-89.0,15.0,0
18.0,-252.0,-56.0,-65.0,-86.0,16.0,0
21.0,-249.0,-56.0,-70.0,-81.0,14.0,0
24.0,-251.0,-53.0,-72.0,-76.0,10.0,0
24.0,-248.0,-53.0,-70.0,-64.0,9.0,0
26.0,-252.0,-51.0,-67.0,-51.0,5.0,0
26.0,-251.0,-52.0,-61.0,-35.0,0.0,0
24.0,-254.0,-50.0,-55.0,-20.0,-6.0,0
24.0,-251.0,-52.0,-47.0,-9.0,-10.0,0
23.0,-252.0,-54.0,-40.0,0.0,-14.0,0
20.0,-252.0,-55.0,-38.0,3.0,-20.0,0
23.0,-249.0,-56.0,-37.0,2.0,-20.0,0
22.0,-251.0,-56.0,-45.0,2.0,-19.0,0
19.0,-251.0,-56.0,-58.0,1.0,-15.0,0
18.0,-250.0,-56.0,-69.0,2.0,-16.0,0
16.0,-250.0,-58.0,-77.0,2.0,-16.0,0
18.0,-251.0,-56.0,-80.0,-1.0,-14.0,0
17.0,-253.0,-58.0,-81.0,-2.0,-12.0,0
17.0,-254.0,-59.0,-78.0,-4.0,-9.0,0
17.0,-256.0,-59.0,-78.0,-2.0,-6.0,0
17.0,-254.0,-59.0,-75.0,1.0,-4.0,0
22.0,-253.0,-60.0,-74.0,2.0,-2.0,0
15.0,-255.0,-61.0,-77.0,7.0,0.0,0
15.0,-253.0,-62.0,-78.0,14.0,-3.0,0
14.0,-251.0,-58.0,-77.0,14.0,-6.0,0
18.0,-252.0,-59.0,-71.0,11.0,-6.0,0
18.0,-252.0,-57.0,-72.0,11.0,-8.0,0
17.0,-249.0,-56.0,-71.0,12.0,-10.0,0
18.0,-252.0,-56.0,-74.0,15.0,-13.0,0
17.0,-249.0,-56.0,-75.0,20.0,-14.0,0
22.0,-251.0,-57.0,-77.0,23.0,-14.0,0
21.0,-254.0,-55.0,-78.0,29.0,-11.0,0
17.0,-255.0,-53.0,-78.0,35.0,-13.0,0
21.0,-257.0,-57.0,-73.0,36.0,-13.0,0
21.0,-253.0,-56.0,-67.0,36.0,-12.0,0
21.0,-251.0,-57.0,-64.0,37.0,-8.0,0
20.0,-254.0,-56.0,-59.0,41.0,-8.0,0
19.0,-253.0,-55.0,-56.0,43.0,-8.0,0
19.0,-251.0,-59.0,-52.0,42.0,-7.0,0
20.0,-252.0,-59.0,-46.0,38.0,-4.0,0
18.0,-250.0,-60.0,-44.0,34.0,-3.0,0
18.0,-251.0,-61.0,-44.0,31.0,-4.0,0
19.0,-249.0,-62.0,-44.0,31.0,-5.0,0
19.0,-254.0,-60.0,-52.0,29.0,-2.0,0
18.0,-253.0,-59.0,-60.0,27.0,-3.0,0
16.0,-258.0,-65.0,-65.0,26.0,-3.0,0
17.0,-252.0,-58.0,-69.0,24.0,-1.0,0
16.0,-255.0,-61.0,-71.0,20.0,-1.0,0
14.0,-252.0,-58.0,-65.0,15.0,-1.0,0
14.0,-253.0,-56.0,-54.0,8.0,0.0,0
15.0,-254.0,-59.0,-41.0,2.0,1.0,0
16.0,-252.0,-58.0,-27.0,-1.0,1.0,0
12.0,-250.0,-57.0,-15.0,-1.0,2.0,0
14.0,-251.0,-59.0,-6.0,-2.0,0.0,0
19.0,-253.0,-58.0,4.0,-2.0,-2.0,0
19.0,-253.0,-57.0,4.0,-3.0,2.0,0
20.0,-250.0,-59.0,2.0,2.0,-1.0,0
17.0,-248.0,-58.0,-8.0,9.0,-1.0,0
17.0,-248.0,-56.0,-20.0,13.0,-1.0,0
17.0,-248.0,-57.0,-32.0,14.0,-6.0,0
14.0,-248.0,-61.0,-41.0,15.0,-8.0,0
16.0,-248.0,-56.0,-52.0,17.0,-7.0,0
13.0,-248.0,-58.0,-57.0,15.0,-10.0,0
16.0,-248.0,-55.0,-67.0,11.0,-12.0,0
13.0,-250.0,-58.0,-78.0,6.0,-9.0,0
14.0,-252.0,-56.0,-93.0,1.0,-9.0,0
16.0,-248.0,-57.0,-103.0,-5.0,-10.0,0
23.0,-251.0,-45.0,-113.0,-6.0,-8.0,0
18.0,-249.0,-55.0,-120.0,-3.0,-11.0,0
16.0,-249.0,-58.0,-121.0,2.0,-13.0,0
16.0,-254.0,-59.0,-115.0,7.0,-13.0,0
17.0,-253.0,-54.0,-106.0,11.0,-14.0,0
20.0,-256.0,-58.0,-95.0,9.0,-13.0,0
21.0,-253.0,-57.0,-82.0,10.0,-17.0,0
21.0,-253.0,-57.0,-66.0,6.0,-23.0,0
24.0,-255.0,-63.0,-55.0,7.0,-20.0,0
19.0,-251.0,-56.0,-51.0,8.0,-19.0,0
21.0,-250.0,-58.0,-51.0,7.0,-14.0,0
22.0,-250.0,-60.0,-58.0,5.0,-10.0,0
15.0,-251.0,-62.0,-69.0,1.0,-3.0,0
19.0,-255.0,-57.0,-91.0,-2.0,16.0,0
15.0,-253.0,-58.0,-105.0,-5.0,13.0,0
18.0,-252.0,-59.0,-109.0,-20.0,14.0,0
18.0,-251.0,-60.0,-110.0,-25.0,16.0,0
15.0,-251.0,-58.0,-110.0,-25.0,16.0,0
16.0,-255.0,-61.0,-105.0,-24.0,16.0,0
15.0,-256.0,-56.0,-96.0,-25.0,18.0,0
17.0,-256.0,-63.0,-83.0,-25.0,18.0,0
19.0,-262.0,-50.0,-72.0,-25.0,20.0,0
18.0,-255.0,-58.0,-59.0,-25.0,19.0,0
19.0,-252.0,-56.0,-48.0,-22.0,18.0,0
21.0,-252.0,-57.0,-44.0,-17.0,20.0,0
21.0,-252.0,-63.0,-40.0,-13.0,15.0,0
24.0,-253.0,-60.0,-36.0,-10.0,13.0,0
20.0,-254.0,-61.0,-39.0,-4.0,11.0,0
18.0,-252.0,-58.0,-48.0,1.0,14.0,0
15.0,-251.0,-57.0,-49.0,0.0,10.0,0
13.0,-249.0,-58.0,-47.0,-11.0,8.0,0
17.0,-250.0,-59.0,-51.0,-19.0,8.0,0
18.0,-248.0,-61.0,-52.0,-25.0,4.0,0
20.0,-250.0,-61.0,-52.0,-24.0,2.0,0
16.0,-253.0,-60.0,-54.0,-21.0,-1.0,0
20.0,-249.0,-60.0,-55.0,-19.0,1.0,0
18.0,-250.0,-59.0,-58.0,-15.0,-2.0,0
15.0,-250.0,-59.0,-62.0,-14.0,-2.0,0
20.0,-252.0,-58.0,-63.0,-13.0,-2.0,0
20.0,-249.0,-61.0,-67.0,-12.0,0.0,0
21.0,-249.0,-62.0,-65.0,-11.0,-6.0,0
20.0,-254.0,-60.0,-71.0,-10.0,2.0,0
18.0,-253.0,-57.0,-77.0,-3.0,5.0,0
18.0,-258.0,-55.0,-78.0,-5.0,4.0,0
22.0,-252.0,-58.0,-74.0,-7.0,4.0,0
20.0,-249.0,-58.0,-71.0,-9.0,5.0,0
19.0,-249.0,-58.0,-69.0,-10.0,8.0,0
21.0,-250.0,-57.0,-72.0,-10.0,11.0,0
21.0,-250.0,-60.0,-83.0,-9.0,16.0,0
21.0,-250.0,-59.0,-99.0,-10.0,21.0,0
21.0,-251.0,-59.0,-113.0,-10.0,21.0,0
19.0,-252.0,-60.0,-121.0,-8.0,20.0,0
18.0,-250.0,-60.0,-124.0,-9.0,21.0,0
13.0,-249.0,-67.0,-123.0,-13.0,20.0,0
13.0,-252.0,-65.0,-119.0,-20.0,16.0,0
14.0,-252.0,-62.0,-108.0,-26.0,12.0,0
15.0,-249.0,-60.0,-95.0,-32.0,8.0,0
13.0,-253.0,-67.0,-82.0,-35.0,6.0,0
15.0,-250.0,-63.0,-70.0,-34.0,4.0,0
18.0,-253.0,-58.0,-61.0,-28.0,1.0,0
18.0,-252.0,-61.0,-53.0,-18.0,-3.0,0
16.0,-251.0,-60.0,-44.0,-11.0,-8.0,0
20.0,-253.0,-64.0,-33.0,-1.0,-14.0,0
18.0,-251.0,-62.0,-26.0,6.0,-18.0,0
12.0,-250.0,-60.0,-18.0,14.0,-22.0,0
19.0,-248.0,-60.0,-15.0,19.0,-29.0,0
21.0,-251.0,-59.0,-14.0,20.0,-34.0,0
22.0,-250.0,-62.0,-14.0,21.0,-38.0,0
20.0,-249.0,-61.0,-19.0,20.0,-39.0,0
21.0,-250.0,-59.0,-24.0,21.0,-39.0,0
24.0,-252.0,-59.0,-32.0,22.0,-37.0,0
24.0,-250.0,-57.0,-43.0,25.0,-31.0,0
22.0,-249.0,-57.0,-57.0,27.0,-27.0,0
24.0,-249.0,-59.0,-73.0,28.0,-20.0,0
22.0,-252.0,-59.0,-84.0,27.0,-14.0,0
24.0,-254.0,-60.0,-97.0,25.0,-5.0,0
22.0,-254.0,-53.0,-105.0,22.0,1.0,0
21.0,-256.0,-59.0,-111.0,16.0,7.0,0
22.0,-252.0,-57.0,-117.0,12.0,18.0,0
20.0,-252.0,-55.0,-116.0,7.0,22.0,0
19.0,-253.0,-60.0,-107.0,-1.0,22.0,0
20.0,-255.0,-60.0,-99.0,-9.0,26.0,0
16.0,-254.0,-61.0,-90.0,-10.0,23.0,0
18.0,-255.0,-64.0,-77.0,-10.0,20.0,0
14.0,-250.0,-67.0,-71.0,-9.0,16.0,0
15.0,-251.0,-68.0,-68.0,-7.0,19.0,0
15.0,-252.0,-65.0,-71.0,-2.0,19.0,0
16.0,-250.0,-65.0,-70.0,4.0,13.0,0
16.0,-250.0,-63.0,-67.0,6.0,8.0,0
16.0,-253.0,-64.0,-68.0,9.0,5.0,0
17.0,-252.0,-64.0,-67.0,12.0,2.0,0
15.0,-254.0,-63.0,-64.0,16.0,1.0,0
15.0,-254.0,-65.0,-62.0,18.0,-2.0,0
18.0,-255.0,-62.0,-60.0,21.0,-1.0,0
17.0,-251.0,-63.0,-57.0,22.0,-2.0,0
14.0,-251.0,-60.0,-54.0,23.0,-4.0,0
17.0,-255.0,-62.0,-46.0,23.0,-5.0,0
14.0,-255.0,-65.0,-37.0,23.0,-6.0,0
15.0,-251.0,-60.0,-32.0,21.0,-7.0,0
15.0,-252.0,-59.0,-25.0,19.0,-6.0,0
18.0,-251.0,-61.0,-23.0,16.0,-8.0,0
16.0,-249.0,-58.0,-22.0,16.0,-7.0,0
16.0,-249.0,-58.0,-22.0,13.0,-7.0,0
15.0,-249.0,-59.0,-28.0,12.0,-7.0,0
18.0,-249.0,-57.0,-33.0,12.0,-6.0,0
16.0,-248.0,-61.0,-39.0,13.0,-5.0,0
17.0,-248.0,-55.0,-47.0,13.0,-4.0,0
17.0,-248.0,-57.0,-57.0,15.0,-5.0,0
16.0,-249.0,-58.0,-67.0,14.0,-3.0,0
21.0,-251.0,-55.0,-70.0,14.0,-5.0,0
17.0,-249.0,-60.0,-75.0,11.0,-6.0,0
15.0,-249.0,-57.0,-77.0,9.0,-8.0,0
19.0,-252.0,-60.0,-77.0,6.0,-8.0,0
15.0,-249.0,-58.0,-75.0,5.0,-9.0,0
16.0,-251.0,-58.0,-72.0,3.0,-9.0,0
15.0,-250.0,-56.0,-68.0,1.0,-8.0,0
15.0,-248.0,-57.0,-67.0,1.0,-5.0,0
16.0,-252.0,-59.0,-69.0,2.0,-2.0,0
17.0,-251.0,-62.0,-71.0,2.0,0.0,0
13.0,-249.0,-62.0,-72.0,5.0,3.0,0
15.0,-249.0,-58.0,-74.0,7.0,5.0,0
15.0,-249.0,-63.0,-72.0,9.0,4.0,0
18.0,-249.0,-67.0,-67.0,11.0,2.0,0
18.0,-248.0,-68.0,-61.0,12.0,-2.0,0
19.0,-248.0,-66.0,-52.0,9.0,-6.0,0
18.0,-251.0,-64.0,-46.0,9.0,-10.0,0
20.0,-249.0,-61.0,-44.0,9.0,-12.0,0
21.0,-249.0,-62.0,-41.0,13.0,-16.0,0
21.0,-250.0,-63.0,-43.0,17.0,-19.0,0
20.0,-249.0,-64.0,-45.0,24.0,-24.0,0
16.0,-252.0,-69.0,-52.0,29.0,-22.0,0
22.0,-251.0,-58.0,-61.0,36.0,-21.0,0
22.0,-252.0,-63.0,-65.0,38.0,-23.0,0
20.0,-254.0,-60.0,-68.0,41.0,-24.0,0
18.0,-254.0,-61.0,-68.0,42.0,-23.0,0
17.0,-254.0,-60.0,-68.0,41.0,-21.0,0
18.0,-252.0,-59.0,-69.0,39.0,-20.0,0
15.0,-250.0,-62.0,-71.0,36.0,-19.0,0
10.0,-251.0,-64.0,-73.0,28.0,-16.0,0
16.0,-252.0,-66.0,-78.0,21.0,-11.0,0
15.0,-252.0,-66.0,-83.0,14.0,-6.0,0
15.0,-252.0,-64.0,-87.0,11.0,-4.0,0
14.0,-251.0,-64.0,-91.0,10.0,-2.0,0
17.0,-255.0,-69.0,-93.0,9.0,0.0,0
14.0,-252.0,-65.0,-94.0,8.0,2.0,0
13.0,-249.0,-66.0,-93.0,6.0,3.0,0
15.0,-252.0,-67.0,-89.0,5.0,5.0,0
14.0,-253.0,-64.0,-83.0,5.0,6.0,0
17.0,-255.0,-67.0,-76.0,6.0,5.0,0
19.0,-255.0,-67.0,-66.0,6.0,5.0,0
18.0,-253.0,-61.0,-56.0,10.0,5.0,0
20.0,-255.0,-60.0,-45.0,13.0,4.0,0
15.0,-257.0,-59.0,-34.0,17.0,5.0,0
17.0,-254.0,-61.0,-22.0,19.0,2.0,0
15.0,-252.0,-65.0,-13.0,21.0,0.0,0
17.0,-249.0,-60.0,-6.0,22.0,-1.0,0
17.0,-253.0,-60.0,-1.0,23.0,-3.0,0
14.0,-250.0,-56.0,0.0,24.0,-5.0,0
17.0,-250.0,-61.0,-1.0,25.0,-6.0,0
16.0,-255.0,-57.0,-4.0,26.0,-8.0,0
18.0,-249.0,-59.0,-7.0,26.0,-10.0,0
13.0,-247.0,-57.0,-10.0,26.0,-9.0,0
12.0,-252.0,-62.0,-17.0,28.0,-4.0,0
16.0,-250.0,-58.0,-29.0,29.0,1.0,0
15.0,-246.0,-54.0,-24.0,27.0,-8.0,0
16.0,-253.0,-61.0,-18.0,21.0,-10.0,0
13.0,-247.0,-58.0,-17.0,23.0,-10.0,0
15.0,-248.0,-62.0,-16.0,27.0,-10.0,0
17.0,-248.0,-61.0,-18.0,31.0,-11.0,0
17.0,-251.0,-62.0,-21.0,34.0,-10.0,0
15.0,-249.0,-62.0,-26.0,36.0,-8.0,0
17.0,-251.0,-65.0,-31.0,38.0,-10.0,0
20.0,-248.0,-60.0,-33.0,38.0,-12.0,0
18.0,-250.0,-61.0,-35.0,40.0,-13.0,0
19.0,-252.0,-61.0,-42.0,44.0,-12.0,0
15.0,-248.0,-59.0,-47.0,45.0,-10.0,0
17.0,-249.0,-58.0,-54.0,46.0,-8.0,0
17.0,-250.0,-59.0,-58.0,48.0,-5.0,0
14.0,-251.0,-62.0,-60.0,47.0,-3.0,0
15.0,-251.0,-57.0,-60.0,45.0,-2.0,0
16.0,-251.0,-61.0,-60.0,42.0,1.0,0
14.0,-252.0,-60.0,-57.0,39.0,3.0,0
16.0,-252.0,-62.0,-55.0,37.0,4.0,0
15.0,-254.0,-66.0,-54.0,33.0,5.0,0
16.0,-254.0,-68.0,-52.0,32.0,6.0,0
14.0,-251.0,-65.0,-52.0,30.0,5.0,0
14.0,-252.0,-63.0,-53.0,31.0,6.0,0
14.0,-250.0,-63.0,-53.0,33.0,7.0,0
15.0,-250.0,-63.0,-50.0,35.0,8.0,0
16.0,-255.0,-66.0,-46.0,36.0,7.0,0
15.0,-254.0,-66.0,-42.0,38.0,6.0,0
14.0,-253.0,-65.0,-37.0,39.0,5.0,0
14.0,-251.0,-64.0,-35.0,39.0,1.0,0
15.0,-250.0,-65.0,-34.0,40.0,1.0,0
15.0,-251.0,-62.0,-30.0,41.0,-2.0,0
13.0,-250.0,-65.0,-29.0,41.0,-3.0,0
15.0,-250.0,-61.0,-30.0,41.0,-6.0,0
16.0,-250.0,-60.0,-33.0,44.0,-7.0,0
18.0,-250.0,-64.0,-38.0,44.0,-6.0,0
14.0,-249.0,-62.0,-44.0,46.0,-7.0,0
17.0,-251.0,-63.0,-52.0,44.0,-9.0,0
15.0,-251.0,-61.0,-61.0,43.0,-9.0,0
16.0,-251.0,-63.0,-68.0,44.0,-8.0,0
15.0,-253.0,-62.0,-69.0,44.0,-8.0,0
15.0,-252.0,-62.0,-71.0,39.0,-8.0,0
15.0,-255.0,-62.0,-69.0,35.0,-6.0,0
13.0,-255.0,-60.0,-64.0,33.0,-6.0,0
15.0,-254.0,-58.0,-57.0,30.0,-6.0,0
16.0,-254.0,-64.0,-48.0,27.0,-5.0,0
15.0,-251.0,-65.0,-41.0,23.0,-4.0,0
17.0,-254.0,-61.0,-36.0,20.0,-2.0,0
15.0,-251.0,-62.0,-30.0,19.0,-5.0,0
15.0,-252.0,-66.0,-30.0,16.0,-2.0,0
12.0,-249.0,-63.0,-27.0,16.0,-1.0,0
12.0,-251.0,-64.0,-28.0,15.0,0.0,0
14.0,-251.0,-65.0,-31.0,15.0,0.0,0
12.0,-249.0,-64.0,-34.0,12.0,1.0,0
13.0,-253.0,-62.0,-38.0,10.0,1.0,0
14.0,-251.0,-61.0,-44.0,7.0,0.0,0
13.0,-249.0,-62.0,-45.0,5.0,3.0,0
11.0,-249.0,-60.0,-48.0,5.0,2.0,0
14.0,-252.0,-61.0,-52.0,3.0,2.0,0
14.0,-253.0,-61.0,-56.0,3.0,1.0,0
15.0,-251.0,-65.0,-56.0,4.0,0.0,0
14.0,-251.0,-62.0,-55.0,9.0,-1.0,0
14.0,-253.0,-64.0,-51.0,12.0,-3.0,0
15.0,-255.0,-61.0,-49.0,14.0,-5.0,0
13.0,-249.0,-65.0,-51.0,15.0,-6.0,0
11.0,-251.0,-61.0,-51.0,11.0,-3.0,0
13.0,-252.0,-63.0,-51.0,5.0,-1.0,0
14.0,-250.0,-61.0,-51.0,-2.0,3.0,0
14.0,-252.0,-60.0,-53.0,-9.0,6.0,0
15.0,-251.0,-64.0,-55.0,-12.0,9.0,0
13.0,-250.0,-62.0,-56.0,-14.0,12.0,0
15.0,-252.0,-62.0,-58.0,-14.0,15.0,0
15.0,-251.0,-64.0,-58.0,-13.0,18.0,0
15.0,-250.0,-66.0,-61.0,-11.0,19.0,0
15.0,-250.0,-63.0,-62.0,-9.0,21.0,0
15.0,-251.0,-62.0,-67.0,-5.0,22.0,0
19.0,-252.0,-64.0,-68.0,-1.0,22.0,0
13.0,-249.0,-59.0,-71.0,3.0,23.0,0
16.0,-249.0,-64.0,-71.0,5.0,23.0,0
16.0,-249.0,-59.0,-72.0,7.0,22.0,0
15.0,-252.0,-57.0,-73.0,9.0,23.0,0
16.0,-252.0,-62.0,-73.0,12.0,22.0,0
18.0,-252.0,-58.0,-72.0,15.0,21.0,0
15.0,-253.0,-60.0,-72.0,16.0,20.0,0
18.0,-254.0,-59.0,-70.0,19.0,19.0,0
15.0,-253.0,-58.0,-70.0,23.0,18.0,0
17.0,-254.0,-60.0,-67.0,26.0,15.0,0
17.0,-251.0,-62.0,-63.0,29.0,13.0,0
16.0,-253.0,-62.0,-62.0,33.0,9.0,0
17.0,-254.0,-59.0,-59.0,35.0,6.0,0
19.0,-250.0,-60.0,-55.0,38.0,4.0,0
18.0,-251.0,-62.0,-50.0,42.0,0.0,0
18.0,-254.0,-61.0,-48.0,44.0,-3.0,0
16.0,-249.0,-62.0,-46.0,48.0,-6.0,0
16.0,-249.0,-61.0,-43.0,52.0,-7.0,0
15.0,-251.0,-63.0,-39.0,55.0,-10.0,0
18.0,-252.0,-64.0,-38.0,57.0,-13.0,0
18.0,-249.0,-61.0,-38.0,62.0,-16.0,0
10.0,-253.0,-67.0,-39.0,64.0,-17.0,0
16.0,-252.0,-63.0,-44.0,64.0,-19.0,0
14.0,-251.0,-61.0,-47.0,63.0,-20.0,0
15.0,-252.0,-62.0,-52.0,61.0,-22.0,0
12.0,-252.0,-64.0,-56.0,58.0,-24.0,0
14.0,-253.0,-65.0,-60.0,56.0,-26.0,0
8.0,-254.0,-63.0,-62.0,53.0,-25.0,0
12.0,-252.0,-59.0,-61.0,52.0,-25.0,0
11.0,-252.0,-61.0,-60.0,48.0,-26.0,0
12.0,-251.0,-62.0,-60.0,48.0,-26.0,0
8.0,-252.0,-63.0,-58.0,45.0,-24.0,0
10.0,-251.0,-62.0,-58.0,41.0,-23.0,0
12.0,-254.0,-61.0,-57.0,37.0,-20.0,0
12.0,-254.0,-62.0,-55.0,34.0,-18.0,0
12.0,-253.0,-63.0,-56.0,28.0,-18.0,0
11.0,-254.0,-63.0,-54.0,22.0,-16.0,0
12.0,-251.0,-65.0,-52.0,16.0,-15.0,0
12.0,-252.0,-64.0,-49.0,12.0,-15.0,0
9.0,-249.0,-66.0,-48.0,8.0,-14.0,0
13.0,-252.0,-65.0,-47.0,5.0,-13.0,0
13.0,-254.0,-64.0,-46.0,2.0,-11.0,0
12.0,-253.0,-70.0,-44.0,-2.0,-11.0,0
11.0,-257.0,-67.0,-45.0,-4.0,-10.0,0
14.0,-252.0,-70.0,-44.0,-7.0,-9.0,0
14.0,-253.0,-67.0,-41.0,-11.0,-7.0,0
14.0,-253.0,-67.0,-40.0,-15.0,-9.0,0
14.0,-250.0,-65.0,-39.0,-18.0,-9.0,0
17.0,-255.0,-64.0,-36.0,-20.0,-9.0,0
17.0,-252.0,-65.0,-34.0,-22.0,-11.0,0
15.0,-251.0,-63.0,-35.0,-25.0,-10.0,0
16.0,-253.0,-68.0,-35.0,-26.0,-10.0,0
14.0,-249.0,-65.0,-38.0,-28.0,-11.0,0
17.0,-250.0,-64.0,-41.0,-30.0,-11.0,0
19.0,-249.0,-65.0,-44.0,-29.0,-11.0,0
17.0,-251.0,-66.0,-44.0,-28.0,-11.0,0
16.0,-251.0,-61.0,-43.0,-29.0,-11.0,0
15.0,-250.0,-63.0,-41.0,-30.0,-12.0,0
18.0,-251.0,-61.0,-37.0,-32.0,-10.0,0
17.0,-250.0,-60.0,-33.0,-33.0,-9.0,0
16.0,-250.0,-63.0,-31.0,-36.0,-9.0,0
17.0,-250.0,-67.0,-29.0,-37.0,-8.0,0
14.0,-249.0,-62.0,-32.0,-40.0,-8.0,0
16.0,-252.0,-60.0,-33.0,-41.0,-6.0,0
19.0,-252.0,-68.0,-37.0,-42.0,-7.0,0
16.0,-249.0,-63.0,-41.0,-42.0,-7.0,0
15.0,-249.0,-60.0,-44.0,-42.0,-6.0,0
14.0,-250.0,-64.0,-46.0,-41.0,-7.0,0
17.0,-250.0,-62.0,-48.0,-40.0,-6.0,0
16.0,-248.0,-66.0,-48.0,-38.0,-6.0,0
17.0,-249.0,-62.0,-49.0,-37.0,-7.0,0
16.0,-249.0,-62.0,-50.0,-36.0,-7.0,0
16.0,-251.0,-65.0,-51.0,-34.0,-6.0,0
17.0,-252.0,-63.0,-53.0,-34.0,-8.0,0
17.0,-250.0,-66.0,-54.0,-31.0,-8.0,0
19.0,-251.0,-71.0,-55.0,-30.0,-8.0,0
18.0,-252.0,-74.0,-55.0,-30.0,-9.0,0
17.0,-251.0,-66.0,-55.0,-26.0,-11.0,0
18.0,-254.0,-68.0,-53.0,-25.0,-11.0,0
19.0,-251.0,-68.0,-50.0,-24.0,-12.0,0
18.0,-254.0,-67.0,-49.0,-25.0,-13.0,0
17.0,-252.0,-66.0,-46.0,-24.0,-15.0,0
14.0,-252.0,-68.0,-44.0,-23.0,-15.0,0
17.0,-251.0,-66.0,-40.0,-25.0,-16.0,0
17.0,-254.0,-66.0,-38.0,-27.0,-15.0,0
17.0,-253.0,-64.0,-36.0,-28.0,-15.0,0
17.0,-247.0,-63.0,-32.0,-28.0,-13.0,0
18.0,-253.0,-62.0,-31.0,-31.0,-11.0,0
14.0,-252.0,-68.0,-33.0,-31.0,-11.0,0
15.0,-249.0,-65.0,-34.0,-33.0,-9.0,0
14.0,-251.0,-66.0,-34.0,-34.0,-8.0,0
16.0,-252.0,-67.0,-36.0,-35.0,-6.0,0
14.0,-251.0,-68.0,-41.0,-36.0,-6.0,0
17.0,-249.0,-67.0,-44.0,-35.0,-6.0,0
15.0,-251.0,-67.0,-49.0,-34.0,-5.0,0
14.0,-251.0,-66.0,-56.0,-33.0,-5.0,0
14.0,-250.0,-66.0,-61.0,-34.0,-4.0,0
15.0,-250.0,-67.0,-63.0,-34.0,-3.0,0
15.0,-251.0,-66.0,-63.0,-36.0,-4.0,0
18.0,-252.0,-65.0,-61.0,-36.0,-2.0,0
19.0,-250.0,-63.0,-59.0,-34.0,0.0,0
17.0,-249.0,-66.0,-56.0,-31.0,2.0,0
20.0,-251.0,-65.0,-50.0,-26.0,3.0,0
19.0,-253.0,-69.0,-46.0,-20.0,5.0,0
14.0,-255.0,-66.0,-40.0,-14.0,6.0,0
10.0,-252.0,-68.0,-38.0,-11.0,7.0,0
11.0,-249.0,-67.0,-39.0,-13.0,11.0,0
11.0,-250.0,-65.0,-43.0,-16.0,16.0,0
7.0,-254.0,-66.0,-51.0,-22.0,19.0,0
12.0,-247.0,-69.0,-59.0,-27.0,25.0,0
14.0,-250.0,-68.0,-66.0,-29.0,29.0,0
11.0,-250.0,-70.0,-75.0,-27.0,32.0,0
8.0,-250.0,-69.0,-84.0,-24.0,37.0,0
7.0,-251.0,-74.0,-91.0,-21.0,44.0,0
5.0,-252.0,-69.0,-98.0,-21.0,51.0,0
10.0,-252.0,-68.0,-102.0,-22.0,62.0,0
7.0,-250.0,-66.0,-103.0,-22.0,72.0,0
6.0,-255.0,-65.0,-100.0,-20.0,84.0,0
5.0,-251.0,-65.0,-95.0,-18.0,96.0,0
3.0,-253.0,-66.0,-90.0,-15.0,108.0,0
8.0,-257.0,-66.0,-88.0,-12.0,119.0,0
4.0,-252.0,-67.0,-89.0,-6.0,129.0,0
6.0,-254.0,-70.0,-90.0,4.0,138.0,0
4.0,-255.0,-68.0,-94.0,16.0,144.0,0
7.0,-255.0,-69.0,-98.0,31.0,147.0,0
8.0,-257.0,-67.0,-105.0,46.0,150.0,0
10.0,-257.0,-65.0,-115.0,60.0,151.0,0
11.0,-253.0,-66.0,-123.0,70.0,149.0,0
9.0,-254.0,-65.0,-128.0,76.0,147.0,0
10.0,-254.0,-64.0,-133.0,84.0,143.0,0
9.0,-253.0,-58.0,-134.0,85.0,141.0,0
8.0,-254.0,-64.0,-135.0,82.0,140.0,0
9.0,-256.0,-62.0,-133.0,80.0,140.0,0
6.0,-251.0,-63.0,-132.0,78.0,140.0,0
6.0,-249.0,-59.0,-128.0,79.0,142.0,0
4.0,-251.0,-64.0,-124.0,80.0,143.0,0
-3.0,-250.0,-60.0,-118.0,84.0,144.0,0
0.0,-249.0,-57.0,-115.0,91.0,146.0,0
1.0,-247.0,-59.0,-114.0,99.0,146.0,0
3.0,-247.0,-57.0,-112.0,109.0,147.0,0
-1.0,-245.0,-63.0,-112.0,121.0,142.0,0
2.0,-244.0,-60.0,-113.0,131.0,139.0,0
-1.0,-242.0,-60.0,-120.0,142.0,134.0,0
-2.0,-239.0,-62.0,-128.0,150.0,128.0,0
2.0,-240.0,-67.0,-137.0,161.0,120.0,0
1.0,-239.0,-64.0,-149.0,173.0,112.0,0
0.0,-238.0,-62.0,-164.0,186.0,100.0,0
1.0,-237.0,-62.0,-176.0,197.0,91.0,0
-1.0,-240.0,-57.0,-190.0,207.0,78.0,0
4.0,-240.0,-58.0,-200.0,215.0,64.0,0
5.0,-244.0,-59.0,-206.0,220.0,52.0,0
5.0,-246.0,-53.0,-208.0,225.0,38.0,0
0.0,-243.0,-54.0,-210.0,230.0,22.0,0
7.0,-247.0,-54.0,-205.0,237.0,8.0,0
11.0,-247.0,-53.0,-199.0,247.0,-7.0,0
9.0,-248.0,-55.0,-191.0,257.0,-23.0,0
4.0,-250.0,-55.0,-179.0,270.0,-36.0,0
7.0,-254.0,-54.0,-165.0,280.0,-53.0,0
7.0,-251.0,-54.0,-151.0,288.0,-69.0,0
10.0,-252.0,-53.0,-133.0,294.0,-82.0,0
10.0,-254.0,-54.0,-118.0,299.0,-95.0,0
9.0,-252.0,-56.0,-101.0,305.0,-105.0,0
9.0,-255.0,-55.0,-82.0,311.0,-114.0,0
8.0,-254.0,-55.0,-63.0,320.0,-124.0,0
8.0,-255.0,-53.0,-47.0,331.0,-132.0,0
9.0,-257.0,-53.0,-27.0,342.0,-137.0,0
10.0,-255.0,-50.0,-8.0,355.0,-140.0,0
12.0,-256.0,-48.0,10.0,367.0,-142.0,0
10.0,-254.0,-52.0,23.0,376.0,-140.0,0
8.0,-254.0,-50.0,29.0,380.0,-142.0,0
7.0,-257.0,-55.0,32.0,374.0,-143.0,0
3.0,-256.0,-53.0,30.0,363.0,-144.0,0
8.0,-257.0,-57.0,25.0,349.0,-145.0,0
9.0,-255.0,-59.0,16.0,335.0,-145.0,0
9.0,-250.0,-61.0,5.0,325.0,-148.0,0
9.0,-251.0,-63.0,-10.0,321.0,-151.0,0
8.0,-254.0,-61.0,-26.0,322.0,-152.0,0
11.0,-253.0,-67.0,-45.0,328.0,-153.0,0
12.0,-257.0,-61.0,-64.0,337.0,-154.0,0
10.0,-257.0,-58.0,-79.0,346.0,-156.0,0
10.0,-258.0,-53.0,-90.0,350.0,-158.0,0
10.0,-257.0,-52.0,-95.0,347.0,-160.0,0
7.0,-256.0,-55.0,-94.0,336.0,-165.0,0
11.0,-257.0,-50.0,-85.0,322.0,-169.0,0
13.0,-256.0,-47.0,-74.0,307.0,-175.0,0
10.0,-252.0,-56.0,-67.0,295.0,-181.0,0
11.0,-248.0,-60.0,-64.0,286.0,-188.0,0
13.0,-248.0,-63.0,-72.0,288.0,-199.0,0
15.0,-246.0,-64.0,-89.0,300.0,-210.0,0
22.0,-241.0,-70.0,-119.0,320.0,-221.0,0
24.0,-240.0,-79.0,-163.0,347.0,-233.0,0
27.0,-232.0,-85.0,-218.0,384.0,-243.0,0
31.0,-238.0,-91.0,-278.0,427.0,-252.0,0
33.0,-237.0,-100.0,-345.0,473.0,-256.0,0
31.0,-231.0,-108.0,-419.0,518.0,-254.0,0
40.0,-221.0,-113.0,-495.0,562.0,-240.0,0
44.0,-220.0,-135.0,-575.0,607.0,-229.0,0
46.0,-203.0,-129.0,-647.0,651.0,-219.0,0
50.0,-217.0,-138.0,-713.0,693.0,-203.0,0
63.0,-198.0,-118.0,-776.0,736.0,-180.0,0
67.0,-190.0,-127.0,-824.0,769.0,-149.0,0
64.0,-181.0,-131.0,-853.0,786.0,-116.0,0
69.0,-176.0,-104.0,-854.0,776.0,-76.0,0
74.0,-166.0,-91.0,-828.0,738.0,-30.0,0
69.0,-171.0,-72.0,-769.0,680.0,20.0,0
75.0,-174.0,-51.0,-678.0,603.0,69.0,0
73.0,-170.0,-57.0,-556.0,523.0,115.0,0
65.0,-175.0,-53.0,-413.0,448.0,155.0,0
63.0,-185.0,-55.0,-261.0,371.0,180.0,0
54.0,-196.0,-57.0,-114.0,292.0,179.0,0
34.0,-208.0,-67.0,16.0,210.0,156.0,0
13.0,-212.0,-68.0,117.0,132.0,120.0,0
2.0,-209.0,-78.0,188.0,64.0,70.0,0
-16.0,-228.0,-68.0,234.0,12.0,11.0,0
-26.0,-222.0,-64.0,267.0,-28.0,-45.0,0
-30.0,-219.0,-56.0,300.0,-59.0,-115.0,0
-39.0,-216.0,-36.0,334.0,-82.0,-196.0,0
-38.0,-220.0,-17.0,377.0,-92.0,-274.0,0
-37.0,-211.0,-7.0,427.0,-92.0,-349.0,0
-38.0,-209.0,11.0,485.0,-86.0,-411.0,0
-30.0,-213.0,19.0,564.0,-64.0,-458.0,0
-31.0,-203.0,37.0,684.0,-32.0,-492.0,0
-25.0,-199.0,41.0,849.0,8.0,-511.0,0
-17.0,-200.0,42.0,1043.0,51.0,-520.0,0
-11.0,-191.0,41.0,1251.0,92.0,-507.0,0
-7.0,-202.0,44.0,1456.0,128.0,-471.0,0
3.0,-187.0,56.0,1661.0,154.0,-427.0,0
5.0,-192.0,40.0,1860.0,154.0,-390.0,0
8.0,-169.0,13.0,2047.0,122.0,-373.0,0
18.0,-166.0,16.0,2207.0,64.0,-374.0,0
10.0,-153.0,7.0,2325.0,-12.0,-378.0,0
15.0,-167.0,6.0,2386.0,-96.0,-368.0,0
28.0,-183.0,7.0,2377.0,-182.0,-350.0,0
16.0,-174.0,-17.0,2279.0,-255.0,-330.0,0
26.0,-185.0,4.0,2066.0,-321.0,-307.0,0
24.0,-197.0,17.0,1755.0,-380.0,-283.0,0
25.0,-215.0,36.0,1375.0,-436.0,-263.0,0
25.0,-241.0,50.0,955.0,-500.0,-237.0,0
31.0,-260.0,69.0,522.0,-571.0,-211.0,0
43.0,-290.0,82.0,107.0,-649.0,-197.0,0
71.0,-317.0,103.0,-271.0,-727.0,-189.0,0
65.0,-352.0,110.0,-608.0,-798.0,-180.0,0
73.0,-382.0,110.0,-898.0,-861.0,-176.0,0
88.0,-412.0,101.0,-1132.0,-921.0,-184.0,0
104.0,-448.0,95.0,-1309.0,-982.0,-203.0,0
102.0,-486.0,78.0,-1426.0,-1035.0,-248.0,0
117.0,-523.0,68.0,-1483.0,-1072.0,-290.0,0
122.0,-561.0,53.0,-1476.0,-1078.0,-342.0,0
136.0,-587.0,41.0,-1418.0,-1039.0,-386.0,0
144.0,-610.0,33.0,-1324.0,-967.0,-434.0,0
133.0,-635.0,20.0,-1214.0,-875.0,-482.0,0
121.0,-652.0,-2.0,-1114.0,-774.0,-515.0,0
121.0,-653.0,0.0,-1031.0,-667.0,-554.0,0
121.0,-661.0,-12.0,-968.0,-564.0,-605.0,0
124.0,-655.0,-12.0,-923.0,-462.0,-654.0,0
143.0,-647.0,-15.0,-905.0,-373.0,-697.0,0
152.0,-624.0,-27.0,-903.0,-300.0,-727.0,0
157.0,-608.0,-27.0,-923.0,-229.0,-739.0,0
179.0,-593.0,-8.0,-960.0,-163.0,-743.0,0
166.0,-549.0,-23.0,-1016.0,-102.0,-743.0,0
178.0,-531.0,-27.0,-1074.0,-53.0,-736.0,0
167.0,-516.0,-14.0,-1127.0,-10.0,-714.0,0
157.0,-497.0,-16.0,-1160.0,22.0,-679.0,0
143.0,-465.0,-10.0,-1175.0,43.0,-643.0,0
134.0,-424.0,-3.0,-1172.0,55.0,-608.0,0
129.0,-409.0,0.0,-1150.0,63.0,-580.0,0
111.0,-380.0,-5.0,-1119.0,63.0,-563.0,0
110.0,-357.0,3.0,-1090.0,59.0,-563.0,0
108.0,-325.0,4.0,-1068.0,51.0,-588.0,0
101.0,-294.0,8.0,-1050.0,37.0,-650.0,0
81.0,-249.0,11.0,-1025.0,11.0,-734.0,0
59.0,-192.0,9.0,-996.0,-26.0,-816.0,0
45.0,-151.0,29.0,-973.0,-80.0,-895.0,0
32.0,-102.0,6.0,-975.0,-158.0,-960.0,0
25.0,-66.0,15.0,-985.0,-204.0,-1014.0,0
4.0,-14.0,-21.0,-996.0,-211.0,-1046.0,0
19.0,27.0,-41.0,-1042.0,-195.0,-1019.0,0
23.0,51.0,-67.0,-1151.0,-179.0,-969.0,0
-11.0,72.0,-97.0,-1333.0,-188.0,-896.0,0
-8.0,59.0,-114.0,-1575.0,-200.0,-790.0,0
-17.0,60.0,-153.0,-1858.0,-221.0,-634.0,0
-21.0,46.0,-194.0,-2135.0,-262.0,-435.0,0
-20.0,10.0,-227.0,-2393.0,-317.0,-204.0,0
-36.0,-8.0,-227.0,-2618.0,-376.0,34.0,0
-71.0,-34.0,-229.0,-2755.0,-432.0,289.0,0
-74.0,-72.0,-213.0,-2777.0,-493.0,584.0,0
-71.0,-98.0,-189.0,-2691.0,-591.0,840.0,0
-75.0,-144.0,-159.0,-2484.0,-700.0,1043.0,0
-71.0,-160.0,-131.0,-2157.0,-781.0,1193.0,0
-66.0,-188.0,-117.0,-1738.0,-803.0,1309.0,0
-38.0,-201.0,-107.0,-1277.0,-778.0,1396.0,0
7.0,-217.0,-94.0,-786.0,-724.0,1464.0,0
47.0,-225.0,-101.0,-249.0,-617.0,1517.0,0
87.0,-229.0,-110.0,349.0,-428.0,1555.0,0
122.0,-234.0,-114.0,954.0,-161.0,1578.0,0
153.0,-236.0,-113.0,1574.0,167.0,1584.0,0
188.0,-243.0,-116.0,2185.0,518.0,1546.0,0
230.0,-257.0,-119.0,2782.0,868.0,1447.0,0
247.0,-264.0,-138.0,3322.0,1205.0,1256.0,0
268.0,-266.0,-150.0,3701.0,1458.0,1013.0,0
297.0,-282.0,-162.0,3892.0,1580.0,724.0,0
289.0,-252.0,-201.0,3893.0,1613.0,381.0,0
265.0,-237.0,-228.0,3674.0,1603.0,36.0,0
243.0,-220.0,-252.0,3255.0,1581.0,-217.0,0
224.0,-202.0,-261.0,2694.0,1569.0,-391.0,0
198.0,-195.0,-258.0,2052.0,1585.0,-516.0,0
173.0,-188.0,-232.0,1376.0,1630.0,-571.0,0
135.0,-184.0,-199.0,740.0,1697.0,-595.0,0
103.0,-184.0,-149.0,203.0,1766.0,-613.0,0
40.0,-185.0,-86.0,-219.0,1803.0,-629.0,0
-19.0,-194.0,-32.0,-507.0,1789.0,-610.0,0
-81.0,-193.0,21.0,-694.0,1708.0,-549.0,0
-114.0,-212.0,57.0,-848.0,1575.0,-403.0,0
-124.0,-238.0,84.0,-1024.0,1413.0,-196.0,0
-118.0,-272.0,108.0,-1226.0,1249.0,0.0,0
-110.0,-324.0,105.0,-1455.0,1091.0,192.0,0
-99.0,-376.0,96.0,-1712.0,957.0,393.0,0
-90.0,-422.0,73.0,-1980.0,852.0,577.0,0
-96.0,-468.0,40.0,-2253.0,772.0,746.0,0
-113.0,-510.0,7.0,-2535.0,702.0,917.0,0
-134.0,-565.0,-29.0,-2819.0,622.0,1100.0,0
-151.0,-622.0,-59.0,-3079.0,523.0,1289.0,0
-183.0,-669.0,-108.0,-3297.0,373.0,1429.0,0
-211.0,-697.0,-168.0,-3476.0,110.0,1476.0,0
-223.0,-715.0,-209.0,-3601.0,-253.0,1460.0,0
-226.0,-734.0,-235.0,-3600.0,-669.0,1433.0,0
-215.0,-754.0,-236.0,-3367.0,-1063.0,1383.0,0
-199.0,-772.0,-234.0,-2894.0,-1375.0,1324.0,0
-180.0,-790.0,-203.0,-2300.0,-1610.0,1269.0,0
-152.0,-787.0,-177.0,-1623.0,-1758.0,1250.0,0
-122.0,-779.0,-161.0,-881.0,-1832.0,1233.0,0
-105.0,-736.0,-155.0,-163.0,-1876.0,1205.0,0
-98.0,-677.0,-151.0,445.0,-1964.0,1167.0,0
-93.0,-588.0,-154.0,913.0,-2091.0,1102.0,0
-85.0,-480.0,-171.0,1256.0,-2224.0,1000.0,0
-84.0,-348.0,-206.0,1523.0,-2322.0,884.0,0
-78.0,-226.0,-246.0,1723.0,-2311.0,848.0,0
-60.0,-127.0,-273.0,1833.0,-2194.0,890.0,0
-46.0,-49.0,-261.0,1827.0,-2016.0,949.0,0
-16.0,3.0,-263.0,1757.0,-1790.0,1017.0,0
-13.0,48.0,-252.0,1577.0,-1519.0,1051.0,0
84.0,68.0,-224.0,1324.0,-1271.0,1058.0,0
153.0,64.0,-205.0,1008.0,-1108.0,882.0,0
181.0,51.0,-186.0,592.0,-916.0,551.0,0
204.0,43.0,-152.0,115.0,-722.0,211.0,0
213.0,46.0,-99.0,-301.0,-493.0,-78.0,0
208.0,46.0,-55.0,-546.0,-189.0,-373.0,0
204.0,46.0,-12.0,-646.0,128.0,-664.0,0
161.0,53.0,-7.0,-630.0,387.0,-938.0,0
130.0,68.0,8.0,-613.0,572.0,-1163.0,0
130.0,64.0,22.0,-575.0,736.0,-1279.0,0
157.0,54.0,69.0,-451.0,887.0,-1344.0,0
144.0,56.0,71.0,-147.0,1042.0,-1507.0,0
121.0,47.0,62.0,233.0,1091.0,-1658.0,0
97.0,44.0,37.0,591.0,1037.0,-1747.0,0
53.0,63.0,10.0,869.0,892.0,-1784.0,0
22.0,89.0,-12.0,1147.0,664.0,-1777.0,0
-9.0,114.0,-57.0,1445.0,351.0,-1777.0,0
-41.0,137.0,-108.0,1750.0,-14.0,-1783.0,0
-73.0,155.0,-166.0,2071.0,-367.0,-1793.0,0
-105.0,168.0,-229.0,2392.0,-666.0,-1773.0,0
-133.0,156.0,-284.0,2667.0,-883.0,-1683.0,0
-143.0,135.0,-316.0,2867.0,-1038.0,-1526.0,0
-133.0,100.0,-329.0,2980.0,-1161.0,-1341.0,0
-137.0,73.0,-316.0,2989.0,-1263.0,-1181.0,0
-133.0,41.0,-280.0,2903.0,-1310.0,-1043.0,0
-148.0,8.0,-235.0,2750.0,-1275.0,-916.0,0
-171.0,-35.0,-176.0,2487.0,-1137.0,-725.0,0
-171.0,-81.0,-110.0,1991.0,-915.0,-404.0,0
-133.0,-156.0,-38.0,1237.0,-603.0,14.0,0
-79.0,-253.0,64.0,219.0,-277.0,388.0,0
-57.0,-372.0,191.0,-901.0,4.0,577.0,0
-41.0,-501.0,308.0,-1948.0,175.0,662.0,0
-29.0,-636.0,413.0,-2791.0,185.0,713.0,0
26.0,-758.0,372.0,-3336.0,-38.0,774.0,0
112.0,-832.0,226.0,-3720.0,-465.0,842.0,0
218.0,-890.0,43.0,-4120.0,-960.0,746.0,0
289.0,-902.0,-104.0,-4604.0,-1321.0,328.0,0
309.0,-874.0,-209.0,-5046.0,-1458.0,-228.0,0
316.0,-833.0,-301.0,-5235.0,-1366.0,-662.0,0
330.0,-822.0,-379.0,-5036.0,-1140.0,-921.0,0
363.0,-818.0,-435.0,-4532.0,-849.0,-1113.0,0
332.0,-816.0,-443.0,-3738.0,-436.0,-1280.0,0
293.0,-815.0,-415.0,-2669.0,115.0,-1395.0,0
278.0,-814.0,-370.0,-1420.0,692.0,-1450.0,0
287.0,-801.0,-311.0,-137.0,1216.0,-1477.0,0
292.0,-764.0,-270.0,1076.0,1623.0,-1505.0,0
293.0,-686.0,-241.0,2149.0,1923.0,-1490.0,0
282.0,-575.0,-215.0,3057.0,2126.0,-1420.0,0
245.0,-475.0,-199.0,3823.0,2195.0,-1325.0,0
195.0,-378.0,-192.0,4332.0,2143.0,-1281.0,0
136.0,-272.0,-192.0,4467.0,1984.0,-1317.0,0
74.0,-157.0,-191.0,4202.0,1766.0,-1388.0,0
0.0,-34.0,-178.0,3628.0,1611.0,-1419.0,0
-39.0,70.0,-143.0,2892.0,1508.0,-1285.0,0
-50.0,136.0,-121.0,2129.0,1386.0,-997.0,0
-43.0,174.0,-111.0,1404.0,1215.0,-663.0,0
-38.0,168.0,-117.0,710.0,991.0,-379.0,0
-42.0,177.0,-108.0,46.0,724.0,-151.0,0
-63.0,168.0,-107.0,-539.0,428.0,21.0,0
-96.0,133.0,-84.0,-1034.0,124.0,212.0,0
-137.0,118.0,-39.0,-1400.0,-206.0,489.0,0
-162.0,99.0,-7.0,-1530.0,-570.0,824.0,0
-163.0,67.0,-6.0,-1463.0,-895.0,1149.0,0
-158.0,33.0,-16.0,-1317.0,-1131.0,1415.0,0
-142.0,8.0,-19.0,-1180.0,-1279.0,1603.0,0
-124.0,-4.0,-23.0,-1067.0,-1362.0,1712.0,0
-107.0,8.0,0.0,-912.0,-1381.0,1755.0,0
-94.0,13.0,8.0,-668.0,-1344.0,1769.0,0
-80.0,33.0,12.0,-386.0,-1261.0,1802.0,0
-57.0,54.0,12.0,-81.0,-1147.0,1846.0,0
-21.0,69.0,-9.0,212.0,-1001.0,1904.0,0
18.0,77.0,-32.0,497.0,-801.0,1965.0,0
63.0,86.0,-60.0,790.0,-533.0,1984.0,0
98.0,90.0,-91.0,1100.0,-216.0,1924.0,0
111.0,92.0,-118.0,1419.0,110.0,1806.0,0
113.0,90.0,-149.0,1723.0,399.0,1666.0,0
107.0,93.0,-188.0,2005.0,618.0,1548.0,0
111.0,76.0,-222.0,2272.0,756.0,1472.0,0
115.0,65.0,-258.0,2505.0,820.0,1418.0,0
142.0,45.0,-271.0,2697.0,821.0,1376.0,0
173.0,13.0,-285.0,2815.0,796.0,1327.0,0
211.0,-33.0,-298.0,2760.0,802.0,1224.0,0
245.0,-98.0,-290.0,2411.0,826.0,1002.0,0
253.0,-182.0,-219.0,1708.0,756.0,595.0,0
241.0,-242.0,-134.0,839.0,561.0,17.0,0
204.0,-307.0,-80.0,-62.0,284.0,-584.0,0
169.0,-371.0,7.0,-970.0,-5.0,-1002.0,0
108.0,-453.0,94.0,-1761.0,-249.0,-1220.0,0
34.0,-579.0,178.0,-2393.0,-370.0,-1307.0,0
-77.0,-716.0,235.0,-2894.0,-336.0,-1407.0,0
-210.0,-797.0,152.0,-3258.0,-132.0,-1493.0,0
-250.0,-841.0,62.0,-3695.0,248.0,-1384.0,0
-275.0,-868.0,-51.0,-4204.0,603.0,-1082.0,0
-277.0,-880.0,-181.0,-4752.0,798.0,-640.0,0
-270.0,-880.0,-325.0,-5252.0,799.0,-181.0,0
-247.0,-867.0,-436.0,-5568.0,581.0,271.0,0
-227.0,-854.0,-487.0,-5519.0,201.0,697.0,0
-220.0,-854.0,-489.0,-4956.0,-308.0,1090.0,0
-208.0,-865.0,-466.0,-3910.0,-941.0,1463.0,0
-184.0,-865.0,-425.0,-2460.0,-1613.0,1821.0,0
-149.0,-823.0,-378.0,-732.0,-2217.0,2085.0,0
-120.0,-738.0,-351.0,952.0,-2708.0,2191.0,0
-96.0,-632.0,-317.0,2389.0,-3087.0,2227.0,0
-54.0,-517.0,-291.0,3515.0,-3245.0,2320.0,0
21.0,-407.0,-266.0,4274.0,-3125.0,2479.0,0
74.0,-287.0,-223.0,4632.0,-2771.0,2586.0,0
107.0,-174.0,-171.0,4635.0,-2254.0,2573.0,0
141.0,-67.0,-110.0,4326.0,-1703.0,2458.0,0
165.0,28.0,-55.0,3796.0,-1208.0,2222.0,0
198.0,100.0,-12.0,3091.0,-822.0,1931.0,0
203.0,147.0,-6.0,2274.0,-555.0,1586.0,0
210.0,173.0,3.0,1432.0,-366.0,1176.0,0
208.0,183.0,-4.0,666.0,-222.0,729.0,0
185.0,175.0,-14.0,22.0,-99.0,288.0,0
182.0,162.0,-19.0,-505.0,58.0,-107.0,0
185.0,142.0,-23.0,-903.0,266.0,-478.0,0
182.0,112.0,-27.0,-1200.0,496.0,-835.0,0
168.0,92.0,-42.0,-1400.0,711.0,-1166.0,0
153.0,71.0,-52.0,-1495.0,907.0,-1428.0,0
160.0,66.0,-45.0,-1506.0,1077.0,-1602.0,0
170.0,71.0,-41.0,-1404.0,1208.0,-1748.0,0
175.0,83.0,-17.0,-1195.0,1269.0,-1895.0,0
174.0,109.0,1.0,-897.0,1263.0,-2020.0,0
143.0,135.0,9.0,-498.0,1212.0,-2119.0,0
107.0,147.0,7.0,-33.0,1124.0,-2172.0,0
51.0,153.0,-5.0,473.0,1008.0,-2197.0,0
-15.0,150.0,-21.0,1020.0,872.0,-2216.0,0
-78.0,134.0,-58.0,1577.0,694.0,-2172.0,0
-137.0,107.0,-103.0,2070.0,465.0,-2005.0,0
-176.0,83.0,-148.0,2434.0,210.0,-1719.0,0
-196.0,66.0,-184.0,2636.0,-21.0,-1384.0,0
-194.0,44.0,-226.0,2709.0,-192.0,-1096.0,0
-183.0,37.0,-240.0,2675.0,-293.0,-898.0,0
-172.0,24.0,-237.0,2557.0,-335.0,-787.0,0
-162.0,-2.0,-217.0,2385.0,-356.0,-720.0,0
-153.0,-32.0,-168.0,2140.0,-389.0,-670.0,0
-144.0,-65.0,-107.0,1836.0,-446.0,-615.0,0
-135.0,-110.0,-50.0,1487.0,-498.0,-504.0,0
-137.0,-158.0,8.0,1061.0,-507.0,-315.0,0
-117.0,-232.0,60.0,588.0,-440.0,2.0,0
-84.0,-328.0,90.0,43.0,-368.0,322.0,0
-76.0,-435.0,107.0,-610.0,-354.0,474.0,0
-79.0,-534.0,92.0,-1288.0,-452.0,448.0,0
-118.0,-619.0,45.0,-1962.0,-602.0,331.0,0
-128.0,-702.0,-2.0,-2676.0,-705.0,259.0,0
-58.0,-781.0,-39.0,-3427.0,-833.0,244.0,0
70.0,-835.0,-67.0,-4130.0,-1030.0,149.0,0
215.0,-844.0,-89.0,-4675.0,-1221.0,-147.0,0
322.0,-826.0,-117.0,-4971.0,-1228.0,-506.0,0
406.0,-816.0,-183.0,-4980.0,-961.0,-713.0,0
457.0,-823.0,-270.0,-4726.0,-522.0,-820.0,0
464.0,-839.0,-349.0,-4264.0,-81.0,-965.0,0
435.0,-869.0,-382.0,-3621.0,287.0,-1176.0,0
412.0,-887.0,-371.0,-2749.0,593.0,-1360.0,0
407.0,-895.0,-326.0,-1642.0,872.0,-1444.0,0
400.0,-881.0,-279.0,-363.0,1139.0,-1457.0,0
381.0,-833.0,-233.0,971.0,1368.0,-1401.0,0
359.0,-764.0,-209.0,2220.0,1545.0,-1285.0,0
329.0,-669.0,-211.0,3237.0,1674.0,-1135.0,0
288.0,-563.0,-209.0,3971.0,1766.0,-964.0,0
229.0,-461.0,-213.0,4376.0,1834.0,-844.0,0
175.0,-351.0,-213.0,4440.0,1899.0,-859.0,0
110.0,-236.0,-205.0,4183.0,1961.0,-996.0,0
40.0,-109.0,-192.0,3654.0,1958.0,-1211.0,0
-19.0,1.0,-167.0,2971.0,1902.0,-1394.0,0
-66.0,88.0,-145.0,2244.0,1818.0,-1431.0,0
-74.0,139.0,-130.0,1500.0,1684.0,-1311.0,0
-74.0,172.0,-119.0,764.0,1500.0,-1101.0,0
-59.0,179.0,-110.0,88.0,1292.0,-830.0,0
-38.0,170.0,-108.0,-534.0,1074.0,-540.0,0
-48.0,157.0,-85.0,-1083.0,886.0,-252.0,0
-60.0,124.0,-60.0,-1513.0,743.0,78.0,0
-70.0,79.0,-52.0,-1819.0,624.0,419.0,0
-84.0,31.0,-35.0,-2020.0,503.0,676.0,0
-111.0,-3.0,-37.0,-2113.0,345.0,847.0,0
-129.0,-29.0,-25.0,-2112.0,150.0,978.0,0
-147.0,-51.0,-14.0,-1999.0,-67.0,1115.0,0
-154.0,-65.0,-7.0,-1782.0,-288.0,1256.0,0
-163.0,-60.0,-12.0,-1490.0,-498.0,1404.0,0
-157.0,-59.0,-5.0,-1134.0,-695.0,1561.0,0
-143.0,-45.0,-14.0,-754.0,-859.0,1678.0,0
-122.0,-24.0,-41.0,-390.0,-967.0,1767.0,0
-86.0,2.0,-51.0,-55.0,-993.0,1843.0,0
-59.0,41.0,-48.0,294.0,-932.0,1896.0,0
-23.0,83.0,-86.0,707.0,-760.0,1956.0,0
16.0,101.0,-121.0,1114.0,-492.0,2032.0,0
52.0,123.0,-149.0,1474.0,-185.0,2061.0,0
71.0,155.0,-166.0,1809.0,134.0,2042.0,0
92.0,166.0,-200.0,2153.0,421.0,2024.0,0
97.0,168.0,-235.0,2437.0,672.0,2014.0,0
103.0,153.0,-247.0,2656.0,907.0,2027.0,0
148.0,112.0,-266.0,2812.0,1072.0,2016.0,0
164.0,72.0,-263.0,2758.0,1161.0,1836.0,0
165.0,27.0,-250.0,2524.0,1150.0,1564.0,0
176.0,-51.0,-219.0,2105.0,1068.0,1253.0,0
179.0,-122.0,-156.0,1487.0,938.0,854.0,0
155.0,-184.0,-82.0,797.0,789.0,385.0,0
130.0,-245.0,8.0,35.0,621.0,-49.0,0
134.0,-303.0,106.0,-707.0,460.0,-419.0,0
133.0,-366.0,166.0,-1338.0,338.0,-723.0,0
142.0,-447.0,227.0,-1825.0,288.0,-908.0,0
141.0,-544.0,257.0,-2067.0,358.0,-1062.0,0
79.0,-642.0,208.0,-2070.0,569.0,-1267.0,0
-44.0,-726.0,87.0,-2058.0,949.0,-1451.0,0
-187.0,-760.0,-3.0,-2285.0,1405.0,-1530.0,0
-313.0,-773.0,-79.0,-2761.0,1703.0,-1380.0,0
-355.0,-792.0,-139.0,-3453.0,1719.0,-991.0,0
-313.0,-797.0,-205.0,-4237.0,1435.0,-565.0,0
-216.0,-783.0,-291.0,-4907.0,960.0,-294.0,0
-149.0,-765.0,-379.0,-5343.0,340.0,-94.0,0
-124.0,-772.0,-426.0,-5419.0,-311.0,254.0,0
-121.0,-822.0,-409.0,-5036.0,-914.0,778.0,0
-119.0,-880.0,-384.0,-4124.0,-1476.0,1335.0,0
-123.0,-904.0,-359.0,-2739.0,-1977.0,1809.0,0
-140.0,-889.0,-329.0,-1075.0,-2381.0,2092.0,0
-158.0,-835.0,-290.0,631.0,-2669.0,2197.0,0
-156.0,-756.0,-247.0,2156.0,-2827.0,2243.0,0
-156.0,-658.0,-223.0,3329.0,-2850.0,2299.0,0
-112.0,-545.0,-211.0,4072.0,-2765.0,2390.0,0
-36.0,-420.0,-203.0,4396.0,-2570.0,2424.0,0
35.0,-289.0,-175.0,4392.0,-2255.0,2352.0,0
97.0,-159.0,-142.0,4181.0,-1885.0,2123.0,0
136.0,-37.0,-116.0,3767.0,-1525.0,1783.0,0
135.0,65.0,-86.0,3160.0,-1169.0,1452.0,0
143.0,130.0,-60.0,2445.0,-840.0,1198.0,0
142.0,157.0,-58.0,1703.0,-568.0,953.0,0
144.0,163.0,-54.0,976.0,-360.0,710.0,0
152.0,145.0,-74.0,322.0,-236.0,405.0,0
171.0,124.0,-74.0,-278.0,-138.0,69.0,0
178.0,109.0,-83.0,-776.0,-9.0,-306.0,0
163.0,91.0,-77.0,-1173.0,140.0,-745.0,0
148.0,70.0,-66.0,-1480.0,296.0,-1103.0,0
138.0,54.0,-56.0,-1648.0,473.0,-1377.0,0
131.0,38.0,-46.0,-1669.0,668.0,-1600.0,0
133.0,27.0,-39.0,-1567.0,846.0,-1760.0,0
134.0,16.0,-30.0,-1350.0,983.0,-1895.0,0
118.0,16.0,-24.0,-1035.0,1094.0,-2026.0,0
112.0,14.0,-17.0,-647.0,1172.0,-2124.0,0
84.0,24.0,-8.0,-185.0,1196.0,-2189.0,0
44.0,36.0,-10.0,317.0,1153.0,-2209.0,0
-4.0,50.0,-4.0,816.0,1050.0,-2178.0,0
-48.0,66.0,-5.0,1279.0,904.0,-2111.0,0
-86.0,90.0,-14.0,1675.0,720.0,-2033.0,0
-123.0,107.0,-29.0,1986.0,505.0,-1926.0,0
-147.0,123.0,-51.0,2167.0,284.0,-1768.0,0
-164.0,133.0,-79.0,2309.0,77.0,-1577.0,0
-173.0,133.0,-115.0,2367.0,-110.0,-1369.0,0
-176.0,129.0,-148.0,2346.0,-277.0,-1163.0,0
-171.0,128.0,-181.0,2281.0,-419.0,-994.0,0
-168.0,121.0,-203.0,2220.0,-543.0,-891.0,0
-159.0,109.0,-215.0,2177.0,-671.0,-842.0,0
-144.0,86.0,-226.0,2182.0,-815.0,-824.0,0
-130.0,53.0,-216.0,2222.0,-961.0,-801.0,0
-126.0,6.0,-197.0,2221.0,-1051.0,-726.0,0
-92.0,-52.0,-180.0,2079.0,-1069.0,-518.0,0
-72.0,-104.0,-137.0,1720.0,-997.0,-210.0,0
-26.0,-172.0,-102.0,1208.0,-838.0,151.0,0
-9.0,-241.0,-53.0,564.0,-616.0,431.0,0
28.0,-332.0,11.0,-194.0,-389.0,573.0,0
43.0,-435.0,119.0,-1028.0,-261.0,561.0,0
11.0,-553.0,209.0,-1801.0,-308.0,440.0,0
45.0,-665.0,252.0,-2442.0,-487.0,367.0,0
113.0,-780.0,191.0,-3050.0,-716.0,337.0,0
186.0,-881.0,89.0,-3802.0,-983.0,234.0,0
237.0,-929.0,-39.0,-4796.0,-1251.0,-68.0,0
261.0,-913.0,-149.0,-5887.0,-1437.0,-517.0,0
294.0,-888.0,-264.0,-6692.0,-1459.0,-937.0,0
324.0,-897.0,-374.0,-6927.0,-1290.0,-1221.0,0
356.0,-940.0,-454.0,-6580.0,-952.0,-1372.0,0
352.0,-976.0,-475.0,-5801.0,-462.0,-1453.0,0
322.0,-995.0,-433.0,-4625.0,117.0,-1464.0,0
304.0,-996.0,-366.0,-3037.0,658.0,-1378.0,0
304.0,-974.0,-308.0,-1162.0,1083.0,-1201.0,0
304.0,-916.0,-250.0,801.0,1390.0,-988.0,0
307.0,-831.0,-199.0,2605.0,1596.0,-803.0,0
297.0,-712.0,-160.0,4055.0,1714.0,-685.0,0
267.0,-575.0,-126.0,5066.0,1781.0,-659.0,0
225.0,-440.0,-112.0,5604.0,1799.0,-735.0,0
184.0,-304.0,-103.0,5648.0,1780.0,-886.0,0
126.0,-168.0,-81.0,5240.0,1723.0,-1074.0,0
64.0,-46.0,-56.0,4521.0,1652.0,-1256.0,0
5.0,55.0,-48.0,3645.0,1587.0,-1381.0,0
-30.0,116.0,-53.0,2690.0,1533.0,-1425.0,0
-41.0,158.0,-60.0,1672.0,1486.0,-1407.0,0
-42.0,177.0,-76.0,631.0,1445.0,-1354.0,0
-29.0,182.0,-89.0,-396.0,1388.0,-1263.0,0
-16.0,175.0,-108.0,-1360.0,1294.0,-1128.0,0
0.0,155.0,-119.0,-2230.0,1158.0,-928.0,0
13.0,127.0,-119.0,-2976.0,983.0,-675.0,0
1.0,99.0,-112.0,-3548.0,796.0,-412.0,0
-39.0,66.0,-100.0,-3893.0,610.0,-113.0,0
-69.0,19.0,-80.0,-3996.0,415.0,217.0,0
-94.0,-29.0,-66.0,-3844.0,193.0,509.0,0
-125.0,-74.0,-55.0,-3463.0,-60.0,738.0,0
-142.0,-114.0,-47.0,-2924.0,-327.0,912.0,0
-152.0,-146.0,-35.0,-2313.0,-570.0,1030.0,0
-159.0,-164.0,-22.0,-1689.0,-758.0,1111.0,0
-156.0,-171.0,-8.0,-1086.0,-880.0,1175.0,0
-133.0,-166.0,-4.0,-512.0,-945.0,1245.0,0
-105.0,-148.0,-5.0,20.0,-953.0,1317.0,0
-69.0,-121.0,-33.0,540.0,-898.0,1411.0,0
-34.0,-93.0,-49.0,1026.0,-770.0,1502.0,0
-6.0,-52.0,-72.0,1501.0,-582.0,1590.0,0
29.0,-17.0,-109.0,1966.0,-344.0,1694.0,0
59.0,13.0,-145.0,2372.0,-75.0,1763.0,0
79.0,46.0,-181.0,2693.0,205.0,1769.0,0
107.0,70.0,-212.0,2942.0,471.0,1727.0,0
116.0,90.0,-250.0,3119.0,663.0,1618.0,0
116.0,111.0,-273.0,3212.0,862.0,1479.0,0
116.0,144.0,-280.0,3228.0,1006.0,1396.0,0
149.0,131.0,-305.0,3228.0,1104.0,1413.0,0
169.0,116.0,-319.0,3128.0,1206.0,1348.0,0
185.0,84.0,-320.0,2832.0,1306.0,1210.0,0
179.0,49.0,-283.0,2318.0,1339.0,1027.0,0
188.0,-26.0,-215.0,1646.0,1301.0,779.0,0
188.0,-118.0,-160.0,853.0,1196.0,405.0,0
181.0,-193.0,-79.0,-71.0,1049.0,-46.0,0
176.0,-265.0,22.0,-1008.0,893.0,-449.0,0
159.0,-331.0,96.0,-1822.0,737.0,-699.0,0
168.0,-413.0,187.0,-2432.0,599.0,-794.0,0
137.0,-521.0,251.0,-2717.0,542.0,-890.0,0
42.0,-639.0,288.0,-2661.0,597.0,-1056.0,0
-114.0,-732.0,250.0,-2395.0,747.0,-1255.0,0
-227.0,-777.0,148.0,-2146.0,916.0,-1279.0,0
-285.0,-792.0,61.0,-2092.0,1070.0,-1053.0,0
-307.0,-794.0,-26.0,-2241.0,1196.0,-634.0,0
-277.0,-790.0,-110.0,-2506.0,1255.0,-195.0,0
-234.0,-771.0,-212.0,-2843.0,1184.0,148.0,0
-195.0,-752.0,-313.0,-3262.0,969.0,405.0,0
-182.0,-741.0,-390.0,-3689.0,568.0,605.0,0
-184.0,-745.0,-427.0,-3995.0,11.0,929.0,0
-180.0,-756.0,-423.0,-3988.0,-669.0,1373.0,0
-162.0,-772.0,-397.0,-3518.0,-1370.0,1851.0,0
-139.0,-769.0,-371.0,-2556.0,-1979.0,2226.0,0
-129.0,-740.0,-344.0,-1282.0,-2459.0,2426.0,0
-125.0,-692.0,-316.0,78.0,-2748.0,2487.0,0
-102.0,-635.0,-265.0,1318.0,-2805.0,2484.0,0
-80.0,-572.0,-202.0,2316.0,-2673.0,2456.0,0
-39.0,-496.0,-149.0,3004.0,-2442.0,2440.0,0
-12.0,-403.0,-90.0,3347.0,-2174.0,2408.0,0
31.0,-302.0,-69.0,3376.0,-1904.0,2331.0,0
65.0,-188.0,-41.0,3120.0,-1668.0,2176.0,0
89.0,-87.0,-17.0,2672.0,-1460.0,1943.0,0
107.0,3.0,-8.0,2095.0,-1269.0,1625.0,0
109.0,71.0,-6.0,1416.0,-1075.0,1334.0,0
130.0,112.0,-7.0,681.0,-853.0,1021.0,0
146.0,142.0,-8.0,-3.0,-605.0,653.0,0
141.0,153.0,-24.0,-590.0,-357.0,262.0,0
133.0,140.0,-33.0,-1098.0,-124.0,-84.0,0
128.0,120.0,-45.0,-1486.0,95.0,-399.0,0
129.0,96.0,-55.0,-1730.0,309.0,-729.0,0
131.0,76.0,-65.0,-1800.0,503.0,-1051.0,0
139.0,54.0,-75.0,-1699.0,698.0,-1329.0,0
154.0,44.0,-92.0,-1464.0,914.0,-1551.0,0
178.0,39.0,-93.0,-1122.0,1168.0,-1733.0,0
193.0,40.0,-89.0,-699.0,1418.0,-1882.0,0
191.0,35.0,-87.0,-252.0,1632.0,-2006.0,0
175.0,32.0,-81.0,163.0,1779.0,-2096.0,0
149.0,32.0,-73.0,504.0,1830.0,-2134.0,0
116.0,30.0,-65.0,753.0,1779.0,-2115.0,0
84.0,32.0,-55.0,915.0,1657.0,-2032.0,0
53.0,32.0,-44.0,1029.0,1507.0,-1901.0,0
21.0,35.0,-36.0,1120.0,1356.0,-1751.0,0
-19.0,42.0,-28.0,1211.0,1209.0,-1594.0,0
-56.0,48.0,-33.0,1324.0,1069.0,-1433.0,0
-82.0,51.0,-51.0,1441.0,937.0,-1253.0,0
-106.0,51.0,-67.0,1551.0,795.0,-1053.0,0
-120.0,44.0,-96.0,1642.0,643.0,-852.0,0
-121.0,39.0,-123.0,1723.0,481.0,-662.0,0
-124.0,40.0,-150.0,1835.0,305.0,-505.0,0
-117.0,32.0,-180.0,1992.0,116.0,-403.0,0
-99.0,26.0,-202.0,2187.0,-90.0,-342.0,0
-92.0,26.0,-208.0,2400.0,-321.0,-342.0,0
-93.0,19.0,-206.0,2627.0,-568.0,-380.0,0
-95.0,7.0,-201.0,2821.0,-811.0,-387.0,0
-87.0,-6.0,-166.0,2908.0,-1001.0,-319.0,0
-93.0,-34.0,-146.0,2863.0,-1068.0,-167.0,0
-77.0,-86.0,-134.0,2605.0,-997.0,109.0,0
-53.0,-147.0,-103.0,2050.0,-789.0,398.0,0
-20.0,-222.0,-44.0,1257.0,-460.0,612.0,0
-13.0,-306.0,26.0,333.0,-96.0,688.0,0
-37.0,-396.0,129.0,-642.0,156.0,619.0,0
-79.0,-488.0,251.0,-1529.0,231.0,476.0,0
-77.0,-578.0,344.0,-2190.0,108.0,412.0,0
-38.0,-676.0,376.0,-2574.0,-116.0,465.0,0
27.0,-754.0,334.0,-2756.0,-332.0,517.0,0
92.0,-808.0,230.0,-2938.0,-499.0,389.0,0
142.0,-819.0,81.0,-3266.0,-642.0,54.0,0
212.0,-828.0,-79.0,-3732.0,-779.0,-347.0,0
306.0,-824.0,-220.0,-4263.0,-851.0,-726.0,0
388.0,-831.0,-338.0,-4711.0,-777.0,-966.0,0
437.0,-870.0,-443.0,-4977.0,-473.0,-1168.0,0
427.0,-908.0,-461.0,-5069.0,67.0,-1298.0,0
397.0,-941.0,-426.0,-4864.0,699.0,-1348.0,0
368.0,-962.0,-340.0,-4212.0,1255.0,-1281.0,0
342.0,-970.0,-241.0,-3031.0,1649.0,-1108.0,0
320.0,-956.0,-170.0,-1399.0,1883.0,-869.0,0
303.0,-911.0,-120.0,406.0,1988.0,-616.0,0
289.0,-827.0,-108.0,2083.0,2010.0,-365.0,0
271.0,-729.0,-116.0,3429.0,2001.0,-130.0,0
240.0,-617.0,-136.0,4324.0,2009.0,11.0,0
206.0,-489.0,-141.0,4713.0,2059.0,-9.0,0
181.0,-351.0,-128.0,4661.0,2124.0,-164.0,0
146.0,-201.0,-104.0,4265.0,2170.0,-421.0,0
105.0,-57.0,-65.0,3639.0,2200.0,-666.0,0
68.0,59.0,-46.0,2935.0,2219.0,-769.0,0
48.0,150.0,-46.0,2214.0,2175.0,-687.0,0
52.0,198.0,-56.0,1459.0,2094.0,-487.0,0
65.0,223.0,-70.0,691.0,1998.0,-266.0,0
87.0,220.0,-102.0,-54.0,1868.0,-80.0,0
88.0,208.0,-113.0,-770.0,1693.0,60.0,0
51.0,197.0,-127.0,-1408.0,1499.0,214.0,0
16.0,157.0,-128.0,-1942.0,1324.0,476.0,0
-5.0,100.0,-132.0,-2318.0,1165.0,815.0,0
-25.0,43.0,-133.0,-2508.0,1022.0,1100.0,0
-48.0,5.0,-130.0,-2529.0,889.0,1288.0,0
-62.0,-26.0,-111.0,-2411.0,769.0,1414.0,0
-64.0,-41.0,-89.0,-2173.0,661.0,1507.0,0
-62.0,-45.0,-74.0,-1852.0,577.0,1576.0,0
-55.0,-36.0,-57.0,-1489.0,528.0,1630.0,0
-42.0,-16.0,-52.0,-1082.0,515.0,1685.0,0
-30.0,9.0,-49.0,-617.0,532.0,1753.0,0
-15.0,33.0,-56.0,-111.0,581.0,1827.0,0
-3.0,58.0,-70.0,414.0,676.0,1892.0,0
11.0,75.0,-99.0,932.0,829.0,1929.0,0
16.0,89.0,-126.0,1413.0,1017.0,1928.0,0
18.0,109.0,-157.0,1846.0,1226.0,1896.0,0
20.0,123.0,-186.0,2221.0,1429.0,1857.0,0
28.0,133.0,-209.0,2530.0,1616.0,1826.0,0
38.0,133.0,-231.0,2719.0,1759.0,1767.0,0
54.0,137.0,-232.0,2801.0,1861.0,1699.0,0
99.0,111.0,-253.0,2813.0,1926.0,1630.0,0
112.0,88.0,-250.0,2671.0,1968.0,1445.0,0
118.0,54.0,-236.0,2379.0,1967.0,1225.0,0
114.0,14.0,-205.0,1952.0,1946.0,1003.0,0
108.0,-33.0,-163.0,1439.0,1955.0,790.0,0
97.0,-78.0,-119.0,941.0,2006.0,592.0,0
74.0,-137.0,-74.0,478.0,2078.0,402.0,0
43.0,-196.0,-42.0,44.0,2164.0,211.0,0
44.0,-262.0,-4.0,-382.0,2248.0,34.0,0
49.0,-333.0,20.0,-757.0,2292.0,-160.0,0
61.0,-414.0,31.0,-1040.0,2286.0,-385.0,0
64.0,-492.0,21.0,-1199.0,2260.0,-666.0,0
27.0,-555.0,-14.0,-1209.0,2287.0,-1011.0,0
-57.0,-593.0,-77.0,-1141.0,2418.0,-1343.0,0
-152.0,-596.0,-109.0,-1123.0,2593.0,-1527.0,0
-250.0,-573.0,-117.0,-1189.0,2724.0,-1559.0,0
-293.0,-552.0,-86.0,-1294.0,2738.0,-1478.0,0
-270.0,-536.0,-54.0,-1380.0,2613.0,-1310.0,0
-187.0,-526.0,-50.0,-1394.0,2441.0,-1057.0,0
-106.0,-535.0,-65.0,-1373.0,2328.0,-759.0,0
-21.0,-543.0,-93.0,-1388.0,2307.0,-425.0,0
28.0,-552.0,-117.0,-1459.0,2332.0,-78.0,0
33.0,-571.0,-141.0,-1542.0,2322.0,274.0,0
10.0,-597.0,-169.0,-1598.0,2219.0,673.0,0
5.0,-629.0,-190.0,-1611.0,1990.0,1121.0,0
18.0,-670.0,-203.0,-1568.0,1657.0,1553.0,0
31.0,-699.0,-205.0,-1421.0,1296.0,1929.0,0
44.0,-729.0,-187.0,-1145.0,971.0,2229.0,0
47.0,-739.0,-168.0,-733.0,717.0,2420.0,0
46.0,-728.0,-142.0,-230.0,554.0,2495.0,0
43.0,-704.0,-113.0,305.0,500.0,2482.0,0
33.0,-662.0,-91.0,812.0,547.0,2419.0,0
27.0,-611.0,-71.0,1228.0,674.0,2339.0,0
22.0,-554.0,-53.0,1510.0,850.0,2245.0,0
21.0,-493.0,-47.0,1648.0,1050.0,2124.0,0
17.0,-434.0,-49.0,1654.0,1267.0,1968.0,0
8.0,-374.0,-47.0,1583.0,1472.0,1772.0,0
-6.0,-315.0,-59.0,1488.0,1618.0,1554.0,0
-17.0,-269.0,-77.0,1381.0,1677.0,1334.0,0
-30.0,-229.0,-91.0,1239.0,1655.0,1147.0,0
-41.0,-203.0,-119.0,1075.0,1577.0,1028.0,0
-48.0,-181.0,-130.0,879.0,1478.0,955.0,0
-42.0,-155.0,-135.0,658.0,1394.0,917.0,0
-29.0,-128.0,-130.0,430.0,1352.0,889.0,0
-10.0,-106.0,-120.0,207.0,1361.0,858.0,0
17.0,-78.0,-104.0,-2.0,1412.0,812.0,0
43.0,-52.0,-79.0,-196.0,1501.0,760.0,0
57.0,-31.0,-56.0,-361.0,1602.0,708.0,0
63.0,-17.0,-31.0,-494.0,1699.0,664.0,0
56.0,-8.0,-11.0,-591.0,1786.0,627.0,0
61.0,-2.0,0.0,-664.0,1862.0,593.0,0
54.0,7.0,15.0,-719.0,1931.0,547.0,0
65.0,-1.0,26.0,-753.0,1991.0,488.0,0
72.0,-2.0,24.0,-772.0,2036.0,371.0,0
70.0,-10.0,37.0,-754.0,2097.0,217.0,0
69.0,-13.0,42.0,-691.0,2184.0,85.0,0
73.0,-22.0,47.0,-569.0,2283.0,-18.0,0
78.0,-33.0,40.0,-390.0,2385.0,-95.0,0
84.0,-41.0,31.0,-165.0,2492.0,-157.0,0
86.0,-49.0,19.0,91.0,2601.0,-203.0,0
89.0,-51.0,8.0,357.0,2687.0,-223.0,0
84.0,-51.0,-8.0,633.0,2748.0,-220.0,0
76.0,-40.0,-34.0,909.0,2775.0,-206.0,0
62.0,-15.0,-56.0,1164.0,2753.0,-192.0,0
54.0,8.0,-85.0,1384.0,2676.0,-180.0,0
51.0,38.0,-112.0,1550.0,2551.0,-165.0,0
47.0,70.0,-134.0,1661.0,2395.0,-156.0,0
44.0,98.0,-160.0,1728.0,2227.0,-161.0,0
37.0,117.0,-187.0,1736.0,2070.0,-164.0,0
34.0,128.0,-201.0,1693.0,1945.0,-154.0,0
38.0,123.0,-215.0,1632.0,1875.0,-140.0,0
40.0,115.0,-224.0,1577.0,1860.0,-135.0,0
34.0,85.0,-230.0,1539.0,1899.0,-151.0,0
25.0,60.0,-223.0,1511.0,1963.0,-171.0,0
16.0,29.0,-215.0,1502.0,2026.0,-215.0,0
6.0,-9.0,-209.0,1479.0,2061.0,-260.0,0
-1.0,-53.0,-191.0,1382.0,2060.0,-289.0,0
-6.0,-102.0,-169.0,1197.0,2024.0,-301.0,0
0.0,-154.0,-139.0,917.0,1981.0,-255.0,0
19.0,-205.0,-112.0,549.0,1971.0,-143.0,0
29.0,-259.0,-67.0,120.0,2035.0,-21.0,0
31.0,-315.0,-39.0,-315.0,2168.0,79.0,0
33.0,-376.0,-1.0,-723.0,2326.0,172.0,0
8.0,-428.0,43.0,-1067.0,2466.0,199.0,0
-32.0,-480.0,73.0,-1312.0,2536.0,228.0,0
-49.0,-520.0,97.0,-1462.0,2494.0,338.0,0
-57.0,-540.0,105.0,-1473.0,2354.0,486.0,0
-43.0,-552.0,93.0,-1317.0,2154.0,654.0,0
-3.0,-543.0,64.0,-1061.0,1867.0,800.0,0
43.0,-530.0,4.0,-780.0,1487.0,863.0,0
84.0,-513.0,-59.0,-550.0,1124.0,837.0,0
114.0,-499.0,-106.0,-381.0,887.0,760.0,0
133.0,-484.0,-143.0,-234.0,824.0,680.0,0
136.0,-473.0,-176.0,-95.0,904.0,609.0,0
126.0,-460.0,-211.0,32.0,1093.0,532.0,0
123.0,-454.0,-234.0,120.0,1356.0,434.0,0
124.0,-447.0,-236.0,165.0,1627.0,304.0,0
118.0,-438.0,-232.0,212.0,1859.0,152.0,0
113.0,-425.0,-218.0,290.0,2041.0,10.0,0
98.0,-405.0,-200.0,426.0,2187.0,-116.0,0
80.0,-385.0,-176.0,627.0,2310.0,-216.0,0
63.0,-362.0,-152.0,872.0,2414.0,-292.0,0
56.0,-338.0,-133.0,1124.0,2497.0,-340.0,0
48.0,-317.0,-113.0,1339.0,2559.0,-380.0,0
36.0,-298.0,-99.0,1480.0,2608.0,-426.0,0
24.0,-270.0,-83.0,1521.0,2653.0,-475.0,0
11.0,-249.0,-66.0,1458.0,2691.0,-515.0,0
0.0,-229.0,-49.0,1312.0,2718.0,-545.0,0
-3.0,-207.0,-34.0,1117.0,2733.0,-566.0,0
-8.0,-186.0,-22.0,907.0,2727.0,-572.0,0
-3.0,-168.0,-9.0,708.0,2700.0,-556.0,0
3.0,-147.0,9.0,536.0,2662.0,-527.0,0
9.0,-120.0,20.0,431.0,2626.0,-473.0,0
16.0,-99.0,14.0,406.0,2602.0,-381.0,0
38.0,-93.0,10.0,410.0,2600.0,-262.0,0
58.0,-91.0,-4.0,433.0,2615.0,-173.0,0
73.0,-96.0,-25.0,423.0,2655.0,-130.0,0
82.0,-96.0,-44.0,346.0,2710.0,-110.0,0
84.0,-92.0,-60.0,224.0,2755.0,-94.0,0
83.0,-90.0,-70.0,75.0,2780.0,-80.0,0
73.0,-83.0,-70.0,-84.0,2783.0,-71.0,0
68.0,-80.0,-84.0,-240.0,2762.0,-58.0,0
61.0,-83.0,-89.0,-394.0,2724.0,-37.0,0
64.0,-84.0,-88.0,-549.0,2680.0,-15.0,0
60.0,-96.0,-90.0,-705.0,2641.0,8.0,0
60.0,-113.0,-100.0,-853.0,2615.0,35.0,0
67.0,-133.0,-83.0,-982.0,2614.0,68.0,0
70.0,-154.0,-77.0,-1069.0,2638.0,110.0,0
64.0,-179.0,-73.0,-1093.0,2689.0,152.0,0
56.0,-197.0,-67.0,-1047.0,2738.0,196.0,0
60.0,-213.0,-74.0,-953.0,2775.0,237.0,0
62.0,-230.0,-80.0,-832.0,2804.0,271.0,0
64.0,-241.0,-95.0,-710.0,2823.0,292.0,0
65.0,-244.0,-106.0,-609.0,2822.0,308.0,0
66.0,-249.0,-121.0,-545.0,2804.0,317.0,0
66.0,-253.0,-138.0,-520.0,2778.0,312.0,0
67.0,-255.0,-152.0,-529.0,2758.0,300.0,0
70.0,-262.0,-167.0,-567.0,2747.0,283.0,0
63.0,-271.0,-179.0,-631.0,2743.0,246.0,0
52.0,-282.0,-182.0,-712.0,2738.0,193.0,0
38.0,-302.0,-183.0,-803.0,2727.0,133.0,0
15.0,-314.0,-180.0,-900.0,2711.0,83.0,0
-8.0,-328.0,-173.0,-979.0,2685.0,37.0,0
-17.0,-338.0,-161.0,-1014.0,2661.0,-1.0,0
-25.0,-342.0,-153.0,-983.0,2649.0,-44.0,0
-34.0,-340.0,-150.0,-878.0,2656.0,-92.0,0
-34.0,-336.0,-150.0,-721.0,2684.0,-134.0,0
-32.0,-332.0,-149.0,-526.0,2733.0,-154.0,0
-27.0,-321.0,-149.0,-312.0,2800.0,-163.0,0
-18.0,-305.0,-153.0,-99.0,2869.0,-172.0,0
-18.0,-293.0,-155.0,103.0,2927.0,-181.0,0
-29.0,-274.0,-149.0,278.0,2966.0,-189.0,0
-31.0,-255.0,-140.0,415.0,2969.0,-190.0,0
-34.0,-237.0,-135.0,509.0,2932.0,-185.0,0
-32.0,-225.0,-125.0,555.0,2860.0,-179.0,0
-35.0,-211.0,-113.0,554.0,2758.0,-173.0,0
-38.0,-197.0,-100.0,515.0,2639.0,-165.0,0
-41.0,-186.0,-83.0,449.0,2517.0,-153.0,0
-51.0,-181.0,-65.0,368.0,2405.0,-130.0,0
-53.0,-180.0,-52.0,285.0,2314.0,-94.0,0
-64.0,-174.0,-33.0,213.0,2255.0,-39.0,0
-73.0,-177.0,-23.0,155.0,2230.0,28.0,0
-82.0,-179.0,-8.0,114.0,2234.0,100.0,0
-90.0,-184.0,-6.0,87.0,2253.0,179.0,0
-84.0,-191.0,-3.0,67.0,2265.0,258.0,0
-75.0,-202.0,-12.0,42.0,2270.0,325.0,0
-69.0,-215.0,-21.0,7.0,2283.0,379.0,0
-67.0,-226.0,-22.0,-38.0,2302.0,416.0,0
-56.0,-241.0,-33.0,-95.0,2320.0,437.0,0
-62.0,-255.0,-43.0,-164.0,2323.0,438.0,0
-53.0,-267.0,-55.0,-248.0,2309.0,419.0,0
-48.0,-280.0,-62.0,-349.0,2276.0,381.0,0
-49.0,-292.0,-74.0,-461.0,2232.0,329.0,0
-39.0,-309.0,-82.0,-575.0,2182.0,268.0,0
-34.0,-319.0,-86.0,-683.0,2128.0,199.0,0
-16.0,-331.0,-104.0,-775.0,2077.0,125.0,0
-5.0,-332.0,-110.0,-843.0,2038.0,50.0,0
11.0,-332.0,-107.0,-872.0,2022.0,-24.0,0
9.0,-329.0,-105.0,-845.0,2041.0,-94.0,0
-8.0,-313.0,-98.0,-755.0,2083.0,-149.0,0
-15.0,-301.0,-92.0,-613.0,2117.0,-181.0,0
-20.0,-292.0,-91.0,-441.0,2124.0,-199.0,0
-22.0,-280.0,-84.0,-265.0,2103.0,-205.0,0
-18.0,-266.0,-76.0,-98.0,2072.0,-200.0,0
-17.0,-256.0,-69.0,57.0,2036.0,-184.0,0
-18.0,-247.0,-59.0,193.0,1998.0,-161.0,0
-18.0,-242.0,-55.0,307.0,1957.0,-134.0,0
-24.0,-237.0,-47.0,391.0,1910.0,-106.0,0
-31.0,-229.0,-43.0,440.0,1854.0,-78.0,0
-40.0,-229.0,-38.0,454.0,1793.0,-53.0,0
-43.0,-228.0,-38.0,433.0,1729.0,-27.0,0
-52.0,-225.0,-36.0,384.0,1662.0,-4.0,0
-54.0,-226.0,-37.0,319.0,1599.0,18.0,0
-54.0,-225.0,-35.0,246.0,1540.0,45.0,0
-56.0,-225.0,-42.0,174.0,1482.0,67.0,0
-52.0,-225.0,-50.0,113.0,1427.0,80.0,0
-47.0,-228.0,-55.0,64.0,1375.0,80.0,0
-46.0,-229.0,-58.0,22.0,1325.0,73.0,0
-45.0,-231.0,-69.0,-16.0,1276.0,58.0,0
-41.0,-236.0,-72.0,-50.0,1229.0,42.0,0
-42.0,-236.0,-77.0,-82.0,1186.0,22.0,0
-43.0,-233.0,-79.0,-104.0,1152.0,0.0,0
-45.0,-236.0,-81.0,-118.0,1129.0,-21.0,0
-45.0,-235.0,-78.0,-125.0,1115.0,-41.0,0
-48.0,-236.0,-77.0,-131.0,1109.0,-65.0,0
-48.0,-240.0,-78.0,-139.0,1105.0,-90.0,0
-47.0,-248.0,-73.0,-144.0,1102.0,-114.0,0
-45.0,-250.0,-68.0,-140.0,1092.0,-135.0,0
-48.0,-253.0,-64.0,-127.0,1073.0,-153.0,0
-54.0,-261.0,-61.0,-106.0,1037.0,-167.0,0
-58.0,-265.0,-56.0,-79.0,984.0,-176.0,0
-62.0,-270.0,-57.0,-45.0,920.0,-179.0,0
-63.0,-273.0,-57.0,-7.0,853.0,-175.0,0
-65.0,-279.0,-61.0,30.0,785.0,-164.0,0
-64.0,-281.0,-54.0,70.0,724.0,-148.0,0
-65.0,-285.0,-55.0,113.0,669.0,-127.0,0
-65.0,-283.0,-54.0,155.0,619.0,-102.0,0
-60.0,-290.0,-52.0,197.0,575.0,-74.0,0
-55.0,-291.0,-55.0,238.0,536.0,-42.0,0
-55.0,-292.0,-58.0,270.0,499.0,-9.0,0
-50.0,-292.0,-66.0,290.0,467.0,24.0,0
-49.0,-285.0,-72.0,299.0,433.0,57.0,0
-45.0,-284.0,-76.0,289.0,399.0,84.0,0
-37.0,-284.0,-79.0,273.0,367.0,106.0,0
-29.0,-280.0,-81.0,254.0,330.0,125.0,0
-17.0,-274.0,-83.0,235.0,298.0,136.0,0
-11.0,-271.0,-78.0,221.0,270.0,141.0,0
1.0,-263.0,-73.0,218.0,253.0,136.0,0
9.0,-256.0,-63.0,229.0,243.0,124.0,0
18.0,-248.0,-56.0,248.0,239.0,108.0,0
23.0,-242.0,-50.0,272.0,235.0,88.0,0
30.0,-236.0,-46.0,296.0,227.0,64.0,0
29.0,-224.0,-48.0,315.0,217.0,42.0,0
37.0,-222.0,-46.0,325.0,201.0,22.0,0
41.0,-216.0,-44.0,325.0,185.0,1.0,0
41.0,-207.0,-51.0,313.0,170.0,-18.0,0
42.0,-207.0,-52.0,294.0,162.0,-36.0,0
40.0,-199.0,-55.0,270.0,158.0,-54.0,0
45.0,-200.0,-52.0,237.0,153.0,-66.0,0
46.0,-198.0,-57.0,198.0,148.0,-71.0,0
49.0,-200.0,-58.0,153.0,145.0,-76.0,0
51.0,-204.0,-59.0,104.0,149.0,-80.0,0
48.0,-204.0,-60.0,52.0,156.0,-84.0,0
48.0,-209.0,-59.0,-3.0,161.0,-89.0,0
49.0,-216.0,-66.0,-61.0,162.0,-92.0,0
48.0,-224.0,-63.0,-118.0,162.0,-98.0,0
49.0,-231.0,-61.0,-173.0,162.0,-105.0,0
48.0,-239.0,-64.0,-222.0,160.0,-112.0,0
47.0,-243.0,-69.0,-266.0,156.0,-119.0,0
44.0,-248.0,-69.0,-302.0,155.0,-127.0,0
42.0,-253.0,-65.0,-327.0,157.0,-133.0,0
43.0,-261.0,-68.0,-339.0,160.0,-139.0,0
44.0,-269.0,-69.0,-337.0,171.0,-146.0,0
42.0,-274.0,-68.0,-319.0,193.0,-153.0,0
45.0,-278.0,-65.0,-284.0,224.0,-157.0,0
46.0,-284.0,-65.0,-236.0,259.0,-160.0,0
46.0,-282.0,-63.0,-183.0,294.0,-159.0,0
47.0,-285.0,-64.0,-129.0,324.0,-160.0,0
47.0,-283.0,-70.0,-80.0,349.0,-158.0,0
48.0,-288.0,-67.0,-38.0,367.0,-154.0,0
47.0,-287.0,-72.0,2.0,380.0,-150.0,0
49.0,-280.0,-73.0,36.0,391.0,-148.0,0
52.0,-276.0,-75.0,69.0,402.0,-147.0,0
51.0,-273.0,-76.0,101.0,410.0,-146.0,0
54.0,-268.0,-71.0,137.0,415.0,-144.0,0
54.0,-262.0,-72.0,165.0,417.0,-142.0,0
57.0,-254.0,-68.0,192.0,413.0,-140.0,0
58.0,-246.0,-70.0,215.0,405.0,-136.0,0
61.0,-242.0,-67.0,229.0,399.0,-129.0,0
64.0,-234.0,-69.0,240.0,397.0,-123.0,0
64.0,-229.0,-68.0,242.0,393.0,-113.0,0
64.0,-224.0,-71.0,237.0,390.0,-101.0,0
64.0,-221.0,-67.0,219.0,386.0,-86.0,0
65.0,-216.0,-71.0,190.0,385.0,-71.0,0
65.0,-212.0,-68.0,149.0,385.0,-55.0,0
65.0,-210.0,-64.0,102.0,384.0,-38.0,0
68.0,-215.0,-70.0,52.0,382.0,-22.0,0
58.0,-210.0,-62.0,1.0,380.0,-8.0,0
58.0,-213.0,-58.0,-45.0,379.0,10.0,0
55.0,-215.0,-57.0,-85.0,373.0,28.0,0
50.0,-220.0,-55.0,-120.0,361.0,44.0,0
44.0,-223.0,-54.0,-149.0,346.0,59.0,0
37.0,-229.0,-55.0,-168.0,325.0,74.0,0
36.0,-237.0,-56.0,-182.0,301.0,84.0,0
28.0,-244.0,-55.0,-188.0,280.0,93.0,0
24.0,-246.0,-55.0,-187.0,262.0,101.0,0
22.0,-254.0,-59.0,-183.0,247.0,105.0,0
16.0,-258.0,-58.0,-178.0,236.0,107.0,0
13.0,-261.0,-55.0,-167.0,228.0,109.0,0
11.0,-263.0,-57.0,-153.0,223.0,107.0,0
6.0,-265.0,-61.0,-138.0,218.0,105.0,0
5.0,-262.0,-59.0,-123.0,213.0,101.0,0
5.0,-266.0,-61.0,-108.0,206.0,93.0,0
4.0,-268.0,-59.0,-94.0,197.0,86.0,0
3.0,-270.0,-63.0,-80.0,185.0,77.0,0
3.0,-267.0,-63.0,-67.0,171.0,69.0,0
5.0,-267.0,-64.0,-52.0,159.0,58.0,0
8.0,-265.0,-63.0,-33.0,151.0,48.0,0
5.0,-258.0,-58.0,-16.0,147.0,39.0,0
15.0,-259.0,-62.0,3.0,146.0,28.0,0
15.0,-258.0,-60.0,22.0,146.0,19.0,0
18.0,-253.0,-62.0,40.0,143.0,13.0,0
18.0,-251.0,-60.0,50.0,138.0,7.0,0
19.0,-248.0,-58.0,56.0,129.0,3.0,0
19.0,-248.0,-58.0,60.0,114.0,-2.0,0
19.0,-246.0,-53.0,59.0,92.0,-4.0,0
17.0,-242.0,-49.0,57.0,64.0,-4.0,0
19.0,-241.0,-47.0,55.0,35.0,0.0,0
31.0,-239.0,-49.0,51.0,8.0,6.0,0
25.0,-236.0,-48.0,46.0,-19.0,15.0,0
24.0,-235.0,-46.0,41.0,-44.0,26.0,0
22.0,-238.0,-46.0,33.0,-66.0,38.0,0
19.0,-240.0,-50.0,20.0,-86.0,51.0,0
16.0,-237.0,-51.0,4.0,-104.0,62.0,0
15.0,-243.0,-52.0,-14.0,-121.0,74.0,0
12.0,-244.0,-53.0,-30.0,-139.0,82.0,0
10.0,-251.0,-54.0,-40.0,-157.0,89.0,0
12.0,-252.0,-55.0,-43.0,-174.0,91.0,0
15.0,-261.0,-59.0,-43.0,-190.0,89.0,0
15.0,-268.0,-56.0,-36.0,-201.0,84.0,0
19.0,-268.0,-59.0,-25.0,-206.0,78.0,0
22.0,-267.0,-64.0,-7.0,-207.0,72.0,0
26.0,-271.0,-64.0,11.0,-205.0,63.0,0
25.0,-269.0,-64.0,28.0,-202.0,54.0,0
27.0,-274.0,-69.0,40.0,-195.0,45.0,0
27.0,-276.0,-69.0,50.0,-185.0,36.0,0
26.0,-277.0,-70.0,45.0,-173.0,28.0,0
31.0,-276.0,-75.0,42.0,-158.0,16.0,0
33.0,-277.0,-76.0,35.0,-141.0,6.0,0
36.0,-276.0,-75.0,31.0,-125.0,-4.0,0
33.0,-273.0,-69.0,34.0,-109.0,-15.0,0
33.0,-276.0,-68.0,43.0,-94.0,-24.0,0
34.0,-275.0,-71.0,58.0,-86.0,-29.0,0
34.0,-274.0,-66.0,83.0,-81.0,-31.0,0
32.0,-273.0,-68.0,108.0,-81.0,-31.0,0
30.0,-274.0,-63.0,138.0,-83.0,-27.0,0
34.0,-272.0,-66.0,166.0,-87.0,-21.0,0
30.0,-270.0,-60.0,193.0,-93.0,-14.0,0
32.0,-267.0,-62.0,221.0,-102.0,-8.0,0
32.0,-267.0,-59.0,249.0,-111.0,2.0,0
36.0,-265.0,-61.0,276.0,-122.0,13.0,0
32.0,-260.0,-50.0,298.0,-132.0,24.0,0
33.0,-256.0,-56.0,312.0,-139.0,34.0,0
32.0,-252.0,-55.0,315.0,-144.0,42.0,0
32.0,-249.0,-46.0,310.0,-147.0,52.0,0
27.0,-248.0,-48.0,296.0,-151.0,59.0,0
28.0,-245.0,-46.0,276.0,-153.0,68.0,0
25.0,-242.0,-43.0,252.0,-157.0,74.0,0
24.0,-243.0,-44.0,229.0,-162.0,80.0,0
24.0,-240.0,-38.0,207.0,-171.0,82.0,0
20.0,-236.0,-32.0,186.0,-182.0,85.0,0
19.0,-237.0,-32.0,172.0,-188.0,83.0,0
17.0,-239.0,-36.0,159.0,-195.0,83.0,0
12.0,-238.0,-35.0,148.0,-200.0,79.0,0
13.0,-235.0,-32.0,139.0,-201.0,75.0,0
11.0,-236.0,-29.0,132.0,-200.0,72.0,0
12.0,-235.0,-30.0,120.0,-202.0,68.0,0
8.0,-234.0,-32.0,105.0,-202.0,64.0,0
8.0,-233.0,-30.0,88.0,-201.0,61.0,0
7.0,-234.0,-33.0,65.0,-201.0,58.0,0
9.0,-237.0,-34.0,36.0,-203.0,56.0,0
12.0,-238.0,-37.0,6.0,-205.0,56.0,0
14.0,-241.0,-35.0,-19.0,-206.0,57.0,0
16.0,-245.0,-39.0,-41.0,-208.0,57.0,0
19.0,-244.0,-38.0,-58.0,-210.0,59.0,0
18.0,-247.0,-37.0,-69.0,-214.0,62.0,0
22.0,-249.0,-38.0,-75.0,-221.0,65.0,0
26.0,-249.0,-38.0,-76.0,-227.0,68.0,0
27.0,-249.0,-40.0,-73.0,-233.0,72.0,0
25.0,-250.0,-38.0,-71.0,-236.0,75.0,0
31.0,-248.0,-44.0,-70.0,-241.0,77.0,0
31.0,-249.0,-42.0,-69.0,-245.0,76.0,0
31.0,-250.0,-45.0,-73.0,-246.0,77.0,0
32.0,-249.0,-46.0,-78.0,-244.0,77.0,0
33.0,-250.0,-44.0,-87.0,-244.0,78.0,0
33.0,-250.0,-45.0,-93.0,-241.0,78.0,0
32.0,-252.0,-46.0,-96.0,-239.0,80.0,0
34.0,-254.0,-49.0,-98.0,-240.0,81.0,0
35.0,-255.0,-47.0,-97.0,-240.0,83.0,0
32.0,-257.0,-49.0,-94.0,-244.0,85.0,0
33.0,-259.0,-47.0,-89.0,-246.0,86.0,0
31.0,-259.0,-45.0,-84.0,-250.0,87.0,0
26.0,-259.0,-49.0,-76.0,-250.0,87.0,0
28.0,-256.0,-51.0,-68.0,-248.0,86.0,0
34.0,-261.0,-42.0,-57.0,-245.0,85.0,0
30.0,-261.0,-52.0,-45.0,-240.0,81.0,0
27.0,-259.0,-51.0,-33.0,-232.0,79.0,0
29.0,-259.0,-47.0,-21.0,-222.0,75.0,0
27.0,-256.0,-52.0,-13.0,-214.0,70.0,0
28.0,-259.0,-48.0,-6.0,-202.0,63.0,0
27.0,-259.0,-49.0,-1.0,-191.0,57.0,0
25.0,-258.0,-49.0,2.0,-180.0,51.0,0
28.0,-257.0,-49.0,5.0,-171.0,42.0,0
29.0,-259.0,-47.0,5.0,-161.0,34.0,0
25.0,-256.0,-53.0,1.0,-154.0,27.0,0
26.0,-258.0,-49.0,2.0,-144.0,19.0,0
29.0,-257.0,-48.0,-1.0,-135.0,11.0,0
26.0,-254.0,-51.0,-2.0,-126.0,4.0,0
27.0,-257.0,-48.0,-2.0,-116.0,-4.0,0
25.0,-257.0,-48.0,-1.0,-108.0,-9.0,0
26.0,-257.0,-49.0,-1.0,-100.0,-14.0,0
24.0,-254.0,-47.0,-1.0,-95.0,-17.0,0
24.0,-257.0,-46.0,1.0,-88.0,-17.0,0
27.0,-256.0,-49.0,1.0,-82.0,-17.0,0
27.0,-253.0,-47.0,2.0,-79.0,-17.0,0
26.0,-252.0,-47.0,4.0,-76.0,-16.0,0
23.0,-252.0,-52.0,5.0,-74.0,-14.0,0
21.0,-252.0,-48.0,5.0,-71.0,-11.0,0
26.0,-253.0,-45.0,4.0,-67.0,-8.0,0
26.0,-253.0,-46.0,3.0,-64.0,-6.0,0
23.0,-251.0,-42.0,6.0,-62.0,-5.0,0
22.0,-249.0,-45.0,7.0,-59.0,-2.0,0
24.0,-253.0,-46.0,9.0,-56.0,0.0,0
22.0,-249.0,-43.0,9.0,-52.0,2.0,0
21.0,-249.0,-41.0,4.0,-48.0,4.0,0
22.0,-248.0,-42.0,-2.0,-43.0,5.0,0
20.0,-247.0,-42.0,-9.0,-39.0,6.0,0
18.0,-249.0,-39.0,-15.0,-36.0,6.0,0
19.0,-248.0,-48.0,-21.0,-31.0,6.0,0
19.0,-247.0,-43.0,-28.0,-29.0,7.0,0
21.0,-248.0,-41.0,-35.0,-28.0,7.0,0
20.0,-246.0,-42.0,-42.0,-27.0,7.0,0
18.0,-247.0,-39.0,-47.0,-28.0,6.0,0
20.0,-249.0,-42.0,-53.0,-29.0,7.0,0
17.0,-247.0,-47.0,-59.0,-29.0,8.0,0
15.0,-247.0,-45.0,-62.0,-32.0,8.0,0
20.0,-248.0,-40.0,-65.0,-33.0,9.0,0
16.0,-248.0,-40.0,-67.0,-32.0,9.0,0
17.0,-241.0,-45.0,-67.0,-36.0,10.0,0
17.0,-249.0,-44.0,-71.0,-38.0,12.0,0
18.0,-248.0,-43.0,-76.0,-41.0,11.0,0
18.0,-247.0,-41.0,-80.0,-42.0,12.0,0
19.0,-249.0,-43.0,-85.0,-45.0,14.0,0
18.0,-250.0,-46.0,-92.0,-46.0,13.0,0
21.0,-251.0,-42.0,-95.0,-46.0,13.0,0
17.0,-251.0,-39.0,-100.0,-47.0,15.0,0
16.0,-250.0,-42.0,-101.0,-47.0,15.0,0
17.0,-251.0,-42.0,-100.0,-47.0,17.0,0
17.0,-253.0,-40.0,-101.0,-47.0,18.0,0
17.0,-251.0,-46.0,-101.0,-50.0,19.0,0
17.0,-255.0,-46.0,-102.0,-52.0,23.0,0
16.0,-251.0,-44.0,-103.0,-56.0,22.0,0
15.0,-252.0,-44.0,-100.0,-61.0,25.0,0
11.0,-250.0,-41.0,-99.0,-66.0,26.0,0
15.0,-255.0,-48.0,-98.0,-71.0,26.0,0
15.0,-252.0,-47.0,-96.0,-76.0,27.0,0
12.0,-255.0,-48.0,-95.0,-82.0,27.0,0
14.0,-255.0,-47.0,-94.0,-85.0,26.0,0
15.0,-256.0,-50.0,-90.0,-88.0,25.0,0
13.0,-258.0,-50.0,-88.0,-92.0,24.0,0
13.0,-260.0,-49.0,-84.0,-91.0,20.0,0
15.0,-253.0,-47.0,-80.0,-89.0,18.0,0
18.0,-258.0,-46.0,-77.0,-87.0,14.0,0
16.0,-255.0,-43.0,-75.0,-84.0,10.0,0
15.0,-256.0,-47.0,-71.0,-81.0,9.0,0
17.0,-257.0,-51.0,-65.0,-77.0,8.0,0
18.0,-255.0,-50.0,-60.0,-74.0,7.0,0
15.0,-254.0,-53.0,-56.0,-73.0,4.0,0
17.0,-253.0,-48.0,-56.0,-73.0,3.0,0
16.0,-250.0,-49.0,-58.0,-74.0,2.0,0
18.0,-251.0,-48.0,-58.0,-75.0,-1.0,0
18.0,-253.0,-46.0,-63.0,-78.0,-2.0,0
16.0,-250.0,-48.0,-69.0,-79.0,-4.0,0
18.0,-252.0,-48.0,-78.0,-78.0,-4.0,0
21.0,-255.0,-50.0,-84.0,-77.0,-4.0,0
19.0,-254.0,-48.0,-88.0,-73.0,-7.0,0
16.0,-253.0,-49.0,-90.0,-69.0,-8.0,0
16.0,-253.0,-46.0,-93.0,-65.0,-8.0,0
19.0,-255.0,-43.0,-90.0,-60.0,-9.0,0
20.0,-256.0,-48.0,-84.0,-54.0,-10.0,0
18.0,-256.0,-44.0,-77.0,-51.0,-13.0,0
17.0,-256.0,-46.0,-68.0,-50.0,-14.0,0
19.0,-255.0,-46.0,-62.0,-48.0,-14.0,0
19.0,-257.0,-43.0,-55.0,-49.0,-15.0,0
19.0,-254.0,-43.0,-54.0,-50.0,-15.0,0
16.0,-254.0,-46.0,-54.0,-49.0,-14.0,0
20.0,-253.0,-45.0,-56.0,-50.0,-12.0,0
19.0,-253.0,-48.0,-55.0,-49.0,-11.0,0
18.0,-247.0,-45.0,-56.0,-48.0,-9.0,0
17.0,-251.0,-52.0,-57.0,-44.0,-7.0,0
20.0,-251.0,-50.0,-59.0,-43.0,-6.0,0
18.0,-250.0,-46.0,-63.0,-41.0,-5.0,0
17.0,-248.0,-49.0,-70.0,-38.0,-4.0,0
19.0,-252.0,-43.0,-75.0,-34.0,-3.0,0
20.0,-254.0,-46.0,-80.0,-30.0,-3.0,0
18.0,-250.0,-46.0,-81.0,-27.0,-2.0,0
16.0,-250.0,-47.0,-82.0,-22.0,0.0,0
20.0,-252.0,-47.0,-80.0,-17.0,-1.0,0
18.0,-251.0,-47.0,-79.0,-13.0,0.0,0
17.0,-251.0,-46.0,-79.0,-7.0,1.0,0
20.0,-252.0,-51.0,-78.0,-4.0,1.0,0
19.0,-251.0,-46.0,-80.0,1.0,2.0,0
22.0,-250.0,-49.0,-82.0,6.0,2.0,0
19.0,-255.0,-52.0,-87.0,10.0,0.0,0
19.0,-250.0,-49.0,-92.0,13.0,-1.0,0
19.0,-252.0,-47.0,-96.0,18.0,-1.0,0
18.0,-251.0,-48.0,-102.0,21.0,-2.0,0
18.0,-253.0,-49.0,-108.0,24.0,-3.0,0
17.0,-251.0,-48.0,-112.0,27.0,-3.0,0
17.0,-251.0,-52.0,-116.0,29.0,-4.0,0
19.0,-253.0,-47.0,-116.0,33.0,-6.0,0
14.0,-255.0,-46.0,-115.0,35.0,-5.0,0
16.0,-254.0,-48.0,-111.0,38.0,-7.0,0
18.0,-254.0,-47.0,-107.0,42.0,-7.0,0
18.0,-255.0,-46.0,-102.0,47.0,-7.0,0
15.0,-256.0,-46.0,-96.0,51.0,-8.0,0
18.0,-257.0,-52.0,-90.0,57.0,-11.0,0
17.0,-254.0,-50.0,-86.0,62.0,-10.0,0
17.0,-256.0,-51.0,-82.0,70.0,-14.0,0
18.0,-254.0,-51.0,-78.0,75.0,-16.0,0
18.0,-255.0,-51.0,-76.0,81.0,-17.0,0
18.0,-258.0,-50.0,-76.0,89.0,-18.0,0
18.0,-254.0,-50.0,-75.0,94.0,-20.0,0
15.0,-254.0,-49.0,-76.0,97.0,-20.0,0
16.0,-252.0,-49.0,-77.0,103.0,-19.0,0
19.0,-255.0,-55.0,-78.0,105.0,-19.0,0
16.0,-254.0,-48.0,-76.0,107.0,-20.0,0
20.0,-254.0,-51.0,-67.0,108.0,-20.0,0
17.0,-254.0,-50.0,-59.0,111.0,-19.0,0
18.0,-253.0,-49.0,-50.0,114.0,-20.0,0
20.0,-252.0,-55.0,-45.0,115.0,-20.0,0
15.0,-250.0,-54.0,-43.0,117.0,-20.0,0
18.0,-250.0,-57.0,-42.0,115.0,-21.0,0
17.0,-251.0,-56.0,-46.0,115.0,-21.0,0
18.0,-250.0,-55.0,-55.0,112.0,-19.0,0
19.0,-251.0,-54.0,-66.0,110.0,-17.0,0
16.0,-251.0,-56.0,-76.0,107.0,-13.0,0
19.0,-250.0,-56.0,-89.0,102.0,-13.0,0
19.0,-249.0,-57.0,-98.0,101.0,-12.0,0
15.0,-250.0,-57.0,-107.0,97.0,-12.0,0
12.0,-249.0,-55.0,-112.0,94.0,-10.0,0
11.0,-248.0,-53.0,-119.0,88.0,-9.0,0
14.0,-249.0,-56.0,-126.0,79.0,-5.0,0
10.0,-251.0,-55.0,-130.0,66.0,0.0,0
12.0,-251.0,-56.0,-132.0,54.0,6.0,0
14.0,-250.0,-54.0,-135.0,46.0,10.0,0
16.0,-255.0,-55.0,-132.0,40.0,14.0,0
14.0,-259.0,-51.0,-127.0,38.0,17.0,0
17.0,-255.0,-55.0,-118.0,38.0,16.0,0
16.0,-258.0,-55.0,-108.0,37.0,18.0,0
15.0,-255.0,-54.0,-98.0,38.0,18.0,0
13.0,-252.0,-58.0,-88.0,37.0,17.0,0
12.0,-253.0,-57.0,-85.0,35.0,18.0,0
15.0,-253.0,-59.0,-83.0,33.0,18.0,0
14.0,-252.0,-55.0,-86.0,31.0,18.0,0
12.0,-251.0,-53.0,-92.0,30.0,13.0,0
15.0,-249.0,-56.0,-97.0,30.0,10.0,0
13.0,-251.0,-55.0,-96.0,29.0,7.0,0
14.0,-252.0,-59.0,-93.0,30.0,3.0,0
13.0,-250.0,-58.0,-85.0,30.0,-1.0,0
13.0,-252.0,-60.0,-79.0,31.0,-4.0,0
11.0,-252.0,-58.0,-76.0,32.0,-6.0,0
12.0,-250.0,-61.0,-76.0,33.0,-9.0,0
10.0,-253.0,-59.0,-78.0,31.0,-10.0,0
12.0,-251.0,-61.0,-80.0,30.0,-9.0,0
11.0,-251.0,-59.0,-82.0,30.0,-8.0,0
12.0,-252.0,-57.0,-84.0,30.0,-8.0,0
13.0,-257.0,-57.0,-82.0,34.0,-8.0,0
14.0,-257.0,-59.0,-80.0,34.0,-8.0,0
9.0,-254.0,-51.0,-76.0,32.0,-8.0,0
12.0,-255.0,-58.0,-73.0,30.0,-9.0,0
11.0,-258.0,-55.0,-68.0,27.0,-10.0,0
7.0,-254.0,-57.0,-62.0,20.0,-11.0,0
7.0,-256.0,-57.0,-54.0,13.0,-11.0,0
7.0,-259.0,-56.0,-46.0,4.0,-12.0,0
8.0,-257.0,-60.0,-36.0,-6.0,-13.0,0
8.0,-256.0,-56.0,-32.0,-15.0,-11.0,0
6.0,-258.0,-65.0,-25.0,-23.0,-12.0,0
10.0,-256.0,-69.0,-22.0,-27.0,-12.0,0
9.0,-254.0,-63.0,-23.0,-33.0,-12.0,0
10.0,-255.0,-63.0,-22.0,-38.0,-11.0,0
12.0,-255.0,-64.0,-23.0,-40.0,-11.0,0
12.0,-255.0,-62.0,-21.0,-43.0,-10.0,0
12.0,-255.0,-58.0,-19.0,-44.0,-8.0,0
11.0,-254.0,-57.0,-12.0,-47.0,-5.0,0
13.0,-253.0,-52.0,-4.0,-51.0,-5.0,0
13.0,-254.0,-53.0,10.0,-53.0,-3.0,0
14.0,-255.0,-55.0,23.0,-58.0,-1.0,0
15.0,-254.0,-55.0,34.0,-61.0,0.0,0
17.0,-253.0,-55.0,43.0,-63.0,0.0,0
16.0,-249.0,-57.0,47.0,-68.0,-1.0,0
16.0,-249.0,-53.0,47.0,-69.0,-2.0,0
15.0,-248.0,-54.0,46.0,-72.0,-1.0,0
12.0,-249.0,-52.0,39.0,-73.0,-4.0,0
16.0,-248.0,-53.0,29.0,-74.0,-5.0,0
17.0,-249.0,-55.0,18.0,-74.0,-7.0,0
14.0,-248.0,-53.0,6.0,-75.0,-8.0,0
17.0,-252.0,-55.0,-5.0,-73.0,-8.0,0
16.0,-250.0,-53.0,-16.0,-72.0,-9.0,0
12.0,-249.0,-56.0,-22.0,-71.0,-10.0,0
16.0,-251.0,-53.0,-27.0,-72.0,-10.0,0
16.0,-252.0,-55.0,-27.0,-74.0,-9.0,0
16.0,-252.0,-54.0,-28.0,-75.0,-9.0,0
19.0,-251.0,-52.0,-29.0,-75.0,-9.0,0
16.0,-249.0,-52.0,-29.0,-73.0,-10.0,0
19.0,-252.0,-52.0,-28.0,-73.0,-10.0,0
19.0,-251.0,-53.0,-31.0,-72.0,-11.0,0
20.0,-251.0,-55.0,-34.0,-70.0,-13.0,0
18.0,-251.0,-54.0,-37.0,-67.0,-15.0,0
20.0,-249.0,-54.0,-35.0,-64.0,-17.0,0
20.0,-250.0,-56.0,-35.0,-63.0,-17.0,0
20.0,-250.0,-54.0,-33.0,-63.0,-19.0,0
23.0,-251.0,-56.0,-31.0,-62.0,-20.0,0
19.0,-250.0,-56.0,-26.0,-63.0,-20.0,0
20.0,-254.0,-55.0,-25.0,-63.0,-19.0,0
21.0,-255.0,-51.0,-21.0,-65.0,-19.0,0
20.0,-253.0,-52.0,-22.0,-65.0,-17.0,0
21.0,-252.0,-53.0,-20.0,-64.0,-17.0,0
20.0,-252.0,-55.0,-19.0,-65.0,-14.0,0
22.0,-253.0,-53.0,-18.0,-64.0,-13.0,0
23.0,-255.0,-54.0,-20.0,-62.0,-13.0,0
21.0,-257.0,-53.0,-19.0,-59.0,-12.0,0
19.0,-254.0,-53.0,-21.0,-57.0,-12.0,0
18.0,-254.0,-55.0,-20.0,-56.0,-12.0,0
22.0,-257.0,-52.0,-19.0,-53.0,-13.0,0
20.0,-256.0,-54.0,-18.0,-53.0,-11.0,0
20.0,-253.0,-50.0,-14.0,-52.0,-8.0,0
22.0,-252.0,-55.0,-10.0,-52.0,-6.0,0
22.0,-256.0,-53.0,-9.0,-50.0,-5.0,0
23.0,-254.0,-56.0,-9.0,-49.0,-5.0,0
21.0,-250.0,-50.0,-13.0,-48.0,-4.0,0
22.0,-251.0,-54.0,-17.0,-46.0,-4.0,0
20.0,-250.0,-51.0,-21.0,-44.0,-7.0,0
23.0,-253.0,-54.0,-26.0,-39.0,-7.0,0
21.0,-249.0,-48.0,-31.0,-36.0,-8.0,0
22.0,-250.0,-53.0,-34.0,-33.0,-9.0,0
22.0,-252.0,-53.0,-37.0,-31.0,-10.0,0
21.0,-253.0,-51.0,-35.0,-29.0,-10.0,0
21.0,-254.0,-54.0,-34.0,-26.0,-11.0,0
21.0,-252.0,-52.0,-32.0,-23.0,-13.0,0
22.0,-254.0,-50.0,-27.0,-21.0,-11.0,0
19.0,-251.0,-53.0,-20.0,-16.0,-13.0,0
17.0,-250.0,-54.0,-17.0,-14.0,-13.0,0
18.0,-250.0,-51.0,-14.0,-12.0,-12.0,0
19.0,-250.0,-54.0,-14.0,-13.0,-12.0,0
21.0,-248.0,-52.0,-19.0,-13.0,-12.0,0
20.0,-248.0,-54.0,-28.0,-12.0,-13.0,0
19.0,-249.0,-53.0,-38.0,-13.0,-13.0,0
17.0,-251.0,-53.0,-52.0,-11.0,-16.0,0
18.0,-250.0,-51.0,-61.0,-9.0,-16.0,0
17.0,-251.0,-51.0,-68.0,-6.0,-16.0,0
20.0,-255.0,-48.0,-68.0,-2.0,-14.0,0
20.0,-256.0,-52.0,-64.0,2.0,-14.0,0
17.0,-255.0,-53.0,-57.0,4.0,-13.0,0
19.0,-255.0,-50.0,-50.0,5.0,-14.0,0
21.0,-252.0,-52.0,-45.0,7.0,-14.0,0
16.0,-248.0,-45.0,-40.0,8.0,-13.0,0
18.0,-252.0,-51.0,-35.0,10.0,-14.0,0
21.0,-250.0,-52.0,-34.0,13.0,-15.0,0
23.0,-251.0,-47.0,-34.0,17.0,-14.0,0
22.0,-252.0,-48.0,-38.0,22.0,-16.0,0
23.0,-253.0,-48.0,-44.0,29.0,-18.0,0
21.0,-249.0,-50.0,-50.0,33.0,-18.0,0
22.0,-252.0,-52.0,-58.0,38.0,-19.0,0
23.0,-254.0,-54.0,-62.0,45.0,-22.0,0
20.0,-255.0,-52.0,-65.0,50.0,-24.0,0
18.0,-251.0,-51.0,-61.0,54.0,-23.0,0
20.0,-255.0,-50.0,-58.0,59.0,-25.0,0
19.0,-255.0,-47.0,-51.0,60.0,-24.0,0
21.0,-254.0,-49.0,-42.0,60.0,-22.0,0
20.0,-253.0,-49.0,-36.0,61.0,-21.0,0
20.0,-254.0,-51.0,-31.0,62.0,-20.0,0
20.0,-253.0,-51.0,-28.0,61.0,-19.0,0
21.0,-253.0,-50.0,-28.0,60.0,-17.0,0
20.0,-251.0,-53.0,-27.0,60.0,-15.0,0
22.0,-250.0,-54.0,-27.0,60.0,-15.0,0
20.0,-250.0,-49.0,-30.0,61.0,-16.0,0
13.0,-248.0,-56.0,-31.0,61.0,-16.0,0
19.0,-249.0,-50.0,-33.0,61.0,-15.0,0
19.0,-251.0,-55.0,-34.0,61.0,-17.0,0
17.0,-250.0,-47.0,-37.0,60.0,-15.0,0
20.0,-248.0,-52.0,-39.0,59.0,-17.0,0
20.0,-249.0,-55.0,-43.0,59.0,-16.0,0
18.0,-251.0,-51.0,-43.0,58.0,-15.0,0
18.0,-253.0,-53.0,-44.0,57.0,-16.0,0
18.0,-254.0,-49.0,-47.0,56.0,-17.0,0
15.0,-252.0,-51.0,-46.0,55.0,-15.0,0
18.0,-252.0,-53.0,-46.0,54.0,-15.0,0
20.0,-254.0,-51.0,-44.0,54.0,-15.0,0
18.0,-253.0,-50.0,-39.0,53.0,-15.0,0
19.0,-253.0,-52.0,-37.0,50.0,-13.0,0
19.0,-253.0,-50.0,-35.0,49.0,-13.0,0
16.0,-253.0,-52.0,-37.0,49.0,-13.0,0
20.0,-255.0,-50.0,-37.0,48.0,-14.0,0
18.0,-252.0,-56.0,-36.0,45.0,-16.0,0
16.0,-251.0,-52.0,-36.0,42.0,-14.0,0
17.0,-252.0,-56.0,-40.0,42.0,-14.0,0
16.0,-253.0,-55.0,-41.0,40.0,-13.0,0
17.0,-251.0,-50.0,-42.0,38.0,-13.0,0
16.0,-250.0,-53.0,-42.0,37.0,-13.0,0
19.0,-253.0,-55.0,-39.0,35.0,-13.0,0
20.0,-253.0,-54.0,-38.0,32.0,-12.0,0
17.0,-252.0,-53.0,-35.0,30.0,-14.0,0
17.0,-255.0,-52.0,-34.0,29.0,-14.0,0
20.0,-253.0,-54.0,-33.0,30.0,-16.0,0
17.0,-253.0,-53.0,-33.0,29.0,-16.0,0
20.0,-254.0,-53.0,-31.0,29.0,-18.0,0
19.0,-253.0,-52.0,-31.0,28.0,-18.0,0
16.0,-251.0,-54.0,-32.0,27.0,-17.0,0
21.0,-252.0,-47.0,-32.0,27.0,-18.0,0
20.0,-250.0,-53.0,-31.0,25.0,-19.0,0
19.0,-251.0,-53.0,-31.0,21.0,-17.0,0
17.0,-252.0,-49.0,-30.0,20.0,-16.0,0
18.0,-251.0,-53.0,-31.0,15.0,-13.0,0
15.0,-250.0,-49.0,-32.0,13.0,-12.0,0
19.0,-250.0,-50.0,-31.0,10.0,-12.0,0
19.0,-251.0,-52.0,-34.0,8.0,-9.0,0
21.0,-253.0,-53.0,-36.0,8.0,-7.0,0
17.0,-254.0,-53.0,-38.0,9.0,-6.0,0
19.0,-251.0,-51.0,-40.0,11.0,-6.0,0
18.0,-255.0,-53.0,-42.0,9.0,-6.0,0
21.0,-253.0,-56.0,-43.0,9.0,-6.0,0
22.0,-252.0,-53.0,-43.0,10.0,-4.0,0
21.0,-253.0,-54.0,-40.0,12.0,-7.0,0
21.0,-253.0,-54.0,-38.0,16.0,-9.0,0
19.0,-254.0,-51.0,-35.0,18.0,-10.0,0
17.0,-254.0,-49.0,-32.0,18.0,-10.0,0
17.0,-253.0,-52.0,-29.0,16.0,-13.0,0
18.0,-251.0,-52.0,-27.0,15.0,-13.0,0
15.0,-251.0,-51.0,-23.0,11.0,-10.0,0
19.0,-254.0,-53.0,-21.0,10.0,-8.0,0
19.0,-251.0,-52.0,-22.0,8.0,-6.0,0
18.0,-251.0,-53.0,-24.0,10.0,-5.0,0
17.0,-251.0,-55.0,-28.0,11.0,-4.0,0
21.0,-253.0,-53.0,-34.0,10.0,-3.0,0
17.0,-250.0,-53.0,-40.0,11.0,-3.0,0
18.0,-248.0,-55.0,-47.0,12.0,-3.0,0
18.0,-249.0,-54.0,-55.0,13.0,-2.0,0
17.0,-251.0,-53.0,-60.0,14.0,-1.0,0
22.0,-253.0,-53.0,-65.0,18.0,-2.0,0
22.0,-252.0,-54.0,-69.0,20.0,-4.0,0
20.0,-255.0,-51.0,-67.0,25.0,-5.0,0
19.0,-254.0,-53.0,-65.0,28.0,-6.0,0
22.0,-257.0,-49.0,-53.0,32.0,-7.0,0
19.0,-253.0,-53.0,-43.0,35.0,-8.0,0
17.0,-251.0,-53.0,-35.0,37.0,-10.0,0
18.0,-249.0,-55.0,-29.0,39.0,-11.0,0
18.0,-252.0,-51.0,-29.0,41.0,-12.0,0
20.0,-250.0,-52.0,-29.0,43.0,-14.0,0
20.0,-249.0,-50.0,-31.0,46.0,-16.0,0
19.0,-248.0,-53.0,-36.0,48.0,-17.0,0
21.0,-250.0,-50.0,-42.0,52.0,-20.0,0
21.0,-253.0,-52.0,-46.0,56.0,-23.0,0
21.0,-254.0,-48.0,-50.0,58.0,-23.0,0
21.0,-257.0,-50.0,-51.0,60.0,-24.0,0
20.0,-253.0,-48.0,-48.0,62.0,-24.0,0
19.0,-254.0,-49.0,-41.0,62.0,-23.0,0
21.0,-252.0,-48.0,-36.0,64.0,-21.0,0
19.0,-252.0,-48.0,-29.0,64.0,-21.0,0
21.0,-255.0,-53.0,-25.0,65.0,-19.0,0
21.0,-255.0,-53.0,-23.0,66.0,-20.0,0
20.0,-252.0,-53.0,-26.0,66.0,-20.0,0
19.0,-252.0,-52.0,-29.0,67.0,-19.0,0
19.0,-251.0,-53.0,-36.0,68.0,-19.0,0
19.0,-253.0,-52.0,-43.0,69.0,-18.0,0
17.0,-259.0,-49.0,-44.0,68.0,-19.0,0
19.0,-253.0,-51.0,-48.0,66.0,-19.0,0
18.0,-253.0,-48.0,-47.0,64.0,-18.0,0
17.0,-250.0,-50.0,-46.0,61.0,-16.0,0
21.0,-254.0,-50.0,-43.0,60.0,-16.0,0
18.0,-252.0,-50.0,-40.0,56.0,-15.0,0
18.0,-255.0,-48.0,-34.0,54.0,-14.0,0
15.0,-252.0,-48.0,-29.0,52.0,-14.0,0
14.0,-252.0,-49.0,-27.0,51.0,-14.0,0
16.0,-251.0,-50.0,-28.0,49.0,-14.0,0
19.0,-256.0,-47.0,-32.0,46.0,-15.0,0
13.0,-252.0,-52.0,-37.0,46.0,-12.0,0
16.0,-254.0,-50.0,-40.0,45.0,-13.0,0
21.0,-258.0,-51.0,-42.0,46.0,-13.0,0
13.0,-253.0,-49.0,-40.0,45.0,-12.0,0
13.0,-256.0,-52.0,-38.0,46.0,-11.0,0
14.0,-255.0,-48.0,-38.0,44.0,-11.0,0
16.0,-258.0,-52.0,-34.0,41.0,-10.0,0
15.0,-253.0,-48.0,-34.0,38.0,-8.0,0
14.0,-256.0,-55.0,-32.0,37.0,-5.0,0
18.0,-254.0,-48.0,-31.0,35.0,-6.0,0
17.0,-252.0,-55.0,-33.0,32.0,-4.0,0
14.0,-252.0,-49.0,-33.0,30.0,-2.0,0
15.0,-255.0,-49.0,-33.0,25.0,-1.0,0
13.0,-253.0,-50.0,-33.0,19.0,1.0,0
15.0,-253.0,-49.0,-32.0,15.0,4.0,0
14.0,-254.0,-47.0,-33.0,8.0,7.0,0
14.0,-253.0,-47.0,-29.0,2.0,9.0,0
14.0,-252.0,-48.0,-24.0,-2.0,14.0,0
15.0,-251.0,-49.0,-20.0,-7.0,14.0,0
13.0,-252.0,-41.0,-14.0,-10.0,16.0,0
16.0,-249.0,-47.0,-11.0,-13.0,15.0,0
16.0,-250.0,-33.0,-7.0,-16.0,13.0,0
14.0,-249.0,-45.0,-9.0,-18.0,14.0,0
14.0,-248.0,-46.0,-9.0,-18.0,13.0,0
14.0,-249.0,-45.0,-13.0,-17.0,11.0,0
14.0,-250.0,-46.0,-21.0,-17.0,8.0,0
14.0,-250.0,-45.0,-28.0,-16.0,7.0,0
14.0,-249.0,-47.0,-35.0,-14.0,4.0,0
16.0,-249.0,-47.0,-42.0,-12.0,2.0,0
17.0,-250.0,-43.0,-45.0,-13.0,1.0,0
18.0,-251.0,-45.0,-46.0,-11.0,-2.0,0
15.0,-248.0,-43.0,-43.0,-10.0,-3.0,0
21.0,-242.0,-47.0,-41.0,-10.0,-4.0,0
18.0,-251.0,-44.0,-35.0,-11.0,-5.0,0
18.0,-250.0,-44.0,-32.0,-10.0,-6.0,0
16.0,-250.0,-45.0,-31.0,-9.0,-8.0,0
16.0,-250.0,-48.0,-30.0,-7.0,-10.0,0
17.0,-251.0,-46.0,-29.0,-5.0,-11.0,0
19.0,-250.0,-48.0,-34.0,-4.0,-12.0,0
21.0,-250.0,-49.0,-38.0,-1.0,-13.0,0
18.0,-250.0,-45.0,-41.0,2.0,-16.0,0
22.0,-251.0,-46.0,-46.0,2.0,-17.0,0
21.0,-252.0,-48.0,-52.0,4.0,-16.0,0
21.0,-253.0,-45.0,-55.0,4.0,-17.0,0
18.0,-252.0,-46.0,-57.0,1.0,-17.0,0
18.0,-251.0,-48.0,-57.0,-1.0,-16.0,0
19.0,-253.0,-47.0,-56.0,-5.0,-18.0,0
19.0,-254.0,-47.0,-52.0,-6.0,-16.0,0
17.0,-254.0,-46.0,-49.0,-9.0,-16.0,0
15.0,-250.0,-47.0,-46.0,-12.0,-15.0,0
16.0,-254.0,-50.0,-41.0,-13.0,-15.0,0
16.0,-252.0,-46.0,-39.0,-13.0,-15.0,0
19.0,-255.0,-52.0,-42.0,-14.0,-14.0,0
16.0,-252.0,-50.0,-45.0,-14.0,-14.0,0
18.0,-253.0,-49.0,-50.0,-15.0,-12.0,0
18.0,-252.0,-47.0,-54.0,-15.0,-9.0,0
21.0,-255.0,-48.0,-56.0,-13.0,-8.0,0
16.0,-257.0,-53.0,-52.0,-12.0,-8.0,0
18.0,-255.0,-57.0,-46.0,-12.0,-6.0,0
18.0,-253.0,-52.0,-45.0,-10.0,-6.0,0
17.0,-254.0,-51.0,-43.0,-9.0,-5.0,0
23.0,-255.0,-53.0,-41.0,-8.0,-4.0,0
21.0,-252.0,-49.0,-40.0,-6.0,-4.0,0
20.0,-252.0,-46.0,-38.0,-4.0,-5.0,0
25.0,-244.0,-48.0,-39.0,-4.0,-5.0,0
19.0,-253.0,-45.0,-41.0,-2.0,-3.0,0
21.0,-252.0,-50.0,-45.0,0.0,-3.0,0
23.0,-252.0,-49.0,-48.0,2.0,-6.0,0
19.0,-253.0,-49.0,-50.0,4.0,-7.0,0
21.0,-251.0,-48.0,-54.0,5.0,-8.0,0
20.0,-251.0,-46.0,-57.0,9.0,-10.0,0
18.0,-253.0,-45.0,-59.0,12.0,-10.0,0
21.0,-252.0,-48.0,-58.0,15.0,-12.0,0
19.0,-253.0,-48.0,-56.0,17.0,-13.0,0
21.0,-251.0,-49.0,-55.0,19.0,-15.0,0
22.0,-250.0,-45.0,-53.0,21.0,-15.0,0
21.0,-252.0,-43.0,-54.0,22.0,-16.0,0
23.0,-251.0,-48.0,-57.0,21.0,-16.0,0
22.0,-249.0,-47.0,-58.0,23.0,-17.0,0
21.0,-249.0,-52.0,-62.0,25.0,-17.0,0
23.0,-252.0,-46.0,-63.0,25.0,-18.0,0
19.0,-250.0,-51.0,-65.0,26.0,-18.0,0
21.0,-250.0,-52.0,-67.0,24.0,-17.0,0
19.0,-251.0,-53.0,-67.0,25.0,-17.0,0
20.0,-254.0,-49.0,-69.0,24.0,-17.0,0
19.0,-251.0,-48.0,-70.0,23.0,-16.0,0
21.0,-249.0,-53.0,-70.0,22.0,-14.0,0
19.0,-249.0,-50.0,-70.0,22.0,-13.0,0
20.0,-250.0,-48.0,-73.0,22.0,-12.0,0
22.0,-254.0,-51.0,-78.0,23.0,-12.0,0
20.0,-250.0,-53.0,-80.0,25.0,-11.0,0
21.0,-254.0,-51.0,-83.0,29.0,-8.0,0
19.0,-253.0,-50.0,-81.0,31.0,-8.0,0
19.0,-255.0,-53.0,-79.0,32.0,-8.0,0
22.0,-256.0,-51.0,-74.0,34.0,-8.0,0
22.0,-252.0,-51.0,-71.0,34.0,-8.0,0
21.0,-257.0,-52.0,-64.0,35.0,-8.0,0
23.0,-254.0,-49.0,-58.0,38.0,-9.0,0
22.0,-252.0,-54.0,-54.0,38.0,-9.0,0
20.0,-254.0,-51.0,-53.0,39.0,-8.0,0
22.0,-252.0,-52.0,-53.0,40.0,-8.0,0
20.0,-253.0,-54.0,-54.0,40.0,-9.0,0
20.0,-255.0,-56.0,-55.0,39.0,-9.0,0
20.0,-254.0,-52.0,-56.0,40.0,-9.0,0
22.0,-256.0,-55.0,-59.0,41.0,-10.0,0
22.0,-254.0,-52.0,-57.0,42.0,-9.0,0
17.0,-250.0,-50.0,-53.0,42.0,-10.0,0
20.0,-249.0,-50.0,-48.0,42.0,-10.0,0
18.0,-252.0,-48.0,-44.0,41.0,-10.0,0
21.0,-253.0,-48.0,-41.0,41.0,-9.0,0
21.0,-253.0,-50.0,-38.0,39.0,-9.0,0
19.0,-249.0,-49.0,-37.0,39.0,-8.0,0
17.0,-249.0,-52.0,-40.0,38.0,-8.0,0
20.0,-249.0,-51.0,-43.0,37.0,-8.0,0
19.0,-249.0,-50.0,-46.0,37.0,-9.0,0
19.0,-250.0,-51.0,-48.0,34.0,-9.0,0
21.0,-252.0,-52.0,-52.0,34.0,-9.0,0
21.0,-253.0,-53.0,-55.0,34.0,-9.0,0
18.0,-251.0,-50.0,-56.0,35.0,-9.0,0
20.0,-252.0,-53.0,-58.0,36.0,-10.0,0
22.0,-253.0,-51.0,-60.0,37.0,-11.0,0
21.0,-254.0,-49.0,-60.0,38.0,-10.0,0
19.0,-254.0,-51.0,-58.0,41.0,-13.0,0
20.0,-253.0,-48.0,-59.0,42.0,-13.0,0
22.0,-253.0,-49.0,-61.0,42.0,-14.0,0
20.0,-250.0,-52.0,-60.0,43.0,-14.0,0
24.0,-250.0,-52.0,-63.0,45.0,-15.0,0
20.0,-253.0,-52.0,-62.0,45.0,-17.0,0
18.0,-253.0,-51.0,-63.0,48.0,-18.0,0
22.0,-251.0,-48.0,-63.0,49.0,-20.0,0
24.0,-253.0,-50.0,-61.0,52.0,-20.0,0
25.0,-252.0,-51.0,-59.0,55.0,-20.0,0
18.0,-251.0,-48.0,-56.0,56.0,-19.0,0
21.0,-254.0,-48.0,-57.0,54.0,-21.0,0
17.0,-251.0,-51.0,-58.0,53.0,-21.0,0
19.0,-254.0,-51.0,-59.0,49.0,-19.0,0
18.0,-251.0,-46.0,-59.0,44.0,-16.0,0
17.0,-250.0,-50.0,-58.0,36.0,-12.0,0
15.0,-250.0,-51.0,-58.0,29.0,-7.0,0
15.0,-251.0,-51.0,-55.0,22.0,-2.0,0
15.0,-249.0,-51.0,-56.0,19.0,2.0,0
10.0,-250.0,-51.0,-61.0,13.0,6.0,0
14.0,-251.0,-54.0,-69.0,11.0,12.0,0
11.0,-250.0,-49.0,-76.0,7.0,16.0,0
11.0,-250.0,-50.0,-89.0,6.0,21.0,0
14.0,-251.0,-53.0,-98.0,7.0,23.0,0
17.0,-252.0,-51.0,-106.0,11.0,25.0,0
14.0,-255.0,-52.0,-107.0,13.0,26.0,0
18.0,-257.0,-50.0,-104.0,17.0,26.0,0
15.0,-254.0,-50.0,-98.0,19.0,26.0,0
18.0,-253.0,-52.0,-95.0,20.0,26.0,0
16.0,-253.0,-53.0,-93.0,21.0,24.0,0
22.0,-252.0,-54.0,-91.0,24.0,23.0,0
21.0,-250.0,-49.0,-87.0,27.0,22.0,0
21.0,-252.0,-55.0,-82.0,28.0,20.0,0
24.0,-251.0,-52.0,-80.0,31.0,18.0,0
20.0,-248.0,-49.0,-79.0,37.0,15.0,0
21.0,-252.0,-51.0,-80.0,43.0,12.0,0
22.0,-251.0,-49.0,-79.0,48.0,9.0,0
16.0,-248.0,-46.0,-81.0,53.0,8.0,0
18.0,-253.0,-49.0,-79.0,57.0,6.0,0
19.0,-256.0,-50.0,-76.0,60.0,5.0,0
18.0,-250.0,-47.0,-70.0,62.0,4.0,0
18.0,-255.0,-53.0,-63.0,61.0,3.0,0
16.0,-253.0,-48.0,-59.0,60.0,3.0,0
20.0,-253.0,-49.0,-54.0,58.0,3.0,0
17.0,-254.0,-48.0,-53.0,55.0,5.0,0
16.0,-249.0,-48.0,-54.0,52.0,4.0,0
18.0,-253.0,-53.0,-56.0,52.0,3.0,0
16.0,-249.0,-52.0,-60.0,52.0,3.0,0
17.0,-250.0,-53.0,-65.0,52.0,3.0,0
16.0,-250.0,-49.0,-71.0,54.0,4.0,0
16.0,-248.0,-52.0,-75.0,54.0,2.0,0
15.0,-250.0,-49.0,-82.0,54.0,3.0,0
13.0,-250.0,-54.0,-91.0,53.0,2.0,0
15.0,-250.0,-54.0,-99.0,52.0,1.0,0
14.0,-251.0,-53.0,-108.0,54.0,-1.0,0
17.0,-252.0,-54.0,-113.0,52.0,-2.0,0
15.0,-252.0,-55.0,-116.0,50.0,-1.0,0
16.0,-253.0,-49.0,-113.0,51.0,-2.0,0
16.0,-252.0,-54.0,-112.0,53.0,-5.0,0
16.0,-254.0,-51.0,-107.0,57.0,-7.0,0
18.0,-258.0,-52.0,-100.0,58.0,-9.0,0
15.0,-255.0,-52.0,-92.0,57.0,-9.0,0
18.0,-255.0,-53.0,-82.0,59.0,-11.0,0
14.0,-250.0,-54.0,-71.0,58.0,-14.0,0
19.0,-256.0,-51.0,-64.0,58.0,-18.0,0
19.0,-257.0,-55.0,-57.0,57.0,-19.0,0
19.0,-257.0,-56.0,-53.0,57.0,-20.0,0
18.0,-255.0,-56.0,-55.0,56.0,-21.0,0
20.0,-255.0,-56.0,-55.0,54.0,-22.0,0
16.0,-252.0,-57.0,-59.0,53.0,-21.0,0
17.0,-253.0,-57.0,-63.0,53.0,-22.0,0
21.0,-253.0,-55.0,-68.0,52.0,-21.0,0
17.0,-254.0,-53.0,-70.0,54.0,-19.0,0
15.0,-257.0,-54.0,-71.0,51.0,-18.0,0
19.0,-254.0,-50.0,-66.0,50.0,-16.0,0
18.0,-256.0,-52.0,-60.0,47.0,-13.0,0
17.0,-252.0,-49.0,-51.0,43.0,-12.0,0
21.0,-255.0,-51.0,-43.0,40.0,-12.0,0
16.0,-252.0,-53.0,-34.0,40.0,-12.0,0
18.0,-251.0,-50.0,-29.0,37.0,-11.0,0
21.0,-252.0,-54.0,-27.0,37.0,-11.0,0
22.0,-253.0,-49.0,-27.0,34.0,-12.0,0
20.0,-251.0,-55.0,-30.0,34.0,-11.0,0
19.0,-251.0,-53.0,-40.0,33.0,-12.0,0
20.0,-250.0,-53.0,-48.0,32.0,-11.0,0
21.0,-257.0,-55.0,-57.0,30.0,-9.0,0
21.0,-255.0,-55.0,-62.0,29.0,-10.0,0
20.0,-252.0,-54.0,-68.0,29.0,-9.0,0
19.0,-251.0,-52.0,-71.0,29.0,-6.0,0
22.0,-254.0,-55.0,-72.0,28.0,-6.0,0
21.0,-254.0,-56.0,-71.0,30.0,-6.0,0
19.0,-253.0,-56.0,-69.0,31.0,-4.0,0
21.0,-254.0,-57.0,-66.0,30.0,-3.0,0
21.0,-253.0,-59.0,-62.0,30.0,-3.0,0
17.0,-253.0,-55.0,-56.0,29.0,-1.0,0
14.0,-252.0,-57.0,-52.0,28.0,-1.0,0
19.0,-253.0,-53.0,-52.0,25.0,0.0,0
18.0,-254.0,-55.0,-48.0,24.0,1.0,0
20.0,-254.0,-58.0,-47.0,25.0,3.0,0
17.0,-251.0,-53.0,-44.0,24.0,5.0,0
20.0,-252.0,-55.0,-45.0,24.0,6.0,0
20.0,-253.0,-56.0,-48.0,24.0,8.0,0
19.0,-255.0,-49.0,-53.0,24.0,11.0,0
18.0,-252.0,-57.0,-59.0,24.0,14.0,0
17.0,-255.0,-54.0,-64.0,25.0,17.0,0
18.0,-256.0,-58.0,-69.0,28.0,19.0,0
16.0,-256.0,-56.0,-71.0,31.0,25.0,0
19.0,-259.0,-56.0,-70.0,33.0,31.0,0
17.0,-261.0,-56.0,-64.0,35.0,37.0,0
17.0,-261.0,-52.0,-58.0,35.0,42.0,0
17.0,-258.0,-54.0,-49.0,34.0,50.0,0
19.0,-257.0,-53.0,-41.0,33.0,56.0,0
23.0,-257.0,-51.0,-32.0,34.0,63.0,0
20.0,-251.0,-46.0,-26.0,39.0,65.0,0
20.0,-252.0,-44.0,-20.0,47.0,66.0,0
23.0,-256.0,-49.0,-15.0,58.0,66.0,0
23.0,-254.0,-44.0,-5.0,69.0,68.0,0
23.0,-251.0,-46.0,3.0,78.0,65.0,0
28.0,-250.0,-53.0,10.0,87.0,59.0,0
26.0,-247.0,-55.0,13.0,93.0,56.0,0
24.0,-248.0,-51.0,11.0,99.0,49.0,0
25.0,-243.0,-51.0,7.0,103.0,44.0,0
26.0,-243.0,-51.0,-2.0,108.0,40.0,0
28.0,-243.0,-47.0,-16.0,109.0,35.0,0
26.0,-243.0,-47.0,-31.0,112.0,29.0,0
28.0,-245.0,-50.0,-47.0,114.0,22.0,0
22.0,-241.0,-47.0,-65.0,121.0,18.0,0
24.0,-247.0,-49.0,-77.0,126.0,12.0,0
23.0,-247.0,-43.0,-86.0,131.0,9.0,0
19.0,-248.0,-46.0,-91.0,133.0,3.0,0
20.0,-250.0,-46.0,-92.0,132.0,-1.0,0
17.0,-249.0,-43.0,-91.0,131.0,-3.0,0
14.0,-250.0,-45.0,-89.0,127.0,-6.0,0
14.0,-250.0,-49.0,-91.0,121.0,-8.0,0
13.0,-253.0,-52.0,-93.0,113.0,-9.0,0
11.0,-252.0,-52.0,-95.0,106.0,-9.0,0
14.0,-254.0,-55.0,-99.0,98.0,-8.0,0
9.0,-252.0,-57.0,-101.0,91.0,-6.0,0
8.0,-251.0,-58.0,-105.0,83.0,-4.0,0
8.0,-255.0,-59.0,-107.0,78.0,-1.0,0
6.0,-253.0,-56.0,-107.0,73.0,4.0,0
5.0,-254.0,-59.0,-105.0,66.0,7.0,0
7.0,-255.0,-63.0,-106.0,62.0,10.0,0
7.0,-257.0,-62.0,-107.0,53.0,15.0,0
6.0,-255.0,-60.0,-107.0,43.0,20.0,0
10.0,-259.0,-56.0,-102.0,35.0,27.0,0
7.0,-258.0,-58.0,-96.0,30.0,31.0,0
9.0,-260.0,-57.0,-89.0,28.0,35.0,0
11.0,-262.0,-59.0,-78.0,27.0,41.0,0
10.0,-260.0,-58.0,-65.0,27.0,49.0,0
8.0,-259.0,-50.0,-48.0,30.0,59.0,0
10.0,-262.0,-54.0,-34.0,32.0,67.0,0
3.0,-264.0,-53.0,-23.0,29.0,77.0,0
-8.0,-263.0,-55.0,-19.0,23.0,87.0,0
-11.0,-262.0,-54.0,-22.0,7.0,98.0,0
-18.0,-262.0,-55.0,-33.0,-20.0,109.0,0
-16.0,-259.0,-54.0,-49.0,-52.0,126.0,0
-19.0,-257.0,-55.0,-68.0,-86.0,149.0,0
-21.0,-258.0,-58.0,-89.0,-118.0,172.0,0
-21.0,-260.0,-58.0,-113.0,-149.0,198.0,0
-19.0,-259.0,-65.0,-142.0,-177.0,225.0,0
-16.0,-263.0,-65.0,-169.0,-199.0,252.0,0
-19.0,-262.0,-68.0,-194.0,-215.0,279.0,0
-25.0,-263.0,-68.0,-211.0,-227.0,306.0,0
-28.0,-259.0,-68.0,-215.0,-238.0,332.0,0
-28.0,-260.0,-66.0,-217.0,-254.0,355.0,0
-31.0,-261.0,-67.0,-218.0,-272.0,377.0,0
-36.0,-256.0,-63.0,-217.0,-294.0,395.0,0
-36.0,-256.0,-63.0,-212.0,-320.0,406.0,0
-31.0,-256.0,-61.0,-200.0,-347.0,413.0,0
-30.0,-255.0,-58.0,-182.0,-375.0,414.0,0
-19.0,-251.0,-58.0,-161.0,-402.0,412.0,0
-30.0,-248.0,-61.0,-142.0,-423.0,404.0,0
-26.0,-243.0,-59.0,-127.0,-438.0,385.0,0
-23.0,-238.0,-56.0,-113.0,-443.0,356.0,0
-16.0,-236.0,-50.0,-97.0,-442.0,319.0,0
-15.0,-229.0,-43.0,-80.0,-430.0,275.0,0
-10.0,-228.0,-36.0,-59.0,-410.0,224.0,0
-4.0,-223.0,-25.0,-34.0,-388.0,169.0,0
5.0,-221.0,-19.0,-8.0,-366.0,106.0,0
15.0,-227.0,-12.0,22.0,-344.0,37.0,0
22.0,-226.0,-9.0,53.0,-314.0,-33.0,0
31.0,-229.0,-3.0,78.0,-271.0,-102.0,0
33.0,-232.0,-3.0,99.0,-213.0,-168.0,0
33.0,-237.0,-2.0,112.0,-146.0,-223.0,0
28.0,-242.0,-5.0,117.0,-82.0,-272.0,0
26.0,-247.0,-14.0,109.0,-34.0,-313.0,0
25.0,-253.0,-18.0,90.0,3.0,-349.0,0
21.0,-257.0,-25.0,55.0,32.0,-372.0,0
16.0,-256.0,-36.0,9.0,51.0,-383.0,0
14.0,-261.0,-41.0,-46.0,66.0,-385.0,0
13.0,-261.0,-44.0,-99.0,75.0,-379.0,0
5.0,-267.0,-50.0,-155.0,78.0,-364.0,0
6.0,-265.0,-57.0,-209.0,74.0,-344.0,0
1.0,-263.0,-64.0,-271.0,63.0,-318.0,0
3.0,-264.0,-59.0,-336.0,49.0,-289.0,0
5.0,-265.0,-74.0,-396.0,25.0,-259.0,0
5.0,-269.0,-72.0,-451.0,-2.0,-230.0,0
5.0,-270.0,-81.0,-491.0,-31.0,-202.0,0
6.0,-274.0,-84.0,-510.0,-56.0,-175.0,0
19.0,-278.0,-88.0,-511.0,-72.0,-154.0,0
29.0,-281.0,-92.0,-491.0,-63.0,-142.0,0
39.0,-278.0,-96.0,-457.0,-30.0,-133.0,0
46.0,-274.0,-100.0,-419.0,22.0,-129.0,0
55.0,-267.0,-99.0,-384.0,89.0,-130.0,0
64.0,-254.0,-102.0,-356.0,168.0,-136.0,0
74.0,-248.0,-102.0,-327.0,256.0,-141.0,0
80.0,-235.0,-93.0,-298.0,354.0,-147.0,0
93.0,-224.0,-85.0,-259.0,455.0,-149.0,0
101.0,-209.0,-77.0,-217.0,554.0,-143.0,0
107.0,-197.0,-59.0,-175.0,645.0,-129.0,0
116.0,-191.0,-39.0,-134.0,721.0,-109.0,0
125.0,-184.0,-26.0,-91.0,778.0,-85.0,0
131.0,-183.0,-10.0,-50.0,813.0,-57.0,0
133.0,-182.0,-4.0,-12.0,832.0,-24.0,0
125.0,-184.0,1.0,18.0,840.0,7.0,0
110.0,-191.0,0.0,39.0,838.0,38.0,0
93.0,-198.0,-11.0,48.0,823.0,70.0,0
85.0,-214.0,-16.0,44.0,790.0,95.0,0
74.0,-229.0,-24.0,21.0,737.0,116.0,0
66.0,-245.0,-33.0,-22.0,673.0,129.0,0
55.0,-259.0,-40.0,-91.0,604.0,134.0,0
49.0,-273.0,-38.0,-177.0,545.0,126.0,0
37.0,-287.0,-35.0,-275.0,491.0,103.0,0
25.0,-297.0,-34.0,-376.0,449.0,64.0,0
10.0,-308.0,-33.0,-472.0,414.0,14.0,0
4.0,-316.0,-35.0,-552.0,385.0,-41.0,0
-3.0,-323.0,-37.0,-605.0,366.0,-97.0,0
-6.0,-330.0,-36.0,-629.0,355.0,-151.0,0
-12.0,-330.0,-32.0,-621.0,359.0,-201.0,0
-13.0,-335.0,-33.0,-592.0,375.0,-247.0,0
-16.0,-328.0,-36.0,-542.0,402.0,-287.0,0
-19.0,-324.0,-31.0,-474.0,436.0,-322.0,0
-22.0,-316.0,-29.0,-387.0,460.0,-349.0,0
-16.0,-306.0,-22.0,-286.0,474.0,-373.0,0
-14.0,-295.0,-19.0,-183.0,484.0,-393.0,0
-7.0,-290.0,-8.0,-74.0,495.0,-407.0,0
-10.0,-277.0,-11.0,29.0,501.0,-419.0,0
-10.0,-272.0,-4.0,120.0,503.0,-431.0,0
-6.0,-260.0,-3.0,202.0,493.0,-436.0,0
-4.0,-253.0,-2.0,273.0,473.0,-437.0,0
-2.0,-244.0,1.0,334.0,446.0,-431.0,0
0.0,-236.0,4.0,373.0,412.0,-424.0,0
7.0,-223.0,2.0,385.0,374.0,-417.0,0
14.0,-216.0,-4.0,363.0,331.0,-411.0,0
17.0,-205.0,-7.0,306.0,285.0,-406.0,0
21.0,-195.0,-15.0,218.0,240.0,-399.0,0
25.0,-186.0,-18.0,111.0,194.0,-384.0,0
31.0,-184.0,-27.0,-13.0,148.0,-362.0,0
36.0,-181.0,-30.0,-155.0,108.0,-343.0,0
39.0,-183.0,-33.0,-312.0,76.0,-332.0,0
47.0,-187.0,-36.0,-470.0,47.0,-327.0,0
48.0,-191.0,-35.0,-618.0,16.0,-329.0,0
55.0,-195.0,-28.0,-736.0,-15.0,-336.0,0
58.0,-205.0,-22.0,-818.0,-45.0,-348.0,0
62.0,-211.0,-19.0,-860.0,-75.0,-364.0,0
64.0,-222.0,-17.0,-860.0,-100.0,-380.0,0
66.0,-230.0,-10.0,-828.0,-119.0,-398.0,0
68.0,-242.0,-7.0,-765.0,-129.0,-417.0,0
59.0,-254.0,-11.0,-682.0,-135.0,-440.0,0
50.0,-262.0,-10.0,-586.0,-139.0,-463.0,0
44.0,-274.0,-14.0,-479.0,-149.0,-479.0,0
36.0,-284.0,-14.0,-369.0,-167.0,-494.0,0
28.0,-291.0,-18.0,-258.0,-193.0,-506.0,0
22.0,-302.0,-23.0,-150.0,-231.0,-518.0,0
17.0,-304.0,-29.0,-49.0,-282.0,-525.0,0
12.0,-307.0,-38.0,53.0,-340.0,-525.0,0
4.0,-307.0,-44.0,155.0,-393.0,-521.0,0
-1.0,-305.0,-59.0,254.0,-442.0,-515.0,0
-8.0,-295.0,-69.0,342.0,-484.0,-500.0,0
-11.0,-290.0,-79.0,411.0,-522.0,-477.0,0
-15.0,-275.0,-87.0,475.0,-563.0,-442.0,0
-10.0,-265.0,-92.0,540.0,-604.0,-393.0,0
-8.0,-254.0,-99.0,615.0,-640.0,-334.0,0
-2.0,-244.0,-109.0,698.0,-670.0,-272.0,0
-1.0,-235.0,-118.0,757.0,-698.0,-221.0,0
-2.0,-233.0,-131.0,764.0,-734.0,-181.0,0
-1.0,-224.0,-137.0,716.0,-785.0,-143.0,0
-1.0,-224.0,-139.0,621.0,-842.0,-102.0,0
10.0,-232.0,-138.0,488.0,-892.0,-63.0,0
21.0,-235.0,-141.0,325.0,-913.0,-33.0,0
37.0,-239.0,-133.0,151.0,-898.0,-12.0,0
49.0,-247.0,-127.0,-13.0,-857.0,1.0,0
61.0,-252.0,-125.0,-153.0,-802.0,8.0,0
64.0,-249.0,-119.0,-255.0,-746.0,12.0,0
74.0,-255.0,-110.0,-321.0,-698.0,11.0,0
76.0,-250.0,-104.0,-348.0,-659.0,1.0,0
80.0,-251.0,-91.0,-347.0,-632.0,-18.0,0
77.0,-246.0,-87.0,-321.0,-612.0,-43.0,0
80.0,-241.0,-75.0,-277.0,-601.0,-71.0,0
79.0,-235.0,-58.0,-217.0,-598.0,-102.0,0
75.0,-229.0,-46.0,-147.0,-594.0,-132.0,0
78.0,-226.0,-31.0,-71.0,-586.0,-160.0,0
71.0,-216.0,-22.0,7.0,-568.0,-186.0,0
74.0,-214.0,-12.0,76.0,-529.0,-206.0,0
69.0,-212.0,-7.0,139.0,-471.0,-224.0,0
68.0,-217.0,-4.0,186.0,-404.0,-228.0,0
62.0,-222.0,0.0,213.0,-335.0,-211.0,0
51.0,-223.0,1.0,228.0,-283.0,-187.0,0
45.0,-227.0,-2.0,242.0,-256.0,-153.0,0
42.0,-235.0,-15.0,248.0,-249.0,-108.0,0
31.0,-249.0,-29.0,226.0,-250.0,-56.0,0
34.0,-241.0,-32.0,172.0,-253.0,-4.0,0
30.0,-243.0,-46.0,88.0,-258.0,49.0,0
24.0,-241.0,-56.0,-22.0,-270.0,106.0,0
17.0,-245.0,-62.0,-156.0,-284.0,166.0,0
11.0,-245.0,-68.0,-314.0,-307.0,234.0,0
4.0,-246.0,-67.0,-485.0,-336.0,304.0,0
1.0,-246.0,-66.0,-660.0,-365.0,367.0,0
2.0,-249.0,-61.0,-819.0,-385.0,424.0,0
-3.0,-248.0,-65.0,-942.0,-398.0,470.0,0
-5.0,-248.0,-56.0,-1026.0,-409.0,506.0,0
-7.0,-250.0,-53.0,-1065.0,-417.0,532.0,0
-7.0,-253.0,-47.0,-1062.0,-428.0,545.0,0
-5.0,-252.0,-41.0,-1019.0,-447.0,550.0,0
-4.0,-249.0,-27.0,-933.0,-477.0,545.0,0
-1.0,-248.0,-24.0,-806.0,-514.0,534.0,0
0.0,-243.0,-18.0,-646.0,-559.0,518.0,0
1.0,-237.0,-12.0,-456.0,-600.0,495.0,0
0.0,-231.0,0.0,-250.0,-634.0,473.0,0
2.0,-227.0,-1.0,-38.0,-658.0,449.0,0
8.0,-222.0,4.0,166.0,-666.0,427.0,0
13.0,-215.0,-4.0,353.0,-661.0,403.0,0
24.0,-202.0,-5.0,511.0,-638.0,373.0,0
16.0,-195.0,-3.0,636.0,-593.0,338.0,0
10.0,-190.0,-1.0,726.0,-525.0,300.0,0
5.0,-179.0,-1.0,774.0,-446.0,262.0,0
0.0,-171.0,0.0,781.0,-367.0,226.0,0
-5.0,-170.0,4.0,746.0,-304.0,191.0,0
-4.0,-164.0,8.0,677.0,-262.0,160.0,0
-1.0,-164.0,16.0,586.0,-238.0,127.0,0
7.0,-170.0,23.0,484.0,-219.0,90.0,0
20.0,-177.0,24.0,383.0,-200.0,50.0,0
24.0,-181.0,39.0,290.0,-175.0,6.0,0
29.0,-193.0,45.0,221.0,-144.0,-31.0,0
34.0,-201.0,52.0,184.0,-105.0,-61.0,0
36.0,-216.0,52.0,181.0,-51.0,-87.0,0
36.0,-228.0,47.0,208.0,21.0,-117.0,0
32.0,-234.0,30.0,252.0,106.0,-151.0,0
24.0,-242.0,16.0,301.0,198.0,-188.0,0
15.0,-242.0,-9.0,337.0,281.0,-223.0,0
8.0,-242.0,-35.0,349.0,347.0,-252.0,0
3.0,-243.0,-70.0,324.0,390.0,-272.0,0
4.0,-234.0,-106.0,265.0,422.0,-286.0,0
2.0,-225.0,-127.0,178.0,453.0,-292.0,0
12.0,-211.0,-138.0,85.0,485.0,-292.0,0
20.0,-196.0,-140.0,-1.0,513.0,-289.0,0
22.0,-184.0,-140.0,-75.0,528.0,-277.0,0
27.0,-172.0,-135.0,-139.0,532.0,-254.0,0
29.0,-161.0,-118.0,-193.0,533.0,-229.0,0
40.0,-155.0,-93.0,-235.0,528.0,-205.0,0
46.0,-154.0,-69.0,-255.0,519.0,-197.0,0
47.0,-153.0,-58.0,-261.0,515.0,-198.0,0
53.0,-165.0,-52.0,-271.0,531.0,-189.0,0
53.0,-172.0,-43.0,-294.0,590.0,-165.0,0
46.0,-186.0,-51.0,-315.0,695.0,-138.0,0
40.0,-191.0,-55.0,-322.0,815.0,-106.0,0
30.0,-190.0,-68.0,-294.0,928.0,-74.0,0
24.0,-181.0,-81.0,-221.0,1016.0,-52.0,0
21.0,-167.0,-97.0,-124.0,1077.0,-40.0,0
22.0,-146.0,-105.0,-21.0,1112.0,-32.0,0
20.0,-123.0,-100.0,83.0,1127.0,-23.0,0
21.0,-103.0,-84.0,193.0,1119.0,2.0,0
15.0,-79.0,-68.0,306.0,1085.0,52.0,0
10.0,-52.0,-60.0,417.0,1003.0,112.0,0
4.0,-24.0,-64.0,520.0,863.0,165.0,0
0.0,6.0,-50.0,598.0,711.0,218.0,0
-5.0,23.0,-55.0,641.0,568.0,284.0,0
-9.0,41.0,-63.0,640.0,439.0,372.0,0
0.0,40.0,-87.0,604.0,330.0,473.0,0
15.0,36.0,-102.0,537.0,276.0,562.0,0
36.0,24.0,-116.0,428.0,286.0,608.0,0
41.0,11.0,-129.0,282.0,335.0,623.0,0
48.0,-13.0,-139.0,111.0,365.0,640.0,0
56.0,-43.0,-136.0,-47.0,342.0,665.0,0
63.0,-73.0,-129.0,-173.0,272.0,678.0,0
74.0,-103.0,-115.0,-259.0,185.0,676.0,0
87.0,-127.0,-91.0,-306.0,106.0,654.0,0
98.0,-150.0,-63.0,-319.0,56.0,622.0,0
110.0,-180.0,-36.0,-327.0,50.0,565.0,0
103.0,-209.0,-19.0,-356.0,80.0,468.0,0
87.0,-248.0,0.0,-444.0,112.0,373.0,0
80.0,-288.0,20.0,-590.0,112.0,277.0,0
70.0,-322.0,46.0,-769.0,36.0,139.0,0
31.0,-362.0,60.0,-950.0,-108.0,-33.0,0
-21.0,-411.0,71.0,-1108.0,-231.0,-187.0,0
-87.0,-465.0,85.0,-1211.0,-270.0,-293.0,0
-133.0,-534.0,76.0,-1291.0,-210.0,-322.0,0
-141.0,-605.0,30.0,-1478.0,-87.0,-294.0,0
-111.0,-668.0,1.0,-1901.0,56.0,-247.0,0
-52.0,-724.0,-30.0,-2491.0,214.0,-169.0,0
18.0,-768.0,-51.0,-3101.0,332.0,-100.0,0
80.0,-800.0,-75.0,-3528.0,376.0,-80.0,0
123.0,-820.0,-113.0,-3615.0,359.0,-102.0,0
141.0,-824.0,-147.0,-3287.0,315.0,-133.0,0
139.0,-830.0,-179.0,-2556.0,248.0,-135.0,0
130.0,-819.0,-198.0,-1524.0,156.0,-102.0,0
138.0,-795.0,-211.0,-333.0,46.0,-61.0,0
152.0,-747.0,-207.0,881.0,-40.0,-28.0,0
163.0,-674.0,-192.0,1989.0,-92.0,-2.0,0
171.0,-590.0,-177.0,2900.0,-120.0,19.0,0
175.0,-497.0,-164.0,3563.0,-153.0,18.0,0
170.0,-391.0,-148.0,3964.0,-202.0,-35.0,0
141.0,-278.0,-138.0,4101.0,-269.0,-135.0,0
103.0,-161.0,-124.0,3967.0,-337.0,-242.0,0
59.0,-54.0,-105.0,3585.0,-371.0,-322.0,0
47.0,47.0,-67.0,3031.0,-342.0,-381.0,0
41.0,148.0,-6.0,2457.0,-274.0,-485.0,0
28.0,231.0,-22.0,1977.0,-214.0,-566.0,0
-1.0,268.0,-49.0,1451.0,-162.0,-538.0,0
-14.0,263.0,-55.0,789.0,-138.0,-385.0,0
-21.0,225.0,-60.0,47.0,-128.0,-198.0,0
-40.0,174.0,-39.0,-690.0,-170.0,-45.0,0
-65.0,116.0,-23.0,-1337.0,-300.0,56.0,0
-76.0,54.0,-6.0,-1829.0,-495.0,112.0,0
-97.0,9.0,22.0,-2129.0,-715.0,115.0,0
-100.0,-23.0,33.0,-2232.0,-954.0,96.0,0
-99.0,-47.0,52.0,-2171.0,-1176.0,89.0,0
-89.0,-61.0,54.0,-2004.0,-1309.0,141.0,0
-79.0,-67.0,55.0,-1718.0,-1339.0,215.0,0
-77.0,-72.0,52.0,-1323.0,-1293.0,303.0,0
-77.0,-76.0,25.0,-855.0,-1210.0,390.0,0
-76.0,-84.0,-7.0,-353.0,-1120.0,460.0,0
-63.0,-95.0,-51.0,155.0,-1036.0,505.0,0
-44.0,-107.0,-88.0,650.0,-945.0,534.0,0
-16.0,-119.0,-120.0,1133.0,-813.0,572.0,0
9.0,-132.0,-146.0,1590.0,-626.0,594.0,0
28.0,-145.0,-167.0,1975.0,-392.0,590.0,0
49.0,-160.0,-182.0,2244.0,-132.0,575.0,0
71.0,-172.0,-183.0,2355.0,118.0,559.0,0
99.0,-170.0,-179.0,2284.0,324.0,541.0,0
123.0,-190.0,-185.0,2004.0,462.0,516.0,0
161.0,-206.0,-170.0,1528.0,523.0,458.0,0
172.0,-223.0,-159.0,917.0,527.0,289.0,0
150.0,-247.0,-152.0,174.0,470.0,57.0,0
128.0,-291.0,-149.0,-735.0,362.0,-108.0,0
124.0,-365.0,-129.0,-1792.0,235.0,-207.0,0
121.0,-463.0,-92.0,-2910.0,128.0,-356.0,0
102.0,-559.0,-52.0,-3958.0,87.0,-586.0,0
54.0,-653.0,-34.0,-4799.0,130.0,-840.0,0
-19.0,-742.0,-24.0,-5345.0,265.0,-1065.0,0
-101.0,-805.0,-28.0,-5521.0,463.0,-1197.0,0
-160.0,-840.0,-47.0,-5268.0,632.0,-1190.0,0
-173.0,-836.0,-81.0,-4588.0,722.0,-1070.0,0
-150.0,-805.0,-125.0,-3533.0,762.0,-872.0,0
-130.0,-762.0,-155.0,-2225.0,766.0,-644.0,0
-112.0,-702.0,-168.0,-800.0,699.0,-415.0,0
-110.0,-638.0,-174.0,611.0,548.0,-197.0,0
-109.0,-570.0,-164.0,1894.0,340.0,24.0,0
-107.0,-497.0,-161.0,2968.0,112.0,255.0,0
-98.0,-417.0,-154.0,3789.0,-95.0,477.0,0
-80.0,-332.0,-140.0,4344.0,-249.0,661.0,0
-56.0,-242.0,-121.0,4650.0,-344.0,770.0,0
-31.0,-153.0,-108.0,4722.0,-373.0,789.0,0
-27.0,-57.0,-80.0,4587.0,-325.0,739.0,0
-32.0,41.0,-37.0,4282.0,-191.0,669.0,0
-44.0,190.0,26.0,3976.0,36.0,610.0,0
-39.0,252.0,11.0,3750.0,292.0,577.0,0
19.0,291.0,0.0,3365.0,497.0,534.0,0
66.0,300.0,-24.0,2784.0,586.0,360.0,0
86.0,294.0,-67.0,2005.0,624.0,108.0,0
107.0,276.0,-87.0,1079.0,686.0,-60.0,0
119.0,249.0,-84.0,115.0,804.0,-151.0,0
130.0,207.0,-69.0,-785.0,940.0,-181.0,0
141.0,172.0,-63.0,-1519.0,1088.0,-191.0,0
140.0,130.0,-73.0,-2013.0,1190.0,-224.0,0
129.0,87.0,-70.0,-2229.0,1197.0,-295.0,0
120.0,53.0,-78.0,-2169.0,1086.0,-357.0,0
128.0,17.0,-94.0,-1865.0,863.0,-386.0,0
131.0,-7.0,-115.0,-1404.0,576.0,-398.0,0
140.0,-36.0,-124.0,-875.0,288.0,-393.0,0
145.0,-63.0,-119.0,-347.0,33.0,-365.0,0
145.0,-94.0,-89.0,111.0,-165.0,-328.0,0
146.0,-129.0,-61.0,460.0,-300.0,-304.0,0
137.0,-166.0,-8.0,675.0,-345.0,-310.0,0
108.0,-202.0,36.0,799.0,-300.0,-326.0,0
76.0,-269.0,80.0,829.0,-223.0,-290.0,0
33.0,-357.0,133.0,734.0,-152.0,-227.0,0
-31.0,-453.0,164.0,500.0,-118.0,-189.0,0
-128.0,-542.0,153.0,97.0,-118.0,-149.0,0
-202.0,-620.0,70.0,-615.0,-142.0,-1.0,0
-221.0,-703.0,-45.0,-1772.0,-177.0,305.0,0
-176.0,-805.0,-159.0,-3330.0,-218.0,702.0,0
-70.0,-893.0,-248.0,-5012.0,-306.0,1045.0,0
45.0,-950.0,-288.0,-6386.0,-470.0,1190.0,0
104.0,-957.0,-291.0,-6994.0,-733.0,1109.0,0
137.0,-954.0,-281.0,-6585.0,-975.0,957.0,0
140.0,-949.0,-264.0,-5254.0,-1091.0,811.0,0
131.0,-931.0,-239.0,-3343.0,-1062.0,704.0,0
127.0,-900.0,-215.0,-1225.0,-944.0,633.0,0
128.0,-862.0,-215.0,830.0,-797.0,553.0,0
129.0,-805.0,-231.0,2657.0,-638.0,399.0,0
124.0,-708.0,-251.0,4096.0,-491.0,162.0,0
112.0,-578.0,-257.0,5058.0,-387.0,-99.0,0
103.0,-415.0,-249.0,5555.0,-357.0,-310.0,0
65.0,-237.0,-217.0,5656.0,-422.0,-442.0,0
38.0,-52.0,-157.0,5496.0,-550.0,-456.0,0
43.0,127.0,-147.0,5260.0,-676.0,-377.0,0
36.0,270.0,-145.0,4866.0,-718.0,-315.0,0
19.0,356.0,-127.0,4145.0,-696.0,-277.0,0
12.0,394.0,-117.0,3149.0,-701.0,-237.0,0
13.0,394.0,-103.0,1976.0,-725.0,-230.0,0
-5.0,349.0,-60.0,733.0,-770.0,-279.0,0
-29.0,301.0,-14.0,-445.0,-831.0,-295.0,0
-42.0,242.0,33.0,-1446.0,-897.0,-254.0,0
-50.0,183.0,81.0,-2185.0,-927.0,-183.0,0
-56.0,130.0,106.0,-2620.0,-912.0,-102.0,0
-52.0,88.0,101.0,-2752.0,-868.0,-14.0,0
-42.0,56.0,94.0,-2633.0,-806.0,85.0,0
-33.0,28.0,74.0,-2333.0,-771.0,183.0,0
-29.0,9.0,40.0,-1921.0,-771.0,258.0,0
-33.0,-7.0,11.0,-1433.0,-791.0,328.0,0
-43.0,-26.0,-24.0,-882.0,-811.0,408.0,0
-55.0,-39.0,-56.0,-283.0,-803.0,483.0,0
-51.0,-61.0,-84.0,312.0,-753.0,563.0,0
-47.0,-85.0,-102.0,838.0,-655.0,648.0,0
-28.0,-113.0,-115.0,1234.0,-509.0,742.0,0
-6.0,-140.0,-124.0,1459.0,-318.0,827.0,0
24.0,-164.0,-134.0,1488.0,-117.0,871.0,0
48.0,-187.0,-141.0,1322.0,76.0,863.0,0
69.0,-212.0,-128.0,977.0,258.0,816.0,0
78.0,-246.0,-117.0,480.0,406.0,723.0,0
98.0,-289.0,-102.0,-147.0,492.0,601.0,0
115.0,-344.0,-87.0,-869.0,505.0,425.0,0
122.0,-400.0,-87.0,-1633.0,477.0,157.0,0
127.0,-454.0,-106.0,-2399.0,463.0,-161.0,0
131.0,-517.0,-127.0,-3145.0,505.0,-487.0,0
113.0,-571.0,-148.0,-3825.0,620.0,-806.0,0
77.0,-616.0,-148.0,-4316.0,793.0,-1069.0,0
48.0,-657.0,-138.0,-4492.0,958.0,-1230.0,0
41.0,-692.0,-129.0,-4292.0,1045.0,-1298.0,0
29.0,-701.0,-123.0,-3737.0,1049.0,-1324.0,0
13.0,-702.0,-119.0,-2888.0,1023.0,-1286.0,0
-1.0,-695.0,-122.0,-1834.0,1017.0,-1178.0,0
-13.0,-669.0,-136.0,-665.0,1028.0,-1034.0,0
-27.0,-626.0,-169.0,518.0,1027.0,-879.0,0
-58.0,-565.0,-198.0,1602.0,974.0,-721.0,0
-89.0,-499.0,-234.0,2501.0,869.0,-546.0,0
-102.0,-419.0,-256.0,3174.0,732.0,-357.0,0
-116.0,-332.0,-258.0,3611.0,590.0,-190.0,0
-126.0,-233.0,-239.0,3825.0,466.0,-60.0,0
-112.0,-124.0,-188.0,3857.0,372.0,54.0,0
-93.0,-7.0,-146.0,3768.0,327.0,98.0,0
-67.0,78.0,-97.0,3525.0,325.0,76.0,0
-65.0,137.0,-65.0,3104.0,346.0,21.0,0
-55.0,180.0,-28.0,2507.0,397.0,10.0,0
-39.0,194.0,-2.0,1803.0,442.0,23.0,0
-19.0,187.0,28.0,1025.0,493.0,39.0,0
-1.0,163.0,52.0,253.0,515.0,41.0,0
11.0,135.0,89.0,-419.0,508.0,57.0,0
13.0,103.0,101.0,-922.0,514.0,99.0,0
-1.0,70.0,91.0,-1224.0,532.0,158.0,0
-7.0,28.0,67.0,-1355.0,563.0,204.0,0
-20.0,-3.0,31.0,-1361.0,612.0,199.0,0
-27.0,-33.0,-3.0,-1288.0,667.0,171.0,0
-25.0,-50.0,-32.0,-1144.0,692.0,137.0,0
-16.0,-60.0,-61.0,-925.0,668.0,102.0,0
-2.0,-72.0,-83.0,-633.0,589.0,66.0,0
22.0,-91.0,-104.0,-314.0,459.0,41.0,0
35.0,-107.0,-129.0,-36.0,289.0,25.0,0
46.0,-120.0,-134.0,146.0,104.0,20.0,0
57.0,-145.0,-153.0,225.0,-85.0,20.0,0
75.0,-172.0,-176.0,162.0,-257.0,6.0,0
97.0,-203.0,-182.0,-71.0,-388.0,-42.0,0
118.0,-250.0,-159.0,-452.0,-488.0,-122.0,0
126.0,-309.0,-125.0,-968.0,-539.0,-210.0,0
130.0,-377.0,-93.0,-1634.0,-484.0,-249.0,0
132.0,-470.0,-58.0,-2452.0,-310.0,-253.0,0
112.0,-578.0,-75.0,-3439.0,-66.0,-237.0,0
132.0,-709.0,-116.0,-4594.0,184.0,-135.0,0
165.0,-855.0,-163.0,-5753.0,420.0,-17.0,0
220.0,-985.0,-211.0,-6648.0,591.0,22.0,0
252.0,-1060.0,-251.0,-7015.0,584.0,-50.0,0
239.0,-1068.0,-277.0,-6575.0,411.0,-149.0,0
215.0,-1032.0,-297.0,-5217.0,190.0,-147.0,0
190.0,-975.0,-311.0,-3108.0,-22.0,-32.0,0
164.0,-905.0,-317.0,-621.0,-208.0,151.0,0
141.0,-829.0,-315.0,1825.0,-346.0,362.0,0
115.0,-736.0,-304.0,3894.0,-439.0,530.0,0
90.0,-619.0,-281.0,5431.0,-479.0,596.0,0
52.0,-472.0,-237.0,6375.0,-464.0,555.0,0
1.0,-313.0,-218.0,6769.0,-434.0,435.0,0
-51.0,-116.0,-130.0,6741.0,-425.0,349.0,0
-93.0,113.0,-84.0,6611.0,-474.0,422.0,0
-78.0,267.0,-44.0,6423.0,-457.0,524.0,0
-119.0,396.0,-60.0,5926.0,-470.0,487.0,0
-139.0,456.0,-44.0,5061.0,-441.0,466.0,0
-146.0,467.0,-42.0,3902.0,-458.0,461.0,0
-144.0,443.0,-40.0,2505.0,-518.0,429.0,0
-135.0,382.0,-22.0,1025.0,-590.0,364.0,0
-132.0,315.0,-8.0,-374.0,-689.0,257.0,0
-125.0,246.0,11.0,-1572.0,-781.0,137.0,0
-116.0,180.0,24.0,-2494.0,-840.0,37.0,0
-102.0,121.0,25.0,-3066.0,-863.0,-17.0,0
-87.0,73.0,34.0,-3264.0,-837.0,-33.0,0
-83.0,47.0,39.0,-3136.0,-775.0,-37.0,0
-78.0,25.0,18.0,-2752.0,-707.0,-38.0,0
-74.0,10.0,-4.0,-2162.0,-650.0,-54.0,0
-53.0,-10.0,-29.0,-1430.0,-592.0,-37.0,0
-33.0,-38.0,-65.0,-594.0,-525.0,-18.0,0
2.0,-75.0,-94.0,265.0,-436.0,29.0,0
34.0,-117.0,-116.0,1040.0,-307.0,63.0,0
57.0,-157.0,-124.0,1656.0,-153.0,39.0,0
81.0,-184.0,-118.0,2044.0,8.0,-20.0,0
95.0,-200.0,-108.0,2197.0,148.0,-99.0,0
94.0,-226.0,-110.0,2144.0,253.0,-161.0,0
83.0,-259.0,-120.0,1853.0,308.0,-149.0,0
89.0,-316.0,-130.0,1272.0,270.0,-62.0,0
83.0,-376.0,-153.0,385.0,150.0,-11.0,0
79.0,-449.0,-178.0,-797.0,-29.0,-30.0,0
73.0,-535.0,-193.0,-2232.0,-236.0,-137.0,0
72.0,-632.0,-195.0,-3826.0,-421.0,-330.0,0
73.0,-724.0,-160.0,-5384.0,-500.0,-532.0,0
60.0,-813.0,-123.0,-6594.0,-444.0,-667.0,0
28.0,-889.0,-100.0,-7193.0,-308.0,-759.0,0
-15.0,-942.0,-91.0,-7080.0,-146.0,-835.0,0
-65.0,-978.0,-104.0,-6275.0,29.0,-864.0,0
-91.0,-978.0,-134.0,-4870.0,240.0,-790.0,0
-97.0,-940.0,-153.0,-3017.0,451.0,-642.0,0
-92.0,-881.0,-167.0,-905.0,490.0,-474.0,0
-93.0,-817.0,-172.0,1216.0,321.0,-289.0,0
-88.0,-748.0,-170.0,3134.0,82.0,-87.0,0
-79.0,-659.0,-173.0,4726.0,-132.0,90.0,0
-73.0,-556.0,-179.0,5953.0,-304.0,228.0,0
-56.0,-438.0,-192.0,6796.0,-428.0,329.0,0
-35.0,-303.0,-200.0,7251.0,-482.0,392.0,0
-23.0,-141.0,-177.0,7364.0,-454.0,407.0,0
-35.0,45.0,-147.0,7260.0,-358.0,406.0,0
-17.0,179.0,-171.0,7003.0,-178.0,393.0,0
-6.0,288.0,-188.0,6368.0,19.0,272.0,0
-2.0,365.0,-194.0,5343.0,215.0,112.0,0
5.0,401.0,-228.0,4039.0,373.0,-46.0,0
-5.0,389.0,-216.0,2490.0,377.0,-187.0,0
4.0,335.0,-179.0,903.0,269.0,-284.0,0
11.0,250.0,-144.0,-525.0,224.0,-325.0,0
23.0,163.0,-111.0,-1737.0,234.0,-304.0,0
49.0,77.0,-57.0,-2709.0,244.0,-267.0,0
57.0,19.0,-3.0,-3389.0,277.0,-237.0,0
65.0,-27.0,50.0,-3714.0,321.0,-214.0,0
67.0,-61.0,81.0,-3675.0,352.0,-189.0,0
72.0,-94.0,119.0,-3324.0,369.0,-168.0,0
57.0,-107.0,128.0,-2746.0,379.0,-158.0,0
40.0,-122.0,127.0,-2015.0,382.0,-152.0,0
39.0,-136.0,103.0,-1200.0,381.0,-133.0,0
47.0,-152.0,78.0,-355.0,382.0,-101.0,0
55.0,-174.0,36.0,456.0,378.0,-69.0,0
65.0,-186.0,-11.0,1150.0,369.0,-55.0,0
73.0,-193.0,-55.0,1696.0,336.0,-50.0,0
87.0,-196.0,-96.0,2096.0,268.0,-34.0,0
92.0,-203.0,-133.0,2337.0,164.0,-13.0,0
94.0,-214.0,-170.0,2371.0,56.0,-2.0,0
85.0,-224.0,-194.0,2167.0,-25.0,9.0,0
78.0,-245.0,-211.0,1686.0,-72.0,15.0,0
61.0,-265.0,-222.0,906.0,-108.0,0.0,0
33.0,-279.0,-235.0,-154.0,-156.0,-18.0,0
5.0,-315.0,-239.0,-1415.0,-229.0,-19.0,0
-25.0,-372.0,-221.0,-2768.0,-310.0,16.0,0
-50.0,-444.0,-182.0,-4067.0,-356.0,85.0,0
-46.0,-540.0,-142.0,-5152.0,-350.0,168.0,0
-31.0,-652.0,-108.0,-5916.0,-314.0,238.0,0
4.0,-762.0,-95.0,-6294.0,-291.0,299.0,0
52.0,-862.0,-95.0,-6254.0,-303.0,332.0,0
86.0,-934.0,-84.0,-5752.0,-331.0,314.0,0
102.0,-972.0,-67.0,-4740.0,-326.0,283.0,0
99.0,-984.0,-64.0,-3237.0,-276.0,284.0,0
92.0,-955.0,-75.0,-1399.0,-220.0,324.0,0
87.0,-896.0,-91.0,551.0,-200.0,366.0,0
86.0,-821.0,-129.0,2377.0,-217.0,381.0,0
81.0,-720.0,-160.0,3889.0,-244.0,351.0,0
77.0,-603.0,-186.0,4994.0,-253.0,296.0,0
77.0,-480.0,-193.0,5699.0,-251.0,226.0,0
55.0,-343.0,-191.0,6032.0,-271.0,152.0,0
23.0,-213.0,-186.0,6030.0,-316.0,119.0,0
1.0,-65.0,-135.0,5764.0,-353.0,138.0,0
15.0,91.0,-128.0,5441.0,-353.0,157.0,0
