ax,ay,az,gx,gy,gz,label
-3.0,-252.0,-4.0,60.0,-16.0,-10.0,0
-3.0,-251.0,-4.0,60.0,-13.0,-10.0,0
-2.0,-252.0,-5.0,59.0,-11.0,-10.0,0
-4.0,-252.0,-6.0,61.0,-9.0,-9.0,0
-4.0,-251.0,-8.0,61.0,-7.0,-9.0,0
-3.0,-250.0,-4.0,62.0,-6.0,-9.0,0
-3.0,-253.0,-2.0,60.0,-5.0,-11.0,0
-3.0,-254.0,-6.0,58.0,-3.0,-10.0,0
-3.0,-249.0,-6.0,57.0,0.0,-11.0,0
-4.0,-256.0,-5.0,56.0,1.0,-11.0,0
-4.0,-253.0,-5.0,54.0,2.0,-13.0,0
-2.0,-253.0,-5.0,51.0,1.0,-9.0,0
-4.0,-251.0,0.0,48.0,0.0,-10.0,0
-4.0,-251.0,-2.0,44.0,0.0,-10.0,0
-2.0,-252.0,2.0,44.0,1.0,-8.0,0
-4.0,-255.0,-4.0,47.0,1.0,-8.0,0
-3.0,-251.0,-7.0,52.0,-3.0,-10.0,0
-4.0,-249.0,-11.0,52.0,-6.0,-12.0,0
-2.0,-254.0,-8.0,49.0,-3.0,-12.0,0
-3.0,-255.0,-4.0,50.0,1.0,-15.0,0
-3.0,-251.0,1.0,52.0,4.0,-14.0,0
-2.0,-252.0,-4.0,52.0,8.0,-13.0,0
-2.0,-254.0,-4.0,52.0,11.0,-14.0,0
-2.0,-255.0,-3.0,51.0,12.0,-16.0,0
-3.0,-252.0,-4.0,50.0,12.0,-16.0,0
-4.0,-252.0,-3.0,48.0,12.0,-15.0,0
-4.0,-250.0,-2.0,50.0,9.0,-16.0,0
-4.0,-252.0,-5.0,51.0,8.0,-15.0,0
-5.0,-252.0,-4.0,50.0,9.0,-15.0,0
-4.0,-250.0,-4.0,48.0,9.0,-16.0,0
-4.0,-250.0,-5.0,47.0,10.0,-13.0,0
-4.0,-250.0,-2.0,43.0,11.0,-13.0,0
-4.0,-249.0,-7.0,40.0,11.0,-13.0,0
-3.0,-249.0,-1.0,36.0,11.0,-11.0,0
-2.0,-253.0,-5.0,34.0,11.0,-14.0,0
-3.0,-251.0,-1.0,32.0,13.0,-13.0,0
-4.0,-253.0,-6.0,32.0,12.0,-13.0,0
-4.0,-253.0,-5.0,31.0,9.0,-12.0,0
-3.0,-253.0,-3.0,31.0,7.0,-12.0,0
-4.0,-253.0,-7.0,32.0,7.0,-12.0,0
-4.0,-253.0,-8.0,34.0,6.0,-12.0,0
-4.0,-254.0,-3.0,34.0,6.0,-10.0,0
-4.0,-252.0,-9.0,36.0,9.0,-10.0,0
-4.0,-252.0,-12.0,37.0,11.0,-12.0,0
0.0,-256.0,-6.0,40.0,15.0,-12.0,0
-2.0,-253.0,-4.0,42.0,18.0,-14.0,0
-3.0,-251.0,-3.0,42.0,22.0,-15.0,0
-3.0,-253.0,-7.0,41.0,24.0,-14.0,0
-3.0,-250.0,-7.0,41.0,25.0,-15.0,0
-2.0,-252.0,-2.0,42.0,26.0,-15.0,0
-3.0,-255.0,-7.0,43.0,25.0,-14.0,0
-2.0,-251.0,-4.0,45.0,23.0,-15.0,0
-3.0,-251.0,-3.0,48.0,22.0,-14.0,0
-3.0,-251.0,-5.0,50.0,23.0,-16.0,0
-4.0,-252.0,-3.0,49.0,24.0,-16.0,0
-3.0,-252.0,-7.0,49.0,26.0,-15.0,0
-3.0,-249.0,-4.0,47.0,26.0,-16.0,0
-6.0,-252.0,-2.0,45.0,27.0,-14.0,0
-2.0,-251.0,-3.0,42.0,28.0,-15.0,0
-4.0,-253.0,-4.0,39.0,28.0,-13.0,0
-2.0,-249.0,-7.0,38.0,28.0,-14.0,0
-2.0,-249.0,-8.0,37.0,29.0,-12.0,0
-3.0,-251.0,-4.0,35.0,31.0,-13.0,0
-4.0,-250.0,-5.0,33.0,32.0,-14.0,0
-5.0,-249.0,-3.0,31.0,31.0,-14.0,0
0.0,-249.0,-3.0,27.0,31.0,-13.0,0
-2.0,-251.0,-3.0,24.0,30.0,-13.0,0
-4.0,-249.0,-6.0,20.0,31.0,-12.0,0
-2.0,-252.0,-8.0,19.0,32.0,-14.0,0
-4.0,-253.0,-8.0,18.0,32.0,-14.0,0
-3.0,-250.0,-3.0,18.0,34.0,-14.0,0
-4.0,-250.0,-8.0,21.0,35.0,-15.0,0
-4.0,-251.0,-3.0,24.0,34.0,-14.0,0
-4.0,-251.0,-5.0,26.0,34.0,-15.0,0
-4.0,-251.0,-9.0,26.0,32.0,-13.0,0
-5.0,-250.0,-2.0,26.0,31.0,-12.0,0
-4.0,-250.0,-5.0,25.0,30.0,-13.0,0
-2.0,-252.0,-5.0,24.0,28.0,-12.0,0
-3.0,-252.0,-6.0,24.0,27.0,-13.0,0
-4.0,-251.0,-5.0,23.0,25.0,-12.0,0
-4.0,-252.0,-3.0,22.0,26.0,-11.0,0
-4.0,-252.0,-5.0,23.0,27.0,-11.0,0
-4.0,-253.0,-5.0,25.0,27.0,-11.0,0
-3.0,-252.0,1.0,27.0,29.0,-12.0,0
-4.0,-250.0,-6.0,28.0,30.0,-11.0,0
-3.0,-254.0,-2.0,30.0,30.0,-12.0,0
-2.0,-252.0,-4.0,30.0,30.0,-11.0,0
-4.0,-254.0,-2.0,29.0,29.0,-11.0,0
-2.0,-252.0,-4.0,29.0,28.0,-9.0,0
-4.0,-252.0,-2.0,27.0,27.0,-10.0,0
-4.0,-249.0,-3.0,27.0,27.0,-11.0,0
-5.0,-248.0,-8.0,26.0,27.0,-10.0,0
-4.0,-249.0,-2.0,23.0,26.0,-10.0,0
-4.0,-250.0,-3.0,24.0,26.0,-10.0,0
-3.0,-252.0,0.0,23.0,26.0,-10.0,0
-6.0,-247.0,-6.0,23.0,27.0,-10.0,0
-2.0,-252.0,0.0,23.0,27.0,-9.0,0
-2.0,-251.0,-3.0,24.0,27.0,-10.0,0
-3.0,-250.0,-5.0,24.0,26.0,-9.0,0
-4.0,-250.0,-10.0,24.0,25.0,-6.0,0
-4.0,-251.0,-2.0,22.0,24.0,-8.0,0
-4.0,-253.0,-1.0,21.0,23.0,-7.0,0
-1.0,-251.0,-7.0,18.0,25.0,-7.0,0
-3.0,-256.0,1.0,18.0,24.0,-6.0,0
-3.0,-257.0,-1.0,16.0,22.0,-7.0,0
-4.0,-255.0,-4.0,12.0,23.0,-8.0,0
-3.0,-253.0,-2.0,12.0,23.0,-8.0,0
-3.0,-251.0,-3.0,13.0,22.0,-8.0,0
-4.0,-257.0,-3.0,14.0,20.0,-9.0,0
-3.0,-253.0,-3.0,15.0,18.0,-11.0,0
-4.0,-253.0,-3.0,13.0,15.0,-9.0,0
-4.0,-253.0,-7.0,12.0,14.0,-10.0,0
-3.0,-251.0,-8.0,11.0,14.0,-11.0,0
-1.0,-257.0,-8.0,13.0,15.0,-11.0,0
-4.0,-255.0,-7.0,16.0,16.0,-13.0,0
-4.0,-253.0,-6.0,19.0,15.0,-14.0,0
-4.0,-254.0,-5.0,22.0,13.0,-16.0,0
-4.0,-250.0,-4.0,25.0,14.0,-15.0,0
-5.0,-249.0,-3.0,26.0,14.0,-15.0,0
-3.0,-247.0,-4.0,24.0,14.0,-14.0,0
-4.0,-250.0,0.0,23.0,14.0,-15.0,0
-2.0,-253.0,-6.0,23.0,13.0,-13.0,0
-4.0,-252.0,-8.0,23.0,12.0,-10.0,0
-2.0,-251.0,-12.0,24.0,9.0,-10.0,0
-3.0,-250.0,-12.0,24.0,6.0,-10.0,0
-1.0,-255.0,-5.0,24.0,12.0,-11.0,0
-6.0,-250.0,-4.0,28.0,17.0,-13.0,0
-4.0,-250.0,-5.0,32.0,20.0,-15.0,0
-4.0,-254.0,-2.0,34.0,21.0,-14.0,0
-3.0,-255.0,-5.0,35.0,22.0,-13.0,0
-9.0,-252.0,-4.0,37.0,23.0,-13.0,0
-3.0,-254.0,-5.0,40.0,20.0,-14.0,0
-4.0,-251.0,-8.0,41.0,18.0,-12.0,0
-6.0,-250.0,-10.0,41.0,13.0,-10.0,0
-3.0,-250.0,-9.0,41.0,11.0,-10.0,0
-4.0,-251.0,-8.0,42.0,8.0,-9.0,0
-3.0,-250.0,-8.0,41.0,9.0,-7.0,0
-3.0,-249.0,-6.0,38.0,9.0,-6.0,0
-4.0,-251.0,-7.0,37.0,9.0,-4.0,0
-3.0,-249.0,-4.0,34.0,10.0,-3.0,0
-4.0,-250.0,-5.0,33.0,10.0,-4.0,0
-3.0,-251.0,-8.0,32.0,11.0,-5.0,0
-3.0,-248.0,-13.0,33.0,12.0,-6.0,0
-2.0,-250.0,-6.0,34.0,11.0,-4.0,0
-6.0,-249.0,-7.0,33.0,10.0,-5.0,0
-4.0,-251.0,-6.0,33.0,9.0,-3.0,0
-3.0,-250.0,-7.0,35.0,11.0,-4.0,0
-4.0,-251.0,-7.0,35.0,11.0,-5.0,0
-4.0,-253.0,-7.0,37.0,10.0,-4.0,0
-7.0,-250.0,-4.0,35.0,10.0,-3.0,0
-6.0,-250.0,-9.0,33.0,9.0,-5.0,0
-4.0,-250.0,-6.0,32.0,8.0,-4.0,0
-2.0,-252.0,-6.0,28.0,7.0,-5.0,0
-5.0,-252.0,-6.0,23.0,8.0,-4.0,0
-2.0,-251.0,-9.0,20.0,8.0,-6.0,0
-6.0,-252.0,-8.0,20.0,9.0,-9.0,0
-3.0,-256.0,-10.0,24.0,7.0,-10.0,0
-4.0,-252.0,-9.0,27.0,7.0,-12.0,0
-4.0,-253.0,-7.0,30.0,6.0,-12.0,0
-4.0,-251.0,-9.0,29.0,7.0,-10.0,0
-3.0,-252.0,-7.0,30.0,7.0,-7.0,0
-1.0,-254.0,-7.0,27.0,6.0,-6.0,0
-3.0,-252.0,-11.0,25.0,6.0,-4.0,0
-3.0,-254.0,-9.0,25.0,7.0,-5.0,0
-3.0,-248.0,-6.0,27.0,7.0,-5.0,0
-6.0,-250.0,-5.0,29.0,7.0,-5.0,0
-2.0,-254.0,-9.0,30.0,8.0,-4.0,0
-3.0,-250.0,-7.0,30.0,8.0,-4.0,0
-3.0,-250.0,-6.0,29.0,8.0,-4.0,0
-3.0,-254.0,-3.0,30.0,9.0,-2.0,0
-4.0,-252.0,-7.0,29.0,9.0,-1.0,0
-5.0,-250.0,-2.0,27.0,9.0,-2.0,0
-4.0,-250.0,-2.0,27.0,7.0,0.0,0
-4.0,-253.0,-5.0,30.0,6.0,0.0,0
-4.0,-252.0,-2.0,32.0,5.0,0.0,0
-4.0,-251.0,-5.0,33.0,6.0,1.0,0
-3.0,-257.0,-6.0,30.0,5.0,1.0,0
-4.0,-257.0,-4.0,23.0,4.0,-1.0,0
-2.0,-258.0,-4.0,17.0,2.0,-3.0,0
-2.0,-261.0,-3.0,15.0,2.0,-5.0,0
-3.0,-260.0,-4.0,18.0,2.0,-8.0,0
-5.0,-258.0,-5.0,24.0,3.0,-8.0,0
-4.0,-258.0,-8.0,34.0,3.0,-12.0,0
-3.0,-255.0,-7.0,44.0,4.0,-12.0,0
-4.0,-250.0,-11.0,49.0,5.0,-12.0,0
4.0,-241.0,-5.0,51.0,6.0,-14.0,0
-3.0,-252.0,-10.0,49.0,7.0,-12.0,0
-5.0,-251.0,-12.0,41.0,9.0,-12.0,0
-5.0,-251.0,-6.0,37.0,9.0,-11.0,0
-2.0,-252.0,-7.0,34.0,9.0,-10.0,0
-5.0,-249.0,-6.0,35.0,9.0,-11.0,0
-4.0,-252.0,-8.0,38.0,11.0,-12.0,0
-5.0,-252.0,-6.0,41.0,11.0,-13.0,0
-3.0,-251.0,-8.0,40.0,9.0,-13.0,0
-4.0,-254.0,-8.0,40.0,10.0,-14.0,0
-4.0,-248.0,-7.0,39.0,11.0,-15.0,0
-4.0,-253.0,-10.0,35.0,11.0,-14.0,0
-6.0,-254.0,-7.0,34.0,11.0,-12.0,0
-4.0,-252.0,-5.0,33.0,11.0,-11.0,0
-4.0,-254.0,-10.0,32.0,14.0,-8.0,0
-4.0,-257.0,-7.0,35.0,14.0,-7.0,0
-4.0,-257.0,-6.0,37.0,14.0,-7.0,0
-4.0,-254.0,-6.0,42.0,17.0,-7.0,0
-4.0,-252.0,-5.0,47.0,19.0,-7.0,0
-4.0,-252.0,-8.0,53.0,19.0,-6.0,0
-4.0,-255.0,-9.0,57.0,17.0,-4.0,0
-3.0,-252.0,-6.0,59.0,16.0,-4.0,0
-4.0,-251.0,-9.0,60.0,16.0,-5.0,0
-4.0,-248.0,-12.0,61.0,15.0,-5.0,0
-4.0,-251.0,-11.0,58.0,17.0,-5.0,0
-3.0,-251.0,-10.0,57.0,17.0,-6.0,0
-7.0,-248.0,-10.0,55.0,17.0,-5.0,0
-3.0,-250.0,-9.0,53.0,18.0,-4.0,0
-4.0,-251.0,-9.0,53.0,18.0,-5.0,0
-4.0,-251.0,-8.0,52.0,20.0,-7.0,0
-6.0,-252.0,-10.0,51.0,22.0,-7.0,0
-4.0,-251.0,-12.0,53.0,22.0,-8.0,0
-6.0,-250.0,-11.0,54.0,21.0,-9.0,0
-4.0,-253.0,-12.0,53.0,20.0,-6.0,0
-5.0,-249.0,-12.0,50.0,18.0,-8.0,0
-4.0,-251.0,-12.0,46.0,16.0,-8.0,0
-4.0,-251.0,-12.0,40.0,16.0,-11.0,0
-3.0,-257.0,-11.0,37.0,16.0,-12.0,0
-6.0,-253.0,-11.0,37.0,16.0,-12.0,0
-4.0,-256.0,-8.0,41.0,17.0,-13.0,0
-5.0,-251.0,-7.0,45.0,16.0,-14.0,0
-6.0,-254.0,-8.0,47.0,13.0,-15.0,0
-7.0,-250.0,-8.0,47.0,12.0,-14.0,0
-4.0,-244.0,-20.0,45.0,10.0,-12.0,0
-3.0,-254.0,-11.0,45.0,10.0,-12.0,0
-4.0,-252.0,-14.0,44.0,9.0,-13.0,0
-4.0,-248.0,-17.0,45.0,5.0,-15.0,0
-4.0,-249.0,-15.0,43.0,5.0,-15.0,0
-4.0,-253.0,-11.0,43.0,11.0,-16.0,0
-6.0,-249.0,-9.0,47.0,15.0,-17.0,0
-4.0,-252.0,-5.0,53.0,16.0,-16.0,0
-4.0,-252.0,-8.0,57.0,16.0,-17.0,0
-4.0,-250.0,-7.0,59.0,16.0,-16.0,0
-9.0,-250.0,-20.0,58.0,15.0,-15.0,0
-4.0,-252.0,-10.0,57.0,13.0,-14.0,0
-4.0,-250.0,-12.0,55.0,10.0,-13.0,0
-8.0,-250.0,-11.0,52.0,7.0,-13.0,0
-7.0,-251.0,-8.0,53.0,4.0,-11.0,0
-4.0,-247.0,-10.0,53.0,3.0,-11.0,0
-3.0,-250.0,-10.0,51.0,3.0,-12.0,0
-6.0,-252.0,-14.0,48.0,5.0,-14.0,0
-2.0,-252.0,-12.0,46.0,7.0,-10.0,0
-2.0,-255.0,-13.0,43.0,10.0,-8.0,0
-3.0,-251.0,-13.0,41.0,11.0,-9.0,0
-1.0,-253.0,-12.0,41.0,14.0,-10.0,0
-4.0,-252.0,-10.0,42.0,15.0,-10.0,0
-4.0,-251.0,-9.0,45.0,17.0,-12.0,0
-3.0,-251.0,-10.0,47.0,17.0,-12.0,0
-3.0,-249.0,-8.0,49.0,16.0,-14.0,0
-4.0,-252.0,-9.0,48.0,13.0,-13.0,0
-3.0,-250.0,-12.0,49.0,12.0,-11.0,0
-4.0,-249.0,-11.0,49.0,11.0,-9.0,0
0.0,-253.0,-15.0,50.0,13.0,-9.0,0
-4.0,-253.0,-9.0,50.0,16.0,-9.0,0
-4.0,-252.0,-8.0,52.0,15.0,-8.0,0
-3.0,-251.0,-12.0,52.0,15.0,-10.0,0
-5.0,-253.0,-9.0,49.0,16.0,-11.0,0
-3.0,-252.0,-13.0,47.0,18.0,-11.0,0
-4.0,-254.0,-12.0,47.0,18.0,-13.0,0
-2.0,-254.0,-9.0,46.0,17.0,-13.0,0
-2.0,-256.0,-4.0,46.0,15.0,-13.0,0
-4.0,-254.0,-3.0,48.0,15.0,-15.0,0
-4.0,-251.0,-9.0,50.0,14.0,-15.0,0
-3.0,-252.0,-10.0,47.0,13.0,-16.0,0
-4.0,-252.0,-7.0,47.0,11.0,-16.0,0
-7.0,-251.0,-8.0,46.0,9.0,-16.0,0
-5.0,-253.0,-9.0,46.0,8.0,-16.0,0
-6.0,-250.0,-7.0,45.0,9.0,-15.0,0
-3.0,-250.0,-12.0,43.0,9.0,-13.0,0
-4.0,-248.0,-11.0,41.0,10.0,-11.0,0
-4.0,-252.0,-12.0,37.0,10.0,-12.0,0
-6.0,-250.0,-8.0,32.0,11.0,-12.0,0
-2.0,-253.0,-8.0,29.0,11.0,-11.0,0
-4.0,-253.0,-10.0,27.0,12.0,-11.0,0
-4.0,-254.0,-8.0,27.0,13.0,-12.0,0
-3.0,-252.0,-8.0,29.0,12.0,-13.0,0
-2.0,-245.0,-8.0,31.0,12.0,-13.0,0
-4.0,-255.0,-7.0,34.0,10.0,-13.0,0
-4.0,-250.0,-6.0,37.0,9.0,-13.0,0
-4.0,-251.0,-6.0,36.0,5.0,-13.0,0
-3.0,-253.0,-13.0,35.0,6.0,-14.0,0
-4.0,-251.0,-13.0,32.0,4.0,-14.0,0
-4.0,-252.0,-13.0,31.0,4.0,-12.0,0
-2.0,-257.0,-11.0,29.0,5.0,-11.0,0
-4.0,-254.0,-12.0,28.0,4.0,-11.0,0
-3.0,-253.0,-10.0,27.0,3.0,-12.0,0
-3.0,-253.0,-8.0,28.0,3.0,-12.0,0
-4.0,-252.0,-6.0,32.0,3.0,-12.0,0
-4.0,-251.0,-6.0,37.0,1.0,-11.0,0
-4.0,-253.0,-11.0,39.0,1.0,-11.0,0
-4.0,-255.0,-8.0,39.0,1.0,-10.0,0
-4.0,-251.0,-10.0,37.0,3.0,-11.0,0
-4.0,-250.0,-11.0,37.0,3.0,-11.0,0
-4.0,-252.0,-10.0,34.0,4.0,-10.0,0
-4.0,-250.0,-9.0,32.0,5.0,-9.0,0
-4.0,-253.0,-11.0,31.0,6.0,-9.0,0
-4.0,-253.0,-12.0,30.0,5.0,-10.0,0
-3.0,-255.0,-6.0,31.0,5.0,-10.0,0
-3.0,-252.0,-6.0,34.0,6.0,-10.0,0
-1.0,-254.0,-13.0,36.0,6.0,-9.0,0
-1.0,-252.0,-11.0,40.0,6.0,-9.0,0
-2.0,-255.0,-11.0,43.0,7.0,-11.0,0
-4.0,-253.0,-8.0,43.0,7.0,-9.0,0
-4.0,-251.0,-12.0,43.0,8.0,-9.0,0
-6.0,-249.0,-9.0,42.0,9.0,-8.0,0
-4.0,-253.0,-10.0,41.0,10.0,-9.0,0
-4.0,-254.0,-11.0,39.0,10.0,-8.0,0
-1.0,-251.0,-11.0,37.0,11.0,-10.0,0
-4.0,-249.0,-11.0,38.0,12.0,-10.0,0
-6.0,-251.0,-7.0,42.0,13.0,-11.0,0
-3.0,-253.0,-11.0,43.0,15.0,-11.0,0
-2.0,-248.0,-6.0,46.0,15.0,-9.0,0
-4.0,-249.0,-10.0,48.0,15.0,-9.0,0
-2.0,-251.0,-6.0,46.0,14.0,-9.0,0
-4.0,-249.0,-6.0,44.0,11.0,-10.0,0
-3.0,-252.0,-10.0,40.0,9.0,-11.0,0
-6.0,-252.0,-9.0,39.0,9.0,-10.0,0
-5.0,-250.0,-7.0,37.0,10.0,-10.0,0
-4.0,-251.0,-9.0,36.0,10.0,-12.0,0
-2.0,-253.0,-11.0,33.0,10.0,-11.0,0
-4.0,-252.0,-11.0,30.0,12.0,-12.0,0
-4.0,-252.0,-10.0,29.0,11.0,-12.0,0
-2.0,-253.0,-9.0,29.0,12.0,-13.0,0
-3.0,-251.0,-12.0,30.0,13.0,-13.0,0
-3.0,-252.0,-10.0,30.0,12.0,-11.0,0
-4.0,-253.0,-12.0,27.0,12.0,-12.0,0
-3.0,-254.0,-11.0,25.0,11.0,-11.0,0
-5.0,-251.0,-10.0,24.0,11.0,-12.0,0
-5.0,-251.0,-6.0,25.0,11.0,-12.0,0
-4.0,-246.0,-11.0,25.0,11.0,-13.0,0
-6.0,-251.0,-9.0,27.0,9.0,-12.0,0
-4.0,-252.0,-10.0,27.0,8.0,-12.0,0
-4.0,-253.0,-9.0,25.0,7.0,-10.0,0
-2.0,-251.0,-7.0,27.0,6.0,-9.0,0
-4.0,-252.0,-15.0,28.0,3.0,-8.0,0
-6.0,-250.0,-16.0,31.0,-3.0,-8.0,0
-4.0,-250.0,-16.0,32.0,-8.0,-7.0,0
-4.0,-251.0,-12.0,31.0,-6.0,-9.0,0
-1.0,-254.0,-9.0,34.0,0.0,-11.0,0
-4.0,-251.0,-10.0,37.0,6.0,-11.0,0
-3.0,-253.0,-10.0,40.0,10.0,-11.0,0
-4.0,-252.0,-13.0,37.0,11.0,-10.0,0
-2.0,-254.0,-13.0,36.0,15.0,-13.0,0
-3.0,-252.0,-8.0,35.0,14.0,-13.0,0
-1.0,-253.0,-11.0,35.0,14.0,-14.0,0
-3.0,-252.0,-13.0,36.0,14.0,-14.0,0
-2.0,-254.0,-12.0,38.0,14.0,-14.0,0
-4.0,-254.0,-6.0,39.0,12.0,-13.0,0
-2.0,-250.0,-7.0,42.0,10.0,-11.0,0
-4.0,-252.0,-5.0,43.0,8.0,-12.0,0
-4.0,-251.0,-12.0,44.0,7.0,-10.0,0
-3.0,-249.0,-9.0,44.0,5.0,-10.0,0
-3.0,-250.0,-10.0,43.0,7.0,-9.0,0
-2.0,-251.0,-13.0,39.0,10.0,-7.0,0
-1.0,-252.0,-10.0,34.0,11.0,-7.0,0
-4.0,-252.0,-14.0,29.0,14.0,-10.0,0
-4.0,-251.0,-14.0,27.0,16.0,-11.0,0
-3.0,-253.0,-14.0,26.0,17.0,-11.0,0
-4.0,-253.0,-11.0,27.0,18.0,-12.0,0
-5.0,-256.0,-14.0,27.0,16.0,-13.0,0
-3.0,-253.0,-11.0,29.0,15.0,-13.0,0
-4.0,-253.0,-11.0,31.0,15.0,-12.0,0
-4.0,-252.0,-15.0,36.0,14.0,-12.0,0
-2.0,-253.0,-12.0,40.0,14.0,-12.0,0
-2.0,-254.0,-13.0,42.0,14.0,-10.0,0
-4.0,-251.0,-16.0,41.0,13.0,-10.0,0
-5.0,-249.0,-15.0,40.0,16.0,-9.0,0
-4.0,-250.0,-16.0,38.0,16.0,-9.0,0
-4.0,-248.0,-12.0,36.0,16.0,-9.0,0
-3.0,-253.0,-12.0,36.0,15.0,-11.0,0
-4.0,-251.0,-10.0,34.0,12.0,-10.0,0
-4.0,-252.0,-13.0,35.0,11.0,-11.0,0
-3.0,-251.0,-12.0,36.0,12.0,-10.0,0
-4.0,-252.0,-12.0,36.0,13.0,-9.0,0
-4.0,-248.0,-14.0,36.0,15.0,-11.0,0
-5.0,-248.0,-15.0,35.0,16.0,-10.0,0
-1.0,-254.0,-12.0,36.0,17.0,-11.0,0
-4.0,-252.0,-14.0,37.0,17.0,-10.0,0
-1.0,-250.0,-13.0,38.0,14.0,-11.0,0
-4.0,-252.0,-11.0,38.0,13.0,-11.0,0
-4.0,-250.0,-13.0,37.0,14.0,-10.0,0
-4.0,-254.0,-9.0,37.0,14.0,-10.0,0
-4.0,-250.0,-13.0,35.0,15.0,-8.0,0
-2.0,-249.0,-14.0,34.0,16.0,-6.0,0
-2.0,-253.0,-14.0,33.0,15.0,-6.0,0
-3.0,-248.0,-11.0,32.0,18.0,-5.0,0
-3.0,-250.0,-14.0,33.0,20.0,-7.0,0
-1.0,-249.0,-13.0,34.0,22.0,-6.0,0
-2.0,-253.0,-12.0,33.0,24.0,-8.0,0
-4.0,-250.0,-14.0,33.0,24.0,-10.0,0
-2.0,-252.0,-12.0,33.0,23.0,-8.0,0
-3.0,-252.0,-12.0,32.0,23.0,-10.0,0
-1.0,-251.0,-13.0,34.0,22.0,-9.0,0
-3.0,-255.0,-17.0,35.0,22.0,-10.0,0
-4.0,-251.0,-14.0,38.0,20.0,-9.0,0
-4.0,-251.0,-15.0,41.0,21.0,-9.0,0
-5.0,-253.0,-15.0,42.0,20.0,-8.0,0
-4.0,-251.0,-14.0,44.0,18.0,-8.0,0
-4.0,-248.0,-11.0,45.0,18.0,-9.0,0
-3.0,-251.0,-16.0,45.0,19.0,-8.0,0
-3.0,-253.0,-13.0,44.0,20.0,-8.0,0
-3.0,-249.0,-11.0,43.0,20.0,-8.0,0
-4.0,-251.0,-12.0,43.0,22.0,-11.0,0
-4.0,-254.0,-11.0,44.0,23.0,-12.0,0
-4.0,-254.0,-14.0,44.0,25.0,-11.0,0
-3.0,-249.0,-14.0,43.0,24.0,-12.0,0
-2.0,-253.0,-17.0,43.0,25.0,-13.0,0
-4.0,-249.0,-17.0,43.0,22.0,-15.0,0
-2.0,-252.0,-11.0,45.0,21.0,-15.0,0
-6.0,-251.0,-18.0,48.0,20.0,-13.0,0
-4.0,-249.0,-17.0,48.0,18.0,-13.0,0
-3.0,-250.0,-17.0,47.0,16.0,-11.0,0
-2.0,-251.0,-16.0,46.0,16.0,-11.0,0
-3.0,-249.0,-14.0,42.0,17.0,-11.0,0
-4.0,-250.0,-13.0,40.0,17.0,-11.0,0
-4.0,-250.0,-12.0,37.0,16.0,-9.0,0
-4.0,-252.0,-15.0,36.0,17.0,-10.0,0
-3.0,-253.0,-16.0,33.0,16.0,-11.0,0
-6.0,-251.0,-12.0,32.0,15.0,-13.0,0
-3.0,-250.0,-18.0,32.0,15.0,-12.0,0
-4.0,-251.0,-14.0,32.0,14.0,-13.0,0
-4.0,-250.0,-12.0,33.0,14.0,-14.0,0
-3.0,-249.0,-12.0,30.0,14.0,-13.0,0
-2.0,-252.0,-15.0,30.0,14.0,-15.0,0
-2.0,-254.0,-20.0,30.0,14.0,-15.0,0
-2.0,-249.0,-16.0,30.0,12.0,-13.0,0
-4.0,-254.0,-16.0,29.0,11.0,-14.0,0
-4.0,-253.0,-14.0,27.0,9.0,-14.0,0
-4.0,-252.0,-12.0,25.0,8.0,-13.0,0
-4.0,-254.0,-13.0,23.0,5.0,-14.0,0
-4.0,-253.0,-14.0,25.0,5.0,-12.0,0
-4.0,-255.0,-14.0,30.0,3.0,-11.0,0
-3.0,-249.0,-20.0,35.0,5.0,-9.0,0
-4.0,-249.0,-18.0,39.0,4.0,-10.0,0
-2.0,-250.0,-15.0,42.0,6.0,-8.0,0
-1.0,-250.0,-16.0,37.0,6.0,-8.0,0
-4.0,-248.0,-16.0,29.0,7.0,-7.0,0
-4.0,-249.0,-13.0,23.0,7.0,-6.0,0
-4.0,-248.0,-11.0,16.0,7.0,-7.0,0
-4.0,-248.0,-15.0,10.0,6.0,-7.0,0
-4.0,-250.0,-9.0,7.0,6.0,-8.0,0
-7.0,-250.0,-10.0,7.0,5.0,-9.0,0
-4.0,-254.0,-10.0,9.0,5.0,-10.0,0
-4.0,-253.0,-12.0,13.0,5.0,-10.0,0
-4.0,-257.0,-15.0,18.0,3.0,-10.0,0
-5.0,-255.0,-20.0,22.0,0.0,-10.0,0
-4.0,-251.0,-20.0,25.0,-5.0,-11.0,0
-4.0,-248.0,-21.0,25.0,-6.0,-9.0,0
-3.0,-253.0,-14.0,25.0,-1.0,-10.0,0
-4.0,-250.0,-11.0,25.0,3.0,-12.0,0
-4.0,-253.0,-14.0,29.0,9.0,-12.0,0
-1.0,-254.0,-13.0,32.0,11.0,-11.0,0
-4.0,-251.0,-16.0,35.0,14.0,-11.0,0
-4.0,-254.0,-14.0,37.0,16.0,-12.0,0
-4.0,-252.0,-13.0,39.0,14.0,-12.0,0
-3.0,-252.0,-12.0,40.0,12.0,-10.0,0
-4.0,-252.0,-12.0,41.0,11.0,-10.0,0
-3.0,-252.0,-13.0,41.0,7.0,-10.0,0
-3.0,-252.0,-15.0,41.0,5.0,-8.0,0
-3.0,-253.0,-10.0,41.0,4.0,-5.0,0
-4.0,-250.0,-14.0,40.0,4.0,-5.0,0
-5.0,-252.0,-16.0,39.0,4.0,-5.0,0
-4.0,-250.0,-15.0,35.0,3.0,-4.0,0
-4.0,-249.0,-14.0,32.0,1.0,-4.0,0
-4.0,-251.0,-13.0,32.0,1.0,-5.0,0
-4.0,-250.0,-10.0,29.0,0.0,-5.0,0
-4.0,-253.0,-13.0,28.0,-1.0,-6.0,0
-4.0,-252.0,-15.0,27.0,-3.0,-6.0,0
-5.0,-251.0,-13.0,27.0,-3.0,-5.0,0
-6.0,-250.0,-10.0,28.0,-3.0,-5.0,0
-4.0,-246.0,-13.0,29.0,-4.0,-7.0,0
-4.0,-250.0,-14.0,32.0,-4.0,-7.0,0
-4.0,-248.0,-17.0,33.0,-4.0,-7.0,0
-3.0,-250.0,-11.0,34.0,-5.0,-7.0,0
-4.0,-251.0,-18.0,34.0,-5.0,-6.0,0
-4.0,-250.0,-17.0,30.0,-6.0,-5.0,0
-4.0,-250.0,-14.0,27.0,-7.0,-8.0,0
-4.0,-249.0,-16.0,24.0,-6.0,-9.0,0
-8.0,-251.0,-13.0,24.0,-7.0,-8.0,0
-4.0,-252.0,-11.0,24.0,-10.0,-7.0,0
-4.0,-252.0,-10.0,23.0,-11.0,-7.0,0
-4.0,-251.0,-15.0,24.0,-10.0,-5.0,0
-6.0,-251.0,-12.0,23.0,-10.0,-5.0,0
-4.0,-252.0,-13.0,24.0,-10.0,-5.0,0
-4.0,-251.0,-14.0,23.0,-12.0,-7.0,0
-3.0,-251.0,-15.0,21.0,-11.0,-6.0,0
-4.0,-250.0,-12.0,18.0,-11.0,-6.0,0
-6.0,-248.0,-12.0,15.0,-12.0,-5.0,0
-4.0,-248.0,-14.0,11.0,-13.0,-5.0,0
-4.0,-253.0,-15.0,7.0,-12.0,-5.0,0
-4.0,-254.0,-13.0,6.0,-10.0,-6.0,0
-6.0,-249.0,-13.0,5.0,-9.0,-5.0,0
-3.0,-248.0,-15.0,7.0,-8.0,-6.0,0
-4.0,-250.0,-12.0,8.0,-8.0,-5.0,0
-3.0,-248.0,-15.0,9.0,-7.0,-6.0,0
-6.0,-252.0,-15.0,8.0,-4.0,-5.0,0
-3.0,-249.0,-22.0,8.0,-4.0,-5.0,0
-2.0,-250.0,-15.0,7.0,-3.0,-5.0,0
-3.0,-254.0,-15.0,6.0,-2.0,-5.0,0
-4.0,-250.0,-16.0,5.0,0.0,-6.0,0
-6.0,-251.0,-10.0,5.0,1.0,-4.0,0
-3.0,-250.0,-13.0,6.0,4.0,-5.0,0
-3.0,-252.0,-15.0,7.0,4.0,-5.0,0
-4.0,-254.0,-15.0,6.0,4.0,-6.0,0
-4.0,-253.0,-15.0,6.0,4.0,-6.0,0
-4.0,-252.0,-15.0,7.0,4.0,-6.0,0
-3.0,-250.0,-13.0,8.0,2.0,-7.0,0
-4.0,-252.0,-21.0,9.0,3.0,-7.0,0
-3.0,-251.0,-14.0,8.0,3.0,-7.0,0
-4.0,-250.0,-15.0,8.0,2.0,-7.0,0
-2.0,-255.0,-13.0,8.0,0.0,-8.0,0
-4.0,-250.0,-17.0,10.0,0.0,-6.0,0
-5.0,-246.0,-15.0,10.0,1.0,-8.0,0
-5.0,-249.0,-13.0,10.0,1.0,-9.0,0
-4.0,-250.0,-13.0,9.0,1.0,-10.0,0
-2.0,-249.0,-18.0,7.0,4.0,-9.0,0
-4.0,-249.0,-20.0,5.0,5.0,-10.0,0
-4.0,-252.0,-16.0,2.0,6.0,-9.0,0
-4.0,-252.0,-16.0,1.0,7.0,-8.0,0
-4.0,-253.0,-15.0,2.0,6.0,-8.0,0
-4.0,-252.0,-16.0,5.0,4.0,-9.0,0
-5.0,-251.0,-16.0,8.0,3.0,-7.0,0
0.0,-245.0,-20.0,8.0,1.0,-9.0,0
-5.0,-250.0,-18.0,8.0,2.0,-9.0,0
-5.0,-253.0,-15.0,5.0,1.0,-10.0,0
-5.0,-251.0,-18.0,3.0,1.0,-9.0,0
-5.0,-251.0,-20.0,-1.0,2.0,-11.0,0
-5.0,-253.0,-17.0,-3.0,4.0,-9.0,0
-4.0,-250.0,-20.0,-3.0,5.0,-9.0,0
-4.0,-252.0,-19.0,-2.0,6.0,-10.0,0
-4.0,-252.0,-17.0,-4.0,9.0,-11.0,0
-6.0,-248.0,-17.0,-5.0,10.0,-13.0,0
-3.0,-247.0,-15.0,-7.0,12.0,-11.0,0
-2.0,-253.0,-18.0,-9.0,11.0,-9.0,0
-3.0,-239.0,-24.0,-11.0,11.0,-9.0,0
0.0,-250.0,-20.0,-13.0,10.0,-8.0,0
-5.0,-254.0,-23.0,-14.0,9.0,-11.0,0
-3.0,-249.0,-19.0,-15.0,9.0,-11.0,0
-4.0,-248.0,-16.0,-17.0,9.0,-9.0,0
-4.0,-252.0,-19.0,-16.0,9.0,-10.0,0
-3.0,-251.0,-16.0,-18.0,9.0,-9.0,0
-2.0,-252.0,-15.0,-16.0,9.0,-8.0,0
-1.0,-252.0,-18.0,-15.0,9.0,-8.0,0
-3.0,-248.0,-17.0,-14.0,8.0,-8.0,0
-2.0,-248.0,-16.0,-12.0,8.0,-9.0,0
-2.0,-252.0,-19.0,-12.0,8.0,-10.0,0
-4.0,-253.0,-17.0,-13.0,11.0,-11.0,0
-4.0,-251.0,-18.0,-12.0,13.0,-13.0,0
-8.0,-248.0,-19.0,-11.0,19.0,-14.0,0
-4.0,-251.0,-18.0,-8.0,21.0,-13.0,0
-4.0,-251.0,-17.0,-4.0,21.0,-12.0,0
-4.0,-250.0,-14.0,1.0,19.0,-13.0,0
-4.0,-249.0,-16.0,1.0,15.0,-15.0,0
-6.0,-249.0,-8.0,2.0,13.0,-13.0,0
-3.0,-248.0,-18.0,0.0,12.0,-14.0,0
-4.0,-247.0,-23.0,-1.0,14.0,-12.0,0
-4.0,-249.0,-22.0,1.0,16.0,-13.0,0
-4.0,-248.0,-29.0,3.0,16.0,-12.0,0
-4.0,-250.0,-21.0,1.0,20.0,-14.0,0
-3.0,-250.0,-16.0,3.0,24.0,-17.0,0
-4.0,-254.0,-19.0,6.0,27.0,-16.0,0
-4.0,-253.0,-15.0,14.0,27.0,-16.0,0
-6.0,-250.0,-15.0,18.0,25.0,-13.0,0
-4.0,-256.0,-13.0,20.0,24.0,-13.0,0
-4.0,-246.0,-13.0,20.0,25.0,-10.0,0
-3.0,-253.0,-18.0,18.0,25.0,-8.0,0
-2.0,-251.0,-16.0,12.0,24.0,-7.0,0
-5.0,-250.0,-15.0,8.0,24.0,-5.0,0
-3.0,-248.0,-17.0,3.0,22.0,-3.0,0
-5.0,-249.0,-19.0,-1.0,22.0,-1.0,0
-4.0,-252.0,-19.0,-4.0,21.0,0.0,0
-6.0,-248.0,-20.0,-4.0,22.0,2.0,0
-6.0,-253.0,-21.0,-4.0,20.0,4.0,0
-7.0,-250.0,-20.0,-2.0,19.0,6.0,0
-9.0,-250.0,-19.0,0.0,17.0,7.0,0
-8.0,-249.0,-21.0,4.0,17.0,7.0,0
-8.0,-250.0,-19.0,8.0,16.0,8.0,0
-7.0,-247.0,-16.0,10.0,15.0,9.0,0
-7.0,-250.0,-14.0,13.0,16.0,7.0,0
-8.0,-248.0,-18.0,13.0,14.0,8.0,0
-6.0,-248.0,-15.0,13.0,16.0,8.0,0
-4.0,-250.0,-14.0,12.0,16.0,9.0,0
-4.0,-248.0,-14.0,13.0,17.0,10.0,0
-5.0,-250.0,-16.0,15.0,15.0,11.0,0
-6.0,-252.0,-18.0,16.0,17.0,10.0,0
-5.0,-248.0,-16.0,18.0,17.0,11.0,0
-4.0,-250.0,-16.0,19.0,16.0,11.0,0
-4.0,-251.0,-20.0,19.0,15.0,12.0,0
-4.0,-248.0,-18.0,20.0,13.0,13.0,0
-3.0,-247.0,-16.0,20.0,11.0,15.0,0
-2.0,-252.0,-19.0,21.0,7.0,14.0,0
-4.0,-249.0,-19.0,23.0,4.0,16.0,0
-1.0,-252.0,-16.0,25.0,1.0,15.0,0
-6.0,-255.0,-16.0,27.0,-1.0,14.0,0
-3.0,-251.0,-15.0,30.0,-3.0,13.0,0
-5.0,-249.0,-15.0,33.0,-4.0,16.0,0
2.0,-238.0,-15.0,34.0,-5.0,15.0,0
-6.0,-249.0,-13.0,35.0,-10.0,18.0,0
-3.0,-251.0,-16.0,35.0,-14.0,18.0,0
-2.0,-248.0,-14.0,34.0,-14.0,19.0,0
0.0,-254.0,-13.0,30.0,-14.0,15.0,0
-4.0,-247.0,-18.0,25.0,-13.0,12.0,0
-1.0,-251.0,-17.0,23.0,-10.0,14.0,0
-3.0,-245.0,-13.0,24.0,-7.0,15.0,0
-3.0,-250.0,-20.0,25.0,-7.0,14.0,0
-4.0,-249.0,-21.0,22.0,-7.0,11.0,0
-7.0,-246.0,-17.0,19.0,-10.0,11.0,0
-4.0,-250.0,-19.0,16.0,-16.0,7.0,0
-6.0,-250.0,-14.0,12.0,-22.0,4.0,0
-9.0,-251.0,-11.0,7.0,-26.0,0.0,0
-6.0,-253.0,-16.0,4.0,-30.0,-3.0,0
-8.0,-252.0,-12.0,3.0,-31.0,-7.0,0
-10.0,-252.0,-12.0,0.0,-34.0,-9.0,0
-12.0,-252.0,-11.0,-1.0,-36.0,-9.0,0
-12.0,-251.0,-12.0,3.0,-40.0,-8.0,0
-11.0,-251.0,-12.0,8.0,-44.0,-5.0,0
-6.0,-250.0,-11.0,12.0,-51.0,-5.0,0
-7.0,-251.0,-17.0,15.0,-57.0,-2.0,0
-9.0,-247.0,-14.0,15.0,-62.0,2.0,0
-6.0,-250.0,-16.0,14.0,-66.0,2.0,0
-4.0,-252.0,-13.0,13.0,-67.0,2.0,0
-5.0,-249.0,-20.0,14.0,-66.0,5.0,0
-2.0,-250.0,-17.0,14.0,-63.0,6.0,0
-1.0,-254.0,-21.0,17.0,-58.0,6.0,0
0.0,-254.0,-20.0,19.0,-53.0,7.0,0
-1.0,-256.0,-24.0,23.0,-46.0,9.0,0
-1.0,-251.0,-21.0,28.0,-41.0,11.0,0
-2.0,-251.0,-17.0,35.0,-37.0,10.0,0
-3.0,-253.0,-18.0,39.0,-34.0,11.0,0
-5.0,-253.0,-15.0,43.0,-33.0,11.0,0
-3.0,-249.0,-17.0,43.0,-33.0,11.0,0
-4.0,-250.0,-15.0,44.0,-32.0,10.0,0
-4.0,-249.0,-17.0,41.0,-32.0,9.0,0
-4.0,-247.0,-14.0,38.0,-31.0,10.0,0
-10.0,-246.0,-14.0,33.0,-34.0,9.0,0
-8.0,-247.0,-10.0,28.0,-35.0,10.0,0
-9.0,-247.0,-17.0,24.0,-36.0,10.0,0
-4.0,-246.0,-14.0,22.0,-36.0,6.0,0
-7.0,-245.0,-15.0,17.0,-34.0,3.0,0
-5.0,-251.0,-8.0,9.0,-30.0,-2.0,0
-6.0,-253.0,-14.0,4.0,-26.0,-9.0,0
-4.0,-248.0,-17.0,-2.0,-19.0,-14.0,0
3.0,-250.0,-15.0,-5.0,-12.0,-14.0,0
3.0,-247.0,-22.0,-10.0,-7.0,-17.0,0
7.0,-251.0,-19.0,-16.0,4.0,-19.0,0
0.0,-247.0,-23.0,-16.0,20.0,-18.0,0
1.0,-248.0,-19.0,-19.0,31.0,-20.0,0
-8.0,-241.0,-17.0,-27.0,38.0,-22.0,0
-6.0,-244.0,-15.0,-37.0,38.0,-26.0,0
-25.0,-250.0,-12.0,-49.0,34.0,-28.0,0
-13.0,-246.0,-13.0,-61.0,27.0,-31.0,0
-9.0,-247.0,-13.0,-70.0,15.0,-29.0,0
-6.0,-246.0,-12.0,-75.0,4.0,-26.0,0
-7.0,-243.0,-18.0,-81.0,-5.0,-24.0,0
-2.0,-245.0,-20.0,-92.0,-11.0,-22.0,0
1.0,-249.0,-19.0,-99.0,-11.0,-20.0,0
11.0,-248.0,-21.0,-104.0,-3.0,-23.0,0
9.0,-247.0,-23.0,-104.0,14.0,-24.0,0
8.0,-253.0,-23.0,-101.0,29.0,-27.0,0
5.0,-253.0,-21.0,-97.0,43.0,-31.0,0
-4.0,-252.0,-19.0,-89.0,50.0,-32.0,0
-4.0,-251.0,-14.0,-83.0,53.0,-31.0,0
-3.0,-250.0,-10.0,-73.0,45.0,-28.0,0
-2.0,-248.0,-9.0,-66.0,39.0,-27.0,0
-1.0,-243.0,-9.0,-64.0,33.0,-26.0,0
2.0,-241.0,-20.0,-61.0,33.0,-22.0,0
0.0,-247.0,-21.0,-54.0,34.0,-14.0,0
4.0,-245.0,-28.0,-68.0,28.0,-24.0,0
6.0,-245.0,-20.0,-84.0,32.0,-25.0,0
8.0,-244.0,-19.0,-82.0,37.0,-20.0,0
1.0,-244.0,-16.0,-77.0,36.0,-23.0,0
-14.0,-236.0,-14.0,-83.0,28.0,-35.0,0
-19.0,-231.0,-15.0,-78.0,10.0,-33.0,0
-17.0,-221.0,-20.0,-66.0,-22.0,-24.0,0
-18.0,-221.0,-23.0,-68.0,-62.0,-24.0,0
-14.0,-221.0,-35.0,-94.0,-100.0,-26.0,0
-7.0,-224.0,-34.0,-138.0,-134.0,-35.0,0
-13.0,-227.0,-43.0,-188.0,-165.0,-47.0,0
-15.0,-229.0,-46.0,-231.0,-201.0,-59.0,0
-14.0,-233.0,-48.0,-265.0,-251.0,-69.0,0
-19.0,-238.0,-50.0,-285.0,-309.0,-79.0,0
-23.0,-235.0,-48.0,-288.0,-374.0,-88.0,0
-26.0,-241.0,-55.0,-279.0,-445.0,-96.0,0
-31.0,-234.0,-53.0,-266.0,-522.0,-101.0,0
-39.0,-231.0,-50.0,-248.0,-599.0,-100.0,0
-40.0,-228.0,-49.0,-228.0,-676.0,-100.0,0
-37.0,-224.0,-42.0,-210.0,-745.0,-101.0,0
-34.0,-217.0,-36.0,-194.0,-803.0,-109.0,0
-29.0,-220.0,-32.0,-185.0,-839.0,-123.0,0
-29.0,-219.0,-17.0,-189.0,-851.0,-141.0,0
-23.0,-211.0,-10.0,-210.0,-845.0,-157.0,0
-21.0,-215.0,0.0,-246.0,-830.0,-171.0,0
-16.0,-201.0,2.0,-291.0,-813.0,-187.0,0
-17.0,-217.0,9.0,-343.0,-798.0,-197.0,0
-18.0,-225.0,15.0,-384.0,-784.0,-201.0,0
-18.0,-230.0,18.0,-422.0,-771.0,-204.0,0
-17.0,-240.0,17.0,-454.0,-756.0,-200.0,0
-6.0,-245.0,17.0,-473.0,-737.0,-193.0,0
-10.0,-253.0,15.0,-479.0,-711.0,-184.0,0
-9.0,-257.0,9.0,-483.0,-675.0,-170.0,0
-10.0,-261.0,5.0,-488.0,-633.0,-152.0,0
-15.0,-269.0,1.0,-497.0,-580.0,-129.0,0
-12.0,-271.0,-1.0,-505.0,-527.0,-105.0,0
-17.0,-276.0,3.0,-503.0,-471.0,-82.0,0
-18.0,-281.0,-5.0,-491.0,-417.0,-57.0,0
-19.0,-282.0,-4.0,-471.0,-362.0,-35.0,0
-24.0,-283.0,-8.0,-448.0,-304.0,-9.0,0
-27.0,-280.0,-4.0,-423.0,-246.0,12.0,0
-28.0,-276.0,-10.0,-394.0,-192.0,38.0,0
-32.0,-267.0,-10.0,-366.0,-143.0,73.0,0
-27.0,-261.0,-12.0,-343.0,-90.0,109.0,0
-33.0,-246.0,-7.0,-323.0,-27.0,142.0,0
-29.0,-240.0,-1.0,-298.0,39.0,174.0,0
-27.0,-226.0,8.0,-263.0,106.0,201.0,0
-18.0,-210.0,11.0,-219.0,173.0,214.0,0
-4.0,-198.0,12.0,-170.0,242.0,214.0,0
1.0,-181.0,15.0,-130.0,310.0,203.0,0
13.0,-160.0,13.0,-87.0,379.0,191.0,0
25.0,-143.0,-4.0,-59.0,444.0,168.0,0
29.0,-133.0,-22.0,-74.0,504.0,112.0,0
42.0,-136.0,-48.0,-134.0,564.0,28.0,0
47.0,-140.0,-55.0,-209.0,631.0,-81.0,0
53.0,-155.0,-66.0,-262.0,704.0,-210.0,0
59.0,-176.0,-55.0,-293.0,773.0,-350.0,0
55.0,-197.0,-30.0,-259.0,813.0,-490.0,0
53.0,-202.0,-18.0,-139.0,823.0,-620.0,0
45.0,-235.0,-17.0,61.0,820.0,-729.0,0
41.0,-245.0,-36.0,315.0,829.0,-810.0,0
34.0,-249.0,-53.0,537.0,860.0,-872.0,0
8.0,-260.0,-63.0,644.0,898.0,-939.0,0
-17.0,-262.0,-54.0,590.0,889.0,-995.0,0
-46.0,-279.0,-50.0,447.0,798.0,-1020.0,0
-81.0,-306.0,-42.0,294.0,644.0,-1021.0,0
-111.0,-330.0,-30.0,202.0,483.0,-993.0,0
-132.0,-354.0,-29.0,201.0,335.0,-942.0,0
-161.0,-374.0,-28.0,256.0,190.0,-892.0,0
-179.0,-385.0,-33.0,316.0,22.0,-854.0,0
-191.0,-386.0,-29.0,314.0,-165.0,-824.0,0
-178.0,-377.0,-26.0,278.0,-342.0,-788.0,0
-154.0,-354.0,-28.0,303.0,-488.0,-736.0,0
-121.0,-353.0,-47.0,410.0,-611.0,-661.0,0
-91.0,-339.0,-67.0,471.0,-748.0,-618.0,0
-55.0,-327.0,-63.0,448.0,-910.0,-582.0,0
-7.0,-318.0,-47.0,366.0,-1059.0,-558.0,0
40.0,-312.0,-40.0,259.0,-1154.0,-559.0,0
70.0,-319.0,-41.0,140.0,-1185.0,-579.0,0
111.0,-332.0,-39.0,-64.0,-1177.0,-616.0,0
147.0,-364.0,-16.0,-299.0,-1152.0,-680.0,0
189.0,-413.0,0.0,-465.0,-1108.0,-771.0,0
223.0,-450.0,-10.0,-561.0,-1043.0,-877.0,0
230.0,-478.0,-11.0,-676.0,-961.0,-1005.0,0
234.0,-520.0,-20.0,-794.0,-873.0,-1157.0,0
220.0,-559.0,-8.0,-865.0,-736.0,-1288.0,0
206.0,-606.0,-1.0,-850.0,-566.0,-1364.0,0
180.0,-628.0,8.0,-785.0,-414.0,-1405.0,0
172.0,-655.0,3.0,-730.0,-328.0,-1363.0,0
159.0,-672.0,0.0,-708.0,-258.0,-1267.0,0
125.0,-673.0,-1.0,-704.0,-200.0,-1155.0,0
121.0,-663.0,-1.0,-701.0,-162.0,-1060.0,0
121.0,-649.0,-8.0,-635.0,-130.0,-995.0,0
126.0,-620.0,-19.0,-495.0,-104.0,-956.0,0
115.0,-578.0,-19.0,-397.0,-100.0,-924.0,0
104.0,-554.0,-3.0,-358.0,-109.0,-902.0,0
75.0,-518.0,34.0,-359.0,-133.0,-879.0,0
67.0,-492.0,78.0,-384.0,-195.0,-822.0,0
57.0,-448.0,99.0,-430.0,-269.0,-719.0,0
40.0,-406.0,101.0,-510.0,-331.0,-543.0,0
42.0,-353.0,64.0,-597.0,-381.0,-304.0,0
50.0,-284.0,26.0,-628.0,-451.0,-40.0,0
78.0,-236.0,11.0,-581.0,-542.0,216.0,0
115.0,-192.0,-6.0,-461.0,-633.0,432.0,0
117.0,-178.0,-8.0,-294.0,-657.0,619.0,0
121.0,-178.0,-16.0,-85.0,-594.0,744.0,0
112.0,-190.0,-11.0,100.0,-413.0,891.0,0
115.0,-196.0,-11.0,258.0,-179.0,965.0,0
131.0,-200.0,-11.0,340.0,29.0,1035.0,0
148.0,-206.0,-4.0,341.0,169.0,1103.0,0
157.0,-201.0,2.0,319.0,243.0,1101.0,0
157.0,-205.0,-9.0,318.0,279.0,1056.0,0
156.0,-180.0,-13.0,368.0,317.0,1016.0,0
153.0,-152.0,-33.0,450.0,368.0,995.0,0
135.0,-116.0,-42.0,529.0,414.0,983.0,0
120.0,-76.0,-43.0,572.0,457.0,968.0,0
106.0,-49.0,-38.0,577.0,511.0,960.0,0
85.0,-5.0,-20.0,565.0,570.0,967.0,0
62.0,35.0,-3.0,567.0,621.0,979.0,0
46.0,80.0,4.0,588.0,663.0,983.0,0
41.0,126.0,-15.0,598.0,707.0,980.0,0
35.0,160.0,-57.0,565.0,785.0,963.0,0
0.0,199.0,-124.0,429.0,916.0,918.0,0
-61.0,217.0,-178.0,152.0,1052.0,837.0,0
-117.0,223.0,-216.0,-255.0,1109.0,736.0,0
-110.0,191.0,-243.0,-713.0,1060.0,630.0,0
-58.0,147.0,-243.0,-1106.0,1016.0,524.0,0
55.0,84.0,-247.0,-1264.0,1113.0,427.0,0
185.0,1.0,-227.0,-1183.0,1429.0,355.0,0
336.0,-102.0,-202.0,-1019.0,1825.0,231.0,0
399.0,-190.0,-176.0,-912.0,2096.0,-49.0,0
385.0,-239.0,-161.0,-851.0,2222.0,-420.0,0
348.0,-294.0,-154.0,-782.0,2278.0,-698.0,0
287.0,-337.0,-158.0,-647.0,2262.0,-862.0,0
194.0,-376.0,-146.0,-472.0,2224.0,-909.0,0
116.0,-401.0,-119.0,-261.0,2207.0,-848.0,0
14.0,-406.0,-84.0,12.0,2206.0,-696.0,0
-83.0,-347.0,-71.0,290.0,2218.0,-445.0,0
-183.0,-230.0,-54.0,439.0,2231.0,-27.0,0
-229.0,-141.0,-38.0,383.0,2169.0,532.0,0
-252.0,-102.0,-14.0,117.0,1994.0,1092.0,0
-259.0,-92.0,-13.0,-238.0,1715.0,1579.0,0
-228.0,-107.0,-56.0,-639.0,1362.0,2005.0,0
-158.0,-161.0,-107.0,-1047.0,975.0,2384.0,0
-91.0,-234.0,-153.0,-1375.0,626.0,2662.0,0
-49.0,-296.0,-180.0,-1588.0,388.0,2842.0,0
-34.0,-386.0,-187.0,-1668.0,237.0,3011.0,0
-26.0,-508.0,-139.0,-1638.0,124.0,3187.0,0
-11.0,-691.0,-75.0,-1572.0,29.0,3288.0,0
0.0,-893.0,-79.0,-1544.0,-60.0,3170.0,0
4.0,-1030.0,-79.0,-1670.0,-81.0,2860.0,0
-10.0,-1186.0,-34.0,-1866.0,-70.0,2549.0,0
-44.0,-1271.0,9.0,-1924.0,-146.0,2354.0,0
-125.0,-1221.0,-5.0,-1670.0,-282.0,2305.0,0
-183.0,-1075.0,-40.0,-1104.0,-429.0,2366.0,0
-211.0,-935.0,-58.0,-361.0,-621.0,2262.0,0
-217.0,-716.0,-69.0,336.0,-817.0,1988.0,0
-216.0,-530.0,-103.0,894.0,-977.0,1738.0,0
-209.0,-378.0,-109.0,1197.0,-1034.0,1510.0,0
-213.0,-277.0,-107.0,1256.0,-1108.0,1216.0,0
-263.0,-157.0,-120.0,1030.0,-1197.0,816.0,0
-327.0,-73.0,-128.0,696.0,-1280.0,407.0,0
-356.0,-36.0,-128.0,319.0,-1413.0,8.0,0
-332.0,-34.0,-145.0,2.0,-1573.0,-387.0,0
-277.0,-49.0,-155.0,-196.0,-1642.0,-801.0,0
-204.0,-49.0,-148.0,-212.0,-1574.0,-1210.0,0
-130.0,-40.0,-100.0,-51.0,-1437.0,-1550.0,0
-52.0,-28.0,-46.0,221.0,-1351.0,-1793.0,0
38.0,-8.0,9.0,507.0,-1306.0,-1950.0,0
105.0,7.0,53.0,715.0,-1267.0,-2053.0,0
187.0,46.0,95.0,786.0,-1270.0,-2117.0,0
254.0,86.0,107.0,718.0,-1340.0,-2148.0,0
277.0,126.0,112.0,605.0,-1418.0,-2187.0,0
253.0,160.0,96.0,547.0,-1407.0,-2267.0,0
200.0,186.0,75.0,553.0,-1252.0,-2288.0,0
122.0,220.0,32.0,548.0,-988.0,-2163.0,0
10.0,269.0,-57.0,463.0,-797.0,-1929.0,0
-87.0,318.0,-191.0,265.0,-820.0,-1627.0,0
-151.0,353.0,-323.0,-60.0,-1008.0,-1294.0,0
-167.0,338.0,-391.0,-463.0,-1223.0,-975.0,0
-139.0,266.0,-422.0,-809.0,-1302.0,-725.0,0
-76.0,156.0,-334.0,-938.0,-1179.0,-668.0,0
-34.0,72.0,-226.0,-682.0,-900.0,-833.0,0
-27.0,33.0,-185.0,-205.0,-630.0,-1017.0,0
-30.0,-33.0,-180.0,182.0,-451.0,-1017.0,0
-11.0,-141.0,-162.0,373.0,-324.0,-848.0,0
52.0,-287.0,-111.0,417.0,-175.0,-636.0,0
128.0,-448.0,-1.0,371.0,31.0,-491.0,0
175.0,-579.0,87.0,270.0,245.0,-486.0,0
204.0,-760.0,207.0,148.0,404.0,-668.0,0
196.0,-899.0,214.0,71.0,522.0,-1037.0,0
152.0,-1013.0,113.0,-118.0,717.0,-1549.0,0
55.0,-1099.0,-40.0,-537.0,1000.0,-2069.0,0
-53.0,-1151.0,-129.0,-1038.0,1198.0,-2492.0,0
-104.0,-1259.0,-180.0,-1327.0,1367.0,-2717.0,0
22.0,-1257.0,-85.0,-1187.0,1727.0,-2722.0,0
161.0,-1115.0,30.0,-882.0,2071.0,-2325.0,0
290.0,-926.0,71.0,-608.0,2071.0,-1434.0,0
344.0,-748.0,68.0,-336.0,1779.0,-466.0,0
381.0,-509.0,20.0,-16.0,1446.0,319.0,0
345.0,-293.0,-79.0,489.0,1175.0,949.0,0
285.0,-110.0,-178.0,1046.0,894.0,1466.0,0
248.0,9.0,-217.0,1344.0,643.0,1767.0,0
213.0,131.0,-182.0,1311.0,549.0,1769.0,0
207.0,212.0,-126.0,1023.0,642.0,1503.0,0
193.0,251.0,-99.0,548.0,790.0,1099.0,0
158.0,245.0,-59.0,39.0,903.0,717.0,0
118.0,215.0,-34.0,-294.0,1010.0,491.0,0
45.0,155.0,-3.0,-349.0,1087.0,468.0,0
-46.0,92.0,30.0,-140.0,1095.0,590.0,0
-137.0,29.0,59.0,233.0,1026.0,793.0,0
-208.0,-5.0,78.0,636.0,894.0,1020.0,0
-245.0,-6.0,92.0,948.0,712.0,1235.0,0
-268.0,17.0,96.0,1100.0,484.0,1413.0,0
-260.0,67.0,96.0,1076.0,209.0,1548.0,0
-197.0,114.0,95.0,956.0,-93.0,1641.0,0
-86.0,154.0,62.0,850.0,-368.0,1671.0,0
-3.0,185.0,-12.0,803.0,-552.0,1633.0,0
73.0,226.0,-140.0,738.0,-577.0,1512.0,0
109.0,259.0,-278.0,580.0,-409.0,1325.0,0
128.0,273.0,-383.0,336.0,-107.0,1088.0,0
114.0,263.0,-431.0,90.0,198.0,837.0,0
95.0,226.0,-413.0,-90.0,375.0,560.0,0
51.0,172.0,-341.0,-121.0,431.0,389.0,0
83.0,88.0,-253.0,40.0,494.0,332.0,0
204.0,-5.0,-273.0,274.0,733.0,292.0,0
252.0,-91.0,-309.0,297.0,1097.0,150.0,0
285.0,-252.0,-279.0,66.0,1494.0,-48.0,0
289.0,-453.0,-170.0,-260.0,1775.0,-303.0,0
235.0,-654.0,10.0,-391.0,1876.0,-541.0,0
154.0,-817.0,181.0,-279.0,1798.0,-605.0,0
125.0,-908.0,213.0,73.0,1719.0,-417.0,0
125.0,-943.0,173.0,367.0,1790.0,-107.0,0
32.0,-915.0,37.0,449.0,1845.0,249.0,0
-235.0,-916.0,-76.0,299.0,1753.0,845.0,0
-506.0,-926.0,-92.0,14.0,1233.0,1616.0,0
-637.0,-928.0,-50.0,-369.0,274.0,2358.0,0
-665.0,-979.0,3.0,-843.0,-878.0,3027.0,0
-552.0,-1011.0,18.0,-1275.0,-1752.0,3325.0,0
-410.0,-955.0,7.0,-1508.0,-2042.0,3109.0,0
-264.0,-840.0,-29.0,-1382.0,-1979.0,2643.0,0
-197.0,-741.0,-45.0,-826.0,-1951.0,2022.0,0
-173.0,-579.0,-113.0,82.0,-2020.0,1338.0,0
-186.0,-435.0,-206.0,934.0,-1989.0,679.0,0
-251.0,-293.0,-206.0,1468.0,-1838.0,42.0,0
-312.0,-178.0,-181.0,1679.0,-1805.0,-543.0,0
-329.0,-42.0,-187.0,1613.0,-1949.0,-994.0,0
-336.0,84.0,-202.0,1258.0,-2119.0,-1324.0,0
-277.0,189.0,-214.0,743.0,-2152.0,-1473.0,0
-167.0,276.0,-199.0,237.0,-2086.0,-1497.0,0
-77.0,302.0,-155.0,-150.0,-2085.0,-1523.0,0
68.0,280.0,-106.0,-334.0,-2166.0,-1618.0,0
202.0,232.0,-70.0,-319.0,-2184.0,-1807.0,0
297.0,182.0,-53.0,-208.0,-2054.0,-2052.0,0
355.0,129.0,-1.0,-103.0,-1822.0,-2270.0,0
381.0,95.0,45.0,8.0,-1592.0,-2433.0,0
340.0,69.0,85.0,135.0,-1361.0,-2519.0,0
262.0,63.0,85.0,272.0,-1070.0,-2467.0,0
158.0,77.0,23.0,365.0,-713.0,-2330.0,0
42.0,124.0,-86.0,341.0,-461.0,-2136.0,0
-23.0,141.0,-181.0,193.0,-394.0,-1872.0,0
-85.0,176.0,-280.0,-66.0,-455.0,-1587.0,0
-118.0,185.0,-308.0,-323.0,-551.0,-1326.0,0
-110.0,145.0,-259.0,-428.0,-585.0,-1108.0,0
-100.0,88.0,-206.0,-254.0,-471.0,-1010.0,0
-104.0,60.0,-186.0,128.0,-277.0,-1051.0,0
-99.0,11.0,-194.0,471.0,-171.0,-1090.0,0
-52.0,-66.0,-172.0,582.0,-149.0,-980.0,0
12.0,-181.0,-81.0,585.0,-95.0,-746.0,0
76.0,-270.0,-18.0,642.0,9.0,-504.0,0
174.0,-390.0,25.0,737.0,91.0,-318.0,0
249.0,-527.0,98.0,748.0,195.0,-224.0,0
287.0,-643.0,201.0,689.0,419.0,-250.0,0
259.0,-754.0,238.0,557.0,741.0,-461.0,0
196.0,-828.0,183.0,197.0,996.0,-917.0,0
51.0,-887.0,51.0,-493.0,1014.0,-1436.0,0
-49.0,-989.0,-69.0,-1351.0,932.0,-1701.0,0
-81.0,-1132.0,-129.0,-2030.0,1086.0,-1762.0,0
-30.0,-1217.0,-107.0,-2304.0,1439.0,-1814.0,0
22.0,-1154.0,-22.0,-2253.0,1668.0,-1769.0,0
131.0,-1012.0,84.0,-1896.0,1708.0,-1261.0,0
179.0,-807.0,90.0,-1184.0,1492.0,-532.0,0
195.0,-575.0,36.0,-256.0,983.0,157.0,0
214.0,-356.0,-31.0,669.0,424.0,753.0,0
246.0,-206.0,-85.0,1357.0,60.0,1212.0,0
249.0,-13.0,-152.0,1695.0,-48.0,1461.0,0
240.0,137.0,-173.0,1698.0,71.0,1475.0,0
201.0,247.0,-165.0,1448.0,392.0,1261.0,0
142.0,295.0,-140.0,1028.0,759.0,965.0,0
103.0,298.0,-112.0,526.0,966.0,704.0,0
68.0,263.0,-56.0,93.0,985.0,644.0,0
57.0,207.0,-10.0,-88.0,901.0,687.0,0
21.0,164.0,32.0,36.0,807.0,789.0,0
-12.0,132.0,48.0,385.0,807.0,930.0,0
-48.0,113.0,52.0,769.0,879.0,1087.0,0
-74.0,109.0,51.0,1035.0,953.0,1209.0,0
-87.0,119.0,46.0,1142.0,969.0,1290.0,0
-95.0,127.0,21.0,1017.0,906.0,1351.0,0
-85.0,139.0,11.0,728.0,745.0,1394.0,0
-57.0,156.0,-16.0,447.0,529.0,1390.0,0
-9.0,176.0,-91.0,297.0,360.0,1336.0,0
15.0,195.0,-206.0,256.0,345.0,1245.0,0
20.0,211.0,-330.0,228.0,493.0,1129.0,0
11.0,204.0,-374.0,164.0,717.0,965.0,0
-20.0,159.0,-359.0,88.0,858.0,758.0,0
-71.0,84.0,-267.0,120.0,824.0,570.0,0
-30.0,7.0,-209.0,377.0,657.0,479.0,0
98.0,-85.0,-259.0,680.0,617.0,445.0,0
129.0,-169.0,-250.0,647.0,874.0,314.0,0
121.0,-300.0,-137.0,365.0,1138.0,81.0,0
110.0,-456.0,-1.0,154.0,1163.0,-191.0,0
119.0,-605.0,78.0,124.0,1051.0,-375.0,0
114.0,-705.0,126.0,178.0,988.0,-363.0,0
102.0,-798.0,167.0,260.0,1070.0,-143.0,0
107.0,-856.0,168.0,301.0,1216.0,156.0,0
38.0,-856.0,113.0,252.0,1277.0,435.0,0
-116.0,-874.0,44.0,129.0,1122.0,830.0,0
-252.0,-868.0,0.0,-83.0,681.0,1368.0,0
-352.0,-854.0,-9.0,-531.0,-34.0,1950.0,0
-373.0,-866.0,28.0,-1100.0,-809.0,2487.0,0
-303.0,-905.0,85.0,-1495.0,-1331.0,2802.0,0
-252.0,-887.0,102.0,-1453.0,-1469.0,2771.0,0
-240.0,-836.0,81.0,-1038.0,-1402.0,2497.0,0
-224.0,-736.0,-12.0,-394.0,-1342.0,2106.0,0
-211.0,-606.0,-105.0,221.0,-1311.0,1612.0,0
-260.0,-482.0,-166.0,730.0,-1226.0,1043.0,0
-331.0,-355.0,-185.0,1157.0,-1081.0,476.0,0
-362.0,-252.0,-216.0,1470.0,-1050.0,3.0,0
-402.0,-113.0,-248.0,1546.0,-1108.0,-362.0,0
-414.0,11.0,-233.0,1294.0,-1140.0,-632.0,0
-365.0,116.0,-184.0,869.0,-1131.0,-850.0,0
-255.0,183.0,-172.0,506.0,-1235.0,-1024.0,0
-145.0,218.0,-177.0,261.0,-1513.0,-1141.0,0
12.0,216.0,-182.0,39.0,-1768.0,-1247.0,0
129.0,169.0,-151.0,-187.0,-1797.0,-1466.0,0
208.0,126.0,-72.0,-391.0,-1696.0,-1783.0,0
254.0,102.0,-30.0,-445.0,-1633.0,-2039.0,0
302.0,73.0,13.0,-326.0,-1615.0,-2099.0,0
314.0,43.0,65.0,-133.0,-1493.0,-1988.0,0
263.0,3.0,99.0,78.0,-1179.0,-1867.0,0
173.0,-3.0,96.0,240.0,-711.0,-1792.0,0
76.0,19.0,76.0,308.0,-304.0,-1741.0,0
-21.0,74.0,13.0,272.0,-158.0,-1604.0,0
-77.0,152.0,-83.0,82.0,-296.0,-1389.0,0
-83.0,224.0,-188.0,-218.0,-528.0,-1180.0,0
-64.0,276.0,-303.0,-526.0,-673.0,-1001.0,0
-51.0,293.0,-380.0,-792.0,-717.0,-819.0,0
-27.0,266.0,-404.0,-962.0,-697.0,-642.0,0
-11.0,189.0,-340.0,-921.0,-697.0,-556.0,0
-30.0,114.0,-265.0,-639.0,-729.0,-611.0,0
-27.0,40.0,-223.0,-274.0,-697.0,-670.0,0
-21.0,-28.0,-175.0,-100.0,-603.0,-615.0,0
15.0,-162.0,-93.0,-167.0,-512.0,-454.0,0
79.0,-322.0,-9.0,-295.0,-403.0,-262.0,0
143.0,-511.0,94.0,-383.0,-191.0,-156.0,0
132.0,-737.0,228.0,-456.0,79.0,-225.0,0
98.0,-913.0,304.0,-506.0,219.0,-498.0,0
-5.0,-1025.0,241.0,-595.0,231.0,-956.0,0
-21.0,-1172.0,88.0,-1021.0,411.0,-1442.0,0
-4.0,-1255.0,-105.0,-1673.0,688.0,-1870.0,0
65.0,-1334.0,-198.0,-2004.0,833.0,-1944.0,0
241.0,-1387.0,-172.0,-1763.0,1015.0,-1895.0,0
319.0,-1246.0,-71.0,-1101.0,1293.0,-1655.0,0
383.0,-1025.0,-16.0,-264.0,1310.0,-1052.0,0
384.0,-711.0,-21.0,505.0,989.0,-417.0,0
363.0,-494.0,-32.0,999.0,465.0,207.0,0
263.0,-210.0,-101.0,1426.0,-6.0,775.0,0
130.0,47.0,-143.0,1610.0,-267.0,1233.0,0
96.0,231.0,-161.0,1584.0,-240.0,1527.0,0
96.0,335.0,-179.0,1338.0,27.0,1551.0,0
76.0,354.0,-168.0,907.0,351.0,1329.0,0
57.0,336.0,-133.0,379.0,580.0,1080.0,0
63.0,285.0,-66.0,-54.0,667.0,925.0,0
48.0,230.0,0.0,-175.0,661.0,843.0,0
-4.0,177.0,65.0,21.0,604.0,835.0,0
-49.0,125.0,85.0,386.0,536.0,932.0,0
-98.0,64.0,106.0,695.0,524.0,1099.0,0
-131.0,22.0,105.0,874.0,567.0,1272.0,0
-136.0,3.0,79.0,944.0,601.0,1405.0,0
-126.0,1.0,65.0,938.0,549.0,1472.0,0
-79.0,17.0,59.0,923.0,407.0,1467.0,0
-6.0,51.0,79.0,968.0,220.0,1405.0,0
64.0,88.0,90.0,1085.0,23.0,1297.0,0
96.0,134.0,48.0,1227.0,-123.0,1159.0,0
86.0,178.0,-47.0,1300.0,-156.0,1023.0,0
76.0,231.0,-178.0,1227.0,-61.0,886.0,0
61.0,266.0,-316.0,1027.0,136.0,711.0,0
41.0,261.0,-365.0,794.0,342.0,508.0,0
-3.0,204.0,-359.0,703.0,459.0,354.0,0
-33.0,142.0,-294.0,796.0,474.0,359.0,0
31.0,-18.0,-236.0,1019.0,438.0,528.0,0
68.0,-142.0,-241.0,1083.0,617.0,586.0,0
75.0,-299.0,-160.0,747.0,977.0,495.0,0
110.0,-527.0,38.0,223.0,1100.0,314.0,0
161.0,-704.0,195.0,-103.0,894.0,51.0,0
196.0,-882.0,299.0,-81.0,639.0,-158.0,0
224.0,-981.0,273.0,115.0,635.0,-66.0,0
156.0,-1058.0,179.0,185.0,845.0,235.0,0
-132.0,-1126.0,115.0,94.0,1037.0,588.0,0
-451.0,-1125.0,25.0,8.0,884.0,1077.0,0
-716.0,-1151.0,-34.0,-253.0,245.0,1755.0,0
-609.0,-1126.0,37.0,-742.0,-734.0,2513.0,0
-502.0,-1028.0,91.0,-1150.0,-1403.0,2878.0,0
-416.0,-923.0,94.0,-1278.0,-1617.0,2936.0,0
-257.0,-760.0,73.0,-993.0,-1712.0,2829.0,0
-135.0,-541.0,64.0,-324.0,-1862.0,2507.0,0
-104.0,-322.0,-31.0,542.0,-1934.0,1979.0,0
-182.0,-125.0,-143.0,1148.0,-1762.0,1355.0,0
-229.0,-14.0,-161.0,1207.0,-1457.0,755.0,0
-248.0,91.0,-144.0,848.0,-1286.0,243.0,0
-227.0,147.0,-171.0,252.0,-1327.0,-215.0,0
-203.0,177.0,-215.0,-401.0,-1428.0,-587.0,0
-131.0,181.0,-218.0,-901.0,-1462.0,-835.0,0
-72.0,167.0,-184.0,-1126.0,-1469.0,-1019.0,0
29.0,129.0,-119.0,-1050.0,-1498.0,-1176.0,0
110.0,90.0,-56.0,-742.0,-1520.0,-1362.0,0
162.0,69.0,0.0,-351.0,-1484.0,-1578.0,0
201.0,74.0,49.0,-33.0,-1401.0,-1775.0,0
230.0,73.0,91.0,157.0,-1311.0,-1913.0,0
252.0,61.0,121.0,287.0,-1203.0,-1977.0,0
246.0,43.0,130.0,386.0,-992.0,-1973.0,0
184.0,23.0,135.0,471.0,-638.0,-1944.0,0
97.0,18.0,124.0,590.0,-234.0,-1856.0,0
41.0,24.0,101.0,697.0,71.0,-1687.0,0
-3.0,48.0,45.0,708.0,161.0,-1491.0,0
-30.0,84.0,-57.0,608.0,47.0,-1302.0,0
-57.0,126.0,-154.0,451.0,-198.0,-1079.0,0
-60.0,150.0,-233.0,300.0,-469.0,-874.0,0
-30.0,157.0,-318.0,160.0,-670.0,-670.0,0
19.0,147.0,-411.0,12.0,-760.0,-516.0,0
58.0,92.0,-475.0,-158.0,-721.0,-464.0,0
20.0,-20.0,-419.0,-282.0,-554.0,-540.0,0
-7.0,-112.0,-312.0,-211.0,-249.0,-631.0,0
5.0,-231.0,-172.0,-27.0,88.0,-580.0,0
34.0,-371.0,-103.0,131.0,285.0,-419.0,0
80.0,-538.0,-21.0,105.0,338.0,-173.0,0
126.0,-731.0,126.0,32.0,542.0,57.0,0
87.0,-874.0,262.0,114.0,985.0,89.0,0
-44.0,-931.0,326.0,365.0,1130.0,-216.0,0
-145.0,-1028.0,161.0,458.0,741.0,-710.0,0
-197.0,-1058.0,3.0,105.0,234.0,-1120.0,0
-180.0,-1076.0,-70.0,-366.0,13.0,-1319.0,0
-88.0,-1090.0,-64.0,-519.0,171.0,-1550.0,0
-14.0,-1045.0,-35.0,-343.0,504.0,-1997.0,0
47.0,-884.0,22.0,-130.0,796.0,-2286.0,0
109.0,-680.0,81.0,23.0,854.0,-2160.0,0
147.0,-529.0,122.0,156.0,727.0,-1716.0,0
149.0,-330.0,75.0,398.0,515.0,-1117.0,0
90.0,-135.0,-34.0,711.0,241.0,-533.0,0
84.0,20.0,-158.0,991.0,-42.0,-69.0,0
86.0,123.0,-204.0,1043.0,-273.0,203.0,0
100.0,147.0,-191.0,894.0,-430.0,320.0,0
121.0,143.0,-160.0,678.0,-471.0,369.0,0
131.0,123.0,-104.0,433.0,-430.0,381.0,0
124.0,98.0,-64.0,224.0,-353.0,379.0,0
103.0,78.0,-29.0,90.0,-256.0,434.0,0
89.0,48.0,-4.0,95.0,-131.0,538.0,0
58.0,7.0,35.0,229.0,6.0,628.0,0
17.0,-32.0,72.0,488.0,107.0,701.0,0
-11.0,-52.0,100.0,794.0,131.0,761.0,0
-33.0,-43.0,132.0,1061.0,94.0,832.0,0
-27.0,-33.0,136.0,1254.0,38.0,916.0,0
-12.0,-6.0,140.0,1355.0,-41.0,973.0,0
1.0,30.0,128.0,1365.0,-170.0,977.0,0
13.0,76.0,114.0,1336.0,-324.0,933.0,0
27.0,122.0,102.0,1280.0,-453.0,874.0,0
29.0,148.0,63.0,1202.0,-545.0,818.0,0
4.0,174.0,8.0,1054.0,-588.0,791.0,0
-25.0,188.0,-70.0,826.0,-566.0,787.0,0
-46.0,203.0,-170.0,577.0,-444.0,776.0,0
-57.0,215.0,-257.0,360.0,-253.0,728.0,0
-89.0,211.0,-344.0,169.0,-14.0,637.0,0
-127.0,176.0,-387.0,-17.0,216.0,525.0,0
-129.0,99.0,-354.0,-204.0,409.0,419.0,0
-42.0,-16.0,-262.0,-285.0,541.0,352.0,0
48.0,-130.0,-200.0,-208.0,606.0,322.0,0
102.0,-295.0,-75.0,-154.0,691.0,202.0,0
155.0,-474.0,107.0,-179.0,724.0,-37.0,0
238.0,-666.0,222.0,-233.0,585.0,-331.0,0
287.0,-832.0,266.0,-288.0,360.0,-597.0,0
279.0,-904.0,285.0,-302.0,205.0,-724.0,0
139.0,-960.0,230.0,-210.0,268.0,-603.0,0
-147.0,-946.0,105.0,-186.0,514.0,-324.0,0
-423.0,-895.0,-7.0,-394.0,612.0,76.0,0
-447.0,-844.0,-19.0,-759.0,241.0,685.0,0
-399.0,-795.0,11.0,-978.0,-424.0,1191.0,0
-367.0,-715.0,71.0,-885.0,-866.0,1404.0,0
-343.0,-642.0,131.0,-689.0,-918.0,1509.0,0
-302.0,-572.0,111.0,-480.0,-940.0,1612.0,0
-265.0,-513.0,60.0,-240.0,-1166.0,1699.0,0
-204.0,-444.0,-15.0,88.0,-1469.0,1710.0,0
-143.0,-387.0,-40.0,476.0,-1662.0,1564.0,0
-98.0,-344.0,-41.0,786.0,-1685.0,1312.0,0
-65.0,-303.0,-44.0,816.0,-1563.0,1003.0,0
-58.0,-267.0,-18.0,574.0,-1422.0,677.0,0
-59.0,-248.0,7.0,294.0,-1485.0,371.0,0
-53.0,-227.0,-3.0,114.0,-1670.0,112.0,0
-40.0,-224.0,-54.0,-17.0,-1795.0,-60.0,0
-39.0,-237.0,-86.0,-147.0,-1752.0,-163.0,0
-33.0,-258.0,-81.0,-292.0,-1609.0,-280.0,0
-75.0,-258.0,-45.0,-341.0,-1489.0,-419.0,0
-106.0,-247.0,-30.0,-246.0,-1452.0,-527.0,0
-119.0,-215.0,-48.0,-106.0,-1479.0,-611.0,0
-124.0,-180.0,-45.0,-32.0,-1539.0,-716.0,0
-126.0,-149.0,-45.0,-25.0,-1646.0,-867.0,0
-135.0,-107.0,-46.0,-34.0,-1779.0,-1025.0,0
-124.0,-69.0,-53.0,-36.0,-1888.0,-1170.0,0
-116.0,-39.0,-57.0,-16.0,-1944.0,-1299.0,0
-101.0,-3.0,-54.0,4.0,-1931.0,-1419.0,0
-94.0,16.0,-59.0,25.0,-1843.0,-1507.0,0
-82.0,37.0,-63.0,21.0,-1682.0,-1545.0,0
-69.0,58.0,-65.0,9.0,-1481.0,-1540.0,0
-59.0,70.0,-71.0,1.0,-1277.0,-1497.0,0
-43.0,74.0,-63.0,-15.0,-1099.0,-1438.0,0
-33.0,78.0,-56.0,-35.0,-974.0,-1384.0,0
-8.0,77.0,-44.0,-76.0,-915.0,-1336.0,0
10.0,74.0,-17.0,-110.0,-918.0,-1299.0,0
35.0,59.0,3.0,-98.0,-959.0,-1254.0,0
45.0,52.0,21.0,-53.0,-998.0,-1208.0,0
55.0,33.0,38.0,26.0,-1021.0,-1168.0,0
61.0,14.0,55.0,111.0,-1032.0,-1137.0,0
62.0,10.0,60.0,214.0,-1072.0,-1114.0,0
62.0,19.0,49.0,327.0,-1153.0,-1067.0,0
66.0,26.0,23.0,415.0,-1269.0,-993.0,0
67.0,41.0,-12.0,448.0,-1400.0,-904.0,0
62.0,53.0,-60.0,403.0,-1526.0,-809.0,0
51.0,59.0,-115.0,285.0,-1608.0,-716.0,0
31.0,59.0,-155.0,112.0,-1624.0,-627.0,0
17.0,52.0,-183.0,-78.0,-1586.0,-553.0,0
-4.0,36.0,-195.0,-262.0,-1535.0,-502.0,0
-17.0,10.0,-207.0,-414.0,-1464.0,-470.0,0
-41.0,-29.0,-203.0,-523.0,-1366.0,-463.0,0
-59.0,-73.0,-197.0,-618.0,-1235.0,-464.0,0
-70.0,-114.0,-195.0,-715.0,-1072.0,-448.0,0
-105.0,-159.0,-195.0,-849.0,-899.0,-431.0,0
-142.0,-210.0,-206.0,-1008.0,-781.0,-383.0,0
-178.0,-270.0,-251.0,-1197.0,-798.0,-278.0,0
-207.0,-327.0,-271.0,-1420.0,-983.0,-157.0,0
-244.0,-425.0,-266.0,-1631.0,-1321.0,-25.0,0
-257.0,-543.0,-209.0,-1753.0,-1726.0,126.0,0
-233.0,-661.0,-127.0,-1735.0,-2095.0,276.0,0
-165.0,-755.0,-64.0,-1553.0,-2362.0,346.0,0
-102.0,-801.0,-59.0,-1185.0,-2514.0,254.0,0
-25.0,-811.0,-78.0,-726.0,-2574.0,5.0,0
43.0,-776.0,-113.0,-253.0,-2569.0,-316.0,0
74.0,-708.0,-145.0,205.0,-2524.0,-642.0,0
102.0,-639.0,-150.0,620.0,-2465.0,-925.0,0
100.0,-574.0,-149.0,986.0,-2415.0,-1136.0,0
93.0,-485.0,-123.0,1293.0,-2368.0,-1283.0,0
82.0,-393.0,-105.0,1539.0,-2316.0,-1371.0,0
65.0,-295.0,-92.0,1685.0,-2256.0,-1407.0,0
42.0,-205.0,-80.0,1700.0,-2204.0,-1397.0,0
23.0,-145.0,-75.0,1604.0,-2161.0,-1356.0,0
-5.0,-77.0,-75.0,1444.0,-2137.0,-1310.0,0
-41.0,-28.0,-82.0,1266.0,-2161.0,-1272.0,0
-70.0,-2.0,-98.0,1067.0,-2261.0,-1236.0,0
-77.0,0.0,-109.0,809.0,-2447.0,-1183.0,0
-83.0,-16.0,-118.0,493.0,-2692.0,-1085.0,0
-72.0,-69.0,-121.0,133.0,-2942.0,-973.0,0
-59.0,-135.0,-118.0,-214.0,-3162.0,-851.0,0
-38.0,-206.0,-106.0,-475.0,-3351.0,-753.0,0
-25.0,-257.0,-96.0,-605.0,-3435.0,-702.0,0
-8.0,-315.0,-79.0,-588.0,-3463.0,-678.0,0
-5.0,-344.0,-74.0,-448.0,-3451.0,-666.0,0
-4.0,-370.0,-69.0,-197.0,-3428.0,-651.0,0
-3.0,-366.0,-67.0,28.0,-3424.0,-642.0,0
-7.0,-356.0,-61.0,241.0,-3449.0,-638.0,0
-12.0,-336.0,-63.0,427.0,-3491.0,-635.0,0
-17.0,-307.0,-64.0,574.0,-3539.0,-636.0,0
-30.0,-274.0,-68.0,672.0,-3588.0,-642.0,0
-36.0,-241.0,-62.0,717.0,-3634.0,-650.0,0
-38.0,-222.0,-66.0,721.0,-3673.0,-665.0,0
-44.0,-188.0,-67.0,696.0,-3697.0,-678.0,0
-44.0,-171.0,-70.0,656.0,-3708.0,-686.0,0
-46.0,-150.0,-70.0,608.0,-3717.0,-686.0,0
-44.0,-138.0,-71.0,557.0,-3723.0,-678.0,0
-41.0,-128.0,-72.0,507.0,-3731.0,-666.0,0
-38.0,-120.0,-69.0,464.0,-3739.0,-647.0,0
-26.0,-114.0,-71.0,430.0,-3748.0,-624.0,0
-15.0,-115.0,-71.0,403.0,-3753.0,-597.0,0
-8.0,-112.0,-71.0,377.0,-3752.0,-569.0,0
0.0,-116.0,-63.0,353.0,-3753.0,-541.0,0
2.0,-116.0,-67.0,326.0,-3759.0,-513.0,0
4.0,-114.0,-60.0,306.0,-3766.0,-480.0,0
6.0,-116.0,-56.0,294.0,-3773.0,-441.0,0
9.0,-121.0,-53.0,292.0,-3777.0,-397.0,0
5.0,-123.0,-48.0,300.0,-3782.0,-355.0,0
2.0,-124.0,-47.0,310.0,-3786.0,-316.0,0
6.0,-129.0,-38.0,310.0,-3789.0,-279.0,0
6.0,-131.0,-34.0,304.0,-3791.0,-242.0,0
1.0,-132.0,-33.0,300.0,-3785.0,-209.0,0
-1.0,-131.0,-29.0,294.0,-3772.0,-180.0,0
-2.0,-135.0,-24.0,290.0,-3755.0,-151.0,0
-4.0,-135.0,-26.0,291.0,-3741.0,-120.0,0
-14.0,-143.0,-21.0,287.0,-3738.0,-87.0,0
-23.0,-145.0,-21.0,276.0,-3748.0,-50.0,0
-30.0,-150.0,-27.0,270.0,-3752.0,9.0,0
-35.0,-161.0,-39.0,272.0,-3733.0,91.0,0
-45.0,-177.0,-46.0,282.0,-3686.0,179.0,0
-53.0,-186.0,-48.0,293.0,-3616.0,268.0,0
-45.0,-201.0,-59.0,302.0,-3535.0,371.0,0
-25.0,-215.0,-72.0,308.0,-3456.0,475.0,0
-10.0,-225.0,-85.0,315.0,-3370.0,565.0,0
-2.0,-238.0,-101.0,322.0,-3274.0,648.0,0
9.0,-237.0,-100.0,319.0,-3183.0,734.0,0
34.0,-245.0,-123.0,337.0,-3121.0,809.0,0
80.0,-247.0,-160.0,339.0,-3076.0,868.0,0
123.0,-246.0,-190.0,295.0,-3029.0,897.0,0
156.0,-253.0,-226.0,167.0,-2960.0,896.0,0
166.0,-261.0,-224.0,-88.0,-2872.0,864.0,0
156.0,-274.0,-203.0,-380.0,-2793.0,802.0,0
137.0,-300.0,-170.0,-625.0,-2753.0,707.0,0
112.0,-326.0,-130.0,-813.0,-2759.0,584.0,0
90.0,-349.0,-98.0,-936.0,-2805.0,450.0,0
71.0,-367.0,-78.0,-981.0,-2866.0,321.0,0
43.0,-386.0,-54.0,-949.0,-2909.0,194.0,0
24.0,-389.0,-41.0,-857.0,-2895.0,62.0,0
27.0,-382.0,-27.0,-715.0,-2815.0,-64.0,0
44.0,-357.0,-25.0,-520.0,-2667.0,-183.0,0
57.0,-338.0,-40.0,-278.0,-2466.0,-291.0,0
80.0,-308.0,-52.0,-51.0,-2229.0,-390.0,0
91.0,-275.0,-64.0,114.0,-1974.0,-480.0,0
81.0,-250.0,-57.0,197.0,-1726.0,-566.0,0
59.0,-237.0,-44.0,218.0,-1536.0,-628.0,0
21.0,-227.0,-21.0,215.0,-1450.0,-666.0,0
-4.0,-219.0,5.0,211.0,-1477.0,-674.0,0
-27.0,-226.0,11.0,230.0,-1566.0,-644.0,0
-46.0,-232.0,11.0,244.0,-1656.0,-602.0,0
-61.0,-244.0,0.0,235.0,-1715.0,-564.0,0
-76.0,-257.0,-17.0,196.0,-1751.0,-536.0,0
-95.0,-273.0,-16.0,146.0,-1774.0,-499.0,0
-108.0,-293.0,-7.0,131.0,-1811.0,-459.0,0
-109.0,-305.0,4.0,207.0,-1875.0,-404.0,0
-107.0,-310.0,8.0,335.0,-1956.0,-348.0,0
-104.0,-309.0,8.0,488.0,-2040.0,-302.0,0
-108.0,-298.0,7.0,616.0,-2121.0,-268.0,0
-116.0,-289.0,8.0,701.0,-2209.0,-241.0,0
-125.0,-277.0,9.0,745.0,-2314.0,-212.0,0
-132.0,-265.0,4.0,762.0,-2436.0,-179.0,0
-142.0,-248.0,-4.0,758.0,-2556.0,-140.0,0
-140.0,-236.0,-18.0,731.0,-2656.0,-102.0,0
-144.0,-222.0,-29.0,674.0,-2726.0,-63.0,0
-135.0,-214.0,-41.0,610.0,-2767.0,-25.0,0
-132.0,-209.0,-50.0,543.0,-2786.0,1.0,0
-122.0,-201.0,-50.0,485.0,-2787.0,10.0,0
-107.0,-196.0,-51.0,448.0,-2777.0,9.0,0
-90.0,-195.0,-50.0,424.0,-2758.0,-7.0,0
-77.0,-194.0,-52.0,407.0,-2729.0,-36.0,0
-62.0,-196.0,-50.0,389.0,-2688.0,-72.0,0
-50.0,-201.0,-53.0,359.0,-2631.0,-111.0,0
-39.0,-204.0,-49.0,322.0,-2562.0,-156.0,0
-27.0,-208.0,-38.0,294.0,-2491.0,-203.0,0
-16.0,-217.0,-47.0,274.0,-2421.0,-252.0,0
-6.0,-220.0,-49.0,261.0,-2353.0,-291.0,0
-1.0,-220.0,-52.0,251.0,-2284.0,-319.0,0
13.0,-225.0,-53.0,243.0,-2214.0,-336.0,0
23.0,-228.0,-42.0,232.0,-2144.0,-344.0,0
31.0,-236.0,-43.0,213.0,-2071.0,-340.0,0
35.0,-241.0,-37.0,187.0,-1993.0,-326.0,0
33.0,-250.0,-26.0,154.0,-1908.0,-311.0,0
29.0,-257.0,-25.0,130.0,-1828.0,-289.0,0
21.0,-264.0,-14.0,117.0,-1756.0,-268.0,0
11.0,-273.0,-15.0,123.0,-1693.0,-250.0,0
-3.0,-276.0,-4.0,150.0,-1637.0,-230.0,0
-15.0,-279.0,-6.0,198.0,-1589.0,-214.0,0
-22.0,-277.0,0.0,252.0,-1547.0,-204.0,0
-27.0,-273.0,5.0,304.0,-1500.0,-197.0,0
-30.0,-269.0,1.0,352.0,-1451.0,-192.0,0
-26.0,-266.0,-1.0,384.0,-1397.0,-184.0,0
-29.0,-258.0,-2.0,402.0,-1343.0,-175.0,0
-30.0,-259.0,-1.0,407.0,-1293.0,-169.0,0
-33.0,-259.0,0.0,407.0,-1245.0,-161.0,0
-27.0,-261.0,2.0,405.0,-1204.0,-152.0,0
-30.0,-266.0,6.0,411.0,-1167.0,-147.0,0
-32.0,-270.0,4.0,425.0,-1130.0,-139.0,0
-31.0,-269.0,8.0,452.0,-1094.0,-131.0,0
-29.0,-268.0,6.0,482.0,-1055.0,-119.0,0
-27.0,-266.0,3.0,512.0,-1008.0,-103.0,0
-26.0,-265.0,0.0,537.0,-957.0,-83.0,0
-23.0,-259.0,3.0,549.0,-908.0,-63.0,0
-21.0,-248.0,0.0,549.0,-859.0,-46.0,0
-19.0,-248.0,3.0,543.0,-806.0,-33.0,0
-20.0,-238.0,2.0,528.0,-755.0,-26.0,0
-21.0,-232.0,8.0,504.0,-707.0,-25.0,0
-18.0,-221.0,3.0,474.0,-664.0,-29.0,0
-18.0,-216.0,6.0,439.0,-625.0,-40.0,0
-20.0,-211.0,7.0,395.0,-581.0,-53.0,0
-23.0,-209.0,9.0,348.0,-538.0,-66.0,0
-26.0,-208.0,12.0,301.0,-487.0,-81.0,0
-30.0,-211.0,16.0,252.0,-432.0,-95.0,0
-31.0,-210.0,12.0,203.0,-377.0,-117.0,0
-37.0,-214.0,13.0,156.0,-324.0,-138.0,0
-41.0,-220.0,15.0,115.0,-278.0,-156.0,0
-44.0,-224.0,18.0,83.0,-237.0,-174.0,0
-37.0,-226.0,18.0,74.0,-207.0,-189.0,0
-54.0,-232.0,25.0,84.0,-189.0,-203.0,0
-55.0,-240.0,20.0,106.0,-177.0,-218.0,0
-61.0,-237.0,25.0,138.0,-172.0,-229.0,0
-59.0,-241.0,26.0,167.0,-167.0,-234.0,0
-60.0,-246.0,26.0,183.0,-155.0,-231.0,0
-58.0,-252.0,22.0,183.0,-139.0,-220.0,0
-53.0,-256.0,16.0,161.0,-124.0,-204.0,0
-51.0,-259.0,10.0,135.0,-106.0,-181.0,0
-50.0,-267.0,6.0,110.0,-94.0,-154.0,0
-46.0,-269.0,7.0,98.0,-91.0,-125.0,0
-53.0,-278.0,-11.0,90.0,-101.0,-99.0,0
-62.0,-277.0,-18.0,87.0,-137.0,-70.0,0
-52.0,-277.0,-24.0,86.0,-203.0,-37.0,0
-61.0,-273.0,-25.0,90.0,-258.0,1.0,0
-62.0,-273.0,-26.0,106.0,-312.0,43.0,0
-61.0,-267.0,-29.0,123.0,-363.0,76.0,0
-66.0,-260.0,-26.0,143.0,-411.0,99.0,0
-63.0,-255.0,-22.0,157.0,-452.0,116.0,0
-61.0,-246.0,-26.0,161.0,-489.0,127.0,0
-63.0,-243.0,-24.0,154.0,-521.0,134.0,0
-55.0,-239.0,-18.0,139.0,-547.0,140.0,0
-49.0,-245.0,-19.0,123.0,-564.0,138.0,0
-37.0,-246.0,-12.0,111.0,-567.0,136.0,0
-25.0,-246.0,-14.0,108.0,-556.0,132.0,0
-23.0,-250.0,-12.0,114.0,-531.0,123.0,0
-10.0,-252.0,-14.0,127.0,-493.0,110.0,0
-6.0,-249.0,-14.0,145.0,-455.0,89.0,0
-5.0,-250.0,-12.0,164.0,-411.0,66.0,0
-5.0,-248.0,-14.0,178.0,-364.0,42.0,0
-4.0,-248.0,-17.0,187.0,-314.0,14.0,0
-2.0,-246.0,-17.0,192.0,-267.0,-11.0,0
0.0,-244.0,-14.0,193.0,-222.0,-38.0,0
2.0,-243.0,-18.0,190.0,-178.0,-60.0,0
1.0,-240.0,-17.0,179.0,-135.0,-78.0,0
1.0,-244.0,-13.0,163.0,-95.0,-90.0,0
2.0,-245.0,-15.0,152.0,-64.0,-95.0,0
2.0,-243.0,-14.0,157.0,-39.0,-97.0,0
4.0,-241.0,-21.0,174.0,-27.0,-99.0,0
3.0,-238.0,-22.0,191.0,-15.0,-96.0,0
6.0,-234.0,-27.0,201.0,4.0,-92.0,0
3.0,-234.0,-20.0,202.0,20.0,-92.0,0
3.0,-227.0,-21.0,199.0,26.0,-89.0,0
4.0,-228.0,-11.0,195.0,23.0,-79.0,0
4.0,-225.0,-16.0,185.0,13.0,-63.0,0
1.0,-227.0,-16.0,170.0,-3.0,-44.0,0
-1.0,-226.0,-14.0,145.0,-23.0,-22.0,0
-4.0,-228.0,-10.0,110.0,-44.0,1.0,0
-12.0,-233.0,-12.0,72.0,-67.0,25.0,0
-9.0,-238.0,-7.0,36.0,-91.0,46.0,0
-13.0,-246.0,-5.0,6.0,-114.0,62.0,0
-11.0,-256.0,-8.0,-20.0,-132.0,75.0,0
-13.0,-266.0,-6.0,-38.0,-144.0,79.0,0
-8.0,-271.0,-10.0,-48.0,-153.0,79.0,0
-2.0,-276.0,-10.0,-47.0,-160.0,69.0,0
3.0,-281.0,-13.0,-41.0,-166.0,56.0,0
7.0,-286.0,-15.0,-32.0,-171.0,37.0,0
14.0,-288.0,-15.0,-21.0,-180.0,12.0,0
16.0,-284.0,-15.0,-5.0,-187.0,-17.0,0
25.0,-281.0,-8.0,10.0,-193.0,-47.0,0
29.0,-277.0,-13.0,22.0,-192.0,-80.0,0
31.0,-275.0,-14.0,22.0,-183.0,-112.0,0
27.0,-272.0,-17.0,13.0,-167.0,-147.0,0
24.0,-272.0,-14.0,-2.0,-148.0,-181.0,0
22.0,-271.0,-8.0,-13.0,-130.0,-210.0,0
20.0,-270.0,-5.0,-14.0,-120.0,-238.0,0
14.0,-269.0,5.0,-8.0,-118.0,-260.0,0
14.0,-264.0,9.0,3.0,-119.0,-276.0,0
15.0,-268.0,10.0,20.0,-126.0,-289.0,0
11.0,-264.0,13.0,44.0,-138.0,-298.0,0
10.0,-266.0,13.0,67.0,-156.0,-302.0,0
10.0,-265.0,13.0,80.0,-176.0,-300.0,0
3.0,-266.0,13.0,87.0,-197.0,-298.0,0
5.0,-265.0,17.0,89.0,-227.0,-298.0,0
3.0,-262.0,14.0,91.0,-250.0,-294.0,0
5.0,-262.0,9.0,104.0,-276.0,-291.0,0
8.0,-264.0,8.0,97.0,-301.0,-294.0,0
14.0,-264.0,6.0,78.0,-313.0,-304.0,0
13.0,-264.0,10.0,74.0,-315.0,-312.0,0
18.0,-263.0,11.0,95.0,-316.0,-321.0,0
19.0,-259.0,12.0,134.0,-320.0,-324.0,0
29.0,-254.0,8.0,171.0,-324.0,-320.0,0
31.0,-253.0,8.0,196.0,-323.0,-318.0,0
33.0,-253.0,8.0,205.0,-319.0,-324.0,0
34.0,-258.0,8.0,199.0,-309.0,-331.0,0
35.0,-255.0,15.0,189.0,-300.0,-342.0,0
46.0,-254.0,21.0,191.0,-288.0,-350.0,0
44.0,-254.0,22.0,212.0,-276.0,-351.0,0
46.0,-249.0,23.0,236.0,-262.0,-351.0,0
44.0,-246.0,21.0,258.0,-246.0,-345.0,0
40.0,-241.0,26.0,273.0,-232.0,-339.0,0
40.0,-235.0,26.0,284.0,-219.0,-324.0,0
37.0,-234.0,27.0,290.0,-206.0,-297.0,0
33.0,-230.0,26.0,297.0,-194.0,-268.0,0
30.0,-223.0,27.0,303.0,-182.0,-231.0,0
25.0,-215.0,25.0,310.0,-172.0,-187.0,0
28.0,-201.0,16.0,313.0,-160.0,-138.0,0
28.0,-203.0,20.0,311.0,-147.0,-82.0,0
29.0,-202.0,16.0,304.0,-131.0,-26.0,0
29.0,-198.0,18.0,288.0,-109.0,31.0,0
34.0,-197.0,20.0,261.0,-84.0,84.0,0
39.0,-202.0,16.0,220.0,-78.0,139.0,0
41.0,-204.0,6.0,166.0,-95.0,190.0,0
38.0,-215.0,-17.0,84.0,-116.0,223.0,0
21.0,-238.0,-53.0,-44.0,-109.0,233.0,0
-3.0,-273.0,-60.0,-217.0,-71.0,207.0,0
-21.0,-308.0,-47.0,-376.0,-24.0,148.0,0
-34.0,-343.0,-18.0,-431.0,4.0,79.0,0
-20.0,-362.0,7.0,-340.0,16.0,23.0,0
6.0,-360.0,19.0,-143.0,36.0,-25.0,0
23.0,-335.0,15.0,87.0,82.0,-74.0,0
28.0,-316.0,9.0,281.0,135.0,-125.0,0
29.0,-281.0,5.0,394.0,174.0,-161.0,0
24.0,-257.0,3.0,417.0,190.0,-181.0,0
14.0,-233.0,4.0,378.0,189.0,-190.0,0
6.0,-227.0,-1.0,316.0,180.0,-189.0,0
0.0,-225.0,3.0,248.0,173.0,-186.0,0
-3.0,-230.0,4.0,186.0,169.0,-181.0,0
-2.0,-235.0,0.0,133.0,169.0,-184.0,0
-4.0,-241.0,6.0,91.0,171.0,-192.0,0
0.0,-247.0,8.0,58.0,173.0,-202.0,0
0.0,-247.0,8.0,43.0,177.0,-203.0,0
6.0,-244.0,10.0,58.0,177.0,-194.0,0
20.0,-235.0,6.0,106.0,177.0,-171.0,0
36.0,-229.0,-8.0,163.0,177.0,-139.0,0
47.0,-224.0,-15.0,193.0,180.0,-107.0,0
49.0,-227.0,-15.0,186.0,184.0,-94.0,0
49.0,-240.0,-16.0,147.0,188.0,-97.0,0
40.0,-249.0,-8.0,98.0,199.0,-115.0,0
29.0,-255.0,6.0,69.0,217.0,-136.0,0
15.0,-261.0,14.0,82.0,230.0,-147.0,0
-11.0,-261.0,24.0,129.0,225.0,-150.0,0
-31.0,-258.0,24.0,185.0,205.0,-145.0,0
-47.0,-249.0,24.0,224.0,176.0,-130.0,0
-59.0,-235.0,24.0,232.0,149.0,-107.0,0
-62.0,-229.0,16.0,210.0,122.0,-75.0,0
-66.0,-222.0,13.0,164.0,99.0,-40.0,0
-64.0,-222.0,8.0,99.0,86.0,-6.0,0
-63.0,-221.0,-3.0,24.0,80.0,20.0,0
-59.0,-224.0,-14.0,-51.0,80.0,40.0,0
-55.0,-224.0,-22.0,-116.0,77.0,44.0,0
-48.0,-231.0,-26.0,-173.0,69.0,36.0,0
-38.0,-241.0,-16.0,-210.0,59.0,25.0,0
-28.0,-250.0,0.0,-219.0,51.0,6.0,0
-21.0,-257.0,11.0,-193.0,36.0,-14.0,0
-14.0,-264.0,13.0,-148.0,17.0,-30.0,0
-11.0,-264.0,14.0,-86.0,-2.0,-45.0,0
-11.0,-268.0,13.0,-47.0,-17.0,-54.0,0
-13.0,-265.0,5.0,-16.0,-26.0,-55.0,0
-11.0,-262.0,-2.0,6.0,-32.0,-50.0,0
-21.0,-257.0,-10.0,24.0,-38.0,-38.0,0
-18.0,-256.0,-8.0,34.0,-50.0,-23.0,0
-13.0,-256.0,-11.0,40.0,-64.0,-7.0,0
-15.0,-253.0,-13.0,39.0,-77.0,11.0,0
-11.0,-249.0,-11.0,34.0,-87.0,29.0,0
-3.0,-250.0,-11.0,24.0,-93.0,45.0,0
1.0,-249.0,-4.0,10.0,-97.0,53.0,0
6.0,-249.0,-4.0,-6.0,-101.0,54.0,0
3.0,-251.0,-3.0,-20.0,-107.0,46.0,0
1.0,-249.0,1.0,-28.0,-114.0,36.0,0
-1.0,-250.0,8.0,-26.0,-121.0,23.0,0
-4.0,-254.0,5.0,-20.0,-121.0,12.0,0
-11.0,-252.0,8.0,-6.0,-117.0,3.0,0
-9.0,-254.0,6.0,10.0,-112.0,-4.0,0
-11.0,-252.0,8.0,21.0,-99.0,-4.0,0
-12.0,-254.0,8.0,28.0,-87.0,-1.0,0
-16.0,-250.0,6.0,28.0,-74.0,5.0,0
-13.0,-251.0,8.0,20.0,-60.0,11.0,0
-13.0,-251.0,8.0,7.0,-48.0,16.0,0
-9.0,-254.0,10.0,-7.0,-38.0,21.0,0
-12.0,-258.0,12.0,-19.0,-32.0,26.0,0
-10.0,-255.0,15.0,-24.0,-29.0,31.0,0
-12.0,-258.0,31.0,-20.0,-30.0,30.0,0
-13.0,-259.0,13.0,-4.0,-34.0,31.0,0
-9.0,-253.0,18.0,16.0,-36.0,28.0,0
-6.0,-256.0,14.0,38.0,-41.0,26.0,0
-6.0,-252.0,17.0,56.0,-40.0,23.0,0
-4.0,-253.0,15.0,69.0,-37.0,20.0,0
-4.0,-252.0,16.0,75.0,-32.0,15.0,0
-4.0,-250.0,13.0,74.0,-23.0,10.0,0
-2.0,-253.0,16.0,72.0,-15.0,3.0,0
1.0,-253.0,13.0,65.0,-9.0,-4.0,0
-1.0,-253.0,2.0,59.0,-7.0,-9.0,0
-2.0,-252.0,15.0,54.0,-4.0,-14.0,0
-2.0,-255.0,15.0,49.0,-3.0,-17.0,0
-4.0,-254.0,13.0,45.0,-6.0,-21.0,0
-5.0,-255.0,12.0,41.0,-7.0,-22.0,0
-5.0,-255.0,9.0,39.0,-9.0,-21.0,0
-6.0,-249.0,10.0,36.0,-9.0,-19.0,0
-6.0,-248.0,9.0,32.0,-8.0,-16.0,0
-4.0,-247.0,7.0,29.0,-7.0,-13.0,0
-7.0,-244.0,1.0,24.0,-3.0,-11.0,0
-4.0,-246.0,-2.0,19.0,2.0,-7.0,0
-2.0,-244.0,4.0,14.0,7.0,-4.0,0
-4.0,-243.0,6.0,7.0,9.0,1.0,0
-2.0,-246.0,7.0,2.0,9.0,1.0,0
-1.0,-249.0,6.0,2.0,10.0,2.0,0
1.0,-252.0,9.0,4.0,10.0,2.0,0
-1.0,-253.0,10.0,7.0,10.0,0.0,0
-2.0,-253.0,9.0,11.0,9.0,-2.0,0
-3.0,-258.0,17.0,12.0,3.0,-3.0,0
-2.0,-256.0,10.0,13.0,-1.0,-1.0,0
-1.0,-256.0,12.0,13.0,-7.0,-3.0,0
-1.0,-253.0,11.0,12.0,-7.0,-1.0,0
-4.0,-255.0,13.0,13.0,-7.0,0.0,0
-4.0,-254.0,11.0,14.0,-6.0,1.0,0
-4.0,-254.0,9.0,14.0,-9.0,1.0,0
-4.0,-256.0,9.0,14.0,-14.0,3.0,0
-4.0,-254.0,11.0,12.0,-17.0,1.0,0
-4.0,-257.0,7.0,12.0,-22.0,0.0,0
-3.0,-256.0,8.0,12.0,-25.0,-1.0,0
-3.0,-256.0,0.0,16.0,-27.0,1.0,0
0.0,-252.0,1.0,19.0,-27.0,4.0,0
-1.0,-256.0,0.0,20.0,-26.0,6.0,0
-1.0,-251.0,0.0,19.0,-24.0,10.0,0
2.0,-254.0,-2.0,19.0,-22.0,11.0,0
1.0,-254.0,-2.0,15.0,-22.0,14.0,0
-1.0,-249.0,-2.0,11.0,-22.0,13.0,0
-1.0,-252.0,-7.0,3.0,-23.0,13.0,0
-1.0,-255.0,-5.0,-2.0,-24.0,10.0,0
-2.0,-255.0,-12.0,-5.0,-23.0,10.0,0
2.0,-255.0,-5.0,-7.0,-21.0,7.0,0
-1.0,-257.0,-2.0,-8.0,-19.0,5.0,0
0.0,-255.0,-2.0,-4.0,-16.0,6.0,0
2.0,-259.0,-2.0,3.0,-14.0,7.0,0
0.0,-253.0,2.0,12.0,-8.0,11.0,0
4.0,-256.0,-3.0,20.0,0.0,13.0,0
2.0,-256.0,-4.0,26.0,10.0,17.0,0
4.0,-256.0,-3.0,30.0,21.0,21.0,0
4.0,-253.0,-2.0,35.0,33.0,27.0,0
0.0,-252.0,-5.0,39.0,44.0,29.0,0
1.0,-254.0,-8.0,43.0,56.0,31.0,0
-1.0,-257.0,-7.0,49.0,67.0,31.0,0
-2.0,-260.0,-3.0,58.0,76.0,28.0,0
-2.0,-263.0,0.0,67.0,82.0,21.0,0
-3.0,-260.0,1.0,75.0,89.0,9.0,0
-3.0,-260.0,5.0,90.0,94.0,1.0,0
-3.0,-256.0,8.0,110.0,101.0,-3.0,0
-4.0,-254.0,8.0,128.0,109.0,-7.0,0
-5.0,-252.0,7.0,136.0,118.0,-10.0,0
-4.0,-251.0,6.0,140.0,128.0,-13.0,0
-4.0,-249.0,4.0,147.0,138.0,-16.0,0
-7.0,-249.0,-4.0,156.0,137.0,-20.0,0
-7.0,-249.0,-20.0,164.0,128.0,-22.0,0
-13.0,-248.0,-18.0,163.0,123.0,-24.0,0
-23.0,-232.0,6.0,159.0,126.0,-26.0,0
8.0,-255.0,20.0,163.0,129.0,-27.0,0
-14.0,-255.0,16.0,174.0,127.0,-27.0,0
-13.0,-261.0,12.0,183.0,123.0,-25.0,0
-12.0,-255.0,-7.0,188.0,118.0,-21.0,0
8.0,-239.0,9.0,185.0,111.0,-19.0,0
-5.0,-242.0,3.0,176.0,104.0,-17.0,0
-10.0,-244.0,2.0,165.0,99.0,-16.0,0
-1.0,-254.0,5.0,154.0,94.0,-14.0,0
1.0,-253.0,-3.0,141.0,89.0,-11.0,0
-9.0,-230.0,-2.0,127.0,84.0,-10.0,0
-5.0,-250.0,5.0,111.0,77.0,-7.0,0
-9.0,-248.0,6.0,97.0,72.0,-5.0,0
-11.0,-247.0,5.0,83.0,66.0,-3.0,0
-14.0,-249.0,-1.0,71.0,60.0,-5.0,0
-7.0,-252.0,-1.0,66.0,51.0,-4.0,0
-10.0,-250.0,1.0,62.0,42.0,-4.0,0
-12.0,-252.0,2.0,63.0,33.0,-4.0,0
-10.0,-250.0,5.0,62.0,24.0,-6.0,0
-10.0,-249.0,4.0,60.0,14.0,-8.0,0
-9.0,-250.0,5.0,55.0,4.0,-8.0,0
-11.0,-248.0,0.0,46.0,-5.0,-8.0,0
-8.0,-250.0,-2.0,38.0,-15.0,-11.0,0
-7.0,-245.0,5.0,30.0,-24.0,-8.0,0
-10.0,-252.0,1.0,27.0,-28.0,-8.0,0
-10.0,-252.0,1.0,25.0,-34.0,-5.0,0
-6.0,-250.0,3.0,25.0,-41.0,-6.0,0
-7.0,-252.0,5.0,24.0,-50.0,-4.0,0
-5.0,-254.0,4.0,23.0,-61.0,-5.0,0
-8.0,-250.0,4.0,25.0,-70.0,-5.0,0
-5.0,-250.0,5.0,26.0,-78.0,-4.0,0
-7.0,-252.0,3.0,27.0,-84.0,-6.0,0
-6.0,-251.0,3.0,27.0,-89.0,-5.0,0
-6.0,-250.0,5.0,22.0,-94.0,-6.0,0
-5.0,-247.0,3.0,15.0,-97.0,-4.0,0
-4.0,-248.0,2.0,9.0,-100.0,-5.0,0
-4.0,-250.0,2.0,-1.0,-103.0,-3.0,0
-8.0,-249.0,3.0,-10.0,-107.0,-4.0,0
-3.0,-250.0,1.0,-16.0,-109.0,-2.0,0
-4.0,-249.0,4.0,-23.0,-114.0,-2.0,0
-3.0,-250.0,1.0,-27.0,-115.0,-3.0,0
-3.0,-252.0,4.0,-31.0,-118.0,-5.0,0
-3.0,-251.0,1.0,-36.0,-118.0,-4.0,0
-4.0,-251.0,-1.0,-38.0,-118.0,-4.0,0
4.0,-253.0,3.0,-39.0,-115.0,-4.0,0
0.0,-251.0,-3.0,-38.0,-112.0,-3.0,0
4.0,-252.0,-1.0,-39.0,-110.0,-3.0,0
2.0,-253.0,-1.0,-40.0,-106.0,-3.0,0
1.0,-250.0,-1.0,-41.0,-102.0,-3.0,0
1.0,-253.0,-1.0,-41.0,-95.0,-3.0,0
1.0,-255.0,-1.0,-41.0,-90.0,-3.0,0
1.0,-252.0,-2.0,-39.0,-86.0,-2.0,0
1.0,-254.0,-2.0,-37.0,-80.0,-4.0,0
1.0,-251.0,4.0,-32.0,-75.0,-6.0,0
1.0,-255.0,-1.0,-27.0,-70.0,-4.0,0
-1.0,-255.0,-1.0,-21.0,-64.0,-6.0,0
3.0,-258.0,-2.0,-17.0,-61.0,-4.0,0
-1.0,-253.0,-2.0,-13.0,-57.0,-3.0,0
1.0,-253.0,1.0,-8.0,-54.0,-3.0,0
0.0,-256.0,4.0,-6.0,-51.0,-4.0,0
3.0,-253.0,1.0,-3.0,-47.0,-4.0,0
1.0,-250.0,5.0,-3.0,-44.0,-3.0,0
2.0,-255.0,5.0,-2.0,-41.0,-3.0,0
1.0,-255.0,5.0,1.0,-41.0,0.0,0
-1.0,-253.0,5.0,2.0,-41.0,2.0,0
-2.0,-254.0,5.0,6.0,-41.0,2.0,0
0.0,-252.0,3.0,10.0,-39.0,2.0,0
-2.0,-252.0,2.0,11.0,-38.0,3.0,0
-1.0,-252.0,0.0,11.0,-35.0,6.0,0
2.0,-250.0,3.0,6.0,-32.0,4.0,0
-1.0,-249.0,9.0,3.0,-30.0,7.0,0
6.0,-256.0,4.0,2.0,-27.0,7.0,0
0.0,-255.0,10.0,2.0,-26.0,4.0,0
-1.0,-257.0,3.0,3.0,-26.0,1.0,0
2.0,-256.0,6.0,5.0,-28.0,-1.0,0
-2.0,-257.0,8.0,6.0,-26.0,-2.0,0
1.0,-250.0,-17.0,9.0,-29.0,-3.0,0
-2.0,-253.0,5.0,11.0,-28.0,-3.0,0
-2.0,-253.0,6.0,13.0,-28.0,-1.0,0
1.0,-253.0,1.0,14.0,-27.0,0.0,0
3.0,-254.0,5.0,12.0,-25.0,0.0,0
2.0,-253.0,3.0,14.0,-21.0,-1.0,0
3.0,-252.0,8.0,17.0,-15.0,-1.0,0
2.0,-252.0,8.0,19.0,-12.0,-2.0,0
2.0,-251.0,8.0,20.0,-9.0,-3.0,0
2.0,-256.0,6.0,20.0,-10.0,-4.0,0
0.0,-255.0,7.0,18.0,-11.0,-8.0,0
-2.0,-254.0,5.0,14.0,-13.0,-8.0,0
-1.0,-257.0,8.0,10.0,-14.0,-8.0,0
-1.0,-256.0,8.0,12.0,-12.0,-8.0,0
2.0,-257.0,4.0,17.0,-9.0,-9.0,0
-2.0,-252.0,5.0,23.0,-6.0,-10.0,0
-3.0,-252.0,5.0,28.0,-3.0,-11.0,0
2.0,-251.0,8.0,31.0,1.0,-11.0,0
1.0,-250.0,8.0,28.0,6.0,-12.0,0
1.0,-249.0,11.0,22.0,10.0,-12.0,0
-1.0,-246.0,10.0,10.0,12.0,-10.0,0
-3.0,-249.0,8.0,-1.0,13.0,-9.0,0
-1.0,-253.0,4.0,-5.0,14.0,-8.0,0
-2.0,-254.0,-4.0,-1.0,7.0,-8.0,0
-3.0,-253.0,-13.0,1.0,2.0,-9.0,0
0.0,-252.0,-4.0,0.0,5.0,-9.0,0
1.0,-256.0,8.0,3.0,13.0,-10.0,0
1.0,-253.0,7.0,15.0,21.0,-12.0,0
3.0,-255.0,10.0,31.0,24.0,-12.0,0
0.0,-249.0,9.0,41.0,26.0,-12.0,0
2.0,-253.0,10.0,42.0,26.0,-13.0,0
2.0,-253.0,4.0,34.0,26.0,-11.0,0
-1.0,-253.0,5.0,25.0,20.0,-7.0,0
0.0,-252.0,7.0,20.0,15.0,-4.0,0
-3.0,-251.0,4.0,19.0,11.0,-2.0,0
1.0,-253.0,2.0,18.0,10.0,-1.0,0
-2.0,-251.0,1.0,18.0,10.0,1.0,0
-1.0,-253.0,0.0,19.0,11.0,2.0,0
0.0,-254.0,-4.0,18.0,12.0,2.0,0
-1.0,-254.0,-4.0,18.0,14.0,2.0,0
2.0,-255.0,3.0,19.0,15.0,0.0,0
0.0,-251.0,3.0,20.0,17.0,-3.0,0
2.0,-254.0,0.0,21.0,20.0,-3.0,0
-1.0,-251.0,6.0,25.0,21.0,-3.0,0
2.0,-254.0,8.0,28.0,20.0,-5.0,0
1.0,-253.0,6.0,33.0,20.0,-8.0,0
0.0,-251.0,2.0,34.0,20.0,-9.0,0
3.0,-254.0,1.0,37.0,20.0,-7.0,0
0.0,-251.0,-2.0,38.0,22.0,-4.0,0
-1.0,-253.0,1.0,41.0,22.0,-5.0,0
2.0,-254.0,-2.0,43.0,22.0,-4.0,0
2.0,-254.0,1.0,46.0,23.0,-5.0,0
-1.0,-254.0,3.0,46.0,24.0,-7.0,0
-2.0,-256.0,2.0,48.0,27.0,-10.0,0
0.0,-257.0,1.0,51.0,29.0,-12.0,0
2.0,-258.0,4.0,53.0,29.0,-17.0,0
0.0,-254.0,-1.0,57.0,30.0,-19.0,0
1.0,-254.0,1.0,62.0,27.0,-21.0,0
-2.0,-252.0,3.0,66.0,27.0,-24.0,0
0.0,-256.0,2.0,70.0,26.0,-24.0,0
1.0,-254.0,2.0,71.0,26.0,-24.0,0
-2.0,-251.0,-1.0,72.0,26.0,-23.0,0
-1.0,-251.0,2.0,73.0,26.0,-22.0,0
-2.0,-251.0,1.0,75.0,27.0,-21.0,0
-2.0,-252.0,-3.0,77.0,29.0,-20.0,0
0.0,-249.0,-3.0,79.0,32.0,-18.0,0
-2.0,-249.0,-1.0,81.0,35.0,-17.0,0
0.0,-251.0,-2.0,80.0,40.0,-19.0,0
1.0,-249.0,-1.0,79.0,44.0,-22.0,0
-3.0,-249.0,-2.0,79.0,49.0,-25.0,0
-2.0,-253.0,-1.0,78.0,51.0,-24.0,0
-2.0,-254.0,-2.0,76.0,55.0,-25.0,0
-2.0,-250.0,-5.0,73.0,55.0,-26.0,0
-3.0,-251.0,-3.0,67.0,57.0,-25.0,0
-1.0,-253.0,-1.0,63.0,58.0,-25.0,0
1.0,-251.0,-3.0,61.0,59.0,-26.0,0
-3.0,-253.0,-2.0,60.0,58.0,-26.0,0
0.0,-254.0,-2.0,60.0,57.0,-28.0,0
-1.0,-257.0,2.0,63.0,56.0,-28.0,0
-1.0,-257.0,1.0,69.0,56.0,-29.0,0
-1.0,-254.0,-1.0,73.0,54.0,-30.0,0
-3.0,-253.0,-2.0,76.0,56.0,-31.0,0
-3.0,-251.0,-2.0,81.0,56.0,-31.0,0
-3.0,-250.0,2.0,83.0,55.0,-29.0,0
-4.0,-248.0,-3.0,80.0,55.0,-25.0,0
-3.0,-251.0,-1.0,76.0,55.0,-24.0,0
-4.0,-254.0,1.0,69.0,54.0,-21.0,0
-4.0,-252.0,1.0,66.0,52.0,-18.0,0
-3.0,-251.0,4.0,62.0,50.0,-20.0,0
-3.0,-254.0,2.0,62.0,47.0,-19.0,0
-3.0,-252.0,-2.0,62.0,44.0,-20.0,0
-4.0,-249.0,-3.0,63.0,41.0,-21.0,0
-4.0,-251.0,0.0,64.0,39.0,-23.0,0
-4.0,-249.0,-1.0,67.0,36.0,-22.0,0
-4.0,-249.0,1.0,65.0,36.0,-23.0,0
-4.0,-250.0,0.0,62.0,34.0,-23.0,0
-6.0,-251.0,0.0,59.0,34.0,-23.0,0
-4.0,-252.0,-1.0,57.0,32.0,-24.0,0
-4.0,-251.0,2.0,55.0,32.0,-25.0,0
-4.0,-255.0,3.0,56.0,31.0,-23.0,0
-4.0,-253.0,1.0,57.0,29.0,-22.0,0
-7.0,-251.0,2.0,54.0,25.0,-21.0,0
-6.0,-253.0,0.0,52.0,24.0,-22.0,0
-4.0,-249.0,3.0,48.0,20.0,-22.0,0
-4.0,-253.0,0.0,45.0,15.0,-21.0,0
-7.0,-249.0,2.0,40.0,12.0,-22.0,0
-9.0,-249.0,-7.0,37.0,7.0,-23.0,0
-7.0,-249.0,4.0,34.0,5.0,-21.0,0
-4.0,-252.0,-1.0,31.0,1.0,-21.0,0
-7.0,-254.0,-1.0,29.0,-2.0,-20.0,0
-7.0,-250.0,2.0,28.0,-7.0,-19.0,0
-5.0,-247.0,-2.0,28.0,-12.0,-18.0,0
-6.0,-250.0,-4.0,26.0,-18.0,-16.0,0
-9.0,-252.0,3.0,23.0,-25.0,-18.0,0
-5.0,-252.0,0.0,21.0,-30.0,-16.0,0
-10.0,-253.0,0.0,17.0,-35.0,-15.0,0
-4.0,-253.0,-2.0,17.0,-40.0,-15.0,0
-4.0,-253.0,-4.0,19.0,-43.0,-15.0,0
-4.0,-254.0,0.0,21.0,-48.0,-15.0,0
-4.0,-249.0,0.0,18.0,-52.0,-14.0,0
-6.0,-248.0,4.0,15.0,-57.0,-13.0,0
-4.0,-252.0,5.0,11.0,-60.0,-11.0,0
-3.0,-253.0,3.0,9.0,-62.0,-10.0,0
-3.0,-251.0,2.0,11.0,-64.0,-8.0,0
-4.0,-254.0,-7.0,19.0,-70.0,-10.0,0
-7.0,-249.0,-11.0,26.0,-79.0,-10.0,0
-3.0,-251.0,-12.0,24.0,-84.0,-11.0,0
-2.0,-252.0,-4.0,17.0,-78.0,-10.0,0
-4.0,-255.0,0.0,14.0,-70.0,-11.0,0
-4.0,-253.0,2.0,18.0,-68.0,-11.0,0
0.0,-255.0,5.0,25.0,-69.0,-11.0,0
-1.0,-256.0,3.0,31.0,-66.0,-9.0,0
-4.0,-252.0,0.0,31.0,-65.0,-10.0,0
-4.0,-251.0,-2.0,32.0,-64.0,-9.0,0
-3.0,-255.0,-3.0,32.0,-64.0,-8.0,0
-2.0,-253.0,0.0,32.0,-64.0,-7.0,0
-3.0,-252.0,-2.0,30.0,-66.0,-7.0,0
-2.0,-253.0,-3.0,29.0,-64.0,-3.0,0
-2.0,-254.0,-2.0,29.0,-64.0,-2.0,0
3.0,-250.0,-5.0,30.0,-62.0,0.0,0
0.0,-258.0,-5.0,32.0,-61.0,2.0,0
-1.0,-252.0,-1.0,36.0,-58.0,3.0,0
-1.0,-252.0,3.0,40.0,-57.0,3.0,0
-2.0,-252.0,2.0,42.0,-55.0,3.0,0
-3.0,-253.0,-2.0,43.0,-53.0,2.0,0
-1.0,-253.0,-3.0,42.0,-48.0,2.0,0
-1.0,-251.0,-1.0,42.0,-45.0,2.0,0
1.0,-252.0,-2.0,41.0,-39.0,0.0,0
-3.0,-252.0,1.0,42.0,-35.0,1.0,0
-2.0,-252.0,1.0,43.0,-33.0,1.0,0
4.0,-252.0,2.0,45.0,-32.0,3.0,0
-29.0,-255.0,0.0,46.0,-30.0,4.0,0
-2.0,-247.0,4.0,50.0,-29.0,6.0,0
-2.0,-255.0,0.0,53.0,-29.0,5.0,0
-3.0,-251.0,1.0,56.0,-26.0,5.0,0
-3.0,-251.0,2.0,58.0,-24.0,6.0,0
-4.0,-246.0,6.0,61.0,-22.0,6.0,0
-3.0,-248.0,5.0,63.0,-21.0,6.0,0
-4.0,-245.0,2.0,62.0,-21.0,5.0,0
-3.0,-251.0,2.0,57.0,-22.0,4.0,0
-3.0,-248.0,-3.0,49.0,-20.0,3.0,0
-2.0,-251.0,1.0,41.0,-19.0,2.0,0
-3.0,-250.0,8.0,38.0,-18.0,-1.0,0
-3.0,-254.0,8.0,38.0,-18.0,0.0,0
-1.0,-253.0,6.0,40.0,-18.0,0.0,0
-2.0,-253.0,2.0,43.0,-19.0,-1.0,0
-1.0,-254.0,4.0,43.0,-19.0,-3.0,0
-3.0,-254.0,7.0,44.0,-20.0,0.0,0
-2.0,-254.0,4.0,44.0,-22.0,-1.0,0
-3.0,-251.0,-1.0,44.0,-21.0,-1.0,0
-1.0,-252.0,2.0,46.0,-20.0,-2.0,0
-2.0,-251.0,-1.0,45.0,-20.0,-3.0,0
-3.0,-251.0,-5.0,45.0,-20.0,-4.0,0
-2.0,-252.0,2.0,43.0,-17.0,-4.0,0
-4.0,-253.0,-1.0,42.0,-14.0,-5.0,0
-2.0,-252.0,0.0,42.0,-10.0,-6.0,0
0.0,-255.0,3.0,41.0,-7.0,-7.0,0
-2.0,-257.0,5.0,42.0,-7.0,-9.0,0
0.0,-255.0,2.0,43.0,-7.0,-9.0,0
-1.0,-255.0,2.0,49.0,-6.0,-10.0,0
-2.0,-256.0,2.0,52.0,-6.0,-13.0,0
-4.0,-255.0,-1.0,57.0,-7.0,-13.0,0
-3.0,-252.0,5.0,61.0,-10.0,-14.0,0
-4.0,-249.0,-2.0,62.0,-12.0,-15.0,0
-2.0,-250.0,-1.0,64.0,-14.0,-15.0,0
-2.0,-249.0,0.0,61.0,-16.0,-15.0,0
-2.0,-250.0,-2.0,57.0,-16.0,-14.0,0
-2.0,-249.0,-3.0,51.0,-14.0,-15.0,0
3.0,-251.0,-2.0,45.0,-12.0,-13.0,0
8.0,-251.0,14.0,43.0,-7.0,-11.0,0
3.0,-244.0,-5.0,41.0,-5.0,-12.0,0
7.0,-269.0,11.0,40.0,-3.0,-12.0,0
1.0,-247.0,10.0,39.0,-3.0,-11.0,0
-3.0,-247.0,27.0,40.0,-2.0,-12.0,0
-3.0,-247.0,3.0,42.0,-2.0,-12.0,0
-9.0,-257.0,0.0,46.0,-1.0,-11.0,0
-3.0,-250.0,-13.0,47.0,0.0,-10.0,0
9.0,-253.0,-19.0,51.0,3.0,-13.0,0
5.0,-252.0,-8.0,52.0,8.0,-14.0,0
0.0,-245.0,-2.0,50.0,14.0,-14.0,0
10.0,-247.0,4.0,48.0,21.0,-15.0,0
-2.0,-253.0,1.0,42.0,28.0,-16.0,0
-20.0,-245.0,6.0,40.0,33.0,-16.0,0
1.0,-260.0,-7.0,40.0,37.0,-16.0,0
-18.0,-254.0,9.0,42.0,41.0,-18.0,0
8.0,-263.0,7.0,46.0,41.0,-19.0,0
-1.0,-252.0,-2.0,52.0,42.0,-20.0,0
4.0,-251.0,-3.0,55.0,42.0,-19.0,0
1.0,-253.0,0.0,58.0,45.0,-20.0,0
-6.0,-249.0,3.0,58.0,49.0,-18.0,0
2.0,-236.0,-1.0,57.0,52.0,-15.0,0
-3.0,-234.0,-9.0,54.0,55.0,-16.0,0
4.0,-246.0,-3.0,50.0,55.0,-14.0,0
2.0,-249.0,1.0,45.0,56.0,-14.0,0
3.0,-252.0,-4.0,39.0,57.0,-16.0,0
-5.0,-250.0,2.0,35.0,54.0,-15.0,0
2.0,-253.0,-2.0,34.0,50.0,-15.0,0
-1.0,-250.0,9.0,36.0,45.0,-16.0,0
-1.0,-252.0,1.0,39.0,40.0,-17.0,0
-9.0,-246.0,3.0,43.0,37.0,-17.0,0
-5.0,-252.0,4.0,46.0,37.0,-16.0,0
2.0,-253.0,-5.0,46.0,36.0,-14.0,0
12.0,-245.0,-26.0,43.0,34.0,-13.0,0
-1.0,-249.0,2.0,38.0,35.0,-10.0,0
-3.0,-251.0,4.0,35.0,36.0,-10.0,0
-1.0,-255.0,-1.0,35.0,35.0,-9.0,0
-4.0,-254.0,-8.0,41.0,32.0,-11.0,0
-3.0,-248.0,-13.0,44.0,24.0,-13.0,0
-3.0,-252.0,-6.0,38.0,29.0,-16.0,0
-4.0,-254.0,3.0,32.0,38.0,-20.0,0
-2.0,-253.0,3.0,33.0,44.0,-21.0,0
-1.0,-255.0,4.0,42.0,46.0,-23.0,0
-3.0,-252.0,4.0,47.0,43.0,-23.0,0
-3.0,-251.0,1.0,48.0,42.0,-21.0,0
-3.0,-252.0,1.0,44.0,40.0,-20.0,0
-5.0,-248.0,0.0,38.0,36.0,-21.0,0
-4.0,-252.0,-4.0,31.0,29.0,-17.0,0
-4.0,-251.0,-4.0,26.0,21.0,-17.0,0
-4.0,-251.0,-2.0,21.0,13.0,-15.0,0
-4.0,-251.0,-2.0,16.0,11.0,-15.0,0
-5.0,-251.0,-1.0,11.0,10.0,-13.0,0
-4.0,-252.0,-3.0,7.0,12.0,-15.0,0
-4.0,-252.0,5.0,7.0,13.0,-15.0,0
-2.0,-250.0,3.0,7.0,17.0,-17.0,0
-3.0,-252.0,0.0,10.0,19.0,-20.0,0
-3.0,-251.0,-1.0,12.0,19.0,-20.0,0
-4.0,-254.0,2.0,14.0,19.0,-20.0,0
0.0,-255.0,1.0,15.0,18.0,-20.0,0
-4.0,-252.0,4.0,14.0,20.0,-20.0,0
-2.0,-254.0,1.0,11.0,20.0,-19.0,0
-2.0,-253.0,1.0,10.0,20.0,-18.0,0
-4.0,-251.0,0.0,10.0,17.0,-16.0,0
-4.0,-253.0,3.0,13.0,15.0,-15.0,0
-5.0,-251.0,0.0,18.0,13.0,-16.0,0
-3.0,-255.0,3.0,23.0,12.0,-15.0,0
-3.0,-252.0,-2.0,26.0,13.0,-16.0,0
-4.0,-253.0,-1.0,25.0,15.0,-15.0,0
-4.0,-250.0,2.0,23.0,14.0,-14.0,0
-3.0,-252.0,-2.0,20.0,14.0,-13.0,0
-4.0,-252.0,2.0,20.0,12.0,-14.0,0
-5.0,-256.0,4.0,21.0,9.0,-14.0,0
-3.0,-253.0,4.0,23.0,6.0,-13.0,0
-4.0,-251.0,0.0,26.0,5.0,-13.0,0
-5.0,-250.0,1.0,30.0,3.0,-12.0,0
-3.0,-252.0,-1.0,33.0,3.0,-10.0,0
-3.0,-253.0,3.0,36.0,3.0,-10.0,0
-2.0,-252.0,0.0,37.0,5.0,-11.0,0
-3.0,-252.0,-2.0,36.0,5.0,-12.0,0
-4.0,-252.0,-3.0,35.0,6.0,-14.0,0
-3.0,-251.0,-1.0,31.0,8.0,-13.0,0
-3.0,-252.0,-4.0,29.0,9.0,-15.0,0
-2.0,-250.0,1.0,24.0,11.0,-14.0,0
-3.0,-250.0,-4.0,20.0,13.0,-14.0,0
0.0,-253.0,-2.0,17.0,14.0,-12.0,0
-3.0,-254.0,-1.0,14.0,14.0,-12.0,0
-2.0,-253.0,1.0,16.0,14.0,-13.0,0
1.0,-253.0,2.0,17.0,13.0,-12.0,0
-3.0,-252.0,1.0,20.0,12.0,-13.0,0
-3.0,-254.0,-4.0,24.0,11.0,-12.0,0
-3.0,-253.0,0.0,25.0,10.0,-12.0,0
-4.0,-250.0,-3.0,25.0,12.0,-13.0,0
-3.0,-250.0,-4.0,25.0,12.0,-12.0,0
-3.0,-247.0,-5.0,23.0,13.0,-9.0,0
-2.0,-250.0,1.0,18.0,15.0,-9.0,0
-1.0,-250.0,-4.0,15.0,16.0,-6.0,0
-3.0,-251.0,1.0,12.0,18.0,-8.0,0
-1.0,-253.0,-2.0,10.0,19.0,-8.0,0
-1.0,-252.0,0.0,11.0,20.0,-8.0,0
-3.0,-251.0,-5.0,11.0,21.0,-10.0,0
-1.0,-251.0,-2.0,11.0,21.0,-9.0,0
-3.0,-254.0,0.0,12.0,22.0,-9.0,0
-2.0,-254.0,-3.0,11.0,22.0,-9.0,0
-3.0,-254.0,-2.0,9.0,23.0,-10.0,0
-3.0,-253.0,-5.0,9.0,24.0,-12.0,0
0.0,-250.0,-2.0,11.0,26.0,-10.0,0
0.0,-250.0,-5.0,15.0,28.0,-12.0,0
-3.0,-247.0,-5.0,18.0,32.0,-13.0,0
1.0,-253.0,-3.0,21.0,35.0,-14.0,0
-2.0,-251.0,-1.0,23.0,36.0,-14.0,0
-4.0,-252.0,-2.0,22.0,39.0,-13.0,0
-1.0,-252.0,-4.0,19.0,40.0,-13.0,0
-1.0,-253.0,-2.0,16.0,42.0,-11.0,0
-2.0,-251.0,-4.0,11.0,42.0,-12.0,0
-3.0,-250.0,-4.0,7.0,42.0,-10.0,0
0.0,-249.0,-4.0,5.0,43.0,-10.0,0
-1.0,-253.0,-5.0,4.0,44.0,-10.0,0
-2.0,-256.0,-7.0,4.0,44.0,-10.0,0
-2.0,-254.0,-4.0,7.0,43.0,-12.0,0
-2.0,-252.0,-6.0,7.0,42.0,-12.0,0
0.0,-252.0,-5.0,8.0,44.0,-13.0,0
-1.0,-251.0,-2.0,9.0,44.0,-12.0,0
-1.0,-252.0,-6.0,9.0,45.0,-11.0,0
0.0,-253.0,-1.0,6.0,45.0,-10.0,0
-1.0,-249.0,-5.0,-1.0,43.0,-9.0,0
0.0,-252.0,-5.0,-6.0,38.0,-6.0,0
-2.0,-252.0,-3.0,-12.0,35.0,-6.0,0
-2.0,-256.0,-7.0,-13.0,32.0,-7.0,0
-4.0,-252.0,-5.0,-11.0,31.0,-8.0,0
-5.0,-252.0,-6.0,-7.0,31.0,-8.0,0
-3.0,-253.0,-8.0,-3.0,31.0,-9.0,0
-2.0,-254.0,0.0,2.0,32.0,-10.0,0
-3.0,-250.0,-3.0,4.0,35.0,-12.0,0
-2.0,-250.0,-4.0,4.0,36.0,-12.0,0
-3.0,-251.0,-1.0,3.0,36.0,-12.0,0
-1.0,-251.0,0.0,1.0,36.0,-15.0,0
-2.0,-253.0,0.0,1.0,35.0,-16.0,0
-2.0,-252.0,-6.0,5.0,33.0,-17.0,0
-1.0,-251.0,-12.0,13.0,29.0,-16.0,0
-3.0,-250.0,-13.0,15.0,25.0,-18.0,0
-2.0,-251.0,-13.0,9.0,27.0,-16.0,0
-1.0,-252.0,-2.0,3.0,36.0,-18.0,0
-2.0,-252.0,-3.0,7.0,44.0,-17.0,0
-3.0,-248.0,-2.0,14.0,44.0,-16.0,0
0.0,-252.0,-6.0,21.0,39.0,-14.0,0
-1.0,-250.0,-5.0,20.0,36.0,-13.0,0
1.0,-250.0,-5.0,15.0,32.0,-12.0,0
0.0,-251.0,-7.0,9.0,29.0,-12.0,0
-1.0,-250.0,-9.0,3.0,28.0,-11.0,0
-3.0,-250.0,-9.0,-6.0,25.0,-8.0,0
-1.0,-251.0,-7.0,-13.0,25.0,-8.0,0
-2.0,-249.0,-11.0,-15.0,22.0,-7.0,0
1.0,-256.0,-9.0,-13.0,20.0,-6.0,0
-5.0,-250.0,-8.0,-8.0,17.0,-9.0,0
-4.0,-251.0,-9.0,-2.0,14.0,-11.0,0
-2.0,-251.0,-8.0,4.0,15.0,-10.0,0
-3.0,-250.0,-5.0,10.0,17.0,-8.0,0
-2.0,-253.0,-7.0,15.0,18.0,-5.0,0
-2.0,-251.0,-10.0,17.0,18.0,-8.0,0
-3.0,-254.0,-7.0,17.0,20.0,-7.0,0
-3.0,-252.0,-10.0,19.0,23.0,-9.0,0
-4.0,-255.0,-5.0,19.0,24.0,-10.0,0
-3.0,-253.0,-6.0,21.0,25.0,-12.0,0
-2.0,-255.0,-10.0,27.0,26.0,-14.0,0
-5.0,-253.0,-2.0,32.0,24.0,-16.0,0
-4.0,-250.0,-7.0,37.0,22.0,-18.0,0
-3.0,-252.0,-6.0,39.0,21.0,-20.0,0
-3.0,-253.0,-5.0,38.0,21.0,-19.0,0
-5.0,-249.0,-4.0,33.0,18.0,-20.0,0
-4.0,-247.0,-8.0,28.0,14.0,-20.0,0
-3.0,-248.0,-7.0,20.0,9.0,-20.0,0
-2.0,-250.0,-6.0,14.0,7.0,-16.0,0
-3.0,-252.0,-3.0,9.0,4.0,-15.0,0
-2.0,-249.0,-11.0,6.0,2.0,-13.0,0
-4.0,-251.0,-3.0,6.0,2.0,-14.0,0
2.0,-256.0,-12.0,6.0,3.0,-13.0,0
-3.0,-248.0,-7.0,3.0,5.0,-13.0,0
-1.0,-248.0,-3.0,0.0,6.0,-12.0,0
-1.0,-248.0,-3.0,-5.0,7.0,-13.0,0
-1.0,-248.0,-3.0,-12.0,4.0,-13.0,0
-2.0,-252.0,-6.0,-13.0,3.0,-13.0,0
-3.0,-249.0,-6.0,-13.0,5.0,-12.0,0
-3.0,-251.0,-11.0,-14.0,3.0,-13.0,0
-4.0,-251.0,-8.0,-14.0,4.0,-14.0,0
-2.0,-256.0,-13.0,-13.0,5.0,-13.0,0
-1.0,-249.0,-5.0,-13.0,5.0,-15.0,0
-1.0,-251.0,-9.0,-8.0,5.0,-14.0,0
-3.0,-252.0,-9.0,-6.0,6.0,-15.0,0
-2.0,-251.0,-9.0,-4.0,6.0,-14.0,0
-3.0,-251.0,-7.0,1.0,5.0,-14.0,0
-4.0,-255.0,-10.0,4.0,5.0,-15.0,0
-3.0,-253.0,-3.0,9.0,6.0,-17.0,0
-2.0,-251.0,-6.0,12.0,7.0,-15.0,0
-1.0,-253.0,-10.0,16.0,10.0,-17.0,0
-4.0,-251.0,-4.0,18.0,11.0,-18.0,0
-3.0,-250.0,-5.0,19.0,12.0,-18.0,0
-4.0,-250.0,-8.0,19.0,13.0,-18.0,0
-2.0,-249.0,-8.0,18.0,13.0,-17.0,0
-5.0,-250.0,-9.0,16.0,12.0,-15.0,0
-1.0,-252.0,-8.0,15.0,14.0,-15.0,0
-2.0,-253.0,-8.0,14.0,14.0,-15.0,0
-4.0,-251.0,-5.0,13.0,16.0,-13.0,0
-3.0,-252.0,-6.0,13.0,17.0,-13.0,0
-1.0,-254.0,-6.0,13.0,18.0,-12.0,0
-2.0,-251.0,-13.0,11.0,19.0,-12.0,0
-2.0,-253.0,-7.0,11.0,22.0,-13.0,0
-3.0,-252.0,-9.0,12.0,23.0,-14.0,0
-1.0,-255.0,-5.0,13.0,24.0,-15.0,0
-2.0,-251.0,-7.0,14.0,26.0,-17.0,0
0.0,-254.0,-10.0,17.0,31.0,-17.0,0
-1.0,-254.0,-7.0,18.0,33.0,-19.0,0
-2.0,-254.0,-9.0,21.0,36.0,-18.0,0
-1.0,-250.0,-7.0,25.0,40.0,-18.0,0
-3.0,-253.0,-9.0,24.0,40.0,-18.0,0
1.0,-254.0,-10.0,24.0,41.0,-16.0,0
-2.0,-253.0,-4.0,23.0,42.0,-15.0,0
-2.0,-248.0,-8.0,21.0,41.0,-14.0,0
0.0,-255.0,-10.0,19.0,42.0,-13.0,0
-3.0,-253.0,-10.0,17.0,43.0,-12.0,0
-3.0,-252.0,-10.0,14.0,43.0,-13.0,0
-2.0,-250.0,-9.0,13.0,44.0,-13.0,0
-1.0,-253.0,-15.0,14.0,45.0,-12.0,0
-2.0,-250.0,-12.0,15.0,45.0,-12.0,0
-1.0,-253.0,-17.0,14.0,45.0,-11.0,0
-1.0,-251.0,-16.0,6.0,40.0,-9.0,0
-3.0,-253.0,-16.0,-4.0,37.0,-6.0,0
-3.0,-253.0,-16.0,-14.0,35.0,-6.0,0
-2.0,-259.0,-11.0,-18.0,33.0,-5.0,0
-4.0,-255.0,-18.0,-17.0,33.0,-2.0,0
-3.0,-254.0,-18.0,-13.0,31.0,-2.0,0
-3.0,-254.0,-14.0,-6.0,31.0,0.0,0
-2.0,-255.0,-14.0,4.0,30.0,-2.0,0
-3.0,-251.0,-17.0,11.0,27.0,1.0,0
-2.0,-253.0,-13.0,12.0,27.0,3.0,0
-1.0,-253.0,-7.0,12.0,28.0,5.0,0
-1.0,-251.0,-10.0,9.0,29.0,6.0,0
2.0,-254.0,-15.0,8.0,33.0,8.0,0
0.0,-255.0,-18.0,12.0,34.0,10.0,0
-1.0,-248.0,-24.0,22.0,33.0,10.0,0
2.0,-249.0,-27.0,27.0,33.0,8.0,0
5.0,-255.0,-16.0,27.0,42.0,5.0,0
4.0,-251.0,-11.0,32.0,54.0,-1.0,0
4.0,-253.0,-10.0,44.0,64.0,-5.0,0
5.0,-252.0,-7.0,57.0,72.0,-6.0,0
4.0,-247.0,-8.0,65.0,76.0,-5.0,0
2.0,-246.0,-12.0,65.0,82.0,-4.0,0
3.0,-248.0,-6.0,59.0,86.0,-5.0,0
2.0,-249.0,-13.0,53.0,87.0,-4.0,0
3.0,-249.0,-11.0,47.0,86.0,-2.0,0
0.0,-247.0,-11.0,44.0,84.0,0.0,0
2.0,-249.0,-11.0,41.0,83.0,2.0,0
1.0,-249.0,-12.0,42.0,82.0,4.0,0
2.0,-253.0,-13.0,41.0,81.0,1.0,0
-2.0,-251.0,-12.0,43.0,81.0,2.0,0
-1.0,-251.0,-15.0,44.0,79.0,2.0,0
1.0,-252.0,-9.0,44.0,76.0,-1.0,0
0.0,-253.0,-10.0,43.0,73.0,-2.0,0
-1.0,-251.0,-15.0,39.0,70.0,-4.0,0
-2.0,-249.0,-13.0,34.0,63.0,-9.0,0
-4.0,-253.0,-14.0,30.0,59.0,-8.0,0
-4.0,-254.0,-14.0,27.0,56.0,-10.0,0
-4.0,-253.0,-10.0,29.0,50.0,-10.0,0
-4.0,-255.0,-13.0,34.0,45.0,-11.0,0
-3.0,-254.0,-12.0,38.0,39.0,-12.0,0
-2.0,-256.0,-12.0,43.0,35.0,-12.0,0
-4.0,-253.0,-9.0,47.0,32.0,-13.0,0
-4.0,-255.0,-14.0,50.0,27.0,-13.0,0
-4.0,-252.0,-14.0,51.0,21.0,-13.0,0
-4.0,-255.0,-12.0,51.0,16.0,-15.0,0
-6.0,-249.0,-16.0,51.0,10.0,-16.0,0
5.0,-252.0,-15.0,52.0,6.0,-19.0,0
-5.0,-250.0,-17.0,53.0,1.0,-19.0,0
-3.0,-248.0,-17.0,53.0,-3.0,-19.0,0
-1.0,-250.0,-16.0,53.0,-8.0,-20.0,0
-3.0,-248.0,-15.0,51.0,-11.0,-18.0,0
-4.0,-250.0,-12.0,49.0,-17.0,-18.0,0
-2.0,-248.0,-16.0,44.0,-19.0,-16.0,0
-4.0,-248.0,-12.0,43.0,-24.0,-16.0,0
-3.0,-253.0,-11.0,41.0,-28.0,-16.0,0
-3.0,-251.0,-11.0,41.0,-30.0,-15.0,0
-2.0,-250.0,-21.0,45.0,-32.0,-15.0,0
-2.0,-254.0,-11.0,50.0,-34.0,-15.0,0
0.0,-254.0,-15.0,54.0,-36.0,-14.0,0
-3.0,-250.0,-13.0,56.0,-38.0,-16.0,0
-4.0,-249.0,-14.0,57.0,-41.0,-17.0,0
-4.0,-249.0,-15.0,59.0,-45.0,-16.0,0
-4.0,-246.0,-15.0,58.0,-48.0,-18.0,0
-5.0,-246.0,-14.0,56.0,-49.0,-20.0,0
-4.0,-250.0,-12.0,54.0,-52.0,-19.0,0
-6.0,-246.0,-13.0,51.0,-54.0,-18.0,0
-6.0,-246.0,-13.0,49.0,-58.0,-17.0,0
-4.0,-246.0,-12.0,47.0,-61.0,-17.0,0
-6.0,-247.0,-12.0,44.0,-64.0,-15.0,0
-11.0,-245.0,-13.0,40.0,-66.0,-16.0,0
-10.0,-247.0,-9.0,35.0,-72.0,-12.0,0
-11.0,-247.0,-6.0,29.0,-78.0,-10.0,0
-6.0,-247.0,-10.0,23.0,-83.0,-6.0,0
-9.0,-248.0,-8.0,18.0,-89.0,-1.0,0
-9.0,-246.0,-7.0,12.0,-92.0,5.0,0
-11.0,-248.0,-2.0,4.0,-98.0,11.0,0
-14.0,-244.0,-8.0,-4.0,-102.0,21.0,0
-12.0,-248.0,-5.0,-14.0,-106.0,26.0,0
-15.0,-246.0,-3.0,-23.0,-107.0,35.0,0
-19.0,-246.0,-2.0,-32.0,-108.0,43.0,0
-17.0,-246.0,-2.0,-39.0,-115.0,52.0,0
-19.0,-247.0,1.0,-47.0,-123.0,61.0,0
-20.0,-246.0,1.0,-53.0,-135.0,71.0,0
-20.0,-243.0,-5.0,-60.0,-145.0,77.0,0
-20.0,-243.0,-7.0,-63.0,-157.0,83.0,0
-19.0,-246.0,-5.0,-67.0,-164.0,85.0,0
-20.0,-246.0,-7.0,-73.0,-172.0,87.0,0
-22.0,-248.0,-6.0,-77.0,-177.0,86.0,0
-23.0,-251.0,-4.0,-81.0,-180.0,85.0,0
-17.0,-256.0,5.0,-83.0,-184.0,82.0,0
-21.0,-252.0,-8.0,-82.0,-187.0,76.0,0
-24.0,-255.0,-1.0,-79.0,-186.0,72.0,0
-26.0,-255.0,-5.0,-72.0,-188.0,64.0,0
-23.0,-255.0,-3.0,-67.0,-190.0,58.0,0
-26.0,-257.0,-3.0,-61.0,-194.0,51.0,0
-24.0,-257.0,-1.0,-58.0,-195.0,43.0,0
-25.0,-256.0,-1.0,-52.0,-194.0,38.0,0
-27.0,-256.0,2.0,-49.0,-192.0,32.0,0
-25.0,-250.0,-1.0,-47.0,-191.0,26.0,0
-22.0,-250.0,2.0,-48.0,-192.0,22.0,0
-20.0,-254.0,2.0,-51.0,-194.0,18.0,0
-21.0,-253.0,1.0,-55.0,-193.0,14.0,0
-24.0,-250.0,2.0,-57.0,-194.0,10.0,0
-25.0,-252.0,3.0,-56.0,-196.0,5.0,0
-25.0,-252.0,8.0,-50.0,-200.0,1.0,0
-24.0,-250.0,8.0,-42.0,-205.0,-1.0,0
-21.0,-251.0,8.0,-33.0,-209.0,-3.0,0
-25.0,-246.0,2.0,-28.0,-214.0,-4.0,0
-21.0,-247.0,8.0,-30.0,-223.0,-2.0,0
-20.0,-246.0,5.0,-39.0,-231.0,0.0,0
-20.0,-247.0,9.0,-50.0,-238.0,3.0,0
-16.0,-252.0,13.0,-60.0,-241.0,6.0,0
-17.0,-255.0,8.0,-59.0,-246.0,8.0,0
-18.0,-252.0,1.0,-53.0,-253.0,7.0,0
-17.0,-250.0,-1.0,-42.0,-265.0,6.0,0
-17.0,-250.0,-3.0,-39.0,-275.0,6.0,0
-16.0,-255.0,2.0,-41.0,-276.0,7.0,0
-15.0,-253.0,12.0,-40.0,-278.0,3.0,0
-12.0,-252.0,9.0,-33.0,-276.0,2.0,0
-16.0,-252.0,11.0,-24.0,-274.0,1.0,0
-18.0,-252.0,11.0,-19.0,-270.0,1.0,0
-11.0,-251.0,10.0,-19.0,-269.0,-1.0,0
-13.0,-247.0,7.0,-26.0,-272.0,-2.0,0
-11.0,-250.0,6.0,-35.0,-279.0,-1.0,0
-7.0,-248.0,7.0,-43.0,-287.0,0.0,0
-6.0,-248.0,6.0,-52.0,-291.0,-1.0,0
-7.0,-246.0,4.0,-61.0,-292.0,-1.0,0
-8.0,-249.0,3.0,-68.0,-296.0,-3.0,0
-7.0,-244.0,3.0,-75.0,-297.0,-7.0,0
-5.0,-245.0,5.0,-81.0,-296.0,-8.0,0
-7.0,-247.0,2.0,-88.0,-295.0,-9.0,0
-4.0,-245.0,7.0,-94.0,-292.0,-12.0,0
-1.0,-248.0,4.0,-102.0,-290.0,-16.0,0
-3.0,-246.0,1.0,-107.0,-287.0,-19.0,0
-3.0,-251.0,4.0,-110.0,-285.0,-23.0,0
-2.0,-251.0,-1.0,-108.0,-281.0,-28.0,0
0.0,-252.0,3.0,-101.0,-276.0,-33.0,0
-1.0,-252.0,-1.0,-90.0,-270.0,-36.0,0
0.0,-252.0,-5.0,-79.0,-266.0,-36.0,0
1.0,-253.0,-5.0,-68.0,-258.0,-38.0,0
-1.0,-254.0,-7.0,-58.0,-251.0,-40.0,0
1.0,-253.0,-9.0,-50.0,-244.0,-41.0,0
-2.0,-249.0,-2.0,-40.0,-244.0,-43.0,0
-4.0,-254.0,-11.0,-34.0,-252.0,-42.0,0
1.0,-253.0,-7.0,-28.0,-260.0,-41.0,0
3.0,-253.0,-8.0,-23.0,-267.0,-41.0,0
3.0,-253.0,-8.0,-19.0,-266.0,-42.0,0
3.0,-252.0,-1.0,-13.0,-258.0,-43.0,0
1.0,-250.0,-7.0,-8.0,-251.0,-43.0,0
3.0,-251.0,-10.0,-6.0,-245.0,-44.0,0
2.0,-247.0,-9.0,-9.0,-240.0,-48.0,0
4.0,-248.0,-8.0,-16.0,-232.0,-51.0,0
9.0,-248.0,-13.0,-26.0,-223.0,-55.0,0
12.0,-248.0,-11.0,-33.0,-209.0,-58.0,0
17.0,-246.0,-13.0,-37.0,-193.0,-64.0,0
19.0,-249.0,-10.0,-36.0,-173.0,-70.0,0
20.0,-244.0,-9.0,-32.0,-158.0,-77.0,0
21.0,-243.0,-12.0,-28.0,-144.0,-81.0,0
21.0,-241.0,-12.0,-32.0,-129.0,-83.0,0
25.0,-242.0,-13.0,-40.0,-113.0,-86.0,0
28.0,-241.0,-15.0,-51.0,-96.0,-86.0,0
28.0,-245.0,-19.0,-65.0,-78.0,-85.0,0
28.0,-242.0,-17.0,-80.0,-63.0,-83.0,0
31.0,-242.0,-18.0,-101.0,-50.0,-76.0,0
29.0,-240.0,-25.0,-117.0,-36.0,-66.0,0
33.0,-237.0,-20.0,-130.0,-16.0,-55.0,0
35.0,-238.0,-21.0,-142.0,9.0,-45.0,0
39.0,-239.0,-12.0,-149.0,33.0,-33.0,0
41.0,-235.0,-2.0,-150.0,49.0,-22.0,0
39.0,-233.0,8.0,-144.0,64.0,-14.0,0
41.0,-235.0,13.0,-141.0,80.0,-7.0,0
40.0,-232.0,15.0,-148.0,97.0,3.0,0
34.0,-226.0,17.0,-167.0,113.0,15.0,0
34.0,-226.0,21.0,-193.0,130.0,27.0,0
28.0,-231.0,20.0,-216.0,147.0,38.0,0
21.0,-232.0,20.0,-234.0,164.0,46.0,0
23.0,-230.0,21.0,-250.0,178.0,48.0,0
13.0,-234.0,19.0,-271.0,188.0,51.0,0
10.0,-237.0,10.0,-294.0,193.0,52.0,0
9.0,-245.0,14.0,-328.0,197.0,50.0,0
5.0,-246.0,13.0,-354.0,200.0,45.0,0
4.0,-250.0,10.0,-372.0,203.0,36.0,0
-2.0,-255.0,13.0,-374.0,201.0,25.0,0
2.0,-259.0,12.0,-368.0,192.0,15.0,0
0.0,-257.0,16.0,-359.0,180.0,6.0,0
2.0,-261.0,11.0,-346.0,172.0,-6.0,0
6.0,-260.0,16.0,-331.0,169.0,-17.0,0
11.0,-263.0,10.0,-320.0,170.0,-28.0,0
22.0,-261.0,11.0,-306.0,174.0,-42.0,0
26.0,-260.0,15.0,-282.0,182.0,-60.0,0
27.0,-255.0,10.0,-250.0,191.0,-81.0,0
30.0,-254.0,10.0,-220.0,201.0,-101.0,0
30.0,-253.0,12.0,-201.0,213.0,-121.0,0
28.0,-253.0,16.0,-195.0,222.0,-145.0,0
26.0,-250.0,18.0,-191.0,227.0,-168.0,0
25.0,-247.0,21.0,-186.0,228.0,-188.0,0
19.0,-245.0,21.0,-170.0,222.0,-206.0,0
13.0,-244.0,21.0,-147.0,208.0,-219.0,0
6.0,-236.0,25.0,-121.0,183.0,-229.0,0
-1.0,-233.0,27.0,-103.0,153.0,-234.0,0
-3.0,-228.0,28.0,-97.0,117.0,-234.0,0
-6.0,-228.0,28.0,-95.0,76.0,-232.0,0
-15.0,-225.0,31.0,-98.0,34.0,-231.0,0
-19.0,-228.0,35.0,-106.0,-17.0,-230.0,0
-17.0,-227.0,40.0,-112.0,-68.0,-229.0,0
-13.0,-233.0,43.0,-111.0,-121.0,-230.0,0
-12.0,-235.0,42.0,-100.0,-172.0,-235.0,0
-11.0,-239.0,47.0,-79.0,-227.0,-237.0,0
-10.0,-243.0,57.0,-47.0,-287.0,-240.0,0
-9.0,-245.0,61.0,-4.0,-347.0,-240.0,0
-10.0,-246.0,62.0,46.0,-401.0,-242.0,0
-14.0,-247.0,62.0,98.0,-447.0,-237.0,0
-11.0,-248.0,61.0,152.0,-488.0,-225.0,0
-14.0,-239.0,54.0,210.0,-524.0,-210.0,0
-17.0,-231.0,50.0,266.0,-561.0,-194.0,0
-11.0,-220.0,41.0,312.0,-585.0,-173.0,0
-11.0,-211.0,45.0,343.0,-595.0,-147.0,0
-7.0,-205.0,47.0,368.0,-593.0,-116.0,0
0.0,-193.0,43.0,390.0,-586.0,-86.0,0
2.0,-188.0,41.0,406.0,-573.0,-55.0,0
14.0,-184.0,35.0,417.0,-550.0,-25.0,0
20.0,-178.0,37.0,426.0,-517.0,6.0,0
33.0,-169.0,32.0,445.0,-476.0,30.0,0
49.0,-170.0,26.0,477.0,-426.0,48.0,0
60.0,-168.0,16.0,519.0,-347.0,65.0,0
74.0,-166.0,2.0,572.0,-272.0,81.0,0
87.0,-166.0,-12.0,627.0,-211.0,102.0,0
91.0,-163.0,-31.0,686.0,-172.0,126.0,0
91.0,-157.0,-65.0,737.0,-163.0,147.0,0
78.0,-161.0,-69.0,798.0,-181.0,163.0,0
63.0,-156.0,-99.0,854.0,-220.0,173.0,0
44.0,-145.0,-114.0,895.0,-276.0,180.0,0
16.0,-130.0,-118.0,935.0,-355.0,192.0,0
-5.0,-115.0,-113.0,988.0,-461.0,205.0,0
-28.0,-98.0,-100.0,1023.0,-598.0,209.0,0
-52.0,-89.0,-95.0,1009.0,-762.0,204.0,0
-72.0,-73.0,-71.0,935.0,-945.0,192.0,0
-96.0,-58.0,-48.0,863.0,-1128.0,187.0,0
-117.0,-50.0,-38.0,845.0,-1287.0,203.0,0
-133.0,-34.0,-14.0,844.0,-1415.0,234.0,0
-141.0,-5.0,13.0,862.0,-1506.0,273.0,0
-136.0,19.0,30.0,915.0,-1553.0,310.0,0
-117.0,55.0,29.0,972.0,-1553.0,342.0,0
-101.0,76.0,22.0,961.0,-1500.0,379.0,0
-83.0,99.0,22.0,850.0,-1401.0,437.0,0
-69.0,114.0,24.0,653.0,-1294.0,506.0,0
-51.0,125.0,13.0,396.0,-1190.0,562.0,0
-21.0,122.0,-15.0,86.0,-1064.0,602.0,0
2.0,110.0,-50.0,-302.0,-882.0,620.0,0
39.0,78.0,-98.0,-767.0,-622.0,597.0,0
68.0,8.0,-128.0,-1284.0,-290.0,521.0,0
80.0,-115.0,-129.0,-1771.0,73.0,365.0,0
88.0,-246.0,-121.0,-2088.0,433.0,123.0,0
111.0,-339.0,-135.0,-2088.0,748.0,-122.0,0
151.0,-444.0,-172.0,-1795.0,959.0,-305.0,0
175.0,-543.0,-172.0,-1407.0,1028.0,-433.0,0
167.0,-639.0,-92.0,-1092.0,918.0,-522.0,0
178.0,-695.0,-34.0,-906.0,694.0,-546.0,0
193.0,-774.0,0.0,-870.0,537.0,-507.0,0
173.0,-874.0,-46.0,-1028.0,555.0,-489.0,0
-1.0,-999.0,-85.0,-1386.0,729.0,-620.0,0
-274.0,-1098.0,-93.0,-1847.0,894.0,-878.0,0
-424.0,-1147.0,-102.0,-2152.0,916.0,-1032.0,0
-510.0,-1159.0,-95.0,-2115.0,780.0,-959.0,0
-464.0,-1111.0,-55.0,-1637.0,477.0,-713.0,0
-377.0,-978.0,-40.0,-813.0,95.0,-353.0,0
-275.0,-806.0,5.0,-8.0,-198.0,99.0,0
-215.0,-659.0,41.0,649.0,-387.0,524.0,0
-142.0,-444.0,58.0,1172.0,-512.0,836.0,0
-81.0,-231.0,48.0,1496.0,-598.0,1030.0,0
-35.0,-40.0,38.0,1604.0,-680.0,1137.0,0
9.0,109.0,4.0,1582.0,-773.0,1202.0,0
18.0,183.0,-52.0,1433.0,-841.0,1239.0,0
27.0,250.0,-110.0,1052.0,-810.0,1209.0,0
11.0,263.0,-150.0,440.0,-700.0,1091.0,0
-21.0,236.0,-133.0,-358.0,-582.0,876.0,0
-32.0,178.0,-100.0,-1145.0,-549.0,624.0,0
-16.0,60.0,-28.0,-1761.0,-587.0,405.0,0
1.0,-62.0,43.0,-2155.0,-637.0,222.0,0
26.0,-172.0,103.0,-2265.0,-664.0,92.0,0
47.0,-255.0,136.0,-2104.0,-660.0,13.0,0
60.0,-294.0,144.0,-1740.0,-622.0,-29.0,0
73.0,-301.0,129.0,-1262.0,-516.0,-40.0,0
95.0,-279.0,96.0,-756.0,-319.0,-28.0,0
112.0,-227.0,61.0,-295.0,-45.0,-15.0,0
117.0,-168.0,34.0,59.0,255.0,-22.0,0
122.0,-130.0,25.0,285.0,524.0,-52.0,0
117.0,-82.0,23.0,385.0,760.0,-106.0,0
109.0,-50.0,32.0,389.0,917.0,-174.0,0
103.0,-28.0,44.0,336.0,1067.0,-240.0,0
98.0,-18.0,53.0,307.0,1227.0,-290.0,0
89.0,-5.0,54.0,315.0,1384.0,-329.0,0
80.0,9.0,49.0,361.0,1514.0,-361.0,0
75.0,26.0,26.0,414.0,1607.0,-387.0,0
76.0,50.0,26.0,447.0,1678.0,-399.0,0
87.0,75.0,2.0,438.0,1741.0,-390.0,0
101.0,88.0,2.0,408.0,1808.0,-356.0,0
107.0,92.0,8.0,376.0,1878.0,-306.0,0
111.0,89.0,29.0,360.0,1935.0,-252.0,0
104.0,65.0,45.0,380.0,1954.0,-200.0,0
93.0,47.0,60.0,413.0,1930.0,-140.0,0
78.0,15.0,77.0,453.0,1870.0,-61.0,0
62.0,-5.0,87.0,515.0,1773.0,28.0,0
50.0,-26.0,79.0,593.0,1645.0,108.0,0
52.0,-36.0,55.0,636.0,1489.0,178.0,0
47.0,-40.0,31.0,642.0,1324.0,255.0,0
41.0,-48.0,-18.0,582.0,1232.0,347.0,0
58.0,-76.0,-80.0,413.0,1323.0,444.0,0
77.0,-134.0,-149.0,96.0,1562.0,505.0,0
52.0,-220.0,-135.0,-277.0,1709.0,493.0,0
-6.0,-286.0,-85.0,-430.0,1516.0,423.0,0
-71.0,-371.0,-25.0,-291.0,1055.0,384.0,0
-117.0,-434.0,-48.0,-36.0,680.0,431.0,0
-174.0,-477.0,-193.0,55.0,603.0,531.0,0
-273.0,-578.0,-332.0,-220.0,558.0,687.0,0
-352.0,-715.0,-278.0,-761.0,234.0,983.0,0
-343.0,-947.0,-52.0,-1110.0,-219.0,1408.0,0
-223.0,-1129.0,169.0,-1041.0,-710.0,1659.0,0
-108.0,-1181.0,288.0,-516.0,-1344.0,1443.0,0
-65.0,-1142.0,290.0,322.0,-1802.0,985.0,0
-38.0,-1081.0,248.0,1126.0,-1807.0,648.0,0
-8.0,-966.0,209.0,1674.0,-1596.0,323.0,0
37.0,-804.0,168.0,2017.0,-1389.0,-63.0,0
132.0,-610.0,104.0,2254.0,-1225.0,-426.0,0
218.0,-453.0,33.0,2558.0,-1053.0,-712.0,0
319.0,-233.0,-72.0,2978.0,-812.0,-935.0,0
336.0,-4.0,-161.0,3404.0,-491.0,-1121.0,0
279.0,214.0,-193.0,3497.0,-170.0,-1170.0,0
235.0,389.0,-198.0,3092.0,32.0,-1065.0,0
180.0,467.0,-201.0,2273.0,118.0,-951.0,0
112.0,466.0,-196.0,1198.0,168.0,-859.0,0
39.0,378.0,-151.0,169.0,191.0,-768.0,0
-56.0,257.0,-81.0,-521.0,189.0,-666.0,0
-120.0,142.0,-23.0,-790.0,168.0,-479.0,0
-154.0,77.0,-12.0,-709.0,93.0,-279.0,0
-179.0,17.0,-44.0,-504.0,7.0,-120.0,0
-178.0,-6.0,-104.0,-349.0,-27.0,-23.0,0
-167.0,-37.0,-178.0,-365.0,-8.0,34.0,0
-157.0,-82.0,-232.0,-605.0,36.0,54.0,0
-159.0,-125.0,-240.0,-1011.0,76.0,60.0,0
-124.0,-196.0,-214.0,-1394.0,82.0,98.0,0
-70.0,-279.0,-187.0,-1578.0,81.0,223.0,0
-3.0,-353.0,-194.0,-1507.0,122.0,387.0,0
36.0,-398.0,-220.0,-1288.0,178.0,481.0,0
67.0,-462.0,-239.0,-1085.0,163.0,492.0,0
91.0,-515.0,-229.0,-952.0,112.0,465.0,0
115.0,-575.0,-237.0,-848.0,117.0,408.0,0
94.0,-649.0,-246.0,-781.0,229.0,233.0,0
33.0,-710.0,-219.0,-822.0,386.0,-161.0,0
-77.0,-800.0,-136.0,-953.0,505.0,-762.0,0
-163.0,-874.0,-4.0,-1000.0,632.0,-1135.0,0
-208.0,-919.0,46.0,-741.0,722.0,-1351.0,0
-202.0,-911.0,54.0,-252.0,662.0,-1445.0,0
-175.0,-855.0,45.0,292.0,533.0,-1451.0,0
-149.0,-725.0,38.0,850.0,408.0,-1351.0,0
-134.0,-570.0,28.0,1146.0,258.0,-1099.0,0
-134.0,-426.0,12.0,1287.0,88.0,-710.0,0
-130.0,-314.0,3.0,1291.0,-43.0,-281.0,0
-130.0,-240.0,-2.0,1169.0,-127.0,75.0,0
-144.0,-148.0,9.0,977.0,-241.0,345.0,0
-142.0,-75.0,22.0,787.0,-438.0,585.0,0
-117.0,-13.0,22.0,627.0,-662.0,770.0,0
-87.0,29.0,11.0,453.0,-840.0,843.0,0
-68.0,45.0,4.0,235.0,-944.0,803.0,0
-38.0,41.0,-11.0,-4.0,-992.0,663.0,0
-37.0,11.0,-17.0,-243.0,-979.0,438.0,0
-44.0,-25.0,-9.0,-436.0,-903.0,204.0,0
-45.0,-56.0,-8.0,-537.0,-795.0,9.0,0
-31.0,-86.0,-7.0,-545.0,-663.0,-122.0,0
-1.0,-118.0,7.0,-452.0,-501.0,-180.0,0
31.0,-136.0,19.0,-287.0,-309.0,-194.0,0
57.0,-147.0,34.0,-94.0,-102.0,-202.0,0
72.0,-154.0,44.0,76.0,72.0,-217.0,0
92.0,-155.0,49.0,199.0,197.0,-249.0,0
113.0,-150.0,52.0,265.0,288.0,-287.0,0
124.0,-141.0,53.0,287.0,374.0,-325.0,0
125.0,-127.0,47.0,302.0,468.0,-343.0,0
115.0,-110.0,44.0,352.0,571.0,-357.0,0
106.0,-83.0,27.0,437.0,680.0,-370.0,0
98.0,-54.0,11.0,535.0,788.0,-383.0,0
80.0,-22.0,-7.0,629.0,883.0,-403.0,0
62.0,1.0,-22.0,668.0,951.0,-400.0,0
56.0,16.0,-21.0,621.0,984.0,-351.0,0
61.0,23.0,-17.0,528.0,979.0,-276.0,0
79.0,15.0,-28.0,431.0,944.0,-191.0,0
98.0,2.0,-53.0,352.0,888.0,-107.0,0
107.0,-17.0,-81.0,280.0,843.0,-21.0,0
113.0,-33.0,-95.0,167.0,866.0,71.0,0
116.0,-65.0,-105.0,15.0,978.0,157.0,0
116.0,-113.0,-115.0,-165.0,1145.0,214.0,0
83.0,-153.0,-110.0,-329.0,1258.0,226.0,0
53.0,-198.0,-96.0,-404.0,1181.0,209.0,0
7.0,-257.0,-88.0,-386.0,925.0,206.0,0
-27.0,-316.0,-60.0,-309.0,676.0,252.0,0
-78.0,-374.0,-3.0,-185.0,594.0,327.0,0
-145.0,-422.0,25.0,-49.0,612.0,380.0,0
-186.0,-460.0,18.0,28.0,550.0,410.0,0
-207.0,-515.0,-24.0,-39.0,366.0,443.0,0
-191.0,-598.0,-46.0,-254.0,122.0,491.0,0
-139.0,-700.0,-22.0,-476.0,-148.0,521.0,0
-68.0,-804.0,28.0,-558.0,-433.0,536.0,0
-32.0,-844.0,73.0,-465.0,-698.0,543.0,0
-21.0,-843.0,149.0,-186.0,-880.0,506.0,0
-10.0,-777.0,180.0,283.0,-919.0,429.0,0
10.0,-693.0,166.0,837.0,-868.0,335.0,0
43.0,-589.0,128.0,1324.0,-833.0,218.0,0
69.0,-499.0,91.0,1677.0,-807.0,76.0,0
86.0,-373.0,40.0,1945.0,-733.0,-87.0,0
99.0,-252.0,-12.0,2145.0,-610.0,-239.0,0
109.0,-122.0,-53.0,2302.0,-484.0,-344.0,0
128.0,4.0,-89.0,2429.0,-424.0,-395.0,0
128.0,77.0,-113.0,2437.0,-428.0,-431.0,0
95.0,156.0,-115.0,2170.0,-437.0,-510.0,0
52.0,198.0,-102.0,1678.0,-440.0,-583.0,0
12.0,188.0,-83.0,1093.0,-448.0,-561.0,0
-3.0,143.0,-66.0,539.0,-446.0,-478.0,0
-27.0,61.0,-39.0,136.0,-421.0,-367.0,0
-47.0,-37.0,-17.0,-68.0,-391.0,-238.0,0
-67.0,-121.0,7.0,-100.0,-420.0,-119.0,0
-68.0,-169.0,11.0,3.0,-520.0,-48.0,0
-65.0,-181.0,10.0,156.0,-646.0,-21.0,0
-49.0,-167.0,8.0,214.0,-724.0,3.0,0
-37.0,-146.0,-18.0,181.0,-710.0,49.0,0
-34.0,-128.0,-74.0,65.0,-604.0,130.0,0
-43.0,-125.0,-151.0,-96.0,-463.0,218.0,0
-69.0,-134.0,-191.0,-286.0,-367.0,274.0,0
-109.0,-161.0,-192.0,-487.0,-344.0,306.0,0
-79.0,-188.0,-138.0,-592.0,-406.0,361.0,0
-14.0,-214.0,-124.0,-508.0,-403.0,449.0,0
33.0,-249.0,-134.0,-383.0,-205.0,483.0,0
33.0,-278.0,-144.0,-359.0,51.0,383.0,0
13.0,-319.0,-138.0,-439.0,143.0,205.0,0
19.0,-363.0,-127.0,-524.0,21.0,89.0,0
63.0,-423.0,-138.0,-573.0,-116.0,86.0,0
104.0,-490.0,-146.0,-633.0,-68.0,75.0,0
96.0,-585.0,-145.0,-774.0,149.0,-64.0,0
55.0,-680.0,-94.0,-937.0,390.0,-303.0,0
-11.0,-774.0,-29.0,-957.0,536.0,-552.0,0
-91.0,-834.0,15.0,-795.0,547.0,-804.0,0
-138.0,-842.0,40.0,-566.0,448.0,-974.0,0
-129.0,-805.0,59.0,-328.0,362.0,-964.0,0
-106.0,-724.0,60.0,-97.0,351.0,-834.0,0
-136.0,-620.0,55.0,118.0,346.0,-652.0,0
-162.0,-518.0,50.0,338.0,285.0,-440.0,0
-205.0,-435.0,26.0,524.0,169.0,-234.0,0
-215.0,-341.0,22.0,629.0,15.0,-59.0,0
-210.0,-257.0,27.0,631.0,-151.0,86.0,0
-190.0,-181.0,31.0,546.0,-290.0,209.0,0
-162.0,-117.0,31.0,428.0,-381.0,313.0,0
-135.0,-86.0,16.0,305.0,-438.0,391.0,0
-100.0,-65.0,-4.0,168.0,-489.0,423.0,0
-73.0,-60.0,-5.0,26.0,-525.0,403.0,0
-55.0,-68.0,6.0,-89.0,-526.0,338.0,0
-39.0,-81.0,12.0,-159.0,-497.0,266.0,0
-24.0,-94.0,10.0,-192.0,-452.0,203.0,0
1.0,-109.0,8.0,-197.0,-386.0,150.0,0
31.0,-120.0,9.0,-171.0,-292.0,109.0,0
58.0,-127.0,10.0,-132.0,-180.0,78.0,0
73.0,-133.0,14.0,-84.0,-55.0,53.0,0
99.0,-138.0,17.0,-23.0,58.0,35.0,0
112.0,-135.0,20.0,55.0,148.0,-9.0,0
122.0,-129.0,25.0,152.0,223.0,-76.0,0
125.0,-113.0,36.0,262.0,305.0,-151.0,0
123.0,-97.0,35.0,393.0,399.0,-216.0,0
114.0,-69.0,49.0,511.0,498.0,-266.0,0
93.0,-47.0,46.0,605.0,595.0,-293.0,0
75.0,-23.0,38.0,647.0,683.0,-303.0,0
57.0,0.0,39.0,643.0,756.0,-304.0,0
47.0,16.0,36.0,633.0,807.0,-297.0,0
35.0,26.0,19.0,649.0,844.0,-282.0,0
36.0,38.0,7.0,628.0,880.0,-251.0,0
39.0,44.0,0.0,552.0,918.0,-196.0,0
62.0,45.0,3.0,447.0,949.0,-131.0,0
90.0,43.0,-3.0,382.0,980.0,-73.0,0
121.0,39.0,-39.0,392.0,1031.0,-45.0,0
123.0,27.0,-80.0,402.0,1091.0,-30.0,0
111.0,1.0,-115.0,291.0,1124.0,-13.0,0
103.0,-34.0,-116.0,-8.0,1110.0,19.0,0
82.0,-87.0,-105.0,-399.0,1017.0,74.0,0
46.0,-159.0,-78.0,-712.0,810.0,160.0,0
22.0,-246.0,-40.0,-867.0,506.0,302.0,0
-2.0,-337.0,12.0,-855.0,273.0,491.0,0
-39.0,-395.0,48.0,-688.0,250.0,660.0,0
-121.0,-471.0,92.0,-437.0,329.0,700.0,0
-198.0,-529.0,133.0,-222.0,385.0,727.0,0
-246.0,-592.0,167.0,-121.0,416.0,799.0,0
-268.0,-675.0,133.0,-181.0,372.0,857.0,0
-255.0,-731.0,57.0,-408.0,209.0,894.0,0
-176.0,-821.0,-35.0,-753.0,-43.0,963.0,0
-23.0,-917.0,-44.0,-797.0,-298.0,1046.0,0
116.0,-966.0,8.0,-437.0,-443.0,1059.0,0
149.0,-926.0,65.0,206.0,-463.0,967.0,0
125.0,-843.0,111.0,902.0,-502.0,786.0,0
114.0,-705.0,116.0,1496.0,-601.0,569.0,0
110.0,-560.0,64.0,1906.0,-666.0,314.0,0
97.0,-417.0,-25.0,2142.0,-668.0,28.0,0
77.0,-324.0,-87.0,2224.0,-630.0,-249.0,0
63.0,-204.0,-121.0,2196.0,-551.0,-460.0,0
62.0,-94.0,-138.0,2097.0,-441.0,-575.0,0
81.0,-6.0,-151.0,1850.0,-335.0,-588.0,0
76.0,69.0,-139.0,1485.0,-284.0,-582.0,0
53.0,113.0,-149.0,1113.0,-276.0,-568.0,0
23.0,125.0,-145.0,711.0,-280.0,-476.0,0
-5.0,94.0,-113.0,248.0,-264.0,-344.0,0
-48.0,43.0,-54.0,-203.0,-216.0,-216.0,0
-84.0,-16.0,15.0,-498.0,-160.0,-65.0,0
-104.0,-58.0,53.0,-613.0,-141.0,103.0,0
-110.0,-95.0,94.0,-590.0,-154.0,245.0,0
-114.0,-116.0,124.0,-440.0,-178.0,341.0,0
-120.0,-120.0,124.0,-222.0,-205.0,395.0,0
-113.0,-112.0,102.0,-4.0,-236.0,419.0,0
-98.0,-91.0,77.0,179.0,-274.0,410.0,0
-63.0,-61.0,43.0,313.0,-298.0,406.0,0
-31.0,-29.0,-9.0,408.0,-301.0,439.0,0
-4.0,-2.0,-56.0,446.0,-324.0,485.0,0
6.0,24.0,-120.0,387.0,-364.0,513.0,0
6.0,26.0,-170.0,171.0,-352.0,528.0,0
16.0,10.0,-194.0,-207.0,-240.0,533.0,0
47.0,-55.0,-181.0,-618.0,-57.0,523.0,0
60.0,-149.0,-161.0,-943.0,95.0,450.0,0
50.0,-222.0,-147.0,-1134.0,177.0,320.0,0
44.0,-315.0,-127.0,-1175.0,248.0,198.0,0
35.0,-401.0,-103.0,-1109.0,369.0,112.0,0
22.0,-500.0,-68.0,-1017.0,516.0,24.0,0
9.0,-603.0,-46.0,-963.0,628.0,-102.0,0
-14.0,-682.0,-27.0,-947.0,704.0,-277.0,0
-65.0,-761.0,-2.0,-915.0,743.0,-454.0,0
-120.0,-813.0,13.0,-817.0,729.0,-544.0,0
-135.0,-825.0,3.0,-663.0,685.0,-521.0,0
-133.0,-802.0,-22.0,-477.0,638.0,-453.0,0
-131.0,-763.0,-47.0,-276.0,567.0,-383.0,0
-134.0,-695.0,-61.0,-60.0,498.0,-326.0,0
-135.0,-617.0,-41.0,182.0,454.0,-299.0,0
-142.0,-540.0,-10.0,439.0,411.0,-310.0,0
-163.0,-458.0,21.0,675.0,335.0,-325.0,0
-170.0,-398.0,27.0,863.0,217.0,-285.0,0
-161.0,-325.0,23.0,1010.0,97.0,-169.0,0
-157.0,-264.0,21.0,1096.0,16.0,-48.0,0
-142.0,-205.0,30.0,1115.0,-51.0,22.0,0
-127.0,-163.0,37.0,1116.0,-163.0,62.0,0
-97.0,-117.0,27.0,1109.0,-296.0,112.0,0
-62.0,-74.0,16.0,1085.0,-383.0,170.0,0
-25.0,-38.0,14.0,1041.0,-411.0,205.0,0
1.0,-18.0,11.0,1001.0,-407.0,193.0,0
16.0,-1.0,17.0,948.0,-392.0,137.0,0
32.0,6.0,24.0,872.0,-386.0,55.0,0
41.0,19.0,25.0,780.0,-385.0,-42.0,0
45.0,23.0,21.0,686.0,-381.0,-151.0,0
51.0,33.0,21.0,583.0,-371.0,-262.0,0
60.0,43.0,20.0,479.0,-335.0,-374.0,0
68.0,57.0,22.0,416.0,-270.0,-439.0,0
72.0,61.0,24.0,388.0,-161.0,-474.0,0
78.0,55.0,12.0,336.0,-70.0,-482.0,0
83.0,44.0,14.0,206.0,6.0,-467.0,0
88.0,35.0,21.0,-3.0,64.0,-446.0,0
100.0,17.0,31.0,-143.0,115.0,-440.0,0
124.0,-1.0,39.0,-217.0,175.0,-452.0,0
134.0,-8.0,33.0,-233.0,254.0,-461.0,0
134.0,-16.0,39.0,-206.0,347.0,-470.0,0
120.0,-29.0,44.0,-130.0,437.0,-486.0,0
96.0,-37.0,52.0,-13.0,508.0,-518.0,0
78.0,-49.0,58.0,123.0,565.0,-563.0,0
77.0,-62.0,47.0,279.0,613.0,-601.0,0
81.0,-66.0,41.0,448.0,664.0,-638.0,0
67.0,-68.0,9.0,577.0,710.0,-683.0,0
46.0,-64.0,-13.0,597.0,728.0,-730.0,0
30.0,-64.0,-38.0,423.0,701.0,-728.0,0
17.0,-101.0,-36.0,24.0,651.0,-631.0,0
16.0,-163.0,-11.0,-492.0,592.0,-431.0,0
15.0,-269.0,41.0,-874.0,486.0,-167.0,0
14.0,-382.0,60.0,-945.0,304.0,109.0,0
-2.0,-459.0,16.0,-782.0,94.0,345.0,0
-51.0,-523.0,-16.0,-569.0,-56.0,543.0,0
-129.0,-568.0,1.0,-415.0,-133.0,730.0,0
-257.0,-615.0,68.0,-301.0,-230.0,929.0,0
-325.0,-638.0,123.0,-146.0,-421.0,1108.0,0
-314.0,-651.0,152.0,91.0,-658.0,1181.0,0
-265.0,-647.0,149.0,318.0,-868.0,1141.0,0
-215.0,-640.0,121.0,483.0,-1004.0,1072.0,0
-122.0,-626.0,58.0,587.0,-1100.0,1058.0,0
-2.0,-595.0,-13.0,670.0,-1245.0,1068.0,0
96.0,-559.0,-63.0,754.0,-1379.0,1019.0,0
133.0,-517.0,-69.0,830.0,-1410.0,873.0,0
161.0,-456.0,-48.0,941.0,-1335.0,678.0,0
166.0,-386.0,-29.0,1108.0,-1210.0,447.0,0
157.0,-322.0,-54.0,1296.0,-1048.0,179.0,0
135.0,-242.0,-89.0,1425.0,-849.0,-83.0,0
128.0,-180.0,-121.0,1472.0,-665.0,-284.0,0
128.0,-110.0,-140.0,1416.0,-561.0,-400.0,0
124.0,-62.0,-130.0,1262.0,-526.0,-493.0,0
113.0,-31.0,-129.0,1054.0,-500.0,-584.0,0
84.0,-3.0,-128.0,752.0,-446.0,-607.0,0
61.0,5.0,-114.0,336.0,-354.0,-521.0,0
31.0,7.0,-62.0,-108.0,-265.0,-396.0,0
-6.0,0.0,-3.0,-460.0,-201.0,-283.0,0
-33.0,-23.0,44.0,-684.0,-161.0,-159.0,0
-41.0,-58.0,84.0,-806.0,-149.0,-34.0,0
-36.0,-82.0,101.0,-832.0,-153.0,78.0,0
-47.0,-100.0,120.0,-761.0,-156.0,170.0,0
-62.0,-116.0,129.0,-604.0,-190.0,263.0,0
-81.0,-123.0,120.0,-415.0,-255.0,382.0,0
-90.0,-126.0,86.0,-264.0,-275.0,540.0,0
-71.0,-137.0,22.0,-227.0,-157.0,697.0,0
-35.0,-169.0,-21.0,-348.0,71.0,803.0,0
6.0,-212.0,-49.0,-594.0,283.0,829.0,0
29.0,-279.0,-56.0,-841.0,411.0,786.0,0
34.0,-342.0,-65.0,-994.0,499.0,689.0,0
29.0,-415.0,-61.0,-1027.0,568.0,563.0,0
25.0,-463.0,-61.0,-926.0,591.0,484.0,0
32.0,-518.0,-67.0,-741.0,607.0,489.0,0
24.0,-586.0,-40.0,-605.0,652.0,510.0,0
9.0,-641.0,-11.0,-597.0,707.0,459.0,0
-39.0,-697.0,8.0,-675.0,734.0,318.0,0
-108.0,-751.0,-6.0,-773.0,728.0,125.0,0
-191.0,-794.0,-10.0,-829.0,665.0,-123.0,0
-254.0,-794.0,-10.0,-716.0,528.0,-407.0,0
-277.0,-764.0,-14.0,-378.0,356.0,-670.0,0
-252.0,-714.0,-2.0,40.0,202.0,-750.0,0
-200.0,-638.0,53.0,362.0,116.0,-795.0,0
-168.0,-547.0,81.0,625.0,89.0,-844.0,0
-155.0,-475.0,92.0,874.0,76.0,-838.0,0
-132.0,-395.0,78.0,1110.0,54.0,-748.0,0
-118.0,-318.0,65.0,1296.0,21.0,-623.0,0
-100.0,-236.0,40.0,1505.0,-59.0,-475.0,0
-68.0,-165.0,8.0,1657.0,-194.0,-312.0,0
-48.0,-110.0,-1.0,1701.0,-312.0,-183.0,0
-27.0,-51.0,-11.0,1600.0,-340.0,-130.0,0
-15.0,-15.0,2.0,1335.0,-286.0,-120.0,0
-7.0,-5.0,30.0,981.0,-203.0,-118.0,0
-4.0,-18.0,59.0,656.0,-143.0,-121.0,0
0.0,-26.0,65.0,439.0,-128.0,-123.0,0
10.0,-58.0,66.0,330.0,-148.0,-112.0,0
22.0,-82.0,58.0,272.0,-183.0,-85.0,0
36.0,-119.0,51.0,244.0,-212.0,-50.0,0
41.0,-147.0,47.0,236.0,-214.0,-21.0,0
52.0,-161.0,54.0,241.0,-180.0,-1.0,0
55.0,-191.0,57.0,279.0,-110.0,-4.0,0
55.0,-205.0,55.0,326.0,-18.0,-37.0,0
45.0,-217.0,49.0,366.0,76.0,-72.0,0
27.0,-218.0,41.0,390.0,163.0,-121.0,0
10.0,-220.0,28.0,397.0,245.0,-182.0,0
-4.0,-220.0,17.0,391.0,319.0,-234.0,0
-20.0,-226.0,1.0,372.0,383.0,-281.0,0
-33.0,-235.0,-15.0,292.0,443.0,-307.0,0
-36.0,-248.0,-20.0,128.0,491.0,-292.0,0
-45.0,-255.0,-24.0,-41.0,508.0,-269.0,0
-59.0,-252.0,-30.0,-126.0,495.0,-239.0,0
-64.0,-241.0,-47.0,-100.0,449.0,-184.0,0
-71.0,-214.0,-74.0,24.0,388.0,-128.0,0
-62.0,-197.0,-87.0,172.0,336.0,-83.0,0
-45.0,-160.0,-105.0,287.0,301.0,-66.0,0
-36.0,-134.0,-109.0,341.0,279.0,-70.0,0
-34.0,-111.0,-104.0,336.0,268.0,-99.0,0
-35.0,-99.0,-89.0,291.0,255.0,-129.0,0
-35.0,-91.0,-74.0,248.0,232.0,-162.0,0
-35.0,-86.0,-46.0,238.0,211.0,-198.0,0
-20.0,-79.0,-25.0,264.0,220.0,-237.0,0
1.0,-71.0,-5.0,301.0,295.0,-278.0,0
57.0,-70.0,13.0,311.0,445.0,-295.0,0
111.0,-80.0,30.0,264.0,653.0,-304.0,0
167.0,-100.0,47.0,160.0,896.0,-322.0,0
195.0,-126.0,48.0,15.0,1111.0,-342.0,0
166.0,-154.0,33.0,-157.0,1217.0,-335.0,0
124.0,-182.0,17.0,-353.0,1193.0,-294.0,0
70.0,-222.0,-11.0,-551.0,1057.0,-263.0,0
16.0,-273.0,-38.0,-661.0,858.0,-253.0,0
-15.0,-333.0,-59.0,-651.0,654.0,-189.0,0
-5.0,-398.0,-48.0,-577.0,496.0,5.0,0
6.0,-454.0,-15.0,-475.0,438.0,265.0,0
-7.0,-518.0,10.0,-381.0,453.0,514.0,0
-47.0,-595.0,22.0,-371.0,464.0,721.0,0
-96.0,-674.0,39.0,-461.0,447.0,815.0,0
-138.0,-732.0,42.0,-547.0,408.0,772.0,0
-153.0,-767.0,25.0,-570.0,332.0,676.0,0
-123.0,-798.0,-11.0,-526.0,196.0,633.0,0
-32.0,-821.0,-46.0,-419.0,64.0,649.0,0
65.0,-823.0,-69.0,-291.0,0.0,701.0,0
148.0,-816.0,-90.0,-170.0,-17.0,777.0,0
163.0,-795.0,-87.0,-55.0,-41.0,818.0,0
117.0,-761.0,-67.0,46.0,-132.0,777.0,0
62.0,-716.0,-30.0,140.0,-263.0,654.0,0
14.0,-658.0,-4.0,283.0,-360.0,456.0,0
-27.0,-605.0,9.0,487.0,-392.0,217.0,0
-67.0,-516.0,6.0,714.0,-422.0,2.0,0
-88.0,-424.0,-7.0,925.0,-470.0,-163.0,0
-91.0,-331.0,-11.0,1087.0,-497.0,-295.0,0
-92.0,-241.0,-10.0,1175.0,-487.0,-434.0,0
-90.0,-189.0,-8.0,1177.0,-449.0,-530.0,0
-84.0,-131.0,11.0,1081.0,-409.0,-602.0,0
-73.0,-97.0,30.0,902.0,-389.0,-643.0,0
-66.0,-86.0,30.0,679.0,-401.0,-632.0,0
-52.0,-85.0,35.0,437.0,-437.0,-589.0,0
-41.0,-94.0,14.0,196.0,-483.0,-546.0,0
-20.0,-104.0,9.0,-46.0,-508.0,-516.0,0
-8.0,-127.0,12.0,-188.0,-506.0,-509.0,0
-8.0,-138.0,14.0,-297.0,-503.0,-508.0,0
-9.0,-157.0,19.0,-376.0,-513.0,-485.0,0
-4.0,-176.0,28.0,-447.0,-539.0,-441.0,0
8.0,-195.0,39.0,-511.0,-574.0,-384.0,0
26.0,-212.0,48.0,-556.0,-614.0,-326.0,0
35.0,-226.0,47.0,-566.0,-658.0,-277.0,0
37.0,-233.0,55.0,-538.0,-703.0,-229.0,0
37.0,-241.0,56.0,-482.0,-753.0,-178.0,0
30.0,-241.0,51.0,-408.0,-823.0,-137.0,0
31.0,-240.0,51.0,-328.0,-906.0,-104.0,0
28.0,-236.0,49.0,-246.0,-987.0,-65.0,0
16.0,-226.0,42.0,-168.0,-1052.0,-23.0,0
3.0,-210.0,38.0,-99.0,-1108.0,17.0,0
-9.0,-188.0,31.0,-30.0,-1169.0,47.0,0
-12.0,-163.0,22.0,36.0,-1210.0,69.0,0
-9.0,-136.0,9.0,103.0,-1223.0,80.0,0
-7.0,-121.0,8.0,163.0,-1208.0,92.0,0
-2.0,-106.0,1.0,180.0,-1182.0,102.0,0
2.0,-105.0,1.0,147.0,-1150.0,108.0,0
16.0,-111.0,4.0,94.0,-1114.0,113.0,0
27.0,-128.0,-3.0,35.0,-1068.0,102.0,0
34.0,-137.0,-5.0,-20.0,-1003.0,71.0,0
41.0,-151.0,-7.0,-54.0,-924.0,34.0,0
44.0,-156.0,-17.0,-52.0,-840.0,-3.0,0
51.0,-163.0,-30.0,-19.0,-753.0,-33.0,0
57.0,-171.0,-40.0,13.0,-661.0,-56.0,0
60.0,-174.0,-45.0,26.0,-569.0,-79.0,0
60.0,-183.0,-43.0,30.0,-494.0,-115.0,0
61.0,-185.0,-28.0,27.0,-442.0,-163.0,0
69.0,-190.0,-16.0,20.0,-431.0,-212.0,0
68.0,-191.0,-6.0,5.0,-454.0,-251.0,0
64.0,-191.0,8.0,-11.0,-483.0,-278.0,0
66.0,-194.0,14.0,-36.0,-502.0,-288.0,0
64.0,-198.0,21.0,-73.0,-515.0,-283.0,0
59.0,-200.0,15.0,-133.0,-524.0,-276.0,0
53.0,-201.0,12.0,-236.0,-537.0,-276.0,0
35.0,-212.0,-3.0,-391.0,-547.0,-280.0,0
20.0,-221.0,-41.0,-580.0,-533.0,-289.0,0
7.0,-242.0,-89.0,-789.0,-456.0,-304.0,0
-24.0,-292.0,-116.0,-1004.0,-311.0,-358.0,0
-67.0,-331.0,-113.0,-1182.0,-180.0,-468.0,0
-125.0,-400.0,-62.0,-1223.0,-187.0,-601.0,0
-133.0,-460.0,-32.0,-1052.0,-308.0,-675.0,0
-121.0,-482.0,-25.0,-717.0,-408.0,-663.0,0
-95.0,-479.0,-48.0,-357.0,-428.0,-597.0,0
-86.0,-469.0,-65.0,-112.0,-408.0,-514.0,0
-83.0,-459.0,-75.0,-32.0,-399.0,-444.0,0
-71.0,-450.0,-63.0,-42.0,-403.0,-375.0,0
-63.0,-429.0,-62.0,-34.0,-397.0,-316.0,0
-59.0,-412.0,-74.0,31.0,-369.0,-271.0,0
-57.0,-385.0,-78.0,99.0,-323.0,-228.0,0
-49.0,-359.0,-82.0,140.0,-273.0,-174.0,0
-46.0,-335.0,-78.0,151.0,-246.0,-112.0,0
-43.0,-314.0,-70.0,142.0,-231.0,-43.0,0
-46.0,-297.0,-63.0,135.0,-214.0,30.0,0
-45.0,-266.0,-59.0,151.0,-192.0,104.0,0
-41.0,-243.0,-54.0,180.0,-164.0,180.0,0
-28.0,-223.0,-40.0,200.0,-130.0,249.0,0
-14.0,-205.0,-38.0,194.0,-91.0,306.0,0
-4.0,-195.0,-29.0,159.0,-46.0,350.0,0
8.0,-187.0,-11.0,107.0,9.0,395.0,0
20.0,-185.0,-1.0,52.0,72.0,441.0,0
12.0,-187.0,2.0,1.0,143.0,487.0,0
11.0,-195.0,1.0,-49.0,215.0,532.0,0
8.0,-201.0,-2.0,-99.0,279.0,584.0,0
1.0,-210.0,-8.0,-144.0,332.0,622.0,0
-3.0,-217.0,-11.0,-180.0,379.0,655.0,0
-6.0,-226.0,-10.0,-206.0,426.0,680.0,0
-13.0,-229.0,-7.0,-224.0,457.0,687.0,0
-14.0,-230.0,-5.0,-228.0,478.0,676.0,0
-17.0,-229.0,-3.0,-216.0,489.0,656.0,0
-15.0,-225.0,-1.0,-202.0,489.0,626.0,0
-21.0,-223.0,6.0,-188.0,486.0,583.0,0
-24.0,-218.0,2.0,-176.0,485.0,534.0,0
-28.0,-211.0,3.0,-174.0,489.0,476.0,0
-34.0,-207.0,3.0,-180.0,499.0,414.0,0
-35.0,-203.0,7.0,-191.0,520.0,352.0,0
-36.0,-198.0,1.0,-202.0,552.0,298.0,0
-31.0,-199.0,-1.0,-204.0,585.0,247.0,0
-36.0,-194.0,-1.0,-207.0,616.0,200.0,0
-37.0,-194.0,-5.0,-211.0,635.0,164.0,0
-32.0,-189.0,-7.0,-218.0,642.0,130.0,0
-31.0,-180.0,-8.0,-225.0,636.0,101.0,0
-28.0,-189.0,-6.0,-234.0,621.0,80.0,0
-31.0,-188.0,1.0,-250.0,600.0,57.0,0
-31.0,-192.0,0.0,-277.0,575.0,38.0,0
-32.0,-201.0,10.0,-311.0,550.0,18.0,0
-34.0,-212.0,19.0,-342.0,519.0,-1.0,0
-41.0,-218.0,23.0,-366.0,483.0,-24.0,0
-47.0,-232.0,33.0,-378.0,448.0,-45.0,0
-52.0,-242.0,32.0,-375.0,415.0,-64.0,0
-53.0,-253.0,24.0,-358.0,381.0,-80.0,0
-50.0,-260.0,16.0,-328.0,351.0,-90.0,0
-47.0,-272.0,20.0,-299.0,332.0,-97.0,0
-40.0,-283.0,21.0,-259.0,327.0,-100.0,0
-36.0,-288.0,20.0,-211.0,332.0,-103.0,0
-27.0,-294.0,18.0,-157.0,343.0,-101.0,0
-23.0,-298.0,16.0,-104.0,355.0,-97.0,0
-22.0,-301.0,15.0,-53.0,365.0,-95.0,0
-19.0,-307.0,11.0,-5.0,378.0,-98.0,0
-22.0,-306.0,5.0,35.0,394.0,-98.0,0
-19.0,-306.0,-10.0,64.0,407.0,-93.0,0
-19.0,-307.0,-8.0,96.0,422.0,-93.0,0
-23.0,-301.0,-13.0,136.0,433.0,-98.0,0
-25.0,-300.0,-20.0,182.0,445.0,-101.0,0
-28.0,-296.0,-31.0,208.0,458.0,-97.0,0
-34.0,-296.0,-35.0,205.0,460.0,-88.0,0
-38.0,-291.0,-34.0,181.0,445.0,-81.0,0
-37.0,-292.0,-30.0,162.0,418.0,-72.0,0
-38.0,-290.0,-29.0,165.0,391.0,-66.0,0
-42.0,-280.0,-32.0,183.0,370.0,-67.0,0
-47.0,-273.0,-29.0,194.0,356.0,-71.0,0
-47.0,-271.0,-26.0,195.0,340.0,-70.0,0
-46.0,-265.0,-24.0,187.0,327.0,-62.0,0
-47.0,-262.0,-11.0,178.0,316.0,-51.0,0
-42.0,-261.0,-9.0,187.0,307.0,-40.0,0
-40.0,-253.0,-3.0,213.0,292.0,-28.0,0
-32.0,-243.0,-13.0,247.0,279.0,-11.0,0
-24.0,-233.0,-14.0,274.0,273.0,4.0,0
-19.0,-224.0,-17.0,287.0,277.0,16.0,0
-17.0,-219.0,-19.0,281.0,284.0,28.0,0
-18.0,-214.0,-17.0,260.0,281.0,40.0,0
-18.0,-207.0,-18.0,227.0,264.0,53.0,0
-23.0,-206.0,-19.0,195.0,236.0,68.0,0
-26.0,-206.0,-16.0,169.0,205.0,84.0,0
-27.0,-209.0,-12.0,149.0,172.0,101.0,0
-30.0,-208.0,-11.0,143.0,139.0,110.0,0
-34.0,-210.0,-9.0,142.0,112.0,116.0,0
-33.0,-214.0,-12.0,136.0,89.0,119.0,0
-34.0,-223.0,-16.0,115.0,64.0,117.0,0
-30.0,-229.0,-20.0,77.0,36.0,111.0,0
-28.0,-233.0,-15.0,40.0,11.0,97.0,0
-28.0,-237.0,-22.0,16.0,-8.0,72.0,0
-22.0,-242.0,-18.0,10.0,-21.0,39.0,0
-21.0,-248.0,-20.0,12.0,-31.0,7.0,0
-17.0,-248.0,-22.0,16.0,-37.0,-25.0,0
-12.0,-246.0,-27.0,14.0,-39.0,-50.0,0
-10.0,-240.0,-31.0,2.0,-41.0,-75.0,0
-7.0,-244.0,-31.0,-19.0,-42.0,-95.0,0
-4.0,-241.0,-36.0,-48.0,-42.0,-111.0,0
-3.0,-239.0,-40.0,-83.0,-42.0,-127.0,0
1.0,-240.0,-46.0,-128.0,-39.0,-133.0,0
5.0,-241.0,-42.0,-163.0,-34.0,-136.0,0
12.0,-247.0,-42.0,-195.0,-25.0,-133.0,0
10.0,-247.0,-34.0,-216.0,-18.0,-126.0,0
15.0,-253.0,-34.0,-232.0,-13.0,-114.0,0
15.0,-260.0,-34.0,-245.0,-14.0,-98.0,0
13.0,-264.0,-34.0,-254.0,-19.0,-79.0,0
16.0,-270.0,-35.0,-255.0,-25.0,-63.0,0
19.0,-275.0,-40.0,-244.0,-32.0,-46.0,0
16.0,-278.0,-43.0,-225.0,-40.0,-33.0,0
17.0,-275.0,-45.0,-199.0,-49.0,-26.0,0
15.0,-277.0,-51.0,-167.0,-55.0,-19.0,0
10.0,-270.0,-53.0,-136.0,-62.0,-18.0,0
7.0,-270.0,-55.0,-109.0,-70.0,-22.0,0
9.0,-266.0,-54.0,-94.0,-77.0,-27.0,0
3.0,-259.0,-53.0,-85.0,-85.0,-29.0,0
2.0,-253.0,-53.0,-84.0,-94.0,-30.0,0
-1.0,-244.0,-34.0,-90.0,-103.0,-27.0,0
-8.0,-248.0,-41.0,-94.0,-110.0,-26.0,0
-12.0,-250.0,-31.0,-99.0,-115.0,-16.0,0
-1.0,-258.0,-15.0,-102.0,-116.0,-5.0,0
17.0,-260.0,-5.0,-99.0,-114.0,3.0,0
18.0,-262.0,-1.0,-82.0,-98.0,12.0,0
0.0,-265.0,2.0,-56.0,-66.0,39.0,0
-18.0,-268.0,5.0,-32.0,-55.0,79.0,0
-9.0,-271.0,12.0,-8.0,-85.0,96.0,0
9.0,-267.0,10.0,28.0,-126.0,84.0,0
13.0,-265.0,5.0,83.0,-144.0,51.0,0
20.0,-260.0,-2.0,133.0,-136.0,9.0,0
36.0,-249.0,-11.0,159.0,-124.0,-37.0,0
44.0,-235.0,-29.0,168.0,-125.0,-75.0,0
54.0,-227.0,-44.0,155.0,-130.0,-104.0,0
74.0,-224.0,-48.0,118.0,-121.0,-122.0,0
90.0,-234.0,-45.0,61.0,-86.0,-125.0,0
90.0,-244.0,-36.0,-7.0,-25.0,-107.0,0
81.0,-252.0,-25.0,-70.0,47.0,-79.0,0
68.0,-260.0,-22.0,-100.0,115.0,-54.0,0
60.0,-265.0,-24.0,-91.0,179.0,-45.0,0
43.0,-261.0,-27.0,-53.0,240.0,-44.0,0
39.0,-257.0,-27.0,-11.0,295.0,-54.0,0
40.0,-249.0,-32.0,12.0,345.0,-76.0,0
41.0,-243.0,-34.0,11.0,393.0,-101.0,0
43.0,-238.0,-31.0,-4.0,442.0,-126.0,0
39.0,-241.0,-32.0,-24.0,492.0,-140.0,0
40.0,-240.0,-37.0,-36.0,540.0,-138.0,0
50.0,-244.0,-33.0,-44.0,584.0,-131.0,0
58.0,-248.0,-24.0,-53.0,637.0,-123.0,0
58.0,-256.0,-9.0,-51.0,709.0,-119.0,0
52.0,-261.0,2.0,-33.0,791.0,-120.0,0
33.0,-266.0,8.0,-14.0,869.0,-122.0,0
15.0,-276.0,9.0,-7.0,928.0,-124.0,0
-7.0,-277.0,5.0,-15.0,969.0,-130.0,0
-28.0,-279.0,11.0,-26.0,990.0,-139.0,0
-53.0,-279.0,10.0,-28.0,991.0,-150.0,0
-74.0,-266.0,8.0,-12.0,978.0,-154.0,0
-79.0,-258.0,-4.0,13.0,948.0,-154.0,0
-72.0,-252.0,-7.0,41.0,907.0,-149.0,0
-65.0,-242.0,-18.0,53.0,866.0,-143.0,0
-49.0,-232.0,-30.0,50.0,829.0,-130.0,0
-39.0,-235.0,-34.0,33.0,795.0,-115.0,0
-30.0,-229.0,-38.0,7.0,758.0,-92.0,0
-18.0,-232.0,-36.0,-17.0,725.0,-72.0,0
-16.0,-232.0,-36.0,-38.0,696.0,-54.0,0
-12.0,-236.0,-35.0,-55.0,663.0,-39.0,0
-8.0,-241.0,-26.0,-66.0,633.0,-27.0,0
-7.0,-238.0,-23.0,-66.0,604.0,-20.0,0
-8.0,-243.0,-18.0,-57.0,573.0,-16.0,0
-6.0,-243.0,-15.0,-47.0,543.0,-17.0,0
-5.0,-245.0,-15.0,-40.0,513.0,-21.0,0
-12.0,-242.0,-12.0,-39.0,483.0,-26.0,0
-12.0,-247.0,-5.0,-46.0,450.0,-31.0,0
-12.0,-245.0,-8.0,-59.0,415.0,-39.0,0
-13.0,-249.0,-7.0,-75.0,380.0,-41.0,0
-18.0,-255.0,-7.0,-88.0,345.0,-46.0,0
-17.0,-258.0,-7.0,-94.0,313.0,-47.0,0
-18.0,-262.0,-11.0,-94.0,278.0,-46.0,0
-16.0,-265.0,-10.0,-86.0,246.0,-44.0,0
-17.0,-266.0,-12.0,-74.0,211.0,-44.0,0
-12.0,-268.0,-11.0,-56.0,177.0,-43.0,0
-7.0,-269.0,-10.0,-32.0,142.0,-41.0,0
-6.0,-266.0,-11.0,-7.0,109.0,-36.0,0
-2.0,-267.0,-10.0,16.0,75.0,-32.0,0
2.0,-265.0,-8.0,42.0,47.0,-30.0,0
9.0,-265.0,-10.0,65.0,22.0,-30.0,0
11.0,-260.0,-7.0,87.0,7.0,-32.0,0
13.0,-257.0,-9.0,105.0,-1.0,-35.0,0
15.0,-250.0,-8.0,123.0,-5.0,-40.0,0
14.0,-247.0,-13.0,137.0,-4.0,-46.0,0
14.0,-243.0,-6.0,146.0,4.0,-54.0,0
6.0,-243.0,-1.0,149.0,13.0,-60.0,0
9.0,-239.0,-10.0,145.0,25.0,-66.0,0
11.0,-239.0,-5.0,130.0,35.0,-69.0,0
15.0,-242.0,-8.0,109.0,45.0,-71.0,0
11.0,-243.0,-11.0,88.0,51.0,-73.0,0
12.0,-248.0,-9.0,68.0,58.0,-73.0,0
13.0,-247.0,-11.0,54.0,63.0,-74.0,0
9.0,-252.0,-10.0,46.0,68.0,-77.0,0
9.0,-254.0,-11.0,44.0,68.0,-78.0,0
10.0,-257.0,-10.0,45.0,67.0,-80.0,0
10.0,-255.0,-11.0,50.0,67.0,-84.0,0
9.0,-256.0,-14.0,53.0,70.0,-86.0,0
5.0,-255.0,-12.0,56.0,72.0,-89.0,0
7.0,-255.0,-12.0,53.0,79.0,-92.0,0
7.0,-253.0,-19.0,46.0,82.0,-93.0,0
7.0,-254.0,-18.0,36.0,86.0,-94.0,0
5.0,-254.0,-18.0,30.0,87.0,-91.0,0
4.0,-256.0,-14.0,28.0,89.0,-86.0,0
5.0,-257.0,-12.0,30.0,89.0,-79.0,0
5.0,-258.0,-14.0,31.0,90.0,-71.0,0
4.0,-255.0,-13.0,29.0,91.0,-64.0,0
3.0,-254.0,-10.0,29.0,88.0,-55.0,0
-1.0,-253.0,-13.0,25.0,85.0,-48.0,0
2.0,-255.0,-11.0,21.0,80.0,-39.0,0
0.0,-252.0,-9.0,18.0,73.0,-31.0,0
1.0,-252.0,-14.0,12.0,69.0,-26.0,0
3.0,-250.0,-8.0,6.0,65.0,-21.0,0
5.0,-250.0,-10.0,0.0,66.0,-15.0,0
5.0,-248.0,-10.0,-7.0,67.0,-12.0,0
2.0,-249.0,-8.0,-16.0,69.0,-9.0,0
4.0,-247.0,-12.0,-24.0,68.0,-8.0,0
5.0,-247.0,-8.0,-32.0,66.0,-7.0,0
5.0,-252.0,-9.0,-37.0,65.0,-9.0,0
5.0,-247.0,-8.0,-40.0,61.0,-9.0,0
4.0,-248.0,-5.0,-39.0,57.0,-9.0,0
3.0,-249.0,-1.0,-37.0,59.0,-11.0,0
2.0,-248.0,-7.0,-31.0,62.0,-10.0,0
2.0,-242.0,-8.0,-24.0,65.0,-9.0,0
4.0,-248.0,-7.0,-20.0,65.0,-10.0,0
4.0,-250.0,-4.0,-18.0,63.0,-7.0,0
3.0,-246.0,-2.0,-18.0,59.0,-5.0,0
3.0,-253.0,-7.0,-20.0,55.0,-5.0,0
0.0,-253.0,-6.0,-23.0,47.0,-6.0,0
-3.0,-253.0,-5.0,-23.0,41.0,-7.0,0
-1.0,-254.0,-9.0,-19.0,31.0,-12.0,0
1.0,-256.0,-2.0,-13.0,27.0,-17.0,0
-1.0,-255.0,-7.0,-6.0,20.0,-22.0,0
1.0,-252.0,-2.0,0.0,15.0,-27.0,0
1.0,-253.0,-6.0,7.0,9.0,-31.0,0
5.0,-255.0,-9.0,14.0,2.0,-33.0,0
-3.0,-254.0,-16.0,22.0,-10.0,-37.0,0
-2.0,-252.0,-12.0,22.0,-22.0,-36.0,0
2.0,-254.0,-8.0,23.0,-24.0,-39.0,0
2.0,-256.0,-5.0,28.0,-22.0,-41.0,0
1.0,-252.0,-6.0,34.0,-20.0,-44.0,0
1.0,-252.0,-4.0,38.0,-24.0,-45.0,0
3.0,-252.0,-7.0,41.0,-31.0,-44.0,0
3.0,-252.0,-7.0,43.0,-36.0,-44.0,0
3.0,-250.0,1.0,45.0,-40.0,-43.0,0
1.0,-250.0,-4.0,46.0,-47.0,-41.0,0
0.0,-252.0,-4.0,48.0,-54.0,-38.0,0
-1.0,-249.0,-3.0,45.0,-62.0,-35.0,0
1.0,-253.0,-7.0,40.0,-69.0,-35.0,0
2.0,-252.0,-5.0,32.0,-74.0,-31.0,0
0.0,-252.0,-11.0,24.0,-79.0,-30.0,0
0.0,-252.0,-9.0,17.0,-83.0,-28.0,0
4.0,-255.0,-7.0,14.0,-88.0,-26.0,0
-1.0,-251.0,-17.0,13.0,-96.0,-23.0,0
3.0,-252.0,-9.0,14.0,-101.0,-22.0,0
7.0,-254.0,-11.0,16.0,-103.0,-19.0,0
3.0,-255.0,-5.0,18.0,-105.0,-18.0,0
3.0,-253.0,-9.0,21.0,-107.0,-17.0,0
1.0,-253.0,-11.0,20.0,-109.0,-15.0,0
2.0,-254.0,-10.0,21.0,-109.0,-15.0,0
5.0,-255.0,-13.0,21.0,-108.0,-14.0,0
2.0,-255.0,-16.0,19.0,-106.0,-13.0,0
4.0,-256.0,-13.0,20.0,-106.0,-13.0,0
4.0,-252.0,-16.0,21.0,-105.0,-11.0,0
6.0,-255.0,-15.0,23.0,-106.0,-10.0,0
5.0,-254.0,-16.0,25.0,-104.0,-7.0,0
8.0,-251.0,-14.0,26.0,-101.0,-5.0,0
5.0,-252.0,-10.0,29.0,-99.0,-3.0,0
11.0,-254.0,-14.0,32.0,-99.0,-2.0,0
7.0,-255.0,-9.0,37.0,-98.0,-4.0,0
6.0,-254.0,-18.0,41.0,-98.0,-4.0,0
3.0,-250.0,-14.0,43.0,-100.0,-4.0,0
5.0,-254.0,-14.0,41.0,-99.0,-4.0,0
7.0,-254.0,-11.0,36.0,-98.0,-3.0,0
4.0,-249.0,-8.0,33.0,-96.0,1.0,0
4.0,-255.0,-12.0,29.0,-93.0,1.0,0
6.0,-251.0,-9.0,28.0,-90.0,2.0,0
7.0,-255.0,-13.0,31.0,-86.0,0.0,0
7.0,-252.0,-9.0,34.0,-83.0,0.0,0
9.0,-254.0,-9.0,39.0,-78.0,0.0,0
11.0,-253.0,-8.0,41.0,-73.0,-1.0,0
8.0,-253.0,-13.0,44.0,-68.0,-2.0,0
9.0,-254.0,-12.0,45.0,-64.0,-3.0,0
8.0,-253.0,-13.0,44.0,-61.0,-3.0,0
5.0,-253.0,-7.0,43.0,-59.0,-4.0,0
6.0,-251.0,-10.0,42.0,-55.0,-5.0,0
5.0,-249.0,-9.0,41.0,-53.0,-3.0,0
5.0,-250.0,-11.0,42.0,-51.0,-2.0,0
6.0,-249.0,-13.0,41.0,-48.0,-1.0,0
6.0,-250.0,-12.0,42.0,-45.0,-1.0,0
2.0,-247.0,-8.0,42.0,-41.0,-1.0,0
2.0,-248.0,-15.0,40.0,-39.0,-1.0,0
5.0,-251.0,-12.0,38.0,-40.0,0.0,0
3.0,-249.0,-11.0,36.0,-38.0,-1.0,0
3.0,-252.0,-13.0,35.0,-39.0,0.0,0
1.0,-250.0,-11.0,35.0,-39.0,0.0,0
-1.0,-245.0,-27.0,38.0,-38.0,1.0,0
2.0,-248.0,-15.0,37.0,-39.0,2.0,0
3.0,-248.0,-14.0,36.0,-38.0,3.0,0
0.0,-246.0,-14.0,30.0,-38.0,4.0,0
4.0,-248.0,-13.0,24.0,-41.0,5.0,0
2.0,-249.0,-14.0,17.0,-41.0,5.0,0
6.0,-254.0,-15.0,14.0,-41.0,4.0,0
5.0,-255.0,-11.0,16.0,-39.0,3.0,0
4.0,-255.0,-11.0,22.0,-39.0,2.0,0
3.0,-252.0,-9.0,29.0,-38.0,-3.0,0
3.0,-250.0,-7.0,32.0,-40.0,-4.0,0
6.0,-252.0,-8.0,36.0,-42.0,-6.0,0
3.0,-250.0,-9.0,36.0,-44.0,-7.0,0
4.0,-251.0,-11.0,35.0,-47.0,-8.0,0
6.0,-250.0,-11.0,33.0,-49.0,-7.0,0
6.0,-250.0,-10.0,30.0,-46.0,-9.0,0
2.0,-252.0,-13.0,26.0,-46.0,-10.0,0
7.0,-251.0,-11.0,22.0,-46.0,-9.0,0
3.0,-250.0,-14.0,18.0,-46.0,-9.0,0
4.0,-250.0,-10.0,16.0,-46.0,-9.0,0
4.0,-251.0,-10.0,15.0,-46.0,-10.0,0
1.0,-248.0,-11.0,16.0,-46.0,-8.0,0
4.0,-248.0,-16.0,12.0,-46.0,-4.0,0
5.0,-252.0,-14.0,8.0,-45.0,-1.0,0
4.0,-253.0,-14.0,0.0,-45.0,0.0,0
6.0,-254.0,-15.0,-4.0,-40.0,0.0,0
5.0,-252.0,-13.0,-6.0,-35.0,0.0,0
5.0,-255.0,-15.0,-4.0,-28.0,-1.0,0
6.0,-253.0,-15.0,-2.0,-21.0,-1.0,0
2.0,-252.0,-18.0,1.0,-18.0,-2.0,0
1.0,-253.0,-10.0,0.0,-16.0,-3.0,0
3.0,-253.0,-8.0,-1.0,-15.0,-4.0,0
7.0,-253.0,-7.0,-4.0,-14.0,-6.0,0
3.0,-253.0,-14.0,-5.0,-11.0,-8.0,0
5.0,-252.0,-14.0,0.0,-8.0,-7.0,0
7.0,-251.0,-26.0,5.0,-8.0,-9.0,0
7.0,-253.0,-18.0,5.0,-7.0,-8.0,0
8.0,-251.0,-17.0,9.0,8.0,-11.0,0
4.0,-256.0,-12.0,16.0,23.0,-15.0,0
5.0,-253.0,-15.0,25.0,28.0,-18.0,0
3.0,-254.0,-8.0,30.0,28.0,-19.0,0
7.0,-256.0,-14.0,34.0,28.0,-20.0,0
2.0,-253.0,-16.0,37.0,29.0,-21.0,0
0.0,-250.0,-8.0,41.0,29.0,-21.0,0
4.0,-253.0,-14.0,43.0,31.0,-19.0,0
1.0,-250.0,-15.0,46.0,33.0,-20.0,0
7.0,-252.0,-17.0,44.0,33.0,-18.0,0
3.0,-249.0,-12.0,41.0,32.0,-15.0,0
1.0,-250.0,-11.0,35.0,33.0,-13.0,0
5.0,-253.0,-17.0,31.0,35.0,-11.0,0
1.0,-251.0,-14.0,30.0,36.0,-8.0,0
1.0,-252.0,-15.0,29.0,37.0,-6.0,0
2.0,-254.0,-19.0,30.0,37.0,-3.0,0
4.0,-252.0,-20.0,35.0,36.0,-4.0,0
2.0,-254.0,-19.0,36.0,38.0,-3.0,0
4.0,-255.0,-18.0,38.0,39.0,-3.0,0
2.0,-252.0,-14.0,39.0,40.0,-4.0,0
-2.0,-250.0,-18.0,39.0,39.0,-4.0,0
4.0,-253.0,-16.0,41.0,40.0,-4.0,0
1.0,-254.0,-15.0,42.0,41.0,-4.0,0
1.0,-252.0,-18.0,43.0,42.0,-2.0,0
1.0,-250.0,-18.0,43.0,42.0,-1.0,0
0.0,-252.0,-15.0,43.0,42.0,-1.0,0
1.0,-253.0,-18.0,44.0,44.0,-4.0,0
1.0,-251.0,-15.0,45.0,44.0,-4.0,0
-1.0,-253.0,-19.0,45.0,46.0,-2.0,0
2.0,-253.0,-20.0,47.0,47.0,-6.0,0
0.0,-253.0,-17.0,47.0,48.0,-4.0,0
3.0,-250.0,-14.0,50.0,50.0,-6.0,0
1.0,-249.0,-14.0,50.0,51.0,-6.0,0
1.0,-251.0,-17.0,49.0,49.0,-5.0,0
4.0,-252.0,-14.0,50.0,48.0,-6.0,0
1.0,-247.0,-15.0,51.0,49.0,-6.0,0
3.0,-247.0,-15.0,52.0,51.0,-4.0,0
1.0,-250.0,-15.0,53.0,53.0,-4.0,0
1.0,-248.0,-13.0,54.0,55.0,-4.0,0
-2.0,-247.0,-18.0,54.0,56.0,-3.0,0
0.0,-247.0,-17.0,54.0,54.0,-4.0,0
-2.0,-248.0,-15.0,56.0,52.0,-7.0,0
2.0,-252.0,-13.0,57.0,51.0,-6.0,0
3.0,-250.0,-18.0,58.0,50.0,-6.0,0
-1.0,-252.0,-15.0,54.0,50.0,-9.0,0
-3.0,-250.0,-18.0,49.0,48.0,-10.0,0
1.0,-250.0,-21.0,45.0,49.0,-13.0,0
-3.0,-249.0,-18.0,43.0,48.0,-15.0,0
0.0,-248.0,-21.0,44.0,48.0,-15.0,0
0.0,-251.0,-16.0,45.0,47.0,-14.0,0
0.0,-253.0,-17.0,45.0,46.0,-14.0,0
2.0,-251.0,-16.0,45.0,46.0,-14.0,0
3.0,-254.0,-19.0,46.0,45.0,-15.0,0
2.0,-253.0,-19.0,47.0,44.0,-14.0,0
3.0,-252.0,-16.0,48.0,42.0,-13.0,0
