ax,ay,az,gx,gy,gz,label
14.0,-251.0,-32.0,-13.0,85.0,-15.0,0
14.0,-253.0,-34.0,-13.0,85.0,-15.0,0
14.0,-256.0,-37.0,-12.0,84.0,-16.0,0
15.0,-257.0,-33.0,-13.0,84.0,-17.0,0
16.0,-253.0,-36.0,-14.0,83.0,-16.0,0
13.0,-247.0,-38.0,-17.0,79.0,-18.0,0
11.0,-254.0,-35.0,-21.0,78.0,-17.0,0
15.0,-252.0,-35.0,-24.0,76.0,-19.0,0
11.0,-252.0,-37.0,-23.0,72.0,-16.0,0
10.0,-254.0,-31.0,-24.0,69.0,-17.0,0
14.0,-258.0,-30.0,-23.0,64.0,-15.0,0
10.0,-256.0,-33.0,-24.0,59.0,-16.0,0
13.0,-252.0,-34.0,-25.0,56.0,-14.0,0
14.0,-255.0,-35.0,-26.0,55.0,-16.0,0
12.0,-255.0,-35.0,-25.0,51.0,-16.0,0
14.0,-256.0,-34.0,-24.0,50.0,-20.0,0
13.0,-258.0,-36.0,-22.0,51.0,-19.0,0
14.0,-256.0,-33.0,-18.0,50.0,-24.0,0
12.0,-256.0,-35.0,-15.0,50.0,-22.0,0
12.0,-255.0,-34.0,-15.0,47.0,-25.0,0
9.0,-252.0,-38.0,-12.0,44.0,-23.0,0
12.0,-254.0,-33.0,-10.0,42.0,-24.0,0
11.0,-256.0,-38.0,-9.0,38.0,-21.0,0
14.0,-254.0,-34.0,-9.0,36.0,-21.0,0
14.0,-256.0,-34.0,-7.0,30.0,-16.0,0
15.0,-256.0,-36.0,-7.0,29.0,-18.0,0
11.0,-253.0,-31.0,-5.0,27.0,-13.0,0
10.0,-257.0,-35.0,-6.0,23.0,-14.0,0
10.0,-253.0,-35.0,-6.0,19.0,-12.0,0
9.0,-254.0,-34.0,-5.0,16.0,-12.0,0
14.0,-255.0,-36.0,-4.0,14.0,-8.0,0
13.0,-255.0,-36.0,-3.0,11.0,-11.0,0
10.0,-254.0,-32.0,-1.0,12.0,-7.0,0
12.0,-256.0,-35.0,2.0,9.0,-10.0,0
14.0,-256.0,-33.0,3.0,7.0,-7.0,0
12.0,-254.0,-35.0,2.0,7.0,-10.0,0
14.0,-254.0,-36.0,2.0,9.0,-7.0,0
15.0,-256.0,-37.0,3.0,9.0,-10.0,0
13.0,-255.0,-32.0,4.0,8.0,-7.0,0
14.0,-255.0,-34.0,6.0,8.0,-9.0,0
12.0,-255.0,-34.0,5.0,6.0,-9.0,0
16.0,-254.0,-37.0,7.0,6.0,-11.0,0
16.0,-255.0,-36.0,7.0,6.0,-9.0,0
13.0,-253.0,-34.0,5.0,5.0,-12.0,0
17.0,-254.0,-36.0,5.0,5.0,-8.0,0
15.0,-255.0,-34.0,6.0,6.0,-10.0,0
14.0,-255.0,-32.0,5.0,9.0,-8.0,0
17.0,-256.0,-34.0,6.0,10.0,-9.0,0
14.0,-254.0,-34.0,7.0,12.0,-7.0,0
19.0,-254.0,-35.0,8.0,14.0,-7.0,0
16.0,-251.0,-32.0,11.0,14.0,-5.0,0
18.0,-257.0,-34.0,13.0,17.0,-5.0,0
16.0,-256.0,-34.0,15.0,19.0,-4.0,0
20.0,-256.0,-35.0,17.0,19.0,-3.0,0
15.0,-255.0,-34.0,17.0,22.0,-1.0,0
18.0,-254.0,-37.0,17.0,24.0,-1.0,0
17.0,-254.0,-30.0,17.0,25.0,-1.0,0
19.0,-257.0,-33.0,15.0,26.0,0.0,0
19.0,-252.0,-32.0,15.0,28.0,1.0,0
20.0,-253.0,-27.0,16.0,29.0,2.0,0
17.0,-254.0,-32.0,16.0,31.0,1.0,0
18.0,-254.0,-32.0,17.0,32.0,0.0,0
14.0,-253.0,-29.0,18.0,36.0,0.0,0
19.0,-255.0,-32.0,18.0,35.0,-1.0,0
16.0,-254.0,-29.0,19.0,37.0,-1.0,0
19.0,-254.0,-35.0,21.0,36.0,-1.0,0
17.0,-256.0,-29.0,23.0,38.0,-2.0,0
15.0,-253.0,-33.0,24.0,39.0,0.0,0
17.0,-254.0,-36.0,22.0,40.0,-1.0,0
16.0,-252.0,-31.0,22.0,40.0,0.0,0
18.0,-256.0,-33.0,21.0,41.0,0.0,0
16.0,-257.0,-31.0,19.0,42.0,2.0,0
16.0,-255.0,-34.0,18.0,43.0,1.0,0
18.0,-255.0,-35.0,17.0,44.0,1.0,0
18.0,-252.0,-32.0,16.0,45.0,0.0,0
16.0,-253.0,-33.0,14.0,47.0,1.0,0
18.0,-254.0,-32.0,13.0,49.0,-1.0,0
17.0,-254.0,-31.0,12.0,53.0,1.0,0
19.0,-254.0,-29.0,11.0,53.0,-2.0,0
16.0,-255.0,-28.0,10.0,56.0,2.0,0
19.0,-257.0,-27.0,8.0,58.0,-2.0,0
17.0,-254.0,-29.0,10.0,60.0,0.0,0
19.0,-258.0,-28.0,10.0,62.0,-1.0,0
20.0,-254.0,-29.0,11.0,61.0,1.0,0
20.0,-255.0,-33.0,11.0,63.0,-3.0,0
20.0,-255.0,-30.0,9.0,65.0,0.0,0
18.0,-254.0,-29.0,10.0,65.0,-4.0,0
18.0,-255.0,-29.0,10.0,67.0,-1.0,0
19.0,-255.0,-29.0,11.0,69.0,-4.0,0
19.0,-253.0,-31.0,13.0,71.0,0.0,0
17.0,-256.0,-30.0,13.0,71.0,-5.0,0
19.0,-253.0,-33.0,8.0,73.0,-2.0,0
16.0,-253.0,-27.0,4.0,73.0,-5.0,0
17.0,-252.0,-30.0,0.0,73.0,-2.0,0
16.0,-256.0,-33.0,-2.0,74.0,-4.0,0
15.0,-254.0,-33.0,-4.0,74.0,-2.0,0
17.0,-252.0,-31.0,-5.0,75.0,-3.0,0
15.0,-256.0,-30.0,-7.0,76.0,2.0,0
15.0,-252.0,-29.0,-9.0,78.0,0.0,0
16.0,-254.0,-29.0,-9.0,79.0,1.0,0
16.0,-256.0,-30.0,-9.0,82.0,-2.0,0
15.0,-256.0,-29.0,-5.0,83.0,0.0,0
14.0,-256.0,-28.0,-4.0,84.0,-1.0,0
18.0,-258.0,-33.0,3.0,85.0,0.0,0
16.0,-257.0,-32.0,5.0,86.0,-2.0,0
15.0,-255.0,-26.0,8.0,87.0,0.0,0
18.0,-255.0,-28.0,8.0,88.0,-4.0,0
16.0,-253.0,-30.0,7.0,88.0,-1.0,0
16.0,-254.0,-28.0,2.0,87.0,-2.0,0
16.0,-254.0,-29.0,-2.0,87.0,-1.0,0
17.0,-254.0,-31.0,-7.0,88.0,-3.0,0
14.0,-253.0,-30.0,-14.0,88.0,0.0,0
15.0,-252.0,-31.0,-19.0,89.0,-1.0,0
17.0,-255.0,-31.0,-24.0,87.0,0.0,0
13.0,-256.0,-33.0,-27.0,86.0,-2.0,0
13.0,-254.0,-31.0,-28.0,88.0,0.0,0
14.0,-255.0,-27.0,-28.0,87.0,-3.0,0
13.0,-254.0,-27.0,-25.0,85.0,-2.0,0
13.0,-255.0,-25.0,-22.0,85.0,-3.0,0
13.0,-255.0,-28.0,-18.0,84.0,-3.0,0
14.0,-256.0,-28.0,-13.0,83.0,-4.0,0
18.0,-258.0,-28.0,-10.0,85.0,-3.0,0
11.0,-254.0,-24.0,-11.0,83.0,-4.0,0
13.0,-253.0,-29.0,-9.0,82.0,-3.0,0
13.0,-257.0,-31.0,-7.0,80.0,-5.0,0
18.0,-255.0,-33.0,-10.0,80.0,-4.0,0
15.0,-254.0,-31.0,-11.0,81.0,-4.0,0
16.0,-253.0,-30.0,-13.0,83.0,-4.0,0
14.0,-254.0,-33.0,-14.0,83.0,-3.0,0
14.0,-253.0,-29.0,-15.0,85.0,-3.0,0
14.0,-258.0,-29.0,-17.0,87.0,-3.0,0
16.0,-257.0,-33.0,-17.0,86.0,-3.0,0
15.0,-257.0,-31.0,-18.0,86.0,-3.0,0
14.0,-255.0,-29.0,-19.0,85.0,-3.0,0
11.0,-255.0,-29.0,-18.0,83.0,-4.0,0
13.0,-254.0,-29.0,-18.0,79.0,-5.0,0
15.0,-255.0,-31.0,-17.0,78.0,-5.0,0
13.0,-256.0,-30.0,-18.0,74.0,-6.0,0
13.0,-254.0,-30.0,-18.0,75.0,-5.0,0
11.0,-256.0,-29.0,-18.0,74.0,-7.0,0
14.0,-256.0,-30.0,-18.0,73.0,-7.0,0
13.0,-254.0,-27.0,-18.0,73.0,-7.0,0
12.0,-253.0,-30.0,-19.0,72.0,-7.0,0
13.0,-253.0,-31.0,-19.0,73.0,-9.0,0
12.0,-253.0,-29.0,-21.0,73.0,-9.0,0
10.0,-250.0,-33.0,-22.0,75.0,-11.0,0
13.0,-255.0,-34.0,-25.0,77.0,-10.0,0
14.0,-253.0,-29.0,-27.0,75.0,-13.0,0
13.0,-253.0,-28.0,-29.0,76.0,-12.0,0
12.0,-252.0,-30.0,-31.0,74.0,-13.0,0
14.0,-252.0,-32.0,-34.0,70.0,-11.0,0
14.0,-252.0,-35.0,-36.0,68.0,-12.0,0
13.0,-254.0,-36.0,-40.0,65.0,-12.0,0
12.0,-253.0,-30.0,-43.0,65.0,-15.0,0
15.0,-253.0,-27.0,-42.0,65.0,-12.0,0
11.0,-254.0,-28.0,-42.0,65.0,-16.0,0
12.0,-252.0,-29.0,-41.0,65.0,-13.0,0
13.0,-255.0,-28.0,-39.0,66.0,-18.0,0
14.0,-255.0,-28.0,-38.0,66.0,-17.0,0
14.0,-253.0,-32.0,-37.0,67.0,-20.0,0
14.0,-251.0,-31.0,-37.0,65.0,-21.0,0
14.0,-253.0,-28.0,-35.0,62.0,-23.0,0
11.0,-251.0,-30.0,-35.0,59.0,-22.0,0
9.0,-250.0,-35.0,-34.0,57.0,-25.0,0
13.0,-249.0,-35.0,-36.0,55.0,-23.0,0
11.0,-249.0,-36.0,-40.0,54.0,-26.0,0
11.0,-254.0,-41.0,-47.0,54.0,-25.0,0
10.0,-250.0,-38.0,-55.0,52.0,-28.0,0
8.0,-252.0,-38.0,-62.0,54.0,-27.0,0
8.0,-255.0,-38.0,-69.0,54.0,-31.0,0
7.0,-253.0,-39.0,-74.0,56.0,-29.0,0
9.0,-254.0,-32.0,-80.0,59.0,-31.0,0
9.0,-255.0,-33.0,-87.0,63.0,-27.0,0
10.0,-259.0,-33.0,-93.0,70.0,-27.0,0
11.0,-260.0,-36.0,-98.0,75.0,-20.0,0
12.0,-261.0,-33.0,-98.0,79.0,-18.0,0
15.0,-261.0,-29.0,-92.0,83.0,-12.0,0
18.0,-261.0,-27.0,-84.0,84.0,-12.0,0
16.0,-261.0,-26.0,-70.0,88.0,-8.0,0
19.0,-259.0,-28.0,-55.0,89.0,-10.0,0
21.0,-259.0,-26.0,-41.0,94.0,-8.0,0
16.0,-255.0,-23.0,-29.0,97.0,-11.0,0
17.0,-255.0,-28.0,-19.0,100.0,-8.0,0
18.0,-254.0,-29.0,-15.0,102.0,-12.0,0
17.0,-251.0,-28.0,-9.0,103.0,-12.0,0
15.0,-250.0,-32.0,-8.0,103.0,-13.0,0
15.0,-251.0,-32.0,-14.0,103.0,-13.0,0
15.0,-247.0,-34.0,-23.0,103.0,-15.0,0
9.0,-246.0,-35.0,-34.0,102.0,-15.0,0
7.0,-245.0,-33.0,-51.0,101.0,-16.0,0
11.0,-247.0,-39.0,-67.0,99.0,-16.0,0
7.0,-249.0,-32.0,-87.0,100.0,-18.0,0
8.0,-251.0,-34.0,-95.0,99.0,-17.0,0
6.0,-247.0,-30.0,-99.0,99.0,-16.0,0
7.0,-251.0,-30.0,-97.0,96.0,-13.0,0
8.0,-253.0,-31.0,-96.0,94.0,-13.0,0
9.0,-251.0,-27.0,-92.0,92.0,-12.0,0
8.0,-253.0,-32.0,-90.0,90.0,-12.0,0
9.0,-252.0,-29.0,-84.0,86.0,-12.0,0
8.0,-251.0,-29.0,-79.0,81.0,-12.0,0
8.0,-253.0,-28.0,-76.0,77.0,-13.0,0
6.0,-255.0,-29.0,-69.0,71.0,-16.0,0
11.0,-254.0,-31.0,-67.0,65.0,-16.0,0
10.0,-252.0,-31.0,-68.0,60.0,-18.0,0
8.0,-251.0,-30.0,-68.0,55.0,-19.0,0
8.0,-251.0,-36.0,-70.0,53.0,-20.0,0
6.0,-251.0,-36.0,-76.0,49.0,-22.0,0
8.0,-252.0,-34.0,-85.0,46.0,-21.0,0
12.0,-256.0,-34.0,-96.0,43.0,-22.0,0
9.0,-254.0,-34.0,-106.0,40.0,-22.0,0
10.0,-255.0,-35.0,-114.0,38.0,-22.0,0
8.0,-257.0,-35.0,-118.0,37.0,-21.0,0
10.0,-258.0,-39.0,-120.0,37.0,-20.0,0
11.0,-256.0,-38.0,-123.0,34.0,-18.0,0
13.0,-260.0,-37.0,-123.0,30.0,-16.0,0
11.0,-260.0,-39.0,-124.0,26.0,-10.0,0
13.0,-259.0,-36.0,-123.0,25.0,-8.0,0
14.0,-260.0,-37.0,-119.0,21.0,-4.0,0
16.0,-260.0,-37.0,-118.0,20.0,-2.0,0
12.0,-260.0,-40.0,-119.0,17.0,0.0,0
15.0,-260.0,-36.0,-118.0,14.0,-1.0,0
17.0,-262.0,-40.0,-116.0,13.0,0.0,0
17.0,-259.0,-39.0,-114.0,11.0,0.0,0
18.0,-261.0,-38.0,-111.0,8.0,2.0,0
19.0,-258.0,-36.0,-109.0,3.0,0.0,0
19.0,-257.0,-38.0,-109.0,-2.0,1.0,0
18.0,-256.0,-39.0,-111.0,-8.0,-1.0,0
21.0,-254.0,-41.0,-114.0,-12.0,0.0,0
17.0,-251.0,-47.0,-117.0,-15.0,-3.0,0
16.0,-247.0,-43.0,-120.0,-18.0,-1.0,0
19.0,-250.0,-39.0,-121.0,-19.0,-3.0,0
16.0,-246.0,-46.0,-125.0,-19.0,-1.0,0
14.0,-247.0,-44.0,-132.0,-22.0,-4.0,0
13.0,-249.0,-46.0,-138.0,-24.0,-3.0,0
13.0,-244.0,-45.0,-143.0,-24.0,-4.0,0
14.0,-247.0,-44.0,-147.0,-24.0,-1.0,0
12.0,-247.0,-41.0,-147.0,-24.0,-3.0,0
20.0,-249.0,-39.0,-144.0,-22.0,2.0,0
15.0,-253.0,-41.0,-139.0,-18.0,0.0,0
17.0,-250.0,-38.0,-132.0,-16.0,0.0,0
20.0,-252.0,-39.0,-121.0,-13.0,-4.0,0
20.0,-255.0,-37.0,-110.0,-13.0,-3.0,0
23.0,-254.0,-42.0,-98.0,-14.0,-7.0,0
25.0,-254.0,-43.0,-90.0,-16.0,-6.0,0
23.0,-254.0,-47.0,-83.0,-17.0,-9.0,0
24.0,-254.0,-39.0,-79.0,-16.0,-8.0,0
24.0,-251.0,-41.0,-76.0,-17.0,-13.0,0
25.0,-251.0,-44.0,-74.0,-16.0,-13.0,0
25.0,-250.0,-38.0,-71.0,-12.0,-17.0,0
25.0,-249.0,-41.0,-70.0,-9.0,-17.0,0
25.0,-252.0,-41.0,-74.0,-3.0,-20.0,0
24.0,-250.0,-43.0,-78.0,4.0,-18.0,0
27.0,-251.0,-38.0,-83.0,8.0,-19.0,0
26.0,-248.0,-39.0,-85.0,14.0,-15.0,0
24.0,-251.0,-41.0,-86.0,23.0,-17.0,0
25.0,-253.0,-42.0,-88.0,31.0,-13.0,0
23.0,-252.0,-40.0,-88.0,34.0,-14.0,0
23.0,-255.0,-38.0,-86.0,40.0,-11.0,0
21.0,-255.0,-44.0,-86.0,46.0,-11.0,0
22.0,-257.0,-43.0,-84.0,53.0,-8.0,0
24.0,-257.0,-45.0,-83.0,56.0,-9.0,0
20.0,-258.0,-42.0,-81.0,58.0,-7.0,0
25.0,-258.0,-44.0,-80.0,60.0,-9.0,0
22.0,-257.0,-42.0,-82.0,61.0,-6.0,0
25.0,-259.0,-41.0,-85.0,62.0,-8.0,0
18.0,-255.0,-44.0,-85.0,61.0,-9.0,0
21.0,-257.0,-44.0,-87.0,60.0,-11.0,0
20.0,-254.0,-47.0,-84.0,59.0,-13.0,0
21.0,-254.0,-43.0,-81.0,59.0,-15.0,0
21.0,-253.0,-47.0,-80.0,60.0,-17.0,0
18.0,-253.0,-46.0,-82.0,60.0,-20.0,0
17.0,-255.0,-40.0,-82.0,62.0,-21.0,0
18.0,-255.0,-44.0,-82.0,63.0,-23.0,0
18.0,-255.0,-42.0,-81.0,66.0,-21.0,0
18.0,-254.0,-42.0,-82.0,67.0,-20.0,0
19.0,-253.0,-41.0,-81.0,70.0,-18.0,0
20.0,-253.0,-42.0,-81.0,71.0,-16.0,0
19.0,-253.0,-43.0,-81.0,72.0,-14.0,0
18.0,-258.0,-44.0,-79.0,70.0,-12.0,0
19.0,-253.0,-47.0,-77.0,68.0,-10.0,0
19.0,-254.0,-46.0,-78.0,66.0,-10.0,0
19.0,-255.0,-46.0,-80.0,62.0,-9.0,0
17.0,-253.0,-47.0,-82.0,60.0,-8.0,0
18.0,-255.0,-45.0,-80.0,57.0,-9.0,0
18.0,-253.0,-48.0,-78.0,54.0,-11.0,0
17.0,-251.0,-48.0,-76.0,52.0,-14.0,0
16.0,-250.0,-50.0,-74.0,52.0,-15.0,0
17.0,-252.0,-47.0,-73.0,52.0,-19.0,0
19.0,-251.0,-48.0,-68.0,54.0,-21.0,0
18.0,-249.0,-46.0,-66.0,58.0,-24.0,0
19.0,-253.0,-48.0,-63.0,60.0,-26.0,0
18.0,-248.0,-44.0,-59.0,61.0,-29.0,0
19.0,-250.0,-45.0,-58.0,61.0,-28.0,0
17.0,-247.0,-43.0,-57.0,61.0,-31.0,0
19.0,-250.0,-41.0,-55.0,59.0,-31.0,0
16.0,-248.0,-45.0,-55.0,58.0,-35.0,0
20.0,-253.0,-44.0,-57.0,57.0,-35.0,0
16.0,-247.0,-46.0,-60.0,53.0,-37.0,0
18.0,-252.0,-46.0,-63.0,49.0,-36.0,0
18.0,-249.0,-46.0,-67.0,49.0,-36.0,0
16.0,-251.0,-52.0,-71.0,48.0,-34.0,0
18.0,-247.0,-48.0,-71.0,50.0,-35.0,0
17.0,-247.0,-50.0,-70.0,51.0,-32.0,0
20.0,-251.0,-48.0,-70.0,54.0,-33.0,0
17.0,-248.0,-53.0,-70.0,57.0,-28.0,0
19.0,-250.0,-47.0,-72.0,61.0,-30.0,0
19.0,-252.0,-46.0,-74.0,62.0,-25.0,0
19.0,-250.0,-46.0,-73.0,63.0,-27.0,0
16.0,-250.0,-44.0,-76.0,63.0,-22.0,0
21.0,-251.0,-49.0,-77.0,63.0,-24.0,0
16.0,-251.0,-48.0,-76.0,62.0,-19.0,0
18.0,-256.0,-46.0,-74.0,59.0,-21.0,0
17.0,-254.0,-44.0,-72.0,58.0,-19.0,0
19.0,-252.0,-46.0,-67.0,54.0,-21.0,0
16.0,-249.0,-43.0,-66.0,50.0,-18.0,0
14.0,-250.0,-45.0,-62.0,49.0,-20.0,0
14.0,-251.0,-43.0,-61.0,45.0,-19.0,0
17.0,-251.0,-43.0,-61.0,42.0,-21.0,0
16.0,-247.0,-45.0,-61.0,41.0,-19.0,0
15.0,-247.0,-41.0,-63.0,41.0,-23.0,0
12.0,-248.0,-45.0,-68.0,40.0,-21.0,0
14.0,-244.0,-46.0,-73.0,38.0,-23.0,0
11.0,-245.0,-46.0,-82.0,35.0,-22.0,0
11.0,-245.0,-41.0,-89.0,32.0,-23.0,0
9.0,-244.0,-48.0,-96.0,27.0,-21.0,0
11.0,-244.0,-45.0,-102.0,21.0,-25.0,0
10.0,-244.0,-46.0,-108.0,15.0,-24.0,0
11.0,-246.0,-47.0,-113.0,11.0,-25.0,0
10.0,-247.0,-47.0,-121.0,6.0,-24.0,0
13.0,-246.0,-45.0,-126.0,4.0,-27.0,0
10.0,-246.0,-45.0,-130.0,0.0,-26.0,0
8.0,-251.0,-44.0,-135.0,0.0,-30.0,0
11.0,-250.0,-44.0,-139.0,-1.0,-29.0,0
10.0,-253.0,-42.0,-142.0,-2.0,-33.0,0
8.0,-252.0,-43.0,-141.0,0.0,-33.0,0
10.0,-253.0,-44.0,-136.0,0.0,-35.0,0
9.0,-254.0,-44.0,-130.0,-1.0,-33.0,0
13.0,-252.0,-41.0,-123.0,0.0,-34.0,0
16.0,-255.0,-38.0,-114.0,2.0,-33.0,0
16.0,-256.0,-38.0,-109.0,3.0,-33.0,0
15.0,-254.0,-41.0,-104.0,6.0,-31.0,0
14.0,-252.0,-42.0,-99.0,5.0,-30.0,0
19.0,-254.0,-38.0,-96.0,4.0,-29.0,0
19.0,-253.0,-37.0,-93.0,3.0,-31.0,0
17.0,-252.0,-41.0,-90.0,1.0,-29.0,0
17.0,-250.0,-38.0,-89.0,-2.0,-29.0,0
17.0,-249.0,-42.0,-91.0,-4.0,-25.0,0
17.0,-250.0,-40.0,-96.0,-7.0,-23.0,0
16.0,-245.0,-40.0,-103.0,-8.0,-19.0,0
18.0,-246.0,-45.0,-114.0,-8.0,-16.0,0
19.0,-246.0,-42.0,-127.0,-2.0,-12.0,0
17.0,-242.0,-39.0,-140.0,2.0,-6.0,0
18.0,-240.0,-43.0,-153.0,7.0,-1.0,0
17.0,-241.0,-45.0,-166.0,10.0,4.0,0
18.0,-242.0,-43.0,-177.0,19.0,7.0,0
18.0,-240.0,-48.0,-190.0,22.0,13.0,0
19.0,-238.0,-45.0,-204.0,25.0,15.0,0
20.0,-239.0,-45.0,-218.0,25.0,22.0,0
20.0,-241.0,-44.0,-234.0,27.0,26.0,0
20.0,-238.0,-45.0,-247.0,32.0,29.0,0
23.0,-239.0,-45.0,-257.0,36.0,30.0,0
28.0,-242.0,-47.0,-264.0,41.0,29.0,0
26.0,-238.0,-50.0,-268.0,47.0,30.0,0
31.0,-241.0,-48.0,-279.0,55.0,29.0,0
33.0,-239.0,-51.0,-292.0,65.0,24.0,0
35.0,-240.0,-57.0,-307.0,73.0,20.0,0
38.0,-244.0,-56.0,-326.0,78.0,10.0,0
40.0,-246.0,-56.0,-343.0,79.0,4.0,0
44.0,-250.0,-58.0,-358.0,73.0,-8.0,0
45.0,-253.0,-58.0,-369.0,66.0,-20.0,0
48.0,-258.0,-60.0,-377.0,61.0,-34.0,0
48.0,-260.0,-64.0,-383.0,63.0,-43.0,0
47.0,-263.0,-65.0,-394.0,70.0,-58.0,0
46.0,-264.0,-67.0,-406.0,80.0,-71.0,0
45.0,-268.0,-64.0,-418.0,90.0,-85.0,0
43.0,-271.0,-62.0,-430.0,99.0,-92.0,0
38.0,-270.0,-57.0,-445.0,106.0,-108.0,0
38.0,-268.0,-53.0,-455.0,111.0,-116.0,0
38.0,-271.0,-54.0,-449.0,113.0,-123.0,0
38.0,-266.0,-55.0,-439.0,117.0,-125.0,0
33.0,-263.0,-54.0,-425.0,120.0,-130.0,0
31.0,-260.0,-53.0,-412.0,117.0,-127.0,0
31.0,-259.0,-49.0,-403.0,110.0,-127.0,0
36.0,-255.0,-50.0,-403.0,99.0,-121.0,0
40.0,-255.0,-45.0,-403.0,90.0,-122.0,0
39.0,-255.0,-47.0,-403.0,84.0,-122.0,0
41.0,-253.0,-45.0,-400.0,79.0,-132.0,0
42.0,-253.0,-47.0,-385.0,75.0,-134.0,0
44.0,-256.0,-53.0,-366.0,75.0,-139.0,0
49.0,-251.0,-49.0,-362.0,76.0,-145.0,0
52.0,-248.0,-56.0,-351.0,66.0,-154.0,0
53.0,-244.0,-48.0,-344.0,68.0,-162.0,0
50.0,-240.0,-44.0,-322.0,60.0,-168.0,0
50.0,-243.0,-55.0,-283.0,42.0,-154.0,0
47.0,-239.0,-59.0,-293.0,39.0,-157.0,0
49.0,-243.0,-66.0,-320.0,31.0,-155.0,0
48.0,-238.0,-58.0,-353.0,28.0,-169.0,0
43.0,-241.0,-56.0,-352.0,12.0,-167.0,0
37.0,-235.0,-57.0,-334.0,-6.0,-163.0,0
31.0,-232.0,-61.0,-310.0,-28.0,-154.0,0
29.0,-226.0,-66.0,-296.0,-45.0,-146.0,0
32.0,-223.0,-75.0,-306.0,-60.0,-135.0,0
37.0,-219.0,-70.0,-369.0,-71.0,-143.0,0
36.0,-216.0,-60.0,-435.0,-81.0,-157.0,0
39.0,-212.0,-60.0,-477.0,-83.0,-171.0,0
41.0,-215.0,-60.0,-502.0,-76.0,-185.0,0
38.0,-211.0,-61.0,-516.0,-65.0,-215.0,0
37.0,-212.0,-45.0,-528.0,-56.0,-238.0,0
38.0,-213.0,-44.0,-492.0,-56.0,-262.0,0
42.0,-210.0,-49.0,-429.0,-56.0,-288.0,0
39.0,-203.0,-45.0,-359.0,-52.0,-319.0,0
35.0,-203.0,-40.0,-286.0,-62.0,-342.0,0
38.0,-200.0,-30.0,-225.0,-63.0,-357.0,0
41.0,-198.0,-18.0,-177.0,-55.0,-372.0,0
47.0,-202.0,-8.0,-115.0,-42.0,-376.0,0
51.0,-208.0,-2.0,-56.0,-8.0,-386.0,0
50.0,-212.0,11.0,-11.0,48.0,-401.0,0
52.0,-217.0,17.0,57.0,82.0,-407.0,0
56.0,-221.0,22.0,147.0,80.0,-418.0,0
58.0,-221.0,8.0,257.0,55.0,-440.0,0
67.0,-221.0,-17.0,332.0,48.0,-456.0,0
64.0,-216.0,-24.0,350.0,44.0,-472.0,0
49.0,-221.0,-24.0,357.0,31.0,-488.0,0
32.0,-230.0,-29.0,396.0,4.0,-503.0,0
13.0,-238.0,-20.0,438.0,-34.0,-499.0,0
1.0,-249.0,7.0,469.0,-68.0,-497.0,0
-9.0,-270.0,12.0,532.0,-96.0,-494.0,0
-23.0,-275.0,17.0,564.0,-101.0,-471.0,0
-27.0,-282.0,23.0,581.0,-91.0,-420.0,0
-15.0,-285.0,34.0,612.0,-83.0,-342.0,0
-13.0,-291.0,33.0,655.0,-72.0,-294.0,0
-17.0,-290.0,38.0,697.0,-46.0,-279.0,0
-7.0,-290.0,32.0,731.0,-29.0,-293.0,0
-3.0,-293.0,29.0,752.0,-22.0,-336.0,0
-9.0,-298.0,14.0,753.0,-36.0,-363.0,0
-12.0,-318.0,3.0,729.0,-55.0,-354.0,0
-3.0,-331.0,-1.0,661.0,-55.0,-338.0,0
6.0,-361.0,7.0,581.0,-58.0,-347.0,0
4.0,-390.0,14.0,522.0,-86.0,-388.0,0
1.0,-420.0,-5.0,498.0,-156.0,-422.0,0
13.0,-442.0,0.0,460.0,-234.0,-450.0,0
35.0,-491.0,17.0,406.0,-312.0,-462.0,0
51.0,-533.0,6.0,373.0,-428.0,-491.0,0
54.0,-566.0,-6.0,313.0,-521.0,-539.0,0
77.0,-590.0,3.0,211.0,-568.0,-539.0,0
99.0,-621.0,12.0,107.0,-579.0,-432.0,0
144.0,-646.0,13.0,11.0,-556.0,-336.0,0
189.0,-661.0,31.0,-41.0,-497.0,-292.0,0
224.0,-663.0,45.0,-38.0,-392.0,-257.0,0
249.0,-652.0,46.0,34.0,-248.0,-204.0,0
275.0,-628.0,41.0,108.0,-104.0,-137.0,0
307.0,-589.0,31.0,147.0,10.0,-80.0,0
348.0,-551.0,16.0,174.0,109.0,-42.0,0
375.0,-518.0,18.0,191.0,191.0,-26.0,0
400.0,-480.0,10.0,229.0,278.0,-36.0,0
403.0,-435.0,7.0,287.0,401.0,-79.0,0
394.0,-389.0,-3.0,331.0,500.0,-129.0,0
362.0,-342.0,-4.0,330.0,619.0,-191.0,0
307.0,-294.0,-12.0,291.0,742.0,-250.0,0
252.0,-253.0,-20.0,218.0,856.0,-280.0,0
206.0,-222.0,-33.0,106.0,952.0,-257.0,0
153.0,-191.0,-55.0,-30.0,1061.0,-177.0,0
126.0,-173.0,-66.0,-166.0,1171.0,-49.0,0
105.0,-160.0,-72.0,-287.0,1249.0,31.0,0
62.0,-143.0,-81.0,-422.0,1274.0,85.0,0
23.0,-131.0,-90.0,-635.0,1262.0,153.0,0
-7.0,-115.0,-81.0,-841.0,1205.0,250.0,0
-28.0,-113.0,-67.0,-1066.0,1102.0,337.0,0
-63.0,-113.0,-66.0,-1212.0,898.0,463.0,0
-89.0,-125.0,-84.0,-1189.0,687.0,596.0,0
-97.0,-140.0,-103.0,-938.0,558.0,734.0,0
-77.0,-150.0,-123.0,-485.0,505.0,859.0,0
-60.0,-154.0,-233.0,10.0,518.0,965.0,0
-60.0,-109.0,-381.0,256.0,548.0,1040.0,0
-120.0,-45.0,-478.0,-3.0,497.0,1065.0,0
-148.0,1.0,-373.0,-910.0,509.0,1072.0,0
-140.0,-24.0,-243.0,-1502.0,400.0,1204.0,0
-79.0,-74.0,-171.0,-1780.0,229.0,1310.0,0
-30.0,-99.0,-132.0,-1787.0,86.0,1286.0,0
36.0,-140.0,-97.0,-1604.0,77.0,1247.0,0
50.0,-175.0,-64.0,-1337.0,193.0,1244.0,0
31.0,-186.0,-85.0,-1107.0,362.0,1202.0,0
7.0,-200.0,-105.0,-1039.0,506.0,1144.0,0
8.0,-216.0,-114.0,-1136.0,582.0,1064.0,0
8.0,-226.0,-122.0,-1317.0,605.0,941.0,0
81.0,-188.0,-6.0,-1561.0,623.0,834.0,0
-4.0,-363.0,454.0,-1337.0,623.0,752.0,0
65.0,-300.0,-37.0,109.0,657.0,693.0,0
72.0,-230.0,-104.0,791.0,723.0,603.0,0
74.0,-196.0,-114.0,1177.0,814.0,520.0,0
77.0,-184.0,-125.0,1459.0,895.0,473.0,0
52.0,-175.0,-109.0,1713.0,937.0,419.0,0
26.0,-192.0,-306.0,1984.0,927.0,375.0,0
3.0,-149.0,-89.0,2206.0,830.0,327.0,0
-4.0,-154.0,-110.0,2289.0,668.0,241.0,0
-26.0,-138.0,-165.0,2170.0,558.0,156.0,0
-36.0,-107.0,-242.0,1726.0,483.0,120.0,0
-38.0,-86.0,-242.0,897.0,396.0,130.0,0
-35.0,-94.0,-118.0,-106.0,282.0,161.0,0
-35.0,-129.0,-43.0,-862.0,162.0,184.0,0
-40.0,-148.0,-81.0,-1390.0,103.0,176.0,0
-49.0,-177.0,-104.0,-1899.0,125.0,154.0,0
-58.0,-223.0,-131.0,-2432.0,158.0,152.0,0
-57.0,-289.0,-209.0,-3015.0,181.0,149.0,0
-53.0,-404.0,667.0,-3513.0,127.0,116.0,0
-89.0,-528.0,-54.0,-2716.0,83.0,142.0,0
-99.0,-495.0,-82.0,-2388.0,66.0,262.0,0
-97.0,-591.0,-21.0,-2221.0,74.0,455.0,0
-110.0,-697.0,-32.0,-1895.0,33.0,621.0,0
-122.0,-791.0,-60.0,-1632.0,-98.0,871.0,0
-118.0,-924.0,-64.0,-1383.0,-184.0,1270.0,0
-107.0,-1028.0,-51.0,-1102.0,-243.0,1765.0,0
-52.0,-1067.0,-50.0,-842.0,-356.0,2239.0,0
-77.0,-1034.0,-50.0,-571.0,-466.0,2541.0,0
-154.0,-932.0,-67.0,-179.0,-661.0,2516.0,0
-247.0,-797.0,-124.0,69.0,-878.0,2331.0,0
-282.0,-689.0,-192.0,168.0,-1093.0,2038.0,0
-239.0,-588.0,-188.0,170.0,-1228.0,1673.0,0
-132.0,-484.0,-136.0,285.0,-1314.0,1248.0,0
-46.0,-401.0,-162.0,575.0,-1415.0,953.0,0
-11.0,-369.0,-155.0,810.0,-1455.0,749.0,0
18.0,-336.0,-93.0,893.0,-1448.0,449.0,0
-5.0,-298.0,-50.0,1004.0,-1404.0,17.0,0
-48.0,-238.0,-63.0,1181.0,-1368.0,-446.0,0
-93.0,-173.0,-83.0,1281.0,-1322.0,-681.0,0
-126.0,-118.0,-101.0,1224.0,-1237.0,-761.0,0
-114.0,-92.0,-104.0,1083.0,-1083.0,-764.0,0
-82.0,-77.0,-77.0,955.0,-900.0,-791.0,0
-64.0,-73.0,-8.0,982.0,-826.0,-831.0,0
-47.0,-31.0,-85.0,1116.0,-764.0,-866.0,0
-30.0,-10.0,-72.0,1396.0,-692.0,-832.0,0
-55.0,72.0,-128.0,1658.0,-612.0,-735.0,0
0.0,120.0,-123.0,1746.0,-521.0,-543.0,0
69.0,161.0,-101.0,1593.0,-394.0,-343.0,0
146.0,181.0,-23.0,1195.0,-324.0,-262.0,0
149.0,110.0,59.0,877.0,-280.0,-272.0,0
190.0,148.0,-7.0,672.0,-229.0,-300.0,0
215.0,113.0,-12.0,348.0,-143.0,-316.0,0
235.0,67.0,17.0,73.0,-69.0,-397.0,0
265.0,41.0,54.0,72.0,4.0,-592.0,0
240.0,9.0,-35.0,142.0,-2.0,-791.0,0
220.0,38.0,-78.0,301.0,145.0,-984.0,0
215.0,82.0,-123.0,634.0,394.0,-1163.0,0
196.0,119.0,-178.0,891.0,726.0,-1270.0,0
224.0,219.0,-173.0,1093.0,881.0,-1274.0,0
137.0,203.0,-347.0,1309.0,953.0,-1222.0,0
96.0,179.0,-468.0,1239.0,1019.0,-1216.0,0
44.0,-4.0,-914.0,994.0,1098.0,-1152.0,0
40.0,129.0,-539.0,706.0,891.0,-1001.0,0
86.0,47.0,-514.0,-72.0,837.0,-883.0,0
-6.0,-104.0,-443.0,-626.0,802.0,-829.0,0
-59.0,-117.0,-87.0,-858.0,545.0,-833.0,0
-114.0,-229.0,-133.0,-743.0,210.0,-718.0,0
-96.0,-380.0,-123.0,-609.0,-91.0,-620.0,0
-145.0,-481.0,-228.0,-651.0,-189.0,-800.0,0
-247.0,-669.0,-369.0,-1228.0,-327.0,-858.0,0
-211.0,-1368.0,275.0,-2207.0,-645.0,-912.0,0
-535.0,-915.0,1622.0,-1087.0,-1326.0,-1612.0,0
-304.0,-1060.0,145.0,1240.0,-1615.0,-2066.0,0
-145.0,-902.0,140.0,2129.0,-1674.0,-2035.0,0
18.0,-804.0,71.0,2362.0,-1650.0,-1736.0,0
152.0,-676.0,-109.0,2252.0,-1427.0,-1462.0,0
55.0,-694.0,-258.0,1724.0,-1030.0,-1374.0,0
130.0,-807.0,-429.0,521.0,-80.0,-1163.0,0
167.0,-851.0,-482.0,-715.0,968.0,-1086.0,0
154.0,-823.0,-381.0,-1872.0,1642.0,-1048.0,0
187.0,-725.0,-254.0,-2585.0,1526.0,-838.0,0
240.0,-571.0,-125.0,-2825.0,1072.0,-574.0,0
276.0,-454.0,-9.0,-2545.0,762.0,-341.0,0
346.0,-355.0,21.0,-1845.0,724.0,-252.0,0
340.0,-293.0,11.0,-1058.0,778.0,-313.0,0
310.0,-239.0,21.0,-400.0,852.0,-363.0,0
283.0,-190.0,15.0,117.0,907.0,-320.0,0
235.0,-123.0,8.0,570.0,946.0,-153.0,0
189.0,-45.0,-14.0,778.0,962.0,92.0,0
166.0,0.0,-46.0,805.0,944.0,378.0,0
150.0,33.0,-30.0,666.0,930.0,561.0,0
78.0,59.0,-25.0,499.0,884.0,629.0,0
58.0,23.0,13.0,412.0,818.0,683.0,0
33.0,51.0,-43.0,408.0,685.0,662.0,0
2.0,62.0,-64.0,411.0,580.0,578.0,0
-33.0,59.0,-46.0,359.0,531.0,540.0,0
-60.0,92.0,-217.0,192.0,513.0,516.0,0
-221.0,146.0,-134.0,-364.0,481.0,485.0,0
-97.0,209.0,-67.0,-1019.0,369.0,421.0,0
-158.0,130.0,-59.0,-1625.0,261.0,398.0,0
-159.0,96.0,10.0,-1955.0,225.0,411.0,0
-168.0,76.0,43.0,-2032.0,217.0,426.0,0
-178.0,58.0,73.0,-1919.0,257.0,407.0,0
-271.0,89.0,59.0,-1716.0,198.0,219.0,0
-203.0,33.0,67.0,-1521.0,312.0,434.0,0
-201.0,-2.0,36.0,-1466.0,138.0,824.0,0
-190.0,-96.0,-259.0,-1453.0,-147.0,967.0,0
-144.0,23.0,189.0,-1408.0,-443.0,982.0,0
-144.0,-61.0,325.0,-803.0,-661.0,931.0,0
-101.0,13.0,232.0,111.0,-959.0,1056.0,0
-19.0,29.0,52.0,945.0,-1087.0,1240.0,0
2.0,85.0,28.0,1576.0,-1108.0,1385.0,0
74.0,57.0,15.0,2065.0,-1062.0,1448.0,0
60.0,93.0,-17.0,2574.0,-984.0,1348.0,0
70.0,72.0,-67.0,3101.0,-790.0,1286.0,0
61.0,62.0,-283.0,3558.0,-565.0,1245.0,0
44.0,47.0,-537.0,3654.0,-330.0,1252.0,0
94.0,41.0,-649.0,2892.0,-36.0,1214.0,0
-58.0,-297.0,-756.0,1986.0,426.0,975.0,0
270.0,-34.0,-483.0,1240.0,598.0,732.0,0
258.0,-232.0,-484.0,85.0,550.0,357.0,0
284.0,-327.0,-287.0,-559.0,553.0,75.0,0
254.0,-448.0,-189.0,-957.0,683.0,-152.0,0
89.0,-465.0,-304.0,-899.0,625.0,-379.0,0
340.0,-716.0,-568.0,-1232.0,465.0,-256.0,0
8.0,-654.0,-43.0,-2417.0,349.0,-925.0,0
-47.0,-716.0,1496.0,-3208.0,231.0,-1180.0,0
-172.0,-807.0,164.0,-1089.0,322.0,-1069.0,0
-267.0,-651.0,-98.0,-466.0,742.0,-608.0,0
-239.0,-615.0,-58.0,-797.0,1105.0,147.0,0
-174.0,-585.0,-136.0,-1402.0,1057.0,786.0,0
-188.0,-644.0,-165.0,-2036.0,914.0,1221.0,0
-179.0,-843.0,-167.0,-2787.0,698.0,1865.0,0
-180.0,-1029.0,-167.0,-3205.0,205.0,2654.0,0
-213.0,-1151.0,-166.0,-2919.0,-486.0,3300.0,0
-281.0,-1169.0,-167.0,-1931.0,-1112.0,3586.0,0
-339.0,-1083.0,-179.0,-421.0,-955.0,3294.0,0
-321.0,-941.0,-139.0,660.0,-364.0,2687.0,0
-197.0,-777.0,-80.0,1549.0,-5.0,2073.0,0
-112.0,-662.0,-101.0,2228.0,-59.0,1640.0,0
-51.0,-494.0,-68.0,2410.0,-190.0,1221.0,0
-77.0,-337.0,-57.0,2175.0,-317.0,728.0,0
-129.0,-227.0,-77.0,1714.0,-485.0,266.0,0
-199.0,-195.0,-106.0,1212.0,-658.0,-82.0,0
-191.0,-144.0,-92.0,786.0,-813.0,-306.0,0
-154.0,-155.0,-116.0,598.0,-1007.0,-426.0,0
-122.0,-156.0,-112.0,688.0,-1088.0,-520.0,0
-54.0,-283.0,-408.0,1117.0,-1127.0,-526.0,0
-75.0,-134.0,-73.0,1384.0,-1087.0,-911.0,0
-75.0,-51.0,-249.0,1540.0,-1132.0,-1022.0,0
-80.0,49.0,-365.0,1392.0,-1167.0,-1006.0,0
26.0,142.0,-362.0,786.0,-1133.0,-951.0,0
-37.0,162.0,-161.0,25.0,-1079.0,-956.0,0
54.0,113.0,-55.0,-537.0,-867.0,-885.0,0
76.0,66.0,-44.0,-861.0,-661.0,-911.0,0
25.0,99.0,57.0,-1058.0,-409.0,-961.0,0
70.0,152.0,40.0,-1011.0,-345.0,-919.0,0
112.0,86.0,51.0,-946.0,-339.0,-833.0,0
127.0,66.0,74.0,-928.0,-332.0,-867.0,0
140.0,46.0,58.0,-906.0,-353.0,-938.0,0
167.0,42.0,37.0,-871.0,-327.0,-1049.0,0
142.0,49.0,17.0,-959.0,-254.0,-1132.0,0
74.0,117.0,94.0,-978.0,-32.0,-1198.0,0
111.0,76.0,34.0,-927.0,-109.0,-1208.0,0
120.0,97.0,30.0,-782.0,-74.0,-1225.0,0
112.0,124.0,44.0,-407.0,121.0,-1259.0,0
116.0,141.0,44.0,156.0,332.0,-1221.0,0
131.0,134.0,35.0,880.0,502.0,-1135.0,0
108.0,147.0,-62.0,1683.0,576.0,-1023.0,0
97.0,138.0,-296.0,2350.0,651.0,-903.0,0
130.0,168.0,-514.0,2287.0,797.0,-820.0,0
171.0,227.0,-385.0,1765.0,914.0,-851.0,0
240.0,106.0,154.0,987.0,932.0,-917.0,0
13.0,-8.0,-180.0,385.0,858.0,-787.0,0
5.0,-144.0,-121.0,82.0,427.0,-512.0,0
-2.0,-252.0,-129.0,57.0,13.0,-334.0,0
2.0,-315.0,-142.0,142.0,-259.0,-306.0,0
-23.0,-388.0,-36.0,265.0,-251.0,-457.0,0
-48.0,-513.0,-248.0,-47.0,-152.0,-475.0,0
-101.0,-347.0,-125.0,-953.0,-127.0,-607.0,0
-263.0,-1060.0,685.0,-1719.0,-456.0,-1134.0,0
-282.0,-1043.0,326.0,173.0,-1146.0,-1313.0,0
-191.0,-1001.0,173.0,1184.0,-1648.0,-1489.0,0
-38.0,-938.0,102.0,1126.0,-1922.0,-1830.0,0
33.0,-868.0,-70.0,436.0,-1982.0,-1982.0,0
216.0,-746.0,-205.0,-371.0,-1645.0,-1820.0,0
236.0,-1063.0,-354.0,-1289.0,-753.0,-1544.0,0
243.0,-1212.0,-516.0,-2018.0,775.0,-1573.0,0
177.0,-1088.0,-442.0,-2441.0,2200.0,-1638.0,0
206.0,-919.0,-271.0,-2443.0,2474.0,-1182.0,0
283.0,-758.0,-103.0,-2161.0,1873.0,-455.0,0
337.0,-626.0,-28.0,-1542.0,1259.0,-7.0,0
372.0,-457.0,-18.0,-663.0,1040.0,-33.0,0
348.0,-323.0,-3.0,246.0,1175.0,-369.0,0
333.0,-242.0,-17.0,1093.0,1272.0,-527.0,0
270.0,-154.0,-28.0,1465.0,1265.0,-502.0,0
202.0,-57.0,-45.0,1574.0,1209.0,-302.0,0
189.0,26.0,-22.0,1471.0,1163.0,22.0,0
160.0,59.0,-11.0,1253.0,1156.0,309.0,0
97.0,59.0,-31.0,1031.0,1208.0,525.0,0
67.0,30.0,-60.0,854.0,1280.0,753.0,0
54.0,2.0,-91.0,738.0,1298.0,934.0,0
26.0,22.0,-137.0,610.0,1239.0,1019.0,0
22.0,66.0,-202.0,345.0,1103.0,977.0,0
-16.0,106.0,-218.0,-65.0,923.0,801.0,0
-73.0,-131.0,-453.0,-703.0,687.0,636.0,0
-43.0,112.0,-176.0,-1166.0,496.0,488.0,0
-61.0,141.0,-79.0,-1598.0,442.0,305.0,0
-57.0,107.0,-49.0,-1834.0,454.0,163.0,0
-107.0,107.0,7.0,-1865.0,475.0,86.0,0
-147.0,97.0,41.0,-1731.0,507.0,135.0,0
-186.0,81.0,73.0,-1534.0,541.0,274.0,0
-153.0,9.0,16.0,-1347.0,533.0,481.0,0
-173.0,-34.0,44.0,-1264.0,420.0,705.0,0
-89.0,-70.0,-137.0,-1242.0,369.0,1077.0,0
-158.0,1.0,6.0,-1293.0,260.0,1412.0,0
-126.0,41.0,15.0,-1332.0,88.0,1678.0,0
-57.0,69.0,54.0,-1253.0,-20.0,1826.0,0
-13.0,100.0,70.0,-1042.0,-132.0,1878.0,0
50.0,-6.0,71.0,-634.0,-323.0,1853.0,0
82.0,171.0,145.0,224.0,-526.0,1706.0,0
114.0,170.0,83.0,1210.0,-699.0,1623.0,0
106.0,163.0,67.0,2052.0,-848.0,1624.0,0
70.0,93.0,-31.0,3121.0,-838.0,1739.0,0
104.0,38.0,-194.0,3916.0,-523.0,1815.0,0
80.0,115.0,-342.0,4267.0,39.0,1728.0,0
572.0,-407.0,877.0,3406.0,770.0,1576.0,0
284.0,-65.0,-524.0,2394.0,1217.0,1452.0,0
311.0,-204.0,-415.0,1422.0,1367.0,1296.0,0
326.0,-214.0,-320.0,800.0,1399.0,980.0,0
355.0,-503.0,-420.0,554.0,1377.0,640.0,0
350.0,-565.0,-217.0,-46.0,1346.0,201.0,0
151.0,-605.0,-278.0,-720.0,1143.0,-875.0,0
-2.0,-460.0,-146.0,-2423.0,927.0,-1705.0,0
-107.0,-297.0,1847.0,-4165.0,638.0,-2138.0,0
-487.0,-997.0,269.0,-3259.0,562.0,-1862.0,0
-504.0,-894.0,-98.0,-2522.0,824.0,-1188.0,0
-530.0,-885.0,-144.0,-2721.0,1128.0,-140.0,0
-481.0,-1063.0,-156.0,-2983.0,978.0,888.0,0
-441.0,-1124.0,80.0,-3096.0,496.0,1724.0,0
-370.0,-1224.0,-104.0,-2746.0,-318.0,2586.0,0
-315.0,-1280.0,-174.0,-2000.0,-1187.0,3317.0,0
-271.0,-1196.0,-137.0,-1011.0,-1617.0,3320.0,0
-264.0,-1069.0,-90.0,23.0,-1381.0,2852.0,0
-208.0,-903.0,-79.0,1183.0,-932.0,2327.0,0
-121.0,-761.0,-48.0,2312.0,-672.0,1862.0,0
-51.0,-606.0,-64.0,3204.0,-602.0,1386.0,0
-48.0,-421.0,-80.0,3442.0,-614.0,825.0,0
-75.0,-246.0,-104.0,3196.0,-737.0,265.0,0
-98.0,-137.0,-96.0,2730.0,-873.0,-162.0,0
-41.0,-68.0,-82.0,2334.0,-863.0,-458.0,0
-24.0,-75.0,-76.0,2276.0,-756.0,-679.0,0
-62.0,-77.0,-112.0,2507.0,-684.0,-835.0,0
-28.0,-8.0,-610.0,2783.0,-710.0,-920.0,0
-198.0,4.0,-616.0,1997.0,-843.0,-878.0,0
-80.0,192.0,-436.0,585.0,-1022.0,-811.0,0
21.0,214.0,-237.0,-620.0,-1200.0,-670.0,0
68.0,195.0,-106.0,-1313.0,-1212.0,-631.0,0
86.0,176.0,-47.0,-1608.0,-1090.0,-660.0,0
110.0,184.0,-23.0,-1698.0,-910.0,-673.0,0
125.0,171.0,32.0,-1690.0,-717.0,-680.0,0
137.0,158.0,91.0,-1628.0,-550.0,-655.0,0
132.0,108.0,104.0,-1467.0,-453.0,-633.0,0
171.0,-301.0,-381.0,-1361.0,-449.0,-665.0,0
197.0,118.0,92.0,-1346.0,-392.0,-890.0,0
213.0,36.0,-27.0,-1455.0,-402.0,-1072.0,0
220.0,56.0,-8.0,-1459.0,-122.0,-1319.0,0
195.0,62.0,17.0,-1405.0,123.0,-1540.0,0
179.0,84.0,20.0,-1113.0,422.0,-1641.0,0
143.0,95.0,21.0,-533.0,802.0,-1715.0,0
112.0,133.0,45.0,300.0,1154.0,-1721.0,0
86.0,112.0,-8.0,1315.0,1415.0,-1713.0,0
85.0,85.0,-322.0,2513.0,1513.0,-1677.0,0
48.0,156.0,-728.0,2692.0,1441.0,-1656.0,0
76.0,122.0,-478.0,2227.0,1185.0,-1615.0,0
-40.0,113.0,-252.0,1503.0,1139.0,-1477.0,0
-39.0,-3.0,-264.0,968.0,950.0,-1118.0,0
-37.0,-122.0,-90.0,438.0,673.0,-743.0,0
51.0,-260.0,-107.0,189.0,439.0,-470.0,0
18.0,-408.0,-185.0,140.0,96.0,-513.0,0
-81.0,-468.0,-206.0,-8.0,-235.0,-732.0,0
-265.0,-357.0,-179.0,-446.0,-333.0,-975.0,0
-178.0,-694.0,567.0,-1399.0,-609.0,-1066.0,0
-466.0,-1343.0,997.0,-1653.0,-1440.0,-1157.0,0
-255.0,-1245.0,288.0,231.0,-2009.0,-1556.0,0
22.0,-1055.0,72.0,110.0,-2085.0,-1659.0,0
252.0,-922.0,-76.0,-513.0,-1850.0,-1582.0,0
197.0,-899.0,-190.0,-1263.0,-1213.0,-1476.0,0
304.0,-1028.0,-328.0,-1728.0,-308.0,-1236.0,0
339.0,-1100.0,-466.0,-1894.0,1021.0,-988.0,0
315.0,-970.0,-425.0,-1888.0,2382.0,-703.0,0
309.0,-815.0,-290.0,-1667.0,2865.0,-112.0,0
324.0,-657.0,-119.0,-1458.0,2328.0,560.0,0
342.0,-487.0,-22.0,-1037.0,1728.0,786.0,0
345.0,-325.0,7.0,-354.0,1409.0,544.0,0
315.0,-198.0,18.0,418.0,1313.0,193.0,0
291.0,-129.0,14.0,1099.0,1278.0,5.0,0
226.0,-13.0,13.0,1562.0,1264.0,-40.0,0
199.0,95.0,17.0,1757.0,1228.0,74.0,0
132.0,150.0,38.0,1744.0,1099.0,282.0,0
67.0,167.0,29.0,1654.0,1028.0,541.0,0
59.0,116.0,-21.0,1492.0,1070.0,756.0,0
59.0,100.0,-110.0,1303.0,1134.0,870.0,0
33.0,111.0,-257.0,982.0,1164.0,785.0,0
3.0,141.0,-345.0,296.0,1138.0,604.0,0
-44.0,172.0,-288.0,-731.0,1090.0,442.0,0
-55.0,152.0,-100.0,-1585.0,989.0,363.0,0
-160.0,218.0,-76.0,-1706.0,899.0,260.0,0
-139.0,189.0,-70.0,-1819.0,747.0,150.0,0
-147.0,156.0,-12.0,-1987.0,765.0,90.0,0
-160.0,133.0,36.0,-1977.0,799.0,92.0,0
-151.0,157.0,114.0,-1799.0,715.0,145.0,0
-228.0,36.0,45.0,-1535.0,655.0,433.0,0
-200.0,44.0,92.0,-1403.0,528.0,823.0,0
19.0,-89.0,148.0,-1233.0,282.0,1047.0,0
-230.0,85.0,207.0,-1022.0,264.0,1094.0,0
-209.0,27.0,134.0,-633.0,261.0,1250.0,0
-119.0,53.0,159.0,-276.0,58.0,1366.0,0
-132.0,-9.0,78.0,324.0,-354.0,1454.0,0
-92.0,7.0,20.0,832.0,-567.0,1600.0,0
7.0,58.0,-30.0,1100.0,-683.0,1758.0,0
76.0,106.0,-79.0,1397.0,-764.0,1793.0,0
119.0,116.0,-182.0,1627.0,-794.0,1786.0,0
133.0,89.0,-321.0,1693.0,-748.0,1763.0,0
111.0,-53.0,-385.0,1465.0,-636.0,1672.0,0
129.0,-130.0,-360.0,1426.0,-704.0,1431.0,0
128.0,-20.0,-320.0,1116.0,-826.0,1297.0,0
110.0,-182.0,-242.0,695.0,-763.0,1193.0,0
189.0,-280.0,-341.0,760.0,-590.0,1066.0,0
250.0,-345.0,-320.0,714.0,-262.0,868.0,0
312.0,-511.0,-219.0,1029.0,180.0,575.0,0
379.0,-804.0,-270.0,1443.0,448.0,360.0,0
67.0,-523.0,-247.0,920.0,711.0,-535.0,0
-189.0,-612.0,-383.0,-609.0,606.0,-1524.0,0
-322.0,-824.0,625.0,-2442.0,157.0,-1672.0,0
-305.0,-889.0,332.0,-2200.0,-143.0,-1281.0,0
-309.0,-789.0,-109.0,-1644.0,118.0,-666.0,0
-296.0,-898.0,-83.0,-2179.0,406.0,256.0,0
-280.0,-1042.0,96.0,-2896.0,294.0,1096.0,0
-278.0,-1144.0,-15.0,-3034.0,-235.0,1740.0,0
-253.0,-1194.0,-126.0,-2566.0,-1081.0,2296.0,0
-221.0,-1189.0,-116.0,-1870.0,-1857.0,2791.0,0
-208.0,-1103.0,-58.0,-796.0,-2281.0,3000.0,0
-204.0,-963.0,-146.0,401.0,-2014.0,2790.0,0
-166.0,-805.0,-149.0,1388.0,-1388.0,2260.0,0
-89.0,-666.0,-185.0,2262.0,-920.0,1651.0,0
-44.0,-489.0,-123.0,2846.0,-671.0,1036.0,0
-46.0,-309.0,-86.0,3140.0,-680.0,506.0,0
-61.0,-155.0,-101.0,3158.0,-793.0,97.0,0
-56.0,-69.0,-74.0,2894.0,-875.0,-264.0,0
-47.0,-29.0,-64.0,2497.0,-846.0,-498.0,0
-51.0,-24.0,-57.0,2250.0,-752.0,-681.0,0
-43.0,-7.0,-203.0,2085.0,-802.0,-766.0,0
-108.0,23.0,-351.0,1650.0,-915.0,-790.0,0
-63.0,99.0,-390.0,776.0,-1004.0,-767.0,0
6.0,136.0,-225.0,-281.0,-1122.0,-698.0,0
30.0,138.0,-103.0,-989.0,-1165.0,-687.0,0
39.0,126.0,-36.0,-1216.0,-1102.0,-698.0,0
45.0,143.0,7.0,-1194.0,-985.0,-689.0,0
58.0,137.0,34.0,-971.0,-899.0,-653.0,0
83.0,53.0,-29.0,-767.0,-837.0,-629.0,0
79.0,121.0,75.0,-589.0,-706.0,-608.0,0
117.0,98.0,66.0,-432.0,-611.0,-595.0,0
143.0,41.0,38.0,-265.0,-491.0,-670.0,0
174.0,-21.0,64.0,-222.0,-335.0,-793.0,0
128.0,39.0,68.0,-179.0,-197.0,-1014.0,0
137.0,33.0,26.0,79.0,-43.0,-1040.0,0
116.0,38.0,-23.0,318.0,13.0,-1108.0,0
103.0,51.0,-72.0,474.0,37.0,-1252.0,0
91.0,89.0,-124.0,598.0,58.0,-1362.0,0
75.0,117.0,-181.0,694.0,94.0,-1445.0,0
71.0,134.0,-213.0,770.0,149.0,-1490.0,0
51.0,168.0,-255.0,767.0,236.0,-1550.0,0
168.0,-195.0,-686.0,770.0,343.0,-1504.0,0
68.0,203.0,-501.0,1023.0,482.0,-1502.0,0
0.0,189.0,-94.0,501.0,631.0,-1491.0,0
48.0,120.0,-244.0,226.0,696.0,-1361.0,0
49.0,-16.0,-196.0,-250.0,602.0,-1111.0,0
62.0,-121.0,-130.0,-573.0,393.0,-765.0,0
99.0,-218.0,-116.0,-575.0,294.0,-575.0,0
85.0,-317.0,-144.0,-501.0,107.0,-547.0,0
48.0,-392.0,-186.0,-504.0,-33.0,-546.0,0
-65.0,-485.0,-270.0,-798.0,37.0,-516.0,0
-482.0,141.0,259.0,-1373.0,106.0,-461.0,0
-265.0,-953.0,829.0,-1244.0,-215.0,-305.0,0
-149.0,-987.0,299.0,-109.0,-865.0,-501.0,0
-44.0,-950.0,159.0,620.0,-1590.0,-582.0,0
111.0,-903.0,135.0,706.0,-2018.0,-789.0,0
239.0,-834.0,40.0,654.0,-2085.0,-1097.0,0
157.0,-766.0,-120.0,473.0,-1772.0,-1390.0,0
50.0,-893.0,-283.0,58.0,-1150.0,-1287.0,0
69.0,-1082.0,-471.0,-446.0,-294.0,-970.0,0
66.0,-1011.0,-461.0,-997.0,686.0,-722.0,0
55.0,-868.0,-332.0,-1430.0,1258.0,-407.0,0
77.0,-748.0,-206.0,-1692.0,1247.0,-133.0,0
140.0,-616.0,-55.0,-1690.0,961.0,-78.0,0
179.0,-484.0,13.0,-1234.0,697.0,-265.0,0
180.0,-364.0,-13.0,-468.0,634.0,-664.0,0
142.0,-265.0,-20.0,347.0,568.0,-913.0,0
92.0,-195.0,-14.0,816.0,379.0,-970.0,0
59.0,-130.0,-5.0,1110.0,169.0,-896.0,0
28.0,-83.0,0.0,1292.0,-11.0,-763.0,0
19.0,-29.0,0.0,1366.0,-146.0,-570.0,0
15.0,25.0,27.0,1309.0,-254.0,-359.0,0
29.0,55.0,-3.0,1149.0,-311.0,-135.0,0
41.0,63.0,0.0,905.0,-346.0,42.0,0
47.0,65.0,-20.0,639.0,-335.0,147.0,0
39.0,72.0,-79.0,369.0,-279.0,211.0,0
19.0,97.0,-122.0,100.0,-256.0,230.0,0
6.0,110.0,-146.0,-273.0,-310.0,227.0,0
-16.0,83.0,-151.0,-667.0,-429.0,200.0,0
-65.0,150.0,-149.0,-1103.0,-550.0,182.0,0
-62.0,110.0,-1.0,-1431.0,-612.0,165.0,0
-86.0,98.0,-19.0,-1540.0,-691.0,146.0,0
-92.0,58.0,-22.0,-1493.0,-755.0,126.0,0
-77.0,23.0,-15.0,-1401.0,-824.0,84.0,0
-97.0,13.0,-7.0,-1271.0,-934.0,29.0,0
-91.0,-21.0,1.0,-1147.0,-1041.0,-21.0,0
-40.0,-55.0,91.0,-1039.0,-1134.0,-78.0,0
-148.0,23.0,80.0,-811.0,-1291.0,-141.0,0
-136.0,-16.0,75.0,-393.0,-1224.0,-171.0,0
-188.0,-41.0,85.0,-17.0,-1261.0,-124.0,0
-164.0,-41.0,38.0,284.0,-1364.0,69.0,0
-133.0,-19.0,-1.0,596.0,-1520.0,308.0,0
-115.0,-4.0,-34.0,860.0,-1661.0,541.0,0
-93.0,12.0,-60.0,1068.0,-1745.0,722.0,0
-82.0,35.0,-84.0,1225.0,-1796.0,881.0,0
-67.0,48.0,-98.0,1393.0,-1824.0,968.0,0
-53.0,54.0,-117.0,1540.0,-1841.0,1024.0,0
-41.0,-6.0,-279.0,1720.0,-1914.0,1042.0,0
-12.0,38.0,-30.0,1820.0,-1931.0,1042.0,0
-25.0,23.0,-284.0,1688.0,-2005.0,1007.0,0
-25.0,-3.0,-287.0,1447.0,-2130.0,995.0,0
-5.0,-62.0,-224.0,1282.0,-2170.0,1024.0,0
74.0,-159.0,-233.0,1258.0,-1990.0,1016.0,0
187.0,-232.0,-215.0,1221.0,-1654.0,830.0,0
190.0,-208.0,-170.0,1100.0,-1217.0,595.0,0
325.0,-408.0,-174.0,1035.0,-843.0,519.0,0
317.0,-425.0,-237.0,740.0,-544.0,166.0,0
329.0,-516.0,-311.0,245.0,-279.0,-119.0,0
242.0,-541.0,-352.0,-400.0,-68.0,-349.0,0
-176.0,-156.0,340.0,-1314.0,42.0,-806.0,0
16.0,-602.0,297.0,-1225.0,-8.0,-895.0,0
-35.0,-498.0,168.0,-589.0,-13.0,-987.0,0
-133.0,-382.0,14.0,-80.0,70.0,-1098.0,0
-105.0,-345.0,76.0,29.0,130.0,-814.0,0
-130.0,-352.0,72.0,34.0,-83.0,-491.0,0
-47.0,-369.0,7.0,-21.0,-382.0,-218.0,0
9.0,-408.0,-63.0,-200.0,-643.0,-70.0,0
24.0,-429.0,-86.0,-500.0,-740.0,-37.0,0
14.0,-446.0,-114.0,-765.0,-716.0,8.0,0
4.0,-497.0,-173.0,-931.0,-689.0,138.0,0
-22.0,-568.0,-218.0,-1026.0,-700.0,352.0,0
-17.0,-648.0,-246.0,-1077.0,-733.0,650.0,0
-34.0,-688.0,-200.0,-1163.0,-770.0,853.0,0
-50.0,-699.0,-144.0,-1128.0,-788.0,950.0,0
-60.0,-699.0,-7.0,-852.0,-737.0,975.0,0
-51.0,-683.0,55.0,-389.0,-664.0,975.0,0
-58.0,-649.0,88.0,133.0,-599.0,930.0,0
-71.0,-604.0,110.0,594.0,-563.0,842.0,0
-92.0,-556.0,114.0,941.0,-595.0,751.0,0
-113.0,-517.0,73.0,1167.0,-661.0,674.0,0
-134.0,-495.0,29.0,1233.0,-707.0,620.0,0
-141.0,-458.0,-16.0,1123.0,-704.0,555.0,0
-146.0,-428.0,-44.0,908.0,-703.0,494.0,0
-137.0,-398.0,-56.0,604.0,-732.0,448.0,0
-135.0,-367.0,-63.0,386.0,-795.0,391.0,0
-138.0,-340.0,-65.0,227.0,-878.0,306.0,0
-138.0,-307.0,-62.0,130.0,-978.0,196.0,0
-142.0,-284.0,-57.0,71.0,-1086.0,101.0,0
-141.0,-260.0,-59.0,-13.0,-1194.0,47.0,0
-137.0,-240.0,-52.0,-157.0,-1295.0,-8.0,0
-125.0,-229.0,-41.0,-335.0,-1376.0,-63.0,0
-118.0,-221.0,-38.0,-533.0,-1433.0,-126.0,0
-114.0,-211.0,-30.0,-733.0,-1464.0,-220.0,0
-109.0,-206.0,-6.0,-929.0,-1497.0,-311.0,0
-97.0,-199.0,0.0,-1002.0,-1536.0,-408.0,0
-87.0,-197.0,2.0,-1009.0,-1568.0,-521.0,0
-77.0,-188.0,1.0,-981.0,-1589.0,-645.0,0
-68.0,-171.0,6.0,-921.0,-1593.0,-759.0,0
-64.0,-160.0,-8.0,-811.0,-1580.0,-858.0,0
-59.0,-141.0,-9.0,-674.0,-1548.0,-934.0,0
-50.0,-122.0,-26.0,-504.0,-1512.0,-969.0,0
-51.0,-90.0,-42.0,-338.0,-1460.0,-996.0,0
-52.0,-69.0,-48.0,-177.0,-1385.0,-1000.0,0
-58.0,-44.0,-40.0,10.0,-1311.0,-992.0,0
-29.0,-27.0,-36.0,170.0,-1233.0,-1006.0,0
-34.0,-32.0,-38.0,306.0,-1170.0,-1052.0,0
-36.0,-35.0,-34.0,395.0,-1083.0,-1129.0,0
-15.0,-33.0,-37.0,459.0,-1016.0,-1209.0,0
-6.0,-32.0,-36.0,520.0,-1001.0,-1266.0,0
15.0,-30.0,-35.0,620.0,-1010.0,-1300.0,0
23.0,-27.0,-40.0,782.0,-1046.0,-1317.0,0
31.0,-16.0,-91.0,986.0,-1083.0,-1293.0,0
29.0,0.0,-184.0,1150.0,-1100.0,-1234.0,0
3.0,78.0,-251.0,1093.0,-1114.0,-1114.0,0
32.0,76.0,-339.0,789.0,-1195.0,-938.0,0
24.0,94.0,-340.0,285.0,-1208.0,-837.0,0
21.0,71.0,-289.0,-186.0,-1210.0,-775.0,0
23.0,41.0,-255.0,-446.0,-1217.0,-773.0,0
15.0,-21.0,-250.0,-492.0,-1254.0,-839.0,0
-9.0,-85.0,-264.0,-450.0,-1309.0,-926.0,0
-49.0,-116.0,-252.0,-427.0,-1313.0,-1017.0,0
-92.0,-159.0,-221.0,-467.0,-1370.0,-1046.0,0
-132.0,-196.0,-179.0,-572.0,-1439.0,-1036.0,0
-185.0,-236.0,-141.0,-648.0,-1570.0,-957.0,0
-248.0,-277.0,-119.0,-687.0,-1763.0,-796.0,0
-284.0,-296.0,-123.0,-719.0,-1946.0,-572.0,0
-266.0,-306.0,-154.0,-842.0,-2050.0,-356.0,0
-200.0,-304.0,-165.0,-1082.0,-2106.0,-169.0,0
-119.0,-307.0,-148.0,-1415.0,-2204.0,-17.0,0
-19.0,-355.0,422.0,-1767.0,-2407.0,104.0,0
51.0,-458.0,219.0,-999.0,-2571.0,188.0,0
116.0,-389.0,-96.0,225.0,-2592.0,273.0,0
159.0,-355.0,-83.0,759.0,-2606.0,221.0,0
173.0,-311.0,-43.0,958.0,-2695.0,43.0,0
133.0,-272.0,-94.0,1175.0,-2694.0,-181.0,0
84.0,-242.0,-139.0,1240.0,-2574.0,-343.0,0
29.0,-231.0,-132.0,1057.0,-2482.0,-458.0,0
-12.0,-232.0,-149.0,765.0,-2452.0,-554.0,0
-11.0,-249.0,-167.0,466.0,-2465.0,-589.0,0
20.0,-264.0,-169.0,180.0,-2451.0,-536.0,0
52.0,-282.0,-187.0,-117.0,-2377.0,-500.0,0
69.0,-322.0,-201.0,-508.0,-2224.0,-572.0,0
61.0,-359.0,-212.0,-825.0,-2084.0,-712.0,0
44.0,-375.0,-200.0,-1078.0,-1972.0,-852.0,0
8.0,-371.0,-189.0,-1226.0,-1912.0,-977.0,0
-36.0,-347.0,-107.0,-1280.0,-1914.0,-1047.0,0
-39.0,-414.0,174.0,-1039.0,-2003.0,-1074.0,0
-40.0,-387.0,-25.0,-13.0,-2067.0,-1099.0,0
-58.0,-316.0,-124.0,723.0,-2126.0,-1109.0,0
-71.0,-272.0,-65.0,1036.0,-2247.0,-1026.0,0
-69.0,-241.0,-65.0,1238.0,-2495.0,-893.0,0
-55.0,-209.0,-93.0,1301.0,-2697.0,-806.0,0
-37.0,-184.0,-106.0,1182.0,-2875.0,-744.0,0
-17.0,-172.0,-96.0,962.0,-3011.0,-700.0,0
-10.0,-162.0,-108.0,744.0,-3082.0,-683.0,0
-7.0,-159.0,-110.0,593.0,-3099.0,-668.0,0
-7.0,-151.0,-113.0,525.0,-3070.0,-646.0,0
-5.0,-147.0,-109.0,502.0,-3018.0,-601.0,0
-1.0,-139.0,-100.0,499.0,-2978.0,-555.0,0
1.0,-133.0,-99.0,491.0,-2967.0,-504.0,0
1.0,-126.0,-102.0,439.0,-2980.0,-478.0,0
4.0,-122.0,-101.0,368.0,-2991.0,-460.0,0
1.0,-123.0,-101.0,269.0,-2997.0,-450.0,0
-1.0,-118.0,-93.0,158.0,-2994.0,-449.0,0
-4.0,-120.0,-91.0,51.0,-2989.0,-459.0,0
-8.0,-124.0,-80.0,-53.0,-2993.0,-464.0,0
-12.0,-132.0,-84.0,-148.0,-3008.0,-467.0,0
-13.0,-138.0,-89.0,-225.0,-3032.0,-458.0,0
-11.0,-152.0,-91.0,-280.0,-3060.0,-448.0,0
-4.0,-162.0,-96.0,-338.0,-3090.0,-449.0,0
0.0,-172.0,-99.0,-391.0,-3112.0,-458.0,0
6.0,-196.0,-23.0,-399.0,-3131.0,-468.0,0
-1.0,-227.0,37.0,-136.0,-3156.0,-487.0,0
-11.0,-212.0,-82.0,346.0,-3148.0,-505.0,0
-15.0,-194.0,-102.0,592.0,-3163.0,-507.0,0
-14.0,-188.0,-109.0,680.0,-3212.0,-501.0,0
-14.0,-181.0,-116.0,689.0,-3245.0,-488.0,0
-12.0,-184.0,-123.0,658.0,-3267.0,-453.0,0
-6.0,-185.0,-120.0,615.0,-3276.0,-408.0,0
-3.0,-185.0,-121.0,554.0,-3265.0,-361.0,0
-14.0,-177.0,-110.0,514.0,-3260.0,-301.0,0
-12.0,-178.0,-76.0,520.0,-3293.0,-207.0,0
-10.0,-196.0,-87.0,604.0,-3335.0,-109.0,0
-3.0,-223.0,-110.0,703.0,-3321.0,-15.0,0
5.0,-235.0,-115.0,743.0,-3266.0,74.0,0
10.0,-248.0,-123.0,734.0,-3221.0,153.0,0
21.0,-265.0,-116.0,722.0,-3176.0,206.0,0
27.0,-283.0,-115.0,736.0,-3121.0,240.0,0
35.0,-293.0,-119.0,766.0,-3057.0,253.0,0
40.0,-304.0,-125.0,761.0,-2972.0,250.0,0
36.0,-308.0,-137.0,702.0,-2899.0,242.0,0
29.0,-307.0,-142.0,594.0,-2825.0,243.0,0
15.0,-285.0,-141.0,471.0,-2762.0,262.0,0
6.0,-276.0,-150.0,364.0,-2721.0,303.0,0
-6.0,-261.0,-151.0,265.0,-2694.0,360.0,0
-6.0,-248.0,-155.0,183.0,-2668.0,422.0,0
-6.0,-225.0,-151.0,118.0,-2630.0,484.0,0
15.0,-210.0,-144.0,81.0,-2592.0,550.0,0
46.0,-207.0,-147.0,57.0,-2518.0,606.0,0
64.0,-206.0,-147.0,-21.0,-2408.0,589.0,0
65.0,-199.0,-139.0,-162.0,-2298.0,532.0,0
64.0,-197.0,-129.0,-342.0,-2232.0,452.0,0
52.0,-179.0,-111.0,-523.0,-2210.0,370.0,0
43.0,-163.0,-100.0,-683.0,-2223.0,304.0,0
40.0,-182.0,-97.0,-790.0,-2222.0,269.0,0
57.0,-204.0,-123.0,-852.0,-2200.0,231.0,0
71.0,-223.0,-123.0,-907.0,-2123.0,156.0,0
34.0,-226.0,-145.0,-1007.0,-1995.0,64.0,0
-1.0,-281.0,-119.0,-1166.0,-1865.0,21.0,0
39.0,-247.0,-178.0,-1288.0,-1824.0,3.0,0
24.0,-311.0,-114.0,-1486.0,-1825.0,-12.0,0
-10.0,-324.0,-90.0,-1627.0,-1773.0,-26.0,0
3.0,-351.0,259.0,-1681.0,-1710.0,-73.0,0
-35.0,-408.0,27.0,-949.0,-1639.0,-126.0,0
-46.0,-362.0,-33.0,-295.0,-1602.0,-152.0,0
-52.0,-342.0,-19.0,39.0,-1570.0,-164.0,0
-63.0,-329.0,-12.0,221.0,-1561.0,-165.0,0
-65.0,-323.0,-40.0,350.0,-1561.0,-160.0,0
-64.0,-311.0,-63.0,396.0,-1528.0,-146.0,0
-71.0,-302.0,-79.0,343.0,-1466.0,-140.0,0
-76.0,-288.0,-87.0,234.0,-1392.0,-120.0,0
-78.0,-276.0,-85.0,105.0,-1338.0,-97.0,0
-77.0,-265.0,-76.0,-19.0,-1319.0,-71.0,0
-69.0,-258.0,-65.0,-122.0,-1340.0,-72.0,0
-63.0,-247.0,-49.0,-185.0,-1392.0,-88.0,0
-63.0,-228.0,-39.0,-200.0,-1460.0,-121.0,0
-55.0,-220.0,-30.0,-181.0,-1530.0,-158.0,0
-47.0,-210.0,-22.0,-130.0,-1608.0,-193.0,0
-43.0,-203.0,-23.0,-75.0,-1658.0,-225.0,0
-33.0,-203.0,-24.0,-19.0,-1689.0,-253.0,0
-28.0,-201.0,-20.0,30.0,-1705.0,-271.0,0
-21.0,-206.0,-24.0,70.0,-1706.0,-291.0,0
-18.0,-208.0,-31.0,96.0,-1704.0,-303.0,0
-13.0,-212.0,-33.0,109.0,-1700.0,-318.0,0
-8.0,-218.0,-34.0,116.0,-1697.0,-328.0,0
-3.0,-220.0,-39.0,123.0,-1691.0,-339.0,0
-1.0,-226.0,-40.0,126.0,-1674.0,-348.0,0
-3.0,-232.0,-46.0,127.0,-1649.0,-357.0,0
-5.0,-233.0,-44.0,126.0,-1619.0,-358.0,0
-8.0,-236.0,-50.0,125.0,-1590.0,-362.0,0
-9.0,-241.0,-49.0,125.0,-1559.0,-361.0,0
-10.0,-241.0,-54.0,124.0,-1525.0,-365.0,0
-14.0,-243.0,-56.0,114.0,-1484.0,-365.0,0
-20.0,-248.0,-50.0,93.0,-1438.0,-367.0,0
-16.0,-258.0,-55.0,67.0,-1393.0,-363.0,0
-32.0,-248.0,-47.0,39.0,-1351.0,-366.0,0
-35.0,-253.0,-50.0,14.0,-1312.0,-339.0,0
-37.0,-256.0,-46.0,-1.0,-1285.0,-324.0,0
-45.0,-253.0,-48.0,-4.0,-1258.0,-306.0,0
-42.0,-258.0,-49.0,2.0,-1228.0,-289.0,0
-45.0,-256.0,-54.0,10.0,-1199.0,-277.0,0
-56.0,-254.0,-56.0,9.0,-1178.0,-267.0,0
-58.0,-254.0,-55.0,-6.0,-1160.0,-243.0,0
-56.0,-256.0,-58.0,-24.0,-1150.0,-225.0,0
-55.0,-254.0,-60.0,-39.0,-1141.0,-210.0,0
-54.0,-251.0,-58.0,-50.0,-1130.0,-196.0,0
-53.0,-245.0,-59.0,-54.0,-1118.0,-188.0,0
-53.0,-246.0,-66.0,-51.0,-1102.0,-183.0,0
-53.0,-241.0,-63.0,-51.0,-1084.0,-181.0,0
-49.0,-242.0,-62.0,-52.0,-1070.0,-182.0,0
-44.0,-242.0,-60.0,-51.0,-1056.0,-182.0,0
-42.0,-244.0,-64.0,-43.0,-1041.0,-187.0,0
-38.0,-243.0,-60.0,-33.0,-1021.0,-193.0,0
-34.0,-246.0,-58.0,-20.0,-1000.0,-198.0,0
-32.0,-246.0,-58.0,-1.0,-984.0,-208.0,0
-29.0,-245.0,-57.0,28.0,-969.0,-214.0,0
-30.0,-246.0,-60.0,55.0,-959.0,-216.0,0
-28.0,-246.0,-69.0,82.0,-948.0,-217.0,0
-33.0,-243.0,-78.0,99.0,-944.0,-218.0,0
-32.0,-244.0,-85.0,99.0,-942.0,-207.0,0
-33.0,-248.0,-89.0,81.0,-944.0,-196.0,0
-35.0,-253.0,-88.0,58.0,-938.0,-191.0,0
-37.0,-259.0,-85.0,45.0,-923.0,-190.0,0
-36.0,-265.0,-71.0,47.0,-905.0,-192.0,0
-39.0,-266.0,-64.0,69.0,-883.0,-203.0,0
-35.0,-267.0,-65.0,112.0,-863.0,-213.0,0
-32.0,-272.0,-58.0,153.0,-840.0,-223.0,0
-25.0,-267.0,-58.0,191.0,-811.0,-226.0,0
-19.0,-267.0,-54.0,224.0,-779.0,-229.0,0
-13.0,-264.0,-55.0,249.0,-740.0,-221.0,0
-7.0,-263.0,-56.0,267.0,-701.0,-214.0,0
1.0,-262.0,-54.0,280.0,-660.0,-197.0,0
12.0,-266.0,-51.0,288.0,-615.0,-185.0,0
20.0,-260.0,-46.0,296.0,-567.0,-164.0,0
27.0,-264.0,-42.0,304.0,-510.0,-151.0,0
33.0,-265.0,-39.0,314.0,-464.0,-138.0,0
40.0,-270.0,-41.0,322.0,-421.0,-129.0,0
42.0,-263.0,-37.0,329.0,-385.0,-121.0,0
44.0,-262.0,-39.0,335.0,-352.0,-118.0,0
44.0,-258.0,-41.0,335.0,-323.0,-113.0,0
45.0,-254.0,-41.0,330.0,-301.0,-115.0,0
45.0,-249.0,-41.0,319.0,-284.0,-116.0,0
42.0,-247.0,-37.0,301.0,-270.0,-123.0,0
35.0,-247.0,-42.0,278.0,-252.0,-129.0,0
26.0,-234.0,-43.0,244.0,-236.0,-138.0,0
23.0,-231.0,-58.0,207.0,-217.0,-144.0,0
12.0,-225.0,-63.0,166.0,-198.0,-152.0,0
1.0,-226.0,-57.0,126.0,-184.0,-148.0,0
-5.0,-230.0,-57.0,81.0,-173.0,-144.0,0
-10.0,-228.0,-57.0,33.0,-164.0,-134.0,0
-14.0,-228.0,-57.0,-13.0,-156.0,-120.0,0
-22.0,-228.0,-57.0,-56.0,-139.0,-103.0,0
-27.0,-231.0,-55.0,-97.0,-119.0,-85.0,0
-33.0,-233.0,-54.0,-143.0,-91.0,-63.0,0
-37.0,-240.0,-50.0,-169.0,-70.0,-45.0,0
-41.0,-245.0,-48.0,-177.0,-51.0,-21.0,0
-43.0,-253.0,-41.0,-166.0,-35.0,-2.0,0
-42.0,-255.0,-40.0,-142.0,-23.0,16.0,0
-41.0,-259.0,-36.0,-109.0,-16.0,26.0,0
-43.0,-261.0,-37.0,-72.0,-14.0,37.0,0
-38.0,-260.0,-41.0,-34.0,-16.0,39.0,0
-34.0,-261.0,-39.0,-1.0,-22.0,43.0,0
-30.0,-263.0,-39.0,30.0,-30.0,35.0,0
-26.0,-260.0,-40.0,61.0,-40.0,27.0,0
-20.0,-261.0,-42.0,83.0,-47.0,12.0,0
-13.0,-260.0,-43.0,105.0,-54.0,-2.0,0
-11.0,-259.0,-43.0,120.0,-60.0,-20.0,0
-7.0,-258.0,-46.0,127.0,-68.0,-33.0,0
-2.0,-255.0,-44.0,128.0,-78.0,-51.0,0
0.0,-255.0,-45.0,123.0,-86.0,-64.0,0
5.0,-254.0,-47.0,115.0,-91.0,-79.0,0
7.0,-253.0,-47.0,105.0,-94.0,-89.0,0
9.0,-251.0,-48.0,90.0,-95.0,-101.0,0
10.0,-246.0,-47.0,65.0,-93.0,-106.0,0
8.0,-246.0,-48.0,44.0,-90.0,-113.0,0
5.0,-243.0,-48.0,28.0,-84.0,-111.0,0
5.0,-241.0,-49.0,14.0,-77.0,-110.0,0
0.0,-239.0,-49.0,7.0,-69.0,-107.0,0
-1.0,-244.0,-48.0,-1.0,-61.0,-103.0,0
-5.0,-241.0,-53.0,-7.0,-55.0,-97.0,0
-7.0,-243.0,-56.0,-14.0,-49.0,-91.0,0
-11.0,-240.0,-52.0,-22.0,-46.0,-79.0,0
-10.0,-247.0,-57.0,-30.0,-42.0,-70.0,0
-11.0,-247.0,-56.0,-34.0,-39.0,-62.0,0
-10.0,-254.0,-57.0,-41.0,-35.0,-54.0,0
-9.0,-252.0,-57.0,-46.0,-30.0,-44.0,0
-7.0,-254.0,-51.0,-51.0,-25.0,-35.0,0
-5.0,-258.0,-50.0,-54.0,-20.0,-26.0,0
-3.0,-259.0,-47.0,-54.0,-14.0,-17.0,0
1.0,-259.0,-48.0,-52.0,-11.0,-12.0,0
3.0,-258.0,-44.0,-47.0,-9.0,-8.0,0
5.0,-261.0,-40.0,-41.0,-8.0,-3.0,0
7.0,-260.0,-43.0,-30.0,-6.0,-6.0,0
6.0,-259.0,-41.0,-19.0,-6.0,-7.0,0
12.0,-254.0,-38.0,-9.0,-12.0,-10.0,0
11.0,-256.0,-41.0,-2.0,-15.0,-14.0,0
9.0,-253.0,-40.0,3.0,-20.0,-18.0,0
7.0,-252.0,-41.0,4.0,-27.0,-24.0,0
9.0,-252.0,-40.0,0.0,-29.0,-25.0,0
9.0,-251.0,-40.0,-3.0,-31.0,-28.0,0
8.0,-251.0,-42.0,-10.0,-32.0,-28.0,0
4.0,-249.0,-43.0,-20.0,-31.0,-27.0,0
5.0,-252.0,-45.0,-30.0,-26.0,-25.0,0
3.0,-253.0,-45.0,-41.0,-21.0,-25.0,0
5.0,-253.0,-41.0,-47.0,-15.0,-23.0,0
3.0,-255.0,-45.0,-50.0,-7.0,-24.0,0
5.0,-256.0,-46.0,-51.0,2.0,-23.0,0
4.0,-259.0,-46.0,-51.0,13.0,-23.0,0
4.0,-258.0,-42.0,-48.0,22.0,-21.0,0
0.0,-259.0,-50.0,-47.0,34.0,-20.0,0
5.0,-260.0,-45.0,-47.0,43.0,-19.0,0
3.0,-261.0,-44.0,-45.0,52.0,-18.0,0
4.0,-260.0,-43.0,-38.0,58.0,-17.0,0
6.0,-260.0,-43.0,-26.0,65.0,-20.0,0
5.0,-259.0,-44.0,-11.0,67.0,-21.0,0
5.0,-259.0,-45.0,2.0,68.0,-27.0,0
7.0,-257.0,-43.0,11.0,72.0,-31.0,0
5.0,-258.0,-45.0,18.0,75.0,-38.0,0
3.0,-254.0,-47.0,23.0,78.0,-41.0,0
3.0,-255.0,-43.0,24.0,78.0,-48.0,0
3.0,-252.0,-45.0,25.0,79.0,-50.0,0
0.0,-250.0,-46.0,23.0,76.0,-53.0,0
0.0,-249.0,-47.0,19.0,75.0,-53.0,0
-4.0,-248.0,-50.0,11.0,75.0,-53.0,0
-3.0,-251.0,-50.0,2.0,75.0,-50.0,0
-4.0,-249.0,-53.0,-10.0,74.0,-51.0,0
-5.0,-249.0,-54.0,-18.0,72.0,-46.0,0
-2.0,-249.0,-54.0,-26.0,74.0,-44.0,0
-5.0,-249.0,-51.0,-29.0,71.0,-35.0,0
-5.0,-249.0,-56.0,-27.0,71.0,-36.0,0
-9.0,-252.0,-50.0,-26.0,69.0,-30.0,0
-1.0,-254.0,-49.0,-23.0,65.0,-26.0,0
-4.0,-256.0,-48.0,-19.0,60.0,-24.0,0
-6.0,-254.0,-51.0,-15.0,57.0,-24.0,0
-4.0,-252.0,-49.0,-10.0,55.0,-21.0,0
-5.0,-253.0,-50.0,-7.0,50.0,-21.0,0
-8.0,-253.0,-49.0,-4.0,46.0,-18.0,0
-9.0,-255.0,-55.0,-2.0,44.0,-21.0,0
-8.0,-254.0,-53.0,-1.0,41.0,-21.0,0
-9.0,-255.0,-50.0,-1.0,37.0,-25.0,0
-9.0,-254.0,-57.0,-1.0,32.0,-25.0,0
-8.0,-253.0,-56.0,-5.0,29.0,-30.0,0
-11.0,-254.0,-58.0,-10.0,25.0,-31.0,0
-11.0,-255.0,-55.0,-19.0,20.0,-37.0,0
-10.0,-255.0,-57.0,-27.0,15.0,-38.0,0
-11.0,-256.0,-56.0,-34.0,10.0,-42.0,0
-11.0,-256.0,-57.0,-39.0,4.0,-42.0,0
-9.0,-252.0,-55.0,-42.0,-2.0,-45.0,0
-10.0,-253.0,-52.0,-41.0,-8.0,-44.0,0
-10.0,-250.0,-53.0,-39.0,-16.0,-46.0,0
-10.0,-254.0,-53.0,-38.0,-20.0,-44.0,0
-10.0,-251.0,-49.0,-40.0,-25.0,-49.0,0
-9.0,-250.0,-49.0,-43.0,-29.0,-46.0,0
-9.0,-253.0,-46.0,-50.0,-32.0,-47.0,0
-6.0,-251.0,-51.0,-58.0,-32.0,-48.0,0
-6.0,-252.0,-48.0,-65.0,-31.0,-51.0,0
-7.0,-253.0,-49.0,-66.0,-32.0,-53.0,0
-5.0,-251.0,-43.0,-65.0,-32.0,-57.0,0
-1.0,-251.0,-45.0,-59.0,-31.0,-60.0,0
1.0,-250.0,-45.0,-54.0,-30.0,-66.0,0
1.0,-248.0,-48.0,-55.0,-30.0,-69.0,0
1.0,-249.0,-42.0,-59.0,-32.0,-75.0,0
1.0,-251.0,-43.0,-62.0,-32.0,-76.0,0
2.0,-251.0,-48.0,-65.0,-32.0,-79.0,0
2.0,-248.0,-47.0,-66.0,-29.0,-79.0,0
5.0,-252.0,-47.0,-67.0,-29.0,-80.0,0
5.0,-250.0,-49.0,-71.0,-25.0,-80.0,0
4.0,-254.0,-48.0,-75.0,-23.0,-80.0,0
3.0,-254.0,-48.0,-77.0,-16.0,-79.0,0
3.0,-251.0,-48.0,-79.0,-9.0,-79.0,0
3.0,-253.0,-48.0,-76.0,-3.0,-77.0,0
3.0,-254.0,-52.0,-73.0,6.0,-77.0,0
7.0,-253.0,-49.0,-72.0,11.0,-77.0,0
7.0,-256.0,-46.0,-73.0,17.0,-78.0,0
7.0,-251.0,-47.0,-73.0,23.0,-79.0,0
6.0,-254.0,-44.0,-72.0,30.0,-80.0,0
4.0,-252.0,-47.0,-69.0,39.0,-80.0,0
6.0,-253.0,-48.0,-63.0,45.0,-81.0,0
2.0,-252.0,-51.0,-57.0,53.0,-81.0,0
1.0,-249.0,-48.0,-55.0,55.0,-82.0,0
-2.0,-251.0,-52.0,-56.0,58.0,-81.0,0
-3.0,-253.0,-52.0,-59.0,60.0,-79.0,0
-4.0,-251.0,-50.0,-63.0,61.0,-78.0,0
-2.0,-250.0,-53.0,-68.0,62.0,-72.0,0
-3.0,-253.0,-53.0,-72.0,63.0,-70.0,0
-8.0,-250.0,-52.0,-79.0,63.0,-67.0,0
-7.0,-251.0,-53.0,-85.0,63.0,-63.0,0
-9.0,-253.0,-52.0,-91.0,61.0,-59.0,0
-10.0,-252.0,-45.0,-94.0,60.0,-54.0,0
-8.0,-251.0,-50.0,-95.0,60.0,-50.0,0
-8.0,-252.0,-47.0,-91.0,59.0,-49.0,0
-9.0,-254.0,-48.0,-86.0,58.0,-47.0,0
-9.0,-254.0,-44.0,-79.0,56.0,-46.0,0
-7.0,-256.0,-46.0,-71.0,53.0,-45.0,0
-7.0,-255.0,-43.0,-63.0,50.0,-48.0,0
-6.0,-252.0,-45.0,-55.0,49.0,-45.0,0
-6.0,-251.0,-50.0,-47.0,48.0,-48.0,0
-6.0,-252.0,-49.0,-42.0,48.0,-44.0,0
-5.0,-250.0,-48.0,-40.0,46.0,-46.0,0
-4.0,-248.0,-49.0,-40.0,46.0,-43.0,0
-6.0,-248.0,-46.0,-42.0,46.0,-45.0,0
-2.0,-247.0,-45.0,-46.0,47.0,-41.0,0
-1.0,-247.0,-51.0,-52.0,47.0,-40.0,0
1.0,-249.0,-50.0,-55.0,46.0,-36.0,0
1.0,-250.0,-53.0,-58.0,46.0,-36.0,0
1.0,-252.0,-51.0,-62.0,46.0,-28.0,0
2.0,-250.0,-50.0,-65.0,46.0,-26.0,0
1.0,-250.0,-48.0,-66.0,44.0,-22.0,0
1.0,-250.0,-46.0,-64.0,43.0,-22.0,0
-1.0,-252.0,-46.0,-63.0,44.0,-18.0,0
1.0,-250.0,-48.0,-58.0,43.0,-16.0,0
7.0,-253.0,-51.0,-53.0,43.0,-10.0,0
5.0,-254.0,-51.0,-50.0,45.0,-13.0,0
-1.0,-250.0,-47.0,-46.0,47.0,-10.0,0
2.0,-253.0,-46.0,-39.0,48.0,-13.0,0
5.0,-253.0,-48.0,-33.0,47.0,-12.0,0
0.0,-249.0,-51.0,-29.0,46.0,-15.0,0
2.0,-252.0,-51.0,-26.0,48.0,-10.0,0
2.0,-251.0,-52.0,-27.0,47.0,-13.0,0
0.0,-250.0,-52.0,-26.0,48.0,-12.0,0
-1.0,-251.0,-49.0,-28.0,46.0,-16.0,0
1.0,-251.0,-55.0,-31.0,47.0,-11.0,0
-3.0,-251.0,-48.0,-34.0,48.0,-14.0,0
3.0,-253.0,-51.0,-36.0,47.0,-11.0,0
2.0,-254.0,-52.0,-38.0,47.0,-12.0,0
0.0,-252.0,-52.0,-38.0,47.0,-9.0,0
-1.0,-252.0,-51.0,-36.0,47.0,-9.0,0
0.0,-255.0,-57.0,-35.0,49.0,-8.0,0
0.0,-252.0,-51.0,-35.0,53.0,-9.0,0
1.0,-254.0,-54.0,-38.0,55.0,-7.0,0
4.0,-259.0,-53.0,-36.0,58.0,-9.0,0
6.0,-258.0,-54.0,-36.0,58.0,-7.0,0
-1.0,-254.0,-52.0,-36.0,58.0,-13.0,0
2.0,-254.0,-53.0,-37.0,59.0,-14.0,0
3.0,-255.0,-51.0,-37.0,58.0,-18.0,0
3.0,-255.0,-53.0,-39.0,56.0,-17.0,0
1.0,-253.0,-54.0,-40.0,57.0,-20.0,0
6.0,-255.0,-53.0,-39.0,54.0,-18.0,0
1.0,-249.0,-53.0,-41.0,53.0,-19.0,0
4.0,-251.0,-50.0,-39.0,52.0,-17.0,0
4.0,-251.0,-49.0,-39.0,50.0,-19.0,0
2.0,-246.0,-48.0,-40.0,50.0,-19.0,0
2.0,-246.0,-53.0,-46.0,48.0,-20.0,0
3.0,-248.0,-53.0,-52.0,47.0,-19.0,0
1.0,-245.0,-53.0,-59.0,46.0,-21.0,0
0.0,-246.0,-52.0,-67.0,47.0,-19.0,0
1.0,-243.0,-50.0,-76.0,47.0,-21.0,0
0.0,-246.0,-48.0,-84.0,47.0,-20.0,0
0.0,-246.0,-46.0,-88.0,49.0,-23.0,0
2.0,-247.0,-44.0,-85.0,50.0,-24.0,0
2.0,-246.0,-45.0,-81.0,52.0,-27.0,0
-1.0,-244.0,-43.0,-77.0,51.0,-31.0,0
2.0,-242.0,-46.0,-75.0,48.0,-37.0,0
2.0,-244.0,-47.0,-77.0,41.0,-41.0,0
1.0,-242.0,-45.0,-82.0,30.0,-44.0,0
-2.0,-243.0,-44.0,-87.0,22.0,-54.0,0
-3.0,-241.0,-44.0,-92.0,15.0,-60.0,0
-5.0,-240.0,-47.0,-97.0,10.0,-66.0,0
-8.0,-240.0,-53.0,-105.0,8.0,-70.0,0
-9.0,-237.0,-54.0,-116.0,9.0,-74.0,0
-8.0,-241.0,-52.0,-129.0,12.0,-73.0,0
-12.0,-239.0,-51.0,-140.0,17.0,-74.0,0
-10.0,-239.0,-49.0,-152.0,20.0,-68.0,0
-12.0,-246.0,-50.0,-165.0,24.0,-64.0,0
-11.0,-248.0,-49.0,-177.0,24.0,-54.0,0
-13.0,-246.0,-52.0,-191.0,25.0,-43.0,0
-11.0,-250.0,-48.0,-197.0,24.0,-32.0,0
-12.0,-251.0,-48.0,-200.0,20.0,-22.0,0
-10.0,-249.0,-48.0,-199.0,17.0,-9.0,0
-12.0,-252.0,-42.0,-191.0,13.0,2.0,0
-10.0,-255.0,-42.0,-184.0,9.0,16.0,0
-10.0,-258.0,-41.0,-174.0,8.0,22.0,0
-9.0,-261.0,-35.0,-157.0,11.0,29.0,0
-7.0,-261.0,-38.0,-136.0,17.0,31.0,0
-4.0,-263.0,-38.0,-110.0,27.0,35.0,0
0.0,-262.0,-31.0,-83.0,35.0,30.0,0
-3.0,-263.0,-33.0,-62.0,44.0,26.0,0
-2.0,-262.0,-32.0,-43.0,51.0,21.0,0
-4.0,-263.0,-32.0,-26.0,57.0,18.0,0
-4.0,-262.0,-35.0,-11.0,60.0,12.0,0
-4.0,-259.0,-36.0,-3.0,63.0,9.0,0
-8.0,-259.0,-40.0,3.0,66.0,-1.0,0
-4.0,-256.0,-42.0,5.0,70.0,-4.0,0
-4.0,-257.0,-43.0,4.0,75.0,-13.0,0
0.0,-254.0,-39.0,0.0,84.0,-10.0,0
-4.0,-251.0,-43.0,-3.0,95.0,-15.0,0
1.0,-253.0,-46.0,-15.0,109.0,-14.0,0
2.0,-252.0,-46.0,-26.0,124.0,-15.0,0
-1.0,-250.0,-43.0,-36.0,137.0,-10.0,0
4.0,-253.0,-40.0,-42.0,149.0,-10.0,0
3.0,-250.0,-43.0,-43.0,159.0,-6.0,0
6.0,-250.0,-41.0,-43.0,167.0,-5.0,0
6.0,-253.0,-45.0,-39.0,171.0,-1.0,0
9.0,-250.0,-45.0,-41.0,173.0,-5.0,0
7.0,-251.0,-47.0,-46.0,170.0,-3.0,0
10.0,-249.0,-53.0,-53.0,164.0,-8.0,0
10.0,-254.0,-53.0,-63.0,158.0,-10.0,0
13.0,-254.0,-55.0,-75.0,154.0,-17.0,0
14.0,-253.0,-54.0,-93.0,152.0,-18.0,0
15.0,-255.0,-57.0,-113.0,150.0,-25.0,0
14.0,-251.0,-60.0,-133.0,142.0,-27.0,0
19.0,-253.0,-60.0,-147.0,128.0,-36.0,0
16.0,-248.0,-68.0,-165.0,109.0,-41.0,0
17.0,-242.0,-71.0,-200.0,78.0,-50.0,0
15.0,-239.0,-76.0,-233.0,55.0,-50.0,0
15.0,-236.0,-66.0,-259.0,30.0,-55.0,0
14.0,-235.0,-71.0,-280.0,2.0,-53.0,0
15.0,-231.0,-66.0,-300.0,-27.0,-53.0,0
9.0,-229.0,-58.0,-307.0,-57.0,-51.0,0
8.0,-231.0,-55.0,-301.0,-84.0,-48.0,0
1.0,-224.0,-54.0,-287.0,-112.0,-38.0,0
-1.0,-228.0,-54.0,-264.0,-140.0,-26.0,0
-4.0,-234.0,-52.0,-248.0,-167.0,-13.0,0
-7.0,-238.0,-45.0,-241.0,-200.0,-8.0,0
-5.0,-241.0,-35.0,-220.0,-239.0,11.0,0
-10.0,-248.0,-37.0,-180.0,-275.0,21.0,0
-12.0,-250.0,-41.0,-146.0,-311.0,26.0,0
-17.0,-251.0,-31.0,-128.0,-350.0,25.0,0
-17.0,-258.0,-33.0,-109.0,-393.0,33.0,0
-18.0,-259.0,-35.0,-91.0,-435.0,46.0,0
-8.0,-260.0,-36.0,-84.0,-468.0,60.0,0
-6.0,-263.0,-32.0,-78.0,-488.0,69.0,0
-3.0,-265.0,-34.0,-71.0,-497.0,76.0,0
2.0,-268.0,-33.0,-59.0,-491.0,73.0,0
3.0,-274.0,-47.0,-48.0,-482.0,77.0,0
8.0,-273.0,-35.0,-48.0,-475.0,75.0,0
8.0,-272.0,-36.0,-22.0,-467.0,62.0,0
17.0,-281.0,-54.0,-10.0,-454.0,42.0,0
23.0,-273.0,-44.0,-47.0,-433.0,21.0,0
23.0,-275.0,-51.0,-73.0,-406.0,-6.0,0
25.0,-270.0,-47.0,-121.0,-364.0,-44.0,0
23.0,-267.0,-37.0,-181.0,-327.0,-82.0,0
31.0,-266.0,-30.0,-231.0,-312.0,-107.0,0
29.0,-260.0,-19.0,-245.0,-299.0,-143.0,0
27.0,-259.0,-17.0,-240.0,-287.0,-177.0,0
27.0,-250.0,-16.0,-240.0,-273.0,-207.0,0
21.0,-244.0,-15.0,-253.0,-258.0,-235.0,0
18.0,-238.0,-5.0,-272.0,-245.0,-249.0,0
18.0,-237.0,-8.0,-281.0,-232.0,-252.0,0
22.0,-237.0,-5.0,-287.0,-217.0,-253.0,0
20.0,-236.0,4.0,-291.0,-193.0,-258.0,0
17.0,-239.0,1.0,-284.0,-166.0,-263.0,0
19.0,-241.0,5.0,-270.0,-136.0,-264.0,0
18.0,-240.0,8.0,-248.0,-103.0,-260.0,0
17.0,-241.0,6.0,-220.0,-78.0,-250.0,0
21.0,-238.0,5.0,-208.0,-36.0,-240.0,0
20.0,-233.0,9.0,-213.0,-3.0,-234.0,0
21.0,-236.0,15.0,-201.0,15.0,-214.0,0
18.0,-237.0,6.0,-179.0,32.0,-198.0,0
26.0,-236.0,8.0,-181.0,47.0,-187.0,0
30.0,-237.0,8.0,-207.0,56.0,-193.0,0
28.0,-242.0,10.0,-244.0,67.0,-191.0,0
27.0,-248.0,9.0,-264.0,79.0,-188.0,0
21.0,-254.0,18.0,-263.0,93.0,-179.0,0
12.0,-259.0,20.0,-233.0,101.0,-165.0,0
6.0,-262.0,22.0,-182.0,100.0,-146.0,0
-1.0,-266.0,24.0,-118.0,86.0,-133.0,0
-7.0,-267.0,33.0,-52.0,64.0,-119.0,0
-9.0,-266.0,44.0,18.0,31.0,-104.0,0
-9.0,-266.0,40.0,95.0,-1.0,-75.0,0
-3.0,-266.0,44.0,179.0,-31.0,-56.0,0
-14.0,-262.0,46.0,278.0,-52.0,-43.0,0
-15.0,-256.0,42.0,359.0,-76.0,-30.0,0
-11.0,-252.0,43.0,430.0,-99.0,-7.0,0
-5.0,-246.0,38.0,489.0,-115.0,10.0,0
2.0,-241.0,28.0,529.0,-119.0,27.0,0
15.0,-235.0,16.0,544.0,-107.0,41.0,0
21.0,-229.0,8.0,532.0,-80.0,53.0,0
31.0,-224.0,10.0,490.0,-47.0,59.0,0
35.0,-217.0,2.0,441.0,-33.0,71.0,0
39.0,-214.0,-7.0,365.0,-17.0,87.0,0
44.0,-215.0,-14.0,293.0,-14.0,105.0,0
49.0,-215.0,-23.0,216.0,-17.0,112.0,0
51.0,-215.0,-29.0,138.0,-28.0,124.0,0
49.0,-211.0,-35.0,58.0,-48.0,137.0,0
41.0,-209.0,-43.0,-14.0,-78.0,155.0,0
42.0,-206.0,-50.0,-80.0,-112.0,171.0,0
39.0,-205.0,-60.0,-146.0,-156.0,189.0,0
42.0,-202.0,-67.0,-227.0,-199.0,186.0,0
36.0,-193.0,-69.0,-317.0,-244.0,169.0,0
29.0,-183.0,-69.0,-414.0,-305.0,143.0,0
18.0,-161.0,-71.0,-463.0,-371.0,113.0,0
5.0,-142.0,-79.0,-487.0,-455.0,74.0,0
0.0,-132.0,-83.0,-519.0,-536.0,33.0,0
-10.0,-109.0,-71.0,-552.0,-626.0,-28.0,0
-25.0,-94.0,-68.0,-535.0,-728.0,-110.0,0
-41.0,-78.0,-57.0,-494.0,-822.0,-186.0,0
-64.0,-61.0,-44.0,-429.0,-933.0,-248.0,0
-85.0,-52.0,-49.0,-367.0,-1080.0,-285.0,0
-84.0,-62.0,-57.0,-345.0,-1203.0,-298.0,0
-77.0,-62.0,-40.0,-398.0,-1218.0,-332.0,0
-80.0,-35.0,-52.0,-454.0,-1208.0,-362.0,0
-90.0,-18.0,-55.0,-491.0,-1206.0,-382.0,0
-87.0,3.0,-58.0,-563.0,-1198.0,-378.0,0
-82.0,20.0,-35.0,-653.0,-1182.0,-377.0,0
-81.0,34.0,8.0,-742.0,-1150.0,-344.0,0
71.0,-28.0,39.0,-737.0,-1101.0,-304.0,0
-98.0,62.0,21.0,-679.0,-1038.0,-397.0,0
-20.0,25.0,-2.0,-678.0,-887.0,-296.0,0
-83.0,63.0,26.0,-676.0,-810.0,-255.0,0
-78.0,62.0,22.0,-606.0,-791.0,-169.0,0
-82.0,80.0,92.0,-477.0,-870.0,-102.0,0
-53.0,7.0,10.0,-249.0,-856.0,-10.0,0
-76.0,27.0,-3.0,66.0,-852.0,35.0,0
-17.0,-39.0,-31.0,534.0,-729.0,135.0,0
-19.0,-74.0,-101.0,1185.0,-549.0,186.0,0
-6.0,-124.0,-172.0,1933.0,-275.0,255.0,0
26.0,-180.0,-285.0,2564.0,4.0,313.0,0
34.0,-119.0,-271.0,2819.0,292.0,319.0,0
-192.0,-242.0,-455.0,2612.0,452.0,347.0,0
169.0,-248.0,-467.0,1708.0,346.0,501.0,0
243.0,-331.0,-243.0,767.0,238.0,631.0,0
309.0,-357.0,-179.0,206.0,219.0,691.0,0
332.0,-436.0,-218.0,-226.0,300.0,662.0,0
334.0,-461.0,-273.0,-845.0,449.0,482.0,0
244.0,-498.0,-248.0,-1745.0,697.0,184.0,0
154.0,-521.0,-275.0,-2920.0,918.0,-178.0,0
85.0,-699.0,351.0,-4048.0,1016.0,-513.0,0
-22.0,-779.0,283.0,-3750.0,826.0,-821.0,0
-139.0,-796.0,-35.0,-2836.0,693.0,-1151.0,0
-236.0,-824.0,125.0,-2452.0,652.0,-1340.0,0
-244.0,-893.0,51.0,-1768.0,457.0,-1327.0,0
-202.0,-1019.0,-83.0,-1162.0,192.0,-1266.0,0
-218.0,-1038.0,-69.0,-859.0,-94.0,-1195.0,0
-243.0,-989.0,-85.0,-431.0,-347.0,-1027.0,0
-299.0,-932.0,-175.0,233.0,-559.0,-760.0,0
-255.0,-769.0,-57.0,750.0,-373.0,-372.0,0
-239.0,-628.0,-35.0,1180.0,-61.0,76.0,0
-204.0,-502.0,-21.0,1436.0,259.0,603.0,0
-169.0,-400.0,-2.0,1531.0,413.0,909.0,0
-135.0,-324.0,20.0,1610.0,430.0,1085.0,0
-114.0,-265.0,41.0,1795.0,320.0,1150.0,0
-80.0,-183.0,29.0,1992.0,123.0,1100.0,0
-73.0,-129.0,-1.0,2245.0,-64.0,1010.0,0
-64.0,-68.0,-37.0,2236.0,-210.0,900.0,0
-52.0,-24.0,-31.0,1986.0,-344.0,722.0,0
-31.0,-5.0,-28.0,1740.0,-411.0,588.0,0
-9.0,7.0,-33.0,1542.0,-406.0,513.0,0
34.0,3.0,-31.0,1332.0,-296.0,461.0,0
58.0,1.0,-32.0,1154.0,-149.0,372.0,0
72.0,3.0,-43.0,984.0,0.0,238.0,0
86.0,8.0,-80.0,758.0,124.0,98.0,0
110.0,-45.0,-139.0,406.0,226.0,8.0,0
95.0,24.0,-117.0,-137.0,295.0,-95.0,0
117.0,12.0,-42.0,-698.0,362.0,-185.0,0
141.0,4.0,1.0,-1089.0,448.0,-272.0,0
155.0,-10.0,8.0,-1278.0,568.0,-357.0,0
159.0,-6.0,5.0,-1344.0,695.0,-456.0,0
153.0,-4.0,-11.0,-1365.0,837.0,-529.0,0
137.0,1.0,-13.0,-1397.0,947.0,-576.0,0
121.0,10.0,-13.0,-1458.0,1040.0,-590.0,0
127.0,11.0,-5.0,-1527.0,1115.0,-591.0,0
113.0,4.0,-16.0,-1552.0,1147.0,-594.0,0
21.0,145.0,239.0,-1506.0,1199.0,-608.0,0
155.0,70.0,330.0,-1046.0,1184.0,-613.0,0
193.0,-71.0,-49.0,-113.0,1124.0,-596.0,0
167.0,-29.0,-42.0,630.0,1160.0,-631.0,0
118.0,-25.0,-44.0,1103.0,1247.0,-599.0,0
89.0,-44.0,-35.0,1713.0,1224.0,-509.0,0
93.0,-145.0,-19.0,2307.0,1062.0,-437.0,0
48.0,-11.0,-75.0,2961.0,816.0,-408.0,0
46.0,-113.0,-275.0,3395.0,602.0,-336.0,0
31.0,-122.0,-451.0,3302.0,485.0,-169.0,0
-10.0,-113.0,-527.0,2498.0,420.0,19.0,0
-76.0,-149.0,-331.0,1345.0,374.0,169.0,0
-164.0,-230.0,-172.0,558.0,282.0,254.0,0
-244.0,-330.0,-151.0,243.0,195.0,356.0,0
-169.0,-243.0,-143.0,52.0,155.0,530.0,0
-306.0,-555.0,-442.0,-377.0,186.0,643.0,0
-495.0,-632.0,-335.0,-859.0,72.0,674.0,0
-408.0,-678.0,-298.0,-1611.0,-177.0,799.0,0
-288.0,-827.0,-392.0,-2698.0,-775.0,1330.0,0
-139.0,-967.0,937.0,-3574.0,-1338.0,1988.0,0
154.0,-1025.0,15.0,-1467.0,-1518.0,2237.0,0
195.0,-832.0,57.0,-415.0,-1355.0,1977.0,0
135.0,-672.0,98.0,412.0,-959.0,1616.0,0
109.0,-506.0,38.0,1007.0,-680.0,1434.0,0
196.0,-626.0,-80.0,663.0,-384.0,1265.0,0
210.0,-767.0,-85.0,-219.0,136.0,704.0,0
191.0,-790.0,-58.0,-843.0,717.0,230.0,0
210.0,-773.0,-19.0,-1118.0,1020.0,-43.0,0
210.0,-718.0,18.0,-1090.0,1000.0,-371.0,0
207.0,-649.0,32.0,-771.0,737.0,-727.0,0
189.0,-562.0,30.0,-119.0,424.0,-1058.0,0
169.0,-496.0,7.0,768.0,152.0,-1264.0,0
114.0,-398.0,-42.0,1754.0,-3.0,-1363.0,0
51.0,-266.0,-56.0,2619.0,-69.0,-1313.0,0
27.0,-151.0,-46.0,3400.0,-157.0,-1148.0,0
-6.0,-26.0,-16.0,3782.0,-226.0,-991.0,0
-59.0,74.0,37.0,3871.0,-345.0,-802.0,0
-67.0,130.0,46.0,3857.0,-502.0,-566.0,0
-72.0,143.0,-7.0,3804.0,-640.0,-353.0,0
-63.0,180.0,-77.0,3601.0,-778.0,-186.0,0
-89.0,322.0,-191.0,3119.0,-905.0,-67.0,0
-75.0,328.0,-332.0,2135.0,-1043.0,77.0,0
-42.0,325.0,-293.0,786.0,-1014.0,145.0,0
418.0,352.0,-602.0,-905.0,-591.0,74.0,0
-111.0,517.0,75.0,-1957.0,-282.0,-232.0,0
15.0,20.0,-127.0,-3064.0,55.0,43.0,0
-143.0,72.0,91.0,-3540.0,186.0,-49.0,0
-157.0,31.0,-43.0,-3479.0,143.0,-9.0,0
-137.0,45.0,53.0,-3249.0,11.0,28.0,0
-131.0,13.0,49.0,-3019.0,-166.0,50.0,0
-124.0,14.0,33.0,-2729.0,-342.0,94.0,0
-117.0,12.0,22.0,-2457.0,-535.0,115.0,0
-73.0,80.0,185.0,-2275.0,-734.0,126.0,0
-112.0,14.0,-37.0,-2121.0,-861.0,160.0,0
-99.0,26.0,209.0,-1969.0,-939.0,197.0,0
-50.0,-106.0,278.0,-1180.0,-993.0,209.0,0
-25.0,-48.0,-43.0,53.0,-923.0,205.0,0
-49.0,-49.0,-61.0,686.0,-894.0,182.0,0
-36.0,-54.0,-88.0,1124.0,-850.0,197.0,0
-29.0,-78.0,-142.0,1561.0,-726.0,210.0,0
-22.0,-128.0,-236.0,1986.0,-516.0,220.0,0
32.0,-181.0,-228.0,2232.0,-251.0,232.0,0
-5.0,-206.0,-490.0,2107.0,-57.0,245.0,0
54.0,-223.0,-372.0,1344.0,-33.0,273.0,0
207.0,-294.0,-231.0,668.0,-183.0,318.0,0
257.0,-89.0,47.0,207.0,-144.0,285.0,0
308.0,-481.0,-246.0,-129.0,84.0,243.0,0
434.0,-766.0,-370.0,-771.0,321.0,379.0,0
298.0,-720.0,-381.0,-1809.0,467.0,38.0,0
198.0,-797.0,-463.0,-3076.0,586.0,-617.0,0
98.0,-1050.0,496.0,-4154.0,665.0,-920.0,0
-34.0,-1030.0,243.0,-3076.0,531.0,-928.0,0
-110.0,-891.0,-48.0,-1390.0,324.0,-971.0,0
-127.0,-882.0,80.0,-769.0,368.0,-968.0,0
-112.0,-907.0,-2.0,-168.0,372.0,-931.0,0
-178.0,-816.0,-9.0,149.0,382.0,-965.0,0
-175.0,-723.0,65.0,442.0,363.0,-809.0,0
-271.0,-656.0,-98.0,726.0,218.0,-542.0,0
-281.0,-580.0,-57.0,812.0,75.0,-162.0,0
-245.0,-497.0,-68.0,923.0,0.0,168.0,0
-214.0,-424.0,-65.0,1003.0,2.0,402.0,0
-185.0,-356.0,-57.0,1141.0,96.0,654.0,0
-149.0,-287.0,-57.0,1191.0,223.0,796.0,0
-117.0,-227.0,-66.0,1151.0,353.0,856.0,0
-99.0,-183.0,-56.0,1099.0,442.0,888.0,0
-98.0,-126.0,-35.0,1118.0,457.0,882.0,0
-94.0,-66.0,-25.0,1181.0,393.0,857.0,0
-88.0,-16.0,-23.0,1185.0,291.0,796.0,0
-34.0,18.0,-4.0,1103.0,210.0,740.0,0
-5.0,38.0,7.0,997.0,125.0,691.0,0
22.0,50.0,7.0,862.0,69.0,603.0,0
37.0,54.0,5.0,711.0,68.0,489.0,0
66.0,62.0,-30.0,571.0,93.0,360.0,0
77.0,89.0,-85.0,354.0,149.0,214.0,0
97.0,110.0,-120.0,-19.0,233.0,75.0,0
121.0,130.0,-92.0,-528.0,337.0,-68.0,0
157.0,112.0,-36.0,-950.0,447.0,-207.0,0
168.0,107.0,27.0,-1202.0,572.0,-357.0,0
159.0,96.0,35.0,-1240.0,738.0,-476.0,0
151.0,84.0,26.0,-1134.0,899.0,-552.0,0
145.0,72.0,30.0,-953.0,1061.0,-575.0,0
178.0,69.0,5.0,-650.0,1076.0,-585.0,0
187.0,74.0,-61.0,-360.0,1042.0,-659.0,0
175.0,81.0,-94.0,-116.0,1013.0,-692.0,0
174.0,71.0,-133.0,78.0,1002.0,-686.0,0
124.0,60.0,-144.0,220.0,1000.0,-662.0,0
119.0,32.0,-195.0,299.0,952.0,-632.0,0
101.0,-5.0,-225.0,283.0,851.0,-598.0,0
72.0,-91.0,-289.0,222.0,749.0,-558.0,0
37.0,-130.0,-384.0,491.0,606.0,-477.0,0
-39.0,-248.0,-352.0,286.0,502.0,-344.0,0
-26.0,-278.0,-221.0,198.0,543.0,-224.0,0
-88.0,-385.0,-190.0,132.0,606.0,-119.0,0
-276.0,-304.0,-148.0,82.0,703.0,-60.0,0
-257.0,-619.0,-411.0,-138.0,701.0,119.0,0
-366.0,-876.0,-403.0,-1065.0,664.0,511.0,0
-451.0,-876.0,-458.0,-1905.0,487.0,586.0,0
-229.0,-904.0,-575.0,-3207.0,58.0,836.0,0
-241.0,-1475.0,637.0,-4454.0,-685.0,1579.0,0
-42.0,-1095.0,-12.0,-2500.0,-1248.0,1695.0,0
127.0,-795.0,-1.0,-489.0,-1347.0,1344.0,0
145.0,-732.0,25.0,483.0,-1224.0,1160.0,0
134.0,-652.0,-69.0,1210.0,-914.0,1111.0,0
198.0,-646.0,-123.0,1237.0,-374.0,1014.0,0
237.0,-680.0,-55.0,620.0,211.0,873.0,0
247.0,-692.0,9.0,-225.0,720.0,663.0,0
245.0,-663.0,69.0,-960.0,1043.0,390.0,0
244.0,-638.0,100.0,-1324.0,1144.0,69.0,0
229.0,-598.0,85.0,-1193.0,1025.0,-281.0,0
212.0,-559.0,48.0,-686.0,665.0,-715.0,0
172.0,-487.0,-8.0,175.0,328.0,-1009.0,0
131.0,-404.0,-35.0,961.0,53.0,-1177.0,0
99.0,-329.0,-64.0,1808.0,-107.0,-1213.0,0
63.0,-226.0,-55.0,2533.0,-191.0,-1124.0,0
32.0,-137.0,-59.0,3071.0,-292.0,-940.0,0
14.0,-59.0,-58.0,3313.0,-346.0,-713.0,0
0.0,7.0,-28.0,3266.0,-325.0,-521.0,0
-3.0,66.0,17.0,3113.0,-300.0,-379.0,0
-39.0,127.0,59.0,2972.0,-345.0,-256.0,0
-53.0,120.0,-24.0,2876.0,-504.0,-147.0,0
-35.0,127.0,-166.0,2517.0,-447.0,-110.0,0
-1.0,147.0,-322.0,1744.0,-285.0,-129.0,0
-89.0,221.0,-296.0,427.0,-276.0,-232.0,0
-203.0,82.0,-101.0,-975.0,-347.0,-287.0,0
-130.0,140.0,-147.0,-1755.0,-320.0,-256.0,0
-152.0,154.0,12.0,-2348.0,-319.0,-198.0,0
-156.0,126.0,48.0,-2544.0,-428.0,-122.0,0
-156.0,146.0,109.0,-2397.0,-607.0,-60.0,0
-130.0,95.0,41.0,-2071.0,-771.0,-75.0,0
-122.0,74.0,63.0,-1898.0,-726.0,-204.0,0
-129.0,33.0,41.0,-1727.0,-714.0,-269.0,0
-139.0,14.0,39.0,-1558.0,-684.0,-221.0,0
-42.0,-15.0,31.0,-1300.0,-704.0,-120.0,0
-162.0,-8.0,50.0,-995.0,-781.0,-120.0,0
-137.0,-46.0,28.0,-638.0,-801.0,-84.0,0
-78.0,-73.0,7.0,-272.0,-809.0,-40.0,0
-82.0,-73.0,-68.0,64.0,-801.0,-61.0,0
-71.0,-78.0,-119.0,300.0,-776.0,-27.0,0
-65.0,-92.0,-167.0,506.0,-733.0,50.0,0
-59.0,-99.0,-171.0,630.0,-631.0,127.0,0
-47.0,-131.0,-187.0,739.0,-534.0,229.0,0
54.0,-189.0,-25.0,854.0,-433.0,334.0,0
16.0,-259.0,-312.0,1122.0,-352.0,439.0,0
92.0,-248.0,-213.0,1132.0,-221.0,548.0,0
167.0,-311.0,-229.0,1067.0,-205.0,628.0,0
-245.0,497.0,767.0,1016.0,-176.0,652.0,0
436.0,-608.0,-400.0,1344.0,-85.0,993.0,0
426.0,-627.0,-332.0,389.0,55.0,379.0,0
374.0,-850.0,-408.0,-600.0,377.0,-83.0,0
272.0,-732.0,-286.0,-1354.0,603.0,-485.0,0
140.0,-758.0,-464.0,-2318.0,752.0,-896.0,0
93.0,-994.0,954.0,-3404.0,746.0,-1192.0,0
-18.0,-683.0,16.0,-2167.0,588.0,-1168.0,0
-63.0,-606.0,211.0,-1467.0,262.0,-1159.0,0
-54.0,-741.0,216.0,-1080.0,257.0,-1115.0,0
-119.0,-819.0,101.0,-696.0,219.0,-1272.0,0
-271.0,-773.0,78.0,-347.0,168.0,-1435.0,0
-368.0,-713.0,31.0,57.0,-128.0,-1143.0,0
-358.0,-641.0,-40.0,308.0,-488.0,-743.0,0
-309.0,-565.0,-90.0,308.0,-751.0,-338.0,0
-258.0,-501.0,-128.0,260.0,-771.0,55.0,0
-224.0,-455.0,-134.0,287.0,-576.0,397.0,0
-211.0,-386.0,-122.0,435.0,-281.0,676.0,0
-186.0,-329.0,-101.0,691.0,-2.0,935.0,0
-149.0,-282.0,-50.0,1038.0,174.0,1146.0,0
-128.0,-234.0,-40.0,1511.0,212.0,1321.0,0
-94.0,-166.0,-39.0,1829.0,135.0,1374.0,0
-39.0,-129.0,-60.0,1854.0,13.0,1231.0,0
14.0,-96.0,-64.0,1705.0,-32.0,1006.0,0
39.0,-60.0,-48.0,1432.0,-60.0,793.0,0
58.0,-31.0,-40.0,1128.0,-94.0,618.0,0
78.0,-12.0,-36.0,816.0,-95.0,479.0,0
106.0,-8.0,-33.0,520.0,-7.0,346.0,0
125.0,11.0,-39.0,258.0,153.0,207.0,0
127.0,20.0,-22.0,39.0,302.0,67.0,0
135.0,22.0,-33.0,-159.0,441.0,-63.0,0
133.0,22.0,-48.0,-331.0,579.0,-203.0,0
153.0,9.0,-84.0,-538.0,663.0,-271.0,0
162.0,17.0,-69.0,-733.0,733.0,-359.0,0
170.0,25.0,-13.0,-917.0,768.0,-422.0,0
165.0,4.0,14.0,-943.0,830.0,-454.0,0
187.0,3.0,-9.0,-862.0,898.0,-490.0,0
174.0,9.0,-7.0,-680.0,975.0,-562.0,0
181.0,9.0,-10.0,-464.0,1061.0,-569.0,0
187.0,11.0,-43.0,-210.0,1141.0,-572.0,0
27.0,67.0,-77.0,64.0,1199.0,-575.0,0
217.0,19.0,-63.0,385.0,1238.0,-460.0,0
178.0,24.0,-118.0,753.0,1122.0,-460.0,0
184.0,58.0,465.0,964.0,1116.0,-474.0,0
60.0,-8.0,-237.0,1247.0,1091.0,-427.0,0
102.0,27.0,-115.0,1247.0,998.0,-330.0,0
-7.0,-111.0,-315.0,1183.0,916.0,-223.0,0
-133.0,-147.0,-65.0,923.0,779.0,-98.0,0
-100.0,-195.0,-304.0,588.0,595.0,5.0,0
-83.0,-217.0,-149.0,247.0,555.0,112.0,0
-186.0,-381.0,-171.0,60.0,586.0,253.0,0
-212.0,-404.0,-130.0,-205.0,611.0,283.0,0
106.0,-374.0,106.0,-512.0,585.0,231.0,0
-417.0,-686.0,-46.0,-794.0,538.0,142.0,0
-706.0,-830.0,-426.0,-1258.0,544.0,280.0,0
-387.0,-898.0,263.0,-1304.0,126.0,497.0,0
-320.0,-930.0,71.0,-846.0,-319.0,836.0,0
-134.0,-823.0,20.0,-288.0,-654.0,1154.0,0
24.0,-733.0,-5.0,209.0,-836.0,1317.0,0
128.0,-682.0,-39.0,516.0,-807.0,1325.0,0
114.0,-607.0,-50.0,575.0,-502.0,1116.0,0
112.0,-584.0,-32.0,283.0,-145.0,959.0,0
172.0,-683.0,-63.0,-251.0,270.0,827.0,0
200.0,-756.0,-41.0,-987.0,757.0,581.0,0
194.0,-774.0,27.0,-1590.0,1128.0,320.0,0
185.0,-780.0,169.0,-1735.0,1221.0,102.0,0
185.0,-710.0,114.0,-1369.0,1048.0,-99.0,0
186.0,-620.0,245.0,-824.0,710.0,-339.0,0
179.0,-536.0,110.0,-14.0,329.0,-586.0,0
164.0,-463.0,67.0,863.0,-33.0,-791.0,0
140.0,-367.0,20.0,1881.0,-339.0,-907.0,0
108.0,-269.0,-26.0,2582.0,-454.0,-901.0,0
90.0,-177.0,-72.0,2964.0,-455.0,-817.0,0
55.0,-73.0,-82.0,3016.0,-391.0,-691.0,0
42.0,8.0,-31.0,2896.0,-330.0,-562.0,0
36.0,52.0,-1.0,2732.0,-313.0,-466.0,0
-15.0,126.0,27.0,2644.0,-320.0,-397.0,0
-26.0,127.0,-72.0,2633.0,-379.0,-257.0,0
-48.0,166.0,-227.0,2321.0,-339.0,-176.0,0
-8.0,181.0,-159.0,1617.0,-305.0,-110.0,0
-106.0,254.0,-237.0,371.0,-432.0,-101.0,0
-146.0,234.0,-133.0,-575.0,-528.0,-92.0,0
-165.0,174.0,-141.0,-1320.0,-495.0,-41.0,0
-99.0,275.0,85.0,-1909.0,-379.0,55.0,0
-269.0,97.0,-372.0,-2498.0,-335.0,-129.0,0
-96.0,49.0,-45.0,-2915.0,-105.0,11.0,0
-134.0,5.0,10.0,-3127.0,-123.0,-13.0,0
-127.0,-126.0,-70.0,-3020.0,-174.0,-71.0,0
-152.0,1.0,33.0,-2840.0,-249.0,-145.0,0
-32.0,28.0,14.0,-2707.0,-456.0,-122.0,0
-144.0,-44.0,28.0,-2658.0,-627.0,-94.0,0
-23.0,-125.0,83.0,-2642.0,-818.0,-72.0,0
-412.0,22.0,270.0,-2523.0,-896.0,-61.0,0
-16.0,-210.0,334.0,-1413.0,-948.0,15.0,0
-40.0,-101.0,60.0,-386.0,-1014.0,19.0,0
-44.0,-80.0,92.0,243.0,-993.0,11.0,0
-42.0,-72.0,35.0,688.0,-1023.0,23.0,0
-56.0,-55.0,-44.0,1004.0,-1036.0,45.0,0
-55.0,-53.0,-62.0,1215.0,-983.0,99.0,0
-34.0,-71.0,-82.0,1495.0,-799.0,222.0,0
-25.0,-115.0,-149.0,2034.0,-587.0,319.0,0
16.0,-159.0,-256.0,2499.0,-385.0,417.0,0
65.0,-125.0,-172.0,2817.0,-190.0,482.0,0
47.0,-266.0,-561.0,2841.0,14.0,501.0,0
125.0,-263.0,-515.0,2419.0,255.0,517.0,0
228.0,-266.0,-273.0,1670.0,316.0,555.0,0
286.0,-401.0,-256.0,971.0,282.0,505.0,0
288.0,-489.0,-273.0,346.0,260.0,412.0,0
263.0,-567.0,-110.0,-245.0,332.0,221.0,0
133.0,-631.0,-46.0,-849.0,368.0,66.0,0
362.0,-675.0,-118.0,-1172.0,358.0,-223.0,0
96.0,-736.0,-31.0,-1385.0,160.0,-678.0,0
-67.0,-702.0,107.0,-1377.0,141.0,-913.0,0
-148.0,-657.0,71.0,-1123.0,112.0,-947.0,0
-161.0,-695.0,77.0,-879.0,59.0,-958.0,0
-114.0,-839.0,46.0,-751.0,-8.0,-1030.0,0
-135.0,-904.0,66.0,-824.0,-55.0,-1124.0,0
-168.0,-903.0,67.0,-742.0,-111.0,-1086.0,0
-208.0,-866.0,50.0,-395.0,-200.0,-822.0,0
-228.0,-773.0,10.0,192.0,-245.0,-558.0,0
-228.0,-655.0,-32.0,639.0,-169.0,-261.0,0
-218.0,-559.0,-47.0,967.0,10.0,51.0,0
-208.0,-493.0,-44.0,1221.0,219.0,324.0,0
-213.0,-397.0,-41.0,1455.0,398.0,542.0,0
-192.0,-323.0,-47.0,1691.0,542.0,762.0,0
-156.0,-233.0,-32.0,1787.0,581.0,901.0,0
-123.0,-153.0,-38.0,1718.0,521.0,921.0,0
-99.0,-76.0,-43.0,1561.0,387.0,891.0,0
-66.0,-31.0,-56.0,1420.0,202.0,866.0,0
-40.0,-5.0,-72.0,1189.0,89.0,813.0,0
-23.0,22.0,-91.0,863.0,21.0,714.0,0
32.0,26.0,-101.0,460.0,50.0,632.0,0
82.0,11.0,-126.0,-44.0,92.0,519.0,0
116.0,7.0,-106.0,-625.0,135.0,349.0,0
128.0,9.0,-53.0,-1148.0,199.0,153.0,0
132.0,-3.0,-9.0,-1510.0,314.0,-28.0,0
113.0,7.0,-1.0,-1685.0,436.0,-176.0,0
21.0,49.0,71.0,-1748.0,545.0,-215.0,0
219.0,-7.0,16.0,-1596.0,648.0,-239.0,0
213.0,13.0,23.0,-1438.0,648.0,-452.0,0
174.0,26.0,31.0,-1284.0,750.0,-644.0,0
153.0,26.0,3.0,-1142.0,861.0,-753.0,0
112.0,10.0,-30.0,-1018.0,1027.0,-787.0,0
115.0,32.0,14.0,-861.0,1226.0,-746.0,0
101.0,28.0,-5.0,-614.0,1319.0,-704.0,0
88.0,29.0,-23.0,-391.0,1345.0,-678.0,0
77.0,30.0,-30.0,-234.0,1378.0,-659.0,0
77.0,34.0,-39.0,-107.0,1420.0,-645.0,0
71.0,33.0,-39.0,33.0,1464.0,-611.0,0
70.0,34.0,-46.0,197.0,1506.0,-642.0,0
78.0,36.0,-69.0,381.0,1467.0,-664.0,0
77.0,43.0,-91.0,551.0,1393.0,-611.0,0
77.0,27.0,-122.0,699.0,1340.0,-545.0,0
83.0,70.0,-84.0,890.0,1246.0,-470.0,0
39.0,-56.0,-242.0,910.0,1045.0,-378.0,0
156.0,-3.0,212.0,791.0,788.0,-283.0,0
44.0,-70.0,-195.0,604.0,539.0,-145.0,0
-58.0,-174.0,-156.0,285.0,235.0,21.0,0
72.0,-253.0,133.0,100.0,142.0,237.0,0
-163.0,-342.0,-178.0,201.0,181.0,440.0,0
-191.0,-459.0,-176.0,281.0,264.0,560.0,0
-202.0,-510.0,-138.0,296.0,265.0,562.0,0
32.0,-553.0,-92.0,256.0,40.0,397.0,0
-369.0,-790.0,-106.0,9.0,-326.0,232.0,0
-411.0,-860.0,121.0,-736.0,-635.0,425.0,0
-169.0,-805.0,135.0,-1070.0,-1008.0,740.0,0
9.0,-682.0,24.0,-903.0,-1153.0,999.0,0
93.0,-609.0,-12.0,-648.0,-975.0,995.0,0
138.0,-606.0,-20.0,-498.0,-755.0,943.0,0
101.0,-625.0,-5.0,-407.0,-543.0,827.0,0
150.0,-732.0,-21.0,-344.0,-297.0,683.0,0
174.0,-795.0,-55.0,-464.0,-32.0,423.0,0
141.0,-769.0,-31.0,-777.0,244.0,176.0,0
141.0,-714.0,32.0,-1136.0,355.0,28.0,0
150.0,-678.0,72.0,-1310.0,234.0,-55.0,0
170.0,-618.0,144.0,-1188.0,-22.0,-152.0,0
184.0,-582.0,260.0,-620.0,-337.0,-282.0,0
177.0,-491.0,118.0,570.0,-484.0,-397.0,0
152.0,-409.0,44.0,1443.0,-550.0,-471.0,0
117.0,-321.0,15.0,2049.0,-567.0,-506.0,0
84.0,-243.0,-14.0,2377.0,-539.0,-492.0,0
51.0,-152.0,-16.0,2503.0,-487.0,-431.0,0
25.0,-92.0,-8.0,2517.0,-482.0,-322.0,0
7.0,-24.0,-11.0,2451.0,-516.0,-202.0,0
-11.0,30.0,3.0,2342.0,-503.0,-106.0,0
-21.0,69.0,13.0,2208.0,-471.0,-4.0,0
8.0,90.0,25.0,2042.0,-468.0,97.0,0
17.0,121.0,-14.0,2006.0,-492.0,136.0,0
-26.0,152.0,-112.0,1984.0,-518.0,141.0,0
-21.0,179.0,-167.0,1742.0,-549.0,180.0,0
-26.0,125.0,-311.0,1070.0,-446.0,192.0,0
-33.0,114.0,-115.0,-3.0,-288.0,170.0,0
-84.0,164.0,-248.0,-1281.0,-234.0,180.0,0
357.0,-142.0,-15.0,-2307.0,-279.0,185.0,0
-150.0,132.0,-7.0,-2745.0,-491.0,23.0,0
-3.0,-126.0,-104.0,-2790.0,-468.0,274.0,0
-99.0,36.0,83.0,-2562.0,-591.0,293.0,0
103.0,75.0,219.0,-2344.0,-664.0,302.0,0
-105.0,-23.0,10.0,-2142.0,-773.0,333.0,0
-81.0,-31.0,-16.0,-2008.0,-929.0,323.0,0
15.0,-93.0,81.0,-1905.0,-1035.0,326.0,0
-116.0,-49.0,-12.0,-1670.0,-1135.0,306.0,0
-216.0,4.0,192.0,-1548.0,-1160.0,379.0,0
-57.0,-170.0,129.0,-760.0,-1192.0,369.0,0
-39.0,-160.0,-7.0,32.0,-1068.0,342.0,0
-51.0,-149.0,-84.0,509.0,-874.0,306.0,0
-43.0,-185.0,-102.0,805.0,-681.0,298.0,0
-11.0,-202.0,-123.0,1065.0,-404.0,246.0,0
-6.0,-242.0,-154.0,1326.0,-127.0,196.0,0
17.0,-280.0,-170.0,1527.0,78.0,203.0,0
104.0,-323.0,-120.0,1686.0,214.0,263.0,0
191.0,-412.0,-202.0,1793.0,282.0,255.0,0
222.0,-489.0,-198.0,1754.0,365.0,104.0,0
117.0,-509.0,-210.0,1482.0,412.0,-20.0,0
333.0,-726.0,-208.0,1352.0,505.0,-109.0,0
345.0,-768.0,-301.0,835.0,490.0,-512.0,0
223.0,-764.0,-163.0,413.0,635.0,-1084.0,0
91.0,-690.0,-85.0,10.0,779.0,-1395.0,0
-39.0,-640.0,-4.0,-234.0,862.0,-1479.0,0
-64.0,-593.0,7.0,-190.0,837.0,-1403.0,0
-62.0,-585.0,5.0,14.0,751.0,-1340.0,0
-34.0,-638.0,23.0,167.0,687.0,-1346.0,0
-50.0,-657.0,84.0,224.0,637.0,-1327.0,0
-87.0,-644.0,135.0,327.0,590.0,-1213.0,0
-120.0,-610.0,119.0,507.0,484.0,-941.0,0
-135.0,-574.0,79.0,614.0,383.0,-632.0,0
-148.0,-529.0,39.0,655.0,326.0,-346.0,0
-153.0,-488.0,15.0,630.0,364.0,-83.0,0
-158.0,-431.0,8.0,588.0,482.0,167.0,0
-147.0,-390.0,17.0,576.0,660.0,407.0,0
-136.0,-347.0,32.0,614.0,816.0,576.0,0
-113.0,-316.0,47.0,713.0,922.0,682.0,0
-116.0,-267.0,53.0,853.0,957.0,726.0,0
-100.0,-224.0,48.0,1034.0,911.0,739.0,0
-87.0,-179.0,46.0,1171.0,774.0,693.0,0
-83.0,-145.0,39.0,1205.0,616.0,621.0,0
-70.0,-103.0,34.0,1163.0,459.0,539.0,0
-46.0,-63.0,19.0,1043.0,324.0,465.0,0
-12.0,-54.0,7.0,862.0,235.0,359.0,0
9.0,-52.0,-15.0,616.0,238.0,212.0,0
9.0,-60.0,-11.0,321.0,304.0,28.0,0
14.0,-77.0,-2.0,40.0,369.0,-158.0,0
0.0,-94.0,-6.0,-199.0,385.0,-333.0,0
-32.0,-108.0,13.0,-399.0,376.0,-473.0,0
-6.0,-129.0,22.0,-474.0,322.0,-530.0,0
-4.0,-149.0,15.0,-404.0,268.0,-556.0,0
19.0,-151.0,-11.0,-294.0,256.0,-540.0,0
50.0,-153.0,-28.0,-205.0,288.0,-536.0,0
55.0,-140.0,-49.0,-148.0,362.0,-569.0,0
51.0,-138.0,-65.0,-131.0,464.0,-577.0,0
51.0,-135.0,-75.0,-159.0,586.0,-554.0,0
51.0,-138.0,-85.0,-231.0,694.0,-497.0,0
53.0,-141.0,-97.0,-325.0,781.0,-437.0,0
53.0,-148.0,-100.0,-433.0,871.0,-388.0,0
44.0,-148.0,-97.0,-503.0,938.0,-348.0,0
33.0,-142.0,-94.0,-552.0,986.0,-302.0,0
18.0,-140.0,-92.0,-578.0,1010.0,-260.0,0
10.0,-134.0,-88.0,-587.0,1012.0,-210.0,0
0.0,-130.0,-82.0,-572.0,999.0,-173.0,0
-3.0,-119.0,-66.0,-519.0,976.0,-142.0,0
0.0,-115.0,-57.0,-441.0,948.0,-122.0,0
15.0,-117.0,-53.0,-346.0,922.0,-103.0,0
52.0,-137.0,-38.0,-219.0,928.0,-80.0,0
102.0,-159.0,-37.0,19.0,993.0,-50.0,0
142.0,-189.0,-38.0,317.0,1142.0,-16.0,0
159.0,-210.0,-52.0,692.0,1330.0,15.0,0
144.0,-212.0,-86.0,1035.0,1455.0,-8.0,0
109.0,-219.0,-112.0,1175.0,1382.0,-33.0,0
60.0,-236.0,-113.0,1094.0,1104.0,-61.0,0
66.0,-274.0,-121.0,897.0,762.0,-56.0,0
52.0,-317.0,-115.0,660.0,479.0,-42.0,0
15.0,-361.0,-92.0,443.0,296.0,-1.0,0
-7.0,-392.0,-82.0,197.0,137.0,62.0,0
-30.0,-451.0,-69.0,8.0,14.0,150.0,0
-47.0,-513.0,-87.0,-132.0,-69.0,217.0,0
-73.0,-571.0,-91.0,-179.0,-86.0,240.0,0
-95.0,-604.0,-89.0,-140.0,-127.0,242.0,0
-154.0,-614.0,-91.0,-21.0,-252.0,231.0,0
-97.0,-591.0,-44.0,112.0,-350.0,209.0,0
-77.0,-542.0,-55.0,303.0,-446.0,214.0,0
-52.0,-502.0,-69.0,545.0,-466.0,271.0,0
-3.0,-462.0,-83.0,771.0,-410.0,417.0,0
71.0,-458.0,-99.0,812.0,-384.0,550.0,0
125.0,-473.0,-95.0,611.0,-390.0,615.0,0
167.0,-505.0,-77.0,289.0,-411.0,620.0,0
196.0,-532.0,-50.0,-45.0,-458.0,594.0,0
209.0,-543.0,-25.0,-291.0,-507.0,531.0,0
217.0,-534.0,-8.0,-421.0,-531.0,447.0,0
214.0,-515.0,-7.0,-442.0,-518.0,349.0,0
195.0,-478.0,-7.0,-386.0,-483.0,239.0,0
171.0,-446.0,-14.0,-289.0,-437.0,134.0,0
138.0,-410.0,-11.0,-161.0,-375.0,38.0,0
108.0,-388.0,-1.0,-69.0,-337.0,-35.0,0
78.0,-363.0,11.0,-3.0,-315.0,-111.0,0
53.0,-343.0,12.0,46.0,-303.0,-176.0,0
34.0,-329.0,17.0,86.0,-295.0,-210.0,0
15.0,-304.0,16.0,131.0,-284.0,-214.0,0
4.0,-277.0,8.0,156.0,-274.0,-191.0,0
-4.0,-251.0,1.0,162.0,-260.0,-146.0,0
-4.0,-222.0,-10.0,146.0,-247.0,-95.0,0
-3.0,-196.0,-15.0,125.0,-235.0,-32.0,0
4.0,-180.0,-22.0,86.0,-228.0,11.0,0
11.0,-170.0,-28.0,34.0,-236.0,40.0,0
15.0,-167.0,-33.0,-38.0,-252.0,62.0,0
17.0,-169.0,-31.0,-151.0,-279.0,88.0,0
17.0,-173.0,-18.0,-260.0,-305.0,115.0,0
22.0,-177.0,-2.0,-319.0,-317.0,136.0,0
19.0,-187.0,8.0,-334.0,-326.0,154.0,0
17.0,-192.0,11.0,-326.0,-344.0,172.0,0
18.0,-199.0,13.0,-310.0,-378.0,187.0,0
17.0,-206.0,17.0,-291.0,-441.0,205.0,0
23.0,-212.0,28.0,-253.0,-505.0,214.0,0
21.0,-215.0,42.0,-170.0,-575.0,227.0,0
24.0,-228.0,33.0,-44.0,-644.0,238.0,0
33.0,-242.0,11.0,64.0,-681.0,247.0,0
38.0,-254.0,-11.0,94.0,-671.0,234.0,0
38.0,-258.0,-25.0,59.0,-625.0,217.0,0
43.0,-259.0,-35.0,4.0,-560.0,200.0,0
44.0,-261.0,-47.0,-53.0,-488.0,177.0,0
34.0,-253.0,-48.0,-104.0,-412.0,147.0,0
27.0,-244.0,-39.0,-133.0,-348.0,143.0,0
25.0,-230.0,-29.0,-127.0,-320.0,148.0,0
21.0,-220.0,-29.0,-108.0,-311.0,158.0,0
18.0,-209.0,-34.0,-89.0,-296.0,164.0,0
28.0,-203.0,-37.0,-90.0,-280.0,163.0,0
34.0,-197.0,-30.0,-118.0,-261.0,142.0,0
35.0,-188.0,-29.0,-163.0,-244.0,114.0,0
36.0,-189.0,-19.0,-210.0,-231.0,71.0,0
37.0,-193.0,-21.0,-251.0,-225.0,41.0,0
36.0,-195.0,-14.0,-287.0,-224.0,11.0,0
36.0,-202.0,-12.0,-316.0,-228.0,3.0,0
39.0,-213.0,-11.0,-325.0,-230.0,1.0,0
36.0,-221.0,-4.0,-312.0,-236.0,15.0,0
44.0,-226.0,-10.0,-264.0,-240.0,22.0,0
40.0,-234.0,-11.0,-193.0,-227.0,26.0,0
34.0,-246.0,-15.0,-130.0,-210.0,26.0,0
32.0,-257.0,-16.0,-75.0,-210.0,28.0,0
26.0,-269.0,-20.0,-35.0,-213.0,30.0,0
20.0,-277.0,-23.0,-12.0,-208.0,39.0,0
19.0,-294.0,-32.0,2.0,-182.0,53.0,0
21.0,-299.0,-47.0,9.0,-142.0,72.0,0
19.0,-301.0,-60.0,7.0,-84.0,78.0,0
23.0,-301.0,-72.0,-18.0,-18.0,77.0,0
29.0,-298.0,-73.0,-70.0,43.0,59.0,0
31.0,-295.0,-78.0,-144.0,96.0,36.0,0
31.0,-290.0,-64.0,-212.0,142.0,5.0,0
34.0,-282.0,-52.0,-267.0,179.0,-17.0,0
38.0,-279.0,-39.0,-299.0,202.0,-33.0,0
45.0,-274.0,-25.0,-311.0,211.0,-41.0,0
50.0,-268.0,-6.0,-304.0,201.0,-48.0,0
57.0,-263.0,4.0,-276.0,182.0,-50.0,0
57.0,-256.0,13.0,-238.0,155.0,-56.0,0
57.0,-253.0,18.0,-191.0,121.0,-59.0,0
54.0,-247.0,19.0,-148.0,82.0,-64.0,0
51.0,-244.0,17.0,-111.0,38.0,-63.0,0
44.0,-240.0,11.0,-84.0,-10.0,-60.0,0
38.0,-245.0,10.0,-63.0,-53.0,-53.0,0
29.0,-246.0,1.0,-52.0,-86.0,-47.0,0
20.0,-245.0,-10.0,-47.0,-109.0,-33.0,0
12.0,-248.0,-10.0,-45.0,-113.0,-18.0,0
-1.0,-252.0,-13.0,-45.0,-108.0,4.0,0
-8.0,-256.0,-17.0,-47.0,-93.0,32.0,0
-13.0,-257.0,-19.0,-48.0,-74.0,64.0,0
-20.0,-260.0,-16.0,-47.0,-55.0,95.0,0
-25.0,-261.0,-15.0,-39.0,-40.0,129.0,0
-33.0,-260.0,-19.0,-32.0,-38.0,158.0,0
-32.0,-260.0,-15.0,-25.0,-41.0,187.0,0
-32.0,-257.0,-21.0,-24.0,-51.0,210.0,0
-27.0,-259.0,-18.0,-30.0,-65.0,220.0,0
-26.0,-257.0,-22.0,-32.0,-82.0,221.0,0
-21.0,-255.0,-22.0,-29.0,-98.0,227.0,0
-15.0,-251.0,-24.0,-30.0,-123.0,212.0,0
-13.0,-242.0,-29.0,-28.0,-148.0,196.0,0
-7.0,-243.0,-33.0,-34.0,-167.0,173.0,0
0.0,-238.0,-41.0,-53.0,-185.0,141.0,0
3.0,-234.0,-47.0,-85.0,-201.0,106.0,0
7.0,-232.0,-50.0,-124.0,-210.0,74.0,0
10.0,-230.0,-52.0,-169.0,-221.0,39.0,0
15.0,-229.0,-54.0,-225.0,-226.0,13.0,0
21.0,-228.0,-57.0,-267.0,-232.0,-8.0,0
19.0,-229.0,-55.0,-312.0,-239.0,-31.0,0
20.0,-233.0,-56.0,-355.0,-247.0,-48.0,0
20.0,-237.0,-54.0,-398.0,-260.0,-59.0,0
16.0,-241.0,-49.0,-431.0,-279.0,-64.0,0
14.0,-243.0,-48.0,-456.0,-296.0,-64.0,0
10.0,-249.0,-43.0,-472.0,-314.0,-55.0,0
6.0,-249.0,-43.0,-478.0,-334.0,-48.0,0
2.0,-257.0,-43.0,-468.0,-351.0,-20.0,0
1.0,-257.0,-43.0,-446.0,-358.0,4.0,0
-1.0,-262.0,-40.0,-421.0,-356.0,30.0,0
-10.0,-260.0,-39.0,-395.0,-351.0,53.0,0
-10.0,-267.0,-38.0,-366.0,-339.0,90.0,0
-13.0,-262.0,-41.0,-340.0,-326.0,114.0,0
-15.0,-265.0,-39.0,-321.0,-320.0,135.0,0
-16.0,-269.0,-41.0,-301.0,-316.0,150.0,0
-23.0,-262.0,-40.0,-285.0,-316.0,159.0,0
-26.0,-267.0,-44.0,-264.0,-320.0,169.0,0
-22.0,-267.0,-45.0,-247.0,-327.0,176.0,0
-26.0,-263.0,-43.0,-230.0,-333.0,169.0,0
-28.0,-261.0,-41.0,-207.0,-340.0,169.0,0
-27.0,-262.0,-39.0,-181.0,-349.0,160.0,0
-30.0,-257.0,-48.0,-162.0,-358.0,146.0,0
-30.0,-255.0,-43.0,-148.0,-366.0,130.0,0
-27.0,-256.0,-42.0,-140.0,-375.0,120.0,0
-28.0,-254.0,-43.0,-137.0,-385.0,99.0,0
-27.0,-254.0,-46.0,-129.0,-387.0,89.0,0
-22.0,-257.0,-43.0,-127.0,-380.0,74.0,0
-23.0,-258.0,-41.0,-129.0,-375.0,64.0,0
-22.0,-256.0,-40.0,-123.0,-367.0,56.0,0
-21.0,-257.0,-38.0,-114.0,-358.0,54.0,0
-22.0,-256.0,-43.0,-112.0,-353.0,50.0,0
-23.0,-259.0,-37.0,-112.0,-345.0,51.0,0
-24.0,-260.0,-36.0,-113.0,-340.0,54.0,0
-21.0,-262.0,-33.0,-117.0,-335.0,67.0,0
-15.0,-262.0,-35.0,-121.0,-327.0,80.0,0
-16.0,-264.0,-37.0,-129.0,-315.0,93.0,0
-13.0,-264.0,-31.0,-140.0,-298.0,99.0,0
-12.0,-263.0,-31.0,-139.0,-285.0,109.0,0
-10.0,-264.0,-26.0,-134.0,-270.0,106.0,0
-11.0,-260.0,-27.0,-129.0,-262.0,100.0,0
-12.0,-260.0,-28.0,-123.0,-254.0,93.0,0
-10.0,-261.0,-24.0,-121.0,-243.0,93.0,0
-11.0,-256.0,-23.0,-108.0,-233.0,82.0,0
-11.0,-257.0,-25.0,-94.0,-216.0,78.0,0
-12.0,-258.0,-23.0,-84.0,-199.0,71.0,0
-12.0,-256.0,-21.0,-79.0,-184.0,68.0,0
-12.0,-255.0,-20.0,-74.0,-179.0,62.0,0
-12.0,-254.0,-17.0,-68.0,-176.0,59.0,0
-11.0,-251.0,-22.0,-60.0,-169.0,54.0,0
-11.0,-252.0,-14.0,-54.0,-158.0,51.0,0
-11.0,-251.0,-16.0,-47.0,-148.0,44.0,0
-12.0,-251.0,-18.0,-49.0,-134.0,38.0,0
-11.0,-254.0,-15.0,-51.0,-119.0,34.0,0
-12.0,-256.0,-10.0,-51.0,-99.0,37.0,0
-11.0,-256.0,-13.0,-48.0,-81.0,33.0,0
-13.0,-256.0,-11.0,-44.0,-56.0,31.0,0
-19.0,-255.0,-13.0,-41.0,-34.0,30.0,0
-14.0,-257.0,-17.0,-32.0,-16.0,33.0,0
-15.0,-259.0,-14.0,-15.0,-1.0,30.0,0
-21.0,-253.0,-14.0,0.0,14.0,26.0,0
-21.0,-252.0,-15.0,10.0,20.0,25.0,0
-20.0,-251.0,-18.0,13.0,24.0,28.0,0
-22.0,-250.0,-21.0,8.0,27.0,29.0,0
-24.0,-249.0,-25.0,-7.0,32.0,29.0,0
-23.0,-249.0,-25.0,-29.0,37.0,34.0,0
-25.0,-250.0,-25.0,-61.0,40.0,44.0,0
-26.0,-248.0,-27.0,-86.0,43.0,51.0,0
-26.0,-250.0,-28.0,-106.0,44.0,57.0,0
-24.0,-249.0,-31.0,-117.0,48.0,63.0,0
-22.0,-245.0,-31.0,-128.0,54.0,65.0,0
-23.0,-244.0,-34.0,-136.0,62.0,63.0,0
-21.0,-249.0,-37.0,-142.0,69.0,62.0,0
-20.0,-245.0,-33.0,-145.0,79.0,61.0,0
-19.0,-247.0,-33.0,-149.0,87.0,57.0,0
-20.0,-248.0,-34.0,-149.0,98.0,52.0,0
-18.0,-248.0,-34.0,-142.0,107.0,48.0,0
-15.0,-247.0,-32.0,-134.0,111.0,39.0,0
-12.0,-248.0,-27.0,-126.0,116.0,29.0,0
-12.0,-251.0,-33.0,-115.0,124.0,19.0,0
-11.0,-253.0,-34.0,-106.0,134.0,9.0,0
-10.0,-253.0,-33.0,-96.0,148.0,-1.0,0
-8.0,-252.0,-34.0,-88.0,160.0,-15.0,0
-10.0,-251.0,-36.0,-77.0,170.0,-27.0,0
-9.0,-254.0,-37.0,-70.0,182.0,-46.0,0
-11.0,-253.0,-34.0,-63.0,184.0,-58.0,0
-11.0,-253.0,-34.0,-61.0,185.0,-70.0,0
-10.0,-254.0,-35.0,-58.0,184.0,-79.0,0
-14.0,-253.0,-41.0,-59.0,185.0,-88.0,0
-12.0,-256.0,-44.0,-59.0,188.0,-95.0,0
-14.0,-257.0,-44.0,-63.0,193.0,-102.0,0
-19.0,-257.0,-42.0,-70.0,195.0,-107.0,0
-19.0,-256.0,-48.0,-75.0,200.0,-112.0,0
-23.0,-259.0,-47.0,-78.0,207.0,-110.0,0
-25.0,-260.0,-47.0,-73.0,218.0,-108.0,0
-23.0,-265.0,-46.0,-65.0,229.0,-100.0,0
-22.0,-269.0,-44.0,-55.0,241.0,-95.0,0
-25.0,-267.0,-40.0,-46.0,255.0,-86.0,0
-21.0,-274.0,-37.0,-38.0,266.0,-78.0,0
-21.0,-271.0,-33.0,-35.0,274.0,-67.0,0
-14.0,-273.0,-29.0,-31.0,283.0,-61.0,0
-13.0,-272.0,-29.0,-26.0,292.0,-50.0,0
-12.0,-271.0,-27.0,-13.0,301.0,-43.0,0
-11.0,-270.0,-24.0,3.0,315.0,-29.0,0
-10.0,-272.0,-23.0,21.0,324.0,-21.0,0
-8.0,-268.0,-26.0,29.0,332.0,-12.0,0
-3.0,-267.0,-20.0,30.0,341.0,-8.0,0
-4.0,-260.0,-20.0,25.0,347.0,0.0,0
-3.0,-260.0,-20.0,19.0,351.0,0.0,0
0.0,-258.0,-16.0,16.0,357.0,-1.0,0
2.0,-251.0,-17.0,17.0,365.0,-12.0,0
-1.0,-251.0,-19.0,24.0,372.0,-17.0,0
-6.0,-248.0,-22.0,32.0,379.0,-31.0,0
-8.0,-245.0,-29.0,39.0,386.0,-38.0,0
-8.0,-249.0,-31.0,44.0,389.0,-46.0,0
-11.0,-247.0,-36.0,44.0,394.0,-55.0,0
-12.0,-247.0,-34.0,48.0,403.0,-59.0,0
-11.0,-248.0,-36.0,46.0,410.0,-59.0,0
-12.0,-247.0,-37.0,38.0,415.0,-66.0,0
-12.0,-250.0,-39.0,26.0,422.0,-71.0,0
-12.0,-251.0,-39.0,13.0,431.0,-78.0,0
-12.0,-254.0,-37.0,2.0,444.0,-74.0,0
-12.0,-252.0,-37.0,2.0,458.0,-71.0,0
-10.0,-256.0,-38.0,5.0,470.0,-63.0,0
-12.0,-253.0,-38.0,4.0,476.0,-67.0,0
-17.0,-254.0,-42.0,0.0,483.0,-69.0,0
-22.0,-253.0,-37.0,0.0,486.0,-70.0,0
-24.0,-249.0,-41.0,3.0,485.0,-59.0,0
-20.0,-250.0,-47.0,6.0,476.0,-50.0,0
-15.0,-247.0,-47.0,-1.0,463.0,-36.0,0
-13.0,-252.0,-46.0,-21.0,455.0,-27.0,0
-4.0,-252.0,-48.0,-45.0,457.0,-20.0,0
4.0,-250.0,-39.0,-71.0,466.0,-21.0,0
1.0,-248.0,-47.0,-83.0,491.0,-22.0,0
-8.0,-251.0,-48.0,-90.0,517.0,-21.0,0
-3.0,-248.0,-47.0,-95.0,521.0,-13.0,0
-4.0,-249.0,-50.0,-98.0,511.0,-11.0,0
-10.0,-243.0,-50.0,-92.0,492.0,-13.0,0
-11.0,-241.0,-50.0,-79.0,468.0,-22.0,0
-10.0,-243.0,-56.0,-74.0,438.0,-33.0,0
-10.0,-249.0,-51.0,-80.0,413.0,-49.0,0
-12.0,-248.0,-47.0,-82.0,400.0,-65.0,0
-8.0,-251.0,-41.0,-72.0,394.0,-80.0,0
0.0,-255.0,-39.0,-49.0,392.0,-81.0,0
6.0,-255.0,-34.0,-26.0,397.0,-87.0,0
14.0,-257.0,-33.0,-3.0,414.0,-90.0,0
19.0,-259.0,-32.0,15.0,435.0,-91.0,0
27.0,-260.0,-35.0,30.0,458.0,-90.0,0
21.0,-261.0,-36.0,41.0,484.0,-93.0,0
18.0,-260.0,-38.0,42.0,508.0,-93.0,0
19.0,-261.0,-35.0,34.0,518.0,-85.0,0
19.0,-260.0,-35.0,21.0,518.0,-74.0,0
22.0,-258.0,-38.0,9.0,515.0,-64.0,0
22.0,-257.0,-37.0,-7.0,509.0,-60.0,0
20.0,-256.0,-41.0,-21.0,506.0,-49.0,0
14.0,-259.0,-40.0,-39.0,508.0,-32.0,0
5.0,-258.0,-37.0,-55.0,508.0,-22.0,0
1.0,-254.0,-34.0,-73.0,506.0,-17.0,0
-4.0,-259.0,-32.0,-93.0,491.0,-11.0,0
-3.0,-260.0,-31.0,-103.0,454.0,-5.0,0
1.0,-259.0,-32.0,-86.0,413.0,-1.0,0
0.0,-255.0,-34.0,-54.0,398.0,-1.0,0
-7.0,-257.0,-31.0,-20.0,399.0,-8.0,0
-10.0,-257.0,-35.0,-1.0,404.0,-15.0,0
-12.0,-257.0,-33.0,6.0,403.0,-13.0,0
-11.0,-258.0,-33.0,4.0,399.0,-14.0,0
-12.0,-255.0,-29.0,4.0,391.0,-8.0,0
-9.0,-256.0,-25.0,13.0,382.0,-3.0,0
-3.0,-258.0,-28.0,28.0,377.0,7.0,0
0.0,-254.0,-28.0,43.0,376.0,17.0,0
5.0,-252.0,-26.0,64.0,382.0,28.0,0
10.0,-250.0,-28.0,77.0,392.0,36.0,0
9.0,-253.0,-28.0,87.0,399.0,46.0,0
14.0,-251.0,-29.0,90.0,404.0,54.0,0
18.0,-250.0,-26.0,87.0,412.0,57.0,0
9.0,-249.0,-26.0,84.0,414.0,52.0,0
9.0,-254.0,-22.0,77.0,410.0,49.0,0
5.0,-253.0,-24.0,64.0,390.0,37.0,0
1.0,-256.0,-26.0,57.0,371.0,30.0,0
3.0,-259.0,-26.0,47.0,358.0,21.0,0
1.0,-258.0,-26.0,38.0,343.0,12.0,0
3.0,-260.0,-21.0,33.0,334.0,-3.0,0
-6.0,-255.0,-26.0,28.0,322.0,-21.0,0
-5.0,-254.0,-30.0,26.0,313.0,-30.0,0
-2.0,-256.0,-28.0,16.0,297.0,-37.0,0
-6.0,-252.0,-33.0,7.0,280.0,-47.0,0
-5.0,-254.0,-32.0,-3.0,266.0,-55.0,0
8.0,-242.0,-37.0,-10.0,257.0,-63.0,0
4.0,-258.0,-45.0,-14.0,254.0,-69.0,0
-1.0,-247.0,-40.0,-17.0,257.0,-76.0,0
6.0,-246.0,-30.0,-22.0,263.0,-76.0,0
4.0,-252.0,-40.0,-27.0,268.0,-72.0,0
1.0,-253.0,-26.0,-38.0,270.0,-60.0,0
15.0,-250.0,-39.0,-48.0,264.0,-54.0,0
18.0,-255.0,-12.0,-54.0,256.0,-44.0,0
12.0,-254.0,-29.0,-59.0,248.0,-42.0,0
12.0,-255.0,-32.0,-57.0,237.0,-38.0,0
11.0,-255.0,-32.0,-58.0,229.0,-37.0,0
16.0,-254.0,-21.0,-57.0,219.0,-32.0,0
14.0,-256.0,-26.0,-56.0,210.0,-31.0,0
17.0,-258.0,-27.0,-59.0,203.0,-30.0,0
16.0,-259.0,-24.0,-60.0,196.0,-30.0,0
17.0,-260.0,-29.0,-62.0,189.0,-24.0,0
18.0,-259.0,-30.0,-62.0,185.0,-22.0,0
18.0,-260.0,-32.0,-57.0,178.0,-19.0,0
19.0,-260.0,-29.0,-55.0,174.0,-19.0,0
22.0,-260.0,-32.0,-51.0,170.0,-16.0,0
23.0,-255.0,-35.0,-45.0,165.0,-14.0,0
23.0,-257.0,-33.0,-39.0,165.0,-8.0,0
21.0,-252.0,-36.0,-34.0,164.0,-5.0,0
20.0,-253.0,-35.0,-32.0,161.0,0.0,0
21.0,-252.0,-37.0,-36.0,159.0,3.0,0
18.0,-248.0,-32.0,-37.0,158.0,8.0,0
20.0,-251.0,-35.0,-39.0,160.0,9.0,0
18.0,-252.0,-32.0,-43.0,161.0,13.0,0
14.0,-249.0,-34.0,-49.0,160.0,14.0,0
15.0,-251.0,-34.0,-55.0,160.0,18.0,0
13.0,-254.0,-33.0,-61.0,162.0,18.0,0
11.0,-254.0,-29.0,-57.0,160.0,19.0,0
12.0,-250.0,-27.0,-61.0,155.0,9.0,0
9.0,-252.0,-30.0,-58.0,157.0,13.0,0
9.0,-253.0,-31.0,-58.0,159.0,14.0,0
11.0,-255.0,-35.0,-58.0,154.0,13.0,0
9.0,-256.0,-30.0,-54.0,150.0,9.0,0
12.0,-255.0,-33.0,-51.0,149.0,6.0,0
11.0,-254.0,-31.0,-47.0,147.0,1.0,0
9.0,-257.0,-30.0,-39.0,143.0,-3.0,0
11.0,-255.0,-32.0,-31.0,137.0,-7.0,0
13.0,-256.0,-34.0,-29.0,131.0,-9.0,0
14.0,-256.0,-33.0,-31.0,128.0,-16.0,0
12.0,-253.0,-36.0,-33.0,127.0,-19.0,0
13.0,-255.0,-33.0,-34.0,128.0,-19.0,0
16.0,-254.0,-36.0,-35.0,126.0,-14.0,0
11.0,-250.0,-30.0,-40.0,128.0,-11.0,0
13.0,-254.0,-32.0,-43.0,124.0,-13.0,0
12.0,-253.0,-29.0,-46.0,118.0,-13.0,0
15.0,-252.0,-30.0,-45.0,117.0,-12.0,0
13.0,-250.0,-31.0,-43.0,118.0,-9.0,0
11.0,-249.0,-26.0,-42.0,117.0,-7.0,0
10.0,-252.0,-27.0,-40.0,114.0,-7.0,0
10.0,-250.0,-32.0,-41.0,107.0,-8.0,0
10.0,-250.0,-37.0,-41.0,98.0,-8.0,0
7.0,-251.0,-31.0,-41.0,87.0,-10.0,0
8.0,-254.0,-29.0,-43.0,77.0,-9.0,0
8.0,-254.0,-35.0,-47.0,69.0,-12.0,0
9.0,-253.0,-35.0,-47.0,63.0,-7.0,0
6.0,-255.0,-31.0,-50.0,57.0,-4.0,0
9.0,-256.0,-32.0,-53.0,54.0,-2.0,0
12.0,-256.0,-35.0,-58.0,53.0,-2.0,0
12.0,-257.0,-29.0,-59.0,55.0,4.0,0
9.0,-254.0,-28.0,-52.0,55.0,4.0,0
12.0,-259.0,-31.0,-40.0,58.0,8.0,0
10.0,-256.0,-32.0,-28.0,60.0,5.0,0
12.0,-257.0,-32.0,-21.0,59.0,8.0,0
15.0,-256.0,-36.0,-17.0,54.0,4.0,0
17.0,-258.0,-30.0,-15.0,49.0,5.0,0
12.0,-257.0,-29.0,-14.0,44.0,6.0,0
14.0,-257.0,-28.0,-10.0,39.0,6.0,0
13.0,-255.0,-32.0,-7.0,35.0,2.0,0
14.0,-254.0,-30.0,-7.0,27.0,4.0,0
13.0,-255.0,-31.0,-9.0,21.0,0.0,0
11.0,-254.0,-35.0,-15.0,18.0,2.0,0
12.0,-254.0,-33.0,-21.0,19.0,0.0,0
12.0,-257.0,-33.0,-28.0,20.0,1.0,0
13.0,-256.0,-32.0,-34.0,22.0,-1.0,0
10.0,-257.0,-33.0,-40.0,22.0,-3.0,0
11.0,-255.0,-32.0,-45.0,22.0,-10.0,0
11.0,-255.0,-32.0,-48.0,21.0,-5.0,0
10.0,-254.0,-37.0,-50.0,21.0,-6.0,0
8.0,-256.0,-32.0,-51.0,23.0,-3.0,0
7.0,-254.0,-30.0,-48.0,22.0,-10.0,0
12.0,-255.0,-33.0,-43.0,21.0,-5.0,0
8.0,-253.0,-35.0,-39.0,20.0,-7.0,0
10.0,-255.0,-34.0,-34.0,19.0,-3.0,0
2.0,-255.0,-31.0,-30.0,21.0,-8.0,0
-2.0,-254.0,-34.0,-25.0,16.0,-8.0,0
12.0,-255.0,-35.0,-19.0,6.0,-10.0,0
18.0,-253.0,-29.0,-11.0,5.0,-13.0,0
15.0,-251.0,-31.0,-7.0,22.0,-18.0,0
14.0,-249.0,-31.0,-12.0,41.0,-17.0,0
11.0,-254.0,-29.0,-20.0,56.0,-19.0,0
9.0,-253.0,-30.0,-33.0,61.0,-16.0,0
9.0,-256.0,-33.0,-41.0,61.0,-20.0,0
9.0,-256.0,-33.0,-41.0,53.0,-23.0,0
8.0,-258.0,-33.0,-39.0,44.0,-29.0,0
9.0,-254.0,-36.0,-34.0,40.0,-28.0,0
7.0,-254.0,-35.0,-31.0,38.0,-32.0,0
10.0,-254.0,-40.0,-32.0,37.0,-30.0,0
6.0,-255.0,-34.0,-36.0,37.0,-31.0,0
4.0,-255.0,-35.0,-42.0,38.0,-26.0,0
6.0,-257.0,-33.0,-47.0,41.0,-24.0,0
4.0,-257.0,-34.0,-52.0,41.0,-20.0,0
5.0,-256.0,-33.0,-52.0,42.0,-18.0,0
6.0,-254.0,-34.0,-49.0,42.0,-13.0,0
4.0,-253.0,-35.0,-46.0,43.0,-13.0,0
6.0,-258.0,-28.0,-42.0,43.0,-8.0,0
4.0,-257.0,-29.0,-38.0,43.0,-9.0,0
4.0,-254.0,-33.0,-35.0,41.0,-7.0,0
3.0,-258.0,-31.0,-32.0,39.0,-8.0,0
4.0,-254.0,-33.0,-31.0,33.0,-14.0,0
3.0,-254.0,-36.0,-26.0,33.0,-12.0,0
6.0,-257.0,-37.0,-25.0,34.0,-9.0,0
3.0,-255.0,-34.0,-26.0,32.0,-7.0,0
4.0,-256.0,-34.0,-29.0,31.0,-4.0,0
4.0,-254.0,-29.0,-29.0,33.0,-4.0,0
5.0,-253.0,-32.0,-32.0,33.0,-2.0,0
9.0,-257.0,-35.0,-30.0,35.0,-3.0,0
7.0,-255.0,-35.0,-28.0,35.0,-2.0,0
4.0,-254.0,-31.0,-24.0,37.0,-3.0,0
4.0,-256.0,-34.0,-21.0,39.0,-3.0,0
4.0,-254.0,-33.0,-22.0,37.0,-4.0,0
2.0,-253.0,-35.0,-23.0,33.0,-4.0,0
5.0,-254.0,-30.0,-23.0,28.0,-6.0,0
2.0,-253.0,-32.0,-24.0,26.0,-9.0,0
7.0,-256.0,-35.0,-21.0,26.0,-11.0,0
6.0,-257.0,-31.0,-18.0,30.0,-10.0,0
9.0,-256.0,-32.0,-12.0,33.0,-7.0,0
12.0,-255.0,-35.0,-7.0,39.0,-4.0,0
7.0,-254.0,-35.0,3.0,50.0,1.0,0
1.0,-253.0,-36.0,12.0,65.0,4.0,0
0.0,-255.0,-35.0,13.0,64.0,4.0,0
-1.0,-254.0,-31.0,4.0,49.0,4.0,0
-2.0,-256.0,-27.0,-3.0,34.0,2.0,0
1.0,-254.0,-28.0,-8.0,17.0,0.0,0
3.0,-257.0,-28.0,-9.0,7.0,-1.0,0
5.0,-258.0,-30.0,-4.0,9.0,-4.0,0
0.0,-256.0,-35.0,6.0,19.0,-3.0,0
5.0,-259.0,-35.0,16.0,28.0,0.0,0
2.0,-255.0,-35.0,24.0,33.0,2.0,0
2.0,-256.0,-37.0,28.0,35.0,2.0,0
1.0,-257.0,-36.0,29.0,39.0,2.0,0
-1.0,-257.0,-39.0,27.0,40.0,1.0,0
2.0,-257.0,-39.0,26.0,41.0,0.0,0
6.0,-257.0,-37.0,24.0,41.0,-3.0,0
2.0,-257.0,-40.0,24.0,41.0,-4.0,0
4.0,-254.0,-40.0,23.0,42.0,-8.0,0
3.0,-257.0,-38.0,17.0,40.0,-7.0,0
2.0,-253.0,-38.0,8.0,38.0,-9.0,0
2.0,-250.0,-42.0,2.0,37.0,-11.0,0
-1.0,-252.0,-40.0,-6.0,35.0,-15.0,0
6.0,-267.0,-13.0,-12.0,32.0,-14.0,0
3.0,-259.0,-37.0,-12.0,30.0,-14.0,0
3.0,-260.0,-35.0,-9.0,30.0,-10.0,0
4.0,-259.0,-37.0,0.0,30.0,-11.0,0
6.0,-257.0,-38.0,15.0,36.0,-11.0,0
2.0,-255.0,-39.0,28.0,39.0,-13.0,0
1.0,-256.0,-36.0,34.0,41.0,-12.0,0
-1.0,-253.0,-39.0,38.0,42.0,-13.0,0
5.0,-256.0,-39.0,44.0,42.0,-9.0,0
5.0,-259.0,-35.0,50.0,44.0,-5.0,0
-1.0,-255.0,-37.0,56.0,51.0,-4.0,0
4.0,-254.0,-37.0,57.0,49.0,-7.0,0
7.0,-254.0,-39.0,57.0,46.0,-5.0,0
4.0,-253.0,-36.0,54.0,46.0,-8.0,0
5.0,-254.0,-36.0,51.0,48.0,-5.0,0
4.0,-251.0,-36.0,48.0,51.0,-10.0,0
2.0,-253.0,-36.0,51.0,52.0,-8.0,0
3.0,-252.0,-35.0,55.0,51.0,-11.0,0
2.0,-250.0,-37.0,57.0,50.0,-8.0,0
2.0,-250.0,-37.0,59.0,49.0,-11.0,0
5.0,-252.0,-38.0,58.0,48.0,-7.0,0
4.0,-257.0,-35.0,57.0,49.0,-4.0,0
4.0,-253.0,-36.0,55.0,52.0,1.0,0
3.0,-251.0,-34.0,51.0,57.0,0.0,0
5.0,-252.0,-36.0,51.0,55.0,5.0,0
6.0,-251.0,-34.0,48.0,57.0,9.0,0
16.0,-253.0,-41.0,47.0,63.0,15.0,0
15.0,-253.0,-41.0,52.0,75.0,21.0,0
4.0,-255.0,-36.0,66.0,100.0,35.0,0
-11.0,-249.0,-36.0,80.0,116.0,38.0,0
-8.0,-250.0,-30.0,73.0,106.0,35.0,0
-5.0,-256.0,-31.0,50.0,71.0,26.0,0
-2.0,-256.0,-27.0,22.0,39.0,13.0,0
4.0,-257.0,-23.0,15.0,21.0,11.0,0
0.0,-259.0,-31.0,21.0,22.0,8.0,0
0.0,-258.0,-30.0,37.0,32.0,6.0,0
3.0,-255.0,-36.0,55.0,47.0,10.0,0
9.0,-255.0,-38.0,69.0,60.0,11.0,0
4.0,-253.0,-37.0,79.0,76.0,14.0,0
2.0,-254.0,-42.0,82.0,90.0,16.0,0
4.0,-253.0,-40.0,75.0,91.0,20.0,0
5.0,-253.0,-41.0,61.0,85.0,15.0,0
2.0,-254.0,-36.0,43.0,78.0,15.0,0
1.0,-253.0,-31.0,34.0,68.0,13.0,0
-4.0,-252.0,-28.0,30.0,60.0,14.0,0
-4.0,-253.0,-30.0,24.0,52.0,12.0,0
-1.0,-255.0,-32.0,19.0,38.0,13.0,0
1.0,-255.0,-32.0,13.0,22.0,5.0,0
1.0,-254.0,-35.0,14.0,20.0,3.0,0
3.0,-256.0,-33.0,22.0,26.0,-2.0,0
0.0,-251.0,-32.0,35.0,37.0,-2.0,0
2.0,-256.0,-39.0,45.0,45.0,1.0,0
1.0,-248.0,-39.0,46.0,49.0,4.0,0
2.0,-249.0,-37.0,40.0,50.0,4.0,0
2.0,-253.0,-39.0,31.0,49.0,4.0,0
4.0,-253.0,-36.0,19.0,48.0,3.0,0
1.0,-252.0,-36.0,6.0,45.0,1.0,0
5.0,-253.0,-31.0,-4.0,39.0,-1.0,0
5.0,-255.0,-31.0,-9.0,37.0,0.0,0
4.0,-255.0,-29.0,-13.0,35.0,0.0,0
2.0,-255.0,-31.0,-14.0,34.0,0.0,0
3.0,-256.0,-30.0,-13.0,35.0,2.0,0
3.0,-254.0,-27.0,-12.0,35.0,4.0,0
3.0,-253.0,-26.0,-11.0,36.0,9.0,0
4.0,-255.0,-34.0,-8.0,38.0,11.0,0
5.0,-255.0,-32.0,-3.0,42.0,15.0,0
3.0,-252.0,-30.0,2.0,43.0,15.0,0
3.0,-255.0,-32.0,8.0,43.0,15.0,0
5.0,-253.0,-31.0,6.0,45.0,9.0,0
5.0,-252.0,-31.0,8.0,44.0,13.0,0
3.0,-249.0,-29.0,8.0,45.0,15.0,0
4.0,-254.0,-35.0,5.0,41.0,18.0,0
4.0,-253.0,-32.0,2.0,41.0,14.0,0
2.0,-253.0,-33.0,1.0,40.0,15.0,0
5.0,-251.0,-32.0,-1.0,39.0,14.0,0
8.0,-253.0,-30.0,-2.0,37.0,17.0,0
6.0,-256.0,-32.0,-3.0,34.0,18.0,0
8.0,-259.0,-28.0,-6.0,34.0,20.0,0
6.0,-257.0,-30.0,-9.0,34.0,20.0,0
5.0,-258.0,-31.0,-10.0,33.0,21.0,0
5.0,-258.0,-29.0,-12.0,33.0,19.0,0
5.0,-260.0,-28.0,-14.0,35.0,21.0,0
6.0,-260.0,-28.0,-14.0,36.0,17.0,0
3.0,-256.0,-31.0,-12.0,39.0,17.0,0
2.0,-258.0,-27.0,-11.0,42.0,14.0,0
4.0,-257.0,-29.0,-9.0,43.0,13.0,0
5.0,-255.0,-34.0,-6.0,45.0,10.0,0
3.0,-258.0,-31.0,-4.0,42.0,10.0,0
4.0,-260.0,-36.0,-5.0,41.0,4.0,0
5.0,-258.0,-34.0,-9.0,40.0,4.0,0
3.0,-255.0,-28.0,-12.0,41.0,-1.0,0
3.0,-258.0,-30.0,-18.0,41.0,1.0,0
4.0,-260.0,-26.0,-23.0,41.0,-2.0,0
3.0,-259.0,-30.0,-27.0,41.0,1.0,0
6.0,-258.0,-29.0,-27.0,44.0,-3.0,0
5.0,-255.0,-31.0,-19.0,46.0,-2.0,0
6.0,-258.0,-31.0,-11.0,50.0,-4.0,0
7.0,-257.0,-32.0,-7.0,48.0,-3.0,0
6.0,-255.0,-33.0,-7.0,45.0,-7.0,0
4.0,-257.0,-28.0,-6.0,42.0,-3.0,0
8.0,-255.0,-32.0,-6.0,40.0,-5.0,0
6.0,-256.0,-27.0,-2.0,40.0,-3.0,0
8.0,-255.0,-28.0,1.0,41.0,-4.0,0
7.0,-254.0,-29.0,1.0,39.0,-3.0,0
9.0,-252.0,-26.0,-2.0,41.0,-4.0,0
8.0,-253.0,-31.0,-6.0,44.0,-3.0,0
8.0,-253.0,-29.0,-8.0,46.0,-8.0,0
8.0,-256.0,-29.0,-11.0,47.0,-10.0,0
3.0,-254.0,-27.0,-10.0,48.0,-13.0,0
9.0,-253.0,-31.0,-1.0,53.0,-3.0,0
13.0,-253.0,-31.0,-4.0,54.0,-8.0,0
9.0,-253.0,-31.0,-9.0,61.0,-8.0,0
10.0,-257.0,-30.0,-6.0,71.0,-7.0,0
5.0,-256.0,-30.0,-3.0,78.0,-4.0,0
0.0,-253.0,-29.0,-7.0,74.0,-5.0,0
4.0,-257.0,-26.0,-12.0,66.0,0.0,0
4.0,-254.0,-28.0,-18.0,60.0,-2.0,0
7.0,-258.0,-24.0,-26.0,55.0,-2.0,0
5.0,-256.0,-27.0,-31.0,53.0,-5.0,0
4.0,-256.0,-26.0,-26.0,57.0,-3.0,0
5.0,-257.0,-25.0,-20.0,61.0,-4.0,0
4.0,-259.0,-28.0,-11.0,67.0,-1.0,0
3.0,-257.0,-29.0,0.0,70.0,-3.0,0
2.0,-255.0,-30.0,9.0,72.0,0.0,0
3.0,-255.0,-27.0,14.0,70.0,-1.0,0
7.0,-256.0,-29.0,14.0,68.0,1.0,0
2.0,-253.0,-28.0,13.0,68.0,-1.0,0
5.0,-257.0,-29.0,12.0,67.0,-1.0,0
5.0,-253.0,-28.0,6.0,65.0,-2.0,0
5.0,-254.0,-28.0,1.0,62.0,-1.0,0
2.0,-253.0,-31.0,-3.0,59.0,-1.0,0
3.0,-254.0,-29.0,-9.0,55.0,0.0,0
3.0,-255.0,-28.0,-14.0,51.0,-1.0,0
2.0,-254.0,-29.0,-17.0,50.0,1.0,0
2.0,-255.0,-29.0,-16.0,50.0,0.0,0
2.0,-257.0,-29.0,-15.0,48.0,3.0,0
1.0,-257.0,-29.0,-11.0,46.0,2.0,0
2.0,-258.0,-30.0,-7.0,47.0,3.0,0
4.0,-258.0,-28.0,-2.0,49.0,2.0,0
2.0,-254.0,-25.0,2.0,47.0,2.0,0
2.0,-255.0,-29.0,5.0,44.0,1.0,0
0.0,-254.0,-29.0,8.0,42.0,0.0,0
2.0,-255.0,-26.0,8.0,41.0,0.0,0
5.0,-255.0,-30.0,5.0,41.0,-1.0,0
3.0,-254.0,-28.0,0.0,40.0,-1.0,0
5.0,-253.0,-29.0,-3.0,39.0,0.0,0
4.0,-253.0,-29.0,-3.0,39.0,1.0,0
3.0,-251.0,-28.0,-4.0,37.0,2.0,0
2.0,-254.0,-31.0,-6.0,37.0,3.0,0
1.0,-254.0,-30.0,-7.0,35.0,3.0,0
7.0,-257.0,-30.0,-9.0,33.0,3.0,0
2.0,-256.0,-29.0,-7.0,31.0,-1.0,0
6.0,-258.0,-28.0,-7.0,31.0,0.0,0
4.0,-257.0,-23.0,-6.0,31.0,-3.0,0
3.0,-255.0,-30.0,-5.0,30.0,-3.0,0
2.0,-254.0,-29.0,-3.0,29.0,-4.0,0
3.0,-254.0,-32.0,-2.0,29.0,-3.0,0
4.0,-253.0,-30.0,0.0,31.0,-4.0,0
2.0,-254.0,-29.0,0.0,33.0,-3.0,0
3.0,-255.0,-28.0,-2.0,33.0,-5.0,0
5.0,-250.0,-28.0,-3.0,32.0,-3.0,0
6.0,-254.0,-31.0,-8.0,33.0,-3.0,0
5.0,-254.0,-32.0,-12.0,32.0,-1.0,0
4.0,-257.0,-33.0,-15.0,33.0,-2.0,0
4.0,-256.0,-32.0,-17.0,31.0,-1.0,0
5.0,-257.0,-25.0,-20.0,31.0,-3.0,0
2.0,-255.0,-27.0,-20.0,32.0,-1.0,0
6.0,-255.0,-31.0,-17.0,33.0,-2.0,0
4.0,-255.0,-33.0,-17.0,34.0,-2.0,0
6.0,-260.0,-27.0,-13.0,35.0,-4.0,0
3.0,-258.0,-27.0,-11.0,36.0,-2.0,0
2.0,-257.0,-29.0,-9.0,38.0,-5.0,0
3.0,-257.0,-28.0,-8.0,39.0,-4.0,0
5.0,-257.0,-31.0,-6.0,38.0,-8.0,0
1.0,-256.0,-28.0,-3.0,40.0,-4.0,0
5.0,-257.0,-32.0,-2.0,42.0,-6.0,0
3.0,-252.0,-28.0,-1.0,42.0,-5.0,0
3.0,-252.0,-31.0,1.0,44.0,-6.0,0
5.0,-254.0,-29.0,-1.0,46.0,-3.0,0
2.0,-252.0,-30.0,-3.0,44.0,-5.0,0
3.0,-250.0,-29.0,-5.0,44.0,-2.0,0
4.0,-254.0,-28.0,-9.0,42.0,-4.0,0
3.0,-252.0,-30.0,-14.0,41.0,1.0,0
5.0,-256.0,-28.0,-18.0,43.0,-2.0,0
1.0,-256.0,-22.0,-21.0,46.0,-1.0,0
3.0,-259.0,-27.0,-22.0,49.0,-4.0,0
2.0,-259.0,-24.0,-23.0,49.0,-1.0,0
2.0,-258.0,-24.0,-15.0,49.0,-3.0,0
1.0,-257.0,-25.0,-6.0,51.0,0.0,0
1.0,-254.0,-29.0,1.0,52.0,-2.0,0
1.0,-255.0,-29.0,3.0,51.0,0.0,0
2.0,-257.0,-30.0,2.0,45.0,-2.0,0
1.0,-256.0,-31.0,0.0,43.0,0.0,0
2.0,-254.0,-30.0,2.0,44.0,-4.0,0
2.0,-257.0,-28.0,4.0,44.0,-3.0,0
2.0,-255.0,-31.0,5.0,43.0,-6.0,0
4.0,-256.0,-28.0,2.0,42.0,-4.0,0
5.0,-256.0,-29.0,-1.0,43.0,-5.0,0
3.0,-255.0,-24.0,-4.0,46.0,-3.0,0
2.0,-258.0,-29.0,-6.0,49.0,-5.0,0
3.0,-256.0,-26.0,-8.0,50.0,-4.0,0
-1.0,-253.0,-30.0,-8.0,51.0,-6.0,0
1.0,-252.0,-29.0,-8.0,52.0,-4.0,0
2.0,-254.0,-30.0,-9.0,52.0,-6.0,0
-1.0,-253.0,-24.0,-9.0,54.0,-3.0,0
1.0,-254.0,-27.0,-8.0,56.0,-4.0,0
2.0,-253.0,-28.0,-6.0,57.0,-2.0,0
1.0,-254.0,-28.0,-6.0,57.0,-2.0,0
2.0,-256.0,-31.0,-6.0,56.0,-1.0,0
4.0,-255.0,-29.0,-8.0,55.0,1.0,0
4.0,-254.0,-29.0,-10.0,51.0,2.0,0
5.0,-257.0,-30.0,-12.0,50.0,1.0,0
0.0,-254.0,-31.0,-15.0,49.0,3.0,0
1.0,-254.0,-29.0,-17.0,46.0,2.0,0
1.0,-255.0,-30.0,-17.0,41.0,3.0,0
0.0,-256.0,-25.0,-16.0,40.0,2.0,0
1.0,-255.0,-29.0,-15.0,38.0,2.0,0
4.0,-259.0,-25.0,-16.0,37.0,3.0,0
1.0,-260.0,-24.0,-12.0,37.0,4.0,0
3.0,-259.0,-28.0,-10.0,38.0,2.0,0
-1.0,-256.0,-28.0,-8.0,39.0,2.0,0
1.0,-256.0,-28.0,-7.0,40.0,4.0,0
2.0,-257.0,-29.0,-6.0,42.0,3.0,0
2.0,-253.0,-29.0,-8.0,43.0,5.0,0
2.0,-254.0,-32.0,-8.0,42.0,7.0,0
1.0,-255.0,-30.0,-11.0,41.0,9.0,0
1.0,-255.0,-31.0,-12.0,39.0,6.0,0
1.0,-257.0,-33.0,-14.0,38.0,7.0,0
0.0,-255.0,-29.0,-14.0,36.0,5.0,0
4.0,-255.0,-28.0,-15.0,36.0,4.0,0
3.0,-255.0,-30.0,-15.0,35.0,3.0,0
7.0,-258.0,-31.0,-15.0,37.0,1.0,0
2.0,-257.0,-29.0,-14.0,40.0,0.0,0
5.0,-259.0,-30.0,-11.0,40.0,1.0,0
5.0,-255.0,-25.0,-10.0,41.0,-2.0,0
2.0,-256.0,-28.0,-7.0,42.0,-1.0,0
4.0,-257.0,-26.0,-6.0,45.0,-1.0,0
6.0,-256.0,-27.0,-5.0,46.0,3.0,0
4.0,-256.0,-28.0,-5.0,45.0,1.0,0
3.0,-257.0,-29.0,-8.0,46.0,1.0,0
5.0,-256.0,-26.0,-8.0,49.0,1.0,0
6.0,-255.0,-30.0,-10.0,48.0,2.0,0
5.0,-258.0,-26.0,-12.0,49.0,1.0,0
6.0,-258.0,-29.0,-11.0,49.0,4.0,0
5.0,-255.0,-30.0,-12.0,51.0,2.0,0
2.0,-252.0,-29.0,-14.0,52.0,3.0,0
3.0,-257.0,-30.0,-17.0,53.0,0.0,0
0.0,-256.0,-28.0,-17.0,56.0,2.0,0
3.0,-254.0,-30.0,-17.0,56.0,0.0,0
7.0,-256.0,-27.0,-17.0,58.0,1.0,0
4.0,-255.0,-31.0,-17.0,59.0,-2.0,0
4.0,-254.0,-29.0,-15.0,58.0,-1.0,0
3.0,-256.0,-27.0,-13.0,58.0,-3.0,0
4.0,-253.0,-26.0,-10.0,59.0,-1.0,0
1.0,-254.0,-29.0,-9.0,59.0,-5.0,0
4.0,-256.0,-26.0,-6.0,59.0,-3.0,0
6.0,-258.0,-30.0,-6.0,62.0,-6.0,0
2.0,-256.0,-29.0,-6.0,64.0,-4.0,0
4.0,-256.0,-30.0,-7.0,65.0,-7.0,0
3.0,-251.0,-35.0,-7.0,68.0,-4.0,0
5.0,-254.0,-31.0,-10.0,72.0,-9.0,0
3.0,-257.0,-35.0,-14.0,76.0,-7.0,0
4.0,-255.0,-32.0,-18.0,79.0,-8.0,0
2.0,-253.0,-34.0,-19.0,82.0,-5.0,0
3.0,-254.0,-30.0,-20.0,80.0,-8.0,0
2.0,-258.0,-30.0,-22.0,79.0,-5.0,0
2.0,-253.0,-31.0,-23.0,77.0,-5.0,0
3.0,-257.0,-31.0,-25.0,77.0,-2.0,0
5.0,-254.0,-30.0,-25.0,76.0,-4.0,0
5.0,-254.0,-30.0,-23.0,76.0,0.0,0
5.0,-255.0,-29.0,-22.0,75.0,-3.0,0
5.0,-252.0,-27.0,-21.0,78.0,0.0,0
4.0,-253.0,-27.0,-22.0,80.0,-3.0,0
5.0,-252.0,-31.0,-22.0,81.0,0.0,0
3.0,-252.0,-32.0,-25.0,82.0,-4.0,0
8.0,-255.0,-31.0,-28.0,80.0,-2.0,0
6.0,-252.0,-35.0,-33.0,79.0,-5.0,0
5.0,-254.0,-28.0,-34.0,80.0,-4.0,0
1.0,-256.0,-30.0,-36.0,82.0,-7.0,0
-1.0,-253.0,-31.0,-36.0,83.0,-6.0,0
-1.0,-256.0,-30.0,-32.0,83.0,-7.0,0
-1.0,-258.0,-26.0,-27.0,81.0,-5.0,0
3.0,-256.0,-34.0,-26.0,82.0,-8.0,0
1.0,-256.0,-27.0,-27.0,79.0,-7.0,0
1.0,-255.0,-30.0,-27.0,76.0,-8.0,0
2.0,-256.0,-32.0,-27.0,73.0,-6.0,0
1.0,-256.0,-26.0,-25.0,75.0,-8.0,0
4.0,-256.0,-29.0,-20.0,79.0,-5.0,0
2.0,-254.0,-33.0,-15.0,80.0,-8.0,0
4.0,-254.0,-30.0,-13.0,83.0,-6.0,0
5.0,-252.0,-33.0,-13.0,85.0,-8.0,0
5.0,-254.0,-26.0,-16.0,87.0,-8.0,0
1.0,-254.0,-32.0,-19.0,86.0,-8.0,0
4.0,-255.0,-29.0,-20.0,84.0,-7.0,0
4.0,-253.0,-29.0,-24.0,82.0,-8.0,0
1.0,-253.0,-31.0,-27.0,78.0,-9.0,0
4.0,-256.0,-29.0,-33.0,74.0,-11.0,0
3.0,-257.0,-30.0,-36.0,73.0,-10.0,0
0.0,-256.0,-32.0,-39.0,71.0,-11.0,0
2.0,-257.0,-28.0,-42.0,71.0,-12.0,0
2.0,-256.0,-33.0,-45.0,73.0,-12.0,0
1.0,-255.0,-31.0,-45.0,76.0,-12.0,0
3.0,-258.0,-30.0,-46.0,79.0,-12.0,0
3.0,-256.0,-30.0,-47.0,83.0,-12.0,0
2.0,-259.0,-31.0,-45.0,86.0,-11.0,0
2.0,-257.0,-29.0,-40.0,87.0,-9.0,0
2.0,-258.0,-28.0,-33.0,88.0,-8.0,0
2.0,-256.0,-27.0,-28.0,88.0,-8.0,0
3.0,-254.0,-29.0,-22.0,87.0,-8.0,0
3.0,-256.0,-28.0,-19.0,86.0,-8.0,0
2.0,-257.0,-24.0,-18.0,80.0,-6.0,0
4.0,-255.0,-31.0,-18.0,77.0,-6.0,0
3.0,-255.0,-31.0,-19.0,73.0,-4.0,0
3.0,-252.0,-28.0,-21.0,70.0,-4.0,0
2.0,-254.0,-33.0,-21.0,68.0,-2.0,0
5.0,-253.0,-30.0,-27.0,69.0,-1.0,0
4.0,-255.0,-30.0,-30.0,70.0,0.0,0
6.0,-255.0,-27.0,-34.0,72.0,-3.0,0
4.0,-253.0,-30.0,-37.0,75.0,-2.0,0
4.0,-252.0,-26.0,-38.0,76.0,-4.0,0
3.0,-256.0,-27.0,-37.0,75.0,-3.0,0
3.0,-253.0,-28.0,-36.0,75.0,-4.0,0
3.0,-255.0,-28.0,-35.0,72.0,-2.0,0
3.0,-257.0,-29.0,-32.0,72.0,-6.0,0
0.0,-254.0,-28.0,-27.0,73.0,-6.0,0
3.0,-259.0,-30.0,-25.0,72.0,-7.0,0
2.0,-255.0,-28.0,-24.0,72.0,-6.0,0
1.0,-255.0,-25.0,-23.0,71.0,-7.0,0
4.0,-257.0,-26.0,-23.0,70.0,-4.0,0
1.0,-254.0,-26.0,-22.0,70.0,-7.0,0
1.0,-254.0,-28.0,-21.0,70.0,-4.0,0
1.0,-256.0,-26.0,-23.0,69.0,-5.0,0
1.0,-252.0,-29.0,-24.0,69.0,-3.0,0
4.0,-253.0,-31.0,-26.0,69.0,-6.0,0
1.0,-255.0,-24.0,-28.0,68.0,-4.0,0
7.0,-258.0,-24.0,-29.0,67.0,-5.0,0
2.0,-254.0,-28.0,-29.0,66.0,-3.0,0
1.0,-254.0,-27.0,-29.0,65.0,-7.0,0
5.0,-255.0,-28.0,-29.0,66.0,-3.0,0
2.0,-253.0,-28.0,-30.0,66.0,-6.0,0
2.0,-252.0,-31.0,-32.0,67.0,-3.0,0
1.0,-253.0,-30.0,-34.0,67.0,-4.0,0
0.0,-254.0,-34.0,-38.0,65.0,-2.0,0
7.0,-253.0,-30.0,-40.0,64.0,-5.0,0
5.0,-255.0,-30.0,-42.0,68.0,-5.0,0
3.0,-256.0,-29.0,-45.0,68.0,-7.0,0
3.0,-254.0,-32.0,-46.0,67.0,-5.0,0
4.0,-255.0,-27.0,-47.0,68.0,-8.0,0
12.0,-260.0,-33.0,-48.0,67.0,-7.0,0
8.0,-258.0,-33.0,-45.0,67.0,-13.0,0
0.0,-255.0,-30.0,-36.0,76.0,-10.0,0
5.0,-255.0,-34.0,-26.0,85.0,-9.0,0
0.0,-253.0,-32.0,-24.0,84.0,-7.0,0
-2.0,-258.0,-30.0,-30.0,81.0,-10.0,0
-4.0,-255.0,-28.0,-36.0,69.0,-7.0,0
-2.0,-258.0,-26.0,-41.0,57.0,-9.0,0
5.0,-258.0,-26.0,-44.0,44.0,-9.0,0
5.0,-257.0,-25.0,-40.0,43.0,-11.0,0
0.0,-257.0,-24.0,-27.0,50.0,-8.0,0
2.0,-256.0,-25.0,-14.0,59.0,-6.0,0
1.0,-252.0,-30.0,-6.0,64.0,-2.0,0
6.0,-251.0,-33.0,-5.0,69.0,-1.0,0
3.0,-255.0,-34.0,-8.0,71.0,2.0,0
5.0,-251.0,-33.0,-16.0,72.0,1.0,0
6.0,-254.0,-32.0,-24.0,72.0,2.0,0
6.0,-257.0,-33.0,-30.0,72.0,1.0,0
1.0,-253.0,-33.0,-35.0,70.0,0.0,0
2.0,-251.0,-33.0,-36.0,69.0,-3.0,0
5.0,-254.0,-32.0,-41.0,66.0,-3.0,0
6.0,-256.0,-32.0,-43.0,65.0,-6.0,0
1.0,-254.0,-31.0,-46.0,61.0,-6.0,0
3.0,-256.0,-27.0,-49.0,58.0,-7.0,0
5.0,-259.0,-28.0,-49.0,59.0,-5.0,0
3.0,-259.0,-29.0,-44.0,60.0,-7.0,0
3.0,-258.0,-30.0,-32.0,61.0,-6.0,0
2.0,-255.0,-31.0,-22.0,64.0,-7.0,0
-1.0,-253.0,-35.0,-18.0,67.0,-5.0,0
3.0,-257.0,-30.0,-18.0,67.0,-5.0,0
3.0,-255.0,-31.0,-19.0,62.0,-4.0,0
4.0,-254.0,-38.0,-21.0,64.0,-4.0,0
3.0,-256.0,-26.0,-19.0,66.0,-6.0,0
1.0,-251.0,-33.0,-16.0,67.0,-6.0,0
0.0,-251.0,-30.0,-17.0,66.0,-6.0,0
2.0,-252.0,-31.0,-20.0,67.0,-6.0,0
5.0,-254.0,-29.0,-23.0,68.0,-5.0,0
4.0,-255.0,-32.0,-27.0,69.0,-4.0,0
4.0,-252.0,-29.0,-28.0,70.0,-4.0,0
2.0,-255.0,-30.0,-27.0,69.0,-5.0,0
3.0,-255.0,-30.0,-26.0,68.0,-7.0,0
4.0,-255.0,-29.0,-24.0,68.0,-6.0,0
4.0,-255.0,-31.0,-24.0,69.0,-6.0,0
2.0,-252.0,-36.0,-25.0,70.0,-6.0,0
5.0,-253.0,-33.0,-25.0,68.0,-4.0,0
2.0,-254.0,-36.0,-25.0,69.0,-3.0,0
4.0,-253.0,-31.0,-25.0,69.0,-3.0,0
3.0,-252.0,-33.0,-26.0,68.0,-2.0,0
5.0,-254.0,-35.0,-26.0,67.0,-3.0,0
6.0,-258.0,-33.0,-29.0,63.0,-1.0,0
1.0,-254.0,-35.0,-29.0,62.0,-2.0,0
4.0,-256.0,-32.0,-28.0,62.0,0.0,0
2.0,-257.0,-35.0,-26.0,61.0,-1.0,0
0.0,-256.0,-28.0,-25.0,61.0,1.0,0
3.0,-254.0,-19.0,-24.0,63.0,1.0,0
6.0,-249.0,-22.0,-24.0,61.0,3.0,0
-3.0,-259.0,-32.0,-25.0,59.0,2.0,0
21.0,-259.0,-28.0,-27.0,57.0,4.0,0
11.0,-249.0,-37.0,-27.0,57.0,1.0,0
6.0,-258.0,-41.0,-27.0,53.0,-2.0,0
-2.0,-255.0,-36.0,-23.0,52.0,1.0,0
3.0,-251.0,-32.0,-21.0,50.0,4.0,0
4.0,-254.0,-32.0,-20.0,51.0,1.0,0
4.0,-254.0,-34.0,-21.0,51.0,2.0,0
4.0,-255.0,-36.0,-21.0,50.0,-1.0,0
2.0,-253.0,-32.0,-22.0,49.0,0.0,0
2.0,-255.0,-33.0,-26.0,49.0,-4.0,0
3.0,-254.0,-34.0,-30.0,48.0,-2.0,0
5.0,-256.0,-32.0,-32.0,47.0,-6.0,0
1.0,-252.0,-32.0,-33.0,45.0,-5.0,0
3.0,-257.0,-33.0,-33.0,44.0,-7.0,0
3.0,-256.0,-30.0,-29.0,45.0,-6.0,0
3.0,-255.0,-33.0,-26.0,45.0,-8.0,0
3.0,-256.0,-33.0,-23.0,47.0,-5.0,0
5.0,-253.0,-32.0,-21.0,47.0,-7.0,0
5.0,-252.0,-35.0,-16.0,49.0,-4.0,0
4.0,-252.0,-34.0,-15.0,48.0,-8.0,0
6.0,-255.0,-30.0,-14.0,49.0,-5.0,0
9.0,-255.0,-33.0,-13.0,47.0,-8.0,0
6.0,-251.0,-27.0,-11.0,47.0,-6.0,0
1.0,-253.0,-27.0,-13.0,47.0,-8.0,0
5.0,-252.0,-32.0,-12.0,46.0,-6.0,0
6.0,-256.0,-30.0,-13.0,45.0,-8.0,0
3.0,-251.0,-33.0,-10.0,45.0,-5.0,0
4.0,-255.0,-33.0,-9.0,46.0,-7.0,0
6.0,-255.0,-33.0,-8.0,44.0,-3.0,0
6.0,-255.0,-32.0,-6.0,46.0,-6.0,0
6.0,-255.0,-34.0,-2.0,46.0,-3.0,0
7.0,-253.0,-27.0,-1.0,44.0,-4.0,0
5.0,-255.0,-29.0,0.0,44.0,-2.0,0
4.0,-255.0,-30.0,1.0,43.0,-3.0,0
4.0,-254.0,-27.0,4.0,41.0,-2.0,0
4.0,-254.0,-30.0,6.0,40.0,-4.0,0
4.0,-256.0,-33.0,9.0,40.0,-2.0,0
4.0,-254.0,-30.0,14.0,41.0,-3.0,0
4.0,-255.0,-30.0,18.0,43.0,0.0,0
7.0,-254.0,-32.0,22.0,45.0,-1.0,0
6.0,-257.0,-32.0,25.0,45.0,-1.0,0
5.0,-257.0,-26.0,26.0,44.0,-1.0,0
4.0,-257.0,-33.0,25.0,44.0,1.0,0
1.0,-258.0,-30.0,23.0,41.0,0.0,0
5.0,-259.0,-30.0,21.0,39.0,2.0,0
1.0,-257.0,-31.0,20.0,39.0,1.0,0
3.0,-255.0,-32.0,22.0,38.0,3.0,0
2.0,-259.0,-29.0,22.0,37.0,2.0,0
2.0,-257.0,-31.0,23.0,37.0,5.0,0
2.0,-254.0,-25.0,22.0,37.0,5.0,0
1.0,-255.0,-27.0,21.0,35.0,7.0,0
4.0,-256.0,-27.0,19.0,36.0,8.0,0
3.0,-252.0,-28.0,18.0,37.0,10.0,0
4.0,-252.0,-27.0,16.0,37.0,9.0,0
4.0,-250.0,-30.0,16.0,38.0,12.0,0
4.0,-249.0,-31.0,15.0,37.0,11.0,0
7.0,-249.0,-34.0,9.0,35.0,11.0,0
3.0,-248.0,-28.0,0.0,35.0,11.0,0
4.0,-250.0,-33.0,-11.0,34.0,9.0,0
3.0,-248.0,-29.0,-22.0,34.0,9.0,0
2.0,-251.0,-29.0,-32.0,33.0,9.0,0
4.0,-253.0,-31.0,-38.0,31.0,8.0,0
2.0,-256.0,-31.0,-39.0,28.0,9.0,0
3.0,-255.0,-33.0,-34.0,29.0,8.0,0
3.0,-255.0,-37.0,-28.0,30.0,6.0,0
0.0,-256.0,-33.0,-25.0,27.0,7.0,0
0.0,-254.0,-31.0,-25.0,22.0,6.0,0
0.0,-255.0,-32.0,-20.0,18.0,6.0,0
2.0,-257.0,-31.0,-15.0,17.0,5.0,0
3.0,-256.0,-30.0,-9.0,17.0,6.0,0
2.0,-257.0,-31.0,-1.0,17.0,4.0,0
2.0,-258.0,-31.0,3.0,16.0,4.0,0
4.0,-260.0,-33.0,8.0,17.0,3.0,0
5.0,-256.0,-27.0,9.0,17.0,5.0,0
4.0,-257.0,-34.0,10.0,23.0,2.0,0
6.0,-258.0,-32.0,10.0,28.0,3.0,0
9.0,-260.0,-26.0,12.0,32.0,2.0,0
5.0,-259.0,-29.0,16.0,37.0,2.0,0
5.0,-255.0,-29.0,17.0,41.0,0.0,0
8.0,-257.0,-28.0,16.0,49.0,0.0,0
8.0,-254.0,-30.0,16.0,52.0,-2.0,0
9.0,-254.0,-29.0,15.0,56.0,-3.0,0
8.0,-255.0,-30.0,18.0,61.0,-3.0,0
8.0,-253.0,-32.0,16.0,65.0,0.0,0
9.0,-253.0,-30.0,15.0,68.0,0.0,0
9.0,-253.0,-35.0,13.0,72.0,2.0,0
7.0,-253.0,-33.0,14.0,77.0,1.0,0
8.0,-257.0,-31.0,12.0,80.0,2.0,0
8.0,-255.0,-31.0,13.0,83.0,-1.0,0
5.0,-254.0,-29.0,14.0,86.0,3.0,0
5.0,-254.0,-35.0,18.0,89.0,1.0,0
6.0,-256.0,-29.0,20.0,94.0,2.0,0
2.0,-254.0,-31.0,20.0,95.0,-1.0,0
2.0,-253.0,-33.0,22.0,98.0,2.0,0
2.0,-252.0,-28.0,22.0,100.0,1.0,0
3.0,-252.0,-31.0,22.0,99.0,5.0,0
2.0,-252.0,-31.0,21.0,98.0,2.0,0
1.0,-254.0,-32.0,19.0,97.0,3.0,0
2.0,-253.0,-29.0,19.0,96.0,2.0,0
-2.0,-253.0,-33.0,18.0,95.0,5.0,0
1.0,-256.0,-30.0,19.0,93.0,3.0,0
-1.0,-249.0,-29.0,19.0,94.0,3.0,0
0.0,-255.0,-31.0,19.0,93.0,2.0,0
-2.0,-255.0,-31.0,22.0,91.0,5.0,0
-2.0,-257.0,-26.0,24.0,89.0,2.0,0
-2.0,-255.0,-31.0,25.0,87.0,5.0,0
-1.0,-257.0,-27.0,25.0,84.0,2.0,0
-2.0,-257.0,-30.0,29.0,81.0,4.0,0
-1.0,-253.0,-31.0,33.0,79.0,2.0,0
2.0,-257.0,-28.0,35.0,74.0,6.0,0
-3.0,-253.0,-33.0,38.0,70.0,4.0,0
-1.0,-255.0,-30.0,41.0,66.0,8.0,0
0.0,-257.0,-31.0,40.0,63.0,5.0,0
0.0,-256.0,-30.0,39.0,59.0,8.0,0
-1.0,-257.0,-29.0,40.0,56.0,6.0,0
-1.0,-255.0,-28.0,38.0,53.0,7.0,0
3.0,-258.0,-29.0,37.0,48.0,5.0,0
0.0,-256.0,-30.0,38.0,45.0,5.0,0
0.0,-255.0,-25.0,35.0,40.0,5.0,0
1.0,-255.0,-28.0,34.0,34.0,5.0,0
-3.0,-255.0,-27.0,31.0,30.0,2.0,0
-2.0,-252.0,-28.0,29.0,26.0,2.0,0
-1.0,-253.0,-33.0,27.0,23.0,-1.0,0
-1.0,-253.0,-31.0,23.0,23.0,1.0,0
-1.0,-252.0,-28.0,21.0,21.0,-1.0,0
-1.0,-252.0,-27.0,18.0,19.0,-1.0,0
-2.0,-256.0,-27.0,16.0,18.0,-3.0,0
1.0,-255.0,-27.0,14.0,16.0,-2.0,0
1.0,-256.0,-27.0,14.0,15.0,-5.0,0
1.0,-257.0,-32.0,15.0,11.0,-3.0,0
0.0,-256.0,-28.0,15.0,11.0,-5.0,0
1.0,-256.0,-27.0,16.0,9.0,-5.0,0
0.0,-254.0,-25.0,17.0,9.0,-5.0,0
2.0,-256.0,-28.0,18.0,11.0,-5.0,0
3.0,-253.0,-25.0,17.0,11.0,-5.0,0
1.0,-253.0,-29.0,16.0,13.0,-4.0,0
4.0,-255.0,-32.0,14.0,17.0,-3.0,0
4.0,-253.0,-29.0,10.0,18.0,-2.0,0
7.0,-259.0,-28.0,5.0,21.0,-1.0,0
3.0,-255.0,-25.0,2.0,25.0,-2.0,0
6.0,-256.0,-25.0,7.0,26.0,-2.0,0
7.0,-257.0,-29.0,15.0,26.0,-3.0,0
1.0,-254.0,-28.0,20.0,25.0,-4.0,0
4.0,-254.0,-25.0,21.0,25.0,-4.0,0
3.0,-254.0,-24.0,21.0,24.0,-4.0,0
5.0,-255.0,-26.0,22.0,24.0,-2.0,0
5.0,-254.0,-29.0,18.0,26.0,-1.0,0
5.0,-256.0,-28.0,19.0,30.0,0.0,0
4.0,-252.0,-31.0,17.0,32.0,0.0,0
3.0,-256.0,-25.0,13.0,33.0,1.0,0
2.0,-254.0,-32.0,9.0,32.0,1.0,0
4.0,-254.0,-26.0,6.0,33.0,1.0,0
4.0,-257.0,-28.0,0.0,33.0,2.0,0
-2.0,-257.0,-24.0,-6.0,35.0,2.0,0
3.0,-257.0,-24.0,-6.0,35.0,3.0,0
1.0,-259.0,-24.0,3.0,34.0,2.0,0
6.0,-258.0,-24.0,18.0,38.0,5.0,0
2.0,-257.0,-25.0,31.0,43.0,1.0,0
1.0,-254.0,-26.0,34.0,42.0,2.0,0
3.0,-255.0,-27.0,33.0,41.0,-1.0,0
2.0,-256.0,-27.0,33.0,40.0,2.0,0
5.0,-256.0,-24.0,36.0,41.0,1.0,0
1.0,-251.0,-27.0,37.0,43.0,1.0,0
5.0,-255.0,-28.0,39.0,41.0,-2.0,0
1.0,-253.0,-27.0,38.0,40.0,-1.0,0
2.0,-254.0,-22.0,36.0,37.0,-3.0,0
2.0,-254.0,-21.0,33.0,38.0,-1.0,0
4.0,-253.0,-26.0,29.0,42.0,-1.0,0
6.0,-254.0,-23.0,27.0,42.0,-3.0,0
0.0,-254.0,-22.0,28.0,43.0,-6.0,0
3.0,-255.0,-21.0,27.0,45.0,-5.0,0
2.0,-255.0,-25.0,26.0,46.0,-6.0,0
5.0,-254.0,-22.0,25.0,48.0,-5.0,0
3.0,-254.0,-21.0,23.0,51.0,-7.0,0
7.0,-255.0,-27.0,21.0,52.0,-4.0,0
4.0,-253.0,-22.0,19.0,52.0,-7.0,0
4.0,-257.0,-24.0,19.0,54.0,-4.0,0
7.0,-255.0,-26.0,13.0,55.0,-6.0,0
2.0,-255.0,-25.0,9.0,54.0,-3.0,0
0.0,-256.0,-26.0,5.0,54.0,-4.0,0
4.0,-256.0,-28.0,4.0,53.0,-2.0,0
1.0,-256.0,-26.0,5.0,49.0,-4.0,0
3.0,-256.0,-28.0,5.0,47.0,-1.0,0
2.0,-256.0,-26.0,7.0,45.0,-3.0,0
1.0,-254.0,-25.0,9.0,45.0,-1.0,0
1.0,-254.0,-25.0,12.0,43.0,-2.0,0
3.0,-255.0,-21.0,12.0,43.0,1.0,0
1.0,-255.0,-23.0,13.0,40.0,0.0,0
3.0,-257.0,-23.0,14.0,40.0,4.0,0
3.0,-256.0,-28.0,17.0,39.0,1.0,0
2.0,-255.0,-25.0,19.0,42.0,3.0,0
1.0,-258.0,-27.0,17.0,43.0,0.0,0
8.0,-253.0,-25.0,18.0,42.0,4.0,0
2.0,-256.0,-24.0,20.0,42.0,1.0,0
0.0,-252.0,-23.0,23.0,42.0,5.0,0
0.0,-255.0,-24.0,23.0,41.0,2.0,0
1.0,-253.0,-25.0,22.0,39.0,1.0,0
-1.0,-253.0,-21.0,22.0,39.0,1.0,0
6.0,-254.0,-27.0,21.0,38.0,3.0,0
4.0,-256.0,-25.0,22.0,38.0,1.0,0
2.0,-254.0,-23.0,23.0,42.0,0.0,0
2.0,-256.0,-25.0,22.0,39.0,-2.0,0
4.0,-256.0,-28.0,20.0,38.0,0.0,0
1.0,-255.0,-25.0,19.0,36.0,-2.0,0
3.0,-257.0,-27.0,16.0,35.0,0.0,0
3.0,-256.0,-24.0,15.0,35.0,-2.0,0
2.0,-259.0,-23.0,14.0,36.0,1.0,0
5.0,-256.0,-24.0,14.0,37.0,-1.0,0
5.0,-253.0,-23.0,15.0,41.0,1.0,0
2.0,-252.0,-23.0,15.0,42.0,-1.0,0
4.0,-254.0,-21.0,19.0,44.0,8.0,0
3.0,-257.0,-24.0,17.0,49.0,1.0,0
3.0,-255.0,-23.0,13.0,45.0,0.0,0
6.0,-255.0,-23.0,8.0,45.0,-2.0,0
4.0,-256.0,-26.0,5.0,45.0,-2.0,0
4.0,-256.0,-25.0,3.0,48.0,-4.0,0
2.0,-257.0,-24.0,2.0,49.0,-3.0,0
2.0,-256.0,-24.0,2.0,49.0,-5.0,0
1.0,-255.0,-23.0,3.0,50.0,-5.0,0
2.0,-256.0,-20.0,4.0,53.0,-4.0,0
3.0,-255.0,-25.0,3.0,54.0,-4.0,0
3.0,-253.0,-30.0,3.0,57.0,-4.0,0
5.0,-254.0,-21.0,2.0,58.0,-4.0,0
5.0,-254.0,-23.0,1.0,58.0,-4.0,0
3.0,-254.0,-25.0,-1.0,58.0,-2.0,0
1.0,-256.0,-28.0,-1.0,57.0,-3.0,0
2.0,-254.0,-26.0,-1.0,57.0,-3.0,0
3.0,-254.0,-26.0,1.0,55.0,-2.0,0
2.0,-256.0,-23.0,0.0,57.0,-2.0,0
4.0,-256.0,-24.0,-2.0,58.0,-1.0,0
3.0,-256.0,-20.0,-2.0,59.0,-3.0,0
1.0,-255.0,-22.0,-2.0,62.0,-3.0,0
0.0,-257.0,-21.0,-1.0,64.0,-4.0,0
4.0,-256.0,-23.0,0.0,66.0,-3.0,0
3.0,-256.0,-23.0,2.0,65.0,-2.0,0
0.0,-257.0,-22.0,4.0,66.0,0.0,0
1.0,-257.0,-21.0,6.0,65.0,-1.0,0
2.0,-256.0,-24.0,9.0,64.0,2.0,0
4.0,-259.0,-22.0,11.0,63.0,1.0,0
2.0,-254.0,-20.0,13.0,62.0,2.0,0
3.0,-253.0,-24.0,14.0,60.0,0.0,0
4.0,-255.0,-25.0,15.0,60.0,2.0,0
3.0,-254.0,-25.0,13.0,57.0,2.0,0
5.0,-254.0,-28.0,5.0,57.0,4.0,0
2.0,-250.0,-25.0,-1.0,58.0,3.0,0
3.0,-253.0,-28.0,-9.0,59.0,2.0,0
1.0,-255.0,-23.0,-16.0,59.0,1.0,0
1.0,-253.0,-19.0,-21.0,61.0,1.0,0
0.0,-259.0,-22.0,-23.0,60.0,-1.0,0
2.0,-257.0,-20.0,-17.0,59.0,0.0,0
1.0,-256.0,-23.0,-6.0,58.0,-3.0,0
2.0,-254.0,-23.0,0.0,61.0,-1.0,0
1.0,-255.0,-26.0,5.0,59.0,-4.0,0
4.0,-256.0,-26.0,3.0,56.0,-2.0,0
3.0,-257.0,-22.0,2.0,56.0,-4.0,0
5.0,-258.0,-24.0,6.0,59.0,-2.0,0
2.0,-255.0,-22.0,9.0,60.0,-4.0,0
1.0,-256.0,-27.0,8.0,59.0,-3.0,0
4.0,-255.0,-20.0,6.0,58.0,-5.0,0
7.0,-256.0,-24.0,4.0,57.0,-3.0,0
5.0,-257.0,-19.0,0.0,60.0,-6.0,0
2.0,-256.0,-23.0,-2.0,61.0,-3.0,0
6.0,-255.0,-25.0,0.0,63.0,-4.0,0
3.0,-256.0,-22.0,2.0,65.0,-1.0,0
2.0,-256.0,-19.0,3.0,66.0,-4.0,0
4.0,-255.0,-26.0,5.0,66.0,-1.0,0
4.0,-256.0,-23.0,6.0,66.0,-3.0,0
3.0,-253.0,-19.0,5.0,67.0,0.0,0
4.0,-255.0,-22.0,4.0,68.0,-3.0,0
3.0,-255.0,-24.0,1.0,67.0,0.0,0
3.0,-256.0,-20.0,0.0,67.0,-1.0,0
5.0,-257.0,-23.0,-1.0,67.0,2.0,0
0.0,-254.0,-23.0,-2.0,68.0,0.0,0
3.0,-255.0,-22.0,-3.0,70.0,2.0,0
2.0,-256.0,-21.0,-2.0,70.0,1.0,0
2.0,-255.0,-23.0,0.0,70.0,4.0,0
4.0,-256.0,-21.0,0.0,71.0,1.0,0
2.0,-255.0,-23.0,1.0,71.0,4.0,0
4.0,-254.0,-19.0,3.0,71.0,1.0,0
4.0,-254.0,-23.0,4.0,71.0,4.0,0
1.0,-253.0,-20.0,7.0,71.0,2.0,0
4.0,-254.0,-19.0,8.0,72.0,5.0,0
1.0,-253.0,-19.0,7.0,71.0,3.0,0
4.0,-254.0,-18.0,8.0,69.0,4.0,0
4.0,-258.0,-23.0,7.0,70.0,3.0,0
1.0,-254.0,-21.0,6.0,69.0,3.0,0
3.0,-255.0,-23.0,5.0,68.0,2.0,0
3.0,-252.0,-21.0,3.0,67.0,2.0,0
-3.0,-254.0,-25.0,1.0,65.0,1.0,0
3.0,-256.0,-21.0,-2.0,63.0,3.0,0
4.0,-257.0,-23.0,-4.0,61.0,0.0,0
2.0,-255.0,-21.0,-1.0,62.0,2.0,0
3.0,-252.0,-24.0,1.0,59.0,1.0,0
2.0,-255.0,-25.0,3.0,59.0,2.0,0
-1.0,-255.0,-22.0,3.0,59.0,0.0,0
-1.0,-255.0,-25.0,2.0,58.0,2.0,0
-2.0,-254.0,-26.0,2.0,59.0,0.0,0
3.0,-258.0,-19.0,2.0,60.0,1.0,0
-1.0,-253.0,-24.0,3.0,61.0,2.0,0
0.0,-256.0,-23.0,3.0,62.0,2.0,0
3.0,-256.0,-23.0,3.0,64.0,1.0,0
3.0,-255.0,-23.0,3.0,63.0,2.0,0
3.0,-257.0,-22.0,3.0,64.0,1.0,0
1.0,-255.0,-22.0,3.0,63.0,0.0,0
2.0,-254.0,-16.0,0.0,62.0,1.0,0
1.0,-257.0,-20.0,-2.0,60.0,-1.0,0
2.0,-256.0,-24.0,-4.0,60.0,0.0,0
3.0,-256.0,-20.0,-4.0,61.0,-1.0,0
4.0,-255.0,-21.0,-2.0,60.0,-1.0,0
0.0,-256.0,-21.0,-1.0,60.0,-1.0,0
3.0,-256.0,-21.0,1.0,58.0,-2.0,0
4.0,-257.0,-15.0,0.0,58.0,-3.0,0
3.0,-258.0,-22.0,-1.0,57.0,-2.0,0
3.0,-257.0,-19.0,-2.0,59.0,-3.0,0
2.0,-256.0,-21.0,-1.0,59.0,-1.0,0
