ax,ay,az,gx,gy,gz,label
8.0,-251.0,-43.0,-55.0,74.0,-8.0,0
12.0,-253.0,-44.0,-57.0,72.0,-8.0,0
11.0,-249.0,-44.0,-59.0,70.0,-8.0,0
9.0,-252.0,-40.0,-60.0,66.0,-7.0,0
9.0,-250.0,-45.0,-64.0,64.0,-7.0,0
17.0,-252.0,-34.0,-68.0,58.0,-5.0,0
8.0,-250.0,-41.0,-71.0,52.0,-5.0,0
11.0,-253.0,-38.0,-71.0,48.0,-5.0,0
12.0,-250.0,-41.0,-67.0,49.0,-7.0,0
9.0,-249.0,-43.0,-62.0,51.0,-7.0,0
9.0,-251.0,-42.0,-54.0,52.0,-8.0,0
8.0,-245.0,-46.0,-52.0,53.0,-10.0,0
12.0,-249.0,-43.0,-54.0,54.0,-11.0,0
15.0,-252.0,-43.0,-60.0,56.0,-10.0,0
8.0,-250.0,-41.0,-61.0,59.0,-9.0,0
21.0,-254.0,-39.0,-59.0,63.0,-10.0,0
12.0,-265.0,-29.0,-55.0,68.0,-10.0,0
10.0,-252.0,-41.0,-52.0,69.0,-9.0,0
10.0,-251.0,-38.0,-49.0,67.0,-8.0,0
8.0,-251.0,-39.0,-48.0,65.0,-7.0,0
6.0,-251.0,-41.0,-47.0,62.0,-6.0,0
8.0,-253.0,-41.0,-45.0,59.0,-4.0,0
8.0,-254.0,-40.0,-42.0,56.0,-3.0,0
12.0,-252.0,-40.0,-42.0,52.0,-3.0,0
10.0,-254.0,-37.0,-44.0,49.0,-4.0,0
12.0,-249.0,-43.0,-45.0,48.0,-4.0,0
-3.0,-245.0,-55.0,-47.0,46.0,-3.0,0
13.0,-251.0,-44.0,-50.0,45.0,-3.0,0
11.0,-249.0,-43.0,-52.0,45.0,-5.0,0
12.0,-250.0,-43.0,-51.0,45.0,-4.0,0
13.0,-251.0,-41.0,-48.0,47.0,-5.0,0
12.0,-250.0,-47.0,-45.0,50.0,-3.0,0
13.0,-251.0,-42.0,-42.0,54.0,-5.0,0
14.0,-247.0,-47.0,-39.0,58.0,-5.0,0
14.0,-250.0,-41.0,-39.0,61.0,-7.0,0
9.0,-249.0,-42.0,-40.0,64.0,-7.0,0
12.0,-249.0,-38.0,-40.0,65.0,-8.0,0
4.0,-254.0,-31.0,-40.0,66.0,-7.0,0
11.0,-251.0,-42.0,-41.0,66.0,-8.0,0
11.0,-251.0,-41.0,-42.0,67.0,-8.0,0
11.0,-252.0,-41.0,-44.0,66.0,-9.0,0
13.0,-254.0,-43.0,-46.0,63.0,-8.0,0
11.0,-253.0,-46.0,-46.0,60.0,-7.0,0
9.0,-253.0,-42.0,-47.0,58.0,-5.0,0
10.0,-252.0,-41.0,-49.0,53.0,-5.0,0
11.0,-249.0,-44.0,-48.0,49.0,-4.0,0
11.0,-250.0,-45.0,-47.0,48.0,-3.0,0
11.0,-251.0,-43.0,-46.0,47.0,-3.0,0
22.0,-256.0,-47.0,-45.0,49.0,-2.0,0
11.0,-252.0,-47.0,-43.0,50.0,-4.0,0
14.0,-248.0,-46.0,-41.0,54.0,-5.0,0
14.0,-250.0,-45.0,-38.0,55.0,-4.0,0
11.0,-251.0,-46.0,-35.0,55.0,-5.0,0
13.0,-248.0,-47.0,-29.0,55.0,-6.0,0
9.0,-247.0,-48.0,-25.0,56.0,-6.0,0
12.0,-250.0,-42.0,-22.0,57.0,-7.0,0
14.0,-251.0,-47.0,-21.0,59.0,-7.0,0
13.0,-251.0,-48.0,-20.0,59.0,-8.0,0
14.0,-261.0,-46.0,-19.0,60.0,-8.0,0
-5.0,-246.0,-30.0,-18.0,61.0,-9.0,0
8.0,-250.0,-41.0,-13.0,62.0,-10.0,0
10.0,-251.0,-45.0,-10.0,63.0,-10.0,0
10.0,-248.0,-43.0,-8.0,64.0,-10.0,0
10.0,-252.0,-45.0,-5.0,64.0,-9.0,0
13.0,-251.0,-46.0,-5.0,64.0,-9.0,0
12.0,-251.0,-45.0,-5.0,63.0,-9.0,0
10.0,-251.0,-43.0,-5.0,62.0,-8.0,0
16.0,-251.0,-48.0,-8.0,61.0,-7.0,0
12.0,-251.0,-42.0,-9.0,58.0,-6.0,0
12.0,-254.0,-45.0,-11.0,58.0,-6.0,0
10.0,-247.0,-41.0,-12.0,58.0,-5.0,0
10.0,-250.0,-42.0,-12.0,56.0,-5.0,0
15.0,-251.0,-45.0,-14.0,54.0,-5.0,0
11.0,-251.0,-42.0,-13.0,54.0,-4.0,0
9.0,-247.0,-41.0,-11.0,54.0,-5.0,0
13.0,-252.0,-45.0,-8.0,55.0,-5.0,0
11.0,-248.0,-45.0,-7.0,55.0,-4.0,0
11.0,-253.0,-45.0,-6.0,57.0,-5.0,0
12.0,-250.0,-42.0,-5.0,57.0,-6.0,0
9.0,-252.0,-46.0,-5.0,55.0,-7.0,0
10.0,-252.0,-44.0,-4.0,56.0,-8.0,0
12.0,-248.0,-50.0,-5.0,58.0,-7.0,0
9.0,-249.0,-45.0,-7.0,58.0,-9.0,0
9.0,-250.0,-48.0,-9.0,58.0,-10.0,0
11.0,-249.0,-41.0,-11.0,62.0,-10.0,0
12.0,-252.0,-45.0,-12.0,61.0,-9.0,0
12.0,-254.0,-44.0,-11.0,60.0,-8.0,0
10.0,-251.0,-44.0,-11.0,61.0,-8.0,0
11.0,-249.0,-41.0,-12.0,61.0,-7.0,0
12.0,-253.0,-42.0,-12.0,59.0,-7.0,0
9.0,-253.0,-43.0,-12.0,58.0,-6.0,0
11.0,-251.0,-45.0,-12.0,56.0,-6.0,0
22.0,-246.0,-49.0,-11.0,53.0,-5.0,0
14.0,-253.0,-45.0,-7.0,51.0,-5.0,0
15.0,-250.0,-45.0,-4.0,50.0,-6.0,0
14.0,-250.0,-45.0,-3.0,51.0,-5.0,0
13.0,-246.0,-44.0,-1.0,50.0,-6.0,0
14.0,-249.0,-39.0,0.0,49.0,-6.0,0
13.0,-249.0,-38.0,-5.0,49.0,-5.0,0
13.0,-249.0,-42.0,-11.0,50.0,-6.0,0
13.0,-249.0,-44.0,-20.0,51.0,-6.0,0
12.0,-250.0,-43.0,-26.0,54.0,-7.0,0
10.0,-252.0,-43.0,-32.0,55.0,-8.0,0
1.0,-260.0,-35.0,-32.0,55.0,-7.0,0
11.0,-252.0,-39.0,-29.0,56.0,-7.0,0
9.0,-248.0,-46.0,-27.0,56.0,-5.0,0
9.0,-250.0,-41.0,-25.0,57.0,-5.0,0
8.0,-249.0,-41.0,-24.0,55.0,-5.0,0
12.0,-254.0,-42.0,-24.0,55.0,-4.0,0
13.0,-254.0,-48.0,-22.0,56.0,-6.0,0
16.0,-249.0,-47.0,-21.0,57.0,-7.0,0
10.0,-249.0,-46.0,-17.0,59.0,-9.0,0
17.0,-248.0,-44.0,-13.0,58.0,-7.0,0
-5.0,-255.0,-56.0,-8.0,58.0,-8.0,0
14.0,-249.0,-47.0,-5.0,57.0,-10.0,0
14.0,-253.0,-43.0,-3.0,59.0,-9.0,0
13.0,-250.0,-45.0,0.0,62.0,-8.0,0
12.0,-255.0,-39.0,5.0,63.0,-8.0,0
11.0,-251.0,-42.0,10.0,66.0,-8.0,0
10.0,-251.0,-39.0,14.0,69.0,-8.0,0
12.0,-250.0,-40.0,17.0,73.0,-9.0,0
15.0,-250.0,-41.0,19.0,74.0,-9.0,0
13.0,-249.0,-42.0,21.0,77.0,-9.0,0
9.0,-252.0,-40.0,19.0,76.0,-9.0,0
17.0,-239.0,-56.0,14.0,74.0,-10.0,0
11.0,-249.0,-41.0,9.0,71.0,-8.0,0
12.0,-251.0,-46.0,2.0,69.0,-7.0,0
10.0,-250.0,-42.0,-4.0,64.0,-7.0,0
8.0,-250.0,-43.0,-8.0,62.0,-6.0,0
13.0,-252.0,-46.0,-13.0,60.0,-5.0,0
9.0,-252.0,-43.0,-15.0,55.0,-4.0,0
11.0,-251.0,-52.0,-17.0,54.0,-3.0,0
12.0,-253.0,-40.0,-15.0,54.0,-2.0,0
8.0,-251.0,-41.0,-13.0,53.0,-1.0,0
15.0,-252.0,-42.0,-11.0,55.0,-2.0,0
13.0,-252.0,-39.0,-10.0,58.0,-1.0,0
11.0,-250.0,-44.0,-9.0,56.0,-2.0,0
12.0,-247.0,-41.0,-8.0,58.0,-4.0,0
11.0,-252.0,-45.0,-8.0,61.0,-5.0,0
10.0,-248.0,-41.0,-9.0,63.0,-6.0,0
10.0,-251.0,-38.0,-8.0,66.0,-7.0,0
10.0,-251.0,-41.0,-5.0,66.0,-9.0,0
4.0,-251.0,-43.0,-3.0,66.0,-8.0,0
10.0,-253.0,-43.0,-2.0,64.0,-8.0,0
10.0,-251.0,-43.0,0.0,61.0,-7.0,0
12.0,-252.0,-40.0,-5.0,60.0,-5.0,0
15.0,-247.0,-42.0,-7.0,58.0,-5.0,0
8.0,-250.0,-40.0,-11.0,57.0,-6.0,0
9.0,-250.0,-44.0,-14.0,53.0,-4.0,0
13.0,-253.0,-43.0,-14.0,53.0,-4.0,0
9.0,-251.0,-42.0,-12.0,51.0,-3.0,0
12.0,-252.0,-42.0,-6.0,50.0,-4.0,0
8.0,-249.0,-42.0,0.0,48.0,-4.0,0
16.0,-250.0,-45.0,4.0,48.0,-6.0,0
11.0,-250.0,-46.0,7.0,48.0,-5.0,0
13.0,-253.0,-50.0,9.0,50.0,-6.0,0
14.0,-254.0,-43.0,11.0,50.0,-8.0,0
9.0,-251.0,-36.0,10.0,53.0,-8.0,0
11.0,-250.0,-47.0,12.0,55.0,-8.0,0
12.0,-250.0,-45.0,15.0,57.0,-8.0,0
12.0,-253.0,-45.0,18.0,60.0,-9.0,0
10.0,-252.0,-39.0,23.0,63.0,-10.0,0
13.0,-252.0,-38.0,25.0,63.0,-9.0,0
13.0,-248.0,-42.0,26.0,64.0,-9.0,0
12.0,-249.0,-42.0,26.0,63.0,-8.0,0
16.0,-249.0,-44.0,26.0,61.0,-8.0,0
10.0,-252.0,-37.0,21.0,62.0,-8.0,0
10.0,-247.0,-41.0,18.0,60.0,-8.0,0
0.0,-247.0,-46.0,16.0,62.0,-9.0,0
11.0,-251.0,-44.0,17.0,63.0,-8.0,0
10.0,-250.0,-40.0,17.0,67.0,-9.0,0
11.0,-252.0,-43.0,17.0,68.0,-8.0,0
9.0,-250.0,-42.0,16.0,67.0,-9.0,0
13.0,-251.0,-40.0,17.0,67.0,-9.0,0
10.0,-254.0,-44.0,18.0,66.0,-10.0,0
12.0,-251.0,-41.0,19.0,64.0,-9.0,0
10.0,-250.0,-43.0,22.0,63.0,-10.0,0
10.0,-248.0,-41.0,23.0,63.0,-10.0,0
9.0,-251.0,-35.0,26.0,62.0,-10.0,0
22.0,-237.0,-48.0,28.0,64.0,-10.0,0
12.0,-252.0,-39.0,27.0,66.0,-10.0,0
14.0,-248.0,-38.0,27.0,68.0,-10.0,0
12.0,-249.0,-42.0,24.0,70.0,-9.0,0
13.0,-251.0,-42.0,24.0,72.0,-10.0,0
12.0,-250.0,-39.0,22.0,73.0,-8.0,0
9.0,-252.0,-41.0,20.0,73.0,-8.0,0
11.0,-252.0,-35.0,20.0,73.0,-9.0,0
9.0,-251.0,-41.0,21.0,73.0,-8.0,0
12.0,-250.0,-43.0,20.0,73.0,-8.0,0
17.0,-250.0,-46.0,17.0,72.0,-8.0,0
18.0,-246.0,-41.0,14.0,71.0,-8.0,0
11.0,-250.0,-41.0,15.0,67.0,-8.0,0
10.0,-250.0,-39.0,14.0,67.0,-7.0,0
10.0,-255.0,-39.0,16.0,67.0,-7.0,0
11.0,-253.0,-39.0,15.0,67.0,-6.0,0
12.0,-251.0,-40.0,19.0,69.0,-8.0,0
13.0,-250.0,-39.0,20.0,71.0,-9.0,0
15.0,-253.0,-42.0,21.0,72.0,-10.0,0
13.0,-254.0,-41.0,25.0,73.0,-10.0,0
11.0,-249.0,-42.0,26.0,74.0,-11.0,0
13.0,-251.0,-42.0,26.0,73.0,-10.0,0
19.0,-246.0,-55.0,24.0,72.0,-10.0,0
11.0,-250.0,-37.0,19.0,72.0,-8.0,0
13.0,-252.0,-41.0,13.0,70.0,-9.0,0
10.0,-251.0,-42.0,8.0,69.0,-8.0,0
10.0,-249.0,-39.0,6.0,67.0,-10.0,0
9.0,-251.0,-40.0,7.0,64.0,-8.0,0
10.0,-247.0,-35.0,8.0,62.0,-6.0,0
10.0,-251.0,-37.0,8.0,60.0,-7.0,0
7.0,-251.0,-38.0,9.0,58.0,-6.0,0
14.0,-252.0,-43.0,9.0,58.0,-7.0,0
15.0,-236.0,-53.0,10.0,58.0,-8.0,0
10.0,-247.0,-40.0,10.0,60.0,-11.0,0
12.0,-249.0,-42.0,12.0,59.0,-11.0,0
8.0,-249.0,-40.0,15.0,59.0,-11.0,0
12.0,-250.0,-42.0,15.0,59.0,-11.0,0
12.0,-253.0,-41.0,15.0,59.0,-11.0,0
11.0,-253.0,-37.0,19.0,60.0,-10.0,0
19.0,-254.0,-45.0,22.0,63.0,-11.0,0
11.0,-249.0,-43.0,27.0,65.0,-10.0,0
11.0,-254.0,-38.0,31.0,68.0,-10.0,0
13.0,-255.0,-34.0,35.0,69.0,-10.0,0
6.0,-252.0,-35.0,37.0,72.0,-9.0,0
10.0,-249.0,-38.0,39.0,72.0,-9.0,0
13.0,-250.0,-37.0,37.0,70.0,-7.0,0
12.0,-251.0,-36.0,35.0,67.0,-6.0,0
9.0,-249.0,-37.0,30.0,64.0,-7.0,0
15.0,-249.0,-37.0,24.0,62.0,-7.0,0
10.0,-250.0,-35.0,19.0,60.0,-8.0,0
12.0,-251.0,-37.0,15.0,58.0,-8.0,0
12.0,-246.0,-42.0,10.0,57.0,-8.0,0
13.0,-250.0,-39.0,8.0,57.0,-7.0,0
10.0,-251.0,-38.0,6.0,58.0,-6.0,0
9.0,-246.0,-51.0,8.0,58.0,-7.0,0
9.0,-253.0,-35.0,9.0,59.0,-5.0,0
11.0,-252.0,-38.0,11.0,62.0,-7.0,0
11.0,-251.0,-37.0,13.0,65.0,-6.0,0
10.0,-251.0,-39.0,17.0,67.0,-9.0,0
11.0,-253.0,-42.0,19.0,68.0,-9.0,0
11.0,-254.0,-39.0,20.0,67.0,-10.0,0
11.0,-252.0,-37.0,20.0,65.0,-11.0,0
9.0,-253.0,-40.0,19.0,63.0,-11.0,0
9.0,-254.0,-33.0,19.0,61.0,-9.0,0
13.0,-250.0,-41.0,18.0,59.0,-9.0,0
4.0,-250.0,-38.0,16.0,55.0,-8.0,0
12.0,-251.0,-41.0,14.0,54.0,-7.0,0
9.0,-252.0,-39.0,12.0,50.0,-7.0,0
10.0,-252.0,-41.0,9.0,48.0,-5.0,0
9.0,-250.0,-36.0,7.0,46.0,-5.0,0
16.0,-251.0,-40.0,7.0,45.0,-3.0,0
12.0,-249.0,-43.0,7.0,44.0,-5.0,0
12.0,-251.0,-40.0,7.0,41.0,-6.0,0
12.0,-249.0,-37.0,6.0,42.0,-6.0,0
11.0,-253.0,-38.0,5.0,43.0,-6.0,0
15.0,-246.0,-43.0,4.0,45.0,-7.0,0
3.0,-253.0,-24.0,3.0,47.0,-9.0,0
12.0,-249.0,-37.0,2.0,48.0,-8.0,0
11.0,-253.0,-37.0,4.0,48.0,-7.0,0
17.0,-252.0,-42.0,3.0,49.0,-8.0,0
14.0,-251.0,-37.0,2.0,50.0,-8.0,0
10.0,-246.0,-36.0,2.0,51.0,-7.0,0
13.0,-254.0,-38.0,-1.0,52.0,-8.0,0
11.0,-255.0,-35.0,-2.0,53.0,-8.0,0
14.0,-251.0,-41.0,-3.0,53.0,-8.0,0
15.0,-253.0,-33.0,-4.0,52.0,-8.0,0
7.0,-253.0,-46.0,-5.0,55.0,-8.0,0
10.0,-244.0,-48.0,-6.0,55.0,-7.0,0
15.0,-249.0,-38.0,-9.0,57.0,-9.0,0
13.0,-250.0,-40.0,-7.0,59.0,-7.0,0
12.0,-253.0,-38.0,-8.0,61.0,-7.0,0
13.0,-253.0,-38.0,-8.0,60.0,-7.0,0
12.0,-250.0,-38.0,-8.0,60.0,-5.0,0
12.0,-253.0,-40.0,-6.0,62.0,-5.0,0
17.0,-251.0,-38.0,-3.0,61.0,-5.0,0
11.0,-253.0,-37.0,-1.0,60.0,-6.0,0
12.0,-254.0,-36.0,0.0,63.0,-6.0,0
11.0,-250.0,-36.0,3.0,62.0,-4.0,0
14.0,-239.0,-44.0,3.0,65.0,-4.0,0
13.0,-252.0,-34.0,4.0,64.0,-5.0,0
15.0,-252.0,-38.0,3.0,64.0,-6.0,0
14.0,-251.0,-38.0,2.0,64.0,-5.0,0
12.0,-249.0,-34.0,0.0,65.0,-5.0,0
13.0,-250.0,-36.0,-2.0,65.0,-5.0,0
11.0,-247.0,-37.0,-3.0,65.0,-5.0,0
17.0,-251.0,-32.0,-4.0,65.0,-5.0,0
12.0,-248.0,-35.0,-5.0,65.0,-7.0,0
6.0,-250.0,-36.0,-5.0,63.0,-5.0,0
10.0,-253.0,-40.0,-6.0,62.0,-6.0,0
9.0,-251.0,-40.0,-6.0,63.0,-4.0,0
14.0,-251.0,-34.0,-6.0,65.0,-4.0,0
11.0,-251.0,-37.0,-4.0,65.0,-5.0,0
11.0,-252.0,-36.0,-5.0,64.0,-5.0,0
11.0,-252.0,-36.0,-6.0,62.0,-5.0,0
11.0,-252.0,-37.0,-5.0,61.0,-5.0,0
12.0,-253.0,-39.0,-4.0,59.0,-5.0,0
11.0,-252.0,-38.0,-2.0,56.0,-4.0,0
8.0,-250.0,-35.0,-1.0,53.0,-3.0,0
13.0,-250.0,-35.0,0.0,51.0,-3.0,0
14.0,-252.0,-36.0,3.0,49.0,-4.0,0
19.0,-246.0,-42.0,5.0,49.0,-2.0,0
11.0,-249.0,-38.0,7.0,49.0,-4.0,0
13.0,-251.0,-37.0,6.0,48.0,-5.0,0
13.0,-250.0,-36.0,3.0,49.0,-5.0,0
11.0,-249.0,-34.0,-3.0,50.0,-6.0,0
11.0,-247.0,-36.0,-11.0,48.0,-6.0,0
12.0,-250.0,-39.0,-18.0,48.0,-7.0,0
9.0,-253.0,-34.0,-21.0,48.0,-6.0,0
12.0,-253.0,-34.0,-23.0,46.0,-5.0,0
10.0,-250.0,-36.0,-23.0,47.0,-4.0,0
14.0,-254.0,-34.0,-23.0,48.0,-2.0,0
7.0,-248.0,-39.0,-22.0,50.0,-3.0,0
10.0,-249.0,-34.0,-19.0,50.0,-3.0,0
16.0,-253.0,-36.0,-16.0,49.0,-4.0,0
12.0,-254.0,-34.0,-12.0,49.0,-5.0,0
14.0,-251.0,-36.0,-8.0,47.0,-5.0,0
15.0,-249.0,-36.0,-6.0,46.0,-5.0,0
14.0,-250.0,-39.0,-7.0,47.0,-4.0,0
11.0,-244.0,-39.0,-13.0,46.0,-4.0,0
15.0,-251.0,-38.0,-19.0,48.0,-5.0,0
17.0,-255.0,-39.0,-23.0,53.0,-5.0,0
20.0,-247.0,-39.0,-23.0,58.0,-6.0,0
11.0,-251.0,-36.0,-23.0,63.0,-6.0,0
11.0,-254.0,-33.0,-21.0,66.0,-5.0,0
9.0,-254.0,-30.0,-20.0,68.0,-5.0,0
9.0,-254.0,-30.0,-18.0,68.0,-5.0,0
13.0,-254.0,-34.0,-14.0,65.0,-5.0,0
12.0,-253.0,-34.0,-10.0,63.0,-5.0,0
12.0,-256.0,-31.0,-7.0,60.0,-5.0,0
10.0,-254.0,-35.0,-5.0,57.0,-5.0,0
15.0,-250.0,-34.0,-7.0,58.0,-4.0,0
8.0,-246.0,-34.0,-10.0,58.0,-5.0,0
11.0,-242.0,-48.0,-15.0,57.0,-5.0,0
13.0,-251.0,-33.0,-20.0,54.0,-5.0,0
13.0,-248.0,-36.0,-25.0,53.0,-5.0,0
11.0,-250.0,-34.0,-28.0,49.0,-3.0,0
11.0,-249.0,-37.0,-30.0,50.0,-3.0,0
10.0,-250.0,-40.0,-29.0,51.0,-2.0,0
9.0,-252.0,-37.0,-30.0,52.0,-4.0,0
12.0,-253.0,-31.0,-27.0,53.0,-4.0,0
12.0,-254.0,-34.0,-25.0,53.0,-3.0,0
11.0,-252.0,-34.0,-24.0,53.0,-4.0,0
15.0,-253.0,-38.0,-21.0,52.0,-3.0,0
5.0,-253.0,-62.0,-19.0,51.0,-2.0,0
11.0,-250.0,-38.0,-19.0,48.0,-1.0,0
11.0,-251.0,-37.0,-18.0,46.0,0.0,0
12.0,-253.0,-37.0,-17.0,45.0,1.0,0
14.0,-251.0,-38.0,-17.0,46.0,2.0,0
11.0,-250.0,-40.0,-17.0,47.0,0.0,0
13.0,-251.0,-34.0,-16.0,46.0,2.0,0
12.0,-252.0,-39.0,-16.0,45.0,1.0,0
14.0,-250.0,-39.0,-19.0,48.0,-2.0,0
13.0,-249.0,-37.0,-20.0,49.0,-4.0,0
13.0,-248.0,-42.0,-22.0,50.0,-5.0,0
14.0,-254.0,-34.0,-24.0,53.0,-6.0,0
13.0,-249.0,-39.0,-27.0,55.0,-7.0,0
10.0,-249.0,-35.0,-28.0,59.0,-8.0,0
13.0,-253.0,-39.0,-28.0,58.0,-8.0,0
13.0,-252.0,-33.0,-29.0,59.0,-7.0,0
12.0,-254.0,-34.0,-28.0,57.0,-6.0,0
13.0,-252.0,-37.0,-26.0,57.0,-5.0,0
12.0,-253.0,-33.0,-22.0,57.0,-4.0,0
9.0,-251.0,-36.0,-18.0,56.0,-3.0,0
12.0,-253.0,-33.0,-16.0,56.0,-4.0,0
9.0,-246.0,-38.0,-16.0,54.0,-4.0,0
8.0,-254.0,-43.0,-17.0,53.0,-4.0,0
8.0,-248.0,-34.0,-18.0,54.0,-3.0,0
12.0,-249.0,-36.0,-23.0,54.0,-4.0,0
12.0,-248.0,-38.0,-25.0,52.0,-5.0,0
11.0,-252.0,-37.0,-29.0,52.0,-5.0,0
8.0,-250.0,-35.0,-33.0,52.0,-5.0,0
9.0,-250.0,-36.0,-36.0,52.0,-6.0,0
13.0,-250.0,-43.0,-36.0,52.0,-5.0,0
8.0,-250.0,-40.0,-37.0,54.0,-6.0,0
7.0,-252.0,-40.0,-35.0,54.0,-7.0,0
9.0,-252.0,-40.0,-31.0,56.0,-8.0,0
9.0,-261.0,-33.0,-24.0,56.0,-7.0,0
11.0,-254.0,-39.0,-17.0,57.0,-6.0,0
11.0,-252.0,-40.0,-10.0,55.0,-6.0,0
13.0,-252.0,-35.0,-4.0,54.0,-5.0,0
11.0,-252.0,-38.0,2.0,53.0,-4.0,0
12.0,-250.0,-38.0,6.0,53.0,-5.0,0
12.0,-249.0,-33.0,8.0,54.0,-4.0,0
11.0,-250.0,-33.0,13.0,55.0,-4.0,0
12.0,-252.0,-40.0,17.0,56.0,-4.0,0
14.0,-254.0,-37.0,22.0,56.0,-3.0,0
9.0,-255.0,-37.0,29.0,56.0,-4.0,0
19.0,-247.0,-47.0,35.0,57.0,-5.0,0
11.0,-253.0,-37.0,43.0,60.0,-7.0,0
13.0,-254.0,-39.0,50.0,62.0,-7.0,0
13.0,-252.0,-38.0,55.0,66.0,-8.0,0
11.0,-250.0,-40.0,58.0,70.0,-9.0,0
13.0,-252.0,-37.0,57.0,75.0,-8.0,0
10.0,-249.0,-42.0,54.0,77.0,-9.0,0
12.0,-249.0,-35.0,48.0,79.0,-8.0,0
9.0,-249.0,-35.0,40.0,80.0,-9.0,0
16.0,-250.0,-41.0,31.0,79.0,-9.0,0
4.0,-246.0,-38.0,22.0,79.0,-7.0,0
30.0,-256.0,-36.0,14.0,77.0,-8.0,0
11.0,-251.0,-33.0,10.0,74.0,-7.0,0
12.0,-251.0,-32.0,8.0,71.0,-7.0,0
13.0,-252.0,-33.0,12.0,69.0,-7.0,0
12.0,-249.0,-31.0,16.0,67.0,-6.0,0
13.0,-249.0,-36.0,16.0,68.0,-6.0,0
13.0,-247.0,-37.0,16.0,68.0,-6.0,0
14.0,-249.0,-36.0,9.0,69.0,-7.0,0
12.0,-249.0,-31.0,-2.0,68.0,-6.0,0
9.0,-250.0,-36.0,-11.0,68.0,-7.0,0
13.0,-253.0,-35.0,-20.0,68.0,-6.0,0
21.0,-253.0,-35.0,-24.0,66.0,-6.0,0
10.0,-252.0,-38.0,-29.0,63.0,-6.0,0
10.0,-250.0,-35.0,-34.0,62.0,-3.0,0
9.0,-251.0,-34.0,-35.0,61.0,-2.0,0
9.0,-251.0,-33.0,-38.0,58.0,-2.0,0
10.0,-251.0,-32.0,-41.0,55.0,-2.0,0
13.0,-252.0,-31.0,-40.0,52.0,-1.0,0
12.0,-253.0,-39.0,-40.0,53.0,-2.0,0
15.0,-249.0,-37.0,-37.0,53.0,-3.0,0
11.0,-254.0,-40.0,-33.0,53.0,-3.0,0
9.0,-248.0,-56.0,-30.0,52.0,-4.0,0
11.0,-250.0,-43.0,-28.0,53.0,-6.0,0
12.0,-248.0,-41.0,-30.0,55.0,-5.0,0
7.0,-252.0,-39.0,-30.0,59.0,-4.0,0
9.0,-252.0,-36.0,-27.0,64.0,-5.0,0
11.0,-251.0,-37.0,-25.0,68.0,-5.0,0
11.0,-251.0,-38.0,-26.0,72.0,-4.0,0
10.0,-252.0,-37.0,-26.0,73.0,-4.0,0
10.0,-248.0,-36.0,-31.0,72.0,-3.0,0
11.0,-250.0,-36.0,-34.0,69.0,-2.0,0
9.0,-251.0,-31.0,-38.0,62.0,-1.0,0
17.0,-254.0,-49.0,-42.0,58.0,-1.0,0
10.0,-250.0,-38.0,-44.0,53.0,1.0,0
13.0,-251.0,-34.0,-45.0,48.0,0.0,0
12.0,-253.0,-37.0,-46.0,46.0,2.0,0
8.0,-252.0,-39.0,-47.0,44.0,2.0,0
13.0,-250.0,-38.0,-45.0,43.0,0.0,0
11.0,-251.0,-37.0,-44.0,42.0,0.0,0
11.0,-252.0,-36.0,-42.0,43.0,2.0,0
13.0,-250.0,-36.0,-40.0,46.0,1.0,0
11.0,-248.0,-42.0,-40.0,49.0,0.0,0
9.0,-252.0,-42.0,-38.0,51.0,-2.0,0
7.0,-264.0,-32.0,-37.0,56.0,-3.0,0
12.0,-253.0,-38.0,-38.0,60.0,-3.0,0
9.0,-252.0,-34.0,-40.0,62.0,-4.0,0
11.0,-248.0,-38.0,-40.0,62.0,-4.0,0
16.0,-251.0,-39.0,-42.0,61.0,-5.0,0
8.0,-251.0,-35.0,-46.0,62.0,-5.0,0
9.0,-250.0,-35.0,-49.0,63.0,-5.0,0
10.0,-250.0,-39.0,-54.0,62.0,-6.0,0
11.0,-253.0,-38.0,-56.0,62.0,-6.0,0
16.0,-252.0,-37.0,-57.0,60.0,-7.0,0
15.0,-250.0,-42.0,-57.0,60.0,-6.0,0
15.0,-255.0,-36.0,-58.0,57.0,-6.0,0
11.0,-251.0,-34.0,-58.0,56.0,-5.0,0
11.0,-249.0,-35.0,-59.0,55.0,-3.0,0
9.0,-250.0,-37.0,-58.0,55.0,-5.0,0
13.0,-252.0,-39.0,-57.0,55.0,-5.0,0
10.0,-250.0,-41.0,-61.0,56.0,-4.0,0
11.0,-253.0,-39.0,-61.0,59.0,-7.0,0
12.0,-252.0,-41.0,-65.0,59.0,-7.0,0
15.0,-249.0,-37.0,-64.0,63.0,-8.0,0
11.0,-254.0,-39.0,-66.0,64.0,-10.0,0
11.0,-251.0,-34.0,-65.0,64.0,-9.0,0
2.0,-257.0,-27.0,-64.0,64.0,-9.0,0
9.0,-248.0,-36.0,-64.0,62.0,-8.0,0
11.0,-252.0,-36.0,-62.0,63.0,-7.0,0
8.0,-249.0,-38.0,-62.0,62.0,-8.0,0
9.0,-252.0,-32.0,-61.0,63.0,-7.0,0
9.0,-251.0,-39.0,-59.0,64.0,-8.0,0
10.0,-252.0,-38.0,-56.0,64.0,-6.0,0
13.0,-254.0,-41.0,-52.0,64.0,-7.0,0
10.0,-253.0,-39.0,-48.0,62.0,-6.0,0
11.0,-252.0,-38.0,-42.0,62.0,-4.0,0
11.0,-252.0,-37.0,-39.0,60.0,-4.0,0
11.0,-243.0,-34.0,-35.0,58.0,-4.0,0
12.0,-253.0,-37.0,-32.0,57.0,-4.0,0
10.0,-251.0,-38.0,-29.0,60.0,-3.0,0
13.0,-251.0,-38.0,-26.0,61.0,-3.0,0
13.0,-253.0,-38.0,-24.0,64.0,-5.0,0
10.0,-252.0,-44.0,-22.0,65.0,-5.0,0
8.0,-252.0,-38.0,-21.0,65.0,-6.0,0
10.0,-252.0,-40.0,-18.0,63.0,-7.0,0
6.0,-251.0,-40.0,-13.0,60.0,-7.0,0
10.0,-256.0,-33.0,-8.0,58.0,-6.0,0
11.0,-255.0,-36.0,-6.0,57.0,-7.0,0
8.0,-252.0,-36.0,-5.0,58.0,-7.0,0
10.0,-249.0,-38.0,-6.0,57.0,-6.0,0
10.0,-247.0,-35.0,-8.0,56.0,-5.0,0
10.0,-247.0,-31.0,-12.0,57.0,-4.0,0
10.0,-248.0,-34.0,-16.0,58.0,-2.0,0
12.0,-250.0,-39.0,-21.0,55.0,-2.0,0
10.0,-249.0,-35.0,-22.0,54.0,-1.0,0
11.0,-251.0,-34.0,-23.0,54.0,0.0,0
13.0,-248.0,-37.0,-23.0,49.0,-1.0,0
11.0,-250.0,-40.0,-21.0,45.0,0.0,0
9.0,-247.0,-36.0,-23.0,41.0,-2.0,0
16.0,-241.0,-43.0,-27.0,37.0,-2.0,0
8.0,-250.0,-41.0,-35.0,35.0,-3.0,0
8.0,-251.0,-38.0,-43.0,36.0,-2.0,0
11.0,-248.0,-41.0,-50.0,39.0,-3.0,0
11.0,-252.0,-41.0,-51.0,41.0,-4.0,0
10.0,-252.0,-40.0,-48.0,43.0,-5.0,0
10.0,-254.0,-39.0,-42.0,42.0,-5.0,0
12.0,-253.0,-39.0,-33.0,44.0,-6.0,0
14.0,-250.0,-33.0,-27.0,46.0,-6.0,0
17.0,-248.0,-40.0,-25.0,47.0,-7.0,0
16.0,-247.0,-39.0,-24.0,51.0,-8.0,0
17.0,-246.0,-31.0,-28.0,52.0,-8.0,0
15.0,-249.0,-38.0,-35.0,55.0,-8.0,0
14.0,-253.0,-42.0,-42.0,56.0,-7.0,0
13.0,-251.0,-45.0,-50.0,56.0,-8.0,0
15.0,-254.0,-41.0,-55.0,56.0,-6.0,0
13.0,-252.0,-41.0,-58.0,54.0,-5.0,0
11.0,-252.0,-39.0,-59.0,53.0,-3.0,0
15.0,-252.0,-39.0,-60.0,55.0,-3.0,0
13.0,-250.0,-39.0,-62.0,54.0,-6.0,0
12.0,-252.0,-39.0,-59.0,53.0,-5.0,0
9.0,-250.0,-41.0,-55.0,54.0,-7.0,0
13.0,-235.0,-53.0,-49.0,57.0,-8.0,0
13.0,-251.0,-37.0,-40.0,59.0,-10.0,0
12.0,-250.0,-38.0,-32.0,60.0,-10.0,0
10.0,-249.0,-43.0,-29.0,61.0,-10.0,0
12.0,-248.0,-41.0,-32.0,61.0,-10.0,0
11.0,-250.0,-43.0,-37.0,64.0,-13.0,0
10.0,-249.0,-39.0,-44.0,65.0,-12.0,0
15.0,-247.0,-41.0,-45.0,66.0,-12.0,0
10.0,-249.0,-39.0,-41.0,69.0,-12.0,0
17.0,-252.0,-42.0,-38.0,67.0,-11.0,0
19.0,-261.0,-35.0,-33.0,67.0,-10.0,0
13.0,-253.0,-38.0,-25.0,66.0,-8.0,0
9.0,-252.0,-37.0,-18.0,66.0,-6.0,0
8.0,-254.0,-41.0,-11.0,67.0,-4.0,0
7.0,-252.0,-40.0,-7.0,65.0,-4.0,0
10.0,-252.0,-40.0,-5.0,62.0,-4.0,0
9.0,-253.0,-45.0,-4.0,60.0,-3.0,0
8.0,-249.0,-43.0,-5.0,56.0,-3.0,0
13.0,-250.0,-39.0,-4.0,51.0,-1.0,0
10.0,-250.0,-43.0,-4.0,48.0,-2.0,0
9.0,-249.0,-44.0,-4.0,43.0,-2.0,0
15.0,-257.0,-21.0,-2.0,42.0,-3.0,0
11.0,-251.0,-40.0,0.0,42.0,-3.0,0
9.0,-246.0,-40.0,2.0,44.0,-2.0,0
12.0,-248.0,-43.0,1.0,45.0,-3.0,0
11.0,-251.0,-44.0,0.0,48.0,-6.0,0
12.0,-251.0,-41.0,-3.0,51.0,-6.0,0
10.0,-251.0,-45.0,-2.0,53.0,-8.0,0
12.0,-250.0,-42.0,1.0,53.0,-6.0,0
13.0,-250.0,-43.0,2.0,54.0,-7.0,0
10.0,-249.0,-42.0,3.0,53.0,-6.0,0
13.0,-249.0,-39.0,1.0,52.0,-5.0,0
10.0,-251.0,-39.0,-2.0,51.0,-3.0,0
11.0,-250.0,-39.0,-5.0,49.0,-3.0,0
13.0,-253.0,-42.0,-8.0,47.0,-4.0,0
9.0,-250.0,-42.0,-10.0,43.0,-2.0,0
12.0,-250.0,-40.0,-12.0,39.0,-1.0,0
10.0,-249.0,-43.0,-13.0,37.0,-2.0,0
8.0,-251.0,-42.0,-14.0,36.0,-2.0,0
9.0,-251.0,-40.0,-15.0,36.0,-3.0,0
11.0,-252.0,-40.0,-16.0,37.0,-3.0,0
11.0,-249.0,-40.0,-15.0,39.0,-4.0,0
10.0,-251.0,-40.0,-12.0,40.0,-4.0,0
14.0,-258.0,-45.0,-9.0,44.0,-5.0,0
13.0,-248.0,-46.0,-7.0,49.0,-6.0,0
15.0,-253.0,-42.0,-4.0,53.0,-7.0,0
13.0,-252.0,-44.0,-4.0,59.0,-7.0,0
13.0,-252.0,-41.0,-3.0,61.0,-7.0,0
10.0,-250.0,-36.0,-5.0,62.0,-8.0,0
12.0,-249.0,-41.0,-5.0,62.0,-9.0,0
15.0,-245.0,-39.0,-6.0,63.0,-7.0,0
10.0,-250.0,-36.0,-7.0,63.0,-9.0,0
14.0,-249.0,-37.0,-9.0,63.0,-7.0,0
13.0,-252.0,-35.0,-11.0,64.0,-8.0,0
8.0,-252.0,-45.0,-13.0,62.0,-6.0,0
14.0,-251.0,-37.0,-15.0,63.0,-7.0,0
12.0,-254.0,-39.0,-14.0,65.0,-7.0,0
14.0,-254.0,-43.0,-17.0,66.0,-7.0,0
11.0,-250.0,-41.0,-17.0,67.0,-6.0,0
10.0,-249.0,-40.0,-17.0,67.0,-7.0,0
8.0,-249.0,-39.0,-15.0,68.0,-7.0,0
8.0,-251.0,-41.0,-15.0,69.0,-6.0,0
13.0,-252.0,-40.0,-14.0,70.0,-7.0,0
11.0,-254.0,-41.0,-12.0,71.0,-7.0,0
10.0,-249.0,-35.0,-9.0,72.0,-8.0,0
8.0,-254.0,-37.0,-7.0,74.0,-9.0,0
12.0,-251.0,-38.0,-4.0,77.0,-10.0,0
13.0,-252.0,-38.0,3.0,79.0,-12.0,0
10.0,-249.0,-42.0,7.0,80.0,-12.0,0
14.0,-251.0,-39.0,9.0,80.0,-14.0,0
14.0,-251.0,-36.0,9.0,80.0,-13.0,0
11.0,-249.0,-38.0,7.0,80.0,-13.0,0
10.0,-249.0,-40.0,1.0,78.0,-12.0,0
9.0,-250.0,-33.0,-4.0,76.0,-9.0,0
12.0,-252.0,-36.0,-9.0,73.0,-7.0,0
11.0,-253.0,-33.0,-12.0,68.0,-6.0,0
13.0,-254.0,-39.0,-11.0,65.0,-4.0,0
11.0,-241.0,-49.0,-4.0,62.0,-5.0,0
26.0,-232.0,-58.0,3.0,61.0,-5.0,0
8.0,-251.0,-39.0,8.0,58.0,-5.0,0
10.0,-249.0,-41.0,13.0,57.0,-5.0,0
13.0,-250.0,-40.0,16.0,53.0,-6.0,0
8.0,-251.0,-41.0,15.0,51.0,-6.0,0
7.0,-250.0,-38.0,15.0,50.0,-8.0,0
5.0,-250.0,-41.0,15.0,50.0,-8.0,0
12.0,-252.0,-43.0,14.0,51.0,-8.0,0
18.0,-247.0,-32.0,12.0,49.0,-8.0,0
15.0,-243.0,-44.0,11.0,47.0,-6.0,0
11.0,-251.0,-40.0,6.0,45.0,-4.0,0
12.0,-250.0,-40.0,1.0,47.0,-4.0,0
11.0,-252.0,-43.0,-2.0,49.0,-3.0,0
12.0,-249.0,-39.0,-4.0,52.0,-4.0,0
12.0,-248.0,-41.0,-8.0,57.0,-5.0,0
13.0,-251.0,-40.0,-7.0,61.0,-8.0,0
12.0,-251.0,-40.0,-6.0,66.0,-10.0,0
13.0,-253.0,-42.0,-5.0,69.0,-11.0,0
10.0,-252.0,-40.0,-6.0,72.0,-12.0,0
11.0,-249.0,-37.0,-9.0,74.0,-16.0,0
9.0,-259.0,-27.0,-14.0,74.0,-15.0,0
11.0,-250.0,-39.0,-19.0,73.0,-16.0,0
12.0,-246.0,-39.0,-23.0,73.0,-14.0,0
12.0,-250.0,-36.0,-23.0,72.0,-13.0,0
14.0,-251.0,-36.0,-22.0,71.0,-11.0,0
10.0,-253.0,-38.0,-19.0,70.0,-9.0,0
12.0,-250.0,-37.0,-17.0,68.0,-6.0,0
14.0,-251.0,-41.0,-21.0,65.0,-3.0,0
16.0,-252.0,-43.0,-25.0,63.0,-2.0,0
7.0,-251.0,-44.0,-26.0,65.0,-5.0,0
5.0,-254.0,-39.0,-23.0,66.0,-5.0,0
10.0,-253.0,-35.0,-14.0,70.0,-7.0,0
11.0,-250.0,-37.0,-5.0,73.0,-9.0,0
9.0,-250.0,-39.0,7.0,78.0,-14.0,0
10.0,-250.0,-34.0,13.0,79.0,-17.0,0
12.0,-249.0,-37.0,15.0,79.0,-18.0,0
13.0,-252.0,-38.0,14.0,77.0,-19.0,0
14.0,-248.0,-39.0,10.0,76.0,-18.0,0
14.0,-248.0,-39.0,6.0,72.0,-15.0,0
11.0,-249.0,-40.0,0.0,70.0,-14.0,0
8.0,-248.0,-36.0,-6.0,67.0,-8.0,0
13.0,-255.0,-36.0,-12.0,63.0,-7.0,0
13.0,-252.0,-38.0,-16.0,60.0,-3.0,0
9.0,-253.0,-40.0,-20.0,59.0,-3.0,0
10.0,-252.0,-40.0,-21.0,61.0,0.0,0
12.0,-253.0,-42.0,-20.0,64.0,-3.0,0
10.0,-251.0,-42.0,-19.0,68.0,-5.0,0
14.0,-252.0,-41.0,-18.0,73.0,-9.0,0
15.0,-252.0,-41.0,-17.0,81.0,-11.0,0
14.0,-251.0,-40.0,-13.0,90.0,-16.0,0
17.0,-253.0,-44.0,-12.0,97.0,-16.0,0
12.0,-250.0,-39.0,-11.0,99.0,-17.0,0
16.0,-243.0,-52.0,-11.0,100.0,-14.0,0
14.0,-246.0,-36.0,-10.0,101.0,-12.0,0
12.0,-249.0,-40.0,-11.0,101.0,-8.0,0
12.0,-251.0,-41.0,-14.0,101.0,-6.0,0
11.0,-250.0,-39.0,-18.0,103.0,-7.0,0
11.0,-255.0,-41.0,-27.0,103.0,-10.0,0
10.0,-254.0,-41.0,-34.0,104.0,-11.0,0
8.0,-255.0,-43.0,-45.0,102.0,-16.0,0
12.0,-256.0,-43.0,-52.0,98.0,-16.0,0
13.0,-254.0,-41.0,-53.0,96.0,-15.0,0
12.0,-253.0,-29.0,-52.0,95.0,-12.0,0
9.0,-261.0,-36.0,-50.0,96.0,-11.0,0
8.0,-255.0,-40.0,-47.0,96.0,-6.0,0
9.0,-252.0,-41.0,-44.0,96.0,-3.0,0
7.0,-254.0,-40.0,-39.0,97.0,3.0,0
8.0,-255.0,-38.0,-35.0,98.0,5.0,0
8.0,-256.0,-36.0,-31.0,100.0,8.0,0
9.0,-255.0,-39.0,-27.0,105.0,9.0,0
10.0,-251.0,-41.0,-24.0,110.0,9.0,0
7.0,-257.0,-36.0,-20.0,117.0,8.0,0
4.0,-255.0,-40.0,-16.0,126.0,6.0,0
10.0,-251.0,-42.0,-12.0,137.0,3.0,0
13.0,-246.0,-57.0,-11.0,149.0,1.0,0
8.0,-254.0,-36.0,-10.0,161.0,-2.0,0
8.0,-253.0,-38.0,-12.0,174.0,-5.0,0
8.0,-250.0,-33.0,-14.0,188.0,-9.0,0
10.0,-250.0,-31.0,-16.0,198.0,-11.0,0
12.0,-247.0,-34.0,-18.0,211.0,-15.0,0
9.0,-246.0,-28.0,-14.0,231.0,-18.0,0
13.0,-245.0,-29.0,-9.0,250.0,-22.0,0
9.0,-241.0,-29.0,-3.0,271.0,-26.0,0
11.0,-237.0,-23.0,0.0,292.0,-30.0,0
11.0,-242.0,-19.0,0.0,311.0,-29.0,0
12.0,-231.0,-48.0,-5.0,324.0,-29.0,0
7.0,-238.0,-25.0,-18.0,332.0,-25.0,0
13.0,-240.0,-25.0,-38.0,333.0,-23.0,0
12.0,-243.0,-25.0,-60.0,335.0,-20.0,0
12.0,-246.0,-28.0,-79.0,334.0,-19.0,0
11.0,-249.0,-22.0,-91.0,331.0,-15.0,0
7.0,-251.0,-21.0,-96.0,329.0,-17.0,0
4.0,-252.0,-19.0,-95.0,322.0,-16.0,0
1.0,-250.0,-18.0,-86.0,312.0,-16.0,0
-1.0,-252.0,-17.0,-73.0,297.0,-14.0,0
-1.0,-246.0,-15.0,-64.0,280.0,-15.0,0
-8.0,-261.0,-16.0,-56.0,259.0,-13.0,0
-2.0,-250.0,-23.0,-55.0,241.0,-12.0,0
-2.0,-248.0,-22.0,-55.0,223.0,-11.0,0
0.0,-247.0,-23.0,-58.0,210.0,-10.0,0
0.0,-248.0,-20.0,-62.0,199.0,-7.0,0
7.0,-250.0,-23.0,-65.0,190.0,-8.0,0
7.0,-246.0,-22.0,-66.0,181.0,-6.0,0
8.0,-252.0,-20.0,-64.0,173.0,-7.0,0
8.0,-248.0,-22.0,-63.0,162.0,-9.0,0
9.0,-252.0,-28.0,-62.0,152.0,-12.0,0
15.0,-250.0,-21.0,-59.0,141.0,-12.0,0
12.0,-250.0,-21.0,-61.0,134.0,-15.0,0
15.0,-252.0,-30.0,-62.0,130.0,-17.0,0
16.0,-251.0,-28.0,-67.0,124.0,-22.0,0
15.0,-251.0,-30.0,-72.0,118.0,-26.0,0
16.0,-251.0,-26.0,-80.0,112.0,-31.0,0
17.0,-251.0,-32.0,-81.0,110.0,-32.0,0
13.0,-249.0,-32.0,-85.0,110.0,-37.0,0
15.0,-251.0,-28.0,-90.0,114.0,-37.0,0
17.0,-250.0,-30.0,-91.0,116.0,-38.0,0
13.0,-247.0,-35.0,-94.0,119.0,-36.0,0
16.0,-247.0,-33.0,-100.0,118.0,-34.0,0
15.0,-244.0,-33.0,-107.0,117.0,-30.0,0
17.0,-246.0,-20.0,-115.0,114.0,-29.0,0
10.0,-244.0,-37.0,-124.0,113.0,-27.0,0
8.0,-243.0,-37.0,-140.0,108.0,-26.0,0
6.0,-243.0,-39.0,-154.0,103.0,-24.0,0
9.0,-240.0,-36.0,-167.0,99.0,-25.0,0
9.0,-244.0,-46.0,-181.0,96.0,-26.0,0
7.0,-243.0,-45.0,-192.0,96.0,-28.0,0
10.0,-242.0,-46.0,-202.0,94.0,-29.0,0
6.0,-240.0,-47.0,-209.0,91.0,-33.0,0
7.0,-242.0,-43.0,-213.0,86.0,-35.0,0
4.0,-244.0,-45.0,-218.0,79.0,-35.0,0
2.0,-247.0,-44.0,-222.0,73.0,-32.0,0
3.0,-251.0,-41.0,-226.0,68.0,-29.0,0
-2.0,-250.0,-40.0,-225.0,67.0,-23.0,0
-3.0,-253.0,-37.0,-220.0,65.0,-21.0,0
-4.0,-251.0,-37.0,-217.0,66.0,-17.0,0
-7.0,-253.0,-37.0,-211.0,68.0,-14.0,0
-7.0,-256.0,-35.0,-206.0,65.0,-13.0,0
-8.0,-255.0,-43.0,-201.0,61.0,-15.0,0
-6.0,-258.0,-47.0,-197.0,53.0,-16.0,0
-13.0,-261.0,-30.0,-193.0,45.0,-22.0,0
-12.0,-258.0,-51.0,-183.0,34.0,-26.0,0
-10.0,-258.0,-49.0,-167.0,20.0,-31.0,0
-15.0,-260.0,-53.0,-145.0,-4.0,-32.0,0
-16.0,-258.0,-53.0,-122.0,-28.0,-36.0,0
-16.0,-260.0,-55.0,-96.0,-55.0,-35.0,0
-16.0,-258.0,-58.0,-71.0,-83.0,-33.0,0
-17.0,-256.0,-60.0,-43.0,-109.0,-27.0,0
-23.0,-257.0,-60.0,-19.0,-135.0,-25.0,0
-27.0,-253.0,-61.0,3.0,-164.0,-13.0,0
-21.0,-253.0,-63.0,22.0,-196.0,-5.0,0
-23.0,-249.0,-67.0,35.0,-223.0,4.0,0
-23.0,-246.0,-61.0,46.0,-248.0,14.0,0
-18.0,-241.0,-63.0,44.0,-275.0,23.0,0
-16.0,-239.0,-63.0,38.0,-294.0,29.0,0
-12.0,-237.0,-59.0,22.0,-311.0,37.0,0
-9.0,-234.0,-61.0,3.0,-322.0,39.0,0
-8.0,-228.0,-58.0,-19.0,-329.0,43.0,0
-1.0,-224.0,-57.0,-39.0,-331.0,41.0,0
3.0,-222.0,-53.0,-64.0,-327.0,44.0,0
8.0,-220.0,-60.0,-94.0,-320.0,47.0,0
14.0,-216.0,-60.0,-135.0,-309.0,50.0,0
14.0,-215.0,-56.0,-180.0,-299.0,54.0,0
22.0,-212.0,-49.0,-232.0,-295.0,63.0,0
29.0,-216.0,-46.0,-270.0,-294.0,70.0,0
31.0,-216.0,-44.0,-297.0,-285.0,80.0,0
37.0,-225.0,-36.0,-317.0,-265.0,84.0,0
41.0,-228.0,-30.0,-331.0,-240.0,90.0,0
40.0,-232.0,-27.0,-332.0,-211.0,99.0,0
40.0,-236.0,-18.0,-328.0,-184.0,109.0,0
37.0,-244.0,-15.0,-315.0,-169.0,115.0,0
43.0,-256.0,-9.0,-302.0,-168.0,117.0,0
41.0,-256.0,-2.0,-293.0,-179.0,116.0,0
38.0,-272.0,4.0,-264.0,-208.0,119.0,0
37.0,-277.0,6.0,-229.0,-242.0,121.0,0
36.0,-285.0,7.0,-206.0,-281.0,127.0,0
34.0,-285.0,8.0,-194.0,-319.0,127.0,0
31.0,-290.0,0.0,-194.0,-356.0,132.0,0
32.0,-286.0,1.0,-220.0,-387.0,133.0,0
28.0,-286.0,-3.0,-248.0,-410.0,135.0,0
23.0,-288.0,0.0,-275.0,-424.0,131.0,0
19.0,-286.0,-6.0,-287.0,-432.0,127.0,0
18.0,-282.0,2.0,-282.0,-434.0,110.0,0
16.0,-280.0,-1.0,-253.0,-434.0,83.0,0
19.0,-272.0,-4.0,-231.0,-430.0,54.0,0
18.0,-267.0,-4.0,-224.0,-421.0,18.0,0
15.0,-265.0,-9.0,-222.0,-407.0,-23.0,0
18.0,-261.0,-10.0,-236.0,-389.0,-65.0,0
20.0,-256.0,-11.0,-259.0,-365.0,-117.0,0
26.0,-257.0,-8.0,-279.0,-336.0,-155.0,0
24.0,-254.0,-4.0,-306.0,-306.0,-182.0,0
22.0,-252.0,-7.0,-326.0,-279.0,-207.0,0
24.0,-246.0,-9.0,-341.0,-251.0,-230.0,0
28.0,-239.0,-10.0,-349.0,-216.0,-243.0,0
17.0,-248.0,-3.0,-339.0,-178.0,-244.0,0
28.0,-231.0,-14.0,-346.0,-149.0,-246.0,0
29.0,-234.0,-14.0,-367.0,-122.0,-243.0,0
26.0,-226.0,-16.0,-404.0,-102.0,-231.0,0
29.0,-224.0,-16.0,-441.0,-88.0,-216.0,0
31.0,-223.0,-10.0,-463.0,-81.0,-207.0,0
33.0,-219.0,-9.0,-471.0,-71.0,-198.0,0
27.0,-210.0,-8.0,-455.0,-64.0,-175.0,0
28.0,-211.0,-13.0,-423.0,-62.0,-151.0,0
28.0,-211.0,-12.0,-411.0,-69.0,-134.0,0
28.0,-218.0,-17.0,-411.0,-70.0,-113.0,0
26.0,-214.0,-27.0,-424.0,-66.0,-101.0,0
28.0,-225.0,-22.0,-443.0,-56.0,-102.0,0
30.0,-228.0,-24.0,-456.0,-36.0,-86.0,0
25.0,-230.0,-21.0,-455.0,-7.0,-74.0,0
27.0,-237.0,-22.0,-431.0,28.0,-63.0,0
29.0,-237.0,-25.0,-394.0,66.0,-52.0,0
32.0,-244.0,-24.0,-353.0,94.0,-34.0,0
29.0,-252.0,-33.0,-312.0,115.0,-37.0,0
30.0,-256.0,-33.0,-286.0,140.0,-48.0,0
33.0,-261.0,-36.0,-259.0,175.0,-60.0,0
34.0,-269.0,-35.0,-228.0,208.0,-70.0,0
45.0,-266.0,-40.0,-200.0,245.0,-85.0,0
37.0,-278.0,-27.0,-166.0,285.0,-96.0,0
39.0,-282.0,-24.0,-136.0,323.0,-104.0,0
42.0,-290.0,-18.0,-115.0,356.0,-105.0,0
47.0,-289.0,-16.0,-110.0,383.0,-127.0,0
53.0,-298.0,-10.0,-100.0,401.0,-146.0,0
53.0,-300.0,-6.0,-85.0,422.0,-183.0,0
49.0,-297.0,-7.0,-75.0,446.0,-226.0,0
45.0,-297.0,0.0,-74.0,468.0,-277.0,0
40.0,-291.0,-14.0,-101.0,485.0,-317.0,0
37.0,-289.0,-13.0,-155.0,490.0,-355.0,0
46.0,-280.0,-22.0,-229.0,500.0,-385.0,0
33.0,-279.0,-12.0,-307.0,511.0,-415.0,0
31.0,-283.0,-20.0,-381.0,521.0,-437.0,0
33.0,-290.0,-20.0,-455.0,524.0,-459.0,0
37.0,-301.0,-17.0,-520.0,510.0,-485.0,0
48.0,-316.0,-15.0,-568.0,499.0,-504.0,0
57.0,-326.0,-10.0,-606.0,488.0,-514.0,0
65.0,-344.0,-2.0,-630.0,473.0,-520.0,0
78.0,-363.0,15.0,-634.0,448.0,-512.0,0
92.0,-376.0,20.0,-612.0,431.0,-511.0,0
103.0,-389.0,28.0,-567.0,419.0,-513.0,0
116.0,-413.0,54.0,-502.0,415.0,-516.0,0
124.0,-403.0,37.0,-430.0,426.0,-531.0,0
131.0,-404.0,37.0,-365.0,450.0,-547.0,0
127.0,-397.0,28.0,-313.0,485.0,-553.0,0
131.0,-394.0,26.0,-273.0,518.0,-555.0,0
120.0,-385.0,21.0,-241.0,541.0,-549.0,0
108.0,-369.0,17.0,-213.0,536.0,-520.0,0
97.0,-361.0,11.0,-176.0,492.0,-464.0,0
91.0,-348.0,-6.0,-137.0,423.0,-389.0,0
77.0,-325.0,-31.0,-95.0,347.0,-293.0,0
65.0,-318.0,-62.0,-71.0,279.0,-176.0,0
48.0,-303.0,-109.0,-76.0,228.0,-26.0,0
38.0,-282.0,-161.0,-111.0,184.0,144.0,0
38.0,-266.0,-219.0,-183.0,166.0,318.0,0
35.0,-269.0,-266.0,-307.0,166.0,472.0,0
41.0,-287.0,-302.0,-477.0,159.0,590.0,0
49.0,-305.0,-311.0,-670.0,124.0,657.0,0
57.0,-334.0,-286.0,-833.0,57.0,697.0,0
75.0,-373.0,-260.0,-886.0,19.0,699.0,0
88.0,-394.0,-243.0,-767.0,44.0,676.0,0
100.0,-425.0,-237.0,-538.0,143.0,629.0,0
90.0,-432.0,-259.0,-273.0,299.0,567.0,0
74.0,-422.0,-249.0,-7.0,451.0,503.0,0
46.0,-395.0,-246.0,232.0,536.0,453.0,0
7.0,-375.0,-230.0,441.0,528.0,403.0,0
-46.0,-347.0,-192.0,625.0,438.0,357.0,0
-80.0,-334.0,-145.0,782.0,315.0,371.0,0
-88.0,-320.0,-108.0,904.0,147.0,496.0,0
-99.0,-297.0,-68.0,1050.0,21.0,620.0,0
-97.0,-280.0,-29.0,1163.0,-64.0,755.0,0
-89.0,-256.0,-8.0,1242.0,-104.0,864.0,0
-82.0,-234.0,4.0,1234.0,-130.0,930.0,0
-76.0,-225.0,11.0,1112.0,-153.0,944.0,0
-52.0,-202.0,-17.0,871.0,-178.0,927.0,0
-32.0,-207.0,-22.0,513.0,-208.0,874.0,0
-16.0,-220.0,-33.0,104.0,-253.0,795.0,0
1.0,-252.0,-41.0,-298.0,-309.0,700.0,0
17.0,-301.0,-36.0,-635.0,-398.0,579.0,0
37.0,-356.0,-40.0,-892.0,-479.0,489.0,0
37.0,-403.0,-44.0,-968.0,-560.0,425.0,0
43.0,-441.0,-40.0,-930.0,-632.0,382.0,0
48.0,-482.0,-39.0,-822.0,-683.0,361.0,0
32.0,-480.0,-66.0,-686.0,-707.0,356.0,0
26.0,-494.0,-65.0,-547.0,-708.0,370.0,0
12.0,-497.0,-71.0,-445.0,-697.0,406.0,0
5.0,-507.0,-75.0,-386.0,-689.0,463.0,0
-13.0,-512.0,-70.0,-356.0,-680.0,515.0,0
-37.0,-516.0,-65.0,-340.0,-695.0,590.0,0
-57.0,-513.0,-64.0,-344.0,-737.0,657.0,0
-80.0,-502.0,-60.0,-355.0,-797.0,746.0,0
-98.0,-484.0,-57.0,-327.0,-857.0,835.0,0
-123.0,-462.0,-45.0,-241.0,-925.0,919.0,0
-132.0,-449.0,-43.0,-137.0,-991.0,1000.0,0
-143.0,-426.0,-61.0,-42.0,-1058.0,1094.0,0
-120.0,-394.0,-95.0,8.0,-1086.0,1172.0,0
-85.0,-358.0,-138.0,-22.0,-1054.0,1248.0,0
-60.0,-322.0,-153.0,-127.0,-991.0,1280.0,0
-19.0,-300.0,-136.0,-282.0,-914.0,1275.0,0
10.0,-274.0,-131.0,-391.0,-793.0,1201.0,0
60.0,-247.0,-115.0,-384.0,-609.0,1082.0,0
89.0,-207.0,-88.0,-296.0,-419.0,884.0,0
128.0,-177.0,-82.0,-149.0,-258.0,664.0,0
151.0,-135.0,-95.0,35.0,-53.0,414.0,0
160.0,-83.0,-93.0,222.0,218.0,178.0,0
173.0,-40.0,-77.0,386.0,523.0,-33.0,0
171.0,1.0,-70.0,517.0,811.0,-236.0,0
149.0,51.0,-42.0,596.0,1028.0,-415.0,0
122.0,87.0,-17.0,625.0,1150.0,-554.0,0
85.0,118.0,10.0,597.0,1180.0,-607.0,0
44.0,139.0,32.0,533.0,1142.0,-617.0,0
-2.0,155.0,61.0,437.0,1088.0,-602.0,0
-38.0,162.0,70.0,323.0,1055.0,-553.0,0
-72.0,159.0,78.0,220.0,1074.0,-485.0,0
-88.0,151.0,88.0,159.0,1151.0,-400.0,0
-104.0,136.0,98.0,163.0,1256.0,-314.0,0
-113.0,137.0,96.0,243.0,1337.0,-242.0,0
-114.0,135.0,74.0,365.0,1370.0,-197.0,0
-116.0,149.0,43.0,469.0,1324.0,-166.0,0
-117.0,164.0,-2.0,460.0,1153.0,-148.0,0
-112.0,178.0,-67.0,317.0,940.0,-146.0,0
-113.0,170.0,-134.0,54.0,721.0,-158.0,0
-117.0,150.0,-182.0,-310.0,502.0,-155.0,0
-120.0,90.0,-242.0,-722.0,247.0,-127.0,0
-103.0,-19.0,-281.0,-1129.0,-47.0,-85.0,0
-72.0,-150.0,-292.0,-1481.0,-288.0,-74.0,0
-12.0,-342.0,-225.0,-1668.0,-352.0,-109.0,0
25.0,-500.0,-147.0,-1537.0,-200.0,-192.0,0
36.0,-632.0,-86.0,-1017.0,33.0,-306.0,0
36.0,-706.0,-77.0,-113.0,163.0,-393.0,0
47.0,-725.0,-91.0,571.0,142.0,-437.0,0
82.0,-729.0,-101.0,972.0,136.0,-452.0,0
124.0,-723.0,-87.0,1010.0,223.0,-461.0,0
163.0,-723.0,-39.0,779.0,364.0,-485.0,0
179.0,-713.0,-29.0,431.0,480.0,-518.0,0
186.0,-711.0,-50.0,78.0,564.0,-598.0,0
179.0,-707.0,-76.0,-217.0,690.0,-701.0,0
190.0,-689.0,-103.0,-381.0,879.0,-776.0,0
173.0,-700.0,-110.0,-383.0,1104.0,-814.0,0
156.0,-666.0,-95.0,-185.0,1386.0,-820.0,0
121.0,-629.0,-87.0,121.0,1590.0,-800.0,0
98.0,-581.0,-95.0,443.0,1684.0,-795.0,0
86.0,-526.0,-105.0,663.0,1650.0,-799.0,0
76.0,-465.0,-93.0,780.0,1570.0,-809.0,0
119.0,-400.0,-65.0,842.0,1525.0,-795.0,0
125.0,-359.0,-75.0,854.0,1475.0,-766.0,0
141.0,-299.0,-94.0,773.0,1351.0,-735.0,0
134.0,-223.0,-118.0,582.0,1156.0,-689.0,0
133.0,-159.0,-153.0,329.0,957.0,-579.0,0
99.0,-93.0,-138.0,49.0,720.0,-387.0,0
66.0,-40.0,-123.0,-270.0,464.0,-163.0,0
12.0,7.0,-120.0,-462.0,151.0,124.0,0
-50.0,40.0,-128.0,-564.0,-202.0,476.0,0
-93.0,56.0,-131.0,-590.0,-540.0,845.0,0
-142.0,63.0,-115.0,-570.0,-796.0,1202.0,0
-184.0,72.0,-94.0,-490.0,-959.0,1464.0,0
-216.0,66.0,-73.0,-359.0,-1059.0,1606.0,0
-235.0,65.0,-55.0,-228.0,-1135.0,1627.0,0
-226.0,52.0,-28.0,-93.0,-1194.0,1556.0,0
-179.0,34.0,0.0,60.0,-1215.0,1342.0,0
-142.0,29.0,-2.0,312.0,-1149.0,1070.0,0
-80.0,28.0,-1.0,553.0,-981.0,728.0,0
-25.0,47.0,17.0,754.0,-729.0,395.0,0
21.0,67.0,29.0,894.0,-479.0,104.0,0
47.0,110.0,20.0,950.0,-287.0,-129.0,0
47.0,147.0,-23.0,886.0,-154.0,-309.0,0
32.0,184.0,-87.0,674.0,-45.0,-408.0,0
31.0,183.0,-162.0,358.0,59.0,-431.0,0
47.0,167.0,-216.0,-48.0,131.0,-424.0,0
80.0,124.0,-295.0,-549.0,130.0,-461.0,0
89.0,67.0,-334.0,-1256.0,54.0,-519.0,0
87.0,-32.0,-323.0,-1860.0,-98.0,-535.0,0
101.0,-192.0,-261.0,-2291.0,-298.0,-510.0,0
142.0,-368.0,-224.0,-2388.0,-439.0,-447.0,0
150.0,-532.0,-218.0,-2217.0,-442.0,-405.0,0
92.0,-683.0,-163.0,-1951.0,-310.0,-386.0,0
33.0,-788.0,-87.0,-1662.0,-151.0,-334.0,0
-61.0,-891.0,8.0,-1290.0,-71.0,-260.0,0
-175.0,-932.0,53.0,-847.0,-69.0,-115.0,0
-263.0,-932.0,41.0,-437.0,-133.0,191.0,0
-346.0,-882.0,-33.0,-218.0,-419.0,434.0,0
-370.0,-847.0,-124.0,-283.0,-841.0,646.0,0
-351.0,-803.0,-196.0,-472.0,-1330.0,820.0,0
-315.0,-771.0,-212.0,-609.0,-1772.0,930.0,0
-277.0,-751.0,-193.0,-526.0,-2113.0,1012.0,0
-226.0,-706.0,-168.0,-169.0,-2335.0,1031.0,0
-170.0,-626.0,-168.0,356.0,-2439.0,1000.0,0
-116.0,-515.0,-179.0,838.0,-2418.0,944.0,0
-68.0,-396.0,-169.0,1087.0,-2302.0,886.0,0
-17.0,-286.0,-141.0,1069.0,-2147.0,779.0,0
40.0,-187.0,-143.0,803.0,-1941.0,629.0,0
92.0,-143.0,-143.0,498.0,-1752.0,406.0,0
149.0,-71.0,-144.0,176.0,-1586.0,173.0,0
196.0,-23.0,-177.0,-115.0,-1424.0,-45.0,0
240.0,-3.0,-197.0,-390.0,-1165.0,-243.0,0
242.0,10.0,-188.0,-615.0,-804.0,-445.0,0
228.0,18.0,-166.0,-730.0,-414.0,-621.0,0
192.0,27.0,-141.0,-694.0,-43.0,-767.0,0
160.0,48.0,-110.0,-522.0,245.0,-873.0,0
148.0,58.0,-74.0,-242.0,439.0,-899.0,0
134.0,61.0,-40.0,179.0,602.0,-853.0,0
109.0,61.0,0.0,525.0,737.0,-777.0,0
76.0,79.0,40.0,792.0,876.0,-678.0,0
25.0,100.0,65.0,970.0,968.0,-574.0,0
-38.0,117.0,61.0,1045.0,985.0,-464.0,0
-83.0,117.0,32.0,943.0,941.0,-342.0,0
-124.0,117.0,-25.0,670.0,880.0,-217.0,0
-142.0,105.0,-57.0,311.0,858.0,-109.0,0
-158.0,75.0,-83.0,-9.0,899.0,-39.0,0
-162.0,42.0,-95.0,-136.0,966.0,-34.0,0
-151.0,21.0,-121.0,9.0,988.0,-96.0,0
-159.0,13.0,-154.0,254.0,956.0,-177.0,0
-190.0,4.0,-220.0,475.0,833.0,-234.0,0
-160.0,-22.0,-300.0,546.0,616.0,-270.0,0
-122.0,-70.0,-315.0,378.0,421.0,-308.0,0
-77.0,-184.0,-253.0,68.0,357.0,-406.0,0
-63.0,-343.0,-140.0,-176.0,413.0,-520.0,0
-71.0,-504.0,-45.0,-169.0,462.0,-599.0,0
-77.0,-633.0,5.0,77.0,428.0,-631.0,0
-40.0,-735.0,37.0,366.0,360.0,-634.0,0
-14.0,-803.0,65.0,570.0,327.0,-666.0,0
40.0,-816.0,92.0,692.0,310.0,-733.0,0
122.0,-806.0,66.0,689.0,271.0,-819.0,0
213.0,-758.0,-10.0,510.0,320.0,-950.0,0
287.0,-736.0,-78.0,151.0,575.0,-1080.0,0
312.0,-716.0,-137.0,-305.0,963.0,-1204.0,0
313.0,-679.0,-158.0,-690.0,1359.0,-1280.0,0
305.0,-648.0,-163.0,-860.0,1689.0,-1309.0,0
275.0,-612.0,-147.0,-796.0,1907.0,-1270.0,0
234.0,-558.0,-125.0,-541.0,1973.0,-1147.0,0
202.0,-504.0,-118.0,-173.0,1864.0,-930.0,0
175.0,-416.0,-97.0,193.0,1696.0,-737.0,0
151.0,-330.0,-65.0,316.0,1538.0,-511.0,0
140.0,-248.0,-52.0,284.0,1435.0,-266.0,0
124.0,-148.0,-67.0,95.0,1370.0,-8.0,0
111.0,-70.0,-79.0,-197.0,1340.0,232.0,0
77.0,-7.0,-93.0,-534.0,1273.0,449.0,0
40.0,33.0,-99.0,-827.0,1088.0,630.0,0
-11.0,65.0,-111.0,-1004.0,786.0,806.0,0
-60.0,77.0,-116.0,-1050.0,431.0,957.0,0
-99.0,87.0,-108.0,-980.0,48.0,1117.0,0
-135.0,91.0,-98.0,-703.0,-164.0,1213.0,0
-150.0,90.0,-103.0,-317.0,-265.0,1262.0,0
-175.0,88.0,-101.0,113.0,-264.0,1217.0,0
-193.0,92.0,-75.0,509.0,-156.0,1119.0,0
-176.0,84.0,-34.0,861.0,-8.0,992.0,0
-142.0,84.0,31.0,1167.0,78.0,841.0,0
-93.0,88.0,72.0,1399.0,73.0,657.0,0
-40.0,93.0,91.0,1531.0,6.0,459.0,0
9.0,103.0,82.0,1535.0,-87.0,267.0,0
39.0,117.0,40.0,1401.0,-161.0,93.0,0
63.0,127.0,-1.0,1069.0,-186.0,8.0,0
65.0,136.0,-44.0,721.0,-174.0,-34.0,0
34.0,133.0,-80.0,394.0,-186.0,-56.0,0
10.0,112.0,-139.0,139.0,-246.0,-46.0,0
19.0,59.0,-229.0,-39.0,-369.0,-46.0,0
25.0,-11.0,-286.0,-173.0,-515.0,-73.0,0
29.0,-106.0,-305.0,-302.0,-620.0,-99.0,0
6.0,-222.0,-261.0,-416.0,-639.0,-103.0,0
-4.0,-359.0,-177.0,-454.0,-611.0,-61.0,0
-9.0,-460.0,-125.0,-318.0,-570.0,-18.0,0
-17.0,-575.0,-102.0,56.0,-429.0,-51.0,0
-47.0,-655.0,-80.0,322.0,-266.0,-108.0,0
-69.0,-709.0,-43.0,429.0,-191.0,-167.0,0
-86.0,-745.0,-6.0,409.0,-271.0,-202.0,0
-146.0,-756.0,-1.0,298.0,-452.0,-168.0,0
-209.0,-767.0,-36.0,100.0,-678.0,-4.0,0
-246.0,-801.0,-82.0,-181.0,-970.0,212.0,0
-261.0,-796.0,-144.0,-470.0,-1311.0,421.0,0
-258.0,-812.0,-177.0,-643.0,-1634.0,628.0,0
-233.0,-833.0,-185.0,-595.0,-1928.0,861.0,0
-197.0,-829.0,-157.0,-299.0,-2241.0,1090.0,0
-148.0,-788.0,-124.0,362.0,-2412.0,1236.0,0
-99.0,-699.0,-106.0,980.0,-2435.0,1338.0,0
-57.0,-598.0,-89.0,1450.0,-2282.0,1367.0,0
-20.0,-492.0,-74.0,1656.0,-1967.0,1309.0,0
-3.0,-401.0,-71.0,1568.0,-1602.0,1192.0,0
43.0,-283.0,-68.0,1243.0,-1311.0,1012.0,0
71.0,-190.0,-63.0,798.0,-1114.0,799.0,0
117.0,-106.0,-57.0,340.0,-958.0,569.0,0
145.0,-39.0,-50.0,-43.0,-772.0,308.0,0
165.0,14.0,-53.0,-308.0,-459.0,-29.0,0
176.0,64.0,-68.0,-462.0,-182.0,-287.0,0
177.0,98.0,-97.0,-457.0,85.0,-524.0,0
160.0,128.0,-116.0,-351.0,362.0,-713.0,0
139.0,154.0,-122.0,-178.0,613.0,-861.0,0
123.0,170.0,-140.0,33.0,796.0,-968.0,0
89.0,190.0,-157.0,232.0,916.0,-1053.0,0
67.0,164.0,-137.0,389.0,995.0,-1100.0,0
41.0,159.0,-125.0,475.0,1035.0,-1111.0,0
13.0,149.0,-99.0,490.0,1035.0,-1080.0,0
-13.0,135.0,-71.0,451.0,1007.0,-1004.0,0
-46.0,111.0,-29.0,377.0,930.0,-907.0,0
-89.0,84.0,6.0,335.0,827.0,-772.0,0
-116.0,55.0,40.0,341.0,687.0,-596.0,0
-136.0,34.0,51.0,384.0,509.0,-410.0,0
-154.0,29.0,49.0,432.0,319.0,-215.0,0
-145.0,25.0,29.0,461.0,146.0,-30.0,0
-119.0,36.0,0.0,438.0,4.0,125.0,0
-106.0,35.0,-21.0,379.0,-77.0,203.0,0
-85.0,30.0,-58.0,302.0,-98.0,230.0,0
-72.0,9.0,-93.0,204.0,-90.0,232.0,0
-49.0,-19.0,-124.0,56.0,-87.0,226.0,0
-29.0,-62.0,-165.0,-85.0,-72.0,208.0,0
-7.0,-116.0,-190.0,-235.0,-20.0,186.0,0
15.0,-191.0,-192.0,-359.0,68.0,139.0,0
24.0,-274.0,-184.0,-399.0,187.0,65.0,0
19.0,-347.0,-166.0,-316.0,301.0,-40.0,0
32.0,-439.0,-134.0,-157.0,360.0,-164.0,0
28.0,-509.0,-107.0,-20.0,330.0,-313.0,0
58.0,-577.0,-62.0,63.0,256.0,-454.0,0
101.0,-642.0,-19.0,80.0,219.0,-557.0,0
142.0,-708.0,27.0,32.0,249.0,-606.0,0
182.0,-765.0,44.0,-59.0,322.0,-635.0,0
206.0,-788.0,33.0,-141.0,442.0,-665.0,0
228.0,-794.0,-20.0,-213.0,620.0,-688.0,0
235.0,-788.0,-84.0,-245.0,819.0,-670.0,0
231.0,-765.0,-137.0,-226.0,983.0,-630.0,0
216.0,-731.0,-149.0,-147.0,1112.0,-590.0,0
177.0,-701.0,-149.0,44.0,1235.0,-548.0,0
146.0,-658.0,-113.0,332.0,1317.0,-512.0,0
124.0,-601.0,-95.0,646.0,1360.0,-477.0,0
110.0,-556.0,-82.0,913.0,1384.0,-407.0,0
85.0,-474.0,-64.0,1111.0,1373.0,-353.0,0
75.0,-386.0,-66.0,1178.0,1338.0,-276.0,0
61.0,-305.0,-68.0,1143.0,1282.0,-195.0,0
43.0,-226.0,-60.0,1035.0,1214.0,-111.0,0
33.0,-163.0,-69.0,884.0,1138.0,-27.0,0
13.0,-93.0,-84.0,718.0,1049.0,54.0,0
18.0,-45.0,-114.0,542.0,952.0,117.0,0
3.0,-17.0,-103.0,308.0,834.0,154.0,0
-23.0,28.0,-110.0,55.0,684.0,182.0,0
-44.0,57.0,-115.0,-140.0,453.0,277.0,0
-75.0,71.0,-123.0,-294.0,204.0,393.0,0
-100.0,79.0,-126.0,-380.0,-73.0,524.0,0
-112.0,67.0,-126.0,-423.0,-312.0,651.0,0
-134.0,61.0,-112.0,-430.0,-476.0,751.0,0
-136.0,44.0,-101.0,-409.0,-561.0,811.0,0
-145.0,24.0,-74.0,-389.0,-599.0,842.0,0
-154.0,12.0,-46.0,-352.0,-617.0,846.0,0
-153.0,0.0,-8.0,-267.0,-631.0,849.0,0
-150.0,-2.0,7.0,-109.0,-649.0,805.0,0
-139.0,-1.0,27.0,101.0,-651.0,694.0,0
-112.0,4.0,22.0,364.0,-605.0,582.0,0
-75.0,6.0,19.0,521.0,-515.0,477.0,0
-46.0,13.0,19.0,594.0,-383.0,361.0,0
-15.0,20.0,25.0,603.0,-233.0,231.0,0
10.0,23.0,22.0,573.0,-89.0,83.0,0
22.0,35.0,4.0,518.0,31.0,-44.0,0
30.0,46.0,-11.0,434.0,119.0,-139.0,0
33.0,43.0,-25.0,327.0,180.0,-181.0,0
35.0,46.0,-56.0,210.0,221.0,-188.0,0
26.0,51.0,-90.0,104.0,242.0,-180.0,0
23.0,31.0,-114.0,12.0,208.0,-182.0,0
38.0,4.0,-163.0,-56.0,106.0,-181.0,0
58.0,-39.0,-237.0,-165.0,-46.0,-210.0,0
56.0,-86.0,-296.0,-371.0,-189.0,-228.0,0
36.0,-158.0,-312.0,-703.0,-283.0,-192.0,0
14.0,-256.0,-242.0,-1065.0,-359.0,-116.0,0
-13.0,-385.0,-139.0,-1246.0,-445.0,-62.0,0
-33.0,-481.0,-75.0,-1079.0,-475.0,-36.0,0
-62.0,-591.0,-45.0,-644.0,-405.0,-32.0,0
-74.0,-686.0,-1.0,-201.0,-278.0,-27.0,0
-57.0,-733.0,7.0,110.0,-138.0,-62.0,0
-49.0,-762.0,30.0,245.0,-48.0,-125.0,0
-70.0,-770.0,37.0,175.0,6.0,-179.0,0
-120.0,-772.0,22.0,-13.0,-16.0,-160.0,0
-148.0,-799.0,1.0,-260.0,-141.0,-50.0,0
-150.0,-811.0,-24.0,-471.0,-339.0,130.0,0
-141.0,-829.0,-55.0,-540.0,-575.0,331.0,0
-139.0,-843.0,-62.0,-470.0,-838.0,529.0,0
-124.0,-860.0,-37.0,-231.0,-1109.0,712.0,0
-94.0,-844.0,-15.0,181.0,-1346.0,897.0,0
-67.0,-779.0,-4.0,677.0,-1507.0,1062.0,0
-45.0,-693.0,7.0,1180.0,-1504.0,1131.0,0
-27.0,-580.0,9.0,1424.0,-1387.0,1136.0,0
-6.0,-496.0,0.0,1453.0,-1196.0,1077.0,0
33.0,-395.0,-37.0,1269.0,-964.0,939.0,0
70.0,-300.0,-53.0,904.0,-737.0,747.0,0
87.0,-227.0,-35.0,458.0,-601.0,540.0,0
104.0,-161.0,-24.0,50.0,-550.0,393.0,0
125.0,-125.0,-46.0,-244.0,-486.0,285.0,0
113.0,-87.0,-64.0,-462.0,-351.0,162.0,0
82.0,-40.0,-86.0,-606.0,-204.0,-21.0,0
51.0,-3.0,-127.0,-703.0,-43.0,-130.0,0
15.0,31.0,-156.0,-735.0,159.0,-177.0,0
-13.0,60.0,-159.0,-706.0,393.0,-190.0,0
-17.0,72.0,-145.0,-588.0,588.0,-207.0,0
-13.0,75.0,-126.0,-391.0,714.0,-237.0,0
-5.0,70.0,-117.0,-161.0,755.0,-288.0,0
6.0,58.0,-113.0,48.0,726.0,-351.0,0
11.0,40.0,-98.0,173.0,660.0,-443.0,0
25.0,28.0,-71.0,236.0,598.0,-527.0,0
38.0,31.0,-54.0,305.0,552.0,-647.0,0
28.0,30.0,-36.0,440.0,529.0,-733.0,0
-1.0,36.0,-10.0,590.0,508.0,-762.0,0
-18.0,63.0,-33.0,729.0,458.0,-723.0,0
-32.0,86.0,-30.0,804.0,370.0,-634.0,0
-34.0,108.0,-48.0,792.0,260.0,-519.0,0
-33.0,116.0,-61.0,686.0,166.0,-422.0,0
-42.0,107.0,-94.0,510.0,110.0,-339.0,0
-56.0,77.0,-131.0,289.0,62.0,-254.0,0
-72.0,24.0,-173.0,43.0,-20.0,-147.0,0
-56.0,-34.0,-216.0,-206.0,-126.0,-38.0,0
-15.0,-118.0,-215.0,-481.0,-161.0,43.0,0
12.0,-217.0,-169.0,-644.0,-28.0,70.0,0
16.0,-315.0,-106.0,-661.0,200.0,91.0,0
10.0,-396.0,-51.0,-483.0,376.0,79.0,0
-5.0,-492.0,-3.0,-174.0,425.0,46.0,0
-15.0,-565.0,10.0,120.0,390.0,-15.0,0
5.0,-624.0,32.0,266.0,345.0,-92.0,0
33.0,-670.0,49.0,230.0,337.0,-183.0,0
64.0,-710.0,79.0,48.0,373.0,-252.0,0
134.0,-746.0,106.0,-171.0,440.0,-329.0,0
185.0,-767.0,86.0,-298.0,574.0,-511.0,0
226.0,-765.0,42.0,-349.0,775.0,-712.0,0
247.0,-751.0,-27.0,-328.0,1054.0,-841.0,0
253.0,-730.0,-75.0,-299.0,1348.0,-905.0,0
231.0,-699.0,-88.0,-205.0,1632.0,-950.0,0
204.0,-659.0,-62.0,16.0,1894.0,-960.0,0
168.0,-610.0,-43.0,352.0,2072.0,-922.0,0
133.0,-542.0,-41.0,685.0,2125.0,-850.0,0
105.0,-476.0,-40.0,903.0,2073.0,-763.0,0
90.0,-403.0,-44.0,1003.0,1966.0,-686.0,0
91.0,-324.0,-54.0,996.0,1844.0,-581.0,0
82.0,-247.0,-75.0,867.0,1717.0,-511.0,0
89.0,-172.0,-93.0,655.0,1619.0,-435.0,0
54.0,-92.0,-115.0,412.0,1519.0,-353.0,0
37.0,-21.0,-143.0,169.0,1402.0,-233.0,0
-13.0,-2.0,-125.0,-99.0,1221.0,-103.0,0
-31.0,42.0,-126.0,-353.0,956.0,59.0,0
-73.0,40.0,-122.0,-534.0,637.0,249.0,0
-115.0,51.0,-130.0,-616.0,322.0,439.0,0
-150.0,55.0,-141.0,-649.0,53.0,612.0,0
-188.0,56.0,-128.0,-654.0,-142.0,797.0,0
-212.0,57.0,-112.0,-612.0,-288.0,915.0,0
-227.0,52.0,-87.0,-519.0,-382.0,978.0,0
-223.0,52.0,-73.0,-370.0,-446.0,977.0,0
-205.0,34.0,-65.0,-183.0,-461.0,942.0,0
-174.0,46.0,-39.0,14.0,-418.0,864.0,0
-139.0,47.0,-17.0,201.0,-346.0,755.0,0
-93.0,53.0,0.0,378.0,-281.0,602.0,0
-34.0,60.0,10.0,525.0,-231.0,444.0,0
16.0,68.0,15.0,624.0,-185.0,287.0,0
66.0,79.0,14.0,678.0,-141.0,126.0,0
89.0,77.0,9.0,672.0,-86.0,0.0,0
114.0,84.0,-9.0,601.0,-32.0,-102.0,0
119.0,85.0,-48.0,500.0,31.0,-195.0,0
107.0,83.0,-86.0,318.0,107.0,-258.0,0
105.0,82.0,-107.0,95.0,190.0,-278.0,0
89.0,73.0,-139.0,-133.0,265.0,-277.0,0
80.0,45.0,-171.0,-320.0,308.0,-284.0,0
73.0,-9.0,-175.0,-468.0,326.0,-286.0,0
71.0,-69.0,-167.0,-573.0,329.0,-289.0,0
63.0,-145.0,-169.0,-630.0,331.0,-286.0,0
49.0,-216.0,-172.0,-709.0,343.0,-264.0,0
45.0,-297.0,-144.0,-827.0,358.0,-212.0,0
36.0,-376.0,-112.0,-854.0,362.0,-156.0,0
2.0,-449.0,-89.0,-748.0,362.0,-103.0,0
-45.0,-515.0,-100.0,-535.0,404.0,-46.0,0
-103.0,-549.0,-85.0,-303.0,498.0,33.0,0
-143.0,-569.0,-71.0,-99.0,593.0,121.0,0
-160.0,-587.0,-37.0,90.0,632.0,197.0,0
-146.0,-601.0,-12.0,275.0,616.0,234.0,0
-119.0,-605.0,1.0,432.0,585.0,250.0,0
-105.0,-598.0,2.0,544.0,524.0,243.0,0
-98.0,-579.0,-3.0,623.0,429.0,244.0,0
-66.0,-573.0,-15.0,645.0,291.0,252.0,0
-49.0,-569.0,-28.0,632.0,154.0,271.0,0
-24.0,-543.0,-46.0,592.0,44.0,291.0,0
7.0,-527.0,-47.0,542.0,-30.0,333.0,0
30.0,-511.0,-48.0,487.0,-67.0,370.0,0
45.0,-488.0,-37.0,450.0,-65.0,396.0,0
46.0,-462.0,-21.0,436.0,-31.0,407.0,0
43.0,-442.0,-6.0,435.0,26.0,426.0,0
36.0,-424.0,6.0,435.0,106.0,441.0,0
23.0,-407.0,18.0,408.0,220.0,453.0,0
13.0,-382.0,21.0,371.0,290.0,456.0,0
10.0,-360.0,18.0,311.0,340.0,460.0,0
15.0,-336.0,6.0,208.0,380.0,448.0,0
11.0,-315.0,-1.0,79.0,420.0,441.0,0
9.0,-287.0,-11.0,-52.0,462.0,428.0,0
14.0,-285.0,-22.0,-162.0,499.0,407.0,0
19.0,-273.0,-31.0,-242.0,540.0,360.0,0
15.0,-262.0,-38.0,-293.0,585.0,300.0,0
18.0,-253.0,-48.0,-325.0,636.0,202.0,0
15.0,-239.0,-52.0,-315.0,705.0,112.0,0
15.0,-224.0,-56.0,-262.0,769.0,25.0,0
12.0,-206.0,-54.0,-159.0,835.0,-42.0,0
7.0,-184.0,-51.0,-17.0,896.0,-87.0,0
1.0,-162.0,-43.0,127.0,939.0,-121.0,0
-12.0,-150.0,-37.0,260.0,957.0,-140.0,0
-12.0,-129.0,-38.0,362.0,943.0,-143.0,0
-24.0,-112.0,-30.0,441.0,909.0,-146.0,0
-26.0,-98.0,-43.0,485.0,860.0,-154.0,0
-29.0,-70.0,-72.0,490.0,782.0,-207.0,0
-39.0,-40.0,-83.0,446.0,639.0,-271.0,0
-62.0,-6.0,-77.0,375.0,510.0,-343.0,0
-63.0,22.0,-75.0,304.0,407.0,-379.0,0
-47.0,24.0,-81.0,260.0,357.0,-384.0,0
-9.0,28.0,-92.0,262.0,418.0,-395.0,0
22.0,22.0,-104.0,309.0,589.0,-472.0,0
31.0,-11.0,-90.0,363.0,815.0,-564.0,0
31.0,-34.0,-93.0,392.0,1001.0,-631.0,0
47.0,-64.0,-77.0,417.0,1063.0,-650.0,0
75.0,-90.0,-68.0,463.0,989.0,-639.0,0
106.0,-109.0,-85.0,498.0,807.0,-604.0,0
123.0,-124.0,-106.0,441.0,685.0,-558.0,0
127.0,-146.0,-144.0,262.0,674.0,-471.0,0
127.0,-179.0,-172.0,-40.0,752.0,-355.0,0
108.0,-212.0,-168.0,-396.0,845.0,-228.0,0
89.0,-256.0,-139.0,-674.0,893.0,-118.0,0
74.0,-289.0,-118.0,-777.0,865.0,-25.0,0
61.0,-305.0,-105.0,-684.0,766.0,47.0,0
58.0,-320.0,-100.0,-458.0,655.0,116.0,0
51.0,-324.0,-117.0,-190.0,603.0,162.0,0
41.0,-323.0,-127.0,32.0,653.0,189.0,0
22.0,-317.0,-125.0,176.0,760.0,176.0,0
-2.0,-313.0,-109.0,203.0,879.0,141.0,0
-21.0,-311.0,-88.0,182.0,951.0,86.0,0
-34.0,-320.0,-75.0,148.0,953.0,35.0,0
-42.0,-321.0,-64.0,118.0,900.0,-8.0,0
-48.0,-327.0,-65.0,109.0,820.0,-26.0,0
-52.0,-325.0,-64.0,128.0,735.0,-45.0,0
-47.0,-304.0,-89.0,167.0,658.0,-71.0,0
-51.0,-302.0,-74.0,223.0,595.0,-108.0,0
-43.0,-279.0,-78.0,286.0,549.0,-143.0,0
-34.0,-261.0,-78.0,342.0,519.0,-174.0,0
-24.0,-240.0,-73.0,371.0,510.0,-204.0,0
-14.0,-221.0,-65.0,380.0,520.0,-236.0,0
-8.0,-205.0,-62.0,367.0,552.0,-262.0,0
1.0,-192.0,-60.0,339.0,597.0,-283.0,0
15.0,-178.0,-46.0,307.0,637.0,-290.0,0
23.0,-166.0,-48.0,269.0,659.0,-299.0,0
35.0,-155.0,-46.0,219.0,660.0,-295.0,0
41.0,-153.0,-43.0,159.0,643.0,-290.0,0
40.0,-152.0,-45.0,100.0,617.0,-262.0,0
43.0,-158.0,-51.0,25.0,582.0,-233.0,0
48.0,-159.0,-47.0,-34.0,553.0,-203.0,0
55.0,-172.0,-54.0,-79.0,537.0,-186.0,0
59.0,-179.0,-55.0,-123.0,530.0,-171.0,0
62.0,-186.0,-60.0,-159.0,530.0,-168.0,0
61.0,-191.0,-62.0,-182.0,531.0,-164.0,0
58.0,-185.0,-63.0,-192.0,525.0,-167.0,0
56.0,-189.0,-62.0,-194.0,515.0,-170.0,0
51.0,-184.0,-65.0,-190.0,505.0,-180.0,0
41.0,-174.0,-58.0,-181.0,501.0,-182.0,0
47.0,-184.0,-62.0,-171.0,507.0,-187.0,0
44.0,-178.0,-57.0,-157.0,522.0,-190.0,0
36.0,-174.0,-59.0,-133.0,540.0,-197.0,0
37.0,-176.0,-59.0,-114.0,558.0,-207.0,0
35.0,-174.0,-53.0,-110.0,575.0,-221.0,0
37.0,-177.0,-55.0,-114.0,587.0,-227.0,0
33.0,-173.0,-54.0,-126.0,595.0,-233.0,0
32.0,-170.0,-58.0,-142.0,599.0,-231.0,0
35.0,-176.0,-59.0,-169.0,602.0,-229.0,0
35.0,-174.0,-57.0,-209.0,611.0,-222.0,0
39.0,-183.0,-55.0,-249.0,626.0,-215.0,0
42.0,-183.0,-55.0,-281.0,637.0,-209.0,0
46.0,-185.0,-54.0,-278.0,644.0,-209.0,0
50.0,-192.0,-51.0,-265.0,641.0,-202.0,0
52.0,-190.0,-52.0,-247.0,629.0,-190.0,0
54.0,-195.0,-53.0,-224.0,620.0,-172.0,0
62.0,-198.0,-51.0,-201.0,616.0,-155.0,0
65.0,-196.0,-56.0,-181.0,615.0,-140.0,0
63.0,-199.0,-56.0,-165.0,621.0,-132.0,0
64.0,-204.0,-56.0,-159.0,622.0,-116.0,0
62.0,-216.0,-46.0,-153.0,617.0,-99.0,0
63.0,-201.0,-58.0,-151.0,608.0,-87.0,0
62.0,-204.0,-63.0,-151.0,606.0,-79.0,0
59.0,-208.0,-65.0,-163.0,613.0,-71.0,0
57.0,-207.0,-62.0,-183.0,632.0,-63.0,0
54.0,-213.0,-67.0,-206.0,661.0,-50.0,0
56.0,-216.0,-71.0,-232.0,693.0,-41.0,0
53.0,-220.0,-73.0,-255.0,730.0,-30.0,0
53.0,-225.0,-67.0,-272.0,766.0,-23.0,0
52.0,-225.0,-73.0,-290.0,797.0,-11.0,0
54.0,-231.0,-72.0,-302.0,827.0,-5.0,0
62.0,-215.0,-84.0,-305.0,853.0,2.0,0
59.0,-238.0,-73.0,-299.0,873.0,9.0,0
61.0,-238.0,-70.0,-289.0,893.0,23.0,0
64.0,-241.0,-65.0,-274.0,911.0,36.0,0
66.0,-243.0,-67.0,-264.0,929.0,54.0,0
72.0,-244.0,-68.0,-248.0,949.0,70.0,0
75.0,-246.0,-75.0,-231.0,971.0,89.0,0
73.0,-246.0,-75.0,-215.0,998.0,106.0,0
76.0,-248.0,-77.0,-202.0,1026.0,124.0,0
74.0,-252.0,-75.0,-192.0,1056.0,136.0,0
70.0,-253.0,-82.0,-177.0,1097.0,143.0,0
75.0,-252.0,-76.0,-168.0,1136.0,150.0,0
56.0,-248.0,-81.0,-164.0,1172.0,156.0,0
55.0,-250.0,-82.0,-165.0,1206.0,161.0,0
50.0,-247.0,-75.0,-169.0,1237.0,168.0,0
48.0,-249.0,-70.0,-171.0,1268.0,172.0,0
47.0,-253.0,-66.0,-169.0,1299.0,180.0,0
46.0,-256.0,-64.0,-155.0,1330.0,190.0,0
43.0,-255.0,-59.0,-135.0,1359.0,205.0,0
47.0,-261.0,-56.0,-104.0,1384.0,222.0,0
45.0,-257.0,-58.0,-69.0,1407.0,250.0,0
49.0,-260.0,-54.0,-31.0,1419.0,273.0,0
45.0,-250.0,-64.0,-7.0,1427.0,299.0,0
48.0,-254.0,-51.0,11.0,1430.0,320.0,0
48.0,-255.0,-54.0,25.0,1430.0,343.0,0
45.0,-249.0,-51.0,33.0,1434.0,361.0,0
44.0,-243.0,-54.0,42.0,1445.0,380.0,0
42.0,-236.0,-53.0,53.0,1462.0,390.0,0
40.0,-230.0,-45.0,66.0,1489.0,400.0,0
43.0,-228.0,-51.0,80.0,1519.0,406.0,0
33.0,-226.0,-49.0,95.0,1557.0,414.0,0
35.0,-223.0,-47.0,104.0,1587.0,418.0,0
30.0,-224.0,-42.0,105.0,1615.0,425.0,0
25.0,-237.0,-37.0,105.0,1633.0,429.0,0
25.0,-228.0,-31.0,107.0,1646.0,432.0,0
18.0,-227.0,-31.0,116.0,1655.0,432.0,0
13.0,-231.0,-25.0,124.0,1659.0,430.0,0
7.0,-230.0,-24.0,131.0,1655.0,421.0,0
2.0,-233.0,-17.0,138.0,1645.0,410.0,0
-5.0,-236.0,-22.0,139.0,1632.0,390.0,0
-11.0,-239.0,-16.0,134.0,1610.0,365.0,0
-13.0,-241.0,-12.0,127.0,1595.0,341.0,0
-14.0,-242.0,-20.0,118.0,1582.0,318.0,0
-6.0,-250.0,-14.0,108.0,1577.0,295.0,0
10.0,-254.0,-23.0,100.0,1575.0,275.0,0
-16.0,-258.0,-17.0,95.0,1564.0,253.0,0
-15.0,-259.0,-23.0,92.0,1537.0,240.0,0
-15.0,-264.0,-28.0,88.0,1494.0,227.0,0
-13.0,-270.0,-33.0,83.0,1443.0,219.0,0
-13.0,-275.0,-39.0,77.0,1397.0,206.0,0
-6.0,-282.0,-49.0,70.0,1362.0,190.0,0
-2.0,-293.0,-47.0,57.0,1334.0,168.0,0
4.0,-299.0,-56.0,54.0,1319.0,141.0,0
10.0,-302.0,-60.0,49.0,1305.0,104.0,0
26.0,-300.0,-62.0,53.0,1293.0,63.0,0
40.0,-302.0,-80.0,52.0,1291.0,15.0,0
47.0,-282.0,-88.0,33.0,1303.0,-31.0,0
49.0,-268.0,-103.0,1.0,1322.0,-82.0,0
49.0,-253.0,-103.0,-30.0,1332.0,-129.0,0
48.0,-241.0,-98.0,-56.0,1335.0,-175.0,0
49.0,-232.0,-94.0,-68.0,1329.0,-211.0,0
43.0,-220.0,-82.0,-48.0,1315.0,-230.0,0
39.0,-208.0,-69.0,-4.0,1301.0,-233.0,0
27.0,-201.0,-53.0,53.0,1286.0,-222.0,0
22.0,-205.0,-46.0,114.0,1268.0,-194.0,0
14.0,-209.0,-24.0,151.0,1244.0,-155.0,0
6.0,-215.0,-42.0,153.0,1217.0,-103.0,0
0.0,-216.0,-41.0,114.0,1179.0,-46.0,0
-11.0,-223.0,-43.0,48.0,1135.0,11.0,0
-16.0,-229.0,-47.0,-31.0,1088.0,60.0,0
-23.0,-238.0,-43.0,-107.0,1044.0,107.0,0
-20.0,-247.0,-47.0,-171.0,1016.0,133.0,0
-17.0,-258.0,-48.0,-204.0,1021.0,146.0,0
-15.0,-260.0,-55.0,-215.0,1050.0,146.0,0
-12.0,-268.0,-58.0,-208.0,1097.0,135.0,0
-12.0,-270.0,-58.0,-185.0,1155.0,110.0,0
9.0,-263.0,-70.0,-153.0,1217.0,81.0,0
8.0,-277.0,-56.0,-114.0,1278.0,47.0,0
12.0,-278.0,-56.0,-71.0,1337.0,14.0,0
16.0,-276.0,-53.0,-27.0,1392.0,-15.0,0
20.0,-276.0,-55.0,12.0,1445.0,-42.0,0
22.0,-277.0,-52.0,43.0,1512.0,-53.0,0
26.0,-278.0,-51.0,54.0,1571.0,-61.0,0
28.0,-276.0,-51.0,54.0,1636.0,-60.0,0
26.0,-274.0,-43.0,50.0,1700.0,-54.0,0
22.0,-272.0,-42.0,42.0,1761.0,-49.0,0
26.0,-275.0,-39.0,32.0,1818.0,-43.0,0
15.0,-269.0,-39.0,18.0,1870.0,-37.0,0
20.0,-274.0,-34.0,10.0,1922.0,-29.0,0
18.0,-273.0,-35.0,16.0,1971.0,-21.0,0
17.0,-267.0,-40.0,25.0,2018.0,-16.0,0
9.0,-264.0,-38.0,32.0,2070.0,-12.0,0
10.0,-258.0,-42.0,30.0,2108.0,-10.0,0
3.0,-256.0,-42.0,19.0,2145.0,-5.0,0
-1.0,-250.0,-46.0,8.0,2174.0,-1.0,0
3.0,-245.0,-44.0,-3.0,2199.0,2.0,0
-5.0,-244.0,-52.0,-13.0,2222.0,4.0,0
-9.0,-237.0,-56.0,-27.0,2241.0,4.0,0
-5.0,-217.0,-59.0,-40.0,2254.0,7.0,0
-11.0,-235.0,-47.0,-52.0,2266.0,7.0,0
-9.0,-237.0,-48.0,-61.0,2278.0,5.0,0
-8.0,-229.0,-48.0,-67.0,2295.0,-2.0,0
-7.0,-231.0,-45.0,-77.0,2313.0,-9.0,0
-6.0,-231.0,-51.0,-93.0,2334.0,-16.0,0
-6.0,-228.0,-49.0,-114.0,2354.0,-21.0,0
-4.0,-230.0,-52.0,-138.0,2374.0,-26.0,0
-3.0,-231.0,-50.0,-168.0,2390.0,-30.0,0
-4.0,-233.0,-56.0,-196.0,2406.0,-34.0,0
-8.0,-229.0,-46.0,-228.0,2420.0,-34.0,0
-4.0,-239.0,-45.0,-256.0,2434.0,-36.0,0
-1.0,-236.0,-50.0,-280.0,2449.0,-35.0,0
1.0,-239.0,-56.0,-303.0,2466.0,-34.0,0
0.0,-240.0,-55.0,-315.0,2480.0,-31.0,0
1.0,-245.0,-54.0,-323.0,2494.0,-25.0,0
3.0,-245.0,-54.0,-328.0,2509.0,-20.0,0
4.0,-246.0,-53.0,-329.0,2525.0,-17.0,0
2.0,-251.0,-60.0,-325.0,2539.0,-14.0,0
5.0,-254.0,-61.0,-316.0,2548.0,-11.0,0
-2.0,-255.0,-58.0,-305.0,2548.0,-7.0,0
-8.0,-246.0,-63.0,-298.0,2538.0,-5.0,0
-7.0,-255.0,-64.0,-292.0,2520.0,3.0,0
-13.0,-254.0,-58.0,-286.0,2490.0,8.0,0
-15.0,-252.0,-62.0,-283.0,2469.0,11.0,0
-15.0,-251.0,-62.0,-287.0,2454.0,19.0,0
-16.0,-251.0,-60.0,-292.0,2443.0,26.0,0
-18.0,-250.0,-64.0,-295.0,2433.0,30.0,0
-21.0,-250.0,-67.0,-296.0,2430.0,33.0,0
-24.0,-250.0,-62.0,-297.0,2427.0,35.0,0
-25.0,-246.0,-63.0,-299.0,2424.0,40.0,0
-26.0,-251.0,-62.0,-305.0,2419.0,44.0,0
-16.0,-261.0,-51.0,-314.0,2417.0,49.0,0
-20.0,-259.0,-59.0,-316.0,2420.0,49.0,0
-20.0,-262.0,-53.0,-303.0,2420.0,46.0,0
-21.0,-268.0,-53.0,-286.0,2421.0,47.0,0
-16.0,-267.0,-50.0,-259.0,2422.0,47.0,0
-12.0,-266.0,-50.0,-226.0,2429.0,46.0,0
-7.0,-262.0,-47.0,-188.0,2441.0,47.0,0
-2.0,-262.0,-50.0,-150.0,2463.0,44.0,0
6.0,-260.0,-40.0,-108.0,2496.0,34.0,0
18.0,-253.0,-43.0,-70.0,2535.0,18.0,0
23.0,-252.0,-45.0,-34.0,2579.0,-2.0,0
22.0,-248.0,-54.0,-8.0,2635.0,-31.0,0
36.0,-239.0,-44.0,10.0,2679.0,-55.0,0
45.0,-238.0,-47.0,16.0,2717.0,-88.0,0
47.0,-230.0,-52.0,10.0,2748.0,-126.0,0
47.0,-230.0,-56.0,-12.0,2770.0,-161.0,0
42.0,-227.0,-58.0,-34.0,2780.0,-184.0,0
31.0,-224.0,-66.0,-66.0,2778.0,-202.0,0
27.0,-225.0,-66.0,-110.0,2759.0,-214.0,0
17.0,-227.0,-71.0,-160.0,2727.0,-223.0,0
7.0,-235.0,-83.0,-212.0,2697.0,-222.0,0
-6.0,-239.0,-82.0,-265.0,2678.0,-207.0,0
-4.0,-238.0,-102.0,-326.0,2666.0,-188.0,0
-19.0,-263.0,-89.0,-370.0,2649.0,-166.0,0
-32.0,-273.0,-88.0,-405.0,2623.0,-142.0,0
-33.0,-285.0,-89.0,-426.0,2590.0,-122.0,0
-37.0,-293.0,-92.0,-430.0,2552.0,-97.0,0
-43.0,-296.0,-92.0,-412.0,2510.0,-72.0,0
-48.0,-298.0,-92.0,-376.0,2463.0,-43.0,0
-52.0,-296.0,-86.0,-326.0,2404.0,-13.0,0
-50.0,-297.0,-87.0,-262.0,2327.0,25.0,0
-53.0,-291.0,-89.0,-193.0,2210.0,71.0,0
-45.0,-281.0,-84.0,-114.0,2101.0,102.0,0
-44.0,-276.0,-83.0,-53.0,1999.0,127.0,0
-35.0,-263.0,-93.0,-1.0,1920.0,138.0,0
-29.0,-254.0,-85.0,45.0,1863.0,145.0,0
-20.0,-245.0,-85.0,87.0,1824.0,148.0,0
-15.0,-238.0,-76.0,122.0,1806.0,148.0,0
-8.0,-232.0,-71.0,151.0,1796.0,135.0,0
-5.0,-228.0,-64.0,163.0,1789.0,112.0,0
0.0,-225.0,-57.0,151.0,1780.0,98.0,0
8.0,-227.0,-49.0,127.0,1767.0,89.0,0
19.0,-228.0,-37.0,94.0,1742.0,84.0,0
25.0,-226.0,-35.0,70.0,1721.0,77.0,0
30.0,-216.0,-34.0,53.0,1707.0,66.0,0
45.0,-226.0,-29.0,35.0,1703.0,54.0,0
50.0,-222.0,-27.0,16.0,1712.0,39.0,0
59.0,-226.0,-27.0,-4.0,1729.0,25.0,0
62.0,-228.0,-32.0,-29.0,1755.0,6.0,0
66.0,-231.0,-33.0,-56.0,1781.0,-17.0,0
59.0,-233.0,-42.0,-88.0,1805.0,-39.0,0
53.0,-236.0,-45.0,-129.0,1820.0,-64.0,0
43.0,-241.0,-47.0,-186.0,1815.0,-80.0,0
39.0,-243.0,-47.0,-233.0,1796.0,-86.0,0
24.0,-238.0,-48.0,-272.0,1765.0,-80.0,0
15.0,-256.0,-44.0,-293.0,1731.0,-63.0,0
11.0,-261.0,-44.0,-301.0,1702.0,-45.0,0
7.0,-269.0,-41.0,-295.0,1678.0,-27.0,0
1.0,-273.0,-34.0,-270.0,1663.0,-14.0,0
-6.0,-270.0,-30.0,-229.0,1654.0,-8.0,0
-5.0,-272.0,-31.0,-177.0,1651.0,-7.0,0
-8.0,-267.0,-29.0,-121.0,1647.0,-17.0,0
-13.0,-260.0,-24.0,-52.0,1638.0,-32.0,0
-10.0,-252.0,-29.0,-6.0,1625.0,-48.0,0
-9.0,-250.0,-27.0,28.0,1610.0,-63.0,0
-11.0,-245.0,-18.0,42.0,1594.0,-78.0,0
-8.0,-234.0,-22.0,46.0,1582.0,-92.0,0
-1.0,-231.0,-20.0,50.0,1571.0,-103.0,0
3.0,-234.0,-17.0,50.0,1561.0,-122.0,0
11.0,-236.0,-10.0,46.0,1558.0,-142.0,0
17.0,-238.0,-2.0,37.0,1551.0,-164.0,0
21.0,-237.0,2.0,34.0,1541.0,-189.0,0
20.0,-245.0,3.0,38.0,1518.0,-203.0,0
24.0,-250.0,2.0,38.0,1482.0,-208.0,0
22.0,-249.0,2.0,23.0,1428.0,-209.0,0
31.0,-251.0,-1.0,5.0,1362.0,-197.0,0
24.0,-260.0,5.0,-8.0,1290.0,-180.0,0
25.0,-261.0,0.0,-12.0,1217.0,-160.0,0
21.0,-259.0,-3.0,-3.0,1154.0,-141.0,0
21.0,-265.0,-8.0,15.0,1102.0,-117.0,0
18.0,-262.0,-6.0,39.0,1060.0,-94.0,0
17.0,-258.0,-9.0,68.0,1029.0,-73.0,0
14.0,-257.0,-13.0,99.0,1000.0,-48.0,0
17.0,-256.0,-14.0,137.0,979.0,-25.0,0
18.0,-252.0,-23.0,165.0,959.0,-8.0,0
20.0,-250.0,-19.0,189.0,943.0,5.0,0
19.0,-247.0,-17.0,206.0,933.0,9.0,0
26.0,-239.0,-23.0,218.0,930.0,8.0,0
25.0,-247.0,-25.0,222.0,938.0,-2.0,0
29.0,-247.0,-16.0,222.0,947.0,-12.0,0
33.0,-246.0,-16.0,219.0,955.0,-23.0,0
35.0,-246.0,-23.0,218.0,956.0,-34.0,0
37.0,-249.0,-19.0,210.0,952.0,-48.0,0
42.0,-248.0,-18.0,194.0,940.0,-56.0,0
48.0,-249.0,-19.0,180.0,925.0,-66.0,0
49.0,-251.0,-17.0,165.0,914.0,-70.0,0
52.0,-253.0,-17.0,145.0,902.0,-73.0,0
54.0,-252.0,-19.0,121.0,887.0,-73.0,0
60.0,-244.0,-22.0,101.0,874.0,-72.0,0
55.0,-253.0,-18.0,85.0,864.0,-67.0,0
54.0,-254.0,-19.0,73.0,860.0,-64.0,0
51.0,-251.0,-27.0,68.0,860.0,-59.0,0
51.0,-249.0,-30.0,67.0,863.0,-58.0,0
47.0,-246.0,-30.0,69.0,868.0,-55.0,0
42.0,-244.0,-32.0,69.0,872.0,-55.0,0
40.0,-244.0,-31.0,68.0,876.0,-53.0,0
39.0,-248.0,-30.0,65.0,880.0,-54.0,0
32.0,-246.0,-24.0,63.0,885.0,-52.0,0
31.0,-248.0,-22.0,60.0,892.0,-51.0,0
30.0,-250.0,-22.0,63.0,894.0,-45.0,0
30.0,-254.0,-9.0,68.0,890.0,-41.0,0
30.0,-256.0,-10.0,74.0,875.0,-34.0,0
29.0,-256.0,-7.0,78.0,857.0,-29.0,0
28.0,-256.0,-9.0,81.0,831.0,-21.0,0
25.0,-249.0,-13.0,80.0,809.0,-17.0,0
29.0,-243.0,-13.0,78.0,785.0,-14.0,0
33.0,-241.0,-15.0,75.0,765.0,-16.0,0
29.0,-232.0,-19.0,58.0,749.0,-20.0,0
32.0,-233.0,-22.0,42.0,741.0,-27.0,0
33.0,-230.0,-20.0,25.0,739.0,-30.0,0
38.0,-234.0,-17.0,6.0,742.0,-36.0,0
38.0,-236.0,-23.0,-11.0,749.0,-37.0,0
39.0,-236.0,-23.0,-23.0,759.0,-40.0,0
43.0,-243.0,-21.0,-29.0,770.0,-40.0,0
40.0,-245.0,-16.0,-27.0,774.0,-39.0,0
40.0,-248.0,-17.0,-25.0,769.0,-25.0,0
37.0,-252.0,-20.0,-27.0,757.0,-11.0,0
36.0,-257.0,-12.0,-29.0,737.0,7.0,0
34.0,-254.0,-17.0,-27.0,714.0,23.0,0
37.0,-260.0,-18.0,-18.0,694.0,41.0,0
24.0,-247.0,-17.0,-7.0,671.0,53.0,0
23.0,-253.0,-12.0,2.0,645.0,66.0,0
21.0,-255.0,-8.0,7.0,619.0,74.0,0
22.0,-257.0,-17.0,13.0,589.0,80.0,0
18.0,-258.0,-20.0,7.0,572.0,77.0,0
21.0,-261.0,-18.0,-10.0,562.0,72.0,0
23.0,-265.0,-32.0,-36.0,552.0,62.0,0
30.0,-270.0,-33.0,-68.0,547.0,47.0,0
25.0,-273.0,-35.0,-101.0,548.0,26.0,0
29.0,-276.0,-40.0,-128.0,545.0,10.0,0
29.0,-278.0,-48.0,-148.0,533.0,-7.0,0
28.0,-281.0,-55.0,-155.0,515.0,-24.0,0
25.0,-285.0,-41.0,-147.0,499.0,-36.0,0
20.0,-283.0,-42.0,-124.0,487.0,-49.0,0
15.0,-284.0,-39.0,-83.0,479.0,-58.0,0
15.0,-282.0,-34.0,-48.0,474.0,-65.0,0
7.0,-275.0,-33.0,-11.0,472.0,-80.0,0
6.0,-277.0,-28.0,24.0,472.0,-91.0,0
0.0,-266.0,-28.0,58.0,477.0,-105.0,0
-4.0,-261.0,-24.0,87.0,479.0,-118.0,0
-5.0,-255.0,-21.0,104.0,481.0,-136.0,0
-12.0,-251.0,-17.0,117.0,475.0,-144.0,0
-11.0,-247.0,-4.0,129.0,462.0,-149.0,0
-16.0,-238.0,-17.0,144.0,441.0,-148.0,0
-15.0,-230.0,-13.0,156.0,409.0,-143.0,0
-11.0,-221.0,-14.0,166.0,378.0,-133.0,0
-12.0,-213.0,-15.0,173.0,346.0,-123.0,0
-11.0,-210.0,-19.0,171.0,315.0,-111.0,0
-8.0,-205.0,-16.0,162.0,285.0,-94.0,0
-2.0,-204.0,-8.0,141.0,255.0,-73.0,0
1.0,-203.0,-14.0,110.0,225.0,-57.0,0
2.0,-205.0,-10.0,70.0,197.0,-40.0,0
3.0,-209.0,-8.0,30.0,169.0,-26.0,0
-3.0,-211.0,4.0,-6.0,142.0,-7.0,0
13.0,-218.0,-5.0,-45.0,115.0,10.0,0
17.0,-225.0,-4.0,-72.0,97.0,30.0,0
21.0,-232.0,-10.0,-99.0,83.0,44.0,0
26.0,-239.0,-7.0,-121.0,77.0,62.0,0
29.0,-244.0,-1.0,-130.0,74.0,76.0,0
33.0,-245.0,-5.0,-135.0,79.0,91.0,0
37.0,-252.0,-8.0,-140.0,85.0,98.0,0
41.0,-250.0,-17.0,-146.0,93.0,104.0,0
39.0,-249.0,-15.0,-148.0,106.0,105.0,0
46.0,-253.0,-18.0,-143.0,115.0,112.0,0
32.0,-267.0,-18.0,-137.0,126.0,113.0,0
36.0,-255.0,-19.0,-130.0,134.0,113.0,0
40.0,-257.0,-21.0,-127.0,140.0,106.0,0
35.0,-256.0,-26.0,-118.0,148.0,102.0,0
33.0,-258.0,-27.0,-107.0,159.0,99.0,0
30.0,-260.0,-33.0,-105.0,171.0,109.0,0
32.0,-257.0,-32.0,-101.0,179.0,117.0,0
29.0,-257.0,-41.0,-97.0,188.0,122.0,0
25.0,-255.0,-44.0,-98.0,198.0,120.0,0
20.0,-252.0,-47.0,-100.0,209.0,127.0,0
18.0,-255.0,-49.0,-107.0,219.0,138.0,0
18.0,-248.0,-48.0,-129.0,223.0,142.0,0
5.0,-255.0,-50.0,-151.0,226.0,138.0,0
2.0,-258.0,-47.0,-172.0,230.0,135.0,0
-9.0,-260.0,-46.0,-184.0,231.0,127.0,0
-9.0,-261.0,-52.0,-189.0,226.0,105.0,0
-13.0,-267.0,-48.0,-196.0,212.0,77.0,0
-15.0,-269.0,-51.0,-207.0,196.0,67.0,0
-15.0,-270.0,-53.0,-218.0,173.0,63.0,0
-5.0,-274.0,-52.0,-227.0,139.0,54.0,0
21.0,-279.0,-50.0,-223.0,94.0,15.0,0
47.0,-283.0,-23.0,-223.0,77.0,-17.0,0
72.0,-275.0,-33.0,-210.0,107.0,-27.0,0
65.0,-267.0,-23.0,-176.0,151.0,-19.0,0
57.0,-263.0,-24.0,-119.0,182.0,-11.0,0
50.0,-260.0,-24.0,-64.0,194.0,-7.0,0
33.0,-249.0,-27.0,-20.0,190.0,-14.0,0
19.0,-242.0,-32.0,18.0,172.0,-19.0,0
7.0,-241.0,-28.0,36.0,148.0,-23.0,0
-2.0,-235.0,-32.0,44.0,122.0,-26.0,0
-9.0,-236.0,-27.0,43.0,101.0,-37.0,0
-13.0,-229.0,-22.0,30.0,90.0,-47.0,0
-13.0,-220.0,-34.0,18.0,86.0,-58.0,0
-21.0,-238.0,-16.0,-1.0,82.0,-57.0,0
-26.0,-240.0,-10.0,-24.0,68.0,-60.0,0
-24.0,-244.0,-6.0,-39.0,45.0,-53.0,0
-17.0,-249.0,-1.0,-39.0,12.0,-44.0,0
-17.0,-254.0,-2.0,-31.0,-28.0,-29.0,0
-15.0,-252.0,-4.0,-19.0,-73.0,-15.0,0
-11.0,-252.0,-7.0,-7.0,-118.0,-3.0,0
2.0,-248.0,-7.0,-3.0,-157.0,6.0,0
3.0,-251.0,-14.0,-9.0,-190.0,15.0,0
10.0,-249.0,-19.0,-16.0,-208.0,21.0,0
9.0,-230.0,-27.0,-24.0,-221.0,30.0,0
19.0,-244.0,-20.0,-31.0,-228.0,36.0,0
21.0,-247.0,-23.0,-38.0,-230.0,48.0,0
23.0,-247.0,-28.0,-51.0,-228.0,56.0,0
27.0,-252.0,-23.0,-66.0,-212.0,64.0,0
29.0,-253.0,-25.0,-72.0,-190.0,66.0,0
25.0,-254.0,-20.0,-63.0,-161.0,67.0,0
25.0,-255.0,-20.0,-42.0,-133.0,59.0,0
25.0,-256.0,-22.0,-12.0,-104.0,54.0,0
22.0,-254.0,-24.0,7.0,-83.0,42.0,0
19.0,-248.0,-30.0,15.0,-66.0,36.0,0
10.0,-242.0,-39.0,8.0,-50.0,25.0,0
21.0,-249.0,-34.0,-3.0,-36.0,17.0,0
17.0,-250.0,-34.0,-20.0,-25.0,7.0,0
17.0,-251.0,-31.0,-41.0,-20.0,1.0,0
14.0,-252.0,-31.0,-58.0,-21.0,-5.0,0
13.0,-254.0,-32.0,-69.0,-25.0,-7.0,0
10.0,-255.0,-34.0,-77.0,-33.0,-8.0,0
12.0,-259.0,-28.0,-85.0,-44.0,-5.0,0
8.0,-256.0,-25.0,-84.0,-48.0,-5.0,0
9.0,-257.0,-28.0,-82.0,-52.0,1.0,0
11.0,-256.0,-30.0,-76.0,-53.0,5.0,0
14.0,-266.0,-25.0,-70.0,-55.0,11.0,0
10.0,-256.0,-30.0,-63.0,-57.0,15.0,0
7.0,-253.0,-28.0,-54.0,-58.0,22.0,0
7.0,-253.0,-28.0,-47.0,-58.0,23.0,0
9.0,-248.0,-27.0,-42.0,-58.0,26.0,0
7.0,-248.0,-24.0,-42.0,-56.0,24.0,0
5.0,-246.0,-26.0,-44.0,-56.0,26.0,0
7.0,-243.0,-19.0,-51.0,-57.0,25.0,0
11.0,-246.0,-20.0,-55.0,-57.0,25.0,0
9.0,-243.0,-22.0,-65.0,-56.0,20.0,0
11.0,-242.0,-21.0,-75.0,-56.0,20.0,0
17.0,-240.0,-20.0,-89.0,-55.0,18.0,0
10.0,-244.0,-16.0,-101.0,-56.0,21.0,0
12.0,-247.0,-25.0,-112.0,-55.0,17.0,0
14.0,-247.0,-18.0,-117.0,-57.0,21.0,0
13.0,-251.0,-20.0,-118.0,-57.0,19.0,0
14.0,-251.0,-24.0,-117.0,-57.0,22.0,0
12.0,-252.0,-24.0,-113.0,-58.0,21.0,0
13.0,-250.0,-28.0,-111.0,-59.0,24.0,0
11.0,-251.0,-28.0,-107.0,-58.0,22.0,0
11.0,-253.0,-25.0,-101.0,-59.0,25.0,0
8.0,-254.0,-23.0,-96.0,-60.0,23.0,0
25.0,-235.0,-44.0,-93.0,-59.0,25.0,0
9.0,-253.0,-28.0,-89.0,-60.0,23.0,0
11.0,-253.0,-28.0,-88.0,-63.0,26.0,0
11.0,-252.0,-27.0,-89.0,-64.0,24.0,0
12.0,-252.0,-30.0,-89.0,-64.0,27.0,0
9.0,-254.0,-32.0,-85.0,-61.0,25.0,0
8.0,-250.0,-29.0,-84.0,-58.0,26.0,0
11.0,-252.0,-30.0,-82.0,-52.0,23.0,0
13.0,-248.0,-33.0,-81.0,-46.0,24.0,0
14.0,-251.0,-33.0,-81.0,-42.0,19.0,0
10.0,-256.0,-36.0,-81.0,-38.0,19.0,0
12.0,-252.0,-34.0,-82.0,-34.0,16.0,0
14.0,-252.0,-35.0,-83.0,-30.0,15.0,0
13.0,-254.0,-37.0,-83.0,-27.0,11.0,0
13.0,-252.0,-32.0,-83.0,-21.0,10.0,0
13.0,-255.0,-34.0,-82.0,-17.0,5.0,0
12.0,-251.0,-35.0,-81.0,-12.0,5.0,0
16.0,-253.0,-34.0,-77.0,-9.0,2.0,0
16.0,-252.0,-37.0,-76.0,-3.0,4.0,0
16.0,-251.0,-35.0,-71.0,4.0,-1.0,0
16.0,-253.0,-30.0,-65.0,11.0,1.0,0
20.0,-249.0,-21.0,-62.0,20.0,0.0,0
14.0,-249.0,-33.0,-58.0,26.0,1.0,0
15.0,-251.0,-32.0,-57.0,30.0,1.0,0
15.0,-250.0,-31.0,-58.0,38.0,2.0,0
14.0,-250.0,-28.0,-59.0,42.0,-1.0,0
14.0,-252.0,-28.0,-59.0,47.0,2.0,0
15.0,-253.0,-34.0,-58.0,50.0,-2.0,0
17.0,-251.0,-31.0,-57.0,53.0,0.0,0
16.0,-253.0,-30.0,-58.0,58.0,-3.0,0
15.0,-252.0,-31.0,-56.0,60.0,-1.0,0
19.0,-252.0,-31.0,-57.0,61.0,-4.0,0
24.0,-254.0,-29.0,-57.0,63.0,-2.0,0
15.0,-248.0,-33.0,-57.0,66.0,-5.0,0
15.0,-250.0,-32.0,-56.0,70.0,-7.0,0
16.0,-249.0,-35.0,-52.0,74.0,-10.0,0
17.0,-250.0,-31.0,-49.0,80.0,-10.0,0
17.0,-251.0,-34.0,-47.0,86.0,-13.0,0
18.0,-250.0,-28.0,-45.0,92.0,-13.0,0
19.0,-251.0,-33.0,-44.0,97.0,-14.0,0
16.0,-249.0,-23.0,-44.0,99.0,-14.0,0
18.0,-252.0,-34.0,-44.0,102.0,-17.0,0
17.0,-252.0,-35.0,-46.0,107.0,-16.0,0
23.0,-243.0,-47.0,-48.0,113.0,-16.0,0
20.0,-254.0,-32.0,-50.0,120.0,-14.0,0
18.0,-253.0,-35.0,-53.0,127.0,-14.0,0
17.0,-250.0,-32.0,-53.0,132.0,-11.0,0
19.0,-252.0,-33.0,-51.0,135.0,-14.0,0
20.0,-253.0,-30.0,-48.0,138.0,-13.0,0
17.0,-252.0,-31.0,-45.0,143.0,-16.0,0
18.0,-254.0,-35.0,-42.0,145.0,-14.0,0
18.0,-252.0,-37.0,-37.0,145.0,-17.0,0
17.0,-250.0,-33.0,-35.0,144.0,-16.0,0
17.0,-251.0,-33.0,-34.0,142.0,-18.0,0
24.0,-267.0,-18.0,-36.0,142.0,-18.0,0
17.0,-246.0,-32.0,-41.0,142.0,-21.0,0
17.0,-246.0,-29.0,-50.0,144.0,-18.0,0
17.0,-247.0,-29.0,-59.0,146.0,-21.0,0
15.0,-249.0,-31.0,-71.0,147.0,-18.0,0
16.0,-250.0,-31.0,-78.0,149.0,-20.0,0
17.0,-253.0,-30.0,-81.0,152.0,-17.0,0
18.0,-253.0,-28.0,-80.0,151.0,-20.0,0
15.0,-256.0,-31.0,-75.0,151.0,-18.0,0
17.0,-256.0,-33.0,-74.0,152.0,-19.0,0
19.0,-255.0,-29.0,-74.0,148.0,-14.0,0
25.0,-255.0,-29.0,-78.0,142.0,-15.0,0
19.0,-254.0,-26.0,-83.0,137.0,-11.0,0
17.0,-253.0,-31.0,-84.0,130.0,-12.0,0
17.0,-251.0,-33.0,-84.0,125.0,-9.0,0
15.0,-250.0,-31.0,-81.0,121.0,-11.0,0
16.0,-249.0,-34.0,-76.0,119.0,-8.0,0
14.0,-245.0,-38.0,-74.0,117.0,-9.0,0
16.0,-249.0,-40.0,-82.0,115.0,-9.0,0
13.0,-247.0,-32.0,-91.0,116.0,-14.0,0
18.0,-249.0,-37.0,-94.0,119.0,-14.0,0
15.0,-250.0,-30.0,-88.0,123.0,-17.0,0
18.0,-265.0,-23.0,-81.0,126.0,-15.0,0
17.0,-251.0,-27.0,-72.0,127.0,-18.0,0
16.0,-250.0,-32.0,-70.0,127.0,-13.0,0
16.0,-250.0,-32.0,-73.0,125.0,-14.0,0
17.0,-249.0,-31.0,-78.0,125.0,-10.0,0
22.0,-249.0,-35.0,-85.0,123.0,-12.0,0
17.0,-251.0,-33.0,-90.0,120.0,-9.0,0
15.0,-254.0,-33.0,-96.0,117.0,-10.0,0
20.0,-253.0,-34.0,-99.0,112.0,-7.0,0
17.0,-250.0,-35.0,-101.0,104.0,-10.0,0
22.0,-254.0,-35.0,-99.0,103.0,-6.0,0
19.0,-250.0,-37.0,-95.0,104.0,-7.0,0
18.0,-261.0,-31.0,-89.0,105.0,-4.0,0
12.0,-252.0,-32.0,-81.0,104.0,-6.0,0
17.0,-254.0,-40.0,-71.0,102.0,-4.0,0
14.0,-250.0,-39.0,-60.0,104.0,-8.0,0
16.0,-251.0,-40.0,-51.0,107.0,-7.0,0
17.0,-255.0,-35.0,-42.0,109.0,-10.0,0
19.0,-251.0,-37.0,-37.0,106.0,-7.0,0
18.0,-255.0,-39.0,-30.0,103.0,-10.0,0
18.0,-253.0,-39.0,-21.0,100.0,-8.0,0
12.0,-249.0,-34.0,-14.0,97.0,-11.0,0
16.0,-246.0,-58.0,-8.0,95.0,-10.0,0
17.0,-253.0,-41.0,-3.0,95.0,-13.0,0
20.0,-248.0,-39.0,-1.0,95.0,-9.0,0
20.0,-250.0,-40.0,-6.0,94.0,-10.0,0
20.0,-254.0,-41.0,-10.0,92.0,-9.0,0
21.0,-250.0,-41.0,-14.0,93.0,-12.0,0
20.0,-252.0,-40.0,-12.0,93.0,-10.0,0
15.0,-255.0,-37.0,-12.0,90.0,-12.0,0
18.0,-254.0,-39.0,-6.0,87.0,-10.0,0
14.0,-255.0,-46.0,-2.0,86.0,-14.0,0
30.0,-254.0,-40.0,2.0,85.0,-12.0,0
19.0,-253.0,-41.0,5.0,85.0,-15.0,0
17.0,-250.0,-39.0,7.0,86.0,-13.0,0
17.0,-251.0,-38.0,8.0,85.0,-15.0,0
21.0,-252.0,-36.0,10.0,84.0,-12.0,0
16.0,-253.0,-36.0,11.0,82.0,-14.0,0
17.0,-249.0,-33.0,14.0,81.0,-12.0,0
17.0,-249.0,-40.0,17.0,81.0,-15.0,0
15.0,-251.0,-39.0,20.0,80.0,-13.0,0
17.0,-249.0,-38.0,23.0,80.0,-16.0,0
14.0,-250.0,-37.0,23.0,80.0,-13.0,0
19.0,-252.0,-36.0,23.0,82.0,-14.0,0
21.0,-248.0,-38.0,21.0,81.0,-12.0,0
19.0,-250.0,-38.0,17.0,82.0,-13.0,0
20.0,-248.0,-43.0,13.0,80.0,-9.0,0
15.0,-247.0,-40.0,10.0,79.0,-10.0,0
17.0,-248.0,-40.0,7.0,79.0,-8.0,0
21.0,-249.0,-42.0,4.0,77.0,-11.0,0
18.0,-253.0,-40.0,4.0,77.0,-9.0,0
18.0,-249.0,-36.0,4.0,75.0,-12.0,0
20.0,-246.0,-44.0,7.0,74.0,-11.0,0
24.0,-252.0,-45.0,11.0,73.0,-15.0,0
22.0,-254.0,-36.0,11.0,74.0,-15.0,0
16.0,-250.0,-43.0,13.0,74.0,-18.0,0
20.0,-253.0,-43.0,13.0,75.0,-15.0,0
18.0,-252.0,-37.0,13.0,79.0,-18.0,0
19.0,-253.0,-43.0,13.0,80.0,-17.0,0
17.0,-251.0,-43.0,16.0,80.0,-20.0,0
19.0,-253.0,-37.0,17.0,81.0,-19.0,0
22.0,-255.0,-38.0,19.0,83.0,-20.0,0
20.0,-249.0,-42.0,20.0,83.0,-18.0,0
15.0,-249.0,-33.0,21.0,84.0,-20.0,0
17.0,-253.0,-37.0,22.0,84.0,-20.0,0
19.0,-246.0,-42.0,24.0,84.0,-20.0,0
26.0,-254.0,-36.0,25.0,85.0,-17.0,0
23.0,-251.0,-39.0,26.0,87.0,-19.0,0
18.0,-252.0,-40.0,25.0,86.0,-16.0,0
19.0,-250.0,-34.0,26.0,86.0,-19.0,0
19.0,-248.0,-36.0,25.0,87.0,-16.0,0
19.0,-248.0,-39.0,25.0,88.0,-18.0,0
15.0,-251.0,-35.0,25.0,88.0,-18.0,0
20.0,-249.0,-34.0,25.0,87.0,-20.0,0
20.0,-249.0,-36.0,28.0,86.0,-18.0,0
20.0,-251.0,-32.0,31.0,87.0,-22.0,0
9.0,-245.0,-38.0,32.0,86.0,-20.0,0
15.0,-248.0,-34.0,30.0,88.0,-22.0,0
19.0,-250.0,-34.0,29.0,88.0,-20.0,0
20.0,-252.0,-32.0,25.0,89.0,-22.0,0
22.0,-252.0,-33.0,19.0,91.0,-21.0,0
19.0,-253.0,-33.0,14.0,90.0,-23.0,0
19.0,-255.0,-34.0,12.0,92.0,-20.0,0
19.0,-251.0,-34.0,9.0,90.0,-20.0,0
17.0,-253.0,-36.0,11.0,88.0,-17.0,0
18.0,-253.0,-31.0,13.0,87.0,-18.0,0
21.0,-252.0,-33.0,20.0,85.0,-14.0,0
18.0,-257.0,-40.0,24.0,81.0,-16.0,0
17.0,-246.0,-36.0,29.0,80.0,-12.0,0
17.0,-250.0,-33.0,28.0,78.0,-14.0,0
16.0,-245.0,-35.0,26.0,78.0,-10.0,0
20.0,-245.0,-35.0,20.0,78.0,-12.0,0
17.0,-247.0,-33.0,13.0,79.0,-9.0,0
17.0,-249.0,-35.0,4.0,79.0,-11.0,0
18.0,-251.0,-30.0,-4.0,78.0,-7.0,0
21.0,-255.0,-35.0,-7.0,75.0,-10.0,0
19.0,-256.0,-36.0,-4.0,73.0,-7.0,0
17.0,-254.0,-35.0,0.0,72.0,-8.0,0
22.0,-266.0,-28.0,6.0,70.0,-6.0,0
19.0,-254.0,-32.0,15.0,68.0,-8.0,0
17.0,-251.0,-33.0,23.0,67.0,-6.0,0
20.0,-252.0,-30.0,30.0,70.0,-10.0,0
19.0,-248.0,-34.0,33.0,75.0,-11.0,0
20.0,-249.0,-35.0,33.0,80.0,-14.0,0
21.0,-247.0,-36.0,29.0,82.0,-12.0,0
20.0,-246.0,-40.0,19.0,83.0,-17.0,0
21.0,-252.0,-40.0,7.0,84.0,-15.0,0
17.0,-252.0,-36.0,2.0,88.0,-18.0,0
16.0,-253.0,-32.0,7.0,90.0,-16.0,0
19.0,-246.0,-37.0,18.0,94.0,-20.0,0
15.0,-250.0,-31.0,33.0,100.0,-17.0,0
17.0,-253.0,-28.0,47.0,103.0,-17.0,0
17.0,-249.0,-31.0,51.0,103.0,-13.0,0
17.0,-251.0,-30.0,52.0,103.0,-15.0,0
18.0,-251.0,-25.0,49.0,104.0,-13.0,0
16.0,-251.0,-30.0,43.0,103.0,-14.0,0
19.0,-254.0,-31.0,37.0,102.0,-11.0,0
18.0,-253.0,-25.0,35.0,100.0,-13.0,0
19.0,-253.0,-30.0,33.0,97.0,-10.0,0
19.0,-248.0,-29.0,35.0,94.0,-11.0,0
15.0,-235.0,-34.0,37.0,92.0,-8.0,0
18.0,-253.0,-31.0,40.0,90.0,-9.0,0
18.0,-253.0,-29.0,39.0,87.0,-5.0,0
18.0,-253.0,-29.0,39.0,86.0,-8.0,0
17.0,-254.0,-34.0,37.0,85.0,-5.0,0
17.0,-252.0,-28.0,39.0,83.0,-7.0,0
18.0,-253.0,-28.0,42.0,82.0,-4.0,0
17.0,-251.0,-30.0,44.0,84.0,-7.0,0
14.0,-250.0,-29.0,48.0,83.0,-5.0,0
19.0,-253.0,-27.0,50.0,83.0,-9.0,0
18.0,-248.0,-31.0,48.0,83.0,-8.0,0
26.0,-239.0,-35.0,43.0,84.0,-12.0,0
19.0,-248.0,-32.0,38.0,84.0,-11.0,0
17.0,-249.0,-32.0,28.0,86.0,-13.0,0
16.0,-246.0,-29.0,22.0,87.0,-10.0,0
18.0,-249.0,-29.0,18.0,89.0,-12.0,0
17.0,-250.0,-29.0,15.0,91.0,-11.0,0
19.0,-251.0,-29.0,14.0,91.0,-13.0,0
14.0,-251.0,-30.0,12.0,90.0,-12.0,0
15.0,-253.0,-27.0,11.0,88.0,-12.0,0
18.0,-253.0,-28.0,12.0,85.0,-9.0,0
18.0,-250.0,-35.0,16.0,82.0,-10.0,0
17.0,-254.0,-29.0,20.0,80.0,-8.0,0
16.0,-254.0,-30.0,25.0,80.0,-9.0,0
17.0,-254.0,-30.0,29.0,81.0,-7.0,0
16.0,-251.0,-28.0,34.0,85.0,-11.0,0
17.0,-252.0,-30.0,37.0,86.0,-8.0,0
19.0,-250.0,-31.0,41.0,90.0,-12.0,0
17.0,-255.0,-31.0,41.0,92.0,-10.0,0
17.0,-251.0,-24.0,42.0,94.0,-13.0,0
20.0,-254.0,-28.0,41.0,93.0,-13.0,0
18.0,-245.0,-27.0,41.0,93.0,-17.0,0
10.0,-254.0,-28.0,43.0,93.0,-16.0,0
17.0,-247.0,-28.0,43.0,93.0,-19.0,0
18.0,-249.0,-26.0,39.0,93.0,-20.0,0
21.0,-249.0,-29.0,34.0,92.0,-21.0,0
20.0,-248.0,-26.0,26.0,91.0,-19.0,0
24.0,-251.0,-30.0,17.0,92.0,-20.0,0
20.0,-249.0,-27.0,8.0,92.0,-17.0,0
16.0,-252.0,-28.0,0.0,93.0,-18.0,0
19.0,-251.0,-29.0,-6.0,93.0,-13.0,0
16.0,-252.0,-29.0,-10.0,94.0,-15.0,0
18.0,-250.0,-25.0,-8.0,93.0,-12.0,0
11.0,-256.0,-34.0,-4.0,93.0,-13.0,0
19.0,-253.0,-31.0,1.0,92.0,-11.0,0
18.0,-253.0,-28.0,5.0,91.0,-9.0,0
20.0,-251.0,-29.0,7.0,88.0,-5.0,0
19.0,-250.0,-28.0,9.0,87.0,-8.0,0
23.0,-251.0,-30.0,8.0,85.0,-5.0,0
19.0,-253.0,-28.0,6.0,88.0,-6.0,0
17.0,-250.0,-31.0,4.0,90.0,-4.0,0
17.0,-249.0,-27.0,0.0,93.0,-6.0,0
19.0,-248.0,-27.0,-2.0,95.0,-5.0,0
19.0,-252.0,-29.0,-4.0,96.0,-8.0,0
24.0,-247.0,-27.0,-4.0,99.0,-6.0,0
18.0,-251.0,-25.0,-2.0,98.0,-10.0,0
21.0,-252.0,-26.0,-2.0,97.0,-7.0,0
20.0,-250.0,-26.0,-2.0,95.0,-10.0,0
20.0,-251.0,-27.0,-4.0,95.0,-8.0,0
19.0,-250.0,-28.0,-7.0,95.0,-13.0,0
21.0,-249.0,-28.0,-8.0,98.0,-12.0,0
18.0,-248.0,-22.0,-9.0,99.0,-16.0,0
17.0,-248.0,-24.0,-12.0,100.0,-15.0,0
22.0,-252.0,-25.0,-12.0,101.0,-18.0,0
19.0,-250.0,-24.0,-14.0,103.0,-16.0,0
31.0,-256.0,-11.0,-14.0,107.0,-17.0,0
19.0,-250.0,-25.0,-13.0,107.0,-16.0,0
22.0,-250.0,-26.0,-13.0,110.0,-16.0,0
20.0,-247.0,-26.0,-15.0,110.0,-14.0,0
23.0,-251.0,-21.0,-18.0,109.0,-15.0,0
20.0,-248.0,-24.0,-23.0,109.0,-13.0,0
22.0,-245.0,-26.0,-28.0,106.0,-16.0,0
18.0,-248.0,-28.0,-30.0,107.0,-14.0,0
19.0,-250.0,-25.0,-31.0,106.0,-17.0,0
19.0,-251.0,-30.0,-29.0,106.0,-15.0,0
19.0,-249.0,-26.0,-28.0,107.0,-18.0,0
33.0,-245.0,-24.0,-25.0,106.0,-16.0,0
20.0,-255.0,-28.0,-23.0,106.0,-19.0,0
18.0,-252.0,-29.0,-23.0,104.0,-17.0,0
21.0,-249.0,-26.0,-21.0,103.0,-17.0,0
20.0,-251.0,-28.0,-19.0,103.0,-14.0,0
20.0,-250.0,-22.0,-24.0,101.0,-16.0,0
17.0,-247.0,-27.0,-29.0,100.0,-15.0,0
15.0,-250.0,-29.0,-35.0,99.0,-18.0,0
17.0,-253.0,-26.0,-41.0,99.0,-16.0,0
22.0,-254.0,-28.0,-47.0,97.0,-17.0,0
23.0,-254.0,-23.0,-51.0,95.0,-14.0,0
16.0,-239.0,-34.0,-51.0,94.0,-16.0,0
18.0,-253.0,-25.0,-48.0,93.0,-14.0,0
17.0,-253.0,-26.0,-42.0,93.0,-17.0,0
22.0,-254.0,-29.0,-32.0,97.0,-15.0,0
23.0,-251.0,-28.0,-24.0,100.0,-18.0,0
24.0,-250.0,-31.0,-14.0,103.0,-18.0,0
23.0,-248.0,-34.0,-10.0,104.0,-20.0,0
23.0,-249.0,-33.0,-11.0,104.0,-18.0,0
24.0,-250.0,-32.0,-17.0,103.0,-19.0,0
18.0,-254.0,-28.0,-22.0,104.0,-20.0,0
19.0,-254.0,-29.0,-23.0,109.0,-21.0,0
10.0,-264.0,-5.0,-14.0,112.0,-21.0,0
21.0,-254.0,-28.0,-1.0,115.0,-24.0,0
17.0,-251.0,-29.0,11.0,117.0,-21.0,0
16.0,-251.0,-28.0,19.0,114.0,-23.0,0
17.0,-250.0,-26.0,23.0,114.0,-22.0,0
19.0,-249.0,-30.0,21.0,115.0,-24.0,0
19.0,-250.0,-27.0,15.0,117.0,-22.0,0
20.0,-248.0,-23.0,6.0,116.0,-23.0,0
20.0,-250.0,-27.0,-2.0,113.0,-22.0,0
18.0,-249.0,-26.0,-10.0,110.0,-23.0,0
18.0,-247.0,-25.0,-15.0,103.0,-21.0,0
25.0,-243.0,-37.0,-18.0,96.0,-20.0,0
18.0,-248.0,-27.0,-21.0,92.0,-17.0,0
21.0,-253.0,-29.0,-20.0,90.0,-18.0,0
19.0,-250.0,-29.0,-23.0,89.0,-16.0,0
20.0,-250.0,-28.0,-22.0,89.0,-17.0,0
17.0,-250.0,-30.0,-23.0,90.0,-15.0,0
19.0,-251.0,-32.0,-21.0,94.0,-18.0,0
17.0,-251.0,-24.0,-18.0,96.0,-16.0,0
18.0,-252.0,-28.0,-14.0,98.0,-19.0,0
18.0,-252.0,-26.0,-10.0,100.0,-18.0,0
24.0,-256.0,-32.0,-5.0,100.0,-21.0,0
20.0,-250.0,-25.0,-4.0,100.0,-19.0,0
21.0,-250.0,-28.0,-5.0,102.0,-23.0,0
22.0,-247.0,-29.0,-12.0,100.0,-23.0,0
23.0,-247.0,-30.0,-21.0,99.0,-29.0,0
24.0,-247.0,-30.0,-32.0,99.0,-32.0,0
26.0,-244.0,-29.0,-45.0,99.0,-38.0,0
25.0,-243.0,-29.0,-60.0,101.0,-42.0,0
27.0,-243.0,-28.0,-75.0,108.0,-53.0,0
31.0,-242.0,-31.0,-93.0,113.0,-60.0,0
32.0,-241.0,-34.0,-117.0,121.0,-71.0,0
37.0,-242.0,-31.0,-147.0,131.0,-80.0,0
33.0,-245.0,-39.0,-182.0,147.0,-94.0,0
38.0,-245.0,-43.0,-224.0,172.0,-105.0,0
40.0,-248.0,-43.0,-264.0,194.0,-122.0,0
37.0,-244.0,-52.0,-305.0,215.0,-136.0,0
40.0,-248.0,-55.0,-342.0,234.0,-150.0,0
37.0,-247.0,-57.0,-374.0,247.0,-159.0,0
42.0,-251.0,-53.0,-402.0,255.0,-168.0,0
42.0,-250.0,-53.0,-419.0,256.0,-172.0,0
43.0,-251.0,-46.0,-422.0,253.0,-182.0,0
43.0,-251.0,-47.0,-415.0,258.0,-190.0,0
26.0,-250.0,-35.0,-403.0,271.0,-200.0,0
34.0,-237.0,-31.0,-382.0,300.0,-202.0,0
40.0,-243.0,-40.0,-363.0,330.0,-204.0,0
39.0,-244.0,-37.0,-342.0,359.0,-203.0,0
34.0,-236.0,-32.0,-320.0,386.0,-198.0,0
34.0,-236.0,-23.0,-295.0,406.0,-187.0,0
33.0,-233.0,-19.0,-271.0,412.0,-176.0,0
32.0,-234.0,-18.0,-247.0,407.0,-159.0,0
29.0,-233.0,-9.0,-228.0,394.0,-143.0,0
29.0,-240.0,-6.0,-219.0,371.0,-124.0,0
26.0,-237.0,-5.0,-220.0,343.0,-107.0,0
16.0,-242.0,-4.0,-232.0,303.0,-94.0,0
27.0,-247.0,-3.0,-246.0,264.0,-83.0,0
21.0,-246.0,-9.0,-261.0,223.0,-71.0,0
25.0,-250.0,-10.0,-275.0,181.0,-64.0,0
32.0,-249.0,-17.0,-288.0,146.0,-53.0,0
37.0,-250.0,-14.0,-301.0,119.0,-44.0,0
39.0,-251.0,-18.0,-312.0,101.0,-34.0,0
40.0,-254.0,-21.0,-317.0,87.0,-27.0,0
44.0,-256.0,-15.0,-315.0,78.0,-18.0,0
43.0,-256.0,-16.0,-302.0,71.0,-12.0,0
46.0,-262.0,-18.0,-283.0,64.0,4.0,0
56.0,-266.0,-21.0,-256.0,59.0,15.0,0
41.0,-261.0,-20.0,-233.0,52.0,30.0,0
42.0,-264.0,-14.0,-207.0,49.0,42.0,0
44.0,-263.0,-17.0,-189.0,48.0,55.0,0
42.0,-260.0,-21.0,-171.0,45.0,64.0,0
44.0,-259.0,-19.0,-152.0,49.0,76.0,0
47.0,-256.0,-17.0,-133.0,55.0,83.0,0
47.0,-250.0,-15.0,-120.0,58.0,89.0,0
47.0,-250.0,-22.0,-115.0,63.0,91.0,0
49.0,-247.0,-23.0,-117.0,64.0,96.0,0
49.0,-243.0,-12.0,-124.0,64.0,99.0,0
62.0,-238.0,-28.0,-131.0,64.0,101.0,0
48.0,-241.0,-19.0,-141.0,66.0,99.0,0
51.0,-240.0,-18.0,-153.0,66.0,99.0,0
49.0,-237.0,-19.0,-165.0,69.0,96.0,0
49.0,-236.0,-20.0,-177.0,69.0,96.0,0
49.0,-243.0,-22.0,-191.0,69.0,95.0,0
46.0,-242.0,-18.0,-200.0,66.0,96.0,0
45.0,-247.0,-12.0,-205.0,63.0,94.0,0
46.0,-245.0,-14.0,-205.0,58.0,96.0,0
42.0,-247.0,-15.0,-193.0,51.0,102.0,0
40.0,-253.0,-19.0,-177.0,44.0,110.0,0
30.0,-254.0,-12.0,-160.0,34.0,120.0,0
34.0,-251.0,-15.0,-140.0,21.0,133.0,0
33.0,-250.0,-13.0,-120.0,5.0,147.0,0
31.0,-248.0,-16.0,-104.0,-9.0,164.0,0
29.0,-243.0,-11.0,-98.0,-23.0,180.0,0
34.0,-245.0,-17.0,-98.0,-34.0,197.0,0
30.0,-244.0,-19.0,-107.0,-38.0,210.0,0
36.0,-244.0,-19.0,-125.0,-40.0,226.0,0
34.0,-241.0,-22.0,-146.0,-36.0,237.0,0
31.0,-246.0,-24.0,-163.0,-36.0,248.0,0
40.0,-247.0,-25.0,-180.0,-35.0,254.0,0
40.0,-245.0,-23.0,-197.0,-35.0,261.0,0
40.0,-248.0,-28.0,-214.0,-32.0,262.0,0
43.0,-252.0,-28.0,-231.0,-32.0,266.0,0
47.0,-254.0,-34.0,-247.0,-27.0,264.0,0
49.0,-256.0,-38.0,-258.0,-14.0,262.0,0
51.0,-257.0,-43.0,-260.0,4.0,255.0,0
50.0,-257.0,-47.0,-252.0,35.0,250.0,0
53.0,-261.0,-49.0,-226.0,59.0,246.0,0
50.0,-257.0,-55.0,-194.0,78.0,240.0,0
47.0,-257.0,-63.0,-158.0,91.0,237.0,0
49.0,-250.0,-68.0,-122.0,94.0,235.0,0
42.0,-247.0,-67.0,-89.0,100.0,231.0,0
40.0,-243.0,-70.0,-61.0,107.0,233.0,0
34.0,-237.0,-73.0,-44.0,110.0,226.0,0
26.0,-235.0,-71.0,-38.0,108.0,219.0,0
18.0,-229.0,-75.0,-40.0,96.0,208.0,0
15.0,-226.0,-71.0,-44.0,69.0,193.0,0
3.0,-216.0,-66.0,-46.0,41.0,177.0,0
-8.0,-212.0,-67.0,-46.0,12.0,162.0,0
-14.0,-206.0,-69.0,-50.0,-19.0,146.0,0
-26.0,-205.0,-63.0,-54.0,-47.0,131.0,0
-48.0,-197.0,-60.0,-60.0,-74.0,116.0,0
-38.0,-206.0,-56.0,-69.0,-93.0,99.0,0
-39.0,-212.0,-59.0,-79.0,-97.0,78.0,0
-38.0,-219.0,-61.0,-98.0,-89.0,56.0,0
-37.0,-230.0,-56.0,-123.0,-65.0,30.0,0
-42.0,-239.0,-55.0,-151.0,-27.0,12.0,0
-38.0,-253.0,-58.0,-189.0,2.0,4.0,0
-34.0,-258.0,-56.0,-225.0,29.0,0.0,0
-34.0,-269.0,-62.0,-264.0,52.0,4.0,0
-25.0,-280.0,-56.0,-313.0,77.0,14.0,0
-21.0,-284.0,-41.0,-357.0,99.0,25.0,0
-26.0,-296.0,-31.0,-380.0,120.0,37.0,0
-9.0,-292.0,-39.0,-378.0,148.0,46.0,0
-6.0,-286.0,-32.0,-346.0,189.0,50.0,0
1.0,-286.0,-23.0,-281.0,230.0,47.0,0
9.0,-281.0,-21.0,-206.0,271.0,43.0,0
13.0,-271.0,-9.0,-115.0,296.0,28.0,0
18.0,-265.0,-5.0,-47.0,317.0,17.0,0
22.0,-261.0,0.0,1.0,339.0,20.0,0
19.0,-254.0,3.0,30.0,358.0,33.0,0
18.0,-256.0,7.0,26.0,369.0,44.0,0
14.0,-249.0,6.0,-24.0,377.0,55.0,0
7.0,-250.0,16.0,-85.0,380.0,69.0,0
9.0,-248.0,4.0,-157.0,378.0,93.0,0
3.0,-253.0,3.0,-217.0,372.0,119.0,0
-6.0,-251.0,1.0,-267.0,363.0,162.0,0
-6.0,-253.0,0.0,-313.0,345.0,194.0,0
-16.0,-253.0,-7.0,-342.0,323.0,218.0,0
-21.0,-250.0,-12.0,-377.0,306.0,241.0,0
-22.0,-248.0,-14.0,-410.0,295.0,262.0,0
-28.0,-247.0,-14.0,-435.0,289.0,274.0,0
-26.0,-243.0,-11.0,-446.0,289.0,279.0,0
-24.0,-235.0,-8.0,-450.0,290.0,279.0,0
-16.0,-229.0,-16.0,-445.0,292.0,267.0,0
-24.0,-226.0,0.0,-434.0,295.0,249.0,0
-22.0,-219.0,-1.0,-422.0,297.0,221.0,0
-17.0,-214.0,1.0,-420.0,291.0,200.0,0
-16.0,-216.0,1.0,-426.0,276.0,185.0,0
-14.0,-210.0,-2.0,-436.0,258.0,174.0,0
-14.0,-209.0,1.0,-443.0,238.0,163.0,0
-12.0,-206.0,0.0,-452.0,221.0,150.0,0
-13.0,-209.0,0.0,-464.0,207.0,138.0,0
-13.0,-206.0,-3.0,-484.0,192.0,122.0,0
-13.0,-210.0,0.0,-505.0,177.0,107.0,0
-18.0,-210.0,-10.0,-522.0,165.0,87.0,0
-11.0,-220.0,-5.0,-529.0,159.0,64.0,0
-10.0,-224.0,-5.0,-530.0,155.0,48.0,0
-9.0,-225.0,-7.0,-525.0,152.0,26.0,0
-8.0,-230.0,-4.0,-517.0,152.0,5.0,0
-4.0,-233.0,-7.0,-503.0,153.0,-15.0,0
-4.0,-234.0,-8.0,-480.0,157.0,-32.0,0
-4.0,-230.0,-14.0,-453.0,165.0,-44.0,0
0.0,-227.0,-12.0,-430.0,177.0,-57.0,0
0.0,-227.0,-3.0,-408.0,191.0,-66.0,0
7.0,-228.0,-17.0,-389.0,204.0,-75.0,0
18.0,-227.0,-5.0,-369.0,214.0,-86.0,0
10.0,-217.0,-16.0,-344.0,221.0,-96.0,0
13.0,-219.0,-18.0,-317.0,220.0,-109.0,0
15.0,-217.0,-15.0,-283.0,208.0,-124.0,0
15.0,-211.0,-9.0,-242.0,190.0,-145.0,0
15.0,-208.0,-7.0,-199.0,166.0,-166.0,0
13.0,-204.0,-1.0,-153.0,136.0,-184.0,0
15.0,-208.0,1.0,-108.0,101.0,-197.0,0
8.0,-204.0,9.0,-68.0,66.0,-209.0,0
1.0,-210.0,17.0,-33.0,32.0,-217.0,0
11.0,-199.0,4.0,1.0,1.0,-221.0,0
-3.0,-205.0,18.0,37.0,-30.0,-223.0,0
-3.0,-211.0,15.0,61.0,-47.0,-221.0,0
-5.0,-211.0,10.0,74.0,-53.0,-217.0,0
-7.0,-212.0,6.0,79.0,-55.0,-210.0,0
-4.0,-211.0,-1.0,73.0,-51.0,-201.0,0
-8.0,-206.0,-8.0,61.0,-44.0,-189.0,0
-4.0,-202.0,-12.0,46.0,-35.0,-177.0,0
-1.0,-196.0,-14.0,30.0,-27.0,-160.0,0
8.0,-189.0,-22.0,12.0,-18.0,-142.0,0
7.0,-179.0,-23.0,-20.0,-13.0,-116.0,0
11.0,-180.0,-26.0,-82.0,-2.0,-94.0,0
14.0,-160.0,-33.0,-158.0,13.0,-73.0,0
15.0,-149.0,-34.0,-261.0,30.0,-49.0,0
20.0,-145.0,-40.0,-395.0,53.0,-29.0,0
18.0,-140.0,-48.0,-549.0,85.0,-16.0,0
18.0,-143.0,-58.0,-716.0,130.0,-5.0,0
15.0,-147.0,-69.0,-883.0,181.0,7.0,0
15.0,-154.0,-85.0,-1024.0,240.0,22.0,0
11.0,-159.0,-100.0,-1116.0,302.0,37.0,0
11.0,-164.0,-119.0,-1130.0,380.0,53.0,0
19.0,-159.0,-135.0,-1045.0,509.0,65.0,0
20.0,-132.0,-152.0,-890.0,662.0,84.0,0
27.0,-128.0,-148.0,-678.0,837.0,115.0,0
32.0,-112.0,-157.0,-454.0,1003.0,160.0,0
36.0,-82.0,-145.0,-259.0,1130.0,208.0,0
31.0,-52.0,-137.0,-112.0,1210.0,256.0,0
33.0,-33.0,-120.0,-11.0,1242.0,305.0,0
33.0,-11.0,-95.0,55.0,1238.0,347.0,0
26.0,3.0,-73.0,99.0,1227.0,380.0,0
8.0,13.0,-52.0,136.0,1207.0,413.0,0
-15.0,26.0,-36.0,159.0,1168.0,444.0,0
-36.0,42.0,-21.0,173.0,1125.0,480.0,0
-53.0,57.0,-23.0,185.0,1072.0,519.0,0
-73.0,65.0,-12.0,179.0,1002.0,532.0,0
-96.0,69.0,-19.0,137.0,897.0,529.0,0
-88.0,57.0,-26.0,72.0,746.0,530.0,0
-68.0,35.0,-34.0,-29.0,561.0,519.0,0
-50.0,5.0,-43.0,-142.0,382.0,501.0,0
-29.0,-58.0,-62.0,-277.0,234.0,466.0,0
-14.0,-138.0,-74.0,-420.0,121.0,394.0,0
3.0,-216.0,-92.0,-541.0,36.0,308.0,0
19.0,-262.0,-137.0,-610.0,-32.0,208.0,0
20.0,-287.0,-224.0,-744.0,-133.0,85.0,0
25.0,-315.0,-313.0,-1035.0,-256.0,-22.0,0
24.0,-365.0,-335.0,-1439.0,-328.0,-85.0,0
36.0,-416.0,-315.0,-1779.0,-258.0,-102.0,0
47.0,-491.0,-266.0,-1903.0,-71.0,-95.0,0
56.0,-547.0,-234.0,-1788.0,121.0,-85.0,0
56.0,-591.0,-207.0,-1505.0,240.0,-68.0,0
34.0,-619.0,-181.0,-1164.0,268.0,-36.0,0
13.0,-637.0,-152.0,-835.0,172.0,26.0,0
-5.0,-655.0,-121.0,-489.0,3.0,79.0,0
2.0,-663.0,-100.0,-246.0,-178.0,131.0,0
16.0,-674.0,-69.0,-9.0,-322.0,149.0,0
39.0,-674.0,-42.0,241.0,-402.0,137.0,0
55.0,-683.0,-22.0,479.0,-416.0,123.0,0
79.0,-659.0,-6.0,685.0,-395.0,95.0,0
88.0,-621.0,4.0,890.0,-371.0,58.0,0
86.0,-569.0,5.0,1078.0,-359.0,33.0,0
75.0,-506.0,0.0,1228.0,-348.0,16.0,0
67.0,-462.0,1.0,1326.0,-297.0,-1.0,0
43.0,-413.0,13.0,1359.0,-232.0,-20.0,0
20.0,-362.0,40.0,1368.0,-177.0,-28.0,0
9.0,-311.0,48.0,1361.0,-155.0,-23.0,0
5.0,-253.0,53.0,1310.0,-178.0,-5.0,0
-10.0,-192.0,33.0,1193.0,-249.0,20.0,0
-15.0,-131.0,0.0,977.0,-361.0,57.0,0
-16.0,-80.0,-13.0,666.0,-494.0,90.0,0
-25.0,-55.0,-26.0,337.0,-629.0,115.0,0
-39.0,-31.0,-34.0,65.0,-756.0,132.0,0
-51.0,-13.0,-37.0,-122.0,-894.0,131.0,0
-67.0,0.0,-41.0,-155.0,-994.0,113.0,0
-69.0,10.0,-45.0,-100.0,-1068.0,98.0,0
-66.0,12.0,-43.0,-8.0,-1123.0,83.0,0
-59.0,14.0,-46.0,74.0,-1164.0,75.0,0
-46.0,19.0,-45.0,114.0,-1195.0,68.0,0
-45.0,11.0,-20.0,94.0,-1215.0,52.0,0
-28.0,1.0,-16.0,55.0,-1218.0,21.0,0
-22.0,0.0,-17.0,19.0,-1195.0,-16.0,0
-16.0,-10.0,-18.0,3.0,-1142.0,-38.0,0
-15.0,-31.0,-15.0,28.0,-1061.0,-46.0,0
-8.0,-43.0,-29.0,99.0,-1002.0,-61.0,0
-10.0,-56.0,-48.0,182.0,-950.0,-80.0,0
-20.0,-57.0,-49.0,243.0,-908.0,-101.0,0
-46.0,-63.0,-62.0,303.0,-919.0,-123.0,0
-61.0,-64.0,-86.0,341.0,-1029.0,-154.0,0
-68.0,-76.0,-120.0,313.0,-1210.0,-187.0,0
-77.0,-64.0,-174.0,192.0,-1385.0,-204.0,0
-76.0,-66.0,-217.0,-31.0,-1519.0,-199.0,0
-74.0,-78.0,-247.0,-321.0,-1604.0,-184.0,0
-68.0,-105.0,-259.0,-613.0,-1629.0,-154.0,0
-69.0,-136.0,-259.0,-884.0,-1593.0,-131.0,0
-62.0,-189.0,-264.0,-1012.0,-1521.0,-99.0,0
-56.0,-242.0,-257.0,-1069.0,-1419.0,-74.0,0
-42.0,-301.0,-255.0,-1078.0,-1304.0,-62.0,0
-31.0,-373.0,-250.0,-1077.0,-1183.0,-68.0,0
-8.0,-457.0,-236.0,-1090.0,-1042.0,-81.0,0
32.0,-551.0,-211.0,-1099.0,-848.0,-137.0,0
81.0,-654.0,-139.0,-1099.0,-610.0,-242.0,0
101.0,-745.0,-67.0,-1020.0,-353.0,-384.0,0
91.0,-827.0,25.0,-693.0,-97.0,-531.0,0
47.0,-865.0,65.0,-181.0,65.0,-569.0,0
9.0,-849.0,55.0,464.0,212.0,-525.0,0
-30.0,-789.0,17.0,1087.0,318.0,-444.0,0
-53.0,-709.0,-5.0,1537.0,348.0,-355.0,0
-57.0,-630.0,-22.0,1763.0,295.0,-265.0,0
-54.0,-572.0,-7.0,1807.0,202.0,-151.0,0
-43.0,-499.0,14.0,1769.0,116.0,-9.0,0
-39.0,-420.0,27.0,1686.0,68.0,135.0,0
-35.0,-350.0,46.0,1569.0,52.0,255.0,0
-30.0,-271.0,61.0,1391.0,65.0,310.0,0
-17.0,-202.0,48.0,1242.0,88.0,322.0,0
-1.0,-140.0,13.0,1108.0,119.0,321.0,0
12.0,-77.0,-31.0,985.0,152.0,294.0,0
23.0,-45.0,-67.0,895.0,187.0,265.0,0
46.0,-1.0,-116.0,822.0,236.0,233.0,0
64.0,47.0,-124.0,735.0,314.0,195.0,0
83.0,72.0,-129.0,707.0,428.0,159.0,0
109.0,96.0,-146.0,690.0,572.0,107.0,0
113.0,106.0,-131.0,628.0,719.0,-12.0,0
112.0,115.0,-116.0,466.0,883.0,-128.0,0
109.0,105.0,-97.0,285.0,1020.0,-236.0,0
103.0,97.0,-80.0,86.0,1152.0,-304.0,0
86.0,77.0,-53.0,-127.0,1276.0,-320.0,0
70.0,55.0,-31.0,-279.0,1390.0,-262.0,0
50.0,32.0,-36.0,-366.0,1484.0,-174.0,0
14.0,8.0,-70.0,-415.0,1538.0,-63.0,0
-27.0,2.0,-116.0,-462.0,1530.0,53.0,0
-48.0,-17.0,-148.0,-514.0,1448.0,168.0,0
-65.0,-21.0,-191.0,-572.0,1313.0,284.0,0
-84.0,-44.0,-219.0,-660.0,1139.0,364.0,0
-108.0,-75.0,-237.0,-732.0,997.0,427.0,0
-130.0,-113.0,-243.0,-811.0,844.0,484.0,0
-142.0,-167.0,-236.0,-896.0,687.0,515.0,0
-144.0,-233.0,-221.0,-970.0,549.0,535.0,0
-134.0,-296.0,-225.0,-994.0,414.0,529.0,0
-124.0,-347.0,-231.0,-985.0,254.0,460.0,0
-113.0,-381.0,-227.0,-967.0,92.0,355.0,0
-78.0,-434.0,-206.0,-938.0,-41.0,241.0,0
-45.0,-481.0,-181.0,-894.0,-131.0,74.0,0
4.0,-533.0,-149.0,-784.0,-131.0,-67.0,0
52.0,-577.0,-114.0,-661.0,-22.0,-203.0,0
92.0,-609.0,-99.0,-492.0,150.0,-326.0,0
117.0,-621.0,-99.0,-289.0,330.0,-434.0,0
142.0,-619.0,-114.0,-111.0,467.0,-501.0,0
157.0,-612.0,-118.0,-12.0,550.0,-522.0,0
170.0,-598.0,-106.0,35.0,601.0,-480.0,0
162.0,-581.0,-86.0,84.0,647.0,-375.0,0
150.0,-556.0,-62.0,174.0,696.0,-204.0,0
126.0,-516.0,-51.0,308.0,717.0,42.0,0
91.0,-476.0,-61.0,468.0,665.0,233.0,0
74.0,-428.0,-69.0,540.0,565.0,362.0,0
50.0,-382.0,-72.0,559.0,446.0,435.0,0
33.0,-341.0,-76.0,551.0,340.0,447.0,0
4.0,-292.0,-81.0,526.0,253.0,401.0,0
-15.0,-250.0,-83.0,490.0,167.0,310.0,0
-46.0,-209.0,-72.0,452.0,68.0,209.0,0
-70.0,-170.0,-68.0,436.0,-41.0,113.0,0
-90.0,-145.0,-56.0,442.0,-166.0,34.0,0
-113.0,-123.0,-40.0,451.0,-312.0,-73.0,0
-129.0,-112.0,-30.0,485.0,-487.0,-154.0,0
-148.0,-100.0,6.0,538.0,-644.0,-197.0,0
-152.0,-84.0,11.0,616.0,-816.0,-195.0,0
-154.0,-65.0,13.0,710.0,-998.0,-167.0,0
-155.0,-44.0,16.0,814.0,-1187.0,-114.0,0
-148.0,-11.0,16.0,912.0,-1370.0,-58.0,0
-136.0,22.0,7.0,1002.0,-1524.0,11.0,0
-98.0,44.0,1.0,1056.0,-1627.0,87.0,0
-67.0,61.0,4.0,1042.0,-1663.0,143.0,0
-20.0,84.0,4.0,960.0,-1624.0,156.0,0
15.0,97.0,-9.0,778.0,-1476.0,123.0,0
47.0,110.0,-12.0,579.0,-1307.0,53.0,0
51.0,117.0,-30.0,377.0,-1130.0,-31.0,0
59.0,103.0,-42.0,189.0,-979.0,-110.0,0
68.0,84.0,-67.0,35.0,-887.0,-178.0,0
73.0,55.0,-87.0,-73.0,-859.0,-233.0,0
77.0,25.0,-97.0,-133.0,-868.0,-274.0,0
74.0,-30.0,-98.0,-175.0,-896.0,-305.0,0
62.0,-100.0,-85.0,-191.0,-936.0,-316.0,0
51.0,-170.0,-62.0,-174.0,-982.0,-302.0,0
51.0,-246.0,-55.0,-108.0,-993.0,-232.0,0
70.0,-316.0,-58.0,-40.0,-884.0,-149.0,0
96.0,-377.0,-68.0,11.0,-606.0,-70.0,0
89.0,-402.0,-85.0,7.0,-197.0,-20.0,0
71.0,-432.0,-88.0,-49.0,246.0,6.0,0
26.0,-457.0,-58.0,-90.0,577.0,10.0,0
-28.0,-477.0,-44.0,-42.0,691.0,35.0,0
-89.0,-491.0,-48.0,81.0,630.0,99.0,0
-135.0,-513.0,-75.0,186.0,513.0,214.0,0
-158.0,-556.0,-116.0,208.0,413.0,317.0,0
-151.0,-615.0,-137.0,97.0,378.0,345.0,0
-132.0,-660.0,-118.0,-41.0,465.0,267.0,0
-58.0,-713.0,-48.0,-83.0,667.0,94.0,0
-8.0,-724.0,24.0,112.0,1011.0,-162.0,0
-10.0,-716.0,67.0,579.0,1433.0,-422.0,0
-18.0,-649.0,26.0,1161.0,1721.0,-640.0,0
-29.0,-548.0,-52.0,1580.0,1746.0,-790.0,0
-37.0,-437.0,-119.0,1685.0,1531.0,-849.0,0
-38.0,-343.0,-151.0,1498.0,1184.0,-792.0,0
-43.0,-283.0,-142.0,1147.0,832.0,-642.0,0
-40.0,-234.0,-122.0,798.0,542.0,-354.0,0
-42.0,-192.0,-83.0,505.0,457.0,-73.0,0
-42.0,-176.0,-47.0,383.0,471.0,204.0,0
-43.0,-176.0,-9.0,344.0,497.0,415.0,0
-42.0,-169.0,2.0,379.0,486.0,546.0,0
-33.0,-149.0,-23.0,436.0,446.0,581.0,0
-34.0,-136.0,-50.0,436.0,417.0,554.0,0
-32.0,-105.0,-101.0,328.0,418.0,492.0,0
-32.0,-80.0,-131.0,89.0,447.0,431.0,0
-39.0,-61.0,-136.0,-219.0,472.0,380.0,0
-28.0,-47.0,-120.0,-512.0,491.0,345.0,0
-15.0,-41.0,-99.0,-744.0,502.0,312.0,0
-5.0,-49.0,-67.0,-775.0,525.0,269.0,0
11.0,-69.0,-43.0,-662.0,568.0,213.0,0
18.0,-79.0,-23.0,-467.0,639.0,138.0,0
34.0,-88.0,5.0,-236.0,734.0,33.0,0
46.0,-102.0,22.0,6.0,852.0,-68.0,0
55.0,-82.0,-5.0,223.0,978.0,-162.0,0
59.0,-82.0,-31.0,348.0,1118.0,-235.0,0
67.0,-77.0,-51.0,350.0,1262.0,-284.0,0
61.0,-64.0,-82.0,256.0,1424.0,-298.0,0
34.0,-94.0,-78.0,75.0,1542.0,-273.0,0
29.0,-105.0,-128.0,-86.0,1613.0,-220.0,0
7.0,-142.0,-119.0,-241.0,1609.0,-158.0,0
-1.0,-184.0,-127.0,-357.0,1527.0,-98.0,0
-26.0,-224.0,-135.0,-424.0,1382.0,-51.0,0
-48.0,-249.0,-131.0,-459.0,1204.0,-6.0,0
-67.0,-289.0,-110.0,-451.0,1014.0,39.0,0
-59.0,-341.0,-88.0,-395.0,820.0,79.0,0
-61.0,-358.0,-76.0,-291.0,634.0,105.0,0
-30.0,-400.0,-36.0,-158.0,441.0,124.0,0
-10.0,-442.0,-60.0,11.0,317.0,119.0,0
0.0,-467.0,-70.0,134.0,242.0,100.0,0
35.0,-500.0,-47.0,219.0,246.0,61.0,0
31.0,-512.0,-23.0,273.0,333.0,16.0,0
38.0,-537.0,-32.0,311.0,468.0,-33.0,0
45.0,-553.0,-28.0,355.0,592.0,-68.0,0
39.0,-556.0,4.0,412.0,649.0,-84.0,0
52.0,-556.0,-2.0,487.0,632.0,-57.0,0
55.0,-547.0,8.0,583.0,568.0,1.0,0
67.0,-524.0,1.0,683.0,467.0,94.0,0
71.0,-489.0,-18.0,771.0,400.0,144.0,0
69.0,-450.0,-36.0,800.0,349.0,162.0,0
54.0,-405.0,-50.0,792.0,292.0,143.0,0
45.0,-369.0,-51.0,763.0,226.0,120.0,0
33.0,-339.0,-49.0,727.0,160.0,93.0,0
15.0,-299.0,-44.0,699.0,96.0,65.0,0
-4.0,-253.0,-44.0,659.0,30.0,28.0,0
-10.0,-205.0,-44.0,598.0,-44.0,-1.0,0
-33.0,-165.0,-38.0,498.0,-137.0,-26.0,0
-41.0,-120.0,-54.0,368.0,-283.0,-41.0,0
-51.0,-71.0,-49.0,178.0,-418.0,-56.0,0
-54.0,-34.0,-56.0,20.0,-544.0,-67.0,0
-70.0,13.0,-45.0,-121.0,-645.0,-87.0,0
-80.0,48.0,-33.0,-219.0,-720.0,-91.0,0
-60.0,92.0,-22.0,-257.0,-779.0,-67.0,0
-76.0,105.0,21.0,-218.0,-835.0,7.0,0
-68.0,137.0,43.0,-131.0,-909.0,70.0,0
-65.0,151.0,48.0,-61.0,-982.0,120.0,0
-57.0,157.0,41.0,-63.0,-1023.0,162.0,0
-46.0,147.0,35.0,-150.0,-990.0,211.0,0
-30.0,135.0,16.0,-343.0,-891.0,232.0,0
-21.0,88.0,11.0,-532.0,-731.0,253.0,0
-24.0,47.0,-16.0,-686.0,-558.0,263.0,0
-34.0,0.0,-18.0,-768.0,-418.0,266.0,0
-35.0,-58.0,-26.0,-737.0,-375.0,250.0,0
-33.0,-109.0,-28.0,-615.0,-446.0,203.0,0
-37.0,-143.0,-33.0,-425.0,-595.0,132.0,0
-39.0,-163.0,-46.0,-226.0,-784.0,82.0,0
-38.0,-181.0,-57.0,-74.0,-1003.0,71.0,0
-38.0,-183.0,-91.0,13.0,-1273.0,103.0,0
-19.0,-198.0,-117.0,9.0,-1453.0,134.0,0
1.0,-216.0,-134.0,-81.0,-1558.0,150.0,0
25.0,-239.0,-159.0,-238.0,-1576.0,147.0,0
43.0,-268.0,-185.0,-463.0,-1497.0,146.0,0
43.0,-296.0,-193.0,-740.0,-1310.0,138.0,0
41.0,-352.0,-201.0,-1006.0,-1030.0,132.0,0
31.0,-416.0,-189.0,-1196.0,-711.0,129.0,0
15.0,-486.0,-176.0,-1268.0,-399.0,129.0,0
7.0,-541.0,-148.0,-1212.0,-117.0,112.0,0
-15.0,-619.0,-117.0,-1042.0,158.0,62.0,0
-33.0,-682.0,-94.0,-739.0,303.0,-31.0,0
-51.0,-735.0,-78.0,-491.0,368.0,-145.0,0
-68.0,-773.0,-53.0,-288.0,369.0,-254.0,0
-84.0,-815.0,-2.0,-46.0,343.0,-322.0,0
-107.0,-830.0,22.0,315.0,347.0,-354.0,0
-136.0,-812.0,16.0,749.0,416.0,-349.0,0
-142.0,-761.0,-1.0,1138.0,500.0,-331.0,0
-145.0,-680.0,-25.0,1404.0,546.0,-293.0,0
-121.0,-603.0,-38.0,1521.0,544.0,-242.0,0
-117.0,-514.0,-38.0,1521.0,498.0,-144.0,0
-86.0,-450.0,-35.0,1479.0,413.0,-50.0,0
-70.0,-366.0,-27.0,1439.0,332.0,57.0,0
-51.0,-279.0,-15.0,1390.0,263.0,158.0,0
-35.0,-193.0,-8.0,1311.0,228.0,238.0,0
-30.0,-105.0,-11.0,1179.0,224.0,283.0,0
-20.0,-35.0,-29.0,974.0,241.0,315.0,0
-11.0,33.0,-47.0,668.0,280.0,335.0,0
7.0,64.0,-62.0,309.0,336.0,353.0,0
19.0,106.0,-57.0,-26.0,397.0,354.0,0
36.0,129.0,-54.0,-244.0,445.0,332.0,0
58.0,159.0,-52.0,-343.0,483.0,223.0,0
75.0,154.0,-30.0,-299.0,500.0,39.0,0
80.0,145.0,-22.0,-222.0,515.0,-176.0,0
79.0,130.0,-1.0,-171.0,541.0,-336.0,0
64.0,117.0,6.0,-128.0,558.0,-431.0,0
48.0,107.0,11.0,-90.0,558.0,-467.0,0
13.0,85.0,4.0,-113.0,537.0,-458.0,0
-14.0,61.0,-26.0,-188.0,478.0,-393.0,0
-29.0,17.0,-57.0,-306.0,385.0,-299.0,0
-27.0,-23.0,-97.0,-430.0,299.0,-143.0,0
-23.0,-63.0,-124.0,-523.0,245.0,-31.0,0
-16.0,-86.0,-142.0,-525.0,269.0,57.0,0
-7.0,-117.0,-144.0,-446.0,373.0,121.0,0
-8.0,-139.0,-135.0,-314.0,537.0,164.0,0
-5.0,-179.0,-138.0,-186.0,735.0,192.0,0
-3.0,-219.0,-143.0,-128.0,915.0,211.0,0
0.0,-266.0,-127.0,-161.0,1014.0,175.0,0
-10.0,-318.0,-125.0,-236.0,995.0,96.0,0
-15.0,-361.0,-125.0,-348.0,863.0,2.0,0
-32.0,-390.0,-145.0,-500.0,638.0,-92.0,0
-36.0,-415.0,-137.0,-687.0,321.0,-154.0,0
-41.0,-443.0,-157.0,-772.0,113.0,-198.0,0
-37.0,-487.0,-114.0,-744.0,-6.0,-231.0,0
-13.0,-527.0,-114.0,-644.0,-62.0,-225.0,0
23.0,-564.0,-151.0,-556.0,-78.0,-185.0,0
73.0,-588.0,-192.0,-574.0,-39.0,-118.0,0
74.0,-626.0,-146.0,-730.0,91.0,-75.0,0
43.0,-665.0,-55.0,-804.0,254.0,-50.0,0
31.0,-689.0,-4.0,-592.0,298.0,-28.0,0
30.0,-683.0,19.0,-104.0,167.0,8.0,0
48.0,-632.0,-1.0,633.0,-124.0,48.0,0
74.0,-571.0,-29.0,1143.0,-321.0,106.0,0
99.0,-495.0,-56.0,1445.0,-374.0,143.0,0
102.0,-436.0,-48.0,1515.0,-278.0,142.0,0
102.0,-372.0,-36.0,1399.0,-84.0,91.0,0
96.0,-312.0,-20.0,1183.0,129.0,3.0,0
85.0,-270.0,-6.0,945.0,299.0,-119.0,0
72.0,-215.0,8.0,728.0,393.0,-244.0,0
40.0,-162.0,21.0,530.0,404.0,-356.0,0
1.0,-112.0,26.0,370.0,339.0,-441.0,0
-30.0,-64.0,31.0,217.0,172.0,-474.0,0
-64.0,-16.0,35.0,143.0,-12.0,-476.0,0
-86.0,26.0,24.0,111.0,-210.0,-466.0,0
-103.0,23.0,26.0,97.0,-398.0,-432.0,0
-107.0,56.0,19.0,78.0,-563.0,-391.0,0
-118.0,63.0,11.0,53.0,-712.0,-336.0,0
-120.0,65.0,10.0,17.0,-853.0,-279.0,0
-111.0,70.0,12.0,-16.0,-993.0,-221.0,0
-97.0,66.0,5.0,-27.0,-1133.0,-173.0,0
-78.0,64.0,7.0,-22.0,-1267.0,-133.0,0
-61.0,45.0,1.0,10.0,-1396.0,-120.0,0
-56.0,26.0,-2.0,49.0,-1468.0,-105.0,0
-36.0,0.0,-10.0,85.0,-1517.0,-102.0,0
-20.0,-24.0,-19.0,114.0,-1539.0,-96.0,0
-15.0,-56.0,-27.0,137.0,-1526.0,-87.0,0
-6.0,-75.0,-57.0,161.0,-1478.0,-67.0,0
21.0,-100.0,-64.0,203.0,-1397.0,-34.0,0
52.0,-125.0,-92.0,269.0,-1289.0,-12.0,0
72.0,-147.0,-128.0,309.0,-1165.0,-29.0,0
71.0,-166.0,-143.0,239.0,-1068.0,-74.0,0
69.0,-199.0,-146.0,24.0,-1057.0,-105.0,0
64.0,-238.0,-140.0,-187.0,-1092.0,-103.0,0
65.0,-283.0,-135.0,-366.0,-1071.0,-93.0,0
59.0,-333.0,-143.0,-513.0,-938.0,-82.0,0
35.0,-387.0,-121.0,-609.0,-714.0,-83.0,0
25.0,-444.0,-102.0,-595.0,-452.0,-78.0,0
11.0,-492.0,-61.0,-441.0,-217.0,-88.0,0
4.0,-514.0,-20.0,-139.0,-37.0,-106.0,0
-3.0,-531.0,0.0,281.0,99.0,-138.0,0
-9.0,-523.0,14.0,723.0,224.0,-163.0,0
-8.0,-503.0,5.0,1151.0,380.0,-188.0,0
-11.0,-464.0,-13.0,1331.0,501.0,-207.0,0
-15.0,-435.0,-14.0,1328.0,593.0,-208.0,0
-17.0,-419.0,-6.0,1183.0,638.0,-181.0,0
-20.0,-427.0,1.0,997.0,646.0,-142.0,0
-16.0,-441.0,0.0,862.0,640.0,-98.0,0
-31.0,-469.0,-7.0,805.0,647.0,-62.0,0
-44.0,-471.0,-31.0,807.0,704.0,-26.0,0
-55.0,-453.0,-49.0,857.0,808.0,4.0,0
-60.0,-415.0,-58.0,962.0,920.0,51.0,0
-56.0,-367.0,-62.0,1116.0,1009.0,70.0,0
-39.0,-308.0,-61.0,1208.0,1018.0,58.0,0
-24.0,-264.0,-61.0,1222.0,971.0,26.0,0
1.0,-220.0,-54.0,1119.0,894.0,19.0,0
13.0,-195.0,-39.0,909.0,807.0,40.0,0
-6.0,-181.0,-19.0,648.0,722.0,86.0,0
-22.0,-187.0,5.0,405.0,649.0,125.0,0
-43.0,-184.0,10.0,221.0,589.0,156.0,0
-63.0,-188.0,21.0,116.0,542.0,171.0,0
-79.0,-178.0,18.0,84.0,505.0,201.0,0
-86.0,-168.0,8.0,128.0,458.0,223.0,0
-99.0,-149.0,-2.0,194.0,415.0,239.0,0
-113.0,-124.0,-13.0,265.0,370.0,257.0,0
-106.0,-103.0,-32.0,378.0,337.0,287.0,0
-101.0,-86.0,-50.0,490.0,334.0,310.0,0
-68.0,-73.0,-68.0,570.0,363.0,332.0,0
-39.0,-82.0,-86.0,578.0,415.0,347.0,0
-17.0,-118.0,-65.0,517.0,498.0,366.0,0
-5.0,-165.0,-71.0,407.0,587.0,384.0,0
18.0,-206.0,-100.0,251.0,607.0,385.0,0
40.0,-250.0,-128.0,-43.0,512.0,349.0,0
58.0,-293.0,-148.0,-343.0,380.0,310.0,0
76.0,-334.0,-157.0,-602.0,251.0,272.0,0
89.0,-364.0,-158.0,-765.0,160.0,239.0,0
100.0,-388.0,-168.0,-815.0,122.0,198.0,0
107.0,-390.0,-166.0,-784.0,110.0,145.0,0
111.0,-404.0,-169.0,-696.0,106.0,72.0,0
105.0,-417.0,-167.0,-583.0,98.0,17.0,0
98.0,-402.0,-154.0,-476.0,107.0,-18.0,0
82.0,-406.0,-125.0,-381.0,158.0,-36.0,0
51.0,-397.0,-85.0,-295.0,256.0,-64.0,0
25.0,-390.0,-42.0,-204.0,336.0,-87.0,0
-3.0,-374.0,-7.0,-124.0,386.0,-116.0,0
-17.0,-365.0,16.0,-35.0,402.0,-121.0,0
-24.0,-353.0,40.0,66.0,379.0,-112.0,0
-21.0,-345.0,56.0,179.0,339.0,-95.0,0
-15.0,-344.0,52.0,301.0,299.0,-81.0,0
-20.0,-332.0,37.0,392.0,259.0,-55.0,0
-7.0,-343.0,26.0,389.0,203.0,-19.0,0
-29.0,-329.0,1.0,270.0,134.0,32.0,0
-21.0,-336.0,0.0,66.0,58.0,85.0,0
-6.0,-353.0,11.0,-184.0,33.0,123.0,0
9.0,-371.0,22.0,-306.0,36.0,147.0,0
23.0,-385.0,29.0,-336.0,33.0,163.0,0
34.0,-389.0,31.0,-293.0,8.0,152.0,0
36.0,-387.0,21.0,-208.0,-52.0,123.0,0
37.0,-363.0,5.0,-98.0,-134.0,75.0,0
36.0,-332.0,-9.0,6.0,-216.0,27.0,0
32.0,-312.0,-27.0,77.0,-266.0,-21.0,0
7.0,-273.0,-37.0,105.0,-279.0,-58.0,0
18.0,-257.0,-31.0,106.0,-252.0,-102.0,0
17.0,-246.0,-18.0,101.0,-213.0,-121.0,0
12.0,-244.0,0.0,114.0,-182.0,-132.0,0
10.0,-251.0,19.0,153.0,-176.0,-122.0,0
5.0,-262.0,45.0,217.0,-209.0,-105.0,0
3.0,-282.0,53.0,293.0,-287.0,-77.0,0
-1.0,-291.0,62.0,364.0,-397.0,-44.0,0
-7.0,-303.0,62.0,407.0,-521.0,1.0,0
-5.0,-304.0,47.0,409.0,-641.0,50.0,0
-2.0,-308.0,40.0,378.0,-735.0,99.0,0
-3.0,-293.0,26.0,335.0,-798.0,138.0,0
4.0,-283.0,18.0,298.0,-798.0,153.0,0
15.0,-267.0,5.0,287.0,-750.0,148.0,0
24.0,-255.0,1.0,294.0,-665.0,131.0,0
42.0,-242.0,-6.0,310.0,-564.0,93.0,0
54.0,-221.0,-19.0,318.0,-459.0,52.0,0
70.0,-205.0,-33.0,299.0,-365.0,-2.0,0
80.0,-192.0,-37.0,247.0,-294.0,-48.0,0
79.0,-178.0,-50.0,172.0,-253.0,-92.0,0
76.0,-176.0,-61.0,81.0,-242.0,-120.0,0
68.0,-171.0,-75.0,-24.0,-255.0,-142.0,0
63.0,-183.0,-46.0,-132.0,-286.0,-147.0,0
55.0,-194.0,-34.0,-198.0,-313.0,-141.0,0
42.0,-213.0,-14.0,-215.0,-336.0,-119.0,0
33.0,-250.0,-1.0,-197.0,-360.0,-79.0,0
34.0,-291.0,5.0,-173.0,-393.0,-37.0,0
45.0,-325.0,1.0,-143.0,-427.0,-21.0,0
58.0,-343.0,-17.0,-116.0,-411.0,-24.0,0
63.0,-347.0,-39.0,-114.0,-340.0,-45.0,0
65.0,-338.0,-51.0,-148.0,-282.0,-64.0,0
50.0,-338.0,-66.0,-194.0,-282.0,-82.0,0
36.0,-342.0,-61.0,-208.0,-337.0,-80.0,0
18.0,-341.0,-92.0,-164.0,-378.0,-69.0,0
-7.0,-336.0,-121.0,-80.0,-383.0,-58.0,0
-22.0,-331.0,-152.0,-8.0,-340.0,-66.0,0
-45.0,-320.0,-187.0,2.0,-267.0,-91.0,0
-54.0,-309.0,-194.0,-69.0,-193.0,-133.0,0
-59.0,-298.0,-187.0,-185.0,-148.0,-176.0,0
-57.0,-296.0,-152.0,-278.0,-140.0,-227.0,0
-49.0,-304.0,-118.0,-300.0,-133.0,-252.0,0
-45.0,-311.0,-79.0,-238.0,-106.0,-252.0,0
-40.0,-313.0,-50.0,-93.0,-54.0,-233.0,0
-41.0,-317.0,-35.0,40.0,-23.0,-210.0,0
-44.0,-296.0,-34.0,139.0,-22.0,-177.0,0
-48.0,-288.0,-40.0,183.0,-50.0,-144.0,0
-51.0,-277.0,-43.0,171.0,-97.0,-105.0,0
-53.0,-268.0,-50.0,114.0,-151.0,-60.0,0
-53.0,-261.0,-53.0,28.0,-201.0,-18.0,0
-53.0,-268.0,-56.0,-77.0,-237.0,14.0,0
-50.0,-269.0,-59.0,-188.0,-254.0,40.0,0
-50.0,-287.0,-57.0,-290.0,-247.0,51.0,0
-42.0,-298.0,-59.0,-369.0,-216.0,46.0,0
-32.0,-303.0,-77.0,-420.0,-178.0,27.0,0
-34.0,-306.0,-60.0,-431.0,-129.0,7.0,0
-29.0,-304.0,-65.0,-414.0,-83.0,-17.0,0
-25.0,-300.0,-66.0,-386.0,-44.0,-33.0,0
-21.0,-294.0,-68.0,-357.0,-21.0,-43.0,0
-17.0,-286.0,-70.0,-330.0,-7.0,-48.0,0
-23.0,-283.0,-64.0,-305.0,1.0,-47.0,0
-23.0,-274.0,-64.0,-278.0,8.0,-36.0,0
-32.0,-270.0,-53.0,-245.0,17.0,-24.0,0
-38.0,-261.0,-49.0,-204.0,29.0,-6.0,0
-40.0,-252.0,-35.0,-143.0,30.0,8.0,0
-41.0,-242.0,-31.0,-89.0,19.0,30.0,0
-44.0,-239.0,-24.0,-44.0,0.0,47.0,0
-45.0,-238.0,-21.0,-15.0,-28.0,62.0,0
-45.0,-235.0,-24.0,-13.0,-59.0,66.0,0
-49.0,-233.0,-32.0,-35.0,-91.0,71.0,0
-48.0,-237.0,-29.0,-82.0,-122.0,63.0,0
-48.0,-239.0,-34.0,-134.0,-150.0,56.0,0
-46.0,-244.0,-36.0,-182.0,-168.0,44.0,0
-41.0,-250.0,-45.0,-216.0,-166.0,36.0,0
-33.0,-261.0,-44.0,-235.0,-132.0,18.0,0
-23.0,-265.0,-46.0,-240.0,-62.0,-6.0,0
-18.0,-281.0,-29.0,-227.0,30.0,-38.0,0
-11.0,-279.0,-42.0,-199.0,129.0,-69.0,0
-6.0,-283.0,-40.0,-149.0,222.0,-102.0,0
1.0,-285.0,-37.0,-92.0,299.0,-130.0,0
5.0,-280.0,-37.0,-35.0,360.0,-155.0,0
5.0,-275.0,-30.0,27.0,407.0,-169.0,0
-1.0,-266.0,-30.0,85.0,435.0,-183.0,0
-2.0,-267.0,-37.0,133.0,438.0,-190.0,0
-10.0,-265.0,-38.0,152.0,419.0,-197.0,0
-18.0,-260.0,-41.0,144.0,385.0,-204.0,0
-22.0,-250.0,-54.0,127.0,343.0,-216.0,0
-29.0,-257.0,-50.0,100.0,300.0,-226.0,0
-33.0,-259.0,-52.0,64.0,266.0,-245.0,0
-42.0,-269.0,-49.0,23.0,248.0,-261.0,0
-45.0,-277.0,-46.0,-14.0,248.0,-281.0,0
-47.0,-287.0,-42.0,-31.0,253.0,-297.0,0
-49.0,-294.0,-41.0,-27.0,245.0,-312.0,0
-50.0,-292.0,-38.0,-3.0,217.0,-312.0,0
-54.0,-296.0,-37.0,41.0,175.0,-301.0,0
-44.0,-292.0,-42.0,71.0,132.0,-270.0,0
-33.0,-288.0,-46.0,84.0,101.0,-236.0,0
-17.0,-278.0,-43.0,81.0,88.0,-197.0,0
-13.0,-269.0,-55.0,59.0,81.0,-156.0,0
-5.0,-263.0,-58.0,24.0,63.0,-110.0,0
2.0,-259.0,-60.0,-15.0,25.0,-67.0,0
6.0,-246.0,-56.0,-56.0,-20.0,-23.0,0
17.0,-237.0,-57.0,-89.0,-63.0,12.0,0
18.0,-231.0,-56.0,-106.0,-93.0,33.0,0
25.0,-228.0,-49.0,-110.0,-103.0,47.0,0
26.0,-219.0,-45.0,-98.0,-88.0,45.0,0
29.0,-213.0,-46.0,-80.0,-54.0,31.0,0
25.0,-208.0,-49.0,-61.0,-8.0,14.0,0
24.0,-209.0,-43.0,-44.0,39.0,-3.0,0
16.0,-200.0,-50.0,-41.0,80.0,-14.0,0
11.0,-198.0,-52.0,-54.0,108.0,-25.0,0
2.0,-199.0,-53.0,-79.0,121.0,-28.0,0
-5.0,-204.0,-51.0,-113.0,121.0,-32.0,0
-7.0,-207.0,-50.0,-144.0,118.0,-28.0,0
-9.0,-209.0,-47.0,-169.0,111.0,-26.0,0
-7.0,-208.0,-45.0,-175.0,104.0,-29.0,0
-16.0,-207.0,-53.0,-170.0,98.0,-38.0,0
-16.0,-203.0,-51.0,-160.0,89.0,-30.0,0
-17.0,-198.0,-49.0,-146.0,80.0,-21.0,0
-25.0,-196.0,-55.0,-127.0,70.0,-17.0,0
-13.0,-195.0,-48.0,-116.0,57.0,-14.0,0
-15.0,-193.0,-60.0,-121.0,42.0,-2.0,0
-13.0,-192.0,-64.0,-139.0,31.0,8.0,0
-10.0,-191.0,-63.0,-165.0,22.0,23.0,0
-7.0,-192.0,-64.0,-195.0,18.0,29.0,0
-2.0,-194.0,-63.0,-213.0,19.0,33.0,0
4.0,-195.0,-65.0,-217.0,25.0,33.0,0
10.0,-201.0,-63.0,-212.0,36.0,29.0,0
12.0,-208.0,-58.0,-196.0,52.0,13.0,0
24.0,-216.0,-68.0,-175.0,72.0,-4.0,0
24.0,-235.0,-60.0,-152.0,97.0,-23.0,0
22.0,-243.0,-54.0,-120.0,123.0,-41.0,0
30.0,-254.0,-44.0,-80.0,153.0,-62.0,0
31.0,-273.0,-35.0,-31.0,188.0,-82.0,0
34.0,-291.0,-27.0,37.0,245.0,-101.0,0
43.0,-313.0,-19.0,92.0,305.0,-122.0,0
42.0,-332.0,-14.0,137.0,365.0,-145.0,0
47.0,-350.0,-21.0,157.0,417.0,-167.0,0
46.0,-362.0,-29.0,144.0,452.0,-189.0,0
46.0,-366.0,-48.0,100.0,475.0,-203.0,0
43.0,-367.0,-59.0,37.0,485.0,-211.0,0
25.0,-367.0,-72.0,-29.0,489.0,-212.0,0
40.0,-357.0,-84.0,-72.0,488.0,-209.0,0
29.0,-343.0,-89.0,-69.0,488.0,-197.0,0
20.0,-325.0,-89.0,0.0,490.0,-188.0,0
7.0,-302.0,-86.0,95.0,489.0,-184.0,0
0.0,-289.0,-83.0,202.0,487.0,-182.0,0
-2.0,-271.0,-76.0,296.0,487.0,-179.0,0
-9.0,-254.0,-62.0,361.0,491.0,-180.0,0
-15.0,-242.0,-61.0,381.0,497.0,-176.0,0
-18.0,-234.0,-59.0,358.0,497.0,-173.0,0
-7.0,-224.0,-24.0,305.0,485.0,-165.0,0
-24.0,-232.0,-38.0,229.0,462.0,-156.0,0
-25.0,-233.0,-33.0,142.0,428.0,-141.0,0
-25.0,-234.0,-30.0,40.0,380.0,-128.0,0
-28.0,-243.0,-20.0,-27.0,343.0,-114.0,0
-24.0,-254.0,-18.0,-77.0,304.0,-98.0,0
-20.0,-257.0,-18.0,-115.0,265.0,-82.0,0
-16.0,-263.0,-13.0,-135.0,232.0,-70.0,0
-15.0,-264.0,-12.0,-134.0,206.0,-56.0,0
-8.0,-262.0,-14.0,-112.0,185.0,-49.0,0
-1.0,-262.0,-16.0,-72.0,171.0,-44.0,0
-2.0,-254.0,-13.0,-24.0,166.0,-42.0,0
11.0,-253.0,-11.0,20.0,168.0,-35.0,0
18.0,-245.0,-9.0,64.0,179.0,-34.0,0
24.0,-233.0,-12.0,93.0,192.0,-34.0,0
26.0,-227.0,-12.0,119.0,207.0,-36.0,0
31.0,-222.0,-9.0,141.0,223.0,-39.0,0
33.0,-213.0,-13.0,159.0,239.0,-41.0,0
31.0,-212.0,-12.0,167.0,254.0,-40.0,0
32.0,-207.0,-5.0,163.0,265.0,-41.0,0
29.0,-207.0,-8.0,145.0,277.0,-38.0,0
29.0,-205.0,-5.0,119.0,290.0,-35.0,0
31.0,-215.0,-1.0,84.0,305.0,-26.0,0
27.0,-211.0,1.0,35.0,322.0,-18.0,0
25.0,-216.0,-2.0,-8.0,335.0,-9.0,0
22.0,-223.0,1.0,-50.0,349.0,-3.0,0
20.0,-232.0,-4.0,-88.0,361.0,3.0,0
18.0,-242.0,-2.0,-116.0,375.0,5.0,0
16.0,-251.0,-6.0,-136.0,386.0,9.0,0
24.0,-261.0,-8.0,-148.0,396.0,6.0,0
21.0,-266.0,-12.0,-152.0,403.0,3.0,0
23.0,-270.0,-19.0,-152.0,407.0,-2.0,0
22.0,-278.0,-15.0,-151.0,410.0,-9.0,0
23.0,-271.0,-58.0,-150.0,409.0,-13.0,0
16.0,-284.0,-32.0,-143.0,406.0,-19.0,0
14.0,-285.0,-34.0,-131.0,403.0,-25.0,0
12.0,-285.0,-35.0,-108.0,397.0,-30.0,0
9.0,-280.0,-37.0,-79.0,388.0,-33.0,0
5.0,-277.0,-40.0,-51.0,375.0,-33.0,0
7.0,-276.0,-38.0,-28.0,362.0,-35.0,0
2.0,-271.0,-44.0,-7.0,351.0,-35.0,0
1.0,-265.0,-37.0,8.0,340.0,-37.0,0
0.0,-259.0,-37.0,16.0,331.0,-39.0,0
-5.0,-283.0,-20.0,23.0,319.0,-38.0,0
-4.0,-255.0,-35.0,21.0,311.0,-38.0,0
-3.0,-255.0,-35.0,11.0,301.0,-36.0,0
0.0,-250.0,-31.0,-4.0,288.0,-33.0,0
2.0,-248.0,-34.0,-20.0,275.0,-30.0,0
3.0,-250.0,-29.0,-38.0,261.0,-25.0,0
3.0,-251.0,-28.0,-57.0,245.0,-22.0,0
7.0,-254.0,-30.0,-74.0,229.0,-16.0,0
11.0,-251.0,-26.0,-84.0,210.0,-12.0,0
15.0,-254.0,-27.0,-86.0,191.0,-8.0,0
16.0,-252.0,-26.0,-81.0,172.0,-4.0,0
15.0,-259.0,-16.0,-75.0,157.0,-2.0,0
12.0,-251.0,-20.0,-69.0,141.0,0.0,0
18.0,-250.0,-22.0,-62.0,132.0,0.0,0
17.0,-251.0,-22.0,-56.0,125.0,-1.0,0
16.0,-246.0,-17.0,-53.0,122.0,-3.0,0
18.0,-245.0,-18.0,-51.0,125.0,-5.0,0
16.0,-239.0,-16.0,-52.0,131.0,-8.0,0
14.0,-240.0,-15.0,-54.0,136.0,-12.0,0
14.0,-238.0,-16.0,-56.0,143.0,-13.0,0
15.0,-236.0,-15.0,-58.0,152.0,-13.0,0
13.0,-233.0,-13.0,-62.0,156.0,-13.0,0
12.0,-224.0,-26.0,-71.0,158.0,-11.0,0
13.0,-231.0,-17.0,-82.0,157.0,-8.0,0
12.0,-231.0,-21.0,-101.0,154.0,-5.0,0
10.0,-230.0,-22.0,-122.0,149.0,-3.0,0
11.0,-233.0,-27.0,-145.0,139.0,1.0,0
9.0,-227.0,-29.0,-168.0,130.0,3.0,0
8.0,-229.0,-27.0,-187.0,116.0,4.0,0
7.0,-226.0,-29.0,-203.0,100.0,7.0,0
3.0,-232.0,-27.0,-216.0,84.0,7.0,0
3.0,-233.0,-34.0,-228.0,70.0,7.0,0
4.0,-238.0,-30.0,-237.0,57.0,9.0,0
2.0,-225.0,-39.0,-245.0,43.0,5.0,0
1.0,-240.0,-32.0,-251.0,30.0,4.0,0
-1.0,-241.0,-34.0,-253.0,15.0,3.0,0
-4.0,-241.0,-34.0,-251.0,-2.0,0.0,0
-6.0,-243.0,-32.0,-249.0,-19.0,-4.0,0
-5.0,-245.0,-34.0,-244.0,-32.0,-10.0,0
-6.0,-248.0,-37.0,-243.0,-43.0,-16.0,0
1.0,-249.0,-39.0,-242.0,-53.0,-25.0,0
-3.0,-251.0,-34.0,-242.0,-57.0,-34.0,0
0.0,-253.0,-47.0,-242.0,-64.0,-44.0,0
0.0,-257.0,-41.0,-242.0,-67.0,-53.0,0
20.0,-266.0,-23.0,-238.0,-74.0,-63.0,0
8.0,-262.0,-45.0,-224.0,-77.0,-72.0,0
13.0,-266.0,-39.0,-203.0,-77.0,-77.0,0
17.0,-270.0,-40.0,-174.0,-71.0,-82.0,0
18.0,-270.0,-37.0,-140.0,-64.0,-85.0,0
23.0,-270.0,-36.0,-108.0,-57.0,-83.0,0
25.0,-272.0,-37.0,-86.0,-53.0,-75.0,0
27.0,-271.0,-42.0,-79.0,-53.0,-68.0,0
28.0,-274.0,-32.0,-82.0,-53.0,-57.0,0
29.0,-275.0,-44.0,-93.0,-53.0,-48.0,0
30.0,-269.0,-41.0,-108.0,-53.0,-39.0,0
28.0,-275.0,-44.0,-123.0,-53.0,-30.0,0
20.0,-268.0,-45.0,-133.0,-56.0,-23.0,0
18.0,-265.0,-49.0,-137.0,-63.0,-17.0,0
16.0,-266.0,-46.0,-140.0,-71.0,-13.0,0
13.0,-262.0,-47.0,-139.0,-79.0,-11.0,0
10.0,-260.0,-41.0,-139.0,-87.0,-10.0,0
12.0,-259.0,-45.0,-143.0,-93.0,-11.0,0
8.0,-258.0,-44.0,-154.0,-99.0,-7.0,0
9.0,-259.0,-36.0,-168.0,-107.0,-8.0,0
4.0,-256.0,-35.0,-180.0,-113.0,-5.0,0
2.0,-246.0,-38.0,-193.0,-115.0,-6.0,0
3.0,-252.0,-34.0,-205.0,-118.0,-6.0,0
4.0,-255.0,-30.0,-213.0,-117.0,-6.0,0
5.0,-253.0,-33.0,-216.0,-116.0,-7.0,0
7.0,-252.0,-33.0,-215.0,-113.0,-7.0,0
9.0,-248.0,-29.0,-209.0,-108.0,-9.0,0
12.0,-250.0,-31.0,-196.0,-102.0,-11.0,0
17.0,-245.0,-35.0,-182.0,-96.0,-11.0,0
16.0,-244.0,-32.0,-167.0,-89.0,-13.0,0
13.0,-243.0,-35.0,-155.0,-87.0,-16.0,0
16.0,-236.0,-39.0,-147.0,-84.0,-16.0,0
-5.0,-237.0,-25.0,-147.0,-86.0,-18.0,0
17.0,-234.0,-31.0,-152.0,-89.0,-17.0,0
16.0,-234.0,-35.0,-158.0,-92.0,-16.0,0
15.0,-236.0,-34.0,-163.0,-94.0,-15.0,0
16.0,-236.0,-33.0,-164.0,-93.0,-12.0,0
17.0,-239.0,-33.0,-158.0,-92.0,-11.0,0
16.0,-237.0,-37.0,-152.0,-97.0,-7.0,0
15.0,-237.0,-39.0,-148.0,-99.0,-7.0,0
17.0,-239.0,-40.0,-148.0,-106.0,-5.0,0
11.0,-242.0,-31.0,-155.0,-111.0,-3.0,0
15.0,-252.0,-33.0,-158.0,-114.0,1.0,0
16.0,-251.0,-44.0,-153.0,-115.0,5.0,0
15.0,-257.0,-28.0,-139.0,-114.0,11.0,0
14.0,-259.0,-26.0,-117.0,-110.0,14.0,0
13.0,-260.0,-30.0,-90.0,-104.0,18.0,0
14.0,-261.0,-31.0,-59.0,-96.0,20.0,0
15.0,-263.0,-36.0,-36.0,-91.0,23.0,0
16.0,-263.0,-40.0,-16.0,-85.0,23.0,0
17.0,-262.0,-41.0,-2.0,-80.0,26.0,0
13.0,-262.0,-44.0,10.0,-81.0,26.0,0
11.0,-262.0,-45.0,21.0,-84.0,29.0,0
11.0,-259.0,-47.0,32.0,-90.0,32.0,0
16.0,-249.0,-57.0,48.0,-95.0,32.0,0
9.0,-262.0,-50.0,65.0,-103.0,34.0,0
9.0,-262.0,-50.0,85.0,-106.0,35.0,0
7.0,-258.0,-42.0,111.0,-112.0,35.0,0
6.0,-257.0,-42.0,129.0,-112.0,34.0,0
6.0,-257.0,-39.0,141.0,-113.0,31.0,0
7.0,-258.0,-37.0,145.0,-112.0,29.0,0
7.0,-256.0,-45.0,145.0,-115.0,26.0,0
7.0,-255.0,-35.0,137.0,-115.0,26.0,0
6.0,-254.0,-36.0,127.0,-114.0,25.0,0
9.0,-254.0,-34.0,112.0,-106.0,22.0,0
16.0,-255.0,-29.0,97.0,-94.0,18.0,0
11.0,-252.0,-40.0,83.0,-77.0,12.0,0
16.0,-249.0,-40.0,67.0,-55.0,5.0,0
15.0,-250.0,-43.0,56.0,-40.0,0.0,0
19.0,-249.0,-33.0,50.0,-30.0,-6.0,0
21.0,-251.0,-29.0,47.0,-28.0,-6.0,0
20.0,-246.0,-31.0,48.0,-30.0,-8.0,0
22.0,-244.0,-32.0,47.0,-34.0,-6.0,0
20.0,-246.0,-32.0,48.0,-31.0,-7.0,0
22.0,-248.0,-31.0,45.0,-28.0,-3.0,0
16.0,-248.0,-30.0,37.0,-21.0,0.0,0
9.0,-238.0,-38.0,29.0,-8.0,4.0,0
15.0,-246.0,-30.0,16.0,9.0,5.0,0
13.0,-247.0,-31.0,5.0,23.0,6.0,0
11.0,-251.0,-28.0,-5.0,31.0,5.0,0
8.0,-252.0,-28.0,-8.0,40.0,6.0,0
5.0,-251.0,-28.0,-8.0,44.0,6.0,0
4.0,-252.0,-26.0,-5.0,49.0,8.0,0
1.0,-251.0,-29.0,1.0,49.0,10.0,0
0.0,-247.0,-26.0,9.0,46.0,12.0,0
1.0,-246.0,-21.0,10.0,41.0,17.0,0
-6.0,-246.0,-28.0,10.0,33.0,25.0,0
1.0,-236.0,-25.0,4.0,21.0,31.0,0
-1.0,-244.0,-25.0,-6.0,12.0,37.0,0
-1.0,-243.0,-25.0,-19.0,4.0,41.0,0
3.0,-244.0,-25.0,-32.0,-3.0,44.0,0
1.0,-244.0,-26.0,-43.0,-10.0,46.0,0
3.0,-246.0,-22.0,-53.0,-16.0,46.0,0
2.0,-248.0,-23.0,-58.0,-21.0,44.0,0
6.0,-252.0,-22.0,-60.0,-25.0,42.0,0
9.0,-252.0,-27.0,-60.0,-29.0,38.0,0
6.0,-254.0,-25.0,-59.0,-31.0,36.0,0
16.0,-260.0,-18.0,-57.0,-32.0,35.0,0
12.0,-255.0,-32.0,-53.0,-31.0,34.0,0
9.0,-250.0,-32.0,-51.0,-28.0,33.0,0
12.0,-253.0,-34.0,-47.0,-24.0,35.0,0
14.0,-254.0,-33.0,-46.0,-19.0,33.0,0
12.0,-255.0,-35.0,-45.0,-11.0,34.0,0
14.0,-253.0,-33.0,-43.0,-3.0,33.0,0
19.0,-254.0,-36.0,-42.0,9.0,31.0,0
17.0,-252.0,-35.0,-37.0,22.0,27.0,0
17.0,-254.0,-35.0,-29.0,35.0,22.0,0
16.0,-257.0,-36.0,-23.0,50.0,18.0,0
19.0,-262.0,-27.0,-11.0,65.0,14.0,0
22.0,-258.0,-34.0,-3.0,78.0,9.0,0
21.0,-255.0,-32.0,5.0,94.0,6.0,0
21.0,-254.0,-34.0,12.0,108.0,2.0,0
22.0,-254.0,-35.0,16.0,122.0,-1.0,0
20.0,-251.0,-38.0,21.0,133.0,-5.0,0
20.0,-253.0,-33.0,23.0,143.0,-9.0,0
21.0,-256.0,-42.0,24.0,151.0,-13.0,0
20.0,-253.0,-37.0,26.0,160.0,-15.0,0
21.0,-253.0,-37.0,28.0,171.0,-18.0,0
18.0,-252.0,-34.0,36.0,180.0,-19.0,0
20.0,-254.0,-37.0,43.0,186.0,-23.0,0
18.0,-256.0,-32.0,53.0,193.0,-24.0,0
15.0,-255.0,-35.0,62.0,198.0,-28.0,0
16.0,-257.0,-36.0,72.0,203.0,-30.0,0
12.0,-255.0,-34.0,81.0,204.0,-33.0,0
13.0,-255.0,-32.0,82.0,202.0,-33.0,0
10.0,-254.0,-32.0,83.0,195.0,-32.0,0
9.0,-250.0,-32.0,80.0,185.0,-31.0,0
9.0,-256.0,-32.0,77.0,172.0,-28.0,0
11.0,-255.0,-29.0,81.0,161.0,-25.0,0
12.0,-250.0,-25.0,90.0,153.0,-24.0,0
24.0,-241.0,-46.0,98.0,150.0,-21.0,0
12.0,-250.0,-32.0,99.0,148.0,-22.0,0
7.0,-242.0,-34.0,93.0,148.0,-21.0,0
10.0,-243.0,-34.0,73.0,148.0,-23.0,0
10.0,-242.0,-34.0,47.0,151.0,-26.0,0
10.0,-241.0,-32.0,20.0,156.0,-30.0,0
12.0,-242.0,-23.0,1.0,161.0,-32.0,0
11.0,-242.0,-21.0,-8.0,170.0,-36.0,0
12.0,-243.0,-23.0,-8.0,176.0,-39.0,0
13.0,-244.0,-21.0,-4.0,181.0,-45.0,0
14.0,-240.0,-19.0,-1.0,183.0,-48.0,0
12.0,-248.0,-22.0,-3.0,182.0,-47.0,0
11.0,-243.0,-21.0,-9.0,180.0,-45.0,0
10.0,-239.0,-22.0,-20.0,179.0,-45.0,0
10.0,-245.0,-28.0,-37.0,173.0,-42.0,0
8.0,-245.0,-26.0,-52.0,171.0,-39.0,0
6.0,-246.0,-28.0,-68.0,166.0,-35.0,0
8.0,-247.0,-30.0,-79.0,155.0,-30.0,0
1.0,-247.0,-28.0,-89.0,143.0,-23.0,0
3.0,-250.0,-32.0,-92.0,132.0,-20.0,0
3.0,-250.0,-31.0,-94.0,119.0,-13.0,0
3.0,-251.0,-30.0,-93.0,107.0,-11.0,0
-6.0,-255.0,-34.0,-90.0,95.0,-7.0,0
1.0,-250.0,-38.0,-83.0,82.0,-7.0,0
1.0,-250.0,-33.0,-74.0,69.0,-3.0,0
-1.0,-253.0,-35.0,-64.0,61.0,-4.0,0
2.0,-249.0,-33.0,-58.0,52.0,-3.0,0
1.0,-249.0,-35.0,-53.0,44.0,-3.0,0
5.0,-251.0,-35.0,-46.0,38.0,0.0,0
7.0,-251.0,-33.0,-43.0,32.0,-3.0,0
10.0,-251.0,-38.0,-42.0,24.0,-1.0,0
7.0,-248.0,-34.0,-37.0,17.0,-1.0,0
10.0,-252.0,-34.0,-34.0,9.0,1.0,0
18.0,-248.0,-38.0,-33.0,4.0,2.0,0
12.0,-249.0,-33.0,-30.0,-2.0,3.0,0
11.0,-250.0,-31.0,-31.0,-9.0,5.0,0
13.0,-252.0,-33.0,-29.0,-13.0,6.0,0
11.0,-252.0,-34.0,-29.0,-15.0,6.0,0
10.0,-252.0,-33.0,-30.0,-14.0,7.0,0
10.0,-249.0,-36.0,-32.0,-10.0,3.0,0
7.0,-249.0,-32.0,-36.0,-5.0,3.0,0
10.0,-251.0,-32.0,-38.0,-1.0,-1.0,0
14.0,-250.0,-33.0,-37.0,5.0,-1.0,0
14.0,-250.0,-31.0,-35.0,9.0,-4.0,0
7.0,-254.0,-22.0,-29.0,17.0,-5.0,0
16.0,-252.0,-33.0,-25.0,21.0,-11.0,0
13.0,-251.0,-33.0,-22.0,29.0,-12.0,0
16.0,-252.0,-29.0,-20.0,36.0,-15.0,0
16.0,-252.0,-29.0,-19.0,41.0,-16.0,0
15.0,-254.0,-31.0,-20.0,47.0,-20.0,0
12.0,-252.0,-31.0,-21.0,50.0,-19.0,0
16.0,-254.0,-30.0,-22.0,55.0,-20.0,0
8.0,-252.0,-30.0,-24.0,60.0,-19.0,0
11.0,-254.0,-27.0,-25.0,64.0,-20.0,0
16.0,-252.0,-30.0,-26.0,67.0,-19.0,0
14.0,-242.0,-32.0,-28.0,71.0,-19.0,0
14.0,-251.0,-29.0,-31.0,76.0,-18.0,0
10.0,-248.0,-28.0,-36.0,80.0,-20.0,0
10.0,-250.0,-29.0,-46.0,86.0,-19.0,0
8.0,-247.0,-30.0,-55.0,87.0,-21.0,0
8.0,-249.0,-32.0,-65.0,85.0,-20.0,0
8.0,-246.0,-27.0,-75.0,84.0,-22.0,0
10.0,-248.0,-27.0,-84.0,81.0,-20.0,0
8.0,-245.0,-31.0,-90.0,79.0,-21.0,0
10.0,-244.0,-28.0,-94.0,78.0,-20.0,0
17.0,-241.0,-31.0,-99.0,79.0,-23.0,0
7.0,-245.0,-27.0,-106.0,79.0,-22.0,0
10.0,-245.0,-26.0,-116.0,80.0,-24.0,0
12.0,-246.0,-28.0,-132.0,77.0,-21.0,0
9.0,-242.0,-29.0,-145.0,71.0,-21.0,0
12.0,-248.0,-26.0,-157.0,66.0,-16.0,0
9.0,-246.0,-31.0,-166.0,63.0,-18.0,0
9.0,-248.0,-30.0,-171.0,60.0,-14.0,0
8.0,-252.0,-30.0,-173.0,58.0,-14.0,0
8.0,-252.0,-27.0,-170.0,55.0,-11.0,0
9.0,-263.0,-31.0,-163.0,53.0,-11.0,0
8.0,-254.0,-28.0,-151.0,52.0,-9.0,0
-2.0,-251.0,-46.0,-137.0,50.0,-10.0,0
11.0,-261.0,-30.0,-122.0,47.0,-7.0,0
10.0,-253.0,-36.0,-110.0,42.0,-7.0,0
8.0,-250.0,-38.0,-100.0,33.0,-3.0,0
12.0,-252.0,-38.0,-92.0,30.0,-2.0,0
8.0,-252.0,-38.0,-86.0,26.0,3.0,0
8.0,-253.0,-38.0,-79.0,26.0,3.0,0
9.0,-250.0,-37.0,-70.0,27.0,6.0,0
9.0,-254.0,-37.0,-65.0,27.0,6.0,0
14.0,-254.0,-38.0,-58.0,29.0,6.0,0
6.0,-246.0,-57.0,-54.0,28.0,4.0,0
8.0,-252.0,-38.0,-51.0,34.0,4.0,0
7.0,-252.0,-39.0,-49.0,40.0,0.0,0
12.0,-255.0,-42.0,-44.0,47.0,1.0,0
10.0,-252.0,-49.0,-33.0,55.0,-4.0,0
13.0,-256.0,-46.0,-20.0,59.0,-3.0,0
11.0,-252.0,-44.0,-11.0,64.0,-6.0,0
16.0,-249.0,-45.0,-7.0,65.0,-7.0,0
11.0,-249.0,-52.0,-12.0,66.0,-10.0,0
11.0,-252.0,-47.0,-24.0,67.0,-11.0,0
14.0,-253.0,-44.0,-37.0,69.0,-14.0,0
13.0,-254.0,-35.0,-39.0,74.0,-15.0,0
10.0,-258.0,-35.0,-29.0,81.0,-20.0,0
13.0,-259.0,-38.0,-13.0,86.0,-20.0,0
11.0,-256.0,-35.0,2.0,95.0,-24.0,0
11.0,-253.0,-32.0,16.0,103.0,-24.0,0
11.0,-254.0,-37.0,22.0,111.0,-27.0,0
13.0,-253.0,-31.0,28.0,117.0,-28.0,0
11.0,-249.0,-31.0,30.0,122.0,-31.0,0
9.0,-247.0,-33.0,30.0,127.0,-31.0,0
11.0,-248.0,-37.0,29.0,128.0,-34.0,0
9.0,-250.0,-40.0,23.0,130.0,-35.0,0
3.0,-248.0,-1.0,19.0,130.0,-36.0,0
8.0,-247.0,-40.0,12.0,129.0,-35.0,0
9.0,-250.0,-36.0,7.0,128.0,-36.0,0
7.0,-250.0,-36.0,1.0,126.0,-32.0,0
5.0,-251.0,-34.0,-3.0,126.0,-32.0,0
5.0,-249.0,-29.0,-2.0,127.0,-31.0,0
6.0,-251.0,-31.0,-1.0,126.0,-33.0,0
3.0,-253.0,-32.0,2.0,125.0,-32.0,0
7.0,-254.0,-30.0,5.0,122.0,-32.0,0
5.0,-250.0,-33.0,6.0,116.0,-30.0,0
6.0,-252.0,-33.0,4.0,113.0,-31.0,0
17.0,-254.0,-38.0,1.0,109.0,-28.0,0
6.0,-248.0,-34.0,-4.0,107.0,-30.0,0
6.0,-251.0,-29.0,-9.0,103.0,-27.0,0
5.0,-250.0,-33.0,-14.0,99.0,-27.0,0
4.0,-253.0,-32.0,-19.0,92.0,-23.0,0
5.0,-251.0,-29.0,-22.0,87.0,-23.0,0
7.0,-251.0,-34.0,-26.0,83.0,-21.0,0
7.0,-252.0,-34.0,-31.0,80.0,-22.0,0
7.0,-249.0,-35.0,-33.0,79.0,-20.0,0
11.0,-252.0,-38.0,-36.0,81.0,-24.0,0
7.0,-251.0,-33.0,-42.0,80.0,-23.0,0
-3.0,-257.0,-23.0,-48.0,80.0,-27.0,0
5.0,-252.0,-38.0,-58.0,78.0,-27.0,0
6.0,-252.0,-38.0,-68.0,80.0,-31.0,0
6.0,-254.0,-43.0,-80.0,81.0,-32.0,0
9.0,-254.0,-41.0,-90.0,86.0,-39.0,0
13.0,-255.0,-42.0,-94.0,94.0,-42.0,0
11.0,-256.0,-44.0,-99.0,103.0,-49.0,0
12.0,-254.0,-45.0,-99.0,114.0,-56.0,0
11.0,-255.0,-44.0,-92.0,126.0,-64.0,0
13.0,-259.0,-43.0,-86.0,134.0,-69.0,0
12.0,-256.0,-46.0,-80.0,141.0,-78.0,0
23.0,-250.0,-31.0,-70.0,146.0,-82.0,0
9.0,-256.0,-43.0,-59.0,150.0,-89.0,0
7.0,-256.0,-42.0,-49.0,152.0,-89.0,0
7.0,-255.0,-41.0,-40.0,154.0,-94.0,0
8.0,-255.0,-42.0,-30.0,154.0,-94.0,0
6.0,-254.0,-40.0,-20.0,153.0,-96.0,0
5.0,-254.0,-42.0,-11.0,149.0,-95.0,0
3.0,-253.0,-38.0,1.0,143.0,-97.0,0
5.0,-253.0,-41.0,10.0,139.0,-93.0,0
