ax,ay,az,gx,gy,gz,label
10.0,-250.0,-68.0,-12.0,57.0,-4.0,0
8.0,-248.0,-71.0,-11.0,54.0,-2.0,0
12.0,-251.0,-69.0,-11.0,52.0,-4.0,0
10.0,-249.0,-70.0,-13.0,50.0,-1.0,0
10.0,-249.0,-70.0,-11.0,49.0,-2.0,0
11.0,-251.0,-72.0,-10.0,50.0,-1.0,0
13.0,-253.0,-69.0,-10.0,52.0,-3.0,0
15.0,-245.0,-61.0,-9.0,54.0,-1.0,0
16.0,-237.0,-77.0,-10.0,52.0,-1.0,0
8.0,-254.0,-70.0,-10.0,54.0,-2.0,0
13.0,-250.0,-71.0,-10.0,56.0,-1.0,0
0.0,-247.0,-87.0,-10.0,58.0,-2.0,0
6.0,-242.0,-80.0,-12.0,59.0,-2.0,0
9.0,-246.0,-69.0,-12.0,60.0,-3.0,0
9.0,-248.0,-72.0,-12.0,61.0,-2.0,0
14.0,-249.0,-74.0,-13.0,63.0,-3.0,0
11.0,-247.0,-71.0,-14.0,64.0,-2.0,0
11.0,-248.0,-72.0,-13.0,64.0,-4.0,0
8.0,-249.0,-74.0,-13.0,66.0,-4.0,0
7.0,-248.0,-72.0,-12.0,65.0,-7.0,0
11.0,-247.0,-71.0,-12.0,65.0,-4.0,0
10.0,-245.0,-74.0,-11.0,64.0,-6.0,0
10.0,-245.0,-72.0,-10.0,62.0,-5.0,0
12.0,-246.0,-68.0,-9.0,60.0,-6.0,0
9.0,-246.0,-69.0,-8.0,58.0,-3.0,0
10.0,-249.0,-68.0,-6.0,57.0,-4.0,0
10.0,-245.0,-66.0,-4.0,56.0,-3.0,0
11.0,-248.0,-69.0,-2.0,54.0,-4.0,0
11.0,-249.0,-69.0,-3.0,53.0,-3.0,0
10.0,-247.0,-66.0,-3.0,51.0,-3.0,0
7.0,-248.0,-66.0,-3.0,50.0,-1.0,0
11.0,-248.0,-71.0,-4.0,52.0,-3.0,0
11.0,-250.0,-68.0,-3.0,51.0,-1.0,0
12.0,-249.0,-66.0,-2.0,54.0,-3.0,0
10.0,-248.0,-69.0,-2.0,55.0,0.0,0
7.0,-248.0,-69.0,0.0,56.0,-4.0,0
11.0,-250.0,-68.0,1.0,57.0,-2.0,0
10.0,-248.0,-66.0,-1.0,58.0,-4.0,0
11.0,-246.0,-67.0,-3.0,60.0,-2.0,0
12.0,-249.0,-71.0,-5.0,61.0,-5.0,0
12.0,-248.0,-69.0,-9.0,63.0,-4.0,0
8.0,-250.0,-68.0,-14.0,63.0,-6.0,0
10.0,-248.0,-71.0,-17.0,65.0,-4.0,0
11.0,-247.0,-73.0,-21.0,65.0,-6.0,0
11.0,-247.0,-66.0,-24.0,65.0,-5.0,0
10.0,-250.0,-66.0,-27.0,65.0,-6.0,0
14.0,-251.0,-66.0,-28.0,66.0,-2.0,0
10.0,-251.0,-71.0,-29.0,66.0,-4.0,0
12.0,-249.0,-67.0,-29.0,67.0,-1.0,0
8.0,-251.0,-71.0,-28.0,68.0,-3.0,0
12.0,-253.0,-70.0,-26.0,68.0,0.0,0
11.0,-250.0,-70.0,-25.0,69.0,-2.0,0
9.0,-249.0,-70.0,-22.0,69.0,1.0,0
7.0,-247.0,-69.0,-20.0,68.0,0.0,0
9.0,-248.0,-72.0,-18.0,68.0,2.0,0
15.0,-251.0,-69.0,-17.0,68.0,-1.0,0
10.0,-249.0,-70.0,-14.0,66.0,0.0,0
8.0,-247.0,-69.0,-12.0,67.0,-2.0,0
9.0,-247.0,-63.0,-9.0,67.0,0.0,0
9.0,-248.0,-67.0,-8.0,66.0,-3.0,0
13.0,-248.0,-67.0,-7.0,65.0,0.0,0
6.0,-248.0,-69.0,-7.0,66.0,-4.0,0
10.0,-249.0,-66.0,-7.0,66.0,-2.0,0
11.0,-248.0,-67.0,-7.0,68.0,-5.0,0
10.0,-250.0,-66.0,-5.0,68.0,-2.0,0
11.0,-247.0,-74.0,-6.0,69.0,-4.0,0
10.0,-247.0,-72.0,-6.0,69.0,-2.0,0
10.0,-248.0,-72.0,-7.0,71.0,-3.0,0
9.0,-247.0,-72.0,-10.0,70.0,-2.0,0
9.0,-248.0,-71.0,-14.0,72.0,-3.0,0
11.0,-248.0,-71.0,-16.0,72.0,-2.0,0
10.0,-246.0,-70.0,-16.0,71.0,-3.0,0
12.0,-245.0,-71.0,-17.0,71.0,0.0,0
13.0,-250.0,-69.0,-18.0,69.0,-2.0,0
11.0,-247.0,-67.0,-18.0,70.0,-1.0,0
13.0,-247.0,-67.0,-17.0,71.0,-3.0,0
10.0,-250.0,-72.0,-18.0,72.0,-1.0,0
9.0,-252.0,-71.0,-16.0,70.0,-1.0,0
11.0,-250.0,-71.0,-13.0,71.0,-1.0,0
11.0,-248.0,-69.0,-10.0,73.0,-1.0,0
10.0,-252.0,-68.0,-7.0,74.0,-1.0,0
7.0,-247.0,-73.0,-8.0,74.0,-1.0,0
10.0,-249.0,-65.0,-7.0,74.0,-1.0,0
8.0,-250.0,-70.0,-5.0,74.0,-2.0,0
12.0,-249.0,-72.0,-8.0,75.0,-2.0,0
9.0,-250.0,-71.0,-8.0,75.0,0.0,0
8.0,-247.0,-70.0,-6.0,74.0,-1.0,0
8.0,-247.0,-73.0,-5.0,74.0,-2.0,0
10.0,-251.0,-75.0,-2.0,74.0,-3.0,0
9.0,-249.0,-70.0,-2.0,73.0,-1.0,0
7.0,-249.0,-73.0,-2.0,74.0,-1.0,0
7.0,-247.0,-69.0,0.0,74.0,-1.0,0
11.0,-245.0,-70.0,0.0,74.0,-3.0,0
9.0,-250.0,-69.0,0.0,72.0,-1.0,0
10.0,-249.0,-71.0,1.0,70.0,-1.0,0
7.0,-250.0,-70.0,1.0,68.0,1.0,0
10.0,-253.0,-72.0,2.0,68.0,1.0,0
10.0,-252.0,-68.0,1.0,66.0,3.0,0
11.0,-254.0,-73.0,1.0,65.0,3.0,0
10.0,-252.0,-73.0,0.0,63.0,5.0,0
8.0,-250.0,-72.0,0.0,63.0,1.0,0
12.0,-252.0,-73.0,1.0,63.0,1.0,0
8.0,-250.0,-74.0,3.0,65.0,0.0,0
8.0,-252.0,-73.0,4.0,65.0,2.0,0
9.0,-251.0,-72.0,8.0,67.0,-1.0,0
11.0,-252.0,-74.0,12.0,68.0,-1.0,0
8.0,-248.0,-74.0,16.0,69.0,-3.0,0
12.0,-253.0,-70.0,20.0,71.0,-1.0,0
10.0,-251.0,-72.0,24.0,71.0,-3.0,0
8.0,-247.0,-70.0,25.0,71.0,-3.0,0
10.0,-251.0,-71.0,28.0,69.0,-7.0,0
8.0,-247.0,-75.0,29.0,69.0,-4.0,0
11.0,-245.0,-72.0,31.0,67.0,-6.0,0
9.0,-244.0,-65.0,29.0,68.0,-5.0,0
8.0,-244.0,-72.0,28.0,66.0,-5.0,0
11.0,-248.0,-73.0,25.0,63.0,-2.0,0
10.0,-244.0,-70.0,22.0,61.0,-4.0,0
8.0,-245.0,-69.0,19.0,58.0,0.0,0
9.0,-246.0,-71.0,17.0,55.0,-3.0,0
10.0,-245.0,-72.0,16.0,54.0,0.0,0
10.0,-247.0,-70.0,14.0,52.0,-2.0,0
9.0,-248.0,-69.0,12.0,53.0,0.0,0
9.0,-248.0,-71.0,11.0,54.0,-3.0,0
9.0,-248.0,-72.0,10.0,54.0,1.0,0
9.0,-245.0,-72.0,8.0,55.0,-1.0,0
11.0,-248.0,-71.0,5.0,57.0,2.0,0
7.0,-246.0,-71.0,3.0,58.0,-2.0,0
9.0,-251.0,-71.0,3.0,58.0,1.0,0
12.0,-248.0,-71.0,5.0,58.0,1.0,0
10.0,-247.0,-69.0,8.0,59.0,3.0,0
11.0,-248.0,-68.0,11.0,58.0,0.0,0
12.0,-248.0,-67.0,14.0,58.0,2.0,0
12.0,-247.0,-69.0,14.0,57.0,-1.0,0
8.0,-247.0,-66.0,13.0,56.0,0.0,0
10.0,-244.0,-66.0,13.0,55.0,-2.0,0
11.0,-245.0,-68.0,9.0,54.0,-2.0,0
11.0,-248.0,-67.0,7.0,52.0,-5.0,0
10.0,-246.0,-71.0,5.0,50.0,-3.0,0
8.0,-243.0,-67.0,3.0,49.0,-4.0,0
10.0,-247.0,-70.0,0.0,47.0,-1.0,0
10.0,-246.0,-63.0,-2.0,45.0,-3.0,0
7.0,-247.0,-67.0,-3.0,43.0,-2.0,0
6.0,-246.0,-64.0,-3.0,41.0,-5.0,0
7.0,-250.0,-65.0,-6.0,37.0,-3.0,0
10.0,-247.0,-64.0,-8.0,31.0,-6.0,0
7.0,-245.0,-68.0,-11.0,28.0,-7.0,0
6.0,-249.0,-64.0,-15.0,23.0,-8.0,0
8.0,-249.0,-65.0,-20.0,21.0,-7.0,0
7.0,-248.0,-63.0,-25.0,19.0,-9.0,0
7.0,-249.0,-65.0,-28.0,19.0,-8.0,0
8.0,-249.0,-64.0,-32.0,21.0,-12.0,0
7.0,-248.0,-66.0,-33.0,21.0,-10.0,0
7.0,-244.0,-62.0,-33.0,22.0,-10.0,0
8.0,-248.0,-67.0,-34.0,23.0,-10.0,0
10.0,-248.0,-67.0,-32.0,25.0,-9.0,0
7.0,-249.0,-64.0,-33.0,24.0,-9.0,0
9.0,-249.0,-68.0,-34.0,26.0,-10.0,0
11.0,-248.0,-66.0,-36.0,28.0,-8.0,0
12.0,-252.0,-69.0,-38.0,28.0,-9.0,0
11.0,-248.0,-67.0,-40.0,28.0,-7.0,0
8.0,-250.0,-67.0,-42.0,30.0,-7.0,0
12.0,-250.0,-66.0,-45.0,31.0,-7.0,0
10.0,-248.0,-68.0,-47.0,35.0,-6.0,0
10.0,-250.0,-70.0,-49.0,36.0,-5.0,0
13.0,-249.0,-67.0,-50.0,39.0,-7.0,0
13.0,-249.0,-64.0,-49.0,41.0,-7.0,0
11.0,-248.0,-67.0,-47.0,44.0,-5.0,0
12.0,-247.0,-69.0,-45.0,45.0,-7.0,0
13.0,-247.0,-68.0,-41.0,48.0,-7.0,0
10.0,-247.0,-67.0,-40.0,49.0,-9.0,0
12.0,-250.0,-66.0,-38.0,50.0,-8.0,0
10.0,-249.0,-72.0,-37.0,49.0,-9.0,0
9.0,-252.0,-69.0,-36.0,49.0,-8.0,0
10.0,-250.0,-69.0,-38.0,49.0,-10.0,0
12.0,-252.0,-70.0,-38.0,49.0,-10.0,0
10.0,-253.0,-69.0,-38.0,49.0,-11.0,0
11.0,-250.0,-68.0,-36.0,49.0,-9.0,0
11.0,-255.0,-68.0,-35.0,47.0,-9.0,0
10.0,-251.0,-71.0,-33.0,46.0,-5.0,0
12.0,-251.0,-69.0,-30.0,46.0,-5.0,0
8.0,-250.0,-70.0,-27.0,45.0,-3.0,0
9.0,-252.0,-71.0,-25.0,43.0,-4.0,0
7.0,-251.0,-66.0,-23.0,40.0,-1.0,0
7.0,-248.0,-66.0,-19.0,40.0,-1.0,0
8.0,-249.0,-71.0,-18.0,38.0,-1.0,0
8.0,-246.0,-70.0,-15.0,36.0,-1.0,0
8.0,-247.0,-66.0,-13.0,36.0,0.0,0
7.0,-246.0,-68.0,-13.0,37.0,-3.0,0
8.0,-246.0,-68.0,-10.0,35.0,0.0,0
7.0,-246.0,-68.0,-9.0,35.0,-4.0,0
7.0,-247.0,-66.0,-10.0,34.0,-3.0,0
8.0,-246.0,-67.0,-11.0,33.0,-6.0,0
8.0,-247.0,-69.0,-14.0,32.0,-4.0,0
10.0,-249.0,-66.0,-17.0,32.0,-7.0,0
11.0,-247.0,-65.0,-21.0,30.0,-5.0,0
9.0,-245.0,-65.0,-23.0,29.0,-7.0,0
11.0,-247.0,-68.0,-26.0,27.0,-4.0,0
13.0,-248.0,-65.0,-28.0,26.0,-5.0,0
11.0,-246.0,-65.0,-30.0,23.0,-2.0,0
10.0,-251.0,-68.0,-33.0,24.0,-5.0,0
9.0,-248.0,-65.0,-34.0,23.0,-2.0,0
10.0,-249.0,-63.0,-35.0,25.0,-5.0,0
9.0,-246.0,-60.0,-36.0,29.0,-2.0,0
11.0,-247.0,-65.0,-37.0,32.0,-4.0,0
13.0,-248.0,-63.0,-37.0,32.0,-2.0,0
12.0,-249.0,-68.0,-40.0,35.0,-5.0,0
11.0,-248.0,-63.0,-41.0,37.0,-1.0,0
9.0,-245.0,-66.0,-44.0,38.0,-3.0,0
10.0,-247.0,-67.0,-45.0,38.0,0.0,0
10.0,-245.0,-65.0,-46.0,39.0,-3.0,0
11.0,-248.0,-64.0,-47.0,39.0,-2.0,0
13.0,-250.0,-64.0,-47.0,42.0,-3.0,0
10.0,-249.0,-66.0,-45.0,43.0,0.0,0
11.0,-252.0,-61.0,-43.0,45.0,-2.0,0
12.0,-247.0,-65.0,-41.0,47.0,0.0,0
10.0,-250.0,-62.0,-38.0,49.0,-1.0,0
11.0,-249.0,-66.0,-37.0,51.0,3.0,0
11.0,-252.0,-60.0,-36.0,53.0,2.0,0
10.0,-250.0,-61.0,-35.0,56.0,5.0,0
9.0,-250.0,-62.0,-38.0,58.0,2.0,0
11.0,-250.0,-58.0,-39.0,59.0,4.0,0
13.0,-252.0,-63.0,-43.0,60.0,2.0,0
8.0,-248.0,-64.0,-45.0,61.0,2.0,0
10.0,-250.0,-65.0,-49.0,61.0,2.0,0
10.0,-247.0,-65.0,-53.0,59.0,1.0,0
12.0,-252.0,-64.0,-56.0,59.0,-2.0,0
7.0,-252.0,-63.0,-57.0,60.0,-2.0,0
10.0,-250.0,-65.0,-58.0,61.0,-5.0,0
7.0,-255.0,-64.0,-56.0,62.0,-4.0,0
9.0,-251.0,-62.0,-54.0,63.0,-7.0,0
8.0,-252.0,-65.0,-48.0,64.0,-6.0,0
9.0,-251.0,-65.0,-44.0,64.0,-7.0,0
9.0,-251.0,-64.0,-41.0,65.0,-7.0,0
9.0,-248.0,-63.0,-40.0,66.0,-7.0,0
8.0,-247.0,-68.0,-41.0,66.0,-7.0,0
8.0,-252.0,-67.0,-40.0,64.0,-8.0,0
10.0,-250.0,-70.0,-43.0,63.0,-8.0,0
10.0,-251.0,-70.0,-44.0,62.0,-8.0,0
9.0,-248.0,-71.0,-45.0,62.0,-8.0,0
10.0,-253.0,-69.0,-46.0,65.0,-8.0,0
10.0,-250.0,-71.0,-42.0,64.0,-8.0,0
8.0,-249.0,-68.0,-42.0,66.0,-8.0,0
11.0,-252.0,-68.0,-41.0,67.0,-8.0,0
10.0,-250.0,-70.0,-40.0,68.0,-6.0,0
11.0,-250.0,-65.0,-36.0,72.0,-7.0,0
8.0,-251.0,-70.0,-34.0,74.0,-5.0,0
12.0,-250.0,-70.0,-30.0,75.0,-4.0,0
12.0,-249.0,-71.0,-27.0,78.0,-3.0,0
10.0,-250.0,-69.0,-25.0,79.0,-3.0,0
10.0,-251.0,-67.0,-21.0,78.0,-2.0,0
12.0,-252.0,-64.0,-17.0,78.0,-3.0,0
12.0,-251.0,-65.0,-13.0,77.0,-1.0,0
11.0,-250.0,-68.0,-7.0,77.0,-1.0,0
9.0,-250.0,-64.0,-2.0,76.0,1.0,0
11.0,-249.0,-68.0,1.0,76.0,0.0,0
11.0,-248.0,-68.0,5.0,76.0,1.0,0
8.0,-253.0,-63.0,7.0,75.0,-1.0,0
9.0,-247.0,-65.0,9.0,75.0,0.0,0
11.0,-250.0,-66.0,10.0,76.0,-1.0,0
7.0,-249.0,-67.0,10.0,76.0,0.0,0
7.0,-250.0,-71.0,10.0,77.0,-1.0,0
4.0,-250.0,-68.0,9.0,78.0,0.0,0
7.0,-250.0,-66.0,10.0,80.0,-1.0,0
7.0,-250.0,-70.0,10.0,85.0,1.0,0
9.0,-254.0,-66.0,10.0,88.0,-1.0,0
4.0,-246.0,-65.0,10.0,90.0,2.0,0
7.0,-251.0,-64.0,11.0,90.0,0.0,0
8.0,-250.0,-66.0,12.0,89.0,2.0,0
9.0,-251.0,-70.0,12.0,89.0,0.0,0
7.0,-249.0,-64.0,13.0,86.0,0.0,0
8.0,-249.0,-68.0,13.0,87.0,-2.0,0
10.0,-253.0,-65.0,13.0,85.0,-2.0,0
7.0,-251.0,-68.0,13.0,83.0,-4.0,0
8.0,-251.0,-65.0,13.0,81.0,-2.0,0
5.0,-251.0,-63.0,13.0,80.0,-5.0,0
9.0,-248.0,-67.0,14.0,80.0,-3.0,0
7.0,-252.0,-65.0,15.0,81.0,-6.0,0
7.0,-250.0,-65.0,15.0,79.0,-3.0,0
6.0,-249.0,-62.0,16.0,79.0,-4.0,0
7.0,-249.0,-66.0,16.0,78.0,-1.0,0
5.0,-249.0,-66.0,15.0,77.0,-3.0,0
6.0,-247.0,-65.0,14.0,77.0,0.0,0
6.0,-251.0,-67.0,11.0,76.0,-3.0,0
6.0,-248.0,-68.0,8.0,76.0,0.0,0
10.0,-249.0,-69.0,8.0,77.0,-2.0,0
8.0,-248.0,-69.0,3.0,79.0,1.0,0
8.0,-249.0,-68.0,0.0,77.0,-2.0,0
6.0,-245.0,-71.0,-3.0,78.0,1.0,0
7.0,-248.0,-65.0,-5.0,77.0,-1.0,0
6.0,-246.0,-68.0,-9.0,75.0,1.0,0
8.0,-244.0,-71.0,-9.0,72.0,-2.0,0
8.0,-249.0,-69.0,-13.0,69.0,0.0,0
5.0,-244.0,-65.0,-12.0,68.0,-5.0,0
9.0,-248.0,-69.0,-13.0,68.0,-3.0,0
9.0,-246.0,-71.0,-13.0,67.0,-4.0,0
12.0,-251.0,-71.0,-15.0,68.0,-3.0,0
12.0,-249.0,-66.0,-14.0,65.0,-6.0,0
7.0,-250.0,-65.0,-13.0,65.0,-3.0,0
9.0,-251.0,-66.0,-12.0,65.0,-6.0,0
8.0,-252.0,-68.0,-10.0,65.0,-4.0,0
5.0,-248.0,-69.0,-9.0,65.0,-6.0,0
9.0,-250.0,-69.0,-7.0,65.0,-3.0,0
8.0,-249.0,-70.0,-7.0,65.0,-5.0,0
7.0,-250.0,-62.0,-7.0,66.0,-3.0,0
10.0,-252.0,-65.0,-7.0,68.0,-4.0,0
10.0,-250.0,-65.0,-7.0,68.0,-3.0,0
10.0,-251.0,-68.0,-8.0,70.0,-5.0,0
8.0,-248.0,-73.0,-9.0,72.0,-3.0,0
6.0,-246.0,-70.0,-10.0,71.0,-4.0,0
7.0,-246.0,-70.0,-9.0,71.0,-5.0,0
3.0,-249.0,-65.0,-10.0,68.0,-5.0,0
8.0,-249.0,-64.0,-10.0,66.0,-4.0,0
6.0,-250.0,-70.0,-11.0,63.0,-4.0,0
8.0,-247.0,-67.0,-12.0,62.0,-5.0,0
8.0,-250.0,-67.0,-11.0,60.0,-5.0,0
8.0,-249.0,-66.0,-12.0,58.0,-4.0,0
7.0,-246.0,-69.0,-13.0,56.0,-6.0,0
6.0,-248.0,-65.0,-13.0,55.0,-4.0,0
7.0,-245.0,-70.0,-14.0,54.0,-5.0,0
9.0,-247.0,-69.0,-15.0,54.0,-4.0,0
5.0,-248.0,-64.0,-18.0,54.0,-6.0,0
8.0,-250.0,-67.0,-20.0,53.0,-5.0,0
8.0,-249.0,-67.0,-21.0,53.0,-6.0,0
10.0,-250.0,-68.0,-27.0,56.0,-4.0,0
11.0,-251.0,-71.0,-30.0,56.0,-4.0,0
12.0,-250.0,-68.0,-32.0,58.0,-3.0,0
7.0,-251.0,-68.0,-32.0,61.0,-3.0,0
9.0,-250.0,-71.0,-33.0,63.0,-2.0,0
9.0,-247.0,-70.0,-33.0,63.0,-2.0,0
10.0,-251.0,-69.0,-32.0,63.0,-3.0,0
9.0,-249.0,-70.0,-31.0,62.0,-5.0,0
9.0,-249.0,-68.0,-30.0,62.0,-6.0,0
12.0,-249.0,-72.0,-31.0,61.0,-5.0,0
7.0,-247.0,-68.0,-29.0,61.0,-6.0,0
11.0,-250.0,-69.0,-26.0,62.0,-5.0,0
6.0,-250.0,-68.0,-23.0,60.0,-6.0,0
9.0,-248.0,-71.0,-22.0,60.0,-6.0,0
8.0,-245.0,-69.0,-20.0,60.0,-7.0,0
7.0,-246.0,-71.0,-20.0,60.0,-5.0,0
5.0,-247.0,-69.0,-19.0,60.0,-6.0,0
7.0,-247.0,-71.0,-18.0,59.0,-3.0,0
7.0,-247.0,-71.0,-18.0,59.0,-5.0,0
10.0,-246.0,-73.0,-20.0,57.0,-3.0,0
6.0,-247.0,-70.0,-20.0,57.0,-4.0,0
9.0,-248.0,-68.0,-21.0,59.0,-1.0,0
8.0,-248.0,-73.0,-19.0,60.0,-2.0,0
10.0,-250.0,-72.0,-19.0,60.0,-2.0,0
9.0,-248.0,-72.0,-20.0,61.0,-5.0,0
10.0,-248.0,-72.0,-22.0,61.0,-2.0,0
9.0,-248.0,-71.0,-24.0,63.0,-3.0,0
13.0,-248.0,-72.0,-24.0,62.0,-3.0,0
8.0,-249.0,-67.0,-24.0,61.0,-4.0,0
11.0,-252.0,-70.0,-23.0,59.0,-1.0,0
9.0,-249.0,-70.0,-21.0,57.0,-6.0,0
11.0,-254.0,-67.0,-20.0,55.0,-3.0,0
11.0,-252.0,-70.0,-16.0,55.0,-5.0,0
11.0,-250.0,-69.0,-12.0,54.0,-6.0,0
11.0,-250.0,-70.0,-10.0,57.0,-8.0,0
9.0,-249.0,-69.0,-8.0,59.0,-5.0,0
9.0,-249.0,-72.0,-6.0,62.0,-8.0,0
11.0,-251.0,-75.0,-6.0,64.0,-6.0,0
9.0,-250.0,-67.0,-6.0,68.0,-8.0,0
11.0,-246.0,-71.0,-5.0,68.0,-5.0,0
9.0,-247.0,-71.0,-5.0,68.0,-7.0,0
7.0,-246.0,-67.0,-5.0,67.0,-3.0,0
10.0,-248.0,-69.0,-5.0,68.0,-4.0,0
10.0,-246.0,-66.0,-9.0,63.0,-2.0,0
10.0,-245.0,-71.0,-11.0,59.0,-4.0,0
9.0,-245.0,-70.0,-14.0,57.0,-3.0,0
9.0,-245.0,-67.0,-17.0,54.0,-5.0,0
11.0,-250.0,-67.0,-17.0,53.0,-3.0,0
9.0,-251.0,-69.0,-13.0,52.0,-4.0,0
11.0,-252.0,-68.0,-10.0,53.0,-2.0,0
10.0,-249.0,-66.0,-6.0,55.0,-4.0,0
8.0,-249.0,-69.0,-4.0,58.0,-1.0,0
12.0,-247.0,-70.0,-6.0,60.0,-4.0,0
11.0,-250.0,-68.0,-8.0,62.0,-3.0,0
11.0,-249.0,-69.0,-11.0,62.0,-4.0,0
9.0,-249.0,-67.0,-15.0,60.0,-2.0,0
7.0,-251.0,-70.0,-18.0,58.0,-5.0,0
11.0,-248.0,-70.0,-18.0,57.0,-3.0,0
10.0,-248.0,-72.0,-19.0,56.0,-5.0,0
14.0,-248.0,-69.0,-17.0,58.0,-3.0,0
10.0,-249.0,-68.0,-16.0,59.0,-6.0,0
9.0,-250.0,-70.0,-14.0,60.0,-3.0,0
10.0,-249.0,-70.0,-14.0,61.0,-4.0,0
10.0,-249.0,-72.0,-13.0,60.0,-3.0,0
9.0,-248.0,-73.0,-13.0,61.0,-5.0,0
9.0,-248.0,-71.0,-12.0,63.0,-4.0,0
7.0,-250.0,-71.0,-12.0,63.0,-5.0,0
7.0,-249.0,-69.0,-12.0,66.0,-2.0,0
7.0,-246.0,-75.0,-11.0,63.0,-3.0,0
8.0,-244.0,-70.0,-14.0,62.0,-1.0,0
11.0,-248.0,-73.0,-15.0,59.0,-2.0,0
12.0,-250.0,-69.0,-17.0,56.0,-2.0,0
8.0,-246.0,-72.0,-16.0,56.0,-3.0,0
10.0,-247.0,-72.0,-16.0,56.0,0.0,0
10.0,-247.0,-66.0,-15.0,54.0,-1.0,0
11.0,-248.0,-69.0,-13.0,54.0,0.0,0
9.0,-245.0,-73.0,-12.0,54.0,-1.0,0
11.0,-246.0,-67.0,-12.0,55.0,1.0,0
8.0,-248.0,-71.0,-11.0,55.0,-2.0,0
8.0,-250.0,-66.0,-10.0,54.0,0.0,0
12.0,-251.0,-70.0,-9.0,55.0,-2.0,0
8.0,-248.0,-70.0,-7.0,54.0,-2.0,0
9.0,-249.0,-71.0,-6.0,57.0,-2.0,0
10.0,-249.0,-67.0,-6.0,60.0,-1.0,0
10.0,-250.0,-73.0,-6.0,61.0,-2.0,0
9.0,-251.0,-71.0,-6.0,62.0,-2.0,0
12.0,-249.0,-72.0,-8.0,64.0,-2.0,0
9.0,-248.0,-72.0,-10.0,64.0,-2.0,0
8.0,-247.0,-70.0,-13.0,65.0,-3.0,0
10.0,-248.0,-72.0,-13.0,63.0,-4.0,0
11.0,-246.0,-70.0,-13.0,62.0,-3.0,0
8.0,-247.0,-72.0,-15.0,62.0,-3.0,0
8.0,-248.0,-74.0,-16.0,60.0,-3.0,0
7.0,-247.0,-69.0,-19.0,59.0,-3.0,0
10.0,-250.0,-70.0,-22.0,59.0,-3.0,0
10.0,-251.0,-72.0,-25.0,58.0,-4.0,0
11.0,-249.0,-70.0,-25.0,57.0,-3.0,0
7.0,-248.0,-71.0,-23.0,59.0,-4.0,0
10.0,-248.0,-70.0,-19.0,60.0,-3.0,0
7.0,-248.0,-76.0,-13.0,60.0,-3.0,0
12.0,-250.0,-71.0,-9.0,61.0,-3.0,0
11.0,-246.0,-70.0,-7.0,61.0,-3.0,0
9.0,-248.0,-69.0,-6.0,62.0,-1.0,0
12.0,-248.0,-69.0,-8.0,60.0,-2.0,0
12.0,-246.0,-68.0,-7.0,59.0,-1.0,0
9.0,-246.0,-69.0,-8.0,57.0,-2.0,0
6.0,-243.0,-70.0,-7.0,57.0,-1.0,0
8.0,-246.0,-70.0,-9.0,58.0,-4.0,0
9.0,-248.0,-68.0,-8.0,57.0,-2.0,0
11.0,-249.0,-66.0,-9.0,58.0,-3.0,0
8.0,-245.0,-71.0,-10.0,57.0,-4.0,0
9.0,-248.0,-74.0,-13.0,56.0,-6.0,0
10.0,-248.0,-72.0,-11.0,55.0,-5.0,0
8.0,-249.0,-69.0,-12.0,55.0,-7.0,0
11.0,-249.0,-72.0,-13.0,56.0,-4.0,0
7.0,-248.0,-70.0,-15.0,58.0,-6.0,0
9.0,-248.0,-71.0,-14.0,59.0,-3.0,0
9.0,-251.0,-70.0,-13.0,60.0,-5.0,0
9.0,-247.0,-70.0,-13.0,61.0,-1.0,0
11.0,-248.0,-72.0,-10.0,61.0,-5.0,0
11.0,-248.0,-72.0,-8.0,61.0,-3.0,0
13.0,-251.0,-70.0,-7.0,59.0,-6.0,0
11.0,-249.0,-72.0,-6.0,56.0,-2.0,0
8.0,-247.0,-69.0,-5.0,55.0,-4.0,0
7.0,-249.0,-67.0,-4.0,53.0,-1.0,0
9.0,-248.0,-69.0,-4.0,51.0,-4.0,0
6.0,-246.0,-67.0,-4.0,50.0,-2.0,0
11.0,-250.0,-69.0,-6.0,50.0,-4.0,0
9.0,-249.0,-66.0,-7.0,50.0,-4.0,0
11.0,-250.0,-68.0,-8.0,51.0,-6.0,0
11.0,-248.0,-68.0,-12.0,51.0,-5.0,0
9.0,-248.0,-70.0,-13.0,51.0,-7.0,0
7.0,-248.0,-69.0,-12.0,52.0,-4.0,0
5.0,-244.0,-70.0,-12.0,52.0,-5.0,0
7.0,-249.0,-68.0,-12.0,52.0,-4.0,0
11.0,-250.0,-70.0,-10.0,51.0,-6.0,0
8.0,-246.0,-74.0,-11.0,50.0,-2.0,0
6.0,-249.0,-70.0,-11.0,49.0,-5.0,0
7.0,-248.0,-69.0,-11.0,47.0,-2.0,0
12.0,-250.0,-70.0,-12.0,47.0,-6.0,0
9.0,-251.0,-71.0,-13.0,48.0,-4.0,0
12.0,-249.0,-68.0,-13.0,47.0,-6.0,0
11.0,-249.0,-72.0,-14.0,48.0,-4.0,0
11.0,-248.0,-68.0,-16.0,48.0,-6.0,0
11.0,-249.0,-66.0,-17.0,50.0,-4.0,0
10.0,-248.0,-70.0,-17.0,50.0,-7.0,0
10.0,-248.0,-69.0,-17.0,50.0,-2.0,0
8.0,-251.0,-68.0,-16.0,50.0,-4.0,0
9.0,-248.0,-70.0,-14.0,51.0,-2.0,0
6.0,-252.0,-67.0,-12.0,49.0,-4.0,0
9.0,-251.0,-66.0,-11.0,49.0,-3.0,0
11.0,-249.0,-70.0,-9.0,51.0,-5.0,0
11.0,-249.0,-68.0,-7.0,52.0,-2.0,0
10.0,-249.0,-70.0,-7.0,52.0,-6.0,0
9.0,-251.0,-69.0,-8.0,50.0,-3.0,0
8.0,-249.0,-69.0,-11.0,50.0,-7.0,0
10.0,-247.0,-70.0,-13.0,51.0,-7.0,0
8.0,-247.0,-72.0,-17.0,53.0,-10.0,0
11.0,-247.0,-70.0,-21.0,54.0,-8.0,0
8.0,-247.0,-71.0,-23.0,58.0,-10.0,0
9.0,-248.0,-72.0,-24.0,61.0,-10.0,0
10.0,-246.0,-72.0,-25.0,63.0,-10.0,0
11.0,-243.0,-71.0,-25.0,67.0,-9.0,0
13.0,-245.0,-69.0,-27.0,69.0,-10.0,0
12.0,-245.0,-67.0,-29.0,70.0,-9.0,0
8.0,-245.0,-68.0,-32.0,67.0,-9.0,0
9.0,-246.0,-68.0,-39.0,67.0,-8.0,0
10.0,-245.0,-69.0,-44.0,63.0,-10.0,0
9.0,-243.0,-74.0,-48.0,60.0,-8.0,0
11.0,-246.0,-71.0,-52.0,59.0,-9.0,0
8.0,-248.0,-72.0,-56.0,57.0,-9.0,0
11.0,-250.0,-73.0,-57.0,57.0,-10.0,0
8.0,-249.0,-74.0,-57.0,57.0,-9.0,0
11.0,-250.0,-73.0,-55.0,57.0,-9.0,0
7.0,-250.0,-72.0,-52.0,60.0,-8.0,0
10.0,-251.0,-74.0,-49.0,60.0,-8.0,0
9.0,-249.0,-76.0,-46.0,60.0,-5.0,0
12.0,-250.0,-73.0,-43.0,59.0,-6.0,0
11.0,-251.0,-71.0,-37.0,57.0,-5.0,0
5.0,-250.0,-71.0,-31.0,55.0,-4.0,0
9.0,-250.0,-72.0,-26.0,52.0,-2.0,0
9.0,-248.0,-71.0,-21.0,49.0,-2.0,0
11.0,-249.0,-68.0,-14.0,49.0,-4.0,0
11.0,-245.0,-73.0,-10.0,48.0,-5.0,0
7.0,-246.0,-73.0,-11.0,49.0,-6.0,0
7.0,-244.0,-70.0,-11.0,49.0,-5.0,0
10.0,-243.0,-68.0,-13.0,50.0,-6.0,0
7.0,-243.0,-70.0,-19.0,52.0,-7.0,0
10.0,-245.0,-68.0,-24.0,53.0,-8.0,0
8.0,-246.0,-69.0,-28.0,54.0,-8.0,0
11.0,-252.0,-69.0,-31.0,54.0,-10.0,0
9.0,-245.0,-71.0,-34.0,53.0,-10.0,0
9.0,-245.0,-69.0,-36.0,52.0,-11.0,0
7.0,-245.0,-68.0,-38.0,50.0,-9.0,0
7.0,-247.0,-71.0,-40.0,49.0,-12.0,0
13.0,-249.0,-73.0,-45.0,46.0,-8.0,0
10.0,-246.0,-71.0,-48.0,44.0,-10.0,0
10.0,-246.0,-77.0,-52.0,41.0,-8.0,0
8.0,-247.0,-73.0,-56.0,39.0,-9.0,0
11.0,-246.0,-77.0,-59.0,38.0,-6.0,0
7.0,-248.0,-73.0,-60.0,38.0,-8.0,0
9.0,-249.0,-71.0,-61.0,36.0,-5.0,0
8.0,-251.0,-74.0,-60.0,35.0,-7.0,0
9.0,-251.0,-74.0,-56.0,38.0,-4.0,0
8.0,-252.0,-73.0,-55.0,40.0,-6.0,0
8.0,-251.0,-78.0,-52.0,42.0,-2.0,0
9.0,-250.0,-79.0,-50.0,41.0,-2.0,0
10.0,-252.0,-79.0,-49.0,42.0,0.0,0
8.0,-251.0,-77.0,-48.0,44.0,0.0,0
9.0,-251.0,-78.0,-44.0,41.0,2.0,0
7.0,-247.0,-78.0,-40.0,40.0,2.0,0
8.0,-252.0,-78.0,-35.0,37.0,4.0,0
9.0,-251.0,-78.0,-31.0,38.0,1.0,0
11.0,-247.0,-76.0,-25.0,36.0,3.0,0
7.0,-249.0,-79.0,-22.0,33.0,1.0,0
8.0,-247.0,-76.0,-20.0,34.0,4.0,0
9.0,-246.0,-77.0,-17.0,31.0,0.0,0
8.0,-250.0,-78.0,-15.0,30.0,2.0,0
8.0,-247.0,-76.0,-14.0,28.0,-1.0,0
9.0,-250.0,-79.0,-13.0,25.0,1.0,0
10.0,-249.0,-79.0,-11.0,24.0,-2.0,0
9.0,-246.0,-76.0,-9.0,21.0,-1.0,0
10.0,-247.0,-76.0,-6.0,18.0,-5.0,0
8.0,-248.0,-76.0,-5.0,17.0,-4.0,0
9.0,-247.0,-78.0,-5.0,14.0,-7.0,0
8.0,-248.0,-71.0,-2.0,12.0,-6.0,0
17.0,-251.0,-86.0,2.0,9.0,-9.0,0
11.0,-227.0,-81.0,7.0,8.0,-9.0,0
-3.0,-244.0,-59.0,11.0,6.0,-14.0,0
8.0,-240.0,-69.0,16.0,5.0,-15.0,0
10.0,-240.0,-63.0,17.0,4.0,-19.0,0
9.0,-237.0,-89.0,18.0,3.0,-20.0,0
11.0,-247.0,-68.0,18.0,1.0,-27.0,0
9.0,-237.0,-72.0,14.0,-2.0,-27.0,0
10.0,-242.0,-72.0,10.0,-7.0,-33.0,0
7.0,-240.0,-71.0,7.0,-12.0,-34.0,0
10.0,-244.0,-75.0,3.0,-17.0,-39.0,0
8.0,-242.0,-76.0,-1.0,-20.0,-38.0,0
7.0,-242.0,-73.0,-8.0,-22.0,-43.0,0
8.0,-241.0,-76.0,-13.0,-27.0,-43.0,0
6.0,-240.0,-74.0,-19.0,-33.0,-46.0,0
7.0,-241.0,-78.0,-26.0,-38.0,-48.0,0
7.0,-241.0,-79.0,-32.0,-42.0,-52.0,0
4.0,-241.0,-76.0,-36.0,-49.0,-52.0,0
8.0,-240.0,-77.0,-38.0,-54.0,-56.0,0
7.0,-244.0,-76.0,-40.0,-60.0,-56.0,0
5.0,-241.0,-77.0,-40.0,-65.0,-60.0,0
9.0,-241.0,-74.0,-43.0,-66.0,-61.0,0
9.0,-243.0,-77.0,-44.0,-69.0,-64.0,0
7.0,-240.0,-81.0,-45.0,-71.0,-65.0,0
11.0,-241.0,-76.0,-48.0,-73.0,-68.0,0
8.0,-240.0,-80.0,-50.0,-74.0,-69.0,0
7.0,-240.0,-77.0,-54.0,-75.0,-69.0,0
9.0,-243.0,-76.0,-60.0,-78.0,-66.0,0
9.0,-241.0,-77.0,-66.0,-78.0,-68.0,0
13.0,-243.0,-77.0,-68.0,-83.0,-65.0,0
9.0,-242.0,-77.0,-74.0,-88.0,-68.0,0
13.0,-240.0,-76.0,-77.0,-90.0,-67.0,0
12.0,-242.0,-82.0,-82.0,-91.0,-68.0,0
13.0,-243.0,-77.0,-88.0,-91.0,-68.0,0
11.0,-241.0,-78.0,-94.0,-89.0,-69.0,0
13.0,-243.0,-77.0,-98.0,-85.0,-70.0,0
15.0,-242.0,-80.0,-100.0,-81.0,-72.0,0
15.0,-241.0,-79.0,-101.0,-76.0,-72.0,0
17.0,-241.0,-79.0,-103.0,-70.0,-74.0,0
16.0,-245.0,-77.0,-105.0,-63.0,-75.0,0
17.0,-242.0,-79.0,-111.0,-57.0,-77.0,0
19.0,-241.0,-78.0,-116.0,-51.0,-76.0,0
20.0,-243.0,-78.0,-123.0,-47.0,-75.0,0
16.0,-241.0,-78.0,-131.0,-43.0,-74.0,0
18.0,-239.0,-82.0,-139.0,-41.0,-72.0,0
19.0,-238.0,-83.0,-145.0,-39.0,-71.0,0
14.0,-234.0,-77.0,-153.0,-40.0,-68.0,0
15.0,-235.0,-83.0,-160.0,-41.0,-67.0,0
16.0,-236.0,-83.0,-172.0,-37.0,-66.0,0
16.0,-232.0,-80.0,-182.0,-35.0,-65.0,0
14.0,-231.0,-84.0,-195.0,-32.0,-64.0,0
15.0,-235.0,-81.0,-208.0,-27.0,-63.0,0
13.0,-231.0,-81.0,-219.0,-20.0,-62.0,0
13.0,-230.0,-82.0,-226.0,-14.0,-61.0,0
13.0,-231.0,-79.0,-233.0,-10.0,-60.0,0
12.0,-232.0,-81.0,-241.0,-7.0,-59.0,0
14.0,-229.0,-82.0,-248.0,-6.0,-58.0,0
11.0,-224.0,-83.0,-260.0,-8.0,-60.0,0
11.0,-225.0,-87.0,-274.0,-11.0,-57.0,0
12.0,-224.0,-86.0,-295.0,-14.0,-55.0,0
9.0,-224.0,-88.0,-313.0,-15.0,-53.0,0
10.0,-225.0,-86.0,-331.0,-18.0,-53.0,0
9.0,-222.0,-82.0,-348.0,-21.0,-51.0,0
10.0,-223.0,-81.0,-363.0,-25.0,-52.0,0
10.0,-222.0,-84.0,-378.0,-32.0,-50.0,0
9.0,-223.0,-87.0,-396.0,-40.0,-51.0,0
6.0,-224.0,-88.0,-415.0,-54.0,-48.0,0
6.0,-225.0,-85.0,-437.0,-68.0,-52.0,0
6.0,-226.0,-91.0,-458.0,-85.0,-52.0,0
8.0,-230.0,-90.0,-477.0,-102.0,-56.0,0
6.0,-232.0,-91.0,-499.0,-116.0,-57.0,0
9.0,-231.0,-93.0,-513.0,-123.0,-61.0,0
10.0,-232.0,-97.0,-528.0,-130.0,-63.0,0
8.0,-232.0,-90.0,-543.0,-134.0,-69.0,0
4.0,-234.0,-96.0,-554.0,-136.0,-72.0,0
5.0,-236.0,-97.0,-560.0,-136.0,-77.0,0
8.0,-235.0,-95.0,-563.0,-134.0,-78.0,0
7.0,-234.0,-97.0,-562.0,-132.0,-83.0,0
6.0,-235.0,-97.0,-559.0,-128.0,-85.0,0
7.0,-233.0,-95.0,-553.0,-124.0,-87.0,0
9.0,-233.0,-102.0,-550.0,-119.0,-88.0,0
10.0,-234.0,-98.0,-543.0,-114.0,-91.0,0
6.0,-235.0,-98.0,-539.0,-109.0,-88.0,0
11.0,-234.0,-98.0,-537.0,-104.0,-89.0,0
9.0,-237.0,-101.0,-535.0,-99.0,-85.0,0
14.0,-232.0,-100.0,-531.0,-93.0,-87.0,0
16.0,-236.0,-104.0,-530.0,-85.0,-82.0,0
16.0,-230.0,-103.0,-528.0,-74.0,-83.0,0
15.0,-231.0,-102.0,-527.0,-65.0,-80.0,0
18.0,-232.0,-105.0,-527.0,-56.0,-81.0,0
19.0,-232.0,-103.0,-528.0,-47.0,-78.0,0
17.0,-231.0,-104.0,-529.0,-38.0,-80.0,0
23.0,-235.0,-106.0,-532.0,-33.0,-78.0,0
21.0,-232.0,-108.0,-536.0,-30.0,-82.0,0
21.0,-236.0,-106.0,-541.0,-30.0,-81.0,0
19.0,-236.0,-107.0,-544.0,-33.0,-85.0,0
18.0,-236.0,-102.0,-546.0,-36.0,-83.0,0
17.0,-234.0,-108.0,-546.0,-38.0,-87.0,0
19.0,-237.0,-110.0,-548.0,-40.0,-87.0,0
20.0,-237.0,-106.0,-552.0,-43.0,-91.0,0
16.0,-241.0,-112.0,-551.0,-49.0,-91.0,0
12.0,-240.0,-109.0,-546.0,-59.0,-96.0,0
13.0,-241.0,-109.0,-543.0,-70.0,-95.0,0
9.0,-236.0,-110.0,-541.0,-81.0,-99.0,0
9.0,-238.0,-111.0,-536.0,-93.0,-95.0,0
11.0,-238.0,-113.0,-535.0,-102.0,-96.0,0
7.0,-233.0,-119.0,-533.0,-107.0,-94.0,0
10.0,-235.0,-115.0,-532.0,-106.0,-93.0,0
7.0,-229.0,-117.0,-534.0,-102.0,-87.0,0
9.0,-226.0,-118.0,-533.0,-102.0,-86.0,0
6.0,-222.0,-120.0,-534.0,-103.0,-80.0,0
7.0,-221.0,-118.0,-532.0,-105.0,-78.0,0
4.0,-216.0,-119.0,-528.0,-111.0,-70.0,0
6.0,-213.0,-118.0,-527.0,-121.0,-66.0,0
4.0,-209.0,-122.0,-529.0,-130.0,-58.0,0
7.0,-210.0,-121.0,-533.0,-142.0,-55.0,0
7.0,-209.0,-121.0,-540.0,-153.0,-48.0,0
5.0,-205.0,-119.0,-545.0,-164.0,-45.0,0
8.0,-207.0,-127.0,-548.0,-177.0,-39.0,0
8.0,-202.0,-122.0,-550.0,-189.0,-37.0,0
11.0,-202.0,-125.0,-559.0,-199.0,-33.0,0
9.0,-199.0,-128.0,-572.0,-209.0,-33.0,0
6.0,-197.0,-124.0,-586.0,-218.0,-31.0,0
11.0,-197.0,-125.0,-599.0,-226.0,-32.0,0
7.0,-194.0,-129.0,-609.0,-239.0,-30.0,0
7.0,-196.0,-128.0,-619.0,-253.0,-31.0,0
5.0,-197.0,-130.0,-634.0,-267.0,-36.0,0
-1.0,-195.0,-129.0,-652.0,-278.0,-40.0,0
1.0,-198.0,-131.0,-668.0,-287.0,-39.0,0
-1.0,-198.0,-135.0,-684.0,-296.0,-41.0,0
-2.0,-199.0,-134.0,-696.0,-302.0,-40.0,0
0.0,-198.0,-133.0,-703.0,-306.0,-37.0,0
-2.0,-197.0,-135.0,-709.0,-308.0,-34.0,0
-3.0,-198.0,-133.0,-713.0,-313.0,-31.0,0
-2.0,-200.0,-130.0,-718.0,-321.0,-27.0,0
-3.0,-201.0,-133.0,-728.0,-330.0,-25.0,0
-2.0,-201.0,-134.0,-731.0,-338.0,-26.0,0
-6.0,-199.0,-137.0,-732.0,-342.0,-26.0,0
-3.0,-196.0,-141.0,-740.0,-346.0,-25.0,0
0.0,-195.0,-143.0,-750.0,-342.0,-22.0,0
-3.0,-192.0,-144.0,-763.0,-334.0,-19.0,0
-3.0,-195.0,-144.0,-779.0,-325.0,-17.0,0
-2.0,-192.0,-138.0,-794.0,-322.0,-18.0,0
-3.0,-190.0,-134.0,-802.0,-323.0,-18.0,0
-1.0,-196.0,-131.0,-802.0,-337.0,-22.0,0
0.0,-193.0,-128.0,-797.0,-360.0,-30.0,0
-3.0,-194.0,-134.0,-788.0,-388.0,-40.0,0
-3.0,-196.0,-137.0,-782.0,-412.0,-49.0,0
-3.0,-198.0,-137.0,-771.0,-432.0,-56.0,0
-5.0,-197.0,-140.0,-760.0,-445.0,-62.0,0
-6.0,-197.0,-145.0,-748.0,-452.0,-70.0,0
-10.0,-196.0,-146.0,-737.0,-452.0,-72.0,0
-8.0,-196.0,-149.0,-730.0,-442.0,-77.0,0
-5.0,-197.0,-155.0,-724.0,-429.0,-78.0,0
-4.0,-197.0,-158.0,-721.0,-407.0,-79.0,0
-6.0,-197.0,-158.0,-724.0,-380.0,-74.0,0
-2.0,-199.0,-157.0,-734.0,-346.0,-70.0,0
-3.0,-201.0,-161.0,-751.0,-321.0,-63.0,0
0.0,-206.0,-163.0,-764.0,-299.0,-57.0,0
4.0,-206.0,-163.0,-773.0,-284.0,-52.0,0
1.0,-209.0,-161.0,-778.0,-269.0,-49.0,0
3.0,-211.0,-162.0,-775.0,-256.0,-42.0,0
2.0,-216.0,-161.0,-766.0,-241.0,-40.0,0
4.0,-217.0,-166.0,-752.0,-227.0,-35.0,0
0.0,-218.0,-163.0,-732.0,-216.0,-36.0,0
-2.0,-215.0,-164.0,-712.0,-207.0,-31.0,0
-1.0,-219.0,-163.0,-693.0,-199.0,-27.0,0
-3.0,-221.0,-165.0,-674.0,-191.0,-18.0,0
-6.0,-224.0,-165.0,-648.0,-185.0,-11.0,0
-7.0,-224.0,-163.0,-621.0,-180.0,3.0,0
-12.0,-220.0,-165.0,-593.0,-173.0,12.0,0
-12.0,-222.0,-164.0,-565.0,-165.0,27.0,0
-12.0,-225.0,-165.0,-540.0,-155.0,39.0,0
-15.0,-222.0,-159.0,-515.0,-143.0,57.0,0
-12.0,-221.0,-155.0,-489.0,-129.0,68.0,0
-14.0,-225.0,-148.0,-459.0,-120.0,82.0,0
-15.0,-223.0,-151.0,-422.0,-115.0,89.0,0
-11.0,-225.0,-142.0,-377.0,-109.0,99.0,0
-12.0,-223.0,-142.0,-330.0,-105.0,105.0,0
-10.0,-223.0,-143.0,-273.0,-98.0,112.0,0
-12.0,-219.0,-148.0,-230.0,-92.0,113.0,0
-11.0,-216.0,-149.0,-197.0,-88.0,118.0,0
-11.0,-214.0,-154.0,-176.0,-87.0,118.0,0
-10.0,-209.0,-160.0,-162.0,-85.0,118.0,0
-11.0,-208.0,-165.0,-157.0,-79.0,115.0,0
-10.0,-206.0,-169.0,-164.0,-65.0,116.0,0
-11.0,-200.0,-166.0,-177.0,-47.0,112.0,0
-11.0,-200.0,-173.0,-195.0,-28.0,112.0,0
-11.0,-197.0,-170.0,-211.0,-14.0,109.0,0
-12.0,-196.0,-168.0,-225.0,0.0,111.0,0
-12.0,-195.0,-165.0,-240.0,4.0,109.0,0
-12.0,-195.0,-161.0,-248.0,8.0,111.0,0
-14.0,-194.0,-159.0,-248.0,12.0,107.0,0
-12.0,-195.0,-157.0,-239.0,18.0,108.0,0
-12.0,-194.0,-155.0,-228.0,28.0,106.0,0
-13.0,-192.0,-158.0,-215.0,39.0,109.0,0
-14.0,-192.0,-157.0,-199.0,47.0,111.0,0
-11.0,-194.0,-158.0,-181.0,52.0,119.0,0
-9.0,-191.0,-166.0,-167.0,56.0,121.0,0
-11.0,-189.0,-166.0,-161.0,62.0,126.0,0
-6.0,-187.0,-172.0,-159.0,73.0,129.0,0
-8.0,-188.0,-170.0,-164.0,86.0,133.0,0
-7.0,-184.0,-169.0,-169.0,96.0,131.0,0
-4.0,-184.0,-171.0,-168.0,103.0,130.0,0
-3.0,-188.0,-169.0,-165.0,111.0,123.0,0
0.0,-188.0,-169.0,-161.0,118.0,117.0,0
-1.0,-184.0,-170.0,-158.0,121.0,107.0,0
-1.0,-184.0,-170.0,-155.0,125.0,99.0,0
-1.0,-184.0,-172.0,-160.0,128.0,89.0,0
-3.0,-185.0,-168.0,-163.0,129.0,83.0,0
-1.0,-187.0,-175.0,-166.0,129.0,75.0,0
-9.0,-182.0,-171.0,-171.0,133.0,76.0,0
-11.0,-189.0,-175.0,-174.0,137.0,77.0,0
-11.0,-182.0,-172.0,-174.0,145.0,81.0,0
-12.0,-185.0,-171.0,-171.0,150.0,82.0,0
-12.0,-188.0,-170.0,-164.0,153.0,87.0,0
-16.0,-187.0,-170.0,-150.0,153.0,91.0,0
-20.0,-184.0,-173.0,-134.0,148.0,98.0,0
-20.0,-184.0,-172.0,-121.0,144.0,106.0,0
-20.0,-187.0,-175.0,-111.0,138.0,114.0,0
-18.0,-181.0,-179.0,-106.0,136.0,123.0,0
-18.0,-184.0,-177.0,-106.0,135.0,130.0,0
-19.0,-183.0,-178.0,-113.0,136.0,131.0,0
-19.0,-185.0,-178.0,-122.0,134.0,133.0,0
-15.0,-181.0,-180.0,-132.0,132.0,128.0,0
-20.0,-182.0,-175.0,-141.0,130.0,125.0,0
-18.0,-178.0,-173.0,-149.0,125.0,120.0,0
-17.0,-176.0,-172.0,-156.0,114.0,115.0,0
-14.0,-177.0,-168.0,-158.0,101.0,112.0,0
-15.0,-177.0,-169.0,-153.0,87.0,110.0,0
-12.0,-175.0,-172.0,-145.0,73.0,110.0,0
-13.0,-178.0,-170.0,-139.0,56.0,109.0,0
-11.0,-179.0,-174.0,-132.0,42.0,108.0,0
-12.0,-179.0,-176.0,-123.0,26.0,109.0,0
-12.0,-178.0,-174.0,-114.0,18.0,108.0,0
-12.0,-181.0,-178.0,-109.0,15.0,111.0,0
-12.0,-179.0,-183.0,-101.0,18.0,118.0,0
-14.0,-185.0,-184.0,-94.0,22.0,121.0,0
-10.0,-183.0,-183.0,-97.0,26.0,125.0,0
-11.0,-181.0,-186.0,-97.0,29.0,124.0,0
-11.0,-180.0,-185.0,-98.0,33.0,127.0,0
-9.0,-185.0,-186.0,-97.0,41.0,124.0,0
-6.0,-186.0,-188.0,-95.0,50.0,123.0,0
-3.0,-188.0,-185.0,-95.0,59.0,117.0,0
-4.0,-186.0,-189.0,-90.0,67.0,109.0,0
0.0,-189.0,-184.0,-87.0,66.0,101.0,0
-5.0,-188.0,-186.0,-79.0,63.0,93.0,0
0.0,-190.0,-186.0,-74.0,57.0,83.0,0
-2.0,-195.0,-189.0,-70.0,53.0,76.0,0
-1.0,-198.0,-188.0,-71.0,48.0,64.0,0
-4.0,-199.0,-184.0,-71.0,45.0,57.0,0
-3.0,-198.0,-185.0,-71.0,41.0,50.0,0
-5.0,-200.0,-186.0,-57.0,38.0,45.0,0
-6.0,-201.0,-186.0,-42.0,34.0,36.0,0
-6.0,-199.0,-186.0,-20.0,27.0,31.0,0
-10.0,-200.0,-183.0,13.0,23.0,24.0,0
-8.0,-202.0,-185.0,41.0,19.0,22.0,0
-7.0,-200.0,-184.0,71.0,15.0,20.0,0
-10.0,-198.0,-184.0,100.0,12.0,20.0,0
-10.0,-200.0,-185.0,124.0,9.0,17.0,0
-12.0,-195.0,-187.0,147.0,6.0,22.0,0
-10.0,-197.0,-190.0,170.0,1.0,19.0,0
-12.0,-195.0,-191.0,188.0,-4.0,21.0,0
-9.0,-196.0,-191.0,203.0,-6.0,22.0,0
-12.0,-195.0,-193.0,215.0,-7.0,31.0,0
-12.0,-195.0,-187.0,223.0,-8.0,33.0,0
-12.0,-191.0,-193.0,229.0,-7.0,39.0,0
-10.0,-189.0,-193.0,232.0,-8.0,45.0,0
-11.0,-192.0,-190.0,232.0,-10.0,52.0,0
-11.0,-190.0,-191.0,235.0,-14.0,58.0,0
-11.0,-188.0,-193.0,236.0,-20.0,66.0,0
-9.0,-191.0,-192.0,239.0,-25.0,67.0,0
-7.0,-194.0,-195.0,239.0,-31.0,73.0,0
-5.0,-193.0,-190.0,241.0,-34.0,69.0,0
-3.0,-194.0,-192.0,239.0,-34.0,75.0,0
-4.0,-199.0,-191.0,240.0,-32.0,76.0,0
0.0,-199.0,-192.0,249.0,-26.0,78.0,0
-4.0,-199.0,-190.0,260.0,-20.0,76.0,0
-4.0,-201.0,-190.0,272.0,-17.0,79.0,0
-5.0,-204.0,-197.0,288.0,-21.0,75.0,0
-5.0,-205.0,-193.0,308.0,-25.0,77.0,0
-4.0,-212.0,-197.0,327.0,-32.0,72.0,0
-6.0,-210.0,-203.0,346.0,-38.0,69.0,0
-5.0,-215.0,-201.0,363.0,-41.0,59.0,0
3.0,-223.0,-207.0,376.0,-38.0,51.0,0
-6.0,-213.0,-202.0,389.0,-30.0,40.0,0
-8.0,-214.0,-201.0,400.0,-15.0,32.0,0
-8.0,-221.0,-200.0,409.0,6.0,19.0,0
-7.0,-220.0,-199.0,420.0,21.0,10.0,0
-8.0,-219.0,-197.0,428.0,34.0,-4.0,0
-10.0,-216.0,-193.0,432.0,48.0,-10.0,0
-9.0,-220.0,-194.0,435.0,58.0,-19.0,0
-11.0,-218.0,-195.0,437.0,65.0,-25.0,0
-11.0,-216.0,-188.0,434.0,69.0,-34.0,0
-13.0,-218.0,-189.0,429.0,67.0,-39.0,0
-13.0,-221.0,-188.0,426.0,61.0,-48.0,0
-13.0,-219.0,-187.0,421.0,51.0,-54.0,0
-14.0,-217.0,-189.0,419.0,39.0,-66.0,0
-13.0,-218.0,-188.0,417.0,25.0,-73.0,0
-12.0,-221.0,-192.0,413.0,17.0,-83.0,0
-13.0,-219.0,-191.0,415.0,10.0,-90.0,0
-12.0,-218.0,-192.0,419.0,10.0,-100.0,0
-12.0,-217.0,-194.0,423.0,15.0,-107.0,0
-14.0,-214.0,-188.0,430.0,20.0,-115.0,0
-13.0,-215.0,-190.0,435.0,23.0,-118.0,0
-12.0,-212.0,-187.0,443.0,26.0,-124.0,0
-12.0,-215.0,-189.0,451.0,27.0,-126.0,0
-9.0,-214.0,-185.0,457.0,28.0,-129.0,0
-11.0,-210.0,-186.0,462.0,30.0,-128.0,0
-10.0,-212.0,-184.0,467.0,33.0,-132.0,0
-11.0,-209.0,-182.0,472.0,38.0,-132.0,0
-11.0,-213.0,-180.0,477.0,41.0,-136.0,0
-10.0,-212.0,-178.0,480.0,45.0,-138.0,0
-11.0,-209.0,-175.0,486.0,49.0,-142.0,0
-9.0,-210.0,-176.0,492.0,54.0,-145.0,0
-10.0,-207.0,-172.0,498.0,59.0,-147.0,0
-10.0,-207.0,-169.0,502.0,63.0,-147.0,0
-12.0,-209.0,-171.0,507.0,66.0,-149.0,0
-10.0,-207.0,-168.0,512.0,67.0,-151.0,0
-12.0,-209.0,-168.0,514.0,68.0,-155.0,0
-11.0,-209.0,-168.0,515.0,72.0,-158.0,0
-13.0,-204.0,-165.0,517.0,75.0,-161.0,0
-13.0,-206.0,-161.0,519.0,79.0,-165.0,0
-12.0,-205.0,-159.0,523.0,80.0,-169.0,0
-13.0,-206.0,-159.0,528.0,82.0,-173.0,0
-14.0,-202.0,-158.0,536.0,84.0,-175.0,0
-15.0,-202.0,-151.0,549.0,88.0,-176.0,0
-12.0,-203.0,-151.0,565.0,91.0,-175.0,0
-13.0,-204.0,-149.0,584.0,95.0,-173.0,0
-13.0,-203.0,-144.0,606.0,98.0,-168.0,0
-15.0,-207.0,-150.0,632.0,105.0,-163.0,0
-13.0,-207.0,-145.0,654.0,110.0,-156.0,0
-12.0,-206.0,-143.0,675.0,116.0,-151.0,0
-12.0,-204.0,-139.0,696.0,120.0,-146.0,0
-12.0,-211.0,-141.0,714.0,121.0,-143.0,0
-12.0,-210.0,-138.0,731.0,118.0,-142.0,0
-12.0,-212.0,-138.0,748.0,114.0,-145.0,0
-11.0,-212.0,-137.0,763.0,110.0,-146.0,0
-11.0,-218.0,-140.0,777.0,105.0,-151.0,0
-11.0,-218.0,-135.0,793.0,100.0,-151.0,0
-12.0,-222.0,-138.0,813.0,99.0,-153.0,0
-10.0,-228.0,-135.0,838.0,97.0,-152.0,0
-11.0,-228.0,-132.0,859.0,95.0,-152.0,0
-10.0,-231.0,-130.0,880.0,97.0,-149.0,0
-11.0,-238.0,-133.0,901.0,100.0,-146.0,0
-10.0,-240.0,-132.0,925.0,102.0,-141.0,0
-11.0,-245.0,-134.0,954.0,110.0,-138.0,0
-10.0,-251.0,-133.0,984.0,118.0,-132.0,0
-9.0,-253.0,-132.0,1017.0,124.0,-132.0,0
-8.0,-258.0,-132.0,1056.0,132.0,-128.0,0
-10.0,-263.0,-133.0,1100.0,137.0,-127.0,0
-9.0,-264.0,-133.0,1142.0,141.0,-124.0,0
-10.0,-268.0,-129.0,1196.0,141.0,-125.0,0
-9.0,-275.0,-129.0,1240.0,137.0,-124.0,0
-10.0,-282.0,-129.0,1286.0,129.0,-126.0,0
-8.0,-289.0,-129.0,1330.0,116.0,-126.0,0
-10.0,-295.0,-132.0,1374.0,99.0,-130.0,0
-9.0,-295.0,-133.0,1415.0,81.0,-134.0,0
-12.0,-292.0,-141.0,1447.0,66.0,-142.0,0
-10.0,-290.0,-147.0,1470.0,59.0,-146.0,0
-11.0,-288.0,-145.0,1478.0,59.0,-156.0,0
-12.0,-285.0,-146.0,1474.0,67.0,-167.0,0
-12.0,-281.0,-139.0,1455.0,87.0,-177.0,0
-11.0,-280.0,-136.0,1425.0,108.0,-181.0,0
-10.0,-274.0,-129.0,1387.0,126.0,-183.0,0
-8.0,-265.0,-121.0,1340.0,144.0,-171.0,0
-8.0,-262.0,-117.0,1277.0,158.0,-157.0,0
-7.0,-260.0,-111.0,1202.0,169.0,-140.0,0
-9.0,-263.0,-101.0,1128.0,173.0,-131.0,0
-6.0,-264.0,-88.0,1063.0,172.0,-120.0,0
-4.0,-267.0,-85.0,1004.0,172.0,-113.0,0
-2.0,-269.0,-79.0,966.0,175.0,-103.0,0
-2.0,-266.0,-72.0,945.0,179.0,-96.0,0
1.0,-261.0,-68.0,942.0,182.0,-90.0,0
4.0,-258.0,-63.0,948.0,180.0,-86.0,0
6.0,-250.0,-65.0,957.0,177.0,-83.0,0
9.0,-247.0,-61.0,961.0,176.0,-82.0,0
9.0,-237.0,-59.0,954.0,178.0,-80.0,0
9.0,-234.0,-61.0,940.0,184.0,-86.0,0
13.0,-232.0,-58.0,912.0,194.0,-88.0,0
10.0,-227.0,-59.0,880.0,207.0,-97.0,0
15.0,-226.0,-54.0,848.0,220.0,-100.0,0
17.0,-224.0,-51.0,816.0,233.0,-105.0,0
14.0,-224.0,-45.0,789.0,248.0,-108.0,0
15.0,-223.0,-41.0,761.0,255.0,-115.0,0
16.0,-227.0,-41.0,741.0,254.0,-113.0,0
16.0,-226.0,-42.0,719.0,253.0,-117.0,0
15.0,-230.0,-39.0,701.0,250.0,-115.0,0
16.0,-231.0,-34.0,686.0,246.0,-118.0,0
13.0,-232.0,-38.0,678.0,240.0,-120.0,0
12.0,-238.0,-33.0,674.0,234.0,-127.0,0
12.0,-245.0,-38.0,670.0,230.0,-129.0,0
10.0,-248.0,-36.0,669.0,227.0,-133.0,0
11.0,-252.0,-37.0,672.0,225.0,-134.0,0
10.0,-254.0,-44.0,675.0,227.0,-137.0,0
13.0,-256.0,-41.0,682.0,231.0,-134.0,0
11.0,-259.0,-47.0,687.0,235.0,-136.0,0
12.0,-258.0,-49.0,692.0,237.0,-134.0,0
14.0,-260.0,-48.0,701.0,236.0,-137.0,0
18.0,-262.0,-49.0,707.0,235.0,-137.0,0
18.0,-261.0,-47.0,710.0,234.0,-139.0,0
19.0,-265.0,-50.0,712.0,235.0,-144.0,0
13.0,-264.0,-45.0,710.0,233.0,-152.0,0
16.0,-263.0,-39.0,712.0,230.0,-157.0,0
18.0,-263.0,-39.0,717.0,222.0,-166.0,0
15.0,-261.0,-38.0,724.0,209.0,-174.0,0
15.0,-260.0,-37.0,732.0,193.0,-181.0,0
16.0,-260.0,-35.0,738.0,176.0,-182.0,0
17.0,-257.0,-37.0,736.0,159.0,-184.0,0
14.0,-254.0,-39.0,729.0,144.0,-180.0,0
9.0,-249.0,-37.0,712.0,131.0,-172.0,0
7.0,-249.0,-36.0,692.0,119.0,-164.0,0
10.0,-245.0,-35.0,672.0,108.0,-152.0,0
6.0,-244.0,-31.0,652.0,99.0,-141.0,0
8.0,-243.0,-33.0,633.0,92.0,-132.0,0
8.0,-239.0,-27.0,613.0,87.0,-117.0,0
7.0,-238.0,-28.0,587.0,85.0,-107.0,0
6.0,-237.0,-25.0,565.0,86.0,-95.0,0
6.0,-239.0,-24.0,547.0,87.0,-85.0,0
6.0,-239.0,-25.0,531.0,87.0,-75.0,0
6.0,-238.0,-24.0,517.0,87.0,-65.0,0
8.0,-242.0,-23.0,496.0,85.0,-56.0,0
8.0,-240.0,-25.0,473.0,85.0,-48.0,0
8.0,-243.0,-26.0,448.0,85.0,-40.0,0
6.0,-246.0,-22.0,419.0,87.0,-32.0,0
5.0,-244.0,-27.0,392.0,89.0,-26.0,0
3.0,-245.0,-21.0,364.0,88.0,-21.0,0
2.0,-250.0,-20.0,338.0,84.0,-16.0,0
1.0,-251.0,-16.0,322.0,79.0,-14.0,0
3.0,-255.0,-15.0,314.0,72.0,-10.0,0
-1.0,-254.0,-12.0,314.0,68.0,-6.0,0
-1.0,-253.0,-15.0,317.0,64.0,-1.0,0
-2.0,-254.0,-11.0,322.0,62.0,5.0,0
-3.0,-254.0,-10.0,325.0,63.0,12.0,0
-2.0,-256.0,-11.0,326.0,63.0,19.0,0
-4.0,-254.0,-12.0,323.0,64.0,23.0,0
-1.0,-254.0,-12.0,321.0,65.0,29.0,0
-3.0,-254.0,-14.0,317.0,65.0,31.0,0
-1.0,-252.0,-9.0,310.0,68.0,34.0,0
-2.0,-252.0,-9.0,305.0,73.0,33.0,0
0.0,-253.0,-10.0,302.0,79.0,33.0,0
-1.0,-252.0,-10.0,297.0,86.0,31.0,0
2.0,-254.0,-10.0,291.0,92.0,31.0,0
3.0,-252.0,-10.0,284.0,99.0,29.0,0
4.0,-253.0,-7.0,277.0,106.0,28.0,0
4.0,-250.0,-10.0,271.0,111.0,24.0,0
4.0,-251.0,-10.0,268.0,116.0,21.0,0
4.0,-252.0,-5.0,263.0,119.0,16.0,0
4.0,-252.0,-8.0,259.0,120.0,15.0,0
5.0,-251.0,-4.0,254.0,121.0,12.0,0
5.0,-251.0,-8.0,249.0,121.0,11.0,0
8.0,-248.0,-8.0,243.0,121.0,8.0,0
9.0,-249.0,-7.0,235.0,123.0,7.0,0
7.0,-247.0,-11.0,227.0,123.0,3.0,0
12.0,-253.0,-7.0,221.0,126.0,3.0,0
8.0,-253.0,-7.0,217.0,127.0,-1.0,0
9.0,-254.0,-6.0,213.0,127.0,0.0,0
10.0,-256.0,-9.0,209.0,129.0,-4.0,0
8.0,-251.0,-9.0,204.0,133.0,-3.0,0
8.0,-252.0,-9.0,200.0,138.0,-6.0,0
7.0,-251.0,-13.0,194.0,142.0,-4.0,0
6.0,-257.0,-10.0,184.0,143.0,-6.0,0
6.0,-255.0,-10.0,174.0,143.0,-4.0,0
4.0,-253.0,-14.0,165.0,145.0,-7.0,0
7.0,-252.0,-17.0,155.0,144.0,-5.0,0
6.0,-255.0,-13.0,146.0,142.0,-8.0,0
7.0,-256.0,-11.0,142.0,136.0,-9.0,0
3.0,-252.0,-11.0,139.0,134.0,-14.0,0
7.0,-256.0,-6.0,143.0,127.0,-13.0,0
7.0,-254.0,-6.0,147.0,122.0,-15.0,0
8.0,-253.0,-11.0,153.0,117.0,-13.0,0
8.0,-253.0,-8.0,158.0,114.0,-14.0,0
7.0,-251.0,-5.0,164.0,110.0,-10.0,0
8.0,-257.0,-3.0,169.0,106.0,-12.0,0
7.0,-253.0,-6.0,174.0,102.0,-9.0,0
6.0,-249.0,-6.0,172.0,94.0,-10.0,0
7.0,-250.0,-7.0,168.0,87.0,-4.0,0
11.0,-248.0,-4.0,164.0,83.0,-6.0,0
6.0,-250.0,-10.0,157.0,77.0,-2.0,0
9.0,-251.0,-8.0,148.0,75.0,-4.0,0
9.0,-248.0,-9.0,137.0,73.0,2.0,0
9.0,-249.0,-7.0,121.0,72.0,2.0,0
10.0,-251.0,-8.0,108.0,72.0,5.0,0
13.0,-251.0,-9.0,95.0,72.0,1.0,0
10.0,-248.0,-10.0,82.0,74.0,2.0,0
12.0,-251.0,-3.0,72.0,76.0,-2.0,0
12.0,-250.0,-5.0,63.0,78.0,-3.0,0
9.0,-253.0,-5.0,57.0,78.0,-7.0,0
10.0,-253.0,-4.0,55.0,79.0,-8.0,0
14.0,-256.0,-1.0,55.0,80.0,-12.0,0
14.0,-258.0,-3.0,62.0,82.0,-12.0,0
10.0,-254.0,-2.0,71.0,84.0,-15.0,0
9.0,-256.0,2.0,78.0,88.0,-14.0,0
10.0,-258.0,0.0,88.0,90.0,-16.0,0
9.0,-257.0,3.0,96.0,91.0,-13.0,0
13.0,-259.0,3.0,105.0,95.0,-17.0,0
11.0,-259.0,3.0,115.0,98.0,-16.0,0
10.0,-258.0,7.0,126.0,103.0,-17.0,0
8.0,-257.0,1.0,136.0,110.0,-17.0,0
13.0,-258.0,1.0,140.0,118.0,-17.0,0
10.0,-254.0,4.0,141.0,123.0,-16.0,0
10.0,-255.0,4.0,138.0,128.0,-18.0,0
10.0,-254.0,6.0,130.0,132.0,-16.0,0
10.0,-255.0,8.0,124.0,131.0,-19.0,0
10.0,-255.0,6.0,118.0,129.0,-20.0,0
9.0,-250.0,7.0,113.0,128.0,-23.0,0
8.0,-252.0,6.0,106.0,125.0,-23.0,0
10.0,-255.0,7.0,92.0,126.0,-27.0,0
4.0,-249.0,6.0,75.0,124.0,-27.0,0
2.0,-247.0,7.0,59.0,122.0,-29.0,0
6.0,-249.0,5.0,41.0,118.0,-29.0,0
5.0,-246.0,8.0,23.0,114.0,-30.0,0
4.0,-248.0,7.0,9.0,108.0,-30.0,0
4.0,-249.0,7.0,-2.0,106.0,-30.0,0
1.0,-250.0,5.0,-12.0,102.0,-30.0,0
6.0,-249.0,6.0,-20.0,99.0,-31.0,0
4.0,-246.0,8.0,-25.0,97.0,-30.0,0
3.0,-248.0,9.0,-28.0,93.0,-28.0,0
3.0,-250.0,7.0,-31.0,91.0,-28.0,0
5.0,-252.0,4.0,-32.0,89.0,-27.0,0
8.0,-253.0,1.0,-34.0,87.0,-28.0,0
10.0,-251.0,2.0,-36.0,88.0,-27.0,0
6.0,-251.0,2.0,-38.0,90.0,-28.0,0
10.0,-255.0,2.0,-41.0,93.0,-29.0,0
8.0,-253.0,-7.0,-46.0,94.0,-29.0,0
11.0,-258.0,-7.0,-49.0,95.0,-30.0,0
7.0,-247.0,7.0,-53.0,94.0,-31.0,0
5.0,-252.0,6.0,-55.0,95.0,-28.0,0
10.0,-251.0,5.0,-58.0,95.0,-29.0,0
19.0,-253.0,-3.0,-59.0,92.0,-28.0,0
17.0,-257.0,-3.0,-59.0,90.0,-30.0,0
9.0,-253.0,2.0,-57.0,89.0,-26.0,0
12.0,-255.0,1.0,-54.0,85.0,-27.0,0
8.0,-258.0,3.0,-49.0,84.0,-26.0,0
7.0,-260.0,-2.0,-40.0,79.0,-24.0,0
11.0,-257.0,1.0,-32.0,76.0,-23.0,0
13.0,-258.0,4.0,-26.0,75.0,-22.0,0
12.0,-257.0,1.0,-20.0,71.0,-18.0,0
11.0,-255.0,-3.0,-14.0,69.0,-19.0,0
10.0,-256.0,-3.0,-10.0,67.0,-15.0,0
11.0,-259.0,-4.0,-7.0,63.0,-16.0,0
11.0,-256.0,-5.0,-3.0,60.0,-13.0,0
10.0,-256.0,-3.0,0.0,58.0,-15.0,0
13.0,-254.0,-6.0,1.0,56.0,-14.0,0
11.0,-256.0,-3.0,0.0,53.0,-16.0,0
12.0,-256.0,-2.0,-3.0,51.0,-14.0,0
11.0,-257.0,-2.0,-4.0,51.0,-17.0,0
10.0,-257.0,-3.0,-5.0,51.0,-17.0,0
8.0,-253.0,-4.0,-5.0,52.0,-20.0,0
11.0,-252.0,-3.0,-8.0,53.0,-21.0,0
11.0,-255.0,-2.0,-12.0,54.0,-23.0,0
10.0,-255.0,-2.0,-14.0,55.0,-21.0,0
10.0,-253.0,-2.0,-15.0,56.0,-24.0,0
9.0,-252.0,-5.0,-17.0,59.0,-23.0,0
11.0,-255.0,-2.0,-20.0,62.0,-24.0,0
11.0,-254.0,1.0,-26.0,64.0,-21.0,0
11.0,-252.0,0.0,-32.0,64.0,-23.0,0
10.0,-254.0,4.0,-34.0,64.0,-19.0,0
9.0,-254.0,-2.0,-35.0,63.0,-18.0,0
9.0,-257.0,1.0,-36.0,64.0,-14.0,0
12.0,-255.0,-1.0,-34.0,64.0,-15.0,0
11.0,-257.0,3.0,-32.0,64.0,-9.0,0
11.0,-259.0,0.0,-28.0,64.0,-11.0,0
14.0,-255.0,3.0,-22.0,62.0,-7.0,0
12.0,-259.0,0.0,-17.0,59.0,-9.0,0
12.0,-260.0,6.0,-11.0,57.0,-8.0,0
13.0,-257.0,-1.0,-1.0,54.0,-9.0,0
13.0,-259.0,4.0,3.0,52.0,-9.0,0
14.0,-258.0,3.0,6.0,53.0,-12.0,0
10.0,-257.0,1.0,9.0,54.0,-10.0,0
13.0,-255.0,3.0,9.0,56.0,-14.0,0
13.0,-255.0,0.0,8.0,59.0,-11.0,0
13.0,-253.0,8.0,6.0,62.0,-13.0,0
12.0,-255.0,3.0,2.0,67.0,-10.0,0
14.0,-254.0,-4.0,-2.0,71.0,-11.0,0
11.0,-252.0,2.0,-5.0,74.0,-9.0,0
11.0,-252.0,2.0,-9.0,79.0,-11.0,0
12.0,-254.0,1.0,-10.0,82.0,-10.0,0
14.0,-256.0,6.0,-11.0,83.0,-13.0,0
11.0,-255.0,5.0,-11.0,86.0,-12.0,0
14.0,-254.0,5.0,-11.0,87.0,-16.0,0
12.0,-254.0,4.0,-10.0,88.0,-14.0,0
11.0,-252.0,2.0,-9.0,89.0,-17.0,0
10.0,-254.0,5.0,-8.0,87.0,-14.0,0
14.0,-255.0,2.0,-7.0,86.0,-17.0,0
11.0,-253.0,-1.0,-8.0,84.0,-15.0,0
12.0,-256.0,2.0,-12.0,81.0,-18.0,0
11.0,-255.0,1.0,-15.0,77.0,-16.0,0
12.0,-255.0,2.0,-19.0,75.0,-18.0,0
12.0,-255.0,-1.0,-23.0,74.0,-16.0,0
10.0,-254.0,0.0,-28.0,75.0,-18.0,0
11.0,-255.0,1.0,-31.0,73.0,-17.0,0
11.0,-253.0,-1.0,-33.0,74.0,-18.0,0
12.0,-256.0,1.0,-36.0,74.0,-16.0,0
8.0,-254.0,-1.0,-36.0,72.0,-16.0,0
10.0,-253.0,1.0,-38.0,71.0,-14.0,0
10.0,-252.0,-3.0,-39.0,71.0,-16.0,0
12.0,-256.0,-1.0,-41.0,69.0,-13.0,0
11.0,-256.0,2.0,-42.0,67.0,-13.0,0
13.0,-256.0,4.0,-40.0,64.0,-9.0,0
13.0,-255.0,-2.0,-38.0,62.0,-9.0,0
9.0,-255.0,2.0,-33.0,61.0,-7.0,0
12.0,-255.0,0.0,-28.0,61.0,-5.0,0
13.0,-253.0,-1.0,-26.0,61.0,-5.0,0
12.0,-254.0,0.0,-25.0,63.0,-3.0,0
14.0,-254.0,-2.0,-22.0,65.0,-2.0,0
14.0,-257.0,2.0,-22.0,68.0,0.0,0
14.0,-257.0,-7.0,-24.0,71.0,1.0,0
12.0,-256.0,2.0,-25.0,72.0,0.0,0
13.0,-254.0,1.0,-26.0,73.0,0.0,0
13.0,-255.0,-5.0,-29.0,72.0,-1.0,0
12.0,-254.0,-5.0,-32.0,72.0,-2.0,0
12.0,-255.0,-2.0,-36.0,71.0,-2.0,0
12.0,-254.0,-1.0,-40.0,72.0,-4.0,0
12.0,-254.0,2.0,-43.0,71.0,-4.0,0
15.0,-254.0,1.0,-46.0,71.0,-4.0,0
11.0,-253.0,-3.0,-48.0,71.0,-3.0,0
11.0,-253.0,-6.0,-50.0,72.0,-3.0,0
11.0,-256.0,-1.0,-50.0,71.0,-3.0,0
14.0,-255.0,-5.0,-51.0,69.0,-2.0,0
15.0,-258.0,-5.0,-48.0,68.0,-3.0,0
13.0,-254.0,1.0,-46.0,68.0,0.0,0
12.0,-256.0,0.0,-41.0,66.0,1.0,0
10.0,-256.0,-3.0,-38.0,68.0,1.0,0
13.0,-257.0,0.0,-32.0,66.0,2.0,0
12.0,-255.0,-2.0,-29.0,67.0,2.0,0
14.0,-256.0,2.0,-27.0,66.0,4.0,0
12.0,-257.0,0.0,-24.0,64.0,5.0,0
9.0,-254.0,-3.0,-24.0,65.0,6.0,0
10.0,-255.0,-2.0,-24.0,65.0,3.0,0
12.0,-253.0,-1.0,-25.0,66.0,6.0,0
12.0,-253.0,0.0,-25.0,64.0,4.0,0
11.0,-254.0,-2.0,-25.0,66.0,6.0,0
10.0,-255.0,-3.0,-26.0,65.0,4.0,0
13.0,-254.0,-4.0,-28.0,63.0,5.0,0
11.0,-257.0,-1.0,-29.0,64.0,3.0,0
8.0,-254.0,0.0,-31.0,65.0,4.0,0
10.0,-251.0,-1.0,-33.0,64.0,1.0,0
13.0,-258.0,1.0,-33.0,65.0,3.0,0
10.0,-254.0,-3.0,-35.0,65.0,-1.0,0
9.0,-254.0,0.0,-36.0,62.0,0.0,0
9.0,-254.0,-2.0,-37.0,61.0,0.0,0
10.0,-254.0,1.0,-37.0,61.0,0.0,0
10.0,-257.0,2.0,-34.0,62.0,0.0,0
9.0,-255.0,2.0,-34.0,64.0,3.0,0
10.0,-253.0,2.0,-33.0,64.0,2.0,0
10.0,-256.0,-4.0,-32.0,64.0,5.0,0
11.0,-255.0,-3.0,-34.0,66.0,3.0,0
10.0,-254.0,1.0,-35.0,67.0,6.0,0
10.0,-254.0,-3.0,-38.0,67.0,4.0,0
12.0,-254.0,-2.0,-40.0,66.0,6.0,0
11.0,-254.0,-2.0,-41.0,65.0,5.0,0
10.0,-252.0,-1.0,-42.0,63.0,6.0,0
12.0,-258.0,-1.0,-41.0,61.0,4.0,0
9.0,-254.0,0.0,-44.0,59.0,5.0,0
11.0,-258.0,-5.0,-45.0,58.0,2.0,0
9.0,-255.0,2.0,-46.0,57.0,5.0,0
13.0,-255.0,-2.0,-46.0,58.0,2.0,0
12.0,-255.0,-3.0,-46.0,59.0,5.0,0
11.0,-255.0,-4.0,-45.0,58.0,3.0,0
11.0,-255.0,-4.0,-44.0,55.0,4.0,0
10.0,-256.0,-2.0,-44.0,54.0,2.0,0
8.0,-253.0,-2.0,-42.0,54.0,5.0,0
8.0,-252.0,-3.0,-42.0,54.0,1.0,0
13.0,-258.0,-1.0,-39.0,53.0,3.0,0
10.0,-255.0,-2.0,-40.0,53.0,-1.0,0
11.0,-256.0,1.0,-39.0,57.0,2.0,0
9.0,-257.0,-3.0,-37.0,58.0,-1.0,0
12.0,-257.0,-6.0,-37.0,60.0,0.0,0
12.0,-255.0,2.0,-37.0,64.0,-4.0,0
11.0,-256.0,-2.0,-37.0,64.0,0.0,0
7.0,-255.0,-7.0,-37.0,65.0,-2.0,0
10.0,-255.0,-6.0,-36.0,65.0,0.0,0
10.0,-257.0,-2.0,-34.0,66.0,-3.0,0
11.0,-257.0,-5.0,-34.0,67.0,0.0,0
11.0,-253.0,-10.0,-31.0,68.0,-4.0,0
11.0,-254.0,-5.0,-30.0,68.0,0.0,0
13.0,-254.0,-7.0,-32.0,69.0,-5.0,0
9.0,-256.0,-7.0,-32.0,68.0,-1.0,0
13.0,-254.0,-3.0,-35.0,68.0,-4.0,0
10.0,-257.0,-5.0,-38.0,66.0,-2.0,0
11.0,-254.0,-5.0,-41.0,64.0,-3.0,0
11.0,-257.0,-2.0,-42.0,64.0,-1.0,0
13.0,-257.0,-6.0,-40.0,63.0,-1.0,0
12.0,-258.0,-4.0,-35.0,63.0,1.0,0
11.0,-254.0,2.0,-30.0,63.0,-1.0,0
11.0,-257.0,-2.0,-26.0,61.0,2.0,0
10.0,-256.0,-3.0,-21.0,61.0,0.0,0
13.0,-257.0,-1.0,-18.0,60.0,2.0,0
12.0,-257.0,-5.0,-18.0,60.0,0.0,0
12.0,-256.0,-3.0,-18.0,57.0,2.0,0
11.0,-253.0,-3.0,-19.0,58.0,1.0,0
12.0,-253.0,-7.0,-19.0,57.0,1.0,0
12.0,-252.0,-2.0,-19.0,57.0,-1.0,0
10.0,-258.0,-4.0,-22.0,57.0,0.0,0
13.0,-254.0,-3.0,-25.0,57.0,-2.0,0
13.0,-252.0,-4.0,-26.0,59.0,-1.0,0
10.0,-254.0,-5.0,-28.0,61.0,-3.0,0
10.0,-257.0,-2.0,-28.0,62.0,-2.0,0
10.0,-257.0,-1.0,-28.0,63.0,-2.0,0
10.0,-255.0,-2.0,-26.0,65.0,-1.0,0
8.0,-257.0,-5.0,-23.0,64.0,-1.0,0
11.0,-256.0,-2.0,-20.0,65.0,0.0,0
12.0,-257.0,-3.0,-19.0,66.0,-1.0,0
11.0,-253.0,-4.0,-20.0,66.0,-1.0,0
11.0,-256.0,-4.0,-20.0,66.0,-2.0,0
13.0,-257.0,0.0,-21.0,64.0,-1.0,0
12.0,-256.0,-9.0,-22.0,61.0,-1.0,0
11.0,-254.0,-9.0,-24.0,60.0,-2.0,0
10.0,-253.0,-3.0,-25.0,60.0,-1.0,0
11.0,-255.0,-2.0,-25.0,61.0,0.0,0
10.0,-256.0,-2.0,-28.0,61.0,0.0,0
10.0,-257.0,-3.0,-28.0,62.0,0.0,0
9.0,-256.0,-1.0,-28.0,63.0,1.0,0
7.0,-252.0,-3.0,-27.0,62.0,1.0,0
10.0,-258.0,-6.0,-26.0,63.0,0.0,0
9.0,-253.0,-5.0,-27.0,63.0,0.0,0
13.0,-252.0,-3.0,-26.0,63.0,-1.0,0
12.0,-255.0,-5.0,-24.0,65.0,-1.0,0
12.0,-257.0,-6.0,-24.0,65.0,-1.0,0
12.0,-255.0,-4.0,-22.0,67.0,-2.0,0
9.0,-253.0,0.0,-20.0,67.0,-2.0,0
10.0,-256.0,-5.0,-19.0,66.0,-2.0,0
11.0,-254.0,-6.0,-19.0,66.0,0.0,0
8.0,-253.0,-3.0,-16.0,67.0,-2.0,0
15.0,-255.0,-4.0,-14.0,66.0,-2.0,0
14.0,-255.0,-3.0,-14.0,66.0,-1.0,0
10.0,-255.0,-7.0,-13.0,64.0,0.0,0
11.0,-254.0,1.0,-12.0,62.0,-2.0,0
10.0,-254.0,-2.0,-12.0,61.0,0.0,0
12.0,-255.0,-5.0,-11.0,61.0,-3.0,0
9.0,-255.0,-4.0,-14.0,60.0,-1.0,0
12.0,-255.0,-4.0,-16.0,59.0,-3.0,0
12.0,-256.0,-2.0,-18.0,60.0,-1.0,0
9.0,-255.0,-6.0,-21.0,60.0,-3.0,0
11.0,-256.0,-4.0,-21.0,60.0,-2.0,0
10.0,-254.0,-8.0,-21.0,63.0,-3.0,0
9.0,-253.0,-9.0,-23.0,63.0,-1.0,0
11.0,-255.0,-6.0,-24.0,63.0,-3.0,0
10.0,-256.0,-5.0,-26.0,62.0,-1.0,0
11.0,-254.0,-7.0,-26.0,63.0,-4.0,0
10.0,-255.0,-3.0,-28.0,65.0,-2.0,0
11.0,-254.0,-2.0,-29.0,63.0,-4.0,0
10.0,-254.0,-4.0,-27.0,65.0,-1.0,0
10.0,-258.0,-6.0,-27.0,65.0,-4.0,0
10.0,-254.0,-4.0,-24.0,67.0,-1.0,0
9.0,-255.0,0.0,-22.0,66.0,-1.0,0
11.0,-256.0,-4.0,-19.0,66.0,1.0,0
7.0,-256.0,-6.0,-15.0,67.0,-1.0,0
10.0,-256.0,-2.0,-13.0,66.0,1.0,0
9.0,-256.0,-4.0,-9.0,67.0,-2.0,0
10.0,-256.0,-6.0,-6.0,67.0,2.0,0
9.0,-256.0,-2.0,-4.0,68.0,-1.0,0
9.0,-254.0,-4.0,-4.0,70.0,0.0,0
10.0,-255.0,-5.0,-2.0,70.0,-3.0,0
10.0,-256.0,-3.0,-3.0,68.0,-2.0,0
11.0,-253.0,-5.0,-4.0,69.0,-6.0,0
9.0,-255.0,-3.0,-6.0,68.0,-4.0,0
7.0,-253.0,-5.0,-10.0,67.0,-9.0,0
8.0,-253.0,-3.0,-13.0,65.0,-7.0,0
10.0,-254.0,-3.0,-15.0,64.0,-10.0,0
7.0,-255.0,-2.0,-19.0,63.0,-8.0,0
8.0,-255.0,-5.0,-20.0,64.0,-11.0,0
8.0,-252.0,-5.0,-23.0,64.0,-9.0,0
10.0,-255.0,-2.0,-24.0,65.0,-11.0,0
9.0,-254.0,-2.0,-25.0,66.0,-8.0,0
10.0,-254.0,-1.0,-29.0,65.0,-11.0,0
7.0,-257.0,-2.0,-29.0,66.0,-8.0,0
11.0,-258.0,-4.0,-27.0,65.0,-9.0,0
11.0,-255.0,-3.0,-26.0,67.0,-6.0,0
13.0,-254.0,-4.0,-25.0,70.0,-11.0,0
9.0,-255.0,-5.0,-22.0,71.0,-7.0,0
12.0,-255.0,-4.0,-19.0,73.0,-9.0,0
12.0,-255.0,-4.0,-17.0,71.0,-6.0,0
8.0,-256.0,-3.0,-16.0,70.0,-9.0,0
11.0,-252.0,-6.0,-15.0,69.0,-6.0,0
8.0,-253.0,-4.0,-16.0,70.0,-8.0,0
11.0,-255.0,-7.0,-17.0,68.0,-6.0,0
10.0,-255.0,-4.0,-17.0,68.0,-9.0,0
10.0,-254.0,-5.0,-18.0,68.0,-7.0,0
13.0,-255.0,-4.0,-20.0,68.0,-8.0,0
12.0,-254.0,-5.0,-21.0,68.0,-5.0,0
10.0,-253.0,-2.0,-25.0,67.0,-6.0,0
10.0,-255.0,-3.0,-27.0,67.0,-5.0,0
10.0,-253.0,-1.0,-28.0,64.0,-6.0,0
12.0,-257.0,-2.0,-31.0,63.0,-2.0,0
13.0,-256.0,-1.0,-34.0,62.0,-3.0,0
14.0,-256.0,-3.0,-33.0,61.0,-3.0,0
13.0,-257.0,-4.0,-33.0,61.0,-4.0,0
10.0,-255.0,-2.0,-34.0,61.0,-2.0,0
13.0,-258.0,-4.0,-34.0,62.0,-3.0,0
11.0,-256.0,-5.0,-35.0,65.0,-2.0,0
10.0,-256.0,-7.0,-35.0,65.0,-5.0,0
8.0,-252.0,-4.0,-36.0,66.0,-3.0,0
7.0,-251.0,-9.0,-37.0,65.0,-4.0,0
10.0,-256.0,-6.0,-38.0,66.0,-4.0,0
12.0,-256.0,-5.0,-35.0,66.0,-4.0,0
14.0,-255.0,-3.0,-35.0,67.0,-6.0,0
12.0,-255.0,-6.0,-33.0,68.0,-5.0,0
13.0,-253.0,-10.0,-31.0,69.0,-7.0,0
14.0,-255.0,-8.0,-33.0,70.0,-7.0,0
11.0,-256.0,-7.0,-32.0,69.0,-6.0,0
10.0,-255.0,-6.0,-34.0,69.0,-6.0,0
10.0,-256.0,-5.0,-32.0,66.0,-6.0,0
12.0,-257.0,-5.0,-29.0,64.0,-6.0,0
11.0,-256.0,-6.0,-26.0,62.0,-6.0,0
12.0,-258.0,-7.0,-22.0,63.0,-5.0,0
11.0,-259.0,-4.0,-18.0,64.0,-7.0,0
12.0,-256.0,-3.0,-15.0,64.0,-5.0,0
10.0,-257.0,-3.0,-12.0,63.0,-3.0,0
10.0,-256.0,-3.0,-9.0,61.0,-3.0,0
10.0,-257.0,-5.0,-9.0,59.0,-1.0,0
8.0,-257.0,-2.0,-8.0,57.0,-1.0,0
9.0,-257.0,-2.0,-7.0,55.0,0.0,0
11.0,-254.0,-4.0,-7.0,55.0,1.0,0
9.0,-255.0,-5.0,-8.0,56.0,0.0,0
11.0,-257.0,-3.0,-6.0,57.0,1.0,0
7.0,-253.0,-4.0,-5.0,58.0,0.0,0
12.0,-253.0,-1.0,-5.0,59.0,0.0,0
10.0,-255.0,-6.0,-5.0,61.0,-1.0,0
10.0,-254.0,-5.0,-6.0,62.0,0.0,0
11.0,-254.0,-6.0,-6.0,64.0,1.0,0
9.0,-252.0,-4.0,-9.0,67.0,0.0,0
13.0,-254.0,-3.0,-10.0,68.0,-2.0,0
10.0,-256.0,-6.0,-12.0,71.0,-2.0,0
10.0,-254.0,-4.0,-13.0,72.0,-4.0,0
13.0,-253.0,-6.0,-15.0,72.0,-3.0,0
11.0,-251.0,-2.0,-16.0,72.0,-5.0,0
14.0,-254.0,-4.0,-18.0,72.0,-3.0,0
11.0,-251.0,-5.0,-20.0,74.0,-5.0,0
8.0,-252.0,-6.0,-21.0,73.0,-4.0,0
13.0,-254.0,-6.0,-22.0,72.0,-5.0,0
11.0,-254.0,-5.0,-23.0,71.0,-4.0,0
8.0,-256.0,-6.0,-23.0,69.0,-4.0,0
14.0,-256.0,-2.0,-21.0,68.0,-2.0,0
9.0,-258.0,-4.0,-19.0,65.0,-3.0,0
13.0,-258.0,-6.0,-16.0,65.0,0.0,0
9.0,-257.0,-7.0,-13.0,64.0,0.0,0
10.0,-255.0,-3.0,-12.0,64.0,3.0,0
10.0,-254.0,-5.0,-10.0,63.0,1.0,0
10.0,-255.0,-4.0,-6.0,63.0,3.0,0
11.0,-258.0,-6.0,-5.0,64.0,1.0,0
11.0,-256.0,-4.0,-6.0,62.0,3.0,0
12.0,-256.0,-6.0,-6.0,61.0,2.0,0
8.0,-253.0,-4.0,-7.0,61.0,4.0,0
10.0,-254.0,-8.0,-8.0,61.0,1.0,0
10.0,-255.0,0.0,-9.0,60.0,3.0,0
7.0,-251.0,-4.0,-9.0,59.0,0.0,0
10.0,-255.0,-1.0,-9.0,59.0,2.0,0
10.0,-253.0,-5.0,-10.0,60.0,-1.0,0
11.0,-256.0,-5.0,-9.0,61.0,2.0,0
11.0,-252.0,-5.0,-7.0,61.0,-1.0,0
11.0,-256.0,-4.0,-6.0,64.0,2.0,0
10.0,-254.0,-3.0,-7.0,66.0,2.0,0
8.0,-254.0,-2.0,-9.0,68.0,4.0,0
11.0,-256.0,-4.0,-10.0,67.0,3.0,0
13.0,-254.0,-9.0,-11.0,68.0,4.0,0
10.0,-255.0,-4.0,-11.0,67.0,2.0,0
9.0,-254.0,-8.0,-12.0,67.0,5.0,0
13.0,-254.0,-7.0,-14.0,66.0,2.0,0
13.0,-255.0,-6.0,-15.0,65.0,5.0,0
10.0,-256.0,-2.0,-16.0,63.0,2.0,0
8.0,-251.0,-6.0,-18.0,61.0,5.0,0
12.0,-257.0,-6.0,-19.0,60.0,2.0,0
9.0,-256.0,-4.0,-18.0,60.0,5.0,0
10.0,-256.0,-3.0,-18.0,60.0,3.0,0
12.0,-256.0,-5.0,-16.0,59.0,5.0,0
8.0,-255.0,-2.0,-15.0,59.0,2.0,0
10.0,-255.0,-3.0,-13.0,58.0,3.0,0
11.0,-258.0,-5.0,-11.0,61.0,0.0,0
9.0,-254.0,-7.0,-11.0,61.0,4.0,0
11.0,-257.0,-5.0,-10.0,61.0,3.0,0
8.0,-255.0,-3.0,-8.0,62.0,5.0,0
13.0,-253.0,-7.0,-6.0,65.0,4.0,0
11.0,-257.0,-6.0,-6.0,65.0,6.0,0
10.0,-256.0,-4.0,-8.0,67.0,4.0,0
9.0,-257.0,-2.0,-8.0,68.0,6.0,0
12.0,-254.0,-2.0,-10.0,67.0,4.0,0
9.0,-255.0,-5.0,-9.0,66.0,7.0,0
11.0,-256.0,-3.0,-9.0,66.0,4.0,0
12.0,-253.0,-3.0,-11.0,66.0,5.0,0
12.0,-252.0,-1.0,-11.0,66.0,4.0,0
13.0,-255.0,-3.0,-8.0,65.0,4.0,0
12.0,-257.0,-4.0,-10.0,64.0,1.0,0
11.0,-256.0,-3.0,-10.0,63.0,4.0,0
13.0,-257.0,-6.0,-11.0,60.0,2.0,0
8.0,-255.0,-6.0,-11.0,59.0,4.0,0
13.0,-254.0,-3.0,-12.0,57.0,3.0,0
9.0,-254.0,1.0,-13.0,54.0,4.0,0
9.0,-256.0,-4.0,-15.0,53.0,3.0,0
9.0,-257.0,-3.0,-13.0,51.0,4.0,0
13.0,-258.0,-5.0,-13.0,51.0,4.0,0
7.0,-254.0,-8.0,-12.0,53.0,6.0,0
7.0,-257.0,-4.0,-9.0,55.0,5.0,0
9.0,-254.0,-4.0,-8.0,58.0,7.0,0
9.0,-256.0,-6.0,-6.0,59.0,4.0,0
9.0,-254.0,-1.0,-4.0,62.0,5.0,0
9.0,-255.0,-6.0,-3.0,63.0,3.0,0
9.0,-254.0,-5.0,-4.0,66.0,5.0,0
10.0,-254.0,-5.0,-5.0,66.0,5.0,0
9.0,-253.0,-4.0,-5.0,68.0,4.0,0
9.0,-256.0,-5.0,-4.0,68.0,2.0,0
8.0,-255.0,-1.0,-5.0,67.0,2.0,0
8.0,-255.0,-3.0,-4.0,68.0,3.0,0
11.0,-256.0,-4.0,-5.0,68.0,2.0,0
12.0,-254.0,-4.0,-5.0,67.0,3.0,0
9.0,-254.0,-1.0,-4.0,66.0,3.0,0
11.0,-256.0,-3.0,-5.0,64.0,2.0,0
13.0,-257.0,-4.0,-5.0,65.0,2.0,0
6.0,-255.0,-4.0,-5.0,65.0,2.0,0
10.0,-257.0,-3.0,-3.0,64.0,3.0,0
11.0,-256.0,-6.0,-3.0,64.0,2.0,0
11.0,-257.0,-4.0,-4.0,63.0,0.0,0
11.0,-256.0,-3.0,-6.0,65.0,0.0,0
10.0,-256.0,-5.0,-7.0,63.0,-1.0,0
9.0,-254.0,-6.0,-7.0,63.0,-2.0,0
5.0,-255.0,-7.0,-11.0,61.0,-2.0,0
10.0,-255.0,-4.0,-12.0,61.0,-2.0,0
10.0,-256.0,-2.0,-15.0,61.0,-2.0,0
10.0,-254.0,-3.0,-17.0,62.0,-2.0,0
10.0,-254.0,-6.0,-16.0,62.0,-2.0,0
9.0,-256.0,-4.0,-13.0,64.0,0.0,0
11.0,-255.0,-4.0,-12.0,64.0,-3.0,0
8.0,-256.0,-8.0,-10.0,65.0,-2.0,0
10.0,-254.0,-4.0,-8.0,65.0,-3.0,0
11.0,-255.0,-7.0,-8.0,62.0,-3.0,0
11.0,-253.0,-5.0,-8.0,61.0,-5.0,0
10.0,-254.0,-4.0,-11.0,61.0,-4.0,0
7.0,-257.0,-6.0,-14.0,59.0,-4.0,0
9.0,-255.0,-8.0,-19.0,58.0,-1.0,0
10.0,-256.0,-3.0,-19.0,59.0,-1.0,0
10.0,-257.0,-2.0,-20.0,57.0,1.0,0
9.0,-255.0,-2.0,-17.0,58.0,0.0,0
8.0,-253.0,-3.0,-16.0,59.0,4.0,0
6.0,-256.0,-3.0,-14.0,60.0,3.0,0
7.0,-254.0,-3.0,-12.0,62.0,7.0,0
9.0,-255.0,1.0,-11.0,62.0,5.0,0
12.0,-256.0,-5.0,-12.0,61.0,6.0,0
9.0,-256.0,-3.0,-12.0,60.0,4.0,0
10.0,-257.0,-2.0,-13.0,58.0,6.0,0
9.0,-255.0,-8.0,-15.0,59.0,3.0,0
8.0,-255.0,-1.0,-17.0,58.0,4.0,0
10.0,-255.0,1.0,-19.0,57.0,3.0,0
9.0,-257.0,-5.0,-22.0,58.0,4.0,0
9.0,-257.0,-10.0,-25.0,58.0,0.0,0
10.0,-254.0,-6.0,-23.0,59.0,1.0,0
9.0,-257.0,-3.0,-23.0,60.0,-2.0,0
8.0,-252.0,-6.0,-20.0,61.0,-1.0,0
9.0,-257.0,-3.0,-18.0,62.0,-3.0,0
9.0,-257.0,-8.0,-16.0,62.0,-1.0,0
9.0,-254.0,-4.0,-15.0,60.0,-4.0,0
10.0,-256.0,-6.0,-12.0,60.0,-2.0,0
11.0,-254.0,-8.0,-13.0,60.0,-4.0,0
11.0,-255.0,-4.0,-14.0,59.0,-1.0,0
8.0,-252.0,-5.0,-13.0,60.0,-2.0,0
11.0,-254.0,-1.0,-12.0,59.0,0.0,0
9.0,-256.0,-8.0,-15.0,58.0,-3.0,0
9.0,-253.0,-4.0,-15.0,59.0,1.0,0
10.0,-256.0,-10.0,-13.0,59.0,-2.0,0
9.0,-256.0,-6.0,-14.0,59.0,1.0,0
9.0,-255.0,-6.0,-14.0,60.0,-1.0,0
11.0,-256.0,-4.0,-16.0,60.0,1.0,0
7.0,-256.0,-5.0,-16.0,60.0,0.0,0
10.0,-253.0,-7.0,-17.0,58.0,3.0,0
11.0,-252.0,-5.0,-19.0,59.0,0.0,0
11.0,-256.0,-7.0,-20.0,59.0,2.0,0
11.0,-253.0,-4.0,-21.0,59.0,1.0,0
10.0,-258.0,0.0,-20.0,58.0,5.0,0
9.0,-258.0,-6.0,-19.0,58.0,5.0,0
6.0,-255.0,-6.0,-17.0,59.0,7.0,0
8.0,-256.0,-4.0,-11.0,59.0,7.0,0
9.0,-257.0,-4.0,-3.0,60.0,12.0,0
8.0,-259.0,-5.0,3.0,62.0,10.0,0
10.0,-257.0,-1.0,7.0,60.0,14.0,0
6.0,-257.0,-4.0,13.0,59.0,12.0,0
8.0,-257.0,-1.0,17.0,61.0,16.0,0
7.0,-256.0,0.0,18.0,59.0,13.0,0
11.0,-255.0,-2.0,19.0,59.0,16.0,0
9.0,-252.0,-3.0,18.0,57.0,14.0,0
9.0,-255.0,-2.0,14.0,58.0,16.0,0
12.0,-253.0,-5.0,10.0,58.0,14.0,0
13.0,-255.0,-6.0,8.0,59.0,19.0,0
12.0,-253.0,-4.0,8.0,59.0,17.0,0
14.0,-254.0,-4.0,9.0,61.0,22.0,0
12.0,-256.0,-1.0,8.0,63.0,22.0,0
14.0,-257.0,-5.0,12.0,65.0,28.0,0
14.0,-259.0,4.0,19.0,64.0,29.0,0
13.0,-258.0,3.0,28.0,61.0,31.0,0
14.0,-258.0,1.0,35.0,53.0,30.0,0
11.0,-258.0,2.0,35.0,42.0,29.0,0
13.0,-253.0,-4.0,20.0,29.0,23.0,0
14.0,-251.0,-8.0,-10.0,17.0,20.0,0
12.0,-241.0,-10.0,-49.0,12.0,12.0,0
12.0,-240.0,-6.0,-98.0,7.0,8.0,0
10.0,-243.0,-4.0,-147.0,2.0,4.0,0
10.0,-239.0,6.0,-193.0,-3.0,2.0,0
5.0,-237.0,7.0,-235.0,-7.0,-1.0,0
10.0,-239.0,9.0,-278.0,-16.0,-1.0,0
7.0,-234.0,9.0,-324.0,-28.0,-2.0,0
8.0,-233.0,8.0,-376.0,-40.0,0.0,0
8.0,-233.0,8.0,-437.0,-54.0,-1.0,0
7.0,-234.0,3.0,-516.0,-65.0,1.0,0
10.0,-236.0,-6.0,-581.0,-74.0,-5.0,0
8.0,-239.0,-18.0,-638.0,-81.0,-8.0,0
6.0,-245.0,-21.0,-680.0,-82.0,-15.0,0
5.0,-248.0,-23.0,-705.0,-78.0,-19.0,0
5.0,-252.0,-24.0,-705.0,-69.0,-24.0,0
6.0,-256.0,-21.0,-687.0,-58.0,-25.0,0
7.0,-259.0,-28.0,-652.0,-47.0,-23.0,0
3.0,-260.0,-23.0,-602.0,-37.0,-22.0,0
0.0,-261.0,-24.0,-544.0,-24.0,-18.0,0
-1.0,-263.0,-23.0,-469.0,-12.0,-13.0,0
4.0,-260.0,-23.0,-408.0,-3.0,-10.0,0
5.0,-259.0,-22.0,-352.0,6.0,-5.0,0
0.0,-258.0,-23.0,-306.0,11.0,-2.0,0
1.0,-257.0,-22.0,-271.0,16.0,0.0,0
-1.0,-257.0,-25.0,-249.0,22.0,5.0,0
1.0,-257.0,-22.0,-233.0,28.0,7.0,0
-1.0,-257.0,-25.0,-225.0,29.0,11.0,0
3.0,-253.0,-20.0,-221.0,29.0,15.0,0
4.0,-255.0,-22.0,-220.0,24.0,19.0,0
6.0,-251.0,-24.0,-218.0,16.0,20.0,0
6.0,-254.0,-25.0,-219.0,8.0,21.0,0
7.0,-250.0,-26.0,-222.0,2.0,22.0,0
7.0,-255.0,-24.0,-227.0,-1.0,26.0,0
23.0,-246.0,-23.0,-230.0,-1.0,26.0,0
8.0,-250.0,-16.0,-232.0,1.0,31.0,0
13.0,-247.0,-30.0,-235.0,3.0,31.0,0
5.0,-251.0,-25.0,-238.0,7.0,33.0,0
16.0,-259.0,-10.0,-243.0,9.0,35.0,0
11.0,-247.0,-7.0,-251.0,11.0,38.0,0
11.0,-251.0,-34.0,-261.0,10.0,37.0,0
8.0,-248.0,-22.0,-274.0,10.0,40.0,0
4.0,-250.0,-25.0,-281.0,11.0,40.0,0
8.0,-251.0,-22.0,-288.0,11.0,40.0,0
5.0,-249.0,-24.0,-292.0,13.0,41.0,0
6.0,-251.0,-18.0,-296.0,14.0,44.0,0
4.0,-251.0,-19.0,-297.0,13.0,44.0,0
5.0,-251.0,-21.0,-295.0,13.0,47.0,0
4.0,-246.0,-15.0,-294.0,14.0,48.0,0
5.0,-250.0,-17.0,-295.0,16.0,51.0,0
2.0,-249.0,-16.0,-297.0,16.0,51.0,0
3.0,-249.0,-11.0,-296.0,14.0,55.0,0
2.0,-248.0,-18.0,-294.0,14.0,55.0,0
3.0,-248.0,-18.0,-293.0,11.0,58.0,0
1.0,-249.0,-21.0,-295.0,8.0,58.0,0
4.0,-251.0,-19.0,-299.0,2.0,61.0,0
1.0,-250.0,-21.0,-305.0,-5.0,58.0,0
2.0,-251.0,-21.0,-315.0,-14.0,60.0,0
4.0,-248.0,-20.0,-323.0,-21.0,56.0,0
3.0,-248.0,-22.0,-337.0,-28.0,57.0,0
3.0,-250.0,-22.0,-349.0,-33.0,54.0,0
3.0,-250.0,-28.0,-362.0,-35.0,56.0,0
2.0,-247.0,-25.0,-377.0,-33.0,54.0,0
4.0,-248.0,-25.0,-388.0,-31.0,58.0,0
9.0,-251.0,-23.0,-399.0,-28.0,57.0,0
6.0,-249.0,-23.0,-405.0,-26.0,64.0,0
9.0,-251.0,-23.0,-413.0,-26.0,63.0,0
9.0,-251.0,-25.0,-419.0,-27.0,68.0,0
9.0,-254.0,-23.0,-422.0,-27.0,70.0,0
12.0,-254.0,-23.0,-424.0,-25.0,75.0,0
10.0,-252.0,-24.0,-423.0,-25.0,77.0,0
11.0,-256.0,-24.0,-422.0,-25.0,81.0,0
12.0,-256.0,-22.0,-420.0,-24.0,81.0,0
12.0,-255.0,-26.0,-412.0,-26.0,84.0,0
11.0,-256.0,-24.0,-408.0,-27.0,81.0,0
6.0,-255.0,-24.0,-402.0,-28.0,81.0,0
9.0,-257.0,-25.0,-398.0,-28.0,77.0,0
10.0,-257.0,-27.0,-398.0,-26.0,76.0,0
10.0,-254.0,-28.0,-399.0,-23.0,71.0,0
8.0,-253.0,-26.0,-402.0,-20.0,71.0,0
8.0,-254.0,-28.0,-410.0,-18.0,69.0,0
10.0,-257.0,-28.0,-418.0,-15.0,71.0,0
7.0,-251.0,-29.0,-425.0,-11.0,70.0,0
7.0,-250.0,-38.0,-438.0,-7.0,74.0,0
6.0,-251.0,-37.0,-452.0,-4.0,72.0,0
6.0,-248.0,-41.0,-468.0,-3.0,75.0,0
4.0,-246.0,-40.0,-486.0,1.0,73.0,0
5.0,-249.0,-41.0,-503.0,4.0,77.0,0
0.0,-246.0,-41.0,-520.0,9.0,77.0,0
2.0,-247.0,-39.0,-534.0,14.0,81.0,0
0.0,-247.0,-42.0,-543.0,17.0,83.0,0
2.0,-248.0,-41.0,-546.0,22.0,86.0,0
1.0,-249.0,-42.0,-542.0,23.0,88.0,0
-1.0,-245.0,-36.0,-535.0,24.0,95.0,0
-3.0,-250.0,-43.0,-523.0,21.0,99.0,0
0.0,-248.0,-45.0,-515.0,16.0,106.0,0
-2.0,-247.0,-45.0,-514.0,10.0,111.0,0
1.0,-249.0,-48.0,-526.0,8.0,123.0,0
-1.0,-243.0,-53.0,-542.0,10.0,131.0,0
1.0,-246.0,-55.0,-567.0,18.0,146.0,0
1.0,-245.0,-57.0,-599.0,24.0,159.0,0
-3.0,-246.0,-62.0,-636.0,28.0,173.0,0
-1.0,-247.0,-61.0,-675.0,32.0,183.0,0
-1.0,-248.0,-65.0,-714.0,36.0,197.0,0
-1.0,-252.0,-67.0,-764.0,45.0,202.0,0
0.0,-257.0,-70.0,-805.0,51.0,208.0,0
0.0,-256.0,-69.0,-843.0,58.0,208.0,0
3.0,-262.0,-70.0,-873.0,69.0,210.0,0
-4.0,-259.0,-73.0,-896.0,76.0,207.0,0
-3.0,-260.0,-70.0,-912.0,85.0,205.0,0
-5.0,-259.0,-69.0,-922.0,91.0,201.0,0
-6.0,-257.0,-69.0,-925.0,96.0,198.0,0
-4.0,-260.0,-70.0,-925.0,98.0,189.0,0
-6.0,-253.0,-67.0,-929.0,101.0,179.0,0
-9.0,-251.0,-69.0,-940.0,104.0,171.0,0
-7.0,-246.0,-75.0,-957.0,107.0,165.0,0
-6.0,-246.0,-79.0,-980.0,110.0,159.0,0
-8.0,-241.0,-85.0,-1016.0,114.0,154.0,0
-7.0,-240.0,-85.0,-1060.0,123.0,149.0,0
-7.0,-238.0,-91.0,-1111.0,136.0,148.0,0
-3.0,-241.0,-92.0,-1168.0,152.0,146.0,0
-1.0,-243.0,-95.0,-1223.0,172.0,144.0,0
1.0,-242.0,-97.0,-1277.0,190.0,142.0,0
0.0,-243.0,-99.0,-1327.0,204.0,144.0,0
2.0,-244.0,-99.0,-1376.0,215.0,141.0,0
3.0,-247.0,-105.0,-1430.0,224.0,138.0,0
1.0,-248.0,-104.0,-1465.0,229.0,129.0,0
2.0,-255.0,-109.0,-1493.0,233.0,120.0,0
1.0,-258.0,-108.0,-1507.0,235.0,109.0,0
1.0,-258.0,-110.0,-1509.0,237.0,99.0,0
13.0,-260.0,-121.0,-1502.0,240.0,87.0,0
-1.0,-243.0,-128.0,-1482.0,245.0,74.0,0
-2.0,-256.0,-117.0,-1457.0,249.0,61.0,0
-6.0,-256.0,-118.0,-1426.0,252.0,48.0,0
-7.0,-254.0,-120.0,-1392.0,254.0,36.0,0
-9.0,-251.0,-119.0,-1347.0,254.0,31.0,0
-10.0,-249.0,-120.0,-1310.0,247.0,31.0,0
-12.0,-247.0,-120.0,-1271.0,233.0,31.0,0
-12.0,-247.0,-121.0,-1233.0,210.0,38.0,0
-12.0,-246.0,-123.0,-1202.0,186.0,42.0,0
-12.0,-244.0,-124.0,-1175.0,163.0,50.0,0
-12.0,-241.0,-129.0,-1157.0,145.0,56.0,0
-12.0,-244.0,-136.0,-1151.0,133.0,66.0,0
-12.0,-245.0,-137.0,-1156.0,130.0,72.0,0
-13.0,-245.0,-141.0,-1167.0,128.0,87.0,0
-12.0,-246.0,-147.0,-1186.0,130.0,99.0,0
-12.0,-251.0,-155.0,-1202.0,134.0,112.0,0
-12.0,-252.0,-160.0,-1214.0,140.0,120.0,0
-11.0,-259.0,-164.0,-1219.0,145.0,128.0,0
-11.0,-260.0,-163.0,-1215.0,150.0,130.0,0
-11.0,-260.0,-168.0,-1204.0,152.0,133.0,0
-10.0,-264.0,-178.0,-1188.0,153.0,129.0,0
-8.0,-266.0,-181.0,-1161.0,159.0,128.0,0
-10.0,-267.0,-177.0,-1122.0,165.0,123.0,0
-7.0,-265.0,-181.0,-1080.0,173.0,117.0,0
-11.0,-267.0,-178.0,-1044.0,175.0,103.0,0
-8.0,-265.0,-176.0,-986.0,175.0,92.0,0
-9.0,-266.0,-179.0,-936.0,173.0,78.0,0
-8.0,-263.0,-174.0,-887.0,171.0,66.0,0
-11.0,-259.0,-172.0,-836.0,171.0,52.0,0
-10.0,-257.0,-172.0,-789.0,169.0,42.0,0
-12.0,-249.0,-168.0,-747.0,168.0,32.0,0
-11.0,-242.0,-172.0,-712.0,168.0,28.0,0
-10.0,-239.0,-169.0,-683.0,168.0,22.0,0
-8.0,-231.0,-170.0,-674.0,169.0,22.0,0
-11.0,-229.0,-174.0,-677.0,165.0,19.0,0
-11.0,-223.0,-173.0,-689.0,156.0,17.0,0
-10.0,-221.0,-177.0,-704.0,147.0,13.0,0
-11.0,-219.0,-177.0,-720.0,139.0,11.0,0
-12.0,-221.0,-176.0,-736.0,134.0,6.0,0
-10.0,-222.0,-182.0,-747.0,132.0,4.0,0
-11.0,-224.0,-185.0,-754.0,135.0,-6.0,0
-12.0,-223.0,-185.0,-753.0,140.0,-9.0,0
-11.0,-218.0,-187.0,-747.0,151.0,-17.0,0
-12.0,-222.0,-189.0,-731.0,164.0,-18.0,0
-10.0,-221.0,-195.0,-709.0,181.0,-25.0,0
-10.0,-220.0,-194.0,-679.0,202.0,-23.0,0
-12.0,-218.0,-191.0,-652.0,219.0,-29.0,0
-11.0,-216.0,-191.0,-623.0,234.0,-30.0,0
-12.0,-213.0,-190.0,-596.0,248.0,-35.0,0
-12.0,-213.0,-191.0,-570.0,260.0,-34.0,0
-10.0,-210.0,-187.0,-544.0,271.0,-35.0,0
-10.0,-211.0,-187.0,-513.0,284.0,-32.0,0
-6.0,-208.0,-189.0,-480.0,295.0,-33.0,0
-6.0,-208.0,-189.0,-447.0,304.0,-29.0,0
-6.0,-205.0,-187.0,-417.0,309.0,-30.0,0
-2.0,-203.0,-190.0,-388.0,312.0,-30.0,0
-1.0,-203.0,-192.0,-359.0,308.0,-32.0,0
0.0,-203.0,-192.0,-342.0,304.0,-32.0,0
2.0,-199.0,-190.0,-332.0,301.0,-36.0,0
1.0,-199.0,-189.0,-330.0,293.0,-36.0,0
-2.0,-197.0,-191.0,-333.0,288.0,-40.0,0
-2.0,-199.0,-186.0,-339.0,283.0,-40.0,0
-5.0,-196.0,-184.0,-343.0,279.0,-41.0,0
-5.0,-197.0,-183.0,-347.0,278.0,-37.0,0
-6.0,-196.0,-182.0,-346.0,278.0,-34.0,0
-9.0,-193.0,-180.0,-339.0,276.0,-25.0,0
-8.0,-192.0,-180.0,-327.0,273.0,-22.0,0
-9.0,-192.0,-182.0,-311.0,270.0,-13.0,0
-7.0,-194.0,-182.0,-296.0,265.0,-10.0,0
-6.0,-191.0,-183.0,-280.0,258.0,-3.0,0
-10.0,-191.0,-182.0,-265.0,251.0,-1.0,0
-6.0,-192.0,-180.0,-249.0,245.0,4.0,0
-9.0,-186.0,-184.0,-236.0,239.0,5.0,0
-4.0,-190.0,-187.0,-224.0,235.0,8.0,0
-5.0,-189.0,-186.0,-216.0,235.0,4.0,0
-8.0,-187.0,-187.0,-209.0,233.0,3.0,0
-4.0,-188.0,-185.0,-203.0,228.0,-2.0,0
-5.0,-184.0,-188.0,-195.0,224.0,-2.0,0
-4.0,-187.0,-184.0,-191.0,219.0,-7.0,0
-4.0,-189.0,-185.0,-185.0,213.0,-9.0,0
-3.0,-189.0,-185.0,-178.0,208.0,-13.0,0
-5.0,-189.0,-186.0,-169.0,201.0,-14.0,0
0.0,-190.0,-187.0,-160.0,201.0,-18.0,0
0.0,-191.0,-189.0,-151.0,202.0,-18.0,0
-6.0,-189.0,-190.0,-145.0,204.0,-17.0,0
-1.0,-190.0,-196.0,-138.0,211.0,-13.0,0
-2.0,-194.0,-191.0,-130.0,221.0,-11.0,0
-3.0,-195.0,-190.0,-118.0,228.0,-3.0,0
-3.0,-198.0,-191.0,-103.0,233.0,2.0,0
-1.0,-197.0,-189.0,-82.0,237.0,9.0,0
1.0,-201.0,-197.0,-58.0,241.0,13.0,0
2.0,-203.0,-193.0,-31.0,242.0,17.0,0
-1.0,-200.0,-192.0,1.0,242.0,21.0,0
2.0,-202.0,-194.0,35.0,240.0,22.0,0
3.0,-199.0,-190.0,65.0,233.0,25.0,0
2.0,-204.0,-189.0,94.0,228.0,26.0,0
3.0,-201.0,-189.0,119.0,220.0,28.0,0
8.0,-201.0,-191.0,147.0,206.0,28.0,0
2.0,-197.0,-187.0,166.0,192.0,27.0,0
5.0,-197.0,-192.0,181.0,179.0,28.0,0
5.0,-196.0,-188.0,193.0,164.0,27.0,0
4.0,-197.0,-190.0,200.0,151.0,26.0,0
4.0,-199.0,-184.0,206.0,139.0,24.0,0
2.0,-196.0,-188.0,209.0,127.0,23.0,0
5.0,-199.0,-186.0,214.0,114.0,21.0,0
4.0,-197.0,-187.0,223.0,100.0,18.0,0
5.0,-199.0,-183.0,230.0,89.0,19.0,0
1.0,-199.0,-184.0,236.0,78.0,19.0,0
-1.0,-201.0,-179.0,244.0,72.0,20.0,0
2.0,-200.0,-183.0,257.0,70.0,22.0,0
2.0,-204.0,-173.0,272.0,69.0,26.0,0
0.0,-203.0,-177.0,292.0,75.0,30.0,0
4.0,-209.0,-175.0,312.0,78.0,35.0,0
3.0,-207.0,-175.0,330.0,84.0,37.0,0
4.0,-209.0,-178.0,350.0,87.0,41.0,0
2.0,-208.0,-178.0,374.0,90.0,40.0,0
3.0,-209.0,-176.0,398.0,94.0,40.0,0
3.0,-208.0,-179.0,419.0,95.0,36.0,0
3.0,-210.0,-177.0,443.0,93.0,32.0,0
5.0,-210.0,-177.0,458.0,96.0,26.0,0
5.0,-211.0,-178.0,470.0,99.0,21.0,0
5.0,-209.0,-177.0,479.0,104.0,14.0,0
6.0,-208.0,-178.0,487.0,110.0,9.0,0
6.0,-208.0,-178.0,490.0,115.0,3.0,0
5.0,-208.0,-176.0,491.0,118.0,0.0,0
8.0,-209.0,-173.0,492.0,118.0,-6.0,0
3.0,-210.0,-172.0,496.0,117.0,-7.0,0
4.0,-206.0,-169.0,503.0,116.0,-12.0,0
7.0,-206.0,-165.0,512.0,113.0,-12.0,0
9.0,-205.0,-170.0,522.0,111.0,-16.0,0
10.0,-209.0,-173.0,523.0,110.0,-16.0,0
7.0,-204.0,-167.0,520.0,106.0,-21.0,0
10.0,-207.0,-166.0,516.0,104.0,-20.0,0
8.0,-202.0,-164.0,513.0,100.0,-24.0,0
12.0,-204.0,-163.0,506.0,97.0,-21.0,0
12.0,-202.0,-160.0,504.0,95.0,-23.0,0
8.0,-200.0,-159.0,501.0,91.0,-18.0,0
10.0,-203.0,-160.0,500.0,89.0,-19.0,0
10.0,-202.0,-161.0,499.0,86.0,-14.0,0
11.0,-200.0,-157.0,499.0,83.0,-13.0,0
9.0,-201.0,-151.0,505.0,81.0,-9.0,0
10.0,-204.0,-160.0,519.0,80.0,-9.0,0
11.0,-203.0,-158.0,532.0,81.0,-4.0,0
10.0,-202.0,-156.0,546.0,85.0,-5.0,0
12.0,-204.0,-159.0,558.0,92.0,-2.0,0
8.0,-203.0,-159.0,569.0,97.0,-3.0,0
10.0,-201.0,-155.0,579.0,103.0,0.0,0
11.0,-200.0,-157.0,587.0,106.0,-4.0,0
11.0,-200.0,-153.0,593.0,109.0,-1.0,0
8.0,-198.0,-154.0,597.0,116.0,-3.0,0
11.0,-199.0,-155.0,598.0,120.0,3.0,0
9.0,-198.0,-149.0,600.0,126.0,5.0,0
9.0,-197.0,-147.0,604.0,130.0,13.0,0
6.0,-197.0,-147.0,609.0,134.0,15.0,0
11.0,-196.0,-142.0,612.0,137.0,20.0,0
13.0,-198.0,-144.0,618.0,139.0,19.0,0
10.0,-196.0,-142.0,625.0,141.0,20.0,0
10.0,-191.0,-138.0,633.0,142.0,17.0,0
14.0,-193.0,-135.0,637.0,142.0,21.0,0
14.0,-193.0,-138.0,639.0,139.0,20.0,0
15.0,-191.0,-141.0,640.0,135.0,24.0,0
13.0,-191.0,-136.0,640.0,131.0,22.0,0
14.0,-188.0,-138.0,641.0,129.0,24.0,0
11.0,-188.0,-134.0,641.0,126.0,24.0,0
14.0,-185.0,-137.0,639.0,122.0,24.0,0
15.0,-185.0,-137.0,638.0,118.0,19.0,0
16.0,-183.0,-135.0,634.0,115.0,17.0,0
15.0,-183.0,-131.0,626.0,113.0,13.0,0
14.0,-181.0,-131.0,620.0,115.0,16.0,0
9.0,-181.0,-134.0,615.0,119.0,14.0,0
11.0,-182.0,-128.0,609.0,122.0,17.0,0
11.0,-179.0,-126.0,605.0,123.0,16.0,0
9.0,-180.0,-128.0,602.0,123.0,19.0,0
11.0,-181.0,-128.0,598.0,121.0,15.0,0
9.0,-182.0,-128.0,591.0,119.0,16.0,0
8.0,-184.0,-129.0,580.0,115.0,9.0,0
10.0,-181.0,-129.0,568.0,110.0,6.0,0
7.0,-187.0,-129.0,557.0,107.0,1.0,0
6.0,-186.0,-129.0,544.0,104.0,0.0,0
4.0,-186.0,-129.0,534.0,103.0,-5.0,0
3.0,-191.0,-129.0,526.0,103.0,-6.0,0
2.0,-194.0,-129.0,514.0,101.0,-10.0,0
7.0,-191.0,-130.0,507.0,102.0,-10.0,0
1.0,-195.0,-131.0,499.0,101.0,-14.0,0
-1.0,-192.0,-133.0,488.0,101.0,-16.0,0
-1.0,-194.0,-138.0,474.0,99.0,-17.0,0
2.0,-196.0,-133.0,460.0,99.0,-18.0,0
4.0,-197.0,-138.0,449.0,104.0,-17.0,0
3.0,-203.0,-137.0,444.0,110.0,-16.0,0
3.0,-201.0,-131.0,446.0,115.0,-17.0,0
2.0,-201.0,-137.0,448.0,121.0,-15.0,0
2.0,-203.0,-131.0,454.0,125.0,-16.0,0
2.0,-205.0,-128.0,462.0,126.0,-13.0,0
2.0,-210.0,-130.0,473.0,125.0,-11.0,0
5.0,-214.0,-125.0,483.0,125.0,-7.0,0
3.0,-218.0,-122.0,496.0,124.0,-5.0,0
7.0,-220.0,-119.0,513.0,123.0,-2.0,0
6.0,-223.0,-119.0,540.0,121.0,1.0,0
6.0,-225.0,-114.0,568.0,121.0,1.0,0
6.0,-227.0,-117.0,593.0,120.0,1.0,0
7.0,-228.0,-118.0,614.0,115.0,-2.0,0
4.0,-228.0,-115.0,630.0,106.0,-2.0,0
9.0,-233.0,-115.0,649.0,94.0,2.0,0
8.0,-232.0,-116.0,665.0,79.0,6.0,0
9.0,-229.0,-119.0,671.0,65.0,11.0,0
11.0,-232.0,-123.0,667.0,54.0,15.0,0
15.0,-232.0,-126.0,656.0,49.0,14.0,0
9.0,-232.0,-128.0,638.0,51.0,12.0,0
14.0,-231.0,-127.0,617.0,57.0,9.0,0
13.0,-236.0,-122.0,594.0,68.0,8.0,0
13.0,-235.0,-120.0,579.0,81.0,5.0,0
12.0,-233.0,-120.0,568.0,96.0,7.0,0
13.0,-235.0,-115.0,563.0,111.0,11.0,0
10.0,-231.0,-118.0,565.0,126.0,16.0,0
10.0,-234.0,-111.0,573.0,140.0,19.0,0
10.0,-235.0,-106.0,585.0,149.0,23.0,0
8.0,-231.0,-105.0,601.0,155.0,24.0,0
9.0,-230.0,-100.0,614.0,157.0,26.0,0
10.0,-228.0,-107.0,628.0,160.0,26.0,0
9.0,-228.0,-104.0,637.0,162.0,30.0,0
8.0,-220.0,-102.0,641.0,160.0,29.0,0
7.0,-218.0,-103.0,641.0,158.0,31.0,0
3.0,-217.0,-100.0,638.0,154.0,34.0,0
5.0,-214.0,-103.0,631.0,151.0,39.0,0
5.0,-215.0,-101.0,620.0,150.0,43.0,0
6.0,-214.0,-101.0,606.0,149.0,46.0,0
8.0,-212.0,-98.0,591.0,149.0,44.0,0
4.0,-210.0,-97.0,577.0,150.0,44.0,0
7.0,-210.0,-98.0,563.0,149.0,38.0,0
10.0,-208.0,-98.0,543.0,148.0,35.0,0
4.0,-210.0,-96.0,525.0,145.0,28.0,0
3.0,-207.0,-98.0,504.0,140.0,26.0,0
5.0,-209.0,-92.0,483.0,129.0,17.0,0
4.0,-212.0,-90.0,460.0,116.0,13.0,0
3.0,-213.0,-91.0,443.0,103.0,6.0,0
5.0,-214.0,-89.0,426.0,91.0,2.0,0
3.0,-219.0,-92.0,409.0,80.0,-5.0,0
2.0,-215.0,-90.0,391.0,70.0,-7.0,0
1.0,-218.0,-91.0,374.0,60.0,-10.0,0
0.0,-221.0,-93.0,360.0,52.0,-10.0,0
-1.0,-222.0,-86.0,344.0,45.0,-15.0,0
3.0,-226.0,-87.0,329.0,42.0,-17.0,0
2.0,-231.0,-84.0,319.0,41.0,-22.0,0
1.0,-232.0,-82.0,314.0,44.0,-22.0,0
5.0,-232.0,-85.0,311.0,47.0,-26.0,0
2.0,-235.0,-84.0,307.0,51.0,-27.0,0
3.0,-233.0,-88.0,304.0,55.0,-34.0,0
4.0,-239.0,-88.0,303.0,57.0,-33.0,0
5.0,-238.0,-85.0,299.0,59.0,-38.0,0
6.0,-244.0,-89.0,298.0,60.0,-39.0,0
5.0,-245.0,-88.0,299.0,61.0,-45.0,0
10.0,-245.0,-85.0,302.0,63.0,-47.0,0
7.0,-246.0,-84.0,308.0,65.0,-54.0,0
12.0,-246.0,-84.0,316.0,69.0,-56.0,0
12.0,-245.0,-83.0,322.0,72.0,-64.0,0
13.0,-247.0,-86.0,333.0,78.0,-63.0,0
13.0,-243.0,-85.0,342.0,81.0,-68.0,0
13.0,-244.0,-81.0,351.0,86.0,-66.0,0
16.0,-242.0,-81.0,360.0,88.0,-67.0,0
16.0,-239.0,-76.0,366.0,90.0,-66.0,0
15.0,-239.0,-78.0,369.0,92.0,-69.0,0
12.0,-237.0,-79.0,370.0,90.0,-67.0,0
9.0,-236.0,-75.0,368.0,89.0,-68.0,0
13.0,-235.0,-79.0,364.0,90.0,-63.0,0
11.0,-234.0,-73.0,358.0,88.0,-64.0,0
11.0,-233.0,-73.0,351.0,84.0,-61.0,0
12.0,-232.0,-74.0,342.0,79.0,-61.0,0
10.0,-230.0,-72.0,335.0,75.0,-55.0,0
12.0,-232.0,-72.0,325.0,69.0,-57.0,0
10.0,-233.0,-70.0,312.0,64.0,-51.0,0
15.0,-232.0,-70.0,299.0,60.0,-52.0,0
13.0,-234.0,-71.0,284.0,57.0,-48.0,0
15.0,-234.0,-67.0,271.0,53.0,-49.0,0
16.0,-237.0,-64.0,259.0,52.0,-47.0,0
13.0,-238.0,-67.0,244.0,52.0,-47.0,0
14.0,-243.0,-67.0,233.0,56.0,-43.0,0
11.0,-243.0,-65.0,220.0,59.0,-42.0,0
14.0,-246.0,-64.0,210.0,63.0,-38.0,0
17.0,-251.0,-61.0,204.0,71.0,-38.0,0
18.0,-250.0,-62.0,199.0,77.0,-32.0,0
18.0,-249.0,-59.0,198.0,86.0,-32.0,0
17.0,-252.0,-60.0,201.0,94.0,-28.0,0
17.0,-252.0,-62.0,205.0,101.0,-28.0,0
16.0,-252.0,-60.0,206.0,107.0,-27.0,0
18.0,-251.0,-60.0,207.0,112.0,-29.0,0
21.0,-250.0,-58.0,202.0,117.0,-26.0,0
20.0,-248.0,-59.0,196.0,122.0,-30.0,0
19.0,-247.0,-61.0,186.0,126.0,-32.0,0
21.0,-247.0,-60.0,174.0,129.0,-37.0,0
17.0,-245.0,-63.0,156.0,128.0,-38.0,0
19.0,-244.0,-62.0,136.0,130.0,-41.0,0
19.0,-241.0,-63.0,113.0,135.0,-42.0,0
15.0,-238.0,-67.0,85.0,144.0,-45.0,0
16.0,-237.0,-66.0,60.0,157.0,-44.0,0
14.0,-234.0,-63.0,35.0,171.0,-44.0,0
15.0,-235.0,-62.0,6.0,186.0,-42.0,0
14.0,-229.0,-64.0,-16.0,196.0,-43.0,0
16.0,-231.0,-64.0,-38.0,203.0,-41.0,0
14.0,-234.0,-64.0,-58.0,203.0,-40.0,0
15.0,-236.0,-61.0,-72.0,198.0,-37.0,0
16.0,-241.0,-61.0,-84.0,191.0,-35.0,0
10.0,-240.0,-65.0,-92.0,182.0,-31.0,0
10.0,-245.0,-67.0,-93.0,175.0,-28.0,0
11.0,-247.0,-67.0,-93.0,166.0,-25.0,0
10.0,-253.0,-63.0,-90.0,159.0,-21.0,0
11.0,-257.0,-69.0,-82.0,151.0,-16.0,0
5.0,-255.0,-65.0,-69.0,145.0,-15.0,0
9.0,-258.0,-69.0,-59.0,137.0,-14.0,0
7.0,-259.0,-68.0,-49.0,129.0,-13.0,0
7.0,-259.0,-68.0,-40.0,121.0,-12.0,0
7.0,-257.0,-71.0,-33.0,118.0,-12.0,0
6.0,-256.0,-67.0,-26.0,116.0,-12.0,0
3.0,-256.0,-70.0,-19.0,117.0,-11.0,0
6.0,-251.0,-66.0,-15.0,114.0,-10.0,0
7.0,-251.0,-63.0,-12.0,113.0,-9.0,0
7.0,-251.0,-66.0,-9.0,109.0,-9.0,0
7.0,-250.0,-68.0,-5.0,103.0,-8.0,0
6.0,-248.0,-63.0,0.0,98.0,-7.0,0
5.0,-244.0,-61.0,4.0,90.0,-6.0,0
8.0,-247.0,-60.0,6.0,84.0,-6.0,0
6.0,-244.0,-59.0,8.0,75.0,-4.0,0
12.0,-247.0,-61.0,9.0,69.0,-5.0,0
10.0,-245.0,-59.0,12.0,64.0,-5.0,0
11.0,-248.0,-63.0,17.0,60.0,-6.0,0
10.0,-247.0,-62.0,23.0,57.0,-6.0,0
13.0,-247.0,-61.0,28.0,56.0,-8.0,0
13.0,-247.0,-60.0,33.0,55.0,-7.0,0
13.0,-248.0,-61.0,37.0,54.0,-7.0,0
15.0,-248.0,-60.0,41.0,56.0,-7.0,0
14.0,-247.0,-61.0,43.0,60.0,-7.0,0
13.0,-246.0,-60.0,44.0,62.0,-5.0,0
14.0,-249.0,-61.0,42.0,69.0,-6.0,0
12.0,-249.0,-59.0,41.0,75.0,-3.0,0
15.0,-248.0,-60.0,37.0,81.0,-4.0,0
11.0,-246.0,-60.0,32.0,86.0,-1.0,0
12.0,-246.0,-62.0,25.0,91.0,-4.0,0
15.0,-249.0,-59.0,18.0,95.0,-1.0,0
13.0,-247.0,-65.0,9.0,99.0,-3.0,0
10.0,-245.0,-62.0,2.0,101.0,-1.0,0
15.0,-250.0,-61.0,-3.0,105.0,-3.0,0
15.0,-248.0,-61.0,-5.0,106.0,-2.0,0
10.0,-248.0,-60.0,-7.0,104.0,-3.0,0
13.0,-248.0,-61.0,-6.0,104.0,0.0,0
13.0,-249.0,-61.0,-3.0,105.0,-4.0,0
13.0,-248.0,-64.0,0.0,105.0,-2.0,0
13.0,-251.0,-60.0,4.0,105.0,-3.0,0
10.0,-253.0,-61.0,8.0,104.0,0.0,0
10.0,-249.0,-57.0,13.0,100.0,-1.0,0
9.0,-250.0,-57.0,18.0,96.0,2.0,0
9.0,-247.0,-61.0,20.0,91.0,2.0,0
9.0,-248.0,-61.0,24.0,86.0,6.0,0
9.0,-249.0,-59.0,25.0,78.0,6.0,0
11.0,-252.0,-60.0,25.0,73.0,10.0,0
9.0,-251.0,-60.0,27.0,69.0,10.0,0
10.0,-251.0,-58.0,28.0,67.0,11.0,0
9.0,-253.0,-59.0,30.0,69.0,9.0,0
12.0,-251.0,-57.0,30.0,72.0,12.0,0
9.0,-248.0,-59.0,30.0,76.0,11.0,0
9.0,-248.0,-57.0,28.0,79.0,12.0,0
10.0,-246.0,-61.0,26.0,82.0,9.0,0
12.0,-247.0,-55.0,21.0,86.0,11.0,0
11.0,-248.0,-54.0,12.0,91.0,7.0,0
10.0,-247.0,-58.0,4.0,97.0,9.0,0
12.0,-246.0,-57.0,-5.0,102.0,5.0,0
12.0,-248.0,-58.0,-14.0,108.0,7.0,0
14.0,-245.0,-62.0,-20.0,114.0,3.0,0
13.0,-243.0,-58.0,-25.0,118.0,5.0,0
13.0,-246.0,-61.0,-32.0,120.0,2.0,0
12.0,-248.0,-57.0,-40.0,120.0,4.0,0
14.0,-252.0,-59.0,-47.0,118.0,1.0,0
9.0,-247.0,-63.0,-56.0,113.0,1.0,0
10.0,-248.0,-65.0,-64.0,111.0,-1.0,0
12.0,-251.0,-66.0,-72.0,107.0,1.0,0
8.0,-249.0,-64.0,-79.0,103.0,-1.0,0
7.0,-249.0,-66.0,-82.0,100.0,0.0,0
7.0,-250.0,-64.0,-83.0,95.0,-2.0,0
8.0,-255.0,-67.0,-84.0,91.0,-1.0,0
4.0,-252.0,-62.0,-82.0,87.0,-1.0,0
9.0,-253.0,-67.0,-76.0,82.0,2.0,0
9.0,-251.0,-67.0,-70.0,79.0,0.0,0
10.0,-254.0,-69.0,-62.0,78.0,2.0,0
9.0,-254.0,-69.0,-54.0,80.0,0.0,0
10.0,-254.0,-67.0,-47.0,81.0,2.0,0
10.0,-254.0,-65.0,-40.0,82.0,1.0,0
13.0,-251.0,-69.0,-34.0,84.0,5.0,0
13.0,-253.0,-66.0,-27.0,88.0,3.0,0
11.0,-248.0,-65.0,-24.0,90.0,5.0,0
14.0,-247.0,-67.0,-24.0,95.0,4.0,0
15.0,-248.0,-69.0,-26.0,99.0,5.0,0
15.0,-245.0,-73.0,-28.0,104.0,5.0,0
2.0,-250.0,-71.0,-31.0,108.0,7.0,0
21.0,-245.0,-77.0,-34.0,111.0,5.0,0
8.0,-251.0,-58.0,-35.0,114.0,7.0,0
16.0,-252.0,-66.0,-39.0,116.0,6.0,0
13.0,-249.0,-78.0,-43.0,115.0,9.0,0
14.0,-235.0,-69.0,-44.0,117.0,7.0,0
14.0,-244.0,-57.0,-48.0,117.0,8.0,0
8.0,-245.0,-71.0,-53.0,118.0,9.0,0
12.0,-254.0,-63.0,-58.0,117.0,9.0,0
11.0,-247.0,-69.0,-63.0,118.0,6.0,0
10.0,-246.0,-69.0,-71.0,118.0,6.0,0
12.0,-248.0,-69.0,-78.0,119.0,4.0,0
9.0,-248.0,-68.0,-82.0,118.0,5.0,0
5.0,-247.0,-70.0,-82.0,115.0,4.0,0
7.0,-247.0,-68.0,-83.0,114.0,4.0,0
6.0,-248.0,-65.0,-82.0,111.0,2.0,0
7.0,-248.0,-65.0,-78.0,108.0,1.0,0
8.0,-248.0,-63.0,-76.0,102.0,1.0,0
6.0,-248.0,-66.0,-74.0,94.0,2.0,0
5.0,-251.0,-64.0,-69.0,88.0,2.0,0
7.0,-255.0,-61.0,-64.0,81.0,2.0,0
5.0,-254.0,-62.0,-61.0,75.0,0.0,0
8.0,-254.0,-64.0,-56.0,70.0,0.0,0
8.0,-253.0,-67.0,-52.0,69.0,1.0,0
7.0,-251.0,-65.0,-51.0,70.0,1.0,0
11.0,-255.0,-66.0,-48.0,73.0,1.0,0
10.0,-253.0,-68.0,-45.0,75.0,-1.0,0
9.0,-254.0,-66.0,-44.0,79.0,2.0,0
9.0,-252.0,-64.0,-41.0,80.0,-1.0,0
10.0,-248.0,-63.0,-37.0,83.0,0.0,0
9.0,-250.0,-61.0,-36.0,85.0,1.0,0
8.0,-250.0,-63.0,-34.0,87.0,1.0,0
11.0,-247.0,-64.0,-36.0,89.0,2.0,0
13.0,-246.0,-61.0,-35.0,92.0,3.0,0
10.0,-249.0,-62.0,-37.0,92.0,2.0,0
12.0,-248.0,-63.0,-39.0,93.0,3.0,0
11.0,-247.0,-57.0,-40.0,91.0,2.0,0
11.0,-248.0,-62.0,-42.0,88.0,4.0,0
12.0,-251.0,-60.0,-44.0,84.0,3.0,0
8.0,-251.0,-61.0,-45.0,79.0,5.0,0
12.0,-251.0,-66.0,-47.0,79.0,2.0,0
10.0,-251.0,-69.0,-55.0,80.0,2.0,0
13.0,-254.0,-64.0,-62.0,83.0,-1.0,0
12.0,-249.0,-64.0,-70.0,89.0,-1.0,0
11.0,-251.0,-67.0,-76.0,94.0,-3.0,0
12.0,-247.0,-69.0,-85.0,101.0,-2.0,0
11.0,-247.0,-67.0,-93.0,105.0,-5.0,0
9.0,-248.0,-69.0,-97.0,107.0,-4.0,0
10.0,-244.0,-68.0,-99.0,106.0,-6.0,0
9.0,-246.0,-62.0,-99.0,102.0,-4.0,0
12.0,-245.0,-67.0,-100.0,98.0,-6.0,0
8.0,-244.0,-68.0,-103.0,93.0,-5.0,0
12.0,-246.0,-71.0,-108.0,89.0,-7.0,0
10.0,-245.0,-71.0,-113.0,85.0,-7.0,0
10.0,-248.0,-70.0,-116.0,80.0,-8.0,0
12.0,-250.0,-68.0,-119.0,76.0,-5.0,0
13.0,-251.0,-69.0,-122.0,73.0,-7.0,0
10.0,-247.0,-72.0,-124.0,70.0,-6.0,0
12.0,-249.0,-68.0,-125.0,70.0,-9.0,0
10.0,-249.0,-73.0,-128.0,71.0,-6.0,0
11.0,-252.0,-71.0,-129.0,71.0,-7.0,0
14.0,-249.0,-71.0,-127.0,71.0,-4.0,0
13.0,-250.0,-68.0,-120.0,73.0,-6.0,0
11.0,-249.0,-67.0,-115.0,75.0,-2.0,0
11.0,-249.0,-71.0,-108.0,77.0,-2.0,0
10.0,-252.0,-68.0,-103.0,78.0,1.0,0
11.0,-251.0,-71.0,-98.0,79.0,-1.0,0
14.0,-252.0,-71.0,-96.0,76.0,1.0,0
13.0,-252.0,-73.0,-96.0,74.0,0.0,0
13.0,-251.0,-70.0,-97.0,73.0,1.0,0
13.0,-249.0,-74.0,-100.0,68.0,-2.0,0
12.0,-251.0,-74.0,-103.0,65.0,0.0,0
11.0,-248.0,-73.0,-103.0,63.0,-2.0,0
11.0,-244.0,-71.0,-104.0,62.0,0.0,0
9.0,-251.0,-71.0,-102.0,60.0,-4.0,0
7.0,-247.0,-67.0,-102.0,60.0,-2.0,0
10.0,-247.0,-71.0,-102.0,61.0,-5.0,0
10.0,-247.0,-70.0,-103.0,62.0,0.0,0
11.0,-248.0,-71.0,-105.0,62.0,-1.0,0
9.0,-249.0,-74.0,-105.0,61.0,1.0,0
10.0,-249.0,-74.0,-106.0,62.0,-1.0,0
11.0,-251.0,-76.0,-102.0,65.0,2.0,0
11.0,-248.0,-77.0,-103.0,69.0,-2.0,0
10.0,-247.0,-78.0,-105.0,72.0,0.0,0
10.0,-247.0,-78.0,-108.0,78.0,-2.0,0
10.0,-248.0,-74.0,-111.0,79.0,-2.0,0
13.0,-248.0,-75.0,-113.0,78.0,-5.0,0
11.0,-248.0,-77.0,-113.0,78.0,-4.0,0
11.0,-248.0,-78.0,-112.0,79.0,-7.0,0
11.0,-248.0,-73.0,-109.0,79.0,-5.0,0
12.0,-247.0,-76.0,-106.0,81.0,-7.0,0
12.0,-246.0,-71.0,-102.0,81.0,-5.0,0
11.0,-247.0,-73.0,-97.0,80.0,-7.0,0
10.0,-248.0,-66.0,-91.0,79.0,-3.0,0
10.0,-249.0,-74.0,-87.0,76.0,-4.0,0
11.0,-248.0,-71.0,-84.0,73.0,0.0,0
10.0,-249.0,-73.0,-84.0,72.0,-3.0,0
8.0,-251.0,-78.0,-85.0,70.0,0.0,0
8.0,-250.0,-73.0,-89.0,65.0,-2.0,0
9.0,-248.0,-72.0,-92.0,60.0,1.0,0
11.0,-252.0,-76.0,-94.0,53.0,-1.0,0
8.0,-250.0,-74.0,-96.0,45.0,0.0,0
8.0,-250.0,-75.0,-96.0,37.0,-3.0,0
11.0,-253.0,-75.0,-96.0,31.0,-2.0,0
6.0,-251.0,-78.0,-96.0,30.0,-3.0,0
9.0,-249.0,-75.0,-92.0,30.0,-1.0,0
7.0,-247.0,-76.0,-89.0,35.0,-2.0,0
10.0,-251.0,-76.0,-85.0,39.0,-1.0,0
9.0,-246.0,-77.0,-81.0,47.0,-3.0,0
10.0,-250.0,-71.0,-80.0,53.0,-2.0,0
11.0,-245.0,-76.0,-80.0,58.0,-2.0,0
7.0,-247.0,-74.0,-81.0,61.0,-2.0,0
10.0,-246.0,-71.0,-80.0,59.0,-3.0,0
10.0,-247.0,-73.0,-79.0,57.0,-3.0,0
11.0,-244.0,-76.0,-75.0,55.0,-7.0,0
13.0,-245.0,-73.0,-71.0,52.0,-5.0,0
14.0,-247.0,-76.0,-68.0,48.0,-7.0,0
13.0,-246.0,-79.0,-63.0,46.0,-5.0,0
13.0,-244.0,-75.0,-57.0,44.0,-4.0,0
15.0,-244.0,-78.0,-53.0,45.0,-1.0,0
11.0,-243.0,-78.0,-52.0,43.0,1.0,0
15.0,-243.0,-75.0,-53.0,40.0,1.0,0
14.0,-245.0,-78.0,-55.0,34.0,3.0,0
12.0,-249.0,-78.0,-59.0,29.0,2.0,0
12.0,-248.0,-78.0,-61.0,23.0,2.0,0
13.0,-248.0,-75.0,-62.0,17.0,2.0,0
13.0,-250.0,-76.0,-61.0,14.0,0.0,0
14.0,-251.0,-78.0,-59.0,14.0,-1.0,0
13.0,-253.0,-76.0,-55.0,16.0,-3.0,0
10.0,-251.0,-74.0,-50.0,19.0,-2.0,0
11.0,-252.0,-77.0,-44.0,21.0,-3.0,0
13.0,-250.0,-74.0,-36.0,23.0,-4.0,0
12.0,-250.0,-71.0,-28.0,27.0,-4.0,0
13.0,-250.0,-73.0,-20.0,28.0,-5.0,0
13.0,-254.0,-70.0,-11.0,30.0,-7.0,0
13.0,-249.0,-74.0,-4.0,34.0,-7.0,0
16.0,-250.0,-67.0,0.0,38.0,-7.0,0
15.0,-248.0,-68.0,4.0,45.0,-7.0,0
16.0,-252.0,-74.0,4.0,51.0,-6.0,0
16.0,-246.0,-75.0,0.0,55.0,-8.0,0
18.0,-249.0,-73.0,-6.0,56.0,-5.0,0
16.0,-244.0,-75.0,-15.0,58.0,-7.0,0
18.0,-247.0,-73.0,-23.0,61.0,-5.0,0
17.0,-246.0,-73.0,-31.0,62.0,-5.0,0
16.0,-246.0,-74.0,-39.0,59.0,-2.0,0
14.0,-244.0,-74.0,-46.0,55.0,-2.0,0
17.0,-249.0,-72.0,-49.0,53.0,0.0,0
17.0,-247.0,-75.0,-55.0,49.0,0.0,0
11.0,-248.0,-73.0,-56.0,45.0,2.0,0
10.0,-245.0,-75.0,-52.0,44.0,2.0,0
12.0,-247.0,-74.0,-48.0,42.0,2.0,0
13.0,-246.0,-77.0,-44.0,42.0,1.0,0
14.0,-248.0,-75.0,-40.0,41.0,1.0,0
13.0,-246.0,-75.0,-37.0,40.0,-2.0,0
12.0,-248.0,-77.0,-37.0,42.0,0.0,0
9.0,-250.0,-72.0,-34.0,44.0,-4.0,0
12.0,-247.0,-80.0,-32.0,48.0,-3.0,0
12.0,-248.0,-77.0,-29.0,51.0,-5.0,0
11.0,-246.0,-77.0,-27.0,55.0,-4.0,0
15.0,-249.0,-78.0,-27.0,59.0,-7.0,0
10.0,-247.0,-77.0,-23.0,62.0,-5.0,0
13.0,-249.0,-75.0,-23.0,64.0,-7.0,0
14.0,-248.0,-77.0,-21.0,61.0,-7.0,0
12.0,-247.0,-78.0,-19.0,60.0,-9.0,0
17.0,-247.0,-72.0,-17.0,60.0,-6.0,0
13.0,-244.0,-77.0,-14.0,57.0,-9.0,0
14.0,-247.0,-81.0,-10.0,54.0,-7.0,0
13.0,-248.0,-77.0,-6.0,50.0,-7.0,0
15.0,-249.0,-76.0,-2.0,48.0,-4.0,0
13.0,-247.0,-73.0,2.0,44.0,-6.0,0
12.0,-247.0,-75.0,2.0,40.0,-3.0,0
14.0,-248.0,-75.0,3.0,36.0,-4.0,0
13.0,-249.0,-73.0,4.0,32.0,-2.0,0
16.0,-249.0,-76.0,5.0,29.0,-5.0,0
9.0,-245.0,-76.0,7.0,26.0,-2.0,0
11.0,-246.0,-77.0,6.0,25.0,-3.0,0
12.0,-246.0,-76.0,9.0,26.0,-2.0,0
13.0,-247.0,-77.0,6.0,27.0,-5.0,0
13.0,-246.0,-75.0,5.0,26.0,-3.0,0
14.0,-248.0,-75.0,4.0,27.0,-7.0,0
12.0,-247.0,-71.0,1.0,26.0,-6.0,0
12.0,-244.0,-74.0,-1.0,25.0,-10.0,0
13.0,-244.0,-71.0,-5.0,24.0,-10.0,0
12.0,-242.0,-73.0,-8.0,24.0,-15.0,0
9.0,-244.0,-71.0,-9.0,23.0,-14.0,0
10.0,-246.0,-71.0,-7.0,23.0,-16.0,0
11.0,-244.0,-70.0,-6.0,26.0,-14.0,0
12.0,-244.0,-72.0,-4.0,32.0,-19.0,0
11.0,-243.0,-69.0,-7.0,39.0,-17.0,0
12.0,-248.0,-73.0,-12.0,43.0,-19.0,0
12.0,-244.0,-76.0,-17.0,47.0,-16.0,0
10.0,-248.0,-72.0,-24.0,49.0,-18.0,0
11.0,-248.0,-74.0,-28.0,51.0,-15.0,0
13.0,-249.0,-78.0,-32.0,50.0,-16.0,0
13.0,-249.0,-76.0,-33.0,48.0,-13.0,0
14.0,-254.0,-78.0,-33.0,47.0,-14.0,0
11.0,-250.0,-78.0,-28.0,43.0,-8.0,0
13.0,-252.0,-73.0,-24.0,41.0,-10.0,0
14.0,-250.0,-75.0,-19.0,38.0,-6.0,0
13.0,-250.0,-75.0,-16.0,36.0,-6.0,0
11.0,-246.0,-76.0,-11.0,35.0,-3.0,0
12.0,-247.0,-73.0,-8.0,36.0,-4.0,0
13.0,-245.0,-73.0,-8.0,33.0,-1.0,0
15.0,-246.0,-74.0,-5.0,34.0,-2.0,0
11.0,-245.0,-74.0,-4.0,33.0,0.0,0
11.0,-242.0,-71.0,-5.0,32.0,-2.0,0
10.0,-243.0,-73.0,-6.0,30.0,-1.0,0
14.0,-245.0,-73.0,-6.0,30.0,-5.0,0
13.0,-244.0,-72.0,-9.0,29.0,-3.0,0
10.0,-246.0,-77.0,-12.0,30.0,-7.0,0
13.0,-247.0,-73.0,-13.0,31.0,-6.0,0
11.0,-245.0,-74.0,-16.0,31.0,-8.0,0
11.0,-246.0,-78.0,-17.0,33.0,-7.0,0
12.0,-250.0,-72.0,-15.0,34.0,-10.0,0
11.0,-246.0,-76.0,-13.0,37.0,-10.0,0
13.0,-250.0,-77.0,-13.0,41.0,-10.0,0
14.0,-248.0,-77.0,-13.0,45.0,-10.0,0
11.0,-250.0,-80.0,-16.0,50.0,-12.0,0
15.0,-246.0,-75.0,-18.0,52.0,-10.0,0
12.0,-249.0,-79.0,-23.0,54.0,-11.0,0
13.0,-248.0,-75.0,-24.0,56.0,-10.0,0
12.0,-246.0,-76.0,-25.0,53.0,-10.0,0
14.0,-247.0,-75.0,-25.0,52.0,-9.0,0
12.0,-247.0,-75.0,-26.0,51.0,-9.0,0
10.0,-246.0,-74.0,-27.0,48.0,-7.0,0
11.0,-246.0,-74.0,-27.0,46.0,-6.0,0
12.0,-246.0,-77.0,-26.0,46.0,-6.0,0
10.0,-245.0,-78.0,-27.0,44.0,-5.0,0
11.0,-248.0,-76.0,-25.0,43.0,-4.0,0
14.0,-247.0,-75.0,-26.0,45.0,-4.0,0
13.0,-244.0,-73.0,-25.0,45.0,-3.0,0
9.0,-246.0,-76.0,-23.0,46.0,-4.0,0
12.0,-244.0,-72.0,-22.0,47.0,-4.0,0
10.0,-245.0,-79.0,-23.0,46.0,-5.0,0
11.0,-244.0,-75.0,-24.0,46.0,-6.0,0
16.0,-246.0,-75.0,-26.0,45.0,-6.0,0
10.0,-244.0,-75.0,-33.0,45.0,-7.0,0
12.0,-243.0,-78.0,-37.0,45.0,-6.0,0
13.0,-244.0,-77.0,-42.0,42.0,-6.0,0
12.0,-245.0,-80.0,-47.0,41.0,-7.0,0
9.0,-243.0,-73.0,-48.0,41.0,-8.0,0
15.0,-249.0,-74.0,-47.0,40.0,-9.0,0
13.0,-251.0,-74.0,-42.0,42.0,-8.0,0
13.0,-249.0,-74.0,-36.0,44.0,-7.0,0
10.0,-248.0,-76.0,-28.0,46.0,-7.0,0
11.0,-250.0,-73.0,-22.0,48.0,-6.0,0
11.0,-245.0,-76.0,-18.0,49.0,-7.0,0
12.0,-249.0,-73.0,-17.0,48.0,-6.0,0
12.0,-247.0,-77.0,-18.0,49.0,-6.0,0
8.0,-245.0,-79.0,-22.0,47.0,-5.0,0
11.0,-249.0,-80.0,-25.0,45.0,-5.0,0
11.0,-249.0,-78.0,-28.0,43.0,-5.0,0
12.0,-247.0,-78.0,-29.0,44.0,-5.0,0
10.0,-246.0,-79.0,-30.0,46.0,-3.0,0
13.0,-247.0,-75.0,-28.0,46.0,-4.0,0
12.0,-247.0,-78.0,-26.0,49.0,-2.0,0
12.0,-247.0,-79.0,-24.0,51.0,-4.0,0
12.0,-245.0,-71.0,-22.0,51.0,-1.0,0
13.0,-246.0,-72.0,-22.0,53.0,-2.0,0
12.0,-244.0,-73.0,-22.0,54.0,1.0,0
10.0,-244.0,-74.0,-23.0,55.0,-1.0,0
9.0,-245.0,-72.0,-25.0,56.0,0.0,0
10.0,-243.0,-75.0,-29.0,57.0,-2.0,0
6.0,-242.0,-76.0,-33.0,59.0,1.0,0
10.0,-242.0,-72.0,-36.0,60.0,0.0,0
10.0,-246.0,-75.0,-41.0,58.0,1.0,0
13.0,-249.0,-73.0,-42.0,56.0,-1.0,0
13.0,-247.0,-78.0,-46.0,53.0,0.0,0
12.0,-247.0,-76.0,-47.0,50.0,-3.0,0
12.0,-248.0,-75.0,-50.0,47.0,-2.0,0
10.0,-248.0,-72.0,-51.0,45.0,-4.0,0
11.0,-246.0,-79.0,-53.0,43.0,-4.0,0
13.0,-247.0,-76.0,-54.0,44.0,-6.0,0
11.0,-247.0,-79.0,-55.0,47.0,-4.0,0
12.0,-248.0,-74.0,-53.0,47.0,-6.0,0
12.0,-245.0,-78.0,-51.0,48.0,-2.0,0
12.0,-248.0,-77.0,-49.0,49.0,-5.0,0
10.0,-248.0,-77.0,-43.0,50.0,-1.0,0
11.0,-247.0,-74.0,-39.0,52.0,-3.0,0
10.0,-246.0,-80.0,-33.0,52.0,-1.0,0
12.0,-247.0,-75.0,-31.0,52.0,-2.0,0
15.0,-248.0,-77.0,-26.0,52.0,1.0,0
11.0,-249.0,-75.0,-23.0,50.0,1.0,0
11.0,-249.0,-79.0,-21.0,49.0,3.0,0
11.0,-251.0,-77.0,-20.0,48.0,1.0,0
15.0,-249.0,-78.0,-19.0,46.0,3.0,0
15.0,-250.0,-77.0,-21.0,44.0,2.0,0
12.0,-247.0,-74.0,-23.0,43.0,3.0,0
13.0,-245.0,-79.0,-24.0,42.0,1.0,0
11.0,-247.0,-76.0,-25.0,42.0,3.0,0
13.0,-247.0,-74.0,-25.0,42.0,1.0,0
12.0,-247.0,-81.0,-22.0,43.0,2.0,0
11.0,-248.0,-78.0,-18.0,44.0,0.0,0
14.0,-248.0,-76.0,-15.0,46.0,4.0,0
10.0,-244.0,-79.0,-14.0,47.0,3.0,0
13.0,-246.0,-74.0,-14.0,50.0,5.0,0
13.0,-245.0,-77.0,-15.0,49.0,3.0,0
11.0,-247.0,-79.0,-16.0,51.0,4.0,0
15.0,-247.0,-74.0,-17.0,50.0,1.0,0
9.0,-244.0,-76.0,-18.0,51.0,4.0,0
9.0,-245.0,-74.0,-18.0,50.0,0.0,0
9.0,-247.0,-76.0,-18.0,48.0,2.0,0
10.0,-244.0,-76.0,-19.0,47.0,1.0,0
13.0,-249.0,-77.0,-20.0,46.0,3.0,0
13.0,-245.0,-76.0,-18.0,47.0,0.0,0
9.0,-247.0,-71.0,-18.0,46.0,2.0,0
10.0,-246.0,-73.0,-19.0,46.0,-1.0,0
11.0,-247.0,-76.0,-21.0,47.0,1.0,0
13.0,-247.0,-77.0,-24.0,48.0,-1.0,0
10.0,-246.0,-79.0,-26.0,50.0,1.0,0
11.0,-246.0,-79.0,-28.0,51.0,-2.0,0
10.0,-241.0,-79.0,-30.0,51.0,1.0,0
11.0,-245.0,-79.0,-33.0,52.0,-1.0,0
14.0,-245.0,-78.0,-35.0,51.0,0.0,0
11.0,-244.0,-81.0,-35.0,52.0,-1.0,0
11.0,-244.0,-82.0,-34.0,50.0,1.0,0
12.0,-244.0,-80.0,-32.0,49.0,-2.0,0
9.0,-243.0,-76.0,-31.0,48.0,-1.0,0
12.0,-246.0,-78.0,-31.0,45.0,-2.0,0
9.0,-244.0,-77.0,-31.0,43.0,-1.0,0
14.0,-249.0,-77.0,-33.0,41.0,-2.0,0
14.0,-248.0,-77.0,-31.0,42.0,1.0,0
12.0,-245.0,-76.0,-31.0,43.0,1.0,0
8.0,-246.0,-73.0,-31.0,44.0,3.0,0
10.0,-247.0,-78.0,-31.0,45.0,1.0,0
11.0,-249.0,-78.0,-32.0,47.0,3.0,0
11.0,-250.0,-79.0,-33.0,46.0,2.0,0
11.0,-248.0,-82.0,-36.0,46.0,2.0,0
8.0,-248.0,-76.0,-38.0,46.0,2.0,0
10.0,-247.0,-75.0,-41.0,45.0,2.0,0
8.0,-246.0,-76.0,-41.0,44.0,2.0,0
11.0,-246.0,-77.0,-39.0,46.0,3.0,0
10.0,-245.0,-76.0,-36.0,47.0,2.0,0
12.0,-247.0,-76.0,-31.0,48.0,3.0,0
13.0,-247.0,-78.0,-30.0,50.0,2.0,0
10.0,-243.0,-79.0,-28.0,51.0,5.0,0
11.0,-244.0,-78.0,-27.0,52.0,4.0,0
10.0,-240.0,-76.0,-28.0,52.0,4.0,0
