ax,ay,az,gx,gy,gz,label
21.0,-274.0,-41.0,-5.0,87.0,-2.0,0
19.0,-272.0,-39.0,-4.0,86.0,-4.0,0
17.0,-269.0,-41.0,-3.0,86.0,-2.0,0
24.0,-273.0,-36.0,-4.0,86.0,-2.0,0
20.0,-272.0,-39.0,-2.0,84.0,1.0,0
24.0,-272.0,-41.0,-1.0,83.0,-1.0,0
18.0,-269.0,-34.0,1.0,83.0,3.0,0
19.0,-271.0,-41.0,3.0,83.0,1.0,0
19.0,-273.0,-39.0,3.0,82.0,4.0,0
20.0,-271.0,-39.0,4.0,81.0,2.0,0
20.0,-272.0,-43.0,4.0,80.0,3.0,0
20.0,-274.0,-43.0,7.0,81.0,2.0,0
19.0,-271.0,-34.0,10.0,81.0,3.0,0
20.0,-271.0,-37.0,15.0,81.0,3.0,0
16.0,-270.0,-40.0,19.0,81.0,5.0,0
16.0,-272.0,-37.0,23.0,80.0,2.0,0
19.0,-270.0,-38.0,24.0,78.0,4.0,0
21.0,-269.0,-39.0,26.0,77.0,3.0,0
18.0,-267.0,-43.0,26.0,75.0,4.0,0
20.0,-268.0,-36.0,25.0,74.0,2.0,0
20.0,-270.0,-38.0,23.0,72.0,4.0,0
19.0,-267.0,-40.0,21.0,71.0,1.0,0
8.0,-272.0,-42.0,18.0,69.0,2.0,0
9.0,-274.0,-33.0,17.0,71.0,-1.0,0
17.0,-266.0,-43.0,16.0,71.0,0.0,0
22.0,-273.0,-49.0,17.0,73.0,-1.0,0
16.0,-272.0,-47.0,15.0,74.0,0.0,0
15.0,-270.0,-38.0,15.0,74.0,-2.0,0
12.0,-273.0,-43.0,15.0,75.0,-1.0,0
15.0,-262.0,-35.0,14.0,73.0,-2.0,0
17.0,-268.0,-46.0,14.0,73.0,-2.0,0
14.0,-272.0,-39.0,12.0,73.0,-3.0,0
29.0,-256.0,-47.0,12.0,73.0,-1.0,0
25.0,-264.0,-37.0,9.0,74.0,-3.0,0
17.0,-269.0,-41.0,9.0,74.0,-1.0,0
23.0,-267.0,-36.0,11.0,75.0,-1.0,0
21.0,-272.0,-40.0,13.0,74.0,0.0,0
21.0,-266.0,-56.0,13.0,72.0,-1.0,0
22.0,-260.0,-42.0,13.0,71.0,1.0,0
23.0,-261.0,-23.0,12.0,70.0,1.0,0
19.0,-267.0,-43.0,11.0,70.0,2.0,0
19.0,-268.0,-36.0,10.0,73.0,1.0,0
20.0,-271.0,-37.0,11.0,75.0,0.0,0
20.0,-272.0,-35.0,12.0,76.0,-1.0,0
19.0,-269.0,-43.0,14.0,75.0,0.0,0
18.0,-270.0,-36.0,18.0,75.0,-1.0,0
18.0,-273.0,-39.0,21.0,74.0,1.0,0
22.0,-272.0,-39.0,23.0,73.0,-2.0,0
20.0,-272.0,-37.0,24.0,70.0,-1.0,0
19.0,-272.0,-35.0,23.0,65.0,-3.0,0
19.0,-272.0,-37.0,23.0,62.0,0.0,0
17.0,-271.0,-37.0,21.0,59.0,-3.0,0
18.0,-273.0,-39.0,20.0,55.0,-2.0,0
20.0,-269.0,-39.0,18.0,54.0,-3.0,0
20.0,-270.0,-40.0,16.0,52.0,-2.0,0
19.0,-272.0,-35.0,17.0,49.0,0.0,0
19.0,-270.0,-39.0,18.0,46.0,1.0,0
21.0,-271.0,-40.0,20.0,44.0,0.0,0
23.0,-270.0,-37.0,22.0,40.0,3.0,0
18.0,-272.0,-37.0,23.0,38.0,3.0,0
19.0,-270.0,-36.0,24.0,37.0,4.0,0
20.0,-269.0,-38.0,24.0,35.0,3.0,0
20.0,-270.0,-36.0,23.0,31.0,5.0,0
23.0,-271.0,-38.0,23.0,31.0,3.0,0
21.0,-270.0,-40.0,23.0,30.0,6.0,0
18.0,-268.0,-41.0,25.0,30.0,4.0,0
19.0,-270.0,-36.0,28.0,32.0,5.0,0
20.0,-271.0,-39.0,29.0,31.0,4.0,0
19.0,-271.0,-38.0,31.0,29.0,5.0,0
20.0,-270.0,-36.0,33.0,28.0,4.0,0
18.0,-274.0,-39.0,34.0,26.0,5.0,0
20.0,-269.0,-40.0,35.0,24.0,2.0,0
20.0,-270.0,-39.0,35.0,23.0,2.0,0
20.0,-269.0,-35.0,34.0,21.0,4.0,0
22.0,-267.0,-37.0,34.0,20.0,3.0,0
21.0,-266.0,-33.0,31.0,19.0,2.0,0
20.0,-268.0,-33.0,30.0,20.0,3.0,0
20.0,-266.0,-36.0,25.0,21.0,3.0,0
19.0,-268.0,-34.0,23.0,20.0,4.0,0
18.0,-268.0,-36.0,20.0,19.0,1.0,0
21.0,-270.0,-34.0,19.0,20.0,2.0,0
21.0,-271.0,-41.0,17.0,21.0,2.0,0
20.0,-269.0,-37.0,13.0,24.0,2.0,0
22.0,-269.0,-35.0,13.0,27.0,1.0,0
19.0,-269.0,-37.0,13.0,27.0,1.0,0
21.0,-268.0,-35.0,13.0,28.0,1.0,0
19.0,-272.0,-32.0,11.0,29.0,0.0,0
20.0,-267.0,-33.0,10.0,30.0,0.0,0
21.0,-273.0,-37.0,9.0,29.0,2.0,0
20.0,-270.0,-35.0,7.0,27.0,0.0,0
24.0,-272.0,-35.0,6.0,26.0,0.0,0
22.0,-272.0,-41.0,5.0,25.0,-1.0,0
21.0,-270.0,-33.0,4.0,27.0,0.0,0
21.0,-268.0,-34.0,4.0,28.0,0.0,0
20.0,-269.0,-33.0,1.0,27.0,0.0,0
21.0,-269.0,-33.0,-1.0,28.0,1.0,0
21.0,-271.0,-31.0,0.0,27.0,2.0,0
21.0,-268.0,-35.0,-2.0,28.0,2.0,0
20.0,-269.0,-36.0,-2.0,28.0,2.0,0
19.0,-271.0,-34.0,-2.0,29.0,1.0,0
22.0,-272.0,-33.0,-1.0,28.0,0.0,0
21.0,-268.0,-33.0,2.0,27.0,2.0,0
21.0,-269.0,-32.0,2.0,29.0,1.0,0
21.0,-274.0,-33.0,2.0,28.0,0.0,0
20.0,-270.0,-33.0,5.0,30.0,-1.0,0
20.0,-272.0,-30.0,3.0,31.0,1.0,0
21.0,-269.0,-30.0,4.0,34.0,-1.0,0
24.0,-271.0,-32.0,3.0,35.0,-3.0,0
24.0,-272.0,-32.0,3.0,36.0,-2.0,0
20.0,-272.0,-29.0,6.0,37.0,-3.0,0
20.0,-270.0,-32.0,8.0,38.0,-3.0,0
22.0,-269.0,-30.0,8.0,37.0,-3.0,0
24.0,-271.0,-31.0,9.0,38.0,-3.0,0
24.0,-269.0,-31.0,10.0,39.0,-4.0,0
23.0,-269.0,-29.0,7.0,40.0,-5.0,0
22.0,-268.0,-31.0,6.0,42.0,-3.0,0
22.0,-270.0,-34.0,5.0,42.0,-3.0,0
22.0,-270.0,-30.0,2.0,42.0,-3.0,0
23.0,-271.0,-26.0,1.0,42.0,-3.0,0
21.0,-269.0,-29.0,0.0,45.0,-3.0,0
21.0,-273.0,-28.0,1.0,45.0,-3.0,0
20.0,-271.0,-31.0,0.0,47.0,-3.0,0
20.0,-268.0,-30.0,1.0,48.0,-2.0,0
20.0,-270.0,-34.0,2.0,48.0,-2.0,0
23.0,-274.0,-32.0,2.0,46.0,-3.0,0
21.0,-272.0,-32.0,3.0,44.0,-1.0,0
20.0,-270.0,-30.0,5.0,45.0,-1.0,0
20.0,-268.0,-31.0,7.0,45.0,-2.0,0
22.0,-273.0,-29.0,6.0,44.0,-4.0,0
22.0,-271.0,-30.0,11.0,44.0,1.0,0
23.0,-272.0,-27.0,14.0,45.0,1.0,0
22.0,-269.0,-30.0,15.0,44.0,3.0,0
24.0,-270.0,-27.0,15.0,43.0,2.0,0
22.0,-272.0,-31.0,17.0,43.0,3.0,0
22.0,-274.0,-27.0,16.0,44.0,3.0,0
21.0,-272.0,-31.0,15.0,46.0,2.0,0
22.0,-270.0,-28.0,14.0,47.0,0.0,0
23.0,-268.0,-31.0,14.0,48.0,0.0,0
21.0,-271.0,-28.0,15.0,51.0,-2.0,0
20.0,-269.0,-32.0,14.0,52.0,-1.0,0
23.0,-269.0,-29.0,15.0,53.0,0.0,0
23.0,-268.0,-31.0,14.0,52.0,-1.0,0
22.0,-268.0,-29.0,11.0,51.0,-2.0,0
25.0,-269.0,-26.0,9.0,54.0,-1.0,0
23.0,-270.0,-29.0,7.0,55.0,-1.0,0
21.0,-268.0,-29.0,6.0,55.0,-2.0,0
21.0,-268.0,-34.0,5.0,57.0,-4.0,0
20.0,-272.0,-35.0,3.0,59.0,-2.0,0
21.0,-269.0,-30.0,2.0,62.0,-4.0,0
22.0,-270.0,-30.0,0.0,60.0,-3.0,0
19.0,-269.0,-32.0,-3.0,61.0,-5.0,0
22.0,-268.0,-29.0,-5.0,61.0,-3.0,0
22.0,-268.0,-28.0,-8.0,63.0,-3.0,0
23.0,-270.0,-32.0,-9.0,64.0,-3.0,0
23.0,-270.0,-33.0,-12.0,65.0,-5.0,0
23.0,-269.0,-33.0,-14.0,66.0,-2.0,0
20.0,-268.0,-35.0,-15.0,67.0,-5.0,0
22.0,-270.0,-30.0,-15.0,70.0,-2.0,0
24.0,-273.0,-27.0,-16.0,67.0,-4.0,0
20.0,-271.0,-29.0,-16.0,68.0,-2.0,0
19.0,-271.0,-33.0,-16.0,66.0,-4.0,0
19.0,-270.0,-32.0,-15.0,66.0,-1.0,0
21.0,-266.0,-32.0,-15.0,66.0,-4.0,0
22.0,-270.0,-30.0,-15.0,68.0,-2.0,0
21.0,-270.0,-36.0,-16.0,71.0,-4.0,0
20.0,-269.0,-32.0,-15.0,73.0,-3.0,0
21.0,-268.0,-28.0,-14.0,77.0,-4.0,0
21.0,-270.0,-28.0,-12.0,77.0,-2.0,0
20.0,-273.0,-31.0,-14.0,77.0,-4.0,0
22.0,-269.0,-32.0,-15.0,78.0,-4.0,0
21.0,-271.0,-32.0,-14.0,79.0,-5.0,0
20.0,-271.0,-28.0,-14.0,78.0,-3.0,0
17.0,-269.0,-31.0,-14.0,77.0,-4.0,0
21.0,-272.0,-33.0,-14.0,76.0,-4.0,0
20.0,-269.0,-30.0,-14.0,77.0,-4.0,0
18.0,-271.0,-28.0,-14.0,78.0,-3.0,0
22.0,-269.0,-38.0,-15.0,79.0,-5.0,0
22.0,-274.0,-32.0,-14.0,77.0,-5.0,0
30.0,-263.0,-26.0,-14.0,76.0,-6.0,0
20.0,-270.0,-27.0,-15.0,77.0,-5.0,0
26.0,-265.0,-32.0,-12.0,76.0,-7.0,0
19.0,-272.0,-24.0,-11.0,75.0,-3.0,0
16.0,-272.0,-32.0,-8.0,75.0,-5.0,0
27.0,-265.0,-33.0,-6.0,76.0,-3.0,0
21.0,-261.0,-27.0,-5.0,77.0,-5.0,0
13.0,-267.0,-29.0,-5.0,78.0,-3.0,0
22.0,-265.0,-31.0,-5.0,79.0,-4.0,0
19.0,-270.0,-27.0,-4.0,78.0,-3.0,0
20.0,-270.0,-28.0,-4.0,77.0,-5.0,0
34.0,-268.0,-22.0,-4.0,77.0,-3.0,0
7.0,-263.0,-30.0,-5.0,76.0,-4.0,0
23.0,-270.0,-45.0,-4.0,75.0,-2.0,0
17.0,-269.0,-34.0,-3.0,74.0,-4.0,0
26.0,-268.0,-35.0,-1.0,74.0,-2.0,0
20.0,-271.0,-33.0,-1.0,73.0,-3.0,0
21.0,-272.0,-34.0,-1.0,72.0,0.0,0
22.0,-269.0,-29.0,0.0,74.0,-3.0,0
21.0,-272.0,-32.0,0.0,76.0,0.0,0
31.0,-273.0,-34.0,-1.0,75.0,-3.0,0
17.0,-271.0,-35.0,-4.0,76.0,-1.0,0
28.0,-271.0,-26.0,-5.0,76.0,-3.0,0
16.0,-271.0,-36.0,-4.0,74.0,-1.0,0
21.0,-270.0,-42.0,-3.0,74.0,-2.0,0
25.0,-273.0,-25.0,-4.0,74.0,0.0,0
23.0,-264.0,-27.0,-2.0,75.0,-3.0,0
20.0,-274.0,-37.0,0.0,75.0,-1.0,0
18.0,-268.0,-31.0,0.0,75.0,-3.0,0
9.0,-276.0,-34.0,-1.0,75.0,-1.0,0
20.0,-268.0,-33.0,-1.0,76.0,-4.0,0
23.0,-261.0,-25.0,-2.0,75.0,0.0,0
21.0,-272.0,-40.0,-5.0,74.0,-3.0,0
22.0,-265.0,-34.0,-4.0,74.0,0.0,0
21.0,-275.0,-31.0,-3.0,73.0,-3.0,0
19.0,-267.0,-51.0,-4.0,74.0,-1.0,0
19.0,-265.0,-29.0,-3.0,74.0,-2.0,0
21.0,-273.0,-31.0,-1.0,73.0,0.0,0
20.0,-269.0,-36.0,-2.0,72.0,-3.0,0
22.0,-272.0,-32.0,-2.0,74.0,-1.0,0
21.0,-270.0,-33.0,-3.0,74.0,-4.0,0
22.0,-271.0,-32.0,-4.0,73.0,-3.0,0
19.0,-270.0,-33.0,-4.0,73.0,-5.0,0
21.0,-266.0,-37.0,-4.0,73.0,-4.0,0
22.0,-269.0,-36.0,-7.0,70.0,-6.0,0
19.0,-269.0,-34.0,-10.0,69.0,-4.0,0
27.0,-270.0,-23.0,-11.0,69.0,-7.0,0
20.0,-269.0,-27.0,-13.0,71.0,-4.0,0
18.0,-269.0,-37.0,-15.0,72.0,-5.0,0
9.0,-279.0,-39.0,-17.0,72.0,-4.0,0
4.0,-273.0,-29.0,-17.0,72.0,-5.0,0
19.0,-259.0,-41.0,-14.0,75.0,-3.0,0
16.0,-272.0,-45.0,-14.0,73.0,-5.0,0
12.0,-277.0,-36.0,-13.0,73.0,-2.0,0
21.0,-269.0,-39.0,-12.0,73.0,-4.0,0
22.0,-273.0,-37.0,-8.0,72.0,-2.0,0
28.0,-272.0,-32.0,-7.0,72.0,-3.0,0
13.0,-274.0,-36.0,-5.0,71.0,-1.0,0
11.0,-277.0,-24.0,-3.0,70.0,-4.0,0
17.0,-259.0,-37.0,0.0,66.0,0.0,0
26.0,-268.0,-41.0,0.0,66.0,-4.0,0
25.0,-266.0,-40.0,1.0,64.0,-1.0,0
18.0,-269.0,-34.0,2.0,65.0,-2.0,0
17.0,-272.0,-35.0,2.0,64.0,2.0,0
21.0,-271.0,-34.0,3.0,64.0,0.0,0
15.0,-268.0,-33.0,3.0,64.0,2.0,0
16.0,-274.0,-28.0,5.0,65.0,-2.0,0
29.0,-274.0,-21.0,6.0,65.0,1.0,0
13.0,-275.0,-35.0,6.0,64.0,-2.0,0
20.0,-274.0,-43.0,7.0,63.0,1.0,0
21.0,-270.0,-24.0,8.0,63.0,-1.0,0
26.0,-264.0,-34.0,9.0,62.0,1.0,0
19.0,-271.0,-41.0,8.0,63.0,-1.0,0
24.0,-274.0,-35.0,9.0,61.0,2.0,0
19.0,-269.0,-32.0,6.0,62.0,-1.0,0
20.0,-269.0,-35.0,5.0,64.0,3.0,0
16.0,-272.0,-37.0,4.0,66.0,-1.0,0
20.0,-273.0,-27.0,2.0,66.0,2.0,0
13.0,-270.0,-30.0,2.0,66.0,-1.0,0
16.0,-273.0,-42.0,2.0,66.0,1.0,0
23.0,-264.0,-34.0,0.0,65.0,-4.0,0
25.0,-268.0,-32.0,-1.0,64.0,0.0,0
21.0,-269.0,-36.0,-2.0,66.0,-2.0,0
20.0,-269.0,-34.0,-2.0,65.0,0.0,0
21.0,-270.0,-34.0,-3.0,64.0,-2.0,0
19.0,-269.0,-30.0,-1.0,64.0,0.0,0
21.0,-269.0,-32.0,-2.0,64.0,-2.0,0
18.0,-269.0,-30.0,-3.0,63.0,0.0,0
20.0,-268.0,-34.0,-5.0,61.0,-2.0,0
19.0,-267.0,-29.0,-9.0,60.0,0.0,0
19.0,-270.0,-31.0,-12.0,60.0,-3.0,0
22.0,-272.0,-37.0,-15.0,60.0,-1.0,0
20.0,-272.0,-26.0,-15.0,60.0,-3.0,0
22.0,-280.0,-33.0,-18.0,63.0,-1.0,0
20.0,-275.0,-27.0,-19.0,63.0,-2.0,0
24.0,-275.0,-19.0,-20.0,63.0,2.0,0
19.0,-273.0,-28.0,-21.0,63.0,-2.0,0
20.0,-266.0,-28.0,-21.0,62.0,-2.0,0
12.0,-276.0,-29.0,-22.0,62.0,-4.0,0
25.0,-270.0,-20.0,-25.0,61.0,-1.0,0
17.0,-272.0,-32.0,-24.0,59.0,-3.0,0
13.0,-275.0,-25.0,-23.0,59.0,-2.0,0
19.0,-262.0,-34.0,-23.0,61.0,-3.0,0
21.0,-274.0,-31.0,-21.0,61.0,-2.0,0
22.0,-265.0,-39.0,-20.0,63.0,-5.0,0
17.0,-268.0,-23.0,-21.0,61.0,-2.0,0
25.0,-271.0,-32.0,-19.0,62.0,-4.0,0
21.0,-271.0,-30.0,-16.0,59.0,-1.0,0
16.0,-271.0,-33.0,-14.0,59.0,-3.0,0
16.0,-269.0,-32.0,-9.0,61.0,0.0,0
19.0,-273.0,-31.0,-8.0,61.0,-5.0,0
20.0,-272.0,-30.0,-6.0,63.0,-3.0,0
22.0,-274.0,-27.0,-3.0,64.0,-5.0,0
21.0,-272.0,-28.0,-1.0,64.0,-4.0,0
19.0,-270.0,-26.0,1.0,65.0,-6.0,0
16.0,-271.0,-26.0,2.0,62.0,-4.0,0
17.0,-269.0,-26.0,-1.0,61.0,-7.0,0
19.0,-272.0,-25.0,-3.0,58.0,-4.0,0
19.0,-267.0,-24.0,-7.0,60.0,-7.0,0
19.0,-270.0,-26.0,-10.0,59.0,-4.0,0
20.0,-270.0,-28.0,-13.0,59.0,-7.0,0
22.0,-270.0,-28.0,-15.0,59.0,-4.0,0
20.0,-268.0,-27.0,-17.0,58.0,-7.0,0
19.0,-270.0,-25.0,-19.0,60.0,-5.0,0
19.0,-269.0,-27.0,-21.0,60.0,-8.0,0
22.0,-271.0,-25.0,-25.0,59.0,-5.0,0
22.0,-269.0,-29.0,-29.0,59.0,-7.0,0
22.0,-273.0,-28.0,-32.0,62.0,-5.0,0
22.0,-270.0,-26.0,-37.0,64.0,-8.0,0
20.0,-271.0,-30.0,-40.0,66.0,-7.0,0
22.0,-270.0,-27.0,-43.0,66.0,-8.0,0
20.0,-273.0,-28.0,-44.0,65.0,-8.0,0
21.0,-269.0,-32.0,-47.0,68.0,-10.0,0
19.0,-270.0,-30.0,-48.0,67.0,-10.0,0
19.0,-274.0,-28.0,-48.0,66.0,-10.0,0
20.0,-269.0,-30.0,-47.0,65.0,-9.0,0
21.0,-273.0,-27.0,-47.0,64.0,-11.0,0
20.0,-270.0,-29.0,-47.0,63.0,-9.0,0
21.0,-269.0,-29.0,-48.0,64.0,-12.0,0
22.0,-270.0,-34.0,-50.0,63.0,-10.0,0
22.0,-269.0,-28.0,-52.0,63.0,-12.0,0
19.0,-271.0,-30.0,-52.0,65.0,-9.0,0
19.0,-271.0,-35.0,-55.0,65.0,-10.0,0
22.0,-270.0,-30.0,-58.0,65.0,-9.0,0
20.0,-269.0,-29.0,-58.0,64.0,-11.0,0
22.0,-271.0,-31.0,-61.0,64.0,-10.0,0
21.0,-271.0,-30.0,-61.0,63.0,-10.0,0
15.0,-272.0,-36.0,-62.0,64.0,-9.0,0
23.0,-269.0,-34.0,-62.0,66.0,-10.0,0
25.0,-268.0,-18.0,-60.0,67.0,-8.0,0
24.0,-265.0,-37.0,-59.0,66.0,-10.0,0
21.0,-275.0,-40.0,-56.0,66.0,-8.0,0
14.0,-274.0,-41.0,-56.0,67.0,-8.0,0
37.0,-267.0,-21.0,-54.0,68.0,-7.0,0
25.0,-275.0,-42.0,-49.0,71.0,-8.0,0
20.0,-267.0,-35.0,-45.0,71.0,-6.0,0
24.0,-274.0,-39.0,-38.0,71.0,-6.0,0
23.0,-274.0,-37.0,-33.0,70.0,-5.0,0
21.0,-277.0,-33.0,-31.0,69.0,-7.0,0
20.0,-267.0,-38.0,-28.0,68.0,-4.0,0
15.0,-275.0,-31.0,-28.0,68.0,-5.0,0
33.0,-268.0,-33.0,-28.0,69.0,-4.0,0
22.0,-268.0,-28.0,-26.0,68.0,-5.0,0
20.0,-271.0,-34.0,-25.0,67.0,-4.0,0
15.0,-267.0,-37.0,-23.0,65.0,-5.0,0
26.0,-277.0,-28.0,-23.0,65.0,-3.0,0
20.0,-266.0,-33.0,-23.0,65.0,-4.0,0
23.0,-271.0,-33.0,-22.0,65.0,-3.0,0
22.0,-269.0,-37.0,-24.0,67.0,-5.0,0
22.0,-269.0,-37.0,-24.0,67.0,-3.0,0
16.0,-271.0,-41.0,-28.0,68.0,-3.0,0
20.0,-271.0,-46.0,-29.0,69.0,-3.0,0
15.0,-273.0,-41.0,-30.0,69.0,-5.0,0
16.0,-267.0,-27.0,-31.0,69.0,-3.0,0
25.0,-271.0,-30.0,-32.0,69.0,-4.0,0
13.0,-274.0,-43.0,-33.0,70.0,-3.0,0
28.0,-255.0,-30.0,-32.0,72.0,-4.0,0
30.0,-269.0,-46.0,-33.0,72.0,-3.0,0
20.0,-270.0,-21.0,-32.0,73.0,-3.0,0
27.0,-261.0,-39.0,-34.0,70.0,-2.0,0
21.0,-260.0,-41.0,-36.0,69.0,-3.0,0
28.0,-262.0,-39.0,-39.0,68.0,0.0,0
17.0,-267.0,-39.0,-40.0,67.0,-2.0,0
18.0,-269.0,-38.0,-40.0,65.0,0.0,0
7.0,-271.0,-40.0,-41.0,63.0,1.0,0
25.0,-269.0,-30.0,-43.0,62.0,-1.0,0
30.0,-265.0,-42.0,-41.0,60.0,0.0,0
19.0,-272.0,-37.0,-39.0,59.0,1.0,0
19.0,-269.0,-36.0,-37.0,59.0,0.0,0
19.0,-271.0,-36.0,-37.0,56.0,1.0,0
17.0,-268.0,-41.0,-36.0,55.0,0.0,0
21.0,-275.0,-39.0,-37.0,55.0,1.0,0
17.0,-267.0,-41.0,-37.0,52.0,-1.0,0
22.0,-274.0,-35.0,-38.0,52.0,-2.0,0
20.0,-272.0,-38.0,-36.0,51.0,-4.0,0
20.0,-273.0,-41.0,-38.0,49.0,-5.0,0
23.0,-271.0,-33.0,-39.0,46.0,-7.0,0
19.0,-267.0,-41.0,-40.0,46.0,-8.0,0
22.0,-264.0,-37.0,-37.0,47.0,-8.0,0
23.0,-263.0,-44.0,-37.0,46.0,-8.0,0
24.0,-272.0,-47.0,-36.0,47.0,-9.0,0
24.0,-261.0,-40.0,-34.0,45.0,-10.0,0
14.0,-267.0,-46.0,-34.0,42.0,-11.0,0
16.0,-269.0,-43.0,-35.0,38.0,-13.0,0
17.0,-263.0,-41.0,-39.0,32.0,-12.0,0
22.0,-272.0,-48.0,-42.0,25.0,-14.0,0
25.0,-264.0,-48.0,-44.0,18.0,-14.0,0
20.0,-265.0,-43.0,-50.0,12.0,-14.0,0
12.0,-267.0,-34.0,-56.0,5.0,-14.0,0
21.0,-265.0,-46.0,-63.0,0.0,-15.0,0
17.0,-258.0,-41.0,-67.0,-1.0,-15.0,0
20.0,-265.0,-46.0,-70.0,-4.0,-15.0,0
9.0,-275.0,-33.0,-72.0,-6.0,-16.0,0
18.0,-268.0,-48.0,-72.0,-7.0,-16.0,0
19.0,-272.0,-51.0,-73.0,-9.0,-16.0,0
20.0,-268.0,-50.0,-74.0,-11.0,-15.0,0
20.0,-268.0,-52.0,-76.0,-14.0,-13.0,0
20.0,-266.0,-52.0,-79.0,-16.0,-14.0,0
22.0,-265.0,-53.0,-81.0,-17.0,-13.0,0
22.0,-267.0,-56.0,-83.0,-16.0,-12.0,0
18.0,-264.0,-57.0,-85.0,-16.0,-10.0,0
21.0,-267.0,-55.0,-88.0,-16.0,-10.0,0
20.0,-263.0,-54.0,-90.0,-18.0,-10.0,0
17.0,-262.0,-60.0,-94.0,-23.0,-10.0,0
21.0,-262.0,-55.0,-99.0,-23.0,-9.0,0
22.0,-266.0,-57.0,-107.0,-24.0,-9.0,0
21.0,-263.0,-56.0,-109.0,-25.0,-10.0,0
14.0,-262.0,-56.0,-108.0,-22.0,-11.0,0
22.0,-259.0,-58.0,-109.0,-24.0,-10.0,0
24.0,-258.0,-59.0,-111.0,-22.0,-12.0,0
25.0,-259.0,-60.0,-115.0,-20.0,-10.0,0
23.0,-264.0,-56.0,-119.0,-15.0,-10.0,0
24.0,-261.0,-60.0,-123.0,-8.0,-8.0,0
24.0,-260.0,-59.0,-127.0,-2.0,-7.0,0
27.0,-261.0,-59.0,-133.0,3.0,-4.0,0
26.0,-258.0,-61.0,-138.0,8.0,-5.0,0
25.0,-259.0,-59.0,-142.0,14.0,-1.0,0
23.0,-256.0,-62.0,-145.0,21.0,-1.0,0
26.0,-257.0,-63.0,-150.0,25.0,1.0,0
24.0,-255.0,-60.0,-154.0,30.0,1.0,0
26.0,-255.0,-64.0,-157.0,34.0,2.0,0
22.0,-251.0,-63.0,-158.0,36.0,3.0,0
23.0,-251.0,-64.0,-159.0,40.0,5.0,0
24.0,-247.0,-63.0,-161.0,41.0,5.0,0
25.0,-243.0,-62.0,-165.0,42.0,5.0,0
21.0,-241.0,-64.0,-173.0,42.0,1.0,0
23.0,-245.0,-64.0,-184.0,44.0,-2.0,0
22.0,-238.0,-63.0,-196.0,44.0,-9.0,0
21.0,-240.0,-64.0,-206.0,45.0,-11.0,0
23.0,-239.0,-64.0,-220.0,46.0,-17.0,0
24.0,-242.0,-63.0,-234.0,48.0,-19.0,0
24.0,-244.0,-62.0,-246.0,47.0,-26.0,0
24.0,-245.0,-59.0,-258.0,47.0,-29.0,0
22.0,-246.0,-59.0,-267.0,47.0,-33.0,0
26.0,-249.0,-56.0,-272.0,44.0,-35.0,0
23.0,-250.0,-51.0,-272.0,39.0,-39.0,0
21.0,-251.0,-52.0,-267.0,31.0,-38.0,0
19.0,-254.0,-48.0,-262.0,22.0,-40.0,0
21.0,-258.0,-45.0,-259.0,10.0,-38.0,0
22.0,-253.0,-40.0,-257.0,-1.0,-38.0,0
18.0,-256.0,-34.0,-255.0,-13.0,-38.0,0
18.0,-259.0,-32.0,-253.0,-23.0,-40.0,0
15.0,-259.0,-32.0,-252.0,-32.0,-42.0,0
19.0,-257.0,-32.0,-256.0,-36.0,-44.0,0
22.0,-256.0,-37.0,-259.0,-35.0,-48.0,0
22.0,-259.0,-38.0,-263.0,-26.0,-56.0,0
21.0,-257.0,-35.0,-262.0,-16.0,-62.0,0
24.0,-257.0,-40.0,-261.0,-8.0,-70.0,0
23.0,-257.0,-37.0,-259.0,-4.0,-75.0,0
26.0,-260.0,-41.0,-259.0,-7.0,-84.0,0
26.0,-258.0,-48.0,-262.0,-7.0,-87.0,0
29.0,-259.0,-49.0,-268.0,-5.0,-92.0,0
32.0,-258.0,-52.0,-273.0,2.0,-92.0,0
31.0,-258.0,-52.0,-277.0,9.0,-97.0,0
27.0,-255.0,-52.0,-277.0,19.0,-99.0,0
28.0,-257.0,-55.0,-276.0,33.0,-101.0,0
29.0,-253.0,-53.0,-276.0,45.0,-96.0,0
27.0,-253.0,-57.0,-277.0,51.0,-96.0,0
26.0,-254.0,-53.0,-280.0,60.0,-91.0,0
25.0,-249.0,-53.0,-286.0,68.0,-90.0,0
19.0,-248.0,-55.0,-296.0,77.0,-86.0,0
23.0,-246.0,-54.0,-306.0,89.0,-83.0,0
17.0,-244.0,-51.0,-314.0,98.0,-76.0,0
20.0,-246.0,-52.0,-319.0,102.0,-73.0,0
22.0,-238.0,-51.0,-322.0,101.0,-65.0,0
19.0,-239.0,-52.0,-325.0,98.0,-61.0,0
22.0,-237.0,-53.0,-331.0,97.0,-53.0,0
21.0,-237.0,-49.0,-341.0,93.0,-52.0,0
22.0,-238.0,-54.0,-355.0,82.0,-47.0,0
21.0,-231.0,-55.0,-368.0,69.0,-47.0,0
27.0,-234.0,-54.0,-382.0,57.0,-43.0,0
25.0,-238.0,-56.0,-395.0,44.0,-44.0,0
24.0,-239.0,-53.0,-406.0,32.0,-43.0,0
23.0,-248.0,-55.0,-411.0,25.0,-47.0,0
23.0,-246.0,-57.0,-413.0,17.0,-47.0,0
24.0,-252.0,-59.0,-412.0,14.0,-51.0,0
23.0,-252.0,-63.0,-409.0,5.0,-49.0,0
23.0,-254.0,-63.0,-402.0,-3.0,-52.0,0
26.0,-256.0,-65.0,-388.0,-7.0,-50.0,0
24.0,-254.0,-62.0,-364.0,-6.0,-48.0,0
21.0,-256.0,-64.0,-333.0,-1.0,-41.0,0
19.0,-255.0,-64.0,-298.0,4.0,-38.0,0
17.0,-254.0,-62.0,-268.0,3.0,-28.0,0
15.0,-247.0,-63.0,-246.0,-5.0,-22.0,0
18.0,-247.0,-66.0,-232.0,-15.0,-13.0,0
19.0,-245.0,-66.0,-222.0,-25.0,-7.0,0
17.0,-241.0,-68.0,-210.0,-28.0,2.0,0
19.0,-239.0,-65.0,-199.0,-26.0,3.0,0
19.0,-239.0,-62.0,-191.0,-26.0,8.0,0
18.0,-243.0,-62.0,-183.0,-25.0,7.0,0
18.0,-242.0,-59.0,-179.0,-23.0,10.0,0
16.0,-241.0,-64.0,-186.0,-24.0,7.0,0
14.0,-240.0,-66.0,-204.0,-28.0,10.0,0
18.0,-242.0,-69.0,-227.0,-33.0,9.0,0
22.0,-246.0,-73.0,-249.0,-36.0,13.0,0
18.0,-245.0,-70.0,-263.0,-36.0,15.0,0
18.0,-251.0,-73.0,-266.0,-32.0,20.0,0
18.0,-253.0,-64.0,-261.0,-31.0,21.0,0
18.0,-253.0,-63.0,-252.0,-34.0,24.0,0
24.0,-256.0,-63.0,-242.0,-46.0,24.0,0
24.0,-256.0,-64.0,-233.0,-59.0,27.0,0
27.0,-253.0,-63.0,-226.0,-70.0,23.0,0
28.0,-256.0,-65.0,-216.0,-73.0,20.0,0
27.0,-250.0,-65.0,-208.0,-69.0,14.0,0
25.0,-249.0,-66.0,-201.0,-63.0,9.0,0
20.0,-248.0,-68.0,-196.0,-60.0,-3.0,0
22.0,-249.0,-69.0,-190.0,-60.0,-9.0,0
24.0,-245.0,-73.0,-185.0,-65.0,-19.0,0
29.0,-249.0,-69.0,-179.0,-67.0,-23.0,0
29.0,-249.0,-71.0,-173.0,-66.0,-33.0,0
29.0,-247.0,-68.0,-168.0,-62.0,-35.0,0
29.0,-247.0,-65.0,-165.0,-57.0,-42.0,0
29.0,-246.0,-67.0,-164.0,-54.0,-44.0,0
29.0,-247.0,-65.0,-158.0,-47.0,-49.0,0
29.0,-253.0,-65.0,-154.0,-41.0,-48.0,0
29.0,-251.0,-67.0,-147.0,-36.0,-55.0,0
33.0,-252.0,-71.0,-142.0,-30.0,-56.0,0
36.0,-253.0,-65.0,-144.0,-24.0,-62.0,0
35.0,-253.0,-69.0,-149.0,-18.0,-64.0,0
36.0,-251.0,-73.0,-150.0,-8.0,-71.0,0
36.0,-251.0,-69.0,-152.0,2.0,-69.0,0
35.0,-253.0,-75.0,-151.0,10.0,-72.0,0
30.0,-255.0,-73.0,-147.0,15.0,-70.0,0
29.0,-256.0,-72.0,-144.0,17.0,-71.0,0
31.0,-258.0,-69.0,-138.0,15.0,-65.0,0
33.0,-257.0,-72.0,-136.0,13.0,-66.0,0
29.0,-255.0,-72.0,-139.0,13.0,-60.0,0
24.0,-258.0,-76.0,-147.0,12.0,-59.0,0
20.0,-255.0,-74.0,-151.0,9.0,-50.0,0
24.0,-258.0,-74.0,-152.0,3.0,-45.0,0
21.0,-258.0,-74.0,-155.0,-5.0,-35.0,0
20.0,-261.0,-70.0,-155.0,-17.0,-32.0,0
19.0,-257.0,-72.0,-155.0,-27.0,-25.0,0
19.0,-261.0,-75.0,-157.0,-37.0,-23.0,0
18.0,-258.0,-80.0,-158.0,-44.0,-17.0,0
22.0,-262.0,-78.0,-158.0,-51.0,-18.0,0
19.0,-263.0,-85.0,-161.0,-54.0,-12.0,0
21.0,-268.0,-82.0,-166.0,-60.0,-15.0,0
17.0,-268.0,-79.0,-169.0,-67.0,-14.0,0
25.0,-271.0,-78.0,-171.0,-73.0,-17.0,0
16.0,-268.0,-80.0,-174.0,-78.0,-19.0,0
22.0,-274.0,-84.0,-178.0,-84.0,-27.0,0
20.0,-271.0,-84.0,-182.0,-94.0,-30.0,0
25.0,-274.0,-83.0,-186.0,-102.0,-40.0,0
29.0,-275.0,-84.0,-184.0,-110.0,-46.0,0
32.0,-272.0,-85.0,-177.0,-107.0,-59.0,0
33.0,-273.0,-82.0,-161.0,-101.0,-69.0,0
35.0,-272.0,-83.0,-146.0,-88.0,-82.0,0
35.0,-275.0,-83.0,-139.0,-77.0,-86.0,0
39.0,-273.0,-84.0,-137.0,-71.0,-97.0,0
40.0,-276.0,-88.0,-131.0,-62.0,-101.0,0
44.0,-276.0,-83.0,-130.0,-50.0,-110.0,0
45.0,-275.0,-90.0,-123.0,-34.0,-115.0,0
45.0,-275.0,-86.0,-114.0,-22.0,-122.0,0
46.0,-275.0,-87.0,-106.0,-15.0,-122.0,0
45.0,-273.0,-88.0,-99.0,-11.0,-129.0,0
45.0,-273.0,-89.0,-91.0,-9.0,-133.0,0
42.0,-273.0,-89.0,-96.0,-7.0,-136.0,0
46.0,-275.0,-87.0,-97.0,-5.0,-130.0,0
44.0,-275.0,-88.0,-100.0,-5.0,-129.0,0
42.0,-276.0,-89.0,-103.0,-2.0,-124.0,0
40.0,-280.0,-87.0,-109.0,2.0,-120.0,0
39.0,-279.0,-88.0,-112.0,8.0,-112.0,0
36.0,-281.0,-89.0,-110.0,11.0,-107.0,0
35.0,-283.0,-85.0,-108.0,13.0,-99.0,0
31.0,-281.0,-90.0,-109.0,13.0,-93.0,0
30.0,-278.0,-88.0,-105.0,10.0,-85.0,0
27.0,-279.0,-85.0,-102.0,10.0,-82.0,0
23.0,-281.0,-86.0,-100.0,11.0,-75.0,0
18.0,-279.0,-86.0,-96.0,11.0,-70.0,0
21.0,-276.0,-85.0,-97.0,9.0,-63.0,0
21.0,-276.0,-87.0,-101.0,6.0,-59.0,0
19.0,-276.0,-89.0,-110.0,3.0,-50.0,0
22.0,-277.0,-86.0,-120.0,0.0,-45.0,0
23.0,-278.0,-88.0,-126.0,-6.0,-38.0,0
25.0,-278.0,-86.0,-123.0,-10.0,-34.0,0
29.0,-280.0,-91.0,-117.0,-16.0,-27.0,0
30.0,-281.0,-93.0,-111.0,-22.0,-22.0,0
29.0,-283.0,-89.0,-105.0,-21.0,-19.0,0
29.0,-282.0,-89.0,-97.0,-21.0,-19.0,0
31.0,-284.0,-89.0,-85.0,-22.0,-17.0,0
26.0,-279.0,-84.0,-75.0,-27.0,-18.0,0
25.0,-277.0,-89.0,-61.0,-31.0,-14.0,0
26.0,-278.0,-92.0,-51.0,-35.0,-14.0,0
24.0,-274.0,-91.0,-43.0,-38.0,-10.0,0
26.0,-275.0,-89.0,-40.0,-36.0,-9.0,0
25.0,-276.0,-86.0,-41.0,-34.0,-7.0,0
21.0,-275.0,-86.0,-37.0,-28.0,-8.0,0
24.0,-276.0,-83.0,-22.0,-24.0,-9.0,0
24.0,-278.0,-81.0,-2.0,-23.0,-11.0,0
22.0,-276.0,-81.0,16.0,-22.0,-9.0,0
20.0,-273.0,-83.0,29.0,-23.0,-8.0,0
26.0,-277.0,-78.0,41.0,-23.0,-7.0,0
25.0,-276.0,-72.0,54.0,-24.0,-6.0,0
21.0,-276.0,-73.0,71.0,-23.0,-3.0,0
24.0,-272.0,-75.0,87.0,-26.0,-1.0,0
26.0,-276.0,-74.0,101.0,-28.0,5.0,0
27.0,-276.0,-73.0,118.0,-30.0,9.0,0
24.0,-274.0,-70.0,135.0,-27.0,14.0,0
24.0,-276.0,-67.0,152.0,-24.0,18.0,0
25.0,-276.0,-64.0,171.0,-23.0,23.0,0
28.0,-277.0,-64.0,195.0,-21.0,24.0,0
27.0,-277.0,-64.0,218.0,-19.0,27.0,0
27.0,-275.0,-61.0,237.0,-20.0,25.0,0
25.0,-272.0,-67.0,248.0,-17.0,28.0,0
29.0,-272.0,-62.0,254.0,-12.0,25.0,0
23.0,-273.0,-59.0,257.0,-6.0,25.0,0
21.0,-275.0,-59.0,262.0,7.0,24.0,0
27.0,-277.0,-61.0,271.0,17.0,23.0,0
26.0,-276.0,-63.0,278.0,25.0,21.0,0
29.0,-277.0,-61.0,286.0,31.0,20.0,0
26.0,-276.0,-61.0,291.0,35.0,19.0,0
25.0,-281.0,-63.0,293.0,34.0,19.0,0
22.0,-278.0,-65.0,293.0,28.0,18.0,0
24.0,-281.0,-68.0,295.0,19.0,21.0,0
23.0,-279.0,-74.0,295.0,8.0,21.0,0
18.0,-283.0,-72.0,297.0,0.0,25.0,0
19.0,-282.0,-79.0,300.0,-6.0,26.0,0
17.0,-282.0,-79.0,305.0,-15.0,24.0,0
21.0,-285.0,-81.0,308.0,-19.0,20.0,0
20.0,-285.0,-80.0,311.0,-21.0,17.0,0
21.0,-290.0,-80.0,317.0,-20.0,13.0,0
24.0,-292.0,-80.0,327.0,-17.0,10.0,0
24.0,-293.0,-82.0,341.0,-14.0,6.0,0
25.0,-295.0,-84.0,360.0,-11.0,4.0,0
26.0,-297.0,-82.0,378.0,-8.0,1.0,0
24.0,-296.0,-84.0,398.0,-6.0,1.0,0
27.0,-295.0,-81.0,415.0,-3.0,-2.0,0
26.0,-299.0,-79.0,436.0,-2.0,-4.0,0
27.0,-295.0,-75.0,455.0,0.0,-5.0,0
28.0,-296.0,-77.0,472.0,2.0,-3.0,0
25.0,-292.0,-76.0,489.0,2.0,-3.0,0
26.0,-293.0,-78.0,501.0,2.0,1.0,0
27.0,-291.0,-74.0,511.0,4.0,6.0,0
27.0,-288.0,-76.0,520.0,5.0,9.0,0
26.0,-284.0,-75.0,527.0,10.0,10.0,0
28.0,-284.0,-75.0,531.0,18.0,12.0,0
28.0,-285.0,-69.0,535.0,23.0,13.0,0
24.0,-284.0,-71.0,543.0,37.0,13.0,0
29.0,-285.0,-66.0,549.0,49.0,13.0,0
31.0,-282.0,-66.0,555.0,61.0,10.0,0
31.0,-279.0,-64.0,560.0,72.0,6.0,0
31.0,-281.0,-61.0,561.0,84.0,1.0,0
35.0,-284.0,-57.0,563.0,94.0,-1.0,0
33.0,-284.0,-56.0,563.0,101.0,-5.0,0
28.0,-285.0,-55.0,567.0,104.0,-8.0,0
30.0,-284.0,-55.0,571.0,105.0,-8.0,0
27.0,-285.0,-50.0,578.0,104.0,-9.0,0
25.0,-286.0,-48.0,583.0,101.0,-8.0,0
26.0,-286.0,-53.0,588.0,97.0,-6.0,0
27.0,-286.0,-47.0,591.0,93.0,-8.0,0
25.0,-284.0,-45.0,592.0,88.0,-4.0,0
24.0,-280.0,-51.0,594.0,86.0,-5.0,0
24.0,-279.0,-52.0,594.0,84.0,-8.0,0
25.0,-278.0,-51.0,595.0,86.0,-12.0,0
25.0,-278.0,-48.0,596.0,88.0,-14.0,0
10.0,-267.0,-47.0,595.0,91.0,-14.0,0
29.0,-276.0,-53.0,599.0,91.0,-14.0,0
31.0,-276.0,-52.0,605.0,95.0,-17.0,0
26.0,-273.0,-51.0,609.0,97.0,-18.0,0
37.0,-276.0,-46.0,613.0,102.0,-22.0,0
32.0,-275.0,-44.0,617.0,105.0,-24.0,0
32.0,-277.0,-45.0,623.0,108.0,-29.0,0
35.0,-276.0,-42.0,630.0,113.0,-32.0,0
34.0,-274.0,-39.0,637.0,117.0,-34.0,0
33.0,-274.0,-39.0,645.0,123.0,-36.0,0
28.0,-275.0,-36.0,646.0,127.0,-41.0,0
32.0,-274.0,-32.0,643.0,128.0,-43.0,0
32.0,-273.0,-33.0,645.0,131.0,-46.0,0
33.0,-274.0,-35.0,643.0,133.0,-44.0,0
30.0,-275.0,-30.0,640.0,135.0,-44.0,0
32.0,-278.0,-30.0,636.0,137.0,-40.0,0
28.0,-279.0,-30.0,642.0,135.0,-40.0,0
25.0,-274.0,-29.0,646.0,132.0,-37.0,0
29.0,-274.0,-29.0,651.0,130.0,-36.0,0
28.0,-274.0,-30.0,652.0,127.0,-33.0,0
28.0,-275.0,-27.0,652.0,126.0,-31.0,0
29.0,-274.0,-22.0,651.0,124.0,-28.0,0
29.0,-276.0,-21.0,651.0,124.0,-27.0,0
27.0,-272.0,-23.0,650.0,121.0,-26.0,0
25.0,-272.0,-22.0,646.0,114.0,-28.0,0
28.0,-275.0,-18.0,646.0,108.0,-30.0,0
26.0,-276.0,-19.0,646.0,104.0,-34.0,0
28.0,-274.0,-21.0,648.0,102.0,-33.0,0
26.0,-274.0,-17.0,650.0,100.0,-35.0,0
30.0,-276.0,-17.0,652.0,99.0,-34.0,0
29.0,-276.0,-10.0,656.0,98.0,-37.0,0
29.0,-275.0,-15.0,659.0,100.0,-35.0,0
28.0,-275.0,-14.0,660.0,103.0,-37.0,0
28.0,-272.0,-10.0,659.0,106.0,-34.0,0
27.0,-272.0,-11.0,654.0,107.0,-36.0,0
26.0,-272.0,-5.0,651.0,103.0,-35.0,0
25.0,-271.0,-5.0,647.0,99.0,-35.0,0
24.0,-270.0,-5.0,644.0,97.0,-33.0,0
25.0,-270.0,-3.0,641.0,94.0,-33.0,0
28.0,-272.0,-3.0,634.0,93.0,-30.0,0
26.0,-272.0,-5.0,626.0,92.0,-30.0,0
28.0,-274.0,-4.0,618.0,95.0,-27.0,0
24.0,-270.0,-4.0,615.0,95.0,-29.0,0
25.0,-271.0,1.0,610.0,93.0,-27.0,0
30.0,-272.0,-4.0,605.0,91.0,-27.0,0
28.0,-270.0,0.0,603.0,89.0,-26.0,0
26.0,-270.0,1.0,603.0,86.0,-27.0,0
30.0,-270.0,1.0,603.0,85.0,-25.0,0
31.0,-268.0,1.0,602.0,81.0,-24.0,0
29.0,-272.0,5.0,599.0,79.0,-22.0,0
32.0,-271.0,4.0,594.0,75.0,-24.0,0
33.0,-270.0,2.0,588.0,72.0,-20.0,0
30.0,-270.0,7.0,582.0,71.0,-21.0,0
30.0,-266.0,4.0,575.0,71.0,-15.0,0
29.0,-264.0,4.0,573.0,70.0,-18.0,0
33.0,-267.0,6.0,569.0,68.0,-14.0,0
31.0,-270.0,10.0,563.0,65.0,-15.0,0
32.0,-269.0,8.0,559.0,64.0,-10.0,0
30.0,-266.0,14.0,553.0,62.0,-10.0,0
34.0,-270.0,8.0,550.0,60.0,-5.0,0
32.0,-265.0,11.0,542.0,60.0,-5.0,0
34.0,-268.0,13.0,535.0,65.0,-2.0,0
34.0,-266.0,9.0,525.0,71.0,-3.0,0
35.0,-267.0,10.0,518.0,80.0,-2.0,0
35.0,-263.0,12.0,507.0,89.0,-7.0,0
38.0,-266.0,15.0,495.0,95.0,-6.0,0
37.0,-266.0,16.0,486.0,103.0,-10.0,0
38.0,-267.0,20.0,479.0,110.0,-10.0,0
38.0,-269.0,22.0,477.0,117.0,-16.0,0
37.0,-265.0,21.0,474.0,122.0,-17.0,0
38.0,-266.0,24.0,472.0,125.0,-23.0,0
35.0,-265.0,25.0,468.0,127.0,-23.0,0
36.0,-263.0,24.0,462.0,127.0,-26.0,0
33.0,-261.0,25.0,457.0,127.0,-26.0,0
30.0,-260.0,28.0,451.0,126.0,-28.0,0
29.0,-258.0,28.0,446.0,124.0,-25.0,0
25.0,-260.0,32.0,440.0,122.0,-25.0,0
27.0,-259.0,30.0,433.0,118.0,-21.0,0
23.0,-258.0,32.0,427.0,112.0,-21.0,0
24.0,-261.0,33.0,420.0,105.0,-16.0,0
25.0,-263.0,30.0,414.0,99.0,-18.0,0
26.0,-259.0,31.0,408.0,93.0,-13.0,0
24.0,-262.0,31.0,402.0,88.0,-14.0,0
28.0,-266.0,34.0,398.0,87.0,-13.0,0
24.0,-264.0,38.0,390.0,84.0,-15.0,0
27.0,-262.0,36.0,383.0,82.0,-13.0,0
25.0,-262.0,36.0,376.0,82.0,-15.0,0
30.0,-261.0,38.0,366.0,80.0,-13.0,0
28.0,-264.0,39.0,357.0,78.0,-15.0,0
28.0,-261.0,37.0,352.0,77.0,-11.0,0
31.0,-261.0,38.0,344.0,76.0,-12.0,0
28.0,-259.0,40.0,335.0,74.0,-9.0,0
31.0,-262.0,34.0,326.0,75.0,-10.0,0
35.0,-261.0,35.0,318.0,75.0,-6.0,0
30.0,-259.0,36.0,306.0,78.0,-5.0,0
33.0,-263.0,33.0,300.0,81.0,-2.0,0
33.0,-260.0,34.0,291.0,88.0,-5.0,0
39.0,-263.0,33.0,283.0,94.0,-3.0,0
34.0,-263.0,34.0,280.0,100.0,-5.0,0
35.0,-263.0,36.0,280.0,109.0,1.0,0
32.0,-265.0,40.0,282.0,118.0,2.0,0
32.0,-260.0,37.0,281.0,125.0,8.0,0
28.0,-261.0,35.0,281.0,134.0,8.0,0
30.0,-259.0,37.0,279.0,142.0,11.0,0
32.0,-257.0,43.0,272.0,146.0,10.0,0
29.0,-259.0,38.0,260.0,149.0,14.0,0
30.0,-259.0,41.0,251.0,151.0,14.0,0
28.0,-257.0,39.0,245.0,154.0,21.0,0
28.0,-259.0,38.0,244.0,154.0,23.0,0
30.0,-259.0,41.0,246.0,155.0,29.0,0
31.0,-261.0,42.0,250.0,156.0,31.0,0
32.0,-259.0,44.0,254.0,155.0,37.0,0
30.0,-258.0,45.0,253.0,149.0,37.0,0
30.0,-262.0,46.0,250.0,143.0,42.0,0
32.0,-262.0,45.0,250.0,138.0,41.0,0
31.0,-257.0,50.0,249.0,132.0,42.0,0
34.0,-255.0,48.0,250.0,129.0,37.0,0
32.0,-256.0,50.0,247.0,125.0,37.0,0
32.0,-257.0,49.0,242.0,124.0,31.0,0
31.0,-253.0,49.0,232.0,123.0,32.0,0
33.0,-257.0,52.0,220.0,122.0,26.0,0
34.0,-256.0,57.0,207.0,123.0,25.0,0
32.0,-255.0,54.0,196.0,126.0,21.0,0
32.0,-257.0,55.0,185.0,124.0,22.0,0
27.0,-256.0,52.0,174.0,121.0,18.0,0
31.0,-254.0,57.0,162.0,117.0,21.0,0
29.0,-255.0,52.0,151.0,113.0,19.0,0
33.0,-255.0,54.0,141.0,111.0,21.0,0
28.0,-255.0,55.0,135.0,110.0,20.0,0
29.0,-255.0,54.0,130.0,112.0,22.0,0
26.0,-255.0,56.0,124.0,112.0,20.0,0
26.0,-252.0,55.0,119.0,114.0,20.0,0
24.0,-253.0,55.0,114.0,114.0,18.0,0
22.0,-253.0,54.0,108.0,115.0,21.0,0
23.0,-253.0,55.0,98.0,113.0,21.0,0
21.0,-250.0,56.0,85.0,114.0,23.0,0
22.0,-250.0,57.0,73.0,115.0,22.0,0
23.0,-249.0,55.0,62.0,115.0,23.0,0
22.0,-251.0,57.0,53.0,114.0,20.0,0
21.0,-252.0,56.0,43.0,110.0,22.0,0
21.0,-252.0,55.0,37.0,103.0,18.0,0
21.0,-254.0,58.0,28.0,97.0,20.0,0
23.0,-254.0,57.0,21.0,90.0,18.0,0
22.0,-254.0,54.0,12.0,83.0,19.0,0
25.0,-255.0,54.0,7.0,75.0,16.0,0
23.0,-255.0,53.0,3.0,67.0,16.0,0
22.0,-255.0,53.0,0.0,63.0,12.0,0
24.0,-254.0,49.0,-6.0,59.0,11.0,0
24.0,-253.0,50.0,-14.0,56.0,8.0,0
23.0,-254.0,54.0,-24.0,56.0,7.0,0
24.0,-254.0,51.0,-32.0,55.0,2.0,0
27.0,-257.0,50.0,-40.0,56.0,4.0,0
27.0,-255.0,55.0,-47.0,58.0,2.0,0
24.0,-254.0,55.0,-52.0,59.0,4.0,0
26.0,-252.0,60.0,-58.0,62.0,2.0,0
29.0,-252.0,49.0,-72.0,64.0,3.0,0
25.0,-255.0,53.0,-84.0,62.0,6.0,0
25.0,-255.0,54.0,-96.0,63.0,7.0,0
27.0,-252.0,56.0,-106.0,60.0,7.0,0
23.0,-255.0,56.0,-114.0,59.0,9.0,0
25.0,-256.0,54.0,-121.0,57.0,9.0,0
25.0,-255.0,54.0,-126.0,56.0,11.0,0
28.0,-258.0,54.0,-135.0,53.0,10.0,0
26.0,-256.0,56.0,-146.0,49.0,12.0,0
27.0,-256.0,53.0,-154.0,50.0,11.0,0
29.0,-257.0,56.0,-162.0,53.0,10.0,0
24.0,-258.0,53.0,-165.0,53.0,11.0,0
26.0,-258.0,55.0,-168.0,51.0,11.0,0
26.0,-255.0,56.0,-170.0,47.0,10.0,0
23.0,-255.0,55.0,-172.0,44.0,9.0,0
23.0,-258.0,50.0,-173.0,38.0,7.0,0
24.0,-257.0,51.0,-175.0,33.0,5.0,0
23.0,-259.0,52.0,-177.0,31.0,2.0,0
23.0,-260.0,51.0,-179.0,26.0,2.0,0
23.0,-258.0,48.0,-182.0,22.0,0.0,0
24.0,-259.0,49.0,-186.0,17.0,1.0,0
22.0,-258.0,51.0,-191.0,16.0,2.0,0
26.0,-261.0,46.0,-198.0,16.0,4.0,0
25.0,-258.0,46.0,-204.0,16.0,4.0,0
26.0,-257.0,46.0,-206.0,17.0,3.0,0
27.0,-260.0,46.0,-210.0,18.0,3.0,0
27.0,-262.0,44.0,-212.0,20.0,2.0,0
29.0,-264.0,44.0,-214.0,22.0,-1.0,0
28.0,-259.0,41.0,-217.0,26.0,-1.0,0
28.0,-260.0,40.0,-219.0,29.0,-3.0,0
29.0,-259.0,45.0,-220.0,33.0,-4.0,0
31.0,-260.0,43.0,-224.0,37.0,-5.0,0
29.0,-262.0,46.0,-223.0,40.0,-8.0,0
28.0,-258.0,42.0,-223.0,45.0,-10.0,0
28.0,-259.0,47.0,-223.0,45.0,-12.0,0
29.0,-255.0,42.0,-227.0,46.0,-14.0,0
29.0,-258.0,41.0,-232.0,46.0,-16.0,0
29.0,-255.0,44.0,-240.0,44.0,-17.0,0
27.0,-258.0,42.0,-246.0,41.0,-16.0,0
29.0,-257.0,40.0,-254.0,41.0,-17.0,0
28.0,-261.0,40.0,-262.0,40.0,-17.0,0
25.0,-259.0,35.0,-272.0,39.0,-15.0,0
25.0,-258.0,33.0,-274.0,36.0,-15.0,0
26.0,-260.0,34.0,-277.0,34.0,-15.0,0
27.0,-262.0,33.0,-277.0,34.0,-14.0,0
29.0,-264.0,35.0,-276.0,32.0,-14.0,0
27.0,-266.0,33.0,-276.0,33.0,-14.0,0
23.0,-267.0,33.0,-271.0,33.0,-16.0,0
23.0,-264.0,33.0,-264.0,32.0,-18.0,0
25.0,-272.0,29.0,-259.0,34.0,-22.0,0
23.0,-264.0,33.0,-253.0,37.0,-24.0,0
27.0,-270.0,28.0,-242.0,42.0,-25.0,0
25.0,-265.0,32.0,-232.0,49.0,-27.0,0
29.0,-270.0,27.0,-223.0,54.0,-29.0,0
24.0,-269.0,32.0,-212.0,58.0,-30.0,0
23.0,-269.0,29.0,-204.0,58.0,-30.0,0
23.0,-270.0,32.0,-193.0,60.0,-31.0,0
26.0,-269.0,28.0,-181.0,60.0,-31.0,0
27.0,-268.0,27.0,-168.0,61.0,-31.0,0
28.0,-270.0,24.0,-156.0,64.0,-32.0,0
25.0,-266.0,24.0,-148.0,66.0,-31.0,0
25.0,-270.0,26.0,-143.0,66.0,-28.0,0
27.0,-270.0,28.0,-138.0,65.0,-27.0,0
29.0,-270.0,23.0,-132.0,64.0,-25.0,0
26.0,-270.0,25.0,-124.0,65.0,-26.0,0
27.0,-267.0,27.0,-115.0,66.0,-25.0,0
27.0,-270.0,28.0,-104.0,63.0,-26.0,0
27.0,-269.0,24.0,-98.0,61.0,-26.0,0
29.0,-268.0,28.0,-90.0,58.0,-27.0,0
31.0,-270.0,26.0,-82.0,57.0,-28.0,0
31.0,-272.0,26.0,-75.0,61.0,-31.0,0
30.0,-270.0,25.0,-66.0,64.0,-30.0,0
32.0,-272.0,30.0,-58.0,67.0,-33.0,0
32.0,-272.0,24.0,-48.0,68.0,-33.0,0
32.0,-269.0,28.0,-36.0,71.0,-35.0,0
31.0,-270.0,24.0,-26.0,73.0,-33.0,0
29.0,-273.0,24.0,-16.0,74.0,-33.0,0
30.0,-270.0,25.0,-7.0,75.0,-30.0,0
26.0,-271.0,27.0,3.0,75.0,-29.0,0
29.0,-269.0,27.0,13.0,69.0,-27.0,0
29.0,-266.0,31.0,24.0,64.0,-25.0,0
27.0,-267.0,26.0,33.0,62.0,-22.0,0
31.0,-268.0,29.0,41.0,63.0,-21.0,0
28.0,-267.0,27.0,46.0,63.0,-18.0,0
29.0,-270.0,29.0,51.0,62.0,-20.0,0
30.0,-264.0,26.0,55.0,62.0,-18.0,0
30.0,-264.0,27.0,58.0,65.0,-20.0,0
31.0,-266.0,30.0,61.0,68.0,-18.0,0
32.0,-265.0,32.0,63.0,69.0,-20.0,0
30.0,-265.0,30.0,65.0,70.0,-19.0,0
27.0,-263.0,32.0,65.0,70.0,-20.0,0
29.0,-262.0,35.0,66.0,71.0,-20.0,0
28.0,-261.0,33.0,65.0,72.0,-22.0,0
32.0,-266.0,37.0,61.0,74.0,-20.0,0
31.0,-262.0,34.0,58.0,76.0,-22.0,0
29.0,-263.0,31.0,57.0,80.0,-19.0,0
32.0,-267.0,35.0,56.0,81.0,-18.0,0
32.0,-263.0,35.0,56.0,80.0,-15.0,0
27.0,-261.0,31.0,54.0,76.0,-16.0,0
30.0,-262.0,31.0,50.0,73.0,-13.0,0
31.0,-262.0,30.0,47.0,67.0,-15.0,0
29.0,-263.0,37.0,45.0,66.0,-12.0,0
28.0,-264.0,36.0,45.0,66.0,-13.0,0
28.0,-264.0,37.0,49.0,64.0,-10.0,0
31.0,-263.0,35.0,51.0,67.0,-11.0,0
27.0,-260.0,35.0,51.0,69.0,-10.0,0
28.0,-261.0,36.0,49.0,71.0,-13.0,0
31.0,-263.0,34.0,45.0,76.0,-12.0,0
28.0,-257.0,34.0,39.0,78.0,-16.0,0
30.0,-260.0,33.0,32.0,77.0,-14.0,0
27.0,-260.0,38.0,24.0,77.0,-17.0,0
30.0,-262.0,35.0,20.0,75.0,-12.0,0
30.0,-265.0,35.0,17.0,77.0,-13.0,0
31.0,-259.0,38.0,14.0,77.0,-9.0,0
29.0,-261.0,36.0,13.0,77.0,-10.0,0
29.0,-262.0,36.0,11.0,77.0,-6.0,0
33.0,-264.0,35.0,10.0,75.0,-6.0,0
34.0,-264.0,32.0,9.0,74.0,-3.0,0
29.0,-261.0,35.0,7.0,73.0,-3.0,0
29.0,-263.0,33.0,5.0,74.0,-2.0,0
29.0,-262.0,33.0,5.0,75.0,-4.0,0
29.0,-264.0,33.0,4.0,74.0,-1.0,0
31.0,-262.0,36.0,6.0,75.0,-4.0,0
28.0,-266.0,34.0,9.0,76.0,-2.0,0
29.0,-263.0,32.0,10.0,75.0,-5.0,0
29.0,-264.0,31.0,11.0,76.0,-4.0,0
29.0,-265.0,36.0,11.0,76.0,-6.0,0
27.0,-263.0,34.0,11.0,76.0,-6.0,0
31.0,-263.0,34.0,10.0,75.0,-6.0,0
27.0,-263.0,35.0,9.0,76.0,-4.0,0
28.0,-263.0,36.0,11.0,78.0,-6.0,0
27.0,-262.0,37.0,14.0,78.0,-4.0,0
25.0,-263.0,37.0,16.0,80.0,-6.0,0
26.0,-266.0,35.0,16.0,79.0,-4.0,0
26.0,-262.0,36.0,16.0,79.0,-7.0,0
30.0,-261.0,39.0,16.0,81.0,-6.0,0
27.0,-260.0,31.0,14.0,81.0,-8.0,0
26.0,-258.0,38.0,14.0,79.0,-7.0,0
25.0,-260.0,38.0,8.0,75.0,-7.0,0
24.0,-260.0,37.0,3.0,73.0,-5.0,0
29.0,-263.0,37.0,-2.0,72.0,-10.0,0
25.0,-260.0,39.0,-8.0,72.0,-6.0,0
31.0,-262.0,35.0,-14.0,72.0,-10.0,0
27.0,-263.0,37.0,-17.0,70.0,-9.0,0
28.0,-263.0,37.0,-16.0,70.0,-12.0,0
29.0,-265.0,38.0,-15.0,68.0,-11.0,0
30.0,-266.0,37.0,-15.0,67.0,-14.0,0
28.0,-262.0,31.0,-13.0,68.0,-12.0,0
31.0,-266.0,32.0,-11.0,69.0,-15.0,0
26.0,-263.0,36.0,-9.0,68.0,-12.0,0
28.0,-264.0,36.0,-6.0,68.0,-16.0,0
26.0,-262.0,37.0,-4.0,69.0,-13.0,0
26.0,-263.0,33.0,-4.0,67.0,-16.0,0
26.0,-261.0,34.0,-1.0,66.0,-14.0,0
27.0,-266.0,34.0,0.0,65.0,-16.0,0
28.0,-264.0,36.0,2.0,65.0,-13.0,0
26.0,-264.0,33.0,4.0,67.0,-17.0,0
30.0,-263.0,33.0,6.0,66.0,-14.0,0
30.0,-264.0,34.0,8.0,65.0,-15.0,0
28.0,-262.0,35.0,10.0,65.0,-12.0,0
30.0,-261.0,41.0,10.0,64.0,-16.0,0
29.0,-261.0,37.0,12.0,62.0,-12.0,0
31.0,-265.0,40.0,12.0,62.0,-13.0,0
28.0,-261.0,41.0,12.0,60.0,-9.0,0
28.0,-261.0,35.0,12.0,61.0,-13.0,0
27.0,-264.0,37.0,12.0,60.0,-9.0,0
26.0,-262.0,38.0,12.0,61.0,-10.0,0
34.0,-265.0,30.0,12.0,63.0,-9.0,0
31.0,-263.0,33.0,12.0,65.0,-11.0,0
32.0,-264.0,39.0,13.0,68.0,-8.0,0
29.0,-265.0,35.0,14.0,69.0,-10.0,0
31.0,-264.0,34.0,18.0,71.0,-7.0,0
32.0,-266.0,37.0,19.0,70.0,-8.0,0
28.0,-266.0,33.0,20.0,68.0,-5.0,0
28.0,-263.0,35.0,21.0,67.0,-5.0,0
32.0,-263.0,33.0,24.0,67.0,-2.0,0
31.0,-264.0,34.0,29.0,68.0,-4.0,0
31.0,-264.0,34.0,32.0,70.0,-1.0,0
27.0,-262.0,42.0,35.0,69.0,-2.0,0
28.0,-261.0,34.0,35.0,67.0,-1.0,0
33.0,-263.0,35.0,37.0,65.0,-3.0,0
26.0,-262.0,36.0,36.0,64.0,-1.0,0
28.0,-264.0,32.0,37.0,64.0,-3.0,0
30.0,-263.0,36.0,37.0,62.0,-2.0,0
28.0,-263.0,39.0,36.0,64.0,-4.0,0
29.0,-262.0,38.0,34.0,66.0,-1.0,0
26.0,-261.0,37.0,34.0,67.0,-3.0,0
30.0,-264.0,35.0,34.0,68.0,0.0,0
30.0,-261.0,33.0,33.0,68.0,-1.0,0
30.0,-263.0,40.0,34.0,67.0,1.0,0
31.0,-266.0,41.0,34.0,68.0,1.0,0
30.0,-260.0,40.0,34.0,67.0,3.0,0
30.0,-262.0,41.0,34.0,67.0,2.0,0
28.0,-263.0,37.0,32.0,67.0,4.0,0
27.0,-260.0,38.0,31.0,69.0,1.0,0
27.0,-258.0,37.0,30.0,68.0,5.0,0
29.0,-261.0,40.0,28.0,68.0,1.0,0
29.0,-263.0,34.0,26.0,68.0,5.0,0
29.0,-261.0,34.0,24.0,68.0,3.0,0
36.0,-265.0,45.0,22.0,68.0,5.0,0
30.0,-262.0,37.0,19.0,67.0,2.0,0
29.0,-262.0,38.0,18.0,63.0,2.0,0
30.0,-260.0,39.0,17.0,63.0,0.0,0
27.0,-263.0,39.0,14.0,63.0,1.0,0
28.0,-263.0,38.0,15.0,63.0,-1.0,0
31.0,-259.0,44.0,12.0,62.0,2.0,0
32.0,-263.0,41.0,12.0,63.0,-1.0,0
26.0,-261.0,37.0,10.0,64.0,2.0,0
29.0,-263.0,41.0,9.0,65.0,-2.0,0
29.0,-261.0,42.0,7.0,67.0,2.0,0
27.0,-262.0,40.0,5.0,68.0,0.0,0
26.0,-261.0,38.0,3.0,68.0,1.0,0
26.0,-262.0,38.0,0.0,66.0,0.0,0
27.0,-263.0,38.0,-3.0,66.0,2.0,0
30.0,-261.0,41.0,-8.0,66.0,0.0,0
27.0,-259.0,44.0,-14.0,66.0,2.0,0
25.0,-261.0,41.0,-19.0,65.0,-2.0,0
31.0,-262.0,38.0,-25.0,65.0,-1.0,0
30.0,-260.0,40.0,-26.0,64.0,-3.0,0
29.0,-261.0,35.0,-26.0,62.0,-1.0,0
28.0,-261.0,41.0,-26.0,61.0,-1.0,0
29.0,-263.0,32.0,-25.0,61.0,1.0,0
30.0,-261.0,38.0,-25.0,60.0,-1.0,0
27.0,-264.0,36.0,-22.0,58.0,2.0,0
28.0,-262.0,37.0,-20.0,56.0,0.0,0
29.0,-262.0,35.0,-17.0,57.0,1.0,0
28.0,-263.0,37.0,-15.0,56.0,-1.0,0
31.0,-261.0,40.0,-15.0,58.0,0.0,0
30.0,-263.0,36.0,-14.0,60.0,-2.0,0
28.0,-263.0,33.0,-12.0,61.0,-2.0,0
30.0,-263.0,38.0,-11.0,62.0,-3.0,0
29.0,-263.0,38.0,-9.0,64.0,-3.0,0
27.0,-261.0,37.0,-9.0,64.0,-4.0,0
28.0,-260.0,38.0,-14.0,64.0,-6.0,0
26.0,-263.0,39.0,-18.0,62.0,-7.0,0
30.0,-265.0,41.0,-23.0,61.0,-7.0,0
29.0,-261.0,34.0,-27.0,58.0,-8.0,0
30.0,-262.0,40.0,-30.0,57.0,-8.0,0
30.0,-264.0,40.0,-33.0,56.0,-8.0,0
28.0,-265.0,43.0,-35.0,57.0,-7.0,0
29.0,-263.0,35.0,-36.0,59.0,-8.0,0
30.0,-266.0,35.0,-36.0,61.0,-6.0,0
29.0,-264.0,42.0,-35.0,61.0,-5.0,0
29.0,-264.0,36.0,-34.0,61.0,-4.0,0
27.0,-263.0,40.0,-30.0,58.0,-3.0,0
27.0,-260.0,37.0,-28.0,54.0,-3.0,0
30.0,-262.0,35.0,-27.0,53.0,-2.0,0
30.0,-259.0,38.0,-25.0,54.0,-1.0,0
30.0,-263.0,35.0,-26.0,57.0,-3.0,0
26.0,-261.0,37.0,-26.0,59.0,-3.0,0
27.0,-262.0,34.0,-28.0,62.0,-5.0,0
31.0,-263.0,36.0,-25.0,62.0,-6.0,0
29.0,-262.0,39.0,-22.0,60.0,-4.0,0
29.0,-261.0,36.0,-18.0,59.0,-5.0,0
27.0,-261.0,36.0,-16.0,57.0,-5.0,0
34.0,-265.0,39.0,-14.0,56.0,-5.0,0
31.0,-262.0,42.0,-14.0,56.0,-4.0,0
29.0,-260.0,38.0,-15.0,56.0,-4.0,0
31.0,-262.0,35.0,-14.0,56.0,-4.0,0
30.0,-262.0,35.0,-13.0,56.0,-5.0,0
28.0,-262.0,35.0,-11.0,58.0,-5.0,0
31.0,-264.0,35.0,-11.0,58.0,-4.0,0
30.0,-267.0,37.0,-10.0,61.0,-4.0,0
29.0,-263.0,37.0,-8.0,62.0,-4.0,0
27.0,-262.0,38.0,-6.0,64.0,-3.0,0
28.0,-262.0,37.0,-5.0,64.0,-5.0,0
28.0,-264.0,39.0,-6.0,66.0,-2.0,0
27.0,-261.0,35.0,-8.0,66.0,-4.0,0
26.0,-264.0,37.0,-10.0,65.0,-2.0,0
27.0,-263.0,39.0,-12.0,64.0,-3.0,0
30.0,-262.0,38.0,-15.0,63.0,-2.0,0
28.0,-263.0,39.0,-16.0,61.0,-1.0,0
30.0,-264.0,41.0,-14.0,62.0,0.0,0
29.0,-259.0,39.0,-17.0,63.0,-1.0,0
31.0,-264.0,36.0,-18.0,63.0,1.0,0
29.0,-262.0,43.0,-16.0,63.0,1.0,0
27.0,-262.0,40.0,-16.0,64.0,1.0,0
29.0,-262.0,36.0,-15.0,61.0,2.0,0
26.0,-264.0,41.0,-13.0,62.0,0.0,0
30.0,-263.0,38.0,-11.0,61.0,-1.0,0
30.0,-265.0,34.0,-8.0,62.0,-2.0,0
30.0,-264.0,37.0,-8.0,61.0,-3.0,0
27.0,-262.0,37.0,-7.0,61.0,-4.0,0
30.0,-262.0,40.0,-6.0,63.0,-4.0,0
27.0,-263.0,37.0,-7.0,62.0,-3.0,0
28.0,-265.0,38.0,-6.0,64.0,-4.0,0
28.0,-258.0,41.0,-6.0,64.0,-4.0,0
27.0,-259.0,39.0,-6.0,65.0,-3.0,0
30.0,-262.0,36.0,-8.0,64.0,-1.0,0
27.0,-259.0,38.0,-10.0,62.0,-2.0,0
29.0,-264.0,37.0,-10.0,61.0,-1.0,0
27.0,-264.0,41.0,-12.0,61.0,-4.0,0
28.0,-265.0,37.0,-12.0,60.0,-2.0,0
28.0,-261.0,39.0,-14.0,59.0,-5.0,0
29.0,-262.0,37.0,-16.0,58.0,-3.0,0
29.0,-262.0,39.0,-19.0,59.0,-6.0,0
26.0,-265.0,35.0,-20.0,57.0,-6.0,0
28.0,-262.0,36.0,-19.0,58.0,-8.0,0
27.0,-258.0,35.0,-20.0,60.0,-6.0,0
29.0,-260.0,36.0,-22.0,61.0,-6.0,0
29.0,-262.0,41.0,-23.0,60.0,-3.0,0
31.0,-262.0,40.0,-24.0,63.0,-5.0,0
29.0,-259.0,39.0,-24.0,62.0,-3.0,0
30.0,-263.0,38.0,-24.0,61.0,-5.0,0
29.0,-263.0,40.0,-22.0,59.0,-3.0,0
29.0,-265.0,37.0,-20.0,59.0,-4.0,0
28.0,-263.0,38.0,-17.0,59.0,-2.0,0
27.0,-261.0,38.0,-17.0,59.0,-3.0,0
28.0,-259.0,35.0,-16.0,58.0,-2.0,0
31.0,-262.0,37.0,-16.0,58.0,-2.0,0
26.0,-259.0,37.0,-15.0,59.0,-1.0,0
30.0,-258.0,35.0,-15.0,59.0,-3.0,0
31.0,-264.0,42.0,-15.0,60.0,-2.0,0
30.0,-263.0,37.0,-16.0,60.0,-4.0,0
30.0,-262.0,38.0,-16.0,58.0,-2.0,0
30.0,-260.0,42.0,-16.0,59.0,-6.0,0
32.0,-263.0,38.0,-17.0,61.0,-4.0,0
33.0,-265.0,38.0,-17.0,60.0,-5.0,0
32.0,-261.0,36.0,-17.0,62.0,-3.0,0
28.0,-265.0,40.0,-19.0,60.0,-4.0,0
29.0,-265.0,38.0,-20.0,59.0,-1.0,0
30.0,-262.0,37.0,-20.0,57.0,-4.0,0
29.0,-264.0,37.0,-20.0,57.0,-2.0,0
32.0,-262.0,40.0,-21.0,59.0,-4.0,0
29.0,-264.0,33.0,-22.0,58.0,-1.0,0
30.0,-262.0,37.0,-21.0,58.0,-4.0,0
28.0,-263.0,37.0,-20.0,60.0,-2.0,0
31.0,-262.0,36.0,-19.0,61.0,-3.0,0
29.0,-265.0,39.0,-19.0,60.0,-2.0,0
27.0,-262.0,38.0,-18.0,60.0,-4.0,0
28.0,-265.0,40.0,-18.0,61.0,-2.0,0
30.0,-263.0,37.0,-19.0,62.0,-5.0,0
28.0,-263.0,38.0,-17.0,62.0,-4.0,0
30.0,-263.0,40.0,-18.0,62.0,-6.0,0
29.0,-259.0,37.0,-18.0,63.0,-4.0,0
27.0,-265.0,36.0,-17.0,61.0,-6.0,0
29.0,-262.0,35.0,-15.0,61.0,-5.0,0
31.0,-265.0,35.0,-14.0,61.0,-6.0,0
30.0,-263.0,36.0,-12.0,62.0,-3.0,0
28.0,-262.0,40.0,-11.0,62.0,-6.0,0
30.0,-264.0,36.0,-10.0,63.0,-3.0,0
28.0,-262.0,36.0,-8.0,62.0,-3.0,0
27.0,-261.0,36.0,-9.0,60.0,-2.0,0
25.0,-259.0,36.0,-10.0,61.0,-5.0,0
27.0,-263.0,39.0,-11.0,58.0,-3.0,0
27.0,-262.0,41.0,-13.0,58.0,-6.0,0
28.0,-263.0,36.0,-14.0,59.0,-5.0,0
26.0,-263.0,38.0,-16.0,59.0,-8.0,0
28.0,-262.0,37.0,-19.0,59.0,-8.0,0
31.0,-264.0,38.0,-19.0,60.0,-12.0,0
26.0,-260.0,35.0,-20.0,62.0,-11.0,0
27.0,-263.0,37.0,-18.0,63.0,-14.0,0
28.0,-262.0,38.0,-15.0,63.0,-11.0,0
29.0,-262.0,34.0,-14.0,62.0,-13.0,0
31.0,-265.0,40.0,-13.0,58.0,-10.0,0
30.0,-267.0,34.0,-12.0,56.0,-11.0,0
27.0,-263.0,36.0,-10.0,55.0,-7.0,0
30.0,-266.0,38.0,-6.0,55.0,-7.0,0
27.0,-262.0,37.0,0.0,56.0,-5.0,0
29.0,-260.0,37.0,2.0,57.0,-6.0,0
29.0,-261.0,37.0,2.0,58.0,-3.0,0
30.0,-263.0,37.0,3.0,58.0,-5.0,0
29.0,-258.0,42.0,4.0,60.0,-1.0,0
29.0,-262.0,36.0,1.0,60.0,-4.0,0
31.0,-262.0,36.0,0.0,60.0,-2.0,0
29.0,-262.0,39.0,0.0,60.0,-4.0,0
31.0,-261.0,37.0,-1.0,59.0,-2.0,0
30.0,-262.0,34.0,-1.0,59.0,-4.0,0
30.0,-261.0,39.0,-2.0,60.0,-3.0,0
31.0,-264.0,40.0,-3.0,58.0,-5.0,0
30.0,-261.0,38.0,-4.0,59.0,-3.0,0
28.0,-264.0,36.0,-7.0,58.0,-7.0,0
28.0,-262.0,38.0,-8.0,59.0,-4.0,0
30.0,-265.0,35.0,-10.0,59.0,-6.0,0
28.0,-259.0,37.0,-10.0,59.0,-3.0,0
27.0,-264.0,37.0,-10.0,60.0,-3.0,0
28.0,-261.0,40.0,-11.0,60.0,0.0,0
28.0,-262.0,36.0,-10.0,60.0,-1.0,0
30.0,-263.0,36.0,-8.0,61.0,0.0,0
29.0,-261.0,36.0,-7.0,62.0,-1.0,0
31.0,-260.0,36.0,-5.0,64.0,1.0,0
32.0,-263.0,38.0,-4.0,63.0,-1.0,0
29.0,-262.0,40.0,-3.0,62.0,0.0,0
28.0,-264.0,41.0,-2.0,61.0,-2.0,0
29.0,-262.0,39.0,0.0,61.0,-1.0,0
30.0,-261.0,39.0,-2.0,59.0,-2.0,0
31.0,-262.0,38.0,-4.0,58.0,-1.0,0
30.0,-260.0,36.0,-7.0,57.0,-2.0,0
31.0,-261.0,36.0,-8.0,58.0,0.0,0
29.0,-264.0,37.0,-8.0,61.0,-2.0,0
31.0,-263.0,42.0,-7.0,60.0,1.0,0
29.0,-261.0,37.0,-6.0,61.0,-1.0,0
29.0,-260.0,38.0,-5.0,61.0,2.0,0
29.0,-260.0,37.0,-4.0,61.0,2.0,0
29.0,-264.0,39.0,-3.0,62.0,4.0,0
27.0,-260.0,41.0,-2.0,64.0,3.0,0
28.0,-262.0,34.0,0.0,63.0,6.0,0
29.0,-261.0,39.0,-2.0,63.0,5.0,0
29.0,-260.0,41.0,-3.0,63.0,8.0,0
28.0,-263.0,38.0,-3.0,63.0,6.0,0
30.0,-263.0,38.0,-3.0,64.0,9.0,0
29.0,-263.0,40.0,-4.0,64.0,6.0,0
30.0,-262.0,37.0,-7.0,63.0,7.0,0
31.0,-263.0,39.0,-7.0,63.0,6.0,0
30.0,-263.0,38.0,-10.0,65.0,7.0,0
29.0,-261.0,37.0,-10.0,66.0,5.0,0
32.0,-263.0,38.0,-11.0,66.0,6.0,0
29.0,-268.0,38.0,-13.0,65.0,2.0,0
31.0,-262.0,37.0,-11.0,65.0,3.0,0
31.0,-262.0,38.0,-10.0,64.0,2.0,0
29.0,-261.0,41.0,-7.0,62.0,1.0,0
29.0,-261.0,41.0,-7.0,62.0,-1.0,0
31.0,-262.0,38.0,-6.0,62.0,1.0,0
29.0,-262.0,41.0,-6.0,61.0,0.0,0
28.0,-263.0,36.0,-6.0,62.0,2.0,0
28.0,-264.0,34.0,-5.0,61.0,-1.0,0
25.0,-261.0,34.0,-5.0,61.0,2.0,0
27.0,-262.0,39.0,-6.0,61.0,-1.0,0
29.0,-263.0,40.0,-4.0,62.0,0.0,0
28.0,-262.0,38.0,-5.0,61.0,-2.0,0
28.0,-259.0,38.0,-5.0,64.0,-1.0,0
27.0,-262.0,41.0,-4.0,64.0,-3.0,0
28.0,-259.0,37.0,-6.0,64.0,0.0,0
30.0,-258.0,38.0,-5.0,64.0,-3.0,0
30.0,-265.0,38.0,-7.0,63.0,-2.0,0
25.0,-258.0,38.0,-9.0,63.0,-4.0,0
30.0,-262.0,36.0,-11.0,63.0,-2.0,0
29.0,-259.0,37.0,-12.0,62.0,-3.0,0
31.0,-262.0,39.0,-12.0,62.0,-2.0,0
31.0,-264.0,38.0,-11.0,61.0,-4.0,0
28.0,-261.0,38.0,-12.0,62.0,-2.0,0
30.0,-264.0,36.0,-14.0,65.0,-2.0,0
29.0,-261.0,37.0,-14.0,65.0,-1.0,0
30.0,-263.0,39.0,-15.0,65.0,-2.0,0
32.0,-263.0,39.0,-15.0,65.0,1.0,0
29.0,-261.0,41.0,-13.0,64.0,0.0,0
29.0,-261.0,39.0,-13.0,65.0,2.0,0
29.0,-260.0,38.0,-13.0,64.0,1.0,0
26.0,-260.0,41.0,-14.0,64.0,3.0,0
32.0,-262.0,41.0,-12.0,64.0,1.0,0
29.0,-263.0,38.0,-10.0,63.0,2.0,0
28.0,-262.0,38.0,-8.0,63.0,3.0,0
30.0,-259.0,39.0,-9.0,63.0,2.0,0
26.0,-258.0,37.0,-10.0,62.0,1.0,0
28.0,-263.0,39.0,-11.0,62.0,2.0,0
30.0,-263.0,37.0,-13.0,62.0,1.0,0
29.0,-262.0,36.0,-13.0,63.0,4.0,0
26.0,-261.0,38.0,-14.0,63.0,1.0,0
30.0,-264.0,43.0,-14.0,64.0,3.0,0
27.0,-259.0,39.0,-16.0,62.0,1.0,0
28.0,-265.0,39.0,-14.0,62.0,0.0,0
30.0,-262.0,38.0,-13.0,62.0,-1.0,0
30.0,-263.0,40.0,-13.0,64.0,0.0,0
26.0,-264.0,38.0,-12.0,63.0,0.0,0
25.0,-261.0,36.0,-12.0,63.0,0.0,0
27.0,-263.0,44.0,-13.0,62.0,-1.0,0
29.0,-265.0,41.0,-12.0,61.0,-1.0,0
29.0,-259.0,40.0,-11.0,63.0,-4.0,0
30.0,-260.0,38.0,-13.0,64.0,-3.0,0
28.0,-263.0,41.0,-15.0,63.0,-4.0,0
30.0,-265.0,39.0,-18.0,62.0,-4.0,0
27.0,-260.0,39.0,-16.0,62.0,-3.0,0
31.0,-261.0,41.0,-16.0,60.0,-3.0,0
29.0,-259.0,40.0,-17.0,61.0,-5.0,0
29.0,-261.0,40.0,-19.0,59.0,-4.0,0
28.0,-265.0,37.0,-19.0,59.0,-4.0,0
30.0,-262.0,42.0,-18.0,59.0,-4.0,0
30.0,-265.0,35.0,-17.0,62.0,-3.0,0
31.0,-266.0,38.0,-17.0,60.0,-2.0,0
28.0,-263.0,35.0,-17.0,60.0,-3.0,0
32.0,-261.0,38.0,-16.0,60.0,-5.0,0
27.0,-263.0,40.0,-15.0,60.0,-4.0,0
28.0,-263.0,36.0,-14.0,60.0,-5.0,0
26.0,-260.0,40.0,-14.0,60.0,-5.0,0
29.0,-262.0,39.0,-14.0,62.0,-5.0,0
27.0,-263.0,40.0,-16.0,62.0,-4.0,0
29.0,-262.0,40.0,-16.0,61.0,-4.0,0
26.0,-262.0,42.0,-11.0,60.0,-4.0,0
28.0,-259.0,39.0,-10.0,60.0,-3.0,0
33.0,-261.0,36.0,-8.0,60.0,-1.0,0
28.0,-263.0,40.0,-10.0,59.0,-3.0,0
30.0,-262.0,37.0,-11.0,59.0,-3.0,0
29.0,-262.0,38.0,-10.0,59.0,-4.0,0
32.0,-261.0,35.0,-11.0,58.0,-3.0,0
31.0,-261.0,38.0,-11.0,58.0,-5.0,0
26.0,-261.0,36.0,-12.0,57.0,-4.0,0
30.0,-261.0,43.0,-15.0,58.0,-6.0,0
25.0,-260.0,41.0,-15.0,60.0,-6.0,0
28.0,-262.0,38.0,-18.0,59.0,-8.0,0
28.0,-261.0,39.0,-17.0,60.0,-7.0,0
26.0,-263.0,42.0,-19.0,59.0,-10.0,0
29.0,-263.0,38.0,-19.0,59.0,-10.0,0
26.0,-265.0,35.0,-17.0,59.0,-10.0,0
29.0,-265.0,41.0,-15.0,57.0,-7.0,0
28.0,-264.0,37.0,-14.0,57.0,-7.0,0
29.0,-263.0,36.0,-13.0,56.0,-4.0,0
28.0,-262.0,37.0,-9.0,55.0,-4.0,0
27.0,-263.0,38.0,-7.0,53.0,-2.0,0
32.0,-262.0,40.0,-4.0,51.0,-3.0,0
27.0,-262.0,39.0,-1.0,52.0,-1.0,0
27.0,-262.0,40.0,1.0,53.0,-4.0,0
30.0,-261.0,38.0,0.0,55.0,-3.0,0
29.0,-262.0,37.0,0.0,56.0,-5.0,0
30.0,-257.0,37.0,-2.0,57.0,-4.0,0
30.0,-261.0,37.0,-8.0,57.0,-6.0,0
29.0,-258.0,42.0,-14.0,58.0,-5.0,0
31.0,-262.0,39.0,-16.0,58.0,-7.0,0
30.0,-257.0,40.0,-21.0,60.0,-6.0,0
31.0,-256.0,40.0,-31.0,58.0,-7.0,0
31.0,-262.0,42.0,-41.0,52.0,-8.0,0
29.0,-259.0,39.0,-47.0,47.0,-10.0,0
29.0,-261.0,40.0,-53.0,41.0,-8.0,0
29.0,-259.0,39.0,-60.0,34.0,-8.0,0
31.0,-262.0,37.0,-67.0,29.0,-5.0,0
30.0,-264.0,34.0,-72.0,26.0,-7.0,0
31.0,-264.0,34.0,-75.0,27.0,-5.0,0
28.0,-260.0,35.0,-73.0,32.0,-5.0,0
29.0,-265.0,37.0,-67.0,38.0,-5.0,0
29.0,-265.0,32.0,-59.0,45.0,-7.0,0
31.0,-265.0,36.0,-51.0,50.0,-8.0,0
28.0,-260.0,39.0,-47.0,55.0,-11.0,0
26.0,-259.0,36.0,-51.0,59.0,-10.0,0
27.0,-253.0,35.0,-69.0,62.0,-15.0,0
26.0,-256.0,38.0,-93.0,65.0,-15.0,0
28.0,-256.0,38.0,-118.0,65.0,-20.0,0
27.0,-259.0,37.0,-138.0,65.0,-21.0,0
26.0,-259.0,34.0,-154.0,65.0,-24.0,0
29.0,-262.0,36.0,-166.0,68.0,-23.0,0
28.0,-264.0,34.0,-172.0,70.0,-26.0,0
30.0,-265.0,31.0,-167.0,71.0,-25.0,0
27.0,-265.0,31.0,-155.0,71.0,-27.0,0
28.0,-265.0,38.0,-138.0,68.0,-24.0,0
30.0,-268.0,35.0,-119.0,68.0,-26.0,0
28.0,-264.0,33.0,-100.0,66.0,-21.0,0
30.0,-265.0,33.0,-84.0,63.0,-20.0,0
29.0,-268.0,37.0,-71.0,58.0,-16.0,0
32.0,-263.0,34.0,-60.0,54.0,-15.0,0
28.0,-262.0,36.0,-51.0,50.0,-11.0,0
28.0,-260.0,37.0,-47.0,49.0,-11.0,0
29.0,-263.0,35.0,-45.0,48.0,-9.0,0
28.0,-259.0,36.0,-44.0,45.0,-10.0,0
31.0,-263.0,40.0,-42.0,45.0,-6.0,0
30.0,-261.0,35.0,-40.0,46.0,-9.0,0
32.0,-264.0,39.0,-39.0,47.0,-7.0,0
30.0,-263.0,34.0,-38.0,49.0,-9.0,0
32.0,-265.0,36.0,-33.0,50.0,-7.0,0
32.0,-264.0,34.0,-27.0,50.0,-9.0,0
29.0,-262.0,38.0,-22.0,51.0,-8.0,0
31.0,-262.0,37.0,-18.0,53.0,-10.0,0
31.0,-263.0,38.0,-12.0,55.0,-7.0,0
30.0,-261.0,35.0,-7.0,54.0,-9.0,0
28.0,-265.0,36.0,-4.0,54.0,-6.0,0
31.0,-263.0,38.0,-1.0,53.0,-8.0,0
33.0,-254.0,35.0,2.0,53.0,-4.0,0
33.0,-263.0,32.0,6.0,53.0,-6.0,0
32.0,-263.0,35.0,9.0,56.0,-2.0,0
28.0,-260.0,38.0,11.0,58.0,-4.0,0
30.0,-260.0,40.0,9.0,59.0,-3.0,0
29.0,-260.0,42.0,9.0,60.0,-5.0,0
31.0,-262.0,41.0,4.0,60.0,-2.0,0
30.0,-260.0,39.0,1.0,60.0,-4.0,0
29.0,-260.0,41.0,-4.0,60.0,-1.0,0
30.0,-260.0,37.0,-11.0,59.0,-2.0,0
28.0,-259.0,41.0,-18.0,59.0,0.0,0
30.0,-255.0,42.0,-25.0,56.0,0.0,0
28.0,-260.0,42.0,-34.0,55.0,4.0,0
25.0,-257.0,40.0,-39.0,54.0,2.0,0
29.0,-258.0,39.0,-43.0,55.0,6.0,0
27.0,-260.0,38.0,-48.0,56.0,6.0,0
27.0,-260.0,38.0,-52.0,56.0,11.0,0
25.0,-259.0,37.0,-56.0,54.0,10.0,0
30.0,-259.0,37.0,-58.0,53.0,15.0,0
29.0,-258.0,34.0,-62.0,53.0,13.0,0
30.0,-259.0,44.0,-64.0,53.0,17.0,0
27.0,-259.0,32.0,-68.0,52.0,16.0,0
26.0,-256.0,39.0,-73.0,51.0,20.0,0
29.0,-259.0,35.0,-77.0,49.0,19.0,0
34.0,-259.0,37.0,-80.0,49.0,22.0,0
29.0,-260.0,36.0,-82.0,50.0,22.0,0
27.0,-260.0,37.0,-83.0,50.0,24.0,0
29.0,-263.0,37.0,-85.0,49.0,22.0,0
32.0,-263.0,30.0,-88.0,49.0,25.0,0
29.0,-260.0,33.0,-91.0,47.0,22.0,0
34.0,-263.0,33.0,-92.0,46.0,23.0,0
35.0,-261.0,33.0,-93.0,44.0,18.0,0
33.0,-265.0,35.0,-94.0,43.0,18.0,0
33.0,-265.0,33.0,-94.0,41.0,12.0,0
31.0,-262.0,38.0,-94.0,39.0,11.0,0
30.0,-263.0,31.0,-96.0,37.0,5.0,0
31.0,-264.0,35.0,-98.0,36.0,4.0,0
28.0,-261.0,32.0,-103.0,36.0,1.0,0
25.0,-263.0,33.0,-108.0,34.0,1.0,0
26.0,-259.0,31.0,-112.0,32.0,-3.0,0
25.0,-265.0,31.0,-114.0,33.0,0.0,0
24.0,-266.0,33.0,-113.0,32.0,-4.0,0
27.0,-266.0,32.0,-113.0,33.0,-2.0,0
23.0,-264.0,31.0,-114.0,33.0,-4.0,0
27.0,-261.0,32.0,-113.0,33.0,-1.0,0
26.0,-266.0,35.0,-112.0,33.0,-3.0,0
24.0,-262.0,29.0,-109.0,33.0,-1.0,0
29.0,-265.0,31.0,-108.0,34.0,-3.0,0
28.0,-263.0,28.0,-105.0,34.0,-2.0,0
27.0,-268.0,28.0,-105.0,35.0,-3.0,0
27.0,-265.0,25.0,-102.0,34.0,-3.0,0
27.0,-266.0,28.0,-98.0,34.0,-5.0,0
25.0,-265.0,27.0,-95.0,37.0,-6.0,0
28.0,-265.0,31.0,-95.0,37.0,-10.0,0
29.0,-266.0,32.0,-95.0,34.0,-8.0,0
30.0,-266.0,34.0,-94.0,29.0,-12.0,0
29.0,-264.0,28.0,-94.0,29.0,-14.0,0
30.0,-266.0,28.0,-98.0,28.0,-17.0,0
30.0,-267.0,30.0,-100.0,26.0,-19.0,0
28.0,-264.0,31.0,-101.0,26.0,-22.0,0
28.0,-265.0,25.0,-101.0,26.0,-22.0,0
27.0,-263.0,28.0,-101.0,23.0,-24.0,0
26.0,-264.0,26.0,-99.0,20.0,-23.0,0
27.0,-263.0,27.0,-99.0,17.0,-26.0,0
27.0,-260.0,27.0,-102.0,15.0,-24.0,0
27.0,-265.0,28.0,-103.0,15.0,-27.0,0
27.0,-264.0,30.0,-104.0,14.0,-26.0,0
25.0,-263.0,28.0,-104.0,13.0,-28.0,0
29.0,-265.0,28.0,-105.0,13.0,-27.0,0
28.0,-263.0,29.0,-105.0,17.0,-28.0,0
29.0,-262.0,30.0,-102.0,21.0,-27.0,0
28.0,-260.0,29.0,-102.0,23.0,-27.0,0
29.0,-263.0,30.0,-104.0,23.0,-23.0,0
28.0,-263.0,29.0,-108.0,24.0,-27.0,0
30.0,-264.0,32.0,-111.0,22.0,-22.0,0
28.0,-261.0,35.0,-117.0,21.0,-23.0,0
26.0,-262.0,32.0,-121.0,20.0,-22.0,0
33.0,-263.0,30.0,-128.0,20.0,-23.0,0
27.0,-257.0,30.0,-135.0,20.0,-23.0,0
30.0,-262.0,28.0,-140.0,19.0,-26.0,0
30.0,-263.0,30.0,-148.0,19.0,-25.0,0
33.0,-262.0,33.0,-157.0,18.0,-28.0,0
31.0,-261.0,30.0,-165.0,17.0,-27.0,0
29.0,-259.0,35.0,-176.0,17.0,-31.0,0
30.0,-261.0,30.0,-186.0,16.0,-29.0,0
29.0,-261.0,34.0,-193.0,16.0,-30.0,0
29.0,-264.0,30.0,-201.0,15.0,-29.0,0
32.0,-264.0,26.0,-205.0,15.0,-29.0,0
30.0,-259.0,25.0,-209.0,13.0,-27.0,0
31.0,-261.0,28.0,-213.0,11.0,-24.0,0
34.0,-267.0,22.0,-221.0,9.0,-22.0,0
33.0,-261.0,26.0,-229.0,8.0,-22.0,0
30.0,-260.0,23.0,-235.0,8.0,-20.0,0
32.0,-261.0,22.0,-242.0,8.0,-21.0,0
33.0,-262.0,23.0,-249.0,8.0,-17.0,0
33.0,-264.0,24.0,-254.0,10.0,-17.0,0
32.0,-262.0,23.0,-260.0,11.0,-17.0,0
33.0,-259.0,24.0,-268.0,12.0,-16.0,0
31.0,-259.0,23.0,-274.0,14.0,-15.0,0
32.0,-259.0,21.0,-283.0,18.0,-15.0,0
32.0,-263.0,26.0,-290.0,18.0,-15.0,0
34.0,-260.0,21.0,-296.0,19.0,-15.0,0
32.0,-262.0,18.0,-305.0,21.0,-15.0,0
34.0,-261.0,19.0,-315.0,20.0,-16.0,0
35.0,-263.0,20.0,-324.0,17.0,-18.0,0
34.0,-261.0,21.0,-335.0,15.0,-19.0,0
34.0,-262.0,20.0,-341.0,13.0,-21.0,0
34.0,-261.0,15.0,-350.0,12.0,-22.0,0
34.0,-263.0,16.0,-358.0,12.0,-25.0,0
32.0,-263.0,16.0,-365.0,11.0,-26.0,0
34.0,-266.0,15.0,-369.0,11.0,-27.0,0
32.0,-263.0,14.0,-373.0,10.0,-28.0,0
29.0,-263.0,12.0,-378.0,11.0,-27.0,0
35.0,-266.0,10.0,-381.0,13.0,-27.0,0
29.0,-261.0,13.0,-386.0,13.0,-24.0,0
34.0,-263.0,9.0,-394.0,14.0,-22.0,0
33.0,-265.0,7.0,-397.0,13.0,-19.0,0
33.0,-264.0,10.0,-402.0,12.0,-19.0,0
33.0,-265.0,10.0,-404.0,9.0,-16.0,0
32.0,-265.0,5.0,-407.0,7.0,-16.0,0
32.0,-265.0,10.0,-411.0,5.0,-16.0,0
34.0,-266.0,5.0,-417.0,5.0,-15.0,0
32.0,-263.0,3.0,-422.0,6.0,-14.0,0
33.0,-264.0,3.0,-427.0,5.0,-14.0,0
33.0,-266.0,1.0,-430.0,5.0,-16.0,0
32.0,-262.0,3.0,-433.0,5.0,-13.0,0
32.0,-267.0,6.0,-435.0,2.0,-14.0,0
29.0,-264.0,3.0,-436.0,3.0,-12.0,0
31.0,-268.0,2.0,-440.0,3.0,-12.0,0
33.0,-268.0,5.0,-442.0,0.0,-13.0,0
32.0,-267.0,0.0,-446.0,-4.0,-12.0,0
32.0,-269.0,0.0,-453.0,-7.0,-12.0,0
31.0,-267.0,0.0,-461.0,-10.0,-12.0,0
35.0,-268.0,2.0,-468.0,-13.0,-12.0,0
32.0,-267.0,4.0,-474.0,-16.0,-12.0,0
32.0,-268.0,1.0,-481.0,-18.0,-9.0,0
31.0,-266.0,-1.0,-487.0,-19.0,-13.0,0
32.0,-267.0,0.0,-498.0,-21.0,-11.0,0
35.0,-266.0,0.0,-508.0,-23.0,-12.0,0
31.0,-266.0,0.0,-518.0,-25.0,-11.0,0
32.0,-267.0,-3.0,-525.0,-26.0,-10.0,0
32.0,-267.0,-3.0,-534.0,-29.0,-9.0,0
34.0,-269.0,-4.0,-545.0,-31.0,-11.0,0
31.0,-269.0,-4.0,-551.0,-31.0,-12.0,0
32.0,-268.0,-5.0,-558.0,-31.0,-15.0,0
33.0,-271.0,-3.0,-567.0,-35.0,-15.0,0
33.0,-269.0,-11.0,-573.0,-38.0,-17.0,0
30.0,-269.0,-8.0,-577.0,-37.0,-18.0,0
28.0,-269.0,-9.0,-580.0,-39.0,-21.0,0
32.0,-266.0,-16.0,-585.0,-41.0,-22.0,0
28.0,-268.0,-13.0,-590.0,-40.0,-23.0,0
32.0,-273.0,-12.0,-594.0,-42.0,-24.0,0
32.0,-272.0,-17.0,-600.0,-41.0,-27.0,0
33.0,-270.0,-18.0,-609.0,-41.0,-27.0,0
30.0,-271.0,-10.0,-615.0,-37.0,-29.0,0
30.0,-272.0,-17.0,-620.0,-37.0,-29.0,0
28.0,-272.0,-19.0,-623.0,-38.0,-31.0,0
30.0,-271.0,-20.0,-627.0,-39.0,-27.0,0
31.0,-272.0,-17.0,-630.0,-38.0,-26.0,0
29.0,-267.0,-19.0,-633.0,-38.0,-24.0,0
28.0,-267.0,-25.0,-635.0,-42.0,-26.0,0
28.0,-268.0,-23.0,-642.0,-46.0,-25.0,0
28.0,-264.0,-29.0,-651.0,-48.0,-26.0,0
30.0,-266.0,-25.0,-660.0,-51.0,-26.0,0
33.0,-266.0,-22.0,-663.0,-51.0,-30.0,0
33.0,-270.0,-25.0,-672.0,-45.0,-29.0,0
31.0,-271.0,-26.0,-676.0,-42.0,-34.0,0
34.0,-270.0,-25.0,-685.0,-41.0,-33.0,0
34.0,-270.0,-30.0,-694.0,-39.0,-38.0,0
36.0,-270.0,-29.0,-708.0,-34.0,-37.0,0
35.0,-273.0,-31.0,-721.0,-33.0,-39.0,0
36.0,-268.0,-30.0,-731.0,-31.0,-37.0,0
38.0,-270.0,-35.0,-740.0,-29.0,-40.0,0
37.0,-269.0,-31.0,-754.0,-29.0,-41.0,0
38.0,-272.0,-28.0,-764.0,-26.0,-44.0,0
37.0,-274.0,-32.0,-776.0,-24.0,-42.0,0
39.0,-275.0,-35.0,-784.0,-25.0,-45.0,0
41.0,-275.0,-37.0,-791.0,-26.0,-44.0,0
38.0,-273.0,-36.0,-802.0,-24.0,-48.0,0
40.0,-270.0,-37.0,-813.0,-20.0,-45.0,0
41.0,-270.0,-44.0,-826.0,-20.0,-48.0,0
38.0,-272.0,-44.0,-841.0,-20.0,-47.0,0
38.0,-271.0,-45.0,-854.0,-19.0,-50.0,0
36.0,-272.0,-45.0,-864.0,-17.0,-48.0,0
36.0,-275.0,-51.0,-866.0,-18.0,-50.0,0
34.0,-275.0,-48.0,-868.0,-19.0,-45.0,0
39.0,-276.0,-53.0,-867.0,-17.0,-43.0,0
37.0,-275.0,-55.0,-863.0,-21.0,-38.0,0
40.0,-274.0,-57.0,-863.0,-25.0,-38.0,0
37.0,-273.0,-62.0,-860.0,-26.0,-35.0,0
37.0,-274.0,-58.0,-860.0,-28.0,-36.0,0
36.0,-274.0,-60.0,-859.0,-29.0,-33.0,0
35.0,-272.0,-61.0,-860.0,-29.0,-34.0,0
34.0,-272.0,-55.0,-868.0,-27.0,-30.0,0
32.0,-272.0,-59.0,-878.0,-25.0,-30.0,0
34.0,-275.0,-59.0,-883.0,-21.0,-24.0,0
29.0,-272.0,-63.0,-891.0,-18.0,-24.0,0
34.0,-272.0,-64.0,-897.0,-16.0,-18.0,0
37.0,-270.0,-64.0,-900.0,-13.0,-16.0,0
31.0,-269.0,-71.0,-902.0,-10.0,-11.0,0
35.0,-274.0,-68.0,-900.0,-14.0,-9.0,0
36.0,-275.0,-72.0,-895.0,-14.0,-7.0,0
38.0,-276.0,-78.0,-890.0,-11.0,-11.0,0
40.0,-278.0,-77.0,-886.0,-7.0,-12.0,0
37.0,-279.0,-78.0,-878.0,6.0,-20.0,0
36.0,-283.0,-76.0,-864.0,11.0,-23.0,0
38.0,-283.0,-74.0,-846.0,15.0,-27.0,0
41.0,-283.0,-80.0,-828.0,14.0,-29.0,0
39.0,-279.0,-83.0,-818.0,12.0,-32.0,0
40.0,-279.0,-88.0,-811.0,12.0,-33.0,0
37.0,-278.0,-84.0,-797.0,14.0,-37.0,0
38.0,-278.0,-86.0,-783.0,16.0,-33.0,0
40.0,-277.0,-86.0,-771.0,19.0,-31.0,0
40.0,-277.0,-87.0,-760.0,26.0,-23.0,0
39.0,-278.0,-89.0,-748.0,37.0,-18.0,0
39.0,-278.0,-92.0,-733.0,44.0,-7.0,0
38.0,-280.0,-91.0,-719.0,47.0,-3.0,0
38.0,-280.0,-95.0,-705.0,48.0,6.0,0
37.0,-285.0,-96.0,-689.0,48.0,12.0,0
37.0,-285.0,-97.0,-668.0,51.0,23.0,0
40.0,-285.0,-97.0,-642.0,55.0,28.0,0
39.0,-288.0,-97.0,-614.0,56.0,35.0,0
41.0,-285.0,-100.0,-587.0,57.0,37.0,0
39.0,-284.0,-99.0,-565.0,57.0,41.0,0
38.0,-283.0,-104.0,-544.0,62.0,44.0,0
43.0,-283.0,-105.0,-527.0,64.0,52.0,0
41.0,-278.0,-109.0,-517.0,65.0,53.0,0
43.0,-278.0,-117.0,-504.0,68.0,57.0,0
38.0,-278.0,-110.0,-497.0,72.0,56.0,0
35.0,-277.0,-110.0,-484.0,81.0,53.0,0
36.0,-282.0,-110.0,-482.0,88.0,50.0,0
30.0,-281.0,-112.0,-486.0,88.0,52.0,0
31.0,-281.0,-109.0,-486.0,84.0,51.0,0
30.0,-284.0,-110.0,-478.0,84.0,53.0,0
32.0,-284.0,-112.0,-465.0,80.0,49.0,0
32.0,-287.0,-114.0,-448.0,79.0,47.0,0
29.0,-290.0,-112.0,-435.0,78.0,45.0,0
32.0,-285.0,-113.0,-414.0,74.0,49.0,0
33.0,-281.0,-113.0,-391.0,69.0,49.0,0
34.0,-280.0,-121.0,-369.0,63.0,52.0,0
33.0,-277.0,-121.0,-357.0,59.0,51.0,0
35.0,-276.0,-117.0,-345.0,60.0,55.0,0
35.0,-276.0,-112.0,-338.0,63.0,52.0,0
36.0,-276.0,-110.0,-327.0,69.0,56.0,0
38.0,-275.0,-113.0,-313.0,76.0,57.0,0
37.0,-275.0,-111.0,-297.0,83.0,61.0,0
36.0,-274.0,-112.0,-280.0,91.0,62.0,0
33.0,-273.0,-113.0,-267.0,97.0,66.0,0
33.0,-272.0,-117.0,-256.0,104.0,68.0,0
34.0,-270.0,-114.0,-242.0,106.0,74.0,0
33.0,-272.0,-115.0,-232.0,108.0,75.0,0
36.0,-272.0,-115.0,-220.0,112.0,81.0,0
37.0,-269.0,-113.0,-205.0,113.0,82.0,0
36.0,-270.0,-111.0,-192.0,112.0,88.0,0
37.0,-269.0,-114.0,-185.0,113.0,91.0,0
43.0,-270.0,-109.0,-175.0,116.0,98.0,0
36.0,-267.0,-112.0,-166.0,120.0,101.0,0
34.0,-266.0,-112.0,-157.0,126.0,108.0,0
34.0,-266.0,-117.0,-149.0,131.0,111.0,0
36.0,-266.0,-117.0,-140.0,141.0,118.0,0
34.0,-271.0,-114.0,-136.0,144.0,118.0,0
34.0,-267.0,-112.0,-128.0,146.0,124.0,0
34.0,-265.0,-118.0,-120.0,146.0,124.0,0
33.0,-263.0,-117.0,-112.0,145.0,128.0,0
29.0,-262.0,-118.0,-104.0,144.0,132.0,0
29.0,-259.0,-115.0,-101.0,143.0,138.0,0
29.0,-264.0,-117.0,-98.0,145.0,142.0,0
27.0,-264.0,-117.0,-92.0,144.0,148.0,0
27.0,-266.0,-121.0,-82.0,143.0,150.0,0
29.0,-266.0,-127.0,-74.0,142.0,153.0,0
28.0,-264.0,-121.0,-67.0,143.0,153.0,0
31.0,-263.0,-122.0,-59.0,141.0,154.0,0
30.0,-264.0,-121.0,-50.0,137.0,149.0,0
33.0,-262.0,-125.0,-43.0,137.0,152.0,0
29.0,-261.0,-120.0,-40.0,133.0,150.0,0
28.0,-262.0,-118.0,-43.0,132.0,150.0,0
28.0,-263.0,-121.0,-41.0,131.0,149.0,0
26.0,-260.0,-117.0,-37.0,122.0,149.0,0
26.0,-262.0,-121.0,-31.0,123.0,148.0,0
26.0,-266.0,-119.0,-31.0,127.0,149.0,0
20.0,-262.0,-120.0,-39.0,127.0,143.0,0
20.0,-266.0,-119.0,-44.0,126.0,139.0,0
26.0,-268.0,-115.0,-47.0,117.0,132.0,0
27.0,-269.0,-121.0,-43.0,108.0,128.0,0
27.0,-270.0,-123.0,-40.0,101.0,123.0,0
33.0,-273.0,-122.0,-32.0,99.0,120.0,0
30.0,-266.0,-119.0,-23.0,104.0,118.0,0
30.0,-267.0,-116.0,-13.0,111.0,120.0,0
29.0,-268.0,-119.0,-6.0,115.0,121.0,0
30.0,-266.0,-117.0,-1.0,118.0,125.0,0
27.0,-267.0,-112.0,3.0,119.0,124.0,0
28.0,-266.0,-117.0,8.0,121.0,127.0,0
27.0,-262.0,-118.0,8.0,118.0,125.0,0
27.0,-265.0,-115.0,8.0,112.0,124.0,0
29.0,-267.0,-112.0,6.0,107.0,123.0,0
29.0,-268.0,-115.0,3.0,107.0,121.0,0
29.0,-265.0,-116.0,1.0,111.0,118.0,0
26.0,-264.0,-116.0,-1.0,117.0,114.0,0
25.0,-265.0,-118.0,-2.0,118.0,111.0,0
24.0,-264.0,-120.0,-5.0,119.0,108.0,0
26.0,-266.0,-113.0,-2.0,121.0,106.0,0
23.0,-262.0,-117.0,8.0,123.0,104.0,0
28.0,-264.0,-112.0,21.0,121.0,102.0,0
20.0,-262.0,-112.0,33.0,121.0,97.0,0
21.0,-261.0,-113.0,44.0,119.0,94.0,0
22.0,-258.0,-108.0,55.0,117.0,89.0,0
19.0,-262.0,-110.0,67.0,117.0,86.0,0
24.0,-263.0,-108.0,79.0,120.0,84.0,0
19.0,-263.0,-105.0,92.0,124.0,80.0,0
17.0,-262.0,-104.0,104.0,131.0,79.0,0
16.0,-261.0,-106.0,115.0,134.0,75.0,0
20.0,-261.0,-103.0,127.0,135.0,74.0,0
22.0,-259.0,-100.0,134.0,135.0,72.0,0
20.0,-261.0,-101.0,141.0,130.0,70.0,0
19.0,-262.0,-98.0,147.0,127.0,70.0,0
22.0,-261.0,-100.0,155.0,125.0,68.0,0
21.0,-260.0,-99.0,160.0,123.0,69.0,0
22.0,-258.0,-99.0,170.0,121.0,69.0,0
21.0,-256.0,-96.0,180.0,118.0,73.0,0
23.0,-260.0,-95.0,192.0,113.0,77.0,0
25.0,-258.0,-93.0,205.0,108.0,79.0,0
23.0,-256.0,-98.0,216.0,104.0,82.0,0
21.0,-259.0,-95.0,228.0,99.0,85.0,0
22.0,-256.0,-97.0,238.0,96.0,86.0,0
24.0,-259.0,-97.0,249.0,93.0,87.0,0
21.0,-256.0,-99.0,256.0,92.0,86.0,0
18.0,-259.0,-98.0,259.0,93.0,86.0,0
21.0,-259.0,-99.0,266.0,96.0,85.0,0
20.0,-259.0,-93.0,276.0,96.0,86.0,0
22.0,-260.0,-95.0,287.0,96.0,85.0,0
21.0,-258.0,-96.0,299.0,90.0,84.0,0
20.0,-258.0,-94.0,306.0,86.0,84.0,0
20.0,-259.0,-94.0,313.0,82.0,83.0,0
22.0,-255.0,-94.0,318.0,78.0,80.0,0
21.0,-256.0,-96.0,323.0,78.0,79.0,0
20.0,-254.0,-98.0,324.0,77.0,78.0,0
23.0,-256.0,-98.0,325.0,80.0,77.0,0
17.0,-252.0,-93.0,326.0,81.0,76.0,0
19.0,-255.0,-96.0,331.0,84.0,74.0,0
18.0,-252.0,-93.0,336.0,85.0,70.0,0
19.0,-254.0,-95.0,337.0,87.0,70.0,0
18.0,-252.0,-94.0,338.0,87.0,70.0,0
17.0,-249.0,-94.0,343.0,88.0,71.0,0
18.0,-249.0,-91.0,342.0,87.0,70.0,0
18.0,-251.0,-90.0,343.0,85.0,71.0,0
18.0,-250.0,-94.0,346.0,88.0,69.0,0
18.0,-249.0,-95.0,350.0,88.0,70.0,0
17.0,-250.0,-91.0,351.0,88.0,67.0,0
17.0,-246.0,-92.0,352.0,88.0,69.0,0
21.0,-244.0,-89.0,346.0,87.0,70.0,0
17.0,-247.0,-94.0,337.0,85.0,71.0,0
17.0,-249.0,-94.0,329.0,83.0,69.0,0
17.0,-248.0,-85.0,328.0,83.0,68.0,0
18.0,-251.0,-85.0,327.0,81.0,64.0,0
13.0,-258.0,-94.0,326.0,78.0,66.0,0
15.0,-244.0,-94.0,324.0,72.0,66.0,0
16.0,-243.0,-92.0,321.0,66.0,69.0,0
14.0,-242.0,-90.0,320.0,65.0,68.0,0
13.0,-243.0,-88.0,325.0,64.0,71.0,0
12.0,-244.0,-90.0,338.0,63.0,73.0,0
17.0,-242.0,-87.0,349.0,65.0,81.0,0
15.0,-242.0,-87.0,357.0,63.0,80.0,0
15.0,-236.0,-87.0,361.0,64.0,87.0,0
17.0,-238.0,-90.0,367.0,64.0,87.0,0
19.0,-235.0,-89.0,371.0,63.0,92.0,0
19.0,-234.0,-86.0,375.0,63.0,92.0,0
18.0,-232.0,-89.0,377.0,63.0,95.0,0
22.0,-237.0,-90.0,375.0,64.0,90.0,0
22.0,-237.0,-89.0,374.0,64.0,91.0,0
17.0,-235.0,-87.0,371.0,65.0,87.0,0
18.0,-239.0,-87.0,367.0,64.0,86.0,0
19.0,-241.0,-84.0,364.0,63.0,80.0,0
18.0,-240.0,-83.0,364.0,64.0,76.0,0
16.0,-246.0,-82.0,368.0,63.0,70.0,0
18.0,-247.0,-79.0,371.0,58.0,68.0,0
17.0,-248.0,-82.0,376.0,55.0,60.0,0
13.0,-245.0,-86.0,381.0,55.0,59.0,0
14.0,-244.0,-82.0,386.0,54.0,53.0,0
14.0,-244.0,-80.0,396.0,51.0,52.0,0
17.0,-247.0,-87.0,404.0,50.0,45.0,0
14.0,-246.0,-84.0,406.0,51.0,43.0,0
16.0,-245.0,-85.0,409.0,54.0,37.0,0
11.0,-244.0,-82.0,413.0,55.0,36.0,0
15.0,-243.0,-85.0,415.0,58.0,32.0,0
17.0,-245.0,-82.0,412.0,61.0,33.0,0
14.0,-242.0,-87.0,407.0,63.0,30.0,0
17.0,-245.0,-77.0,402.0,67.0,31.0,0
16.0,-241.0,-77.0,399.0,71.0,29.0,0
18.0,-248.0,-78.0,395.0,74.0,31.0,0
16.0,-246.0,-78.0,394.0,76.0,27.0,0
19.0,-249.0,-76.0,394.0,75.0,27.0,0
17.0,-246.0,-81.0,398.0,69.0,23.0,0
17.0,-250.0,-79.0,401.0,68.0,25.0,0
15.0,-252.0,-77.0,404.0,65.0,23.0,0
14.0,-254.0,-77.0,407.0,59.0,25.0,0
12.0,-252.0,-76.0,412.0,54.0,21.0,0
9.0,-253.0,-75.0,419.0,51.0,24.0,0
7.0,-256.0,-76.0,425.0,50.0,22.0,0
4.0,-260.0,-74.0,430.0,46.0,26.0,0
4.0,-265.0,-72.0,441.0,38.0,25.0,0
5.0,-265.0,-70.0,449.0,31.0,31.0,0
3.0,-267.0,-71.0,460.0,25.0,32.0,0
4.0,-269.0,-70.0,470.0,20.0,40.0,0
3.0,-266.0,-64.0,480.0,15.0,42.0,0
7.0,-267.0,-66.0,491.0,12.0,48.0,0
10.0,-267.0,-63.0,499.0,8.0,46.0,0
10.0,-267.0,-65.0,506.0,8.0,50.0,0
13.0,-265.0,-65.0,512.0,9.0,45.0,0
15.0,-264.0,-65.0,516.0,10.0,43.0,0
16.0,-261.0,-66.0,518.0,9.0,35.0,0
21.0,-260.0,-67.0,516.0,9.0,31.0,0
22.0,-256.0,-67.0,509.0,8.0,21.0,0
23.0,-257.0,-68.0,503.0,15.0,13.0,0
24.0,-254.0,-65.0,496.0,22.0,2.0,0
25.0,-253.0,-70.0,491.0,26.0,-2.0,0
24.0,-254.0,-61.0,486.0,27.0,-14.0,0
25.0,-250.0,-62.0,478.0,26.0,-20.0,0
21.0,-251.0,-64.0,463.0,27.0,-31.0,0
24.0,-252.0,-58.0,446.0,29.0,-39.0,0
23.0,-251.0,-62.0,426.0,30.0,-50.0,0
18.0,-250.0,-59.0,409.0,32.0,-56.0,0
16.0,-253.0,-60.0,394.0,32.0,-62.0,0
12.0,-251.0,-58.0,379.0,31.0,-64.0,0
10.0,-250.0,-54.0,367.0,32.0,-70.0,0
10.0,-250.0,-57.0,360.0,30.0,-69.0,0
11.0,-248.0,-58.0,354.0,28.0,-73.0,0
10.0,-250.0,-58.0,347.0,28.0,-69.0,0
7.0,-247.0,-54.0,337.0,28.0,-73.0,0
6.0,-249.0,-55.0,329.0,27.0,-70.0,0
11.0,-247.0,-54.0,314.0,25.0,-73.0,0
6.0,-251.0,-52.0,298.0,22.0,-71.0,0
5.0,-252.0,-50.0,294.0,21.0,-80.0,0
6.0,-248.0,-57.0,286.0,9.0,-79.0,0
11.0,-250.0,-56.0,273.0,0.0,-79.0,0
13.0,-254.0,-50.0,257.0,-9.0,-73.0,0
8.0,-251.0,-53.0,242.0,-16.0,-70.0,0
14.0,-253.0,-52.0,232.0,-21.0,-63.0,0
15.0,-254.0,-55.0,223.0,-28.0,-60.0,0
15.0,-252.0,-56.0,213.0,-31.0,-54.0,0
15.0,-252.0,-53.0,204.0,-37.0,-52.0,0
15.0,-252.0,-54.0,195.0,-43.0,-48.0,0
20.0,-253.0,-53.0,186.0,-44.0,-50.0,0
19.0,-254.0,-53.0,177.0,-44.0,-48.0,0
22.0,-253.0,-54.0,166.0,-43.0,-50.0,0
22.0,-252.0,-53.0,151.0,-41.0,-51.0,0
24.0,-255.0,-56.0,137.0,-36.0,-55.0,0
22.0,-256.0,-59.0,123.0,-28.0,-54.0,0
25.0,-259.0,-54.0,114.0,-17.0,-58.0,0
28.0,-259.0,-57.0,108.0,-5.0,-56.0,0
25.0,-263.0,-58.0,106.0,4.0,-60.0,0
22.0,-262.0,-58.0,109.0,13.0,-55.0,0
23.0,-266.0,-53.0,111.0,16.0,-54.0,0
22.0,-265.0,-53.0,111.0,16.0,-50.0,0
21.0,-262.0,-53.0,111.0,19.0,-49.0,0
23.0,-266.0,-52.0,112.0,22.0,-44.0,0
19.0,-263.0,-49.0,114.0,26.0,-43.0,0
20.0,-261.0,-49.0,115.0,29.0,-38.0,0
19.0,-261.0,-53.0,114.0,33.0,-36.0,0
16.0,-262.0,-51.0,111.0,36.0,-32.0,0
16.0,-258.0,-54.0,107.0,41.0,-31.0,0
17.0,-257.0,-51.0,103.0,43.0,-25.0,0
16.0,-257.0,-51.0,99.0,44.0,-23.0,0
16.0,-256.0,-51.0,91.0,47.0,-20.0,0
13.0,-254.0,-50.0,80.0,51.0,-17.0,0
17.0,-255.0,-52.0,70.0,55.0,-13.0,0
16.0,-256.0,-53.0,58.0,56.0,-11.0,0
17.0,-256.0,-50.0,45.0,58.0,-6.0,0
24.0,-259.0,-52.0,36.0,61.0,-5.0,0
23.0,-259.0,-54.0,28.0,64.0,-1.0,0
22.0,-259.0,-48.0,25.0,69.0,1.0,0
20.0,-260.0,-53.0,21.0,74.0,6.0,0
23.0,-261.0,-46.0,16.0,81.0,5.0,0
24.0,-256.0,-49.0,10.0,85.0,7.0,0
25.0,-260.0,-52.0,1.0,87.0,4.0,0
25.0,-263.0,-46.0,-5.0,94.0,2.0,0
24.0,-264.0,-45.0,-12.0,100.0,-1.0,0
22.0,-261.0,-44.0,-17.0,102.0,-3.0,0
22.0,-262.0,-43.0,-23.0,104.0,-8.0,0
22.0,-263.0,-46.0,-28.0,104.0,-9.0,0
21.0,-265.0,-46.0,-33.0,107.0,-11.0,0
16.0,-263.0,-49.0,-34.0,108.0,-9.0,0
17.0,-264.0,-48.0,-35.0,111.0,-9.0,0
18.0,-262.0,-47.0,-35.0,114.0,-9.0,0
18.0,-262.0,-50.0,-37.0,116.0,-12.0,0
16.0,-262.0,-48.0,-38.0,118.0,-10.0,0
17.0,-260.0,-45.0,-42.0,121.0,-13.0,0
17.0,-261.0,-47.0,-45.0,121.0,-14.0,0
16.0,-261.0,-47.0,-52.0,117.0,-16.0,0
14.0,-261.0,-47.0,-59.0,115.0,-15.0,0
15.0,-261.0,-48.0,-61.0,116.0,-16.0,0
15.0,-264.0,-44.0,-61.0,115.0,-16.0,0
16.0,-264.0,-48.0,-57.0,117.0,-17.0,0
17.0,-263.0,-43.0,-51.0,118.0,-16.0,0
16.0,-265.0,-45.0,-50.0,117.0,-16.0,0
19.0,-266.0,-43.0,-51.0,117.0,-16.0,0
16.0,-265.0,-46.0,-52.0,117.0,-14.0,0
21.0,-261.0,-44.0,-50.0,115.0,-13.0,0
19.0,-262.0,-43.0,-48.0,112.0,-12.0,0
17.0,-264.0,-46.0,-47.0,108.0,-7.0,0
18.0,-263.0,-44.0,-46.0,105.0,-6.0,0
19.0,-265.0,-43.0,-45.0,100.0,-3.0,0
19.0,-262.0,-44.0,-47.0,92.0,-2.0,0
18.0,-266.0,-45.0,-50.0,86.0,-2.0,0
18.0,-264.0,-45.0,-53.0,84.0,-2.0,0
17.0,-267.0,-46.0,-53.0,82.0,-2.0,0
19.0,-266.0,-43.0,-53.0,82.0,-2.0,0
17.0,-264.0,-45.0,-52.0,80.0,-1.0,0
19.0,-265.0,-46.0,-50.0,83.0,-2.0,0
16.0,-262.0,-44.0,-46.0,83.0,1.0,0
18.0,-264.0,-41.0,-43.0,84.0,-1.0,0
16.0,-262.0,-43.0,-44.0,86.0,-2.0,0
18.0,-262.0,-42.0,-44.0,85.0,3.0,0
17.0,-265.0,-44.0,-47.0,83.0,5.0,0
20.0,-266.0,-47.0,-51.0,77.0,7.0,0
22.0,-266.0,-44.0,-58.0,74.0,5.0,0
22.0,-268.0,-49.0,-65.0,75.0,5.0,0
20.0,-267.0,-49.0,-71.0,80.0,2.0,0
22.0,-271.0,-43.0,-74.0,81.0,1.0,0
22.0,-268.0,-46.0,-72.0,79.0,1.0,0
23.0,-270.0,-44.0,-65.0,78.0,0.0,0
22.0,-272.0,-39.0,-58.0,78.0,0.0,0
21.0,-270.0,-44.0,-51.0,77.0,-1.0,0
22.0,-272.0,-46.0,-45.0,78.0,-2.0,0
23.0,-270.0,-41.0,-43.0,80.0,-3.0,0
24.0,-271.0,-41.0,-40.0,81.0,-4.0,0
21.0,-269.0,-43.0,-39.0,83.0,-3.0,0
22.0,-267.0,-44.0,-36.0,85.0,-5.0,0
23.0,-267.0,-40.0,-35.0,90.0,-3.0,0
21.0,-268.0,-44.0,-36.0,94.0,-3.0,0
21.0,-269.0,-42.0,-37.0,97.0,1.0,0
23.0,-271.0,-47.0,-40.0,99.0,3.0,0
20.0,-269.0,-45.0,-46.0,103.0,10.0,0
21.0,-271.0,-47.0,-50.0,106.0,13.0,0
20.0,-267.0,-47.0,-52.0,109.0,22.0,0
19.0,-265.0,-45.0,-49.0,108.0,25.0,0
23.0,-267.0,-47.0,-46.0,106.0,30.0,0
25.0,-270.0,-49.0,-42.0,105.0,30.0,0
23.0,-267.0,-46.0,-38.0,106.0,32.0,0
21.0,-266.0,-46.0,-38.0,110.0,28.0,0
25.0,-269.0,-48.0,-42.0,111.0,26.0,0
22.0,-267.0,-50.0,-46.0,114.0,22.0,0
24.0,-266.0,-48.0,-46.0,120.0,18.0,0
25.0,-264.0,-47.0,-48.0,126.0,13.0,0
24.0,-267.0,-51.0,-54.0,130.0,11.0,0
23.0,-266.0,-49.0,-57.0,134.0,6.0,0
24.0,-267.0,-50.0,-62.0,138.0,5.0,0
24.0,-264.0,-54.0,-65.0,143.0,-1.0,0
26.0,-267.0,-50.0,-70.0,147.0,-2.0,0
26.0,-266.0,-52.0,-72.0,146.0,-3.0,0
22.0,-266.0,-58.0,-78.0,151.0,-3.0,0
23.0,-267.0,-57.0,-88.0,157.0,-4.0,0
19.0,-267.0,-55.0,-100.0,160.0,1.0,0
17.0,-271.0,-54.0,-111.0,162.0,3.0,0
22.0,-275.0,-54.0,-118.0,162.0,10.0,0
23.0,-277.0,-51.0,-121.0,163.0,9.0,0
22.0,-277.0,-53.0,-118.0,166.0,11.0,0
23.0,-276.0,-56.0,-115.0,168.0,8.0,0
22.0,-277.0,-53.0,-111.0,167.0,7.0,0
24.0,-276.0,-60.0,-105.0,166.0,3.0,0
21.0,-276.0,-58.0,-100.0,165.0,1.0,0
20.0,-276.0,-59.0,-93.0,167.0,-5.0,0
21.0,-277.0,-56.0,-87.0,163.0,-8.0,0
18.0,-276.0,-55.0,-75.0,160.0,-13.0,0
14.0,-274.0,-52.0,-61.0,156.0,-12.0,0
14.0,-273.0,-50.0,-50.0,151.0,-15.0,0
16.0,-269.0,-52.0,-42.0,149.0,-13.0,0
15.0,-273.0,-50.0,-35.0,147.0,-16.0,0
10.0,-271.0,-50.0,-31.0,140.0,-12.0,0
10.0,-270.0,-50.0,-27.0,136.0,-13.0,0
8.0,-274.0,-49.0,-23.0,131.0,-9.0,0
8.0,-270.0,-49.0,-18.0,126.0,-6.0,0
11.0,-273.0,-44.0,-10.0,121.0,0.0,0
9.0,-272.0,-47.0,0.0,114.0,2.0,0
6.0,-270.0,-43.0,7.0,108.0,7.0,0
11.0,-270.0,-44.0,14.0,102.0,5.0,0
12.0,-268.0,-40.0,19.0,94.0,7.0,0
12.0,-267.0,-44.0,18.0,86.0,3.0,0
10.0,-266.0,-48.0,16.0,80.0,5.0,0
12.0,-267.0,-42.0,12.0,73.0,2.0,0
12.0,-265.0,-46.0,9.0,69.0,-1.0,0
13.0,-266.0,-48.0,6.0,64.0,-4.0,0
11.0,-265.0,-46.0,1.0,60.0,-2.0,0
15.0,-265.0,-47.0,-5.0,57.0,-4.0,0
11.0,-266.0,-44.0,-8.0,54.0,-2.0,0
16.0,-265.0,-49.0,-13.0,51.0,-4.0,0
13.0,-265.0,-46.0,-17.0,48.0,-2.0,0
11.0,-264.0,-48.0,-24.0,45.0,-5.0,0
16.0,-268.0,-43.0,-32.0,40.0,0.0,0
15.0,-268.0,-44.0,-39.0,37.0,-3.0,0
15.0,-271.0,-46.0,-47.0,35.0,0.0,0
17.0,-272.0,-48.0,-52.0,33.0,-2.0,0
19.0,-270.0,-49.0,-56.0,35.0,2.0,0
19.0,-272.0,-49.0,-61.0,39.0,-1.0,0
20.0,-273.0,-55.0,-60.0,42.0,1.0,0
18.0,-273.0,-47.0,-59.0,45.0,-4.0,0
19.0,-272.0,-48.0,-58.0,49.0,-3.0,0
21.0,-271.0,-50.0,-57.0,50.0,-7.0,0
21.0,-272.0,-50.0,-55.0,51.0,-5.0,0
16.0,-270.0,-49.0,-53.0,51.0,-9.0,0
21.0,-270.0,-53.0,-51.0,54.0,-6.0,0
15.0,-272.0,-55.0,-50.0,57.0,-11.0,0
17.0,-272.0,-53.0,-49.0,59.0,-8.0,0
17.0,-272.0,-51.0,-46.0,61.0,-9.0,0
18.0,-271.0,-54.0,-42.0,66.0,-6.0,0
18.0,-271.0,-56.0,-40.0,69.0,-8.0,0
19.0,-272.0,-54.0,-38.0,73.0,-3.0,0
18.0,-270.0,-53.0,-36.0,76.0,-5.0,0
18.0,-272.0,-52.0,-33.0,76.0,-2.0,0
18.0,-270.0,-53.0,-28.0,77.0,-5.0,0
14.0,-269.0,-49.0,-26.0,74.0,-2.0,0
17.0,-270.0,-51.0,-21.0,73.0,-3.0,0
17.0,-271.0,-50.0,-17.0,72.0,-2.0,0
16.0,-269.0,-50.0,-18.0,73.0,-5.0,0
19.0,-271.0,-51.0,-17.0,73.0,-4.0,0
16.0,-273.0,-47.0,-17.0,75.0,-7.0,0
18.0,-274.0,-48.0,-14.0,76.0,-5.0,0
15.0,-272.0,-49.0,-13.0,77.0,-7.0,0
18.0,-272.0,-47.0,-11.0,78.0,-4.0,0
17.0,-269.0,-53.0,-9.0,80.0,-7.0,0
14.0,-270.0,-49.0,-7.0,79.0,-3.0,0
14.0,-269.0,-47.0,-6.0,77.0,-3.0,0
19.0,-272.0,-48.0,-1.0,75.0,-2.0,0
19.0,-270.0,-49.0,0.0,74.0,-2.0,0
18.0,-267.0,-48.0,0.0,76.0,0.0,0
15.0,-269.0,-48.0,-2.0,74.0,0.0,0
19.0,-269.0,-46.0,-6.0,73.0,2.0,0
17.0,-267.0,-52.0,-10.0,74.0,-2.0,0
17.0,-267.0,-44.0,-14.0,75.0,1.0,0
20.0,-269.0,-48.0,-18.0,76.0,-2.0,0
18.0,-267.0,-47.0,-20.0,77.0,-1.0,0
16.0,-264.0,-49.0,-21.0,78.0,-5.0,0
17.0,-265.0,-47.0,-24.0,78.0,-5.0,0
15.0,-267.0,-42.0,-26.0,77.0,-11.0,0
15.0,-267.0,-45.0,-27.0,76.0,-9.0,0
16.0,-268.0,-46.0,-29.0,74.0,-14.0,0
15.0,-268.0,-48.0,-29.0,71.0,-13.0,0
14.0,-267.0,-44.0,-33.0,70.0,-16.0,0
16.0,-268.0,-47.0,-38.0,68.0,-15.0,0
14.0,-268.0,-43.0,-44.0,64.0,-19.0,0
16.0,-270.0,-48.0,-49.0,63.0,-18.0,0
14.0,-269.0,-45.0,-51.0,60.0,-19.0,0
18.0,-270.0,-44.0,-54.0,60.0,-15.0,0
19.0,-272.0,-45.0,-55.0,61.0,-16.0,0
16.0,-269.0,-43.0,-55.0,59.0,-14.0,0
19.0,-270.0,-45.0,-49.0,60.0,-15.0,0
19.0,-271.0,-44.0,-48.0,60.0,-14.0,0
16.0,-268.0,-44.0,-48.0,57.0,-15.0,0
19.0,-271.0,-44.0,-48.0,55.0,-14.0,0
17.0,-270.0,-44.0,-47.0,54.0,-16.0,0
17.0,-269.0,-48.0,-48.0,52.0,-14.0,0
20.0,-273.0,-45.0,-47.0,49.0,-14.0,0
21.0,-271.0,-48.0,-44.0,48.0,-11.0,0
15.0,-268.0,-50.0,-43.0,48.0,-13.0,0
19.0,-271.0,-47.0,-40.0,51.0,-11.0,0
20.0,-268.0,-44.0,-39.0,49.0,-12.0,0
14.0,-270.0,-45.0,-39.0,47.0,-10.0,0
19.0,-268.0,-43.0,-38.0,43.0,-11.0,0
19.0,-267.0,-42.0,-34.0,40.0,-7.0,0
18.0,-268.0,-49.0,-32.0,38.0,-9.0,0
16.0,-268.0,-47.0,-32.0,40.0,-6.0,0
17.0,-271.0,-52.0,-34.0,41.0,-7.0,0
17.0,-274.0,-43.0,-34.0,41.0,-5.0,0
19.0,-270.0,-46.0,-36.0,42.0,-6.0,0
16.0,-272.0,-44.0,-36.0,40.0,-3.0,0
20.0,-269.0,-44.0,-35.0,39.0,-3.0,0
18.0,-270.0,-45.0,-36.0,37.0,0.0,0
20.0,-270.0,-47.0,-36.0,36.0,0.0,0
21.0,-271.0,-46.0,-36.0,35.0,2.0,0
21.0,-271.0,-45.0,-35.0,34.0,0.0,0
22.0,-271.0,-42.0,-33.0,35.0,1.0,0
21.0,-268.0,-48.0,-31.0,34.0,0.0,0
17.0,-269.0,-47.0,-30.0,35.0,-1.0,0
20.0,-268.0,-47.0,-28.0,37.0,-1.0,0
19.0,-275.0,-46.0,-27.0,35.0,-2.0,0
15.0,-269.0,-45.0,-28.0,33.0,-4.0,0
18.0,-268.0,-48.0,-30.0,34.0,-2.0,0
20.0,-272.0,-47.0,-31.0,35.0,-3.0,0
17.0,-270.0,-43.0,-30.0,34.0,0.0,0
18.0,-271.0,-48.0,-29.0,33.0,-3.0,0
21.0,-270.0,-49.0,-27.0,30.0,0.0,0
18.0,-268.0,-50.0,-26.0,30.0,0.0,0
17.0,-270.0,-43.0,-24.0,29.0,0.0,0
20.0,-270.0,-46.0,-23.0,28.0,0.0,0
15.0,-269.0,-43.0,-21.0,27.0,0.0,0
20.0,-273.0,-46.0,-19.0,27.0,0.0,0
19.0,-272.0,-49.0,-18.0,27.0,1.0,0
16.0,-268.0,-48.0,-14.0,28.0,-1.0,0
22.0,-269.0,-45.0,-14.0,29.0,0.0,0
21.0,-271.0,-49.0,-11.0,29.0,-2.0,0
17.0,-268.0,-50.0,-11.0,28.0,-2.0,0
17.0,-270.0,-47.0,-9.0,29.0,-2.0,0
18.0,-267.0,-42.0,-7.0,29.0,-3.0,0
17.0,-269.0,-46.0,-7.0,29.0,-4.0,0
18.0,-270.0,-48.0,-8.0,28.0,-4.0,0
20.0,-270.0,-49.0,-7.0,28.0,-4.0,0
19.0,-268.0,-50.0,-7.0,30.0,-5.0,0
18.0,-268.0,-47.0,-7.0,29.0,-6.0,0
21.0,-271.0,-46.0,-3.0,31.0,-5.0,0
21.0,-272.0,-45.0,-2.0,31.0,-5.0,0
20.0,-271.0,-48.0,-3.0,30.0,-6.0,0
21.0,-268.0,-47.0,-5.0,30.0,-6.0,0
19.0,-267.0,-48.0,-6.0,27.0,-4.0,0
17.0,-267.0,-45.0,-6.0,26.0,-3.0,0
19.0,-266.0,-45.0,-5.0,23.0,-2.0,0
21.0,-268.0,-49.0,-6.0,23.0,0.0,0
23.0,-271.0,-45.0,-8.0,21.0,-3.0,0
21.0,-269.0,-45.0,-9.0,21.0,-2.0,0
20.0,-270.0,-51.0,-7.0,20.0,-4.0,0
21.0,-270.0,-48.0,-7.0,22.0,-4.0,0
20.0,-270.0,-49.0,-6.0,23.0,-6.0,0
20.0,-268.0,-47.0,-7.0,23.0,-3.0,0
20.0,-267.0,-50.0,-6.0,24.0,-6.0,0
17.0,-267.0,-46.0,-6.0,23.0,-6.0,0
19.0,-266.0,-48.0,-7.0,26.0,-8.0,0
21.0,-269.0,-46.0,-7.0,26.0,-8.0,0
19.0,-271.0,-47.0,-10.0,26.0,-9.0,0
22.0,-268.0,-46.0,-9.0,24.0,-8.0,0
18.0,-271.0,-48.0,-10.0,27.0,-8.0,0
19.0,-269.0,-52.0,-9.0,27.0,-7.0,0
11.0,-269.0,-47.0,-10.0,28.0,-6.0,0
20.0,-268.0,-50.0,-10.0,27.0,-5.0,0
22.0,-272.0,-45.0,-10.0,29.0,-6.0,0
19.0,-271.0,-46.0,-11.0,30.0,-4.0,0
20.0,-271.0,-44.0,-13.0,31.0,-5.0,0
19.0,-268.0,-46.0,-13.0,32.0,-5.0,0
21.0,-268.0,-45.0,-15.0,34.0,-6.0,0
20.0,-270.0,-46.0,-16.0,33.0,-4.0,0
22.0,-271.0,-48.0,-17.0,36.0,-5.0,0
18.0,-271.0,-47.0,-18.0,37.0,-3.0,0
22.0,-268.0,-47.0,-16.0,37.0,-4.0,0
23.0,-271.0,-47.0,-14.0,37.0,-3.0,0
19.0,-267.0,-49.0,-15.0,40.0,-3.0,0
20.0,-266.0,-49.0,-16.0,40.0,-1.0,0
21.0,-272.0,-49.0,-17.0,41.0,-2.0,0
20.0,-271.0,-46.0,-18.0,40.0,-1.0,0
21.0,-267.0,-47.0,-18.0,42.0,-3.0,0
25.0,-271.0,-50.0,-17.0,41.0,-2.0,0
23.0,-270.0,-49.0,-16.0,45.0,-3.0,0
19.0,-271.0,-47.0,-18.0,51.0,-3.0,0
19.0,-268.0,-46.0,-19.0,51.0,-5.0,0
19.0,-269.0,-48.0,-21.0,50.0,-3.0,0
19.0,-266.0,-49.0,-22.0,51.0,-4.0,0
19.0,-267.0,-49.0,-20.0,52.0,-3.0,0
22.0,-268.0,-46.0,-20.0,53.0,-5.0,0
15.0,-266.0,-44.0,-20.0,52.0,-2.0,0
21.0,-271.0,-46.0,-19.0,53.0,-3.0,0
19.0,-270.0,-49.0,-20.0,53.0,-2.0,0
17.0,-267.0,-48.0,-21.0,54.0,-3.0,0
21.0,-270.0,-48.0,-24.0,54.0,-1.0,0
19.0,-269.0,-46.0,-26.0,54.0,-3.0,0
21.0,-269.0,-48.0,-28.0,56.0,-3.0,0
18.0,-269.0,-48.0,-29.0,57.0,-3.0,0
17.0,-270.0,-45.0,-32.0,58.0,-1.0,0
19.0,-269.0,-49.0,-34.0,58.0,-4.0,0
20.0,-271.0,-45.0,-34.0,57.0,-1.0,0
19.0,-267.0,-49.0,-35.0,56.0,-3.0,0
18.0,-267.0,-50.0,-34.0,57.0,0.0,0
21.0,-271.0,-51.0,-34.0,56.0,-2.0,0
22.0,-272.0,-49.0,-34.0,56.0,-1.0,0
22.0,-270.0,-46.0,-36.0,57.0,-1.0,0
18.0,-268.0,-47.0,-37.0,57.0,3.0,0
19.0,-266.0,-46.0,-38.0,58.0,-2.0,0
19.0,-271.0,-47.0,-39.0,60.0,1.0,0
20.0,-268.0,-50.0,-38.0,62.0,-1.0,0
20.0,-269.0,-50.0,-39.0,62.0,1.0,0
18.0,-270.0,-46.0,-40.0,62.0,-3.0,0
21.0,-269.0,-48.0,-41.0,62.0,-1.0,0
20.0,-268.0,-48.0,-42.0,63.0,-3.0,0
19.0,-268.0,-47.0,-43.0,63.0,0.0,0
20.0,-269.0,-47.0,-43.0,65.0,-3.0,0
19.0,-270.0,-48.0,-43.0,65.0,0.0,0
19.0,-270.0,-48.0,-41.0,66.0,-2.0,0
19.0,-270.0,-49.0,-40.0,65.0,0.0,0
18.0,-273.0,-48.0,-41.0,66.0,-1.0,0
18.0,-269.0,-46.0,-43.0,66.0,1.0,0
20.0,-270.0,-48.0,-45.0,64.0,0.0,0
20.0,-271.0,-44.0,-47.0,65.0,1.0,0
19.0,-270.0,-48.0,-46.0,63.0,-2.0,0
20.0,-270.0,-55.0,-48.0,63.0,1.0,0
22.0,-270.0,-49.0,-47.0,64.0,-1.0,0
20.0,-267.0,-51.0,-46.0,63.0,1.0,0
22.0,-269.0,-51.0,-46.0,63.0,-1.0,0
20.0,-273.0,-43.0,-46.0,64.0,2.0,0
18.0,-268.0,-46.0,-45.0,66.0,-1.0,0
19.0,-269.0,-43.0,-44.0,66.0,0.0,0
18.0,-269.0,-50.0,-44.0,68.0,-2.0,0
17.0,-268.0,-49.0,-41.0,68.0,1.0,0
17.0,-271.0,-48.0,-41.0,68.0,-2.0,0
22.0,-270.0,-50.0,-41.0,69.0,1.0,0
19.0,-274.0,-53.0,-40.0,70.0,-1.0,0
17.0,-274.0,-49.0,-36.0,71.0,0.0,0
17.0,-274.0,-49.0,-30.0,73.0,-1.0,0
19.0,-269.0,-48.0,-26.0,72.0,0.0,0
19.0,-274.0,-47.0,-22.0,72.0,-1.0,0
18.0,-270.0,-45.0,-19.0,71.0,2.0,0
18.0,-270.0,-49.0,-16.0,73.0,-1.0,0
16.0,-269.0,-48.0,-17.0,75.0,2.0,0
18.0,-273.0,-44.0,-18.0,77.0,-1.0,0
16.0,-269.0,-50.0,-18.0,78.0,1.0,0
17.0,-268.0,-45.0,-16.0,81.0,-2.0,0
16.0,-269.0,-47.0,-17.0,79.0,1.0,0
17.0,-268.0,-46.0,-17.0,77.0,-1.0,0
18.0,-267.0,-52.0,-19.0,74.0,2.0,0
18.0,-266.0,-50.0,-23.0,71.0,1.0,0
18.0,-267.0,-46.0,-24.0,70.0,3.0,0
18.0,-268.0,-50.0,-25.0,68.0,1.0,0
19.0,-269.0,-50.0,-25.0,68.0,2.0,0
18.0,-272.0,-48.0,-26.0,68.0,-1.0,0
18.0,-271.0,-48.0,-24.0,69.0,2.0,0
19.0,-272.0,-49.0,-23.0,70.0,-1.0,0
18.0,-271.0,-49.0,-21.0,70.0,2.0,0
19.0,-269.0,-49.0,-22.0,69.0,1.0,0
19.0,-272.0,-50.0,-20.0,71.0,3.0,0
18.0,-270.0,-48.0,-18.0,70.0,0.0,0
21.0,-271.0,-49.0,-13.0,68.0,3.0,0
16.0,-270.0,-48.0,-11.0,70.0,1.0,0
19.0,-271.0,-46.0,-8.0,68.0,4.0,0
15.0,-270.0,-50.0,-8.0,67.0,1.0,0
18.0,-269.0,-48.0,-8.0,67.0,3.0,0
19.0,-269.0,-53.0,-7.0,66.0,1.0,0
19.0,-269.0,-47.0,-5.0,65.0,1.0,0
17.0,-274.0,-49.0,-4.0,66.0,-1.0,0
17.0,-267.0,-47.0,-3.0,68.0,1.0,0
18.0,-268.0,-50.0,-1.0,69.0,-1.0,0
16.0,-271.0,-49.0,1.0,68.0,2.0,0
18.0,-270.0,-52.0,2.0,68.0,1.0,0
14.0,-268.0,-48.0,0.0,67.0,4.0,0
18.0,-268.0,-51.0,3.0,65.0,2.0,0
18.0,-270.0,-48.0,3.0,64.0,3.0,0
19.0,-270.0,-46.0,3.0,63.0,1.0,0
17.0,-268.0,-49.0,4.0,62.0,2.0,0
16.0,-271.0,-51.0,3.0,61.0,2.0,0
18.0,-270.0,-52.0,4.0,60.0,3.0,0
17.0,-268.0,-50.0,3.0,61.0,0.0,0
16.0,-268.0,-50.0,4.0,61.0,2.0,0
18.0,-273.0,-47.0,2.0,62.0,-1.0,0
19.0,-268.0,-47.0,1.0,64.0,2.0,0
18.0,-268.0,-47.0,1.0,63.0,0.0,0
16.0,-267.0,-48.0,1.0,60.0,1.0,0
18.0,-266.0,-47.0,1.0,59.0,-1.0,0
20.0,-269.0,-47.0,2.0,58.0,0.0,0
18.0,-269.0,-50.0,3.0,58.0,-2.0,0
19.0,-270.0,-47.0,2.0,58.0,-2.0,0
20.0,-270.0,-51.0,3.0,59.0,-3.0,0
15.0,-269.0,-50.0,4.0,59.0,-1.0,0
21.0,-268.0,-48.0,5.0,59.0,-2.0,0
18.0,-270.0,-49.0,5.0,58.0,-1.0,0
16.0,-265.0,-47.0,4.0,59.0,-1.0,0
16.0,-268.0,-48.0,6.0,57.0,0.0,0
19.0,-269.0,-49.0,5.0,56.0,-1.0,0
17.0,-269.0,-47.0,5.0,55.0,0.0,0
16.0,-268.0,-47.0,5.0,54.0,0.0,0
17.0,-269.0,-45.0,4.0,56.0,0.0,0
18.0,-270.0,-48.0,1.0,55.0,-3.0,0
17.0,-269.0,-52.0,1.0,53.0,0.0,0
17.0,-270.0,-46.0,-1.0,53.0,-3.0,0
19.0,-268.0,-51.0,0.0,54.0,0.0,0
18.0,-271.0,-49.0,-1.0,55.0,-1.0,0
20.0,-272.0,-52.0,0.0,56.0,0.0,0
16.0,-269.0,-48.0,1.0,55.0,-1.0,0
21.0,-271.0,-49.0,2.0,55.0,0.0,0
17.0,-272.0,-51.0,4.0,55.0,-1.0,0
19.0,-267.0,-52.0,5.0,56.0,1.0,0
17.0,-270.0,-49.0,6.0,55.0,-1.0,0
17.0,-270.0,-52.0,9.0,55.0,1.0,0
20.0,-271.0,-51.0,9.0,57.0,-2.0,0
16.0,-270.0,-52.0,8.0,57.0,-1.0,0
20.0,-270.0,-49.0,9.0,58.0,-2.0,0
19.0,-270.0,-48.0,8.0,58.0,0.0,0
18.0,-272.0,-49.0,8.0,58.0,-1.0,0
20.0,-268.0,-51.0,8.0,59.0,0.0,0
18.0,-271.0,-51.0,8.0,58.0,0.0,0
17.0,-266.0,-49.0,10.0,58.0,1.0,0
16.0,-271.0,-52.0,11.0,58.0,0.0,0
21.0,-268.0,-46.0,11.0,57.0,0.0,0
16.0,-270.0,-48.0,11.0,59.0,0.0,0
17.0,-267.0,-48.0,12.0,57.0,1.0,0
19.0,-271.0,-49.0,11.0,57.0,0.0,0
16.0,-270.0,-46.0,12.0,55.0,0.0,0
13.0,-269.0,-46.0,11.0,55.0,0.0,0
18.0,-268.0,-45.0,11.0,54.0,2.0,0
17.0,-268.0,-47.0,12.0,54.0,2.0,0
18.0,-272.0,-47.0,14.0,53.0,3.0,0
17.0,-266.0,-48.0,13.0,53.0,2.0,0
19.0,-269.0,-49.0,14.0,53.0,2.0,0
15.0,-271.0,-49.0,13.0,53.0,2.0,0
16.0,-273.0,-49.0,12.0,52.0,1.0,0
19.0,-272.0,-47.0,12.0,51.0,1.0,0
17.0,-271.0,-47.0,12.0,51.0,2.0,0
16.0,-272.0,-46.0,11.0,51.0,2.0,0
16.0,-270.0,-48.0,12.0,51.0,0.0,0
14.0,-267.0,-49.0,13.0,50.0,0.0,0
15.0,-268.0,-49.0,12.0,50.0,1.0,0
17.0,-267.0,-46.0,13.0,51.0,-1.0,0
17.0,-270.0,-46.0,13.0,51.0,0.0,0
18.0,-271.0,-45.0,11.0,52.0,-3.0,0
16.0,-267.0,-46.0,14.0,52.0,-3.0,0
19.0,-268.0,-45.0,16.0,51.0,-2.0,0
21.0,-272.0,-50.0,16.0,51.0,-1.0,0
20.0,-268.0,-45.0,16.0,52.0,0.0,0
17.0,-269.0,-49.0,16.0,51.0,-1.0,0
18.0,-272.0,-45.0,15.0,51.0,-1.0,0
18.0,-269.0,-46.0,14.0,49.0,-1.0,0
18.0,-266.0,-45.0,16.0,49.0,-1.0,0
18.0,-269.0,-46.0,17.0,48.0,0.0,0
18.0,-268.0,-48.0,19.0,48.0,0.0,0
18.0,-266.0,-48.0,16.0,47.0,-1.0,0
18.0,-269.0,-47.0,14.0,48.0,0.0,0
20.0,-270.0,-46.0,10.0,47.0,-1.0,0
17.0,-268.0,-45.0,7.0,47.0,0.0,0
20.0,-273.0,-46.0,5.0,45.0,-1.0,0
20.0,-272.0,-48.0,7.0,46.0,0.0,0
20.0,-272.0,-47.0,8.0,46.0,0.0,0
17.0,-269.0,-47.0,10.0,47.0,1.0,0
18.0,-271.0,-48.0,10.0,47.0,0.0,0
19.0,-270.0,-49.0,12.0,46.0,2.0,0
18.0,-268.0,-44.0,14.0,46.0,0.0,0
18.0,-267.0,-46.0,12.0,47.0,0.0,0
20.0,-269.0,-42.0,11.0,47.0,-2.0,0
20.0,-271.0,-44.0,7.0,47.0,-1.0,0
18.0,-270.0,-47.0,5.0,49.0,-4.0,0
15.0,-266.0,-47.0,4.0,47.0,-1.0,0
16.0,-269.0,-51.0,3.0,45.0,-2.0,0
20.0,-272.0,-50.0,3.0,47.0,0.0,0
14.0,-269.0,-48.0,3.0,47.0,-1.0,0
18.0,-273.0,-46.0,7.0,45.0,0.0,0
18.0,-270.0,-45.0,11.0,42.0,-1.0,0
18.0,-268.0,-47.0,14.0,41.0,1.0,0
16.0,-268.0,-51.0,16.0,40.0,0.0,0
17.0,-272.0,-49.0,16.0,41.0,1.0,0
19.0,-270.0,-46.0,17.0,44.0,-1.0,0
17.0,-273.0,-48.0,16.0,45.0,1.0,0
16.0,-271.0,-44.0,16.0,47.0,-1.0,0
17.0,-267.0,-50.0,18.0,45.0,-2.0,0
19.0,-271.0,-43.0,21.0,45.0,-3.0,0
17.0,-268.0,-48.0,18.0,45.0,-1.0,0
16.0,-269.0,-46.0,17.0,42.0,-3.0,0
16.0,-269.0,-39.0,15.0,41.0,-1.0,0
19.0,-271.0,-42.0,14.0,37.0,-2.0,0
18.0,-271.0,-45.0,12.0,36.0,-1.0,0
16.0,-268.0,-46.0,11.0,34.0,-3.0,0
16.0,-271.0,-43.0,9.0,33.0,-1.0,0
16.0,-270.0,-47.0,10.0,33.0,-3.0,0
17.0,-269.0,-43.0,10.0,32.0,-2.0,0
19.0,-272.0,-50.0,11.0,33.0,-3.0,0
17.0,-271.0,-43.0,8.0,33.0,-1.0,0
19.0,-271.0,-43.0,9.0,34.0,-3.0,0
19.0,-273.0,-47.0,9.0,36.0,-3.0,0
17.0,-271.0,-45.0,9.0,36.0,-6.0,0
19.0,-269.0,-47.0,9.0,33.0,-3.0,0
16.0,-267.0,-43.0,11.0,34.0,-3.0,0
19.0,-271.0,-46.0,10.0,36.0,0.0,0
18.0,-271.0,-45.0,9.0,36.0,-1.0,0
18.0,-269.0,-50.0,10.0,35.0,0.0,0
19.0,-269.0,-45.0,10.0,34.0,-2.0,0
17.0,-267.0,-44.0,12.0,34.0,1.0,0
17.0,-270.0,-42.0,12.0,34.0,-1.0,0
18.0,-268.0,-46.0,11.0,34.0,1.0,0
18.0,-267.0,-44.0,9.0,36.0,-2.0,0
18.0,-271.0,-42.0,8.0,36.0,0.0,0
21.0,-269.0,-46.0,5.0,36.0,-3.0,0
18.0,-269.0,-43.0,4.0,37.0,-1.0,0
17.0,-270.0,-43.0,4.0,37.0,-3.0,0
18.0,-271.0,-48.0,3.0,36.0,0.0,0
21.0,-271.0,-40.0,2.0,36.0,-2.0,0
18.0,-272.0,-44.0,2.0,37.0,0.0,0
18.0,-266.0,-43.0,0.0,36.0,-2.0,0
16.0,-267.0,-44.0,0.0,38.0,-1.0,0
16.0,-269.0,-42.0,-1.0,40.0,-2.0,0
17.0,-269.0,-42.0,-1.0,39.0,1.0,0
19.0,-269.0,-47.0,-1.0,40.0,-2.0,0
18.0,-270.0,-44.0,-2.0,40.0,1.0,0
18.0,-268.0,-44.0,-2.0,40.0,-2.0,0
17.0,-270.0,-42.0,-2.0,40.0,0.0,0
18.0,-270.0,-42.0,-1.0,40.0,-3.0,0
17.0,-268.0,-43.0,-1.0,40.0,-2.0,0
19.0,-272.0,-46.0,-2.0,42.0,-2.0,0
19.0,-271.0,-44.0,0.0,43.0,-1.0,0
21.0,-271.0,-42.0,0.0,43.0,-3.0,0
18.0,-269.0,-40.0,1.0,44.0,0.0,0
17.0,-268.0,-44.0,0.0,44.0,-4.0,0
17.0,-266.0,-44.0,-1.0,44.0,-1.0,0
16.0,-270.0,-43.0,-1.0,45.0,-4.0,0
18.0,-271.0,-42.0,-1.0,46.0,-3.0,0
19.0,-271.0,-44.0,-3.0,47.0,-6.0,0
19.0,-269.0,-41.0,-4.0,48.0,-2.0,0
18.0,-270.0,-43.0,-4.0,49.0,-5.0,0
19.0,-273.0,-41.0,-3.0,51.0,-2.0,0
17.0,-268.0,-41.0,-3.0,51.0,-4.0,0
20.0,-271.0,-45.0,-3.0,52.0,-2.0,0
17.0,-271.0,-43.0,-3.0,54.0,-5.0,0
21.0,-270.0,-47.0,-3.0,55.0,-3.0,0
17.0,-269.0,-43.0,-2.0,54.0,-5.0,0
16.0,-268.0,-48.0,-4.0,55.0,-2.0,0
17.0,-269.0,-44.0,-5.0,56.0,-4.0,0
17.0,-270.0,-42.0,-5.0,57.0,-1.0,0
16.0,-269.0,-44.0,-5.0,57.0,-5.0,0
20.0,-272.0,-42.0,-5.0,58.0,-2.0,0
16.0,-267.0,-43.0,-4.0,59.0,-4.0,0
18.0,-269.0,-40.0,-3.0,60.0,-2.0,0
17.0,-270.0,-44.0,-4.0,59.0,-4.0,0
16.0,-268.0,-41.0,-4.0,61.0,-2.0,0
21.0,-272.0,-41.0,-5.0,61.0,-5.0,0
16.0,-269.0,-45.0,-6.0,63.0,-3.0,0
18.0,-271.0,-47.0,-5.0,65.0,-6.0,0
17.0,-272.0,-44.0,-4.0,64.0,-3.0,0
18.0,-270.0,-42.0,-3.0,65.0,-4.0,0
18.0,-270.0,-42.0,-3.0,66.0,-2.0,0
18.0,-269.0,-42.0,-3.0,66.0,-4.0,0
17.0,-271.0,-41.0,-3.0,66.0,-1.0,0
20.0,-268.0,-44.0,-3.0,67.0,-3.0,0
15.0,-271.0,-46.0,-3.0,67.0,-1.0,0
17.0,-269.0,-41.0,-4.0,66.0,-4.0,0
20.0,-269.0,-43.0,-7.0,68.0,-4.0,0
16.0,-269.0,-45.0,-7.0,69.0,-6.0,0
17.0,-268.0,-42.0,-7.0,69.0,-3.0,0
18.0,-268.0,-41.0,-7.0,70.0,-5.0,0
16.0,-268.0,-43.0,-8.0,70.0,-3.0,0
18.0,-271.0,-40.0,-8.0,69.0,-4.0,0
19.0,-271.0,-39.0,-9.0,70.0,-4.0,0
20.0,-272.0,-42.0,-10.0,70.0,-7.0,0
16.0,-271.0,-44.0,-10.0,71.0,-4.0,0
16.0,-268.0,-47.0,-9.0,72.0,-6.0,0
14.0,-269.0,-46.0,-9.0,73.0,-6.0,0
21.0,-271.0,-40.0,-9.0,75.0,-9.0,0
19.0,-270.0,-46.0,-9.0,76.0,-6.0,0
19.0,-270.0,-45.0,-9.0,79.0,-7.0,0
18.0,-270.0,-43.0,-10.0,82.0,-6.0,0
19.0,-270.0,-45.0,-9.0,84.0,-7.0,0
18.0,-266.0,-42.0,-8.0,87.0,-5.0,0
21.0,-270.0,-39.0,-9.0,90.0,-8.0,0
22.0,-274.0,-42.0,-10.0,91.0,-8.0,0
19.0,-273.0,-46.0,-10.0,91.0,-10.0,0
18.0,-271.0,-44.0,-9.0,93.0,-10.0,0
17.0,-270.0,-43.0,-10.0,93.0,-11.0,0
18.0,-270.0,-47.0,-8.0,92.0,-9.0,0
21.0,-274.0,-41.0,-6.0,91.0,-11.0,0
19.0,-272.0,-42.0,-4.0,91.0,-7.0,0
