ax,ay,az,gx,gy,gz,label
-11.0,-254.0,-12.0,49.0,9.0,-9.0,0
-8.0,-253.0,-17.0,50.0,9.0,-10.0,0
-9.0,-253.0,-15.0,48.0,9.0,-11.0,0
-10.0,-250.0,-16.0,47.0,10.0,-10.0,0
-11.0,-251.0,-18.0,45.0,10.0,-8.0,0
-9.0,-249.0,-15.0,44.0,10.0,-8.0,0
-11.0,-253.0,-19.0,42.0,9.0,-9.0,0
-12.0,-252.0,-19.0,41.0,9.0,-11.0,0
-14.0,-251.0,-14.0,42.0,9.0,-11.0,0
-12.0,-253.0,-15.0,42.0,7.0,-11.0,0
-13.0,-249.0,-17.0,43.0,8.0,-12.0,0
-9.0,-255.0,-16.0,44.0,10.0,-14.0,0
-11.0,-253.0,-14.0,45.0,9.0,-12.0,0
-10.0,-251.0,-14.0,47.0,8.0,-13.0,0
-9.0,-257.0,-33.0,47.0,8.0,-15.0,0
-10.0,-251.0,-18.0,47.0,8.0,-14.0,0
-11.0,-253.0,-15.0,46.0,7.0,-13.0,0
-12.0,-252.0,-13.0,49.0,8.0,-14.0,0
-7.0,-251.0,-13.0,50.0,9.0,-15.0,0
-10.0,-249.0,-18.0,50.0,9.0,-13.0,0
-11.0,-249.0,-17.0,52.0,11.0,-13.0,0
-10.0,-252.0,-14.0,50.0,12.0,-13.0,0
-7.0,-251.0,-12.0,50.0,11.0,-15.0,0
-12.0,-249.0,-14.0,50.0,12.0,-15.0,0
-10.0,-252.0,-13.0,49.0,10.0,-14.0,0
-12.0,-250.0,-14.0,50.0,10.0,-14.0,0
-11.0,-249.0,-18.0,50.0,10.0,-14.0,0
-10.0,-250.0,-19.0,51.0,10.0,-14.0,0
-9.0,-254.0,-15.0,52.0,11.0,-14.0,0
-10.0,-248.0,-14.0,54.0,9.0,-13.0,0
-6.0,-252.0,-14.0,53.0,11.0,-16.0,0
-11.0,-247.0,-17.0,52.0,11.0,-17.0,0
-10.0,-252.0,-12.0,52.0,10.0,-16.0,0
-13.0,-255.0,-21.0,52.0,9.0,-15.0,0
-10.0,-253.0,-11.0,53.0,8.0,-15.0,0
-18.0,-252.0,-24.0,52.0,9.0,-15.0,0
-7.0,-251.0,-16.0,52.0,10.0,-15.0,0
-15.0,-251.0,-15.0,52.0,11.0,-14.0,0
-9.0,-250.0,-20.0,53.0,11.0,-14.0,0
-9.0,-251.0,-15.0,52.0,11.0,-15.0,0
-12.0,-252.0,-15.0,52.0,12.0,-15.0,0
-11.0,-252.0,-14.0,52.0,11.0,-16.0,0
-8.0,-248.0,-17.0,52.0,11.0,-17.0,0
-6.0,-252.0,-14.0,53.0,13.0,-16.0,0
-7.0,-254.0,-18.0,52.0,13.0,-15.0,0
-12.0,-250.0,-15.0,52.0,13.0,-15.0,0
-9.0,-255.0,-17.0,51.0,13.0,-14.0,0
-14.0,-252.0,-15.0,50.0,13.0,-14.0,0
-10.0,-249.0,-16.0,50.0,13.0,-13.0,0
-10.0,-251.0,-12.0,51.0,13.0,-16.0,0
-10.0,-250.0,-11.0,51.0,13.0,-15.0,0
-8.0,-254.0,-11.0,53.0,14.0,-14.0,0
-8.0,-252.0,-14.0,51.0,14.0,-14.0,0
-10.0,-254.0,-18.0,51.0,14.0,-13.0,0
-11.0,-251.0,-19.0,51.0,14.0,-14.0,0
-11.0,-250.0,-12.0,50.0,15.0,-14.0,0
-11.0,-249.0,-18.0,48.0,15.0,-14.0,0
-10.0,-249.0,-18.0,47.0,15.0,-14.0,0
-11.0,-251.0,-17.0,47.0,14.0,-15.0,0
-10.0,-251.0,-14.0,48.0,14.0,-13.0,0
-9.0,-251.0,-12.0,49.0,14.0,-13.0,0
-11.0,-254.0,-16.0,48.0,15.0,-13.0,0
-9.0,-250.0,-15.0,46.0,13.0,-14.0,0
-10.0,-252.0,-18.0,46.0,12.0,-15.0,0
-7.0,-252.0,-19.0,43.0,12.0,-14.0,0
-6.0,-251.0,-16.0,42.0,12.0,-14.0,0
-12.0,-252.0,-17.0,41.0,12.0,-15.0,0
-12.0,-251.0,-14.0,40.0,14.0,-15.0,0
-10.0,-253.0,-14.0,41.0,15.0,-16.0,0
-4.0,-250.0,-12.0,40.0,16.0,-17.0,0
-11.0,-250.0,-15.0,41.0,16.0,-15.0,0
-13.0,-250.0,-14.0,41.0,15.0,-17.0,0
-10.0,-250.0,-14.0,39.0,14.0,-15.0,0
-14.0,-251.0,-10.0,36.0,13.0,-12.0,0
-12.0,-251.0,-14.0,38.0,12.0,-12.0,0
-11.0,-252.0,-18.0,40.0,13.0,-13.0,0
-8.0,-252.0,-21.0,45.0,12.0,-13.0,0
-8.0,-251.0,-17.0,47.0,12.0,-13.0,0
-11.0,-251.0,-22.0,48.0,13.0,-12.0,0
-8.0,-252.0,-16.0,49.0,13.0,-12.0,0
-6.0,-254.0,-17.0,50.0,16.0,-12.0,0
-10.0,-253.0,-17.0,51.0,16.0,-12.0,0
-10.0,-252.0,-14.0,51.0,16.0,-12.0,0
-8.0,-250.0,-12.0,52.0,18.0,-12.0,0
-7.0,-252.0,-16.0,52.0,17.0,-13.0,0
-10.0,-251.0,-16.0,53.0,17.0,-12.0,0
-7.0,-254.0,-14.0,54.0,18.0,-11.0,0
-10.0,-249.0,-12.0,53.0,18.0,-12.0,0
-9.0,-250.0,-13.0,53.0,17.0,-12.0,0
-11.0,-250.0,-13.0,53.0,17.0,-11.0,0
-10.0,-251.0,-15.0,52.0,17.0,-11.0,0
-7.0,-250.0,-15.0,51.0,20.0,-10.0,0
-11.0,-251.0,-14.0,51.0,19.0,-8.0,0
-11.0,-249.0,-12.0,51.0,19.0,-9.0,0
-7.0,-251.0,-15.0,50.0,18.0,-7.0,0
-6.0,-252.0,-18.0,49.0,17.0,-8.0,0
-11.0,-255.0,-11.0,49.0,18.0,-9.0,0
-10.0,-250.0,-14.0,49.0,17.0,-8.0,0
-11.0,-252.0,-17.0,48.0,17.0,-9.0,0
-11.0,-250.0,-16.0,49.0,16.0,-10.0,0
-10.0,-252.0,-14.0,48.0,14.0,-8.0,0
-11.0,-252.0,-15.0,46.0,13.0,-8.0,0
-12.0,-251.0,-18.0,48.0,13.0,-9.0,0
-9.0,-251.0,-13.0,47.0,13.0,-9.0,0
-9.0,-252.0,-17.0,48.0,12.0,-8.0,0
-12.0,-253.0,-18.0,47.0,13.0,-9.0,0
-10.0,-253.0,-18.0,49.0,13.0,-7.0,0
-10.0,-250.0,-15.0,49.0,10.0,-9.0,0
-14.0,-252.0,-17.0,51.0,11.0,-8.0,0
-9.0,-251.0,-15.0,53.0,11.0,-9.0,0
-11.0,-250.0,-17.0,54.0,11.0,-10.0,0
-7.0,-249.0,-18.0,54.0,11.0,-9.0,0
-8.0,-252.0,-17.0,54.0,11.0,-9.0,0
-11.0,-249.0,-15.0,52.0,9.0,-9.0,0
-9.0,-248.0,-16.0,51.0,8.0,-10.0,0
-11.0,-253.0,-14.0,50.0,8.0,-9.0,0
-12.0,-253.0,-16.0,49.0,6.0,-6.0,0
-6.0,-253.0,-17.0,49.0,5.0,-6.0,0
-10.0,-255.0,-18.0,50.0,6.0,-8.0,0
-11.0,-251.0,-16.0,51.0,7.0,-9.0,0
-9.0,-253.0,-15.0,53.0,6.0,-10.0,0
-8.0,-253.0,-13.0,52.0,7.0,-8.0,0
-8.0,-251.0,-11.0,51.0,6.0,-9.0,0
-8.0,-251.0,-14.0,51.0,7.0,-8.0,0
-7.0,-252.0,-14.0,49.0,5.0,-9.0,0
-7.0,-252.0,-17.0,50.0,5.0,-9.0,0
-7.0,-251.0,-16.0,54.0,5.0,-8.0,0
-10.0,-251.0,-17.0,56.0,6.0,-8.0,0
-7.0,-250.0,-19.0,59.0,6.0,-10.0,0
-10.0,-253.0,-17.0,59.0,6.0,-10.0,0
-9.0,-248.0,-17.0,57.0,7.0,-9.0,0
-8.0,-249.0,-18.0,57.0,7.0,-10.0,0
-10.0,-249.0,-14.0,53.0,10.0,-10.0,0
-8.0,-251.0,-19.0,55.0,9.0,-10.0,0
-10.0,-252.0,-18.0,56.0,10.0,-9.0,0
-9.0,-251.0,-19.0,56.0,9.0,-8.0,0
-12.0,-249.0,-11.0,54.0,9.0,-9.0,0
-9.0,-251.0,-17.0,54.0,10.0,-10.0,0
-8.0,-254.0,-13.0,52.0,9.0,-11.0,0
-10.0,-249.0,-18.0,50.0,10.0,-13.0,0
-9.0,-251.0,-17.0,51.0,9.0,-12.0,0
-11.0,-247.0,-13.0,51.0,9.0,-11.0,0
-8.0,-254.0,-16.0,54.0,8.0,-10.0,0
-11.0,-250.0,-17.0,55.0,7.0,-11.0,0
-12.0,-249.0,-16.0,54.0,6.0,-9.0,0
-7.0,-252.0,-15.0,53.0,6.0,-8.0,0
-14.0,-252.0,-16.0,53.0,3.0,-8.0,0
-11.0,-255.0,-13.0,51.0,3.0,-10.0,0
-10.0,-249.0,-13.0,48.0,3.0,-9.0,0
-11.0,-249.0,-17.0,51.0,3.0,-7.0,0
-6.0,-250.0,-15.0,51.0,2.0,-8.0,0
-13.0,-254.0,-17.0,53.0,4.0,-7.0,0
-12.0,-250.0,-21.0,53.0,3.0,-9.0,0
-11.0,-254.0,-19.0,53.0,3.0,-8.0,0
-12.0,-250.0,-15.0,53.0,4.0,-8.0,0
-11.0,-249.0,-15.0,51.0,4.0,-9.0,0
-9.0,-250.0,-18.0,50.0,4.0,-7.0,0
-11.0,-251.0,-15.0,50.0,3.0,-9.0,0
-8.0,-252.0,-13.0,51.0,5.0,-8.0,0
-8.0,-252.0,-19.0,52.0,3.0,-8.0,0
-10.0,-251.0,-16.0,52.0,4.0,-9.0,0
-8.0,-248.0,-16.0,51.0,5.0,-10.0,0
-7.0,-252.0,-16.0,52.0,5.0,-8.0,0
-10.0,-250.0,-16.0,53.0,7.0,-9.0,0
-8.0,-250.0,-13.0,53.0,8.0,-9.0,0
-9.0,-250.0,-18.0,52.0,8.0,-8.0,0
-9.0,-250.0,-13.0,53.0,9.0,-8.0,0
-8.0,-252.0,-14.0,51.0,8.0,-7.0,0
-14.0,-249.0,-13.0,50.0,9.0,-7.0,0
-11.0,-248.0,-17.0,51.0,7.0,-7.0,0
-6.0,-251.0,-14.0,50.0,10.0,-7.0,0
-12.0,-254.0,-12.0,50.0,9.0,-7.0,0
-9.0,-251.0,-19.0,50.0,10.0,-7.0,0
-10.0,-251.0,-15.0,50.0,11.0,-7.0,0
-10.0,-251.0,-19.0,50.0,11.0,-6.0,0
-10.0,-251.0,-14.0,51.0,11.0,-7.0,0
-12.0,-250.0,-17.0,50.0,11.0,-6.0,0
-8.0,-252.0,-18.0,51.0,10.0,-6.0,0
-10.0,-251.0,-13.0,50.0,10.0,-7.0,0
-11.0,-251.0,-14.0,52.0,10.0,-5.0,0
-11.0,-251.0,-16.0,53.0,10.0,-6.0,0
-8.0,-253.0,-17.0,53.0,10.0,-5.0,0
-10.0,-251.0,-15.0,53.0,9.0,-6.0,0
-13.0,-251.0,-15.0,53.0,9.0,-7.0,0
-6.0,-253.0,-17.0,54.0,8.0,-7.0,0
-8.0,-252.0,-15.0,54.0,8.0,-7.0,0
-11.0,-251.0,-16.0,55.0,7.0,-7.0,0
-13.0,-251.0,-15.0,56.0,8.0,-6.0,0
-10.0,-247.0,-17.0,58.0,9.0,-7.0,0
-11.0,-250.0,-12.0,58.0,9.0,-7.0,0
-6.0,-250.0,-16.0,58.0,7.0,-7.0,0
-11.0,-253.0,-18.0,59.0,8.0,-9.0,0
-7.0,-255.0,-13.0,59.0,7.0,-9.0,0
-12.0,-250.0,-15.0,61.0,7.0,-9.0,0
-10.0,-251.0,-15.0,60.0,7.0,-11.0,0
-10.0,-255.0,-13.0,60.0,8.0,-9.0,0
-10.0,-253.0,-17.0,60.0,7.0,-9.0,0
-8.0,-251.0,-15.0,60.0,6.0,-9.0,0
-10.0,-249.0,-16.0,60.0,8.0,-7.0,0
-7.0,-253.0,-15.0,60.0,6.0,-8.0,0
-11.0,-250.0,-20.0,60.0,6.0,-8.0,0
-9.0,-248.0,-14.0,59.0,5.0,-8.0,0
-11.0,-253.0,-16.0,58.0,3.0,-9.0,0
-11.0,-252.0,-16.0,56.0,3.0,-8.0,0
-10.0,-253.0,-14.0,56.0,3.0,-8.0,0
-13.0,-250.0,-14.0,53.0,4.0,-10.0,0
-11.0,-253.0,-15.0,51.0,7.0,-10.0,0
-10.0,-250.0,-16.0,50.0,7.0,-9.0,0
-6.0,-247.0,-18.0,51.0,7.0,-11.0,0
-11.0,-248.0,-13.0,50.0,6.0,-11.0,0
-9.0,-251.0,-16.0,49.0,5.0,-11.0,0
-14.0,-251.0,-12.0,48.0,4.0,-11.0,0
-7.0,-249.0,-17.0,48.0,3.0,-12.0,0
-12.0,-251.0,-13.0,48.0,3.0,-12.0,0
-7.0,-254.0,-14.0,48.0,5.0,-10.0,0
-11.0,-252.0,-19.0,51.0,4.0,-10.0,0
-10.0,-254.0,-16.0,53.0,3.0,-12.0,0
-12.0,-250.0,-18.0,53.0,2.0,-14.0,0
-11.0,-253.0,-15.0,54.0,2.0,-13.0,0
-8.0,-250.0,-15.0,54.0,2.0,-13.0,0
-7.0,-251.0,-13.0,53.0,3.0,-13.0,0
-8.0,-254.0,-19.0,56.0,5.0,-13.0,0
-5.0,-253.0,-16.0,55.0,6.0,-12.0,0
-10.0,-249.0,-17.0,55.0,6.0,-11.0,0
-11.0,-254.0,-14.0,56.0,6.0,-10.0,0
-9.0,-252.0,-17.0,56.0,6.0,-12.0,0
-13.0,-252.0,-18.0,57.0,6.0,-10.0,0
-10.0,-252.0,-12.0,57.0,5.0,-9.0,0
-16.0,-249.0,-16.0,56.0,6.0,-10.0,0
-12.0,-252.0,-13.0,55.0,7.0,-9.0,0
-8.0,-253.0,-19.0,54.0,8.0,-9.0,0
-9.0,-255.0,-15.0,56.0,7.0,-7.0,0
-9.0,-250.0,-18.0,59.0,7.0,-7.0,0
-11.0,-251.0,-15.0,58.0,6.0,-6.0,0
-10.0,-250.0,-18.0,58.0,4.0,-5.0,0
-12.0,-249.0,-15.0,56.0,4.0,-7.0,0
-8.0,-250.0,-17.0,53.0,5.0,-5.0,0
-12.0,-248.0,-17.0,51.0,3.0,-6.0,0
-11.0,-252.0,-18.0,48.0,2.0,-4.0,0
-11.0,-251.0,-17.0,47.0,3.0,-4.0,0
-10.0,-252.0,-15.0,47.0,5.0,-5.0,0
-13.0,-253.0,-17.0,46.0,5.0,-5.0,0
-11.0,-252.0,-19.0,47.0,4.0,-3.0,0
-8.0,-254.0,-19.0,46.0,5.0,-4.0,0
-11.0,-251.0,-22.0,48.0,7.0,-6.0,0
-7.0,-251.0,-19.0,48.0,8.0,-3.0,0
-6.0,-252.0,-20.0,47.0,10.0,-1.0,0
-10.0,-251.0,-19.0,47.0,10.0,0.0,0
-6.0,-250.0,-20.0,45.0,15.0,3.0,0
-10.0,-252.0,-23.0,44.0,18.0,4.0,0
-12.0,-248.0,-19.0,44.0,20.0,7.0,0
-13.0,-249.0,-19.0,45.0,25.0,9.0,0
-12.0,-250.0,-22.0,44.0,27.0,11.0,0
-10.0,-250.0,-25.0,41.0,29.0,11.0,0
-9.0,-250.0,-20.0,38.0,32.0,13.0,0
-11.0,-249.0,-23.0,34.0,34.0,16.0,0
-10.0,-252.0,-21.0,30.0,33.0,18.0,0
-10.0,-251.0,-24.0,27.0,33.0,18.0,0
-7.0,-254.0,-23.0,24.0,35.0,20.0,0
-9.0,-251.0,-28.0,25.0,34.0,21.0,0
-8.0,-258.0,-23.0,23.0,35.0,23.0,0
-11.0,-251.0,-25.0,25.0,37.0,22.0,0
-14.0,-253.0,-27.0,26.0,34.0,23.0,0
-12.0,-254.0,-25.0,24.0,30.0,23.0,0
-15.0,-252.0,-33.0,22.0,27.0,23.0,0
-15.0,-251.0,-30.0,19.0,26.0,23.0,0
-16.0,-254.0,-31.0,17.0,23.0,24.0,0
-19.0,-254.0,-29.0,16.0,20.0,25.0,0
-17.0,-252.0,-30.0,17.0,17.0,26.0,0
-15.0,-255.0,-27.0,19.0,16.0,26.0,0
-10.0,-250.0,-24.0,20.0,11.0,26.0,0
-17.0,-255.0,-30.0,22.0,7.0,27.0,0
-10.0,-256.0,-30.0,24.0,2.0,27.0,0
-14.0,-255.0,-30.0,25.0,-2.0,27.0,0
-11.0,-255.0,-32.0,25.0,-5.0,27.0,0
-14.0,-253.0,-30.0,26.0,-11.0,27.0,0
-16.0,-254.0,-31.0,27.0,-13.0,25.0,0
-14.0,-252.0,-31.0,30.0,-15.0,26.0,0
-11.0,-251.0,-31.0,32.0,-19.0,26.0,0
-13.0,-253.0,-31.0,35.0,-24.0,25.0,0
-14.0,-251.0,-32.0,36.0,-27.0,24.0,0
-13.0,-251.0,-28.0,38.0,-31.0,24.0,0
-11.0,-250.0,-35.0,38.0,-34.0,22.0,0
-10.0,-248.0,-26.0,39.0,-37.0,24.0,0
-10.0,-251.0,-26.0,40.0,-40.0,20.0,0
-10.0,-250.0,-29.0,42.0,-42.0,18.0,0
-9.0,-249.0,-32.0,43.0,-43.0,17.0,0
-10.0,-249.0,-29.0,44.0,-43.0,13.0,0
-10.0,-248.0,-29.0,43.0,-46.0,11.0,0
-15.0,-247.0,-28.0,44.0,-44.0,12.0,0
-11.0,-245.0,-27.0,42.0,-44.0,9.0,0
-9.0,-242.0,-29.0,40.0,-44.0,5.0,0
-7.0,-245.0,-31.0,38.0,-42.0,2.0,0
-10.0,-245.0,-26.0,35.0,-40.0,-2.0,0
-10.0,-245.0,-28.0,32.0,-37.0,-6.0,0
-8.0,-243.0,-27.0,30.0,-35.0,-9.0,0
-9.0,-245.0,-25.0,30.0,-32.0,-11.0,0
-7.0,-244.0,-24.0,31.0,-30.0,-16.0,0
-4.0,-245.0,-28.0,31.0,-27.0,-14.0,0
-6.0,-245.0,-24.0,31.0,-24.0,-17.0,0
-7.0,-245.0,-25.0,33.0,-21.0,-20.0,0
-6.0,-249.0,-23.0,31.0,-19.0,-21.0,0
-8.0,-248.0,-23.0,30.0,-18.0,-25.0,0
-9.0,-247.0,-22.0,32.0,-17.0,-26.0,0
-6.0,-247.0,-23.0,35.0,-16.0,-29.0,0
-12.0,-245.0,-18.0,39.0,-17.0,-30.0,0
-9.0,-249.0,-21.0,42.0,-16.0,-32.0,0
-10.0,-246.0,-22.0,44.0,-18.0,-37.0,0
-11.0,-246.0,-23.0,46.0,-20.0,-42.0,0
-15.0,-247.0,-24.0,50.0,-21.0,-45.0,0
-13.0,-251.0,-19.0,52.0,-22.0,-46.0,0
-15.0,-248.0,-21.0,54.0,-23.0,-46.0,0
-11.0,-254.0,-21.0,55.0,-25.0,-46.0,0
-10.0,-257.0,-17.0,57.0,-24.0,-46.0,0
-11.0,-251.0,-17.0,62.0,-22.0,-45.0,0
-12.0,-253.0,-17.0,67.0,-20.0,-44.0,0
-10.0,-255.0,-13.0,77.0,-21.0,-44.0,0
-10.0,-253.0,-16.0,88.0,-23.0,-49.0,0
-11.0,-254.0,-14.0,103.0,-25.0,-53.0,0
-11.0,-252.0,-16.0,117.0,-29.0,-59.0,0
-12.0,-246.0,-15.0,127.0,-33.0,-64.0,0
-9.0,-248.0,-16.0,138.0,-36.0,-67.0,0
-9.0,-247.0,-13.0,148.0,-38.0,-72.0,0
-14.0,-241.0,-11.0,152.0,-36.0,-75.0,0
-14.0,-244.0,-10.0,156.0,-38.0,-79.0,0
-13.0,-245.0,-10.0,156.0,-37.0,-77.0,0
-11.0,-246.0,-8.0,154.0,-41.0,-74.0,0
-13.0,-248.0,-7.0,147.0,-47.0,-73.0,0
-14.0,-251.0,-7.0,141.0,-51.0,-68.0,0
-14.0,-254.0,-6.0,139.0,-58.0,-63.0,0
-14.0,-253.0,-4.0,138.0,-62.0,-61.0,0
-16.0,-255.0,-5.0,135.0,-67.0,-56.0,0
-16.0,-257.0,-2.0,137.0,-70.0,-53.0,0
-18.0,-264.0,-5.0,144.0,-72.0,-51.0,0
-17.0,-266.0,-4.0,152.0,-76.0,-48.0,0
-16.0,-265.0,-9.0,161.0,-77.0,-46.0,0
-15.0,-269.0,-6.0,170.0,-77.0,-45.0,0
-16.0,-266.0,-5.0,181.0,-82.0,-46.0,0
-15.0,-268.0,-5.0,193.0,-88.0,-44.0,0
-12.0,-267.0,-7.0,209.0,-94.0,-45.0,0
-8.0,-266.0,-2.0,228.0,-99.0,-44.0,0
-9.0,-265.0,-3.0,249.0,-106.0,-46.0,0
-9.0,-260.0,-4.0,269.0,-113.0,-46.0,0
-10.0,-260.0,-8.0,290.0,-121.0,-48.0,0
-8.0,-261.0,-12.0,306.0,-126.0,-47.0,0
-7.0,-255.0,-5.0,317.0,-132.0,-46.0,0
-6.0,-253.0,-3.0,326.0,-136.0,-43.0,0
-5.0,-252.0,-6.0,332.0,-138.0,-45.0,0
-5.0,-248.0,-6.0,336.0,-138.0,-47.0,0
-11.0,-243.0,-6.0,337.0,-139.0,-48.0,0
-11.0,-246.0,-5.0,335.0,-136.0,-52.0,0
-11.0,-248.0,-5.0,328.0,-135.0,-54.0,0
-7.0,-247.0,-3.0,317.0,-132.0,-55.0,0
-10.0,-252.0,-3.0,305.0,-131.0,-54.0,0
-14.0,-252.0,-8.0,298.0,-127.0,-52.0,0
-15.0,-254.0,-3.0,292.0,-126.0,-48.0,0
-15.0,-253.0,0.0,291.0,-126.0,-44.0,0
-12.0,-256.0,-5.0,294.0,-128.0,-42.0,0
-13.0,-254.0,-5.0,300.0,-130.0,-40.0,0
-13.0,-253.0,-9.0,305.0,-130.0,-38.0,0
-13.0,-252.0,-7.0,310.0,-131.0,-39.0,0
-11.0,-249.0,-10.0,308.0,-128.0,-40.0,0
-10.0,-247.0,-10.0,302.0,-124.0,-39.0,0
-10.0,-250.0,-10.0,292.0,-123.0,-37.0,0
-8.0,-249.0,-10.0,277.0,-119.0,-33.0,0
-8.0,-248.0,-11.0,264.0,-117.0,-30.0,0
-8.0,-246.0,-18.0,252.0,-114.0,-28.0,0
-11.0,-252.0,-18.0,242.0,-114.0,-29.0,0
-10.0,-253.0,-14.0,233.0,-111.0,-26.0,0
-10.0,-250.0,-18.0,229.0,-110.0,-23.0,0
-11.0,-251.0,-21.0,226.0,-110.0,-21.0,0
-12.0,-256.0,-24.0,224.0,-110.0,-18.0,0
-10.0,-253.0,-25.0,220.0,-113.0,-17.0,0
-9.0,-254.0,-28.0,218.0,-114.0,-18.0,0
-8.0,-251.0,-28.0,216.0,-112.0,-17.0,0
-14.0,-248.0,-30.0,214.0,-107.0,-18.0,0
-14.0,-247.0,-33.0,211.0,-100.0,-19.0,0
-16.0,-246.0,-40.0,206.0,-101.0,-16.0,0
-12.0,-244.0,-38.0,199.0,-105.0,-11.0,0
-13.0,-240.0,-44.0,189.0,-104.0,-8.0,0
-10.0,-237.0,-52.0,172.0,-94.0,-3.0,0
-10.0,-234.0,-50.0,151.0,-77.0,4.0,0
-8.0,-228.0,-56.0,124.0,-55.0,10.0,0
-9.0,-231.0,-57.0,97.0,-36.0,15.0,0
-11.0,-228.0,-55.0,68.0,-25.0,17.0,0
-12.0,-225.0,-58.0,41.0,-21.0,24.0,0
-9.0,-220.0,-65.0,12.0,-17.0,33.0,0
-9.0,-214.0,-66.0,-21.0,-9.0,44.0,0
-7.0,-213.0,-77.0,-63.0,4.0,55.0,0
-6.0,-205.0,-84.0,-111.0,21.0,63.0,0
-3.0,-204.0,-89.0,-163.0,39.0,71.0,0
-4.0,-196.0,-93.0,-216.0,58.0,77.0,0
-5.0,-189.0,-102.0,-276.0,74.0,83.0,0
-4.0,-179.0,-112.0,-347.0,92.0,88.0,0
0.0,-169.0,-120.0,-432.0,114.0,97.0,0
1.0,-154.0,-131.0,-528.0,136.0,107.0,0
9.0,-149.0,-139.0,-632.0,153.0,118.0,0
14.0,-140.0,-151.0,-737.0,171.0,126.0,0
16.0,-131.0,-160.0,-851.0,191.0,136.0,0
18.0,-123.0,-167.0,-971.0,213.0,150.0,0
16.0,-113.0,-171.0,-1094.0,230.0,156.0,0
18.0,-110.0,-177.0,-1209.0,243.0,160.0,0
22.0,-100.0,-179.0,-1320.0,249.0,159.0,0
22.0,-88.0,-187.0,-1427.0,249.0,158.0,0
19.0,-78.0,-184.0,-1544.0,245.0,152.0,0
18.0,-71.0,-187.0,-1665.0,238.0,137.0,0
13.0,-54.0,-180.0,-1785.0,232.0,119.0,0
8.0,-39.0,-174.0,-1893.0,221.0,93.0,0
-2.0,-29.0,-163.0,-1984.0,214.0,66.0,0
-7.0,-13.0,-146.0,-2069.0,212.0,45.0,0
-16.0,-4.0,-135.0,-2142.0,211.0,32.0,0
-18.0,0.0,-116.0,-2204.0,210.0,21.0,0
-22.0,2.0,-94.0,-2264.0,206.0,9.0,0
-25.0,2.0,-75.0,-2299.0,203.0,4.0,0
-27.0,1.0,-59.0,-2298.0,196.0,0.0,0
-20.0,-4.0,-44.0,-2265.0,195.0,-6.0,0
-17.0,-10.0,-29.0,-2209.0,207.0,-6.0,0
-15.0,-17.0,-11.0,-2141.0,227.0,5.0,0
-11.0,-25.0,6.0,-2074.0,246.0,26.0,0
-7.0,-31.0,21.0,-2026.0,252.0,54.0,0
-3.0,-40.0,34.0,-2002.0,254.0,81.0,0
5.0,-50.0,36.0,-1992.0,260.0,109.0,0
11.0,-59.0,37.0,-1981.0,280.0,137.0,0
9.0,-70.0,33.0,-1970.0,311.0,154.0,0
15.0,-82.0,40.0,-1957.0,354.0,143.0,0
24.0,-94.0,31.0,-1910.0,421.0,118.0,0
22.0,-107.0,37.0,-1860.0,524.0,86.0,0
17.0,-134.0,35.0,-1819.0,645.0,52.0,0
7.0,-170.0,36.0,-1784.0,754.0,20.0,0
-5.0,-196.0,33.0,-1749.0,830.0,-15.0,0
-17.0,-245.0,13.0,-1695.0,864.0,-54.0,0
-29.0,-285.0,-24.0,-1614.0,848.0,-88.0,0
-48.0,-324.0,-98.0,-1532.0,801.0,-94.0,0
-68.0,-357.0,-183.0,-1476.0,753.0,-84.0,0
-96.0,-377.0,-237.0,-1457.0,711.0,-61.0,0
-143.0,-386.0,-282.0,-1451.0,657.0,-28.0,0
-181.0,-408.0,-247.0,-1399.0,532.0,25.0,0
-152.0,-438.0,-168.0,-1171.0,331.0,86.0,0
-98.0,-446.0,-93.0,-750.0,158.0,107.0,0
-49.0,-428.0,-58.0,-203.0,92.0,88.0,0
8.0,-388.0,-60.0,322.0,115.0,45.0,0
51.0,-340.0,-102.0,676.0,192.0,-17.0,0
65.0,-319.0,-138.0,774.0,306.0,-99.0,0
50.0,-326.0,-131.0,658.0,426.0,-206.0,0
23.0,-343.0,-107.0,480.0,508.0,-309.0,0
-13.0,-374.0,-69.0,356.0,530.0,-351.0,0
-44.0,-405.0,-42.0,354.0,502.0,-321.0,0
-68.0,-419.0,-36.0,458.0,448.0,-240.0,0
-83.0,-426.0,-46.0,583.0,393.0,-137.0,0
-97.0,-426.0,-55.0,673.0,358.0,-25.0,0
-89.0,-418.0,-71.0,735.0,324.0,94.0,0
-73.0,-397.0,-88.0,798.0,286.0,226.0,0
-43.0,-369.0,-101.0,874.0,251.0,367.0,0
-22.0,-339.0,-120.0,977.0,216.0,476.0,0
-13.0,-319.0,-119.0,1088.0,161.0,529.0,0
-10.0,-287.0,-123.0,1173.0,74.0,514.0,0
-12.0,-267.0,-112.0,1232.0,-20.0,440.0,0
-18.0,-253.0,-102.0,1272.0,-96.0,339.0,0
-16.0,-247.0,-99.0,1286.0,-149.0,240.0,0
-14.0,-252.0,-90.0,1269.0,-171.0,165.0,0
-14.0,-266.0,-76.0,1233.0,-179.0,114.0,0
-9.0,-300.0,-60.0,1205.0,-184.0,81.0,0
-1.0,-334.0,-48.0,1217.0,-199.0,51.0,0
7.0,-360.0,-48.0,1286.0,-218.0,8.0,0
16.0,-387.0,-51.0,1395.0,-228.0,-37.0,0
19.0,-409.0,-63.0,1514.0,-216.0,-79.0,0
20.0,-421.0,-90.0,1617.0,-185.0,-122.0,0
28.0,-450.0,-95.0,1692.0,-132.0,-158.0,0
27.0,-467.0,-97.0,1767.0,-75.0,-204.0,0
25.0,-492.0,-90.0,1874.0,-15.0,-262.0,0
18.0,-517.0,-95.0,2035.0,38.0,-321.0,0
21.0,-549.0,-92.0,2207.0,80.0,-373.0,0
14.0,-572.0,-103.0,2369.0,91.0,-441.0,0
-1.0,-579.0,-114.0,2530.0,79.0,-511.0,0
5.0,-579.0,-137.0,2677.0,48.0,-563.0,0
-11.0,-552.0,-144.0,2813.0,32.0,-578.0,0
-35.0,-522.0,-125.0,2928.0,-11.0,-523.0,0
-44.0,-487.0,-92.0,3013.0,-73.0,-405.0,0
-43.0,-455.0,-75.0,3056.0,-124.0,-269.0,0
-31.0,-412.0,-62.0,3025.0,-148.0,-159.0,0
-12.0,-372.0,-55.0,2911.0,-141.0,-75.0,0
5.0,-341.0,-41.0,2749.0,-106.0,-4.0,0
14.0,-319.0,-28.0,2580.0,-50.0,57.0,0
19.0,-291.0,-5.0,2431.0,-1.0,113.0,0
25.0,-264.0,11.0,2329.0,24.0,159.0,0
25.0,-245.0,27.0,2276.0,22.0,200.0,0
9.0,-226.0,29.0,2260.0,-10.0,234.0,0
4.0,-213.0,30.0,2259.0,-55.0,257.0,0
-3.0,-199.0,20.0,2260.0,-86.0,263.0,0
-6.0,-192.0,17.0,2256.0,-89.0,250.0,0
-6.0,-180.0,21.0,2249.0,-71.0,223.0,0
-5.0,-167.0,33.0,2235.0,-45.0,188.0,0
-4.0,-160.0,43.0,2216.0,-27.0,152.0,0
2.0,-153.0,49.0,2182.0,-24.0,109.0,0
-3.0,-143.0,62.0,2128.0,-49.0,57.0,0
-4.0,-136.0,75.0,2063.0,-110.0,10.0,0
-2.0,-138.0,92.0,2009.0,-180.0,-26.0,0
5.0,-138.0,99.0,1977.0,-231.0,-57.0,0
10.0,-142.0,107.0,1960.0,-257.0,-91.0,0
10.0,-151.0,113.0,1944.0,-261.0,-124.0,0
4.0,-159.0,119.0,1928.0,-252.0,-160.0,0
1.0,-176.0,121.0,1903.0,-238.0,-199.0,0
-2.0,-186.0,126.0,1860.0,-219.0,-249.0,0
-4.0,-197.0,123.0,1792.0,-194.0,-293.0,0
-17.0,-215.0,124.0,1698.0,-162.0,-342.0,0
-19.0,-230.0,126.0,1586.0,-121.0,-385.0,0
-23.0,-244.0,129.0,1471.0,-93.0,-420.0,0
-21.0,-252.0,128.0,1362.0,-71.0,-439.0,0
-28.0,-260.0,124.0,1262.0,-63.0,-446.0,0
-25.0,-268.0,119.0,1151.0,-63.0,-436.0,0
-22.0,-279.0,111.0,1073.0,-63.0,-411.0,0
-21.0,-285.0,110.0,1009.0,-60.0,-374.0,0
-23.0,-293.0,103.0,963.0,-53.0,-336.0,0
-20.0,-299.0,98.0,929.0,-42.0,-300.0,0
-21.0,-292.0,95.0,908.0,-28.0,-269.0,0
-25.0,-294.0,88.0,894.0,-19.0,-230.0,0
-23.0,-287.0,87.0,887.0,-23.0,-188.0,0
-24.0,-284.0,85.0,887.0,-43.0,-148.0,0
-25.0,-272.0,86.0,896.0,-71.0,-111.0,0
-16.0,-263.0,82.0,907.0,-94.0,-79.0,0
-19.0,-251.0,79.0,923.0,-113.0,-60.0,0
-14.0,-243.0,75.0,936.0,-129.0,-46.0,0
-11.0,-227.0,78.0,939.0,-145.0,-29.0,0
-9.0,-218.0,71.0,924.0,-159.0,-17.0,0
-4.0,-208.0,72.0,895.0,-170.0,-19.0,0
-4.0,-198.0,71.0,861.0,-174.0,-22.0,0
-1.0,-197.0,74.0,831.0,-168.0,-33.0,0
4.0,-194.0,78.0,803.0,-159.0,-43.0,0
4.0,-193.0,75.0,777.0,-145.0,-54.0,0
15.0,-195.0,73.0,745.0,-125.0,-70.0,0
13.0,-193.0,80.0,698.0,-109.0,-92.0,0
11.0,-195.0,81.0,653.0,-94.0,-96.0,0
19.0,-204.0,86.0,608.0,-95.0,-94.0,0
20.0,-208.0,92.0,571.0,-102.0,-91.0,0
23.0,-215.0,93.0,541.0,-113.0,-82.0,0
23.0,-218.0,92.0,515.0,-120.0,-69.0,0
23.0,-227.0,97.0,491.0,-126.0,-57.0,0
25.0,-232.0,101.0,470.0,-131.0,-48.0,0
29.0,-233.0,105.0,452.0,-135.0,-37.0,0
28.0,-237.0,106.0,443.0,-138.0,-27.0,0
31.0,-241.0,111.0,438.0,-141.0,-18.0,0
30.0,-236.0,108.0,437.0,-142.0,-17.0,0
29.0,-234.0,110.0,437.0,-140.0,-13.0,0
29.0,-237.0,110.0,432.0,-133.0,-12.0,0
25.0,-234.0,107.0,420.0,-126.0,-15.0,0
28.0,-231.0,102.0,403.0,-111.0,-17.0,0
26.0,-232.0,108.0,388.0,-91.0,-25.0,0
25.0,-232.0,112.0,376.0,-70.0,-33.0,0
26.0,-231.0,108.0,371.0,-56.0,-44.0,0
34.0,-231.0,109.0,372.0,-45.0,-55.0,0
24.0,-234.0,108.0,383.0,-40.0,-65.0,0
23.0,-232.0,108.0,395.0,-39.0,-71.0,0
21.0,-230.0,107.0,408.0,-41.0,-77.0,0
19.0,-226.0,108.0,416.0,-41.0,-85.0,0
20.0,-225.0,107.0,419.0,-35.0,-87.0,0
20.0,-223.0,109.0,417.0,-27.0,-86.0,0
22.0,-221.0,108.0,411.0,-22.0,-83.0,0
20.0,-213.0,105.0,402.0,-18.0,-77.0,0
18.0,-213.0,109.0,388.0,-14.0,-69.0,0
16.0,-214.0,104.0,369.0,-12.0,-62.0,0
15.0,-211.0,108.0,345.0,-14.0,-51.0,0
13.0,-212.0,110.0,317.0,-16.0,-42.0,0
13.0,-210.0,103.0,285.0,-22.0,-33.0,0
11.0,-214.0,104.0,254.0,-25.0,-27.0,0
14.0,-217.0,106.0,223.0,-26.0,-22.0,0
7.0,-216.0,103.0,191.0,-26.0,-17.0,0
6.0,-223.0,101.0,165.0,-29.0,-14.0,0
7.0,-231.0,101.0,144.0,-33.0,-12.0,0
3.0,-231.0,104.0,134.0,-36.0,-10.0,0
4.0,-233.0,108.0,133.0,-38.0,-9.0,0
1.0,-230.0,105.0,130.0,-37.0,-8.0,0
3.0,-232.0,106.0,129.0,-40.0,-5.0,0
2.0,-232.0,100.0,123.0,-42.0,-4.0,0
2.0,-231.0,104.0,116.0,-41.0,-2.0,0
5.0,-232.0,104.0,109.0,-38.0,-1.0,0
7.0,-235.0,104.0,104.0,-35.0,0.0,0
7.0,-228.0,106.0,99.0,-29.0,-2.0,0
6.0,-232.0,101.0,96.0,-28.0,-2.0,0
8.0,-229.0,102.0,93.0,-26.0,1.0,0
7.0,-227.0,104.0,87.0,-26.0,4.0,0
9.0,-228.0,101.0,79.0,-23.0,6.0,0
9.0,-230.0,97.0,69.0,-20.0,9.0,0
10.0,-230.0,102.0,57.0,-18.0,11.0,0
10.0,-230.0,99.0,46.0,-17.0,14.0,0
14.0,-229.0,99.0,40.0,-11.0,16.0,0
10.0,-231.0,104.0,37.0,-1.0,16.0,0
13.0,-231.0,100.0,35.0,3.0,17.0,0
9.0,-226.0,102.0,30.0,2.0,18.0,0
13.0,-230.0,103.0,26.0,-2.0,21.0,0
15.0,-228.0,101.0,21.0,-4.0,25.0,0
16.0,-231.0,98.0,17.0,-3.0,33.0,0
14.0,-229.0,101.0,16.0,-5.0,35.0,0
15.0,-232.0,107.0,16.0,-5.0,40.0,0
15.0,-230.0,108.0,16.0,-4.0,44.0,0
18.0,-234.0,107.0,19.0,-3.0,43.0,0
18.0,-231.0,110.0,26.0,3.0,43.0,0
21.0,-233.0,103.0,35.0,20.0,40.0,0
13.0,-231.0,102.0,30.0,34.0,35.0,0
15.0,-228.0,102.0,31.0,18.0,39.0,0
15.0,-230.0,104.0,29.0,2.0,47.0,0
13.0,-228.0,108.0,25.0,5.0,49.0,0
13.0,-230.0,106.0,28.0,15.0,45.0,0
12.0,-230.0,103.0,38.0,30.0,39.0,0
14.0,-230.0,105.0,44.0,39.0,39.0,0
13.0,-229.0,104.0,42.0,35.0,42.0,0
10.0,-231.0,103.0,39.0,30.0,45.0,0
11.0,-230.0,102.0,33.0,27.0,48.0,0
13.0,-232.0,104.0,26.0,27.0,51.0,0
11.0,-234.0,97.0,19.0,25.0,54.0,0
8.0,-228.0,97.0,11.0,25.0,54.0,0
8.0,-232.0,93.0,0.0,20.0,58.0,0
6.0,-229.0,93.0,-11.0,15.0,62.0,0
9.0,-231.0,94.0,-23.0,12.0,65.0,0
3.0,-235.0,94.0,-30.0,11.0,69.0,0
5.0,-234.0,96.0,-34.0,9.0,73.0,0
7.0,-238.0,95.0,-38.0,6.0,72.0,0
2.0,-234.0,99.0,-39.0,3.0,75.0,0
2.0,-231.0,96.0,-41.0,1.0,77.0,0
1.0,-232.0,95.0,-42.0,-1.0,79.0,0
3.0,-230.0,95.0,-45.0,-4.0,79.0,0
0.0,-230.0,95.0,-49.0,-5.0,80.0,0
2.0,-233.0,100.0,-54.0,-6.0,80.0,0
1.0,-233.0,101.0,-54.0,-4.0,83.0,0
5.0,-232.0,100.0,-51.0,-5.0,84.0,0
1.0,-231.0,102.0,-48.0,-5.0,88.0,0
5.0,-233.0,99.0,-45.0,-3.0,90.0,0
3.0,-232.0,99.0,-43.0,-2.0,91.0,0
4.0,-232.0,103.0,-40.0,-5.0,89.0,0
2.0,-236.0,101.0,-35.0,-6.0,88.0,0
2.0,-237.0,95.0,-29.0,-6.0,88.0,0
1.0,-234.0,98.0,-26.0,-6.0,88.0,0
0.0,-236.0,101.0,-28.0,-1.0,85.0,0
1.0,-232.0,101.0,-32.0,1.0,83.0,0
3.0,-235.0,96.0,-38.0,3.0,83.0,0
-1.0,-232.0,99.0,-43.0,6.0,82.0,0
-1.0,-232.0,100.0,-48.0,7.0,81.0,0
-1.0,-232.0,101.0,-49.0,10.0,78.0,0
3.0,-232.0,104.0,-47.0,12.0,77.0,0
1.0,-234.0,108.0,-46.0,14.0,75.0,0
0.0,-234.0,102.0,-44.0,14.0,75.0,0
1.0,-229.0,102.0,-42.0,14.0,76.0,0
4.0,-233.0,104.0,-42.0,13.0,75.0,0
-1.0,-233.0,98.0,-44.0,12.0,75.0,0
1.0,-236.0,101.0,-49.0,12.0,77.0,0
1.0,-232.0,101.0,-55.0,11.0,76.0,0
3.0,-230.0,98.0,-60.0,13.0,76.0,0
-1.0,-234.0,97.0,-66.0,14.0,79.0,0
1.0,-233.0,101.0,-71.0,15.0,79.0,0
3.0,-235.0,99.0,-75.0,15.0,81.0,0
1.0,-238.0,97.0,-77.0,14.0,81.0,0
-3.0,-232.0,99.0,-79.0,12.0,84.0,0
-1.0,-237.0,98.0,-80.0,15.0,85.0,0
1.0,-235.0,90.0,-78.0,19.0,83.0,0
1.0,-238.0,94.0,-73.0,23.0,81.0,0
0.0,-237.0,94.0,-66.0,29.0,79.0,0
-2.0,-238.0,92.0,-57.0,32.0,78.0,0
-4.0,-241.0,91.0,-48.0,31.0,77.0,0
1.0,-241.0,89.0,-38.0,28.0,75.0,0
-1.0,-239.0,88.0,-30.0,25.0,75.0,0
0.0,-240.0,90.0,-21.0,22.0,73.0,0
0.0,-243.0,84.0,-11.0,23.0,71.0,0
-2.0,-238.0,88.0,-3.0,27.0,69.0,0
-1.0,-241.0,88.0,5.0,27.0,67.0,0
-3.0,-243.0,90.0,12.0,24.0,64.0,0
-1.0,-240.0,87.0,19.0,22.0,62.0,0
-3.0,-240.0,83.0,28.0,21.0,61.0,0
-2.0,-241.0,83.0,38.0,20.0,59.0,0
-2.0,-243.0,87.0,49.0,18.0,55.0,0
-1.0,-239.0,81.0,61.0,15.0,52.0,0
8.0,-232.0,88.0,70.0,13.0,50.0,0
2.0,-241.0,84.0,78.0,15.0,47.0,0
-2.0,-237.0,85.0,81.0,17.0,45.0,0
4.0,-239.0,85.0,83.0,18.0,41.0,0
-2.0,-236.0,86.0,79.0,21.0,40.0,0
-3.0,-238.0,86.0,78.0,24.0,37.0,0
-3.0,-236.0,87.0,76.0,26.0,32.0,0
-3.0,-240.0,85.0,77.0,26.0,31.0,0
-3.0,-243.0,89.0,80.0,28.0,30.0,0
-3.0,-238.0,87.0,80.0,28.0,28.0,0
-4.0,-235.0,89.0,82.0,30.0,28.0,0
-4.0,-237.0,86.0,81.0,32.0,29.0,0
-4.0,-237.0,90.0,81.0,33.0,29.0,0
-2.0,-235.0,88.0,78.0,37.0,26.0,0
-1.0,-237.0,96.0,76.0,42.0,24.0,0
-3.0,-236.0,87.0,71.0,47.0,22.0,0
-4.0,-238.0,93.0,68.0,47.0,19.0,0
-4.0,-235.0,93.0,66.0,52.0,17.0,0
-4.0,-235.0,93.0,63.0,54.0,17.0,0
-3.0,-235.0,96.0,59.0,54.0,15.0,0
-3.0,-235.0,96.0,55.0,54.0,14.0,0
-4.0,-237.0,95.0,51.0,51.0,11.0,0
-4.0,-234.0,94.0,46.0,50.0,10.0,0
-6.0,-235.0,93.0,41.0,49.0,8.0,0
-4.0,-238.0,95.0,36.0,49.0,6.0,0
-4.0,-236.0,97.0,33.0,48.0,5.0,0
-6.0,-233.0,100.0,34.0,49.0,5.0,0
-4.0,-231.0,98.0,34.0,48.0,4.0,0
-2.0,-234.0,95.0,35.0,48.0,4.0,0
-4.0,-235.0,97.0,33.0,48.0,4.0,0
-4.0,-233.0,98.0,32.0,51.0,5.0,0
-3.0,-234.0,97.0,29.0,52.0,2.0,0
-4.0,-233.0,96.0,27.0,53.0,1.0,0
-4.0,-230.0,98.0,24.0,51.0,0.0,0
-2.0,-235.0,99.0,20.0,49.0,-4.0,0
-3.0,-233.0,99.0,18.0,46.0,-5.0,0
-5.0,-234.0,98.0,17.0,42.0,-7.0,0
-4.0,-233.0,100.0,16.0,41.0,-9.0,0
-3.0,-235.0,93.0,12.0,40.0,-9.0,0
-3.0,-233.0,95.0,9.0,38.0,-8.0,0
0.0,-239.0,97.0,4.0,35.0,-7.0,0
-4.0,-237.0,94.0,1.0,33.0,-5.0,0
-4.0,-233.0,95.0,-3.0,31.0,-3.0,0
-3.0,-236.0,94.0,-6.0,29.0,-3.0,0
-3.0,-234.0,94.0,-8.0,28.0,-2.0,0
-2.0,-232.0,94.0,-10.0,26.0,0.0,0
-4.0,-231.0,93.0,-15.0,25.0,0.0,0
-4.0,-232.0,93.0,-21.0,23.0,1.0,0
-1.0,-231.0,88.0,-26.0,19.0,2.0,0
-3.0,-231.0,92.0,-34.0,13.0,4.0,0
-3.0,-232.0,90.0,-45.0,9.0,6.0,0
-2.0,-235.0,92.0,-53.0,3.0,7.0,0
-2.0,-236.0,95.0,-61.0,0.0,9.0,0
-4.0,-234.0,89.0,-68.0,-5.0,11.0,0
-4.0,-231.0,88.0,-76.0,-9.0,12.0,0
-3.0,-234.0,92.0,-83.0,-11.0,14.0,0
-3.0,-235.0,89.0,-88.0,-11.0,15.0,0
-4.0,-233.0,93.0,-91.0,-11.0,15.0,0
-3.0,-237.0,92.0,-91.0,-7.0,15.0,0
-3.0,-239.0,94.0,-91.0,-2.0,15.0,0
-4.0,-235.0,92.0,-88.0,2.0,13.0,0
-3.0,-238.0,98.0,-86.0,7.0,14.0,0
-3.0,-239.0,91.0,-84.0,12.0,16.0,0
-4.0,-237.0,91.0,-81.0,15.0,16.0,0
-4.0,-236.0,89.0,-76.0,16.0,14.0,0
-4.0,-236.0,95.0,-76.0,19.0,12.0,0
-4.0,-240.0,90.0,-74.0,19.0,13.0,0
-3.0,-239.0,89.0,-73.0,17.0,15.0,0
-4.0,-237.0,86.0,-76.0,14.0,13.0,0
-4.0,-238.0,87.0,-76.0,12.0,14.0,0
-4.0,-238.0,88.0,-77.0,9.0,12.0,0
-4.0,-238.0,87.0,-76.0,6.0,13.0,0
-4.0,-242.0,84.0,-75.0,5.0,11.0,0
-4.0,-240.0,84.0,-70.0,4.0,11.0,0
-8.0,-238.0,89.0,-66.0,3.0,11.0,0
-7.0,-241.0,92.0,-60.0,3.0,10.0,0
-4.0,-241.0,85.0,-54.0,0.0,11.0,0
-4.0,-240.0,84.0,-46.0,-5.0,9.0,0
-4.0,-242.0,85.0,-36.0,-10.0,10.0,0
-7.0,-241.0,86.0,-23.0,-16.0,9.0,0
-5.0,-241.0,93.0,-9.0,-21.0,7.0,0
-3.0,-242.0,88.0,4.0,-27.0,6.0,0
-4.0,-238.0,86.0,13.0,-32.0,4.0,0
-5.0,-236.0,89.0,19.0,-38.0,3.0,0
-3.0,-238.0,92.0,23.0,-44.0,2.0,0
-4.0,-241.0,86.0,27.0,-49.0,-1.0,0
-4.0,-239.0,89.0,32.0,-51.0,-1.0,0
-9.0,-238.0,85.0,38.0,-53.0,-3.0,0
-3.0,-237.0,89.0,46.0,-53.0,-6.0,0
-3.0,-241.0,87.0,54.0,-52.0,-8.0,0
-1.0,-240.0,85.0,62.0,-49.0,-11.0,0
0.0,-240.0,85.0,72.0,-42.0,-14.0,0
3.0,-244.0,85.0,78.0,-35.0,-21.0,0
2.0,-243.0,84.0,81.0,-26.0,-23.0,0
2.0,-240.0,85.0,78.0,-20.0,-29.0,0
-1.0,-239.0,74.0,72.0,-13.0,-30.0,0
-1.0,-244.0,84.0,66.0,-5.0,-31.0,0
-2.0,-244.0,82.0,57.0,3.0,-29.0,0
-2.0,-242.0,80.0,51.0,11.0,-27.0,0
-4.0,-243.0,82.0,46.0,16.0,-26.0,0
-2.0,-246.0,85.0,44.0,20.0,-27.0,0
-3.0,-247.0,85.0,46.0,22.0,-28.0,0
-4.0,-243.0,86.0,50.0,24.0,-31.0,0
-6.0,-245.0,91.0,59.0,26.0,-33.0,0
-7.0,-243.0,93.0,71.0,27.0,-39.0,0
-10.0,-243.0,94.0,83.0,25.0,-41.0,0
-8.0,-243.0,93.0,95.0,24.0,-43.0,0
-9.0,-241.0,89.0,105.0,20.0,-44.0,0
-8.0,-240.0,85.0,112.0,15.0,-45.0,0
-5.0,-238.0,86.0,115.0,10.0,-43.0,0
-3.0,-237.0,85.0,116.0,4.0,-39.0,0
-3.0,-234.0,86.0,113.0,-2.0,-35.0,0
-2.0,-232.0,88.0,107.0,-5.0,-31.0,0
0.0,-231.0,84.0,99.0,-7.0,-29.0,0
4.0,-235.0,81.0,87.0,-7.0,-29.0,0
5.0,-235.0,87.0,75.0,-5.0,-28.0,0
5.0,-234.0,88.0,63.0,-1.0,-30.0,0
7.0,-237.0,87.0,51.0,3.0,-29.0,0
3.0,-235.0,87.0,44.0,6.0,-27.0,0
6.0,-238.0,89.0,39.0,7.0,-26.0,0
6.0,-222.0,86.0,37.0,10.0,-26.0,0
4.0,-237.0,87.0,37.0,15.0,-25.0,0
5.0,-235.0,90.0,37.0,19.0,-27.0,0
5.0,-243.0,95.0,38.0,22.0,-28.0,0
0.0,-238.0,91.0,36.0,24.0,-32.0,0
0.0,-238.0,88.0,35.0,26.0,-32.0,0
2.0,-240.0,92.0,35.0,28.0,-36.0,0
4.0,-239.0,87.0,35.0,28.0,-39.0,0
0.0,-238.0,91.0,33.0,27.0,-40.0,0
1.0,-239.0,88.0,32.0,28.0,-42.0,0
0.0,-234.0,91.0,35.0,30.0,-41.0,0
1.0,-239.0,89.0,34.0,31.0,-40.0,0
0.0,-237.0,94.0,35.0,31.0,-37.0,0
0.0,-236.0,91.0,37.0,31.0,-36.0,0
-3.0,-235.0,91.0,37.0,31.0,-33.0,0
-4.0,-236.0,90.0,36.0,29.0,-32.0,0
-4.0,-236.0,89.0,35.0,30.0,-31.0,0
-3.0,-235.0,89.0,34.0,29.0,-31.0,0
-4.0,-234.0,91.0,34.0,30.0,-30.0,0
-6.0,-237.0,91.0,33.0,29.0,-28.0,0
-6.0,-234.0,90.0,31.0,27.0,-25.0,0
-4.0,-233.0,91.0,28.0,24.0,-25.0,0
-5.0,-236.0,88.0,25.0,20.0,-24.0,0
-5.0,-234.0,90.0,23.0,18.0,-26.0,0
-7.0,-235.0,89.0,19.0,17.0,-26.0,0
-5.0,-238.0,93.0,16.0,14.0,-28.0,0
-4.0,-238.0,87.0,15.0,11.0,-27.0,0
-4.0,-239.0,89.0,13.0,7.0,-28.0,0
-5.0,-231.0,88.0,10.0,5.0,-26.0,0
-4.0,-236.0,87.0,6.0,3.0,-27.0,0
-5.0,-238.0,88.0,2.0,1.0,-24.0,0
-4.0,-236.0,89.0,-1.0,1.0,-24.0,0
-4.0,-237.0,89.0,-2.0,0.0,-22.0,0
-3.0,-236.0,86.0,-1.0,0.0,-23.0,0
-7.0,-239.0,85.0,0.0,0.0,-22.0,0
-4.0,-239.0,89.0,2.0,0.0,-19.0,0
-3.0,-239.0,88.0,4.0,1.0,-21.0,0
-3.0,-238.0,85.0,5.0,2.0,-20.0,0
-2.0,-242.0,85.0,4.0,3.0,-21.0,0
-5.0,-239.0,86.0,5.0,3.0,-23.0,0
-3.0,-242.0,89.0,3.0,2.0,-23.0,0
-3.0,-237.0,87.0,4.0,1.0,-24.0,0
-3.0,-239.0,87.0,6.0,2.0,-25.0,0
0.0,-238.0,85.0,7.0,2.0,-23.0,0
-1.0,-237.0,86.0,9.0,1.0,-24.0,0
-2.0,-241.0,89.0,11.0,-1.0,-22.0,0
-4.0,-238.0,85.0,10.0,-4.0,-21.0,0
-1.0,-238.0,87.0,10.0,-5.0,-21.0,0
-2.0,-236.0,87.0,10.0,-6.0,-24.0,0
-2.0,-240.0,90.0,10.0,-7.0,-22.0,0
-4.0,-236.0,84.0,10.0,-9.0,-22.0,0
0.0,-239.0,90.0,11.0,-9.0,-23.0,0
-2.0,-239.0,88.0,10.0,-8.0,-24.0,0
-1.0,-238.0,88.0,11.0,-7.0,-24.0,0
2.0,-241.0,86.0,10.0,-8.0,-23.0,0
2.0,-241.0,89.0,11.0,-8.0,-26.0,0
-2.0,-240.0,88.0,11.0,-8.0,-26.0,0
1.0,-240.0,85.0,12.0,-6.0,-27.0,0
1.0,-239.0,86.0,14.0,-6.0,-28.0,0
1.0,-240.0,83.0,19.0,-8.0,-30.0,0
0.0,-242.0,88.0,24.0,-8.0,-31.0,0
-1.0,-239.0,85.0,29.0,-8.0,-32.0,0
2.0,-240.0,85.0,31.0,-5.0,-32.0,0
0.0,-239.0,83.0,35.0,-4.0,-32.0,0
0.0,-241.0,84.0,36.0,-3.0,-34.0,0
0.0,-236.0,83.0,37.0,1.0,-33.0,0
-2.0,-241.0,83.0,37.0,3.0,-34.0,0
0.0,-239.0,82.0,39.0,5.0,-35.0,0
-1.0,-235.0,84.0,41.0,8.0,-36.0,0
-1.0,-241.0,84.0,41.0,11.0,-35.0,0
2.0,-241.0,86.0,42.0,15.0,-34.0,0
-1.0,-237.0,85.0,42.0,16.0,-34.0,0
1.0,-236.0,87.0,42.0,16.0,-30.0,0
2.0,-238.0,85.0,42.0,15.0,-25.0,0
4.0,-243.0,84.0,44.0,15.0,-25.0,0
1.0,-234.0,88.0,44.0,12.0,-26.0,0
1.0,-238.0,88.0,43.0,12.0,-25.0,0
2.0,-238.0,84.0,44.0,13.0,-24.0,0
1.0,-239.0,86.0,43.0,12.0,-25.0,0
3.0,-239.0,87.0,45.0,15.0,-25.0,0
1.0,-241.0,86.0,44.0,16.0,-25.0,0
3.0,-239.0,85.0,42.0,19.0,-23.0,0
2.0,-241.0,87.0,40.0,23.0,-24.0,0
3.0,-242.0,83.0,39.0,25.0,-25.0,0
1.0,-239.0,85.0,36.0,26.0,-26.0,0
-1.0,-242.0,86.0,35.0,27.0,-28.0,0
-1.0,-239.0,87.0,36.0,27.0,-27.0,0
5.0,-240.0,86.0,38.0,26.0,-26.0,0
2.0,-239.0,87.0,41.0,28.0,-26.0,0
0.0,-239.0,87.0,45.0,28.0,-25.0,0
2.0,-241.0,89.0,50.0,29.0,-25.0,0
0.0,-235.0,87.0,51.0,29.0,-23.0,0
2.0,-242.0,83.0,50.0,31.0,-22.0,0
2.0,-239.0,83.0,49.0,32.0,-22.0,0
2.0,-234.0,84.0,48.0,34.0,-23.0,0
-1.0,-236.0,85.0,47.0,37.0,-22.0,0
3.0,-236.0,81.0,47.0,39.0,-21.0,0
0.0,-239.0,85.0,48.0,40.0,-21.0,0
3.0,-242.0,88.0,47.0,41.0,-21.0,0
-2.0,-242.0,85.0,48.0,42.0,-20.0,0
-2.0,-238.0,89.0,52.0,41.0,-20.0,0
4.0,-240.0,89.0,54.0,40.0,-19.0,0
1.0,-238.0,89.0,59.0,38.0,-20.0,0
1.0,-242.0,83.0,65.0,38.0,-19.0,0
1.0,-244.0,81.0,71.0,35.0,-18.0,0
-2.0,-238.0,80.0,74.0,32.0,-16.0,0
0.0,-241.0,76.0,74.0,30.0,-17.0,0
-1.0,-237.0,83.0,71.0,29.0,-18.0,0
-2.0,-237.0,83.0,67.0,29.0,-17.0,0
-2.0,-239.0,85.0,62.0,28.0,-18.0,0
-2.0,-238.0,90.0,60.0,28.0,-16.0,0
-3.0,-238.0,88.0,63.0,31.0,-15.0,0
-3.0,-239.0,84.0,65.0,31.0,-15.0,0
-2.0,-239.0,87.0,68.0,33.0,-14.0,0
-1.0,-237.0,86.0,69.0,33.0,-14.0,0
-3.0,-236.0,88.0,70.0,34.0,-12.0,0
-1.0,-237.0,85.0,67.0,35.0,-11.0,0
0.0,-242.0,89.0,63.0,33.0,-11.0,0
-3.0,-236.0,89.0,59.0,31.0,-11.0,0
0.0,-239.0,85.0,56.0,30.0,-11.0,0
0.0,-240.0,83.0,54.0,29.0,-10.0,0
-2.0,-239.0,85.0,53.0,28.0,-10.0,0
-3.0,-241.0,85.0,52.0,27.0,-9.0,0
-2.0,-240.0,85.0,51.0,26.0,-9.0,0
-2.0,-239.0,78.0,52.0,27.0,-12.0,0
-3.0,-240.0,84.0,52.0,26.0,-12.0,0
0.0,-239.0,84.0,53.0,27.0,-13.0,0
-2.0,-238.0,88.0,53.0,26.0,-13.0,0
-3.0,-240.0,87.0,53.0,26.0,-13.0,0
1.0,-240.0,82.0,54.0,24.0,-13.0,0
-3.0,-223.0,89.0,57.0,23.0,-13.0,0
-2.0,-241.0,83.0,62.0,22.0,-16.0,0
-3.0,-237.0,84.0,64.0,22.0,-16.0,0
2.0,-240.0,83.0,68.0,23.0,-17.0,0
-4.0,-240.0,85.0,71.0,21.0,-15.0,0
-3.0,-241.0,83.0,74.0,23.0,-17.0,0
0.0,-240.0,84.0,77.0,21.0,-16.0,0
0.0,-241.0,86.0,76.0,20.0,-16.0,0
0.0,-240.0,83.0,77.0,21.0,-17.0,0
-2.0,-239.0,86.0,78.0,21.0,-16.0,0
0.0,-241.0,83.0,78.0,21.0,-16.0,0
0.0,-241.0,85.0,80.0,19.0,-16.0,0
-1.0,-243.0,81.0,82.0,18.0,-16.0,0
-2.0,-236.0,85.0,83.0,17.0,-18.0,0
-3.0,-241.0,81.0,82.0,18.0,-17.0,0
-2.0,-236.0,86.0,82.0,18.0,-14.0,0
0.0,-236.0,86.0,79.0,19.0,-15.0,0
2.0,-238.0,84.0,77.0,20.0,-14.0,0
-1.0,-239.0,83.0,71.0,20.0,-13.0,0
1.0,-239.0,85.0,67.0,20.0,-12.0,0
-3.0,-237.0,85.0,62.0,20.0,-10.0,0
0.0,-236.0,87.0,59.0,20.0,-10.0,0
0.0,-242.0,83.0,57.0,18.0,-10.0,0
-1.0,-239.0,84.0,56.0,18.0,-12.0,0
-2.0,-243.0,81.0,56.0,18.0,-14.0,0
-1.0,-238.0,85.0,57.0,20.0,-14.0,0
1.0,-242.0,84.0,56.0,21.0,-15.0,0
2.0,-241.0,84.0,56.0,21.0,-16.0,0
0.0,-239.0,86.0,56.0,20.0,-15.0,0
1.0,-238.0,91.0,56.0,19.0,-12.0,0
-1.0,-235.0,88.0,55.0,17.0,-11.0,0
2.0,-235.0,88.0,54.0,17.0,-8.0,0
-3.0,-237.0,88.0,54.0,13.0,-7.0,0
1.0,-240.0,87.0,53.0,13.0,-6.0,0
0.0,-236.0,87.0,53.0,11.0,-5.0,0
1.0,-241.0,85.0,52.0,8.0,-4.0,0
1.0,-238.0,87.0,50.0,9.0,-4.0,0
-3.0,-238.0,86.0,48.0,8.0,-3.0,0
0.0,-237.0,90.0,49.0,10.0,-5.0,0
-2.0,-237.0,87.0,50.0,11.0,-5.0,0
3.0,-237.0,89.0,51.0,11.0,-6.0,0
1.0,-239.0,88.0,53.0,11.0,-7.0,0
0.0,-235.0,92.0,55.0,13.0,-7.0,0
2.0,-238.0,87.0,56.0,13.0,-7.0,0
-4.0,-230.0,96.0,57.0,12.0,-9.0,0
3.0,-232.0,90.0,54.0,14.0,-14.0,0
0.0,-238.0,90.0,53.0,15.0,-14.0,0
-3.0,-241.0,88.0,49.0,18.0,-17.0,0
-1.0,-240.0,87.0,45.0,18.0,-18.0,0
1.0,-236.0,92.0,44.0,20.0,-17.0,0
1.0,-237.0,87.0,43.0,19.0,-17.0,0
-1.0,-238.0,87.0,42.0,21.0,-17.0,0
-1.0,-238.0,85.0,41.0,23.0,-16.0,0
-2.0,-237.0,88.0,40.0,22.0,-15.0,0
-3.0,-237.0,85.0,39.0,21.0,-14.0,0
-1.0,-236.0,85.0,39.0,20.0,-13.0,0
0.0,-241.0,88.0,39.0,23.0,-12.0,0
-1.0,-237.0,86.0,39.0,21.0,-12.0,0
-2.0,-239.0,89.0,39.0,22.0,-13.0,0
-3.0,-236.0,88.0,43.0,22.0,-12.0,0
-2.0,-239.0,86.0,46.0,22.0,-11.0,0
0.0,-242.0,87.0,45.0,21.0,-11.0,0
0.0,-241.0,88.0,47.0,19.0,-11.0,0
0.0,-237.0,91.0,48.0,21.0,-10.0,0
0.0,-238.0,88.0,47.0,23.0,-9.0,0
0.0,-238.0,90.0,45.0,24.0,-10.0,0
0.0,-237.0,89.0,43.0,24.0,-6.0,0
1.0,-238.0,86.0,38.0,24.0,-6.0,0
1.0,-237.0,84.0,35.0,24.0,-6.0,0
1.0,-240.0,88.0,32.0,21.0,-7.0,0
0.0,-242.0,85.0,28.0,21.0,-8.0,0
1.0,-240.0,84.0,25.0,19.0,-8.0,0
2.0,-239.0,87.0,25.0,16.0,-9.0,0
-1.0,-238.0,93.0,24.0,17.0,-7.0,0
0.0,-239.0,82.0,26.0,15.0,-8.0,0
0.0,-238.0,89.0,28.0,13.0,-10.0,0
-1.0,-239.0,85.0,29.0,12.0,-9.0,0
0.0,-238.0,83.0,29.0,13.0,-10.0,0
-2.0,-236.0,86.0,28.0,14.0,-9.0,0
-2.0,-239.0,86.0,29.0,13.0,-10.0,0
-2.0,-235.0,87.0,29.0,13.0,-10.0,0
-1.0,-238.0,91.0,28.0,16.0,-9.0,0
-2.0,-237.0,90.0,25.0,16.0,-9.0,0
-2.0,-238.0,87.0,24.0,16.0,-8.0,0
-1.0,-239.0,88.0,23.0,16.0,-7.0,0
-1.0,-238.0,86.0,21.0,17.0,-5.0,0
-2.0,-237.0,85.0,21.0,19.0,-5.0,0
0.0,-241.0,83.0,20.0,20.0,-5.0,0
-4.0,-238.0,83.0,19.0,18.0,-5.0,0
-2.0,-237.0,84.0,20.0,14.0,-4.0,0
-3.0,-241.0,82.0,19.0,11.0,-4.0,0
-3.0,-239.0,82.0,20.0,8.0,-5.0,0
-2.0,-240.0,81.0,21.0,5.0,-6.0,0
-1.0,-244.0,81.0,25.0,2.0,-8.0,0
-4.0,-244.0,79.0,30.0,3.0,-9.0,0
-2.0,-242.0,82.0,37.0,2.0,-10.0,0
0.0,-244.0,83.0,43.0,2.0,-10.0,0
-3.0,-242.0,81.0,50.0,2.0,-12.0,0
-2.0,-238.0,84.0,58.0,3.0,-14.0,0
-3.0,-241.0,89.0,65.0,3.0,-16.0,0
1.0,-241.0,86.0,75.0,3.0,-19.0,0
-1.0,-242.0,88.0,84.0,4.0,-19.0,0
-1.0,-241.0,86.0,93.0,5.0,-21.0,0
2.0,-243.0,87.0,100.0,4.0,-21.0,0
0.0,-238.0,86.0,105.0,4.0,-22.0,0
-1.0,-242.0,83.0,106.0,4.0,-24.0,0
-1.0,-235.0,80.0,103.0,2.0,-23.0,0
1.0,-238.0,81.0,100.0,0.0,-23.0,0
0.0,-234.0,83.0,91.0,-2.0,-22.0,0
1.0,-234.0,85.0,83.0,-3.0,-22.0,0
2.0,-237.0,84.0,75.0,-2.0,-23.0,0
0.0,-234.0,85.0,69.0,-3.0,-22.0,0
2.0,-235.0,88.0,65.0,-1.0,-24.0,0
3.0,-239.0,89.0,60.0,2.0,-25.0,0
1.0,-237.0,91.0,56.0,7.0,-24.0,0
0.0,-236.0,91.0,53.0,8.0,-23.0,0
1.0,-236.0,91.0,49.0,10.0,-21.0,0
0.0,-238.0,95.0,45.0,12.0,-22.0,0
1.0,-237.0,89.0,40.0,14.0,-23.0,0
-2.0,-237.0,89.0,36.0,18.0,-23.0,0
-1.0,-236.0,85.0,32.0,20.0,-22.0,0
2.0,-237.0,87.0,29.0,21.0,-21.0,0
-1.0,-239.0,90.0,24.0,23.0,-20.0,0
1.0,-237.0,85.0,23.0,23.0,-20.0,0
-1.0,-235.0,86.0,20.0,24.0,-22.0,0
-1.0,-236.0,86.0,15.0,26.0,-22.0,0
0.0,-237.0,88.0,10.0,28.0,-22.0,0
3.0,-241.0,87.0,4.0,30.0,-23.0,0
-2.0,-239.0,87.0,0.0,30.0,-24.0,0
0.0,-241.0,85.0,-5.0,30.0,-25.0,0
-2.0,-237.0,86.0,-6.0,32.0,-25.0,0
4.0,-238.0,89.0,-11.0,33.0,-26.0,0
-1.0,-237.0,86.0,-11.0,31.0,-24.0,0
0.0,-237.0,84.0,-11.0,30.0,-26.0,0
0.0,-239.0,83.0,-11.0,29.0,-26.0,0
1.0,-240.0,81.0,-9.0,28.0,-26.0,0
-2.0,-236.0,83.0,-7.0,27.0,-24.0,0
2.0,-243.0,85.0,-6.0,25.0,-26.0,0
0.0,-241.0,83.0,-5.0,25.0,-23.0,0
-1.0,-237.0,82.0,-4.0,26.0,-23.0,0
-2.0,-238.0,83.0,-2.0,23.0,-22.0,0
0.0,-240.0,83.0,-1.0,21.0,-23.0,0
-1.0,-237.0,85.0,-1.0,20.0,-23.0,0
0.0,-239.0,87.0,-3.0,21.0,-25.0,0
2.0,-238.0,82.0,-3.0,21.0,-26.0,0
4.0,-240.0,85.0,-6.0,20.0,-29.0,0
0.0,-238.0,87.0,-11.0,21.0,-27.0,0
2.0,-236.0,81.0,-14.0,22.0,-27.0,0
2.0,-236.0,83.0,-17.0,21.0,-27.0,0
1.0,-240.0,78.0,-19.0,22.0,-25.0,0
-1.0,-238.0,83.0,-21.0,22.0,-25.0,0
2.0,-240.0,82.0,-22.0,20.0,-26.0,0
0.0,-243.0,84.0,-23.0,20.0,-27.0,0
-1.0,-240.0,84.0,-23.0,19.0,-28.0,0
-1.0,-242.0,82.0,-21.0,18.0,-28.0,0
1.0,-240.0,84.0,-20.0,15.0,-31.0,0
-2.0,-243.0,79.0,-21.0,13.0,-32.0,0
0.0,-244.0,79.0,-22.0,10.0,-34.0,0
-1.0,-241.0,82.0,-23.0,10.0,-37.0,0
-2.0,-239.0,82.0,-26.0,7.0,-35.0,0
-3.0,-238.0,80.0,-29.0,6.0,-38.0,0
-1.0,-242.0,81.0,-29.0,0.0,-39.0,0
-3.0,-240.0,83.0,-28.0,-3.0,-40.0,0
-3.0,-239.0,83.0,-24.0,-6.0,-41.0,0
5.0,-237.0,87.0,-22.0,-6.0,-41.0,0
2.0,-240.0,86.0,-19.0,-8.0,-39.0,0
-1.0,-240.0,81.0,-16.0,-10.0,-39.0,0
-4.0,-242.0,80.0,-14.0,-10.0,-38.0,0
-1.0,-240.0,79.0,-13.0,-10.0,-36.0,0
0.0,-237.0,80.0,-14.0,-9.0,-35.0,0
3.0,-241.0,79.0,-15.0,-8.0,-33.0,0
1.0,-240.0,80.0,-18.0,-6.0,-33.0,0
0.0,-239.0,80.0,-22.0,-5.0,-34.0,0
2.0,-240.0,83.0,-25.0,-2.0,-33.0,0
0.0,-239.0,81.0,-30.0,-1.0,-35.0,0
1.0,-241.0,79.0,-37.0,-3.0,-34.0,0
0.0,-240.0,79.0,-48.0,-7.0,-38.0,0
0.0,-238.0,82.0,-58.0,-10.0,-38.0,0
-2.0,-240.0,81.0,-74.0,-13.0,-41.0,0
0.0,-238.0,77.0,-90.0,-17.0,-41.0,0
-3.0,-237.0,75.0,-106.0,-23.0,-40.0,0
-1.0,-234.0,78.0,-121.0,-29.0,-40.0,0
2.0,-235.0,77.0,-135.0,-33.0,-36.0,0
0.0,-235.0,79.0,-149.0,-37.0,-31.0,0
3.0,-240.0,79.0,-158.0,-37.0,-27.0,0
-2.0,-238.0,74.0,-167.0,-39.0,-29.0,0
0.0,-235.0,73.0,-177.0,-42.0,-31.0,0
0.0,-233.0,80.0,-192.0,-46.0,-34.0,0
0.0,-234.0,72.0,-208.0,-49.0,-39.0,0
-1.0,-234.0,77.0,-224.0,-54.0,-42.0,0
1.0,-234.0,74.0,-238.0,-58.0,-46.0,0
2.0,-234.0,71.0,-254.0,-60.0,-46.0,0
1.0,-233.0,70.0,-271.0,-63.0,-44.0,0
-2.0,-236.0,76.0,-289.0,-66.0,-42.0,0
-1.0,-235.0,75.0,-305.0,-71.0,-38.0,0
-2.0,-237.0,69.0,-318.0,-76.0,-37.0,0
0.0,-243.0,73.0,-331.0,-79.0,-36.0,0
-2.0,-236.0,73.0,-342.0,-82.0,-37.0,0
-1.0,-234.0,69.0,-354.0,-89.0,-37.0,0
-1.0,-236.0,73.0,-367.0,-98.0,-39.0,0
0.0,-239.0,72.0,-384.0,-107.0,-36.0,0
2.0,-239.0,72.0,-404.0,-112.0,-36.0,0
3.0,-240.0,73.0,-422.0,-116.0,-36.0,0
0.0,-244.0,75.0,-437.0,-116.0,-36.0,0
-1.0,-241.0,73.0,-449.0,-118.0,-35.0,0
-3.0,-245.0,71.0,-457.0,-120.0,-30.0,0
-2.0,-247.0,73.0,-468.0,-122.0,-26.0,0
-2.0,-246.0,70.0,-476.0,-119.0,-20.0,0
-3.0,-244.0,69.0,-483.0,-116.0,-14.0,0
-4.0,-244.0,72.0,-484.0,-114.0,-12.0,0
-3.0,-246.0,67.0,-485.0,-116.0,-10.0,0
-1.0,-242.0,71.0,-482.0,-123.0,-9.0,0
0.0,-243.0,72.0,-475.0,-125.0,-12.0,0
2.0,-240.0,73.0,-461.0,-124.0,-19.0,0
3.0,-239.0,73.0,-445.0,-118.0,-27.0,0
2.0,-242.0,73.0,-429.0,-113.0,-37.0,0
4.0,-238.0,73.0,-418.0,-108.0,-44.0,0
7.0,-233.0,71.0,-415.0,-102.0,-48.0,0
6.0,-233.0,74.0,-421.0,-99.0,-52.0,0
5.0,-232.0,73.0,-430.0,-92.0,-51.0,0
13.0,-231.0,71.0,-440.0,-84.0,-50.0,0
8.0,-230.0,75.0,-454.0,-77.0,-48.0,0
11.0,-231.0,71.0,-472.0,-68.0,-45.0,0
9.0,-229.0,71.0,-496.0,-56.0,-44.0,0
12.0,-227.0,73.0,-522.0,-42.0,-44.0,0
13.0,-231.0,67.0,-552.0,-27.0,-43.0,0
13.0,-228.0,65.0,-583.0,-13.0,-47.0,0
14.0,-229.0,60.0,-613.0,0.0,-48.0,0
14.0,-230.0,60.0,-642.0,13.0,-48.0,0
16.0,-234.0,51.0,-670.0,24.0,-51.0,0
18.0,-235.0,51.0,-697.0,35.0,-50.0,0
12.0,-232.0,50.0,-721.0,45.0,-50.0,0
15.0,-235.0,52.0,-746.0,52.0,-52.0,0
14.0,-234.0,50.0,-767.0,57.0,-53.0,0
11.0,-234.0,45.0,-786.0,60.0,-51.0,0
10.0,-235.0,42.0,-805.0,69.0,-48.0,0
11.0,-233.0,42.0,-825.0,73.0,-44.0,0
9.0,-234.0,39.0,-847.0,73.0,-39.0,0
10.0,-235.0,41.0,-870.0,69.0,-36.0,0
-8.0,-228.0,38.0,-896.0,61.0,-31.0,0
12.0,-232.0,30.0,-927.0,40.0,-20.0,0
8.0,-232.0,34.0,-966.0,35.0,-22.0,0
4.0,-231.0,31.0,-1002.0,35.0,-20.0,0
6.0,-230.0,38.0,-1027.0,29.0,-20.0,0
5.0,-229.0,39.0,-1049.0,22.0,-17.0,0
4.0,-229.0,40.0,-1070.0,10.0,-13.0,0
8.0,-226.0,40.0,-1088.0,-12.0,-3.0,0
6.0,-224.0,39.0,-1111.0,-31.0,0.0,0
1.0,-225.0,40.0,-1138.0,-54.0,5.0,0
-1.0,-225.0,46.0,-1176.0,-84.0,16.0,0
-4.0,-224.0,44.0,-1228.0,-123.0,28.0,0
1.0,-220.0,52.0,-1297.0,-165.0,42.0,0
-7.0,-227.0,52.0,-1382.0,-205.0,60.0,0
-5.0,-229.0,56.0,-1480.0,-247.0,85.0,0
-10.0,-230.0,59.0,-1590.0,-291.0,109.0,0
-18.0,-237.0,61.0,-1712.0,-335.0,136.0,0
-28.0,-244.0,66.0,-1842.0,-382.0,160.0,0
-37.0,-251.0,68.0,-1954.0,-436.0,186.0,0
-36.0,-260.0,69.0,-2044.0,-499.0,210.0,0
-42.0,-268.0,75.0,-2100.0,-553.0,246.0,0
-41.0,-274.0,78.0,-2095.0,-595.0,297.0,0
-34.0,-279.0,84.0,-2043.0,-643.0,341.0,0
-31.0,-290.0,82.0,-1968.0,-696.0,364.0,0
-26.0,-287.0,74.0,-1895.0,-739.0,378.0,0
-18.0,-290.0,73.0,-1851.0,-769.0,386.0,0
-12.0,-292.0,72.0,-1853.0,-780.0,381.0,0
-4.0,-295.0,67.0,-1908.0,-772.0,366.0,0
1.0,-305.0,61.0,-2017.0,-742.0,345.0,0
10.0,-314.0,53.0,-2158.0,-693.0,325.0,0
18.0,-322.0,47.0,-2308.0,-622.0,302.0,0
20.0,-333.0,45.0,-2440.0,-549.0,273.0,0
27.0,-342.0,44.0,-2545.0,-494.0,237.0,0
37.0,-360.0,45.0,-2605.0,-459.0,207.0,0
42.0,-377.0,44.0,-2619.0,-426.0,193.0,0
50.0,-389.0,46.0,-2576.0,-390.0,199.0,0
51.0,-398.0,28.0,-2486.0,-338.0,222.0,0
52.0,-405.0,6.0,-2354.0,-282.0,246.0,0
35.0,-401.0,-39.0,-2202.0,-237.0,259.0,0
18.0,-399.0,-78.0,-2041.0,-209.0,249.0,0
1.0,-406.0,-110.0,-1885.0,-195.0,215.0,0
-18.0,-412.0,-122.0,-1716.0,-181.0,172.0,0
-30.0,-418.0,-125.0,-1514.0,-166.0,124.0,0
-45.0,-419.0,-121.0,-1281.0,-162.0,87.0,0
-43.0,-414.0,-113.0,-1034.0,-176.0,60.0,0
-37.0,-412.0,-108.0,-803.0,-200.0,65.0,0
-33.0,-409.0,-105.0,-600.0,-227.0,84.0,0
-28.0,-413.0,-105.0,-447.0,-273.0,106.0,0
-19.0,-425.0,-107.0,-341.0,-289.0,126.0,0
-9.0,-438.0,-103.0,-269.0,-283.0,149.0,0
-14.0,-444.0,-106.0,-196.0,-275.0,153.0,0
-18.0,-443.0,-100.0,-136.0,-262.0,147.0,0
-18.0,-450.0,-98.0,-46.0,-260.0,128.0,0
-24.0,-442.0,-95.0,80.0,-258.0,95.0,0
-23.0,-429.0,-90.0,247.0,-244.0,56.0,0
-10.0,-410.0,-86.0,436.0,-204.0,20.0,0
-10.0,-391.0,-92.0,620.0,-161.0,-5.0,0
-6.0,-370.0,-91.0,793.0,-139.0,-23.0,0
2.0,-337.0,-96.0,946.0,-131.0,-38.0,0
11.0,-313.0,-89.0,1059.0,-118.0,-48.0,0
10.0,-288.0,-89.0,1146.0,-103.0,-52.0,0
6.0,-272.0,-90.0,1203.0,-93.0,-49.0,0
3.0,-257.0,-82.0,1232.0,-94.0,-40.0,0
4.0,-242.0,-78.0,1233.0,-101.0,-39.0,0
3.0,-235.0,-74.0,1213.0,-107.0,-45.0,0
9.0,-228.0,-62.0,1177.0,-104.0,-59.0,0
0.0,-233.0,-62.0,1134.0,-93.0,-70.0,0
-2.0,-235.0,-55.0,1086.0,-80.0,-84.0,0
-1.0,-239.0,-58.0,1028.0,-57.0,-97.0,0
-7.0,-245.0,-52.0,977.0,-36.0,-104.0,0
-6.0,-253.0,-54.0,940.0,-28.0,-106.0,0
-13.0,-255.0,-56.0,901.0,-28.0,-107.0,0
-17.0,-263.0,-59.0,866.0,-34.0,-105.0,0
-21.0,-265.0,-59.0,838.0,-40.0,-105.0,0
-22.0,-267.0,-57.0,818.0,-47.0,-115.0,0
-22.0,-269.0,-61.0,803.0,-52.0,-125.0,0
-21.0,-269.0,-63.0,798.0,-54.0,-126.0,0
-23.0,-268.0,-69.0,798.0,-60.0,-118.0,0
-22.0,-269.0,-71.0,802.0,-72.0,-99.0,0
-21.0,-268.0,-72.0,819.0,-89.0,-82.0,0
-18.0,-269.0,-75.0,846.0,-113.0,-61.0,0
-16.0,-261.0,-71.0,881.0,-135.0,-42.0,0
-10.0,-260.0,-73.0,920.0,-152.0,-21.0,0
-11.0,-258.0,-68.0,955.0,-161.0,-2.0,0
-4.0,-248.0,-75.0,977.0,-159.0,21.0,0
-3.0,-243.0,-76.0,981.0,-154.0,45.0,0
2.0,-235.0,-79.0,972.0,-151.0,61.0,0
4.0,-226.0,-79.0,954.0,-144.0,72.0,0
4.0,-223.0,-79.0,931.0,-134.0,81.0,0
5.0,-216.0,-84.0,904.0,-119.0,87.0,0
1.0,-213.0,-82.0,872.0,-106.0,87.0,0
0.0,-211.0,-81.0,842.0,-90.0,84.0,0
-3.0,-211.0,-81.0,815.0,-71.0,70.0,0
-4.0,-211.0,-76.0,799.0,-49.0,55.0,0
-12.0,-208.0,-72.0,795.0,-34.0,30.0,0
-13.0,-205.0,-71.0,801.0,-21.0,3.0,0
-19.0,-203.0,-71.0,809.0,-11.0,-16.0,0
-25.0,-202.0,-70.0,814.0,1.0,-32.0,0
-26.0,-199.0,-72.0,814.0,10.0,-47.0,0
-29.0,-196.0,-64.0,812.0,19.0,-53.0,0
-28.0,-197.0,-68.0,807.0,27.0,-50.0,0
-23.0,-192.0,-66.0,799.0,33.0,-45.0,0
-24.0,-191.0,-63.0,790.0,32.0,-38.0,0
-22.0,-186.0,-59.0,768.0,18.0,-33.0,0
-20.0,-183.0,-58.0,747.0,5.0,-26.0,0
-13.0,-183.0,-62.0,730.0,1.0,-13.0,0
-12.0,-182.0,-58.0,711.0,6.0,2.0,0
-5.0,-180.0,-59.0,696.0,19.0,14.0,0
-4.0,-179.0,-38.0,686.0,31.0,24.0,0
-4.0,-175.0,-53.0,685.0,42.0,27.0,0
-3.0,-169.0,-57.0,693.0,57.0,26.0,0
1.0,-163.0,-47.0,713.0,75.0,26.0,0
3.0,-158.0,-51.0,746.0,93.0,26.0,0
6.0,-153.0,-49.0,777.0,109.0,21.0,0
5.0,-147.0,-55.0,792.0,119.0,11.0,0
4.0,-141.0,-54.0,795.0,127.0,2.0,0
7.0,-136.0,-48.0,796.0,138.0,0.0,0
7.0,-134.0,-44.0,794.0,150.0,-5.0,0
3.0,-128.0,-47.0,793.0,156.0,-9.0,0
1.0,-127.0,-31.0,781.0,158.0,-14.0,0
5.0,-120.0,-37.0,803.0,154.0,-17.0,0
-2.0,-112.0,-33.0,831.0,150.0,-13.0,0
-1.0,-104.0,-40.0,849.0,144.0,-13.0,0
-4.0,-107.0,-42.0,822.0,149.0,-15.0,0
-4.0,-113.0,-44.0,754.0,161.0,-10.0,0
-1.0,-121.0,-38.0,668.0,169.0,-1.0,0
-6.0,-129.0,-39.0,594.0,172.0,13.0,0
-7.0,-130.0,-35.0,535.0,168.0,34.0,0
-5.0,-135.0,-34.0,491.0,162.0,58.0,0
-12.0,-129.0,-33.0,459.0,153.0,76.0,0
-16.0,-132.0,-39.0,424.0,147.0,88.0,0
-15.0,-131.0,-35.0,384.0,140.0,98.0,0
-18.0,-131.0,-39.0,332.0,134.0,106.0,0
-19.0,-131.0,-37.0,284.0,130.0,117.0,0
-15.0,-133.0,-37.0,239.0,130.0,130.0,0
-15.0,-135.0,-47.0,194.0,134.0,134.0,0
-16.0,-131.0,-47.0,136.0,142.0,132.0,0
-8.0,-133.0,-52.0,70.0,158.0,124.0,0
-5.0,-137.0,-52.0,-10.0,170.0,107.0,0
-8.0,-141.0,-49.0,-94.0,182.0,94.0,0
-2.0,-154.0,-49.0,-184.0,190.0,81.0,0
-2.0,-166.0,-47.0,-264.0,204.0,60.0,0
-1.0,-185.0,-40.0,-324.0,215.0,42.0,0
-2.0,-192.0,-30.0,-365.0,220.0,30.0,0
1.0,-204.0,-26.0,-387.0,216.0,15.0,0
1.0,-216.0,-22.0,-395.0,216.0,3.0,0
2.0,-221.0,-29.0,-399.0,227.0,-7.0,0
4.0,-227.0,-38.0,-405.0,257.0,-16.0,0
0.0,-233.0,-53.0,-417.0,300.0,-24.0,0
-6.0,-244.0,-54.0,-437.0,344.0,-27.0,0
-15.0,-255.0,-66.0,-464.0,376.0,-20.0,0
-24.0,-273.0,-67.0,-497.0,395.0,-3.0,0
-35.0,-295.0,-74.0,-516.0,401.0,23.0,0
-41.0,-317.0,-67.0,-503.0,403.0,47.0,0
-45.0,-336.0,-62.0,-450.0,400.0,64.0,0
-50.0,-356.0,-53.0,-364.0,399.0,73.0,0
-48.0,-371.0,-46.0,-257.0,406.0,76.0,0
-46.0,-377.0,-40.0,-139.0,419.0,72.0,0
-40.0,-377.0,-30.0,-17.0,435.0,64.0,0
-26.0,-371.0,-21.0,104.0,456.0,49.0,0
-18.0,-360.0,-15.0,226.0,477.0,26.0,0
-12.0,-333.0,-9.0,342.0,498.0,-6.0,0
-4.0,-318.0,-6.0,448.0,514.0,-38.0,0
-4.0,-292.0,-3.0,531.0,526.0,-67.0,0
-8.0,-264.0,0.0,588.0,532.0,-91.0,0
-11.0,-239.0,4.0,615.0,534.0,-99.0,0
-16.0,-226.0,-1.0,622.0,524.0,-95.0,0
-24.0,-209.0,6.0,605.0,502.0,-77.0,0
-26.0,-202.0,1.0,572.0,473.0,-52.0,0
-37.0,-191.0,-1.0,535.0,443.0,-17.0,0
-45.0,-188.0,-3.0,489.0,412.0,16.0,0
-51.0,-193.0,-7.0,431.0,382.0,48.0,0
-53.0,-196.0,-9.0,366.0,346.0,68.0,0
-50.0,-204.0,-12.0,290.0,306.0,79.0,0
-50.0,-211.0,-14.0,216.0,262.0,85.0,0
-41.0,-218.0,-14.0,156.0,212.0,86.0,0
-37.0,-218.0,-16.0,107.0,161.0,85.0,0
-33.0,-220.0,-14.0,68.0,116.0,83.0,0
-33.0,-216.0,-19.0,35.0,80.0,80.0,0
-27.0,-215.0,-15.0,5.0,53.0,80.0,0
-32.0,-212.0,-16.0,-26.0,30.0,78.0,0
-27.0,-212.0,-16.0,-57.0,12.0,77.0,0
-22.0,-214.0,-9.0,-87.0,4.0,79.0,0
-20.0,-214.0,-10.0,-115.0,0.0,82.0,0
-12.0,-217.0,-5.0,-143.0,4.0,87.0,0
-11.0,-225.0,-8.0,-168.0,13.0,97.0,0
-11.0,-231.0,-5.0,-195.0,26.0,105.0,0
-11.0,-241.0,-8.0,-229.0,34.0,106.0,0
-11.0,-248.0,-11.0,-262.0,40.0,102.0,0
-11.0,-256.0,-16.0,-288.0,40.0,90.0,0
-11.0,-261.0,-22.0,-302.0,41.0,75.0,0
-14.0,-267.0,-23.0,-302.0,38.0,54.0,0
-20.0,-270.0,-25.0,-290.0,32.0,30.0,0
-28.0,-274.0,-28.0,-270.0,24.0,11.0,0
-27.0,-278.0,-26.0,-240.0,13.0,-8.0,0
-28.0,-283.0,-26.0,-204.0,2.0,-21.0,0
-23.0,-283.0,-29.0,-164.0,-8.0,-32.0,0
-26.0,-280.0,-30.0,-126.0,-15.0,-37.0,0
-22.0,-282.0,-30.0,-89.0,-14.0,-36.0,0
-16.0,-281.0,-33.0,-53.0,-10.0,-36.0,0
-10.0,-279.0,-31.0,-28.0,-6.0,-30.0,0
-6.0,-279.0,-31.0,-7.0,-4.0,-20.0,0
-2.0,-281.0,-29.0,10.0,-5.0,-10.0,0
-4.0,-283.0,-26.0,29.0,-5.0,-2.0,0
-1.0,-284.0,-20.0,52.0,-7.0,8.0,0
-1.0,-278.0,-21.0,85.0,-10.0,13.0,0
-3.0,-273.0,-20.0,123.0,-14.0,21.0,0
-3.0,-264.0,-17.0,157.0,-19.0,22.0,0
-3.0,-259.0,-20.0,183.0,-26.0,24.0,0
-12.0,-251.0,-17.0,193.0,-35.0,26.0,0
-14.0,-242.0,-16.0,186.0,-39.0,23.0,0
-17.0,-239.0,-16.0,162.0,-42.0,19.0,0
-20.0,-234.0,-16.0,132.0,-42.0,12.0,0
-21.0,-237.0,-14.0,99.0,-42.0,4.0,0
-26.0,-232.0,-12.0,72.0,-42.0,-3.0,0
-21.0,-234.0,-9.0,51.0,-41.0,-12.0,0
-17.0,-237.0,-11.0,37.0,-38.0,-21.0,0
-17.0,-234.0,-6.0,31.0,-37.0,-29.0,0
-17.0,-239.0,-5.0,30.0,-40.0,-36.0,0
-18.0,-239.0,-9.0,28.0,-42.0,-40.0,0
-14.0,-237.0,-5.0,29.0,-44.0,-44.0,0
-14.0,-236.0,-11.0,29.0,-47.0,-44.0,0
-12.0,-236.0,0.0,29.0,-46.0,-47.0,0
-11.0,-236.0,-5.0,26.0,-44.0,-46.0,0
-12.0,-236.0,-7.0,20.0,-43.0,-46.0,0
-11.0,-237.0,-3.0,10.0,-42.0,-43.0,0
-14.0,-239.0,-5.0,0.0,-42.0,-39.0,0
-10.0,-237.0,-5.0,-12.0,-43.0,-37.0,0
-10.0,-243.0,-6.0,-22.0,-44.0,-36.0,0
-12.0,-239.0,-3.0,-29.0,-46.0,-33.0,0
-15.0,-243.0,-3.0,-32.0,-49.0,-31.0,0
-18.0,-244.0,-4.0,-31.0,-50.0,-27.0,0
-16.0,-245.0,-7.0,-31.0,-51.0,-25.0,0
-15.0,-249.0,-6.0,-32.0,-49.0,-24.0,0
-15.0,-247.0,-9.0,-31.0,-48.0,-23.0,0
-18.0,-249.0,-7.0,-30.0,-46.0,-26.0,0
-20.0,-251.0,-9.0,-30.0,-43.0,-27.0,0
-20.0,-247.0,-7.0,-28.0,-40.0,-29.0,0
-23.0,-251.0,-5.0,-27.0,-36.0,-31.0,0
-19.0,-251.0,-11.0,-30.0,-31.0,-35.0,0
-20.0,-253.0,-14.0,-33.0,-25.0,-43.0,0
-14.0,-253.0,-11.0,-34.0,-14.0,-50.0,0
-20.0,-255.0,-11.0,-36.0,-5.0,-61.0,0
-21.0,-250.0,-16.0,-40.0,9.0,-72.0,0
-19.0,-258.0,-12.0,-44.0,21.0,-75.0,0
-18.0,-259.0,-16.0,-46.0,28.0,-78.0,0
-17.0,-261.0,-14.0,-46.0,36.0,-83.0,0
-22.0,-263.0,-13.0,-45.0,45.0,-88.0,0
-11.0,-265.0,-9.0,-40.0,51.0,-90.0,0
-20.0,-262.0,-8.0,-31.0,54.0,-93.0,0
-17.0,-261.0,-11.0,-14.0,54.0,-93.0,0
-19.0,-258.0,-14.0,5.0,55.0,-92.0,0
-18.0,-259.0,-12.0,18.0,58.0,-89.0,0
-15.0,-258.0,-10.0,27.0,57.0,-88.0,0
-18.0,-256.0,-12.0,29.0,56.0,-84.0,0
-19.0,-254.0,-10.0,28.0,54.0,-78.0,0
-19.0,-258.0,-10.0,25.0,57.0,-74.0,0
-18.0,-257.0,-14.0,24.0,59.0,-68.0,0
-17.0,-259.0,-10.0,28.0,58.0,-61.0,0
-23.0,-261.0,-9.0,34.0,58.0,-58.0,0
-20.0,-259.0,-8.0,40.0,56.0,-52.0,0
-15.0,-260.0,-6.0,51.0,49.0,-46.0,0
-17.0,-258.0,-10.0,65.0,47.0,-38.0,0
-13.0,-257.0,-9.0,78.0,48.0,-31.0,0
-11.0,-255.0,-5.0,91.0,51.0,-22.0,0
-12.0,-248.0,-6.0,93.0,53.0,-13.0,0
-12.0,-249.0,-1.0,91.0,55.0,-9.0,0
-13.0,-253.0,1.0,87.0,57.0,-6.0,0
-10.0,-241.0,6.0,80.0,60.0,-3.0,0
-13.0,-247.0,-3.0,76.0,62.0,-5.0,0
-13.0,-249.0,0.0,75.0,64.0,-8.0,0
-14.0,-246.0,-7.0,74.0,67.0,-13.0,0
-14.0,-245.0,-7.0,70.0,72.0,-19.0,0
-18.0,-247.0,-1.0,65.0,79.0,-25.0,0
-15.0,-247.0,-5.0,58.0,86.0,-27.0,0
-15.0,-250.0,-2.0,56.0,94.0,-30.0,0
-11.0,-251.0,1.0,56.0,101.0,-31.0,0
-10.0,-248.0,-2.0,61.0,106.0,-33.0,0
-17.0,-247.0,-3.0,63.0,113.0,-33.0,0
-14.0,-252.0,-3.0,61.0,117.0,-34.0,0
-12.0,-249.0,-6.0,58.0,120.0,-33.0,0
-12.0,-254.0,-4.0,57.0,123.0,-32.0,0
-15.0,-254.0,-1.0,57.0,124.0,-33.0,0
-14.0,-251.0,-3.0,60.0,126.0,-34.0,0
-12.0,-251.0,-6.0,61.0,127.0,-34.0,0
-11.0,-250.0,-6.0,64.0,125.0,-32.0,0
-13.0,-248.0,-4.0,64.0,125.0,-35.0,0
-15.0,-250.0,-6.0,62.0,124.0,-35.0,0
-18.0,-250.0,-5.0,59.0,125.0,-37.0,0
-10.0,-255.0,-7.0,56.0,122.0,-37.0,0
-15.0,-252.0,-11.0,53.0,121.0,-37.0,0
-19.0,-246.0,-12.0,49.0,118.0,-37.0,0
-19.0,-254.0,-8.0,50.0,115.0,-36.0,0
-18.0,-252.0,-7.0,48.0,113.0,-34.0,0
-20.0,-256.0,-6.0,47.0,105.0,-33.0,0
-16.0,-256.0,-7.0,51.0,100.0,-33.0,0
-20.0,-255.0,-6.0,55.0,92.0,-30.0,0
-19.0,-255.0,-10.0,58.0,86.0,-29.0,0
-17.0,-252.0,-10.0,62.0,82.0,-28.0,0
-18.0,-249.0,-10.0,63.0,77.0,-27.0,0
-20.0,-252.0,-7.0,62.0,74.0,-28.0,0
-23.0,-252.0,-9.0,60.0,69.0,-29.0,0
-17.0,-249.0,-9.0,59.0,65.0,-31.0,0
-15.0,-249.0,-5.0,56.0,62.0,-31.0,0
-18.0,-251.0,-5.0,53.0,55.0,-33.0,0
-19.0,-249.0,-6.0,53.0,50.0,-34.0,0
-17.0,-252.0,-5.0,53.0,43.0,-35.0,0
-19.0,-251.0,-4.0,52.0,38.0,-37.0,0
-16.0,-252.0,-6.0,52.0,33.0,-36.0,0
-18.0,-251.0,-9.0,53.0,29.0,-38.0,0
-17.0,-249.0,-8.0,53.0,25.0,-37.0,0
-15.0,-252.0,-6.0,53.0,21.0,-34.0,0
-18.0,-251.0,-5.0,53.0,18.0,-32.0,0
-14.0,-247.0,-2.0,50.0,15.0,-32.0,0
-15.0,-245.0,-3.0,45.0,11.0,-28.0,0
-14.0,-250.0,-3.0,39.0,5.0,-26.0,0
-16.0,-251.0,-6.0,34.0,1.0,-24.0,0
-14.0,-250.0,-5.0,32.0,-4.0,-22.0,0
-16.0,-250.0,-6.0,29.0,-9.0,-21.0,0
-15.0,-250.0,-8.0,24.0,-13.0,-22.0,0
-14.0,-252.0,-2.0,18.0,-16.0,-22.0,0
-14.0,-252.0,-8.0,14.0,-18.0,-21.0,0
-16.0,-256.0,-8.0,8.0,-22.0,-18.0,0
-14.0,-254.0,-7.0,8.0,-23.0,-17.0,0
-16.0,-253.0,-9.0,10.0,-25.0,-17.0,0
-15.0,-255.0,-6.0,16.0,-27.0,-14.0,0
-13.0,-257.0,-10.0,23.0,-30.0,-11.0,0
-12.0,-256.0,-8.0,30.0,-31.0,-9.0,0
-13.0,-254.0,-4.0,35.0,-32.0,-6.0,0
-15.0,-252.0,-9.0,36.0,-33.0,-4.0,0
-16.0,-253.0,-8.0,34.0,-36.0,-1.0,0
-14.0,-252.0,-10.0,33.0,-37.0,3.0,0
-13.0,-256.0,-2.0,34.0,-40.0,4.0,0
-16.0,-253.0,-7.0,36.0,-41.0,5.0,0
-14.0,-255.0,-4.0,38.0,-41.0,6.0,0
-14.0,-254.0,-2.0,43.0,-39.0,7.0,0
-14.0,-250.0,-7.0,47.0,-37.0,7.0,0
-13.0,-254.0,-4.0,48.0,-35.0,5.0,0
-10.0,-252.0,-10.0,50.0,-34.0,3.0,0
-13.0,-254.0,-3.0,50.0,-35.0,1.0,0
-12.0,-253.0,-5.0,49.0,-37.0,1.0,0
-13.0,-252.0,-8.0,49.0,-39.0,1.0,0
-8.0,-252.0,-5.0,50.0,-38.0,2.0,0
-12.0,-253.0,-9.0,52.0,-38.0,3.0,0
-12.0,-255.0,0.0,53.0,-36.0,3.0,0
-10.0,-248.0,-6.0,56.0,-34.0,4.0,0
-11.0,-251.0,-5.0,55.0,-32.0,5.0,0
-11.0,-249.0,-6.0,53.0,-31.0,6.0,0
-12.0,-250.0,-1.0,51.0,-31.0,7.0,0
-15.0,-249.0,-4.0,49.0,-32.0,7.0,0
-13.0,-250.0,-6.0,50.0,-32.0,6.0,0
-12.0,-253.0,-7.0,51.0,-32.0,6.0,0
-11.0,-250.0,-4.0,53.0,-31.0,6.0,0
-11.0,-247.0,-5.0,55.0,-32.0,6.0,0
-10.0,-253.0,-7.0,57.0,-29.0,5.0,0
-10.0,-251.0,-10.0,57.0,-29.0,5.0,0
-13.0,-250.0,-4.0,54.0,-31.0,6.0,0
-14.0,-248.0,-4.0,51.0,-32.0,5.0,0
-15.0,-251.0,-6.0,49.0,-35.0,4.0,0
-13.0,-252.0,-2.0,45.0,-37.0,4.0,0
-14.0,-251.0,-2.0,44.0,-41.0,4.0,0
-13.0,-252.0,-4.0,43.0,-42.0,2.0,0
-13.0,-252.0,-9.0,43.0,-43.0,1.0,0
-13.0,-255.0,-4.0,44.0,-42.0,1.0,0
-10.0,-251.0,-5.0,46.0,-39.0,-2.0,0
-10.0,-250.0,-5.0,49.0,-39.0,-3.0,0
-9.0,-251.0,-9.0,51.0,-37.0,-3.0,0
-5.0,-250.0,-3.0,51.0,-38.0,-2.0,0
-8.0,-249.0,-6.0,49.0,-38.0,-1.0,0
-7.0,-248.0,-9.0,45.0,-40.0,0.0,0
-8.0,-247.0,-7.0,42.0,-37.0,1.0,0
-9.0,-252.0,-7.0,40.0,-35.0,4.0,0
-11.0,-253.0,-7.0,37.0,-31.0,2.0,0
-9.0,-252.0,-5.0,36.0,-27.0,1.0,0
-9.0,-252.0,-5.0,35.0,-26.0,1.0,0
-11.0,-252.0,-4.0,34.0,-25.0,-1.0,0
-14.0,-256.0,-8.0,37.0,-25.0,-2.0,0
-13.0,-250.0,-6.0,40.0,-26.0,-5.0,0
-7.0,-254.0,-2.0,42.0,-26.0,-4.0,0
-8.0,-251.0,-5.0,45.0,-26.0,-4.0,0
-11.0,-253.0,-5.0,49.0,-26.0,-3.0,0
-11.0,-251.0,-4.0,49.0,-23.0,-3.0,0
-9.0,-252.0,-7.0,47.0,-18.0,-2.0,0
-11.0,-254.0,-2.0,44.0,-15.0,0.0,0
-11.0,-252.0,-4.0,44.0,-11.0,-2.0,0
-15.0,-252.0,-6.0,43.0,-9.0,-4.0,0
-14.0,-253.0,-5.0,42.0,-8.0,-4.0,0
-14.0,-251.0,-8.0,43.0,-9.0,-7.0,0
-14.0,-249.0,-5.0,45.0,-8.0,-7.0,0
-12.0,-249.0,-9.0,47.0,-8.0,-7.0,0
-11.0,-247.0,-6.0,46.0,-7.0,-7.0,0
-13.0,-254.0,-8.0,46.0,-4.0,-6.0,0
-11.0,-249.0,-7.0,43.0,-2.0,-5.0,0
-10.0,-250.0,-8.0,41.0,1.0,-5.0,0
-11.0,-255.0,-10.0,39.0,3.0,-5.0,0
-15.0,-250.0,-8.0,38.0,4.0,-6.0,0
-14.0,-253.0,-5.0,39.0,5.0,-6.0,0
-14.0,-251.0,-3.0,36.0,5.0,-8.0,0
-14.0,-252.0,-7.0,37.0,6.0,-8.0,0
-15.0,-250.0,-5.0,36.0,7.0,-7.0,0
-12.0,-253.0,-4.0,36.0,8.0,-6.0,0
-12.0,-252.0,-2.0,34.0,9.0,-6.0,0
-13.0,-253.0,-2.0,31.0,9.0,-7.0,0
-13.0,-252.0,-6.0,27.0,10.0,-7.0,0
-14.0,-251.0,-7.0,27.0,11.0,-6.0,0
-13.0,-252.0,-8.0,30.0,12.0,-6.0,0
-11.0,-252.0,-14.0,35.0,13.0,-5.0,0
-15.0,-250.0,-13.0,38.0,14.0,-4.0,0
-17.0,-252.0,-10.0,40.0,17.0,-4.0,0
-11.0,-253.0,-10.0,43.0,21.0,-4.0,0
-13.0,-252.0,-4.0,51.0,23.0,-4.0,0
-9.0,-252.0,-6.0,56.0,24.0,-5.0,0
-12.0,-251.0,-6.0,60.0,26.0,-5.0,0
-15.0,-251.0,-7.0,60.0,26.0,-6.0,0
-12.0,-251.0,-8.0,59.0,27.0,-5.0,0
-14.0,-252.0,-11.0,58.0,28.0,-3.0,0
-14.0,-252.0,-8.0,58.0,27.0,-1.0,0
-17.0,-251.0,-6.0,58.0,26.0,0.0,0
-14.0,-251.0,-6.0,58.0,27.0,0.0,0
-13.0,-251.0,-9.0,56.0,28.0,1.0,0
-16.0,-245.0,-8.0,54.0,27.0,-2.0,0
-13.0,-249.0,-8.0,51.0,31.0,-3.0,0
-13.0,-251.0,-8.0,48.0,34.0,-2.0,0
-14.0,-251.0,-12.0,48.0,35.0,-4.0,0
-15.0,-253.0,-8.0,46.0,37.0,-5.0,0
-16.0,-249.0,-10.0,44.0,35.0,-6.0,0
-14.0,-252.0,-11.0,45.0,34.0,-7.0,0
-16.0,-253.0,-7.0,44.0,34.0,-6.0,0
-18.0,-252.0,-11.0,44.0,33.0,-6.0,0
-13.0,-252.0,-7.0,44.0,34.0,-7.0,0
-14.0,-252.0,-10.0,47.0,34.0,-6.0,0
-13.0,-250.0,-10.0,48.0,35.0,-8.0,0
-13.0,-252.0,-13.0,50.0,36.0,-9.0,0
-15.0,-252.0,-8.0,52.0,37.0,-7.0,0
-12.0,-252.0,-8.0,55.0,37.0,-9.0,0
-15.0,-250.0,-11.0,56.0,38.0,-9.0,0
-11.0,-248.0,-8.0,57.0,34.0,-9.0,0
-15.0,-251.0,-7.0,56.0,34.0,-9.0,0
-12.0,-252.0,-7.0,58.0,32.0,-8.0,0
-9.0,-250.0,-8.0,57.0,32.0,-9.0,0
-14.0,-251.0,-6.0,57.0,33.0,-10.0,0
-16.0,-251.0,-11.0,58.0,35.0,-9.0,0
-13.0,-252.0,-14.0,58.0,35.0,-9.0,0
-12.0,-250.0,-9.0,58.0,34.0,-11.0,0
-14.0,-253.0,-9.0,57.0,32.0,-9.0,0
-16.0,-250.0,-10.0,57.0,32.0,-9.0,0
-14.0,-249.0,-10.0,56.0,31.0,-10.0,0
-15.0,-249.0,-11.0,57.0,31.0,-9.0,0
-18.0,-247.0,-12.0,58.0,28.0,-11.0,0
-19.0,-251.0,-10.0,57.0,25.0,-9.0,0
-16.0,-253.0,-9.0,55.0,22.0,-9.0,0
-17.0,-252.0,-8.0,52.0,20.0,-9.0,0
-16.0,-251.0,-10.0,50.0,19.0,-9.0,0
-18.0,-250.0,-8.0,49.0,16.0,-11.0,0
-16.0,-254.0,-8.0,51.0,16.0,-12.0,0
-11.0,-256.0,-7.0,53.0,17.0,-11.0,0
-16.0,-253.0,-10.0,57.0,17.0,-14.0,0
-17.0,-252.0,-10.0,61.0,17.0,-13.0,0
-17.0,-252.0,-16.0,64.0,16.0,-12.0,0
-17.0,-251.0,-11.0,66.0,13.0,-15.0,0
-14.0,-251.0,-10.0,69.0,13.0,-14.0,0
-19.0,-251.0,-10.0,69.0,12.0,-13.0,0
-14.0,-251.0,-10.0,72.0,13.0,-14.0,0
-18.0,-249.0,-11.0,75.0,11.0,-17.0,0
-15.0,-251.0,-9.0,76.0,11.0,-15.0,0
-14.0,-255.0,-11.0,75.0,12.0,-16.0,0
-15.0,-251.0,-6.0,76.0,14.0,-15.0,0
-17.0,-250.0,-8.0,74.0,14.0,-17.0,0
-16.0,-251.0,-8.0,72.0,12.0,-19.0,0
-20.0,-249.0,-12.0,72.0,9.0,-17.0,0
-17.0,-253.0,-9.0,70.0,5.0,-16.0,0
-18.0,-249.0,-11.0,70.0,3.0,-17.0,0
-16.0,-251.0,-11.0,71.0,1.0,-19.0,0
-17.0,-251.0,-10.0,72.0,0.0,-19.0,0
-16.0,-250.0,-12.0,73.0,-3.0,-18.0,0
-15.0,-252.0,-12.0,73.0,-5.0,-19.0,0
-16.0,-251.0,-9.0,73.0,-7.0,-18.0,0
-17.0,-251.0,-9.0,73.0,-8.0,-18.0,0
-18.0,-253.0,-8.0,74.0,-10.0,-16.0,0
-16.0,-248.0,-8.0,75.0,-9.0,-19.0,0
-18.0,-253.0,-10.0,76.0,-8.0,-19.0,0
-20.0,-252.0,-10.0,77.0,-10.0,-19.0,0
-18.0,-253.0,-10.0,78.0,-10.0,-21.0,0
-17.0,-251.0,-13.0,80.0,-11.0,-23.0,0
-18.0,-256.0,-11.0,81.0,-11.0,-22.0,0
-17.0,-251.0,-10.0,80.0,-10.0,-22.0,0
-14.0,-252.0,-9.0,81.0,-12.0,-21.0,0
-17.0,-250.0,-12.0,80.0,-12.0,-19.0,0
-16.0,-252.0,-9.0,80.0,-14.0,-21.0,0
-17.0,-251.0,-9.0,80.0,-16.0,-18.0,0
-15.0,-251.0,-10.0,81.0,-20.0,-18.0,0
-18.0,-249.0,-12.0,82.0,-21.0,-16.0,0
-14.0,-252.0,-7.0,82.0,-21.0,-15.0,0
-16.0,-252.0,-9.0,83.0,-18.0,-15.0,0
-13.0,-253.0,-9.0,83.0,-14.0,-14.0,0
-15.0,-248.0,-11.0,80.0,-12.0,-13.0,0
-11.0,-250.0,-11.0,81.0,-9.0,-11.0,0
-15.0,-249.0,-9.0,79.0,-9.0,-9.0,0
-15.0,-251.0,-11.0,77.0,-9.0,-9.0,0
-12.0,-248.0,-9.0,75.0,-11.0,-6.0,0
-16.0,-251.0,-8.0,74.0,-10.0,-7.0,0
-15.0,-250.0,-8.0,72.0,-11.0,-5.0,0
-16.0,-251.0,-7.0,71.0,-12.0,-7.0,0
-18.0,-253.0,-8.0,68.0,-10.0,-6.0,0
-12.0,-253.0,-8.0,66.0,-8.0,-7.0,0
-17.0,-250.0,-4.0,67.0,-7.0,-6.0,0
-16.0,-254.0,-10.0,66.0,-6.0,-6.0,0
-16.0,-251.0,-2.0,68.0,-6.0,-5.0,0
-16.0,-252.0,-4.0,69.0,-4.0,-6.0,0
-10.0,-252.0,-12.0,72.0,-5.0,-5.0,0
-14.0,-250.0,-8.0,74.0,-2.0,-5.0,0
-12.0,-254.0,-6.0,77.0,-4.0,-5.0,0
-13.0,-251.0,-8.0,76.0,-4.0,-5.0,0
-12.0,-249.0,-12.0,75.0,-4.0,-7.0,0
-12.0,-251.0,-8.0,71.0,-3.0,-5.0,0
-14.0,-253.0,-5.0,70.0,-1.0,-6.0,0
-14.0,-251.0,-9.0,69.0,0.0,-5.0,0
-13.0,-250.0,-3.0,68.0,2.0,-5.0,0
-13.0,-249.0,-4.0,66.0,2.0,-6.0,0
-16.0,-251.0,-10.0,64.0,2.0,-5.0,0
-13.0,-248.0,-7.0,64.0,2.0,-4.0,0
-14.0,-250.0,-8.0,63.0,3.0,-5.0,0
-12.0,-252.0,-6.0,63.0,3.0,-6.0,0
-14.0,-249.0,-5.0,61.0,5.0,-5.0,0
-12.0,-247.0,-11.0,59.0,6.0,-5.0,0
-13.0,-255.0,-5.0,57.0,6.0,-7.0,0
-16.0,-249.0,-9.0,55.0,5.0,-6.0,0
-13.0,-253.0,-4.0,53.0,4.0,-7.0,0
-12.0,-252.0,-6.0,54.0,3.0,-6.0,0
-13.0,-254.0,-6.0,54.0,4.0,-8.0,0
-13.0,-255.0,-3.0,55.0,6.0,-8.0,0
-16.0,-250.0,-6.0,54.0,7.0,-6.0,0
-14.0,-252.0,-7.0,52.0,7.0,-7.0,0
-12.0,-249.0,-6.0,49.0,9.0,-7.0,0
-10.0,-250.0,-2.0,48.0,9.0,-7.0,0
-15.0,-254.0,-6.0,45.0,10.0,-7.0,0
-14.0,-248.0,-5.0,46.0,11.0,-6.0,0
-17.0,-249.0,-23.0,48.0,10.0,-8.0,0
-11.0,-254.0,-11.0,53.0,7.0,-9.0,0
-13.0,-248.0,-13.0,55.0,5.0,-11.0,0
-14.0,-252.0,-11.0,53.0,8.0,-10.0,0
-17.0,-249.0,-12.0,54.0,10.0,-12.0,0
-14.0,-255.0,-4.0,56.0,14.0,-12.0,0
-16.0,-251.0,-4.0,62.0,16.0,-14.0,0
-15.0,-250.0,-5.0,63.0,17.0,-12.0,0
-13.0,-253.0,-9.0,65.0,15.0,-13.0,0
-15.0,-254.0,-7.0,64.0,12.0,-13.0,0
-15.0,-254.0,-5.0,63.0,12.0,-13.0,0
-13.0,-248.0,-7.0,61.0,10.0,-12.0,0
-16.0,-252.0,-4.0,60.0,9.0,-12.0,0
-11.0,-254.0,-5.0,58.0,9.0,-12.0,0
-13.0,-255.0,-8.0,59.0,11.0,-13.0,0
-10.0,-253.0,-4.0,59.0,14.0,-12.0,0
-15.0,-251.0,-3.0,58.0,17.0,-11.0,0
-13.0,-254.0,-5.0,57.0,19.0,-13.0,0
-9.0,-250.0,-7.0,56.0,21.0,-10.0,0
-12.0,-253.0,-4.0,55.0,19.0,-9.0,0
-10.0,-253.0,0.0,52.0,20.0,-10.0,0
-11.0,-252.0,-2.0,49.0,23.0,-11.0,0
-11.0,-250.0,-6.0,51.0,23.0,-11.0,0
-13.0,-254.0,-4.0,53.0,24.0,-12.0,0
-13.0,-252.0,-4.0,56.0,27.0,-12.0,0
-12.0,-250.0,-3.0,58.0,28.0,-12.0,0
-11.0,-251.0,-7.0,59.0,30.0,-12.0,0
-11.0,-252.0,-7.0,58.0,31.0,-11.0,0
-13.0,-251.0,-10.0,55.0,32.0,-11.0,0
-13.0,-252.0,-8.0,54.0,31.0,-11.0,0
-13.0,-248.0,-7.0,53.0,30.0,-11.0,0
-16.0,-248.0,-4.0,53.0,31.0,-11.0,0
-15.0,-252.0,-5.0,52.0,31.0,-10.0,0
-15.0,-252.0,-5.0,50.0,32.0,-11.0,0
-14.0,-251.0,-7.0,49.0,33.0,-10.0,0
-14.0,-247.0,-4.0,48.0,34.0,-9.0,0
-14.0,-250.0,-6.0,47.0,34.0,-10.0,0
-16.0,-252.0,-5.0,49.0,34.0,-9.0,0
-14.0,-249.0,-5.0,50.0,34.0,-10.0,0
-17.0,-251.0,-7.0,50.0,35.0,-12.0,0
-13.0,-252.0,-3.0,51.0,34.0,-12.0,0
-16.0,-250.0,-7.0,50.0,35.0,-13.0,0
-12.0,-251.0,-7.0,50.0,34.0,-13.0,0
-12.0,-248.0,-4.0,49.0,35.0,-13.0,0
-14.0,-254.0,-5.0,50.0,37.0,-14.0,0
-11.0,-251.0,-3.0,49.0,36.0,-13.0,0
-17.0,-249.0,-5.0,49.0,36.0,-14.0,0
-15.0,-251.0,-1.0,49.0,34.0,-12.0,0
-14.0,-255.0,-4.0,45.0,33.0,-13.0,0
-14.0,-253.0,-4.0,45.0,33.0,-12.0,0
-14.0,-250.0,-5.0,46.0,33.0,-13.0,0
-15.0,-254.0,-2.0,49.0,33.0,-11.0,0
-11.0,-251.0,0.0,53.0,35.0,-12.0,0
-14.0,-260.0,0.0,54.0,36.0,-13.0,0
-14.0,-252.0,-5.0,55.0,39.0,-10.0,0
-10.0,-251.0,-4.0,55.0,41.0,-10.0,0
-11.0,-252.0,-7.0,54.0,39.0,-11.0,0
-14.0,-254.0,-7.0,54.0,38.0,-12.0,0
-14.0,-250.0,-4.0,54.0,35.0,-12.0,0
-16.0,-253.0,-2.0,54.0,33.0,-15.0,0
-10.0,-255.0,-5.0,54.0,31.0,-15.0,0
-17.0,-247.0,-8.0,54.0,30.0,-16.0,0
-13.0,-253.0,-5.0,57.0,30.0,-15.0,0
-16.0,-250.0,-2.0,59.0,31.0,-14.0,0
-11.0,-252.0,-7.0,58.0,32.0,-12.0,0
-13.0,-255.0,-9.0,59.0,35.0,-14.0,0
-10.0,-252.0,-6.0,59.0,36.0,-13.0,0
-13.0,-254.0,-1.0,58.0,35.0,-14.0,0
-12.0,-249.0,-2.0,57.0,33.0,-12.0,0
-11.0,-252.0,-4.0,56.0,33.0,-12.0,0
-13.0,-251.0,-3.0,53.0,29.0,-11.0,0
-15.0,-251.0,-8.0,51.0,26.0,-13.0,0
-16.0,-256.0,-1.0,47.0,22.0,-13.0,0
-16.0,-254.0,-3.0,47.0,19.0,-16.0,0
-15.0,-253.0,-4.0,48.0,19.0,-16.0,0
-16.0,-257.0,-5.0,51.0,19.0,-18.0,0
-13.0,-255.0,-2.0,54.0,20.0,-17.0,0
-17.0,-249.0,-9.0,56.0,21.0,-17.0,0
-16.0,-252.0,-7.0,56.0,21.0,-17.0,0
-14.0,-250.0,-7.0,57.0,22.0,-17.0,0
-13.0,-252.0,-7.0,58.0,21.0,-17.0,0
-16.0,-251.0,-2.0,55.0,20.0,-17.0,0
-16.0,-248.0,-3.0,56.0,18.0,-17.0,0
-17.0,-252.0,-6.0,54.0,16.0,-15.0,0
-12.0,-252.0,-5.0,53.0,17.0,-14.0,0
-17.0,-250.0,-3.0,51.0,15.0,-14.0,0
-10.0,-252.0,-4.0,49.0,16.0,-14.0,0
-12.0,-253.0,0.0,50.0,16.0,-14.0,0
-14.0,-256.0,-5.0,51.0,16.0,-14.0,0
-12.0,-253.0,-3.0,50.0,15.0,-15.0,0
-15.0,-254.0,-6.0,50.0,12.0,-14.0,0
-13.0,-252.0,-5.0,53.0,11.0,-16.0,0
-14.0,-252.0,-7.0,55.0,12.0,-15.0,0
-13.0,-251.0,0.0,56.0,14.0,-14.0,0
-14.0,-254.0,-3.0,59.0,15.0,-16.0,0
-11.0,-251.0,-9.0,59.0,14.0,-13.0,0
-5.0,-252.0,-5.0,57.0,17.0,-13.0,0
-16.0,-253.0,-4.0,55.0,15.0,-13.0,0
-17.0,-250.0,-3.0,52.0,15.0,-13.0,0
-17.0,-253.0,-5.0,51.0,15.0,-14.0,0
-15.0,-252.0,-5.0,51.0,13.0,-14.0,0
-13.0,-253.0,-4.0,50.0,12.0,-14.0,0
-16.0,-252.0,-4.0,52.0,12.0,-14.0,0
-14.0,-253.0,-4.0,53.0,12.0,-15.0,0
-14.0,-251.0,-5.0,55.0,13.0,-14.0,0
-15.0,-249.0,-7.0,55.0,13.0,-14.0,0
-13.0,-253.0,-18.0,53.0,12.0,-14.0,0
-14.0,-251.0,-5.0,50.0,13.0,-13.0,0
-13.0,-253.0,-5.0,47.0,12.0,-14.0,0
-17.0,-252.0,-7.0,47.0,11.0,-13.0,0
-16.0,-252.0,-4.0,47.0,10.0,-12.0,0
-17.0,-250.0,-3.0,50.0,8.0,-13.0,0
-13.0,-253.0,-7.0,49.0,9.0,-13.0,0
-13.0,-254.0,-4.0,52.0,8.0,-10.0,0
-13.0,-251.0,-6.0,49.0,9.0,-8.0,0
-15.0,-251.0,-7.0,50.0,7.0,-9.0,0
-15.0,-248.0,-4.0,50.0,4.0,-10.0,0
-17.0,-251.0,-6.0,47.0,4.0,-9.0,0
-17.0,-248.0,-5.0,46.0,1.0,-9.0,0
-15.0,-250.0,-7.0,44.0,0.0,-10.0,0
-14.0,-253.0,-5.0,43.0,-1.0,-12.0,0
-15.0,-252.0,-3.0,43.0,-1.0,-11.0,0
-16.0,-253.0,-5.0,41.0,-2.0,-12.0,0
-15.0,-251.0,-6.0,42.0,-3.0,-12.0,0
-17.0,-249.0,-8.0,42.0,-5.0,-11.0,0
-16.0,-250.0,-5.0,43.0,-6.0,-10.0,0
-13.0,-250.0,-5.0,44.0,-6.0,-8.0,0
-13.0,-251.0,-1.0,41.0,-7.0,-7.0,0
-15.0,-252.0,-6.0,39.0,-8.0,-5.0,0
-15.0,-252.0,0.0,37.0,-8.0,-7.0,0
-15.0,-251.0,2.0,34.0,-7.0,-8.0,0
-11.0,-256.0,-4.0,34.0,-8.0,-8.0,0
-14.0,-250.0,-6.0,36.0,-7.0,-10.0,0
-14.0,-253.0,-9.0,42.0,-9.0,-9.0,0
-15.0,-249.0,-12.0,46.0,-10.0,-10.0,0
-11.0,-254.0,-12.0,48.0,-8.0,-11.0,0
-14.0,-251.0,-9.0,49.0,-4.0,-9.0,0
-12.0,-250.0,-6.0,51.0,-1.0,-11.0,0
-12.0,-253.0,-4.0,52.0,2.0,-9.0,0
-11.0,-253.0,-4.0,52.0,6.0,-8.0,0
-11.0,-253.0,-2.0,51.0,7.0,-8.0,0
-15.0,-252.0,-1.0,49.0,7.0,-8.0,0
-14.0,-254.0,-5.0,46.0,3.0,-9.0,0
-14.0,-255.0,-5.0,45.0,0.0,-10.0,0
-16.0,-251.0,-3.0,43.0,-2.0,-9.0,0
-12.0,-254.0,-5.0,44.0,0.0,-12.0,0
-8.0,-253.0,-5.0,44.0,3.0,-12.0,0
-12.0,-252.0,-3.0,44.0,5.0,-12.0,0
-12.0,-252.0,-4.0,45.0,10.0,-10.0,0
-11.0,-250.0,0.0,46.0,14.0,-10.0,0
-8.0,-250.0,-2.0,47.0,14.0,-11.0,0
-12.0,-252.0,-7.0,49.0,19.0,-10.0,0
-12.0,-252.0,-3.0,51.0,25.0,-12.0,0
-11.0,-254.0,-8.0,51.0,21.0,-12.0,0
-11.0,-250.0,-8.0,47.0,18.0,-11.0,0
-9.0,-254.0,-7.0,44.0,18.0,-12.0,0
-7.0,-252.0,-3.0,42.0,21.0,-12.0,0
-12.0,-255.0,-6.0,44.0,27.0,-13.0,0
-14.0,-252.0,-8.0,47.0,28.0,-12.0,0
-15.0,-256.0,-5.0,49.0,30.0,-12.0,0
-13.0,-251.0,-6.0,52.0,31.0,-11.0,0
-12.0,-253.0,-4.0,53.0,30.0,-12.0,0
-11.0,-252.0,-5.0,56.0,30.0,-11.0,0
-12.0,-252.0,-5.0,56.0,33.0,-12.0,0
-11.0,-251.0,-5.0,59.0,34.0,-10.0,0
-8.0,-251.0,-10.0,59.0,36.0,-10.0,0
-14.0,-251.0,-6.0,57.0,35.0,-9.0,0
-16.0,-250.0,-6.0,57.0,37.0,-9.0,0
-10.0,-252.0,-8.0,57.0,37.0,-7.0,0
-13.0,-254.0,-6.0,58.0,38.0,-10.0,0
-12.0,-252.0,-4.0,58.0,38.0,-9.0,0
-15.0,-249.0,-9.0,60.0,36.0,-10.0,0
-15.0,-251.0,-9.0,62.0,34.0,-10.0,0
-15.0,-255.0,-9.0,64.0,34.0,-13.0,0
-16.0,-252.0,-10.0,65.0,31.0,-12.0,0
-14.0,-252.0,-8.0,68.0,31.0,-12.0,0
-15.0,-253.0,-7.0,70.0,30.0,-12.0,0
-11.0,-255.0,-10.0,72.0,30.0,-10.0,0
-12.0,-251.0,-5.0,75.0,29.0,-11.0,0
-13.0,-251.0,-6.0,75.0,27.0,-12.0,0
-15.0,-249.0,-8.0,73.0,26.0,-13.0,0
-14.0,-255.0,-2.0,71.0,25.0,-12.0,0
-13.0,-251.0,-8.0,72.0,26.0,-11.0,0
-12.0,-253.0,-10.0,72.0,26.0,-12.0,0
-14.0,-253.0,-9.0,72.0,27.0,-11.0,0
-17.0,-252.0,-8.0,73.0,27.0,-11.0,0
-14.0,-253.0,-10.0,73.0,25.0,-13.0,0
-15.0,-252.0,-5.0,74.0,24.0,-10.0,0
-13.0,-251.0,-6.0,74.0,23.0,-9.0,0
-16.0,-251.0,-8.0,75.0,22.0,-11.0,0
-11.0,-250.0,-10.0,75.0,22.0,-12.0,0
-11.0,-251.0,-3.0,75.0,21.0,-11.0,0
-15.0,-252.0,2.0,73.0,18.0,-9.0,0
-15.0,-247.0,-11.0,71.0,16.0,-9.0,0
-16.0,-250.0,-9.0,70.0,15.0,-10.0,0
-14.0,-252.0,-5.0,70.0,14.0,-11.0,0
-17.0,-249.0,-7.0,71.0,13.0,-10.0,0
-15.0,-253.0,-4.0,71.0,14.0,-11.0,0
-15.0,-251.0,-9.0,71.0,15.0,-10.0,0
-11.0,-253.0,-9.0,72.0,17.0,-11.0,0
-14.0,-248.0,-8.0,71.0,18.0,-10.0,0
-14.0,-250.0,-6.0,70.0,19.0,-11.0,0
-15.0,-247.0,-13.0,70.0,19.0,-12.0,0
-16.0,-250.0,-10.0,69.0,17.0,-12.0,0
-11.0,-252.0,-7.0,68.0,16.0,-13.0,0
-16.0,-252.0,-5.0,68.0,14.0,-12.0,0
-15.0,-249.0,-7.0,67.0,13.0,-13.0,0
-12.0,-250.0,-9.0,64.0,13.0,-11.0,0
-13.0,-250.0,-4.0,64.0,14.0,-12.0,0
-13.0,-252.0,-4.0,64.0,15.0,-12.0,0
-17.0,-253.0,-10.0,63.0,17.0,-12.0,0
-12.0,-253.0,-10.0,63.0,18.0,-13.0,0
-15.0,-252.0,-9.0,65.0,17.0,-12.0,0
-15.0,-253.0,-5.0,66.0,16.0,-14.0,0
-15.0,-251.0,-6.0,67.0,16.0,-14.0,0
-11.0,-252.0,-7.0,68.0,15.0,-13.0,0
-13.0,-251.0,-10.0,69.0,15.0,-12.0,0
-12.0,-251.0,-4.0,68.0,17.0,-11.0,0
-16.0,-254.0,-5.0,68.0,18.0,-11.0,0
-11.0,-250.0,-10.0,65.0,18.0,-12.0,0
-15.0,-253.0,-8.0,65.0,16.0,-10.0,0
-15.0,-250.0,-4.0,65.0,16.0,-11.0,0
-16.0,-254.0,-6.0,64.0,15.0,-11.0,0
-16.0,-250.0,-2.0,66.0,14.0,-13.0,0
-16.0,-252.0,-4.0,68.0,15.0,-13.0,0
-16.0,-253.0,-5.0,69.0,16.0,-15.0,0
-18.0,-250.0,-6.0,69.0,15.0,-14.0,0
-13.0,-250.0,-4.0,67.0,12.0,-14.0,0
-13.0,-252.0,-5.0,65.0,10.0,-15.0,0
-15.0,-250.0,-5.0,62.0,5.0,-16.0,0
-16.0,-252.0,-6.0,60.0,5.0,-17.0,0
-18.0,-249.0,-4.0,58.0,3.0,-18.0,0
-18.0,-251.0,-3.0,59.0,1.0,-17.0,0
-17.0,-250.0,-2.0,58.0,4.0,-20.0,0
-15.0,-250.0,-6.0,59.0,3.0,-20.0,0
-18.0,-247.0,-2.0,59.0,2.0,-22.0,0
-18.0,-253.0,2.0,59.0,2.0,-22.0,0
-15.0,-251.0,3.0,60.0,3.0,-22.0,0
-14.0,-251.0,-1.0,61.0,3.0,-24.0,0
-17.0,-248.0,-2.0,59.0,3.0,-25.0,0
-16.0,-250.0,0.0,59.0,2.0,-27.0,0
-15.0,-250.0,1.0,60.0,1.0,-27.0,0
-16.0,-250.0,-2.0,59.0,0.0,-28.0,0
-15.0,-250.0,1.0,57.0,-2.0,-29.0,0
-17.0,-249.0,0.0,53.0,-2.0,-27.0,0
-14.0,-242.0,4.0,49.0,-4.0,-28.0,0
-14.0,-249.0,-4.0,45.0,-4.0,-26.0,0
-11.0,-250.0,-2.0,42.0,-3.0,-27.0,0
-14.0,-249.0,-1.0,41.0,-5.0,-27.0,0
-12.0,-251.0,-2.0,38.0,-4.0,-26.0,0
-11.0,-251.0,-3.0,35.0,-4.0,-26.0,0
-16.0,-253.0,-5.0,32.0,-5.0,-25.0,0
-14.0,-251.0,-2.0,30.0,-7.0,-24.0,0
-13.0,-256.0,-2.0,27.0,-8.0,-24.0,0
-15.0,-256.0,0.0,26.0,-9.0,-21.0,0
-9.0,-257.0,-4.0,24.0,-9.0,-22.0,0
-14.0,-256.0,-6.0,25.0,-10.0,-19.0,0
-10.0,-256.0,-2.0,26.0,-10.0,-15.0,0
-17.0,-255.0,-4.0,30.0,-9.0,-12.0,0
-13.0,-253.0,-2.0,32.0,-9.0,-10.0,0
-9.0,-256.0,-2.0,36.0,-9.0,-9.0,0
-11.0,-251.0,4.0,39.0,-7.0,-9.0,0
-10.0,-255.0,2.0,42.0,-5.0,-5.0,0
-10.0,-256.0,-1.0,47.0,-1.0,-6.0,0
-12.0,-258.0,-3.0,53.0,3.0,-6.0,0
-11.0,-254.0,-3.0,62.0,3.0,-4.0,0
-12.0,-250.0,-5.0,68.0,8.0,-5.0,0
-13.0,-250.0,-3.0,71.0,12.0,-6.0,0
-10.0,-250.0,-1.0,76.0,18.0,-7.0,0
-6.0,-257.0,1.0,81.0,23.0,-8.0,0
-10.0,-254.0,2.0,88.0,26.0,-9.0,0
-11.0,-251.0,3.0,92.0,28.0,-9.0,0
-12.0,-248.0,1.0,93.0,32.0,-12.0,0
-13.0,-252.0,3.0,90.0,33.0,-11.0,0
-14.0,-249.0,0.0,86.0,34.0,-10.0,0
-15.0,-246.0,5.0,84.0,33.0,-11.0,0
-16.0,-249.0,-2.0,79.0,32.0,-12.0,0
-13.0,-248.0,2.0,76.0,34.0,-12.0,0
-13.0,-250.0,0.0,74.0,33.0,-13.0,0
-9.0,-251.0,-2.0,71.0,33.0,-14.0,0
-15.0,-246.0,1.0,69.0,33.0,-13.0,0
-12.0,-249.0,0.0,63.0,34.0,-11.0,0
-9.0,-250.0,2.0,58.0,33.0,-14.0,0
-10.0,-252.0,1.0,53.0,32.0,-11.0,0
-12.0,-249.0,2.0,48.0,32.0,-12.0,0
-14.0,-249.0,0.0,42.0,31.0,-13.0,0
-15.0,-251.0,1.0,40.0,32.0,-13.0,0
-13.0,-250.0,-3.0,39.0,30.0,-11.0,0
-10.0,-251.0,0.0,37.0,28.0,-11.0,0
-14.0,-251.0,-1.0,39.0,28.0,-12.0,0
-10.0,-252.0,-2.0,37.0,28.0,-12.0,0
-15.0,-251.0,1.0,37.0,28.0,-13.0,0
-15.0,-255.0,-2.0,38.0,26.0,-15.0,0
-16.0,-255.0,-3.0,39.0,24.0,-15.0,0
-13.0,-251.0,-5.0,40.0,21.0,-13.0,0
-11.0,-249.0,-5.0,39.0,18.0,-14.0,0
-11.0,-251.0,-3.0,38.0,16.0,-14.0,0
-13.0,-251.0,-2.0,37.0,16.0,-14.0,0
-5.0,-254.0,0.0,37.0,15.0,-13.0,0
-14.0,-253.0,-2.0,42.0,17.0,-12.0,0
-11.0,-253.0,-1.0,46.0,17.0,-14.0,0
-10.0,-253.0,-4.0,49.0,16.0,-14.0,0
-9.0,-255.0,-4.0,53.0,12.0,-13.0,0
-10.0,-252.0,-5.0,55.0,8.0,-12.0,0
-10.0,-251.0,-8.0,56.0,1.0,-11.0,0
-7.0,-251.0,-8.0,58.0,-4.0,-9.0,0
-10.0,-252.0,-5.0,58.0,-8.0,-8.0,0
-12.0,-254.0,-4.0,60.0,-10.0,-8.0,0
-10.0,-253.0,-7.0,63.0,-10.0,-7.0,0
-11.0,-255.0,-2.0,66.0,-7.0,-7.0,0
-13.0,-252.0,-2.0,70.0,-2.0,-8.0,0
-11.0,-252.0,-1.0,73.0,1.0,-9.0,0
-8.0,-252.0,-3.0,75.0,6.0,-10.0,0
-13.0,-253.0,-8.0,75.0,8.0,-12.0,0
-13.0,-249.0,-4.0,75.0,10.0,-12.0,0
-11.0,-253.0,-3.0,73.0,12.0,-12.0,0
-13.0,-250.0,-5.0,74.0,12.0,-15.0,0
-9.0,-254.0,-5.0,74.0,12.0,-15.0,0
-12.0,-252.0,-2.0,73.0,14.0,-14.0,0
-7.0,-248.0,-8.0,71.0,13.0,-17.0,0
-10.0,-249.0,-2.0,70.0,14.0,-18.0,0
-14.0,-249.0,-3.0,66.0,15.0,-19.0,0
-8.0,-253.0,-7.0,62.0,14.0,-19.0,0
-11.0,-251.0,-3.0,58.0,13.0,-19.0,0
-11.0,-251.0,-4.0,55.0,12.0,-21.0,0
-14.0,-253.0,-4.0,53.0,13.0,-19.0,0
-11.0,-252.0,-6.0,52.0,14.0,-20.0,0
-10.0,-255.0,-3.0,52.0,15.0,-19.0,0
-15.0,-248.0,-3.0,52.0,16.0,-16.0,0
-10.0,-253.0,-5.0,52.0,14.0,-19.0,0
-10.0,-256.0,-1.0,53.0,13.0,-18.0,0
-13.0,-251.0,-3.0,54.0,12.0,-19.0,0
-13.0,-252.0,-3.0,54.0,11.0,-17.0,0
-13.0,-253.0,-2.0,55.0,10.0,-17.0,0
-14.0,-250.0,-3.0,55.0,9.0,-16.0,0
-9.0,-252.0,-1.0,55.0,9.0,-15.0,0
-13.0,-253.0,-3.0,53.0,9.0,-15.0,0
-12.0,-254.0,-2.0,53.0,8.0,-14.0,0
-16.0,-249.0,-3.0,52.0,6.0,-14.0,0
-10.0,-247.0,1.0,50.0,6.0,-13.0,0
-11.0,-252.0,-2.0,50.0,6.0,-13.0,0
-15.0,-250.0,1.0,50.0,5.0,-12.0,0
-14.0,-251.0,-2.0,50.0,5.0,-11.0,0
-14.0,-252.0,-3.0,51.0,5.0,-12.0,0
-13.0,-252.0,-3.0,51.0,6.0,-9.0,0
-10.0,-254.0,-4.0,54.0,5.0,-10.0,0
-15.0,-253.0,-5.0,52.0,5.0,-10.0,0
-13.0,-254.0,-2.0,52.0,4.0,-11.0,0
-15.0,-253.0,-4.0,53.0,4.0,-9.0,0
-14.0,-254.0,-3.0,53.0,1.0,-9.0,0
-13.0,-253.0,-3.0,53.0,1.0,-10.0,0
-15.0,-251.0,1.0,50.0,0.0,-10.0,0
-15.0,-250.0,-4.0,50.0,0.0,-11.0,0
-12.0,-252.0,-2.0,51.0,0.0,-10.0,0
-14.0,-253.0,-4.0,50.0,1.0,-10.0,0
-12.0,-253.0,-3.0,52.0,1.0,-9.0,0
-14.0,-251.0,-2.0,54.0,2.0,-8.0,0
-12.0,-253.0,-6.0,54.0,1.0,-8.0,0
-15.0,-251.0,-1.0,54.0,-3.0,-7.0,0
-15.0,-251.0,-2.0,54.0,-4.0,-7.0,0
-7.0,-253.0,-4.0,53.0,-5.0,-8.0,0
-14.0,-247.0,-3.0,51.0,-5.0,-9.0,0
-12.0,-252.0,0.0,51.0,-2.0,-10.0,0
-11.0,-251.0,-2.0,51.0,-1.0,-7.0,0
-14.0,-250.0,1.0,52.0,2.0,-7.0,0
-14.0,-250.0,-3.0,53.0,1.0,-7.0,0
-11.0,-252.0,-6.0,51.0,3.0,-6.0,0
-10.0,-251.0,-5.0,50.0,5.0,-6.0,0
-12.0,-252.0,0.0,49.0,5.0,-5.0,0
-12.0,-252.0,-4.0,49.0,4.0,-5.0,0
-15.0,-251.0,-2.0,47.0,5.0,-4.0,0
-14.0,-247.0,-6.0,46.0,4.0,-5.0,0
-12.0,-252.0,-3.0,45.0,1.0,-5.0,0
-13.0,-253.0,-1.0,43.0,0.0,-4.0,0
-14.0,-252.0,0.0,43.0,0.0,-4.0,0
-14.0,-251.0,-2.0,44.0,0.0,-4.0,0
-14.0,-253.0,1.0,43.0,1.0,-6.0,0
-15.0,-251.0,-4.0,43.0,2.0,-6.0,0
-11.0,-252.0,0.0,43.0,3.0,-6.0,0
-9.0,-251.0,-3.0,42.0,6.0,-4.0,0
-10.0,-253.0,-3.0,44.0,8.0,-4.0,0
-7.0,-253.0,0.0,42.0,10.0,-4.0,0
-13.0,-251.0,-1.0,42.0,10.0,-4.0,0
-11.0,-252.0,-1.0,40.0,9.0,-5.0,0
-14.0,-252.0,-2.0,40.0,9.0,-6.0,0
-14.0,-252.0,-1.0,36.0,9.0,-6.0,0
-15.0,-253.0,-3.0,36.0,8.0,-5.0,0
-17.0,-250.0,-4.0,35.0,10.0,-6.0,0
-13.0,-249.0,1.0,34.0,10.0,-6.0,0
-13.0,-251.0,-4.0,34.0,11.0,-5.0,0
-14.0,-254.0,-3.0,33.0,11.0,-7.0,0
-15.0,-249.0,-2.0,33.0,10.0,-6.0,0
-12.0,-251.0,-3.0,32.0,12.0,-9.0,0
-14.0,-251.0,-4.0,33.0,12.0,-7.0,0
-9.0,-255.0,1.0,34.0,11.0,-6.0,0
-13.0,-253.0,-9.0,36.0,9.0,-5.0,0
-15.0,-250.0,-9.0,35.0,9.0,-7.0,0
-13.0,-252.0,-1.0,34.0,10.0,-5.0,0
-10.0,-256.0,0.0,34.0,12.0,-8.0,0
-14.0,-252.0,-1.0,35.0,16.0,-8.0,0
-12.0,-255.0,1.0,36.0,17.0,-7.0,0
-13.0,-253.0,0.0,39.0,18.0,-6.0,0
-10.0,-254.0,-2.0,39.0,16.0,-6.0,0
-10.0,-252.0,-2.0,41.0,16.0,-6.0,0
-11.0,-250.0,-1.0,40.0,13.0,-5.0,0
-13.0,-253.0,-3.0,39.0,13.0,-4.0,0
-14.0,-248.0,-3.0,35.0,12.0,-4.0,0
-14.0,-248.0,-3.0,32.0,14.0,-5.0,0
-14.0,-249.0,-3.0,30.0,16.0,-4.0,0
-10.0,-252.0,2.0,26.0,16.0,-4.0,0
-14.0,-250.0,-1.0,25.0,18.0,-6.0,0
-12.0,-251.0,0.0,26.0,18.0,-3.0,0
-11.0,-253.0,-4.0,26.0,18.0,-4.0,0
-12.0,-254.0,-2.0,24.0,17.0,-4.0,0
-13.0,-252.0,-3.0,26.0,15.0,-5.0,0
-14.0,-252.0,0.0,27.0,16.0,-5.0,0
-12.0,-253.0,0.0,28.0,17.0,-5.0,0
-12.0,-255.0,-7.0,31.0,19.0,-5.0,0
-12.0,-252.0,-6.0,33.0,20.0,-5.0,0
-15.0,-253.0,-6.0,33.0,19.0,-4.0,0
-14.0,-252.0,0.0,36.0,18.0,-5.0,0
-13.0,-253.0,-2.0,38.0,16.0,-5.0,0
-12.0,-257.0,-4.0,41.0,14.0,-6.0,0
-14.0,-252.0,-1.0,45.0,11.0,-7.0,0
-16.0,-253.0,-3.0,48.0,10.0,-6.0,0
-15.0,-251.0,-4.0,53.0,9.0,-7.0,0
-12.0,-255.0,-5.0,54.0,8.0,-8.0,0
-13.0,-251.0,-3.0,56.0,11.0,-10.0,0
-12.0,-250.0,-2.0,55.0,13.0,-11.0,0
-16.0,-252.0,0.0,57.0,13.0,-10.0,0
-12.0,-252.0,-4.0,56.0,15.0,-10.0,0
-11.0,-253.0,-3.0,55.0,16.0,-11.0,0
-12.0,-250.0,-4.0,52.0,15.0,-11.0,0
-13.0,-249.0,-4.0,50.0,15.0,-12.0,0
-14.0,-252.0,0.0,49.0,14.0,-12.0,0
-13.0,-253.0,-4.0,50.0,15.0,-13.0,0
-13.0,-252.0,-3.0,50.0,14.0,-14.0,0
-14.0,-252.0,-3.0,52.0,13.0,-13.0,0
-14.0,-252.0,-6.0,52.0,13.0,-12.0,0
-13.0,-249.0,-3.0,52.0,11.0,-12.0,0
-13.0,-251.0,0.0,52.0,9.0,-13.0,0
-14.0,-248.0,-8.0,51.0,7.0,-13.0,0
-13.0,-250.0,-8.0,53.0,8.0,-13.0,0
-11.0,-252.0,-3.0,51.0,9.0,-12.0,0
-13.0,-253.0,-4.0,51.0,8.0,-11.0,0
-14.0,-254.0,-3.0,51.0,8.0,-12.0,0
-17.0,-251.0,-5.0,52.0,7.0,-13.0,0
-12.0,-250.0,-6.0,53.0,7.0,-13.0,0
-17.0,-251.0,-1.0,52.0,5.0,-14.0,0
-13.0,-250.0,-5.0,51.0,5.0,-13.0,0
-11.0,-251.0,-4.0,48.0,5.0,-13.0,0
-15.0,-249.0,-5.0,47.0,7.0,-13.0,0
-14.0,-255.0,-4.0,48.0,9.0,-14.0,0
-12.0,-255.0,-1.0,48.0,8.0,-14.0,0
-14.0,-251.0,-4.0,50.0,8.0,-13.0,0
-13.0,-250.0,-4.0,51.0,9.0,-12.0,0
-12.0,-254.0,-3.0,50.0,12.0,-11.0,0
-13.0,-253.0,-3.0,51.0,12.0,-12.0,0
-14.0,-252.0,-6.0,49.0,13.0,-13.0,0
-10.0,-251.0,1.0,46.0,12.0,-13.0,0
-10.0,-251.0,-2.0,43.0,14.0,-14.0,0
-11.0,-251.0,-7.0,40.0,12.0,-12.0,0
-12.0,-249.0,-4.0,39.0,12.0,-12.0,0
-14.0,-251.0,-5.0,40.0,13.0,-12.0,0
-14.0,-252.0,-5.0,41.0,12.0,-13.0,0
-13.0,-251.0,-3.0,41.0,12.0,-13.0,0
-11.0,-251.0,-5.0,42.0,10.0,-12.0,0
-11.0,-253.0,-3.0,42.0,10.0,-10.0,0
-15.0,-250.0,-5.0,41.0,10.0,-12.0,0
-18.0,-250.0,-5.0,41.0,8.0,-10.0,0
-14.0,-249.0,-3.0,40.0,10.0,-8.0,0
-14.0,-254.0,-5.0,39.0,9.0,-10.0,0
-13.0,-250.0,-3.0,38.0,11.0,-8.0,0
-12.0,-253.0,0.0,38.0,11.0,-10.0,0
-13.0,-253.0,-4.0,39.0,13.0,-11.0,0
-14.0,-253.0,0.0,39.0,15.0,-8.0,0
-12.0,-253.0,-3.0,38.0,15.0,-9.0,0
-13.0,-253.0,-3.0,40.0,15.0,-9.0,0
-12.0,-254.0,-3.0,41.0,15.0,-9.0,0
-12.0,-253.0,-1.0,41.0,14.0,-8.0,0
-12.0,-253.0,-4.0,42.0,13.0,-9.0,0
-14.0,-251.0,-2.0,42.0,14.0,-10.0,0
-14.0,-252.0,-4.0,43.0,13.0,-10.0,0
-12.0,-253.0,-4.0,44.0,14.0,-10.0,0
-11.0,-252.0,-4.0,43.0,14.0,-10.0,0
-13.0,-253.0,-4.0,44.0,16.0,-9.0,0
-15.0,-250.0,-1.0,46.0,17.0,-9.0,0
-10.0,-254.0,1.0,48.0,17.0,-10.0,0
-16.0,-249.0,-1.0,49.0,17.0,-9.0,0
-14.0,-253.0,-5.0,50.0,16.0,-8.0,0
-16.0,-252.0,-2.0,49.0,17.0,-8.0,0
-11.0,-253.0,-6.0,48.0,16.0,-10.0,0
-11.0,-252.0,-6.0,47.0,16.0,-10.0,0
-13.0,-252.0,-2.0,46.0,17.0,-10.0,0
-14.0,-251.0,-3.0,46.0,17.0,-10.0,0
-12.0,-252.0,-4.0,44.0,18.0,-10.0,0
-14.0,-251.0,-5.0,45.0,18.0,-10.0,0
-12.0,-253.0,-3.0,46.0,19.0,-13.0,0
-14.0,-252.0,-3.0,46.0,18.0,-11.0,0
-14.0,-251.0,-2.0,45.0,20.0,-14.0,0
-13.0,-254.0,3.0,44.0,21.0,-14.0,0
-13.0,-250.0,-14.0,43.0,22.0,-13.0,0
-13.0,-250.0,-5.0,45.0,22.0,-12.0,0
-9.0,-255.0,-2.0,45.0,20.0,-12.0,0
-13.0,-252.0,-2.0,47.0,19.0,-12.0,0
-13.0,-253.0,-1.0,46.0,18.0,-12.0,0
-11.0,-251.0,-7.0,48.0,16.0,-12.0,0
-13.0,-251.0,-5.0,46.0,16.0,-13.0,0
-16.0,-250.0,-3.0,45.0,14.0,-11.0,0
-15.0,-250.0,-4.0,43.0,14.0,-11.0,0
-13.0,-250.0,-5.0,42.0,14.0,-11.0,0
-14.0,-251.0,-6.0,40.0,14.0,-14.0,0
-12.0,-253.0,-3.0,39.0,14.0,-12.0,0
-13.0,-250.0,-5.0,40.0,13.0,-11.0,0
-14.0,-253.0,-4.0,40.0,13.0,-11.0,0
-12.0,-250.0,-2.0,39.0,14.0,-10.0,0
-14.0,-252.0,-5.0,37.0,13.0,-10.0,0
-13.0,-254.0,-3.0,35.0,12.0,-11.0,0
-16.0,-249.0,-1.0,31.0,12.0,-10.0,0
-12.0,-247.0,-1.0,28.0,12.0,-10.0,0
-12.0,-250.0,-6.0,24.0,11.0,-9.0,0
-10.0,-251.0,2.0,24.0,12.0,-9.0,0
-13.0,-251.0,-2.0,26.0,13.0,-8.0,0
-10.0,-252.0,-10.0,30.0,13.0,-8.0,0
-12.0,-252.0,-11.0,35.0,11.0,-9.0,0
-9.0,-254.0,-8.0,38.0,8.0,-10.0,0
-11.0,-252.0,-9.0,41.0,9.0,-12.0,0
-12.0,-253.0,-5.0,44.0,11.0,-12.0,0
-11.0,-254.0,-4.0,49.0,14.0,-12.0,0
-12.0,-251.0,-6.0,51.0,18.0,-12.0,0
-11.0,-253.0,-6.0,54.0,19.0,-12.0,0
-13.0,-250.0,-5.0,54.0,20.0,-12.0,0
-9.0,-250.0,-5.0,54.0,22.0,-12.0,0
-12.0,-249.0,-5.0,54.0,21.0,-12.0,0
-13.0,-253.0,-4.0,54.0,23.0,-12.0,0
-14.0,-252.0,-6.0,53.0,24.0,-13.0,0
-11.0,-251.0,-5.0,54.0,24.0,-13.0,0
-13.0,-250.0,-8.0,53.0,25.0,-12.0,0
-12.0,-252.0,-9.0,53.0,22.0,-11.0,0
-8.0,-253.0,-5.0,52.0,22.0,-14.0,0
-11.0,-251.0,-4.0,51.0,20.0,-13.0,0
-12.0,-256.0,-8.0,52.0,19.0,-11.0,0
-13.0,-249.0,-7.0,51.0,19.0,-10.0,0
-14.0,-254.0,-5.0,52.0,18.0,-10.0,0
-13.0,-250.0,-3.0,53.0,19.0,-11.0,0
-12.0,-253.0,-7.0,53.0,18.0,-12.0,0
-13.0,-251.0,-6.0,51.0,18.0,-12.0,0
-14.0,-252.0,-5.0,48.0,17.0,-13.0,0
-15.0,-254.0,-5.0,46.0,17.0,-13.0,0
-9.0,-252.0,-6.0,48.0,17.0,-13.0,0
-14.0,-252.0,-7.0,50.0,17.0,-13.0,0
-13.0,-253.0,-4.0,51.0,17.0,-11.0,0
-12.0,-253.0,-8.0,52.0,16.0,-13.0,0
-12.0,-253.0,-10.0,54.0,16.0,-13.0,0
-13.0,-262.0,-2.0,52.0,15.0,-12.0,0
-13.0,-254.0,-8.0,51.0,13.0,-12.0,0
-12.0,-254.0,-5.0,49.0,12.0,-11.0,0
-13.0,-250.0,-8.0,50.0,12.0,-11.0,0
-12.0,-253.0,-8.0,50.0,11.0,-12.0,0
-11.0,-251.0,-8.0,52.0,11.0,-11.0,0
-13.0,-249.0,-11.0,51.0,12.0,-10.0,0
-13.0,-252.0,-10.0,52.0,13.0,-11.0,0
-13.0,-252.0,-6.0,51.0,12.0,-11.0,0
-12.0,-253.0,-7.0,50.0,10.0,-10.0,0
-12.0,-248.0,-8.0,50.0,9.0,-11.0,0
-11.0,-251.0,-8.0,50.0,7.0,-11.0,0
-14.0,-250.0,-6.0,52.0,6.0,-10.0,0
-11.0,-254.0,-7.0,52.0,4.0,-10.0,0
-13.0,-252.0,-2.0,51.0,5.0,-12.0,0
-13.0,-255.0,-7.0,52.0,4.0,-10.0,0
-10.0,-251.0,-5.0,52.0,6.0,-9.0,0
-12.0,-251.0,-11.0,51.0,8.0,-9.0,0
-13.0,-253.0,-6.0,52.0,8.0,-10.0,0
-13.0,-252.0,-7.0,53.0,10.0,-10.0,0
-14.0,-254.0,-8.0,53.0,11.0,-10.0,0
-14.0,-252.0,1.0,53.0,11.0,-10.0,0
-15.0,-251.0,-5.0,51.0,11.0,-12.0,0
-12.0,-250.0,-8.0,50.0,11.0,-10.0,0
-15.0,-248.0,-5.0,50.0,11.0,-10.0,0
-13.0,-250.0,-4.0,50.0,13.0,-11.0,0
-13.0,-249.0,-8.0,50.0,14.0,-10.0,0
-14.0,-255.0,-10.0,50.0,14.0,-10.0,0
-13.0,-252.0,-7.0,52.0,14.0,-11.0,0
-12.0,-251.0,-8.0,51.0,16.0,-10.0,0
-11.0,-252.0,-9.0,51.0,14.0,-11.0,0
-14.0,-253.0,-8.0,51.0,14.0,-10.0,0
-16.0,-252.0,-9.0,49.0,13.0,-10.0,0
-12.0,-251.0,-5.0,49.0,14.0,-10.0,0
-14.0,-250.0,-2.0,50.0,13.0,-8.0,0
-14.0,-253.0,-10.0,50.0,11.0,-9.0,0
-13.0,-253.0,-3.0,49.0,12.0,-8.0,0
-13.0,-253.0,-6.0,48.0,13.0,-8.0,0
-13.0,-251.0,-8.0,49.0,14.0,-11.0,0
-12.0,-251.0,-3.0,49.0,15.0,-10.0,0
-14.0,-253.0,-5.0,49.0,15.0,-10.0,0
-15.0,-249.0,-6.0,47.0,16.0,-12.0,0
-7.0,-252.0,-2.0,48.0,15.0,-10.0,0
-16.0,-259.0,3.0,47.0,15.0,-10.0,0
-15.0,-250.0,-5.0,46.0,14.0,-10.0,0
-15.0,-250.0,-2.0,47.0,16.0,-12.0,0
-13.0,-252.0,-9.0,46.0,15.0,-12.0,0
-15.0,-250.0,-3.0,47.0,13.0,-10.0,0
-11.0,-250.0,-8.0,49.0,14.0,-11.0,0
-14.0,-251.0,-1.0,48.0,14.0,-10.0,0
-11.0,-252.0,-7.0,48.0,16.0,-11.0,0
-10.0,-255.0,-9.0,46.0,17.0,-9.0,0
-13.0,-255.0,-6.0,46.0,18.0,-9.0,0
-12.0,-252.0,-5.0,46.0,18.0,-8.0,0
-9.0,-250.0,-1.0,45.0,19.0,-7.0,0
-16.0,-250.0,-3.0,46.0,17.0,-7.0,0
-12.0,-252.0,-4.0,45.0,17.0,-9.0,0
-12.0,-252.0,-4.0,46.0,16.0,-9.0,0
-14.0,-254.0,-3.0,47.0,17.0,-9.0,0
-11.0,-254.0,-3.0,47.0,17.0,-8.0,0
-11.0,-252.0,-6.0,49.0,19.0,-8.0,0
-14.0,-255.0,-11.0,49.0,18.0,-7.0,0
-12.0,-251.0,-3.0,52.0,19.0,-8.0,0
-14.0,-249.0,-4.0,52.0,19.0,-9.0,0
-13.0,-252.0,-4.0,53.0,18.0,-10.0,0
-14.0,-250.0,-6.0,51.0,18.0,-8.0,0
-15.0,-248.0,-8.0,51.0,19.0,-9.0,0
-12.0,-252.0,-6.0,51.0,18.0,-7.0,0
-15.0,-252.0,-5.0,51.0,18.0,-8.0,0
-8.0,-252.0,-3.0,50.0,19.0,-9.0,0
-14.0,-250.0,-1.0,50.0,18.0,-6.0,0
-11.0,-252.0,-7.0,48.0,19.0,-8.0,0
-12.0,-253.0,-3.0,48.0,20.0,-10.0,0
-14.0,-250.0,-5.0,49.0,19.0,-10.0,0
-15.0,-251.0,-4.0,49.0,18.0,-8.0,0
-13.0,-252.0,-5.0,52.0,19.0,-9.0,0
-12.0,-253.0,-5.0,53.0,20.0,-9.0,0
-14.0,-252.0,-2.0,53.0,20.0,-11.0,0
-14.0,-256.0,-5.0,52.0,20.0,-12.0,0
-12.0,-248.0,-2.0,51.0,19.0,-11.0,0
-12.0,-253.0,-5.0,52.0,18.0,-11.0,0
-13.0,-252.0,-7.0,52.0,17.0,-10.0,0
-13.0,-249.0,-6.0,53.0,16.0,-11.0,0
-13.0,-252.0,-3.0,53.0,16.0,-8.0,0
-14.0,-252.0,-6.0,53.0,16.0,-8.0,0
-11.0,-253.0,-5.0,52.0,16.0,-10.0,0
-14.0,-252.0,-3.0,53.0,15.0,-9.0,0
-13.0,-254.0,-6.0,51.0,14.0,-10.0,0
-12.0,-252.0,-3.0,49.0,14.0,-9.0,0
-14.0,-249.0,-4.0,49.0,14.0,-11.0,0
-14.0,-256.0,-7.0,50.0,14.0,-11.0,0
-14.0,-254.0,-7.0,50.0,13.0,-10.0,0
-13.0,-252.0,-5.0,50.0,11.0,-11.0,0
-16.0,-250.0,-6.0,48.0,10.0,-10.0,0
-14.0,-252.0,-8.0,49.0,9.0,-11.0,0
-11.0,-252.0,-4.0,48.0,8.0,-9.0,0
-12.0,-248.0,1.0,48.0,11.0,-8.0,0
-10.0,-253.0,-3.0,50.0,11.0,-9.0,0
-12.0,-254.0,-8.0,53.0,11.0,-10.0,0
-14.0,-252.0,-8.0,59.0,9.0,-9.0,0
-17.0,-250.0,-8.0,62.0,8.0,-11.0,0
-7.0,-253.0,-7.0,64.0,8.0,-11.0,0
-9.0,-250.0,-5.0,65.0,11.0,-10.0,0
-12.0,-252.0,-4.0,66.0,11.0,-11.0,0
-12.0,-250.0,-7.0,66.0,10.0,-12.0,0
-11.0,-252.0,-4.0,66.0,11.0,-12.0,0
-16.0,-249.0,-3.0,66.0,9.0,-10.0,0
-12.0,-254.0,-5.0,66.0,9.0,-11.0,0
-12.0,-249.0,-8.0,68.0,8.0,-10.0,0
-15.0,-251.0,-3.0,68.0,8.0,-11.0,0
-14.0,-252.0,-5.0,69.0,9.0,-9.0,0
-14.0,-253.0,-5.0,69.0,8.0,-11.0,0
-12.0,-253.0,-8.0,67.0,9.0,-10.0,0
-13.0,-250.0,-2.0,66.0,9.0,-9.0,0
-14.0,-251.0,-6.0,66.0,10.0,-9.0,0
-13.0,-250.0,-3.0,66.0,10.0,-9.0,0
-15.0,-252.0,-5.0,66.0,12.0,-10.0,0
-15.0,-251.0,-3.0,66.0,12.0,-10.0,0
-15.0,-250.0,-8.0,66.0,10.0,-10.0,0
-14.0,-252.0,-6.0,65.0,11.0,-11.0,0
-11.0,-253.0,-3.0,64.0,9.0,-11.0,0
-14.0,-252.0,-7.0,65.0,9.0,-11.0,0
-13.0,-253.0,-6.0,64.0,9.0,-10.0,0
-12.0,-253.0,-5.0,65.0,9.0,-11.0,0
-16.0,-253.0,-5.0,66.0,9.0,-12.0,0
-13.0,-252.0,-10.0,68.0,8.0,-12.0,0
-13.0,-254.0,-4.0,68.0,8.0,-12.0,0
-11.0,-253.0,-5.0,69.0,7.0,-10.0,0
-15.0,-250.0,-5.0,70.0,6.0,-12.0,0
-12.0,-254.0,-4.0,70.0,5.0,-12.0,0
-16.0,-249.0,-1.0,70.0,4.0,-13.0,0
-11.0,-252.0,-4.0,71.0,4.0,-14.0,0
-12.0,-252.0,-5.0,73.0,6.0,-14.0,0
-13.0,-252.0,-8.0,72.0,5.0,-13.0,0
-16.0,-249.0,-9.0,72.0,6.0,-12.0,0
-14.0,-250.0,-5.0,71.0,5.0,-15.0,0
-14.0,-250.0,-4.0,67.0,5.0,-15.0,0
-10.0,-252.0,-9.0,64.0,6.0,-15.0,0
-16.0,-252.0,0.0,62.0,5.0,-14.0,0
-14.0,-251.0,-5.0,63.0,4.0,-14.0,0
-13.0,-251.0,-3.0,65.0,5.0,-15.0,0
-13.0,-251.0,-1.0,64.0,5.0,-14.0,0
-15.0,-251.0,-1.0,62.0,5.0,-15.0,0
-12.0,-254.0,-6.0,63.0,5.0,-13.0,0
-9.0,-255.0,-4.0,64.0,5.0,-12.0,0
-13.0,-252.0,-2.0,63.0,7.0,-11.0,0
-14.0,-251.0,-3.0,61.0,6.0,-13.0,0
-10.0,-254.0,-2.0,62.0,6.0,-13.0,0
-12.0,-251.0,-1.0,63.0,7.0,-14.0,0
-16.0,-252.0,1.0,64.0,9.0,-14.0,0
-12.0,-254.0,-6.0,65.0,9.0,-13.0,0
