ax,ay,az,gx,gy,gz,label
27.0,-245.0,29.0,76.0,12.0,-12.0,0
26.0,-244.0,30.0,75.0,12.0,-12.0,0
26.0,-242.0,28.0,76.0,11.0,-11.0,0
29.0,-243.0,31.0,74.0,11.0,-13.0,0
28.0,-244.0,30.0,73.0,11.0,-11.0,0
26.0,-246.0,33.0,71.0,12.0,-11.0,0
28.0,-245.0,27.0,70.0,15.0,-12.0,0
25.0,-244.0,27.0,69.0,16.0,-12.0,0
30.0,-248.0,28.0,69.0,19.0,-12.0,0
25.0,-245.0,28.0,68.0,19.0,-13.0,0
30.0,-246.0,31.0,69.0,19.0,-12.0,0
32.0,-246.0,30.0,71.0,17.0,-12.0,0
27.0,-246.0,30.0,72.0,17.0,-13.0,0
29.0,-245.0,30.0,73.0,16.0,-14.0,0
31.0,-245.0,28.0,75.0,15.0,-11.0,0
30.0,-244.0,31.0,76.0,14.0,-11.0,0
28.0,-245.0,25.0,75.0,13.0,-10.0,0
27.0,-246.0,32.0,74.0,14.0,-11.0,0
26.0,-245.0,32.0,74.0,14.0,-12.0,0
28.0,-245.0,34.0,75.0,14.0,-12.0,0
29.0,-245.0,31.0,75.0,15.0,-11.0,0
28.0,-245.0,32.0,74.0,17.0,-12.0,0
28.0,-245.0,28.0,73.0,18.0,-10.0,0
28.0,-244.0,30.0,71.0,18.0,-11.0,0
31.0,-246.0,31.0,71.0,19.0,-10.0,0
28.0,-241.0,29.0,70.0,20.0,-12.0,0
28.0,-248.0,32.0,69.0,21.0,-12.0,0
29.0,-247.0,31.0,70.0,22.0,-12.0,0
27.0,-246.0,33.0,68.0,21.0,-13.0,0
26.0,-244.0,34.0,67.0,19.0,-13.0,0
30.0,-247.0,34.0,66.0,18.0,-12.0,0
26.0,-242.0,30.0,65.0,17.0,-13.0,0
28.0,-243.0,33.0,64.0,17.0,-12.0,0
26.0,-243.0,30.0,63.0,15.0,-12.0,0
29.0,-243.0,28.0,61.0,15.0,-12.0,0
25.0,-244.0,31.0,59.0,14.0,-12.0,0
26.0,-245.0,30.0,57.0,12.0,-12.0,0
27.0,-244.0,29.0,56.0,13.0,-12.0,0
26.0,-248.0,33.0,55.0,14.0,-11.0,0
29.0,-247.0,29.0,53.0,14.0,-11.0,0
29.0,-247.0,30.0,52.0,14.0,-13.0,0
30.0,-246.0,31.0,50.0,14.0,-13.0,0
29.0,-246.0,29.0,48.0,13.0,-12.0,0
28.0,-248.0,30.0,48.0,13.0,-11.0,0
27.0,-249.0,33.0,47.0,14.0,-12.0,0
27.0,-244.0,32.0,46.0,14.0,-10.0,0
27.0,-243.0,27.0,46.0,14.0,-13.0,0
23.0,-245.0,30.0,44.0,13.0,-11.0,0
27.0,-247.0,28.0,45.0,14.0,-12.0,0
27.0,-247.0,30.0,49.0,13.0,-14.0,0
31.0,-246.0,30.0,53.0,12.0,-14.0,0
24.0,-244.0,31.0,53.0,13.0,-13.0,0
30.0,-248.0,31.0,54.0,12.0,-12.0,0
28.0,-245.0,32.0,56.0,11.0,-12.0,0
28.0,-247.0,30.0,58.0,9.0,-14.0,0
27.0,-243.0,32.0,59.0,10.0,-12.0,0
26.0,-247.0,29.0,59.0,9.0,-12.0,0
24.0,-245.0,28.0,60.0,9.0,-12.0,0
27.0,-246.0,28.0,61.0,9.0,-11.0,0
28.0,-247.0,31.0,62.0,10.0,-9.0,0
28.0,-246.0,34.0,66.0,10.0,-11.0,0
32.0,-248.0,31.0,68.0,12.0,-12.0,0
28.0,-248.0,33.0,72.0,11.0,-9.0,0
26.0,-249.0,35.0,75.0,13.0,-10.0,0
27.0,-245.0,32.0,77.0,14.0,-11.0,0
26.0,-247.0,31.0,77.0,13.0,-11.0,0
28.0,-247.0,28.0,76.0,13.0,-11.0,0
29.0,-246.0,33.0,75.0,13.0,-13.0,0
26.0,-244.0,32.0,73.0,14.0,-13.0,0
30.0,-245.0,30.0,70.0,13.0,-13.0,0
28.0,-245.0,31.0,68.0,15.0,-13.0,0
25.0,-242.0,34.0,66.0,15.0,-15.0,0
28.0,-244.0,32.0,64.0,15.0,-13.0,0
27.0,-242.0,30.0,64.0,15.0,-13.0,0
31.0,-245.0,32.0,63.0,15.0,-14.0,0
29.0,-245.0,30.0,62.0,16.0,-14.0,0
28.0,-248.0,30.0,62.0,17.0,-15.0,0
28.0,-243.0,31.0,60.0,16.0,-13.0,0
28.0,-244.0,32.0,58.0,17.0,-14.0,0
26.0,-244.0,30.0,58.0,15.0,-14.0,0
24.0,-244.0,28.0,56.0,15.0,-15.0,0
29.0,-244.0,28.0,54.0,14.0,-13.0,0
29.0,-245.0,31.0,53.0,13.0,-15.0,0
30.0,-249.0,31.0,52.0,11.0,-14.0,0
28.0,-247.0,31.0,49.0,11.0,-14.0,0
26.0,-245.0,28.0,50.0,10.0,-15.0,0
26.0,-246.0,30.0,49.0,12.0,-12.0,0
25.0,-245.0,32.0,50.0,14.0,-13.0,0
28.0,-246.0,27.0,54.0,12.0,-14.0,0
29.0,-247.0,30.0,56.0,15.0,-15.0,0
28.0,-247.0,29.0,58.0,18.0,-14.0,0
27.0,-246.0,31.0,59.0,19.0,-14.0,0
27.0,-247.0,30.0,61.0,21.0,-14.0,0
28.0,-242.0,31.0,63.0,21.0,-15.0,0
25.0,-245.0,30.0,63.0,22.0,-14.0,0
26.0,-244.0,32.0,64.0,23.0,-16.0,0
26.0,-245.0,31.0,63.0,24.0,-18.0,0
29.0,-249.0,31.0,64.0,23.0,-16.0,0
29.0,-248.0,30.0,64.0,23.0,-16.0,0
28.0,-246.0,31.0,62.0,20.0,-16.0,0
40.0,-243.0,33.0,60.0,20.0,-17.0,0
26.0,-243.0,31.0,57.0,18.0,-15.0,0
29.0,-243.0,30.0,55.0,17.0,-16.0,0
28.0,-245.0,28.0,53.0,15.0,-15.0,0
28.0,-247.0,26.0,53.0,14.0,-14.0,0
25.0,-245.0,30.0,52.0,12.0,-13.0,0
27.0,-242.0,33.0,54.0,11.0,-13.0,0
30.0,-247.0,32.0,59.0,13.0,-15.0,0
25.0,-241.0,28.0,60.0,14.0,-14.0,0
26.0,-243.0,30.0,64.0,15.0,-15.0,0
29.0,-242.0,44.0,65.0,17.0,-15.0,0
38.0,-244.0,28.0,63.0,17.0,-17.0,0
26.0,-243.0,31.0,59.0,18.0,-17.0,0
29.0,-243.0,28.0,55.0,18.0,-16.0,0
29.0,-245.0,25.0,50.0,15.0,-17.0,0
29.0,-246.0,31.0,44.0,14.0,-16.0,0
29.0,-247.0,32.0,41.0,12.0,-16.0,0
30.0,-247.0,29.0,39.0,9.0,-12.0,0
27.0,-247.0,30.0,38.0,7.0,-11.0,0
30.0,-249.0,26.0,39.0,4.0,-10.0,0
26.0,-245.0,28.0,40.0,2.0,-12.0,0
28.0,-250.0,28.0,41.0,1.0,-10.0,0
28.0,-246.0,32.0,45.0,1.0,-12.0,0
27.0,-247.0,31.0,49.0,2.0,-10.0,0
27.0,-249.0,30.0,53.0,5.0,-11.0,0
28.0,-247.0,34.0,58.0,8.0,-12.0,0
28.0,-251.0,31.0,62.0,14.0,-14.0,0
25.0,-243.0,32.0,64.0,18.0,-15.0,0
25.0,-247.0,30.0,66.0,21.0,-16.0,0
29.0,-247.0,28.0,68.0,23.0,-18.0,0
26.0,-245.0,31.0,71.0,25.0,-18.0,0
29.0,-249.0,30.0,71.0,24.0,-16.0,0
28.0,-246.0,27.0,70.0,23.0,-18.0,0
31.0,-253.0,39.0,72.0,20.0,-15.0,0
26.0,-244.0,30.0,72.0,15.0,-13.0,0
29.0,-243.0,27.0,72.0,11.0,-12.0,0
30.0,-247.0,28.0,71.0,7.0,-11.0,0
28.0,-246.0,26.0,70.0,4.0,-10.0,0
26.0,-244.0,31.0,68.0,3.0,-8.0,0
26.0,-247.0,30.0,66.0,4.0,-7.0,0
28.0,-244.0,31.0,63.0,4.0,-6.0,0
29.0,-244.0,31.0,61.0,3.0,-6.0,0
28.0,-249.0,28.0,59.0,4.0,-6.0,0
31.0,-247.0,28.0,57.0,4.0,-5.0,0
26.0,-245.0,35.0,56.0,5.0,-5.0,0
26.0,-244.0,31.0,57.0,7.0,-7.0,0
29.0,-246.0,33.0,57.0,8.0,-8.0,0
24.0,-242.0,32.0,58.0,11.0,-8.0,0
25.0,-245.0,27.0,55.0,12.0,-8.0,0
28.0,-248.0,29.0,56.0,11.0,-12.0,0
28.0,-245.0,29.0,56.0,12.0,-10.0,0
29.0,-246.0,31.0,57.0,15.0,-10.0,0
26.0,-250.0,32.0,59.0,14.0,-12.0,0
31.0,-245.0,28.0,60.0,13.0,-10.0,0
29.0,-244.0,28.0,62.0,13.0,-11.0,0
29.0,-247.0,30.0,63.0,11.0,-10.0,0
30.0,-244.0,32.0,64.0,10.0,-9.0,0
27.0,-245.0,32.0,68.0,7.0,-10.0,0
28.0,-245.0,29.0,67.0,7.0,-8.0,0
31.0,-245.0,33.0,68.0,6.0,-9.0,0
30.0,-244.0,28.0,69.0,5.0,-8.0,0
32.0,-245.0,30.0,66.0,5.0,-7.0,0
27.0,-246.0,28.0,66.0,5.0,-8.0,0
28.0,-243.0,31.0,65.0,5.0,-8.0,0
25.0,-243.0,31.0,63.0,4.0,-6.0,0
28.0,-245.0,31.0,62.0,3.0,-8.0,0
29.0,-244.0,32.0,61.0,3.0,-6.0,0
27.0,-242.0,32.0,59.0,1.0,-7.0,0
27.0,-246.0,28.0,56.0,-1.0,-8.0,0
30.0,-247.0,32.0,54.0,-2.0,-8.0,0
26.0,-242.0,30.0,50.0,-3.0,-9.0,0
27.0,-246.0,30.0,47.0,-4.0,-8.0,0
27.0,-244.0,29.0,46.0,-4.0,-7.0,0
28.0,-243.0,32.0,45.0,-3.0,-5.0,0
26.0,-244.0,29.0,43.0,0.0,-5.0,0
30.0,-247.0,35.0,43.0,0.0,-5.0,0
32.0,-248.0,32.0,44.0,0.0,-4.0,0
23.0,-248.0,35.0,44.0,1.0,-5.0,0
27.0,-246.0,33.0,43.0,0.0,-5.0,0
27.0,-247.0,27.0,43.0,0.0,-5.0,0
28.0,-245.0,34.0,44.0,-1.0,-7.0,0
29.0,-245.0,31.0,44.0,-3.0,-6.0,0
29.0,-245.0,33.0,44.0,-5.0,-6.0,0
26.0,-245.0,30.0,46.0,-4.0,-7.0,0
30.0,-244.0,31.0,47.0,-5.0,-7.0,0
26.0,-244.0,28.0,46.0,-4.0,-8.0,0
29.0,-244.0,32.0,47.0,-4.0,-8.0,0
29.0,-245.0,27.0,47.0,-4.0,-8.0,0
28.0,-245.0,31.0,45.0,-3.0,-10.0,0
26.0,-244.0,33.0,44.0,-1.0,-9.0,0
25.0,-243.0,33.0,41.0,1.0,-9.0,0
29.0,-245.0,30.0,39.0,3.0,-9.0,0
29.0,-244.0,31.0,36.0,4.0,-10.0,0
30.0,-247.0,33.0,35.0,3.0,-11.0,0
28.0,-245.0,29.0,34.0,5.0,-11.0,0
28.0,-240.0,27.0,32.0,5.0,-11.0,0
30.0,-245.0,28.0,30.0,6.0,-10.0,0
27.0,-246.0,29.0,31.0,7.0,-11.0,0
32.0,-247.0,27.0,31.0,8.0,-11.0,0
29.0,-246.0,31.0,31.0,5.0,-11.0,0
30.0,-252.0,31.0,31.0,3.0,-10.0,0
29.0,-244.0,30.0,32.0,0.0,-10.0,0
26.0,-242.0,31.0,31.0,-2.0,-9.0,0
25.0,-246.0,30.0,31.0,-4.0,-7.0,0
28.0,-244.0,28.0,29.0,-4.0,-8.0,0
29.0,-245.0,29.0,29.0,-4.0,-5.0,0
26.0,-247.0,26.0,28.0,-5.0,-3.0,0
26.0,-247.0,28.0,29.0,-6.0,-5.0,0
27.0,-243.0,32.0,29.0,-4.0,-4.0,0
27.0,-242.0,28.0,29.0,-4.0,-4.0,0
27.0,-246.0,31.0,31.0,-3.0,-3.0,0
26.0,-248.0,32.0,32.0,-3.0,-5.0,0
28.0,-245.0,30.0,30.0,-1.0,-5.0,0
28.0,-246.0,28.0,30.0,1.0,-5.0,0
26.0,-248.0,28.0,30.0,1.0,-6.0,0
25.0,-244.0,30.0,29.0,2.0,-8.0,0
27.0,-243.0,28.0,30.0,2.0,-8.0,0
27.0,-245.0,32.0,29.0,6.0,-9.0,0
20.0,-238.0,33.0,30.0,5.0,-9.0,0
25.0,-243.0,32.0,32.0,7.0,-10.0,0
30.0,-246.0,30.0,33.0,7.0,-10.0,0
30.0,-247.0,31.0,32.0,6.0,-10.0,0
27.0,-245.0,34.0,35.0,5.0,-11.0,0
26.0,-244.0,29.0,34.0,3.0,-10.0,0
28.0,-245.0,30.0,34.0,2.0,-11.0,0
29.0,-242.0,28.0,32.0,0.0,-10.0,0
26.0,-245.0,29.0,29.0,0.0,-11.0,0
28.0,-243.0,31.0,27.0,-1.0,-10.0,0
26.0,-249.0,38.0,25.0,0.0,-10.0,0
28.0,-243.0,35.0,24.0,1.0,-10.0,0
28.0,-243.0,31.0,23.0,2.0,-12.0,0
28.0,-248.0,33.0,23.0,2.0,-10.0,0
25.0,-247.0,29.0,25.0,3.0,-9.0,0
29.0,-249.0,29.0,26.0,3.0,-8.0,0
28.0,-245.0,31.0,31.0,4.0,-8.0,0
31.0,-248.0,32.0,31.0,4.0,-10.0,0
29.0,-246.0,31.0,35.0,5.0,-10.0,0
27.0,-244.0,30.0,37.0,4.0,-9.0,0
36.0,-248.0,33.0,38.0,6.0,-11.0,0
26.0,-255.0,20.0,38.0,5.0,-10.0,0
30.0,-245.0,27.0,38.0,4.0,-10.0,0
29.0,-246.0,28.0,36.0,2.0,-10.0,0
29.0,-241.0,25.0,37.0,2.0,-9.0,0
27.0,-243.0,32.0,38.0,4.0,-9.0,0
29.0,-246.0,32.0,38.0,4.0,-10.0,0
28.0,-244.0,29.0,40.0,5.0,-10.0,0
29.0,-245.0,31.0,42.0,5.0,-9.0,0
31.0,-248.0,26.0,43.0,5.0,-12.0,0
29.0,-247.0,27.0,45.0,5.0,-9.0,0
30.0,-245.0,30.0,46.0,5.0,-8.0,0
29.0,-243.0,30.0,47.0,6.0,-10.0,0
28.0,-248.0,31.0,48.0,8.0,-11.0,0
28.0,-246.0,30.0,49.0,9.0,-9.0,0
25.0,-245.0,30.0,49.0,7.0,-8.0,0
29.0,-246.0,27.0,47.0,7.0,-9.0,0
27.0,-242.0,30.0,46.0,6.0,-10.0,0
26.0,-245.0,27.0,44.0,5.0,-9.0,0
31.0,-244.0,31.0,42.0,5.0,-10.0,0
28.0,-247.0,29.0,41.0,5.0,-11.0,0
29.0,-248.0,30.0,41.0,5.0,-10.0,0
27.0,-244.0,27.0,39.0,5.0,-11.0,0
29.0,-241.0,39.0,40.0,8.0,-12.0,0
28.0,-240.0,26.0,40.0,9.0,-11.0,0
27.0,-246.0,28.0,40.0,9.0,-11.0,0
26.0,-243.0,26.0,40.0,10.0,-11.0,0
28.0,-246.0,34.0,39.0,11.0,-10.0,0
28.0,-247.0,28.0,39.0,12.0,-11.0,0
30.0,-244.0,29.0,38.0,11.0,-12.0,0
29.0,-245.0,27.0,37.0,10.0,-12.0,0
27.0,-247.0,29.0,34.0,10.0,-12.0,0
28.0,-245.0,31.0,35.0,9.0,-13.0,0
30.0,-247.0,27.0,35.0,9.0,-12.0,0
25.0,-248.0,24.0,36.0,9.0,-13.0,0
31.0,-245.0,29.0,40.0,8.0,-12.0,0
28.0,-244.0,30.0,41.0,7.0,-11.0,0
29.0,-245.0,27.0,43.0,5.0,-11.0,0
27.0,-246.0,28.0,46.0,7.0,-11.0,0
26.0,-246.0,28.0,48.0,6.0,-11.0,0
28.0,-246.0,29.0,49.0,6.0,-11.0,0
27.0,-243.0,30.0,49.0,7.0,-12.0,0
28.0,-244.0,26.0,49.0,7.0,-11.0,0
28.0,-247.0,26.0,47.0,10.0,-12.0,0
25.0,-246.0,32.0,46.0,10.0,-12.0,0
28.0,-244.0,32.0,43.0,10.0,-13.0,0
27.0,-245.0,24.0,41.0,10.0,-14.0,0
26.0,-245.0,28.0,38.0,10.0,-12.0,0
27.0,-245.0,26.0,39.0,10.0,-13.0,0
30.0,-246.0,27.0,39.0,9.0,-12.0,0
25.0,-248.0,30.0,39.0,9.0,-10.0,0
29.0,-249.0,26.0,43.0,10.0,-10.0,0
26.0,-244.0,23.0,46.0,11.0,-10.0,0
30.0,-248.0,25.0,49.0,11.0,-11.0,0
28.0,-246.0,30.0,52.0,10.0,-11.0,0
29.0,-245.0,25.0,52.0,9.0,-11.0,0
28.0,-246.0,28.0,54.0,11.0,-12.0,0
28.0,-249.0,29.0,55.0,12.0,-11.0,0
27.0,-247.0,26.0,58.0,14.0,-11.0,0
27.0,-242.0,29.0,60.0,16.0,-10.0,0
28.0,-247.0,28.0,62.0,16.0,-13.0,0
28.0,-248.0,27.0,62.0,17.0,-12.0,0
28.0,-245.0,28.0,59.0,17.0,-12.0,0
29.0,-245.0,28.0,56.0,18.0,-13.0,0
28.0,-246.0,28.0,52.0,17.0,-14.0,0
26.0,-245.0,26.0,49.0,15.0,-13.0,0
26.0,-245.0,31.0,49.0,13.0,-11.0,0
28.0,-244.0,31.0,49.0,13.0,-11.0,0
27.0,-245.0,28.0,51.0,10.0,-11.0,0
27.0,-243.0,27.0,55.0,9.0,-10.0,0
30.0,-245.0,30.0,60.0,11.0,-8.0,0
26.0,-244.0,29.0,66.0,10.0,-9.0,0
27.0,-245.0,27.0,70.0,11.0,-10.0,0
25.0,-242.0,24.0,71.0,11.0,-9.0,0
27.0,-247.0,25.0,70.0,11.0,-12.0,0
27.0,-246.0,26.0,65.0,11.0,-10.0,0
27.0,-243.0,26.0,59.0,10.0,-10.0,0
27.0,-247.0,27.0,51.0,9.0,-9.0,0
26.0,-244.0,24.0,44.0,7.0,-12.0,0
27.0,-243.0,29.0,39.0,7.0,-10.0,0
28.0,-243.0,27.0,35.0,5.0,-10.0,0
26.0,-242.0,25.0,34.0,6.0,-10.0,0
28.0,-243.0,27.0,32.0,4.0,-10.0,0
29.0,-246.0,28.0,34.0,1.0,-8.0,0
28.0,-246.0,25.0,36.0,1.0,-11.0,0
28.0,-249.0,30.0,43.0,2.0,-10.0,0
26.0,-246.0,30.0,47.0,3.0,-9.0,0
28.0,-247.0,30.0,53.0,6.0,-9.0,0
26.0,-246.0,30.0,60.0,7.0,-10.0,0
28.0,-247.0,30.0,64.0,9.0,-14.0,0
28.0,-245.0,27.0,69.0,11.0,-11.0,0
27.0,-246.0,29.0,72.0,14.0,-13.0,0
28.0,-245.0,24.0,70.0,15.0,-13.0,0
27.0,-241.0,26.0,70.0,16.0,-11.0,0
28.0,-243.0,29.0,69.0,14.0,-11.0,0
28.0,-247.0,28.0,66.0,14.0,-14.0,0
25.0,-246.0,29.0,62.0,13.0,-12.0,0
26.0,-245.0,28.0,60.0,10.0,-12.0,0
29.0,-248.0,27.0,56.0,8.0,-10.0,0
29.0,-245.0,28.0,53.0,6.0,-11.0,0
27.0,-244.0,28.0,49.0,7.0,-11.0,0
30.0,-248.0,28.0,48.0,6.0,-10.0,0
31.0,-249.0,27.0,47.0,7.0,-10.0,0
32.0,-247.0,27.0,46.0,7.0,-11.0,0
25.0,-246.0,27.0,45.0,8.0,-11.0,0
29.0,-251.0,25.0,45.0,10.0,-11.0,0
28.0,-247.0,31.0,46.0,9.0,-11.0,0
24.0,-243.0,26.0,48.0,10.0,-12.0,0
24.0,-237.0,28.0,50.0,11.0,-13.0,0
23.0,-243.0,29.0,51.0,12.0,-12.0,0
27.0,-244.0,31.0,52.0,14.0,-11.0,0
25.0,-243.0,25.0,54.0,13.0,-11.0,0
27.0,-242.0,28.0,54.0,12.0,-11.0,0
31.0,-245.0,31.0,55.0,12.0,-11.0,0
29.0,-247.0,27.0,55.0,11.0,-11.0,0
28.0,-245.0,31.0,55.0,12.0,-11.0,0
27.0,-243.0,29.0,58.0,11.0,-12.0,0
28.0,-243.0,26.0,57.0,9.0,-12.0,0
25.0,-243.0,28.0,57.0,9.0,-11.0,0
30.0,-244.0,31.0,55.0,7.0,-11.0,0
26.0,-245.0,30.0,53.0,8.0,-12.0,0
25.0,-246.0,26.0,51.0,7.0,-11.0,0
29.0,-245.0,24.0,50.0,7.0,-11.0,0
26.0,-248.0,28.0,51.0,7.0,-13.0,0
30.0,-246.0,27.0,52.0,8.0,-12.0,0
27.0,-246.0,32.0,55.0,9.0,-10.0,0
25.0,-245.0,27.0,59.0,9.0,-11.0,0
28.0,-245.0,29.0,65.0,10.0,-13.0,0
28.0,-252.0,24.0,68.0,10.0,-14.0,0
33.0,-253.0,33.0,71.0,11.0,-13.0,0
25.0,-242.0,28.0,69.0,12.0,-12.0,0
29.0,-246.0,28.0,67.0,11.0,-10.0,0
27.0,-245.0,28.0,63.0,11.0,-11.0,0
26.0,-245.0,25.0,59.0,11.0,-10.0,0
25.0,-243.0,23.0,53.0,8.0,-11.0,0
28.0,-245.0,24.0,49.0,6.0,-12.0,0
26.0,-245.0,25.0,44.0,7.0,-11.0,0
26.0,-246.0,26.0,43.0,6.0,-10.0,0
28.0,-246.0,26.0,43.0,5.0,-8.0,0
28.0,-242.0,30.0,44.0,5.0,-11.0,0
29.0,-248.0,28.0,44.0,5.0,-12.0,0
28.0,-245.0,25.0,46.0,5.0,-12.0,0
29.0,-246.0,26.0,49.0,6.0,-10.0,0
24.0,-244.0,29.0,53.0,7.0,-10.0,0
28.0,-244.0,28.0,55.0,6.0,-11.0,0
27.0,-248.0,32.0,59.0,8.0,-12.0,0
28.0,-248.0,28.0,62.0,10.0,-13.0,0
28.0,-243.0,25.0,63.0,11.0,-13.0,0
26.0,-248.0,30.0,65.0,12.0,-13.0,0
30.0,-245.0,28.0,67.0,12.0,-14.0,0
27.0,-245.0,31.0,65.0,15.0,-13.0,0
29.0,-247.0,32.0,65.0,15.0,-13.0,0
31.0,-246.0,31.0,62.0,14.0,-13.0,0
27.0,-243.0,27.0,60.0,13.0,-12.0,0
27.0,-245.0,29.0,58.0,14.0,-14.0,0
30.0,-248.0,32.0,57.0,13.0,-12.0,0
31.0,-246.0,29.0,56.0,11.0,-12.0,0
25.0,-248.0,27.0,58.0,10.0,-12.0,0
29.0,-247.0,29.0,58.0,10.0,-13.0,0
27.0,-245.0,28.0,61.0,9.0,-13.0,0
28.0,-243.0,25.0,61.0,10.0,-12.0,0
30.0,-247.0,26.0,61.0,10.0,-11.0,0
26.0,-245.0,31.0,61.0,11.0,-12.0,0
29.0,-246.0,29.0,59.0,10.0,-12.0,0
30.0,-245.0,30.0,57.0,9.0,-12.0,0
29.0,-247.0,26.0,52.0,9.0,-12.0,0
28.0,-246.0,28.0,53.0,9.0,-12.0,0
25.0,-244.0,27.0,51.0,10.0,-12.0,0
27.0,-244.0,27.0,51.0,12.0,-13.0,0
27.0,-245.0,26.0,52.0,12.0,-13.0,0
27.0,-248.0,27.0,56.0,13.0,-12.0,0
28.0,-248.0,27.0,59.0,13.0,-13.0,0
30.0,-250.0,34.0,60.0,15.0,-13.0,0
29.0,-247.0,25.0,61.0,15.0,-15.0,0
28.0,-245.0,28.0,63.0,15.0,-15.0,0
29.0,-248.0,30.0,65.0,14.0,-14.0,0
29.0,-244.0,27.0,66.0,13.0,-13.0,0
29.0,-246.0,33.0,67.0,12.0,-11.0,0
29.0,-247.0,26.0,67.0,11.0,-11.0,0
31.0,-248.0,27.0,68.0,11.0,-12.0,0
25.0,-245.0,31.0,67.0,11.0,-11.0,0
28.0,-246.0,31.0,68.0,10.0,-12.0,0
26.0,-244.0,27.0,68.0,9.0,-11.0,0
28.0,-244.0,30.0,68.0,11.0,-9.0,0
27.0,-243.0,29.0,67.0,11.0,-9.0,0
30.0,-244.0,27.0,67.0,12.0,-11.0,0
28.0,-248.0,31.0,65.0,13.0,-11.0,0
27.0,-246.0,32.0,66.0,15.0,-11.0,0
29.0,-244.0,30.0,66.0,15.0,-11.0,0
28.0,-244.0,28.0,65.0,15.0,-13.0,0
24.0,-247.0,29.0,65.0,16.0,-12.0,0
29.0,-248.0,25.0,63.0,16.0,-13.0,0
29.0,-247.0,29.0,63.0,16.0,-13.0,0
26.0,-252.0,31.0,60.0,15.0,-14.0,0
30.0,-244.0,33.0,59.0,15.0,-13.0,0
25.0,-244.0,28.0,59.0,15.0,-12.0,0
26.0,-244.0,26.0,58.0,15.0,-12.0,0
26.0,-244.0,27.0,59.0,14.0,-13.0,0
28.0,-243.0,27.0,59.0,13.0,-12.0,0
28.0,-242.0,29.0,58.0,13.0,-12.0,0
29.0,-247.0,29.0,59.0,12.0,-12.0,0
32.0,-248.0,28.0,58.0,11.0,-11.0,0
30.0,-245.0,30.0,58.0,11.0,-9.0,0
32.0,-246.0,31.0,57.0,12.0,-9.0,0
27.0,-241.0,28.0,58.0,11.0,-9.0,0
28.0,-245.0,28.0,58.0,11.0,-9.0,0
28.0,-244.0,26.0,56.0,12.0,-9.0,0
29.0,-244.0,28.0,57.0,12.0,-11.0,0
31.0,-248.0,29.0,58.0,14.0,-10.0,0
26.0,-244.0,34.0,58.0,14.0,-12.0,0
28.0,-247.0,28.0,59.0,14.0,-12.0,0
25.0,-246.0,33.0,60.0,17.0,-10.0,0
27.0,-245.0,30.0,61.0,16.0,-13.0,0
28.0,-245.0,30.0,63.0,15.0,-13.0,0
27.0,-247.0,28.0,66.0,15.0,-13.0,0
29.0,-250.0,28.0,69.0,14.0,-12.0,0
26.0,-246.0,28.0,70.0,13.0,-10.0,0
31.0,-247.0,26.0,68.0,12.0,-12.0,0
30.0,-247.0,28.0,69.0,11.0,-12.0,0
29.0,-247.0,29.0,68.0,10.0,-13.0,0
27.0,-247.0,31.0,65.0,11.0,-11.0,0
28.0,-243.0,31.0,61.0,13.0,-11.0,0
30.0,-246.0,30.0,60.0,14.0,-12.0,0
29.0,-245.0,26.0,58.0,14.0,-10.0,0
27.0,-245.0,30.0,56.0,15.0,-12.0,0
30.0,-248.0,31.0,54.0,15.0,-11.0,0
27.0,-244.0,29.0,55.0,16.0,-12.0,0
28.0,-245.0,29.0,56.0,17.0,-12.0,0
28.0,-246.0,30.0,57.0,15.0,-13.0,0
28.0,-247.0,27.0,59.0,16.0,-15.0,0
33.0,-244.0,29.0,61.0,15.0,-12.0,0
31.0,-247.0,28.0,62.0,15.0,-13.0,0
26.0,-241.0,22.0,64.0,13.0,-14.0,0
27.0,-248.0,28.0,64.0,12.0,-13.0,0
29.0,-246.0,26.0,64.0,12.0,-14.0,0
25.0,-248.0,22.0,64.0,12.0,-14.0,0
27.0,-242.0,32.0,62.0,13.0,-13.0,0
29.0,-246.0,27.0,63.0,14.0,-12.0,0
29.0,-247.0,32.0,60.0,15.0,-14.0,0
27.0,-244.0,32.0,61.0,14.0,-13.0,0
28.0,-245.0,25.0,62.0,13.0,-13.0,0
30.0,-245.0,30.0,61.0,15.0,-13.0,0
28.0,-244.0,28.0,63.0,14.0,-12.0,0
29.0,-246.0,32.0,64.0,14.0,-12.0,0
29.0,-244.0,29.0,64.0,14.0,-12.0,0
30.0,-246.0,29.0,65.0,16.0,-12.0,0
28.0,-242.0,31.0,65.0,13.0,-12.0,0
29.0,-242.0,28.0,63.0,13.0,-12.0,0
29.0,-245.0,27.0,61.0,12.0,-12.0,0
29.0,-246.0,26.0,59.0,11.0,-11.0,0
30.0,-248.0,31.0,56.0,12.0,-12.0,0
27.0,-247.0,28.0,53.0,12.0,-10.0,0
27.0,-245.0,30.0,52.0,11.0,-9.0,0
26.0,-243.0,30.0,49.0,12.0,-10.0,0
28.0,-243.0,29.0,48.0,12.0,-9.0,0
24.0,-247.0,30.0,49.0,13.0,-9.0,0
26.0,-248.0,25.0,52.0,12.0,-10.0,0
14.0,-245.0,31.0,54.0,13.0,-11.0,0
28.0,-245.0,28.0,58.0,15.0,-13.0,0
27.0,-244.0,32.0,59.0,16.0,-12.0,0
25.0,-244.0,24.0,59.0,17.0,-13.0,0
23.0,-243.0,31.0,58.0,17.0,-14.0,0
29.0,-247.0,26.0,55.0,17.0,-13.0,0
25.0,-248.0,28.0,52.0,17.0,-14.0,0
28.0,-251.0,23.0,50.0,17.0,-14.0,0
29.0,-244.0,32.0,47.0,16.0,-12.0,0
30.0,-248.0,31.0,48.0,15.0,-10.0,0
26.0,-247.0,27.0,48.0,14.0,-11.0,0
24.0,-244.0,28.0,51.0,15.0,-9.0,0
31.0,-247.0,34.0,54.0,14.0,-10.0,0
29.0,-246.0,35.0,58.0,14.0,-9.0,0
30.0,-248.0,28.0,62.0,15.0,-10.0,0
29.0,-244.0,29.0,68.0,17.0,-13.0,0
29.0,-244.0,28.0,68.0,18.0,-12.0,0
29.0,-246.0,31.0,65.0,16.0,-13.0,0
28.0,-247.0,27.0,62.0,15.0,-12.0,0
28.0,-243.0,28.0,58.0,14.0,-11.0,0
30.0,-245.0,29.0,53.0,12.0,-12.0,0
29.0,-246.0,28.0,48.0,11.0,-12.0,0
24.0,-248.0,26.0,43.0,7.0,-14.0,0
28.0,-247.0,29.0,38.0,7.0,-11.0,0
29.0,-245.0,27.0,36.0,6.0,-12.0,0
26.0,-247.0,29.0,35.0,6.0,-10.0,0
29.0,-248.0,28.0,33.0,6.0,-9.0,0
27.0,-246.0,30.0,34.0,6.0,-10.0,0
25.0,-248.0,29.0,37.0,8.0,-10.0,0
27.0,-244.0,32.0,42.0,7.0,-10.0,0
25.0,-249.0,34.0,48.0,9.0,-10.0,0
26.0,-248.0,31.0,56.0,11.0,-11.0,0
26.0,-247.0,35.0,62.0,16.0,-12.0,0
29.0,-243.0,29.0,71.0,17.0,-12.0,0
26.0,-246.0,29.0,76.0,22.0,-12.0,0
31.0,-248.0,29.0,79.0,23.0,-15.0,0
29.0,-244.0,31.0,80.0,24.0,-16.0,0
28.0,-244.0,25.0,79.0,24.0,-15.0,0
33.0,-245.0,31.0,75.0,24.0,-14.0,0
27.0,-244.0,26.0,70.0,22.0,-13.0,0
29.0,-242.0,28.0,67.0,20.0,-13.0,0
29.0,-243.0,30.0,61.0,17.0,-13.0,0
28.0,-246.0,28.0,59.0,15.0,-10.0,0
29.0,-248.0,31.0,56.0,13.0,-11.0,0
29.0,-247.0,35.0,56.0,12.0,-10.0,0
28.0,-248.0,30.0,58.0,9.0,-10.0,0
28.0,-247.0,26.0,58.0,5.0,-8.0,0
28.0,-249.0,27.0,60.0,5.0,-8.0,0
27.0,-244.0,28.0,61.0,5.0,-7.0,0
24.0,-244.0,29.0,62.0,5.0,-7.0,0
28.0,-246.0,30.0,63.0,4.0,-9.0,0
28.0,-248.0,33.0,64.0,5.0,-10.0,0
25.0,-245.0,28.0,64.0,8.0,-10.0,0
28.0,-246.0,28.0,66.0,9.0,-10.0,0
25.0,-245.0,28.0,66.0,11.0,-8.0,0
30.0,-246.0,31.0,66.0,14.0,-9.0,0
26.0,-244.0,29.0,66.0,16.0,-12.0,0
26.0,-246.0,29.0,66.0,16.0,-13.0,0
26.0,-244.0,28.0,66.0,17.0,-13.0,0
28.0,-249.0,27.0,68.0,17.0,-12.0,0
26.0,-246.0,34.0,70.0,17.0,-11.0,0
27.0,-244.0,31.0,72.0,16.0,-13.0,0
28.0,-246.0,32.0,73.0,17.0,-11.0,0
28.0,-244.0,31.0,75.0,16.0,-9.0,0
29.0,-250.0,29.0,75.0,14.0,-12.0,0
30.0,-246.0,31.0,76.0,15.0,-11.0,0
28.0,-249.0,32.0,77.0,13.0,-11.0,0
27.0,-244.0,29.0,78.0,12.0,-12.0,0
27.0,-244.0,29.0,78.0,11.0,-12.0,0
28.0,-246.0,32.0,80.0,11.0,-11.0,0
27.0,-246.0,26.0,80.0,11.0,-11.0,0
27.0,-241.0,29.0,80.0,12.0,-12.0,0
29.0,-243.0,29.0,78.0,12.0,-11.0,0
28.0,-244.0,29.0,77.0,13.0,-12.0,0
29.0,-245.0,28.0,77.0,12.0,-12.0,0
28.0,-244.0,28.0,74.0,14.0,-12.0,0
28.0,-245.0,31.0,73.0,13.0,-13.0,0
27.0,-244.0,30.0,73.0,13.0,-12.0,0
30.0,-247.0,30.0,70.0,12.0,-12.0,0
24.0,-248.0,29.0,70.0,10.0,-11.0,0
26.0,-246.0,29.0,67.0,10.0,-12.0,0
27.0,-249.0,27.0,65.0,9.0,-9.0,0
28.0,-246.0,25.0,63.0,8.0,-11.0,0
30.0,-248.0,27.0,62.0,6.0,-10.0,0
30.0,-252.0,27.0,61.0,6.0,-9.0,0
31.0,-250.0,45.0,62.0,6.0,-10.0,0
18.0,-244.0,27.0,64.0,6.0,-11.0,0
28.0,-247.0,27.0,68.0,7.0,-9.0,0
26.0,-248.0,32.0,74.0,8.0,-11.0,0
27.0,-248.0,28.0,79.0,11.0,-11.0,0
24.0,-242.0,29.0,87.0,12.0,-10.0,0
27.0,-248.0,29.0,92.0,14.0,-12.0,0
28.0,-248.0,28.0,96.0,14.0,-12.0,0
26.0,-244.0,32.0,99.0,17.0,-9.0,0
26.0,-245.0,33.0,100.0,18.0,-11.0,0
29.0,-244.0,28.0,100.0,20.0,-12.0,0
28.0,-245.0,31.0,97.0,19.0,-11.0,0
26.0,-245.0,32.0,94.0,19.0,-10.0,0
28.0,-244.0,28.0,92.0,20.0,-11.0,0
27.0,-246.0,27.0,90.0,18.0,-9.0,0
25.0,-245.0,29.0,86.0,17.0,-10.0,0
30.0,-244.0,32.0,83.0,15.0,-9.0,0
25.0,-243.0,32.0,81.0,14.0,-12.0,0
25.0,-246.0,28.0,80.0,13.0,-9.0,0
25.0,-247.0,30.0,80.0,12.0,-11.0,0
27.0,-245.0,33.0,82.0,12.0,-10.0,0
24.0,-250.0,38.0,83.0,11.0,-9.0,0
21.0,-228.0,29.0,85.0,11.0,-9.0,0
27.0,-247.0,33.0,88.0,9.0,-9.0,0
30.0,-247.0,32.0,90.0,8.0,-10.0,0
26.0,-247.0,29.0,93.0,7.0,-8.0,0
28.0,-250.0,29.0,96.0,8.0,-9.0,0
26.0,-248.0,29.0,95.0,8.0,-8.0,0
29.0,-248.0,27.0,95.0,6.0,-8.0,0
24.0,-252.0,28.0,95.0,5.0,-9.0,0
28.0,-251.0,26.0,92.0,4.0,-10.0,0
27.0,-251.0,23.0,92.0,4.0,-11.0,0
26.0,-254.0,25.0,90.0,3.0,-8.0,0
26.0,-252.0,24.0,88.0,4.0,-7.0,0
29.0,-256.0,23.0,83.0,5.0,-5.0,0
27.0,-254.0,23.0,76.0,8.0,-6.0,0
27.0,-257.0,18.0,63.0,11.0,-3.0,0
30.0,-260.0,9.0,49.0,15.0,2.0,0
30.0,-263.0,9.0,30.0,18.0,6.0,0
30.0,-263.0,7.0,14.0,22.0,12.0,0
26.0,-266.0,4.0,-2.0,24.0,16.0,0
28.0,-269.0,1.0,-17.0,27.0,19.0,0
26.0,-266.0,0.0,-28.0,29.0,24.0,0
20.0,-265.0,-2.0,-38.0,25.0,29.0,0
27.0,-265.0,-3.0,-42.0,21.0,33.0,0
27.0,-262.0,-1.0,-45.0,15.0,39.0,0
25.0,-257.0,-3.0,-46.0,4.0,46.0,0
22.0,-255.0,-10.0,-46.0,-6.0,53.0,0
22.0,-248.0,-6.0,-48.0,-19.0,59.0,0
21.0,-245.0,-4.0,-55.0,-32.0,66.0,0
20.0,-240.0,-2.0,-66.0,-43.0,70.0,0
16.0,-237.0,-4.0,-81.0,-54.0,74.0,0
17.0,-236.0,-2.0,-99.0,-59.0,76.0,0
19.0,-238.0,0.0,-121.0,-62.0,81.0,0
16.0,-234.0,-2.0,-141.0,-63.0,81.0,0
18.0,-233.0,-8.0,-157.0,-64.0,82.0,0
14.0,-235.0,-8.0,-167.0,-65.0,87.0,0
15.0,-229.0,-4.0,-174.0,-66.0,87.0,0
13.0,-229.0,-3.0,-176.0,-72.0,87.0,0
13.0,-229.0,-3.0,-174.0,-82.0,92.0,0
12.0,-227.0,-6.0,-172.0,-94.0,93.0,0
10.0,-227.0,-9.0,-168.0,-111.0,97.0,0
12.0,-225.0,-11.0,-170.0,-127.0,100.0,0
14.0,-225.0,-10.0,-175.0,-147.0,102.0,0
14.0,-225.0,-12.0,-184.0,-167.0,101.0,0
14.0,-219.0,-15.0,-198.0,-187.0,101.0,0
15.0,-222.0,-16.0,-221.0,-204.0,100.0,0
12.0,-217.0,-15.0,-245.0,-220.0,99.0,0
11.0,-215.0,-16.0,-274.0,-232.0,98.0,0
13.0,-215.0,-17.0,-305.0,-241.0,94.0,0
16.0,-213.0,-24.0,-335.0,-248.0,91.0,0
16.0,-217.0,-20.0,-366.0,-255.0,87.0,0
17.0,-211.0,-26.0,-393.0,-263.0,84.0,0
19.0,-209.0,-24.0,-421.0,-269.0,78.0,0
18.0,-214.0,-32.0,-449.0,-273.0,71.0,0
15.0,-211.0,-34.0,-476.0,-278.0,65.0,0
18.0,-208.0,-42.0,-504.0,-283.0,60.0,0
18.0,-212.0,-45.0,-534.0,-289.0,56.0,0
20.0,-207.0,-45.0,-562.0,-293.0,51.0,0
18.0,-206.0,-52.0,-594.0,-294.0,46.0,0
20.0,-205.0,-53.0,-625.0,-295.0,42.0,0
20.0,-200.0,-62.0,-660.0,-294.0,39.0,0
21.0,-200.0,-64.0,-695.0,-291.0,38.0,0
19.0,-196.0,-66.0,-737.0,-288.0,37.0,0
21.0,-193.0,-68.0,-782.0,-283.0,37.0,0
23.0,-189.0,-73.0,-834.0,-276.0,39.0,0
25.0,-185.0,-72.0,-894.0,-269.0,40.0,0
21.0,-180.0,-72.0,-960.0,-260.0,45.0,0
24.0,-175.0,-73.0,-1031.0,-253.0,52.0,0
24.0,-175.0,-69.0,-1104.0,-249.0,60.0,0
25.0,-169.0,-65.0,-1180.0,-243.0,70.0,0
26.0,-165.0,-62.0,-1253.0,-243.0,81.0,0
26.0,-162.0,-52.0,-1318.0,-242.0,96.0,0
28.0,-161.0,-50.0,-1371.0,-244.0,112.0,0
28.0,-154.0,-43.0,-1410.0,-247.0,126.0,0
31.0,-157.0,-38.0,-1436.0,-250.0,139.0,0
32.0,-153.0,-36.0,-1446.0,-249.0,149.0,0
34.0,-150.0,-27.0,-1444.0,-246.0,155.0,0
38.0,-148.0,-25.0,-1430.0,-239.0,154.0,0
41.0,-145.0,-22.0,-1409.0,-224.0,145.0,0
39.0,-143.0,-23.0,-1383.0,-199.0,125.0,0
41.0,-143.0,-19.0,-1351.0,-167.0,97.0,0
34.0,-140.0,-21.0,-1316.0,-130.0,59.0,0
37.0,-140.0,-22.0,-1277.0,-90.0,17.0,0
37.0,-141.0,-24.0,-1235.0,-45.0,-28.0,0
38.0,-139.0,-24.0,-1193.0,2.0,-71.0,0
34.0,-143.0,-29.0,-1153.0,48.0,-118.0,0
40.0,-149.0,-32.0,-1123.0,93.0,-163.0,0
39.0,-147.0,-43.0,-1108.0,139.0,-206.0,0
39.0,-153.0,-43.0,-1114.0,180.0,-240.0,0
39.0,-160.0,-56.0,-1137.0,216.0,-267.0,0
38.0,-168.0,-60.0,-1175.0,242.0,-291.0,0
39.0,-178.0,-70.0,-1222.0,259.0,-307.0,0
41.0,-189.0,-74.0,-1273.0,263.0,-317.0,0
33.0,-192.0,-81.0,-1322.0,262.0,-319.0,0
35.0,-206.0,-88.0,-1363.0,254.0,-314.0,0
35.0,-214.0,-97.0,-1395.0,241.0,-300.0,0
37.0,-225.0,-101.0,-1413.0,228.0,-279.0,0
49.0,-213.0,-87.0,-1417.0,220.0,-254.0,0
34.0,-235.0,-90.0,-1411.0,217.0,-218.0,0
33.0,-239.0,-85.0,-1395.0,224.0,-178.0,0
29.0,-239.0,-74.0,-1370.0,236.0,-129.0,0
28.0,-244.0,-67.0,-1338.0,251.0,-76.0,0
18.0,-236.0,-63.0,-1301.0,263.0,-18.0,0
14.0,-234.0,-59.0,-1267.0,268.0,42.0,0
16.0,-227.0,-53.0,-1221.0,263.0,101.0,0
10.0,-217.0,-47.0,-1170.0,247.0,160.0,0
10.0,-212.0,-43.0,-1114.0,221.0,208.0,0
6.0,-201.0,-40.0,-1059.0,190.0,248.0,0
8.0,-195.0,-38.0,-1007.0,160.0,272.0,0
4.0,-196.0,-35.0,-967.0,129.0,283.0,0
5.0,-188.0,-45.0,-942.0,98.0,282.0,0
8.0,-189.0,-47.0,-936.0,69.0,267.0,0
6.0,-186.0,-55.0,-943.0,46.0,245.0,0
13.0,-187.0,-56.0,-968.0,15.0,214.0,0
12.0,-190.0,-61.0,-999.0,-14.0,182.0,0
20.0,-193.0,-64.0,-1029.0,-38.0,146.0,0
24.0,-195.0,-67.0,-1052.0,-54.0,105.0,0
32.0,-204.0,-69.0,-1068.0,-63.0,57.0,0
29.0,-210.0,-75.0,-1086.0,-58.0,13.0,0
32.0,-212.0,-78.0,-1099.0,-42.0,-28.0,0
32.0,-221.0,-80.0,-1111.0,-19.0,-66.0,0
33.0,-227.0,-82.0,-1119.0,11.0,-97.0,0
30.0,-229.0,-80.0,-1110.0,47.0,-110.0,0
26.0,-235.0,-87.0,-1090.0,90.0,-114.0,0
23.0,-236.0,-86.0,-1080.0,130.0,-105.0,0
20.0,-242.0,-88.0,-1078.0,163.0,-82.0,0
21.0,-238.0,-89.0,-1081.0,190.0,-51.0,0
18.0,-241.0,-86.0,-1078.0,214.0,-19.0,0
14.0,-242.0,-97.0,-1074.0,230.0,16.0,0
14.0,-244.0,-98.0,-1099.0,238.0,40.0,0
10.0,-248.0,-99.0,-1151.0,231.0,74.0,0
3.0,-250.0,-99.0,-1197.0,216.0,110.0,0
7.0,-249.0,-102.0,-1232.0,201.0,143.0,0
3.0,-250.0,-102.0,-1267.0,178.0,172.0,0
7.0,-251.0,-103.0,-1296.0,153.0,187.0,0
7.0,-247.0,-110.0,-1317.0,128.0,190.0,0
1.0,-247.0,-112.0,-1340.0,99.0,194.0,0
0.0,-245.0,-116.0,-1376.0,65.0,201.0,0
3.0,-244.0,-120.0,-1411.0,33.0,209.0,0
9.0,-245.0,-126.0,-1427.0,11.0,204.0,0
3.0,-244.0,-133.0,-1435.0,-7.0,182.0,0
6.0,-242.0,-146.0,-1458.0,-23.0,171.0,0
6.0,-245.0,-152.0,-1494.0,-31.0,169.0,0
20.0,-245.0,-157.0,-1534.0,-33.0,171.0,0
15.0,-249.0,-164.0,-1562.0,-28.0,157.0,0
18.0,-253.0,-172.0,-1578.0,-26.0,141.0,0
24.0,-257.0,-172.0,-1578.0,-26.0,128.0,0
20.0,-257.0,-171.0,-1542.0,-19.0,115.0,0
17.0,-257.0,-180.0,-1474.0,-13.0,105.0,0
22.0,-259.0,-186.0,-1401.0,-11.0,95.0,0
17.0,-255.0,-202.0,-1347.0,-20.0,79.0,0
17.0,-264.0,-206.0,-1352.0,-36.0,71.0,0
23.0,-270.0,-201.0,-1388.0,-52.0,75.0,0
22.0,-282.0,-203.0,-1401.0,-57.0,84.0,0
16.0,-287.0,-194.0,-1378.0,-52.0,97.0,0
18.0,-295.0,-188.0,-1297.0,-33.0,108.0,0
23.0,-293.0,-186.0,-1156.0,-11.0,120.0,0
16.0,-295.0,-190.0,-971.0,9.0,127.0,0
16.0,-301.0,-190.0,-779.0,28.0,136.0,0
14.0,-298.0,-192.0,-603.0,35.0,147.0,0
12.0,-295.0,-198.0,-437.0,38.0,161.0,0
9.0,-287.0,-201.0,-274.0,35.0,176.0,0
4.0,-283.0,-205.0,-118.0,24.0,188.0,0
7.0,-280.0,-206.0,9.0,5.0,187.0,0
3.0,-280.0,-213.0,121.0,-13.0,190.0,0
4.0,-277.0,-215.0,227.0,-31.0,199.0,0
6.0,-276.0,-211.0,321.0,-47.0,206.0,0
11.0,-276.0,-209.0,419.0,-55.0,206.0,0
12.0,-273.0,-198.0,521.0,-58.0,200.0,0
12.0,-266.0,-205.0,624.0,-63.0,193.0,0
14.0,-262.0,-204.0,725.0,-65.0,180.0,0
16.0,-262.0,-201.0,823.0,-67.0,168.0,0
8.0,-257.0,-211.0,917.0,-65.0,155.0,0
14.0,-257.0,-205.0,997.0,-59.0,145.0,0
16.0,-254.0,-207.0,1051.0,-52.0,142.0,0
12.0,-253.0,-211.0,1068.0,-48.0,135.0,0
15.0,-258.0,-211.0,1060.0,-43.0,127.0,0
18.0,-260.0,-212.0,1050.0,-38.0,115.0,0
19.0,-271.0,-214.0,1057.0,-24.0,97.0,0
20.0,-272.0,-214.0,1074.0,-9.0,73.0,0
27.0,-281.0,-214.0,1120.0,11.0,48.0,0
24.0,-280.0,-219.0,1190.0,34.0,27.0,0
26.0,-282.0,-214.0,1277.0,61.0,11.0,0
23.0,-284.0,-205.0,1364.0,92.0,0.0,0
22.0,-281.0,-201.0,1457.0,120.0,-3.0,0
15.0,-280.0,-192.0,1552.0,144.0,-7.0,0
16.0,-276.0,-187.0,1646.0,159.0,-11.0,0
14.0,-272.0,-182.0,1721.0,163.0,-13.0,0
9.0,-271.0,-177.0,1771.0,160.0,-13.0,0
10.0,-264.0,-168.0,1792.0,152.0,-7.0,0
11.0,-265.0,-164.0,1784.0,144.0,-5.0,0
10.0,-265.0,-162.0,1763.0,136.0,-3.0,0
13.0,-259.0,-156.0,1728.0,124.0,1.0,0
8.0,-264.0,-150.0,1689.0,116.0,-4.0,0
13.0,-263.0,-135.0,1653.0,112.0,-10.0,0
16.0,-266.0,-127.0,1630.0,111.0,-18.0,0
14.0,-268.0,-114.0,1621.0,116.0,-27.0,0
13.0,-270.0,-94.0,1635.0,125.0,-37.0,0
17.0,-272.0,-87.0,1669.0,132.0,-43.0,0
12.0,-274.0,-73.0,1719.0,139.0,-48.0,0
16.0,-277.0,-66.0,1773.0,145.0,-48.0,0
20.0,-280.0,-60.0,1823.0,150.0,-44.0,0
22.0,-274.0,-55.0,1864.0,150.0,-37.0,0
20.0,-272.0,-49.0,1894.0,146.0,-29.0,0
22.0,-265.0,-45.0,1898.0,142.0,-27.0,0
21.0,-261.0,-46.0,1885.0,138.0,-25.0,0
22.0,-255.0,-41.0,1862.0,129.0,-22.0,0
20.0,-254.0,-43.0,1827.0,123.0,-19.0,0
23.0,-251.0,-36.0,1787.0,120.0,-20.0,0
22.0,-240.0,-31.0,1743.0,118.0,-22.0,0
22.0,-237.0,-34.0,1696.0,119.0,-26.0,0
24.0,-234.0,-30.0,1651.0,126.0,-32.0,0
23.0,-228.0,-29.0,1606.0,137.0,-37.0,0
22.0,-223.0,-30.0,1566.0,151.0,-41.0,0
26.0,-220.0,-26.0,1531.0,167.0,-41.0,0
25.0,-218.0,-27.0,1500.0,184.0,-42.0,0
22.0,-210.0,-25.0,1475.0,202.0,-42.0,0
24.0,-212.0,-21.0,1455.0,216.0,-42.0,0
21.0,-208.0,-23.0,1436.0,232.0,-44.0,0
24.0,-212.0,-20.0,1422.0,243.0,-43.0,0
26.0,-209.0,-27.0,1412.0,251.0,-40.0,0
25.0,-213.0,-21.0,1408.0,259.0,-36.0,0
24.0,-213.0,-23.0,1401.0,263.0,-34.0,0
21.0,-210.0,-26.0,1398.0,264.0,-29.0,0
22.0,-214.0,-25.0,1396.0,263.0,-28.0,0
27.0,-223.0,-12.0,1399.0,261.0,-25.0,0
23.0,-219.0,-26.0,1404.0,259.0,-28.0,0
20.0,-224.0,-29.0,1414.0,255.0,-31.0,0
24.0,-224.0,-25.0,1426.0,253.0,-29.0,0
21.0,-224.0,-28.0,1437.0,248.0,-32.0,0
22.0,-226.0,-31.0,1447.0,242.0,-34.0,0
21.0,-230.0,-25.0,1451.0,236.0,-39.0,0
21.0,-230.0,-22.0,1452.0,231.0,-45.0,0
21.0,-231.0,-22.0,1447.0,227.0,-52.0,0
19.0,-231.0,-20.0,1434.0,223.0,-59.0,0
21.0,-232.0,-21.0,1418.0,221.0,-62.0,0
21.0,-233.0,-16.0,1394.0,219.0,-66.0,0
29.0,-233.0,-10.0,1367.0,219.0,-67.0,0
22.0,-235.0,-12.0,1333.0,222.0,-67.0,0
21.0,-236.0,-6.0,1296.0,218.0,-71.0,0
22.0,-238.0,-9.0,1259.0,217.0,-72.0,0
23.0,-241.0,-8.0,1223.0,215.0,-74.0,0
25.0,-246.0,-4.0,1188.0,211.0,-76.0,0
29.0,-243.0,-6.0,1151.0,203.0,-80.0,0
25.0,-249.0,-1.0,1116.0,195.0,-86.0,0
27.0,-250.0,-2.0,1086.0,186.0,-87.0,0
22.0,-248.0,-1.0,1056.0,179.0,-88.0,0
28.0,-254.0,-5.0,1023.0,173.0,-89.0,0
31.0,-254.0,-1.0,995.0,169.0,-91.0,0
32.0,-255.0,-2.0,963.0,167.0,-95.0,0
32.0,-257.0,-3.0,938.0,166.0,-98.0,0
29.0,-258.0,1.0,922.0,166.0,-95.0,0
31.0,-260.0,3.0,912.0,169.0,-95.0,0
27.0,-258.0,3.0,908.0,175.0,-92.0,0
32.0,-259.0,4.0,905.0,179.0,-91.0,0
31.0,-258.0,10.0,895.0,180.0,-94.0,0
25.0,-254.0,9.0,883.0,183.0,-95.0,0
27.0,-254.0,11.0,864.0,186.0,-94.0,0
30.0,-257.0,11.0,842.0,184.0,-92.0,0
28.0,-250.0,10.0,817.0,183.0,-88.0,0
24.0,-248.0,14.0,791.0,183.0,-85.0,0
21.0,-243.0,17.0,769.0,185.0,-80.0,0
24.0,-242.0,18.0,748.0,184.0,-75.0,0
22.0,-238.0,16.0,723.0,183.0,-72.0,0
22.0,-237.0,20.0,694.0,178.0,-72.0,0
21.0,-235.0,27.0,662.0,171.0,-73.0,0
23.0,-234.0,29.0,635.0,161.0,-75.0,0
22.0,-233.0,29.0,613.0,153.0,-77.0,0
23.0,-233.0,37.0,597.0,145.0,-79.0,0
23.0,-232.0,32.0,589.0,143.0,-82.0,0
24.0,-229.0,31.0,578.0,138.0,-85.0,0
25.0,-230.0,30.0,563.0,132.0,-90.0,0
22.0,-227.0,27.0,545.0,126.0,-91.0,0
22.0,-221.0,26.0,526.0,119.0,-87.0,0
20.0,-226.0,29.0,500.0,109.0,-85.0,0
20.0,-227.0,29.0,478.0,101.0,-77.0,0
18.0,-227.0,29.0,465.0,96.0,-68.0,0
15.0,-228.0,26.0,458.0,90.0,-57.0,0
14.0,-232.0,28.0,455.0,84.0,-49.0,0
14.0,-231.0,25.0,459.0,70.0,-45.0,0
10.0,-231.0,25.0,460.0,54.0,-40.0,0
26.0,-234.0,25.0,459.0,38.0,-37.0,0
13.0,-237.0,24.0,458.0,23.0,-34.0,0
20.0,-243.0,36.0,459.0,13.0,-29.0,0
15.0,-239.0,30.0,462.0,3.0,-26.0,0
15.0,-246.0,31.0,477.0,-4.0,-22.0,0
17.0,-244.0,33.0,495.0,-10.0,-21.0,0
12.0,-243.0,29.0,509.0,-16.0,-19.0,0
17.0,-243.0,31.0,517.0,-19.0,-13.0,0
16.0,-242.0,27.0,520.0,-27.0,-11.0,0
18.0,-242.0,35.0,516.0,-32.0,-13.0,0
19.0,-242.0,37.0,501.0,-39.0,-13.0,0
18.0,-241.0,35.0,491.0,-45.0,-14.0,0
19.0,-238.0,34.0,481.0,-54.0,-18.0,0
22.0,-239.0,38.0,467.0,-63.0,-21.0,0
26.0,-239.0,39.0,448.0,-72.0,-22.0,0
23.0,-233.0,38.0,427.0,-83.0,-22.0,0
29.0,-236.0,36.0,406.0,-93.0,-22.0,0
23.0,-235.0,34.0,383.0,-102.0,-19.0,0
27.0,-234.0,39.0,363.0,-108.0,-17.0,0
26.0,-236.0,40.0,345.0,-112.0,-15.0,0
30.0,-235.0,37.0,326.0,-113.0,-12.0,0
26.0,-230.0,41.0,311.0,-107.0,-9.0,0
29.0,-235.0,42.0,293.0,-100.0,-8.0,0
25.0,-232.0,40.0,275.0,-94.0,-8.0,0
25.0,-234.0,39.0,256.0,-85.0,-7.0,0
31.0,-238.0,40.0,240.0,-76.0,-8.0,0
25.0,-239.0,36.0,221.0,-66.0,-8.0,0
29.0,-241.0,41.0,201.0,-58.0,-8.0,0
30.0,-239.0,38.0,183.0,-54.0,-7.0,0
29.0,-242.0,39.0,167.0,-48.0,-5.0,0
27.0,-239.0,44.0,151.0,-42.0,-5.0,0
28.0,-237.0,41.0,134.0,-36.0,-5.0,0
28.0,-239.0,40.0,118.0,-34.0,-4.0,0
28.0,-240.0,40.0,104.0,-32.0,-5.0,0
29.0,-237.0,42.0,95.0,-28.0,-3.0,0
29.0,-239.0,40.0,87.0,-24.0,-3.0,0
24.0,-242.0,44.0,82.0,-22.0,-3.0,0
29.0,-239.0,42.0,81.0,-18.0,-3.0,0
25.0,-235.0,45.0,79.0,-12.0,-6.0,0
31.0,-240.0,46.0,78.0,-6.0,-5.0,0
29.0,-242.0,47.0,78.0,-1.0,-7.0,0
31.0,-239.0,41.0,78.0,5.0,-6.0,0
33.0,-240.0,49.0,77.0,11.0,-9.0,0
28.0,-241.0,44.0,76.0,19.0,-10.0,0
29.0,-239.0,46.0,74.0,24.0,-11.0,0
26.0,-241.0,45.0,74.0,29.0,-12.0,0
28.0,-240.0,44.0,71.0,35.0,-11.0,0
30.0,-241.0,44.0,71.0,37.0,-11.0,0
28.0,-240.0,43.0,70.0,42.0,-11.0,0
28.0,-243.0,46.0,70.0,44.0,-9.0,0
27.0,-242.0,42.0,72.0,46.0,-8.0,0
28.0,-242.0,42.0,73.0,48.0,-7.0,0
34.0,-240.0,42.0,76.0,48.0,-7.0,0
23.0,-241.0,40.0,80.0,49.0,-5.0,0
26.0,-242.0,41.0,81.0,47.0,-6.0,0
28.0,-243.0,42.0,77.0,48.0,-5.0,0
28.0,-241.0,40.0,71.0,46.0,-6.0,0
26.0,-240.0,39.0,62.0,47.0,-5.0,0
25.0,-242.0,42.0,51.0,50.0,-7.0,0
26.0,-239.0,42.0,43.0,52.0,-8.0,0
25.0,-242.0,42.0,38.0,51.0,-6.0,0
26.0,-242.0,44.0,32.0,50.0,-5.0,0
26.0,-245.0,40.0,30.0,51.0,-8.0,0
24.0,-245.0,42.0,30.0,49.0,-6.0,0
24.0,-245.0,43.0,31.0,48.0,-6.0,0
27.0,-244.0,44.0,31.0,48.0,-7.0,0
26.0,-245.0,41.0,30.0,49.0,-8.0,0
27.0,-242.0,41.0,27.0,49.0,-9.0,0
24.0,-243.0,42.0,23.0,51.0,-9.0,0
23.0,-246.0,42.0,19.0,54.0,-10.0,0
27.0,-246.0,38.0,15.0,53.0,-11.0,0
26.0,-243.0,39.0,13.0,52.0,-14.0,0
23.0,-241.0,42.0,7.0,51.0,-14.0,0
25.0,-247.0,43.0,4.0,49.0,-13.0,0
22.0,-245.0,40.0,1.0,46.0,-14.0,0
27.0,-250.0,44.0,-1.0,44.0,-14.0,0
23.0,-247.0,41.0,1.0,42.0,-17.0,0
26.0,-248.0,41.0,1.0,39.0,-16.0,0
22.0,-242.0,43.0,6.0,38.0,-14.0,0
25.0,-245.0,37.0,11.0,36.0,-15.0,0
24.0,-245.0,39.0,17.0,35.0,-15.0,0
24.0,-245.0,38.0,25.0,33.0,-14.0,0
23.0,-244.0,36.0,33.0,31.0,-14.0,0
23.0,-245.0,35.0,39.0,30.0,-15.0,0
23.0,-247.0,42.0,47.0,28.0,-11.0,0
25.0,-248.0,39.0,49.0,26.0,-9.0,0
21.0,-246.0,36.0,48.0,24.0,-7.0,0
22.0,-243.0,34.0,46.0,21.0,-5.0,0
22.0,-247.0,36.0,41.0,17.0,-3.0,0
25.0,-243.0,32.0,35.0,16.0,-2.0,0
20.0,-244.0,33.0,29.0,15.0,-3.0,0
21.0,-242.0,41.0,27.0,13.0,-1.0,0
25.0,-244.0,36.0,27.0,10.0,1.0,0
23.0,-246.0,32.0,26.0,10.0,0.0,0
22.0,-247.0,38.0,26.0,7.0,-1.0,0
24.0,-245.0,35.0,28.0,7.0,-2.0,0
24.0,-246.0,35.0,27.0,7.0,-3.0,0
22.0,-243.0,39.0,29.0,8.0,-3.0,0
22.0,-244.0,34.0,30.0,6.0,-7.0,0
26.0,-244.0,37.0,29.0,7.0,-6.0,0
24.0,-246.0,38.0,30.0,6.0,-6.0,0
24.0,-242.0,35.0,26.0,5.0,-7.0,0
23.0,-248.0,34.0,25.0,4.0,-6.0,0
22.0,-245.0,39.0,23.0,2.0,-6.0,0
25.0,-246.0,32.0,22.0,3.0,-4.0,0
22.0,-243.0,40.0,22.0,1.0,-5.0,0
26.0,-244.0,35.0,23.0,3.0,-5.0,0
26.0,-244.0,34.0,24.0,0.0,-6.0,0
26.0,-244.0,36.0,27.0,0.0,-7.0,0
25.0,-243.0,37.0,30.0,-1.0,-10.0,0
22.0,-242.0,32.0,33.0,0.0,-11.0,0
24.0,-247.0,36.0,37.0,-1.0,-10.0,0
22.0,-246.0,35.0,40.0,0.0,-12.0,0
23.0,-247.0,36.0,44.0,0.0,-13.0,0
22.0,-244.0,35.0,45.0,1.0,-14.0,0
22.0,-246.0,35.0,46.0,2.0,-14.0,0
25.0,-247.0,37.0,46.0,5.0,-14.0,0
24.0,-246.0,39.0,42.0,7.0,-13.0,0
24.0,-247.0,38.0,37.0,8.0,-12.0,0
23.0,-247.0,38.0,34.0,9.0,-13.0,0
25.0,-246.0,35.0,29.0,9.0,-12.0,0
26.0,-245.0,37.0,27.0,9.0,-12.0,0
25.0,-248.0,36.0,26.0,6.0,-11.0,0
22.0,-244.0,37.0,27.0,2.0,-10.0,0
25.0,-247.0,36.0,30.0,0.0,-8.0,0
22.0,-247.0,39.0,33.0,-1.0,-8.0,0
26.0,-248.0,40.0,37.0,-2.0,-10.0,0
24.0,-247.0,37.0,42.0,-1.0,-9.0,0
24.0,-243.0,39.0,47.0,1.0,-11.0,0
25.0,-245.0,45.0,52.0,0.0,-9.0,0
26.0,-245.0,37.0,55.0,4.0,-12.0,0
23.0,-243.0,36.0,55.0,6.0,-11.0,0
23.0,-244.0,36.0,55.0,10.0,-13.0,0
21.0,-243.0,39.0,58.0,13.0,-13.0,0
25.0,-247.0,36.0,61.0,13.0,-14.0,0
23.0,-244.0,36.0,64.0,14.0,-14.0,0
22.0,-243.0,38.0,68.0,12.0,-14.0,0
26.0,-246.0,36.0,71.0,12.0,-15.0,0
25.0,-244.0,33.0,73.0,11.0,-15.0,0
23.0,-242.0,39.0,77.0,10.0,-14.0,0
24.0,-241.0,37.0,78.0,9.0,-16.0,0
23.0,-245.0,37.0,77.0,6.0,-14.0,0
24.0,-243.0,36.0,78.0,5.0,-16.0,0
27.0,-246.0,36.0,76.0,3.0,-16.0,0
24.0,-244.0,37.0,76.0,1.0,-16.0,0
24.0,-243.0,33.0,75.0,1.0,-17.0,0
26.0,-245.0,40.0,75.0,3.0,-20.0,0
25.0,-246.0,39.0,74.0,4.0,-20.0,0
25.0,-244.0,36.0,75.0,6.0,-21.0,0
36.0,-240.0,33.0,77.0,7.0,-21.0,0
27.0,-247.0,34.0,76.0,8.0,-20.0,0
26.0,-247.0,36.0,78.0,9.0,-21.0,0
23.0,-246.0,39.0,78.0,10.0,-21.0,0
24.0,-241.0,41.0,79.0,12.0,-22.0,0
26.0,-248.0,39.0,80.0,13.0,-23.0,0
24.0,-243.0,39.0,81.0,13.0,-21.0,0
27.0,-244.0,38.0,82.0,13.0,-20.0,0
28.0,-243.0,37.0,81.0,14.0,-20.0,0
27.0,-245.0,33.0,80.0,14.0,-18.0,0
27.0,-245.0,37.0,80.0,15.0,-16.0,0
25.0,-246.0,35.0,80.0,15.0,-17.0,0
25.0,-243.0,33.0,78.0,16.0,-14.0,0
26.0,-244.0,36.0,77.0,14.0,-14.0,0
26.0,-241.0,37.0,76.0,14.0,-15.0,0
22.0,-245.0,36.0,75.0,13.0,-14.0,0
26.0,-246.0,38.0,75.0,12.0,-15.0,0
26.0,-242.0,32.0,76.0,14.0,-16.0,0
28.0,-247.0,40.0,72.0,14.0,-18.0,0
26.0,-244.0,38.0,71.0,15.0,-19.0,0
26.0,-245.0,39.0,71.0,16.0,-18.0,0
31.0,-253.0,40.0,66.0,16.0,-20.0,0
26.0,-245.0,37.0,63.0,18.0,-21.0,0
24.0,-244.0,42.0,61.0,18.0,-22.0,0
22.0,-244.0,38.0,59.0,19.0,-21.0,0
25.0,-245.0,38.0,57.0,19.0,-22.0,0
25.0,-246.0,40.0,55.0,18.0,-21.0,0
24.0,-244.0,39.0,53.0,16.0,-23.0,0
26.0,-245.0,38.0,51.0,13.0,-22.0,0
23.0,-244.0,40.0,47.0,11.0,-23.0,0
24.0,-244.0,36.0,45.0,9.0,-23.0,0
25.0,-245.0,38.0,45.0,7.0,-21.0,0
25.0,-245.0,35.0,44.0,8.0,-21.0,0
24.0,-246.0,36.0,44.0,8.0,-22.0,0
26.0,-247.0,37.0,42.0,10.0,-22.0,0
25.0,-248.0,39.0,40.0,10.0,-21.0,0
23.0,-244.0,39.0,37.0,12.0,-22.0,0
24.0,-244.0,37.0,36.0,11.0,-17.0,0
24.0,-247.0,38.0,36.0,12.0,-17.0,0
25.0,-247.0,37.0,36.0,13.0,-17.0,0
25.0,-244.0,32.0,39.0,14.0,-16.0,0
24.0,-246.0,37.0,44.0,17.0,-16.0,0
27.0,-250.0,38.0,51.0,17.0,-17.0,0
25.0,-247.0,37.0,59.0,16.0,-17.0,0
28.0,-250.0,37.0,67.0,17.0,-17.0,0
24.0,-244.0,35.0,75.0,16.0,-20.0,0
23.0,-245.0,37.0,81.0,13.0,-17.0,0
24.0,-243.0,33.0,84.0,11.0,-16.0,0
24.0,-244.0,33.0,86.0,7.0,-17.0,0
23.0,-244.0,35.0,88.0,5.0,-16.0,0
25.0,-244.0,38.0,86.0,3.0,-13.0,0
25.0,-243.0,36.0,83.0,1.0,-13.0,0
24.0,-244.0,42.0,81.0,1.0,-15.0,0
25.0,-247.0,38.0,75.0,1.0,-16.0,0
25.0,-245.0,40.0,72.0,2.0,-17.0,0
24.0,-248.0,37.0,70.0,3.0,-17.0,0
26.0,-245.0,39.0,68.0,4.0,-18.0,0
25.0,-246.0,37.0,68.0,4.0,-19.0,0
25.0,-248.0,37.0,71.0,7.0,-20.0,0
25.0,-247.0,42.0,77.0,7.0,-19.0,0
27.0,-246.0,36.0,82.0,7.0,-18.0,0
25.0,-246.0,41.0,88.0,8.0,-18.0,0
22.0,-245.0,39.0,94.0,7.0,-19.0,0
26.0,-244.0,36.0,99.0,7.0,-20.0,0
24.0,-244.0,37.0,104.0,9.0,-18.0,0
27.0,-244.0,37.0,104.0,9.0,-18.0,0
25.0,-246.0,40.0,103.0,9.0,-19.0,0
24.0,-246.0,35.0,101.0,10.0,-20.0,0
25.0,-241.0,37.0,98.0,10.0,-19.0,0
22.0,-245.0,39.0,93.0,9.0,-17.0,0
24.0,-242.0,38.0,88.0,9.0,-18.0,0
28.0,-245.0,38.0,82.0,10.0,-17.0,0
25.0,-249.0,42.0,74.0,9.0,-18.0,0
25.0,-245.0,41.0,68.0,9.0,-18.0,0
26.0,-245.0,40.0,65.0,10.0,-16.0,0
27.0,-247.0,38.0,61.0,9.0,-17.0,0
25.0,-245.0,40.0,61.0,11.0,-17.0,0
26.0,-244.0,38.0,64.0,12.0,-17.0,0
27.0,-245.0,39.0,69.0,12.0,-17.0,0
27.0,-246.0,38.0,73.0,12.0,-17.0,0
26.0,-246.0,38.0,79.0,13.0,-13.0,0
26.0,-244.0,34.0,82.0,12.0,-15.0,0
23.0,-242.0,40.0,87.0,12.0,-14.0,0
28.0,-246.0,39.0,90.0,12.0,-14.0,0
25.0,-246.0,41.0,95.0,12.0,-14.0,0
25.0,-246.0,40.0,98.0,14.0,-11.0,0
29.0,-247.0,41.0,100.0,15.0,-12.0,0
25.0,-245.0,39.0,98.0,15.0,-11.0,0
25.0,-245.0,44.0,97.0,17.0,-10.0,0
25.0,-246.0,38.0,95.0,17.0,-9.0,0
29.0,-244.0,44.0,92.0,18.0,-9.0,0
29.0,-243.0,41.0,88.0,17.0,-8.0,0
27.0,-245.0,41.0,84.0,18.0,-7.0,0
27.0,-243.0,42.0,80.0,16.0,-7.0,0
27.0,-243.0,40.0,75.0,17.0,-8.0,0
27.0,-246.0,43.0,71.0,17.0,-8.0,0
25.0,-248.0,38.0,67.0,15.0,-6.0,0
26.0,-246.0,47.0,66.0,16.0,-5.0,0
25.0,-246.0,42.0,63.0,16.0,-3.0,0
25.0,-244.0,39.0,62.0,15.0,-3.0,0
27.0,-244.0,39.0,62.0,15.0,-3.0,0
25.0,-243.0,37.0,64.0,14.0,-3.0,0
27.0,-244.0,41.0,67.0,13.0,-4.0,0
27.0,-247.0,43.0,71.0,12.0,-5.0,0
26.0,-244.0,39.0,72.0,10.0,-4.0,0
24.0,-242.0,36.0,75.0,8.0,-3.0,0
25.0,-244.0,35.0,74.0,7.0,-3.0,0
29.0,-242.0,40.0,72.0,6.0,-5.0,0
28.0,-242.0,39.0,69.0,4.0,-6.0,0
26.0,-243.0,37.0,63.0,4.0,-7.0,0
24.0,-244.0,41.0,54.0,5.0,-8.0,0
19.0,-241.0,40.0,44.0,7.0,-11.0,0
25.0,-239.0,41.0,34.0,7.0,-12.0,0
24.0,-243.0,42.0,25.0,8.0,-14.0,0
26.0,-244.0,41.0,17.0,9.0,-15.0,0
24.0,-243.0,40.0,11.0,9.0,-15.0,0
28.0,-244.0,38.0,11.0,8.0,-14.0,0
26.0,-246.0,39.0,13.0,9.0,-14.0,0
28.0,-246.0,39.0,17.0,8.0,-14.0,0
28.0,-245.0,41.0,21.0,5.0,-12.0,0
24.0,-246.0,40.0,26.0,5.0,-13.0,0
26.0,-245.0,40.0,31.0,4.0,-15.0,0
25.0,-246.0,41.0,34.0,3.0,-14.0,0
25.0,-245.0,41.0,36.0,3.0,-13.0,0
27.0,-247.0,38.0,38.0,2.0,-11.0,0
27.0,-242.0,38.0,38.0,1.0,-10.0,0
25.0,-240.0,40.0,36.0,-1.0,-11.0,0
23.0,-244.0,38.0,34.0,1.0,-11.0,0
26.0,-242.0,41.0,31.0,1.0,-10.0,0
23.0,-243.0,42.0,27.0,1.0,-8.0,0
26.0,-244.0,41.0,22.0,1.0,-9.0,0
24.0,-244.0,38.0,21.0,0.0,-10.0,0
25.0,-245.0,40.0,18.0,1.0,-10.0,0
25.0,-241.0,35.0,17.0,0.0,-10.0,0
26.0,-242.0,40.0,18.0,0.0,-11.0,0
24.0,-244.0,38.0,20.0,-2.0,-10.0,0
24.0,-247.0,36.0,23.0,-1.0,-12.0,0
27.0,-246.0,39.0,28.0,-2.0,-11.0,0
23.0,-243.0,38.0,34.0,-2.0,-12.0,0
28.0,-243.0,31.0,39.0,-2.0,-10.0,0
28.0,-245.0,35.0,45.0,-3.0,-8.0,0
26.0,-243.0,40.0,50.0,-3.0,-9.0,0
28.0,-244.0,37.0,52.0,-2.0,-8.0,0
25.0,-247.0,33.0,52.0,-3.0,-9.0,0
27.0,-245.0,36.0,54.0,-3.0,-8.0,0
27.0,-245.0,36.0,52.0,-3.0,-8.0,0
28.0,-247.0,42.0,51.0,-4.0,-8.0,0
25.0,-247.0,36.0,51.0,-3.0,-9.0,0
25.0,-246.0,37.0,52.0,-4.0,-9.0,0
25.0,-246.0,37.0,54.0,-4.0,-10.0,0
23.0,-243.0,39.0,57.0,-6.0,-12.0,0
23.0,-244.0,41.0,60.0,-8.0,-11.0,0
26.0,-248.0,35.0,64.0,-8.0,-11.0,0
26.0,-246.0,40.0,68.0,-8.0,-11.0,0
25.0,-243.0,37.0,72.0,-8.0,-10.0,0
23.0,-243.0,40.0,74.0,-7.0,-11.0,0
24.0,-246.0,36.0,76.0,-7.0,-9.0,0
25.0,-245.0,40.0,78.0,-6.0,-10.0,0
26.0,-245.0,41.0,79.0,-4.0,-10.0,0
25.0,-244.0,40.0,79.0,-4.0,-9.0,0
26.0,-242.0,41.0,81.0,-3.0,-8.0,0
26.0,-239.0,39.0,81.0,-4.0,-8.0,0
26.0,-242.0,37.0,81.0,-6.0,-10.0,0
26.0,-245.0,42.0,83.0,-8.0,-13.0,0
26.0,-248.0,39.0,84.0,-8.0,-12.0,0
27.0,-247.0,41.0,85.0,-9.0,-13.0,0
23.0,-243.0,41.0,88.0,-7.0,-15.0,0
27.0,-246.0,38.0,93.0,-6.0,-17.0,0
26.0,-246.0,41.0,96.0,-6.0,-16.0,0
27.0,-245.0,38.0,98.0,-6.0,-18.0,0
23.0,-243.0,40.0,102.0,-5.0,-19.0,0
27.0,-246.0,38.0,104.0,-4.0,-20.0,0
27.0,-244.0,38.0,107.0,-2.0,-19.0,0
24.0,-245.0,41.0,109.0,-1.0,-18.0,0
26.0,-242.0,40.0,108.0,0.0,-20.0,0
25.0,-246.0,38.0,109.0,-1.0,-19.0,0
27.0,-244.0,40.0,108.0,-1.0,-20.0,0
27.0,-243.0,44.0,106.0,-1.0,-19.0,0
28.0,-245.0,44.0,105.0,-1.0,-17.0,0
25.0,-245.0,41.0,101.0,0.0,-16.0,0
25.0,-240.0,39.0,98.0,1.0,-16.0,0
24.0,-246.0,41.0,94.0,1.0,-16.0,0
26.0,-242.0,43.0,92.0,1.0,-13.0,0
24.0,-244.0,39.0,89.0,3.0,-14.0,0
26.0,-242.0,42.0,87.0,4.0,-13.0,0
25.0,-242.0,40.0,87.0,5.0,-13.0,0
27.0,-243.0,38.0,86.0,5.0,-13.0,0
26.0,-243.0,40.0,85.0,5.0,-12.0,0
27.0,-245.0,39.0,85.0,7.0,-13.0,0
26.0,-246.0,43.0,83.0,7.0,-12.0,0
26.0,-246.0,40.0,82.0,7.0,-11.0,0
23.0,-243.0,40.0,84.0,7.0,-11.0,0
27.0,-244.0,37.0,85.0,6.0,-10.0,0
26.0,-246.0,35.0,87.0,6.0,-8.0,0
29.0,-248.0,39.0,88.0,6.0,-7.0,0
28.0,-246.0,38.0,92.0,7.0,-9.0,0
24.0,-242.0,40.0,96.0,8.0,-11.0,0
25.0,-246.0,41.0,100.0,9.0,-11.0,0
27.0,-244.0,40.0,101.0,8.0,-13.0,0
26.0,-246.0,42.0,102.0,11.0,-13.0,0
25.0,-244.0,44.0,102.0,12.0,-14.0,0
23.0,-239.0,40.0,100.0,12.0,-15.0,0
25.0,-240.0,44.0,98.0,14.0,-14.0,0
25.0,-245.0,45.0,95.0,14.0,-14.0,0
26.0,-246.0,40.0,94.0,16.0,-15.0,0
30.0,-245.0,39.0,95.0,15.0,-14.0,0
28.0,-246.0,40.0,95.0,14.0,-11.0,0
26.0,-244.0,38.0,99.0,13.0,-11.0,0
23.0,-243.0,39.0,101.0,12.0,-10.0,0
27.0,-244.0,42.0,104.0,10.0,-9.0,0
27.0,-245.0,42.0,106.0,10.0,-9.0,0
25.0,-244.0,40.0,104.0,9.0,-9.0,0
25.0,-242.0,46.0,103.0,10.0,-11.0,0
26.0,-243.0,43.0,102.0,11.0,-13.0,0
26.0,-242.0,42.0,99.0,12.0,-11.0,0
24.0,-242.0,41.0,96.0,12.0,-13.0,0
28.0,-246.0,41.0,95.0,13.0,-14.0,0
25.0,-242.0,43.0,94.0,14.0,-15.0,0
26.0,-244.0,40.0,93.0,14.0,-15.0,0
26.0,-243.0,39.0,95.0,15.0,-16.0,0
26.0,-246.0,44.0,96.0,15.0,-16.0,0
23.0,-243.0,41.0,97.0,17.0,-16.0,0
28.0,-246.0,45.0,99.0,16.0,-16.0,0
27.0,-247.0,43.0,100.0,17.0,-15.0,0
23.0,-243.0,39.0,99.0,16.0,-16.0,0
27.0,-243.0,45.0,97.0,13.0,-17.0,0
25.0,-240.0,45.0,95.0,10.0,-16.0,0
24.0,-242.0,44.0,90.0,7.0,-17.0,0
27.0,-246.0,45.0,87.0,5.0,-17.0,0
23.0,-243.0,43.0,83.0,3.0,-18.0,0
26.0,-246.0,44.0,80.0,3.0,-17.0,0
27.0,-244.0,45.0,78.0,3.0,-18.0,0
27.0,-243.0,44.0,80.0,2.0,-19.0,0
27.0,-243.0,43.0,79.0,5.0,-19.0,0
26.0,-242.0,40.0,83.0,7.0,-19.0,0
28.0,-245.0,43.0,86.0,8.0,-20.0,0
27.0,-244.0,45.0,92.0,10.0,-19.0,0
26.0,-244.0,47.0,96.0,12.0,-21.0,0
26.0,-243.0,47.0,100.0,13.0,-20.0,0
25.0,-242.0,44.0,102.0,13.0,-23.0,0
25.0,-241.0,43.0,106.0,11.0,-21.0,0
26.0,-242.0,39.0,107.0,11.0,-22.0,0
27.0,-242.0,38.0,106.0,12.0,-22.0,0
26.0,-245.0,44.0,106.0,9.0,-22.0,0
28.0,-242.0,41.0,103.0,9.0,-21.0,0
27.0,-244.0,44.0,100.0,9.0,-20.0,0
27.0,-239.0,43.0,96.0,8.0,-19.0,0
27.0,-245.0,45.0,94.0,7.0,-19.0,0
29.0,-244.0,41.0,91.0,7.0,-17.0,0
23.0,-240.0,47.0,90.0,6.0,-17.0,0
29.0,-244.0,42.0,88.0,7.0,-16.0,0
28.0,-240.0,44.0,88.0,6.0,-15.0,0
24.0,-242.0,47.0,89.0,7.0,-16.0,0
28.0,-244.0,45.0,91.0,8.0,-16.0,0
26.0,-245.0,44.0,92.0,9.0,-16.0,0
26.0,-242.0,46.0,94.0,11.0,-16.0,0
26.0,-240.0,46.0,96.0,14.0,-19.0,0
32.0,-246.0,49.0,97.0,13.0,-18.0,0
25.0,-242.0,45.0,97.0,15.0,-17.0,0
26.0,-244.0,43.0,98.0,14.0,-20.0,0
25.0,-242.0,44.0,97.0,16.0,-20.0,0
26.0,-245.0,48.0,98.0,17.0,-20.0,0
28.0,-242.0,42.0,98.0,15.0,-18.0,0
29.0,-244.0,46.0,96.0,16.0,-19.0,0
30.0,-244.0,42.0,95.0,17.0,-17.0,0
25.0,-241.0,43.0,91.0,17.0,-16.0,0
29.0,-243.0,46.0,88.0,16.0,-16.0,0
29.0,-246.0,46.0,84.0,17.0,-13.0,0
28.0,-245.0,43.0,79.0,18.0,-12.0,0
27.0,-243.0,44.0,74.0,20.0,-14.0,0
27.0,-242.0,45.0,71.0,20.0,-11.0,0
27.0,-245.0,45.0,69.0,21.0,-12.0,0
26.0,-242.0,47.0,66.0,21.0,-12.0,0
28.0,-243.0,48.0,64.0,18.0,-13.0,0
26.0,-237.0,46.0,62.0,18.0,-14.0,0
27.0,-243.0,43.0,58.0,17.0,-15.0,0
26.0,-239.0,51.0,56.0,18.0,-15.0,0
26.0,-242.0,48.0,56.0,19.0,-15.0,0
27.0,-239.0,45.0,57.0,19.0,-15.0,0
24.0,-242.0,46.0,61.0,20.0,-15.0,0
26.0,-247.0,47.0,68.0,20.0,-13.0,0
27.0,-245.0,49.0,72.0,21.0,-10.0,0
26.0,-244.0,52.0,73.0,20.0,-7.0,0
26.0,-244.0,49.0,76.0,18.0,-1.0,0
24.0,-239.0,59.0,78.0,11.0,5.0,0
24.0,-240.0,53.0,72.0,3.0,13.0,0
26.0,-241.0,57.0,60.0,-5.0,20.0,0
23.0,-239.0,61.0,40.0,-11.0,25.0,0
25.0,-234.0,63.0,15.0,-14.0,31.0,0
21.0,-231.0,65.0,-16.0,-12.0,37.0,0
20.0,-232.0,64.0,-54.0,-9.0,39.0,0
25.0,-236.0,61.0,-94.0,-6.0,38.0,0
21.0,-237.0,57.0,-131.0,-5.0,34.0,0
35.0,-245.0,52.0,-176.0,-11.0,25.0,0
20.0,-242.0,45.0,-231.0,-16.0,-2.0,0
16.0,-246.0,45.0,-239.0,-1.0,-13.0,0
10.0,-252.0,36.0,-224.0,14.0,-18.0,0
6.0,-246.0,20.0,-203.0,18.0,-21.0,0
15.0,-245.0,33.0,-177.0,14.0,-21.0,0
8.0,-252.0,20.0,-149.0,8.0,-19.0,0
3.0,-252.0,34.0,-129.0,9.0,-11.0,0
17.0,-239.0,27.0,-114.0,5.0,-6.0,0
24.0,-237.0,3.0,-87.0,4.0,-4.0,0
10.0,-225.0,20.0,-71.0,-2.0,0.0,0
13.0,-225.0,37.0,-73.0,-12.0,4.0,0
27.0,-236.0,38.0,-77.0,-25.0,6.0,0
19.0,-234.0,26.0,-87.0,-38.0,13.0,0
40.0,-223.0,27.0,-107.0,-52.0,20.0,0
33.0,-225.0,48.0,-137.0,-62.0,26.0,0
31.0,-238.0,52.0,-174.0,-75.0,32.0,0
33.0,-229.0,41.0,-214.0,-87.0,35.0,0
35.0,-229.0,43.0,-249.0,-90.0,42.0,0
37.0,-234.0,45.0,-276.0,-92.0,49.0,0
31.0,-234.0,41.0,-297.0,-87.0,52.0,0
26.0,-231.0,47.0,-315.0,-81.0,54.0,0
32.0,-237.0,44.0,-334.0,-82.0,50.0,0
32.0,-238.0,45.0,-349.0,-80.0,45.0,0
30.0,-236.0,43.0,-360.0,-78.0,42.0,0
29.0,-236.0,41.0,-368.0,-76.0,37.0,0
33.0,-235.0,39.0,-376.0,-77.0,34.0,0
29.0,-235.0,44.0,-387.0,-73.0,32.0,0
26.0,-235.0,38.0,-399.0,-69.0,34.0,0
31.0,-232.0,36.0,-416.0,-68.0,33.0,0
30.0,-231.0,37.0,-434.0,-67.0,32.0,0
27.0,-232.0,42.0,-453.0,-70.0,32.0,0
28.0,-232.0,37.0,-474.0,-72.0,33.0,0
28.0,-227.0,35.0,-497.0,-72.0,33.0,0
28.0,-229.0,38.0,-520.0,-70.0,36.0,0
25.0,-226.0,42.0,-543.0,-69.0,40.0,0
25.0,-229.0,40.0,-570.0,-71.0,44.0,0
25.0,-225.0,36.0,-590.0,-73.0,53.0,0
26.0,-230.0,35.0,-609.0,-70.0,60.0,0
24.0,-229.0,36.0,-635.0,-69.0,62.0,0
23.0,-225.0,27.0,-663.0,-67.0,63.0,0
23.0,-228.0,28.0,-693.0,-64.0,65.0,0
21.0,-224.0,30.0,-717.0,-61.0,67.0,0
18.0,-226.0,28.0,-744.0,-60.0,69.0,0
22.0,-227.0,27.0,-770.0,-62.0,70.0,0
19.0,-228.0,26.0,-797.0,-62.0,72.0,0
22.0,-227.0,23.0,-830.0,-65.0,71.0,0
21.0,-223.0,19.0,-868.0,-68.0,72.0,0
18.0,-228.0,21.0,-909.0,-71.0,74.0,0
19.0,-226.0,21.0,-946.0,-74.0,74.0,0
21.0,-229.0,16.0,-991.0,-82.0,73.0,0
14.0,-227.0,19.0,-1033.0,-91.0,71.0,0
19.0,-231.0,18.0,-1064.0,-103.0,64.0,0
20.0,-229.0,13.0,-1095.0,-116.0,59.0,0
21.0,-229.0,12.0,-1124.0,-113.0,67.0,0
21.0,-232.0,13.0,-1160.0,-109.0,74.0,0
19.0,-233.0,7.0,-1192.0,-102.0,83.0,0
19.0,-236.0,8.0,-1222.0,-104.0,84.0,0
20.0,-236.0,7.0,-1253.0,-106.0,88.0,0
21.0,-238.0,3.0,-1279.0,-103.0,93.0,0
20.0,-239.0,6.0,-1306.0,-98.0,97.0,0
14.0,-242.0,-15.0,-1337.0,-97.0,102.0,0
19.0,-237.0,4.0,-1371.0,-95.0,105.0,0
26.0,-241.0,5.0,-1404.0,-91.0,103.0,0
20.0,-235.0,1.0,-1435.0,-88.0,98.0,0
23.0,-233.0,4.0,-1464.0,-87.0,97.0,0
23.0,-230.0,-2.0,-1497.0,-86.0,94.0,0
24.0,-232.0,0.0,-1535.0,-84.0,93.0,0
23.0,-229.0,1.0,-1574.0,-79.0,96.0,0
22.0,-231.0,0.0,-1611.0,-77.0,100.0,0
23.0,-231.0,-2.0,-1645.0,-70.0,98.0,0
24.0,-233.0,0.0,-1676.0,-65.0,96.0,0
22.0,-232.0,0.0,-1703.0,-58.0,94.0,0
25.0,-234.0,-1.0,-1726.0,-51.0,90.0,0
26.0,-240.0,-1.0,-1743.0,-43.0,88.0,0
29.0,-239.0,-2.0,-1757.0,-37.0,85.0,0
28.0,-243.0,0.0,-1766.0,-30.0,86.0,0
28.0,-243.0,2.0,-1775.0,-21.0,89.0,0
31.0,-249.0,1.0,-1791.0,-14.0,93.0,0
31.0,-252.0,1.0,-1810.0,-7.0,97.0,0
31.0,-251.0,1.0,-1832.0,-2.0,99.0,0
30.0,-250.0,3.0,-1857.0,-1.0,100.0,0
31.0,-252.0,-2.0,-1879.0,0.0,97.0,0
30.0,-258.0,-4.0,-1899.0,2.0,89.0,0
29.0,-257.0,-5.0,-1915.0,3.0,82.0,0
29.0,-258.0,-12.0,-1922.0,8.0,74.0,0
31.0,-260.0,-12.0,-1920.0,13.0,63.0,0
31.0,-258.0,-16.0,-1904.0,17.0,55.0,0
32.0,-259.0,-20.0,-1872.0,19.0,47.0,0
30.0,-256.0,-20.0,-1829.0,19.0,36.0,0
27.0,-254.0,-20.0,-1780.0,18.0,29.0,0
34.0,-255.0,-29.0,-1720.0,21.0,19.0,0
33.0,-254.0,-33.0,-1675.0,17.0,1.0,0
32.0,-253.0,-45.0,-1627.0,8.0,-16.0,0
31.0,-255.0,-51.0,-1584.0,-3.0,-36.0,0
22.0,-256.0,-62.0,-1546.0,-10.0,-57.0,0
15.0,-260.0,-75.0,-1521.0,-15.0,-74.0,0
9.0,-267.0,-92.0,-1526.0,-16.0,-88.0,0
6.0,-267.0,-109.0,-1563.0,-22.0,-102.0,0
5.0,-278.0,-130.0,-1635.0,-39.0,-120.0,0
0.0,-288.0,-147.0,-1747.0,-67.0,-138.0,0
-1.0,-306.0,-170.0,-1868.0,-96.0,-154.0,0
-4.0,-316.0,-182.0,-1970.0,-116.0,-169.0,0
-4.0,-322.0,-191.0,-2026.0,-137.0,-180.0,0
0.0,-331.0,-191.0,-2017.0,-155.0,-194.0,0
2.0,-341.0,-187.0,-1941.0,-166.0,-202.0,0
9.0,-347.0,-184.0,-1812.0,-169.0,-205.0,0
14.0,-357.0,-180.0,-1648.0,-163.0,-203.0,0
19.0,-367.0,-179.0,-1466.0,-149.0,-189.0,0
21.0,-365.0,-180.0,-1283.0,-130.0,-164.0,0
25.0,-365.0,-185.0,-1113.0,-111.0,-130.0,0
24.0,-353.0,-190.0,-958.0,-102.0,-94.0,0
29.0,-347.0,-195.0,-817.0,-98.0,-66.0,0
25.0,-342.0,-199.0,-695.0,-105.0,-52.0,0
27.0,-331.0,-195.0,-593.0,-124.0,-52.0,0
24.0,-322.0,-205.0,-515.0,-150.0,-54.0,0
24.0,-317.0,-205.0,-455.0,-180.0,-59.0,0
26.0,-307.0,-200.0,-407.0,-213.0,-71.0,0
29.0,-304.0,-201.0,-356.0,-241.0,-85.0,0
22.0,-297.0,-201.0,-295.0,-256.0,-97.0,0
19.0,-292.0,-208.0,-217.0,-252.0,-103.0,0
21.0,-293.0,-212.0,-120.0,-226.0,-104.0,0
21.0,-294.0,-211.0,-8.0,-176.0,-101.0,0
22.0,-296.0,-213.0,115.0,-106.0,-104.0,0
25.0,-299.0,-208.0,242.0,-26.0,-108.0,0
23.0,-307.0,-203.0,383.0,52.0,-110.0,0
25.0,-313.0,-199.0,534.0,117.0,-110.0,0
25.0,-318.0,-191.0,692.0,168.0,-104.0,0
33.0,-322.0,-185.0,844.0,196.0,-97.0,0
35.0,-323.0,-179.0,985.0,199.0,-97.0,0
32.0,-325.0,-173.0,1111.0,184.0,-105.0,0
32.0,-331.0,-167.0,1220.0,155.0,-107.0,0
28.0,-328.0,-165.0,1313.0,121.0,-101.0,0
31.0,-329.0,-162.0,1391.0,85.0,-90.0,0
30.0,-325.0,-158.0,1453.0,51.0,-73.0,0
32.0,-328.0,-159.0,1505.0,25.0,-46.0,0
31.0,-324.0,-156.0,1546.0,7.0,-17.0,0
31.0,-323.0,-151.0,1583.0,-1.0,11.0,0
29.0,-322.0,-147.0,1625.0,-2.0,38.0,0
28.0,-320.0,-146.0,1670.0,0.0,57.0,0
30.0,-318.0,-140.0,1729.0,15.0,70.0,0
30.0,-318.0,-131.0,1800.0,36.0,75.0,0
32.0,-316.0,-127.0,1882.0,70.0,75.0,0
29.0,-312.0,-128.0,1957.0,104.0,69.0,0
26.0,-307.0,-128.0,2013.0,138.0,59.0,0
30.0,-308.0,-119.0,2064.0,169.0,50.0,0
34.0,-308.0,-118.0,2112.0,191.0,36.0,0
22.0,-299.0,-115.0,2141.0,203.0,16.0,0
29.0,-297.0,-115.0,2162.0,214.0,-1.0,0
23.0,-288.0,-106.0,2158.0,214.0,-17.0,0
21.0,-279.0,-115.0,2153.0,218.0,-35.0,0
17.0,-272.0,-101.0,2133.0,227.0,-50.0,0
14.0,-262.0,-98.0,2117.0,239.0,-58.0,0
16.0,-260.0,-101.0,2093.0,248.0,-70.0,0
10.0,-256.0,-101.0,2063.0,248.0,-80.0,0
14.0,-249.0,-102.0,2014.0,246.0,-87.0,0
9.0,-244.0,-101.0,1948.0,241.0,-87.0,0
14.0,-234.0,-97.0,1861.0,230.0,-88.0,0
13.0,-226.0,-101.0,1773.0,220.0,-90.0,0
15.0,-221.0,-100.0,1678.0,213.0,-83.0,0
14.0,-214.0,-95.0,1584.0,209.0,-75.0,0
7.0,-210.0,-82.0,1499.0,207.0,-63.0,0
8.0,-204.0,-84.0,1444.0,211.0,-51.0,0
10.0,-201.0,-77.0,1414.0,213.0,-28.0,0
10.0,-203.0,-78.0,1385.0,211.0,1.0,0
10.0,-198.0,-70.0,1366.0,210.0,36.0,0
11.0,-196.0,-66.0,1352.0,204.0,64.0,0
11.0,-196.0,-63.0,1342.0,196.0,88.0,0
16.0,-195.0,-58.0,1343.0,189.0,108.0,0
19.0,-194.0,-54.0,1335.0,182.0,123.0,0
19.0,-192.0,-59.0,1344.0,181.0,126.0,0
20.0,-190.0,-51.0,1364.0,181.0,122.0,0
24.0,-193.0,-52.0,1393.0,182.0,108.0,0
20.0,-191.0,-53.0,1427.0,186.0,94.0,0
19.0,-190.0,-47.0,1436.0,184.0,82.0,0
20.0,-185.0,-55.0,1436.0,184.0,68.0,0
21.0,-182.0,-49.0,1428.0,183.0,52.0,0
17.0,-182.0,-52.0,1420.0,187.0,29.0,0
18.0,-170.0,-50.0,1396.0,186.0,12.0,0
19.0,-168.0,-50.0,1356.0,183.0,-7.0,0
18.0,-161.0,-47.0,1297.0,179.0,-25.0,0
19.0,-155.0,-41.0,1245.0,178.0,-42.0,0
16.0,-152.0,-37.0,1214.0,189.0,-51.0,0
14.0,-142.0,-34.0,1202.0,204.0,-55.0,0
13.0,-138.0,-28.0,1203.0,220.0,-60.0,0
14.0,-131.0,-31.0,1212.0,232.0,-61.0,0
17.0,-129.0,-33.0,1222.0,241.0,-60.0,0
16.0,-120.0,-25.0,1232.0,242.0,-56.0,0
16.0,-113.0,-26.0,1246.0,241.0,-54.0,0
36.0,-111.0,-17.0,1262.0,240.0,-54.0,0
15.0,-107.0,-30.0,1276.0,236.0,-50.0,0
15.0,-99.0,-27.0,1291.0,228.0,-43.0,0
15.0,-93.0,-26.0,1300.0,219.0,-32.0,0
18.0,-90.0,-20.0,1305.0,204.0,-21.0,0
17.0,-90.0,-24.0,1312.0,190.0,-19.0,0
15.0,-89.0,-24.0,1309.0,176.0,-23.0,0
11.0,-80.0,-22.0,1295.0,160.0,-24.0,0
14.0,-80.0,-27.0,1282.0,143.0,-28.0,0
14.0,-83.0,-23.0,1263.0,128.0,-31.0,0
13.0,-83.0,-28.0,1236.0,118.0,-38.0,0
14.0,-85.0,-22.0,1204.0,106.0,-46.0,0
11.0,-82.0,-19.0,1175.0,99.0,-56.0,0
14.0,-92.0,-24.0,1147.0,95.0,-72.0,0
10.0,-94.0,-22.0,1114.0,92.0,-86.0,0
9.0,-99.0,-22.0,1085.0,89.0,-104.0,0
7.0,-103.0,-22.0,1057.0,91.0,-120.0,0
14.0,-111.0,-20.0,1020.0,97.0,-139.0,0
12.0,-118.0,-16.0,987.0,95.0,-159.0,0
10.0,-126.0,-20.0,952.0,95.0,-177.0,0
10.0,-141.0,-16.0,916.0,94.0,-192.0,0
16.0,-148.0,-10.0,880.0,92.0,-205.0,0
11.0,-156.0,-13.0,850.0,85.0,-216.0,0
14.0,-168.0,-13.0,819.0,73.0,-220.0,0
13.0,-183.0,-15.0,790.0,56.0,-216.0,0
13.0,-192.0,-11.0,756.0,34.0,-206.0,0
12.0,-209.0,-13.0,721.0,14.0,-192.0,0
17.0,-218.0,-11.0,684.0,-6.0,-177.0,0
16.0,-230.0,-12.0,642.0,-20.0,-159.0,0
16.0,-243.0,-13.0,594.0,-33.0,-141.0,0
18.0,-255.0,-15.0,543.0,-41.0,-120.0,0
20.0,-269.0,-13.0,488.0,-42.0,-99.0,0
22.0,-280.0,-15.0,432.0,-43.0,-79.0,0
24.0,-290.0,-17.0,373.0,-38.0,-66.0,0
30.0,-307.0,-15.0,314.0,-29.0,-56.0,0
29.0,-312.0,-14.0,261.0,-16.0,-41.0,0
38.0,-324.0,-13.0,220.0,-3.0,-23.0,0
37.0,-326.0,-10.0,191.0,10.0,-11.0,0
42.0,-330.0,-5.0,181.0,21.0,-4.0,0
46.0,-327.0,-3.0,195.0,33.0,-6.0,0
48.0,-322.0,3.0,237.0,41.0,-11.0,0
51.0,-315.0,10.0,307.0,47.0,-16.0,0
50.0,-300.0,16.0,398.0,48.0,-14.0,0
46.0,-290.0,19.0,499.0,43.0,-9.0,0
47.0,-270.0,22.0,600.0,31.0,1.0,0
46.0,-257.0,20.0,686.0,18.0,17.0,0
42.0,-235.0,18.0,745.0,-1.0,33.0,0
44.0,-228.0,22.0,771.0,-20.0,49.0,0
40.0,-209.0,18.0,767.0,-36.0,64.0,0
38.0,-196.0,18.0,731.0,-48.0,79.0,0
37.0,-185.0,22.0,666.0,-61.0,91.0,0
32.0,-179.0,22.0,578.0,-72.0,96.0,0
28.0,-172.0,28.0,475.0,-85.0,95.0,0
29.0,-170.0,29.0,360.0,-96.0,93.0,0
27.0,-173.0,32.0,244.0,-106.0,88.0,0
27.0,-177.0,39.0,136.0,-117.0,79.0,0
28.0,-181.0,40.0,43.0,-125.0,66.0,0
27.0,-185.0,36.0,-39.0,-128.0,47.0,0
26.0,-194.0,41.0,-107.0,-121.0,21.0,0
29.0,-208.0,37.0,-163.0,-110.0,-6.0,0
30.0,-214.0,37.0,-206.0,-95.0,-32.0,0
30.0,-226.0,39.0,-236.0,-75.0,-62.0,0
31.0,-230.0,38.0,-251.0,-55.0,-89.0,0
34.0,-243.0,34.0,-253.0,-30.0,-116.0,0
34.0,-248.0,36.0,-247.0,-6.0,-141.0,0
33.0,-255.0,35.0,-237.0,20.0,-163.0,0
30.0,-258.0,31.0,-224.0,46.0,-181.0,0
27.0,-265.0,39.0,-209.0,69.0,-189.0,0
29.0,-266.0,35.0,-191.0,89.0,-192.0,0
27.0,-271.0,36.0,-170.0,101.0,-186.0,0
23.0,-270.0,39.0,-149.0,106.0,-173.0,0
25.0,-272.0,35.0,-124.0,100.0,-155.0,0
26.0,-273.0,38.0,-99.0,86.0,-137.0,0
24.0,-269.0,42.0,-73.0,68.0,-118.0,0
24.0,-265.0,40.0,-46.0,48.0,-98.0,0
24.0,-263.0,39.0,-19.0,27.0,-82.0,0
22.0,-259.0,39.0,5.0,7.0,-65.0,0
23.0,-257.0,42.0,24.0,-9.0,-52.0,0
19.0,-252.0,42.0,37.0,-26.0,-38.0,0
18.0,-250.0,41.0,43.0,-41.0,-31.0,0
20.0,-249.0,38.0,45.0,-53.0,-26.0,0
17.0,-242.0,40.0,43.0,-60.0,-23.0,0
14.0,-239.0,40.0,40.0,-66.0,-20.0,0
13.0,-240.0,41.0,36.0,-68.0,-17.0,0
16.0,-235.0,65.0,32.0,-67.0,-15.0,0
11.0,-242.0,48.0,26.0,-64.0,-14.0,0
26.0,-226.0,55.0,17.0,-60.0,-11.0,0
21.0,-244.0,35.0,9.0,-58.0,-5.0,0
17.0,-262.0,51.0,-3.0,-54.0,5.0,0
26.0,-237.0,48.0,-14.0,-52.0,18.0,0
2.0,-252.0,53.0,-21.0,-52.0,32.0,0
15.0,-238.0,37.0,-29.0,-53.0,47.0,0
22.0,-247.0,47.0,-34.0,-55.0,64.0,0
22.0,-254.0,41.0,-38.0,-58.0,78.0,0
26.0,-246.0,44.0,-38.0,-64.0,90.0,0
33.0,-276.0,38.0,-36.0,-68.0,105.0,0
31.0,-255.0,39.0,-32.0,-73.0,116.0,0
38.0,-238.0,22.0,-26.0,-77.0,123.0,0
28.0,-251.0,49.0,-19.0,-79.0,125.0,0
18.0,-243.0,32.0,-11.0,-79.0,126.0,0
31.0,-243.0,56.0,-2.0,-78.0,121.0,0
35.0,-244.0,28.0,5.0,-73.0,116.0,0
25.0,-260.0,55.0,17.0,-66.0,107.0,0
28.0,-262.0,46.0,29.0,-55.0,94.0,0
26.0,-262.0,47.0,43.0,-42.0,79.0,0
38.0,-256.0,36.0,52.0,-26.0,62.0,0
36.0,-251.0,54.0,60.0,-11.0,46.0,0
37.0,-258.0,45.0,67.0,3.0,30.0,0
19.0,-238.0,58.0,75.0,17.0,15.0,0
35.0,-245.0,47.0,81.0,27.0,0.0,0
35.0,-231.0,49.0,84.0,34.0,-13.0,0
40.0,-241.0,58.0,85.0,40.0,-23.0,0
25.0,-234.0,37.0,85.0,44.0,-30.0,0
35.0,-236.0,46.0,79.0,48.0,-32.0,0
38.0,-236.0,56.0,69.0,53.0,-33.0,0
23.0,-236.0,43.0,57.0,57.0,-33.0,0
36.0,-239.0,53.0,45.0,63.0,-33.0,0
19.0,-239.0,56.0,39.0,67.0,-29.0,0
26.0,-237.0,41.0,34.0,69.0,-27.0,0
25.0,-238.0,51.0,32.0,70.0,-23.0,0
23.0,-238.0,49.0,37.0,71.0,-20.0,0
23.0,-241.0,48.0,39.0,71.0,-14.0,0
19.0,-239.0,48.0,43.0,69.0,-8.0,0
19.0,-243.0,49.0,47.0,66.0,-6.0,0
19.0,-244.0,48.0,49.0,60.0,-1.0,0
17.0,-244.0,47.0,49.0,56.0,2.0,0
35.0,-246.0,61.0,50.0,47.0,7.0,0
18.0,-245.0,44.0,53.0,37.0,11.0,0
19.0,-244.0,43.0,58.0,25.0,15.0,0
22.0,-246.0,47.0,64.0,14.0,18.0,0
19.0,-243.0,45.0,72.0,6.0,19.0,0
17.0,-244.0,46.0,84.0,-1.0,23.0,0
21.0,-244.0,44.0,97.0,-5.0,22.0,0
24.0,-240.0,43.0,107.0,-8.0,25.0,0
25.0,-242.0,39.0,115.0,-10.0,26.0,0
24.0,-241.0,42.0,118.0,-12.0,29.0,0
15.0,-241.0,38.0,115.0,-14.0,30.0,0
27.0,-239.0,39.0,108.0,-13.0,30.0,0
29.0,-237.0,38.0,97.0,-10.0,29.0,0
28.0,-236.0,35.0,80.0,-4.0,26.0,0
32.0,-240.0,40.0,59.0,6.0,22.0,0
32.0,-240.0,31.0,36.0,17.0,19.0,0
31.0,-239.0,36.0,11.0,25.0,17.0,0
31.0,-243.0,36.0,-12.0,33.0,13.0,0
31.0,-243.0,37.0,-34.0,38.0,8.0,0
32.0,-247.0,36.0,-52.0,41.0,6.0,0
29.0,-245.0,39.0,-66.0,44.0,1.0,0
35.0,-249.0,36.0,-76.0,44.0,-1.0,0
31.0,-248.0,37.0,-80.0,46.0,-4.0,0
37.0,-250.0,32.0,-79.0,45.0,-7.0,0
33.0,-250.0,32.0,-74.0,41.0,-9.0,0
33.0,-251.0,31.0,-65.0,39.0,-10.0,0
32.0,-248.0,34.0,-52.0,31.0,-12.0,0
32.0,-246.0,34.0,-43.0,22.0,-15.0,0
31.0,-245.0,33.0,-29.0,14.0,-16.0,0
33.0,-245.0,30.0,-15.0,7.0,-17.0,0
32.0,-245.0,32.0,0.0,2.0,-17.0,0
31.0,-242.0,31.0,12.0,-3.0,-17.0,0
31.0,-239.0,29.0,22.0,-7.0,-18.0,0
31.0,-241.0,35.0,27.0,-10.0,-18.0,0
28.0,-238.0,38.0,31.0,-13.0,-16.0,0
27.0,-240.0,34.0,29.0,-14.0,-13.0,0
28.0,-239.0,35.0,26.0,-16.0,-11.0,0
24.0,-239.0,33.0,19.0,-17.0,-9.0,0
25.0,-241.0,36.0,14.0,-16.0,-4.0,0
26.0,-243.0,35.0,7.0,-16.0,-1.0,0
28.0,-241.0,33.0,2.0,-17.0,0.0,0
25.0,-245.0,38.0,-4.0,-14.0,2.0,0
27.0,-246.0,35.0,-9.0,-11.0,3.0,0
28.0,-243.0,34.0,-12.0,-7.0,3.0,0
23.0,-246.0,37.0,-12.0,-6.0,3.0,0
31.0,-248.0,33.0,-12.0,-3.0,4.0,0
25.0,-244.0,37.0,-9.0,-2.0,6.0,0
23.0,-243.0,34.0,-9.0,-3.0,4.0,0
30.0,-244.0,32.0,-10.0,-1.0,3.0,0
24.0,-241.0,36.0,-12.0,1.0,1.0,0
30.0,-247.0,32.0,-13.0,1.0,1.0,0
28.0,-246.0,32.0,-17.0,2.0,1.0,0
30.0,-243.0,34.0,-25.0,3.0,0.0,0
29.0,-248.0,35.0,-34.0,2.0,-1.0,0
28.0,-242.0,35.0,-45.0,1.0,-1.0,0
27.0,-245.0,36.0,-57.0,-4.0,-2.0,0
27.0,-242.0,38.0,-67.0,-6.0,-3.0,0
27.0,-246.0,34.0,-73.0,-12.0,-1.0,0
25.0,-245.0,38.0,-74.0,-16.0,-1.0,0
27.0,-245.0,36.0,-69.0,-22.0,-1.0,0
25.0,-248.0,35.0,-56.0,-24.0,-1.0,0
26.0,-249.0,34.0,-38.0,-23.0,0.0,0
25.0,-246.0,34.0,-20.0,-23.0,-1.0,0
25.0,-247.0,37.0,-3.0,-20.0,0.0,0
27.0,-248.0,29.0,10.0,-17.0,0.0,0
26.0,-247.0,33.0,19.0,-16.0,-1.0,0
22.0,-247.0,30.0,20.0,-18.0,-1.0,0
21.0,-246.0,34.0,17.0,-19.0,-2.0,0
21.0,-247.0,35.0,9.0,-22.0,-5.0,0
24.0,-245.0,32.0,-2.0,-25.0,-6.0,0
23.0,-244.0,32.0,-13.0,-27.0,-8.0,0
26.0,-245.0,32.0,-24.0,-31.0,-8.0,0
22.0,-245.0,30.0,-33.0,-36.0,-9.0,0
22.0,-246.0,34.0,-37.0,-40.0,-11.0,0
25.0,-246.0,33.0,-40.0,-45.0,-11.0,0
24.0,-243.0,35.0,-40.0,-49.0,-13.0,0
20.0,-246.0,32.0,-36.0,-52.0,-11.0,0
20.0,-245.0,38.0,-29.0,-58.0,-9.0,0
22.0,-247.0,31.0,-23.0,-60.0,-9.0,0
19.0,-237.0,26.0,-16.0,-65.0,-10.0,0
22.0,-250.0,34.0,-13.0,-69.0,-11.0,0
24.0,-249.0,28.0,-8.0,-71.0,-11.0,0
20.0,-249.0,30.0,-3.0,-74.0,-9.0,0
23.0,-247.0,33.0,-1.0,-76.0,-8.0,0
22.0,-248.0,33.0,3.0,-76.0,-10.0,0
24.0,-248.0,31.0,4.0,-73.0,-10.0,0
20.0,-246.0,30.0,5.0,-73.0,-9.0,0
23.0,-247.0,30.0,5.0,-72.0,-8.0,0
23.0,-246.0,28.0,6.0,-71.0,-7.0,0
25.0,-247.0,32.0,7.0,-70.0,-7.0,0
24.0,-248.0,30.0,6.0,-69.0,-6.0,0
21.0,-245.0,30.0,4.0,-70.0,-6.0,0
19.0,-244.0,32.0,2.0,-72.0,-4.0,0
24.0,-248.0,31.0,0.0,-73.0,-4.0,0
23.0,-246.0,31.0,-2.0,-76.0,-4.0,0
24.0,-243.0,30.0,-1.0,-77.0,-3.0,0
24.0,-243.0,31.0,0.0,-79.0,0.0,0
24.0,-243.0,35.0,2.0,-80.0,1.0,0
21.0,-243.0,28.0,4.0,-82.0,3.0,0
22.0,-242.0,30.0,2.0,-84.0,4.0,0
24.0,-244.0,32.0,0.0,-85.0,4.0,0
24.0,-247.0,32.0,-6.0,-82.0,5.0,0
28.0,-244.0,32.0,-10.0,-83.0,3.0,0
24.0,-245.0,27.0,-14.0,-82.0,2.0,0
26.0,-244.0,29.0,-17.0,-83.0,2.0,0
23.0,-240.0,29.0,-20.0,-83.0,0.0,0
29.0,-247.0,31.0,-21.0,-83.0,0.0,0
27.0,-245.0,30.0,-21.0,-84.0,-2.0,0
25.0,-246.0,28.0,-18.0,-84.0,-2.0,0
26.0,-247.0,33.0,-15.0,-84.0,1.0,0
27.0,-243.0,29.0,-11.0,-83.0,0.0,0
28.0,-248.0,30.0,-7.0,-83.0,-1.0,0
27.0,-245.0,29.0,-5.0,-82.0,1.0,0
27.0,-246.0,27.0,-4.0,-82.0,1.0,0
27.0,-247.0,30.0,-4.0,-79.0,2.0,0
25.0,-249.0,28.0,-2.0,-77.0,5.0,0
28.0,-245.0,31.0,-2.0,-75.0,5.0,0
28.0,-248.0,27.0,0.0,-71.0,5.0,0
24.0,-248.0,32.0,1.0,-66.0,5.0,0
27.0,-246.0,31.0,1.0,-62.0,3.0,0
28.0,-247.0,31.0,4.0,-60.0,4.0,0
27.0,-246.0,30.0,5.0,-56.0,2.0,0
27.0,-251.0,27.0,8.0,-54.0,0.0,0
28.0,-248.0,28.0,13.0,-51.0,1.0,0
26.0,-246.0,32.0,18.0,-51.0,0.0,0
24.0,-244.0,25.0,22.0,-51.0,1.0,0
28.0,-247.0,31.0,24.0,-51.0,1.0,0
30.0,-249.0,29.0,25.0,-52.0,2.0,0
27.0,-246.0,27.0,24.0,-54.0,2.0,0
26.0,-247.0,30.0,25.0,-54.0,2.0,0
26.0,-246.0,28.0,28.0,-55.0,2.0,0
29.0,-247.0,25.0,31.0,-52.0,1.0,0
28.0,-249.0,27.0,33.0,-49.0,1.0,0
26.0,-246.0,28.0,37.0,-46.0,2.0,0
29.0,-246.0,29.0,39.0,-41.0,0.0,0
25.0,-246.0,33.0,43.0,-38.0,0.0,0
23.0,-247.0,29.0,45.0,-34.0,0.0,0
30.0,-248.0,30.0,47.0,-31.0,-3.0,0
25.0,-246.0,30.0,47.0,-27.0,-2.0,0
26.0,-248.0,35.0,45.0,-26.0,-1.0,0
24.0,-244.0,36.0,44.0,-25.0,-2.0,0
26.0,-243.0,28.0,40.0,-25.0,-4.0,0
27.0,-245.0,29.0,37.0,-26.0,-7.0,0
26.0,-247.0,28.0,34.0,-25.0,-7.0,0
28.0,-247.0,30.0,31.0,-25.0,-8.0,0
26.0,-246.0,26.0,29.0,-25.0,-7.0,0
28.0,-249.0,32.0,27.0,-24.0,-9.0,0
27.0,-246.0,30.0,29.0,-24.0,-8.0,0
26.0,-243.0,29.0,31.0,-23.0,-9.0,0
25.0,-248.0,31.0,36.0,-22.0,-10.0,0
25.0,-245.0,30.0,40.0,-20.0,-10.0,0
24.0,-249.0,31.0,48.0,-18.0,-10.0,0
26.0,-246.0,30.0,53.0,-16.0,-9.0,0
25.0,-249.0,34.0,58.0,-14.0,-7.0,0
24.0,-245.0,30.0,65.0,-13.0,-7.0,0
28.0,-247.0,29.0,67.0,-12.0,-8.0,0
25.0,-244.0,27.0,71.0,-12.0,-6.0,0
25.0,-245.0,30.0,71.0,-11.0,-7.0,0
25.0,-246.0,28.0,68.0,-10.0,-7.0,0
27.0,-244.0,30.0,65.0,-9.0,-8.0,0
25.0,-246.0,27.0,59.0,-9.0,-8.0,0
22.0,-245.0,25.0,55.0,-9.0,-8.0,0
25.0,-245.0,30.0,51.0,-10.0,-9.0,0
25.0,-247.0,30.0,48.0,-11.0,-7.0,0
25.0,-243.0,30.0,46.0,-12.0,-8.0,0
24.0,-244.0,35.0,44.0,-13.0,-9.0,0
25.0,-248.0,29.0,45.0,-13.0,-8.0,0
28.0,-247.0,32.0,47.0,-13.0,-9.0,0
24.0,-247.0,33.0,49.0,-14.0,-6.0,0
24.0,-245.0,30.0,51.0,-14.0,-5.0,0
24.0,-248.0,32.0,54.0,-15.0,-4.0,0
24.0,-246.0,27.0,56.0,-16.0,-2.0,0
26.0,-245.0,28.0,58.0,-16.0,-3.0,0
24.0,-245.0,29.0,56.0,-15.0,-1.0,0
25.0,-243.0,27.0,55.0,-13.0,-1.0,0
22.0,-246.0,27.0,55.0,-12.0,-1.0,0
25.0,-244.0,33.0,54.0,-10.0,0.0,0
24.0,-246.0,28.0,52.0,-10.0,2.0,0
24.0,-243.0,32.0,52.0,-9.0,-1.0,0
23.0,-244.0,29.0,49.0,-9.0,-1.0,0
25.0,-243.0,28.0,46.0,-9.0,-3.0,0
23.0,-244.0,28.0,44.0,-9.0,-3.0,0
22.0,-245.0,26.0,41.0,-10.0,-2.0,0
22.0,-245.0,29.0,38.0,-12.0,-1.0,0
26.0,-247.0,30.0,36.0,-13.0,-2.0,0
24.0,-245.0,31.0,34.0,-13.0,-2.0,0
25.0,-247.0,32.0,34.0,-14.0,-2.0,0
22.0,-243.0,30.0,33.0,-13.0,-2.0,0
25.0,-243.0,28.0,33.0,-13.0,-2.0,0
24.0,-245.0,26.0,33.0,-11.0,-1.0,0
23.0,-244.0,28.0,33.0,-11.0,-2.0,0
24.0,-244.0,28.0,34.0,-9.0,-2.0,0
23.0,-246.0,31.0,36.0,-7.0,-1.0,0
25.0,-247.0,32.0,39.0,-6.0,-1.0,0
26.0,-243.0,26.0,43.0,-5.0,-1.0,0
23.0,-246.0,29.0,50.0,-5.0,-2.0,0
29.0,-238.0,25.0,55.0,-6.0,0.0,0
24.0,-247.0,28.0,61.0,-8.0,0.0,0
25.0,-244.0,26.0,63.0,-8.0,-2.0,0
24.0,-242.0,26.0,64.0,-8.0,0.0,0
24.0,-246.0,33.0,63.0,-11.0,0.0,0
22.0,-246.0,29.0,59.0,-12.0,1.0,0
26.0,-246.0,28.0,52.0,-14.0,0.0,0
25.0,-245.0,30.0,46.0,-16.0,2.0,0
23.0,-241.0,30.0,39.0,-18.0,1.0,0
24.0,-245.0,31.0,32.0,-18.0,1.0,0
24.0,-242.0,28.0,28.0,-18.0,-2.0,0
24.0,-246.0,28.0,25.0,-15.0,-2.0,0
23.0,-244.0,28.0,24.0,-13.0,-2.0,0
28.0,-247.0,30.0,24.0,-12.0,-3.0,0
21.0,-246.0,27.0,26.0,-11.0,-1.0,0
23.0,-246.0,34.0,30.0,-10.0,-3.0,0
24.0,-245.0,29.0,35.0,-10.0,-6.0,0
24.0,-245.0,32.0,38.0,-10.0,-7.0,0
22.0,-245.0,31.0,42.0,-11.0,-6.0,0
23.0,-246.0,34.0,47.0,-13.0,-7.0,0
24.0,-242.0,31.0,50.0,-12.0,-7.0,0
23.0,-246.0,29.0,54.0,-13.0,-8.0,0
26.0,-246.0,29.0,55.0,-13.0,-6.0,0
23.0,-242.0,28.0,57.0,-12.0,-4.0,0
25.0,-246.0,27.0,57.0,-12.0,-7.0,0
25.0,-246.0,27.0,55.0,-12.0,-7.0,0
26.0,-246.0,28.0,50.0,-11.0,-9.0,0
25.0,-247.0,28.0,44.0,-11.0,-12.0,0
25.0,-244.0,31.0,41.0,-11.0,-11.0,0
25.0,-248.0,28.0,35.0,-10.0,-11.0,0
24.0,-247.0,26.0,32.0,-10.0,-14.0,0
26.0,-246.0,26.0,30.0,-11.0,-15.0,0
25.0,-248.0,25.0,29.0,-11.0,-16.0,0
22.0,-244.0,28.0,33.0,-12.0,-16.0,0
25.0,-251.0,27.0,37.0,-11.0,-15.0,0
26.0,-247.0,29.0,41.0,-12.0,-16.0,0
26.0,-246.0,27.0,44.0,-13.0,-16.0,0
20.0,-244.0,29.0,48.0,-12.0,-16.0,0
23.0,-245.0,31.0,51.0,-13.0,-16.0,0
27.0,-251.0,26.0,52.0,-11.0,-16.0,0
26.0,-247.0,29.0,54.0,-12.0,-13.0,0
25.0,-246.0,26.0,53.0,-11.0,-13.0,0
27.0,-245.0,28.0,52.0,-12.0,-14.0,0
23.0,-244.0,24.0,51.0,-9.0,-13.0,0
25.0,-246.0,28.0,50.0,-8.0,-14.0,0
26.0,-247.0,29.0,50.0,-5.0,-14.0,0
24.0,-245.0,29.0,49.0,-4.0,-15.0,0
26.0,-249.0,27.0,49.0,-4.0,-13.0,0
27.0,-243.0,25.0,49.0,-4.0,-13.0,0
23.0,-248.0,29.0,48.0,-4.0,-14.0,0
29.0,-245.0,30.0,49.0,-3.0,-14.0,0
29.0,-248.0,29.0,50.0,-2.0,-13.0,0
27.0,-247.0,31.0,52.0,-3.0,-11.0,0
25.0,-244.0,26.0,53.0,-3.0,-12.0,0
27.0,-243.0,26.0,58.0,-2.0,-12.0,0
30.0,-239.0,23.0,58.0,-1.0,-11.0,0
29.0,-247.0,29.0,58.0,0.0,-14.0,0
26.0,-243.0,23.0,57.0,0.0,-14.0,0
24.0,-246.0,24.0,56.0,1.0,-13.0,0
30.0,-245.0,31.0,56.0,2.0,-15.0,0
27.0,-247.0,26.0,57.0,3.0,-15.0,0
28.0,-245.0,31.0,57.0,0.0,-16.0,0
28.0,-248.0,28.0,58.0,1.0,-16.0,0
26.0,-247.0,27.0,58.0,3.0,-13.0,0
26.0,-250.0,29.0,58.0,6.0,-14.0,0
27.0,-247.0,28.0,61.0,7.0,-16.0,0
24.0,-245.0,28.0,61.0,11.0,-17.0,0
28.0,-244.0,28.0,62.0,13.0,-18.0,0
22.0,-245.0,30.0,63.0,13.0,-20.0,0
29.0,-247.0,26.0,64.0,14.0,-20.0,0
26.0,-245.0,27.0,64.0,16.0,-21.0,0
24.0,-245.0,27.0,65.0,17.0,-20.0,0
26.0,-243.0,25.0,63.0,18.0,-20.0,0
26.0,-242.0,27.0,63.0,19.0,-20.0,0
27.0,-247.0,23.0,63.0,19.0,-20.0,0
27.0,-244.0,26.0,63.0,17.0,-21.0,0
28.0,-247.0,28.0,62.0,16.0,-22.0,0
24.0,-245.0,28.0,62.0,17.0,-20.0,0
24.0,-246.0,28.0,63.0,15.0,-20.0,0
28.0,-249.0,26.0,65.0,16.0,-20.0,0
28.0,-247.0,28.0,68.0,16.0,-20.0,0
24.0,-242.0,26.0,71.0,15.0,-20.0,0
26.0,-247.0,27.0,71.0,16.0,-20.0,0
26.0,-247.0,27.0,74.0,17.0,-19.0,0
27.0,-248.0,30.0,74.0,18.0,-21.0,0
23.0,-244.0,29.0,73.0,18.0,-21.0,0
26.0,-246.0,25.0,72.0,17.0,-22.0,0
28.0,-249.0,29.0,70.0,16.0,-22.0,0
26.0,-247.0,31.0,70.0,17.0,-21.0,0
26.0,-247.0,28.0,68.0,18.0,-21.0,0
24.0,-246.0,24.0,68.0,19.0,-19.0,0
26.0,-244.0,29.0,69.0,19.0,-19.0,0
27.0,-248.0,27.0,72.0,20.0,-20.0,0
27.0,-245.0,25.0,75.0,22.0,-18.0,0
28.0,-243.0,26.0,75.0,22.0,-19.0,0
24.0,-246.0,30.0,75.0,22.0,-21.0,0
27.0,-246.0,30.0,76.0,22.0,-20.0,0
27.0,-246.0,30.0,78.0,24.0,-22.0,0
27.0,-247.0,28.0,79.0,24.0,-24.0,0
26.0,-246.0,22.0,79.0,23.0,-25.0,0
25.0,-245.0,31.0,77.0,24.0,-25.0,0
27.0,-243.0,31.0,78.0,24.0,-23.0,0
26.0,-246.0,27.0,79.0,24.0,-22.0,0
24.0,-244.0,29.0,79.0,23.0,-22.0,0
27.0,-248.0,31.0,80.0,23.0,-21.0,0
28.0,-246.0,27.0,81.0,21.0,-22.0,0
28.0,-248.0,26.0,80.0,22.0,-21.0,0
25.0,-243.0,29.0,79.0,23.0,-19.0,0
24.0,-244.0,28.0,77.0,22.0,-20.0,0
26.0,-249.0,30.0,77.0,23.0,-20.0,0
24.0,-243.0,29.0,76.0,23.0,-19.0,0
27.0,-246.0,32.0,76.0,23.0,-21.0,0
25.0,-247.0,33.0,79.0,21.0,-21.0,0
26.0,-245.0,28.0,80.0,20.0,-21.0,0
33.0,-244.0,31.0,79.0,17.0,-22.0,0
28.0,-244.0,31.0,80.0,13.0,-19.0,0
25.0,-243.0,29.0,77.0,11.0,-21.0,0
25.0,-245.0,29.0,75.0,8.0,-20.0,0
24.0,-245.0,35.0,70.0,5.0,-19.0,0
26.0,-246.0,25.0,63.0,3.0,-19.0,0
26.0,-244.0,28.0,56.0,3.0,-19.0,0
28.0,-244.0,28.0,48.0,2.0,-19.0,0
26.0,-243.0,28.0,41.0,1.0,-20.0,0
27.0,-248.0,28.0,36.0,3.0,-19.0,0
28.0,-247.0,29.0,34.0,5.0,-20.0,0
25.0,-247.0,28.0,36.0,10.0,-20.0,0
24.0,-248.0,31.0,39.0,13.0,-20.0,0
28.0,-246.0,31.0,46.0,18.0,-22.0,0
33.0,-246.0,27.0,53.0,19.0,-21.0,0
25.0,-250.0,33.0,61.0,20.0,-21.0,0
24.0,-248.0,28.0,70.0,20.0,-23.0,0
25.0,-249.0,32.0,76.0,20.0,-22.0,0
27.0,-247.0,32.0,82.0,20.0,-24.0,0
26.0,-243.0,30.0,89.0,19.0,-25.0,0
26.0,-245.0,30.0,92.0,16.0,-24.0,0
26.0,-245.0,29.0,92.0,14.0,-24.0,0
24.0,-242.0,29.0,91.0,14.0,-25.0,0
23.0,-245.0,32.0,89.0,14.0,-23.0,0
24.0,-243.0,32.0,86.0,13.0,-21.0,0
25.0,-243.0,30.0,84.0,15.0,-23.0,0
23.0,-243.0,26.0,82.0,15.0,-25.0,0
24.0,-245.0,30.0,80.0,16.0,-23.0,0
27.0,-244.0,31.0,78.0,16.0,-24.0,0
24.0,-243.0,29.0,75.0,14.0,-24.0,0
27.0,-243.0,30.0,74.0,13.0,-25.0,0
27.0,-242.0,33.0,72.0,13.0,-24.0,0
26.0,-243.0,29.0,69.0,13.0,-24.0,0
27.0,-249.0,25.0,69.0,12.0,-21.0,0
30.0,-248.0,33.0,68.0,11.0,-21.0,0
26.0,-246.0,30.0,66.0,9.0,-22.0,0
24.0,-246.0,31.0,66.0,8.0,-21.0,0
28.0,-248.0,30.0,67.0,9.0,-20.0,0
28.0,-249.0,34.0,67.0,10.0,-20.0,0
30.0,-249.0,30.0,72.0,12.0,-18.0,0
27.0,-247.0,30.0,73.0,12.0,-19.0,0
28.0,-248.0,31.0,76.0,14.0,-18.0,0
28.0,-248.0,30.0,79.0,15.0,-18.0,0
26.0,-246.0,27.0,81.0,17.0,-17.0,0
28.0,-246.0,29.0,84.0,18.0,-17.0,0
28.0,-247.0,30.0,86.0,17.0,-17.0,0
28.0,-246.0,31.0,89.0,18.0,-17.0,0
30.0,-246.0,30.0,89.0,18.0,-19.0,0
31.0,-248.0,30.0,90.0,20.0,-18.0,0
28.0,-246.0,33.0,88.0,20.0,-19.0,0
25.0,-247.0,33.0,88.0,21.0,-19.0,0
30.0,-247.0,31.0,86.0,21.0,-18.0,0
24.0,-246.0,33.0,85.0,22.0,-18.0,0
27.0,-247.0,31.0,83.0,22.0,-18.0,0
27.0,-245.0,30.0,83.0,20.0,-18.0,0
23.0,-243.0,31.0,86.0,21.0,-18.0,0
24.0,-246.0,32.0,87.0,20.0,-16.0,0
24.0,-246.0,31.0,91.0,18.0,-16.0,0
26.0,-242.0,32.0,94.0,19.0,-17.0,0
26.0,-242.0,34.0,98.0,19.0,-15.0,0
27.0,-243.0,35.0,99.0,19.0,-16.0,0
27.0,-244.0,30.0,99.0,20.0,-17.0,0
22.0,-241.0,31.0,94.0,20.0,-17.0,0
27.0,-246.0,33.0,90.0,18.0,-16.0,0
25.0,-246.0,31.0,84.0,16.0,-19.0,0
28.0,-246.0,30.0,77.0,14.0,-18.0,0
28.0,-245.0,29.0,72.0,14.0,-18.0,0
28.0,-247.0,31.0,67.0,12.0,-19.0,0
29.0,-247.0,34.0,65.0,13.0,-18.0,0
26.0,-243.0,34.0,64.0,13.0,-17.0,0
26.0,-246.0,31.0,66.0,13.0,-17.0,0
24.0,-244.0,32.0,65.0,14.0,-16.0,0
32.0,-248.0,35.0,67.0,14.0,-16.0,0
25.0,-244.0,28.0,68.0,13.0,-17.0,0
28.0,-248.0,31.0,68.0,14.0,-18.0,0
29.0,-249.0,32.0,69.0,15.0,-17.0,0
26.0,-247.0,28.0,71.0,14.0,-21.0,0
29.0,-246.0,30.0,72.0,15.0,-19.0,0
26.0,-240.0,31.0,72.0,15.0,-17.0,0
25.0,-247.0,32.0,72.0,15.0,-19.0,0
28.0,-245.0,31.0,72.0,17.0,-19.0,0
27.0,-245.0,34.0,75.0,19.0,-21.0,0
27.0,-244.0,32.0,76.0,19.0,-20.0,0
29.0,-244.0,31.0,78.0,18.0,-18.0,0
28.0,-246.0,32.0,81.0,17.0,-20.0,0
27.0,-244.0,37.0,82.0,17.0,-19.0,0
27.0,-244.0,32.0,83.0,15.0,-19.0,0
26.0,-245.0,35.0,83.0,15.0,-19.0,0
27.0,-245.0,34.0,83.0,14.0,-19.0,0
27.0,-243.0,36.0,82.0,14.0,-18.0,0
29.0,-244.0,32.0,82.0,14.0,-18.0,0
31.0,-244.0,35.0,80.0,14.0,-18.0,0
26.0,-244.0,34.0,80.0,13.0,-17.0,0
28.0,-244.0,30.0,79.0,13.0,-19.0,0
29.0,-244.0,33.0,79.0,14.0,-17.0,0
28.0,-243.0,32.0,79.0,15.0,-20.0,0
27.0,-242.0,31.0,79.0,15.0,-18.0,0
28.0,-245.0,32.0,78.0,15.0,-19.0,0
29.0,-246.0,29.0,77.0,13.0,-18.0,0
27.0,-242.0,32.0,75.0,15.0,-17.0,0
29.0,-246.0,33.0,74.0,15.0,-17.0,0
27.0,-242.0,27.0,72.0,15.0,-19.0,0
30.0,-246.0,34.0,70.0,16.0,-16.0,0
27.0,-244.0,35.0,67.0,17.0,-16.0,0
29.0,-244.0,34.0,66.0,20.0,-19.0,0
30.0,-245.0,32.0,64.0,22.0,-19.0,0
29.0,-247.0,35.0,63.0,23.0,-19.0,0
29.0,-246.0,32.0,59.0,23.0,-19.0,0
32.0,-246.0,32.0,59.0,23.0,-19.0,0
29.0,-244.0,34.0,58.0,23.0,-20.0,0
30.0,-247.0,32.0,55.0,22.0,-21.0,0
32.0,-251.0,37.0,53.0,22.0,-20.0,0
26.0,-242.0,34.0,52.0,21.0,-20.0,0
29.0,-245.0,32.0,50.0,19.0,-18.0,0
30.0,-244.0,34.0,48.0,19.0,-18.0,0
27.0,-245.0,33.0,46.0,16.0,-18.0,0
29.0,-246.0,37.0,44.0,15.0,-18.0,0
28.0,-244.0,32.0,43.0,15.0,-17.0,0
26.0,-247.0,33.0,42.0,16.0,-16.0,0
27.0,-244.0,31.0,42.0,17.0,-17.0,0
27.0,-248.0,33.0,43.0,18.0,-16.0,0
24.0,-241.0,39.0,43.0,20.0,-16.0,0
25.0,-245.0,32.0,45.0,21.0,-16.0,0
26.0,-245.0,34.0,46.0,23.0,-17.0,0
25.0,-248.0,29.0,51.0,24.0,-18.0,0
27.0,-243.0,33.0,53.0,23.0,-18.0,0
25.0,-245.0,35.0,54.0,23.0,-16.0,0
28.0,-243.0,34.0,56.0,22.0,-18.0,0
28.0,-249.0,32.0,56.0,21.0,-17.0,0
29.0,-244.0,34.0,56.0,18.0,-17.0,0
26.0,-242.0,32.0,55.0,14.0,-16.0,0
25.0,-244.0,34.0,51.0,13.0,-15.0,0
25.0,-245.0,34.0,48.0,13.0,-14.0,0
25.0,-243.0,30.0,46.0,13.0,-15.0,0
29.0,-243.0,28.0,43.0,12.0,-13.0,0
28.0,-242.0,29.0,39.0,12.0,-12.0,0
27.0,-245.0,29.0,37.0,11.0,-15.0,0
25.0,-245.0,35.0,35.0,11.0,-14.0,0
28.0,-245.0,31.0,34.0,11.0,-15.0,0
29.0,-246.0,33.0,34.0,11.0,-15.0,0
25.0,-247.0,32.0,34.0,11.0,-17.0,0
29.0,-245.0,33.0,35.0,10.0,-15.0,0
27.0,-244.0,34.0,37.0,9.0,-12.0,0
25.0,-247.0,31.0,39.0,10.0,-14.0,0
27.0,-244.0,31.0,40.0,9.0,-12.0,0
28.0,-245.0,33.0,44.0,9.0,-11.0,0
25.0,-244.0,32.0,48.0,10.0,-11.0,0
28.0,-244.0,30.0,47.0,9.0,-11.0,0
29.0,-248.0,29.0,49.0,7.0,-12.0,0
30.0,-245.0,35.0,52.0,5.0,-12.0,0
30.0,-246.0,30.0,54.0,6.0,-12.0,0
28.0,-244.0,32.0,57.0,6.0,-10.0,0
27.0,-247.0,29.0,57.0,5.0,-9.0,0
29.0,-245.0,34.0,58.0,4.0,-11.0,0
27.0,-245.0,32.0,58.0,3.0,-10.0,0
27.0,-244.0,40.0,59.0,1.0,-11.0,0
28.0,-247.0,33.0,60.0,-1.0,-12.0,0
24.0,-245.0,35.0,63.0,-1.0,-11.0,0
28.0,-245.0,31.0,64.0,-1.0,-9.0,0
26.0,-245.0,41.0,67.0,1.0,-9.0,0
26.0,-245.0,30.0,68.0,1.0,-9.0,0
27.0,-245.0,28.0,69.0,3.0,-8.0,0
28.0,-246.0,33.0,70.0,3.0,-11.0,0
26.0,-244.0,34.0,71.0,4.0,-10.0,0
27.0,-245.0,33.0,71.0,4.0,-10.0,0
28.0,-246.0,35.0,71.0,5.0,-9.0,0
29.0,-246.0,34.0,70.0,6.0,-10.0,0
29.0,-246.0,31.0,66.0,7.0,-10.0,0
27.0,-247.0,33.0,64.0,7.0,-10.0,0
27.0,-246.0,31.0,61.0,6.0,-11.0,0
27.0,-244.0,32.0,59.0,5.0,-11.0,0
24.0,-244.0,33.0,58.0,3.0,-10.0,0
26.0,-243.0,32.0,56.0,1.0,-10.0,0
27.0,-245.0,35.0,58.0,1.0,-10.0,0
27.0,-243.0,32.0,57.0,-1.0,-8.0,0
30.0,-245.0,35.0,56.0,-3.0,-10.0,0
27.0,-246.0,37.0,57.0,-4.0,-9.0,0
26.0,-244.0,33.0,59.0,-4.0,-8.0,0
29.0,-245.0,33.0,60.0,-4.0,-7.0,0
28.0,-245.0,32.0,63.0,-6.0,-7.0,0
31.0,-246.0,34.0,64.0,-6.0,-7.0,0
25.0,-246.0,34.0,67.0,-7.0,-6.0,0
27.0,-248.0,38.0,69.0,-8.0,-6.0,0
27.0,-247.0,37.0,68.0,-9.0,-6.0,0
28.0,-247.0,35.0,67.0,-10.0,-6.0,0
30.0,-243.0,33.0,64.0,-13.0,-6.0,0
29.0,-244.0,34.0,60.0,-15.0,-5.0,0
30.0,-246.0,35.0,58.0,-16.0,-5.0,0
29.0,-245.0,30.0,54.0,-16.0,-6.0,0
27.0,-243.0,32.0,52.0,-15.0,-5.0,0
27.0,-246.0,31.0,50.0,-14.0,-5.0,0
27.0,-247.0,38.0,48.0,-13.0,-6.0,0
28.0,-246.0,36.0,47.0,-11.0,-6.0,0
28.0,-247.0,34.0,46.0,-12.0,-8.0,0
29.0,-248.0,38.0,50.0,-9.0,-8.0,0
27.0,-248.0,33.0,55.0,-7.0,-8.0,0
27.0,-247.0,31.0,59.0,-6.0,-8.0,0
27.0,-245.0,36.0,64.0,-5.0,-8.0,0
28.0,-244.0,34.0,69.0,-4.0,-8.0,0
27.0,-242.0,35.0,73.0,-7.0,-8.0,0
30.0,-246.0,32.0,76.0,-7.0,-8.0,0
28.0,-247.0,33.0,77.0,-7.0,-8.0,0
31.0,-246.0,32.0,77.0,-7.0,-9.0,0
29.0,-244.0,31.0,76.0,-8.0,-9.0,0
29.0,-245.0,34.0,75.0,-9.0,-8.0,0
31.0,-245.0,32.0,72.0,-8.0,-6.0,0
27.0,-245.0,34.0,68.0,-10.0,-6.0,0
31.0,-245.0,33.0,65.0,-10.0,-5.0,0
30.0,-247.0,31.0,63.0,-9.0,-5.0,0
30.0,-247.0,32.0,59.0,-8.0,-5.0,0
29.0,-245.0,36.0,56.0,-7.0,-6.0,0
28.0,-244.0,32.0,54.0,-7.0,-6.0,0
31.0,-245.0,35.0,54.0,-7.0,-6.0,0
32.0,-245.0,32.0,53.0,-4.0,-6.0,0
28.0,-247.0,32.0,53.0,-3.0,-6.0,0
26.0,-242.0,33.0,54.0,-1.0,-5.0,0
26.0,-244.0,32.0,55.0,0.0,-6.0,0
30.0,-246.0,35.0,58.0,1.0,-8.0,0
26.0,-245.0,37.0,61.0,4.0,-8.0,0
26.0,-246.0,36.0,65.0,5.0,-8.0,0
29.0,-245.0,33.0,66.0,7.0,-8.0,0
26.0,-244.0,36.0,67.0,8.0,-7.0,0
27.0,-248.0,32.0,67.0,8.0,-7.0,0
27.0,-244.0,34.0,67.0,8.0,-8.0,0
29.0,-242.0,33.0,64.0,6.0,-7.0,0
25.0,-243.0,35.0,64.0,6.0,-8.0,0
29.0,-241.0,34.0,64.0,4.0,-7.0,0
28.0,-246.0,31.0,62.0,2.0,-6.0,0
32.0,-248.0,35.0,61.0,1.0,-6.0,0
29.0,-245.0,35.0,60.0,0.0,-6.0,0
27.0,-242.0,40.0,60.0,-2.0,-6.0,0
28.0,-247.0,39.0,61.0,-2.0,-5.0,0
28.0,-247.0,34.0,66.0,-2.0,-5.0,0
30.0,-248.0,34.0,69.0,-1.0,-5.0,0
25.0,-245.0,31.0,73.0,1.0,-4.0,0
26.0,-248.0,32.0,77.0,3.0,-5.0,0
28.0,-247.0,33.0,81.0,4.0,-6.0,0
26.0,-243.0,34.0,82.0,8.0,-7.0,0
25.0,-245.0,35.0,83.0,12.0,-8.0,0
34.0,-241.0,27.0,85.0,14.0,-10.0,0
27.0,-245.0,32.0,82.0,14.0,-10.0,0
27.0,-245.0,35.0,81.0,14.0,-12.0,0
26.0,-243.0,31.0,75.0,13.0,-12.0,0
27.0,-242.0,34.0,73.0,12.0,-13.0,0
30.0,-244.0,33.0,68.0,8.0,-12.0,0
30.0,-248.0,37.0,65.0,7.0,-10.0,0
27.0,-245.0,34.0,59.0,5.0,-12.0,0
27.0,-242.0,31.0,53.0,5.0,-12.0,0
24.0,-244.0,37.0,50.0,2.0,-10.0,0
35.0,-240.0,31.0,48.0,3.0,-9.0,0
29.0,-245.0,35.0,47.0,4.0,-9.0,0
25.0,-246.0,33.0,50.0,3.0,-7.0,0
32.0,-247.0,37.0,50.0,4.0,-8.0,0
28.0,-245.0,34.0,52.0,2.0,-7.0,0
28.0,-249.0,36.0,53.0,2.0,-6.0,0
27.0,-244.0,36.0,54.0,2.0,-6.0,0
26.0,-246.0,30.0,55.0,3.0,-6.0,0
25.0,-247.0,36.0,56.0,3.0,-5.0,0
28.0,-245.0,37.0,56.0,4.0,-6.0,0
23.0,-244.0,34.0,58.0,6.0,-8.0,0
27.0,-244.0,37.0,60.0,6.0,-8.0,0
26.0,-242.0,34.0,64.0,8.0,-10.0,0
28.0,-247.0,35.0,67.0,10.0,-11.0,0
28.0,-246.0,37.0,70.0,12.0,-11.0,0
28.0,-246.0,34.0,70.0,13.0,-10.0,0
27.0,-247.0,31.0,70.0,14.0,-11.0,0
27.0,-242.0,34.0,67.0,14.0,-11.0,0
28.0,-242.0,35.0,64.0,11.0,-10.0,0
26.0,-244.0,35.0,61.0,10.0,-9.0,0
28.0,-244.0,36.0,54.0,8.0,-9.0,0
28.0,-244.0,40.0,48.0,6.0,-6.0,0
25.0,-241.0,36.0,43.0,3.0,-7.0,0
25.0,-242.0,36.0,36.0,1.0,-7.0,0
29.0,-246.0,38.0,28.0,0.0,-6.0,0
28.0,-246.0,35.0,25.0,-1.0,-5.0,0
28.0,-246.0,33.0,25.0,-1.0,-8.0,0
30.0,-247.0,31.0,26.0,0.0,-6.0,0
24.0,-245.0,32.0,26.0,1.0,-6.0,0
26.0,-247.0,34.0,29.0,5.0,-8.0,0
28.0,-245.0,35.0,33.0,5.0,-6.0,0
25.0,-243.0,34.0,34.0,8.0,-8.0,0
25.0,-247.0,37.0,36.0,10.0,-10.0,0
30.0,-242.0,26.0,38.0,11.0,-10.0,0
29.0,-243.0,36.0,38.0,12.0,-11.0,0
27.0,-248.0,37.0,40.0,14.0,-12.0,0
29.0,-245.0,32.0,40.0,16.0,-13.0,0
27.0,-244.0,36.0,40.0,18.0,-15.0,0
27.0,-242.0,35.0,38.0,20.0,-13.0,0
29.0,-242.0,35.0,36.0,20.0,-14.0,0
25.0,-239.0,35.0,34.0,20.0,-12.0,0
27.0,-246.0,36.0,31.0,20.0,-15.0,0
30.0,-248.0,33.0,29.0,16.0,-14.0,0
23.0,-246.0,35.0,30.0,13.0,-12.0,0
27.0,-245.0,31.0,34.0,12.0,-12.0,0
26.0,-243.0,35.0,40.0,8.0,-11.0,0
28.0,-246.0,38.0,48.0,5.0,-10.0,0
25.0,-246.0,31.0,58.0,4.0,-11.0,0
26.0,-246.0,34.0,65.0,2.0,-7.0,0
27.0,-246.0,34.0,73.0,3.0,-7.0,0
28.0,-245.0,34.0,75.0,3.0,-8.0,0
28.0,-245.0,35.0,75.0,2.0,-9.0,0
27.0,-249.0,28.0,72.0,4.0,-6.0,0
29.0,-245.0,33.0,66.0,4.0,-9.0,0
28.0,-246.0,31.0,59.0,4.0,-9.0,0
27.0,-245.0,31.0,49.0,6.0,-8.0,0
28.0,-244.0,33.0,42.0,9.0,-11.0,0
25.0,-245.0,31.0,36.0,14.0,-13.0,0
28.0,-244.0,37.0,32.0,16.0,-14.0,0
29.0,-245.0,31.0,30.0,18.0,-15.0,0
27.0,-245.0,38.0,32.0,17.0,-13.0,0
28.0,-246.0,33.0,36.0,19.0,-15.0,0
26.0,-244.0,35.0,39.0,18.0,-15.0,0
25.0,-243.0,35.0,40.0,16.0,-15.0,0
24.0,-246.0,40.0,44.0,13.0,-15.0,0
26.0,-246.0,36.0,44.0,12.0,-13.0,0
28.0,-245.0,31.0,44.0,10.0,-13.0,0
26.0,-244.0,32.0,42.0,6.0,-14.0,0
28.0,-244.0,37.0,40.0,5.0,-13.0,0
27.0,-244.0,31.0,37.0,6.0,-11.0,0
29.0,-243.0,35.0,34.0,4.0,-12.0,0
27.0,-246.0,30.0,32.0,4.0,-11.0,0
27.0,-243.0,31.0,29.0,3.0,-10.0,0
24.0,-242.0,34.0,27.0,6.0,-10.0,0
27.0,-243.0,33.0,23.0,7.0,-11.0,0
27.0,-245.0,32.0,21.0,6.0,-11.0,0
29.0,-242.0,35.0,17.0,6.0,-10.0,0
28.0,-246.0,34.0,15.0,5.0,-11.0,0
25.0,-244.0,34.0,13.0,4.0,-11.0,0
28.0,-246.0,31.0,11.0,3.0,-8.0,0
29.0,-245.0,34.0,13.0,2.0,-8.0,0
27.0,-245.0,32.0,14.0,2.0,-8.0,0
28.0,-243.0,32.0,17.0,2.0,-9.0,0
28.0,-246.0,33.0,20.0,3.0,-9.0,0
27.0,-247.0,30.0,24.0,5.0,-11.0,0
27.0,-247.0,32.0,29.0,7.0,-11.0,0
29.0,-245.0,31.0,31.0,8.0,-13.0,0
29.0,-245.0,33.0,35.0,7.0,-12.0,0
26.0,-241.0,30.0,37.0,6.0,-11.0,0
31.0,-251.0,28.0,37.0,7.0,-11.0,0
34.0,-243.0,28.0,37.0,7.0,-12.0,0
28.0,-248.0,28.0,36.0,7.0,-14.0,0
28.0,-247.0,31.0,34.0,7.0,-13.0,0
31.0,-244.0,30.0,33.0,5.0,-12.0,0
24.0,-247.0,35.0,32.0,5.0,-13.0,0
29.0,-245.0,29.0,34.0,3.0,-12.0,0
29.0,-246.0,30.0,35.0,3.0,-10.0,0
27.0,-245.0,34.0,36.0,3.0,-12.0,0
27.0,-243.0,30.0,35.0,2.0,-9.0,0
30.0,-249.0,33.0,35.0,4.0,-9.0,0
27.0,-247.0,29.0,36.0,5.0,-10.0,0
26.0,-246.0,33.0,37.0,8.0,-10.0,0
29.0,-245.0,30.0,38.0,9.0,-13.0,0
28.0,-249.0,31.0,36.0,11.0,-12.0,0
29.0,-249.0,32.0,37.0,13.0,-14.0,0
28.0,-250.0,29.0,36.0,15.0,-14.0,0
29.0,-244.0,33.0,37.0,16.0,-16.0,0
30.0,-245.0,41.0,38.0,17.0,-15.0,0
26.0,-246.0,30.0,39.0,18.0,-16.0,0
26.0,-243.0,31.0,40.0,17.0,-17.0,0
28.0,-245.0,33.0,39.0,16.0,-17.0,0
30.0,-246.0,29.0,37.0,14.0,-18.0,0
28.0,-244.0,32.0,38.0,11.0,-16.0,0
26.0,-244.0,29.0,38.0,8.0,-15.0,0
28.0,-244.0,28.0,36.0,5.0,-14.0,0
27.0,-243.0,30.0,36.0,2.0,-12.0,0
26.0,-244.0,30.0,36.0,3.0,-12.0,0
27.0,-243.0,32.0,36.0,2.0,-9.0,0
18.0,-259.0,36.0,38.0,2.0,-9.0,0
29.0,-245.0,32.0,40.0,3.0,-12.0,0
28.0,-240.0,32.0,41.0,5.0,-12.0,0
29.0,-246.0,29.0,40.0,5.0,-12.0,0
28.0,-245.0,33.0,38.0,5.0,-12.0,0
28.0,-245.0,31.0,33.0,5.0,-13.0,0
26.0,-245.0,29.0,27.0,4.0,-14.0,0
25.0,-244.0,28.0,19.0,2.0,-16.0,0
28.0,-245.0,31.0,13.0,0.0,-16.0,0
29.0,-246.0,31.0,7.0,-1.0,-15.0,0
25.0,-245.0,27.0,4.0,-1.0,-17.0,0
28.0,-244.0,27.0,2.0,1.0,-17.0,0
26.0,-245.0,30.0,1.0,0.0,-17.0,0
28.0,-245.0,28.0,3.0,1.0,-17.0,0
26.0,-246.0,33.0,7.0,3.0,-18.0,0
27.0,-247.0,32.0,12.0,4.0,-18.0,0
28.0,-247.0,31.0,18.0,4.0,-17.0,0
29.0,-247.0,30.0,25.0,4.0,-16.0,0
30.0,-247.0,32.0,32.0,5.0,-16.0,0
27.0,-244.0,31.0,37.0,4.0,-17.0,0
28.0,-244.0,32.0,41.0,5.0,-16.0,0
31.0,-243.0,29.0,44.0,3.0,-14.0,0
28.0,-244.0,32.0,46.0,1.0,-14.0,0
29.0,-245.0,30.0,47.0,0.0,-13.0,0
30.0,-247.0,28.0,44.0,-3.0,-15.0,0
27.0,-247.0,32.0,41.0,-4.0,-13.0,0
27.0,-246.0,28.0,36.0,-5.0,-13.0,0
30.0,-246.0,33.0,31.0,-6.0,-13.0,0
25.0,-244.0,27.0,28.0,-4.0,-12.0,0
29.0,-246.0,28.0,23.0,-6.0,-13.0,0
27.0,-246.0,33.0,21.0,-5.0,-15.0,0
30.0,-247.0,28.0,18.0,-3.0,-15.0,0
31.0,-248.0,30.0,18.0,-2.0,-15.0,0
26.0,-247.0,30.0,21.0,0.0,-15.0,0
28.0,-246.0,33.0,24.0,1.0,-14.0,0
29.0,-247.0,29.0,26.0,2.0,-14.0,0
28.0,-246.0,29.0,28.0,6.0,-13.0,0
27.0,-247.0,31.0,32.0,6.0,-14.0,0
27.0,-244.0,31.0,32.0,7.0,-13.0,0
31.0,-245.0,32.0,35.0,6.0,-14.0,0
27.0,-246.0,30.0,38.0,5.0,-13.0,0
29.0,-247.0,27.0,39.0,6.0,-14.0,0
30.0,-245.0,25.0,41.0,7.0,-14.0,0
29.0,-246.0,29.0,42.0,6.0,-11.0,0
27.0,-243.0,30.0,42.0,6.0,-11.0,0
30.0,-244.0,29.0,43.0,6.0,-12.0,0
30.0,-243.0,29.0,43.0,6.0,-14.0,0
29.0,-245.0,29.0,42.0,6.0,-14.0,0
29.0,-246.0,31.0,41.0,4.0,-13.0,0
25.0,-249.0,31.0,40.0,4.0,-12.0,0
26.0,-245.0,28.0,39.0,3.0,-11.0,0
29.0,-247.0,26.0,39.0,2.0,-11.0,0
26.0,-244.0,28.0,38.0,1.0,-10.0,0
29.0,-249.0,29.0,38.0,1.0,-12.0,0
29.0,-247.0,31.0,40.0,1.0,-11.0,0
30.0,-245.0,25.0,41.0,1.0,-11.0,0
29.0,-246.0,28.0,43.0,1.0,-9.0,0
30.0,-246.0,31.0,46.0,2.0,-9.0,0
32.0,-247.0,30.0,48.0,4.0,-8.0,0
25.0,-246.0,30.0,52.0,3.0,-11.0,0
29.0,-247.0,27.0,55.0,6.0,-10.0,0
26.0,-241.0,30.0,57.0,8.0,-11.0,0
27.0,-240.0,27.0,55.0,7.0,-10.0,0
25.0,-244.0,27.0,52.0,7.0,-11.0,0
30.0,-246.0,31.0,47.0,5.0,-13.0,0
27.0,-246.0,30.0,42.0,4.0,-13.0,0
28.0,-248.0,29.0,36.0,2.0,-12.0,0
29.0,-246.0,31.0,34.0,-1.0,-13.0,0
24.0,-242.0,26.0,30.0,-2.0,-12.0,0
28.0,-244.0,26.0,30.0,-1.0,-13.0,0
30.0,-248.0,29.0,29.0,-2.0,-12.0,0
28.0,-246.0,27.0,29.0,-2.0,-12.0,0
29.0,-248.0,28.0,32.0,0.0,-11.0,0
25.0,-244.0,27.0,34.0,1.0,-12.0,0
24.0,-247.0,27.0,35.0,3.0,-12.0,0
26.0,-245.0,28.0,36.0,3.0,-14.0,0
28.0,-247.0,29.0,39.0,6.0,-13.0,0
27.0,-246.0,30.0,41.0,5.0,-13.0,0
27.0,-245.0,28.0,43.0,3.0,-14.0,0
27.0,-243.0,28.0,46.0,4.0,-14.0,0
27.0,-244.0,32.0,47.0,6.0,-14.0,0
31.0,-242.0,31.0,47.0,5.0,-14.0,0
26.0,-245.0,31.0,47.0,5.0,-14.0,0
27.0,-245.0,32.0,46.0,6.0,-14.0,0
