ax,ay,az,gx,gy,gz,label
-12.0,-234.0,-107.0,-5.0,72.0,1.0,0
-8.0,-232.0,-106.0,-7.0,74.0,3.0,0
-8.0,-233.0,-105.0,-8.0,76.0,4.0,0
-6.0,-232.0,-104.0,-11.0,77.0,3.0,0
-9.0,-235.0,-104.0,-14.0,79.0,5.0,0
-7.0,-236.0,-108.0,-16.0,80.0,4.0,0
-9.0,-230.0,-106.0,-19.0,81.0,5.0,0
-6.0,-236.0,-106.0,-20.0,81.0,5.0,0
-8.0,-233.0,-107.0,-20.0,83.0,4.0,0
-4.0,-235.0,-106.0,-20.0,84.0,4.0,0
-8.0,-236.0,-103.0,-20.0,84.0,5.0,0
-7.0,-235.0,-106.0,-17.0,86.0,6.0,0
-7.0,-234.0,-106.0,-16.0,87.0,4.0,0
-5.0,-236.0,-99.0,-15.0,88.0,5.0,0
-7.0,-237.0,-108.0,-13.0,89.0,4.0,0
-9.0,-236.0,-104.0,-12.0,88.0,6.0,0
-11.0,-232.0,-103.0,-11.0,89.0,6.0,0
-8.0,-233.0,-102.0,-10.0,89.0,5.0,0
-10.0,-234.0,-107.0,-9.0,91.0,7.0,0
-9.0,-235.0,-109.0,-10.0,92.0,7.0,0
-11.0,-234.0,-105.0,-10.0,92.0,7.0,0
-8.0,-233.0,-104.0,-11.0,92.0,7.0,0
-10.0,-232.0,-105.0,-10.0,92.0,7.0,0
-8.0,-233.0,-106.0,-11.0,92.0,8.0,0
-8.0,-232.0,-104.0,-11.0,91.0,9.0,0
-9.0,-231.0,-99.0,-13.0,93.0,9.0,0
-8.0,-227.0,-105.0,-13.0,94.0,8.0,0
-8.0,-235.0,-103.0,-13.0,93.0,8.0,0
-6.0,-237.0,-103.0,-12.0,93.0,9.0,0
-10.0,-236.0,-101.0,-11.0,92.0,8.0,0
-9.0,-235.0,-106.0,-11.0,93.0,9.0,0
-11.0,-238.0,-105.0,-11.0,93.0,9.0,0
-5.0,-235.0,-104.0,-10.0,94.0,9.0,0
-10.0,-236.0,-100.0,-9.0,95.0,10.0,0
-9.0,-236.0,-105.0,-6.0,95.0,10.0,0
-9.0,-236.0,-107.0,-4.0,97.0,8.0,0
-7.0,-236.0,-104.0,-2.0,98.0,9.0,0
-3.0,-236.0,-107.0,-2.0,99.0,8.0,0
-8.0,-237.0,-103.0,0.0,99.0,9.0,0
-7.0,-235.0,-103.0,1.0,99.0,8.0,0
-6.0,-233.0,-104.0,3.0,101.0,10.0,0
-5.0,-235.0,-103.0,1.0,101.0,9.0,0
-6.0,-235.0,-103.0,0.0,102.0,9.0,0
-10.0,-233.0,-104.0,-1.0,103.0,9.0,0
-8.0,-233.0,-104.0,-4.0,102.0,10.0,0
-5.0,-232.0,-104.0,-7.0,103.0,9.0,0
-7.0,-233.0,-102.0,-11.0,103.0,9.0,0
-9.0,-233.0,-103.0,-12.0,104.0,12.0,0
-2.0,-232.0,-97.0,-14.0,105.0,12.0,0
-8.0,-236.0,-104.0,-16.0,106.0,12.0,0
-9.0,-236.0,-103.0,-19.0,107.0,13.0,0
-6.0,-236.0,-101.0,-18.0,108.0,14.0,0
-10.0,-236.0,-106.0,-18.0,109.0,14.0,0
-8.0,-237.0,-102.0,-18.0,110.0,13.0,0
-4.0,-237.0,-103.0,-16.0,112.0,12.0,0
-8.0,-236.0,-103.0,-13.0,110.0,12.0,0
-8.0,-234.0,-104.0,-10.0,112.0,13.0,0
-7.0,-236.0,-106.0,-9.0,113.0,11.0,0
-9.0,-232.0,-106.0,-9.0,114.0,13.0,0
-8.0,-234.0,-104.0,-7.0,113.0,11.0,0
-7.0,-233.0,-104.0,-6.0,112.0,12.0,0
-11.0,-233.0,-105.0,-6.0,113.0,13.0,0
-6.0,-238.0,-104.0,-7.0,112.0,14.0,0
-5.0,-233.0,-105.0,-7.0,112.0,12.0,0
-10.0,-234.0,-101.0,-8.0,111.0,13.0,0
-10.0,-234.0,-101.0,-10.0,112.0,13.0,0
-10.0,-234.0,-102.0,-9.0,110.0,14.0,0
-10.0,-233.0,-104.0,-9.0,108.0,12.0,0
-10.0,-233.0,-103.0,-10.0,107.0,12.0,0
-11.0,-236.0,-102.0,-10.0,107.0,11.0,0
-13.0,-244.0,-98.0,-11.0,107.0,13.0,0
-10.0,-236.0,-104.0,-11.0,106.0,13.0,0
-9.0,-236.0,-105.0,-12.0,104.0,12.0,0
-10.0,-237.0,-102.0,-12.0,104.0,12.0,0
-9.0,-236.0,-105.0,-12.0,103.0,12.0,0
-8.0,-236.0,-100.0,-12.0,103.0,13.0,0
-10.0,-234.0,-104.0,-11.0,103.0,12.0,0
-9.0,-235.0,-100.0,-9.0,102.0,12.0,0
-6.0,-236.0,-106.0,-9.0,103.0,12.0,0
-6.0,-237.0,-104.0,-9.0,102.0,11.0,0
-8.0,-236.0,-106.0,-7.0,102.0,11.0,0
-8.0,-237.0,-105.0,-5.0,103.0,11.0,0
-8.0,-234.0,-105.0,-4.0,103.0,10.0,0
-7.0,-235.0,-104.0,-4.0,103.0,11.0,0
-5.0,-237.0,-104.0,-4.0,103.0,11.0,0
-8.0,-234.0,-104.0,-5.0,103.0,11.0,0
-7.0,-236.0,-105.0,-6.0,105.0,11.0,0
-9.0,-235.0,-105.0,-6.0,105.0,10.0,0
-11.0,-232.0,-108.0,-7.0,105.0,10.0,0
-5.0,-238.0,-105.0,-9.0,107.0,11.0,0
-6.0,-235.0,-102.0,-11.0,107.0,10.0,0
-7.0,-236.0,-103.0,-13.0,105.0,10.0,0
-16.0,-239.0,-108.0,-15.0,107.0,9.0,0
-9.0,-235.0,-100.0,-16.0,107.0,10.0,0
-8.0,-234.0,-101.0,-16.0,106.0,12.0,0
-9.0,-232.0,-104.0,-16.0,107.0,13.0,0
-7.0,-238.0,-103.0,-16.0,107.0,13.0,0
-8.0,-236.0,-102.0,-15.0,108.0,12.0,0
-8.0,-238.0,-104.0,-13.0,108.0,13.0,0
-9.0,-232.0,-102.0,-11.0,108.0,12.0,0
-7.0,-234.0,-103.0,-11.0,108.0,12.0,0
-6.0,-235.0,-106.0,-9.0,106.0,12.0,0
-6.0,-236.0,-102.0,-9.0,106.0,11.0,0
-6.0,-237.0,-103.0,-8.0,106.0,10.0,0
-9.0,-235.0,-105.0,-7.0,106.0,9.0,0
-9.0,-234.0,-103.0,-6.0,106.0,9.0,0
-10.0,-234.0,-105.0,-6.0,106.0,9.0,0
-10.0,-233.0,-105.0,-7.0,104.0,10.0,0
-10.0,-234.0,-101.0,-8.0,104.0,9.0,0
-8.0,-236.0,-106.0,-9.0,105.0,10.0,0
-7.0,-232.0,-104.0,-9.0,104.0,9.0,0
-11.0,-236.0,-103.0,-10.0,104.0,9.0,0
-9.0,-235.0,-103.0,-11.0,105.0,9.0,0
-7.0,-235.0,-108.0,-12.0,105.0,9.0,0
-11.0,-238.0,-104.0,-13.0,104.0,8.0,0
-8.0,-236.0,-104.0,-13.0,104.0,9.0,0
-9.0,-237.0,-105.0,-13.0,102.0,7.0,0
-5.0,-236.0,-106.0,-11.0,101.0,7.0,0
-10.0,-235.0,-103.0,-11.0,100.0,6.0,0
-8.0,-236.0,-104.0,-10.0,100.0,6.0,0
-9.0,-236.0,-100.0,-8.0,98.0,7.0,0
-11.0,-235.0,-102.0,-4.0,98.0,6.0,0
-9.0,-237.0,-103.0,-2.0,99.0,4.0,0
-10.0,-233.0,-94.0,1.0,98.0,4.0,0
-10.0,-234.0,-107.0,1.0,98.0,3.0,0
-14.0,-231.0,-105.0,1.0,97.0,3.0,0
-8.0,-236.0,-102.0,0.0,95.0,2.0,0
-7.0,-235.0,-102.0,1.0,94.0,1.0,0
-11.0,-235.0,-104.0,0.0,95.0,0.0,0
-6.0,-236.0,-103.0,1.0,95.0,0.0,0
-6.0,-233.0,-105.0,-2.0,95.0,0.0,0
-8.0,-236.0,-102.0,-5.0,95.0,0.0,0
-11.0,-232.0,-104.0,-8.0,94.0,-1.0,0
-8.0,-235.0,-102.0,-9.0,95.0,-2.0,0
-10.0,-236.0,-105.0,-12.0,94.0,-1.0,0
-12.0,-237.0,-116.0,-13.0,91.0,-1.0,0
-7.0,-238.0,-107.0,-16.0,92.0,1.0,0
-7.0,-240.0,-103.0,-17.0,91.0,1.0,0
-8.0,-238.0,-101.0,-15.0,89.0,1.0,0
-7.0,-238.0,-103.0,-12.0,88.0,2.0,0
-9.0,-242.0,-105.0,-8.0,86.0,1.0,0
-8.0,-237.0,-107.0,-6.0,86.0,1.0,0
-9.0,-235.0,-102.0,-1.0,86.0,1.0,0
-8.0,-237.0,-103.0,1.0,83.0,0.0,0
-11.0,-235.0,-102.0,2.0,82.0,-1.0,0
-8.0,-233.0,-103.0,4.0,80.0,-2.0,0
-10.0,-234.0,-101.0,6.0,79.0,-2.0,0
-10.0,-235.0,-105.0,6.0,79.0,-3.0,0
-7.0,-233.0,-106.0,6.0,79.0,-3.0,0
-11.0,-233.0,-102.0,6.0,80.0,-4.0,0
-9.0,-233.0,-101.0,3.0,81.0,-2.0,0
-8.0,-234.0,-103.0,2.0,82.0,-2.0,0
-6.0,-234.0,-105.0,0.0,82.0,-1.0,0
-9.0,-236.0,-103.0,-1.0,83.0,-1.0,0
-7.0,-234.0,-104.0,-3.0,82.0,0.0,0
-8.0,-237.0,-101.0,-3.0,84.0,0.0,0
-9.0,-234.0,-102.0,-4.0,84.0,1.0,0
-5.0,-234.0,-109.0,-3.0,85.0,-1.0,0
-5.0,-236.0,-101.0,-2.0,86.0,-1.0,0
-9.0,-234.0,-102.0,0.0,84.0,-2.0,0
-8.0,-235.0,-103.0,3.0,86.0,-1.0,0
-6.0,-235.0,-102.0,5.0,85.0,-1.0,0
-8.0,-237.0,-102.0,7.0,86.0,-1.0,0
-9.0,-237.0,-103.0,8.0,85.0,-1.0,0
-9.0,-234.0,-100.0,9.0,86.0,0.0,0
-7.0,-238.0,-105.0,10.0,86.0,0.0,0
-8.0,-235.0,-105.0,12.0,86.0,-1.0,0
-6.0,-239.0,-102.0,13.0,86.0,0.0,0
-9.0,-235.0,-105.0,14.0,86.0,1.0,0
-6.0,-234.0,-103.0,13.0,86.0,1.0,0
-7.0,-235.0,-102.0,13.0,85.0,1.0,0
-8.0,-234.0,-105.0,14.0,86.0,3.0,0
-4.0,-238.0,-101.0,14.0,87.0,3.0,0
-6.0,-236.0,-105.0,14.0,88.0,3.0,0
-9.0,-234.0,-102.0,14.0,87.0,2.0,0
-7.0,-235.0,-102.0,13.0,87.0,3.0,0
-8.0,-234.0,-101.0,11.0,87.0,5.0,0
-8.0,-235.0,-104.0,9.0,86.0,5.0,0
-8.0,-235.0,-103.0,7.0,86.0,4.0,0
-9.0,-241.0,-101.0,5.0,89.0,5.0,0
-5.0,-233.0,-100.0,3.0,87.0,4.0,0
-3.0,-239.0,-105.0,2.0,86.0,5.0,0
-8.0,-235.0,-102.0,1.0,86.0,5.0,0
-7.0,-236.0,-105.0,0.0,86.0,5.0,0
-9.0,-231.0,-103.0,1.0,85.0,5.0,0
-6.0,-233.0,-103.0,1.0,85.0,5.0,0
-10.0,-235.0,-99.0,0.0,85.0,5.0,0
-9.0,-235.0,-103.0,-2.0,85.0,5.0,0
-10.0,-239.0,-104.0,-1.0,85.0,5.0,0
-8.0,-233.0,-106.0,0.0,85.0,5.0,0
-12.0,-233.0,-107.0,0.0,83.0,6.0,0
-6.0,-234.0,-102.0,0.0,83.0,6.0,0
-10.0,-233.0,-104.0,1.0,82.0,6.0,0
-8.0,-233.0,-102.0,0.0,83.0,6.0,0
-9.0,-234.0,-102.0,-1.0,83.0,5.0,0
-7.0,-236.0,-99.0,-2.0,83.0,6.0,0
-8.0,-235.0,-103.0,-4.0,82.0,6.0,0
-9.0,-233.0,-100.0,-6.0,81.0,4.0,0
-10.0,-234.0,-104.0,-7.0,80.0,5.0,0
-7.0,-236.0,-98.0,-9.0,80.0,4.0,0
-7.0,-237.0,-102.0,-12.0,78.0,4.0,0
-10.0,-232.0,-106.0,-14.0,78.0,2.0,0
-7.0,-238.0,-104.0,-14.0,77.0,2.0,0
-9.0,-236.0,-101.0,-14.0,77.0,1.0,0
-8.0,-236.0,-102.0,-12.0,75.0,0.0,0
-10.0,-235.0,-103.0,-10.0,74.0,0.0,0
-5.0,-239.0,-105.0,-7.0,74.0,-1.0,0
-8.0,-235.0,-98.0,-4.0,73.0,-1.0,0
-9.0,-236.0,-101.0,-3.0,72.0,-1.0,0
-3.0,-238.0,-100.0,-2.0,70.0,-1.0,0
-7.0,-236.0,-100.0,-2.0,68.0,-2.0,0
-8.0,-232.0,-102.0,-2.0,69.0,-2.0,0
-9.0,-236.0,-101.0,-4.0,67.0,-3.0,0
-5.0,-234.0,-102.0,-5.0,66.0,-3.0,0
-9.0,-234.0,-102.0,-8.0,64.0,-4.0,0
-10.0,-234.0,-105.0,-10.0,62.0,-4.0,0
-10.0,-235.0,-99.0,-11.0,63.0,-5.0,0
-3.0,-237.0,-103.0,-13.0,63.0,-6.0,0
-7.0,-236.0,-104.0,-12.0,63.0,-6.0,0
-7.0,-236.0,-102.0,-14.0,63.0,-7.0,0
-4.0,-238.0,-103.0,-16.0,63.0,-7.0,0
-10.0,-235.0,-104.0,-17.0,63.0,-7.0,0
-10.0,-238.0,-99.0,-18.0,62.0,-6.0,0
-5.0,-238.0,-100.0,-18.0,64.0,-8.0,0
-10.0,-236.0,-100.0,-18.0,63.0,-9.0,0
-8.0,-238.0,-103.0,-16.0,63.0,-9.0,0
-5.0,-238.0,-101.0,-15.0,62.0,-9.0,0
-8.0,-239.0,-102.0,-16.0,62.0,-9.0,0
-7.0,-237.0,-98.0,-15.0,61.0,-8.0,0
-8.0,-235.0,-102.0,-14.0,63.0,-10.0,0
-8.0,-236.0,-101.0,-14.0,63.0,-8.0,0
-5.0,-235.0,-103.0,-13.0,63.0,-8.0,0
-3.0,-237.0,-99.0,-15.0,62.0,-11.0,0
-3.0,-239.0,-101.0,-14.0,62.0,-11.0,0
-5.0,-234.0,-102.0,-14.0,62.0,-10.0,0
-8.0,-234.0,-100.0,-15.0,63.0,-10.0,0
-6.0,-235.0,-104.0,-16.0,63.0,-10.0,0
-9.0,-234.0,-104.0,-18.0,63.0,-10.0,0
-8.0,-234.0,-102.0,-19.0,62.0,-10.0,0
-7.0,-235.0,-104.0,-21.0,63.0,-11.0,0
-9.0,-235.0,-97.0,-23.0,64.0,-10.0,0
-6.0,-236.0,-103.0,-23.0,64.0,-11.0,0
-2.0,-237.0,-98.0,-24.0,64.0,-12.0,0
-8.0,-235.0,-104.0,-26.0,67.0,-11.0,0
-5.0,-240.0,-101.0,-25.0,66.0,-10.0,0
-9.0,-237.0,-104.0,-25.0,64.0,-9.0,0
-9.0,-238.0,-103.0,-24.0,66.0,-10.0,0
-6.0,-236.0,-100.0,-24.0,65.0,-11.0,0
-9.0,-236.0,-103.0,-22.0,66.0,-11.0,0
-4.0,-238.0,-102.0,-22.0,65.0,-10.0,0
-7.0,-237.0,-100.0,-21.0,66.0,-9.0,0
-6.0,-239.0,-101.0,-20.0,67.0,-8.0,0
-7.0,-235.0,-103.0,-17.0,68.0,-9.0,0
-5.0,-236.0,-102.0,-15.0,69.0,-8.0,0
-4.0,-235.0,-101.0,-16.0,69.0,-7.0,0
-5.0,-237.0,-99.0,-16.0,70.0,-7.0,0
-8.0,-235.0,-102.0,-15.0,71.0,-7.0,0
-6.0,-236.0,-98.0,-17.0,73.0,-5.0,0
-3.0,-235.0,-103.0,-19.0,74.0,-4.0,0
-4.0,-236.0,-101.0,-18.0,75.0,-4.0,0
-7.0,-237.0,-99.0,-21.0,75.0,-4.0,0
-7.0,-237.0,-102.0,-22.0,76.0,-3.0,0
-9.0,-234.0,-101.0,-25.0,77.0,-3.0,0
-6.0,-237.0,-98.0,-27.0,78.0,-2.0,0
-7.0,-236.0,-103.0,-29.0,77.0,-3.0,0
-8.0,-236.0,-102.0,-29.0,79.0,-2.0,0
-8.0,-240.0,-102.0,-30.0,80.0,-1.0,0
-7.0,-236.0,-103.0,-31.0,81.0,-1.0,0
-7.0,-238.0,-103.0,-29.0,80.0,-1.0,0
-8.0,-235.0,-106.0,-30.0,80.0,0.0,0
-8.0,-239.0,-103.0,-29.0,81.0,0.0,0
-8.0,-238.0,-103.0,-29.0,82.0,1.0,0
-6.0,-233.0,-101.0,-27.0,83.0,0.0,0
-7.0,-237.0,-100.0,-26.0,81.0,0.0,0
-9.0,-237.0,-106.0,-24.0,82.0,0.0,0
-6.0,-236.0,-103.0,-23.0,81.0,0.0,0
-8.0,-237.0,-102.0,-23.0,80.0,0.0,0
-10.0,-236.0,-105.0,-23.0,79.0,1.0,0
-10.0,-236.0,-100.0,-22.0,80.0,2.0,0
-6.0,-237.0,-102.0,-22.0,81.0,2.0,0
-9.0,-233.0,-100.0,-22.0,81.0,2.0,0
-3.0,-237.0,-100.0,-23.0,81.0,3.0,0
-7.0,-235.0,-103.0,-27.0,81.0,3.0,0
-8.0,-234.0,-100.0,-27.0,81.0,4.0,0
-5.0,-237.0,-104.0,-28.0,81.0,4.0,0
-6.0,-235.0,-102.0,-31.0,81.0,3.0,0
-4.0,-236.0,-104.0,-33.0,82.0,5.0,0
-4.0,-234.0,-102.0,-34.0,83.0,5.0,0
-12.0,-233.0,-112.0,-35.0,82.0,3.0,0
-6.0,-237.0,-100.0,-37.0,82.0,4.0,0
-8.0,-238.0,-104.0,-36.0,82.0,4.0,0
-6.0,-235.0,-104.0,-38.0,83.0,3.0,0
-5.0,-241.0,-102.0,-39.0,84.0,2.0,0
-8.0,-235.0,-103.0,-39.0,83.0,2.0,0
-10.0,-234.0,-98.0,-39.0,82.0,1.0,0
-8.0,-235.0,-103.0,-39.0,83.0,1.0,0
-4.0,-238.0,-103.0,-38.0,83.0,3.0,0
-6.0,-234.0,-104.0,-38.0,82.0,3.0,0
-8.0,-237.0,-102.0,-38.0,83.0,1.0,0
-9.0,-235.0,-105.0,-37.0,83.0,1.0,0
-11.0,-235.0,-104.0,-36.0,84.0,1.0,0
-6.0,-236.0,-101.0,-34.0,84.0,0.0,0
-7.0,-236.0,-104.0,-35.0,84.0,3.0,0
-7.0,-237.0,-104.0,-33.0,83.0,2.0,0
-6.0,-235.0,-107.0,-33.0,83.0,3.0,0
-5.0,-235.0,-107.0,-34.0,82.0,2.0,0
-5.0,-235.0,-102.0,-34.0,83.0,3.0,0
-4.0,-232.0,-103.0,-35.0,83.0,3.0,0
-9.0,-233.0,-103.0,-37.0,82.0,2.0,0
-2.0,-236.0,-104.0,-39.0,83.0,2.0,0
-7.0,-235.0,-104.0,-39.0,84.0,2.0,0
-8.0,-236.0,-103.0,-40.0,83.0,2.0,0
-6.0,-236.0,-106.0,-41.0,84.0,0.0,0
-7.0,-238.0,-102.0,-42.0,86.0,1.0,0
-7.0,-237.0,-99.0,-43.0,84.0,4.0,0
-6.0,-234.0,-101.0,-43.0,85.0,2.0,0
-3.0,-237.0,-103.0,-44.0,86.0,3.0,0
-6.0,-236.0,-108.0,-42.0,87.0,3.0,0
-5.0,-238.0,-105.0,-41.0,86.0,3.0,0
-8.0,-237.0,-105.0,-40.0,85.0,3.0,0
-8.0,-237.0,-103.0,-38.0,85.0,3.0,0
-8.0,-235.0,-100.0,-37.0,84.0,3.0,0
-8.0,-234.0,-105.0,-36.0,82.0,3.0,0
-9.0,-236.0,-106.0,-36.0,83.0,5.0,0
-9.0,-235.0,-105.0,-36.0,82.0,4.0,0
-8.0,-230.0,-106.0,-37.0,82.0,4.0,0
-8.0,-234.0,-103.0,-39.0,82.0,4.0,0
-5.0,-238.0,-102.0,-41.0,82.0,4.0,0
-7.0,-234.0,-104.0,-42.0,83.0,4.0,0
-5.0,-236.0,-102.0,-42.0,85.0,6.0,0
-7.0,-237.0,-107.0,-41.0,86.0,7.0,0
-9.0,-232.0,-100.0,-40.0,86.0,7.0,0
-7.0,-235.0,-105.0,-40.0,86.0,4.0,0
-4.0,-236.0,-107.0,-38.0,86.0,6.0,0
-10.0,-237.0,-103.0,-39.0,87.0,4.0,0
-10.0,-234.0,-109.0,-39.0,88.0,3.0,0
-7.0,-233.0,-108.0,-40.0,87.0,4.0,0
-5.0,-235.0,-105.0,-41.0,88.0,4.0,0
-8.0,-233.0,-105.0,-43.0,88.0,4.0,0
-9.0,-235.0,-105.0,-43.0,88.0,3.0,0
-8.0,-235.0,-106.0,-44.0,90.0,3.0,0
-9.0,-231.0,-105.0,-44.0,91.0,2.0,0
-7.0,-232.0,-106.0,-44.0,89.0,3.0,0
-5.0,-233.0,-106.0,-46.0,90.0,4.0,0
-6.0,-233.0,-104.0,-46.0,90.0,5.0,0
-7.0,-237.0,-105.0,-46.0,91.0,5.0,0
-6.0,-236.0,-103.0,-46.0,91.0,5.0,0
-4.0,-235.0,-107.0,-49.0,92.0,6.0,0
-9.0,-232.0,-107.0,-50.0,93.0,6.0,0
-6.0,-232.0,-107.0,-49.0,92.0,6.0,0
-3.0,-232.0,-104.0,-50.0,93.0,5.0,0
-3.0,-235.0,-105.0,-51.0,97.0,5.0,0
-8.0,-233.0,-109.0,-51.0,97.0,7.0,0
-6.0,-237.0,-104.0,-53.0,97.0,7.0,0
-8.0,-232.0,-106.0,-54.0,99.0,8.0,0
-6.0,-233.0,-101.0,-57.0,101.0,8.0,0
-4.0,-234.0,-104.0,-59.0,102.0,8.0,0
-7.0,-236.0,-106.0,-57.0,103.0,8.0,0
-5.0,-236.0,-105.0,-58.0,104.0,10.0,0
-5.0,-237.0,-103.0,-58.0,106.0,9.0,0
-6.0,-234.0,-106.0,-56.0,106.0,9.0,0
-4.0,-235.0,-104.0,-55.0,107.0,10.0,0
-6.0,-234.0,-105.0,-55.0,108.0,10.0,0
-9.0,-235.0,-109.0,-54.0,109.0,12.0,0
-5.0,-234.0,-106.0,-52.0,109.0,12.0,0
-7.0,-235.0,-109.0,-50.0,109.0,13.0,0
-6.0,-236.0,-105.0,-48.0,108.0,14.0,0
-6.0,-233.0,-105.0,-46.0,108.0,14.0,0
-4.0,-233.0,-108.0,-45.0,109.0,14.0,0
-7.0,-232.0,-109.0,-44.0,111.0,13.0,0
-5.0,-233.0,-108.0,-46.0,109.0,15.0,0
-9.0,-229.0,-107.0,-48.0,111.0,15.0,0
-6.0,-232.0,-109.0,-51.0,112.0,15.0,0
-6.0,-233.0,-108.0,-50.0,112.0,15.0,0
-7.0,-234.0,-107.0,-49.0,111.0,15.0,0
-2.0,-227.0,-120.0,-49.0,111.0,16.0,0
-8.0,-233.0,-103.0,-48.0,114.0,17.0,0
-5.0,-231.0,-105.0,-46.0,113.0,17.0,0
-9.0,-234.0,-104.0,-45.0,114.0,17.0,0
-3.0,-231.0,-108.0,-42.0,114.0,18.0,0
-4.0,-231.0,-107.0,-38.0,115.0,17.0,0
-3.0,-233.0,-105.0,-38.0,115.0,17.0,0
-1.0,-231.0,-109.0,-37.0,115.0,17.0,0
-7.0,-232.0,-110.0,-34.0,115.0,19.0,0
-7.0,-234.0,-107.0,-33.0,115.0,18.0,0
-5.0,-233.0,-106.0,-32.0,115.0,18.0,0
-7.0,-232.0,-100.0,-31.0,114.0,18.0,0
-6.0,-230.0,-107.0,-32.0,115.0,17.0,0
-7.0,-228.0,-107.0,-34.0,115.0,17.0,0
-6.0,-232.0,-104.0,-36.0,116.0,19.0,0
-8.0,-230.0,-102.0,-36.0,117.0,19.0,0
-6.0,-231.0,-106.0,-35.0,117.0,20.0,0
-6.0,-234.0,-106.0,-37.0,118.0,19.0,0
-7.0,-231.0,-106.0,-37.0,120.0,20.0,0
-6.0,-233.0,-108.0,-35.0,119.0,21.0,0
-4.0,-234.0,-107.0,-32.0,119.0,20.0,0
-4.0,-231.0,-105.0,-30.0,118.0,18.0,0
-5.0,-219.0,-111.0,-29.0,118.0,20.0,0
-5.0,-234.0,-112.0,-26.0,118.0,19.0,0
-7.0,-233.0,-108.0,-25.0,119.0,18.0,0
-6.0,-234.0,-108.0,-24.0,120.0,18.0,0
-7.0,-231.0,-108.0,-22.0,120.0,19.0,0
-5.0,-233.0,-105.0,-22.0,120.0,20.0,0
-8.0,-233.0,-108.0,-23.0,119.0,20.0,0
-5.0,-238.0,-108.0,-23.0,120.0,20.0,0
-4.0,-232.0,-106.0,-24.0,123.0,20.0,0
-3.0,-233.0,-108.0,-24.0,123.0,20.0,0
-3.0,-234.0,-109.0,-26.0,124.0,19.0,0
-5.0,-233.0,-105.0,-26.0,125.0,20.0,0
-6.0,-231.0,-109.0,-27.0,125.0,20.0,0
-4.0,-236.0,-109.0,-27.0,125.0,19.0,0
-6.0,-233.0,-110.0,-30.0,126.0,19.0,0
-5.0,-233.0,-105.0,-32.0,127.0,20.0,0
-6.0,-231.0,-112.0,-32.0,128.0,20.0,0
-3.0,-235.0,-106.0,-33.0,129.0,19.0,0
-8.0,-231.0,-107.0,-33.0,128.0,19.0,0
-6.0,-233.0,-106.0,-34.0,129.0,18.0,0
-5.0,-235.0,-109.0,-33.0,128.0,17.0,0
-1.0,-233.0,-112.0,-32.0,128.0,17.0,0
-2.0,-234.0,-106.0,-31.0,125.0,17.0,0
-5.0,-233.0,-108.0,-30.0,126.0,17.0,0
-6.0,-233.0,-109.0,-29.0,125.0,16.0,0
-6.0,-232.0,-110.0,-28.0,125.0,15.0,0
-4.0,-230.0,-109.0,-27.0,124.0,14.0,0
-5.0,-233.0,-106.0,-26.0,126.0,13.0,0
-5.0,-231.0,-107.0,-24.0,125.0,14.0,0
-7.0,-231.0,-108.0,-23.0,127.0,15.0,0
-4.0,-231.0,-109.0,-24.0,127.0,14.0,0
-4.0,-233.0,-111.0,-24.0,127.0,16.0,0
-9.0,-232.0,-107.0,-24.0,130.0,15.0,0
-5.0,-231.0,-108.0,-25.0,129.0,16.0,0
-8.0,-232.0,-105.0,-28.0,131.0,18.0,0
-4.0,-231.0,-105.0,-30.0,131.0,17.0,0
-6.0,-234.0,-108.0,-31.0,130.0,17.0,0
-7.0,-231.0,-107.0,-31.0,132.0,18.0,0
-7.0,-233.0,-104.0,-29.0,131.0,19.0,0
-3.0,-236.0,-111.0,-27.0,132.0,20.0,0
-6.0,-235.0,-106.0,-25.0,130.0,21.0,0
-6.0,-233.0,-109.0,-22.0,132.0,20.0,0
-6.0,-232.0,-109.0,-18.0,133.0,21.0,0
-4.0,-230.0,-107.0,-14.0,134.0,21.0,0
-6.0,-234.0,-109.0,-12.0,134.0,23.0,0
-4.0,-236.0,-106.0,-12.0,135.0,24.0,0
-7.0,-234.0,-109.0,-11.0,134.0,24.0,0
-2.0,-234.0,-107.0,-11.0,136.0,25.0,0
-5.0,-234.0,-109.0,-13.0,135.0,26.0,0
-7.0,-234.0,-110.0,-14.0,134.0,27.0,0
-6.0,-234.0,-106.0,-15.0,136.0,27.0,0
-5.0,-236.0,-107.0,-14.0,135.0,27.0,0
-4.0,-235.0,-108.0,-14.0,136.0,29.0,0
-4.0,-231.0,-107.0,-14.0,138.0,30.0,0
-7.0,-231.0,-110.0,-12.0,140.0,30.0,0
-6.0,-230.0,-110.0,-11.0,141.0,33.0,0
-4.0,-234.0,-108.0,-11.0,142.0,34.0,0
-4.0,-233.0,-108.0,-10.0,143.0,34.0,0
-6.0,-233.0,-110.0,-10.0,142.0,35.0,0
-6.0,-234.0,-108.0,-10.0,143.0,36.0,0
-6.0,-231.0,-108.0,-11.0,142.0,37.0,0
-5.0,-232.0,-109.0,-12.0,143.0,36.0,0
-4.0,-232.0,-112.0,-13.0,143.0,36.0,0
-8.0,-234.0,-107.0,-12.0,144.0,38.0,0
-10.0,-231.0,-110.0,-13.0,143.0,38.0,0
-10.0,-230.0,-108.0,-12.0,143.0,39.0,0
-7.0,-229.0,-105.0,-13.0,144.0,40.0,0
-6.0,-234.0,-104.0,-14.0,144.0,41.0,0
-4.0,-230.0,-107.0,-14.0,144.0,42.0,0
-8.0,-231.0,-105.0,-14.0,146.0,40.0,0
-6.0,-231.0,-107.0,-15.0,145.0,43.0,0
-4.0,-234.0,-108.0,-17.0,145.0,42.0,0
-7.0,-232.0,-108.0,-17.0,145.0,42.0,0
-2.0,-232.0,-105.0,-17.0,143.0,41.0,0
-5.0,-233.0,-106.0,-15.0,143.0,40.0,0
-8.0,-233.0,-109.0,-15.0,141.0,40.0,0
-7.0,-232.0,-108.0,-14.0,141.0,39.0,0
-9.0,-233.0,-111.0,-13.0,140.0,39.0,0
-8.0,-233.0,-111.0,-11.0,138.0,37.0,0
-9.0,-233.0,-109.0,-10.0,135.0,35.0,0
-7.0,-234.0,-109.0,-9.0,135.0,34.0,0
-10.0,-235.0,-108.0,-7.0,133.0,34.0,0
-6.0,-232.0,-104.0,-7.0,133.0,34.0,0
-10.0,-228.0,-107.0,-6.0,131.0,33.0,0
-7.0,-230.0,-109.0,-6.0,130.0,33.0,0
-7.0,-232.0,-110.0,-6.0,130.0,33.0,0
-4.0,-232.0,-110.0,-8.0,129.0,34.0,0
-8.0,-233.0,-107.0,-10.0,126.0,34.0,0
-2.0,-231.0,-110.0,-12.0,125.0,33.0,0
-6.0,-233.0,-107.0,-14.0,124.0,33.0,0
-4.0,-233.0,-105.0,-18.0,123.0,33.0,0
-7.0,-232.0,-108.0,-22.0,121.0,33.0,0
-5.0,-234.0,-109.0,-24.0,118.0,32.0,0
-6.0,-232.0,-108.0,-27.0,117.0,31.0,0
-5.0,-235.0,-109.0,-28.0,117.0,30.0,0
-3.0,-238.0,-108.0,-26.0,116.0,28.0,0
-5.0,-236.0,-110.0,-21.0,115.0,26.0,0
-3.0,-237.0,-108.0,-18.0,114.0,25.0,0
-8.0,-234.0,-107.0,-15.0,115.0,23.0,0
-6.0,-236.0,-108.0,-10.0,114.0,22.0,0
-4.0,-236.0,-105.0,-7.0,113.0,21.0,0
-8.0,-235.0,-111.0,-3.0,113.0,20.0,0
-6.0,-233.0,-112.0,-1.0,112.0,19.0,0
-5.0,-233.0,-109.0,3.0,111.0,16.0,0
-6.0,-233.0,-107.0,5.0,111.0,17.0,0
-7.0,-233.0,-107.0,6.0,110.0,18.0,0
-6.0,-230.0,-111.0,7.0,110.0,18.0,0
-7.0,-231.0,-109.0,7.0,108.0,18.0,0
-8.0,-228.0,-107.0,6.0,108.0,16.0,0
-6.0,-227.0,-107.0,4.0,107.0,16.0,0
-7.0,-234.0,-107.0,1.0,107.0,17.0,0
-8.0,-232.0,-109.0,-2.0,106.0,19.0,0
-5.0,-229.0,-112.0,-3.0,106.0,18.0,0
-5.0,-231.0,-108.0,-5.0,106.0,18.0,0
-5.0,-232.0,-110.0,-8.0,105.0,18.0,0
-5.0,-234.0,-108.0,-10.0,104.0,16.0,0
-6.0,-233.0,-108.0,-11.0,103.0,17.0,0
-2.0,-233.0,-106.0,-13.0,101.0,17.0,0
-1.0,-232.0,-109.0,-14.0,101.0,18.0,0
-4.0,-234.0,-108.0,-13.0,101.0,16.0,0
-4.0,-233.0,-110.0,-12.0,100.0,16.0,0
-4.0,-234.0,-107.0,-10.0,99.0,15.0,0
-6.0,-232.0,-108.0,-8.0,99.0,17.0,0
-8.0,-234.0,-106.0,-4.0,99.0,17.0,0
-4.0,-236.0,-107.0,-2.0,100.0,17.0,0
-8.0,-233.0,-105.0,1.0,100.0,16.0,0
-6.0,-232.0,-105.0,3.0,98.0,15.0,0
-8.0,-231.0,-104.0,5.0,99.0,15.0,0
-8.0,-234.0,-109.0,8.0,97.0,16.0,0
-7.0,-231.0,-109.0,10.0,98.0,16.0,0
-3.0,-233.0,-113.0,9.0,96.0,14.0,0
-5.0,-232.0,-114.0,9.0,96.0,15.0,0
-5.0,-234.0,-104.0,10.0,94.0,15.0,0
-5.0,-233.0,-110.0,9.0,94.0,15.0,0
-6.0,-233.0,-108.0,9.0,91.0,14.0,0
-8.0,-233.0,-107.0,7.0,92.0,13.0,0
-5.0,-238.0,-106.0,6.0,91.0,12.0,0
-5.0,-232.0,-111.0,5.0,91.0,11.0,0
-7.0,-237.0,-109.0,3.0,91.0,11.0,0
-7.0,-231.0,-107.0,1.0,91.0,11.0,0
-5.0,-234.0,-107.0,-1.0,90.0,13.0,0
-5.0,-234.0,-111.0,-2.0,89.0,14.0,0
-3.0,-237.0,-109.0,-3.0,89.0,13.0,0
-5.0,-235.0,-108.0,-5.0,91.0,13.0,0
-9.0,-234.0,-106.0,-6.0,90.0,15.0,0
-7.0,-233.0,-109.0,-7.0,91.0,15.0,0
-7.0,-231.0,-108.0,-7.0,91.0,14.0,0
-6.0,-236.0,-107.0,-8.0,92.0,13.0,0
-6.0,-236.0,-111.0,-9.0,93.0,14.0,0
-4.0,-235.0,-113.0,-10.0,94.0,14.0,0
-4.0,-237.0,-109.0,-8.0,94.0,14.0,0
3.0,-236.0,-108.0,-6.0,96.0,16.0,0
-5.0,-238.0,-109.0,-4.0,97.0,15.0,0
-5.0,-238.0,-109.0,0.0,99.0,15.0,0
-4.0,-235.0,-111.0,3.0,101.0,13.0,0
-1.0,-234.0,-113.0,6.0,102.0,12.0,0
-5.0,-232.0,-115.0,7.0,105.0,13.0,0
-7.0,-230.0,-112.0,7.0,106.0,13.0,0
-8.0,-230.0,-115.0,2.0,108.0,12.0,0
-4.0,-230.0,-113.0,-1.0,112.0,11.0,0
-7.0,-229.0,-115.0,-5.0,113.0,10.0,0
-8.0,-229.0,-120.0,-9.0,115.0,10.0,0
-10.0,-231.0,-116.0,-14.0,117.0,11.0,0
-8.0,-234.0,-122.0,-19.0,119.0,12.0,0
-9.0,-233.0,-120.0,-24.0,120.0,12.0,0
-9.0,-234.0,-121.0,-27.0,123.0,13.0,0
-10.0,-234.0,-119.0,-29.0,127.0,15.0,0
-7.0,-237.0,-120.0,-29.0,129.0,17.0,0
-8.0,-236.0,-118.0,-24.0,129.0,19.0,0
-8.0,-235.0,-123.0,-20.0,129.0,19.0,0
-6.0,-233.0,-117.0,-13.0,128.0,20.0,0
-9.0,-233.0,-117.0,-6.0,126.0,19.0,0
-8.0,-228.0,-120.0,1.0,127.0,19.0,0
-12.0,-227.0,-118.0,3.0,124.0,18.0,0
-10.0,-227.0,-119.0,4.0,123.0,18.0,0
-11.0,-224.0,-120.0,3.0,121.0,15.0,0
-9.0,-220.0,-116.0,1.0,119.0,14.0,0
-13.0,-222.0,-119.0,-5.0,118.0,13.0,0
-10.0,-223.0,-121.0,-10.0,118.0,13.0,0
-11.0,-221.0,-125.0,-17.0,121.0,13.0,0
-13.0,-223.0,-124.0,-23.0,122.0,14.0,0
-10.0,-224.0,-122.0,-28.0,123.0,16.0,0
-12.0,-224.0,-124.0,-28.0,124.0,19.0,0
-12.0,-223.0,-125.0,-29.0,125.0,21.0,0
-10.0,-224.0,-124.0,-31.0,125.0,24.0,0
-11.0,-227.0,-124.0,-30.0,126.0,25.0,0
-12.0,-227.0,-128.0,-28.0,126.0,26.0,0
-13.0,-227.0,-125.0,-27.0,125.0,26.0,0
-9.0,-226.0,-126.0,-26.0,125.0,27.0,0
-10.0,-224.0,-126.0,-24.0,124.0,27.0,0
-9.0,-225.0,-123.0,-20.0,123.0,27.0,0
-12.0,-224.0,-126.0,-18.0,121.0,26.0,0
-8.0,-224.0,-127.0,-18.0,120.0,27.0,0
-10.0,-221.0,-125.0,-18.0,120.0,27.0,0
-10.0,-218.0,-126.0,-20.0,121.0,27.0,0
-10.0,-217.0,-126.0,-27.0,121.0,28.0,0
-9.0,-220.0,-126.0,-32.0,123.0,29.0,0
-9.0,-217.0,-128.0,-38.0,125.0,33.0,0
-10.0,-215.0,-130.0,-43.0,127.0,37.0,0
-7.0,-214.0,-134.0,-49.0,132.0,40.0,0
-8.0,-215.0,-134.0,-53.0,137.0,45.0,0
-9.0,-216.0,-136.0,-57.0,145.0,49.0,0
-4.0,-219.0,-141.0,-61.0,154.0,55.0,0
-7.0,-213.0,-140.0,-70.0,168.0,64.0,0
-6.0,-224.0,-142.0,-85.0,185.0,71.0,0
-2.0,-228.0,-143.0,-100.0,200.0,73.0,0
-4.0,-233.0,-144.0,-117.0,216.0,75.0,0
0.0,-231.0,-152.0,-128.0,236.0,75.0,0
-3.0,-230.0,-156.0,-138.0,261.0,75.0,0
-2.0,-235.0,-159.0,-145.0,295.0,73.0,0
-5.0,-233.0,-171.0,-154.0,328.0,67.0,0
-7.0,-237.0,-177.0,-156.0,363.0,58.0,0
-10.0,-236.0,-187.0,-160.0,393.0,38.0,0
-3.0,-243.0,-191.0,-163.0,407.0,7.0,0
-2.0,-253.0,-186.0,-142.0,401.0,-28.0,0
-3.0,-260.0,-182.0,-69.0,367.0,-68.0,0
-4.0,-263.0,-170.0,55.0,310.0,-111.0,0
-5.0,-256.0,-169.0,197.0,231.0,-146.0,0
3.0,-243.0,-169.0,323.0,151.0,-163.0,0
-9.0,-213.0,-172.0,408.0,89.0,-160.0,0
-5.0,-192.0,-176.0,448.0,61.0,-134.0,0
-9.0,-160.0,-180.0,441.0,59.0,-102.0,0
-13.0,-143.0,-182.0,393.0,67.0,-69.0,0
-22.0,-126.0,-184.0,311.0,71.0,-41.0,0
-27.0,-113.0,-182.0,208.0,69.0,-21.0,0
-30.0,-101.0,-186.0,92.0,69.0,1.0,0
-31.0,-95.0,-184.0,-28.0,79.0,27.0,0
-37.0,-83.0,-187.0,-147.0,103.0,58.0,0
-38.0,-81.0,-188.0,-256.0,135.0,91.0,0
-38.0,-78.0,-185.0,-352.0,164.0,124.0,0
-39.0,-79.0,-180.0,-426.0,182.0,151.0,0
-38.0,-78.0,-177.0,-480.0,189.0,171.0,0
-40.0,-75.0,-173.0,-520.0,195.0,188.0,0
-35.0,-74.0,-167.0,-550.0,197.0,202.0,0
-36.0,-72.0,-167.0,-577.0,199.0,216.0,0
-34.0,-66.0,-159.0,-599.0,191.0,232.0,0
-32.0,-62.0,-150.0,-609.0,183.0,242.0,0
-32.0,-56.0,-147.0,-616.0,178.0,249.0,0
-32.0,-45.0,-139.0,-633.0,167.0,257.0,0
-22.0,-31.0,-119.0,-659.0,144.0,271.0,0
-38.0,-18.0,-125.0,-708.0,117.0,290.0,0
-32.0,-11.0,-109.0,-780.0,98.0,303.0,0
-33.0,-7.0,-100.0,-860.0,84.0,316.0,0
-29.0,-15.0,-87.0,-955.0,70.0,334.0,0
-30.0,-18.0,-65.0,-1046.0,63.0,341.0,0
-29.0,-24.0,-55.0,-1114.0,46.0,360.0,0
-24.0,-32.0,-46.0,-1176.0,34.0,374.0,0
-24.0,-40.0,-39.0,-1241.0,41.0,380.0,0
-19.0,-41.0,-38.0,-1312.0,57.0,393.0,0
-19.0,-55.0,-35.0,-1384.0,80.0,415.0,0
-19.0,-70.0,-24.0,-1456.0,111.0,438.0,0
-17.0,-87.0,-13.0,-1514.0,150.0,466.0,0
-22.0,-101.0,-14.0,-1546.0,173.0,491.0,0
-32.0,-117.0,-9.0,-1579.0,177.0,511.0,0
-31.0,-126.0,-17.0,-1618.0,149.0,535.0,0
-25.0,-137.0,-20.0,-1664.0,128.0,551.0,0
-20.0,-161.0,-27.0,-1694.0,127.0,556.0,0
-20.0,-177.0,-42.0,-1687.0,144.0,560.0,0
-17.0,-191.0,-63.0,-1640.0,169.0,584.0,0
-7.0,-200.0,-78.0,-1566.0,182.0,620.0,0
10.0,-208.0,-107.0,-1475.0,189.0,656.0,0
19.0,-228.0,-123.0,-1364.0,204.0,687.0,0
27.0,-229.0,-122.0,-1237.0,228.0,713.0,0
32.0,-243.0,-123.0,-1091.0,235.0,735.0,0
24.0,-247.0,-120.0,-913.0,218.0,745.0,0
25.0,-237.0,-136.0,-697.0,163.0,735.0,0
31.0,-226.0,-156.0,-470.0,81.0,699.0,0
38.0,-205.0,-191.0,-287.0,-1.0,627.0,0
30.0,-185.0,-234.0,-207.0,-58.0,542.0,0
22.0,-169.0,-263.0,-241.0,-65.0,469.0,0
-1.0,-166.0,-267.0,-368.0,-11.0,401.0,0
-39.0,-176.0,-230.0,-555.0,76.0,338.0,0
-61.0,-192.0,-189.0,-743.0,141.0,282.0,0
-73.0,-221.0,-129.0,-906.0,178.0,225.0,0
-65.0,-261.0,-81.0,-986.0,200.0,197.0,0
-47.0,-295.0,-39.0,-957.0,195.0,212.0,0
-33.0,-326.0,-20.0,-830.0,168.0,259.0,0
-22.0,-332.0,-14.0,-625.0,137.0,310.0,0
-15.0,-317.0,-33.0,-384.0,136.0,348.0,0
-37.0,-318.0,-58.0,-176.0,166.0,366.0,0
-54.0,-312.0,-69.0,12.0,198.0,398.0,0
-63.0,-295.0,-82.0,128.0,206.0,449.0,0
-68.0,-273.0,-107.0,153.0,161.0,506.0,0
-43.0,-257.0,-135.0,86.0,88.0,545.0,0
-45.0,-240.0,-153.0,-41.0,33.0,535.0,0
-48.0,-218.0,-177.0,-187.0,-16.0,495.0,0
-40.0,-201.0,-194.0,-328.0,-39.0,452.0,0
-37.0,-187.0,-205.0,-446.0,-19.0,406.0,0
-34.0,-182.0,-216.0,-519.0,36.0,358.0,0
-24.0,-175.0,-221.0,-549.0,117.0,322.0,0
-21.0,-180.0,-212.0,-539.0,213.0,297.0,0
-4.0,-194.0,-206.0,-473.0,305.0,286.0,0
3.0,-194.0,-190.0,-368.0,371.0,275.0,0
17.0,-206.0,-175.0,-245.0,409.0,263.0,0
15.0,-217.0,-166.0,-129.0,426.0,232.0,0
9.0,-223.0,-143.0,-34.0,424.0,177.0,0
15.0,-226.0,-146.0,79.0,395.0,126.0,0
7.0,-229.0,-143.0,165.0,389.0,71.0,0
0.0,-233.0,-143.0,212.0,379.0,39.0,0
-10.0,-244.0,-154.0,218.0,355.0,9.0,0
-27.0,-255.0,-166.0,207.0,319.0,-8.0,0
-22.0,-268.0,-177.0,216.0,265.0,-30.0,0
-27.0,-273.0,-184.0,262.0,222.0,-68.0,0
-35.0,-278.0,-189.0,347.0,199.0,-107.0,0
-54.0,-283.0,-192.0,461.0,185.0,-144.0,0
-64.0,-282.0,-194.0,593.0,171.0,-158.0,0
-74.0,-287.0,-193.0,724.0,169.0,-149.0,0
-91.0,-283.0,-191.0,843.0,164.0,-129.0,0
-100.0,-281.0,-182.0,940.0,155.0,-86.0,0
-102.0,-280.0,-173.0,1021.0,145.0,-30.0,0
-97.0,-278.0,-167.0,1093.0,129.0,33.0,0
-88.0,-278.0,-165.0,1159.0,117.0,85.0,0
-80.0,-277.0,-160.0,1231.0,109.0,135.0,0
-76.0,-277.0,-158.0,1312.0,101.0,166.0,0
-63.0,-281.0,-159.0,1391.0,82.0,175.0,0
-47.0,-269.0,-162.0,1454.0,63.0,160.0,0
-41.0,-265.0,-163.0,1503.0,47.0,133.0,0
-27.0,-254.0,-167.0,1540.0,39.0,99.0,0
-23.0,-243.0,-172.0,1576.0,43.0,56.0,0
-12.0,-236.0,-170.0,1606.0,54.0,15.0,0
-12.0,-226.0,-162.0,1636.0,61.0,-26.0,0
-8.0,-219.0,-155.0,1660.0,70.0,-62.0,0
-8.0,-220.0,-145.0,1678.0,81.0,-98.0,0
-6.0,-221.0,-139.0,1684.0,95.0,-131.0,0
-5.0,-228.0,-128.0,1683.0,107.0,-166.0,0
-11.0,-234.0,-124.0,1679.0,117.0,-200.0,0
-1.0,-251.0,-120.0,1680.0,122.0,-230.0,0
0.0,-272.0,-108.0,1685.0,127.0,-260.0,0
-3.0,-289.0,-96.0,1713.0,131.0,-284.0,0
-2.0,-320.0,-86.0,1769.0,123.0,-315.0,0
-7.0,-368.0,-57.0,1861.0,107.0,-351.0,0
-12.0,-475.0,31.0,2042.0,96.0,-368.0,0
-15.0,-567.0,22.0,2423.0,79.0,-362.0,0
-29.0,-602.0,-23.0,3007.0,81.0,-358.0,0
-32.0,-637.0,-39.0,3731.0,105.0,-355.0,0
-27.0,-702.0,-21.0,4549.0,129.0,-383.0,0
-31.0,-771.0,15.0,5523.0,158.0,-452.0,0
-41.0,-727.0,-45.0,6640.0,201.0,-516.0,0
-45.0,-633.0,-144.0,7578.0,258.0,-548.0,0
-38.0,-420.0,-326.0,7950.0,307.0,-571.0,0
-37.0,-282.0,-438.0,7526.0,311.0,-589.0,0
-37.0,-184.0,-475.0,6448.0,268.0,-585.0,0
-35.0,-119.0,-453.0,5006.0,205.0,-557.0,0
-32.0,-94.0,-385.0,3470.0,132.0,-502.0,0
-33.0,-121.0,-263.0,2052.0,40.0,-424.0,0
-39.0,-174.0,-137.0,968.0,-71.0,-355.0,0
-34.0,-220.0,-38.0,294.0,-178.0,-319.0,0
-26.0,-253.0,31.0,-24.0,-254.0,-317.0,0
-7.0,-295.0,55.0,-91.0,-283.0,-331.0,0
5.0,-314.0,57.0,-6.0,-269.0,-344.0,0
-6.0,-320.0,46.0,136.0,-225.0,-345.0,0
-18.0,-320.0,44.0,272.0,-198.0,-347.0,0
-18.0,-319.0,24.0,364.0,-180.0,-354.0,0
-24.0,-307.0,12.0,403.0,-154.0,-351.0,0
-28.0,-295.0,11.0,422.0,-130.0,-340.0,0
-24.0,-275.0,13.0,425.0,-114.0,-324.0,0
-21.0,-261.0,14.0,410.0,-106.0,-307.0,0
-20.0,-256.0,25.0,382.0,-97.0,-296.0,0
-15.0,-247.0,39.0,358.0,-94.0,-290.0,0
-12.0,-242.0,46.0,339.0,-106.0,-288.0,0
-9.0,-236.0,60.0,323.0,-121.0,-288.0,0
-10.0,-238.0,74.0,326.0,-138.0,-276.0,0
-7.0,-239.0,83.0,352.0,-154.0,-257.0,0
-1.0,-244.0,82.0,389.0,-174.0,-227.0,0
-1.0,-245.0,82.0,432.0,-185.0,-203.0,0
-7.0,-249.0,84.0,475.0,-193.0,-184.0,0
-2.0,-254.0,85.0,518.0,-189.0,-177.0,0
-7.0,-254.0,81.0,565.0,-172.0,-177.0,0
6.0,-257.0,85.0,606.0,-140.0,-178.0,0
0.0,-261.0,67.0,645.0,-100.0,-176.0,0
0.0,-259.0,61.0,673.0,-58.0,-176.0,0
2.0,-260.0,47.0,696.0,-17.0,-170.0,0
1.0,-261.0,45.0,703.0,11.0,-164.0,0
0.0,-258.0,36.0,693.0,27.0,-157.0,0
-3.0,-256.0,27.0,662.0,39.0,-150.0,0
-1.0,-255.0,21.0,615.0,49.0,-141.0,0
-1.0,-252.0,15.0,552.0,56.0,-132.0,0
0.0,-253.0,11.0,489.0,69.0,-122.0,0
-4.0,-256.0,11.0,433.0,78.0,-113.0,0
0.0,-256.0,7.0,385.0,79.0,-107.0,0
0.0,-255.0,5.0,349.0,80.0,-101.0,0
6.0,-257.0,2.0,328.0,82.0,-95.0,0
10.0,-259.0,-3.0,323.0,81.0,-99.0,0
9.0,-257.0,-4.0,330.0,78.0,-109.0,0
12.0,-256.0,-10.0,352.0,75.0,-117.0,0
14.0,-257.0,-13.0,375.0,74.0,-131.0,0
16.0,-257.0,-11.0,389.0,69.0,-142.0,0
13.0,-256.0,-13.0,398.0,67.0,-153.0,0
19.0,-254.0,-12.0,396.0,65.0,-158.0,0
12.0,-253.0,-12.0,383.0,62.0,-166.0,0
4.0,-252.0,-14.0,359.0,64.0,-174.0,0
9.0,-248.0,-11.0,322.0,66.0,-179.0,0
13.0,-250.0,-6.0,277.0,72.0,-179.0,0
11.0,-254.0,-8.0,234.0,80.0,-180.0,0
6.0,-256.0,-8.0,197.0,89.0,-183.0,0
7.0,-257.0,-5.0,173.0,95.0,-185.0,0
7.0,-256.0,-3.0,160.0,101.0,-182.0,0
8.0,-258.0,-4.0,158.0,109.0,-177.0,0
8.0,-256.0,-3.0,165.0,118.0,-168.0,0
5.0,-257.0,-1.0,182.0,123.0,-152.0,0
4.0,-258.0,-1.0,203.0,120.0,-132.0,0
9.0,-257.0,2.0,227.0,110.0,-114.0,0
9.0,-255.0,0.0,249.0,106.0,-95.0,0
12.0,-254.0,0.0,270.0,105.0,-77.0,0
15.0,-257.0,0.0,284.0,106.0,-64.0,0
14.0,-260.0,0.0,296.0,109.0,-59.0,0
16.0,-255.0,-1.0,299.0,112.0,-55.0,0
17.0,-254.0,-3.0,291.0,117.0,-52.0,0
15.0,-251.0,-2.0,271.0,116.0,-52.0,0
19.0,-255.0,0.0,244.0,114.0,-55.0,0
15.0,-254.0,2.0,224.0,113.0,-57.0,0
16.0,-259.0,0.0,197.0,110.0,-58.0,0
13.0,-255.0,1.0,176.0,109.0,-61.0,0
13.0,-256.0,4.0,159.0,108.0,-65.0,0
9.0,-256.0,7.0,146.0,103.0,-65.0,0
8.0,-256.0,9.0,133.0,100.0,-67.0,0
9.0,-255.0,9.0,125.0,98.0,-68.0,0
7.0,-256.0,12.0,124.0,99.0,-65.0,0
6.0,-257.0,15.0,130.0,99.0,-67.0,0
8.0,-256.0,20.0,143.0,99.0,-63.0,0
9.0,-257.0,26.0,157.0,97.0,-61.0,0
6.0,-260.0,27.0,176.0,96.0,-58.0,0
11.0,-258.0,21.0,200.0,99.0,-50.0,0
11.0,-259.0,22.0,224.0,110.0,-39.0,0
7.0,-260.0,20.0,248.0,121.0,-28.0,0
2.0,-260.0,22.0,275.0,130.0,-17.0,0
-2.0,-260.0,30.0,300.0,134.0,-10.0,0
3.0,-263.0,29.0,322.0,132.0,-1.0,0
3.0,-265.0,28.0,338.0,129.0,7.0,0
4.0,-263.0,24.0,344.0,129.0,8.0,0
-3.0,-265.0,31.0,347.0,130.0,8.0,0
1.0,-273.0,27.0,352.0,124.0,5.0,0
0.0,-271.0,29.0,358.0,127.0,-5.0,0
4.0,-268.0,36.0,370.0,127.0,-10.0,0
-1.0,-271.0,38.0,388.0,122.0,-10.0,0
-5.0,-267.0,40.0,407.0,110.0,-9.0,0
-7.0,-267.0,42.0,427.0,100.0,-6.0,0
-3.0,-268.0,45.0,449.0,98.0,-1.0,0
-1.0,-270.0,39.0,467.0,109.0,-1.0,0
-5.0,-270.0,42.0,481.0,121.0,-13.0,0
-1.0,-272.0,44.0,489.0,123.0,-26.0,0
-2.0,-270.0,42.0,497.0,119.0,-36.0,0
-4.0,-266.0,45.0,500.0,111.0,-39.0,0
-4.0,-265.0,44.0,498.0,101.0,-42.0,0
0.0,-262.0,45.0,494.0,91.0,-41.0,0
0.0,-259.0,41.0,486.0,81.0,-37.0,0
0.0,-259.0,41.0,475.0,75.0,-31.0,0
1.0,-255.0,45.0,459.0,70.0,-27.0,0
3.0,-255.0,43.0,441.0,67.0,-24.0,0
3.0,-257.0,43.0,421.0,64.0,-19.0,0
2.0,-253.0,46.0,401.0,59.0,-16.0,0
2.0,-252.0,44.0,374.0,53.0,-7.0,0
8.0,-251.0,43.0,338.0,54.0,2.0,0
14.0,-249.0,43.0,299.0,62.0,6.0,0
13.0,-252.0,40.0,262.0,70.0,7.0,0
9.0,-252.0,46.0,232.0,73.0,5.0,0
9.0,-253.0,48.0,205.0,71.0,15.0,0
9.0,-252.0,44.0,191.0,69.0,32.0,0
6.0,-255.0,45.0,181.0,77.0,45.0,0
4.0,-256.0,46.0,168.0,79.0,50.0,0
3.0,-259.0,42.0,150.0,78.0,53.0,0
1.0,-259.0,47.0,126.0,69.0,51.0,0
7.0,-261.0,44.0,89.0,47.0,42.0,0
1.0,-260.0,47.0,45.0,18.0,27.0,0
5.0,-259.0,48.0,6.0,-4.0,13.0,0
5.0,-259.0,50.0,-22.0,-16.0,5.0,0
7.0,-258.0,49.0,-38.0,-17.0,2.0,0
5.0,-257.0,48.0,-43.0,-6.0,1.0,0
5.0,-256.0,44.0,-38.0,12.0,0.0,0
9.0,-256.0,48.0,-27.0,34.0,-2.0,0
11.0,-259.0,53.0,-5.0,58.0,-3.0,0
12.0,-258.0,52.0,20.0,78.0,-9.0,0
13.0,-257.0,48.0,42.0,100.0,-18.0,0
14.0,-259.0,52.0,62.0,116.0,-27.0,0
16.0,-259.0,53.0,80.0,128.0,-37.0,0
11.0,-258.0,50.0,95.0,132.0,-51.0,0
12.0,-256.0,50.0,109.0,133.0,-65.0,0
9.0,-256.0,51.0,118.0,132.0,-79.0,0
8.0,-256.0,49.0,122.0,129.0,-92.0,0
5.0,-256.0,50.0,123.0,126.0,-101.0,0
3.0,-257.0,46.0,121.0,122.0,-106.0,0
1.0,-254.0,42.0,121.0,118.0,-106.0,0
0.0,-254.0,44.0,118.0,112.0,-103.0,0
2.0,-254.0,39.0,115.0,106.0,-95.0,0
0.0,-252.0,45.0,114.0,98.0,-83.0,0
1.0,-251.0,45.0,114.0,92.0,-70.0,0
3.0,-254.0,39.0,117.0,86.0,-56.0,0
1.0,-253.0,39.0,119.0,82.0,-44.0,0
2.0,-254.0,38.0,123.0,81.0,-32.0,0
3.0,-255.0,35.0,124.0,84.0,-19.0,0
1.0,-256.0,34.0,126.0,88.0,-6.0,0
5.0,-256.0,28.0,127.0,93.0,5.0,0
3.0,-257.0,30.0,129.0,97.0,13.0,0
7.0,-263.0,33.0,132.0,101.0,21.0,0
4.0,-259.0,32.0,136.0,102.0,26.0,0
1.0,-258.0,29.0,140.0,100.0,28.0,0
2.0,-265.0,30.0,141.0,98.0,31.0,0
2.0,-258.0,31.0,138.0,90.0,33.0,0
-1.0,-256.0,32.0,129.0,83.0,32.0,0
-3.0,-263.0,34.0,115.0,76.0,32.0,0
0.0,-259.0,32.0,99.0,68.0,32.0,0
-5.0,-256.0,33.0,84.0,61.0,34.0,0
-7.0,-256.0,34.0,69.0,52.0,41.0,0
-7.0,-257.0,32.0,55.0,46.0,47.0,0
-4.0,-257.0,33.0,43.0,39.0,56.0,0
-4.0,-257.0,34.0,35.0,37.0,62.0,0
-6.0,-257.0,31.0,28.0,37.0,71.0,0
-7.0,-258.0,35.0,23.0,38.0,76.0,0
-1.0,-260.0,36.0,16.0,42.0,83.0,0
-2.0,-259.0,36.0,9.0,47.0,87.0,0
-3.0,-260.0,41.0,2.0,54.0,90.0,0
1.0,-262.0,40.0,-7.0,64.0,87.0,0
4.0,-264.0,41.0,-11.0,73.0,81.0,0
5.0,-266.0,44.0,-12.0,86.0,78.0,0
7.0,-271.0,41.0,-12.0,99.0,68.0,0
6.0,-267.0,45.0,-9.0,112.0,54.0,0
7.0,-271.0,47.0,-1.0,122.0,44.0,0
9.0,-269.0,46.0,8.0,129.0,30.0,0
7.0,-271.0,49.0,21.0,131.0,18.0,0
10.0,-272.0,51.0,35.0,131.0,6.0,0
5.0,-271.0,53.0,51.0,127.0,-4.0,0
3.0,-272.0,58.0,66.0,115.0,-13.0,0
3.0,-269.0,54.0,77.0,101.0,-21.0,0
0.0,-271.0,55.0,84.0,86.0,-27.0,0
-1.0,-267.0,53.0,84.0,70.0,-30.0,0
1.0,-269.0,55.0,82.0,56.0,-31.0,0
0.0,-267.0,57.0,78.0,43.0,-34.0,0
0.0,-268.0,56.0,77.0,34.0,-36.0,0
1.0,-262.0,53.0,75.0,25.0,-32.0,0
4.0,-265.0,51.0,70.0,21.0,-29.0,0
4.0,-264.0,47.0,68.0,24.0,-27.0,0
1.0,-266.0,46.0,64.0,28.0,-21.0,0
5.0,-265.0,46.0,62.0,34.0,-14.0,0
4.0,-266.0,47.0,63.0,44.0,-7.0,0
8.0,-266.0,47.0,65.0,58.0,0.0,0
10.0,-266.0,45.0,70.0,72.0,7.0,0
13.0,-267.0,43.0,71.0,87.0,10.0,0
15.0,-268.0,45.0,67.0,99.0,9.0,0
20.0,-265.0,45.0,53.0,105.0,4.0,0
15.0,-263.0,45.0,33.0,103.0,-5.0,0
20.0,-267.0,45.0,12.0,99.0,-16.0,0
18.0,-261.0,50.0,-8.0,90.0,-26.0,0
23.0,-267.0,57.0,-23.0,78.0,-39.0,0
18.0,-261.0,51.0,-35.0,67.0,-49.0,0
20.0,-261.0,54.0,-37.0,54.0,-63.0,0
23.0,-262.0,53.0,-34.0,44.0,-75.0,0
20.0,-259.0,50.0,-28.0,36.0,-86.0,0
18.0,-258.0,48.0,-20.0,27.0,-95.0,0
15.0,-259.0,47.0,-12.0,22.0,-98.0,0
13.0,-256.0,49.0,-6.0,21.0,-98.0,0
10.0,-256.0,48.0,-8.0,23.0,-93.0,0
11.0,-256.0,43.0,-11.0,26.0,-82.0,0
5.0,-256.0,41.0,-18.0,30.0,-67.0,0
4.0,-255.0,42.0,-28.0,36.0,-46.0,0
-2.0,-254.0,42.0,-39.0,39.0,-23.0,0
0.0,-256.0,40.0,-52.0,43.0,1.0,0
-3.0,-257.0,45.0,-66.0,44.0,26.0,0
-2.0,-259.0,44.0,-78.0,43.0,50.0,0
-5.0,-258.0,43.0,-86.0,44.0,68.0,0
-4.0,-261.0,46.0,-91.0,43.0,85.0,0
-3.0,-263.0,44.0,-91.0,44.0,99.0,0
-3.0,-267.0,47.0,-86.0,44.0,105.0,0
-5.0,-265.0,49.0,-77.0,46.0,110.0,0
-6.0,-268.0,50.0,-66.0,45.0,112.0,0
-14.0,-264.0,44.0,-53.0,46.0,111.0,0
0.0,-268.0,47.0,-38.0,45.0,106.0,0
0.0,-266.0,49.0,-25.0,44.0,100.0,0
0.0,-267.0,48.0,-16.0,44.0,95.0,0
1.0,-268.0,45.0,-7.0,44.0,88.0,0
3.0,-268.0,44.0,-5.0,44.0,77.0,0
4.0,-270.0,43.0,-8.0,44.0,65.0,0
4.0,-267.0,42.0,-17.0,45.0,55.0,0
1.0,-269.0,38.0,-28.0,45.0,44.0,0
2.0,-268.0,42.0,-42.0,46.0,36.0,0
1.0,-266.0,39.0,-56.0,51.0,26.0,0
0.0,-266.0,40.0,-71.0,54.0,19.0,0
0.0,-267.0,39.0,-84.0,57.0,16.0,0
0.0,-266.0,39.0,-95.0,62.0,12.0,0
-1.0,-265.0,41.0,-102.0,66.0,9.0,0
-2.0,-265.0,38.0,-105.0,71.0,8.0,0
-2.0,-266.0,43.0,-106.0,76.0,9.0,0
-2.0,-263.0,41.0,-105.0,80.0,10.0,0
-4.0,-267.0,48.0,-104.0,82.0,14.0,0
-5.0,-263.0,43.0,-101.0,83.0,17.0,0
-4.0,-267.0,44.0,-95.0,85.0,22.0,0
-3.0,-264.0,35.0,-88.0,86.0,24.0,0
-6.0,-267.0,47.0,-80.0,88.0,28.0,0
-2.0,-264.0,46.0,-72.0,89.0,30.0,0
-3.0,-264.0,43.0,-66.0,87.0,31.0,0
-3.0,-264.0,50.0,-62.0,87.0,30.0,0
-3.0,-263.0,45.0,-57.0,86.0,31.0,0
3.0,-265.0,49.0,-51.0,82.0,33.0,0
1.0,-265.0,50.0,-47.0,77.0,30.0,0
1.0,-264.0,43.0,-42.0,76.0,31.0,0
1.0,-264.0,47.0,-36.0,73.0,28.0,0
3.0,-267.0,48.0,-29.0,71.0,26.0,0
5.0,-268.0,44.0,-20.0,71.0,22.0,0
1.0,-263.0,47.0,-10.0,70.0,20.0,0
4.0,-266.0,48.0,-1.0,68.0,16.0,0
7.0,-265.0,45.0,5.0,68.0,12.0,0
9.0,-261.0,46.0,10.0,67.0,9.0,0
7.0,-266.0,49.0,13.0,64.0,6.0,0
8.0,-263.0,48.0,14.0,63.0,4.0,0
8.0,-262.0,43.0,16.0,59.0,3.0,0
5.0,-260.0,44.0,13.0,57.0,0.0,0
8.0,-266.0,47.0,12.0,54.0,-1.0,0
4.0,-270.0,51.0,11.0,52.0,0.0,0
4.0,-263.0,48.0,10.0,51.0,-1.0,0
6.0,-263.0,44.0,8.0,51.0,-1.0,0
2.0,-263.0,45.0,7.0,50.0,1.0,0
4.0,-260.0,46.0,6.0,50.0,2.0,0
3.0,-264.0,47.0,6.0,48.0,3.0,0
2.0,-260.0,47.0,6.0,45.0,1.0,0
1.0,-263.0,43.0,7.0,43.0,2.0,0
1.0,-260.0,46.0,7.0,39.0,5.0,0
2.0,-263.0,47.0,6.0,34.0,5.0,0
1.0,-261.0,47.0,5.0,29.0,5.0,0
2.0,-262.0,47.0,1.0,23.0,5.0,0
1.0,-262.0,47.0,-3.0,19.0,6.0,0
0.0,-261.0,44.0,-5.0,18.0,6.0,0
4.0,-262.0,45.0,-7.0,16.0,8.0,0
2.0,-260.0,46.0,-9.0,13.0,8.0,0
-2.0,-259.0,45.0,-9.0,13.0,9.0,0
0.0,-261.0,45.0,-9.0,15.0,13.0,0
2.0,-263.0,42.0,-7.0,17.0,15.0,0
1.0,-263.0,41.0,-6.0,18.0,17.0,0
2.0,-258.0,42.0,-3.0,23.0,20.0,0
2.0,-259.0,42.0,0.0,28.0,22.0,0
11.0,-262.0,33.0,2.0,34.0,22.0,0
3.0,-259.0,40.0,2.0,39.0,19.0,0
6.0,-261.0,45.0,-1.0,44.0,17.0,0
5.0,-261.0,43.0,-4.0,48.0,16.0,0
4.0,-260.0,42.0,-10.0,52.0,13.0,0
6.0,-260.0,44.0,-14.0,56.0,10.0,0
7.0,-261.0,41.0,-18.0,58.0,7.0,0
5.0,-260.0,44.0,-21.0,60.0,3.0,0
6.0,-259.0,43.0,-23.0,62.0,0.0,0
5.0,-263.0,43.0,-22.0,64.0,0.0,0
6.0,-263.0,44.0,-20.0,67.0,-1.0,0
5.0,-262.0,43.0,-14.0,70.0,0.0,0
6.0,-258.0,44.0,-10.0,72.0,0.0,0
3.0,-263.0,47.0,-8.0,73.0,2.0,0
1.0,-261.0,45.0,-5.0,75.0,2.0,0
3.0,-263.0,42.0,-6.0,76.0,6.0,0
1.0,-260.0,48.0,-7.0,77.0,8.0,0
1.0,-259.0,42.0,-9.0,77.0,9.0,0
0.0,-260.0,41.0,-11.0,79.0,11.0,0
0.0,-263.0,46.0,-13.0,79.0,11.0,0
1.0,-263.0,41.0,-15.0,78.0,12.0,0
0.0,-262.0,43.0,-17.0,77.0,12.0,0
2.0,-274.0,51.0,-18.0,76.0,11.0,0
-1.0,-262.0,43.0,-21.0,77.0,12.0,0
0.0,-262.0,44.0,-23.0,76.0,9.0,0
5.0,-265.0,46.0,-25.0,76.0,9.0,0
0.0,-261.0,48.0,-26.0,77.0,8.0,0
0.0,-262.0,41.0,-26.0,77.0,6.0,0
1.0,-266.0,41.0,-27.0,79.0,5.0,0
-2.0,-264.0,45.0,-25.0,78.0,3.0,0
1.0,-261.0,48.0,-25.0,78.0,2.0,0
1.0,-267.0,43.0,-26.0,79.0,-2.0,0
0.0,-263.0,43.0,-24.0,80.0,-1.0,0
1.0,-264.0,46.0,-21.0,82.0,-2.0,0
0.0,-265.0,45.0,-18.0,85.0,-4.0,0
0.0,-260.0,45.0,-12.0,86.0,-3.0,0
0.0,-264.0,42.0,-7.0,87.0,-4.0,0
1.0,-265.0,43.0,-4.0,89.0,-4.0,0
0.0,-265.0,43.0,-1.0,90.0,-5.0,0
1.0,-265.0,44.0,1.0,89.0,-4.0,0
0.0,-266.0,41.0,2.0,90.0,-7.0,0
1.0,-263.0,42.0,3.0,90.0,-5.0,0
2.0,-265.0,48.0,4.0,90.0,-7.0,0
4.0,-264.0,47.0,5.0,89.0,-7.0,0
0.0,-262.0,44.0,6.0,90.0,-8.0,0
1.0,-264.0,47.0,7.0,89.0,-6.0,0
0.0,-265.0,43.0,9.0,87.0,-9.0,0
1.0,-261.0,44.0,9.0,86.0,-7.0,0
1.0,-262.0,45.0,11.0,86.0,-8.0,0
0.0,-263.0,46.0,12.0,86.0,-10.0,0
0.0,-262.0,47.0,14.0,86.0,-9.0,0
0.0,-265.0,45.0,16.0,85.0,-9.0,0
0.0,-262.0,45.0,17.0,84.0,-10.0,0
2.0,-264.0,44.0,18.0,82.0,-11.0,0
0.0,-265.0,48.0,15.0,81.0,-12.0,0
1.0,-264.0,47.0,15.0,80.0,-11.0,0
1.0,-264.0,49.0,14.0,80.0,-11.0,0
1.0,-264.0,47.0,12.0,78.0,-11.0,0
0.0,-263.0,44.0,12.0,77.0,-12.0,0
0.0,-268.0,45.0,15.0,76.0,-13.0,0
0.0,-264.0,47.0,16.0,76.0,-14.0,0
0.0,-263.0,45.0,16.0,74.0,-13.0,0
0.0,-263.0,47.0,18.0,74.0,-13.0,0
-2.0,-265.0,47.0,20.0,71.0,-13.0,0
1.0,-261.0,44.0,22.0,70.0,-12.0,0
0.0,-262.0,46.0,22.0,70.0,-14.0,0
0.0,-260.0,44.0,24.0,68.0,-13.0,0
0.0,-264.0,45.0,23.0,66.0,-13.0,0
0.0,-260.0,45.0,23.0,65.0,-12.0,0
0.0,-263.0,44.0,20.0,63.0,-12.0,0
1.0,-263.0,42.0,16.0,60.0,-12.0,0
0.0,-259.0,47.0,12.0,58.0,-13.0,0
0.0,-264.0,45.0,9.0,56.0,-12.0,0
-1.0,-265.0,47.0,5.0,55.0,-14.0,0
0.0,-262.0,48.0,2.0,53.0,-15.0,0
1.0,-260.0,49.0,1.0,53.0,-15.0,0
1.0,-259.0,45.0,0.0,53.0,-16.0,0
0.0,-262.0,45.0,0.0,54.0,-16.0,0
0.0,-261.0,50.0,2.0,53.0,-15.0,0
1.0,-260.0,47.0,5.0,55.0,-16.0,0
3.0,-264.0,46.0,5.0,56.0,-17.0,0
2.0,-261.0,46.0,6.0,57.0,-19.0,0
1.0,-259.0,50.0,7.0,58.0,-17.0,0
1.0,-260.0,46.0,8.0,56.0,-17.0,0
1.0,-261.0,48.0,9.0,58.0,-18.0,0
3.0,-261.0,47.0,9.0,58.0,-17.0,0
2.0,-261.0,47.0,9.0,58.0,-16.0,0
2.0,-262.0,50.0,7.0,56.0,-17.0,0
4.0,-262.0,49.0,7.0,57.0,-16.0,0
1.0,-261.0,48.0,3.0,55.0,-15.0,0
2.0,-261.0,46.0,2.0,55.0,-14.0,0
2.0,-264.0,46.0,1.0,54.0,-14.0,0
1.0,-261.0,48.0,-1.0,54.0,-13.0,0
2.0,-262.0,46.0,-3.0,54.0,-11.0,0
1.0,-261.0,49.0,-3.0,53.0,-11.0,0
6.0,-263.0,45.0,-1.0,51.0,-11.0,0
2.0,-260.0,46.0,-3.0,51.0,-10.0,0
4.0,-263.0,48.0,-4.0,52.0,-9.0,0
3.0,-264.0,47.0,-4.0,53.0,-10.0,0
4.0,-261.0,45.0,-6.0,52.0,-10.0,0
3.0,-259.0,47.0,-7.0,53.0,-10.0,0
4.0,-263.0,49.0,-7.0,53.0,-11.0,0
3.0,-263.0,44.0,-9.0,54.0,-11.0,0
2.0,-260.0,46.0,-9.0,52.0,-11.0,0
1.0,-262.0,42.0,-8.0,52.0,-12.0,0
2.0,-265.0,45.0,-6.0,52.0,-13.0,0
4.0,-263.0,45.0,-5.0,53.0,-12.0,0
3.0,-263.0,42.0,-4.0,54.0,-13.0,0
2.0,-263.0,47.0,-3.0,55.0,-12.0,0
1.0,-260.0,44.0,-4.0,55.0,-12.0,0
0.0,-261.0,43.0,-2.0,56.0,-12.0,0
2.0,-264.0,46.0,0.0,56.0,-10.0,0
3.0,-262.0,46.0,-2.0,59.0,-11.0,0
3.0,-258.0,46.0,-1.0,59.0,-10.0,0
2.0,-260.0,46.0,-3.0,62.0,-10.0,0
2.0,-264.0,44.0,-2.0,61.0,-10.0,0
2.0,-260.0,47.0,-1.0,60.0,-10.0,0
2.0,-261.0,49.0,-3.0,62.0,-9.0,0
2.0,-259.0,46.0,-2.0,64.0,-9.0,0
2.0,-262.0,47.0,-1.0,63.0,-9.0,0
2.0,-263.0,49.0,-1.0,65.0,-9.0,0
0.0,-262.0,48.0,-1.0,66.0,-9.0,0
2.0,-259.0,45.0,-2.0,67.0,-8.0,0
1.0,-262.0,48.0,-1.0,67.0,-7.0,0
5.0,-264.0,46.0,-1.0,70.0,-7.0,0
2.0,-265.0,46.0,-1.0,71.0,-8.0,0
3.0,-264.0,49.0,-1.0,72.0,-8.0,0
2.0,-263.0,50.0,-1.0,73.0,-10.0,0
3.0,-266.0,46.0,1.0,72.0,-11.0,0
2.0,-265.0,49.0,1.0,71.0,-13.0,0
1.0,-257.0,47.0,3.0,71.0,-13.0,0
1.0,-261.0,48.0,5.0,72.0,-12.0,0
1.0,-259.0,44.0,5.0,72.0,-11.0,0
1.0,-264.0,47.0,5.0,73.0,-10.0,0
3.0,-262.0,48.0,5.0,73.0,-11.0,0
2.0,-260.0,49.0,4.0,73.0,-10.0,0
2.0,-261.0,48.0,4.0,73.0,-9.0,0
2.0,-261.0,51.0,3.0,74.0,-9.0,0
2.0,-262.0,48.0,2.0,74.0,-8.0,0
1.0,-262.0,48.0,2.0,75.0,-8.0,0
1.0,-262.0,50.0,0.0,75.0,-8.0,0
4.0,-260.0,46.0,-2.0,75.0,-5.0,0
2.0,-260.0,49.0,-4.0,75.0,-5.0,0
2.0,-262.0,49.0,-5.0,76.0,-5.0,0
4.0,-264.0,49.0,-7.0,75.0,-6.0,0
2.0,-262.0,47.0,-8.0,76.0,-5.0,0
1.0,-262.0,47.0,-8.0,74.0,-6.0,0
2.0,-261.0,45.0,-7.0,73.0,-6.0,0
2.0,-262.0,50.0,-7.0,73.0,-6.0,0
2.0,-262.0,46.0,-8.0,73.0,-6.0,0
2.0,-267.0,48.0,-8.0,73.0,-6.0,0
5.0,-261.0,49.0,-8.0,72.0,-6.0,0
3.0,-261.0,48.0,-9.0,72.0,-6.0,0
2.0,-263.0,49.0,-8.0,70.0,-5.0,0
1.0,-260.0,48.0,-10.0,71.0,-6.0,0
1.0,-262.0,50.0,-10.0,71.0,-6.0,0
1.0,-263.0,49.0,-10.0,71.0,-7.0,0
3.0,-260.0,46.0,-10.0,69.0,-7.0,0
2.0,-261.0,48.0,-9.0,70.0,-7.0,0
3.0,-262.0,48.0,-9.0,71.0,-6.0,0
2.0,-263.0,49.0,-10.0,73.0,-7.0,0
1.0,-260.0,48.0,-8.0,74.0,-4.0,0
2.0,-260.0,48.0,-9.0,73.0,-5.0,0
2.0,-264.0,49.0,-9.0,73.0,-3.0,0
2.0,-260.0,48.0,-9.0,75.0,-4.0,0
3.0,-261.0,48.0,-9.0,74.0,-5.0,0
2.0,-260.0,50.0,-10.0,75.0,-5.0,0
3.0,-265.0,49.0,-10.0,73.0,-6.0,0
1.0,-260.0,44.0,-9.0,74.0,-4.0,0
2.0,-261.0,51.0,-8.0,73.0,-4.0,0
0.0,-262.0,46.0,-8.0,71.0,-5.0,0
3.0,-264.0,50.0,-8.0,72.0,-6.0,0
2.0,-257.0,46.0,-8.0,70.0,-6.0,0
2.0,-261.0,46.0,-8.0,68.0,-4.0,0
1.0,-260.0,46.0,-8.0,68.0,-3.0,0
4.0,-261.0,47.0,-8.0,68.0,-6.0,0
3.0,-261.0,51.0,-7.0,67.0,-5.0,0
2.0,-257.0,49.0,-7.0,66.0,-4.0,0
2.0,-260.0,49.0,-8.0,65.0,-3.0,0
2.0,-262.0,45.0,-9.0,65.0,-3.0,0
3.0,-261.0,48.0,-9.0,64.0,-2.0,0
3.0,-262.0,45.0,-11.0,65.0,-2.0,0
1.0,-262.0,49.0,-13.0,65.0,-2.0,0
1.0,-262.0,47.0,-15.0,65.0,-2.0,0
5.0,-265.0,49.0,-18.0,65.0,-2.0,0
1.0,-261.0,46.0,-19.0,64.0,-2.0,0
1.0,-263.0,51.0,-20.0,66.0,-1.0,0
3.0,-263.0,47.0,-20.0,68.0,-1.0,0
3.0,-263.0,45.0,-20.0,68.0,-2.0,0
2.0,-263.0,49.0,-20.0,69.0,-3.0,0
3.0,-263.0,48.0,-17.0,71.0,-3.0,0
4.0,-262.0,48.0,-15.0,71.0,-2.0,0
2.0,-262.0,45.0,-14.0,71.0,-1.0,0
2.0,-260.0,47.0,-13.0,71.0,1.0,0
1.0,-259.0,47.0,-11.0,73.0,1.0,0
4.0,-259.0,46.0,-11.0,72.0,2.0,0
4.0,-260.0,45.0,-12.0,71.0,3.0,0
3.0,-263.0,46.0,-13.0,70.0,1.0,0
3.0,-260.0,45.0,-13.0,68.0,2.0,0
2.0,-264.0,48.0,-13.0,67.0,2.0,0
2.0,-261.0,48.0,-15.0,67.0,2.0,0
1.0,-263.0,45.0,-17.0,64.0,2.0,0
5.0,-263.0,48.0,-18.0,63.0,1.0,0
3.0,-262.0,45.0,-18.0,64.0,2.0,0
3.0,-262.0,45.0,-16.0,64.0,2.0,0
0.0,-262.0,47.0,-13.0,65.0,0.0,0
4.0,-262.0,47.0,-11.0,68.0,0.0,0
5.0,-264.0,51.0,-8.0,70.0,0.0,0
3.0,-261.0,44.0,-7.0,72.0,1.0,0
3.0,-258.0,44.0,-5.0,73.0,0.0,0
1.0,-261.0,48.0,-4.0,72.0,1.0,0
3.0,-259.0,46.0,-4.0,71.0,1.0,0
1.0,-261.0,50.0,-3.0,72.0,1.0,0
2.0,-262.0,51.0,-3.0,71.0,2.0,0
5.0,-261.0,50.0,-3.0,72.0,2.0,0
4.0,-259.0,52.0,-5.0,71.0,2.0,0
2.0,-257.0,52.0,-6.0,69.0,2.0,0
3.0,-261.0,47.0,-6.0,68.0,3.0,0
1.0,-261.0,48.0,-10.0,68.0,2.0,0
1.0,-261.0,52.0,-10.0,67.0,4.0,0
1.0,-259.0,53.0,-12.0,65.0,4.0,0
2.0,-262.0,49.0,-13.0,65.0,3.0,0
3.0,-263.0,49.0,-13.0,65.0,4.0,0
3.0,-262.0,50.0,-12.0,66.0,3.0,0
2.0,-261.0,47.0,-13.0,67.0,3.0,0
4.0,-262.0,52.0,-12.0,68.0,3.0,0
1.0,-262.0,48.0,-11.0,68.0,4.0,0
2.0,-264.0,45.0,-9.0,70.0,3.0,0
4.0,-264.0,50.0,-9.0,71.0,4.0,0
3.0,-260.0,49.0,-9.0,72.0,3.0,0
2.0,-261.0,48.0,-7.0,74.0,1.0,0
3.0,-262.0,46.0,-6.0,74.0,2.0,0
2.0,-264.0,43.0,-6.0,75.0,2.0,0
1.0,-263.0,47.0,-6.0,77.0,0.0,0
1.0,-264.0,48.0,-5.0,76.0,3.0,0
2.0,-260.0,49.0,-7.0,76.0,2.0,0
1.0,-263.0,49.0,-7.0,75.0,3.0,0
2.0,-264.0,45.0,-6.0,77.0,2.0,0
5.0,-266.0,52.0,-5.0,75.0,1.0,0
3.0,-262.0,51.0,-6.0,75.0,3.0,0
1.0,-264.0,46.0,-5.0,75.0,2.0,0
2.0,-259.0,49.0,-4.0,76.0,4.0,0
1.0,-260.0,47.0,-3.0,76.0,3.0,0
2.0,-263.0,47.0,-4.0,77.0,3.0,0
3.0,-262.0,46.0,-4.0,76.0,3.0,0
0.0,-260.0,48.0,-4.0,76.0,2.0,0
2.0,-263.0,47.0,-5.0,74.0,3.0,0
2.0,-259.0,49.0,-5.0,74.0,2.0,0
1.0,-262.0,46.0,-6.0,75.0,2.0,0
0.0,-261.0,47.0,-7.0,73.0,0.0,0
3.0,-264.0,48.0,-9.0,75.0,1.0,0
1.0,-261.0,46.0,-10.0,75.0,1.0,0
1.0,-261.0,44.0,-11.0,74.0,0.0,0
1.0,-263.0,49.0,-13.0,71.0,1.0,0
0.0,-262.0,49.0,-15.0,71.0,1.0,0
1.0,-264.0,50.0,-15.0,70.0,0.0,0
1.0,-264.0,51.0,-15.0,71.0,0.0,0
0.0,-262.0,45.0,-17.0,70.0,0.0,0
2.0,-261.0,48.0,-16.0,69.0,0.0,0
3.0,-266.0,46.0,-15.0,68.0,-1.0,0
3.0,-260.0,52.0,-14.0,70.0,-1.0,0
1.0,-259.0,44.0,-13.0,70.0,-1.0,0
0.0,-261.0,47.0,-10.0,71.0,-1.0,0
0.0,-262.0,48.0,-9.0,71.0,1.0,0
0.0,-259.0,48.0,-6.0,72.0,0.0,0
1.0,-262.0,47.0,-4.0,71.0,2.0,0
0.0,-261.0,49.0,-3.0,69.0,1.0,0
0.0,-258.0,48.0,-2.0,71.0,1.0,0
0.0,-262.0,49.0,-3.0,72.0,1.0,0
0.0,-260.0,47.0,-5.0,72.0,0.0,0
0.0,-260.0,50.0,-7.0,71.0,2.0,0
4.0,-264.0,48.0,-8.0,72.0,1.0,0
1.0,-258.0,48.0,-10.0,73.0,1.0,0
2.0,-262.0,48.0,-10.0,73.0,2.0,0
3.0,-264.0,49.0,-10.0,71.0,1.0,0
3.0,-264.0,48.0,-11.0,73.0,2.0,0
1.0,-261.0,49.0,-11.0,73.0,0.0,0
1.0,-261.0,49.0,-12.0,73.0,2.0,0
3.0,-265.0,47.0,-13.0,73.0,2.0,0
1.0,-262.0,49.0,-12.0,71.0,2.0,0
3.0,-259.0,49.0,-12.0,72.0,1.0,0
2.0,-258.0,46.0,-10.0,72.0,2.0,0
3.0,-262.0,49.0,-10.0,71.0,1.0,0
1.0,-263.0,48.0,-11.0,71.0,2.0,0
3.0,-265.0,49.0,-10.0,70.0,2.0,0
1.0,-263.0,49.0,-10.0,69.0,2.0,0
1.0,-259.0,49.0,-11.0,69.0,0.0,0
0.0,-260.0,46.0,-12.0,69.0,-1.0,0
0.0,-261.0,47.0,-12.0,68.0,0.0,0
1.0,-261.0,47.0,-12.0,68.0,2.0,0
3.0,-262.0,50.0,-12.0,67.0,1.0,0
2.0,-262.0,43.0,-11.0,69.0,1.0,0
0.0,-261.0,44.0,-11.0,69.0,1.0,0
3.0,-265.0,47.0,-11.0,68.0,2.0,0
1.0,-263.0,48.0,-10.0,69.0,1.0,0
2.0,-264.0,47.0,-11.0,69.0,1.0,0
0.0,-261.0,49.0,-10.0,69.0,1.0,0
-2.0,-259.0,46.0,-13.0,69.0,2.0,0
2.0,-262.0,49.0,-12.0,70.0,1.0,0
3.0,-261.0,50.0,-13.0,71.0,1.0,0
2.0,-260.0,45.0,-14.0,71.0,1.0,0
1.0,-262.0,46.0,-13.0,70.0,0.0,0
3.0,-263.0,49.0,-13.0,71.0,0.0,0
1.0,-255.0,43.0,-13.0,71.0,0.0,0
1.0,-263.0,48.0,-13.0,70.0,0.0,0
4.0,-262.0,49.0,-14.0,69.0,1.0,0
2.0,-264.0,49.0,-14.0,69.0,1.0,0
2.0,-260.0,47.0,-15.0,71.0,2.0,0
2.0,-262.0,48.0,-14.0,71.0,3.0,0
3.0,-261.0,50.0,-14.0,71.0,5.0,0
1.0,-260.0,50.0,-15.0,71.0,5.0,0
2.0,-263.0,49.0,-15.0,71.0,4.0,0
2.0,-262.0,49.0,-16.0,72.0,4.0,0
0.0,-262.0,48.0,-17.0,72.0,4.0,0
2.0,-264.0,52.0,-18.0,72.0,5.0,0
1.0,-262.0,47.0,-19.0,74.0,4.0,0
2.0,-262.0,45.0,-20.0,71.0,3.0,0
4.0,-264.0,49.0,-20.0,73.0,1.0,0
0.0,-263.0,48.0,-19.0,73.0,1.0,0
3.0,-263.0,47.0,-19.0,74.0,0.0,0
1.0,-262.0,48.0,-18.0,75.0,0.0,0
0.0,-260.0,44.0,-18.0,73.0,1.0,0
2.0,-266.0,44.0,-17.0,72.0,2.0,0
-1.0,-260.0,49.0,-14.0,74.0,1.0,0
2.0,-259.0,48.0,-12.0,74.0,2.0,0
1.0,-264.0,55.0,-11.0,73.0,1.0,0
3.0,-260.0,47.0,-12.0,73.0,2.0,0
1.0,-261.0,48.0,-11.0,73.0,2.0,0
4.0,-262.0,48.0,-11.0,73.0,2.0,0
2.0,-263.0,48.0,-12.0,71.0,2.0,0
1.0,-262.0,49.0,-13.0,69.0,1.0,0
0.0,-265.0,48.0,-14.0,68.0,2.0,0
2.0,-261.0,47.0,-15.0,69.0,-1.0,0
1.0,-265.0,48.0,-16.0,70.0,-1.0,0
0.0,-263.0,46.0,-16.0,71.0,-2.0,0
1.0,-260.0,47.0,-14.0,71.0,-2.0,0
3.0,-263.0,48.0,-12.0,73.0,-2.0,0
0.0,-260.0,44.0,-11.0,74.0,-3.0,0
0.0,-262.0,51.0,-7.0,74.0,-3.0,0
0.0,-260.0,49.0,-5.0,74.0,-3.0,0
2.0,-261.0,48.0,-4.0,76.0,-4.0,0
1.0,-261.0,50.0,-2.0,76.0,-4.0,0
1.0,-262.0,47.0,-1.0,76.0,-5.0,0
2.0,-260.0,50.0,-1.0,75.0,-5.0,0
1.0,-262.0,49.0,-3.0,74.0,-6.0,0
-2.0,-264.0,49.0,-2.0,74.0,-6.0,0
4.0,-263.0,51.0,-4.0,72.0,-6.0,0
1.0,-264.0,48.0,-6.0,72.0,-4.0,0
1.0,-264.0,47.0,-7.0,71.0,-4.0,0
0.0,-262.0,47.0,-6.0,71.0,-4.0,0
1.0,-263.0,49.0,-8.0,70.0,-4.0,0
1.0,-262.0,48.0,-9.0,71.0,-3.0,0
1.0,-262.0,47.0,-8.0,71.0,-4.0,0
1.0,-261.0,46.0,-9.0,69.0,-5.0,0
0.0,-263.0,43.0,-8.0,68.0,-4.0,0
0.0,-261.0,47.0,-9.0,66.0,-5.0,0
1.0,-262.0,46.0,-10.0,66.0,-4.0,0
2.0,-263.0,44.0,-9.0,66.0,-4.0,0
3.0,-265.0,46.0,-9.0,67.0,-5.0,0
1.0,-262.0,46.0,-9.0,66.0,-4.0,0
1.0,-262.0,44.0,-8.0,68.0,-5.0,0
1.0,-261.0,46.0,-7.0,69.0,-5.0,0
4.0,-260.0,47.0,-7.0,70.0,-6.0,0
0.0,-262.0,49.0,-7.0,71.0,-5.0,0
1.0,-260.0,46.0,-6.0,71.0,-6.0,0
2.0,-264.0,48.0,-7.0,71.0,-7.0,0
0.0,-259.0,46.0,-6.0,72.0,-7.0,0
2.0,-262.0,45.0,-6.0,72.0,-6.0,0
1.0,-261.0,47.0,-6.0,73.0,-8.0,0
0.0,-261.0,49.0,-6.0,71.0,-8.0,0
0.0,-262.0,50.0,-5.0,71.0,-6.0,0
0.0,-262.0,49.0,-4.0,70.0,-8.0,0
1.0,-263.0,48.0,-4.0,69.0,-9.0,0
3.0,-263.0,48.0,-5.0,70.0,-8.0,0
2.0,-265.0,48.0,-4.0,69.0,-9.0,0
1.0,-260.0,48.0,-5.0,69.0,-9.0,0
0.0,-261.0,51.0,-6.0,67.0,-9.0,0
0.0,-262.0,51.0,-6.0,67.0,-7.0,0
0.0,-261.0,47.0,-6.0,67.0,-7.0,0
0.0,-261.0,50.0,-6.0,67.0,-8.0,0
1.0,-265.0,48.0,-6.0,66.0,-7.0,0
3.0,-259.0,50.0,-6.0,67.0,-7.0,0
1.0,-263.0,48.0,-7.0,68.0,-6.0,0
1.0,-263.0,48.0,-7.0,66.0,-6.0,0
1.0,-264.0,47.0,-7.0,67.0,-7.0,0
0.0,-261.0,47.0,-9.0,67.0,-6.0,0
1.0,-263.0,47.0,-9.0,66.0,-5.0,0
2.0,-265.0,50.0,-8.0,66.0,-5.0,0
1.0,-264.0,49.0,-10.0,66.0,-6.0,0
0.0,-265.0,48.0,-8.0,65.0,-6.0,0
5.0,-263.0,54.0,-10.0,66.0,-6.0,0
3.0,-262.0,51.0,-9.0,67.0,-6.0,0
2.0,-260.0,48.0,-6.0,67.0,-6.0,0
2.0,-259.0,52.0,-6.0,68.0,-4.0,0
1.0,-260.0,50.0,-5.0,68.0,-5.0,0
1.0,-259.0,50.0,-5.0,68.0,-4.0,0
1.0,-260.0,48.0,-4.0,67.0,-5.0,0
3.0,-262.0,50.0,-4.0,68.0,-5.0,0
1.0,-263.0,50.0,-3.0,70.0,-4.0,0
1.0,-261.0,48.0,-3.0,69.0,-5.0,0
1.0,-263.0,47.0,-4.0,70.0,-6.0,0
0.0,-259.0,46.0,-4.0,68.0,-5.0,0
1.0,-261.0,48.0,-6.0,67.0,-7.0,0
0.0,-260.0,51.0,-6.0,69.0,-7.0,0
-1.0,-262.0,49.0,-8.0,68.0,-7.0,0
1.0,-259.0,47.0,-9.0,68.0,-7.0,0
0.0,-259.0,49.0,-9.0,68.0,-7.0,0
1.0,-261.0,49.0,-10.0,70.0,-6.0,0
0.0,-258.0,48.0,-10.0,69.0,-6.0,0
1.0,-261.0,52.0,-10.0,71.0,-5.0,0
1.0,-258.0,49.0,-10.0,71.0,-7.0,0
0.0,-261.0,49.0,-12.0,71.0,-5.0,0
2.0,-260.0,45.0,-12.0,73.0,-4.0,0
1.0,-261.0,49.0,-13.0,73.0,-4.0,0
0.0,-261.0,45.0,-14.0,75.0,-6.0,0
0.0,-262.0,47.0,-17.0,74.0,-6.0,0
0.0,-261.0,45.0,-19.0,73.0,-6.0,0
0.0,-261.0,47.0,-23.0,72.0,-4.0,0
0.0,-259.0,46.0,-28.0,73.0,-1.0,0
0.0,-262.0,42.0,-35.0,74.0,2.0,0
-1.0,-260.0,43.0,-45.0,76.0,7.0,0
-2.0,-262.0,40.0,-58.0,79.0,12.0,0
0.0,-262.0,44.0,-72.0,85.0,19.0,0
-1.0,-264.0,37.0,-85.0,92.0,27.0,0
-2.0,-264.0,39.0,-96.0,99.0,33.0,0
1.0,-262.0,36.0,-106.0,109.0,42.0,0
-2.0,-263.0,36.0,-115.0,117.0,52.0,0
0.0,-263.0,37.0,-123.0,126.0,62.0,0
-2.0,-265.0,32.0,-134.0,133.0,72.0,0
0.0,-262.0,31.0,-151.0,137.0,81.0,0
0.0,-263.0,33.0,-176.0,138.0,92.0,0
0.0,-263.0,34.0,-210.0,141.0,100.0,0
-1.0,-260.0,42.0,-247.0,142.0,111.0,0
4.0,-261.0,40.0,-276.0,138.0,118.0,0
2.0,-256.0,39.0,-316.0,135.0,125.0,0
0.0,-259.0,33.0,-360.0,132.0,131.0,0
4.0,-261.0,39.0,-401.0,128.0,139.0,0
1.0,-255.0,38.0,-444.0,127.0,146.0,0
4.0,-256.0,34.0,-482.0,127.0,155.0,0
7.0,-256.0,30.0,-524.0,131.0,168.0,0
8.0,-255.0,34.0,-574.0,134.0,179.0,0
3.0,-255.0,41.0,-632.0,125.0,185.0,0
1.0,-256.0,45.0,-698.0,93.0,183.0,0
2.0,-254.0,46.0,-772.0,46.0,167.0,0
1.0,-248.0,44.0,-836.0,-3.0,147.0,0
2.0,-249.0,39.0,-870.0,-41.0,136.0,0
0.0,-252.0,38.0,-877.0,-57.0,132.0,0
1.0,-255.0,35.0,-871.0,-61.0,133.0,0
-2.0,-256.0,30.0,-860.0,-61.0,138.0,0
-5.0,-255.0,32.0,-846.0,-65.0,141.0,0
-5.0,-256.0,25.0,-831.0,-67.0,142.0,0
-12.0,-263.0,19.0,-816.0,-66.0,144.0,0
-12.0,-262.0,22.0,-796.0,-60.0,145.0,0
-15.0,-264.0,16.0,-775.0,-50.0,148.0,0
-13.0,-270.0,17.0,-749.0,-38.0,153.0,0
-12.0,-274.0,17.0,-718.0,-34.0,158.0,0
-10.0,-276.0,15.0,-680.0,-25.0,161.0,0
-7.0,-272.0,18.0,-634.0,-18.0,164.0,0
-6.0,-269.0,16.0,-577.0,-10.0,169.0,0
-2.0,-267.0,24.0,-514.0,-4.0,175.0,0
-1.0,-262.0,31.0,-452.0,1.0,184.0,0
3.0,-261.0,26.0,-388.0,9.0,191.0,0
6.0,-257.0,33.0,-332.0,15.0,195.0,0
1.0,-254.0,30.0,-289.0,21.0,197.0,0
6.0,-250.0,31.0,-261.0,28.0,198.0,0
4.0,-241.0,37.0,-249.0,36.0,202.0,0
6.0,-247.0,39.0,-254.0,44.0,206.0,0
3.0,-244.0,39.0,-266.0,49.0,209.0,0
0.0,-242.0,44.0,-279.0,58.0,210.0,0
2.0,-243.0,43.0,-296.0,64.0,210.0,0
4.0,-239.0,41.0,-315.0,66.0,209.0,0
2.0,-238.0,48.0,-340.0,68.0,207.0,0
4.0,-243.0,48.0,-364.0,71.0,204.0,0
0.0,-240.0,45.0,-388.0,76.0,199.0,0
1.0,-243.0,44.0,-416.0,85.0,195.0,0
-1.0,-247.0,52.0,-445.0,96.0,189.0,0
-1.0,-247.0,45.0,-473.0,108.0,185.0,0
0.0,-246.0,50.0,-506.0,120.0,182.0,0
-2.0,-246.0,49.0,-539.0,129.0,178.0,0
-2.0,-248.0,48.0,-570.0,137.0,180.0,0
-5.0,-250.0,48.0,-600.0,145.0,185.0,0
-1.0,-249.0,53.0,-628.0,154.0,185.0,0
-11.0,-253.0,49.0,-652.0,168.0,184.0,0
-8.0,-252.0,44.0,-672.0,179.0,185.0,0
-9.0,-255.0,44.0,-693.0,193.0,182.0,0
-10.0,-256.0,44.0,-715.0,216.0,179.0,0
-10.0,-261.0,43.0,-736.0,245.0,166.0,0
-11.0,-263.0,42.0,-754.0,274.0,155.0,0
-14.0,-266.0,38.0,-768.0,298.0,147.0,0
-18.0,-268.0,41.0,-777.0,313.0,140.0,0
-18.0,-265.0,43.0,-779.0,322.0,137.0,0
-15.0,-266.0,40.0,-784.0,326.0,134.0,0
-18.0,-266.0,42.0,-788.0,320.0,131.0,0
-17.0,-267.0,45.0,-789.0,308.0,134.0,0
-12.0,-274.0,47.0,-788.0,293.0,136.0,0
-14.0,-277.0,50.0,-784.0,278.0,140.0,0
-13.0,-277.0,51.0,-789.0,275.0,145.0,0
-7.0,-274.0,56.0,-801.0,277.0,159.0,0
0.0,-274.0,57.0,-810.0,283.0,177.0,0
0.0,-283.0,72.0,-816.0,289.0,193.0,0
4.0,-295.0,75.0,-815.0,300.0,214.0,0
0.0,-306.0,75.0,-810.0,310.0,225.0,0
0.0,-316.0,64.0,-809.0,315.0,230.0,0
1.0,-315.0,53.0,-821.0,312.0,226.0,0
3.0,-309.0,40.0,-852.0,295.0,203.0,0
3.0,-296.0,27.0,-913.0,269.0,170.0,0
4.0,-281.0,20.0,-1014.0,247.0,136.0,0
-4.0,-260.0,10.0,-1160.0,234.0,112.0,0
-12.0,-251.0,-3.0,-1361.0,224.0,101.0,0
-23.0,-238.0,-24.0,-1619.0,212.0,107.0,0
-30.0,-238.0,-38.0,-1925.0,195.0,127.0,0
-35.0,-234.0,-55.0,-2246.0,170.0,155.0,0
-44.0,-236.0,-79.0,-2560.0,121.0,192.0,0
-48.0,-233.0,-105.0,-2883.0,49.0,238.0,0
-45.0,-237.0,-126.0,-3224.0,-40.0,300.0,0
-48.0,-239.0,-133.0,-3577.0,-130.0,363.0,0
-40.0,-264.0,-137.0,-3919.0,-213.0,427.0,0
-38.0,-274.0,-124.0,-4217.0,-279.0,476.0,0
-36.0,-298.0,-104.0,-4431.0,-306.0,503.0,0
-29.0,-325.0,-85.0,-4514.0,-303.0,503.0,0
-28.0,-349.0,-80.0,-4468.0,-270.0,481.0,0
-23.0,-386.0,-68.0,-4290.0,-222.0,446.0,0
-24.0,-421.0,-73.0,-4004.0,-170.0,412.0,0
-26.0,-458.0,-96.0,-3664.0,-129.0,367.0,0
-30.0,-478.0,-116.0,-3314.0,-106.0,310.0,0
-35.0,-476.0,-140.0,-2990.0,-104.0,244.0,0
-36.0,-471.0,-162.0,-2699.0,-108.0,175.0,0
-25.0,-460.0,-177.0,-2402.0,-90.0,114.0,0
-19.0,-444.0,-185.0,-2103.0,-49.0,69.0,0
-20.0,-428.0,-187.0,-1811.0,3.0,31.0,0
-18.0,-406.0,-191.0,-1547.0,50.0,-1.0,0
-26.0,-390.0,-194.0,-1343.0,105.0,-26.0,0
-31.0,-378.0,-195.0,-1202.0,156.0,-47.0,0
-41.0,-366.0,-194.0,-1112.0,204.0,-69.0,0
-45.0,-357.0,-196.0,-1053.0,246.0,-92.0,0
-50.0,-357.0,-193.0,-990.0,281.0,-112.0,0
-58.0,-349.0,-191.0,-905.0,302.0,-126.0,0
-61.0,-334.0,-192.0,-804.0,304.0,-138.0,0
-60.0,-323.0,-191.0,-692.0,285.0,-150.0,0
-56.0,-311.0,-193.0,-593.0,259.0,-170.0,0
-63.0,-294.0,-185.0,-520.0,236.0,-173.0,0
-63.0,-288.0,-191.0,-449.0,206.0,-160.0,0
-54.0,-285.0,-192.0,-386.0,162.0,-154.0,0
-44.0,-279.0,-192.0,-318.0,142.0,-151.0,0
-43.0,-278.0,-185.0,-242.0,147.0,-146.0,0
-38.0,-271.0,-179.0,-164.0,166.0,-137.0,0
-34.0,-273.0,-168.0,-92.0,175.0,-121.0,0
-25.0,-274.0,-163.0,-21.0,188.0,-108.0,0
-20.0,-270.0,-168.0,54.0,202.0,-102.0,0
-19.0,-272.0,-157.0,123.0,220.0,-104.0,0
-17.0,-265.0,-160.0,182.0,238.0,-108.0,0
-14.0,-265.0,-157.0,227.0,258.0,-118.0,0
-13.0,-260.0,-150.0,259.0,276.0,-126.0,0
-11.0,-256.0,-152.0,273.0,292.0,-138.0,0
-14.0,-254.0,-155.0,274.0,304.0,-155.0,0
-14.0,-249.0,-149.0,268.0,309.0,-168.0,0
-15.0,-251.0,-149.0,256.0,311.0,-187.0,0
-16.0,-249.0,-149.0,230.0,316.0,-208.0,0
-11.0,-245.0,-151.0,196.0,326.0,-224.0,0
-16.0,-243.0,-149.0,158.0,333.0,-236.0,0
-19.0,-245.0,-153.0,118.0,340.0,-246.0,0
-20.0,-241.0,-155.0,74.0,337.0,-258.0,0
-22.0,-241.0,-151.0,24.0,329.0,-272.0,0
-22.0,-243.0,-152.0,-23.0,317.0,-287.0,0
-20.0,-245.0,-147.0,-63.0,302.0,-300.0,0
-22.0,-246.0,-146.0,-95.0,289.0,-310.0,0
-16.0,-248.0,-143.0,-119.0,273.0,-317.0,0
-17.0,-252.0,-146.0,-128.0,262.0,-325.0,0
-17.0,-253.0,-141.0,-130.0,252.0,-334.0,0
-19.0,-251.0,-133.0,-124.0,243.0,-340.0,0
-19.0,-253.0,-132.0,-106.0,234.0,-347.0,0
-21.0,-248.0,-125.0,-74.0,230.0,-350.0,0
-18.0,-247.0,-121.0,-35.0,227.0,-348.0,0
-17.0,-238.0,-115.0,1.0,229.0,-341.0,0
-19.0,-229.0,-116.0,29.0,226.0,-332.0,0
-17.0,-220.0,-111.0,44.0,229.0,-321.0,0
-12.0,-207.0,-111.0,50.0,235.0,-316.0,0
-16.0,-196.0,-97.0,45.0,240.0,-302.0,0
-13.0,-187.0,-99.0,46.0,229.0,-269.0,0
-8.0,-181.0,-87.0,43.0,222.0,-235.0,0
-5.0,-173.0,-83.0,45.0,214.0,-209.0,0
-7.0,-161.0,-71.0,58.0,208.0,-196.0,0
-8.0,-155.0,-67.0,84.0,198.0,-178.0,0
-7.0,-145.0,-63.0,108.0,198.0,-170.0,0
-11.0,-138.0,-61.0,130.0,202.0,-165.0,0
-13.0,-136.0,-63.0,149.0,210.0,-148.0,0
-13.0,-129.0,-57.0,170.0,219.0,-125.0,0
-9.0,-129.0,-58.0,199.0,223.0,-85.0,0
-3.0,-127.0,-57.0,225.0,228.0,-48.0,0
-1.0,-127.0,-51.0,249.0,237.0,-30.0,0
0.0,-121.0,-51.0,276.0,239.0,-35.0,0
2.0,-116.0,-45.0,310.0,231.0,-45.0,0
-3.0,-114.0,-47.0,344.0,222.0,-49.0,0
1.0,-119.0,-41.0,381.0,204.0,-43.0,0
-2.0,-109.0,-49.0,428.0,194.0,-39.0,0
2.0,-112.0,-50.0,477.0,187.0,-42.0,0
0.0,-109.0,-52.0,520.0,187.0,-50.0,0
-2.0,-105.0,-54.0,561.0,185.0,-62.0,0
-10.0,-99.0,-60.0,596.0,183.0,-72.0,0
-6.0,-99.0,-64.0,635.0,171.0,-71.0,0
-8.0,-97.0,-66.0,661.0,166.0,-73.0,0
-7.0,-92.0,-66.0,680.0,155.0,-87.0,0
-11.0,-89.0,-71.0,704.0,146.0,-108.0,0
-17.0,-88.0,-74.0,723.0,146.0,-118.0,0
-18.0,-90.0,-76.0,740.0,151.0,-118.0,0
-16.0,-86.0,-82.0,757.0,152.0,-114.0,0
-23.0,-93.0,-88.0,778.0,151.0,-108.0,0
-25.0,-97.0,-88.0,800.0,149.0,-102.0,0
-23.0,-96.0,-88.0,818.0,149.0,-95.0,0
-23.0,-98.0,-96.0,823.0,146.0,-95.0,0
-25.0,-99.0,-108.0,810.0,143.0,-92.0,0
-24.0,-100.0,-113.0,781.0,144.0,-91.0,0
-29.0,-95.0,-126.0,737.0,143.0,-87.0,0
-24.0,-102.0,-130.0,679.0,139.0,-73.0,0
-24.0,-107.0,-138.0,622.0,133.0,-60.0,0
-20.0,-114.0,-142.0,568.0,127.0,-49.0,0
-19.0,-120.0,-150.0,530.0,119.0,-41.0,0
-20.0,-128.0,-151.0,483.0,108.0,-37.0,0
-19.0,-139.0,-154.0,439.0,96.0,-33.0,0
-16.0,-147.0,-155.0,401.0,87.0,-32.0,0
-15.0,-160.0,-155.0,368.0,78.0,-30.0,0
-17.0,-171.0,-157.0,345.0,69.0,-29.0,0
-12.0,-184.0,-151.0,327.0,55.0,-30.0,0
-12.0,-194.0,-152.0,319.0,36.0,-30.0,0
-4.0,-207.0,-150.0,319.0,13.0,-33.0,0
-8.0,-216.0,-148.0,318.0,-12.0,-36.0,0
-1.0,-227.0,-148.0,317.0,-37.0,-37.0,0
4.0,-233.0,-153.0,309.0,-53.0,-43.0,0
1.0,-240.0,-148.0,296.0,-65.0,-52.0,0
2.0,-246.0,-146.0,277.0,-72.0,-59.0,0
0.0,-250.0,-146.0,258.0,-75.0,-64.0,0
1.0,-254.0,-146.0,236.0,-80.0,-63.0,0
2.0,-252.0,-141.0,216.0,-86.0,-68.0,0
0.0,-251.0,-140.0,200.0,-96.0,-75.0,0
3.0,-251.0,-141.0,188.0,-105.0,-78.0,0
2.0,-248.0,-136.0,177.0,-115.0,-80.0,0
2.0,-242.0,-130.0,167.0,-121.0,-86.0,0
-2.0,-239.0,-131.0,175.0,-133.0,-87.0,0
-2.0,-229.0,-128.0,182.0,-144.0,-76.0,0
-6.0,-225.0,-125.0,189.0,-151.0,-66.0,0
-3.0,-216.0,-124.0,194.0,-156.0,-60.0,0
-9.0,-209.0,-118.0,200.0,-152.0,-57.0,0
-8.0,-204.0,-119.0,198.0,-147.0,-52.0,0
-7.0,-200.0,-117.0,188.0,-142.0,-47.0,0
-10.0,-195.0,-121.0,170.0,-134.0,-43.0,0
-12.0,-193.0,-121.0,144.0,-127.0,-42.0,0
-11.0,-192.0,-116.0,113.0,-122.0,-45.0,0
-16.0,-192.0,-114.0,81.0,-119.0,-49.0,0
-16.0,-193.0,-115.0,51.0,-116.0,-53.0,0
-20.0,-193.0,-109.0,21.0,-116.0,-58.0,0
-17.0,-197.0,-113.0,-3.0,-119.0,-63.0,0
-20.0,-201.0,-114.0,-19.0,-121.0,-66.0,0
-16.0,-209.0,-115.0,-27.0,-119.0,-62.0,0
-15.0,-216.0,-111.0,-29.0,-117.0,-58.0,0
-11.0,-219.0,-107.0,-26.0,-112.0,-51.0,0
-12.0,-224.0,-107.0,-15.0,-110.0,-45.0,0
-9.0,-229.0,-110.0,-3.0,-113.0,-39.0,0
-8.0,-234.0,-115.0,11.0,-117.0,-31.0,0
-3.0,-237.0,-111.0,19.0,-123.0,-29.0,0
-4.0,-240.0,-114.0,28.0,-128.0,-26.0,0
0.0,-241.0,-118.0,33.0,-132.0,-21.0,0
-10.0,-245.0,-115.0,32.0,-140.0,-15.0,0
2.0,-250.0,-111.0,45.0,-152.0,-2.0,0
4.0,-248.0,-119.0,66.0,-145.0,-12.0,0
9.0,-243.0,-121.0,83.0,-134.0,-25.0,0
5.0,-236.0,-120.0,84.0,-127.0,-42.0,0
2.0,-231.0,-122.0,80.0,-115.0,-56.0,0
3.0,-226.0,-118.0,71.0,-105.0,-63.0,0
3.0,-224.0,-123.0,53.0,-105.0,-68.0,0
1.0,-219.0,-123.0,28.0,-111.0,-74.0,0
1.0,-219.0,-123.0,-2.0,-119.0,-76.0,0
-3.0,-210.0,-121.0,-33.0,-126.0,-77.0,0
-2.0,-217.0,-121.0,-60.0,-134.0,-78.0,0
-2.0,-217.0,-120.0,-82.0,-145.0,-79.0,0
-2.0,-217.0,-116.0,-97.0,-152.0,-80.0,0
-5.0,-219.0,-114.0,-111.0,-156.0,-81.0,0
-7.0,-220.0,-114.0,-119.0,-158.0,-82.0,0
-9.0,-220.0,-108.0,-125.0,-155.0,-84.0,0
-11.0,-220.0,-110.0,-126.0,-152.0,-82.0,0
-10.0,-224.0,-103.0,-124.0,-147.0,-81.0,0
-9.0,-229.0,-102.0,-117.0,-137.0,-78.0,0
-10.0,-232.0,-95.0,-108.0,-128.0,-77.0,0
-6.0,-237.0,-96.0,-94.0,-120.0,-74.0,0
-9.0,-240.0,-96.0,-76.0,-114.0,-74.0,0
-4.0,-244.0,-97.0,-56.0,-107.0,-75.0,0
-5.0,-249.0,-97.0,-28.0,-100.0,-77.0,0
-4.0,-248.0,-95.0,5.0,-95.0,-81.0,0
-5.0,-249.0,-97.0,41.0,-92.0,-86.0,0
-4.0,-247.0,-98.0,70.0,-89.0,-90.0,0
-4.0,-244.0,-101.0,94.0,-88.0,-94.0,0
-2.0,-242.0,-96.0,112.0,-87.0,-97.0,0
-2.0,-238.0,-100.0,126.0,-92.0,-100.0,0
6.0,-242.0,-94.0,136.0,-92.0,-102.0,0
0.0,-236.0,-99.0,147.0,-89.0,-111.0,0
1.0,-229.0,-99.0,148.0,-89.0,-122.0,0
3.0,-232.0,-99.0,140.0,-86.0,-125.0,0
1.0,-231.0,-99.0,124.0,-85.0,-125.0,0
6.0,-233.0,-102.0,109.0,-83.0,-116.0,0
4.0,-231.0,-100.0,109.0,-87.0,-110.0,0
0.0,-227.0,-116.0,112.0,-84.0,-100.0,0
6.0,-226.0,-124.0,82.0,-58.0,-74.0,0
12.0,-229.0,-118.0,18.0,-11.0,-62.0,0
10.0,-229.0,-113.0,-38.0,26.0,-68.0,0
5.0,-234.0,-109.0,-71.0,47.0,-74.0,0
1.0,-237.0,-105.0,-96.0,49.0,-68.0,0
0.0,-240.0,-102.0,-104.0,27.0,-51.0,0
0.0,-240.0,-102.0,-96.0,-1.0,-39.0,0
1.0,-241.0,-105.0,-89.0,-16.0,-32.0,0
0.0,-239.0,-105.0,-83.0,-20.0,-31.0,0
0.0,-236.0,-107.0,-76.0,-16.0,-33.0,0
-2.0,-233.0,-108.0,-69.0,-9.0,-32.0,0
0.0,-234.0,-111.0,-64.0,5.0,-32.0,0
-2.0,-231.0,-111.0,-72.0,17.0,-31.0,0
-2.0,-231.0,-104.0,-87.0,26.0,-24.0,0
0.0,-233.0,-107.0,-89.0,30.0,-19.0,0
0.0,-231.0,-102.0,-78.0,34.0,-20.0,0
-2.0,-234.0,-100.0,-68.0,47.0,-22.0,0
0.0,-235.0,-103.0,-60.0,59.0,-17.0,0
0.0,-236.0,-102.0,-56.0,69.0,-14.0,0
0.0,-239.0,-102.0,-54.0,74.0,-12.0,0
0.0,-237.0,-102.0,-50.0,79.0,-15.0,0
0.0,-237.0,-98.0,-38.0,82.0,-17.0,0
1.0,-237.0,-102.0,-21.0,85.0,-18.0,0
-1.0,-236.0,-99.0,-6.0,87.0,-16.0,0
0.0,-237.0,-101.0,10.0,90.0,-14.0,0
2.0,-236.0,-104.0,25.0,91.0,-11.0,0
1.0,-235.0,-107.0,38.0,93.0,-7.0,0
0.0,-232.0,-106.0,48.0,94.0,-1.0,0
2.0,-234.0,-109.0,55.0,93.0,5.0,0
-2.0,-232.0,-108.0,56.0,94.0,12.0,0
0.0,-232.0,-106.0,53.0,91.0,19.0,0
0.0,-231.0,-105.0,46.0,91.0,23.0,0
1.0,-233.0,-109.0,35.0,89.0,31.0,0
2.0,-232.0,-110.0,24.0,90.0,38.0,0
1.0,-235.0,-107.0,15.0,88.0,41.0,0
3.0,-236.0,-107.0,7.0,91.0,43.0,0
1.0,-237.0,-103.0,-1.0,96.0,44.0,0
2.0,-235.0,-110.0,-10.0,99.0,44.0,0
1.0,-239.0,-104.0,-12.0,103.0,41.0,0
0.0,-234.0,-103.0,-12.0,105.0,39.0,0
1.0,-234.0,-105.0,-8.0,106.0,36.0,0
1.0,-234.0,-106.0,-3.0,110.0,31.0,0
0.0,-235.0,-102.0,-1.0,115.0,30.0,0
-1.0,-232.0,-104.0,-1.0,119.0,27.0,0
0.0,-233.0,-107.0,-3.0,122.0,23.0,0
0.0,-233.0,-108.0,-8.0,125.0,20.0,0
1.0,-234.0,-106.0,-15.0,129.0,21.0,0
1.0,-234.0,-107.0,-21.0,132.0,21.0,0
1.0,-238.0,-106.0,-25.0,131.0,22.0,0
0.0,-237.0,-105.0,-28.0,133.0,23.0,0
4.0,-240.0,-105.0,-31.0,134.0,24.0,0
2.0,-242.0,-103.0,-30.0,135.0,23.0,0
1.0,-242.0,-104.0,-25.0,135.0,22.0,0
5.0,-242.0,-104.0,-20.0,136.0,21.0,0
2.0,-241.0,-106.0,-16.0,138.0,19.0,0
0.0,-242.0,-101.0,-9.0,138.0,16.0,0
0.0,-242.0,-104.0,2.0,136.0,13.0,0
0.0,-245.0,-105.0,14.0,136.0,11.0,0
-2.0,-241.0,-102.0,27.0,134.0,6.0,0
0.0,-239.0,-103.0,38.0,132.0,2.0,0
-4.0,-236.0,-97.0,45.0,127.0,-1.0,0
-1.0,-232.0,-102.0,47.0,123.0,-5.0,0
-5.0,-233.0,-100.0,44.0,118.0,-3.0,0
-6.0,-232.0,-101.0,39.0,113.0,0.0,0
-7.0,-231.0,-104.0,32.0,109.0,4.0,0
-2.0,-230.0,-100.0,21.0,108.0,6.0,0
-3.0,-229.0,-99.0,8.0,106.0,4.0,0
-6.0,-231.0,-99.0,-4.0,103.0,6.0,0
-8.0,-228.0,-101.0,-19.0,98.0,11.0,0
-7.0,-231.0,-99.0,-34.0,94.0,9.0,0
-8.0,-231.0,-99.0,-47.0,91.0,9.0,0
-5.0,-238.0,-100.0,-57.0,89.0,7.0,0
-9.0,-238.0,-104.0,-65.0,88.0,10.0,0
-2.0,-236.0,-104.0,-71.0,86.0,10.0,0
-3.0,-239.0,-103.0,-72.0,84.0,5.0,0
-5.0,-238.0,-103.0,-70.0,81.0,0.0,0
-9.0,-236.0,-101.0,-68.0,75.0,-3.0,0
-2.0,-239.0,-99.0,-69.0,68.0,-7.0,0
-1.0,-243.0,-101.0,-68.0,63.0,-10.0,0
0.0,-241.0,-105.0,-66.0,56.0,-14.0,0
-16.0,-241.0,-109.0,-62.0,52.0,-19.0,0
-5.0,-239.0,-103.0,-58.0,47.0,-20.0,0
-3.0,-240.0,-104.0,-52.0,44.0,-23.0,0
-1.0,-238.0,-101.0,-50.0,40.0,-24.0,0
-3.0,-234.0,-103.0,-47.0,38.0,-25.0,0
-5.0,-236.0,-103.0,-44.0,36.0,-27.0,0
-2.0,-236.0,-99.0,-45.0,37.0,-28.0,0
-2.0,-236.0,-102.0,-47.0,38.0,-26.0,0
-3.0,-235.0,-105.0,-51.0,39.0,-25.0,0
-3.0,-233.0,-104.0,-53.0,40.0,-25.0,0
-4.0,-233.0,-101.0,-57.0,39.0,-24.0,0
-1.0,-232.0,-102.0,-60.0,40.0,-23.0,0
0.0,-237.0,-100.0,-66.0,41.0,-22.0,0
-1.0,-234.0,-102.0,-72.0,43.0,-19.0,0
-2.0,-233.0,-103.0,-75.0,44.0,-19.0,0
-5.0,-235.0,-100.0,-76.0,48.0,-18.0,0
-4.0,-233.0,-101.0,-74.0,50.0,-16.0,0
-3.0,-238.0,-104.0,-74.0,52.0,-12.0,0
-4.0,-236.0,-107.0,-71.0,54.0,-12.0,0
0.0,-236.0,-104.0,-69.0,57.0,-11.0,0
-3.0,-236.0,-104.0,-70.0,57.0,-11.0,0
3.0,-234.0,-97.0,-71.0,58.0,-8.0,0
-3.0,-240.0,-101.0,-73.0,57.0,-8.0,0
0.0,-236.0,-105.0,-77.0,56.0,-8.0,0
-4.0,-241.0,-96.0,-84.0,54.0,-5.0,0
-6.0,-237.0,-102.0,-88.0,50.0,-2.0,0
0.0,-239.0,-99.0,-88.0,48.0,-2.0,0
-2.0,-238.0,-98.0,-87.0,48.0,-1.0,0
-2.0,-240.0,-100.0,-87.0,49.0,-2.0,0
-1.0,-238.0,-100.0,-87.0,50.0,-3.0,0
-4.0,-243.0,-99.0,-84.0,51.0,-3.0,0
-2.0,-238.0,-100.0,-83.0,52.0,-1.0,0
-2.0,-243.0,-99.0,-79.0,52.0,-1.0,0
-2.0,-240.0,-95.0,-77.0,54.0,-1.0,0
-5.0,-237.0,-98.0,-73.0,55.0,1.0,0
-4.0,-237.0,-105.0,-70.0,55.0,0.0,0
-6.0,-236.0,-101.0,-68.0,55.0,1.0,0
-5.0,-238.0,-100.0,-67.0,52.0,1.0,0
-3.0,-237.0,-101.0,-66.0,52.0,0.0,0
-5.0,-236.0,-104.0,-64.0,54.0,-1.0,0
-1.0,-240.0,-105.0,-64.0,57.0,-2.0,0
-3.0,-238.0,-103.0,-59.0,59.0,-3.0,0
-8.0,-238.0,-103.0,-57.0,62.0,-3.0,0
-10.0,-237.0,-103.0,-54.0,62.0,-5.0,0
-9.0,-240.0,-105.0,-53.0,62.0,-7.0,0
-5.0,-238.0,-102.0,-52.0,60.0,-8.0,0
-7.0,-237.0,-103.0,-52.0,55.0,-10.0,0
-7.0,-237.0,-100.0,-51.0,52.0,-10.0,0
-9.0,-237.0,-102.0,-50.0,50.0,-9.0,0
-3.0,-238.0,-102.0,-48.0,48.0,-10.0,0
-6.0,-234.0,-103.0,-47.0,47.0,-10.0,0
-7.0,-237.0,-104.0,-50.0,46.0,-7.0,0
-3.0,-238.0,-103.0,-53.0,43.0,-7.0,0
-7.0,-237.0,-100.0,-54.0,40.0,-7.0,0
-5.0,-238.0,-102.0,-52.0,37.0,-11.0,0
-6.0,-237.0,-100.0,-47.0,36.0,-14.0,0
-3.0,-238.0,-105.0,-41.0,35.0,-17.0,0
-4.0,-235.0,-102.0,-37.0,36.0,-20.0,0
-9.0,-233.0,-101.0,-33.0,38.0,-24.0,0
-7.0,-234.0,-102.0,-31.0,38.0,-27.0,0
-6.0,-236.0,-103.0,-30.0,40.0,-29.0,0
-5.0,-238.0,-103.0,-32.0,40.0,-31.0,0
-4.0,-233.0,-102.0,-33.0,40.0,-31.0,0
-4.0,-239.0,-103.0,-35.0,40.0,-34.0,0
-5.0,-234.0,-102.0,-38.0,39.0,-33.0,0
-4.0,-242.0,-101.0,-41.0,38.0,-33.0,0
-5.0,-236.0,-100.0,-42.0,38.0,-32.0,0
-4.0,-235.0,-104.0,-44.0,36.0,-32.0,0
-7.0,-235.0,-101.0,-43.0,35.0,-31.0,0
-5.0,-239.0,-100.0,-42.0,33.0,-30.0,0
-4.0,-239.0,-104.0,-40.0,34.0,-31.0,0
-4.0,-238.0,-101.0,-36.0,32.0,-31.0,0
-6.0,-236.0,-100.0,-32.0,34.0,-32.0,0
-4.0,-238.0,-102.0,-29.0,35.0,-31.0,0
-3.0,-236.0,-103.0,-27.0,36.0,-32.0,0
-2.0,-237.0,-105.0,-24.0,38.0,-31.0,0
-3.0,-240.0,-100.0,-21.0,39.0,-31.0,0
-4.0,-238.0,-102.0,-20.0,39.0,-30.0,0
-2.0,-241.0,-100.0,-18.0,39.0,-29.0,0
-3.0,-238.0,-101.0,-15.0,39.0,-29.0,0
-4.0,-237.0,-104.0,-12.0,36.0,-29.0,0
-4.0,-237.0,-99.0,-10.0,34.0,-28.0,0
-6.0,-236.0,-99.0,-7.0,32.0,-30.0,0
-2.0,-235.0,-101.0,-4.0,31.0,-30.0,0
-3.0,-236.0,-102.0,-2.0,32.0,-30.0,0
-6.0,-235.0,-105.0,1.0,32.0,-30.0,0
-4.0,-234.0,-101.0,4.0,33.0,-30.0,0
-4.0,-233.0,-100.0,5.0,34.0,-29.0,0
-6.0,-234.0,-103.0,4.0,36.0,-29.0,0
-3.0,-236.0,-101.0,3.0,38.0,-28.0,0
-5.0,-235.0,-102.0,1.0,39.0,-28.0,0
-5.0,-234.0,-104.0,-1.0,42.0,-26.0,0
-4.0,-235.0,-99.0,-3.0,42.0,-26.0,0
-3.0,-236.0,-104.0,-5.0,41.0,-26.0,0
-7.0,-238.0,-101.0,-6.0,41.0,-25.0,0
-1.0,-237.0,-100.0,-5.0,40.0,-26.0,0
-6.0,-238.0,-100.0,-2.0,39.0,-26.0,0
-4.0,-234.0,-108.0,1.0,39.0,-26.0,0
-7.0,-239.0,-102.0,3.0,38.0,-28.0,0
-3.0,-238.0,-104.0,5.0,36.0,-29.0,0
-6.0,-241.0,-104.0,6.0,37.0,-29.0,0
-6.0,-238.0,-103.0,6.0,36.0,-30.0,0
-7.0,-237.0,-100.0,7.0,34.0,-31.0,0
-1.0,-240.0,-102.0,8.0,33.0,-33.0,0
-7.0,-239.0,-103.0,9.0,32.0,-33.0,0
-5.0,-239.0,-102.0,12.0,31.0,-35.0,0
-6.0,-236.0,-104.0,14.0,30.0,-35.0,0
-7.0,-235.0,-100.0,14.0,29.0,-34.0,0
-6.0,-234.0,-103.0,15.0,28.0,-33.0,0
-9.0,-236.0,-111.0,11.0,27.0,-34.0,0
-2.0,-236.0,-104.0,8.0,26.0,-34.0,0
-3.0,-233.0,-103.0,5.0,24.0,-34.0,0
-3.0,-235.0,-104.0,2.0,22.0,-34.0,0
-1.0,-236.0,-104.0,0.0,22.0,-33.0,0
-3.0,-232.0,-106.0,-3.0,21.0,-33.0,0
-1.0,-234.0,-104.0,-5.0,20.0,-32.0,0
-6.0,-231.0,-103.0,-7.0,19.0,-33.0,0
-7.0,-234.0,-103.0,-11.0,17.0,-32.0,0
-4.0,-234.0,-103.0,-15.0,16.0,-30.0,0
-5.0,-234.0,-105.0,-20.0,12.0,-31.0,0
-8.0,-233.0,-107.0,-22.0,11.0,-31.0,0
-5.0,-230.0,-102.0,-25.0,9.0,-32.0,0
-4.0,-234.0,-102.0,-27.0,8.0,-31.0,0
-6.0,-236.0,-103.0,-28.0,4.0,-32.0,0
-5.0,-235.0,-106.0,-29.0,5.0,-33.0,0
-6.0,-237.0,-106.0,-29.0,5.0,-32.0,0
-3.0,-240.0,-103.0,-28.0,6.0,-33.0,0
-1.0,-235.0,-104.0,-25.0,6.0,-34.0,0
-3.0,-238.0,-103.0,-22.0,6.0,-35.0,0
-1.0,-236.0,-104.0,-20.0,7.0,-35.0,0
0.0,-228.0,-102.0,-19.0,7.0,-34.0,0
-3.0,-234.0,-102.0,-19.0,7.0,-35.0,0
-5.0,-237.0,-101.0,-18.0,5.0,-36.0,0
-1.0,-236.0,-105.0,-18.0,6.0,-36.0,0
-3.0,-235.0,-104.0,-18.0,6.0,-37.0,0
0.0,-235.0,-103.0,-17.0,6.0,-38.0,0
-1.0,-234.0,-105.0,-17.0,7.0,-38.0,0
-1.0,-235.0,-105.0,-16.0,7.0,-39.0,0
0.0,-232.0,-102.0,-15.0,8.0,-39.0,0
-6.0,-233.0,-103.0,-13.0,9.0,-38.0,0
-3.0,-235.0,-103.0,-14.0,13.0,-38.0,0
-3.0,-232.0,-103.0,-14.0,11.0,-39.0,0
-1.0,-234.0,-104.0,-14.0,13.0,-38.0,0
-1.0,-234.0,-107.0,-16.0,14.0,-36.0,0
0.0,-235.0,-106.0,-16.0,14.0,-37.0,0
0.0,-235.0,-105.0,-16.0,15.0,-37.0,0
-1.0,-235.0,-105.0,-17.0,16.0,-36.0,0
-1.0,-234.0,-101.0,-17.0,16.0,-36.0,0
1.0,-234.0,-99.0,-16.0,17.0,-37.0,0
0.0,-236.0,-102.0,-16.0,19.0,-36.0,0
-2.0,-231.0,-105.0,-15.0,21.0,-36.0,0
1.0,-237.0,-104.0,-14.0,22.0,-34.0,0
0.0,-234.0,-94.0,-14.0,21.0,-32.0,0
-3.0,-231.0,-104.0,-11.0,24.0,-32.0,0
1.0,-236.0,-104.0,-9.0,27.0,-32.0,0
0.0,-235.0,-105.0,-8.0,28.0,-33.0,0
-4.0,-234.0,-104.0,-9.0,29.0,-31.0,0
0.0,-237.0,-105.0,-11.0,31.0,-32.0,0
-1.0,-235.0,-103.0,-14.0,32.0,-31.0,0
0.0,-238.0,-105.0,-14.0,33.0,-31.0,0
0.0,-234.0,-104.0,-15.0,34.0,-30.0,0
-1.0,-235.0,-102.0,-16.0,35.0,-31.0,0
-2.0,-237.0,-101.0,-18.0,35.0,-30.0,0
0.0,-236.0,-104.0,-20.0,35.0,-29.0,0
0.0,-232.0,-110.0,-21.0,36.0,-28.0,0
0.0,-237.0,-105.0,-23.0,38.0,-26.0,0
0.0,-237.0,-104.0,-26.0,37.0,-26.0,0
-1.0,-236.0,-101.0,-24.0,36.0,-24.0,0
-3.0,-237.0,-103.0,-25.0,35.0,-24.0,0
0.0,-239.0,-101.0,-24.0,37.0,-24.0,0
-1.0,-238.0,-99.0,-23.0,35.0,-24.0,0
-6.0,-238.0,-102.0,-23.0,33.0,-23.0,0
-7.0,-237.0,-101.0,-25.0,35.0,-22.0,0
-6.0,-240.0,-102.0,-24.0,34.0,-22.0,0
-3.0,-237.0,-105.0,-23.0,33.0,-21.0,0
0.0,-238.0,-104.0,-20.0,33.0,-20.0,0
-3.0,-237.0,-100.0,-17.0,34.0,-20.0,0
-3.0,-238.0,-103.0,-16.0,36.0,-19.0,0
-3.0,-232.0,-102.0,-15.0,36.0,-20.0,0
-4.0,-237.0,-100.0,-16.0,38.0,-17.0,0
-3.0,-237.0,-103.0,-16.0,38.0,-16.0,0
-1.0,-237.0,-105.0,-16.0,39.0,-16.0,0
0.0,-235.0,-102.0,-16.0,39.0,-13.0,0
0.0,-237.0,-105.0,-18.0,38.0,-12.0,0
-3.0,-235.0,-99.0,-19.0,38.0,-11.0,0
-4.0,-234.0,-104.0,-20.0,39.0,-11.0,0
0.0,-235.0,-99.0,-22.0,39.0,-10.0,0
-2.0,-235.0,-101.0,-23.0,40.0,-10.0,0
0.0,-238.0,-103.0,-23.0,40.0,-10.0,0
0.0,-234.0,-99.0,-23.0,42.0,-10.0,0
-4.0,-234.0,-103.0,-24.0,44.0,-8.0,0
-1.0,-237.0,-102.0,-25.0,45.0,-9.0,0
0.0,-237.0,-104.0,-26.0,48.0,-9.0,0
0.0,-238.0,-102.0,-27.0,52.0,-9.0,0
0.0,-240.0,-98.0,-26.0,53.0,-9.0,0
-2.0,-238.0,-105.0,-26.0,54.0,-10.0,0
0.0,-233.0,-101.0,-25.0,54.0,-10.0,0
0.0,-236.0,-104.0,-23.0,55.0,-9.0,0
-1.0,-239.0,-103.0,-21.0,55.0,-9.0,0
-1.0,-236.0,-97.0,-22.0,54.0,-7.0,0
-2.0,-239.0,-103.0,-22.0,55.0,-8.0,0
-2.0,-240.0,-103.0,-19.0,54.0,-8.0,0
0.0,-237.0,-98.0,-18.0,55.0,-7.0,0
-2.0,-237.0,-106.0,-18.0,56.0,-6.0,0
0.0,-236.0,-103.0,-16.0,57.0,-6.0,0
-2.0,-236.0,-96.0,-15.0,60.0,-4.0,0
-2.0,-238.0,-96.0,-13.0,62.0,-4.0,0
0.0,-236.0,-101.0,-12.0,64.0,-3.0,0
0.0,-237.0,-103.0,-10.0,65.0,0.0,0
0.0,-235.0,-103.0,-9.0,66.0,-3.0,0
-1.0,-236.0,-100.0,-8.0,68.0,-1.0,0
-1.0,-236.0,-102.0,-7.0,69.0,-1.0,0
0.0,-237.0,-99.0,-5.0,70.0,2.0,0
-4.0,-236.0,-105.0,-5.0,70.0,1.0,0
0.0,-234.0,-102.0,-3.0,70.0,0.0,0
-5.0,-237.0,-104.0,-2.0,69.0,0.0,0
-2.0,-234.0,-106.0,-3.0,70.0,0.0,0
-1.0,-240.0,-102.0,-2.0,70.0,-1.0,0
-5.0,-240.0,-102.0,-2.0,71.0,-1.0,0
0.0,-236.0,-104.0,-1.0,72.0,0.0,0
-1.0,-236.0,-103.0,2.0,75.0,0.0,0
0.0,-241.0,-107.0,3.0,74.0,0.0,0
-1.0,-237.0,-104.0,6.0,73.0,0.0,0
-4.0,-236.0,-103.0,8.0,74.0,1.0,0
-1.0,-237.0,-103.0,9.0,74.0,0.0,0
-3.0,-238.0,-105.0,11.0,73.0,2.0,0
-3.0,-242.0,-102.0,12.0,75.0,1.0,0
-4.0,-237.0,-103.0,13.0,76.0,1.0,0
0.0,-238.0,-101.0,14.0,75.0,2.0,0
-5.0,-236.0,-102.0,15.0,77.0,2.0,0
1.0,-235.0,-101.0,16.0,76.0,4.0,0
-2.0,-234.0,-103.0,19.0,75.0,4.0,0
-1.0,-235.0,-105.0,21.0,75.0,3.0,0
-2.0,-236.0,-102.0,23.0,76.0,1.0,0
-4.0,-238.0,-105.0,25.0,75.0,3.0,0
0.0,-239.0,-105.0,25.0,75.0,2.0,0
-2.0,-236.0,-100.0,26.0,75.0,3.0,0
-1.0,-237.0,-101.0,26.0,76.0,3.0,0
-1.0,-237.0,-104.0,27.0,75.0,2.0,0
-3.0,-237.0,-101.0,28.0,74.0,3.0,0
-4.0,-236.0,-102.0,29.0,75.0,3.0,0
-3.0,-234.0,-103.0,28.0,75.0,4.0,0
-2.0,-236.0,-99.0,30.0,75.0,3.0,0
0.0,-238.0,-99.0,29.0,77.0,3.0,0
-4.0,-235.0,-99.0,27.0,77.0,5.0,0
-3.0,-236.0,-101.0,25.0,75.0,5.0,0
-3.0,-236.0,-103.0,24.0,76.0,5.0,0
-2.0,-236.0,-105.0,22.0,75.0,5.0,0
0.0,-234.0,-102.0,21.0,75.0,6.0,0
-5.0,-240.0,-107.0,18.0,74.0,4.0,0
-1.0,-237.0,-104.0,17.0,73.0,5.0,0
-3.0,-237.0,-99.0,15.0,73.0,4.0,0
-1.0,-235.0,-104.0,14.0,72.0,2.0,0
-3.0,-238.0,-104.0,14.0,71.0,2.0,0
-4.0,-235.0,-103.0,12.0,70.0,3.0,0
-1.0,-234.0,-101.0,10.0,69.0,3.0,0
-2.0,-238.0,-102.0,8.0,68.0,3.0,0
-3.0,-235.0,-101.0,7.0,69.0,2.0,0
0.0,-239.0,-104.0,5.0,70.0,1.0,0
0.0,-237.0,-102.0,5.0,71.0,0.0,0
-5.0,-235.0,-105.0,3.0,71.0,-1.0,0
-4.0,-242.0,-103.0,2.0,73.0,0.0,0
-2.0,-236.0,-103.0,1.0,71.0,-1.0,0
-5.0,-237.0,-101.0,-1.0,71.0,0.0,0
-5.0,-236.0,-102.0,-2.0,71.0,0.0,0
-2.0,-237.0,-104.0,-4.0,72.0,-2.0,0
-3.0,-238.0,-100.0,-5.0,71.0,-1.0,0
-6.0,-238.0,-101.0,-8.0,70.0,-1.0,0
-3.0,-238.0,-96.0,-10.0,69.0,-2.0,0
-3.0,-236.0,-99.0,-11.0,68.0,-2.0,0
-3.0,-237.0,-103.0,-14.0,67.0,-3.0,0
-3.0,-236.0,-99.0,-14.0,64.0,-4.0,0
-2.0,-237.0,-104.0,-17.0,63.0,-6.0,0
-2.0,-239.0,-100.0,-17.0,62.0,-6.0,0
-2.0,-235.0,-104.0,-18.0,62.0,-8.0,0
0.0,-236.0,-105.0,-19.0,61.0,-8.0,0
-2.0,-238.0,-101.0,-21.0,61.0,-6.0,0
-6.0,-235.0,-99.0,-22.0,61.0,-7.0,0
-5.0,-240.0,-101.0,-22.0,60.0,-8.0,0
-4.0,-236.0,-103.0,-24.0,59.0,-7.0,0
-1.0,-239.0,-105.0,-23.0,58.0,-8.0,0
-1.0,-237.0,-105.0,-23.0,57.0,-7.0,0
0.0,-240.0,-103.0,-22.0,58.0,-7.0,0
-11.0,-238.0,-100.0,-23.0,58.0,-8.0,0
-2.0,-234.0,-102.0,-22.0,57.0,-8.0,0
-2.0,-238.0,-100.0,-22.0,58.0,-8.0,0
-3.0,-239.0,-103.0,-22.0,59.0,-8.0,0
-1.0,-237.0,-102.0,-21.0,58.0,-9.0,0
-3.0,-240.0,-102.0,-20.0,57.0,-8.0,0
-2.0,-236.0,-104.0,-19.0,56.0,-8.0,0
-2.0,-239.0,-106.0,-18.0,58.0,-10.0,0
-3.0,-237.0,-102.0,-19.0,59.0,-10.0,0
-3.0,-238.0,-97.0,-19.0,59.0,-9.0,0
-3.0,-236.0,-101.0,-20.0,60.0,-10.0,0
-5.0,-238.0,-104.0,-21.0,61.0,-11.0,0
-2.0,-235.0,-102.0,-22.0,63.0,-11.0,0
-4.0,-235.0,-99.0,-23.0,63.0,-12.0,0
-6.0,-237.0,-100.0,-25.0,63.0,-13.0,0
-4.0,-239.0,-100.0,-24.0,62.0,-12.0,0
-2.0,-235.0,-100.0,-26.0,63.0,-12.0,0
-5.0,-238.0,-103.0,-26.0,60.0,-12.0,0
-1.0,-238.0,-101.0,-25.0,60.0,-13.0,0
-5.0,-235.0,-102.0,-24.0,60.0,-12.0,0
0.0,-240.0,-102.0,-24.0,60.0,-13.0,0
0.0,-236.0,-102.0,-22.0,61.0,-12.0,0
0.0,-235.0,-101.0,-20.0,62.0,-12.0,0
-3.0,-237.0,-103.0,-21.0,62.0,-11.0,0
-3.0,-238.0,-104.0,-19.0,62.0,-12.0,0
-3.0,-237.0,-100.0,-19.0,60.0,-9.0,0
-3.0,-238.0,-101.0,-19.0,61.0,-9.0,0
-3.0,-237.0,-102.0,-18.0,60.0,-9.0,0
-4.0,-235.0,-100.0,-18.0,61.0,-9.0,0
-2.0,-237.0,-106.0,-18.0,59.0,-9.0,0
-1.0,-240.0,-101.0,-17.0,59.0,-8.0,0
-3.0,-238.0,-106.0,-19.0,59.0,-8.0,0
-6.0,-236.0,-104.0,-19.0,60.0,-7.0,0
-6.0,-234.0,-101.0,-18.0,60.0,-8.0,0
-3.0,-235.0,-103.0,-19.0,60.0,-7.0,0
-4.0,-236.0,-103.0,-20.0,61.0,-7.0,0
-2.0,-236.0,-103.0,-19.0,62.0,-7.0,0
-2.0,-237.0,-101.0,-21.0,61.0,-5.0,0
-5.0,-231.0,-103.0,-22.0,62.0,-6.0,0
-2.0,-235.0,-101.0,-22.0,61.0,-4.0,0
-6.0,-235.0,-102.0,-21.0,61.0,-4.0,0
-5.0,-231.0,-102.0,-24.0,59.0,-3.0,0
-1.0,-235.0,-103.0,-25.0,58.0,-3.0,0
-3.0,-232.0,-111.0,-28.0,58.0,-2.0,0
-2.0,-234.0,-103.0,-33.0,59.0,-1.0,0
-4.0,-237.0,-101.0,-36.0,60.0,-2.0,0
-5.0,-236.0,-104.0,-40.0,59.0,-2.0,0
-4.0,-234.0,-99.0,-42.0,58.0,-2.0,0
-1.0,-237.0,-98.0,-44.0,58.0,-2.0,0
0.0,-239.0,-101.0,-43.0,58.0,-2.0,0
-1.0,-240.0,-104.0,-45.0,58.0,-4.0,0
-3.0,-239.0,-101.0,-43.0,60.0,-4.0,0
-3.0,-241.0,-99.0,-39.0,59.0,-6.0,0
-1.0,-236.0,-102.0,-37.0,58.0,-7.0,0
-2.0,-239.0,-102.0,-34.0,58.0,-7.0,0
0.0,-240.0,-105.0,-30.0,58.0,-8.0,0
-4.0,-237.0,-101.0,-30.0,58.0,-9.0,0
-3.0,-237.0,-99.0,-30.0,58.0,-10.0,0
-6.0,-238.0,-100.0,-29.0,57.0,-11.0,0
-4.0,-234.0,-101.0,-28.0,56.0,-11.0,0
-2.0,-238.0,-104.0,-28.0,56.0,-9.0,0
-5.0,-236.0,-102.0,-28.0,55.0,-9.0,0
-1.0,-236.0,-99.0,-28.0,54.0,-9.0,0
-3.0,-234.0,-105.0,-27.0,53.0,-8.0,0
-7.0,-233.0,-103.0,-27.0,51.0,-8.0,0
-2.0,-238.0,-106.0,-25.0,50.0,-10.0,0
-3.0,-233.0,-100.0,-23.0,52.0,-10.0,0
-2.0,-233.0,-102.0,-24.0,54.0,-10.0,0
-3.0,-230.0,-103.0,-23.0,54.0,-10.0,0
0.0,-232.0,-104.0,-27.0,57.0,-9.0,0
-2.0,-232.0,-104.0,-31.0,59.0,-7.0,0
-4.0,-235.0,-103.0,-35.0,59.0,-7.0,0
-3.0,-231.0,-101.0,-38.0,59.0,-6.0,0
-2.0,-235.0,-104.0,-42.0,60.0,-7.0,0
-1.0,-237.0,-104.0,-44.0,61.0,-6.0,0
-2.0,-232.0,-103.0,-47.0,60.0,-6.0,0
-4.0,-237.0,-103.0,-49.0,59.0,-7.0,0
-3.0,-236.0,-101.0,-48.0,60.0,-7.0,0
-3.0,-236.0,-104.0,-49.0,59.0,-8.0,0
-4.0,-236.0,-103.0,-47.0,59.0,-8.0,0
-4.0,-238.0,-100.0,-44.0,58.0,-8.0,0
-1.0,-238.0,-102.0,-41.0,59.0,-10.0,0
0.0,-236.0,-105.0,-37.0,60.0,-10.0,0
-1.0,-238.0,-104.0,-33.0,62.0,-10.0,0
-6.0,-236.0,-104.0,-29.0,63.0,-10.0,0
-4.0,-240.0,-106.0,-26.0,63.0,-11.0,0
-3.0,-241.0,-104.0,-22.0,64.0,-10.0,0
6.0,-239.0,-101.0,-21.0,65.0,-11.0,0
0.0,-237.0,-104.0,-19.0,66.0,-11.0,0
0.0,-235.0,-106.0,-18.0,66.0,-11.0,0
0.0,-236.0,-106.0,-17.0,67.0,-9.0,0
0.0,-235.0,-105.0,-17.0,67.0,-10.0,0
0.0,-235.0,-107.0,-17.0,68.0,-9.0,0
-1.0,-233.0,-104.0,-18.0,71.0,-8.0,0
-1.0,-235.0,-105.0,-18.0,71.0,-7.0,0
-5.0,-236.0,-103.0,-19.0,72.0,-8.0,0
-1.0,-232.0,-102.0,-20.0,71.0,-7.0,0
6.0,-234.0,-104.0,-21.0,72.0,-6.0,0
-3.0,-235.0,-107.0,-22.0,72.0,-6.0,0
-7.0,-231.0,-102.0,-23.0,70.0,-6.0,0
-1.0,-234.0,-106.0,-23.0,73.0,-4.0,0
-2.0,-233.0,-104.0,-23.0,73.0,-4.0,0
-4.0,-235.0,-105.0,-24.0,74.0,-2.0,0
-1.0,-237.0,-102.0,-24.0,74.0,-3.0,0
-1.0,-237.0,-102.0,-24.0,73.0,-3.0,0
-4.0,-234.0,-104.0,-27.0,72.0,-2.0,0
-1.0,-236.0,-107.0,-29.0,72.0,-1.0,0
-3.0,-233.0,-103.0,-29.0,72.0,-1.0,0
-2.0,-236.0,-104.0,-30.0,73.0,-1.0,0
-2.0,-234.0,-102.0,-31.0,73.0,0.0,0
-2.0,-238.0,-105.0,-31.0,72.0,0.0,0
-3.0,-237.0,-103.0,-31.0,71.0,2.0,0
-3.0,-236.0,-104.0,-30.0,72.0,1.0,0
-3.0,-235.0,-102.0,-28.0,70.0,2.0,0
-2.0,-237.0,-102.0,-26.0,70.0,1.0,0
-1.0,-239.0,-108.0,-23.0,70.0,1.0,0
-3.0,-236.0,-106.0,-21.0,68.0,1.0,0
-6.0,-237.0,-108.0,-20.0,67.0,-1.0,0
-2.0,-236.0,-105.0,-17.0,67.0,-2.0,0
-4.0,-237.0,-102.0,-15.0,68.0,-1.0,0
0.0,-237.0,-104.0,-14.0,68.0,-2.0,0
-6.0,-235.0,-105.0,-13.0,68.0,-1.0,0
-4.0,-234.0,-104.0,-11.0,66.0,0.0,0
-2.0,-236.0,-105.0,-11.0,65.0,0.0,0
0.0,-236.0,-105.0,-10.0,66.0,-1.0,0
-6.0,-231.0,-108.0,-11.0,66.0,-1.0,0
-4.0,-234.0,-103.0,-11.0,66.0,0.0,0
-5.0,-231.0,-104.0,-11.0,67.0,1.0,0
-1.0,-233.0,-103.0,-13.0,66.0,1.0,0
-4.0,-234.0,-105.0,-13.0,68.0,0.0,0
-7.0,-233.0,-100.0,-15.0,68.0,0.0,0
0.0,-233.0,-103.0,-16.0,67.0,-1.0,0
-2.0,-235.0,-106.0,-18.0,66.0,0.0,0
0.0,-236.0,-106.0,-19.0,65.0,1.0,0
0.0,-234.0,-106.0,-20.0,65.0,1.0,0
-2.0,-237.0,-100.0,-20.0,64.0,0.0,0
-1.0,-235.0,-104.0,-19.0,62.0,0.0,0
-2.0,-238.0,-106.0,-18.0,64.0,0.0,0
-1.0,-236.0,-101.0,-16.0,63.0,-1.0,0
-3.0,-234.0,-107.0,-13.0,62.0,0.0,0
1.0,-237.0,-105.0,-12.0,63.0,-1.0,0
0.0,-239.0,-104.0,-9.0,65.0,0.0,0
-4.0,-234.0,-102.0,-6.0,67.0,0.0,0
-5.0,-235.0,-104.0,-4.0,66.0,1.0,0
-4.0,-234.0,-106.0,-3.0,65.0,1.0,0
-1.0,-235.0,-105.0,-3.0,66.0,0.0,0
-2.0,-237.0,-105.0,-3.0,68.0,0.0,0
-2.0,-237.0,-104.0,-2.0,67.0,-1.0,0
-1.0,-235.0,-107.0,-1.0,67.0,-1.0,0
-3.0,-235.0,-103.0,-1.0,67.0,-1.0,0
-2.0,-235.0,-106.0,0.0,69.0,0.0,0
-5.0,-236.0,-106.0,2.0,69.0,0.0,0
-4.0,-235.0,-107.0,2.0,70.0,0.0,0
-3.0,-236.0,-104.0,3.0,71.0,-1.0,0
-5.0,-233.0,-102.0,3.0,71.0,0.0,0
-2.0,-236.0,-102.0,3.0,72.0,-1.0,0
-4.0,-236.0,-104.0,3.0,73.0,0.0,0
-3.0,-235.0,-106.0,4.0,75.0,-2.0,0
-1.0,-237.0,-102.0,2.0,76.0,-1.0,0
-3.0,-238.0,-106.0,1.0,76.0,-1.0,0
-2.0,-237.0,-103.0,1.0,77.0,-1.0,0
-6.0,-234.0,-103.0,1.0,76.0,1.0,0
-3.0,-233.0,-104.0,-1.0,76.0,1.0,0
-3.0,-233.0,-102.0,-1.0,76.0,1.0,0
-4.0,-239.0,-104.0,-1.0,76.0,0.0,0
-1.0,-236.0,-105.0,-1.0,77.0,1.0,0
-3.0,-236.0,-104.0,-1.0,77.0,2.0,0
-2.0,-235.0,-98.0,0.0,77.0,3.0,0
-1.0,-237.0,-106.0,1.0,78.0,3.0,0
-4.0,-234.0,-105.0,4.0,78.0,3.0,0
-4.0,-232.0,-105.0,3.0,78.0,1.0,0
-6.0,-235.0,-104.0,4.0,76.0,2.0,0
-1.0,-236.0,-103.0,5.0,76.0,1.0,0
-3.0,-236.0,-102.0,5.0,77.0,2.0,0
-4.0,-238.0,-105.0,5.0,76.0,1.0,0
-5.0,-237.0,-102.0,3.0,78.0,3.0,0
-4.0,-233.0,-101.0,4.0,78.0,3.0,0
-1.0,-232.0,-100.0,4.0,78.0,1.0,0
-4.0,-238.0,-107.0,4.0,78.0,1.0,0
-1.0,-238.0,-107.0,4.0,78.0,1.0,0
-4.0,-238.0,-102.0,4.0,78.0,1.0,0
-1.0,-237.0,-106.0,5.0,78.0,2.0,0
0.0,-239.0,-102.0,6.0,76.0,2.0,0
-4.0,-234.0,-103.0,8.0,76.0,0.0,0
-1.0,-235.0,-105.0,9.0,77.0,1.0,0
-2.0,-234.0,-105.0,8.0,77.0,1.0,0
-1.0,-236.0,-107.0,9.0,78.0,1.0,0
-3.0,-236.0,-105.0,10.0,78.0,1.0,0
0.0,-235.0,-104.0,11.0,79.0,1.0,0
-1.0,-237.0,-109.0,10.0,79.0,1.0,0
-1.0,-235.0,-107.0,11.0,79.0,3.0,0
-5.0,-233.0,-106.0,11.0,81.0,2.0,0
-4.0,-234.0,-101.0,12.0,81.0,2.0,0
-2.0,-236.0,-106.0,12.0,81.0,3.0,0
-2.0,-236.0,-103.0,13.0,81.0,2.0,0
-6.0,-232.0,-102.0,13.0,82.0,2.0,0
-3.0,-233.0,-102.0,11.0,83.0,2.0,0
0.0,-234.0,-106.0,11.0,83.0,4.0,0
-2.0,-234.0,-103.0,9.0,82.0,4.0,0
-4.0,-233.0,-101.0,5.0,82.0,2.0,0
-3.0,-235.0,-101.0,3.0,81.0,2.0,0
0.0,-237.0,-105.0,0.0,80.0,3.0,0
-1.0,-237.0,-104.0,-2.0,81.0,4.0,0
-1.0,-236.0,-101.0,-2.0,82.0,3.0,0
-3.0,-235.0,-99.0,-4.0,83.0,3.0,0
-4.0,-238.0,-102.0,-3.0,84.0,4.0,0
-4.0,-238.0,-98.0,-1.0,82.0,2.0,0
-4.0,-241.0,-101.0,1.0,83.0,1.0,0
-3.0,-236.0,-103.0,4.0,84.0,2.0,0
-3.0,-238.0,-103.0,8.0,83.0,0.0,0
-6.0,-237.0,-103.0,11.0,82.0,0.0,0
-4.0,-236.0,-104.0,13.0,80.0,-1.0,0
-1.0,-237.0,-104.0,15.0,80.0,-2.0,0
-4.0,-233.0,-101.0,15.0,80.0,-2.0,0
-3.0,-236.0,-104.0,14.0,79.0,-2.0,0
-6.0,-233.0,-101.0,13.0,77.0,-2.0,0
-5.0,-235.0,-101.0,13.0,77.0,-2.0,0
-2.0,-233.0,-101.0,13.0,75.0,-3.0,0
-4.0,-234.0,-101.0,12.0,76.0,-3.0,0
-3.0,-237.0,-105.0,13.0,76.0,-3.0,0
-4.0,-237.0,-101.0,14.0,75.0,-4.0,0
-6.0,-236.0,-100.0,13.0,76.0,-5.0,0
-4.0,-233.0,-104.0,13.0,74.0,-5.0,0
-4.0,-235.0,-103.0,12.0,75.0,-4.0,0
-2.0,-234.0,-104.0,10.0,75.0,-4.0,0
-5.0,-234.0,-103.0,10.0,76.0,-5.0,0
-5.0,-237.0,-101.0,9.0,74.0,-6.0,0
-1.0,-236.0,-105.0,9.0,74.0,-5.0,0
-3.0,-239.0,-101.0,9.0,73.0,-5.0,0
-6.0,-236.0,-105.0,11.0,73.0,-5.0,0
-4.0,-233.0,-102.0,13.0,73.0,-5.0,0
-2.0,-240.0,-104.0,14.0,75.0,-4.0,0
1.0,-237.0,-100.0,15.0,75.0,-3.0,0
-5.0,-235.0,-102.0,18.0,75.0,-5.0,0
-2.0,-239.0,-102.0,20.0,75.0,-6.0,0
-3.0,-237.0,-100.0,21.0,75.0,-5.0,0
-1.0,-238.0,-99.0,24.0,75.0,-4.0,0
-2.0,-238.0,-100.0,25.0,76.0,-4.0,0
-2.0,-237.0,-100.0,25.0,76.0,-4.0,0
-4.0,-236.0,-96.0,25.0,75.0,-4.0,0
-2.0,-236.0,-103.0,25.0,74.0,-4.0,0
-4.0,-236.0,-100.0,24.0,75.0,-5.0,0
-1.0,-236.0,-101.0,24.0,76.0,-4.0,0
-4.0,-235.0,-101.0,23.0,74.0,-4.0,0
-3.0,-237.0,-104.0,23.0,73.0,-3.0,0
-1.0,-237.0,-104.0,21.0,74.0,-5.0,0
-4.0,-235.0,-103.0,19.0,76.0,-4.0,0
-2.0,-234.0,-103.0,17.0,76.0,-4.0,0
1.0,-237.0,-103.0,14.0,76.0,-3.0,0
-3.0,-239.0,-101.0,11.0,76.0,-2.0,0
0.0,-238.0,-97.0,10.0,78.0,-2.0,0
0.0,-240.0,-103.0,8.0,79.0,-2.0,0
0.0,-237.0,-98.0,5.0,81.0,-3.0,0
-1.0,-235.0,-102.0,3.0,79.0,-3.0,0
-2.0,-237.0,-101.0,2.0,81.0,-3.0,0
-2.0,-239.0,-99.0,2.0,82.0,-3.0,0
0.0,-242.0,-99.0,2.0,81.0,-4.0,0
-4.0,-238.0,-99.0,5.0,82.0,-2.0,0
-5.0,-240.0,-99.0,6.0,79.0,-1.0,0
-1.0,-237.0,-102.0,9.0,79.0,-4.0,0
-1.0,-239.0,-101.0,12.0,79.0,-2.0,0
-5.0,-239.0,-93.0,13.0,79.0,-2.0,0
0.0,-238.0,-102.0,13.0,81.0,-3.0,0
0.0,-238.0,-102.0,13.0,80.0,-3.0,0
0.0,-236.0,-103.0,11.0,80.0,-3.0,0
-2.0,-233.0,-100.0,11.0,80.0,-4.0,0
-1.0,-239.0,-101.0,8.0,78.0,-4.0,0
-2.0,-238.0,-102.0,5.0,78.0,-4.0,0
0.0,-236.0,-105.0,4.0,78.0,-3.0,0
-1.0,-234.0,-99.0,2.0,78.0,-3.0,0
-2.0,-233.0,-103.0,0.0,78.0,-3.0,0
-3.0,-237.0,-99.0,-1.0,77.0,-5.0,0
-2.0,-235.0,-101.0,-3.0,77.0,-4.0,0
-4.0,-238.0,-102.0,-4.0,77.0,-4.0,0
-5.0,-237.0,-98.0,-5.0,77.0,-4.0,0
-7.0,-236.0,-101.0,-7.0,76.0,-5.0,0
-3.0,-239.0,-102.0,-6.0,75.0,-7.0,0
-5.0,-238.0,-101.0,-8.0,74.0,-5.0,0
-4.0,-240.0,-99.0,-8.0,74.0,-6.0,0
-3.0,-239.0,-101.0,-8.0,72.0,-7.0,0
-5.0,-234.0,-104.0,-8.0,73.0,-6.0,0
-2.0,-238.0,-102.0,-8.0,73.0,-6.0,0
-3.0,-238.0,-100.0,-9.0,73.0,-6.0,0
-4.0,-238.0,-97.0,-10.0,75.0,-5.0,0
-1.0,-239.0,-100.0,-9.0,73.0,-6.0,0
-5.0,-238.0,-103.0,-9.0,72.0,-2.0,0
-3.0,-238.0,-99.0,-10.0,73.0,-3.0,0
0.0,-240.0,-97.0,-8.0,74.0,-4.0,0
-3.0,-236.0,-98.0,-9.0,77.0,-3.0,0
-1.0,-242.0,-101.0,-7.0,77.0,-4.0,0
-2.0,-238.0,-103.0,-7.0,76.0,-4.0,0
-3.0,-239.0,-97.0,-7.0,75.0,-4.0,0
-3.0,-238.0,-99.0,-8.0,76.0,-5.0,0
-3.0,-234.0,-98.0,-8.0,75.0,-5.0,0
-1.0,-237.0,-98.0,-8.0,75.0,-5.0,0
-2.0,-234.0,-103.0,-11.0,75.0,-4.0,0
-3.0,-237.0,-98.0,-11.0,76.0,-5.0,0
-2.0,-237.0,-101.0,-11.0,75.0,-5.0,0
-2.0,-238.0,-101.0,-11.0,75.0,-6.0,0
-6.0,-235.0,-98.0,-12.0,74.0,-5.0,0
-2.0,-237.0,-102.0,-12.0,74.0,-5.0,0
-2.0,-239.0,-100.0,-13.0,77.0,-6.0,0
-6.0,-235.0,-99.0,-11.0,76.0,-5.0,0
2.0,-240.0,-104.0,-12.0,75.0,-5.0,0
-3.0,-238.0,-97.0,-10.0,75.0,-6.0,0
-12.0,-235.0,-105.0,-10.0,77.0,-7.0,0
-1.0,-240.0,-98.0,-10.0,78.0,-4.0,0
0.0,-237.0,-98.0,-11.0,78.0,-5.0,0
-4.0,-238.0,-99.0,-12.0,78.0,-4.0,0
-6.0,-236.0,-100.0,-10.0,79.0,-4.0,0
-5.0,-235.0,-99.0,-12.0,79.0,-4.0,0
-4.0,-238.0,-101.0,-13.0,80.0,-3.0,0
