ax,ay,az,gx,gy,gz,label
9.0,-247.0,-79.0,-34.0,60.0,-4.0,0
8.0,-244.0,-79.0,-37.0,61.0,-2.0,0
11.0,-245.0,-79.0,-37.0,59.0,-4.0,0
10.0,-249.0,-78.0,-33.0,62.0,-3.0,0
9.0,-245.0,-79.0,-29.0,64.0,-5.0,0
10.0,-246.0,-79.0,-24.0,67.0,-2.0,0
9.0,-244.0,-80.0,-21.0,71.0,-4.0,0
9.0,-246.0,-82.0,-18.0,71.0,-3.0,0
9.0,-247.0,-77.0,-17.0,71.0,-4.0,0
11.0,-245.0,-77.0,-20.0,72.0,-1.0,0
8.0,-246.0,-77.0,-21.0,69.0,-4.0,0
7.0,-246.0,-76.0,-23.0,68.0,-2.0,0
11.0,-245.0,-79.0,-23.0,65.0,-5.0,0
11.0,-242.0,-79.0,-26.0,63.0,-4.0,0
7.0,-244.0,-81.0,-31.0,63.0,-5.0,0
10.0,-247.0,-82.0,-33.0,63.0,-3.0,0
10.0,-246.0,-78.0,-39.0,64.0,-7.0,0
9.0,-246.0,-85.0,-44.0,64.0,-6.0,0
11.0,-246.0,-81.0,-46.0,64.0,-7.0,0
10.0,-247.0,-82.0,-46.0,63.0,-4.0,0
13.0,-249.0,-80.0,-45.0,66.0,-5.0,0
9.0,-247.0,-83.0,-41.0,68.0,-4.0,0
13.0,-246.0,-83.0,-36.0,70.0,-5.0,0
8.0,-247.0,-78.0,-32.0,71.0,-4.0,0
10.0,-248.0,-83.0,-28.0,73.0,-4.0,0
11.0,-247.0,-79.0,-23.0,76.0,-4.0,0
12.0,-246.0,-81.0,-19.0,76.0,-3.0,0
9.0,-247.0,-75.0,-15.0,79.0,-2.0,0
7.0,-244.0,-78.0,-12.0,80.0,-2.0,0
11.0,-246.0,-78.0,-8.0,81.0,-1.0,0
9.0,-242.0,-79.0,-5.0,80.0,-2.0,0
10.0,-243.0,-79.0,-4.0,79.0,-2.0,0
8.0,-245.0,-81.0,-3.0,77.0,-1.0,0
8.0,-244.0,-76.0,-2.0,75.0,-1.0,0
10.0,-248.0,-76.0,-1.0,73.0,-3.0,0
7.0,-244.0,-79.0,-1.0,72.0,-3.0,0
11.0,-246.0,-80.0,-2.0,70.0,-2.0,0
8.0,-246.0,-82.0,-3.0,72.0,-4.0,0
8.0,-247.0,-81.0,-4.0,70.0,-3.0,0
10.0,-249.0,-82.0,-8.0,70.0,-3.0,0
11.0,-244.0,-82.0,-11.0,72.0,-5.0,0
9.0,-246.0,-77.0,-11.0,72.0,-5.0,0
6.0,-245.0,-78.0,-14.0,71.0,-5.0,0
10.0,-246.0,-78.0,-17.0,70.0,-5.0,0
9.0,-243.0,-79.0,-18.0,67.0,-4.0,0
9.0,-245.0,-79.0,-18.0,67.0,-4.0,0
8.0,-247.0,-81.0,-17.0,64.0,-2.0,0
11.0,-247.0,-81.0,-17.0,61.0,-2.0,0
11.0,-245.0,-73.0,-14.0,59.0,0.0,0
10.0,-248.0,-79.0,-13.0,59.0,-1.0,0
8.0,-247.0,-75.0,-10.0,59.0,2.0,0
11.0,-250.0,-75.0,-9.0,58.0,1.0,0
11.0,-249.0,-78.0,-8.0,58.0,1.0,0
7.0,-246.0,-77.0,-8.0,59.0,-1.0,0
9.0,-248.0,-81.0,-8.0,58.0,0.0,0
8.0,-248.0,-79.0,-10.0,59.0,-1.0,0
11.0,-246.0,-81.0,-13.0,60.0,-1.0,0
12.0,-247.0,-81.0,-14.0,64.0,-5.0,0
7.0,-246.0,-81.0,-14.0,66.0,-4.0,0
11.0,-245.0,-79.0,-16.0,69.0,-6.0,0
8.0,-242.0,-77.0,-15.0,71.0,-5.0,0
10.0,-245.0,-83.0,-15.0,73.0,-7.0,0
10.0,-244.0,-79.0,-17.0,72.0,-5.0,0
10.0,-245.0,-81.0,-19.0,70.0,-6.0,0
9.0,-245.0,-79.0,-22.0,71.0,-4.0,0
10.0,-243.0,-78.0,-22.0,68.0,-6.0,0
12.0,-246.0,-76.0,-24.0,66.0,-5.0,0
8.0,-246.0,-82.0,-26.0,65.0,-5.0,0
12.0,-247.0,-79.0,-27.0,64.0,-3.0,0
11.0,-248.0,-80.0,-27.0,62.0,-6.0,0
8.0,-245.0,-78.0,-25.0,60.0,-5.0,0
11.0,-248.0,-82.0,-23.0,58.0,-7.0,0
9.0,-246.0,-79.0,-19.0,56.0,-3.0,0
9.0,-247.0,-82.0,-16.0,55.0,-6.0,0
8.0,-243.0,-81.0,-14.0,55.0,-5.0,0
9.0,-244.0,-80.0,-11.0,55.0,-6.0,0
7.0,-246.0,-77.0,-8.0,56.0,-3.0,0
6.0,-245.0,-75.0,-6.0,58.0,-5.0,0
10.0,-245.0,-78.0,-7.0,58.0,-1.0,0
7.0,-245.0,-76.0,-8.0,57.0,-4.0,0
7.0,-249.0,-78.0,-9.0,56.0,-2.0,0
11.0,-247.0,-79.0,-10.0,55.0,-5.0,0
9.0,-248.0,-81.0,-13.0,53.0,-3.0,0
10.0,-248.0,-81.0,-14.0,52.0,-7.0,0
13.0,-248.0,-79.0,-14.0,51.0,-4.0,0
9.0,-248.0,-80.0,-15.0,51.0,-8.0,0
10.0,-245.0,-80.0,-17.0,51.0,-6.0,0
10.0,-247.0,-80.0,-18.0,52.0,-8.0,0
10.0,-247.0,-81.0,-18.0,53.0,-6.0,0
12.0,-245.0,-83.0,-20.0,54.0,-7.0,0
12.0,-247.0,-80.0,-20.0,55.0,-6.0,0
12.0,-247.0,-79.0,-18.0,56.0,-9.0,0
11.0,-246.0,-84.0,-17.0,55.0,-5.0,0
13.0,-246.0,-78.0,-15.0,55.0,-5.0,0
13.0,-246.0,-78.0,-15.0,56.0,-2.0,0
10.0,-244.0,-77.0,-15.0,54.0,-5.0,0
12.0,-245.0,-76.0,-14.0,54.0,-3.0,0
11.0,-245.0,-76.0,-14.0,55.0,-3.0,0
12.0,-244.0,-75.0,-16.0,54.0,0.0,0
10.0,-247.0,-79.0,-15.0,54.0,-2.0,0
7.0,-246.0,-79.0,-17.0,54.0,-1.0,0
8.0,-246.0,-75.0,-17.0,55.0,-3.0,0
12.0,-247.0,-78.0,-16.0,57.0,-1.0,0
12.0,-247.0,-76.0,-17.0,58.0,-4.0,0
10.0,-246.0,-75.0,-17.0,58.0,-3.0,0
8.0,-247.0,-80.0,-16.0,58.0,-5.0,0
8.0,-245.0,-82.0,-17.0,60.0,-4.0,0
9.0,-248.0,-79.0,-20.0,61.0,-6.0,0
11.0,-247.0,-80.0,-21.0,60.0,-6.0,0
10.0,-246.0,-78.0,-22.0,62.0,-6.0,0
11.0,-246.0,-83.0,-23.0,61.0,-5.0,0
11.0,-246.0,-80.0,-21.0,61.0,-6.0,0
10.0,-244.0,-83.0,-22.0,59.0,-4.0,0
10.0,-245.0,-81.0,-22.0,59.0,-5.0,0
12.0,-249.0,-77.0,-20.0,56.0,-3.0,0
8.0,-245.0,-77.0,-21.0,54.0,-4.0,0
11.0,-245.0,-79.0,-19.0,54.0,-3.0,0
10.0,-244.0,-80.0,-17.0,52.0,-2.0,0
10.0,-246.0,-78.0,-16.0,52.0,-2.0,0
9.0,-244.0,-78.0,-15.0,51.0,-2.0,0
10.0,-246.0,-76.0,-16.0,51.0,-2.0,0
9.0,-246.0,-80.0,-16.0,52.0,-2.0,0
9.0,-248.0,-78.0,-18.0,53.0,-1.0,0
8.0,-248.0,-81.0,-18.0,52.0,-5.0,0
12.0,-248.0,-85.0,-18.0,53.0,-3.0,0
12.0,-249.0,-77.0,-16.0,55.0,-4.0,0
9.0,-246.0,-79.0,-15.0,56.0,-6.0,0
10.0,-246.0,-75.0,-15.0,58.0,-7.0,0
12.0,-247.0,-82.0,-15.0,59.0,-7.0,0
9.0,-244.0,-80.0,-18.0,61.0,-8.0,0
12.0,-246.0,-77.0,-19.0,62.0,-9.0,0
11.0,-247.0,-79.0,-21.0,64.0,-9.0,0
12.0,-248.0,-77.0,-23.0,65.0,-7.0,0
12.0,-245.0,-82.0,-22.0,66.0,-7.0,0
12.0,-244.0,-83.0,-22.0,66.0,-7.0,0
11.0,-243.0,-82.0,-23.0,67.0,-4.0,0
11.0,-245.0,-79.0,-26.0,67.0,-5.0,0
8.0,-243.0,-81.0,-30.0,65.0,-3.0,0
13.0,-242.0,-82.0,-33.0,63.0,-3.0,0
11.0,-244.0,-82.0,-33.0,62.0,-2.0,0
13.0,-244.0,-79.0,-34.0,59.0,-2.0,0
10.0,-246.0,-80.0,-34.0,58.0,-1.0,0
8.0,-249.0,-79.0,-30.0,59.0,-1.0,0
9.0,-244.0,-77.0,-27.0,59.0,-2.0,0
10.0,-247.0,-75.0,-25.0,60.0,-1.0,0
9.0,-245.0,-80.0,-23.0,60.0,-1.0,0
12.0,-245.0,-75.0,-21.0,62.0,-3.0,0
9.0,-248.0,-78.0,-19.0,62.0,-2.0,0
12.0,-248.0,-77.0,-20.0,61.0,-4.0,0
14.0,-246.0,-76.0,-18.0,62.0,-3.0,0
9.0,-247.0,-80.0,-15.0,62.0,-5.0,0
10.0,-246.0,-77.0,-14.0,63.0,-3.0,0
9.0,-249.0,-82.0,-13.0,64.0,-4.0,0
9.0,-249.0,-77.0,-12.0,66.0,-4.0,0
11.0,-246.0,-82.0,-11.0,66.0,-4.0,0
10.0,-247.0,-77.0,-11.0,67.0,-3.0,0
9.0,-243.0,-79.0,-14.0,66.0,-4.0,0
10.0,-247.0,-78.0,-15.0,67.0,-3.0,0
10.0,-244.0,-81.0,-20.0,66.0,-5.0,0
10.0,-245.0,-77.0,-21.0,65.0,-3.0,0
9.0,-246.0,-82.0,-21.0,65.0,-5.0,0
11.0,-245.0,-83.0,-22.0,65.0,-3.0,0
10.0,-246.0,-78.0,-20.0,66.0,-4.0,0
11.0,-248.0,-81.0,-20.0,66.0,-2.0,0
11.0,-249.0,-81.0,-18.0,66.0,-3.0,0
10.0,-246.0,-83.0,-16.0,68.0,-1.0,0
9.0,-248.0,-80.0,-14.0,70.0,-1.0,0
7.0,-243.0,-83.0,-12.0,72.0,1.0,0
10.0,-246.0,-80.0,-9.0,73.0,-1.0,0
11.0,-248.0,-80.0,-9.0,75.0,1.0,0
9.0,-245.0,-80.0,-10.0,75.0,-2.0,0
13.0,-247.0,-83.0,-11.0,76.0,-1.0,0
11.0,-245.0,-78.0,-14.0,75.0,-4.0,0
10.0,-245.0,-82.0,-16.0,73.0,-2.0,0
11.0,-244.0,-77.0,-16.0,70.0,-3.0,0
9.0,-245.0,-79.0,-15.0,68.0,-2.0,0
10.0,-248.0,-76.0,-13.0,67.0,-4.0,0
10.0,-244.0,-81.0,-11.0,65.0,-3.0,0
10.0,-244.0,-81.0,-8.0,66.0,-3.0,0
9.0,-243.0,-80.0,-9.0,65.0,-2.0,0
7.0,-245.0,-81.0,-10.0,65.0,-4.0,0
10.0,-242.0,-77.0,-11.0,65.0,-2.0,0
7.0,-245.0,-79.0,-17.0,65.0,-4.0,0
10.0,-243.0,-79.0,-20.0,64.0,-1.0,0
7.0,-244.0,-76.0,-22.0,62.0,-3.0,0
10.0,-248.0,-79.0,-26.0,61.0,-1.0,0
10.0,-249.0,-81.0,-27.0,61.0,-5.0,0
11.0,-251.0,-79.0,-28.0,58.0,-3.0,0
10.0,-249.0,-80.0,-29.0,57.0,-6.0,0
11.0,-246.0,-80.0,-30.0,56.0,-3.0,0
11.0,-249.0,-78.0,-27.0,56.0,-6.0,0
10.0,-248.0,-78.0,-25.0,56.0,-4.0,0
9.0,-246.0,-82.0,-24.0,58.0,-7.0,0
12.0,-247.0,-80.0,-20.0,58.0,-4.0,0
8.0,-245.0,-81.0,-17.0,59.0,-6.0,0
11.0,-248.0,-81.0,-16.0,60.0,-4.0,0
9.0,-246.0,-81.0,-13.0,62.0,-6.0,0
8.0,-246.0,-79.0,-12.0,62.0,-3.0,0
11.0,-245.0,-79.0,-13.0,64.0,-6.0,0
9.0,-245.0,-79.0,-14.0,63.0,-3.0,0
12.0,-246.0,-77.0,-14.0,62.0,-5.0,0
11.0,-245.0,-80.0,-14.0,62.0,-4.0,0
10.0,-245.0,-78.0,-12.0,59.0,-6.0,0
12.0,-247.0,-78.0,-14.0,57.0,-3.0,0
11.0,-247.0,-81.0,-13.0,57.0,-6.0,0
11.0,-245.0,-76.0,-12.0,55.0,-4.0,0
11.0,-244.0,-78.0,-14.0,58.0,-6.0,0
13.0,-245.0,-80.0,-17.0,58.0,-5.0,0
12.0,-245.0,-81.0,-20.0,61.0,-6.0,0
11.0,-246.0,-79.0,-23.0,60.0,-6.0,0
9.0,-241.0,-81.0,-25.0,61.0,-7.0,0
12.0,-247.0,-80.0,-28.0,63.0,-6.0,0
12.0,-244.0,-81.0,-28.0,64.0,-6.0,0
8.0,-244.0,-78.0,-28.0,66.0,-4.0,0
9.0,-244.0,-79.0,-27.0,67.0,-6.0,0
9.0,-243.0,-81.0,-26.0,67.0,-5.0,0
10.0,-245.0,-80.0,-21.0,70.0,-6.0,0
10.0,-245.0,-83.0,-19.0,68.0,-5.0,0
9.0,-245.0,-80.0,-17.0,70.0,-5.0,0
11.0,-247.0,-80.0,-16.0,69.0,-3.0,0
10.0,-245.0,-82.0,-17.0,65.0,-4.0,0
10.0,-243.0,-81.0,-15.0,66.0,-5.0,0
9.0,-246.0,-81.0,-17.0,65.0,-5.0,0
9.0,-244.0,-81.0,-15.0,64.0,-6.0,0
10.0,-247.0,-80.0,-16.0,62.0,-6.0,0
11.0,-244.0,-81.0,-15.0,62.0,-5.0,0
11.0,-245.0,-80.0,-15.0,62.0,-6.0,0
10.0,-248.0,-79.0,-17.0,60.0,-6.0,0
12.0,-247.0,-80.0,-17.0,58.0,-5.0,0
10.0,-245.0,-83.0,-16.0,57.0,-5.0,0
11.0,-248.0,-75.0,-16.0,56.0,-7.0,0
9.0,-248.0,-80.0,-14.0,55.0,-7.0,0
9.0,-246.0,-81.0,-12.0,54.0,-5.0,0
11.0,-248.0,-78.0,-11.0,56.0,-5.0,0
9.0,-244.0,-81.0,-10.0,58.0,-6.0,0
9.0,-246.0,-79.0,-9.0,57.0,-4.0,0
9.0,-245.0,-84.0,-10.0,57.0,-3.0,0
11.0,-247.0,-78.0,-11.0,57.0,-3.0,0
9.0,-241.0,-82.0,-10.0,58.0,-2.0,0
10.0,-247.0,-79.0,-11.0,55.0,-2.0,0
8.0,-245.0,-78.0,-10.0,54.0,-2.0,0
12.0,-248.0,-80.0,-9.0,51.0,-3.0,0
10.0,-247.0,-75.0,-8.0,49.0,-3.0,0
7.0,-247.0,-78.0,-7.0,48.0,-3.0,0
10.0,-245.0,-83.0,-6.0,47.0,-2.0,0
11.0,-244.0,-79.0,-5.0,49.0,-3.0,0
12.0,-246.0,-79.0,-5.0,51.0,-2.0,0
10.0,-246.0,-81.0,-5.0,52.0,-3.0,0
8.0,-241.0,-81.0,-7.0,51.0,-2.0,0
10.0,-243.0,-78.0,-6.0,51.0,-2.0,0
9.0,-244.0,-82.0,-6.0,51.0,-3.0,0
9.0,-244.0,-72.0,-6.0,51.0,-4.0,0
8.0,-242.0,-76.0,-7.0,51.0,-2.0,0
13.0,-243.0,-80.0,-9.0,50.0,-3.0,0
11.0,-244.0,-79.0,-13.0,49.0,-2.0,0
11.0,-242.0,-79.0,-17.0,46.0,-5.0,0
10.0,-243.0,-77.0,-24.0,45.0,-3.0,0
11.0,-245.0,-76.0,-26.0,45.0,-4.0,0
14.0,-247.0,-82.0,-29.0,43.0,-3.0,0
12.0,-248.0,-82.0,-32.0,42.0,-4.0,0
9.0,-247.0,-78.0,-31.0,41.0,-1.0,0
11.0,-251.0,-78.0,-30.0,41.0,-3.0,0
10.0,-249.0,-80.0,-30.0,42.0,0.0,0
12.0,-249.0,-83.0,-27.0,43.0,-3.0,0
9.0,-247.0,-80.0,-26.0,43.0,0.0,0
12.0,-248.0,-79.0,-23.0,46.0,-3.0,0
10.0,-249.0,-79.0,-19.0,46.0,-3.0,0
9.0,-246.0,-82.0,-18.0,47.0,-4.0,0
12.0,-247.0,-78.0,-13.0,49.0,0.0,0
10.0,-247.0,-86.0,-12.0,51.0,-2.0,0
8.0,-244.0,-82.0,-8.0,51.0,1.0,0
10.0,-245.0,-79.0,-4.0,54.0,-1.0,0
12.0,-245.0,-81.0,-2.0,56.0,2.0,0
7.0,-244.0,-79.0,-2.0,56.0,0.0,0
10.0,-245.0,-78.0,-2.0,57.0,2.0,0
8.0,-245.0,-75.0,-3.0,58.0,-1.0,0
10.0,-244.0,-82.0,-3.0,58.0,1.0,0
10.0,-247.0,-80.0,-4.0,58.0,-2.0,0
10.0,-246.0,-78.0,-5.0,57.0,1.0,0
9.0,-247.0,-78.0,-5.0,55.0,0.0,0
10.0,-243.0,-76.0,-5.0,55.0,2.0,0
11.0,-245.0,-77.0,-8.0,56.0,-1.0,0
10.0,-245.0,-76.0,-9.0,56.0,1.0,0
8.0,-245.0,-77.0,-12.0,55.0,-4.0,0
10.0,-248.0,-83.0,-14.0,53.0,-3.0,0
11.0,-247.0,-81.0,-18.0,50.0,-4.0,0
12.0,-246.0,-79.0,-19.0,50.0,-2.0,0
14.0,-246.0,-78.0,-19.0,49.0,-5.0,0
11.0,-244.0,-79.0,-20.0,48.0,-3.0,0
10.0,-246.0,-77.0,-22.0,48.0,-5.0,0
10.0,-245.0,-78.0,-21.0,48.0,-1.0,0
12.0,-247.0,-82.0,-20.0,48.0,-3.0,0
8.0,-248.0,-81.0,-18.0,48.0,-1.0,0
9.0,-246.0,-78.0,-18.0,51.0,-3.0,0
11.0,-249.0,-77.0,-17.0,52.0,2.0,0
11.0,-248.0,-79.0,-13.0,56.0,-1.0,0
11.0,-247.0,-79.0,-9.0,58.0,2.0,0
12.0,-249.0,-85.0,-7.0,58.0,1.0,0
10.0,-246.0,-78.0,-5.0,58.0,2.0,0
10.0,-248.0,-83.0,-6.0,59.0,0.0,0
8.0,-242.0,-79.0,-6.0,59.0,2.0,0
10.0,-245.0,-79.0,-8.0,59.0,0.0,0
10.0,-244.0,-81.0,-9.0,59.0,0.0,0
10.0,-246.0,-79.0,-12.0,60.0,-2.0,0
10.0,-244.0,-78.0,-14.0,62.0,-1.0,0
9.0,-244.0,-78.0,-18.0,62.0,-5.0,0
9.0,-245.0,-83.0,-21.0,60.0,-1.0,0
11.0,-245.0,-78.0,-22.0,62.0,-3.0,0
10.0,-245.0,-81.0,-22.0,61.0,-1.0,0
11.0,-245.0,-79.0,-23.0,60.0,-4.0,0
11.0,-244.0,-77.0,-21.0,61.0,-1.0,0
15.0,-240.0,-79.0,-20.0,61.0,-3.0,0
20.0,-248.0,-72.0,-18.0,62.0,-1.0,0
5.0,-249.0,-80.0,-17.0,62.0,-2.0,0
7.0,-238.0,-71.0,-15.0,62.0,-1.0,0
8.0,-250.0,-82.0,-16.0,65.0,0.0,0
4.0,-245.0,-85.0,-15.0,66.0,2.0,0
9.0,-241.0,-69.0,-14.0,65.0,1.0,0
15.0,-251.0,-81.0,-14.0,67.0,2.0,0
15.0,-244.0,-87.0,-11.0,67.0,1.0,0
11.0,-248.0,-81.0,-11.0,68.0,3.0,0
7.0,-246.0,-80.0,-9.0,67.0,1.0,0
8.0,-245.0,-78.0,-7.0,67.0,3.0,0
9.0,-245.0,-78.0,-6.0,65.0,4.0,0
2.0,-255.0,-75.0,-6.0,63.0,4.0,0
11.0,-247.0,-76.0,-5.0,62.0,2.0,0
8.0,-246.0,-78.0,-5.0,62.0,2.0,0
9.0,-247.0,-82.0,-6.0,62.0,1.0,0
11.0,-246.0,-81.0,-7.0,62.0,2.0,0
9.0,-244.0,-77.0,-10.0,65.0,-1.0,0
10.0,-244.0,-79.0,-12.0,65.0,-1.0,0
10.0,-246.0,-83.0,-14.0,66.0,-2.0,0
10.0,-246.0,-78.0,-14.0,67.0,0.0,0
7.0,-245.0,-80.0,-13.0,69.0,-2.0,0
11.0,-246.0,-82.0,-13.0,69.0,-2.0,0
10.0,-245.0,-77.0,-12.0,71.0,-1.0,0
10.0,-245.0,-77.0,-11.0,71.0,0.0,0
10.0,-241.0,-80.0,-11.0,70.0,0.0,0
11.0,-246.0,-78.0,-10.0,70.0,2.0,0
10.0,-248.0,-75.0,-7.0,71.0,1.0,0
9.0,-250.0,-81.0,-7.0,71.0,2.0,0
10.0,-245.0,-80.0,-7.0,71.0,4.0,0
7.0,-247.0,-81.0,-7.0,71.0,2.0,0
9.0,-247.0,-83.0,-8.0,71.0,3.0,0
11.0,-248.0,-81.0,-10.0,70.0,1.0,0
8.0,-244.0,-79.0,-10.0,71.0,0.0,0
14.0,-248.0,-80.0,-10.0,71.0,0.0,0
11.0,-247.0,-84.0,-11.0,71.0,0.0,0
13.0,-247.0,-82.0,-10.0,72.0,-1.0,0
7.0,-249.0,-83.0,-9.0,73.0,0.0,0
12.0,-247.0,-84.0,-8.0,72.0,-1.0,0
8.0,-244.0,-84.0,-7.0,72.0,1.0,0
8.0,-239.0,-79.0,-7.0,73.0,1.0,0
9.0,-245.0,-82.0,-8.0,75.0,0.0,0
9.0,-247.0,-77.0,-7.0,76.0,-1.0,0
11.0,-245.0,-79.0,-7.0,74.0,2.0,0
12.0,-245.0,-76.0,-8.0,74.0,0.0,0
7.0,-243.0,-78.0,-7.0,73.0,0.0,0
6.0,-244.0,-79.0,-6.0,72.0,0.0,0
9.0,-245.0,-81.0,-7.0,69.0,0.0,0
11.0,-249.0,-81.0,-8.0,67.0,0.0,0
9.0,-247.0,-76.0,-6.0,66.0,2.0,0
10.0,-246.0,-77.0,-5.0,66.0,0.0,0
8.0,-247.0,-78.0,-3.0,64.0,3.0,0
6.0,-247.0,-77.0,-1.0,62.0,0.0,0
8.0,-246.0,-80.0,1.0,62.0,3.0,0
10.0,-245.0,-77.0,2.0,62.0,0.0,0
10.0,-248.0,-79.0,1.0,62.0,1.0,0
9.0,-247.0,-76.0,1.0,62.0,0.0,0
10.0,-246.0,-79.0,0.0,62.0,0.0,0
7.0,-244.0,-84.0,-1.0,62.0,-2.0,0
8.0,-245.0,-79.0,-3.0,64.0,0.0,0
11.0,-249.0,-83.0,-3.0,65.0,-2.0,0
9.0,-246.0,-80.0,-4.0,66.0,-1.0,0
8.0,-247.0,-81.0,-5.0,66.0,-5.0,0
9.0,-244.0,-78.0,-7.0,68.0,-3.0,0
10.0,-246.0,-79.0,-7.0,66.0,-4.0,0
7.0,-245.0,-78.0,-9.0,65.0,-3.0,0
9.0,-243.0,-76.0,-11.0,63.0,-3.0,0
10.0,-247.0,-76.0,-13.0,57.0,-1.0,0
9.0,-248.0,-80.0,-12.0,55.0,-2.0,0
11.0,-248.0,-78.0,-11.0,53.0,0.0,0
11.0,-246.0,-86.0,-11.0,53.0,-3.0,0
8.0,-246.0,-83.0,-12.0,52.0,0.0,0
12.0,-248.0,-78.0,-8.0,50.0,-3.0,0
10.0,-252.0,-78.0,-7.0,51.0,-1.0,0
13.0,-248.0,-81.0,-7.0,51.0,-1.0,0
12.0,-247.0,-81.0,-3.0,54.0,1.0,0
7.0,-247.0,-78.0,0.0,53.0,-1.0,0
10.0,-248.0,-77.0,4.0,54.0,1.0,0
11.0,-249.0,-78.0,4.0,56.0,-2.0,0
10.0,-244.0,-78.0,5.0,56.0,-1.0,0
10.0,-244.0,-77.0,6.0,56.0,-2.0,0
7.0,-243.0,-81.0,7.0,55.0,0.0,0
11.0,-245.0,-76.0,7.0,56.0,-3.0,0
9.0,-244.0,-80.0,7.0,56.0,-3.0,0
11.0,-245.0,-79.0,5.0,56.0,-5.0,0
9.0,-244.0,-81.0,1.0,58.0,-2.0,0
8.0,-248.0,-85.0,-3.0,59.0,-4.0,0
10.0,-242.0,-77.0,-6.0,60.0,-2.0,0
10.0,-246.0,-81.0,-9.0,62.0,-4.0,0
7.0,-243.0,-80.0,-13.0,61.0,-2.0,0
10.0,-244.0,-83.0,-15.0,62.0,-5.0,0
9.0,-247.0,-84.0,-17.0,62.0,-2.0,0
7.0,-243.0,-82.0,-18.0,62.0,-3.0,0
11.0,-248.0,-78.0,-18.0,63.0,-1.0,0
9.0,-244.0,-83.0,-17.0,62.0,-5.0,0
9.0,-248.0,-83.0,-16.0,61.0,-2.0,0
8.0,-247.0,-78.0,-13.0,61.0,-5.0,0
10.0,-245.0,-79.0,-10.0,59.0,-3.0,0
9.0,-246.0,-79.0,-7.0,57.0,-6.0,0
12.0,-246.0,-78.0,-4.0,57.0,-3.0,0
8.0,-244.0,-80.0,-2.0,56.0,-5.0,0
7.0,-246.0,-78.0,-2.0,54.0,-1.0,0
9.0,-246.0,-82.0,-2.0,54.0,-3.0,0
6.0,-249.0,-79.0,0.0,54.0,-1.0,0
7.0,-244.0,-80.0,1.0,52.0,-4.0,0
8.0,-247.0,-77.0,3.0,51.0,-1.0,0
8.0,-246.0,-80.0,5.0,51.0,-4.0,0
9.0,-245.0,-76.0,7.0,51.0,-2.0,0
7.0,-244.0,-78.0,7.0,50.0,-4.0,0
9.0,-243.0,-81.0,5.0,50.0,-2.0,0
9.0,-246.0,-81.0,4.0,49.0,-4.0,0
12.0,-247.0,-79.0,3.0,49.0,-2.0,0
11.0,-247.0,-78.0,0.0,49.0,-4.0,0
10.0,-249.0,-76.0,-1.0,49.0,-3.0,0
8.0,-246.0,-77.0,-4.0,50.0,-4.0,0
8.0,-244.0,-79.0,-5.0,49.0,-4.0,0
11.0,-244.0,-74.0,-10.0,51.0,-5.0,0
12.0,-249.0,-79.0,-12.0,52.0,-4.0,0
9.0,-245.0,-79.0,-13.0,52.0,-6.0,0
9.0,-244.0,-79.0,-14.0,51.0,-4.0,0
10.0,-246.0,-78.0,-15.0,51.0,-7.0,0
8.0,-244.0,-80.0,-14.0,49.0,-4.0,0
9.0,-245.0,-84.0,-12.0,51.0,-5.0,0
9.0,-247.0,-78.0,-11.0,51.0,-4.0,0
11.0,-248.0,-83.0,-11.0,51.0,-4.0,0
9.0,-243.0,-76.0,-8.0,52.0,-2.0,0
10.0,-248.0,-77.0,-7.0,53.0,-3.0,0
12.0,-247.0,-79.0,-6.0,56.0,-2.0,0
8.0,-248.0,-79.0,-4.0,56.0,-4.0,0
9.0,-246.0,-80.0,-2.0,55.0,-1.0,0
9.0,-245.0,-80.0,0.0,58.0,-2.0,0
11.0,-245.0,-80.0,1.0,57.0,-1.0,0
12.0,-246.0,-80.0,1.0,57.0,-2.0,0
8.0,-247.0,-76.0,1.0,57.0,-3.0,0
8.0,-247.0,-79.0,0.0,56.0,-3.0,0
9.0,-251.0,-77.0,-1.0,57.0,-3.0,0
11.0,-246.0,-80.0,-2.0,57.0,-3.0,0
11.0,-244.0,-80.0,-1.0,58.0,-3.0,0
9.0,-247.0,-81.0,-3.0,59.0,-4.0,0
9.0,-247.0,-75.0,-4.0,58.0,-4.0,0
9.0,-246.0,-77.0,-7.0,60.0,-3.0,0
12.0,-247.0,-74.0,-7.0,62.0,-4.0,0
8.0,-245.0,-84.0,-7.0,64.0,-3.0,0
9.0,-245.0,-78.0,-6.0,64.0,-4.0,0
9.0,-247.0,-80.0,-6.0,64.0,-3.0,0
12.0,-246.0,-78.0,-4.0,64.0,-2.0,0
8.0,-243.0,-79.0,-4.0,64.0,-3.0,0
9.0,-248.0,-80.0,-4.0,63.0,-2.0,0
8.0,-249.0,-82.0,-4.0,62.0,-1.0,0
13.0,-247.0,-80.0,-3.0,62.0,-2.0,0
7.0,-244.0,-77.0,-3.0,62.0,-1.0,0
8.0,-246.0,-79.0,-3.0,62.0,-1.0,0
9.0,-251.0,-79.0,-2.0,62.0,-1.0,0
7.0,-247.0,-77.0,-3.0,63.0,-3.0,0
10.0,-247.0,-79.0,-2.0,62.0,-3.0,0
10.0,-245.0,-76.0,-2.0,62.0,-3.0,0
8.0,-246.0,-81.0,-3.0,63.0,-3.0,0
9.0,-246.0,-77.0,-2.0,63.0,-3.0,0
13.0,-244.0,-73.0,-2.0,63.0,-2.0,0
8.0,-246.0,-78.0,0.0,65.0,-2.0,0
9.0,-248.0,-73.0,-1.0,66.0,-1.0,0
7.0,-244.0,-77.0,0.0,67.0,-2.0,0
10.0,-247.0,-77.0,-1.0,64.0,-1.0,0
10.0,-247.0,-78.0,-2.0,66.0,-3.0,0
9.0,-246.0,-78.0,-4.0,67.0,-2.0,0
11.0,-249.0,-78.0,-4.0,68.0,-3.0,0
6.0,-245.0,-79.0,-3.0,67.0,-1.0,0
10.0,-249.0,-77.0,-4.0,67.0,-2.0,0
10.0,-246.0,-81.0,-6.0,66.0,0.0,0
7.0,-245.0,-80.0,-6.0,64.0,-1.0,0
11.0,-246.0,-79.0,-8.0,64.0,-1.0,0
8.0,-245.0,-83.0,-8.0,63.0,-1.0,0
7.0,-245.0,-75.0,-8.0,63.0,0.0,0
9.0,-249.0,-79.0,-6.0,64.0,-2.0,0
9.0,-247.0,-77.0,-6.0,64.0,0.0,0
8.0,-248.0,-80.0,-6.0,66.0,-3.0,0
9.0,-247.0,-80.0,-5.0,67.0,-1.0,0
7.0,-245.0,-80.0,-6.0,70.0,-4.0,0
11.0,-248.0,-80.0,-5.0,73.0,-1.0,0
12.0,-245.0,-79.0,-4.0,73.0,-4.0,0
7.0,-243.0,-77.0,-3.0,74.0,-2.0,0
11.0,-247.0,-81.0,-5.0,75.0,-4.0,0
9.0,-245.0,-81.0,-5.0,76.0,-4.0,0
9.0,-249.0,-80.0,-6.0,74.0,-5.0,0
8.0,-243.0,-79.0,-11.0,73.0,-3.0,0
8.0,-244.0,-80.0,-13.0,72.0,-5.0,0
10.0,-248.0,-79.0,-16.0,72.0,-2.0,0
9.0,-247.0,-79.0,-17.0,68.0,-3.0,0
10.0,-246.0,-76.0,-17.0,68.0,0.0,0
11.0,-248.0,-76.0,-18.0,66.0,-3.0,0
9.0,-247.0,-77.0,-18.0,65.0,0.0,0
11.0,-248.0,-76.0,-15.0,63.0,-3.0,0
10.0,-246.0,-80.0,-14.0,62.0,0.0,0
10.0,-246.0,-79.0,-11.0,62.0,-4.0,0
12.0,-249.0,-79.0,-9.0,59.0,-1.0,0
6.0,-246.0,-77.0,-7.0,61.0,-2.0,0
10.0,-248.0,-79.0,-3.0,61.0,0.0,0
9.0,-244.0,-79.0,0.0,63.0,-2.0,0
9.0,-248.0,-81.0,2.0,65.0,1.0,0
8.0,-247.0,-81.0,3.0,66.0,-2.0,0
12.0,-247.0,-78.0,4.0,67.0,-1.0,0
6.0,-247.0,-74.0,2.0,68.0,-3.0,0
9.0,-246.0,-76.0,1.0,67.0,-2.0,0
9.0,-249.0,-76.0,-2.0,69.0,-3.0,0
14.0,-248.0,-81.0,-4.0,68.0,-1.0,0
11.0,-250.0,-82.0,-8.0,68.0,-4.0,0
10.0,-247.0,-79.0,-9.0,69.0,-3.0,0
10.0,-246.0,-79.0,-9.0,70.0,-5.0,0
9.0,-246.0,-81.0,-10.0,70.0,-1.0,0
9.0,-247.0,-80.0,-11.0,71.0,-4.0,0
8.0,-245.0,-81.0,-11.0,71.0,-2.0,0
11.0,-245.0,-78.0,-11.0,74.0,-4.0,0
10.0,-244.0,-81.0,-9.0,74.0,-1.0,0
12.0,-247.0,-81.0,-8.0,75.0,-3.0,0
10.0,-246.0,-79.0,-5.0,76.0,-1.0,0
7.0,-247.0,-81.0,-2.0,74.0,-3.0,0
8.0,-246.0,-78.0,0.0,72.0,-1.0,0
11.0,-246.0,-78.0,1.0,72.0,-2.0,0
9.0,-247.0,-79.0,4.0,71.0,1.0,0
11.0,-246.0,-81.0,6.0,67.0,-1.0,0
9.0,-245.0,-77.0,5.0,66.0,0.0,0
9.0,-244.0,-81.0,5.0,65.0,-1.0,0
10.0,-246.0,-80.0,5.0,64.0,0.0,0
10.0,-245.0,-78.0,3.0,63.0,0.0,0
9.0,-246.0,-76.0,3.0,64.0,0.0,0
11.0,-247.0,-76.0,5.0,63.0,-1.0,0
11.0,-247.0,-77.0,5.0,64.0,-2.0,0
7.0,-247.0,-76.0,7.0,64.0,-3.0,0
9.0,-244.0,-78.0,7.0,65.0,-3.0,0
7.0,-243.0,-78.0,6.0,65.0,-4.0,0
8.0,-244.0,-74.0,3.0,64.0,-2.0,0
10.0,-244.0,-77.0,-1.0,64.0,-3.0,0
9.0,-246.0,-78.0,-5.0,64.0,-2.0,0
8.0,-246.0,-78.0,-8.0,62.0,-4.0,0
6.0,-246.0,-79.0,-11.0,62.0,-3.0,0
7.0,-246.0,-84.0,-16.0,60.0,-4.0,0
11.0,-246.0,-80.0,-17.0,57.0,-3.0,0
9.0,-249.0,-85.0,-19.0,55.0,-1.0,0
11.0,-250.0,-83.0,-21.0,54.0,0.0,0
12.0,-253.0,-87.0,-22.0,55.0,0.0,0
11.0,-253.0,-83.0,-20.0,56.0,3.0,0
13.0,-255.0,-84.0,-18.0,56.0,2.0,0
15.0,-257.0,-82.0,-13.0,55.0,2.0,0
15.0,-259.0,-90.0,-5.0,53.0,0.0,0
16.0,-258.0,-92.0,9.0,51.0,-1.0,0
19.0,-255.0,-96.0,24.0,47.0,-6.0,0
22.0,-256.0,-98.0,40.0,40.0,-14.0,0
23.0,-250.0,-110.0,45.0,29.0,-22.0,0
24.0,-244.0,-117.0,41.0,12.0,-33.0,0
17.0,-235.0,-124.0,20.0,2.0,-44.0,0
17.0,-227.0,-130.0,-15.0,-7.0,-50.0,0
16.0,-223.0,-129.0,-67.0,-14.0,-55.0,0
17.0,-219.0,-128.0,-133.0,-14.0,-55.0,0
13.0,-212.0,-132.0,-208.0,-9.0,-58.0,0
10.0,-206.0,-137.0,-291.0,-4.0,-60.0,0
8.0,-205.0,-135.0,-376.0,6.0,-62.0,0
7.0,-202.0,-133.0,-459.0,14.0,-65.0,0
4.0,-202.0,-132.0,-537.0,25.0,-66.0,0
6.0,-201.0,-129.0,-603.0,34.0,-69.0,0
6.0,-201.0,-128.0,-661.0,46.0,-69.0,0
7.0,-198.0,-130.0,-693.0,56.0,-68.0,0
10.0,-197.0,-130.0,-713.0,68.0,-67.0,0
14.0,-197.0,-130.0,-719.0,78.0,-70.0,0
20.0,-198.0,-134.0,-713.0,91.0,-70.0,0
20.0,-188.0,-134.0,-703.0,108.0,-71.0,0
26.0,-186.0,-138.0,-693.0,126.0,-70.0,0
27.0,-179.0,-144.0,-690.0,145.0,-72.0,0
32.0,-174.0,-150.0,-699.0,166.0,-74.0,0
31.0,-168.0,-150.0,-714.0,184.0,-80.0,0
33.0,-160.0,-154.0,-732.0,207.0,-80.0,0
29.0,-154.0,-149.0,-750.0,219.0,-79.0,0
27.0,-154.0,-141.0,-763.0,219.0,-72.0,0
22.0,-151.0,-137.0,-776.0,208.0,-64.0,0
18.0,-150.0,-129.0,-786.0,183.0,-52.0,0
16.0,-152.0,-122.0,-790.0,149.0,-40.0,0
12.0,-153.0,-113.0,-784.0,107.0,-24.0,0
5.0,-153.0,-109.0,-773.0,62.0,-11.0,0
3.0,-154.0,-105.0,-756.0,16.0,7.0,0
2.0,-152.0,-97.0,-738.0,-27.0,20.0,0
0.0,-153.0,-97.0,-722.0,-77.0,36.0,0
-3.0,-153.0,-94.0,-715.0,-116.0,40.0,0
-3.0,-151.0,-88.0,-714.0,-154.0,43.0,0
-7.0,-153.0,-89.0,-721.0,-193.0,39.0,0
-8.0,-152.0,-90.0,-734.0,-234.0,34.0,0
-10.0,-154.0,-91.0,-756.0,-278.0,14.0,0
-12.0,-152.0,-97.0,-782.0,-321.0,-7.0,0
-13.0,-155.0,-101.0,-819.0,-361.0,-36.0,0
-19.0,-157.0,-105.0,-861.0,-396.0,-66.0,0
-23.0,-156.0,-108.0,-910.0,-424.0,-103.0,0
-26.0,-156.0,-111.0,-961.0,-445.0,-144.0,0
-23.0,-161.0,-112.0,-1014.0,-452.0,-182.0,0
-21.0,-166.0,-118.0,-1058.0,-442.0,-216.0,0
-18.0,-172.0,-117.0,-1099.0,-417.0,-256.0,0
-15.0,-175.0,-124.0,-1134.0,-374.0,-289.0,0
-8.0,-182.0,-129.0,-1171.0,-315.0,-318.0,0
-2.0,-189.0,-133.0,-1204.0,-243.0,-337.0,0
7.0,-190.0,-136.0,-1232.0,-163.0,-353.0,0
17.0,-196.0,-138.0,-1257.0,-77.0,-354.0,0
27.0,-198.0,-152.0,-1277.0,17.0,-353.0,0
38.0,-200.0,-162.0,-1297.0,122.0,-338.0,0
52.0,-206.0,-160.0,-1321.0,251.0,-321.0,0
64.0,-210.0,-169.0,-1334.0,359.0,-295.0,0
70.0,-210.0,-169.0,-1337.0,462.0,-270.0,0
80.0,-206.0,-168.0,-1324.0,553.0,-236.0,0
82.0,-202.0,-170.0,-1302.0,629.0,-202.0,0
83.0,-197.0,-165.0,-1275.0,690.0,-164.0,0
88.0,-195.0,-162.0,-1244.0,734.0,-133.0,0
81.0,-187.0,-159.0,-1208.0,759.0,-97.0,0
73.0,-178.0,-145.0,-1168.0,769.0,-66.0,0
63.0,-171.0,-129.0,-1120.0,755.0,-29.0,0
53.0,-163.0,-117.0,-1053.0,703.0,-5.0,0
44.0,-153.0,-94.0,-984.0,627.0,19.0,0
29.0,-146.0,-77.0,-896.0,528.0,30.0,0
17.0,-140.0,-63.0,-800.0,409.0,40.0,0
3.0,-130.0,-53.0,-712.0,276.0,43.0,0
-12.0,-118.0,-42.0,-623.0,132.0,43.0,0
-23.0,-109.0,-31.0,-527.0,-19.0,38.0,0
-36.0,-96.0,-31.0,-435.0,-169.0,35.0,0
-38.0,-78.0,-36.0,-366.0,-307.0,25.0,0
-41.0,-68.0,-49.0,-327.0,-424.0,8.0,0
-39.0,-55.0,-60.0,-326.0,-523.0,-24.0,0
-35.0,-37.0,-83.0,-365.0,-569.0,-54.0,0
-28.0,-24.0,-100.0,-440.0,-586.0,-92.0,0
-23.0,-9.0,-121.0,-558.0,-564.0,-126.0,0
-12.0,-1.0,-143.0,-715.0,-510.0,-169.0,0
-12.0,3.0,-160.0,-918.0,-431.0,-204.0,0
-15.0,-9.0,-175.0,-1170.0,-344.0,-238.0,0
-11.0,-13.0,-188.0,-1472.0,-275.0,-263.0,0
-10.0,-23.0,-198.0,-1752.0,-215.0,-289.0,0
-11.0,-50.0,-187.0,-2015.0,-186.0,-305.0,0
-12.0,-73.0,-184.0,-2209.0,-193.0,-313.0,0
-19.0,-105.0,-178.0,-2351.0,-226.0,-294.0,0
-22.0,-144.0,-170.0,-2398.0,-277.0,-265.0,0
-26.0,-184.0,-151.0,-2367.0,-335.0,-226.0,0
-36.0,-216.0,-140.0,-2253.0,-394.0,-184.0,0
-37.0,-252.0,-125.0,-2072.0,-457.0,-135.0,0
-41.0,-272.0,-120.0,-1842.0,-517.0,-88.0,0
-39.0,-293.0,-120.0,-1584.0,-575.0,-36.0,0
-34.0,-312.0,-125.0,-1322.0,-635.0,17.0,0
-20.0,-324.0,-140.0,-1078.0,-676.0,69.0,0
-10.0,-328.0,-152.0,-858.0,-691.0,115.0,0
3.0,-336.0,-163.0,-620.0,-676.0,141.0,0
17.0,-338.0,-179.0,-437.0,-641.0,145.0,0
31.0,-339.0,-190.0,-264.0,-594.0,137.0,0
46.0,-339.0,-197.0,-97.0,-538.0,112.0,0
56.0,-333.0,-213.0,65.0,-473.0,77.0,0
68.0,-325.0,-223.0,209.0,-401.0,29.0,0
71.0,-316.0,-224.0,328.0,-331.0,-29.0,0
75.0,-300.0,-219.0,431.0,-265.0,-90.0,0
75.0,-280.0,-215.0,531.0,-209.0,-150.0,0
71.0,-257.0,-218.0,622.0,-154.0,-217.0,0
70.0,-236.0,-214.0,686.0,-115.0,-254.0,0
59.0,-210.0,-215.0,695.0,-86.0,-279.0,0
53.0,-185.0,-213.0,673.0,-75.0,-286.0,0
42.0,-166.0,-218.0,627.0,-76.0,-281.0,0
33.0,-149.0,-217.0,561.0,-84.0,-264.0,0
23.0,-139.0,-217.0,484.0,-102.0,-236.0,0
13.0,-135.0,-215.0,407.0,-123.0,-190.0,0
6.0,-144.0,-213.0,338.0,-143.0,-133.0,0
3.0,-157.0,-213.0,287.0,-154.0,-63.0,0
3.0,-171.0,-216.0,259.0,-149.0,30.0,0
3.0,-195.0,-213.0,263.0,-128.0,111.0,0
10.0,-218.0,-214.0,301.0,-108.0,182.0,0
15.0,-241.0,-214.0,372.0,-93.0,242.0,0
20.0,-265.0,-215.0,467.0,-86.0,289.0,0
25.0,-282.0,-214.0,577.0,-94.0,314.0,0
28.0,-296.0,-215.0,692.0,-119.0,320.0,0
28.0,-305.0,-208.0,802.0,-156.0,306.0,0
24.0,-314.0,-204.0,908.0,-205.0,283.0,0
25.0,-324.0,-201.0,1010.0,-251.0,252.0,0
28.0,-330.0,-200.0,1118.0,-280.0,215.0,0
21.0,-335.0,-194.0,1260.0,-283.0,181.0,0
14.0,-341.0,-175.0,1389.0,-263.0,146.0,0
5.0,-345.0,-150.0,1528.0,-251.0,112.0,0
0.0,-344.0,-140.0,1670.0,-253.0,78.0,0
-8.0,-359.0,-122.0,1815.0,-277.0,47.0,0
-16.0,-383.0,-99.0,1963.0,-326.0,17.0,0
-22.0,-426.0,-75.0,2122.0,-410.0,-24.0,0
-21.0,-496.0,-59.0,2295.0,-522.0,-64.0,0
-42.0,-632.0,11.0,2472.0,-649.0,-122.0,0
-36.0,-742.0,-15.0,2721.0,-825.0,-177.0,0
-14.0,-732.0,-148.0,2942.0,-1120.0,-348.0,0
-18.0,-718.0,-237.0,2990.0,-1378.0,-593.0,0
-24.0,-668.0,-351.0,3028.0,-1566.0,-817.0,0
-34.0,-535.0,-478.0,3104.0,-1690.0,-1026.0,0
-70.0,-311.0,-566.0,3111.0,-1693.0,-1162.0,0
-84.0,-96.0,-670.0,2966.0,-1502.0,-1088.0,0
-87.0,-2.0,-726.0,2490.0,-1028.0,-753.0,0
-67.0,-56.0,-647.0,1693.0,-404.0,-267.0,0
-45.0,-177.0,-397.0,769.0,132.0,182.0,0
-17.0,-274.0,-274.0,89.0,377.0,467.0,0
3.0,-363.0,-166.0,-188.0,458.0,568.0,0
7.0,-401.0,-88.0,-195.0,427.0,496.0,0
11.0,-410.0,-36.0,-66.0,366.0,369.0,0
13.0,-397.0,-3.0,140.0,305.0,238.0,0
10.0,-370.0,16.0,372.0,243.0,111.0,0
12.0,-329.0,25.0,601.0,184.0,7.0,0
9.0,-270.0,16.0,790.0,133.0,-82.0,0
0.0,-235.0,11.0,888.0,96.0,-136.0,0
-6.0,-189.0,13.0,863.0,95.0,-151.0,0
-8.0,-145.0,17.0,727.0,120.0,-138.0,0
-13.0,-114.0,18.0,522.0,153.0,-123.0,0
-16.0,-95.0,21.0,225.0,176.0,-97.0,0
-21.0,-93.0,22.0,-37.0,196.0,-70.0,0
-19.0,-101.0,20.0,-307.0,195.0,-47.0,0
-15.0,-115.0,17.0,-530.0,186.0,-32.0,0
-12.0,-133.0,10.0,-667.0,193.0,-13.0,0
-10.0,-159.0,-3.0,-725.0,210.0,-2.0,0
-8.0,-179.0,-9.0,-726.0,237.0,10.0,0
-8.0,-206.0,-24.0,-672.0,256.0,10.0,0
9.0,-222.0,-34.0,-587.0,263.0,6.0,0
-7.0,-239.0,-39.0,-478.0,264.0,-9.0,0
7.0,-246.0,-48.0,-320.0,252.0,-20.0,0
-7.0,-268.0,-49.0,-187.0,233.0,-41.0,0
-9.0,-266.0,-60.0,-58.0,212.0,-55.0,0
-3.0,-282.0,-53.0,65.0,189.0,-75.0,0
-7.0,-289.0,-76.0,185.0,166.0,-86.0,0
-8.0,-300.0,-78.0,310.0,142.0,-96.0,0
-7.0,-291.0,-92.0,433.0,123.0,-103.0,0
-6.0,-292.0,-106.0,547.0,110.0,-111.0,0
7.0,-281.0,-125.0,640.0,98.0,-113.0,0
1.0,-284.0,-98.0,709.0,91.0,-118.0,0
-8.0,-284.0,-135.0,762.0,88.0,-117.0,0
-8.0,-280.0,-145.0,784.0,89.0,-118.0,0
-11.0,-277.0,-155.0,792.0,93.0,-111.0,0
-10.0,-271.0,-158.0,788.0,97.0,-109.0,0
-8.0,-271.0,-159.0,774.0,99.0,-101.0,0
-9.0,-266.0,-160.0,754.0,100.0,-101.0,0
-4.0,-262.0,-161.0,724.0,103.0,-96.0,0
-4.0,-255.0,-154.0,696.0,110.0,-98.0,0
3.0,-255.0,-155.0,668.0,122.0,-93.0,0
8.0,-245.0,-147.0,641.0,139.0,-97.0,0
9.0,-239.0,-143.0,606.0,166.0,-97.0,0
13.0,-235.0,-139.0,576.0,185.0,-101.0,0
12.0,-225.0,-135.0,542.0,199.0,-97.0,0
17.0,-221.0,-138.0,507.0,213.0,-98.0,0
17.0,-217.0,-127.0,474.0,225.0,-91.0,0
25.0,-213.0,-136.0,447.0,235.0,-87.0,0
28.0,-210.0,-133.0,424.0,248.0,-81.0,0
34.0,-208.0,-129.0,402.0,259.0,-80.0,0
33.0,-203.0,-127.0,382.0,265.0,-75.0,0
37.0,-207.0,-126.0,366.0,271.0,-75.0,0
37.0,-204.0,-121.0,343.0,276.0,-72.0,0
37.0,-202.0,-118.0,320.0,281.0,-75.0,0
36.0,-205.0,-113.0,302.0,281.0,-73.0,0
33.0,-203.0,-109.0,279.0,282.0,-80.0,0
32.0,-204.0,-106.0,255.0,282.0,-83.0,0
26.0,-205.0,-101.0,235.0,282.0,-88.0,0
24.0,-211.0,-98.0,214.0,279.0,-89.0,0
18.0,-215.0,-96.0,197.0,278.0,-96.0,0
11.0,-214.0,-90.0,184.0,275.0,-99.0,0
10.0,-220.0,-84.0,179.0,269.0,-103.0,0
8.0,-217.0,-82.0,183.0,261.0,-107.0,0
1.0,-222.0,-81.0,193.0,252.0,-113.0,0
0.0,-224.0,-79.0,206.0,239.0,-115.0,0
-6.0,-224.0,-77.0,224.0,230.0,-122.0,0
-6.0,-232.0,-79.0,246.0,224.0,-121.0,0
-8.0,-233.0,-81.0,269.0,220.0,-122.0,0
-6.0,-237.0,-85.0,289.0,221.0,-118.0,0
-7.0,-235.0,-91.0,304.0,228.0,-115.0,0
-7.0,-238.0,-91.0,316.0,236.0,-109.0,0
-3.0,-242.0,-93.0,328.0,247.0,-104.0,0
-2.0,-247.0,-90.0,335.0,258.0,-99.0,0
-2.0,-250.0,-94.0,343.0,266.0,-98.0,0
2.0,-252.0,-94.0,346.0,270.0,-96.0,0
1.0,-255.0,-94.0,349.0,272.0,-97.0,0
10.0,-256.0,-90.0,351.0,274.0,-95.0,0
8.0,-257.0,-94.0,349.0,272.0,-98.0,0
8.0,-256.0,-91.0,346.0,270.0,-101.0,0
12.0,-259.0,-89.0,343.0,264.0,-106.0,0
13.0,-258.0,-83.0,338.0,256.0,-108.0,0
16.0,-259.0,-85.0,334.0,246.0,-111.0,0
11.0,-258.0,-82.0,331.0,236.0,-111.0,0
15.0,-258.0,-81.0,328.0,229.0,-112.0,0
12.0,-256.0,-81.0,329.0,224.0,-112.0,0
12.0,-258.0,-82.0,328.0,219.0,-111.0,0
11.0,-251.0,-80.0,326.0,214.0,-109.0,0
12.0,-249.0,-74.0,324.0,209.0,-107.0,0
10.0,-248.0,-76.0,323.0,207.0,-103.0,0
13.0,-250.0,-72.0,321.0,205.0,-99.0,0
12.0,-242.0,-71.0,317.0,205.0,-96.0,0
12.0,-242.0,-70.0,311.0,207.0,-90.0,0
11.0,-240.0,-65.0,307.0,210.0,-83.0,0
16.0,-239.0,-61.0,298.0,213.0,-77.0,0
15.0,-239.0,-55.0,291.0,215.0,-68.0,0
14.0,-235.0,-62.0,281.0,217.0,-62.0,0
18.0,-232.0,-58.0,270.0,219.0,-55.0,0
16.0,-234.0,-58.0,255.0,220.0,-48.0,0
21.0,-236.0,-54.0,240.0,218.0,-43.0,0
17.0,-234.0,-55.0,225.0,214.0,-41.0,0
18.0,-236.0,-55.0,211.0,208.0,-41.0,0
17.0,-236.0,-53.0,199.0,202.0,-40.0,0
20.0,-239.0,-57.0,185.0,195.0,-39.0,0
19.0,-237.0,-57.0,167.0,189.0,-40.0,0
18.0,-238.0,-61.0,151.0,184.0,-41.0,0
18.0,-245.0,-60.0,134.0,176.0,-42.0,0
18.0,-244.0,-64.0,118.0,169.0,-43.0,0
14.0,-244.0,-67.0,103.0,163.0,-45.0,0
15.0,-247.0,-72.0,88.0,156.0,-48.0,0
17.0,-246.0,-70.0,77.0,149.0,-49.0,0
13.0,-248.0,-71.0,67.0,141.0,-51.0,0
12.0,-248.0,-72.0,62.0,136.0,-50.0,0
12.0,-248.0,-72.0,58.0,131.0,-52.0,0
12.0,-250.0,-76.0,56.0,125.0,-52.0,0
10.0,-253.0,-70.0,59.0,123.0,-53.0,0
12.0,-249.0,-74.0,62.0,121.0,-53.0,0
12.0,-253.0,-78.0,67.0,117.0,-55.0,0
12.0,-251.0,-72.0,74.0,113.0,-54.0,0
10.0,-249.0,-76.0,80.0,109.0,-57.0,0
13.0,-247.0,-73.0,86.0,106.0,-55.0,0
12.0,-246.0,-75.0,90.0,102.0,-55.0,0
11.0,-246.0,-78.0,93.0,94.0,-52.0,0
13.0,-243.0,-74.0,93.0,89.0,-52.0,0
12.0,-241.0,-78.0,90.0,79.0,-48.0,0
13.0,-240.0,-76.0,84.0,72.0,-48.0,0
14.0,-242.0,-72.0,78.0,65.0,-41.0,0
12.0,-242.0,-77.0,74.0,59.0,-39.0,0
14.0,-242.0,-76.0,71.0,56.0,-32.0,0
16.0,-240.0,-76.0,65.0,57.0,-28.0,0
14.0,-242.0,-77.0,59.0,60.0,-21.0,0
16.0,-238.0,-78.0,54.0,66.0,-18.0,0
20.0,-241.0,-77.0,47.0,75.0,-13.0,0
19.0,-239.0,-71.0,41.0,81.0,-9.0,0
18.0,-241.0,-76.0,33.0,87.0,-4.0,0
19.0,-243.0,-77.0,26.0,92.0,-3.0,0
16.0,-240.0,-75.0,23.0,96.0,0.0,0
18.0,-240.0,-75.0,18.0,98.0,-2.0,0
17.0,-241.0,-73.0,15.0,99.0,-1.0,0
18.0,-243.0,-72.0,10.0,99.0,-3.0,0
17.0,-241.0,-71.0,3.0,97.0,-2.0,0
17.0,-242.0,-74.0,-2.0,93.0,-8.0,0
17.0,-246.0,-73.0,-6.0,90.0,-7.0,0
17.0,-246.0,-72.0,-10.0,89.0,-13.0,0
16.0,-246.0,-74.0,-10.0,87.0,-13.0,0
17.0,-246.0,-76.0,-8.0,84.0,-19.0,0
17.0,-247.0,-76.0,-4.0,81.0,-17.0,0
20.0,-246.0,-74.0,-1.0,82.0,-21.0,0
17.0,-246.0,-74.0,3.0,83.0,-21.0,0
20.0,-249.0,-74.0,6.0,81.0,-24.0,0
18.0,-250.0,-76.0,6.0,80.0,-20.0,0
22.0,-251.0,-74.0,10.0,78.0,-21.0,0
21.0,-254.0,-77.0,16.0,77.0,-17.0,0
21.0,-248.0,-74.0,16.0,76.0,-18.0,0
25.0,-249.0,-78.0,18.0,77.0,-14.0,0
24.0,-249.0,-77.0,19.0,78.0,-15.0,0
24.0,-245.0,-75.0,18.0,77.0,-10.0,0
25.0,-247.0,-74.0,18.0,76.0,-8.0,0
28.0,-248.0,-75.0,16.0,72.0,-2.0,0
32.0,-248.0,-69.0,15.0,69.0,-1.0,0
26.0,-247.0,-74.0,13.0,64.0,4.0,0
27.0,-247.0,-67.0,12.0,63.0,6.0,0
26.0,-247.0,-70.0,10.0,59.0,12.0,0
27.0,-247.0,-71.0,11.0,56.0,12.0,0
24.0,-244.0,-69.0,10.0,52.0,17.0,0
22.0,-244.0,-71.0,11.0,51.0,15.0,0
19.0,-246.0,-67.0,10.0,50.0,18.0,0
23.0,-246.0,-68.0,10.0,48.0,16.0,0
22.0,-246.0,-68.0,7.0,48.0,19.0,0
18.0,-243.0,-70.0,4.0,48.0,16.0,0
18.0,-245.0,-67.0,0.0,50.0,19.0,0
19.0,-246.0,-66.0,-5.0,51.0,17.0,0
16.0,-247.0,-68.0,-8.0,51.0,20.0,0
15.0,-246.0,-66.0,-15.0,52.0,18.0,0
15.0,-244.0,-67.0,-17.0,56.0,20.0,0
13.0,-247.0,-69.0,-18.0,59.0,20.0,0
13.0,-251.0,-64.0,-19.0,61.0,22.0,0
12.0,-249.0,-69.0,-19.0,66.0,21.0,0
14.0,-249.0,-72.0,-19.0,70.0,24.0,0
16.0,-250.0,-69.0,-19.0,73.0,22.0,0
16.0,-249.0,-69.0,-20.0,74.0,25.0,0
16.0,-246.0,-73.0,-23.0,77.0,24.0,0
14.0,-247.0,-71.0,-27.0,77.0,26.0,0
16.0,-248.0,-76.0,-28.0,75.0,25.0,0
19.0,-249.0,-74.0,-29.0,75.0,26.0,0
18.0,-246.0,-70.0,-29.0,75.0,24.0,0
20.0,-248.0,-68.0,-27.0,72.0,26.0,0
15.0,-246.0,-70.0,-29.0,70.0,24.0,0
18.0,-246.0,-69.0,-29.0,69.0,27.0,0
17.0,-248.0,-68.0,-29.0,66.0,26.0,0
18.0,-246.0,-70.0,-29.0,67.0,27.0,0
15.0,-244.0,-70.0,-29.0,68.0,27.0,0
17.0,-247.0,-70.0,-28.0,66.0,28.0,0
17.0,-245.0,-71.0,-28.0,68.0,31.0,0
19.0,-247.0,-73.0,-26.0,68.0,34.0,0
18.0,-252.0,-70.0,-26.0,71.0,33.0,0
17.0,-247.0,-65.0,-25.0,75.0,34.0,0
14.0,-248.0,-69.0,-26.0,77.0,32.0,0
13.0,-248.0,-68.0,-24.0,78.0,32.0,0
17.0,-248.0,-70.0,-26.0,80.0,31.0,0
15.0,-248.0,-69.0,-27.0,80.0,30.0,0
18.0,-251.0,-65.0,-26.0,80.0,29.0,0
14.0,-249.0,-71.0,-27.0,80.0,29.0,0
13.0,-249.0,-70.0,-27.0,79.0,29.0,0
11.0,-250.0,-65.0,-27.0,79.0,27.0,0
15.0,-249.0,-65.0,-28.0,79.0,26.0,0
11.0,-249.0,-73.0,-28.0,77.0,25.0,0
14.0,-250.0,-69.0,-26.0,79.0,22.0,0
14.0,-249.0,-68.0,-24.0,79.0,21.0,0
12.0,-247.0,-70.0,-25.0,78.0,20.0,0
15.0,-246.0,-68.0,-27.0,78.0,18.0,0
15.0,-246.0,-67.0,-31.0,79.0,18.0,0
15.0,-247.0,-72.0,-36.0,77.0,16.0,0
14.0,-247.0,-71.0,-39.0,74.0,18.0,0
14.0,-247.0,-70.0,-42.0,73.0,15.0,0
13.0,-246.0,-72.0,-47.0,71.0,16.0,0
12.0,-250.0,-74.0,-47.0,73.0,17.0,0
12.0,-248.0,-72.0,-46.0,73.0,18.0,0
13.0,-247.0,-70.0,-43.0,73.0,17.0,0
17.0,-247.0,-70.0,-39.0,75.0,20.0,0
14.0,-248.0,-74.0,-37.0,75.0,19.0,0
14.0,-249.0,-74.0,-34.0,76.0,21.0,0
17.0,-245.0,-70.0,-30.0,79.0,22.0,0
16.0,-245.0,-73.0,-29.0,82.0,22.0,0
14.0,-249.0,-73.0,-27.0,83.0,21.0,0
15.0,-248.0,-74.0,-26.0,83.0,20.0,0
16.0,-248.0,-74.0,-25.0,86.0,18.0,0
14.0,-246.0,-74.0,-24.0,88.0,19.0,0
14.0,-247.0,-77.0,-24.0,89.0,17.0,0
15.0,-248.0,-73.0,-24.0,92.0,17.0,0
18.0,-250.0,-73.0,-23.0,92.0,16.0,0
16.0,-248.0,-75.0,-24.0,94.0,15.0,0
14.0,-249.0,-70.0,-24.0,94.0,14.0,0
16.0,-249.0,-71.0,-22.0,95.0,15.0,0
10.0,-245.0,-70.0,-21.0,95.0,13.0,0
15.0,-247.0,-73.0,-19.0,94.0,14.0,0
18.0,-250.0,-75.0,-16.0,92.0,13.0,0
14.0,-250.0,-73.0,-15.0,92.0,16.0,0
16.0,-248.0,-71.0,-15.0,90.0,13.0,0
16.0,-252.0,-71.0,-16.0,89.0,16.0,0
17.0,-250.0,-74.0,-15.0,87.0,14.0,0
19.0,-246.0,-73.0,-16.0,87.0,16.0,0
15.0,-248.0,-73.0,-18.0,85.0,13.0,0
13.0,-244.0,-72.0,-17.0,85.0,15.0,0
15.0,-244.0,-71.0,-18.0,81.0,13.0,0
18.0,-246.0,-74.0,-17.0,78.0,15.0,0
15.0,-246.0,-77.0,-16.0,77.0,13.0,0
13.0,-245.0,-69.0,-16.0,77.0,14.0,0
15.0,-247.0,-76.0,-16.0,78.0,13.0,0
17.0,-246.0,-76.0,-16.0,76.0,14.0,0
12.0,-247.0,-72.0,-16.0,76.0,13.0,0
14.0,-246.0,-73.0,-15.0,75.0,15.0,0
17.0,-247.0,-70.0,-16.0,74.0,14.0,0
12.0,-244.0,-74.0,-14.0,73.0,18.0,0
15.0,-247.0,-70.0,-15.0,73.0,16.0,0
15.0,-248.0,-78.0,-16.0,73.0,17.0,0
12.0,-245.0,-74.0,-17.0,73.0,17.0,0
11.0,-244.0,-73.0,-19.0,74.0,19.0,0
13.0,-250.0,-76.0,-18.0,73.0,15.0,0
13.0,-251.0,-72.0,-18.0,72.0,16.0,0
14.0,-248.0,-72.0,-16.0,71.0,13.0,0
13.0,-251.0,-76.0,-15.0,71.0,14.0,0
14.0,-250.0,-73.0,-11.0,71.0,12.0,0
13.0,-247.0,-77.0,-10.0,74.0,13.0,0
15.0,-248.0,-72.0,-7.0,75.0,11.0,0
14.0,-248.0,-74.0,-5.0,76.0,11.0,0
17.0,-249.0,-75.0,-3.0,78.0,9.0,0
14.0,-246.0,-77.0,-2.0,81.0,10.0,0
15.0,-245.0,-73.0,-1.0,80.0,5.0,0
15.0,-249.0,-76.0,1.0,79.0,6.0,0
12.0,-246.0,-75.0,-2.0,76.0,2.0,0
14.0,-247.0,-77.0,-3.0,73.0,3.0,0
14.0,-247.0,-79.0,-5.0,71.0,1.0,0
14.0,-247.0,-78.0,-9.0,68.0,3.0,0
13.0,-246.0,-77.0,-12.0,64.0,2.0,0
13.0,-244.0,-76.0,-12.0,63.0,6.0,0
13.0,-245.0,-70.0,-12.0,62.0,4.0,0
16.0,-248.0,-71.0,-11.0,63.0,11.0,0
13.0,-245.0,-69.0,-9.0,64.0,10.0,0
16.0,-250.0,-70.0,-8.0,63.0,13.0,0
15.0,-250.0,-69.0,-5.0,64.0,14.0,0
13.0,-251.0,-72.0,-3.0,64.0,16.0,0
12.0,-248.0,-71.0,-1.0,62.0,15.0,0
12.0,-247.0,-71.0,2.0,60.0,18.0,0
14.0,-250.0,-69.0,4.0,59.0,16.0,0
10.0,-246.0,-67.0,7.0,58.0,15.0,0
17.0,-249.0,-65.0,10.0,56.0,11.0,0
13.0,-247.0,-70.0,11.0,56.0,12.0,0
11.0,-246.0,-70.0,9.0,56.0,10.0,0
12.0,-248.0,-72.0,8.0,57.0,10.0,0
14.0,-248.0,-76.0,5.0,59.0,5.0,0
14.0,-248.0,-75.0,3.0,58.0,6.0,0
12.0,-248.0,-72.0,0.0,60.0,4.0,0
11.0,-249.0,-74.0,-4.0,61.0,4.0,0
15.0,-251.0,-71.0,-7.0,60.0,3.0,0
13.0,-247.0,-70.0,-10.0,59.0,3.0,0
13.0,-246.0,-78.0,-12.0,61.0,1.0,0
12.0,-249.0,-72.0,-12.0,60.0,3.0,0
14.0,-247.0,-75.0,-14.0,61.0,0.0,0
14.0,-249.0,-76.0,-13.0,61.0,3.0,0
12.0,-248.0,-72.0,-12.0,61.0,2.0,0
15.0,-250.0,-70.0,-11.0,62.0,3.0,0
14.0,-248.0,-74.0,-9.0,62.0,3.0,0
14.0,-249.0,-72.0,-7.0,61.0,4.0,0
14.0,-250.0,-71.0,-4.0,61.0,4.0,0
15.0,-248.0,-73.0,0.0,60.0,6.0,0
14.0,-249.0,-73.0,3.0,58.0,4.0,0
12.0,-251.0,-72.0,4.0,60.0,7.0,0
13.0,-246.0,-75.0,7.0,61.0,6.0,0
15.0,-248.0,-72.0,6.0,61.0,8.0,0
15.0,-248.0,-73.0,7.0,61.0,6.0,0
17.0,-247.0,-72.0,7.0,60.0,8.0,0
14.0,-246.0,-70.0,6.0,61.0,7.0,0
14.0,-249.0,-74.0,5.0,61.0,7.0,0
11.0,-247.0,-71.0,2.0,61.0,6.0,0
14.0,-247.0,-70.0,2.0,60.0,6.0,0
13.0,-247.0,-72.0,-1.0,59.0,4.0,0
14.0,-246.0,-71.0,-2.0,59.0,4.0,0
15.0,-249.0,-71.0,-1.0,59.0,3.0,0
12.0,-249.0,-70.0,0.0,58.0,3.0,0
13.0,-249.0,-70.0,1.0,57.0,1.0,0
16.0,-249.0,-71.0,2.0,58.0,0.0,0
12.0,-247.0,-69.0,1.0,58.0,-3.0,0
14.0,-248.0,-71.0,0.0,57.0,-4.0,0
12.0,-247.0,-73.0,-1.0,57.0,-3.0,0
15.0,-248.0,-71.0,0.0,56.0,-2.0,0
13.0,-245.0,-73.0,-3.0,55.0,-3.0,0
15.0,-252.0,-73.0,-4.0,54.0,-3.0,0
15.0,-247.0,-72.0,-6.0,55.0,-3.0,0
12.0,-245.0,-74.0,-6.0,56.0,-5.0,0
15.0,-248.0,-73.0,-9.0,57.0,-4.0,0
15.0,-249.0,-73.0,-7.0,57.0,-3.0,0
16.0,-249.0,-73.0,-8.0,56.0,-3.0,0
15.0,-245.0,-73.0,-8.0,57.0,-4.0,0
15.0,-247.0,-73.0,-7.0,58.0,-3.0,0
15.0,-248.0,-68.0,-11.0,58.0,-5.0,0
14.0,-247.0,-72.0,-10.0,58.0,-7.0,0
13.0,-249.0,-74.0,-10.0,56.0,-6.0,0
12.0,-246.0,-69.0,-9.0,56.0,-6.0,0
13.0,-250.0,-75.0,-7.0,55.0,-6.0,0
12.0,-249.0,-68.0,-5.0,57.0,-5.0,0
14.0,-247.0,-70.0,-5.0,57.0,-7.0,0
12.0,-249.0,-73.0,-4.0,56.0,-5.0,0
11.0,-247.0,-72.0,-3.0,55.0,-8.0,0
14.0,-250.0,-70.0,-1.0,56.0,-6.0,0
14.0,-248.0,-71.0,0.0,57.0,-6.0,0
12.0,-249.0,-70.0,0.0,59.0,-6.0,0
12.0,-247.0,-69.0,1.0,60.0,-7.0,0
13.0,-246.0,-71.0,1.0,61.0,-6.0,0
15.0,-249.0,-69.0,0.0,61.0,-9.0,0
13.0,-247.0,-68.0,-1.0,61.0,-6.0,0
14.0,-251.0,-67.0,-3.0,62.0,-8.0,0
13.0,-248.0,-74.0,-5.0,63.0,-7.0,0
13.0,-249.0,-69.0,-6.0,62.0,-8.0,0
13.0,-247.0,-67.0,-7.0,63.0,-7.0,0
15.0,-251.0,-68.0,-8.0,62.0,-8.0,0
16.0,-250.0,-69.0,-11.0,62.0,-7.0,0
14.0,-247.0,-67.0,-12.0,61.0,-9.0,0
16.0,-249.0,-70.0,-12.0,59.0,-7.0,0
14.0,-248.0,-72.0,-12.0,59.0,-9.0,0
15.0,-247.0,-70.0,-11.0,60.0,-6.0,0
16.0,-249.0,-69.0,-12.0,57.0,-8.0,0
13.0,-250.0,-66.0,-11.0,56.0,-4.0,0
15.0,-249.0,-73.0,-9.0,56.0,-7.0,0
12.0,-246.0,-68.0,-10.0,54.0,-4.0,0
14.0,-249.0,-71.0,-8.0,54.0,-7.0,0
14.0,-247.0,-73.0,-5.0,52.0,-5.0,0
16.0,-249.0,-74.0,-4.0,53.0,-8.0,0
13.0,-247.0,-67.0,-6.0,53.0,-6.0,0
17.0,-248.0,-71.0,-6.0,54.0,-7.0,0
16.0,-251.0,-72.0,-7.0,53.0,-6.0,0
16.0,-246.0,-74.0,-7.0,54.0,-8.0,0
16.0,-248.0,-73.0,-6.0,53.0,-5.0,0
17.0,-245.0,-74.0,-8.0,54.0,-8.0,0
15.0,-250.0,-75.0,-9.0,53.0,-4.0,0
11.0,-245.0,-71.0,-9.0,54.0,-6.0,0
15.0,-249.0,-64.0,-9.0,54.0,-3.0,0
14.0,-252.0,-69.0,-9.0,56.0,-5.0,0
16.0,-248.0,-68.0,-9.0,57.0,-2.0,0
12.0,-247.0,-71.0,-7.0,58.0,-5.0,0
13.0,-247.0,-68.0,-5.0,59.0,-3.0,0
15.0,-252.0,-66.0,-4.0,61.0,-5.0,0
15.0,-246.0,-68.0,-4.0,63.0,-2.0,0
15.0,-249.0,-66.0,-5.0,64.0,-5.0,0
14.0,-251.0,-67.0,-5.0,65.0,-2.0,0
13.0,-248.0,-71.0,-4.0,65.0,-6.0,0
14.0,-248.0,-73.0,-4.0,64.0,-5.0,0
15.0,-248.0,-71.0,-4.0,63.0,-7.0,0
13.0,-246.0,-68.0,-4.0,64.0,-2.0,0
17.0,-245.0,-73.0,-4.0,65.0,-5.0,0
14.0,-246.0,-69.0,-4.0,64.0,-4.0,0
14.0,-248.0,-71.0,-6.0,62.0,-7.0,0
11.0,-246.0,-71.0,-9.0,62.0,-4.0,0
12.0,-248.0,-70.0,-9.0,60.0,-5.0,0
13.0,-247.0,-69.0,-11.0,60.0,-3.0,0
12.0,-246.0,-72.0,-12.0,61.0,-5.0,0
14.0,-246.0,-69.0,-14.0,58.0,-1.0,0
16.0,-247.0,-68.0,-16.0,56.0,-2.0,0
14.0,-248.0,-67.0,-19.0,56.0,0.0,0
12.0,-249.0,-64.0,-18.0,54.0,-1.0,0
16.0,-250.0,-69.0,-20.0,53.0,2.0,0
14.0,-251.0,-68.0,-17.0,53.0,-1.0,0
14.0,-250.0,-66.0,-18.0,53.0,2.0,0
16.0,-251.0,-66.0,-18.0,54.0,0.0,0
12.0,-249.0,-68.0,-15.0,54.0,1.0,0
12.0,-245.0,-72.0,-15.0,53.0,-3.0,0
12.0,-250.0,-71.0,-14.0,53.0,-2.0,0
15.0,-249.0,-68.0,-13.0,52.0,-6.0,0
16.0,-249.0,-69.0,-10.0,53.0,-5.0,0
15.0,-252.0,-75.0,-9.0,55.0,-8.0,0
12.0,-246.0,-73.0,-8.0,55.0,-6.0,0
15.0,-249.0,-75.0,-7.0,56.0,-7.0,0
14.0,-246.0,-71.0,-7.0,56.0,-6.0,0
14.0,-247.0,-71.0,-8.0,56.0,-9.0,0
13.0,-246.0,-73.0,-9.0,58.0,-8.0,0
12.0,-245.0,-67.0,-9.0,58.0,-9.0,0
14.0,-242.0,-75.0,-12.0,60.0,-6.0,0
12.0,-248.0,-80.0,-16.0,61.0,-9.0,0
11.0,-250.0,-68.0,-18.0,62.0,-8.0,0
16.0,-255.0,-56.0,-19.0,61.0,-8.0,0
13.0,-246.0,-86.0,-20.0,62.0,-7.0,0
16.0,-245.0,-75.0,-22.0,63.0,-9.0,0
20.0,-251.0,-79.0,-22.0,65.0,-7.0,0
8.0,-254.0,-67.0,-21.0,63.0,-9.0,0
2.0,-255.0,-72.0,-18.0,65.0,-7.0,0
13.0,-253.0,-60.0,-15.0,63.0,-11.0,0
18.0,-255.0,-63.0,-13.0,61.0,-7.0,0
7.0,-250.0,-69.0,-12.0,59.0,-9.0,0
15.0,-248.0,-66.0,-11.0,57.0,-5.0,0
12.0,-251.0,-71.0,-11.0,55.0,-7.0,0
14.0,-243.0,-71.0,-9.0,52.0,-5.0,0
27.0,-247.0,-59.0,-10.0,53.0,-4.0,0
5.0,-247.0,-88.0,-8.0,53.0,-4.0,0
10.0,-247.0,-72.0,-10.0,52.0,-2.0,0
21.0,-248.0,-66.0,-10.0,52.0,-3.0,0
16.0,-249.0,-69.0,-11.0,54.0,-4.0,0
17.0,-244.0,-72.0,-10.0,56.0,-2.0,0
18.0,-253.0,-68.0,-11.0,54.0,-2.0,0
12.0,-248.0,-69.0,-10.0,55.0,-3.0,0
13.0,-247.0,-69.0,-10.0,55.0,-4.0,0
14.0,-247.0,-68.0,-8.0,55.0,-3.0,0
12.0,-247.0,-68.0,-9.0,56.0,-4.0,0
9.0,-250.0,-78.0,-8.0,55.0,-4.0,0
37.0,-251.0,-62.0,-6.0,55.0,-4.0,0
18.0,-254.0,-57.0,-6.0,56.0,-3.0,0
10.0,-246.0,-71.0,-6.0,57.0,-3.0,0
21.0,-249.0,-80.0,-7.0,55.0,-3.0,0
8.0,-238.0,-78.0,-8.0,55.0,-4.0,0
9.0,-244.0,-76.0,-8.0,53.0,-4.0,0
26.0,-246.0,-76.0,-10.0,52.0,-5.0,0
17.0,-250.0,-72.0,-13.0,53.0,-4.0,0
18.0,-256.0,-74.0,-15.0,54.0,-4.0,0
16.0,-251.0,-72.0,-16.0,54.0,-5.0,0
14.0,-261.0,-73.0,-16.0,55.0,-3.0,0
17.0,-248.0,-69.0,-17.0,55.0,-4.0,0
15.0,-251.0,-66.0,-17.0,55.0,-5.0,0
19.0,-238.0,-76.0,-16.0,54.0,-5.0,0
17.0,-258.0,-54.0,-13.0,54.0,-6.0,0
16.0,-246.0,-67.0,-9.0,54.0,-6.0,0
12.0,-249.0,-63.0,-7.0,53.0,-6.0,0
20.0,-248.0,-66.0,-3.0,52.0,-6.0,0
10.0,-247.0,-71.0,-1.0,53.0,-5.0,0
16.0,-252.0,-71.0,0.0,54.0,-6.0,0
14.0,-250.0,-77.0,2.0,56.0,-4.0,0
5.0,-246.0,-72.0,4.0,54.0,-5.0,0
19.0,-253.0,-66.0,3.0,55.0,-4.0,0
8.0,-241.0,-75.0,3.0,55.0,-3.0,0
19.0,-243.0,-73.0,0.0,55.0,-1.0,0
19.0,-247.0,-71.0,-1.0,56.0,-3.0,0
15.0,-245.0,-73.0,-2.0,54.0,-1.0,0
15.0,-250.0,-75.0,-3.0,53.0,-1.0,0
16.0,-249.0,-71.0,-7.0,53.0,-1.0,0
16.0,-248.0,-69.0,-7.0,52.0,-2.0,0
14.0,-257.0,-66.0,-9.0,50.0,-1.0,0
13.0,-260.0,-80.0,-9.0,50.0,-2.0,0
10.0,-250.0,-77.0,-11.0,49.0,0.0,0
22.0,-246.0,-67.0,-13.0,49.0,-2.0,0
11.0,-249.0,-77.0,-13.0,51.0,0.0,0
25.0,-249.0,-69.0,-14.0,51.0,-1.0,0
12.0,-244.0,-48.0,-16.0,50.0,0.0,0
9.0,-254.0,-66.0,-18.0,52.0,-1.0,0
4.0,-247.0,-78.0,-19.0,52.0,0.0,0
19.0,-250.0,-73.0,-20.0,54.0,-1.0,0
10.0,-252.0,-72.0,-21.0,54.0,0.0,0
25.0,-252.0,-69.0,-23.0,55.0,-3.0,0
15.0,-246.0,-72.0,-24.0,53.0,0.0,0
12.0,-242.0,-76.0,-26.0,52.0,-2.0,0
10.0,-250.0,-71.0,-26.0,52.0,0.0,0
15.0,-251.0,-65.0,-26.0,53.0,-1.0,0
16.0,-251.0,-75.0,-25.0,52.0,0.0,0
10.0,-243.0,-68.0,-21.0,52.0,-3.0,0
8.0,-234.0,-74.0,-19.0,53.0,1.0,0
12.0,-250.0,-72.0,-17.0,55.0,0.0,0
16.0,-245.0,-74.0,-16.0,55.0,3.0,0
7.0,-248.0,-66.0,-15.0,57.0,2.0,0
7.0,-242.0,-77.0,-14.0,57.0,3.0,0
11.0,-251.0,-64.0,-15.0,57.0,2.0,0
28.0,-245.0,-60.0,-16.0,59.0,3.0,0
15.0,-254.0,-69.0,-16.0,58.0,2.0,0
4.0,-243.0,-74.0,-18.0,59.0,5.0,0
17.0,-248.0,-67.0,-18.0,57.0,3.0,0
14.0,-247.0,-70.0,-17.0,57.0,3.0,0
12.0,-250.0,-72.0,-18.0,58.0,0.0,0
12.0,-248.0,-73.0,-17.0,56.0,2.0,0
13.0,-249.0,-72.0,-18.0,57.0,0.0,0
22.0,-254.0,-70.0,-15.0,56.0,2.0,0
15.0,-245.0,-79.0,-13.0,57.0,-1.0,0
19.0,-249.0,-80.0,-13.0,57.0,-1.0,0
13.0,-247.0,-84.0,-12.0,58.0,-3.0,0
9.0,-247.0,-68.0,-11.0,58.0,-2.0,0
13.0,-249.0,-75.0,-12.0,58.0,-6.0,0
10.0,-241.0,-68.0,-12.0,56.0,-3.0,0
12.0,-249.0,-76.0,-11.0,55.0,-3.0,0
23.0,-238.0,-74.0,-10.0,53.0,0.0,0
17.0,-245.0,-64.0,-10.0,52.0,-2.0,0
10.0,-247.0,-76.0,-10.0,52.0,1.0,0
14.0,-250.0,-70.0,-9.0,52.0,0.0,0
18.0,-243.0,-79.0,-10.0,53.0,2.0,0
13.0,-247.0,-78.0,-10.0,53.0,0.0,0
12.0,-251.0,-58.0,-10.0,51.0,2.0,0
14.0,-243.0,-55.0,-11.0,51.0,0.0,0
11.0,-247.0,-77.0,-11.0,50.0,4.0,0
12.0,-249.0,-67.0,-12.0,49.0,2.0,0
19.0,-248.0,-71.0,-12.0,49.0,4.0,0
10.0,-246.0,-67.0,-10.0,49.0,1.0,0
14.0,-256.0,-63.0,-10.0,51.0,4.0,0
10.0,-255.0,-60.0,-11.0,52.0,2.0,0
13.0,-241.0,-67.0,-8.0,53.0,3.0,0
12.0,-240.0,-78.0,-6.0,54.0,0.0,0
9.0,-244.0,-76.0,-5.0,56.0,2.0,0
3.0,-242.0,-74.0,-4.0,56.0,0.0,0
20.0,-243.0,-73.0,-4.0,57.0,1.0,0
22.0,-241.0,-65.0,-3.0,57.0,-2.0,0
16.0,-247.0,-75.0,-5.0,59.0,0.0,0
15.0,-247.0,-70.0,-5.0,60.0,-3.0,0
16.0,-249.0,-75.0,-5.0,58.0,0.0,0
14.0,-249.0,-71.0,-5.0,59.0,-2.0,0
11.0,-246.0,-73.0,-6.0,57.0,0.0,0
14.0,-244.0,-67.0,-5.0,57.0,-3.0,0
13.0,-253.0,-68.0,-5.0,58.0,-2.0,0
0.0,-246.0,-73.0,-3.0,57.0,-5.0,0
7.0,-255.0,-66.0,-5.0,55.0,-4.0,0
21.0,-247.0,-76.0,-5.0,54.0,-5.0,0
11.0,-248.0,-69.0,-6.0,53.0,-3.0,0
14.0,-246.0,-78.0,-7.0,52.0,-6.0,0
16.0,-253.0,-58.0,-7.0,53.0,-3.0,0
14.0,-243.0,-68.0,-8.0,54.0,-6.0,0
18.0,-249.0,-68.0,-8.0,53.0,-4.0,0
18.0,-246.0,-73.0,-8.0,51.0,-5.0,0
8.0,-246.0,-76.0,-9.0,52.0,-5.0,0
15.0,-257.0,-74.0,-9.0,51.0,-5.0,0
11.0,-246.0,-70.0,-9.0,51.0,-3.0,0
27.0,-249.0,-73.0,-5.0,53.0,-4.0,0
20.0,-249.0,-62.0,-3.0,56.0,-3.0,0
20.0,-255.0,-66.0,2.0,58.0,-3.0,0
12.0,-250.0,-64.0,5.0,63.0,0.0,0
12.0,-246.0,-70.0,12.0,66.0,0.0,0
13.0,-243.0,-76.0,17.0,67.0,1.0,0
11.0,-253.0,-66.0,22.0,69.0,-1.0,0
11.0,-244.0,-84.0,27.0,68.0,2.0,0
5.0,-243.0,-76.0,28.0,67.0,-1.0,0
12.0,-240.0,-82.0,27.0,62.0,-2.0,0
11.0,-251.0,-78.0,21.0,57.0,-6.0,0
11.0,-239.0,-79.0,13.0,51.0,-9.0,0
14.0,-245.0,-71.0,5.0,48.0,-12.0,0
12.0,-243.0,-67.0,-2.0,47.0,-14.0,0
11.0,-246.0,-71.0,-9.0,46.0,-15.0,0
8.0,-243.0,-70.0,-12.0,49.0,-12.0,0
12.0,-243.0,-68.0,-13.0,52.0,-11.0,0
17.0,-245.0,-78.0,-10.0,57.0,-10.0,0
15.0,-240.0,-82.0,-7.0,62.0,-14.0,0
17.0,-244.0,-73.0,-3.0,65.0,-19.0,0
15.0,-243.0,-80.0,-5.0,63.0,-22.0,0
14.0,-244.0,-82.0,-10.0,61.0,-23.0,0
19.0,-240.0,-81.0,-20.0,58.0,-25.0,0
16.0,-247.0,-60.0,-32.0,54.0,-28.0,0
23.0,-230.0,-64.0,-46.0,44.0,-35.0,0
11.0,-234.0,-69.0,-63.0,33.0,-41.0,0
23.0,-234.0,-68.0,-78.0,19.0,-50.0,0
18.0,-241.0,-72.0,-89.0,6.0,-59.0,0
16.0,-243.0,-65.0,-100.0,-6.0,-70.0,0
16.0,-231.0,-68.0,-108.0,-15.0,-82.0,0
19.0,-241.0,-64.0,-115.0,-21.0,-97.0,0
23.0,-237.0,-75.0,-126.0,-28.0,-110.0,0
13.0,-239.0,-62.0,-143.0,-27.0,-118.0,0
23.0,-247.0,-71.0,-161.0,-24.0,-125.0,0
20.0,-232.0,-69.0,-183.0,-14.0,-128.0,0
24.0,-238.0,-70.0,-207.0,-4.0,-127.0,0
18.0,-237.0,-63.0,-224.0,3.0,-124.0,0
16.0,-247.0,-66.0,-240.0,11.0,-119.0,0
14.0,-239.0,-66.0,-254.0,15.0,-114.0,0
5.0,-239.0,-69.0,-263.0,16.0,-110.0,0
15.0,-242.0,-80.0,-271.0,14.0,-105.0,0
7.0,-239.0,-80.0,-278.0,9.0,-101.0,0
8.0,-235.0,-79.0,-280.0,6.0,-92.0,0
7.0,-241.0,-68.0,-279.0,4.0,-86.0,0
8.0,-241.0,-71.0,-275.0,7.0,-77.0,0
6.0,-241.0,-65.0,-267.0,8.0,-70.0,0
8.0,-243.0,-69.0,-260.0,11.0,-64.0,0
3.0,-248.0,-72.0,-252.0,9.0,-61.0,0
4.0,-246.0,-67.0,-244.0,4.0,-57.0,0
1.0,-248.0,-67.0,-240.0,-4.0,-58.0,0
4.0,-252.0,-65.0,-234.0,-11.0,-55.0,0
8.0,-253.0,-61.0,-228.0,-15.0,-61.0,0
1.0,-254.0,-60.0,-225.0,-17.0,-64.0,0
2.0,-249.0,-57.0,-220.0,-19.0,-72.0,0
3.0,-250.0,-57.0,-219.0,-22.0,-78.0,0
5.0,-251.0,-55.0,-207.0,-25.0,-83.0,0
2.0,-248.0,-55.0,-199.0,-26.0,-86.0,0
6.0,-245.0,-57.0,-195.0,-24.0,-89.0,0
8.0,-241.0,-59.0,-199.0,-23.0,-87.0,0
11.0,-241.0,-60.0,-207.0,-19.0,-87.0,0
12.0,-238.0,-57.0,-225.0,-16.0,-81.0,0
14.0,-234.0,-63.0,-251.0,-12.0,-80.0,0
16.0,-235.0,-60.0,-285.0,-11.0,-70.0,0
15.0,-234.0,-61.0,-322.0,-10.0,-63.0,0
22.0,-234.0,-61.0,-360.0,-7.0,-51.0,0
22.0,-237.0,-58.0,-403.0,-3.0,-47.0,0
29.0,-240.0,-59.0,-432.0,2.0,-42.0,0
27.0,-242.0,-56.0,-457.0,1.0,-46.0,0
29.0,-244.0,-55.0,-477.0,-3.0,-50.0,0
28.0,-245.0,-57.0,-492.0,-8.0,-62.0,0
25.0,-248.0,-61.0,-506.0,-13.0,-72.0,0
22.0,-238.0,-55.0,-519.0,-14.0,-85.0,0
17.0,-251.0,-66.0,-528.0,-14.0,-93.0,0
20.0,-257.0,-63.0,-544.0,-14.0,-104.0,0
17.0,-258.0,-66.0,-565.0,-16.0,-110.0,0
17.0,-261.0,-74.0,-576.0,-23.0,-114.0,0
22.0,-266.0,-82.0,-580.0,-29.0,-114.0,0
22.0,-266.0,-91.0,-581.0,-34.0,-116.0,0
22.0,-260.0,-113.0,-589.0,-33.0,-112.0,0
24.0,-246.0,-133.0,-614.0,-29.0,-107.0,0
30.0,-216.0,-155.0,-667.0,-14.0,-96.0,0
25.0,-208.0,-183.0,-760.0,9.0,-85.0,0
28.0,-193.0,-196.0,-913.0,36.0,-63.0,0
27.0,-181.0,-209.0,-1134.0,54.0,-42.0,0
21.0,-178.0,-219.0,-1485.0,62.0,-3.0,0
27.0,-189.0,-216.0,-1815.0,67.0,31.0,0
22.0,-209.0,-211.0,-2144.0,68.0,71.0,0
22.0,-238.0,-196.0,-2444.0,66.0,107.0,0
21.0,-269.0,-179.0,-2698.0,49.0,142.0,0
25.0,-303.0,-163.0,-2899.0,19.0,163.0,0
29.0,-330.0,-147.0,-3047.0,-20.0,185.0,0
38.0,-374.0,-127.0,-3136.0,-55.0,197.0,0
47.0,-422.0,-100.0,-3157.0,-70.0,211.0,0
53.0,-461.0,-84.0,-3098.0,-63.0,214.0,0
68.0,-499.0,-95.0,-2913.0,-30.0,205.0,0
68.0,-515.0,-82.0,-2671.0,12.0,172.0,0
72.0,-520.0,-98.0,-2369.0,50.0,129.0,0
66.0,-513.0,-118.0,-2028.0,69.0,72.0,0
61.0,-502.0,-139.0,-1679.0,70.0,19.0,0
58.0,-463.0,-165.0,-1355.0,63.0,-35.0,0
48.0,-452.0,-181.0,-1063.0,56.0,-76.0,0
40.0,-431.0,-188.0,-812.0,60.0,-119.0,0
28.0,-407.0,-194.0,-599.0,67.0,-155.0,0
22.0,-388.0,-190.0,-427.0,78.0,-194.0,0
18.0,-370.0,-186.0,-277.0,98.0,-230.0,0
14.0,-355.0,-181.0,-194.0,113.0,-253.0,0
14.0,-337.0,-175.0,-152.0,139.0,-267.0,0
10.0,-324.0,-165.0,-137.0,170.0,-276.0,0
8.0,-311.0,-155.0,-132.0,208.0,-279.0,0
8.0,-295.0,-143.0,-130.0,237.0,-280.0,0
2.0,-286.0,-135.0,-131.0,254.0,-278.0,0
4.0,-274.0,-133.0,-127.0,256.0,-273.0,0
4.0,-261.0,-136.0,-113.0,247.0,-263.0,0
6.0,-256.0,-135.0,-98.0,227.0,-253.0,0
13.0,-252.0,-129.0,-78.0,202.0,-235.0,0
19.0,-235.0,-151.0,-65.0,186.0,-222.0,0
26.0,-227.0,-155.0,-58.0,178.0,-204.0,0
31.0,-222.0,-163.0,-64.0,174.0,-195.0,0
36.0,-215.0,-166.0,-79.0,169.0,-185.0,0
42.0,-213.0,-168.0,-102.0,157.0,-179.0,0
41.0,-216.0,-169.0,-126.0,137.0,-168.0,0
41.0,-217.0,-173.0,-151.0,112.0,-158.0,0
42.0,-221.0,-173.0,-175.0,86.0,-144.0,0
41.0,-223.0,-171.0,-188.0,62.0,-127.0,0
28.0,-225.0,-174.0,-193.0,40.0,-103.0,0
41.0,-235.0,-168.0,-182.0,31.0,-87.0,0
40.0,-242.0,-161.0,-155.0,24.0,-69.0,0
39.0,-248.0,-157.0,-119.0,20.0,-59.0,0
36.0,-249.0,-150.0,-72.0,12.0,-45.0,0
33.0,-238.0,-150.0,-18.0,2.0,-34.0,0
29.0,-259.0,-152.0,40.0,-9.0,-25.0,0
23.0,-258.0,-144.0,95.0,-26.0,-20.0,0
21.0,-260.0,-143.0,153.0,-40.0,-15.0,0
19.0,-262.0,-141.0,208.0,-53.0,-10.0,0
18.0,-260.0,-144.0,268.0,-65.0,-3.0,0
19.0,-260.0,-150.0,310.0,-71.0,1.0,0
19.0,-260.0,-148.0,344.0,-73.0,9.0,0
21.0,-258.0,-157.0,369.0,-71.0,16.0,0
18.0,-258.0,-164.0,380.0,-68.0,21.0,0
21.0,-259.0,-165.0,385.0,-66.0,25.0,0
20.0,-258.0,-169.0,383.0,-58.0,29.0,0
21.0,-258.0,-175.0,378.0,-47.0,31.0,0
21.0,-261.0,-171.0,371.0,-39.0,32.0,0
21.0,-260.0,-170.0,369.0,-27.0,29.0,0
27.0,-264.0,-164.0,374.0,-15.0,29.0,0
26.0,-258.0,-166.0,389.0,-5.0,31.0,0
28.0,-259.0,-161.0,410.0,8.0,34.0,0
31.0,-258.0,-158.0,442.0,22.0,37.0,0
28.0,-250.0,-158.0,477.0,43.0,47.0,0
31.0,-246.0,-150.0,516.0,64.0,63.0,0
30.0,-242.0,-153.0,556.0,89.0,77.0,0
28.0,-235.0,-148.0,598.0,110.0,90.0,0
27.0,-230.0,-143.0,641.0,135.0,96.0,0
26.0,-221.0,-139.0,685.0,155.0,103.0,0
24.0,-215.0,-143.0,735.0,181.0,109.0,0
27.0,-210.0,-141.0,771.0,203.0,110.0,0
21.0,-202.0,-132.0,806.0,227.0,114.0,0
20.0,-198.0,-128.0,838.0,247.0,119.0,0
19.0,-192.0,-132.0,852.0,265.0,125.0,0
19.0,-193.0,-126.0,850.0,276.0,132.0,0
18.0,-192.0,-126.0,845.0,285.0,135.0,0
16.0,-191.0,-125.0,839.0,291.0,138.0,0
16.0,-183.0,-124.0,831.0,291.0,139.0,0
16.0,-185.0,-121.0,823.0,289.0,141.0,0
16.0,-185.0,-121.0,809.0,287.0,138.0,0
16.0,-183.0,-115.0,800.0,283.0,139.0,0
15.0,-181.0,-111.0,797.0,274.0,138.0,0
19.0,-183.0,-112.0,805.0,266.0,146.0,0
19.0,-181.0,-108.0,821.0,262.0,151.0,0
18.0,-180.0,-106.0,843.0,258.0,160.0,0
24.0,-176.0,-106.0,878.0,258.0,170.0,0
26.0,-173.0,-104.0,914.0,261.0,182.0,0
22.0,-169.0,-98.0,952.0,269.0,186.0,0
23.0,-163.0,-94.0,994.0,278.0,196.0,0
23.0,-155.0,-94.0,1051.0,296.0,205.0,0
24.0,-148.0,-94.0,1091.0,312.0,215.0,0
25.0,-142.0,-90.0,1120.0,326.0,214.0,0
21.0,-132.0,-83.0,1155.0,349.0,217.0,0
21.0,-123.0,-72.0,1214.0,386.0,220.0,0
18.0,-117.0,-68.0,1294.0,428.0,224.0,0
15.0,-98.0,-61.0,1382.0,466.0,218.0,0
14.0,-81.0,-59.0,1458.0,495.0,226.0,0
15.0,-68.0,-65.0,1526.0,508.0,235.0,0
13.0,-62.0,-69.0,1558.0,509.0,251.0,0
10.0,-49.0,-69.0,1526.0,486.0,244.0,0
5.0,-41.0,-64.0,1451.0,451.0,228.0,0
5.0,-33.0,-72.0,1366.0,416.0,205.0,0
4.0,-26.0,-75.0,1271.0,387.0,179.0,0
4.0,-28.0,-79.0,1163.0,368.0,153.0,0
1.0,-33.0,-82.0,1049.0,360.0,135.0,0
1.0,-36.0,-84.0,931.0,355.0,112.0,0
1.0,-40.0,-90.0,822.0,348.0,92.0,0
-1.0,-43.0,-93.0,737.0,343.0,71.0,0
1.0,-50.0,-99.0,672.0,345.0,65.0,0
9.0,-56.0,-103.0,621.0,350.0,62.0,0
10.0,-61.0,-109.0,592.0,358.0,67.0,0
14.0,-68.0,-113.0,570.0,366.0,64.0,0
14.0,-76.0,-115.0,542.0,366.0,58.0,0
16.0,-84.0,-113.0,504.0,361.0,43.0,0
16.0,-97.0,-111.0,464.0,350.0,29.0,0
18.0,-113.0,-109.0,419.0,332.0,8.0,0
18.0,-131.0,-108.0,372.0,311.0,-4.0,0
21.0,-150.0,-116.0,325.0,290.0,-17.0,0
22.0,-172.0,-116.0,284.0,271.0,-23.0,0
27.0,-195.0,-120.0,248.0,256.0,-36.0,0
28.0,-215.0,-129.0,205.0,246.0,-46.0,0
32.0,-234.0,-134.0,164.0,242.0,-64.0,0
35.0,-254.0,-142.0,127.0,238.0,-73.0,0
33.0,-278.0,-150.0,99.0,230.0,-79.0,0
30.0,-298.0,-153.0,80.0,219.0,-68.0,0
29.0,-320.0,-156.0,75.0,208.0,-52.0,0
25.0,-338.0,-150.0,82.0,202.0,-20.0,0
20.0,-357.0,-149.0,103.0,200.0,14.0,0
15.0,-368.0,-145.0,145.0,200.0,54.0,0
10.0,-372.0,-146.0,203.0,200.0,101.0,0
5.0,-371.0,-138.0,285.0,207.0,146.0,0
-3.0,-353.0,-129.0,354.0,215.0,185.0,0
-1.0,-331.0,-116.0,408.0,218.0,227.0,0
9.0,-312.0,-109.0,449.0,223.0,257.0,0
12.0,-292.0,-104.0,479.0,232.0,281.0,0
16.0,-268.0,-94.0,505.0,246.0,287.0,0
21.0,-257.0,-88.0,527.0,260.0,291.0,0
25.0,-235.0,-85.0,543.0,272.0,285.0,0
29.0,-223.0,-71.0,555.0,286.0,275.0,0
35.0,-209.0,-58.0,562.0,296.0,258.0,0
39.0,-197.0,-53.0,564.0,303.0,245.0,0
45.0,-192.0,-48.0,558.0,311.0,225.0,0
51.0,-184.0,-49.0,538.0,312.0,205.0,0
52.0,-175.0,-43.0,497.0,314.0,178.0,0
52.0,-169.0,-44.0,436.0,315.0,154.0,0
52.0,-161.0,-48.0,351.0,318.0,124.0,0
53.0,-160.0,-51.0,245.0,322.0,101.0,0
50.0,-157.0,-59.0,122.0,332.0,76.0,0
44.0,-164.0,-64.0,-11.0,346.0,60.0,0
38.0,-170.0,-63.0,-148.0,366.0,42.0,0
30.0,-176.0,-68.0,-301.0,385.0,37.0,0
21.0,-193.0,-65.0,-410.0,405.0,33.0,0
16.0,-202.0,-69.0,-489.0,430.0,40.0,0
8.0,-215.0,-75.0,-547.0,445.0,39.0,0
4.0,-229.0,-76.0,-582.0,457.0,46.0,0
3.0,-245.0,-89.0,-597.0,460.0,48.0,0
0.0,-254.0,-98.0,-604.0,457.0,52.0,0
0.0,-267.0,-109.0,-596.0,447.0,57.0,0
-2.0,-280.0,-116.0,-574.0,434.0,66.0,0
-7.0,-286.0,-120.0,-534.0,412.0,76.0,0
-4.0,-294.0,-125.0,-455.0,391.0,90.0,0
-2.0,-301.0,-123.0,-366.0,365.0,101.0,0
-1.0,-303.0,-124.0,-261.0,336.0,113.0,0
1.0,-301.0,-122.0,-150.0,302.0,118.0,0
0.0,-291.0,-122.0,-37.0,262.0,122.0,0
4.0,-283.0,-119.0,62.0,221.0,122.0,0
6.0,-273.0,-112.0,139.0,180.0,115.0,0
12.0,-266.0,-105.0,192.0,141.0,104.0,0
11.0,-260.0,-105.0,230.0,106.0,94.0,0
14.0,-253.0,-100.0,250.0,77.0,80.0,0
18.0,-248.0,-93.0,256.0,64.0,70.0,0
17.0,-242.0,-85.0,253.0,63.0,58.0,0
18.0,-237.0,-81.0,245.0,74.0,49.0,0
20.0,-233.0,-77.0,235.0,92.0,44.0,0
17.0,-228.0,-75.0,223.0,114.0,43.0,0
17.0,-223.0,-74.0,211.0,137.0,44.0,0
17.0,-224.0,-70.0,192.0,158.0,48.0,0
12.0,-217.0,-66.0,172.0,173.0,54.0,0
13.0,-218.0,-61.0,150.0,183.0,59.0,0
12.0,-218.0,-61.0,127.0,183.0,65.0,0
14.0,-220.0,-56.0,100.0,174.0,70.0,0
13.0,-221.0,-56.0,77.0,158.0,72.0,0
12.0,-227.0,-57.0,53.0,141.0,73.0,0
14.0,-230.0,-54.0,30.0,122.0,73.0,0
15.0,-235.0,-53.0,9.0,105.0,71.0,0
20.0,-243.0,-56.0,-4.0,94.0,71.0,0
19.0,-246.0,-57.0,-13.0,90.0,70.0,0
20.0,-249.0,-58.0,-17.0,91.0,70.0,0
19.0,-252.0,-55.0,-20.0,95.0,70.0,0
20.0,-255.0,-60.0,-21.0,99.0,70.0,0
23.0,-255.0,-59.0,-25.0,99.0,67.0,0
21.0,-256.0,-64.0,-27.0,98.0,64.0,0
23.0,-255.0,-66.0,-33.0,96.0,58.0,0
21.0,-254.0,-68.0,-38.0,92.0,54.0,0
18.0,-253.0,-71.0,-44.0,88.0,50.0,0
16.0,-252.0,-66.0,-48.0,87.0,47.0,0
15.0,-251.0,-68.0,-51.0,80.0,40.0,0
11.0,-248.0,-70.0,-54.0,72.0,38.0,0
12.0,-250.0,-76.0,-57.0,62.0,37.0,0
11.0,-246.0,-72.0,-58.0,50.0,40.0,0
9.0,-247.0,-71.0,-59.0,40.0,41.0,0
10.0,-248.0,-81.0,-59.0,32.0,46.0,0
7.0,-246.0,-81.0,-60.0,25.0,48.0,0
6.0,-247.0,-84.0,-64.0,16.0,53.0,0
3.0,-245.0,-83.0,-70.0,10.0,52.0,0
4.0,-247.0,-86.0,-79.0,3.0,53.0,0
5.0,-247.0,-85.0,-89.0,-1.0,51.0,0
5.0,-251.0,-89.0,-99.0,-4.0,52.0,0
6.0,-251.0,-88.0,-104.0,-6.0,47.0,0
6.0,-249.0,-85.0,-106.0,-10.0,45.0,0
6.0,-251.0,-83.0,-101.0,-11.0,42.0,0
9.0,-253.0,-80.0,-91.0,-14.0,39.0,0
7.0,-253.0,-81.0,-80.0,-12.0,34.0,0
10.0,-250.0,-81.0,-69.0,-13.0,33.0,0
11.0,-252.0,-82.0,-60.0,-8.0,28.0,0
11.0,-250.0,-81.0,-60.0,-3.0,26.0,0
10.0,-249.0,-79.0,-60.0,1.0,23.0,0
14.0,-246.0,-79.0,-62.0,5.0,22.0,0
14.0,-250.0,-78.0,-61.0,5.0,19.0,0
15.0,-248.0,-76.0,-59.0,6.0,15.0,0
12.0,-245.0,-77.0,-52.0,5.0,13.0,0
15.0,-244.0,-75.0,-45.0,6.0,14.0,0
14.0,-246.0,-70.0,-36.0,5.0,12.0,0
15.0,-245.0,-74.0,-27.0,7.0,12.0,0
14.0,-243.0,-72.0,-18.0,7.0,11.0,0
16.0,-243.0,-67.0,-14.0,8.0,12.0,0
16.0,-240.0,-74.0,-16.0,6.0,10.0,0
17.0,-241.0,-75.0,-26.0,4.0,16.0,0
14.0,-238.0,-76.0,-42.0,1.0,12.0,0
13.0,-241.0,-76.0,-62.0,-6.0,13.0,0
14.0,-242.0,-81.0,-85.0,-10.0,7.0,0
17.0,-242.0,-80.0,-103.0,-9.0,7.0,0
16.0,-242.0,-79.0,-119.0,-8.0,2.0,0
15.0,-243.0,-78.0,-131.0,-3.0,1.0,0
18.0,-243.0,-84.0,-144.0,1.0,-5.0,0
16.0,-244.0,-84.0,-151.0,6.0,-6.0,0
18.0,-241.0,-85.0,-161.0,16.0,-11.0,0
19.0,-243.0,-87.0,-165.0,26.0,-13.0,0
14.0,-240.0,-87.0,-169.0,38.0,-19.0,0
13.0,-238.0,-83.0,-168.0,50.0,-20.0,0
14.0,-241.0,-87.0,-166.0,59.0,-27.0,0
12.0,-242.0,-84.0,-164.0,66.0,-27.0,0
13.0,-245.0,-83.0,-158.0,69.0,-30.0,0
13.0,-248.0,-80.0,-151.0,69.0,-31.0,0
15.0,-252.0,-82.0,-141.0,72.0,-36.0,0
15.0,-251.0,-81.0,-135.0,74.0,-36.0,0
18.0,-254.0,-84.0,-131.0,79.0,-40.0,0
19.0,-252.0,-83.0,-131.0,84.0,-39.0,0
15.0,-253.0,-84.0,-134.0,90.0,-42.0,0
14.0,-256.0,-86.0,-137.0,94.0,-39.0,0
16.0,-254.0,-85.0,-137.0,99.0,-42.0,0
15.0,-253.0,-81.0,-138.0,103.0,-40.0,0
12.0,-251.0,-88.0,-133.0,107.0,-43.0,0
11.0,-248.0,-85.0,-129.0,110.0,-40.0,0
14.0,-248.0,-85.0,-123.0,112.0,-42.0,0
16.0,-246.0,-81.0,-120.0,115.0,-39.0,0
15.0,-246.0,-83.0,-114.0,116.0,-40.0,0
15.0,-248.0,-83.0,-111.0,116.0,-38.0,0
18.0,-245.0,-86.0,-109.0,116.0,-38.0,0
12.0,-245.0,-83.0,-109.0,115.0,-35.0,0
18.0,-240.0,-86.0,-108.0,114.0,-37.0,0
12.0,-242.0,-82.0,-109.0,112.0,-33.0,0
11.0,-240.0,-85.0,-109.0,109.0,-33.0,0
13.0,-240.0,-82.0,-106.0,105.0,-29.0,0
14.0,-240.0,-78.0,-102.0,97.0,-30.0,0
16.0,-242.0,-79.0,-99.0,91.0,-23.0,0
16.0,-240.0,-78.0,-94.0,85.0,-21.0,0
12.0,-240.0,-77.0,-90.0,83.0,-15.0,0
15.0,-242.0,-74.0,-85.0,80.0,-14.0,0
15.0,-241.0,-80.0,-83.0,78.0,-8.0,0
11.0,-244.0,-75.0,-86.0,73.0,-8.0,0
13.0,-246.0,-77.0,-87.0,68.0,-4.0,0
10.0,-244.0,-79.0,-91.0,64.0,-8.0,0
11.0,-244.0,-77.0,-94.0,60.0,-7.0,0
11.0,-246.0,-74.0,-98.0,62.0,-12.0,0
9.0,-244.0,-78.0,-99.0,68.0,-11.0,0
11.0,-246.0,-72.0,-101.0,74.0,-13.0,0
8.0,-248.0,-76.0,-99.0,81.0,-14.0,0
13.0,-252.0,-75.0,-97.0,88.0,-16.0,0
13.0,-251.0,-76.0,-96.0,94.0,-16.0,0
13.0,-251.0,-71.0,-94.0,98.0,-18.0,0
9.0,-250.0,-77.0,-96.0,99.0,-17.0,0
11.0,-253.0,-73.0,-99.0,97.0,-20.0,0
12.0,-251.0,-78.0,-102.0,95.0,-18.0,0
14.0,-254.0,-81.0,-107.0,92.0,-18.0,0
11.0,-253.0,-81.0,-110.0,87.0,-17.0,0
11.0,-252.0,-79.0,-113.0,83.0,-17.0,0
11.0,-251.0,-81.0,-114.0,80.0,-18.0,0
10.0,-253.0,-84.0,-109.0,80.0,-18.0,0
9.0,-248.0,-84.0,-105.0,83.0,-18.0,0
11.0,-247.0,-83.0,-97.0,85.0,-19.0,0
13.0,-244.0,-80.0,-92.0,87.0,-16.0,0
9.0,-246.0,-85.0,-89.0,89.0,-16.0,0
11.0,-243.0,-83.0,-86.0,88.0,-14.0,0
11.0,-243.0,-88.0,-87.0,85.0,-15.0,0
11.0,-239.0,-82.0,-91.0,82.0,-15.0,0
12.0,-241.0,-82.0,-94.0,79.0,-15.0,0
9.0,-244.0,-83.0,-99.0,72.0,-13.0,0
9.0,-241.0,-84.0,-101.0,66.0,-12.0,0
10.0,-242.0,-81.0,-102.0,59.0,-9.0,0
12.0,-242.0,-79.0,-101.0,52.0,-10.0,0
10.0,-243.0,-81.0,-100.0,52.0,-8.0,0
12.0,-245.0,-80.0,-97.0,47.0,-6.0,0
12.0,-244.0,-81.0,-97.0,43.0,-6.0,0
13.0,-246.0,-78.0,-98.0,38.0,-4.0,0
13.0,-248.0,-83.0,-101.0,37.0,-3.0,0
12.0,-247.0,-76.0,-106.0,36.0,-2.0,0
15.0,-251.0,-76.0,-107.0,37.0,-4.0,0
16.0,-252.0,-77.0,-105.0,41.0,-3.0,0
13.0,-250.0,-81.0,-100.0,48.0,-4.0,0
17.0,-251.0,-78.0,-90.0,56.0,-4.0,0
15.0,-254.0,-80.0,-83.0,64.0,-2.0,0
16.0,-252.0,-82.0,-77.0,69.0,1.0,0
15.0,-250.0,-82.0,-69.0,71.0,2.0,0
13.0,-251.0,-81.0,-60.0,74.0,4.0,0
13.0,-251.0,-78.0,-51.0,75.0,3.0,0
12.0,-250.0,-80.0,-40.0,76.0,6.0,0
14.0,-250.0,-81.0,-33.0,78.0,6.0,0
14.0,-251.0,-80.0,-25.0,81.0,8.0,0
11.0,-247.0,-83.0,-20.0,83.0,7.0,0
11.0,-245.0,-80.0,-18.0,84.0,10.0,0
7.0,-243.0,-79.0,-18.0,83.0,8.0,0
8.0,-246.0,-82.0,-19.0,82.0,8.0,0
9.0,-242.0,-82.0,-20.0,76.0,7.0,0
9.0,-245.0,-82.0,-19.0,71.0,7.0,0
6.0,-243.0,-81.0,-19.0,68.0,6.0,0
10.0,-246.0,-82.0,-20.0,64.0,8.0,0
10.0,-244.0,-78.0,-21.0,62.0,8.0,0
10.0,-245.0,-80.0,-22.0,62.0,9.0,0
7.0,-244.0,-82.0,-24.0,63.0,9.0,0
6.0,-243.0,-82.0,-24.0,64.0,11.0,0
12.0,-247.0,-79.0,-26.0,65.0,10.0,0
9.0,-244.0,-80.0,-29.0,65.0,12.0,0
7.0,-246.0,-82.0,-33.0,65.0,11.0,0
8.0,-244.0,-84.0,-34.0,65.0,13.0,0
8.0,-247.0,-85.0,-34.0,64.0,11.0,0
8.0,-246.0,-85.0,-33.0,62.0,13.0,0
10.0,-247.0,-84.0,-28.0,61.0,9.0,0
11.0,-246.0,-84.0,-24.0,60.0,11.0,0
11.0,-244.0,-82.0,-21.0,56.0,9.0,0
10.0,-245.0,-85.0,-21.0,51.0,10.0,0
10.0,-244.0,-82.0,-19.0,46.0,6.0,0
12.0,-246.0,-82.0,-21.0,42.0,7.0,0
11.0,-247.0,-80.0,-20.0,35.0,5.0,0
10.0,-247.0,-86.0,-20.0,30.0,5.0,0
10.0,-244.0,-86.0,-17.0,28.0,2.0,0
10.0,-245.0,-84.0,-13.0,24.0,7.0,0
10.0,-247.0,-81.0,-12.0,25.0,5.0,0
11.0,-245.0,-82.0,-9.0,26.0,9.0,0
8.0,-244.0,-84.0,-5.0,28.0,8.0,0
12.0,-247.0,-82.0,-7.0,32.0,11.0,0
12.0,-248.0,-82.0,-8.0,31.0,11.0,0
11.0,-245.0,-81.0,-8.0,33.0,12.0,0
12.0,-246.0,-83.0,-7.0,35.0,11.0,0
12.0,-249.0,-84.0,-6.0,37.0,12.0,0
13.0,-247.0,-84.0,-5.0,38.0,9.0,0
12.0,-243.0,-84.0,-1.0,42.0,13.0,0
12.0,-244.0,-84.0,2.0,44.0,10.0,0
13.0,-242.0,-86.0,2.0,45.0,13.0,0
12.0,-241.0,-85.0,0.0,44.0,10.0,0
16.0,-242.0,-86.0,-1.0,43.0,12.0,0
11.0,-238.0,-87.0,-3.0,40.0,8.0,0
11.0,-236.0,-89.0,-5.0,37.0,12.0,0
14.0,-239.0,-84.0,-9.0,34.0,9.0,0
13.0,-236.0,-84.0,-13.0,31.0,11.0,0
11.0,-242.0,-85.0,-21.0,26.0,9.0,0
13.0,-243.0,-81.0,-27.0,25.0,10.0,0
12.0,-241.0,-84.0,-33.0,22.0,8.0,0
13.0,-241.0,-83.0,-38.0,22.0,9.0,0
14.0,-243.0,-80.0,-45.0,24.0,8.0,0
11.0,-245.0,-85.0,-49.0,25.0,9.0,0
14.0,-246.0,-82.0,-50.0,25.0,7.0,0
14.0,-248.0,-88.0,-48.0,22.0,9.0,0
12.0,-247.0,-83.0,-44.0,17.0,7.0,0
11.0,-247.0,-82.0,-39.0,13.0,10.0,0
11.0,-247.0,-82.0,-31.0,9.0,7.0,0
11.0,-247.0,-89.0,-20.0,7.0,10.0,0
8.0,-244.0,-87.0,-9.0,8.0,9.0,0
12.0,-246.0,-85.0,4.0,12.0,12.0,0
12.0,-246.0,-87.0,20.0,18.0,11.0,0
12.0,-244.0,-85.0,27.0,24.0,14.0,0
13.0,-245.0,-86.0,33.0,30.0,12.0,0
11.0,-242.0,-89.0,35.0,34.0,15.0,0
13.0,-243.0,-87.0,31.0,36.0,12.0,0
12.0,-245.0,-88.0,23.0,34.0,13.0,0
11.0,-242.0,-89.0,15.0,29.0,8.0,0
12.0,-244.0,-86.0,6.0,22.0,9.0,0
14.0,-246.0,-89.0,1.0,15.0,7.0,0
14.0,-245.0,-85.0,-5.0,7.0,7.0,0
13.0,-245.0,-86.0,-8.0,2.0,3.0,0
11.0,-244.0,-87.0,-8.0,0.0,5.0,0
12.0,-245.0,-87.0,-10.0,3.0,2.0,0
13.0,-245.0,-83.0,-10.0,6.0,5.0,0
14.0,-246.0,-85.0,-12.0,8.0,3.0,0
10.0,-242.0,-85.0,-16.0,10.0,5.0,0
14.0,-243.0,-89.0,-18.0,12.0,5.0,0
13.0,-239.0,-85.0,-20.0,16.0,7.0,0
12.0,-241.0,-83.0,-22.0,16.0,7.0,0
9.0,-240.0,-87.0,-24.0,16.0,8.0,0
13.0,-244.0,-82.0,-23.0,14.0,6.0,0
12.0,-243.0,-86.0,-22.0,15.0,8.0,0
11.0,-243.0,-82.0,-23.0,15.0,6.0,0
11.0,-244.0,-89.0,-25.0,15.0,8.0,0
11.0,-239.0,-87.0,-28.0,15.0,4.0,0
14.0,-244.0,-82.0,-33.0,14.0,4.0,0
16.0,-244.0,-85.0,-36.0,14.0,2.0,0
10.0,-243.0,-84.0,-40.0,12.0,1.0,0
11.0,-245.0,-86.0,-41.0,11.0,-1.0,0
13.0,-245.0,-85.0,-42.0,10.0,-1.0,0
13.0,-245.0,-88.0,-43.0,11.0,-4.0,0
13.0,-244.0,-88.0,-43.0,11.0,-2.0,0
12.0,-244.0,-90.0,-43.0,12.0,-4.0,0
13.0,-245.0,-89.0,-41.0,14.0,-2.0,0
12.0,-244.0,-90.0,-39.0,17.0,-2.0,0
13.0,-244.0,-90.0,-38.0,20.0,-2.0,0
13.0,-243.0,-83.0,-37.0,22.0,-3.0,0
16.0,-244.0,-89.0,-40.0,26.0,-1.0,0
14.0,-242.0,-89.0,-43.0,27.0,-2.0,0
16.0,-244.0,-90.0,-46.0,26.0,-1.0,0
13.0,-242.0,-88.0,-46.0,26.0,-2.0,0
15.0,-243.0,-86.0,-47.0,23.0,-1.0,0
13.0,-244.0,-86.0,-48.0,23.0,0.0,0
13.0,-244.0,-91.0,-48.0,21.0,1.0,0
12.0,-244.0,-89.0,-48.0,18.0,2.0,0
12.0,-245.0,-90.0,-45.0,19.0,2.0,0
12.0,-244.0,-86.0,-41.0,19.0,4.0,0
13.0,-241.0,-89.0,-38.0,19.0,4.0,0
14.0,-243.0,-86.0,-33.0,21.0,4.0,0
11.0,-243.0,-89.0,-32.0,23.0,6.0,0
12.0,-241.0,-91.0,-31.0,25.0,4.0,0
11.0,-243.0,-87.0,-31.0,26.0,3.0,0
10.0,-242.0,-85.0,-32.0,27.0,3.0,0
13.0,-240.0,-87.0,-33.0,28.0,2.0,0
11.0,-242.0,-84.0,-35.0,28.0,2.0,0
10.0,-242.0,-87.0,-39.0,29.0,-1.0,0
9.0,-242.0,-94.0,-41.0,28.0,-1.0,0
13.0,-243.0,-88.0,-45.0,29.0,-4.0,0
15.0,-242.0,-85.0,-48.0,28.0,-4.0,0
10.0,-241.0,-89.0,-49.0,30.0,-4.0,0
18.0,-238.0,-91.0,-52.0,30.0,-3.0,0
13.0,-241.0,-86.0,-53.0,31.0,-4.0,0
12.0,-243.0,-89.0,-54.0,30.0,-4.0,0
9.0,-243.0,-89.0,-54.0,29.0,-4.0,0
13.0,-242.0,-87.0,-53.0,31.0,-5.0,0
12.0,-242.0,-88.0,-50.0,31.0,-5.0,0
14.0,-245.0,-84.0,-50.0,31.0,-2.0,0
13.0,-246.0,-90.0,-52.0,33.0,-2.0,0
13.0,-244.0,-88.0,-52.0,33.0,-1.0,0
11.0,-240.0,-87.0,-52.0,32.0,-2.0,0
14.0,-243.0,-88.0,-52.0,30.0,0.0,0
11.0,-244.0,-89.0,-51.0,25.0,-1.0,0
11.0,-244.0,-88.0,-48.0,25.0,-1.0,0
13.0,-244.0,-85.0,-47.0,23.0,-1.0,0
14.0,-247.0,-88.0,-44.0,22.0,0.0,0
11.0,-245.0,-87.0,-43.0,23.0,-1.0,0
10.0,-244.0,-88.0,-42.0,24.0,0.0,0
10.0,-244.0,-87.0,-39.0,30.0,-1.0,0
11.0,-242.0,-93.0,-39.0,36.0,1.0,0
12.0,-242.0,-88.0,-39.0,42.0,0.0,0
12.0,-243.0,-91.0,-39.0,47.0,3.0,0
12.0,-244.0,-86.0,-39.0,51.0,2.0,0
12.0,-243.0,-90.0,-39.0,50.0,2.0,0
13.0,-242.0,-89.0,-41.0,52.0,2.0,0
14.0,-244.0,-88.0,-44.0,55.0,3.0,0
13.0,-242.0,-87.0,-45.0,51.0,1.0,0
13.0,-245.0,-90.0,-46.0,52.0,3.0,0
15.0,-245.0,-87.0,-46.0,48.0,1.0,0
11.0,-242.0,-91.0,-43.0,48.0,2.0,0
13.0,-243.0,-87.0,-41.0,50.0,-1.0,0
13.0,-244.0,-86.0,-38.0,51.0,1.0,0
11.0,-244.0,-88.0,-36.0,52.0,1.0,0
10.0,-244.0,-89.0,-36.0,55.0,2.0,0
9.0,-245.0,-87.0,-36.0,56.0,-1.0,0
9.0,-246.0,-86.0,-36.0,57.0,3.0,0
10.0,-246.0,-87.0,-33.0,58.0,2.0,0
11.0,-246.0,-90.0,-34.0,58.0,5.0,0
12.0,-245.0,-91.0,-36.0,63.0,2.0,0
10.0,-246.0,-93.0,-36.0,65.0,5.0,0
12.0,-244.0,-90.0,-37.0,67.0,3.0,0
11.0,-244.0,-93.0,-38.0,69.0,4.0,0
12.0,-243.0,-92.0,-37.0,71.0,-1.0,0
12.0,-245.0,-90.0,-34.0,71.0,0.0,0
10.0,-242.0,-87.0,-32.0,70.0,-1.0,0
12.0,-239.0,-90.0,-31.0,69.0,-1.0,0
10.0,-238.0,-89.0,-31.0,69.0,-3.0,0
9.0,-239.0,-93.0,-32.0,69.0,-1.0,0
11.0,-236.0,-89.0,-31.0,68.0,-3.0,0
11.0,-238.0,-90.0,-34.0,65.0,-1.0,0
10.0,-238.0,-88.0,-36.0,64.0,-3.0,0
10.0,-239.0,-88.0,-39.0,64.0,-2.0,0
11.0,-240.0,-88.0,-43.0,63.0,-3.0,0
12.0,-243.0,-87.0,-47.0,61.0,0.0,0
12.0,-244.0,-84.0,-49.0,66.0,-1.0,0
12.0,-241.0,-90.0,-51.0,68.0,1.0,0
12.0,-246.0,-91.0,-52.0,72.0,0.0,0
12.0,-248.0,-94.0,-50.0,77.0,3.0,0
13.0,-247.0,-94.0,-47.0,78.0,-1.0,0
9.0,-248.0,-94.0,-42.0,81.0,1.0,0
9.0,-248.0,-92.0,-37.0,83.0,-2.0,0
11.0,-246.0,-95.0,-32.0,85.0,0.0,0
10.0,-241.0,-93.0,-28.0,86.0,-3.0,0
9.0,-245.0,-89.0,-25.0,87.0,0.0,0
11.0,-241.0,-93.0,-23.0,90.0,-4.0,0
12.0,-243.0,-92.0,-20.0,90.0,-1.0,0
12.0,-241.0,-89.0,-19.0,91.0,-2.0,0
11.0,-241.0,-91.0,-17.0,92.0,1.0,0
9.0,-235.0,-90.0,-18.0,92.0,0.0,0
12.0,-240.0,-89.0,-19.0,92.0,2.0,0
9.0,-240.0,-90.0,-19.0,91.0,1.0,0
8.0,-238.0,-88.0,-22.0,90.0,4.0,0
11.0,-241.0,-93.0,-23.0,90.0,2.0,0
8.0,-243.0,-89.0,-26.0,86.0,4.0,0
11.0,-240.0,-90.0,-31.0,83.0,4.0,0
12.0,-243.0,-89.0,-35.0,81.0,4.0,0
9.0,-243.0,-91.0,-38.0,82.0,2.0,0
9.0,-241.0,-96.0,-39.0,81.0,3.0,0
11.0,-240.0,-95.0,-41.0,80.0,1.0,0
11.0,-242.0,-93.0,-39.0,78.0,3.0,0
13.0,-245.0,-93.0,-38.0,79.0,2.0,0
8.0,-244.0,-97.0,-36.0,78.0,3.0,0
12.0,-244.0,-91.0,-32.0,81.0,0.0,0
12.0,-243.0,-93.0,-29.0,80.0,2.0,0
11.0,-242.0,-94.0,-28.0,80.0,-1.0,0
12.0,-244.0,-92.0,-25.0,79.0,-1.0,0
11.0,-242.0,-91.0,-24.0,81.0,-2.0,0
11.0,-242.0,-91.0,-22.0,82.0,-1.0,0
11.0,-243.0,-92.0,-19.0,84.0,-3.0,0
9.0,-243.0,-89.0,-19.0,85.0,0.0,0
10.0,-243.0,-92.0,-20.0,85.0,-2.0,0
10.0,-243.0,-89.0,-21.0,86.0,1.0,0
11.0,-245.0,-93.0,-19.0,86.0,-1.0,0
11.0,-246.0,-93.0,-18.0,86.0,0.0,0
10.0,-244.0,-89.0,-17.0,86.0,-1.0,0
11.0,-244.0,-93.0,-15.0,85.0,-1.0,0
9.0,-242.0,-93.0,-17.0,86.0,-1.0,0
10.0,-240.0,-92.0,-17.0,89.0,-2.0,0
13.0,-241.0,-89.0,-18.0,90.0,-2.0,0
11.0,-241.0,-91.0,-20.0,92.0,-2.0,0
10.0,-240.0,-91.0,-20.0,93.0,-2.0,0
12.0,-239.0,-93.0,-23.0,93.0,-1.0,0
8.0,-238.0,-95.0,-24.0,94.0,-3.0,0
9.0,-241.0,-90.0,-26.0,92.0,-2.0,0
12.0,-240.0,-92.0,-26.0,89.0,-3.0,0
7.0,-241.0,-94.0,-28.0,89.0,-3.0,0
8.0,-241.0,-92.0,-30.0,85.0,0.0,0
10.0,-244.0,-93.0,-29.0,82.0,-2.0,0
10.0,-241.0,-94.0,-31.0,78.0,-3.0,0
9.0,-242.0,-90.0,-31.0,75.0,-1.0,0
8.0,-243.0,-89.0,-31.0,72.0,-2.0,0
12.0,-244.0,-92.0,-29.0,70.0,-3.0,0
7.0,-241.0,-91.0,-24.0,68.0,-3.0,0
7.0,-244.0,-91.0,-21.0,68.0,-4.0,0
9.0,-242.0,-91.0,-18.0,69.0,-2.0,0
9.0,-241.0,-91.0,-14.0,70.0,-4.0,0
10.0,-242.0,-92.0,-9.0,71.0,-3.0,0
5.0,-241.0,-88.0,-8.0,73.0,-3.0,0
7.0,-240.0,-92.0,-8.0,73.0,-2.0,0
8.0,-241.0,-86.0,-7.0,73.0,-3.0,0
9.0,-239.0,-91.0,-7.0,73.0,-3.0,0
9.0,-242.0,-92.0,-9.0,74.0,-3.0,0
9.0,-243.0,-90.0,-10.0,72.0,-3.0,0
7.0,-241.0,-91.0,-11.0,71.0,-3.0,0
7.0,-242.0,-91.0,-13.0,68.0,-2.0,0
9.0,-241.0,-91.0,-14.0,67.0,-1.0,0
8.0,-244.0,-92.0,-16.0,67.0,-2.0,0
11.0,-245.0,-89.0,-14.0,66.0,-4.0,0
10.0,-243.0,-95.0,-13.0,66.0,-4.0,0
13.0,-244.0,-92.0,-14.0,67.0,-6.0,0
8.0,-244.0,-92.0,-13.0,66.0,-6.0,0
7.0,-242.0,-94.0,-14.0,66.0,-7.0,0
7.0,-241.0,-88.0,-15.0,67.0,-6.0,0
8.0,-240.0,-94.0,-15.0,67.0,-7.0,0
7.0,-241.0,-95.0,-15.0,63.0,-7.0,0
9.0,-243.0,-90.0,-13.0,62.0,-7.0,0
6.0,-241.0,-88.0,-9.0,58.0,-5.0,0
6.0,-240.0,-91.0,-8.0,54.0,-6.0,0
6.0,-243.0,-86.0,-5.0,48.0,-4.0,0
6.0,-241.0,-86.0,-5.0,43.0,-4.0,0
10.0,-243.0,-86.0,-5.0,39.0,-2.0,0
7.0,-243.0,-90.0,-7.0,36.0,-5.0,0
8.0,-244.0,-90.0,-8.0,34.0,-3.0,0
7.0,-246.0,-88.0,-11.0,33.0,-6.0,0
8.0,-245.0,-89.0,-15.0,33.0,-4.0,0
6.0,-245.0,-92.0,-20.0,34.0,-7.0,0
9.0,-247.0,-96.0,-22.0,35.0,-6.0,0
8.0,-246.0,-91.0,-21.0,36.0,-9.0,0
11.0,-243.0,-92.0,-19.0,37.0,-7.0,0
11.0,-244.0,-91.0,-17.0,39.0,-8.0,0
9.0,-242.0,-91.0,-15.0,39.0,-6.0,0
12.0,-245.0,-87.0,-13.0,39.0,-8.0,0
11.0,-242.0,-91.0,-11.0,41.0,-5.0,0
12.0,-243.0,-87.0,-10.0,44.0,-6.0,0
11.0,-242.0,-92.0,-9.0,45.0,-4.0,0
13.0,-240.0,-92.0,-7.0,46.0,-6.0,0
11.0,-241.0,-93.0,-5.0,46.0,-3.0,0
11.0,-240.0,-90.0,-4.0,45.0,-5.0,0
13.0,-241.0,-89.0,-2.0,45.0,-3.0,0
11.0,-243.0,-91.0,-2.0,44.0,-6.0,0
11.0,-243.0,-88.0,-1.0,43.0,-3.0,0
13.0,-242.0,-87.0,-2.0,44.0,-5.0,0
8.0,-238.0,-88.0,-1.0,45.0,-3.0,0
11.0,-242.0,-93.0,-5.0,44.0,-6.0,0
11.0,-244.0,-88.0,-7.0,44.0,-3.0,0
9.0,-245.0,-90.0,-8.0,45.0,-6.0,0
12.0,-244.0,-91.0,-8.0,46.0,-4.0,0
7.0,-244.0,-88.0,-7.0,49.0,-8.0,0
7.0,-243.0,-86.0,-6.0,51.0,-7.0,0
10.0,-241.0,-87.0,-6.0,52.0,-10.0,0
10.0,-241.0,-91.0,-5.0,55.0,-8.0,0
10.0,-241.0,-91.0,-7.0,56.0,-11.0,0
12.0,-241.0,-85.0,-9.0,55.0,-8.0,0
10.0,-240.0,-87.0,-10.0,53.0,-10.0,0
11.0,-238.0,-88.0,-12.0,52.0,-8.0,0
9.0,-239.0,-89.0,-14.0,49.0,-11.0,0
11.0,-239.0,-88.0,-19.0,47.0,-8.0,0
8.0,-240.0,-89.0,-24.0,45.0,-9.0,0
11.0,-241.0,-90.0,-31.0,42.0,-6.0,0
12.0,-240.0,-91.0,-35.0,41.0,-9.0,0
11.0,-243.0,-92.0,-37.0,40.0,-5.0,0
9.0,-245.0,-89.0,-37.0,40.0,-7.0,0
11.0,-246.0,-89.0,-37.0,41.0,-3.0,0
10.0,-245.0,-88.0,-33.0,42.0,-5.0,0
10.0,-246.0,-89.0,-28.0,42.0,-3.0,0
10.0,-244.0,-94.0,-25.0,44.0,-4.0,0
12.0,-243.0,-93.0,-20.0,43.0,-2.0,0
12.0,-246.0,-89.0,-18.0,43.0,-5.0,0
10.0,-242.0,-91.0,-12.0,45.0,-1.0,0
12.0,-244.0,-89.0,-8.0,47.0,-5.0,0
12.0,-242.0,-94.0,-6.0,48.0,-1.0,0
11.0,-242.0,-91.0,-2.0,49.0,-6.0,0
11.0,-242.0,-91.0,-2.0,48.0,-3.0,0
8.0,-242.0,-87.0,0.0,51.0,-6.0,0
12.0,-243.0,-89.0,2.0,54.0,-3.0,0
13.0,-243.0,-90.0,2.0,55.0,-5.0,0
14.0,-242.0,-85.0,1.0,57.0,-2.0,0
10.0,-242.0,-87.0,-3.0,59.0,-4.0,0
11.0,-243.0,-90.0,-5.0,62.0,-1.0,0
13.0,-242.0,-89.0,-7.0,64.0,-3.0,0
11.0,-244.0,-89.0,-10.0,66.0,-1.0,0
11.0,-244.0,-88.0,-14.0,65.0,-3.0,0
12.0,-243.0,-88.0,-17.0,68.0,-1.0,0
12.0,-245.0,-93.0,-17.0,70.0,-3.0,0
10.0,-245.0,-88.0,-20.0,70.0,0.0,0
11.0,-241.0,-93.0,-20.0,70.0,-3.0,0
10.0,-245.0,-92.0,-21.0,69.0,-2.0,0
13.0,-244.0,-92.0,-21.0,69.0,-2.0,0
8.0,-242.0,-95.0,-18.0,69.0,-1.0,0
10.0,-243.0,-94.0,-18.0,68.0,-1.0,0
12.0,-242.0,-90.0,-16.0,69.0,1.0,0
14.0,-244.0,-87.0,-15.0,68.0,1.0,0
12.0,-244.0,-92.0,-14.0,68.0,3.0,0
8.0,-245.0,-91.0,-12.0,68.0,1.0,0
8.0,-242.0,-93.0,-11.0,67.0,3.0,0
8.0,-241.0,-93.0,-9.0,69.0,2.0,0
12.0,-243.0,-92.0,-7.0,69.0,3.0,0
11.0,-241.0,-93.0,-5.0,70.0,3.0,0
9.0,-239.0,-91.0,-4.0,70.0,5.0,0
11.0,-244.0,-92.0,-3.0,73.0,3.0,0
11.0,-240.0,-90.0,-1.0,72.0,4.0,0
12.0,-240.0,-89.0,2.0,72.0,3.0,0
10.0,-241.0,-89.0,1.0,72.0,2.0,0
10.0,-241.0,-87.0,1.0,72.0,1.0,0
12.0,-242.0,-87.0,1.0,74.0,1.0,0
11.0,-242.0,-88.0,-2.0,75.0,0.0,0
12.0,-241.0,-90.0,-2.0,74.0,1.0,0
10.0,-243.0,-91.0,-4.0,76.0,1.0,0
7.0,-241.0,-90.0,-7.0,76.0,1.0,0
7.0,-241.0,-91.0,-9.0,76.0,-1.0,0
9.0,-245.0,-89.0,-9.0,76.0,0.0,0
11.0,-244.0,-94.0,-10.0,74.0,-1.0,0
8.0,-244.0,-89.0,-10.0,72.0,0.0,0
12.0,-243.0,-91.0,-10.0,72.0,-2.0,0
10.0,-243.0,-90.0,-11.0,69.0,-2.0,0
9.0,-243.0,-93.0,-10.0,67.0,-1.0,0
10.0,-244.0,-92.0,-12.0,65.0,-1.0,0
8.0,-247.0,-92.0,-13.0,64.0,-1.0,0
11.0,-243.0,-93.0,-12.0,64.0,1.0,0
11.0,-244.0,-91.0,-10.0,64.0,1.0,0
12.0,-247.0,-90.0,-7.0,62.0,1.0,0
11.0,-243.0,-91.0,-5.0,64.0,2.0,0
12.0,-245.0,-94.0,0.0,64.0,1.0,0
12.0,-244.0,-90.0,5.0,65.0,3.0,0
11.0,-244.0,-90.0,8.0,65.0,2.0,0
6.0,-242.0,-89.0,10.0,66.0,4.0,0
10.0,-242.0,-86.0,12.0,67.0,2.0,0
9.0,-240.0,-87.0,14.0,69.0,3.0,0
11.0,-241.0,-90.0,11.0,69.0,2.0,0
11.0,-242.0,-84.0,9.0,71.0,3.0,0
10.0,-242.0,-89.0,6.0,75.0,2.0,0
12.0,-244.0,-90.0,2.0,77.0,3.0,0
9.0,-243.0,-92.0,-1.0,82.0,0.0,0
9.0,-241.0,-89.0,-3.0,82.0,1.0,0
11.0,-242.0,-90.0,-4.0,84.0,0.0,0
9.0,-243.0,-89.0,-3.0,85.0,1.0,0
9.0,-242.0,-89.0,-4.0,83.0,-1.0,0
12.0,-242.0,-91.0,-3.0,84.0,0.0,0
11.0,-245.0,-91.0,-2.0,84.0,-1.0,0
10.0,-241.0,-88.0,-1.0,80.0,0.0,0
8.0,-242.0,-90.0,0.0,78.0,-1.0,0
8.0,-243.0,-93.0,2.0,76.0,0.0,0
9.0,-241.0,-94.0,0.0,73.0,-1.0,0
9.0,-246.0,-89.0,-1.0,71.0,1.0,0
11.0,-244.0,-87.0,0.0,70.0,-3.0,0
8.0,-241.0,-91.0,-1.0,68.0,0.0,0
8.0,-245.0,-87.0,1.0,66.0,-1.0,0
10.0,-246.0,-88.0,2.0,65.0,2.0,0
10.0,-246.0,-92.0,4.0,67.0,-1.0,0
10.0,-241.0,-87.0,5.0,68.0,0.0,0
10.0,-245.0,-92.0,4.0,70.0,-3.0,0
7.0,-241.0,-93.0,3.0,71.0,-1.0,0
10.0,-243.0,-91.0,2.0,71.0,-2.0,0
9.0,-242.0,-85.0,1.0,70.0,0.0,0
10.0,-243.0,-88.0,0.0,69.0,-4.0,0
11.0,-242.0,-91.0,1.0,65.0,-2.0,0
10.0,-240.0,-93.0,3.0,65.0,-4.0,0
10.0,-241.0,-95.0,4.0,62.0,-2.0,0
9.0,-243.0,-89.0,4.0,60.0,-5.0,0
10.0,-241.0,-91.0,4.0,57.0,-4.0,0
10.0,-240.0,-88.0,4.0,56.0,-7.0,0
8.0,-242.0,-91.0,3.0,54.0,-5.0,0
10.0,-246.0,-87.0,3.0,55.0,-7.0,0
7.0,-239.0,-90.0,2.0,56.0,-3.0,0
7.0,-237.0,-90.0,0.0,54.0,-6.0,0
9.0,-241.0,-88.0,-1.0,53.0,-5.0,0
7.0,-243.0,-88.0,-1.0,54.0,-7.0,0
7.0,-242.0,-90.0,-1.0,54.0,-5.0,0
10.0,-242.0,-88.0,-1.0,53.0,-7.0,0
10.0,-244.0,-89.0,0.0,52.0,-4.0,0
10.0,-245.0,-86.0,1.0,52.0,-7.0,0
10.0,-246.0,-85.0,2.0,53.0,-4.0,0
8.0,-246.0,-93.0,3.0,51.0,-9.0,0
11.0,-245.0,-91.0,4.0,53.0,-5.0,0
10.0,-244.0,-91.0,8.0,55.0,-6.0,0
12.0,-246.0,-87.0,10.0,55.0,-4.0,0
10.0,-245.0,-85.0,10.0,55.0,-8.0,0
13.0,-245.0,-90.0,9.0,56.0,-5.0,0
12.0,-245.0,-87.0,8.0,57.0,-8.0,0
12.0,-241.0,-91.0,7.0,56.0,-6.0,0
13.0,-241.0,-93.0,6.0,59.0,-9.0,0
13.0,-240.0,-94.0,3.0,60.0,-8.0,0
10.0,-240.0,-90.0,1.0,62.0,-10.0,0
12.0,-242.0,-88.0,-3.0,61.0,-8.0,0
10.0,-242.0,-87.0,-6.0,59.0,-9.0,0
10.0,-241.0,-89.0,-8.0,56.0,-5.0,0
14.0,-244.0,-88.0,-10.0,56.0,-7.0,0
13.0,-243.0,-87.0,-10.0,52.0,-5.0,0
8.0,-242.0,-87.0,-8.0,51.0,-6.0,0
7.0,-245.0,-90.0,-7.0,50.0,-3.0,0
12.0,-246.0,-91.0,-6.0,50.0,-5.0,0
12.0,-245.0,-91.0,-4.0,48.0,-1.0,0
12.0,-246.0,-88.0,-1.0,48.0,-4.0,0
13.0,-244.0,-91.0,2.0,46.0,-2.0,0
10.0,-244.0,-92.0,3.0,47.0,-3.0,0
10.0,-242.0,-88.0,7.0,49.0,-1.0,0
10.0,-244.0,-88.0,9.0,49.0,-4.0,0
9.0,-243.0,-90.0,12.0,49.0,-2.0,0
9.0,-241.0,-92.0,14.0,51.0,-4.0,0
8.0,-242.0,-87.0,15.0,52.0,-4.0,0
10.0,-242.0,-86.0,16.0,54.0,-6.0,0
9.0,-240.0,-84.0,17.0,54.0,-4.0,0
10.0,-242.0,-89.0,13.0,54.0,-7.0,0
12.0,-242.0,-87.0,11.0,56.0,-7.0,0
11.0,-240.0,-89.0,9.0,56.0,-8.0,0
15.0,-242.0,-90.0,6.0,56.0,-6.0,0
9.0,-244.0,-91.0,3.0,56.0,-8.0,0
9.0,-243.0,-89.0,3.0,55.0,-6.0,0
10.0,-244.0,-86.0,1.0,54.0,-9.0,0
10.0,-242.0,-83.0,0.0,54.0,-6.0,0
11.0,-244.0,-92.0,-1.0,55.0,-8.0,0
12.0,-244.0,-88.0,0.0,57.0,-7.0,0
10.0,-246.0,-89.0,0.0,57.0,-7.0,0
10.0,-248.0,-87.0,-1.0,58.0,-6.0,0
8.0,-244.0,-87.0,-1.0,58.0,-7.0,0
10.0,-244.0,-89.0,-1.0,58.0,-7.0,0
10.0,-244.0,-88.0,0.0,56.0,-9.0,0
11.0,-243.0,-86.0,1.0,56.0,-8.0,0
11.0,-244.0,-90.0,0.0,54.0,-10.0,0
11.0,-244.0,-89.0,2.0,53.0,-8.0,0
11.0,-245.0,-90.0,5.0,52.0,-10.0,0
11.0,-242.0,-90.0,4.0,51.0,-7.0,0
10.0,-243.0,-89.0,5.0,52.0,-8.0,0
11.0,-243.0,-88.0,4.0,54.0,-6.0,0
10.0,-243.0,-88.0,6.0,53.0,-6.0,0
11.0,-246.0,-86.0,7.0,55.0,-7.0,0
8.0,-244.0,-90.0,10.0,54.0,-8.0,0
11.0,-244.0,-88.0,14.0,55.0,-6.0,0
12.0,-245.0,-87.0,15.0,54.0,-6.0,0
11.0,-242.0,-86.0,16.0,55.0,-6.0,0
13.0,-243.0,-83.0,16.0,58.0,-8.0,0
12.0,-240.0,-85.0,13.0,56.0,-9.0,0
13.0,-242.0,-86.0,11.0,54.0,-9.0,0
11.0,-244.0,-92.0,8.0,54.0,-10.0,0
13.0,-244.0,-86.0,7.0,53.0,-10.0,0
10.0,-243.0,-87.0,5.0,52.0,-12.0,0
12.0,-242.0,-84.0,6.0,51.0,-12.0,0
11.0,-243.0,-86.0,6.0,49.0,-10.0,0
10.0,-243.0,-84.0,7.0,48.0,-11.0,0
10.0,-244.0,-84.0,9.0,50.0,-12.0,0
10.0,-243.0,-86.0,11.0,48.0,-11.0,0
10.0,-247.0,-83.0,13.0,49.0,-10.0,0
12.0,-244.0,-82.0,13.0,49.0,-8.0,0
8.0,-246.0,-86.0,15.0,48.0,-7.0,0
9.0,-243.0,-83.0,15.0,46.0,-8.0,0
10.0,-246.0,-83.0,16.0,41.0,-8.0,0
12.0,-244.0,-84.0,16.0,40.0,-6.0,0
11.0,-245.0,-86.0,18.0,37.0,-8.0,0
11.0,-246.0,-82.0,17.0,39.0,-7.0,0
12.0,-244.0,-86.0,18.0,40.0,-7.0,0
12.0,-246.0,-81.0,15.0,39.0,-7.0,0
13.0,-245.0,-84.0,16.0,42.0,-8.0,0
11.0,-243.0,-86.0,15.0,41.0,-7.0,0
10.0,-246.0,-85.0,13.0,42.0,-8.0,0
13.0,-244.0,-88.0,11.0,43.0,-6.0,0
9.0,-243.0,-86.0,7.0,47.0,-8.0,0
13.0,-243.0,-85.0,4.0,47.0,-7.0,0
11.0,-245.0,-85.0,0.0,50.0,-7.0,0
10.0,-243.0,-88.0,-3.0,53.0,-8.0,0
12.0,-245.0,-88.0,-6.0,55.0,-9.0,0
10.0,-245.0,-86.0,-7.0,56.0,-7.0,0
14.0,-246.0,-85.0,-7.0,59.0,-10.0,0
12.0,-245.0,-85.0,-6.0,60.0,-7.0,0
13.0,-243.0,-85.0,-4.0,61.0,-9.0,0
14.0,-244.0,-84.0,0.0,61.0,-7.0,0
11.0,-245.0,-88.0,2.0,61.0,-9.0,0
10.0,-245.0,-86.0,4.0,64.0,-7.0,0
13.0,-242.0,-88.0,5.0,64.0,-7.0,0
12.0,-243.0,-84.0,6.0,63.0,-6.0,0
10.0,-243.0,-85.0,6.0,64.0,-7.0,0
12.0,-244.0,-83.0,7.0,64.0,-7.0,0
11.0,-242.0,-82.0,7.0,64.0,-8.0,0
11.0,-244.0,-84.0,7.0,61.0,-6.0,0
13.0,-246.0,-87.0,8.0,59.0,-8.0,0
9.0,-241.0,-86.0,9.0,58.0,-5.0,0
11.0,-245.0,-83.0,9.0,57.0,-8.0,0
11.0,-245.0,-89.0,7.0,57.0,-4.0,0
9.0,-243.0,-85.0,4.0,59.0,-5.0,0
12.0,-245.0,-84.0,3.0,60.0,-4.0,0
9.0,-241.0,-87.0,2.0,61.0,-6.0,0
11.0,-246.0,-89.0,0.0,62.0,-5.0,0
11.0,-243.0,-82.0,-2.0,63.0,-7.0,0
9.0,-245.0,-83.0,-3.0,64.0,-4.0,0
13.0,-245.0,-82.0,-3.0,65.0,-6.0,0
8.0,-243.0,-83.0,-2.0,65.0,-4.0,0
8.0,-243.0,-83.0,-3.0,63.0,-6.0,0
11.0,-243.0,-83.0,-3.0,62.0,-3.0,0
10.0,-244.0,-82.0,-4.0,60.0,-5.0,0
10.0,-245.0,-86.0,-6.0,60.0,-3.0,0
9.0,-245.0,-84.0,-9.0,57.0,-3.0,0
8.0,-243.0,-84.0,-9.0,55.0,-2.0,0
10.0,-245.0,-84.0,-12.0,55.0,-3.0,0
10.0,-244.0,-84.0,-13.0,52.0,-2.0,0
8.0,-246.0,-83.0,-13.0,54.0,-4.0,0
12.0,-243.0,-85.0,-16.0,54.0,0.0,0
13.0,-245.0,-86.0,-17.0,54.0,-3.0,0
13.0,-246.0,-91.0,-17.0,56.0,-1.0,0
12.0,-246.0,-85.0,-18.0,56.0,-4.0,0
11.0,-248.0,-84.0,-17.0,58.0,-1.0,0
8.0,-244.0,-84.0,-14.0,60.0,-5.0,0
11.0,-244.0,-84.0,-12.0,61.0,-2.0,0
11.0,-246.0,-82.0,-9.0,63.0,-4.0,0
12.0,-243.0,-86.0,-4.0,63.0,-1.0,0
7.0,-244.0,-84.0,-3.0,65.0,-3.0,0
11.0,-245.0,-80.0,-2.0,64.0,-2.0,0
14.0,-243.0,-82.0,-3.0,63.0,-3.0,0
13.0,-246.0,-85.0,-4.0,62.0,-1.0,0
10.0,-242.0,-85.0,-6.0,63.0,-3.0,0
10.0,-242.0,-85.0,-9.0,64.0,-2.0,0
11.0,-241.0,-86.0,-12.0,62.0,-4.0,0
10.0,-245.0,-85.0,-17.0,62.0,-1.0,0
12.0,-244.0,-86.0,-23.0,59.0,-4.0,0
11.0,-244.0,-89.0,-27.0,58.0,-2.0,0
11.0,-244.0,-86.0,-28.0,58.0,-3.0,0
12.0,-243.0,-86.0,-28.0,58.0,-1.0,0
16.0,-241.0,-75.0,-27.0,58.0,-2.0,0
11.0,-252.0,-83.0,-25.0,60.0,1.0,0
5.0,-246.0,-80.0,-20.0,61.0,-2.0,0
13.0,-250.0,-85.0,-18.0,60.0,1.0,0
12.0,-246.0,-84.0,-14.0,61.0,0.0,0
9.0,-243.0,-84.0,-12.0,61.0,2.0,0
12.0,-245.0,-81.0,-10.0,60.0,0.0,0
8.0,-243.0,-84.0,-8.0,61.0,2.0,0
11.0,-244.0,-84.0,-6.0,62.0,0.0,0
10.0,-246.0,-85.0,-4.0,63.0,1.0,0
12.0,-247.0,-87.0,-3.0,63.0,-1.0,0
11.0,-243.0,-81.0,-4.0,65.0,-1.0,0
11.0,-244.0,-85.0,-5.0,65.0,-2.0,0
13.0,-244.0,-87.0,-5.0,66.0,-1.0,0
12.0,-246.0,-83.0,-7.0,67.0,-3.0,0
10.0,-245.0,-83.0,-11.0,68.0,-2.0,0
10.0,-244.0,-87.0,-14.0,67.0,-4.0,0
12.0,-245.0,-83.0,-16.0,67.0,-4.0,0
9.0,-246.0,-85.0,-18.0,69.0,-5.0,0
9.0,-243.0,-84.0,-19.0,70.0,-6.0,0
12.0,-244.0,-87.0,-21.0,69.0,-5.0,0
12.0,-244.0,-83.0,-19.0,70.0,-3.0,0
10.0,-242.0,-89.0,-18.0,69.0,-4.0,0
10.0,-244.0,-85.0,-13.0,68.0,-2.0,0
8.0,-245.0,-88.0,-11.0,67.0,-3.0,0
11.0,-242.0,-89.0,-9.0,66.0,-1.0,0
13.0,-247.0,-87.0,-7.0,66.0,-3.0,0
9.0,-243.0,-88.0,-8.0,66.0,-2.0,0
11.0,-244.0,-88.0,-9.0,65.0,-2.0,0
13.0,-245.0,-85.0,-8.0,65.0,-1.0,0
8.0,-243.0,-86.0,-8.0,66.0,0.0,0
10.0,-246.0,-85.0,-6.0,64.0,2.0,0
12.0,-245.0,-86.0,-4.0,65.0,0.0,0
10.0,-244.0,-84.0,-1.0,67.0,2.0,0
11.0,-241.0,-85.0,2.0,65.0,2.0,0
11.0,-243.0,-85.0,4.0,65.0,2.0,0
13.0,-242.0,-86.0,6.0,65.0,1.0,0
10.0,-241.0,-85.0,8.0,62.0,2.0,0
9.0,-240.0,-86.0,6.0,63.0,1.0,0
11.0,-240.0,-85.0,1.0,61.0,0.0,0
11.0,-244.0,-83.0,-2.0,61.0,0.0,0
11.0,-243.0,-82.0,-6.0,61.0,-1.0,0
11.0,-244.0,-86.0,-10.0,61.0,-2.0,0
11.0,-245.0,-85.0,-11.0,61.0,-1.0,0
11.0,-243.0,-86.0,-12.0,60.0,-3.0,0
11.0,-244.0,-88.0,-14.0,60.0,-3.0,0
12.0,-244.0,-86.0,-16.0,59.0,-4.0,0
11.0,-245.0,-83.0,-18.0,59.0,-4.0,0
8.0,-246.0,-85.0,-19.0,58.0,-3.0,0
10.0,-243.0,-88.0,-18.0,57.0,-5.0,0
10.0,-247.0,-87.0,-18.0,57.0,-3.0,0
11.0,-247.0,-84.0,-16.0,56.0,-5.0,0
10.0,-243.0,-86.0,-15.0,57.0,-2.0,0
11.0,-248.0,-84.0,-12.0,57.0,-3.0,0
10.0,-242.0,-86.0,-9.0,55.0,0.0,0
11.0,-244.0,-85.0,-6.0,55.0,-1.0,0
13.0,-244.0,-84.0,-4.0,52.0,1.0,0
12.0,-243.0,-86.0,-2.0,51.0,-1.0,0
8.0,-245.0,-86.0,0.0,51.0,-1.0,0
8.0,-244.0,-88.0,1.0,52.0,-2.0,0
10.0,-244.0,-86.0,1.0,50.0,-1.0,0
11.0,-243.0,-87.0,1.0,51.0,-1.0,0
10.0,-242.0,-88.0,2.0,51.0,-3.0,0
10.0,-244.0,-87.0,0.0,52.0,-3.0,0
8.0,-244.0,-87.0,-2.0,54.0,-3.0,0
12.0,-246.0,-84.0,-4.0,57.0,-6.0,0
9.0,-242.0,-87.0,-7.0,58.0,-5.0,0
11.0,-243.0,-86.0,-8.0,58.0,-7.0,0
11.0,-242.0,-88.0,-9.0,59.0,-7.0,0
8.0,-243.0,-85.0,-9.0,61.0,-8.0,0
12.0,-244.0,-81.0,-9.0,62.0,-6.0,0
9.0,-244.0,-81.0,-9.0,61.0,-8.0,0
8.0,-240.0,-83.0,-7.0,59.0,-6.0,0
12.0,-243.0,-89.0,-7.0,57.0,-7.0,0
14.0,-243.0,-86.0,-8.0,57.0,-5.0,0
10.0,-245.0,-80.0,-9.0,55.0,-7.0,0
10.0,-244.0,-82.0,-9.0,54.0,-4.0,0
13.0,-244.0,-87.0,-8.0,55.0,-8.0,0
9.0,-248.0,-81.0,-9.0,55.0,-4.0,0
11.0,-245.0,-81.0,-8.0,56.0,-5.0,0
12.0,-247.0,-83.0,-7.0,55.0,-4.0,0
13.0,-246.0,-81.0,-5.0,55.0,-4.0,0
10.0,-247.0,-81.0,-5.0,55.0,-2.0,0
8.0,-244.0,-84.0,-4.0,53.0,-4.0,0
9.0,-245.0,-85.0,-3.0,51.0,-2.0,0
11.0,-248.0,-84.0,-2.0,52.0,-5.0,0
10.0,-245.0,-86.0,-3.0,51.0,-3.0,0
10.0,-244.0,-84.0,-2.0,51.0,-5.0,0
10.0,-240.0,-82.0,-4.0,51.0,-3.0,0
8.0,-242.0,-83.0,-5.0,51.0,-5.0,0
10.0,-244.0,-84.0,-6.0,51.0,-3.0,0
10.0,-245.0,-87.0,-8.0,51.0,-5.0,0
9.0,-245.0,-84.0,-9.0,52.0,-4.0,0
10.0,-246.0,-83.0,-11.0,51.0,-6.0,0
9.0,-245.0,-83.0,-10.0,49.0,-4.0,0
10.0,-244.0,-85.0,-13.0,49.0,-5.0,0
10.0,-245.0,-85.0,-16.0,49.0,-2.0,0
12.0,-243.0,-83.0,-19.0,48.0,-4.0,0
10.0,-246.0,-85.0,-22.0,51.0,-3.0,0
11.0,-246.0,-85.0,-25.0,49.0,-6.0,0
13.0,-245.0,-83.0,-27.0,50.0,-4.0,0
14.0,-246.0,-86.0,-25.0,51.0,-5.0,0
9.0,-245.0,-81.0,-22.0,50.0,-3.0,0
12.0,-247.0,-88.0,-17.0,51.0,-5.0,0
13.0,-246.0,-85.0,-11.0,52.0,-3.0,0
10.0,-247.0,-84.0,-7.0,53.0,-4.0,0
11.0,-248.0,-83.0,-4.0,54.0,-1.0,0
10.0,-243.0,-85.0,0.0,53.0,-2.0,0
11.0,-241.0,-86.0,-4.0,54.0,-1.0,0
10.0,-243.0,-86.0,-5.0,53.0,-3.0,0
12.0,-243.0,-85.0,-8.0,49.0,-3.0,0
11.0,-244.0,-82.0,-9.0,49.0,-4.0,0
12.0,-244.0,-83.0,-10.0,48.0,-3.0,0
10.0,-244.0,-86.0,-9.0,48.0,-6.0,0
9.0,-245.0,-82.0,-8.0,47.0,-2.0,0
13.0,-245.0,-84.0,-8.0,48.0,-5.0,0
9.0,-245.0,-87.0,-9.0,48.0,-3.0,0
11.0,-243.0,-86.0,-9.0,51.0,-4.0,0
9.0,-243.0,-84.0,-10.0,54.0,-3.0,0
13.0,-246.0,-87.0,-9.0,56.0,-5.0,0
14.0,-243.0,-83.0,-10.0,58.0,-3.0,0
10.0,-240.0,-84.0,-10.0,59.0,-5.0,0
11.0,-244.0,-87.0,-8.0,58.0,-2.0,0
10.0,-241.0,-82.0,-9.0,59.0,-4.0,0
12.0,-242.0,-86.0,-13.0,56.0,-2.0,0
9.0,-242.0,-90.0,-15.0,57.0,-4.0,0
10.0,-245.0,-89.0,-17.0,56.0,-2.0,0
12.0,-242.0,-86.0,-17.0,55.0,-5.0,0
10.0,-243.0,-84.0,-18.0,55.0,-2.0,0
10.0,-243.0,-84.0,-15.0,54.0,-1.0,0
11.0,-245.0,-85.0,-12.0,53.0,2.0,0
12.0,-247.0,-87.0,-10.0,53.0,1.0,0
11.0,-246.0,-81.0,-7.0,51.0,3.0,0
10.0,-247.0,-79.0,-3.0,53.0,1.0,0
12.0,-246.0,-86.0,0.0,51.0,2.0,0
13.0,-248.0,-87.0,3.0,53.0,0.0,0
9.0,-246.0,-85.0,5.0,52.0,3.0,0
8.0,-244.0,-82.0,5.0,53.0,0.0,0
9.0,-245.0,-85.0,5.0,53.0,0.0,0
9.0,-244.0,-86.0,6.0,56.0,-1.0,0
9.0,-245.0,-86.0,4.0,56.0,-1.0,0
12.0,-244.0,-86.0,5.0,57.0,-2.0,0
9.0,-244.0,-85.0,3.0,59.0,-1.0,0
9.0,-243.0,-84.0,3.0,60.0,-3.0,0
10.0,-243.0,-88.0,1.0,61.0,-2.0,0
9.0,-244.0,-85.0,-1.0,62.0,-4.0,0
11.0,-243.0,-81.0,-3.0,62.0,-3.0,0
9.0,-245.0,-87.0,-5.0,63.0,-2.0,0
11.0,-243.0,-83.0,-6.0,62.0,-1.0,0
9.0,-243.0,-87.0,-5.0,61.0,-2.0,0
11.0,-244.0,-87.0,-3.0,62.0,0.0,0
13.0,-245.0,-86.0,-1.0,63.0,0.0,0
10.0,-244.0,-85.0,1.0,63.0,2.0,0
8.0,-243.0,-85.0,2.0,62.0,2.0,0
11.0,-243.0,-84.0,5.0,62.0,4.0,0
11.0,-244.0,-85.0,5.0,59.0,3.0,0
8.0,-241.0,-84.0,4.0,58.0,4.0,0
11.0,-244.0,-86.0,2.0,56.0,5.0,0
11.0,-247.0,-87.0,0.0,55.0,5.0,0
7.0,-246.0,-83.0,3.0,53.0,6.0,0
11.0,-247.0,-80.0,5.0,51.0,5.0,0
10.0,-248.0,-82.0,9.0,52.0,4.0,0
10.0,-247.0,-84.0,14.0,53.0,5.0,0
8.0,-244.0,-82.0,15.0,52.0,3.0,0
8.0,-241.0,-80.0,15.0,53.0,4.0,0
9.0,-243.0,-82.0,14.0,54.0,4.0,0
9.0,-245.0,-86.0,10.0,54.0,2.0,0
9.0,-245.0,-85.0,6.0,54.0,2.0,0
10.0,-244.0,-83.0,2.0,55.0,1.0,0
9.0,-243.0,-81.0,0.0,55.0,2.0,0
7.0,-246.0,-78.0,-4.0,55.0,1.0,0
11.0,-244.0,-79.0,-4.0,53.0,1.0,0
9.0,-249.0,-82.0,-3.0,52.0,0.0,0
9.0,-246.0,-84.0,-1.0,50.0,0.0,0
9.0,-250.0,-79.0,1.0,46.0,-2.0,0
6.0,-246.0,-81.0,1.0,42.0,-2.0,0
13.0,-247.0,-85.0,5.0,41.0,-2.0,0
6.0,-247.0,-81.0,6.0,38.0,-2.0,0
7.0,-248.0,-83.0,4.0,37.0,-4.0,0
9.0,-246.0,-82.0,7.0,35.0,-3.0,0
8.0,-246.0,-82.0,6.0,35.0,-4.0,0
8.0,-246.0,-83.0,6.0,35.0,-2.0,0
7.0,-245.0,-80.0,8.0,36.0,-2.0,0
10.0,-245.0,-83.0,10.0,39.0,-2.0,0
9.0,-243.0,-85.0,11.0,42.0,-2.0,0
11.0,-243.0,-83.0,11.0,45.0,-2.0,0
10.0,-242.0,-83.0,9.0,48.0,-2.0,0
13.0,-243.0,-84.0,9.0,48.0,0.0,0
13.0,-245.0,-81.0,7.0,50.0,-2.0,0
