ax,ay,az,gx,gy,gz,label
15.0,-250.0,-55.0,-14.0,61.0,-6.0,0
17.0,-251.0,-53.0,-16.0,62.0,-6.0,0
15.0,-249.0,-55.0,-18.0,63.0,-4.0,0
18.0,-252.0,-55.0,-19.0,65.0,-5.0,0
16.0,-253.0,-55.0,-17.0,66.0,-5.0,0
19.0,-254.0,-50.0,-14.0,68.0,-4.0,0
15.0,-253.0,-57.0,-14.0,68.0,-3.0,0
18.0,-249.0,-55.0,-15.0,67.0,-4.0,0
16.0,-252.0,-54.0,-15.0,67.0,-4.0,0
17.0,-252.0,-51.0,-16.0,67.0,-3.0,0
17.0,-253.0,-57.0,-16.0,67.0,-2.0,0
17.0,-255.0,-53.0,-15.0,66.0,-1.0,0
15.0,-255.0,-57.0,-12.0,60.0,-1.0,0
15.0,-251.0,-59.0,-7.0,59.0,-2.0,0
15.0,-250.0,-59.0,0.0,58.0,-1.0,0
14.0,-251.0,-55.0,2.0,55.0,-3.0,0
16.0,-250.0,-57.0,-1.0,55.0,-3.0,0
16.0,-250.0,-57.0,-6.0,54.0,-4.0,0
14.0,-251.0,-55.0,-11.0,54.0,-4.0,0
15.0,-252.0,-57.0,-15.0,56.0,-4.0,0
12.0,-249.0,-58.0,-20.0,58.0,-5.0,0
15.0,-249.0,-56.0,-21.0,59.0,-4.0,0
17.0,-247.0,-58.0,-19.0,58.0,-4.0,0
18.0,-247.0,-42.0,-17.0,59.0,-6.0,0
9.0,-255.0,-59.0,-10.0,58.0,-6.0,0
15.0,-251.0,-57.0,-6.0,58.0,-7.0,0
22.0,-248.0,-48.0,-4.0,57.0,-6.0,0
10.0,-253.0,-66.0,-5.0,57.0,-6.0,0
21.0,-254.0,-45.0,-8.0,56.0,-7.0,0
9.0,-265.0,-55.0,-11.0,57.0,-4.0,0
24.0,-255.0,-44.0,-11.0,55.0,-3.0,0
16.0,-257.0,-56.0,-12.0,54.0,-2.0,0
20.0,-253.0,-54.0,-11.0,51.0,-2.0,0
12.0,-251.0,-54.0,-10.0,50.0,0.0,0
11.0,-254.0,-49.0,-7.0,47.0,-2.0,0
20.0,-251.0,-55.0,-3.0,45.0,-2.0,0
19.0,-254.0,-51.0,4.0,46.0,-2.0,0
13.0,-254.0,-53.0,6.0,48.0,-2.0,0
20.0,-252.0,-52.0,5.0,48.0,-4.0,0
10.0,-250.0,-49.0,4.0,49.0,-4.0,0
16.0,-248.0,-55.0,-2.0,50.0,-6.0,0
16.0,-249.0,-55.0,-8.0,55.0,-5.0,0
15.0,-250.0,-54.0,-12.0,57.0,-5.0,0
14.0,-251.0,-53.0,-12.0,57.0,-4.0,0
23.0,-252.0,-57.0,-12.0,56.0,-4.0,0
15.0,-256.0,-52.0,-10.0,55.0,-5.0,0
16.0,-255.0,-52.0,-5.0,54.0,-4.0,0
15.0,-254.0,-54.0,0.0,56.0,-4.0,0
17.0,-254.0,-53.0,2.0,57.0,-3.0,0
13.0,-254.0,-55.0,6.0,56.0,-1.0,0
17.0,-254.0,-56.0,5.0,58.0,-3.0,0
15.0,-250.0,-55.0,4.0,59.0,-1.0,0
15.0,-252.0,-52.0,0.0,58.0,-1.0,0
15.0,-248.0,-51.0,-1.0,58.0,0.0,0
18.0,-250.0,-58.0,-5.0,60.0,0.0,0
16.0,-253.0,-56.0,-10.0,59.0,0.0,0
16.0,-250.0,-57.0,-15.0,58.0,0.0,0
15.0,-251.0,-56.0,-17.0,60.0,0.0,0
15.0,-251.0,-53.0,-19.0,63.0,-1.0,0
16.0,-253.0,-51.0,-18.0,64.0,2.0,0
17.0,-251.0,-55.0,-19.0,65.0,-2.0,0
17.0,-251.0,-54.0,-18.0,67.0,-1.0,0
16.0,-253.0,-57.0,-16.0,69.0,-3.0,0
16.0,-252.0,-53.0,-14.0,69.0,-3.0,0
12.0,-251.0,-55.0,-15.0,69.0,-4.0,0
14.0,-252.0,-56.0,-15.0,69.0,-1.0,0
17.0,-252.0,-56.0,-16.0,66.0,-3.0,0
15.0,-250.0,-55.0,-20.0,64.0,-4.0,0
16.0,-250.0,-55.0,-18.0,64.0,-4.0,0
17.0,-254.0,-54.0,-20.0,65.0,-1.0,0
17.0,-251.0,-54.0,-20.0,64.0,-1.0,0
16.0,-253.0,-55.0,-19.0,63.0,0.0,0
16.0,-252.0,-51.0,-20.0,61.0,0.0,0
15.0,-251.0,-51.0,-21.0,61.0,3.0,0
16.0,-248.0,-55.0,-22.0,61.0,1.0,0
16.0,-248.0,-57.0,-23.0,60.0,3.0,0
16.0,-253.0,-59.0,-22.0,59.0,0.0,0
15.0,-248.0,-52.0,-24.0,60.0,1.0,0
15.0,-252.0,-54.0,-24.0,60.0,0.0,0
14.0,-248.0,-51.0,-24.0,59.0,0.0,0
13.0,-250.0,-55.0,-26.0,60.0,-1.0,0
16.0,-248.0,-54.0,-29.0,59.0,-1.0,0
14.0,-248.0,-54.0,-31.0,56.0,-4.0,0
17.0,-250.0,-56.0,-35.0,55.0,-2.0,0
14.0,-249.0,-53.0,-35.0,55.0,-3.0,0
17.0,-248.0,-55.0,-38.0,57.0,-2.0,0
17.0,-252.0,-55.0,-38.0,55.0,-2.0,0
15.0,-251.0,-56.0,-39.0,53.0,-1.0,0
15.0,-249.0,-57.0,-41.0,52.0,-1.0,0
17.0,-252.0,-57.0,-42.0,52.0,-1.0,0
16.0,-252.0,-54.0,-44.0,52.0,-3.0,0
14.0,-251.0,-56.0,-42.0,53.0,0.0,0
18.0,-251.0,-54.0,-40.0,52.0,0.0,0
16.0,-253.0,-54.0,-37.0,53.0,1.0,0
16.0,-254.0,-52.0,-36.0,51.0,0.0,0
16.0,-250.0,-53.0,-34.0,51.0,1.0,0
18.0,-251.0,-54.0,-33.0,51.0,0.0,0
15.0,-253.0,-54.0,-29.0,50.0,1.0,0
18.0,-248.0,-52.0,-31.0,49.0,0.0,0
15.0,-248.0,-54.0,-34.0,48.0,3.0,0
14.0,-248.0,-53.0,-36.0,48.0,2.0,0
15.0,-251.0,-49.0,-39.0,48.0,3.0,0
17.0,-252.0,-51.0,-41.0,48.0,2.0,0
14.0,-251.0,-51.0,-45.0,50.0,2.0,0
17.0,-251.0,-55.0,-46.0,49.0,0.0,0
18.0,-252.0,-52.0,-47.0,50.0,1.0,0
17.0,-250.0,-52.0,-48.0,51.0,-1.0,0
15.0,-254.0,-55.0,-47.0,54.0,0.0,0
14.0,-254.0,-56.0,-45.0,53.0,-2.0,0
17.0,-255.0,-57.0,-44.0,54.0,0.0,0
15.0,-254.0,-57.0,-39.0,55.0,-3.0,0
14.0,-252.0,-57.0,-34.0,56.0,-1.0,0
13.0,-253.0,-55.0,-27.0,56.0,-4.0,0
17.0,-253.0,-54.0,-23.0,57.0,-2.0,0
17.0,-250.0,-56.0,-20.0,60.0,-4.0,0
16.0,-252.0,-56.0,-21.0,59.0,-1.0,0
16.0,-251.0,-57.0,-20.0,58.0,-3.0,0
20.0,-253.0,-53.0,-20.0,58.0,-1.0,0
18.0,-249.0,-58.0,-21.0,60.0,-3.0,0
15.0,-250.0,-53.0,-23.0,60.0,-1.0,0
17.0,-251.0,-54.0,-27.0,60.0,-3.0,0
15.0,-250.0,-56.0,-28.0,62.0,-2.0,0
18.0,-254.0,-53.0,-28.0,64.0,-3.0,0
16.0,-253.0,-54.0,-28.0,66.0,-3.0,0
16.0,-254.0,-54.0,-28.0,68.0,-4.0,0
18.0,-254.0,-58.0,-26.0,69.0,-3.0,0
17.0,-250.0,-55.0,-25.0,68.0,-7.0,0
15.0,-250.0,-57.0,-21.0,68.0,-5.0,0
15.0,-251.0,-58.0,-21.0,67.0,-9.0,0
18.0,-249.0,-55.0,-22.0,66.0,-6.0,0
20.0,-250.0,-53.0,-23.0,67.0,-7.0,0
17.0,-249.0,-57.0,-25.0,69.0,-4.0,0
16.0,-251.0,-54.0,-30.0,69.0,-4.0,0
17.0,-248.0,-57.0,-34.0,70.0,-3.0,0
16.0,-248.0,-57.0,-37.0,70.0,-6.0,0
19.0,-252.0,-56.0,-38.0,70.0,-4.0,0
17.0,-251.0,-55.0,-38.0,70.0,-6.0,0
17.0,-251.0,-54.0,-39.0,71.0,-4.0,0
15.0,-250.0,-56.0,-35.0,71.0,-7.0,0
16.0,-256.0,-56.0,-32.0,68.0,-4.0,0
16.0,-253.0,-55.0,-28.0,69.0,-6.0,0
16.0,-251.0,-55.0,-27.0,71.0,-3.0,0
15.0,-252.0,-51.0,-24.0,74.0,-6.0,0
13.0,-248.0,-58.0,-21.0,75.0,-4.0,0
17.0,-252.0,-59.0,-22.0,74.0,-5.0,0
16.0,-251.0,-56.0,-22.0,76.0,-3.0,0
16.0,-252.0,-60.0,-24.0,79.0,-5.0,0
15.0,-248.0,-58.0,-25.0,80.0,-2.0,0
19.0,-253.0,-58.0,-26.0,82.0,-5.0,0
21.0,-252.0,-60.0,-26.0,82.0,-2.0,0
19.0,-252.0,-60.0,-24.0,82.0,-6.0,0
17.0,-252.0,-62.0,-26.0,81.0,-4.0,0
16.0,-250.0,-56.0,-29.0,83.0,-7.0,0
16.0,-254.0,-58.0,-27.0,84.0,-4.0,0
16.0,-249.0,-59.0,-29.0,87.0,-7.0,0
18.0,-251.0,-58.0,-29.0,89.0,-4.0,0
16.0,-248.0,-55.0,-30.0,90.0,-7.0,0
17.0,-251.0,-54.0,-32.0,90.0,-4.0,0
16.0,-248.0,-60.0,-34.0,89.0,-7.0,0
14.0,-248.0,-56.0,-37.0,89.0,-5.0,0
16.0,-251.0,-58.0,-41.0,90.0,-6.0,0
17.0,-253.0,-58.0,-40.0,90.0,-3.0,0
14.0,-248.0,-57.0,-38.0,92.0,-5.0,0
14.0,-252.0,-56.0,-35.0,94.0,-2.0,0
18.0,-251.0,-57.0,-33.0,93.0,-5.0,0
17.0,-254.0,-55.0,-32.0,94.0,-2.0,0
16.0,-254.0,-58.0,-29.0,94.0,-4.0,0
14.0,-253.0,-60.0,-26.0,94.0,-2.0,0
14.0,-252.0,-56.0,-25.0,96.0,-5.0,0
15.0,-252.0,-57.0,-22.0,95.0,-3.0,0
16.0,-252.0,-55.0,-23.0,97.0,-5.0,0
18.0,-249.0,-60.0,-22.0,97.0,-3.0,0
15.0,-251.0,-56.0,-23.0,96.0,-5.0,0
17.0,-251.0,-60.0,-20.0,96.0,-3.0,0
16.0,-252.0,-57.0,-16.0,96.0,-7.0,0
19.0,-251.0,-60.0,-8.0,96.0,-5.0,0
18.0,-251.0,-61.0,-5.0,95.0,-7.0,0
15.0,-249.0,-57.0,-7.0,97.0,-5.0,0
18.0,-247.0,-61.0,-12.0,99.0,-9.0,0
13.0,-248.0,-58.0,-17.0,101.0,-7.0,0
16.0,-249.0,-60.0,-24.0,106.0,-9.0,0
18.0,-249.0,-61.0,-28.0,110.0,-6.0,0
16.0,-252.0,-57.0,-29.0,114.0,-7.0,0
16.0,-252.0,-56.0,-27.0,117.0,-4.0,0
16.0,-252.0,-54.0,-23.0,118.0,-6.0,0
20.0,-255.0,-54.0,-23.0,120.0,-4.0,0
18.0,-253.0,-55.0,-22.0,121.0,-6.0,0
13.0,-252.0,-56.0,-21.0,120.0,-1.0,0
17.0,-249.0,-57.0,-19.0,118.0,-3.0,0
16.0,-248.0,-60.0,-20.0,117.0,-1.0,0
16.0,-248.0,-59.0,-18.0,115.0,-3.0,0
13.0,-249.0,-59.0,-18.0,115.0,-1.0,0
13.0,-252.0,-59.0,-21.0,114.0,-4.0,0
15.0,-250.0,-60.0,-22.0,113.0,-2.0,0
14.0,-251.0,-62.0,-23.0,112.0,-5.0,0
15.0,-252.0,-59.0,-26.0,110.0,-4.0,0
14.0,-252.0,-56.0,-30.0,111.0,-8.0,0
11.0,-247.0,-59.0,-32.0,109.0,-6.0,0
15.0,-253.0,-58.0,-36.0,106.0,-9.0,0
15.0,-254.0,-57.0,-36.0,103.0,-6.0,0
14.0,-255.0,-57.0,-32.0,104.0,-9.0,0
14.0,-252.0,-60.0,-27.0,102.0,-4.0,0
12.0,-251.0,-56.0,-21.0,101.0,-6.0,0
15.0,-253.0,-58.0,-17.0,97.0,-4.0,0
17.0,-253.0,-58.0,-15.0,93.0,-5.0,0
11.0,-249.0,-57.0,-18.0,88.0,-1.0,0
13.0,-248.0,-56.0,-22.0,85.0,-1.0,0
13.0,-247.0,-55.0,-26.0,85.0,2.0,0
14.0,-248.0,-59.0,-28.0,84.0,-1.0,0
15.0,-251.0,-58.0,-26.0,83.0,2.0,0
12.0,-252.0,-57.0,-27.0,81.0,0.0,0
14.0,-251.0,-57.0,-29.0,80.0,0.0,0
14.0,-252.0,-56.0,-31.0,79.0,-2.0,0
12.0,-253.0,-58.0,-33.0,76.0,-1.0,0
14.0,-251.0,-57.0,-35.0,72.0,-3.0,0
13.0,-251.0,-59.0,-35.0,69.0,-1.0,0
15.0,-254.0,-56.0,-34.0,66.0,-3.0,0
12.0,-253.0,-57.0,-34.0,63.0,-2.0,0
13.0,-251.0,-59.0,-33.0,58.0,-5.0,0
15.0,-252.0,-55.0,-32.0,56.0,-3.0,0
15.0,-253.0,-59.0,-32.0,54.0,-5.0,0
13.0,-247.0,-59.0,-30.0,54.0,-2.0,0
15.0,-251.0,-57.0,-29.0,56.0,-6.0,0
13.0,-248.0,-59.0,-30.0,55.0,-5.0,0
15.0,-249.0,-58.0,-30.0,57.0,-8.0,0
13.0,-251.0,-58.0,-33.0,58.0,-8.0,0
14.0,-249.0,-57.0,-33.0,59.0,-10.0,0
17.0,-252.0,-58.0,-35.0,60.0,-8.0,0
16.0,-253.0,-58.0,-38.0,61.0,-9.0,0
17.0,-251.0,-59.0,-37.0,63.0,-6.0,0
16.0,-254.0,-55.0,-34.0,65.0,-9.0,0
19.0,-252.0,-59.0,-30.0,64.0,-5.0,0
18.0,-252.0,-57.0,-26.0,63.0,-7.0,0
18.0,-250.0,-57.0,-22.0,64.0,-6.0,0
16.0,-254.0,-58.0,-19.0,63.0,-8.0,0
16.0,-249.0,-58.0,-17.0,61.0,-6.0,0
17.0,-248.0,-60.0,-20.0,59.0,-9.0,0
17.0,-248.0,-57.0,-23.0,61.0,-8.0,0
18.0,-248.0,-59.0,-31.0,63.0,-10.0,0
17.0,-248.0,-58.0,-35.0,63.0,-7.0,0
15.0,-250.0,-59.0,-38.0,64.0,-8.0,0
16.0,-248.0,-58.0,-41.0,66.0,-5.0,0
17.0,-248.0,-62.0,-44.0,67.0,-7.0,0
17.0,-250.0,-55.0,-46.0,66.0,-4.0,0
15.0,-249.0,-58.0,-48.0,65.0,-8.0,0
16.0,-253.0,-58.0,-48.0,65.0,-7.0,0
19.0,-253.0,-58.0,-49.0,63.0,-8.0,0
14.0,-252.0,-58.0,-48.0,65.0,-3.0,0
14.0,-251.0,-55.0,-46.0,65.0,-6.0,0
14.0,-254.0,-57.0,-42.0,67.0,-4.0,0
16.0,-249.0,-60.0,-40.0,65.0,-6.0,0
17.0,-253.0,-58.0,-39.0,67.0,-2.0,0
17.0,-250.0,-56.0,-35.0,67.0,-6.0,0
17.0,-252.0,-58.0,-34.0,68.0,-4.0,0
14.0,-252.0,-56.0,-32.0,69.0,-7.0,0
14.0,-254.0,-55.0,-32.0,70.0,-5.0,0
15.0,-251.0,-57.0,-30.0,70.0,-6.0,0
16.0,-250.0,-57.0,-32.0,69.0,-3.0,0
14.0,-251.0,-59.0,-35.0,68.0,-5.0,0
15.0,-250.0,-54.0,-37.0,66.0,-3.0,0
13.0,-255.0,-56.0,-37.0,62.0,-4.0,0
16.0,-253.0,-59.0,-36.0,58.0,-3.0,0
15.0,-253.0,-59.0,-36.0,52.0,-7.0,0
16.0,-251.0,-58.0,-35.0,50.0,-4.0,0
14.0,-254.0,-58.0,-31.0,49.0,-8.0,0
15.0,-253.0,-61.0,-27.0,49.0,-5.0,0
13.0,-251.0,-58.0,-23.0,51.0,-8.0,0
13.0,-252.0,-62.0,-18.0,54.0,-5.0,0
16.0,-252.0,-61.0,-15.0,54.0,-6.0,0
12.0,-253.0,-60.0,-10.0,54.0,-1.0,0
16.0,-251.0,-59.0,-8.0,55.0,-4.0,0
16.0,-249.0,-58.0,-10.0,54.0,0.0,0
15.0,-248.0,-58.0,-15.0,53.0,-3.0,0
18.0,-252.0,-58.0,-21.0,53.0,0.0,0
16.0,-251.0,-58.0,-26.0,50.0,-3.0,0
16.0,-251.0,-57.0,-28.0,48.0,-1.0,0
15.0,-250.0,-57.0,-27.0,47.0,-6.0,0
17.0,-251.0,-59.0,-21.0,47.0,-4.0,0
15.0,-249.0,-53.0,-18.0,47.0,-8.0,0
14.0,-251.0,-58.0,-19.0,47.0,-7.0,0
17.0,-252.0,-56.0,-19.0,45.0,-10.0,0
15.0,-248.0,-57.0,-19.0,46.0,-8.0,0
18.0,-250.0,-57.0,-20.0,49.0,-9.0,0
19.0,-248.0,-59.0,-19.0,54.0,-5.0,0
16.0,-252.0,-62.0,-20.0,54.0,-7.0,0
16.0,-249.0,-58.0,-22.0,55.0,-3.0,0
18.0,-248.0,-62.0,-23.0,54.0,-5.0,0
17.0,-252.0,-59.0,-23.0,54.0,-2.0,0
18.0,-250.0,-57.0,-22.0,53.0,-3.0,0
17.0,-251.0,-66.0,-21.0,54.0,-1.0,0
15.0,-251.0,-60.0,-20.0,53.0,-3.0,0
18.0,-248.0,-58.0,-21.0,53.0,-2.0,0
18.0,-250.0,-57.0,-24.0,55.0,-5.0,0
18.0,-248.0,-56.0,-26.0,57.0,-3.0,0
18.0,-251.0,-58.0,-28.0,61.0,-6.0,0
15.0,-248.0,-60.0,-29.0,63.0,-4.0,0
16.0,-250.0,-58.0,-30.0,66.0,-7.0,0
17.0,-251.0,-58.0,-30.0,68.0,-5.0,0
17.0,-253.0,-58.0,-27.0,72.0,-7.0,0
20.0,-251.0,-58.0,-23.0,75.0,-5.0,0
17.0,-255.0,-60.0,-19.0,75.0,-7.0,0
17.0,-251.0,-61.0,-16.0,75.0,-4.0,0
13.0,-247.0,-59.0,-17.0,73.0,-7.0,0
16.0,-245.0,-60.0,-19.0,74.0,-4.0,0
15.0,-251.0,-60.0,-26.0,75.0,-5.0,0
16.0,-248.0,-59.0,-31.0,73.0,-3.0,0
17.0,-250.0,-57.0,-33.0,70.0,-3.0,0
15.0,-252.0,-58.0,-34.0,69.0,-2.0,0
14.0,-252.0,-60.0,-33.0,66.0,-3.0,0
14.0,-252.0,-55.0,-30.0,67.0,-1.0,0
13.0,-248.0,-61.0,-26.0,66.0,-2.0,0
15.0,-251.0,-58.0,-23.0,65.0,0.0,0
13.0,-251.0,-60.0,-19.0,66.0,-2.0,0
15.0,-253.0,-60.0,-14.0,67.0,0.0,0
13.0,-249.0,-63.0,-14.0,67.0,-4.0,0
16.0,-250.0,-58.0,-15.0,66.0,-1.0,0
18.0,-252.0,-64.0,-19.0,64.0,-3.0,0
14.0,-251.0,-63.0,-23.0,59.0,-2.0,0
15.0,-251.0,-60.0,-24.0,56.0,-4.0,0
18.0,-250.0,-62.0,-25.0,53.0,-1.0,0
18.0,-253.0,-60.0,-25.0,54.0,-4.0,0
14.0,-249.0,-61.0,-19.0,54.0,-2.0,0
16.0,-251.0,-59.0,-12.0,54.0,-5.0,0
16.0,-250.0,-58.0,-3.0,54.0,-2.0,0
17.0,-252.0,-59.0,2.0,52.0,-6.0,0
16.0,-247.0,-61.0,3.0,52.0,-5.0,0
17.0,-253.0,-63.0,-1.0,54.0,-8.0,0
19.0,-249.0,-59.0,-8.0,57.0,-5.0,0
16.0,-247.0,-61.0,-15.0,60.0,-6.0,0
16.0,-247.0,-58.0,-19.0,64.0,-3.0,0
20.0,-252.0,-59.0,-21.0,67.0,-6.0,0
19.0,-252.0,-59.0,-19.0,69.0,-4.0,0
15.0,-250.0,-60.0,-15.0,69.0,-6.0,0
15.0,-252.0,-59.0,-11.0,71.0,-5.0,0
19.0,-253.0,-60.0,-9.0,68.0,-6.0,0
14.0,-250.0,-60.0,-11.0,67.0,-4.0,0
16.0,-249.0,-58.0,-14.0,64.0,-5.0,0
16.0,-252.0,-59.0,-16.0,62.0,-2.0,0
16.0,-250.0,-61.0,-19.0,60.0,-4.0,0
16.0,-251.0,-61.0,-22.0,59.0,-2.0,0
16.0,-250.0,-64.0,-24.0,56.0,-3.0,0
15.0,-248.0,-60.0,-25.0,53.0,-1.0,0
15.0,-249.0,-58.0,-25.0,52.0,-3.0,0
17.0,-250.0,-60.0,-25.0,50.0,-1.0,0
18.0,-246.0,-67.0,-24.0,53.0,-1.0,0
18.0,-248.0,-68.0,-24.0,55.0,1.0,0
18.0,-250.0,-65.0,-26.0,55.0,-3.0,0
17.0,-248.0,-61.0,-27.0,55.0,-2.0,0
15.0,-249.0,-60.0,-29.0,55.0,-6.0,0
17.0,-250.0,-62.0,-29.0,57.0,-5.0,0
17.0,-250.0,-62.0,-29.0,59.0,-7.0,0
17.0,-250.0,-61.0,-27.0,63.0,-6.0,0
21.0,-254.0,-62.0,-24.0,64.0,-8.0,0
16.0,-249.0,-59.0,-21.0,66.0,-7.0,0
17.0,-251.0,-60.0,-20.0,69.0,-9.0,0
19.0,-250.0,-62.0,-17.0,74.0,-8.0,0
18.0,-251.0,-64.0,-16.0,76.0,-11.0,0
15.0,-251.0,-60.0,-17.0,78.0,-10.0,0
18.0,-250.0,-61.0,-18.0,78.0,-12.0,0
16.0,-251.0,-62.0,-19.0,77.0,-10.0,0
15.0,-249.0,-61.0,-22.0,76.0,-11.0,0
14.0,-247.0,-58.0,-24.0,75.0,-9.0,0
18.0,-252.0,-62.0,-24.0,74.0,-9.0,0
13.0,-247.0,-63.0,-21.0,73.0,-7.0,0
16.0,-250.0,-61.0,-20.0,73.0,-9.0,0
16.0,-251.0,-58.0,-19.0,70.0,-5.0,0
16.0,-248.0,-64.0,-20.0,68.0,-7.0,0
18.0,-248.0,-61.0,-21.0,66.0,-4.0,0
16.0,-249.0,-60.0,-20.0,64.0,-7.0,0
13.0,-247.0,-61.0,-20.0,63.0,-4.0,0
15.0,-250.0,-60.0,-21.0,64.0,-7.0,0
17.0,-252.0,-63.0,-22.0,67.0,-5.0,0
17.0,-251.0,-59.0,-21.0,69.0,-6.0,0
19.0,-251.0,-63.0,-19.0,72.0,-6.0,0
13.0,-250.0,-61.0,-16.0,72.0,-7.0,0
16.0,-251.0,-59.0,-13.0,75.0,-6.0,0
16.0,-249.0,-60.0,-12.0,76.0,-8.0,0
18.0,-251.0,-59.0,-14.0,78.0,-5.0,0
17.0,-251.0,-60.0,-14.0,78.0,-7.0,0
14.0,-249.0,-60.0,-18.0,77.0,-5.0,0
14.0,-251.0,-60.0,-19.0,74.0,-5.0,0
15.0,-252.0,-60.0,-22.0,74.0,-3.0,0
4.0,-251.0,-56.0,-23.0,72.0,-6.0,0
17.0,-251.0,-60.0,-21.0,70.0,-4.0,0
12.0,-248.0,-60.0,-21.0,69.0,-6.0,0
15.0,-251.0,-56.0,-17.0,66.0,-3.0,0
16.0,-252.0,-62.0,-14.0,66.0,-5.0,0
15.0,-252.0,-59.0,-15.0,67.0,-3.0,0
14.0,-247.0,-58.0,-14.0,67.0,-5.0,0
14.0,-251.0,-57.0,-15.0,67.0,-3.0,0
16.0,-248.0,-58.0,-17.0,65.0,-4.0,0
15.0,-250.0,-59.0,-19.0,62.0,-2.0,0
16.0,-248.0,-60.0,-22.0,62.0,-4.0,0
18.0,-248.0,-58.0,-25.0,61.0,-3.0,0
14.0,-250.0,-60.0,-30.0,60.0,-4.0,0
14.0,-247.0,-61.0,-33.0,59.0,-3.0,0
16.0,-250.0,-61.0,-32.0,60.0,-4.0,0
17.0,-252.0,-56.0,-31.0,60.0,-3.0,0
17.0,-253.0,-57.0,-31.0,59.0,-4.0,0
15.0,-253.0,-60.0,-30.0,59.0,-3.0,0
16.0,-254.0,-60.0,-26.0,61.0,-4.0,0
17.0,-254.0,-61.0,-24.0,62.0,-2.0,0
18.0,-251.0,-58.0,-22.0,59.0,-3.0,0
16.0,-253.0,-59.0,-22.0,56.0,-3.0,0
12.0,-249.0,-59.0,-21.0,56.0,-4.0,0
13.0,-250.0,-60.0,-19.0,54.0,-3.0,0
19.0,-253.0,-60.0,-19.0,54.0,-5.0,0
16.0,-250.0,-58.0,-15.0,54.0,-6.0,0
13.0,-250.0,-63.0,-11.0,55.0,-6.0,0
16.0,-250.0,-59.0,-6.0,56.0,-5.0,0
16.0,-252.0,-62.0,-6.0,58.0,-7.0,0
15.0,-249.0,-57.0,-7.0,57.0,-4.0,0
18.0,-249.0,-61.0,-8.0,57.0,-5.0,0
17.0,-250.0,-59.0,-9.0,59.0,-4.0,0
18.0,-251.0,-59.0,-8.0,61.0,-5.0,0
16.0,-251.0,-59.0,-6.0,60.0,-5.0,0
13.0,-252.0,-57.0,-3.0,57.0,-6.0,0
18.0,-254.0,-61.0,0.0,57.0,-5.0,0
14.0,-251.0,-64.0,0.0,58.0,-6.0,0
15.0,-248.0,-57.0,1.0,57.0,-4.0,0
17.0,-251.0,-58.0,2.0,57.0,-6.0,0
15.0,-248.0,-58.0,0.0,57.0,-4.0,0
17.0,-252.0,-57.0,-3.0,58.0,-6.0,0
20.0,-252.0,-56.0,-5.0,57.0,-3.0,0
16.0,-251.0,-57.0,-8.0,58.0,-4.0,0
18.0,-252.0,-59.0,-9.0,58.0,-4.0,0
16.0,-250.0,-55.0,-8.0,61.0,-4.0,0
18.0,-250.0,-58.0,-8.0,61.0,-2.0,0
20.0,-254.0,-57.0,-6.0,62.0,-5.0,0
16.0,-249.0,-59.0,-1.0,62.0,-3.0,0
18.0,-254.0,-59.0,3.0,64.0,-4.0,0
19.0,-248.0,-59.0,7.0,67.0,-3.0,0
16.0,-248.0,-60.0,9.0,66.0,-6.0,0
18.0,-252.0,-61.0,9.0,64.0,-6.0,0
14.0,-247.0,-59.0,6.0,61.0,-7.0,0
17.0,-250.0,-59.0,5.0,59.0,-7.0,0
16.0,-248.0,-63.0,4.0,60.0,-7.0,0
14.0,-250.0,-59.0,2.0,62.0,-5.0,0
16.0,-250.0,-62.0,3.0,60.0,-6.0,0
15.0,-249.0,-58.0,1.0,62.0,-4.0,0
16.0,-250.0,-61.0,1.0,62.0,-6.0,0
18.0,-251.0,-58.0,0.0,64.0,-3.0,0
17.0,-252.0,-59.0,0.0,65.0,-4.0,0
18.0,-250.0,-59.0,0.0,66.0,-3.0,0
18.0,-251.0,-56.0,2.0,67.0,-4.0,0
18.0,-252.0,-59.0,5.0,67.0,-4.0,0
19.0,-248.0,-59.0,5.0,68.0,-5.0,0
18.0,-249.0,-60.0,3.0,69.0,-4.0,0
17.0,-251.0,-57.0,0.0,70.0,-5.0,0
17.0,-249.0,-58.0,-4.0,69.0,-3.0,0
21.0,-252.0,-59.0,-6.0,68.0,-4.0,0
17.0,-250.0,-62.0,-6.0,66.0,-1.0,0
16.0,-251.0,-58.0,-2.0,65.0,-3.0,0
18.0,-250.0,-59.0,0.0,63.0,-1.0,0
17.0,-251.0,-58.0,1.0,62.0,-3.0,0
15.0,-252.0,-62.0,2.0,58.0,-1.0,0
14.0,-246.0,-58.0,0.0,55.0,-2.0,0
17.0,-250.0,-58.0,-4.0,52.0,-2.0,0
19.0,-251.0,-59.0,-7.0,52.0,-4.0,0
13.0,-250.0,-61.0,-8.0,54.0,-4.0,0
16.0,-249.0,-59.0,-6.0,56.0,-6.0,0
15.0,-249.0,-58.0,-2.0,58.0,-5.0,0
17.0,-249.0,-57.0,1.0,59.0,-7.0,0
18.0,-252.0,-57.0,4.0,60.0,-7.0,0
18.0,-247.0,-60.0,6.0,60.0,-9.0,0
17.0,-252.0,-57.0,6.0,59.0,-8.0,0
17.0,-252.0,-59.0,4.0,57.0,-9.0,0
15.0,-251.0,-61.0,-1.0,56.0,-8.0,0
15.0,-250.0,-57.0,-8.0,56.0,-9.0,0
17.0,-252.0,-57.0,-13.0,56.0,-8.0,0
16.0,-252.0,-58.0,-17.0,57.0,-9.0,0
15.0,-250.0,-60.0,-15.0,56.0,-6.0,0
15.0,-253.0,-60.0,-9.0,55.0,-7.0,0
15.0,-253.0,-59.0,-4.0,55.0,-6.0,0
16.0,-252.0,-62.0,3.0,53.0,-8.0,0
16.0,-249.0,-60.0,7.0,49.0,-8.0,0
17.0,-249.0,-60.0,10.0,47.0,-9.0,0
19.0,-249.0,-58.0,6.0,46.0,-8.0,0
15.0,-247.0,-63.0,0.0,47.0,-8.0,0
15.0,-248.0,-65.0,-7.0,50.0,-8.0,0
17.0,-250.0,-59.0,-12.0,51.0,-9.0,0
18.0,-250.0,-59.0,-15.0,49.0,-9.0,0
16.0,-249.0,-58.0,-14.0,51.0,-11.0,0
16.0,-249.0,-58.0,-14.0,54.0,-8.0,0
20.0,-254.0,-57.0,-9.0,56.0,-9.0,0
19.0,-253.0,-59.0,-4.0,58.0,-7.0,0
18.0,-255.0,-57.0,1.0,59.0,-7.0,0
18.0,-251.0,-63.0,6.0,60.0,-7.0,0
16.0,-249.0,-61.0,9.0,61.0,-8.0,0
16.0,-251.0,-57.0,9.0,61.0,-7.0,0
17.0,-250.0,-59.0,7.0,60.0,-6.0,0
15.0,-249.0,-60.0,5.0,59.0,-3.0,0
18.0,-252.0,-55.0,1.0,60.0,-4.0,0
17.0,-251.0,-57.0,-3.0,60.0,-1.0,0
16.0,-253.0,-56.0,-4.0,59.0,-2.0,0
15.0,-252.0,-56.0,-4.0,58.0,-1.0,0
14.0,-252.0,-61.0,-3.0,58.0,-2.0,0
16.0,-251.0,-57.0,2.0,58.0,-1.0,0
17.0,-250.0,-59.0,7.0,60.0,-2.0,0
18.0,-252.0,-57.0,11.0,64.0,-1.0,0
16.0,-249.0,-59.0,14.0,66.0,-1.0,0
16.0,-249.0,-58.0,13.0,68.0,-1.0,0
19.0,-252.0,-59.0,12.0,66.0,-2.0,0
17.0,-251.0,-57.0,14.0,65.0,-2.0,0
17.0,-248.0,-56.0,13.0,65.0,-5.0,0
18.0,-248.0,-59.0,11.0,67.0,-7.0,0
16.0,-249.0,-57.0,8.0,67.0,-8.0,0
13.0,-245.0,-58.0,7.0,66.0,-8.0,0
16.0,-251.0,-58.0,4.0,65.0,-10.0,0
16.0,-251.0,-55.0,3.0,66.0,-9.0,0
17.0,-250.0,-57.0,-1.0,67.0,-10.0,0
18.0,-254.0,-60.0,-3.0,68.0,-10.0,0
17.0,-252.0,-56.0,-4.0,68.0,-11.0,0
15.0,-251.0,-58.0,-4.0,69.0,-10.0,0
14.0,-250.0,-57.0,-4.0,67.0,-12.0,0
16.0,-249.0,-59.0,-5.0,65.0,-11.0,0
17.0,-250.0,-56.0,-8.0,64.0,-12.0,0
13.0,-252.0,-58.0,-10.0,61.0,-11.0,0
16.0,-250.0,-58.0,-10.0,56.0,-12.0,0
19.0,-251.0,-59.0,-8.0,53.0,-13.0,0
18.0,-251.0,-57.0,-8.0,52.0,-13.0,0
16.0,-247.0,-57.0,-11.0,50.0,-14.0,0
14.0,-248.0,-57.0,-12.0,49.0,-15.0,0
18.0,-248.0,-58.0,-14.0,51.0,-15.0,0
16.0,-251.0,-57.0,-15.0,52.0,-18.0,0
16.0,-249.0,-56.0,-16.0,52.0,-19.0,0
15.0,-249.0,-61.0,-19.0,58.0,-21.0,0
18.0,-250.0,-57.0,-22.0,60.0,-22.0,0
17.0,-252.0,-57.0,-24.0,64.0,-24.0,0
18.0,-249.0,-57.0,-24.0,68.0,-22.0,0
19.0,-251.0,-60.0,-22.0,69.0,-23.0,0
18.0,-252.0,-59.0,-21.0,73.0,-23.0,0
19.0,-252.0,-56.0,-20.0,73.0,-22.0,0
18.0,-251.0,-56.0,-19.0,73.0,-20.0,0
19.0,-253.0,-58.0,-23.0,71.0,-20.0,0
17.0,-251.0,-55.0,-28.0,70.0,-16.0,0
18.0,-253.0,-61.0,-32.0,68.0,-13.0,0
14.0,-252.0,-58.0,-31.0,67.0,-11.0,0
19.0,-251.0,-56.0,-31.0,68.0,-9.0,0
14.0,-252.0,-55.0,-27.0,67.0,-8.0,0
19.0,-252.0,-55.0,-23.0,65.0,-7.0,0
14.0,-251.0,-60.0,-19.0,66.0,-6.0,0
18.0,-252.0,-54.0,-16.0,65.0,-7.0,0
14.0,-250.0,-57.0,-17.0,64.0,-7.0,0
18.0,-249.0,-58.0,-15.0,64.0,-7.0,0
15.0,-250.0,-57.0,-16.0,62.0,-8.0,0
18.0,-251.0,-58.0,-18.0,62.0,-9.0,0
15.0,-249.0,-61.0,-21.0,60.0,-8.0,0
12.0,-249.0,-58.0,-24.0,60.0,-9.0,0
15.0,-253.0,-58.0,-26.0,59.0,-8.0,0
15.0,-253.0,-56.0,-26.0,60.0,-8.0,0
19.0,-252.0,-57.0,-27.0,63.0,-7.0,0
18.0,-252.0,-55.0,-26.0,63.0,-7.0,0
17.0,-255.0,-55.0,-25.0,64.0,-7.0,0
15.0,-251.0,-55.0,-23.0,64.0,-7.0,0
17.0,-252.0,-55.0,-18.0,65.0,-8.0,0
19.0,-253.0,-54.0,-14.0,68.0,-10.0,0
19.0,-251.0,-56.0,-9.0,71.0,-8.0,0
17.0,-248.0,-54.0,-5.0,71.0,-10.0,0
19.0,-248.0,-53.0,-4.0,71.0,-12.0,0
17.0,-248.0,-57.0,-5.0,70.0,-13.0,0
21.0,-251.0,-57.0,-7.0,68.0,-14.0,0
18.0,-250.0,-56.0,-10.0,68.0,-13.0,0
19.0,-250.0,-57.0,-12.0,67.0,-15.0,0
20.0,-249.0,-55.0,-11.0,68.0,-14.0,0
19.0,-252.0,-53.0,-8.0,68.0,-13.0,0
22.0,-254.0,-55.0,-1.0,69.0,-13.0,0
17.0,-251.0,-55.0,3.0,69.0,-12.0,0
18.0,-255.0,-57.0,7.0,69.0,-12.0,0
19.0,-252.0,-57.0,8.0,67.0,-10.0,0
17.0,-252.0,-56.0,8.0,67.0,-11.0,0
14.0,-252.0,-57.0,6.0,67.0,-11.0,0
16.0,-250.0,-59.0,4.0,66.0,-10.0,0
16.0,-251.0,-54.0,3.0,65.0,-8.0,0
18.0,-250.0,-55.0,2.0,63.0,-6.0,0
15.0,-253.0,-56.0,1.0,61.0,-5.0,0
18.0,-251.0,-54.0,2.0,59.0,-3.0,0
17.0,-251.0,-55.0,7.0,58.0,-1.0,0
15.0,-252.0,-59.0,11.0,56.0,-1.0,0
18.0,-249.0,-57.0,13.0,54.0,-2.0,0
18.0,-252.0,-56.0,13.0,49.0,-2.0,0
17.0,-251.0,-60.0,11.0,47.0,-4.0,0
18.0,-248.0,-57.0,5.0,47.0,-7.0,0
18.0,-248.0,-60.0,0.0,48.0,-8.0,0
19.0,-250.0,-57.0,-5.0,50.0,-8.0,0
17.0,-252.0,-60.0,-9.0,52.0,-8.0,0
18.0,-254.0,-59.0,-10.0,55.0,-7.0,0
20.0,-256.0,-55.0,-11.0,55.0,-5.0,0
16.0,-255.0,-56.0,-7.0,56.0,-6.0,0
17.0,-255.0,-57.0,0.0,55.0,-3.0,0
21.0,-256.0,-56.0,6.0,53.0,-5.0,0
18.0,-250.0,-56.0,11.0,53.0,-4.0,0
19.0,-254.0,-57.0,16.0,52.0,-5.0,0
16.0,-253.0,-57.0,15.0,52.0,-7.0,0
20.0,-250.0,-64.0,12.0,51.0,-6.0,0
14.0,-251.0,-55.0,9.0,51.0,-7.0,0
19.0,-251.0,-58.0,7.0,53.0,-7.0,0
19.0,-252.0,-56.0,6.0,57.0,-5.0,0
18.0,-248.0,-56.0,10.0,58.0,-6.0,0
19.0,-252.0,-56.0,14.0,58.0,-3.0,0
18.0,-249.0,-54.0,19.0,58.0,-4.0,0
18.0,-250.0,-58.0,23.0,57.0,-3.0,0
17.0,-244.0,-57.0,27.0,56.0,-4.0,0
21.0,-248.0,-57.0,25.0,56.0,-6.0,0
16.0,-246.0,-62.0,21.0,56.0,-8.0,0
16.0,-246.0,-59.0,14.0,56.0,-11.0,0
19.0,-245.0,-60.0,5.0,53.0,-12.0,0
16.0,-247.0,-59.0,-4.0,54.0,-12.0,0
17.0,-248.0,-56.0,-14.0,59.0,-13.0,0
18.0,-251.0,-58.0,-17.0,63.0,-11.0,0
21.0,-253.0,-56.0,-17.0,66.0,-8.0,0
18.0,-253.0,-56.0,-18.0,67.0,-7.0,0
18.0,-253.0,-61.0,-18.0,68.0,-7.0,0
19.0,-252.0,-56.0,-17.0,68.0,-6.0,0
16.0,-252.0,-57.0,-12.0,68.0,-6.0,0
15.0,-248.0,-54.0,-9.0,68.0,-5.0,0
18.0,-250.0,-59.0,-7.0,67.0,-5.0,0
17.0,-250.0,-60.0,-5.0,68.0,-6.0,0
18.0,-252.0,-57.0,-2.0,70.0,-5.0,0
19.0,-252.0,-58.0,-1.0,71.0,-3.0,0
14.0,-250.0,-56.0,1.0,72.0,-4.0,0
17.0,-249.0,-55.0,-1.0,73.0,-3.0,0
18.0,-251.0,-58.0,-4.0,71.0,-3.0,0
17.0,-247.0,-55.0,-6.0,70.0,-3.0,0
20.0,-250.0,-57.0,-8.0,69.0,-4.0,0
20.0,-249.0,-58.0,-9.0,69.0,-5.0,0
18.0,-251.0,-57.0,-9.0,69.0,-5.0,0
20.0,-248.0,-59.0,-9.0,68.0,-6.0,0
16.0,-249.0,-58.0,-10.0,66.0,-7.0,0
15.0,-248.0,-60.0,-9.0,68.0,-6.0,0
14.0,-250.0,-57.0,-7.0,66.0,-8.0,0
14.0,-248.0,-58.0,-9.0,66.0,-7.0,0
17.0,-250.0,-60.0,-12.0,66.0,-8.0,0
18.0,-251.0,-54.0,-13.0,66.0,-8.0,0
18.0,-251.0,-57.0,-14.0,67.0,-6.0,0
18.0,-251.0,-55.0,-10.0,66.0,-6.0,0
17.0,-255.0,-59.0,-8.0,65.0,-4.0,0
15.0,-255.0,-56.0,-4.0,64.0,-5.0,0
17.0,-253.0,-62.0,0.0,66.0,-1.0,0
16.0,-255.0,-53.0,3.0,65.0,-1.0,0
18.0,-256.0,-55.0,10.0,68.0,1.0,0
18.0,-255.0,-53.0,15.0,66.0,1.0,0
19.0,-249.0,-57.0,17.0,67.0,2.0,0
19.0,-250.0,-57.0,17.0,67.0,1.0,0
16.0,-251.0,-55.0,14.0,67.0,1.0,0
17.0,-249.0,-57.0,13.0,67.0,-1.0,0
17.0,-249.0,-57.0,9.0,65.0,-2.0,0
16.0,-251.0,-57.0,7.0,64.0,-4.0,0
18.0,-248.0,-60.0,4.0,64.0,-5.0,0
16.0,-249.0,-61.0,0.0,64.0,-7.0,0
19.0,-249.0,-60.0,-3.0,64.0,-8.0,0
16.0,-249.0,-58.0,-4.0,65.0,-8.0,0
14.0,-249.0,-61.0,-5.0,66.0,-6.0,0
13.0,-250.0,-54.0,-7.0,65.0,-4.0,0
14.0,-252.0,-57.0,-7.0,65.0,-4.0,0
16.0,-254.0,-58.0,-6.0,67.0,-2.0,0
16.0,-253.0,-58.0,-3.0,65.0,-1.0,0
18.0,-254.0,-57.0,-1.0,65.0,0.0,0
18.0,-253.0,-57.0,3.0,63.0,3.0,0
19.0,-255.0,-58.0,5.0,64.0,6.0,0
17.0,-255.0,-57.0,6.0,60.0,7.0,0
18.0,-249.0,-57.0,7.0,57.0,7.0,0
18.0,-252.0,-59.0,10.0,56.0,9.0,0
17.0,-253.0,-60.0,12.0,57.0,8.0,0
18.0,-251.0,-58.0,12.0,56.0,8.0,0
14.0,-247.0,-58.0,11.0,55.0,7.0,0
14.0,-251.0,-61.0,9.0,54.0,6.0,0
17.0,-247.0,-59.0,8.0,52.0,1.0,0
15.0,-248.0,-63.0,5.0,49.0,0.0,0
15.0,-251.0,-59.0,3.0,49.0,-3.0,0
16.0,-253.0,-61.0,0.0,46.0,-6.0,0
14.0,-251.0,-59.0,-2.0,45.0,-8.0,0
19.0,-251.0,-60.0,-1.0,41.0,-9.0,0
16.0,-249.0,-61.0,0.0,42.0,-10.0,0
16.0,-254.0,-57.0,2.0,43.0,-11.0,0
16.0,-252.0,-62.0,6.0,44.0,-11.0,0
15.0,-253.0,-58.0,6.0,44.0,-9.0,0
16.0,-251.0,-57.0,6.0,43.0,-10.0,0
14.0,-252.0,-62.0,8.0,42.0,-8.0,0
17.0,-251.0,-56.0,10.0,40.0,-7.0,0
16.0,-252.0,-58.0,12.0,38.0,-4.0,0
14.0,-253.0,-60.0,11.0,33.0,-2.0,0
15.0,-253.0,-61.0,12.0,32.0,-2.0,0
17.0,-250.0,-63.0,17.0,32.0,-3.0,0
18.0,-251.0,-62.0,19.0,31.0,0.0,0
17.0,-254.0,-61.0,20.0,29.0,0.0,0
16.0,-250.0,-56.0,19.0,26.0,-1.0,0
17.0,-250.0,-58.0,18.0,27.0,0.0,0
17.0,-253.0,-60.0,20.0,27.0,0.0,0
18.0,-253.0,-59.0,20.0,28.0,-2.0,0
18.0,-252.0,-62.0,22.0,28.0,-4.0,0
18.0,-251.0,-61.0,22.0,28.0,-5.0,0
15.0,-251.0,-61.0,23.0,29.0,-6.0,0
17.0,-248.0,-64.0,23.0,32.0,-7.0,0
13.0,-246.0,-65.0,21.0,33.0,-7.0,0
17.0,-248.0,-61.0,16.0,33.0,-6.0,0
15.0,-249.0,-61.0,9.0,33.0,-6.0,0
17.0,-247.0,-63.0,3.0,33.0,-7.0,0
19.0,-250.0,-63.0,-2.0,34.0,-5.0,0
14.0,-247.0,-58.0,-5.0,36.0,-5.0,0
16.0,-250.0,-64.0,-10.0,39.0,-3.0,0
16.0,-249.0,-59.0,-14.0,41.0,-5.0,0
13.0,-250.0,-66.0,-16.0,42.0,-5.0,0
17.0,-253.0,-65.0,-17.0,42.0,-5.0,0
15.0,-252.0,-68.0,-20.0,44.0,-4.0,0
13.0,-253.0,-70.0,-19.0,43.0,-8.0,0
16.0,-256.0,-72.0,-19.0,40.0,-8.0,0
15.0,-255.0,-75.0,-19.0,38.0,-12.0,0
16.0,-258.0,-78.0,-18.0,39.0,-13.0,0
14.0,-255.0,-79.0,-20.0,39.0,-15.0,0
13.0,-257.0,-84.0,-26.0,39.0,-15.0,0
11.0,-253.0,-86.0,-37.0,32.0,-16.0,0
13.0,-254.0,-94.0,-46.0,16.0,-16.0,0
14.0,-253.0,-96.0,-54.0,-9.0,-17.0,0
11.0,-248.0,-107.0,-55.0,-34.0,-20.0,0
11.0,-244.0,-116.0,-60.0,-57.0,-22.0,0
10.0,-241.0,-120.0,-74.0,-72.0,-22.0,0
9.0,-236.0,-122.0,-95.0,-79.0,-21.0,0
10.0,-235.0,-124.0,-120.0,-74.0,-14.0,0
9.0,-229.0,-127.0,-155.0,-60.0,-9.0,0
6.0,-230.0,-132.0,-195.0,-41.0,0.0,0
6.0,-223.0,-128.0,-233.0,-23.0,4.0,0
5.0,-223.0,-130.0,-264.0,-13.0,8.0,0
7.0,-220.0,-129.0,-283.0,-15.0,7.0,0
9.0,-214.0,-132.0,-291.0,-23.0,5.0,0
8.0,-210.0,-137.0,-300.0,-33.0,5.0,0
9.0,-204.0,-139.0,-313.0,-40.0,9.0,0
10.0,-197.0,-140.0,-333.0,-37.0,16.0,0
12.0,-193.0,-144.0,-355.0,-26.0,26.0,0
13.0,-186.0,-151.0,-383.0,-6.0,35.0,0
15.0,-178.0,-157.0,-416.0,13.0,44.0,0
17.0,-171.0,-163.0,-452.0,24.0,53.0,0
17.0,-161.0,-170.0,-491.0,21.0,64.0,0
14.0,-149.0,-172.0,-531.0,6.0,74.0,0
16.0,-141.0,-176.0,-579.0,-12.0,83.0,0
14.0,-137.0,-180.0,-624.0,-27.0,89.0,0
13.0,-129.0,-182.0,-675.0,-33.0,94.0,0
8.0,-119.0,-183.0,-726.0,-36.0,99.0,0
7.0,-110.0,-185.0,-777.0,-33.0,119.0,0
7.0,-100.0,-186.0,-826.0,-26.0,139.0,0
6.0,-91.0,-182.0,-871.0,-8.0,153.0,0
10.0,-73.0,-184.0,-910.0,16.0,158.0,0
3.0,-72.0,-171.0,-947.0,38.0,166.0,0
0.0,-62.0,-164.0,-983.0,57.0,190.0,0
3.0,-50.0,-157.0,-1019.0,82.0,225.0,0
7.0,-37.0,-142.0,-1048.0,113.0,252.0,0
19.0,-29.0,-126.0,-1059.0,157.0,262.0,0
21.0,-14.0,-105.0,-1054.0,205.0,252.0,0
22.0,-4.0,-89.0,-1033.0,241.0,240.0,0
27.0,4.0,-73.0,-1017.0,265.0,222.0,0
25.0,13.0,-68.0,-1015.0,286.0,203.0,0
26.0,21.0,-54.0,-1032.0,310.0,191.0,0
27.0,23.0,-45.0,-1056.0,331.0,176.0,0
28.0,15.0,-33.0,-1075.0,356.0,148.0,0
13.0,11.0,-21.0,-1073.0,397.0,111.0,0
1.0,8.0,-1.0,-1069.0,421.0,99.0,0
-5.0,-6.0,9.0,-1052.0,420.0,118.0,0
3.0,-24.0,14.0,-1016.0,406.0,142.0,0
5.0,-34.0,13.0,-971.0,388.0,156.0,0
6.0,-53.0,11.0,-927.0,372.0,158.0,0
4.0,-67.0,6.0,-904.0,352.0,156.0,0
-2.0,-81.0,-2.0,-886.0,327.0,145.0,0
2.0,-101.0,-11.0,-857.0,295.0,140.0,0
10.0,-119.0,-27.0,-801.0,261.0,131.0,0
17.0,-131.0,-39.0,-738.0,224.0,112.0,0
15.0,-138.0,-52.0,-682.0,184.0,84.0,0
14.0,-145.0,-63.0,-639.0,165.0,57.0,0
13.0,-155.0,-80.0,-581.0,153.0,29.0,0
3.0,-162.0,-99.0,-521.0,126.0,-3.0,0
-7.0,-163.0,-112.0,-462.0,88.0,-31.0,0
-15.0,-166.0,-122.0,-405.0,49.0,-34.0,0
-23.0,-168.0,-127.0,-361.0,15.0,-19.0,0
-28.0,-169.0,-112.0,-329.0,-1.0,15.0,0
-34.0,-176.0,-100.0,-295.0,-13.0,54.0,0
-31.0,-183.0,-83.0,-255.0,-20.0,94.0,0
-33.0,-185.0,-68.0,-218.0,-34.0,119.0,0
-35.0,-192.0,-66.0,-189.0,-36.0,126.0,0
-29.0,-198.0,-62.0,-190.0,-19.0,121.0,0
-12.0,-211.0,-65.0,-202.0,16.0,113.0,0
5.0,-231.0,-75.0,-202.0,63.0,84.0,0
14.0,-243.0,-94.0,-206.0,104.0,34.0,0
18.0,-260.0,-107.0,-238.0,128.0,-21.0,0
11.0,-275.0,-113.0,-288.0,134.0,-64.0,0
14.0,-289.0,-121.0,-303.0,125.0,-101.0,0
19.0,-299.0,-145.0,-299.0,93.0,-117.0,0
35.0,-302.0,-150.0,-314.0,60.0,-126.0,0
41.0,-316.0,-141.0,-337.0,17.0,-123.0,0
54.0,-328.0,-141.0,-307.0,-19.0,-118.0,0
61.0,-337.0,-138.0,-229.0,-23.0,-132.0,0
57.0,-346.0,-131.0,-130.0,-7.0,-164.0,0
54.0,-361.0,-126.0,-22.0,3.0,-208.0,0
39.0,-371.0,-127.0,93.0,8.0,-274.0,0
14.0,-373.0,-124.0,207.0,7.0,-329.0,0
3.0,-376.0,-133.0,297.0,-7.0,-359.0,0
-3.0,-378.0,-144.0,365.0,-8.0,-364.0,0
-8.0,-381.0,-135.0,404.0,6.0,-352.0,0
-4.0,-385.0,-131.0,428.0,39.0,-298.0,0
-11.0,-375.0,-135.0,453.0,56.0,-234.0,0
-9.0,-368.0,-137.0,478.0,60.0,-173.0,0
-7.0,-361.0,-126.0,522.0,55.0,-120.0,0
1.0,-356.0,-108.0,588.0,50.0,-74.0,0
2.0,-347.0,-91.0,663.0,38.0,-45.0,0
11.0,-348.0,-75.0,740.0,18.0,-28.0,0
14.0,-344.0,-67.0,816.0,-16.0,-24.0,0
21.0,-343.0,-62.0,891.0,-53.0,-27.0,0
25.0,-340.0,-54.0,959.0,-88.0,-47.0,0
26.0,-334.0,-55.0,1019.0,-124.0,-68.0,0
28.0,-324.0,-54.0,1088.0,-151.0,-87.0,0
29.0,-313.0,-59.0,1124.0,-167.0,-97.0,0
33.0,-304.0,-66.0,1133.0,-158.0,-103.0,0
40.0,-291.0,-69.0,1106.0,-132.0,-114.0,0
40.0,-284.0,-64.0,1044.0,-90.0,-121.0,0
38.0,-286.0,-59.0,959.0,-55.0,-128.0,0
43.0,-293.0,-57.0,883.0,-26.0,-137.0,0
41.0,-301.0,-54.0,833.0,2.0,-147.0,0
45.0,-319.0,-50.0,816.0,26.0,-170.0,0
47.0,-334.0,-48.0,832.0,56.0,-181.0,0
46.0,-349.0,-42.0,866.0,78.0,-190.0,0
48.0,-361.0,-38.0,940.0,98.0,-192.0,0
47.0,-365.0,-35.0,1015.0,121.0,-203.0,0
44.0,-373.0,-33.0,1109.0,141.0,-218.0,0
37.0,-370.0,-39.0,1196.0,149.0,-215.0,0
39.0,-368.0,-42.0,1261.0,139.0,-200.0,0
37.0,-365.0,-55.0,1303.0,117.0,-195.0,0
37.0,-361.0,-59.0,1324.0,90.0,-191.0,0
25.0,-358.0,-67.0,1339.0,62.0,-200.0,0
26.0,-361.0,-67.0,1344.0,37.0,-188.0,0
25.0,-355.0,-65.0,1343.0,12.0,-176.0,0
26.0,-353.0,-66.0,1344.0,-7.0,-166.0,0
24.0,-347.0,-70.0,1348.0,-10.0,-150.0,0
20.0,-342.0,-68.0,1351.0,2.0,-132.0,0
20.0,-337.0,-67.0,1344.0,18.0,-114.0,0
24.0,-333.0,-64.0,1333.0,33.0,-90.0,0
29.0,-333.0,-58.0,1319.0,49.0,-67.0,0
25.0,-338.0,-55.0,1311.0,62.0,-49.0,0
24.0,-345.0,-55.0,1320.0,70.0,-38.0,0
25.0,-349.0,-51.0,1340.0,70.0,-29.0,0
24.0,-364.0,-45.0,1372.0,69.0,-26.0,0
31.0,-380.0,-38.0,1422.0,63.0,-28.0,0
35.0,-396.0,-39.0,1511.0,53.0,-40.0,0
41.0,-420.0,-36.0,1612.0,59.0,-56.0,0
44.0,-453.0,-20.0,1735.0,80.0,-69.0,0
47.0,-509.0,0.0,1886.0,108.0,-85.0,0
50.0,-551.0,-13.0,2073.0,128.0,-115.0,0
27.0,-567.0,-55.0,2264.0,112.0,-166.0,0
28.0,-565.0,-94.0,2337.0,61.0,-195.0,0
13.0,-546.0,-118.0,2252.0,8.0,-228.0,0
-4.0,-522.0,-119.0,2035.0,-38.0,-213.0,0
-4.0,-499.0,-104.0,1758.0,-62.0,-131.0,0
-5.0,-468.0,-91.0,1419.0,-52.0,-41.0,0
0.0,-426.0,-71.0,1177.0,-1.0,41.0,0
-2.0,-379.0,-41.0,1001.0,73.0,88.0,0
1.0,-315.0,-16.0,873.0,155.0,131.0,0
-5.0,-262.0,-11.0,727.0,202.0,152.0,0
-12.0,-203.0,-5.0,487.0,199.0,131.0,0
-19.0,-145.0,-5.0,180.0,167.0,96.0,0
-6.0,-100.0,-19.0,-149.0,130.0,92.0,0
16.0,-80.0,-16.0,-506.0,103.0,95.0,0
37.0,-85.0,13.0,-872.0,96.0,99.0,0
48.0,-123.0,47.0,-1171.0,110.0,90.0,0
47.0,-173.0,65.0,-1324.0,145.0,68.0,0
43.0,-211.0,71.0,-1248.0,201.0,43.0,0
36.0,-242.0,76.0,-1024.0,258.0,32.0,0
28.0,-243.0,105.0,-671.0,290.0,26.0,0
27.0,-245.0,121.0,-209.0,301.0,19.0,0
28.0,-252.0,108.0,316.0,301.0,-3.0,0
28.0,-260.0,75.0,838.0,286.0,-24.0,0
34.0,-265.0,31.0,1311.0,257.0,-45.0,0
33.0,-253.0,-9.0,1685.0,211.0,-72.0,0
34.0,-241.0,-19.0,1910.0,162.0,-122.0,0
32.0,-223.0,-25.0,1986.0,141.0,-154.0,0
23.0,-215.0,-12.0,1952.0,141.0,-176.0,0
21.0,-211.0,11.0,1899.0,148.0,-178.0,0
18.0,-221.0,34.0,1856.0,155.0,-177.0,0
19.0,-231.0,51.0,1840.0,160.0,-170.0,0
26.0,-246.0,61.0,1844.0,154.0,-167.0,0
30.0,-265.0,64.0,1848.0,143.0,-161.0,0
39.0,-281.0,59.0,1842.0,129.0,-162.0,0
45.0,-303.0,51.0,1823.0,117.0,-171.0,0
44.0,-318.0,55.0,1782.0,110.0,-188.0,0
42.0,-324.0,58.0,1681.0,111.0,-195.0,0
39.0,-317.0,60.0,1553.0,119.0,-197.0,0
33.0,-299.0,52.0,1389.0,136.0,-184.0,0
26.0,-279.0,50.0,1215.0,176.0,-158.0,0
25.0,-265.0,54.0,1060.0,231.0,-126.0,0
19.0,-258.0,55.0,935.0,275.0,-99.0,0
13.0,-254.0,63.0,846.0,300.0,-69.0,0
8.0,-255.0,63.0,810.0,304.0,-44.0,0
1.0,-256.0,56.0,832.0,299.0,-13.0,0
-3.0,-256.0,45.0,892.0,286.0,11.0,0
-8.0,-247.0,39.0,957.0,270.0,38.0,0
-12.0,-231.0,41.0,995.0,265.0,56.0,0
-12.0,-224.0,46.0,974.0,272.0,81.0,0
-9.0,-215.0,49.0,916.0,273.0,94.0,0
-6.0,-207.0,56.0,826.0,254.0,98.0,0
-2.0,-203.0,57.0,719.0,221.0,94.0,0
6.0,-198.0,59.0,621.0,194.0,91.0,0
11.0,-193.0,65.0,548.0,187.0,83.0,0
17.0,-187.0,60.0,499.0,185.0,85.0,0
24.0,-188.0,59.0,463.0,171.0,86.0,0
25.0,-190.0,63.0,427.0,154.0,68.0,0
21.0,-190.0,68.0,392.0,133.0,39.0,0
21.0,-198.0,71.0,371.0,116.0,15.0,0
19.0,-208.0,72.0,358.0,109.0,-4.0,0
24.0,-220.0,71.0,348.0,113.0,-11.0,0
26.0,-234.0,81.0,348.0,128.0,-17.0,0
29.0,-245.0,90.0,357.0,144.0,-13.0,0
32.0,-251.0,96.0,372.0,155.0,-7.0,0
38.0,-259.0,101.0,392.0,165.0,3.0,0
40.0,-265.0,99.0,428.0,170.0,5.0,0
39.0,-264.0,95.0,477.0,174.0,12.0,0
41.0,-260.0,89.0,536.0,175.0,15.0,0
36.0,-254.0,86.0,592.0,171.0,20.0,0
36.0,-244.0,85.0,617.0,163.0,21.0,0
31.0,-228.0,85.0,614.0,147.0,22.0,0
30.0,-221.0,89.0,595.0,129.0,19.0,0
30.0,-211.0,84.0,573.0,119.0,17.0,0
33.0,-209.0,83.0,552.0,121.0,11.0,0
27.0,-198.0,75.0,530.0,129.0,6.0,0
24.0,-197.0,72.0,498.0,144.0,-2.0,0
26.0,-197.0,73.0,449.0,159.0,0.0,0
24.0,-201.0,77.0,397.0,173.0,0.0,0
27.0,-207.0,81.0,346.0,179.0,0.0,0
28.0,-213.0,84.0,319.0,176.0,-6.0,0
25.0,-219.0,87.0,302.0,167.0,-13.0,0
26.0,-228.0,92.0,295.0,154.0,-22.0,0
25.0,-229.0,87.0,296.0,143.0,-23.0,0
30.0,-237.0,87.0,299.0,140.0,-26.0,0
28.0,-238.0,86.0,300.0,143.0,-25.0,0
28.0,-240.0,87.0,303.0,149.0,-25.0,0
27.0,-239.0,87.0,307.0,155.0,-20.0,0
23.0,-238.0,81.0,313.0,157.0,-15.0,0
25.0,-233.0,84.0,318.0,157.0,-4.0,0
25.0,-233.0,81.0,318.0,157.0,0.0,0
25.0,-226.0,82.0,304.0,159.0,6.0,0
24.0,-223.0,87.0,281.0,160.0,10.0,0
23.0,-221.0,91.0,253.0,160.0,18.0,0
23.0,-222.0,89.0,223.0,160.0,22.0,0
25.0,-223.0,87.0,201.0,160.0,26.0,0
23.0,-225.0,86.0,189.0,158.0,26.0,0
26.0,-227.0,85.0,184.0,151.0,26.0,0
26.0,-229.0,83.0,180.0,143.0,17.0,0
26.0,-228.0,82.0,175.0,132.0,8.0,0
24.0,-230.0,80.0,167.0,123.0,-5.0,0
24.0,-229.0,79.0,159.0,112.0,-10.0,0
20.0,-234.0,76.0,158.0,107.0,-14.0,0
20.0,-234.0,77.0,162.0,107.0,-13.0,0
21.0,-234.0,75.0,171.0,106.0,-15.0,0
19.0,-234.0,75.0,178.0,104.0,-13.0,0
15.0,-228.0,80.0,179.0,99.0,-13.0,0
15.0,-227.0,82.0,170.0,91.0,-7.0,0
14.0,-228.0,81.0,152.0,84.0,-2.0,0
12.0,-229.0,81.0,130.0,86.0,12.0,0
15.0,-228.0,78.0,111.0,92.0,21.0,0
15.0,-227.0,74.0,102.0,94.0,31.0,0
18.0,-232.0,72.0,96.0,92.0,36.0,0
21.0,-234.0,73.0,94.0,82.0,41.0,0
22.0,-237.0,78.0,97.0,73.0,39.0,0
24.0,-239.0,80.0,100.0,63.0,41.0,0
22.0,-237.0,78.0,108.0,55.0,37.0,0
23.0,-239.0,80.0,117.0,51.0,35.0,0
25.0,-239.0,81.0,125.0,51.0,32.0,0
24.0,-235.0,77.0,135.0,51.0,31.0,0
25.0,-239.0,80.0,143.0,49.0,26.0,0
24.0,-234.0,79.0,146.0,43.0,26.0,0
18.0,-230.0,82.0,144.0,39.0,26.0,0
16.0,-231.0,81.0,141.0,34.0,29.0,0
17.0,-231.0,79.0,137.0,31.0,28.0,0
17.0,-229.0,79.0,133.0,29.0,31.0,0
16.0,-229.0,76.0,127.0,28.0,32.0,0
17.0,-227.0,80.0,119.0,27.0,38.0,0
17.0,-225.0,84.0,109.0,25.0,38.0,0
13.0,-229.0,83.0,95.0,23.0,43.0,0
12.0,-231.0,82.0,81.0,22.0,42.0,0
15.0,-233.0,82.0,66.0,22.0,46.0,0
20.0,-236.0,79.0,57.0,21.0,43.0,0
18.0,-234.0,80.0,51.0,20.0,48.0,0
18.0,-235.0,81.0,47.0,23.0,46.0,0
21.0,-234.0,82.0,46.0,28.0,48.0,0
19.0,-235.0,84.0,45.0,31.0,46.0,0
20.0,-237.0,82.0,46.0,34.0,45.0,0
21.0,-235.0,86.0,44.0,33.0,43.0,0
22.0,-233.0,83.0,43.0,33.0,42.0,0
21.0,-232.0,85.0,42.0,31.0,38.0,0
22.0,-231.0,83.0,43.0,26.0,36.0,0
20.0,-231.0,80.0,42.0,20.0,29.0,0
18.0,-228.0,83.0,41.0,15.0,27.0,0
18.0,-225.0,84.0,36.0,8.0,21.0,0
18.0,-226.0,86.0,27.0,-1.0,20.0,0
16.0,-228.0,87.0,11.0,-4.0,18.0,0
16.0,-230.0,79.0,0.0,3.0,18.0,0
13.0,-231.0,81.0,-11.0,13.0,17.0,0
14.0,-233.0,80.0,-19.0,20.0,23.0,0
13.0,-236.0,84.0,-23.0,22.0,23.0,0
12.0,-236.0,85.0,-27.0,20.0,29.0,0
12.0,-239.0,85.0,-24.0,20.0,30.0,0
16.0,-239.0,84.0,-18.0,24.0,34.0,0
11.0,-237.0,83.0,-10.0,28.0,31.0,0
12.0,-237.0,83.0,-3.0,27.0,32.0,0
13.0,-237.0,85.0,1.0,20.0,29.0,0
15.0,-234.0,85.0,1.0,14.0,31.0,0
11.0,-234.0,85.0,0.0,12.0,29.0,0
13.0,-234.0,86.0,-3.0,10.0,33.0,0
13.0,-230.0,82.0,-8.0,14.0,33.0,0
14.0,-234.0,84.0,-10.0,16.0,38.0,0
12.0,-229.0,86.0,-10.0,18.0,38.0,0
18.0,-232.0,88.0,-11.0,17.0,39.0,0
15.0,-229.0,85.0,-10.0,15.0,33.0,0
21.0,-230.0,80.0,-11.0,14.0,30.0,0
18.0,-228.0,78.0,-15.0,16.0,24.0,0
22.0,-227.0,82.0,-21.0,17.0,23.0,0
20.0,-227.0,84.0,-28.0,20.0,18.0,0
18.0,-227.0,84.0,-40.0,20.0,16.0,0
19.0,-226.0,83.0,-52.0,18.0,11.0,0
18.0,-232.0,85.0,-64.0,16.0,10.0,0
17.0,-230.0,82.0,-72.0,12.0,9.0,0
18.0,-233.0,80.0,-82.0,11.0,14.0,0
13.0,-235.0,83.0,-89.0,10.0,13.0,0
15.0,-234.0,86.0,-88.0,8.0,16.0,0
16.0,-236.0,82.0,-86.0,6.0,18.0,0
18.0,-235.0,84.0,-80.0,9.0,23.0,0
16.0,-234.0,82.0,-76.0,12.0,23.0,0
19.0,-236.0,84.0,-73.0,12.0,27.0,0
17.0,-236.0,84.0,-73.0,10.0,26.0,0
15.0,-233.0,82.0,-76.0,4.0,29.0,0
18.0,-236.0,87.0,-80.0,0.0,25.0,0
19.0,-233.0,84.0,-86.0,-2.0,23.0,0
18.0,-234.0,83.0,-92.0,-4.0,17.0,0
18.0,-234.0,80.0,-97.0,-4.0,18.0,0
21.0,-236.0,82.0,-101.0,-2.0,14.0,0
19.0,-233.0,81.0,-104.0,0.0,16.0,0
19.0,-236.0,84.0,-106.0,4.0,13.0,0
24.0,-234.0,83.0,-106.0,10.0,12.0,0
22.0,-234.0,83.0,-103.0,14.0,5.0,0
23.0,-233.0,79.0,-100.0,19.0,5.0,0
21.0,-237.0,80.0,-97.0,22.0,0.0,0
24.0,-235.0,82.0,-93.0,23.0,1.0,0
24.0,-234.0,80.0,-90.0,20.0,0.0,0
21.0,-234.0,77.0,-89.0,18.0,2.0,0
23.0,-235.0,79.0,-91.0,17.0,0.0,0
20.0,-235.0,78.0,-94.0,18.0,-1.0,0
20.0,-236.0,74.0,-91.0,22.0,-2.0,0
19.0,-236.0,80.0,-89.0,24.0,0.0,0
21.0,-236.0,78.0,-86.0,27.0,-3.0,0
16.0,-236.0,79.0,-84.0,29.0,1.0,0
17.0,-237.0,80.0,-84.0,31.0,-1.0,0
19.0,-239.0,74.0,-82.0,33.0,0.0,0
19.0,-244.0,81.0,-79.0,35.0,-2.0,0
13.0,-242.0,79.0,-74.0,35.0,-3.0,0
15.0,-237.0,76.0,-66.0,31.0,-7.0,0
14.0,-239.0,81.0,-61.0,28.0,-5.0,0
15.0,-238.0,80.0,-58.0,26.0,-7.0,0
14.0,-242.0,79.0,-52.0,24.0,-6.0,0
19.0,-236.0,77.0,-49.0,21.0,-8.0,0
15.0,-236.0,77.0,-48.0,21.0,-4.0,0
15.0,-235.0,83.0,-44.0,19.0,-3.0,0
19.0,-233.0,76.0,-47.0,19.0,2.0,0
19.0,-231.0,79.0,-55.0,21.0,2.0,0
15.0,-231.0,77.0,-65.0,25.0,4.0,0
19.0,-233.0,76.0,-72.0,26.0,2.0,0
21.0,-236.0,80.0,-79.0,27.0,3.0,0
18.0,-232.0,76.0,-85.0,29.0,-2.0,0
19.0,-234.0,78.0,-87.0,33.0,0.0,0
16.0,-235.0,77.0,-91.0,35.0,-3.0,0
18.0,-234.0,77.0,-93.0,35.0,-1.0,0
21.0,-236.0,81.0,-94.0,35.0,-3.0,0
19.0,-232.0,80.0,-96.0,33.0,0.0,0
23.0,-237.0,79.0,-96.0,32.0,-1.0,0
21.0,-234.0,76.0,-96.0,32.0,1.0,0
21.0,-233.0,77.0,-92.0,33.0,-3.0,0
20.0,-232.0,79.0,-91.0,35.0,-1.0,0
21.0,-235.0,75.0,-90.0,37.0,-5.0,0
24.0,-235.0,74.0,-89.0,39.0,-5.0,0
22.0,-238.0,78.0,-89.0,40.0,-8.0,0
22.0,-236.0,77.0,-90.0,43.0,-6.0,0
19.0,-237.0,75.0,-89.0,44.0,-8.0,0
19.0,-236.0,74.0,-91.0,46.0,-6.0,0
22.0,-237.0,74.0,-90.0,45.0,-10.0,0
20.0,-235.0,76.0,-90.0,44.0,-9.0,0
21.0,-237.0,72.0,-92.0,41.0,-12.0,0
22.0,-236.0,76.0,-91.0,38.0,-11.0,0
19.0,-235.0,76.0,-91.0,38.0,-14.0,0
19.0,-238.0,77.0,-92.0,38.0,-12.0,0
21.0,-233.0,74.0,-97.0,40.0,-14.0,0
20.0,-236.0,77.0,-99.0,43.0,-13.0,0
16.0,-238.0,78.0,-101.0,46.0,-14.0,0
20.0,-239.0,77.0,-100.0,49.0,-11.0,0
18.0,-236.0,73.0,-99.0,50.0,-12.0,0
19.0,-235.0,73.0,-98.0,52.0,-5.0,0
20.0,-238.0,72.0,-97.0,52.0,-5.0,0
18.0,-237.0,74.0,-98.0,55.0,-2.0,0
22.0,-238.0,74.0,-102.0,55.0,-5.0,0
23.0,-240.0,75.0,-103.0,57.0,-2.0,0
22.0,-237.0,74.0,-102.0,55.0,-6.0,0
22.0,-236.0,73.0,-99.0,53.0,-2.0,0
20.0,-239.0,77.0,-95.0,49.0,-6.0,0
19.0,-238.0,76.0,-91.0,45.0,-5.0,0
20.0,-240.0,79.0,-88.0,43.0,-9.0,0
20.0,-238.0,74.0,-85.0,40.0,-7.0,0
25.0,-254.0,74.0,-83.0,42.0,-11.0,0
20.0,-239.0,75.0,-81.0,49.0,-9.0,0
19.0,-240.0,74.0,-79.0,57.0,-10.0,0
20.0,-239.0,73.0,-80.0,65.0,-7.0,0
17.0,-237.0,71.0,-79.0,70.0,-9.0,0
18.0,-238.0,71.0,-81.0,73.0,-6.0,0
19.0,-236.0,76.0,-81.0,75.0,-8.0,0
20.0,-236.0,74.0,-83.0,77.0,-7.0,0
21.0,-236.0,74.0,-83.0,76.0,-8.0,0
20.0,-240.0,75.0,-85.0,74.0,-4.0,0
22.0,-236.0,76.0,-83.0,74.0,-7.0,0
21.0,-235.0,72.0,-83.0,71.0,-4.0,0
20.0,-237.0,72.0,-83.0,71.0,-5.0,0
21.0,-238.0,71.0,-82.0,71.0,-3.0,0
20.0,-237.0,74.0,-83.0,71.0,-4.0,0
20.0,-241.0,70.0,-83.0,71.0,-3.0,0
19.0,-240.0,74.0,-84.0,70.0,-7.0,0
19.0,-238.0,69.0,-83.0,72.0,-7.0,0
21.0,-240.0,72.0,-77.0,74.0,-10.0,0
19.0,-242.0,71.0,-72.0,74.0,-9.0,0
18.0,-238.0,72.0,-64.0,74.0,-12.0,0
18.0,-240.0,74.0,-57.0,74.0,-11.0,0
19.0,-238.0,77.0,-50.0,75.0,-12.0,0
18.0,-240.0,75.0,-47.0,76.0,-9.0,0
17.0,-239.0,77.0,-44.0,76.0,-10.0,0
19.0,-240.0,75.0,-41.0,74.0,-8.0,0
19.0,-241.0,74.0,-40.0,73.0,-12.0,0
20.0,-239.0,68.0,-38.0,68.0,-9.0,0
19.0,-238.0,71.0,-38.0,67.0,-13.0,0
17.0,-237.0,72.0,-37.0,63.0,-10.0,0
19.0,-237.0,72.0,-37.0,60.0,-11.0,0
18.0,-237.0,70.0,-35.0,59.0,-9.0,0
22.0,-238.0,71.0,-36.0,61.0,-11.0,0
19.0,-236.0,71.0,-37.0,64.0,-8.0,0
21.0,-240.0,71.0,-38.0,68.0,-11.0,0
21.0,-237.0,69.0,-38.0,70.0,-8.0,0
22.0,-237.0,68.0,-39.0,72.0,-9.0,0
20.0,-242.0,73.0,-38.0,72.0,-6.0,0
19.0,-240.0,73.0,-38.0,71.0,-9.0,0
22.0,-242.0,72.0,-39.0,70.0,-7.0,0
19.0,-241.0,72.0,-39.0,70.0,-10.0,0
19.0,-242.0,72.0,-40.0,70.0,-7.0,0
20.0,-239.0,71.0,-45.0,67.0,-6.0,0
18.0,-241.0,67.0,-49.0,65.0,-3.0,0
18.0,-238.0,69.0,-50.0,63.0,-3.0,0
20.0,-241.0,70.0,-46.0,61.0,0.0,0
20.0,-241.0,72.0,-41.0,60.0,-3.0,0
20.0,-239.0,71.0,-33.0,59.0,1.0,0
20.0,-239.0,69.0,-28.0,58.0,-2.0,0
20.0,-239.0,70.0,-28.0,57.0,1.0,0
17.0,-238.0,67.0,-30.0,58.0,-2.0,0
17.0,-237.0,70.0,-32.0,59.0,0.0,0
19.0,-238.0,71.0,-35.0,60.0,-4.0,0
21.0,-239.0,71.0,-38.0,64.0,-2.0,0
18.0,-236.0,71.0,-38.0,68.0,-5.0,0
17.0,-237.0,69.0,-42.0,71.0,-4.0,0
20.0,-237.0,71.0,-44.0,72.0,-7.0,0
21.0,-237.0,71.0,-46.0,74.0,-6.0,0
21.0,-244.0,70.0,-48.0,76.0,-10.0,0
19.0,-244.0,71.0,-47.0,77.0,-9.0,0
19.0,-241.0,70.0,-46.0,74.0,-13.0,0
20.0,-241.0,75.0,-42.0,71.0,-10.0,0
20.0,-241.0,71.0,-37.0,69.0,-11.0,0
20.0,-241.0,74.0,-31.0,67.0,-8.0,0
17.0,-240.0,73.0,-25.0,67.0,-9.0,0
20.0,-240.0,70.0,-22.0,69.0,-8.0,0
20.0,-240.0,68.0,-21.0,70.0,-11.0,0
20.0,-242.0,68.0,-19.0,73.0,-7.0,0
18.0,-238.0,73.0,-19.0,73.0,-9.0,0
16.0,-238.0,71.0,-19.0,72.0,-5.0,0
17.0,-236.0,71.0,-19.0,71.0,-6.0,0
19.0,-238.0,75.0,-21.0,69.0,-4.0,0
20.0,-238.0,73.0,-23.0,68.0,-6.0,0
18.0,-238.0,71.0,-23.0,70.0,-6.0,0
19.0,-238.0,71.0,-23.0,74.0,-8.0,0
17.0,-241.0,71.0,-22.0,75.0,-5.0,0
19.0,-239.0,73.0,-22.0,75.0,-9.0,0
21.0,-238.0,72.0,-21.0,73.0,-6.0,0
18.0,-240.0,73.0,-24.0,70.0,-10.0,0
19.0,-238.0,71.0,-24.0,67.0,-6.0,0
20.0,-239.0,74.0,-23.0,66.0,-8.0,0
19.0,-236.0,70.0,-23.0,61.0,-4.0,0
17.0,-239.0,72.0,-22.0,59.0,-7.0,0
18.0,-238.0,71.0,-23.0,57.0,-3.0,0
20.0,-239.0,71.0,-26.0,57.0,-5.0,0
15.0,-239.0,73.0,-29.0,58.0,-3.0,0
21.0,-240.0,72.0,-29.0,59.0,-6.0,0
16.0,-239.0,72.0,-29.0,60.0,-5.0,0
19.0,-240.0,71.0,-25.0,63.0,-7.0,0
20.0,-241.0,73.0,-19.0,65.0,-5.0,0
18.0,-240.0,68.0,-14.0,66.0,-5.0,0
18.0,-241.0,74.0,-9.0,66.0,-2.0,0
20.0,-242.0,71.0,-6.0,65.0,-4.0,0
17.0,-239.0,71.0,-5.0,64.0,-2.0,0
22.0,-239.0,69.0,-7.0,65.0,-6.0,0
18.0,-238.0,73.0,-7.0,67.0,-3.0,0
20.0,-238.0,70.0,-9.0,66.0,-6.0,0
19.0,-239.0,69.0,-11.0,65.0,-5.0,0
18.0,-238.0,67.0,-15.0,64.0,-8.0,0
20.0,-237.0,69.0,-21.0,62.0,-6.0,0
18.0,-237.0,71.0,-27.0,60.0,-8.0,0
19.0,-237.0,72.0,-31.0,59.0,-4.0,0
17.0,-238.0,72.0,-33.0,60.0,-7.0,0
18.0,-238.0,74.0,-33.0,63.0,-4.0,0
18.0,-238.0,71.0,-32.0,65.0,-5.0,0
21.0,-238.0,70.0,-31.0,66.0,-1.0,0
19.0,-240.0,73.0,-27.0,66.0,-3.0,0
20.0,-240.0,72.0,-25.0,66.0,-1.0,0
21.0,-241.0,72.0,-21.0,63.0,-2.0,0
20.0,-241.0,72.0,-19.0,63.0,-1.0,0
21.0,-241.0,70.0,-16.0,63.0,-4.0,0
20.0,-240.0,71.0,-16.0,62.0,-3.0,0
21.0,-240.0,73.0,-17.0,62.0,-5.0,0
18.0,-240.0,67.0,-18.0,61.0,-3.0,0
17.0,-239.0,72.0,-20.0,58.0,-6.0,0
19.0,-241.0,73.0,-21.0,56.0,-3.0,0
21.0,-240.0,76.0,-25.0,57.0,-6.0,0
17.0,-238.0,72.0,-25.0,58.0,-2.0,0
19.0,-239.0,75.0,-24.0,59.0,-2.0,0
18.0,-240.0,71.0,-23.0,58.0,2.0,0
19.0,-240.0,70.0,-21.0,58.0,0.0,0
22.0,-240.0,67.0,-20.0,57.0,2.0,0
19.0,-240.0,69.0,-19.0,55.0,-2.0,0
18.0,-236.0,69.0,-20.0,55.0,-2.0,0
19.0,-238.0,71.0,-19.0,56.0,-5.0,0
19.0,-238.0,72.0,-20.0,56.0,-4.0,0
19.0,-237.0,71.0,-21.0,55.0,-6.0,0
16.0,-238.0,73.0,-22.0,55.0,-4.0,0
21.0,-237.0,72.0,-22.0,54.0,-5.0,0
21.0,-237.0,71.0,-25.0,56.0,-2.0,0
19.0,-243.0,73.0,-29.0,57.0,-4.0,0
19.0,-237.0,70.0,-32.0,59.0,-2.0,0
20.0,-239.0,70.0,-33.0,60.0,-5.0,0
20.0,-236.0,70.0,-32.0,62.0,-1.0,0
20.0,-242.0,72.0,-28.0,64.0,-3.0,0
22.0,-242.0,70.0,-23.0,66.0,0.0,0
23.0,-241.0,71.0,-19.0,66.0,-3.0,0
20.0,-239.0,72.0,-16.0,66.0,-1.0,0
21.0,-242.0,72.0,-17.0,62.0,-3.0,0
19.0,-240.0,72.0,-18.0,58.0,-2.0,0
21.0,-236.0,71.0,-20.0,55.0,-4.0,0
21.0,-240.0,70.0,-19.0,51.0,-2.0,0
23.0,-239.0,71.0,-18.0,49.0,-3.0,0
19.0,-238.0,69.0,-15.0,48.0,0.0,0
20.0,-239.0,71.0,-12.0,49.0,-4.0,0
17.0,-239.0,70.0,-11.0,52.0,-2.0,0
20.0,-237.0,71.0,-9.0,54.0,-5.0,0
20.0,-238.0,71.0,-11.0,55.0,-3.0,0
19.0,-240.0,71.0,-12.0,57.0,-5.0,0
19.0,-242.0,69.0,-11.0,58.0,-2.0,0
17.0,-241.0,72.0,-11.0,57.0,-5.0,0
18.0,-241.0,70.0,-14.0,57.0,-2.0,0
21.0,-240.0,72.0,-13.0,57.0,-3.0,0
18.0,-239.0,71.0,-15.0,58.0,-1.0,0
21.0,-242.0,68.0,-15.0,58.0,-2.0,0
19.0,-241.0,72.0,-15.0,60.0,1.0,0
22.0,-245.0,70.0,-12.0,60.0,-2.0,0
19.0,-240.0,69.0,-7.0,59.0,-1.0,0
21.0,-240.0,73.0,0.0,59.0,-4.0,0
19.0,-239.0,71.0,4.0,60.0,-1.0,0
18.0,-239.0,68.0,3.0,60.0,-5.0,0
17.0,-238.0,70.0,2.0,60.0,-1.0,0
17.0,-238.0,65.0,0.0,60.0,-4.0,0
18.0,-242.0,72.0,-5.0,57.0,-2.0,0
16.0,-241.0,66.0,-8.0,56.0,-5.0,0
19.0,-242.0,70.0,-10.0,55.0,-3.0,0
16.0,-240.0,71.0,-10.0,56.0,-6.0,0
17.0,-241.0,74.0,-9.0,56.0,-2.0,0
19.0,-238.0,68.0,-7.0,56.0,-4.0,0
18.0,-240.0,72.0,-2.0,56.0,-2.0,0
19.0,-238.0,69.0,-1.0,56.0,-4.0,0
16.0,-238.0,73.0,-2.0,56.0,-2.0,0
19.0,-241.0,72.0,-1.0,55.0,-5.0,0
18.0,-241.0,74.0,-2.0,55.0,-1.0,0
20.0,-238.0,72.0,1.0,55.0,-3.0,0
19.0,-239.0,70.0,4.0,57.0,0.0,0
17.0,-239.0,71.0,6.0,58.0,0.0,0
20.0,-237.0,68.0,7.0,57.0,2.0,0
21.0,-239.0,72.0,5.0,57.0,-1.0,0
20.0,-238.0,73.0,0.0,59.0,2.0,0
20.0,-239.0,70.0,-5.0,57.0,-2.0,0
20.0,-239.0,74.0,-10.0,57.0,2.0,0
22.0,-240.0,71.0,-13.0,56.0,-1.0,0
21.0,-238.0,71.0,-14.0,53.0,1.0,0
20.0,-240.0,71.0,-15.0,54.0,-2.0,0
20.0,-240.0,70.0,-11.0,54.0,1.0,0
21.0,-240.0,71.0,-9.0,57.0,-2.0,0
21.0,-242.0,72.0,-6.0,59.0,-1.0,0
22.0,-241.0,70.0,-5.0,59.0,-3.0,0
19.0,-238.0,68.0,-6.0,59.0,0.0,0
17.0,-240.0,71.0,-6.0,57.0,-3.0,0
17.0,-239.0,68.0,-5.0,55.0,1.0,0
18.0,-241.0,72.0,-3.0,56.0,-1.0,0
18.0,-239.0,72.0,-2.0,57.0,-1.0,0
20.0,-240.0,71.0,-3.0,57.0,-4.0,0
22.0,-242.0,71.0,0.0,57.0,1.0,0
20.0,-239.0,71.0,-1.0,55.0,-2.0,0
20.0,-240.0,72.0,-3.0,53.0,1.0,0
19.0,-238.0,71.0,-4.0,53.0,0.0,0
17.0,-237.0,69.0,-6.0,54.0,4.0,0
21.0,-240.0,71.0,-11.0,53.0,1.0,0
18.0,-239.0,74.0,-12.0,50.0,2.0,0
23.0,-238.0,70.0,-11.0,47.0,-1.0,0
21.0,-236.0,71.0,-9.0,47.0,2.0,0
24.0,-239.0,75.0,-10.0,47.0,0.0,0
21.0,-241.0,72.0,-12.0,51.0,1.0,0
23.0,-242.0,72.0,-11.0,52.0,-2.0,0
20.0,-239.0,70.0,-10.0,55.0,1.0,0
20.0,-235.0,76.0,-8.0,58.0,-1.0,0
23.0,-241.0,75.0,-7.0,58.0,2.0,0
22.0,-243.0,72.0,-8.0,57.0,-1.0,0
21.0,-239.0,72.0,-9.0,57.0,1.0,0
22.0,-239.0,70.0,-7.0,56.0,-2.0,0
18.0,-239.0,69.0,-5.0,58.0,0.0,0
17.0,-240.0,72.0,-4.0,58.0,-3.0,0
16.0,-234.0,72.0,-2.0,57.0,0.0,0
17.0,-238.0,71.0,-2.0,56.0,-2.0,0
18.0,-237.0,72.0,-3.0,57.0,0.0,0
19.0,-236.0,71.0,-3.0,59.0,-4.0,0
19.0,-238.0,71.0,-5.0,60.0,-1.0,0
20.0,-240.0,76.0,-7.0,60.0,-2.0,0
19.0,-238.0,71.0,-12.0,60.0,2.0,0
22.0,-237.0,72.0,-12.0,60.0,0.0,0
19.0,-237.0,72.0,-13.0,62.0,2.0,0
21.0,-241.0,72.0,-12.0,63.0,0.0,0
20.0,-240.0,73.0,-10.0,64.0,2.0,0
19.0,-237.0,75.0,-9.0,64.0,1.0,0
24.0,-238.0,74.0,-6.0,60.0,2.0,0
20.0,-237.0,75.0,-6.0,57.0,-1.0,0
18.0,-239.0,72.0,-7.0,55.0,2.0,0
22.0,-239.0,74.0,-7.0,52.0,-1.0,0
22.0,-240.0,72.0,-8.0,52.0,-1.0,0
19.0,-238.0,72.0,-7.0,54.0,-2.0,0
17.0,-237.0,69.0,-6.0,54.0,1.0,0
20.0,-237.0,72.0,-6.0,58.0,-2.0,0
21.0,-238.0,73.0,-6.0,60.0,-1.0,0
18.0,-235.0,74.0,-5.0,65.0,-4.0,0
18.0,-237.0,73.0,-7.0,68.0,-1.0,0
18.0,-236.0,71.0,-8.0,67.0,-4.0,0
19.0,-238.0,73.0,-11.0,68.0,-3.0,0
19.0,-240.0,67.0,-14.0,68.0,-5.0,0
21.0,-238.0,67.0,-18.0,66.0,-4.0,0
17.0,-237.0,73.0,-20.0,64.0,-6.0,0
17.0,-238.0,72.0,-22.0,61.0,-5.0,0
19.0,-239.0,72.0,-23.0,60.0,-8.0,0
18.0,-240.0,71.0,-23.0,59.0,-6.0,0
18.0,-238.0,74.0,-21.0,59.0,-7.0,0
22.0,-240.0,76.0,-21.0,57.0,-4.0,0
19.0,-239.0,72.0,-21.0,56.0,-6.0,0
19.0,-238.0,73.0,-19.0,56.0,-1.0,0
21.0,-239.0,72.0,-18.0,57.0,-4.0,0
21.0,-243.0,71.0,-16.0,58.0,-1.0,0
20.0,-239.0,73.0,-15.0,61.0,-4.0,0
19.0,-240.0,73.0,-13.0,62.0,-4.0,0
17.0,-238.0,73.0,-13.0,65.0,-7.0,0
21.0,-241.0,72.0,-13.0,66.0,-5.0,0
21.0,-239.0,71.0,-13.0,68.0,-7.0,0
17.0,-239.0,68.0,-12.0,67.0,-3.0,0
19.0,-238.0,70.0,-12.0,69.0,-5.0,0
16.0,-236.0,71.0,-13.0,68.0,-4.0,0
18.0,-238.0,72.0,-16.0,66.0,-5.0,0
17.0,-238.0,70.0,-16.0,63.0,-3.0,0
20.0,-240.0,72.0,-17.0,60.0,-6.0,0
21.0,-240.0,73.0,-13.0,55.0,-2.0,0
22.0,-241.0,70.0,-14.0,53.0,-6.0,0
17.0,-240.0,73.0,-13.0,53.0,-1.0,0
18.0,-241.0,73.0,-14.0,52.0,-3.0,0
22.0,-244.0,71.0,-13.0,52.0,-1.0,0
22.0,-237.0,73.0,-11.0,54.0,-1.0,0
20.0,-239.0,70.0,-9.0,54.0,2.0,0
18.0,-239.0,71.0,-8.0,56.0,-1.0,0
19.0,-237.0,71.0,-8.0,57.0,0.0,0
18.0,-239.0,73.0,-9.0,58.0,-3.0,0
20.0,-238.0,73.0,-9.0,58.0,-1.0,0
20.0,-238.0,74.0,-11.0,59.0,-4.0,0
23.0,-239.0,71.0,-10.0,60.0,-2.0,0
19.0,-239.0,71.0,-10.0,61.0,-5.0,0
19.0,-235.0,73.0,-9.0,61.0,-3.0,0
20.0,-239.0,70.0,-9.0,64.0,-4.0,0
20.0,-239.0,72.0,-10.0,67.0,-3.0,0
19.0,-242.0,74.0,-12.0,67.0,-6.0,0
18.0,-237.0,72.0,-13.0,67.0,-4.0,0
16.0,-237.0,70.0,-16.0,65.0,-5.0,0
17.0,-239.0,72.0,-20.0,62.0,-3.0,0
17.0,-239.0,72.0,-20.0,58.0,-6.0,0
17.0,-238.0,71.0,-21.0,54.0,-2.0,0
19.0,-237.0,68.0,-20.0,52.0,-5.0,0
20.0,-236.0,73.0,-19.0,52.0,-2.0,0
19.0,-237.0,71.0,-19.0,54.0,-4.0,0
19.0,-240.0,74.0,-19.0,56.0,-3.0,0
21.0,-243.0,71.0,-17.0,59.0,-5.0,0
18.0,-241.0,74.0,-15.0,61.0,-2.0,0
19.0,-239.0,72.0,-14.0,61.0,-5.0,0
19.0,-241.0,73.0,-13.0,60.0,-2.0,0
18.0,-240.0,75.0,-14.0,60.0,-5.0,0
19.0,-239.0,76.0,-12.0,58.0,-2.0,0
18.0,-241.0,72.0,-10.0,58.0,-4.0,0
20.0,-242.0,75.0,-8.0,57.0,-1.0,0
22.0,-239.0,72.0,-4.0,59.0,-1.0,0
20.0,-237.0,72.0,-1.0,58.0,2.0,0
18.0,-238.0,72.0,2.0,59.0,1.0,0
19.0,-237.0,70.0,0.0,60.0,5.0,0
21.0,-236.0,69.0,-4.0,59.0,1.0,0
18.0,-235.0,67.0,-9.0,58.0,3.0,0
18.0,-238.0,68.0,-16.0,58.0,-2.0,0
20.0,-236.0,71.0,-22.0,58.0,0.0,0
16.0,-235.0,74.0,-24.0,59.0,-4.0,0
18.0,-236.0,72.0,-29.0,62.0,-3.0,0
19.0,-239.0,70.0,-29.0,61.0,-8.0,0
20.0,-239.0,72.0,-29.0,61.0,-7.0,0
20.0,-237.0,71.0,-27.0,63.0,-9.0,0
19.0,-238.0,75.0,-25.0,64.0,-6.0,0
19.0,-240.0,72.0,-22.0,62.0,-8.0,0
19.0,-240.0,72.0,-20.0,62.0,-4.0,0
16.0,-239.0,71.0,-20.0,60.0,-6.0,0
18.0,-240.0,72.0,-19.0,58.0,-1.0,0
20.0,-239.0,71.0,-20.0,57.0,-3.0,0
21.0,-240.0,74.0,-22.0,58.0,1.0,0
21.0,-239.0,69.0,-23.0,58.0,-2.0,0
19.0,-238.0,74.0,-25.0,58.0,0.0,0
21.0,-239.0,70.0,-26.0,57.0,-3.0,0
23.0,-239.0,74.0,-27.0,56.0,0.0,0
21.0,-238.0,72.0,-29.0,55.0,-3.0,0
21.0,-240.0,71.0,-29.0,55.0,-1.0,0
20.0,-239.0,71.0,-28.0,56.0,-3.0,0
21.0,-238.0,70.0,-26.0,56.0,-1.0,0
21.0,-236.0,72.0,-24.0,57.0,-2.0,0
19.0,-241.0,70.0,-21.0,57.0,2.0,0
21.0,-240.0,71.0,-21.0,58.0,2.0,0
21.0,-237.0,69.0,-21.0,57.0,4.0,0
19.0,-239.0,70.0,-19.0,59.0,1.0,0
19.0,-242.0,71.0,-20.0,58.0,0.0,0
19.0,-236.0,70.0,-20.0,58.0,-3.0,0
21.0,-240.0,72.0,-20.0,58.0,-1.0,0
19.0,-239.0,70.0,-18.0,59.0,-3.0,0
19.0,-240.0,71.0,-16.0,58.0,-2.0,0
21.0,-242.0,71.0,-13.0,59.0,-5.0,0
21.0,-243.0,71.0,-13.0,58.0,-2.0,0
22.0,-239.0,71.0,-15.0,56.0,-4.0,0
15.0,-238.0,71.0,-16.0,55.0,-2.0,0
18.0,-237.0,68.0,-16.0,57.0,-5.0,0
20.0,-238.0,72.0,-14.0,56.0,0.0,0
20.0,-238.0,71.0,-15.0,57.0,-3.0,0
19.0,-238.0,71.0,-15.0,58.0,0.0,0
17.0,-238.0,71.0,-16.0,57.0,-1.0,0
18.0,-238.0,71.0,-16.0,57.0,2.0,0
20.0,-237.0,72.0,-18.0,56.0,-1.0,0
19.0,-241.0,73.0,-17.0,56.0,2.0,0
17.0,-238.0,73.0,-15.0,56.0,-1.0,0
22.0,-237.0,68.0,-16.0,57.0,1.0,0
22.0,-241.0,73.0,-16.0,59.0,-2.0,0
17.0,-238.0,73.0,-16.0,60.0,-1.0,0
19.0,-240.0,72.0,-16.0,60.0,-4.0,0
18.0,-241.0,71.0,-17.0,58.0,-2.0,0
17.0,-237.0,72.0,-17.0,58.0,-4.0,0
15.0,-238.0,73.0,-17.0,58.0,-3.0,0
17.0,-241.0,73.0,-17.0,59.0,-5.0,0
18.0,-240.0,72.0,-17.0,61.0,-3.0,0
17.0,-237.0,74.0,-16.0,60.0,-5.0,0
8.0,-244.0,62.0,-14.0,60.0,-4.0,0
20.0,-240.0,70.0,-14.0,60.0,-6.0,0
22.0,-241.0,77.0,-13.0,60.0,-3.0,0
18.0,-239.0,72.0,-13.0,62.0,-5.0,0
19.0,-240.0,71.0,-13.0,63.0,-2.0,0
19.0,-239.0,74.0,-14.0,62.0,-6.0,0
20.0,-240.0,73.0,-16.0,62.0,-2.0,0
20.0,-236.0,73.0,-17.0,62.0,-5.0,0
16.0,-237.0,75.0,-17.0,61.0,-2.0,0
22.0,-239.0,72.0,-15.0,59.0,-3.0,0
20.0,-238.0,69.0,-15.0,57.0,-1.0,0
22.0,-238.0,73.0,-13.0,57.0,-4.0,0
18.0,-237.0,72.0,-12.0,57.0,0.0,0
19.0,-238.0,72.0,-12.0,56.0,-1.0,0
22.0,-239.0,73.0,-11.0,58.0,3.0,0
18.0,-239.0,72.0,-10.0,59.0,0.0,0
19.0,-239.0,72.0,-9.0,60.0,2.0,0
19.0,-236.0,71.0,-9.0,60.0,0.0,0
21.0,-238.0,70.0,-9.0,62.0,1.0,0
21.0,-241.0,72.0,-14.0,62.0,-2.0,0
20.0,-239.0,70.0,-18.0,61.0,0.0,0
21.0,-240.0,75.0,-21.0,63.0,-3.0,0
18.0,-240.0,75.0,-23.0,62.0,-2.0,0
20.0,-243.0,75.0,-24.0,61.0,-6.0,0
16.0,-239.0,70.0,-24.0,60.0,-4.0,0
20.0,-239.0,69.0,-22.0,58.0,-7.0,0
20.0,-238.0,71.0,-21.0,59.0,-5.0,0
19.0,-240.0,71.0,-21.0,58.0,-9.0,0
22.0,-240.0,68.0,-22.0,57.0,-6.0,0
20.0,-239.0,70.0,-21.0,57.0,-7.0,0
21.0,-239.0,69.0,-21.0,58.0,-4.0,0
20.0,-238.0,70.0,-20.0,60.0,-7.0,0
20.0,-240.0,70.0,-20.0,61.0,-5.0,0
18.0,-238.0,67.0,-19.0,60.0,-6.0,0
19.0,-240.0,70.0,-18.0,59.0,-2.0,0
17.0,-239.0,71.0,-16.0,60.0,-4.0,0
18.0,-242.0,70.0,-18.0,60.0,0.0,0
19.0,-241.0,71.0,-17.0,60.0,-4.0,0
18.0,-239.0,72.0,-15.0,61.0,-2.0,0
19.0,-236.0,72.0,-14.0,60.0,-3.0,0
21.0,-239.0,74.0,-12.0,60.0,-2.0,0
19.0,-235.0,70.0,-12.0,59.0,-4.0,0
20.0,-240.0,72.0,-14.0,59.0,0.0,0
19.0,-238.0,71.0,-17.0,60.0,-2.0,0
21.0,-238.0,70.0,-21.0,61.0,1.0,0
18.0,-238.0,72.0,-22.0,59.0,-1.0,0
20.0,-238.0,70.0,-21.0,59.0,0.0,0
21.0,-237.0,74.0,-21.0,60.0,-3.0,0
17.0,-237.0,72.0,-21.0,59.0,-2.0,0
19.0,-239.0,69.0,-21.0,58.0,-4.0,0
19.0,-240.0,72.0,-18.0,57.0,-2.0,0
21.0,-240.0,70.0,-17.0,56.0,-5.0,0
21.0,-241.0,73.0,-18.0,58.0,-4.0,0
21.0,-240.0,71.0,-19.0,59.0,-6.0,0
19.0,-240.0,70.0,-18.0,63.0,-5.0,0
17.0,-238.0,72.0,-18.0,64.0,-7.0,0
18.0,-241.0,72.0,-17.0,64.0,-6.0,0
18.0,-239.0,73.0,-15.0,64.0,-8.0,0
18.0,-238.0,71.0,-12.0,64.0,-7.0,0
18.0,-237.0,73.0,-12.0,63.0,-8.0,0
19.0,-239.0,69.0,-13.0,65.0,-5.0,0
23.0,-239.0,69.0,-15.0,63.0,-7.0,0
21.0,-239.0,71.0,-17.0,62.0,-2.0,0
23.0,-241.0,73.0,-17.0,62.0,-3.0,0
21.0,-238.0,70.0,-17.0,59.0,0.0,0
20.0,-237.0,72.0,-17.0,58.0,-2.0,0
19.0,-239.0,70.0,-13.0,58.0,-1.0,0
20.0,-238.0,72.0,-12.0,58.0,-3.0,0
20.0,-238.0,73.0,-10.0,58.0,-1.0,0
21.0,-240.0,71.0,-10.0,59.0,-3.0,0
17.0,-236.0,71.0,-10.0,60.0,-4.0,0
22.0,-238.0,72.0,-8.0,63.0,-8.0,0
20.0,-240.0,74.0,-10.0,65.0,-6.0,0
19.0,-239.0,71.0,-9.0,65.0,-10.0,0
18.0,-241.0,73.0,-10.0,64.0,-8.0,0
19.0,-239.0,75.0,-12.0,64.0,-10.0,0
18.0,-240.0,72.0,-11.0,62.0,-7.0,0
20.0,-239.0,72.0,-10.0,63.0,-8.0,0
20.0,-240.0,70.0,-7.0,61.0,-5.0,0
18.0,-241.0,71.0,-3.0,61.0,-6.0,0
19.0,-240.0,69.0,-2.0,60.0,-3.0,0
19.0,-239.0,69.0,-1.0,62.0,-2.0,0
20.0,-242.0,71.0,-1.0,60.0,1.0,0
17.0,-238.0,67.0,-4.0,56.0,1.0,0
17.0,-237.0,67.0,-7.0,54.0,2.0,0
17.0,-237.0,70.0,-8.0,53.0,-1.0,0
19.0,-238.0,70.0,-11.0,53.0,2.0,0
18.0,-238.0,69.0,-13.0,53.0,-1.0,0
19.0,-235.0,69.0,-15.0,57.0,-1.0,0
21.0,-241.0,69.0,-17.0,56.0,-3.0,0
19.0,-240.0,73.0,-16.0,58.0,-3.0,0
18.0,-239.0,73.0,-13.0,59.0,-5.0,0
18.0,-237.0,72.0,-12.0,62.0,-3.0,0
21.0,-239.0,72.0,-10.0,63.0,-5.0,0
18.0,-239.0,75.0,-9.0,62.0,-3.0,0
20.0,-241.0,74.0,-10.0,62.0,-6.0,0
19.0,-239.0,74.0,-12.0,60.0,-3.0,0
21.0,-235.0,73.0,-12.0,60.0,-6.0,0
21.0,-235.0,71.0,-13.0,58.0,-4.0,0
20.0,-240.0,74.0,-14.0,57.0,-6.0,0
20.0,-235.0,72.0,-16.0,55.0,-3.0,0
19.0,-237.0,70.0,-17.0,56.0,-5.0,0
18.0,-237.0,72.0,-18.0,56.0,-2.0,0
19.0,-236.0,72.0,-19.0,56.0,-3.0,0
21.0,-240.0,72.0,-20.0,58.0,1.0,0
17.0,-239.0,73.0,-18.0,58.0,-2.0,0
17.0,-239.0,73.0,-16.0,59.0,0.0,0
17.0,-237.0,71.0,-12.0,61.0,-1.0,0
20.0,-240.0,71.0,-11.0,61.0,2.0,0
17.0,-239.0,70.0,-10.0,61.0,0.0,0
19.0,-239.0,74.0,-9.0,61.0,2.0,0
19.0,-237.0,71.0,-9.0,60.0,1.0,0
20.0,-239.0,72.0,-10.0,59.0,4.0,0
20.0,-240.0,70.0,-13.0,58.0,-1.0,0
20.0,-236.0,70.0,-13.0,58.0,-2.0,0
20.0,-239.0,68.0,-12.0,57.0,-6.0,0
22.0,-238.0,68.0,-12.0,56.0,-4.0,0
20.0,-238.0,69.0,-10.0,55.0,-6.0,0
20.0,-236.0,71.0,-14.0,54.0,-3.0,0
20.0,-237.0,72.0,-15.0,52.0,-4.0,0
22.0,-240.0,72.0,-18.0,53.0,-2.0,0
21.0,-237.0,70.0,-20.0,56.0,-4.0,0
20.0,-241.0,73.0,-19.0,60.0,-2.0,0
23.0,-240.0,71.0,-18.0,63.0,-3.0,0
19.0,-239.0,72.0,-16.0,63.0,0.0,0
17.0,-241.0,68.0,-12.0,61.0,-1.0,0
20.0,-242.0,73.0,-11.0,60.0,2.0,0
19.0,-238.0,73.0,-10.0,58.0,1.0,0
20.0,-238.0,73.0,-8.0,58.0,1.0,0
17.0,-240.0,73.0,-8.0,56.0,-1.0,0
20.0,-243.0,69.0,-10.0,53.0,2.0,0
18.0,-240.0,68.0,-9.0,53.0,-1.0,0
18.0,-240.0,71.0,-7.0,53.0,1.0,0
18.0,-240.0,66.0,-9.0,53.0,-2.0,0
19.0,-238.0,71.0,-9.0,53.0,0.0,0
17.0,-237.0,72.0,-8.0,53.0,-2.0,0
16.0,-239.0,68.0,-8.0,57.0,0.0,0
19.0,-238.0,72.0,-8.0,58.0,-4.0,0
18.0,-238.0,70.0,-8.0,59.0,-3.0,0
21.0,-238.0,71.0,-10.0,64.0,-5.0,0
19.0,-239.0,70.0,-11.0,64.0,-4.0,0
19.0,-242.0,72.0,-12.0,62.0,-6.0,0
17.0,-240.0,71.0,-14.0,61.0,-4.0,0
18.0,-242.0,75.0,-14.0,60.0,-6.0,0
22.0,-241.0,70.0,-13.0,61.0,-4.0,0
19.0,-240.0,73.0,-10.0,63.0,-6.0,0
18.0,-237.0,74.0,-10.0,65.0,-4.0,0
17.0,-239.0,70.0,-9.0,63.0,-5.0,0
20.0,-240.0,71.0,-9.0,64.0,-2.0,0
19.0,-239.0,72.0,-8.0,63.0,-3.0,0
19.0,-239.0,74.0,-9.0,63.0,-1.0,0
19.0,-241.0,73.0,-9.0,63.0,-3.0,0
18.0,-240.0,72.0,-11.0,62.0,-2.0,0
23.0,-243.0,72.0,-13.0,64.0,-4.0,0
20.0,-238.0,70.0,-14.0,62.0,-4.0,0
18.0,-236.0,73.0,-16.0,59.0,-6.0,0
18.0,-238.0,72.0,-18.0,60.0,-6.0,0
19.0,-241.0,73.0,-19.0,60.0,-9.0,0
19.0,-237.0,73.0,-20.0,61.0,-9.0,0
19.0,-235.0,68.0,-21.0,62.0,-11.0,0
18.0,-237.0,70.0,-18.0,63.0,-10.0,0
19.0,-237.0,74.0,-15.0,63.0,-11.0,0
19.0,-239.0,73.0,-14.0,62.0,-9.0,0
17.0,-239.0,73.0,-11.0,64.0,-9.0,0
19.0,-237.0,72.0,-10.0,65.0,-7.0,0
20.0,-239.0,70.0,-10.0,63.0,-9.0,0
20.0,-237.0,72.0,-10.0,65.0,-7.0,0
18.0,-240.0,70.0,-11.0,66.0,-10.0,0
21.0,-239.0,71.0,-12.0,69.0,-8.0,0
21.0,-239.0,70.0,-13.0,68.0,-11.0,0
18.0,-240.0,72.0,-15.0,67.0,-10.0,0
19.0,-240.0,72.0,-15.0,66.0,-11.0,0
19.0,-239.0,71.0,-14.0,66.0,-9.0,0
20.0,-240.0,71.0,-14.0,66.0,-11.0,0
21.0,-239.0,71.0,-14.0,65.0,-10.0,0
19.0,-240.0,71.0,-14.0,64.0,-12.0,0
19.0,-241.0,69.0,-15.0,64.0,-10.0,0
19.0,-241.0,72.0,-17.0,64.0,-12.0,0
19.0,-238.0,70.0,-19.0,65.0,-10.0,0
19.0,-239.0,71.0,-19.0,65.0,-11.0,0
22.0,-238.0,72.0,-19.0,65.0,-8.0,0
18.0,-237.0,73.0,-17.0,64.0,-9.0,0
19.0,-237.0,70.0,-17.0,64.0,-6.0,0
18.0,-236.0,71.0,-18.0,64.0,-7.0,0
18.0,-237.0,71.0,-20.0,62.0,-6.0,0
21.0,-238.0,73.0,-24.0,64.0,-8.0,0
19.0,-237.0,73.0,-27.0,66.0,-8.0,0
20.0,-239.0,71.0,-32.0,66.0,-11.0,0
20.0,-237.0,71.0,-34.0,67.0,-10.0,0
18.0,-237.0,74.0,-35.0,66.0,-13.0,0
20.0,-239.0,72.0,-36.0,64.0,-12.0,0
18.0,-237.0,71.0,-36.0,64.0,-13.0,0
19.0,-239.0,73.0,-34.0,63.0,-11.0,0
21.0,-237.0,70.0,-31.0,62.0,-12.0,0
19.0,-237.0,71.0,-30.0,63.0,-10.0,0
18.0,-238.0,72.0,-30.0,67.0,-10.0,0
21.0,-239.0,71.0,-31.0,65.0,-8.0,0
17.0,-238.0,73.0,-32.0,62.0,-11.0,0
19.0,-238.0,70.0,-32.0,64.0,-8.0,0
19.0,-239.0,71.0,-31.0,65.0,-10.0,0
18.0,-237.0,71.0,-30.0,66.0,-8.0,0
19.0,-240.0,68.0,-29.0,67.0,-9.0,0
20.0,-238.0,71.0,-29.0,67.0,-8.0,0
21.0,-240.0,72.0,-30.0,66.0,-10.0,0
22.0,-238.0,72.0,-33.0,66.0,-8.0,0
23.0,-240.0,71.0,-34.0,66.0,-7.0,0
24.0,-239.0,69.0,-37.0,64.0,-4.0,0
20.0,-238.0,73.0,-35.0,62.0,-7.0,0
22.0,-238.0,72.0,-34.0,61.0,-7.0,0
19.0,-237.0,71.0,-33.0,59.0,-11.0,0
20.0,-240.0,73.0,-32.0,59.0,-11.0,0
21.0,-239.0,72.0,-36.0,60.0,-13.0,0
19.0,-239.0,71.0,-39.0,63.0,-11.0,0
20.0,-240.0,74.0,-40.0,64.0,-12.0,0
19.0,-237.0,73.0,-43.0,63.0,-10.0,0
19.0,-237.0,71.0,-47.0,63.0,-12.0,0
21.0,-240.0,73.0,-48.0,63.0,-10.0,0
19.0,-237.0,72.0,-49.0,64.0,-11.0,0
20.0,-239.0,73.0,-49.0,65.0,-8.0,0
19.0,-238.0,72.0,-49.0,64.0,-8.0,0
22.0,-243.0,72.0,-49.0,63.0,-3.0,0
20.0,-240.0,69.0,-45.0,60.0,-3.0,0
19.0,-236.0,69.0,-43.0,60.0,-1.0,0
21.0,-240.0,71.0,-40.0,58.0,-1.0,0
23.0,-241.0,67.0,-42.0,57.0,1.0,0
19.0,-237.0,71.0,-44.0,57.0,-1.0,0
19.0,-237.0,68.0,-48.0,52.0,-1.0,0
16.0,-234.0,69.0,-51.0,52.0,-2.0,0
18.0,-234.0,71.0,-56.0,52.0,-1.0,0
19.0,-234.0,71.0,-58.0,53.0,-2.0,0
17.0,-237.0,71.0,-63.0,52.0,3.0,0
18.0,-235.0,69.0,-67.0,53.0,0.0,0
20.0,-238.0,74.0,-69.0,58.0,1.0,0
21.0,-237.0,73.0,-70.0,58.0,-1.0,0
20.0,-241.0,73.0,-68.0,60.0,0.0,0
22.0,-239.0,75.0,-69.0,61.0,-3.0,0
24.0,-240.0,71.0,-67.0,61.0,-4.0,0
22.0,-240.0,69.0,-64.0,60.0,-7.0,0
21.0,-241.0,73.0,-65.0,58.0,-7.0,0
21.0,-238.0,71.0,-67.0,58.0,-12.0,0
23.0,-237.0,71.0,-69.0,57.0,-10.0,0
21.0,-236.0,71.0,-72.0,58.0,-13.0,0
23.0,-239.0,69.0,-77.0,59.0,-11.0,0
20.0,-235.0,68.0,-84.0,58.0,-14.0,0
18.0,-233.0,68.0,-93.0,56.0,-13.0,0
18.0,-234.0,67.0,-105.0,56.0,-14.0,0
20.0,-235.0,69.0,-117.0,55.0,-9.0,0
16.0,-232.0,70.0,-129.0,54.0,-9.0,0
19.0,-234.0,70.0,-146.0,54.0,-7.0,0
20.0,-236.0,70.0,-164.0,56.0,-10.0,0
19.0,-236.0,67.0,-184.0,55.0,-8.0,0
17.0,-229.0,70.0,-205.0,60.0,-11.0,0
18.0,-231.0,71.0,-231.0,63.0,-7.0,0
20.0,-224.0,74.0,-264.0,62.0,-7.0,0
19.0,-222.0,75.0,-307.0,58.0,-3.0,0
18.0,-220.0,74.0,-362.0,48.0,-2.0,0
14.0,-217.0,75.0,-427.0,40.0,1.0,0
15.0,-210.0,69.0,-506.0,35.0,-4.0,0
13.0,-212.0,65.0,-596.0,39.0,-8.0,0
12.0,-212.0,66.0,-719.0,43.0,-7.0,0
15.0,-212.0,64.0,-819.0,52.0,-12.0,0
14.0,-216.0,53.0,-911.0,54.0,-19.0,0
12.0,-217.0,54.0,-1005.0,59.0,-26.0,0
17.0,-216.0,54.0,-1105.0,68.0,-38.0,0
19.0,-217.0,49.0,-1209.0,86.0,-45.0,0
17.0,-220.0,46.0,-1305.0,116.0,-42.0,0
20.0,-231.0,38.0,-1375.0,148.0,-33.0,0
19.0,-237.0,36.0,-1408.0,179.0,-33.0,0
23.0,-241.0,40.0,-1432.0,191.0,-34.0,0
23.0,-245.0,28.0,-1462.0,187.0,-37.0,0
19.0,-255.0,21.0,-1462.0,175.0,-35.0,0
21.0,-261.0,21.0,-1423.0,153.0,-40.0,0
24.0,-266.0,6.0,-1355.0,129.0,-44.0,0
19.0,-264.0,1.0,-1277.0,106.0,-47.0,0
23.0,-271.0,-2.0,-1198.0,80.0,-41.0,0
23.0,-261.0,-2.0,-1121.0,64.0,-33.0,0
28.0,-258.0,-2.0,-1055.0,59.0,-21.0,0
23.0,-248.0,1.0,-1007.0,66.0,-18.0,0
27.0,-240.0,7.0,-984.0,74.0,-15.0,0
28.0,-238.0,10.0,-981.0,74.0,-23.0,0
26.0,-234.0,9.0,-986.0,72.0,-23.0,0
27.0,-229.0,13.0,-987.0,75.0,-35.0,0
26.0,-230.0,10.0,-985.0,79.0,-45.0,0
31.0,-232.0,6.0,-973.0,75.0,-58.0,0
33.0,-239.0,6.0,-951.0,72.0,-74.0,0
33.0,-242.0,7.0,-924.0,68.0,-90.0,0
33.0,-243.0,4.0,-893.0,60.0,-107.0,0
32.0,-245.0,3.0,-866.0,54.0,-130.0,0
25.0,-240.0,10.0,-842.0,48.0,-151.0,0
26.0,-241.0,14.0,-823.0,42.0,-173.0,0
21.0,-237.0,22.0,-793.0,29.0,-189.0,0
25.0,-242.0,27.0,-773.0,23.0,-203.0,0
9.0,-240.0,34.0,-751.0,14.0,-211.0,0
4.0,-243.0,33.0,-731.0,1.0,-215.0,0
3.0,-238.0,39.0,-720.0,-11.0,-212.0,0
0.0,-237.0,46.0,-731.0,-13.0,-220.0,0
0.0,-236.0,52.0,-739.0,-22.0,-222.0,0
0.0,-235.0,58.0,-735.0,-36.0,-211.0,0
7.0,-235.0,57.0,-732.0,-55.0,-200.0,0
3.0,-228.0,56.0,-742.0,-67.0,-189.0,0
11.0,-223.0,61.0,-762.0,-81.0,-171.0,0
9.0,-208.0,66.0,-806.0,-93.0,-149.0,0
12.0,-201.0,64.0,-867.0,-111.0,-136.0,0
14.0,-189.0,61.0,-966.0,-127.0,-129.0,0
9.0,-172.0,64.0,-1085.0,-137.0,-109.0,0
13.0,-159.0,55.0,-1221.0,-156.0,-77.0,0
25.0,-164.0,60.0,-1361.0,-169.0,-35.0,0
35.0,-183.0,58.0,-1498.0,-167.0,2.0,0
43.0,-200.0,65.0,-1634.0,-143.0,35.0,0
49.0,-218.0,76.0,-1754.0,-114.0,45.0,0
47.0,-228.0,90.0,-1866.0,-90.0,58.0,0
61.0,-243.0,99.0,-1963.0,-58.0,63.0,0
54.0,-253.0,113.0,-2006.0,-29.0,73.0,0
54.0,-267.0,123.0,-1993.0,12.0,92.0,0
55.0,-281.0,123.0,-1936.0,56.0,123.0,0
58.0,-296.0,120.0,-1847.0,94.0,161.0,0
62.0,-312.0,121.0,-1749.0,140.0,191.0,0
57.0,-329.0,117.0,-1640.0,184.0,210.0,0
57.0,-338.0,117.0,-1534.0,223.0,235.0,0
55.0,-356.0,119.0,-1452.0,277.0,244.0,0
57.0,-367.0,114.0,-1399.0,340.0,232.0,0
48.0,-372.0,127.0,-1400.0,408.0,177.0,0
35.0,-387.0,72.0,-1471.0,463.0,104.0,0
9.0,-395.0,66.0,-1580.0,554.0,20.0,0
8.0,-386.0,28.0,-1706.0,650.0,-34.0,0
23.0,-329.0,-7.0,-1842.0,755.0,-39.0,0
22.0,-303.0,-42.0,-1970.0,823.0,7.0,0
27.0,-265.0,-101.0,-2072.0,810.0,41.0,0
33.0,-254.0,-132.0,-2198.0,732.0,27.0,0
43.0,-265.0,-141.0,-2307.0,624.0,-7.0,0
36.0,-298.0,-129.0,-2364.0,505.0,-34.0,0
30.0,-342.0,-113.0,-2349.0,373.0,-79.0,0
29.0,-380.0,-86.0,-2258.0,301.0,-131.0,0
19.0,-403.0,-60.0,-2136.0,252.0,-193.0,0
17.0,-413.0,-51.0,-1976.0,255.0,-230.0,0
28.0,-425.0,-51.0,-1794.0,297.0,-244.0,0
49.0,-443.0,-66.0,-1632.0,344.0,-255.0,0
39.0,-467.0,-92.0,-1518.0,356.0,-299.0,0
8.0,-457.0,-118.0,-1426.0,333.0,-302.0,0
-7.0,-425.0,-141.0,-1276.0,287.0,-193.0,0
5.0,-384.0,-172.0,-1106.0,179.0,-26.0,0
20.0,-367.0,-183.0,-961.0,34.0,86.0,0
20.0,-374.0,-179.0,-818.0,-142.0,79.0,0
14.0,-389.0,-164.0,-705.0,-255.0,30.0,0
21.0,-389.0,-140.0,-587.0,-306.0,2.0,0
47.0,-383.0,-130.0,-472.0,-297.0,-6.0,0
58.0,-389.0,-123.0,-405.0,-249.0,-16.0,0
55.0,-400.0,-119.0,-405.0,-203.0,-41.0,0
49.0,-405.0,-119.0,-460.0,-173.0,-58.0,0
43.0,-403.0,-124.0,-533.0,-155.0,-51.0,0
39.0,-404.0,-134.0,-601.0,-146.0,-27.0,0
40.0,-394.0,-143.0,-665.0,-151.0,-1.0,0
35.0,-382.0,-159.0,-718.0,-181.0,33.0,0
36.0,-373.0,-160.0,-773.0,-222.0,53.0,0
31.0,-368.0,-164.0,-795.0,-269.0,66.0,0
33.0,-366.0,-167.0,-797.0,-314.0,77.0,0
41.0,-369.0,-161.0,-781.0,-341.0,91.0,0
50.0,-381.0,-187.0,-742.0,-356.0,100.0,0
45.0,-382.0,-149.0,-677.0,-353.0,97.0,0
47.0,-388.0,-147.0,-596.0,-347.0,95.0,0
43.0,-390.0,-153.0,-512.0,-341.0,88.0,0
51.0,-394.0,-155.0,-445.0,-331.0,85.0,0
44.0,-391.0,-161.0,-388.0,-331.0,59.0,0
41.0,-392.0,-165.0,-339.0,-333.0,28.0,0
27.0,-390.0,-156.0,-306.0,-303.0,-4.0,0
24.0,-400.0,-161.0,-276.0,-285.0,-28.0,0
19.0,-390.0,-152.0,-237.0,-274.0,-43.0,0
20.0,-390.0,-146.0,-190.0,-259.0,-55.0,0
23.0,-387.0,-154.0,-139.0,-240.0,-64.0,0
25.0,-375.0,-155.0,-96.0,-199.0,-82.0,0
27.0,-362.0,-157.0,-56.0,-147.0,-87.0,0
27.0,-353.0,-153.0,-30.0,-96.0,-89.0,0
26.0,-337.0,-153.0,-19.0,-55.0,-87.0,0
27.0,-330.0,-154.0,-10.0,-20.0,-88.0,0
26.0,-321.0,-147.0,-5.0,-1.0,-88.0,0
27.0,-313.0,-147.0,9.0,7.0,-92.0,0
32.0,-302.0,-149.0,28.0,6.0,-96.0,0
30.0,-289.0,-147.0,50.0,4.0,-105.0,0
29.0,-277.0,-144.0,87.0,13.0,-103.0,0
24.0,-265.0,-145.0,122.0,23.0,-106.0,0
18.0,-254.0,-141.0,150.0,28.0,-106.0,0
12.0,-244.0,-142.0,166.0,20.0,-101.0,0
4.0,-237.0,-140.0,161.0,-3.0,-85.0,0
5.0,-226.0,-136.0,148.0,-29.0,-64.0,0
1.0,-220.0,-134.0,121.0,-45.0,-47.0,0
4.0,-217.0,-129.0,102.0,-61.0,-46.0,0
-2.0,-208.0,-125.0,85.0,-76.0,-52.0,0
-7.0,-202.0,-123.0,89.0,-91.0,-56.0,0
-6.0,-194.0,-114.0,106.0,-110.0,-43.0,0
1.0,-192.0,-114.0,138.0,-133.0,-31.0,0
-5.0,-189.0,-111.0,172.0,-150.0,-24.0,0
-1.0,-181.0,-104.0,208.0,-163.0,-18.0,0
4.0,-177.0,-106.0,241.0,-167.0,-12.0,0
5.0,-169.0,-101.0,257.0,-160.0,-1.0,0
5.0,-167.0,-103.0,272.0,-147.0,12.0,0
10.0,-165.0,-91.0,281.0,-137.0,11.0,0
7.0,-160.0,-91.0,298.0,-140.0,7.0,0
2.0,-158.0,-89.0,327.0,-146.0,13.0,0
7.0,-153.0,-85.0,365.0,-157.0,25.0,0
7.0,-150.0,-87.0,400.0,-173.0,33.0,0
10.0,-144.0,-86.0,434.0,-187.0,44.0,0
15.0,-138.0,-92.0,463.0,-196.0,44.0,0
17.0,-134.0,-87.0,490.0,-195.0,39.0,0
18.0,-130.0,-84.0,519.0,-183.0,22.0,0
17.0,-125.0,-82.0,552.0,-154.0,3.0,0
12.0,-117.0,-84.0,595.0,-125.0,-10.0,0
14.0,-110.0,-85.0,629.0,-96.0,-14.0,0
12.0,-107.0,-78.0,642.0,-67.0,-14.0,0
8.0,-105.0,-80.0,653.0,-42.0,-8.0,0
4.0,-105.0,-85.0,653.0,-30.0,-4.0,0
1.0,-104.0,-86.0,644.0,-36.0,-5.0,0
4.0,-106.0,-89.0,630.0,-52.0,-12.0,0
0.0,-109.0,-91.0,622.0,-60.0,-15.0,0
0.0,-108.0,-89.0,619.0,-54.0,-12.0,0
-7.0,-109.0,-90.0,626.0,-48.0,-9.0,0
-5.0,-111.0,-86.0,637.0,-39.0,-8.0,0
-3.0,-109.0,-92.0,656.0,-28.0,-4.0,0
-7.0,-114.0,-77.0,684.0,-18.0,-1.0,0
5.0,-118.0,-86.0,747.0,-19.0,13.0,0
10.0,-120.0,-88.0,809.0,-19.0,0.0,0
13.0,-123.0,-95.0,854.0,-27.0,-23.0,0
10.0,-124.0,-93.0,884.0,-38.0,-46.0,0
8.0,-122.0,-97.0,916.0,-40.0,-46.0,0
8.0,-118.0,-102.0,943.0,-33.0,-34.0,0
13.0,-112.0,-109.0,956.0,-26.0,-22.0,0
13.0,-111.0,-110.0,942.0,-23.0,-9.0,0
14.0,-109.0,-105.0,923.0,-20.0,4.0,0
16.0,-109.0,-107.0,924.0,-18.0,7.0,0
16.0,-105.0,-110.0,921.0,-12.0,5.0,0
18.0,-104.0,-114.0,905.0,3.0,3.0,0
13.0,-101.0,-116.0,886.0,21.0,7.0,0
13.0,-100.0,-116.0,867.0,43.0,11.0,0
7.0,-100.0,-116.0,848.0,60.0,18.0,0
5.0,-97.0,-121.0,821.0,64.0,22.0,0
7.0,-102.0,-116.0,777.0,64.0,34.0,0
12.0,-104.0,-115.0,733.0,59.0,44.0,0
11.0,-104.0,-120.0,689.0,63.0,61.0,0
18.0,-107.0,-97.0,624.0,66.0,73.0,0
15.0,-109.0,-106.0,605.0,76.0,69.0,0
18.0,-110.0,-106.0,581.0,77.0,60.0,0
13.0,-115.0,-97.0,556.0,69.0,58.0,0
13.0,-119.0,-100.0,536.0,59.0,55.0,0
15.0,-123.0,-97.0,515.0,51.0,58.0,0
15.0,-131.0,-99.0,506.0,45.0,57.0,0
17.0,-132.0,-102.0,504.0,44.0,55.0,0
26.0,-140.0,-104.0,502.0,49.0,51.0,0
32.0,-149.0,-103.0,496.0,71.0,40.0,0
28.0,-150.0,-94.0,494.0,95.0,19.0,0
29.0,-155.0,-81.0,519.0,102.0,3.0,0
25.0,-160.0,-84.0,544.0,95.0,-13.0,0
25.0,-164.0,-80.0,538.0,89.0,-19.0,0
27.0,-171.0,-83.0,523.0,94.0,-29.0,0
26.0,-177.0,-79.0,516.0,104.0,-42.0,0
16.0,-178.0,-90.0,519.0,111.0,-58.0,0
16.0,-182.0,-92.0,527.0,117.0,-63.0,0
11.0,-187.0,-104.0,522.0,124.0,-64.0,0
6.0,-188.0,-106.0,502.0,124.0,-48.0,0
3.0,-194.0,-113.0,462.0,110.0,-27.0,0
1.0,-197.0,-116.0,418.0,95.0,-7.0,0
1.0,-204.0,-122.0,369.0,87.0,2.0,0
-4.0,-203.0,-125.0,312.0,74.0,13.0,0
-8.0,-213.0,-124.0,253.0,56.0,23.0,0
-8.0,-219.0,-130.0,192.0,36.0,40.0,0
-10.0,-229.0,-121.0,132.0,18.0,50.0,0
-5.0,-239.0,-119.0,79.0,3.0,59.0,0
-1.0,-239.0,-115.0,32.0,-6.0,66.0,0
8.0,-250.0,-108.0,-13.0,-2.0,74.0,0
16.0,-258.0,-104.0,-45.0,11.0,70.0,0
21.0,-261.0,-91.0,-56.0,23.0,67.0,0
23.0,-263.0,-88.0,-48.0,32.0,54.0,0
35.0,-273.0,-85.0,-19.0,34.0,40.0,0
34.0,-270.0,-83.0,25.0,35.0,20.0,0
39.0,-265.0,-87.0,76.0,32.0,12.0,0
37.0,-263.0,-86.0,125.0,31.0,3.0,0
39.0,-253.0,-91.0,165.0,23.0,0.0,0
39.0,-248.0,-91.0,181.0,9.0,-5.0,0
32.0,-241.0,-95.0,177.0,-6.0,0.0,0
30.0,-236.0,-100.0,154.0,-14.0,15.0,0
32.0,-233.0,-103.0,107.0,-14.0,30.0,0
25.0,-235.0,-98.0,50.0,-6.0,41.0,0
23.0,-239.0,-95.0,-7.0,4.0,58.0,0
19.0,-245.0,-92.0,-54.0,11.0,67.0,0
16.0,-254.0,-88.0,-86.0,14.0,76.0,0
13.0,-260.0,-88.0,-101.0,12.0,78.0,0
8.0,-261.0,-85.0,-104.0,5.0,80.0,0
7.0,-265.0,-90.0,-97.0,-1.0,76.0,0
10.0,-270.0,-91.0,-78.0,-7.0,73.0,0
9.0,-267.0,-92.0,-48.0,-5.0,67.0,0
11.0,-260.0,-84.0,-7.0,6.0,60.0,0
10.0,-252.0,-88.0,26.0,15.0,48.0,0
9.0,-247.0,-86.0,49.0,21.0,40.0,0
10.0,-240.0,-85.0,62.0,21.0,28.0,0
14.0,-234.0,-86.0,63.0,21.0,21.0,0
14.0,-230.0,-87.0,68.0,21.0,10.0,0
18.0,-230.0,-90.0,63.0,30.0,5.0,0
18.0,-232.0,-87.0,39.0,41.0,-2.0,0
20.0,-234.0,-79.0,7.0,51.0,-4.0,0
21.0,-238.0,-77.0,-23.0,58.0,-5.0,0
20.0,-247.0,-69.0,-50.0,67.0,-1.0,0
22.0,-255.0,-58.0,-67.0,76.0,1.0,0
20.0,-262.0,-58.0,-68.0,81.0,7.0,0
21.0,-263.0,-56.0,-54.0,80.0,10.0,0
21.0,-267.0,-52.0,-27.0,74.0,16.0,0
20.0,-267.0,-52.0,8.0,68.0,19.0,0
17.0,-261.0,-54.0,37.0,59.0,23.0,0
16.0,-257.0,-63.0,55.0,51.0,29.0,0
15.0,-255.0,-61.0,64.0,42.0,37.0,0
15.0,-253.0,-59.0,68.0,34.0,41.0,0
15.0,-247.0,-62.0,66.0,27.0,46.0,0
17.0,-246.0,-62.0,53.0,22.0,45.0,0
16.0,-240.0,-63.0,31.0,21.0,47.0,0
13.0,-240.0,-72.0,3.0,22.0,43.0,0
13.0,-237.0,-73.0,-31.0,23.0,41.0,0
13.0,-237.0,-73.0,-64.0,24.0,34.0,0
9.0,-240.0,-76.0,-92.0,28.0,31.0,0
10.0,-239.0,-71.0,-112.0,32.0,23.0,0
10.0,-244.0,-68.0,-124.0,38.0,18.0,0
12.0,-247.0,-65.0,-122.0,43.0,11.0,0
16.0,-249.0,-62.0,-114.0,49.0,7.0,0
16.0,-253.0,-60.0,-104.0,54.0,0.0,0
19.0,-258.0,-59.0,-94.0,60.0,-1.0,0
19.0,-259.0,-58.0,-81.0,67.0,-1.0,0
18.0,-261.0,-56.0,-68.0,76.0,4.0,0
21.0,-262.0,-55.0,-54.0,80.0,7.0,0
19.0,-264.0,-55.0,-40.0,80.0,10.0,0
18.0,-262.0,-56.0,-26.0,73.0,12.0,0
18.0,-262.0,-53.0,-16.0,75.0,17.0,0
20.0,-260.0,-55.0,-3.0,94.0,22.0,0
22.0,-254.0,-45.0,2.0,119.0,27.0,0
23.0,-256.0,-57.0,6.0,121.0,29.0,0
19.0,-251.0,-57.0,11.0,95.0,27.0,0
20.0,-247.0,-60.0,13.0,81.0,19.0,0
17.0,-243.0,-58.0,5.0,85.0,18.0,0
15.0,-242.0,-58.0,-13.0,100.0,15.0,0
14.0,-242.0,-58.0,-39.0,111.0,15.0,0
8.0,-241.0,-60.0,-69.0,111.0,12.0,0
12.0,-249.0,-54.0,-93.0,107.0,9.0,0
6.0,-250.0,-55.0,-109.0,105.0,5.0,0
10.0,-255.0,-56.0,-114.0,108.0,5.0,0
8.0,-254.0,-56.0,-104.0,114.0,4.0,0
12.0,-257.0,-53.0,-85.0,118.0,7.0,0
10.0,-258.0,-57.0,-66.0,121.0,7.0,0
9.0,-260.0,-54.0,-43.0,120.0,11.0,0
10.0,-256.0,-58.0,-23.0,118.0,12.0,0
10.0,-255.0,-55.0,-13.0,113.0,18.0,0
11.0,-254.0,-54.0,-9.0,108.0,21.0,0
12.0,-255.0,-49.0,-8.0,107.0,26.0,0
13.0,-258.0,-55.0,-11.0,103.0,29.0,0
13.0,-256.0,-57.0,-15.0,101.0,32.0,0
16.0,-255.0,-57.0,-18.0,104.0,33.0,0
15.0,-255.0,-56.0,-18.0,107.0,33.0,0
13.0,-254.0,-56.0,-11.0,110.0,30.0,0
12.0,-252.0,-57.0,-3.0,109.0,32.0,0
11.0,-251.0,-59.0,1.0,106.0,28.0,0
10.0,-253.0,-57.0,3.0,101.0,25.0,0
11.0,-251.0,-56.0,-2.0,97.0,19.0,0
10.0,-249.0,-59.0,-10.0,95.0,17.0,0
9.0,-248.0,-58.0,-24.0,93.0,11.0,0
5.0,-246.0,-57.0,-39.0,94.0,8.0,0
5.0,-247.0,-56.0,-53.0,95.0,3.0,0
8.0,-247.0,-56.0,-65.0,91.0,2.0,0
10.0,-255.0,-56.0,-73.0,87.0,-2.0,0
6.0,-252.0,-55.0,-72.0,85.0,0.0,0
8.0,-255.0,-53.0,-67.0,84.0,-2.0,0
11.0,-255.0,-55.0,-57.0,83.0,1.0,0
7.0,-257.0,-56.0,-44.0,80.0,0.0,0
10.0,-255.0,-51.0,-32.0,78.0,4.0,0
14.0,-255.0,-55.0,-19.0,75.0,5.0,0
15.0,-253.0,-55.0,-7.0,74.0,9.0,0
17.0,-255.0,-52.0,5.0,77.0,12.0,0
16.0,-254.0,-57.0,17.0,80.0,15.0,0
14.0,-253.0,-58.0,27.0,77.0,16.0,0
16.0,-251.0,-55.0,30.0,74.0,16.0,0
14.0,-248.0,-58.0,23.0,71.0,15.0,0
15.0,-251.0,-61.0,10.0,68.0,19.0,0
12.0,-249.0,-59.0,0.0,66.0,15.0,0
13.0,-248.0,-58.0,-4.0,65.0,13.0,0
10.0,-247.0,-55.0,-15.0,62.0,6.0,0
9.0,-250.0,-55.0,-25.0,57.0,3.0,0
11.0,-251.0,-56.0,-36.0,55.0,-1.0,0
11.0,-251.0,-54.0,-48.0,58.0,-2.0,0
9.0,-252.0,-56.0,-58.0,62.0,-7.0,0
9.0,-254.0,-53.0,-68.0,63.0,-9.0,0
10.0,-253.0,-55.0,-68.0,61.0,-12.0,0
12.0,-255.0,-58.0,-60.0,64.0,-13.0,0
11.0,-254.0,-58.0,-47.0,72.0,-13.0,0
8.0,-254.0,-55.0,-36.0,80.0,-13.0,0
11.0,-253.0,-55.0,-30.0,85.0,-13.0,0
7.0,-249.0,-53.0,-27.0,86.0,-10.0,0
11.0,-254.0,-54.0,-27.0,84.0,-9.0,0
13.0,-254.0,-56.0,-28.0,78.0,-2.0,0
11.0,-252.0,-55.0,-28.0,74.0,-1.0,0
10.0,-249.0,-57.0,-25.0,69.0,-1.0,0
12.0,-254.0,-54.0,-19.0,65.0,-4.0,0
11.0,-255.0,-54.0,-15.0,65.0,-2.0,0
12.0,-253.0,-56.0,-15.0,68.0,-6.0,0
11.0,-251.0,-56.0,-21.0,73.0,-7.0,0
14.0,-249.0,-54.0,-26.0,78.0,-11.0,0
13.0,-252.0,-57.0,-27.0,84.0,-11.0,0
11.0,-253.0,-54.0,-25.0,89.0,-15.0,0
10.0,-252.0,-57.0,-22.0,88.0,-16.0,0
10.0,-254.0,-58.0,-20.0,84.0,-20.0,0
8.0,-249.0,-57.0,-21.0,78.0,-21.0,0
7.0,-251.0,-58.0,-20.0,75.0,-24.0,0
8.0,-249.0,-57.0,-19.0,76.0,-20.0,0
8.0,-252.0,-59.0,-22.0,76.0,-21.0,0
4.0,-249.0,-58.0,-24.0,77.0,-17.0,0
8.0,-252.0,-56.0,-28.0,78.0,-14.0,0
7.0,-250.0,-58.0,-30.0,81.0,-10.0,0
12.0,-250.0,-58.0,-33.0,81.0,-9.0,0
5.0,-250.0,-60.0,-35.0,81.0,-5.0,0
8.0,-253.0,-57.0,-34.0,81.0,-4.0,0
10.0,-253.0,-59.0,-33.0,79.0,-1.0,0
8.0,-250.0,-56.0,-31.0,74.0,-3.0,0
8.0,-254.0,-59.0,-28.0,69.0,-1.0,0
7.0,-252.0,-56.0,-24.0,66.0,-4.0,0
10.0,-254.0,-59.0,-20.0,65.0,-1.0,0
10.0,-254.0,-54.0,-16.0,63.0,-3.0,0
12.0,-253.0,-55.0,-14.0,62.0,-3.0,0
11.0,-256.0,-54.0,-12.0,58.0,-4.0,0
10.0,-252.0,-59.0,-7.0,54.0,-7.0,0
10.0,-250.0,-56.0,-6.0,54.0,-7.0,0
9.0,-250.0,-55.0,-6.0,56.0,-7.0,0
9.0,-253.0,-56.0,-8.0,59.0,-10.0,0
9.0,-252.0,-59.0,-8.0,57.0,-10.0,0
9.0,-250.0,-57.0,-4.0,55.0,-14.0,0
13.0,-251.0,-63.0,2.0,53.0,-14.0,0
9.0,-252.0,-59.0,4.0,53.0,-16.0,0
6.0,-249.0,-63.0,1.0,52.0,-12.0,0
11.0,-250.0,-61.0,-5.0,51.0,-11.0,0
8.0,-250.0,-58.0,-13.0,49.0,-6.0,0
12.0,-251.0,-62.0,-19.0,47.0,-4.0,0
12.0,-249.0,-57.0,-25.0,44.0,-1.0,0
14.0,-249.0,-58.0,-28.0,45.0,0.0,0
13.0,-250.0,-53.0,-29.0,47.0,3.0,0
13.0,-251.0,-50.0,-28.0,50.0,3.0,0
15.0,-251.0,-53.0,-25.0,54.0,4.0,0
16.0,-256.0,-57.0,-19.0,56.0,2.0,0
16.0,-252.0,-56.0,-13.0,61.0,3.0,0
16.0,-254.0,-56.0,-7.0,65.0,0.0,0
17.0,-253.0,-55.0,-5.0,67.0,1.0,0
16.0,-252.0,-57.0,-3.0,67.0,0.0,0
14.0,-252.0,-59.0,-4.0,66.0,-2.0,0
11.0,-250.0,-60.0,-7.0,66.0,-6.0,0
12.0,-250.0,-60.0,-12.0,66.0,-4.0,0
13.0,-250.0,-61.0,-16.0,64.0,-7.0,0
13.0,-252.0,-58.0,-18.0,62.0,-6.0,0
11.0,-248.0,-58.0,-18.0,64.0,-9.0,0
12.0,-248.0,-59.0,-19.0,69.0,-7.0,0
13.0,-252.0,-57.0,-18.0,71.0,-10.0,0
11.0,-250.0,-59.0,-18.0,73.0,-9.0,0
12.0,-248.0,-62.0,-14.0,75.0,-11.0,0
11.0,-251.0,-54.0,-14.0,77.0,-9.0,0
13.0,-254.0,-58.0,-12.0,75.0,-10.0,0
13.0,-250.0,-60.0,-16.0,73.0,-7.0,0
12.0,-250.0,-61.0,-19.0,71.0,-8.0,0
13.0,-253.0,-61.0,-23.0,67.0,-5.0,0
11.0,-250.0,-58.0,-26.0,66.0,-6.0,0
11.0,-251.0,-58.0,-29.0,65.0,-5.0,0
10.0,-251.0,-56.0,-30.0,65.0,-5.0,0
14.0,-257.0,-57.0,-29.0,68.0,-5.0,0
12.0,-252.0,-55.0,-22.0,71.0,-4.0,0
10.0,-253.0,-57.0,-14.0,70.0,-4.0,0
10.0,-254.0,-57.0,-4.0,71.0,-6.0,0
12.0,-252.0,-58.0,4.0,72.0,-8.0,0
11.0,-250.0,-54.0,7.0,71.0,-10.0,0
14.0,-252.0,-56.0,7.0,72.0,-8.0,0
13.0,-250.0,-58.0,7.0,73.0,-12.0,0
15.0,-247.0,-59.0,8.0,73.0,-12.0,0
14.0,-248.0,-62.0,5.0,74.0,-13.0,0
16.0,-248.0,-59.0,1.0,74.0,-10.0,0
18.0,-248.0,-58.0,-6.0,75.0,-11.0,0
16.0,-248.0,-60.0,-14.0,75.0,-8.0,0
16.0,-245.0,-56.0,-26.0,75.0,-9.0,0
17.0,-248.0,-55.0,-34.0,75.0,-5.0,0
15.0,-248.0,-54.0,-40.0,76.0,-7.0,0
13.0,-249.0,-57.0,-36.0,76.0,-4.0,0
19.0,-250.0,-54.0,-29.0,77.0,-6.0,0
16.0,-252.0,-62.0,-23.0,76.0,-5.0,0
12.0,-248.0,-57.0,-22.0,76.0,-7.0,0
15.0,-251.0,-57.0,-22.0,76.0,-8.0,0
13.0,-253.0,-60.0,-27.0,75.0,-10.0,0
10.0,-253.0,-58.0,-29.0,75.0,-9.0,0
10.0,-250.0,-58.0,-36.0,74.0,-8.0,0
9.0,-251.0,-62.0,-38.0,73.0,-7.0,0
12.0,-255.0,-55.0,-40.0,72.0,-7.0,0
14.0,-253.0,-56.0,-40.0,70.0,-4.0,0
13.0,-254.0,-57.0,-37.0,67.0,-4.0,0
12.0,-254.0,-57.0,-31.0,67.0,-2.0,0
13.0,-253.0,-53.0,-21.0,68.0,-4.0,0
13.0,-254.0,-55.0,-12.0,67.0,-3.0,0
13.0,-251.0,-58.0,-3.0,65.0,-4.0,0
14.0,-251.0,-55.0,5.0,64.0,-3.0,0
12.0,-247.0,-60.0,7.0,63.0,-5.0,0
13.0,-248.0,-58.0,4.0,62.0,-3.0,0
14.0,-247.0,-60.0,-4.0,60.0,-6.0,0
15.0,-247.0,-57.0,-18.0,58.0,-6.0,0
13.0,-245.0,-57.0,-28.0,58.0,-5.0,0
15.0,-251.0,-57.0,-37.0,55.0,-5.0,0
11.0,-249.0,-56.0,-40.0,52.0,-6.0,0
13.0,-253.0,-54.0,-41.0,49.0,-5.0,0
14.0,-256.0,-56.0,-40.0,50.0,-6.0,0
14.0,-253.0,-54.0,-37.0,52.0,-6.0,0
15.0,-255.0,-56.0,-31.0,55.0,-6.0,0
17.0,-255.0,-53.0,-28.0,59.0,-4.0,0
17.0,-255.0,-55.0,-26.0,61.0,-3.0,0
17.0,-255.0,-58.0,-22.0,64.0,-1.0,0
13.0,-250.0,-58.0,-19.0,64.0,-2.0,0
15.0,-253.0,-58.0,-18.0,64.0,-2.0,0
12.0,-251.0,-58.0,-16.0,65.0,-4.0,0
16.0,-252.0,-58.0,-18.0,62.0,-2.0,0
18.0,-254.0,-57.0,-20.0,60.0,-2.0,0
13.0,-250.0,-59.0,-18.0,60.0,-1.0,0
13.0,-247.0,-58.0,-17.0,61.0,-2.0,0
15.0,-250.0,-56.0,-13.0,65.0,0.0,0
15.0,-250.0,-56.0,-12.0,65.0,-1.0,0
32.0,-246.0,-76.0,-12.0,67.0,0.0,0
14.0,-249.0,-58.0,-13.0,67.0,-2.0,0
15.0,-249.0,-60.0,-17.0,69.0,-1.0,0
13.0,-250.0,-57.0,-21.0,73.0,-3.0,0
14.0,-249.0,-57.0,-26.0,74.0,-3.0,0
14.0,-249.0,-59.0,-28.0,73.0,-6.0,0
11.0,-250.0,-57.0,-29.0,74.0,-4.0,0
10.0,-252.0,-62.0,-30.0,75.0,-6.0,0
12.0,-255.0,-55.0,-30.0,76.0,-5.0,0
14.0,-252.0,-58.0,-27.0,75.0,-6.0,0
12.0,-253.0,-59.0,-26.0,75.0,-3.0,0
14.0,-254.0,-55.0,-21.0,76.0,-2.0,0
15.0,-255.0,-57.0,-18.0,77.0,0.0,0
15.0,-253.0,-55.0,-15.0,74.0,-1.0,0
12.0,-254.0,-53.0,-12.0,72.0,1.0,0
10.0,-252.0,-58.0,-7.0,69.0,1.0,0
12.0,-249.0,-57.0,-1.0,65.0,4.0,0
13.0,-248.0,-56.0,4.0,61.0,5.0,0
12.0,-247.0,-56.0,6.0,58.0,5.0,0
12.0,-246.0,-61.0,4.0,56.0,3.0,0
12.0,-246.0,-56.0,-5.0,54.0,4.0,0
14.0,-246.0,-60.0,-16.0,54.0,2.0,0
14.0,-243.0,-45.0,-25.0,52.0,4.0,0
15.0,-244.0,-64.0,-33.0,52.0,1.0,0
15.0,-249.0,-57.0,-35.0,53.0,2.0,0
17.0,-251.0,-52.0,-37.0,56.0,0.0,0
15.0,-252.0,-52.0,-34.0,60.0,0.0,0
7.0,-257.0,-51.0,-30.0,62.0,-2.0,0
10.0,-257.0,-63.0,-25.0,62.0,-2.0,0
14.0,-248.0,-56.0,-21.0,62.0,-2.0,0
18.0,-254.0,-58.0,-15.0,64.0,-1.0,0
11.0,-246.0,-60.0,-12.0,63.0,-4.0,0
14.0,-242.0,-64.0,-11.0,64.0,-3.0,0
7.0,-253.0,-62.0,-10.0,64.0,-4.0,0
13.0,-253.0,-57.0,-12.0,64.0,-3.0,0
7.0,-250.0,-59.0,-13.0,62.0,-3.0,0
12.0,-243.0,-59.0,-18.0,59.0,0.0,0
13.0,-249.0,-57.0,-19.0,56.0,-1.0,0
15.0,-250.0,-57.0,-20.0,57.0,-1.0,0
12.0,-251.0,-59.0,-14.0,55.0,-1.0,0
15.0,-248.0,-60.0,-8.0,56.0,0.0,0
14.0,-246.0,-60.0,-3.0,57.0,-3.0,0
18.0,-248.0,-62.0,-4.0,58.0,-2.0,0
16.0,-245.0,-61.0,-8.0,60.0,-3.0,0
13.0,-247.0,-61.0,-17.0,62.0,-2.0,0
13.0,-247.0,-59.0,-27.0,64.0,-3.0,0
13.0,-250.0,-58.0,-34.0,63.0,-3.0,0
13.0,-250.0,-57.0,-38.0,64.0,-4.0,0
16.0,-251.0,-58.0,-39.0,68.0,-4.0,0
15.0,-255.0,-56.0,-36.0,69.0,-5.0,0
13.0,-254.0,-56.0,-29.0,69.0,-3.0,0
12.0,-254.0,-55.0,-19.0,70.0,-4.0,0
14.0,-257.0,-53.0,-13.0,69.0,-3.0,0
15.0,-255.0,-58.0,-8.0,67.0,-4.0,0
14.0,-253.0,-57.0,-4.0,66.0,-2.0,0
17.0,-253.0,-57.0,-3.0,65.0,-3.0,0
15.0,-254.0,-58.0,1.0,64.0,-1.0,0
13.0,-250.0,-62.0,3.0,66.0,0.0,0
15.0,-250.0,-61.0,4.0,67.0,3.0,0
17.0,-250.0,-60.0,4.0,69.0,4.0,0
17.0,-248.0,-59.0,3.0,69.0,4.0,0
18.0,-248.0,-62.0,-2.0,67.0,1.0,0
15.0,-244.0,-59.0,-8.0,70.0,2.0,0
17.0,-244.0,-59.0,-11.0,71.0,0.0,0
18.0,-249.0,-60.0,-15.0,74.0,0.0,0
15.0,-248.0,-58.0,-18.0,77.0,-2.0,0
12.0,-247.0,-56.0,-22.0,78.0,-3.0,0
13.0,-250.0,-65.0,-26.0,79.0,-4.0,0
12.0,-246.0,-57.0,-29.0,79.0,-3.0,0
14.0,-252.0,-57.0,-35.0,81.0,-4.0,0
14.0,-255.0,-59.0,-37.0,82.0,-5.0,0
14.0,-253.0,-57.0,-38.0,82.0,-7.0,0
14.0,-255.0,-57.0,-39.0,79.0,-5.0,0
13.0,-255.0,-58.0,-37.0,77.0,-7.0,0
12.0,-256.0,-59.0,-31.0,79.0,-6.0,0
13.0,-256.0,-59.0,-22.0,81.0,-4.0,0
12.0,-257.0,-58.0,-13.0,83.0,-1.0,0
13.0,-254.0,-57.0,-4.0,83.0,0.0,0
14.0,-253.0,-57.0,4.0,80.0,0.0,0
14.0,-252.0,-61.0,12.0,77.0,0.0,0
14.0,-248.0,-56.0,17.0,75.0,2.0,0
12.0,-247.0,-58.0,20.0,73.0,1.0,0
12.0,-248.0,-58.0,20.0,71.0,3.0,0
13.0,-244.0,-59.0,16.0,69.0,1.0,0
12.0,-245.0,-57.0,11.0,66.0,0.0,0
11.0,-245.0,-62.0,0.0,60.0,-2.0,0
13.0,-245.0,-58.0,-11.0,59.0,-2.0,0
11.0,-248.0,-56.0,-20.0,60.0,-2.0,0
12.0,-248.0,-57.0,-27.0,62.0,-2.0,0
11.0,-248.0,-61.0,-31.0,61.0,-4.0,0
13.0,-252.0,-58.0,-34.0,62.0,-3.0,0
13.0,-257.0,-58.0,-33.0,62.0,-2.0,0
15.0,-251.0,-59.0,-31.0,62.0,0.0,0
12.0,-254.0,-60.0,-29.0,61.0,-1.0,0
12.0,-253.0,-58.0,-25.0,60.0,0.0,0
15.0,-250.0,-58.0,-22.0,58.0,-1.0,0
15.0,-252.0,-57.0,-20.0,59.0,-2.0,0
12.0,-252.0,-57.0,-17.0,60.0,-3.0,0
14.0,-249.0,-60.0,-14.0,60.0,-1.0,0
16.0,-250.0,-57.0,-12.0,60.0,-2.0,0
14.0,-249.0,-61.0,-11.0,62.0,-1.0,0
12.0,-249.0,-58.0,-10.0,65.0,-3.0,0
16.0,-247.0,-60.0,-9.0,68.0,0.0,0
14.0,-245.0,-59.0,-6.0,71.0,-2.0,0
16.0,-247.0,-57.0,-5.0,74.0,-2.0,0
14.0,-249.0,-60.0,-7.0,77.0,-3.0,0
16.0,-246.0,-62.0,-12.0,79.0,-2.0,0
16.0,-248.0,-57.0,-20.0,80.0,-3.0,0
13.0,-248.0,-59.0,-27.0,79.0,-3.0,0
16.0,-249.0,-58.0,-32.0,77.0,-6.0,0
12.0,-251.0,-57.0,-35.0,76.0,-6.0,0
11.0,-251.0,-59.0,-37.0,75.0,-7.0,0
12.0,-253.0,-59.0,-36.0,73.0,-7.0,0
13.0,-253.0,-59.0,-33.0,75.0,-8.0,0
12.0,-257.0,-57.0,-31.0,74.0,-8.0,0
10.0,-253.0,-57.0,-27.0,73.0,-8.0,0
12.0,-256.0,-59.0,-26.0,75.0,-8.0,0
9.0,-255.0,-56.0,-23.0,75.0,-7.0,0
10.0,-257.0,-60.0,-19.0,76.0,-5.0,0
13.0,-254.0,-57.0,-15.0,77.0,-4.0,0
12.0,-255.0,-58.0,-10.0,78.0,-2.0,0
16.0,-253.0,-59.0,-3.0,80.0,-2.0,0
11.0,-250.0,-57.0,4.0,81.0,2.0,0
14.0,-250.0,-58.0,8.0,79.0,1.0,0
14.0,-250.0,-60.0,11.0,77.0,3.0,0
14.0,-246.0,-59.0,8.0,76.0,1.0,0
13.0,-248.0,-57.0,3.0,76.0,2.0,0
14.0,-247.0,-61.0,0.0,76.0,0.0,0
10.0,-247.0,-58.0,-5.0,74.0,1.0,0
11.0,-248.0,-60.0,-11.0,72.0,0.0,0
11.0,-247.0,-59.0,-16.0,71.0,-1.0,0
12.0,-249.0,-60.0,-22.0,72.0,-3.0,0
13.0,-250.0,-60.0,-23.0,73.0,-5.0,0
10.0,-249.0,-57.0,-22.0,74.0,-7.0,0
10.0,-249.0,-57.0,-21.0,75.0,-5.0,0
11.0,-256.0,-57.0,-18.0,73.0,-6.0,0
12.0,-250.0,-56.0,-15.0,74.0,-4.0,0
14.0,-254.0,-56.0,-11.0,73.0,-5.0,0
11.0,-251.0,-56.0,-9.0,73.0,-3.0,0
13.0,-255.0,-58.0,-5.0,74.0,-3.0,0
13.0,-253.0,-58.0,-2.0,72.0,-1.0,0
11.0,-254.0,-59.0,1.0,71.0,2.0,0
15.0,-256.0,-57.0,3.0,69.0,4.0,0
12.0,-252.0,-56.0,-1.0,68.0,5.0,0
13.0,-253.0,-56.0,-1.0,65.0,5.0,0
12.0,-253.0,-61.0,0.0,65.0,4.0,0
15.0,-252.0,-58.0,3.0,64.0,4.0,0
11.0,-251.0,-59.0,6.0,62.0,1.0,0
14.0,-248.0,-60.0,8.0,64.0,1.0,0
14.0,-248.0,-56.0,7.0,64.0,-2.0,0
15.0,-246.0,-62.0,1.0,63.0,-3.0,0
14.0,-247.0,-60.0,-6.0,63.0,-4.0,0
14.0,-252.0,-58.0,-12.0,64.0,-5.0,0
16.0,-249.0,-58.0,-15.0,64.0,-6.0,0
13.0,-249.0,-61.0,-14.0,65.0,-6.0,0
16.0,-251.0,-59.0,-16.0,65.0,-7.0,0
11.0,-247.0,-59.0,-17.0,65.0,-7.0,0
12.0,-250.0,-57.0,-18.0,66.0,-9.0,0
11.0,-253.0,-56.0,-19.0,65.0,-7.0,0
12.0,-254.0,-58.0,-19.0,65.0,-7.0,0
13.0,-256.0,-56.0,-20.0,64.0,-5.0,0
12.0,-252.0,-60.0,-22.0,63.0,-5.0,0
13.0,-251.0,-59.0,-22.0,63.0,-5.0,0
14.0,-253.0,-61.0,-19.0,64.0,-3.0,0
15.0,-253.0,-59.0,-14.0,67.0,-1.0,0
14.0,-249.0,-58.0,-11.0,68.0,0.0,0
13.0,-250.0,-59.0,-8.0,69.0,2.0,0
16.0,-252.0,-61.0,-10.0,67.0,2.0,0
13.0,-247.0,-58.0,-10.0,65.0,4.0,0
16.0,-249.0,-58.0,-10.0,63.0,2.0,0
15.0,-248.0,-61.0,-7.0,59.0,2.0,0
15.0,-248.0,-61.0,-3.0,58.0,1.0,0
14.0,-249.0,-61.0,0.0,58.0,-1.0,0
15.0,-247.0,-59.0,-5.0,59.0,-3.0,0
15.0,-248.0,-60.0,-13.0,61.0,-4.0,0
15.0,-247.0,-63.0,-26.0,64.0,-7.0,0
13.0,-252.0,-57.0,-34.0,68.0,-9.0,0
16.0,-250.0,-57.0,-38.0,73.0,-10.0,0
13.0,-251.0,-57.0,-36.0,76.0,-9.0,0
16.0,-256.0,-61.0,-30.0,78.0,-8.0,0
15.0,-254.0,-57.0,-23.0,79.0,-9.0,0
17.0,-255.0,-58.0,-16.0,79.0,-9.0,0
13.0,-257.0,-55.0,-7.0,78.0,-8.0,0
15.0,-253.0,-55.0,-1.0,79.0,-8.0,0
17.0,-255.0,-56.0,4.0,80.0,-5.0,0
13.0,-251.0,-56.0,7.0,80.0,-5.0,0
13.0,-250.0,-57.0,5.0,78.0,-2.0,0
13.0,-249.0,-57.0,3.0,78.0,-3.0,0
14.0,-248.0,-57.0,-1.0,76.0,-1.0,0
13.0,-250.0,-59.0,-5.0,76.0,-3.0,0
12.0,-248.0,-62.0,-9.0,74.0,-2.0,0
14.0,-249.0,-58.0,-12.0,74.0,-4.0,0
16.0,-252.0,-58.0,-14.0,75.0,-5.0,0
13.0,-252.0,-58.0,-14.0,75.0,-6.0,0
12.0,-250.0,-58.0,-15.0,72.0,-7.0,0
11.0,-251.0,-58.0,-13.0,72.0,-7.0,0
12.0,-256.0,-62.0,-11.0,71.0,-4.0,0
13.0,-250.0,-58.0,-9.0,73.0,-3.0,0
14.0,-251.0,-58.0,-8.0,74.0,-2.0,0
17.0,-255.0,-56.0,-6.0,76.0,-1.0,0
13.0,-252.0,-60.0,-5.0,76.0,1.0,0
13.0,-249.0,-56.0,-5.0,75.0,0.0,0
14.0,-254.0,-58.0,-7.0,72.0,0.0,0
13.0,-252.0,-56.0,-8.0,70.0,0.0,0
12.0,-250.0,-59.0,-10.0,69.0,-1.0,0
11.0,-252.0,-60.0,-6.0,71.0,-3.0,0
12.0,-252.0,-60.0,-6.0,73.0,-3.0,0
13.0,-252.0,-59.0,-4.0,73.0,-4.0,0
15.0,-253.0,-57.0,-2.0,73.0,-1.0,0
12.0,-253.0,-58.0,-4.0,72.0,-2.0,0
16.0,-252.0,-56.0,-6.0,71.0,-3.0,0
17.0,-253.0,-56.0,-4.0,68.0,-3.0,0
16.0,-250.0,-56.0,-5.0,67.0,-4.0,0
14.0,-252.0,-60.0,-3.0,66.0,-1.0,0
13.0,-249.0,-56.0,-4.0,65.0,-2.0,0
13.0,-251.0,-54.0,-2.0,61.0,-2.0,0
13.0,-249.0,-59.0,2.0,57.0,0.0,0
9.0,-249.0,-60.0,4.0,56.0,-2.0,0
13.0,-251.0,-59.0,5.0,54.0,-1.0,0
11.0,-247.0,-60.0,6.0,54.0,-2.0,0
13.0,-252.0,-57.0,4.0,55.0,-2.0,0
14.0,-249.0,-57.0,1.0,57.0,-3.0,0
14.0,-250.0,-59.0,-3.0,60.0,-4.0,0
15.0,-251.0,-59.0,-8.0,61.0,-4.0,0
16.0,-251.0,-58.0,-12.0,62.0,-4.0,0
13.0,-251.0,-58.0,-14.0,63.0,-4.0,0
