ax,ay,az,gx,gy,gz,label
1.0,-250.0,-1.0,4.0,76.0,-6.0,0
0.0,-252.0,-1.0,3.0,81.0,-8.0,0
2.0,-253.0,1.0,2.0,84.0,-9.0,0
1.0,-246.0,0.0,0.0,89.0,-10.0,0
0.0,-249.0,0.0,-4.0,92.0,-9.0,0
5.0,-265.0,10.0,-7.0,95.0,-11.0,0
1.0,-251.0,1.0,-13.0,96.0,-12.0,0
3.0,-247.0,0.0,-16.0,100.0,-10.0,0
-2.0,-245.0,3.0,-20.0,102.0,-10.0,0
1.0,-248.0,1.0,-23.0,105.0,-9.0,0
2.0,-251.0,1.0,-27.0,106.0,-10.0,0
-2.0,-250.0,0.0,-26.0,107.0,-9.0,0
1.0,-249.0,3.0,-24.0,107.0,-13.0,0
-3.0,-249.0,1.0,-21.0,110.0,-11.0,0
-2.0,-249.0,1.0,-17.0,111.0,-13.0,0
-8.0,-249.0,-2.0,-13.0,113.0,-14.0,0
-7.0,-255.0,7.0,-10.0,116.0,-16.0,0
-2.0,-249.0,1.0,-6.0,116.0,-16.0,0
-2.0,-248.0,1.0,-5.0,118.0,-18.0,0
-3.0,-249.0,-5.0,-6.0,120.0,-18.0,0
-4.0,-248.0,1.0,-8.0,121.0,-21.0,0
-4.0,-249.0,2.0,-11.0,124.0,-21.0,0
-4.0,-249.0,-2.0,-13.0,125.0,-24.0,0
-5.0,-250.0,0.0,-16.0,126.0,-24.0,0
-6.0,-252.0,0.0,-16.0,127.0,-27.0,0
-1.0,-249.0,1.0,-16.0,130.0,-26.0,0
-8.0,-246.0,-21.0,-15.0,131.0,-30.0,0
-2.0,-253.0,5.0,-12.0,130.0,-28.0,0
-3.0,-251.0,0.0,-8.0,133.0,-31.0,0
-3.0,-252.0,0.0,-1.0,133.0,-28.0,0
-5.0,-253.0,4.0,4.0,132.0,-31.0,0
-3.0,-255.0,2.0,7.0,132.0,-29.0,0
-6.0,-249.0,0.0,9.0,132.0,-31.0,0
-6.0,-250.0,-4.0,7.0,130.0,-27.0,0
-9.0,-251.0,-1.0,4.0,131.0,-27.0,0
-6.0,-250.0,1.0,-1.0,128.0,-24.0,0
-5.0,-249.0,5.0,-8.0,125.0,-25.0,0
-11.0,-245.0,-3.0,-13.0,121.0,-22.0,0
-7.0,-248.0,-1.0,-16.0,118.0,-23.0,0
-5.0,-250.0,1.0,-21.0,115.0,-19.0,0
-4.0,-250.0,0.0,-23.0,111.0,-19.0,0
-5.0,-252.0,-1.0,-22.0,107.0,-15.0,0
-4.0,-254.0,1.0,-20.0,105.0,-15.0,0
-8.0,-251.0,-3.0,-17.0,101.0,-11.0,0
-7.0,-253.0,2.0,-12.0,99.0,-12.0,0
-9.0,-254.0,2.0,-8.0,96.0,-8.0,0
-6.0,-250.0,1.0,0.0,93.0,-11.0,0
-10.0,-250.0,0.0,5.0,90.0,-7.0,0
-7.0,-248.0,-4.0,12.0,87.0,-9.0,0
-9.0,-252.0,-1.0,15.0,84.0,-6.0,0
-7.0,-250.0,1.0,15.0,83.0,-8.0,0
-7.0,-249.0,-2.0,13.0,82.0,-6.0,0
-7.0,-248.0,-1.0,10.0,81.0,-10.0,0
-6.0,-252.0,1.0,7.0,82.0,-7.0,0
-7.0,-251.0,2.0,2.0,80.0,-10.0,0
-8.0,-249.0,2.0,-2.0,79.0,-7.0,0
-7.0,-253.0,3.0,-6.0,77.0,-11.0,0
-4.0,-253.0,0.0,-11.0,76.0,-6.0,0
-5.0,-254.0,0.0,-15.0,74.0,-8.0,0
4.0,-240.0,-19.0,-19.0,73.0,-6.0,0
-6.0,-250.0,1.0,-22.0,71.0,-7.0,0
-5.0,-251.0,1.0,-23.0,68.0,-4.0,0
-4.0,-251.0,2.0,-26.0,67.0,-7.0,0
-4.0,-248.0,1.0,-28.0,64.0,-4.0,0
-8.0,-249.0,1.0,-29.0,63.0,-6.0,0
-4.0,-246.0,0.0,-31.0,59.0,-4.0,0
-5.0,-248.0,3.0,-34.0,59.0,-5.0,0
-3.0,-249.0,2.0,-34.0,57.0,-3.0,0
-3.0,-250.0,1.0,-36.0,54.0,-3.0,0
-4.0,-247.0,-1.0,-38.0,55.0,-3.0,0
0.0,-254.0,-3.0,-39.0,54.0,-4.0,0
-4.0,-248.0,-1.0,-38.0,55.0,-2.0,0
-2.0,-251.0,-2.0,-35.0,57.0,-4.0,0
-2.0,-252.0,1.0,-30.0,58.0,-3.0,0
-4.0,-252.0,1.0,-25.0,60.0,-5.0,0
-2.0,-251.0,0.0,-22.0,61.0,-3.0,0
-2.0,-250.0,-2.0,-20.0,62.0,-6.0,0
-3.0,-252.0,-2.0,-17.0,62.0,-4.0,0
-4.0,-250.0,2.0,-16.0,62.0,-7.0,0
-1.0,-252.0,0.0,-15.0,61.0,-5.0,0
-4.0,-252.0,0.0,-18.0,60.0,-5.0,0
5.0,-245.0,-14.0,-19.0,60.0,-5.0,0
-7.0,-252.0,1.0,-24.0,58.0,-6.0,0
-2.0,-253.0,1.0,-27.0,59.0,-6.0,0
-3.0,-249.0,-2.0,-31.0,58.0,-6.0,0
-5.0,-250.0,-2.0,-33.0,57.0,-5.0,0
-6.0,-247.0,-3.0,-34.0,58.0,-5.0,0
-6.0,-250.0,-1.0,-35.0,56.0,-3.0,0
-3.0,-252.0,-2.0,-35.0,56.0,-3.0,0
-6.0,-250.0,1.0,-34.0,56.0,-2.0,0
-3.0,-250.0,0.0,-34.0,57.0,-2.0,0
-2.0,-247.0,2.0,-32.0,56.0,-2.0,0
-3.0,-251.0,-1.0,-29.0,55.0,-3.0,0
16.0,-256.0,7.0,-26.0,54.0,-3.0,0
-4.0,-250.0,-2.0,-25.0,54.0,-3.0,0
-6.0,-249.0,0.0,-21.0,53.0,-3.0,0
-2.0,-252.0,0.0,-20.0,53.0,-5.0,0
-4.0,-251.0,0.0,-18.0,52.0,-7.0,0
-5.0,-251.0,0.0,-19.0,52.0,-5.0,0
-3.0,-250.0,-4.0,-19.0,52.0,-8.0,0
-4.0,-251.0,-5.0,-18.0,52.0,-7.0,0
-1.0,-247.0,-2.0,-18.0,52.0,-9.0,0
-2.0,-248.0,-5.0,-19.0,54.0,-10.0,0
-2.0,-238.0,-7.0,-18.0,54.0,-11.0,0
-4.0,-251.0,-2.0,-18.0,54.0,-12.0,0
-4.0,-252.0,0.0,-16.0,58.0,-12.0,0
-3.0,-252.0,-1.0,-14.0,57.0,-11.0,0
-4.0,-254.0,0.0,-12.0,59.0,-11.0,0
-3.0,-251.0,0.0,-11.0,58.0,-8.0,0
-3.0,-252.0,-1.0,-11.0,57.0,-10.0,0
-6.0,-253.0,2.0,-11.0,54.0,-8.0,0
-5.0,-252.0,1.0,-11.0,52.0,-9.0,0
-5.0,-251.0,-2.0,-12.0,50.0,-6.0,0
-7.0,-256.0,6.0,-14.0,48.0,-6.0,0
-4.0,-253.0,0.0,-16.0,47.0,-3.0,0
-5.0,-253.0,-2.0,-16.0,44.0,-2.0,0
-6.0,-252.0,0.0,-15.0,43.0,-2.0,0
-5.0,-250.0,-1.0,-15.0,41.0,-2.0,0
-5.0,-251.0,0.0,-13.0,39.0,1.0,0
-6.0,-250.0,-2.0,-9.0,39.0,-2.0,0
-2.0,-250.0,-3.0,-7.0,39.0,2.0,0
-4.0,-254.0,-1.0,-5.0,40.0,-1.0,0
-3.0,-247.0,3.0,-1.0,40.0,2.0,0
-5.0,-254.0,1.0,0.0,41.0,-1.0,0
-11.0,-256.0,5.0,2.0,41.0,-1.0,0
-2.0,-252.0,1.0,2.0,42.0,-4.0,0
-5.0,-250.0,-1.0,1.0,44.0,-3.0,0
-3.0,-253.0,0.0,1.0,45.0,-6.0,0
-5.0,-251.0,-1.0,0.0,44.0,-7.0,0
-2.0,-250.0,1.0,-2.0,44.0,-12.0,0
-5.0,-250.0,0.0,-3.0,45.0,-12.0,0
-2.0,-244.0,0.0,-5.0,45.0,-15.0,0
-2.0,-247.0,3.0,-5.0,46.0,-13.0,0
-2.0,-254.0,0.0,-8.0,46.0,-14.0,0
-1.0,-246.0,-2.0,-7.0,46.0,-11.0,0
-12.0,-246.0,0.0,-10.0,46.0,-13.0,0
-2.0,-251.0,-1.0,-10.0,47.0,-9.0,0
-4.0,-252.0,1.0,-9.0,49.0,-9.0,0
0.0,-255.0,1.0,-9.0,49.0,-6.0,0
-2.0,-250.0,2.0,-8.0,49.0,-8.0,0
-4.0,-254.0,1.0,-5.0,48.0,-4.0,0
-5.0,-251.0,2.0,-1.0,48.0,-6.0,0
-5.0,-254.0,-1.0,-3.0,48.0,-2.0,0
-2.0,-252.0,0.0,-3.0,47.0,-4.0,0
-3.0,-251.0,0.0,-1.0,45.0,0.0,0
-3.0,-250.0,-2.0,0.0,44.0,-3.0,0
4.0,-242.0,-9.0,0.0,45.0,0.0,0
-6.0,-248.0,1.0,1.0,45.0,-4.0,0
-2.0,-249.0,-7.0,1.0,45.0,-1.0,0
-7.0,-248.0,0.0,4.0,43.0,-3.0,0
-3.0,-250.0,-3.0,3.0,46.0,-3.0,0
-1.0,-251.0,-4.0,3.0,48.0,-7.0,0
-5.0,-249.0,-5.0,2.0,50.0,-6.0,0
-6.0,-248.0,-2.0,5.0,52.0,-10.0,0
-1.0,-251.0,0.0,5.0,56.0,-8.0,0
-2.0,-251.0,-5.0,6.0,58.0,-12.0,0
-2.0,-250.0,1.0,8.0,61.0,-11.0,0
-8.0,-250.0,7.0,9.0,63.0,-13.0,0
-2.0,-251.0,2.0,9.0,63.0,-11.0,0
-2.0,-251.0,-1.0,13.0,69.0,-14.0,0
-3.0,-252.0,2.0,17.0,71.0,-12.0,0
-3.0,-253.0,0.0,20.0,72.0,-14.0,0
-2.0,-251.0,1.0,23.0,72.0,-12.0,0
-2.0,-251.0,0.0,25.0,72.0,-12.0,0
-4.0,-251.0,1.0,24.0,68.0,-8.0,0
0.0,-248.0,-1.0,21.0,64.0,-8.0,0
-7.0,-247.0,-2.0,15.0,59.0,-5.0,0
-3.0,-254.0,4.0,7.0,55.0,-4.0,0
10.0,-245.0,1.0,-5.0,53.0,0.0,0
-2.0,-248.0,2.0,-16.0,49.0,0.0,0
-5.0,-249.0,2.0,-31.0,47.0,1.0,0
-4.0,-249.0,1.0,-42.0,46.0,1.0,0
-5.0,-252.0,-2.0,-47.0,47.0,4.0,0
-4.0,-251.0,1.0,-50.0,48.0,3.0,0
-4.0,-252.0,-1.0,-49.0,49.0,5.0,0
-4.0,-255.0,0.0,-46.0,53.0,3.0,0
-2.0,-253.0,1.0,-40.0,54.0,2.0,0
0.0,-251.0,3.0,-32.0,56.0,0.0,0
-5.0,-253.0,0.0,-22.0,58.0,2.0,0
-1.0,-249.0,4.0,-15.0,60.0,-2.0,0
-4.0,-251.0,2.0,-5.0,61.0,-3.0,0
-5.0,-253.0,1.0,2.0,62.0,-3.0,0
-3.0,-250.0,-1.0,7.0,62.0,-5.0,0
-5.0,-250.0,0.0,8.0,61.0,-7.0,0
-5.0,-252.0,0.0,9.0,59.0,-7.0,0
-1.0,-251.0,-3.0,8.0,60.0,-7.0,0
1.0,-248.0,-2.0,7.0,59.0,-7.0,0
-2.0,-250.0,-4.0,4.0,58.0,-8.0,0
-2.0,-252.0,0.0,1.0,59.0,-11.0,0
-4.0,-251.0,-2.0,-2.0,57.0,-9.0,0
-4.0,-242.0,0.0,-3.0,58.0,-12.0,0
-2.0,-248.0,0.0,-4.0,58.0,-11.0,0
-4.0,-251.0,2.0,-6.0,59.0,-11.0,0
-1.0,-248.0,2.0,-7.0,61.0,-10.0,0
-3.0,-249.0,1.0,-10.0,61.0,-10.0,0
-2.0,-247.0,0.0,-9.0,62.0,-10.0,0
-3.0,-252.0,4.0,-9.0,64.0,-11.0,0
-2.0,-252.0,4.0,-8.0,64.0,-10.0,0
0.0,-252.0,0.0,-7.0,65.0,-11.0,0
-2.0,-252.0,2.0,-6.0,66.0,-8.0,0
3.0,-252.0,2.0,-3.0,66.0,-9.0,0
-11.0,-263.0,25.0,-2.0,64.0,-7.0,0
-1.0,-248.0,2.0,-2.0,64.0,-7.0,0
-2.0,-250.0,4.0,-5.0,63.0,-5.0,0
-4.0,-249.0,1.0,-8.0,61.0,-4.0,0
-1.0,-249.0,2.0,-12.0,60.0,-2.0,0
-4.0,-248.0,-1.0,-17.0,58.0,-4.0,0
-8.0,-244.0,-1.0,-22.0,59.0,-2.0,0
-1.0,-248.0,1.0,-24.0,58.0,-4.0,0
-1.0,-250.0,0.0,-27.0,58.0,-4.0,0
-1.0,-252.0,0.0,-28.0,59.0,-6.0,0
-5.0,-241.0,-7.0,-29.0,62.0,-4.0,0
-2.0,-251.0,0.0,-25.0,64.0,-8.0,0
-4.0,-252.0,2.0,-22.0,67.0,-7.0,0
-1.0,-254.0,2.0,-19.0,67.0,-9.0,0
-2.0,-253.0,0.0,-14.0,70.0,-8.0,0
-3.0,-254.0,5.0,-8.0,70.0,-10.0,0
1.0,-255.0,1.0,-4.0,69.0,-8.0,0
-7.0,-254.0,6.0,0.0,70.0,-10.0,0
-4.0,-248.0,3.0,2.0,69.0,-9.0,0
-5.0,-252.0,1.0,3.0,67.0,-12.0,0
-3.0,-252.0,1.0,1.0,67.0,-10.0,0
-18.0,-251.0,8.0,-3.0,66.0,-12.0,0
-2.0,-250.0,0.0,-7.0,67.0,-10.0,0
-5.0,-251.0,1.0,-11.0,64.0,-12.0,0
0.0,-251.0,3.0,-12.0,64.0,-9.0,0
-2.0,-250.0,2.0,-13.0,63.0,-12.0,0
-5.0,-251.0,2.0,-12.0,63.0,-11.0,0
-2.0,-251.0,1.0,-9.0,61.0,-12.0,0
-6.0,-248.0,5.0,-6.0,61.0,-10.0,0
-5.0,-253.0,0.0,-1.0,62.0,-12.0,0
-3.0,-252.0,1.0,4.0,61.0,-9.0,0
-5.0,-250.0,3.0,7.0,63.0,-12.0,0
-2.0,-253.0,3.0,10.0,63.0,-9.0,0
-4.0,-249.0,2.0,12.0,63.0,-12.0,0
-4.0,-252.0,0.0,12.0,62.0,-10.0,0
-5.0,-251.0,3.0,10.0,62.0,-13.0,0
-5.0,-251.0,1.0,5.0,61.0,-11.0,0
-5.0,-248.0,2.0,0.0,60.0,-13.0,0
-2.0,-250.0,1.0,-5.0,60.0,-8.0,0
-5.0,-251.0,2.0,-10.0,58.0,-11.0,0
-7.0,-250.0,-1.0,-17.0,57.0,-9.0,0
1.0,-250.0,2.0,-20.0,58.0,-9.0,0
1.0,-247.0,0.0,-21.0,58.0,-8.0,0
-12.0,-252.0,11.0,-22.0,58.0,-10.0,0
-2.0,-253.0,2.0,-21.0,59.0,-8.0,0
-3.0,-250.0,3.0,-20.0,61.0,-9.0,0
-4.0,-253.0,1.0,-18.0,62.0,-7.0,0
-3.0,-253.0,2.0,-16.0,64.0,-9.0,0
-1.0,-250.0,0.0,-15.0,65.0,-6.0,0
0.0,-250.0,2.0,-15.0,67.0,-10.0,0
-2.0,-254.0,4.0,-13.0,69.0,-7.0,0
-3.0,-251.0,3.0,-13.0,69.0,-10.0,0
0.0,-252.0,0.0,-12.0,68.0,-8.0,0
-3.0,-252.0,0.0,-12.0,68.0,-11.0,0
-13.0,-252.0,0.0,-9.0,67.0,-8.0,0
-2.0,-253.0,0.0,-10.0,65.0,-10.0,0
-2.0,-252.0,2.0,-10.0,65.0,-8.0,0
-4.0,-248.0,2.0,-10.0,63.0,-9.0,0
-3.0,-252.0,2.0,-12.0,63.0,-8.0,0
-3.0,-251.0,5.0,-11.0,63.0,-9.0,0
-5.0,-250.0,1.0,-12.0,64.0,-7.0,0
-5.0,-250.0,-1.0,-12.0,62.0,-8.0,0
-4.0,-250.0,3.0,-13.0,64.0,-7.0,0
-1.0,-249.0,3.0,-12.0,65.0,-10.0,0
1.0,-252.0,1.0,-9.0,65.0,-7.0,0
2.0,-256.0,11.0,-8.0,65.0,-8.0,0
-4.0,-253.0,3.0,-5.0,66.0,-7.0,0
-3.0,-251.0,1.0,-4.0,66.0,-7.0,0
-4.0,-249.0,2.0,-2.0,65.0,-7.0,0
-2.0,-250.0,1.0,-1.0,62.0,-5.0,0
-5.0,-249.0,1.0,-2.0,60.0,-5.0,0
-3.0,-250.0,1.0,-3.0,59.0,-5.0,0
-2.0,-251.0,3.0,-4.0,60.0,-4.0,0
-7.0,-247.0,4.0,-5.0,57.0,-4.0,0
-6.0,-249.0,3.0,-4.0,58.0,-3.0,0
-6.0,-249.0,0.0,-5.0,59.0,-5.0,0
-5.0,-248.0,2.0,-4.0,58.0,-4.0,0
-5.0,-250.0,-1.0,-5.0,59.0,-5.0,0
-6.0,-250.0,1.0,-3.0,60.0,-3.0,0
-3.0,-248.0,3.0,-4.0,60.0,-4.0,0
-1.0,-252.0,2.0,-6.0,60.0,-5.0,0
-4.0,-247.0,0.0,-7.0,62.0,-5.0,0
-4.0,-252.0,0.0,-10.0,61.0,-6.0,0
-2.0,-248.0,3.0,-10.0,62.0,-7.0,0
-1.0,-251.0,0.0,-12.0,62.0,-7.0,0
-2.0,-251.0,1.0,-14.0,61.0,-8.0,0
-5.0,-254.0,7.0,-14.0,61.0,-7.0,0
-4.0,-259.0,2.0,-14.0,60.0,-7.0,0
-3.0,-250.0,4.0,-13.0,59.0,-7.0,0
-2.0,-252.0,-2.0,-12.0,59.0,-5.0,0
-4.0,-250.0,1.0,-11.0,60.0,-6.0,0
-1.0,-250.0,0.0,-12.0,60.0,-4.0,0
-4.0,-251.0,4.0,-12.0,62.0,-5.0,0
-3.0,-252.0,1.0,-12.0,64.0,-4.0,0
-1.0,-249.0,0.0,-12.0,64.0,-5.0,0
-4.0,-251.0,4.0,-11.0,62.0,-3.0,0
-4.0,-250.0,1.0,-10.0,60.0,-4.0,0
-3.0,-250.0,3.0,-8.0,58.0,-3.0,0
-9.0,-257.0,4.0,-8.0,56.0,-3.0,0
-3.0,-252.0,2.0,-4.0,54.0,-1.0,0
-4.0,-252.0,0.0,-3.0,53.0,-2.0,0
-6.0,-250.0,0.0,-1.0,51.0,1.0,0
0.0,-251.0,0.0,1.0,49.0,-1.0,0
-4.0,-250.0,2.0,0.0,50.0,1.0,0
-7.0,-249.0,2.0,-2.0,50.0,-1.0,0
-3.0,-248.0,4.0,-1.0,50.0,1.0,0
-7.0,-250.0,1.0,-3.0,53.0,-3.0,0
-3.0,-251.0,-3.0,-4.0,54.0,-2.0,0
-3.0,-249.0,-9.0,-6.0,57.0,-4.0,0
5.0,-247.0,4.0,-7.0,59.0,-4.0,0
-6.0,-250.0,2.0,-8.0,59.0,-8.0,0
-7.0,-250.0,3.0,-9.0,62.0,-6.0,0
-5.0,-251.0,3.0,-9.0,61.0,-10.0,0
-3.0,-250.0,4.0,-7.0,61.0,-10.0,0
-5.0,-251.0,1.0,-6.0,59.0,-12.0,0
-3.0,-251.0,0.0,-4.0,57.0,-9.0,0
-4.0,-249.0,2.0,-4.0,56.0,-11.0,0
0.0,-244.0,-1.0,-5.0,55.0,-8.0,0
-3.0,-246.0,-2.0,-7.0,55.0,-10.0,0
-4.0,-232.0,-13.0,-10.0,56.0,-6.0,0
-3.0,-248.0,2.0,-15.0,55.0,-8.0,0
-4.0,-251.0,3.0,-18.0,57.0,-6.0,0
-3.0,-249.0,0.0,-18.0,57.0,-7.0,0
-1.0,-252.0,2.0,-18.0,57.0,-4.0,0
-4.0,-249.0,1.0,-16.0,58.0,-6.0,0
-3.0,-253.0,3.0,-13.0,58.0,-2.0,0
-1.0,-254.0,3.0,-9.0,58.0,-3.0,0
-4.0,-253.0,-1.0,-5.0,60.0,0.0,0
-2.0,-255.0,0.0,1.0,61.0,0.0,0
-4.0,-254.0,1.0,4.0,63.0,2.0,0
-6.0,-251.0,-1.0,8.0,63.0,0.0,0
-5.0,-249.0,2.0,10.0,62.0,2.0,0
-3.0,-251.0,4.0,10.0,60.0,1.0,0
-1.0,-252.0,0.0,9.0,58.0,3.0,0
-4.0,-249.0,3.0,5.0,58.0,1.0,0
-5.0,-247.0,2.0,-1.0,56.0,1.0,0
-3.0,-248.0,2.0,-7.0,54.0,0.0,0
-6.0,-250.0,0.0,-13.0,53.0,0.0,0
-1.0,-246.0,3.0,-17.0,53.0,-3.0,0
-4.0,-251.0,1.0,-21.0,52.0,-1.0,0
-2.0,-252.0,2.0,-24.0,56.0,-5.0,0
10.0,-251.0,13.0,-22.0,57.0,-5.0,0
-3.0,-251.0,3.0,-20.0,58.0,-7.0,0
-1.0,-251.0,1.0,-14.0,58.0,-6.0,0
-5.0,-251.0,3.0,-9.0,61.0,-9.0,0
-4.0,-249.0,3.0,-4.0,62.0,-7.0,0
-3.0,-250.0,2.0,-3.0,63.0,-10.0,0
-2.0,-249.0,1.0,1.0,63.0,-9.0,0
-2.0,-250.0,-1.0,-1.0,63.0,-10.0,0
-3.0,-250.0,-1.0,-3.0,64.0,-8.0,0
-2.0,-249.0,5.0,-9.0,64.0,-9.0,0
-2.0,-245.0,-1.0,-13.0,62.0,-7.0,0
-1.0,-249.0,-2.0,-17.0,63.0,-8.0,0
-1.0,-249.0,0.0,-22.0,64.0,-5.0,0
-1.0,-251.0,5.0,-25.0,63.0,-6.0,0
-1.0,-252.0,0.0,-27.0,62.0,-5.0,0
0.0,-252.0,2.0,-28.0,63.0,-4.0,0
-3.0,-252.0,0.0,-25.0,62.0,-3.0,0
-2.0,-254.0,2.0,-22.0,62.0,-5.0,0
2.0,-252.0,5.0,-16.0,62.0,-3.0,0
-2.0,-251.0,1.0,-10.0,63.0,-4.0,0
0.0,-252.0,2.0,-5.0,64.0,-4.0,0
-1.0,-243.0,-1.0,-3.0,65.0,-4.0,0
7.0,-247.0,9.0,-2.0,66.0,-5.0,0
2.0,-250.0,7.0,-3.0,66.0,-5.0,0
-3.0,-249.0,2.0,-5.0,66.0,-5.0,0
-3.0,-252.0,5.0,-8.0,68.0,-7.0,0
-2.0,-251.0,3.0,-10.0,67.0,-9.0,0
-3.0,-251.0,3.0,-14.0,67.0,-9.0,0
-3.0,-249.0,4.0,-18.0,68.0,-9.0,0
-4.0,-248.0,2.0,-20.0,67.0,-10.0,0
0.0,-251.0,2.0,-22.0,67.0,-10.0,0
-5.0,-253.0,1.0,-21.0,67.0,-10.0,0
-1.0,-252.0,1.0,-22.0,68.0,-11.0,0
-7.0,-248.0,-1.0,-22.0,68.0,-10.0,0
-6.0,-250.0,0.0,-21.0,67.0,-11.0,0
-2.0,-254.0,2.0,-18.0,67.0,-9.0,0
-1.0,-251.0,0.0,-18.0,68.0,-11.0,0
-3.0,-250.0,4.0,-20.0,69.0,-9.0,0
-6.0,-249.0,1.0,-18.0,70.0,-8.0,0
-1.0,-251.0,1.0,-18.0,70.0,-4.0,0
0.0,-250.0,3.0,-17.0,72.0,-7.0,0
-1.0,-253.0,2.0,-15.0,74.0,-5.0,0
-3.0,-252.0,0.0,-11.0,74.0,-11.0,0
-7.0,-252.0,2.0,-4.0,75.0,-10.0,0
-5.0,-251.0,-9.0,3.0,74.0,-10.0,0
-2.0,-253.0,1.0,5.0,73.0,-9.0,0
-3.0,-254.0,-3.0,8.0,73.0,-9.0,0
-2.0,-252.0,2.0,5.0,72.0,-9.0,0
-2.0,-251.0,2.0,3.0,73.0,-11.0,0
-1.0,-252.0,1.0,-2.0,75.0,-8.0,0
-5.0,-250.0,0.0,-10.0,75.0,-11.0,0
0.0,-252.0,1.0,-14.0,78.0,-9.0,0
-7.0,-252.0,-2.0,-19.0,79.0,-13.0,0
-2.0,-252.0,1.0,-21.0,79.0,-10.0,0
-4.0,-255.0,0.0,-21.0,80.0,-12.0,0
-7.0,-251.0,7.0,-19.0,80.0,-10.0,0
-2.0,-255.0,1.0,-18.0,81.0,-12.0,0
-4.0,-251.0,2.0,-14.0,81.0,-8.0,0
0.0,-252.0,0.0,-11.0,82.0,-9.0,0
-4.0,-250.0,-1.0,-7.0,80.0,-5.0,0
-4.0,-250.0,1.0,-4.0,82.0,-5.0,0
-1.0,-252.0,-2.0,1.0,81.0,-1.0,0
-4.0,-254.0,-5.0,3.0,81.0,-1.0,0
-2.0,-250.0,-3.0,5.0,82.0,3.0,0
-1.0,-253.0,-5.0,9.0,84.0,2.0,0
-7.0,-253.0,-3.0,13.0,86.0,5.0,0
4.0,-245.0,-21.0,17.0,89.0,3.0,0
-3.0,-253.0,-4.0,22.0,93.0,5.0,0
-3.0,-254.0,-5.0,23.0,96.0,2.0,0
-1.0,-252.0,-7.0,24.0,100.0,5.0,0
-1.0,-251.0,-9.0,25.0,103.0,2.0,0
-5.0,-253.0,-10.0,26.0,107.0,3.0,0
3.0,-252.0,-8.0,26.0,109.0,0.0,0
-2.0,-253.0,-5.0,26.0,110.0,2.0,0
1.0,-249.0,-11.0,27.0,111.0,-3.0,0
4.0,-254.0,-6.0,29.0,113.0,-2.0,0
7.0,-240.0,-26.0,31.0,116.0,-4.0,0
-1.0,-250.0,-13.0,33.0,118.0,-1.0,0
-4.0,-247.0,-18.0,35.0,120.0,-3.0,0
-2.0,-247.0,-14.0,33.0,121.0,0.0,0
-2.0,-243.0,-15.0,30.0,124.0,0.0,0
-4.0,-247.0,-16.0,28.0,124.0,3.0,0
-4.0,-242.0,-19.0,24.0,123.0,2.0,0
-4.0,-239.0,-21.0,20.0,123.0,8.0,0
-3.0,-239.0,-21.0,15.0,122.0,9.0,0
-3.0,-240.0,-19.0,12.0,121.0,16.0,0
-5.0,-241.0,-14.0,8.0,122.0,18.0,0
4.0,-244.0,-25.0,6.0,122.0,23.0,0
-7.0,-241.0,-18.0,7.0,124.0,27.0,0
-5.0,-242.0,-22.0,10.0,126.0,34.0,0
-5.0,-239.0,-17.0,15.0,130.0,38.0,0
-5.0,-243.0,-19.0,25.0,132.0,43.0,0
-3.0,-241.0,-20.0,36.0,136.0,43.0,0
-4.0,-242.0,-25.0,46.0,140.0,48.0,0
-6.0,-239.0,-16.0,59.0,143.0,45.0,0
-6.0,-233.0,-23.0,71.0,145.0,44.0,0
-2.0,-232.0,-22.0,79.0,146.0,39.0,0
-5.0,-229.0,-27.0,90.0,145.0,34.0,0
14.0,-225.0,-24.0,96.0,144.0,26.0,0
-2.0,-225.0,-32.0,98.0,145.0,18.0,0
-1.0,-223.0,-28.0,97.0,146.0,12.0,0
-4.0,-219.0,-31.0,92.0,149.0,9.0,0
-3.0,-219.0,-30.0,81.0,155.0,5.0,0
-4.0,-216.0,-34.0,66.0,165.0,3.0,0
-4.0,-214.0,-36.0,46.0,173.0,2.0,0
-6.0,-209.0,-41.0,22.0,184.0,3.0,0
-2.0,-207.0,-36.0,-7.0,195.0,2.0,0
-1.0,-208.0,-40.0,-38.0,207.0,2.0,0
-3.0,-202.0,-39.0,-69.0,216.0,2.0,0
3.0,-216.0,-38.0,-98.0,224.0,3.0,0
4.0,-205.0,-38.0,-131.0,223.0,4.0,0
6.0,-202.0,-42.0,-154.0,221.0,4.0,0
4.0,-199.0,-37.0,-173.0,212.0,5.0,0
6.0,-199.0,-37.0,-187.0,200.0,7.0,0
7.0,-193.0,-37.0,-194.0,184.0,9.0,0
7.0,-192.0,-37.0,-195.0,166.0,13.0,0
7.0,-191.0,-35.0,-193.0,148.0,17.0,0
9.0,-188.0,-33.0,-186.0,129.0,21.0,0
7.0,-183.0,-32.0,-177.0,110.0,27.0,0
6.0,-180.0,-31.0,-166.0,92.0,30.0,0
10.0,-169.0,-41.0,-158.0,78.0,34.0,0
5.0,-170.0,-35.0,-154.0,68.0,36.0,0
3.0,-168.0,-32.0,-152.0,63.0,39.0,0
0.0,-159.0,-35.0,-157.0,58.0,38.0,0
-1.0,-155.0,-36.0,-167.0,57.0,41.0,0
-1.0,-148.0,-33.0,-183.0,56.0,41.0,0
-3.0,-143.0,-33.0,-204.0,58.0,40.0,0
-5.0,-138.0,-38.0,-230.0,61.0,37.0,0
-11.0,-136.0,-33.0,-264.0,64.0,35.0,0
-8.0,-131.0,-38.0,-300.0,69.0,32.0,0
-11.0,-129.0,-35.0,-345.0,74.0,31.0,0
-6.0,-125.0,-46.0,-382.0,82.0,28.0,0
-6.0,-126.0,-35.0,-417.0,87.0,23.0,0
-3.0,-125.0,-31.0,-446.0,93.0,14.0,0
-3.0,-126.0,-32.0,-468.0,100.0,6.0,0
-2.0,-123.0,-29.0,-485.0,105.0,-9.0,0
0.0,-127.0,-26.0,-494.0,112.0,-23.0,0
3.0,-127.0,-20.0,-495.0,118.0,-41.0,0
2.0,-127.0,-24.0,-488.0,126.0,-59.0,0
7.0,-134.0,-11.0,-471.0,141.0,-82.0,0
4.0,-135.0,-14.0,-444.0,154.0,-99.0,0
7.0,-139.0,-12.0,-411.0,172.0,-116.0,0
4.0,-146.0,-23.0,-367.0,188.0,-128.0,0
10.0,-152.0,-6.0,-308.0,206.0,-142.0,0
9.0,-156.0,-3.0,-240.0,221.0,-147.0,0
9.0,-163.0,1.0,-160.0,238.0,-155.0,0
13.0,-168.0,2.0,-75.0,254.0,-156.0,0
16.0,-180.0,3.0,15.0,276.0,-159.0,0
11.0,-181.0,6.0,106.0,296.0,-158.0,0
15.0,-188.0,7.0,193.0,320.0,-152.0,0
17.0,-193.0,6.0,290.0,338.0,-138.0,0
19.0,-198.0,2.0,356.0,355.0,-126.0,0
18.0,-201.0,3.0,409.0,366.0,-109.0,0
24.0,-199.0,-7.0,443.0,373.0,-90.0,0
19.0,-214.0,-8.0,458.0,375.0,-66.0,0
14.0,-215.0,-11.0,454.0,367.0,-44.0,0
13.0,-219.0,-20.0,435.0,352.0,-17.0,0
10.0,-229.0,-20.0,399.0,332.0,7.0,0
8.0,-239.0,-21.0,353.0,308.0,36.0,0
-2.0,-247.0,-19.0,297.0,277.0,65.0,0
-4.0,-255.0,-22.0,228.0,247.0,95.0,0
-14.0,-267.0,-19.0,173.0,218.0,120.0,0
-21.0,-284.0,-12.0,119.0,187.0,148.0,0
-32.0,-304.0,-7.0,72.0,154.0,176.0,0
-39.0,-321.0,11.0,34.0,119.0,211.0,0
-44.0,-333.0,1.0,6.0,84.0,234.0,0
-44.0,-348.0,5.0,-13.0,50.0,257.0,0
-53.0,-358.0,5.0,-12.0,18.0,269.0,0
-56.0,-372.0,10.0,6.0,-9.0,284.0,0
-59.0,-378.0,13.0,51.0,-36.0,283.0,0
-59.0,-383.0,12.0,107.0,-61.0,283.0,0
-59.0,-386.0,5.0,165.0,-84.0,277.0,0
-56.0,-385.0,-2.0,213.0,-104.0,264.0,0
-54.0,-383.0,-3.0,241.0,-119.0,240.0,0
-66.0,-376.0,-28.0,254.0,-134.0,219.0,0
-54.0,-369.0,-12.0,247.0,-144.0,197.0,0
-53.0,-360.0,-18.0,211.0,-156.0,173.0,0
-52.0,-348.0,-17.0,149.0,-170.0,136.0,0
-46.0,-343.0,-15.0,68.0,-182.0,95.0,0
-47.0,-336.0,-5.0,-37.0,-192.0,58.0,0
-43.0,-335.0,4.0,-117.0,-199.0,29.0,0
-31.0,-336.0,23.0,-180.0,-203.0,2.0,0
-26.0,-349.0,51.0,-213.0,-198.0,-19.0,0
-18.0,-363.0,70.0,-212.0,-189.0,-45.0,0
-7.0,-372.0,93.0,-187.0,-168.0,-62.0,0
3.0,-378.0,96.0,-156.0,-138.0,-69.0,0
9.0,-388.0,113.0,-145.0,-109.0,-56.0,0
17.0,-391.0,107.0,-174.0,-91.0,-37.0,0
27.0,-403.0,85.0,-292.0,-77.0,-18.0,0
31.0,-415.0,66.0,-553.0,-49.0,9.0,0
33.0,-433.0,53.0,-858.0,-45.0,51.0,0
32.0,-458.0,19.0,-1243.0,-74.0,104.0,0
27.0,-476.0,-11.0,-1669.0,-139.0,153.0,0
24.0,-501.0,-50.0,-2101.0,-228.0,194.0,0
3.0,-523.0,-90.0,-2526.0,-348.0,245.0,0
-20.0,-538.0,-82.0,-2908.0,-452.0,271.0,0
28.0,-559.0,-83.0,-3188.0,-601.0,385.0,0
28.0,-579.0,-55.0,-3229.0,-687.0,532.0,0
16.0,-586.0,-32.0,-2920.0,-678.0,612.0,0
8.0,-575.0,-12.0,-2159.0,-660.0,620.0,0
5.0,-553.0,-8.0,-1318.0,-637.0,598.0,0
-8.0,-524.0,-11.0,-382.0,-576.0,537.0,0
-17.0,-486.0,-16.0,541.0,-488.0,422.0,0
-30.0,-450.0,-18.0,1413.0,-373.0,270.0,0
-42.0,-404.0,-8.0,2235.0,-219.0,112.0,0
-42.0,-367.0,0.0,3004.0,-26.0,-25.0,0
-49.0,-332.0,20.0,3714.0,197.0,-128.0,0
-50.0,-273.0,30.0,4348.0,433.0,-205.0,0
-47.0,-216.0,49.0,4867.0,656.0,-274.0,0
-38.0,-159.0,65.0,5274.0,870.0,-322.0,0
-35.0,-99.0,85.0,5409.0,986.0,-377.0,0
-28.0,-37.0,99.0,5357.0,1041.0,-436.0,0
-32.0,18.0,100.0,5121.0,1041.0,-490.0,0
-33.0,47.0,98.0,4713.0,985.0,-513.0,0
-37.0,65.0,91.0,4179.0,877.0,-498.0,0
-31.0,68.0,77.0,3558.0,729.0,-448.0,0
-25.0,64.0,63.0,2885.0,554.0,-382.0,0
-21.0,34.0,48.0,2182.0,376.0,-303.0,0
-25.0,14.0,19.0,1479.0,213.0,-198.0,0
-26.0,-18.0,13.0,664.0,59.0,-108.0,0
-26.0,-56.0,9.0,43.0,-25.0,-27.0,0
-21.0,-87.0,3.0,-505.0,-71.0,47.0,0
-25.0,-124.0,8.0,-964.0,-90.0,109.0,0
-20.0,-161.0,21.0,-1321.0,-103.0,165.0,0
-18.0,-195.0,31.0,-1565.0,-122.0,208.0,0
-15.0,-228.0,56.0,-1690.0,-160.0,248.0,0
-12.0,-251.0,65.0,-1696.0,-209.0,279.0,0
-6.0,-276.0,69.0,-1592.0,-267.0,304.0,0
-9.0,-292.0,87.0,-1389.0,-317.0,318.0,0
6.0,-309.0,87.0,-1035.0,-352.0,323.0,0
11.0,-321.0,89.0,-669.0,-355.0,311.0,0
12.0,-336.0,89.0,-254.0,-328.0,295.0,0
15.0,-340.0,84.0,189.0,-281.0,263.0,0
20.0,-343.0,76.0,638.0,-221.0,227.0,0
16.0,-336.0,68.0,1072.0,-151.0,178.0,0
16.0,-323.0,62.0,1471.0,-76.0,125.0,0
14.0,-318.0,51.0,1810.0,4.0,66.0,0
9.0,-303.0,46.0,2077.0,83.0,13.0,0
2.0,-272.0,24.0,2266.0,157.0,-49.0,0
-6.0,-272.0,36.0,2387.0,220.0,-85.0,0
-17.0,-256.0,40.0,2402.0,250.0,-114.0,0
-25.0,-244.0,41.0,2353.0,254.0,-120.0,0
-34.0,-237.0,51.0,2252.0,233.0,-114.0,0
-45.0,-230.0,52.0,2110.0,193.0,-83.0,0
-47.0,-227.0,61.0,1940.0,140.0,-46.0,0
-53.0,-226.0,66.0,1746.0,82.0,6.0,0
-52.0,-232.0,66.0,1538.0,30.0,55.0,0
-57.0,-234.0,61.0,1319.0,-9.0,107.0,0
-57.0,-239.0,64.0,1096.0,-32.0,156.0,0
-72.0,-251.0,62.0,833.0,-39.0,189.0,0
-61.0,-251.0,56.0,627.0,-26.0,205.0,0
-61.0,-252.0,61.0,437.0,2.0,215.0,0
-61.0,-256.0,60.0,268.0,42.0,211.0,0
-58.0,-256.0,55.0,127.0,83.0,199.0,0
-58.0,-257.0,59.0,16.0,121.0,168.0,0
-56.0,-257.0,54.0,-70.0,156.0,133.0,0
-55.0,-255.0,59.0,-127.0,183.0,90.0,0
-45.0,-255.0,57.0,-163.0,201.0,45.0,0
-38.0,-248.0,59.0,-181.0,212.0,-13.0,0
-33.0,-245.0,53.0,-185.0,220.0,-55.0,0
-21.0,-226.0,39.0,-178.0,221.0,-102.0,0
-16.0,-228.0,62.0,-164.0,217.0,-141.0,0
-13.0,-217.0,62.0,-145.0,215.0,-178.0,0
-9.0,-209.0,64.0,-121.0,209.0,-208.0,0
-5.0,-197.0,73.0,-96.0,202.0,-233.0,0
1.0,-193.0,84.0,-69.0,191.0,-244.0,0
3.0,-184.0,87.0,-40.0,179.0,-249.0,0
5.0,-179.0,91.0,-9.0,164.0,-239.0,0
4.0,-175.0,93.0,25.0,141.0,-222.0,0
2.0,-170.0,100.0,73.0,110.0,-195.0,0
3.0,-170.0,108.0,114.0,79.0,-162.0,0
3.0,-168.0,99.0,155.0,44.0,-121.0,0
-5.0,-177.0,108.0,194.0,5.0,-78.0,0
-5.0,-185.0,116.0,229.0,-41.0,-31.0,0
-5.0,-189.0,110.0,260.0,-90.0,12.0,0
-7.0,-192.0,103.0,292.0,-138.0,50.0,0
-9.0,-198.0,107.0,320.0,-179.0,80.0,0
-11.0,-204.0,103.0,346.0,-209.0,108.0,0
-14.0,-213.0,97.0,371.0,-230.0,129.0,0
-15.0,-223.0,98.0,398.0,-237.0,139.0,0
-12.0,-223.0,95.0,419.0,-230.0,141.0,0
-15.0,-232.0,100.0,439.0,-215.0,136.0,0
-13.0,-239.0,98.0,460.0,-190.0,123.0,0
-18.0,-231.0,93.0,477.0,-159.0,107.0,0
-16.0,-236.0,84.0,496.0,-124.0,83.0,0
-20.0,-238.0,88.0,514.0,-84.0,59.0,0
-20.0,-237.0,93.0,527.0,-46.0,31.0,0
-21.0,-235.0,90.0,531.0,-11.0,3.0,0
-23.0,-238.0,93.0,533.0,26.0,-30.0,0
-23.0,-235.0,91.0,525.0,53.0,-54.0,0
-20.0,-233.0,98.0,516.0,71.0,-73.0,0
-20.0,-232.0,93.0,496.0,88.0,-89.0,0
-22.0,-229.0,96.0,471.0,98.0,-99.0,0
-16.0,-244.0,117.0,442.0,104.0,-106.0,0
-16.0,-229.0,96.0,410.0,107.0,-104.0,0
-16.0,-224.0,96.0,375.0,106.0,-103.0,0
-16.0,-224.0,96.0,337.0,105.0,-98.0,0
-16.0,-224.0,100.0,300.0,102.0,-91.0,0
-16.0,-219.0,98.0,262.0,98.0,-81.0,0
-13.0,-220.0,99.0,218.0,93.0,-75.0,0
-14.0,-218.0,95.0,185.0,89.0,-67.0,0
-13.0,-211.0,96.0,153.0,83.0,-61.0,0
-7.0,-213.0,94.0,123.0,76.0,-54.0,0
-12.0,-211.0,102.0,96.0,69.0,-49.0,0
-14.0,-201.0,90.0,71.0,62.0,-42.0,0
-7.0,-205.0,99.0,47.0,58.0,-39.0,0
-4.0,-207.0,95.0,26.0,54.0,-36.0,0
-8.0,-205.0,95.0,11.0,49.0,-35.0,0
-6.0,-206.0,97.0,-1.0,44.0,-32.0,0
-8.0,-207.0,95.0,-12.0,42.0,-34.0,0
-7.0,-208.0,99.0,-16.0,40.0,-32.0,0
-6.0,-210.0,97.0,-20.0,37.0,-37.0,0
-7.0,-210.0,101.0,-19.0,34.0,-38.0,0
-6.0,-211.0,104.0,-16.0,32.0,-44.0,0
-8.0,-211.0,101.0,-12.0,30.0,-45.0,0
1.0,-215.0,111.0,-2.0,28.0,-50.0,0
-6.0,-215.0,107.0,10.0,27.0,-51.0,0
-7.0,-212.0,114.0,22.0,29.0,-54.0,0
-8.0,-211.0,111.0,43.0,31.0,-54.0,0
-7.0,-215.0,108.0,58.0,30.0,-58.0,0
-5.0,-214.0,107.0,76.0,30.0,-55.0,0
-11.0,-212.0,108.0,90.0,29.0,-56.0,0
-12.0,-216.0,111.0,104.0,27.0,-52.0,0
-11.0,-214.0,99.0,115.0,27.0,-51.0,0
-13.0,-213.0,106.0,125.0,23.0,-49.0,0
-16.0,-218.0,112.0,128.0,20.0,-47.0,0
-15.0,-213.0,101.0,129.0,19.0,-43.0,0
-13.0,-211.0,102.0,127.0,17.0,-45.0,0
-14.0,-212.0,103.0,122.0,16.0,-41.0,0
-15.0,-213.0,106.0,115.0,15.0,-42.0,0
-12.0,-214.0,107.0,109.0,16.0,-38.0,0
-15.0,-212.0,107.0,105.0,14.0,-37.0,0
-13.0,-210.0,105.0,101.0,14.0,-32.0,0
-15.0,-215.0,109.0,98.0,15.0,-33.0,0
-12.0,-212.0,101.0,94.0,14.0,-27.0,0
-10.0,-212.0,103.0,90.0,15.0,-27.0,0
-14.0,-206.0,94.0,86.0,17.0,-23.0,0
-15.0,-213.0,104.0,79.0,18.0,-24.0,0
-14.0,-214.0,107.0,69.0,17.0,-20.0,0
-15.0,-215.0,105.0,58.0,19.0,-22.0,0
-15.0,-214.0,104.0,49.0,20.0,-18.0,0
-15.0,-216.0,101.0,40.0,22.0,-19.0,0
-12.0,-220.0,101.0,30.0,22.0,-15.0,0
-15.0,-214.0,97.0,19.0,24.0,-18.0,0
-16.0,-218.0,98.0,7.0,24.0,-15.0,0
-14.0,-227.0,101.0,-5.0,27.0,-16.0,0
-14.0,-220.0,96.0,-16.0,30.0,-14.0,0
-18.0,-218.0,96.0,-24.0,32.0,-20.0,0
-13.0,-223.0,99.0,-34.0,38.0,-20.0,0
-13.0,-219.0,97.0,-37.0,43.0,-23.0,0
-13.0,-221.0,97.0,-38.0,49.0,-25.0,0
-14.0,-219.0,100.0,-36.0,54.0,-29.0,0
-14.0,-219.0,99.0,-35.0,59.0,-28.0,0
-14.0,-216.0,97.0,-29.0,66.0,-31.0,0
-15.0,-220.0,101.0,-24.0,69.0,-29.0,0
-15.0,-214.0,100.0,-20.0,73.0,-30.0,0
-13.0,-217.0,101.0,-15.0,74.0,-28.0,0
-15.0,-207.0,92.0,-10.0,73.0,-28.0,0
-3.0,-207.0,84.0,-4.0,73.0,-25.0,0
-13.0,-213.0,104.0,-1.0,70.0,-25.0,0
-14.0,-211.0,102.0,4.0,67.0,-20.0,0
-13.0,-214.0,104.0,8.0,63.0,-19.0,0
-15.0,-209.0,105.0,10.0,58.0,-15.0,0
-12.0,-211.0,102.0,12.0,55.0,-14.0,0
-12.0,-211.0,105.0,12.0,52.0,-9.0,0
-14.0,-211.0,104.0,13.0,49.0,-9.0,0
-13.0,-212.0,105.0,14.0,46.0,-7.0,0
-10.0,-210.0,104.0,13.0,42.0,-5.0,0
-12.0,-209.0,101.0,10.0,40.0,-5.0,0
-3.0,-213.0,101.0,7.0,39.0,-4.0,0
-16.0,-209.0,106.0,4.0,40.0,-4.0,0
-12.0,-213.0,106.0,1.0,40.0,-4.0,0
-12.0,-211.0,103.0,-2.0,40.0,-3.0,0
-9.0,-212.0,104.0,-8.0,40.0,-4.0,0
-12.0,-210.0,105.0,-10.0,41.0,-2.0,0
-11.0,-211.0,103.0,-12.0,41.0,-2.0,0
-11.0,-214.0,108.0,-15.0,41.0,1.0,0
-12.0,-213.0,101.0,-17.0,41.0,1.0,0
-11.0,-216.0,104.0,-20.0,42.0,1.0,0
-12.0,-215.0,98.0,-21.0,42.0,2.0,0
-11.0,-212.0,99.0,-23.0,43.0,3.0,0
-10.0,-217.0,102.0,-25.0,42.0,3.0,0
4.0,-222.0,129.0,-24.0,44.0,2.0,0
-10.0,-218.0,102.0,-23.0,44.0,4.0,0
-9.0,-215.0,100.0,-24.0,45.0,3.0,0
-13.0,-216.0,105.0,-23.0,47.0,1.0,0
-11.0,-219.0,98.0,-24.0,49.0,0.0,0
-13.0,-214.0,101.0,-26.0,52.0,1.0,0
-14.0,-216.0,101.0,-29.0,55.0,-2.0,0
-11.0,-215.0,97.0,-32.0,58.0,-2.0,0
-14.0,-216.0,101.0,-35.0,61.0,-6.0,0
-15.0,-231.0,111.0,-38.0,63.0,-5.0,0
-13.0,-215.0,100.0,-41.0,65.0,-6.0,0
-13.0,-214.0,100.0,-44.0,68.0,-6.0,0
-14.0,-217.0,102.0,-48.0,69.0,-7.0,0
-12.0,-216.0,99.0,-52.0,70.0,-6.0,0
-10.0,-217.0,98.0,-55.0,72.0,-7.0,0
-13.0,-216.0,99.0,-61.0,70.0,-6.0,0
-10.0,-221.0,104.0,-64.0,70.0,-8.0,0
-12.0,-218.0,108.0,-67.0,71.0,-5.0,0
-11.0,-217.0,104.0,-68.0,69.0,-7.0,0
-12.0,-219.0,100.0,-67.0,67.0,-4.0,0
-15.0,-217.0,93.0,-67.0,65.0,-6.0,0
-11.0,-216.0,99.0,-66.0,62.0,-3.0,0
-12.0,-216.0,100.0,-63.0,60.0,-5.0,0
-11.0,-219.0,95.0,-60.0,59.0,-2.0,0
-10.0,-219.0,100.0,-58.0,57.0,-3.0,0
-11.0,-216.0,100.0,-54.0,57.0,-2.0,0
-9.0,-220.0,99.0,-50.0,58.0,-4.0,0
-14.0,-215.0,101.0,-47.0,60.0,-1.0,0
-11.0,-219.0,99.0,-44.0,61.0,-4.0,0
-13.0,-220.0,97.0,-39.0,61.0,-3.0,0
-11.0,-220.0,102.0,-36.0,64.0,-6.0,0
-11.0,-226.0,103.0,-31.0,66.0,-3.0,0
-11.0,-218.0,102.0,-27.0,65.0,-5.0,0
-11.0,-217.0,102.0,-23.0,67.0,-3.0,0
-11.0,-215.0,100.0,-17.0,66.0,-5.0,0
-12.0,-217.0,103.0,-14.0,68.0,0.0,0
-11.0,-219.0,98.0,-11.0,66.0,-3.0,0
-10.0,-219.0,103.0,-12.0,64.0,-1.0,0
-13.0,-216.0,102.0,-12.0,65.0,-3.0,0
-12.0,-219.0,101.0,-12.0,63.0,1.0,0
-12.0,-214.0,106.0,-15.0,61.0,-1.0,0
-5.0,-208.0,89.0,-16.0,60.0,0.0,0
-9.0,-217.0,103.0,-20.0,59.0,-1.0,0
-11.0,-218.0,101.0,-24.0,59.0,1.0,0
-11.0,-216.0,104.0,-28.0,59.0,-2.0,0
-13.0,-216.0,99.0,-29.0,60.0,1.0,0
-12.0,-216.0,96.0,-33.0,60.0,-2.0,0
-14.0,-217.0,97.0,-36.0,61.0,-1.0,0
-13.0,-216.0,99.0,-38.0,63.0,-4.0,0
-11.0,-215.0,98.0,-40.0,63.0,-3.0,0
-15.0,-216.0,102.0,-43.0,64.0,-5.0,0
-13.0,-219.0,94.0,-44.0,65.0,0.0,0
-16.0,-221.0,93.0,-44.0,64.0,-2.0,0
-13.0,-218.0,98.0,-42.0,65.0,1.0,0
-13.0,-219.0,99.0,-38.0,67.0,0.0,0
-11.0,-220.0,98.0,-33.0,67.0,2.0,0
-12.0,-221.0,99.0,-28.0,68.0,1.0,0
-16.0,-219.0,99.0,-22.0,70.0,4.0,0
-15.0,-218.0,97.0,-19.0,68.0,2.0,0
-14.0,-218.0,100.0,-16.0,66.0,4.0,0
-14.0,-219.0,99.0,-16.0,65.0,1.0,0
-13.0,-220.0,95.0,-16.0,64.0,4.0,0
-11.0,-220.0,94.0,-14.0,62.0,2.0,0
-10.0,-217.0,104.0,-15.0,61.0,3.0,0
-15.0,-217.0,102.0,-18.0,58.0,2.0,0
-12.0,-218.0,101.0,-21.0,57.0,2.0,0
-14.0,-217.0,100.0,-22.0,58.0,0.0,0
-16.0,-218.0,99.0,-23.0,55.0,0.0,0
-14.0,-218.0,100.0,-24.0,54.0,-3.0,0
-15.0,-216.0,105.0,-24.0,54.0,-3.0,0
-14.0,-219.0,103.0,-23.0,55.0,-4.0,0
-14.0,-215.0,101.0,-21.0,54.0,-4.0,0
-15.0,-215.0,100.0,-18.0,54.0,-6.0,0
-15.0,-219.0,101.0,-16.0,55.0,-4.0,0
-10.0,-204.0,84.0,-13.0,54.0,-5.0,0
-14.0,-217.0,99.0,-14.0,54.0,-4.0,0
-14.0,-214.0,96.0,-14.0,54.0,-3.0,0
-12.0,-216.0,99.0,-13.0,54.0,-2.0,0
-15.0,-216.0,99.0,-12.0,56.0,-1.0,0
-12.0,-217.0,101.0,-14.0,57.0,-1.0,0
-14.0,-217.0,98.0,-17.0,56.0,0.0,0
-14.0,-218.0,95.0,-17.0,57.0,1.0,0
-15.0,-217.0,99.0,-19.0,56.0,1.0,0
-14.0,-217.0,99.0,-20.0,56.0,2.0,0
-16.0,-215.0,100.0,-23.0,57.0,3.0,0
-5.0,-233.0,108.0,-23.0,55.0,2.0,0
-12.0,-219.0,98.0,-24.0,55.0,2.0,0
-15.0,-215.0,96.0,-24.0,53.0,1.0,0
-15.0,-219.0,101.0,-24.0,52.0,1.0,0
-11.0,-221.0,97.0,-23.0,51.0,1.0,0
-13.0,-218.0,103.0,-22.0,52.0,1.0,0
-13.0,-220.0,101.0,-22.0,50.0,-1.0,0
-13.0,-217.0,98.0,-19.0,49.0,-1.0,0
-11.0,-220.0,98.0,-14.0,48.0,-1.0,0
-13.0,-218.0,98.0,-10.0,48.0,0.0,0
-15.0,-219.0,102.0,-6.0,46.0,-2.0,0
-18.0,-218.0,101.0,-2.0,50.0,-1.0,0
-13.0,-219.0,97.0,1.0,50.0,-3.0,0
-11.0,-219.0,98.0,2.0,51.0,-1.0,0
-12.0,-217.0,99.0,2.0,53.0,-2.0,0
-15.0,-216.0,98.0,1.0,54.0,0.0,0
-12.0,-217.0,99.0,-1.0,56.0,-1.0,0
-15.0,-219.0,103.0,-2.0,56.0,-1.0,0
-12.0,-220.0,100.0,-5.0,56.0,-3.0,0
-12.0,-217.0,103.0,-8.0,56.0,-2.0,0
-12.0,-214.0,101.0,-8.0,59.0,-6.0,0
-14.0,-216.0,101.0,-8.0,59.0,-3.0,0
-13.0,-230.0,103.0,-9.0,58.0,-6.0,0
-12.0,-218.0,101.0,-10.0,58.0,-3.0,0
-13.0,-215.0,102.0,-9.0,57.0,-5.0,0
-11.0,-217.0,99.0,-9.0,56.0,-4.0,0
-12.0,-218.0,100.0,-8.0,55.0,-7.0,0
-13.0,-217.0,103.0,-8.0,54.0,-6.0,0
-9.0,-217.0,101.0,-6.0,55.0,-7.0,0
-8.0,-217.0,99.0,-9.0,54.0,-6.0,0
-13.0,-219.0,97.0,-7.0,55.0,-8.0,0
-14.0,-219.0,99.0,-5.0,55.0,-5.0,0
-13.0,-219.0,98.0,-4.0,55.0,-8.0,0
-5.0,-213.0,76.0,-4.0,57.0,-6.0,0
-13.0,-216.0,98.0,-2.0,58.0,-8.0,0
-10.0,-219.0,98.0,0.0,60.0,-5.0,0
-12.0,-218.0,98.0,2.0,59.0,-9.0,0
-14.0,-220.0,100.0,4.0,60.0,-6.0,0
-14.0,-216.0,101.0,6.0,60.0,-7.0,0
-14.0,-218.0,100.0,8.0,57.0,-3.0,0
-12.0,-219.0,99.0,10.0,56.0,-5.0,0
-13.0,-214.0,103.0,9.0,56.0,-3.0,0
-14.0,-215.0,102.0,8.0,55.0,-6.0,0
-22.0,-223.0,93.0,8.0,54.0,-5.0,0
-14.0,-212.0,86.0,7.0,53.0,-7.0,0
-13.0,-217.0,98.0,7.0,53.0,-6.0,0
-14.0,-218.0,99.0,7.0,53.0,-9.0,0
-13.0,-219.0,100.0,5.0,55.0,-9.0,0
-13.0,-216.0,99.0,4.0,56.0,-11.0,0
-15.0,-217.0,102.0,3.0,59.0,-10.0,0
-12.0,-214.0,100.0,4.0,59.0,-13.0,0
-13.0,-212.0,95.0,0.0,61.0,-10.0,0
-15.0,-218.0,99.0,-2.0,61.0,-11.0,0
-14.0,-215.0,100.0,-4.0,62.0,-9.0,0
-6.0,-217.0,97.0,-5.0,61.0,-11.0,0
-14.0,-214.0,99.0,-5.0,61.0,-9.0,0
-13.0,-217.0,100.0,-7.0,61.0,-10.0,0
-12.0,-218.0,100.0,-8.0,60.0,-7.0,0
-14.0,-217.0,97.0,-9.0,60.0,-9.0,0
-12.0,-218.0,104.0,-9.0,59.0,-6.0,0
-10.0,-219.0,102.0,-9.0,59.0,-7.0,0
-15.0,-215.0,99.0,-8.0,58.0,-6.0,0
-14.0,-217.0,101.0,-7.0,57.0,-8.0,0
-12.0,-219.0,103.0,-6.0,58.0,-8.0,0
-13.0,-217.0,102.0,-4.0,58.0,-10.0,0
-10.0,-222.0,115.0,-3.0,57.0,-6.0,0
-13.0,-218.0,99.0,-4.0,57.0,-9.0,0
-13.0,-217.0,102.0,-1.0,56.0,-7.0,0
-10.0,-217.0,99.0,-1.0,57.0,-8.0,0
-11.0,-217.0,98.0,-3.0,56.0,-7.0,0
-14.0,-217.0,104.0,-5.0,54.0,-9.0,0
-14.0,-214.0,99.0,-7.0,54.0,-8.0,0
-16.0,-214.0,100.0,-8.0,53.0,-10.0,0
-12.0,-213.0,100.0,-10.0,52.0,-10.0,0
-13.0,-216.0,103.0,-9.0,52.0,-10.0,0
-13.0,-216.0,99.0,-10.0,53.0,-8.0,0
-11.0,-217.0,113.0,-11.0,51.0,-9.0,0
-14.0,-216.0,103.0,-9.0,52.0,-7.0,0
-14.0,-213.0,103.0,-8.0,52.0,-8.0,0
-12.0,-217.0,99.0,-10.0,52.0,-7.0,0
-14.0,-215.0,101.0,-8.0,53.0,-7.0,0
-12.0,-214.0,102.0,-11.0,52.0,-7.0,0
-13.0,-215.0,100.0,-11.0,52.0,-6.0,0
-11.0,-212.0,104.0,-13.0,53.0,-7.0,0
-13.0,-215.0,97.0,-13.0,53.0,-6.0,0
-12.0,-217.0,99.0,-14.0,52.0,-7.0,0
-13.0,-219.0,100.0,-15.0,53.0,-8.0,0
-24.0,-219.0,115.0,-13.0,53.0,-8.0,0
-12.0,-218.0,103.0,-15.0,53.0,-9.0,0
-12.0,-218.0,98.0,-15.0,53.0,-9.0,0
-13.0,-217.0,103.0,-16.0,52.0,-7.0,0
-14.0,-219.0,102.0,-15.0,52.0,-8.0,0
-14.0,-217.0,103.0,-15.0,53.0,-6.0,0
-12.0,-215.0,102.0,-16.0,52.0,-7.0,0
-12.0,-217.0,101.0,-15.0,53.0,-8.0,0
-14.0,-215.0,100.0,-14.0,53.0,-9.0,0
-15.0,-217.0,96.0,-14.0,51.0,-9.0,0
-9.0,-217.0,96.0,-12.0,52.0,-11.0,0
-1.0,-214.0,101.0,-12.0,52.0,-11.0,0
-13.0,-217.0,103.0,-13.0,51.0,-11.0,0
-14.0,-215.0,104.0,-14.0,51.0,-10.0,0
-13.0,-216.0,102.0,-15.0,52.0,-12.0,0
-13.0,-218.0,102.0,-15.0,52.0,-9.0,0
-11.0,-218.0,101.0,-16.0,52.0,-12.0,0
-14.0,-213.0,100.0,-16.0,53.0,-10.0,0
-14.0,-214.0,102.0,-15.0,53.0,-11.0,0
-13.0,-215.0,102.0,-16.0,54.0,-9.0,0
-10.0,-216.0,101.0,-15.0,54.0,-10.0,0
-13.0,-217.0,108.0,-13.0,56.0,-8.0,0
-4.0,-232.0,123.0,-11.0,57.0,-10.0,0
-13.0,-218.0,100.0,-8.0,56.0,-5.0,0
-12.0,-216.0,99.0,-5.0,55.0,-6.0,0
-10.0,-221.0,104.0,0.0,57.0,-3.0,0
-14.0,-217.0,101.0,5.0,57.0,-6.0,0
-12.0,-218.0,104.0,9.0,57.0,-6.0,0
-13.0,-219.0,96.0,13.0,54.0,-9.0,0
-8.0,-215.0,98.0,15.0,55.0,-7.0,0
-11.0,-219.0,97.0,16.0,53.0,-9.0,0
-13.0,-215.0,101.0,18.0,53.0,-7.0,0
-6.0,-211.0,103.0,18.0,51.0,-10.0,0
-4.0,-221.0,101.0,15.0,48.0,-7.0,0
-12.0,-219.0,101.0,10.0,48.0,-9.0,0
-12.0,-219.0,102.0,6.0,50.0,-8.0,0
-15.0,-213.0,100.0,5.0,49.0,-10.0,0
-13.0,-219.0,98.0,0.0,51.0,-8.0,0
-14.0,-214.0,101.0,-2.0,52.0,-10.0,0
-15.0,-214.0,102.0,-2.0,55.0,-7.0,0
-13.0,-216.0,102.0,-2.0,57.0,-11.0,0
-15.0,-216.0,104.0,0.0,58.0,-8.0,0
-14.0,-216.0,104.0,3.0,59.0,-11.0,0
-13.0,-219.0,101.0,7.0,60.0,-8.0,0
-4.0,-237.0,110.0,8.0,59.0,-9.0,0
-12.0,-215.0,105.0,11.0,59.0,-8.0,0
-13.0,-215.0,104.0,12.0,57.0,-10.0,0
-13.0,-215.0,103.0,13.0,57.0,-8.0,0
-11.0,-216.0,99.0,10.0,57.0,-10.0,0
-15.0,-215.0,104.0,10.0,57.0,-7.0,0
-10.0,-213.0,107.0,6.0,56.0,-10.0,0
-14.0,-212.0,102.0,2.0,57.0,-8.0,0
-10.0,-215.0,106.0,-1.0,55.0,-10.0,0
-14.0,-217.0,101.0,-7.0,55.0,-10.0,0
-12.0,-216.0,101.0,-12.0,53.0,-10.0,0
-13.0,-219.0,110.0,-18.0,53.0,-8.0,0
-11.0,-216.0,103.0,-22.0,53.0,-10.0,0
-15.0,-214.0,104.0,-28.0,53.0,-6.0,0
-13.0,-217.0,101.0,-32.0,52.0,-9.0,0
-14.0,-215.0,100.0,-33.0,53.0,-7.0,0
-10.0,-219.0,101.0,-35.0,53.0,-9.0,0
-13.0,-217.0,105.0,-34.0,55.0,-5.0,0
-13.0,-219.0,97.0,-34.0,55.0,-4.0,0
-12.0,-218.0,104.0,-31.0,56.0,-3.0,0
-11.0,-220.0,101.0,-27.0,56.0,-5.0,0
-12.0,-218.0,100.0,-24.0,57.0,-2.0,0
-7.0,-207.0,83.0,-21.0,56.0,-3.0,0
-15.0,-218.0,101.0,-15.0,56.0,-1.0,0
-14.0,-217.0,102.0,-13.0,56.0,-2.0,0
-12.0,-216.0,101.0,-11.0,57.0,-2.0,0
-12.0,-218.0,98.0,-9.0,57.0,-3.0,0
-11.0,-217.0,105.0,-10.0,56.0,-4.0,0
-13.0,-217.0,102.0,-10.0,57.0,-5.0,0
-14.0,-218.0,102.0,-13.0,57.0,-7.0,0
-13.0,-217.0,102.0,-14.0,58.0,-7.0,0
-15.0,-217.0,102.0,-15.0,59.0,-7.0,0
-12.0,-228.0,105.0,-14.0,58.0,-7.0,0
-13.0,-216.0,98.0,-15.0,58.0,-8.0,0
-13.0,-218.0,102.0,-14.0,58.0,-8.0,0
-12.0,-216.0,103.0,-13.0,58.0,-5.0,0
-13.0,-215.0,102.0,-12.0,56.0,-6.0,0
-14.0,-214.0,101.0,-13.0,55.0,-4.0,0
-14.0,-215.0,102.0,-13.0,52.0,-4.0,0
-11.0,-212.0,102.0,-12.0,52.0,-2.0,0
-8.0,-217.0,102.0,-13.0,51.0,-2.0,0
-12.0,-219.0,100.0,-12.0,50.0,-2.0,0
-17.0,-211.0,106.0,-11.0,51.0,-3.0,0
-15.0,-213.0,98.0,-11.0,51.0,-3.0,0
-11.0,-217.0,103.0,-11.0,51.0,-3.0,0
-12.0,-216.0,98.0,-10.0,51.0,-5.0,0
-12.0,-217.0,103.0,-9.0,55.0,-4.0,0
-12.0,-216.0,102.0,-10.0,56.0,-6.0,0
-12.0,-218.0,100.0,-8.0,57.0,-5.0,0
-12.0,-214.0,100.0,-8.0,58.0,-8.0,0
-12.0,-215.0,99.0,-7.0,59.0,-7.0,0
-15.0,-215.0,103.0,-7.0,59.0,-9.0,0
-12.0,-213.0,100.0,-6.0,59.0,-8.0,0
-12.0,-219.0,104.0,-6.0,59.0,-9.0,0
-8.0,-221.0,109.0,-6.0,58.0,-8.0,0
-10.0,-215.0,101.0,-7.0,59.0,-9.0,0
-11.0,-216.0,103.0,-9.0,57.0,-7.0,0
-14.0,-212.0,103.0,-8.0,57.0,-8.0,0
-12.0,-215.0,102.0,-9.0,57.0,-5.0,0
-11.0,-217.0,102.0,-11.0,58.0,-7.0,0
-12.0,-216.0,103.0,-13.0,58.0,-5.0,0
-13.0,-216.0,98.0,-13.0,57.0,-6.0,0
-10.0,-216.0,103.0,-12.0,57.0,-4.0,0
-14.0,-217.0,102.0,-12.0,57.0,-6.0,0
-13.0,-217.0,103.0,-10.0,59.0,-4.0,0
-9.0,-224.0,130.0,-9.0,59.0,-5.0,0
-14.0,-215.0,103.0,-8.0,59.0,-1.0,0
-13.0,-218.0,101.0,-6.0,58.0,-4.0,0
-13.0,-215.0,101.0,-8.0,58.0,-1.0,0
-12.0,-217.0,101.0,-8.0,58.0,-3.0,0
-12.0,-216.0,99.0,-8.0,57.0,-1.0,0
-13.0,-214.0,102.0,-10.0,56.0,-3.0,0
-9.0,-217.0,100.0,-11.0,57.0,-1.0,0
-12.0,-216.0,101.0,-15.0,58.0,-4.0,0
-12.0,-216.0,98.0,-16.0,56.0,-1.0,0
-14.0,-216.0,102.0,-19.0,57.0,-4.0,0
-16.0,-216.0,90.0,-21.0,57.0,-3.0,0
-13.0,-216.0,102.0,-24.0,59.0,-5.0,0
-10.0,-215.0,102.0,-29.0,60.0,-3.0,0
-9.0,-217.0,103.0,-33.0,60.0,-5.0,0
-10.0,-217.0,103.0,-36.0,60.0,-2.0,0
-13.0,-217.0,100.0,-39.0,60.0,-5.0,0
-14.0,-216.0,102.0,-41.0,62.0,-1.0,0
-12.0,-214.0,103.0,-42.0,61.0,-3.0,0
-11.0,-219.0,101.0,-40.0,59.0,1.0,0
-14.0,-216.0,102.0,-40.0,60.0,-1.0,0
-12.0,-217.0,98.0,-37.0,59.0,2.0,0
-11.0,-213.0,94.0,-34.0,59.0,-1.0,0
-8.0,-216.0,100.0,-31.0,59.0,2.0,0
-12.0,-217.0,99.0,-30.0,60.0,-1.0,0
-9.0,-218.0,103.0,-27.0,59.0,1.0,0
-13.0,-218.0,99.0,-24.0,59.0,0.0,0
-13.0,-217.0,102.0,-24.0,60.0,0.0,0
-12.0,-216.0,101.0,-22.0,59.0,-3.0,0
-13.0,-216.0,100.0,-19.0,61.0,-2.0,0
-13.0,-215.0,102.0,-19.0,61.0,-6.0,0
-13.0,-216.0,104.0,-17.0,62.0,-3.0,0
-13.0,-220.0,101.0,-17.0,63.0,-6.0,0
-26.0,-218.0,113.0,-17.0,64.0,-4.0,0
-12.0,-219.0,105.0,-15.0,65.0,-5.0,0
-13.0,-215.0,103.0,-15.0,66.0,-5.0,0
-14.0,-218.0,100.0,-13.0,66.0,-5.0,0
-14.0,-217.0,102.0,-12.0,66.0,-2.0,0
-15.0,-218.0,102.0,-10.0,64.0,-3.0,0
-11.0,-218.0,102.0,-10.0,62.0,-1.0,0
-14.0,-216.0,105.0,-10.0,62.0,0.0,0
-14.0,-218.0,103.0,-12.0,62.0,0.0,0
-14.0,-217.0,101.0,-13.0,61.0,0.0,0
-14.0,-217.0,100.0,-16.0,57.0,1.0,0
-13.0,-220.0,99.0,-17.0,56.0,0.0,0
-12.0,-216.0,100.0,-17.0,56.0,1.0,0
-14.0,-216.0,102.0,-15.0,56.0,0.0,0
-9.0,-217.0,97.0,-15.0,55.0,0.0,0
-13.0,-216.0,101.0,-13.0,54.0,-2.0,0
-11.0,-217.0,101.0,-10.0,55.0,-4.0,0
-13.0,-219.0,105.0,-8.0,57.0,-5.0,0
-12.0,-221.0,94.0,-5.0,58.0,-4.0,0
-16.0,-216.0,99.0,-4.0,59.0,-6.0,0
-15.0,-218.0,103.0,-2.0,60.0,-6.0,0
-15.0,-216.0,104.0,-1.0,62.0,-5.0,0
-31.0,-210.0,101.0,-1.0,63.0,-4.0,0
-15.0,-222.0,124.0,0.0,65.0,-5.0,0
-14.0,-217.0,104.0,0.0,66.0,-4.0,0
-13.0,-216.0,100.0,-1.0,65.0,-4.0,0
-13.0,-215.0,106.0,-1.0,65.0,-3.0,0
-14.0,-215.0,100.0,-3.0,65.0,-2.0,0
-9.0,-218.0,106.0,-5.0,64.0,-2.0,0
-10.0,-218.0,99.0,-9.0,62.0,-3.0,0
-14.0,-214.0,100.0,-13.0,59.0,-4.0,0
-13.0,-216.0,99.0,-18.0,58.0,-2.0,0
-13.0,-209.0,100.0,-21.0,56.0,-3.0,0
-11.0,-219.0,100.0,-24.0,54.0,-2.0,0
-11.0,-219.0,102.0,-30.0,54.0,-2.0,0
-13.0,-218.0,99.0,-34.0,55.0,-1.0,0
-12.0,-219.0,102.0,-36.0,55.0,-2.0,0
-15.0,-217.0,102.0,-36.0,56.0,-1.0,0
-15.0,-213.0,102.0,-34.0,59.0,-2.0,0
-12.0,-218.0,102.0,-33.0,61.0,-1.0,0
-12.0,-217.0,101.0,-28.0,61.0,-4.0,0
-15.0,-213.0,103.0,-23.0,62.0,-5.0,0
-15.0,-216.0,98.0,-19.0,62.0,-6.0,0
-12.0,-226.0,116.0,-15.0,62.0,-4.0,0
-13.0,-214.0,100.0,-11.0,64.0,-5.0,0
-14.0,-216.0,97.0,-9.0,62.0,-3.0,0
-12.0,-216.0,97.0,-7.0,63.0,-4.0,0
-14.0,-214.0,99.0,-8.0,64.0,-2.0,0
-13.0,-217.0,99.0,-9.0,64.0,-4.0,0
-15.0,-216.0,99.0,-11.0,61.0,-2.0,0
-14.0,-216.0,102.0,-14.0,62.0,-5.0,0
-13.0,-216.0,101.0,-18.0,61.0,-2.0,0
-12.0,-212.0,97.0,-20.0,58.0,-4.0,0
-12.0,-218.0,97.0,-23.0,56.0,-2.0,0
-11.0,-210.0,102.0,-27.0,55.0,-4.0,0
-13.0,-216.0,97.0,-29.0,54.0,-2.0,0
-12.0,-215.0,96.0,-30.0,53.0,-4.0,0
-14.0,-214.0,101.0,-31.0,51.0,-2.0,0
-13.0,-217.0,101.0,-32.0,52.0,-4.0,0
-15.0,-217.0,101.0,-29.0,51.0,-2.0,0
-13.0,-219.0,100.0,-27.0,52.0,-4.0,0
-11.0,-215.0,102.0,-25.0,53.0,-1.0,0
-12.0,-218.0,105.0,-21.0,53.0,-3.0,0
-10.0,-221.0,97.0,-18.0,53.0,0.0,0
-12.0,-217.0,96.0,-14.0,53.0,-3.0,0
-7.0,-218.0,87.0,-13.0,54.0,-1.0,0
-14.0,-217.0,105.0,-12.0,54.0,-4.0,0
-14.0,-218.0,99.0,-9.0,54.0,-2.0,0
-14.0,-218.0,99.0,-10.0,54.0,-4.0,0
-12.0,-216.0,101.0,-11.0,56.0,-3.0,0
-12.0,-217.0,99.0,-11.0,57.0,-7.0,0
-12.0,-217.0,96.0,-12.0,58.0,-7.0,0
-14.0,-214.0,101.0,-13.0,59.0,-8.0,0
-12.0,-218.0,100.0,-12.0,60.0,-7.0,0
-12.0,-220.0,101.0,-12.0,62.0,-9.0,0
-13.0,-220.0,105.0,-11.0,62.0,-7.0,0
-9.0,-227.0,107.0,-10.0,63.0,-8.0,0
-14.0,-216.0,98.0,-7.0,61.0,-6.0,0
-13.0,-217.0,101.0,-5.0,60.0,-8.0,0
-13.0,-214.0,104.0,-3.0,57.0,-5.0,0
-11.0,-216.0,103.0,-1.0,54.0,-7.0,0
-14.0,-216.0,102.0,-2.0,54.0,-6.0,0
-11.0,-214.0,104.0,-5.0,53.0,-6.0,0
-12.0,-219.0,103.0,-9.0,51.0,-3.0,0
-7.0,-214.0,102.0,-13.0,50.0,-6.0,0
-14.0,-212.0,105.0,-17.0,50.0,-4.0,0
-11.0,-216.0,99.0,-21.0,50.0,-7.0,0
-11.0,-208.0,101.0,-23.0,51.0,-3.0,0
-8.0,-213.0,108.0,-25.0,52.0,-5.0,0
-11.0,-221.0,132.0,-29.0,52.0,-3.0,0
-11.0,-216.0,101.0,-29.0,55.0,-3.0,0
-15.0,-201.0,105.0,-29.0,56.0,-2.0,0
-1.0,-229.0,111.0,-30.0,57.0,-4.0,0
-19.0,-213.0,102.0,-29.0,58.0,-1.0,0
-6.0,-221.0,103.0,-29.0,59.0,-3.0,0
-7.0,-233.0,97.0,-28.0,60.0,-1.0,0
-14.0,-216.0,94.0,-26.0,59.0,-3.0,0
-12.0,-218.0,102.0,-25.0,59.0,-2.0,0
-31.0,-221.0,113.0,-25.0,60.0,-4.0,0
10.0,-211.0,89.0,-25.0,60.0,-5.0,0
-13.0,-222.0,100.0,-24.0,61.0,-5.0,0
-8.0,-221.0,106.0,-22.0,61.0,-5.0,0
-6.0,-207.0,95.0,-20.0,61.0,-6.0,0
-7.0,-215.0,103.0,-17.0,61.0,-7.0,0
-13.0,-213.0,100.0,-16.0,61.0,-9.0,0
-14.0,-218.0,99.0,-14.0,61.0,-7.0,0
-14.0,-214.0,98.0,-12.0,62.0,-8.0,0
-10.0,-216.0,98.0,-13.0,62.0,-8.0,0
-11.0,-212.0,111.0,-13.0,61.0,-7.0,0
-15.0,-217.0,102.0,-14.0,59.0,-8.0,0
-13.0,-215.0,101.0,-18.0,58.0,-8.0,0
-14.0,-215.0,97.0,-19.0,58.0,-7.0,0
-13.0,-214.0,107.0,-20.0,58.0,-6.0,0
-6.0,-214.0,106.0,-21.0,57.0,-6.0,0
-10.0,-212.0,92.0,-21.0,56.0,-5.0,0
-12.0,-217.0,102.0,-23.0,57.0,-5.0,0
-13.0,-214.0,97.0,-23.0,55.0,-4.0,0
-15.0,-211.0,101.0,-25.0,54.0,-4.0,0
-13.0,-216.0,104.0,-24.0,55.0,-4.0,0
-12.0,-217.0,96.0,-23.0,56.0,-4.0,0
-14.0,-227.0,106.0,-24.0,57.0,-1.0,0
-13.0,-217.0,98.0,-26.0,60.0,-2.0,0
-13.0,-219.0,99.0,-27.0,61.0,-1.0,0
-15.0,-221.0,97.0,-28.0,60.0,-4.0,0
-11.0,-221.0,99.0,-27.0,60.0,-4.0,0
-13.0,-219.0,100.0,-27.0,61.0,-6.0,0
-14.0,-219.0,99.0,-25.0,60.0,-6.0,0
-15.0,-216.0,104.0,-22.0,62.0,-9.0,0
-15.0,-218.0,94.0,-19.0,62.0,-11.0,0
-13.0,-219.0,99.0,-16.0,61.0,-13.0,0
-11.0,-217.0,100.0,-13.0,61.0,-12.0,0
-12.0,-208.0,96.0,-13.0,62.0,-16.0,0
-14.0,-214.0,103.0,-15.0,63.0,-15.0,0
-11.0,-215.0,101.0,-20.0,67.0,-18.0,0
-14.0,-215.0,97.0,-28.0,71.0,-18.0,0
-15.0,-213.0,101.0,-34.0,74.0,-21.0,0
-12.0,-215.0,98.0,-46.0,76.0,-18.0,0
-16.0,-214.0,99.0,-60.0,76.0,-20.0,0
-15.0,-214.0,99.0,-78.0,73.0,-17.0,0
-12.0,-217.0,97.0,-98.0,69.0,-16.0,0
-14.0,-214.0,95.0,-125.0,66.0,-11.0,0
-1.0,-203.0,94.0,-149.0,62.0,-11.0,0
-15.0,-210.0,101.0,-168.0,60.0,-8.0,0
-12.0,-214.0,101.0,-186.0,56.0,-11.0,0
-15.0,-215.0,98.0,-199.0,56.0,-10.0,0
-12.0,-217.0,103.0,-208.0,55.0,-13.0,0
-13.0,-216.0,102.0,-210.0,57.0,-10.0,0
-12.0,-216.0,100.0,-211.0,60.0,-14.0,0
-13.0,-218.0,98.0,-210.0,63.0,-14.0,0
-13.0,-218.0,99.0,-205.0,69.0,-18.0,0
-14.0,-217.0,100.0,-201.0,74.0,-18.0,0
-14.0,-217.0,102.0,-196.0,78.0,-22.0,0
-14.0,-214.0,89.0,-193.0,79.0,-24.0,0
-15.0,-219.0,97.0,-191.0,81.0,-27.0,0
-13.0,-217.0,99.0,-191.0,82.0,-26.0,0
-15.0,-217.0,94.0,-191.0,81.0,-27.0,0
-15.0,-218.0,95.0,-191.0,82.0,-25.0,0
-13.0,-217.0,98.0,-192.0,81.0,-27.0,0
-15.0,-217.0,97.0,-191.0,84.0,-24.0,0
-11.0,-216.0,96.0,-195.0,85.0,-26.0,0
-13.0,-216.0,91.0,-198.0,85.0,-25.0,0
-13.0,-214.0,91.0,-205.0,86.0,-28.0,0
-11.0,-216.0,99.0,-213.0,90.0,-28.0,0
-17.0,-198.0,87.0,-225.0,90.0,-32.0,0
-13.0,-211.0,100.0,-239.0,92.0,-32.0,0
-10.0,-212.0,98.0,-255.0,96.0,-37.0,0
-10.0,-208.0,97.0,-274.0,98.0,-36.0,0
-9.0,-209.0,98.0,-294.0,99.0,-40.0,0
-10.0,-209.0,98.0,-313.0,102.0,-41.0,0
-11.0,-206.0,94.0,-336.0,105.0,-43.0,0
-13.0,-206.0,97.0,-363.0,107.0,-42.0,0
-13.0,-206.0,95.0,-385.0,111.0,-43.0,0
-13.0,-202.0,96.0,-407.0,114.0,-40.0,0
-13.0,-203.0,88.0,-422.0,117.0,-39.0,0
-8.0,-206.0,87.0,-435.0,118.0,-35.0,0
-12.0,-206.0,96.0,-445.0,117.0,-32.0,0
-13.0,-205.0,98.0,-449.0,118.0,-26.0,0
-12.0,-206.0,95.0,-451.0,115.0,-24.0,0
-13.0,-209.0,93.0,-452.0,114.0,-16.0,0
-8.0,-213.0,95.0,-450.0,109.0,-13.0,0
-10.0,-212.0,96.0,-442.0,106.0,-9.0,0
-12.0,-213.0,99.0,-434.0,101.0,-7.0,0
-13.0,-214.0,97.0,-425.0,94.0,-6.0,0
-13.0,-209.0,96.0,-415.0,88.0,-5.0,0
-8.0,-212.0,98.0,-405.0,84.0,-3.0,0
-9.0,-221.0,103.0,-398.0,80.0,-5.0,0
-6.0,-211.0,97.0,-396.0,75.0,-3.0,0
-5.0,-213.0,96.0,-398.0,72.0,-7.0,0
-7.0,-209.0,93.0,-405.0,70.0,-7.0,0
-11.0,-210.0,89.0,-419.0,69.0,-12.0,0
-8.0,-209.0,92.0,-435.0,69.0,-13.0,0
-9.0,-207.0,90.0,-455.0,70.0,-15.0,0
-6.0,-209.0,91.0,-475.0,70.0,-19.0,0
-11.0,-206.0,87.0,-498.0,70.0,-22.0,0
-9.0,-208.0,85.0,-524.0,71.0,-24.0,0
-10.0,-205.0,89.0,-547.0,74.0,-27.0,0
-6.0,-210.0,79.0,-572.0,76.0,-28.0,0
-11.0,-207.0,86.0,-595.0,78.0,-30.0,0
-14.0,-208.0,83.0,-616.0,78.0,-31.0,0
-13.0,-209.0,81.0,-639.0,77.0,-31.0,0
-13.0,-210.0,83.0,-660.0,78.0,-31.0,0
-14.0,-211.0,83.0,-681.0,79.0,-29.0,0
-15.0,-211.0,83.0,-702.0,79.0,-29.0,0
-13.0,-211.0,87.0,-725.0,79.0,-30.0,0
-11.0,-215.0,81.0,-750.0,77.0,-33.0,0
-13.0,-215.0,82.0,-777.0,74.0,-35.0,0
-13.0,-214.0,78.0,-808.0,76.0,-38.0,0
-8.0,-205.0,70.0,-839.0,77.0,-40.0,0
-12.0,-218.0,84.0,-869.0,81.0,-43.0,0
-8.0,-220.0,80.0,-904.0,83.0,-43.0,0
-10.0,-218.0,80.0,-932.0,84.0,-45.0,0
-10.0,-221.0,81.0,-958.0,84.0,-44.0,0
-5.0,-226.0,86.0,-979.0,83.0,-40.0,0
-7.0,-228.0,86.0,-995.0,81.0,-32.0,0
-6.0,-232.0,89.0,-1011.0,80.0,-29.0,0
-8.0,-237.0,100.0,-1026.0,78.0,-22.0,0
-6.0,-238.0,99.0,-1045.0,74.0,-18.0,0
-8.0,-241.0,101.0,-1061.0,68.0,-15.0,0
-6.0,-253.0,116.0,-1079.0,59.0,-17.0,0
-9.0,-256.0,108.0,-1091.0,49.0,-13.0,0
-4.0,-257.0,108.0,-1094.0,44.0,-14.0,0
-6.0,-260.0,107.0,-1086.0,37.0,-10.0,0
-12.0,-262.0,107.0,-1066.0,29.0,-10.0,0
-13.0,-266.0,110.0,-1036.0,22.0,-3.0,0
-9.0,-272.0,105.0,-1002.0,20.0,7.0,0
-13.0,-273.0,90.0,-965.0,24.0,22.0,0
-11.0,-278.0,84.0,-931.0,31.0,35.0,0
-10.0,-281.0,75.0,-901.0,42.0,52.0,0
-14.0,-279.0,65.0,-882.0,51.0,62.0,0
-12.0,-288.0,55.0,-880.0,62.0,72.0,0
-14.0,-294.0,47.0,-893.0,70.0,73.0,0
-16.0,-302.0,45.0,-915.0,77.0,73.0,0
-16.0,-304.0,42.0,-948.0,83.0,65.0,0
-16.0,-311.0,36.0,-981.0,90.0,60.0,0
-16.0,-316.0,36.0,-1010.0,99.0,47.0,0
-19.0,-322.0,39.0,-1030.0,111.0,39.0,0
-20.0,-329.0,39.0,-1038.0,120.0,23.0,0
-19.0,-336.0,30.0,-1037.0,132.0,13.0,0
-16.0,-339.0,31.0,-1020.0,148.0,-5.0,0
-18.0,-350.0,51.0,-987.0,163.0,-18.0,0
-16.0,-355.0,35.0,-949.0,175.0,-36.0,0
-16.0,-359.0,29.0,-905.0,180.0,-52.0,0
-16.0,-359.0,32.0,-854.0,181.0,-72.0,0
-19.0,-361.0,31.0,-797.0,178.0,-87.0,0
-19.0,-365.0,26.0,-736.0,173.0,-109.0,0
-23.0,-363.0,24.0,-674.0,169.0,-123.0,0
-27.0,-362.0,23.0,-610.0,160.0,-141.0,0
-31.0,-360.0,20.0,-543.0,150.0,-146.0,0
-28.0,-352.0,15.0,-473.0,139.0,-152.0,0
-31.0,-348.0,9.0,-387.0,129.0,-148.0,0
-29.0,-339.0,17.0,-317.0,117.0,-143.0,0
-34.0,-332.0,2.0,-253.0,106.0,-134.0,0
-34.0,-325.0,3.0,-196.0,92.0,-126.0,0
-32.0,-319.0,-1.0,-148.0,76.0,-117.0,0
-32.0,-316.0,0.0,-110.0,57.0,-115.0,0
-27.0,-306.0,-5.0,-85.0,39.0,-115.0,0
-21.0,-304.0,-2.0,-69.0,16.0,-120.0,0
-22.0,-301.0,-5.0,-56.0,-7.0,-122.0,0
-13.0,-294.0,-7.0,-48.0,-29.0,-133.0,0
-15.0,-290.0,-2.0,-38.0,-47.0,-140.0,0
-3.0,-288.0,-10.0,-35.0,-64.0,-147.0,0
-9.0,-282.0,-1.0,-31.0,-77.0,-155.0,0
-8.0,-278.0,0.0,-26.0,-90.0,-163.0,0
-7.0,-277.0,6.0,-23.0,-99.0,-163.0,0
-5.0,-273.0,5.0,-22.0,-103.0,-164.0,0
-6.0,-271.0,5.0,-22.0,-104.0,-159.0,0
-6.0,-271.0,8.0,-26.0,-99.0,-152.0,0
-8.0,-267.0,6.0,-35.0,-92.0,-138.0,0
-9.0,-271.0,8.0,-51.0,-81.0,-118.0,0
-11.0,-266.0,2.0,-84.0,-67.0,-101.0,0
-11.0,-267.0,6.0,-123.0,-55.0,-86.0,0
3.0,-263.0,-9.0,-173.0,-46.0,-71.0,0
-12.0,-267.0,0.0,-235.0,-38.0,-60.0,0
-9.0,-267.0,-1.0,-307.0,-31.0,-52.0,0
-12.0,-269.0,-4.0,-387.0,-30.0,-47.0,0
-12.0,-271.0,-13.0,-470.0,-32.0,-46.0,0
-8.0,-269.0,-15.0,-552.0,-39.0,-48.0,0
-9.0,-271.0,-17.0,-628.0,-49.0,-49.0,0
-8.0,-271.0,-17.0,-695.0,-62.0,-57.0,0
-4.0,-268.0,-19.0,-761.0,-73.0,-67.0,0
-2.0,-272.0,-18.0,-796.0,-85.0,-71.0,0
-3.0,-269.0,-21.0,-817.0,-94.0,-82.0,0
2.0,-266.0,-32.0,-818.0,-100.0,-92.0,0
1.0,-266.0,-18.0,-801.0,-105.0,-96.0,0
4.0,-265.0,-20.0,-769.0,-104.0,-102.0,0
2.0,-259.0,-20.0,-724.0,-97.0,-110.0,0
6.0,-258.0,-18.0,-670.0,-88.0,-119.0,0
2.0,-252.0,-17.0,-606.0,-78.0,-123.0,0
7.0,-244.0,-21.0,-525.0,-60.0,-128.0,0
8.0,-245.0,-15.0,-450.0,-47.0,-134.0,0
2.0,-239.0,-15.0,-373.0,-33.0,-132.0,0
7.0,-236.0,-17.0,-298.0,-22.0,-133.0,0
16.0,-222.0,-32.0,-230.0,-11.0,-135.0,0
5.0,-227.0,-15.0,-168.0,-5.0,-136.0,0
3.0,-220.0,-13.0,-109.0,-3.0,-130.0,0
3.0,-216.0,-9.0,-55.0,-1.0,-123.0,0
2.0,-215.0,-13.0,-7.0,0.0,-112.0,0
-1.0,-215.0,-11.0,36.0,2.0,-108.0,0
0.0,-212.0,-9.0,70.0,3.0,-102.0,0
0.0,-206.0,-13.0,94.0,6.0,-96.0,0
-4.0,-207.0,-12.0,110.0,9.0,-83.0,0
-4.0,-210.0,-11.0,118.0,15.0,-74.0,0
-6.0,-209.0,-9.0,119.0,20.0,-63.0,0
-6.0,-218.0,-19.0,116.0,25.0,-51.0,0
-8.0,-211.0,-7.0,110.0,29.0,-36.0,0
-9.0,-212.0,-11.0,95.0,34.0,-32.0,0
-11.0,-212.0,-15.0,76.0,39.0,-29.0,0
-14.0,-215.0,-14.0,57.0,41.0,-31.0,0
-13.0,-213.0,-15.0,27.0,44.0,-27.0,0
-14.0,-215.0,-11.0,4.0,46.0,-22.0,0
-12.0,-216.0,-18.0,-13.0,50.0,-17.0,0
-13.0,-218.0,-16.0,-31.0,55.0,-23.0,0
-16.0,-216.0,-15.0,-46.0,60.0,-28.0,0
-14.0,-216.0,-20.0,-61.0,63.0,-37.0,0
-13.0,-218.0,-17.0,-69.0,64.0,-39.0,0
-14.0,-224.0,-14.0,-77.0,61.0,-42.0,0
-17.0,-210.0,-33.0,-78.0,58.0,-35.0,0
-16.0,-211.0,-20.0,-82.0,53.0,-39.0,0
-16.0,-209.0,-21.0,-83.0,51.0,-37.0,0
-16.0,-209.0,-20.0,-76.0,46.0,-39.0,0
-16.0,-206.0,-19.0,-71.0,39.0,-32.0,0
-13.0,-203.0,-20.0,-58.0,32.0,-28.0,0
-17.0,-205.0,-14.0,-38.0,27.0,-16.0,0
-16.0,-199.0,-15.0,-19.0,20.0,-23.0,0
-13.0,-200.0,-20.0,-4.0,14.0,-26.0,0
-21.0,-195.0,-22.0,12.0,10.0,-29.0,0
-14.0,-196.0,-19.0,30.0,3.0,-22.0,0
-13.0,-197.0,-22.0,48.0,-4.0,-14.0,0
-10.0,-194.0,-22.0,71.0,-12.0,-1.0,0
-10.0,-192.0,-21.0,82.0,-18.0,-1.0,0
-11.0,-192.0,-26.0,90.0,-22.0,1.0,0
-10.0,-186.0,-23.0,95.0,-28.0,2.0,0
-9.0,-189.0,-22.0,95.0,-34.0,6.0,0
-12.0,-185.0,-23.0,89.0,-41.0,13.0,0
-9.0,-185.0,-24.0,83.0,-47.0,30.0,0
-10.0,-188.0,-25.0,75.0,-49.0,27.0,0
10.0,-188.0,-23.0,66.0,-49.0,27.0,0
-10.0,-183.0,-26.0,57.0,-43.0,23.0,0
-9.0,-185.0,-25.0,42.0,-40.0,31.0,0
-9.0,-189.0,-23.0,31.0,-35.0,37.0,0
-8.0,-189.0,-23.0,18.0,-29.0,38.0,0
-10.0,-190.0,-25.0,0.0,-23.0,34.0,0
-3.0,-193.0,-29.0,-18.0,-19.0,35.0,0
-4.0,-198.0,-32.0,-36.0,-15.0,38.0,0
-3.0,-202.0,-30.0,-59.0,-10.0,33.0,0
-5.0,-204.0,-35.0,-77.0,-7.0,25.0,0
-2.0,-210.0,-35.0,-91.0,-4.0,22.0,0
-3.0,-203.0,-43.0,-96.0,-4.0,13.0,0
-1.0,-214.0,-37.0,-96.0,-4.0,12.0,0
-1.0,-210.0,-36.0,-93.0,-5.0,10.0,0
-1.0,-218.0,-36.0,-88.0,-8.0,18.0,0
0.0,-218.0,-38.0,-88.0,-10.0,12.0,0
2.0,-226.0,-36.0,-86.0,-13.0,6.0,0
0.0,-225.0,-35.0,-84.0,-15.0,3.0,0
2.0,-231.0,-35.0,-77.0,-16.0,3.0,0
1.0,-232.0,-32.0,-66.0,-18.0,3.0,0
2.0,-236.0,-27.0,-51.0,-18.0,4.0,0
1.0,-240.0,-31.0,-34.0,-17.0,5.0,0
14.0,-244.0,-35.0,-6.0,-17.0,6.0,0
5.0,-251.0,-28.0,21.0,-16.0,5.0,0
3.0,-254.0,-20.0,48.0,-15.0,4.0,0
4.0,-257.0,-25.0,79.0,-12.0,3.0,0
1.0,-264.0,-20.0,104.0,-9.0,2.0,0
1.0,-262.0,-18.0,130.0,-7.0,2.0,0
1.0,-264.0,-19.0,149.0,-6.0,3.0,0
-2.0,-268.0,-18.0,166.0,-4.0,3.0,0
0.0,-264.0,-17.0,176.0,-3.0,3.0,0
-1.0,-268.0,-20.0,182.0,0.0,4.0,0
4.0,-262.0,-20.0,182.0,2.0,5.0,0
5.0,-259.0,-31.0,176.0,5.0,8.0,0
-3.0,-262.0,-18.0,168.0,8.0,10.0,0
-3.0,-261.0,-23.0,153.0,12.0,15.0,0
-3.0,-257.0,-23.0,138.0,11.0,20.0,0
-2.0,-255.0,-22.0,119.0,13.0,25.0,0
-1.0,-254.0,-23.0,101.0,14.0,29.0,0
-2.0,-250.0,-21.0,82.0,13.0,34.0,0
-1.0,-246.0,-23.0,60.0,11.0,34.0,0
-4.0,-244.0,-26.0,31.0,9.0,37.0,0
-5.0,-243.0,-19.0,7.0,8.0,37.0,0
1.0,-228.0,-35.0,-20.0,8.0,40.0,0
-1.0,-242.0,-15.0,-44.0,8.0,39.0,0
-6.0,-236.0,-19.0,-67.0,7.0,42.0,0
-2.0,-233.0,-14.0,-80.0,10.0,47.0,0
0.0,-233.0,-14.0,-90.0,14.0,49.0,0
-3.0,-231.0,-16.0,-100.0,17.0,40.0,0
-1.0,-229.0,-11.0,-107.0,20.0,32.0,0
0.0,-228.0,-10.0,-108.0,24.0,22.0,0
-2.0,-227.0,-5.0,-105.0,27.0,17.0,0
-1.0,-227.0,-11.0,-99.0,29.0,11.0,0
-2.0,-229.0,-6.0,-89.0,34.0,17.0,0
2.0,-235.0,-9.0,-85.0,36.0,9.0,0
-1.0,-229.0,-8.0,-85.0,37.0,4.0,0
1.0,-232.0,-13.0,-88.0,37.0,-3.0,0
1.0,-229.0,-17.0,-93.0,38.0,-3.0,0
0.0,-236.0,-13.0,-99.0,37.0,-7.0,0
2.0,-240.0,-16.0,-107.0,37.0,-7.0,0
-2.0,-240.0,-15.0,-114.0,40.0,-9.0,0
2.0,-249.0,-17.0,-117.0,41.0,-1.0,0
2.0,-254.0,-16.0,-123.0,45.0,-9.0,0
3.0,-255.0,-16.0,-126.0,49.0,-11.0,0
-2.0,-258.0,-15.0,-122.0,52.0,-15.0,0
-1.0,-254.0,-32.0,-113.0,55.0,-15.0,0
0.0,-262.0,-24.0,-99.0,58.0,-19.0,0
-1.0,-260.0,-22.0,-87.0,57.0,-19.0,0
1.0,-263.0,-22.0,-73.0,58.0,-23.0,0
-2.0,-262.0,-24.0,-61.0,58.0,-22.0,0
1.0,-265.0,-25.0,-49.0,59.0,-24.0,0
2.0,-266.0,-23.0,-36.0,60.0,-23.0,0
2.0,-266.0,-22.0,-27.0,63.0,-25.0,0
0.0,-266.0,-21.0,-21.0,67.0,-23.0,0
3.0,-268.0,-18.0,-17.0,71.0,-25.0,0
-3.0,-263.0,-20.0,-12.0,75.0,-21.0,0
3.0,-263.0,-17.0,-7.0,80.0,-19.0,0
-1.0,-265.0,-19.0,-3.0,84.0,-15.0,0
0.0,-263.0,-15.0,3.0,87.0,-14.0,0
-2.0,-260.0,-14.0,10.0,90.0,-11.0,0
4.0,-259.0,-16.0,20.0,92.0,-12.0,0
1.0,-256.0,-14.0,35.0,92.0,-10.0,0
1.0,-255.0,-19.0,46.0,94.0,-10.0,0
2.0,-254.0,-11.0,60.0,95.0,-10.0,0
1.0,-249.0,-15.0,71.0,95.0,-12.0,0
1.0,-247.0,-11.0,79.0,95.0,-9.0,0
-11.0,-246.0,-18.0,84.0,93.0,-11.0,0
4.0,-243.0,-9.0,85.0,93.0,-9.0,0
3.0,-240.0,-12.0,80.0,92.0,-9.0,0
-1.0,-242.0,-10.0,73.0,92.0,-6.0,0
1.0,-240.0,-8.0,61.0,95.0,-9.0,0
1.0,-239.0,-11.0,44.0,98.0,-6.0,0
2.0,-241.0,-11.0,28.0,102.0,-8.0,0
-1.0,-241.0,-12.0,12.0,108.0,-7.0,0
3.0,-244.0,-6.0,-5.0,114.0,-9.0,0
0.0,-244.0,-11.0,-18.0,119.0,-9.0,0
-1.0,-247.0,-15.0,-26.0,125.0,-10.0,0
16.0,-240.0,-33.0,-33.0,128.0,-11.0,0
0.0,-250.0,-10.0,-37.0,132.0,-14.0,0
1.0,-251.0,-13.0,-36.0,130.0,-13.0,0
-1.0,-253.0,-13.0,-34.0,130.0,-13.0,0
-4.0,-253.0,-11.0,-26.0,128.0,-15.0,0
-2.0,-254.0,-13.0,-16.0,129.0,-14.0,0
-1.0,-256.0,-14.0,-7.0,126.0,-14.0,0
-3.0,-255.0,-19.0,0.0,127.0,-15.0,0
-2.0,-255.0,-15.0,5.0,127.0,-16.0,0
-3.0,-255.0,-15.0,8.0,128.0,-18.0,0
-2.0,-254.0,-23.0,7.0,127.0,-20.0,0
-5.0,-258.0,-10.0,6.0,126.0,-22.0,0
-2.0,-251.0,-21.0,4.0,127.0,-20.0,0
-2.0,-251.0,-18.0,2.0,128.0,-20.0,0
-2.0,-253.0,-15.0,1.0,129.0,-22.0,0
-1.0,-254.0,-19.0,1.0,132.0,-23.0,0
-1.0,-251.0,-14.0,5.0,134.0,-24.0,0
-1.0,-251.0,-13.0,10.0,136.0,-22.0,0
-1.0,-253.0,-9.0,18.0,138.0,-20.0,0
-4.0,-251.0,-11.0,26.0,139.0,-19.0,0
-2.0,-251.0,-9.0,36.0,140.0,-17.0,0
-2.0,-251.0,-16.0,45.0,139.0,-16.0,0
-9.0,-245.0,-19.0,52.0,136.0,-11.0,0
-3.0,-249.0,-13.0,56.0,131.0,-6.0,0
-4.0,-249.0,-10.0,58.0,126.0,-6.0,0
-2.0,-247.0,-14.0,54.0,122.0,0.0,0
-3.0,-249.0,-14.0,50.0,117.0,0.0,0
0.0,-250.0,-16.0,44.0,114.0,3.0,0
-2.0,-250.0,-15.0,37.0,110.0,2.0,0
-1.0,-248.0,-12.0,29.0,106.0,2.0,0
-5.0,-250.0,-11.0,23.0,100.0,0.0,0
-4.0,-254.0,-12.0,19.0,98.0,0.0,0
-5.0,-252.0,-13.0,18.0,96.0,-2.0,0
-6.0,-248.0,-23.0,19.0,92.0,0.0,0
-5.0,-253.0,-14.0,21.0,91.0,-5.0,0
-5.0,-252.0,-9.0,24.0,90.0,-3.0,0
-6.0,-253.0,-12.0,28.0,89.0,-6.0,0
-5.0,-251.0,-9.0,31.0,88.0,-4.0,0
-5.0,-252.0,-13.0,32.0,87.0,-6.0,0
-3.0,-249.0,-13.0,31.0,86.0,-5.0,0
-4.0,-250.0,-14.0,28.0,85.0,-7.0,0
-4.0,-252.0,-9.0,23.0,85.0,-6.0,0
-5.0,-252.0,-11.0,19.0,82.0,-8.0,0
-5.0,-248.0,-5.0,16.0,80.0,-8.0,0
-11.0,-253.0,-16.0,13.0,77.0,-11.0,0
-3.0,-251.0,-7.0,12.0,74.0,-8.0,0
-3.0,-250.0,-6.0,12.0,72.0,-10.0,0
-4.0,-251.0,-8.0,12.0,69.0,-7.0,0
-4.0,-251.0,-7.0,15.0,64.0,-11.0,0
-4.0,-250.0,-5.0,17.0,62.0,-8.0,0
-2.0,-251.0,-6.0,20.0,60.0,-10.0,0
-5.0,-247.0,-7.0,20.0,59.0,-7.0,0
-7.0,-250.0,0.0,21.0,59.0,-12.0,0
-2.0,-249.0,-3.0,19.0,57.0,-9.0,0
-5.0,-248.0,-4.0,12.0,54.0,-14.0,0
0.0,-237.0,-12.0,6.0,52.0,-11.0,0
-5.0,-245.0,-8.0,-1.0,49.0,-13.0,0
-3.0,-245.0,-4.0,-11.0,47.0,-9.0,0
-3.0,-248.0,-9.0,-23.0,42.0,-12.0,0
-2.0,-247.0,-3.0,-33.0,37.0,-8.0,0
-4.0,-246.0,-8.0,-42.0,35.0,-9.0,0
-4.0,-249.0,-10.0,-46.0,29.0,-5.0,0
0.0,-248.0,-7.0,-49.0,25.0,-7.0,0
-1.0,-250.0,-12.0,-51.0,20.0,-3.0,0
-4.0,-250.0,-10.0,-50.0,16.0,-5.0,0
-2.0,-254.0,-7.0,-43.0,13.0,-1.0,0
-7.0,-245.0,-13.0,-36.0,11.0,-3.0,0
0.0,-254.0,-7.0,-29.0,10.0,0.0,0
0.0,-256.0,-8.0,-19.0,11.0,0.0,0
-5.0,-255.0,-5.0,-11.0,11.0,1.0,0
-2.0,-254.0,-8.0,-3.0,13.0,0.0,0
-3.0,-253.0,-7.0,4.0,16.0,3.0,0
-3.0,-251.0,-9.0,8.0,16.0,3.0,0
-5.0,-250.0,-8.0,9.0,18.0,4.0,0
-6.0,-251.0,-8.0,5.0,18.0,3.0,0
1.0,-251.0,-11.0,1.0,19.0,5.0,0
-4.0,-251.0,-11.0,-4.0,20.0,3.0,0
-9.0,-255.0,-7.0,-12.0,19.0,4.0,0
-4.0,-251.0,-11.0,-18.0,20.0,3.0,0
-1.0,-251.0,-9.0,-21.0,19.0,5.0,0
-4.0,-251.0,-6.0,-22.0,19.0,2.0,0
-3.0,-251.0,-11.0,-22.0,19.0,3.0,0
0.0,-253.0,-6.0,-21.0,19.0,1.0,0
-3.0,-250.0,-5.0,-18.0,18.0,1.0,0
-1.0,-252.0,-8.0,-15.0,18.0,0.0,0
-1.0,-251.0,-9.0,-13.0,19.0,1.0,0
-2.0,-253.0,-2.0,-11.0,18.0,1.0,0
-5.0,-236.0,-18.0,-8.0,20.0,1.0,0
-2.0,-253.0,-10.0,-8.0,22.0,0.0,0
-1.0,-250.0,-6.0,-7.0,25.0,1.0,0
0.0,-249.0,-6.0,-8.0,27.0,-1.0,0
-3.0,-251.0,-6.0,-9.0,29.0,1.0,0
-1.0,-250.0,-11.0,-11.0,31.0,0.0,0
-1.0,-249.0,-10.0,-12.0,33.0,-1.0,0
-7.0,-251.0,-5.0,-14.0,34.0,-1.0,0
1.0,-252.0,-11.0,-15.0,35.0,0.0,0
1.0,-250.0,-6.0,-19.0,35.0,-2.0,0
-3.0,-249.0,-9.0,-21.0,37.0,0.0,0
-1.0,-250.0,10.0,-25.0,39.0,-1.0,0
-1.0,-249.0,-6.0,-28.0,42.0,0.0,0
-2.0,-248.0,-9.0,-31.0,44.0,-1.0,0
-1.0,-252.0,-7.0,-35.0,46.0,2.0,0
0.0,-250.0,-8.0,-39.0,47.0,4.0,0
-2.0,-251.0,-4.0,-39.0,48.0,3.0,0
-3.0,-251.0,-6.0,-41.0,48.0,5.0,0
-1.0,-254.0,-6.0,-41.0,49.0,5.0,0
-4.0,-251.0,-11.0,-41.0,49.0,8.0,0
0.0,-252.0,-5.0,-39.0,49.0,7.0,0
-1.0,-252.0,-6.0,-36.0,49.0,8.0,0
7.0,-264.0,3.0,-31.0,50.0,6.0,0
-3.0,-251.0,-5.0,-32.0,49.0,7.0,0
-3.0,-251.0,-5.0,-30.0,49.0,6.0,0
-2.0,-254.0,-6.0,-30.0,46.0,7.0,0
-6.0,-249.0,-5.0,-31.0,45.0,6.0,0
-3.0,-248.0,-8.0,-34.0,47.0,8.0,0
-2.0,-249.0,-8.0,-39.0,46.0,8.0,0
2.0,-250.0,-5.0,-45.0,48.0,11.0,0
-6.0,-246.0,-12.0,-49.0,49.0,11.0,0
-7.0,-243.0,-8.0,-56.0,50.0,14.0,0
-2.0,-246.0,-11.0,-62.0,50.0,12.0,0
-12.0,-246.0,-17.0,-68.0,51.0,14.0,0
-4.0,-249.0,-8.0,-74.0,54.0,12.0,0
-3.0,-253.0,-9.0,-76.0,55.0,15.0,0
-2.0,-255.0,-9.0,-77.0,55.0,12.0,0
-1.0,-255.0,-8.0,-76.0,56.0,12.0,0
-1.0,-254.0,-9.0,-73.0,58.0,10.0,0
-1.0,-254.0,-11.0,-67.0,59.0,11.0,0
-3.0,-255.0,-12.0,-59.0,59.0,8.0,0
-2.0,-255.0,-10.0,-52.0,60.0,7.0,0
-6.0,-254.0,-8.0,-46.0,60.0,4.0,0
-1.0,-255.0,-14.0,-41.0,62.0,4.0,0
-2.0,-248.0,-15.0,-36.0,65.0,0.0,0
-2.0,-256.0,-11.0,-36.0,70.0,-1.0,0
-4.0,-255.0,-10.0,-37.0,75.0,-4.0,0
-6.0,-255.0,-16.0,-37.0,79.0,-5.0,0
-5.0,-254.0,-12.0,-36.0,84.0,-10.0,0
-6.0,-253.0,-15.0,-37.0,88.0,-10.0,0
-5.0,-253.0,-13.0,-38.0,91.0,-16.0,0
-4.0,-251.0,-14.0,-35.0,93.0,-14.0,0
-6.0,-254.0,-9.0,-32.0,93.0,-18.0,0
-5.0,-255.0,-10.0,-25.0,91.0,-17.0,0
-7.0,-254.0,-9.0,-17.0,90.0,-19.0,0
-7.0,-267.0,2.0,-9.0,86.0,-16.0,0
-9.0,-254.0,-7.0,0.0,82.0,-17.0,0
-3.0,-253.0,-9.0,8.0,79.0,-13.0,0
-6.0,-251.0,-9.0,15.0,76.0,-14.0,0
-5.0,-253.0,-10.0,19.0,73.0,-10.0,0
-5.0,-248.0,-9.0,23.0,71.0,-11.0,0
-7.0,-248.0,-10.0,25.0,69.0,-7.0,0
-8.0,-249.0,-11.0,25.0,69.0,-8.0,0
-8.0,-250.0,-10.0,24.0,70.0,-5.0,0
-4.0,-252.0,-5.0,23.0,66.0,-6.0,0
1.0,-250.0,2.0,22.0,64.0,-4.0,0
-7.0,-258.0,6.0,17.0,66.0,-6.0,0
-6.0,-250.0,-6.0,17.0,64.0,-3.0,0
-8.0,-251.0,-5.0,15.0,63.0,-5.0,0
-7.0,-250.0,-9.0,14.0,65.0,-4.0,0
-2.0,-249.0,-8.0,12.0,62.0,-6.0,0
-6.0,-247.0,-5.0,10.0,63.0,-4.0,0
-5.0,-251.0,-6.0,5.0,61.0,-9.0,0
-7.0,-248.0,-10.0,1.0,61.0,-8.0,0
-5.0,-250.0,-1.0,-6.0,60.0,-9.0,0
-4.0,-252.0,-12.0,-10.0,59.0,-9.0,0
-4.0,-247.0,-10.0,-15.0,57.0,-12.0,0
-9.0,-249.0,-6.0,-19.0,56.0,-12.0,0
-5.0,-252.0,-11.0,-23.0,57.0,-12.0,0
-6.0,-251.0,-4.0,-25.0,58.0,-11.0,0
-4.0,-255.0,-8.0,-27.0,59.0,-12.0,0
-4.0,-254.0,-6.0,-25.0,62.0,-10.0,0
-2.0,-253.0,-9.0,-21.0,63.0,-12.0,0
-6.0,-251.0,-7.0,-18.0,66.0,-10.0,0
-3.0,-253.0,-9.0,-14.0,68.0,-14.0,0
-2.0,-252.0,-4.0,-9.0,71.0,-13.0,0
-5.0,-256.0,-9.0,-2.0,71.0,-12.0,0
0.0,-251.0,-6.0,3.0,69.0,-12.0,0
7.0,-257.0,-3.0,6.0,68.0,-13.0,0
-4.0,-253.0,-6.0,8.0,67.0,-13.0,0
-2.0,-254.0,-5.0,6.0,65.0,-12.0,0
-5.0,-252.0,-8.0,5.0,64.0,-12.0,0
-3.0,-250.0,-9.0,3.0,63.0,-12.0,0
-5.0,-252.0,-8.0,-1.0,61.0,-11.0,0
-6.0,-253.0,-7.0,-2.0,61.0,-12.0,0
-4.0,-250.0,-7.0,-5.0,61.0,-11.0,0
-6.0,-248.0,-6.0,-7.0,60.0,-10.0,0
-5.0,-251.0,-8.0,-5.0,61.0,-10.0,0
-6.0,-248.0,-9.0,-5.0,61.0,-11.0,0
-10.0,-260.0,-8.0,-2.0,60.0,-11.0,0
-7.0,-252.0,-10.0,-1.0,59.0,-9.0,0
-7.0,-252.0,-9.0,2.0,56.0,-7.0,0
-8.0,-252.0,-3.0,7.0,54.0,-8.0,0
-8.0,-251.0,-10.0,10.0,51.0,-7.0,0
-6.0,-250.0,-9.0,13.0,49.0,-6.0,0
-8.0,-253.0,-8.0,17.0,45.0,-6.0,0
-8.0,-253.0,-10.0,21.0,44.0,-4.0,0
-8.0,-251.0,-4.0,22.0,39.0,-6.0,0
-8.0,-254.0,-10.0,22.0,35.0,-3.0,0
-8.0,-247.0,-6.0,24.0,32.0,-4.0,0
-7.0,-250.0,-8.0,23.0,29.0,-4.0,0
-4.0,-252.0,-7.0,21.0,27.0,-3.0,0
-3.0,-250.0,-4.0,19.0,25.0,-3.0,0
-5.0,-251.0,-10.0,15.0,25.0,-3.0,0
-7.0,-249.0,-13.0,11.0,24.0,0.0,0
-7.0,-249.0,-9.0,5.0,22.0,-1.0,0
-8.0,-247.0,-9.0,-1.0,21.0,2.0,0
-3.0,-247.0,-12.0,-7.0,22.0,0.0,0
-7.0,-251.0,-7.0,-15.0,21.0,1.0,0
-4.0,-243.0,-11.0,-19.0,18.0,-1.0,0
-6.0,-252.0,11.0,-22.0,17.0,0.0,0
-4.0,-254.0,-1.0,-23.0,15.0,-4.0,0
-4.0,-252.0,-5.0,-19.0,15.0,-3.0,0
-3.0,-252.0,-5.0,-13.0,13.0,-4.0,0
-4.0,-251.0,-6.0,-9.0,12.0,-3.0,0
-1.0,-251.0,-4.0,-4.0,12.0,-6.0,0
-6.0,-249.0,-2.0,0.0,13.0,-2.0,0
-5.0,-251.0,-1.0,1.0,15.0,-5.0,0
-3.0,-251.0,-3.0,2.0,15.0,-2.0,0
-5.0,-253.0,-6.0,0.0,16.0,-4.0,0
-1.0,-249.0,-6.0,-5.0,16.0,-2.0,0
-2.0,-252.0,9.0,-10.0,16.0,-4.0,0
-5.0,-249.0,-7.0,-16.0,14.0,-2.0,0
-2.0,-250.0,-10.0,-21.0,14.0,-4.0,0
-4.0,-248.0,-6.0,-24.0,14.0,-1.0,0
-4.0,-251.0,-7.0,-29.0,12.0,-5.0,0
-2.0,-251.0,-6.0,-30.0,13.0,-2.0,0
-3.0,-250.0,-12.0,-32.0,11.0,-4.0,0
-8.0,-248.0,-7.0,-30.0,10.0,0.0,0
0.0,-252.0,-6.0,-27.0,10.0,-2.0,0
-5.0,-253.0,-7.0,-23.0,11.0,2.0,0
2.0,-250.0,-6.0,-20.0,8.0,0.0,0
-3.0,-250.0,-5.0,-19.0,6.0,3.0,0
-2.0,-250.0,-2.0,-19.0,4.0,2.0,0
-5.0,-249.0,-3.0,-19.0,5.0,3.0,0
-4.0,-251.0,-8.0,-21.0,5.0,2.0,0
-3.0,-252.0,-7.0,-22.0,5.0,5.0,0
-7.0,-252.0,-3.0,-24.0,5.0,3.0,0
-4.0,-250.0,-4.0,-25.0,6.0,4.0,0
-6.0,-253.0,-1.0,-25.0,7.0,2.0,0
-6.0,-251.0,-12.0,-26.0,8.0,4.0,0
-2.0,-254.0,-5.0,-25.0,8.0,2.0,0
-6.0,-252.0,-3.0,-24.0,7.0,3.0,0
2.0,-249.0,-22.0,-24.0,7.0,1.0,0
-4.0,-252.0,-10.0,-21.0,5.0,1.0,0
-5.0,-252.0,-9.0,-17.0,6.0,-1.0,0
-6.0,-250.0,-7.0,-15.0,5.0,-2.0,0
-4.0,-252.0,-10.0,-12.0,6.0,-3.0,0
-3.0,-252.0,-6.0,-10.0,7.0,-2.0,0
-6.0,-248.0,-6.0,-7.0,7.0,-4.0,0
-2.0,-253.0,-7.0,-5.0,7.0,-3.0,0
-6.0,-251.0,-8.0,-3.0,8.0,-6.0,0
-5.0,-250.0,-5.0,-1.0,10.0,-3.0,0
-5.0,-252.0,-7.0,1.0,10.0,-6.0,0
5.0,-247.0,-17.0,4.0,11.0,-4.0,0
-3.0,-251.0,-5.0,7.0,10.0,-5.0,0
-3.0,-249.0,0.0,10.0,9.0,-3.0,0
0.0,-252.0,-6.0,11.0,11.0,-3.0,0
-2.0,-251.0,-4.0,13.0,11.0,-2.0,0
-2.0,-254.0,-5.0,14.0,12.0,-3.0,0
-2.0,-251.0,-10.0,11.0,13.0,-1.0,0
-4.0,-249.0,-7.0,10.0,15.0,-1.0,0
-2.0,-251.0,-6.0,10.0,16.0,1.0,0
-3.0,-251.0,-3.0,8.0,18.0,-1.0,0
2.0,-249.0,-6.0,8.0,20.0,0.0,0
-7.0,-238.0,-8.0,7.0,21.0,1.0,0
-3.0,-249.0,-6.0,8.0,21.0,1.0,0
-4.0,-247.0,-9.0,7.0,22.0,2.0,0
-2.0,-250.0,0.0,8.0,24.0,2.0,0
-2.0,-247.0,-4.0,6.0,24.0,3.0,0
1.0,-255.0,0.0,8.0,26.0,2.0,0
0.0,-250.0,-1.0,6.0,28.0,1.0,0
1.0,-251.0,-2.0,2.0,31.0,1.0,0
-3.0,-248.0,-9.0,-1.0,32.0,1.0,0
-1.0,-252.0,-3.0,-3.0,34.0,0.0,0
-3.0,-248.0,-9.0,-8.0,33.0,0.0,0
2.0,-252.0,-5.0,-12.0,36.0,-2.0,0
-1.0,-250.0,-5.0,-15.0,39.0,-1.0,0
0.0,-250.0,-5.0,-15.0,40.0,-1.0,0
-4.0,-249.0,-7.0,-15.0,42.0,-1.0,0
2.0,-254.0,-8.0,-15.0,44.0,0.0,0
-1.0,-254.0,-4.0,-14.0,47.0,0.0,0
-3.0,-252.0,-4.0,-11.0,50.0,0.0,0
-2.0,-253.0,-6.0,-8.0,53.0,0.0,0
0.0,-251.0,-10.0,-7.0,56.0,-1.0,0
-4.0,-248.0,-9.0,-7.0,59.0,1.0,0
-3.0,-250.0,-10.0,-7.0,61.0,-2.0,0
1.0,-249.0,1.0,-9.0,61.0,0.0,0
6.0,-245.0,-14.0,-11.0,63.0,-1.0,0
-2.0,-247.0,-6.0,-16.0,64.0,1.0,0
-2.0,-251.0,-10.0,-19.0,63.0,0.0,0
-2.0,-247.0,-8.0,-23.0,64.0,2.0,0
-1.0,-251.0,-7.0,-25.0,65.0,0.0,0
-4.0,-249.0,-9.0,-27.0,65.0,0.0,0
-1.0,-250.0,-5.0,-25.0,65.0,-1.0,0
-2.0,-246.0,-3.0,-24.0,68.0,0.0,0
-2.0,-254.0,-12.0,-19.0,71.0,-2.0,0
-6.0,-241.0,-3.0,-15.0,72.0,0.0,0
-2.0,-251.0,-6.0,-10.0,74.0,-3.0,0
-4.0,-252.0,-7.0,-5.0,75.0,0.0,0
-5.0,-253.0,-3.0,-1.0,76.0,-3.0,0
-6.0,-253.0,-12.0,1.0,76.0,-2.0,0
-4.0,-253.0,-7.0,2.0,75.0,-5.0,0
-6.0,-250.0,-7.0,-1.0,76.0,-3.0,0
-4.0,-249.0,-8.0,-5.0,75.0,-6.0,0
-4.0,-252.0,-11.0,-8.0,76.0,-4.0,0
-6.0,-251.0,-9.0,-12.0,75.0,-7.0,0
2.0,-252.0,-8.0,-18.0,74.0,-6.0,0
-16.0,-241.0,-21.0,-21.0,74.0,-8.0,0
-4.0,-250.0,-6.0,-23.0,72.0,-5.0,0
-7.0,-252.0,-11.0,-24.0,71.0,-9.0,0
-3.0,-251.0,-8.0,-23.0,70.0,-7.0,0
-3.0,-252.0,-10.0,-20.0,69.0,-10.0,0
-4.0,-251.0,-8.0,-17.0,68.0,-6.0,0
-5.0,-252.0,-3.0,-12.0,68.0,-9.0,0
-5.0,-251.0,-7.0,-8.0,67.0,-6.0,0
-6.0,-253.0,-4.0,-3.0,66.0,-8.0,0
-6.0,-254.0,-1.0,2.0,66.0,-6.0,0
-6.0,-250.0,-7.0,3.0,65.0,-7.0,0
-5.0,-251.0,1.0,6.0,63.0,-5.0,0
-4.0,-250.0,-9.0,6.0,63.0,-7.0,0
-6.0,-248.0,-10.0,7.0,63.0,-5.0,0
-7.0,-251.0,-3.0,5.0,62.0,-6.0,0
-5.0,-249.0,-6.0,3.0,61.0,-3.0,0
-2.0,-253.0,-9.0,1.0,60.0,-4.0,0
-5.0,-252.0,-5.0,-2.0,59.0,-2.0,0
-5.0,-252.0,-4.0,-7.0,56.0,-6.0,0
-6.0,-250.0,-12.0,-7.0,52.0,-4.0,0
-6.0,-252.0,0.0,-8.0,51.0,-5.0,0
-1.0,-249.0,-6.0,-11.0,50.0,-4.0,0
-9.0,-250.0,-16.0,-12.0,51.0,-7.0,0
-3.0,-253.0,-5.0,-11.0,50.0,-4.0,0
-6.0,-252.0,-6.0,-11.0,49.0,-5.0,0
-4.0,-256.0,-8.0,-12.0,49.0,-4.0,0
-5.0,-253.0,-7.0,-13.0,48.0,-6.0,0
-4.0,-252.0,-7.0,-13.0,47.0,-4.0,0
-3.0,-253.0,-6.0,-13.0,45.0,-5.0,0
-4.0,-256.0,-2.0,-14.0,44.0,-5.0,0
-5.0,-254.0,-6.0,-13.0,43.0,-6.0,0
-5.0,-253.0,-10.0,-11.0,42.0,-5.0,0
-6.0,-250.0,-8.0,-10.0,42.0,-6.0,0
-10.0,-247.0,-18.0,-8.0,41.0,-3.0,0
-3.0,-253.0,-8.0,-5.0,40.0,-3.0,0
-4.0,-251.0,-8.0,-2.0,42.0,-1.0,0
-2.0,-253.0,-9.0,-1.0,41.0,-2.0,0
-7.0,-252.0,-8.0,2.0,39.0,0.0,0
-3.0,-253.0,-7.0,2.0,38.0,0.0,0
-5.0,-252.0,-7.0,3.0,38.0,-1.0,0
-6.0,-252.0,-9.0,4.0,37.0,-1.0,0
1.0,-248.0,-7.0,3.0,34.0,0.0,0
-5.0,-252.0,-5.0,2.0,33.0,-1.0,0
-4.0,-254.0,-3.0,0.0,32.0,-2.0,0
6.0,-249.0,-3.0,0.0,29.0,-1.0,0
-7.0,-249.0,-4.0,-1.0,28.0,-1.0,0
-4.0,-251.0,-2.0,-3.0,28.0,-1.0,0
-6.0,-249.0,-10.0,-3.0,27.0,-1.0,0
-5.0,-251.0,-1.0,-7.0,27.0,0.0,0
-5.0,-252.0,-5.0,-8.0,25.0,-1.0,0
-4.0,-249.0,-4.0,-9.0,25.0,1.0,0
-5.0,-249.0,0.0,-10.0,25.0,0.0,0
-8.0,-249.0,-6.0,-9.0,24.0,0.0,0
-6.0,-250.0,-4.0,-10.0,23.0,0.0,0
-4.0,-246.0,-7.0,-10.0,24.0,1.0,0
-8.0,-245.0,-4.0,-12.0,24.0,1.0,0
-3.0,-249.0,-8.0,-14.0,25.0,3.0,0
-5.0,-254.0,-6.0,-13.0,24.0,1.0,0
-2.0,-251.0,-4.0,-14.0,24.0,2.0,0
-3.0,-254.0,-11.0,-15.0,25.0,0.0,0
-4.0,-253.0,-9.0,-14.0,26.0,1.0,0
-6.0,-250.0,-6.0,-14.0,26.0,0.0,0
-4.0,-252.0,-5.0,-12.0,28.0,1.0,0
-2.0,-254.0,-1.0,-10.0,27.0,-1.0,0
-3.0,-253.0,-9.0,-8.0,29.0,0.0,0
1.0,-253.0,-8.0,-6.0,30.0,-2.0,0
-8.0,-256.0,18.0,-4.0,30.0,-2.0,0
-4.0,-254.0,-6.0,-1.0,30.0,-3.0,0
-5.0,-255.0,-6.0,1.0,28.0,-3.0,0
-4.0,-253.0,-6.0,3.0,26.0,-5.0,0
-2.0,-252.0,-2.0,5.0,25.0,-3.0,0
-1.0,-251.0,-3.0,6.0,25.0,-4.0,0
-5.0,-250.0,-8.0,7.0,24.0,-1.0,0
-6.0,-250.0,-6.0,6.0,23.0,-3.0,0
-3.0,-252.0,-4.0,2.0,24.0,-1.0,0
-6.0,-251.0,-5.0,0.0,24.0,-3.0,0
0.0,-247.0,-9.0,-3.0,25.0,-1.0,0
-8.0,-268.0,5.0,-7.0,25.0,-1.0,0
-6.0,-249.0,-3.0,-11.0,25.0,1.0,0
-4.0,-249.0,-5.0,-13.0,27.0,-1.0,0
-4.0,-250.0,-6.0,-15.0,24.0,2.0,0
-5.0,-250.0,-6.0,-16.0,24.0,0.0,0
-5.0,-249.0,-2.0,-15.0,25.0,2.0,0
-6.0,-252.0,-4.0,-16.0,25.0,0.0,0
-1.0,-253.0,-5.0,-15.0,24.0,3.0,0
-5.0,-251.0,-3.0,-13.0,24.0,1.0,0
-3.0,-255.0,-5.0,-10.0,26.0,3.0,0
1.0,-249.0,-10.0,-8.0,28.0,1.0,0
-7.0,-248.0,-10.0,-4.0,31.0,4.0,0
-5.0,-253.0,-6.0,-1.0,34.0,1.0,0
-5.0,-254.0,-2.0,-1.0,36.0,3.0,0
-4.0,-250.0,-3.0,-1.0,37.0,1.0,0
-1.0,-249.0,-1.0,-4.0,40.0,1.0,0
-3.0,-252.0,-3.0,-3.0,41.0,-2.0,0
-4.0,-251.0,-8.0,-4.0,43.0,-1.0,0
-1.0,-253.0,-4.0,-7.0,44.0,-3.0,0
-2.0,-249.0,-6.0,-10.0,45.0,-1.0,0
-1.0,-253.0,-12.0,-12.0,44.0,-4.0,0
-3.0,-257.0,9.0,-14.0,44.0,-3.0,0
-6.0,-250.0,-2.0,-15.0,44.0,-5.0,0
-5.0,-249.0,-3.0,-14.0,45.0,-2.0,0
-2.0,-251.0,-5.0,-13.0,45.0,-5.0,0
-5.0,-251.0,-6.0,-13.0,46.0,-3.0,0
-2.0,-253.0,-3.0,-11.0,48.0,-5.0,0
-4.0,-251.0,-4.0,-9.0,48.0,-4.0,0
0.0,-249.0,-3.0,-7.0,47.0,-5.0,0
-5.0,-252.0,-3.0,-6.0,47.0,-4.0,0
-7.0,-250.0,0.0,-4.0,45.0,-5.0,0
-5.0,-250.0,-2.0,-3.0,45.0,-4.0,0
-10.0,-248.0,5.0,-2.0,45.0,-4.0,0
-5.0,-251.0,-6.0,0.0,44.0,-2.0,0
-6.0,-252.0,-6.0,-2.0,45.0,-3.0,0
-3.0,-252.0,-5.0,-4.0,45.0,-1.0,0
-2.0,-246.0,-6.0,-7.0,45.0,-2.0,0
-5.0,-252.0,-9.0,-10.0,46.0,0.0,0
-5.0,-249.0,-6.0,-14.0,47.0,-2.0,0
-5.0,-249.0,-3.0,-17.0,48.0,-1.0,0
-2.0,-251.0,-2.0,-20.0,50.0,-3.0,0
-3.0,-247.0,-3.0,-21.0,51.0,-2.0,0
-4.0,-250.0,-5.0,-22.0,53.0,-3.0,0
-1.0,-247.0,-16.0,-20.0,54.0,-2.0,0
-4.0,-250.0,-2.0,-18.0,55.0,-4.0,0
-5.0,-250.0,-1.0,-15.0,55.0,-3.0,0
-3.0,-252.0,-3.0,-13.0,52.0,-5.0,0
-2.0,-252.0,-3.0,-11.0,53.0,-4.0,0
-4.0,-251.0,1.0,-9.0,52.0,-6.0,0
0.0,-251.0,-6.0,-9.0,51.0,-5.0,0
-4.0,-254.0,-6.0,-8.0,50.0,-5.0,0
-6.0,-251.0,-1.0,-10.0,49.0,-6.0,0
-4.0,-251.0,-1.0,-8.0,50.0,-4.0,0
-1.0,-256.0,-3.0,-8.0,49.0,-6.0,0
10.0,-259.0,-12.0,-7.0,51.0,-5.0,0
-6.0,-252.0,-5.0,-6.0,53.0,-5.0,0
-5.0,-251.0,-4.0,-7.0,54.0,-4.0,0
-7.0,-249.0,0.0,-9.0,53.0,-4.0,0
-2.0,-251.0,-4.0,-10.0,54.0,-3.0,0
-4.0,-252.0,-6.0,-12.0,57.0,-3.0,0
-6.0,-253.0,-4.0,-14.0,54.0,-1.0,0
-5.0,-249.0,-4.0,-16.0,53.0,-3.0,0
-2.0,-252.0,-6.0,-15.0,51.0,0.0,0
-6.0,-254.0,-5.0,-15.0,51.0,0.0,0
-6.0,-251.0,-4.0,-11.0,49.0,0.0,0
-2.0,-268.0,-2.0,-7.0,50.0,-1.0,0
-5.0,-252.0,-6.0,-5.0,50.0,0.0,0
-5.0,-250.0,-5.0,-1.0,49.0,-1.0,0
-6.0,-253.0,-1.0,4.0,49.0,-1.0,0
-7.0,-250.0,-8.0,7.0,50.0,-3.0,0
-4.0,-252.0,-4.0,12.0,51.0,-2.0,0
-4.0,-252.0,-8.0,15.0,52.0,-4.0,0
-6.0,-252.0,-4.0,17.0,52.0,-4.0,0
-8.0,-253.0,-6.0,20.0,53.0,-6.0,0
-6.0,-255.0,-6.0,19.0,53.0,-5.0,0
-7.0,-256.0,0.0,18.0,55.0,-7.0,0
-13.0,-250.0,0.0,15.0,58.0,-6.0,0
-3.0,-251.0,0.0,14.0,59.0,-7.0,0
-4.0,-253.0,-3.0,11.0,62.0,-6.0,0
-6.0,-250.0,-2.0,8.0,62.0,-8.0,0
-2.0,-250.0,-5.0,5.0,62.0,-4.0,0
-3.0,-252.0,-3.0,1.0,60.0,-6.0,0
-5.0,-254.0,-1.0,-1.0,57.0,-2.0,0
-4.0,-253.0,-1.0,-4.0,54.0,-3.0,0
-3.0,-251.0,-7.0,-8.0,52.0,0.0,0
-2.0,-253.0,-4.0,-11.0,48.0,-1.0,0
-2.0,-247.0,-5.0,-12.0,46.0,3.0,0
2.0,-247.0,-18.0,-16.0,42.0,0.0,0
-3.0,-251.0,-5.0,-18.0,41.0,3.0,0
-3.0,-250.0,-4.0,-18.0,42.0,3.0,0
-3.0,-249.0,-4.0,-19.0,43.0,6.0,0
-4.0,-250.0,-4.0,-18.0,47.0,5.0,0
-3.0,-253.0,-5.0,-18.0,50.0,5.0,0
-5.0,-254.0,-5.0,-14.0,51.0,4.0,0
-4.0,-252.0,-8.0,-12.0,53.0,7.0,0
-7.0,-254.0,-2.0,-9.0,54.0,4.0,0
-7.0,-252.0,-5.0,-5.0,55.0,7.0,0
-8.0,-252.0,-7.0,0.0,57.0,4.0,0
-11.0,-252.0,-7.0,3.0,60.0,6.0,0
-3.0,-254.0,-6.0,9.0,61.0,4.0,0
-5.0,-252.0,-9.0,13.0,62.0,4.0,0
-5.0,-252.0,-3.0,14.0,62.0,1.0,0
-4.0,-251.0,-8.0,17.0,63.0,1.0,0
-5.0,-251.0,-7.0,19.0,62.0,0.0,0
-4.0,-253.0,-7.0,19.0,62.0,1.0,0
-7.0,-248.0,-5.0,18.0,62.0,-2.0,0
-6.0,-250.0,-5.0,17.0,62.0,1.0,0
-6.0,-248.0,-3.0,16.0,62.0,-2.0,0
-2.0,-252.0,-2.0,14.0,61.0,1.0,0
-2.0,-247.0,-12.0,14.0,62.0,-1.0,0
-4.0,-251.0,-1.0,11.0,62.0,-1.0,0
-7.0,-251.0,-1.0,9.0,62.0,-3.0,0
-5.0,-250.0,0.0,7.0,63.0,-2.0,0
-3.0,-250.0,-4.0,5.0,63.0,-4.0,0
-5.0,-250.0,-5.0,3.0,63.0,-3.0,0
-5.0,-250.0,-1.0,3.0,64.0,-6.0,0
-4.0,-251.0,-1.0,2.0,64.0,-3.0,0
-5.0,-250.0,-8.0,3.0,64.0,-5.0,0
-3.0,-252.0,-2.0,2.0,63.0,-3.0,0
-11.0,-245.0,-14.0,0.0,65.0,-4.0,0
-4.0,-251.0,-1.0,-2.0,65.0,-3.0,0
-6.0,-249.0,-7.0,-3.0,65.0,-3.0,0
-7.0,-249.0,-5.0,-5.0,63.0,-2.0,0
-5.0,-250.0,-2.0,-6.0,64.0,-2.0,0
-5.0,-251.0,-8.0,-6.0,64.0,-1.0,0
-4.0,-251.0,-3.0,-4.0,65.0,-2.0,0
2.0,-249.0,-4.0,-2.0,68.0,-1.0,0
-1.0,-252.0,-4.0,-1.0,69.0,-2.0,0
-7.0,-253.0,-5.0,1.0,71.0,-1.0,0
-10.0,-252.0,-4.0,3.0,73.0,-1.0,0
-5.0,-250.0,-8.0,5.0,75.0,-3.0,0
-19.0,-243.0,5.0,8.0,76.0,-2.0,0
-4.0,-251.0,-4.0,7.0,77.0,-3.0,0
-6.0,-249.0,-5.0,7.0,77.0,-3.0,0
-6.0,-250.0,-6.0,6.0,75.0,-3.0,0
-6.0,-250.0,-3.0,3.0,74.0,-3.0,0
-7.0,-250.0,-10.0,0.0,72.0,-2.0,0
-4.0,-252.0,-6.0,-4.0,70.0,-3.0,0
-8.0,-248.0,-2.0,-9.0,68.0,-3.0,0
-9.0,-250.0,-2.0,-12.0,67.0,-3.0,0
-9.0,-249.0,-3.0,-15.0,67.0,-4.0,0
-13.0,-239.0,-11.0,-15.0,66.0,-4.0,0
-6.0,-252.0,-2.0,-13.0,66.0,-5.0,0
-5.0,-249.0,-4.0,-12.0,68.0,-4.0,0
-5.0,-249.0,-5.0,-9.0,66.0,-4.0,0
-5.0,-252.0,-5.0,-7.0,66.0,-2.0,0
-6.0,-248.0,-5.0,-5.0,66.0,-4.0,0
-7.0,-247.0,-6.0,-5.0,67.0,-2.0,0
-6.0,-251.0,-1.0,-4.0,66.0,-4.0,0
-10.0,-246.0,-8.0,-5.0,64.0,-1.0,0
-8.0,-250.0,-5.0,-6.0,65.0,-4.0,0
-10.0,-252.0,-10.0,-9.0,64.0,-1.0,0
-3.0,-238.0,-23.0,-11.0,63.0,-2.0,0
-8.0,-249.0,-7.0,-14.0,63.0,0.0,0
-5.0,-249.0,-2.0,-16.0,62.0,0.0,0
-8.0,-250.0,-5.0,-18.0,64.0,0.0,0
-3.0,-254.0,-7.0,-17.0,63.0,-2.0,0
-9.0,-253.0,-8.0,-15.0,63.0,-2.0,0
-6.0,-250.0,-2.0,-13.0,61.0,-4.0,0
-5.0,-252.0,-5.0,-9.0,61.0,-2.0,0
-9.0,-250.0,-4.0,-6.0,60.0,-4.0,0
-8.0,-251.0,-3.0,-5.0,59.0,-1.0,0
-5.0,-252.0,-4.0,-2.0,59.0,-3.0,0
5.0,-249.0,-4.0,-3.0,56.0,-2.0,0
-4.0,-250.0,-8.0,-5.0,55.0,-5.0,0
-6.0,-250.0,-9.0,-10.0,53.0,-1.0,0
-8.0,-249.0,-5.0,-14.0,51.0,-3.0,0
-5.0,-248.0,-4.0,-19.0,52.0,-2.0,0
-9.0,-249.0,0.0,-23.0,51.0,-5.0,0
-6.0,-250.0,-4.0,-25.0,49.0,-2.0,0
-5.0,-254.0,-2.0,-25.0,51.0,-4.0,0
-3.0,-252.0,-6.0,-24.0,52.0,-2.0,0
-4.0,-250.0,-4.0,-18.0,52.0,-6.0,0
0.0,-254.0,-1.0,-15.0,52.0,-5.0,0
-5.0,-255.0,8.0,-10.0,52.0,-7.0,0
-5.0,-253.0,-6.0,-4.0,54.0,-5.0,0
-6.0,-249.0,-2.0,1.0,54.0,-8.0,0
-5.0,-250.0,-4.0,3.0,54.0,-6.0,0
-5.0,-252.0,-6.0,2.0,55.0,-8.0,0
-3.0,-253.0,-2.0,1.0,53.0,-6.0,0
-6.0,-252.0,-3.0,-2.0,53.0,-7.0,0
-2.0,-254.0,-3.0,-7.0,54.0,-5.0,0
-6.0,-252.0,-4.0,-13.0,53.0,-6.0,0
-5.0,-248.0,-3.0,-18.0,53.0,-3.0,0
-7.0,-248.0,-6.0,-22.0,52.0,-5.0,0
1.0,-230.0,-13.0,-25.0,52.0,-2.0,0
-4.0,-253.0,-3.0,-29.0,54.0,-3.0,0
-6.0,-253.0,-5.0,-27.0,52.0,-2.0,0
-6.0,-251.0,-2.0,-24.0,51.0,-3.0,0
-6.0,-251.0,0.0,-22.0,51.0,-1.0,0
-5.0,-254.0,-2.0,-17.0,51.0,-3.0,0
-8.0,-252.0,-2.0,-12.0,53.0,-1.0,0
-8.0,-253.0,-3.0,-6.0,52.0,-4.0,0
-5.0,-252.0,-3.0,-4.0,52.0,-3.0,0
-5.0,-250.0,-1.0,-1.0,53.0,-5.0,0
-7.0,-250.0,-3.0,1.0,52.0,-3.0,0
-5.0,-240.0,-13.0,-1.0,52.0,-5.0,0
-5.0,-249.0,-4.0,-5.0,52.0,-4.0,0
-5.0,-250.0,-3.0,-10.0,52.0,-5.0,0
-7.0,-249.0,0.0,-15.0,53.0,-5.0,0
-8.0,-251.0,-6.0,-19.0,52.0,-5.0,0
-5.0,-253.0,-2.0,-22.0,54.0,-6.0,0
-9.0,-253.0,-1.0,-24.0,54.0,-6.0,0
-7.0,-251.0,-1.0,-25.0,55.0,-6.0,0
-7.0,-253.0,-3.0,-25.0,55.0,-7.0,0
-4.0,-253.0,-2.0,-24.0,56.0,-6.0,0
-4.0,-249.0,-3.0,-19.0,56.0,-7.0,0
-1.0,-263.0,11.0,-16.0,57.0,-7.0,0
-8.0,-251.0,-5.0,-10.0,55.0,-7.0,0
-7.0,-251.0,0.0,-8.0,54.0,-6.0,0
-4.0,-249.0,1.0,-6.0,53.0,-7.0,0
-6.0,-248.0,-5.0,-7.0,53.0,-6.0,0
-4.0,-250.0,-3.0,-8.0,52.0,-7.0,0
-6.0,-250.0,-2.0,-10.0,51.0,-6.0,0
-8.0,-248.0,-4.0,-13.0,51.0,-7.0,0
-5.0,-249.0,-3.0,-15.0,52.0,-6.0,0
-5.0,-247.0,-4.0,-17.0,53.0,-8.0,0
-2.0,-254.0,3.0,-18.0,54.0,-6.0,0
-5.0,-250.0,-1.0,-19.0,54.0,-6.0,0
-5.0,-251.0,-1.0,-17.0,56.0,-6.0,0
-4.0,-250.0,-2.0,-14.0,57.0,-5.0,0
-5.0,-254.0,-1.0,-11.0,59.0,-7.0,0
-4.0,-252.0,1.0,-8.0,62.0,-6.0,0
-4.0,-253.0,-3.0,-5.0,63.0,-7.0,0
-5.0,-252.0,-4.0,-2.0,64.0,-6.0,0
-5.0,-252.0,0.0,-2.0,63.0,-5.0,0
-4.0,-253.0,0.0,-1.0,62.0,-4.0,0
-3.0,-251.0,-3.0,-2.0,59.0,-6.0,0
2.0,-253.0,-14.0,-4.0,58.0,-4.0,0
-4.0,-252.0,-1.0,-8.0,55.0,-5.0,0
-4.0,-251.0,-4.0,-13.0,52.0,-4.0,0
-6.0,-251.0,-3.0,-18.0,51.0,-5.0,0
-6.0,-251.0,-5.0,-22.0,50.0,-4.0,0
-4.0,-251.0,0.0,-26.0,49.0,-6.0,0
-6.0,-251.0,-3.0,-29.0,52.0,-4.0,0
-5.0,-249.0,-3.0,-30.0,53.0,-4.0,0
-6.0,-252.0,-5.0,-28.0,53.0,-3.0,0
-4.0,-253.0,-2.0,-24.0,56.0,-7.0,0
-7.0,-254.0,-2.0,-18.0,57.0,-4.0,0
-8.0,-248.0,-6.0,-14.0,58.0,-6.0,0
-5.0,-254.0,-1.0,-9.0,58.0,-5.0,0
-5.0,-252.0,-3.0,-6.0,59.0,-5.0,0
-7.0,-254.0,-2.0,-4.0,59.0,-4.0,0
-6.0,-253.0,-4.0,-2.0,58.0,-5.0,0
-6.0,-248.0,-7.0,-2.0,59.0,-4.0,0
-6.0,-251.0,-2.0,-4.0,58.0,-5.0,0
-5.0,-253.0,0.0,-7.0,55.0,-4.0,0
-4.0,-251.0,-9.0,-12.0,54.0,-5.0,0
-6.0,-252.0,-4.0,-13.0,55.0,-4.0,0
-4.0,-251.0,1.0,-15.0,54.0,-6.0,0
-5.0,-255.0,-6.0,-13.0,55.0,-3.0,0
-4.0,-256.0,-1.0,-12.0,53.0,-6.0,0
-3.0,-254.0,-4.0,-9.0,55.0,-3.0,0
-5.0,-251.0,-2.0,-6.0,55.0,-6.0,0
-5.0,-251.0,-7.0,-2.0,57.0,-5.0,0
-4.0,-251.0,-6.0,0.0,58.0,-8.0,0
-4.0,-250.0,-1.0,1.0,57.0,-7.0,0
-5.0,-253.0,-2.0,1.0,58.0,-8.0,0
-7.0,-251.0,-2.0,0.0,57.0,-7.0,0
-5.0,-247.0,-1.0,-3.0,56.0,-9.0,0
-5.0,-250.0,-1.0,-4.0,56.0,-8.0,0
-3.0,-255.0,9.0,-8.0,56.0,-11.0,0
-4.0,-251.0,-1.0,-9.0,54.0,-8.0,0
-5.0,-250.0,-3.0,-10.0,53.0,-9.0,0
-7.0,-248.0,-2.0,-12.0,54.0,-6.0,0
-8.0,-250.0,-2.0,-13.0,52.0,-8.0,0
-5.0,-250.0,-3.0,-12.0,53.0,-5.0,0
-8.0,-253.0,-1.0,-13.0,52.0,-7.0,0
-1.0,-249.0,-2.0,-13.0,51.0,-4.0,0
-7.0,-250.0,0.0,-12.0,52.0,-6.0,0
-4.0,-249.0,0.0,-11.0,52.0,-5.0,0
-7.0,-250.0,-1.0,-9.0,53.0,-8.0,0
-6.0,-244.0,-21.0,-8.0,54.0,-7.0,0
-5.0,-253.0,-2.0,-6.0,54.0,-10.0,0
-6.0,-254.0,-2.0,-4.0,55.0,-7.0,0
-6.0,-251.0,-1.0,-3.0,57.0,-10.0,0
-4.0,-252.0,-1.0,-2.0,59.0,-8.0,0
-4.0,-253.0,0.0,-1.0,58.0,-9.0,0
-4.0,-250.0,-1.0,-1.0,59.0,-8.0,0
-4.0,-249.0,-5.0,0.0,58.0,-10.0,0
-9.0,-249.0,-4.0,-1.0,57.0,-8.0,0
-6.0,-254.0,2.0,-1.0,54.0,-9.0,0
-5.0,-249.0,-5.0,-4.0,52.0,-6.0,0
1.0,-256.0,-9.0,-7.0,49.0,-6.0,0
-3.0,-250.0,-4.0,-9.0,47.0,-5.0,0
-6.0,-248.0,-2.0,-13.0,46.0,-6.0,0
-3.0,-251.0,-3.0,-15.0,45.0,-6.0,0
-6.0,-252.0,-1.0,-16.0,43.0,-6.0,0
-6.0,-250.0,-3.0,-18.0,43.0,-4.0,0
-3.0,-249.0,-7.0,-18.0,44.0,-6.0,0
-5.0,-245.0,-2.0,-17.0,43.0,-7.0,0
-3.0,-249.0,-4.0,-16.0,44.0,-8.0,0
-4.0,-254.0,0.0,-15.0,46.0,-7.0,0
-6.0,-250.0,1.0,-15.0,47.0,-8.0,0
-4.0,-258.0,12.0,-12.0,49.0,-7.0,0
-5.0,-251.0,-1.0,-12.0,51.0,-9.0,0
-8.0,-250.0,-4.0,-12.0,50.0,-9.0,0
-6.0,-250.0,-1.0,-15.0,52.0,-8.0,0
-6.0,-251.0,-2.0,-15.0,53.0,-9.0,0
-6.0,-249.0,0.0,-18.0,55.0,-8.0,0
-6.0,-249.0,-1.0,-19.0,54.0,-9.0,0
-4.0,-253.0,-1.0,-22.0,55.0,-8.0,0
1.0,-251.0,-3.0,-25.0,53.0,-7.0,0
-2.0,-252.0,-3.0,-28.0,53.0,-5.0,0
-8.0,-253.0,-7.0,-29.0,53.0,-6.0,0
3.0,-251.0,-11.0,-29.0,51.0,-5.0,0
-4.0,-251.0,-4.0,-30.0,50.0,-6.0,0
-5.0,-254.0,-3.0,-29.0,51.0,-4.0,0
-5.0,-252.0,-2.0,-29.0,51.0,-4.0,0
-6.0,-252.0,-1.0,-28.0,50.0,-3.0,0
-6.0,-254.0,-3.0,-27.0,50.0,-4.0,0
-4.0,-254.0,-1.0,-25.0,50.0,-1.0,0
-4.0,-254.0,-2.0,-22.0,51.0,-4.0,0
-5.0,-252.0,0.0,-19.0,52.0,-3.0,0
-4.0,-253.0,2.0,-18.0,52.0,-4.0,0
-6.0,-254.0,-2.0,-18.0,53.0,-3.0,0
-9.0,-247.0,-2.0,-18.0,53.0,-6.0,0
-6.0,-252.0,-2.0,-19.0,52.0,-3.0,0
-6.0,-252.0,-2.0,-19.0,52.0,-6.0,0
-7.0,-250.0,-1.0,-20.0,52.0,-5.0,0
-8.0,-249.0,-2.0,-20.0,50.0,-7.0,0
-5.0,-251.0,-3.0,-23.0,49.0,-5.0,0
-4.0,-252.0,-3.0,-24.0,49.0,-7.0,0
-9.0,-248.0,-2.0,-24.0,50.0,-6.0,0
-8.0,-250.0,-1.0,-23.0,51.0,-7.0,0
-6.0,-252.0,1.0,-22.0,52.0,-6.0,0
6.0,-255.0,-4.0,-20.0,53.0,-5.0,0
-1.0,-253.0,-5.0,-19.0,54.0,-5.0,0
-5.0,-251.0,-2.0,-18.0,55.0,-7.0,0
-4.0,-252.0,-1.0,-17.0,55.0,-4.0,0
-8.0,-247.0,-2.0,-15.0,56.0,-6.0,0
-5.0,-250.0,-4.0,-12.0,57.0,-4.0,0
-3.0,-252.0,-1.0,-10.0,57.0,-7.0,0
-4.0,-251.0,-4.0,-8.0,57.0,-4.0,0
-5.0,-250.0,0.0,-8.0,57.0,-7.0,0
-4.0,-252.0,-5.0,-6.0,55.0,-6.0,0
-4.0,-251.0,-4.0,-7.0,55.0,-8.0,0
-10.0,-255.0,1.0,-6.0,53.0,-4.0,0
-3.0,-251.0,-3.0,-5.0,54.0,-8.0,0
-6.0,-252.0,-1.0,-4.0,54.0,-4.0,0
-6.0,-253.0,-1.0,-6.0,54.0,-7.0,0
-5.0,-250.0,1.0,-5.0,56.0,-5.0,0
-4.0,-250.0,-6.0,-5.0,57.0,-9.0,0
-5.0,-247.0,-2.0,-8.0,57.0,-6.0,0
-4.0,-250.0,-2.0,-11.0,60.0,-9.0,0
-4.0,-249.0,-2.0,-12.0,63.0,-7.0,0
-6.0,-249.0,1.0,-15.0,65.0,-9.0,0
-1.0,-252.0,-3.0,-15.0,67.0,-9.0,0
-10.0,-254.0,-3.0,-14.0,68.0,-11.0,0
-5.0,-253.0,-2.0,-14.0,71.0,-9.0,0
-2.0,-251.0,-4.0,-13.0,71.0,-12.0,0
-1.0,-252.0,-1.0,-11.0,74.0,-12.0,0
-4.0,-251.0,-3.0,-10.0,75.0,-13.0,0
-5.0,-252.0,-3.0,-7.0,74.0,-11.0,0
-6.0,-252.0,-1.0,-5.0,74.0,-14.0,0
-5.0,-247.0,-2.0,-5.0,73.0,-11.0,0
-5.0,-248.0,1.0,-5.0,70.0,-13.0,0
-6.0,-253.0,-2.0,-4.0,69.0,-11.0,0
0.0,-250.0,-3.0,-4.0,67.0,-12.0,0
-1.0,-242.0,-4.0,-4.0,66.0,-8.0,0
-5.0,-252.0,-7.0,-4.0,66.0,-9.0,0
-3.0,-252.0,-2.0,-5.0,66.0,-7.0,0
-5.0,-251.0,-2.0,-5.0,66.0,-9.0,0
-4.0,-254.0,0.0,-4.0,66.0,-6.0,0
-6.0,-252.0,0.0,-3.0,68.0,-8.0,0
-4.0,-253.0,-1.0,-3.0,69.0,-8.0,0
-4.0,-252.0,-5.0,-1.0,70.0,-8.0,0
-9.0,-251.0,0.0,1.0,69.0,-8.0,0
-5.0,-252.0,-3.0,4.0,68.0,-9.0,0
-6.0,-255.0,-3.0,5.0,65.0,-8.0,0
-8.0,-257.0,23.0,5.0,67.0,-10.0,0
-8.0,-252.0,-3.0,4.0,68.0,-10.0,0
-5.0,-254.0,-4.0,4.0,68.0,-10.0,0
-3.0,-251.0,-3.0,4.0,68.0,-9.0,0
-6.0,-251.0,0.0,3.0,69.0,-12.0,0
-10.0,-249.0,-4.0,1.0,69.0,-11.0,0
-7.0,-248.0,-3.0,-1.0,68.0,-11.0,0
-8.0,-247.0,-6.0,-5.0,68.0,-10.0,0
-4.0,-252.0,0.0,-10.0,66.0,-9.0,0
-5.0,-247.0,-4.0,-15.0,66.0,-10.0,0
-7.0,-248.0,3.0,-21.0,66.0,-8.0,0
-10.0,-244.0,-10.0,-25.0,64.0,-9.0,0
-4.0,-250.0,-2.0,-27.0,63.0,-9.0,0
-2.0,-251.0,-2.0,-26.0,64.0,-9.0,0
-1.0,-255.0,0.0,-24.0,64.0,-9.0,0
-4.0,-251.0,-3.0,-20.0,65.0,-9.0,0
-1.0,-254.0,0.0,-12.0,66.0,-7.0,0
-3.0,-253.0,-2.0,-5.0,67.0,-9.0,0
-4.0,-253.0,-4.0,1.0,66.0,-7.0,0
-2.0,-251.0,-4.0,4.0,68.0,-8.0,0
-6.0,-250.0,0.0,6.0,67.0,-6.0,0
-4.0,-254.0,-7.0,9.0,65.0,-5.0,0
-11.0,-254.0,4.0,8.0,64.0,-5.0,0
-8.0,-248.0,-2.0,5.0,63.0,-5.0,0
-6.0,-253.0,-3.0,2.0,63.0,-4.0,0
-5.0,-251.0,-1.0,-2.0,62.0,-5.0,0
-5.0,-254.0,-7.0,-10.0,61.0,-4.0,0
-5.0,-252.0,-6.0,-12.0,60.0,-8.0,0
-6.0,-254.0,-5.0,-15.0,62.0,-5.0,0
-6.0,-248.0,-7.0,-17.0,62.0,-7.0,0
-7.0,-251.0,-5.0,-18.0,62.0,-7.0,0
-4.0,-252.0,-4.0,-18.0,62.0,-9.0,0
-7.0,-251.0,-1.0,-16.0,62.0,-8.0,0
-10.0,-239.0,-12.0,-13.0,64.0,-9.0,0
-3.0,-252.0,1.0,-11.0,64.0,-9.0,0
-4.0,-251.0,-3.0,-8.0,65.0,-11.0,0
-8.0,-253.0,-4.0,-4.0,66.0,-8.0,0
-3.0,-254.0,-3.0,1.0,64.0,-11.0,0
-7.0,-251.0,-1.0,5.0,65.0,-10.0,0
-5.0,-253.0,0.0,9.0,64.0,-13.0,0
-4.0,-253.0,-5.0,11.0,62.0,-11.0,0
-4.0,-251.0,2.0,14.0,61.0,-13.0,0
-7.0,-248.0,-5.0,16.0,60.0,-10.0,0
-6.0,-252.0,-2.0,16.0,57.0,-11.0,0
-1.0,-244.0,-12.0,13.0,57.0,-9.0,0
-6.0,-249.0,-1.0,7.0,55.0,-10.0,0
-9.0,-249.0,0.0,0.0,55.0,-6.0,0
-5.0,-249.0,0.0,-6.0,53.0,-8.0,0
-5.0,-247.0,-3.0,-13.0,53.0,-5.0,0
-2.0,-250.0,-2.0,-18.0,53.0,-5.0,0
-4.0,-249.0,-3.0,-21.0,51.0,-2.0,0
-7.0,-247.0,0.0,-22.0,50.0,-5.0,0
-5.0,-251.0,-1.0,-22.0,51.0,-3.0,0
-6.0,-251.0,-1.0,-21.0,51.0,-6.0,0
5.0,-263.0,6.0,-18.0,52.0,-4.0,0
-7.0,-251.0,-1.0,-14.0,52.0,-7.0,0
-3.0,-250.0,-2.0,-11.0,54.0,-6.0,0
-4.0,-248.0,-3.0,-11.0,55.0,-8.0,0
-4.0,-252.0,-5.0,-9.0,53.0,-4.0,0
-5.0,-251.0,-3.0,-9.0,53.0,-7.0,0
-4.0,-248.0,0.0,-10.0,53.0,-6.0,0
-8.0,-247.0,-5.0,-14.0,54.0,-8.0,0
-7.0,-249.0,0.0,-19.0,53.0,-5.0,0
-5.0,-252.0,0.0,-23.0,54.0,-7.0,0
-9.0,-248.0,-1.0,-28.0,52.0,-3.0,0
-2.0,-258.0,6.0,-31.0,51.0,-7.0,0
-5.0,-252.0,-3.0,-34.0,52.0,-5.0,0
-3.0,-251.0,-2.0,-35.0,54.0,-6.0,0
-5.0,-252.0,0.0,-34.0,52.0,-5.0,0
-3.0,-252.0,-4.0,-32.0,53.0,-7.0,0
-2.0,-252.0,0.0,-29.0,51.0,-4.0,0
-3.0,-251.0,3.0,-28.0,49.0,-5.0,0
-6.0,-253.0,-4.0,-25.0,49.0,-3.0,0
-3.0,-253.0,0.0,-25.0,49.0,-5.0,0
-3.0,-252.0,-2.0,-23.0,46.0,-2.0,0
-4.0,-252.0,-1.0,-27.0,47.0,-4.0,0
-3.0,-266.0,5.0,-30.0,47.0,-3.0,0
-6.0,-251.0,0.0,-35.0,47.0,-3.0,0
-5.0,-251.0,-5.0,-39.0,46.0,-4.0,0
-3.0,-255.0,0.0,-43.0,47.0,-5.0,0
-7.0,-250.0,-2.0,-48.0,48.0,-4.0,0
-6.0,-251.0,-3.0,-51.0,50.0,-4.0,0
-6.0,-248.0,0.0,-52.0,51.0,-4.0,0
-3.0,-253.0,-1.0,-54.0,53.0,-5.0,0
-6.0,-250.0,-2.0,-51.0,55.0,-4.0,0
-2.0,-251.0,-1.0,-46.0,53.0,-5.0,0
-9.0,-246.0,-3.0,-43.0,53.0,-4.0,0
-3.0,-244.0,5.0,-39.0,55.0,-6.0,0
-4.0,-252.0,-1.0,-35.0,53.0,-6.0,0
-4.0,-249.0,-6.0,-32.0,50.0,-7.0,0
-5.0,-253.0,-3.0,-29.0,49.0,-6.0,0
-5.0,-250.0,-6.0,-27.0,46.0,-8.0,0
-7.0,-250.0,-1.0,-27.0,44.0,-7.0,0
-5.0,-251.0,-6.0,-26.0,42.0,-8.0,0
-4.0,-252.0,-8.0,-27.0,41.0,-7.0,0
-2.0,-255.0,-6.0,-30.0,40.0,-7.0,0
-4.0,-249.0,-6.0,-31.0,42.0,-7.0,0
-5.0,-251.0,0.0,-34.0,42.0,-5.0,0
-8.0,-258.0,16.0,-36.0,45.0,-5.0,0
-6.0,-249.0,-6.0,-33.0,45.0,-5.0,0
-6.0,-249.0,-4.0,-33.0,46.0,-5.0,0
-4.0,-251.0,-3.0,-33.0,47.0,-5.0,0
-7.0,-250.0,-3.0,-30.0,47.0,-5.0,0
-5.0,-250.0,-2.0,-31.0,48.0,-3.0,0
-2.0,-250.0,-2.0,-27.0,50.0,-5.0,0
-4.0,-249.0,-4.0,-27.0,51.0,-4.0,0
-1.0,-248.0,-8.0,-27.0,51.0,-6.0,0
-4.0,-252.0,-2.0,-28.0,52.0,-3.0,0
-5.0,-254.0,-8.0,-25.0,52.0,-5.0,0
-7.0,-247.0,-1.0,-24.0,52.0,-3.0,0
-3.0,-256.0,-4.0,-23.0,53.0,-4.0,0
-5.0,-254.0,-6.0,-20.0,53.0,-4.0,0
-4.0,-253.0,-1.0,-19.0,55.0,-5.0,0
-6.0,-251.0,-1.0,-14.0,56.0,-4.0,0
-6.0,-252.0,-5.0,-9.0,58.0,-5.0,0
-7.0,-253.0,-6.0,-4.0,56.0,-4.0,0
0.0,-252.0,-3.0,-1.0,56.0,-5.0,0
-5.0,-252.0,-4.0,2.0,55.0,-5.0,0
-7.0,-251.0,-5.0,3.0,56.0,-6.0,0
-6.0,-249.0,-6.0,2.0,54.0,-5.0,0
0.0,-250.0,-1.0,0.0,51.0,-8.0,0
-6.0,-251.0,-2.0,-2.0,51.0,-5.0,0
-5.0,-251.0,1.0,-6.0,51.0,-8.0,0
-7.0,-251.0,-1.0,-9.0,49.0,-6.0,0
-4.0,-250.0,-2.0,-12.0,49.0,-7.0,0
-4.0,-251.0,0.0,-14.0,49.0,-4.0,0
-7.0,-252.0,0.0,-14.0,48.0,-5.0,0
-9.0,-248.0,0.0,-14.0,49.0,-3.0,0
-5.0,-250.0,-4.0,-10.0,49.0,-5.0,0
-5.0,-252.0,-4.0,-6.0,49.0,-1.0,0
-6.0,-248.0,2.0,-3.0,47.0,-2.0,0
-11.0,-249.0,-3.0,-1.0,46.0,0.0,0
-4.0,-250.0,-2.0,-3.0,43.0,-3.0,0
-8.0,-246.0,-1.0,-3.0,42.0,0.0,0
-7.0,-253.0,-1.0,-5.0,41.0,-1.0,0
-3.0,-250.0,-1.0,-7.0,40.0,0.0,0
-5.0,-248.0,-3.0,-9.0,39.0,-3.0,0
-6.0,-249.0,0.0,-14.0,37.0,1.0,0
-3.0,-249.0,2.0,-20.0,38.0,-3.0,0
0.0,-248.0,-4.0,-23.0,38.0,0.0,0
-4.0,-253.0,-6.0,-28.0,37.0,-4.0,0
-6.0,-246.0,-5.0,-32.0,38.0,-2.0,0
-3.0,-253.0,4.0,-35.0,39.0,-5.0,0
-4.0,-250.0,-3.0,-37.0,42.0,-3.0,0
-6.0,-249.0,0.0,-38.0,44.0,-5.0,0
-6.0,-250.0,-3.0,-38.0,47.0,-5.0,0
-4.0,-250.0,0.0,-36.0,50.0,-8.0,0
-1.0,-253.0,-1.0,-35.0,56.0,-8.0,0
-2.0,-254.0,1.0,-31.0,59.0,-9.0,0
-3.0,-249.0,-1.0,-30.0,61.0,-7.0,0
-1.0,-254.0,1.0,-28.0,63.0,-10.0,0
-3.0,-251.0,-1.0,-25.0,65.0,-8.0,0
6.0,-237.0,-21.0,-21.0,65.0,-8.0,0
-3.0,-252.0,-2.0,-18.0,65.0,-6.0,0
-4.0,-248.0,-4.0,-15.0,64.0,-7.0,0
-5.0,-249.0,-1.0,-16.0,64.0,-4.0,0
-8.0,-251.0,0.0,-18.0,62.0,-6.0,0
-4.0,-250.0,-2.0,-20.0,60.0,-2.0,0
-5.0,-252.0,-5.0,-23.0,58.0,-3.0,0
-5.0,-250.0,-4.0,-26.0,57.0,-1.0,0
-6.0,-254.0,-4.0,-27.0,57.0,-3.0,0
0.0,-250.0,-1.0,-28.0,57.0,0.0,0
-7.0,-250.0,-13.0,-27.0,56.0,-3.0,0
4.0,-249.0,-28.0,-25.0,58.0,-1.0,0
-7.0,-249.0,0.0,-21.0,59.0,-1.0,0
-6.0,-253.0,-2.0,-16.0,61.0,-1.0,0
-5.0,-253.0,-5.0,-12.0,61.0,-2.0,0
-5.0,-254.0,0.0,-8.0,62.0,-2.0,0
-5.0,-252.0,-3.0,-5.0,62.0,-2.0,0
-4.0,-254.0,-4.0,-2.0,62.0,-2.0,0
-7.0,-253.0,-5.0,-1.0,62.0,-4.0,0
-9.0,-255.0,-5.0,1.0,61.0,-5.0,0
-7.0,-252.0,-9.0,0.0,59.0,-5.0,0
-5.0,-247.0,-4.0,-1.0,57.0,-5.0,0
-2.0,-241.0,-11.0,-4.0,55.0,-4.0,0
-9.0,-251.0,-1.0,-6.0,53.0,-4.0,0
-8.0,-251.0,-4.0,-7.0,54.0,-3.0,0
