ax,ay,az,gx,gy,gz,label
25.0,-252.0,-15.0,-25.0,15.0,-9.0,0
24.0,-255.0,-12.0,-37.0,17.0,-10.0,0
26.0,-254.0,-14.0,-44.0,19.0,-7.0,0
26.0,-251.0,-15.0,-45.0,23.0,-7.0,0
26.0,-254.0,-18.0,-37.0,24.0,-2.0,0
24.0,-257.0,-12.0,-29.0,28.0,0.0,0
28.0,-257.0,-15.0,-26.0,26.0,-7.0,0
23.0,-253.0,-17.0,-27.0,23.0,-15.0,0
23.0,-254.0,-17.0,-33.0,19.0,-18.0,0
27.0,-254.0,-16.0,-35.0,18.0,-18.0,0
26.0,-253.0,-19.0,-35.0,19.0,-21.0,0
23.0,-251.0,-19.0,-35.0,22.0,-21.0,0
23.0,-250.0,-15.0,-34.0,26.0,-24.0,0
25.0,-252.0,-16.0,-36.0,31.0,-25.0,0
24.0,-249.0,-17.0,-37.0,36.0,-24.0,0
24.0,-250.0,-16.0,-36.0,35.0,-25.0,0
27.0,-252.0,-16.0,-33.0,33.0,-24.0,0
21.0,-250.0,-18.0,-29.0,32.0,-21.0,0
24.0,-250.0,-16.0,-25.0,31.0,-18.0,0
23.0,-250.0,-13.0,-25.0,30.0,-16.0,0
24.0,-250.0,-15.0,-24.0,29.0,-13.0,0
24.0,-251.0,-14.0,-22.0,30.0,-12.0,0
24.0,-249.0,-10.0,-22.0,30.0,-12.0,0
26.0,-250.0,-17.0,-24.0,29.0,-13.0,0
25.0,-249.0,-17.0,-24.0,29.0,-12.0,0
24.0,-253.0,-13.0,-25.0,27.0,-12.0,0
24.0,-251.0,-12.0,-24.0,25.0,-13.0,0
23.0,-253.0,-12.0,-23.0,23.0,-15.0,0
21.0,-253.0,-12.0,-21.0,22.0,-17.0,0
23.0,-254.0,-15.0,-18.0,21.0,-17.0,0
25.0,-252.0,-16.0,-17.0,21.0,-20.0,0
25.0,-251.0,-15.0,-17.0,23.0,-21.0,0
27.0,-252.0,-15.0,-16.0,25.0,-21.0,0
26.0,-252.0,-18.0,-18.0,28.0,-22.0,0
25.0,-249.0,-13.0,-22.0,33.0,-22.0,0
28.0,-250.0,-18.0,-24.0,35.0,-25.0,0
25.0,-251.0,-13.0,-31.0,38.0,-23.0,0
23.0,-252.0,-12.0,-36.0,41.0,-24.0,0
24.0,-255.0,-12.0,-38.0,42.0,-24.0,0
24.0,-250.0,-15.0,-37.0,44.0,-22.0,0
25.0,-251.0,-10.0,-37.0,45.0,-22.0,0
21.0,-250.0,-14.0,-36.0,47.0,-21.0,0
25.0,-253.0,-16.0,-35.0,47.0,-22.0,0
22.0,-252.0,-12.0,-35.0,46.0,-21.0,0
25.0,-253.0,-13.0,-37.0,44.0,-20.0,0
23.0,-248.0,-13.0,-40.0,43.0,-20.0,0
26.0,-251.0,-14.0,-42.0,41.0,-20.0,0
33.0,-248.0,-21.0,-42.0,39.0,-21.0,0
20.0,-256.0,-15.0,-41.0,36.0,-20.0,0
22.0,-252.0,-15.0,-41.0,35.0,-20.0,0
24.0,-249.0,-14.0,-37.0,35.0,-21.0,0
24.0,-252.0,-12.0,-34.0,35.0,-21.0,0
24.0,-252.0,-16.0,-32.0,36.0,-21.0,0
20.0,-250.0,-12.0,-30.0,36.0,-21.0,0
27.0,-250.0,-12.0,-30.0,36.0,-20.0,0
23.0,-251.0,-15.0,-30.0,35.0,-20.0,0
21.0,-249.0,-17.0,-31.0,37.0,-20.0,0
21.0,-251.0,-14.0,-32.0,38.0,-20.0,0
23.0,-244.0,-36.0,-28.0,37.0,-21.0,0
24.0,-249.0,-8.0,-25.0,37.0,-20.0,0
25.0,-250.0,-20.0,-22.0,36.0,-18.0,0
25.0,-252.0,-18.0,-19.0,36.0,-19.0,0
24.0,-250.0,-15.0,-20.0,37.0,-17.0,0
25.0,-251.0,-19.0,-24.0,34.0,-18.0,0
21.0,-251.0,-15.0,-36.0,33.0,-18.0,0
28.0,-250.0,-13.0,-47.0,32.0,-17.0,0
23.0,-249.0,-13.0,-64.0,31.0,-16.0,0
24.0,-251.0,-18.0,-80.0,30.0,-14.0,0
23.0,-251.0,-12.0,-92.0,34.0,-14.0,0
14.0,-250.0,-6.0,-100.0,35.0,-12.0,0
24.0,-251.0,-17.0,-107.0,35.0,-12.0,0
24.0,-254.0,-17.0,-110.0,38.0,-11.0,0
23.0,-251.0,-12.0,-109.0,38.0,-10.0,0
23.0,-252.0,-15.0,-104.0,36.0,-8.0,0
21.0,-252.0,-14.0,-96.0,36.0,-7.0,0
23.0,-254.0,-18.0,-85.0,32.0,-8.0,0
25.0,-251.0,-17.0,-74.0,30.0,-7.0,0
22.0,-254.0,-20.0,-63.0,28.0,-6.0,0
22.0,-249.0,-20.0,-58.0,27.0,-7.0,0
23.0,-250.0,-21.0,-58.0,28.0,-6.0,0
29.0,-242.0,-21.0,-65.0,27.0,-8.0,0
24.0,-251.0,-14.0,-75.0,25.0,-9.0,0
22.0,-248.0,-21.0,-86.0,24.0,-12.0,0
24.0,-250.0,-15.0,-96.0,25.0,-14.0,0
27.0,-250.0,-18.0,-108.0,26.0,-13.0,0
27.0,-251.0,-14.0,-115.0,28.0,-14.0,0
23.0,-254.0,-12.0,-117.0,34.0,-14.0,0
25.0,-252.0,-13.0,-116.0,37.0,-15.0,0
27.0,-253.0,-14.0,-113.0,42.0,-15.0,0
23.0,-255.0,-14.0,-108.0,42.0,-15.0,0
25.0,-253.0,-14.0,-102.0,44.0,-13.0,0
15.0,-252.0,-19.0,-97.0,44.0,-13.0,0
27.0,-252.0,-18.0,-93.0,44.0,-12.0,0
27.0,-250.0,-10.0,-91.0,43.0,-11.0,0
23.0,-249.0,-17.0,-90.0,44.0,-11.0,0
25.0,-249.0,-13.0,-93.0,41.0,-11.0,0
23.0,-248.0,-15.0,-93.0,40.0,-9.0,0
24.0,-250.0,-13.0,-92.0,38.0,-8.0,0
23.0,-251.0,-13.0,-94.0,35.0,-8.0,0
23.0,-251.0,-14.0,-94.0,32.0,-7.0,0
25.0,-251.0,-13.0,-97.0,30.0,-6.0,0
21.0,-250.0,-17.0,-96.0,27.0,-5.0,0
29.0,-260.0,-29.0,-97.0,25.0,-4.0,0
22.0,-252.0,-17.0,-95.0,22.0,-5.0,0
20.0,-249.0,-18.0,-92.0,21.0,-5.0,0
27.0,-253.0,-18.0,-92.0,19.0,-6.0,0
25.0,-253.0,-18.0,-96.0,20.0,-8.0,0
25.0,-254.0,-18.0,-98.0,20.0,-9.0,0
25.0,-250.0,-18.0,-99.0,19.0,-6.0,0
25.0,-252.0,-20.0,-103.0,18.0,-4.0,0
26.0,-250.0,-17.0,-104.0,19.0,-4.0,0
27.0,-254.0,-18.0,-108.0,19.0,-5.0,0
23.0,-242.0,-17.0,-111.0,19.0,-6.0,0
23.0,-250.0,-15.0,-111.0,16.0,-7.0,0
24.0,-252.0,-19.0,-114.0,14.0,-6.0,0
23.0,-252.0,-18.0,-114.0,12.0,-6.0,0
25.0,-253.0,-18.0,-109.0,12.0,-6.0,0
24.0,-254.0,-19.0,-101.0,13.0,-4.0,0
23.0,-252.0,-15.0,-92.0,14.0,-3.0,0
24.0,-252.0,-21.0,-86.0,16.0,-2.0,0
26.0,-254.0,-17.0,-82.0,17.0,-2.0,0
23.0,-255.0,-15.0,-82.0,20.0,-3.0,0
23.0,-253.0,-22.0,-84.0,20.0,-1.0,0
23.0,-250.0,-28.0,-87.0,19.0,-2.0,0
24.0,-252.0,-22.0,-93.0,19.0,-1.0,0
24.0,-251.0,-19.0,-99.0,18.0,-3.0,0
25.0,-252.0,-21.0,-105.0,19.0,-2.0,0
22.0,-251.0,-17.0,-107.0,19.0,-1.0,0
24.0,-251.0,-20.0,-107.0,17.0,1.0,0
22.0,-253.0,-18.0,-108.0,17.0,2.0,0
23.0,-252.0,-16.0,-109.0,17.0,3.0,0
28.0,-255.0,-20.0,-111.0,16.0,2.0,0
23.0,-253.0,-19.0,-114.0,13.0,1.0,0
23.0,-252.0,-17.0,-118.0,10.0,1.0,0
24.0,-250.0,-20.0,-124.0,7.0,2.0,0
25.0,-255.0,-17.0,-131.0,4.0,4.0,0
22.0,-251.0,-20.0,-135.0,3.0,5.0,0
24.0,-250.0,-16.0,-138.0,2.0,4.0,0
25.0,-252.0,-19.0,-141.0,2.0,3.0,0
27.0,-252.0,-16.0,-140.0,2.0,3.0,0
24.0,-252.0,-18.0,-136.0,2.0,5.0,0
24.0,-251.0,-21.0,-131.0,3.0,5.0,0
26.0,-252.0,-25.0,-126.0,5.0,6.0,0
23.0,-251.0,-24.0,-121.0,4.0,7.0,0
25.0,-251.0,-19.0,-115.0,3.0,7.0,0
23.0,-252.0,-21.0,-111.0,0.0,7.0,0
27.0,-250.0,-21.0,-108.0,0.0,7.0,0
23.0,-249.0,-22.0,-109.0,-1.0,7.0,0
26.0,-251.0,-20.0,-111.0,1.0,7.0,0
26.0,-251.0,-21.0,-113.0,4.0,6.0,0
25.0,-253.0,-18.0,-120.0,6.0,6.0,0
25.0,-251.0,-19.0,-124.0,9.0,5.0,0
24.0,-251.0,-19.0,-130.0,10.0,5.0,0
23.0,-249.0,-20.0,-134.0,12.0,6.0,0
24.0,-252.0,-22.0,-141.0,11.0,3.0,0
23.0,-254.0,-25.0,-144.0,10.0,2.0,0
26.0,-254.0,-23.0,-147.0,8.0,0.0,0
26.0,-252.0,-24.0,-148.0,7.0,-1.0,0
25.0,-253.0,-24.0,-144.0,5.0,1.0,0
24.0,-256.0,-21.0,-140.0,7.0,1.0,0
27.0,-254.0,-21.0,-134.0,5.0,0.0,0
26.0,-256.0,-21.0,-128.0,4.0,0.0,0
29.0,-259.0,-22.0,-119.0,5.0,-3.0,0
27.0,-255.0,-22.0,-114.0,6.0,-5.0,0
26.0,-252.0,-24.0,-109.0,9.0,-6.0,0
22.0,-252.0,-22.0,-104.0,9.0,-4.0,0
24.0,-254.0,-20.0,-101.0,10.0,-3.0,0
25.0,-251.0,-23.0,-100.0,10.0,-2.0,0
24.0,-252.0,-25.0,-101.0,9.0,0.0,0
25.0,-253.0,-22.0,-104.0,8.0,0.0,0
25.0,-252.0,-23.0,-109.0,8.0,0.0,0
25.0,-248.0,-28.0,-114.0,7.0,-2.0,0
23.0,-249.0,-26.0,-118.0,8.0,-2.0,0
26.0,-249.0,-26.0,-123.0,7.0,-2.0,0
24.0,-253.0,-30.0,-125.0,4.0,-2.0,0
23.0,-249.0,-28.0,-125.0,2.0,-2.0,0
24.0,-250.0,-30.0,-124.0,0.0,-2.0,0
25.0,-251.0,-26.0,-120.0,-1.0,-5.0,0
27.0,-255.0,-24.0,-114.0,2.0,-6.0,0
24.0,-255.0,-25.0,-108.0,5.0,-7.0,0
25.0,-254.0,-24.0,-104.0,6.0,-8.0,0
26.0,-252.0,-26.0,-105.0,8.0,-8.0,0
25.0,-255.0,-29.0,-103.0,10.0,-10.0,0
24.0,-255.0,-32.0,-101.0,11.0,-12.0,0
30.0,-254.0,-28.0,-100.0,13.0,-13.0,0
22.0,-249.0,-28.0,-100.0,13.0,-13.0,0
24.0,-252.0,-29.0,-100.0,14.0,-13.0,0
25.0,-252.0,-28.0,-103.0,15.0,-15.0,0
30.0,-253.0,-31.0,-108.0,14.0,-13.0,0
26.0,-253.0,-31.0,-113.0,16.0,-12.0,0
25.0,-251.0,-35.0,-114.0,16.0,-12.0,0
23.0,-252.0,-30.0,-116.0,18.0,-10.0,0
25.0,-250.0,-28.0,-118.0,20.0,-10.0,0
26.0,-252.0,-26.0,-122.0,21.0,-10.0,0
25.0,-251.0,-29.0,-125.0,23.0,-8.0,0
24.0,-252.0,-32.0,-125.0,24.0,-9.0,0
23.0,-251.0,-26.0,-128.0,23.0,-8.0,0
23.0,-252.0,-31.0,-133.0,20.0,-7.0,0
24.0,-255.0,-30.0,-137.0,15.0,-4.0,0
23.0,-252.0,-31.0,-140.0,8.0,-4.0,0
21.0,-255.0,-32.0,-138.0,3.0,-2.0,0
24.0,-255.0,-34.0,-133.0,-1.0,0.0,0
23.0,-254.0,-33.0,-133.0,-4.0,-1.0,0
23.0,-254.0,-32.0,-134.0,-5.0,-2.0,0
25.0,-253.0,-36.0,-139.0,-4.0,-3.0,0
25.0,-256.0,-35.0,-142.0,-2.0,-5.0,0
20.0,-253.0,-33.0,-143.0,1.0,-5.0,0
25.0,-254.0,-31.0,-139.0,3.0,-5.0,0
24.0,-251.0,-30.0,-131.0,4.0,-3.0,0
23.0,-254.0,-28.0,-123.0,7.0,-6.0,0
22.0,-251.0,-28.0,-116.0,10.0,-5.0,0
24.0,-252.0,-31.0,-111.0,12.0,-5.0,0
25.0,-253.0,-28.0,-109.0,14.0,-7.0,0
24.0,-252.0,-31.0,-110.0,17.0,-6.0,0
22.0,-251.0,-29.0,-114.0,16.0,-6.0,0
22.0,-251.0,-33.0,-123.0,15.0,-7.0,0
25.0,-252.0,-32.0,-131.0,14.0,-5.0,0
23.0,-249.0,-30.0,-139.0,12.0,-4.0,0
23.0,-250.0,-35.0,-147.0,9.0,-2.0,0
25.0,-248.0,-33.0,-157.0,6.0,-1.0,0
25.0,-249.0,-35.0,-165.0,1.0,2.0,0
21.0,-248.0,-31.0,-172.0,-3.0,4.0,0
24.0,-249.0,-35.0,-183.0,-8.0,4.0,0
23.0,-248.0,-32.0,-193.0,-10.0,7.0,0
25.0,-251.0,-32.0,-202.0,-12.0,8.0,0
21.0,-249.0,-35.0,-210.0,-13.0,9.0,0
22.0,-249.0,-31.0,-215.0,-16.0,8.0,0
21.0,-255.0,-33.0,-219.0,-18.0,9.0,0
19.0,-251.0,-32.0,-220.0,-18.0,11.0,0
22.0,-253.0,-35.0,-221.0,-19.0,13.0,0
21.0,-251.0,-34.0,-230.0,-21.0,14.0,0
24.0,-253.0,-35.0,-244.0,-22.0,15.0,0
23.0,-249.0,-37.0,-265.0,-26.0,15.0,0
22.0,-249.0,-43.0,-287.0,-25.0,14.0,0
20.0,-249.0,-40.0,-310.0,-25.0,16.0,0
24.0,-251.0,-37.0,-327.0,-23.0,19.0,0
24.0,-251.0,-40.0,-335.0,-25.0,19.0,0
21.0,-251.0,-38.0,-330.0,-28.0,18.0,0
20.0,-256.0,-40.0,-309.0,-30.0,17.0,0
24.0,-258.0,-45.0,-274.0,-33.0,17.0,0
20.0,-259.0,-41.0,-232.0,-33.0,17.0,0
19.0,-257.0,-35.0,-186.0,-31.0,15.0,0
22.0,-258.0,-41.0,-148.0,-29.0,12.0,0
25.0,-257.0,-41.0,-116.0,-25.0,9.0,0
20.0,-254.0,-37.0,-97.0,-22.0,8.0,0
23.0,-252.0,-40.0,-92.0,-18.0,8.0,0
25.0,-251.0,-42.0,-96.0,-18.0,6.0,0
23.0,-252.0,-35.0,-109.0,-17.0,6.0,0
24.0,-250.0,-39.0,-127.0,-19.0,4.0,0
23.0,-251.0,-48.0,-146.0,-21.0,4.0,0
26.0,-250.0,-41.0,-161.0,-21.0,4.0,0
20.0,-251.0,-40.0,-170.0,-17.0,3.0,0
23.0,-253.0,-41.0,-177.0,-12.0,3.0,0
21.0,-250.0,-42.0,-182.0,-6.0,5.0,0
24.0,-254.0,-45.0,-184.0,0.0,7.0,0
20.0,-251.0,-40.0,-179.0,4.0,7.0,0
24.0,-252.0,-40.0,-173.0,5.0,8.0,0
25.0,-250.0,-45.0,-168.0,4.0,7.0,0
23.0,-247.0,-45.0,-162.0,3.0,7.0,0
27.0,-255.0,-39.0,-157.0,-1.0,8.0,0
25.0,-250.0,-42.0,-153.0,-7.0,9.0,0
24.0,-251.0,-42.0,-151.0,-13.0,9.0,0
22.0,-252.0,-42.0,-147.0,-18.0,9.0,0
22.0,-251.0,-40.0,-143.0,-24.0,9.0,0
24.0,-253.0,-42.0,-138.0,-26.0,7.0,0
28.0,-258.0,-44.0,-131.0,-29.0,7.0,0
23.0,-257.0,-47.0,-125.0,-31.0,6.0,0
26.0,-252.0,-45.0,-117.0,-28.0,4.0,0
23.0,-254.0,-44.0,-111.0,-23.0,2.0,0
25.0,-254.0,-47.0,-106.0,-13.0,3.0,0
21.0,-255.0,-45.0,-102.0,-4.0,4.0,0
21.0,-251.0,-48.0,-101.0,6.0,5.0,0
21.0,-250.0,-45.0,-107.0,12.0,6.0,0
22.0,-250.0,-45.0,-116.0,19.0,7.0,0
23.0,-249.0,-49.0,-128.0,21.0,8.0,0
24.0,-251.0,-46.0,-137.0,23.0,7.0,0
27.0,-253.0,-48.0,-147.0,25.0,6.0,0
23.0,-253.0,-48.0,-152.0,24.0,5.0,0
26.0,-254.0,-50.0,-153.0,24.0,4.0,0
23.0,-253.0,-47.0,-148.0,25.0,2.0,0
24.0,-256.0,-51.0,-139.0,25.0,2.0,0
21.0,-257.0,-46.0,-127.0,23.0,1.0,0
24.0,-257.0,-46.0,-118.0,22.0,3.0,0
22.0,-253.0,-45.0,-107.0,20.0,0.0,0
25.0,-256.0,-45.0,-100.0,16.0,0.0,0
23.0,-254.0,-45.0,-94.0,15.0,0.0,0
25.0,-255.0,-47.0,-92.0,12.0,2.0,0
21.0,-251.0,-46.0,-90.0,12.0,1.0,0
21.0,-251.0,-46.0,-87.0,9.0,0.0,0
21.0,-252.0,-44.0,-86.0,8.0,0.0,0
21.0,-253.0,-46.0,-85.0,7.0,1.0,0
22.0,-254.0,-45.0,-84.0,4.0,0.0,0
23.0,-256.0,-45.0,-85.0,1.0,0.0,0
22.0,-256.0,-48.0,-86.0,-2.0,1.0,0
23.0,-256.0,-43.0,-87.0,-5.0,0.0,0
22.0,-255.0,-42.0,-86.0,-8.0,1.0,0
22.0,-255.0,-47.0,-83.0,-11.0,0.0,0
23.0,-256.0,-46.0,-80.0,-11.0,0.0,0
23.0,-253.0,-46.0,-73.0,-12.0,-1.0,0
24.0,-252.0,-48.0,-69.0,-9.0,-1.0,0
25.0,-253.0,-51.0,-64.0,-8.0,-3.0,0
22.0,-253.0,-49.0,-60.0,-7.0,-4.0,0
21.0,-251.0,-47.0,-60.0,-7.0,-5.0,0
23.0,-249.0,-47.0,-61.0,-6.0,-7.0,0
19.0,-249.0,-48.0,-63.0,-7.0,-6.0,0
22.0,-254.0,-49.0,-66.0,-9.0,-7.0,0
22.0,-255.0,-44.0,-69.0,-9.0,-8.0,0
24.0,-254.0,-48.0,-70.0,-9.0,-9.0,0
23.0,-256.0,-50.0,-69.0,-8.0,-8.0,0
24.0,-254.0,-51.0,-67.0,-7.0,-8.0,0
24.0,-255.0,-45.0,-61.0,-6.0,-9.0,0
22.0,-254.0,-46.0,-56.0,-5.0,-8.0,0
23.0,-252.0,-47.0,-55.0,-2.0,-11.0,0
25.0,-253.0,-50.0,-57.0,0.0,-12.0,0
21.0,-251.0,-45.0,-63.0,1.0,-11.0,0
21.0,-249.0,-45.0,-69.0,2.0,-13.0,0
23.0,-251.0,-46.0,-74.0,2.0,-14.0,0
19.0,-249.0,-45.0,-77.0,2.0,-15.0,0
21.0,-251.0,-46.0,-76.0,1.0,-16.0,0
22.0,-252.0,-45.0,-68.0,-2.0,-13.0,0
24.0,-253.0,-54.0,-59.0,-6.0,-12.0,0
23.0,-255.0,-50.0,-42.0,-10.0,-12.0,0
21.0,-253.0,-50.0,-26.0,-16.0,-11.0,0
24.0,-256.0,-48.0,-13.0,-20.0,-11.0,0
25.0,-254.0,-48.0,-6.0,-21.0,-12.0,0
24.0,-251.0,-46.0,-7.0,-22.0,-12.0,0
25.0,-249.0,-49.0,-15.0,-18.0,-13.0,0
25.0,-248.0,-49.0,-29.0,-14.0,-15.0,0
23.0,-251.0,-48.0,-42.0,-11.0,-16.0,0
27.0,-252.0,-44.0,-54.0,-9.0,-15.0,0
24.0,-250.0,-49.0,-63.0,-7.0,-16.0,0
26.0,-253.0,-46.0,-68.0,-4.0,-16.0,0
26.0,-253.0,-46.0,-69.0,0.0,-17.0,0
25.0,-254.0,-50.0,-65.0,7.0,-16.0,0
25.0,-252.0,-47.0,-57.0,12.0,-17.0,0
25.0,-256.0,-49.0,-51.0,17.0,-15.0,0
23.0,-253.0,-49.0,-42.0,20.0,-17.0,0
24.0,-254.0,-51.0,-37.0,21.0,-17.0,0
25.0,-254.0,-43.0,-33.0,22.0,-16.0,0
24.0,-252.0,-43.0,-29.0,21.0,-15.0,0
26.0,-253.0,-47.0,-27.0,19.0,-15.0,0
23.0,-250.0,-47.0,-29.0,17.0,-13.0,0
23.0,-251.0,-49.0,-31.0,15.0,-13.0,0
20.0,-251.0,-49.0,-36.0,14.0,-11.0,0
27.0,-252.0,-45.0,-40.0,14.0,-11.0,0
24.0,-251.0,-47.0,-43.0,14.0,-13.0,0
23.0,-251.0,-47.0,-44.0,14.0,-12.0,0
22.0,-252.0,-45.0,-45.0,13.0,-13.0,0
23.0,-253.0,-44.0,-42.0,13.0,-13.0,0
21.0,-252.0,-46.0,-41.0,13.0,-11.0,0
22.0,-251.0,-49.0,-40.0,16.0,-10.0,0
27.0,-251.0,-46.0,-40.0,18.0,-11.0,0
25.0,-255.0,-50.0,-39.0,19.0,-11.0,0
25.0,-252.0,-44.0,-38.0,20.0,-11.0,0
22.0,-250.0,-47.0,-40.0,21.0,-11.0,0
25.0,-253.0,-45.0,-42.0,21.0,-11.0,0
27.0,-253.0,-49.0,-46.0,23.0,-10.0,0
24.0,-253.0,-43.0,-50.0,25.0,-9.0,0
23.0,-254.0,-45.0,-54.0,28.0,-10.0,0
22.0,-252.0,-42.0,-58.0,30.0,-11.0,0
22.0,-251.0,-42.0,-58.0,31.0,-11.0,0
22.0,-250.0,-44.0,-60.0,30.0,-12.0,0
24.0,-256.0,-46.0,-61.0,30.0,-11.0,0
21.0,-252.0,-44.0,-62.0,29.0,-12.0,0
22.0,-251.0,-44.0,-60.0,26.0,-13.0,0
22.0,-253.0,-43.0,-61.0,27.0,-12.0,0
22.0,-253.0,-43.0,-64.0,26.0,-10.0,0
19.0,-252.0,-40.0,-67.0,25.0,-10.0,0
25.0,-250.0,-45.0,-69.0,24.0,-10.0,0
24.0,-250.0,-46.0,-75.0,24.0,-8.0,0
24.0,-254.0,-43.0,-81.0,26.0,-9.0,0
25.0,-251.0,-48.0,-85.0,25.0,-7.0,0
21.0,-252.0,-48.0,-91.0,26.0,-8.0,0
23.0,-251.0,-46.0,-95.0,28.0,-8.0,0
24.0,-252.0,-49.0,-94.0,28.0,-7.0,0
22.0,-253.0,-47.0,-95.0,27.0,-7.0,0
24.0,-251.0,-45.0,-90.0,27.0,-7.0,0
23.0,-253.0,-42.0,-87.0,27.0,-6.0,0
20.0,-249.0,-50.0,-82.0,28.0,-7.0,0
21.0,-251.0,-48.0,-79.0,29.0,-7.0,0
25.0,-256.0,-49.0,-75.0,32.0,-7.0,0
26.0,-252.0,-50.0,-76.0,37.0,-4.0,0
23.0,-254.0,-48.0,-77.0,39.0,-5.0,0
22.0,-251.0,-48.0,-76.0,41.0,-5.0,0
23.0,-252.0,-44.0,-73.0,40.0,-6.0,0
22.0,-251.0,-43.0,-71.0,40.0,-6.0,0
22.0,-251.0,-44.0,-65.0,38.0,-5.0,0
22.0,-250.0,-44.0,-61.0,35.0,-5.0,0
24.0,-252.0,-45.0,-55.0,32.0,-3.0,0
21.0,-251.0,-46.0,-51.0,29.0,-3.0,0
23.0,-255.0,-46.0,-47.0,28.0,-3.0,0
25.0,-255.0,-48.0,-44.0,28.0,-4.0,0
23.0,-254.0,-45.0,-44.0,30.0,-3.0,0
24.0,-252.0,-47.0,-44.0,32.0,-2.0,0
24.0,-254.0,-44.0,-45.0,34.0,-3.0,0
20.0,-253.0,-46.0,-46.0,34.0,-2.0,0
23.0,-252.0,-47.0,-52.0,32.0,-3.0,0
25.0,-253.0,-45.0,-57.0,31.0,-3.0,0
21.0,-255.0,-48.0,-65.0,29.0,-2.0,0
26.0,-255.0,-45.0,-71.0,27.0,-2.0,0
25.0,-251.0,-44.0,-76.0,29.0,-4.0,0
22.0,-252.0,-42.0,-80.0,31.0,-4.0,0
22.0,-251.0,-49.0,-84.0,34.0,-4.0,0
22.0,-254.0,-42.0,-87.0,38.0,-4.0,0
25.0,-254.0,-47.0,-89.0,41.0,-5.0,0
22.0,-252.0,-47.0,-91.0,44.0,-6.0,0
26.0,-254.0,-46.0,-90.0,45.0,-6.0,0
24.0,-253.0,-45.0,-90.0,49.0,-5.0,0
26.0,-254.0,-48.0,-88.0,49.0,-6.0,0
22.0,-253.0,-49.0,-85.0,49.0,-6.0,0
23.0,-253.0,-48.0,-82.0,49.0,-6.0,0
24.0,-254.0,-51.0,-78.0,48.0,-5.0,0
22.0,-252.0,-47.0,-75.0,48.0,-4.0,0
26.0,-253.0,-48.0,-73.0,46.0,-4.0,0
23.0,-251.0,-50.0,-69.0,43.0,-4.0,0
23.0,-252.0,-49.0,-67.0,41.0,-3.0,0
24.0,-253.0,-49.0,-66.0,39.0,-3.0,0
26.0,-254.0,-46.0,-66.0,39.0,-2.0,0
23.0,-253.0,-48.0,-65.0,36.0,-1.0,0
24.0,-253.0,-45.0,-64.0,38.0,0.0,0
22.0,-252.0,-46.0,-63.0,39.0,0.0,0
23.0,-254.0,-49.0,-64.0,41.0,0.0,0
21.0,-251.0,-50.0,-62.0,42.0,1.0,0
22.0,-251.0,-46.0,-61.0,41.0,0.0,0
26.0,-251.0,-48.0,-60.0,41.0,-2.0,0
23.0,-253.0,-49.0,-60.0,40.0,-3.0,0
23.0,-252.0,-48.0,-60.0,39.0,-3.0,0
21.0,-253.0,-51.0,-58.0,39.0,-3.0,0
24.0,-253.0,-50.0,-58.0,38.0,-1.0,0
24.0,-261.0,-51.0,-58.0,38.0,1.0,0
27.0,-252.0,-47.0,-60.0,39.0,2.0,0
25.0,-251.0,-45.0,-60.0,39.0,2.0,0
25.0,-254.0,-50.0,-66.0,40.0,1.0,0
25.0,-251.0,-47.0,-71.0,43.0,3.0,0
23.0,-254.0,-50.0,-78.0,47.0,3.0,0
21.0,-252.0,-47.0,-83.0,50.0,2.0,0
23.0,-251.0,-49.0,-88.0,51.0,2.0,0
21.0,-251.0,-48.0,-93.0,52.0,2.0,0
21.0,-251.0,-48.0,-92.0,52.0,2.0,0
20.0,-252.0,-50.0,-88.0,52.0,4.0,0
17.0,-255.0,-54.0,-80.0,48.0,5.0,0
21.0,-252.0,-50.0,-72.0,43.0,5.0,0
25.0,-253.0,-50.0,-64.0,38.0,4.0,0
25.0,-256.0,-48.0,-57.0,31.0,4.0,0
21.0,-253.0,-52.0,-57.0,28.0,2.0,0
23.0,-256.0,-48.0,-58.0,24.0,2.0,0
21.0,-252.0,-54.0,-68.0,25.0,-1.0,0
25.0,-254.0,-52.0,-74.0,26.0,-1.0,0
22.0,-252.0,-50.0,-83.0,26.0,-3.0,0
21.0,-252.0,-50.0,-90.0,28.0,-4.0,0
24.0,-252.0,-50.0,-95.0,33.0,-4.0,0
23.0,-251.0,-54.0,-98.0,38.0,-7.0,0
23.0,-250.0,-50.0,-97.0,47.0,-6.0,0
25.0,-254.0,-51.0,-96.0,54.0,-8.0,0
27.0,-254.0,-49.0,-92.0,59.0,-8.0,0
22.0,-257.0,-54.0,-85.0,62.0,-8.0,0
23.0,-252.0,-53.0,-80.0,65.0,-6.0,0
27.0,-254.0,-50.0,-77.0,64.0,-4.0,0
25.0,-253.0,-52.0,-75.0,62.0,-3.0,0
25.0,-252.0,-54.0,-77.0,60.0,-2.0,0
24.0,-252.0,-50.0,-77.0,56.0,-3.0,0
24.0,-251.0,-49.0,-78.0,50.0,-1.0,0
24.0,-251.0,-54.0,-82.0,46.0,0.0,0
22.0,-250.0,-54.0,-82.0,42.0,0.0,0
26.0,-252.0,-51.0,-81.0,40.0,-1.0,0
25.0,-253.0,-54.0,-82.0,39.0,-1.0,0
23.0,-250.0,-54.0,-83.0,39.0,0.0,0
23.0,-254.0,-54.0,-84.0,38.0,0.0,0
21.0,-252.0,-50.0,-84.0,40.0,-1.0,0
24.0,-253.0,-54.0,-79.0,42.0,-1.0,0
25.0,-255.0,-50.0,-78.0,43.0,-2.0,0
22.0,-254.0,-50.0,-74.0,43.0,-2.0,0
23.0,-255.0,-50.0,-67.0,42.0,-2.0,0
21.0,-250.0,-54.0,-59.0,41.0,-2.0,0
23.0,-252.0,-53.0,-54.0,43.0,-1.0,0
28.0,-254.0,-50.0,-56.0,44.0,-5.0,0
24.0,-251.0,-54.0,-60.0,45.0,-8.0,0
22.0,-251.0,-54.0,-69.0,46.0,-10.0,0
21.0,-254.0,-55.0,-78.0,49.0,-8.0,0
25.0,-254.0,-56.0,-85.0,51.0,-8.0,0
25.0,-254.0,-57.0,-93.0,54.0,-11.0,0
27.0,-253.0,-58.0,-95.0,57.0,-9.0,0
24.0,-254.0,-55.0,-96.0,56.0,-12.0,0
26.0,-255.0,-55.0,-95.0,55.0,-9.0,0
23.0,-255.0,-56.0,-92.0,56.0,-9.0,0
23.0,-254.0,-55.0,-89.0,59.0,-10.0,0
27.0,-254.0,-57.0,-87.0,61.0,-9.0,0
23.0,-254.0,-54.0,-89.0,63.0,-8.0,0
26.0,-254.0,-54.0,-92.0,62.0,-7.0,0
22.0,-252.0,-56.0,-99.0,59.0,-7.0,0
22.0,-253.0,-54.0,-105.0,57.0,-6.0,0
26.0,-251.0,-53.0,-110.0,58.0,-3.0,0
25.0,-250.0,-57.0,-114.0,58.0,-2.0,0
20.0,-250.0,-56.0,-117.0,57.0,-2.0,0
24.0,-251.0,-56.0,-122.0,53.0,-1.0,0
31.0,-254.0,-61.0,-131.0,55.0,4.0,0
23.0,-251.0,-58.0,-138.0,57.0,6.0,0
24.0,-252.0,-57.0,-142.0,57.0,7.0,0
25.0,-252.0,-58.0,-145.0,58.0,10.0,0
26.0,-252.0,-58.0,-145.0,57.0,16.0,0
25.0,-252.0,-56.0,-147.0,57.0,18.0,0
24.0,-251.0,-60.0,-150.0,56.0,19.0,0
22.0,-252.0,-61.0,-152.0,56.0,22.0,0
23.0,-250.0,-60.0,-158.0,56.0,23.0,0
23.0,-251.0,-65.0,-166.0,55.0,26.0,0
21.0,-252.0,-68.0,-172.0,54.0,26.0,0
21.0,-252.0,-64.0,-182.0,51.0,26.0,0
20.0,-253.0,-69.0,-191.0,53.0,30.0,0
21.0,-253.0,-70.0,-198.0,57.0,30.0,0
26.0,-255.0,-70.0,-202.0,63.0,29.0,0
24.0,-252.0,-62.0,-200.0,74.0,28.0,0
27.0,-254.0,-68.0,-194.0,87.0,26.0,0
24.0,-253.0,-66.0,-181.0,101.0,28.0,0
24.0,-254.0,-66.0,-168.0,113.0,32.0,0
27.0,-255.0,-68.0,-158.0,125.0,31.0,0
25.0,-255.0,-70.0,-154.0,134.0,30.0,0
28.0,-251.0,-73.0,-155.0,141.0,32.0,0
27.0,-253.0,-69.0,-156.0,146.0,33.0,0
26.0,-251.0,-71.0,-160.0,149.0,33.0,0
24.0,-247.0,-69.0,-163.0,151.0,33.0,0
27.0,-250.0,-75.0,-165.0,151.0,34.0,0
14.0,-252.0,-75.0,-168.0,141.0,32.0,0
2.0,-254.0,-72.0,-180.0,115.0,37.0,0
8.0,-256.0,-74.0,-196.0,77.0,55.0,0
12.0,-260.0,-71.0,-211.0,45.0,71.0,0
15.0,-266.0,-74.0,-217.0,18.0,69.0,0
20.0,-264.0,-79.0,-224.0,-7.0,48.0,0
29.0,-263.0,-80.0,-219.0,-19.0,29.0,0
36.0,-272.0,-88.0,-212.0,-13.0,6.0,0
35.0,-273.0,-84.0,-213.0,7.0,-31.0,0
36.0,-271.0,-88.0,-216.0,35.0,-76.0,0
37.0,-267.0,-87.0,-206.0,63.0,-99.0,0
37.0,-259.0,-93.0,-185.0,94.0,-103.0,0
28.0,-250.0,-94.0,-152.0,125.0,-97.0,0
17.0,-242.0,-89.0,-116.0,148.0,-82.0,0
10.0,-236.0,-88.0,-84.0,149.0,-51.0,0
6.0,-227.0,-87.0,-54.0,126.0,-18.0,0
6.0,-228.0,-87.0,-35.0,84.0,14.0,0
7.0,-222.0,-84.0,-33.0,33.0,39.0,0
12.0,-221.0,-83.0,-46.0,-15.0,57.0,0
23.0,-220.0,-80.0,-68.0,-50.0,67.0,0
37.0,-216.0,-86.0,-99.0,-59.0,54.0,0
39.0,-218.0,-80.0,-137.0,-43.0,31.0,0
46.0,-220.0,-82.0,-181.0,-13.0,10.0,0
50.0,-224.0,-79.0,-236.0,24.0,-16.0,0
44.0,-225.0,-81.0,-285.0,63.0,-40.0,0
31.0,-233.0,-88.0,-328.0,102.0,-32.0,0
23.0,-236.0,-87.0,-368.0,138.0,4.0,0
23.0,-242.0,-88.0,-398.0,165.0,46.0,0
20.0,-249.0,-90.0,-421.0,178.0,76.0,0
20.0,-252.0,-84.0,-435.0,182.0,98.0,0
21.0,-259.0,-85.0,-441.0,179.0,107.0,0
24.0,-254.0,-81.0,-431.0,175.0,99.0,0
24.0,-252.0,-82.0,-404.0,167.0,80.0,0
30.0,-251.0,-81.0,-368.0,162.0,59.0,0
41.0,-247.0,-87.0,-342.0,165.0,40.0,0
38.0,-239.0,-88.0,-322.0,178.0,23.0,0
34.0,-237.0,-91.0,-313.0,192.0,17.0,0
22.0,-234.0,-92.0,-320.0,197.0,26.0,0
17.0,-232.0,-100.0,-346.0,194.0,42.0,0
5.0,-231.0,-95.0,-386.0,185.0,62.0,0
0.0,-225.0,-102.0,-426.0,176.0,84.0,0
2.0,-225.0,-99.0,-469.0,165.0,110.0,0
6.0,-225.0,-104.0,-515.0,145.0,127.0,0
3.0,-224.0,-103.0,-555.0,124.0,130.0,0
6.0,-222.0,-105.0,-583.0,101.0,133.0,0
14.0,-219.0,-107.0,-601.0,85.0,142.0,0
18.0,-220.0,-107.0,-615.0,76.0,147.0,0
21.0,-221.0,-115.0,-622.0,73.0,144.0,0
21.0,-216.0,-112.0,-631.0,76.0,140.0,0
22.0,-216.0,-117.0,-648.0,81.0,136.0,0
21.0,-215.0,-119.0,-670.0,87.0,134.0,0
18.0,-212.0,-120.0,-702.0,99.0,127.0,0
14.0,-209.0,-121.0,-732.0,114.0,122.0,0
13.0,-208.0,-121.0,-760.0,133.0,119.0,0
11.0,-207.0,-116.0,-784.0,149.0,119.0,0
8.0,-211.0,-118.0,-800.0,163.0,118.0,0
7.0,-207.0,-113.0,-808.0,170.0,116.0,0
4.0,-204.0,-110.0,-811.0,176.0,113.0,0
6.0,-207.0,-108.0,-805.0,179.0,112.0,0
2.0,-204.0,-106.0,-800.0,188.0,108.0,0
6.0,-204.0,-100.0,-797.0,198.0,104.0,0
5.0,-205.0,-98.0,-791.0,214.0,103.0,0
2.0,-200.0,-96.0,-788.0,225.0,103.0,0
2.0,-201.0,-99.0,-789.0,224.0,102.0,0
4.0,-205.0,-108.0,-799.0,215.0,100.0,0
0.0,-194.0,-108.0,-816.0,197.0,100.0,0
-4.0,-197.0,-116.0,-834.0,172.0,101.0,0
-3.0,-193.0,-114.0,-856.0,145.0,101.0,0
-1.0,-192.0,-125.0,-882.0,121.0,100.0,0
-3.0,-188.0,-124.0,-911.0,103.0,97.0,0
-5.0,-184.0,-128.0,-944.0,94.0,94.0,0
-4.0,-184.0,-127.0,-982.0,89.0,90.0,0
-4.0,-183.0,-127.0,-1021.0,82.0,88.0,0
-2.0,-182.0,-127.0,-1058.0,77.0,84.0,0
-2.0,-177.0,-128.0,-1092.0,73.0,81.0,0
2.0,-175.0,-123.0,-1117.0,74.0,82.0,0
5.0,-171.0,-122.0,-1134.0,81.0,86.0,0
5.0,-167.0,-120.0,-1145.0,92.0,88.0,0
9.0,-165.0,-115.0,-1150.0,103.0,93.0,0
12.0,-160.0,-111.0,-1147.0,110.0,98.0,0
18.0,-157.0,-109.0,-1138.0,115.0,102.0,0
16.0,-154.0,-108.0,-1132.0,122.0,104.0,0
21.0,-148.0,-110.0,-1133.0,132.0,105.0,0
27.0,-146.0,-110.0,-1150.0,149.0,106.0,0
29.0,-147.0,-115.0,-1181.0,168.0,105.0,0
29.0,-152.0,-115.0,-1227.0,187.0,106.0,0
32.0,-156.0,-114.0,-1285.0,202.0,105.0,0
31.0,-156.0,-117.0,-1345.0,218.0,107.0,0
35.0,-162.0,-118.0,-1395.0,233.0,106.0,0
32.0,-167.0,-120.0,-1434.0,253.0,100.0,0
30.0,-169.0,-121.0,-1459.0,272.0,94.0,0
30.0,-170.0,-129.0,-1472.0,296.0,87.0,0
18.0,-164.0,-115.0,-1483.0,319.0,79.0,0
22.0,-164.0,-128.0,-1497.0,336.0,70.0,0
17.0,-168.0,-126.0,-1509.0,343.0,63.0,0
14.0,-167.0,-135.0,-1515.0,343.0,59.0,0
11.0,-169.0,-134.0,-1514.0,336.0,62.0,0
8.0,-168.0,-132.0,-1507.0,331.0,71.0,0
3.0,-176.0,-124.0,-1495.0,326.0,85.0,0
2.0,-182.0,-119.0,-1470.0,328.0,105.0,0
5.0,-181.0,-123.0,-1436.0,330.0,127.0,0
-6.0,-186.0,-112.0,-1413.0,329.0,129.0,0
-4.0,-185.0,-110.0,-1383.0,326.0,142.0,0
-8.0,-180.0,-104.0,-1341.0,319.0,156.0,0
-5.0,-181.0,-107.0,-1308.0,309.0,156.0,0
-4.0,-176.0,-110.0,-1282.0,300.0,145.0,0
-4.0,-176.0,-109.0,-1266.0,293.0,136.0,0
-1.0,-173.0,-111.0,-1268.0,288.0,123.0,0
-2.0,-170.0,-112.0,-1286.0,284.0,101.0,0
0.0,-162.0,-111.0,-1307.0,281.0,70.0,0
-6.0,-155.0,-107.0,-1328.0,282.0,49.0,0
-3.0,-158.0,-106.0,-1334.0,284.0,48.0,0
1.0,-157.0,-103.0,-1325.0,281.0,44.0,0
4.0,-172.0,-83.0,-1304.0,270.0,36.0,0
1.0,-167.0,-100.0,-1272.0,260.0,25.0,0
7.0,-174.0,-101.0,-1244.0,258.0,16.0,0
7.0,-177.0,-103.0,-1223.0,270.0,8.0,0
16.0,-187.0,-111.0,-1211.0,296.0,-3.0,0
19.0,-191.0,-114.0,-1209.0,331.0,-17.0,0
26.0,-190.0,-122.0,-1210.0,356.0,-41.0,0
21.0,-197.0,-127.0,-1218.0,365.0,-74.0,0
22.0,-204.0,-132.0,-1224.0,360.0,-91.0,0
30.0,-210.0,-134.0,-1233.0,343.0,-111.0,0
27.0,-211.0,-132.0,-1231.0,325.0,-138.0,0
35.0,-217.0,-109.0,-1206.0,315.0,-162.0,0
29.0,-213.0,-122.0,-1148.0,309.0,-160.0,0
30.0,-212.0,-122.0,-1065.0,307.0,-149.0,0
31.0,-211.0,-127.0,-985.0,312.0,-129.0,0
30.0,-210.0,-130.0,-921.0,317.0,-116.0,0
14.0,-202.0,-127.0,-890.0,308.0,-109.0,0
6.0,-203.0,-132.0,-885.0,276.0,-100.0,0
-9.0,-202.0,-137.0,-898.0,222.0,-94.0,0
-16.0,-199.0,-134.0,-911.0,139.0,-92.0,0
-35.0,-201.0,-141.0,-912.0,73.0,-90.0,0
-46.0,-204.0,-147.0,-903.0,20.0,-80.0,0
-55.0,-196.0,-159.0,-883.0,-18.0,-65.0,0
-61.0,-205.0,-155.0,-859.0,-45.0,-52.0,0
-56.0,-213.0,-159.0,-831.0,-69.0,-40.0,0
-57.0,-213.0,-157.0,-801.0,-98.0,-33.0,0
-50.0,-211.0,-162.0,-763.0,-137.0,-21.0,0
-34.0,-213.0,-165.0,-711.0,-182.0,-2.0,0
-15.0,-219.0,-155.0,-641.0,-237.0,7.0,0
-1.0,-219.0,-155.0,-547.0,-297.0,-2.0,0
20.0,-218.0,-151.0,-428.0,-356.0,-5.0,0
46.0,-218.0,-154.0,-291.0,-409.0,-13.0,0
65.0,-217.0,-159.0,-147.0,-446.0,-29.0,0
90.0,-212.0,-170.0,-28.0,-461.0,-52.0,0
96.0,-218.0,-171.0,49.0,-456.0,-79.0,0
93.0,-218.0,-191.0,84.0,-426.0,-106.0,0
92.0,-219.0,-200.0,35.0,-369.0,-143.0,0
78.0,-212.0,-199.0,-37.0,-306.0,-178.0,0
61.0,-211.0,-210.0,-90.0,-248.0,-196.0,0
41.0,-213.0,-210.0,-121.0,-188.0,-198.0,0
29.0,-219.0,-213.0,-132.0,-133.0,-189.0,0
7.0,-220.0,-217.0,-131.0,-84.0,-169.0,0
-11.0,-220.0,-221.0,-116.0,-35.0,-135.0,0
-18.0,-231.0,-227.0,-94.0,-5.0,-82.0,0
-16.0,-238.0,-231.0,-92.0,14.0,-28.0,0
-19.0,-236.0,-232.0,-90.0,16.0,13.0,0
-16.0,-242.0,-242.0,-86.0,11.0,31.0,0
-22.0,-243.0,-240.0,-72.0,-2.0,36.0,0
-20.0,-237.0,-232.0,-3.0,-42.0,34.0,0
-13.0,-235.0,-232.0,99.0,-102.0,27.0,0
0.0,-229.0,-229.0,209.0,-163.0,9.0,0
14.0,-230.0,-230.0,309.0,-214.0,-15.0,0
22.0,-226.0,-218.0,385.0,-261.0,-45.0,0
32.0,-226.0,-210.0,441.0,-303.0,-74.0,0
44.0,-223.0,-209.0,484.0,-347.0,-97.0,0
52.0,-227.0,-212.0,504.0,-380.0,-118.0,0
49.0,-222.0,-216.0,483.0,-393.0,-147.0,0
51.0,-220.0,-220.0,414.0,-383.0,-170.0,0
59.0,-216.0,-217.0,314.0,-352.0,-189.0,0
56.0,-217.0,-220.0,255.0,-299.0,-169.0,0
62.0,-219.0,-232.0,240.0,-239.0,-143.0,0
51.0,-215.0,-249.0,206.0,-154.0,-134.0,0
42.0,-220.0,-247.0,111.0,-87.0,-113.0,0
36.0,-229.0,-243.0,6.0,-51.0,-90.0,0
31.0,-231.0,-238.0,-49.0,-25.0,-69.0,0
14.0,-227.0,-237.0,-53.0,-11.0,-69.0,0
5.0,-224.0,-242.0,-30.0,1.0,-74.0,0
3.0,-220.0,-244.0,1.0,-10.0,-78.0,0
11.0,-218.0,-247.0,28.0,-27.0,-91.0,0
4.0,-214.0,-247.0,39.0,-38.0,-114.0,0
-4.0,-215.0,-248.0,27.0,-65.0,-123.0,0
13.0,-217.0,-248.0,11.0,-95.0,-111.0,0
45.0,-246.0,-262.0,6.0,-119.0,-114.0,0
15.0,-204.0,-255.0,-41.0,-133.0,-158.0,0
20.0,-213.0,-250.0,-81.0,-150.0,-140.0,0
30.0,-224.0,-248.0,-102.0,-175.0,-123.0,0
33.0,-228.0,-251.0,-84.0,-214.0,-132.0,0
43.0,-232.0,-255.0,-52.0,-228.0,-160.0,0
46.0,-237.0,-245.0,-24.0,-206.0,-189.0,0
46.0,-237.0,-239.0,38.0,-179.0,-214.0,0
52.0,-237.0,-235.0,131.0,-155.0,-220.0,0
49.0,-239.0,-232.0,225.0,-138.0,-228.0,0
35.0,-226.0,-230.0,320.0,-125.0,-262.0,0
39.0,-216.0,-228.0,385.0,-112.0,-256.0,0
34.0,-217.0,-223.0,443.0,-108.0,-194.0,0
26.0,-211.0,-218.0,492.0,-109.0,-157.0,0
22.0,-216.0,-217.0,536.0,-101.0,-143.0,0
15.0,-214.0,-212.0,566.0,-84.0,-132.0,0
10.0,-217.0,-208.0,574.0,-74.0,-131.0,0
6.0,-211.0,-206.0,564.0,-68.0,-132.0,0
2.0,-204.0,-210.0,529.0,-70.0,-129.0,0
5.0,-210.0,-211.0,485.0,-73.0,-144.0,0
1.0,-206.0,-216.0,423.0,-79.0,-167.0,0
11.0,-205.0,-223.0,352.0,-84.0,-177.0,0
16.0,-208.0,-229.0,290.0,-82.0,-179.0,0
22.0,-217.0,-228.0,245.0,-81.0,-181.0,0
19.0,-216.0,-227.0,215.0,-76.0,-199.0,0
39.0,-217.0,-214.0,204.0,-54.0,-215.0,0
24.0,-223.0,-219.0,254.0,-39.0,-172.0,0
46.0,-219.0,-205.0,333.0,-45.0,-123.0,0
48.0,-217.0,-200.0,415.0,-47.0,-117.0,0
46.0,-211.0,-195.0,469.0,-50.0,-110.0,0
46.0,-208.0,-193.0,490.0,-64.0,-109.0,0
35.0,-193.0,-190.0,479.0,-79.0,-122.0,0
32.0,-193.0,-192.0,445.0,-89.0,-113.0,0
27.0,-189.0,-197.0,392.0,-106.0,-97.0,0
23.0,-193.0,-206.0,332.0,-121.0,-88.0,0
12.0,-202.0,-213.0,266.0,-131.0,-74.0,0
7.0,-203.0,-213.0,193.0,-142.0,-54.0,0
1.0,-211.0,-215.0,151.0,-144.0,-49.0,0
-4.0,-220.0,-213.0,133.0,-143.0,-44.0,0
-9.0,-223.0,-217.0,129.0,-141.0,-41.0,0
-16.0,-217.0,-211.0,124.0,-139.0,-72.0,0
-1.0,-226.0,-209.0,131.0,-127.0,-77.0,0
0.0,-230.0,-203.0,172.0,-138.0,-76.0,0
-1.0,-228.0,-205.0,209.0,-154.0,-88.0,0
0.0,-226.0,-200.0,247.0,-164.0,-101.0,0
7.0,-227.0,-203.0,288.0,-175.0,-98.0,0
5.0,-225.0,-205.0,333.0,-183.0,-123.0,0
12.0,-224.0,-205.0,381.0,-167.0,-141.0,0
19.0,-223.0,-209.0,430.0,-133.0,-152.0,0
23.0,-221.0,-206.0,474.0,-91.0,-156.0,0
29.0,-221.0,-202.0,519.0,-49.0,-142.0,0
31.0,-219.0,-194.0,563.0,-26.0,-125.0,0
30.0,-218.0,-183.0,598.0,-22.0,-108.0,0
28.0,-216.0,-188.0,609.0,-36.0,-87.0,0
25.0,-216.0,-187.0,590.0,-65.0,-63.0,0
27.0,-219.0,-190.0,550.0,-94.0,-38.0,0
21.0,-218.0,-196.0,491.0,-118.0,-19.0,0
22.0,-222.0,-204.0,421.0,-139.0,-5.0,0
16.0,-223.0,-198.0,362.0,-150.0,0.0,0
13.0,-225.0,-204.0,321.0,-162.0,5.0,0
11.0,-226.0,-207.0,295.0,-178.0,7.0,0
11.0,-228.0,-208.0,280.0,-186.0,8.0,0
13.0,-230.0,-209.0,269.0,-190.0,3.0,0
14.0,-229.0,-208.0,265.0,-188.0,4.0,0
13.0,-237.0,-209.0,264.0,-181.0,7.0,0
13.0,-238.0,-204.0,266.0,-172.0,8.0,0
18.0,-234.0,-203.0,287.0,-162.0,9.0,0
10.0,-235.0,-207.0,298.0,-154.0,-4.0,0
31.0,-232.0,-202.0,279.0,-139.0,-17.0,0
26.0,-237.0,-204.0,286.0,-140.0,5.0,0
22.0,-239.0,-196.0,294.0,-144.0,14.0,0
22.0,-244.0,-197.0,309.0,-152.0,12.0,0
21.0,-245.0,-197.0,326.0,-162.0,12.0,0
16.0,-241.0,-200.0,352.0,-169.0,20.0,0
17.0,-242.0,-198.0,385.0,-187.0,23.0,0
17.0,-238.0,-199.0,407.0,-203.0,16.0,0
17.0,-236.0,-198.0,421.0,-204.0,7.0,0
9.0,-235.0,-197.0,433.0,-195.0,3.0,0
2.0,-229.0,-195.0,442.0,-193.0,5.0,0
6.0,-224.0,-193.0,442.0,-204.0,3.0,0
8.0,-228.0,-194.0,439.0,-203.0,-4.0,0
10.0,-234.0,-193.0,430.0,-188.0,-5.0,0
3.0,-245.0,-204.0,412.0,-177.0,2.0,0
17.0,-258.0,-200.0,389.0,-166.0,6.0,0
12.0,-280.0,-204.0,344.0,-154.0,14.0,0
14.0,-305.0,-203.0,279.0,-151.0,33.0,0
21.0,-335.0,-204.0,181.0,-147.0,62.0,0
23.0,-367.0,-220.0,61.0,-143.0,73.0,0
25.0,-400.0,-222.0,-85.0,-129.0,88.0,0
19.0,-418.0,-238.0,-228.0,-119.0,107.0,0
18.0,-432.0,-253.0,-320.0,-119.0,123.0,0
25.0,-421.0,-261.0,-289.0,-117.0,147.0,0
23.0,-383.0,-276.0,-38.0,-126.0,203.0,0
32.0,-332.0,-280.0,416.0,-156.0,220.0,0
43.0,-285.0,-261.0,949.0,-179.0,225.0,0
47.0,-236.0,-241.0,1443.0,-193.0,198.0,0
41.0,-202.0,-197.0,1808.0,-194.0,140.0,0
42.0,-171.0,-165.0,2038.0,-181.0,88.0,0
45.0,-154.0,-127.0,2145.0,-115.0,42.0,0
27.0,-143.0,-102.0,2133.0,-7.0,-19.0,0
0.0,-137.0,-82.0,2039.0,104.0,-43.0,0
-12.0,-141.0,-72.0,1858.0,182.0,-10.0,0
-15.0,-148.0,-75.0,1587.0,209.0,27.0,0
-17.0,-154.0,-84.0,1259.0,198.0,59.0,0
-14.0,-159.0,-82.0,904.0,161.0,75.0,0
-11.0,-167.0,-76.0,573.0,110.0,79.0,0
-3.0,-177.0,-79.0,312.0,52.0,71.0,0
6.0,-180.0,-77.0,139.0,-4.0,54.0,0
15.0,-188.0,-89.0,58.0,-50.0,32.0,0
26.0,-192.0,-103.0,46.0,-79.0,19.0,0
29.0,-199.0,-108.0,89.0,-97.0,12.0,0
27.0,-207.0,-110.0,158.0,-114.0,4.0,0
28.0,-213.0,-111.0,236.0,-129.0,-4.0,0
21.0,-220.0,-113.0,326.0,-138.0,-12.0,0
22.0,-230.0,-112.0,430.0,-137.0,-9.0,0
16.0,-238.0,-112.0,548.0,-122.0,-1.0,0
12.0,-245.0,-110.0,678.0,-97.0,12.0,0
10.0,-253.0,-114.0,799.0,-66.0,33.0,0
11.0,-266.0,-114.0,901.0,-26.0,63.0,0
10.0,-288.0,-115.0,975.0,25.0,102.0,0
5.0,-311.0,-120.0,1025.0,93.0,146.0,0
7.0,-333.0,-121.0,1057.0,182.0,194.0,0
8.0,-350.0,-129.0,1083.0,279.0,249.0,0
3.0,-358.0,-137.0,1120.0,357.0,299.0,0
3.0,-348.0,-148.0,1185.0,395.0,332.0,0
1.0,-333.0,-154.0,1286.0,379.0,342.0,0
-1.0,-309.0,-153.0,1419.0,294.0,323.0,0
-2.0,-280.0,-164.0,1560.0,161.0,277.0,0
5.0,-255.0,-155.0,1675.0,26.0,214.0,0
8.0,-237.0,-143.0,1742.0,-71.0,146.0,0
11.0,-216.0,-136.0,1739.0,-112.0,79.0,0
16.0,-200.0,-122.0,1671.0,-103.0,25.0,0
19.0,-185.0,-116.0,1553.0,-61.0,-10.0,0
12.0,-181.0,-105.0,1394.0,1.0,-36.0,0
11.0,-185.0,-90.0,1220.0,64.0,-48.0,0
9.0,-188.0,-88.0,1038.0,114.0,-42.0,0
7.0,-194.0,-82.0,860.0,146.0,-27.0,0
5.0,-207.0,-75.0,701.0,163.0,-4.0,0
11.0,-215.0,-78.0,570.0,162.0,18.0,0
9.0,-227.0,-78.0,469.0,150.0,35.0,0
3.0,-236.0,-76.0,394.0,130.0,46.0,0
10.0,-248.0,-78.0,350.0,109.0,49.0,0
13.0,-254.0,-81.0,344.0,86.0,42.0,0
15.0,-265.0,-84.0,367.0,64.0,28.0,0
16.0,-270.0,-86.0,416.0,45.0,15.0,0
13.0,-274.0,-91.0,486.0,31.0,-1.0,0
13.0,-275.0,-89.0,564.0,19.0,-16.0,0
5.0,-272.0,-91.0,646.0,9.0,-25.0,0
8.0,-271.0,-90.0,727.0,2.0,-31.0,0
1.0,-271.0,-85.0,798.0,7.0,-34.0,0
-1.0,-265.0,-82.0,863.0,15.0,-30.0,0
1.0,-260.0,-81.0,909.0,24.0,-24.0,0
1.0,-256.0,-78.0,936.0,35.0,-26.0,0
1.0,-254.0,-76.0,947.0,48.0,-31.0,0
6.0,-249.0,-73.0,944.0,69.0,-44.0,0
7.0,-245.0,-76.0,933.0,93.0,-54.0,0
4.0,-242.0,-69.0,913.0,116.0,-64.0,0
5.0,-242.0,-67.0,885.0,129.0,-67.0,0
5.0,-241.0,-61.0,851.0,137.0,-61.0,0
1.0,-239.0,-61.0,811.0,135.0,-51.0,0
0.0,-240.0,-58.0,769.0,128.0,-37.0,0
-2.0,-239.0,-55.0,731.0,121.0,-19.0,0
-3.0,-237.0,-57.0,688.0,118.0,-6.0,0
-6.0,-238.0,-56.0,645.0,120.0,4.0,0
-5.0,-240.0,-55.0,604.0,127.0,6.0,0
-7.0,-241.0,-54.0,570.0,129.0,5.0,0
-7.0,-245.0,-52.0,545.0,126.0,4.0,0
-9.0,-247.0,-51.0,532.0,115.0,3.0,0
-9.0,-251.0,-47.0,530.0,97.0,4.0,0
-12.0,-251.0,-50.0,542.0,80.0,5.0,0
-9.0,-254.0,-43.0,561.0,56.0,7.0,0
-13.0,-254.0,-39.0,590.0,34.0,6.0,0
-11.0,-255.0,-45.0,619.0,22.0,9.0,0
-10.0,-257.0,-42.0,635.0,18.0,10.0,0
-5.0,-255.0,-41.0,639.0,21.0,6.0,0
-4.0,-254.0,-34.0,630.0,28.0,1.0,0
2.0,-254.0,-34.0,609.0,40.0,-8.0,0
1.0,-253.0,-33.0,583.0,51.0,-12.0,0
3.0,-252.0,-32.0,546.0,60.0,-10.0,0
8.0,-251.0,-35.0,507.0,58.0,-7.0,0
4.0,-248.0,-38.0,464.0,42.0,-2.0,0
3.0,-248.0,-38.0,427.0,22.0,4.0,0
9.0,-247.0,-36.0,397.0,0.0,11.0,0
13.0,-248.0,-31.0,377.0,-14.0,17.0,0
12.0,-248.0,-34.0,370.0,-11.0,21.0,0
13.0,-247.0,-35.0,370.0,4.0,24.0,0
12.0,-249.0,-33.0,373.0,25.0,21.0,0
15.0,-253.0,-33.0,376.0,49.0,15.0,0
10.0,-247.0,-33.0,373.0,66.0,9.0,0
12.0,-249.0,-31.0,366.0,79.0,3.0,0
7.0,-246.0,-33.0,356.0,85.0,-1.0,0
5.0,-247.0,-30.0,348.0,89.0,-4.0,0
3.0,-246.0,-36.0,338.0,93.0,-2.0,0
1.0,-245.0,-32.0,328.0,96.0,3.0,0
0.0,-248.0,-32.0,320.0,98.0,6.0,0
1.0,-247.0,-30.0,310.0,98.0,6.0,0
-1.0,-249.0,-29.0,289.0,93.0,9.0,0
4.0,-249.0,-27.0,264.0,83.0,9.0,0
10.0,-251.0,-23.0,233.0,69.0,14.0,0
7.0,-250.0,-26.0,205.0,49.0,9.0,0
8.0,-250.0,-29.0,179.0,25.0,2.0,0
9.0,-249.0,-34.0,152.0,3.0,-4.0,0
8.0,-247.0,-32.0,134.0,-15.0,-8.0,0
11.0,-250.0,-34.0,120.0,-30.0,-10.0,0
7.0,-247.0,-31.0,111.0,-36.0,-11.0,0
7.0,-250.0,-34.0,109.0,-35.0,-13.0,0
11.0,-256.0,-35.0,113.0,-28.0,-12.0,0
12.0,-256.0,-28.0,124.0,-18.0,-12.0,0
11.0,-259.0,-33.0,144.0,-1.0,-17.0,0
13.0,-261.0,-30.0,167.0,18.0,-19.0,0
9.0,-264.0,-32.0,187.0,33.0,-15.0,0
5.0,-263.0,-27.0,206.0,37.0,-10.0,0
-3.0,-255.0,-29.0,213.0,30.0,-3.0,0
-4.0,-252.0,-29.0,212.0,17.0,-2.0,0
-1.0,-249.0,-35.0,208.0,7.0,-2.0,0
-1.0,-246.0,-37.0,198.0,8.0,-3.0,0
-3.0,-246.0,-37.0,181.0,20.0,-5.0,0
-3.0,-244.0,-38.0,156.0,33.0,-8.0,0
-1.0,-246.0,-39.0,125.0,38.0,-13.0,0
-2.0,-249.0,-35.0,91.0,35.0,-18.0,0
1.0,-252.0,-33.0,61.0,23.0,-21.0,0
0.0,-251.0,-30.0,40.0,4.0,-23.0,0
5.0,-250.0,-33.0,26.0,-15.0,-18.0,0
4.0,-251.0,-31.0,20.0,-32.0,-10.0,0
7.0,-252.0,-30.0,14.0,-44.0,1.0,0
6.0,-251.0,-30.0,5.0,-51.0,12.0,0
10.0,-251.0,-30.0,-9.0,-57.0,16.0,0
6.0,-250.0,-27.0,-21.0,-59.0,14.0,0
8.0,-248.0,-22.0,-34.0,-58.0,8.0,0
6.0,-252.0,-31.0,-43.0,-51.0,-2.0,0
8.0,-250.0,-29.0,-50.0,-40.0,-9.0,0
5.0,-251.0,-23.0,-50.0,-28.0,-15.0,0
6.0,-250.0,-20.0,-45.0,-15.0,-18.0,0
4.0,-251.0,-24.0,-39.0,-4.0,-20.0,0
5.0,-252.0,-20.0,-34.0,5.0,-21.0,0
3.0,-254.0,-18.0,-29.0,12.0,-21.0,0
2.0,-256.0,-19.0,-28.0,11.0,-21.0,0
3.0,-250.0,-24.0,-26.0,4.0,-20.0,0
4.0,-256.0,-19.0,-29.0,-5.0,-17.0,0
3.0,-252.0,-19.0,-38.0,-18.0,-15.0,0
2.0,-250.0,-21.0,-47.0,-32.0,-12.0,0
8.0,-250.0,-23.0,-57.0,-43.0,-9.0,0
7.0,-247.0,-19.0,-63.0,-52.0,-6.0,0
4.0,-247.0,-23.0,-67.0,-59.0,-4.0,0
7.0,-250.0,-25.0,-72.0,-64.0,-2.0,0
7.0,-248.0,-20.0,-78.0,-66.0,-1.0,0
5.0,-247.0,-23.0,-80.0,-66.0,-1.0,0
8.0,-252.0,-24.0,-75.0,-61.0,0.0,0
7.0,-253.0,-27.0,-60.0,-55.0,3.0,0
7.0,-257.0,-29.0,-37.0,-45.0,10.0,0
9.0,-259.0,-34.0,-6.0,-34.0,12.0,0
7.0,-257.0,-28.0,26.0,-23.0,17.0,0
7.0,-257.0,-29.0,55.0,-13.0,17.0,0
5.0,-253.0,-33.0,69.0,-6.0,17.0,0
6.0,-254.0,-27.0,71.0,2.0,16.0,0
11.0,-260.0,-29.0,59.0,10.0,15.0,0
10.0,-254.0,-25.0,38.0,15.0,8.0,0
9.0,-251.0,-24.0,16.0,20.0,3.0,0
7.0,-249.0,-25.0,-3.0,23.0,1.0,0
6.0,-248.0,-23.0,-14.0,25.0,0.0,0
6.0,-252.0,-22.0,-20.0,24.0,-2.0,0
5.0,-248.0,-24.0,-20.0,19.0,-3.0,0
0.0,-257.0,-21.0,-16.0,12.0,-2.0,0
6.0,-255.0,-21.0,-11.0,7.0,-3.0,0
3.0,-255.0,-20.0,0.0,3.0,-2.0,0
2.0,-258.0,-23.0,14.0,0.0,1.0,0
-2.0,-258.0,-21.0,30.0,-7.0,6.0,0
1.0,-257.0,-28.0,46.0,-20.0,9.0,0
2.0,-253.0,-29.0,48.0,-30.0,9.0,0
5.0,-256.0,-25.0,42.0,-38.0,11.0,0
6.0,-250.0,-32.0,26.0,-45.0,12.0,0
4.0,-251.0,-28.0,2.0,-46.0,12.0,0
6.0,-245.0,-27.0,-31.0,-43.0,12.0,0
8.0,-246.0,-31.0,-64.0,-31.0,10.0,0
6.0,-246.0,-29.0,-95.0,-19.0,4.0,0
7.0,-246.0,-32.0,-124.0,-3.0,-2.0,0
8.0,-247.0,-28.0,-147.0,14.0,-8.0,0
8.0,-249.0,-30.0,-165.0,32.0,-15.0,0
9.0,-251.0,-29.0,-170.0,50.0,-20.0,0
10.0,-255.0,-33.0,-167.0,66.0,-24.0,0
7.0,-255.0,-32.0,-153.0,81.0,-26.0,0
11.0,-257.0,-30.0,-129.0,90.0,-23.0,0
11.0,-261.0,-30.0,-104.0,93.0,-18.0,0
15.0,-260.0,-32.0,-78.0,87.0,-9.0,0
12.0,-259.0,-27.0,-50.0,70.0,4.0,0
16.0,-259.0,-33.0,-25.0,52.0,14.0,0
12.0,-262.0,-28.0,-6.0,29.0,23.0,0
12.0,-259.0,-30.0,8.0,4.0,30.0,0
12.0,-257.0,-26.0,18.0,-20.0,31.0,0
11.0,-252.0,-25.0,21.0,-41.0,27.0,0
11.0,-254.0,-25.0,16.0,-60.0,23.0,0
6.0,-255.0,-22.0,8.0,-72.0,18.0,0
7.0,-247.0,-23.0,-5.0,-76.0,11.0,0
4.0,-245.0,-23.0,-24.0,-74.0,2.0,0
2.0,-249.0,-25.0,-46.0,-66.0,-8.0,0
2.0,-249.0,-29.0,-74.0,-54.0,-17.0,0
4.0,-249.0,-28.0,-106.0,-36.0,-21.0,0
3.0,-248.0,-25.0,-138.0,-21.0,-28.0,0
3.0,-249.0,-31.0,-166.0,-10.0,-29.0,0
5.0,-248.0,-29.0,-193.0,-1.0,-30.0,0
5.0,-251.0,-31.0,-212.0,3.0,-29.0,0
9.0,-252.0,-32.0,-224.0,5.0,-25.0,0
8.0,-250.0,-32.0,-229.0,6.0,-23.0,0
8.0,-253.0,-35.0,-222.0,3.0,-20.0,0
7.0,-254.0,-33.0,-211.0,0.0,-17.0,0
7.0,-253.0,-35.0,-197.0,-11.0,-15.0,0
4.0,-253.0,-33.0,-187.0,-22.0,-12.0,0
1.0,-254.0,-35.0,-177.0,-35.0,-8.0,0
5.0,-252.0,-38.0,-175.0,-49.0,-5.0,0
3.0,-249.0,-33.0,-180.0,-63.0,-2.0,0
5.0,-252.0,-34.0,-185.0,-78.0,1.0,0
4.0,-249.0,-34.0,-197.0,-93.0,3.0,0
3.0,-253.0,-30.0,-215.0,-113.0,5.0,0
0.0,-251.0,-28.0,-236.0,-139.0,5.0,0
1.0,-256.0,-32.0,-253.0,-164.0,0.0,0
-1.0,-251.0,-35.0,-270.0,-178.0,-7.0,0
-2.0,-250.0,-33.0,-284.0,-182.0,-14.0,0
-1.0,-254.0,-33.0,-294.0,-178.0,-17.0,0
4.0,-258.0,-33.0,-300.0,-158.0,-21.0,0
6.0,-259.0,-30.0,-301.0,-128.0,-28.0,0
13.0,-261.0,-29.0,-295.0,-94.0,-33.0,0
12.0,-259.0,-31.0,-285.0,-65.0,-37.0,0
16.0,-260.0,-27.0,-270.0,-47.0,-38.0,0
12.0,-258.0,-30.0,-253.0,-44.0,-31.0,0
10.0,-259.0,-27.0,-232.0,-56.0,-18.0,0
15.0,-257.0,-26.0,-211.0,-73.0,1.0,0
13.0,-258.0,-29.0,-189.0,-96.0,20.0,0
15.0,-258.0,-30.0,-162.0,-122.0,33.0,0
9.0,-256.0,-30.0,-134.0,-147.0,42.0,0
9.0,-258.0,-35.0,-107.0,-167.0,47.0,0
4.0,-255.0,-35.0,-86.0,-185.0,47.0,0
4.0,-255.0,-45.0,-78.0,-190.0,37.0,0
5.0,-255.0,-41.0,-78.0,-187.0,24.0,0
0.0,-253.0,-47.0,-84.0,-173.0,6.0,0
1.0,-251.0,-45.0,-92.0,-150.0,-11.0,0
-1.0,-250.0,-45.0,-93.0,-122.0,-26.0,0
-3.0,-251.0,-45.0,-90.0,-89.0,-36.0,0
-1.0,-252.0,-47.0,-84.0,-63.0,-44.0,0
-1.0,-252.0,-47.0,-74.0,-39.0,-49.0,0
-4.0,-253.0,-44.0,-64.0,-16.0,-55.0,0
-1.0,-253.0,-44.0,-54.0,3.0,-59.0,0
-5.0,-252.0,-44.0,-44.0,21.0,-59.0,0
-3.0,-254.0,-43.0,-36.0,34.0,-59.0,0
-2.0,-253.0,-43.0,-30.0,45.0,-58.0,0
-3.0,-256.0,-46.0,-21.0,51.0,-53.0,0
-1.0,-258.0,-44.0,-14.0,53.0,-49.0,0
4.0,-258.0,-49.0,-7.0,48.0,-42.0,0
-1.0,-260.0,-43.0,-1.0,36.0,-35.0,0
1.0,-258.0,-46.0,7.0,24.0,-30.0,0
5.0,-259.0,-44.0,14.0,8.0,-25.0,0
5.0,-258.0,-44.0,20.0,-6.0,-19.0,0
6.0,-254.0,-45.0,23.0,-24.0,-10.0,0
9.0,-255.0,-41.0,23.0,-43.0,-3.0,0
12.0,-255.0,-44.0,20.0,-61.0,4.0,0
13.0,-254.0,-42.0,10.0,-77.0,13.0,0
13.0,-249.0,-43.0,-4.0,-88.0,20.0,0
16.0,-248.0,-39.0,-19.0,-99.0,24.0,0
14.0,-248.0,-44.0,-35.0,-107.0,27.0,0
16.0,-249.0,-44.0,-53.0,-111.0,27.0,0
17.0,-248.0,-44.0,-71.0,-108.0,28.0,0
18.0,-251.0,-43.0,-86.0,-98.0,27.0,0
14.0,-251.0,-44.0,-97.0,-84.0,22.0,0
14.0,-253.0,-50.0,-106.0,-67.0,19.0,0
13.0,-255.0,-48.0,-105.0,-49.0,13.0,0
14.0,-257.0,-47.0,-99.0,-31.0,9.0,0
11.0,-258.0,-42.0,-84.0,-14.0,7.0,0
11.0,-261.0,-45.0,-66.0,1.0,8.0,0
10.0,-262.0,-44.0,-46.0,12.0,7.0,0
7.0,-258.0,-42.0,-22.0,20.0,5.0,0
7.0,-264.0,-40.0,0.0,26.0,3.0,0
8.0,-262.0,-40.0,23.0,33.0,2.0,0
2.0,-262.0,-40.0,46.0,34.0,-2.0,0
5.0,-262.0,-39.0,66.0,34.0,-3.0,0
3.0,-256.0,-37.0,82.0,30.0,-3.0,0
6.0,-255.0,-32.0,95.0,24.0,-5.0,0
5.0,-252.0,-36.0,104.0,16.0,-5.0,0
5.0,-251.0,-30.0,107.0,10.0,-4.0,0
8.0,-250.0,-31.0,106.0,1.0,-3.0,0
8.0,-249.0,-30.0,100.0,-8.0,1.0,0
9.0,-251.0,-32.0,94.0,-15.0,4.0,0
7.0,-251.0,-31.0,87.0,-24.0,8.0,0
6.0,-251.0,-30.0,78.0,-27.0,11.0,0
6.0,-249.0,-31.0,70.0,-32.0,14.0,0
8.0,-250.0,-32.0,62.0,-34.0,16.0,0
10.0,-251.0,-28.0,53.0,-35.0,16.0,0
12.0,-253.0,-28.0,45.0,-35.0,15.0,0
7.0,-253.0,-33.0,39.0,-32.0,14.0,0
4.0,-249.0,-29.0,35.0,-25.0,14.0,0
5.0,-250.0,-26.0,30.0,-17.0,10.0,0
9.0,-252.0,-27.0,23.0,-8.0,5.0,0
7.0,-252.0,-27.0,18.0,1.0,1.0,0
9.0,-254.0,-25.0,11.0,9.0,-2.0,0
10.0,-254.0,-25.0,4.0,12.0,-5.0,0
7.0,-255.0,-24.0,-2.0,15.0,-10.0,0
5.0,-253.0,-29.0,-7.0,18.0,-13.0,0
4.0,-256.0,-27.0,-13.0,23.0,-18.0,0
5.0,-257.0,-31.0,-9.0,31.0,-21.0,0
4.0,-260.0,-33.0,0.0,39.0,-25.0,0
3.0,-260.0,-34.0,20.0,46.0,-30.0,0
4.0,-258.0,-34.0,39.0,50.0,-33.0,0
0.0,-260.0,-37.0,60.0,52.0,-31.0,0
7.0,-259.0,-40.0,82.0,50.0,-31.0,0
7.0,-255.0,-38.0,105.0,46.0,-29.0,0
7.0,-253.0,-35.0,123.0,41.0,-27.0,0
9.0,-253.0,-35.0,141.0,37.0,-26.0,0
9.0,-254.0,-27.0,154.0,30.0,-26.0,0
7.0,-252.0,-33.0,161.0,24.0,-23.0,0
7.0,-254.0,-26.0,166.0,17.0,-23.0,0
6.0,-250.0,-26.0,172.0,10.0,-25.0,0
6.0,-251.0,-27.0,177.0,6.0,-26.0,0
8.0,-252.0,-26.0,177.0,3.0,-28.0,0
7.0,-253.0,-23.0,172.0,0.0,-28.0,0
10.0,-250.0,-30.0,160.0,-3.0,-28.0,0
5.0,-251.0,-27.0,146.0,-5.0,-28.0,0
8.0,-253.0,-31.0,132.0,-6.0,-28.0,0
10.0,-254.0,-29.0,126.0,-7.0,-28.0,0
11.0,-254.0,-31.0,116.0,-2.0,-29.0,0
8.0,-252.0,-29.0,114.0,5.0,-29.0,0
9.0,-251.0,-30.0,114.0,13.0,-30.0,0
10.0,-250.0,-30.0,113.0,16.0,-28.0,0
7.0,-248.0,-30.0,111.0,17.0,-30.0,0
6.0,-249.0,-29.0,106.0,18.0,-30.0,0
12.0,-250.0,-30.0,99.0,16.0,-27.0,0
11.0,-249.0,-30.0,87.0,16.0,-27.0,0
9.0,-247.0,-27.0,76.0,18.0,-26.0,0
8.0,-246.0,-30.0,62.0,18.0,-25.0,0
6.0,-249.0,-27.0,50.0,18.0,-22.0,0
7.0,-248.0,-23.0,38.0,16.0,-21.0,0
6.0,-250.0,-26.0,29.0,12.0,-20.0,0
12.0,-257.0,-26.0,21.0,10.0,-17.0,0
7.0,-251.0,-27.0,17.0,7.0,-17.0,0
7.0,-253.0,-25.0,12.0,7.0,-18.0,0
9.0,-253.0,-27.0,15.0,11.0,-18.0,0
7.0,-254.0,-21.0,18.0,12.0,-19.0,0
5.0,-255.0,-24.0,20.0,14.0,-19.0,0
6.0,-255.0,-24.0,25.0,15.0,-19.0,0
7.0,-258.0,-31.0,29.0,16.0,-18.0,0
9.0,-257.0,-23.0,32.0,17.0,-18.0,0
7.0,-254.0,-25.0,36.0,23.0,-19.0,0
9.0,-255.0,-22.0,39.0,29.0,-19.0,0
8.0,-255.0,-26.0,47.0,31.0,-17.0,0
9.0,-252.0,-22.0,50.0,34.0,-14.0,0
9.0,-251.0,-25.0,52.0,35.0,-13.0,0
9.0,-250.0,-25.0,49.0,33.0,-11.0,0
6.0,-252.0,-22.0,47.0,32.0,-10.0,0
8.0,-250.0,-23.0,42.0,31.0,-8.0,0
10.0,-254.0,-21.0,35.0,32.0,-7.0,0
9.0,-250.0,-25.0,30.0,31.0,-7.0,0
12.0,-249.0,-27.0,24.0,28.0,-6.0,0
10.0,-250.0,-25.0,21.0,27.0,-4.0,0
9.0,-251.0,-24.0,19.0,25.0,-4.0,0
8.0,-254.0,-24.0,18.0,23.0,-2.0,0
10.0,-252.0,-26.0,17.0,22.0,0.0,0
12.0,-251.0,-23.0,11.0,21.0,0.0,0
8.0,-250.0,-27.0,4.0,20.0,1.0,0
10.0,-249.0,-24.0,-4.0,20.0,-1.0,0
7.0,-253.0,-22.0,-15.0,22.0,-1.0,0
8.0,-253.0,-23.0,-22.0,23.0,-4.0,0
5.0,-251.0,-23.0,-30.0,25.0,-7.0,0
6.0,-250.0,-22.0,-41.0,30.0,-7.0,0
8.0,-254.0,-25.0,-50.0,34.0,-8.0,0
9.0,-253.0,-21.0,-56.0,37.0,-11.0,0
7.0,-253.0,-26.0,-55.0,36.0,-10.0,0
7.0,-254.0,-20.0,-51.0,36.0,-13.0,0
4.0,-253.0,-26.0,-49.0,34.0,-15.0,0
7.0,-254.0,-28.0,-42.0,34.0,-16.0,0
10.0,-255.0,-24.0,-33.0,34.0,-20.0,0
7.0,-251.0,-23.0,-23.0,36.0,-19.0,0
6.0,-252.0,-24.0,-14.0,37.0,-17.0,0
8.0,-254.0,-27.0,-8.0,37.0,-17.0,0
6.0,-250.0,-26.0,-2.0,36.0,-16.0,0
5.0,-252.0,-25.0,-1.0,31.0,-15.0,0
9.0,-252.0,-19.0,-4.0,29.0,-15.0,0
5.0,-248.0,-23.0,-7.0,27.0,-14.0,0
5.0,-251.0,-21.0,-11.0,25.0,-13.0,0
7.0,-252.0,-22.0,-16.0,23.0,-14.0,0
4.0,-249.0,-19.0,-22.0,21.0,-14.0,0
8.0,-255.0,-22.0,-27.0,21.0,-13.0,0
4.0,-252.0,-21.0,-32.0,20.0,-11.0,0
8.0,-252.0,-20.0,-34.0,20.0,-10.0,0
7.0,-252.0,-21.0,-37.0,21.0,-8.0,0
6.0,-254.0,-22.0,-36.0,21.0,-8.0,0
6.0,-252.0,-22.0,-33.0,22.0,-7.0,0
8.0,-255.0,-20.0,-30.0,26.0,-5.0,0
5.0,-253.0,-19.0,-24.0,29.0,-5.0,0
4.0,-254.0,-23.0,-20.0,33.0,-6.0,0
7.0,-254.0,-21.0,-14.0,32.0,-8.0,0
9.0,-253.0,-24.0,-6.0,34.0,-9.0,0
12.0,-254.0,-25.0,2.0,33.0,-10.0,0
6.0,-255.0,-20.0,9.0,33.0,-10.0,0
7.0,-256.0,-17.0,15.0,33.0,-9.0,0
9.0,-254.0,-20.0,21.0,31.0,-11.0,0
6.0,-253.0,-22.0,28.0,28.0,-12.0,0
7.0,-254.0,-21.0,36.0,25.0,-14.0,0
9.0,-252.0,-22.0,39.0,25.0,-14.0,0
6.0,-251.0,-18.0,46.0,27.0,-13.0,0
5.0,-251.0,-15.0,42.0,26.0,-14.0,0
8.0,-251.0,-20.0,36.0,26.0,-16.0,0
3.0,-252.0,-20.0,27.0,23.0,-16.0,0
9.0,-250.0,-22.0,19.0,22.0,-15.0,0
9.0,-250.0,-16.0,13.0,21.0,-16.0,0
8.0,-250.0,-19.0,9.0,20.0,-18.0,0
9.0,-252.0,-19.0,5.0,22.0,-17.0,0
8.0,-253.0,-19.0,0.0,24.0,-16.0,0
9.0,-253.0,-22.0,-6.0,26.0,-18.0,0
9.0,-251.0,-23.0,-11.0,26.0,-18.0,0
11.0,-256.0,-20.0,-11.0,24.0,-21.0,0
10.0,-254.0,-18.0,-14.0,23.0,-22.0,0
9.0,-253.0,-16.0,-13.0,25.0,-20.0,0
11.0,-256.0,-22.0,-12.0,26.0,-17.0,0
8.0,-255.0,-18.0,-5.0,27.0,-15.0,0
10.0,-252.0,-18.0,3.0,26.0,-15.0,0
13.0,-243.0,-21.0,10.0,26.0,-17.0,0
11.0,-248.0,-3.0,19.0,25.0,-17.0,0
12.0,-260.0,-20.0,26.0,24.0,-18.0,0
9.0,-254.0,-16.0,26.0,21.0,-18.0,0
8.0,-250.0,-19.0,28.0,17.0,-19.0,0
9.0,-253.0,-21.0,30.0,14.0,-20.0,0
6.0,-250.0,-21.0,29.0,13.0,-21.0,0
12.0,-252.0,-20.0,25.0,12.0,-19.0,0
12.0,-250.0,-22.0,18.0,13.0,-20.0,0
9.0,-249.0,-20.0,10.0,12.0,-19.0,0
10.0,-251.0,-20.0,3.0,14.0,-18.0,0
9.0,-252.0,-21.0,-6.0,15.0,-14.0,0
8.0,-251.0,-17.0,-15.0,14.0,-12.0,0
8.0,-250.0,-19.0,-22.0,14.0,-10.0,0
10.0,-250.0,-22.0,-28.0,15.0,-9.0,0
11.0,-251.0,-20.0,-30.0,14.0,-8.0,0
7.0,-252.0,-18.0,-35.0,13.0,-7.0,0
6.0,-251.0,-18.0,-40.0,11.0,-6.0,0
9.0,-252.0,-21.0,-45.0,11.0,-6.0,0
10.0,-252.0,-20.0,-49.0,8.0,-8.0,0
10.0,-252.0,-20.0,-56.0,8.0,-8.0,0
10.0,-254.0,-19.0,-60.0,9.0,-9.0,0
10.0,-254.0,-17.0,-63.0,7.0,-10.0,0
10.0,-254.0,-17.0,-65.0,7.0,-10.0,0
6.0,-250.0,-16.0,-65.0,6.0,-8.0,0
8.0,-254.0,-19.0,-65.0,7.0,-7.0,0
5.0,-253.0,-18.0,-65.0,7.0,-4.0,0
6.0,-250.0,-18.0,-61.0,5.0,-5.0,0
8.0,-253.0,-22.0,-60.0,3.0,-3.0,0
8.0,-251.0,-19.0,-60.0,0.0,-2.0,0
11.0,-254.0,-20.0,-62.0,-3.0,-1.0,0
14.0,-253.0,-20.0,-67.0,-2.0,-1.0,0
12.0,-250.0,-17.0,-71.0,-1.0,1.0,0
11.0,-253.0,-16.0,-77.0,1.0,-1.0,0
9.0,-248.0,-15.0,-82.0,5.0,0.0,0
8.0,-249.0,-12.0,-89.0,7.0,1.0,0
5.0,-242.0,-20.0,-94.0,10.0,0.0,0
10.0,-250.0,-20.0,-102.0,13.0,1.0,0
12.0,-255.0,-16.0,-107.0,15.0,-1.0,0
10.0,-254.0,-16.0,-110.0,17.0,-1.0,0
9.0,-257.0,-18.0,-107.0,16.0,-2.0,0
8.0,-257.0,-22.0,-98.0,14.0,-1.0,0
9.0,-253.0,-23.0,-86.0,11.0,-2.0,0
8.0,-256.0,-27.0,-72.0,8.0,-2.0,0
7.0,-254.0,-23.0,-60.0,6.0,-4.0,0
7.0,-252.0,-24.0,-52.0,6.0,-2.0,0
21.0,-242.0,-31.0,-50.0,7.0,-2.0,0
8.0,-252.0,-23.0,-51.0,7.0,-1.0,0
10.0,-253.0,-19.0,-55.0,6.0,-2.0,0
9.0,-251.0,-17.0,-58.0,6.0,1.0,0
8.0,-252.0,-16.0,-60.0,6.0,1.0,0
8.0,-251.0,-19.0,-60.0,4.0,1.0,0
12.0,-252.0,-21.0,-58.0,5.0,2.0,0
9.0,-252.0,-14.0,-59.0,6.0,3.0,0
7.0,-254.0,-18.0,-60.0,7.0,1.0,0
9.0,-254.0,-20.0,-65.0,7.0,3.0,0
7.0,-252.0,-16.0,-69.0,9.0,2.0,0
5.0,-250.0,-35.0,-71.0,13.0,3.0,0
8.0,-250.0,-20.0,-70.0,15.0,4.0,0
7.0,-252.0,-19.0,-65.0,17.0,8.0,0
10.0,-256.0,-22.0,-62.0,19.0,10.0,0
10.0,-253.0,-16.0,-58.0,20.0,12.0,0
11.0,-251.0,-21.0,-56.0,22.0,13.0,0
8.0,-254.0,-23.0,-57.0,23.0,14.0,0
7.0,-249.0,-12.0,-61.0,26.0,16.0,0
8.0,-251.0,-21.0,-68.0,27.0,18.0,0
7.0,-252.0,-12.0,-74.0,25.0,19.0,0
6.0,-250.0,-18.0,-83.0,23.0,19.0,0
-3.0,-245.0,-21.0,-95.0,19.0,20.0,0
4.0,-248.0,-18.0,-109.0,16.0,19.0,0
5.0,-249.0,-19.0,-121.0,13.0,19.0,0
6.0,-251.0,-15.0,-134.0,7.0,19.0,0
8.0,-255.0,-14.0,-145.0,3.0,19.0,0
6.0,-253.0,-15.0,-150.0,-4.0,19.0,0
10.0,-251.0,-19.0,-152.0,-9.0,17.0,0
13.0,-256.0,-15.0,-148.0,-11.0,18.0,0
12.0,-258.0,-21.0,-138.0,-14.0,17.0,0
12.0,-257.0,-20.0,-125.0,-17.0,17.0,0
9.0,-257.0,-19.0,-115.0,-20.0,15.0,0
4.0,-267.0,-12.0,-109.0,-22.0,14.0,0
8.0,-252.0,-21.0,-110.0,-22.0,10.0,0
12.0,-256.0,-20.0,-115.0,-20.0,5.0,0
9.0,-252.0,-21.0,-121.0,-18.0,2.0,0
10.0,-253.0,-19.0,-125.0,-12.0,-3.0,0
12.0,-254.0,-22.0,-132.0,-5.0,-8.0,0
10.0,-254.0,-16.0,-137.0,5.0,-9.0,0
12.0,-254.0,-16.0,-146.0,17.0,-9.0,0
6.0,-252.0,-21.0,-152.0,24.0,-7.0,0
10.0,-253.0,-21.0,-156.0,31.0,-6.0,0
9.0,-255.0,-17.0,-160.0,38.0,-5.0,0
21.0,-247.0,-22.0,-165.0,41.0,-5.0,0
7.0,-251.0,-26.0,-173.0,42.0,-7.0,0
12.0,-255.0,-27.0,-180.0,45.0,-9.0,0
14.0,-253.0,-24.0,-186.0,48.0,-11.0,0
11.0,-253.0,-24.0,-187.0,52.0,-14.0,0
11.0,-249.0,-23.0,-188.0,54.0,-18.0,0
11.0,-250.0,-31.0,-193.0,53.0,-22.0,0
11.0,-249.0,-28.0,-205.0,49.0,-24.0,0
10.0,-248.0,-26.0,-216.0,43.0,-30.0,0
11.0,-247.0,-29.0,-225.0,40.0,-37.0,0
13.0,-244.0,-28.0,-232.0,41.0,-44.0,0
13.0,-244.0,-22.0,-242.0,46.0,-49.0,0
12.0,-248.0,-32.0,-252.0,53.0,-58.0,0
9.0,-247.0,-24.0,-263.0,60.0,-65.0,0
9.0,-246.0,-31.0,-282.0,66.0,-69.0,0
9.0,-245.0,-27.0,-308.0,75.0,-72.0,0
6.0,-243.0,-29.0,-344.0,88.0,-75.0,0
2.0,-239.0,-27.0,-383.0,101.0,-78.0,0
2.0,-241.0,-27.0,-431.0,111.0,-83.0,0
1.0,-242.0,-28.0,-480.0,119.0,-88.0,0
-2.0,-243.0,-27.0,-525.0,125.0,-91.0,0
-3.0,-243.0,-25.0,-559.0,125.0,-93.0,0
-5.0,-249.0,-16.0,-587.0,123.0,-95.0,0
1.0,-251.0,-24.0,-604.0,116.0,-95.0,0
0.0,-254.0,-28.0,-608.0,105.0,-94.0,0
-3.0,-255.0,-27.0,-602.0,89.0,-88.0,0
-4.0,-256.0,-27.0,-591.0,72.0,-84.0,0
-4.0,-257.0,-29.0,-580.0,55.0,-78.0,0
-6.0,-252.0,-28.0,-570.0,42.0,-72.0,0
-2.0,-255.0,-27.0,-565.0,31.0,-64.0,0
-4.0,-252.0,-27.0,-568.0,18.0,-60.0,0
-4.0,-249.0,-23.0,-580.0,9.0,-63.0,0
-1.0,-250.0,-26.0,-595.0,-2.0,-61.0,0
-3.0,-250.0,-18.0,-615.0,-12.0,-59.0,0
-1.0,-249.0,-29.0,-637.0,-20.0,-57.0,0
5.0,-248.0,-30.0,-653.0,-27.0,-49.0,0
4.0,-248.0,-32.0,-666.0,-39.0,-40.0,0
7.0,-250.0,-31.0,-681.0,-47.0,-35.0,0
5.0,-248.0,-33.0,-691.0,-49.0,-30.0,0
7.0,-248.0,-35.0,-696.0,-52.0,-21.0,0
13.0,-247.0,-43.0,-704.0,-55.0,-12.0,0
12.0,-244.0,-44.0,-724.0,-55.0,-3.0,0
12.0,-244.0,-42.0,-750.0,-59.0,4.0,0
11.0,-239.0,-43.0,-784.0,-71.0,7.0,0
18.0,-244.0,-42.0,-818.0,-95.0,14.0,0
12.0,-243.0,-39.0,-850.0,-120.0,20.0,0
15.0,-245.0,-45.0,-880.0,-140.0,25.0,0
9.0,-238.0,-43.0,-918.0,-154.0,23.0,0
13.0,-245.0,-40.0,-953.0,-164.0,27.0,0
14.0,-240.0,-37.0,-991.0,-177.0,25.0,0
11.0,-239.0,-36.0,-1021.0,-192.0,26.0,0
12.0,-238.0,-36.0,-1049.0,-202.0,30.0,0
14.0,-238.0,-33.0,-1070.0,-209.0,34.0,0
16.0,-242.0,-31.0,-1097.0,-213.0,39.0,0
9.0,-237.0,-28.0,-1139.0,-220.0,45.0,0
13.0,-237.0,-37.0,-1191.0,-239.0,48.0,0
11.0,-236.0,-36.0,-1254.0,-250.0,45.0,0
-2.0,-232.0,-39.0,-1325.0,-255.0,43.0,0
9.0,-243.0,-47.0,-1389.0,-260.0,48.0,0
5.0,-240.0,-49.0,-1448.0,-261.0,50.0,0
7.0,-247.0,-48.0,-1501.0,-262.0,55.0,0
6.0,-247.0,-55.0,-1545.0,-269.0,63.0,0
9.0,-248.0,-50.0,-1572.0,-283.0,72.0,0
7.0,-248.0,-53.0,-1581.0,-294.0,80.0,0
8.0,-251.0,-56.0,-1575.0,-300.0,84.0,0
8.0,-255.0,-53.0,-1555.0,-303.0,83.0,0
8.0,-257.0,-55.0,-1516.0,-313.0,83.0,0
8.0,-257.0,-52.0,-1461.0,-322.0,78.0,0
6.0,-258.0,-55.0,-1398.0,-329.0,81.0,0
6.0,-261.0,-50.0,-1324.0,-340.0,89.0,0
12.0,-262.0,-50.0,-1254.0,-354.0,96.0,0
15.0,-258.0,-56.0,-1189.0,-360.0,103.0,0
9.0,-255.0,-56.0,-1143.0,-354.0,105.0,0
13.0,-258.0,-48.0,-1112.0,-349.0,108.0,0
14.0,-255.0,-52.0,-1083.0,-345.0,103.0,0
25.0,-254.0,-50.0,-1056.0,-343.0,107.0,0
22.0,-252.0,-55.0,-1027.0,-337.0,107.0,0
17.0,-248.0,-56.0,-1007.0,-329.0,111.0,0
41.0,-249.0,-59.0,-989.0,-328.0,127.0,0
14.0,-247.0,-68.0,-957.0,-291.0,117.0,0
24.0,-253.0,-72.0,-943.0,-286.0,146.0,0
24.0,-252.0,-78.0,-967.0,-321.0,160.0,0
36.0,-266.0,-83.0,-988.0,-326.0,171.0,0
27.0,-265.0,-90.0,-997.0,-318.0,161.0,0
27.0,-264.0,-97.0,-1011.0,-312.0,163.0,0
6.0,-262.0,-108.0,-1035.0,-301.0,174.0,0
2.0,-256.0,-108.0,-1066.0,-313.0,181.0,0
-1.0,-252.0,-113.0,-1094.0,-328.0,188.0,0
-7.0,-250.0,-118.0,-1118.0,-346.0,193.0,0
-8.0,-251.0,-118.0,-1148.0,-336.0,201.0,0
-14.0,-244.0,-127.0,-1187.0,-336.0,211.0,0
-15.0,-243.0,-140.0,-1222.0,-358.0,215.0,0
-10.0,-234.0,-150.0,-1261.0,-372.0,218.0,0
-1.0,-232.0,-160.0,-1318.0,-371.0,211.0,0
0.0,-231.0,-177.0,-1373.0,-357.0,199.0,0
14.0,-235.0,-188.0,-1433.0,-329.0,190.0,0
10.0,-242.0,-202.0,-1487.0,-279.0,200.0,0
8.0,-246.0,-216.0,-1540.0,-262.0,193.0,0
14.0,-259.0,-212.0,-1565.0,-230.0,163.0,0
14.0,-270.0,-210.0,-1549.0,-187.0,142.0,0
6.0,-281.0,-201.0,-1507.0,-148.0,128.0,0
-10.0,-290.0,-202.0,-1453.0,-123.0,116.0,0
-29.0,-285.0,-206.0,-1412.0,-134.0,106.0,0
-33.0,-283.0,-203.0,-1398.0,-153.0,108.0,0
-32.0,-281.0,-193.0,-1387.0,-168.0,93.0,0
-15.0,-290.0,-185.0,-1372.0,-155.0,67.0,0
-5.0,-305.0,-167.0,-1330.0,-130.0,30.0,0
7.0,-316.0,-161.0,-1252.0,-106.0,-6.0,0
16.0,-328.0,-159.0,-1136.0,-86.0,-34.0,0
23.0,-329.0,-162.0,-998.0,-71.0,-58.0,0
22.0,-327.0,-163.0,-860.0,-54.0,-75.0,0
17.0,-312.0,-170.0,-730.0,-41.0,-76.0,0
5.0,-302.0,-176.0,-627.0,-31.0,-66.0,0
-4.0,-292.0,-184.0,-562.0,-22.0,-53.0,0
-8.0,-288.0,-191.0,-525.0,-11.0,-40.0,0
-12.0,-284.0,-197.0,-503.0,3.0,-26.0,0
-10.0,-284.0,-200.0,-485.0,16.0,-14.0,0
-8.0,-292.0,-205.0,-458.0,29.0,-5.0,0
-7.0,-288.0,-205.0,-426.0,42.0,-15.0,0
-5.0,-290.0,-208.0,-372.0,60.0,-9.0,0
-9.0,-288.0,-211.0,-298.0,69.0,-5.0,0
-9.0,-284.0,-215.0,-217.0,74.0,-10.0,0
-7.0,-277.0,-215.0,-146.0,80.0,-23.0,0
-13.0,-270.0,-214.0,-89.0,89.0,-27.0,0
-16.0,-267.0,-218.0,-35.0,90.0,-24.0,0
-20.0,-263.0,-217.0,3.0,82.0,-34.0,0
-23.0,-260.0,-215.0,36.0,67.0,-43.0,0
-23.0,-257.0,-218.0,61.0,52.0,-53.0,0
-22.0,-256.0,-215.0,82.0,35.0,-70.0,0
-23.0,-261.0,-214.0,98.0,28.0,-86.0,0
-20.0,-265.0,-209.0,130.0,31.0,-92.0,0
-21.0,-271.0,-207.0,182.0,29.0,-99.0,0
-27.0,-272.0,-207.0,250.0,18.0,-111.0,0
-35.0,-275.0,-193.0,318.0,-12.0,-130.0,0
-34.0,-276.0,-192.0,409.0,-94.0,-152.0,0
-18.0,-270.0,-197.0,500.0,-164.0,-175.0,0
-18.0,-271.0,-197.0,580.0,-181.0,-180.0,0
-4.0,-262.0,-213.0,660.0,-192.0,-179.0,0
-22.0,-254.0,-201.0,717.0,-147.0,-182.0,0
-19.0,-248.0,-196.0,757.0,-148.0,-157.0,0
-13.0,-244.0,-200.0,773.0,-186.0,-143.0,0
-8.0,-240.0,-191.0,749.0,-220.0,-140.0,0
-13.0,-233.0,-198.0,703.0,-242.0,-137.0,0
-10.0,-238.0,-196.0,618.0,-241.0,-128.0,0
-1.0,-234.0,-197.0,515.0,-239.0,-125.0,0
-8.0,-229.0,-197.0,399.0,-213.0,-130.0,0
-2.0,-227.0,-194.0,282.0,-181.0,-131.0,0
-5.0,-224.0,-192.0,176.0,-143.0,-130.0,0
-11.0,-224.0,-186.0,76.0,-102.0,-128.0,0
-21.0,-223.0,-187.0,-5.0,-59.0,-114.0,0
-3.0,-223.0,-185.0,-68.0,-26.0,-93.0,0
-19.0,-221.0,-183.0,-123.0,-5.0,-99.0,0
-11.0,-225.0,-185.0,-173.0,11.0,-88.0,0
-8.0,-226.0,-185.0,-215.0,14.0,-98.0,0
-13.0,-228.0,-181.0,-248.0,12.0,-118.0,0
-9.0,-228.0,-184.0,-265.0,-1.0,-128.0,0
-9.0,-229.0,-184.0,-265.0,-15.0,-134.0,0
-10.0,-230.0,-183.0,-245.0,-32.0,-125.0,0
-5.0,-230.0,-179.0,-228.0,-51.0,-115.0,0
-8.0,-229.0,-180.0,-212.0,-68.0,-116.0,0
1.0,-228.0,-182.0,-197.0,-79.0,-109.0,0
-3.0,-226.0,-184.0,-190.0,-89.0,-109.0,0
-4.0,-225.0,-184.0,-187.0,-84.0,-96.0,0
-7.0,-224.0,-184.0,-192.0,-73.0,-52.0,0
11.0,-226.0,-181.0,-195.0,-72.0,-41.0,0
-8.0,-227.0,-188.0,-184.0,-84.0,-79.0,0
-12.0,-225.0,-179.0,-173.0,-96.0,-93.0,0
-9.0,-221.0,-185.0,-159.0,-112.0,-93.0,0
-10.0,-221.0,-184.0,-142.0,-122.0,-97.0,0
-10.0,-220.0,-182.0,-124.0,-123.0,-78.0,0
-8.0,-218.0,-182.0,-111.0,-121.0,-78.0,0
-9.0,-215.0,-174.0,-108.0,-115.0,-90.0,0
-5.0,-213.0,-169.0,-113.0,-109.0,-101.0,0
-7.0,-210.0,-171.0,-118.0,-100.0,-108.0,0
2.0,-215.0,-163.0,-127.0,-89.0,-113.0,0
-2.0,-214.0,-165.0,-125.0,-78.0,-128.0,0
-4.0,-208.0,-163.0,-130.0,-68.0,-127.0,0
2.0,-212.0,-161.0,-138.0,-63.0,-123.0,0
8.0,-211.0,-161.0,-143.0,-64.0,-131.0,0
3.0,-212.0,-164.0,-141.0,-71.0,-140.0,0
0.0,-210.0,-170.0,-141.0,-77.0,-129.0,0
-12.0,-211.0,-172.0,-143.0,-81.0,-107.0,0
-6.0,-215.0,-169.0,-140.0,-76.0,-66.0,0
-2.0,-216.0,-171.0,-132.0,-68.0,-38.0,0
-7.0,-219.0,-169.0,-118.0,-61.0,-29.0,0
-10.0,-219.0,-171.0,-101.0,-48.0,-22.0,0
-8.0,-219.0,-169.0,-85.0,-31.0,-17.0,0
-6.0,-219.0,-167.0,-76.0,-18.0,-16.0,0
-10.0,-218.0,-176.0,-73.0,-9.0,-27.0,0
-9.0,-215.0,-169.0,-82.0,1.0,-30.0,0
-8.0,-217.0,-167.0,-98.0,9.0,-31.0,0
-7.0,-214.0,-165.0,-119.0,13.0,-40.0,0
-5.0,-213.0,-162.0,-144.0,15.0,-53.0,0
-11.0,-213.0,-165.0,-164.0,16.0,-69.0,0
-8.0,-213.0,-161.0,-187.0,18.0,-72.0,0
-7.0,-216.0,-161.0,-203.0,23.0,-68.0,0
-8.0,-213.0,-162.0,-215.0,32.0,-63.0,0
-7.0,-217.0,-159.0,-224.0,45.0,-59.0,0
-4.0,-219.0,-160.0,-229.0,55.0,-52.0,0
-5.0,-218.0,-164.0,-227.0,71.0,-50.0,0
-6.0,-221.0,-164.0,-216.0,88.0,-45.0,0
-3.0,-222.0,-169.0,-202.0,102.0,-36.0,0
-5.0,-225.0,-169.0,-179.0,114.0,-35.0,0
-3.0,-228.0,-171.0,-156.0,122.0,-36.0,0
-5.0,-225.0,-165.0,-126.0,130.0,-36.0,0
-3.0,-224.0,-168.0,-97.0,134.0,-29.0,0
-4.0,-221.0,-168.0,-77.0,135.0,-22.0,0
-2.0,-220.0,-173.0,-65.0,133.0,-16.0,0
-6.0,-220.0,-173.0,-62.0,131.0,-9.0,0
1.0,-218.0,-171.0,-59.0,126.0,3.0,0
5.0,-217.0,-175.0,-48.0,122.0,8.0,0
5.0,-219.0,-174.0,-33.0,120.0,5.0,0
10.0,-220.0,-174.0,-19.0,121.0,-1.0,0
-1.0,-215.0,-175.0,-3.0,123.0,-5.0,0
-1.0,-216.0,-173.0,-1.0,123.0,4.0,0
-3.0,-212.0,-174.0,-8.0,120.0,19.0,0
2.0,-219.0,-167.0,-15.0,109.0,26.0,0
0.0,-219.0,-165.0,-9.0,99.0,16.0,0
-7.0,-222.0,-167.0,-2.0,86.0,2.0,0
-6.0,-222.0,-165.0,4.0,72.0,-2.0,0
-4.0,-225.0,-167.0,8.0,58.0,-3.0,0
-8.0,-229.0,-172.0,13.0,50.0,-10.0,0
-14.0,-228.0,-166.0,25.0,47.0,-16.0,0
-12.0,-233.0,-167.0,47.0,44.0,-16.0,0
-9.0,-232.0,-169.0,78.0,39.0,-17.0,0
-7.0,-234.0,-168.0,122.0,38.0,-22.0,0
-10.0,-229.0,-167.0,171.0,40.0,-27.0,0
-8.0,-229.0,-174.0,228.0,48.0,-29.0,0
-12.0,-225.0,-175.0,285.0,56.0,-32.0,0
-2.0,-223.0,-172.0,330.0,63.0,-24.0,0
-8.0,-221.0,-174.0,358.0,68.0,-26.0,0
-3.0,-215.0,-171.0,364.0,70.0,-21.0,0
4.0,-214.0,-167.0,348.0,65.0,-22.0,0
4.0,-213.0,-171.0,322.0,54.0,-34.0,0
9.0,-211.0,-172.0,294.0,33.0,-47.0,0
9.0,-212.0,-169.0,275.0,2.0,-57.0,0
9.0,-214.0,-171.0,271.0,-35.0,-60.0,0
9.0,-214.0,-168.0,285.0,-74.0,-61.0,0
1.0,-212.0,-166.0,311.0,-108.0,-54.0,0
5.0,-217.0,-170.0,335.0,-136.0,-41.0,0
5.0,-215.0,-167.0,362.0,-157.0,-45.0,0
6.0,-213.0,-166.0,380.0,-166.0,-54.0,0
2.0,-210.0,-164.0,389.0,-172.0,-58.0,0
-1.0,-213.0,-161.0,387.0,-180.0,-63.0,0
0.0,-212.0,-160.0,380.0,-185.0,-64.0,0
1.0,-209.0,-155.0,367.0,-185.0,-68.0,0
-2.0,-212.0,-157.0,352.0,-179.0,-72.0,0
-4.0,-213.0,-148.0,334.0,-167.0,-76.0,0
-12.0,-209.0,-148.0,319.0,-158.0,-80.0,0
-5.0,-209.0,-141.0,303.0,-142.0,-80.0,0
0.0,-213.0,-141.0,292.0,-126.0,-84.0,0
-5.0,-211.0,-141.0,285.0,-107.0,-92.0,0
-3.0,-210.0,-141.0,282.0,-91.0,-94.0,0
-4.0,-210.0,-140.0,286.0,-83.0,-99.0,0
-2.0,-211.0,-143.0,299.0,-86.0,-99.0,0
-2.0,-208.0,-143.0,321.0,-91.0,-99.0,0
3.0,-207.0,-151.0,346.0,-99.0,-93.0,0
5.0,-207.0,-152.0,367.0,-104.0,-94.0,0
10.0,-205.0,-157.0,381.0,-108.0,-97.0,0
7.0,-206.0,-155.0,383.0,-108.0,-103.0,0
7.0,-199.0,-150.0,376.0,-107.0,-107.0,0
11.0,-205.0,-153.0,368.0,-106.0,-116.0,0
12.0,-203.0,-152.0,354.0,-101.0,-117.0,0
14.0,-208.0,-150.0,331.0,-91.0,-112.0,0
13.0,-203.0,-149.0,307.0,-79.0,-111.0,0
9.0,-203.0,-147.0,276.0,-63.0,-113.0,0
7.0,-203.0,-145.0,248.0,-45.0,-119.0,0
3.0,-204.0,-141.0,221.0,-32.0,-122.0,0
2.0,-204.0,-145.0,200.0,-19.0,-127.0,0
2.0,-207.0,-140.0,190.0,-9.0,-130.0,0
-3.0,-205.0,-133.0,188.0,3.0,-134.0,0
-4.0,-207.0,-137.0,193.0,16.0,-129.0,0
-2.0,-208.0,-136.0,198.0,30.0,-124.0,0
-1.0,-209.0,-135.0,207.0,41.0,-122.0,0
0.0,-208.0,-137.0,216.0,50.0,-124.0,0
2.0,-209.0,-132.0,230.0,54.0,-129.0,0
4.0,-209.0,-130.0,248.0,54.0,-133.0,0
3.0,-212.0,-135.0,261.0,52.0,-139.0,0
7.0,-211.0,-137.0,270.0,51.0,-141.0,0
7.0,-210.0,-132.0,274.0,45.0,-141.0,0
7.0,-210.0,-129.0,283.0,41.0,-141.0,0
9.0,-209.0,-127.0,291.0,37.0,-138.0,0
8.0,-205.0,-130.0,303.0,34.0,-139.0,0
9.0,-200.0,-127.0,312.0,36.0,-142.0,0
11.0,-200.0,-126.0,317.0,45.0,-141.0,0
12.0,-196.0,-126.0,316.0,57.0,-142.0,0
14.0,-197.0,-124.0,307.0,72.0,-144.0,0
18.0,-199.0,-120.0,299.0,92.0,-140.0,0
19.0,-201.0,-120.0,293.0,110.0,-139.0,0
20.0,-199.0,-118.0,286.0,127.0,-142.0,0
23.0,-206.0,-116.0,273.0,140.0,-144.0,0
23.0,-211.0,-119.0,260.0,147.0,-151.0,0
19.0,-211.0,-121.0,247.0,154.0,-159.0,0
16.0,-216.0,-123.0,230.0,156.0,-165.0,0
18.0,-215.0,-127.0,211.0,158.0,-169.0,0
17.0,-216.0,-128.0,203.0,164.0,-173.0,0
16.0,-212.0,-135.0,200.0,164.0,-176.0,0
11.0,-214.0,-134.0,203.0,163.0,-176.0,0
12.0,-211.0,-133.0,219.0,156.0,-177.0,0
10.0,-210.0,-128.0,250.0,145.0,-177.0,0
7.0,-213.0,-129.0,297.0,131.0,-178.0,0
4.0,-209.0,-121.0,350.0,115.0,-173.0,0
4.0,-213.0,-120.0,404.0,106.0,-168.0,0
0.0,-207.0,-116.0,443.0,106.0,-160.0,0
0.0,-211.0,-117.0,462.0,109.0,-151.0,0
5.0,-209.0,-114.0,461.0,108.0,-140.0,0
-1.0,-209.0,-113.0,442.0,100.0,-134.0,0
2.0,-205.0,-113.0,414.0,87.0,-126.0,0
-3.0,-206.0,-111.0,384.0,72.0,-119.0,0
-2.0,-209.0,-113.0,364.0,53.0,-117.0,0
-3.0,-209.0,-107.0,358.0,35.0,-112.0,0
0.0,-213.0,-110.0,369.0,22.0,-104.0,0
4.0,-215.0,-115.0,394.0,16.0,-93.0,0
6.0,-212.0,-117.0,414.0,22.0,-89.0,0
11.0,-211.0,-117.0,426.0,39.0,-90.0,0
13.0,-204.0,-117.0,432.0,57.0,-88.0,0
18.0,-204.0,-118.0,426.0,67.0,-85.0,0
20.0,-203.0,-119.0,431.0,64.0,-86.0,0
19.0,-203.0,-116.0,440.0,49.0,-89.0,0
21.0,-204.0,-113.0,445.0,36.0,-90.0,0
26.0,-205.0,-114.0,453.0,29.0,-92.0,0
24.0,-205.0,-111.0,462.0,32.0,-96.0,0
25.0,-208.0,-112.0,467.0,44.0,-96.0,0
28.0,-206.0,-115.0,470.0,59.0,-97.0,0
23.0,-202.0,-118.0,471.0,74.0,-103.0,0
24.0,-200.0,-114.0,459.0,87.0,-104.0,0
22.0,-199.0,-119.0,441.0,96.0,-99.0,0
21.0,-193.0,-114.0,421.0,100.0,-91.0,0
22.0,-193.0,-112.0,404.0,105.0,-83.0,0
24.0,-192.0,-108.0,386.0,112.0,-77.0,0
21.0,-191.0,-106.0,365.0,122.0,-69.0,0
21.0,-190.0,-102.0,350.0,131.0,-64.0,0
17.0,-192.0,-100.0,338.0,141.0,-53.0,0
18.0,-191.0,-103.0,325.0,144.0,-45.0,0
15.0,-198.0,-97.0,311.0,142.0,-38.0,0
14.0,-197.0,-102.0,301.0,129.0,-32.0,0
12.0,-199.0,-105.0,288.0,111.0,-27.0,0
13.0,-203.0,-102.0,284.0,95.0,-25.0,0
12.0,-207.0,-104.0,291.0,82.0,-22.0,0
12.0,-211.0,-104.0,307.0,76.0,-19.0,0
10.0,-213.0,-102.0,335.0,76.0,-18.0,0
7.0,-213.0,-107.0,366.0,82.0,-16.0,0
10.0,-213.0,-111.0,396.0,88.0,-10.0,0
12.0,-211.0,-112.0,420.0,93.0,-4.0,0
9.0,-206.0,-109.0,445.0,93.0,2.0,0
7.0,-207.0,-110.0,467.0,89.0,6.0,0
9.0,-207.0,-107.0,480.0,79.0,9.0,0
6.0,-202.0,-111.0,485.0,66.0,15.0,0
7.0,-202.0,-111.0,477.0,55.0,21.0,0
9.0,-199.0,-110.0,457.0,47.0,25.0,0
10.0,-203.0,-110.0,429.0,47.0,26.0,0
10.0,-200.0,-113.0,395.0,46.0,27.0,0
6.0,-198.0,-109.0,367.0,45.0,27.0,0
6.0,-199.0,-103.0,349.0,44.0,31.0,0
12.0,-205.0,-106.0,339.0,42.0,39.0,0
12.0,-208.0,-100.0,335.0,46.0,34.0,0
11.0,-211.0,-99.0,335.0,52.0,18.0,0
12.0,-214.0,-98.0,336.0,60.0,8.0,0
11.0,-215.0,-97.0,339.0,71.0,1.0,0
10.0,-216.0,-92.0,337.0,87.0,-7.0,0
6.0,-217.0,-97.0,335.0,104.0,-13.0,0
7.0,-217.0,-97.0,333.0,126.0,-14.0,0
5.0,-220.0,-97.0,330.0,148.0,-17.0,0
5.0,-221.0,-95.0,328.0,171.0,-19.0,0
6.0,-224.0,-95.0,326.0,192.0,-21.0,0
5.0,-224.0,-98.0,321.0,207.0,-21.0,0
9.0,-230.0,-97.0,317.0,214.0,-21.0,0
9.0,-229.0,-95.0,315.0,217.0,-21.0,0
5.0,-226.0,-94.0,318.0,212.0,-24.0,0
7.0,-233.0,-92.0,321.0,201.0,-26.0,0
8.0,-235.0,-91.0,324.0,185.0,-25.0,0
2.0,-238.0,-89.0,324.0,167.0,-22.0,0
3.0,-238.0,-85.0,329.0,148.0,-20.0,0
4.0,-240.0,-86.0,336.0,125.0,-21.0,0
-4.0,-243.0,-88.0,342.0,100.0,-21.0,0
4.0,-246.0,-85.0,347.0,74.0,-22.0,0
2.0,-244.0,-87.0,346.0,54.0,-20.0,0
5.0,-245.0,-91.0,337.0,34.0,-16.0,0
1.0,-249.0,-88.0,320.0,19.0,-11.0,0
5.0,-254.0,-91.0,300.0,5.0,-6.0,0
7.0,-251.0,-90.0,281.0,-11.0,8.0,0
7.0,-256.0,-92.0,267.0,-25.0,15.0,0
6.0,-256.0,-96.0,250.0,-29.0,3.0,0
6.0,-256.0,-98.0,234.0,-33.0,0.0,0
6.0,-256.0,-95.0,231.0,-37.0,2.0,0
6.0,-254.0,-93.0,234.0,-44.0,4.0,0
7.0,-253.0,-92.0,246.0,-56.0,2.0,0
5.0,-253.0,-93.0,258.0,-72.0,0.0,0
5.0,-252.0,-90.0,268.0,-86.0,-3.0,0
5.0,-248.0,-90.0,276.0,-98.0,-6.0,0
4.0,-247.0,-86.0,283.0,-106.0,-8.0,0
2.0,-249.0,-86.0,288.0,-113.0,-10.0,0
8.0,-247.0,-82.0,292.0,-120.0,-12.0,0
5.0,-249.0,-81.0,294.0,-123.0,-14.0,0
7.0,-246.0,-78.0,292.0,-126.0,-17.0,0
8.0,-247.0,-78.0,289.0,-126.0,-21.0,0
6.0,-248.0,-77.0,285.0,-122.0,-22.0,0
8.0,-248.0,-81.0,274.0,-118.0,-22.0,0
8.0,-247.0,-77.0,258.0,-116.0,-19.0,0
7.0,-247.0,-78.0,240.0,-119.0,-19.0,0
7.0,-249.0,-79.0,221.0,-129.0,-18.0,0
6.0,-249.0,-75.0,204.0,-143.0,-19.0,0
4.0,-248.0,-74.0,188.0,-160.0,-16.0,0
6.0,-251.0,-75.0,173.0,-177.0,-16.0,0
2.0,-249.0,-76.0,166.0,-197.0,-17.0,0
5.0,-251.0,-77.0,158.0,-219.0,-18.0,0
2.0,-248.0,-72.0,156.0,-238.0,-18.0,0
0.0,-251.0,-75.0,154.0,-256.0,-21.0,0
0.0,-252.0,-72.0,148.0,-270.0,-21.0,0
2.0,-252.0,-73.0,140.0,-279.0,-19.0,0
5.0,-251.0,-72.0,130.0,-284.0,-17.0,0
5.0,-254.0,-74.0,116.0,-287.0,-15.0,0
6.0,-250.0,-73.0,96.0,-289.0,-14.0,0
4.0,-250.0,-71.0,77.0,-291.0,-11.0,0
8.0,-252.0,-71.0,57.0,-292.0,-8.0,0
8.0,-249.0,-74.0,40.0,-297.0,-5.0,0
7.0,-250.0,-70.0,33.0,-304.0,-2.0,0
9.0,-251.0,-71.0,30.0,-311.0,-1.0,0
9.0,-250.0,-66.0,32.0,-319.0,1.0,0
10.0,-249.0,-73.0,35.0,-327.0,2.0,0
10.0,-253.0,-70.0,34.0,-334.0,7.0,0
10.0,-250.0,-70.0,35.0,-343.0,10.0,0
10.0,-248.0,-76.0,33.0,-352.0,12.0,0
12.0,-250.0,-74.0,35.0,-361.0,16.0,0
12.0,-251.0,-74.0,40.0,-371.0,16.0,0
9.0,-249.0,-73.0,54.0,-380.0,16.0,0
15.0,-253.0,-72.0,69.0,-390.0,20.0,0
10.0,-252.0,-70.0,81.0,-396.0,22.0,0
11.0,-251.0,-73.0,92.0,-399.0,23.0,0
13.0,-252.0,-68.0,102.0,-397.0,24.0,0
16.0,-252.0,-67.0,113.0,-391.0,25.0,0
13.0,-251.0,-63.0,124.0,-382.0,28.0,0
14.0,-252.0,-64.0,134.0,-375.0,29.0,0
14.0,-248.0,-63.0,139.0,-368.0,30.0,0
16.0,-251.0,-62.0,138.0,-360.0,32.0,0
14.0,-249.0,-65.0,135.0,-353.0,34.0,0
17.0,-251.0,-61.0,130.0,-347.0,36.0,0
15.0,-248.0,-66.0,123.0,-345.0,38.0,0
20.0,-249.0,-69.0,114.0,-344.0,40.0,0
18.0,-248.0,-68.0,107.0,-342.0,43.0,0
18.0,-252.0,-73.0,100.0,-338.0,42.0,0
22.0,-249.0,-71.0,95.0,-332.0,46.0,0
18.0,-250.0,-77.0,91.0,-324.0,48.0,0
18.0,-250.0,-73.0,88.0,-316.0,51.0,0
22.0,-252.0,-74.0,87.0,-311.0,53.0,0
23.0,-251.0,-74.0,90.0,-303.0,50.0,0
23.0,-253.0,-81.0,99.0,-295.0,45.0,0
22.0,-251.0,-75.0,105.0,-286.0,42.0,0
22.0,-252.0,-72.0,109.0,-272.0,39.0,0
22.0,-256.0,-74.0,110.0,-258.0,38.0,0
22.0,-256.0,-71.0,110.0,-242.0,34.0,0
14.0,-251.0,-67.0,107.0,-226.0,34.0,0
11.0,-252.0,-72.0,105.0,-216.0,40.0,0
7.0,-254.0,-71.0,100.0,-208.0,40.0,0
7.0,-252.0,-72.0,95.0,-208.0,38.0,0
6.0,-251.0,-67.0,91.0,-214.0,34.0,0
5.0,-248.0,-71.0,81.0,-225.0,25.0,0
9.0,-244.0,-67.0,66.0,-243.0,16.0,0
9.0,-243.0,-64.0,52.0,-261.0,6.0,0
15.0,-246.0,-70.0,35.0,-277.0,-4.0,0
20.0,-244.0,-66.0,18.0,-285.0,-15.0,0
20.0,-245.0,-63.0,1.0,-285.0,-23.0,0
22.0,-247.0,-64.0,-13.0,-276.0,-29.0,0
23.0,-249.0,-63.0,-27.0,-264.0,-31.0,0
25.0,-252.0,-65.0,-35.0,-247.0,-32.0,0
30.0,-252.0,-64.0,-40.0,-232.0,-39.0,0
30.0,-252.0,-65.0,-43.0,-215.0,-51.0,0
27.0,-252.0,-62.0,-49.0,-195.0,-53.0,0
27.0,-251.0,-66.0,-53.0,-176.0,-53.0,0
24.0,-254.0,-61.0,-53.0,-160.0,-57.0,0
26.0,-256.0,-66.0,-52.0,-149.0,-61.0,0
24.0,-251.0,-62.0,-44.0,-143.0,-64.0,0
18.0,-251.0,-66.0,-38.0,-135.0,-66.0,0
16.0,-249.0,-64.0,-33.0,-127.0,-71.0,0
15.0,-248.0,-64.0,-29.0,-120.0,-79.0,0
12.0,-249.0,-64.0,-26.0,-113.0,-83.0,0
12.0,-248.0,-65.0,-24.0,-104.0,-88.0,0
18.0,-250.0,-68.0,-24.0,-93.0,-90.0,0
14.0,-248.0,-63.0,-25.0,-81.0,-93.0,0
13.0,-249.0,-63.0,-25.0,-63.0,-93.0,0
11.0,-249.0,-58.0,-27.0,-47.0,-94.0,0
8.0,-250.0,-58.0,-31.0,-33.0,-95.0,0
7.0,-249.0,-58.0,-34.0,-23.0,-92.0,0
11.0,-253.0,-58.0,-36.0,-10.0,-88.0,0
4.0,-250.0,-58.0,-35.0,4.0,-81.0,0
3.0,-251.0,-57.0,-39.0,14.0,-73.0,0
-5.0,-252.0,-56.0,-42.0,18.0,-61.0,0
-9.0,-247.0,-54.0,-50.0,6.0,-49.0,0
-6.0,-246.0,-57.0,-55.0,-15.0,-29.0,0
3.0,-250.0,-59.0,-57.0,-36.0,-1.0,0
9.0,-257.0,-62.0,-58.0,-46.0,17.0,0
8.0,-262.0,-58.0,-61.0,-48.0,22.0,0
10.0,-263.0,-57.0,-50.0,-47.0,30.0,0
9.0,-269.0,-58.0,-16.0,-46.0,39.0,0
9.0,-265.0,-59.0,31.0,-42.0,48.0,0
14.0,-267.0,-62.0,83.0,-39.0,54.0,0
17.0,-266.0,-58.0,131.0,-33.0,53.0,0
15.0,-259.0,-61.0,168.0,-29.0,52.0,0
16.0,-259.0,-61.0,195.0,-24.0,47.0,0
19.0,-261.0,-62.0,209.0,-19.0,43.0,0
19.0,-252.0,-65.0,209.0,-16.0,38.0,0
17.0,-254.0,-67.0,198.0,-15.0,33.0,0
15.0,-256.0,-65.0,178.0,-14.0,25.0,0
10.0,-254.0,-61.0,156.0,-20.0,17.0,0
12.0,-258.0,-61.0,138.0,-35.0,11.0,0
12.0,-257.0,-60.0,126.0,-49.0,8.0,0
19.0,-259.0,-55.0,122.0,-54.0,0.0,0
19.0,-254.0,-51.0,133.0,-50.0,-21.0,0
17.0,-248.0,-54.0,152.0,-31.0,-40.0,0
20.0,-247.0,-54.0,170.0,-10.0,-47.0,0
20.0,-247.0,-52.0,170.0,12.0,-44.0,0
22.0,-246.0,-56.0,163.0,37.0,-39.0,0
29.0,-246.0,-55.0,148.0,60.0,-36.0,0
34.0,-243.0,-53.0,130.0,83.0,-35.0,0
35.0,-247.0,-54.0,114.0,102.0,-33.0,0
34.0,-245.0,-54.0,101.0,117.0,-28.0,0
32.0,-247.0,-54.0,95.0,127.0,-21.0,0
30.0,-247.0,-51.0,90.0,130.0,-10.0,0
29.0,-249.0,-57.0,89.0,123.0,1.0,0
25.0,-250.0,-57.0,90.0,115.0,7.0,0
21.0,-254.0,-58.0,100.0,104.0,11.0,0
12.0,-257.0,-56.0,116.0,92.0,15.0,0
7.0,-257.0,-53.0,135.0,75.0,18.0,0
7.0,-256.0,-55.0,157.0,59.0,22.0,0
6.0,-259.0,-52.0,179.0,44.0,29.0,0
5.0,-257.0,-50.0,203.0,32.0,36.0,0
3.0,-257.0,-44.0,224.0,22.0,41.0,0
7.0,-257.0,-45.0,236.0,19.0,43.0,0
7.0,-256.0,-50.0,236.0,20.0,44.0,0
13.0,-258.0,-51.0,229.0,25.0,43.0,0
12.0,-258.0,-50.0,213.0,32.0,39.0,0
15.0,-257.0,-48.0,196.0,42.0,37.0,0
13.0,-261.0,-51.0,180.0,53.0,34.0,0
-17.0,-243.0,-36.0,164.0,61.0,32.0,0
14.0,-265.0,-49.0,167.0,61.0,61.0,0
4.0,-256.0,-44.0,151.0,71.0,39.0,0
-1.0,-255.0,-44.0,137.0,70.0,26.0,0
-1.0,-250.0,-41.0,124.0,64.0,32.0,0
2.0,-250.0,-42.0,107.0,52.0,35.0,0
10.0,-249.0,-43.0,85.0,39.0,28.0,0
15.0,-249.0,-42.0,56.0,33.0,18.0,0
15.0,-248.0,-44.0,23.0,34.0,7.0,0
16.0,-246.0,-49.0,-9.0,42.0,-2.0,0
12.0,-249.0,-51.0,-30.0,52.0,-8.0,0
17.0,-251.0,-53.0,-44.0,62.0,-14.0,0
16.0,-252.0,-52.0,-47.0,78.0,-18.0,0
14.0,-255.0,-51.0,-38.0,92.0,-21.0,0
12.0,-255.0,-47.0,-18.0,107.0,-24.0,0
11.0,-257.0,-48.0,9.0,120.0,-28.0,0
13.0,-258.0,-51.0,42.0,127.0,-30.0,0
11.0,-254.0,-52.0,77.0,131.0,-32.0,0
12.0,-261.0,-51.0,109.0,129.0,-36.0,0
13.0,-258.0,-48.0,136.0,124.0,-39.0,0
11.0,-260.0,-48.0,159.0,114.0,-43.0,0
14.0,-257.0,-46.0,177.0,101.0,-47.0,0
17.0,-259.0,-44.0,188.0,87.0,-49.0,0
13.0,-255.0,-44.0,199.0,74.0,-53.0,0
15.0,-256.0,-45.0,206.0,65.0,-55.0,0
11.0,-254.0,-43.0,209.0,57.0,-56.0,0
14.0,-257.0,-37.0,210.0,54.0,-54.0,0
14.0,-256.0,-43.0,205.0,50.0,-53.0,0
15.0,-255.0,-41.0,196.0,47.0,-50.0,0
11.0,-254.0,-41.0,188.0,44.0,-46.0,0
13.0,-251.0,-41.0,182.0,43.0,-39.0,0
13.0,-252.0,-42.0,174.0,43.0,-31.0,0
17.0,-254.0,-43.0,171.0,43.0,-26.0,0
14.0,-252.0,-49.0,173.0,44.0,-21.0,0
14.0,-252.0,-50.0,180.0,45.0,-16.0,0
16.0,-255.0,-46.0,193.0,46.0,-12.0,0
11.0,-254.0,-50.0,210.0,44.0,-11.0,0
13.0,-253.0,-44.0,222.0,41.0,-12.0,0
10.0,-251.0,-41.0,224.0,39.0,-15.0,0
10.0,-250.0,-42.0,221.0,40.0,-19.0,0
13.0,-254.0,-37.0,217.0,43.0,-27.0,0
11.0,-250.0,-36.0,216.0,47.0,-33.0,0
13.0,-253.0,-36.0,216.0,52.0,-38.0,0
13.0,-253.0,-39.0,212.0,61.0,-43.0,0
14.0,-251.0,-40.0,203.0,71.0,-49.0,0
16.0,-249.0,-41.0,194.0,82.0,-52.0,0
19.0,-249.0,-34.0,181.0,95.0,-53.0,0
17.0,-251.0,-35.0,167.0,105.0,-53.0,0
18.0,-252.0,-39.0,155.0,111.0,-53.0,0
22.0,-252.0,-40.0,146.0,117.0,-53.0,0
23.0,-251.0,-40.0,143.0,123.0,-55.0,0
23.0,-254.0,-36.0,143.0,130.0,-56.0,0
22.0,-252.0,-32.0,145.0,141.0,-57.0,0
20.0,-256.0,-35.0,148.0,149.0,-60.0,0
20.0,-254.0,-35.0,148.0,156.0,-61.0,0
21.0,-254.0,-37.0,143.0,162.0,-64.0,0
19.0,-253.0,-32.0,140.0,166.0,-67.0,0
17.0,-253.0,-33.0,134.0,171.0,-68.0,0
12.0,-250.0,-31.0,128.0,175.0,-68.0,0
15.0,-255.0,-35.0,130.0,177.0,-61.0,0
16.0,-252.0,-31.0,130.0,180.0,-62.0,0
18.0,-253.0,-31.0,131.0,181.0,-67.0,0
16.0,-253.0,-33.0,131.0,183.0,-69.0,0
12.0,-252.0,-28.0,127.0,183.0,-68.0,0
12.0,-254.0,-29.0,120.0,182.0,-68.0,0
16.0,-252.0,-30.0,113.0,181.0,-66.0,0
14.0,-252.0,-27.0,107.0,179.0,-65.0,0
15.0,-250.0,-33.0,99.0,178.0,-63.0,0
14.0,-252.0,-29.0,95.0,179.0,-61.0,0
16.0,-250.0,-31.0,89.0,182.0,-57.0,0
16.0,-250.0,-31.0,81.0,182.0,-57.0,0
14.0,-248.0,-28.0,75.0,185.0,-54.0,0
17.0,-251.0,-23.0,71.0,187.0,-52.0,0
18.0,-252.0,-27.0,65.0,189.0,-49.0,0
16.0,-250.0,-26.0,60.0,191.0,-48.0,0
15.0,-253.0,-25.0,57.0,194.0,-46.0,0
15.0,-254.0,-23.0,56.0,201.0,-46.0,0
20.0,-254.0,-19.0,57.0,206.0,-45.0,0
16.0,-253.0,-20.0,57.0,216.0,-44.0,0
17.0,-253.0,-19.0,53.0,225.0,-44.0,0
19.0,-254.0,-21.0,49.0,232.0,-43.0,0
17.0,-251.0,-24.0,43.0,237.0,-42.0,0
16.0,-255.0,-25.0,38.0,240.0,-43.0,0
19.0,-252.0,-25.0,32.0,244.0,-42.0,0
16.0,-254.0,-29.0,32.0,248.0,-44.0,0
16.0,-254.0,-21.0,34.0,250.0,-46.0,0
17.0,-253.0,-25.0,41.0,254.0,-46.0,0
17.0,-252.0,-20.0,49.0,256.0,-45.0,0
15.0,-251.0,-23.0,57.0,254.0,-45.0,0
12.0,-249.0,-24.0,63.0,250.0,-46.0,0
20.0,-252.0,-22.0,66.0,247.0,-44.0,0
20.0,-249.0,-22.0,66.0,247.0,-42.0,0
21.0,-251.0,-21.0,65.0,248.0,-38.0,0
18.0,-247.0,-22.0,60.0,248.0,-37.0,0
16.0,-249.0,-21.0,53.0,251.0,-35.0,0
19.0,-250.0,-17.0,49.0,255.0,-34.0,0
21.0,-251.0,-18.0,47.0,260.0,-31.0,0
10.0,-254.0,-4.0,50.0,264.0,-32.0,0
18.0,-252.0,-17.0,51.0,267.0,-31.0,0
17.0,-254.0,-18.0,52.0,269.0,-33.0,0
17.0,-251.0,-19.0,52.0,270.0,-32.0,0
19.0,-249.0,-15.0,50.0,270.0,-33.0,0
16.0,-250.0,-20.0,49.0,269.0,-34.0,0
17.0,-251.0,-15.0,46.0,268.0,-34.0,0
17.0,-250.0,-17.0,44.0,267.0,-33.0,0
16.0,-248.0,-13.0,45.0,268.0,-32.0,0
19.0,-250.0,-20.0,48.0,268.0,-32.0,0
7.0,-245.0,-22.0,51.0,269.0,-32.0,0
16.0,-248.0,-19.0,51.0,268.0,-30.0,0
19.0,-251.0,-11.0,46.0,266.0,-29.0,0
20.0,-252.0,-20.0,40.0,265.0,-29.0,0
20.0,-250.0,-14.0,33.0,265.0,-30.0,0
21.0,-251.0,-13.0,24.0,267.0,-30.0,0
20.0,-250.0,-14.0,16.0,271.0,-29.0,0
23.0,-251.0,-13.0,14.0,271.0,-30.0,0
21.0,-252.0,-8.0,12.0,270.0,-30.0,0
25.0,-252.0,-11.0,13.0,268.0,-31.0,0
22.0,-251.0,-14.0,15.0,267.0,-32.0,0
26.0,-262.0,-6.0,18.0,264.0,-33.0,0
21.0,-249.0,-12.0,23.0,262.0,-34.0,0
26.0,-253.0,-12.0,32.0,259.0,-44.0,0
19.0,-251.0,-12.0,58.0,253.0,-70.0,0
19.0,-252.0,-19.0,60.0,255.0,-58.0,0
19.0,-250.0,-18.0,45.0,257.0,-43.0,0
22.0,-250.0,-19.0,21.0,258.0,-39.0,0
19.0,-248.0,-15.0,-1.0,257.0,-40.0,0
21.0,-248.0,-19.0,-17.0,259.0,-43.0,0
23.0,-249.0,-13.0,-30.0,261.0,-46.0,0
22.0,-249.0,-14.0,-38.0,264.0,-47.0,0
22.0,-242.0,-28.0,-41.0,267.0,-48.0,0
21.0,-249.0,-19.0,-45.0,267.0,-50.0,0
23.0,-249.0,-19.0,-51.0,267.0,-48.0,0
24.0,-250.0,-19.0,-55.0,267.0,-48.0,0
24.0,-252.0,-22.0,-60.0,267.0,-52.0,0
25.0,-251.0,-14.0,-63.0,265.0,-51.0,0
24.0,-252.0,-17.0,-66.0,265.0,-51.0,0
20.0,-250.0,-18.0,-67.0,264.0,-51.0,0
23.0,-252.0,-14.0,-66.0,264.0,-53.0,0
22.0,-250.0,-19.0,-65.0,265.0,-53.0,0
22.0,-250.0,-20.0,-65.0,264.0,-54.0,0
30.0,-258.0,3.0,-63.0,261.0,-54.0,0
20.0,-248.0,-16.0,-64.0,259.0,-55.0,0
20.0,-253.0,-19.0,-60.0,257.0,-56.0,0
23.0,-252.0,-15.0,-55.0,257.0,-57.0,0
19.0,-251.0,-15.0,-50.0,256.0,-56.0,0
19.0,-251.0,-15.0,-43.0,255.0,-54.0,0
20.0,-254.0,-11.0,-35.0,251.0,-54.0,0
17.0,-255.0,-13.0,-29.0,245.0,-52.0,0
22.0,-254.0,-17.0,-23.0,240.0,-51.0,0
22.0,-255.0,-15.0,-16.0,235.0,-50.0,0
20.0,-252.0,-16.0,-13.0,230.0,-49.0,0
27.0,-248.0,-27.0,-15.0,227.0,-47.0,0
21.0,-252.0,-16.0,-20.0,222.0,-45.0,0
19.0,-253.0,-14.0,-28.0,221.0,-43.0,0
21.0,-252.0,-14.0,-36.0,224.0,-45.0,0
20.0,-252.0,-9.0,-39.0,224.0,-45.0,0
20.0,-250.0,-14.0,-42.0,228.0,-48.0,0
21.0,-252.0,-13.0,-46.0,227.0,-48.0,0
20.0,-251.0,-13.0,-44.0,228.0,-48.0,0
21.0,-251.0,-11.0,-46.0,225.0,-47.0,0
21.0,-249.0,-9.0,-46.0,222.0,-45.0,0
21.0,-249.0,-10.0,-48.0,217.0,-43.0,0
26.0,-256.0,-7.0,-47.0,209.0,-41.0,0
20.0,-251.0,-14.0,-46.0,204.0,-38.0,0
21.0,-252.0,-16.0,-39.0,199.0,-36.0,0
16.0,-248.0,-14.0,-36.0,197.0,-34.0,0
18.0,-250.0,-20.0,-33.0,190.0,-31.0,0
21.0,-249.0,-19.0,-35.0,183.0,-30.0,0
17.0,-248.0,-22.0,-45.0,177.0,-30.0,0
21.0,-249.0,-19.0,-58.0,174.0,-28.0,0
18.0,-248.0,-13.0,-74.0,173.0,-28.0,0
17.0,-249.0,-16.0,-82.0,174.0,-26.0,0
23.0,-250.0,-15.0,-86.0,175.0,-23.0,0
26.0,-253.0,-1.0,-88.0,171.0,-24.0,0
19.0,-250.0,-13.0,-88.0,169.0,-25.0,0
20.0,-253.0,-11.0,-87.0,165.0,-25.0,0
16.0,-251.0,-12.0,-85.0,163.0,-26.0,0
19.0,-254.0,-11.0,-83.0,163.0,-26.0,0
17.0,-254.0,-13.0,-78.0,162.0,-27.0,0
16.0,-253.0,-19.0,-73.0,161.0,-26.0,0
18.0,-252.0,-16.0,-72.0,160.0,-28.0,0
17.0,-252.0,-15.0,-72.0,156.0,-26.0,0
18.0,-252.0,-15.0,-72.0,153.0,-26.0,0
19.0,-252.0,-13.0,-74.0,149.0,-24.0,0
26.0,-252.0,-24.0,-77.0,145.0,-25.0,0
18.0,-254.0,-19.0,-82.0,141.0,-24.0,0
18.0,-256.0,-23.0,-84.0,142.0,-24.0,0
19.0,-252.0,-21.0,-88.0,141.0,-23.0,0
19.0,-256.0,-24.0,-89.0,141.0,-21.0,0
21.0,-252.0,-23.0,-91.0,140.0,-22.0,0
17.0,-254.0,-20.0,-95.0,139.0,-23.0,0
19.0,-254.0,-24.0,-96.0,137.0,-24.0,0
20.0,-254.0,-28.0,-98.0,138.0,-27.0,0
20.0,-256.0,-23.0,-100.0,140.0,-28.0,0
19.0,-256.0,-26.0,-101.0,141.0,-29.0,0
20.0,-259.0,-30.0,-96.0,142.0,-31.0,0
19.0,-254.0,-22.0,-93.0,143.0,-32.0,0
17.0,-252.0,-25.0,-89.0,143.0,-33.0,0
20.0,-255.0,-23.0,-85.0,141.0,-35.0,0
23.0,-254.0,-23.0,-82.0,137.0,-36.0,0
20.0,-256.0,-23.0,-78.0,135.0,-37.0,0
20.0,-256.0,-25.0,-74.0,132.0,-38.0,0
18.0,-257.0,-24.0,-71.0,128.0,-37.0,0
19.0,-258.0,-18.0,-64.0,122.0,-37.0,0
18.0,-260.0,-21.0,-61.0,118.0,-35.0,0
18.0,-252.0,-12.0,-56.0,114.0,-35.0,0
21.0,-258.0,-20.0,-52.0,112.0,-35.0,0
18.0,-254.0,-23.0,-47.0,112.0,-38.0,0
15.0,-256.0,-23.0,-42.0,112.0,-39.0,0
15.0,-256.0,-22.0,-40.0,110.0,-40.0,0
16.0,-254.0,-16.0,-40.0,106.0,-38.0,0
20.0,-255.0,-22.0,-38.0,102.0,-37.0,0
15.0,-251.0,-18.0,-35.0,98.0,-36.0,0
18.0,-251.0,-20.0,-33.0,92.0,-34.0,0
18.0,-253.0,-19.0,-32.0,88.0,-32.0,0
18.0,-252.0,-22.0,-28.0,86.0,-30.0,0
19.0,-253.0,-14.0,-21.0,84.0,-28.0,0
18.0,-255.0,-25.0,-15.0,84.0,-26.0,0
19.0,-251.0,-20.0,-10.0,80.0,-27.0,0
17.0,-251.0,-21.0,-8.0,76.0,-25.0,0
23.0,-254.0,-22.0,-12.0,73.0,-24.0,0
19.0,-251.0,-22.0,-18.0,70.0,-24.0,0
22.0,-251.0,-25.0,-22.0,68.0,-23.0,0
20.0,-253.0,-21.0,-25.0,69.0,-23.0,0
18.0,-249.0,-21.0,-27.0,70.0,-23.0,0
18.0,-252.0,-19.0,-24.0,71.0,-24.0,0
21.0,-252.0,-23.0,-20.0,71.0,-25.0,0
20.0,-252.0,-18.0,-16.0,71.0,-25.0,0
22.0,-254.0,-19.0,-10.0,73.0,-25.0,0
19.0,-254.0,-21.0,-6.0,73.0,-25.0,0
19.0,-252.0,-17.0,-3.0,72.0,-25.0,0
18.0,-251.0,-18.0,-2.0,67.0,-23.0,0
19.0,-253.0,-21.0,-2.0,64.0,-23.0,0
21.0,-256.0,-16.0,-3.0,59.0,-26.0,0
19.0,-251.0,-16.0,-2.0,56.0,-28.0,0
16.0,-251.0,-19.0,-2.0,53.0,-28.0,0
21.0,-252.0,-20.0,-2.0,52.0,-28.0,0
21.0,-253.0,-20.0,-1.0,49.0,-29.0,0
19.0,-252.0,-20.0,-1.0,45.0,-28.0,0
19.0,-254.0,-16.0,0.0,40.0,-28.0,0
18.0,-250.0,-18.0,1.0,38.0,-28.0,0
18.0,-253.0,-19.0,4.0,39.0,-27.0,0
18.0,-250.0,-17.0,4.0,41.0,-26.0,0
22.0,-254.0,-18.0,8.0,44.0,-26.0,0
18.0,-250.0,-13.0,10.0,47.0,-25.0,0
21.0,-249.0,-16.0,11.0,46.0,-24.0,0
22.0,-249.0,-15.0,9.0,45.0,-23.0,0
21.0,-250.0,-18.0,8.0,42.0,-22.0,0
20.0,-249.0,-19.0,4.0,39.0,-21.0,0
18.0,-248.0,-18.0,-3.0,37.0,-18.0,0
21.0,-250.0,-20.0,-9.0,36.0,-17.0,0
19.0,-250.0,-15.0,-15.0,35.0,-15.0,0
18.0,-251.0,-18.0,-19.0,36.0,-14.0,0
21.0,-254.0,-21.0,-19.0,33.0,-15.0,0
20.0,-255.0,-16.0,-18.0,30.0,-15.0,0
22.0,-252.0,-18.0,-14.0,31.0,-16.0,0
18.0,-254.0,-22.0,-12.0,28.0,-14.0,0
18.0,-254.0,-17.0,-10.0,29.0,-16.0,0
19.0,-254.0,-19.0,-7.0,31.0,-16.0,0
19.0,-253.0,-17.0,-8.0,31.0,-17.0,0
21.0,-252.0,-21.0,-11.0,32.0,-18.0,0
20.0,-254.0,-18.0,-15.0,31.0,-18.0,0
20.0,-253.0,-17.0,-17.0,29.0,-16.0,0
22.0,-253.0,-15.0,-26.0,26.0,-17.0,0
21.0,-252.0,-12.0,-30.0,22.0,-16.0,0
21.0,-253.0,-18.0,-34.0,21.0,-14.0,0
21.0,-251.0,-20.0,-38.0,20.0,-12.0,0
19.0,-251.0,-17.0,-41.0,18.0,-10.0,0
22.0,-253.0,-16.0,-43.0,17.0,-7.0,0
21.0,-250.0,-15.0,-46.0,16.0,-5.0,0
21.0,-252.0,-16.0,-48.0,14.0,-5.0,0
19.0,-252.0,-17.0,-51.0,13.0,-3.0,0
20.0,-249.0,-20.0,-56.0,12.0,-5.0,0
19.0,-253.0,-19.0,-60.0,14.0,-6.0,0
17.0,-253.0,-17.0,-61.0,13.0,-6.0,0
22.0,-258.0,-16.0,-59.0,13.0,-6.0,0
23.0,-254.0,-17.0,-56.0,12.0,-7.0,0
22.0,-252.0,-17.0,-50.0,9.0,-8.0,0
21.0,-252.0,-20.0,-46.0,7.0,-9.0,0
20.0,-255.0,-14.0,-44.0,5.0,-9.0,0
24.0,-253.0,-15.0,-41.0,3.0,-8.0,0
20.0,-253.0,-16.0,-39.0,-1.0,-8.0,0
22.0,-254.0,-12.0,-38.0,-4.0,-8.0,0
20.0,-252.0,-12.0,-39.0,-5.0,-6.0,0
22.0,-251.0,-14.0,-36.0,-6.0,-7.0,0
22.0,-254.0,-15.0,-33.0,-7.0,-6.0,0
17.0,-253.0,-18.0,-29.0,-6.0,-3.0,0
20.0,-249.0,-11.0,-26.0,-4.0,-3.0,0
21.0,-251.0,-17.0,-27.0,-4.0,0.0,0
19.0,-249.0,-12.0,-29.0,-5.0,1.0,0
18.0,-251.0,-15.0,-32.0,-7.0,1.0,0
20.0,-251.0,-16.0,-33.0,-10.0,2.0,0
20.0,-249.0,-20.0,-34.0,-14.0,5.0,0
18.0,-249.0,-18.0,-34.0,-19.0,6.0,0
21.0,-250.0,-18.0,-35.0,-24.0,7.0,0
24.0,-250.0,-19.0,-36.0,-29.0,8.0,0
20.0,-250.0,-26.0,-42.0,-32.0,6.0,0
22.0,-250.0,-30.0,-51.0,-35.0,8.0,0
22.0,-254.0,-18.0,-60.0,-32.0,7.0,0
21.0,-253.0,-18.0,-63.0,-29.0,7.0,0
22.0,-253.0,-16.0,-57.0,-25.0,7.0,0
21.0,-254.0,-16.0,-48.0,-21.0,6.0,0
24.0,-255.0,-15.0,-38.0,-20.0,4.0,0
23.0,-255.0,-14.0,-29.0,-17.0,3.0,0
22.0,-255.0,-12.0,-21.0,-15.0,3.0,0
24.0,-250.0,-17.0,-15.0,-14.0,3.0,0
23.0,-252.0,-17.0,-12.0,-13.0,4.0,0
23.0,-250.0,-17.0,-13.0,-15.0,5.0,0
23.0,-253.0,-16.0,-18.0,-18.0,4.0,0
19.0,-251.0,-17.0,-23.0,-21.0,4.0,0
22.0,-251.0,-18.0,-26.0,-24.0,6.0,0
21.0,-251.0,-17.0,-26.0,-26.0,6.0,0
22.0,-251.0,-16.0,-25.0,-27.0,5.0,0
18.0,-249.0,-17.0,-24.0,-28.0,6.0,0
19.0,-251.0,-14.0,-22.0,-28.0,8.0,0
23.0,-253.0,-15.0,-20.0,-29.0,9.0,0
21.0,-255.0,-18.0,-16.0,-33.0,11.0,0
17.0,-250.0,-13.0,-12.0,-36.0,13.0,0
19.0,-253.0,-14.0,-9.0,-38.0,14.0,0
20.0,-254.0,-17.0,-10.0,-38.0,15.0,0
19.0,-252.0,-14.0,-11.0,-40.0,12.0,0
20.0,-252.0,-13.0,-11.0,-41.0,12.0,0
21.0,-253.0,-15.0,-11.0,-44.0,11.0,0
22.0,-249.0,-16.0,-10.0,-43.0,10.0,0
22.0,-252.0,-17.0,-11.0,-43.0,11.0,0
18.0,-254.0,-16.0,-11.0,-42.0,12.0,0
19.0,-252.0,-14.0,-10.0,-40.0,12.0,0
20.0,-253.0,-16.0,-10.0,-39.0,13.0,0
21.0,-251.0,-13.0,-9.0,-38.0,16.0,0
25.0,-256.0,-13.0,-6.0,-39.0,15.0,0
22.0,-253.0,-13.0,-2.0,-38.0,15.0,0
21.0,-252.0,-15.0,3.0,-36.0,16.0,0
23.0,-252.0,-15.0,4.0,-32.0,16.0,0
20.0,-250.0,-15.0,4.0,-28.0,17.0,0
24.0,-252.0,-13.0,2.0,-26.0,17.0,0
21.0,-251.0,-15.0,-1.0,-24.0,16.0,0
22.0,-253.0,-15.0,-5.0,-24.0,17.0,0
22.0,-251.0,-10.0,-11.0,-25.0,15.0,0
19.0,-251.0,-15.0,-22.0,-25.0,11.0,0
25.0,-252.0,-10.0,-31.0,-27.0,11.0,0
23.0,-252.0,-14.0,-39.0,-31.0,12.0,0
24.0,-254.0,-10.0,-44.0,-33.0,11.0,0
25.0,-253.0,-10.0,-43.0,-37.0,12.0,0
24.0,-253.0,-13.0,-35.0,-38.0,12.0,0
25.0,-256.0,-6.0,-19.0,-37.0,12.0,0
24.0,-253.0,-8.0,-4.0,-36.0,11.0,0
21.0,-252.0,-13.0,7.0,-35.0,10.0,0
24.0,-251.0,-11.0,15.0,-34.0,8.0,0
22.0,-251.0,-12.0,14.0,-31.0,8.0,0
21.0,-249.0,-12.0,7.0,-25.0,8.0,0
22.0,-250.0,-13.0,-5.0,-17.0,6.0,0
20.0,-249.0,-11.0,-18.0,-11.0,4.0,0
25.0,-251.0,-9.0,-31.0,-5.0,2.0,0
22.0,-250.0,-18.0,-42.0,0.0,1.0,0
22.0,-249.0,-11.0,-46.0,3.0,-1.0,0
26.0,-251.0,-11.0,-50.0,7.0,-1.0,0
22.0,-250.0,-9.0,-52.0,7.0,-2.0,0
22.0,-252.0,-7.0,-52.0,8.0,-2.0,0
24.0,-252.0,-11.0,-55.0,8.0,-1.0,0
23.0,-250.0,-12.0,-56.0,8.0,-2.0,0
21.0,-249.0,-15.0,-60.0,5.0,-2.0,0
25.0,-250.0,-14.0,-66.0,4.0,-2.0,0
22.0,-251.0,-12.0,-69.0,2.0,-2.0,0
21.0,-254.0,-12.0,-70.0,0.0,-2.0,0
22.0,-251.0,-12.0,-70.0,-3.0,-1.0,0
22.0,-253.0,-12.0,-70.0,-2.0,-2.0,0
19.0,-254.0,-15.0,-67.0,-2.0,-2.0,0
21.0,-251.0,-14.0,-61.0,-1.0,-2.0,0
21.0,-252.0,-14.0,-56.0,1.0,-3.0,0
20.0,-253.0,-14.0,-51.0,2.0,-4.0,0
19.0,-251.0,-12.0,-50.0,4.0,-3.0,0
17.0,-250.0,-12.0,-47.0,6.0,-4.0,0
21.0,-250.0,-12.0,-48.0,8.0,-4.0,0
19.0,-249.0,-13.0,-54.0,7.0,-4.0,0
22.0,-248.0,-14.0,-59.0,8.0,-4.0,0
22.0,-251.0,-17.0,-63.0,9.0,-3.0,0
22.0,-253.0,-14.0,-67.0,9.0,-4.0,0
21.0,-252.0,-13.0,-72.0,8.0,-4.0,0
20.0,-252.0,-14.0,-72.0,8.0,-5.0,0
21.0,-252.0,-14.0,-68.0,6.0,-4.0,0
23.0,-254.0,-11.0,-65.0,1.0,-4.0,0
19.0,-251.0,-16.0,-58.0,-3.0,-3.0,0
21.0,-253.0,-12.0,-55.0,-6.0,-6.0,0
21.0,-253.0,-15.0,-52.0,-7.0,-4.0,0
20.0,-250.0,-18.0,-47.0,-9.0,-5.0,0
19.0,-251.0,-13.0,-42.0,-8.0,-5.0,0
19.0,-251.0,-15.0,-38.0,-8.0,-5.0,0
20.0,-251.0,-14.0,-37.0,-8.0,-4.0,0
21.0,-253.0,-10.0,-36.0,-7.0,-3.0,0
17.0,-251.0,-14.0,-39.0,-6.0,-3.0,0
22.0,-249.0,-11.0,-42.0,-4.0,-2.0,0
19.0,-252.0,-15.0,-45.0,-3.0,-2.0,0
21.0,-254.0,-13.0,-48.0,-2.0,0.0,0
21.0,-252.0,-12.0,-51.0,0.0,2.0,0
20.0,-253.0,-12.0,-50.0,1.0,2.0,0
21.0,-252.0,-14.0,-52.0,3.0,3.0,0
18.0,-253.0,-12.0,-54.0,5.0,5.0,0
20.0,-251.0,-12.0,-57.0,6.0,6.0,0
21.0,-252.0,-10.0,-59.0,7.0,6.0,0
22.0,-250.0,-11.0,-62.0,8.0,8.0,0
21.0,-252.0,-12.0,-62.0,9.0,5.0,0
20.0,-250.0,-13.0,-63.0,11.0,6.0,0
22.0,-252.0,-15.0,-61.0,11.0,4.0,0
20.0,-252.0,-16.0,-61.0,11.0,4.0,0
22.0,-252.0,-13.0,-59.0,12.0,6.0,0
21.0,-251.0,-9.0,-58.0,13.0,5.0,0
20.0,-250.0,-16.0,-56.0,13.0,8.0,0
23.0,-252.0,-13.0,-55.0,14.0,8.0,0
20.0,-253.0,-8.0,-52.0,14.0,8.0,0
21.0,-251.0,-15.0,-51.0,15.0,7.0,0
20.0,-251.0,-16.0,-52.0,15.0,7.0,0
22.0,-252.0,-14.0,-55.0,17.0,7.0,0
17.0,-249.0,-10.0,-59.0,16.0,9.0,0
20.0,-249.0,-13.0,-64.0,16.0,8.0,0
18.0,-252.0,-14.0,-71.0,15.0,8.0,0
22.0,-250.0,-11.0,-74.0,14.0,8.0,0
19.0,-253.0,-13.0,-74.0,12.0,8.0,0
17.0,-252.0,-15.0,-64.0,9.0,10.0,0
15.0,-254.0,-11.0,-48.0,8.0,10.0,0
19.0,-253.0,-18.0,-32.0,5.0,11.0,0
19.0,-252.0,-18.0,-19.0,3.0,10.0,0
23.0,-252.0,-21.0,-16.0,0.0,8.0,0
17.0,-250.0,-21.0,-26.0,-2.0,6.0,0
22.0,-254.0,-17.0,-47.0,2.0,5.0,0
21.0,-251.0,-14.0,-62.0,7.0,1.0,0
17.0,-250.0,-17.0,-67.0,10.0,2.0,0
19.0,-250.0,-13.0,-60.0,10.0,5.0,0
19.0,-250.0,-11.0,-59.0,11.0,6.0,0
17.0,-251.0,-11.0,-60.0,9.0,4.0,0
18.0,-251.0,-13.0,-60.0,6.0,2.0,0
21.0,-251.0,-15.0,-60.0,2.0,3.0,0
22.0,-252.0,-11.0,-57.0,1.0,5.0,0
23.0,-253.0,-14.0,-52.0,3.0,5.0,0
22.0,-253.0,-15.0,-53.0,2.0,5.0,0
22.0,-251.0,-13.0,-55.0,1.0,6.0,0
19.0,-253.0,-18.0,-53.0,1.0,6.0,0
18.0,-250.0,-18.0,-53.0,0.0,8.0,0
18.0,-253.0,-17.0,-52.0,-1.0,8.0,0
21.0,-252.0,-16.0,-51.0,-4.0,8.0,0
22.0,-251.0,-18.0,-49.0,-6.0,7.0,0
23.0,-253.0,-17.0,-47.0,-9.0,7.0,0
19.0,-251.0,-13.0,-46.0,-11.0,7.0,0
21.0,-252.0,-12.0,-45.0,-14.0,9.0,0
20.0,-253.0,-15.0,-43.0,-13.0,8.0,0
19.0,-252.0,-13.0,-44.0,-15.0,8.0,0
23.0,-251.0,-13.0,-45.0,-13.0,7.0,0
22.0,-256.0,-17.0,-45.0,-13.0,7.0,0
21.0,-250.0,-11.0,-47.0,-13.0,6.0,0
24.0,-253.0,-13.0,-47.0,-11.0,5.0,0
22.0,-252.0,-17.0,-46.0,-9.0,5.0,0
22.0,-250.0,-17.0,-47.0,-7.0,6.0,0
19.0,-252.0,-17.0,-47.0,-3.0,7.0,0
22.0,-251.0,-17.0,-47.0,-1.0,8.0,0
21.0,-253.0,-15.0,-46.0,-2.0,6.0,0
21.0,-252.0,-17.0,-43.0,-4.0,9.0,0
22.0,-253.0,-13.0,-42.0,-7.0,7.0,0
23.0,-250.0,-9.0,-41.0,-8.0,6.0,0
24.0,-252.0,-18.0,-39.0,-9.0,6.0,0
24.0,-252.0,-13.0,-39.0,-12.0,5.0,0
24.0,-251.0,-14.0,-40.0,-14.0,4.0,0
25.0,-254.0,-15.0,-38.0,-15.0,3.0,0
21.0,-252.0,-12.0,-38.0,-16.0,1.0,0
22.0,-253.0,-13.0,-35.0,-14.0,-1.0,0
19.0,-250.0,-15.0,-30.0,-13.0,0.0,0
21.0,-250.0,-16.0,-28.0,-10.0,-1.0,0
23.0,-249.0,-15.0,-25.0,-6.0,-2.0,0
19.0,-251.0,-16.0,-24.0,-2.0,-2.0,0
21.0,-251.0,-15.0,-29.0,3.0,-3.0,0
21.0,-253.0,-12.0,-33.0,8.0,-3.0,0
21.0,-250.0,-14.0,-39.0,12.0,-4.0,0
20.0,-253.0,-16.0,-45.0,17.0,-4.0,0
26.0,-250.0,-14.0,-51.0,19.0,-5.0,0
20.0,-252.0,-16.0,-53.0,20.0,-4.0,0
20.0,-251.0,-16.0,-55.0,21.0,-5.0,0
20.0,-250.0,-11.0,-56.0,20.0,-7.0,0
22.0,-250.0,-14.0,-59.0,21.0,-6.0,0
18.0,-253.0,-13.0,-58.0,20.0,-8.0,0
20.0,-253.0,-16.0,-57.0,19.0,-9.0,0
23.0,-252.0,-12.0,-54.0,18.0,-11.0,0
22.0,-254.0,-16.0,-51.0,18.0,-12.0,0
23.0,-248.0,-16.0,-46.0,16.0,-13.0,0
22.0,-253.0,-20.0,-41.0,16.0,-13.0,0
22.0,-254.0,-16.0,-40.0,15.0,-15.0,0
23.0,-254.0,-15.0,-39.0,15.0,-12.0,0
18.0,-253.0,-15.0,-38.0,14.0,-13.0,0
22.0,-254.0,-14.0,-37.0,12.0,-12.0,0
22.0,-253.0,-11.0,-39.0,11.0,-12.0,0
18.0,-252.0,-14.0,-41.0,9.0,-12.0,0
17.0,-251.0,-15.0,-44.0,9.0,-13.0,0
22.0,-252.0,-18.0,-47.0,10.0,-11.0,0
20.0,-253.0,-19.0,-48.0,9.0,-13.0,0
21.0,-254.0,-12.0,-50.0,10.0,-13.0,0
22.0,-255.0,-14.0,-52.0,11.0,-13.0,0
20.0,-251.0,-11.0,-51.0,12.0,-14.0,0
22.0,-252.0,-15.0,-52.0,14.0,-15.0,0
19.0,-252.0,-16.0,-53.0,15.0,-16.0,0
20.0,-253.0,-18.0,-52.0,16.0,-17.0,0
19.0,-251.0,-15.0,-52.0,16.0,-17.0,0
22.0,-251.0,-13.0,-52.0,17.0,-15.0,0
19.0,-251.0,-11.0,-50.0,19.0,-16.0,0
19.0,-248.0,-14.0,-50.0,18.0,-15.0,0
22.0,-250.0,-14.0,-48.0,20.0,-16.0,0
21.0,-249.0,-14.0,-46.0,20.0,-17.0,0
21.0,-252.0,-15.0,-42.0,18.0,-16.0,0
21.0,-251.0,-18.0,-40.0,19.0,-16.0,0
23.0,-254.0,-17.0,-39.0,18.0,-17.0,0
18.0,-253.0,-14.0,-39.0,19.0,-17.0,0
23.0,-254.0,-19.0,-37.0,18.0,-16.0,0
21.0,-251.0,-18.0,-35.0,17.0,-16.0,0
19.0,-250.0,-17.0,-35.0,15.0,-15.0,0
21.0,-252.0,-15.0,-37.0,13.0,-15.0,0
23.0,-251.0,-18.0,-38.0,11.0,-15.0,0
20.0,-252.0,-18.0,-40.0,12.0,-15.0,0
20.0,-249.0,-20.0,-44.0,13.0,-14.0,0
20.0,-252.0,-16.0,-47.0,12.0,-14.0,0
21.0,-257.0,-13.0,-49.0,13.0,-13.0,0
22.0,-252.0,-12.0,-49.0,14.0,-15.0,0
21.0,-254.0,-12.0,-47.0,15.0,-14.0,0
22.0,-252.0,-13.0,-45.0,18.0,-13.0,0
23.0,-254.0,-14.0,-42.0,18.0,-13.0,0
18.0,-250.0,-12.0,-39.0,19.0,-11.0,0
19.0,-252.0,-16.0,-34.0,21.0,-11.0,0
22.0,-250.0,-11.0,-30.0,21.0,-10.0,0
21.0,-249.0,-18.0,-28.0,21.0,-10.0,0
21.0,-250.0,-14.0,-26.0,18.0,-11.0,0
18.0,-251.0,-14.0,-28.0,16.0,-11.0,0
22.0,-251.0,-13.0,-30.0,15.0,-9.0,0
18.0,-249.0,-16.0,-33.0,13.0,-9.0,0
19.0,-251.0,-15.0,-38.0,15.0,-8.0,0
20.0,-251.0,-13.0,-42.0,13.0,-7.0,0
21.0,-254.0,-16.0,-49.0,13.0,-7.0,0
20.0,-252.0,-11.0,-51.0,15.0,-6.0,0
21.0,-250.0,-11.0,-52.0,17.0,-5.0,0
21.0,-250.0,-14.0,-52.0,20.0,-6.0,0
19.0,-253.0,-9.0,-53.0,22.0,-6.0,0
22.0,-251.0,-12.0,-54.0,24.0,-5.0,0
18.0,-252.0,-15.0,-55.0,23.0,-6.0,0
19.0,-252.0,-15.0,-51.0,23.0,-4.0,0
21.0,-254.0,-16.0,-46.0,20.0,-4.0,0
16.0,-257.0,-14.0,-39.0,17.0,-3.0,0
19.0,-252.0,-19.0,-30.0,14.0,-1.0,0
19.0,-249.0,-20.0,-27.0,9.0,-2.0,0
21.0,-251.0,-17.0,-28.0,6.0,-1.0,0
22.0,-251.0,-20.0,-36.0,5.0,-1.0,0
23.0,-253.0,-20.0,-46.0,8.0,-4.0,0
20.0,-253.0,-17.0,-56.0,12.0,-6.0,0
22.0,-252.0,-16.0,-60.0,14.0,-6.0,0
19.0,-252.0,-12.0,-54.0,16.0,-5.0,0
22.0,-253.0,-13.0,-47.0,17.0,-5.0,0
22.0,-253.0,-13.0,-42.0,19.0,-6.0,0
20.0,-252.0,-19.0,-37.0,22.0,-4.0,0
20.0,-250.0,-15.0,-33.0,24.0,-3.0,0
22.0,-251.0,-13.0,-31.0,27.0,-2.0,0
22.0,-253.0,-15.0,-31.0,26.0,0.0,0
17.0,-252.0,-16.0,-34.0,25.0,-2.0,0
20.0,-252.0,-11.0,-38.0,23.0,-1.0,0
20.0,-251.0,-11.0,-41.0,22.0,1.0,0
21.0,-254.0,-14.0,-43.0,19.0,2.0,0
21.0,-253.0,-11.0,-45.0,16.0,1.0,0
