ax,ay,az,gx,gy,gz,label
6.0,-252.0,-22.0,37.0,58.0,-21.0,0
7.0,-253.0,-23.0,38.0,53.0,-19.0,0
3.0,-249.0,-20.0,40.0,51.0,-19.0,0
6.0,-250.0,-20.0,39.0,49.0,-16.0,0
4.0,-252.0,-20.0,36.0,50.0,-18.0,0
10.0,-242.0,-18.0,32.0,49.0,-17.0,0
3.0,-241.0,-23.0,30.0,50.0,-19.0,0
9.0,-250.0,-19.0,26.0,53.0,-19.0,0
12.0,-248.0,-20.0,22.0,55.0,-20.0,0
8.0,-251.0,-15.0,19.0,56.0,-19.0,0
12.0,-250.0,-14.0,16.0,59.0,-20.0,0
9.0,-250.0,-16.0,12.0,60.0,-17.0,0
9.0,-251.0,-17.0,9.0,61.0,-18.0,0
9.0,-251.0,-13.0,3.0,62.0,-14.0,0
9.0,-252.0,-21.0,-1.0,63.0,-14.0,0
11.0,-251.0,-19.0,-5.0,63.0,-9.0,0
7.0,-248.0,-23.0,-11.0,63.0,-9.0,0
12.0,-249.0,-16.0,-15.0,64.0,-6.0,0
6.0,-250.0,-17.0,-19.0,66.0,-8.0,0
9.0,-252.0,-24.0,-22.0,68.0,-4.0,0
4.0,-254.0,-17.0,-21.0,69.0,-5.0,0
8.0,-252.0,-17.0,-19.0,72.0,-2.0,0
9.0,-253.0,-23.0,-13.0,73.0,-4.0,0
8.0,-251.0,-24.0,-7.0,75.0,-2.0,0
9.0,-257.0,-18.0,0.0,75.0,-5.0,0
10.0,-256.0,-19.0,7.0,76.0,-3.0,0
22.0,-244.0,-32.0,14.0,74.0,-3.0,0
9.0,-255.0,-18.0,18.0,75.0,-3.0,0
6.0,-251.0,-14.0,22.0,76.0,-4.0,0
9.0,-251.0,-20.0,25.0,75.0,-2.0,0
9.0,-252.0,-16.0,26.0,74.0,-5.0,0
8.0,-249.0,-17.0,25.0,73.0,-3.0,0
10.0,-250.0,-17.0,22.0,75.0,-5.0,0
7.0,-248.0,-18.0,19.0,75.0,-2.0,0
12.0,-245.0,-20.0,11.0,76.0,-2.0,0
4.0,-249.0,-14.0,4.0,74.0,0.0,0
-4.0,-251.0,-23.0,-2.0,73.0,-1.0,0
-1.0,-260.0,-6.0,-9.0,72.0,1.0,0
6.0,-249.0,-15.0,-14.0,69.0,1.0,0
8.0,-250.0,-19.0,-18.0,65.0,3.0,0
7.0,-252.0,-17.0,-19.0,62.0,2.0,0
5.0,-255.0,-23.0,-20.0,58.0,4.0,0
4.0,-253.0,-18.0,-19.0,52.0,2.0,0
2.0,-253.0,-19.0,-15.0,49.0,2.0,0
3.0,-251.0,-18.0,-9.0,45.0,-1.0,0
3.0,-256.0,-16.0,-3.0,43.0,0.0,0
9.0,-255.0,-19.0,2.0,41.0,-5.0,0
9.0,-254.0,-19.0,7.0,39.0,-5.0,0
16.0,-243.0,-26.0,12.0,38.0,-8.0,0
7.0,-253.0,-20.0,13.0,38.0,-7.0,0
10.0,-251.0,-22.0,13.0,39.0,-10.0,0
8.0,-249.0,-18.0,10.0,40.0,-8.0,0
9.0,-251.0,-17.0,4.0,43.0,-8.0,0
9.0,-249.0,-19.0,2.0,44.0,-7.0,0
10.0,-247.0,-19.0,-5.0,45.0,-8.0,0
11.0,-254.0,-18.0,-13.0,47.0,-6.0,0
12.0,-253.0,-22.0,-19.0,48.0,-9.0,0
11.0,-255.0,-18.0,-23.0,49.0,-6.0,0
7.0,-250.0,-15.0,-26.0,50.0,-9.0,0
26.0,-255.0,-31.0,-27.0,48.0,-7.0,0
9.0,-254.0,-21.0,-21.0,45.0,-9.0,0
11.0,-255.0,-21.0,-15.0,46.0,-8.0,0
12.0,-256.0,-17.0,-5.0,46.0,-9.0,0
11.0,-254.0,-21.0,4.0,48.0,-9.0,0
10.0,-255.0,-16.0,15.0,51.0,-11.0,0
11.0,-253.0,-19.0,22.0,56.0,-13.0,0
10.0,-251.0,-16.0,26.0,61.0,-16.0,0
12.0,-251.0,-17.0,25.0,64.0,-16.0,0
10.0,-249.0,-17.0,21.0,68.0,-20.0,0
13.0,-249.0,-17.0,17.0,71.0,-18.0,0
8.0,-250.0,-14.0,11.0,72.0,-20.0,0
11.0,-251.0,-17.0,5.0,73.0,-17.0,0
10.0,-250.0,-16.0,0.0,75.0,-18.0,0
9.0,-249.0,-14.0,-8.0,77.0,-16.0,0
10.0,-251.0,-16.0,-16.0,79.0,-18.0,0
8.0,-248.0,-15.0,-23.0,82.0,-14.0,0
11.0,-249.0,-20.0,-33.0,86.0,-16.0,0
8.0,-252.0,-21.0,-39.0,86.0,-13.0,0
7.0,-252.0,-18.0,-40.0,85.0,-13.0,0
8.0,-254.0,-22.0,-39.0,86.0,-11.0,0
8.0,-253.0,-15.0,-32.0,84.0,-12.0,0
-4.0,-249.0,-26.0,-24.0,83.0,-11.0,0
11.0,-255.0,-16.0,-16.0,83.0,-13.0,0
8.0,-254.0,-17.0,-10.0,83.0,-12.0,0
9.0,-252.0,-14.0,-7.0,84.0,-15.0,0
7.0,-251.0,-13.0,-6.0,85.0,-16.0,0
7.0,-251.0,-17.0,-5.0,87.0,-20.0,0
8.0,-250.0,-13.0,-5.0,90.0,-20.0,0
2.0,-250.0,-14.0,-6.0,92.0,-23.0,0
3.0,-254.0,-14.0,-4.0,94.0,-23.0,0
5.0,-251.0,-17.0,-3.0,94.0,-24.0,0
4.0,-247.0,-14.0,0.0,94.0,-23.0,0
8.0,-254.0,-2.0,1.0,95.0,-24.0,0
6.0,-251.0,-18.0,1.0,92.0,-21.0,0
8.0,-250.0,-13.0,1.0,88.0,-19.0,0
6.0,-249.0,-18.0,-1.0,86.0,-17.0,0
8.0,-249.0,-19.0,-3.0,82.0,-16.0,0
8.0,-249.0,-17.0,-6.0,78.0,-13.0,0
7.0,-251.0,-17.0,-10.0,76.0,-14.0,0
6.0,-250.0,-24.0,-11.0,75.0,-10.0,0
7.0,-252.0,-17.0,-12.0,73.0,-10.0,0
13.0,-251.0,-17.0,-12.0,72.0,-9.0,0
8.0,-254.0,-18.0,-11.0,72.0,-10.0,0
10.0,-243.0,-19.0,-8.0,71.0,-9.0,0
7.0,-253.0,-18.0,-7.0,70.0,-10.0,0
6.0,-252.0,-15.0,-5.0,71.0,-11.0,0
10.0,-255.0,-18.0,-3.0,71.0,-12.0,0
7.0,-251.0,-17.0,-1.0,72.0,-11.0,0
9.0,-251.0,-17.0,2.0,75.0,-15.0,0
11.0,-250.0,-21.0,4.0,77.0,-13.0,0
10.0,-250.0,-13.0,6.0,81.0,-17.0,0
8.0,-252.0,-17.0,7.0,82.0,-14.0,0
8.0,-246.0,-16.0,5.0,84.0,-18.0,0
9.0,-251.0,-17.0,1.0,87.0,-16.0,0
8.0,-253.0,-19.0,-1.0,86.0,-15.0,0
6.0,-250.0,-18.0,-3.0,86.0,-13.0,0
8.0,-251.0,-18.0,-4.0,86.0,-13.0,0
8.0,-248.0,-19.0,-4.0,84.0,-12.0,0
9.0,-252.0,-20.0,-4.0,83.0,-13.0,0
9.0,-251.0,-20.0,-4.0,82.0,-10.0,0
9.0,-252.0,-14.0,-3.0,82.0,-11.0,0
7.0,-250.0,-21.0,-3.0,82.0,-10.0,0
11.0,-253.0,-13.0,-4.0,80.0,-12.0,0
10.0,-250.0,-16.0,-4.0,79.0,-10.0,0
12.0,-250.0,-27.0,-4.0,75.0,-12.0,0
8.0,-252.0,-16.0,-7.0,73.0,-8.0,0
9.0,-253.0,-19.0,-9.0,74.0,-9.0,0
7.0,-250.0,-17.0,-10.0,72.0,-6.0,0
6.0,-250.0,-14.0,-11.0,73.0,-9.0,0
7.0,-249.0,-15.0,-11.0,72.0,-7.0,0
7.0,-248.0,-17.0,-9.0,73.0,-10.0,0
8.0,-250.0,-14.0,-7.0,73.0,-9.0,0
7.0,-252.0,-14.0,-9.0,73.0,-10.0,0
6.0,-252.0,-17.0,-8.0,74.0,-10.0,0
5.0,-253.0,-18.0,-7.0,75.0,-12.0,0
10.0,-248.0,-15.0,-8.0,74.0,-11.0,0
7.0,-252.0,-16.0,-8.0,74.0,-13.0,0
8.0,-251.0,-18.0,-7.0,75.0,-11.0,0
7.0,-251.0,-18.0,-10.0,73.0,-14.0,0
7.0,-251.0,-20.0,-10.0,72.0,-9.0,0
8.0,-251.0,-15.0,-12.0,68.0,-11.0,0
9.0,-252.0,-20.0,-14.0,66.0,-8.0,0
11.0,-252.0,-15.0,-14.0,61.0,-9.0,0
7.0,-249.0,-19.0,-18.0,60.0,-6.0,0
8.0,-248.0,-15.0,-23.0,58.0,-5.0,0
10.0,-249.0,-17.0,-26.0,57.0,-1.0,0
6.0,-267.0,-9.0,-29.0,55.0,-2.0,0
9.0,-252.0,-15.0,-31.0,53.0,1.0,0
10.0,-253.0,-15.0,-29.0,50.0,0.0,0
9.0,-252.0,-18.0,-25.0,49.0,2.0,0
7.0,-253.0,-11.0,-21.0,49.0,-2.0,0
9.0,-254.0,-12.0,-15.0,49.0,-1.0,0
5.0,-252.0,-14.0,-10.0,48.0,-4.0,0
12.0,-252.0,-19.0,-7.0,50.0,-3.0,0
10.0,-251.0,-13.0,-6.0,52.0,-6.0,0
7.0,-252.0,-16.0,-4.0,51.0,-6.0,0
5.0,-249.0,-15.0,-4.0,53.0,-9.0,0
1.0,-248.0,-23.0,-3.0,53.0,-7.0,0
7.0,-251.0,-18.0,-4.0,53.0,-11.0,0
7.0,-253.0,-12.0,-4.0,54.0,-8.0,0
8.0,-254.0,-15.0,-4.0,54.0,-11.0,0
8.0,-253.0,-17.0,-2.0,53.0,-9.0,0
10.0,-253.0,-15.0,2.0,53.0,-12.0,0
12.0,-255.0,-18.0,5.0,52.0,-9.0,0
8.0,-254.0,-17.0,11.0,54.0,-10.0,0
14.0,-256.0,-23.0,15.0,55.0,-9.0,0
10.0,-252.0,-18.0,16.0,55.0,-9.0,0
10.0,-253.0,-18.0,16.0,57.0,-8.0,0
5.0,-255.0,-3.0,18.0,58.0,-9.0,0
9.0,-251.0,-20.0,18.0,60.0,-7.0,0
10.0,-254.0,-17.0,18.0,59.0,-8.0,0
10.0,-251.0,-19.0,19.0,61.0,-7.0,0
12.0,-252.0,-17.0,23.0,61.0,-9.0,0
11.0,-252.0,-16.0,26.0,60.0,-8.0,0
9.0,-251.0,-14.0,26.0,64.0,-10.0,0
9.0,-247.0,-19.0,24.0,66.0,-10.0,0
8.0,-246.0,-19.0,19.0,68.0,-12.0,0
9.0,-250.0,-14.0,11.0,70.0,-10.0,0
11.0,-248.0,-23.0,1.0,71.0,-13.0,0
4.0,-256.0,-2.0,-6.0,70.0,-11.0,0
8.0,-249.0,-16.0,-10.0,72.0,-14.0,0
9.0,-252.0,-15.0,-11.0,73.0,-11.0,0
11.0,-251.0,-22.0,-11.0,73.0,-13.0,0
9.0,-251.0,-18.0,-11.0,74.0,-9.0,0
11.0,-251.0,-14.0,-13.0,75.0,-11.0,0
10.0,-252.0,-16.0,-15.0,75.0,-6.0,0
10.0,-247.0,-16.0,-18.0,75.0,-8.0,0
9.0,-249.0,-19.0,-21.0,74.0,-4.0,0
9.0,-252.0,-16.0,-22.0,75.0,-5.0,0
7.0,-253.0,-15.0,-23.0,74.0,-4.0,0
8.0,-239.0,-21.0,-19.0,74.0,-4.0,0
6.0,-249.0,-12.0,-16.0,73.0,-3.0,0
8.0,-253.0,-16.0,-13.0,72.0,-6.0,0
10.0,-252.0,-17.0,-13.0,69.0,-2.0,0
9.0,-252.0,-14.0,-12.0,69.0,-5.0,0
7.0,-251.0,-19.0,-14.0,67.0,-4.0,0
9.0,-253.0,-17.0,-13.0,67.0,-6.0,0
9.0,-253.0,-16.0,-15.0,67.0,-4.0,0
8.0,-255.0,-16.0,-16.0,66.0,-7.0,0
8.0,-253.0,-16.0,-15.0,68.0,-7.0,0
6.0,-253.0,-14.0,-12.0,67.0,-9.0,0
16.0,-260.0,-14.0,-8.0,67.0,-10.0,0
8.0,-251.0,-15.0,-6.0,67.0,-10.0,0
8.0,-254.0,-15.0,-7.0,66.0,-8.0,0
9.0,-250.0,-19.0,-6.0,66.0,-11.0,0
9.0,-254.0,-15.0,-4.0,68.0,-8.0,0
12.0,-251.0,-17.0,-5.0,68.0,-9.0,0
13.0,-250.0,-14.0,-6.0,68.0,-7.0,0
7.0,-253.0,-14.0,-5.0,67.0,-8.0,0
8.0,-251.0,-12.0,-5.0,67.0,-6.0,0
13.0,-252.0,-16.0,-6.0,66.0,-8.0,0
7.0,-250.0,-14.0,-5.0,64.0,-4.0,0
8.0,-256.0,-6.0,-7.0,62.0,-6.0,0
5.0,-245.0,-21.0,-8.0,60.0,-4.0,0
8.0,-250.0,-14.0,-7.0,59.0,-7.0,0
7.0,-252.0,-15.0,-6.0,58.0,-6.0,0
5.0,-253.0,-17.0,-6.0,56.0,-9.0,0
8.0,-254.0,-16.0,-6.0,56.0,-8.0,0
7.0,-251.0,-11.0,-3.0,54.0,-10.0,0
11.0,-250.0,-15.0,-3.0,55.0,-10.0,0
8.0,-252.0,-14.0,0.0,54.0,-12.0,0
7.0,-251.0,-17.0,1.0,56.0,-10.0,0
19.0,-250.0,-23.0,1.0,56.0,-14.0,0
9.0,-252.0,-19.0,-2.0,57.0,-13.0,0
9.0,-249.0,-19.0,-5.0,61.0,-14.0,0
9.0,-250.0,-16.0,-8.0,62.0,-11.0,0
9.0,-253.0,-11.0,-9.0,62.0,-13.0,0
9.0,-249.0,-18.0,-10.0,63.0,-11.0,0
8.0,-253.0,-14.0,-9.0,62.0,-12.0,0
8.0,-250.0,-12.0,-9.0,62.0,-11.0,0
10.0,-249.0,-17.0,-8.0,61.0,-12.0,0
12.0,-252.0,-11.0,-6.0,63.0,-9.0,0
14.0,-253.0,-14.0,-6.0,64.0,-11.0,0
12.0,-245.0,-26.0,-3.0,65.0,-8.0,0
9.0,-253.0,-17.0,0.0,66.0,-12.0,0
10.0,-251.0,-14.0,1.0,67.0,-11.0,0
12.0,-254.0,-17.0,4.0,68.0,-12.0,0
10.0,-250.0,-18.0,6.0,68.0,-12.0,0
10.0,-250.0,-15.0,9.0,70.0,-13.0,0
9.0,-250.0,-18.0,9.0,73.0,-12.0,0
7.0,-250.0,-10.0,9.0,75.0,-14.0,0
9.0,-253.0,-19.0,6.0,77.0,-11.0,0
8.0,-250.0,-7.0,1.0,80.0,-13.0,0
9.0,-250.0,-13.0,-4.0,81.0,-10.0,0
4.0,-256.0,0.0,-8.0,83.0,-11.0,0
9.0,-250.0,-14.0,-13.0,84.0,-8.0,0
8.0,-252.0,-12.0,-16.0,85.0,-10.0,0
6.0,-251.0,-14.0,-15.0,85.0,-7.0,0
6.0,-251.0,-15.0,-18.0,85.0,-8.0,0
11.0,-251.0,-14.0,-19.0,84.0,-6.0,0
9.0,-251.0,-16.0,-17.0,83.0,-7.0,0
7.0,-255.0,-12.0,-18.0,83.0,-6.0,0
4.0,-251.0,-19.0,-17.0,80.0,-10.0,0
4.0,-252.0,-13.0,-18.0,79.0,-9.0,0
6.0,-253.0,-14.0,-16.0,76.0,-10.0,0
4.0,-252.0,-22.0,-15.0,74.0,-10.0,0
7.0,-252.0,-12.0,-14.0,73.0,-11.0,0
6.0,-249.0,-11.0,-14.0,73.0,-9.0,0
7.0,-252.0,-16.0,-13.0,71.0,-13.0,0
9.0,-252.0,-16.0,-15.0,70.0,-9.0,0
6.0,-251.0,-16.0,-16.0,68.0,-12.0,0
7.0,-254.0,-14.0,-18.0,66.0,-9.0,0
5.0,-254.0,-14.0,-16.0,64.0,-9.0,0
6.0,-251.0,-18.0,-15.0,63.0,-8.0,0
6.0,-251.0,-16.0,-14.0,61.0,-8.0,0
5.0,-252.0,-18.0,-12.0,62.0,-7.0,0
12.0,-245.0,-13.0,-13.0,61.0,-8.0,0
9.0,-251.0,-15.0,-13.0,60.0,-5.0,0
10.0,-251.0,-17.0,-18.0,62.0,-9.0,0
9.0,-249.0,-15.0,-23.0,62.0,-5.0,0
10.0,-251.0,-16.0,-26.0,61.0,-8.0,0
10.0,-252.0,-16.0,-30.0,61.0,-6.0,0
13.0,-250.0,-13.0,-32.0,60.0,-7.0,0
10.0,-249.0,-15.0,-31.0,60.0,-5.0,0
10.0,-250.0,-14.0,-29.0,61.0,-7.0,0
8.0,-256.0,-16.0,-27.0,60.0,-3.0,0
9.0,-254.0,-12.0,-25.0,61.0,-6.0,0
17.0,-263.0,-11.0,-25.0,62.0,-3.0,0
8.0,-251.0,-17.0,-24.0,62.0,-4.0,0
12.0,-254.0,-16.0,-28.0,63.0,-3.0,0
9.0,-254.0,-14.0,-31.0,61.0,-6.0,0
8.0,-253.0,-14.0,-29.0,59.0,-4.0,0
10.0,-252.0,-15.0,-27.0,58.0,-7.0,0
11.0,-253.0,-14.0,-21.0,58.0,-6.0,0
10.0,-253.0,-15.0,-16.0,58.0,-7.0,0
12.0,-251.0,-14.0,-11.0,57.0,-4.0,0
12.0,-253.0,-8.0,-9.0,57.0,-7.0,0
12.0,-254.0,-18.0,-7.0,58.0,-3.0,0
3.0,-242.0,-26.0,-6.0,62.0,-4.0,0
10.0,-252.0,-14.0,-7.0,68.0,-2.0,0
8.0,-250.0,-12.0,-5.0,72.0,-5.0,0
9.0,-250.0,-13.0,-2.0,75.0,-4.0,0
8.0,-254.0,-15.0,3.0,76.0,-6.0,0
10.0,-254.0,-15.0,9.0,77.0,-2.0,0
7.0,-250.0,-11.0,12.0,76.0,-7.0,0
10.0,-250.0,-12.0,16.0,76.0,-4.0,0
7.0,-249.0,-14.0,20.0,76.0,-6.0,0
6.0,-251.0,-12.0,21.0,75.0,-6.0,0
6.0,-251.0,-14.0,21.0,74.0,-8.0,0
8.0,-246.0,-36.0,21.0,73.0,-6.0,0
9.0,-250.0,-12.0,21.0,75.0,-10.0,0
10.0,-250.0,-12.0,21.0,76.0,-10.0,0
11.0,-248.0,-15.0,18.0,80.0,-12.0,0
10.0,-251.0,-19.0,17.0,82.0,-12.0,0
8.0,-252.0,-16.0,17.0,84.0,-13.0,0
9.0,-249.0,-14.0,14.0,85.0,-10.0,0
9.0,-249.0,-15.0,12.0,83.0,-11.0,0
10.0,-248.0,-15.0,8.0,82.0,-9.0,0
8.0,-251.0,-15.0,4.0,81.0,-8.0,0
9.0,-250.0,-14.0,-2.0,76.0,-5.0,0
15.0,-246.0,-14.0,-5.0,73.0,-7.0,0
8.0,-248.0,-12.0,-7.0,72.0,-5.0,0
8.0,-252.0,-14.0,-10.0,72.0,-5.0,0
7.0,-250.0,-15.0,-12.0,72.0,-4.0,0
7.0,-248.0,-7.0,-16.0,73.0,-7.0,0
10.0,-253.0,-12.0,-18.0,71.0,-5.0,0
8.0,-251.0,-11.0,-19.0,69.0,-6.0,0
9.0,-251.0,-14.0,-18.0,67.0,-6.0,0
12.0,-254.0,-13.0,-15.0,68.0,-8.0,0
9.0,-250.0,-16.0,-12.0,68.0,-6.0,0
7.0,-248.0,-22.0,-11.0,66.0,-7.0,0
10.0,-251.0,-16.0,-10.0,65.0,-6.0,0
9.0,-251.0,-16.0,-10.0,63.0,-8.0,0
10.0,-248.0,-14.0,-11.0,62.0,-6.0,0
6.0,-248.0,-17.0,-11.0,60.0,-7.0,0
11.0,-250.0,-11.0,-11.0,58.0,-4.0,0
9.0,-251.0,-16.0,-12.0,59.0,-7.0,0
9.0,-253.0,-13.0,-12.0,59.0,-4.0,0
11.0,-252.0,-11.0,-11.0,60.0,-7.0,0
11.0,-254.0,-17.0,-12.0,62.0,-7.0,0
9.0,-249.0,-19.0,-10.0,63.0,-10.0,0
8.0,-237.0,-30.0,-11.0,63.0,-8.0,0
10.0,-250.0,-12.0,-11.0,63.0,-11.0,0
8.0,-251.0,-12.0,-10.0,61.0,-10.0,0
10.0,-251.0,-14.0,-11.0,60.0,-13.0,0
8.0,-251.0,-15.0,-10.0,59.0,-12.0,0
10.0,-252.0,-11.0,-10.0,57.0,-15.0,0
12.0,-252.0,-15.0,-12.0,54.0,-12.0,0
13.0,-254.0,-9.0,-18.0,53.0,-14.0,0
11.0,-246.0,-16.0,-24.0,52.0,-11.0,0
8.0,-247.0,-16.0,-32.0,49.0,-12.0,0
12.0,-247.0,-15.0,-37.0,48.0,-8.0,0
6.0,-257.0,-7.0,-44.0,48.0,-10.0,0
11.0,-253.0,-17.0,-48.0,46.0,-6.0,0
9.0,-252.0,-20.0,-48.0,45.0,-5.0,0
9.0,-252.0,-14.0,-50.0,44.0,-5.0,0
11.0,-256.0,-16.0,-46.0,44.0,-7.0,0
10.0,-252.0,-18.0,-42.0,44.0,-7.0,0
9.0,-255.0,-18.0,-36.0,45.0,-10.0,0
13.0,-253.0,-16.0,-31.0,47.0,-8.0,0
10.0,-254.0,-17.0,-26.0,50.0,-14.0,0
9.0,-253.0,-18.0,-23.0,53.0,-15.0,0
16.0,-250.0,-25.0,-19.0,54.0,-19.0,0
7.0,-256.0,-9.0,-15.0,59.0,-19.0,0
13.0,-251.0,-18.0,-12.0,64.0,-23.0,0
12.0,-251.0,-16.0,-10.0,72.0,-23.0,0
14.0,-254.0,-23.0,-9.0,75.0,-26.0,0
12.0,-251.0,-16.0,-9.0,79.0,-26.0,0
13.0,-254.0,-18.0,-11.0,82.0,-29.0,0
14.0,-251.0,-19.0,-15.0,88.0,-26.0,0
16.0,-252.0,-18.0,-15.0,89.0,-28.0,0
12.0,-254.0,-23.0,-18.0,91.0,-28.0,0
13.0,-251.0,-25.0,-23.0,93.0,-29.0,0
14.0,-254.0,-24.0,-30.0,93.0,-26.0,0
12.0,-249.0,-28.0,-37.0,94.0,-29.0,0
10.0,-252.0,-27.0,-45.0,95.0,-25.0,0
12.0,-254.0,-24.0,-49.0,95.0,-28.0,0
13.0,-254.0,-21.0,-52.0,96.0,-24.0,0
13.0,-250.0,-22.0,-54.0,97.0,-25.0,0
13.0,-252.0,-25.0,-56.0,97.0,-21.0,0
12.0,-253.0,-20.0,-55.0,97.0,-22.0,0
13.0,-252.0,-23.0,-53.0,98.0,-18.0,0
15.0,-253.0,-25.0,-51.0,98.0,-18.0,0
15.0,-250.0,-26.0,-53.0,101.0,-15.0,0
24.0,-251.0,-21.0,-55.0,103.0,-14.0,0
0.0,-243.0,-18.0,-58.0,108.0,-9.0,0
13.0,-252.0,-24.0,-59.0,112.0,-10.0,0
13.0,-255.0,-26.0,-62.0,118.0,-7.0,0
16.0,-255.0,-20.0,-62.0,121.0,-7.0,0
16.0,-253.0,-25.0,-64.0,126.0,-2.0,0
11.0,-252.0,-25.0,-65.0,130.0,-3.0,0
12.0,-253.0,-24.0,-67.0,131.0,-1.0,0
17.0,-254.0,-24.0,-70.0,134.0,-1.0,0
14.0,-247.0,-26.0,-70.0,136.0,1.0,0
12.0,-249.0,-28.0,-70.0,140.0,-1.0,0
14.0,-251.0,-25.0,-72.0,143.0,2.0,0
17.0,-238.0,-26.0,-72.0,145.0,0.0,0
11.0,-246.0,-22.0,-70.0,146.0,4.0,0
13.0,-248.0,-22.0,-73.0,149.0,1.0,0
12.0,-247.0,-25.0,-76.0,151.0,3.0,0
9.0,-247.0,-20.0,-84.0,155.0,0.0,0
11.0,-246.0,-19.0,-89.0,161.0,1.0,0
9.0,-247.0,-23.0,-96.0,166.0,-3.0,0
11.0,-249.0,-23.0,-102.0,168.0,-2.0,0
8.0,-247.0,-22.0,-106.0,169.0,-5.0,0
9.0,-254.0,-23.0,-108.0,168.0,-2.0,0
9.0,-254.0,-18.0,-112.0,164.0,-2.0,0
6.0,-257.0,-12.0,-112.0,160.0,3.0,0
7.0,-252.0,-18.0,-113.0,154.0,3.0,0
6.0,-249.0,-17.0,-112.0,150.0,9.0,0
9.0,-249.0,-22.0,-112.0,145.0,9.0,0
8.0,-250.0,-24.0,-114.0,139.0,13.0,0
9.0,-248.0,-22.0,-116.0,134.0,13.0,0
7.0,-247.0,-22.0,-120.0,129.0,15.0,0
8.0,-250.0,-21.0,-127.0,124.0,13.0,0
10.0,-247.0,-26.0,-137.0,121.0,15.0,0
6.0,-248.0,-21.0,-149.0,118.0,12.0,0
8.0,-249.0,-19.0,-158.0,116.0,14.0,0
4.0,-247.0,-24.0,-167.0,112.0,10.0,0
10.0,-250.0,-23.0,-170.0,113.0,11.0,0
8.0,-251.0,-22.0,-171.0,112.0,9.0,0
10.0,-251.0,-23.0,-169.0,111.0,10.0,0
9.0,-248.0,-22.0,-165.0,109.0,7.0,0
10.0,-252.0,-22.0,-160.0,107.0,8.0,0
11.0,-256.0,-24.0,-155.0,104.0,6.0,0
9.0,-252.0,-21.0,-152.0,101.0,8.0,0
10.0,-251.0,-27.0,-150.0,99.0,7.0,0
6.0,-251.0,-27.0,-151.0,95.0,10.0,0
11.0,-263.0,-21.0,-153.0,96.0,8.0,0
10.0,-250.0,-26.0,-155.0,95.0,10.0,0
6.0,-252.0,-26.0,-157.0,94.0,7.0,0
8.0,-251.0,-28.0,-158.0,94.0,7.0,0
13.0,-252.0,-28.0,-159.0,95.0,4.0,0
8.0,-248.0,-25.0,-163.0,97.0,5.0,0
7.0,-251.0,-27.0,-168.0,101.0,1.0,0
12.0,-246.0,-26.0,-171.0,105.0,3.0,0
11.0,-250.0,-26.0,-172.0,109.0,0.0,0
12.0,-247.0,-27.0,-170.0,111.0,0.0,0
9.0,-249.0,-25.0,-164.0,114.0,-4.0,0
19.0,-249.0,-31.0,-162.0,117.0,-4.0,0
14.0,-250.0,-26.0,-161.0,117.0,-8.0,0
12.0,-247.0,-30.0,-163.0,115.0,-4.0,0
12.0,-248.0,-30.0,-171.0,113.0,-6.0,0
12.0,-246.0,-33.0,-185.0,110.0,-2.0,0
11.0,-247.0,-31.0,-198.0,108.0,-3.0,0
9.0,-247.0,-33.0,-213.0,106.0,0.0,0
11.0,-249.0,-36.0,-226.0,104.0,-3.0,0
12.0,-249.0,-33.0,-238.0,105.0,-2.0,0
7.0,-247.0,-34.0,-245.0,104.0,-3.0,0
10.0,-250.0,-33.0,-248.0,108.0,0.0,0
4.0,-254.0,-32.0,-248.0,110.0,-1.0,0
8.0,-246.0,-30.0,-245.0,112.0,4.0,0
6.0,-249.0,-33.0,-241.0,112.0,4.0,0
5.0,-249.0,-33.0,-238.0,111.0,9.0,0
8.0,-249.0,-34.0,-236.0,110.0,9.0,0
2.0,-247.0,-33.0,-236.0,107.0,12.0,0
11.0,-247.0,-31.0,-239.0,105.0,10.0,0
7.0,-247.0,-34.0,-249.0,103.0,14.0,0
6.0,-249.0,-34.0,-257.0,103.0,11.0,0
6.0,-246.0,-37.0,-263.0,102.0,13.0,0
4.0,-248.0,-37.0,-268.0,100.0,10.0,0
20.0,-247.0,-41.0,-274.0,98.0,11.0,0
8.0,-244.0,-39.0,-282.0,97.0,7.0,0
6.0,-248.0,-35.0,-292.0,95.0,8.0,0
4.0,-251.0,-36.0,-298.0,97.0,3.0,0
5.0,-250.0,-38.0,-306.0,97.0,4.0,0
7.0,-253.0,-34.0,-311.0,97.0,-1.0,0
7.0,-257.0,-36.0,-312.0,100.0,-2.0,0
4.0,-254.0,-34.0,-306.0,102.0,-7.0,0
7.0,-253.0,-36.0,-299.0,102.0,-6.0,0
4.0,-253.0,-38.0,-288.0,99.0,-8.0,0
1.0,-251.0,-36.0,-278.0,97.0,-5.0,0
-2.0,-263.0,-33.0,-269.0,95.0,-8.0,0
8.0,-248.0,-42.0,-263.0,94.0,-4.0,0
6.0,-247.0,-47.0,-266.0,93.0,-5.0,0
4.0,-248.0,-41.0,-275.0,92.0,-2.0,0
5.0,-246.0,-46.0,-286.0,92.0,-3.0,0
5.0,-242.0,-45.0,-298.0,95.0,1.0,0
5.0,-242.0,-41.0,-309.0,98.0,0.0,0
6.0,-244.0,-43.0,-321.0,100.0,2.0,0
10.0,-243.0,-46.0,-331.0,102.0,-1.0,0
12.0,-243.0,-44.0,-340.0,103.0,3.0,0
14.0,-237.0,-46.0,-347.0,103.0,0.0,0
8.0,-241.0,-33.0,-358.0,104.0,2.0,0
9.0,-240.0,-47.0,-370.0,103.0,1.0,0
13.0,-241.0,-52.0,-383.0,102.0,4.0,0
13.0,-242.0,-49.0,-398.0,103.0,3.0,0
14.0,-242.0,-51.0,-414.0,105.0,4.0,0
15.0,-243.0,-52.0,-430.0,110.0,0.0,0
14.0,-243.0,-48.0,-438.0,114.0,1.0,0
16.0,-243.0,-53.0,-451.0,118.0,-2.0,0
12.0,-247.0,-51.0,-460.0,122.0,-2.0,0
12.0,-244.0,-50.0,-462.0,122.0,-5.0,0
18.0,-245.0,-49.0,-462.0,123.0,-3.0,0
2.0,-246.0,-50.0,-464.0,123.0,-5.0,0
13.0,-242.0,-54.0,-468.0,122.0,-3.0,0
11.0,-243.0,-56.0,-476.0,122.0,-5.0,0
7.0,-241.0,-56.0,-490.0,119.0,-3.0,0
9.0,-242.0,-56.0,-509.0,118.0,-4.0,0
6.0,-240.0,-57.0,-524.0,116.0,-1.0,0
7.0,-240.0,-61.0,-538.0,112.0,-5.0,0
9.0,-240.0,-60.0,-548.0,107.0,-5.0,0
3.0,-242.0,-59.0,-549.0,101.0,-9.0,0
5.0,-243.0,-55.0,-550.0,94.0,-7.0,0
7.0,-246.0,-59.0,-556.0,83.0,-8.0,0
0.0,-242.0,-57.0,-563.0,75.0,-5.0,0
4.0,-241.0,-66.0,-572.0,68.0,-6.0,0
6.0,-241.0,-68.0,-582.0,65.0,-6.0,0
3.0,-240.0,-67.0,-593.0,62.0,-10.0,0
4.0,-244.0,-63.0,-599.0,62.0,-11.0,0
8.0,-244.0,-64.0,-600.0,62.0,-11.0,0
11.0,-248.0,-63.0,-594.0,64.0,-10.0,0
11.0,-239.0,-63.0,-578.0,67.0,-15.0,0
7.0,-246.0,-61.0,-560.0,67.0,-15.0,0
13.0,-243.0,-65.0,-537.0,67.0,-19.0,0
15.0,-238.0,-65.0,-519.0,64.0,-18.0,0
13.0,-241.0,-65.0,-504.0,56.0,-18.0,0
11.0,-241.0,-67.0,-496.0,51.0,-11.0,0
11.0,-241.0,-67.0,-497.0,48.0,-11.0,0
12.0,-240.0,-66.0,-505.0,51.0,-8.0,0
12.0,-242.0,-65.0,-513.0,58.0,-11.0,0
11.0,-243.0,-69.0,-518.0,68.0,-9.0,0
11.0,-242.0,-69.0,-519.0,80.0,-15.0,0
12.0,-250.0,-63.0,-519.0,93.0,-18.0,0
14.0,-248.0,-68.0,-518.0,104.0,-24.0,0
12.0,-249.0,-66.0,-513.0,116.0,-26.0,0
15.0,-247.0,-68.0,-504.0,123.0,-29.0,0
5.0,-239.0,-77.0,-496.0,128.0,-26.0,0
10.0,-245.0,-71.0,-490.0,132.0,-28.0,0
16.0,-245.0,-71.0,-482.0,132.0,-25.0,0
15.0,-241.0,-73.0,-479.0,132.0,-27.0,0
14.0,-240.0,-76.0,-476.0,129.0,-25.0,0
15.0,-238.0,-74.0,-483.0,128.0,-28.0,0
11.0,-242.0,-80.0,-496.0,126.0,-25.0,0
14.0,-237.0,-82.0,-514.0,120.0,-27.0,0
5.0,-238.0,-78.0,-533.0,116.0,-25.0,0
6.0,-239.0,-73.0,-548.0,112.0,-28.0,0
6.0,-241.0,-79.0,-558.0,106.0,-28.0,0
5.0,-241.0,-81.0,-563.0,102.0,-35.0,0
3.0,-241.0,-81.0,-561.0,97.0,-36.0,0
1.0,-242.0,-81.0,-548.0,94.0,-37.0,0
1.0,-242.0,-83.0,-539.0,88.0,-33.0,0
0.0,-243.0,-85.0,-532.0,80.0,-34.0,0
0.0,-241.0,-82.0,-528.0,74.0,-30.0,0
2.0,-240.0,-84.0,-516.0,69.0,-30.0,0
-1.0,-242.0,-87.0,-501.0,66.0,-25.0,0
3.0,-236.0,-88.0,-489.0,64.0,-25.0,0
4.0,-238.0,-87.0,-481.0,64.0,-20.0,0
-3.0,-222.0,-101.0,-471.0,59.0,-15.0,0
5.0,-232.0,-94.0,-463.0,54.0,-10.0,0
4.0,-231.0,-90.0,-456.0,50.0,-15.0,0
3.0,-229.0,-92.0,-454.0,45.0,-11.0,0
6.0,-228.0,-97.0,-456.0,37.0,-13.0,0
5.0,-224.0,-96.0,-460.0,29.0,-11.0,0
1.0,-225.0,-97.0,-473.0,21.0,-17.0,0
7.0,-228.0,-98.0,-493.0,10.0,-21.0,0
1.0,-229.0,-98.0,-515.0,2.0,-32.0,0
-3.0,-232.0,-98.0,-532.0,-5.0,-37.0,0
-5.0,-230.0,-101.0,-541.0,-15.0,-45.0,0
-13.0,-234.0,-90.0,-550.0,-23.0,-48.0,0
-10.0,-236.0,-105.0,-557.0,-32.0,-53.0,0
-5.0,-235.0,-100.0,-557.0,-40.0,-52.0,0
-9.0,-234.0,-107.0,-549.0,-50.0,-57.0,0
-10.0,-234.0,-108.0,-539.0,-58.0,-54.0,0
-5.0,-233.0,-111.0,-531.0,-60.0,-50.0,0
-3.0,-232.0,-114.0,-526.0,-61.0,-41.0,0
2.0,-228.0,-115.0,-521.0,-59.0,-42.0,0
1.0,-225.0,-119.0,-511.0,-56.0,-33.0,0
3.0,-225.0,-120.0,-502.0,-51.0,-26.0,0
8.0,-223.0,-124.0,-498.0,-51.0,-18.0,0
-3.0,-218.0,-112.0,-505.0,-56.0,-16.0,0
4.0,-217.0,-122.0,-512.0,-66.0,-5.0,0
5.0,-216.0,-124.0,-524.0,-81.0,5.0,0
1.0,-215.0,-114.0,-545.0,-97.0,18.0,0
2.0,-214.0,-117.0,-567.0,-112.0,24.0,0
-1.0,-217.0,-118.0,-578.0,-127.0,35.0,0
-2.0,-217.0,-113.0,-582.0,-139.0,37.0,0
-3.0,-221.0,-110.0,-582.0,-149.0,42.0,0
-8.0,-224.0,-113.0,-585.0,-157.0,41.0,0
-11.0,-222.0,-116.0,-597.0,-170.0,41.0,0
-14.0,-222.0,-122.0,-609.0,-183.0,36.0,0
-5.0,-222.0,-120.0,-624.0,-195.0,28.0,0
-12.0,-220.0,-123.0,-637.0,-202.0,21.0,0
-9.0,-222.0,-126.0,-650.0,-208.0,20.0,0
-8.0,-224.0,-128.0,-659.0,-209.0,15.0,0
-7.0,-229.0,-127.0,-675.0,-206.0,17.0,0
-4.0,-229.0,-130.0,-684.0,-202.0,11.0,0
-2.0,-231.0,-128.0,-691.0,-195.0,8.0,0
4.0,-231.0,-135.0,-685.0,-191.0,2.0,0
10.0,-223.0,-133.0,-665.0,-191.0,5.0,0
8.0,-225.0,-133.0,-633.0,-192.0,3.0,0
7.0,-221.0,-135.0,-608.0,-194.0,13.0,0
15.0,-220.0,-143.0,-588.0,-194.0,18.0,0
14.0,-217.0,-137.0,-577.0,-196.0,29.0,0
11.0,-213.0,-140.0,-582.0,-201.0,32.0,0
15.0,-214.0,-136.0,-588.0,-205.0,46.0,0
9.0,-212.0,-136.0,-593.0,-206.0,52.0,0
7.0,-212.0,-135.0,-597.0,-203.0,63.0,0
5.0,-209.0,-130.0,-594.0,-204.0,68.0,0
4.0,-202.0,-133.0,-585.0,-205.0,77.0,0
3.0,-209.0,-125.0,-581.0,-208.0,81.0,0
4.0,-204.0,-131.0,-586.0,-208.0,89.0,0
1.0,-208.0,-134.0,-602.0,-209.0,93.0,0
4.0,-206.0,-140.0,-626.0,-211.0,103.0,0
-5.0,-204.0,-134.0,-650.0,-212.0,100.0,0
-6.0,-204.0,-137.0,-668.0,-216.0,96.0,0
-3.0,-204.0,-143.0,-686.0,-216.0,84.0,0
-4.0,-207.0,-147.0,-709.0,-212.0,84.0,0
-3.0,-206.0,-140.0,-736.0,-208.0,81.0,0
-4.0,-209.0,-147.0,-755.0,-204.0,78.0,0
-1.0,-212.0,-144.0,-784.0,-201.0,69.0,0
1.0,-209.0,-148.0,-800.0,-191.0,68.0,0
6.0,-212.0,-150.0,-805.0,-180.0,59.0,0
7.0,-214.0,-146.0,-792.0,-169.0,56.0,0
19.0,-213.0,-134.0,-764.0,-164.0,54.0,0
6.0,-203.0,-147.0,-725.0,-167.0,63.0,0
8.0,-205.0,-149.0,-685.0,-175.0,71.0,0
3.0,-198.0,-148.0,-656.0,-192.0,84.0,0
1.0,-200.0,-149.0,-630.0,-205.0,79.0,0
0.0,-198.0,-153.0,-621.0,-213.0,76.0,0
1.0,-194.0,-153.0,-633.0,-217.0,73.0,0
-1.0,-196.0,-150.0,-650.0,-215.0,71.0,0
0.0,-193.0,-155.0,-659.0,-213.0,67.0,0
0.0,-191.0,-157.0,-673.0,-214.0,65.0,0
-3.0,-187.0,-155.0,-686.0,-217.0,58.0,0
1.0,-189.0,-142.0,-695.0,-214.0,56.0,0
-3.0,-193.0,-159.0,-713.0,-209.0,53.0,0
-5.0,-192.0,-157.0,-737.0,-202.0,53.0,0
4.0,-198.0,-148.0,-756.0,-186.0,44.0,0
4.0,-195.0,-151.0,-764.0,-166.0,21.0,0
-2.0,-194.0,-153.0,-764.0,-141.0,8.0,0
2.0,-195.0,-156.0,-759.0,-129.0,11.0,0
7.0,-197.0,-151.0,-745.0,-121.0,14.0,0
4.0,-190.0,-157.0,-720.0,-115.0,22.0,0
10.0,-194.0,-159.0,-696.0,-114.0,28.0,0
9.0,-195.0,-141.0,-686.0,-114.0,25.0,0
7.0,-183.0,-160.0,-677.0,-118.0,20.0,0
7.0,-180.0,-167.0,-668.0,-126.0,30.0,0
7.0,-183.0,-165.0,-680.0,-135.0,34.0,0
8.0,-185.0,-167.0,-705.0,-134.0,31.0,0
8.0,-180.0,-163.0,-739.0,-126.0,26.0,0
11.0,-179.0,-161.0,-754.0,-110.0,28.0,0
9.0,-174.0,-160.0,-756.0,-92.0,22.0,0
13.0,-177.0,-160.0,-758.0,-74.0,21.0,0
12.0,-174.0,-166.0,-766.0,-57.0,7.0,0
15.0,-177.0,-167.0,-768.0,-39.0,1.0,0
11.0,-170.0,-171.0,-779.0,-18.0,-8.0,0
14.0,-174.0,-161.0,-784.0,2.0,-9.0,0
10.0,-168.0,-157.0,-778.0,26.0,-17.0,0
18.0,-180.0,-168.0,-752.0,58.0,-9.0,0
16.0,-186.0,-160.0,-758.0,84.0,-24.0,0
12.0,-187.0,-161.0,-760.0,104.0,-38.0,0
7.0,-187.0,-162.0,-768.0,118.0,-44.0,0
4.0,-177.0,-170.0,-761.0,130.0,-41.0,0
-2.0,-182.0,-171.0,-739.0,139.0,-49.0,0
-7.0,-174.0,-181.0,-723.0,151.0,-50.0,0
-6.0,-174.0,-184.0,-727.0,160.0,-39.0,0
-5.0,-186.0,-201.0,-756.0,167.0,-22.0,0
-13.0,-181.0,-192.0,-809.0,168.0,-24.0,0
-14.0,-179.0,-191.0,-852.0,171.0,-24.0,0
-20.0,-186.0,-197.0,-882.0,173.0,-26.0,0
-14.0,-190.0,-196.0,-933.0,166.0,-16.0,0
-16.0,-189.0,-193.0,-966.0,155.0,-9.0,0
-16.0,-188.0,-195.0,-964.0,137.0,0.0,0
-18.0,-174.0,-188.0,-937.0,116.0,6.0,0
-9.0,-195.0,-193.0,-875.0,99.0,29.0,0
-11.0,-199.0,-195.0,-829.0,79.0,27.0,0
-11.0,-197.0,-195.0,-799.0,70.0,19.0,0
-4.0,-196.0,-194.0,-782.0,73.0,16.0,0
-4.0,-190.0,-192.0,-762.0,80.0,31.0,0
-2.0,-189.0,-194.0,-737.0,82.0,39.0,0
-8.0,-185.0,-190.0,-715.0,79.0,45.0,0
-9.0,-178.0,-188.0,-695.0,72.0,49.0,0
-7.0,-186.0,-198.0,-661.0,64.0,58.0,0
-2.0,-192.0,-204.0,-670.0,59.0,52.0,0
-6.0,-190.0,-206.0,-711.0,58.0,50.0,0
-7.0,-189.0,-198.0,-750.0,61.0,49.0,0
-10.0,-183.0,-199.0,-758.0,74.0,45.0,0
-11.0,-188.0,-205.0,-758.0,89.0,36.0,0
-12.0,-191.0,-206.0,-749.0,104.0,31.0,0
-9.0,-184.0,-205.0,-732.0,124.0,28.0,0
-5.0,-181.0,-201.0,-708.0,136.0,37.0,0
-9.0,-171.0,-198.0,-676.0,140.0,45.0,0
-6.0,-178.0,-206.0,-626.0,139.0,55.0,0
-4.0,-183.0,-208.0,-605.0,139.0,44.0,0
-5.0,-175.0,-201.0,-607.0,144.0,34.0,0
-3.0,-175.0,-194.0,-589.0,148.0,20.0,0
-3.0,-170.0,-198.0,-563.0,148.0,9.0,0
-7.0,-162.0,-196.0,-530.0,150.0,-5.0,0
-3.0,-163.0,-192.0,-488.0,154.0,-12.0,0
-5.0,-162.0,-202.0,-458.0,151.0,-27.0,0
-11.0,-157.0,-191.0,-440.0,147.0,-45.0,0
-11.0,-160.0,-198.0,-435.0,141.0,-62.0,0
-14.0,-157.0,-193.0,-444.0,130.0,-59.0,0
-15.0,-161.0,-189.0,-435.0,128.0,-57.0,0
-16.0,-164.0,-190.0,-429.0,132.0,-68.0,0
-19.0,-160.0,-193.0,-428.0,144.0,-90.0,0
-19.0,-160.0,-192.0,-422.0,155.0,-90.0,0
-14.0,-169.0,-195.0,-416.0,164.0,-87.0,0
-20.0,-152.0,-193.0,-412.0,163.0,-70.0,0
-12.0,-156.0,-202.0,-386.0,145.0,-49.0,0
-3.0,-161.0,-196.0,-375.0,115.0,-31.0,0
-7.0,-161.0,-201.0,-379.0,93.0,-24.0,0
-8.0,-159.0,-196.0,-384.0,74.0,-15.0,0
-2.0,-164.0,-199.0,-376.0,58.0,-17.0,0
-9.0,-156.0,-200.0,-361.0,47.0,-15.0,0
-3.0,-160.0,-201.0,-341.0,38.0,-12.0,0
2.0,-162.0,-205.0,-335.0,33.0,-9.0,0
-4.0,-163.0,-199.0,-346.0,27.0,-25.0,0
2.0,-162.0,-201.0,-370.0,27.0,-34.0,0
-10.0,-158.0,-202.0,-394.0,23.0,-55.0,0
-7.0,-159.0,-200.0,-401.0,15.0,-56.0,0
-11.0,-154.0,-217.0,-393.0,13.0,-62.0,0
-16.0,-159.0,-206.0,-390.0,17.0,-69.0,0
-23.0,-162.0,-209.0,-409.0,22.0,-82.0,0
-26.0,-163.0,-205.0,-427.0,20.0,-79.0,0
-24.0,-160.0,-208.0,-435.0,12.0,-71.0,0
-26.0,-160.0,-211.0,-435.0,-3.0,-55.0,0
-29.0,-159.0,-209.0,-424.0,-19.0,-45.0,0
-26.0,-152.0,-211.0,-405.0,-43.0,-34.0,0
-19.0,-153.0,-209.0,-376.0,-60.0,-29.0,0
-17.0,-151.0,-214.0,-341.0,-72.0,-19.0,0
-12.0,-154.0,-217.0,-321.0,-82.0,-15.0,0
-6.0,-148.0,-221.0,-311.0,-89.0,-14.0,0
-4.0,-146.0,-216.0,-311.0,-96.0,-24.0,0
3.0,-149.0,-215.0,-307.0,-96.0,-21.0,0
4.0,-145.0,-212.0,-302.0,-86.0,-20.0,0
3.0,-143.0,-210.0,-288.0,-77.0,-29.0,0
4.0,-141.0,-209.0,-277.0,-72.0,-42.0,0
6.0,-142.0,-210.0,-279.0,-65.0,-46.0,0
4.0,-143.0,-216.0,-289.0,-62.0,-50.0,0
6.0,-142.0,-220.0,-312.0,-62.0,-48.0,0
-2.0,-142.0,-215.0,-344.0,-61.0,-51.0,0
-2.0,-143.0,-213.0,-375.0,-54.0,-50.0,0
-4.0,-142.0,-213.0,-409.0,-45.0,-46.0,0
-9.0,-142.0,-216.0,-428.0,-39.0,-52.0,0
-12.0,-143.0,-217.0,-438.0,-38.0,-57.0,0
-10.0,-143.0,-218.0,-441.0,-40.0,-50.0,0
-13.0,-144.0,-220.0,-443.0,-37.0,-46.0,0
-9.0,-144.0,-220.0,-447.0,-32.0,-36.0,0
-9.0,-137.0,-217.0,-453.0,-28.0,-34.0,0
1.0,-140.0,-223.0,-455.0,-24.0,-29.0,0
-7.0,-140.0,-225.0,-458.0,-23.0,-40.0,0
-5.0,-137.0,-224.0,-465.0,-22.0,-42.0,0
1.0,-162.0,-223.0,-471.0,-19.0,-45.0,0
-3.0,-138.0,-234.0,-476.0,-10.0,-50.0,0
1.0,-143.0,-233.0,-480.0,0.0,-58.0,0
-4.0,-135.0,-232.0,-479.0,13.0,-71.0,0
-3.0,-137.0,-231.0,-475.0,22.0,-75.0,0
-5.0,-134.0,-237.0,-469.0,34.0,-72.0,0
-4.0,-136.0,-237.0,-460.0,46.0,-69.0,0
-9.0,-136.0,-239.0,-450.0,57.0,-57.0,0
-7.0,-131.0,-240.0,-435.0,62.0,-48.0,0
-6.0,-139.0,-242.0,-422.0,66.0,-30.0,0
-10.0,-142.0,-239.0,-410.0,72.0,-25.0,0
-22.0,-133.0,-248.0,-397.0,70.0,-10.0,0
-4.0,-136.0,-238.0,-387.0,64.0,3.0,0
-4.0,-137.0,-241.0,-376.0,59.0,13.0,0
-6.0,-134.0,-241.0,-366.0,51.0,15.0,0
-11.0,-131.0,-240.0,-355.0,41.0,10.0,0
-3.0,-128.0,-242.0,-346.0,28.0,7.0,0
-6.0,-132.0,-239.0,-350.0,13.0,2.0,0
-9.0,-125.0,-237.0,-360.0,-1.0,-3.0,0
-9.0,-122.0,-240.0,-374.0,-11.0,1.0,0
-11.0,-124.0,-243.0,-393.0,-14.0,-2.0,0
-14.0,-119.0,-236.0,-415.0,-16.0,1.0,0
-25.0,-124.0,-224.0,-421.0,-21.0,10.0,0
-15.0,-125.0,-236.0,-423.0,-24.0,18.0,0
-19.0,-125.0,-237.0,-421.0,-26.0,21.0,0
-18.0,-127.0,-236.0,-419.0,-24.0,25.0,0
-14.0,-128.0,-242.0,-413.0,-22.0,23.0,0
-15.0,-132.0,-239.0,-396.0,-19.0,25.0,0
-14.0,-134.0,-243.0,-373.0,-21.0,19.0,0
-13.0,-129.0,-242.0,-358.0,-17.0,16.0,0
-9.0,-127.0,-240.0,-338.0,-7.0,19.0,0
-9.0,-129.0,-249.0,-308.0,1.0,24.0,0
-8.0,-132.0,-236.0,-284.0,3.0,18.0,0
-6.0,-117.0,-254.0,-258.0,8.0,26.0,0
-13.0,-128.0,-236.0,-226.0,17.0,29.0,0
-14.0,-129.0,-239.0,-191.0,17.0,31.0,0
-13.0,-126.0,-237.0,-159.0,14.0,19.0,0
-15.0,-129.0,-232.0,-129.0,7.0,19.0,0
-19.0,-119.0,-231.0,-112.0,-11.0,-2.0,0
-15.0,-123.0,-232.0,-96.0,-14.0,12.0,0
-21.0,-125.0,-226.0,-77.0,-14.0,17.0,0
-23.0,-124.0,-229.0,-55.0,-20.0,17.0,0
-20.0,-123.0,-230.0,-35.0,-28.0,12.0,0
-16.0,-120.0,-234.0,-17.0,-35.0,16.0,0
-14.0,-115.0,-246.0,-14.0,-37.0,25.0,0
-13.0,-126.0,-235.0,-10.0,-29.0,24.0,0
-13.0,-124.0,-234.0,3.0,-18.0,28.0,0
-16.0,-128.0,-237.0,19.0,-9.0,33.0,0
-15.0,-127.0,-238.0,43.0,-2.0,35.0,0
-16.0,-127.0,-238.0,70.0,0.0,34.0,0
-15.0,-130.0,-234.0,100.0,-5.0,27.0,0
-16.0,-134.0,-237.0,137.0,-13.0,19.0,0
-15.0,-130.0,-231.0,171.0,-14.0,-1.0,0
-16.0,-129.0,-227.0,213.0,-18.0,9.0,0
-23.0,-132.0,-227.0,257.0,-22.0,6.0,0
-6.0,-131.0,-236.0,293.0,-33.0,2.0,0
-16.0,-132.0,-236.0,322.0,-45.0,-8.0,0
-20.0,-130.0,-241.0,343.0,-56.0,-14.0,0
-18.0,-130.0,-240.0,359.0,-60.0,-17.0,0
-18.0,-127.0,-246.0,370.0,-62.0,-27.0,0
-16.0,-128.0,-246.0,382.0,-68.0,-30.0,0
-14.0,-130.0,-243.0,396.0,-71.0,-24.0,0
-11.0,-132.0,-248.0,407.0,-68.0,-19.0,0
-8.0,-135.0,-248.0,420.0,-65.0,-12.0,0
-3.0,-136.0,-246.0,443.0,-55.0,-11.0,0
-1.0,-144.0,-252.0,464.0,-47.0,-14.0,0
9.0,-140.0,-247.0,475.0,-36.0,-38.0,0
-5.0,-140.0,-253.0,513.0,-12.0,-7.0,0
-8.0,-141.0,-251.0,558.0,1.0,0.0,0
-13.0,-137.0,-247.0,592.0,12.0,-2.0,0
-15.0,-136.0,-249.0,618.0,20.0,-6.0,0
-16.0,-131.0,-244.0,636.0,20.0,-11.0,0
-15.0,-132.0,-245.0,639.0,19.0,-21.0,0
-15.0,-132.0,-241.0,634.0,17.0,-29.0,0
-18.0,-132.0,-243.0,626.0,18.0,-36.0,0
-16.0,-133.0,-247.0,613.0,20.0,-37.0,0
-14.0,-136.0,-245.0,592.0,26.0,-45.0,0
-19.0,-142.0,-241.0,581.0,43.0,-44.0,0
-15.0,-145.0,-253.0,594.0,59.0,-46.0,0
-14.0,-148.0,-251.0,619.0,68.0,-44.0,0
-15.0,-151.0,-254.0,645.0,78.0,-42.0,0
-11.0,-153.0,-255.0,672.0,88.0,-38.0,0
-8.0,-159.0,-253.0,702.0,97.0,-37.0,0
-9.0,-163.0,-252.0,727.0,98.0,-31.0,0
-10.0,-164.0,-255.0,746.0,107.0,-31.0,0
-8.0,-170.0,-256.0,759.0,117.0,-24.0,0
-11.0,-173.0,-250.0,777.0,124.0,-21.0,0
-9.0,-171.0,-253.0,791.0,134.0,-20.0,0
-12.0,-180.0,-244.0,814.0,145.0,-23.0,0
-15.0,-172.0,-247.0,832.0,159.0,-21.0,0
-18.0,-170.0,-248.0,845.0,169.0,-21.0,0
-19.0,-167.0,-244.0,853.0,178.0,-19.0,0
-13.0,-162.0,-243.0,856.0,185.0,-19.0,0
-15.0,-165.0,-246.0,851.0,190.0,-15.0,0
-15.0,-166.0,-245.0,839.0,197.0,-11.0,0
-16.0,-165.0,-246.0,826.0,202.0,-5.0,0
-17.0,-169.0,-247.0,820.0,209.0,-2.0,0
-28.0,-169.0,-240.0,818.0,217.0,7.0,0
-43.0,-169.0,-244.0,816.0,221.0,11.0,0
-25.0,-170.0,-241.0,815.0,219.0,16.0,0
-25.0,-169.0,-245.0,816.0,208.0,15.0,0
-24.0,-172.0,-239.0,816.0,190.0,16.0,0
-23.0,-173.0,-240.0,812.0,171.0,15.0,0
-24.0,-176.0,-239.0,805.0,151.0,15.0,0
-21.0,-177.0,-236.0,802.0,133.0,10.0,0
-25.0,-177.0,-234.0,800.0,118.0,7.0,0
-23.0,-177.0,-232.0,802.0,107.0,0.0,0
-26.0,-171.0,-234.0,801.0,102.0,-4.0,0
-22.0,-173.0,-231.0,794.0,97.0,-8.0,0
-20.0,-172.0,-224.0,783.0,98.0,-5.0,0
-36.0,-176.0,-219.0,771.0,98.0,-3.0,0
-17.0,-175.0,-230.0,759.0,97.0,3.0,0
-17.0,-172.0,-219.0,747.0,95.0,7.0,0
-15.0,-176.0,-221.0,737.0,92.0,14.0,0
-14.0,-177.0,-218.0,729.0,86.0,19.0,0
-13.0,-181.0,-217.0,723.0,80.0,25.0,0
-13.0,-183.0,-215.0,721.0,73.0,26.0,0
-15.0,-185.0,-215.0,722.0,66.0,28.0,0
-12.0,-183.0,-220.0,721.0,65.0,25.0,0
-12.0,-185.0,-217.0,718.0,68.0,23.0,0
-13.0,-186.0,-213.0,715.0,75.0,19.0,0
-9.0,-186.0,-215.0,708.0,82.0,18.0,0
-12.0,-186.0,-217.0,701.0,90.0,15.0,0
-12.0,-187.0,-212.0,693.0,97.0,17.0,0
-11.0,-191.0,-214.0,685.0,100.0,16.0,0
-14.0,-188.0,-214.0,675.0,105.0,19.0,0
-12.0,-190.0,-213.0,668.0,108.0,20.0,0
-10.0,-191.0,-208.0,666.0,115.0,21.0,0
-5.0,-192.0,-209.0,659.0,121.0,23.0,0
-6.0,-191.0,-208.0,651.0,130.0,27.0,0
-2.0,-194.0,-206.0,641.0,139.0,28.0,0
2.0,-213.0,-196.0,630.0,144.0,27.0,0
0.0,-203.0,-201.0,620.0,145.0,25.0,0
-4.0,-195.0,-200.0,600.0,145.0,28.0,0
-7.0,-189.0,-196.0,571.0,151.0,30.0,0
-7.0,-181.0,-203.0,536.0,159.0,37.0,0
-14.0,-170.0,-204.0,489.0,166.0,39.0,0
-16.0,-170.0,-208.0,434.0,173.0,42.0,0
-16.0,-175.0,-209.0,369.0,178.0,42.0,0
-16.0,-181.0,-206.0,332.0,178.0,42.0,0
-18.0,-186.0,-213.0,312.0,178.0,40.0,0
-17.0,-192.0,-217.0,305.0,180.0,41.0,0
-5.0,-219.0,-221.0,312.0,187.0,42.0,0
-15.0,-202.0,-225.0,331.0,197.0,45.0,0
-15.0,-204.0,-225.0,357.0,207.0,44.0,0
-12.0,-206.0,-223.0,391.0,212.0,45.0,0
-14.0,-202.0,-218.0,429.0,211.0,44.0,0
-15.0,-203.0,-217.0,462.0,205.0,43.0,0
-14.0,-202.0,-212.0,495.0,196.0,40.0,0
-17.0,-199.0,-209.0,514.0,187.0,39.0,0
-16.0,-204.0,-207.0,528.0,177.0,34.0,0
-16.0,-194.0,-204.0,536.0,171.0,29.0,0
-15.0,-187.0,-210.0,541.0,165.0,23.0,0
4.0,-191.0,-196.0,541.0,163.0,20.0,0
-15.0,-192.0,-194.0,540.0,160.0,15.0,0
-11.0,-193.0,-186.0,539.0,157.0,13.0,0
-10.0,-194.0,-190.0,539.0,155.0,10.0,0
-10.0,-192.0,-190.0,540.0,156.0,8.0,0
-11.0,-194.0,-189.0,540.0,155.0,6.0,0
-9.0,-195.0,-188.0,545.0,154.0,4.0,0
-14.0,-194.0,-188.0,552.0,155.0,0.0,0
-13.0,-197.0,-183.0,569.0,154.0,-3.0,0
-14.0,-200.0,-181.0,593.0,150.0,-8.0,0
-14.0,-202.0,-173.0,622.0,146.0,-10.0,0
-12.0,-213.0,-154.0,656.0,135.0,-11.0,0
-14.0,-200.0,-171.0,688.0,126.0,-9.0,0
-11.0,-203.0,-166.0,723.0,118.0,-11.0,0
-13.0,-199.0,-165.0,756.0,111.0,-12.0,0
-13.0,-197.0,-158.0,792.0,107.0,-16.0,0
-13.0,-198.0,-157.0,822.0,104.0,-21.0,0
-11.0,-198.0,-156.0,855.0,104.0,-25.0,0
-14.0,-195.0,-148.0,888.0,105.0,-29.0,0
-15.0,-193.0,-152.0,921.0,108.0,-37.0,0
-16.0,-193.0,-144.0,953.0,112.0,-45.0,0
-16.0,-189.0,-137.0,986.0,121.0,-56.0,0
-14.0,-193.0,-138.0,1026.0,127.0,-64.0,0
-13.0,-191.0,-137.0,1074.0,139.0,-73.0,0
-12.0,-190.0,-139.0,1122.0,155.0,-75.0,0
-10.0,-192.0,-135.0,1171.0,165.0,-77.0,0
-12.0,-188.0,-135.0,1209.0,169.0,-78.0,0
-14.0,-184.0,-130.0,1251.0,178.0,-79.0,0
-15.0,-184.0,-116.0,1299.0,194.0,-78.0,0
-16.0,-183.0,-112.0,1345.0,227.0,-74.0,0
-14.0,-188.0,-105.0,1379.0,260.0,-53.0,0
-9.0,-189.0,-92.0,1389.0,283.0,-25.0,0
-9.0,-194.0,-85.0,1384.0,291.0,10.0,0
-7.0,-199.0,-73.0,1372.0,280.0,34.0,0
-15.0,-192.0,-83.0,1358.0,252.0,51.0,0
-18.0,-193.0,-81.0,1341.0,224.0,59.0,0
-31.0,-199.0,-74.0,1335.0,196.0,67.0,0
-38.0,-209.0,-66.0,1348.0,153.0,82.0,0
-42.0,-225.0,-63.0,1384.0,84.0,93.0,0
-45.0,-255.0,-65.0,1420.0,0.0,87.0,0
-48.0,-299.0,-68.0,1420.0,-83.0,57.0,0
-52.0,-353.0,-82.0,1372.0,-142.0,-4.0,0
-57.0,-432.0,-89.0,1294.0,-190.0,-72.0,0
-51.0,-529.0,-99.0,1203.0,-260.0,-118.0,0
-11.0,-639.0,-140.0,1083.0,-340.0,-137.0,0
28.0,-683.0,-200.0,908.0,-300.0,-169.0,0
49.0,-664.0,-284.0,869.0,-131.0,-239.0,0
57.0,-563.0,-356.0,992.0,31.0,-294.0,0
55.0,-465.0,-364.0,1150.0,104.0,-322.0,0
44.0,-377.0,-338.0,1318.0,143.0,-319.0,0
38.0,-313.0,-287.0,1525.0,202.0,-290.0,0
15.0,-261.0,-190.0,1832.0,289.0,-258.0,0
1.0,-200.0,-89.0,2261.0,369.0,-227.0,0
-2.0,-144.0,-34.0,2754.0,404.0,-195.0,0
5.0,-51.0,-18.0,3182.0,382.0,-150.0,0
-2.0,41.0,-11.0,3417.0,315.0,-129.0,0
-2.0,119.0,-11.0,3292.0,214.0,-110.0,0
8.0,151.0,-22.0,2894.0,84.0,-76.0,0
21.0,126.0,-32.0,2284.0,-39.0,-20.0,0
32.0,49.0,-32.0,1521.0,-115.0,49.0,0
29.0,-31.0,-17.0,727.0,-132.0,104.0,0
33.0,-129.0,-9.0,62.0,-113.0,142.0,0
23.0,-212.0,-12.0,-416.0,-79.0,162.0,0
16.0,-287.0,-14.0,-703.0,-32.0,158.0,0
15.0,-341.0,-20.0,-808.0,15.0,128.0,0
8.0,-386.0,-33.0,-719.0,61.0,87.0,0
17.0,-423.0,-39.0,-498.0,80.0,41.0,0
19.0,-441.0,-48.0,-183.0,88.0,-12.0,0
16.0,-433.0,-54.0,180.0,94.0,-58.0,0
16.0,-413.0,-67.0,524.0,96.0,-96.0,0
14.0,-389.0,-75.0,827.0,90.0,-124.0,0
14.0,-357.0,-73.0,1093.0,85.0,-145.0,0
13.0,-323.0,-83.0,1318.0,78.0,-149.0,0
12.0,-285.0,-83.0,1490.0,69.0,-151.0,0
10.0,-254.0,-89.0,1592.0,58.0,-141.0,0
6.0,-223.0,-86.0,1611.0,40.0,-132.0,0
5.0,-182.0,-96.0,1557.0,23.0,-123.0,0
-4.0,-177.0,-66.0,1456.0,7.0,-113.0,0
-5.0,-164.0,-58.0,1326.0,-6.0,-106.0,0
-13.0,-162.0,-48.0,1172.0,-18.0,-92.0,0
-9.0,-168.0,-42.0,1004.0,-30.0,-73.0,0
-7.0,-179.0,-44.0,823.0,-42.0,-59.0,0
-3.0,-187.0,-41.0,637.0,-55.0,-43.0,0
2.0,-200.0,-40.0,471.0,-61.0,-27.0,0
1.0,-213.0,-38.0,342.0,-67.0,-7.0,0
5.0,-230.0,-44.0,243.0,-69.0,4.0,0
15.0,-251.0,-42.0,202.0,-69.0,10.0,0
7.0,-256.0,-52.0,191.0,-68.0,9.0,0
5.0,-267.0,-54.0,207.0,-68.0,9.0,0
8.0,-278.0,-53.0,246.0,-68.0,6.0,0
7.0,-286.0,-53.0,300.0,-64.0,-1.0,0
5.0,-289.0,-54.0,365.0,-54.0,-10.0,0
4.0,-286.0,-52.0,429.0,-40.0,-19.0,0
1.0,-289.0,-54.0,492.0,-26.0,-27.0,0
-2.0,-280.0,-51.0,547.0,-14.0,-32.0,0
-3.0,-272.0,-46.0,599.0,1.0,-36.0,0
-7.0,-263.0,-54.0,629.0,16.0,-37.0,0
-13.0,-267.0,-16.0,647.0,29.0,-37.0,0
-7.0,-245.0,-46.0,648.0,40.0,-33.0,0
-9.0,-238.0,-41.0,638.0,45.0,-26.0,0
-9.0,-232.0,-41.0,619.0,46.0,-17.0,0
-9.0,-226.0,-37.0,593.0,41.0,-8.0,0
-8.0,-226.0,-36.0,563.0,30.0,1.0,0
-7.0,-227.0,-30.0,530.0,15.0,8.0,0
-4.0,-230.0,-29.0,495.0,-6.0,14.0,0
-2.0,-231.0,-30.0,454.0,-25.0,17.0,0
-2.0,-235.0,-21.0,422.0,-43.0,15.0,0
-3.0,-238.0,-23.0,401.0,-52.0,13.0,0
9.0,-249.0,-12.0,388.0,-60.0,9.0,0
2.0,-252.0,-22.0,380.0,-61.0,3.0,0
2.0,-255.0,-17.0,379.0,-56.0,-1.0,0
5.0,-256.0,-22.0,381.0,-47.0,-5.0,0
3.0,-255.0,-22.0,384.0,-38.0,-9.0,0
6.0,-255.0,-20.0,391.0,-25.0,-12.0,0
5.0,-256.0,-24.0,397.0,-11.0,-16.0,0
3.0,-255.0,-19.0,400.0,0.0,-18.0,0
0.0,-252.0,-24.0,399.0,7.0,-16.0,0
4.0,-256.0,-19.0,397.0,9.0,-14.0,0
4.0,-252.0,-16.0,394.0,8.0,-12.0,0
16.0,-253.0,-22.0,389.0,4.0,-10.0,0
3.0,-250.0,-18.0,380.0,-4.0,-6.0,0
1.0,-253.0,-12.0,370.0,-14.0,-3.0,0
-1.0,-247.0,-12.0,365.0,-25.0,-1.0,0
1.0,-248.0,-11.0,360.0,-32.0,1.0,0
2.0,-247.0,-14.0,353.0,-36.0,1.0,0
3.0,-247.0,-11.0,342.0,-34.0,0.0,0
3.0,-246.0,-16.0,324.0,-34.0,0.0,0
3.0,-241.0,-16.0,306.0,-30.0,-3.0,0
7.0,-243.0,-17.0,285.0,-25.0,-6.0,0
3.0,-241.0,-16.0,265.0,-18.0,-10.0,0
9.0,-243.0,-10.0,243.0,-11.0,-13.0,0
5.0,-246.0,-17.0,224.0,-2.0,-15.0,0
4.0,-244.0,-21.0,208.0,4.0,-16.0,0
3.0,-249.0,-16.0,197.0,7.0,-17.0,0
1.0,-252.0,-9.0,190.0,11.0,-18.0,0
-2.0,-255.0,-8.0,186.0,7.0,-15.0,0
-2.0,-257.0,-4.0,186.0,-3.0,-11.0,0
0.0,-258.0,-5.0,195.0,-22.0,-5.0,0
4.0,-258.0,-3.0,209.0,-47.0,-3.0,0
3.0,-255.0,-2.0,225.0,-73.0,-3.0,0
7.0,-250.0,-12.0,239.0,-91.0,-4.0,0
12.0,-242.0,-25.0,254.0,-97.0,-3.0,0
9.0,-244.0,-14.0,256.0,-90.0,-5.0,0
6.0,-240.0,-21.0,245.0,-74.0,-10.0,0
2.0,-241.0,-21.0,220.0,-48.0,-18.0,0
2.0,-239.0,-20.0,177.0,-31.0,-21.0,0
3.0,-243.0,-19.0,137.0,-20.0,-22.0,0
2.0,-245.0,-17.0,99.0,-20.0,-18.0,0
2.0,-252.0,-15.0,72.0,-23.0,-13.0,0
-4.0,-252.0,-8.0,56.0,-27.0,-10.0,0
-5.0,-253.0,-9.0,56.0,-34.0,-6.0,0
-7.0,-254.0,-10.0,63.0,-42.0,0.0,0
4.0,-254.0,1.0,73.0,-50.0,4.0,0
-6.0,-251.0,-7.0,80.0,-60.0,8.0,0
-2.0,-252.0,-2.0,81.0,-67.0,10.0,0
-4.0,-250.0,-5.0,79.0,-67.0,12.0,0
2.0,-251.0,-3.0,73.0,-63.0,8.0,0
1.0,-250.0,-6.0,64.0,-56.0,6.0,0
-1.0,-247.0,-3.0,52.0,-49.0,-1.0,0
5.0,-250.0,-5.0,39.0,-38.0,-6.0,0
3.0,-249.0,-2.0,25.0,-26.0,-14.0,0
4.0,-252.0,6.0,11.0,-10.0,-22.0,0
2.0,-249.0,0.0,5.0,3.0,-25.0,0
-2.0,-247.0,-4.0,5.0,14.0,-26.0,0
-7.0,-245.0,4.0,8.0,21.0,-24.0,0
-4.0,-245.0,1.0,11.0,20.0,-18.0,0
-8.0,-244.0,0.0,11.0,14.0,-9.0,0
-10.0,-244.0,1.0,7.0,8.0,0.0,0
-8.0,-244.0,-1.0,0.0,0.0,9.0,0
-7.0,-243.0,-7.0,-14.0,-9.0,18.0,0
-6.0,-242.0,-5.0,-31.0,-13.0,24.0,0
-6.0,-244.0,-6.0,-52.0,-11.0,29.0,0
-5.0,-250.0,-13.0,-70.0,-3.0,30.0,0
-5.0,-253.0,-8.0,-90.0,7.0,28.0,0
-4.0,-250.0,-5.0,-106.0,22.0,24.0,0
3.0,-253.0,0.0,-116.0,32.0,23.0,0
5.0,-254.0,-1.0,-123.0,41.0,19.0,0
4.0,-254.0,-7.0,-127.0,48.0,13.0,0
5.0,-251.0,-8.0,-133.0,50.0,8.0,0
3.0,-247.0,-10.0,-141.0,50.0,3.0,0
2.0,-244.0,-10.0,-149.0,48.0,-1.0,0
6.0,-248.0,-11.0,-160.0,47.0,-6.0,0
4.0,-245.0,-9.0,-171.0,46.0,-12.0,0
2.0,-244.0,-12.0,-181.0,44.0,-15.0,0
1.0,-254.0,-13.0,-189.0,42.0,-18.0,0
3.0,-248.0,-10.0,-195.0,41.0,-17.0,0
1.0,-250.0,-13.0,-198.0,39.0,-16.0,0
4.0,-246.0,-10.0,-202.0,38.0,-11.0,0
3.0,-251.0,-13.0,-207.0,39.0,-8.0,0
3.0,-247.0,-11.0,-210.0,37.0,-3.0,0
4.0,-247.0,-10.0,-214.0,38.0,1.0,0
4.0,-248.0,-16.0,-222.0,41.0,6.0,0
6.0,-248.0,-14.0,-231.0,46.0,10.0,0
2.0,-250.0,-17.0,-237.0,49.0,16.0,0
5.0,-250.0,-14.0,-243.0,51.0,15.0,0
6.0,-255.0,-28.0,-244.0,51.0,16.0,0
6.0,-255.0,-15.0,-231.0,51.0,11.0,0
6.0,-257.0,-18.0,-213.0,50.0,7.0,0
4.0,-256.0,-19.0,-190.0,49.0,2.0,0
5.0,-256.0,-19.0,-165.0,49.0,-2.0,0
3.0,-256.0,-16.0,-143.0,50.0,-5.0,0
4.0,-257.0,-18.0,-126.0,50.0,-9.0,0
4.0,-253.0,-17.0,-115.0,52.0,-10.0,0
1.0,-252.0,-17.0,-111.0,55.0,-14.0,0
1.0,-251.0,-20.0,-110.0,60.0,-17.0,0
-1.0,-249.0,-16.0,-117.0,69.0,-16.0,0
-6.0,-256.0,-6.0,-127.0,75.0,-18.0,0
-2.0,-252.0,-14.0,-138.0,81.0,-17.0,0
-2.0,-250.0,-14.0,-147.0,84.0,-16.0,0
2.0,-255.0,-15.0,-157.0,88.0,-15.0,0
-2.0,-253.0,-13.0,-161.0,91.0,-10.0,0
1.0,-254.0,-13.0,-165.0,91.0,-9.0,0
0.0,-255.0,-15.0,-168.0,94.0,-7.0,0
0.0,-255.0,-17.0,-173.0,97.0,-7.0,0
2.0,-254.0,-17.0,-179.0,98.0,-7.0,0
2.0,-254.0,-20.0,-185.0,99.0,-4.0,0
2.0,-251.0,-26.0,-188.0,101.0,-5.0,0
11.0,-267.0,-22.0,-189.0,95.0,-3.0,0
4.0,-254.0,-31.0,-194.0,85.0,-5.0,0
5.0,-252.0,-25.0,-195.0,77.0,-10.0,0
4.0,-252.0,-28.0,-195.0,74.0,-19.0,0
5.0,-246.0,-31.0,-191.0,74.0,-29.0,0
1.0,-249.0,-29.0,-186.0,76.0,-37.0,0
8.0,-248.0,-27.0,-182.0,78.0,-42.0,0
6.0,-249.0,-23.0,-180.0,83.0,-48.0,0
5.0,-244.0,-28.0,-182.0,85.0,-48.0,0
2.0,-247.0,-27.0,-188.0,88.0,-48.0,0
4.0,-245.0,-24.0,-196.0,91.0,-45.0,0
12.0,-251.0,-21.0,-210.0,92.0,-40.0,0
-1.0,-246.0,-27.0,-226.0,94.0,-33.0,0
-2.0,-244.0,-24.0,-242.0,95.0,-27.0,0
-1.0,-247.0,-24.0,-261.0,93.0,-20.0,0
-1.0,-247.0,-25.0,-278.0,91.0,-14.0,0
-5.0,-247.0,-24.0,-296.0,87.0,-11.0,0
-3.0,-250.0,-24.0,-312.0,85.0,-9.0,0
-1.0,-245.0,-24.0,-332.0,80.0,-6.0,0
-2.0,-250.0,-27.0,-344.0,77.0,-6.0,0
-1.0,-249.0,-27.0,-356.0,74.0,-4.0,0
2.0,-248.0,-32.0,-369.0,69.0,-4.0,0
0.0,-244.0,-31.0,-379.0,63.0,-2.0,0
1.0,-251.0,-30.0,-390.0,57.0,-2.0,0
4.0,-249.0,-34.0,-394.0,53.0,0.0,0
2.0,-253.0,-35.0,-394.0,50.0,1.0,0
1.0,-253.0,-33.0,-388.0,47.0,1.0,0
4.0,-257.0,-33.0,-375.0,45.0,2.0,0
1.0,-257.0,-35.0,-352.0,43.0,6.0,0
1.0,-254.0,-35.0,-328.0,38.0,7.0,0
3.0,-254.0,-37.0,-303.0,32.0,11.0,0
-2.0,-253.0,-37.0,-278.0,25.0,9.0,0
3.0,-253.0,-30.0,-256.0,22.0,10.0,0
7.0,-245.0,-48.0,-239.0,18.0,10.0,0
3.0,-251.0,-38.0,-229.0,17.0,11.0,0
6.0,-251.0,-40.0,-222.0,15.0,11.0,0
5.0,-254.0,-38.0,-217.0,12.0,13.0,0
7.0,-253.0,-46.0,-211.0,10.0,11.0,0
3.0,-253.0,-44.0,-202.0,11.0,12.0,0
2.0,-253.0,-46.0,-193.0,11.0,10.0,0
5.0,-252.0,-45.0,-183.0,12.0,10.0,0
3.0,-253.0,-39.0,-174.0,13.0,5.0,0
6.0,-254.0,-44.0,-166.0,16.0,1.0,0
3.0,-249.0,-44.0,-162.0,24.0,-5.0,0
7.0,-256.0,-39.0,-162.0,33.0,-7.0,0
1.0,-251.0,-42.0,-165.0,38.0,-9.0,0
0.0,-256.0,-40.0,-174.0,41.0,-9.0,0
-3.0,-255.0,-40.0,-180.0,42.0,-9.0,0
-1.0,-256.0,-41.0,-183.0,40.0,-4.0,0
-7.0,-257.0,-38.0,-179.0,39.0,-4.0,0
-2.0,-260.0,-37.0,-168.0,36.0,1.0,0
-8.0,-260.0,-38.0,-153.0,33.0,0.0,0
-4.0,-258.0,-33.0,-137.0,30.0,2.0,0
-6.0,-258.0,-44.0,-122.0,31.0,1.0,0
-2.0,-270.0,-36.0,-107.0,33.0,1.0,0
-5.0,-256.0,-45.0,-94.0,37.0,-1.0,0
-7.0,-253.0,-45.0,-82.0,43.0,0.0,0
-7.0,-251.0,-45.0,-76.0,49.0,-3.0,0
-7.0,-250.0,-50.0,-71.0,56.0,-2.0,0
-8.0,-249.0,-46.0,-72.0,60.0,-6.0,0
-5.0,-248.0,-40.0,-73.0,61.0,-5.0,0
-3.0,-245.0,-42.0,-77.0,61.0,-8.0,0
-5.0,-251.0,-46.0,-80.0,59.0,-8.0,0
1.0,-245.0,-49.0,-80.0,56.0,-10.0,0
-4.0,-248.0,-46.0,-80.0,54.0,-11.0,0
5.0,-246.0,-55.0,-82.0,54.0,-12.0,0
-2.0,-249.0,-49.0,-81.0,51.0,-13.0,0
2.0,-253.0,-46.0,-80.0,51.0,-16.0,0
6.0,-253.0,-45.0,-78.0,52.0,-15.0,0
5.0,-254.0,-50.0,-70.0,53.0,-19.0,0
3.0,-253.0,-50.0,-60.0,57.0,-17.0,0
4.0,-253.0,-50.0,-49.0,59.0,-20.0,0
4.0,-253.0,-50.0,-36.0,62.0,-19.0,0
2.0,-251.0,-48.0,-26.0,64.0,-19.0,0
4.0,-249.0,-50.0,-16.0,67.0,-18.0,0
3.0,-251.0,-53.0,-8.0,67.0,-18.0,0
-1.0,-249.0,-57.0,-2.0,69.0,-15.0,0
5.0,-253.0,-53.0,3.0,70.0,-14.0,0
6.0,-252.0,-49.0,8.0,70.0,-11.0,0
7.0,-251.0,-50.0,12.0,68.0,-11.0,0
6.0,-252.0,-51.0,16.0,63.0,-8.0,0
4.0,-254.0,-52.0,21.0,60.0,-9.0,0
5.0,-253.0,-50.0,28.0,58.0,-8.0,0
2.0,-253.0,-50.0,36.0,56.0,-11.0,0
2.0,-253.0,-48.0,44.0,56.0,-11.0,0
2.0,-251.0,-48.0,50.0,54.0,-15.0,0
-3.0,-251.0,-45.0,54.0,56.0,-16.0,0
6.0,-248.0,-44.0,53.0,55.0,-18.0,0
1.0,-251.0,-47.0,53.0,55.0,-16.0,0
2.0,-251.0,-46.0,50.0,54.0,-19.0,0
-1.0,-250.0,-48.0,50.0,53.0,-16.0,0
1.0,-253.0,-44.0,47.0,53.0,-16.0,0
-1.0,-250.0,-44.0,47.0,54.0,-14.0,0
2.0,-250.0,-45.0,46.0,53.0,-16.0,0
2.0,-251.0,-48.0,44.0,51.0,-15.0,0
3.0,-252.0,-46.0,43.0,48.0,-16.0,0
3.0,-249.0,-45.0,42.0,46.0,-14.0,0
1.0,-252.0,-44.0,39.0,45.0,-15.0,0
3.0,-252.0,-30.0,39.0,44.0,-14.0,0
1.0,-252.0,-37.0,39.0,44.0,-17.0,0
1.0,-253.0,-39.0,39.0,41.0,-14.0,0
0.0,-251.0,-39.0,40.0,44.0,-14.0,0
1.0,-252.0,-35.0,40.0,44.0,-10.0,0
1.0,-250.0,-39.0,38.0,45.0,-10.0,0
-1.0,-250.0,-36.0,37.0,48.0,-9.0,0
-1.0,-251.0,-38.0,34.0,50.0,-11.0,0
3.0,-251.0,-39.0,32.0,48.0,-8.0,0
-3.0,-253.0,-37.0,29.0,49.0,-9.0,0
2.0,-250.0,-35.0,29.0,50.0,-11.0,0
5.0,-251.0,-41.0,28.0,53.0,-15.0,0
0.0,-250.0,-37.0,28.0,53.0,-13.0,0
1.0,-248.0,-38.0,29.0,56.0,-14.0,0
-1.0,-248.0,-36.0,27.0,56.0,-12.0,0
3.0,-252.0,-39.0,28.0,55.0,-14.0,0
0.0,-253.0,-33.0,29.0,57.0,-11.0,0
2.0,-252.0,-38.0,30.0,56.0,-15.0,0
-1.0,-250.0,-40.0,28.0,54.0,-14.0,0
1.0,-253.0,-39.0,29.0,53.0,-14.0,0
-3.0,-252.0,-40.0,30.0,54.0,-13.0,0
-1.0,-253.0,-37.0,33.0,52.0,-15.0,0
4.0,-247.0,-50.0,38.0,52.0,-15.0,0
1.0,-252.0,-40.0,40.0,51.0,-16.0,0
3.0,-255.0,-41.0,42.0,51.0,-15.0,0
3.0,-249.0,-43.0,41.0,52.0,-17.0,0
1.0,-248.0,-40.0,40.0,52.0,-15.0,0
1.0,-250.0,-46.0,38.0,53.0,-17.0,0
0.0,-248.0,-44.0,37.0,54.0,-14.0,0
3.0,-251.0,-43.0,34.0,54.0,-14.0,0
2.0,-248.0,-40.0,34.0,55.0,-10.0,0
0.0,-251.0,-40.0,33.0,53.0,-12.0,0
1.0,-253.0,-44.0,36.0,54.0,-12.0,0
8.0,-251.0,-30.0,38.0,53.0,-13.0,0
1.0,-252.0,-42.0,41.0,52.0,-11.0,0
5.0,-254.0,-43.0,43.0,52.0,-13.0,0
2.0,-250.0,-42.0,43.0,51.0,-12.0,0
3.0,-251.0,-39.0,41.0,51.0,-13.0,0
2.0,-252.0,-41.0,40.0,50.0,-11.0,0
4.0,-252.0,-42.0,37.0,49.0,-13.0,0
3.0,-249.0,-42.0,35.0,47.0,-12.0,0
0.0,-250.0,-42.0,30.0,47.0,-14.0,0
2.0,-245.0,-40.0,26.0,44.0,-11.0,0
3.0,-251.0,-39.0,21.0,44.0,-12.0,0
2.0,-240.0,-47.0,21.0,46.0,-10.0,0
4.0,-251.0,-35.0,22.0,45.0,-11.0,0
3.0,-251.0,-36.0,24.0,45.0,-9.0,0
2.0,-250.0,-41.0,27.0,47.0,-9.0,0
0.0,-251.0,-37.0,30.0,47.0,-8.0,0
4.0,-251.0,-37.0,31.0,48.0,-11.0,0
5.0,-250.0,-36.0,30.0,49.0,-8.0,0
-1.0,-249.0,-39.0,27.0,48.0,-11.0,0
2.0,-247.0,-36.0,23.0,48.0,-6.0,0
3.0,-251.0,-37.0,19.0,49.0,-7.0,0
7.0,-245.0,-52.0,15.0,49.0,-3.0,0
1.0,-253.0,-33.0,13.0,50.0,-5.0,0
2.0,-253.0,-34.0,14.0,50.0,-5.0,0
1.0,-254.0,-37.0,17.0,50.0,-8.0,0
0.0,-252.0,-37.0,19.0,50.0,-7.0,0
5.0,-252.0,-38.0,24.0,50.0,-9.0,0
4.0,-250.0,-37.0,25.0,50.0,-8.0,0
2.0,-251.0,-35.0,27.0,50.0,-12.0,0
3.0,-252.0,-36.0,26.0,50.0,-11.0,0
3.0,-249.0,-34.0,24.0,49.0,-14.0,0
1.0,-249.0,-32.0,21.0,50.0,-12.0,0
7.0,-243.0,-55.0,16.0,50.0,-12.0,0
2.0,-248.0,-35.0,14.0,48.0,-12.0,0
4.0,-251.0,-37.0,12.0,48.0,-12.0,0
2.0,-251.0,-37.0,8.0,49.0,-10.0,0
3.0,-252.0,-35.0,7.0,50.0,-10.0,0
1.0,-251.0,-36.0,4.0,50.0,-8.0,0
1.0,-249.0,-40.0,4.0,52.0,-9.0,0
6.0,-255.0,-37.0,4.0,52.0,-7.0,0
1.0,-253.0,-34.0,6.0,52.0,-10.0,0
5.0,-251.0,-36.0,6.0,53.0,-9.0,0
-1.0,-250.0,-40.0,6.0,52.0,-12.0,0
0.0,-255.0,-18.0,6.0,54.0,-11.0,0
3.0,-248.0,-37.0,5.0,54.0,-14.0,0
4.0,-254.0,-35.0,4.0,55.0,-10.0,0
4.0,-251.0,-35.0,2.0,55.0,-11.0,0
3.0,-252.0,-37.0,0.0,55.0,-7.0,0
2.0,-253.0,-34.0,0.0,55.0,-9.0,0
3.0,-254.0,-38.0,1.0,55.0,-5.0,0
3.0,-250.0,-38.0,2.0,55.0,-6.0,0
1.0,-255.0,-35.0,4.0,58.0,-4.0,0
4.0,-254.0,-36.0,8.0,59.0,-5.0,0
2.0,-252.0,-38.0,11.0,60.0,-3.0,0
-5.0,-259.0,-17.0,14.0,60.0,-6.0,0
-1.0,-253.0,-35.0,17.0,60.0,-5.0,0
4.0,-253.0,-38.0,19.0,60.0,-10.0,0
3.0,-251.0,-35.0,21.0,62.0,-9.0,0
1.0,-251.0,-36.0,21.0,62.0,-12.0,0
2.0,-249.0,-38.0,21.0,64.0,-10.0,0
5.0,-250.0,-37.0,19.0,64.0,-12.0,0
6.0,-251.0,-37.0,16.0,66.0,-9.0,0
3.0,-249.0,-40.0,14.0,66.0,-11.0,0
5.0,-247.0,-31.0,12.0,66.0,-8.0,0
0.0,-248.0,-35.0,11.0,66.0,-9.0,0
10.0,-256.0,-21.0,9.0,66.0,-7.0,0
2.0,-250.0,-31.0,8.0,63.0,-9.0,0
4.0,-253.0,-37.0,8.0,65.0,-8.0,0
0.0,-250.0,-34.0,9.0,63.0,-11.0,0
2.0,-253.0,-34.0,9.0,63.0,-8.0,0
2.0,-254.0,-36.0,8.0,62.0,-10.0,0
2.0,-255.0,-35.0,11.0,63.0,-8.0,0
2.0,-254.0,-34.0,10.0,64.0,-12.0,0
-1.0,-253.0,-32.0,12.0,65.0,-11.0,0
6.0,-256.0,-35.0,13.0,65.0,-12.0,0
4.0,-252.0,-33.0,17.0,66.0,-9.0,0
3.0,-249.0,-49.0,19.0,66.0,-13.0,0
4.0,-251.0,-38.0,21.0,67.0,-11.0,0
1.0,-250.0,-33.0,24.0,69.0,-12.0,0
2.0,-249.0,-35.0,26.0,67.0,-8.0,0
2.0,-251.0,-36.0,28.0,67.0,-10.0,0
0.0,-251.0,-36.0,26.0,68.0,-8.0,0
3.0,-253.0,-34.0,25.0,68.0,-11.0,0
-2.0,-252.0,-36.0,24.0,67.0,-9.0,0
2.0,-254.0,-30.0,24.0,69.0,-10.0,0
3.0,-254.0,-38.0,25.0,68.0,-6.0,0
3.0,-251.0,-32.0,27.0,68.0,-8.0,0
-3.0,-247.0,-37.0,27.0,68.0,-7.0,0
1.0,-253.0,-38.0,26.0,68.0,-7.0,0
1.0,-251.0,-33.0,24.0,67.0,-5.0,0
3.0,-250.0,-36.0,22.0,68.0,-8.0,0
3.0,-251.0,-34.0,23.0,67.0,-6.0,0
3.0,-249.0,-37.0,21.0,65.0,-10.0,0
6.0,-252.0,-36.0,19.0,66.0,-8.0,0
1.0,-248.0,-31.0,17.0,68.0,-11.0,0
4.0,-249.0,-34.0,12.0,68.0,-10.0,0
3.0,-248.0,-33.0,6.0,66.0,-12.0,0
5.0,-252.0,-34.0,4.0,65.0,-8.0,0
4.0,-252.0,-29.0,2.0,64.0,-11.0,0
3.0,-249.0,-33.0,1.0,64.0,-8.0,0
1.0,-255.0,-38.0,4.0,64.0,-11.0,0
3.0,-252.0,-33.0,6.0,64.0,-9.0,0
4.0,-254.0,-33.0,11.0,63.0,-10.0,0
2.0,-254.0,-35.0,14.0,63.0,-9.0,0
3.0,-252.0,-32.0,16.0,63.0,-11.0,0
4.0,-251.0,-32.0,16.0,63.0,-9.0,0
0.0,-248.0,-34.0,18.0,63.0,-11.0,0
-1.0,-250.0,-34.0,15.0,64.0,-8.0,0
5.0,-251.0,-34.0,13.0,63.0,-10.0,0
-2.0,-257.0,-24.0,10.0,63.0,-7.0,0
2.0,-249.0,-35.0,5.0,62.0,-9.0,0
3.0,-249.0,-34.0,1.0,62.0,-6.0,0
3.0,-250.0,-33.0,-1.0,61.0,-9.0,0
2.0,-251.0,-36.0,-2.0,60.0,-7.0,0
2.0,-251.0,-34.0,-5.0,59.0,-8.0,0
1.0,-253.0,-36.0,-4.0,58.0,-7.0,0
2.0,-254.0,-29.0,-2.0,59.0,-8.0,0
2.0,-252.0,-35.0,-1.0,60.0,-7.0,0
2.0,-254.0,-30.0,-1.0,61.0,-8.0,0
0.0,-250.0,-42.0,-2.0,60.0,-6.0,0
6.0,-251.0,-28.0,-5.0,59.0,-10.0,0
3.0,-248.0,-35.0,-5.0,58.0,-5.0,0
4.0,-252.0,-32.0,-7.0,60.0,-6.0,0
3.0,-254.0,-33.0,-6.0,61.0,-3.0,0
5.0,-252.0,-34.0,-6.0,61.0,-6.0,0
3.0,-254.0,-33.0,-6.0,60.0,-3.0,0
3.0,-250.0,-38.0,-6.0,60.0,-6.0,0
7.0,-248.0,-32.0,-6.0,61.0,-3.0,0
4.0,-249.0,-34.0,-6.0,60.0,-6.0,0
1.0,-250.0,-33.0,-7.0,59.0,-4.0,0
1.0,-254.0,-20.0,-8.0,58.0,-6.0,0
1.0,-252.0,-34.0,-9.0,57.0,-3.0,0
1.0,-253.0,-32.0,-10.0,57.0,-4.0,0
-2.0,-252.0,-31.0,-9.0,57.0,-2.0,0
0.0,-252.0,-32.0,-8.0,57.0,-4.0,0
2.0,-254.0,-28.0,-8.0,57.0,-2.0,0
3.0,-250.0,-31.0,-8.0,59.0,-4.0,0
1.0,-251.0,-37.0,-7.0,58.0,-2.0,0
2.0,-255.0,-35.0,-6.0,58.0,-5.0,0
-1.0,-256.0,-33.0,-4.0,57.0,-1.0,0
4.0,-253.0,-30.0,-2.0,58.0,-5.0,0
14.0,-262.0,-30.0,1.0,57.0,-3.0,0
3.0,-252.0,-33.0,2.0,56.0,-5.0,0
2.0,-251.0,-29.0,3.0,56.0,-4.0,0
3.0,-249.0,-34.0,1.0,56.0,-9.0,0
2.0,-250.0,-37.0,-1.0,53.0,-7.0,0
3.0,-252.0,-31.0,-3.0,54.0,-9.0,0
2.0,-247.0,-33.0,-5.0,54.0,-5.0,0
-1.0,-253.0,-27.0,-7.0,54.0,-7.0,0
1.0,-252.0,-26.0,-8.0,53.0,-4.0,0
3.0,-252.0,-31.0,-9.0,53.0,-6.0,0
3.0,-252.0,-34.0,-11.0,52.0,-3.0,0
4.0,-254.0,-34.0,-11.0,52.0,-5.0,0
1.0,-252.0,-29.0,-12.0,53.0,-2.0,0
3.0,-253.0,-32.0,-11.0,54.0,-4.0,0
1.0,-250.0,-34.0,-11.0,53.0,-1.0,0
3.0,-251.0,-28.0,-12.0,52.0,-4.0,0
0.0,-253.0,-33.0,-12.0,53.0,-3.0,0
0.0,-253.0,-30.0,-11.0,52.0,-7.0,0
1.0,-253.0,-39.0,-11.0,53.0,-5.0,0
4.0,-249.0,-35.0,-11.0,52.0,-8.0,0
3.0,-253.0,-33.0,-10.0,52.0,-6.0,0
3.0,-251.0,-33.0,-11.0,53.0,-9.0,0
0.0,-254.0,-31.0,-10.0,53.0,-7.0,0
-1.0,-253.0,-33.0,-8.0,53.0,-8.0,0
1.0,-251.0,-33.0,-6.0,52.0,-5.0,0
4.0,-253.0,-33.0,-5.0,52.0,-8.0,0
3.0,-253.0,-33.0,-4.0,52.0,-6.0,0
5.0,-252.0,-35.0,-2.0,54.0,-8.0,0
2.0,-255.0,-34.0,0.0,54.0,-5.0,0
3.0,-250.0,-37.0,1.0,55.0,-7.0,0
0.0,-250.0,-35.0,1.0,56.0,-6.0,0
2.0,-250.0,-38.0,2.0,57.0,-8.0,0
3.0,-250.0,-32.0,2.0,59.0,-6.0,0
-5.0,-253.0,-40.0,4.0,58.0,-9.0,0
-3.0,-256.0,-39.0,6.0,59.0,-6.0,0
2.0,-251.0,-33.0,6.0,59.0,-9.0,0
3.0,-249.0,-29.0,8.0,60.0,-7.0,0
5.0,-253.0,-33.0,9.0,58.0,-10.0,0
3.0,-252.0,-31.0,9.0,58.0,-8.0,0
6.0,-251.0,-29.0,8.0,57.0,-11.0,0
4.0,-249.0,-32.0,7.0,55.0,-8.0,0
3.0,-250.0,-34.0,7.0,55.0,-11.0,0
2.0,-251.0,-36.0,6.0,55.0,-8.0,0
2.0,-254.0,-31.0,4.0,54.0,-11.0,0
8.0,-240.0,-48.0,1.0,54.0,-9.0,0
5.0,-252.0,-34.0,-1.0,54.0,-12.0,0
5.0,-253.0,-32.0,-5.0,53.0,-9.0,0
4.0,-251.0,-28.0,-7.0,53.0,-11.0,0
3.0,-251.0,-36.0,-9.0,54.0,-8.0,0
3.0,-253.0,-31.0,-10.0,54.0,-9.0,0
0.0,-249.0,-32.0,-10.0,54.0,-3.0,0
0.0,-253.0,-28.0,-7.0,56.0,-4.0,0
4.0,-254.0,-33.0,-4.0,56.0,1.0,0
2.0,-251.0,-37.0,-2.0,56.0,2.0,0
5.0,-250.0,-31.0,1.0,53.0,5.0,0
-8.0,-249.0,-34.0,3.0,50.0,5.0,0
1.0,-250.0,-32.0,1.0,48.0,7.0,0
4.0,-252.0,-32.0,-1.0,46.0,4.0,0
3.0,-251.0,-31.0,-5.0,44.0,7.0,0
2.0,-251.0,-32.0,-9.0,42.0,7.0,0
5.0,-255.0,-32.0,-14.0,41.0,9.0,0
2.0,-252.0,-34.0,-18.0,39.0,9.0,0
2.0,-254.0,-32.0,-20.0,39.0,13.0,0
1.0,-253.0,-29.0,-22.0,38.0,14.0,0
0.0,-254.0,-32.0,-24.0,36.0,17.0,0
2.0,-256.0,-27.0,-28.0,36.0,15.0,0
-2.0,-251.0,-22.0,-33.0,34.0,15.0,0
2.0,-255.0,-31.0,-37.0,33.0,8.0,0
3.0,-255.0,-29.0,-39.0,34.0,2.0,0
3.0,-255.0,-35.0,-38.0,35.0,-6.0,0
2.0,-254.0,-32.0,-34.0,37.0,-8.0,0
1.0,-252.0,-31.0,-26.0,37.0,-13.0,0
1.0,-253.0,-28.0,-20.0,38.0,-11.0,0
-1.0,-251.0,-31.0,-16.0,38.0,-13.0,0
1.0,-250.0,-31.0,-15.0,36.0,-8.0,0
1.0,-251.0,-30.0,-15.0,34.0,-8.0,0
-2.0,-245.0,-36.0,-15.0,35.0,-4.0,0
-1.0,-252.0,-29.0,-17.0,37.0,-5.0,0
-1.0,-250.0,-30.0,-17.0,39.0,-1.0,0
-1.0,-251.0,-26.0,-17.0,44.0,-2.0,0
2.0,-252.0,-28.0,-17.0,46.0,1.0,0
-1.0,-251.0,-31.0,-16.0,48.0,-1.0,0
3.0,-254.0,-30.0,-17.0,51.0,0.0,0
-1.0,-253.0,-31.0,-16.0,56.0,-4.0,0
1.0,-253.0,-34.0,-15.0,59.0,-4.0,0
1.0,-256.0,-38.0,-14.0,66.0,-10.0,0
2.0,-256.0,-34.0,-13.0,73.0,-10.0,0
-4.0,-255.0,-34.0,-10.0,80.0,-15.0,0
5.0,-254.0,-36.0,-8.0,89.0,-17.0,0
7.0,-255.0,-39.0,-6.0,100.0,-22.0,0
4.0,-257.0,-36.0,-5.0,111.0,-20.0,0
5.0,-257.0,-33.0,-5.0,124.0,-22.0,0
7.0,-254.0,-37.0,-4.0,134.0,-18.0,0
9.0,-257.0,-39.0,-6.0,144.0,-17.0,0
10.0,-256.0,-40.0,-7.0,148.0,-9.0,0
13.0,-253.0,-37.0,-9.0,150.0,-8.0,0
9.0,-256.0,-41.0,-5.0,158.0,-4.0,0
16.0,-255.0,-38.0,4.0,166.0,-7.0,0
11.0,-248.0,-40.0,13.0,180.0,-12.0,0
4.0,-248.0,-39.0,22.0,190.0,-18.0,0
10.0,-244.0,-35.0,21.0,195.0,-17.0,0
6.0,-249.0,-38.0,14.0,201.0,-16.0,0
6.0,-251.0,-34.0,9.0,205.0,-9.0,0
3.0,-250.0,-32.0,4.0,205.0,-10.0,0
4.0,-248.0,-37.0,0.0,204.0,-10.0,0
4.0,-245.0,-38.0,-9.0,198.0,-15.0,0
4.0,-244.0,-37.0,-22.0,189.0,-18.0,0
2.0,-244.0,-35.0,-43.0,179.0,-24.0,0
3.0,-243.0,-33.0,-63.0,160.0,-25.0,0
-5.0,-248.0,-21.0,-89.0,141.0,-26.0,0
-8.0,-247.0,-27.0,-106.0,119.0,-26.0,0
-7.0,-248.0,-29.0,-121.0,93.0,-25.0,0
-9.0,-247.0,-29.0,-131.0,66.0,-18.0,0
-11.0,-248.0,-29.0,-137.0,40.0,-12.0,0
-8.0,-249.0,-25.0,-139.0,20.0,0.0,0
-6.0,-250.0,-27.0,-139.0,5.0,8.0,0
-7.0,-254.0,-26.0,-136.0,-3.0,23.0,0
-2.0,-251.0,-28.0,-134.0,-8.0,34.0,0
-1.0,-251.0,-33.0,-135.0,-9.0,49.0,0
-1.0,-247.0,-28.0,-134.0,-12.0,56.0,0
8.0,-241.0,-38.0,-136.0,-12.0,63.0,0
7.0,-252.0,-30.0,-140.0,-10.0,62.0,0
5.0,-250.0,-23.0,-144.0,-6.0,64.0,0
8.0,-250.0,-25.0,-148.0,3.0,58.0,0
12.0,-249.0,-22.0,-150.0,16.0,52.0,0
11.0,-250.0,-27.0,-153.0,29.0,40.0,0
9.0,-247.0,-24.0,-156.0,40.0,31.0,0
7.0,-246.0,-17.0,-160.0,51.0,17.0,0
8.0,-244.0,-25.0,-163.0,63.0,6.0,0
5.0,-244.0,-17.0,-168.0,71.0,-4.0,0
5.0,-241.0,-18.0,-174.0,76.0,-10.0,0
-2.0,-240.0,-21.0,-181.0,80.0,-17.0,0
2.0,-244.0,-20.0,-189.0,79.0,-17.0,0
-1.0,-243.0,-15.0,-201.0,79.0,-19.0,0
0.0,-245.0,-19.0,-216.0,78.0,-14.0,0
-4.0,-244.0,-22.0,-234.0,73.0,-9.0,0
-4.0,-243.0,-17.0,-254.0,67.0,0.0,0
-1.0,-245.0,-22.0,-273.0,61.0,6.0,0
0.0,-242.0,-20.0,-291.0,52.0,15.0,0
0.0,-243.0,-21.0,-315.0,45.0,19.0,0
-1.0,-242.0,-21.0,-333.0,40.0,26.0,0
5.0,-246.0,-26.0,-354.0,36.0,27.0,0
4.0,-241.0,-29.0,-371.0,31.0,31.0,0
4.0,-247.0,-30.0,-383.0,32.0,33.0,0
4.0,-248.0,-30.0,-393.0,34.0,34.0,0
4.0,-246.0,-27.0,-402.0,40.0,34.0,0
2.0,-247.0,-33.0,-415.0,45.0,38.0,0
2.0,-247.0,-32.0,-429.0,50.0,37.0,0
-1.0,-245.0,-33.0,-443.0,54.0,41.0,0
0.0,-246.0,-32.0,-463.0,58.0,41.0,0
2.0,-249.0,-37.0,-479.0,60.0,43.0,0
0.0,-252.0,-33.0,-490.0,62.0,42.0,0
-2.0,-242.0,-41.0,-504.0,66.0,42.0,0
9.0,-246.0,-25.0,-517.0,66.0,41.0,0
6.0,-245.0,-39.0,-531.0,69.0,43.0,0
8.0,-244.0,-49.0,-550.0,69.0,42.0,0
8.0,-244.0,-46.0,-570.0,69.0,43.0,0
7.0,-244.0,-46.0,-588.0,69.0,40.0,0
8.0,-246.0,-46.0,-608.0,70.0,38.0,0
8.0,-248.0,-48.0,-628.0,70.0,34.0,0
8.0,-251.0,-48.0,-641.0,70.0,32.0,0
5.0,-247.0,-49.0,-646.0,74.0,28.0,0
4.0,-245.0,-54.0,-651.0,78.0,28.0,0
2.0,-246.0,-51.0,-652.0,83.0,30.0,0
2.0,-236.0,-80.0,-657.0,87.0,33.0,0
-2.0,-243.0,-54.0,-661.0,90.0,33.0,0
-3.0,-241.0,-58.0,-674.0,92.0,39.0,0
-2.0,-240.0,-62.0,-692.0,92.0,44.0,0
-5.0,-239.0,-62.0,-715.0,94.0,57.0,0
-5.0,-242.0,-61.0,-744.0,94.0,63.0,0
-4.0,-241.0,-64.0,-765.0,97.0,71.0,0
2.0,-241.0,-64.0,-780.0,100.0,75.0,0
1.0,-239.0,-62.0,-790.0,107.0,76.0,0
4.0,-237.0,-63.0,-798.0,114.0,75.0,0
-1.0,-241.0,-64.0,-809.0,120.0,74.0,0
17.0,-232.0,-72.0,-824.0,127.0,72.0,0
7.0,-238.0,-67.0,-843.0,133.0,75.0,0
12.0,-240.0,-64.0,-863.0,139.0,72.0,0
7.0,-239.0,-67.0,-888.0,145.0,70.0,0
12.0,-239.0,-63.0,-922.0,149.0,69.0,0
16.0,-244.0,-73.0,-950.0,152.0,67.0,0
10.0,-243.0,-73.0,-982.0,152.0,64.0,0
15.0,-246.0,-77.0,-1009.0,153.0,61.0,0
13.0,-247.0,-80.0,-1027.0,155.0,57.0,0
9.0,-247.0,-80.0,-1035.0,159.0,62.0,0
8.0,-249.0,-86.0,-1033.0,164.0,64.0,0
23.0,-246.0,-103.0,-1020.0,165.0,68.0,0
5.0,-245.0,-89.0,-1005.0,162.0,70.0,0
-1.0,-243.0,-92.0,-987.0,162.0,77.0,0
-4.0,-241.0,-94.0,-975.0,162.0,86.0,0
-7.0,-239.0,-95.0,-976.0,160.0,95.0,0
-12.0,-236.0,-97.0,-990.0,152.0,101.0,0
-7.0,-234.0,-97.0,-1011.0,133.0,110.0,0
-10.0,-236.0,-94.0,-1042.0,111.0,114.0,0
-14.0,-237.0,-96.0,-1081.0,88.0,117.0,0
-14.0,-234.0,-100.0,-1121.0,55.0,119.0,0
-9.0,-229.0,-107.0,-1156.0,19.0,125.0,0
-6.0,-241.0,-95.0,-1184.0,-6.0,116.0,0
-7.0,-241.0,-98.0,-1206.0,-23.0,105.0,0
3.0,-235.0,-103.0,-1235.0,-34.0,97.0,0
3.0,-230.0,-101.0,-1271.0,-37.0,92.0,0
13.0,-232.0,-107.0,-1316.0,-35.0,95.0,0
19.0,-237.0,-103.0,-1366.0,-25.0,98.0,0
13.0,-238.0,-108.0,-1416.0,-18.0,101.0,0
18.0,-237.0,-114.0,-1464.0,-12.0,107.0,0
14.0,-235.0,-120.0,-1513.0,4.0,111.0,0
9.0,-234.0,-120.0,-1563.0,25.0,128.0,0
5.0,-245.0,-125.0,-1600.0,48.0,144.0,0
-4.0,-238.0,-128.0,-1626.0,66.0,161.0,0
1.0,-238.0,-132.0,-1649.0,76.0,170.0,0
0.0,-243.0,-141.0,-1677.0,77.0,187.0,0
-2.0,-251.0,-148.0,-1713.0,68.0,205.0,0
1.0,-254.0,-157.0,-1739.0,57.0,206.0,0
4.0,-255.0,-161.0,-1761.0,42.0,201.0,0
11.0,-251.0,-167.0,-1791.0,33.0,199.0,0
18.0,-254.0,-183.0,-1824.0,33.0,199.0,0
18.0,-252.0,-193.0,-1841.0,51.0,176.0,0
20.0,-267.0,-209.0,-1860.0,70.0,159.0,0
17.0,-248.0,-228.0,-1886.0,95.0,117.0,0
5.0,-254.0,-218.0,-1884.0,141.0,97.0,0
6.0,-266.0,-219.0,-1854.0,179.0,72.0,0
-3.0,-276.0,-217.0,-1788.0,210.0,56.0,0
-10.0,-277.0,-218.0,-1697.0,238.0,47.0,0
-15.0,-290.0,-214.0,-1581.0,253.0,28.0,0
-23.0,-299.0,-207.0,-1435.0,255.0,9.0,0
-21.0,-302.0,-215.0,-1293.0,236.0,-4.0,0
-29.0,-291.0,-207.0,-1173.0,204.0,-22.0,0
-23.0,-301.0,-206.0,-1081.0,157.0,-40.0,0
-12.0,-310.0,-203.0,-1004.0,115.0,-74.0,0
-10.0,-292.0,-206.0,-940.0,71.0,-95.0,0
-3.0,-288.0,-211.0,-898.0,53.0,-115.0,0
5.0,-277.0,-218.0,-867.0,48.0,-133.0,0
10.0,-266.0,-227.0,-854.0,57.0,-138.0,0
9.0,-256.0,-232.0,-856.0,77.0,-134.0,0
7.0,-248.0,-232.0,-867.0,103.0,-119.0,0
1.0,-246.0,-232.0,-878.0,132.0,-102.0,0
-3.0,-243.0,-231.0,-885.0,149.0,-80.0,0
-13.0,-238.0,-231.0,-885.0,153.0,-63.0,0
-14.0,-237.0,-227.0,-881.0,144.0,-47.0,0
-34.0,-227.0,-236.0,-867.0,127.0,-39.0,0
-23.0,-236.0,-231.0,-845.0,110.0,-36.0,0
-29.0,-231.0,-231.0,-821.0,98.0,-34.0,0
-28.0,-233.0,-231.0,-792.0,91.0,-34.0,0
-26.0,-227.0,-229.0,-763.0,86.0,-31.0,0
-29.0,-231.0,-228.0,-726.0,80.0,-27.0,0
-30.0,-228.0,-225.0,-681.0,80.0,-21.0,0
-32.0,-228.0,-226.0,-630.0,76.0,-14.0,0
-31.0,-223.0,-228.0,-583.0,66.0,-10.0,0
-31.0,-219.0,-224.0,-536.0,56.0,-7.0,0
-27.0,-217.0,-215.0,-490.0,32.0,-2.0,0
-19.0,-223.0,-212.0,-462.0,14.0,-3.0,0
-23.0,-216.0,-213.0,-435.0,2.0,-7.0,0
-22.0,-213.0,-213.0,-410.0,0.0,-10.0,0
-19.0,-214.0,-206.0,-386.0,3.0,-13.0,0
-23.0,-216.0,-209.0,-353.0,9.0,-16.0,0
-22.0,-209.0,-209.0,-315.0,6.0,-21.0,0
-24.0,-207.0,-202.0,-276.0,-6.0,-30.0,0
-20.0,-202.0,-208.0,-242.0,-22.0,-44.0,0
-16.0,-200.0,-206.0,-219.0,-38.0,-56.0,0
-16.0,-196.0,-206.0,-200.0,-52.0,-60.0,0
-20.0,-195.0,-206.0,-191.0,-59.0,-58.0,0
-10.0,-195.0,-209.0,-188.0,-63.0,-55.0,0
-17.0,-192.0,-205.0,-184.0,-72.0,-53.0,0
-18.0,-191.0,-207.0,-175.0,-79.0,-50.0,0
-16.0,-188.0,-200.0,-164.0,-83.0,-49.0,0
-15.0,-188.0,-205.0,-150.0,-90.0,-53.0,0
-15.0,-188.0,-200.0,-133.0,-98.0,-61.0,0
-15.0,-184.0,-198.0,-116.0,-97.0,-70.0,0
-11.0,-186.0,-201.0,-103.0,-95.0,-71.0,0
-10.0,-187.0,-198.0,-91.0,-87.0,-73.0,0
-12.0,-186.0,-196.0,-85.0,-76.0,-76.0,0
-20.0,-182.0,-201.0,-81.0,-71.0,-75.0,0
-14.0,-187.0,-195.0,-73.0,-68.0,-78.0,0
-13.0,-192.0,-195.0,-64.0,-65.0,-78.0,0
-12.0,-192.0,-196.0,-56.0,-62.0,-77.0,0
-13.0,-193.0,-196.0,-39.0,-57.0,-79.0,0
-13.0,-195.0,-199.0,-19.0,-52.0,-80.0,0
-11.0,-195.0,-200.0,-3.0,-48.0,-82.0,0
-13.0,-195.0,-200.0,12.0,-39.0,-88.0,0
-12.0,-194.0,-196.0,26.0,-34.0,-94.0,0
-11.0,-191.0,-198.0,37.0,-31.0,-98.0,0
-10.0,-196.0,-194.0,46.0,-27.0,-99.0,0
-11.0,-196.0,-195.0,54.0,-25.0,-103.0,0
-11.0,-190.0,-198.0,58.0,-23.0,-104.0,0
-14.0,-189.0,-197.0,58.0,-22.0,-105.0,0
-14.0,-186.0,-198.0,60.0,-24.0,-102.0,0
-7.0,-191.0,-196.0,60.0,-27.0,-99.0,0
-14.0,-191.0,-196.0,61.0,-31.0,-96.0,0
-11.0,-190.0,-194.0,59.0,-36.0,-95.0,0
-11.0,-190.0,-199.0,57.0,-39.0,-91.0,0
-12.0,-193.0,-191.0,60.0,-41.0,-85.0,0
-9.0,-195.0,-199.0,67.0,-45.0,-78.0,0
-9.0,-195.0,-193.0,76.0,-46.0,-76.0,0
-10.0,-182.0,-201.0,89.0,-41.0,-69.0,0
-8.0,-199.0,-195.0,102.0,-32.0,-65.0,0
-6.0,-198.0,-197.0,114.0,-17.0,-58.0,0
-8.0,-200.0,-199.0,125.0,0.0,-52.0,0
-8.0,-199.0,-195.0,137.0,15.0,-44.0,0
-7.0,-202.0,-197.0,149.0,22.0,-37.0,0
-8.0,-202.0,-200.0,167.0,29.0,-32.0,0
-6.0,-201.0,-199.0,177.0,33.0,-31.0,0
-10.0,-199.0,-202.0,185.0,34.0,-31.0,0
-9.0,-204.0,-197.0,197.0,36.0,-31.0,0
-13.0,-203.0,-194.0,208.0,38.0,-27.0,0
-14.0,-213.0,-193.0,224.0,41.0,-26.0,0
-12.0,-203.0,-192.0,243.0,40.0,-23.0,0
-12.0,-199.0,-191.0,256.0,38.0,-26.0,0
-9.0,-204.0,-187.0,267.0,37.0,-28.0,0
-11.0,-201.0,-191.0,277.0,37.0,-25.0,0
-10.0,-201.0,-189.0,290.0,40.0,-22.0,0
-12.0,-199.0,-188.0,300.0,42.0,-21.0,0
-13.0,-198.0,-191.0,312.0,42.0,-17.0,0
-15.0,-195.0,-190.0,325.0,36.0,-15.0,0
-12.0,-194.0,-189.0,341.0,27.0,-11.0,0
-16.0,-197.0,-186.0,357.0,17.0,-6.0,0
-16.0,-195.0,-177.0,374.0,12.0,1.0,0
-15.0,-193.0,-185.0,395.0,9.0,5.0,0
-14.0,-192.0,-188.0,414.0,7.0,9.0,0
-14.0,-193.0,-187.0,431.0,0.0,14.0,0
-14.0,-190.0,-186.0,445.0,-13.0,19.0,0
-8.0,-191.0,-186.0,452.0,-29.0,18.0,0
-11.0,-191.0,-183.0,458.0,-48.0,16.0,0
-6.0,-191.0,-174.0,463.0,-66.0,13.0,0
-11.0,-194.0,-168.0,471.0,-73.0,15.0,0
-4.0,-194.0,-166.0,480.0,-72.0,12.0,0
-10.0,-196.0,-165.0,487.0,-61.0,7.0,0
-7.0,-199.0,-158.0,489.0,-43.0,0.0,0
-7.0,-202.0,-154.0,485.0,-24.0,-10.0,0
-13.0,-198.0,-159.0,474.0,-6.0,-21.0,0
-13.0,-198.0,-158.0,449.0,4.0,-30.0,0
-13.0,-195.0,-164.0,427.0,10.0,-42.0,0
-14.0,-197.0,-157.0,399.0,12.0,-49.0,0
-13.0,-195.0,-162.0,370.0,9.0,-58.0,0
-15.0,-196.0,-164.0,342.0,7.0,-63.0,0
-13.0,-201.0,-163.0,318.0,2.0,-69.0,0
-11.0,-203.0,-163.0,299.0,-4.0,-72.0,0
-11.0,-201.0,-165.0,288.0,-13.0,-76.0,0
1.0,-189.0,-173.0,283.0,-20.0,-78.0,0
-9.0,-206.0,-159.0,292.0,-30.0,-79.0,0
-9.0,-207.0,-157.0,317.0,-46.0,-75.0,0
-12.0,-207.0,-156.0,349.0,-61.0,-74.0,0
-8.0,-210.0,-158.0,386.0,-72.0,-68.0,0
-9.0,-207.0,-157.0,426.0,-79.0,-63.0,0
-10.0,-202.0,-158.0,460.0,-82.0,-55.0,0
-13.0,-197.0,-154.0,490.0,-81.0,-46.0,0
-10.0,-197.0,-156.0,516.0,-81.0,-37.0,0
-11.0,-196.0,-153.0,534.0,-78.0,-29.0,0
-11.0,-196.0,-161.0,549.0,-73.0,-19.0,0
-1.0,-195.0,-157.0,561.0,-62.0,-20.0,0
-8.0,-197.0,-155.0,565.0,-49.0,-20.0,0
-8.0,-195.0,-152.0,558.0,-32.0,-25.0,0
-7.0,-197.0,-154.0,553.0,-15.0,-29.0,0
-6.0,-198.0,-151.0,546.0,1.0,-39.0,0
-5.0,-202.0,-150.0,540.0,15.0,-47.0,0
-10.0,-200.0,-150.0,533.0,23.0,-58.0,0
-12.0,-199.0,-147.0,529.0,29.0,-66.0,0
-11.0,-202.0,-152.0,527.0,33.0,-72.0,0
-10.0,-205.0,-147.0,522.0,32.0,-74.0,0
-8.0,-205.0,-151.0,524.0,31.0,-74.0,0
-16.0,-212.0,-131.0,527.0,31.0,-70.0,0
-13.0,-202.0,-142.0,530.0,29.0,-64.0,0
-14.0,-204.0,-146.0,534.0,26.0,-54.0,0
-15.0,-203.0,-144.0,541.0,23.0,-51.0,0
-14.0,-207.0,-145.0,545.0,24.0,-52.0,0
-14.0,-204.0,-147.0,555.0,26.0,-54.0,0
-11.0,-204.0,-145.0,552.0,25.0,-54.0,0
-10.0,-208.0,-143.0,547.0,18.0,-55.0,0
-8.0,-208.0,-147.0,553.0,13.0,-55.0,0
-6.0,-208.0,-148.0,556.0,15.0,-59.0,0
-11.0,-208.0,-147.0,557.0,21.0,-59.0,0
-6.0,-208.0,-145.0,550.0,29.0,-66.0,0
-5.0,-209.0,-142.0,549.0,37.0,-65.0,0
-8.0,-210.0,-148.0,555.0,42.0,-65.0,0
-6.0,-211.0,-145.0,567.0,42.0,-59.0,0
-9.0,-208.0,-143.0,583.0,43.0,-58.0,0
-10.0,-206.0,-142.0,594.0,45.0,-54.0,0
-4.0,-201.0,-147.0,609.0,43.0,-51.0,0
-7.0,-204.0,-139.0,617.0,37.0,-47.0,0
-10.0,-200.0,-141.0,627.0,29.0,-48.0,0
-4.0,-202.0,-138.0,631.0,25.0,-43.0,0
1.0,-210.0,-119.0,632.0,28.0,-46.0,0
-6.0,-203.0,-131.0,631.0,29.0,-41.0,0
-7.0,-203.0,-132.0,625.0,32.0,-39.0,0
-8.0,-203.0,-132.0,622.0,33.0,-36.0,0
-7.0,-202.0,-129.0,613.0,31.0,-42.0,0
-10.0,-203.0,-129.0,599.0,31.0,-48.0,0
-7.0,-204.0,-131.0,583.0,29.0,-52.0,0
-8.0,-201.0,-128.0,560.0,36.0,-54.0,0
-11.0,-203.0,-129.0,547.0,40.0,-62.0,0
-7.0,-214.0,-129.0,536.0,40.0,-65.0,0
-6.0,-211.0,-128.0,522.0,41.0,-74.0,0
-8.0,-205.0,-134.0,517.0,43.0,-79.0,0
-6.0,-212.0,-128.0,512.0,47.0,-83.0,0
-7.0,-210.0,-125.0,511.0,49.0,-74.0,0
-11.0,-210.0,-128.0,523.0,45.0,-74.0,0
-8.0,-206.0,-125.0,545.0,40.0,-79.0,0
-13.0,-205.0,-126.0,562.0,37.0,-85.0,0
-9.0,-200.0,-127.0,568.0,38.0,-84.0,0
-11.0,-195.0,-122.0,572.0,35.0,-76.0,0
-15.0,-193.0,-121.0,573.0,23.0,-67.0,0
-14.0,-191.0,-122.0,566.0,4.0,-70.0,0
-16.0,-191.0,-121.0,541.0,-16.0,-67.0,0
-27.0,-190.0,-133.0,507.0,-32.0,-64.0,0
-16.0,-190.0,-117.0,474.0,-43.0,-51.0,0
-20.0,-191.0,-117.0,440.0,-54.0,-41.0,0
-21.0,-191.0,-115.0,410.0,-68.0,-37.0,0
-23.0,-193.0,-115.0,377.0,-78.0,-38.0,0
-23.0,-193.0,-114.0,340.0,-86.0,-32.0,0
-19.0,-195.0,-112.0,307.0,-92.0,-20.0,0
-21.0,-198.0,-114.0,296.0,-100.0,-4.0,0
-19.0,-206.0,-110.0,287.0,-108.0,5.0,0
-17.0,-202.0,-110.0,281.0,-112.0,8.0,0
-13.0,-208.0,-107.0,283.0,-106.0,5.0,0
-4.0,-201.0,-127.0,286.0,-92.0,6.0,0
-3.0,-206.0,-111.0,294.0,-76.0,11.0,0
-3.0,-212.0,-112.0,306.0,-65.0,19.0,0
1.0,-211.0,-115.0,310.0,-56.0,16.0,0
-1.0,-208.0,-118.0,312.0,-50.0,3.0,0
1.0,-209.0,-113.0,317.0,-52.0,-13.0,0
2.0,-208.0,-109.0,336.0,-53.0,-21.0,0
3.0,-207.0,-110.0,354.0,-52.0,-32.0,0
0.0,-210.0,-111.0,367.0,-53.0,-36.0,0
0.0,-205.0,-112.0,373.0,-52.0,-40.0,0
3.0,-207.0,-105.0,375.0,-47.0,-42.0,0
11.0,-214.0,-99.0,381.0,-34.0,-44.0,0
-5.0,-211.0,-102.0,386.0,-20.0,-46.0,0
-11.0,-214.0,-102.0,394.0,-3.0,-61.0,0
-11.0,-212.0,-105.0,401.0,15.0,-63.0,0
-13.0,-214.0,-104.0,413.0,34.0,-64.0,0
-16.0,-216.0,-106.0,410.0,39.0,-61.0,0
-16.0,-216.0,-109.0,394.0,33.0,-58.0,0
-17.0,-210.0,-110.0,373.0,22.0,-51.0,0
-19.0,-216.0,-112.0,358.0,10.0,-47.0,0
-18.0,-216.0,-104.0,343.0,-4.0,-34.0,0
-15.0,-215.0,-106.0,346.0,-13.0,-29.0,0
-16.0,-223.0,-96.0,356.0,-18.0,-19.0,0
-12.0,-222.0,-102.0,364.0,-20.0,-15.0,0
-10.0,-221.0,-106.0,364.0,-22.0,-10.0,0
-13.0,-217.0,-109.0,361.0,-28.0,-11.0,0
-11.0,-214.0,-104.0,358.0,-38.0,-12.0,0
-14.0,-217.0,-103.0,348.0,-51.0,-21.0,0
-10.0,-216.0,-109.0,329.0,-58.0,-31.0,0
-11.0,-217.0,-109.0,302.0,-63.0,-39.0,0
-12.0,-220.0,-102.0,277.0,-65.0,-42.0,0
-10.0,-224.0,-109.0,253.0,-64.0,-40.0,0
-12.0,-227.0,-99.0,231.0,-63.0,-38.0,0
-12.0,-220.0,-110.0,226.0,-56.0,-49.0,0
-9.0,-231.0,-99.0,228.0,-44.0,-54.0,0
-13.0,-228.0,-98.0,231.0,-30.0,-58.0,0
-10.0,-233.0,-98.0,232.0,-15.0,-55.0,0
-5.0,-234.0,-97.0,228.0,-1.0,-60.0,0
-3.0,-233.0,-97.0,232.0,11.0,-67.0,0
-8.0,-232.0,-101.0,248.0,27.0,-83.0,0
-2.0,-228.0,-96.0,262.0,38.0,-82.0,0
-3.0,-232.0,-97.0,277.0,47.0,-82.0,0
-4.0,-232.0,-102.0,298.0,54.0,-76.0,0
2.0,-225.0,-103.0,303.0,61.0,-75.0,0
2.0,-222.0,-90.0,308.0,66.0,-68.0,0
1.0,-229.0,-104.0,315.0,73.0,-69.0,0
2.0,-224.0,-105.0,314.0,82.0,-66.0,0
1.0,-222.0,-102.0,308.0,98.0,-71.0,0
0.0,-222.0,-98.0,300.0,110.0,-69.0,0
2.0,-218.0,-97.0,314.0,118.0,-71.0,0
2.0,-219.0,-98.0,326.0,126.0,-74.0,0
-1.0,-224.0,-101.0,316.0,132.0,-85.0,0
0.0,-226.0,-99.0,296.0,138.0,-91.0,0
1.0,-220.0,-93.0,285.0,139.0,-93.0,0
-5.0,-220.0,-94.0,291.0,134.0,-82.0,0
-3.0,-211.0,-97.0,317.0,123.0,-77.0,0
-2.0,-224.0,-95.0,327.0,125.0,-84.0,0
-2.0,-221.0,-92.0,341.0,137.0,-97.0,0
-3.0,-218.0,-95.0,355.0,154.0,-98.0,0
-4.0,-218.0,-97.0,361.0,169.0,-98.0,0
0.0,-219.0,-100.0,352.0,183.0,-99.0,0
2.0,-219.0,-106.0,329.0,197.0,-107.0,0
4.0,-215.0,-105.0,302.0,216.0,-107.0,0
8.0,-214.0,-106.0,282.0,231.0,-105.0,0
10.0,-210.0,-108.0,276.0,243.0,-98.0,0
8.0,-204.0,-107.0,285.0,252.0,-103.0,0
14.0,-206.0,-104.0,279.0,259.0,-102.0,0
12.0,-207.0,-103.0,270.0,263.0,-106.0,0
8.0,-206.0,-102.0,271.0,267.0,-101.0,0
9.0,-207.0,-97.0,263.0,268.0,-97.0,0
1.0,-212.0,-95.0,250.0,260.0,-88.0,0
1.0,-212.0,-97.0,237.0,254.0,-82.0,0
-1.0,-221.0,-91.0,212.0,249.0,-70.0,0
-1.0,-221.0,-95.0,188.0,250.0,-64.0,0
-7.0,-218.0,-91.0,175.0,254.0,-59.0,0
-10.0,-225.0,-92.0,169.0,246.0,-54.0,0
-6.0,-219.0,-98.0,163.0,235.0,-45.0,0
-16.0,-231.0,-88.0,175.0,225.0,-48.0,0
-16.0,-236.0,-93.0,179.0,206.0,-53.0,0
-19.0,-236.0,-94.0,176.0,191.0,-62.0,0
-20.0,-236.0,-88.0,173.0,174.0,-57.0,0
-23.0,-235.0,-85.0,195.0,160.0,-56.0,0
-19.0,-237.0,-91.0,224.0,145.0,-57.0,0
-16.0,-237.0,-85.0,249.0,135.0,-63.0,0
-15.0,-238.0,-84.0,277.0,127.0,-69.0,0
-14.0,-241.0,-80.0,305.0,129.0,-84.0,0
-11.0,-243.0,-82.0,320.0,133.0,-89.0,0
-9.0,-247.0,-70.0,336.0,140.0,-97.0,0
-9.0,-241.0,-81.0,348.0,145.0,-95.0,0
-5.0,-241.0,-79.0,356.0,151.0,-103.0,0
-4.0,-235.0,-77.0,361.0,156.0,-109.0,0
0.0,-230.0,-78.0,391.0,162.0,-111.0,0
8.0,-231.0,-84.0,428.0,170.0,-105.0,0
9.0,-229.0,-78.0,432.0,177.0,-104.0,0
11.0,-229.0,-83.0,416.0,184.0,-102.0,0
13.0,-223.0,-80.0,390.0,192.0,-104.0,0
14.0,-224.0,-82.0,362.0,196.0,-101.0,0
15.0,-225.0,-77.0,344.0,198.0,-97.0,0
10.0,-237.0,-85.0,336.0,204.0,-89.0,0
22.0,-225.0,-79.0,333.0,206.0,-82.0,0
18.0,-223.0,-80.0,336.0,210.0,-69.0,0
14.0,-226.0,-78.0,332.0,215.0,-60.0,0
15.0,-226.0,-80.0,330.0,225.0,-51.0,0
17.0,-224.0,-74.0,327.0,239.0,-45.0,0
16.0,-223.0,-75.0,330.0,253.0,-37.0,0
17.0,-221.0,-69.0,330.0,274.0,-33.0,0
16.0,-223.0,-63.0,331.0,296.0,-33.0,0
17.0,-225.0,-70.0,337.0,311.0,-39.0,0
19.0,-232.0,-72.0,331.0,318.0,-39.0,0
3.0,-222.0,-83.0,317.0,320.0,-39.0,0
7.0,-224.0,-74.0,298.0,320.0,-31.0,0
5.0,-227.0,-74.0,271.0,319.0,-28.0,0
3.0,-227.0,-80.0,235.0,313.0,-18.0,0
6.0,-233.0,-72.0,207.0,308.0,-18.0,0
2.0,-233.0,-72.0,190.0,298.0,-14.0,0
4.0,-237.0,-74.0,176.0,289.0,-18.0,0
5.0,-242.0,-72.0,156.0,282.0,-16.0,0
5.0,-245.0,-78.0,139.0,270.0,-17.0,0
3.0,-245.0,-77.0,131.0,261.0,-14.0,0
6.0,-248.0,-76.0,138.0,253.0,-17.0,0
-7.0,-250.0,-69.0,155.0,241.0,-11.0,0
9.0,-245.0,-84.0,161.0,231.0,-14.0,0
7.0,-252.0,-87.0,143.0,227.0,-21.0,0
7.0,-247.0,-89.0,98.0,230.0,-34.0,0
5.0,-248.0,-94.0,75.0,224.0,-21.0,0
9.0,-255.0,-95.0,45.0,212.0,1.0,0
9.0,-258.0,-94.0,0.0,202.0,19.0,0
10.0,-260.0,-96.0,-31.0,189.0,30.0,0
4.0,-263.0,-96.0,-45.0,176.0,48.0,0
6.0,-266.0,-89.0,-46.0,161.0,62.0,0
4.0,-269.0,-92.0,-38.0,144.0,78.0,0
12.0,-278.0,-95.0,-18.0,132.0,87.0,0
5.0,-272.0,-89.0,7.0,123.0,98.0,0
7.0,-265.0,-84.0,34.0,118.0,98.0,0
10.0,-265.0,-83.0,64.0,117.0,91.0,0
11.0,-261.0,-80.0,86.0,129.0,72.0,0
10.0,-260.0,-79.0,122.0,141.0,57.0,0
16.0,-256.0,-71.0,145.0,159.0,41.0,0
17.0,-249.0,-67.0,162.0,176.0,30.0,0
13.0,-249.0,-66.0,183.0,191.0,9.0,0
16.0,-247.0,-59.0,204.0,203.0,-7.0,0
13.0,-245.0,-61.0,224.0,212.0,-26.0,0
11.0,-240.0,-54.0,243.0,224.0,-39.0,0
9.0,-246.0,-54.0,258.0,234.0,-53.0,0
8.0,-249.0,-39.0,233.0,246.0,-69.0,0
6.0,-232.0,-37.0,232.0,258.0,-85.0,0
2.0,-229.0,-49.0,294.0,254.0,-70.0,0
4.0,-229.0,-51.0,307.0,238.0,-54.0,0
10.0,-228.0,-46.0,291.0,225.0,-39.0,0
2.0,-230.0,-51.0,260.0,212.0,-36.0,0
-3.0,-234.0,-42.0,230.0,198.0,-31.0,0
1.0,-230.0,-50.0,200.0,185.0,-31.0,0
-5.0,-242.0,-47.0,173.0,170.0,-17.0,0
1.0,-239.0,-46.0,153.0,156.0,-10.0,0
-1.0,-238.0,-52.0,148.0,137.0,-5.0,0
1.0,-240.0,-54.0,146.0,115.0,-1.0,0
1.0,-242.0,-60.0,148.0,100.0,1.0,0
0.0,-243.0,-55.0,141.0,87.0,1.0,0
3.0,-247.0,-59.0,135.0,74.0,4.0,0
1.0,-246.0,-59.0,129.0,62.0,3.0,0
3.0,-268.0,-75.0,127.0,53.0,2.0,0
5.0,-259.0,-61.0,89.0,52.0,-13.0,0
7.0,-247.0,-56.0,101.0,54.0,-20.0,0
5.0,-236.0,-64.0,146.0,52.0,-16.0,0
4.0,-243.0,-73.0,180.0,45.0,-4.0,0
3.0,-241.0,-72.0,177.0,39.0,2.0,0
4.0,-243.0,-73.0,142.0,40.0,7.0,0
4.0,-245.0,-73.0,106.0,39.0,7.0,0
7.0,-247.0,-73.0,73.0,36.0,15.0,0
8.0,-250.0,-70.0,51.0,34.0,16.0,0
1.0,-249.0,-70.0,40.0,34.0,19.0,0
5.0,-256.0,-73.0,31.0,38.0,26.0,0
11.0,-253.0,-74.0,30.0,41.0,32.0,0
8.0,-256.0,-73.0,36.0,47.0,28.0,0
-4.0,-263.0,-58.0,44.0,56.0,26.0,0
10.0,-255.0,-71.0,53.0,69.0,18.0,0
9.0,-253.0,-74.0,59.0,80.0,15.0,0
11.0,-254.0,-78.0,63.0,89.0,9.0,0
10.0,-251.0,-70.0,65.0,96.0,7.0,0
6.0,-251.0,-69.0,71.0,101.0,2.0,0
4.0,-246.0,-68.0,76.0,103.0,3.0,0
4.0,-250.0,-65.0,83.0,103.0,0.0,0
2.0,-249.0,-67.0,93.0,101.0,-1.0,0
-1.0,-246.0,-64.0,103.0,96.0,-4.0,0
-2.0,-239.0,-58.0,113.0,90.0,-4.0,0
6.0,-239.0,-58.0,121.0,78.0,-8.0,0
-4.0,-244.0,-54.0,126.0,68.0,-7.0,0
-7.0,-240.0,-57.0,123.0,55.0,-13.0,0
-5.0,-247.0,-54.0,114.0,49.0,-15.0,0
-8.0,-240.0,-55.0,101.0,39.0,-17.0,0
-5.0,-241.0,-49.0,87.0,32.0,-16.0,0
-7.0,-238.0,-52.0,74.0,28.0,-18.0,0
-5.0,-241.0,-55.0,64.0,23.0,-16.0,0
0.0,-238.0,-53.0,53.0,20.0,-18.0,0
-2.0,-242.0,-48.0,43.0,18.0,-16.0,0
4.0,-240.0,-57.0,32.0,14.0,-16.0,0
-1.0,-247.0,-57.0,22.0,11.0,-11.0,0
3.0,-248.0,-55.0,14.0,7.0,-10.0,0
4.0,-245.0,-57.0,9.0,4.0,-3.0,0
3.0,-248.0,-59.0,6.0,1.0,0.0,0
1.0,-247.0,-59.0,2.0,0.0,8.0,0
7.0,-252.0,-59.0,1.0,0.0,8.0,0
5.0,-252.0,-59.0,0.0,-1.0,12.0,0
3.0,-253.0,-64.0,3.0,-2.0,13.0,0
5.0,-249.0,-60.0,10.0,-4.0,16.0,0
2.0,-253.0,-57.0,15.0,-6.0,18.0,0
7.0,-247.0,-65.0,21.0,-7.0,21.0,0
-2.0,-258.0,-58.0,25.0,-8.0,22.0,0
5.0,-254.0,-63.0,25.0,-10.0,25.0,0
4.0,-255.0,-62.0,22.0,-11.0,25.0,0
4.0,-252.0,-61.0,18.0,-10.0,25.0,0
5.0,-254.0,-61.0,13.0,-5.0,21.0,0
5.0,-253.0,-59.0,10.0,-1.0,21.0,0
3.0,-255.0,-54.0,10.0,2.0,15.0,0
3.0,-254.0,-57.0,13.0,3.0,16.0,0
5.0,-253.0,-53.0,17.0,7.0,10.0,0
10.0,-253.0,-55.0,21.0,10.0,9.0,0
6.0,-246.0,-55.0,22.0,13.0,6.0,0
11.0,-233.0,-62.0,20.0,15.0,5.0,0
3.0,-245.0,-51.0,14.0,19.0,1.0,0
4.0,-246.0,-54.0,8.0,23.0,2.0,0
3.0,-247.0,-56.0,1.0,26.0,-3.0,0
5.0,-248.0,-54.0,-4.0,28.0,-2.0,0
3.0,-247.0,-53.0,-4.0,33.0,-5.0,0
2.0,-248.0,-54.0,-2.0,35.0,-5.0,0
7.0,-246.0,-55.0,-2.0,40.0,-7.0,0
5.0,-248.0,-54.0,1.0,43.0,-6.0,0
6.0,-251.0,-52.0,2.0,45.0,-7.0,0
7.0,-252.0,-52.0,5.0,47.0,-5.0,0
2.0,-246.0,-58.0,10.0,46.0,-5.0,0
4.0,-252.0,-51.0,18.0,43.0,-1.0,0
2.0,-253.0,-51.0,25.0,37.0,-2.0,0
3.0,-252.0,-51.0,32.0,32.0,2.0,0
5.0,-252.0,-51.0,36.0,27.0,-2.0,0
6.0,-254.0,-48.0,40.0,24.0,-2.0,0
4.0,-253.0,-50.0,41.0,22.0,-7.0,0
2.0,-254.0,-51.0,41.0,21.0,-8.0,0
4.0,-251.0,-52.0,40.0,19.0,-12.0,0
5.0,-254.0,-53.0,44.0,19.0,-12.0,0
3.0,-254.0,-50.0,48.0,21.0,-14.0,0
-6.0,-247.0,-58.0,50.0,21.0,-12.0,0
3.0,-250.0,-53.0,52.0,24.0,-12.0,0
5.0,-252.0,-50.0,53.0,27.0,-10.0,0
4.0,-249.0,-52.0,56.0,31.0,-10.0,0
4.0,-250.0,-48.0,56.0,34.0,-5.0,0
4.0,-249.0,-53.0,55.0,36.0,-3.0,0
10.0,-249.0,-49.0,54.0,40.0,-1.0,0
3.0,-248.0,-52.0,49.0,45.0,0.0,0
7.0,-253.0,-55.0,47.0,46.0,3.0,0
6.0,-254.0,-51.0,41.0,51.0,0.0,0
2.0,-251.0,-35.0,35.0,54.0,2.0,0
6.0,-253.0,-43.0,34.0,58.0,0.0,0
6.0,-256.0,-49.0,31.0,60.0,1.0,0
7.0,-254.0,-46.0,28.0,60.0,-2.0,0
7.0,-253.0,-49.0,24.0,60.0,-2.0,0
5.0,-254.0,-44.0,21.0,60.0,-4.0,0
4.0,-255.0,-45.0,19.0,57.0,-5.0,0
5.0,-254.0,-46.0,20.0,59.0,-7.0,0
3.0,-250.0,-49.0,22.0,59.0,-8.0,0
3.0,-250.0,-43.0,25.0,60.0,-12.0,0
3.0,-249.0,-40.0,30.0,61.0,-13.0,0
7.0,-255.0,-40.0,33.0,63.0,-15.0,0
2.0,-250.0,-46.0,36.0,64.0,-15.0,0
1.0,-249.0,-48.0,38.0,66.0,-16.0,0
4.0,-245.0,-42.0,36.0,65.0,-14.0,0
4.0,-247.0,-42.0,33.0,65.0,-14.0,0
1.0,-250.0,-46.0,26.0,65.0,-12.0,0
1.0,-248.0,-44.0,19.0,62.0,-11.0,0
0.0,-247.0,-43.0,13.0,59.0,-6.0,0
3.0,-249.0,-46.0,9.0,56.0,-6.0,0
1.0,-248.0,-43.0,7.0,55.0,-3.0,0
1.0,-250.0,-37.0,5.0,52.0,-1.0,0
-4.0,-250.0,-33.0,1.0,51.0,0.0,0
2.0,-249.0,-43.0,-1.0,52.0,0.0,0
0.0,-249.0,-43.0,-6.0,53.0,1.0,0
1.0,-250.0,-44.0,-11.0,52.0,1.0,0
2.0,-251.0,-43.0,-14.0,52.0,1.0,0
0.0,-249.0,-45.0,-18.0,51.0,-1.0,0
2.0,-250.0,-39.0,-21.0,49.0,1.0,0
2.0,-250.0,-50.0,-21.0,46.0,0.0,0
1.0,-253.0,-47.0,-22.0,45.0,0.0,0
8.0,-252.0,-46.0,-22.0,44.0,-1.0,0
5.0,-255.0,-45.0,-20.0,42.0,0.0,0
2.0,-252.0,-49.0,-17.0,41.0,1.0,0
3.0,-251.0,-45.0,-14.0,39.0,2.0,0
4.0,-251.0,-48.0,-11.0,38.0,3.0,0
2.0,-249.0,-45.0,-11.0,36.0,4.0,0
5.0,-251.0,-47.0,-13.0,37.0,3.0,0
6.0,-247.0,-44.0,-16.0,38.0,6.0,0
4.0,-250.0,-48.0,-20.0,39.0,5.0,0
7.0,-250.0,-48.0,-22.0,41.0,7.0,0
3.0,-251.0,-43.0,-22.0,40.0,7.0,0
4.0,-250.0,-46.0,-18.0,39.0,9.0,0
8.0,-251.0,-45.0,-14.0,40.0,8.0,0
4.0,-257.0,-36.0,-11.0,40.0,9.0,0
7.0,-253.0,-43.0,-5.0,41.0,10.0,0
1.0,-250.0,-43.0,-2.0,43.0,9.0,0
7.0,-251.0,-48.0,0.0,44.0,8.0,0
3.0,-251.0,-49.0,1.0,44.0,9.0,0
7.0,-253.0,-48.0,2.0,47.0,7.0,0
6.0,-251.0,-48.0,4.0,48.0,8.0,0
4.0,-248.0,-50.0,8.0,51.0,6.0,0
5.0,-250.0,-46.0,9.0,53.0,7.0,0
3.0,-251.0,-47.0,9.0,55.0,6.0,0
8.0,-247.0,-54.0,10.0,56.0,6.0,0
20.0,-244.0,-57.0,10.0,59.0,6.0,0
4.0,-251.0,-43.0,8.0,60.0,6.0,0
4.0,-249.0,-44.0,8.0,60.0,5.0,0
10.0,-251.0,-44.0,7.0,63.0,4.0,0
4.0,-250.0,-49.0,7.0,67.0,5.0,0
6.0,-249.0,-42.0,8.0,70.0,6.0,0
6.0,-251.0,-49.0,9.0,75.0,7.0,0
8.0,-249.0,-44.0,12.0,78.0,7.0,0
8.0,-250.0,-47.0,14.0,83.0,6.0,0
7.0,-253.0,-47.0,15.0,84.0,6.0,0
5.0,-247.0,-50.0,15.0,86.0,4.0,0
10.0,-236.0,-57.0,14.0,88.0,4.0,0
3.0,-242.0,-46.0,13.0,89.0,2.0,0
4.0,-241.0,-54.0,12.0,93.0,0.0,0
3.0,-253.0,-52.0,9.0,94.0,-2.0,0
2.0,-246.0,-47.0,8.0,98.0,-5.0,0
5.0,-250.0,-44.0,6.0,100.0,-6.0,0
3.0,-249.0,-47.0,5.0,103.0,-6.0,0
7.0,-248.0,-44.0,7.0,107.0,-8.0,0
-1.0,-248.0,-45.0,10.0,109.0,-8.0,0
8.0,-251.0,-48.0,13.0,110.0,-7.0,0
0.0,-248.0,-42.0,13.0,110.0,-7.0,0
14.0,-247.0,-57.0,13.0,111.0,-6.0,0
4.0,-248.0,-49.0,12.0,110.0,-6.0,0
4.0,-249.0,-45.0,8.0,111.0,-7.0,0
6.0,-250.0,-47.0,3.0,109.0,-6.0,0
4.0,-248.0,-48.0,-3.0,108.0,-6.0,0
7.0,-252.0,-47.0,-7.0,109.0,-6.0,0
5.0,-253.0,-41.0,-12.0,109.0,-6.0,0
2.0,-251.0,-43.0,-12.0,109.0,-7.0,0
2.0,-250.0,-44.0,-13.0,108.0,-7.0,0
5.0,-253.0,-44.0,-13.0,109.0,-7.0,0
4.0,-253.0,-46.0,-12.0,109.0,-10.0,0
6.0,-250.0,-46.0,-10.0,110.0,-10.0,0
3.0,-251.0,-46.0,-8.0,112.0,-12.0,0
2.0,-250.0,-51.0,-5.0,113.0,-15.0,0
2.0,-250.0,-44.0,-1.0,114.0,-15.0,0
-1.0,-251.0,-44.0,-2.0,108.0,-16.0,0
2.0,-249.0,-42.0,1.0,107.0,-16.0,0
0.0,-251.0,-47.0,-1.0,103.0,-16.0,0
-2.0,-250.0,-41.0,-7.0,98.0,-16.0,0
3.0,-250.0,-44.0,-9.0,94.0,-16.0,0
3.0,-246.0,-39.0,-9.0,92.0,-16.0,0
-1.0,-250.0,-52.0,-11.0,90.0,-14.0,0
3.0,-250.0,-45.0,-9.0,86.0,-13.0,0
4.0,-250.0,-49.0,-12.0,83.0,-12.0,0
5.0,-251.0,-45.0,-12.0,79.0,-9.0,0
3.0,-252.0,-46.0,-14.0,77.0,-8.0,0
2.0,-252.0,-50.0,-16.0,74.0,-9.0,0
2.0,-249.0,-48.0,-14.0,72.0,-7.0,0
6.0,-254.0,-48.0,-9.0,71.0,-5.0,0
0.0,-251.0,-50.0,-5.0,70.0,-6.0,0
2.0,-252.0,-50.0,0.0,71.0,-7.0,0
1.0,-252.0,-45.0,-1.0,71.0,-6.0,0
10.0,-253.0,-44.0,-4.0,72.0,-8.0,0
2.0,-249.0,-48.0,-9.0,72.0,-9.0,0
3.0,-250.0,-46.0,-12.0,74.0,-9.0,0
3.0,-248.0,-48.0,-17.0,75.0,-11.0,0
6.0,-252.0,-47.0,-18.0,76.0,-12.0,0
5.0,-250.0,-46.0,-15.0,76.0,-14.0,0
8.0,-250.0,-50.0,-14.0,74.0,-12.0,0
9.0,-253.0,-51.0,-12.0,73.0,-13.0,0
2.0,-253.0,-46.0,-12.0,74.0,-12.0,0
7.0,-250.0,-50.0,-15.0,77.0,-13.0,0
2.0,-253.0,-51.0,-18.0,80.0,-13.0,0
14.0,-237.0,-72.0,-18.0,84.0,-13.0,0
5.0,-253.0,-51.0,-16.0,86.0,-13.0,0
5.0,-252.0,-47.0,-11.0,90.0,-12.0,0
4.0,-252.0,-49.0,-5.0,94.0,-11.0,0
8.0,-253.0,-50.0,-1.0,97.0,-12.0,0
6.0,-252.0,-46.0,1.0,101.0,-11.0,0
6.0,-251.0,-50.0,1.0,101.0,-11.0,0
5.0,-251.0,-45.0,-2.0,101.0,-10.0,0
5.0,-245.0,-51.0,-8.0,98.0,-11.0,0
4.0,-252.0,-48.0,-15.0,96.0,-11.0,0
0.0,-251.0,-55.0,-20.0,97.0,-10.0,0
-1.0,-254.0,-40.0,-24.0,97.0,-11.0,0
6.0,-255.0,-49.0,-24.0,95.0,-11.0,0
5.0,-254.0,-46.0,-23.0,95.0,-12.0,0
5.0,-252.0,-47.0,-21.0,95.0,-12.0,0
4.0,-251.0,-43.0,-20.0,94.0,-11.0,0
5.0,-254.0,-48.0,-18.0,95.0,-13.0,0
3.0,-253.0,-46.0,-14.0,96.0,-13.0,0
8.0,-250.0,-47.0,-10.0,95.0,-12.0,0
2.0,-251.0,-46.0,-5.0,95.0,-12.0,0
1.0,-252.0,-47.0,-1.0,94.0,-12.0,0
2.0,-253.0,-46.0,2.0,97.0,-11.0,0
-9.0,-248.0,-47.0,4.0,97.0,-13.0,0
2.0,-249.0,-46.0,3.0,97.0,-13.0,0
2.0,-249.0,-47.0,0.0,99.0,-15.0,0
5.0,-251.0,-46.0,-2.0,99.0,-13.0,0
2.0,-249.0,-44.0,-3.0,98.0,-13.0,0
2.0,-248.0,-46.0,-5.0,96.0,-11.0,0
4.0,-251.0,-46.0,-1.0,94.0,-13.0,0
2.0,-250.0,-50.0,-1.0,91.0,-12.0,0
1.0,-251.0,-50.0,1.0,90.0,-13.0,0
3.0,-250.0,-45.0,0.0,87.0,-12.0,0
7.0,-246.0,-44.0,0.0,85.0,-12.0,0
-3.0,-253.0,-35.0,0.0,83.0,-10.0,0
2.0,-252.0,-48.0,-1.0,78.0,-11.0,0
5.0,-254.0,-48.0,1.0,77.0,-9.0,0
1.0,-249.0,-47.0,4.0,74.0,-9.0,0
3.0,-250.0,-42.0,5.0,73.0,-6.0,0
4.0,-250.0,-42.0,8.0,72.0,-7.0,0
2.0,-249.0,-50.0,7.0,70.0,-6.0,0
1.0,-250.0,-50.0,3.0,70.0,-6.0,0
2.0,-243.0,-46.0,-3.0,67.0,-6.0,0
2.0,-247.0,-48.0,-8.0,66.0,-4.0,0
4.0,-250.0,-44.0,-14.0,62.0,-4.0,0
15.0,-248.0,-58.0,-17.0,60.0,-3.0,0
5.0,-251.0,-41.0,-16.0,57.0,-2.0,0
2.0,-251.0,-48.0,-13.0,55.0,-4.0,0
3.0,-253.0,-50.0,-11.0,52.0,-2.0,0
2.0,-251.0,-45.0,-6.0,51.0,-3.0,0
3.0,-252.0,-48.0,-3.0,51.0,-1.0,0
2.0,-250.0,-47.0,-2.0,51.0,-3.0,0
6.0,-250.0,-46.0,-3.0,50.0,-2.0,0
7.0,-251.0,-45.0,-3.0,51.0,-3.0,0
1.0,-251.0,-42.0,-5.0,50.0,-2.0,0
0.0,-254.0,-49.0,-7.0,49.0,-2.0,0
1.0,-249.0,-44.0,-10.0,49.0,0.0,0
7.0,-252.0,-45.0,-10.0,49.0,-2.0,0
2.0,-250.0,-43.0,-11.0,48.0,-1.0,0
1.0,-249.0,-46.0,-10.0,47.0,-2.0,0
6.0,-248.0,-47.0,-10.0,47.0,0.0,0
4.0,-251.0,-45.0,-10.0,46.0,0.0,0
7.0,-251.0,-47.0,-12.0,45.0,1.0,0
8.0,-249.0,-48.0,-14.0,43.0,0.0,0
2.0,-249.0,-46.0,-16.0,42.0,2.0,0
7.0,-249.0,-44.0,-17.0,41.0,-1.0,0
7.0,-250.0,-47.0,-19.0,41.0,2.0,0
10.0,-253.0,-39.0,-18.0,42.0,0.0,0
5.0,-249.0,-45.0,-18.0,42.0,2.0,0
4.0,-250.0,-48.0,-16.0,43.0,0.0,0
3.0,-249.0,-44.0,-14.0,43.0,2.0,0
6.0,-251.0,-45.0,-12.0,45.0,-1.0,0
7.0,-251.0,-52.0,-11.0,46.0,1.0,0
3.0,-251.0,-46.0,-9.0,50.0,-1.0,0
6.0,-252.0,-41.0,-7.0,51.0,0.0,0
2.0,-252.0,-44.0,-3.0,52.0,-2.0,0
4.0,-253.0,-46.0,-2.0,50.0,0.0,0
-7.0,-242.0,-44.0,-2.0,50.0,-2.0,0
3.0,-247.0,-42.0,-4.0,49.0,1.0,0
3.0,-249.0,-49.0,-7.0,47.0,0.0,0
5.0,-249.0,-44.0,-7.0,45.0,0.0,0
6.0,-252.0,-45.0,-10.0,43.0,-2.0,0
6.0,-250.0,-49.0,-12.0,42.0,-1.0,0
3.0,-250.0,-44.0,-14.0,40.0,-1.0,0
4.0,-252.0,-46.0,-15.0,39.0,-1.0,0
-1.0,-250.0,-48.0,-15.0,41.0,-2.0,0
3.0,-250.0,-49.0,-17.0,42.0,0.0,0
6.0,-253.0,-48.0,-21.0,43.0,-3.0,0
-9.0,-252.0,-48.0,-21.0,43.0,0.0,0
4.0,-251.0,-47.0,-21.0,44.0,-1.0,0
3.0,-254.0,-48.0,-21.0,45.0,0.0,0
2.0,-251.0,-43.0,-19.0,45.0,-2.0,0
7.0,-254.0,-49.0,-16.0,44.0,-1.0,0
4.0,-252.0,-44.0,-11.0,45.0,-2.0,0
4.0,-250.0,-44.0,-9.0,46.0,-1.0,0
2.0,-252.0,-43.0,-7.0,47.0,-2.0,0
3.0,-249.0,-49.0,-8.0,48.0,0.0,0
4.0,-250.0,-43.0,-10.0,48.0,-2.0,0
1.0,-252.0,-44.0,-14.0,49.0,-2.0,0
16.0,-256.0,-44.0,-17.0,49.0,-4.0,0
2.0,-251.0,-44.0,-17.0,50.0,-2.0,0
2.0,-250.0,-43.0,-17.0,49.0,-4.0,0
6.0,-252.0,-46.0,-15.0,51.0,-2.0,0
4.0,-248.0,-50.0,-12.0,50.0,-4.0,0
3.0,-247.0,-46.0,-10.0,51.0,-2.0,0
6.0,-251.0,-46.0,-7.0,52.0,-5.0,0
3.0,-253.0,-43.0,-6.0,52.0,-3.0,0
5.0,-251.0,-48.0,-5.0,52.0,-5.0,0
3.0,-252.0,-45.0,-6.0,52.0,-3.0,0
10.0,-255.0,-38.0,-8.0,52.0,-6.0,0
10.0,-250.0,-44.0,-10.0,55.0,-3.0,0
5.0,-252.0,-47.0,-13.0,56.0,-6.0,0
4.0,-252.0,-44.0,-17.0,57.0,-4.0,0
7.0,-251.0,-49.0,-18.0,58.0,-6.0,0
5.0,-253.0,-46.0,-19.0,56.0,-5.0,0
8.0,-253.0,-44.0,-20.0,56.0,-8.0,0
7.0,-249.0,-48.0,-16.0,56.0,-6.0,0
4.0,-250.0,-47.0,-14.0,57.0,-6.0,0
11.0,-249.0,-46.0,-11.0,59.0,-5.0,0
3.0,-249.0,-47.0,-9.0,60.0,-6.0,0
5.0,-252.0,-46.0,-6.0,59.0,-4.0,0
5.0,-247.0,-46.0,-4.0,59.0,-7.0,0
2.0,-250.0,-48.0,-3.0,58.0,-4.0,0
4.0,-252.0,-49.0,-4.0,58.0,-6.0,0
6.0,-253.0,-44.0,-4.0,56.0,-5.0,0
3.0,-250.0,-51.0,-10.0,55.0,-8.0,0
4.0,-249.0,-46.0,-14.0,53.0,-4.0,0
3.0,-250.0,-48.0,-17.0,53.0,-7.0,0
2.0,-251.0,-47.0,-20.0,52.0,-6.0,0
3.0,-250.0,-48.0,-18.0,53.0,-9.0,0
0.0,-248.0,-46.0,-16.0,54.0,-6.0,0
2.0,-245.0,-41.0,-14.0,52.0,-8.0,0
0.0,-257.0,-41.0,-15.0,51.0,-6.0,0
5.0,-252.0,-46.0,-15.0,51.0,-6.0,0
5.0,-254.0,-50.0,-13.0,49.0,-5.0,0
3.0,-254.0,-46.0,-9.0,50.0,-5.0,0
6.0,-252.0,-44.0,-4.0,48.0,-3.0,0
2.0,-250.0,-43.0,0.0,47.0,-7.0,0
6.0,-251.0,-48.0,3.0,45.0,-5.0,0
2.0,-251.0,-47.0,1.0,45.0,-9.0,0
5.0,-250.0,-49.0,-8.0,46.0,-7.0,0
4.0,-248.0,-47.0,-15.0,46.0,-11.0,0
4.0,-252.0,-43.0,-22.0,46.0,-8.0,0
3.0,-268.0,-43.0,-23.0,45.0,-9.0,0
5.0,-251.0,-45.0,-17.0,43.0,-6.0,0
2.0,-252.0,-47.0,-8.0,43.0,-8.0,0
4.0,-250.0,-45.0,3.0,40.0,-4.0,0
4.0,-253.0,-48.0,9.0,37.0,-6.0,0
-1.0,-250.0,-41.0,15.0,36.0,-4.0,0
1.0,-248.0,-45.0,16.0,34.0,-6.0,0
3.0,-252.0,-46.0,15.0,34.0,-4.0,0
0.0,-251.0,-46.0,12.0,34.0,-6.0,0
7.0,-251.0,-46.0,10.0,31.0,-3.0,0
1.0,-249.0,-49.0,8.0,30.0,-6.0,0
12.0,-251.0,-44.0,9.0,29.0,-4.0,0
1.0,-249.0,-47.0,7.0,28.0,-6.0,0
2.0,-248.0,-45.0,6.0,30.0,-4.0,0
2.0,-249.0,-48.0,5.0,29.0,-6.0,0
-1.0,-247.0,-45.0,4.0,30.0,-3.0,0
2.0,-251.0,-45.0,3.0,31.0,-5.0,0
3.0,-251.0,-45.0,4.0,30.0,-2.0,0
5.0,-253.0,-43.0,2.0,30.0,-3.0,0
3.0,-250.0,-47.0,1.0,29.0,-1.0,0
4.0,-252.0,-47.0,-1.0,28.0,-4.0,0
5.0,-252.0,-49.0,-4.0,26.0,-2.0,0
-7.0,-255.0,-32.0,-6.0,25.0,-4.0,0
3.0,-248.0,-45.0,-12.0,24.0,-3.0,0
2.0,-251.0,-43.0,-16.0,24.0,-5.0,0
5.0,-249.0,-46.0,-23.0,25.0,-2.0,0
4.0,-248.0,-45.0,-25.0,27.0,-4.0,0
7.0,-250.0,-46.0,-27.0,28.0,-2.0,0
4.0,-251.0,-41.0,-26.0,29.0,-5.0,0
2.0,-249.0,-41.0,-25.0,29.0,-3.0,0
6.0,-253.0,-46.0,-22.0,31.0,-4.0,0
3.0,-249.0,-48.0,-21.0,33.0,-1.0,0
3.0,-252.0,-44.0,-19.0,34.0,-5.0,0
6.0,-237.0,-58.0,-18.0,36.0,-3.0,0
4.0,-251.0,-45.0,-15.0,40.0,-5.0,0
3.0,-251.0,-46.0,-13.0,41.0,-2.0,0
6.0,-253.0,-45.0,-12.0,41.0,-5.0,0
7.0,-251.0,-47.0,-9.0,42.0,-2.0,0
7.0,-254.0,-46.0,-7.0,41.0,-3.0,0
1.0,-250.0,-49.0,-7.0,41.0,-1.0,0
5.0,-252.0,-43.0,-7.0,42.0,-5.0,0
6.0,-253.0,-50.0,-8.0,40.0,-2.0,0
6.0,-252.0,-52.0,-10.0,41.0,-3.0,0
2.0,-247.0,-58.0,-10.0,41.0,-1.0,0
5.0,-252.0,-45.0,-12.0,43.0,-4.0,0
4.0,-252.0,-46.0,-14.0,46.0,-3.0,0
5.0,-253.0,-45.0,-13.0,49.0,-6.0,0
3.0,-251.0,-46.0,-12.0,50.0,-3.0,0
6.0,-253.0,-45.0,-9.0,52.0,-5.0,0
0.0,-252.0,-45.0,-5.0,51.0,-2.0,0
1.0,-253.0,-43.0,-1.0,53.0,-6.0,0
3.0,-253.0,-44.0,4.0,53.0,-4.0,0
3.0,-253.0,-46.0,10.0,53.0,-5.0,0
4.0,-251.0,-45.0,13.0,53.0,-2.0,0
-6.0,-249.0,-45.0,14.0,53.0,-5.0,0
3.0,-252.0,-44.0,17.0,53.0,-1.0,0
3.0,-254.0,-42.0,19.0,52.0,-4.0,0
3.0,-252.0,-43.0,22.0,52.0,-2.0,0
3.0,-250.0,-45.0,23.0,52.0,-4.0,0
5.0,-254.0,-45.0,29.0,51.0,-2.0,0
3.0,-251.0,-44.0,37.0,52.0,-3.0,0
2.0,-254.0,-43.0,47.0,51.0,-1.0,0
3.0,-252.0,-45.0,55.0,49.0,-2.0,0
2.0,-253.0,-46.0,61.0,47.0,2.0,0
6.0,-252.0,-48.0,64.0,46.0,0.0,0
1.0,-249.0,-57.0,64.0,44.0,3.0,0
4.0,-252.0,-47.0,62.0,44.0,-1.0,0
1.0,-252.0,-43.0,61.0,43.0,4.0,0
5.0,-250.0,-45.0,59.0,43.0,2.0,0
3.0,-250.0,-45.0,57.0,42.0,5.0,0
1.0,-249.0,-42.0,57.0,42.0,2.0,0
4.0,-250.0,-45.0,54.0,42.0,5.0,0
5.0,-248.0,-40.0,49.0,40.0,3.0,0
4.0,-251.0,-50.0,37.0,39.0,6.0,0
9.0,-251.0,-45.0,30.0,35.0,4.0,0
4.0,-249.0,-41.0,21.0,33.0,5.0,0
1.0,-253.0,-28.0,16.0,31.0,4.0,0
6.0,-250.0,-40.0,12.0,29.0,7.0,0
7.0,-250.0,-43.0,10.0,24.0,5.0,0
6.0,-252.0,-40.0,9.0,25.0,8.0,0
5.0,-252.0,-46.0,11.0,28.0,5.0,0
5.0,-251.0,-41.0,13.0,30.0,6.0,0
6.0,-253.0,-43.0,17.0,33.0,4.0,0
5.0,-250.0,-40.0,19.0,35.0,6.0,0
4.0,-250.0,-39.0,22.0,39.0,2.0,0
3.0,-249.0,-48.0,25.0,42.0,6.0,0
5.0,-248.0,-40.0,26.0,41.0,2.0,0
-3.0,-242.0,-46.0,25.0,40.0,3.0,0
6.0,-252.0,-46.0,22.0,38.0,-1.0,0
6.0,-250.0,-41.0,16.0,36.0,0.0,0
2.0,-250.0,-42.0,10.0,36.0,-5.0,0
4.0,-250.0,-44.0,5.0,35.0,-2.0,0
6.0,-251.0,-44.0,0.0,36.0,-5.0,0
2.0,-252.0,-45.0,-4.0,36.0,-5.0,0
4.0,-252.0,-37.0,-3.0,36.0,-7.0,0
3.0,-248.0,-38.0,0.0,37.0,-6.0,0
2.0,-255.0,-35.0,2.0,38.0,-10.0,0
3.0,-251.0,-42.0,7.0,40.0,-10.0,0
4.0,-264.0,-30.0,11.0,44.0,-13.0,0
