ax,ay,az,gx,gy,gz,label
-2.0,-246.0,15.0,51.0,15.0,-11.0,0
-2.0,-243.0,16.0,50.0,15.0,-11.0,0
1.0,-247.0,18.0,50.0,16.0,-12.0,0
0.0,-242.0,21.0,49.0,16.0,-11.0,0
0.0,-249.0,23.0,49.0,18.0,-12.0,0
1.0,-244.0,17.0,49.0,19.0,-12.0,0
0.0,-249.0,16.0,50.0,21.0,-12.0,0
-1.0,-249.0,18.0,52.0,22.0,-13.0,0
1.0,-247.0,20.0,53.0,23.0,-11.0,0
0.0,-246.0,17.0,51.0,23.0,-11.0,0
1.0,-250.0,17.0,50.0,22.0,-14.0,0
0.0,-244.0,17.0,48.0,22.0,-12.0,0
0.0,-245.0,18.0,48.0,21.0,-10.0,0
-1.0,-246.0,18.0,47.0,19.0,-10.0,0
-1.0,-248.0,17.0,47.0,18.0,-9.0,0
0.0,-252.0,15.0,46.0,17.0,-9.0,0
0.0,-249.0,20.0,49.0,15.0,-8.0,0
-1.0,-245.0,17.0,50.0,14.0,-7.0,0
0.0,-248.0,17.0,50.0,15.0,-8.0,0
-1.0,-245.0,15.0,50.0,16.0,-7.0,0
-1.0,-249.0,20.0,48.0,14.0,-7.0,0
-1.0,-249.0,19.0,47.0,13.0,-6.0,0
-2.0,-248.0,17.0,45.0,14.0,-7.0,0
0.0,-250.0,12.0,44.0,14.0,-8.0,0
0.0,-252.0,19.0,41.0,12.0,-8.0,0
1.0,-246.0,17.0,39.0,11.0,-7.0,0
-3.0,-250.0,15.0,37.0,10.0,-7.0,0
1.0,-251.0,18.0,39.0,9.0,-8.0,0
0.0,-248.0,18.0,44.0,8.0,-8.0,0
1.0,-250.0,16.0,52.0,9.0,-10.0,0
-2.0,-249.0,15.0,59.0,8.0,-11.0,0
0.0,-249.0,17.0,62.0,9.0,-11.0,0
0.0,-248.0,18.0,64.0,10.0,-13.0,0
1.0,-250.0,13.0,63.0,9.0,-12.0,0
1.0,-250.0,19.0,62.0,9.0,-9.0,0
1.0,-245.0,18.0,60.0,10.0,-9.0,0
3.0,-244.0,18.0,59.0,8.0,-7.0,0
-3.0,-249.0,19.0,58.0,9.0,-5.0,0
0.0,-245.0,18.0,59.0,8.0,-6.0,0
-1.0,-247.0,18.0,60.0,7.0,-3.0,0
0.0,-245.0,21.0,61.0,5.0,-2.0,0
0.0,-250.0,17.0,60.0,3.0,-1.0,0
-1.0,-246.0,21.0,56.0,3.0,0.0,0
0.0,-246.0,23.0,51.0,3.0,-2.0,0
-2.0,-248.0,20.0,45.0,2.0,-2.0,0
1.0,-248.0,19.0,42.0,1.0,-3.0,0
0.0,-247.0,18.0,39.0,0.0,-3.0,0
-3.0,-249.0,18.0,37.0,1.0,-5.0,0
0.0,-248.0,20.0,38.0,1.0,-7.0,0
0.0,-247.0,19.0,38.0,3.0,-9.0,0
1.0,-245.0,20.0,39.0,5.0,-8.0,0
0.0,-247.0,17.0,39.0,7.0,-10.0,0
0.0,-249.0,18.0,39.0,9.0,-10.0,0
2.0,-247.0,20.0,40.0,11.0,-9.0,0
-1.0,-245.0,13.0,41.0,9.0,-8.0,0
-5.0,-243.0,18.0,42.0,8.0,-5.0,0
0.0,-244.0,15.0,42.0,7.0,-5.0,0
-1.0,-248.0,17.0,41.0,5.0,-5.0,0
2.0,-252.0,12.0,42.0,5.0,-4.0,0
1.0,-249.0,15.0,41.0,5.0,-4.0,0
0.0,-249.0,17.0,40.0,6.0,-4.0,0
1.0,-247.0,19.0,42.0,8.0,-5.0,0
0.0,-247.0,17.0,44.0,8.0,-5.0,0
0.0,-248.0,18.0,46.0,10.0,-9.0,0
-4.0,-247.0,18.0,47.0,10.0,-7.0,0
0.0,-248.0,14.0,48.0,9.0,-8.0,0
0.0,-250.0,19.0,44.0,8.0,-9.0,0
-2.0,-247.0,17.0,44.0,8.0,-10.0,0
-2.0,-249.0,17.0,45.0,8.0,-10.0,0
-6.0,-245.0,15.0,48.0,9.0,-10.0,0
0.0,-251.0,23.0,52.0,7.0,-10.0,0
-1.0,-250.0,19.0,53.0,4.0,-9.0,0
-3.0,-247.0,19.0,53.0,3.0,-10.0,0
0.0,-247.0,18.0,54.0,3.0,-10.0,0
-1.0,-246.0,21.0,53.0,2.0,-9.0,0
-3.0,-242.0,20.0,53.0,5.0,-11.0,0
0.0,-246.0,21.0,52.0,7.0,-10.0,0
-2.0,-243.0,28.0,50.0,7.0,-8.0,0
-5.0,-247.0,17.0,49.0,7.0,-8.0,0
-1.0,-250.0,13.0,47.0,8.0,-8.0,0
0.0,-244.0,20.0,46.0,6.0,-7.0,0
-2.0,-249.0,22.0,45.0,4.0,-7.0,0
0.0,-246.0,19.0,46.0,3.0,-7.0,0
0.0,-247.0,19.0,47.0,2.0,-8.0,0
0.0,-251.0,20.0,48.0,3.0,-7.0,0
2.0,-251.0,18.0,49.0,3.0,-9.0,0
-1.0,-247.0,21.0,49.0,2.0,-9.0,0
0.0,-249.0,19.0,50.0,4.0,-11.0,0
0.0,-249.0,15.0,50.0,5.0,-12.0,0
-2.0,-248.0,18.0,52.0,5.0,-12.0,0
-2.0,-240.0,13.0,53.0,3.0,-11.0,0
-2.0,-249.0,22.0,54.0,3.0,-9.0,0
-2.0,-246.0,19.0,54.0,1.0,-8.0,0
-1.0,-249.0,20.0,57.0,0.0,-7.0,0
0.0,-248.0,16.0,60.0,-2.0,-6.0,0
0.0,-246.0,17.0,63.0,-1.0,-6.0,0
0.0,-245.0,15.0,64.0,-1.0,-4.0,0
0.0,-246.0,18.0,64.0,-1.0,-4.0,0
0.0,-246.0,19.0,60.0,-2.0,-5.0,0
0.0,-248.0,17.0,53.0,-3.0,-5.0,0
0.0,-250.0,22.0,47.0,-5.0,-4.0,0
3.0,-248.0,25.0,43.0,-5.0,-5.0,0
2.0,-249.0,21.0,44.0,-5.0,-5.0,0
0.0,-250.0,17.0,48.0,-6.0,-5.0,0
0.0,-252.0,18.0,54.0,-6.0,-7.0,0
-3.0,-249.0,18.0,63.0,-7.0,-6.0,0
0.0,-252.0,12.0,70.0,-6.0,-8.0,0
-1.0,-251.0,17.0,76.0,-4.0,-11.0,0
-3.0,-245.0,13.0,80.0,-3.0,-10.0,0
-1.0,-249.0,16.0,80.0,-1.0,-12.0,0
0.0,-244.0,16.0,79.0,2.0,-13.0,0
-5.0,-248.0,17.0,75.0,4.0,-12.0,0
1.0,-247.0,21.0,70.0,6.0,-14.0,0
-3.0,-244.0,27.0,67.0,11.0,-13.0,0
-1.0,-245.0,20.0,65.0,13.0,-13.0,0
0.0,-245.0,23.0,64.0,15.0,-12.0,0
2.0,-248.0,21.0,60.0,17.0,-12.0,0
0.0,-244.0,19.0,57.0,17.0,-9.0,0
-2.0,-246.0,24.0,55.0,15.0,-8.0,0
0.0,-244.0,17.0,49.0,12.0,-5.0,0
0.0,-242.0,16.0,46.0,10.0,-5.0,0
-2.0,-246.0,17.0,43.0,8.0,-4.0,0
1.0,-244.0,17.0,42.0,6.0,-5.0,0
2.0,-246.0,19.0,42.0,4.0,-3.0,0
1.0,-248.0,17.0,41.0,3.0,-3.0,0
0.0,-249.0,15.0,43.0,2.0,-3.0,0
1.0,-248.0,13.0,47.0,4.0,-5.0,0
1.0,-251.0,18.0,50.0,7.0,-2.0,0
0.0,-248.0,14.0,52.0,9.0,-3.0,0
-1.0,-251.0,16.0,54.0,11.0,-6.0,0
-2.0,-247.0,25.0,55.0,14.0,-6.0,0
-2.0,-247.0,12.0,56.0,14.0,-6.0,0
0.0,-251.0,15.0,56.0,15.0,-6.0,0
-4.0,-246.0,22.0,60.0,12.0,-6.0,0
-2.0,-248.0,19.0,64.0,13.0,-6.0,0
1.0,-248.0,21.0,69.0,11.0,-6.0,0
0.0,-248.0,20.0,73.0,9.0,-5.0,0
1.0,-248.0,20.0,76.0,8.0,-4.0,0
0.0,-247.0,22.0,80.0,8.0,-6.0,0
-1.0,-243.0,19.0,83.0,8.0,-6.0,0
0.0,-249.0,14.0,83.0,8.0,-7.0,0
-1.0,-249.0,17.0,84.0,8.0,-6.0,0
0.0,-248.0,21.0,80.0,9.0,-7.0,0
-4.0,-251.0,15.0,73.0,9.0,-7.0,0
-3.0,-246.0,19.0,67.0,9.0,-7.0,0
-1.0,-247.0,21.0,61.0,8.0,-7.0,0
-1.0,-249.0,16.0,55.0,6.0,-7.0,0
-3.0,-246.0,17.0,52.0,6.0,-5.0,0
0.0,-249.0,21.0,53.0,4.0,-6.0,0
1.0,-246.0,21.0,54.0,2.0,-5.0,0
0.0,-251.0,22.0,54.0,2.0,-5.0,0
-1.0,-249.0,20.0,56.0,1.0,-6.0,0
-2.0,-249.0,15.0,56.0,1.0,-6.0,0
0.0,-248.0,16.0,56.0,0.0,-6.0,0
-3.0,-245.0,25.0,55.0,-1.0,-6.0,0
0.0,-247.0,19.0,55.0,-1.0,-6.0,0
0.0,-245.0,18.0,54.0,0.0,-4.0,0
-1.0,-245.0,18.0,55.0,-1.0,-6.0,0
0.0,-247.0,18.0,54.0,1.0,-7.0,0
0.0,-246.0,20.0,56.0,3.0,-7.0,0
0.0,-249.0,17.0,60.0,3.0,-8.0,0
-1.0,-248.0,17.0,61.0,3.0,-9.0,0
0.0,-249.0,19.0,63.0,2.0,-9.0,0
-1.0,-248.0,21.0,64.0,2.0,-9.0,0
-1.0,-247.0,18.0,66.0,0.0,-7.0,0
-2.0,-250.0,6.0,68.0,-1.0,-7.0,0
1.0,-247.0,20.0,70.0,-1.0,-6.0,0
-3.0,-246.0,21.0,71.0,1.0,-7.0,0
0.0,-248.0,21.0,72.0,-1.0,-6.0,0
0.0,-247.0,23.0,71.0,1.0,-5.0,0
0.0,-247.0,22.0,71.0,0.0,-7.0,0
-2.0,-247.0,23.0,69.0,1.0,-6.0,0
-4.0,-251.0,20.0,67.0,1.0,-9.0,0
-4.0,-247.0,20.0,65.0,3.0,-10.0,0
-1.0,-249.0,21.0,66.0,3.0,-8.0,0
0.0,-249.0,18.0,64.0,3.0,-10.0,0
-2.0,-247.0,20.0,62.0,4.0,-11.0,0
-1.0,-248.0,22.0,63.0,6.0,-12.0,0
0.0,-249.0,16.0,63.0,7.0,-12.0,0
-2.0,-247.0,18.0,65.0,7.0,-12.0,0
0.0,-248.0,21.0,68.0,7.0,-12.0,0
-4.0,-246.0,18.0,68.0,8.0,-11.0,0
-1.0,-249.0,18.0,70.0,8.0,-12.0,0
0.0,-247.0,15.0,71.0,10.0,-9.0,0
2.0,-247.0,21.0,70.0,10.0,-9.0,0
0.0,-248.0,14.0,66.0,11.0,-9.0,0
1.0,-247.0,27.0,62.0,14.0,-7.0,0
-1.0,-245.0,19.0,58.0,15.0,-7.0,0
-3.0,-249.0,24.0,56.0,15.0,-6.0,0
-1.0,-246.0,19.0,57.0,15.0,-7.0,0
-2.0,-247.0,16.0,60.0,14.0,-6.0,0
-1.0,-248.0,21.0,62.0,13.0,-8.0,0
-1.0,-249.0,19.0,63.0,12.0,-10.0,0
-6.0,-246.0,17.0,65.0,13.0,-12.0,0
-2.0,-249.0,23.0,65.0,12.0,-11.0,0
-2.0,-248.0,19.0,64.0,13.0,-13.0,0
-2.0,-246.0,15.0,61.0,15.0,-13.0,0
2.0,-240.0,18.0,61.0,16.0,-12.0,0
0.0,-247.0,18.0,61.0,18.0,-14.0,0
0.0,-246.0,19.0,60.0,21.0,-14.0,0
-1.0,-246.0,21.0,61.0,24.0,-14.0,0
-1.0,-246.0,21.0,61.0,24.0,-13.0,0
0.0,-246.0,20.0,62.0,22.0,-11.0,0
2.0,-242.0,22.0,61.0,22.0,-9.0,0
-3.0,-246.0,15.0,59.0,21.0,-9.0,0
-1.0,-245.0,21.0,58.0,20.0,-9.0,0
-1.0,-248.0,21.0,56.0,20.0,-8.0,0
-8.0,-247.0,18.0,53.0,19.0,-7.0,0
0.0,-248.0,18.0,50.0,19.0,-6.0,0
0.0,-245.0,20.0,49.0,18.0,-9.0,0
-1.0,-247.0,21.0,47.0,20.0,-9.0,0
0.0,-245.0,25.0,48.0,21.0,-9.0,0
-4.0,-245.0,18.0,48.0,21.0,-10.0,0
-2.0,-245.0,13.0,48.0,22.0,-9.0,0
-1.0,-247.0,17.0,49.0,21.0,-8.0,0
-2.0,-245.0,19.0,49.0,21.0,-8.0,0
-1.0,-250.0,16.0,53.0,20.0,-9.0,0
0.0,-252.0,14.0,56.0,18.0,-9.0,0
0.0,-251.0,19.0,58.0,17.0,-10.0,0
-3.0,-247.0,17.0,61.0,16.0,-10.0,0
0.0,-251.0,20.0,63.0,16.0,-12.0,0
0.0,-248.0,20.0,63.0,15.0,-12.0,0
0.0,-248.0,19.0,61.0,17.0,-14.0,0
-2.0,-246.0,21.0,59.0,17.0,-15.0,0
-1.0,-245.0,18.0,55.0,20.0,-15.0,0
0.0,-245.0,23.0,54.0,22.0,-13.0,0
-2.0,-244.0,19.0,54.0,21.0,-13.0,0
0.0,-247.0,16.0,52.0,22.0,-12.0,0
0.0,-249.0,20.0,51.0,24.0,-11.0,0
0.0,-249.0,16.0,47.0,24.0,-11.0,0
-3.0,-248.0,15.0,46.0,23.0,-11.0,0
-2.0,-246.0,19.0,44.0,21.0,-10.0,0
0.0,-246.0,16.0,42.0,23.0,-11.0,0
0.0,-249.0,19.0,40.0,24.0,-10.0,0
0.0,-247.0,19.0,40.0,25.0,-9.0,0
-4.0,-243.0,21.0,38.0,26.0,-11.0,0
-2.0,-246.0,14.0,38.0,25.0,-12.0,0
-2.0,-248.0,19.0,38.0,25.0,-14.0,0
-2.0,-242.0,20.0,37.0,27.0,-14.0,0
-2.0,-249.0,18.0,36.0,26.0,-14.0,0
0.0,-248.0,16.0,35.0,24.0,-15.0,0
-4.0,-249.0,19.0,32.0,24.0,-14.0,0
0.0,-247.0,19.0,30.0,24.0,-14.0,0
-1.0,-245.0,20.0,29.0,24.0,-13.0,0
-2.0,-247.0,19.0,29.0,22.0,-14.0,0
-1.0,-247.0,17.0,31.0,22.0,-15.0,0
0.0,-245.0,21.0,36.0,21.0,-13.0,0
0.0,-249.0,18.0,38.0,21.0,-12.0,0
0.0,-251.0,17.0,44.0,23.0,-12.0,0
-2.0,-248.0,16.0,51.0,22.0,-13.0,0
0.0,-247.0,19.0,54.0,23.0,-11.0,0
0.0,-249.0,19.0,57.0,21.0,-11.0,0
-1.0,-247.0,17.0,58.0,20.0,-9.0,0
-1.0,-247.0,22.0,56.0,18.0,-9.0,0
0.0,-246.0,16.0,55.0,17.0,-9.0,0
-1.0,-247.0,17.0,52.0,16.0,-7.0,0
2.0,-249.0,19.0,49.0,17.0,-7.0,0
-2.0,-248.0,17.0,49.0,16.0,-7.0,0
-2.0,-247.0,21.0,49.0,17.0,-8.0,0
0.0,-246.0,20.0,53.0,16.0,-7.0,0
-1.0,-249.0,20.0,57.0,14.0,-8.0,0
2.0,-240.0,14.0,60.0,13.0,-9.0,0
0.0,-245.0,19.0,61.0,13.0,-11.0,0
-1.0,-245.0,19.0,61.0,12.0,-9.0,0
-3.0,-248.0,16.0,58.0,13.0,-8.0,0
0.0,-248.0,19.0,55.0,13.0,-10.0,0
0.0,-247.0,16.0,52.0,13.0,-10.0,0
0.0,-250.0,16.0,51.0,12.0,-11.0,0
0.0,-250.0,17.0,51.0,11.0,-11.0,0
0.0,-247.0,16.0,51.0,12.0,-11.0,0
1.0,-248.0,16.0,54.0,10.0,-11.0,0
0.0,-247.0,16.0,57.0,11.0,-11.0,0
-2.0,-247.0,19.0,58.0,13.0,-11.0,0
0.0,-248.0,17.0,58.0,13.0,-10.0,0
0.0,-249.0,20.0,58.0,14.0,-10.0,0
2.0,-247.0,17.0,54.0,16.0,-9.0,0
-1.0,-251.0,19.0,53.0,15.0,-8.0,0
0.0,-248.0,17.0,53.0,16.0,-9.0,0
2.0,-249.0,18.0,53.0,14.0,-8.0,0
-1.0,-251.0,17.0,56.0,13.0,-7.0,0
0.0,-248.0,13.0,59.0,13.0,-8.0,0
-1.0,-247.0,17.0,63.0,13.0,-8.0,0
-3.0,-245.0,16.0,66.0,11.0,-10.0,0
0.0,-248.0,21.0,68.0,12.0,-10.0,0
0.0,-247.0,16.0,68.0,12.0,-8.0,0
-2.0,-247.0,18.0,66.0,12.0,-9.0,0
-2.0,-247.0,21.0,64.0,13.0,-9.0,0
0.0,-247.0,21.0,62.0,14.0,-7.0,0
-3.0,-248.0,20.0,62.0,15.0,-8.0,0
0.0,-245.0,20.0,63.0,15.0,-9.0,0
-3.0,-249.0,20.0,65.0,16.0,-9.0,0
1.0,-248.0,22.0,66.0,16.0,-10.0,0
-1.0,-246.0,22.0,67.0,16.0,-9.0,0
-2.0,-245.0,19.0,64.0,16.0,-8.0,0
0.0,-245.0,20.0,62.0,16.0,-9.0,0
-2.0,-245.0,19.0,59.0,16.0,-9.0,0
0.0,-249.0,21.0,56.0,16.0,-9.0,0
0.0,-247.0,19.0,54.0,16.0,-8.0,0
-3.0,-248.0,21.0,52.0,16.0,-9.0,0
-3.0,-246.0,21.0,51.0,17.0,-9.0,0
0.0,-247.0,21.0,53.0,17.0,-10.0,0
-1.0,-249.0,17.0,55.0,18.0,-11.0,0
0.0,-248.0,17.0,57.0,17.0,-10.0,0
-1.0,-246.0,20.0,57.0,19.0,-12.0,0
-3.0,-247.0,19.0,57.0,19.0,-13.0,0
0.0,-248.0,19.0,56.0,21.0,-13.0,0
0.0,-248.0,21.0,54.0,20.0,-13.0,0
0.0,-247.0,21.0,54.0,20.0,-14.0,0
0.0,-248.0,20.0,56.0,21.0,-15.0,0
0.0,-247.0,17.0,58.0,21.0,-15.0,0
1.0,-244.0,20.0,60.0,20.0,-13.0,0
0.0,-246.0,20.0,63.0,18.0,-13.0,0
2.0,-251.0,23.0,65.0,19.0,-14.0,0
1.0,-248.0,21.0,65.0,19.0,-11.0,0
-1.0,-249.0,18.0,66.0,18.0,-12.0,0
0.0,-249.0,17.0,68.0,17.0,-11.0,0
-1.0,-247.0,16.0,70.0,16.0,-9.0,0
0.0,-249.0,22.0,71.0,16.0,-7.0,0
0.0,-249.0,20.0,73.0,15.0,-8.0,0
0.0,-247.0,21.0,75.0,13.0,-7.0,0
0.0,-250.0,15.0,75.0,11.0,-7.0,0
-2.0,-249.0,19.0,75.0,12.0,-9.0,0
-1.0,-243.0,18.0,74.0,14.0,-8.0,0
1.0,-248.0,21.0,71.0,15.0,-7.0,0
0.0,-249.0,13.0,71.0,16.0,-8.0,0
0.0,-249.0,22.0,71.0,17.0,-9.0,0
0.0,-251.0,18.0,74.0,18.0,-10.0,0
0.0,-246.0,18.0,78.0,19.0,-11.0,0
1.0,-248.0,17.0,82.0,18.0,-11.0,0
0.0,-246.0,19.0,85.0,18.0,-12.0,0
0.0,-245.0,14.0,89.0,18.0,-12.0,0
1.0,-246.0,19.0,89.0,17.0,-11.0,0
-5.0,-248.0,14.0,86.0,17.0,-11.0,0
1.0,-246.0,16.0,82.0,16.0,-11.0,0
1.0,-246.0,22.0,76.0,16.0,-11.0,0
-4.0,-241.0,8.0,70.0,16.0,-11.0,0
3.0,-248.0,21.0,66.0,18.0,-12.0,0
0.0,-249.0,16.0,62.0,22.0,-13.0,0
2.0,-252.0,20.0,58.0,24.0,-13.0,0
0.0,-249.0,14.0,57.0,25.0,-13.0,0
1.0,-251.0,16.0,56.0,23.0,-12.0,0
0.0,-247.0,18.0,57.0,24.0,-9.0,0
1.0,-251.0,18.0,59.0,23.0,-9.0,0
0.0,-250.0,18.0,62.0,22.0,-6.0,0
3.0,-252.0,14.0,64.0,19.0,-3.0,0
0.0,-248.0,20.0,66.0,19.0,-1.0,0
0.0,-249.0,14.0,68.0,18.0,0.0,0
1.0,-248.0,10.0,68.0,19.0,1.0,0
0.0,-245.0,17.0,68.0,20.0,0.0,0
0.0,-248.0,12.0,66.0,23.0,-2.0,0
0.0,-251.0,14.0,65.0,26.0,-4.0,0
0.0,-247.0,13.0,63.0,28.0,-5.0,0
0.0,-246.0,16.0,62.0,28.0,-5.0,0
-2.0,-244.0,12.0,61.0,28.0,-6.0,0
0.0,-249.0,16.0,62.0,26.0,-8.0,0
0.0,-245.0,13.0,62.0,25.0,-7.0,0
0.0,-248.0,18.0,64.0,21.0,-6.0,0
2.0,-247.0,15.0,64.0,16.0,-5.0,0
-5.0,-251.0,13.0,65.0,14.0,-2.0,0
-1.0,-250.0,10.0,64.0,11.0,-2.0,0
-5.0,-246.0,13.0,62.0,11.0,-1.0,0
0.0,-249.0,11.0,61.0,12.0,-3.0,0
0.0,-251.0,13.0,60.0,15.0,-3.0,0
-1.0,-251.0,8.0,61.0,19.0,-5.0,0
-1.0,-249.0,12.0,62.0,21.0,-7.0,0
-1.0,-251.0,10.0,64.0,26.0,-11.0,0
2.0,-254.0,12.0,66.0,30.0,-11.0,0
-2.0,-255.0,7.0,69.0,33.0,-14.0,0
0.0,-251.0,9.0,71.0,35.0,-17.0,0
1.0,-252.0,13.0,73.0,35.0,-22.0,0
0.0,-248.0,13.0,77.0,36.0,-22.0,0
1.0,-251.0,11.0,84.0,36.0,-20.0,0
0.0,-250.0,12.0,90.0,35.0,-24.0,0
2.0,-252.0,10.0,94.0,35.0,-22.0,0
1.0,-256.0,13.0,98.0,36.0,-24.0,0
1.0,-254.0,11.0,102.0,37.0,-27.0,0
2.0,-254.0,10.0,105.0,39.0,-29.0,0
3.0,-252.0,12.0,113.0,42.0,-31.0,0
1.0,-255.0,7.0,122.0,43.0,-31.0,0
1.0,-252.0,11.0,130.0,41.0,-29.0,0
2.0,-253.0,12.0,139.0,36.0,-25.0,0
0.0,-250.0,16.0,145.0,32.0,-20.0,0
-1.0,-249.0,12.0,153.0,29.0,-16.0,0
0.0,-251.0,14.0,160.0,28.0,-13.0,0
0.0,-250.0,12.0,163.0,30.0,-8.0,0
-2.0,-248.0,11.0,163.0,34.0,-6.0,0
0.0,-250.0,11.0,160.0,37.0,-7.0,0
-4.0,-244.0,15.0,151.0,37.0,-4.0,0
0.0,-246.0,11.0,146.0,38.0,-1.0,0
4.0,-250.0,12.0,141.0,37.0,-2.0,0
1.0,-251.0,10.0,132.0,45.0,-11.0,0
-1.0,-248.0,11.0,130.0,54.0,-7.0,0
1.0,-249.0,11.0,132.0,56.0,-3.0,0
-2.0,-248.0,13.0,132.0,55.0,-9.0,0
0.0,-250.0,8.0,134.0,51.0,-3.0,0
-6.0,-247.0,13.0,133.0,50.0,-3.0,0
-1.0,-243.0,20.0,138.0,46.0,3.0,0
-7.0,-243.0,15.0,153.0,32.0,14.0,0
-6.0,-243.0,20.0,167.0,22.0,24.0,0
-9.0,-238.0,21.0,171.0,12.0,28.0,0
-7.0,-244.0,18.0,167.0,5.0,31.0,0
-7.0,-244.0,12.0,153.0,6.0,31.0,0
-7.0,-249.0,17.0,137.0,3.0,33.0,0
-8.0,-247.0,14.0,127.0,2.0,34.0,0
-8.0,-242.0,12.0,119.0,2.0,34.0,0
-10.0,-239.0,11.0,115.0,7.0,32.0,0
-8.0,-242.0,20.0,106.0,13.0,22.0,0
-6.0,-240.0,8.0,93.0,22.0,5.0,0
-1.0,-236.0,19.0,73.0,35.0,-11.0,0
2.0,-233.0,18.0,72.0,54.0,-3.0,0
1.0,-228.0,23.0,74.0,66.0,3.0,0
-1.0,-229.0,16.0,61.0,67.0,-6.0,0
0.0,-230.0,14.0,35.0,66.0,-16.0,0
0.0,-228.0,13.0,-1.0,70.0,-24.0,0
3.0,-237.0,16.0,-35.0,76.0,-31.0,0
5.0,-239.0,12.0,-77.0,81.0,-50.0,0
6.0,-241.0,17.0,-109.0,94.0,-62.0,0
7.0,-243.0,16.0,-114.0,112.0,-58.0,0
9.0,-250.0,19.0,-100.0,130.0,-63.0,0
8.0,-249.0,14.0,-85.0,146.0,-69.0,0
9.0,-255.0,16.0,-65.0,163.0,-69.0,0
17.0,-256.0,14.0,-47.0,181.0,-69.0,0
9.0,-257.0,13.0,-26.0,201.0,-58.0,0
10.0,-256.0,17.0,0.0,216.0,-54.0,0
5.0,-251.0,7.0,30.0,224.0,-58.0,0
7.0,-248.0,4.0,53.0,235.0,-64.0,0
10.0,-252.0,1.0,57.0,245.0,-68.0,0
8.0,-251.0,3.0,20.0,251.0,-92.0,0
6.0,-248.0,7.0,-45.0,264.0,-112.0,0
10.0,-246.0,14.0,-90.0,284.0,-106.0,0
9.0,-241.0,16.0,-103.0,299.0,-92.0,0
10.0,-239.0,20.0,-97.0,299.0,-79.0,0
1.0,-236.0,19.0,-81.0,294.0,-66.0,0
3.0,-239.0,19.0,-76.0,282.0,-56.0,0
2.0,-240.0,14.0,-84.0,269.0,-48.0,0
1.0,-239.0,16.0,-107.0,257.0,-42.0,0
0.0,-237.0,11.0,-132.0,247.0,-36.0,0
-1.0,-237.0,9.0,-155.0,240.0,-38.0,0
-1.0,-235.0,5.0,-173.0,239.0,-46.0,0
-1.0,-234.0,4.0,-184.0,246.0,-44.0,0
-2.0,-234.0,0.0,-194.0,260.0,-35.0,0
2.0,-237.0,1.0,-205.0,271.0,-26.0,0
-5.0,-233.0,7.0,-213.0,278.0,-23.0,0
-2.0,-238.0,0.0,-217.0,282.0,-27.0,0
-6.0,-232.0,2.0,-212.0,284.0,-28.0,0
-6.0,-230.0,0.0,-203.0,281.0,-29.0,0
-4.0,-228.0,1.0,-202.0,273.0,-26.0,0
-7.0,-230.0,0.0,-213.0,262.0,-19.0,0
-6.0,-232.0,1.0,-235.0,252.0,-19.0,0
-5.0,-230.0,5.0,-260.0,242.0,-18.0,0
-5.0,-227.0,5.0,-280.0,233.0,-18.0,0
-4.0,-225.0,3.0,-294.0,228.0,-17.0,0
-5.0,-225.0,6.0,-309.0,229.0,-16.0,0
-4.0,-222.0,-4.0,-322.0,234.0,-12.0,0
-3.0,-223.0,2.0,-328.0,236.0,-8.0,0
-1.0,-224.0,0.0,-337.0,235.0,0.0,0
-1.0,-221.0,4.0,-355.0,229.0,14.0,0
-3.0,-223.0,-4.0,-383.0,221.0,23.0,0
-3.0,-225.0,0.0,-416.0,216.0,35.0,0
-4.0,-227.0,-6.0,-443.0,210.0,40.0,0
-2.0,-235.0,-14.0,-479.0,201.0,49.0,0
-4.0,-233.0,-11.0,-550.0,192.0,54.0,0
-3.0,-230.0,-11.0,-593.0,176.0,59.0,0
-7.0,-231.0,-9.0,-625.0,156.0,64.0,0
-7.0,-228.0,-4.0,-648.0,135.0,71.0,0
-6.0,-226.0,-14.0,-662.0,114.0,80.0,0
-8.0,-224.0,-4.0,-676.0,99.0,85.0,0
-14.0,-218.0,-12.0,-682.0,95.0,88.0,0
-6.0,-218.0,-9.0,-703.0,94.0,96.0,0
-9.0,-219.0,-7.0,-734.0,93.0,98.0,0
-10.0,-221.0,-9.0,-768.0,93.0,100.0,0
-9.0,-222.0,-6.0,-796.0,92.0,103.0,0
-8.0,-230.0,-7.0,-810.0,84.0,105.0,0
-13.0,-227.0,-7.0,-820.0,72.0,107.0,0
-12.0,-236.0,-8.0,-824.0,54.0,106.0,0
-22.0,-237.0,-13.0,-823.0,24.0,102.0,0
-16.0,-241.0,-17.0,-823.0,-7.0,100.0,0
-17.0,-242.0,-21.0,-822.0,-39.0,99.0,0
-15.0,-245.0,-23.0,-829.0,-66.0,91.0,0
-22.0,-244.0,-29.0,-835.0,-91.0,80.0,0
-18.0,-246.0,-30.0,-845.0,-113.0,67.0,0
-21.0,-247.0,-27.0,-855.0,-130.0,50.0,0
-27.0,-243.0,-31.0,-855.0,-142.0,33.0,0
-23.0,-245.0,-29.0,-851.0,-153.0,12.0,0
-27.0,-239.0,-30.0,-849.0,-160.0,-6.0,0
-25.0,-241.0,-24.0,-851.0,-160.0,-23.0,0
-23.0,-239.0,-21.0,-853.0,-158.0,-41.0,0
-22.0,-238.0,-23.0,-856.0,-150.0,-58.0,0
-20.0,-243.0,-22.0,-853.0,-140.0,-69.0,0
-14.0,-240.0,-19.0,-846.0,-130.0,-76.0,0
-11.0,-246.0,-12.0,-834.0,-122.0,-77.0,0
-5.0,-250.0,-16.0,-818.0,-116.0,-70.0,0
3.0,-255.0,-16.0,-795.0,-113.0,-55.0,0
10.0,-259.0,-19.0,-769.0,-114.0,-38.0,0
12.0,-261.0,-18.0,-746.0,-119.0,-18.0,0
20.0,-264.0,-24.0,-726.0,-129.0,4.0,0
20.0,-260.0,-25.0,-710.0,-136.0,26.0,0
24.0,-267.0,-27.0,-696.0,-144.0,47.0,0
25.0,-263.0,-27.0,-687.0,-150.0,65.0,0
23.0,-263.0,-29.0,-678.0,-153.0,83.0,0
24.0,-265.0,-31.0,-672.0,-158.0,86.0,0
21.0,-260.0,-34.0,-669.0,-160.0,83.0,0
16.0,-257.0,-34.0,-666.0,-160.0,76.0,0
11.0,-256.0,-31.0,-663.0,-157.0,66.0,0
5.0,-250.0,-34.0,-655.0,-159.0,55.0,0
-2.0,-250.0,-41.0,-644.0,-161.0,44.0,0
-8.0,-249.0,-34.0,-637.0,-162.0,32.0,0
-19.0,-249.0,-40.0,-633.0,-161.0,17.0,0
-21.0,-242.0,-37.0,-631.0,-156.0,0.0,0
-20.0,-241.0,-38.0,-627.0,-146.0,-15.0,0
-24.0,-240.0,-35.0,-620.0,-129.0,-38.0,0
-23.0,-241.0,-40.0,-612.0,-110.0,-56.0,0
-18.0,-240.0,-41.0,-599.0,-89.0,-70.0,0
-13.0,-243.0,-47.0,-581.0,-66.0,-81.0,0
-13.0,-243.0,-47.0,-562.0,-41.0,-94.0,0
0.0,-242.0,-47.0,-547.0,-16.0,-107.0,0
0.0,-239.0,-47.0,-534.0,6.0,-115.0,0
0.0,-229.0,-49.0,-525.0,23.0,-119.0,0
7.0,-221.0,-48.0,-526.0,31.0,-121.0,0
5.0,-221.0,-49.0,-531.0,27.0,-122.0,0
5.0,-218.0,-48.0,-543.0,11.0,-123.0,0
5.0,-215.0,-49.0,-553.0,-12.0,-121.0,0
1.0,-214.0,-48.0,-565.0,-39.0,-118.0,0
3.0,-214.0,-50.0,-578.0,-61.0,-116.0,0
-1.0,-216.0,-49.0,-590.0,-78.0,-115.0,0
-2.0,-216.0,-51.0,-602.0,-89.0,-115.0,0
-8.0,-220.0,-53.0,-613.0,-95.0,-114.0,0
-7.0,-225.0,-52.0,-625.0,-94.0,-111.0,0
-4.0,-228.0,-55.0,-634.0,-85.0,-112.0,0
-17.0,-228.0,-58.0,-644.0,-70.0,-113.0,0
-11.0,-232.0,-63.0,-648.0,-50.0,-120.0,0
-9.0,-234.0,-64.0,-647.0,-27.0,-128.0,0
-8.0,-236.0,-66.0,-642.0,-6.0,-140.0,0
-6.0,-233.0,-67.0,-633.0,15.0,-150.0,0
-4.0,-231.0,-65.0,-619.0,30.0,-161.0,0
-3.0,-229.0,-65.0,-605.0,37.0,-165.0,0
-4.0,-231.0,-68.0,-593.0,37.0,-168.0,0
-2.0,-227.0,-62.0,-584.0,27.0,-168.0,0
-12.0,-224.0,-61.0,-574.0,11.0,-164.0,0
-8.0,-225.0,-61.0,-565.0,-13.0,-154.0,0
-9.0,-221.0,-63.0,-558.0,-36.0,-145.0,0
-10.0,-225.0,-64.0,-559.0,-53.0,-133.0,0
-8.0,-224.0,-66.0,-565.0,-67.0,-122.0,0
-3.0,-219.0,-71.0,-572.0,-77.0,-113.0,0
-7.0,-221.0,-71.0,-585.0,-86.0,-107.0,0
-9.0,-221.0,-68.0,-599.0,-95.0,-104.0,0
-10.0,-223.0,-70.0,-610.0,-105.0,-101.0,0
-8.0,-223.0,-68.0,-611.0,-118.0,-103.0,0
-14.0,-224.0,-68.0,-604.0,-130.0,-101.0,0
-11.0,-223.0,-71.0,-594.0,-140.0,-93.0,0
-16.0,-224.0,-74.0,-581.0,-149.0,-89.0,0
-21.0,-229.0,-72.0,-572.0,-152.0,-86.0,0
-17.0,-226.0,-76.0,-562.0,-151.0,-92.0,0
-20.0,-223.0,-76.0,-546.0,-149.0,-106.0,0
-21.0,-224.0,-77.0,-528.0,-142.0,-116.0,0
-23.0,-220.0,-75.0,-510.0,-131.0,-119.0,0
-21.0,-218.0,-71.0,-493.0,-122.0,-118.0,0
-18.0,-215.0,-77.0,-477.0,-115.0,-118.0,0
-19.0,-210.0,-71.0,-465.0,-116.0,-113.0,0
-11.0,-212.0,-72.0,-459.0,-122.0,-105.0,0
-14.0,-209.0,-74.0,-455.0,-134.0,-94.0,0
-8.0,-209.0,-70.0,-446.0,-151.0,-81.0,0
1.0,-212.0,-69.0,-435.0,-168.0,-69.0,0
1.0,-221.0,-70.0,-416.0,-180.0,-61.0,0
0.0,-220.0,-68.0,-389.0,-191.0,-55.0,0
2.0,-223.0,-75.0,-362.0,-201.0,-53.0,0
2.0,-225.0,-76.0,-335.0,-208.0,-51.0,0
2.0,-225.0,-80.0,-316.0,-214.0,-58.0,0
3.0,-226.0,-80.0,-305.0,-218.0,-66.0,0
4.0,-224.0,-82.0,-304.0,-215.0,-77.0,0
2.0,-222.0,-87.0,-302.0,-210.0,-87.0,0
2.0,-216.0,-90.0,-306.0,-198.0,-99.0,0
0.0,-219.0,-93.0,-308.0,-188.0,-112.0,0
0.0,-210.0,-91.0,-309.0,-179.0,-122.0,0
4.0,-206.0,-85.0,-307.0,-171.0,-126.0,0
-1.0,-205.0,-90.0,-303.0,-161.0,-129.0,0
0.0,-200.0,-94.0,-302.0,-154.0,-134.0,0
0.0,-196.0,-99.0,-306.0,-157.0,-139.0,0
-3.0,-194.0,-101.0,-315.0,-160.0,-142.0,0
-3.0,-192.0,-105.0,-336.0,-168.0,-140.0,0
-2.0,-192.0,-100.0,-360.0,-172.0,-134.0,0
1.0,-194.0,-102.0,-384.0,-171.0,-120.0,0
6.0,-199.0,-98.0,-408.0,-160.0,-105.0,0
9.0,-211.0,-96.0,-429.0,-135.0,-84.0,0
11.0,-220.0,-97.0,-440.0,-97.0,-64.0,0
12.0,-223.0,-99.0,-435.0,-60.0,-55.0,0
15.0,-234.0,-104.0,-418.0,-38.0,-53.0,0
16.0,-237.0,-111.0,-395.0,-35.0,-63.0,0
16.0,-238.0,-113.0,-370.0,-51.0,-82.0,0
14.0,-235.0,-117.0,-350.0,-78.0,-99.0,0
11.0,-232.0,-121.0,-333.0,-106.0,-107.0,0
9.0,-230.0,-117.0,-322.0,-130.0,-111.0,0
8.0,-227.0,-122.0,-314.0,-143.0,-112.0,0
3.0,-223.0,-115.0,-313.0,-145.0,-109.0,0
-4.0,-213.0,-121.0,-318.0,-144.0,-96.0,0
-3.0,-212.0,-112.0,-330.0,-141.0,-77.0,0
-1.0,-208.0,-109.0,-344.0,-133.0,-58.0,0
0.0,-209.0,-107.0,-357.0,-116.0,-41.0,0
0.0,-209.0,-109.0,-365.0,-92.0,-33.0,0
0.0,-209.0,-106.0,-372.0,-71.0,-29.0,0
2.0,-206.0,-106.0,-376.0,-54.0,-30.0,0
1.0,-209.0,-103.0,-375.0,-43.0,-29.0,0
-1.0,-212.0,-103.0,-366.0,-35.0,-35.0,0
0.0,-219.0,-104.0,-353.0,-35.0,-40.0,0
-1.0,-223.0,-105.0,-335.0,-40.0,-45.0,0
-1.0,-231.0,-110.0,-316.0,-50.0,-53.0,0
1.0,-230.0,-109.0,-291.0,-64.0,-62.0,0
1.0,-231.0,-106.0,-262.0,-77.0,-71.0,0
0.0,-228.0,-111.0,-236.0,-76.0,-86.0,0
3.0,-224.0,-109.0,-208.0,-64.0,-107.0,0
2.0,-221.0,-110.0,-180.0,-48.0,-122.0,0
6.0,-214.0,-110.0,-158.0,-33.0,-131.0,0
1.0,-208.0,-110.0,-142.0,-22.0,-133.0,0
0.0,-206.0,-107.0,-130.0,-9.0,-126.0,0
-1.0,-197.0,-113.0,-124.0,-2.0,-115.0,0
0.0,-194.0,-106.0,-122.0,-1.0,-101.0,0
-7.0,-192.0,-106.0,-121.0,-4.0,-84.0,0
-3.0,-191.0,-108.0,-121.0,-9.0,-65.0,0
-5.0,-193.0,-107.0,-125.0,-15.0,-43.0,0
-9.0,-193.0,-101.0,-126.0,-23.0,-23.0,0
-11.0,-200.0,-99.0,-124.0,-37.0,-1.0,0
-13.0,-204.0,-103.0,-116.0,-52.0,17.0,0
-6.0,-212.0,-100.0,-106.0,-67.0,33.0,0
0.0,-216.0,-100.0,-98.0,-75.0,40.0,0
1.0,-215.0,-103.0,-87.0,-81.0,40.0,0
6.0,-220.0,-105.0,-73.0,-81.0,32.0,0
13.0,-218.0,-105.0,-58.0,-78.0,17.0,0
13.0,-223.0,-103.0,-47.0,-71.0,-5.0,0
14.0,-230.0,-106.0,-32.0,-66.0,-34.0,0
18.0,-230.0,-107.0,-14.0,-55.0,-67.0,0
14.0,-227.0,-107.0,5.0,-37.0,-107.0,0
12.0,-225.0,-112.0,18.0,-17.0,-146.0,0
9.0,-222.0,-109.0,31.0,6.0,-175.0,0
5.0,-217.0,-104.0,40.0,30.0,-192.0,0
2.0,-214.0,-106.0,46.0,54.0,-200.0,0
-7.0,-207.0,-98.0,48.0,72.0,-192.0,0
-4.0,-211.0,-96.0,52.0,82.0,-171.0,0
-10.0,-208.0,-96.0,61.0,86.0,-136.0,0
-14.0,-205.0,-99.0,71.0,82.0,-95.0,0
-12.0,-211.0,-94.0,82.0,72.0,-49.0,0
-14.0,-214.0,-97.0,99.0,54.0,-4.0,0
-15.0,-216.0,-96.0,114.0,30.0,36.0,0
-12.0,-222.0,-99.0,128.0,2.0,71.0,0
-7.0,-226.0,-106.0,143.0,-27.0,94.0,0
-6.0,-232.0,-107.0,158.0,-51.0,103.0,0
0.0,-231.0,-110.0,174.0,-68.0,101.0,0
1.0,-233.0,-112.0,195.0,-73.0,85.0,0
12.0,-232.0,-121.0,208.0,-65.0,62.0,0
11.0,-232.0,-122.0,217.0,-47.0,28.0,0
15.0,-225.0,-129.0,226.0,-24.0,-5.0,0
15.0,-224.0,-129.0,232.0,3.0,-41.0,0
16.0,-221.0,-124.0,235.0,32.0,-72.0,0
19.0,-217.0,-128.0,237.0,65.0,-97.0,0
14.0,-207.0,-126.0,238.0,95.0,-113.0,0
13.0,-208.0,-125.0,239.0,118.0,-118.0,0
6.0,-199.0,-121.0,238.0,136.0,-117.0,0
2.0,-200.0,-123.0,233.0,146.0,-109.0,0
0.0,-207.0,-123.0,228.0,148.0,-95.0,0
-1.0,-203.0,-118.0,224.0,147.0,-78.0,0
-1.0,-209.0,-122.0,221.0,142.0,-61.0,0
-7.0,-209.0,-123.0,222.0,139.0,-46.0,0
-4.0,-213.0,-125.0,224.0,131.0,-38.0,0
-4.0,-210.0,-123.0,226.0,122.0,-31.0,0
-3.0,-212.0,-125.0,231.0,111.0,-28.0,0
-1.0,-216.0,-127.0,239.0,96.0,-28.0,0
1.0,-213.0,-127.0,244.0,77.0,-31.0,0
0.0,-213.0,-128.0,246.0,58.0,-40.0,0
4.0,-211.0,-128.0,245.0,41.0,-50.0,0
3.0,-215.0,-130.0,243.0,26.0,-63.0,0
7.0,-213.0,-126.0,243.0,16.0,-73.0,0
4.0,-213.0,-127.0,245.0,15.0,-82.0,0
5.0,-213.0,-125.0,250.0,19.0,-89.0,0
4.0,-216.0,-119.0,261.0,22.0,-93.0,0
4.0,-211.0,-119.0,278.0,22.0,-92.0,0
4.0,-215.0,-116.0,296.0,22.0,-85.0,0
7.0,-216.0,-116.0,312.0,21.0,-73.0,0
5.0,-217.0,-116.0,325.0,21.0,-60.0,0
7.0,-217.0,-116.0,333.0,24.0,-52.0,0
5.0,-213.0,-117.0,339.0,33.0,-46.0,0
9.0,-216.0,-113.0,340.0,36.0,-38.0,0
7.0,-214.0,-117.0,340.0,40.0,-33.0,0
4.0,-214.0,-117.0,336.0,40.0,-28.0,0
2.0,-211.0,-119.0,328.0,37.0,-22.0,0
1.0,-213.0,-115.0,318.0,36.0,-18.0,0
-2.0,-207.0,-113.0,308.0,32.0,-18.0,0
1.0,-211.0,-108.0,301.0,23.0,-15.0,0
3.0,-211.0,-110.0,298.0,16.0,-16.0,0
1.0,-210.0,-105.0,295.0,10.0,-15.0,0
1.0,-212.0,-109.0,295.0,7.0,-15.0,0
0.0,-211.0,-104.0,293.0,6.0,-12.0,0
2.0,-215.0,-107.0,292.0,4.0,-13.0,0
6.0,-215.0,-103.0,287.0,2.0,-13.0,0
7.0,-218.0,-112.0,279.0,5.0,-20.0,0
9.0,-217.0,-108.0,270.0,5.0,-24.0,0
6.0,-215.0,-108.0,267.0,8.0,-31.0,0
12.0,-219.0,-109.0,269.0,11.0,-33.0,0
8.0,-218.0,-106.0,276.0,13.0,-35.0,0
12.0,-219.0,-109.0,289.0,14.0,-35.0,0
10.0,-220.0,-104.0,301.0,12.0,-34.0,0
6.0,-222.0,-103.0,316.0,11.0,-30.0,0
4.0,-222.0,-103.0,331.0,7.0,-23.0,0
1.0,-219.0,-101.0,344.0,4.0,-19.0,0
-7.0,-220.0,-105.0,351.0,-2.0,-17.0,0
-8.0,-225.0,-98.0,351.0,-8.0,-11.0,0
-5.0,-226.0,-101.0,350.0,-14.0,-8.0,0
-2.0,-223.0,-105.0,345.0,-12.0,-6.0,0
0.0,-221.0,-100.0,336.0,-5.0,-9.0,0
1.0,-225.0,-101.0,324.0,2.0,-9.0,0
3.0,-225.0,-101.0,310.0,8.0,-6.0,0
9.0,-228.0,-102.0,296.0,11.0,-4.0,0
6.0,-232.0,-101.0,286.0,16.0,-7.0,0
6.0,-228.0,-102.0,284.0,19.0,-12.0,0
10.0,-229.0,-98.0,288.0,22.0,-17.0,0
10.0,-232.0,-101.0,296.0,24.0,-20.0,0
4.0,-229.0,-103.0,308.0,27.0,-25.0,0
8.0,-230.0,-101.0,321.0,29.0,-23.0,0
4.0,-226.0,-96.0,330.0,29.0,-20.0,0
6.0,-224.0,-98.0,337.0,30.0,-19.0,0
1.0,-222.0,-99.0,335.0,34.0,-16.0,0
1.0,-223.0,-101.0,323.0,36.0,-11.0,0
3.0,-224.0,-97.0,305.0,40.0,-11.0,0
7.0,-226.0,-100.0,285.0,47.0,-13.0,0
11.0,-231.0,-103.0,276.0,55.0,-11.0,0
11.0,-235.0,-100.0,274.0,68.0,-11.0,0
14.0,-237.0,-98.0,280.0,77.0,-12.0,0
21.0,-236.0,-108.0,291.0,80.0,-20.0,0
12.0,-241.0,-98.0,304.0,78.0,-26.0,0
10.0,-237.0,-101.0,318.0,71.0,-32.0,0
4.0,-235.0,-102.0,330.0,62.0,-34.0,0
7.0,-236.0,-99.0,337.0,53.0,-26.0,0
6.0,-238.0,-98.0,340.0,49.0,-11.0,0
1.0,-237.0,-94.0,340.0,48.0,4.0,0
0.0,-237.0,-92.0,333.0,51.0,17.0,0
5.0,-240.0,-92.0,316.0,62.0,23.0,0
0.0,-237.0,-89.0,292.0,73.0,21.0,0
1.0,-234.0,-81.0,267.0,87.0,27.0,0
0.0,-225.0,-82.0,238.0,92.0,28.0,0
4.0,-229.0,-85.0,201.0,94.0,23.0,0
0.0,-229.0,-87.0,160.0,90.0,16.0,0
4.0,-231.0,-96.0,119.0,79.0,6.0,0
5.0,-231.0,-98.0,86.0,63.0,12.0,0
5.0,-232.0,-109.0,65.0,44.0,27.0,0
1.0,-235.0,-113.0,57.0,19.0,39.0,0
0.0,-237.0,-120.0,68.0,-10.0,51.0,0
1.0,-241.0,-117.0,94.0,-34.0,78.0,0
-1.0,-239.0,-123.0,128.0,-49.0,102.0,0
0.0,-242.0,-116.0,164.0,-59.0,115.0,0
1.0,-242.0,-113.0,196.0,-62.0,118.0,0
6.0,-249.0,-111.0,224.0,-57.0,118.0,0
11.0,-250.0,-105.0,249.0,-40.0,114.0,0
9.0,-252.0,-103.0,272.0,-17.0,109.0,0
13.0,-253.0,-104.0,292.0,10.0,100.0,0
16.0,-254.0,-104.0,302.0,36.0,86.0,0
20.0,-254.0,-105.0,312.0,61.0,68.0,0
21.0,-255.0,-103.0,323.0,87.0,53.0,0
17.0,-252.0,-106.0,339.0,103.0,40.0,0
16.0,-253.0,-107.0,364.0,106.0,22.0,0
11.0,-253.0,-106.0,388.0,104.0,4.0,0
13.0,-250.0,-110.0,404.0,95.0,-9.0,0
9.0,-242.0,-104.0,414.0,85.0,-17.0,0
5.0,-239.0,-106.0,419.0,69.0,-28.0,0
8.0,-237.0,-105.0,421.0,47.0,-30.0,0
4.0,-238.0,-100.0,417.0,32.0,-29.0,0
4.0,-237.0,-101.0,412.0,19.0,-25.0,0
2.0,-235.0,-100.0,404.0,9.0,-24.0,0
5.0,-242.0,-93.0,396.0,3.0,-21.0,0
1.0,-241.0,-90.0,390.0,-4.0,-18.0,0
-2.0,-241.0,-94.0,383.0,-13.0,-11.0,0
0.0,-244.0,-96.0,370.0,-22.0,-3.0,0
1.0,-248.0,-90.0,354.0,-28.0,-1.0,0
9.0,-257.0,-85.0,353.0,-32.0,1.0,0
4.0,-259.0,-86.0,355.0,-29.0,1.0,0
8.0,-260.0,-91.0,364.0,-21.0,0.0,0
4.0,-264.0,-87.0,375.0,-14.0,0.0,0
5.0,-276.0,-89.0,390.0,-10.0,-2.0,0
3.0,-271.0,-85.0,405.0,-16.0,-7.0,0
3.0,-271.0,-82.0,420.0,-23.0,-6.0,0
7.0,-272.0,-83.0,425.0,-29.0,-3.0,0
5.0,-272.0,-83.0,429.0,-40.0,-8.0,0
1.0,-273.0,-83.0,441.0,-55.0,-15.0,0
5.0,-274.0,-83.0,462.0,-67.0,-19.0,0
6.0,-273.0,-82.0,487.0,-75.0,-20.0,0
7.0,-275.0,-84.0,517.0,-74.0,-19.0,0
7.0,-273.0,-89.0,552.0,-69.0,-18.0,0
7.0,-274.0,-90.0,590.0,-59.0,-20.0,0
9.0,-274.0,-86.0,632.0,-47.0,-20.0,0
5.0,-274.0,-86.0,670.0,-34.0,-22.0,0
2.0,-270.0,-82.0,702.0,-18.0,-23.0,0
-1.0,-268.0,-82.0,720.0,-7.0,-26.0,0
-6.0,-263.0,-83.0,723.0,1.0,-29.0,0
-7.0,-266.0,-84.0,711.0,1.0,-27.0,0
-3.0,-267.0,-80.0,693.0,-3.0,-25.0,0
-2.0,-265.0,-78.0,672.0,-9.0,-27.0,0
0.0,-262.0,-74.0,650.0,-8.0,-29.0,0
1.0,-265.0,-68.0,630.0,-2.0,-33.0,0
4.0,-263.0,-71.0,616.0,7.0,-40.0,0
8.0,-264.0,-72.0,606.0,17.0,-49.0,0
5.0,-264.0,-71.0,598.0,28.0,-59.0,0
4.0,-265.0,-69.0,593.0,39.0,-63.0,0
2.0,-270.0,-68.0,593.0,47.0,-67.0,0
-6.0,-267.0,-64.0,598.0,55.0,-67.0,0
-3.0,-265.0,-68.0,605.0,58.0,-62.0,0
-2.0,-265.0,-67.0,617.0,59.0,-57.0,0
0.0,-264.0,-65.0,632.0,60.0,-55.0,0
3.0,-264.0,-65.0,646.0,62.0,-49.0,0
2.0,-263.0,-65.0,662.0,66.0,-47.0,0
3.0,-267.0,-61.0,678.0,71.0,-44.0,0
2.0,-272.0,-62.0,685.0,75.0,-38.0,0
0.0,-280.0,-64.0,672.0,79.0,-31.0,0
-3.0,-287.0,-64.0,634.0,78.0,-21.0,0
-1.0,-299.0,-71.0,583.0,74.0,-16.0,0
-3.0,-302.0,-76.0,532.0,72.0,-12.0,0
-1.0,-312.0,-76.0,484.0,74.0,-11.0,0
1.0,-317.0,-83.0,444.0,81.0,-10.0,0
-2.0,-324.0,-90.0,415.0,90.0,-12.0,0
1.0,-330.0,-90.0,398.0,95.0,-17.0,0
-1.0,-332.0,-102.0,391.0,94.0,-21.0,0
0.0,-330.0,-104.0,396.0,89.0,-24.0,0
-1.0,-324.0,-106.0,411.0,79.0,-28.0,0
0.0,-314.0,-113.0,431.0,69.0,-32.0,0
1.0,-305.0,-110.0,450.0,60.0,-36.0,0
0.0,-290.0,-106.0,467.0,53.0,-39.0,0
-3.0,-278.0,-100.0,486.0,47.0,-42.0,0
4.0,-270.0,-96.0,509.0,44.0,-44.0,0
3.0,-257.0,-86.0,534.0,42.0,-46.0,0
6.0,-248.0,-74.0,561.0,47.0,-50.0,0
9.0,-241.0,-64.0,589.0,54.0,-53.0,0
7.0,-233.0,-55.0,616.0,65.0,-59.0,0
7.0,-230.0,-53.0,639.0,79.0,-66.0,0
6.0,-219.0,-45.0,652.0,92.0,-73.0,0
5.0,-214.0,-35.0,652.0,105.0,-80.0,0
3.0,-204.0,-29.0,644.0,113.0,-91.0,0
6.0,-208.0,-28.0,629.0,114.0,-98.0,0
6.0,-208.0,-17.0,616.0,110.0,-104.0,0
4.0,-208.0,-16.0,604.0,104.0,-104.0,0
1.0,-206.0,-12.0,596.0,94.0,-104.0,0
0.0,-201.0,-9.0,592.0,85.0,-98.0,0
1.0,-204.0,-4.0,594.0,78.0,-92.0,0
-3.0,-201.0,-2.0,604.0,69.0,-85.0,0
-4.0,-201.0,-2.0,615.0,60.0,-77.0,0
-7.0,-197.0,2.0,625.0,51.0,-68.0,0
-7.0,-198.0,0.0,627.0,42.0,-60.0,0
-5.0,-197.0,3.0,627.0,32.0,-56.0,0
-5.0,-200.0,3.0,623.0,24.0,-51.0,0
0.0,-197.0,2.0,620.0,18.0,-46.0,0
1.0,-200.0,3.0,617.0,16.0,-42.0,0
1.0,-201.0,3.0,613.0,14.0,-38.0,0
4.0,-206.0,3.0,610.0,12.0,-32.0,0
6.0,-207.0,8.0,604.0,14.0,-28.0,0
7.0,-218.0,5.0,597.0,16.0,-20.0,0
6.0,-228.0,7.0,592.0,17.0,-14.0,0
9.0,-242.0,7.0,591.0,17.0,-5.0,0
16.0,-257.0,10.0,598.0,20.0,2.0,0
12.0,-278.0,14.0,611.0,22.0,7.0,0
15.0,-296.0,5.0,631.0,24.0,15.0,0
16.0,-317.0,12.0,656.0,27.0,24.0,0
19.0,-328.0,10.0,680.0,27.0,36.0,0
20.0,-340.0,1.0,697.0,22.0,44.0,0
21.0,-351.0,-12.0,708.0,11.0,51.0,0
22.0,-348.0,-25.0,709.0,-4.0,54.0,0
23.0,-338.0,-36.0,700.0,-21.0,51.0,0
26.0,-327.0,-44.0,687.0,-36.0,38.0,0
22.0,-305.0,-50.0,671.0,-43.0,22.0,0
23.0,-280.0,-53.0,656.0,-40.0,5.0,0
19.0,-257.0,-56.0,642.0,-33.0,-6.0,0
20.0,-237.0,-54.0,626.0,-23.0,-16.0,0
22.0,-220.0,-48.0,611.0,-2.0,-27.0,0
22.0,-204.0,-41.0,590.0,17.0,-41.0,0
21.0,-195.0,-29.0,557.0,25.0,-56.0,0
17.0,-190.0,-23.0,509.0,23.0,-70.0,0
16.0,-187.0,-13.0,449.0,9.0,-78.0,0
20.0,-190.0,-13.0,379.0,-13.0,-73.0,0
12.0,-193.0,-3.0,301.0,-38.0,-59.0,0
14.0,-201.0,-2.0,226.0,-61.0,-42.0,0
9.0,-209.0,1.0,163.0,-79.0,-25.0,0
4.0,-219.0,0.0,109.0,-89.0,-11.0,0
3.0,-228.0,-4.0,66.0,-88.0,-1.0,0
0.0,-243.0,6.0,38.0,-83.0,6.0,0
-5.0,-255.0,8.0,29.0,-78.0,10.0,0
-8.0,-261.0,12.0,36.0,-73.0,17.0,0
-13.0,-268.0,15.0,63.0,-66.0,23.0,0
-11.0,-273.0,12.0,97.0,-63.0,26.0,0
-7.0,-279.0,20.0,138.0,-60.0,28.0,0
-15.0,-277.0,19.0,183.0,-60.0,29.0,0
-13.0,-273.0,20.0,225.0,-59.0,32.0,0
-12.0,-266.0,21.0,265.0,-58.0,40.0,0
-4.0,-260.0,18.0,288.0,-56.0,50.0,0
-7.0,-257.0,18.0,296.0,-59.0,60.0,0
-8.0,-253.0,13.0,291.0,-67.0,66.0,0
-7.0,-252.0,13.0,275.0,-77.0,66.0,0
-2.0,-251.0,15.0,254.0,-84.0,65.0,0
0.0,-247.0,9.0,233.0,-88.0,63.0,0
0.0,-241.0,13.0,217.0,-89.0,64.0,0
1.0,-244.0,11.0,202.0,-86.0,65.0,0
3.0,-244.0,11.0,193.0,-80.0,63.0,0
2.0,-238.0,13.0,186.0,-75.0,56.0,0
5.0,-244.0,11.0,180.0,-63.0,49.0,0
10.0,-245.0,14.0,176.0,-48.0,41.0,0
7.0,-247.0,12.0,175.0,-32.0,29.0,0
10.0,-250.0,11.0,172.0,-15.0,18.0,0
11.0,-249.0,10.0,172.0,3.0,8.0,0
12.0,-251.0,11.0,170.0,15.0,5.0,0
14.0,-251.0,7.0,166.0,26.0,4.0,0
14.0,-249.0,8.0,158.0,33.0,7.0,0
14.0,-252.0,4.0,152.0,38.0,13.0,0
13.0,-252.0,4.0,146.0,45.0,22.0,0
12.0,-247.0,4.0,143.0,53.0,27.0,0
11.0,-243.0,4.0,138.0,53.0,32.0,0
10.0,-252.0,2.0,132.0,49.0,34.0,0
14.0,-247.0,4.0,123.0,43.0,36.0,0
12.0,-242.0,4.0,113.0,41.0,32.0,0
12.0,-241.0,4.0,102.0,37.0,23.0,0
12.0,-239.0,4.0,90.0,34.0,14.0,0
12.0,-240.0,0.0,77.0,34.0,5.0,0
13.0,-240.0,3.0,64.0,38.0,-5.0,0
5.0,-240.0,3.0,53.0,43.0,-11.0,0
7.0,-243.0,3.0,45.0,50.0,-14.0,0
6.0,-244.0,-3.0,41.0,56.0,-16.0,0
4.0,-252.0,2.0,36.0,61.0,-15.0,0
4.0,-250.0,-11.0,36.0,65.0,-11.0,0
4.0,-254.0,-11.0,37.0,67.0,-6.0,0
4.0,-255.0,-15.0,39.0,67.0,-1.0,0
1.0,-251.0,-19.0,41.0,64.0,5.0,0
1.0,-259.0,-12.0,44.0,62.0,12.0,0
-1.0,-254.0,-10.0,54.0,60.0,17.0,0
2.0,-256.0,-13.0,66.0,59.0,19.0,0
2.0,-258.0,-20.0,73.0,55.0,20.0,0
3.0,-251.0,-10.0,74.0,50.0,21.0,0
-6.0,-251.0,-6.0,69.0,49.0,24.0,0
-3.0,-249.0,-6.0,66.0,53.0,23.0,0
-2.0,-240.0,-12.0,59.0,56.0,22.0,0
-4.0,-245.0,-18.0,52.0,56.0,17.0,0
-6.0,-226.0,-11.0,51.0,56.0,10.0,0
-16.0,-237.0,-11.0,52.0,59.0,5.0,0
-12.0,-240.0,-19.0,54.0,64.0,1.0,0
-7.0,-243.0,-4.0,56.0,68.0,-1.0,0
-10.0,-247.0,-10.0,54.0,69.0,2.0,0
-7.0,-252.0,-10.0,48.0,73.0,6.0,0
-5.0,-249.0,-3.0,40.0,77.0,12.0,0
-5.0,-258.0,1.0,34.0,78.0,19.0,0
5.0,-257.0,-8.0,34.0,78.0,23.0,0
-4.0,-256.0,0.0,41.0,75.0,27.0,0
0.0,-254.0,-18.0,54.0,71.0,29.0,0
4.0,-257.0,-6.0,69.0,68.0,30.0,0
1.0,-249.0,-5.0,88.0,64.0,30.0,0
8.0,-254.0,-7.0,102.0,59.0,30.0,0
8.0,-248.0,-1.0,109.0,53.0,28.0,0
4.0,-249.0,2.0,115.0,49.0,21.0,0
11.0,-245.0,0.0,117.0,48.0,14.0,0
4.0,-247.0,1.0,114.0,46.0,9.0,0
6.0,-239.0,3.0,110.0,42.0,2.0,0
6.0,-239.0,3.0,101.0,37.0,-3.0,0
8.0,-239.0,9.0,94.0,32.0,-5.0,0
15.0,-240.0,7.0,87.0,30.0,-6.0,0
5.0,-239.0,2.0,83.0,26.0,-10.0,0
11.0,-241.0,7.0,81.0,22.0,-12.0,0
10.0,-242.0,0.0,80.0,19.0,-11.0,0
9.0,-241.0,4.0,74.0,15.0,-6.0,0
9.0,-242.0,5.0,70.0,14.0,1.0,0
11.0,-246.0,1.0,67.0,8.0,9.0,0
15.0,-254.0,5.0,68.0,5.0,20.0,0
12.0,-251.0,6.0,72.0,4.0,29.0,0
14.0,-258.0,6.0,80.0,2.0,42.0,0
18.0,-254.0,13.0,94.0,4.0,51.0,0
11.0,-256.0,10.0,114.0,7.0,58.0,0
9.0,-253.0,12.0,135.0,7.0,60.0,0
10.0,-256.0,16.0,158.0,6.0,59.0,0
1.0,-252.0,23.0,176.0,2.0,54.0,0
6.0,-248.0,21.0,188.0,-6.0,49.0,0
4.0,-251.0,21.0,188.0,-17.0,38.0,0
0.0,-249.0,19.0,179.0,-26.0,26.0,0
-2.0,-246.0,18.0,162.0,-32.0,16.0,0
-2.0,-251.0,24.0,138.0,-40.0,5.0,0
-4.0,-244.0,16.0,112.0,-50.0,-8.0,0
-2.0,-241.0,13.0,88.0,-61.0,-17.0,0
-1.0,-237.0,13.0,63.0,-68.0,-23.0,0
-5.0,-236.0,8.0,37.0,-68.0,-26.0,0
-1.0,-239.0,10.0,8.0,-66.0,-29.0,0
0.0,-239.0,3.0,-19.0,-59.0,-27.0,0
0.0,-238.0,4.0,-47.0,-51.0,-25.0,0
5.0,-243.0,4.0,-76.0,-43.0,-21.0,0
1.0,-239.0,3.0,-104.0,-34.0,-21.0,0
0.0,-239.0,5.0,-131.0,-25.0,-18.0,0
7.0,-246.0,16.0,-147.0,-18.0,-15.0,0
2.0,-244.0,4.0,-155.0,-11.0,-16.0,0
4.0,-247.0,5.0,-155.0,-7.0,-17.0,0
1.0,-251.0,8.0,-149.0,-4.0,-18.0,0
1.0,-250.0,7.0,-137.0,-3.0,-17.0,0
0.0,-249.0,4.0,-119.0,-1.0,-15.0,0
-4.0,-251.0,2.0,-101.0,0.0,-15.0,0
-2.0,-253.0,3.0,-83.0,1.0,-10.0,0
0.0,-259.0,0.0,-65.0,3.0,-6.0,0
-2.0,-255.0,2.0,-52.0,6.0,-4.0,0
-2.0,-257.0,2.0,-36.0,8.0,-2.0,0
-1.0,-248.0,-2.0,-18.0,11.0,2.0,0
-3.0,-254.0,1.0,3.0,15.0,6.0,0
0.0,-255.0,-2.0,27.0,19.0,9.0,0
-3.0,-254.0,2.0,51.0,23.0,10.0,0
-1.0,-254.0,0.0,70.0,26.0,11.0,0
-1.0,-252.0,-1.0,87.0,30.0,13.0,0
0.0,-254.0,2.0,101.0,34.0,17.0,0
0.0,-255.0,1.0,114.0,40.0,23.0,0
-3.0,-252.0,2.0,126.0,44.0,27.0,0
-4.0,-248.0,0.0,135.0,48.0,30.0,0
-1.0,-251.0,0.0,139.0,49.0,34.0,0
0.0,-246.0,-1.0,143.0,51.0,35.0,0
-2.0,-251.0,0.0,148.0,55.0,36.0,0
-2.0,-249.0,-2.0,152.0,58.0,36.0,0
-1.0,-246.0,-3.0,155.0,59.0,31.0,0
-1.0,-246.0,-1.0,156.0,61.0,27.0,0
-4.0,-249.0,0.0,155.0,62.0,23.0,0
-6.0,-247.0,-4.0,151.0,62.0,17.0,0
1.0,-246.0,1.0,149.0,61.0,13.0,0
0.0,-246.0,-4.0,144.0,61.0,10.0,0
1.0,-249.0,0.0,132.0,60.0,5.0,0
4.0,-247.0,-7.0,119.0,58.0,3.0,0
4.0,-251.0,-5.0,108.0,60.0,0.0,0
2.0,-251.0,-5.0,98.0,62.0,1.0,0
6.0,-250.0,-2.0,92.0,65.0,0.0,0
6.0,-247.0,-4.0,87.0,66.0,-4.0,0
4.0,-248.0,-3.0,81.0,66.0,-3.0,0
3.0,-249.0,-7.0,77.0,68.0,-4.0,0
6.0,-250.0,-7.0,73.0,70.0,-4.0,0
5.0,-250.0,-3.0,66.0,73.0,-5.0,0
5.0,-246.0,1.0,61.0,76.0,-9.0,0
3.0,-247.0,-2.0,57.0,78.0,-13.0,0
7.0,-251.0,-9.0,53.0,79.0,-14.0,0
6.0,-247.0,1.0,54.0,79.0,-17.0,0
7.0,-250.0,-3.0,54.0,80.0,-19.0,0
4.0,-250.0,0.0,56.0,79.0,-21.0,0
3.0,-246.0,-5.0,56.0,76.0,-24.0,0
4.0,-251.0,2.0,57.0,71.0,-25.0,0
2.0,-248.0,0.0,60.0,67.0,-24.0,0
4.0,-251.0,2.0,64.0,62.0,-25.0,0
2.0,-247.0,2.0,72.0,57.0,-26.0,0
1.0,-249.0,2.0,79.0,50.0,-26.0,0
0.0,-245.0,2.0,84.0,43.0,-28.0,0
1.0,-252.0,3.0,92.0,38.0,-26.0,0
2.0,-250.0,3.0,99.0,33.0,-25.0,0
1.0,-251.0,3.0,106.0,26.0,-24.0,0
1.0,-247.0,1.0,111.0,20.0,-26.0,0
0.0,-248.0,2.0,113.0,14.0,-24.0,0
1.0,-246.0,4.0,112.0,6.0,-23.0,0
3.0,-251.0,5.0,111.0,0.0,-24.0,0
2.0,-249.0,9.0,111.0,-2.0,-26.0,0
0.0,-244.0,6.0,111.0,-6.0,-27.0,0
5.0,-247.0,2.0,113.0,-8.0,-28.0,0
6.0,-251.0,18.0,115.0,-7.0,-29.0,0
4.0,-250.0,6.0,116.0,-7.0,-30.0,0
2.0,-247.0,6.0,115.0,-8.0,-33.0,0
3.0,-250.0,6.0,115.0,-9.0,-34.0,0
3.0,-248.0,5.0,111.0,-10.0,-33.0,0
2.0,-247.0,5.0,106.0,-11.0,-33.0,0
3.0,-250.0,7.0,102.0,-11.0,-33.0,0
2.0,-247.0,11.0,101.0,-10.0,-33.0,0
1.0,-252.0,6.0,98.0,-11.0,-33.0,0
2.0,-248.0,10.0,97.0,-12.0,-32.0,0
0.0,-248.0,6.0,97.0,-13.0,-31.0,0
2.0,-249.0,4.0,96.0,-13.0,-28.0,0
0.0,-246.0,6.0,96.0,-14.0,-27.0,0
2.0,-247.0,7.0,94.0,-17.0,-24.0,0
2.0,-246.0,3.0,91.0,-17.0,-21.0,0
1.0,-247.0,3.0,86.0,-16.0,-17.0,0
0.0,-246.0,4.0,81.0,-18.0,-14.0,0
0.0,-247.0,5.0,78.0,-19.0,-9.0,0
3.0,-249.0,6.0,77.0,-20.0,-7.0,0
-1.0,-247.0,5.0,78.0,-21.0,-7.0,0
1.0,-249.0,4.0,79.0,-22.0,-6.0,0
3.0,-250.0,7.0,80.0,-22.0,-5.0,0
6.0,-251.0,0.0,83.0,-24.0,-7.0,0
1.0,-245.0,5.0,85.0,-25.0,-7.0,0
0.0,-248.0,2.0,86.0,-24.0,-6.0,0
0.0,-247.0,3.0,86.0,-21.0,-5.0,0
5.0,-249.0,6.0,85.0,-19.0,-7.0,0
2.0,-248.0,5.0,86.0,-18.0,-8.0,0
4.0,-248.0,2.0,87.0,-17.0,-6.0,0
-1.0,-250.0,4.0,90.0,-15.0,-5.0,0
1.0,-249.0,3.0,92.0,-14.0,-2.0,0
0.0,-246.0,3.0,92.0,-14.0,1.0,0
1.0,-245.0,2.0,91.0,-11.0,2.0,0
0.0,-245.0,7.0,91.0,-7.0,1.0,0
0.0,-248.0,7.0,91.0,-4.0,-1.0,0
1.0,-250.0,9.0,91.0,-4.0,-2.0,0
2.0,-248.0,7.0,88.0,-3.0,-4.0,0
2.0,-248.0,7.0,87.0,-2.0,-5.0,0
0.0,-245.0,9.0,87.0,0.0,-7.0,0
0.0,-251.0,10.0,87.0,2.0,-6.0,0
1.0,-251.0,10.0,89.0,2.0,-4.0,0
2.0,-244.0,8.0,90.0,4.0,-5.0,0
0.0,-246.0,8.0,87.0,3.0,-6.0,0
3.0,-252.0,14.0,85.0,2.0,-3.0,0
3.0,-248.0,9.0,81.0,3.0,-2.0,0
1.0,-247.0,10.0,80.0,4.0,-2.0,0
2.0,-244.0,13.0,80.0,6.0,-2.0,0
5.0,-247.0,10.0,79.0,6.0,-4.0,0
3.0,-245.0,7.0,78.0,6.0,-5.0,0
5.0,-250.0,8.0,75.0,6.0,-9.0,0
6.0,-245.0,8.0,76.0,8.0,-8.0,0
3.0,-246.0,7.0,74.0,12.0,-11.0,0
4.0,-248.0,5.0,71.0,13.0,-11.0,0
6.0,-247.0,8.0,68.0,16.0,-11.0,0
3.0,-251.0,9.0,65.0,19.0,-11.0,0
0.0,-250.0,7.0,63.0,20.0,-7.0,0
3.0,-250.0,5.0,60.0,22.0,-8.0,0
1.0,-249.0,6.0,60.0,25.0,-9.0,0
-1.0,-247.0,7.0,59.0,24.0,-11.0,0
0.0,-246.0,7.0,61.0,23.0,-11.0,0
0.0,-248.0,6.0,64.0,22.0,-14.0,0
-2.0,-248.0,9.0,67.0,20.0,-15.0,0
0.0,-250.0,5.0,67.0,19.0,-12.0,0
-3.0,-248.0,10.0,67.0,18.0,-12.0,0
2.0,-248.0,20.0,66.0,17.0,-12.0,0
0.0,-247.0,5.0,68.0,18.0,-12.0,0
0.0,-248.0,8.0,71.0,18.0,-12.0,0
1.0,-248.0,9.0,71.0,19.0,-12.0,0
3.0,-249.0,3.0,68.0,15.0,-10.0,0
3.0,-249.0,2.0,66.0,18.0,-10.0,0
1.0,-246.0,7.0,63.0,19.0,-10.0,0
3.0,-247.0,5.0,61.0,18.0,-8.0,0
5.0,-246.0,10.0,61.0,19.0,-12.0,0
7.0,-246.0,7.0,61.0,19.0,-12.0,0
6.0,-248.0,10.0,65.0,21.0,-12.0,0
8.0,-255.0,12.0,68.0,20.0,-13.0,0
2.0,-246.0,9.0,72.0,20.0,-13.0,0
3.0,-247.0,7.0,73.0,21.0,-10.0,0
5.0,-246.0,4.0,72.0,25.0,-8.0,0
3.0,-247.0,5.0,71.0,28.0,-7.0,0
1.0,-246.0,6.0,69.0,29.0,-8.0,0
2.0,-247.0,9.0,68.0,30.0,-9.0,0
3.0,-247.0,7.0,65.0,29.0,-10.0,0
3.0,-245.0,14.0,59.0,29.0,-11.0,0
0.0,-248.0,9.0,54.0,29.0,-11.0,0
2.0,-244.0,6.0,49.0,29.0,-11.0,0
10.0,-246.0,5.0,47.0,27.0,-12.0,0
2.0,-250.0,8.0,44.0,26.0,-10.0,0
0.0,-248.0,4.0,41.0,25.0,-8.0,0
1.0,-248.0,12.0,40.0,25.0,-6.0,0
1.0,-247.0,6.0,39.0,25.0,-5.0,0
1.0,-248.0,9.0,38.0,23.0,-4.0,0
6.0,-247.0,10.0,37.0,22.0,-3.0,0
1.0,-248.0,7.0,37.0,22.0,-3.0,0
3.0,-248.0,13.0,37.0,23.0,-3.0,0
5.0,-249.0,7.0,38.0,21.0,-3.0,0
4.0,-245.0,4.0,38.0,22.0,-3.0,0
1.0,-248.0,3.0,36.0,18.0,-1.0,0
0.0,-247.0,6.0,31.0,15.0,-1.0,0
0.0,-245.0,8.0,29.0,14.0,0.0,0
2.0,-250.0,6.0,28.0,15.0,0.0,0
2.0,-249.0,6.0,25.0,13.0,-2.0,0
1.0,-250.0,0.0,26.0,12.0,-4.0,0
1.0,-253.0,7.0,30.0,13.0,-3.0,0
0.0,-247.0,6.0,37.0,13.0,-5.0,0
3.0,-250.0,1.0,42.0,12.0,-7.0,0
3.0,-249.0,5.0,49.0,14.0,-8.0,0
-3.0,-249.0,7.0,53.0,16.0,-6.0,0
1.0,-246.0,7.0,57.0,15.0,-8.0,0
4.0,-249.0,5.0,59.0,14.0,-6.0,0
2.0,-248.0,5.0,61.0,11.0,-4.0,0
2.0,-247.0,4.0,61.0,12.0,-3.0,0
1.0,-250.0,5.0,60.0,11.0,-1.0,0
0.0,-245.0,10.0,59.0,12.0,0.0,0
0.0,-245.0,6.0,58.0,13.0,0.0,0
-1.0,-243.0,11.0,57.0,12.0,-1.0,0
0.0,-248.0,6.0,58.0,13.0,-2.0,0
0.0,-250.0,7.0,56.0,12.0,-2.0,0
5.0,-248.0,11.0,55.0,12.0,-4.0,0
0.0,-250.0,6.0,55.0,12.0,-4.0,0
1.0,-245.0,8.0,53.0,13.0,-8.0,0
0.0,-250.0,8.0,47.0,12.0,-7.0,0
0.0,-251.0,9.0,43.0,12.0,-7.0,0
0.0,-245.0,13.0,38.0,10.0,-7.0,0
-2.0,-247.0,7.0,34.0,8.0,-6.0,0
1.0,-243.0,12.0,31.0,6.0,-7.0,0
1.0,-246.0,5.0,27.0,4.0,-7.0,0
1.0,-248.0,7.0,23.0,2.0,-7.0,0
-5.0,-241.0,7.0,17.0,-1.0,-4.0,0
0.0,-247.0,13.0,15.0,-3.0,-5.0,0
0.0,-247.0,8.0,12.0,-5.0,-7.0,0
0.0,-247.0,9.0,12.0,-4.0,-9.0,0
3.0,-247.0,7.0,9.0,-6.0,-9.0,0
2.0,-250.0,8.0,9.0,-7.0,-11.0,0
2.0,-247.0,10.0,9.0,-6.0,-12.0,0
3.0,-251.0,5.0,11.0,-6.0,-12.0,0
2.0,-249.0,7.0,11.0,-6.0,-13.0,0
2.0,-247.0,8.0,11.0,-6.0,-12.0,0
1.0,-247.0,8.0,12.0,-6.0,-14.0,0
0.0,-243.0,-3.0,12.0,-5.0,-12.0,0
2.0,-248.0,8.0,11.0,-4.0,-12.0,0
0.0,-250.0,10.0,13.0,-3.0,-12.0,0
0.0,-247.0,10.0,12.0,0.0,-12.0,0
0.0,-248.0,6.0,10.0,-1.0,-12.0,0
0.0,-248.0,7.0,7.0,-3.0,-13.0,0
2.0,-248.0,10.0,4.0,-1.0,-13.0,0
0.0,-245.0,13.0,0.0,-3.0,-14.0,0
1.0,-248.0,10.0,-6.0,-5.0,-15.0,0
1.0,-242.0,6.0,-14.0,-7.0,-13.0,0
-3.0,-238.0,13.0,-26.0,-8.0,-15.0,0
-1.0,-247.0,11.0,-39.0,-9.0,-13.0,0
-1.0,-245.0,11.0,-51.0,-10.0,-13.0,0
2.0,-250.0,11.0,-62.0,-12.0,-14.0,0
2.0,-250.0,13.0,-70.0,-14.0,-12.0,0
3.0,-251.0,12.0,-75.0,-13.0,-10.0,0
3.0,-253.0,11.0,-76.0,-13.0,-6.0,0
1.0,-254.0,6.0,-73.0,-14.0,-5.0,0
2.0,-251.0,5.0,-65.0,-14.0,-6.0,0
2.0,-254.0,4.0,-52.0,-15.0,-4.0,0
1.0,-250.0,4.0,-37.0,-15.0,1.0,0
1.0,-254.0,0.0,-20.0,-13.0,4.0,0
0.0,-252.0,2.0,-3.0,-14.0,5.0,0
3.0,-252.0,2.0,13.0,-14.0,5.0,0
3.0,-250.0,2.0,28.0,-16.0,6.0,0
2.0,-249.0,1.0,42.0,-15.0,5.0,0
0.0,-245.0,0.0,51.0,-16.0,5.0,0
3.0,-246.0,1.0,53.0,-17.0,1.0,0
4.0,-246.0,1.0,49.0,-16.0,-1.0,0
0.0,-247.0,1.0,40.0,-15.0,-4.0,0
1.0,-243.0,3.0,31.0,-13.0,-8.0,0
0.0,-243.0,5.0,19.0,-10.0,-10.0,0
2.0,-245.0,4.0,8.0,-10.0,-9.0,0
2.0,-244.0,2.0,-3.0,-8.0,-9.0,0
2.0,-240.0,0.0,-14.0,-10.0,-9.0,0
1.0,-243.0,0.0,-26.0,-11.0,-10.0,0
2.0,-244.0,1.0,-35.0,-10.0,-13.0,0
2.0,-244.0,1.0,-46.0,-10.0,-15.0,0
-1.0,-244.0,0.0,-53.0,-9.0,-15.0,0
-1.0,-245.0,3.0,-59.0,-10.0,-15.0,0
0.0,-248.0,6.0,-67.0,-10.0,-14.0,0
0.0,-247.0,3.0,-74.0,-12.0,-13.0,0
1.0,-250.0,3.0,-77.0,-11.0,-13.0,0
-6.0,-252.0,0.0,-83.0,-10.0,-12.0,0
0.0,-254.0,4.0,-87.0,-9.0,-9.0,0
1.0,-253.0,4.0,-90.0,-6.0,-6.0,0
2.0,-255.0,4.0,-87.0,-5.0,-7.0,0
3.0,-254.0,1.0,-84.0,-5.0,-6.0,0
3.0,-252.0,1.0,-77.0,-4.0,-6.0,0
2.0,-252.0,1.0,-67.0,-4.0,-7.0,0
0.0,-250.0,0.0,-59.0,-3.0,-6.0,0
0.0,-250.0,0.0,-52.0,-3.0,-6.0,0
1.0,-247.0,-2.0,-47.0,-2.0,-8.0,0
-1.0,-251.0,1.0,-46.0,-3.0,-9.0,0
1.0,-246.0,-1.0,-46.0,-7.0,-10.0,0
0.0,-246.0,-1.0,-51.0,-9.0,-12.0,0
0.0,-246.0,-5.0,-55.0,-8.0,-14.0,0
1.0,-245.0,-1.0,-63.0,-10.0,-16.0,0
1.0,-246.0,-4.0,-73.0,-10.0,-18.0,0
1.0,-245.0,0.0,-79.0,-7.0,-17.0,0
1.0,-247.0,-4.0,-87.0,-3.0,-17.0,0
3.0,-244.0,-2.0,-96.0,0.0,-18.0,0
0.0,-248.0,-1.0,-109.0,0.0,-20.0,0
0.0,-244.0,0.0,-121.0,1.0,-21.0,0
-2.0,-249.0,-2.0,-132.0,2.0,-25.0,0
1.0,-245.0,-5.0,-139.0,4.0,-28.0,0
0.0,-247.0,-5.0,-146.0,5.0,-31.0,0
-2.0,-244.0,-5.0,-149.0,4.0,-33.0,0
0.0,-249.0,-5.0,-148.0,6.0,-37.0,0
0.0,-246.0,-5.0,-148.0,7.0,-41.0,0
1.0,-246.0,-3.0,-149.0,10.0,-43.0,0
-1.0,-249.0,-8.0,-147.0,13.0,-47.0,0
0.0,-245.0,-2.0,-144.0,17.0,-53.0,0
2.0,-247.0,0.0,-144.0,21.0,-57.0,0
2.0,-252.0,-11.0,-143.0,23.0,-60.0,0
-4.0,-247.0,-2.0,-144.0,24.0,-60.0,0
1.0,-250.0,-10.0,-147.0,24.0,-59.0,0
3.0,-250.0,-4.0,-149.0,23.0,-55.0,0
1.0,-248.0,-3.0,-151.0,24.0,-50.0,0
2.0,-248.0,-3.0,-149.0,23.0,-43.0,0
2.0,-248.0,-3.0,-148.0,22.0,-36.0,0
0.0,-245.0,-2.0,-144.0,21.0,-31.0,0
3.0,-248.0,1.0,-140.0,20.0,-24.0,0
1.0,-247.0,1.0,-136.0,20.0,-21.0,0
3.0,-245.0,0.0,-128.0,19.0,-18.0,0
1.0,-250.0,-7.0,-120.0,17.0,-16.0,0
8.0,-246.0,-1.0,-111.0,14.0,-15.0,0
8.0,-249.0,0.0,-103.0,13.0,-13.0,0
8.0,-250.0,-3.0,-100.0,10.0,-12.0,0
5.0,-242.0,0.0,-101.0,9.0,-16.0,0
7.0,-245.0,-6.0,-106.0,6.0,-21.0,0
3.0,-245.0,-1.0,-117.0,2.0,-24.0,0
6.0,-246.0,-1.0,-130.0,-3.0,-25.0,0
1.0,-244.0,-5.0,-142.0,-3.0,-27.0,0
0.0,-245.0,-4.0,-154.0,-5.0,-29.0,0
-2.0,-247.0,-5.0,-162.0,-3.0,-33.0,0
-3.0,-250.0,-6.0,-166.0,1.0,-34.0,0
-2.0,-245.0,-4.0,-172.0,13.0,-32.0,0
-3.0,-243.0,-2.0,-180.0,25.0,-27.0,0
0.0,-242.0,-3.0,-192.0,32.0,-24.0,0
1.0,-242.0,-5.0,-203.0,40.0,-21.0,0
4.0,-243.0,-6.0,-213.0,50.0,-19.0,0
4.0,-242.0,-6.0,-226.0,58.0,-19.0,0
2.0,-236.0,-6.0,-241.0,63.0,-18.0,0
5.0,-244.0,-5.0,-261.0,66.0,-23.0,0
6.0,-241.0,-7.0,-284.0,68.0,-29.0,0
0.0,-242.0,-3.0,-309.0,71.0,-34.0,0
1.0,-238.0,-7.0,-332.0,73.0,-38.0,0
3.0,-248.0,-5.0,-350.0,75.0,-39.0,0
0.0,-250.0,-9.0,-365.0,77.0,-36.0,0
0.0,-254.0,-9.0,-374.0,76.0,-34.0,0
1.0,-254.0,-6.0,-376.0,75.0,-32.0,0
0.0,-256.0,-10.0,-373.0,71.0,-27.0,0
-1.0,-256.0,-14.0,-366.0,65.0,-22.0,0
0.0,-255.0,-19.0,-358.0,52.0,-16.0,0
-4.0,-255.0,-18.0,-354.0,40.0,-10.0,0
2.0,-255.0,-18.0,-350.0,22.0,-6.0,0
5.0,-251.0,-21.0,-345.0,5.0,1.0,0
5.0,-255.0,-28.0,-339.0,-10.0,3.0,0
9.0,-254.0,-26.0,-335.0,-23.0,10.0,0
7.0,-251.0,-29.0,-334.0,-32.0,20.0,0
12.0,-250.0,-37.0,-335.0,-36.0,29.0,0
17.0,-252.0,-31.0,-336.0,-37.0,38.0,0
17.0,-251.0,-32.0,-334.0,-34.0,44.0,0
19.0,-248.0,-34.0,-335.0,-24.0,44.0,0
19.0,-247.0,-33.0,-334.0,-11.0,41.0,0
17.0,-249.0,-27.0,-341.0,2.0,39.0,0
24.0,-252.0,-27.0,-351.0,18.0,44.0,0
22.0,-262.0,-22.0,-367.0,42.0,55.0,0
22.0,-261.0,-9.0,-385.0,64.0,68.0,0
23.0,-261.0,-12.0,-401.0,81.0,76.0,0
21.0,-264.0,-8.0,-413.0,93.0,86.0,0
22.0,-267.0,-4.0,-420.0,94.0,92.0,0
25.0,-269.0,-11.0,-413.0,90.0,100.0,0
25.0,-266.0,-8.0,-395.0,81.0,105.0,0
26.0,-266.0,-21.0,-372.0,64.0,105.0,0
23.0,-267.0,-28.0,-354.0,43.0,88.0,0
24.0,-262.0,-34.0,-343.0,26.0,60.0,0
21.0,-262.0,-35.0,-342.0,18.0,22.0,0
12.0,-252.0,-38.0,-359.0,12.0,-18.0,0
4.0,-242.0,-45.0,-398.0,18.0,-51.0,0
-4.0,-239.0,-38.0,-448.0,33.0,-73.0,0
-14.0,-236.0,-36.0,-499.0,62.0,-85.0,0
-21.0,-237.0,-38.0,-551.0,105.0,-91.0,0
-17.0,-242.0,-30.0,-578.0,154.0,-83.0,0
-15.0,-247.0,-26.0,-595.0,195.0,-75.0,0
-12.0,-247.0,-23.0,-615.0,226.0,-64.0,0
-7.0,-252.0,-29.0,-628.0,243.0,-58.0,0
-7.0,-256.0,-30.0,-635.0,249.0,-60.0,0
-2.0,-258.0,-34.0,-641.0,245.0,-67.0,0
-6.0,-265.0,-39.0,-647.0,230.0,-68.0,0
-6.0,-268.0,-42.0,-655.0,206.0,-69.0,0
-7.0,-276.0,-39.0,-659.0,184.0,-69.0,0
-9.0,-278.0,-40.0,-655.0,155.0,-69.0,0
-20.0,-278.0,-38.0,-640.0,123.0,-63.0,0
-23.0,-274.0,-44.0,-619.0,83.0,-53.0,0
-23.0,-276.0,-44.0,-597.0,34.0,-44.0,0
-21.0,-273.0,-47.0,-570.0,-7.0,-36.0,0
-3.0,-282.0,-44.0,-534.0,-38.0,-35.0,0
8.0,-278.0,-38.0,-485.0,-45.0,-39.0,0
11.0,-278.0,-45.0,-434.0,-36.0,-45.0,0
11.0,-277.0,-43.0,-386.0,-18.0,-45.0,0
16.0,-277.0,-49.0,-351.0,-3.0,-45.0,0
14.0,-273.0,-52.0,-342.0,6.0,-45.0,0
15.0,-276.0,-65.0,-365.0,9.0,-42.0,0
12.0,-272.0,-76.0,-403.0,4.0,-42.0,0
8.0,-273.0,-80.0,-448.0,-2.0,-41.0,0
7.0,-275.0,-81.0,-489.0,-11.0,-40.0,0
2.0,-273.0,-91.0,-525.0,-23.0,-46.0,0
-5.0,-269.0,-87.0,-550.0,-33.0,-49.0,0
-5.0,-273.0,-91.0,-569.0,-41.0,-49.0,0
-8.0,-265.0,-93.0,-586.0,-48.0,-47.0,0
-6.0,-263.0,-96.0,-607.0,-48.0,-43.0,0
-3.0,-264.0,-99.0,-635.0,-39.0,-40.0,0
1.0,-261.0,-103.0,-664.0,-27.0,-36.0,0
5.0,-260.0,-110.0,-692.0,-13.0,-31.0,0
5.0,-266.0,-111.0,-719.0,2.0,-27.0,0
7.0,-267.0,-113.0,-744.0,13.0,-25.0,0
3.0,-267.0,-110.0,-767.0,20.0,-23.0,0
1.0,-269.0,-108.0,-786.0,25.0,-21.0,0
2.0,-274.0,-112.0,-803.0,27.0,-20.0,0
3.0,-272.0,-105.0,-818.0,24.0,-17.0,0
6.0,-278.0,-104.0,-830.0,19.0,-16.0,0
7.0,-271.0,-107.0,-840.0,14.0,-18.0,0
10.0,-272.0,-104.0,-845.0,14.0,-18.0,0
15.0,-278.0,-106.0,-843.0,12.0,-18.0,0
11.0,-277.0,-99.0,-833.0,17.0,-23.0,0
7.0,-281.0,-103.0,-809.0,26.0,-16.0,0
4.0,-282.0,-100.0,-778.0,34.0,-17.0,0
5.0,-286.0,-97.0,-740.0,41.0,-17.0,0
-2.0,-276.0,-105.0,-698.0,45.0,-11.0,0
-2.0,-279.0,-106.0,-663.0,47.0,3.0,0
-3.0,-274.0,-102.0,-639.0,45.0,19.0,0
-1.0,-274.0,-110.0,-626.0,44.0,35.0,0
1.0,-272.0,-113.0,-615.0,35.0,47.0,0
5.0,-272.0,-118.0,-598.0,25.0,60.0,0
7.0,-267.0,-120.0,-581.0,10.0,74.0,0
12.0,-266.0,-118.0,-564.0,1.0,81.0,0
16.0,-265.0,-120.0,-542.0,-3.0,89.0,0
20.0,-257.0,-120.0,-511.0,-9.0,95.0,0
19.0,-253.0,-120.0,-476.0,-13.0,99.0,0
10.0,-254.0,-115.0,-443.0,-18.0,99.0,0
5.0,-254.0,-114.0,-415.0,-21.0,99.0,0
-2.0,-251.0,-118.0,-393.0,-27.0,101.0,0
-4.0,-252.0,-114.0,-370.0,-30.0,102.0,0
-8.0,-250.0,-111.0,-348.0,-31.0,99.0,0
-7.0,-252.0,-108.0,-328.0,-30.0,98.0,0
-7.0,-251.0,-110.0,-308.0,-22.0,99.0,0
-9.0,-253.0,-112.0,-293.0,-17.0,101.0,0
-8.0,-250.0,-111.0,-288.0,-25.0,100.0,0
-8.0,-254.0,-108.0,-284.0,-34.0,90.0,0
-3.0,-258.0,-107.0,-274.0,-42.0,77.0,0
-8.0,-250.0,-104.0,-258.0,-48.0,67.0,0
-11.0,-253.0,-108.0,-235.0,-54.0,68.0,0
-2.0,-256.0,-92.0,-208.0,-61.0,64.0,0
-1.0,-256.0,-104.0,-183.0,-66.0,59.0,0
-3.0,-255.0,-102.0,-155.0,-72.0,53.0,0
-6.0,-250.0,-104.0,-129.0,-82.0,49.0,0
0.0,-249.0,-103.0,-107.0,-87.0,39.0,0
-3.0,-242.0,-109.0,-88.0,-82.0,35.0,0
0.0,-243.0,-104.0,-72.0,-73.0,34.0,0
-1.0,-242.0,-104.0,-57.0,-64.0,31.0,0
-1.0,-240.0,-100.0,-46.0,-57.0,27.0,0
1.0,-244.0,-99.0,-37.0,-52.0,27.0,0
1.0,-246.0,-102.0,-27.0,-52.0,28.0,0
-1.0,-242.0,-98.0,-18.0,-51.0,35.0,0
-1.0,-243.0,-100.0,-13.0,-57.0,42.0,0
-9.0,-240.0,-99.0,-9.0,-64.0,48.0,0
-10.0,-242.0,-99.0,-11.0,-71.0,52.0,0
-14.0,-237.0,-102.0,-14.0,-77.0,63.0,0
-11.0,-238.0,-102.0,-18.0,-78.0,70.0,0
-10.0,-239.0,-98.0,-23.0,-74.0,77.0,0
-10.0,-235.0,-101.0,-25.0,-67.0,79.0,0
-7.0,-236.0,-108.0,-23.0,-60.0,77.0,0
-1.0,-236.0,-102.0,-22.0,-54.0,69.0,0
-5.0,-238.0,-108.0,-17.0,-46.0,60.0,0
-2.0,-232.0,-106.0,-7.0,-36.0,48.0,0
-2.0,-229.0,-105.0,5.0,-23.0,38.0,0
-3.0,-229.0,-106.0,18.0,-10.0,29.0,0
-2.0,-230.0,-106.0,26.0,6.0,20.0,0
-3.0,-228.0,-103.0,27.0,21.0,16.0,0
-3.0,-229.0,-107.0,21.0,33.0,18.0,0
-4.0,-229.0,-103.0,7.0,41.0,20.0,0
-4.0,-231.0,-101.0,-7.0,46.0,26.0,0
-8.0,-226.0,-101.0,-21.0,47.0,31.0,0
-8.0,-223.0,-95.0,-32.0,45.0,38.0,0
-5.0,-232.0,-99.0,-43.0,41.0,44.0,0
-5.0,-230.0,-97.0,-47.0,37.0,45.0,0
-4.0,-231.0,-96.0,-46.0,38.0,43.0,0
-4.0,-233.0,-99.0,-38.0,47.0,39.0,0
-4.0,-233.0,-98.0,-28.0,60.0,29.0,0
-2.0,-236.0,-96.0,-13.0,76.0,18.0,0
0.0,-237.0,-99.0,7.0,88.0,10.0,0
-5.0,-238.0,-103.0,29.0,95.0,1.0,0
-1.0,-237.0,-100.0,54.0,95.0,-3.0,0
-1.0,-240.0,-100.0,76.0,90.0,-3.0,0
-2.0,-237.0,-102.0,99.0,80.0,-3.0,0
0.0,-240.0,-110.0,116.0,68.0,-1.0,0
-2.0,-240.0,-102.0,130.0,53.0,1.0,0
-1.0,-241.0,-109.0,143.0,34.0,8.0,0
-1.0,-241.0,-105.0,155.0,16.0,16.0,0
-2.0,-239.0,-104.0,168.0,-1.0,26.0,0
-3.0,-240.0,-102.0,181.0,-14.0,33.0,0
0.0,-243.0,-101.0,200.0,-20.0,39.0,0
1.0,-242.0,-100.0,221.0,-16.0,40.0,0
0.0,-239.0,-96.0,245.0,-5.0,37.0,0
1.0,-239.0,-99.0,269.0,11.0,32.0,0
0.0,-241.0,-98.0,294.0,33.0,25.0,0
-6.0,-239.0,-101.0,314.0,53.0,16.0,0
-2.0,-231.0,-101.0,328.0,69.0,7.0,0
-5.0,-230.0,-99.0,335.0,78.0,-5.0,0
-7.0,-228.0,-100.0,336.0,81.0,-14.0,0
-10.0,-226.0,-102.0,333.0,80.0,-17.0,0
-8.0,-224.0,-102.0,326.0,76.0,-21.0,0
-7.0,-225.0,-101.0,317.0,70.0,-20.0,0
-4.0,-227.0,-101.0,312.0,63.0,-21.0,0
-3.0,-227.0,-103.0,311.0,60.0,-21.0,0
-4.0,-228.0,-101.0,313.0,59.0,-22.0,0
0.0,-232.0,-93.0,318.0,58.0,-24.0,0
-1.0,-223.0,-101.0,326.0,54.0,-25.0,0
0.0,-223.0,-96.0,336.0,43.0,-25.0,0
0.0,-229.0,-91.0,350.0,31.0,-22.0,0
1.0,-227.0,-90.0,362.0,21.0,-18.0,0
-2.0,-225.0,-95.0,372.0,12.0,-13.0,0
0.0,-225.0,-91.0,381.0,8.0,-9.0,0
1.0,-229.0,-90.0,388.0,8.0,-10.0,0
0.0,-225.0,-92.0,389.0,12.0,-11.0,0
-2.0,-225.0,-95.0,387.0,19.0,-15.0,0
0.0,-225.0,-91.0,382.0,27.0,-17.0,0
-1.0,-227.0,-91.0,376.0,36.0,-20.0,0
-4.0,-228.0,-90.0,369.0,43.0,-25.0,0
-1.0,-231.0,-91.0,369.0,50.0,-33.0,0
-4.0,-224.0,-89.0,369.0,57.0,-45.0,0
0.0,-229.0,-89.0,375.0,60.0,-54.0,0
0.0,-225.0,-87.0,384.0,59.0,-57.0,0
0.0,-227.0,-89.0,398.0,52.0,-56.0,0
0.0,-224.0,-87.0,409.0,41.0,-48.0,0
1.0,-223.0,-87.0,419.0,26.0,-40.0,0
0.0,-221.0,-89.0,426.0,11.0,-32.0,0
-1.0,-228.0,-85.0,432.0,-6.0,-24.0,0
0.0,-227.0,-94.0,440.0,-20.0,-16.0,0
-2.0,-223.0,-83.0,448.0,-26.0,-7.0,0
-2.0,-228.0,-80.0,459.0,-25.0,1.0,0
-5.0,-230.0,-78.0,469.0,-24.0,10.0,0
-8.0,-230.0,-82.0,479.0,-27.0,19.0,0
-11.0,-232.0,-77.0,484.0,-30.0,30.0,0
-12.0,-233.0,-78.0,490.0,-38.0,41.0,0
-12.0,-234.0,-73.0,495.0,-49.0,52.0,0
-12.0,-237.0,-76.0,499.0,-57.0,59.0,0
-6.0,-235.0,-75.0,501.0,-61.0,62.0,0
-10.0,-234.0,-75.0,504.0,-61.0,64.0,0
-6.0,-233.0,-83.0,506.0,-58.0,69.0,0
-14.0,-230.0,-74.0,513.0,-63.0,77.0,0
-13.0,-228.0,-71.0,522.0,-76.0,88.0,0
-14.0,-225.0,-76.0,539.0,-93.0,97.0,0
-14.0,-223.0,-74.0,553.0,-112.0,106.0,0
-10.0,-217.0,-73.0,565.0,-128.0,116.0,0
-16.0,-216.0,-73.0,570.0,-140.0,123.0,0
-11.0,-213.0,-76.0,570.0,-144.0,131.0,0
-13.0,-219.0,-71.0,565.0,-147.0,137.0,0
-8.0,-217.0,-72.0,554.0,-143.0,138.0,0
-6.0,-216.0,-69.0,543.0,-134.0,138.0,0
-1.0,-222.0,-77.0,531.0,-117.0,133.0,0
0.0,-217.0,-67.0,524.0,-96.0,124.0,0
2.0,-220.0,-68.0,520.0,-77.0,115.0,0
4.0,-220.0,-64.0,516.0,-66.0,108.0,0
0.0,-220.0,-63.0,516.0,-69.0,103.0,0
4.0,-222.0,-64.0,513.0,-81.0,96.0,0
2.0,-219.0,-62.0,508.0,-94.0,88.0,0
2.0,-223.0,-65.0,502.0,-102.0,84.0,0
3.0,-223.0,-65.0,496.0,-105.0,80.0,0
-1.0,-222.0,-65.0,491.0,-104.0,75.0,0
0.0,-223.0,-63.0,489.0,-97.0,71.0,0
-2.0,-219.0,-65.0,489.0,-85.0,65.0,0
-4.0,-220.0,-65.0,495.0,-72.0,60.0,0
-4.0,-219.0,-62.0,504.0,-56.0,48.0,0
-7.0,-219.0,-59.0,512.0,-40.0,36.0,0
-3.0,-220.0,-67.0,513.0,-24.0,24.0,0
-6.0,-220.0,-62.0,510.0,-7.0,12.0,0
-7.0,-218.0,-62.0,504.0,3.0,2.0,0
-12.0,-215.0,-63.0,497.0,11.0,-3.0,0
-5.0,-220.0,-63.0,489.0,14.0,-3.0,0
-2.0,-223.0,-60.0,487.0,13.0,0.0,0
-1.0,-220.0,-55.0,491.0,8.0,4.0,0
-1.0,-225.0,-60.0,503.0,-5.0,17.0,0
0.0,-220.0,-59.0,519.0,-19.0,34.0,0
0.0,-223.0,-55.0,532.0,-31.0,52.0,0
2.0,-219.0,-54.0,541.0,-43.0,71.0,0
0.0,-219.0,-57.0,543.0,-52.0,90.0,0
-9.0,-219.0,-52.0,538.0,-63.0,107.0,0
-6.0,-221.0,-49.0,527.0,-73.0,120.0,0
-9.0,-218.0,-47.0,514.0,-81.0,128.0,0
-8.0,-217.0,-46.0,502.0,-81.0,128.0,0
-10.0,-215.0,-42.0,495.0,-76.0,121.0,0
-11.0,-213.0,-49.0,497.0,-61.0,111.0,0
-13.0,-216.0,-53.0,505.0,-40.0,100.0,0
-7.0,-210.0,-46.0,516.0,-20.0,88.0,0
-7.0,-214.0,-44.0,525.0,-2.0,75.0,0
-4.0,-214.0,-46.0,532.0,8.0,63.0,0
-4.0,-214.0,-45.0,539.0,12.0,52.0,0
2.0,-219.0,-46.0,546.0,10.0,42.0,0
2.0,-218.0,-42.0,551.0,3.0,36.0,0
1.0,-217.0,-44.0,557.0,-6.0,38.0,0
-1.0,-215.0,-44.0,560.0,-16.0,40.0,0
-5.0,-217.0,-41.0,564.0,-29.0,44.0,0
-6.0,-219.0,-40.0,567.0,-42.0,47.0,0
-7.0,-221.0,-46.0,572.0,-52.0,48.0,0
-10.0,-218.0,-42.0,579.0,-57.0,50.0,0
-11.0,-220.0,-40.0,589.0,-59.0,50.0,0
-14.0,-219.0,-43.0,596.0,-56.0,48.0,0
-13.0,-221.0,-40.0,601.0,-49.0,43.0,0
-14.0,-216.0,-38.0,604.0,-40.0,35.0,0
-15.0,-219.0,-39.0,599.0,-30.0,27.0,0
-18.0,-217.0,-39.0,592.0,-23.0,19.0,0
-16.0,-217.0,-35.0,584.0,-19.0,4.0,0
-16.0,-217.0,-38.0,575.0,-17.0,-10.0,0
-12.0,-220.0,-35.0,564.0,-17.0,-22.0,0
-12.0,-224.0,-38.0,553.0,-20.0,-32.0,0
-10.0,-222.0,-34.0,542.0,-26.0,-41.0,0
-9.0,-224.0,-34.0,532.0,-34.0,-52.0,0
-9.0,-229.0,-36.0,522.0,-48.0,-56.0,0
-11.0,-226.0,-34.0,516.0,-63.0,-58.0,0
-15.0,-227.0,-34.0,514.0,-79.0,-56.0,0
-12.0,-227.0,-32.0,516.0,-91.0,-48.0,0
-13.0,-229.0,-33.0,526.0,-104.0,-41.0,0
-15.0,-229.0,-25.0,542.0,-117.0,-31.0,0
-18.0,-228.0,-29.0,552.0,-127.0,-20.0,0
-18.0,-233.0,-27.0,560.0,-136.0,-11.0,0
-7.0,-229.0,-35.0,564.0,-140.0,-6.0,0
-19.0,-230.0,-30.0,562.0,-137.0,-7.0,0
-18.0,-230.0,-28.0,561.0,-128.0,-10.0,0
-21.0,-225.0,-33.0,560.0,-115.0,-13.0,0
-15.0,-226.0,-30.0,557.0,-97.0,-21.0,0
-16.0,-225.0,-29.0,555.0,-81.0,-29.0,0
-11.0,-224.0,-30.0,551.0,-69.0,-34.0,0
-10.0,-224.0,-29.0,544.0,-62.0,-39.0,0
-4.0,-225.0,-25.0,537.0,-63.0,-43.0,0
-4.0,-227.0,-21.0,536.0,-71.0,-43.0,0
-5.0,-218.0,-26.0,535.0,-80.0,-39.0,0
-3.0,-222.0,-29.0,534.0,-87.0,-33.0,0
-6.0,-222.0,-18.0,534.0,-96.0,-25.0,0
-10.0,-219.0,-18.0,535.0,-105.0,-16.0,0
-9.0,-220.0,-15.0,536.0,-118.0,-2.0,0
-12.0,-225.0,-11.0,536.0,-136.0,10.0,0
-13.0,-224.0,-6.0,540.0,-152.0,24.0,0
-16.0,-225.0,-6.0,548.0,-165.0,35.0,0
-16.0,-228.0,-5.0,554.0,-173.0,46.0,0
-24.0,-228.0,-8.0,556.0,-172.0,55.0,0
-24.0,-229.0,-13.0,555.0,-162.0,58.0,0
-20.0,-232.0,-13.0,552.0,-149.0,59.0,0
-25.0,-231.0,-15.0,545.0,-132.0,54.0,0
-24.0,-231.0,-15.0,536.0,-112.0,48.0,0
-21.0,-234.0,-16.0,533.0,-95.0,48.0,0
-22.0,-237.0,-20.0,526.0,-83.0,44.0,0
-20.0,-236.0,-19.0,515.0,-73.0,43.0,0
-26.0,-234.0,-15.0,506.0,-66.0,50.0,0
-24.0,-235.0,-12.0,503.0,-61.0,65.0,0
-18.0,-236.0,-13.0,505.0,-59.0,77.0,0
-13.0,-239.0,-1.0,514.0,-59.0,88.0,0
-7.0,-238.0,1.0,531.0,-54.0,97.0,0
1.0,-239.0,-6.0,544.0,-47.0,104.0,0
0.0,-239.0,-2.0,552.0,-39.0,105.0,0
4.0,-241.0,-6.0,555.0,-30.0,103.0,0
8.0,-242.0,-3.0,554.0,-16.0,92.0,0
8.0,-238.0,-3.0,553.0,5.0,73.0,0
7.0,-243.0,-3.0,554.0,32.0,47.0,0
6.0,-241.0,-2.0,552.0,60.0,16.0,0
3.0,-245.0,4.0,549.0,85.0,-15.0,0
1.0,-238.0,4.0,545.0,102.0,-43.0,0
-6.0,-239.0,-3.0,539.0,112.0,-65.0,0
-3.0,-241.0,2.0,534.0,112.0,-85.0,0
-11.0,-243.0,-2.0,523.0,107.0,-99.0,0
-15.0,-241.0,-1.0,508.0,101.0,-105.0,0
-15.0,-240.0,-1.0,492.0,93.0,-102.0,0
-17.0,-239.0,3.0,479.0,86.0,-98.0,0
-16.0,-239.0,-1.0,470.0,83.0,-92.0,0
-22.0,-236.0,9.0,466.0,83.0,-80.0,0
-21.0,-238.0,6.0,472.0,82.0,-65.0,0
-21.0,-237.0,5.0,478.0,82.0,-45.0,0
-23.0,-238.0,9.0,481.0,80.0,-23.0,0
-24.0,-233.0,1.0,479.0,74.0,-7.0,0
-27.0,-236.0,-2.0,469.0,67.0,3.0,0
-29.0,-242.0,1.0,452.0,62.0,7.0,0
-23.0,-236.0,2.0,431.0,53.0,9.0,0
-20.0,-241.0,-2.0,410.0,38.0,4.0,0
-20.0,-241.0,2.0,393.0,23.0,-5.0,0
-18.0,-241.0,2.0,385.0,9.0,-22.0,0
-21.0,-238.0,2.0,383.0,-3.0,-42.0,0
-21.0,-237.0,3.0,383.0,-14.0,-64.0,0
-20.0,-236.0,2.0,379.0,-28.0,-83.0,0
-23.0,-237.0,2.0,377.0,-39.0,-101.0,0
-22.0,-229.0,3.0,373.0,-50.0,-112.0,0
-22.0,-227.0,3.0,367.0,-58.0,-120.0,0
-28.0,-219.0,2.0,360.0,-65.0,-126.0,0
-22.0,-225.0,2.0,353.0,-71.0,-131.0,0
-20.0,-226.0,4.0,343.0,-79.0,-132.0,0
-17.0,-225.0,3.0,331.0,-90.0,-127.0,0
-18.0,-224.0,7.0,318.0,-105.0,-118.0,0
-16.0,-227.0,4.0,303.0,-120.0,-108.0,0
-14.0,-231.0,4.0,293.0,-135.0,-100.0,0
-14.0,-232.0,4.0,287.0,-145.0,-92.0,0
-16.0,-234.0,3.0,282.0,-154.0,-78.0,0
-11.0,-238.0,4.0,282.0,-164.0,-70.0,0
-13.0,-238.0,5.0,288.0,-171.0,-63.0,0
-13.0,-239.0,6.0,294.0,-176.0,-52.0,0
-8.0,-239.0,5.0,300.0,-178.0,-47.0,0
-5.0,-240.0,6.0,304.0,-177.0,-40.0,0
-5.0,-236.0,6.0,304.0,-172.0,-38.0,0
0.0,-237.0,9.0,302.0,-163.0,-32.0,0
-2.0,-238.0,5.0,303.0,-156.0,-32.0,0
0.0,-237.0,7.0,302.0,-154.0,-39.0,0
3.0,-239.0,6.0,302.0,-153.0,-44.0,0
4.0,-237.0,2.0,299.0,-149.0,-46.0,0
6.0,-238.0,3.0,294.0,-145.0,-49.0,0
8.0,-239.0,3.0,281.0,-142.0,-51.0,0
10.0,-229.0,3.0,267.0,-135.0,-50.0,0
12.0,-237.0,9.0,251.0,-127.0,-51.0,0
5.0,-238.0,7.0,238.0,-120.0,-53.0,0
6.0,-235.0,6.0,227.0,-112.0,-54.0,0
7.0,-237.0,8.0,216.0,-106.0,-50.0,0
5.0,-239.0,11.0,207.0,-99.0,-44.0,0
6.0,-243.0,14.0,198.0,-92.0,-40.0,0
4.0,-246.0,18.0,198.0,-82.0,-42.0,0
3.0,-244.0,16.0,205.0,-72.0,-50.0,0
2.0,-242.0,18.0,216.0,-60.0,-50.0,0
2.0,-246.0,21.0,230.0,-49.0,-46.0,0
5.0,-247.0,15.0,243.0,-40.0,-41.0,0
3.0,-247.0,18.0,253.0,-31.0,-34.0,0
3.0,-246.0,17.0,260.0,-15.0,-22.0,0
4.0,-247.0,13.0,264.0,-3.0,-17.0,0
5.0,-248.0,13.0,266.0,8.0,-17.0,0
2.0,-246.0,15.0,264.0,19.0,-17.0,0
4.0,-245.0,12.0,261.0,31.0,-16.0,0
3.0,-247.0,14.0,259.0,40.0,-9.0,0
3.0,-245.0,24.0,253.0,46.0,-11.0,0
3.0,-241.0,22.0,252.0,50.0,-10.0,0
3.0,-251.0,23.0,251.0,53.0,-12.0,0
2.0,-244.0,22.0,246.0,52.0,-18.0,0
0.0,-245.0,24.0,238.0,50.0,-21.0,0
2.0,-244.0,24.0,227.0,48.0,-25.0,0
0.0,-242.0,22.0,218.0,47.0,-26.0,0
2.0,-245.0,23.0,211.0,47.0,-32.0,0
-1.0,-242.0,20.0,199.0,45.0,-33.0,0
-7.0,-240.0,31.0,194.0,38.0,-33.0,0
-6.0,-242.0,23.0,199.0,30.0,-37.0,0
-14.0,-237.0,29.0,211.0,24.0,-44.0,0
-19.0,-233.0,28.0,225.0,25.0,-50.0,0
-15.0,-240.0,29.0,238.0,24.0,-37.0,0
-18.0,-234.0,24.0,237.0,22.0,-45.0,0
-23.0,-233.0,31.0,224.0,22.0,-50.0,0
-22.0,-235.0,29.0,209.0,19.0,-46.0,0
-22.0,-236.0,32.0,199.0,12.0,-43.0,0
-23.0,-239.0,40.0,194.0,4.0,-48.0,0
-19.0,-239.0,41.0,200.0,1.0,-55.0,0
-20.0,-239.0,34.0,216.0,6.0,-65.0,0
-18.0,-240.0,46.0,227.0,8.0,-77.0,0
-21.0,-237.0,39.0,231.0,11.0,-89.0,0
-18.0,-237.0,53.0,237.0,6.0,-85.0,0
-9.0,-237.0,39.0,235.0,-13.0,-104.0,0
-15.0,-236.0,44.0,230.0,-36.0,-120.0,0
-17.0,-234.0,43.0,224.0,-51.0,-127.0,0
-16.0,-231.0,39.0,211.0,-64.0,-121.0,0
-16.0,-230.0,39.0,188.0,-74.0,-113.0,0
-21.0,-228.0,36.0,160.0,-81.0,-113.0,0
-20.0,-234.0,29.0,126.0,-84.0,-111.0,0
-21.0,-238.0,31.0,83.0,-78.0,-109.0,0
-19.0,-248.0,37.0,24.0,-70.0,-108.0,0
-16.0,-257.0,31.0,-51.0,-62.0,-103.0,0
-16.0,-266.0,38.0,-126.0,-53.0,-92.0,0
-16.0,-266.0,36.0,-162.0,-40.0,-80.0,0
-13.0,-271.0,48.0,-156.0,-25.0,-67.0,0
-14.0,-267.0,48.0,-124.0,-18.0,-56.0,0
-8.0,-267.0,48.0,-79.0,-23.0,-47.0,0
-6.0,-264.0,42.0,-41.0,-36.0,-44.0,0
-2.0,-260.0,44.0,-21.0,-49.0,-37.0,0
2.0,-258.0,43.0,-10.0,-55.0,-34.0,0
1.0,-251.0,46.0,6.0,-52.0,-36.0,0
5.0,-247.0,45.0,20.0,-45.0,-36.0,0
1.0,-241.0,37.0,28.0,-40.0,-33.0,0
5.0,-240.0,40.0,21.0,-41.0,-20.0,0
5.0,-239.0,35.0,-3.0,-45.0,-5.0,0
4.0,-238.0,37.0,-46.0,-51.0,16.0,0
1.0,-235.0,32.0,-93.0,-58.0,38.0,0
3.0,-237.0,32.0,-129.0,-65.0,55.0,0
-4.0,-234.0,28.0,-151.0,-70.0,68.0,0
-5.0,-230.0,26.0,-162.0,-75.0,83.0,0
-8.0,-229.0,25.0,-162.0,-77.0,92.0,0
-6.0,-236.0,25.0,-158.0,-70.0,98.0,0
-11.0,-232.0,25.0,-146.0,-51.0,94.0,0
-14.0,-231.0,26.0,-128.0,-28.0,81.0,0
-12.0,-222.0,16.0,-113.0,-6.0,68.0,0
-13.0,-239.0,21.0,-105.0,14.0,57.0,0
-15.0,-231.0,15.0,-109.0,30.0,42.0,0
-13.0,-232.0,19.0,-127.0,42.0,25.0,0
-9.0,-237.0,18.0,-151.0,51.0,-1.0,0
-6.0,-245.0,15.0,-174.0,59.0,-23.0,0
-6.0,-248.0,16.0,-192.0,67.0,-44.0,0
-9.0,-249.0,17.0,-200.0,72.0,-67.0,0
-4.0,-263.0,21.0,-197.0,75.0,-86.0,0
-2.0,-266.0,13.0,-189.0,74.0,-104.0,0
0.0,-264.0,22.0,-182.0,77.0,-118.0,0
0.0,-259.0,20.0,-141.0,80.0,-135.0,0
1.0,-269.0,25.0,-89.0,87.0,-154.0,0
2.0,-267.0,26.0,-38.0,94.0,-168.0,0
2.0,-263.0,26.0,7.0,100.0,-181.0,0
4.0,-261.0,23.0,42.0,106.0,-193.0,0
5.0,-260.0,21.0,66.0,112.0,-199.0,0
4.0,-258.0,26.0,78.0,118.0,-202.0,0
7.0,-252.0,30.0,85.0,126.0,-198.0,0
9.0,-257.0,28.0,93.0,138.0,-196.0,0
6.0,-252.0,35.0,103.0,149.0,-192.0,0
5.0,-247.0,40.0,114.0,157.0,-186.0,0
0.0,-243.0,31.0,119.0,163.0,-176.0,0
-1.0,-248.0,37.0,120.0,163.0,-163.0,0
-1.0,-243.0,40.0,117.0,159.0,-148.0,0
-4.0,-248.0,40.0,108.0,149.0,-132.0,0
-5.0,-251.0,45.0,87.0,134.0,-115.0,0
-10.0,-249.0,45.0,76.0,121.0,-96.0,0
-17.0,-246.0,47.0,87.0,106.0,-80.0,0
-16.0,-241.0,45.0,112.0,91.0,-66.0,0
-22.0,-236.0,39.0,135.0,73.0,-54.0,0
-20.0,-232.0,37.0,137.0,50.0,-39.0,0
-18.0,-233.0,29.0,119.0,29.0,-26.0,0
-21.0,-238.0,25.0,90.0,14.0,-12.0,0
-17.0,-229.0,27.0,59.0,9.0,-2.0,0
-14.0,-236.0,27.0,31.0,6.0,8.0,0
-18.0,-230.0,27.0,11.0,6.0,15.0,0
-14.0,-232.0,25.0,0.0,2.0,27.0,0
-13.0,-236.0,20.0,-6.0,-10.0,37.0,0
-9.0,-237.0,20.0,-15.0,-14.0,42.0,0
-7.0,-240.0,20.0,-23.0,-8.0,44.0,0
-5.0,-241.0,26.0,-27.0,-2.0,42.0,0
-8.0,-245.0,20.0,-26.0,-3.0,40.0,0
-6.0,-248.0,26.0,-22.0,-9.0,37.0,0
-9.0,-250.0,29.0,-18.0,-15.0,31.0,0
-4.0,-253.0,21.0,-19.0,-16.0,20.0,0
-1.0,-253.0,22.0,-24.0,-12.0,3.0,0
0.0,-258.0,21.0,-35.0,-2.0,-16.0,0
2.0,-261.0,24.0,-43.0,4.0,-35.0,0
5.0,-260.0,22.0,-42.0,9.0,-48.0,0
8.0,-262.0,19.0,-31.0,11.0,-62.0,0
11.0,-261.0,18.0,-12.0,10.0,-70.0,0
10.0,-256.0,20.0,13.0,9.0,-73.0,0
12.0,-256.0,23.0,41.0,9.0,-69.0,0
8.0,-252.0,20.0,63.0,7.0,-64.0,0
14.0,-247.0,28.0,78.0,10.0,-59.0,0
9.0,-247.0,26.0,83.0,11.0,-52.0,0
6.0,-242.0,27.0,79.0,13.0,-45.0,0
7.0,-245.0,30.0,69.0,17.0,-38.0,0
2.0,-243.0,29.0,57.0,20.0,-31.0,0
0.0,-244.0,29.0,46.0,25.0,-26.0,0
-1.0,-246.0,30.0,41.0,28.0,-22.0,0
-8.0,-240.0,27.0,42.0,34.0,-19.0,0
-3.0,-250.0,30.0,47.0,37.0,-16.0,0
-2.0,-245.0,33.0,59.0,42.0,-18.0,0
-8.0,-242.0,32.0,75.0,45.0,-20.0,0
-5.0,-245.0,30.0,92.0,46.0,-21.0,0
-8.0,-242.0,31.0,100.0,45.0,-21.0,0
-10.0,-244.0,27.0,102.0,43.0,-21.0,0
-7.0,-245.0,27.0,99.0,44.0,-22.0,0
-8.0,-245.0,24.0,90.0,47.0,-25.0,0
-6.0,-243.0,26.0,82.0,51.0,-27.0,0
-6.0,-243.0,25.0,71.0,56.0,-29.0,0
-10.0,-241.0,29.0,61.0,60.0,-33.0,0
-2.0,-242.0,30.0,52.0,65.0,-36.0,0
-1.0,-249.0,30.0,46.0,67.0,-40.0,0
1.0,-251.0,37.0,41.0,69.0,-41.0,0
-3.0,-245.0,29.0,41.0,67.0,-41.0,0
-2.0,-246.0,27.0,42.0,66.0,-39.0,0
0.0,-249.0,28.0,46.0,64.0,-39.0,0
1.0,-249.0,32.0,53.0,60.0,-40.0,0
3.0,-249.0,29.0,58.0,58.0,-36.0,0
4.0,-252.0,33.0,64.0,55.0,-31.0,0
3.0,-250.0,32.0,70.0,53.0,-26.0,0
4.0,-251.0,30.0,74.0,55.0,-23.0,0
3.0,-253.0,30.0,79.0,60.0,-17.0,0
3.0,-254.0,32.0,88.0,63.0,-13.0,0
2.0,-254.0,27.0,94.0,67.0,-11.0,0
2.0,-251.0,28.0,99.0,70.0,-11.0,0
0.0,-252.0,26.0,102.0,68.0,-8.0,0
-1.0,-251.0,26.0,104.0,68.0,-8.0,0
0.0,-253.0,29.0,106.0,65.0,-7.0,0
-3.0,-247.0,27.0,108.0,63.0,-6.0,0
0.0,-247.0,24.0,109.0,61.0,-4.0,0
0.0,-249.0,27.0,113.0,58.0,-3.0,0
2.0,-250.0,25.0,118.0,55.0,-4.0,0
-1.0,-248.0,26.0,119.0,52.0,-4.0,0
0.0,-247.0,29.0,120.0,51.0,-4.0,0
0.0,-247.0,25.0,120.0,51.0,-5.0,0
0.0,-248.0,28.0,120.0,51.0,-6.0,0
1.0,-245.0,28.0,119.0,54.0,-6.0,0
-2.0,-246.0,28.0,122.0,55.0,-9.0,0
-3.0,-248.0,33.0,125.0,55.0,-14.0,0
0.0,-247.0,33.0,131.0,55.0,-14.0,0
0.0,-244.0,33.0,136.0,55.0,-14.0,0
1.0,-249.0,29.0,139.0,55.0,-15.0,0
2.0,-250.0,26.0,140.0,55.0,-18.0,0
0.0,-247.0,31.0,142.0,54.0,-17.0,0
-1.0,-251.0,38.0,143.0,54.0,-16.0,0
0.0,-245.0,27.0,143.0,53.0,-14.0,0
0.0,-246.0,30.0,141.0,53.0,-14.0,0
0.0,-246.0,28.0,137.0,55.0,-14.0,0
0.0,-247.0,29.0,133.0,56.0,-13.0,0
0.0,-245.0,27.0,127.0,56.0,-12.0,0
1.0,-245.0,28.0,117.0,57.0,-9.0,0
0.0,-243.0,31.0,106.0,57.0,-7.0,0
0.0,-243.0,31.0,95.0,56.0,-6.0,0
2.0,-244.0,29.0,86.0,56.0,-5.0,0
0.0,-244.0,25.0,78.0,56.0,-3.0,0
-2.0,-241.0,31.0,75.0,54.0,-4.0,0
-1.0,-241.0,31.0,72.0,53.0,-6.0,0
1.0,-244.0,33.0,72.0,51.0,-6.0,0
0.0,-240.0,36.0,73.0,52.0,-8.0,0
-2.0,-240.0,37.0,73.0,51.0,-9.0,0
0.0,-241.0,36.0,72.0,51.0,-11.0,0
1.0,-241.0,28.0,69.0,50.0,-15.0,0
0.0,-241.0,30.0,62.0,53.0,-19.0,0
0.0,-240.0,32.0,58.0,53.0,-21.0,0
1.0,-244.0,36.0,52.0,53.0,-22.0,0
-2.0,-241.0,29.0,48.0,54.0,-24.0,0
-4.0,-243.0,32.0,45.0,53.0,-28.0,0
-1.0,-244.0,28.0,43.0,53.0,-29.0,0
-1.0,-243.0,32.0,41.0,51.0,-29.0,0
0.0,-245.0,33.0,39.0,50.0,-31.0,0
0.0,-245.0,31.0,39.0,49.0,-33.0,0
0.0,-244.0,31.0,39.0,47.0,-35.0,0
-3.0,-251.0,32.0,42.0,49.0,-37.0,0
-2.0,-248.0,35.0,43.0,49.0,-39.0,0
0.0,-250.0,32.0,47.0,50.0,-39.0,0
0.0,-248.0,29.0,52.0,50.0,-41.0,0
-1.0,-240.0,38.0,56.0,53.0,-43.0,0
0.0,-250.0,31.0,62.0,54.0,-44.0,0
0.0,-247.0,31.0,68.0,55.0,-45.0,0
0.0,-247.0,33.0,71.0,56.0,-45.0,0
0.0,-247.0,33.0,73.0,54.0,-45.0,0
-1.0,-245.0,36.0,75.0,53.0,-47.0,0
-4.0,-246.0,34.0,79.0,50.0,-45.0,0
2.0,-244.0,33.0,81.0,48.0,-44.0,0
0.0,-246.0,38.0,82.0,44.0,-42.0,0
0.0,-247.0,34.0,83.0,44.0,-42.0,0
-2.0,-247.0,34.0,85.0,44.0,-41.0,0
4.0,-251.0,43.0,88.0,45.0,-41.0,0
1.0,-248.0,33.0,92.0,44.0,-40.0,0
-1.0,-246.0,39.0,96.0,44.0,-39.0,0
2.0,-247.0,34.0,98.0,41.0,-37.0,0
1.0,-246.0,38.0,99.0,40.0,-36.0,0
0.0,-246.0,39.0,98.0,41.0,-35.0,0
1.0,-243.0,40.0,98.0,43.0,-36.0,0
0.0,-246.0,33.0,96.0,44.0,-33.0,0
1.0,-247.0,34.0,91.0,45.0,-32.0,0
-3.0,-247.0,34.0,86.0,46.0,-33.0,0
5.0,-241.0,28.0,79.0,48.0,-31.0,0
-4.0,-243.0,33.0,70.0,49.0,-31.0,0
0.0,-243.0,34.0,64.0,49.0,-32.0,0
1.0,-243.0,35.0,61.0,49.0,-32.0,0
-2.0,-243.0,33.0,59.0,48.0,-30.0,0
-3.0,-243.0,36.0,62.0,48.0,-31.0,0
-4.0,-245.0,36.0,61.0,47.0,-31.0,0
-2.0,-240.0,33.0,62.0,46.0,-31.0,0
0.0,-244.0,34.0,61.0,47.0,-32.0,0
-1.0,-243.0,31.0,57.0,47.0,-30.0,0
1.0,-245.0,30.0,53.0,50.0,-28.0,0
-1.0,-246.0,36.0,49.0,49.0,-28.0,0
-4.0,-245.0,39.0,48.0,44.0,-25.0,0
0.0,-246.0,35.0,49.0,42.0,-23.0,0
-2.0,-244.0,32.0,47.0,41.0,-24.0,0
-2.0,-245.0,33.0,47.0,39.0,-21.0,0
0.0,-247.0,33.0,43.0,38.0,-21.0,0
-2.0,-245.0,33.0,42.0,38.0,-20.0,0
-3.0,-249.0,35.0,40.0,38.0,-21.0,0
0.0,-248.0,35.0,41.0,41.0,-22.0,0
-4.0,-246.0,40.0,43.0,42.0,-24.0,0
-2.0,-248.0,40.0,45.0,44.0,-25.0,0
0.0,-244.0,40.0,46.0,46.0,-24.0,0
1.0,-245.0,36.0,44.0,49.0,-26.0,0
0.0,-244.0,35.0,45.0,50.0,-28.0,0
0.0,-245.0,37.0,44.0,52.0,-28.0,0
-2.0,-243.0,33.0,45.0,52.0,-29.0,0
1.0,-246.0,36.0,47.0,52.0,-29.0,0
-1.0,-246.0,37.0,47.0,50.0,-31.0,0
-1.0,-247.0,35.0,48.0,47.0,-31.0,0
-1.0,-244.0,33.0,47.0,44.0,-30.0,0
-7.0,-241.0,36.0,47.0,41.0,-30.0,0
-4.0,-243.0,29.0,45.0,39.0,-30.0,0
-2.0,-242.0,32.0,42.0,38.0,-27.0,0
-3.0,-242.0,33.0,38.0,38.0,-27.0,0
-1.0,-244.0,36.0,36.0,40.0,-28.0,0
-2.0,-246.0,38.0,33.0,40.0,-30.0,0
0.0,-247.0,37.0,34.0,40.0,-30.0,0
-1.0,-244.0,35.0,36.0,39.0,-29.0,0
-2.0,-247.0,38.0,40.0,39.0,-28.0,0
-1.0,-247.0,32.0,42.0,38.0,-29.0,0
-1.0,-242.0,31.0,42.0,37.0,-31.0,0
-2.0,-246.0,39.0,42.0,38.0,-31.0,0
3.0,-248.0,35.0,40.0,39.0,-30.0,0
-1.0,-244.0,33.0,36.0,40.0,-33.0,0
-2.0,-244.0,33.0,31.0,40.0,-33.0,0
0.0,-242.0,34.0,26.0,39.0,-32.0,0
-1.0,-244.0,34.0,24.0,38.0,-32.0,0
0.0,-243.0,33.0,24.0,37.0,-34.0,0
0.0,-246.0,36.0,24.0,36.0,-35.0,0
0.0,-250.0,36.0,23.0,34.0,-36.0,0
-1.0,-245.0,30.0,23.0,32.0,-36.0,0
0.0,-246.0,30.0,22.0,32.0,-33.0,0
0.0,-251.0,35.0,19.0,31.0,-33.0,0
-1.0,-244.0,31.0,18.0,32.0,-32.0,0
-1.0,-246.0,34.0,18.0,32.0,-31.0,0
1.0,-248.0,32.0,18.0,34.0,-31.0,0
-2.0,-248.0,34.0,22.0,36.0,-29.0,0
-1.0,-250.0,30.0,25.0,34.0,-25.0,0
-1.0,-249.0,33.0,28.0,34.0,-23.0,0
-2.0,-247.0,32.0,30.0,32.0,-23.0,0
2.0,-246.0,30.0,33.0,34.0,-21.0,0
0.0,-245.0,30.0,33.0,34.0,-21.0,0
-4.0,-244.0,29.0,30.0,32.0,-20.0,0
-3.0,-254.0,33.0,29.0,30.0,-20.0,0
2.0,-250.0,32.0,28.0,30.0,-20.0,0
2.0,-246.0,28.0,28.0,28.0,-20.0,0
0.0,-247.0,32.0,31.0,30.0,-18.0,0
0.0,-248.0,31.0,34.0,33.0,-18.0,0
0.0,-244.0,32.0,36.0,31.0,-18.0,0
-2.0,-244.0,32.0,37.0,30.0,-20.0,0
-3.0,-246.0,31.0,34.0,27.0,-20.0,0
2.0,-246.0,36.0,35.0,25.0,-20.0,0
1.0,-246.0,32.0,33.0,23.0,-19.0,0
0.0,-249.0,30.0,33.0,22.0,-19.0,0
0.0,-249.0,30.0,32.0,22.0,-19.0,0
-2.0,-246.0,29.0,30.0,23.0,-19.0,0
0.0,-246.0,30.0,31.0,25.0,-17.0,0
0.0,-245.0,33.0,30.0,27.0,-17.0,0
-1.0,-246.0,27.0,31.0,28.0,-18.0,0
-1.0,-243.0,29.0,32.0,28.0,-16.0,0
0.0,-245.0,33.0,34.0,26.0,-15.0,0
-2.0,-242.0,30.0,34.0,25.0,-16.0,0
0.0,-244.0,32.0,33.0,24.0,-14.0,0
1.0,-246.0,32.0,33.0,24.0,-15.0,0
4.0,-246.0,38.0,30.0,25.0,-14.0,0
0.0,-238.0,32.0,30.0,27.0,-16.0,0
2.0,-245.0,33.0,29.0,26.0,-18.0,0
1.0,-244.0,28.0,28.0,26.0,-17.0,0
1.0,-247.0,27.0,28.0,28.0,-18.0,0
1.0,-246.0,27.0,28.0,27.0,-16.0,0
2.0,-248.0,30.0,26.0,28.0,-17.0,0
1.0,-247.0,30.0,26.0,28.0,-17.0,0
0.0,-249.0,30.0,28.0,27.0,-16.0,0
2.0,-247.0,34.0,30.0,27.0,-17.0,0
-1.0,-243.0,29.0,33.0,27.0,-16.0,0
0.0,-248.0,27.0,36.0,27.0,-18.0,0
0.0,-249.0,35.0,40.0,25.0,-18.0,0
1.0,-246.0,30.0,42.0,23.0,-17.0,0
0.0,-248.0,30.0,45.0,24.0,-16.0,0
1.0,-251.0,31.0,48.0,24.0,-16.0,0
1.0,-246.0,28.0,51.0,24.0,-15.0,0
1.0,-250.0,29.0,54.0,25.0,-16.0,0
1.0,-252.0,31.0,56.0,24.0,-16.0,0
2.0,-251.0,29.0,56.0,23.0,-17.0,0
2.0,-251.0,31.0,58.0,23.0,-16.0,0
0.0,-247.0,29.0,57.0,19.0,-17.0,0
3.0,-244.0,23.0,57.0,16.0,-16.0,0
1.0,-245.0,27.0,55.0,14.0,-17.0,0
0.0,-247.0,31.0,54.0,12.0,-17.0,0
0.0,-249.0,31.0,54.0,12.0,-18.0,0
-1.0,-249.0,35.0,55.0,11.0,-16.0,0
0.0,-247.0,34.0,55.0,11.0,-18.0,0
0.0,-246.0,30.0,56.0,12.0,-17.0,0
3.0,-245.0,35.0,57.0,12.0,-20.0,0
1.0,-244.0,30.0,56.0,11.0,-19.0,0
0.0,-247.0,33.0,56.0,10.0,-19.0,0
2.0,-248.0,30.0,57.0,8.0,-17.0,0
0.0,-245.0,36.0,56.0,6.0,-18.0,0
0.0,-247.0,31.0,56.0,4.0,-15.0,0
1.0,-241.0,30.0,55.0,2.0,-13.0,0
0.0,-242.0,31.0,53.0,1.0,-11.0,0
0.0,-246.0,32.0,51.0,1.0,-11.0,0
2.0,-244.0,30.0,47.0,0.0,-11.0,0
2.0,-248.0,32.0,45.0,0.0,-10.0,0
1.0,-242.0,35.0,43.0,0.0,-10.0,0
2.0,-245.0,31.0,44.0,0.0,-12.0,0
0.0,-243.0,31.0,42.0,0.0,-11.0,0
2.0,-245.0,29.0,42.0,1.0,-11.0,0
1.0,-245.0,29.0,44.0,0.0,-13.0,0
1.0,-245.0,26.0,47.0,-1.0,-12.0,0
4.0,-248.0,28.0,48.0,-2.0,-13.0,0
2.0,-247.0,35.0,46.0,-2.0,-12.0,0
1.0,-244.0,29.0,42.0,0.0,-8.0,0
2.0,-243.0,30.0,38.0,2.0,-7.0,0
0.0,-248.0,32.0,35.0,1.0,-6.0,0
3.0,-249.0,30.0,36.0,0.0,-4.0,0
3.0,-244.0,31.0,40.0,1.0,-6.0,0
1.0,-243.0,33.0,43.0,0.0,-4.0,0
-2.0,-245.0,29.0,45.0,-1.0,-7.0,0
0.0,-245.0,30.0,47.0,-1.0,-5.0,0
0.0,-249.0,28.0,44.0,1.0,-5.0,0
2.0,-250.0,31.0,40.0,2.0,-5.0,0
0.0,-248.0,32.0,36.0,4.0,-7.0,0
0.0,-249.0,26.0,33.0,6.0,-9.0,0
0.0,-247.0,28.0,34.0,8.0,-11.0,0
-1.0,-249.0,28.0,34.0,9.0,-13.0,0
0.0,-246.0,31.0,37.0,8.0,-14.0,0
1.0,-247.0,34.0,39.0,8.0,-16.0,0
1.0,-247.0,30.0,40.0,8.0,-16.0,0
0.0,-253.0,30.0,41.0,9.0,-16.0,0
3.0,-249.0,30.0,40.0,7.0,-16.0,0
0.0,-247.0,28.0,40.0,7.0,-13.0,0
1.0,-251.0,28.0,42.0,6.0,-12.0,0
1.0,-248.0,26.0,44.0,6.0,-11.0,0
1.0,-248.0,24.0,45.0,6.0,-9.0,0
2.0,-251.0,24.0,50.0,5.0,-7.0,0
4.0,-250.0,31.0,54.0,7.0,-6.0,0
1.0,-247.0,28.0,57.0,9.0,-6.0,0
1.0,-249.0,34.0,56.0,11.0,-6.0,0
-2.0,-248.0,27.0,55.0,13.0,-7.0,0
0.0,-248.0,30.0,57.0,14.0,-7.0,0
0.0,-245.0,34.0,58.0,14.0,-7.0,0
2.0,-248.0,31.0,60.0,13.0,-7.0,0
0.0,-245.0,28.0,61.0,11.0,-6.0,0
1.0,-246.0,31.0,61.0,9.0,-7.0,0
0.0,-245.0,31.0,59.0,7.0,-10.0,0
0.0,-245.0,30.0,59.0,7.0,-11.0,0
1.0,-244.0,29.0,56.0,7.0,-12.0,0
2.0,-248.0,33.0,55.0,8.0,-12.0,0
4.0,-246.0,27.0,54.0,10.0,-13.0,0
0.0,-241.0,31.0,51.0,10.0,-13.0,0
0.0,-244.0,30.0,50.0,12.0,-14.0,0
2.0,-247.0,28.0,48.0,13.0,-15.0,0
0.0,-245.0,29.0,49.0,13.0,-14.0,0
1.0,-247.0,26.0,50.0,13.0,-12.0,0
3.0,-249.0,31.0,50.0,14.0,-12.0,0
-1.0,-242.0,30.0,50.0,15.0,-11.0,0
1.0,-244.0,27.0,47.0,16.0,-11.0,0
1.0,-248.0,26.0,47.0,14.0,-10.0,0
2.0,-246.0,29.0,44.0,12.0,-7.0,0
1.0,-248.0,31.0,42.0,9.0,-7.0,0
2.0,-247.0,30.0,43.0,8.0,-6.0,0
0.0,-248.0,28.0,44.0,10.0,-7.0,0
2.0,-250.0,27.0,46.0,11.0,-6.0,0
1.0,-248.0,32.0,50.0,12.0,-7.0,0
1.0,-249.0,29.0,53.0,12.0,-8.0,0
-1.0,-248.0,26.0,56.0,10.0,-11.0,0
0.0,-246.0,30.0,61.0,8.0,-13.0,0
1.0,-246.0,31.0,63.0,8.0,-15.0,0
2.0,-246.0,32.0,64.0,8.0,-13.0,0
0.0,-250.0,29.0,64.0,11.0,-12.0,0
2.0,-251.0,24.0,63.0,11.0,-10.0,0
2.0,-246.0,31.0,61.0,10.0,-9.0,0
0.0,-245.0,29.0,56.0,10.0,-9.0,0
0.0,-244.0,26.0,52.0,8.0,-10.0,0
0.0,-246.0,27.0,44.0,9.0,-10.0,0
0.0,-244.0,30.0,41.0,9.0,-11.0,0
0.0,-245.0,29.0,39.0,9.0,-12.0,0
1.0,-244.0,30.0,38.0,11.0,-14.0,0
1.0,-243.0,31.0,41.0,12.0,-15.0,0
-3.0,-243.0,28.0,41.0,13.0,-11.0,0
5.0,-245.0,32.0,43.0,15.0,-11.0,0
6.0,-244.0,24.0,43.0,17.0,-10.0,0
3.0,-245.0,26.0,44.0,18.0,-9.0,0
0.0,-246.0,32.0,41.0,17.0,-9.0,0
2.0,-247.0,30.0,37.0,15.0,-8.0,0
0.0,-247.0,31.0,31.0,12.0,-7.0,0
0.0,-245.0,30.0,25.0,11.0,-7.0,0
0.0,-243.0,31.0,21.0,7.0,-9.0,0
-2.0,-246.0,29.0,19.0,7.0,-9.0,0
1.0,-249.0,30.0,18.0,8.0,-9.0,0
2.0,-249.0,34.0,18.0,10.0,-10.0,0
2.0,-246.0,31.0,20.0,11.0,-10.0,0
7.0,-246.0,29.0,20.0,13.0,-9.0,0
0.0,-245.0,34.0,18.0,13.0,-8.0,0
0.0,-242.0,29.0,12.0,13.0,-7.0,0
0.0,-243.0,30.0,6.0,13.0,-7.0,0
-3.0,-242.0,29.0,-3.0,11.0,-8.0,0
-1.0,-246.0,34.0,-10.0,8.0,-7.0,0
0.0,-242.0,32.0,-15.0,9.0,-5.0,0
-1.0,-243.0,27.0,-19.0,11.0,-8.0,0
0.0,-246.0,30.0,-20.0,14.0,-7.0,0
1.0,-246.0,32.0,-22.0,15.0,-6.0,0
3.0,-245.0,35.0,-21.0,17.0,-7.0,0
1.0,-246.0,29.0,-19.0,18.0,-7.0,0
1.0,-245.0,32.0,-18.0,17.0,-6.0,0
3.0,-248.0,30.0,-16.0,15.0,-6.0,0
0.0,-249.0,29.0,-14.0,14.0,-4.0,0
2.0,-245.0,26.0,-12.0,14.0,-4.0,0
0.0,-248.0,27.0,-10.0,12.0,-4.0,0
1.0,-245.0,31.0,-8.0,11.0,-4.0,0
2.0,-250.0,28.0,-5.0,10.0,-4.0,0
6.0,-248.0,30.0,-1.0,8.0,-3.0,0
0.0,-246.0,32.0,7.0,7.0,-2.0,0
1.0,-244.0,18.0,17.0,6.0,-2.0,0
1.0,-251.0,24.0,26.0,5.0,-2.0,0
1.0,-249.0,24.0,38.0,8.0,-3.0,0
-1.0,-249.0,26.0,46.0,11.0,-5.0,0
0.0,-248.0,25.0,50.0,15.0,-7.0,0
1.0,-247.0,21.0,52.0,20.0,-11.0,0
0.0,-248.0,24.0,53.0,24.0,-13.0,0
0.0,-248.0,25.0,51.0,26.0,-15.0,0
0.0,-247.0,27.0,50.0,27.0,-17.0,0
2.0,-248.0,33.0,48.0,27.0,-16.0,0
0.0,-248.0,29.0,50.0,25.0,-16.0,0
-3.0,-248.0,31.0,50.0,23.0,-16.0,0
0.0,-245.0,26.0,52.0,20.0,-16.0,0
2.0,-244.0,25.0,55.0,16.0,-18.0,0
1.0,-249.0,26.0,57.0,16.0,-16.0,0
0.0,-247.0,28.0,57.0,16.0,-16.0,0
1.0,-242.0,28.0,57.0,18.0,-16.0,0
1.0,-247.0,30.0,56.0,22.0,-17.0,0
3.0,-247.0,24.0,54.0,24.0,-17.0,0
2.0,-243.0,27.0,51.0,26.0,-17.0,0
0.0,-245.0,26.0,49.0,28.0,-15.0,0
2.0,-246.0,25.0,47.0,27.0,-14.0,0
-3.0,-245.0,23.0,49.0,27.0,-14.0,0
1.0,-247.0,25.0,51.0,26.0,-14.0,0
-2.0,-246.0,25.0,54.0,26.0,-11.0,0
-2.0,-245.0,29.0,55.0,24.0,-11.0,0
0.0,-243.0,23.0,56.0,23.0,-9.0,0
0.0,-244.0,27.0,54.0,20.0,-9.0,0
0.0,-246.0,26.0,50.0,17.0,-6.0,0
1.0,-247.0,31.0,45.0,16.0,-6.0,0
-1.0,-247.0,24.0,39.0,15.0,-6.0,0
-4.0,-247.0,28.0,34.0,12.0,-6.0,0
-3.0,-246.0,25.0,30.0,10.0,-6.0,0
0.0,-249.0,23.0,28.0,6.0,-5.0,0
0.0,-246.0,27.0,28.0,5.0,-7.0,0
0.0,-245.0,24.0,28.0,5.0,-9.0,0
1.0,-246.0,27.0,27.0,9.0,-11.0,0
0.0,-247.0,27.0,28.0,13.0,-14.0,0
1.0,-251.0,26.0,30.0,13.0,-14.0,0
3.0,-250.0,28.0,33.0,15.0,-15.0,0
6.0,-249.0,29.0,37.0,15.0,-16.0,0
0.0,-248.0,33.0,39.0,14.0,-15.0,0
0.0,-249.0,23.0,40.0,14.0,-16.0,0
2.0,-249.0,23.0,42.0,12.0,-15.0,0
1.0,-248.0,29.0,42.0,10.0,-14.0,0
2.0,-247.0,26.0,42.0,8.0,-15.0,0
2.0,-245.0,25.0,41.0,10.0,-16.0,0
2.0,-247.0,28.0,39.0,15.0,-17.0,0
3.0,-246.0,28.0,36.0,17.0,-19.0,0
1.0,-246.0,28.0,33.0,21.0,-18.0,0
1.0,-248.0,29.0,31.0,21.0,-19.0,0
3.0,-253.0,29.0,34.0,19.0,-16.0,0
1.0,-248.0,32.0,38.0,17.0,-15.0,0
4.0,-248.0,31.0,45.0,13.0,-14.0,0
2.0,-250.0,27.0,51.0,12.0,-14.0,0
0.0,-247.0,25.0,54.0,11.0,-13.0,0
0.0,-246.0,29.0,55.0,12.0,-15.0,0
1.0,-243.0,26.0,53.0,12.0,-15.0,0
-2.0,-245.0,28.0,48.0,14.0,-16.0,0
0.0,-247.0,26.0,46.0,15.0,-17.0,0
2.0,-250.0,29.0,43.0,16.0,-15.0,0
2.0,-247.0,29.0,42.0,16.0,-15.0,0
1.0,-246.0,32.0,41.0,16.0,-15.0,0
1.0,-246.0,23.0,41.0,18.0,-16.0,0
0.0,-251.0,28.0,39.0,19.0,-16.0,0
0.0,-247.0,31.0,38.0,20.0,-16.0,0
0.0,-243.0,29.0,37.0,19.0,-15.0,0
2.0,-248.0,27.0,32.0,19.0,-18.0,0
-1.0,-244.0,27.0,30.0,20.0,-16.0,0
0.0,-245.0,28.0,25.0,19.0,-15.0,0
0.0,-245.0,28.0,24.0,20.0,-14.0,0
2.0,-247.0,27.0,26.0,17.0,-14.0,0
0.0,-246.0,30.0,27.0,15.0,-12.0,0
-1.0,-248.0,29.0,29.0,13.0,-13.0,0
1.0,-248.0,27.0,32.0,11.0,-10.0,0
1.0,-250.0,36.0,34.0,9.0,-10.0,0
0.0,-249.0,27.0,35.0,10.0,-8.0,0
1.0,-243.0,30.0,37.0,9.0,-10.0,0
0.0,-250.0,29.0,37.0,10.0,-10.0,0
0.0,-244.0,30.0,38.0,9.0,-10.0,0
0.0,-247.0,26.0,36.0,9.0,-9.0,0
0.0,-247.0,25.0,36.0,9.0,-9.0,0
-1.0,-244.0,25.0,37.0,9.0,-7.0,0
0.0,-243.0,25.0,39.0,8.0,-8.0,0
-1.0,-245.0,29.0,40.0,7.0,-8.0,0
4.0,-249.0,30.0,39.0,6.0,-7.0,0
2.0,-247.0,22.0,38.0,3.0,-8.0,0
0.0,-248.0,27.0,34.0,-1.0,-9.0,0
-1.0,-245.0,31.0,33.0,-2.0,-8.0,0
-2.0,-246.0,28.0,31.0,-2.0,-7.0,0
0.0,-243.0,28.0,31.0,-3.0,-9.0,0
4.0,-247.0,32.0,30.0,-3.0,-9.0,0
0.0,-242.0,27.0,31.0,0.0,-8.0,0
1.0,-244.0,29.0,34.0,0.0,-9.0,0
1.0,-249.0,27.0,34.0,1.0,-8.0,0
0.0,-249.0,25.0,35.0,3.0,-9.0,0
6.0,-241.0,18.0,34.0,3.0,-9.0,0
7.0,-250.0,32.0,34.0,4.0,-9.0,0
1.0,-249.0,25.0,36.0,6.0,-9.0,0
0.0,-245.0,29.0,37.0,6.0,-10.0,0
3.0,-247.0,27.0,38.0,6.0,-9.0,0
2.0,-250.0,28.0,40.0,6.0,-10.0,0
5.0,-250.0,26.0,38.0,5.0,-10.0,0
2.0,-248.0,30.0,38.0,4.0,-11.0,0
1.0,-251.0,30.0,35.0,2.0,-9.0,0
2.0,-247.0,27.0,34.0,-1.0,-9.0,0
4.0,-247.0,28.0,32.0,-2.0,-9.0,0
1.0,-243.0,25.0,29.0,-2.0,-8.0,0
0.0,-248.0,26.0,26.0,0.0,-10.0,0
3.0,-247.0,27.0,24.0,0.0,-9.0,0
0.0,-249.0,24.0,24.0,5.0,-11.0,0
0.0,-248.0,26.0,27.0,8.0,-12.0,0
1.0,-246.0,25.0,29.0,13.0,-12.0,0
1.0,-248.0,26.0,32.0,18.0,-11.0,0
2.0,-249.0,26.0,34.0,21.0,-10.0,0
2.0,-245.0,29.0,35.0,22.0,-10.0,0
1.0,-246.0,31.0,33.0,23.0,-10.0,0
-1.0,-244.0,29.0,31.0,23.0,-9.0,0
0.0,-244.0,27.0,28.0,25.0,-7.0,0
1.0,-246.0,24.0,21.0,24.0,-5.0,0
3.0,-246.0,26.0,15.0,22.0,-5.0,0
3.0,-250.0,30.0,12.0,22.0,-6.0,0
3.0,-246.0,29.0,12.0,21.0,-8.0,0
0.0,-244.0,28.0,15.0,21.0,-10.0,0
3.0,-250.0,29.0,19.0,21.0,-12.0,0
-1.0,-247.0,27.0,24.0,21.0,-14.0,0
0.0,-251.0,28.0,27.0,24.0,-16.0,0
-1.0,-248.0,25.0,27.0,24.0,-16.0,0
2.0,-250.0,20.0,26.0,26.0,-16.0,0
1.0,-244.0,22.0,27.0,28.0,-18.0,0
1.0,-245.0,26.0,25.0,30.0,-18.0,0
2.0,-246.0,26.0,24.0,33.0,-16.0,0
5.0,-247.0,26.0,25.0,35.0,-14.0,0
4.0,-245.0,23.0,27.0,37.0,-12.0,0
4.0,-243.0,27.0,27.0,37.0,-12.0,0
4.0,-246.0,23.0,32.0,39.0,-11.0,0
6.0,-249.0,21.0,35.0,40.0,-11.0,0
3.0,-247.0,24.0,36.0,42.0,-12.0,0
5.0,-247.0,17.0,37.0,43.0,-12.0,0
1.0,-246.0,22.0,35.0,44.0,-13.0,0
5.0,-249.0,23.0,34.0,45.0,-15.0,0
2.0,-247.0,23.0,35.0,47.0,-16.0,0
3.0,-247.0,25.0,37.0,48.0,-17.0,0
4.0,-245.0,26.0,38.0,48.0,-20.0,0
1.0,-244.0,24.0,38.0,48.0,-21.0,0
2.0,-246.0,27.0,37.0,49.0,-20.0,0
2.0,-246.0,24.0,37.0,47.0,-22.0,0
3.0,-246.0,25.0,36.0,47.0,-25.0,0
5.0,-245.0,22.0,36.0,45.0,-26.0,0
1.0,-247.0,26.0,36.0,43.0,-28.0,0
0.0,-246.0,26.0,36.0,44.0,-27.0,0
0.0,-243.0,21.0,32.0,43.0,-29.0,0
2.0,-246.0,24.0,30.0,44.0,-28.0,0
2.0,-247.0,26.0,26.0,45.0,-29.0,0
0.0,-244.0,24.0,23.0,45.0,-29.0,0
1.0,-243.0,23.0,22.0,48.0,-28.0,0
3.0,-250.0,24.0,25.0,47.0,-29.0,0
3.0,-248.0,29.0,30.0,48.0,-30.0,0
1.0,-248.0,25.0,35.0,46.0,-30.0,0
3.0,-250.0,30.0,42.0,44.0,-29.0,0
1.0,-248.0,18.0,47.0,43.0,-30.0,0
2.0,-246.0,22.0,50.0,41.0,-29.0,0
0.0,-244.0,25.0,52.0,40.0,-27.0,0
0.0,-246.0,23.0,51.0,38.0,-27.0,0
0.0,-244.0,22.0,50.0,39.0,-28.0,0
1.0,-246.0,23.0,48.0,38.0,-26.0,0
2.0,-247.0,23.0,45.0,39.0,-26.0,0
1.0,-243.0,25.0,43.0,39.0,-26.0,0
-1.0,-244.0,27.0,43.0,39.0,-26.0,0
0.0,-249.0,27.0,44.0,39.0,-25.0,0
0.0,-248.0,25.0,45.0,40.0,-24.0,0
0.0,-247.0,31.0,46.0,36.0,-23.0,0
-1.0,-248.0,24.0,45.0,35.0,-25.0,0
0.0,-247.0,23.0,46.0,33.0,-23.0,0
-1.0,-249.0,28.0,47.0,30.0,-23.0,0
-2.0,-246.0,27.0,48.0,28.0,-24.0,0
1.0,-250.0,26.0,48.0,28.0,-24.0,0
4.0,-250.0,24.0,47.0,27.0,-23.0,0
0.0,-244.0,24.0,48.0,28.0,-24.0,0
0.0,-246.0,26.0,47.0,30.0,-24.0,0
1.0,-245.0,18.0,48.0,30.0,-24.0,0
0.0,-244.0,23.0,50.0,32.0,-25.0,0
1.0,-245.0,22.0,49.0,35.0,-24.0,0
2.0,-250.0,25.0,49.0,35.0,-23.0,0
3.0,-248.0,26.0,48.0,37.0,-23.0,0
1.0,-249.0,22.0,46.0,36.0,-22.0,0
2.0,-249.0,19.0,45.0,36.0,-22.0,0
1.0,-249.0,24.0,45.0,34.0,-18.0,0
1.0,-245.0,23.0,45.0,33.0,-17.0,0
0.0,-250.0,21.0,47.0,32.0,-14.0,0
0.0,-247.0,26.0,47.0,31.0,-13.0,0
1.0,-247.0,31.0,48.0,29.0,-12.0,0
1.0,-249.0,22.0,50.0,26.0,-10.0,0
-3.0,-248.0,26.0,52.0,23.0,-9.0,0
0.0,-246.0,26.0,54.0,22.0,-10.0,0
-2.0,-247.0,27.0,56.0,18.0,-10.0,0
0.0,-246.0,30.0,59.0,18.0,-11.0,0
1.0,-251.0,29.0,59.0,17.0,-12.0,0
-1.0,-248.0,26.0,59.0,14.0,-12.0,0
-1.0,-247.0,24.0,57.0,13.0,-12.0,0
0.0,-247.0,23.0,52.0,13.0,-13.0,0
2.0,-247.0,22.0,50.0,13.0,-14.0,0
0.0,-249.0,25.0,48.0,12.0,-12.0,0
4.0,-252.0,24.0,46.0,10.0,-10.0,0
0.0,-246.0,22.0,45.0,8.0,-9.0,0
1.0,-245.0,25.0,44.0,5.0,-7.0,0
1.0,-248.0,21.0,46.0,2.0,-7.0,0
3.0,-246.0,23.0,47.0,0.0,-4.0,0
1.0,-246.0,21.0,50.0,0.0,-2.0,0
3.0,-246.0,21.0,52.0,0.0,-2.0,0
0.0,-247.0,21.0,50.0,0.0,-1.0,0
0.0,-248.0,22.0,46.0,1.0,2.0,0
0.0,-248.0,24.0,41.0,1.0,1.0,0
0.0,-248.0,17.0,39.0,-1.0,1.0,0
2.0,-250.0,20.0,40.0,-2.0,1.0,0
1.0,-246.0,25.0,44.0,-1.0,3.0,0
2.0,-247.0,24.0,48.0,-3.0,1.0,0
-1.0,-250.0,21.0,50.0,-4.0,3.0,0
0.0,-246.0,23.0,51.0,-6.0,3.0,0
2.0,-247.0,20.0,50.0,-8.0,3.0,0
0.0,-244.0,22.0,49.0,-10.0,2.0,0
0.0,-247.0,19.0,49.0,-10.0,2.0,0
1.0,-246.0,23.0,49.0,-12.0,1.0,0
0.0,-246.0,20.0,52.0,-13.0,-1.0,0
1.0,-245.0,22.0,54.0,-13.0,-2.0,0
3.0,-248.0,24.0,55.0,-12.0,-2.0,0
1.0,-243.0,24.0,58.0,-13.0,-4.0,0
3.0,-243.0,23.0,60.0,-14.0,-4.0,0
1.0,-246.0,23.0,61.0,-14.0,-2.0,0
3.0,-246.0,22.0,60.0,-15.0,-2.0,0
3.0,-248.0,27.0,61.0,-15.0,-2.0,0
6.0,-248.0,26.0,61.0,-14.0,-3.0,0
2.0,-248.0,21.0,61.0,-13.0,-4.0,0
1.0,-250.0,24.0,60.0,-12.0,-6.0,0
1.0,-246.0,25.0,60.0,-10.0,-5.0,0
1.0,-248.0,26.0,59.0,-8.0,-6.0,0
2.0,-246.0,22.0,58.0,-6.0,-7.0,0
1.0,-248.0,26.0,57.0,-5.0,-4.0,0
0.0,-246.0,22.0,57.0,-5.0,-4.0,0
1.0,-248.0,23.0,58.0,-4.0,-6.0,0
1.0,-244.0,22.0,59.0,-2.0,-6.0,0
2.0,-249.0,23.0,59.0,-2.0,-6.0,0
1.0,-252.0,25.0,57.0,-3.0,-5.0,0
-1.0,-245.0,22.0,58.0,-2.0,-4.0,0
1.0,-248.0,27.0,57.0,-2.0,-3.0,0
3.0,-248.0,23.0,58.0,-3.0,-3.0,0
3.0,-245.0,25.0,59.0,-3.0,-6.0,0
1.0,-248.0,22.0,59.0,-2.0,-5.0,0
2.0,-249.0,26.0,60.0,-2.0,-2.0,0
3.0,-249.0,23.0,61.0,-1.0,-4.0,0
1.0,-250.0,26.0,61.0,-1.0,-4.0,0
1.0,-250.0,28.0,60.0,-3.0,-1.0,0
-3.0,-246.0,27.0,62.0,-4.0,-3.0,0
-1.0,-247.0,24.0,63.0,-6.0,-2.0,0
0.0,-250.0,29.0,64.0,-7.0,-5.0,0
0.0,-247.0,21.0,65.0,-7.0,-6.0,0
-1.0,-248.0,16.0,68.0,-8.0,-6.0,0
1.0,-246.0,27.0,70.0,-10.0,-7.0,0
0.0,-249.0,25.0,69.0,-11.0,-8.0,0
0.0,-245.0,24.0,68.0,-12.0,-7.0,0
1.0,-246.0,22.0,66.0,-14.0,-7.0,0
0.0,-244.0,21.0,64.0,-16.0,-5.0,0
0.0,-248.0,24.0,63.0,-17.0,-3.0,0
2.0,-247.0,26.0,64.0,-16.0,-1.0,0
5.0,-246.0,26.0,64.0,-16.0,0.0,0
-1.0,-248.0,22.0,63.0,-17.0,2.0,0
0.0,-246.0,21.0,64.0,-17.0,1.0,0
5.0,-250.0,16.0,63.0,-16.0,1.0,0
