ax,ay,az,gx,gy,gz,label
9.0,-252.0,-27.0,7.0,51.0,0.0,0
7.0,-246.0,-25.0,5.0,52.0,-3.0,0
8.0,-252.0,-22.0,1.0,54.0,-3.0,0
5.0,-249.0,-26.0,-3.0,55.0,-6.0,0
6.0,-253.0,-24.0,-7.0,56.0,-3.0,0
11.0,-247.0,-37.0,-10.0,58.0,-6.0,0
8.0,-249.0,-20.0,-11.0,57.0,-2.0,0
10.0,-250.0,-26.0,-14.0,55.0,-4.0,0
6.0,-250.0,-27.0,-16.0,54.0,-2.0,0
6.0,-254.0,-26.0,-14.0,55.0,-5.0,0
9.0,-251.0,-25.0,-12.0,56.0,-3.0,0
10.0,-253.0,-28.0,-12.0,58.0,-7.0,0
11.0,-252.0,-28.0,-12.0,59.0,-4.0,0
8.0,-254.0,-28.0,-11.0,58.0,-8.0,0
11.0,-249.0,-26.0,-11.0,58.0,-5.0,0
12.0,-235.0,-49.0,-11.0,55.0,-8.0,0
8.0,-249.0,-24.0,-12.0,54.0,-5.0,0
6.0,-251.0,-33.0,-13.0,54.0,-7.0,0
16.0,-252.0,-27.0,-13.0,53.0,-5.0,0
8.0,-248.0,-32.0,-14.0,54.0,-6.0,0
7.0,-250.0,-26.0,-15.0,53.0,-3.0,0
8.0,-253.0,-24.0,-16.0,51.0,-5.0,0
8.0,-252.0,-26.0,-13.0,52.0,-4.0,0
5.0,-253.0,-25.0,-13.0,50.0,-7.0,0
13.0,-252.0,-26.0,-13.0,50.0,-3.0,0
8.0,-251.0,-25.0,-14.0,49.0,-6.0,0
2.0,-248.0,-33.0,-16.0,47.0,-4.0,0
8.0,-253.0,-26.0,-17.0,47.0,-7.0,0
9.0,-252.0,-23.0,-20.0,47.0,-5.0,0
7.0,-254.0,-27.0,-22.0,49.0,-7.0,0
7.0,-250.0,-26.0,-20.0,47.0,-3.0,0
8.0,-253.0,-25.0,-18.0,47.0,-5.0,0
8.0,-250.0,-23.0,-15.0,47.0,-3.0,0
9.0,-251.0,-25.0,-11.0,46.0,-4.0,0
9.0,-254.0,-31.0,-3.0,47.0,-2.0,0
8.0,-250.0,-27.0,4.0,47.0,-4.0,0
14.0,-256.0,-27.0,12.0,45.0,1.0,0
0.0,-251.0,-19.0,16.0,45.0,-3.0,0
9.0,-252.0,-24.0,17.0,43.0,1.0,0
9.0,-250.0,-29.0,18.0,41.0,0.0,0
7.0,-251.0,-25.0,18.0,43.0,0.0,0
7.0,-250.0,-23.0,18.0,46.0,-2.0,0
7.0,-251.0,-22.0,17.0,50.0,0.0,0
9.0,-250.0,-25.0,16.0,51.0,-5.0,0
6.0,-251.0,-20.0,13.0,53.0,-3.0,0
11.0,-252.0,-32.0,10.0,55.0,-7.0,0
6.0,-251.0,-24.0,7.0,56.0,-4.0,0
6.0,-251.0,-30.0,1.0,57.0,-7.0,0
12.0,-258.0,-22.0,-2.0,56.0,-5.0,0
9.0,-252.0,-25.0,-4.0,56.0,-7.0,0
8.0,-252.0,-28.0,-4.0,55.0,-5.0,0
10.0,-252.0,-24.0,-3.0,54.0,-7.0,0
8.0,-253.0,-24.0,3.0,56.0,-5.0,0
10.0,-252.0,-21.0,7.0,56.0,-7.0,0
9.0,-252.0,-21.0,10.0,57.0,-4.0,0
7.0,-252.0,-25.0,7.0,58.0,-7.0,0
13.0,-251.0,-27.0,2.0,58.0,-3.0,0
8.0,-248.0,-24.0,-4.0,59.0,-5.0,0
6.0,-251.0,-22.0,-14.0,59.0,-2.0,0
20.0,-263.0,-14.0,-21.0,58.0,-6.0,0
8.0,-253.0,-22.0,-25.0,55.0,-4.0,0
6.0,-251.0,-26.0,-24.0,56.0,-5.0,0
4.0,-251.0,-24.0,-24.0,56.0,-3.0,0
8.0,-250.0,-24.0,-24.0,58.0,-5.0,0
6.0,-251.0,-21.0,-24.0,58.0,-4.0,0
7.0,-248.0,-21.0,-27.0,60.0,-7.0,0
6.0,-252.0,-19.0,-28.0,59.0,-4.0,0
8.0,-252.0,-25.0,-29.0,59.0,-5.0,0
7.0,-253.0,-24.0,-31.0,57.0,-4.0,0
7.0,-255.0,-23.0,-26.0,57.0,-5.0,0
10.0,-248.0,-27.0,-21.0,56.0,-3.0,0
6.0,-251.0,-25.0,-20.0,53.0,-5.0,0
7.0,-253.0,-26.0,-19.0,56.0,-5.0,0
8.0,-252.0,-28.0,-23.0,56.0,-7.0,0
5.0,-250.0,-29.0,-27.0,59.0,-7.0,0
7.0,-254.0,-27.0,-29.0,61.0,-11.0,0
7.0,-252.0,-32.0,-26.0,66.0,-9.0,0
10.0,-252.0,-26.0,-23.0,64.0,-11.0,0
14.0,-255.0,-20.0,-19.0,63.0,-7.0,0
6.0,-252.0,-23.0,-13.0,61.0,-9.0,0
8.0,-250.0,-18.0,-10.0,61.0,-5.0,0
12.0,-253.0,-25.0,-9.0,55.0,-5.0,0
10.0,-254.0,-29.0,-10.0,53.0,-3.0,0
9.0,-250.0,-28.0,-14.0,52.0,-5.0,0
9.0,-252.0,-21.0,-18.0,51.0,-1.0,0
7.0,-250.0,-25.0,-21.0,51.0,-3.0,0
10.0,-252.0,-24.0,-20.0,52.0,-3.0,0
8.0,-255.0,-23.0,-19.0,53.0,-7.0,0
6.0,-249.0,-25.0,-15.0,53.0,-6.0,0
4.0,-252.0,-25.0,-12.0,55.0,-8.0,0
6.0,-253.0,-24.0,-9.0,55.0,-6.0,0
7.0,-252.0,-27.0,-7.0,56.0,-9.0,0
13.0,-261.0,-19.0,-4.0,55.0,-6.0,0
7.0,-249.0,-24.0,-2.0,56.0,-8.0,0
8.0,-250.0,-22.0,2.0,58.0,-6.0,0
11.0,-252.0,-25.0,4.0,57.0,-7.0,0
10.0,-249.0,-22.0,4.0,56.0,-4.0,0
11.0,-250.0,-23.0,1.0,55.0,-6.0,0
9.0,-251.0,-28.0,-3.0,55.0,-2.0,0
5.0,-252.0,-22.0,-8.0,54.0,-5.0,0
5.0,-250.0,-25.0,-14.0,54.0,-3.0,0
9.0,-249.0,-24.0,-18.0,54.0,-5.0,0
7.0,-253.0,-22.0,-19.0,54.0,-3.0,0
14.0,-237.0,-36.0,-21.0,55.0,-5.0,0
7.0,-250.0,-30.0,-22.0,56.0,-2.0,0
7.0,-254.0,-26.0,-21.0,56.0,-5.0,0
5.0,-251.0,-24.0,-21.0,56.0,-5.0,0
10.0,-255.0,-24.0,-20.0,58.0,-6.0,0
7.0,-252.0,-25.0,-19.0,58.0,-4.0,0
8.0,-251.0,-20.0,-18.0,59.0,-8.0,0
11.0,-252.0,-26.0,-19.0,58.0,-6.0,0
9.0,-251.0,-23.0,-20.0,59.0,-9.0,0
9.0,-241.0,-26.0,-20.0,58.0,-5.0,0
10.0,-258.0,-29.0,-21.0,58.0,-7.0,0
6.0,-252.0,-23.0,-22.0,57.0,-5.0,0
9.0,-250.0,-29.0,-25.0,56.0,-7.0,0
8.0,-252.0,-26.0,-26.0,56.0,-5.0,0
7.0,-249.0,-27.0,-28.0,55.0,-6.0,0
8.0,-251.0,-24.0,-29.0,56.0,-3.0,0
9.0,-253.0,-22.0,-31.0,57.0,-7.0,0
6.0,-250.0,-22.0,-32.0,58.0,-4.0,0
10.0,-250.0,-18.0,-32.0,59.0,-6.0,0
8.0,-252.0,-30.0,-31.0,60.0,-2.0,0
13.0,-250.0,-27.0,-33.0,61.0,-3.0,0
7.0,-244.0,-26.0,-33.0,61.0,0.0,0
6.0,-249.0,-20.0,-35.0,61.0,-4.0,0
9.0,-250.0,-24.0,-37.0,63.0,0.0,0
9.0,-252.0,-24.0,-41.0,62.0,-2.0,0
7.0,-250.0,-23.0,-44.0,64.0,1.0,0
7.0,-252.0,-20.0,-47.0,66.0,-1.0,0
7.0,-251.0,-25.0,-48.0,66.0,3.0,0
5.0,-251.0,-21.0,-48.0,65.0,1.0,0
6.0,-250.0,-27.0,-52.0,64.0,3.0,0
8.0,-254.0,-26.0,-54.0,62.0,1.0,0
8.0,-249.0,-22.0,-58.0,59.0,5.0,0
14.0,-238.0,-38.0,-60.0,54.0,1.0,0
7.0,-252.0,-28.0,-62.0,49.0,2.0,0
8.0,-254.0,-31.0,-68.0,41.0,-1.0,0
3.0,-253.0,-30.0,-73.0,34.0,0.0,0
5.0,-251.0,-30.0,-77.0,31.0,-4.0,0
4.0,-251.0,-30.0,-72.0,30.0,-2.0,0
6.0,-252.0,-30.0,-62.0,31.0,-5.0,0
9.0,-256.0,-30.0,-48.0,34.0,-4.0,0
7.0,-254.0,-25.0,-31.0,39.0,-8.0,0
8.0,-254.0,-28.0,-16.0,42.0,-7.0,0
10.0,-253.0,-32.0,-6.0,43.0,-9.0,0
10.0,-259.0,-18.0,-5.0,42.0,-8.0,0
12.0,-254.0,-32.0,-5.0,46.0,-12.0,0
12.0,-253.0,-28.0,-8.0,49.0,-11.0,0
9.0,-250.0,-30.0,-11.0,52.0,-12.0,0
11.0,-250.0,-25.0,-12.0,54.0,-12.0,0
10.0,-254.0,-28.0,-11.0,54.0,-15.0,0
9.0,-249.0,-29.0,-8.0,57.0,-12.0,0
14.0,-250.0,-30.0,-4.0,59.0,-15.0,0
9.0,-249.0,-27.0,-5.0,63.0,-11.0,0
12.0,-247.0,-23.0,-8.0,66.0,-12.0,0
9.0,-251.0,-25.0,-14.0,66.0,-10.0,0
1.0,-254.0,-29.0,-19.0,67.0,-8.0,0
10.0,-253.0,-25.0,-24.0,65.0,-7.0,0
10.0,-253.0,-28.0,-26.0,64.0,-8.0,0
11.0,-253.0,-25.0,-26.0,65.0,-5.0,0
11.0,-252.0,-25.0,-25.0,66.0,-7.0,0
9.0,-252.0,-28.0,-26.0,67.0,-5.0,0
7.0,-251.0,-29.0,-27.0,69.0,-7.0,0
10.0,-250.0,-22.0,-29.0,69.0,-5.0,0
11.0,-253.0,-23.0,-31.0,69.0,-8.0,0
8.0,-253.0,-24.0,-30.0,71.0,-7.0,0
9.0,-252.0,-26.0,-26.0,72.0,-9.0,0
13.0,-247.0,-36.0,-21.0,72.0,-9.0,0
11.0,-253.0,-26.0,-17.0,73.0,-11.0,0
9.0,-249.0,-27.0,-15.0,75.0,-9.0,0
9.0,-253.0,-29.0,-15.0,78.0,-12.0,0
6.0,-252.0,-27.0,-17.0,83.0,-11.0,0
8.0,-252.0,-29.0,-17.0,84.0,-13.0,0
8.0,-252.0,-26.0,-16.0,90.0,-10.0,0
7.0,-253.0,-30.0,-13.0,93.0,-13.0,0
3.0,-252.0,-26.0,-9.0,93.0,-9.0,0
8.0,-253.0,-23.0,-3.0,89.0,-10.0,0
10.0,-252.0,-26.0,1.0,86.0,-7.0,0
19.0,-253.0,-17.0,2.0,81.0,-7.0,0
9.0,-251.0,-29.0,3.0,77.0,-3.0,0
6.0,-251.0,-30.0,-1.0,73.0,-5.0,0
8.0,-252.0,-27.0,-5.0,72.0,-3.0,0
8.0,-255.0,-31.0,-7.0,70.0,-5.0,0
8.0,-254.0,-25.0,-7.0,68.0,-4.0,0
7.0,-252.0,-28.0,-4.0,69.0,-7.0,0
8.0,-254.0,-25.0,1.0,69.0,-7.0,0
8.0,-252.0,-27.0,10.0,69.0,-10.0,0
7.0,-256.0,-27.0,19.0,69.0,-7.0,0
5.0,-256.0,-28.0,30.0,69.0,-9.0,0
7.0,-248.0,-35.0,41.0,69.0,-8.0,0
6.0,-254.0,-26.0,53.0,70.0,-12.0,0
6.0,-251.0,-27.0,60.0,69.0,-8.0,0
7.0,-252.0,-29.0,65.0,69.0,-12.0,0
6.0,-250.0,-27.0,70.0,67.0,-9.0,0
7.0,-251.0,-30.0,70.0,67.0,-10.0,0
6.0,-250.0,-25.0,70.0,67.0,-8.0,0
4.0,-250.0,-29.0,68.0,67.0,-11.0,0
7.0,-253.0,-28.0,62.0,65.0,-9.0,0
5.0,-248.0,-26.0,57.0,64.0,-11.0,0
5.0,-252.0,-27.0,53.0,63.0,-9.0,0
5.0,-246.0,-52.0,53.0,62.0,-11.0,0
10.0,-255.0,-26.0,57.0,62.0,-8.0,0
5.0,-252.0,-31.0,63.0,63.0,-9.0,0
10.0,-253.0,-26.0,71.0,65.0,-6.0,0
11.0,-255.0,-26.0,77.0,68.0,-8.0,0
7.0,-253.0,-23.0,82.0,71.0,-7.0,0
6.0,-252.0,-25.0,85.0,74.0,-11.0,0
4.0,-250.0,-23.0,86.0,75.0,-11.0,0
6.0,-254.0,-26.0,89.0,74.0,-13.0,0
12.0,-255.0,-20.0,90.0,73.0,-9.0,0
8.0,-245.0,-27.0,95.0,72.0,-11.0,0
6.0,-251.0,-23.0,98.0,68.0,-9.0,0
6.0,-249.0,-25.0,100.0,67.0,-11.0,0
10.0,-250.0,-24.0,101.0,68.0,-9.0,0
8.0,-250.0,-26.0,99.0,67.0,-10.0,0
7.0,-248.0,-23.0,98.0,71.0,-8.0,0
10.0,-250.0,-17.0,95.0,73.0,-10.0,0
10.0,-247.0,-22.0,91.0,74.0,-7.0,0
8.0,-254.0,-19.0,85.0,75.0,-9.0,0
10.0,-251.0,-21.0,79.0,75.0,-7.0,0
5.0,-249.0,-19.0,71.0,73.0,-8.0,0
6.0,-268.0,-4.0,64.0,70.0,-4.0,0
8.0,-249.0,-15.0,57.0,69.0,-6.0,0
9.0,-252.0,-19.0,47.0,66.0,-4.0,0
10.0,-252.0,-21.0,42.0,65.0,-7.0,0
10.0,-250.0,-17.0,37.0,62.0,-4.0,0
8.0,-251.0,-20.0,31.0,61.0,-8.0,0
8.0,-252.0,-19.0,26.0,62.0,-5.0,0
10.0,-250.0,-21.0,25.0,62.0,-7.0,0
5.0,-251.0,-20.0,24.0,63.0,-5.0,0
13.0,-250.0,-21.0,26.0,64.0,-8.0,0
7.0,-252.0,-18.0,27.0,64.0,-3.0,0
7.0,-261.0,-7.0,30.0,64.0,-7.0,0
10.0,-253.0,-23.0,30.0,64.0,-5.0,0
9.0,-252.0,-19.0,32.0,64.0,-7.0,0
7.0,-250.0,-18.0,33.0,64.0,-6.0,0
10.0,-252.0,-22.0,33.0,63.0,-8.0,0
6.0,-250.0,-14.0,32.0,64.0,-6.0,0
8.0,-249.0,-21.0,30.0,64.0,-8.0,0
8.0,-249.0,-19.0,26.0,64.0,-6.0,0
11.0,-247.0,-18.0,21.0,64.0,-8.0,0
9.0,-251.0,-20.0,16.0,62.0,-6.0,0
6.0,-252.0,-20.0,13.0,63.0,-9.0,0
6.0,-241.0,-38.0,10.0,64.0,-7.0,0
10.0,-254.0,-17.0,7.0,64.0,-9.0,0
9.0,-251.0,-19.0,3.0,64.0,-7.0,0
8.0,-252.0,-19.0,2.0,61.0,-9.0,0
9.0,-251.0,-18.0,1.0,60.0,-7.0,0
8.0,-249.0,-20.0,0.0,59.0,-9.0,0
6.0,-250.0,-17.0,-1.0,59.0,-8.0,0
8.0,-251.0,-18.0,-2.0,59.0,-9.0,0
6.0,-251.0,-23.0,-1.0,61.0,-6.0,0
6.0,-249.0,-21.0,-2.0,59.0,-9.0,0
9.0,-251.0,-20.0,-4.0,58.0,-5.0,0
7.0,-246.0,-32.0,-7.0,57.0,-8.0,0
11.0,-253.0,-17.0,-11.0,56.0,-7.0,0
9.0,-252.0,-19.0,-12.0,53.0,-8.0,0
8.0,-254.0,-21.0,-10.0,54.0,-5.0,0
8.0,-254.0,-22.0,-8.0,52.0,-8.0,0
7.0,-255.0,-18.0,-5.0,51.0,-6.0,0
7.0,-250.0,-20.0,-2.0,52.0,-7.0,0
11.0,-255.0,-19.0,-1.0,53.0,-5.0,0
10.0,-248.0,-20.0,-5.0,53.0,-8.0,0
7.0,-252.0,-19.0,-9.0,54.0,-6.0,0
10.0,-251.0,-20.0,-11.0,54.0,-9.0,0
18.0,-250.0,-24.0,-10.0,53.0,-6.0,0
8.0,-252.0,-21.0,-7.0,51.0,-9.0,0
9.0,-249.0,-20.0,-6.0,51.0,-7.0,0
8.0,-252.0,-23.0,-9.0,51.0,-10.0,0
9.0,-247.0,-23.0,-12.0,49.0,-8.0,0
7.0,-252.0,-22.0,-16.0,51.0,-10.0,0
10.0,-254.0,-26.0,-17.0,54.0,-7.0,0
7.0,-255.0,-24.0,-15.0,55.0,-9.0,0
5.0,-252.0,-19.0,-10.0,57.0,-7.0,0
8.0,-253.0,-22.0,-6.0,61.0,-8.0,0
8.0,-255.0,-19.0,1.0,62.0,-6.0,0
10.0,-256.0,-10.0,7.0,61.0,-8.0,0
9.0,-253.0,-18.0,11.0,62.0,-6.0,0
9.0,-252.0,-17.0,10.0,60.0,-7.0,0
10.0,-254.0,-21.0,9.0,59.0,-4.0,0
9.0,-253.0,-21.0,5.0,57.0,-6.0,0
9.0,-254.0,-18.0,2.0,53.0,-4.0,0
9.0,-253.0,-19.0,1.0,51.0,-7.0,0
8.0,-255.0,-19.0,0.0,50.0,-5.0,0
6.0,-252.0,-19.0,2.0,49.0,-6.0,0
8.0,-251.0,-19.0,6.0,48.0,-5.0,0
8.0,-252.0,-29.0,9.0,48.0,-8.0,0
4.0,-249.0,-26.0,13.0,47.0,-6.0,0
8.0,-254.0,-24.0,14.0,47.0,-6.0,0
6.0,-252.0,-21.0,17.0,48.0,-4.0,0
6.0,-251.0,-20.0,20.0,52.0,-6.0,0
9.0,-253.0,-20.0,23.0,54.0,-4.0,0
8.0,-249.0,-21.0,25.0,56.0,-7.0,0
5.0,-251.0,-19.0,26.0,55.0,-6.0,0
10.0,-254.0,-20.0,26.0,55.0,-9.0,0
7.0,-250.0,-22.0,25.0,54.0,-6.0,0
2.0,-247.0,-17.0,23.0,54.0,-8.0,0
8.0,-253.0,-15.0,20.0,54.0,-6.0,0
17.0,-235.0,-33.0,16.0,51.0,-7.0,0
9.0,-250.0,-20.0,11.0,50.0,-5.0,0
8.0,-252.0,-23.0,3.0,48.0,-7.0,0
10.0,-252.0,-20.0,0.0,45.0,-5.0,0
8.0,-251.0,-18.0,0.0,44.0,-7.0,0
11.0,-252.0,-21.0,-1.0,44.0,-5.0,0
9.0,-253.0,-17.0,0.0,43.0,-7.0,0
11.0,-251.0,-19.0,3.0,45.0,-6.0,0
8.0,-253.0,-17.0,4.0,47.0,-8.0,0
13.0,-253.0,-20.0,5.0,49.0,-4.0,0
13.0,-251.0,-19.0,5.0,50.0,-6.0,0
10.0,-248.0,-49.0,5.0,52.0,-3.0,0
8.0,-250.0,-17.0,7.0,54.0,-7.0,0
9.0,-251.0,-17.0,7.0,56.0,-3.0,0
7.0,-250.0,-19.0,8.0,57.0,-8.0,0
7.0,-252.0,-17.0,9.0,56.0,-5.0,0
6.0,-250.0,-19.0,11.0,57.0,-9.0,0
7.0,-252.0,-22.0,8.0,56.0,-7.0,0
6.0,-251.0,-15.0,6.0,57.0,-9.0,0
8.0,-249.0,-18.0,2.0,57.0,-8.0,0
8.0,-249.0,-17.0,0.0,57.0,-10.0,0
-2.0,-250.0,-12.0,-1.0,57.0,-8.0,0
9.0,-253.0,-23.0,-3.0,56.0,-11.0,0
8.0,-251.0,-21.0,-5.0,55.0,-8.0,0
10.0,-253.0,-17.0,-5.0,55.0,-10.0,0
10.0,-250.0,-19.0,-7.0,55.0,-7.0,0
10.0,-251.0,-17.0,-6.0,58.0,-11.0,0
10.0,-250.0,-18.0,-6.0,60.0,-7.0,0
9.0,-251.0,-22.0,-5.0,62.0,-8.0,0
9.0,-251.0,-16.0,-5.0,63.0,-5.0,0
9.0,-255.0,-15.0,-3.0,65.0,-9.0,0
10.0,-250.0,-20.0,-2.0,65.0,-7.0,0
7.0,-253.0,-19.0,0.0,65.0,-9.0,0
9.0,-252.0,-15.0,1.0,66.0,-8.0,0
9.0,-252.0,-19.0,0.0,65.0,-9.0,0
7.0,-251.0,-19.0,-3.0,65.0,-7.0,0
10.0,-254.0,-18.0,-5.0,65.0,-10.0,0
9.0,-253.0,-15.0,-5.0,65.0,-7.0,0
7.0,-249.0,-19.0,-3.0,65.0,-10.0,0
9.0,-252.0,-14.0,-2.0,66.0,-9.0,0
9.0,-250.0,-20.0,-3.0,65.0,-11.0,0
7.0,-250.0,-19.0,-3.0,67.0,-8.0,0
11.0,-252.0,-19.0,-6.0,68.0,-12.0,0
14.0,-243.0,-16.0,-8.0,70.0,-10.0,0
10.0,-249.0,-18.0,-11.0,72.0,-11.0,0
7.0,-250.0,-16.0,-14.0,72.0,-9.0,0
6.0,-251.0,-13.0,-16.0,72.0,-10.0,0
10.0,-252.0,-15.0,-17.0,72.0,-7.0,0
7.0,-253.0,-15.0,-18.0,70.0,-10.0,0
8.0,-253.0,-19.0,-18.0,70.0,-7.0,0
12.0,-250.0,-18.0,-17.0,72.0,-10.0,0
7.0,-250.0,-21.0,-16.0,73.0,-9.0,0
7.0,-248.0,-18.0,-14.0,75.0,-12.0,0
6.0,-252.0,-16.0,-12.0,74.0,-10.0,0
10.0,-253.0,-17.0,-11.0,71.0,-12.0,0
7.0,-251.0,-21.0,-14.0,69.0,-9.0,0
5.0,-253.0,-19.0,-17.0,66.0,-11.0,0
6.0,-251.0,-17.0,-16.0,66.0,-7.0,0
10.0,-251.0,-17.0,-17.0,65.0,-8.0,0
7.0,-252.0,-16.0,-13.0,65.0,-6.0,0
9.0,-254.0,-11.0,-10.0,66.0,-7.0,0
5.0,-252.0,-18.0,-7.0,68.0,-6.0,0
11.0,-250.0,-20.0,-4.0,69.0,-8.0,0
10.0,-251.0,-17.0,-6.0,70.0,-7.0,0
5.0,-248.0,-11.0,-9.0,70.0,-11.0,0
15.0,-246.0,-21.0,-15.0,68.0,-8.0,0
4.0,-251.0,-14.0,-20.0,66.0,-10.0,0
10.0,-249.0,-16.0,-24.0,66.0,-8.0,0
11.0,-253.0,-18.0,-24.0,64.0,-9.0,0
11.0,-251.0,-20.0,-26.0,63.0,-6.0,0
11.0,-249.0,-21.0,-26.0,62.0,-8.0,0
9.0,-254.0,-19.0,-30.0,64.0,-3.0,0
9.0,-247.0,-14.0,-31.0,65.0,-6.0,0
8.0,-253.0,-18.0,-29.0,70.0,-4.0,0
6.0,-255.0,-18.0,-23.0,73.0,-6.0,0
7.0,-253.0,-17.0,-18.0,75.0,-4.0,0
5.0,-251.0,-21.0,-10.0,75.0,-8.0,0
7.0,-252.0,-14.0,-2.0,75.0,-5.0,0
6.0,-253.0,-17.0,1.0,72.0,-7.0,0
7.0,-249.0,-19.0,0.0,69.0,-5.0,0
7.0,-254.0,-16.0,-5.0,67.0,-7.0,0
6.0,-250.0,-14.0,-9.0,65.0,-3.0,0
7.0,-252.0,-15.0,-14.0,62.0,-7.0,0
9.0,-248.0,-18.0,-15.0,62.0,-4.0,0
12.0,-251.0,-18.0,-18.0,63.0,-8.0,0
9.0,-254.0,-18.0,-17.0,65.0,-5.0,0
8.0,-243.0,-15.0,-18.0,64.0,-8.0,0
28.0,-255.0,-18.0,-15.0,65.0,-4.0,0
9.0,-249.0,-17.0,-12.0,66.0,-6.0,0
10.0,-249.0,-18.0,-11.0,67.0,-3.0,0
9.0,-249.0,-14.0,-12.0,68.0,-6.0,0
10.0,-252.0,-19.0,-15.0,67.0,-3.0,0
7.0,-253.0,-18.0,-16.0,66.0,-5.0,0
8.0,-250.0,-21.0,-13.0,66.0,-5.0,0
8.0,-252.0,-18.0,-13.0,65.0,-5.0,0
8.0,-249.0,-19.0,-11.0,64.0,-4.0,0
7.0,-252.0,-15.0,-9.0,63.0,-7.0,0
9.0,-252.0,-15.0,-7.0,60.0,-3.0,0
13.0,-249.0,-24.0,-7.0,59.0,-5.0,0
11.0,-252.0,-16.0,-7.0,59.0,-2.0,0
9.0,-252.0,-19.0,-8.0,60.0,-7.0,0
8.0,-250.0,-18.0,-10.0,58.0,-4.0,0
8.0,-253.0,-12.0,-12.0,60.0,-7.0,0
10.0,-251.0,-17.0,-13.0,58.0,-5.0,0
10.0,-251.0,-19.0,-12.0,60.0,-9.0,0
8.0,-250.0,-20.0,-10.0,61.0,-6.0,0
7.0,-248.0,-20.0,-11.0,61.0,-8.0,0
9.0,-251.0,-17.0,-9.0,63.0,-6.0,0
8.0,-252.0,-19.0,-9.0,66.0,-9.0,0
5.0,-253.0,-23.0,-8.0,66.0,-7.0,0
8.0,-254.0,-17.0,-9.0,67.0,-9.0,0
9.0,-253.0,-16.0,-5.0,67.0,-5.0,0
9.0,-251.0,-18.0,-4.0,69.0,-8.0,0
10.0,-252.0,-16.0,-4.0,68.0,-5.0,0
7.0,-252.0,-16.0,-3.0,68.0,-8.0,0
7.0,-248.0,-21.0,-4.0,66.0,-8.0,0
11.0,-251.0,-19.0,-5.0,66.0,-9.0,0
6.0,-251.0,-19.0,-7.0,65.0,-6.0,0
9.0,-246.0,-13.0,-8.0,63.0,-9.0,0
7.0,-244.0,-17.0,-11.0,62.0,-6.0,0
8.0,-251.0,-18.0,-14.0,62.0,-7.0,0
7.0,-253.0,-18.0,-19.0,61.0,-5.0,0
8.0,-251.0,-19.0,-20.0,62.0,-9.0,0
9.0,-253.0,-17.0,-21.0,62.0,-6.0,0
7.0,-253.0,-20.0,-19.0,62.0,-8.0,0
7.0,-251.0,-16.0,-14.0,63.0,-5.0,0
8.0,-250.0,-16.0,-8.0,64.0,-7.0,0
8.0,-255.0,-16.0,-4.0,63.0,-5.0,0
8.0,-251.0,-17.0,1.0,62.0,-8.0,0
11.0,-250.0,-21.0,1.0,60.0,-6.0,0
8.0,-251.0,-29.0,0.0,59.0,-8.0,0
6.0,-251.0,-18.0,-2.0,59.0,-5.0,0
9.0,-251.0,-15.0,-6.0,59.0,-7.0,0
10.0,-254.0,-14.0,-8.0,57.0,-4.0,0
9.0,-251.0,-18.0,-11.0,59.0,-7.0,0
9.0,-250.0,-15.0,-10.0,56.0,-5.0,0
12.0,-251.0,-16.0,-10.0,56.0,-8.0,0
7.0,-254.0,-19.0,-10.0,56.0,-4.0,0
9.0,-253.0,-19.0,-12.0,55.0,-8.0,0
12.0,-254.0,-17.0,-12.0,58.0,-5.0,0
9.0,-250.0,-14.0,-12.0,60.0,-7.0,0
6.0,-247.0,-6.0,-11.0,61.0,-5.0,0
8.0,-251.0,-18.0,-9.0,60.0,-9.0,0
10.0,-252.0,-18.0,-8.0,61.0,-6.0,0
6.0,-251.0,-17.0,-7.0,60.0,-9.0,0
8.0,-248.0,-19.0,-9.0,60.0,-6.0,0
9.0,-252.0,-18.0,-11.0,58.0,-8.0,0
11.0,-253.0,-17.0,-11.0,58.0,-7.0,0
5.0,-251.0,-14.0,-12.0,56.0,-10.0,0
8.0,-253.0,-17.0,-14.0,56.0,-6.0,0
7.0,-249.0,-16.0,-13.0,56.0,-8.0,0
10.0,-249.0,-17.0,-12.0,56.0,-6.0,0
10.0,-262.0,-12.0,-11.0,56.0,-9.0,0
9.0,-249.0,-15.0,-9.0,57.0,-6.0,0
9.0,-252.0,-15.0,-8.0,58.0,-9.0,0
11.0,-251.0,-14.0,-8.0,58.0,-6.0,0
9.0,-250.0,-19.0,-10.0,58.0,-8.0,0
6.0,-252.0,-21.0,-11.0,57.0,-5.0,0
11.0,-254.0,-15.0,-14.0,57.0,-8.0,0
6.0,-254.0,-16.0,-14.0,57.0,-6.0,0
6.0,-256.0,-15.0,-13.0,56.0,-9.0,0
7.0,-252.0,-17.0,-11.0,57.0,-6.0,0
16.0,-255.0,-21.0,-8.0,59.0,-8.0,0
6.0,-252.0,-5.0,-8.0,61.0,-5.0,0
8.0,-249.0,-16.0,-8.0,63.0,-9.0,0
8.0,-250.0,-22.0,-12.0,63.0,-6.0,0
6.0,-250.0,-18.0,-14.0,61.0,-7.0,0
9.0,-250.0,-19.0,-18.0,59.0,-7.0,0
9.0,-248.0,-19.0,-19.0,58.0,-8.0,0
9.0,-250.0,-21.0,-19.0,54.0,-6.0,0
11.0,-254.0,-21.0,-18.0,53.0,-7.0,0
12.0,-252.0,-21.0,-17.0,53.0,-5.0,0
11.0,-250.0,-15.0,-19.0,54.0,-8.0,0
7.0,-250.0,-19.0,-19.0,56.0,-5.0,0
7.0,-242.0,-37.0,-20.0,59.0,-9.0,0
8.0,-253.0,-16.0,-19.0,62.0,-7.0,0
8.0,-252.0,-19.0,-18.0,64.0,-9.0,0
8.0,-255.0,-16.0,-14.0,63.0,-7.0,0
10.0,-254.0,-16.0,-11.0,63.0,-8.0,0
8.0,-253.0,-18.0,-6.0,63.0,-5.0,0
7.0,-249.0,-16.0,-5.0,60.0,-9.0,0
8.0,-254.0,-10.0,-6.0,57.0,-5.0,0
8.0,-249.0,-14.0,-8.0,54.0,-7.0,0
7.0,-249.0,-19.0,-10.0,52.0,-4.0,0
6.0,-256.0,-14.0,-13.0,51.0,-5.0,0
19.0,-258.0,-12.0,-13.0,51.0,-4.0,0
6.0,-250.0,-19.0,-13.0,53.0,-5.0,0
10.0,-250.0,-19.0,-13.0,55.0,-3.0,0
9.0,-251.0,-22.0,-14.0,58.0,-7.0,0
8.0,-252.0,-16.0,-14.0,58.0,-4.0,0
9.0,-251.0,-18.0,-12.0,60.0,-7.0,0
7.0,-253.0,-18.0,-11.0,60.0,-5.0,0
11.0,-249.0,-18.0,-9.0,58.0,-7.0,0
6.0,-251.0,-17.0,-9.0,56.0,-3.0,0
7.0,-254.0,-18.0,-8.0,56.0,-6.0,0
7.0,-254.0,-16.0,-6.0,51.0,-5.0,0
16.0,-241.0,-26.0,-5.0,49.0,-8.0,0
7.0,-254.0,-22.0,-7.0,48.0,-5.0,0
9.0,-253.0,-18.0,-11.0,46.0,-9.0,0
7.0,-250.0,-17.0,-15.0,47.0,-6.0,0
11.0,-251.0,-17.0,-17.0,46.0,-9.0,0
10.0,-252.0,-15.0,-17.0,46.0,-6.0,0
10.0,-252.0,-21.0,-17.0,44.0,-7.0,0
8.0,-250.0,-20.0,-18.0,43.0,-4.0,0
11.0,-252.0,-16.0,-17.0,44.0,-5.0,0
11.0,-247.0,-15.0,-15.0,44.0,-2.0,0
7.0,-249.0,-18.0,-16.0,45.0,-3.0,0
10.0,-249.0,-17.0,-16.0,46.0,-1.0,0
10.0,-252.0,-17.0,-17.0,48.0,-4.0,0
10.0,-250.0,-18.0,-18.0,49.0,-2.0,0
9.0,-251.0,-20.0,-18.0,51.0,-5.0,0
8.0,-250.0,-19.0,-19.0,52.0,-4.0,0
12.0,-252.0,-15.0,-21.0,53.0,-6.0,0
8.0,-251.0,-16.0,-21.0,53.0,-4.0,0
8.0,-252.0,-14.0,-22.0,52.0,-6.0,0
11.0,-252.0,-15.0,-22.0,52.0,-4.0,0
7.0,-254.0,-17.0,-23.0,50.0,-6.0,0
11.0,-254.0,-20.0,-24.0,49.0,-4.0,0
13.0,-245.0,-36.0,-24.0,50.0,-6.0,0
7.0,-252.0,-19.0,-23.0,49.0,-4.0,0
12.0,-252.0,-15.0,-25.0,49.0,-7.0,0
9.0,-251.0,-20.0,-29.0,47.0,-4.0,0
7.0,-249.0,-16.0,-32.0,47.0,-4.0,0
8.0,-253.0,-17.0,-35.0,47.0,-2.0,0
6.0,-248.0,-18.0,-39.0,47.0,-4.0,0
7.0,-249.0,-23.0,-44.0,48.0,-4.0,0
6.0,-251.0,-22.0,-48.0,48.0,-6.0,0
8.0,-251.0,-22.0,-52.0,47.0,-3.0,0
-1.0,-251.0,-26.0,-57.0,45.0,-4.0,0
10.0,-254.0,-20.0,-62.0,45.0,-1.0,0
11.0,-256.0,-22.0,-65.0,45.0,-2.0,0
8.0,-255.0,-24.0,-68.0,45.0,3.0,0
9.0,-257.0,-23.0,-68.0,45.0,2.0,0
11.0,-257.0,-21.0,-69.0,44.0,9.0,0
9.0,-254.0,-23.0,-65.0,41.0,12.0,0
13.0,-255.0,-24.0,-62.0,40.0,20.0,0
10.0,-257.0,-24.0,-59.0,38.0,22.0,0
7.0,-256.0,-21.0,-55.0,37.0,29.0,0
8.0,-254.0,-19.0,-51.0,36.0,32.0,0
11.0,-260.0,-16.0,-46.0,31.0,39.0,0
11.0,-254.0,-20.0,-45.0,30.0,40.0,0
13.0,-254.0,-23.0,-44.0,31.0,43.0,0
13.0,-249.0,-18.0,-45.0,34.0,42.0,0
13.0,-250.0,-24.0,-47.0,38.0,43.0,0
11.0,-250.0,-22.0,-49.0,43.0,39.0,0
8.0,-247.0,-17.0,-50.0,47.0,40.0,0
13.0,-247.0,-19.0,-52.0,51.0,37.0,0
12.0,-245.0,-22.0,-53.0,56.0,39.0,0
11.0,-244.0,-20.0,-56.0,58.0,36.0,0
8.0,-245.0,-14.0,-60.0,62.0,38.0,0
7.0,-228.0,-34.0,-67.0,65.0,34.0,0
8.0,-246.0,-19.0,-77.0,69.0,37.0,0
5.0,-245.0,-14.0,-87.0,73.0,34.0,0
8.0,-243.0,-18.0,-99.0,79.0,33.0,0
9.0,-246.0,-17.0,-111.0,82.0,29.0,0
7.0,-244.0,-19.0,-124.0,84.0,30.0,0
9.0,-247.0,-18.0,-133.0,90.0,27.0,0
7.0,-247.0,-18.0,-144.0,91.0,28.0,0
4.0,-249.0,-20.0,-157.0,91.0,25.0,0
6.0,-247.0,-21.0,-167.0,91.0,26.0,0
2.0,-243.0,-22.0,-181.0,89.0,23.0,0
16.0,-257.0,-22.0,-195.0,91.0,24.0,0
6.0,-249.0,-24.0,-209.0,90.0,21.0,0
5.0,-247.0,-22.0,-225.0,89.0,22.0,0
4.0,-247.0,-25.0,-237.0,89.0,20.0,0
3.0,-249.0,-29.0,-247.0,89.0,22.0,0
4.0,-250.0,-20.0,-255.0,89.0,18.0,0
2.0,-247.0,-27.0,-264.0,89.0,19.0,0
1.0,-243.0,-29.0,-273.0,86.0,16.0,0
6.0,-250.0,-27.0,-284.0,81.0,15.0,0
8.0,-249.0,-30.0,-302.0,78.0,9.0,0
4.0,-250.0,-34.0,-317.0,74.0,7.0,0
3.0,-244.0,-39.0,-324.0,71.0,4.0,0
5.0,-251.0,-37.0,-325.0,69.0,6.0,0
6.0,-251.0,-35.0,-324.0,64.0,5.0,0
6.0,-253.0,-41.0,-320.0,58.0,8.0,0
7.0,-251.0,-45.0,-317.0,54.0,8.0,0
7.0,-252.0,-43.0,-312.0,56.0,12.0,0
5.0,-254.0,-41.0,-305.0,59.0,10.0,0
4.0,-254.0,-42.0,-300.0,65.0,12.0,0
4.0,-255.0,-41.0,-288.0,69.0,11.0,0
7.0,-256.0,-40.0,-279.0,70.0,11.0,0
5.0,-260.0,-40.0,-271.0,72.0,9.0,0
0.0,-261.0,-34.0,-264.0,75.0,9.0,0
6.0,-255.0,-42.0,-261.0,74.0,7.0,0
7.0,-252.0,-43.0,-258.0,71.0,12.0,0
5.0,-248.0,-44.0,-260.0,71.0,12.0,0
3.0,-249.0,-42.0,-263.0,66.0,16.0,0
7.0,-250.0,-43.0,-273.0,64.0,14.0,0
4.0,-250.0,-44.0,-285.0,64.0,14.0,0
6.0,-249.0,-50.0,-293.0,65.0,13.0,0
5.0,-245.0,-38.0,-297.0,67.0,14.0,0
9.0,-247.0,-50.0,-296.0,70.0,11.0,0
6.0,-243.0,-49.0,-289.0,74.0,14.0,0
16.0,-237.0,-52.0,-282.0,75.0,12.0,0
3.0,-243.0,-44.0,-273.0,76.0,14.0,0
6.0,-243.0,-42.0,-268.0,78.0,13.0,0
8.0,-240.0,-43.0,-264.0,78.0,16.0,0
8.0,-240.0,-44.0,-264.0,78.0,14.0,0
8.0,-245.0,-43.0,-272.0,81.0,16.0,0
8.0,-243.0,-46.0,-284.0,81.0,14.0,0
6.0,-241.0,-43.0,-293.0,83.0,18.0,0
8.0,-240.0,-44.0,-299.0,84.0,18.0,0
5.0,-240.0,-46.0,-305.0,84.0,21.0,0
6.0,-238.0,-47.0,-309.0,83.0,21.0,0
11.0,-248.0,-29.0,-313.0,82.0,24.0,0
5.0,-241.0,-50.0,-317.0,80.0,26.0,0
5.0,-240.0,-46.0,-323.0,76.0,31.0,0
6.0,-242.0,-47.0,-328.0,72.0,30.0,0
5.0,-243.0,-47.0,-337.0,72.0,35.0,0
6.0,-243.0,-48.0,-348.0,71.0,35.0,0
7.0,-243.0,-51.0,-355.0,70.0,36.0,0
8.0,-241.0,-54.0,-362.0,70.0,35.0,0
10.0,-239.0,-54.0,-368.0,71.0,37.0,0
6.0,-245.0,-56.0,-376.0,70.0,36.0,0
6.0,-246.0,-54.0,-380.0,70.0,40.0,0
6.0,-252.0,-51.0,-383.0,69.0,38.0,0
8.0,-246.0,-54.0,-383.0,67.0,42.0,0
4.0,-247.0,-58.0,-384.0,68.0,41.0,0
6.0,-246.0,-59.0,-382.0,67.0,43.0,0
5.0,-246.0,-59.0,-381.0,65.0,43.0,0
9.0,-245.0,-58.0,-380.0,61.0,47.0,0
6.0,-242.0,-62.0,-380.0,57.0,46.0,0
6.0,-241.0,-60.0,-381.0,53.0,50.0,0
5.0,-241.0,-64.0,-382.0,47.0,52.0,0
6.0,-243.0,-62.0,-384.0,39.0,55.0,0
-3.0,-244.0,-58.0,-388.0,28.0,55.0,0
1.0,-238.0,-64.0,-394.0,19.0,59.0,0
3.0,-238.0,-66.0,-404.0,11.0,56.0,0
2.0,-240.0,-67.0,-416.0,2.0,58.0,0
1.0,-239.0,-63.0,-428.0,-6.0,54.0,0
0.0,-238.0,-66.0,-437.0,-14.0,56.0,0
1.0,-238.0,-67.0,-442.0,-22.0,53.0,0
0.0,-236.0,-69.0,-444.0,-30.0,52.0,0
2.0,-236.0,-64.0,-448.0,-36.0,50.0,0
3.0,-238.0,-66.0,-446.0,-40.0,51.0,0
5.0,-235.0,-71.0,-442.0,-40.0,48.0,0
3.0,-245.0,-56.0,-439.0,-42.0,49.0,0
5.0,-236.0,-71.0,-437.0,-42.0,47.0,0
5.0,-232.0,-67.0,-439.0,-43.0,46.0,0
7.0,-234.0,-71.0,-446.0,-43.0,42.0,0
6.0,-232.0,-78.0,-460.0,-41.0,40.0,0
8.0,-231.0,-82.0,-479.0,-38.0,33.0,0
7.0,-228.0,-83.0,-504.0,-33.0,31.0,0
6.0,-224.0,-81.0,-528.0,-30.0,24.0,0
8.0,-227.0,-80.0,-544.0,-30.0,23.0,0
5.0,-225.0,-83.0,-554.0,-30.0,17.0,0
10.0,-230.0,-77.0,-559.0,-33.0,19.0,0
4.0,-227.0,-79.0,-554.0,-34.0,12.0,0
8.0,-228.0,-70.0,-552.0,-37.0,7.0,0
-4.0,-222.0,-68.0,-547.0,-39.0,0.0,0
1.0,-220.0,-81.0,-551.0,-42.0,-2.0,0
-2.0,-223.0,-83.0,-558.0,-47.0,-8.0,0
0.0,-218.0,-79.0,-577.0,-52.0,-10.0,0
0.0,-218.0,-83.0,-595.0,-61.0,-13.0,0
-8.0,-219.0,-81.0,-609.0,-67.0,-10.0,0
-6.0,-220.0,-81.0,-622.0,-71.0,-10.0,0
-8.0,-221.0,-83.0,-632.0,-74.0,-9.0,0
-7.0,-222.0,-94.0,-640.0,-71.0,-14.0,0
5.0,-221.0,-97.0,-650.0,-67.0,-15.0,0
1.0,-228.0,-89.0,-669.0,-52.0,-23.0,0
4.0,-228.0,-91.0,-684.0,-39.0,-23.0,0
7.0,-225.0,-91.0,-698.0,-25.0,-27.0,0
9.0,-229.0,-97.0,-710.0,-13.0,-25.0,0
13.0,-229.0,-97.0,-717.0,-2.0,-27.0,0
15.0,-231.0,-94.0,-723.0,5.0,-24.0,0
15.0,-231.0,-97.0,-726.0,9.0,-25.0,0
16.0,-230.0,-96.0,-727.0,11.0,-21.0,0
13.0,-227.0,-99.0,-725.0,6.0,-18.0,0
13.0,-226.0,-98.0,-720.0,3.0,-9.0,0
23.0,-219.0,-104.0,-712.0,1.0,-7.0,0
11.0,-220.0,-93.0,-709.0,4.0,-2.0,0
7.0,-213.0,-89.0,-701.0,9.0,-5.0,0
5.0,-210.0,-92.0,-698.0,12.0,-3.0,0
3.0,-208.0,-94.0,-703.0,8.0,-4.0,0
1.0,-208.0,-92.0,-715.0,0.0,-3.0,0
-5.0,-202.0,-94.0,-737.0,-10.0,-5.0,0
-7.0,-207.0,-93.0,-770.0,-22.0,1.0,0
-14.0,-210.0,-99.0,-807.0,-37.0,1.0,0
-11.0,-216.0,-101.0,-846.0,-53.0,4.0,0
-13.0,-218.0,-95.0,-885.0,-74.0,9.0,0
-14.0,-221.0,-121.0,-905.0,-91.0,18.0,0
-18.0,-233.0,-102.0,-914.0,-108.0,20.0,0
-18.0,-240.0,-100.0,-919.0,-124.0,27.0,0
-16.0,-248.0,-106.0,-915.0,-142.0,27.0,0
-15.0,-248.0,-110.0,-900.0,-161.0,31.0,0
-12.0,-256.0,-113.0,-880.0,-177.0,36.0,0
-10.0,-256.0,-114.0,-859.0,-189.0,48.0,0
-9.0,-256.0,-113.0,-834.0,-202.0,54.0,0
-7.0,-259.0,-112.0,-803.0,-216.0,59.0,0
-8.0,-254.0,-108.0,-750.0,-234.0,52.0,0
-11.0,-255.0,-111.0,-698.0,-257.0,47.0,0
-10.0,-270.0,-102.0,-654.0,-277.0,40.0,0
-10.0,-253.0,-111.0,-629.0,-297.0,42.0,0
-13.0,-245.0,-112.0,-602.0,-314.0,34.0,0
-14.0,-240.0,-114.0,-573.0,-329.0,27.0,0
-14.0,-238.0,-120.0,-550.0,-347.0,15.0,0
-11.0,-233.0,-118.0,-549.0,-359.0,3.0,0
-8.0,-231.0,-117.0,-554.0,-370.0,-12.0,0
-9.0,-227.0,-119.0,-559.0,-376.0,-17.0,0
-9.0,-225.0,-115.0,-561.0,-385.0,-28.0,0
-6.0,-226.0,-111.0,-553.0,-386.0,-30.0,0
-5.0,-223.0,-118.0,-551.0,-388.0,-37.0,0
-4.0,-222.0,-119.0,-557.0,-390.0,-33.0,0
-2.0,-221.0,-117.0,-571.0,-393.0,-30.0,0
0.0,-220.0,-119.0,-590.0,-394.0,-29.0,0
1.0,-221.0,-119.0,-607.0,-398.0,-34.0,0
3.0,-219.0,-115.0,-622.0,-404.0,-29.0,0
-1.0,-216.0,-113.0,-627.0,-406.0,-26.0,0
2.0,-219.0,-115.0,-610.0,-410.0,-20.0,0
-2.0,-222.0,-113.0,-601.0,-408.0,-22.0,0
2.0,-218.0,-115.0,-600.0,-403.0,-25.0,0
0.0,-216.0,-115.0,-590.0,-395.0,-26.0,0
1.0,-216.0,-122.0,-585.0,-386.0,-27.0,0
11.0,-227.0,-111.0,-598.0,-379.0,-32.0,0
4.0,-217.0,-136.0,-629.0,-375.0,-35.0,0
4.0,-215.0,-134.0,-658.0,-368.0,-41.0,0
2.0,-216.0,-135.0,-677.0,-358.0,-38.0,0
5.0,-213.0,-134.0,-687.0,-351.0,-37.0,0
5.0,-215.0,-137.0,-686.0,-341.0,-28.0,0
5.0,-215.0,-133.0,-677.0,-324.0,-17.0,0
10.0,-210.0,-139.0,-661.0,-309.0,-6.0,0
6.0,-210.0,-139.0,-640.0,-291.0,1.0,0
6.0,-220.0,-139.0,-624.0,-278.0,12.0,0
-1.0,-205.0,-143.0,-620.0,-270.0,14.0,0
5.0,-207.0,-132.0,-615.0,-263.0,18.0,0
4.0,-208.0,-129.0,-605.0,-257.0,17.0,0
2.0,-208.0,-137.0,-591.0,-255.0,24.0,0
1.0,-207.0,-130.0,-598.0,-259.0,27.0,0
-5.0,-204.0,-135.0,-604.0,-262.0,31.0,0
-5.0,-200.0,-132.0,-604.0,-263.0,24.0,0
-9.0,-199.0,-136.0,-607.0,-260.0,24.0,0
-9.0,-196.0,-137.0,-608.0,-256.0,20.0,0
-12.0,-199.0,-142.0,-618.0,-251.0,23.0,0
-12.0,-198.0,-138.0,-628.0,-242.0,21.0,0
0.0,-201.0,-152.0,-638.0,-232.0,25.0,0
-11.0,-203.0,-152.0,-655.0,-222.0,19.0,0
-14.0,-204.0,-154.0,-673.0,-209.0,16.0,0
-10.0,-202.0,-158.0,-683.0,-194.0,15.0,0
-2.0,-207.0,-155.0,-687.0,-178.0,21.0,0
-2.0,-208.0,-153.0,-694.0,-163.0,28.0,0
-1.0,-207.0,-156.0,-685.0,-158.0,38.0,0
-4.0,-209.0,-156.0,-670.0,-158.0,41.0,0
-5.0,-210.0,-159.0,-661.0,-162.0,35.0,0
-8.0,-207.0,-154.0,-652.0,-172.0,25.0,0
-7.0,-203.0,-153.0,-636.0,-187.0,30.0,0
-4.0,-188.0,-175.0,-614.0,-199.0,34.0,0
-9.0,-199.0,-147.0,-589.0,-206.0,34.0,0
-12.0,-195.0,-143.0,-558.0,-204.0,19.0,0
-14.0,-193.0,-141.0,-527.0,-196.0,5.0,0
-15.0,-186.0,-146.0,-505.0,-185.0,-9.0,0
-19.0,-183.0,-148.0,-487.0,-172.0,-16.0,0
-17.0,-179.0,-150.0,-500.0,-157.0,-27.0,0
-22.0,-180.0,-148.0,-535.0,-143.0,-26.0,0
-17.0,-179.0,-158.0,-566.0,-135.0,-22.0,0
-22.0,-177.0,-160.0,-598.0,-127.0,-22.0,0
-19.0,-181.0,-148.0,-631.0,-126.0,-19.0,0
-30.0,-175.0,-179.0,-660.0,-126.0,-19.0,0
-14.0,-188.0,-159.0,-690.0,-121.0,-18.0,0
-16.0,-190.0,-168.0,-698.0,-110.0,-2.0,0
-12.0,-193.0,-164.0,-695.0,-96.0,3.0,0
-6.0,-196.0,-165.0,-678.0,-89.0,-6.0,0
-4.0,-202.0,-167.0,-665.0,-90.0,-12.0,0
-7.0,-202.0,-168.0,-671.0,-95.0,-3.0,0
-1.0,-204.0,-163.0,-672.0,-94.0,8.0,0
-5.0,-196.0,-158.0,-648.0,-96.0,4.0,0
-10.0,-194.0,-160.0,-593.0,-96.0,-13.0,0
-9.0,-195.0,-165.0,-538.0,-95.0,-14.0,0
-12.0,-195.0,-166.0,-510.0,-98.0,-1.0,0
-12.0,-192.0,-161.0,-504.0,-100.0,13.0,0
-21.0,-187.0,-162.0,-504.0,-100.0,7.0,0
-15.0,-186.0,-164.0,-501.0,-94.0,12.0,0
-15.0,-182.0,-165.0,-504.0,-87.0,14.0,0
-17.0,-177.0,-164.0,-512.0,-72.0,21.0,0
-21.0,-178.0,-165.0,-526.0,-67.0,28.0,0
-25.0,-168.0,-160.0,-548.0,-57.0,37.0,0
-16.0,-187.0,-169.0,-564.0,-46.0,53.0,0
-19.0,-184.0,-159.0,-610.0,-48.0,58.0,0
-19.0,-184.0,-164.0,-625.0,-47.0,53.0,0
-22.0,-183.0,-157.0,-640.0,-38.0,58.0,0
-26.0,-176.0,-169.0,-650.0,-30.0,63.0,0
-15.0,-191.0,-168.0,-653.0,-38.0,80.0,0
-18.0,-189.0,-164.0,-668.0,-50.0,57.0,0
-21.0,-181.0,-159.0,-662.0,-55.0,40.0,0
-24.0,-183.0,-157.0,-621.0,-53.0,33.0,0
-30.0,-174.0,-156.0,-573.0,-50.0,24.0,0
-22.0,-179.0,-158.0,-535.0,-51.0,18.0,0
-40.0,-156.0,-152.0,-497.0,-47.0,19.0,0
-23.0,-181.0,-165.0,-460.0,-44.0,44.0,0
-27.0,-174.0,-164.0,-478.0,-57.0,43.0,0
-24.0,-187.0,-152.0,-507.0,-60.0,23.0,0
-31.0,-168.0,-167.0,-522.0,-54.0,24.0,0
-29.0,-170.0,-173.0,-530.0,-46.0,32.0,0
-24.0,-172.0,-175.0,-540.0,-43.0,48.0,0
-33.0,-155.0,-168.0,-533.0,-44.0,62.0,0
-19.0,-176.0,-178.0,-494.0,-43.0,99.0,0
-13.0,-181.0,-179.0,-511.0,-53.0,98.0,0
-16.0,-177.0,-176.0,-537.0,-54.0,94.0,0
-15.0,-175.0,-175.0,-545.0,-46.0,101.0,0
-19.0,-164.0,-176.0,-530.0,-50.0,115.0,0
-15.0,-184.0,-174.0,-511.0,-69.0,135.0,0
-27.0,-175.0,-178.0,-505.0,-96.0,129.0,0
-28.0,-181.0,-159.0,-501.0,-119.0,113.0,0
-34.0,-178.0,-156.0,-480.0,-144.0,105.0,0
-49.0,-163.0,-149.0,-436.0,-166.0,100.0,0
-47.0,-172.0,-160.0,-384.0,-185.0,111.0,0
-53.0,-170.0,-149.0,-350.0,-208.0,111.0,0
-57.0,-163.0,-151.0,-323.0,-228.0,109.0,0
-55.0,-159.0,-156.0,-319.0,-246.0,107.0,0
-50.0,-147.0,-158.0,-336.0,-261.0,119.0,0
-51.0,-152.0,-167.0,-349.0,-277.0,125.0,0
-49.0,-151.0,-177.0,-372.0,-288.0,135.0,0
-48.0,-138.0,-184.0,-410.0,-299.0,152.0,0
-26.0,-174.0,-189.0,-438.0,-309.0,182.0,0
-17.0,-176.0,-192.0,-501.0,-317.0,178.0,0
-18.0,-174.0,-193.0,-566.0,-311.0,158.0,0
-16.0,-175.0,-195.0,-594.0,-290.0,136.0,0
-10.0,-183.0,-201.0,-579.0,-266.0,125.0,0
-6.0,-191.0,-196.0,-551.0,-251.0,108.0,0
-13.0,-192.0,-194.0,-510.0,-231.0,90.0,0
-13.0,-192.0,-194.0,-450.0,-211.0,56.0,0
-24.0,-194.0,-187.0,-370.0,-191.0,29.0,0
-34.0,-191.0,-184.0,-298.0,-181.0,3.0,0
-43.0,-203.0,-176.0,-232.0,-175.0,-17.0,0
-49.0,-194.0,-189.0,-184.0,-169.0,-37.0,0
-52.0,-187.0,-192.0,-157.0,-163.0,-50.0,0
-51.0,-185.0,-193.0,-147.0,-164.0,-57.0,0
-54.0,-179.0,-192.0,-150.0,-160.0,-59.0,0
-55.0,-178.0,-201.0,-153.0,-162.0,-54.0,0
-41.0,-178.0,-206.0,-164.0,-167.0,-38.0,0
-37.0,-181.0,-203.0,-199.0,-169.0,-43.0,0
-36.0,-175.0,-203.0,-253.0,-173.0,-44.0,0
-35.0,-177.0,-206.0,-283.0,-179.0,-39.0,0
-11.0,-179.0,-210.0,-295.0,-184.0,-24.0,0
-15.0,-189.0,-212.0,-297.0,-182.0,-30.0,0
-12.0,-188.0,-209.0,-281.0,-168.0,-42.0,0
-16.0,-188.0,-208.0,-249.0,-140.0,-60.0,0
-17.0,-184.0,-207.0,-206.0,-114.0,-71.0,0
-21.0,-191.0,-211.0,-158.0,-98.0,-81.0,0
-25.0,-192.0,-209.0,-132.0,-86.0,-87.0,0
-33.0,-190.0,-211.0,-109.0,-62.0,-111.0,0
-40.0,-188.0,-213.0,-92.0,-41.0,-121.0,0
-48.0,-185.0,-210.0,-75.0,-37.0,-118.0,0
-53.0,-188.0,-214.0,-49.0,-40.0,-98.0,0
-53.0,-179.0,-226.0,-21.0,-42.0,-87.0,0
-58.0,-185.0,-215.0,-3.0,-44.0,-84.0,0
-57.0,-184.0,-211.0,11.0,-47.0,-88.0,0
-48.0,-181.0,-211.0,23.0,-50.0,-91.0,0
-50.0,-177.0,-213.0,32.0,-50.0,-99.0,0
-46.0,-181.0,-213.0,31.0,-48.0,-103.0,0
-49.0,-175.0,-213.0,27.0,-42.0,-114.0,0
-42.0,-177.0,-216.0,18.0,-33.0,-118.0,0
-40.0,-176.0,-214.0,10.0,-19.0,-129.0,0
-36.0,-179.0,-216.0,-1.0,-2.0,-142.0,0
-33.0,-182.0,-215.0,-21.0,7.0,-148.0,0
-51.0,-172.0,-213.0,-38.0,13.0,-144.0,0
-32.0,-179.0,-215.0,-53.0,24.0,-138.0,0
-37.0,-175.0,-216.0,-52.0,30.0,-136.0,0
-38.0,-178.0,-207.0,-50.0,34.0,-135.0,0
-40.0,-175.0,-205.0,-54.0,31.0,-130.0,0
-41.0,-178.0,-206.0,-62.0,31.0,-121.0,0
-47.0,-178.0,-204.0,-76.0,33.0,-115.0,0
-46.0,-173.0,-207.0,-89.0,31.0,-114.0,0
-46.0,-177.0,-203.0,-109.0,30.0,-115.0,0
-50.0,-173.0,-205.0,-138.0,25.0,-123.0,0
-45.0,-173.0,-207.0,-157.0,27.0,-123.0,0
-33.0,-160.0,-221.0,-168.0,40.0,-127.0,0
-43.0,-175.0,-206.0,-183.0,49.0,-128.0,0
-40.0,-175.0,-210.0,-198.0,50.0,-136.0,0
-39.0,-180.0,-211.0,-203.0,54.0,-137.0,0
-37.0,-185.0,-207.0,-207.0,69.0,-133.0,0
-43.0,-183.0,-207.0,-204.0,78.0,-135.0,0
-34.0,-182.0,-213.0,-191.0,78.0,-140.0,0
-36.0,-184.0,-211.0,-178.0,94.0,-144.0,0
-43.0,-178.0,-207.0,-176.0,111.0,-152.0,0
-36.0,-178.0,-207.0,-181.0,111.0,-158.0,0
-32.0,-180.0,-210.0,-190.0,118.0,-146.0,0
-45.0,-180.0,-198.0,-194.0,123.0,-143.0,0
-37.0,-180.0,-212.0,-185.0,123.0,-145.0,0
-47.0,-182.0,-216.0,-163.0,119.0,-141.0,0
-32.0,-182.0,-211.0,-139.0,123.0,-145.0,0
-34.0,-194.0,-214.0,-98.0,136.0,-143.0,0
-33.0,-179.0,-213.0,-58.0,141.0,-170.0,0
-27.0,-182.0,-210.0,-1.0,155.0,-160.0,0
-33.0,-180.0,-213.0,58.0,172.0,-153.0,0
-31.0,-177.0,-211.0,111.0,182.0,-143.0,0
-35.0,-178.0,-204.0,154.0,189.0,-134.0,0
-34.0,-180.0,-207.0,191.0,191.0,-123.0,0
-26.0,-182.0,-217.0,219.0,196.0,-121.0,0
-31.0,-177.0,-218.0,242.0,193.0,-107.0,0
-31.0,-175.0,-221.0,260.0,192.0,-108.0,0
-28.0,-174.0,-219.0,271.0,192.0,-105.0,0
-42.0,-165.0,-214.0,269.0,193.0,-118.0,0
-23.0,-163.0,-222.0,263.0,191.0,-115.0,0
-27.0,-166.0,-220.0,277.0,198.0,-105.0,0
-27.0,-163.0,-221.0,294.0,199.0,-101.0,0
-31.0,-165.0,-215.0,308.0,201.0,-95.0,0
-27.0,-168.0,-215.0,326.0,204.0,-88.0,0
-22.0,-173.0,-210.0,342.0,213.0,-86.0,0
-29.0,-175.0,-217.0,361.0,224.0,-88.0,0
-29.0,-176.0,-209.0,376.0,236.0,-90.0,0
-26.0,-179.0,-207.0,379.0,255.0,-85.0,0
-30.0,-182.0,-207.0,363.0,263.0,-74.0,0
-38.0,-180.0,-205.0,340.0,271.0,-59.0,0
-45.0,-176.0,-210.0,327.0,270.0,-63.0,0
-51.0,-169.0,-206.0,312.0,249.0,-90.0,0
-42.0,-179.0,-207.0,330.0,238.0,-79.0,0
-53.0,-177.0,-217.0,361.0,235.0,-63.0,0
-46.0,-184.0,-209.0,382.0,229.0,-55.0,0
-48.0,-184.0,-212.0,401.0,225.0,-60.0,0
-61.0,-179.0,-201.0,424.0,215.0,-79.0,0
-44.0,-179.0,-218.0,436.0,207.0,-90.0,0
-42.0,-175.0,-213.0,437.0,195.0,-96.0,0
-39.0,-177.0,-217.0,430.0,183.0,-96.0,0
-31.0,-187.0,-216.0,421.0,179.0,-101.0,0
-25.0,-188.0,-213.0,420.0,184.0,-104.0,0
-22.0,-191.0,-210.0,432.0,196.0,-107.0,0
-18.0,-196.0,-204.0,463.0,203.0,-103.0,0
-15.0,-194.0,-208.0,514.0,212.0,-103.0,0
-15.0,-197.0,-206.0,574.0,228.0,-107.0,0
-15.0,-196.0,-206.0,631.0,250.0,-111.0,0
-34.0,-197.0,-199.0,676.0,274.0,-96.0,0
-31.0,-198.0,-199.0,716.0,278.0,-82.0,0
-35.0,-196.0,-200.0,737.0,272.0,-70.0,0
-43.0,-203.0,-200.0,743.0,258.0,-61.0,0
-39.0,-206.0,-201.0,745.0,236.0,-52.0,0
-42.0,-209.0,-208.0,746.0,209.0,-54.0,0
-40.0,-209.0,-209.0,749.0,183.0,-53.0,0
-35.0,-209.0,-203.0,759.0,162.0,-61.0,0
-29.0,-211.0,-204.0,775.0,141.0,-66.0,0
-29.0,-210.0,-203.0,797.0,127.0,-76.0,0
-13.0,-203.0,-216.0,827.0,117.0,-78.0,0
-19.0,-213.0,-200.0,863.0,119.0,-79.0,0
-18.0,-208.0,-205.0,889.0,130.0,-73.0,0
-16.0,-215.0,-200.0,909.0,147.0,-69.0,0
-18.0,-209.0,-205.0,919.0,167.0,-63.0,0
-20.0,-208.0,-206.0,924.0,187.0,-62.0,0
-21.0,-208.0,-200.0,923.0,205.0,-56.0,0
-18.0,-210.0,-202.0,921.0,219.0,-52.0,0
-24.0,-209.0,-203.0,918.0,228.0,-43.0,0
-27.0,-208.0,-202.0,912.0,233.0,-38.0,0
-31.0,-212.0,-203.0,898.0,230.0,-28.0,0
-29.0,-219.0,-191.0,874.0,219.0,-23.0,0
-36.0,-215.0,-206.0,854.0,204.0,-18.0,0
-33.0,-217.0,-207.0,835.0,187.0,-15.0,0
-34.0,-219.0,-206.0,815.0,169.0,-8.0,0
-29.0,-216.0,-208.0,793.0,151.0,-5.0,0
-28.0,-219.0,-210.0,773.0,141.0,3.0,0
-27.0,-220.0,-212.0,754.0,136.0,6.0,0
-20.0,-219.0,-208.0,740.0,138.0,11.0,0
-16.0,-224.0,-206.0,728.0,148.0,13.0,0
-18.0,-221.0,-207.0,710.0,167.0,19.0,0
-15.0,-216.0,-200.0,683.0,182.0,26.0,0
-14.0,-213.0,-204.0,653.0,200.0,34.0,0
-12.0,-218.0,-206.0,623.0,217.0,39.0,0
-12.0,-223.0,-201.0,597.0,233.0,48.0,0
-16.0,-219.0,-204.0,572.0,246.0,50.0,0
-15.0,-219.0,-203.0,552.0,253.0,57.0,0
-16.0,-219.0,-203.0,533.0,255.0,60.0,0
-15.0,-224.0,-201.0,516.0,257.0,65.0,0
-16.0,-225.0,-204.0,503.0,259.0,67.0,0
-18.0,-226.0,-203.0,496.0,259.0,70.0,0
-24.0,-220.0,-207.0,491.0,254.0,67.0,0
-21.0,-223.0,-201.0,490.0,249.0,62.0,0
-24.0,-231.0,-197.0,491.0,243.0,53.0,0
-20.0,-221.0,-202.0,493.0,238.0,43.0,0
-16.0,-220.0,-198.0,497.0,233.0,31.0,0
-16.0,-215.0,-197.0,501.0,230.0,24.0,0
-15.0,-213.0,-196.0,504.0,229.0,15.0,0
-12.0,-212.0,-192.0,506.0,230.0,12.0,0
-12.0,-210.0,-186.0,506.0,238.0,7.0,0
-14.0,-211.0,-185.0,502.0,248.0,6.0,0
-16.0,-210.0,-180.0,493.0,248.0,3.0,0
-18.0,-215.0,-177.0,486.0,243.0,5.0,0
-17.0,-222.0,-177.0,481.0,236.0,3.0,0
-10.0,-232.0,-165.0,482.0,232.0,2.0,0
-16.0,-233.0,-166.0,486.0,236.0,-2.0,0
-13.0,-241.0,-165.0,491.0,237.0,-9.0,0
-14.0,-244.0,-165.0,497.0,235.0,-20.0,0
-17.0,-250.0,-164.0,506.0,226.0,-29.0,0
-14.0,-256.0,-163.0,520.0,214.0,-41.0,0
-16.0,-259.0,-159.0,535.0,200.0,-52.0,0
-15.0,-264.0,-157.0,565.0,193.0,-61.0,0
-20.0,-272.0,-142.0,593.0,181.0,-69.0,0
-17.0,-271.0,-144.0,628.0,170.0,-77.0,0
-14.0,-274.0,-146.0,663.0,160.0,-86.0,0
-15.0,-294.0,-136.0,699.0,144.0,-96.0,0
-15.0,-275.0,-139.0,730.0,131.0,-103.0,0
-15.0,-274.0,-136.0,761.0,125.0,-112.0,0
-9.0,-264.0,-139.0,795.0,124.0,-121.0,0
-5.0,-263.0,-132.0,825.0,128.0,-131.0,0
1.0,-256.0,-129.0,857.0,138.0,-147.0,0
-1.0,-250.0,-127.0,904.0,149.0,-161.0,0
0.0,-240.0,-122.0,943.0,153.0,-172.0,0
-1.0,-230.0,-116.0,974.0,158.0,-180.0,0
-6.0,-227.0,-106.0,994.0,159.0,-182.0,0
-4.0,-222.0,-107.0,1013.0,154.0,-180.0,0
-6.0,-237.0,-83.0,1019.0,147.0,-176.0,0
-14.0,-216.0,-87.0,1028.0,136.0,-173.0,0
-12.0,-222.0,-87.0,1031.0,120.0,-165.0,0
-16.0,-221.0,-80.0,1021.0,90.0,-165.0,0
-16.0,-218.0,-79.0,995.0,51.0,-163.0,0
-16.0,-229.0,-77.0,961.0,19.0,-161.0,0
-19.0,-227.0,-79.0,940.0,-4.0,-159.0,0
-15.0,-238.0,-81.0,928.0,-20.0,-158.0,0
-13.0,-245.0,-76.0,923.0,-24.0,-159.0,0
-7.0,-249.0,-77.0,929.0,-17.0,-163.0,0
2.0,-257.0,-74.0,951.0,0.0,-172.0,0
-4.0,-276.0,-70.0,987.0,18.0,-177.0,0
1.0,-268.0,-76.0,1034.0,38.0,-178.0,0
1.0,-269.0,-78.0,1087.0,59.0,-176.0,0
3.0,-268.0,-79.0,1142.0,77.0,-176.0,0
0.0,-269.0,-80.0,1208.0,93.0,-175.0,0
-1.0,-262.0,-80.0,1255.0,105.0,-171.0,0
0.0,-257.0,-81.0,1284.0,114.0,-166.0,0
-7.0,-251.0,-78.0,1296.0,116.0,-158.0,0
-7.0,-247.0,-78.0,1288.0,110.0,-148.0,0
-11.0,-237.0,-78.0,1260.0,91.0,-138.0,0
-10.0,-227.0,-97.0,1219.0,70.0,-131.0,0
-8.0,-227.0,-79.0,1166.0,54.0,-121.0,0
-6.0,-225.0,-81.0,1107.0,40.0,-113.0,0
-7.0,-222.0,-88.0,1049.0,38.0,-104.0,0
0.0,-224.0,-89.0,979.0,44.0,-96.0,0
1.0,-225.0,-86.0,930.0,53.0,-91.0,0
-1.0,-226.0,-86.0,891.0,65.0,-91.0,0
4.0,-231.0,-85.0,856.0,78.0,-86.0,0
4.0,-232.0,-81.0,826.0,89.0,-84.0,0
4.0,-231.0,-84.0,803.0,101.0,-80.0,0
6.0,-229.0,-90.0,782.0,114.0,-81.0,0
6.0,-230.0,-82.0,765.0,128.0,-79.0,0
2.0,-239.0,-79.0,747.0,144.0,-74.0,0
3.0,-242.0,-79.0,724.0,149.0,-65.0,0
2.0,-246.0,-76.0,698.0,154.0,-67.0,0
5.0,-250.0,-70.0,679.0,159.0,-72.0,0
7.0,-248.0,-70.0,663.0,163.0,-79.0,0
9.0,-250.0,-69.0,649.0,164.0,-82.0,0
12.0,-252.0,-71.0,641.0,167.0,-80.0,0
13.0,-248.0,-69.0,636.0,166.0,-75.0,0
7.0,-249.0,-65.0,634.0,166.0,-70.0,0
6.0,-250.0,-63.0,629.0,167.0,-63.0,0
2.0,-242.0,-57.0,619.0,162.0,-58.0,0
6.0,-246.0,-61.0,606.0,155.0,-52.0,0
5.0,-242.0,-60.0,591.0,153.0,-46.0,0
7.0,-241.0,-56.0,584.0,151.0,-44.0,0
8.0,-241.0,-57.0,582.0,159.0,-47.0,0
4.0,-244.0,-55.0,581.0,171.0,-48.0,0
7.0,-244.0,-56.0,584.0,181.0,-51.0,0
4.0,-244.0,-51.0,589.0,191.0,-55.0,0
0.0,-244.0,-52.0,587.0,206.0,-60.0,0
5.0,-240.0,-50.0,583.0,211.0,-59.0,0
1.0,-244.0,-50.0,573.0,217.0,-58.0,0
-9.0,-242.0,-31.0,559.0,222.0,-54.0,0
1.0,-243.0,-47.0,534.0,224.0,-48.0,0
0.0,-245.0,-48.0,510.0,222.0,-41.0,0
1.0,-244.0,-51.0,484.0,224.0,-34.0,0
0.0,-243.0,-51.0,453.0,225.0,-28.0,0
-2.0,-248.0,-47.0,424.0,221.0,-24.0,0
-4.0,-250.0,-48.0,399.0,217.0,-21.0,0
-3.0,-255.0,-47.0,382.0,207.0,-18.0,0
0.0,-254.0,-43.0,380.0,199.0,-16.0,0
-5.0,-254.0,-43.0,388.0,195.0,-17.0,0
-2.0,-252.0,-41.0,405.0,192.0,-17.0,0
-11.0,-238.0,-51.0,426.0,186.0,-17.0,0
-8.0,-253.0,-38.0,443.0,180.0,-21.0,0
-4.0,-245.0,-40.0,450.0,176.0,-23.0,0
-3.0,-243.0,-43.0,445.0,170.0,-25.0,0
-2.0,-244.0,-42.0,423.0,169.0,-26.0,0
-6.0,-237.0,-43.0,391.0,168.0,-23.0,0
-2.0,-241.0,-37.0,349.0,168.0,-23.0,0
-4.0,-238.0,-40.0,306.0,170.0,-19.0,0
-5.0,-245.0,-39.0,265.0,168.0,-19.0,0
-2.0,-244.0,-44.0,230.0,166.0,-17.0,0
1.0,-249.0,-46.0,203.0,160.0,-13.0,0
-11.0,-243.0,-46.0,195.0,156.0,-9.0,0
-1.0,-255.0,-44.0,200.0,151.0,-6.0,0
2.0,-258.0,-43.0,210.0,150.0,-7.0,0
0.0,-256.0,-47.0,225.0,152.0,-5.0,0
1.0,-255.0,-41.0,238.0,153.0,-7.0,0
0.0,-253.0,-46.0,244.0,155.0,-9.0,0
2.0,-251.0,-48.0,245.0,158.0,-8.0,0
-2.0,-249.0,-43.0,238.0,159.0,-8.0,0
-3.0,-247.0,-46.0,222.0,162.0,-12.0,0
2.0,-247.0,-46.0,196.0,164.0,-9.0,0
-3.0,-246.0,-43.0,172.0,166.0,-6.0,0
-2.0,-242.0,-42.0,154.0,167.0,-4.0,0
-5.0,-250.0,-44.0,138.0,167.0,-1.0,0
-6.0,-253.0,-41.0,126.0,167.0,3.0,0
-8.0,-249.0,-39.0,120.0,165.0,8.0,0
-4.0,-251.0,-43.0,118.0,163.0,11.0,0
-7.0,-251.0,-43.0,116.0,160.0,14.0,0
-8.0,-251.0,-37.0,112.0,157.0,16.0,0
-9.0,-246.0,-38.0,109.0,155.0,16.0,0
-4.0,-249.0,-37.0,103.0,154.0,18.0,0
-7.0,-251.0,-29.0,95.0,152.0,18.0,0
-8.0,-248.0,-29.0,86.0,149.0,17.0,0
3.0,-245.0,-32.0,76.0,145.0,17.0,0
-2.0,-249.0,-22.0,67.0,139.0,18.0,0
-5.0,-247.0,-24.0,62.0,133.0,19.0,0
-3.0,-246.0,-22.0,55.0,131.0,18.0,0
0.0,-243.0,-22.0,43.0,131.0,18.0,0
-2.0,-242.0,-22.0,31.0,135.0,16.0,0
-1.0,-240.0,-21.0,16.0,139.0,16.0,0
-2.0,-240.0,-16.0,-3.0,141.0,16.0,0
-1.0,-242.0,-21.0,-17.0,141.0,21.0,0
2.0,-244.0,-27.0,-26.0,138.0,21.0,0
-9.0,-248.0,-27.0,-32.0,133.0,21.0,0
0.0,-249.0,-24.0,-35.0,129.0,21.0,0
0.0,-253.0,-29.0,-35.0,124.0,20.0,0
-3.0,-255.0,-28.0,-31.0,119.0,17.0,0
-1.0,-256.0,-35.0,-22.0,112.0,13.0,0
0.0,-253.0,-44.0,-13.0,106.0,8.0,0
-2.0,-251.0,-46.0,-5.0,95.0,1.0,0
-4.0,-249.0,-51.0,3.0,86.0,-5.0,0
-9.0,-253.0,-55.0,10.0,78.0,-10.0,0
-5.0,-255.0,-53.0,16.0,73.0,-11.0,0
-5.0,-259.0,-53.0,19.0,76.0,-8.0,0
6.0,-266.0,-45.0,20.0,82.0,-2.0,0
4.0,-269.0,-41.0,25.0,80.0,1.0,0
6.0,-272.0,-43.0,43.0,75.0,1.0,0
7.0,-272.0,-37.0,74.0,63.0,2.0,0
5.0,-268.0,-36.0,114.0,48.0,2.0,0
6.0,-261.0,-36.0,157.0,29.0,5.0,0
7.0,-256.0,-36.0,202.0,20.0,10.0,0
8.0,-248.0,-41.0,223.0,14.0,13.0,0
4.0,-248.0,-38.0,233.0,12.0,17.0,0
8.0,-244.0,-37.0,234.0,13.0,17.0,0
12.0,-248.0,-31.0,226.0,17.0,16.0,0
-2.0,-247.0,-45.0,213.0,24.0,10.0,0
2.0,-250.0,-40.0,200.0,27.0,3.0,0
4.0,-248.0,-34.0,192.0,31.0,-5.0,0
2.0,-251.0,-36.0,189.0,33.0,-15.0,0
4.0,-251.0,-32.0,189.0,27.0,-23.0,0
3.0,-247.0,-32.0,186.0,18.0,-22.0,0
1.0,-248.0,-32.0,178.0,7.0,-19.0,0
5.0,-252.0,-31.0,159.0,-2.0,-13.0,0
4.0,-246.0,-32.0,134.0,-6.0,-9.0,0
0.0,-244.0,-33.0,102.0,-12.0,-3.0,0
1.0,-243.0,-32.0,69.0,-17.0,-1.0,0
-3.0,-251.0,-14.0,37.0,-16.0,2.0,0
-2.0,-247.0,-29.0,6.0,-11.0,3.0,0
-5.0,-244.0,-30.0,-17.0,-4.0,2.0,0
-5.0,-249.0,-25.0,-32.0,5.0,1.0,0
-6.0,-247.0,-25.0,-37.0,12.0,0.0,0
-7.0,-247.0,-24.0,-31.0,17.0,-5.0,0
-9.0,-252.0,-25.0,-24.0,20.0,-6.0,0
-7.0,-253.0,-24.0,-14.0,19.0,-8.0,0
-9.0,-255.0,-25.0,-6.0,19.0,-9.0,0
-11.0,-254.0,-31.0,2.0,20.0,-9.0,0
-9.0,-255.0,-33.0,9.0,20.0,-7.0,0
-14.0,-252.0,-36.0,15.0,19.0,-7.0,0
-5.0,-256.0,-26.0,23.0,19.0,-9.0,0
-7.0,-256.0,-22.0,30.0,18.0,-13.0,0
-4.0,-255.0,-27.0,39.0,15.0,-13.0,0
-6.0,-255.0,-27.0,46.0,13.0,-15.0,0
-4.0,-253.0,-23.0,51.0,12.0,-17.0,0
-5.0,-252.0,-24.0,56.0,13.0,-17.0,0
-1.0,-252.0,-22.0,61.0,15.0,-18.0,0
-2.0,-250.0,-25.0,68.0,20.0,-18.0,0
-2.0,-251.0,-27.0,74.0,23.0,-15.0,0
-1.0,-247.0,-26.0,76.0,27.0,-14.0,0
9.0,-255.0,-19.0,78.0,30.0,-16.0,0
5.0,-250.0,-25.0,78.0,38.0,-16.0,0
6.0,-252.0,-24.0,82.0,43.0,-16.0,0
7.0,-251.0,-28.0,83.0,46.0,-16.0,0
3.0,-250.0,-26.0,79.0,47.0,-14.0,0
6.0,-252.0,-29.0,74.0,49.0,-15.0,0
5.0,-254.0,-26.0,64.0,51.0,-12.0,0
7.0,-254.0,-29.0,53.0,52.0,-14.0,0
2.0,-252.0,-29.0,44.0,53.0,-13.0,0
4.0,-253.0,-33.0,36.0,50.0,-14.0,0
3.0,-250.0,-30.0,31.0,49.0,-14.0,0
-1.0,-251.0,-22.0,26.0,49.0,-15.0,0
4.0,-248.0,-29.0,20.0,50.0,-12.0,0
4.0,-250.0,-31.0,16.0,50.0,-14.0,0
1.0,-248.0,-27.0,12.0,50.0,-13.0,0
0.0,-252.0,-28.0,7.0,51.0,-10.0,0
2.0,-253.0,-30.0,4.0,50.0,-8.0,0
0.0,-253.0,-28.0,-2.0,49.0,-7.0,0
-3.0,-249.0,-27.0,-5.0,49.0,-4.0,0
0.0,-249.0,-27.0,-9.0,49.0,-3.0,0
-1.0,-248.0,-31.0,-11.0,50.0,-4.0,0
-2.0,-254.0,-25.0,-8.0,50.0,-4.0,0
11.0,-257.0,-25.0,-7.0,50.0,-5.0,0
9.0,-242.0,-49.0,-6.0,50.0,-9.0,0
-2.0,-268.0,-21.0,-6.0,50.0,-10.0,0
-17.0,-247.0,-23.0,-5.0,50.0,-13.0,0
1.0,-252.0,-30.0,-9.0,50.0,-13.0,0
-1.0,-253.0,-21.0,-10.0,48.0,-14.0,0
-11.0,-235.0,-40.0,-12.0,49.0,-12.0,0
-10.0,-241.0,-44.0,-12.0,48.0,-13.0,0
-7.0,-264.0,6.0,-11.0,46.0,-12.0,0
-4.0,-239.0,-36.0,-7.0,44.0,-13.0,0
-1.0,-255.0,-22.0,0.0,41.0,-11.0,0
-10.0,-258.0,-7.0,8.0,39.0,-12.0,0
5.0,-251.0,-16.0,17.0,38.0,-10.0,0
-9.0,-275.0,-21.0,28.0,38.0,-10.0,0
3.0,-254.0,-33.0,36.0,39.0,-9.0,0
-7.0,-252.0,-42.0,43.0,40.0,-10.0,0
-4.0,-252.0,-21.0,48.0,41.0,-9.0,0
-1.0,-248.0,-38.0,49.0,42.0,-8.0,0
0.0,-249.0,-29.0,46.0,42.0,-7.0,0
0.0,-248.0,-30.0,39.0,44.0,-8.0,0
-1.0,-246.0,-25.0,32.0,46.0,-8.0,0
-2.0,-247.0,-28.0,24.0,50.0,-9.0,0
3.0,-243.0,-29.0,17.0,53.0,-7.0,0
-1.0,-249.0,-27.0,14.0,55.0,-10.0,0
-1.0,-255.0,-26.0,14.0,57.0,-11.0,0
0.0,-254.0,-24.0,14.0,57.0,-12.0,0
-3.0,-252.0,-30.0,17.0,55.0,-12.0,0
-7.0,-258.0,-20.0,17.0,54.0,-12.0,0
-1.0,-253.0,-21.0,19.0,54.0,-10.0,0
-3.0,-254.0,-26.0,19.0,54.0,-9.0,0
0.0,-249.0,-30.0,19.0,55.0,-4.0,0
-2.0,-255.0,-25.0,19.0,53.0,-3.0,0
1.0,-254.0,-34.0,21.0,54.0,2.0,0
-1.0,-253.0,-29.0,23.0,54.0,2.0,0
-2.0,-254.0,-30.0,26.0,54.0,3.0,0
-3.0,-253.0,-26.0,31.0,51.0,3.0,0
1.0,-255.0,-29.0,40.0,49.0,3.0,0
-1.0,-255.0,-28.0,51.0,47.0,3.0,0
-1.0,-255.0,-31.0,61.0,45.0,0.0,0
-1.0,-251.0,-30.0,74.0,47.0,-3.0,0
-2.0,-254.0,-28.0,83.0,46.0,-5.0,0
-2.0,-254.0,-29.0,91.0,45.0,-8.0,0
-3.0,-247.0,-18.0,95.0,44.0,-8.0,0
-3.0,-252.0,-20.0,95.0,41.0,-11.0,0
1.0,-251.0,-24.0,91.0,39.0,-10.0,0
-1.0,-246.0,-23.0,83.0,35.0,-11.0,0
1.0,-246.0,-24.0,71.0,32.0,-9.0,0
0.0,-243.0,-24.0,57.0,27.0,-9.0,0
2.0,-245.0,-22.0,41.0,23.0,-7.0,0
-3.0,-245.0,-21.0,16.0,21.0,-8.0,0
0.0,-242.0,-18.0,-5.0,18.0,-4.0,0
-3.0,-247.0,-19.0,-24.0,16.0,-4.0,0
-1.0,-249.0,-19.0,-42.0,14.0,-1.0,0
1.0,-249.0,-20.0,-56.0,13.0,-4.0,0
-6.0,-253.0,-21.0,-63.0,12.0,-2.0,0
-1.0,-251.0,-23.0,-68.0,13.0,-6.0,0
0.0,-252.0,-19.0,-68.0,16.0,-7.0,0
-1.0,-254.0,-20.0,-66.0,20.0,-11.0,0
1.0,-253.0,-21.0,-62.0,24.0,-11.0,0
-2.0,-253.0,-24.0,-57.0,29.0,-14.0,0
0.0,-252.0,-23.0,-53.0,33.0,-12.0,0
2.0,-253.0,-26.0,-48.0,38.0,-13.0,0
1.0,-254.0,-22.0,-43.0,44.0,-12.0,0
-3.0,-253.0,-20.0,-41.0,48.0,-13.0,0
2.0,-264.0,-22.0,-38.0,53.0,-11.0,0
1.0,-243.0,-24.0,-36.0,59.0,-14.0,0
1.0,-252.0,-23.0,-35.0,60.0,-14.0,0
0.0,-254.0,-23.0,-35.0,62.0,-16.0,0
0.0,-252.0,-27.0,-34.0,62.0,-17.0,0
2.0,-250.0,-25.0,-31.0,62.0,-22.0,0
2.0,-252.0,-29.0,-32.0,62.0,-21.0,0
1.0,-250.0,-27.0,-32.0,63.0,-23.0,0
2.0,-250.0,-22.0,-33.0,62.0,-20.0,0
-1.0,-254.0,-26.0,-34.0,64.0,-21.0,0
-3.0,-253.0,-28.0,-38.0,65.0,-18.0,0
0.0,-251.0,-24.0,-42.0,65.0,-17.0,0
4.0,-252.0,-28.0,-45.0,65.0,-14.0,0
0.0,-250.0,-32.0,-47.0,65.0,-13.0,0
-4.0,-251.0,-30.0,-48.0,63.0,-11.0,0
-1.0,-252.0,-29.0,-48.0,64.0,-14.0,0
1.0,-252.0,-27.0,-49.0,63.0,-11.0,0
1.0,-252.0,-31.0,-49.0,64.0,-15.0,0
1.0,-253.0,-26.0,-47.0,63.0,-15.0,0
0.0,-250.0,-25.0,-47.0,63.0,-17.0,0
5.0,-250.0,-31.0,-46.0,61.0,-15.0,0
1.0,-251.0,-26.0,-41.0,59.0,-16.0,0
3.0,-255.0,-28.0,-39.0,59.0,-13.0,0
5.0,-266.0,-16.0,-35.0,59.0,-15.0,0
1.0,-255.0,-25.0,-31.0,61.0,-15.0,0
0.0,-250.0,-26.0,-28.0,62.0,-18.0,0
-1.0,-251.0,-25.0,-26.0,63.0,-16.0,0
1.0,-251.0,-28.0,-26.0,61.0,-16.0,0
2.0,-252.0,-28.0,-31.0,64.0,-14.0,0
-2.0,-249.0,-26.0,-32.0,66.0,-14.0,0
4.0,-250.0,-26.0,-35.0,65.0,-11.0,0
-4.0,-253.0,-23.0,-34.0,64.0,-11.0,0
-2.0,-253.0,-24.0,-35.0,63.0,-8.0,0
0.0,-254.0,-28.0,-31.0,61.0,-8.0,0
1.0,-251.0,-24.0,-29.0,60.0,-5.0,0
-2.0,-246.0,-24.0,-28.0,58.0,-8.0,0
9.0,-245.0,-22.0,-25.0,59.0,-5.0,0
-1.0,-254.0,-24.0,-24.0,57.0,-6.0,0
-1.0,-252.0,-24.0,-22.0,56.0,-6.0,0
0.0,-254.0,-28.0,-21.0,55.0,-9.0,0
-1.0,-256.0,-30.0,-18.0,57.0,-7.0,0
1.0,-254.0,-25.0,-15.0,57.0,-11.0,0
1.0,-252.0,-23.0,-12.0,59.0,-11.0,0
-1.0,-253.0,-28.0,-10.0,59.0,-13.0,0
-3.0,-253.0,-23.0,-7.0,59.0,-11.0,0
-2.0,-256.0,-24.0,-4.0,58.0,-13.0,0
0.0,-250.0,-24.0,-3.0,59.0,-10.0,0
-1.0,-251.0,-29.0,-5.0,58.0,-10.0,0
1.0,-251.0,-24.0,-8.0,56.0,-7.0,0
0.0,-251.0,-26.0,-11.0,57.0,-6.0,0
-1.0,-252.0,-27.0,-13.0,55.0,-4.0,0
-1.0,-251.0,-24.0,-13.0,53.0,-2.0,0
2.0,-254.0,-26.0,-12.0,52.0,-1.0,0
-2.0,-255.0,-28.0,-9.0,52.0,-3.0,0
1.0,-253.0,-26.0,-4.0,50.0,-5.0,0
-6.0,-250.0,-25.0,0.0,50.0,-9.0,0
-2.0,-252.0,-24.0,5.0,51.0,-10.0,0
-2.0,-248.0,-25.0,5.0,51.0,-15.0,0
1.0,-250.0,-25.0,3.0,53.0,-14.0,0
-1.0,-248.0,-26.0,-1.0,53.0,-15.0,0
0.0,-246.0,-29.0,-7.0,54.0,-13.0,0
-2.0,-248.0,-26.0,-16.0,52.0,-11.0,0
4.0,-251.0,-27.0,-21.0,54.0,-9.0,0
-4.0,-248.0,-25.0,-22.0,54.0,-10.0,0
-4.0,-252.0,-24.0,-20.0,54.0,-7.0,0
0.0,-254.0,-27.0,-16.0,55.0,-8.0,0
-2.0,-250.0,-41.0,-10.0,53.0,-7.0,0
-1.0,-254.0,-27.0,-3.0,53.0,-9.0,0
1.0,-253.0,-29.0,6.0,52.0,-5.0,0
0.0,-252.0,-27.0,12.0,49.0,-8.0,0
2.0,-251.0,-29.0,14.0,47.0,-5.0,0
2.0,-254.0,-24.0,15.0,48.0,-6.0,0
2.0,-251.0,-25.0,13.0,48.0,-5.0,0
3.0,-250.0,-28.0,10.0,48.0,-8.0,0
1.0,-249.0,-24.0,4.0,47.0,-7.0,0
0.0,-249.0,-31.0,-1.0,47.0,-11.0,0
1.0,-253.0,-31.0,-5.0,46.0,-9.0,0
-2.0,-245.0,-27.0,-7.0,46.0,-10.0,0
1.0,-250.0,-29.0,-7.0,46.0,-7.0,0
3.0,-252.0,-29.0,-6.0,48.0,-8.0,0
2.0,-253.0,-25.0,-5.0,47.0,-8.0,0
1.0,-254.0,-29.0,-1.0,49.0,-11.0,0
2.0,-252.0,-26.0,0.0,51.0,-6.0,0
2.0,-252.0,-25.0,-2.0,51.0,-8.0,0
2.0,-249.0,-25.0,-4.0,53.0,-5.0,0
0.0,-250.0,-26.0,-9.0,53.0,-6.0,0
3.0,-251.0,-24.0,-11.0,52.0,-4.0,0
2.0,-251.0,-25.0,-14.0,50.0,-5.0,0
-6.0,-259.0,-14.0,-16.0,51.0,-2.0,0
1.0,-251.0,-27.0,-17.0,50.0,-2.0,0
-2.0,-249.0,-26.0,-17.0,49.0,-2.0,0
-2.0,-252.0,-23.0,-14.0,49.0,-3.0,0
3.0,-252.0,-23.0,-13.0,49.0,-3.0,0
0.0,-250.0,-25.0,-12.0,47.0,-5.0,0
-1.0,-252.0,-24.0,-12.0,49.0,-4.0,0
1.0,-254.0,-30.0,-10.0,49.0,-6.0,0
0.0,-250.0,-17.0,-8.0,50.0,-3.0,0
3.0,-251.0,-28.0,-10.0,51.0,-5.0,0
-4.0,-248.0,-26.0,-9.0,52.0,-3.0,0
-5.0,-239.0,-38.0,-6.0,52.0,-5.0,0
3.0,-253.0,-23.0,-7.0,52.0,-4.0,0
3.0,-255.0,-25.0,-6.0,55.0,-7.0,0
1.0,-253.0,-27.0,-5.0,54.0,-4.0,0
2.0,-253.0,-25.0,-1.0,55.0,-8.0,0
0.0,-254.0,-28.0,0.0,58.0,-6.0,0
0.0,-251.0,-26.0,-1.0,58.0,-9.0,0
-5.0,-249.0,-22.0,-2.0,58.0,-7.0,0
-1.0,-250.0,-25.0,-4.0,56.0,-8.0,0
1.0,-251.0,-25.0,-6.0,55.0,-7.0,0
0.0,-251.0,-26.0,-10.0,54.0,-8.0,0
4.0,-245.0,-47.0,-13.0,53.0,-4.0,0
2.0,-252.0,-24.0,-15.0,52.0,-5.0,0
-1.0,-251.0,-23.0,-16.0,52.0,-4.0,0
-1.0,-253.0,-26.0,-17.0,52.0,-7.0,0
-1.0,-255.0,-23.0,-15.0,52.0,-7.0,0
-2.0,-250.0,-26.0,-14.0,53.0,-8.0,0
-1.0,-251.0,-27.0,-12.0,54.0,-6.0,0
0.0,-253.0,-24.0,-13.0,54.0,-7.0,0
4.0,-255.0,-30.0,-16.0,54.0,-5.0,0
0.0,-251.0,-24.0,-18.0,54.0,-8.0,0
0.0,-251.0,-24.0,-18.0,55.0,-5.0,0
-8.0,-244.0,-21.0,-19.0,56.0,-7.0,0
0.0,-253.0,-23.0,-18.0,55.0,-5.0,0
-2.0,-252.0,-27.0,-19.0,56.0,-6.0,0
-1.0,-250.0,-24.0,-19.0,54.0,-3.0,0
-2.0,-252.0,-22.0,-16.0,54.0,-4.0,0
3.0,-252.0,-25.0,-16.0,56.0,-3.0,0
0.0,-255.0,-29.0,-13.0,55.0,-4.0,0
2.0,-253.0,-27.0,-11.0,55.0,-3.0,0
1.0,-252.0,-25.0,-9.0,57.0,-7.0,0
3.0,-253.0,-28.0,-6.0,59.0,-6.0,0
1.0,-254.0,-23.0,-4.0,62.0,-8.0,0
-2.0,-243.0,-32.0,-3.0,62.0,-8.0,0
-1.0,-249.0,-26.0,-1.0,63.0,-9.0,0
0.0,-249.0,-23.0,0.0,63.0,-6.0,0
0.0,-250.0,-23.0,-1.0,62.0,-9.0,0
0.0,-251.0,-28.0,-5.0,62.0,-7.0,0
0.0,-246.0,-25.0,-11.0,60.0,-8.0,0
1.0,-250.0,-24.0,-16.0,60.0,-4.0,0
-4.0,-248.0,-22.0,-23.0,59.0,-5.0,0
1.0,-250.0,-22.0,-25.0,57.0,-2.0,0
0.0,-253.0,-26.0,-25.0,57.0,-4.0,0
-1.0,-256.0,-25.0,-23.0,57.0,-2.0,0
2.0,-249.0,-43.0,-23.0,58.0,-3.0,0
0.0,-255.0,-23.0,-16.0,59.0,-3.0,0
0.0,-255.0,-26.0,-11.0,61.0,-5.0,0
1.0,-252.0,-26.0,-7.0,62.0,-4.0,0
-1.0,-251.0,-27.0,-5.0,63.0,-8.0,0
0.0,-250.0,-27.0,-3.0,60.0,-7.0,0
4.0,-251.0,-25.0,-4.0,58.0,-10.0,0
0.0,-252.0,-29.0,-4.0,58.0,-6.0,0
1.0,-255.0,-28.0,-5.0,58.0,-7.0,0
2.0,-254.0,-24.0,-4.0,59.0,-6.0,0
-8.0,-249.0,-29.0,-3.0,61.0,-7.0,0
3.0,-254.0,-27.0,-1.0,60.0,-6.0,0
0.0,-253.0,-21.0,0.0,59.0,-5.0,0
2.0,-254.0,-22.0,4.0,59.0,-2.0,0
1.0,-255.0,-24.0,7.0,59.0,-4.0,0
0.0,-255.0,-25.0,9.0,57.0,-2.0,0
-1.0,-251.0,-24.0,11.0,56.0,-4.0,0
0.0,-254.0,-26.0,13.0,56.0,-3.0,0
2.0,-250.0,-25.0,14.0,57.0,-6.0,0
1.0,-249.0,-22.0,12.0,57.0,-3.0,0
0.0,-245.0,-28.0,6.0,57.0,-4.0,0
0.0,-252.0,-34.0,-4.0,57.0,-3.0,0
3.0,-248.0,-30.0,-11.0,56.0,-5.0,0
-2.0,-249.0,-24.0,-18.0,56.0,-2.0,0
0.0,-249.0,-26.0,-21.0,57.0,-5.0,0
2.0,-254.0,-21.0,-23.0,58.0,-2.0,0
1.0,-253.0,-25.0,-21.0,60.0,-6.0,0
0.0,-255.0,-22.0,-18.0,59.0,-6.0,0
1.0,-253.0,-27.0,-11.0,60.0,-9.0,0
0.0,-250.0,-26.0,-6.0,60.0,-7.0,0
-3.0,-253.0,-26.0,-3.0,60.0,-11.0,0
4.0,-251.0,-30.0,4.0,60.0,-7.0,0
-18.0,-261.0,-14.0,5.0,60.0,-10.0,0
2.0,-251.0,-26.0,5.0,60.0,-5.0,0
1.0,-254.0,-26.0,3.0,59.0,-5.0,0
1.0,-251.0,-27.0,1.0,58.0,-1.0,0
-1.0,-253.0,-28.0,0.0,57.0,-3.0,0
1.0,-252.0,-24.0,0.0,57.0,0.0,0
1.0,-253.0,-29.0,1.0,58.0,-3.0,0
-1.0,-251.0,-28.0,2.0,57.0,-2.0,0
-1.0,-252.0,-25.0,2.0,56.0,-7.0,0
1.0,-251.0,-26.0,2.0,57.0,-6.0,0
-1.0,-251.0,-21.0,1.0,54.0,-9.0,0
0.0,-250.0,-11.0,-1.0,54.0,-8.0,0
0.0,-249.0,-26.0,-3.0,54.0,-9.0,0
-1.0,-252.0,-28.0,-7.0,55.0,-6.0,0
1.0,-251.0,-24.0,-10.0,55.0,-8.0,0
-1.0,-249.0,-27.0,-12.0,55.0,-6.0,0
0.0,-251.0,-23.0,-14.0,55.0,-7.0,0
0.0,-253.0,-26.0,-14.0,56.0,-5.0,0
0.0,-250.0,-25.0,-13.0,56.0,-6.0,0
-2.0,-252.0,-24.0,-13.0,58.0,-3.0,0
-1.0,-251.0,-27.0,-12.0,60.0,-5.0,0
1.0,-261.0,-16.0,-13.0,60.0,-2.0,0
6.0,-246.0,-29.0,-12.0,61.0,-5.0,0
0.0,-252.0,-27.0,-13.0,61.0,-3.0,0
1.0,-252.0,-24.0,-14.0,60.0,-5.0,0
2.0,-255.0,-25.0,-14.0,59.0,-2.0,0
2.0,-254.0,-22.0,-14.0,59.0,-3.0,0
3.0,-252.0,-22.0,-13.0,58.0,-1.0,0
0.0,-253.0,-22.0,-11.0,59.0,-5.0,0
-4.0,-251.0,-29.0,-7.0,57.0,-2.0,0
4.0,-250.0,-24.0,-4.0,55.0,-4.0,0
2.0,-252.0,-23.0,-2.0,53.0,-3.0,0
1.0,-255.0,-21.0,1.0,54.0,-7.0,0
-7.0,-250.0,-23.0,1.0,54.0,-6.0,0
5.0,-252.0,-24.0,1.0,54.0,-10.0,0
1.0,-251.0,-27.0,-2.0,56.0,-5.0,0
2.0,-250.0,-23.0,-6.0,55.0,-10.0,0
0.0,-248.0,-21.0,-10.0,57.0,-5.0,0
0.0,-249.0,-22.0,-17.0,57.0,-6.0,0
1.0,-250.0,-21.0,-22.0,57.0,-2.0,0
1.0,-248.0,-27.0,-23.0,57.0,-4.0,0
1.0,-250.0,-24.0,-23.0,57.0,-2.0,0
4.0,-255.0,-22.0,-23.0,56.0,-2.0,0
0.0,-254.0,-26.0,-21.0,56.0,-1.0,0
10.0,-265.0,-26.0,-17.0,54.0,-3.0,0
1.0,-255.0,-25.0,-15.0,55.0,-1.0,0
1.0,-254.0,-21.0,-13.0,53.0,-2.0,0
0.0,-251.0,-24.0,-11.0,53.0,-1.0,0
-1.0,-252.0,-26.0,-9.0,55.0,-3.0,0
2.0,-253.0,-27.0,-7.0,58.0,-2.0,0
0.0,-250.0,-27.0,-7.0,58.0,-5.0,0
3.0,-250.0,-21.0,-7.0,59.0,-2.0,0
0.0,-250.0,-24.0,-7.0,59.0,-4.0,0
0.0,-253.0,-29.0,-7.0,60.0,-3.0,0
4.0,-251.0,-23.0,-9.0,59.0,-4.0,0
-5.0,-253.0,-21.0,-13.0,59.0,-1.0,0
-1.0,-248.0,-24.0,-15.0,58.0,-4.0,0
1.0,-251.0,-21.0,-18.0,58.0,-1.0,0
0.0,-251.0,-27.0,-19.0,56.0,-1.0,0
-2.0,-251.0,-25.0,-21.0,58.0,1.0,0
2.0,-253.0,-24.0,-20.0,56.0,-2.0,0
0.0,-253.0,-25.0,-19.0,57.0,-1.0,0
-2.0,-252.0,-21.0,-19.0,56.0,-3.0,0
1.0,-252.0,-29.0,-18.0,56.0,-2.0,0
3.0,-250.0,-26.0,-16.0,55.0,-5.0,0
0.0,-252.0,-26.0,-17.0,54.0,-2.0,0
10.0,-242.0,-31.0,-16.0,54.0,-4.0,0
-3.0,-251.0,-24.0,-19.0,54.0,-1.0,0
-2.0,-250.0,-25.0,-19.0,52.0,-2.0,0
-1.0,-253.0,-18.0,-20.0,54.0,2.0,0
2.0,-250.0,-25.0,-20.0,55.0,1.0,0
1.0,-251.0,-27.0,-20.0,55.0,4.0,0
2.0,-251.0,-24.0,-21.0,56.0,1.0,0
0.0,-249.0,-26.0,-21.0,57.0,4.0,0
3.0,-249.0,-22.0,-22.0,54.0,1.0,0
2.0,-249.0,-22.0,-23.0,55.0,3.0,0
4.0,-259.0,-14.0,-23.0,53.0,2.0,0
1.0,-251.0,-23.0,-23.0,53.0,5.0,0
1.0,-252.0,-27.0,-23.0,50.0,6.0,0
3.0,-252.0,-24.0,-25.0,48.0,10.0,0
1.0,-252.0,-24.0,-29.0,45.0,9.0,0
-1.0,-248.0,-20.0,-31.0,44.0,13.0,0
0.0,-254.0,-20.0,-33.0,41.0,8.0,0
-3.0,-254.0,-24.0,-37.0,37.0,8.0,0
-1.0,-251.0,-24.0,-41.0,38.0,3.0,0
1.0,-256.0,-22.0,-45.0,37.0,3.0,0
-2.0,-253.0,-24.0,-46.0,37.0,0.0,0
9.0,-249.0,-31.0,-46.0,38.0,-1.0,0
-3.0,-252.0,-25.0,-45.0,41.0,-5.0,0
-3.0,-253.0,-20.0,-43.0,41.0,-5.0,0
-3.0,-250.0,-28.0,-41.0,44.0,-8.0,0
-1.0,-253.0,-26.0,-39.0,44.0,-6.0,0
-3.0,-250.0,-25.0,-40.0,46.0,-6.0,0
0.0,-256.0,-25.0,-41.0,47.0,-3.0,0
0.0,-256.0,-25.0,-40.0,46.0,-4.0,0
3.0,-255.0,-27.0,-38.0,48.0,-3.0,0
-1.0,-256.0,-21.0,-35.0,48.0,-6.0,0
-5.0,-252.0,-21.0,-29.0,48.0,-5.0,0
-2.0,-256.0,-5.0,-23.0,46.0,-8.0,0
-2.0,-256.0,-28.0,-17.0,42.0,-6.0,0
1.0,-255.0,-29.0,-9.0,40.0,-10.0,0
0.0,-255.0,-27.0,-4.0,37.0,-8.0,0
-1.0,-249.0,-25.0,0.0,35.0,-13.0,0
-2.0,-251.0,-26.0,0.0,35.0,-13.0,0
-5.0,-251.0,-28.0,-4.0,36.0,-16.0,0
-3.0,-253.0,-27.0,-9.0,35.0,-15.0,0
-2.0,-252.0,-23.0,-15.0,34.0,-17.0,0
-2.0,-251.0,-26.0,-18.0,36.0,-15.0,0
1.0,-251.0,-27.0,-21.0,36.0,-17.0,0
-2.0,-246.0,-46.0,-20.0,39.0,-15.0,0
-6.0,-257.0,-26.0,-11.0,42.0,-17.0,0
-4.0,-256.0,-25.0,-1.0,47.0,-15.0,0
-2.0,-257.0,-27.0,7.0,50.0,-20.0,0
-2.0,-257.0,-31.0,14.0,51.0,-18.0,0
-3.0,-256.0,-26.0,19.0,53.0,-20.0,0
-1.0,-250.0,-27.0,18.0,52.0,-14.0,0
1.0,-250.0,-25.0,12.0,50.0,-12.0,0
0.0,-247.0,-27.0,3.0,48.0,-5.0,0
0.0,-246.0,-31.0,-7.0,48.0,-5.0,0
1.0,-246.0,-25.0,-20.0,44.0,1.0,0
-7.0,-239.0,-26.0,-38.0,43.0,3.0,0
0.0,-245.0,-21.0,-52.0,42.0,8.0,0
1.0,-246.0,-24.0,-66.0,42.0,9.0,0
-1.0,-247.0,-22.0,-79.0,42.0,11.0,0
-1.0,-247.0,-21.0,-93.0,43.0,8.0,0
-3.0,-244.0,-21.0,-107.0,48.0,7.0,0
-2.0,-243.0,-23.0,-123.0,53.0,1.0,0
-1.0,-240.0,-22.0,-137.0,57.0,0.0,0
0.0,-248.0,-17.0,-154.0,61.0,-3.0,0
-1.0,-243.0,-16.0,-172.0,66.0,0.0,0
-1.0,-246.0,-23.0,-194.0,71.0,-2.0,0
-3.0,-248.0,-15.0,-213.0,77.0,2.0,0
7.0,-242.0,-21.0,-233.0,84.0,0.0,0
4.0,-245.0,-23.0,-258.0,93.0,3.0,0
5.0,-241.0,-20.0,-283.0,100.0,1.0,0
7.0,-244.0,-21.0,-305.0,106.0,4.0,0
8.0,-246.0,-20.0,-325.0,109.0,3.0,0
5.0,-248.0,-24.0,-345.0,110.0,4.0,0
3.0,-249.0,-23.0,-365.0,107.0,0.0,0
0.0,-247.0,-25.0,-385.0,103.0,-1.0,0
5.0,-244.0,-24.0,-407.0,100.0,-7.0,0
3.0,-248.0,-22.0,-422.0,91.0,-7.0,0
-5.0,-245.0,-28.0,-433.0,84.0,-10.0,0
4.0,-249.0,-22.0,-444.0,75.0,-7.0,0
1.0,-248.0,-25.0,-452.0,67.0,-5.0,0
4.0,-248.0,-24.0,-460.0,60.0,2.0,0
2.0,-246.0,-20.0,-466.0,52.0,5.0,0
1.0,-250.0,-23.0,-470.0,44.0,11.0,0
0.0,-245.0,-26.0,-473.0,33.0,16.0,0
1.0,-244.0,-21.0,-478.0,21.0,25.0,0
-1.0,-240.0,-24.0,-488.0,15.0,27.0,0
-1.0,-239.0,-26.0,-498.0,10.0,34.0,0
1.0,-242.0,-24.0,-511.0,6.0,38.0,0
1.0,-232.0,-34.0,-528.0,1.0,44.0,0
5.0,-244.0,-28.0,-543.0,-7.0,48.0,0
2.0,-242.0,-29.0,-560.0,-13.0,55.0,0
6.0,-242.0,-27.0,-576.0,-17.0,60.0,0
3.0,-242.0,-36.0,-591.0,-21.0,67.0,0
5.0,-246.0,-31.0,-608.0,-27.0,67.0,0
7.0,-244.0,-34.0,-624.0,-28.0,73.0,0
7.0,-250.0,-34.0,-642.0,-31.0,76.0,0
4.0,-246.0,-35.0,-651.0,-32.0,81.0,0
5.0,-246.0,-34.0,-659.0,-33.0,79.0,0
5.0,-247.0,-40.0,-666.0,-30.0,80.0,0
-1.0,-241.0,-50.0,-673.0,-25.0,75.0,0
4.0,-249.0,-47.0,-681.0,-23.0,75.0,0
5.0,-246.0,-44.0,-687.0,-21.0,71.0,0
5.0,-246.0,-45.0,-692.0,-18.0,68.0,0
1.0,-246.0,-50.0,-696.0,-16.0,64.0,0
-2.0,-249.0,-51.0,-703.0,-15.0,63.0,0
-2.0,-248.0,-49.0,-712.0,-19.0,62.0,0
-6.0,-249.0,-57.0,-722.0,-23.0,62.0,0
-3.0,-245.0,-60.0,-738.0,-23.0,57.0,0
-10.0,-239.0,-66.0,-761.0,-21.0,57.0,0
-6.0,-242.0,-66.0,-782.0,-18.0,60.0,0
-5.0,-244.0,-73.0,-805.0,-12.0,64.0,0
-9.0,-232.0,-78.0,-834.0,1.0,65.0,0
-10.0,-232.0,-84.0,-867.0,15.0,72.0,0
-9.0,-232.0,-87.0,-896.0,29.0,76.0,0
-6.0,-233.0,-85.0,-920.0,43.0,90.0,0
-8.0,-238.0,-84.0,-920.0,56.0,97.0,0
-5.0,-244.0,-85.0,-908.0,61.0,104.0,0
-8.0,-241.0,-79.0,-886.0,59.0,101.0,0
-11.0,-248.0,-84.0,-863.0,52.0,101.0,0
-4.0,-248.0,-83.0,-848.0,40.0,94.0,0
-5.0,-243.0,-92.0,-838.0,31.0,87.0,0
-5.0,-249.0,-75.0,-829.0,16.0,83.0,0
-7.0,-249.0,-82.0,-823.0,2.0,94.0,0
-6.0,-251.0,-80.0,-834.0,-4.0,98.0,0
-12.0,-244.0,-83.0,-852.0,-9.0,103.0,0
-14.0,-247.0,-86.0,-878.0,-3.0,109.0,0
-10.0,-241.0,-88.0,-907.0,4.0,115.0,0
-12.0,-240.0,-92.0,-926.0,4.0,116.0,0
-6.0,-243.0,-88.0,-932.0,7.0,130.0,0
-7.0,-239.0,-96.0,-936.0,11.0,139.0,0
-7.0,-243.0,-103.0,-936.0,13.0,146.0,0
-11.0,-242.0,-86.0,-935.0,21.0,143.0,0
-5.0,-242.0,-90.0,-933.0,23.0,149.0,0
-4.0,-243.0,-90.0,-926.0,28.0,153.0,0
-6.0,-237.0,-92.0,-912.0,31.0,159.0,0
-6.0,-248.0,-97.0,-908.0,32.0,160.0,0
-7.0,-250.0,-97.0,-902.0,30.0,160.0,0
-1.0,-249.0,-95.0,-893.0,32.0,149.0,0
-8.0,-245.0,-99.0,-872.0,33.0,151.0,0
-6.0,-247.0,-98.0,-848.0,34.0,143.0,0
-6.0,-242.0,-102.0,-824.0,36.0,137.0,0
-4.0,-241.0,-107.0,-796.0,25.0,124.0,0
-8.0,-239.0,-117.0,-777.0,11.0,113.0,0
-3.0,-240.0,-110.0,-763.0,4.0,98.0,0
-3.0,-240.0,-106.0,-748.0,6.0,88.0,0
-3.0,-238.0,-109.0,-743.0,11.0,82.0,0
-1.0,-236.0,-116.0,-736.0,13.0,82.0,0
3.0,-237.0,-120.0,-740.0,15.0,79.0,0
1.0,-236.0,-127.0,-742.0,17.0,81.0,0
13.0,-237.0,-125.0,-761.0,22.0,78.0,0
8.0,-232.0,-131.0,-781.0,29.0,71.0,0
7.0,-230.0,-127.0,-803.0,31.0,64.0,0
8.0,-227.0,-129.0,-830.0,33.0,63.0,0
4.0,-212.0,-134.0,-863.0,33.0,52.0,0
1.0,-230.0,-123.0,-897.0,37.0,39.0,0
-3.0,-226.0,-119.0,-925.0,37.0,27.0,0
-7.0,-231.0,-115.0,-958.0,38.0,25.0,0
-8.0,-230.0,-114.0,-972.0,42.0,31.0,0
-14.0,-231.0,-117.0,-982.0,56.0,41.0,0
-15.0,-234.0,-114.0,-982.0,67.0,54.0,0
-10.0,-238.0,-125.0,-978.0,70.0,76.0,0
-10.0,-235.0,-132.0,-954.0,72.0,93.0,0
-13.0,-231.0,-133.0,-919.0,77.0,107.0,0
-12.0,-238.0,-137.0,-889.0,85.0,117.0,0
-11.0,-226.0,-143.0,-843.0,91.0,129.0,0
-9.0,-239.0,-135.0,-791.0,91.0,136.0,0
-7.0,-241.0,-134.0,-743.0,92.0,140.0,0
-11.0,-242.0,-132.0,-703.0,91.0,135.0,0
-10.0,-240.0,-129.0,-676.0,93.0,133.0,0
-12.0,-236.0,-127.0,-649.0,100.0,131.0,0
-11.0,-235.0,-124.0,-631.0,104.0,129.0,0
-16.0,-231.0,-120.0,-623.0,106.0,127.0,0
-16.0,-229.0,-120.0,-616.0,107.0,134.0,0
-14.0,-224.0,-126.0,-614.0,108.0,139.0,0
-15.0,-222.0,-126.0,-634.0,108.0,148.0,0
-9.0,-215.0,-130.0,-657.0,113.0,153.0,0
-15.0,-222.0,-125.0,-680.0,120.0,159.0,0
-16.0,-225.0,-123.0,-683.0,132.0,158.0,0
-17.0,-229.0,-130.0,-674.0,147.0,158.0,0
-20.0,-232.0,-135.0,-653.0,163.0,151.0,0
-18.0,-231.0,-131.0,-633.0,180.0,146.0,0
-17.0,-232.0,-138.0,-613.0,196.0,140.0,0
-25.0,-231.0,-136.0,-586.0,207.0,135.0,0
-29.0,-226.0,-138.0,-569.0,215.0,130.0,0
-28.0,-226.0,-135.0,-554.0,219.0,127.0,0
-28.0,-228.0,-133.0,-543.0,216.0,121.0,0
-29.0,-229.0,-144.0,-531.0,201.0,118.0,0
-34.0,-222.0,-134.0,-518.0,187.0,108.0,0
-35.0,-220.0,-134.0,-516.0,170.0,99.0,0
-36.0,-219.0,-132.0,-522.0,158.0,88.0,0
-33.0,-219.0,-134.0,-546.0,152.0,77.0,0
-29.0,-217.0,-136.0,-584.0,150.0,67.0,0
-26.0,-222.0,-137.0,-632.0,147.0,61.0,0
-21.0,-223.0,-145.0,-688.0,145.0,47.0,0
-16.0,-233.0,-148.0,-736.0,147.0,37.0,0
-16.0,-242.0,-156.0,-749.0,156.0,28.0,0
-10.0,-246.0,-159.0,-737.0,171.0,23.0,0
-5.0,-239.0,-177.0,-709.0,185.0,9.0,0
-6.0,-239.0,-167.0,-667.0,190.0,-3.0,0
-9.0,-240.0,-170.0,-618.0,186.0,-11.0,0
-15.0,-238.0,-170.0,-561.0,184.0,-16.0,0
-17.0,-233.0,-159.0,-509.0,176.0,-15.0,0
-17.0,-229.0,-161.0,-475.0,167.0,-10.0,0
-27.0,-232.0,-157.0,-460.0,148.0,-10.0,0
-26.0,-229.0,-155.0,-455.0,114.0,-7.0,0
-29.0,-232.0,-156.0,-465.0,87.0,-6.0,0
-26.0,-235.0,-160.0,-481.0,66.0,-3.0,0
-27.0,-238.0,-163.0,-491.0,50.0,-7.0,0
-28.0,-239.0,-170.0,-490.0,31.0,-9.0,0
-23.0,-245.0,-171.0,-478.0,10.0,-10.0,0
-18.0,-242.0,-172.0,-455.0,-4.0,-9.0,0
-19.0,-241.0,-181.0,-424.0,-11.0,-13.0,0
-21.0,-239.0,-181.0,-392.0,-17.0,-10.0,0
-20.0,-237.0,-184.0,-363.0,-17.0,-5.0,0
-18.0,-237.0,-182.0,-338.0,-18.0,-3.0,0
-24.0,-236.0,-189.0,-321.0,-18.0,0.0,0
-23.0,-240.0,-192.0,-308.0,-20.0,3.0,0
-21.0,-241.0,-193.0,-289.0,-20.0,1.0,0
-33.0,-251.0,-193.0,-269.0,-22.0,0.0,0
-28.0,-242.0,-202.0,-248.0,-26.0,0.0,0
-29.0,-239.0,-203.0,-229.0,-30.0,0.0,0
-28.0,-234.0,-203.0,-212.0,-37.0,-2.0,0
-26.0,-235.0,-208.0,-198.0,-42.0,-3.0,0
-28.0,-233.0,-208.0,-186.0,-45.0,-8.0,0
-26.0,-230.0,-205.0,-179.0,-49.0,-11.0,0
-29.0,-234.0,-209.0,-174.0,-53.0,-11.0,0
-29.0,-232.0,-209.0,-167.0,-57.0,-9.0,0
-26.0,-231.0,-212.0,-153.0,-62.0,-11.0,0
-30.0,-227.0,-226.0,-137.0,-63.0,-9.0,0
-27.0,-217.0,-214.0,-120.0,-62.0,-9.0,0
-29.0,-220.0,-215.0,-107.0,-61.0,-6.0,0
-25.0,-218.0,-218.0,-106.0,-64.0,-3.0,0
-28.0,-218.0,-224.0,-114.0,-72.0,0.0,0
-27.0,-222.0,-221.0,-127.0,-82.0,-1.0,0
-29.0,-221.0,-221.0,-143.0,-97.0,-3.0,0
-31.0,-222.0,-223.0,-151.0,-108.0,-4.0,0
-25.0,-223.0,-222.0,-151.0,-116.0,-7.0,0
-22.0,-224.0,-225.0,-146.0,-119.0,-15.0,0
-22.0,-221.0,-217.0,-134.0,-113.0,-21.0,0
-16.0,-222.0,-216.0,-125.0,-102.0,-29.0,0
-18.0,-224.0,-208.0,-120.0,-85.0,-33.0,0
-16.0,-217.0,-219.0,-120.0,-64.0,-31.0,0
-17.0,-211.0,-219.0,-120.0,-41.0,-23.0,0
-14.0,-215.0,-220.0,-122.0,-22.0,-15.0,0
-16.0,-215.0,-222.0,-123.0,-5.0,-8.0,0
-16.0,-215.0,-219.0,-124.0,2.0,-3.0,0
-16.0,-218.0,-220.0,-131.0,10.0,1.0,0
-20.0,-226.0,-220.0,-131.0,13.0,2.0,0
-18.0,-224.0,-218.0,-128.0,16.0,5.0,0
-20.0,-229.0,-214.0,-115.0,12.0,1.0,0
-19.0,-222.0,-218.0,-102.0,11.0,-1.0,0
-28.0,-235.0,-210.0,-92.0,9.0,-7.0,0
-21.0,-223.0,-220.0,-93.0,8.0,-9.0,0
-17.0,-223.0,-222.0,-94.0,6.0,-10.0,0
-17.0,-224.0,-218.0,-89.0,5.0,-8.0,0
-16.0,-228.0,-217.0,-82.0,4.0,-7.0,0
-14.0,-227.0,-215.0,-69.0,4.0,-5.0,0
-14.0,-230.0,-210.0,-50.0,9.0,-3.0,0
-12.0,-232.0,-216.0,-23.0,15.0,4.0,0
-12.0,-233.0,-206.0,6.0,25.0,8.0,0
-13.0,-231.0,-209.0,38.0,37.0,13.0,0
-13.0,-232.0,-202.0,62.0,47.0,13.0,0
-13.0,-239.0,-198.0,85.0,56.0,16.0,0
-12.0,-230.0,-206.0,103.0,59.0,12.0,0
-16.0,-229.0,-207.0,113.0,66.0,8.0,0
-15.0,-229.0,-206.0,116.0,72.0,3.0,0
-16.0,-231.0,-206.0,118.0,78.0,-1.0,0
-14.0,-227.0,-203.0,119.0,84.0,-1.0,0
-15.0,-231.0,-202.0,121.0,90.0,-1.0,0
-13.0,-230.0,-198.0,126.0,96.0,-7.0,0
-10.0,-228.0,-193.0,134.0,104.0,-8.0,0
-8.0,-228.0,-195.0,149.0,107.0,-7.0,0
-10.0,-231.0,-194.0,167.0,117.0,-5.0,0
-11.0,-224.0,-194.0,190.0,120.0,-1.0,0
-16.0,-228.0,-187.0,210.0,114.0,1.0,0
-12.0,-220.0,-191.0,221.0,109.0,4.0,0
-11.0,-222.0,-187.0,226.0,100.0,8.0,0
-12.0,-218.0,-190.0,220.0,93.0,12.0,0
-13.0,-217.0,-184.0,208.0,93.0,17.0,0
-15.0,-215.0,-188.0,191.0,91.0,18.0,0
-15.0,-216.0,-190.0,170.0,88.0,21.0,0
-15.0,-215.0,-183.0,143.0,83.0,18.0,0
-12.0,-218.0,-184.0,117.0,80.0,15.0,0
-12.0,-219.0,-190.0,92.0,78.0,10.0,0
-16.0,-224.0,-200.0,71.0,79.0,4.0,0
-9.0,-231.0,-187.0,63.0,81.0,-1.0,0
-9.0,-234.0,-187.0,65.0,88.0,-8.0,0
-14.0,-233.0,-181.0,78.0,99.0,-13.0,0
-14.0,-233.0,-181.0,98.0,109.0,-17.0,0
-15.0,-238.0,-180.0,123.0,122.0,-23.0,0
-15.0,-238.0,-177.0,155.0,131.0,-26.0,0
-15.0,-234.0,-177.0,187.0,137.0,-30.0,0
-16.0,-231.0,-174.0,217.0,144.0,-32.0,0
-16.0,-229.0,-180.0,238.0,146.0,-35.0,0
-16.0,-224.0,-174.0,248.0,149.0,-38.0,0
-26.0,-227.0,-165.0,251.0,144.0,-34.0,0
-15.0,-219.0,-171.0,245.0,139.0,-29.0,0
-16.0,-217.0,-165.0,236.0,136.0,-23.0,0
-11.0,-215.0,-171.0,226.0,137.0,-18.0,0
-15.0,-212.0,-162.0,214.0,140.0,-11.0,0
-16.0,-209.0,-164.0,206.0,144.0,-7.0,0
-16.0,-212.0,-158.0,198.0,148.0,-2.0,0
-15.0,-214.0,-154.0,194.0,148.0,5.0,0
-14.0,-216.0,-159.0,194.0,143.0,7.0,0
-16.0,-215.0,-153.0,194.0,142.0,6.0,0
-16.0,-215.0,-155.0,198.0,141.0,4.0,0
0.0,-210.0,-169.0,202.0,140.0,-5.0,0
-15.0,-219.0,-151.0,210.0,140.0,-13.0,0
-16.0,-221.0,-154.0,222.0,141.0,-19.0,0
-16.0,-219.0,-150.0,234.0,143.0,-23.0,0
-16.0,-220.0,-148.0,246.0,145.0,-30.0,0
-16.0,-221.0,-150.0,262.0,146.0,-31.0,0
-16.0,-216.0,-148.0,285.0,146.0,-33.0,0
-17.0,-218.0,-144.0,314.0,147.0,-36.0,0
-18.0,-213.0,-139.0,344.0,144.0,-37.0,0
-15.0,-210.0,-137.0,373.0,146.0,-34.0,0
-15.0,-203.0,-134.0,401.0,150.0,-32.0,0
-28.0,-201.0,-127.0,423.0,154.0,-31.0,0
-16.0,-199.0,-132.0,434.0,158.0,-34.0,0
-16.0,-198.0,-131.0,431.0,159.0,-33.0,0
-13.0,-200.0,-132.0,419.0,161.0,-36.0,0
-15.0,-200.0,-132.0,409.0,161.0,-40.0,0
-16.0,-200.0,-131.0,391.0,162.0,-43.0,0
-16.0,-204.0,-135.0,370.0,159.0,-48.0,0
-14.0,-201.0,-130.0,358.0,156.0,-52.0,0
-16.0,-206.0,-135.0,358.0,155.0,-56.0,0
-16.0,-208.0,-132.0,365.0,152.0,-59.0,0
-16.0,-198.0,-140.0,380.0,148.0,-61.0,0
-16.0,-207.0,-129.0,404.0,144.0,-63.0,0
-17.0,-204.0,-132.0,432.0,147.0,-66.0,0
-17.0,-203.0,-136.0,463.0,151.0,-64.0,0
-16.0,-203.0,-134.0,486.0,158.0,-65.0,0
-13.0,-199.0,-129.0,506.0,166.0,-66.0,0
-15.0,-199.0,-130.0,525.0,170.0,-64.0,0
-14.0,-198.0,-129.0,534.0,176.0,-61.0,0
-14.0,-201.0,-133.0,533.0,178.0,-56.0,0
-13.0,-201.0,-131.0,524.0,173.0,-53.0,0
-15.0,-207.0,-125.0,509.0,167.0,-50.0,0
-13.0,-194.0,-142.0,501.0,150.0,-45.0,0
-10.0,-214.0,-131.0,489.0,134.0,-39.0,0
-12.0,-214.0,-128.0,491.0,124.0,-34.0,0
-11.0,-218.0,-131.0,508.0,118.0,-24.0,0
-13.0,-220.0,-131.0,533.0,112.0,-15.0,0
-10.0,-221.0,-133.0,574.0,108.0,-6.0,0
-10.0,-222.0,-131.0,615.0,110.0,-2.0,0
-11.0,-220.0,-131.0,663.0,114.0,1.0,0
-9.0,-222.0,-129.0,719.0,118.0,0.0,0
-8.0,-216.0,-127.0,771.0,125.0,-3.0,0
-6.0,-210.0,-125.0,818.0,132.0,-9.0,0
-3.0,-217.0,-124.0,853.0,141.0,-12.0,0
-12.0,-204.0,-127.0,867.0,146.0,-15.0,0
-10.0,-203.0,-125.0,859.0,144.0,-19.0,0
-13.0,-202.0,-127.0,836.0,143.0,-22.0,0
-12.0,-201.0,-121.0,788.0,136.0,-18.0,0
-14.0,-205.0,-119.0,734.0,136.0,-21.0,0
-16.0,-208.0,-122.0,684.0,133.0,-20.0,0
-13.0,-205.0,-116.0,633.0,129.0,-18.0,0
-16.0,-211.0,-120.0,592.0,124.0,-11.0,0
-13.0,-214.0,-115.0,561.0,114.0,-5.0,0
-17.0,-220.0,-116.0,540.0,105.0,-1.0,0
-16.0,-224.0,-129.0,524.0,98.0,-4.0,0
-16.0,-227.0,-116.0,513.0,92.0,-12.0,0
-18.0,-227.0,-118.0,519.0,92.0,-17.0,0
-15.0,-233.0,-120.0,540.0,87.0,-16.0,0
-16.0,-236.0,-118.0,558.0,83.0,-24.0,0
-18.0,-233.0,-116.0,575.0,81.0,-37.0,0
-16.0,-237.0,-114.0,593.0,87.0,-55.0,0
-14.0,-234.0,-111.0,607.0,90.0,-69.0,0
-16.0,-237.0,-113.0,621.0,90.0,-74.0,0
-13.0,-236.0,-112.0,632.0,83.0,-72.0,0
-15.0,-230.0,-112.0,637.0,80.0,-76.0,0
-13.0,-241.0,-95.0,636.0,80.0,-81.0,0
-13.0,-225.0,-116.0,638.0,81.0,-89.0,0
-12.0,-227.0,-116.0,638.0,82.0,-86.0,0
-9.0,-227.0,-111.0,632.0,82.0,-84.0,0
-8.0,-222.0,-106.0,636.0,80.0,-79.0,0
-10.0,-217.0,-111.0,651.0,77.0,-72.0,0
-10.0,-221.0,-111.0,659.0,75.0,-65.0,0
-7.0,-215.0,-119.0,649.0,76.0,-62.0,0
-4.0,-219.0,-110.0,629.0,78.0,-52.0,0
-2.0,-215.0,-112.0,609.0,81.0,-51.0,0
-2.0,-217.0,-116.0,595.0,85.0,-53.0,0
4.0,-226.0,-105.0,581.0,95.0,-57.0,0
-2.0,-216.0,-104.0,569.0,106.0,-65.0,0
-3.0,-218.0,-104.0,551.0,118.0,-80.0,0
-1.0,-219.0,-106.0,541.0,129.0,-84.0,0
-3.0,-220.0,-102.0,531.0,135.0,-98.0,0
0.0,-222.0,-99.0,530.0,138.0,-110.0,0
-4.0,-220.0,-96.0,529.0,136.0,-119.0,0
-5.0,-219.0,-101.0,534.0,132.0,-122.0,0
-10.0,-219.0,-96.0,533.0,129.0,-125.0,0
-11.0,-218.0,-97.0,536.0,126.0,-128.0,0
-14.0,-220.0,-97.0,543.0,119.0,-134.0,0
-16.0,-211.0,-108.0,561.0,117.0,-125.0,0
-12.0,-218.0,-98.0,570.0,119.0,-115.0,0
-11.0,-214.0,-95.0,566.0,120.0,-100.0,0
-11.0,-214.0,-91.0,567.0,120.0,-87.0,0
-10.0,-213.0,-91.0,579.0,115.0,-73.0,0
-13.0,-209.0,-84.0,598.0,113.0,-70.0,0
-12.0,-208.0,-91.0,606.0,112.0,-66.0,0
-13.0,-208.0,-87.0,591.0,106.0,-54.0,0
-11.0,-210.0,-86.0,574.0,97.0,-36.0,0
-12.0,-205.0,-87.0,556.0,84.0,-33.0,0
-12.0,-206.0,-85.0,532.0,67.0,-26.0,0
-19.0,-212.0,-81.0,505.0,52.0,-24.0,0
-11.0,-204.0,-85.0,478.0,41.0,-21.0,0
-15.0,-209.0,-84.0,455.0,39.0,-20.0,0
-16.0,-212.0,-78.0,428.0,37.0,-21.0,0
-16.0,-212.0,-79.0,405.0,38.0,-27.0,0
-16.0,-215.0,-79.0,391.0,38.0,-30.0,0
-18.0,-215.0,-79.0,390.0,37.0,-29.0,0
-17.0,-220.0,-78.0,391.0,34.0,-23.0,0
-18.0,-225.0,-72.0,389.0,30.0,-22.0,0
-18.0,-225.0,-71.0,391.0,28.0,-24.0,0
-17.0,-227.0,-74.0,393.0,32.0,-36.0,0
-13.0,-232.0,-82.0,401.0,38.0,-42.0,0
-12.0,-231.0,-74.0,409.0,48.0,-46.0,0
-7.0,-233.0,-72.0,412.0,57.0,-38.0,0
-7.0,-237.0,-75.0,422.0,64.0,-40.0,0
-5.0,-239.0,-75.0,427.0,69.0,-42.0,0
-2.0,-236.0,-76.0,415.0,75.0,-47.0,0
-1.0,-237.0,-79.0,409.0,84.0,-52.0,0
0.0,-230.0,-75.0,413.0,90.0,-49.0,0
0.0,-226.0,-74.0,426.0,83.0,-38.0,0
-4.0,-231.0,-80.0,445.0,73.0,-40.0,0
-6.0,-221.0,-73.0,451.0,68.0,-47.0,0
5.0,-190.0,-88.0,474.0,67.0,-36.0,0
-7.0,-210.0,-68.0,485.0,60.0,-18.0,0
-11.0,-214.0,-75.0,477.0,57.0,-13.0,0
-10.0,-210.0,-73.0,462.0,58.0,-15.0,0
-7.0,-208.0,-71.0,445.0,68.0,-24.0,0
-9.0,-209.0,-72.0,428.0,83.0,-28.0,0
-10.0,-204.0,-72.0,391.0,104.0,-30.0,0
-7.0,-204.0,-71.0,367.0,120.0,-20.0,0
-11.0,-211.0,-67.0,332.0,127.0,-21.0,0
-9.0,-211.0,-63.0,294.0,126.0,-23.0,0
-3.0,-210.0,-85.0,257.0,129.0,-31.0,0
-11.0,-221.0,-66.0,221.0,132.0,-27.0,0
-12.0,-222.0,-73.0,194.0,133.0,-20.0,0
-12.0,-222.0,-71.0,178.0,135.0,-21.0,0
-10.0,-227.0,-73.0,170.0,140.0,-24.0,0
-11.0,-222.0,-70.0,171.0,144.0,-19.0,0
-12.0,-223.0,-71.0,191.0,148.0,-22.0,0
-6.0,-221.0,-76.0,211.0,147.0,-21.0,0
-8.0,-219.0,-70.0,227.0,148.0,-27.0,0
-9.0,-229.0,-88.0,244.0,147.0,-34.0,0
-8.0,-206.0,-64.0,230.0,150.0,-58.0,0
-7.0,-204.0,-82.0,261.0,151.0,-63.0,0
-6.0,-212.0,-68.0,284.0,150.0,-55.0,0
-4.0,-215.0,-70.0,285.0,151.0,-50.0,0
-5.0,-216.0,-67.0,264.0,153.0,-61.0,0
-8.0,-215.0,-66.0,240.0,159.0,-78.0,0
-6.0,-217.0,-71.0,215.0,169.0,-85.0,0
-6.0,-217.0,-66.0,196.0,174.0,-76.0,0
-5.0,-220.0,-64.0,179.0,167.0,-70.0,0
-7.0,-225.0,-74.0,162.0,158.0,-67.0,0
-3.0,-221.0,-71.0,152.0,151.0,-60.0,0
0.0,-242.0,-86.0,149.0,143.0,-49.0,0
3.0,-220.0,-67.0,123.0,135.0,-60.0,0
-5.0,-223.0,-71.0,152.0,133.0,-67.0,0
-6.0,-225.0,-75.0,206.0,137.0,-71.0,0
-6.0,-227.0,-82.0,245.0,145.0,-68.0,0
-12.0,-227.0,-71.0,266.0,150.0,-85.0,0
-11.0,-221.0,-71.0,284.0,154.0,-98.0,0
-10.0,-222.0,-72.0,297.0,162.0,-119.0,0
-8.0,-221.0,-82.0,309.0,173.0,-130.0,0
-1.0,-232.0,-66.0,282.0,192.0,-148.0,0
-3.0,-217.0,-60.0,274.0,210.0,-184.0,0
-6.0,-211.0,-63.0,324.0,227.0,-204.0,0
-2.0,-213.0,-70.0,360.0,231.0,-201.0,0
-3.0,-206.0,-71.0,354.0,230.0,-197.0,0
-1.0,-220.0,-92.0,290.0,216.0,-194.0,0
-4.0,-208.0,-66.0,182.0,199.0,-201.0,0
-3.0,-202.0,-64.0,137.0,184.0,-190.0,0
4.0,-204.0,-71.0,130.0,166.0,-166.0,0
6.0,-209.0,-78.0,104.0,158.0,-138.0,0
8.0,-208.0,-78.0,58.0,161.0,-121.0,0
12.0,-209.0,-73.0,21.0,165.0,-106.0,0
19.0,-212.0,-79.0,8.0,166.0,-91.0,0
18.0,-211.0,-79.0,-3.0,177.0,-81.0,0
23.0,-221.0,-84.0,-22.0,195.0,-86.0,0
19.0,-215.0,-74.0,-37.0,219.0,-80.0,0
18.0,-220.0,-73.0,-37.0,234.0,-71.0,0
13.0,-219.0,-70.0,-35.0,241.0,-64.0,0
12.0,-248.0,-77.0,-56.0,242.0,-62.0,0
7.0,-230.0,-62.0,-98.0,237.0,-65.0,0
8.0,-229.0,-68.0,-47.0,234.0,-65.0,0
1.0,-228.0,-70.0,24.0,228.0,-57.0,0
1.0,-218.0,-79.0,71.0,225.0,-52.0,0
0.0,-226.0,-80.0,74.0,220.0,-42.0,0
0.0,-226.0,-73.0,45.0,211.0,-33.0,0
0.0,-228.0,-67.0,-2.0,191.0,-31.0,0
-8.0,-237.0,-65.0,-27.0,173.0,-34.0,0
-8.0,-240.0,-67.0,-40.0,158.0,-35.0,0
-10.0,-242.0,-63.0,-42.0,152.0,-39.0,0
-9.0,-249.0,-59.0,-44.0,145.0,-35.0,0
-7.0,-250.0,-60.0,-37.0,137.0,-32.0,0
-8.0,-254.0,-63.0,-18.0,122.0,-27.0,0
-1.0,-252.0,-66.0,2.0,109.0,-26.0,0
0.0,-251.0,-70.0,27.0,97.0,-28.0,0
-1.0,-248.0,-74.0,49.0,89.0,-38.0,0
-3.0,-253.0,-69.0,70.0,85.0,-34.0,0
4.0,-247.0,-79.0,85.0,81.0,-35.0,0
10.0,-247.0,-71.0,108.0,78.0,-26.0,0
11.0,-246.0,-68.0,108.0,75.0,-23.0,0
10.0,-242.0,-68.0,104.0,71.0,-8.0,0
6.0,-255.0,-80.0,105.0,61.0,12.0,0
9.0,-254.0,-48.0,54.0,44.0,45.0,0
4.0,-245.0,-51.0,58.0,23.0,54.0,0
-1.0,-237.0,-48.0,120.0,-1.0,72.0,0
-1.0,-231.0,-58.0,188.0,-26.0,112.0,0
-5.0,-230.0,-65.0,208.0,-51.0,139.0,0
-2.0,-232.0,-68.0,165.0,-61.0,156.0,0
10.0,-221.0,-96.0,84.0,-62.0,177.0,0
7.0,-240.0,-75.0,-25.0,-57.0,186.0,0
7.0,-247.0,-79.0,-134.0,-44.0,195.0,0
12.0,-253.0,-79.0,-215.0,-35.0,191.0,0
9.0,-257.0,-78.0,-268.0,-28.0,186.0,0
11.0,-264.0,-77.0,-291.0,-27.0,179.0,0
10.0,-268.0,-74.0,-287.0,-27.0,179.0,0
13.0,-275.0,-72.0,-275.0,-25.0,174.0,0
10.0,-276.0,-76.0,-247.0,-14.0,169.0,0
13.0,-274.0,-80.0,-210.0,2.0,153.0,0
20.0,-265.0,-92.0,-168.0,23.0,140.0,0
15.0,-276.0,-76.0,-127.0,47.0,126.0,0
15.0,-274.0,-72.0,-90.0,71.0,113.0,0
12.0,-274.0,-68.0,-56.0,91.0,103.0,0
7.0,-267.0,-65.0,-22.0,105.0,97.0,0
1.0,-261.0,-68.0,22.0,114.0,77.0,0
-5.0,-258.0,-69.0,43.0,119.0,76.0,0
-5.0,-258.0,-64.0,52.0,124.0,77.0,0
-4.0,-252.0,-67.0,54.0,129.0,78.0,0
-7.0,-247.0,-62.0,51.0,134.0,72.0,0
-7.0,-247.0,-61.0,51.0,144.0,64.0,0
-6.0,-288.0,-74.0,40.0,150.0,45.0,0
-9.0,-256.0,-43.0,-69.0,147.0,33.0,0
-8.0,-244.0,-39.0,-52.0,143.0,33.0,0
-8.0,-239.0,-42.0,59.0,136.0,40.0,0
-12.0,-228.0,-47.0,164.0,117.0,37.0,0
-11.0,-229.0,-55.0,206.0,98.0,40.0,0
-11.0,-225.0,-52.0,176.0,73.0,43.0,0
-10.0,-224.0,-51.0,106.0,53.0,46.0,0
-9.0,-224.0,-47.0,56.0,39.0,39.0,0
-8.0,-223.0,-48.0,38.0,28.0,32.0,0
-4.0,-229.0,-47.0,20.0,21.0,32.0,0
-7.0,-228.0,-36.0,-15.0,15.0,41.0,0
-4.0,-229.0,-46.0,-45.0,7.0,40.0,0
-4.0,-235.0,-51.0,-58.0,-4.0,34.0,0
-3.0,-236.0,-55.0,-72.0,-17.0,24.0,0
2.0,-241.0,-57.0,-95.0,-28.0,32.0,0
-6.0,-243.0,-63.0,-124.0,-34.0,26.0,0
-3.0,-246.0,-68.0,-142.0,-30.0,24.0,0
0.0,-250.0,-66.0,-158.0,-21.0,18.0,0
-1.0,-253.0,-67.0,-171.0,-7.0,8.0,0
3.0,-257.0,-71.0,-171.0,11.0,-6.0,0
6.0,-256.0,-70.0,-157.0,31.0,-15.0,0
2.0,-252.0,-83.0,-141.0,54.0,-16.0,0
8.0,-257.0,-71.0,-122.0,79.0,-11.0,0
7.0,-257.0,-68.0,-103.0,100.0,-10.0,0
7.0,-254.0,-69.0,-89.0,120.0,-6.0,0
9.0,-254.0,-65.0,-70.0,143.0,-7.0,0
8.0,-255.0,-69.0,-50.0,160.0,-20.0,0
7.0,-258.0,-67.0,-51.0,172.0,-30.0,0
6.0,-257.0,-65.0,-72.0,180.0,-20.0,0
8.0,-257.0,-64.0,-78.0,182.0,-21.0,0
2.0,-261.0,-63.0,-69.0,183.0,-22.0,0
-2.0,-257.0,-61.0,-55.0,177.0,-26.0,0
-11.0,-250.0,-60.0,-43.0,165.0,-21.0,0
-4.0,-250.0,-67.0,-28.0,150.0,-19.0,0
-7.0,-248.0,-64.0,-13.0,134.0,-21.0,0
-5.0,-259.0,-73.0,-9.0,120.0,-42.0,0
-12.0,-251.0,-64.0,-58.0,113.0,-56.0,0
-10.0,-238.0,-61.0,-61.0,105.0,-43.0,0
-7.0,-239.0,-61.0,-22.0,99.0,-17.0,0
-8.0,-238.0,-63.0,0.0,96.0,-10.0,0
-8.0,-233.0,-63.0,-4.0,94.0,-12.0,0
-6.0,-233.0,-56.0,-17.0,90.0,-18.0,0
-6.0,-233.0,-58.0,-33.0,88.0,-19.0,0
10.0,-234.0,-67.0,-52.0,85.0,-24.0,0
-8.0,-233.0,-53.0,-70.0,82.0,-22.0,0
-9.0,-234.0,-56.0,-88.0,77.0,-24.0,0
-9.0,-241.0,-51.0,-105.0,72.0,-22.0,0
-7.0,-242.0,-59.0,-122.0,65.0,-25.0,0
-7.0,-243.0,-50.0,-136.0,59.0,-21.0,0
-4.0,-247.0,-52.0,-145.0,54.0,-21.0,0
-2.0,-248.0,-53.0,-153.0,50.0,-17.0,0
-5.0,-250.0,-49.0,-155.0,44.0,-19.0,0
-6.0,-256.0,-58.0,-158.0,41.0,-17.0,0
0.0,-253.0,-58.0,-159.0,38.0,-16.0,0
-7.0,-240.0,-74.0,-161.0,36.0,-9.0,0
-3.0,-256.0,-59.0,-157.0,36.0,-10.0,0
-2.0,-251.0,-61.0,-148.0,35.0,-6.0,0
-1.0,-253.0,-63.0,-136.0,38.0,-7.0,0
2.0,-255.0,-63.0,-122.0,40.0,-6.0,0
1.0,-252.0,-66.0,-101.0,45.0,-17.0,0
1.0,-254.0,-68.0,-79.0,47.0,-17.0,0
2.0,-254.0,-57.0,-64.0,48.0,-19.0,0
5.0,-250.0,-62.0,-64.0,45.0,-7.0,0
12.0,-246.0,-63.0,-56.0,38.0,-6.0,0
10.0,-244.0,-57.0,-42.0,32.0,-3.0,0
4.0,-251.0,-61.0,-25.0,26.0,-1.0,0
6.0,-253.0,-62.0,-15.0,24.0,9.0,0
6.0,-255.0,-63.0,-9.0,26.0,13.0,0
5.0,-254.0,-61.0,-7.0,32.0,20.0,0
7.0,-255.0,-60.0,4.0,35.0,23.0,0
3.0,-253.0,-59.0,14.0,37.0,28.0,0
2.0,-253.0,-57.0,24.0,34.0,24.0,0
3.0,-247.0,-61.0,34.0,34.0,24.0,0
-3.0,-248.0,-62.0,41.0,30.0,23.0,0
-2.0,-249.0,-62.0,41.0,29.0,23.0,0
-9.0,-248.0,-58.0,39.0,26.0,17.0,0
-2.0,-243.0,-62.0,28.0,23.0,15.0,0
-3.0,-242.0,-65.0,13.0,22.0,9.0,0
-4.0,-240.0,-59.0,-1.0,17.0,8.0,0
-2.0,-241.0,-64.0,-12.0,17.0,0.0,0
-1.0,-246.0,-58.0,-19.0,15.0,-2.0,0
-1.0,-241.0,-58.0,-25.0,16.0,-7.0,0
-2.0,-247.0,-59.0,-26.0,14.0,-6.0,0
-4.0,-247.0,-55.0,-24.0,9.0,-8.0,0
-1.0,-248.0,-58.0,-20.0,8.0,-4.0,0
-1.0,-250.0,-58.0,-15.0,8.0,-5.0,0
-1.0,-252.0,-66.0,-7.0,10.0,-2.0,0
3.0,-253.0,-64.0,2.0,10.0,-4.0,0
1.0,-255.0,-62.0,10.0,13.0,-2.0,0
3.0,-255.0,-65.0,19.0,17.0,-4.0,0
0.0,-256.0,-64.0,29.0,18.0,-2.0,0
1.0,-255.0,-63.0,38.0,20.0,-7.0,0
2.0,-254.0,-64.0,48.0,21.0,-8.0,0
-1.0,-250.0,-62.0,56.0,24.0,-14.0,0
4.0,-254.0,-63.0,68.0,28.0,-15.0,0
-1.0,-250.0,-65.0,77.0,33.0,-20.0,0
0.0,-253.0,-64.0,86.0,35.0,-23.0,0
-3.0,-250.0,-56.0,87.0,39.0,-26.0,0
3.0,-248.0,-61.0,84.0,40.0,-28.0,0
0.0,-247.0,-64.0,81.0,42.0,-31.0,0
1.0,-250.0,-62.0,72.0,47.0,-31.0,0
3.0,-249.0,-57.0,65.0,48.0,-34.0,0
-1.0,-250.0,-59.0,59.0,54.0,-31.0,0
0.0,-251.0,-60.0,54.0,57.0,-31.0,0
-2.0,-248.0,-53.0,52.0,59.0,-29.0,0
3.0,-245.0,-59.0,50.0,61.0,-30.0,0
-2.0,-244.0,-58.0,46.0,63.0,-26.0,0
1.0,-247.0,-58.0,40.0,65.0,-28.0,0
3.0,-244.0,-50.0,25.0,66.0,-24.0,0
1.0,-247.0,-58.0,10.0,68.0,-25.0,0
-1.0,-246.0,-62.0,-6.0,72.0,-22.0,0
0.0,-247.0,-59.0,-19.0,76.0,-24.0,0
-2.0,-245.0,-61.0,-29.0,79.0,-21.0,0
0.0,-248.0,-60.0,-37.0,81.0,-24.0,0
-3.0,-248.0,-59.0,-39.0,85.0,-23.0,0
-4.0,-253.0,-59.0,-37.0,86.0,-26.0,0
-3.0,-252.0,-63.0,-33.0,91.0,-25.0,0
-4.0,-251.0,-59.0,-28.0,93.0,-28.0,0
-3.0,-254.0,-58.0,-21.0,96.0,-26.0,0
0.0,-246.0,-59.0,-19.0,101.0,-28.0,0
-6.0,-247.0,-62.0,-18.0,103.0,-25.0,0
-4.0,-251.0,-61.0,-19.0,105.0,-26.0,0
-6.0,-248.0,-64.0,-22.0,107.0,-21.0,0
-5.0,-249.0,-64.0,-25.0,106.0,-22.0,0
-7.0,-251.0,-67.0,-27.0,103.0,-17.0,0
-5.0,-250.0,-67.0,-26.0,101.0,-17.0,0
-9.0,-244.0,-64.0,-20.0,97.0,-13.0,0
-6.0,-253.0,-63.0,-16.0,95.0,-15.0,0
-4.0,-251.0,-60.0,-12.0,95.0,-13.0,0
-2.0,-250.0,-63.0,-7.0,97.0,-14.0,0
-2.0,-252.0,-60.0,-6.0,96.0,-11.0,0
-3.0,-250.0,-63.0,-4.0,92.0,-14.0,0
-2.0,-252.0,-64.0,-2.0,90.0,-12.0,0
-6.0,-249.0,-60.0,0.0,86.0,-13.0,0
-5.0,-248.0,-62.0,-2.0,84.0,-9.0,0
-5.0,-249.0,-58.0,-4.0,82.0,-11.0,0
-8.0,-250.0,-59.0,-9.0,78.0,-9.0,0
-6.0,-249.0,-59.0,-11.0,73.0,-10.0,0
-9.0,-253.0,-55.0,-10.0,70.0,-6.0,0
-8.0,-254.0,-64.0,-6.0,65.0,-8.0,0
-6.0,-251.0,-57.0,5.0,60.0,-5.0,0
-13.0,-242.0,-63.0,17.0,55.0,-8.0,0
-5.0,-249.0,-58.0,30.0,52.0,-4.0,0
-9.0,-248.0,-57.0,42.0,45.0,-6.0,0
-7.0,-244.0,-59.0,48.0,37.0,-2.0,0
-7.0,-246.0,-58.0,43.0,32.0,-2.0,0
-5.0,-245.0,-62.0,28.0,28.0,3.0,0
-6.0,-245.0,-60.0,12.0,26.0,2.0,0
-5.0,-248.0,-54.0,-2.0,25.0,6.0,0
-4.0,-249.0,-56.0,-8.0,26.0,3.0,0
-3.0,-250.0,-57.0,-7.0,27.0,6.0,0
-6.0,-248.0,-54.0,-2.0,27.0,4.0,0
7.0,-251.0,-50.0,5.0,26.0,8.0,0
-1.0,-247.0,-53.0,12.0,25.0,3.0,0
-3.0,-247.0,-58.0,17.0,23.0,5.0,0
-2.0,-249.0,-56.0,15.0,22.0,2.0,0
1.0,-248.0,-60.0,9.0,20.0,1.0,0
-1.0,-248.0,-59.0,1.0,18.0,-1.0,0
0.0,-249.0,-58.0,-6.0,19.0,-1.0,0
-1.0,-252.0,-60.0,-12.0,19.0,-4.0,0
-2.0,-250.0,-61.0,-12.0,20.0,-2.0,0
-6.0,-255.0,-59.0,-10.0,21.0,-4.0,0
14.0,-240.0,-67.0,-3.0,22.0,-3.0,0
0.0,-252.0,-59.0,4.0,21.0,-6.0,0
1.0,-252.0,-61.0,13.0,23.0,-4.0,0
-1.0,-252.0,-56.0,21.0,23.0,-5.0,0
0.0,-251.0,-62.0,27.0,25.0,-4.0,0
2.0,-253.0,-61.0,31.0,26.0,-7.0,0
-1.0,-252.0,-59.0,36.0,28.0,-4.0,0
-3.0,-252.0,-55.0,42.0,31.0,-9.0,0
2.0,-250.0,-58.0,47.0,33.0,-7.0,0
-3.0,-253.0,-57.0,50.0,36.0,-10.0,0
-2.0,-252.0,-59.0,57.0,39.0,-10.0,0
0.0,-260.0,-54.0,61.0,43.0,-13.0,0
3.0,-252.0,-61.0,63.0,48.0,-12.0,0
-1.0,-250.0,-59.0,63.0,51.0,-16.0,0
1.0,-250.0,-59.0,62.0,55.0,-15.0,0
2.0,-249.0,-61.0,61.0,57.0,-18.0,0
-1.0,-252.0,-59.0,60.0,59.0,-18.0,0
-2.0,-248.0,-62.0,57.0,62.0,-20.0,0
-3.0,-247.0,-56.0,54.0,66.0,-20.0,0
0.0,-249.0,-57.0,52.0,69.0,-24.0,0
1.0,-253.0,-56.0,50.0,73.0,-21.0,0
-2.0,-251.0,-55.0,50.0,78.0,-23.0,0
-11.0,-249.0,-52.0,49.0,82.0,-20.0,0
2.0,-248.0,-54.0,48.0,85.0,-23.0,0
-2.0,-249.0,-53.0,47.0,88.0,-20.0,0
0.0,-247.0,-53.0,44.0,91.0,-21.0,0
0.0,-247.0,-57.0,41.0,93.0,-16.0,0
-1.0,-248.0,-57.0,35.0,96.0,-17.0,0
1.0,-246.0,-58.0,31.0,100.0,-13.0,0
-3.0,-247.0,-54.0,28.0,103.0,-14.0,0
-2.0,-248.0,-49.0,28.0,107.0,-13.0,0
-1.0,-247.0,-54.0,27.0,113.0,-13.0,0
0.0,-247.0,-54.0,28.0,117.0,-10.0,0
-2.0,-253.0,-41.0,27.0,121.0,-11.0,0
0.0,-245.0,-57.0,25.0,124.0,-8.0,0
1.0,-246.0,-55.0,19.0,126.0,-6.0,0
1.0,-246.0,-56.0,15.0,126.0,-3.0,0
0.0,-246.0,-56.0,6.0,127.0,-3.0,0
-1.0,-248.0,-53.0,-3.0,131.0,2.0,0
2.0,-247.0,-54.0,-8.0,133.0,1.0,0
1.0,-251.0,-59.0,-14.0,135.0,5.0,0
1.0,-248.0,-54.0,-17.0,135.0,4.0,0
-4.0,-255.0,-54.0,-16.0,135.0,7.0,0
2.0,-252.0,-58.0,-12.0,133.0,8.0,0
-9.0,-248.0,-59.0,-6.0,129.0,12.0,0
-3.0,-250.0,-59.0,0.0,128.0,13.0,0
-3.0,-250.0,-55.0,6.0,126.0,16.0,0
-3.0,-249.0,-60.0,7.0,125.0,15.0,0
0.0,-248.0,-60.0,9.0,125.0,17.0,0
-1.0,-251.0,-57.0,8.0,124.0,14.0,0
-2.0,-247.0,-59.0,6.0,127.0,16.0,0
-1.0,-250.0,-57.0,6.0,130.0,13.0,0
1.0,-251.0,-57.0,6.0,131.0,12.0,0
-3.0,-252.0,-57.0,7.0,133.0,10.0,0
1.0,-251.0,-60.0,10.0,133.0,9.0,0
10.0,-247.0,-42.0,16.0,135.0,7.0,0
2.0,-252.0,-55.0,22.0,136.0,7.0,0
1.0,-250.0,-55.0,27.0,138.0,4.0,0
-2.0,-251.0,-60.0,31.0,139.0,5.0,0
-2.0,-248.0,-58.0,34.0,138.0,3.0,0
-2.0,-249.0,-55.0,39.0,139.0,2.0,0
-1.0,-250.0,-55.0,41.0,138.0,1.0,0
3.0,-251.0,-55.0,41.0,137.0,2.0,0
1.0,-252.0,-52.0,39.0,135.0,0.0,0
1.0,-252.0,-53.0,38.0,133.0,1.0,0
0.0,-252.0,-56.0,35.0,129.0,0.0,0
11.0,-243.0,-61.0,32.0,127.0,1.0,0
0.0,-252.0,-53.0,31.0,126.0,-3.0,0
1.0,-251.0,-55.0,28.0,126.0,1.0,0
2.0,-252.0,-55.0,28.0,125.0,-2.0,0
3.0,-248.0,-53.0,27.0,126.0,0.0,0
-1.0,-248.0,-55.0,24.0,126.0,-1.0,0
1.0,-250.0,-55.0,22.0,124.0,1.0,0
0.0,-250.0,-54.0,21.0,122.0,0.0,0
1.0,-246.0,-55.0,20.0,122.0,1.0,0
2.0,-252.0,-54.0,17.0,123.0,-2.0,0
2.0,-250.0,-55.0,16.0,123.0,0.0,0
-2.0,-251.0,-46.0,16.0,122.0,-3.0,0
-1.0,-253.0,-47.0,18.0,125.0,-2.0,0
-3.0,-249.0,-53.0,19.0,125.0,-5.0,0
2.0,-254.0,-53.0,18.0,126.0,-6.0,0
3.0,-253.0,-51.0,20.0,128.0,-8.0,0
3.0,-251.0,-55.0,19.0,130.0,-9.0,0
0.0,-252.0,-52.0,20.0,131.0,-11.0,0
0.0,-252.0,-55.0,22.0,133.0,-11.0,0
2.0,-252.0,-55.0,24.0,136.0,-13.0,0
3.0,-246.0,-56.0,26.0,136.0,-12.0,0
3.0,-248.0,-50.0,26.0,134.0,-14.0,0
10.0,-263.0,-39.0,27.0,134.0,-14.0,0
3.0,-247.0,-56.0,24.0,135.0,-14.0,0
4.0,-250.0,-55.0,22.0,135.0,-11.0,0
6.0,-252.0,-52.0,20.0,132.0,-11.0,0
6.0,-251.0,-53.0,19.0,131.0,-8.0,0
3.0,-251.0,-56.0,16.0,132.0,-7.0,0
4.0,-249.0,-56.0,12.0,132.0,-6.0,0
1.0,-251.0,-59.0,7.0,134.0,-5.0,0
3.0,-248.0,-46.0,0.0,138.0,-3.0,0
2.0,-248.0,-52.0,-6.0,140.0,-2.0,0
2.0,-253.0,-50.0,-8.0,142.0,1.0,0
5.0,-248.0,-49.0,-7.0,143.0,-1.0,0
0.0,-250.0,-53.0,-1.0,143.0,1.0,0
-3.0,-254.0,-56.0,15.0,144.0,-1.0,0
-1.0,-252.0,-52.0,33.0,144.0,-2.0,0
-1.0,-251.0,-55.0,52.0,142.0,-4.0,0
-3.0,-252.0,-61.0,67.0,142.0,-5.0,0
-1.0,-252.0,-59.0,77.0,141.0,-6.0,0
-2.0,-251.0,-54.0,79.0,143.0,-7.0,0
1.0,-248.0,-61.0,77.0,145.0,-8.0,0
-1.0,-251.0,-55.0,74.0,151.0,-4.0,0
5.0,-237.0,-61.0,71.0,157.0,-5.0,0
-1.0,-252.0,-50.0,71.0,162.0,-3.0,0
1.0,-253.0,-48.0,69.0,165.0,-1.0,0
2.0,-251.0,-52.0,69.0,166.0,2.0,0
4.0,-254.0,-48.0,72.0,162.0,2.0,0
-1.0,-249.0,-48.0,72.0,157.0,5.0,0
-3.0,-251.0,-48.0,70.0,152.0,5.0,0
-2.0,-248.0,-50.0,70.0,145.0,7.0,0
-3.0,-252.0,-53.0,65.0,142.0,6.0,0
-1.0,-245.0,-52.0,58.0,137.0,8.0,0
-4.0,-249.0,-54.0,53.0,133.0,6.0,0
2.0,-247.0,-52.0,49.0,131.0,6.0,0
-2.0,-251.0,-47.0,47.0,134.0,3.0,0
-2.0,-251.0,-48.0,48.0,134.0,2.0,0
-3.0,-251.0,-46.0,53.0,136.0,1.0,0
-3.0,-252.0,-45.0,57.0,136.0,0.0,0
-2.0,-252.0,-47.0,61.0,135.0,-3.0,0
-2.0,-250.0,-48.0,62.0,133.0,-3.0,0
-3.0,-251.0,-49.0,62.0,130.0,-5.0,0
0.0,-254.0,-48.0,60.0,128.0,-4.0,0
-1.0,-252.0,-51.0,54.0,128.0,-4.0,0
-4.0,-250.0,-49.0,47.0,128.0,-6.0,0
-6.0,-257.0,-32.0,40.0,128.0,-6.0,0
0.0,-250.0,-49.0,33.0,127.0,-6.0,0
-1.0,-250.0,-47.0,28.0,126.0,-7.0,0
-1.0,-251.0,-48.0,24.0,125.0,-7.0,0
-3.0,-249.0,-51.0,23.0,123.0,-7.0,0
-2.0,-249.0,-50.0,21.0,121.0,-6.0,0
-3.0,-249.0,-50.0,22.0,117.0,-7.0,0
-3.0,-252.0,-51.0,23.0,113.0,-7.0,0
0.0,-247.0,-48.0,23.0,109.0,-7.0,0
-1.0,-250.0,-52.0,25.0,106.0,-8.0,0
-2.0,-251.0,-48.0,26.0,103.0,-9.0,0
-2.0,-239.0,-60.0,23.0,99.0,-10.0,0
-2.0,-250.0,-52.0,22.0,95.0,-11.0,0
-6.0,-248.0,-48.0,19.0,93.0,-11.0,0
-2.0,-254.0,-49.0,19.0,92.0,-13.0,0
-5.0,-249.0,-48.0,17.0,90.0,-14.0,0
-1.0,-251.0,-52.0,16.0,90.0,-13.0,0
-1.0,-250.0,-46.0,18.0,87.0,-12.0,0
-3.0,-249.0,-46.0,20.0,85.0,-11.0,0
0.0,-249.0,-53.0,21.0,82.0,-10.0,0
-5.0,-250.0,-46.0,22.0,79.0,-10.0,0
-1.0,-248.0,-47.0,20.0,78.0,-9.0,0
-2.0,-238.0,-60.0,18.0,74.0,-9.0,0
-1.0,-246.0,-48.0,16.0,70.0,-8.0,0
-5.0,-247.0,-48.0,13.0,68.0,-8.0,0
0.0,-251.0,-49.0,9.0,64.0,-7.0,0
-2.0,-250.0,-48.0,5.0,62.0,-7.0,0
-2.0,-249.0,-48.0,2.0,59.0,-5.0,0
-1.0,-249.0,-46.0,0.0,58.0,-5.0,0
-2.0,-247.0,-48.0,0.0,56.0,-5.0,0
-2.0,-252.0,-51.0,-1.0,54.0,-5.0,0
-2.0,-249.0,-47.0,-1.0,50.0,-6.0,0
-2.0,-253.0,-52.0,0.0,48.0,-5.0,0
-4.0,-254.0,-40.0,2.0,45.0,-5.0,0
-2.0,-250.0,-47.0,3.0,45.0,-6.0,0
-1.0,-251.0,-49.0,3.0,44.0,-6.0,0
1.0,-253.0,-52.0,2.0,41.0,-4.0,0
-1.0,-250.0,-48.0,-4.0,40.0,-4.0,0
0.0,-247.0,-48.0,-10.0,38.0,-5.0,0
-2.0,-248.0,-49.0,-19.0,35.0,-4.0,0
0.0,-248.0,-47.0,-25.0,34.0,-4.0,0
-2.0,-249.0,-48.0,-32.0,33.0,-5.0,0
-1.0,-250.0,-46.0,-34.0,32.0,-5.0,0
1.0,-250.0,-45.0,-35.0,34.0,-4.0,0
5.0,-250.0,-48.0,-33.0,32.0,-4.0,0
0.0,-254.0,-49.0,-26.0,34.0,-4.0,0
0.0,-255.0,-50.0,-21.0,35.0,-5.0,0
1.0,-253.0,-50.0,-11.0,38.0,-7.0,0
0.0,-255.0,-49.0,2.0,40.0,-10.0,0
0.0,-254.0,-50.0,17.0,44.0,-12.0,0
0.0,-256.0,-50.0,31.0,46.0,-14.0,0
0.0,-252.0,-52.0,43.0,47.0,-17.0,0
1.0,-253.0,-52.0,52.0,47.0,-17.0,0
-2.0,-253.0,-53.0,59.0,47.0,-17.0,0
-1.0,-250.0,-51.0,62.0,45.0,-18.0,0
-9.0,-246.0,-55.0,63.0,46.0,-17.0,0
-2.0,-249.0,-52.0,60.0,45.0,-18.0,0
-1.0,-247.0,-50.0,51.0,44.0,-16.0,0
1.0,-248.0,-50.0,43.0,44.0,-15.0,0
0.0,-248.0,-49.0,29.0,44.0,-15.0,0
2.0,-249.0,-48.0,20.0,42.0,-14.0,0
0.0,-247.0,-49.0,13.0,41.0,-14.0,0
3.0,-246.0,-50.0,6.0,41.0,-13.0,0
2.0,-250.0,-45.0,3.0,40.0,-10.0,0
2.0,-249.0,-52.0,1.0,42.0,-11.0,0
3.0,-251.0,-46.0,2.0,43.0,-10.0,0
15.0,-259.0,-45.0,6.0,44.0,-11.0,0
1.0,-252.0,-46.0,11.0,44.0,-11.0,0
1.0,-251.0,-48.0,16.0,47.0,-9.0,0
0.0,-252.0,-49.0,25.0,48.0,-11.0,0
0.0,-248.0,-52.0,30.0,48.0,-9.0,0
1.0,-250.0,-52.0,34.0,49.0,-10.0,0
4.0,-250.0,-48.0,32.0,53.0,-9.0,0
1.0,-250.0,-56.0,32.0,54.0,-7.0,0
1.0,-248.0,-51.0,29.0,54.0,-6.0,0
1.0,-251.0,-41.0,26.0,54.0,-4.0,0
-6.0,-246.0,-43.0,27.0,52.0,-3.0,0
1.0,-248.0,-42.0,27.0,53.0,-3.0,0
-1.0,-249.0,-45.0,29.0,53.0,-1.0,0
0.0,-250.0,-48.0,28.0,54.0,-2.0,0
-1.0,-249.0,-43.0,25.0,52.0,1.0,0
-1.0,-250.0,-44.0,19.0,51.0,0.0,0
-4.0,-251.0,-46.0,11.0,50.0,2.0,0
2.0,-255.0,-41.0,2.0,47.0,3.0,0
0.0,-250.0,-38.0,-5.0,45.0,4.0,0
-1.0,-250.0,-38.0,-8.0,42.0,6.0,0
0.0,-254.0,-44.0,-13.0,37.0,6.0,0
