ax,ay,az,gx,gy,gz,label
-12.0,-255.0,-19.0,-20.0,69.0,-4.0,0
-14.0,-253.0,-20.0,-21.0,68.0,-4.0,0
-12.0,-256.0,-19.0,-22.0,69.0,-4.0,0
-10.0,-256.0,-20.0,-24.0,67.0,-5.0,0
-10.0,-256.0,-19.0,-25.0,66.0,-5.0,0
-12.0,-253.0,-10.0,-23.0,65.0,-3.0,0
-11.0,-257.0,-23.0,-23.0,65.0,-4.0,0
-11.0,-254.0,-19.0,-23.0,66.0,-3.0,0
-12.0,-257.0,-20.0,-22.0,66.0,-4.0,0
-10.0,-258.0,-20.0,-21.0,67.0,-4.0,0
-9.0,-258.0,-19.0,-20.0,67.0,-4.0,0
-9.0,-259.0,-19.0,-20.0,68.0,-3.0,0
-14.0,-256.0,-21.0,-20.0,68.0,-5.0,0
-10.0,-257.0,-24.0,-19.0,67.0,-6.0,0
-13.0,-255.0,-21.0,-19.0,68.0,-6.0,0
-11.0,-256.0,-20.0,-17.0,68.0,-5.0,0
-10.0,-256.0,-20.0,-15.0,68.0,-5.0,0
-11.0,-254.0,-20.0,-15.0,69.0,-6.0,0
-22.0,-242.0,-9.0,-14.0,71.0,-6.0,0
-12.0,-254.0,-18.0,-14.0,69.0,-6.0,0
-11.0,-258.0,-19.0,-15.0,66.0,-5.0,0
-14.0,-252.0,-22.0,-17.0,67.0,-5.0,0
-12.0,-256.0,-20.0,-20.0,67.0,-5.0,0
-12.0,-254.0,-19.0,-21.0,68.0,-4.0,0
-13.0,-258.0,-20.0,-22.0,68.0,-3.0,0
-13.0,-261.0,-16.0,-22.0,66.0,-3.0,0
-10.0,-258.0,-19.0,-19.0,65.0,-4.0,0
-9.0,-256.0,-19.0,-17.0,64.0,-4.0,0
-13.0,-259.0,-20.0,-14.0,64.0,-2.0,0
-12.0,-257.0,-20.0,-14.0,62.0,-2.0,0
-10.0,-258.0,-24.0,-13.0,62.0,-3.0,0
-14.0,-252.0,-22.0,-12.0,63.0,-3.0,0
-14.0,-256.0,-21.0,-13.0,64.0,-3.0,0
-10.0,-255.0,-20.0,-14.0,66.0,-6.0,0
-14.0,-253.0,-20.0,-14.0,68.0,-5.0,0
-11.0,-255.0,-19.0,-14.0,68.0,-4.0,0
-10.0,-258.0,-18.0,-16.0,68.0,-4.0,0
-11.0,-257.0,-19.0,-16.0,65.0,-6.0,0
-10.0,-257.0,-19.0,-15.0,66.0,-6.0,0
-12.0,-253.0,-21.0,-17.0,65.0,-5.0,0
-11.0,-254.0,-19.0,-18.0,64.0,-5.0,0
-11.0,-255.0,-19.0,-20.0,64.0,-6.0,0
-13.0,-255.0,-21.0,-21.0,64.0,-4.0,0
-11.0,-256.0,-19.0,-22.0,64.0,-5.0,0
-11.0,-252.0,-20.0,-23.0,64.0,-5.0,0
-12.0,-257.0,-20.0,-22.0,64.0,-4.0,0
-11.0,-255.0,-20.0,-21.0,65.0,-4.0,0
-13.0,-254.0,-20.0,-22.0,64.0,-4.0,0
-16.0,-261.0,-19.0,-21.0,63.0,-5.0,0
-13.0,-255.0,-19.0,-21.0,64.0,-5.0,0
-10.0,-256.0,-20.0,-20.0,63.0,-4.0,0
-12.0,-253.0,-18.0,-22.0,64.0,-5.0,0
-11.0,-256.0,-20.0,-23.0,62.0,-5.0,0
-9.0,-257.0,-18.0,-24.0,62.0,-3.0,0
-13.0,-253.0,-18.0,-25.0,63.0,-3.0,0
-12.0,-256.0,-21.0,-27.0,63.0,-3.0,0
-11.0,-256.0,-20.0,-30.0,62.0,-4.0,0
-10.0,-254.0,-20.0,-32.0,61.0,-4.0,0
-11.0,-253.0,-19.0,-34.0,63.0,-4.0,0
-14.0,-255.0,-19.0,-36.0,62.0,-5.0,0
-10.0,-258.0,-19.0,-38.0,62.0,-5.0,0
-11.0,-256.0,-19.0,-37.0,62.0,-4.0,0
-13.0,-255.0,-18.0,-36.0,62.0,-5.0,0
-12.0,-254.0,-20.0,-35.0,63.0,-3.0,0
-11.0,-256.0,-18.0,-33.0,63.0,-4.0,0
-12.0,-253.0,-23.0,-31.0,64.0,-4.0,0
-12.0,-257.0,-20.0,-30.0,64.0,-3.0,0
-12.0,-256.0,-20.0,-30.0,63.0,-2.0,0
-10.0,-256.0,-19.0,-30.0,64.0,-4.0,0
-13.0,-256.0,-20.0,-30.0,63.0,-3.0,0
-11.0,-250.0,-18.0,-33.0,62.0,-4.0,0
-10.0,-255.0,-20.0,-36.0,64.0,-5.0,0
-10.0,-255.0,-19.0,-38.0,65.0,-4.0,0
-12.0,-256.0,-19.0,-37.0,67.0,-3.0,0
-14.0,-253.0,-20.0,-35.0,68.0,-4.0,0
-10.0,-255.0,-21.0,-33.0,69.0,-4.0,0
-12.0,-254.0,-20.0,-30.0,69.0,-4.0,0
-12.0,-255.0,-20.0,-29.0,68.0,-4.0,0
-9.0,-258.0,-21.0,-29.0,68.0,-5.0,0
-11.0,-256.0,-18.0,-30.0,65.0,-4.0,0
-12.0,-254.0,-20.0,-32.0,65.0,-5.0,0
-11.0,-257.0,-20.0,-33.0,65.0,-5.0,0
-12.0,-254.0,-21.0,-35.0,65.0,-4.0,0
-9.0,-257.0,-24.0,-37.0,65.0,-3.0,0
-11.0,-255.0,-22.0,-36.0,64.0,-3.0,0
-12.0,-256.0,-19.0,-38.0,65.0,-3.0,0
-11.0,-254.0,-18.0,-37.0,66.0,-4.0,0
-12.0,-257.0,-20.0,-39.0,66.0,-3.0,0
-10.0,-256.0,-21.0,-39.0,66.0,-1.0,0
-11.0,-256.0,-20.0,-40.0,64.0,-3.0,0
-12.0,-256.0,-21.0,-39.0,66.0,-3.0,0
-13.0,-256.0,-19.0,-36.0,66.0,-4.0,0
-14.0,-254.0,-27.0,-30.0,67.0,-4.0,0
-11.0,-256.0,-19.0,-24.0,68.0,-3.0,0
-9.0,-255.0,-20.0,-19.0,66.0,-5.0,0
-10.0,-254.0,-18.0,-15.0,65.0,-5.0,0
-12.0,-251.0,-22.0,-13.0,64.0,-5.0,0
-12.0,-254.0,-21.0,-14.0,62.0,-4.0,0
-10.0,-255.0,-22.0,-16.0,61.0,-5.0,0
-12.0,-255.0,-21.0,-19.0,61.0,-5.0,0
-11.0,-258.0,-20.0,-22.0,62.0,-4.0,0
-9.0,-255.0,-25.0,-25.0,62.0,-3.0,0
-9.0,-256.0,-22.0,-28.0,62.0,-4.0,0
-13.0,-253.0,-19.0,-29.0,64.0,-5.0,0
-12.0,-258.0,-19.0,-29.0,64.0,-4.0,0
-11.0,-259.0,-25.0,-29.0,64.0,-3.0,0
-11.0,-258.0,-23.0,-30.0,65.0,-5.0,0
-12.0,-257.0,-20.0,-28.0,65.0,-3.0,0
-10.0,-255.0,-21.0,-23.0,66.0,-3.0,0
-12.0,-255.0,-21.0,-20.0,65.0,-4.0,0
-10.0,-257.0,-21.0,-17.0,66.0,-4.0,0
-11.0,-256.0,-17.0,-13.0,68.0,-3.0,0
-9.0,-257.0,-18.0,-8.0,67.0,-4.0,0
-10.0,-258.0,-21.0,-3.0,67.0,-4.0,0
-12.0,-254.0,-20.0,-3.0,65.0,-6.0,0
-11.0,-252.0,-22.0,-7.0,67.0,-6.0,0
-10.0,-251.0,-19.0,-12.0,68.0,-6.0,0
-9.0,-253.0,-20.0,-17.0,67.0,-6.0,0
-12.0,-252.0,-18.0,-21.0,68.0,-7.0,0
-11.0,-252.0,-20.0,-24.0,66.0,-7.0,0
-10.0,-257.0,-18.0,-23.0,62.0,-5.0,0
-13.0,-258.0,-21.0,-22.0,61.0,-4.0,0
-10.0,-255.0,-19.0,-20.0,61.0,-4.0,0
-11.0,-254.0,-20.0,-17.0,62.0,-2.0,0
-11.0,-257.0,-21.0,-15.0,63.0,-3.0,0
-10.0,-256.0,-19.0,-12.0,64.0,-2.0,0
-9.0,-256.0,-19.0,-13.0,64.0,-3.0,0
-13.0,-255.0,-19.0,-12.0,67.0,-3.0,0
-13.0,-253.0,-20.0,-14.0,69.0,-4.0,0
-11.0,-256.0,-19.0,-13.0,69.0,-4.0,0
-10.0,-254.0,-20.0,-16.0,68.0,-4.0,0
-9.0,-256.0,-22.0,-17.0,69.0,-3.0,0
-12.0,-255.0,-21.0,-18.0,67.0,-2.0,0
-11.0,-255.0,-20.0,-20.0,67.0,-3.0,0
-11.0,-255.0,-19.0,-19.0,65.0,-2.0,0
-12.0,-255.0,-20.0,-19.0,66.0,-2.0,0
-10.0,-258.0,-23.0,-17.0,66.0,-2.0,0
-11.0,-260.0,-22.0,-15.0,66.0,-1.0,0
-10.0,-259.0,-22.0,-12.0,66.0,-3.0,0
-11.0,-255.0,-21.0,-11.0,66.0,-1.0,0
-12.0,-254.0,-21.0,-10.0,65.0,-3.0,0
-10.0,-254.0,-19.0,-6.0,65.0,-2.0,0
-11.0,-256.0,-21.0,-5.0,65.0,-3.0,0
-10.0,-255.0,-17.0,-5.0,66.0,-4.0,0
-13.0,-254.0,-20.0,-4.0,67.0,-4.0,0
-10.0,-252.0,-18.0,-4.0,67.0,-3.0,0
-11.0,-254.0,-22.0,-2.0,67.0,-3.0,0
-11.0,-253.0,-20.0,-2.0,68.0,-3.0,0
-10.0,-254.0,-20.0,-3.0,66.0,-3.0,0
-10.0,-253.0,-20.0,-4.0,66.0,-3.0,0
-11.0,-256.0,-19.0,-4.0,66.0,-3.0,0
-12.0,-256.0,-21.0,-7.0,66.0,-3.0,0
-9.0,-254.0,-19.0,-9.0,67.0,-3.0,0
-10.0,-259.0,-18.0,-9.0,67.0,-3.0,0
-10.0,-254.0,-20.0,-10.0,68.0,-5.0,0
-10.0,-259.0,-20.0,-7.0,68.0,-5.0,0
-11.0,-252.0,-16.0,-4.0,67.0,-4.0,0
-12.0,-256.0,-22.0,-2.0,67.0,-5.0,0
-11.0,-256.0,-18.0,1.0,67.0,-4.0,0
-14.0,-252.0,-23.0,0.0,65.0,-4.0,0
-13.0,-255.0,-24.0,-2.0,66.0,-4.0,0
-12.0,-255.0,-20.0,-3.0,65.0,-5.0,0
-12.0,-255.0,-20.0,-4.0,66.0,-4.0,0
-9.0,-256.0,-21.0,-4.0,67.0,-4.0,0
-11.0,-254.0,-20.0,-4.0,66.0,-4.0,0
-13.0,-255.0,-20.0,-4.0,66.0,-4.0,0
-13.0,-255.0,-19.0,-5.0,67.0,-4.0,0
-11.0,-252.0,-20.0,-6.0,67.0,-3.0,0
-11.0,-256.0,-19.0,-6.0,66.0,-3.0,0
-11.0,-258.0,-20.0,-7.0,67.0,-4.0,0
-12.0,-252.0,-20.0,-5.0,67.0,-5.0,0
-10.0,-253.0,-19.0,-4.0,65.0,-2.0,0
-14.0,-257.0,-19.0,-4.0,65.0,-3.0,0
-11.0,-257.0,-20.0,-3.0,66.0,-3.0,0
-12.0,-256.0,-19.0,-2.0,67.0,-3.0,0
-11.0,-255.0,-20.0,-2.0,67.0,-2.0,0
-15.0,-252.0,-20.0,0.0,68.0,-3.0,0
-12.0,-257.0,-20.0,0.0,68.0,-4.0,0
-14.0,-257.0,-23.0,1.0,66.0,-3.0,0
-10.0,-252.0,-20.0,0.0,66.0,-4.0,0
-11.0,-253.0,-19.0,0.0,65.0,-5.0,0
-10.0,-254.0,-19.0,-1.0,65.0,-2.0,0
-12.0,-254.0,-22.0,-3.0,64.0,-3.0,0
-12.0,-254.0,-20.0,-4.0,65.0,-3.0,0
-9.0,-257.0,-20.0,-4.0,66.0,-3.0,0
-13.0,-254.0,-20.0,-3.0,67.0,-4.0,0
-11.0,-256.0,-19.0,-1.0,68.0,-4.0,0
-11.0,-259.0,-20.0,-1.0,66.0,-3.0,0
-12.0,-257.0,-17.0,-2.0,67.0,-5.0,0
-16.0,-252.0,-21.0,-2.0,69.0,-4.0,0
-12.0,-255.0,-19.0,-2.0,70.0,-4.0,0
-10.0,-254.0,-19.0,-3.0,69.0,-5.0,0
-9.0,-257.0,-19.0,-2.0,69.0,-5.0,0
-12.0,-256.0,-20.0,-2.0,67.0,-5.0,0
-13.0,-256.0,-20.0,-2.0,68.0,-6.0,0
-9.0,-256.0,-19.0,-1.0,67.0,-7.0,0
-10.0,-254.0,-21.0,0.0,68.0,-5.0,0
-10.0,-254.0,-18.0,1.0,68.0,-7.0,0
-9.0,-256.0,-21.0,3.0,68.0,-5.0,0
-11.0,-256.0,-19.0,2.0,69.0,-4.0,0
-3.0,-254.0,-18.0,2.0,70.0,-4.0,0
-12.0,-255.0,-21.0,1.0,70.0,-4.0,0
-10.0,-255.0,-20.0,2.0,71.0,-4.0,0
-13.0,-253.0,-20.0,2.0,71.0,-3.0,0
-10.0,-256.0,-21.0,1.0,69.0,-4.0,0
-12.0,-257.0,-20.0,2.0,69.0,-4.0,0
-12.0,-256.0,-19.0,4.0,70.0,-4.0,0
-11.0,-257.0,-20.0,6.0,69.0,-4.0,0
-13.0,-254.0,-20.0,6.0,70.0,-5.0,0
-11.0,-255.0,-20.0,6.0,70.0,-6.0,0
-11.0,-257.0,-19.0,6.0,70.0,-4.0,0
-11.0,-255.0,-18.0,7.0,72.0,-4.0,0
-13.0,-255.0,-20.0,6.0,72.0,-4.0,0
-10.0,-254.0,-19.0,6.0,73.0,-5.0,0
-9.0,-254.0,-20.0,5.0,71.0,-4.0,0
-11.0,-255.0,-19.0,5.0,71.0,-6.0,0
-10.0,-256.0,-19.0,3.0,70.0,-4.0,0
-11.0,-256.0,-19.0,2.0,71.0,-4.0,0
-13.0,-254.0,-20.0,2.0,71.0,-4.0,0
-10.0,-261.0,-15.0,3.0,70.0,-3.0,0
-10.0,-257.0,-22.0,3.0,71.0,-3.0,0
-12.0,-257.0,-17.0,6.0,73.0,-3.0,0
-22.0,-257.0,-24.0,6.0,73.0,-4.0,0
-12.0,-258.0,-20.0,7.0,74.0,-4.0,0
-11.0,-258.0,-19.0,10.0,73.0,-4.0,0
-13.0,-257.0,-17.0,12.0,73.0,-7.0,0
-12.0,-257.0,-20.0,13.0,74.0,-6.0,0
-7.0,-257.0,-20.0,14.0,72.0,-7.0,0
-11.0,-253.0,-19.0,15.0,71.0,-6.0,0
-12.0,-256.0,-20.0,15.0,71.0,-5.0,0
-13.0,-254.0,-19.0,15.0,69.0,-5.0,0
-14.0,-254.0,-20.0,13.0,69.0,-4.0,0
-13.0,-253.0,-21.0,9.0,69.0,-5.0,0
-12.0,-257.0,-21.0,6.0,68.0,-5.0,0
-13.0,-255.0,-17.0,0.0,69.0,-5.0,0
-8.0,-257.0,-20.0,-6.0,72.0,-5.0,0
-11.0,-256.0,-21.0,-10.0,70.0,-5.0,0
-13.0,-255.0,-18.0,-9.0,71.0,-6.0,0
-9.0,-257.0,-17.0,-7.0,70.0,-5.0,0
-12.0,-258.0,-19.0,-3.0,70.0,-4.0,0
-11.0,-256.0,-18.0,3.0,70.0,-4.0,0
-12.0,-254.0,-21.0,10.0,69.0,-5.0,0
-14.0,-254.0,-23.0,15.0,68.0,-5.0,0
-15.0,-255.0,-19.0,17.0,69.0,-6.0,0
-7.0,-254.0,-16.0,14.0,69.0,-5.0,0
-8.0,-256.0,-18.0,12.0,71.0,-6.0,0
-10.0,-255.0,-19.0,11.0,72.0,-6.0,0
-13.0,-252.0,-17.0,8.0,71.0,-5.0,0
-10.0,-257.0,-16.0,6.0,73.0,-7.0,0
-11.0,-255.0,-18.0,3.0,72.0,-6.0,0
-10.0,-256.0,-17.0,-1.0,69.0,-6.0,0
-8.0,-255.0,-19.0,-3.0,68.0,-5.0,0
-11.0,-259.0,-18.0,-3.0,69.0,-4.0,0
-11.0,-257.0,-19.0,-1.0,69.0,-4.0,0
-14.0,-253.0,-22.0,2.0,69.0,-3.0,0
-13.0,-257.0,-17.0,7.0,68.0,-2.0,0
-13.0,-258.0,-18.0,10.0,68.0,-3.0,0
-13.0,-255.0,-16.0,13.0,68.0,-2.0,0
-11.0,-258.0,-15.0,12.0,69.0,-3.0,0
-13.0,-255.0,-18.0,11.0,70.0,-4.0,0
-11.0,-252.0,-17.0,8.0,70.0,-4.0,0
-8.0,-254.0,-20.0,2.0,70.0,-4.0,0
-10.0,-256.0,-20.0,-2.0,70.0,-2.0,0
-10.0,-257.0,-19.0,-6.0,70.0,-2.0,0
-13.0,-256.0,-17.0,-9.0,70.0,-3.0,0
-10.0,-257.0,-19.0,-9.0,70.0,-4.0,0
-11.0,-254.0,-21.0,-10.0,70.0,-4.0,0
-12.0,-256.0,-21.0,-8.0,70.0,-4.0,0
-10.0,-257.0,-18.0,-5.0,71.0,-5.0,0
-10.0,-255.0,-21.0,-2.0,72.0,-6.0,0
-10.0,-258.0,-18.0,1.0,71.0,-5.0,0
-12.0,-258.0,-19.0,4.0,70.0,-4.0,0
-10.0,-256.0,-16.0,4.0,70.0,-5.0,0
-14.0,-253.0,-18.0,4.0,70.0,-4.0,0
-10.0,-257.0,-15.0,4.0,71.0,-4.0,0
-14.0,-257.0,-22.0,1.0,72.0,-4.0,0
-12.0,-254.0,-17.0,1.0,72.0,-4.0,0
-9.0,-256.0,-16.0,0.0,70.0,-4.0,0
-12.0,-251.0,-20.0,1.0,69.0,-3.0,0
-14.0,-254.0,-20.0,2.0,68.0,-2.0,0
-11.0,-255.0,-17.0,3.0,68.0,-3.0,0
-11.0,-258.0,-19.0,1.0,67.0,-4.0,0
-11.0,-255.0,-18.0,0.0,67.0,-1.0,0
-10.0,-257.0,-16.0,-2.0,69.0,-3.0,0
-12.0,-254.0,-19.0,-3.0,68.0,-3.0,0
-12.0,-257.0,-18.0,-3.0,68.0,-4.0,0
-10.0,-256.0,-18.0,-2.0,70.0,-2.0,0
-11.0,-255.0,-19.0,1.0,70.0,-3.0,0
-13.0,-254.0,-20.0,3.0,70.0,-2.0,0
-8.0,-258.0,-18.0,4.0,72.0,-3.0,0
-12.0,-254.0,-18.0,4.0,72.0,-3.0,0
-8.0,-255.0,-18.0,4.0,72.0,-4.0,0
-8.0,-256.0,-19.0,2.0,72.0,-3.0,0
-10.0,-256.0,-18.0,1.0,72.0,-3.0,0
-9.0,-256.0,-21.0,0.0,70.0,-4.0,0
-11.0,-255.0,-18.0,-2.0,69.0,-4.0,0
-10.0,-256.0,-17.0,-2.0,68.0,-2.0,0
-11.0,-255.0,-19.0,-3.0,69.0,-4.0,0
-12.0,-256.0,-19.0,-4.0,70.0,-2.0,0
-12.0,-256.0,-17.0,-4.0,68.0,-3.0,0
-8.0,-257.0,-19.0,-5.0,69.0,-2.0,0
-11.0,-256.0,-19.0,-4.0,70.0,-3.0,0
-10.0,-255.0,-19.0,-4.0,71.0,-3.0,0
-10.0,-255.0,-17.0,-2.0,71.0,-3.0,0
-9.0,-258.0,-18.0,-1.0,70.0,-2.0,0
-11.0,-255.0,-18.0,0.0,70.0,-3.0,0
-9.0,-256.0,-14.0,-1.0,71.0,-3.0,0
-11.0,-255.0,-19.0,0.0,70.0,-3.0,0
-14.0,-254.0,-16.0,0.0,70.0,-2.0,0
-10.0,-257.0,-17.0,-3.0,67.0,-4.0,0
-11.0,-257.0,-19.0,-5.0,68.0,-4.0,0
-13.0,-256.0,-19.0,-5.0,67.0,-3.0,0
-10.0,-257.0,-16.0,-5.0,67.0,-3.0,0
-13.0,-256.0,-17.0,-6.0,67.0,-3.0,0
-8.0,-258.0,-19.0,-7.0,69.0,-4.0,0
-12.0,-257.0,-17.0,-8.0,70.0,-3.0,0
-12.0,-255.0,-19.0,-8.0,70.0,-3.0,0
-13.0,-256.0,-15.0,-10.0,70.0,-4.0,0
-10.0,-257.0,-19.0,-10.0,69.0,-3.0,0
-15.0,-256.0,-19.0,-10.0,70.0,-3.0,0
-11.0,-255.0,-18.0,-8.0,69.0,-4.0,0
-12.0,-253.0,-17.0,-7.0,68.0,-4.0,0
-11.0,-256.0,-17.0,-7.0,68.0,-5.0,0
-12.0,-260.0,-19.0,-5.0,68.0,-3.0,0
-10.0,-256.0,-16.0,-4.0,70.0,-3.0,0
-13.0,-253.0,-16.0,-4.0,68.0,-5.0,0
-10.0,-255.0,-19.0,-3.0,68.0,-3.0,0
-13.0,-255.0,-16.0,-4.0,67.0,-2.0,0
-11.0,-256.0,-18.0,-4.0,67.0,-3.0,0
-10.0,-254.0,-17.0,-3.0,66.0,-2.0,0
-12.0,-254.0,-19.0,-5.0,66.0,-3.0,0
-9.0,-255.0,-17.0,-7.0,67.0,-2.0,0
-12.0,-255.0,-21.0,-8.0,68.0,-2.0,0
-10.0,-257.0,-18.0,-9.0,68.0,-3.0,0
-14.0,-253.0,-18.0,-9.0,67.0,-2.0,0
-12.0,-257.0,-19.0,-10.0,68.0,-2.0,0
-10.0,-255.0,-18.0,-10.0,67.0,-3.0,0
-12.0,-257.0,-18.0,-9.0,67.0,-3.0,0
-12.0,-258.0,-17.0,-8.0,68.0,-3.0,0
-12.0,-255.0,-18.0,-8.0,66.0,-1.0,0
-12.0,-254.0,-18.0,-9.0,67.0,-1.0,0
-14.0,-253.0,-18.0,-6.0,67.0,-3.0,0
-12.0,-257.0,-18.0,-5.0,67.0,-3.0,0
-9.0,-257.0,-19.0,-5.0,68.0,-3.0,0
-13.0,-253.0,-19.0,-5.0,67.0,-1.0,0
-9.0,-258.0,-17.0,-5.0,67.0,-4.0,0
-10.0,-255.0,-14.0,-5.0,67.0,-2.0,0
-9.0,-255.0,-15.0,-7.0,69.0,-4.0,0
-10.0,-255.0,-19.0,-7.0,69.0,-3.0,0
-13.0,-254.0,-19.0,-6.0,69.0,-3.0,0
-11.0,-258.0,-19.0,-6.0,70.0,-3.0,0
-15.0,-252.0,-17.0,-5.0,72.0,-3.0,0
-12.0,-254.0,-16.0,-4.0,71.0,-3.0,0
-10.0,-258.0,-15.0,-6.0,70.0,-4.0,0
-11.0,-255.0,-18.0,-7.0,70.0,-3.0,0
-12.0,-252.0,-16.0,-8.0,72.0,-4.0,0
-11.0,-257.0,-16.0,-10.0,71.0,-4.0,0
-13.0,-254.0,-17.0,-13.0,70.0,-5.0,0
-11.0,-257.0,-20.0,-14.0,68.0,-5.0,0
-13.0,-257.0,-19.0,-14.0,69.0,-3.0,0
-13.0,-256.0,-18.0,-13.0,71.0,-3.0,0
-12.0,-253.0,-18.0,-13.0,71.0,-3.0,0
-12.0,-254.0,-18.0,-13.0,72.0,-3.0,0
-13.0,-256.0,-17.0,-10.0,70.0,-3.0,0
-12.0,-252.0,-15.0,-9.0,69.0,-3.0,0
-14.0,-255.0,-20.0,-7.0,67.0,-2.0,0
-10.0,-259.0,-19.0,-7.0,66.0,0.0,0
-11.0,-256.0,-18.0,-4.0,66.0,-3.0,0
-12.0,-253.0,-17.0,-6.0,66.0,-3.0,0
-13.0,-255.0,-17.0,-7.0,68.0,-4.0,0
-11.0,-254.0,-16.0,-10.0,70.0,-3.0,0
-11.0,-257.0,-19.0,-14.0,71.0,-4.0,0
-11.0,-257.0,-14.0,-19.0,71.0,-4.0,0
-14.0,-255.0,-18.0,-21.0,72.0,-3.0,0
-10.0,-258.0,-19.0,-22.0,73.0,-5.0,0
-10.0,-258.0,-18.0,-21.0,73.0,-3.0,0
-12.0,-255.0,-17.0,-18.0,74.0,-2.0,0
-11.0,-253.0,-15.0,-14.0,72.0,-3.0,0
-9.0,-258.0,-14.0,-7.0,71.0,-3.0,0
-11.0,-254.0,-17.0,1.0,70.0,-4.0,0
-10.0,-253.0,-16.0,4.0,68.0,-2.0,0
-13.0,-254.0,-21.0,5.0,68.0,-2.0,0
-12.0,-251.0,-15.0,5.0,70.0,-3.0,0
-10.0,-253.0,-16.0,4.0,73.0,-4.0,0
-9.0,-255.0,-16.0,-1.0,73.0,-4.0,0
-8.0,-252.0,-19.0,-5.0,70.0,-3.0,0
-9.0,-252.0,-16.0,-11.0,67.0,-3.0,0
-11.0,-259.0,-14.0,-16.0,64.0,-3.0,0
-12.0,-257.0,-20.0,-18.0,64.0,-2.0,0
-11.0,-257.0,-17.0,-18.0,65.0,-2.0,0
-11.0,-259.0,-14.0,-16.0,67.0,-3.0,0
-12.0,-255.0,-16.0,-11.0,69.0,-3.0,0
-12.0,-257.0,-18.0,-5.0,71.0,-3.0,0
-10.0,-255.0,-15.0,-1.0,72.0,-4.0,0
-13.0,-255.0,-17.0,0.0,71.0,-3.0,0
-9.0,-256.0,-16.0,-1.0,70.0,-1.0,0
-11.0,-258.0,-15.0,-3.0,69.0,-2.0,0
-10.0,-253.0,-15.0,-8.0,68.0,-2.0,0
-10.0,-257.0,-16.0,-13.0,68.0,-2.0,0
-9.0,-256.0,-18.0,-16.0,68.0,-3.0,0
-9.0,-257.0,-17.0,-17.0,69.0,-2.0,0
-11.0,-254.0,-16.0,-20.0,68.0,-1.0,0
-12.0,-260.0,-20.0,-20.0,68.0,-2.0,0
-12.0,-257.0,-19.0,-19.0,70.0,-2.0,0
-14.0,-253.0,-15.0,-19.0,72.0,-1.0,0
-11.0,-255.0,-17.0,-17.0,72.0,-2.0,0
-12.0,-256.0,-15.0,-14.0,71.0,-2.0,0
-11.0,-258.0,-18.0,-11.0,71.0,-2.0,0
-12.0,-255.0,-17.0,-9.0,71.0,-3.0,0
-10.0,-253.0,-20.0,-8.0,70.0,-3.0,0
-11.0,-254.0,-18.0,-7.0,68.0,-2.0,0
-9.0,-257.0,-18.0,-8.0,68.0,-1.0,0
-8.0,-254.0,-16.0,-10.0,67.0,-2.0,0
-10.0,-255.0,-18.0,-11.0,67.0,-1.0,0
-13.0,-252.0,-17.0,-13.0,66.0,-2.0,0
-13.0,-256.0,-18.0,-13.0,67.0,-1.0,0
-11.0,-257.0,-16.0,-13.0,65.0,-2.0,0
-9.0,-260.0,-16.0,-15.0,65.0,-1.0,0
-12.0,-255.0,-19.0,-15.0,66.0,-1.0,0
-10.0,-256.0,-12.0,-18.0,66.0,-1.0,0
-14.0,-255.0,-16.0,-19.0,67.0,-1.0,0
-13.0,-257.0,-18.0,-19.0,66.0,0.0,0
-13.0,-254.0,-18.0,-18.0,67.0,-1.0,0
-11.0,-254.0,-17.0,-16.0,67.0,-1.0,0
-10.0,-253.0,-18.0,-13.0,66.0,-1.0,0
-13.0,-257.0,-17.0,-11.0,66.0,-1.0,0
-10.0,-255.0,-15.0,-10.0,66.0,-1.0,0
-11.0,-257.0,-18.0,-10.0,65.0,-1.0,0
-10.0,-257.0,-18.0,-13.0,66.0,-2.0,0
-10.0,-255.0,-20.0,-15.0,68.0,-1.0,0
-12.0,-255.0,-19.0,-18.0,67.0,-1.0,0
-11.0,-256.0,-20.0,-20.0,68.0,-2.0,0
-9.0,-259.0,-19.0,-23.0,67.0,-2.0,0
-11.0,-256.0,-19.0,-24.0,66.0,-3.0,0
-9.0,-256.0,-19.0,-23.0,65.0,-3.0,0
-12.0,-256.0,-16.0,-24.0,64.0,-3.0,0
-11.0,-254.0,-17.0,-24.0,64.0,-3.0,0
-9.0,-256.0,-17.0,-22.0,65.0,-2.0,0
-10.0,-258.0,-20.0,-20.0,65.0,-3.0,0
-12.0,-257.0,-17.0,-18.0,67.0,-2.0,0
-11.0,-255.0,-18.0,-16.0,66.0,-3.0,0
-11.0,-253.0,-19.0,-14.0,67.0,-5.0,0
-11.0,-254.0,-16.0,-15.0,67.0,-4.0,0
-10.0,-257.0,-15.0,-15.0,67.0,-4.0,0
-14.0,-255.0,-16.0,-14.0,66.0,-3.0,0
-11.0,-254.0,-19.0,-16.0,66.0,-2.0,0
-8.0,-257.0,-19.0,-17.0,66.0,-1.0,0
-10.0,-255.0,-16.0,-19.0,65.0,-1.0,0
-10.0,-257.0,-18.0,-19.0,66.0,-1.0,0
-12.0,-256.0,-16.0,-20.0,66.0,-1.0,0
-12.0,-256.0,-18.0,-22.0,67.0,-2.0,0
-11.0,-254.0,-18.0,-21.0,68.0,-1.0,0
-12.0,-256.0,-16.0,-21.0,68.0,-2.0,0
-12.0,-254.0,-13.0,-21.0,70.0,-2.0,0
-11.0,-257.0,-18.0,-20.0,69.0,-3.0,0
-12.0,-255.0,-14.0,-21.0,70.0,-3.0,0
-8.0,-256.0,-16.0,-20.0,69.0,-2.0,0
-14.0,-257.0,-19.0,-20.0,70.0,-2.0,0
-13.0,-254.0,-19.0,-19.0,71.0,-3.0,0
-10.0,-255.0,-15.0,-22.0,70.0,-4.0,0
-11.0,-255.0,-19.0,-22.0,72.0,-3.0,0
-12.0,-258.0,-19.0,-23.0,72.0,-4.0,0
-11.0,-255.0,-17.0,-23.0,73.0,-3.0,0
-11.0,-253.0,-18.0,-25.0,73.0,-3.0,0
-9.0,-256.0,-18.0,-25.0,73.0,-3.0,0
-11.0,-255.0,-16.0,-26.0,71.0,-3.0,0
-15.0,-257.0,-20.0,-27.0,70.0,-3.0,0
-12.0,-256.0,-16.0,-28.0,69.0,-3.0,0
-11.0,-257.0,-19.0,-29.0,69.0,-4.0,0
-12.0,-255.0,-17.0,-31.0,70.0,-2.0,0
-10.0,-258.0,-19.0,-30.0,71.0,-4.0,0
-11.0,-253.0,-18.0,-29.0,72.0,-3.0,0
-12.0,-256.0,-17.0,-29.0,74.0,-4.0,0
-8.0,-255.0,-21.0,-27.0,74.0,-3.0,0
-12.0,-255.0,-15.0,-25.0,76.0,-4.0,0
-9.0,-258.0,-19.0,-25.0,76.0,-5.0,0
-10.0,-257.0,-20.0,-25.0,77.0,-5.0,0
-11.0,-257.0,-17.0,-26.0,78.0,-4.0,0
-11.0,-252.0,-18.0,-28.0,79.0,-5.0,0
-13.0,-253.0,-18.0,-30.0,78.0,-4.0,0
-7.0,-257.0,-17.0,-31.0,76.0,-4.0,0
-9.0,-258.0,-21.0,-32.0,75.0,-4.0,0
-11.0,-255.0,-20.0,-35.0,73.0,-4.0,0
-14.0,-258.0,-23.0,-38.0,71.0,-4.0,0
-11.0,-254.0,-19.0,-41.0,70.0,-4.0,0
-11.0,-256.0,-20.0,-42.0,71.0,-4.0,0
-9.0,-258.0,-23.0,-44.0,74.0,-3.0,0
-14.0,-255.0,-24.0,-45.0,79.0,-3.0,0
-9.0,-257.0,-20.0,-48.0,88.0,-5.0,0
-9.0,-256.0,-23.0,-50.0,97.0,-5.0,0
-12.0,-256.0,-22.0,-54.0,105.0,-7.0,0
-8.0,-256.0,-23.0,-57.0,109.0,-7.0,0
-8.0,-254.0,-20.0,-63.0,109.0,-8.0,0
-9.0,-258.0,-22.0,-68.0,106.0,-9.0,0
-10.0,-257.0,-21.0,-72.0,100.0,-9.0,0
-10.0,-259.0,-23.0,-77.0,97.0,-9.0,0
-8.0,-258.0,-22.0,-79.0,95.0,-9.0,0
-13.0,-258.0,-19.0,-81.0,94.0,-10.0,0
-10.0,-261.0,-24.0,-79.0,95.0,-11.0,0
-6.0,-263.0,-26.0,-77.0,98.0,-10.0,0
-7.0,-261.0,-24.0,-79.0,105.0,-13.0,0
-11.0,-261.0,-23.0,-83.0,116.0,-15.0,0
-12.0,-259.0,-25.0,-85.0,125.0,-18.0,0
-8.0,-259.0,-25.0,-83.0,131.0,-22.0,0
-6.0,-263.0,-20.0,-75.0,134.0,-24.0,0
-4.0,-265.0,-26.0,-66.0,135.0,-29.0,0
-8.0,-263.0,-26.0,-56.0,134.0,-32.0,0
-8.0,-260.0,-25.0,-47.0,132.0,-35.0,0
-4.0,-261.0,-22.0,-41.0,130.0,-38.0,0
-6.0,-258.0,-27.0,-40.0,130.0,-40.0,0
-8.0,-259.0,-28.0,-42.0,131.0,-42.0,0
-8.0,-258.0,-26.0,-48.0,134.0,-43.0,0
-9.0,-256.0,-28.0,-55.0,136.0,-43.0,0
-7.0,-257.0,-29.0,-62.0,141.0,-44.0,0
-8.0,-259.0,-27.0,-71.0,146.0,-44.0,0
-6.0,-254.0,-33.0,-82.0,151.0,-42.0,0
-9.0,-257.0,-27.0,-90.0,157.0,-42.0,0
-9.0,-259.0,-32.0,-98.0,162.0,-40.0,0
-11.0,-262.0,-31.0,-100.0,165.0,-41.0,0
-9.0,-260.0,-32.0,-92.0,165.0,-41.0,0
-7.0,-263.0,-30.0,-78.0,160.0,-44.0,0
-8.0,-261.0,-27.0,-61.0,149.0,-45.0,0
-8.0,-258.0,-30.0,-47.0,138.0,-49.0,0
-3.0,-257.0,-27.0,-42.0,131.0,-49.0,0
-1.0,-259.0,-35.0,-42.0,130.0,-48.0,0
-4.0,-257.0,-30.0,-45.0,137.0,-48.0,0
-4.0,-255.0,-30.0,-53.0,144.0,-50.0,0
-3.0,-254.0,-36.0,-62.0,151.0,-47.0,0
-6.0,-254.0,-36.0,-69.0,159.0,-47.0,0
-9.0,-252.0,-36.0,-71.0,166.0,-44.0,0
-9.0,-252.0,-36.0,-68.0,171.0,-45.0,0
-10.0,-256.0,-31.0,-61.0,171.0,-45.0,0
-8.0,-256.0,-34.0,-52.0,167.0,-45.0,0
-8.0,-257.0,-35.0,-44.0,159.0,-47.0,0
-8.0,-256.0,-38.0,-33.0,155.0,-49.0,0
-9.0,-253.0,-38.0,-23.0,159.0,-50.0,0
-4.0,-251.0,-39.0,-13.0,164.0,-49.0,0
-9.0,-257.0,-40.0,-5.0,172.0,-46.0,0
-9.0,-255.0,-40.0,2.0,179.0,-47.0,0
-7.0,-257.0,-39.0,8.0,184.0,-47.0,0
-4.0,-254.0,-40.0,15.0,187.0,-49.0,0
-8.0,-252.0,-42.0,17.0,188.0,-48.0,0
-8.0,-249.0,-41.0,12.0,187.0,-46.0,0
-7.0,-249.0,-44.0,0.0,185.0,-41.0,0
-3.0,-250.0,-42.0,-14.0,183.0,-37.0,0
-1.0,-247.0,-41.0,-28.0,184.0,-32.0,0
-3.0,-245.0,-40.0,-44.0,185.0,-30.0,0
-2.0,-241.0,-42.0,-58.0,183.0,-26.0,0
-6.0,-232.0,-49.0,-72.0,181.0,-21.0,0
-1.0,-236.0,-46.0,-86.0,178.0,-13.0,0
-6.0,-236.0,-46.0,-99.0,177.0,-2.0,0
-3.0,-232.0,-47.0,-111.0,176.0,7.0,0
-2.0,-234.0,-52.0,-125.0,176.0,17.0,0
-6.0,-229.0,-48.0,-138.0,176.0,25.0,0
-5.0,-225.0,-53.0,-153.0,178.0,34.0,0
-9.0,-225.0,-46.0,-173.0,178.0,42.0,0
-10.0,-223.0,-48.0,-191.0,180.0,49.0,0
-12.0,-220.0,-50.0,-212.0,184.0,57.0,0
-14.0,-216.0,-48.0,-234.0,190.0,63.0,0
-15.0,-213.0,-45.0,-256.0,192.0,66.0,0
-17.0,-212.0,-41.0,-277.0,188.0,66.0,0
-18.0,-211.0,-36.0,-298.0,176.0,63.0,0
-16.0,-206.0,-34.0,-313.0,159.0,60.0,0
-14.0,-207.0,-31.0,-327.0,143.0,53.0,0
-15.0,-209.0,-29.0,-340.0,132.0,47.0,0
-11.0,-213.0,-35.0,-349.0,132.0,37.0,0
-12.0,-212.0,-36.0,-363.0,134.0,30.0,0
-8.0,-213.0,-38.0,-382.0,137.0,24.0,0
-7.0,-216.0,-40.0,-406.0,140.0,17.0,0
-7.0,-219.0,-45.0,-433.0,137.0,14.0,0
-7.0,-221.0,-43.0,-455.0,130.0,8.0,0
-6.0,-222.0,-46.0,-468.0,117.0,4.0,0
-9.0,-225.0,-46.0,-478.0,102.0,-4.0,0
-11.0,-224.0,-45.0,-494.0,88.0,-7.0,0
-13.0,-222.0,-44.0,-518.0,76.0,-7.0,0
-16.0,-221.0,-46.0,-548.0,66.0,-5.0,0
-24.0,-219.0,-38.0,-576.0,55.0,0.0,0
-22.0,-223.0,-36.0,-595.0,43.0,1.0,0
-24.0,-224.0,-39.0,-609.0,31.0,-1.0,0
-24.0,-220.0,-39.0,-618.0,25.0,-1.0,0
-20.0,-222.0,-44.0,-628.0,23.0,3.0,0
-19.0,-220.0,-46.0,-643.0,26.0,9.0,0
-23.0,-218.0,-45.0,-669.0,22.0,19.0,0
-17.0,-220.0,-51.0,-701.0,8.0,30.0,0
-16.0,-217.0,-52.0,-735.0,-10.0,38.0,0
-16.0,-218.0,-52.0,-770.0,-25.0,45.0,0
-14.0,-221.0,-53.0,-800.0,-37.0,50.0,0
-8.0,-222.0,-55.0,-831.0,-43.0,50.0,0
-12.0,-222.0,-61.0,-865.0,-44.0,49.0,0
-11.0,-219.0,-58.0,-908.0,-42.0,48.0,0
-15.0,-211.0,-61.0,-959.0,-39.0,46.0,0
-12.0,-209.0,-64.0,-1016.0,-34.0,45.0,0
-11.0,-205.0,-59.0,-1078.0,-32.0,45.0,0
-15.0,-200.0,-64.0,-1142.0,-33.0,48.0,0
-10.0,-200.0,-67.0,-1203.0,-34.0,51.0,0
-11.0,-197.0,-62.0,-1256.0,-36.0,54.0,0
-9.0,-194.0,-66.0,-1301.0,-38.0,56.0,0
-6.0,-191.0,-63.0,-1342.0,-39.0,58.0,0
-9.0,-187.0,-65.0,-1374.0,-39.0,63.0,0
-7.0,-187.0,-65.0,-1413.0,-40.0,68.0,0
-4.0,-191.0,-65.0,-1448.0,-43.0,71.0,0
-10.0,-193.0,-62.0,-1469.0,-46.0,74.0,0
-11.0,-200.0,-62.0,-1469.0,-50.0,70.0,0
-8.0,-205.0,-59.0,-1448.0,-51.0,66.0,0
-10.0,-210.0,-54.0,-1411.0,-42.0,60.0,0
-11.0,-215.0,-61.0,-1366.0,-27.0,56.0,0
-8.0,-219.0,-61.0,-1325.0,-6.0,52.0,0
-9.0,-215.0,-68.0,-1300.0,17.0,50.0,0
-10.0,-215.0,-74.0,-1293.0,39.0,52.0,0
-9.0,-213.0,-76.0,-1298.0,55.0,52.0,0
-10.0,-212.0,-77.0,-1314.0,63.0,57.0,0
-3.0,-212.0,-76.0,-1334.0,60.0,62.0,0
-6.0,-205.0,-81.0,-1358.0,47.0,66.0,0
-7.0,-206.0,-79.0,-1382.0,30.0,72.0,0
-9.0,-205.0,-79.0,-1405.0,10.0,78.0,0
-9.0,-203.0,-68.0,-1421.0,-9.0,84.0,0
-12.0,-203.0,-64.0,-1417.0,-21.0,85.0,0
-17.0,-204.0,-65.0,-1389.0,-29.0,71.0,0
-20.0,-202.0,-63.0,-1341.0,-25.0,54.0,0
-20.0,-202.0,-67.0,-1285.0,-13.0,38.0,0
-25.0,-201.0,-70.0,-1227.0,4.0,23.0,0
-25.0,-200.0,-74.0,-1182.0,21.0,12.0,0
-27.0,-196.0,-82.0,-1154.0,31.0,3.0,0
-27.0,-193.0,-86.0,-1145.0,37.0,-3.0,0
-25.0,-192.0,-86.0,-1152.0,39.0,-10.0,0
-20.0,-190.0,-87.0,-1176.0,40.0,-16.0,0
-20.0,-190.0,-91.0,-1208.0,34.0,-17.0,0
-17.0,-189.0,-91.0,-1242.0,21.0,-16.0,0
-14.0,-194.0,-93.0,-1265.0,0.0,-11.0,0
-15.0,-199.0,-88.0,-1266.0,-23.0,0.0,0
-10.0,-203.0,-88.0,-1238.0,-46.0,12.0,0
-12.0,-209.0,-96.0,-1189.0,-66.0,27.0,0
-13.0,-214.0,-96.0,-1128.0,-80.0,43.0,0
-13.0,-215.0,-99.0,-1070.0,-87.0,59.0,0
-7.0,-217.0,-102.0,-1028.0,-81.0,68.0,0
-5.0,-217.0,-108.0,-1007.0,-64.0,68.0,0
-4.0,-212.0,-111.0,-1002.0,-35.0,60.0,0
-9.0,-209.0,-110.0,-1007.0,-2.0,50.0,0
-10.0,-205.0,-112.0,-1022.0,26.0,34.0,0
-13.0,-199.0,-108.0,-1038.0,41.0,18.0,0
-12.0,-207.0,-111.0,-1049.0,43.0,7.0,0
-11.0,-208.0,-106.0,-1055.0,33.0,-4.0,0
-15.0,-208.0,-113.0,-1045.0,17.0,-14.0,0
-14.0,-205.0,-118.0,-1017.0,0.0,-12.0,0
-15.0,-209.0,-123.0,-974.0,-18.0,0.0,0
-15.0,-207.0,-128.0,-929.0,-39.0,20.0,0
-15.0,-206.0,-132.0,-885.0,-55.0,35.0,0
-13.0,-205.0,-138.0,-844.0,-66.0,55.0,0
-17.0,-199.0,-141.0,-815.0,-72.0,74.0,0
-15.0,-195.0,-139.0,-795.0,-70.0,92.0,0
-11.0,-195.0,-145.0,-789.0,-64.0,107.0,0
-9.0,-194.0,-144.0,-794.0,-45.0,111.0,0
-2.0,-193.0,-147.0,-804.0,-15.0,105.0,0
0.0,-193.0,-141.0,-817.0,28.0,89.0,0
0.0,-196.0,-143.0,-820.0,77.0,73.0,0
0.0,-200.0,-142.0,-814.0,127.0,58.0,0
4.0,-202.0,-142.0,-805.0,164.0,47.0,0
5.0,-216.0,-144.0,-793.0,184.0,51.0,0
-2.0,-229.0,-142.0,-773.0,177.0,67.0,0
1.0,-231.0,-140.0,-748.0,150.0,84.0,0
0.0,-221.0,-145.0,-735.0,106.0,103.0,0
-3.0,-220.0,-145.0,-740.0,64.0,124.0,0
-9.0,-216.0,-143.0,-760.0,31.0,149.0,0
-12.0,-213.0,-143.0,-787.0,20.0,168.0,0
-19.0,-212.0,-139.0,-808.0,30.0,175.0,0
-23.0,-208.0,-138.0,-825.0,59.0,168.0,0
-27.0,-205.0,-142.0,-830.0,95.0,147.0,0
-29.0,-205.0,-143.0,-819.0,142.0,113.0,0
-31.0,-201.0,-140.0,-799.0,185.0,72.0,0
-35.0,-199.0,-141.0,-768.0,217.0,39.0,0
-35.0,-201.0,-147.0,-732.0,235.0,2.0,0
-35.0,-197.0,-151.0,-695.0,240.0,-27.0,0
-35.0,-200.0,-151.0,-663.0,231.0,-44.0,0
-31.0,-194.0,-158.0,-640.0,211.0,-44.0,0
-30.0,-192.0,-160.0,-631.0,183.0,-35.0,0
-26.0,-193.0,-156.0,-637.0,154.0,-14.0,0
-21.0,-191.0,-161.0,-660.0,129.0,10.0,0
-18.0,-193.0,-161.0,-693.0,114.0,34.0,0
-13.0,-190.0,-159.0,-735.0,111.0,56.0,0
-14.0,-191.0,-159.0,-778.0,117.0,74.0,0
-12.0,-193.0,-164.0,-820.0,131.0,89.0,0
-10.0,-191.0,-165.0,-860.0,150.0,93.0,0
-6.0,-190.0,-170.0,-896.0,178.0,87.0,0
1.0,-195.0,-168.0,-929.0,204.0,82.0,0
6.0,-196.0,-175.0,-960.0,221.0,74.0,0
8.0,-194.0,-178.0,-984.0,232.0,55.0,0
7.0,-194.0,-182.0,-1001.0,234.0,31.0,0
6.0,-193.0,-188.0,-1014.0,234.0,10.0,0
-3.0,-190.0,-189.0,-1027.0,226.0,3.0,0
-9.0,-187.0,-192.0,-1037.0,205.0,9.0,0
-17.0,-186.0,-197.0,-1039.0,180.0,19.0,0
-24.0,-189.0,-199.0,-1032.0,155.0,32.0,0
-33.0,-191.0,-198.0,-1014.0,131.0,46.0,0
-39.0,-197.0,-204.0,-988.0,112.0,57.0,0
-45.0,-202.0,-202.0,-953.0,93.0,63.0,0
-46.0,-200.0,-202.0,-915.0,71.0,61.0,0
-48.0,-201.0,-205.0,-876.0,45.0,53.0,0
-48.0,-202.0,-205.0,-845.0,11.0,39.0,0
-45.0,-195.0,-201.0,-825.0,-26.0,24.0,0
-43.0,-189.0,-201.0,-819.0,-59.0,4.0,0
-39.0,-185.0,-201.0,-830.0,-86.0,-11.0,0
-36.0,-180.0,-202.0,-852.0,-103.0,-21.0,0
-31.0,-176.0,-199.0,-886.0,-110.0,-25.0,0
-26.0,-173.0,-199.0,-924.0,-116.0,-24.0,0
-19.0,-173.0,-197.0,-962.0,-122.0,-15.0,0
-13.0,-170.0,-200.0,-992.0,-126.0,-10.0,0
-8.0,-172.0,-204.0,-1014.0,-125.0,-7.0,0
-6.0,-175.0,-202.0,-1024.0,-118.0,-9.0,0
-4.0,-176.0,-202.0,-1024.0,-111.0,-14.0,0
-4.0,-175.0,-209.0,-1020.0,-109.0,-16.0,0
-9.0,-176.0,-209.0,-1015.0,-107.0,-19.0,0
-18.0,-171.0,-213.0,-1003.0,-110.0,-24.0,0
-26.0,-171.0,-218.0,-989.0,-120.0,-17.0,0
-30.0,-168.0,-220.0,-973.0,-120.0,-7.0,0
-33.0,-169.0,-223.0,-958.0,-111.0,5.0,0
-33.0,-166.0,-224.0,-941.0,-94.0,12.0,0
-36.0,-164.0,-220.0,-914.0,-77.0,9.0,0
-37.0,-164.0,-220.0,-888.0,-70.0,4.0,0
-38.0,-159.0,-217.0,-861.0,-73.0,-7.0,0
-36.0,-161.0,-220.0,-838.0,-81.0,-19.0,0
-32.0,-161.0,-226.0,-821.0,-84.0,-19.0,0
-35.0,-157.0,-227.0,-815.0,-92.0,-14.0,0
-32.0,-158.0,-233.0,-814.0,-99.0,-8.0,0
-33.0,-157.0,-231.0,-809.0,-102.0,7.0,0
-30.0,-163.0,-234.0,-803.0,-100.0,38.0,0
-29.0,-160.0,-239.0,-784.0,-93.0,74.0,0
-23.0,-156.0,-233.0,-765.0,-76.0,113.0,0
-30.0,-152.0,-244.0,-740.0,-59.0,143.0,0
-29.0,-149.0,-248.0,-705.0,-47.0,154.0,0
-28.0,-145.0,-253.0,-670.0,-31.0,158.0,0
-23.0,-146.0,-259.0,-637.0,-18.0,162.0,0
-17.0,-144.0,-266.0,-590.0,9.0,161.0,0
-13.0,-144.0,-264.0,-555.0,46.0,171.0,0
-13.0,-139.0,-264.0,-499.0,86.0,165.0,0
-22.0,-137.0,-265.0,-430.0,122.0,163.0,0
-17.0,-138.0,-261.0,-362.0,150.0,174.0,0
-25.0,-139.0,-263.0,-293.0,175.0,190.0,0
-30.0,-138.0,-263.0,-236.0,195.0,215.0,0
-35.0,-139.0,-258.0,-186.0,195.0,236.0,0
-38.0,-140.0,-257.0,-141.0,180.0,253.0,0
-39.0,-135.0,-264.0,-101.0,162.0,257.0,0
-33.0,-147.0,-252.0,-66.0,150.0,250.0,0
-36.0,-147.0,-252.0,-23.0,150.0,235.0,0
-31.0,-148.0,-246.0,16.0,152.0,214.0,0
-32.0,-144.0,-240.0,57.0,155.0,190.0,0
-28.0,-138.0,-244.0,90.0,152.0,167.0,0
-24.0,-137.0,-236.0,114.0,160.0,152.0,0
-33.0,-132.0,-238.0,129.0,171.0,143.0,0
-36.0,-131.0,-238.0,129.0,177.0,141.0,0
-36.0,-127.0,-248.0,108.0,170.0,137.0,0
-32.0,-140.0,-239.0,70.0,168.0,132.0,0
-31.0,-140.0,-250.0,32.0,177.0,130.0,0
-28.0,-146.0,-255.0,1.0,185.0,112.0,0
-25.0,-144.0,-257.0,-19.0,197.0,87.0,0
-23.0,-143.0,-259.0,-26.0,211.0,67.0,0
-21.0,-140.0,-270.0,-27.0,227.0,61.0,0
-10.0,-143.0,-256.0,-30.0,240.0,56.0,0
-15.0,-145.0,-256.0,-34.0,266.0,58.0,0
-20.0,-148.0,-259.0,-51.0,261.0,63.0,0
-15.0,-150.0,-263.0,-58.0,254.0,60.0,0
-16.0,-151.0,-263.0,-40.0,264.0,53.0,0
-23.0,-155.0,-260.0,-5.0,288.0,46.0,0
-23.0,-167.0,-266.0,38.0,292.0,46.0,0
-30.0,-164.0,-266.0,90.0,289.0,46.0,0
-31.0,-163.0,-260.0,161.0,278.0,26.0,0
-31.0,-170.0,-263.0,239.0,265.0,12.0,0
-30.0,-165.0,-262.0,319.0,255.0,4.0,0
-33.0,-169.0,-253.0,392.0,252.0,-5.0,0
-32.0,-158.0,-254.0,459.0,245.0,-9.0,0
-34.0,-154.0,-251.0,506.0,234.0,-9.0,0
-27.0,-159.0,-254.0,527.0,224.0,-5.0,0
-25.0,-162.0,-259.0,524.0,214.0,-1.0,0
-25.0,-172.0,-261.0,506.0,207.0,5.0,0
-27.0,-174.0,-268.0,488.0,204.0,6.0,0
-25.0,-182.0,-271.0,470.0,205.0,0.0,0
-24.0,-186.0,-273.0,457.0,209.0,-13.0,0
-24.0,-191.0,-279.0,449.0,214.0,-31.0,0
-29.0,-194.0,-285.0,443.0,211.0,-45.0,0
-29.0,-196.0,-291.0,432.0,203.0,-53.0,0
-28.0,-191.0,-298.0,412.0,195.0,-52.0,0
-24.0,-190.0,-308.0,390.0,190.0,-47.0,0
-23.0,-184.0,-312.0,369.0,176.0,-44.0,0
-27.0,-186.0,-328.0,351.0,152.0,-44.0,0
-27.0,-183.0,-321.0,330.0,130.0,-36.0,0
-28.0,-179.0,-322.0,328.0,117.0,-52.0,0
-25.0,-180.0,-315.0,353.0,109.0,-73.0,0
-17.0,-177.0,-303.0,402.0,112.0,-97.0,0
-8.0,-169.0,-290.0,466.0,124.0,-115.0,0
-5.0,-164.0,-281.0,529.0,139.0,-125.0,0
-4.0,-159.0,-270.0,590.0,159.0,-128.0,0
-2.0,-153.0,-256.0,644.0,177.0,-124.0,0
-4.0,-152.0,-243.0,692.0,190.0,-116.0,0
-5.0,-152.0,-230.0,732.0,200.0,-106.0,0
-7.0,-151.0,-216.0,769.0,200.0,-93.0,0
-13.0,-149.0,-207.0,797.0,192.0,-78.0,0
-13.0,-148.0,-194.0,810.0,179.0,-62.0,0
-12.0,-152.0,-188.0,811.0,166.0,-49.0,0
-13.0,-147.0,-175.0,808.0,153.0,-41.0,0
-11.0,-143.0,-173.0,808.0,140.0,-41.0,0
-13.0,-144.0,-167.0,813.0,126.0,-46.0,0
-6.0,-142.0,-157.0,823.0,114.0,-55.0,0
-9.0,-136.0,-157.0,833.0,111.0,-66.0,0
-6.0,-137.0,-145.0,845.0,109.0,-76.0,0
-10.0,-137.0,-146.0,857.0,108.0,-83.0,0
-11.0,-140.0,-148.0,868.0,105.0,-86.0,0
-11.0,-143.0,-145.0,880.0,104.0,-84.0,0
-11.0,-144.0,-145.0,892.0,98.0,-81.0,0
-7.0,-151.0,-142.0,904.0,92.0,-74.0,0
-10.0,-153.0,-147.0,920.0,93.0,-70.0,0
-14.0,-155.0,-149.0,939.0,89.0,-67.0,0
-11.0,-157.0,-148.0,965.0,83.0,-61.0,0
-9.0,-157.0,-150.0,997.0,79.0,-62.0,0
-11.0,-156.0,-151.0,1033.0,76.0,-63.0,0
-4.0,-158.0,-154.0,1069.0,76.0,-66.0,0
-10.0,-156.0,-156.0,1104.0,79.0,-73.0,0
-8.0,-159.0,-158.0,1138.0,85.0,-81.0,0
-9.0,-162.0,-154.0,1169.0,88.0,-90.0,0
-8.0,-165.0,-161.0,1191.0,90.0,-99.0,0
-10.0,-167.0,-162.0,1205.0,90.0,-105.0,0
-11.0,-171.0,-164.0,1210.0,87.0,-112.0,0
-13.0,-174.0,-165.0,1213.0,82.0,-118.0,0
-12.0,-178.0,-172.0,1213.0,75.0,-123.0,0
-11.0,-184.0,-177.0,1209.0,65.0,-125.0,0
-15.0,-186.0,-174.0,1206.0,54.0,-127.0,0
-14.0,-193.0,-182.0,1202.0,44.0,-128.0,0
-13.0,-198.0,-187.0,1198.0,39.0,-128.0,0
-14.0,-200.0,-193.0,1192.0,38.0,-129.0,0
-9.0,-202.0,-203.0,1186.0,39.0,-129.0,0
-12.0,-205.0,-206.0,1177.0,45.0,-127.0,0
-5.0,-215.0,-209.0,1166.0,51.0,-122.0,0
-6.0,-216.0,-214.0,1158.0,55.0,-112.0,0
-3.0,-217.0,-213.0,1149.0,56.0,-101.0,0
-4.0,-224.0,-214.0,1143.0,54.0,-90.0,0
-8.0,-225.0,-212.0,1141.0,52.0,-81.0,0
-7.0,-231.0,-211.0,1144.0,46.0,-73.0,0
-12.0,-233.0,-210.0,1152.0,38.0,-67.0,0
-15.0,-236.0,-209.0,1169.0,30.0,-65.0,0
-10.0,-239.0,-204.0,1195.0,19.0,-66.0,0
-14.0,-241.0,-198.0,1230.0,10.0,-69.0,0
-9.0,-238.0,-194.0,1278.0,2.0,-75.0,0
-11.0,-239.0,-188.0,1333.0,-5.0,-86.0,0
-6.0,-236.0,-185.0,1393.0,-12.0,-100.0,0
-11.0,-230.0,-178.0,1453.0,-17.0,-115.0,0
-10.0,-225.0,-171.0,1507.0,-22.0,-125.0,0
-5.0,-220.0,-167.0,1550.0,-27.0,-137.0,0
-7.0,-213.0,-158.0,1581.0,-27.0,-147.0,0
-6.0,-210.0,-151.0,1593.0,-24.0,-152.0,0
-10.0,-204.0,-145.0,1594.0,-21.0,-152.0,0
-9.0,-197.0,-142.0,1579.0,-20.0,-151.0,0
-11.0,-196.0,-135.0,1550.0,-19.0,-152.0,0
-9.0,-192.0,-132.0,1511.0,-23.0,-152.0,0
-8.0,-187.0,-123.0,1465.0,-24.0,-152.0,0
-11.0,-188.0,-119.0,1413.0,-26.0,-147.0,0
-7.0,-187.0,-114.0,1355.0,-27.0,-143.0,0
-5.0,-188.0,-110.0,1293.0,-29.0,-136.0,0
-5.0,-191.0,-107.0,1227.0,-28.0,-128.0,0
-9.0,-192.0,-104.0,1154.0,-25.0,-117.0,0
-11.0,-196.0,-107.0,1075.0,-25.0,-104.0,0
-8.0,-202.0,-102.0,989.0,-30.0,-90.0,0
-12.0,-215.0,-102.0,906.0,-33.0,-78.0,0
-11.0,-218.0,-102.0,828.0,-33.0,-68.0,0
-11.0,-227.0,-102.0,766.0,-30.0,-62.0,0
-12.0,-239.0,-105.0,723.0,-20.0,-56.0,0
-9.0,-245.0,-104.0,700.0,-7.0,-50.0,0
-12.0,-248.0,-107.0,697.0,5.0,-44.0,0
-12.0,-253.0,-105.0,713.0,19.0,-39.0,0
-16.0,-256.0,-106.0,742.0,28.0,-38.0,0
-18.0,-257.0,-102.0,770.0,35.0,-32.0,0
-18.0,-260.0,-102.0,811.0,35.0,-28.0,0
-18.0,-260.0,-104.0,853.0,29.0,-24.0,0
-19.0,-256.0,-105.0,896.0,23.0,-21.0,0
-18.0,-252.0,-105.0,937.0,19.0,-21.0,0
-14.0,-253.0,-102.0,979.0,16.0,-23.0,0
-20.0,-251.0,-97.0,1021.0,20.0,-24.0,0
-16.0,-249.0,-94.0,1060.0,25.0,-28.0,0
-14.0,-246.0,-91.0,1094.0,33.0,-34.0,0
-13.0,-243.0,-86.0,1122.0,40.0,-40.0,0
-9.0,-244.0,-87.0,1137.0,49.0,-45.0,0
-13.0,-236.0,-87.0,1139.0,54.0,-48.0,0
-13.0,-231.0,-83.0,1126.0,52.0,-49.0,0
-10.0,-232.0,-86.0,1099.0,46.0,-52.0,0
-11.0,-230.0,-84.0,1059.0,41.0,-52.0,0
-11.0,-232.0,-80.0,1018.0,36.0,-54.0,0
-10.0,-229.0,-79.0,977.0,36.0,-57.0,0
-5.0,-235.0,-76.0,943.0,36.0,-56.0,0
-6.0,-234.0,-76.0,916.0,39.0,-59.0,0
-5.0,-238.0,-74.0,899.0,48.0,-61.0,0
-4.0,-240.0,-68.0,884.0,58.0,-60.0,0
-6.0,-241.0,-69.0,873.0,69.0,-56.0,0
-6.0,-242.0,-69.0,861.0,78.0,-51.0,0
-6.0,-244.0,-72.0,849.0,83.0,-40.0,0
-7.0,-245.0,-75.0,833.0,76.0,-27.0,0
-4.0,-247.0,-69.0,820.0,63.0,-19.0,0
-8.0,-247.0,-74.0,811.0,50.0,-10.0,0
-5.0,-250.0,-71.0,803.0,41.0,-7.0,0
-2.0,-248.0,-66.0,799.0,36.0,-2.0,0
-2.0,-251.0,-71.0,797.0,39.0,2.0,0
-2.0,-253.0,-65.0,799.0,47.0,7.0,0
-4.0,-254.0,-62.0,806.0,59.0,11.0,0
-3.0,-253.0,-62.0,816.0,73.0,12.0,0
-6.0,-249.0,-61.0,827.0,84.0,15.0,0
-7.0,-249.0,-63.0,833.0,90.0,20.0,0
-5.0,-249.0,-59.0,830.0,87.0,27.0,0
-9.0,-247.0,-59.0,822.0,78.0,30.0,0
-3.0,-248.0,-61.0,808.0,71.0,31.0,0
-11.0,-249.0,-66.0,790.0,68.0,35.0,0
-8.0,-248.0,-59.0,770.0,69.0,39.0,0
-8.0,-250.0,-59.0,753.0,71.0,43.0,0
-9.0,-250.0,-57.0,740.0,74.0,44.0,0
-5.0,-252.0,-56.0,732.0,79.0,46.0,0
-5.0,-249.0,-55.0,726.0,84.0,42.0,0
-6.0,-248.0,-59.0,716.0,91.0,34.0,0
-7.0,-246.0,-54.0,706.0,98.0,30.0,0
-4.0,-247.0,-52.0,695.0,101.0,23.0,0
-1.0,-246.0,-58.0,679.0,109.0,18.0,0
0.0,-248.0,-49.0,658.0,118.0,12.0,0
-2.0,-250.0,-54.0,633.0,128.0,2.0,0
0.0,-251.0,-54.0,609.0,137.0,-3.0,0
-3.0,-252.0,-53.0,585.0,144.0,-3.0,0
1.0,-250.0,-52.0,565.0,146.0,-2.0,0
0.0,-251.0,-49.0,546.0,142.0,1.0,0
-2.0,-252.0,-52.0,532.0,135.0,6.0,0
-1.0,-255.0,-52.0,523.0,131.0,8.0,0
-6.0,-252.0,-45.0,523.0,130.0,10.0,0
-6.0,-251.0,-50.0,530.0,136.0,12.0,0
-12.0,-250.0,-48.0,546.0,144.0,15.0,0
-15.0,-253.0,-47.0,567.0,153.0,21.0,0
-17.0,-255.0,-47.0,589.0,162.0,26.0,0
-25.0,-253.0,-43.0,606.0,166.0,36.0,0
-23.0,-250.0,-45.0,618.0,171.0,40.0,0
-26.0,-251.0,-39.0,624.0,174.0,42.0,0
-25.0,-252.0,-38.0,624.0,171.0,44.0,0
-25.0,-250.0,-33.0,621.0,169.0,40.0,0
-23.0,-255.0,-27.0,613.0,161.0,37.0,0
-25.0,-249.0,-27.0,601.0,151.0,32.0,0
-18.0,-253.0,-29.0,582.0,140.0,29.0,0
-21.0,-250.0,-26.0,562.0,129.0,23.0,0
-17.0,-249.0,-23.0,543.0,119.0,18.0,0
-14.0,-248.0,-26.0,531.0,113.0,20.0,0
-12.0,-247.0,-22.0,525.0,110.0,25.0,0
-13.0,-246.0,-20.0,521.0,110.0,32.0,0
-9.0,-246.0,-27.0,514.0,108.0,33.0,0
-6.0,-247.0,-21.0,499.0,108.0,51.0,0
-12.0,-248.0,-21.0,483.0,105.0,67.0,0
-12.0,-247.0,-18.0,469.0,98.0,80.0,0
-14.0,-248.0,-17.0,458.0,88.0,88.0,0
-16.0,-249.0,-16.0,451.0,75.0,93.0,0
-19.0,-249.0,-19.0,444.0,60.0,95.0,0
-16.0,-254.0,-24.0,435.0,42.0,91.0,0
-14.0,-256.0,-24.0,423.0,32.0,83.0,0
-15.0,-252.0,-28.0,403.0,35.0,72.0,0
-7.0,-256.0,-27.0,377.0,46.0,61.0,0
-7.0,-257.0,-29.0,346.0,61.0,48.0,0
-4.0,-259.0,-28.0,315.0,74.0,37.0,0
-7.0,-258.0,-25.0,283.0,85.0,25.0,0
-9.0,-258.0,-21.0,252.0,89.0,14.0,0
-13.0,-256.0,-17.0,228.0,83.0,6.0,0
-17.0,-256.0,-17.0,215.0,77.0,-3.0,0
-18.0,-258.0,-17.0,205.0,75.0,-5.0,0
-20.0,-253.0,-19.0,196.0,78.0,-6.0,0
-20.0,-261.0,-18.0,192.0,84.0,-3.0,0
-20.0,-255.0,-20.0,192.0,90.0,1.0,0
-22.0,-250.0,-20.0,191.0,94.0,8.0,0
-21.0,-251.0,-20.0,183.0,94.0,14.0,0
-21.0,-251.0,-20.0,169.0,94.0,15.0,0
-22.0,-253.0,-24.0,151.0,90.0,14.0,0
-24.0,-250.0,-20.0,133.0,90.0,14.0,0
-23.0,-250.0,-18.0,118.0,89.0,12.0,0
-20.0,-248.0,-17.0,108.0,87.0,10.0,0
-20.0,-249.0,-15.0,101.0,86.0,8.0,0
-18.0,-248.0,-17.0,95.0,81.0,6.0,0
-19.0,-248.0,-16.0,90.0,74.0,5.0,0
-16.0,-251.0,-16.0,85.0,68.0,1.0,0
-15.0,-255.0,-16.0,83.0,63.0,0.0,0
-14.0,-251.0,-19.0,80.0,59.0,-3.0,0
-11.0,-254.0,-18.0,78.0,57.0,-4.0,0
-13.0,-253.0,-14.0,75.0,54.0,-6.0,0
-12.0,-255.0,-15.0,76.0,51.0,-6.0,0
-16.0,-257.0,-14.0,77.0,45.0,-6.0,0
-15.0,-256.0,-14.0,82.0,41.0,-5.0,0
-15.0,-258.0,-9.0,89.0,32.0,-3.0,0
-20.0,-259.0,-13.0,97.0,25.0,-1.0,0
-13.0,-261.0,-4.0,105.0,22.0,1.0,0
-11.0,-260.0,-3.0,113.0,25.0,-1.0,0
-12.0,-260.0,-1.0,122.0,28.0,-3.0,0
-6.0,-258.0,3.0,129.0,29.0,-5.0,0
-4.0,-256.0,0.0,135.0,29.0,-8.0,0
-6.0,-255.0,1.0,135.0,28.0,-13.0,0
-4.0,-255.0,-7.0,132.0,26.0,-14.0,0
-5.0,-252.0,-4.0,129.0,27.0,-15.0,0
-5.0,-253.0,-8.0,124.0,26.0,-17.0,0
-9.0,-253.0,-10.0,119.0,29.0,-17.0,0
-7.0,-252.0,-8.0,115.0,32.0,-17.0,0
-7.0,-253.0,-9.0,113.0,38.0,-18.0,0
-9.0,-250.0,-13.0,112.0,42.0,-20.0,0
-8.0,-252.0,-8.0,114.0,49.0,-22.0,0
-8.0,-252.0,-6.0,116.0,56.0,-24.0,0
-9.0,-253.0,-4.0,119.0,59.0,-28.0,0
-7.0,-253.0,-3.0,122.0,59.0,-30.0,0
-8.0,-254.0,0.0,126.0,58.0,-35.0,0
-11.0,-253.0,0.0,127.0,52.0,-37.0,0
-13.0,-252.0,1.0,128.0,46.0,-37.0,0
-12.0,-256.0,4.0,124.0,40.0,-36.0,0
-9.0,-265.0,1.0,121.0,35.0,-36.0,0
-10.0,-255.0,0.0,115.0,29.0,-40.0,0
-11.0,-257.0,4.0,112.0,25.0,-40.0,0
-9.0,-259.0,2.0,110.0,26.0,-41.0,0
-7.0,-257.0,3.0,114.0,25.0,-40.0,0
-7.0,-259.0,3.0,119.0,24.0,-41.0,0
-7.0,-256.0,4.0,125.0,24.0,-41.0,0
-8.0,-259.0,0.0,130.0,25.0,-42.0,0
-8.0,-254.0,1.0,134.0,26.0,-43.0,0
-9.0,-253.0,4.0,139.0,29.0,-41.0,0
-11.0,-257.0,1.0,141.0,31.0,-38.0,0
-12.0,-252.0,1.0,141.0,30.0,-36.0,0
-11.0,-254.0,2.0,137.0,30.0,-36.0,0
-8.0,-256.0,5.0,132.0,32.0,-36.0,0
-2.0,-252.0,3.0,127.0,36.0,-35.0,0
-3.0,-251.0,6.0,126.0,44.0,-34.0,0
0.0,-254.0,7.0,124.0,54.0,-33.0,0
-2.0,-251.0,6.0,120.0,61.0,-29.0,0
-2.0,-251.0,5.0,114.0,64.0,-25.0,0
-2.0,-250.0,5.0,105.0,68.0,-21.0,0
-6.0,-250.0,9.0,97.0,66.0,-17.0,0
-10.0,-250.0,2.0,91.0,64.0,-14.0,0
-8.0,-252.0,4.0,84.0,60.0,-10.0,0
-8.0,-255.0,2.0,79.0,57.0,-5.0,0
-9.0,-254.0,-2.0,73.0,55.0,0.0,0
-9.0,-252.0,1.0,69.0,52.0,3.0,0
-9.0,-251.0,1.0,65.0,52.0,5.0,0
-9.0,-257.0,-4.0,62.0,56.0,9.0,0
-7.0,-258.0,1.0,61.0,60.0,10.0,0
-8.0,-256.0,-2.0,59.0,62.0,8.0,0
-9.0,-257.0,0.0,59.0,67.0,6.0,0
-10.0,-255.0,-3.0,58.0,70.0,4.0,0
-11.0,-257.0,0.0,57.0,72.0,0.0,0
-14.0,-256.0,-1.0,56.0,73.0,-1.0,0
-10.0,-253.0,-3.0,51.0,73.0,0.0,0
-10.0,-255.0,0.0,43.0,70.0,2.0,0
-9.0,-256.0,0.0,34.0,67.0,4.0,0
-12.0,-254.0,0.0,26.0,66.0,5.0,0
-6.0,-256.0,2.0,19.0,64.0,7.0,0
-9.0,-254.0,0.0,14.0,66.0,7.0,0
-10.0,-252.0,-1.0,9.0,70.0,7.0,0
-11.0,-252.0,-1.0,0.0,78.0,7.0,0
-11.0,-252.0,-1.0,-9.0,85.0,8.0,0
-16.0,-252.0,-5.0,-18.0,93.0,7.0,0
-16.0,-250.0,-3.0,-24.0,98.0,6.0,0
-14.0,-252.0,-7.0,-27.0,103.0,4.0,0
-13.0,-254.0,-4.0,-29.0,105.0,2.0,0
-15.0,-253.0,-4.0,-24.0,108.0,0.0,0
-18.0,-254.0,-2.0,-18.0,112.0,-4.0,0
-14.0,-257.0,-7.0,-8.0,114.0,-7.0,0
-15.0,-251.0,-5.0,1.0,118.0,-12.0,0
-13.0,-254.0,-7.0,8.0,119.0,-13.0,0
-12.0,-252.0,-6.0,14.0,120.0,-16.0,0
-11.0,-254.0,-7.0,19.0,120.0,-21.0,0
-13.0,-254.0,-8.0,22.0,120.0,-22.0,0
-14.0,-256.0,-3.0,27.0,118.0,-25.0,0
-13.0,-257.0,-2.0,29.0,117.0,-27.0,0
-13.0,-255.0,-3.0,29.0,116.0,-31.0,0
-12.0,-255.0,-7.0,27.0,116.0,-33.0,0
-10.0,-255.0,-5.0,24.0,116.0,-32.0,0
-9.0,-256.0,-7.0,20.0,117.0,-31.0,0
-11.0,-254.0,-3.0,18.0,118.0,-29.0,0
-10.0,-258.0,-4.0,17.0,118.0,-27.0,0
-10.0,-253.0,1.0,23.0,116.0,-25.0,0
-8.0,-255.0,7.0,32.0,113.0,-22.0,0
-10.0,-256.0,3.0,44.0,109.0,-20.0,0
-12.0,-254.0,4.0,57.0,108.0,-16.0,0
-8.0,-255.0,7.0,64.0,103.0,-13.0,0
-12.0,-253.0,5.0,67.0,99.0,-12.0,0
-6.0,-256.0,5.0,69.0,94.0,-11.0,0
-7.0,-256.0,6.0,69.0,91.0,-11.0,0
-7.0,-256.0,4.0,67.0,88.0,-11.0,0
-4.0,-257.0,4.0,62.0,85.0,-9.0,0
-4.0,-252.0,3.0,57.0,84.0,-8.0,0
-2.0,-250.0,5.0,53.0,84.0,-8.0,0
-2.0,-250.0,1.0,50.0,84.0,-8.0,0
-4.0,-252.0,1.0,46.0,84.0,-11.0,0
-5.0,-250.0,2.0,40.0,86.0,-13.0,0
-3.0,-252.0,2.0,31.0,90.0,-15.0,0
-5.0,-250.0,-2.0,16.0,93.0,-16.0,0
-6.0,-250.0,-2.0,0.0,96.0,-16.0,0
-5.0,-251.0,0.0,-20.0,97.0,-15.0,0
-9.0,-256.0,-3.0,-41.0,99.0,-11.0,0
-10.0,-255.0,-7.0,-55.0,98.0,-6.0,0
-7.0,-257.0,-3.0,-68.0,100.0,-1.0,0
-11.0,-258.0,-4.0,-76.0,99.0,3.0,0
-8.0,-261.0,-5.0,-81.0,102.0,5.0,0
-9.0,-260.0,-5.0,-84.0,105.0,6.0,0
-12.0,-256.0,-3.0,-84.0,108.0,7.0,0
-13.0,-259.0,-6.0,-81.0,110.0,6.0,0
-11.0,-260.0,-4.0,-78.0,111.0,6.0,0
-13.0,-256.0,-4.0,-78.0,108.0,7.0,0
-11.0,-257.0,-4.0,-80.0,106.0,7.0,0
-9.0,-258.0,-3.0,-83.0,102.0,6.0,0
-13.0,-254.0,0.0,-87.0,97.0,8.0,0
-10.0,-255.0,-1.0,-93.0,94.0,10.0,0
-11.0,-252.0,-2.0,-99.0,91.0,11.0,0
-13.0,-255.0,-1.0,-105.0,89.0,10.0,0
-16.0,-253.0,3.0,-111.0,88.0,10.0,0
-15.0,-253.0,-2.0,-117.0,85.0,10.0,0
-13.0,-256.0,1.0,-121.0,83.0,8.0,0
-13.0,-255.0,1.0,-124.0,82.0,5.0,0
-11.0,-254.0,1.0,-126.0,79.0,4.0,0
-14.0,-253.0,3.0,-131.0,76.0,2.0,0
-13.0,-254.0,1.0,-134.0,73.0,0.0,0
-10.0,-257.0,3.0,-141.0,71.0,0.0,0
-12.0,-252.0,-1.0,-146.0,69.0,1.0,0
-10.0,-251.0,3.0,-151.0,68.0,2.0,0
-8.0,-252.0,7.0,-156.0,69.0,2.0,0
-8.0,-253.0,4.0,-159.0,71.0,2.0,0
-9.0,-252.0,3.0,-162.0,72.0,1.0,0
-8.0,-253.0,2.0,-165.0,74.0,0.0,0
-9.0,-255.0,2.0,-165.0,75.0,-3.0,0
-9.0,-258.0,2.0,-163.0,75.0,-4.0,0
-9.0,-255.0,2.0,-160.0,76.0,-4.0,0
-12.0,-255.0,7.0,-156.0,77.0,-5.0,0
-9.0,-253.0,10.0,-150.0,73.0,-6.0,0
-12.0,-255.0,12.0,-144.0,68.0,-5.0,0
-8.0,-255.0,8.0,-134.0,63.0,-3.0,0
-11.0,-256.0,9.0,-128.0,58.0,-1.0,0
-12.0,-257.0,9.0,-123.0,52.0,0.0,0
-12.0,-258.0,7.0,-119.0,47.0,2.0,0
-16.0,-255.0,7.0,-114.0,42.0,1.0,0
-14.0,-256.0,4.0,-112.0,38.0,1.0,0
-12.0,-255.0,-1.0,-110.0,38.0,2.0,0
-11.0,-256.0,1.0,-110.0,40.0,5.0,0
-14.0,-252.0,0.0,-113.0,42.0,4.0,0
-15.0,-252.0,-4.0,-115.0,47.0,4.0,0
-14.0,-254.0,-1.0,-119.0,50.0,5.0,0
-12.0,-255.0,-3.0,-124.0,54.0,6.0,0
-7.0,-258.0,-7.0,-125.0,56.0,6.0,0
-12.0,-252.0,-2.0,-124.0,60.0,8.0,0
-12.0,-254.0,-5.0,-122.0,65.0,8.0,0
-10.0,-255.0,0.0,-118.0,70.0,9.0,0
-11.0,-252.0,-1.0,-116.0,76.0,11.0,0
-7.0,-252.0,-5.0,-117.0,80.0,13.0,0
-9.0,-252.0,-4.0,-119.0,82.0,15.0,0
-12.0,-253.0,-5.0,-127.0,86.0,15.0,0
-7.0,-255.0,-5.0,-137.0,87.0,15.0,0
-6.0,-253.0,-5.0,-147.0,86.0,14.0,0
-8.0,-254.0,-7.0,-156.0,87.0,13.0,0
-7.0,-254.0,-11.0,-162.0,89.0,11.0,0
-9.0,-256.0,-13.0,-167.0,89.0,13.0,0
-6.0,-256.0,-15.0,-170.0,90.0,14.0,0
-12.0,-255.0,-13.0,-170.0,93.0,15.0,0
-11.0,-255.0,-13.0,-170.0,96.0,17.0,0
-10.0,-255.0,-9.0,-171.0,101.0,15.0,0
-11.0,-255.0,-13.0,-171.0,106.0,15.0,0
-13.0,-253.0,-14.0,-171.0,112.0,16.0,0
-14.0,-257.0,-12.0,-171.0,116.0,14.0,0
-15.0,-254.0,-14.0,-170.0,115.0,11.0,0
-17.0,-251.0,-15.0,-166.0,109.0,9.0,0
-13.0,-257.0,-14.0,-159.0,99.0,5.0,0
-16.0,-255.0,-16.0,-151.0,89.0,2.0,0
-16.0,-256.0,-14.0,-142.0,79.0,-1.0,0
-15.0,-259.0,-21.0,-132.0,69.0,-3.0,0
-12.0,-260.0,-21.0,-126.0,61.0,-3.0,0
-18.0,-258.0,-20.0,-121.0,55.0,-4.0,0
-12.0,-259.0,-20.0,-118.0,50.0,-5.0,0
-15.0,-258.0,-23.0,-119.0,46.0,-5.0,0
-17.0,-259.0,-20.0,-121.0,43.0,-4.0,0
-19.0,-263.0,-29.0,-123.0,40.0,-6.0,0
-14.0,-261.0,-28.0,-123.0,34.0,-7.0,0
-18.0,-258.0,-28.0,-122.0,30.0,-4.0,0
-12.0,-258.0,-25.0,-120.0,23.0,0.0,0
-17.0,-255.0,-23.0,-122.0,16.0,5.0,0
-11.0,-255.0,-22.0,-124.0,8.0,9.0,0
-11.0,-256.0,-20.0,-127.0,2.0,15.0,0
-14.0,-255.0,-22.0,-130.0,-4.0,18.0,0
-11.0,-253.0,-20.0,-133.0,-7.0,21.0,0
-9.0,-255.0,-20.0,-137.0,-14.0,22.0,0
-8.0,-251.0,-18.0,-141.0,-19.0,23.0,0
-8.0,-255.0,-20.0,-148.0,-22.0,25.0,0
-7.0,-258.0,-18.0,-155.0,-26.0,23.0,0
-7.0,-254.0,-20.0,-162.0,-29.0,23.0,0
-6.0,-255.0,-22.0,-167.0,-29.0,21.0,0
-7.0,-258.0,-21.0,-170.0,-27.0,21.0,0
-4.0,-256.0,-22.0,-172.0,-25.0,19.0,0
-6.0,-255.0,-23.0,-175.0,-23.0,18.0,0
-4.0,-255.0,-24.0,-177.0,-22.0,20.0,0
-8.0,-254.0,-21.0,-179.0,-19.0,21.0,0
-4.0,-255.0,-22.0,-181.0,-16.0,20.0,0
-7.0,-258.0,-20.0,-180.0,-14.0,20.0,0
-11.0,-258.0,-21.0,-179.0,-11.0,18.0,0
-8.0,-258.0,-17.0,-178.0,-6.0,18.0,0
-8.0,-259.0,-20.0,-177.0,-4.0,17.0,0
-8.0,-260.0,-23.0,-174.0,1.0,15.0,0
-7.0,-259.0,-27.0,-170.0,6.0,13.0,0
-8.0,-258.0,-20.0,-166.0,11.0,11.0,0
-8.0,-257.0,-23.0,-160.0,15.0,10.0,0
-11.0,-259.0,-25.0,-152.0,18.0,10.0,0
-9.0,-259.0,-20.0,-143.0,21.0,10.0,0
-10.0,-256.0,-25.0,-134.0,24.0,8.0,0
-11.0,-257.0,-22.0,-125.0,23.0,10.0,0
-16.0,-255.0,-26.0,-118.0,25.0,11.0,0
-12.0,-260.0,-20.0,-113.0,25.0,10.0,0
-13.0,-257.0,-25.0,-110.0,26.0,11.0,0
-16.0,-254.0,-30.0,-109.0,27.0,12.0,0
-15.0,-253.0,-26.0,-111.0,29.0,14.0,0
-14.0,-256.0,-28.0,-116.0,31.0,16.0,0
-16.0,-256.0,-26.0,-120.0,34.0,16.0,0
-15.0,-258.0,-29.0,-122.0,35.0,15.0,0
-17.0,-256.0,-21.0,-119.0,37.0,13.0,0
-14.0,-260.0,-20.0,-111.0,37.0,12.0,0
-19.0,-258.0,-23.0,-102.0,37.0,9.0,0
-14.0,-258.0,-24.0,-93.0,38.0,7.0,0
-16.0,-255.0,-21.0,-88.0,39.0,6.0,0
-12.0,-256.0,-22.0,-83.0,41.0,6.0,0
-13.0,-256.0,-21.0,-81.0,44.0,7.0,0
-13.0,-255.0,-20.0,-82.0,47.0,8.0,0
-12.0,-254.0,-20.0,-81.0,50.0,8.0,0
-10.0,-254.0,-20.0,-80.0,54.0,8.0,0
-15.0,-255.0,-24.0,-80.0,56.0,7.0,0
-12.0,-254.0,-24.0,-78.0,60.0,8.0,0
-11.0,-257.0,-22.0,-75.0,60.0,6.0,0
-8.0,-256.0,-25.0,-72.0,62.0,5.0,0
-12.0,-255.0,-26.0,-70.0,61.0,6.0,0
-9.0,-257.0,-27.0,-69.0,62.0,6.0,0
-12.0,-256.0,-22.0,-68.0,63.0,5.0,0
-7.0,-258.0,-22.0,-66.0,65.0,5.0,0
-12.0,-256.0,-23.0,-65.0,67.0,6.0,0
-8.0,-257.0,-20.0,-64.0,68.0,8.0,0
-9.0,-258.0,-26.0,-61.0,70.0,10.0,0
-10.0,-254.0,-23.0,-58.0,74.0,11.0,0
-9.0,-256.0,-21.0,-55.0,76.0,10.0,0
-9.0,-254.0,-27.0,-52.0,79.0,9.0,0
-11.0,-254.0,-25.0,-50.0,81.0,10.0,0
-11.0,-255.0,-28.0,-50.0,87.0,7.0,0
-11.0,-255.0,-26.0,-47.0,91.0,3.0,0
-12.0,-254.0,-24.0,-46.0,97.0,1.0,0
-12.0,-253.0,-26.0,-44.0,103.0,-1.0,0
-14.0,-255.0,-27.0,-43.0,107.0,-4.0,0
-13.0,-258.0,-23.0,-41.0,110.0,-4.0,0
-13.0,-256.0,-25.0,-39.0,110.0,-5.0,0
-12.0,-256.0,-23.0,-37.0,111.0,-5.0,0
-12.0,-258.0,-28.0,-34.0,112.0,-6.0,0
-14.0,-256.0,-24.0,-31.0,111.0,-4.0,0
-15.0,-255.0,-27.0,-29.0,110.0,-2.0,0
-16.0,-256.0,-26.0,-26.0,109.0,-2.0,0
-13.0,-256.0,-28.0,-25.0,106.0,0.0,0
-16.0,-254.0,-29.0,-25.0,106.0,-1.0,0
-14.0,-256.0,-23.0,-25.0,103.0,-1.0,0
-16.0,-255.0,-22.0,-28.0,100.0,-3.0,0
-14.0,-254.0,-28.0,-29.0,99.0,-5.0,0
-14.0,-257.0,-25.0,-33.0,98.0,-6.0,0
-17.0,-253.0,-26.0,-38.0,97.0,-8.0,0
-13.0,-256.0,-26.0,-41.0,95.0,-8.0,0
-14.0,-256.0,-24.0,-42.0,94.0,-8.0,0
-15.0,-257.0,-28.0,-42.0,93.0,-8.0,0
-10.0,-257.0,-27.0,-43.0,91.0,-7.0,0
-13.0,-255.0,-25.0,-42.0,90.0,-5.0,0
-14.0,-254.0,-30.0,-39.0,88.0,-3.0,0
-11.0,-255.0,-26.0,-35.0,86.0,1.0,0
-10.0,-258.0,-27.0,-30.0,83.0,2.0,0
-9.0,-253.0,-24.0,-29.0,79.0,4.0,0
-12.0,-254.0,-23.0,-28.0,77.0,5.0,0
-10.0,-254.0,-26.0,-26.0,74.0,4.0,0
-10.0,-257.0,-22.0,-27.0,74.0,4.0,0
-11.0,-256.0,-24.0,-27.0,75.0,3.0,0
-5.0,-253.0,-26.0,-30.0,75.0,-1.0,0
-10.0,-253.0,-20.0,-32.0,75.0,-2.0,0
-11.0,-256.0,-21.0,-35.0,73.0,-3.0,0
-13.0,-254.0,-23.0,-37.0,72.0,-6.0,0
-11.0,-256.0,-26.0,-38.0,71.0,-7.0,0
-11.0,-255.0,-21.0,-40.0,67.0,-7.0,0
-12.0,-255.0,-22.0,-41.0,64.0,-7.0,0
-14.0,-255.0,-28.0,-41.0,58.0,-8.0,0
-11.0,-255.0,-24.0,-40.0,51.0,-8.0,0
-9.0,-254.0,-25.0,-38.0,44.0,-7.0,0
-13.0,-255.0,-20.0,-35.0,38.0,-8.0,0
-15.0,-252.0,-25.0,-31.0,35.0,-6.0,0
-13.0,-256.0,-21.0,-26.0,34.0,-8.0,0
-11.0,-257.0,-23.0,-24.0,35.0,-9.0,0
-12.0,-255.0,-22.0,-22.0,37.0,-11.0,0
-12.0,-252.0,-21.0,-22.0,41.0,-12.0,0
-15.0,-251.0,-20.0,-23.0,44.0,-12.0,0
-14.0,-254.0,-22.0,-29.0,47.0,-15.0,0
-13.0,-252.0,-22.0,-34.0,49.0,-15.0,0
-14.0,-253.0,-24.0,-42.0,53.0,-15.0,0
-15.0,-256.0,-25.0,-50.0,54.0,-14.0,0
-15.0,-253.0,-24.0,-59.0,56.0,-14.0,0
-14.0,-253.0,-20.0,-69.0,57.0,-14.0,0
-15.0,-252.0,-25.0,-78.0,56.0,-13.0,0
-13.0,-252.0,-29.0,-85.0,58.0,-12.0,0
-16.0,-253.0,-24.0,-91.0,60.0,-11.0,0
-18.0,-252.0,-26.0,-96.0,62.0,-9.0,0
-15.0,-255.0,-23.0,-101.0,63.0,-7.0,0
-15.0,-256.0,-26.0,-107.0,65.0,-6.0,0
-15.0,-255.0,-24.0,-112.0,66.0,-4.0,0
-14.0,-253.0,-26.0,-114.0,65.0,-1.0,0
-13.0,-252.0,-26.0,-115.0,67.0,-1.0,0
-17.0,-255.0,-25.0,-117.0,68.0,0.0,0
-14.0,-255.0,-27.0,-118.0,70.0,1.0,0
-16.0,-257.0,-29.0,-119.0,71.0,0.0,0
-16.0,-252.0,-26.0,-120.0,71.0,1.0,0
-14.0,-255.0,-32.0,-120.0,72.0,2.0,0
-13.0,-255.0,-31.0,-122.0,71.0,2.0,0
-15.0,-256.0,-29.0,-124.0,70.0,2.0,0
-12.0,-256.0,-30.0,-125.0,68.0,2.0,0
-13.0,-253.0,-24.0,-125.0,65.0,2.0,0
-15.0,-255.0,-23.0,-124.0,62.0,1.0,0
-14.0,-255.0,-27.0,-121.0,59.0,1.0,0
-14.0,-254.0,-29.0,-118.0,54.0,0.0,0
-12.0,-256.0,-27.0,-113.0,52.0,-2.0,0
-16.0,-252.0,-30.0,-106.0,48.0,-3.0,0
-14.0,-256.0,-28.0,-100.0,48.0,-5.0,0
-13.0,-257.0,-30.0,-95.0,47.0,-5.0,0
-15.0,-252.0,-28.0,-90.0,48.0,-5.0,0
-11.0,-254.0,-29.0,-86.0,49.0,-6.0,0
-15.0,-256.0,-31.0,-81.0,49.0,-6.0,0
-11.0,-254.0,-28.0,-78.0,50.0,-6.0,0
-13.0,-255.0,-30.0,-76.0,51.0,-6.0,0
-12.0,-256.0,-29.0,-75.0,50.0,-5.0,0
-10.0,-255.0,-31.0,-74.0,50.0,-7.0,0
-12.0,-255.0,-30.0,-73.0,49.0,-8.0,0
-11.0,-253.0,-33.0,-73.0,49.0,-7.0,0
-8.0,-257.0,-31.0,-73.0,48.0,-9.0,0
-13.0,-253.0,-35.0,-73.0,51.0,-8.0,0
-16.0,-254.0,-33.0,-75.0,53.0,-9.0,0
-14.0,-253.0,-30.0,-77.0,57.0,-9.0,0
-16.0,-256.0,-31.0,-81.0,61.0,-11.0,0
-14.0,-255.0,-32.0,-85.0,67.0,-10.0,0
-14.0,-253.0,-31.0,-91.0,74.0,-9.0,0
-13.0,-254.0,-32.0,-94.0,79.0,-7.0,0
-11.0,-253.0,-30.0,-97.0,82.0,-6.0,0
-21.0,-253.0,-31.0,-99.0,82.0,-5.0,0
-13.0,-256.0,-32.0,-103.0,82.0,-5.0,0
-16.0,-252.0,-33.0,-105.0,80.0,-3.0,0
-13.0,-253.0,-29.0,-108.0,79.0,-2.0,0
-16.0,-251.0,-30.0,-111.0,75.0,0.0,0
-13.0,-251.0,-30.0,-114.0,72.0,2.0,0
-13.0,-254.0,-29.0,-120.0,68.0,4.0,0
-13.0,-251.0,-26.0,-128.0,63.0,6.0,0
-12.0,-251.0,-29.0,-135.0,60.0,7.0,0
-11.0,-256.0,-31.0,-144.0,56.0,10.0,0
-9.0,-258.0,-35.0,-151.0,54.0,11.0,0
-11.0,-256.0,-32.0,-155.0,52.0,11.0,0
-12.0,-257.0,-31.0,-158.0,50.0,12.0,0
-10.0,-257.0,-31.0,-158.0,52.0,12.0,0
-11.0,-257.0,-34.0,-153.0,52.0,13.0,0
-11.0,-259.0,-31.0,-147.0,53.0,14.0,0
-11.0,-258.0,-32.0,-139.0,54.0,13.0,0
-11.0,-256.0,-33.0,-126.0,55.0,13.0,0
-10.0,-256.0,-33.0,-113.0,56.0,12.0,0
-12.0,-257.0,-33.0,-98.0,56.0,10.0,0
-14.0,-258.0,-32.0,-82.0,56.0,9.0,0
-9.0,-260.0,-33.0,-64.0,58.0,7.0,0
-10.0,-260.0,-41.0,-46.0,59.0,7.0,0
-15.0,-255.0,-40.0,-29.0,57.0,4.0,0
-14.0,-255.0,-39.0,-14.0,59.0,5.0,0
-13.0,-251.0,-40.0,-3.0,59.0,3.0,0
-13.0,-255.0,-36.0,5.0,59.0,3.0,0
-11.0,-256.0,-35.0,12.0,59.0,2.0,0
-16.0,-257.0,-39.0,16.0,61.0,2.0,0
-13.0,-253.0,-35.0,19.0,60.0,3.0,0
-15.0,-256.0,-32.0,16.0,58.0,4.0,0
-14.0,-253.0,-34.0,14.0,59.0,4.0,0
-13.0,-252.0,-34.0,10.0,56.0,6.0,0
-14.0,-254.0,-36.0,3.0,55.0,5.0,0
-12.0,-254.0,-35.0,-2.0,55.0,6.0,0
-14.0,-254.0,-40.0,-5.0,53.0,6.0,0
-14.0,-253.0,-35.0,-7.0,56.0,6.0,0
-14.0,-257.0,-35.0,-7.0,59.0,8.0,0
-12.0,-256.0,-34.0,-6.0,62.0,8.0,0
-12.0,-257.0,-33.0,-1.0,66.0,8.0,0
-13.0,-257.0,-37.0,1.0,72.0,9.0,0
-12.0,-259.0,-36.0,4.0,77.0,8.0,0
-12.0,-258.0,-35.0,7.0,81.0,9.0,0
-13.0,-257.0,-37.0,6.0,82.0,10.0,0
-11.0,-257.0,-40.0,6.0,85.0,9.0,0
-11.0,-257.0,-35.0,5.0,87.0,7.0,0
-13.0,-254.0,-33.0,6.0,87.0,7.0,0
-10.0,-254.0,-37.0,9.0,88.0,4.0,0
-13.0,-254.0,-32.0,12.0,87.0,3.0,0
-13.0,-254.0,-36.0,16.0,88.0,2.0,0
-15.0,-254.0,-36.0,19.0,86.0,3.0,0
-13.0,-254.0,-34.0,21.0,85.0,4.0,0
-13.0,-253.0,-31.0,23.0,83.0,4.0,0
-15.0,-253.0,-31.0,23.0,81.0,5.0,0
-15.0,-253.0,-36.0,22.0,78.0,5.0,0
-17.0,-255.0,-35.0,21.0,76.0,6.0,0
-17.0,-256.0,-33.0,20.0,73.0,7.0,0
-14.0,-258.0,-32.0,19.0,72.0,6.0,0
-13.0,-254.0,-36.0,16.0,73.0,6.0,0
-13.0,-256.0,-33.0,17.0,73.0,4.0,0
-14.0,-255.0,-31.0,18.0,71.0,3.0,0
-13.0,-254.0,-35.0,19.0,72.0,0.0,0
-11.0,-256.0,-30.0,22.0,72.0,-4.0,0
-13.0,-254.0,-33.0,25.0,72.0,-6.0,0
-13.0,-257.0,-30.0,28.0,72.0,-5.0,0
-12.0,-255.0,-34.0,32.0,76.0,-5.0,0
-9.0,-258.0,-33.0,37.0,79.0,-3.0,0
-10.0,-256.0,-34.0,43.0,82.0,-1.0,0
-13.0,-256.0,-34.0,47.0,84.0,2.0,0
-12.0,-257.0,-36.0,51.0,82.0,4.0,0
-14.0,-255.0,-32.0,54.0,84.0,5.0,0
-13.0,-257.0,-30.0,57.0,84.0,6.0,0
-14.0,-254.0,-37.0,59.0,85.0,5.0,0
-15.0,-257.0,-38.0,58.0,86.0,3.0,0
-13.0,-257.0,-34.0,55.0,86.0,0.0,0
-12.0,-256.0,-38.0,49.0,86.0,0.0,0
-14.0,-254.0,-39.0,40.0,87.0,1.0,0
-12.0,-255.0,-35.0,33.0,90.0,3.0,0
-13.0,-256.0,-35.0,27.0,93.0,4.0,0
-13.0,-256.0,-31.0,20.0,92.0,7.0,0
-12.0,-256.0,-34.0,16.0,90.0,11.0,0
-12.0,-257.0,-27.0,15.0,89.0,15.0,0
-14.0,-256.0,-35.0,14.0,88.0,20.0,0
-12.0,-256.0,-36.0,18.0,88.0,25.0,0
-13.0,-258.0,-34.0,24.0,87.0,27.0,0
-12.0,-256.0,-31.0,29.0,88.0,28.0,0
-14.0,-256.0,-30.0,36.0,88.0,29.0,0
-16.0,-257.0,-31.0,42.0,86.0,28.0,0
-16.0,-256.0,-30.0,46.0,86.0,25.0,0
-16.0,-255.0,-35.0,47.0,86.0,24.0,0
-16.0,-252.0,-31.0,45.0,83.0,23.0,0
-17.0,-253.0,-29.0,37.0,82.0,23.0,0
-15.0,-257.0,-31.0,25.0,78.0,28.0,0
-12.0,-260.0,-27.0,7.0,76.0,32.0,0
-14.0,-258.0,-31.0,-10.0,73.0,40.0,0
-16.0,-257.0,-28.0,-23.0,69.0,46.0,0
-15.0,-260.0,-28.0,-35.0,65.0,50.0,0
-14.0,-261.0,-27.0,-42.0,63.0,56.0,0
-13.0,-261.0,-30.0,-50.0,60.0,65.0,0
-15.0,-260.0,-30.0,-60.0,57.0,77.0,0
-13.0,-260.0,-27.0,-69.0,55.0,88.0,0
-17.0,-256.0,-28.0,-78.0,49.0,101.0,0
-17.0,-260.0,-29.0,-80.0,45.0,111.0,0
-21.0,-257.0,-30.0,-76.0,40.0,119.0,0
-19.0,-254.0,-29.0,-70.0,39.0,119.0,0
-21.0,-254.0,-29.0,-57.0,39.0,114.0,0
-21.0,-251.0,-29.0,-41.0,41.0,106.0,0
-19.0,-249.0,-25.0,-28.0,44.0,93.0,0
-24.0,-247.0,-31.0,-23.0,49.0,82.0,0
-16.0,-250.0,-26.0,-33.0,50.0,73.0,0
-10.0,-250.0,-28.0,-51.0,51.0,66.0,0
-13.0,-252.0,-27.0,-76.0,48.0,61.0,0
-13.0,-249.0,-25.0,-96.0,47.0,57.0,0
-15.0,-252.0,-25.0,-108.0,49.0,54.0,0
-18.0,-257.0,-31.0,-109.0,52.0,50.0,0
-18.0,-252.0,-27.0,-101.0,57.0,46.0,0
-17.0,-254.0,-32.0,-88.0,63.0,41.0,0
-19.0,-256.0,-28.0,-72.0,69.0,35.0,0
-18.0,-255.0,-30.0,-53.0,73.0,27.0,0
-19.0,-252.0,-32.0,-35.0,78.0,18.0,0
-19.0,-255.0,-32.0,-23.0,84.0,7.0,0
-20.0,-258.0,-30.0,-20.0,91.0,0.0,0
-21.0,-259.0,-34.0,-27.0,97.0,-5.0,0
-23.0,-258.0,-35.0,-42.0,102.0,-14.0,0
-20.0,-263.0,-32.0,-57.0,105.0,-23.0,0
-19.0,-260.0,-30.0,-70.0,109.0,-35.0,0
-19.0,-266.0,-34.0,-73.0,113.0,-48.0,0
-21.0,-260.0,-31.0,-71.0,120.0,-61.0,0
-18.0,-258.0,-31.0,-63.0,127.0,-75.0,0
-19.0,-259.0,-30.0,-53.0,136.0,-85.0,0
-15.0,-253.0,-34.0,-39.0,144.0,-93.0,0
-16.0,-251.0,-29.0,-23.0,149.0,-93.0,0
-15.0,-250.0,-27.0,-3.0,151.0,-87.0,0
-14.0,-249.0,-23.0,15.0,149.0,-77.0,0
-14.0,-249.0,-24.0,31.0,139.0,-64.0,0
-14.0,-247.0,-24.0,41.0,125.0,-54.0,0
-14.0,-247.0,-25.0,42.0,111.0,-45.0,0
-14.0,-248.0,-23.0,35.0,98.0,-35.0,0
-14.0,-248.0,-26.0,23.0,89.0,-33.0,0
-11.0,-249.0,-25.0,8.0,85.0,-30.0,0
-15.0,-248.0,-23.0,-10.0,85.0,-29.0,0
-14.0,-248.0,-25.0,-29.0,90.0,-28.0,0
-11.0,-248.0,-23.0,-46.0,95.0,-29.0,0
-12.0,-249.0,-26.0,-57.0,103.0,-31.0,0
-10.0,-252.0,-22.0,-64.0,109.0,-34.0,0
-12.0,-250.0,-23.0,-64.0,114.0,-38.0,0
-11.0,-250.0,-27.0,-61.0,115.0,-40.0,0
-8.0,-251.0,-27.0,-56.0,112.0,-43.0,0
-10.0,-251.0,-28.0,-52.0,106.0,-43.0,0
-9.0,-251.0,-30.0,-50.0,100.0,-42.0,0
-6.0,-249.0,-32.0,-47.0,92.0,-41.0,0
-7.0,-247.0,-33.0,-46.0,86.0,-42.0,0
-9.0,-248.0,-35.0,-50.0,87.0,-41.0,0
-9.0,-246.0,-36.0,-60.0,95.0,-40.0,0
-13.0,-245.0,-36.0,-74.0,102.0,-38.0,0
-12.0,-247.0,-43.0,-93.0,105.0,-33.0,0
-13.0,-247.0,-41.0,-110.0,106.0,-26.0,0
-12.0,-247.0,-40.0,-125.0,106.0,-18.0,0
-14.0,-247.0,-41.0,-140.0,103.0,-14.0,0
-16.0,-247.0,-40.0,-152.0,103.0,-9.0,0
-16.0,-247.0,-42.0,-162.0,101.0,-5.0,0
-16.0,-249.0,-42.0,-171.0,99.0,-1.0,0
-16.0,-250.0,-43.0,-177.0,99.0,1.0,0
-18.0,-252.0,-46.0,-180.0,100.0,2.0,0
-16.0,-254.0,-47.0,-180.0,100.0,4.0,0
-17.0,-252.0,-50.0,-178.0,99.0,6.0,0
-23.0,-254.0,-48.0,-177.0,99.0,13.0,0
-22.0,-251.0,-46.0,-178.0,97.0,18.0,0
-20.0,-255.0,-44.0,-180.0,93.0,24.0,0
-20.0,-252.0,-41.0,-184.0,89.0,31.0,0
-22.0,-252.0,-36.0,-185.0,84.0,34.0,0
-21.0,-255.0,-35.0,-187.0,75.0,36.0,0
-21.0,-251.0,-35.0,-192.0,68.0,37.0,0
-21.0,-250.0,-35.0,-200.0,59.0,37.0,0
-18.0,-247.0,-31.0,-213.0,51.0,35.0,0
-16.0,-251.0,-33.0,-231.0,49.0,32.0,0
-17.0,-253.0,-36.0,-251.0,50.0,27.0,0
-16.0,-252.0,-34.0,-270.0,53.0,26.0,0
-14.0,-253.0,-32.0,-288.0,59.0,27.0,0
-13.0,-253.0,-35.0,-307.0,63.0,31.0,0
-11.0,-253.0,-33.0,-324.0,64.0,40.0,0
-12.0,-253.0,-36.0,-339.0,65.0,50.0,0
-10.0,-255.0,-35.0,-346.0,67.0,57.0,0
-15.0,-253.0,-34.0,-352.0,69.0,63.0,0
-12.0,-256.0,-35.0,-361.0,71.0,69.0,0
-12.0,-256.0,-34.0,-370.0,72.0,74.0,0
-14.0,-255.0,-33.0,-378.0,71.0,77.0,0
-12.0,-251.0,-30.0,-386.0,71.0,75.0,0
-14.0,-250.0,-32.0,-395.0,73.0,66.0,0
-14.0,-249.0,-30.0,-401.0,77.0,57.0,0
-12.0,-249.0,-31.0,-407.0,81.0,48.0,0
-13.0,-249.0,-26.0,-411.0,89.0,40.0,0
-12.0,-245.0,-31.0,-417.0,99.0,35.0,0
-13.0,-245.0,-35.0,-426.0,109.0,34.0,0
-14.0,-244.0,-34.0,-443.0,119.0,35.0,0
-13.0,-246.0,-42.0,-468.0,127.0,37.0,0
-11.0,-246.0,-34.0,-499.0,131.0,45.0,0
-12.0,-246.0,-45.0,-535.0,133.0,56.0,0
-12.0,-248.0,-45.0,-571.0,136.0,66.0,0
-15.0,-250.0,-46.0,-606.0,137.0,78.0,0
-13.0,-249.0,-50.0,-634.0,140.0,87.0,0
-14.0,-250.0,-49.0,-656.0,142.0,90.0,0
-19.0,-249.0,-54.0,-675.0,146.0,93.0,0
-18.0,-247.0,-54.0,-686.0,150.0,89.0,0
-21.0,-244.0,-52.0,-692.0,150.0,91.0,0
-23.0,-246.0,-55.0,-696.0,149.0,89.0,0
-20.0,-246.0,-59.0,-702.0,144.0,89.0,0
-20.0,-243.0,-60.0,-715.0,136.0,86.0,0
-16.0,-245.0,-58.0,-734.0,128.0,80.0,0
-20.0,-243.0,-58.0,-755.0,124.0,72.0,0
-16.0,-243.0,-64.0,-779.0,121.0,68.0,0
-19.0,-240.0,-65.0,-805.0,125.0,63.0,0
-16.0,-242.0,-66.0,-836.0,133.0,60.0,0
-16.0,-243.0,-62.0,-869.0,142.0,62.0,0
-13.0,-246.0,-61.0,-907.0,147.0,67.0,0
-13.0,-246.0,-67.0,-944.0,152.0,74.0,0
-12.0,-244.0,-65.0,-978.0,154.0,80.0,0
-12.0,-243.0,-66.0,-1005.0,152.0,81.0,0
-12.0,-242.0,-72.0,-1024.0,154.0,80.0,0
-14.0,-243.0,-72.0,-1040.0,155.0,79.0,0
-16.0,-240.0,-72.0,-1050.0,159.0,78.0,0
-16.0,-237.0,-72.0,-1056.0,168.0,76.0,0
-15.0,-235.0,-71.0,-1062.0,175.0,75.0,0
-14.0,-238.0,-71.0,-1067.0,181.0,75.0,0
-14.0,-239.0,-77.0,-1075.0,184.0,79.0,0
-13.0,-242.0,-78.0,-1084.0,182.0,82.0,0
-11.0,-245.0,-79.0,-1094.0,178.0,84.0,0
-11.0,-244.0,-77.0,-1104.0,171.0,89.0,0
-9.0,-247.0,-75.0,-1112.0,161.0,95.0,0
-10.0,-247.0,-76.0,-1120.0,152.0,103.0,0
-10.0,-246.0,-68.0,-1125.0,144.0,111.0,0
-12.0,-244.0,-74.0,-1127.0,141.0,119.0,0
-13.0,-247.0,-76.0,-1120.0,137.0,125.0,0
-18.0,-242.0,-81.0,-1110.0,138.0,126.0,0
-17.0,-238.0,-83.0,-1099.0,141.0,132.0,0
-19.0,-233.0,-84.0,-1083.0,149.0,135.0,0
-14.0,-231.0,-84.0,-1071.0,160.0,136.0,0
-19.0,-227.0,-85.0,-1063.0,174.0,139.0,0
-17.0,-223.0,-88.0,-1063.0,190.0,146.0,0
-21.0,-223.0,-92.0,-1073.0,201.0,156.0,0
-22.0,-220.0,-96.0,-1092.0,206.0,167.0,0
-24.0,-219.0,-101.0,-1122.0,204.0,177.0,0
-29.0,-216.0,-101.0,-1158.0,190.0,189.0,0
-24.0,-217.0,-102.0,-1197.0,168.0,201.0,0
-24.0,-220.0,-102.0,-1229.0,148.0,211.0,0
-24.0,-224.0,-102.0,-1255.0,127.0,220.0,0
-21.0,-234.0,-102.0,-1277.0,111.0,228.0,0
-22.0,-243.0,-99.0,-1297.0,103.0,230.0,0
-21.0,-249.0,-102.0,-1317.0,100.0,227.0,0
-21.0,-249.0,-100.0,-1336.0,105.0,220.0,0
-19.0,-252.0,-97.0,-1362.0,114.0,213.0,0
-22.0,-249.0,-102.0,-1397.0,124.0,207.0,0
-22.0,-247.0,-106.0,-1441.0,138.0,209.0,0
-21.0,-245.0,-107.0,-1494.0,149.0,217.0,0
-25.0,-239.0,-110.0,-1554.0,155.0,233.0,0
-23.0,-229.0,-119.0,-1618.0,149.0,251.0,0
-25.0,-225.0,-125.0,-1679.0,145.0,267.0,0
-27.0,-221.0,-134.0,-1734.0,131.0,280.0,0
-24.0,-216.0,-144.0,-1771.0,107.0,286.0,0
-21.0,-210.0,-151.0,-1782.0,100.0,284.0,0
-26.0,-207.0,-160.0,-1769.0,105.0,279.0,0
-24.0,-203.0,-162.0,-1737.0,115.0,275.0,0
-32.0,-199.0,-162.0,-1693.0,123.0,271.0,0
-32.0,-198.0,-172.0,-1652.0,134.0,268.0,0
-26.0,-199.0,-179.0,-1629.0,146.0,264.0,0
-31.0,-201.0,-186.0,-1620.0,179.0,258.0,0
-34.0,-207.0,-194.0,-1636.0,213.0,258.0,0
-39.0,-211.0,-190.0,-1673.0,213.0,262.0,0
-41.0,-213.0,-196.0,-1708.0,187.0,260.0,0
-38.0,-215.0,-192.0,-1735.0,167.0,258.0,0
-45.0,-214.0,-197.0,-1759.0,153.0,250.0,0
-41.0,-216.0,-201.0,-1797.0,142.0,240.0,0
-44.0,-211.0,-203.0,-1840.0,156.0,220.0,0
-43.0,-211.0,-209.0,-1880.0,186.0,194.0,0
-42.0,-211.0,-211.0,-1911.0,194.0,175.0,0
-29.0,-210.0,-216.0,-1911.0,193.0,155.0,0
-23.0,-202.0,-225.0,-1877.0,210.0,125.0,0
-22.0,-199.0,-231.0,-1812.0,243.0,106.0,0
-16.0,-202.0,-238.0,-1713.0,259.0,101.0,0
-21.0,-202.0,-240.0,-1598.0,285.0,83.0,0
-15.0,-204.0,-242.0,-1476.0,297.0,79.0,0
-23.0,-202.0,-240.0,-1359.0,290.0,77.0,0
-24.0,-197.0,-241.0,-1249.0,274.0,82.0,0
-28.0,-202.0,-230.0,-1158.0,235.0,83.0,0
-27.0,-195.0,-234.0,-1087.0,173.0,81.0,0
-21.0,-200.0,-232.0,-1053.0,98.0,86.0,0
-16.0,-212.0,-222.0,-1039.0,35.0,85.0,0
-34.0,-207.0,-223.0,-1017.0,-2.0,40.0,0
-16.0,-219.0,-226.0,-1008.0,-31.0,39.0,0
-19.0,-213.0,-225.0,-991.0,-18.0,17.0,0
-27.0,-214.0,-223.0,-967.0,24.0,-12.0,0
-20.0,-220.0,-224.0,-925.0,66.0,-15.0,0
-28.0,-214.0,-219.0,-857.0,128.0,-37.0,0
-31.0,-209.0,-219.0,-779.0,172.0,-51.0,0
-31.0,-206.0,-217.0,-702.0,186.0,-34.0,0
-33.0,-199.0,-214.0,-638.0,183.0,-22.0,0
-32.0,-199.0,-218.0,-591.0,166.0,-16.0,0
-34.0,-195.0,-215.0,-564.0,141.0,-26.0,0
-30.0,-192.0,-221.0,-538.0,112.0,-36.0,0
-32.0,-188.0,-220.0,-520.0,81.0,-38.0,0
-29.0,-186.0,-220.0,-508.0,50.0,-36.0,0
-31.0,-183.0,-224.0,-494.0,34.0,-26.0,0
-33.0,-186.0,-216.0,-477.0,28.0,-13.0,0
-34.0,-174.0,-227.0,-454.0,36.0,-6.0,0
-34.0,-169.0,-233.0,-435.0,55.0,2.0,0
-37.0,-163.0,-239.0,-429.0,72.0,6.0,0
-37.0,-165.0,-248.0,-431.0,89.0,8.0,0
-35.0,-166.0,-256.0,-433.0,100.0,12.0,0
-29.0,-168.0,-262.0,-422.0,106.0,15.0,0
-27.0,-176.0,-265.0,-391.0,108.0,16.0,0
-25.0,-177.0,-268.0,-336.0,106.0,9.0,0
-20.0,-182.0,-266.0,-261.0,97.0,4.0,0
-20.0,-181.0,-266.0,-179.0,85.0,1.0,0
-24.0,-177.0,-268.0,-110.0,72.0,1.0,0
-28.0,-178.0,-262.0,-50.0,63.0,-3.0,0
-34.0,-176.0,-261.0,-2.0,58.0,-7.0,0
-43.0,-172.0,-252.0,35.0,65.0,-14.0,0
-44.0,-171.0,-254.0,64.0,75.0,-20.0,0
-42.0,-165.0,-251.0,85.0,88.0,-29.0,0
-28.0,-167.0,-255.0,96.0,91.0,-34.0,0
-23.0,-163.0,-246.0,105.0,89.0,-39.0,0
-22.0,-158.0,-246.0,113.0,82.0,-45.0,0
-17.0,-164.0,-245.0,120.0,80.0,-45.0,0
-20.0,-166.0,-235.0,130.0,86.0,-41.0,0
-20.0,-168.0,-234.0,149.0,95.0,-39.0,0
-29.0,-163.0,-228.0,174.0,102.0,-34.0,0
-33.0,-159.0,-230.0,196.0,107.0,-29.0,0
-42.0,-156.0,-232.0,216.0,108.0,-28.0,0
-38.0,-156.0,-231.0,231.0,103.0,-35.0,0
-52.0,-149.0,-229.0,244.0,103.0,-55.0,0
-50.0,-152.0,-232.0,251.0,82.0,-52.0,0
-50.0,-159.0,-226.0,253.0,61.0,-58.0,0
-52.0,-156.0,-222.0,256.0,31.0,-70.0,0
-52.0,-160.0,-220.0,257.0,-2.0,-67.0,0
-49.0,-159.0,-216.0,254.0,-37.0,-65.0,0
-48.0,-156.0,-217.0,241.0,-71.0,-50.0,0
-49.0,-157.0,-215.0,216.0,-92.0,-35.0,0
-43.0,-158.0,-216.0,187.0,-105.0,-9.0,0
-40.0,-157.0,-221.0,161.0,-107.0,18.0,0
-36.0,-163.0,-218.0,143.0,-99.0,39.0,0
-37.0,-163.0,-217.0,135.0,-91.0,52.0,0
-36.0,-164.0,-216.0,139.0,-88.0,60.0,0
-34.0,-167.0,-213.0,156.0,-88.0,73.0,0
-33.0,-165.0,-213.0,176.0,-92.0,72.0,0
-38.0,-169.0,-213.0,193.0,-103.0,59.0,0
-33.0,-169.0,-213.0,203.0,-111.0,32.0,0
-33.0,-167.0,-209.0,217.0,-106.0,-2.0,0
-39.0,-171.0,-208.0,236.0,-93.0,-28.0,0
-37.0,-173.0,-209.0,265.0,-71.0,-39.0,0
-30.0,-171.0,-209.0,295.0,-49.0,-37.0,0
-28.0,-173.0,-212.0,323.0,-20.0,-31.0,0
-20.0,-179.0,-210.0,349.0,9.0,-24.0,0
-20.0,-180.0,-210.0,376.0,36.0,-18.0,0
-19.0,-179.0,-212.0,400.0,57.0,-15.0,0
-20.0,-179.0,-212.0,427.0,77.0,-14.0,0
-23.0,-173.0,-212.0,456.0,90.0,-10.0,0
-29.0,-172.0,-211.0,484.0,95.0,3.0,0
-35.0,-167.0,-212.0,507.0,94.0,19.0,0
-39.0,-168.0,-211.0,528.0,98.0,32.0,0
-42.0,-165.0,-204.0,548.0,115.0,42.0,0
-46.0,-167.0,-203.0,568.0,140.0,50.0,0
-45.0,-164.0,-205.0,584.0,164.0,60.0,0
-46.0,-169.0,-205.0,595.0,185.0,63.0,0
-47.0,-165.0,-206.0,595.0,208.0,59.0,0
-42.0,-170.0,-204.0,586.0,220.0,55.0,0
-38.0,-172.0,-202.0,570.0,227.0,45.0,0
-38.0,-175.0,-201.0,549.0,230.0,30.0,0
-32.0,-181.0,-203.0,529.0,230.0,14.0,0
-32.0,-175.0,-198.0,506.0,228.0,2.0,0
-32.0,-183.0,-199.0,482.0,224.0,-8.0,0
-32.0,-185.0,-205.0,466.0,216.0,-12.0,0
-28.0,-181.0,-200.0,443.0,212.0,-11.0,0
-28.0,-182.0,-199.0,416.0,206.0,-9.0,0
-32.0,-179.0,-197.0,385.0,199.0,-6.0,0
-30.0,-178.0,-198.0,359.0,193.0,-4.0,0
-33.0,-180.0,-196.0,340.0,186.0,0.0,0
-38.0,-180.0,-193.0,334.0,182.0,5.0,0
-36.0,-180.0,-193.0,338.0,182.0,10.0,0
-32.0,-184.0,-187.0,357.0,182.0,12.0,0
-35.0,-186.0,-189.0,385.0,186.0,9.0,0
-32.0,-185.0,-189.0,415.0,197.0,-1.0,0
-34.0,-184.0,-184.0,448.0,212.0,-13.0,0
-31.0,-185.0,-185.0,478.0,228.0,-20.0,0
-27.0,-187.0,-182.0,505.0,243.0,-28.0,0
-27.0,-184.0,-185.0,526.0,255.0,-34.0,0
-26.0,-181.0,-187.0,530.0,251.0,-35.0,0
-28.0,-179.0,-188.0,521.0,236.0,-33.0,0
-27.0,-179.0,-187.0,500.0,210.0,-25.0,0
-27.0,-179.0,-185.0,473.0,179.0,-15.0,0
-29.0,-175.0,-186.0,450.0,152.0,-12.0,0
-24.0,-172.0,-188.0,435.0,135.0,-7.0,0
-29.0,-177.0,-179.0,429.0,121.0,-3.0,0
-39.0,-177.0,-177.0,434.0,115.0,-4.0,0
-37.0,-181.0,-171.0,449.0,116.0,-8.0,0
-38.0,-181.0,-175.0,473.0,124.0,-15.0,0
-38.0,-184.0,-171.0,501.0,138.0,-22.0,0
-34.0,-190.0,-168.0,529.0,156.0,-31.0,0
-34.0,-188.0,-164.0,549.0,173.0,-37.0,0
-33.0,-188.0,-166.0,561.0,187.0,-42.0,0
-31.0,-186.0,-166.0,564.0,195.0,-44.0,0
-25.0,-188.0,-163.0,557.0,192.0,-45.0,0
-17.0,-189.0,-161.0,549.0,183.0,-44.0,0
-13.0,-186.0,-163.0,539.0,172.0,-40.0,0
-7.0,-187.0,-166.0,534.0,157.0,-34.0,0
-10.0,-187.0,-166.0,535.0,144.0,-24.0,0
-8.0,-188.0,-170.0,544.0,132.0,-13.0,0
-9.0,-186.0,-164.0,555.0,123.0,-2.0,0
-11.0,-188.0,-162.0,568.0,121.0,7.0,0
-13.0,-191.0,-163.0,577.0,121.0,12.0,0
-20.0,-189.0,-165.0,589.0,130.0,16.0,0
-18.0,-193.0,-161.0,604.0,140.0,19.0,0
-22.0,-194.0,-156.0,625.0,150.0,18.0,0
-25.0,-194.0,-159.0,646.0,159.0,10.0,0
-25.0,-196.0,-158.0,667.0,169.0,-1.0,0
-26.0,-198.0,-156.0,687.0,173.0,-10.0,0
-26.0,-198.0,-156.0,701.0,171.0,-14.0,0
-25.0,-196.0,-154.0,718.0,162.0,-25.0,0
-24.0,-199.0,-153.0,728.0,150.0,-26.0,0
-24.0,-198.0,-152.0,732.0,144.0,-19.0,0
-23.0,-196.0,-147.0,725.0,142.0,-12.0,0
-28.0,-192.0,-151.0,712.0,136.0,-8.0,0
-30.0,-193.0,-147.0,703.0,127.0,-11.0,0
-32.0,-197.0,-148.0,697.0,115.0,-15.0,0
-33.0,-197.0,-148.0,697.0,102.0,-21.0,0
-36.0,-198.0,-145.0,707.0,89.0,-31.0,0
-38.0,-199.0,-145.0,722.0,76.0,-44.0,0
-36.0,-203.0,-146.0,746.0,66.0,-56.0,0
-37.0,-204.0,-142.0,775.0,52.0,-68.0,0
-38.0,-207.0,-141.0,808.0,34.0,-78.0,0
-33.0,-206.0,-136.0,842.0,15.0,-87.0,0
-30.0,-210.0,-141.0,876.0,-4.0,-97.0,0
-26.0,-207.0,-137.0,901.0,-17.0,-106.0,0
-25.0,-203.0,-138.0,910.0,-28.0,-109.0,0
-23.0,-203.0,-141.0,906.0,-34.0,-111.0,0
-21.0,-200.0,-132.0,889.0,-40.0,-107.0,0
-18.0,-196.0,-136.0,870.0,-47.0,-103.0,0
-14.0,-199.0,-132.0,855.0,-54.0,-100.0,0
-17.0,-197.0,-127.0,843.0,-61.0,-98.0,0
-16.0,-196.0,-130.0,841.0,-72.0,-95.0,0
-19.0,-197.0,-133.0,848.0,-89.0,-98.0,0
-19.0,-199.0,-127.0,856.0,-112.0,-97.0,0
-23.0,-198.0,-128.0,868.0,-132.0,-84.0,0
-26.0,-201.0,-128.0,880.0,-151.0,-73.0,0
-28.0,-197.0,-127.0,895.0,-166.0,-68.0,0
-28.0,-199.0,-126.0,909.0,-179.0,-63.0,0
-29.0,-198.0,-129.0,917.0,-189.0,-63.0,0
-27.0,-200.0,-123.0,919.0,-197.0,-67.0,0
-25.0,-201.0,-125.0,916.0,-205.0,-71.0,0
-25.0,-199.0,-124.0,909.0,-211.0,-76.0,0
-24.0,-199.0,-124.0,897.0,-215.0,-83.0,0
-19.0,-205.0,-122.0,880.0,-215.0,-90.0,0
-13.0,-207.0,-122.0,856.0,-210.0,-99.0,0
-10.0,-206.0,-118.0,832.0,-200.0,-109.0,0
0.0,-210.0,-120.0,812.0,-192.0,-123.0,0
-2.0,-213.0,-109.0,800.0,-184.0,-140.0,0
2.0,-216.0,-115.0,800.0,-182.0,-158.0,0
1.0,-214.0,-108.0,812.0,-181.0,-174.0,0
2.0,-220.0,-104.0,835.0,-178.0,-189.0,0
0.0,-220.0,-104.0,868.0,-175.0,-201.0,0
0.0,-220.0,-104.0,904.0,-173.0,-211.0,0
-3.0,-219.0,-105.0,938.0,-169.0,-217.0,0
-9.0,-218.0,-96.0,962.0,-167.0,-222.0,0
-8.0,-218.0,-100.0,973.0,-165.0,-221.0,0
-12.0,-217.0,-99.0,973.0,-162.0,-223.0,0
-15.0,-211.0,-99.0,965.0,-154.0,-226.0,0
-15.0,-207.0,-96.0,955.0,-145.0,-229.0,0
-19.0,-204.0,-98.0,945.0,-136.0,-232.0,0
-20.0,-203.0,-89.0,935.0,-129.0,-233.0,0
-25.0,-199.0,-90.0,926.0,-127.0,-231.0,0
-27.0,-198.0,-85.0,922.0,-132.0,-226.0,0
-29.0,-199.0,-87.0,926.0,-142.0,-218.0,0
-26.0,-197.0,-82.0,935.0,-148.0,-209.0,0
-27.0,-196.0,-84.0,950.0,-151.0,-196.0,0
-26.0,-198.0,-80.0,964.0,-150.0,-182.0,0
-25.0,-200.0,-81.0,978.0,-148.0,-169.0,0
-18.0,-202.0,-82.0,988.0,-148.0,-155.0,0
-19.0,-202.0,-83.0,991.0,-149.0,-141.0,0
-15.0,-200.0,-78.0,983.0,-150.0,-134.0,0
-8.0,-200.0,-82.0,963.0,-150.0,-130.0,0
-2.0,-199.0,-84.0,934.0,-151.0,-126.0,0
-4.0,-201.0,-85.0,899.0,-152.0,-126.0,0
-1.0,-195.0,-84.0,868.0,-150.0,-127.0,0
-2.0,-197.0,-85.0,838.0,-144.0,-127.0,0
0.0,-196.0,-85.0,811.0,-129.0,-131.0,0
4.0,-192.0,-84.0,787.0,-106.0,-137.0,0
5.0,-193.0,-81.0,767.0,-79.0,-139.0,0
3.0,-193.0,-81.0,752.0,-50.0,-146.0,0
3.0,-192.0,-80.0,738.0,-20.0,-151.0,0
0.0,-194.0,-76.0,728.0,4.0,-159.0,0
0.0,-192.0,-77.0,720.0,15.0,-170.0,0
-9.0,-191.0,-75.0,705.0,20.0,-160.0,0
-9.0,-191.0,-73.0,683.0,20.0,-144.0,0
-10.0,-196.0,-81.0,655.0,20.0,-131.0,0
-14.0,-196.0,-78.0,617.0,23.0,-117.0,0
-14.0,-199.0,-79.0,578.0,28.0,-102.0,0
-19.0,-199.0,-76.0,540.0,39.0,-89.0,0
-18.0,-199.0,-77.0,508.0,53.0,-81.0,0
-18.0,-201.0,-76.0,474.0,67.0,-72.0,0
-18.0,-204.0,-77.0,443.0,79.0,-64.0,0
-15.0,-206.0,-77.0,408.0,92.0,-58.0,0
-17.0,-210.0,-77.0,370.0,103.0,-57.0,0
-17.0,-207.0,-76.0,334.0,111.0,-59.0,0
-19.0,-213.0,-74.0,305.0,110.0,-59.0,0
-19.0,-215.0,-68.0,287.0,102.0,-57.0,0
-22.0,-218.0,-68.0,283.0,90.0,-59.0,0
-24.0,-222.0,-72.0,291.0,78.0,-64.0,0
-20.0,-226.0,-69.0,303.0,68.0,-72.0,0
-23.0,-228.0,-65.0,319.0,62.0,-79.0,0
-21.0,-230.0,-68.0,333.0,62.0,-88.0,0
-22.0,-233.0,-63.0,349.0,68.0,-98.0,0
-23.0,-237.0,-59.0,369.0,76.0,-107.0,0
-22.0,-240.0,-59.0,391.0,86.0,-118.0,0
-26.0,-241.0,-56.0,412.0,95.0,-130.0,0
-22.0,-247.0,-58.0,431.0,103.0,-139.0,0
-24.0,-246.0,-65.0,440.0,110.0,-141.0,0
-21.0,-246.0,-66.0,449.0,115.0,-138.0,0
-21.0,-240.0,-65.0,456.0,115.0,-134.0,0
-23.0,-241.0,-71.0,466.0,118.0,-129.0,0
-19.0,-243.0,-72.0,476.0,120.0,-129.0,0
-19.0,-238.0,-71.0,494.0,122.0,-129.0,0
-21.0,-239.0,-66.0,517.0,123.0,-133.0,0
-21.0,-236.0,-67.0,547.0,124.0,-135.0,0
-14.0,-238.0,-64.0,578.0,128.0,-137.0,0
-18.0,-238.0,-62.0,600.0,134.0,-138.0,0
-19.0,-232.0,-64.0,612.0,139.0,-137.0,0
-18.0,-229.0,-65.0,606.0,143.0,-136.0,0
-20.0,-225.0,-73.0,585.0,140.0,-133.0,0
-12.0,-221.0,-75.0,550.0,136.0,-125.0,0
-20.0,-225.0,-70.0,519.0,134.0,-134.0,0
-21.0,-221.0,-70.0,483.0,133.0,-124.0,0
-22.0,-221.0,-69.0,449.0,135.0,-103.0,0
-23.0,-219.0,-62.0,422.0,137.0,-87.0,0
-23.0,-226.0,-57.0,402.0,139.0,-81.0,0
-23.0,-227.0,-56.0,392.0,141.0,-81.0,0
-23.0,-226.0,-55.0,384.0,140.0,-80.0,0
-27.0,-231.0,-56.0,371.0,139.0,-79.0,0
-22.0,-238.0,-55.0,354.0,137.0,-76.0,0
-24.0,-237.0,-57.0,339.0,132.0,-75.0,0
-23.0,-239.0,-54.0,322.0,122.0,-74.0,0
-22.0,-243.0,-54.0,307.0,109.0,-73.0,0
-19.0,-248.0,-55.0,299.0,91.0,-71.0,0
-20.0,-247.0,-56.0,298.0,79.0,-70.0,0
-19.0,-251.0,-58.0,304.0,75.0,-69.0,0
-13.0,-250.0,-55.0,306.0,82.0,-70.0,0
-14.0,-248.0,-58.0,309.0,93.0,-70.0,0
-12.0,-248.0,-53.0,316.0,104.0,-74.0,0
-12.0,-249.0,-50.0,332.0,112.0,-77.0,0
-10.0,-253.0,-51.0,352.0,114.0,-79.0,0
-14.0,-248.0,-49.0,367.0,111.0,-83.0,0
-15.0,-247.0,-49.0,369.0,102.0,-84.0,0
-16.0,-248.0,-49.0,359.0,92.0,-83.0,0
-17.0,-245.0,-48.0,341.0,81.0,-84.0,0
-15.0,-246.0,-52.0,322.0,73.0,-82.0,0
-18.0,-246.0,-47.0,303.0,65.0,-81.0,0
-15.0,-248.0,-53.0,285.0,60.0,-79.0,0
-16.0,-250.0,-54.0,267.0,56.0,-77.0,0
-13.0,-251.0,-53.0,254.0,54.0,-75.0,0
-14.0,-248.0,-49.0,245.0,55.0,-73.0,0
-9.0,-250.0,-46.0,239.0,55.0,-74.0,0
-10.0,-249.0,-43.0,239.0,55.0,-72.0,0
-10.0,-247.0,-41.0,241.0,55.0,-70.0,0
-7.0,-249.0,-42.0,243.0,54.0,-66.0,0
-4.0,-249.0,-45.0,241.0,56.0,-62.0,0
-4.0,-248.0,-40.0,231.0,60.0,-55.0,0
-10.0,-244.0,-40.0,213.0,62.0,-48.0,0
-9.0,-247.0,-46.0,192.0,62.0,-41.0,0
-5.0,-248.0,-42.0,169.0,59.0,-33.0,0
-10.0,-248.0,-48.0,149.0,54.0,-26.0,0
-8.0,-246.0,-46.0,130.0,50.0,-19.0,0
-6.0,-248.0,-42.0,112.0,45.0,-14.0,0
-6.0,-249.0,-45.0,99.0,41.0,-9.0,0
-5.0,-249.0,-47.0,87.0,37.0,-4.0,0
-10.0,-249.0,-41.0,79.0,37.0,-1.0,0
-14.0,-249.0,-44.0,69.0,38.0,2.0,0
-12.0,-250.0,-45.0,56.0,42.0,4.0,0
-10.0,-250.0,-43.0,38.0,47.0,5.0,0
-15.0,-251.0,-46.0,16.0,52.0,4.0,0
-15.0,-256.0,-47.0,-6.0,53.0,3.0,0
-15.0,-256.0,-42.0,-26.0,52.0,1.0,0
-14.0,-257.0,-45.0,-40.0,50.0,1.0,0
-14.0,-258.0,-44.0,-47.0,48.0,2.0,0
-13.0,-259.0,-49.0,-47.0,44.0,4.0,0
-10.0,-258.0,-42.0,-46.0,41.0,7.0,0
-14.0,-254.0,-49.0,-42.0,40.0,11.0,0
-12.0,-254.0,-45.0,-40.0,34.0,17.0,0
-5.0,-251.0,-44.0,-42.0,30.0,19.0,0
-14.0,-254.0,-53.0,-38.0,27.0,-2.0,0
-13.0,-254.0,-51.0,-43.0,27.0,7.0,0
-15.0,-252.0,-50.0,-52.0,26.0,23.0,0
-12.0,-256.0,-45.0,-56.0,29.0,29.0,0
-10.0,-252.0,-43.0,-56.0,32.0,27.0,0
-12.0,-257.0,-45.0,-50.0,36.0,25.0,0
-13.0,-252.0,-45.0,-40.0,38.0,23.0,0
-9.0,-256.0,-42.0,-30.0,39.0,22.0,0
-12.0,-257.0,-44.0,-20.0,37.0,23.0,0
-8.0,-253.0,-43.0,-17.0,35.0,24.0,0
-10.0,-255.0,-43.0,-15.0,33.0,24.0,0
-7.0,-256.0,-40.0,-12.0,32.0,24.0,0
-7.0,-255.0,-42.0,-11.0,32.0,25.0,0
-7.0,-258.0,-40.0,-7.0,31.0,25.0,0
-2.0,-257.0,-36.0,1.0,32.0,26.0,0
-6.0,-259.0,-42.0,7.0,34.0,25.0,0
-8.0,-254.0,-41.0,14.0,33.0,27.0,0
-9.0,-253.0,-41.0,21.0,32.0,27.0,0
-7.0,-257.0,-46.0,24.0,29.0,27.0,0
-10.0,-254.0,-44.0,23.0,27.0,29.0,0
-10.0,-252.0,-46.0,23.0,27.0,25.0,0
-13.0,-254.0,-45.0,21.0,29.0,23.0,0
-8.0,-252.0,-46.0,17.0,34.0,22.0,0
-8.0,-251.0,-45.0,11.0,39.0,21.0,0
-9.0,-253.0,-42.0,7.0,43.0,19.0,0
-9.0,-253.0,-43.0,1.0,48.0,18.0,0
-12.0,-253.0,-40.0,-3.0,51.0,17.0,0
-6.0,-256.0,-40.0,-6.0,55.0,18.0,0
-10.0,-256.0,-37.0,-7.0,58.0,18.0,0
-7.0,-259.0,-38.0,-8.0,63.0,20.0,0
-6.0,-259.0,-39.0,-8.0,65.0,21.0,0
-9.0,-258.0,-39.0,-6.0,69.0,20.0,0
-7.0,-256.0,-37.0,-7.0,71.0,20.0,0
-5.0,-258.0,-38.0,-10.0,71.0,18.0,0
-3.0,-256.0,-39.0,-10.0,72.0,18.0,0
-6.0,-254.0,-37.0,-13.0,75.0,16.0,0
-3.0,-253.0,-36.0,-16.0,80.0,14.0,0
-1.0,-255.0,-38.0,-16.0,83.0,11.0,0
-2.0,-251.0,-36.0,-16.0,89.0,6.0,0
0.0,-252.0,-36.0,-16.0,95.0,0.0,0
-3.0,-252.0,-34.0,-16.0,100.0,0.0,0
-4.0,-249.0,-33.0,-22.0,105.0,1.0,0
-5.0,-254.0,-36.0,-31.0,109.0,4.0,0
-8.0,-252.0,-33.0,-42.0,111.0,8.0,0
-10.0,-255.0,-34.0,-52.0,110.0,13.0,0
-10.0,-255.0,-29.0,-60.0,110.0,14.0,0
-10.0,-256.0,-32.0,-63.0,112.0,15.0,0
-10.0,-258.0,-36.0,-62.0,113.0,19.0,0
-13.0,-255.0,-29.0,-62.0,111.0,21.0,0
-14.0,-253.0,-30.0,-55.0,109.0,24.0,0
-14.0,-254.0,-28.0,-46.0,105.0,26.0,0
-13.0,-256.0,-29.0,-38.0,98.0,28.0,0
-13.0,-255.0,-27.0,-29.0,89.0,30.0,0
-12.0,-256.0,-22.0,-21.0,80.0,32.0,0
-16.0,-255.0,-31.0,-11.0,72.0,32.0,0
-13.0,-258.0,-28.0,-4.0,65.0,33.0,0
-13.0,-258.0,-26.0,3.0,62.0,32.0,0
-14.0,-256.0,-28.0,9.0,57.0,32.0,0
-12.0,-259.0,-29.0,14.0,55.0,30.0,0
-15.0,-257.0,-33.0,18.0,51.0,30.0,0
-16.0,-253.0,-31.0,23.0,48.0,31.0,0
-15.0,-253.0,-33.0,26.0,46.0,31.0,0
-12.0,-254.0,-29.0,28.0,42.0,31.0,0
-16.0,-253.0,-31.0,31.0,42.0,32.0,0
-13.0,-255.0,-36.0,33.0,41.0,32.0,0
-19.0,-248.0,-43.0,34.0,39.0,31.0,0
-13.0,-252.0,-39.0,34.0,34.0,32.0,0
-14.0,-253.0,-39.0,30.0,28.0,32.0,0
-11.0,-255.0,-39.0,25.0,17.0,34.0,0
-11.0,-254.0,-39.0,21.0,8.0,34.0,0
-12.0,-256.0,-39.0,18.0,-5.0,36.0,0
-11.0,-256.0,-39.0,14.0,-16.0,34.0,0
-11.0,-257.0,-35.0,10.0,-24.0,32.0,0
-9.0,-258.0,-33.0,10.0,-33.0,29.0,0
-11.0,-257.0,-36.0,10.0,-40.0,24.0,0
-11.0,-258.0,-34.0,13.0,-43.0,19.0,0
-12.0,-258.0,-33.0,16.0,-45.0,14.0,0
-9.0,-260.0,-31.0,17.0,-46.0,9.0,0
-9.0,-256.0,-35.0,17.0,-48.0,5.0,0
-11.0,-256.0,-35.0,17.0,-48.0,1.0,0
-11.0,-258.0,-37.0,17.0,-49.0,0.0,0
-8.0,-260.0,-33.0,19.0,-50.0,-2.0,0
-12.0,-258.0,-36.0,20.0,-52.0,0.0,0
-9.0,-255.0,-37.0,24.0,-53.0,2.0,0
-12.0,-255.0,-37.0,28.0,-54.0,3.0,0
-13.0,-255.0,-37.0,33.0,-53.0,5.0,0
-12.0,-252.0,-37.0,38.0,-57.0,7.0,0
-8.0,-252.0,-37.0,43.0,-57.0,8.0,0
-12.0,-254.0,-36.0,47.0,-55.0,8.0,0
-15.0,-251.0,-35.0,49.0,-55.0,8.0,0
-13.0,-254.0,-36.0,50.0,-51.0,7.0,0
-10.0,-252.0,-32.0,51.0,-51.0,7.0,0
-11.0,-251.0,-28.0,52.0,-53.0,6.0,0
-10.0,-255.0,-33.0,50.0,-54.0,4.0,0
-13.0,-250.0,-33.0,50.0,-55.0,2.0,0
-12.0,-251.0,-30.0,49.0,-54.0,1.0,0
-10.0,-253.0,-30.0,48.0,-54.0,-1.0,0
-11.0,-252.0,-30.0,46.0,-52.0,1.0,0
-11.0,-257.0,-32.0,44.0,-48.0,0.0,0
-12.0,-252.0,-31.0,41.0,-46.0,1.0,0
-13.0,-256.0,-33.0,39.0,-42.0,2.0,0
-15.0,-251.0,-29.0,36.0,-40.0,5.0,0
-17.0,-252.0,-26.0,36.0,-39.0,7.0,0
-16.0,-252.0,-28.0,37.0,-37.0,9.0,0
-17.0,-254.0,-29.0,37.0,-34.0,10.0,0
-15.0,-254.0,-30.0,35.0,-30.0,11.0,0
-14.0,-253.0,-32.0,29.0,-27.0,10.0,0
-13.0,-251.0,-33.0,21.0,-22.0,9.0,0
-10.0,-252.0,-32.0,13.0,-19.0,7.0,0
-2.0,-261.0,-33.0,6.0,-13.0,4.0,0
-7.0,-256.0,-33.0,3.0,-7.0,1.0,0
-4.0,-256.0,-29.0,3.0,-2.0,-3.0,0
-6.0,-259.0,-28.0,2.0,4.0,-4.0,0
-6.0,-258.0,-28.0,1.0,11.0,-4.0,0
-6.0,-257.0,-31.0,-2.0,19.0,-4.0,0
-3.0,-257.0,-30.0,-5.0,27.0,-4.0,0
-8.0,-256.0,-28.0,-7.0,33.0,-4.0,0
-10.0,-255.0,-29.0,-6.0,37.0,-3.0,0
-10.0,-254.0,-28.0,-4.0,42.0,-2.0,0
-9.0,-252.0,-24.0,-2.0,42.0,-1.0,0
-11.0,-253.0,-28.0,0.0,46.0,-2.0,0
-15.0,-253.0,-28.0,-1.0,48.0,-2.0,0
-11.0,-256.0,-29.0,-3.0,52.0,-2.0,0
-12.0,-255.0,-32.0,-6.0,56.0,-3.0,0
-11.0,-253.0,-30.0,-9.0,61.0,-3.0,0
-8.0,-255.0,-28.0,-10.0,67.0,-4.0,0
-10.0,-256.0,-27.0,-11.0,71.0,-3.0,0
-12.0,-254.0,-29.0,-10.0,77.0,-2.0,0
-10.0,-255.0,-29.0,-8.0,80.0,-2.0,0
-12.0,-256.0,-27.0,-6.0,86.0,-2.0,0
-13.0,-258.0,-27.0,-6.0,88.0,-1.0,0
-12.0,-252.0,-32.0,-10.0,92.0,0.0,0
-13.0,-253.0,-31.0,-16.0,95.0,1.0,0
-13.0,-252.0,-25.0,-20.0,95.0,0.0,0
-14.0,-254.0,-30.0,-23.0,97.0,-1.0,0
-16.0,-253.0,-32.0,-27.0,95.0,1.0,0
-15.0,-255.0,-30.0,-26.0,94.0,-1.0,0
-14.0,-253.0,-29.0,-25.0,93.0,0.0,0
-16.0,-253.0,-28.0,-23.0,94.0,1.0,0
-16.0,-256.0,-26.0,-20.0,94.0,-2.0,0
-11.0,-257.0,-31.0,-17.0,96.0,-1.0,0
-13.0,-255.0,-30.0,-15.0,101.0,-2.0,0
-12.0,-256.0,-31.0,-12.0,102.0,-1.0,0
-9.0,-257.0,-28.0,-11.0,102.0,-2.0,0
-13.0,-253.0,-30.0,-12.0,101.0,0.0,0
-14.0,-257.0,-29.0,-14.0,98.0,-2.0,0
-14.0,-255.0,-25.0,-18.0,94.0,-1.0,0
-13.0,-255.0,-28.0,-19.0,90.0,-2.0,0
-13.0,-255.0,-28.0,-19.0,87.0,-1.0,0
-13.0,-255.0,-27.0,-17.0,83.0,0.0,0
-16.0,-257.0,-29.0,-16.0,83.0,-2.0,0
-14.0,-254.0,-29.0,-11.0,83.0,-2.0,0
-11.0,-254.0,-25.0,-8.0,81.0,-3.0,0
-14.0,-253.0,-26.0,-4.0,82.0,-4.0,0
-12.0,-253.0,-28.0,-1.0,82.0,-3.0,0
-15.0,-255.0,-28.0,0.0,80.0,-3.0,0
-14.0,-254.0,-30.0,-1.0,77.0,-3.0,0
-12.0,-256.0,-29.0,-6.0,76.0,-1.0,0
-13.0,-254.0,-28.0,-12.0,72.0,0.0,0
-16.0,-250.0,-32.0,-18.0,66.0,-1.0,0
-17.0,-255.0,-24.0,-23.0,62.0,0.0,0
-12.0,-255.0,-24.0,-24.0,58.0,3.0,0
-12.0,-255.0,-26.0,-24.0,55.0,3.0,0
-15.0,-258.0,-27.0,-19.0,56.0,3.0,0
-11.0,-257.0,-28.0,-14.0,59.0,3.0,0
-11.0,-257.0,-28.0,-9.0,61.0,2.0,0
-15.0,-255.0,-32.0,-5.0,62.0,4.0,0
-10.0,-257.0,-24.0,-3.0,64.0,4.0,0
-11.0,-254.0,-29.0,-3.0,62.0,6.0,0
-14.0,-251.0,-29.0,-5.0,63.0,5.0,0
-13.0,-254.0,-26.0,-10.0,62.0,4.0,0
-11.0,-256.0,-24.0,-14.0,61.0,3.0,0
-11.0,-253.0,-33.0,-20.0,61.0,4.0,0
-13.0,-254.0,-30.0,-28.0,63.0,2.0,0
-12.0,-251.0,-24.0,-35.0,63.0,0.0,0
-15.0,-254.0,-29.0,-39.0,65.0,-1.0,0
-12.0,-252.0,-30.0,-43.0,66.0,-1.0,0
-12.0,-253.0,-30.0,-44.0,67.0,-4.0,0
-12.0,-257.0,-29.0,-41.0,71.0,-5.0,0
-14.0,-253.0,-29.0,-38.0,72.0,-7.0,0
-12.0,-256.0,-31.0,-35.0,74.0,-8.0,0
-13.0,-257.0,-29.0,-33.0,75.0,-9.0,0
-12.0,-254.0,-31.0,-32.0,76.0,-9.0,0
-14.0,-256.0,-27.0,-35.0,77.0,-11.0,0
-13.0,-254.0,-30.0,-38.0,78.0,-11.0,0
-14.0,-255.0,-30.0,-44.0,77.0,-12.0,0
-16.0,-252.0,-31.0,-48.0,79.0,-10.0,0
-15.0,-256.0,-30.0,-49.0,77.0,-10.0,0
-13.0,-254.0,-29.0,-49.0,76.0,-11.0,0
-15.0,-253.0,-28.0,-48.0,76.0,-12.0,0
-11.0,-258.0,-33.0,-43.0,73.0,-11.0,0
-7.0,-256.0,-34.0,-39.0,70.0,-13.0,0
-12.0,-254.0,-30.0,-34.0,69.0,-12.0,0
-12.0,-253.0,-28.0,-31.0,68.0,-13.0,0
-11.0,-259.0,-30.0,-29.0,69.0,-12.0,0
-13.0,-252.0,-26.0,-31.0,68.0,-13.0,0
-14.0,-253.0,-30.0,-32.0,69.0,-14.0,0
-12.0,-256.0,-32.0,-36.0,68.0,-14.0,0
-13.0,-258.0,-31.0,-39.0,66.0,-13.0,0
-15.0,-257.0,-31.0,-42.0,62.0,-13.0,0
-17.0,-256.0,-30.0,-41.0,59.0,-13.0,0
-14.0,-258.0,-29.0,-40.0,56.0,-13.0,0
-17.0,-256.0,-28.0,-36.0,53.0,-12.0,0
-12.0,-256.0,-29.0,-32.0,50.0,-13.0,0
-16.0,-254.0,-23.0,-31.0,49.0,-12.0,0
-14.0,-255.0,-28.0,-31.0,46.0,-12.0,0
-15.0,-252.0,-30.0,-32.0,44.0,-12.0,0
-14.0,-252.0,-31.0,-36.0,41.0,-13.0,0
-13.0,-255.0,-32.0,-39.0,37.0,-12.0,0
-17.0,-251.0,-29.0,-42.0,36.0,-11.0,0
-13.0,-255.0,-29.0,-45.0,36.0,-12.0,0
-11.0,-255.0,-29.0,-46.0,36.0,-12.0,0
-10.0,-253.0,-30.0,-45.0,36.0,-12.0,0
-13.0,-255.0,-30.0,-44.0,35.0,-13.0,0
-12.0,-255.0,-29.0,-41.0,35.0,-15.0,0
-10.0,-256.0,-28.0,-41.0,34.0,-15.0,0
-15.0,-255.0,-29.0,-42.0,31.0,-15.0,0
-10.0,-255.0,-33.0,-41.0,28.0,-16.0,0
-14.0,-255.0,-33.0,-41.0,27.0,-15.0,0
-16.0,-255.0,-31.0,-43.0,25.0,-13.0,0
-14.0,-254.0,-31.0,-45.0,22.0,-15.0,0
-10.0,-256.0,-31.0,-48.0,21.0,-15.0,0
-13.0,-257.0,-33.0,-49.0,18.0,-15.0,0
-14.0,-254.0,-32.0,-50.0,17.0,-16.0,0
-15.0,-252.0,-28.0,-49.0,15.0,-15.0,0
-14.0,-254.0,-28.0,-47.0,15.0,-16.0,0
-15.0,-255.0,-31.0,-45.0,14.0,-16.0,0
-16.0,-251.0,-29.0,-43.0,13.0,-15.0,0
-13.0,-253.0,-28.0,-43.0,10.0,-15.0,0
-14.0,-255.0,-27.0,-45.0,8.0,-15.0,0
-13.0,-255.0,-25.0,-46.0,5.0,-14.0,0
-13.0,-256.0,-33.0,-47.0,5.0,-15.0,0
-13.0,-257.0,-31.0,-46.0,4.0,-15.0,0
-12.0,-254.0,-32.0,-45.0,3.0,-15.0,0
-10.0,-255.0,-30.0,-44.0,4.0,-16.0,0
-14.0,-256.0,-32.0,-44.0,5.0,-16.0,0
-16.0,-255.0,-33.0,-46.0,5.0,-16.0,0
-13.0,-256.0,-30.0,-47.0,4.0,-15.0,0
-14.0,-255.0,-28.0,-46.0,2.0,-15.0,0
-17.0,-255.0,-36.0,-46.0,1.0,-15.0,0
-14.0,-256.0,-30.0,-42.0,0.0,-15.0,0
-14.0,-257.0,-32.0,-35.0,0.0,-13.0,0
-14.0,-256.0,-33.0,-28.0,-2.0,-10.0,0
-14.0,-255.0,-31.0,-24.0,-3.0,-10.0,0
-13.0,-255.0,-36.0,-22.0,-2.0,-9.0,0
-14.0,-257.0,-35.0,-24.0,-2.0,-8.0,0
-11.0,-254.0,-31.0,-25.0,-1.0,-8.0,0
-15.0,-253.0,-28.0,-27.0,-1.0,-8.0,0
-13.0,-254.0,-32.0,-28.0,-3.0,-7.0,0
-12.0,-252.0,-34.0,-28.0,-4.0,-6.0,0
-12.0,-253.0,-30.0,-29.0,-4.0,-9.0,0
-14.0,-256.0,-29.0,-30.0,-4.0,-8.0,0
-15.0,-254.0,-31.0,-30.0,-4.0,-10.0,0
-13.0,-254.0,-27.0,-26.0,-3.0,-9.0,0
-12.0,-258.0,-29.0,-23.0,-1.0,-9.0,0
-15.0,-253.0,-29.0,-18.0,1.0,-10.0,0
-12.0,-256.0,-31.0,-13.0,4.0,-10.0,0
-9.0,-255.0,-31.0,-9.0,5.0,-10.0,0
-12.0,-260.0,-31.0,-5.0,3.0,-9.0,0
-12.0,-255.0,-31.0,-4.0,4.0,-10.0,0
-11.0,-253.0,-34.0,-6.0,3.0,-8.0,0
-10.0,-252.0,-31.0,-8.0,2.0,-8.0,0
-9.0,-253.0,-31.0,-9.0,2.0,-6.0,0
-11.0,-258.0,-30.0,-10.0,2.0,-5.0,0
-12.0,-254.0,-32.0,-10.0,2.0,-5.0,0
-10.0,-257.0,-33.0,-8.0,4.0,-4.0,0
-12.0,-255.0,-31.0,-8.0,6.0,-5.0,0
-11.0,-253.0,-31.0,-7.0,9.0,-5.0,0
-12.0,-253.0,-31.0,-7.0,12.0,-5.0,0
-11.0,-256.0,-30.0,-6.0,13.0,-6.0,0
-9.0,-255.0,-32.0,-5.0,15.0,-5.0,0
-13.0,-256.0,-24.0,-5.0,17.0,-6.0,0
-10.0,-259.0,-29.0,-4.0,17.0,-6.0,0
-9.0,-255.0,-30.0,-6.0,18.0,-7.0,0
-8.0,-255.0,-34.0,-10.0,16.0,-7.0,0
-9.0,-254.0,-30.0,-11.0,14.0,-6.0,0
-12.0,-253.0,-33.0,-12.0,15.0,-5.0,0
-14.0,-252.0,-30.0,-10.0,17.0,-5.0,0
-12.0,-255.0,-32.0,-9.0,19.0,-3.0,0
-12.0,-257.0,-34.0,-7.0,20.0,-5.0,0
-14.0,-252.0,-32.0,-6.0,21.0,-3.0,0
-11.0,-257.0,-33.0,-5.0,24.0,-3.0,0
-13.0,-255.0,-32.0,-8.0,25.0,-3.0,0
-11.0,-253.0,-28.0,-11.0,24.0,-2.0,0
-12.0,-251.0,-34.0,-14.0,22.0,0.0,0
-14.0,-255.0,-29.0,-21.0,18.0,1.0,0
-12.0,-255.0,-30.0,-26.0,14.0,2.0,0
-12.0,-257.0,-30.0,-34.0,10.0,3.0,0
-15.0,-256.0,-36.0,-41.0,6.0,4.0,0
-14.0,-256.0,-34.0,-45.0,4.0,6.0,0
-13.0,-255.0,-31.0,-47.0,4.0,7.0,0
-17.0,-254.0,-30.0,-45.0,6.0,8.0,0
-14.0,-256.0,-33.0,-41.0,6.0,10.0,0
-14.0,-257.0,-27.0,-37.0,10.0,10.0,0
-11.0,-254.0,-32.0,-34.0,16.0,8.0,0
-14.0,-255.0,-30.0,-30.0,23.0,8.0,0
-10.0,-255.0,-30.0,-27.0,30.0,8.0,0
-12.0,-254.0,-35.0,-28.0,31.0,7.0,0
-14.0,-255.0,-30.0,-32.0,33.0,6.0,0
-14.0,-253.0,-29.0,-35.0,30.0,4.0,0
-14.0,-254.0,-33.0,-37.0,25.0,5.0,0
-14.0,-256.0,-29.0,-35.0,17.0,4.0,0
-14.0,-256.0,-30.0,-30.0,11.0,3.0,0
-13.0,-254.0,-31.0,-23.0,8.0,2.0,0
-14.0,-253.0,-35.0,-18.0,8.0,2.0,0
-15.0,-251.0,-29.0,-14.0,9.0,2.0,0
-15.0,-252.0,-28.0,-13.0,12.0,1.0,0
-14.0,-250.0,-30.0,-17.0,12.0,2.0,0
-12.0,-255.0,-31.0,-25.0,10.0,4.0,0
-16.0,-253.0,-36.0,-35.0,7.0,3.0,0
-15.0,-254.0,-32.0,-45.0,6.0,3.0,0
-14.0,-258.0,-33.0,-48.0,5.0,3.0,0
-15.0,-255.0,-31.0,-45.0,4.0,3.0,0
-14.0,-256.0,-31.0,-35.0,5.0,3.0,0
-12.0,-259.0,-30.0,-25.0,3.0,1.0,0
-11.0,-255.0,-32.0,-18.0,3.0,-2.0,0
-15.0,-256.0,-34.0,-14.0,0.0,-3.0,0
-13.0,-256.0,-33.0,-14.0,-2.0,-6.0,0
-14.0,-256.0,-34.0,-15.0,-3.0,-5.0,0
-15.0,-255.0,-33.0,-19.0,-3.0,-4.0,0
-11.0,-256.0,-33.0,-18.0,-5.0,-5.0,0
-13.0,-255.0,-34.0,-14.0,-6.0,-6.0,0
-13.0,-258.0,-31.0,-6.0,-6.0,-7.0,0
-12.0,-257.0,-35.0,3.0,-4.0,-5.0,0
-14.0,-255.0,-31.0,13.0,-2.0,-4.0,0
-14.0,-253.0,-32.0,21.0,-1.0,-5.0,0
-15.0,-254.0,-34.0,23.0,-3.0,-4.0,0
-14.0,-251.0,-32.0,23.0,-3.0,-2.0,0
-12.0,-253.0,-32.0,21.0,-4.0,-2.0,0
-11.0,-253.0,-32.0,17.0,-6.0,-1.0,0
-13.0,-252.0,-29.0,13.0,-6.0,2.0,0
-11.0,-252.0,-30.0,12.0,-4.0,2.0,0
-13.0,-253.0,-29.0,11.0,-4.0,1.0,0
-15.0,-253.0,-31.0,12.0,-1.0,2.0,0
-12.0,-252.0,-30.0,14.0,1.0,2.0,0
-12.0,-255.0,-29.0,14.0,3.0,2.0,0
-12.0,-255.0,-30.0,15.0,4.0,3.0,0
-12.0,-253.0,-29.0,16.0,5.0,2.0,0
-12.0,-253.0,-33.0,16.0,6.0,2.0,0
-12.0,-253.0,-28.0,16.0,8.0,1.0,0
-11.0,-253.0,-30.0,15.0,10.0,2.0,0
-9.0,-255.0,-32.0,13.0,12.0,2.0,0
-12.0,-251.0,-30.0,13.0,14.0,1.0,0
-9.0,-255.0,-33.0,12.0,17.0,-1.0,0
-10.0,-255.0,-33.0,10.0,21.0,-1.0,0
-9.0,-258.0,-30.0,10.0,25.0,0.0,0
-11.0,-253.0,-28.0,9.0,30.0,-2.0,0
-8.0,-257.0,-33.0,8.0,35.0,-2.0,0
-9.0,-254.0,-33.0,7.0,39.0,0.0,0
-10.0,-256.0,-33.0,5.0,43.0,-1.0,0
-7.0,-256.0,-28.0,2.0,45.0,0.0,0
-11.0,-254.0,-34.0,2.0,46.0,-1.0,0
-13.0,-250.0,-31.0,0.0,46.0,2.0,0
-15.0,-252.0,-32.0,-5.0,48.0,1.0,0
-12.0,-256.0,-34.0,-8.0,50.0,1.0,0
-13.0,-255.0,-32.0,-9.0,53.0,0.0,0
-14.0,-252.0,-32.0,-9.0,54.0,-1.0,0
-14.0,-254.0,-34.0,-7.0,57.0,-1.0,0
-15.0,-254.0,-31.0,-4.0,61.0,-2.0,0
-12.0,-261.0,-30.0,-2.0,64.0,-4.0,0
-10.0,-256.0,-31.0,1.0,68.0,-3.0,0
-11.0,-255.0,-28.0,5.0,70.0,-4.0,0
-14.0,-252.0,-32.0,6.0,71.0,-5.0,0
-12.0,-255.0,-30.0,7.0,71.0,-5.0,0
-12.0,-253.0,-29.0,6.0,72.0,-4.0,0
-13.0,-253.0,-32.0,4.0,74.0,-5.0,0
-14.0,-255.0,-29.0,1.0,76.0,-4.0,0
-12.0,-254.0,-32.0,-1.0,77.0,-5.0,0
-14.0,-255.0,-33.0,-4.0,80.0,-4.0,0
-12.0,-252.0,-32.0,-6.0,81.0,-5.0,0
-15.0,-250.0,-35.0,-8.0,82.0,-3.0,0
-11.0,-255.0,-30.0,-8.0,83.0,-3.0,0
-14.0,-252.0,-26.0,-7.0,83.0,-2.0,0
-14.0,-254.0,-28.0,-5.0,85.0,-2.0,0
-15.0,-254.0,-27.0,-1.0,85.0,-2.0,0
-12.0,-253.0,-27.0,6.0,85.0,-2.0,0
-15.0,-254.0,-26.0,12.0,88.0,-2.0,0
-11.0,-253.0,-34.0,15.0,89.0,-2.0,0
-10.0,-252.0,-33.0,15.0,90.0,-3.0,0
-16.0,-252.0,-30.0,7.0,92.0,-5.0,0
-13.0,-253.0,-28.0,0.0,92.0,-5.0,0
-12.0,-253.0,-31.0,-7.0,93.0,-5.0,0
-16.0,-251.0,-32.0,-13.0,90.0,-6.0,0
-13.0,-257.0,-29.0,-16.0,88.0,-7.0,0
-11.0,-256.0,-29.0,-17.0,86.0,-8.0,0
-10.0,-255.0,-27.0,-14.0,85.0,-7.0,0
-15.0,-260.0,-24.0,-8.0,86.0,-7.0,0
-13.0,-258.0,-27.0,-2.0,88.0,-9.0,0
-14.0,-259.0,-27.0,5.0,91.0,-9.0,0
-12.0,-258.0,-29.0,11.0,91.0,-8.0,0
-14.0,-256.0,-27.0,18.0,92.0,-8.0,0
-14.0,-255.0,-28.0,22.0,92.0,-9.0,0
-11.0,-256.0,-29.0,20.0,92.0,-9.0,0
-11.0,-252.0,-30.0,18.0,90.0,-8.0,0
-15.0,-254.0,-29.0,15.0,89.0,-7.0,0
-13.0,-252.0,-33.0,13.0,86.0,-6.0,0
-14.0,-254.0,-30.0,12.0,86.0,-6.0,0
-12.0,-257.0,-30.0,12.0,85.0,-6.0,0
-15.0,-257.0,-27.0,13.0,85.0,-5.0,0
-15.0,-250.0,-29.0,12.0,85.0,-7.0,0
-10.0,-252.0,-28.0,12.0,87.0,-8.0,0
-15.0,-253.0,-29.0,11.0,89.0,-9.0,0
-11.0,-255.0,-27.0,10.0,92.0,-8.0,0
-15.0,-255.0,-35.0,10.0,91.0,-7.0,0
-11.0,-254.0,-29.0,10.0,92.0,-8.0,0
-9.0,-255.0,-32.0,11.0,92.0,-7.0,0
-13.0,-255.0,-25.0,13.0,91.0,-8.0,0
-1.0,-258.0,-28.0,13.0,91.0,-8.0,0
-12.0,-253.0,-32.0,12.0,91.0,-7.0,0
-14.0,-246.0,-20.0,12.0,90.0,-8.0,0
-28.0,-256.0,-59.0,10.0,92.0,-7.0,0
-18.0,-259.0,-27.0,9.0,93.0,-7.0,0
-7.0,-252.0,-19.0,8.0,96.0,-7.0,0
-8.0,-243.0,-24.0,9.0,97.0,-6.0,0
-14.0,-255.0,-28.0,12.0,100.0,-6.0,0
-10.0,-255.0,-26.0,15.0,101.0,-6.0,0
-12.0,-256.0,-28.0,17.0,101.0,-4.0,0
-15.0,-253.0,-26.0,18.0,102.0,-4.0,0
-15.0,-256.0,-29.0,16.0,102.0,-4.0,0
-17.0,-258.0,-34.0,13.0,101.0,-4.0,0
-17.0,-252.0,-23.0,8.0,101.0,-5.0,0
-13.0,-250.0,-29.0,4.0,100.0,-5.0,0
-32.0,-249.0,-22.0,1.0,102.0,-5.0,0
-6.0,-253.0,-12.0,1.0,104.0,-6.0,0
-10.0,-251.0,-41.0,3.0,105.0,-8.0,0
-18.0,-266.0,-28.0,5.0,106.0,-7.0,0
-7.0,-253.0,-21.0,7.0,105.0,-7.0,0
-15.0,-274.0,-31.0,12.0,105.0,-6.0,0
-7.0,-265.0,-29.0,12.0,106.0,-5.0,0
-13.0,-253.0,-30.0,11.0,105.0,-5.0,0
-14.0,-251.0,-30.0,7.0,106.0,-5.0,0
-15.0,-256.0,-27.0,3.0,108.0,-4.0,0
-14.0,-254.0,-29.0,-3.0,107.0,-5.0,0
-11.0,-252.0,-35.0,-6.0,109.0,-6.0,0
-20.0,-258.0,-26.0,-7.0,109.0,-8.0,0
-8.0,-256.0,-36.0,-7.0,107.0,-8.0,0
-10.0,-260.0,-23.0,-6.0,106.0,-7.0,0
-7.0,-260.0,-29.0,-6.0,106.0,-7.0,0
-13.0,-248.0,-24.0,-4.0,105.0,-7.0,0
-25.0,-250.0,-36.0,-1.0,105.0,-6.0,0
4.0,-261.0,-26.0,3.0,105.0,-5.0,0
-18.0,-271.0,-25.0,6.0,105.0,-4.0,0
-28.0,-255.0,-26.0,8.0,104.0,-3.0,0
-12.0,-254.0,-41.0,7.0,102.0,-4.0,0
-11.0,-250.0,-26.0,8.0,102.0,-4.0,0
-12.0,-256.0,-27.0,6.0,101.0,-4.0,0
-11.0,-256.0,-30.0,3.0,101.0,-4.0,0
-14.0,-253.0,-28.0,3.0,101.0,-3.0,0
-10.0,-256.0,-30.0,3.0,101.0,-4.0,0
-17.0,-256.0,-31.0,3.0,99.0,-4.0,0
-16.0,-260.0,-39.0,3.0,99.0,-5.0,0
-15.0,-251.0,-22.0,2.0,99.0,-5.0,0
-15.0,-252.0,-29.0,4.0,98.0,-4.0,0
-10.0,-255.0,-30.0,4.0,100.0,-5.0,0
-22.0,-258.0,-23.0,3.0,101.0,-5.0,0
-23.0,-250.0,-26.0,3.0,101.0,-5.0,0
-15.0,-255.0,-33.0,3.0,101.0,-4.0,0
-9.0,-252.0,-24.0,2.0,100.0,-5.0,0
-10.0,-252.0,-22.0,-1.0,99.0,-5.0,0
-13.0,-252.0,-27.0,-4.0,99.0,-5.0,0
-12.0,-256.0,-27.0,-7.0,99.0,-7.0,0
-10.0,-257.0,-26.0,-9.0,98.0,-6.0,0
-11.0,-259.0,-28.0,-8.0,97.0,-6.0,0
-12.0,-256.0,-29.0,-4.0,96.0,-5.0,0
-13.0,-242.0,-36.0,0.0,94.0,-5.0,0
-11.0,-252.0,-25.0,4.0,95.0,-5.0,0
-11.0,-255.0,-31.0,8.0,96.0,-4.0,0
-12.0,-253.0,-27.0,10.0,98.0,-6.0,0
-8.0,-254.0,-23.0,11.0,99.0,-6.0,0
-12.0,-249.0,-25.0,10.0,101.0,-5.0,0
-15.0,-244.0,-22.0,7.0,101.0,-4.0,0
-14.0,-257.0,-26.0,6.0,100.0,-4.0,0
-10.0,-256.0,-31.0,3.0,100.0,-3.0,0
-11.0,-257.0,-25.0,0.0,98.0,-2.0,0
-4.0,-256.0,-28.0,-4.0,97.0,-4.0,0
-12.0,-254.0,-25.0,-6.0,98.0,-5.0,0
-13.0,-254.0,-26.0,-7.0,98.0,-4.0,0
-15.0,-253.0,-25.0,-8.0,98.0,-6.0,0
-14.0,-254.0,-26.0,-8.0,98.0,-5.0,0
-12.0,-260.0,-28.0,-8.0,99.0,-7.0,0
-18.0,-269.0,-21.0,-6.0,99.0,-5.0,0
-18.0,-246.0,-42.0,-5.0,99.0,-4.0,0
-12.0,-258.0,-28.0,-4.0,100.0,-6.0,0
-16.0,-258.0,-27.0,-2.0,102.0,-6.0,0
-13.0,-263.0,-11.0,-1.0,104.0,-6.0,0
-21.0,-248.0,-31.0,-1.0,104.0,-6.0,0
