ax,ay,az,gx,gy,gz,label
-2.0,-246.0,-92.0,-24.0,58.0,-3.0,0
-3.0,-245.0,-93.0,-20.0,57.0,-5.0,0
-6.0,-246.0,-90.0,-15.0,55.0,-2.0,0
0.0,-249.0,-95.0,-14.0,54.0,-3.0,0
-3.0,-242.0,-92.0,-11.0,52.0,-1.0,0
-5.0,-245.0,-89.0,-12.0,52.0,-4.0,0
-5.0,-242.0,-93.0,-11.0,52.0,-2.0,0
-3.0,-243.0,-95.0,-12.0,52.0,-5.0,0
-1.0,-243.0,-91.0,-10.0,50.0,-1.0,0
-3.0,-242.0,-94.0,-11.0,50.0,-2.0,0
-4.0,-246.0,-96.0,-9.0,50.0,-2.0,0
-3.0,-243.0,-94.0,-8.0,47.0,-3.0,0
-4.0,-244.0,-94.0,-7.0,47.0,0.0,0
-4.0,-245.0,-95.0,-5.0,45.0,-3.0,0
-5.0,-244.0,-93.0,0.0,44.0,-1.0,0
-4.0,-245.0,-94.0,6.0,44.0,-3.0,0
-5.0,-243.0,-93.0,11.0,45.0,0.0,0
-4.0,-242.0,-91.0,17.0,44.0,-3.0,0
-5.0,-240.0,-93.0,21.0,46.0,1.0,0
-1.0,-242.0,-89.0,22.0,48.0,-3.0,0
-2.0,-241.0,-93.0,19.0,49.0,-3.0,0
-3.0,-241.0,-90.0,17.0,47.0,-4.0,0
-2.0,-240.0,-91.0,13.0,46.0,-3.0,0
-3.0,-238.0,-94.0,6.0,44.0,-5.0,0
-4.0,-240.0,-93.0,-1.0,45.0,-5.0,0
-4.0,-237.0,-90.0,-9.0,45.0,-6.0,0
-4.0,-242.0,-91.0,-16.0,44.0,-3.0,0
-4.0,-240.0,-90.0,-22.0,44.0,-4.0,0
-3.0,-242.0,-88.0,-24.0,44.0,-2.0,0
-5.0,-243.0,-91.0,-24.0,45.0,-1.0,0
-3.0,-242.0,-90.0,-21.0,47.0,-3.0,0
-5.0,-243.0,-90.0,-18.0,51.0,-3.0,0
-6.0,-245.0,-89.0,-17.0,52.0,-4.0,0
-5.0,-245.0,-88.0,-14.0,53.0,-3.0,0
-7.0,-241.0,-95.0,-13.0,57.0,-2.0,0
-4.0,-245.0,-91.0,-13.0,58.0,-3.0,0
-5.0,-242.0,-94.0,-13.0,59.0,-4.0,0
-4.0,-242.0,-95.0,-9.0,58.0,-5.0,0
-2.0,-242.0,-92.0,-6.0,59.0,-6.0,0
-4.0,-240.0,-97.0,-3.0,57.0,-6.0,0
-1.0,-239.0,-94.0,2.0,57.0,-7.0,0
-2.0,-241.0,-95.0,4.0,55.0,-6.0,0
-1.0,-241.0,-95.0,7.0,56.0,-6.0,0
2.0,-237.0,-95.0,4.0,57.0,-5.0,0
-2.0,-239.0,-95.0,-1.0,59.0,-6.0,0
-2.0,-240.0,-93.0,-9.0,60.0,-5.0,0
-1.0,-242.0,-92.0,-17.0,59.0,-7.0,0
-3.0,-242.0,-93.0,-26.0,58.0,-7.0,0
-5.0,-240.0,-93.0,-33.0,54.0,-6.0,0
-5.0,-242.0,-93.0,-37.0,49.0,-7.0,0
-8.0,-241.0,-92.0,-38.0,45.0,-7.0,0
-3.0,-245.0,-94.0,-36.0,43.0,-5.0,0
-4.0,-243.0,-92.0,-31.0,40.0,-6.0,0
-3.0,-246.0,-94.0,-23.0,40.0,-4.0,0
-4.0,-246.0,-95.0,-14.0,40.0,-4.0,0
-4.0,-243.0,-92.0,-7.0,39.0,-4.0,0
-4.0,-243.0,-90.0,1.0,40.0,-4.0,0
-3.0,-245.0,-90.0,6.0,40.0,1.0,0
-2.0,-245.0,-89.0,11.0,41.0,1.0,0
-4.0,-246.0,-91.0,16.0,43.0,3.0,0
-2.0,-243.0,-92.0,19.0,45.0,2.0,0
-3.0,-241.0,-93.0,22.0,47.0,4.0,0
-4.0,-244.0,-94.0,23.0,48.0,3.0,0
-5.0,-240.0,-90.0,21.0,50.0,4.0,0
-2.0,-241.0,-91.0,18.0,52.0,3.0,0
0.0,-242.0,-92.0,12.0,53.0,4.0,0
-3.0,-239.0,-95.0,4.0,55.0,2.0,0
-4.0,-243.0,-91.0,-6.0,55.0,4.0,0
-4.0,-242.0,-91.0,-14.0,55.0,2.0,0
-5.0,-245.0,-89.0,-20.0,55.0,2.0,0
-5.0,-243.0,-89.0,-23.0,55.0,1.0,0
-3.0,-243.0,-93.0,-24.0,54.0,1.0,0
-6.0,-240.0,-92.0,-23.0,54.0,-2.0,0
-7.0,-242.0,-91.0,-23.0,51.0,-1.0,0
-4.0,-246.0,-97.0,-22.0,52.0,-2.0,0
-4.0,-243.0,-95.0,-18.0,51.0,-2.0,0
-5.0,-241.0,-94.0,-17.0,51.0,-4.0,0
-5.0,-242.0,-95.0,-14.0,51.0,-2.0,0
-5.0,-244.0,-94.0,-10.0,50.0,-5.0,0
-4.0,-242.0,-92.0,-6.0,50.0,-2.0,0
-1.0,-243.0,-91.0,0.0,50.0,-4.0,0
-3.0,-242.0,-94.0,5.0,50.0,-1.0,0
11.0,-244.0,-89.0,7.0,49.0,-5.0,0
-2.0,-243.0,-94.0,10.0,46.0,-1.0,0
-5.0,-241.0,-93.0,9.0,46.0,-3.0,0
-4.0,-245.0,-92.0,8.0,44.0,0.0,0
-3.0,-246.0,-93.0,9.0,45.0,-2.0,0
-6.0,-244.0,-93.0,7.0,44.0,1.0,0
-5.0,-242.0,-92.0,7.0,47.0,0.0,0
-3.0,-244.0,-92.0,8.0,47.0,4.0,0
-2.0,-244.0,-89.0,8.0,50.0,1.0,0
-5.0,-243.0,-94.0,9.0,51.0,3.0,0
-5.0,-243.0,-92.0,8.0,53.0,-1.0,0
-1.0,-240.0,-91.0,5.0,55.0,1.0,0
-4.0,-242.0,-91.0,2.0,56.0,-2.0,0
-2.0,-241.0,-91.0,-2.0,56.0,0.0,0
-4.0,-240.0,-88.0,-6.0,55.0,-2.0,0
-2.0,-241.0,-90.0,-9.0,52.0,-2.0,0
-3.0,-241.0,-92.0,-10.0,50.0,-5.0,0
-4.0,-243.0,-94.0,-7.0,49.0,-2.0,0
-5.0,-239.0,-96.0,-7.0,47.0,-4.0,0
-4.0,-242.0,-91.0,-5.0,46.0,-1.0,0
-4.0,-242.0,-93.0,-3.0,46.0,-3.0,0
-3.0,-240.0,-92.0,0.0,46.0,-2.0,0
-4.0,-241.0,-95.0,2.0,48.0,-4.0,0
-2.0,-243.0,-90.0,1.0,51.0,-1.0,0
-4.0,-241.0,-92.0,2.0,52.0,-3.0,0
-5.0,-243.0,-93.0,1.0,53.0,0.0,0
-5.0,-241.0,-87.0,-1.0,55.0,-3.0,0
-3.0,-242.0,-94.0,-2.0,56.0,0.0,0
-3.0,-245.0,-90.0,-3.0,57.0,-4.0,0
-2.0,-244.0,-95.0,-5.0,56.0,-1.0,0
-4.0,-246.0,-93.0,-4.0,55.0,-3.0,0
-2.0,-244.0,-94.0,-1.0,55.0,-1.0,0
-5.0,-244.0,-90.0,2.0,56.0,-4.0,0
-5.0,-244.0,-87.0,4.0,55.0,-1.0,0
-3.0,-241.0,-90.0,6.0,56.0,0.0,0
-3.0,-244.0,-91.0,8.0,54.0,2.0,0
-4.0,-243.0,-92.0,7.0,54.0,-1.0,0
-3.0,-242.0,-93.0,6.0,54.0,1.0,0
0.0,-243.0,-92.0,3.0,54.0,-1.0,0
-4.0,-241.0,-91.0,1.0,54.0,2.0,0
-6.0,-242.0,-91.0,-4.0,54.0,-1.0,0
-3.0,-244.0,-91.0,-7.0,53.0,2.0,0
-7.0,-242.0,-92.0,-9.0,52.0,0.0,0
-5.0,-242.0,-96.0,-9.0,53.0,0.0,0
-3.0,-242.0,-91.0,-6.0,54.0,-1.0,0
-5.0,-243.0,-92.0,-3.0,56.0,0.0,0
-6.0,-245.0,-91.0,0.0,56.0,-1.0,0
-6.0,-244.0,-90.0,3.0,58.0,-1.0,0
-4.0,-245.0,-91.0,4.0,59.0,-1.0,0
-2.0,-247.0,-92.0,4.0,57.0,0.0,0
-3.0,-247.0,-89.0,4.0,57.0,-1.0,0
-2.0,-244.0,-95.0,3.0,58.0,0.0,0
-4.0,-245.0,-92.0,3.0,59.0,0.0,0
-6.0,-243.0,-90.0,5.0,62.0,1.0,0
-2.0,-244.0,-93.0,7.0,61.0,-1.0,0
-3.0,-244.0,-94.0,9.0,63.0,0.0,0
-2.0,-245.0,-88.0,14.0,63.0,0.0,0
-2.0,-243.0,-91.0,14.0,63.0,0.0,0
-4.0,-241.0,-92.0,17.0,63.0,1.0,0
-7.0,-241.0,-89.0,19.0,65.0,0.0,0
-1.0,-242.0,-88.0,19.0,65.0,-1.0,0
-2.0,-243.0,-89.0,17.0,65.0,-1.0,0
-2.0,-243.0,-90.0,16.0,67.0,-3.0,0
-6.0,-242.0,-89.0,12.0,67.0,-3.0,0
-6.0,-239.0,-91.0,7.0,66.0,-4.0,0
-4.0,-243.0,-92.0,3.0,65.0,-5.0,0
-3.0,-242.0,-87.0,0.0,64.0,-5.0,0
-2.0,-244.0,-90.0,-4.0,64.0,-5.0,0
-5.0,-243.0,-90.0,-7.0,59.0,-6.0,0
-3.0,-245.0,-88.0,-7.0,58.0,-7.0,0
-3.0,-244.0,-87.0,-4.0,57.0,-4.0,0
-5.0,-244.0,-94.0,-1.0,55.0,-4.0,0
-4.0,-247.0,-85.0,4.0,56.0,-3.0,0
-5.0,-242.0,-95.0,7.0,56.0,-3.0,0
-4.0,-244.0,-93.0,12.0,56.0,-2.0,0
-4.0,-241.0,-91.0,17.0,58.0,-3.0,0
-3.0,-241.0,-94.0,18.0,62.0,-1.0,0
-1.0,-240.0,-90.0,19.0,65.0,-1.0,0
-3.0,-242.0,-90.0,19.0,67.0,0.0,0
-7.0,-243.0,-92.0,17.0,68.0,-2.0,0
-3.0,-241.0,-93.0,15.0,65.0,-2.0,0
-1.0,-245.0,-93.0,12.0,66.0,-2.0,0
-4.0,-241.0,-91.0,14.0,65.0,-2.0,0
-2.0,-243.0,-91.0,16.0,65.0,-4.0,0
-5.0,-241.0,-92.0,18.0,65.0,-2.0,0
-4.0,-243.0,-91.0,20.0,68.0,-3.0,0
-4.0,-243.0,-90.0,21.0,66.0,-2.0,0
-4.0,-244.0,-91.0,19.0,68.0,-4.0,0
-3.0,-243.0,-91.0,18.0,70.0,-1.0,0
-3.0,-242.0,-92.0,16.0,71.0,-2.0,0
-3.0,-244.0,-91.0,16.0,72.0,0.0,0
-5.0,-240.0,-91.0,15.0,72.0,-1.0,0
-2.0,-244.0,-88.0,16.0,71.0,0.0,0
-3.0,-243.0,-85.0,17.0,71.0,-3.0,0
-3.0,-244.0,-89.0,17.0,70.0,-1.0,0
-4.0,-243.0,-92.0,15.0,69.0,-3.0,0
-9.0,-239.0,-88.0,15.0,68.0,-3.0,0
-4.0,-245.0,-89.0,14.0,66.0,-7.0,0
-3.0,-242.0,-88.0,14.0,66.0,-4.0,0
-6.0,-243.0,-90.0,11.0,64.0,-4.0,0
-3.0,-244.0,-90.0,9.0,61.0,-3.0,0
-4.0,-244.0,-90.0,4.0,60.0,-5.0,0
-3.0,-244.0,-92.0,1.0,59.0,-3.0,0
-7.0,-242.0,-93.0,-4.0,57.0,-8.0,0
-5.0,-245.0,-91.0,-7.0,54.0,-5.0,0
-4.0,-246.0,-94.0,-3.0,53.0,-6.0,0
-7.0,-242.0,-93.0,1.0,51.0,-5.0,0
-3.0,-245.0,-91.0,6.0,50.0,-7.0,0
-3.0,-243.0,-91.0,13.0,49.0,-6.0,0
-6.0,-244.0,-93.0,20.0,47.0,-8.0,0
-5.0,-245.0,-94.0,24.0,47.0,-6.0,0
-4.0,-243.0,-89.0,28.0,45.0,-7.0,0
-5.0,-241.0,-88.0,32.0,44.0,-4.0,0
-2.0,-245.0,-90.0,35.0,42.0,-5.0,0
-2.0,-245.0,-89.0,36.0,41.0,-3.0,0
-1.0,-245.0,-91.0,36.0,42.0,-4.0,0
0.0,-245.0,-91.0,35.0,44.0,0.0,0
-2.0,-243.0,-89.0,35.0,48.0,1.0,0
-5.0,-245.0,-86.0,35.0,49.0,3.0,0
-4.0,-245.0,-89.0,34.0,52.0,2.0,0
-1.0,-241.0,-86.0,34.0,53.0,5.0,0
-4.0,-242.0,-90.0,33.0,55.0,3.0,0
0.0,-242.0,-85.0,30.0,56.0,5.0,0
-5.0,-243.0,-85.0,28.0,57.0,3.0,0
-5.0,-242.0,-86.0,24.0,54.0,3.0,0
-3.0,-241.0,-88.0,21.0,53.0,-2.0,0
-4.0,-243.0,-90.0,16.0,53.0,0.0,0
-5.0,-241.0,-90.0,11.0,55.0,-2.0,0
-5.0,-242.0,-88.0,4.0,57.0,1.0,0
-2.0,-242.0,-85.0,-1.0,59.0,-3.0,0
-4.0,-239.0,-87.0,-5.0,60.0,-1.0,0
-2.0,-244.0,-84.0,-10.0,61.0,-1.0,0
-6.0,-244.0,-87.0,-11.0,60.0,1.0,0
-4.0,-246.0,-84.0,-10.0,58.0,1.0,0
-2.0,-246.0,-86.0,-8.0,56.0,4.0,0
-5.0,-244.0,-85.0,-3.0,55.0,2.0,0
-4.0,-248.0,-84.0,3.0,54.0,4.0,0
-4.0,-245.0,-87.0,8.0,53.0,1.0,0
-4.0,-247.0,-88.0,9.0,52.0,2.0,0
-4.0,-240.0,-85.0,13.0,50.0,0.0,0
-5.0,-245.0,-93.0,13.0,48.0,2.0,0
-5.0,-245.0,-91.0,14.0,47.0,-1.0,0
-6.0,-245.0,-89.0,12.0,46.0,-1.0,0
-6.0,-242.0,-91.0,12.0,46.0,-3.0,0
-4.0,-246.0,-89.0,12.0,49.0,-3.0,0
-4.0,-244.0,-88.0,12.0,53.0,-4.0,0
-5.0,-244.0,-86.0,15.0,55.0,-4.0,0
-5.0,-245.0,-87.0,14.0,57.0,-5.0,0
0.0,-244.0,-90.0,15.0,60.0,-3.0,0
0.0,-242.0,-88.0,14.0,60.0,-6.0,0
-3.0,-244.0,-89.0,11.0,61.0,-3.0,0
-6.0,-250.0,-86.0,8.0,62.0,-5.0,0
-13.0,-247.0,-86.0,6.0,59.0,-5.0,0
-1.0,-240.0,-93.0,3.0,59.0,-5.0,0
-5.0,-237.0,-87.0,0.0,56.0,-4.0,0
9.0,-247.0,-86.0,-2.0,51.0,-6.0,0
0.0,-245.0,-83.0,-1.0,46.0,-4.0,0
-7.0,-244.0,-88.0,1.0,42.0,-6.0,0
-2.0,-244.0,-90.0,3.0,39.0,-4.0,0
-6.0,-242.0,-91.0,5.0,37.0,-6.0,0
0.0,-244.0,-87.0,8.0,36.0,-4.0,0
-4.0,-244.0,-89.0,11.0,35.0,-5.0,0
0.0,-248.0,-85.0,13.0,37.0,-3.0,0
-5.0,-245.0,-86.0,14.0,39.0,-6.0,0
-6.0,-243.0,-86.0,15.0,42.0,-4.0,0
-2.0,-249.0,-85.0,15.0,44.0,-5.0,0
-2.0,-246.0,-91.0,15.0,45.0,-5.0,0
0.0,-248.0,-83.0,14.0,49.0,-6.0,0
-3.0,-245.0,-87.0,14.0,53.0,-4.0,0
-3.0,-244.0,-87.0,14.0,53.0,-3.0,0
-3.0,-241.0,-86.0,12.0,55.0,-3.0,0
-2.0,-244.0,-83.0,12.0,54.0,-4.0,0
-2.0,-243.0,-85.0,12.0,52.0,-4.0,0
-1.0,-243.0,-85.0,10.0,53.0,-4.0,0
-3.0,-245.0,-88.0,10.0,50.0,-3.0,0
-4.0,-241.0,-84.0,4.0,49.0,-4.0,0
-6.0,-241.0,-83.0,-4.0,47.0,-4.0,0
-5.0,-239.0,-85.0,-10.0,47.0,-4.0,0
-3.0,-242.0,-84.0,-15.0,47.0,-3.0,0
-4.0,-241.0,-90.0,-21.0,48.0,-2.0,0
-3.0,-241.0,-87.0,-27.0,49.0,0.0,0
-5.0,-243.0,-84.0,-34.0,51.0,-1.0,0
-5.0,-247.0,-87.0,-34.0,54.0,-1.0,0
-4.0,-243.0,-90.0,-35.0,56.0,-1.0,0
-4.0,-245.0,-90.0,-31.0,56.0,0.0,0
-2.0,-244.0,-86.0,-29.0,57.0,-2.0,0
-5.0,-245.0,-88.0,-25.0,58.0,-4.0,0
-3.0,-245.0,-87.0,-21.0,58.0,-2.0,0
-4.0,-243.0,-89.0,-19.0,57.0,-5.0,0
-2.0,-244.0,-88.0,-19.0,58.0,-4.0,0
-4.0,-243.0,-89.0,-18.0,56.0,-6.0,0
-5.0,-243.0,-89.0,-15.0,55.0,-4.0,0
-2.0,-244.0,-90.0,-15.0,52.0,-5.0,0
-3.0,-244.0,-89.0,-16.0,50.0,-6.0,0
-5.0,-242.0,-89.0,-16.0,47.0,-6.0,0
-4.0,-245.0,-88.0,-15.0,44.0,-5.0,0
-5.0,-244.0,-90.0,-11.0,40.0,-6.0,0
-6.0,-245.0,-87.0,-8.0,39.0,-6.0,0
-4.0,-245.0,-89.0,-6.0,38.0,-7.0,0
-6.0,-244.0,-90.0,-4.0,36.0,-8.0,0
-3.0,-242.0,-89.0,-3.0,36.0,-10.0,0
-5.0,-243.0,-92.0,-4.0,35.0,-9.0,0
-7.0,-241.0,-93.0,-9.0,37.0,-10.0,0
-5.0,-241.0,-91.0,-13.0,38.0,-8.0,0
-5.0,-243.0,-87.0,-17.0,39.0,-10.0,0
-5.0,-241.0,-90.0,-22.0,42.0,-6.0,0
-5.0,-242.0,-91.0,-28.0,45.0,-8.0,0
-6.0,-240.0,-87.0,-37.0,48.0,-8.0,0
-3.0,-243.0,-90.0,-40.0,49.0,-8.0,0
-2.0,-240.0,-96.0,-43.0,48.0,-6.0,0
-3.0,-241.0,-89.0,-45.0,47.0,-8.0,0
-2.0,-243.0,-92.0,-41.0,46.0,-6.0,0
-1.0,-244.0,-88.0,-38.0,43.0,-7.0,0
-2.0,-244.0,-89.0,-32.0,42.0,-7.0,0
-4.0,-242.0,-91.0,-28.0,39.0,-10.0,0
-6.0,-242.0,-86.0,-25.0,39.0,-9.0,0
-6.0,-244.0,-90.0,-26.0,39.0,-11.0,0
-2.0,-244.0,-89.0,-30.0,42.0,-8.0,0
-3.0,-241.0,-90.0,-35.0,43.0,-11.0,0
-5.0,-241.0,-91.0,-39.0,48.0,-7.0,0
-4.0,-243.0,-88.0,-40.0,50.0,-9.0,0
-4.0,-243.0,-91.0,-41.0,53.0,-8.0,0
-2.0,-243.0,-91.0,-40.0,55.0,-9.0,0
-5.0,-243.0,-92.0,-42.0,57.0,-6.0,0
-5.0,-243.0,-93.0,-40.0,57.0,-10.0,0
-8.0,-244.0,-93.0,-41.0,60.0,-7.0,0
-4.0,-244.0,-93.0,-41.0,64.0,-10.0,0
-4.0,-242.0,-89.0,-43.0,68.0,-9.0,0
-3.0,-244.0,-92.0,-45.0,69.0,-12.0,0
-6.0,-244.0,-94.0,-45.0,72.0,-9.0,0
-8.0,-243.0,-94.0,-47.0,74.0,-11.0,0
-4.0,-244.0,-93.0,-49.0,71.0,-6.0,0
-5.0,-243.0,-95.0,-48.0,72.0,-9.0,0
-4.0,-242.0,-92.0,-45.0,70.0,-6.0,0
-4.0,-245.0,-96.0,-41.0,68.0,-7.0,0
-6.0,-247.0,-90.0,-36.0,66.0,-4.0,0
-3.0,-241.0,-94.0,-34.0,63.0,-5.0,0
-4.0,-241.0,-96.0,-29.0,62.0,-1.0,0
-4.0,-244.0,-95.0,-24.0,61.0,-4.0,0
-3.0,-241.0,-93.0,-21.0,60.0,-1.0,0
-3.0,-244.0,-95.0,-20.0,57.0,-4.0,0
-5.0,-243.0,-96.0,-20.0,55.0,0.0,0
-4.0,-238.0,-96.0,-21.0,53.0,-4.0,0
-7.0,-237.0,-91.0,-26.0,53.0,-1.0,0
-4.0,-241.0,-93.0,-33.0,51.0,-1.0,0
-7.0,-238.0,-93.0,-38.0,50.0,1.0,0
-5.0,-238.0,-92.0,-41.0,48.0,-3.0,0
-4.0,-238.0,-88.0,-44.0,47.0,1.0,0
-1.0,-237.0,-91.0,-46.0,48.0,-4.0,0
-3.0,-241.0,-93.0,-45.0,49.0,-3.0,0
-4.0,-242.0,-88.0,-46.0,48.0,-6.0,0
-4.0,-242.0,-90.0,-47.0,49.0,-3.0,0
-6.0,-240.0,-89.0,-51.0,48.0,-5.0,0
-6.0,-241.0,-86.0,-54.0,49.0,0.0,0
-5.0,-245.0,-86.0,-54.0,45.0,-2.0,0
-9.0,-245.0,-86.0,-51.0,41.0,1.0,0
-7.0,-244.0,-90.0,-52.0,37.0,-2.0,0
-6.0,-246.0,-90.0,-57.0,33.0,0.0,0
-11.0,-244.0,-86.0,-58.0,28.0,-3.0,0
-9.0,-244.0,-87.0,-60.0,25.0,-1.0,0
-9.0,-246.0,-84.0,-62.0,21.0,-2.0,0
-8.0,-243.0,-88.0,-58.0,21.0,-1.0,0
-11.0,-243.0,-86.0,-55.0,19.0,-4.0,0
-6.0,-245.0,-88.0,-52.0,20.0,-2.0,0
-9.0,-246.0,-84.0,-54.0,20.0,-4.0,0
-7.0,-242.0,-89.0,-56.0,19.0,-1.0,0
-7.0,-245.0,-91.0,-56.0,16.0,-2.0,0
-8.0,-248.0,-86.0,-56.0,12.0,1.0,0
-5.0,-249.0,-83.0,-52.0,8.0,-1.0,0
-5.0,-249.0,-84.0,-48.0,3.0,1.0,0
-7.0,-246.0,-84.0,-44.0,-2.0,0.0,0
-7.0,-246.0,-86.0,-42.0,-10.0,0.0,0
-6.0,-248.0,-88.0,-41.0,-15.0,-4.0,0
-6.0,-247.0,-86.0,-40.0,-18.0,-4.0,0
-6.0,-247.0,-87.0,-38.0,-21.0,-6.0,0
-7.0,-248.0,-85.0,-33.0,-22.0,-6.0,0
-6.0,-246.0,-85.0,-26.0,-21.0,-7.0,0
-6.0,-246.0,-82.0,-20.0,-20.0,-9.0,0
-5.0,-250.0,-86.0,-11.0,-18.0,-11.0,0
-6.0,-246.0,-90.0,-7.0,-19.0,-10.0,0
-5.0,-248.0,-88.0,-5.0,-15.0,-13.0,0
-8.0,-245.0,-89.0,-5.0,-13.0,-12.0,0
-6.0,-247.0,-89.0,-9.0,-12.0,-14.0,0
-3.0,-247.0,-90.0,-14.0,-8.0,-13.0,0
-6.0,-245.0,-94.0,-15.0,-7.0,-14.0,0
-6.0,-246.0,-91.0,-16.0,-6.0,-13.0,0
-7.0,-245.0,-91.0,-15.0,-5.0,-12.0,0
-6.0,-243.0,-92.0,-12.0,-5.0,-10.0,0
-7.0,-242.0,-90.0,-8.0,-4.0,-10.0,0
-3.0,-246.0,-90.0,-3.0,-5.0,-6.0,0
-3.0,-244.0,-89.0,0.0,-6.0,-6.0,0
-3.0,-247.0,-94.0,4.0,-6.0,-6.0,0
-6.0,-242.0,-89.0,6.0,-8.0,-6.0,0
-5.0,-243.0,-90.0,6.0,-9.0,-6.0,0
-3.0,-245.0,-94.0,5.0,-10.0,-6.0,0
-5.0,-242.0,-92.0,6.0,-11.0,-6.0,0
-5.0,-244.0,-92.0,4.0,-11.0,-8.0,0
-7.0,-243.0,-92.0,3.0,-7.0,-10.0,0
-6.0,-244.0,-95.0,0.0,-4.0,-11.0,0
-5.0,-241.0,-96.0,-1.0,1.0,-13.0,0
-5.0,-245.0,-92.0,0.0,5.0,-16.0,0
-4.0,-244.0,-95.0,2.0,8.0,-18.0,0
-6.0,-242.0,-97.0,3.0,10.0,-19.0,0
-2.0,-240.0,-99.0,5.0,11.0,-20.0,0
-2.0,-243.0,-97.0,5.0,11.0,-17.0,0
-4.0,-244.0,-96.0,5.0,11.0,-18.0,0
-2.0,-242.0,-101.0,2.0,11.0,-15.0,0
-5.0,-240.0,-100.0,-2.0,10.0,-14.0,0
-5.0,-240.0,-101.0,-6.0,9.0,-14.0,0
-3.0,-241.0,-106.0,-9.0,7.0,-14.0,0
-3.0,-239.0,-104.0,-11.0,3.0,-12.0,0
-3.0,-240.0,-103.0,-11.0,1.0,-11.0,0
-4.0,-237.0,-102.0,-11.0,0.0,-8.0,0
-3.0,-239.0,-103.0,-13.0,3.0,-6.0,0
-1.0,-235.0,-107.0,-14.0,7.0,-5.0,0
-1.0,-237.0,-104.0,-15.0,7.0,-6.0,0
-3.0,-238.0,-106.0,-16.0,7.0,-4.0,0
0.0,-238.0,-107.0,-17.0,7.0,-4.0,0
-1.0,-243.0,-106.0,-15.0,5.0,-3.0,0
-4.0,-237.0,-107.0,-16.0,2.0,-8.0,0
0.0,-239.0,-104.0,-14.0,-1.0,-6.0,0
-4.0,-237.0,-108.0,-12.0,-5.0,-9.0,0
-5.0,-238.0,-103.0,-9.0,-11.0,-7.0,0
-4.0,-237.0,-104.0,-5.0,-15.0,-11.0,0
-6.0,-236.0,-104.0,-1.0,-21.0,-9.0,0
-9.0,-235.0,-110.0,2.0,-26.0,-12.0,0
-9.0,-231.0,-110.0,0.0,-29.0,-10.0,0
-9.0,-232.0,-110.0,-2.0,-32.0,-13.0,0
-9.0,-231.0,-111.0,-9.0,-39.0,-12.0,0
-9.0,-231.0,-111.0,-20.0,-45.0,-14.0,0
-9.0,-228.0,-113.0,-33.0,-47.0,-12.0,0
-9.0,-227.0,-114.0,-51.0,-47.0,-15.0,0
-7.0,-227.0,-114.0,-71.0,-46.0,-12.0,0
-6.0,-226.0,-114.0,-90.0,-47.0,-15.0,0
-6.0,-225.0,-116.0,-105.0,-51.0,-14.0,0
-7.0,-222.0,-112.0,-119.0,-58.0,-14.0,0
-6.0,-223.0,-111.0,-129.0,-62.0,-10.0,0
-6.0,-222.0,-118.0,-138.0,-68.0,-10.0,0
-8.0,-221.0,-113.0,-147.0,-70.0,-6.0,0
-6.0,-223.0,-121.0,-160.0,-73.0,-5.0,0
-6.0,-221.0,-121.0,-171.0,-77.0,1.0,0
-6.0,-220.0,-120.0,-184.0,-80.0,-2.0,0
-6.0,-219.0,-118.0,-198.0,-83.0,-1.0,0
-3.0,-222.0,-122.0,-214.0,-84.0,-4.0,0
-7.0,-218.0,-122.0,-231.0,-85.0,-1.0,0
-2.0,-221.0,-121.0,-245.0,-88.0,-4.0,0
0.0,-222.0,-119.0,-258.0,-85.0,-6.0,0
-3.0,-218.0,-115.0,-265.0,-82.0,-11.0,0
-3.0,-218.0,-111.0,-274.0,-74.0,-11.0,0
-1.0,-221.0,-110.0,-279.0,-70.0,-14.0,0
1.0,-218.0,-108.0,-284.0,-64.0,-13.0,0
4.0,-214.0,-112.0,-291.0,-57.0,-16.0,0
2.0,-212.0,-106.0,-299.0,-50.0,-14.0,0
1.0,-210.0,-104.0,-312.0,-41.0,-15.0,0
3.0,-208.0,-107.0,-326.0,-34.0,-12.0,0
6.0,-205.0,-109.0,-350.0,-24.0,-13.0,0
6.0,-205.0,-109.0,-377.0,-14.0,-11.0,0
7.0,-205.0,-107.0,-410.0,0.0,-12.0,0
6.0,-202.0,-107.0,-444.0,13.0,-11.0,0
7.0,-204.0,-107.0,-480.0,24.0,-13.0,0
13.0,-206.0,-109.0,-511.0,35.0,-12.0,0
14.0,-209.0,-109.0,-539.0,46.0,-13.0,0
18.0,-212.0,-110.0,-566.0,59.0,-12.0,0
17.0,-210.0,-111.0,-582.0,71.0,-15.0,0
15.0,-206.0,-108.0,-593.0,82.0,-20.0,0
14.0,-207.0,-106.0,-599.0,91.0,-27.0,0
15.0,-208.0,-105.0,-605.0,98.0,-28.0,0
10.0,-206.0,-103.0,-608.0,106.0,-35.0,0
10.0,-207.0,-102.0,-615.0,114.0,-33.0,0
10.0,-209.0,-102.0,-628.0,124.0,-32.0,0
9.0,-207.0,-100.0,-647.0,135.0,-27.0,0
8.0,-210.0,-102.0,-669.0,142.0,-30.0,0
3.0,-207.0,-98.0,-696.0,142.0,-23.0,0
-2.0,-205.0,-99.0,-720.0,144.0,-21.0,0
-2.0,-208.0,-100.0,-742.0,142.0,-21.0,0
-3.0,-206.0,-106.0,-765.0,141.0,-27.0,0
-3.0,-210.0,-109.0,-789.0,141.0,-26.0,0
-3.0,-212.0,-109.0,-812.0,138.0,-23.0,0
-5.0,-213.0,-113.0,-829.0,136.0,-23.0,0
-7.0,-216.0,-113.0,-843.0,126.0,-30.0,0
-9.0,-217.0,-115.0,-858.0,113.0,-39.0,0
-12.0,-225.0,-116.0,-871.0,100.0,-51.0,0
-12.0,-224.0,-116.0,-882.0,85.0,-54.0,0
-13.0,-228.0,-119.0,-888.0,65.0,-70.0,0
-13.0,-230.0,-118.0,-890.0,44.0,-84.0,0
-20.0,-232.0,-118.0,-875.0,27.0,-96.0,0
-20.0,-234.0,-118.0,-848.0,16.0,-107.0,0
-20.0,-232.0,-118.0,-810.0,6.0,-121.0,0
-21.0,-229.0,-120.0,-770.0,-2.0,-133.0,0
-20.0,-225.0,-123.0,-720.0,-13.0,-145.0,0
-18.0,-219.0,-119.0,-675.0,-23.0,-153.0,0
-14.0,-212.0,-124.0,-634.0,-29.0,-159.0,0
-12.0,-207.0,-120.0,-593.0,-29.0,-160.0,0
-11.0,-199.0,-120.0,-557.0,-25.0,-158.0,0
-7.0,-195.0,-117.0,-533.0,-13.0,-153.0,0
-5.0,-189.0,-114.0,-524.0,2.0,-145.0,0
2.0,-186.0,-112.0,-530.0,19.0,-134.0,0
6.0,-187.0,-108.0,-550.0,38.0,-124.0,0
8.0,-186.0,-109.0,-582.0,62.0,-108.0,0
5.0,-188.0,-105.0,-635.0,79.0,-97.0,0
9.0,-190.0,-102.0,-683.0,92.0,-77.0,0
12.0,-191.0,-106.0,-728.0,108.0,-62.0,0
14.0,-194.0,-114.0,-777.0,123.0,-46.0,0
16.0,-195.0,-119.0,-827.0,140.0,-32.0,0
19.0,-193.0,-123.0,-873.0,157.0,-19.0,0
18.0,-189.0,-132.0,-908.0,169.0,-8.0,0
19.0,-190.0,-133.0,-927.0,178.0,-2.0,0
12.0,-188.0,-136.0,-934.0,179.0,4.0,0
11.0,-186.0,-138.0,-928.0,178.0,10.0,0
7.0,-181.0,-134.0,-916.0,172.0,11.0,0
3.0,-185.0,-132.0,-899.0,160.0,12.0,0
-5.0,-180.0,-132.0,-877.0,144.0,16.0,0
-6.0,-182.0,-136.0,-849.0,128.0,18.0,0
-5.0,-179.0,-135.0,-821.0,121.0,17.0,0
-8.0,-180.0,-139.0,-801.0,121.0,12.0,0
-7.0,-183.0,-140.0,-791.0,126.0,3.0,0
-9.0,-188.0,-141.0,-797.0,135.0,-9.0,0
-9.0,-192.0,-140.0,-818.0,136.0,-18.0,0
-10.0,-198.0,-142.0,-845.0,135.0,-28.0,0
-7.0,-200.0,-150.0,-873.0,129.0,-32.0,0
-10.0,-202.0,-152.0,-892.0,124.0,-40.0,0
-10.0,-201.0,-157.0,-900.0,121.0,-44.0,0
-9.0,-203.0,-163.0,-891.0,125.0,-43.0,0
-10.0,-203.0,-161.0,-881.0,131.0,-27.0,0
-6.0,-203.0,-160.0,-866.0,141.0,-14.0,0
-5.0,-200.0,-155.0,-840.0,152.0,8.0,0
1.0,-198.0,-152.0,-801.0,158.0,28.0,0
4.0,-196.0,-155.0,-771.0,158.0,49.0,0
8.0,-194.0,-160.0,-753.0,157.0,67.0,0
12.0,-192.0,-163.0,-747.0,158.0,80.0,0
14.0,-190.0,-168.0,-754.0,162.0,86.0,0
16.0,-187.0,-171.0,-766.0,172.0,84.0,0
16.0,-182.0,-175.0,-784.0,186.0,75.0,0
16.0,-183.0,-179.0,-806.0,204.0,64.0,0
17.0,-185.0,-180.0,-832.0,230.0,46.0,0
20.0,-189.0,-181.0,-867.0,248.0,31.0,0
17.0,-191.0,-182.0,-890.0,259.0,16.0,0
17.0,-195.0,-174.0,-910.0,260.0,7.0,0
16.0,-200.0,-178.0,-915.0,251.0,1.0,0
13.0,-201.0,-172.0,-907.0,241.0,1.0,0
8.0,-202.0,-171.0,-889.0,233.0,-4.0,0
5.0,-202.0,-170.0,-861.0,223.0,-7.0,0
-3.0,-204.0,-169.0,-829.0,215.0,-10.0,0
-4.0,-201.0,-171.0,-795.0,208.0,-8.0,0
-7.0,-197.0,-173.0,-758.0,209.0,-11.0,0
-5.0,-198.0,-175.0,-731.0,213.0,-16.0,0
-11.0,-192.0,-176.0,-712.0,217.0,-21.0,0
-12.0,-194.0,-168.0,-696.0,219.0,-22.0,0
-12.0,-192.0,-175.0,-686.0,217.0,-27.0,0
-10.0,-194.0,-176.0,-679.0,209.0,-24.0,0
-11.0,-188.0,-178.0,-663.0,200.0,-22.0,0
-7.0,-187.0,-178.0,-660.0,190.0,-16.0,0
-4.0,-187.0,-182.0,-663.0,182.0,-13.0,0
-2.0,-181.0,-186.0,-663.0,174.0,-7.0,0
0.0,-181.0,-187.0,-663.0,170.0,-4.0,0
0.0,-181.0,-184.0,-659.0,171.0,3.0,0
4.0,-181.0,-186.0,-654.0,167.0,4.0,0
5.0,-179.0,-183.0,-649.0,163.0,8.0,0
11.0,-178.0,-181.0,-641.0,154.0,9.0,0
12.0,-180.0,-181.0,-630.0,145.0,12.0,0
11.0,-178.0,-179.0,-617.0,140.0,11.0,0
11.0,-179.0,-181.0,-607.0,138.0,13.0,0
13.0,-180.0,-182.0,-603.0,132.0,13.0,0
13.0,-181.0,-184.0,-611.0,126.0,17.0,0
10.0,-179.0,-184.0,-619.0,113.0,18.0,0
6.0,-181.0,-184.0,-624.0,98.0,26.0,0
3.0,-182.0,-187.0,-623.0,79.0,30.0,0
4.0,-179.0,-189.0,-618.0,61.0,47.0,0
1.0,-177.0,-197.0,-608.0,48.0,46.0,0
2.0,-179.0,-197.0,-595.0,39.0,55.0,0
-1.0,-174.0,-201.0,-583.0,38.0,62.0,0
2.0,-176.0,-195.0,-576.0,50.0,69.0,0
3.0,-174.0,-197.0,-568.0,70.0,70.0,0
4.0,-174.0,-196.0,-560.0,92.0,76.0,0
8.0,-172.0,-197.0,-559.0,109.0,74.0,0
4.0,-172.0,-197.0,-555.0,119.0,77.0,0
6.0,-170.0,-196.0,-550.0,124.0,77.0,0
6.0,-167.0,-192.0,-546.0,128.0,80.0,0
7.0,-169.0,-194.0,-544.0,133.0,80.0,0
7.0,-168.0,-200.0,-544.0,138.0,82.0,0
7.0,-170.0,-194.0,-555.0,145.0,78.0,0
10.0,-164.0,-201.0,-568.0,153.0,81.0,0
10.0,-167.0,-198.0,-581.0,166.0,76.0,0
7.0,-165.0,-200.0,-596.0,178.0,74.0,0
9.0,-164.0,-204.0,-610.0,187.0,65.0,0
11.0,-163.0,-206.0,-624.0,191.0,60.0,0
9.0,-163.0,-207.0,-639.0,186.0,51.0,0
9.0,-158.0,-210.0,-649.0,174.0,45.0,0
5.0,-158.0,-211.0,-654.0,150.0,33.0,0
0.0,-152.0,-218.0,-649.0,118.0,21.0,0
1.0,-152.0,-218.0,-642.0,100.0,12.0,0
2.0,-157.0,-216.0,-630.0,91.0,3.0,0
-3.0,-167.0,-210.0,-584.0,86.0,-17.0,0
-4.0,-173.0,-215.0,-513.0,85.0,-27.0,0
-5.0,-175.0,-222.0,-455.0,87.0,-33.0,0
-7.0,-175.0,-225.0,-431.0,89.0,-36.0,0
-9.0,-177.0,-224.0,-414.0,89.0,-31.0,0
-8.0,-174.0,-225.0,-397.0,81.0,-24.0,0
-10.0,-176.0,-229.0,-378.0,65.0,-29.0,0
-4.0,-183.0,-227.0,-384.0,59.0,-34.0,0
-6.0,-177.0,-227.0,-410.0,66.0,-52.0,0
-6.0,-175.0,-224.0,-432.0,79.0,-64.0,0
0.0,-175.0,-223.0,-441.0,92.0,-73.0,0
3.0,-179.0,-218.0,-447.0,109.0,-75.0,0
7.0,-181.0,-221.0,-457.0,122.0,-78.0,0
9.0,-179.0,-220.0,-471.0,119.0,-81.0,0
13.0,-174.0,-219.0,-485.0,113.0,-83.0,0
12.0,-172.0,-220.0,-498.0,103.0,-79.0,0
13.0,-166.0,-215.0,-499.0,95.0,-74.0,0
19.0,-168.0,-222.0,-488.0,92.0,-60.0,0
19.0,-166.0,-220.0,-480.0,99.0,-56.0,0
19.0,-162.0,-220.0,-471.0,110.0,-53.0,0
18.0,-157.0,-221.0,-457.0,128.0,-52.0,0
14.0,-155.0,-219.0,-438.0,148.0,-50.0,0
14.0,-154.0,-222.0,-414.0,164.0,-44.0,0
16.0,-154.0,-219.0,-385.0,177.0,-41.0,0
14.0,-153.0,-220.0,-346.0,188.0,-40.0,0
12.0,-151.0,-226.0,-314.0,195.0,-38.0,0
12.0,-150.0,-227.0,-285.0,200.0,-39.0,0
4.0,-150.0,-224.0,-258.0,204.0,-41.0,0
4.0,-150.0,-226.0,-241.0,206.0,-42.0,0
-2.0,-145.0,-227.0,-229.0,210.0,-39.0,0
-4.0,-143.0,-228.0,-220.0,218.0,-34.0,0
-5.0,-144.0,-223.0,-215.0,224.0,-30.0,0
-10.0,-140.0,-224.0,-216.0,222.0,-21.0,0
-13.0,-135.0,-222.0,-224.0,220.0,-11.0,0
-12.0,-136.0,-219.0,-239.0,215.0,-10.0,0
-11.0,-134.0,-218.0,-253.0,207.0,-1.0,0
-9.0,-135.0,-217.0,-267.0,198.0,11.0,0
-8.0,-136.0,-217.0,-281.0,195.0,22.0,0
-11.0,-134.0,-211.0,-295.0,192.0,30.0,0
-10.0,-136.0,-208.0,-309.0,190.0,32.0,0
-7.0,-137.0,-211.0,-324.0,185.0,39.0,0
-5.0,-133.0,-213.0,-343.0,189.0,42.0,0
1.0,-134.0,-212.0,-365.0,204.0,37.0,0
-3.0,-130.0,-213.0,-391.0,214.0,35.0,0
-2.0,-132.0,-210.0,-420.0,221.0,40.0,0
-1.0,-133.0,-210.0,-449.0,226.0,43.0,0
-3.0,-130.0,-217.0,-484.0,225.0,53.0,0
-3.0,-129.0,-214.0,-522.0,227.0,57.0,0
-6.0,-130.0,-212.0,-554.0,226.0,53.0,0
-2.0,-131.0,-218.0,-590.0,220.0,57.0,0
0.0,-133.0,-217.0,-631.0,221.0,70.0,0
2.0,-126.0,-218.0,-676.0,231.0,68.0,0
7.0,-131.0,-222.0,-732.0,242.0,85.0,0
6.0,-124.0,-222.0,-771.0,266.0,84.0,0
15.0,-127.0,-225.0,-798.0,276.0,102.0,0
15.0,-125.0,-228.0,-814.0,297.0,108.0,0
16.0,-125.0,-229.0,-826.0,321.0,110.0,0
12.0,-124.0,-233.0,-820.0,343.0,106.0,0
18.0,-130.0,-239.0,-796.0,338.0,129.0,0
10.0,-127.0,-242.0,-751.0,339.0,137.0,0
5.0,-125.0,-241.0,-678.0,319.0,123.0,0
5.0,-123.0,-245.0,-579.0,293.0,114.0,0
5.0,-122.0,-247.0,-497.0,279.0,115.0,0
-2.0,-124.0,-246.0,-415.0,272.0,114.0,0
3.0,-121.0,-239.0,-354.0,273.0,126.0,0
2.0,-118.0,-239.0,-308.0,287.0,108.0,0
4.0,-119.0,-238.0,-280.0,293.0,109.0,0
4.0,-123.0,-238.0,-273.0,309.0,117.0,0
5.0,-119.0,-236.0,-278.0,340.0,126.0,0
12.0,-117.0,-233.0,-281.0,357.0,126.0,0
15.0,-115.0,-228.0,-294.0,369.0,159.0,0
10.0,-117.0,-231.0,-301.0,390.0,165.0,0
18.0,-116.0,-228.0,-300.0,382.0,181.0,0
12.0,-113.0,-226.0,-296.0,370.0,191.0,0
12.0,-124.0,-239.0,-282.0,352.0,185.0,0
12.0,-107.0,-234.0,-263.0,334.0,161.0,0
17.0,-107.0,-243.0,-244.0,309.0,184.0,0
8.0,-107.0,-242.0,-219.0,308.0,175.0,0
5.0,-105.0,-243.0,-189.0,304.0,164.0,0
5.0,-111.0,-244.0,-158.0,295.0,151.0,0
8.0,-98.0,-239.0,-145.0,293.0,138.0,0
7.0,-94.0,-245.0,-143.0,290.0,132.0,0
9.0,-98.0,-246.0,-146.0,283.0,127.0,0
13.0,-102.0,-247.0,-164.0,275.0,121.0,0
10.0,-92.0,-240.0,-184.0,272.0,111.0,0
12.0,-96.0,-249.0,-209.0,247.0,102.0,0
14.0,-95.0,-249.0,-228.0,230.0,94.0,0
18.0,-96.0,-251.0,-238.0,217.0,89.0,0
20.0,-102.0,-250.0,-236.0,217.0,87.0,0
24.0,-100.0,-248.0,-224.0,219.0,61.0,0
33.0,-103.0,-250.0,-209.0,209.0,64.0,0
33.0,-106.0,-247.0,-187.0,214.0,60.0,0
34.0,-109.0,-245.0,-164.0,213.0,62.0,0
26.0,-105.0,-243.0,-141.0,222.0,53.0,0
30.0,-107.0,-241.0,-118.0,220.0,38.0,0
24.0,-105.0,-245.0,-104.0,223.0,16.0,0
33.0,-101.0,-244.0,-104.0,227.0,9.0,0
39.0,-101.0,-246.0,-123.0,246.0,26.0,0
35.0,-97.0,-244.0,-143.0,277.0,43.0,0
39.0,-100.0,-245.0,-158.0,291.0,41.0,0
37.0,-99.0,-241.0,-168.0,292.0,43.0,0
41.0,-102.0,-247.0,-175.0,287.0,36.0,0
42.0,-96.0,-237.0,-183.0,282.0,42.0,0
37.0,-93.0,-238.0,-185.0,293.0,25.0,0
39.0,-99.0,-243.0,-173.0,286.0,24.0,0
36.0,-99.0,-243.0,-162.0,301.0,36.0,0
30.0,-105.0,-247.0,-151.0,315.0,44.0,0
24.0,-101.0,-248.0,-141.0,321.0,55.0,0
24.0,-117.0,-255.0,-108.0,322.0,40.0,0
28.0,-89.0,-245.0,-78.0,306.0,-3.0,0
40.0,-105.0,-252.0,-40.0,274.0,30.0,0
37.0,-105.0,-251.0,-1.0,270.0,61.0,0
31.0,-106.0,-246.0,34.0,267.0,58.0,0
19.0,-103.0,-250.0,64.0,249.0,40.0,0
27.0,-102.0,-254.0,85.0,218.0,26.0,0
22.0,-106.0,-254.0,111.0,209.0,15.0,0
22.0,-99.0,-252.0,130.0,199.0,16.0,0
26.0,-111.0,-253.0,153.0,181.0,-3.0,0
33.0,-95.0,-249.0,178.0,162.0,-37.0,0
34.0,-90.0,-250.0,180.0,128.0,-47.0,0
39.0,-99.0,-251.0,208.0,121.0,-2.0,0
32.0,-106.0,-255.0,241.0,129.0,7.0,0
27.0,-109.0,-255.0,272.0,119.0,6.0,0
48.0,-111.0,-254.0,288.0,109.0,25.0,0
29.0,-102.0,-255.0,301.0,113.0,40.0,0
33.0,-101.0,-252.0,330.0,94.0,30.0,0
30.0,-104.0,-255.0,354.0,81.0,31.0,0
28.0,-111.0,-248.0,373.0,80.0,34.0,0
28.0,-114.0,-244.0,386.0,80.0,42.0,0
29.0,-104.0,-231.0,397.0,78.0,33.0,0
29.0,-107.0,-238.0,404.0,66.0,58.0,0
24.0,-120.0,-242.0,408.0,75.0,72.0,0
23.0,-119.0,-234.0,416.0,75.0,73.0,0
23.0,-121.0,-241.0,427.0,73.0,71.0,0
27.0,-122.0,-232.0,428.0,65.0,84.0,0
17.0,-124.0,-240.0,428.0,64.0,63.0,0
31.0,-120.0,-243.0,430.0,37.0,52.0,0
27.0,-121.0,-244.0,431.0,29.0,65.0,0
33.0,-123.0,-249.0,449.0,14.0,74.0,0
34.0,-122.0,-249.0,469.0,-3.0,82.0,0
32.0,-124.0,-249.0,491.0,-8.0,84.0,0
36.0,-123.0,-247.0,515.0,-20.0,82.0,0
35.0,-117.0,-241.0,542.0,-24.0,86.0,0
32.0,-121.0,-239.0,556.0,-20.0,89.0,0
38.0,-124.0,-243.0,573.0,-6.0,96.0,0
38.0,-128.0,-244.0,586.0,9.0,94.0,0
37.0,-128.0,-241.0,595.0,24.0,92.0,0
37.0,-134.0,-242.0,602.0,35.0,91.0,0
32.0,-133.0,-240.0,609.0,40.0,98.0,0
36.0,-134.0,-240.0,622.0,53.0,94.0,0
37.0,-135.0,-240.0,634.0,61.0,92.0,0
38.0,-133.0,-236.0,646.0,61.0,96.0,0
36.0,-136.0,-235.0,654.0,57.0,103.0,0
32.0,-139.0,-238.0,662.0,47.0,107.0,0
34.0,-139.0,-239.0,674.0,39.0,108.0,0
30.0,-136.0,-239.0,688.0,34.0,107.0,0
31.0,-137.0,-244.0,704.0,28.0,106.0,0
31.0,-136.0,-241.0,713.0,28.0,102.0,0
29.0,-134.0,-245.0,712.0,29.0,97.0,0
32.0,-136.0,-246.0,709.0,28.0,94.0,0
30.0,-137.0,-239.0,701.0,29.0,95.0,0
31.0,-140.0,-240.0,694.0,31.0,87.0,0
32.0,-143.0,-238.0,690.0,31.0,84.0,0
34.0,-148.0,-235.0,693.0,30.0,82.0,0
32.0,-148.0,-236.0,701.0,26.0,82.0,0
35.0,-151.0,-234.0,712.0,27.0,81.0,0
31.0,-149.0,-240.0,723.0,29.0,79.0,0
31.0,-150.0,-238.0,733.0,30.0,77.0,0
32.0,-151.0,-238.0,737.0,25.0,76.0,0
28.0,-152.0,-238.0,739.0,21.0,73.0,0
31.0,-151.0,-242.0,741.0,17.0,70.0,0
32.0,-149.0,-235.0,741.0,15.0,66.0,0
33.0,-148.0,-234.0,745.0,14.0,64.0,0
35.0,-151.0,-235.0,748.0,20.0,66.0,0
38.0,-155.0,-235.0,751.0,26.0,67.0,0
32.0,-156.0,-230.0,757.0,33.0,70.0,0
33.0,-160.0,-232.0,765.0,40.0,71.0,0
26.0,-161.0,-230.0,774.0,46.0,75.0,0
25.0,-165.0,-232.0,785.0,51.0,73.0,0
24.0,-163.0,-227.0,793.0,49.0,73.0,0
25.0,-162.0,-229.0,799.0,41.0,71.0,0
23.0,-159.0,-230.0,800.0,30.0,72.0,0
26.0,-160.0,-228.0,798.0,17.0,71.0,0
27.0,-157.0,-229.0,789.0,8.0,73.0,0
28.0,-161.0,-225.0,778.0,0.0,69.0,0
26.0,-160.0,-227.0,767.0,-4.0,66.0,0
30.0,-163.0,-225.0,759.0,-7.0,57.0,0
25.0,-169.0,-231.0,755.0,-5.0,53.0,0
27.0,-170.0,-225.0,754.0,-1.0,49.0,0
30.0,-174.0,-225.0,753.0,4.0,52.0,0
26.0,-172.0,-223.0,754.0,9.0,54.0,0
25.0,-174.0,-224.0,758.0,10.0,60.0,0
25.0,-173.0,-223.0,765.0,7.0,61.0,0
21.0,-172.0,-226.0,774.0,3.0,65.0,0
24.0,-175.0,-222.0,779.0,-1.0,60.0,0
22.0,-173.0,-217.0,783.0,-9.0,55.0,0
22.0,-175.0,-219.0,787.0,-18.0,50.0,0
25.0,-179.0,-224.0,795.0,-27.0,49.0,0
23.0,-176.0,-222.0,805.0,-36.0,45.0,0
23.0,-177.0,-222.0,813.0,-40.0,48.0,0
23.0,-173.0,-221.0,820.0,-41.0,49.0,0
27.0,-175.0,-216.0,821.0,-45.0,59.0,0
27.0,-179.0,-222.0,829.0,-50.0,64.0,0
23.0,-177.0,-215.0,842.0,-60.0,72.0,0
28.0,-184.0,-216.0,855.0,-68.0,70.0,0
26.0,-180.0,-216.0,866.0,-74.0,69.0,0
28.0,-182.0,-218.0,875.0,-75.0,61.0,0
30.0,-181.0,-214.0,883.0,-73.0,60.0,0
28.0,-178.0,-213.0,897.0,-73.0,56.0,0
26.0,-177.0,-206.0,912.0,-68.0,60.0,0
25.0,-178.0,-209.0,930.0,-60.0,64.0,0
25.0,-175.0,-203.0,947.0,-50.0,71.0,0
28.0,-174.0,-202.0,964.0,-45.0,75.0,0
25.0,-174.0,-203.0,985.0,-49.0,81.0,0
25.0,-176.0,-196.0,1008.0,-63.0,79.0,0
27.0,-175.0,-195.0,1023.0,-80.0,79.0,0
25.0,-173.0,-193.0,1039.0,-91.0,77.0,0
22.0,-173.0,-192.0,1055.0,-98.0,81.0,0
23.0,-172.0,-188.0,1068.0,-105.0,81.0,0
26.0,-174.0,-187.0,1076.0,-105.0,83.0,0
25.0,-176.0,-183.0,1075.0,-105.0,78.0,0
24.0,-172.0,-180.0,1075.0,-100.0,78.0,0
25.0,-180.0,-180.0,1081.0,-102.0,79.0,0
25.0,-185.0,-176.0,1094.0,-104.0,84.0,0
22.0,-195.0,-169.0,1105.0,-105.0,86.0,0
21.0,-212.0,-175.0,1122.0,-110.0,92.0,0
13.0,-230.0,-173.0,1132.0,-115.0,89.0,0
2.0,-255.0,-183.0,1128.0,-126.0,88.0,0
-5.0,-281.0,-197.0,1112.0,-149.0,80.0,0
-7.0,-309.0,-217.0,1077.0,-172.0,80.0,0
-1.0,-335.0,-233.0,1025.0,-185.0,89.0,0
10.0,-354.0,-235.0,978.0,-182.0,124.0,0
31.0,-361.0,-231.0,917.0,-156.0,173.0,0
44.0,-348.0,-213.0,901.0,-112.0,251.0,0
49.0,-323.0,-205.0,936.0,-70.0,329.0,0
49.0,-290.0,-197.0,1017.0,-33.0,417.0,0
40.0,-257.0,-197.0,1161.0,-6.0,479.0,0
31.0,-231.0,-196.0,1323.0,7.0,509.0,0
30.0,-213.0,-199.0,1487.0,3.0,498.0,0
24.0,-194.0,-188.0,1630.0,-9.0,453.0,0
18.0,-178.0,-173.0,1732.0,-28.0,362.0,0
20.0,-170.0,-149.0,1797.0,-47.0,284.0,0
16.0,-162.0,-126.0,1803.0,-55.0,209.0,0
17.0,-162.0,-104.0,1766.0,-51.0,155.0,0
21.0,-164.0,-83.0,1690.0,-28.0,124.0,0
20.0,-163.0,-71.0,1582.0,7.0,115.0,0
21.0,-165.0,-63.0,1454.0,52.0,113.0,0
17.0,-173.0,-57.0,1312.0,93.0,121.0,0
15.0,-179.0,-56.0,1171.0,123.0,123.0,0
10.0,-189.0,-57.0,1046.0,142.0,127.0,0
7.0,-199.0,-65.0,921.0,145.0,123.0,0
1.0,-215.0,-68.0,847.0,138.0,122.0,0
-1.0,-232.0,-73.0,799.0,119.0,119.0,0
-3.0,-243.0,-78.0,774.0,100.0,118.0,0
-2.0,-258.0,-81.0,766.0,86.0,115.0,0
-7.0,-265.0,-89.0,774.0,75.0,119.0,0
-7.0,-279.0,-93.0,793.0,62.0,118.0,0
-11.0,-283.0,-97.0,821.0,45.0,117.0,0
-12.0,-291.0,-106.0,866.0,20.0,110.0,0
-12.0,-288.0,-108.0,914.0,-2.0,108.0,0
-14.0,-286.0,-109.0,979.0,-23.0,107.0,0
-12.0,-282.0,-115.0,1050.0,-45.0,111.0,0
-11.0,-276.0,-118.0,1123.0,-61.0,113.0,0
-9.0,-264.0,-115.0,1195.0,-80.0,123.0,0
-11.0,-254.0,-107.0,1251.0,-100.0,130.0,0
-7.0,-242.0,-112.0,1298.0,-114.0,138.0,0
-7.0,-233.0,-97.0,1328.0,-125.0,146.0,0
-7.0,-223.0,-99.0,1333.0,-142.0,152.0,0
-3.0,-218.0,-91.0,1310.0,-154.0,149.0,0
-4.0,-215.0,-87.0,1270.0,-162.0,140.0,0
-6.0,-205.0,-84.0,1220.0,-168.0,130.0,0
-8.0,-210.0,-75.0,1161.0,-171.0,121.0,0
-11.0,-207.0,-80.0,1103.0,-175.0,108.0,0
-11.0,-213.0,-70.0,1043.0,-178.0,102.0,0
-9.0,-211.0,-67.0,982.0,-175.0,99.0,0
-6.0,-219.0,-67.0,924.0,-169.0,105.0,0
-7.0,-220.0,-67.0,856.0,-161.0,108.0,0
-3.0,-225.0,-70.0,803.0,-154.0,114.0,0
2.0,-232.0,-69.0,757.0,-145.0,116.0,0
6.0,-235.0,-65.0,715.0,-135.0,112.0,0
6.0,-240.0,-63.0,681.0,-131.0,111.0,0
5.0,-240.0,-67.0,653.0,-131.0,109.0,0
11.0,-246.0,-62.0,630.0,-129.0,107.0,0
12.0,-249.0,-60.0,607.0,-125.0,104.0,0
10.0,-254.0,-61.0,590.0,-118.0,100.0,0
8.0,-253.0,-62.0,570.0,-108.0,94.0,0
3.0,-254.0,-68.0,551.0,-100.0,89.0,0
6.0,-251.0,-64.0,541.0,-94.0,85.0,0
1.0,-252.0,-67.0,536.0,-89.0,81.0,0
4.0,-255.0,-63.0,530.0,-87.0,79.0,0
0.0,-251.0,-65.0,529.0,-81.0,77.0,0
-1.0,-250.0,-59.0,535.0,-75.0,75.0,0
0.0,-250.0,-62.0,542.0,-72.0,76.0,0
0.0,-253.0,-63.0,550.0,-70.0,78.0,0
-3.0,-248.0,-62.0,555.0,-70.0,79.0,0
-1.0,-252.0,-59.0,556.0,-64.0,78.0,0
1.0,-247.0,-60.0,553.0,-59.0,77.0,0
-2.0,-247.0,-60.0,549.0,-52.0,76.0,0
-1.0,-247.0,-62.0,547.0,-47.0,75.0,0
-4.0,-249.0,-61.0,541.0,-39.0,72.0,0
1.0,-250.0,-64.0,536.0,-35.0,72.0,0
-4.0,-248.0,-58.0,532.0,-27.0,66.0,0
-6.0,-255.0,-64.0,527.0,-20.0,63.0,0
-7.0,-251.0,-57.0,524.0,-14.0,60.0,0
-8.0,-255.0,-60.0,518.0,-10.0,57.0,0
-9.0,-249.0,-73.0,507.0,-4.0,56.0,0
-4.0,-240.0,-66.0,498.0,3.0,53.0,0
2.0,-257.0,-68.0,486.0,11.0,49.0,0
-4.0,-254.0,-60.0,478.0,12.0,50.0,0
-8.0,-251.0,-61.0,470.0,12.0,46.0,0
-9.0,-252.0,-57.0,462.0,7.0,49.0,0
-11.0,-252.0,-56.0,456.0,1.0,48.0,0
-10.0,-250.0,-57.0,447.0,-8.0,46.0,0
-8.0,-252.0,-55.0,441.0,-6.0,45.0,0
-8.0,-251.0,-56.0,437.0,0.0,44.0,0
-11.0,-249.0,-55.0,429.0,12.0,40.0,0
-9.0,-249.0,-54.0,417.0,24.0,39.0,0
-11.0,-245.0,-55.0,400.0,34.0,35.0,0
-11.0,-251.0,-54.0,377.0,41.0,36.0,0
-9.0,-248.0,-54.0,357.0,51.0,31.0,0
-11.0,-249.0,-51.0,339.0,57.0,32.0,0
-11.0,-247.0,-51.0,322.0,62.0,31.0,0
-12.0,-248.0,-53.0,308.0,67.0,35.0,0
-12.0,-247.0,-54.0,290.0,69.0,35.0,0
-12.0,-246.0,-50.0,268.0,73.0,38.0,0
-12.0,-247.0,-49.0,247.0,77.0,38.0,0
-15.0,-246.0,-48.0,228.0,78.0,41.0,0
-15.0,-246.0,-46.0,212.0,78.0,38.0,0
-15.0,-250.0,-42.0,196.0,77.0,37.0,0
-15.0,-252.0,-45.0,183.0,78.0,31.0,0
-13.0,-253.0,-46.0,169.0,79.0,28.0,0
-19.0,-248.0,-45.0,157.0,81.0,23.0,0
-17.0,-250.0,-49.0,146.0,81.0,22.0,0
-12.0,-250.0,-50.0,132.0,81.0,13.0,0
-12.0,-246.0,-54.0,112.0,82.0,9.0,0
-3.0,-251.0,-37.0,96.0,82.0,2.0,0
-8.0,-251.0,-51.0,91.0,79.0,2.0,0
-8.0,-249.0,-52.0,90.0,76.0,-2.0,0
-5.0,-252.0,-43.0,93.0,74.0,0.0,0
-2.0,-254.0,-45.0,103.0,71.0,-1.0,0
-2.0,-254.0,-39.0,110.0,67.0,1.0,0
-1.0,-256.0,-43.0,120.0,67.0,-1.0,0
-3.0,-255.0,-41.0,129.0,71.0,3.0,0
-3.0,-254.0,-39.0,137.0,75.0,0.0,0
1.0,-253.0,-41.0,144.0,78.0,3.0,0
0.0,-257.0,-39.0,146.0,79.0,3.0,0
1.0,-253.0,-41.0,149.0,79.0,8.0,0
-5.0,-253.0,-43.0,149.0,80.0,9.0,0
-4.0,-255.0,-38.0,151.0,77.0,16.0,0
-3.0,-256.0,-34.0,150.0,74.0,12.0,0
-8.0,-256.0,-34.0,150.0,71.0,12.0,0
-3.0,-254.0,-40.0,150.0,70.0,10.0,0
-5.0,-257.0,-34.0,151.0,72.0,13.0,0
-7.0,-253.0,-39.0,149.0,73.0,11.0,0
-6.0,-254.0,-36.0,144.0,73.0,13.0,0
-5.0,-252.0,-36.0,137.0,74.0,12.0,0
-11.0,-250.0,-37.0,130.0,71.0,14.0,0
-10.0,-252.0,-34.0,122.0,68.0,12.0,0
-9.0,-255.0,-29.0,114.0,65.0,14.0,0
-10.0,-254.0,-29.0,104.0,62.0,7.0,0
-8.0,-250.0,-27.0,93.0,62.0,8.0,0
-7.0,-254.0,-32.0,81.0,65.0,2.0,0
-6.0,-256.0,-37.0,69.0,67.0,2.0,0
-8.0,-250.0,-34.0,60.0,69.0,-2.0,0
-8.0,-251.0,-37.0,52.0,68.0,-3.0,0
-9.0,-252.0,-38.0,45.0,64.0,-6.0,0
-5.0,-251.0,-41.0,40.0,60.0,-5.0,0
-7.0,-250.0,-37.0,37.0,57.0,-7.0,0
-6.0,-251.0,-39.0,33.0,54.0,-3.0,0
-7.0,-251.0,-34.0,31.0,50.0,-3.0,0
-8.0,-253.0,-40.0,26.0,48.0,-1.0,0
-8.0,-251.0,-38.0,22.0,48.0,-5.0,0
-9.0,-252.0,-36.0,18.0,47.0,-3.0,0
-8.0,-251.0,-37.0,11.0,48.0,-6.0,0
-11.0,-250.0,-36.0,2.0,46.0,-6.0,0
-9.0,-250.0,-35.0,-10.0,44.0,-10.0,0
-9.0,-251.0,-38.0,-20.0,42.0,-11.0,0
-10.0,-251.0,-35.0,-30.0,42.0,-15.0,0
-11.0,-253.0,-37.0,-40.0,42.0,-12.0,0
-11.0,-253.0,-37.0,-45.0,41.0,-13.0,0
-12.0,-254.0,-35.0,-48.0,39.0,-9.0,0
-9.0,-253.0,-39.0,-48.0,38.0,-10.0,0
-10.0,-249.0,-35.0,-45.0,33.0,-9.0,0
-7.0,-253.0,-35.0,-45.0,27.0,-7.0,0
-10.0,-253.0,-38.0,-45.0,25.0,-2.0,0
-9.0,-252.0,-39.0,-48.0,22.0,-1.0,0
-7.0,-256.0,-41.0,-47.0,16.0,4.0,0
-7.0,-256.0,-39.0,-43.0,10.0,7.0,0
-1.0,-257.0,-39.0,-34.0,2.0,13.0,0
-6.0,-259.0,-36.0,-22.0,-4.0,14.0,0
-6.0,-256.0,-37.0,-8.0,-9.0,17.0,0
-4.0,-256.0,-38.0,3.0,-14.0,17.0,0
-7.0,-255.0,-34.0,9.0,-22.0,17.0,0
-7.0,-258.0,-36.0,9.0,-26.0,11.0,0
-6.0,-258.0,-39.0,7.0,-29.0,10.0,0
-9.0,-259.0,-36.0,6.0,-31.0,6.0,0
-8.0,-254.0,-36.0,4.0,-33.0,5.0,0
-7.0,-257.0,-35.0,4.0,-37.0,2.0,0
-6.0,-255.0,-44.0,4.0,-40.0,0.0,0
-4.0,-252.0,-37.0,6.0,-39.0,0.0,0
-3.0,-250.0,-39.0,4.0,-38.0,-2.0,0
-7.0,-251.0,-39.0,-2.0,-37.0,-5.0,0
-7.0,-251.0,-37.0,-10.0,-35.0,-5.0,0
-7.0,-249.0,-41.0,-21.0,-36.0,-7.0,0
-8.0,-248.0,-42.0,-35.0,-35.0,-7.0,0
-5.0,-249.0,-37.0,-49.0,-31.0,-7.0,0
-5.0,-252.0,-40.0,-61.0,-29.0,-3.0,0
-7.0,-250.0,-39.0,-71.0,-26.0,-1.0,0
-7.0,-252.0,-37.0,-79.0,-25.0,1.0,0
-7.0,-255.0,-45.0,-87.0,-25.0,2.0,0
-5.0,-257.0,-41.0,-94.0,-25.0,4.0,0
-2.0,-253.0,-45.0,-95.0,-26.0,5.0,0
-5.0,-253.0,-44.0,-89.0,-23.0,8.0,0
-4.0,-258.0,-47.0,-81.0,-25.0,8.0,0
-3.0,-257.0,-49.0,-72.0,-26.0,9.0,0
-1.0,-260.0,-46.0,-65.0,-27.0,9.0,0
-3.0,-257.0,-48.0,-59.0,-29.0,8.0,0
-5.0,-260.0,-52.0,-55.0,-33.0,11.0,0
-2.0,-258.0,-49.0,-50.0,-35.0,11.0,0
-6.0,-255.0,-50.0,-38.0,-36.0,11.0,0
-4.0,-256.0,-47.0,-25.0,-32.0,10.0,0
0.0,-258.0,-50.0,-8.0,-30.0,7.0,0
1.0,-255.0,-48.0,6.0,-21.0,2.0,0
0.0,-253.0,-44.0,14.0,-13.0,-3.0,0
1.0,-251.0,-44.0,14.0,-4.0,-7.0,0
1.0,-253.0,-39.0,8.0,7.0,-8.0,0
2.0,-250.0,-42.0,-5.0,16.0,-9.0,0
2.0,-252.0,-38.0,-21.0,27.0,-7.0,0
4.0,-251.0,-35.0,-40.0,38.0,-5.0,0
4.0,-252.0,-35.0,-58.0,44.0,-1.0,0
1.0,-252.0,-38.0,-68.0,49.0,4.0,0
1.0,-255.0,-38.0,-76.0,51.0,9.0,0
-3.0,-250.0,-39.0,-80.0,52.0,12.0,0
-5.0,-255.0,-40.0,-79.0,53.0,16.0,0
-3.0,-255.0,-47.0,-76.0,53.0,17.0,0
-5.0,-254.0,-45.0,-70.0,56.0,18.0,0
-7.0,-255.0,-41.0,-67.0,63.0,16.0,0
-6.0,-255.0,-42.0,-61.0,68.0,15.0,0
-7.0,-254.0,-45.0,-60.0,76.0,13.0,0
-9.0,-253.0,-45.0,-58.0,80.0,12.0,0
-5.0,-256.0,-46.0,-56.0,85.0,9.0,0
-6.0,-253.0,-43.0,-53.0,88.0,8.0,0
-7.0,-251.0,-45.0,-50.0,87.0,5.0,0
-8.0,-258.0,-43.0,-45.0,85.0,4.0,0
-9.0,-254.0,-40.0,-40.0,82.0,3.0,0
-6.0,-259.0,-42.0,-35.0,78.0,4.0,0
-9.0,-258.0,-42.0,-30.0,74.0,5.0,0
-11.0,-258.0,-44.0,-30.0,71.0,4.0,0
-12.0,-256.0,-44.0,-28.0,66.0,2.0,0
-12.0,-260.0,-42.0,-25.0,61.0,2.0,0
-11.0,-259.0,-45.0,-21.0,57.0,1.0,0
-12.0,-255.0,-44.0,-17.0,56.0,2.0,0
-12.0,-256.0,-43.0,-12.0,52.0,-1.0,0
-12.0,-257.0,-41.0,-9.0,51.0,0.0,0
-11.0,-254.0,-43.0,-3.0,50.0,-3.0,0
-11.0,-252.0,-40.0,1.0,49.0,0.0,0
-10.0,-251.0,-41.0,1.0,50.0,1.0,0
-10.0,-250.0,-45.0,-1.0,52.0,6.0,0
-9.0,-250.0,-39.0,-6.0,55.0,7.0,0
-7.0,-253.0,-36.0,-12.0,59.0,10.0,0
-9.0,-247.0,-39.0,-19.0,63.0,7.0,0
-4.0,-250.0,-41.0,-27.0,68.0,8.0,0
-5.0,-247.0,-38.0,-33.0,74.0,5.0,0
-4.0,-250.0,-38.0,-36.0,80.0,5.0,0
-4.0,-249.0,-39.0,-41.0,87.0,-1.0,0
-3.0,-249.0,-38.0,-43.0,95.0,-2.0,0
-5.0,-251.0,-37.0,-48.0,101.0,-9.0,0
-2.0,-250.0,-38.0,-54.0,108.0,-10.0,0
-4.0,-248.0,-41.0,-60.0,113.0,-17.0,0
-4.0,-250.0,-42.0,-70.0,119.0,-18.0,0
-2.0,-251.0,-43.0,-82.0,123.0,-21.0,0
-8.0,-250.0,-47.0,-90.0,123.0,-22.0,0
-6.0,-254.0,-41.0,-98.0,123.0,-26.0,0
-10.0,-255.0,-42.0,-103.0,121.0,-23.0,0
-9.0,-257.0,-42.0,-102.0,121.0,-25.0,0
-10.0,-254.0,-40.0,-97.0,121.0,-20.0,0
-8.0,-259.0,-45.0,-88.0,119.0,-22.0,0
-10.0,-255.0,-45.0,-78.0,119.0,-18.0,0
-11.0,-257.0,-42.0,-69.0,119.0,-21.0,0
-11.0,-256.0,-42.0,-62.0,118.0,-20.0,0
-11.0,-256.0,-41.0,-58.0,117.0,-23.0,0
-12.0,-256.0,-42.0,-56.0,121.0,-20.0,0
-9.0,-253.0,-42.0,-54.0,122.0,-21.0,0
-12.0,-255.0,-43.0,-53.0,125.0,-15.0,0
-4.0,-252.0,-42.0,-52.0,126.0,-12.0,0
-7.0,-252.0,-37.0,-49.0,126.0,-6.0,0
-6.0,-250.0,-39.0,-50.0,127.0,-1.0,0
-4.0,-251.0,-44.0,-52.0,129.0,6.0,0
-2.0,-251.0,-40.0,-59.0,133.0,10.0,0
0.0,-250.0,-43.0,-64.0,133.0,16.0,0
-4.0,-251.0,-41.0,-69.0,137.0,15.0,0
-1.0,-254.0,-43.0,-77.0,139.0,17.0,0
-3.0,-251.0,-41.0,-83.0,140.0,12.0,0
-1.0,-254.0,-43.0,-85.0,141.0,12.0,0
-3.0,-252.0,-46.0,-87.0,143.0,7.0,0
-4.0,-255.0,-42.0,-86.0,143.0,8.0,0
-7.0,-253.0,-45.0,-84.0,142.0,6.0,0
-5.0,-253.0,-47.0,-82.0,141.0,6.0,0
-8.0,-252.0,-47.0,-82.0,139.0,3.0,0
-6.0,-255.0,-51.0,-81.0,135.0,2.0,0
-8.0,-254.0,-45.0,-79.0,133.0,0.0,0
-7.0,-254.0,-48.0,-79.0,133.0,3.0,0
-5.0,-256.0,-50.0,-76.0,133.0,0.0,0
-8.0,-256.0,-52.0,-75.0,132.0,1.0,0
-6.0,-254.0,-51.0,-71.0,131.0,-1.0,0
-7.0,-257.0,-50.0,-66.0,126.0,-1.0,0
-8.0,-255.0,-50.0,-63.0,122.0,-5.0,0
-11.0,-252.0,-49.0,-62.0,118.0,-4.0,0
-9.0,-256.0,-50.0,-59.0,113.0,-7.0,0
-10.0,-256.0,-50.0,-57.0,108.0,-6.0,0
-10.0,-255.0,-50.0,-55.0,107.0,-9.0,0
-11.0,-254.0,-48.0,-53.0,104.0,-7.0,0
-9.0,-254.0,-53.0,-50.0,99.0,-9.0,0
-10.0,-255.0,-49.0,-49.0,96.0,-5.0,0
-10.0,-253.0,-48.0,-46.0,94.0,-5.0,0
-11.0,-254.0,-49.0,-42.0,92.0,-1.0,0
-8.0,-256.0,-51.0,-38.0,90.0,1.0,0
-9.0,-255.0,-47.0,-35.0,86.0,7.0,0
-7.0,-252.0,-46.0,-35.0,87.0,6.0,0
-7.0,-248.0,-46.0,-34.0,86.0,8.0,0
-9.0,-251.0,-50.0,-37.0,90.0,6.0,0
-10.0,-252.0,-47.0,-40.0,90.0,6.0,0
-8.0,-252.0,-45.0,-45.0,92.0,3.0,0
-7.0,-252.0,-46.0,-48.0,94.0,2.0,0
-9.0,-253.0,-50.0,-51.0,94.0,-1.0,0
-8.0,-253.0,-45.0,-54.0,96.0,-2.0,0
-8.0,-252.0,-47.0,-52.0,96.0,-3.0,0
-11.0,-253.0,-45.0,-50.0,94.0,-2.0,0
-10.0,-252.0,-47.0,-47.0,92.0,-3.0,0
-10.0,-253.0,-49.0,-43.0,89.0,0.0,0
-7.0,-254.0,-48.0,-36.0,85.0,0.0,0
-9.0,-252.0,-47.0,-29.0,80.0,2.0,0
-10.0,-254.0,-49.0,-24.0,75.0,2.0,0
-9.0,-252.0,-47.0,-21.0,71.0,1.0,0
-10.0,-253.0,-46.0,-20.0,67.0,1.0,0
-9.0,-255.0,-46.0,-22.0,64.0,2.0,0
-7.0,-254.0,-44.0,-27.0,62.0,-2.0,0
-10.0,-255.0,-42.0,-28.0,61.0,-4.0,0
-10.0,-254.0,-50.0,-32.0,61.0,-7.0,0
-8.0,-256.0,-45.0,-33.0,60.0,-10.0,0
-7.0,-255.0,-47.0,-32.0,59.0,-12.0,0
-8.0,-258.0,-43.0,-29.0,63.0,-12.0,0
-5.0,-256.0,-50.0,-26.0,65.0,-11.0,0
-6.0,-252.0,-49.0,-24.0,67.0,-9.0,0
-5.0,-255.0,-47.0,-25.0,68.0,-8.0,0
-6.0,-253.0,-48.0,-27.0,70.0,-6.0,0
-6.0,-252.0,-50.0,-29.0,71.0,-3.0,0
-5.0,-252.0,-52.0,-30.0,71.0,-1.0,0
-6.0,-252.0,-47.0,-31.0,75.0,0.0,0
-3.0,-252.0,-50.0,-33.0,76.0,1.0,0
-5.0,-250.0,-50.0,-33.0,79.0,1.0,0
-5.0,-253.0,-50.0,-33.0,82.0,0.0,0
-5.0,-253.0,-49.0,-35.0,86.0,-2.0,0
-4.0,-253.0,-50.0,-36.0,87.0,-1.0,0
-3.0,-254.0,-50.0,-38.0,87.0,-2.0,0
-4.0,-253.0,-50.0,-40.0,88.0,-4.0,0
-9.0,-251.0,-47.0,-42.0,88.0,-2.0,0
-3.0,-253.0,-47.0,-41.0,85.0,-3.0,0
-4.0,-251.0,-52.0,-41.0,83.0,-1.0,0
-2.0,-257.0,-48.0,-44.0,82.0,-2.0,0
-3.0,-251.0,-53.0,-46.0,80.0,1.0,0
-6.0,-253.0,-48.0,-52.0,76.0,0.0,0
-3.0,-256.0,-45.0,-59.0,74.0,1.0,0
-7.0,-255.0,-52.0,-67.0,69.0,3.0,0
-5.0,-257.0,-54.0,-70.0,69.0,4.0,0
-6.0,-253.0,-51.0,-72.0,66.0,4.0,0
-7.0,-256.0,-53.0,-72.0,62.0,5.0,0
-6.0,-255.0,-48.0,-69.0,61.0,1.0,0
-4.0,-254.0,-53.0,-67.0,58.0,0.0,0
-7.0,-254.0,-49.0,-65.0,57.0,-2.0,0
-6.0,-254.0,-50.0,-63.0,57.0,0.0,0
-5.0,-253.0,-52.0,-63.0,57.0,-1.0,0
-7.0,-255.0,-50.0,-62.0,55.0,2.0,0
-5.0,-251.0,-54.0,-66.0,56.0,1.0,0
-4.0,-252.0,-50.0,-68.0,55.0,3.0,0
-5.0,-250.0,-53.0,-73.0,56.0,2.0,0
-5.0,-254.0,-52.0,-75.0,57.0,3.0,0
-6.0,-252.0,-50.0,-78.0,60.0,-2.0,0
-8.0,-250.0,-52.0,-83.0,61.0,-2.0,0
-6.0,-252.0,-52.0,-87.0,63.0,-6.0,0
-4.0,-253.0,-49.0,-94.0,67.0,-9.0,0
-4.0,-250.0,-55.0,-100.0,70.0,-12.0,0
-5.0,-251.0,-52.0,-108.0,70.0,-12.0,0
-9.0,-249.0,-57.0,-116.0,72.0,-16.0,0
-10.0,-250.0,-51.0,-120.0,73.0,-13.0,0
-5.0,-253.0,-54.0,-119.0,71.0,-13.0,0
-8.0,-254.0,-48.0,-117.0,68.0,-10.0,0
-5.0,-255.0,-50.0,-111.0,66.0,-9.0,0
-9.0,-251.0,-49.0,-103.0,63.0,-1.0,0
-9.0,-256.0,-54.0,-95.0,64.0,0.0,0
-10.0,-254.0,-51.0,-93.0,62.0,3.0,0
-11.0,-255.0,-49.0,-91.0,60.0,3.0,0
-12.0,-253.0,-50.0,-88.0,58.0,6.0,0
-11.0,-256.0,-51.0,-81.0,55.0,1.0,0
-12.0,-256.0,-55.0,-72.0,52.0,1.0,0
-9.0,-258.0,-52.0,-58.0,52.0,-3.0,0
-7.0,-259.0,-54.0,-45.0,50.0,-2.0,0
-9.0,-255.0,-54.0,-32.0,48.0,-6.0,0
-7.0,-255.0,-51.0,-21.0,47.0,-6.0,0
-5.0,-256.0,-52.0,-14.0,47.0,-11.0,0
-6.0,-254.0,-54.0,-11.0,49.0,-8.0,0
-5.0,-254.0,-54.0,-11.0,50.0,-11.0,0
-6.0,-254.0,-53.0,-11.0,52.0,-8.0,0
-4.0,-252.0,-55.0,-11.0,53.0,-10.0,0
-4.0,-252.0,-56.0,-10.0,53.0,-7.0,0
-3.0,-255.0,-56.0,-10.0,52.0,-9.0,0
-4.0,-249.0,-52.0,-9.0,54.0,-6.0,0
-3.0,-252.0,-55.0,-10.0,51.0,-9.0,0
-4.0,-248.0,-55.0,-12.0,51.0,-6.0,0
-5.0,-250.0,-53.0,-16.0,50.0,-8.0,0
-6.0,-251.0,-53.0,-23.0,51.0,-5.0,0
-7.0,-250.0,-49.0,-28.0,49.0,-8.0,0
-7.0,-247.0,-53.0,-32.0,50.0,-4.0,0
-7.0,-250.0,-54.0,-37.0,49.0,-4.0,0
-4.0,-254.0,-50.0,-40.0,48.0,0.0,0
-10.0,-251.0,-53.0,-41.0,47.0,-1.0,0
-6.0,-249.0,-50.0,-44.0,46.0,2.0,0
-6.0,-249.0,-49.0,-48.0,44.0,-1.0,0
-8.0,-249.0,-50.0,-54.0,44.0,0.0,0
-5.0,-250.0,-56.0,-63.0,44.0,-4.0,0
-7.0,-251.0,-54.0,-74.0,45.0,-2.0,0
-5.0,-252.0,-56.0,-85.0,43.0,-6.0,0
-9.0,-249.0,-56.0,-95.0,42.0,-6.0,0
-7.0,-254.0,-53.0,-107.0,45.0,-9.0,0
-7.0,-249.0,-54.0,-114.0,45.0,-6.0,0
-6.0,-252.0,-54.0,-126.0,47.0,-9.0,0
-7.0,-252.0,-55.0,-136.0,47.0,-7.0,0
-6.0,-252.0,-57.0,-144.0,48.0,-7.0,0
-5.0,-253.0,-55.0,-152.0,47.0,-4.0,0
-5.0,-253.0,-54.0,-159.0,47.0,-4.0,0
-3.0,-254.0,-55.0,-162.0,47.0,-1.0,0
-8.0,-253.0,-56.0,-160.0,47.0,-6.0,0
-3.0,-253.0,-55.0,-155.0,48.0,-2.0,0
-6.0,-253.0,-59.0,-149.0,49.0,-4.0,0
-5.0,-253.0,-56.0,-142.0,51.0,-2.0,0
-5.0,-255.0,-57.0,-135.0,53.0,-4.0,0
-6.0,-255.0,-59.0,-129.0,53.0,0.0,0
-9.0,-251.0,-57.0,-123.0,55.0,0.0,0
-7.0,-253.0,-58.0,-119.0,58.0,2.0,0
-4.0,-250.0,-55.0,-117.0,60.0,3.0,0
-11.0,-252.0,-57.0,-116.0,60.0,3.0,0
-9.0,-249.0,-54.0,-117.0,61.0,1.0,0
-9.0,-248.0,-56.0,-120.0,65.0,1.0,0
-11.0,-248.0,-53.0,-127.0,68.0,-3.0,0
-9.0,-249.0,-54.0,-135.0,69.0,-3.0,0
-10.0,-249.0,-53.0,-147.0,69.0,-7.0,0
-9.0,-248.0,-56.0,-156.0,67.0,-7.0,0
-8.0,-249.0,-54.0,-168.0,67.0,-11.0,0
-8.0,-249.0,-56.0,-176.0,68.0,-10.0,0
-9.0,-247.0,-51.0,-186.0,66.0,-9.0,0
-9.0,-243.0,-54.0,-197.0,63.0,-8.0,0
-7.0,-245.0,-55.0,-211.0,62.0,-8.0,0
-6.0,-249.0,-55.0,-224.0,59.0,-6.0,0
-8.0,-248.0,-58.0,-238.0,59.0,-6.0,0
-6.0,-252.0,-54.0,-248.0,61.0,-4.0,0
-8.0,-251.0,-56.0,-255.0,63.0,-4.0,0
-7.0,-252.0,-57.0,-257.0,65.0,-4.0,0
-7.0,-253.0,-56.0,-260.0,69.0,-3.0,0
-4.0,-253.0,-59.0,-254.0,70.0,-1.0,0
-5.0,-254.0,-58.0,-251.0,70.0,0.0,0
-3.0,-251.0,-60.0,-247.0,67.0,1.0,0
-4.0,-254.0,-64.0,-240.0,65.0,1.0,0
-6.0,-253.0,-63.0,-231.0,62.0,4.0,0
-4.0,-254.0,-63.0,-220.0,60.0,3.0,0
-3.0,-256.0,-62.0,-208.0,56.0,4.0,0
-4.0,-253.0,-63.0,-196.0,54.0,4.0,0
-7.0,-252.0,-59.0,-185.0,55.0,3.0,0
-4.0,-254.0,-67.0,-178.0,57.0,2.0,0
-6.0,-251.0,-65.0,-173.0,59.0,3.0,0
-7.0,-250.0,-65.0,-171.0,59.0,4.0,0
-5.0,-247.0,-67.0,-170.0,63.0,5.0,0
-6.0,-247.0,-71.0,-170.0,65.0,6.0,0
-5.0,-247.0,-71.0,-174.0,68.0,7.0,0
-4.0,-248.0,-69.0,-177.0,69.0,8.0,0
-5.0,-247.0,-73.0,-179.0,69.0,10.0,0
-1.0,-246.0,-71.0,-180.0,70.0,11.0,0
-4.0,-249.0,-66.0,-182.0,70.0,11.0,0
-3.0,-248.0,-67.0,-182.0,68.0,10.0,0
-2.0,-253.0,-71.0,-181.0,66.0,8.0,0
-6.0,-252.0,-72.0,-172.0,64.0,5.0,0
-5.0,-255.0,-75.0,-153.0,63.0,3.0,0
-5.0,-256.0,-78.0,-125.0,60.0,2.0,0
-3.0,-255.0,-76.0,-92.0,55.0,0.0,0
-6.0,-254.0,-78.0,-56.0,53.0,2.0,0
-4.0,-253.0,-76.0,-25.0,52.0,3.0,0
-7.0,-250.0,-77.0,-1.0,52.0,4.0,0
-9.0,-250.0,-75.0,14.0,53.0,5.0,0
-9.0,-248.0,-76.0,18.0,54.0,8.0,0
-10.0,-251.0,-70.0,18.0,54.0,6.0,0
-8.0,-248.0,-68.0,13.0,53.0,6.0,0
-7.0,-249.0,-68.0,11.0,54.0,3.0,0
-5.0,-253.0,-63.0,10.0,56.0,3.0,0
-7.0,-248.0,-67.0,9.0,60.0,-1.0,0
-10.0,-246.0,-64.0,7.0,59.0,-1.0,0
-9.0,-246.0,-66.0,7.0,61.0,-3.0,0
-8.0,-249.0,-64.0,8.0,63.0,-3.0,0
-6.0,-251.0,-65.0,9.0,62.0,-1.0,0
-7.0,-249.0,-65.0,12.0,61.0,2.0,0
-7.0,-248.0,-65.0,14.0,62.0,1.0,0
-8.0,-250.0,-66.0,17.0,62.0,3.0,0
-7.0,-249.0,-64.0,18.0,62.0,1.0,0
-5.0,-251.0,-65.0,19.0,60.0,4.0,0
-5.0,-251.0,-64.0,18.0,62.0,1.0,0
-3.0,-250.0,-67.0,18.0,59.0,1.0,0
-6.0,-254.0,-66.0,19.0,60.0,1.0,0
-6.0,-252.0,-66.0,22.0,59.0,2.0,0
-7.0,-250.0,-67.0,26.0,59.0,2.0,0
-5.0,-254.0,-65.0,33.0,60.0,5.0,0
-8.0,-249.0,-67.0,37.0,61.0,4.0,0
-8.0,-254.0,-71.0,41.0,63.0,7.0,0
-6.0,-250.0,-68.0,46.0,62.0,7.0,0
-4.0,-253.0,-64.0,48.0,60.0,10.0,0
-6.0,-251.0,-67.0,52.0,60.0,10.0,0
-7.0,-250.0,-63.0,51.0,58.0,13.0,0
-6.0,-248.0,-67.0,52.0,57.0,10.0,0
-8.0,-248.0,-66.0,50.0,58.0,11.0,0
-7.0,-248.0,-64.0,47.0,56.0,9.0,0
-7.0,-247.0,-63.0,44.0,54.0,11.0,0
-8.0,-247.0,-68.0,39.0,53.0,7.0,0
-4.0,-251.0,-64.0,33.0,55.0,8.0,0
-6.0,-247.0,-61.0,27.0,56.0,4.0,0
-8.0,-245.0,-63.0,24.0,56.0,6.0,0
-6.0,-248.0,-66.0,21.0,58.0,3.0,0
-5.0,-249.0,-61.0,19.0,59.0,5.0,0
-7.0,-249.0,-61.0,18.0,60.0,3.0,0
-9.0,-249.0,-63.0,17.0,62.0,6.0,0
-8.0,-250.0,-64.0,14.0,63.0,2.0,0
-1.0,-252.0,-63.0,11.0,62.0,3.0,0
-6.0,-252.0,-65.0,10.0,62.0,1.0,0
-8.0,-250.0,-60.0,6.0,61.0,5.0,0
-7.0,-253.0,-61.0,4.0,63.0,2.0,0
-7.0,-252.0,-62.0,3.0,67.0,6.0,0
-9.0,-251.0,-67.0,4.0,66.0,4.0,0
-10.0,-251.0,-63.0,8.0,64.0,5.0,0
-4.0,-252.0,-62.0,11.0,62.0,2.0,0
-9.0,-248.0,-64.0,14.0,61.0,3.0,0
-9.0,-248.0,-66.0,16.0,62.0,-1.0,0
-7.0,-250.0,-62.0,16.0,61.0,0.0,0
-9.0,-249.0,-64.0,14.0,60.0,-2.0,0
-8.0,-248.0,-67.0,10.0,60.0,0.0,0
-9.0,-249.0,-65.0,9.0,61.0,-3.0,0
-6.0,-248.0,-64.0,8.0,65.0,-1.0,0
-8.0,-250.0,-65.0,4.0,65.0,-2.0,0
-7.0,-252.0,-63.0,1.0,66.0,1.0,0
-8.0,-250.0,-62.0,2.0,64.0,-2.0,0
-9.0,-250.0,-65.0,4.0,65.0,-2.0,0
-9.0,-246.0,-65.0,5.0,66.0,-5.0,0
-9.0,-250.0,-64.0,6.0,67.0,-4.0,0
-5.0,-250.0,-64.0,5.0,65.0,-9.0,0
-5.0,-252.0,-64.0,4.0,68.0,-9.0,0
-7.0,-251.0,-64.0,-2.0,70.0,-9.0,0
-7.0,-250.0,-62.0,-7.0,72.0,-6.0,0
-6.0,-249.0,-64.0,-12.0,76.0,-6.0,0
-7.0,-251.0,-65.0,-15.0,76.0,0.0,0
-6.0,-248.0,-62.0,-17.0,79.0,-3.0,0
-7.0,-249.0,-61.0,-20.0,76.0,2.0,0
-8.0,-252.0,-64.0,-20.0,76.0,-1.0,0
-8.0,-251.0,-60.0,-22.0,74.0,1.0,0
-6.0,-251.0,-64.0,-25.0,72.0,-2.0,0
-7.0,-250.0,-59.0,-29.0,72.0,0.0,0
-9.0,-251.0,-63.0,-32.0,73.0,-2.0,0
-9.0,-252.0,-60.0,-39.0,71.0,-2.0,0
-9.0,-253.0,-62.0,-44.0,74.0,-6.0,0
-6.0,-251.0,-64.0,-46.0,74.0,-3.0,0
-9.0,-251.0,-65.0,-46.0,73.0,-5.0,0
-8.0,-250.0,-68.0,-44.0,73.0,-3.0,0
-6.0,-252.0,-67.0,-38.0,73.0,-3.0,0
-7.0,-251.0,-68.0,-33.0,75.0,2.0,0
-10.0,-250.0,-64.0,-26.0,73.0,2.0,0
-10.0,-250.0,-68.0,-18.0,70.0,6.0,0
-8.0,-252.0,-66.0,-9.0,67.0,5.0,0
-8.0,-250.0,-68.0,-3.0,67.0,6.0,0
-10.0,-249.0,-67.0,5.0,67.0,5.0,0
-9.0,-253.0,-64.0,8.0,66.0,5.0,0
-9.0,-251.0,-68.0,10.0,66.0,2.0,0
-7.0,-251.0,-62.0,11.0,67.0,1.0,0
-7.0,-253.0,-64.0,12.0,67.0,-3.0,0
-2.0,-255.0,-65.0,16.0,67.0,-3.0,0
-8.0,-251.0,-60.0,17.0,68.0,-6.0,0
-6.0,-253.0,-63.0,20.0,67.0,-5.0,0
-4.0,-252.0,-67.0,22.0,68.0,-6.0,0
-4.0,-247.0,-63.0,21.0,67.0,-4.0,0
-3.0,-251.0,-66.0,19.0,67.0,-4.0,0
-3.0,-250.0,-65.0,15.0,66.0,-1.0,0
-7.0,-248.0,-60.0,8.0,65.0,-2.0,0
-5.0,-249.0,-63.0,2.0,63.0,-1.0,0
-6.0,-250.0,-60.0,-1.0,58.0,-1.0,0
-7.0,-250.0,-60.0,-5.0,56.0,-1.0,0
-8.0,-249.0,-62.0,-5.0,56.0,0.0,0
-7.0,-250.0,-61.0,-8.0,56.0,1.0,0
-7.0,-248.0,-63.0,-9.0,57.0,0.0,0
-6.0,-250.0,-60.0,-14.0,56.0,0.0,0
-11.0,-246.0,-59.0,-21.0,57.0,-1.0,0
-7.0,-251.0,-63.0,-28.0,55.0,1.0,0
-9.0,-246.0,-60.0,-33.0,55.0,-1.0,0
-7.0,-250.0,-64.0,-36.0,53.0,-2.0,0
-9.0,-251.0,-61.0,-38.0,52.0,-4.0,0
-6.0,-250.0,-63.0,-38.0,55.0,-5.0,0
-10.0,-248.0,-63.0,-36.0,56.0,-5.0,0
-10.0,-250.0,-62.0,-34.0,57.0,-6.0,0
-9.0,-249.0,-62.0,-33.0,61.0,-5.0,0
-9.0,-252.0,-62.0,-32.0,62.0,-4.0,0
-6.0,-250.0,-57.0,-31.0,66.0,-5.0,0
-11.0,-253.0,-62.0,-31.0,69.0,-4.0,0
-10.0,-251.0,-64.0,-31.0,69.0,-3.0,0
-7.0,-254.0,-63.0,-30.0,71.0,-3.0,0
-5.0,-253.0,-63.0,-28.0,69.0,-2.0,0
-9.0,-252.0,-64.0,-24.0,66.0,-3.0,0
-7.0,-253.0,-64.0,-17.0,66.0,-2.0,0
-7.0,-249.0,-63.0,-15.0,63.0,-1.0,0
-6.0,-250.0,-67.0,-14.0,63.0,0.0,0
-5.0,-249.0,-64.0,-15.0,63.0,0.0,0
-10.0,-247.0,-63.0,-15.0,62.0,0.0,0
-9.0,-248.0,-67.0,-22.0,63.0,0.0,0
-11.0,-248.0,-65.0,-24.0,62.0,2.0,0
-7.0,-248.0,-64.0,-26.0,62.0,0.0,0
-8.0,-251.0,-62.0,-27.0,62.0,-1.0,0
-8.0,-248.0,-66.0,-26.0,61.0,-4.0,0
-6.0,-248.0,-67.0,-27.0,58.0,-6.0,0
-10.0,-247.0,-65.0,-29.0,57.0,-9.0,0
-9.0,-251.0,-66.0,-29.0,57.0,-10.0,0
-7.0,-249.0,-63.0,-32.0,57.0,-12.0,0
-6.0,-249.0,-66.0,-33.0,59.0,-11.0,0
-6.0,-247.0,-67.0,-34.0,61.0,-12.0,0
-8.0,-246.0,-67.0,-34.0,64.0,-10.0,0
-6.0,-246.0,-64.0,-36.0,64.0,-9.0,0
-6.0,-249.0,-66.0,-39.0,63.0,-6.0,0
-6.0,-248.0,-67.0,-41.0,64.0,-8.0,0
-7.0,-250.0,-65.0,-41.0,63.0,-6.0,0
-7.0,-253.0,-68.0,-39.0,63.0,-7.0,0
-6.0,-252.0,-67.0,-36.0,63.0,-5.0,0
-7.0,-254.0,-67.0,-34.0,63.0,-8.0,0
-9.0,-252.0,-66.0,-28.0,62.0,-6.0,0
-7.0,-251.0,-67.0,-24.0,63.0,-6.0,0
-6.0,-251.0,-66.0,-19.0,62.0,-3.0,0
-9.0,-252.0,-70.0,-18.0,64.0,-3.0,0
-9.0,-250.0,-68.0,-16.0,62.0,2.0,0
-8.0,-248.0,-64.0,-15.0,61.0,1.0,0
-6.0,-250.0,-68.0,-15.0,58.0,3.0,0
-7.0,-250.0,-65.0,-14.0,57.0,1.0,0
-8.0,-248.0,-66.0,-12.0,53.0,3.0,0
-5.0,-249.0,-66.0,-9.0,51.0,2.0,0
-6.0,-250.0,-67.0,-6.0,51.0,4.0,0
-5.0,-249.0,-65.0,-4.0,51.0,2.0,0
-8.0,-249.0,-65.0,-2.0,52.0,4.0,0
-3.0,-251.0,-62.0,-1.0,54.0,1.0,0
-7.0,-248.0,-64.0,0.0,54.0,3.0,0
-6.0,-247.0,-64.0,0.0,55.0,-1.0,0
-2.0,-250.0,-65.0,-3.0,57.0,1.0,0
-4.0,-253.0,-67.0,-5.0,57.0,-1.0,0
-4.0,-251.0,-65.0,-11.0,58.0,4.0,0
-5.0,-250.0,-62.0,-15.0,61.0,1.0,0
-6.0,-251.0,-64.0,-16.0,61.0,3.0,0
-7.0,-252.0,-65.0,-19.0,61.0,0.0,0
-6.0,-250.0,-67.0,-20.0,62.0,2.0,0
-6.0,-250.0,-66.0,-19.0,62.0,1.0,0
-5.0,-253.0,-67.0,-20.0,64.0,2.0,0
-8.0,-254.0,-67.0,-20.0,65.0,0.0,0
-10.0,-250.0,-69.0,-19.0,67.0,3.0,0
-8.0,-247.0,-65.0,-20.0,67.0,1.0,0
-8.0,-250.0,-69.0,-19.0,68.0,4.0,0
-6.0,-251.0,-66.0,-16.0,66.0,4.0,0
-7.0,-250.0,-66.0,-12.0,65.0,7.0,0
-8.0,-250.0,-64.0,-9.0,64.0,6.0,0
-9.0,-249.0,-65.0,-5.0,62.0,8.0,0
-6.0,-250.0,-64.0,0.0,60.0,6.0,0
-3.0,-248.0,-69.0,4.0,58.0,8.0,0
-6.0,-251.0,-62.0,8.0,56.0,6.0,0
-9.0,-249.0,-61.0,11.0,56.0,9.0,0
-6.0,-249.0,-65.0,11.0,56.0,5.0,0
-6.0,-249.0,-63.0,12.0,56.0,5.0,0
-5.0,-247.0,-68.0,8.0,55.0,3.0,0
-9.0,-251.0,-65.0,5.0,58.0,4.0,0
-8.0,-250.0,-62.0,5.0,59.0,1.0,0
-8.0,-249.0,-64.0,-2.0,59.0,5.0,0
-9.0,-250.0,-66.0,-5.0,60.0,1.0,0
-8.0,-250.0,-62.0,-6.0,61.0,5.0,0
-6.0,-250.0,-65.0,-9.0,62.0,4.0,0
-7.0,-250.0,-63.0,-9.0,62.0,5.0,0
-7.0,-249.0,-60.0,-7.0,62.0,2.0,0
-7.0,-252.0,-61.0,-4.0,64.0,1.0,0
-4.0,-250.0,-65.0,2.0,67.0,-3.0,0
-7.0,-255.0,-65.0,4.0,69.0,-2.0,0
-7.0,-251.0,-65.0,5.0,69.0,-6.0,0
-9.0,-250.0,-60.0,6.0,70.0,-2.0,0
-7.0,-250.0,-64.0,4.0,68.0,-3.0,0
-9.0,-250.0,-63.0,1.0,69.0,-2.0,0
-9.0,-248.0,-66.0,-1.0,70.0,-3.0,0
-10.0,-250.0,-63.0,-3.0,68.0,1.0,0
-7.0,-254.0,-64.0,-5.0,66.0,0.0,0
-8.0,-251.0,-64.0,-6.0,64.0,2.0,0
-8.0,-249.0,-63.0,-7.0,62.0,0.0,0
-6.0,-246.0,-62.0,-6.0,61.0,2.0,0
-7.0,-246.0,-65.0,-6.0,61.0,-1.0,0
-9.0,-250.0,-64.0,-6.0,60.0,-1.0,0
-7.0,-248.0,-66.0,-5.0,60.0,-3.0,0
-9.0,-249.0,-66.0,-6.0,59.0,-4.0,0
-9.0,-250.0,-66.0,-10.0,61.0,-6.0,0
-5.0,-254.0,-64.0,-14.0,61.0,-6.0,0
-9.0,-250.0,-61.0,-15.0,64.0,-9.0,0
-8.0,-250.0,-64.0,-18.0,65.0,-7.0,0
-4.0,-249.0,-66.0,-16.0,67.0,-9.0,0
-6.0,-250.0,-62.0,-16.0,69.0,-7.0,0
-5.0,-250.0,-63.0,-12.0,69.0,-7.0,0
-6.0,-248.0,-63.0,-12.0,70.0,-3.0,0
-6.0,-249.0,-61.0,-11.0,70.0,-4.0,0
-5.0,-251.0,-64.0,-13.0,69.0,-1.0,0
-8.0,-251.0,-62.0,-13.0,68.0,-2.0,0
-7.0,-246.0,-61.0,-13.0,67.0,0.0,0
-7.0,-250.0,-64.0,-14.0,64.0,-1.0,0
-6.0,-247.0,-61.0,-14.0,65.0,0.0,0
-7.0,-253.0,-64.0,-15.0,64.0,-4.0,0
-7.0,-248.0,-63.0,-14.0,61.0,-4.0,0
-9.0,-248.0,-66.0,-16.0,62.0,-7.0,0
-9.0,-249.0,-66.0,-17.0,62.0,-8.0,0
-8.0,-251.0,-65.0,-19.0,64.0,-9.0,0
-8.0,-252.0,-65.0,-20.0,65.0,-10.0,0
-7.0,-249.0,-65.0,-21.0,64.0,-10.0,0
-8.0,-252.0,-65.0,-21.0,64.0,-9.0,0
-5.0,-250.0,-66.0,-21.0,65.0,-10.0,0
-4.0,-250.0,-65.0,-21.0,63.0,-7.0,0
-9.0,-250.0,-64.0,-22.0,64.0,-4.0,0
-7.0,-248.0,-65.0,-21.0,64.0,-3.0,0
-8.0,-251.0,-63.0,-19.0,65.0,-4.0,0
-15.0,-254.0,-50.0,-18.0,64.0,-2.0,0
-9.0,-253.0,-68.0,-15.0,63.0,-4.0,0
-6.0,-248.0,-60.0,-14.0,62.0,-2.0,0
-6.0,-240.0,-75.0,-14.0,64.0,-5.0,0
-3.0,-251.0,-76.0,-12.0,64.0,-5.0,0
-7.0,-249.0,-68.0,-11.0,65.0,-5.0,0
-8.0,-249.0,-69.0,-11.0,63.0,-4.0,0
-7.0,-250.0,-63.0,-12.0,64.0,-4.0,0
-9.0,-248.0,-62.0,-10.0,64.0,-4.0,0
-6.0,-248.0,-62.0,-10.0,64.0,-4.0,0
-6.0,-252.0,-63.0,-9.0,63.0,-4.0,0
-7.0,-251.0,-65.0,-10.0,63.0,-5.0,0
-7.0,-249.0,-65.0,-10.0,61.0,-5.0,0
-6.0,-249.0,-63.0,-13.0,61.0,-6.0,0
-4.0,-248.0,-63.0,-13.0,59.0,-5.0,0
-8.0,-250.0,-67.0,-10.0,59.0,-6.0,0
-5.0,-250.0,-66.0,-8.0,59.0,-6.0,0
-7.0,-249.0,-65.0,-5.0,61.0,-6.0,0
-9.0,-247.0,-66.0,-2.0,60.0,-6.0,0
-8.0,-249.0,-64.0,0.0,58.0,-5.0,0
-7.0,-249.0,-66.0,2.0,58.0,-3.0,0
-6.0,-251.0,-66.0,2.0,59.0,-3.0,0
-6.0,-247.0,-64.0,2.0,57.0,-2.0,0
-4.0,-251.0,-63.0,2.0,55.0,-1.0,0
-7.0,-250.0,-63.0,2.0,55.0,-2.0,0
-6.0,-250.0,-63.0,2.0,56.0,0.0,0
-8.0,-250.0,-65.0,2.0,56.0,-2.0,0
-8.0,-252.0,-63.0,3.0,55.0,-2.0,0
-7.0,-253.0,-63.0,5.0,53.0,-3.0,0
-6.0,-253.0,-66.0,5.0,52.0,-2.0,0
-7.0,-251.0,-65.0,4.0,53.0,-3.0,0
-8.0,-251.0,-62.0,4.0,52.0,-4.0,0
-6.0,-250.0,-60.0,2.0,53.0,-4.0,0
-9.0,-253.0,-63.0,4.0,54.0,-3.0,0
-6.0,-250.0,-65.0,4.0,52.0,-4.0,0
-7.0,-248.0,-67.0,6.0,53.0,-2.0,0
-6.0,-250.0,-66.0,5.0,54.0,-2.0,0
-8.0,-249.0,-62.0,7.0,54.0,0.0,0
-7.0,-249.0,-60.0,9.0,56.0,0.0,0
-6.0,-249.0,-63.0,10.0,57.0,3.0,0
-6.0,-246.0,-64.0,9.0,57.0,3.0,0
-4.0,-250.0,-70.0,9.0,58.0,4.0,0
-6.0,-248.0,-64.0,9.0,60.0,3.0,0
-9.0,-252.0,-64.0,7.0,57.0,7.0,0
-6.0,-250.0,-62.0,5.0,57.0,5.0,0
-9.0,-247.0,-63.0,4.0,57.0,5.0,0
-5.0,-254.0,-58.0,3.0,57.0,4.0,0
-5.0,-254.0,-67.0,0.0,59.0,2.0,0
-7.0,-250.0,-65.0,-4.0,60.0,0.0,0
-5.0,-253.0,-68.0,-7.0,59.0,1.0,0
-8.0,-250.0,-62.0,-8.0,58.0,-4.0,0
-6.0,-248.0,-61.0,-11.0,58.0,-4.0,0
-7.0,-250.0,-65.0,-11.0,58.0,-6.0,0
-4.0,-251.0,-65.0,-12.0,61.0,-3.0,0
-9.0,-252.0,-60.0,-11.0,61.0,-4.0,0
-8.0,-251.0,-63.0,-12.0,62.0,-2.0,0
-6.0,-254.0,-65.0,-10.0,60.0,-3.0,0
-6.0,-250.0,-65.0,-8.0,59.0,1.0,0
-8.0,-250.0,-67.0,-9.0,59.0,-2.0,0
-7.0,-248.0,-66.0,-6.0,60.0,-1.0,0
-7.0,-248.0,-65.0,-4.0,59.0,-3.0,0
-7.0,-247.0,-61.0,-4.0,58.0,-1.0,0
-4.0,-248.0,-65.0,-6.0,59.0,-5.0,0
0.0,-248.0,-66.0,-11.0,59.0,-3.0,0
-4.0,-248.0,-67.0,-13.0,58.0,-6.0,0
-5.0,-250.0,-64.0,-16.0,56.0,-5.0,0
-7.0,-252.0,-63.0,-15.0,58.0,-6.0,0
-7.0,-253.0,-69.0,-13.0,59.0,-4.0,0
-7.0,-251.0,-62.0,-9.0,59.0,-6.0,0
-5.0,-255.0,-61.0,-5.0,60.0,-4.0,0
-8.0,-254.0,-64.0,0.0,59.0,-6.0,0
-8.0,-251.0,-66.0,4.0,61.0,-3.0,0
-9.0,-254.0,-64.0,8.0,61.0,-8.0,0
-9.0,-250.0,-67.0,13.0,62.0,-6.0,0
-8.0,-251.0,-67.0,17.0,63.0,-7.0,0
-9.0,-252.0,-66.0,19.0,62.0,-4.0,0
-3.0,-251.0,-64.0,22.0,61.0,-5.0,0
-7.0,-247.0,-63.0,22.0,60.0,-3.0,0
-6.0,-247.0,-64.0,22.0,59.0,-5.0,0
-5.0,-247.0,-62.0,23.0,58.0,-3.0,0
-9.0,-249.0,-60.0,24.0,59.0,-3.0,0
-8.0,-246.0,-59.0,26.0,57.0,-1.0,0
-7.0,-250.0,-64.0,28.0,57.0,-3.0,0
-7.0,-250.0,-59.0,29.0,57.0,-1.0,0
-8.0,-249.0,-58.0,28.0,56.0,-2.0,0
-3.0,-251.0,-62.0,27.0,55.0,1.0,0
-4.0,-252.0,-57.0,23.0,56.0,-1.0,0
-5.0,-252.0,-59.0,18.0,55.0,1.0,0
-4.0,-249.0,-62.0,12.0,56.0,-1.0,0
-6.0,-250.0,-63.0,8.0,56.0,2.0,0
-5.0,-248.0,-62.0,2.0,57.0,1.0,0
-7.0,-252.0,-63.0,-3.0,58.0,5.0,0
-5.0,-249.0,-61.0,-8.0,56.0,4.0,0
-7.0,-251.0,-63.0,-10.0,55.0,6.0,0
-7.0,-249.0,-61.0,-12.0,55.0,5.0,0
-3.0,-252.0,-61.0,-11.0,56.0,7.0,0
-5.0,-252.0,-62.0,-10.0,56.0,5.0,0
-9.0,-251.0,-61.0,-10.0,57.0,5.0,0
-8.0,-248.0,-66.0,-9.0,58.0,3.0,0
-8.0,-249.0,-61.0,-9.0,57.0,3.0,0
-7.0,-253.0,-64.0,-9.0,58.0,0.0,0
-9.0,-251.0,-64.0,-7.0,60.0,1.0,0
-6.0,-249.0,-61.0,-6.0,61.0,-2.0,0
-7.0,-252.0,-61.0,-5.0,62.0,0.0,0
-9.0,-248.0,-62.0,-3.0,63.0,-1.0,0
-8.0,-250.0,-63.0,-4.0,62.0,1.0,0
-6.0,-249.0,-60.0,-4.0,63.0,-2.0,0
-8.0,-251.0,-62.0,-6.0,63.0,0.0,0
-6.0,-249.0,-60.0,-11.0,64.0,-2.0,0
-4.0,-247.0,-61.0,-14.0,65.0,2.0,0
-8.0,-245.0,-63.0,-20.0,65.0,1.0,0
-5.0,-250.0,-59.0,-27.0,64.0,4.0,0
-6.0,-248.0,-58.0,-34.0,62.0,4.0,0
-7.0,-248.0,-59.0,-40.0,63.0,7.0,0
-7.0,-250.0,-57.0,-48.0,62.0,6.0,0
-7.0,-248.0,-59.0,-55.0,61.0,5.0,0
-8.0,-249.0,-58.0,-64.0,61.0,2.0,0
-7.0,-249.0,-62.0,-74.0,61.0,3.0,0
-5.0,-250.0,-58.0,-81.0,62.0,-3.0,0
-7.0,-252.0,-62.0,-87.0,64.0,-2.0,0
-8.0,-250.0,-60.0,-94.0,66.0,-3.0,0
-8.0,-248.0,-60.0,-100.0,68.0,-2.0,0
-8.0,-251.0,-61.0,-104.0,68.0,-3.0,0
-8.0,-249.0,-62.0,-107.0,69.0,-1.0,0
-7.0,-250.0,-60.0,-109.0,72.0,0.0,0
-7.0,-249.0,-61.0,-111.0,72.0,3.0,0
-7.0,-251.0,-58.0,-113.0,74.0,3.0,0
-7.0,-248.0,-62.0,-115.0,76.0,5.0,0
-7.0,-250.0,-60.0,-121.0,77.0,5.0,0
-5.0,-250.0,-62.0,-125.0,79.0,5.0,0
-7.0,-250.0,-65.0,-131.0,76.0,4.0,0
-6.0,-249.0,-63.0,-136.0,77.0,4.0,0
-6.0,-250.0,-69.0,-140.0,77.0,2.0,0
-5.0,-250.0,-65.0,-141.0,78.0,0.0,0
-6.0,-247.0,-65.0,-140.0,77.0,-2.0,0
-7.0,-249.0,-69.0,-137.0,77.0,-4.0,0
-5.0,-252.0,-67.0,-132.0,75.0,-5.0,0
-6.0,-250.0,-70.0,-126.0,75.0,-2.0,0
-8.0,-249.0,-70.0,-119.0,73.0,-3.0,0
-5.0,-252.0,-64.0,-113.0,72.0,-2.0,0
-8.0,-250.0,-65.0,-110.0,71.0,-2.0,0
-9.0,-251.0,-68.0,-109.0,71.0,0.0,0
-9.0,-253.0,-68.0,-107.0,71.0,0.0,0
-8.0,-249.0,-69.0,-106.0,73.0,1.0,0
-9.0,-253.0,-64.0,-106.0,76.0,1.0,0
-7.0,-249.0,-70.0,-106.0,78.0,2.0,0
-7.0,-253.0,-71.0,-106.0,79.0,1.0,0
-6.0,-250.0,-65.0,-106.0,80.0,2.0,0
-6.0,-248.0,-69.0,-105.0,80.0,4.0,0
-7.0,-250.0,-67.0,-105.0,80.0,2.0,0
-5.0,-252.0,-69.0,-105.0,77.0,0.0,0
-6.0,-248.0,-72.0,-106.0,75.0,-4.0,0
-8.0,-248.0,-70.0,-106.0,75.0,-5.0,0
-6.0,-250.0,-66.0,-105.0,73.0,-6.0,0
-6.0,-248.0,-69.0,-104.0,72.0,-8.0,0
-8.0,-249.0,-65.0,-102.0,72.0,-9.0,0
-5.0,-251.0,-70.0,-98.0,72.0,-9.0,0
-8.0,-248.0,-69.0,-95.0,73.0,-10.0,0
-6.0,-250.0,-71.0,-91.0,74.0,-10.0,0
-6.0,-252.0,-67.0,-87.0,74.0,-10.0,0
-6.0,-250.0,-66.0,-85.0,74.0,-8.0,0
-6.0,-248.0,-66.0,-83.0,76.0,-9.0,0
-6.0,-250.0,-76.0,-84.0,76.0,-8.0,0
-5.0,-249.0,-70.0,-87.0,74.0,-9.0,0
-3.0,-250.0,-68.0,-93.0,73.0,-8.0,0
-1.0,-250.0,-68.0,-100.0,71.0,-8.0,0
-5.0,-246.0,-70.0,-105.0,71.0,-11.0,0
-6.0,-248.0,-68.0,-109.0,69.0,-13.0,0
-5.0,-250.0,-67.0,-113.0,67.0,-12.0,0
-5.0,-250.0,-69.0,-114.0,66.0,-13.0,0
-5.0,-249.0,-74.0,-115.0,68.0,-13.0,0
-5.0,-249.0,-73.0,-114.0,71.0,-13.0,0
-7.0,-247.0,-71.0,-113.0,74.0,-12.0,0
-4.0,-248.0,-69.0,-113.0,76.0,-12.0,0
-6.0,-248.0,-70.0,-113.0,76.0,-9.0,0
-6.0,-247.0,-74.0,-117.0,74.0,-11.0,0
-9.0,-246.0,-72.0,-119.0,72.0,-7.0,0
-6.0,-246.0,-73.0,-122.0,75.0,-7.0,0
-8.0,-245.0,-71.0,-126.0,75.0,-5.0,0
-7.0,-247.0,-74.0,-127.0,77.0,-6.0,0
-8.0,-247.0,-68.0,-122.0,81.0,-15.0,0
-7.0,-248.0,-68.0,-125.0,80.0,-8.0,0
-5.0,-247.0,-73.0,-124.0,82.0,-2.0,0
-5.0,-249.0,-73.0,-120.0,87.0,-3.0,0
-6.0,-248.0,-71.0,-117.0,87.0,0.0,0
-4.0,-250.0,-73.0,-113.0,87.0,-3.0,0
-5.0,-247.0,-70.0,-111.0,86.0,-3.0,0
-3.0,-249.0,-71.0,-106.0,87.0,-6.0,0
-6.0,-244.0,-71.0,-107.0,87.0,-6.0,0
-5.0,-247.0,-66.0,-108.0,88.0,-9.0,0
-6.0,-245.0,-71.0,-108.0,90.0,-7.0,0
-5.0,-244.0,-70.0,-109.0,91.0,-11.0,0
-7.0,-243.0,-70.0,-112.0,91.0,-9.0,0
-8.0,-247.0,-69.0,-113.0,92.0,-12.0,0
-7.0,-247.0,-69.0,-117.0,91.0,-11.0,0
-9.0,-246.0,-73.0,-121.0,87.0,-16.0,0
-9.0,-247.0,-74.0,-125.0,87.0,-16.0,0
-9.0,-248.0,-69.0,-131.0,88.0,-19.0,0
-9.0,-246.0,-71.0,-139.0,87.0,-17.0,0
-8.0,-244.0,-73.0,-144.0,88.0,-18.0,0
-11.0,-242.0,-76.0,-151.0,86.0,-16.0,0
-7.0,-245.0,-76.0,-159.0,82.0,-18.0,0
-9.0,-243.0,-76.0,-168.0,81.0,-18.0,0
-9.0,-246.0,-73.0,-175.0,79.0,-20.0,0
-6.0,-248.0,-74.0,-183.0,73.0,-21.0,0
-9.0,-247.0,-75.0,-186.0,71.0,-24.0,0
-9.0,-246.0,-76.0,-190.0,68.0,-23.0,0
-10.0,-246.0,-77.0,-192.0,67.0,-27.0,0
-9.0,-250.0,-77.0,-192.0,65.0,-26.0,0
-6.0,-246.0,-74.0,-192.0,62.0,-29.0,0
-7.0,-245.0,-77.0,-191.0,60.0,-27.0,0
-7.0,-248.0,-78.0,-193.0,55.0,-28.0,0
-7.0,-244.0,-75.0,-197.0,55.0,-26.0,0
-7.0,-244.0,-78.0,-199.0,54.0,-29.0,0
-7.0,-244.0,-80.0,-204.0,54.0,-27.0,0
-9.0,-244.0,-77.0,-210.0,53.0,-32.0,0
-6.0,-243.0,-79.0,-214.0,56.0,-31.0,0
-5.0,-244.0,-78.0,-222.0,58.0,-37.0,0
-5.0,-242.0,-75.0,-230.0,61.0,-37.0,0
-6.0,-243.0,-75.0,-242.0,64.0,-42.0,0
-6.0,-244.0,-77.0,-251.0,67.0,-41.0,0
-8.0,-240.0,-76.0,-262.0,71.0,-44.0,0
-6.0,-245.0,-78.0,-272.0,75.0,-43.0,0
-4.0,-245.0,-80.0,-287.0,80.0,-48.0,0
-3.0,-244.0,-79.0,-297.0,84.0,-45.0,0
-5.0,-242.0,-77.0,-306.0,85.0,-48.0,0
-6.0,-241.0,-78.0,-315.0,85.0,-45.0,0
-7.0,-242.0,-78.0,-325.0,85.0,-45.0,0
-5.0,-242.0,-78.0,-333.0,85.0,-43.0,0
-8.0,-240.0,-79.0,-345.0,84.0,-47.0,0
-5.0,-241.0,-80.0,-358.0,84.0,-43.0,0
-8.0,-242.0,-78.0,-373.0,86.0,-47.0,0
-7.0,-240.0,-79.0,-394.0,89.0,-46.0,0
-6.0,-242.0,-80.0,-412.0,87.0,-54.0,0
-5.0,-245.0,-80.0,-432.0,88.0,-55.0,0
-4.0,-245.0,-85.0,-447.0,89.0,-61.0,0
-9.0,-242.0,-85.0,-458.0,96.0,-64.0,0
-10.0,-245.0,-85.0,-466.0,101.0,-67.0,0
-7.0,-245.0,-87.0,-472.0,105.0,-66.0,0
-8.0,-245.0,-89.0,-470.0,106.0,-70.0,0
-8.0,-244.0,-91.0,-468.0,104.0,-70.0,0
-5.0,-245.0,-90.0,-465.0,104.0,-72.0,0
-6.0,-243.0,-91.0,-464.0,105.0,-68.0,0
-11.0,-241.0,-90.0,-465.0,103.0,-67.0,0
-6.0,-237.0,-92.0,-470.0,99.0,-67.0,0
-8.0,-235.0,-92.0,-478.0,98.0,-70.0,0
-7.0,-237.0,-88.0,-489.0,96.0,-69.0,0
-7.0,-233.0,-92.0,-500.0,97.0,-72.0,0
-9.0,-234.0,-88.0,-513.0,102.0,-71.0,0
-8.0,-235.0,-91.0,-527.0,105.0,-79.0,0
-1.0,-235.0,-92.0,-543.0,106.0,-82.0,0
-1.0,-243.0,-88.0,-555.0,106.0,-89.0,0
-7.0,-238.0,-90.0,-565.0,104.0,-93.0,0
-6.0,-239.0,-90.0,-570.0,103.0,-97.0,0
-4.0,-238.0,-88.0,-577.0,102.0,-99.0,0
-8.0,-240.0,-90.0,-586.0,99.0,-105.0,0
-4.0,-241.0,-92.0,-598.0,99.0,-108.0,0
-7.0,-241.0,-92.0,-615.0,101.0,-116.0,0
-8.0,-243.0,-92.0,-636.0,104.0,-121.0,0
-7.0,-243.0,-94.0,-653.0,110.0,-124.0,0
-6.0,-243.0,-96.0,-669.0,117.0,-127.0,0
-8.0,-240.0,-99.0,-680.0,127.0,-129.0,0
-8.0,-238.0,-97.0,-694.0,134.0,-127.0,0
-3.0,-240.0,-101.0,-705.0,141.0,-128.0,0
-2.0,-239.0,-99.0,-710.0,152.0,-132.0,0
-3.0,-238.0,-99.0,-717.0,160.0,-127.0,0
-4.0,-236.0,-106.0,-720.0,167.0,-120.0,0
-2.0,-237.0,-107.0,-729.0,176.0,-119.0,0
1.0,-237.0,-108.0,-738.0,182.0,-115.0,0
3.0,-237.0,-110.0,-742.0,188.0,-112.0,0
3.0,-236.0,-112.0,-741.0,188.0,-107.0,0
4.0,-240.0,-113.0,-729.0,181.0,-105.0,0
3.0,-235.0,-118.0,-709.0,174.0,-107.0,0
2.0,-235.0,-117.0,-690.0,163.0,-102.0,0
3.0,-236.0,-119.0,-666.0,152.0,-101.0,0
4.0,-231.0,-119.0,-649.0,143.0,-103.0,0
6.0,-227.0,-120.0,-643.0,133.0,-103.0,0
0.0,-226.0,-121.0,-650.0,130.0,-106.0,0
2.0,-218.0,-122.0,-665.0,125.0,-119.0,0
5.0,-218.0,-119.0,-685.0,112.0,-131.0,0
0.0,-216.0,-126.0,-709.0,106.0,-131.0,0
2.0,-217.0,-123.0,-726.0,100.0,-135.0,0
3.0,-220.0,-119.0,-737.0,90.0,-137.0,0
2.0,-224.0,-121.0,-743.0,81.0,-140.0,0
2.0,-224.0,-124.0,-743.0,61.0,-150.0,0
6.0,-224.0,-129.0,-735.0,42.0,-154.0,0
5.0,-220.0,-126.0,-727.0,25.0,-164.0,0
10.0,-224.0,-130.0,-727.0,2.0,-160.0,0
9.0,-225.0,-131.0,-723.0,-7.0,-158.0,0
14.0,-222.0,-130.0,-713.0,-12.0,-155.0,0
14.0,-217.0,-129.0,-710.0,-18.0,-149.0,0
18.0,-213.0,-129.0,-713.0,-23.0,-153.0,0
20.0,-213.0,-138.0,-726.0,-34.0,-162.0,0
20.0,-212.0,-138.0,-741.0,-36.0,-175.0,0
21.0,-213.0,-139.0,-766.0,-35.0,-181.0,0
23.0,-211.0,-139.0,-788.0,-28.0,-185.0,0
22.0,-213.0,-136.0,-804.0,-27.0,-170.0,0
24.0,-208.0,-145.0,-816.0,-12.0,-178.0,0
21.0,-213.0,-148.0,-818.0,3.0,-176.0,0
25.0,-211.0,-146.0,-818.0,26.0,-166.0,0
25.0,-209.0,-143.0,-813.0,46.0,-142.0,0
24.0,-213.0,-147.0,-802.0,83.0,-132.0,0
19.0,-213.0,-147.0,-786.0,120.0,-140.0,0
22.0,-212.0,-155.0,-775.0,144.0,-138.0,0
17.0,-218.0,-149.0,-768.0,175.0,-139.0,0
20.0,-219.0,-152.0,-760.0,199.0,-142.0,0
19.0,-220.0,-149.0,-751.0,230.0,-140.0,0
25.0,-218.0,-144.0,-739.0,261.0,-124.0,0
19.0,-210.0,-153.0,-732.0,284.0,-109.0,0
24.0,-210.0,-150.0,-734.0,302.0,-115.0,0
23.0,-204.0,-148.0,-743.0,311.0,-118.0,0
26.0,-208.0,-150.0,-768.0,314.0,-114.0,0
13.0,-204.0,-145.0,-796.0,316.0,-120.0,0
12.0,-205.0,-148.0,-824.0,309.0,-129.0,0
11.0,-202.0,-149.0,-852.0,299.0,-142.0,0
9.0,-202.0,-152.0,-875.0,284.0,-150.0,0
10.0,-209.0,-154.0,-889.0,273.0,-155.0,0
1.0,-203.0,-156.0,-890.0,264.0,-149.0,0
6.0,-208.0,-162.0,-876.0,261.0,-160.0,0
9.0,-211.0,-167.0,-853.0,246.0,-157.0,0
8.0,-211.0,-170.0,-821.0,231.0,-150.0,0
9.0,-209.0,-173.0,-795.0,222.0,-140.0,0
12.0,-206.0,-182.0,-775.0,222.0,-141.0,0
13.0,-199.0,-182.0,-757.0,229.0,-134.0,0
13.0,-201.0,-184.0,-745.0,241.0,-133.0,0
7.0,-202.0,-184.0,-731.0,250.0,-129.0,0
10.0,-206.0,-184.0,-716.0,254.0,-130.0,0
8.0,-205.0,-182.0,-694.0,257.0,-123.0,0
1.0,-210.0,-182.0,-665.0,254.0,-117.0,0
6.0,-212.0,-180.0,-631.0,247.0,-101.0,0
6.0,-213.0,-180.0,-597.0,245.0,-89.0,0
6.0,-206.0,-175.0,-565.0,231.0,-71.0,0
11.0,-211.0,-178.0,-537.0,217.0,-62.0,0
8.0,-202.0,-180.0,-512.0,210.0,-51.0,0
6.0,-207.0,-177.0,-498.0,206.0,-43.0,0
8.0,-205.0,-175.0,-485.0,203.0,-31.0,0
8.0,-203.0,-169.0,-471.0,204.0,-26.0,0
12.0,-199.0,-172.0,-452.0,207.0,-15.0,0
19.0,-198.0,-171.0,-433.0,204.0,-9.0,0
19.0,-203.0,-172.0,-425.0,203.0,2.0,0
23.0,-209.0,-174.0,-423.0,200.0,12.0,0
26.0,-208.0,-175.0,-428.0,198.0,27.0,0
25.0,-212.0,-179.0,-436.0,203.0,35.0,0
21.0,-211.0,-178.0,-441.0,208.0,43.0,0
26.0,-210.0,-181.0,-444.0,214.0,46.0,0
21.0,-210.0,-188.0,-447.0,226.0,49.0,0
20.0,-207.0,-188.0,-450.0,246.0,44.0,0
22.0,-202.0,-192.0,-454.0,265.0,41.0,0
24.0,-199.0,-194.0,-459.0,282.0,31.0,0
25.0,-200.0,-196.0,-460.0,291.0,28.0,0
27.0,-200.0,-195.0,-456.0,292.0,26.0,0
26.0,-200.0,-199.0,-446.0,288.0,34.0,0
26.0,-203.0,-203.0,-432.0,283.0,37.0,0
25.0,-205.0,-205.0,-415.0,276.0,42.0,0
28.0,-205.0,-205.0,-401.0,272.0,38.0,0
26.0,-203.0,-208.0,-384.0,268.0,39.0,0
23.0,-196.0,-213.0,-379.0,269.0,36.0,0
27.0,-195.0,-217.0,-375.0,271.0,35.0,0
28.0,-192.0,-214.0,-377.0,269.0,30.0,0
24.0,-191.0,-217.0,-384.0,261.0,28.0,0
24.0,-190.0,-215.0,-393.0,249.0,21.0,0
20.0,-189.0,-215.0,-401.0,230.0,22.0,0
22.0,-187.0,-221.0,-407.0,203.0,18.0,0
26.0,-187.0,-224.0,-415.0,175.0,20.0,0
29.0,-182.0,-226.0,-431.0,150.0,20.0,0
34.0,-180.0,-224.0,-446.0,143.0,23.0,0
35.0,-175.0,-226.0,-465.0,145.0,25.0,0
38.0,-182.0,-226.0,-484.0,160.0,32.0,0
41.0,-182.0,-227.0,-496.0,183.0,36.0,0
40.0,-187.0,-231.0,-497.0,215.0,42.0,0
39.0,-184.0,-233.0,-500.0,256.0,46.0,0
37.0,-183.0,-235.0,-495.0,293.0,52.0,0
34.0,-177.0,-233.0,-499.0,322.0,52.0,0
28.0,-179.0,-234.0,-511.0,339.0,53.0,0
27.0,-173.0,-233.0,-521.0,332.0,46.0,0
23.0,-176.0,-232.0,-526.0,317.0,41.0,0
26.0,-177.0,-230.0,-529.0,296.0,32.0,0
26.0,-170.0,-231.0,-534.0,274.0,27.0,0
26.0,-169.0,-237.0,-543.0,254.0,16.0,0
29.0,-170.0,-237.0,-547.0,234.0,9.0,0
29.0,-175.0,-235.0,-550.0,220.0,1.0,0
28.0,-173.0,-234.0,-546.0,208.0,-2.0,0
32.0,-174.0,-232.0,-529.0,202.0,-5.0,0
35.0,-171.0,-231.0,-515.0,202.0,-5.0,0
33.0,-169.0,-230.0,-510.0,208.0,-9.0,0
30.0,-174.0,-233.0,-504.0,214.0,-9.0,0
31.0,-176.0,-224.0,-510.0,220.0,-12.0,0
32.0,-175.0,-227.0,-506.0,221.0,-12.0,0
33.0,-171.0,-222.0,-507.0,219.0,-15.0,0
35.0,-168.0,-220.0,-507.0,213.0,-16.0,0
38.0,-163.0,-223.0,-510.0,200.0,-20.0,0
37.0,-162.0,-216.0,-523.0,188.0,-20.0,0
34.0,-164.0,-220.0,-547.0,179.0,-26.0,0
34.0,-163.0,-219.0,-564.0,168.0,-28.0,0
35.0,-167.0,-218.0,-576.0,158.0,-28.0,0
32.0,-169.0,-219.0,-588.0,146.0,-29.0,0
28.0,-168.0,-217.0,-590.0,132.0,-29.0,0
33.0,-173.0,-221.0,-583.0,114.0,-32.0,0
30.0,-169.0,-223.0,-570.0,94.0,-42.0,0
30.0,-170.0,-222.0,-557.0,68.0,-54.0,0
31.0,-168.0,-223.0,-541.0,52.0,-64.0,0
33.0,-165.0,-225.0,-529.0,38.0,-72.0,0
25.0,-165.0,-226.0,-524.0,30.0,-77.0,0
32.0,-167.0,-224.0,-527.0,22.0,-80.0,0
32.0,-163.0,-221.0,-513.0,4.0,-79.0,0
31.0,-161.0,-225.0,-508.0,-13.0,-75.0,0
38.0,-161.0,-223.0,-495.0,-30.0,-75.0,0
38.0,-164.0,-227.0,-485.0,-44.0,-71.0,0
35.0,-154.0,-227.0,-472.0,-56.0,-70.0,0
37.0,-156.0,-224.0,-455.0,-59.0,-62.0,0
37.0,-158.0,-225.0,-448.0,-57.0,-58.0,0
39.0,-159.0,-226.0,-435.0,-56.0,-50.0,0
36.0,-157.0,-222.0,-416.0,-56.0,-43.0,0
31.0,-158.0,-222.0,-392.0,-56.0,-42.0,0
31.0,-159.0,-224.0,-367.0,-59.0,-35.0,0
27.0,-152.0,-224.0,-349.0,-63.0,-28.0,0
24.0,-149.0,-227.0,-331.0,-66.0,-26.0,0
28.0,-150.0,-221.0,-321.0,-76.0,-27.0,0
31.0,-151.0,-222.0,-313.0,-88.0,-30.0,0
28.0,-151.0,-223.0,-307.0,-99.0,-35.0,0
32.0,-151.0,-229.0,-303.0,-101.0,-42.0,0
33.0,-148.0,-226.0,-288.0,-104.0,-52.0,0
32.0,-148.0,-230.0,-269.0,-108.0,-51.0,0
32.0,-148.0,-231.0,-239.0,-120.0,-48.0,0
33.0,-147.0,-229.0,-206.0,-125.0,-47.0,0
35.0,-146.0,-236.0,-179.0,-140.0,-40.0,0
27.0,-141.0,-235.0,-154.0,-157.0,-35.0,0
31.0,-145.0,-239.0,-135.0,-164.0,-30.0,0
26.0,-143.0,-237.0,-116.0,-167.0,-33.0,0
30.0,-143.0,-240.0,-97.0,-176.0,-36.0,0
27.0,-142.0,-236.0,-84.0,-185.0,-39.0,0
27.0,-142.0,-237.0,-69.0,-205.0,-38.0,0
29.0,-142.0,-236.0,-57.0,-224.0,-34.0,0
31.0,-144.0,-231.0,-59.0,-242.0,-30.0,0
28.0,-138.0,-232.0,-60.0,-258.0,-27.0,0
33.0,-143.0,-237.0,-63.0,-271.0,-25.0,0
28.0,-141.0,-237.0,-62.0,-264.0,-18.0,0
34.0,-144.0,-237.0,-61.0,-255.0,-4.0,0
28.0,-143.0,-234.0,-53.0,-248.0,6.0,0
32.0,-145.0,-235.0,-39.0,-236.0,12.0,0
34.0,-147.0,-233.0,-24.0,-222.0,18.0,0
37.0,-153.0,-235.0,-11.0,-209.0,26.0,0
33.0,-150.0,-234.0,9.0,-205.0,37.0,0
30.0,-148.0,-236.0,33.0,-197.0,41.0,0
31.0,-146.0,-239.0,71.0,-193.0,44.0,0
26.0,-144.0,-237.0,97.0,-188.0,45.0,0
26.0,-144.0,-242.0,116.0,-181.0,55.0,0
24.0,-142.0,-240.0,129.0,-173.0,62.0,0
22.0,-146.0,-241.0,139.0,-162.0,64.0,0
23.0,-148.0,-239.0,149.0,-157.0,60.0,0
22.0,-146.0,-238.0,165.0,-158.0,50.0,0
29.0,-156.0,-239.0,188.0,-152.0,44.0,0
24.0,-153.0,-235.0,209.0,-144.0,40.0,0
20.0,-156.0,-232.0,236.0,-140.0,36.0,0
14.0,-151.0,-235.0,265.0,-142.0,34.0,0
9.0,-150.0,-236.0,292.0,-150.0,27.0,0
17.0,-152.0,-234.0,311.0,-161.0,24.0,0
16.0,-157.0,-237.0,324.0,-173.0,13.0,0
12.0,-160.0,-230.0,340.0,-180.0,-9.0,0
16.0,-163.0,-230.0,367.0,-181.0,-31.0,0
14.0,-157.0,-228.0,396.0,-176.0,-38.0,0
13.0,-159.0,-227.0,426.0,-163.0,-42.0,0
15.0,-159.0,-228.0,459.0,-142.0,-37.0,0
13.0,-159.0,-226.0,491.0,-119.0,-41.0,0
8.0,-157.0,-225.0,519.0,-112.0,-45.0,0
6.0,-153.0,-220.0,540.0,-117.0,-49.0,0
4.0,-151.0,-223.0,552.0,-133.0,-45.0,0
3.0,-154.0,-221.0,557.0,-149.0,-52.0,0
0.0,-151.0,-228.0,553.0,-163.0,-62.0,0
3.0,-151.0,-223.0,534.0,-175.0,-68.0,0
6.0,-157.0,-227.0,510.0,-176.0,-77.0,0
1.0,-155.0,-223.0,490.0,-173.0,-98.0,0
5.0,-154.0,-223.0,479.0,-174.0,-104.0,0
5.0,-159.0,-225.0,480.0,-169.0,-111.0,0
7.0,-159.0,-217.0,482.0,-163.0,-124.0,0
1.0,-158.0,-219.0,485.0,-163.0,-138.0,0
3.0,-160.0,-215.0,489.0,-166.0,-142.0,0
7.0,-163.0,-210.0,495.0,-171.0,-145.0,0
5.0,-162.0,-205.0,507.0,-174.0,-143.0,0
7.0,-164.0,-207.0,521.0,-174.0,-137.0,0
8.0,-165.0,-205.0,535.0,-173.0,-125.0,0
6.0,-160.0,-209.0,544.0,-172.0,-108.0,0
4.0,-161.0,-205.0,548.0,-173.0,-99.0,0
1.0,-164.0,-202.0,551.0,-186.0,-103.0,0
2.0,-164.0,-203.0,547.0,-198.0,-100.0,0
2.0,-165.0,-207.0,542.0,-206.0,-98.0,0
2.0,-167.0,-206.0,534.0,-206.0,-99.0,0
-1.0,-168.0,-199.0,527.0,-205.0,-95.0,0
1.0,-172.0,-203.0,516.0,-199.0,-88.0,0
-1.0,-169.0,-201.0,508.0,-193.0,-89.0,0
-3.0,-168.0,-197.0,507.0,-190.0,-83.0,0
-2.0,-175.0,-198.0,509.0,-186.0,-78.0,0
-3.0,-176.0,-198.0,513.0,-185.0,-79.0,0
-1.0,-177.0,-200.0,515.0,-186.0,-86.0,0
-2.0,-178.0,-199.0,519.0,-184.0,-84.0,0
-1.0,-177.0,-201.0,519.0,-183.0,-85.0,0
1.0,-178.0,-196.0,509.0,-180.0,-90.0,0
-1.0,-179.0,-195.0,499.0,-175.0,-94.0,0
5.0,-180.0,-194.0,496.0,-168.0,-90.0,0
3.0,-183.0,-189.0,502.0,-158.0,-95.0,0
6.0,-182.0,-189.0,507.0,-152.0,-91.0,0
5.0,-187.0,-185.0,516.0,-143.0,-84.0,0
3.0,-188.0,-188.0,526.0,-129.0,-83.0,0
3.0,-187.0,-186.0,536.0,-123.0,-85.0,0
8.0,-187.0,-186.0,541.0,-117.0,-71.0,0
7.0,-185.0,-185.0,539.0,-105.0,-65.0,0
9.0,-183.0,-186.0,531.0,-88.0,-59.0,0
10.0,-179.0,-181.0,520.0,-79.0,-51.0,0
10.0,-183.0,-184.0,510.0,-70.0,-31.0,0
9.0,-181.0,-184.0,498.0,-65.0,-23.0,0
5.0,-181.0,-182.0,481.0,-59.0,-25.0,0
8.0,-184.0,-188.0,458.0,-57.0,-32.0,0
9.0,-187.0,-180.0,429.0,-46.0,-30.0,0
9.0,-190.0,-186.0,402.0,-28.0,-23.0,0
8.0,-190.0,-186.0,380.0,-2.0,-15.0,0
6.0,-190.0,-185.0,356.0,19.0,-21.0,0
6.0,-190.0,-184.0,339.0,35.0,-18.0,0
7.0,-198.0,-185.0,329.0,50.0,-10.0,0
4.0,-197.0,-181.0,321.0,65.0,-6.0,0
3.0,-202.0,-183.0,314.0,74.0,-11.0,0
3.0,-203.0,-186.0,314.0,74.0,-13.0,0
-1.0,-205.0,-185.0,318.0,74.0,-15.0,0
0.0,-207.0,-184.0,329.0,72.0,-14.0,0
-2.0,-208.0,-185.0,343.0,68.0,-16.0,0
-4.0,-210.0,-182.0,363.0,66.0,-10.0,0
-3.0,-214.0,-180.0,382.0,59.0,-8.0,0
-5.0,-212.0,-181.0,398.0,51.0,-5.0,0
-3.0,-217.0,-180.0,412.0,40.0,-6.0,0
2.0,-215.0,-181.0,429.0,33.0,-9.0,0
3.0,-214.0,-178.0,447.0,32.0,-16.0,0
1.0,-216.0,-180.0,464.0,35.0,-22.0,0
-3.0,-214.0,-175.0,478.0,36.0,-29.0,0
3.0,-219.0,-176.0,492.0,30.0,-31.0,0
-1.0,-215.0,-175.0,502.0,23.0,-34.0,0
2.0,-216.0,-175.0,512.0,10.0,-39.0,0
2.0,-216.0,-173.0,521.0,-5.0,-45.0,0
0.0,-215.0,-176.0,533.0,-13.0,-48.0,0
-1.0,-212.0,-172.0,546.0,-17.0,-41.0,0
3.0,-212.0,-176.0,560.0,-16.0,-31.0,0
4.0,-213.0,-173.0,568.0,-11.0,-29.0,0
6.0,-213.0,-173.0,575.0,-9.0,-29.0,0
6.0,-212.0,-172.0,585.0,-4.0,-36.0,0
5.0,-210.0,-169.0,596.0,-4.0,-39.0,0
4.0,-210.0,-167.0,605.0,-9.0,-42.0,0
8.0,-210.0,-163.0,615.0,-10.0,-39.0,0
8.0,-210.0,-163.0,624.0,-11.0,-37.0,0
7.0,-209.0,-158.0,625.0,-10.0,-35.0,0
7.0,-208.0,-162.0,621.0,-9.0,-38.0,0
9.0,-211.0,-163.0,609.0,-10.0,-44.0,0
7.0,-213.0,-162.0,593.0,-13.0,-48.0,0
8.0,-211.0,-157.0,571.0,-10.0,-52.0,0
10.0,-212.0,-155.0,561.0,-3.0,-56.0,0
6.0,-215.0,-154.0,559.0,7.0,-58.0,0
12.0,-217.0,-161.0,551.0,13.0,-60.0,0
9.0,-217.0,-153.0,542.0,14.0,-60.0,0
10.0,-217.0,-152.0,530.0,14.0,-57.0,0
10.0,-221.0,-151.0,522.0,13.0,-57.0,0
7.0,-218.0,-151.0,526.0,12.0,-56.0,0
6.0,-222.0,-150.0,527.0,12.0,-53.0,0
9.0,-224.0,-156.0,531.0,17.0,-51.0,0
10.0,-223.0,-156.0,522.0,17.0,-47.0,0
10.0,-224.0,-158.0,515.0,13.0,-43.0,0
9.0,-223.0,-154.0,517.0,15.0,-42.0,0
11.0,-221.0,-153.0,541.0,18.0,-41.0,0
12.0,-225.0,-150.0,582.0,22.0,-43.0,0
10.0,-220.0,-162.0,625.0,24.0,-47.0,0
15.0,-210.0,-164.0,627.0,22.0,-51.0,0
19.0,-208.0,-140.0,595.0,27.0,-53.0,0
16.0,-209.0,-130.0,592.0,44.0,-64.0,0
17.0,-202.0,-135.0,619.0,52.0,-69.0,0
18.0,-200.0,-139.0,628.0,54.0,-70.0,0
21.0,-198.0,-139.0,602.0,53.0,-74.0,0
20.0,-197.0,-142.0,545.0,55.0,-75.0,0
26.0,-202.0,-139.0,482.0,58.0,-67.0,0
20.0,-207.0,-140.0,432.0,61.0,-62.0,0
21.0,-209.0,-128.0,410.0,59.0,-61.0,0
25.0,-214.0,-124.0,403.0,58.0,-54.0,0
26.0,-216.0,-129.0,418.0,68.0,-42.0,0
29.0,-215.0,-129.0,441.0,84.0,-31.0,0
24.0,-214.0,-133.0,466.0,100.0,-25.0,0
19.0,-215.0,-129.0,492.0,110.0,-26.0,0
19.0,-214.0,-132.0,514.0,108.0,-22.0,0
20.0,-212.0,-129.0,528.0,101.0,-20.0,0
16.0,-214.0,-123.0,538.0,93.0,-18.0,0
12.0,-211.0,-123.0,548.0,90.0,-21.0,0
10.0,-209.0,-122.0,559.0,83.0,-24.0,0
7.0,-206.0,-121.0,574.0,71.0,-28.0,0
3.0,-206.0,-120.0,583.0,53.0,-26.0,0
-2.0,-210.0,-120.0,587.0,29.0,-26.0,0
-8.0,-206.0,-120.0,588.0,-2.0,-21.0,0
-6.0,-208.0,-121.0,588.0,-32.0,-15.0,0
-10.0,-205.0,-119.0,588.0,-59.0,-7.0,0
-12.0,-207.0,-114.0,586.0,-81.0,-2.0,0
-12.0,-206.0,-122.0,585.0,-97.0,9.0,0
-12.0,-205.0,-119.0,586.0,-107.0,20.0,0
-11.0,-206.0,-115.0,590.0,-114.0,31.0,0
-13.0,-209.0,-117.0,596.0,-120.0,35.0,0
-10.0,-212.0,-111.0,607.0,-122.0,48.0,0
-6.0,-208.0,-117.0,623.0,-119.0,54.0,0
0.0,-203.0,-103.0,646.0,-114.0,60.0,0
6.0,-211.0,-125.0,670.0,-111.0,58.0,0
6.0,-204.0,-103.0,687.0,-103.0,59.0,0
5.0,-202.0,-121.0,701.0,-93.0,55.0,0
14.0,-201.0,-105.0,705.0,-81.0,58.0,0
6.0,-198.0,-109.0,702.0,-70.0,58.0,0
17.0,-201.0,-108.0,698.0,-64.0,59.0,0
21.0,-201.0,-105.0,691.0,-62.0,58.0,0
21.0,-201.0,-105.0,685.0,-63.0,60.0,0
21.0,-203.0,-99.0,678.0,-66.0,59.0,0
21.0,-203.0,-100.0,681.0,-80.0,64.0,0
23.0,-202.0,-100.0,682.0,-96.0,71.0,0
17.0,-201.0,-99.0,680.0,-110.0,85.0,0
20.0,-205.0,-95.0,681.0,-119.0,90.0,0
17.0,-204.0,-98.0,688.0,-121.0,95.0,0
15.0,-203.0,-107.0,697.0,-119.0,93.0,0
18.0,-201.0,-109.0,697.0,-111.0,100.0,0
15.0,-204.0,-110.0,697.0,-96.0,99.0,0
12.0,-201.0,-108.0,695.0,-78.0,99.0,0
14.0,-203.0,-106.0,693.0,-61.0,86.0,0
12.0,-201.0,-104.0,685.0,-48.0,78.0,0
17.0,-204.0,-107.0,676.0,-35.0,70.0,0
10.0,-202.0,-104.0,674.0,-18.0,66.0,0
12.0,-205.0,-98.0,680.0,-6.0,55.0,0
14.0,-201.0,-98.0,689.0,3.0,51.0,0
9.0,-202.0,-96.0,700.0,10.0,47.0,0
11.0,-205.0,-97.0,707.0,17.0,49.0,0
13.0,-205.0,-93.0,712.0,22.0,45.0,0
8.0,-204.0,-91.0,716.0,27.0,46.0,0
10.0,-204.0,-88.0,724.0,33.0,42.0,0
12.0,-204.0,-85.0,738.0,42.0,46.0,0
8.0,-203.0,-87.0,770.0,53.0,41.0,0
7.0,-206.0,-91.0,782.0,61.0,43.0,0
5.0,-200.0,-88.0,776.0,72.0,46.0,0
8.0,-203.0,-91.0,775.0,82.0,54.0,0
6.0,-199.0,-91.0,782.0,93.0,48.0,0
8.0,-197.0,-101.0,787.0,97.0,47.0,0
6.0,-195.0,-96.0,787.0,99.0,46.0,0
6.0,-191.0,-95.0,788.0,102.0,53.0,0
3.0,-191.0,-91.0,787.0,105.0,56.0,0
6.0,-190.0,-94.0,779.0,107.0,66.0,0
2.0,-187.0,-91.0,771.0,108.0,70.0,0
2.0,-187.0,-95.0,751.0,110.0,79.0,0
6.0,-190.0,-95.0,710.0,110.0,83.0,0
2.0,-190.0,-95.0,658.0,110.0,93.0,0
1.0,-188.0,-96.0,612.0,111.0,98.0,0
1.0,-191.0,-98.0,574.0,117.0,107.0,0
-1.0,-189.0,-101.0,538.0,123.0,112.0,0
-1.0,-192.0,-106.0,499.0,121.0,128.0,0
1.0,-193.0,-110.0,446.0,120.0,126.0,0
-1.0,-193.0,-108.0,404.0,117.0,126.0,0
-3.0,-195.0,-109.0,366.0,117.0,124.0,0
0.0,-195.0,-100.0,329.0,122.0,129.0,0
-1.0,-199.0,-100.0,300.0,128.0,127.0,0
0.0,-206.0,-92.0,275.0,132.0,125.0,0
-2.0,-211.0,-89.0,253.0,133.0,117.0,0
-2.0,-213.0,-94.0,231.0,130.0,114.0,0
-2.0,-218.0,-93.0,207.0,126.0,106.0,0
-4.0,-220.0,-97.0,184.0,119.0,100.0,0
-6.0,-221.0,-99.0,161.0,112.0,93.0,0
-5.0,-225.0,-103.0,143.0,104.0,86.0,0
-10.0,-227.0,-98.0,126.0,97.0,79.0,0
-9.0,-230.0,-103.0,116.0,88.0,74.0,0
-8.0,-236.0,-102.0,109.0,83.0,64.0,0
-5.0,-236.0,-97.0,104.0,81.0,61.0,0
-4.0,-237.0,-100.0,110.0,82.0,56.0,0
-5.0,-242.0,-94.0,129.0,85.0,54.0,0
-3.0,-242.0,-94.0,153.0,89.0,49.0,0
-2.0,-239.0,-94.0,176.0,95.0,46.0,0
2.0,-239.0,-102.0,195.0,101.0,43.0,0
2.0,-235.0,-99.0,206.0,106.0,42.0,0
7.0,-236.0,-102.0,207.0,110.0,39.0,0
7.0,-233.0,-104.0,198.0,112.0,39.0,0
4.0,-232.0,-101.0,186.0,112.0,39.0,0
2.0,-230.0,-95.0,175.0,112.0,42.0,0
2.0,-232.0,-94.0,164.0,110.0,43.0,0
-2.0,-234.0,-90.0,155.0,106.0,45.0,0
-3.0,-236.0,-87.0,143.0,100.0,40.0,0
-6.0,-235.0,-90.0,125.0,98.0,40.0,0
-6.0,-235.0,-89.0,106.0,93.0,37.0,0
-7.0,-237.0,-87.0,86.0,89.0,34.0,0
-6.0,-241.0,-83.0,71.0,85.0,33.0,0
-2.0,-243.0,-80.0,62.0,79.0,29.0,0
-5.0,-245.0,-75.0,62.0,70.0,22.0,0
-5.0,-248.0,-72.0,66.0,59.0,20.0,0
-7.0,-250.0,-65.0,76.0,45.0,15.0,0
-8.0,-253.0,-64.0,91.0,31.0,11.0,0
-9.0,-251.0,-62.0,109.0,12.0,8.0,0
-7.0,-250.0,-62.0,128.0,-6.0,8.0,0
-6.0,-246.0,-65.0,147.0,-22.0,9.0,0
-3.0,-243.0,-69.0,159.0,-35.0,12.0,0
-5.0,-240.0,-69.0,165.0,-47.0,15.0,0
-5.0,-236.0,-70.0,161.0,-57.0,15.0,0
-4.0,-233.0,-71.0,150.0,-68.0,13.0,0
-2.0,-230.0,-70.0,132.0,-69.0,11.0,0
2.0,-226.0,-73.0,108.0,-67.0,8.0,0
5.0,-227.0,-74.0,75.0,-62.0,8.0,0
5.0,-225.0,-80.0,37.0,-56.0,9.0,0
7.0,-228.0,-79.0,-1.0,-49.0,9.0,0
4.0,-226.0,-78.0,-35.0,-37.0,10.0,0
9.0,-227.0,-81.0,-63.0,-15.0,11.0,0
8.0,-227.0,-82.0,-90.0,21.0,20.0,0
4.0,-224.0,-78.0,-117.0,49.0,31.0,0
6.0,-227.0,-80.0,-137.0,73.0,43.0,0
7.0,-231.0,-81.0,-160.0,94.0,51.0,0
7.0,-231.0,-81.0,-187.0,112.0,58.0,0
4.0,-231.0,-81.0,-220.0,131.0,56.0,0
6.0,-235.0,-85.0,-257.0,150.0,50.0,0
10.0,-241.0,-89.0,-290.0,166.0,38.0,0
7.0,-240.0,-86.0,-322.0,174.0,29.0,0
8.0,-243.0,-82.0,-346.0,175.0,14.0,0
4.0,-246.0,-85.0,-361.0,171.0,1.0,0
2.0,-251.0,-83.0,-367.0,164.0,-15.0,0
3.0,-251.0,-83.0,-369.0,160.0,-28.0,0
-2.0,-253.0,-79.0,-364.0,154.0,-39.0,0
-1.0,-259.0,-84.0,-354.0,152.0,-47.0,0
-5.0,-258.0,-83.0,-339.0,154.0,-54.0,0
-7.0,-260.0,-86.0,-319.0,158.0,-55.0,0
-6.0,-261.0,-89.0,-296.0,166.0,-54.0,0
-8.0,-261.0,-88.0,-270.0,173.0,-42.0,0
-10.0,-259.0,-91.0,-239.0,179.0,-34.0,0
-11.0,-260.0,-86.0,-209.0,182.0,-30.0,0
-13.0,-259.0,-88.0,-176.0,181.0,-26.0,0
-11.0,-259.0,-85.0,-144.0,178.0,-19.0,0
-15.0,-253.0,-84.0,-111.0,172.0,-16.0,0
-13.0,-256.0,-82.0,-81.0,166.0,-8.0,0
-8.0,-253.0,-85.0,-51.0,163.0,-10.0,0
-12.0,-252.0,-74.0,-26.0,160.0,-10.0,0
-12.0,-248.0,-81.0,-6.0,151.0,-8.0,0
-11.0,-249.0,-77.0,10.0,143.0,-3.0,0
-14.0,-242.0,-78.0,20.0,134.0,-1.0,0
-8.0,-241.0,-80.0,21.0,128.0,2.0,0
-12.0,-239.0,-80.0,11.0,121.0,-5.0,0
-11.0,-235.0,-79.0,-2.0,112.0,-8.0,0
-10.0,-235.0,-80.0,-15.0,101.0,-10.0,0
-12.0,-233.0,-83.0,-27.0,94.0,0.0,0
-10.0,-234.0,-83.0,-47.0,83.0,-9.0,0
-9.0,-236.0,-82.0,-66.0,67.0,-17.0,0
-8.0,-235.0,-79.0,-85.0,60.0,-16.0,0
-9.0,-238.0,-83.0,-102.0,57.0,-14.0,0
-8.0,-241.0,-76.0,-124.0,56.0,-23.0,0
-9.0,-240.0,-78.0,-150.0,61.0,-24.0,0
-8.0,-241.0,-81.0,-175.0,68.0,-26.0,0
-4.0,-245.0,-81.0,-198.0,78.0,-21.0,0
-5.0,-246.0,-80.0,-217.0,89.0,-22.0,0
-3.0,-248.0,-79.0,-232.0,97.0,-15.0,0
0.0,-252.0,-81.0,-240.0,107.0,-12.0,0
1.0,-252.0,-82.0,-236.0,114.0,-10.0,0
2.0,-251.0,-85.0,-226.0,116.0,-13.0,0
-1.0,-250.0,-87.0,-210.0,117.0,-7.0,0
1.0,-250.0,-88.0,-190.0,114.0,-5.0,0
1.0,-248.0,-88.0,-165.0,111.0,4.0,0
0.0,-247.0,-86.0,-141.0,109.0,11.0,0
1.0,-245.0,-88.0,-125.0,107.0,14.0,0
1.0,-244.0,-94.0,-115.0,105.0,5.0,0
0.0,-239.0,-91.0,-112.0,98.0,7.0,0
-3.0,-241.0,-91.0,-117.0,98.0,5.0,0
-6.0,-239.0,-97.0,-123.0,94.0,8.0,0
-4.0,-237.0,-89.0,-135.0,93.0,4.0,0
-5.0,-238.0,-94.0,-153.0,92.0,0.0,0
-10.0,-239.0,-91.0,-169.0,90.0,-7.0,0
-8.0,-239.0,-92.0,-183.0,87.0,-6.0,0
-9.0,-237.0,-89.0,-194.0,85.0,-9.0,0
-8.0,-240.0,-91.0,-204.0,80.0,-5.0,0
-9.0,-243.0,-94.0,-210.0,75.0,-6.0,0
-7.0,-244.0,-91.0,-211.0,73.0,-2.0,0
-4.0,-244.0,-92.0,-206.0,76.0,-4.0,0
-9.0,-243.0,-89.0,-196.0,78.0,1.0,0
-7.0,-249.0,-86.0,-182.0,82.0,4.0,0
-6.0,-252.0,-79.0,-173.0,82.0,6.0,0
-8.0,-251.0,-81.0,-162.0,81.0,0.0,0
-8.0,-248.0,-83.0,-152.0,80.0,1.0,0
-6.0,-252.0,-78.0,-144.0,77.0,-2.0,0
-8.0,-252.0,-85.0,-139.0,73.0,-2.0,0
-6.0,-254.0,-85.0,-139.0,64.0,-7.0,0
-5.0,-252.0,-90.0,-138.0,54.0,-4.0,0
-6.0,-253.0,-89.0,-135.0,42.0,-5.0,0
-9.0,-254.0,-88.0,-126.0,33.0,-5.0,0
-8.0,-252.0,-89.0,-114.0,28.0,-8.0,0
-6.0,-250.0,-89.0,-102.0,26.0,-8.0,0
-7.0,-252.0,-92.0,-86.0,24.0,-13.0,0
-10.0,-245.0,-90.0,-72.0,24.0,-17.0,0
-5.0,-249.0,-95.0,-60.0,24.0,-25.0,0
-11.0,-247.0,-96.0,-54.0,23.0,-30.0,0
-7.0,-243.0,-98.0,-55.0,19.0,-38.0,0
-9.0,-245.0,-97.0,-59.0,14.0,-44.0,0
-10.0,-242.0,-98.0,-65.0,9.0,-51.0,0
-9.0,-242.0,-100.0,-73.0,6.0,-54.0,0
-5.0,-243.0,-100.0,-77.0,4.0,-62.0,0
-3.0,-242.0,-101.0,-82.0,3.0,-63.0,0
0.0,-243.0,-99.0,-83.0,5.0,-67.0,0
0.0,-241.0,-99.0,-82.0,4.0,-64.0,0
1.0,-241.0,-94.0,-75.0,5.0,-65.0,0
-1.0,-241.0,-94.0,-71.0,2.0,-62.0,0
0.0,-240.0,-100.0,-67.0,-2.0,-62.0,0
-1.0,-239.0,-95.0,-67.0,-8.0,-60.0,0
0.0,-236.0,-94.0,-70.0,-14.0,-60.0,0
-5.0,-240.0,-93.0,-78.0,-23.0,-58.0,0
-3.0,-242.0,-92.0,-85.0,-30.0,-59.0,0
0.0,-241.0,-91.0,-92.0,-37.0,-60.0,0
-4.0,-241.0,-90.0,-99.0,-41.0,-67.0,0
-7.0,-239.0,-97.0,-105.0,-47.0,-71.0,0
-3.0,-240.0,-95.0,-111.0,-55.0,-79.0,0
-9.0,-239.0,-101.0,-121.0,-60.0,-82.0,0
-9.0,-236.0,-103.0,-132.0,-67.0,-86.0,0
-8.0,-235.0,-104.0,-140.0,-72.0,-87.0,0
-5.0,-240.0,-105.0,-145.0,-69.0,-88.0,0
-4.0,-237.0,-104.0,-141.0,-66.0,-86.0,0
-4.0,-233.0,-99.0,-131.0,-58.0,-85.0,0
-2.0,-236.0,-94.0,-117.0,-51.0,-83.0,0
-3.0,-238.0,-102.0,-104.0,-44.0,-83.0,0
-1.0,-237.0,-96.0,-93.0,-39.0,-77.0,0
4.0,-238.0,-100.0,-85.0,-34.0,-71.0,0
6.0,-237.0,-95.0,-78.0,-28.0,-61.0,0
8.0,-234.0,-96.0,-77.0,-25.0,-50.0,0
8.0,-235.0,-100.0,-78.0,-23.0,-36.0,0
14.0,-236.0,-96.0,-76.0,-26.0,-20.0,0
11.0,-237.0,-91.0,-72.0,-29.0,-6.0,0
11.0,-241.0,-97.0,-63.0,-37.0,3.0,0
8.0,-237.0,-97.0,-57.0,-44.0,11.0,0
12.0,-242.0,-96.0,-51.0,-50.0,16.0,0
5.0,-239.0,-93.0,-44.0,-55.0,18.0,0
2.0,-240.0,-98.0,-42.0,-63.0,18.0,0
-1.0,-241.0,-96.0,-42.0,-72.0,17.0,0
-4.0,-241.0,-92.0,-44.0,-79.0,15.0,0
-1.0,-244.0,-97.0,-49.0,-87.0,12.0,0
-5.0,-243.0,-99.0,-57.0,-87.0,9.0,0
-3.0,-247.0,-100.0,-67.0,-83.0,8.0,0
-3.0,-247.0,-107.0,-74.0,-76.0,7.0,0
-4.0,-246.0,-104.0,-78.0,-64.0,6.0,0
-1.0,-247.0,-105.0,-81.0,-51.0,6.0,0
0.0,-246.0,-105.0,-76.0,-38.0,5.0,0
1.0,-246.0,-103.0,-69.0,-27.0,7.0,0
4.0,-244.0,-100.0,-58.0,-19.0,7.0,0
5.0,-243.0,-103.0,-47.0,-10.0,10.0,0
7.0,-245.0,-99.0,-37.0,-4.0,14.0,0
9.0,-244.0,-98.0,-27.0,-1.0,18.0,0
8.0,-242.0,-99.0,-18.0,4.0,22.0,0
8.0,-243.0,-101.0,-9.0,6.0,25.0,0
11.0,-241.0,-97.0,2.0,13.0,27.0,0
14.0,-241.0,-97.0,10.0,19.0,26.0,0
8.0,-241.0,-94.0,15.0,25.0,22.0,0
6.0,-239.0,-91.0,19.0,33.0,21.0,0
8.0,-242.0,-91.0,18.0,36.0,18.0,0
8.0,-240.0,-98.0,14.0,39.0,12.0,0
5.0,-242.0,-98.0,10.0,40.0,7.0,0
6.0,-240.0,-97.0,10.0,40.0,6.0,0
2.0,-241.0,-94.0,12.0,40.0,3.0,0
0.0,-241.0,-98.0,19.0,39.0,2.0,0
0.0,-242.0,-96.0,26.0,39.0,0.0,0
0.0,-241.0,-91.0,38.0,38.0,3.0,0
-3.0,-244.0,-95.0,49.0,38.0,1.0,0
-1.0,-239.0,-93.0,64.0,37.0,2.0,0
-2.0,-238.0,-89.0,68.0,36.0,3.0,0
-3.0,-236.0,-92.0,66.0,35.0,7.0,0
-4.0,-235.0,-89.0,58.0,34.0,5.0,0
-4.0,-236.0,-91.0,43.0,35.0,7.0,0
-5.0,-238.0,-88.0,28.0,32.0,8.0,0
-5.0,-236.0,-92.0,15.0,31.0,10.0,0
-4.0,-234.0,-93.0,6.0,32.0,7.0,0
-3.0,-236.0,-92.0,-2.0,34.0,6.0,0
-4.0,-238.0,-89.0,-10.0,37.0,3.0,0
-1.0,-240.0,-88.0,-15.0,35.0,1.0,0
-3.0,-239.0,-90.0,-18.0,37.0,0.0,0
-2.0,-238.0,-91.0,-23.0,36.0,0.0,0
-2.0,-242.0,-88.0,-32.0,36.0,-3.0,0
-2.0,-244.0,-93.0,-40.0,35.0,-4.0,0
-2.0,-245.0,-94.0,-49.0,34.0,-6.0,0
-2.0,-246.0,-98.0,-58.0,32.0,-2.0,0
-2.0,-249.0,-98.0,-62.0,33.0,-3.0,0
1.0,-250.0,-95.0,-61.0,37.0,0.0,0
-1.0,-248.0,-101.0,-55.0,42.0,-3.0,0
0.0,-251.0,-97.0,-42.0,45.0,-1.0,0
1.0,-252.0,-100.0,-28.0,48.0,-1.0,0
-1.0,-251.0,-96.0,-9.0,50.0,3.0,0
0.0,-250.0,-102.0,10.0,51.0,3.0,0
-2.0,-249.0,-98.0,25.0,52.0,6.0,0
-3.0,-244.0,-94.0,35.0,52.0,4.0,0
-2.0,-247.0,-94.0,42.0,53.0,10.0,0
-6.0,-244.0,-93.0,44.0,54.0,11.0,0
-4.0,-241.0,-95.0,44.0,58.0,15.0,0
-7.0,-241.0,-96.0,41.0,62.0,14.0,0
-5.0,-244.0,-93.0,36.0,63.0,17.0,0
-7.0,-242.0,-96.0,31.0,65.0,15.0,0
-6.0,-241.0,-96.0,29.0,64.0,17.0,0
-6.0,-244.0,-94.0,28.0,61.0,15.0,0
-5.0,-243.0,-90.0,27.0,59.0,17.0,0
-6.0,-241.0,-94.0,28.0,59.0,14.0,0
-7.0,-237.0,-89.0,30.0,59.0,18.0,0
-8.0,-240.0,-90.0,32.0,58.0,16.0,0
-6.0,-241.0,-90.0,35.0,59.0,19.0,0
-1.0,-242.0,-89.0,35.0,61.0,16.0,0
-5.0,-239.0,-91.0,34.0,64.0,18.0,0
-6.0,-241.0,-89.0,29.0,68.0,15.0,0
-3.0,-240.0,-93.0,24.0,71.0,18.0,0
-3.0,-242.0,-94.0,20.0,79.0,15.0,0
-4.0,-240.0,-97.0,18.0,88.0,16.0,0
-2.0,-243.0,-96.0,16.0,101.0,13.0,0
-4.0,-242.0,-95.0,18.0,109.0,14.0,0
-3.0,-241.0,-95.0,20.0,115.0,13.0,0
-4.0,-244.0,-95.0,23.0,118.0,16.0,0
-4.0,-239.0,-96.0,26.0,123.0,15.0,0
-2.0,-240.0,-95.0,32.0,127.0,19.0,0
