ax,ay,az,gx,gy,gz,label
-17.0,-254.0,-61.0,3.0,65.0,-7.0,0
-14.0,-251.0,-59.0,0.0,65.0,-8.0,0
-13.0,-255.0,-59.0,-3.0,66.0,-6.0,0
-13.0,-254.0,-60.0,-5.0,65.0,-7.0,0
-14.0,-254.0,-59.0,-7.0,64.0,-6.0,0
-11.0,-253.0,-61.0,-8.0,63.0,-6.0,0
-17.0,-252.0,-59.0,-10.0,62.0,-6.0,0
-14.0,-254.0,-58.0,-10.0,62.0,-5.0,0
-12.0,-254.0,-59.0,-12.0,63.0,-5.0,0
-12.0,-256.0,-56.0,-12.0,66.0,-4.0,0
-13.0,-250.0,-58.0,-14.0,68.0,-4.0,0
-13.0,-255.0,-58.0,-15.0,70.0,0.0,0
-16.0,-254.0,-59.0,-18.0,70.0,-1.0,0
-13.0,-254.0,-59.0,-19.0,70.0,-1.0,0
-13.0,-255.0,-59.0,-19.0,67.0,-2.0,0
-15.0,-253.0,-63.0,-20.0,64.0,-2.0,0
-14.0,-254.0,-61.0,-20.0,63.0,-3.0,0
-15.0,-253.0,-60.0,-20.0,62.0,-2.0,0
-14.0,-253.0,-61.0,-21.0,62.0,-3.0,0
-13.0,-255.0,-58.0,-20.0,63.0,-4.0,0
-13.0,-256.0,-58.0,-17.0,62.0,-4.0,0
-15.0,-255.0,-58.0,-17.0,64.0,-4.0,0
-14.0,-255.0,-57.0,-15.0,66.0,-3.0,0
-14.0,-256.0,-59.0,-14.0,67.0,-3.0,0
-13.0,-258.0,-61.0,-11.0,69.0,-4.0,0
-12.0,-257.0,-59.0,-10.0,70.0,-1.0,0
-18.0,-256.0,-65.0,-8.0,72.0,-2.0,0
-15.0,-254.0,-58.0,-6.0,72.0,-3.0,0
-16.0,-255.0,-58.0,-6.0,74.0,-3.0,0
-12.0,-254.0,-61.0,-5.0,74.0,-4.0,0
-14.0,-252.0,-59.0,-7.0,74.0,-4.0,0
-15.0,-255.0,-62.0,-7.0,74.0,-4.0,0
-12.0,-255.0,-62.0,-7.0,74.0,-4.0,0
-12.0,-256.0,-57.0,-9.0,73.0,-4.0,0
-15.0,-254.0,-57.0,-11.0,72.0,-4.0,0
-14.0,-255.0,-59.0,-12.0,70.0,-3.0,0
-15.0,-256.0,-60.0,-12.0,69.0,-2.0,0
-11.0,-255.0,-58.0,-14.0,69.0,-3.0,0
-12.0,-253.0,-59.0,-14.0,68.0,-2.0,0
-14.0,-253.0,-61.0,-15.0,67.0,-3.0,0
-13.0,-253.0,-57.0,-15.0,69.0,-3.0,0
-13.0,-254.0,-56.0,-14.0,70.0,-4.0,0
-11.0,-255.0,-58.0,-13.0,71.0,-2.0,0
-12.0,-254.0,-58.0,-14.0,72.0,-4.0,0
-10.0,-256.0,-60.0,-14.0,71.0,-3.0,0
-14.0,-254.0,-58.0,-14.0,71.0,-3.0,0
-13.0,-255.0,-59.0,-17.0,70.0,-5.0,0
-11.0,-256.0,-57.0,-18.0,69.0,-4.0,0
-13.0,-252.0,-65.0,-18.0,69.0,-2.0,0
-12.0,-254.0,-60.0,-18.0,68.0,-3.0,0
-12.0,-256.0,-58.0,-18.0,70.0,-3.0,0
-12.0,-255.0,-61.0,-17.0,71.0,-5.0,0
-13.0,-253.0,-58.0,-16.0,72.0,-4.0,0
-13.0,-255.0,-61.0,-15.0,71.0,-4.0,0
-14.0,-255.0,-61.0,-16.0,70.0,-6.0,0
-13.0,-251.0,-58.0,-17.0,72.0,-4.0,0
-12.0,-255.0,-59.0,-18.0,71.0,-4.0,0
-13.0,-253.0,-58.0,-20.0,73.0,-5.0,0
-10.0,-255.0,-58.0,-20.0,73.0,-4.0,0
-14.0,-255.0,-60.0,-19.0,76.0,-4.0,0
-14.0,-255.0,-60.0,-18.0,75.0,-5.0,0
-12.0,-256.0,-59.0,-17.0,74.0,-4.0,0
-15.0,-256.0,-63.0,-15.0,74.0,-3.0,0
-14.0,-256.0,-60.0,-16.0,73.0,-4.0,0
-14.0,-254.0,-60.0,-15.0,73.0,-5.0,0
-16.0,-255.0,-61.0,-16.0,73.0,-5.0,0
-13.0,-254.0,-56.0,-15.0,71.0,-5.0,0
-11.0,-254.0,-59.0,-15.0,71.0,-4.0,0
-13.0,-256.0,-60.0,-15.0,70.0,-2.0,0
-12.0,-254.0,-58.0,-15.0,69.0,-4.0,0
-15.0,-260.0,-57.0,-14.0,70.0,-2.0,0
-13.0,-255.0,-59.0,-13.0,71.0,-4.0,0
-15.0,-257.0,-61.0,-13.0,71.0,-2.0,0
-12.0,-257.0,-59.0,-13.0,71.0,-3.0,0
-12.0,-256.0,-59.0,-16.0,71.0,-3.0,0
-11.0,-255.0,-60.0,-17.0,73.0,-2.0,0
-12.0,-253.0,-59.0,-19.0,73.0,-3.0,0
-13.0,-254.0,-55.0,-21.0,74.0,-4.0,0
-12.0,-255.0,-59.0,-22.0,76.0,-4.0,0
-16.0,-255.0,-61.0,-21.0,77.0,-2.0,0
-11.0,-257.0,-57.0,-18.0,78.0,-2.0,0
-11.0,-258.0,-62.0,-17.0,78.0,-2.0,0
-17.0,-256.0,-58.0,-14.0,77.0,-2.0,0
-13.0,-257.0,-60.0,-13.0,77.0,-1.0,0
-15.0,-253.0,-61.0,-15.0,78.0,-2.0,0
-13.0,-253.0,-58.0,-16.0,79.0,-2.0,0
-13.0,-255.0,-60.0,-16.0,78.0,-2.0,0
-13.0,-257.0,-58.0,-18.0,77.0,-2.0,0
-14.0,-252.0,-60.0,-18.0,78.0,-2.0,0
-14.0,-256.0,-59.0,-17.0,79.0,-2.0,0
-14.0,-253.0,-59.0,-16.0,79.0,-3.0,0
-14.0,-253.0,-58.0,-15.0,78.0,-3.0,0
-15.0,-255.0,-59.0,-17.0,77.0,-3.0,0
-13.0,-252.0,-59.0,-17.0,77.0,-2.0,0
-12.0,-255.0,-59.0,-18.0,77.0,-3.0,0
-12.0,-252.0,-60.0,-20.0,77.0,-4.0,0
-12.0,-255.0,-56.0,-20.0,80.0,-3.0,0
-15.0,-254.0,-59.0,-21.0,82.0,-3.0,0
-14.0,-254.0,-61.0,-19.0,81.0,-3.0,0
-14.0,-255.0,-60.0,-18.0,83.0,-4.0,0
-15.0,-253.0,-57.0,-16.0,84.0,-4.0,0
-15.0,-254.0,-61.0,-15.0,86.0,-5.0,0
-12.0,-253.0,-62.0,-16.0,85.0,-4.0,0
-13.0,-252.0,-61.0,-15.0,83.0,-4.0,0
-14.0,-254.0,-58.0,-17.0,80.0,-3.0,0
-14.0,-255.0,-58.0,-17.0,79.0,-3.0,0
-15.0,-253.0,-58.0,-18.0,76.0,-3.0,0
-12.0,-255.0,-58.0,-18.0,73.0,-1.0,0
-12.0,-256.0,-59.0,-17.0,74.0,-1.0,0
-14.0,-251.0,-55.0,-17.0,73.0,0.0,0
-16.0,-255.0,-56.0,-18.0,74.0,2.0,0
-13.0,-254.0,-59.0,-20.0,73.0,2.0,0
-15.0,-256.0,-58.0,-19.0,75.0,1.0,0
-34.0,-253.0,-78.0,-20.0,76.0,-1.0,0
-27.0,-253.0,-57.0,-21.0,78.0,2.0,0
-8.0,-252.0,-51.0,-21.0,78.0,1.0,0
-3.0,-250.0,-53.0,-18.0,79.0,1.0,0
-8.0,-243.0,-62.0,-18.0,80.0,-1.0,0
-5.0,-260.0,-62.0,-16.0,80.0,0.0,0
-22.0,-255.0,-64.0,-13.0,79.0,-1.0,0
-9.0,-258.0,-63.0,-11.0,78.0,-1.0,0
-11.0,-250.0,-51.0,-12.0,80.0,-2.0,0
-9.0,-252.0,-57.0,-11.0,80.0,-3.0,0
-16.0,-251.0,-60.0,-13.0,79.0,-3.0,0
-12.0,-256.0,-61.0,-14.0,81.0,-4.0,0
-14.0,-252.0,-58.0,-14.0,82.0,-3.0,0
-13.0,-254.0,-56.0,-12.0,83.0,-5.0,0
-12.0,-254.0,-59.0,-13.0,83.0,-4.0,0
-14.0,-251.0,-58.0,-11.0,81.0,-3.0,0
-10.0,-257.0,-59.0,-11.0,81.0,-4.0,0
-12.0,-257.0,-59.0,-11.0,81.0,-4.0,0
-15.0,-257.0,-59.0,-11.0,80.0,-2.0,0
-11.0,-257.0,-49.0,-12.0,79.0,-1.0,0
-16.0,-250.0,-66.0,-12.0,77.0,-1.0,0
-13.0,-256.0,-47.0,-13.0,76.0,-3.0,0
-2.0,-253.0,-44.0,-12.0,76.0,-1.0,0
-15.0,-252.0,-75.0,-12.0,74.0,0.0,0
-15.0,-257.0,-59.0,-10.0,73.0,-2.0,0
-7.0,-251.0,-61.0,-8.0,72.0,0.0,0
-12.0,-256.0,-61.0,-8.0,73.0,-1.0,0
-13.0,-256.0,-57.0,-7.0,74.0,0.0,0
-14.0,-255.0,-55.0,-8.0,73.0,-1.0,0
-16.0,-256.0,-57.0,-6.0,75.0,-1.0,0
-23.0,-263.0,-52.0,-7.0,76.0,0.0,0
-16.0,-248.0,-57.0,-8.0,78.0,0.0,0
-12.0,-254.0,-63.0,-8.0,79.0,-2.0,0
-13.0,-256.0,-54.0,-9.0,77.0,-3.0,0
-12.0,-259.0,-55.0,-11.0,78.0,-3.0,0
-13.0,-261.0,-52.0,-12.0,77.0,-3.0,0
-18.0,-265.0,-59.0,-10.0,78.0,-3.0,0
-11.0,-257.0,-51.0,-11.0,77.0,-5.0,0
-19.0,-248.0,-61.0,-10.0,76.0,-3.0,0
-20.0,-254.0,-63.0,-11.0,75.0,-3.0,0
-21.0,-254.0,-26.0,-13.0,74.0,-2.0,0
-13.0,-255.0,-59.0,-14.0,74.0,-2.0,0
-13.0,-254.0,-58.0,-14.0,71.0,-2.0,0
-14.0,-256.0,-58.0,-16.0,71.0,-3.0,0
-12.0,-255.0,-57.0,-17.0,69.0,-4.0,0
-7.0,-250.0,-64.0,-18.0,69.0,-2.0,0
-11.0,-257.0,-49.0,-16.0,68.0,-4.0,0
-10.0,-257.0,-57.0,-15.0,68.0,-4.0,0
-14.0,-254.0,-64.0,-13.0,67.0,-3.0,0
-19.0,-254.0,-56.0,-13.0,66.0,-4.0,0
-17.0,-256.0,-66.0,-14.0,65.0,-3.0,0
-13.0,-249.0,-43.0,-14.0,65.0,-3.0,0
-18.0,-250.0,-52.0,-14.0,67.0,-3.0,0
-12.0,-251.0,-65.0,-16.0,68.0,-2.0,0
-16.0,-254.0,-59.0,-18.0,71.0,-1.0,0
-2.0,-254.0,-66.0,-18.0,74.0,-3.0,0
-12.0,-252.0,-60.0,-18.0,76.0,-2.0,0
-10.0,-256.0,-59.0,-17.0,75.0,-1.0,0
-13.0,-253.0,-59.0,-16.0,76.0,-2.0,0
-13.0,-256.0,-59.0,-16.0,76.0,-2.0,0
-14.0,-253.0,-52.0,-15.0,75.0,0.0,0
-11.0,-259.0,-59.0,-15.0,75.0,-1.0,0
-15.0,-255.0,-66.0,-16.0,74.0,-2.0,0
-16.0,-260.0,-60.0,-17.0,74.0,-3.0,0
-9.0,-253.0,-59.0,-17.0,74.0,-3.0,0
-27.0,-255.0,-60.0,-19.0,74.0,-3.0,0
-16.0,-256.0,-45.0,-20.0,74.0,-4.0,0
-13.0,-250.0,-53.0,-20.0,76.0,-3.0,0
-6.0,-256.0,-58.0,-17.0,75.0,-2.0,0
-15.0,-252.0,-49.0,-19.0,77.0,-3.0,0
-8.0,-263.0,-52.0,-15.0,76.0,-4.0,0
-12.0,-242.0,-51.0,-15.0,74.0,-4.0,0
-12.0,-256.0,-57.0,-14.0,73.0,-2.0,0
-13.0,-255.0,-59.0,-12.0,72.0,-2.0,0
-12.0,-256.0,-58.0,-11.0,70.0,-2.0,0
-12.0,-254.0,-57.0,-11.0,69.0,-2.0,0
-9.0,-261.0,-59.0,-10.0,66.0,-2.0,0
-10.0,-261.0,-66.0,-10.0,66.0,-2.0,0
-13.0,-256.0,-51.0,-9.0,67.0,-3.0,0
-11.0,-250.0,-60.0,-9.0,68.0,-3.0,0
-15.0,-251.0,-64.0,-7.0,68.0,-2.0,0
-18.0,-254.0,-55.0,-8.0,69.0,-2.0,0
-14.0,-258.0,-62.0,-8.0,72.0,-3.0,0
-14.0,-255.0,-62.0,-7.0,72.0,-2.0,0
-7.0,-249.0,-68.0,-7.0,72.0,-5.0,0
-13.0,-248.0,-54.0,-6.0,73.0,-5.0,0
-11.0,-254.0,-57.0,-5.0,72.0,-5.0,0
-13.0,-255.0,-60.0,-3.0,71.0,-3.0,0
-14.0,-254.0,-61.0,0.0,70.0,-3.0,0
-12.0,-253.0,-58.0,-1.0,72.0,-3.0,0
-18.0,-255.0,-60.0,-1.0,72.0,-5.0,0
-14.0,-256.0,-51.0,0.0,73.0,-4.0,0
-11.0,-253.0,-54.0,-3.0,73.0,-5.0,0
-15.0,-263.0,-59.0,-2.0,72.0,-5.0,0
-10.0,-253.0,-58.0,-3.0,72.0,-4.0,0
-3.0,-256.0,-60.0,-2.0,71.0,-4.0,0
-14.0,-254.0,-55.0,-4.0,71.0,-3.0,0
-12.0,-256.0,-62.0,-3.0,70.0,-4.0,0
-10.0,-254.0,-60.0,-2.0,67.0,-5.0,0
-14.0,-255.0,-61.0,1.0,67.0,-4.0,0
-13.0,-256.0,-59.0,2.0,67.0,-5.0,0
-11.0,-258.0,-58.0,3.0,69.0,-5.0,0
-13.0,-256.0,-59.0,4.0,70.0,-4.0,0
-11.0,-256.0,-57.0,5.0,70.0,-4.0,0
-11.0,-256.0,-61.0,4.0,70.0,-4.0,0
-5.0,-254.0,-57.0,4.0,69.0,-3.0,0
-11.0,-257.0,-58.0,3.0,69.0,-4.0,0
-14.0,-253.0,-59.0,2.0,67.0,-2.0,0
-14.0,-252.0,-59.0,2.0,66.0,-3.0,0
-9.0,-254.0,-59.0,2.0,64.0,-3.0,0
-10.0,-255.0,-58.0,-1.0,65.0,-5.0,0
-16.0,-253.0,-60.0,-1.0,65.0,-4.0,0
-13.0,-255.0,-59.0,-1.0,65.0,-5.0,0
-13.0,-255.0,-60.0,-1.0,64.0,-4.0,0
-14.0,-254.0,-62.0,0.0,64.0,-2.0,0
-13.0,-252.0,-59.0,0.0,65.0,-2.0,0
-14.0,-253.0,-60.0,2.0,66.0,-2.0,0
-15.0,-254.0,-56.0,5.0,66.0,-1.0,0
-12.0,-253.0,-58.0,4.0,67.0,-3.0,0
-12.0,-254.0,-60.0,3.0,67.0,-3.0,0
-12.0,-252.0,-57.0,2.0,67.0,-3.0,0
-11.0,-255.0,-58.0,1.0,68.0,-3.0,0
-13.0,-254.0,-60.0,-2.0,67.0,-2.0,0
-14.0,-252.0,-61.0,-3.0,68.0,-2.0,0
-11.0,-254.0,-56.0,-3.0,68.0,-2.0,0
-12.0,-254.0,-61.0,-4.0,68.0,-2.0,0
-17.0,-255.0,-57.0,-5.0,68.0,-2.0,0
-12.0,-252.0,-56.0,-7.0,68.0,-3.0,0
-15.0,-256.0,-58.0,-9.0,71.0,-2.0,0
-9.0,-253.0,-56.0,-11.0,71.0,-1.0,0
-14.0,-251.0,-64.0,-12.0,70.0,-2.0,0
-13.0,-252.0,-59.0,-15.0,72.0,0.0,0
-11.0,-255.0,-58.0,-16.0,70.0,-1.0,0
-12.0,-252.0,-54.0,-15.0,70.0,-2.0,0
-14.0,-255.0,-61.0,-15.0,69.0,-3.0,0
-13.0,-254.0,-60.0,-15.0,70.0,-2.0,0
-12.0,-254.0,-62.0,-14.0,70.0,-2.0,0
-16.0,-254.0,-60.0,-13.0,72.0,-3.0,0
-10.0,-255.0,-60.0,-12.0,73.0,-3.0,0
-15.0,-255.0,-60.0,-11.0,72.0,-1.0,0
-13.0,-256.0,-60.0,-10.0,72.0,-2.0,0
-16.0,-255.0,-61.0,-10.0,71.0,-2.0,0
-13.0,-254.0,-61.0,-11.0,70.0,-2.0,0
-13.0,-253.0,-60.0,-12.0,71.0,-1.0,0
-12.0,-256.0,-60.0,-12.0,71.0,0.0,0
-12.0,-254.0,-59.0,-12.0,70.0,-1.0,0
-12.0,-256.0,-59.0,-11.0,71.0,-1.0,0
-13.0,-254.0,-56.0,-10.0,71.0,-2.0,0
-14.0,-257.0,-56.0,-8.0,71.0,0.0,0
-11.0,-255.0,-58.0,-8.0,70.0,1.0,0
-17.0,-255.0,-58.0,-7.0,68.0,1.0,0
-12.0,-252.0,-56.0,-6.0,67.0,0.0,0
-13.0,-255.0,-53.0,-8.0,66.0,0.0,0
-14.0,-252.0,-58.0,-11.0,66.0,1.0,0
-11.0,-254.0,-58.0,-14.0,68.0,1.0,0
-10.0,-254.0,-60.0,-17.0,70.0,1.0,0
-14.0,-253.0,-60.0,-20.0,71.0,0.0,0
-12.0,-254.0,-57.0,-22.0,70.0,0.0,0
-15.0,-255.0,-61.0,-23.0,69.0,0.0,0
-14.0,-256.0,-61.0,-24.0,69.0,0.0,0
-15.0,-257.0,-54.0,-22.0,69.0,0.0,0
-13.0,-257.0,-58.0,-21.0,71.0,1.0,0
-11.0,-255.0,-60.0,-19.0,73.0,-1.0,0
-16.0,-255.0,-57.0,-18.0,74.0,-1.0,0
-14.0,-254.0,-58.0,-18.0,73.0,-1.0,0
-13.0,-256.0,-62.0,-20.0,73.0,-1.0,0
-12.0,-254.0,-59.0,-19.0,74.0,-2.0,0
-15.0,-256.0,-60.0,-20.0,73.0,-2.0,0
-14.0,-254.0,-60.0,-20.0,74.0,-3.0,0
-12.0,-255.0,-53.0,-19.0,73.0,-3.0,0
-12.0,-255.0,-55.0,-18.0,73.0,-3.0,0
-15.0,-256.0,-60.0,-14.0,71.0,-4.0,0
-11.0,-255.0,-55.0,-10.0,68.0,-5.0,0
-13.0,-255.0,-60.0,-8.0,68.0,-5.0,0
-13.0,-253.0,-59.0,-7.0,66.0,-3.0,0
-11.0,-253.0,-70.0,-6.0,64.0,-3.0,0
-11.0,-254.0,-58.0,-6.0,64.0,-3.0,0
-12.0,-255.0,-59.0,-6.0,63.0,-2.0,0
-11.0,-255.0,-60.0,-6.0,63.0,-2.0,0
-11.0,-253.0,-55.0,-8.0,64.0,-3.0,0
-13.0,-255.0,-58.0,-9.0,61.0,-4.0,0
-14.0,-256.0,-57.0,-10.0,61.0,-4.0,0
-13.0,-255.0,-59.0,-11.0,61.0,-4.0,0
-13.0,-255.0,-58.0,-10.0,61.0,-4.0,0
-13.0,-255.0,-56.0,-11.0,63.0,-2.0,0
-14.0,-255.0,-58.0,-11.0,64.0,-4.0,0
-15.0,-255.0,-58.0,-12.0,66.0,-3.0,0
-15.0,-254.0,-55.0,-13.0,68.0,-3.0,0
-12.0,-256.0,-57.0,-13.0,68.0,-4.0,0
-13.0,-254.0,-55.0,-15.0,66.0,-3.0,0
-15.0,-253.0,-59.0,-15.0,66.0,-4.0,0
-14.0,-258.0,-60.0,-15.0,65.0,-4.0,0
-13.0,-256.0,-56.0,-13.0,65.0,-5.0,0
-16.0,-253.0,-55.0,-12.0,65.0,-5.0,0
-13.0,-255.0,-57.0,-10.0,64.0,-5.0,0
-14.0,-255.0,-60.0,-9.0,63.0,-5.0,0
-13.0,-254.0,-57.0,-8.0,63.0,-5.0,0
-13.0,-255.0,-58.0,-11.0,64.0,-3.0,0
-12.0,-257.0,-61.0,-13.0,66.0,-3.0,0
-12.0,-256.0,-58.0,-14.0,67.0,-3.0,0
-14.0,-252.0,-57.0,-15.0,68.0,-2.0,0
-13.0,-253.0,-59.0,-16.0,69.0,-1.0,0
-10.0,-255.0,-60.0,-15.0,69.0,-2.0,0
-15.0,-254.0,-55.0,-16.0,68.0,-2.0,0
-12.0,-256.0,-58.0,-16.0,67.0,-1.0,0
-13.0,-255.0,-60.0,-16.0,68.0,0.0,0
-13.0,-256.0,-57.0,-19.0,65.0,1.0,0
-12.0,-253.0,-58.0,-19.0,64.0,0.0,0
-16.0,-252.0,-55.0,-22.0,65.0,-1.0,0
-15.0,-255.0,-58.0,-24.0,64.0,1.0,0
-12.0,-256.0,-58.0,-25.0,66.0,0.0,0
-12.0,-254.0,-60.0,-26.0,66.0,0.0,0
-15.0,-256.0,-59.0,-28.0,67.0,1.0,0
-14.0,-256.0,-60.0,-27.0,70.0,0.0,0
-14.0,-255.0,-59.0,-27.0,71.0,-1.0,0
-13.0,-255.0,-58.0,-26.0,69.0,0.0,0
-16.0,-253.0,-59.0,-25.0,70.0,-1.0,0
-16.0,-253.0,-59.0,-25.0,70.0,-1.0,0
-6.0,-256.0,-54.0,-25.0,69.0,-1.0,0
-13.0,-253.0,-57.0,-25.0,71.0,-2.0,0
-15.0,-255.0,-60.0,-26.0,71.0,-1.0,0
-13.0,-255.0,-57.0,-25.0,73.0,-2.0,0
-9.0,-255.0,-57.0,-25.0,74.0,-2.0,0
-13.0,-256.0,-58.0,-25.0,74.0,-3.0,0
-17.0,-256.0,-57.0,-23.0,73.0,-2.0,0
-17.0,-257.0,-59.0,-23.0,73.0,-2.0,0
-14.0,-252.0,-58.0,-22.0,73.0,0.0,0
-13.0,-255.0,-58.0,-24.0,72.0,-1.0,0
-13.0,-255.0,-59.0,-25.0,72.0,0.0,0
-16.0,-252.0,-57.0,-26.0,72.0,0.0,0
-14.0,-256.0,-61.0,-26.0,72.0,-1.0,0
-14.0,-254.0,-58.0,-28.0,71.0,0.0,0
-15.0,-255.0,-60.0,-27.0,70.0,-2.0,0
-13.0,-255.0,-60.0,-28.0,69.0,0.0,0
-13.0,-254.0,-59.0,-27.0,67.0,-1.0,0
-14.0,-255.0,-59.0,-28.0,66.0,-2.0,0
-15.0,-253.0,-59.0,-30.0,66.0,-1.0,0
-16.0,-253.0,-57.0,-30.0,65.0,-2.0,0
-16.0,-256.0,-60.0,-30.0,64.0,-1.0,0
-15.0,-255.0,-59.0,-30.0,64.0,-1.0,0
-10.0,-253.0,-62.0,-30.0,65.0,-1.0,0
-12.0,-255.0,-61.0,-30.0,63.0,-1.0,0
-13.0,-256.0,-58.0,-30.0,65.0,-1.0,0
-17.0,-253.0,-60.0,-29.0,65.0,-2.0,0
-15.0,-254.0,-59.0,-28.0,67.0,-2.0,0
-14.0,-255.0,-61.0,-27.0,65.0,-3.0,0
-13.0,-255.0,-59.0,-27.0,66.0,-2.0,0
-14.0,-256.0,-60.0,-27.0,66.0,-1.0,0
-11.0,-256.0,-55.0,-29.0,65.0,-3.0,0
-15.0,-252.0,-59.0,-30.0,66.0,-2.0,0
-10.0,-252.0,-62.0,-31.0,67.0,-4.0,0
-13.0,-254.0,-60.0,-33.0,69.0,-3.0,0
-12.0,-254.0,-63.0,-35.0,69.0,-4.0,0
-14.0,-255.0,-60.0,-37.0,69.0,-4.0,0
-14.0,-255.0,-63.0,-41.0,71.0,-3.0,0
-16.0,-253.0,-63.0,-43.0,71.0,-3.0,0
-14.0,-254.0,-59.0,-45.0,71.0,-2.0,0
-16.0,-253.0,-61.0,-48.0,70.0,0.0,0
-11.0,-256.0,-61.0,-54.0,68.0,0.0,0
-13.0,-254.0,-62.0,-60.0,64.0,0.0,0
-11.0,-254.0,-66.0,-67.0,62.0,1.0,0
-14.0,-251.0,-58.0,-74.0,60.0,2.0,0
-19.0,-253.0,-57.0,-80.0,59.0,3.0,0
-14.0,-251.0,-60.0,-86.0,57.0,4.0,0
-13.0,-253.0,-63.0,-93.0,57.0,4.0,0
-15.0,-253.0,-61.0,-99.0,55.0,4.0,0
-15.0,-252.0,-63.0,-105.0,53.0,4.0,0
-15.0,-253.0,-66.0,-112.0,49.0,4.0,0
-14.0,-252.0,-64.0,-120.0,48.0,4.0,0
-16.0,-249.0,-65.0,-128.0,44.0,2.0,0
-16.0,-252.0,-66.0,-137.0,44.0,2.0,0
-15.0,-248.0,-67.0,-145.0,42.0,2.0,0
-15.0,-248.0,-69.0,-155.0,42.0,1.0,0
-13.0,-246.0,-67.0,-165.0,41.0,-1.0,0
-14.0,-246.0,-71.0,-172.0,39.0,-1.0,0
-16.0,-245.0,-69.0,-181.0,36.0,-2.0,0
-16.0,-243.0,-73.0,-191.0,36.0,-3.0,0
-19.0,-243.0,-78.0,-203.0,33.0,-3.0,0
-17.0,-240.0,-74.0,-215.0,32.0,-3.0,0
-18.0,-240.0,-73.0,-228.0,30.0,-3.0,0
-18.0,-236.0,-72.0,-238.0,26.0,-3.0,0
-21.0,-235.0,-74.0,-246.0,24.0,-3.0,0
-19.0,-237.0,-76.0,-253.0,21.0,-2.0,0
-20.0,-235.0,-77.0,-258.0,20.0,-2.0,0
-20.0,-237.0,-75.0,-262.0,17.0,-1.0,0
-19.0,-236.0,-80.0,-267.0,18.0,-1.0,0
-20.0,-234.0,-79.0,-273.0,19.0,-1.0,0
-20.0,-231.0,-80.0,-279.0,20.0,-2.0,0
-20.0,-235.0,-77.0,-285.0,21.0,-4.0,0
-20.0,-228.0,-83.0,-291.0,22.0,-3.0,0
-16.0,-231.0,-83.0,-298.0,24.0,-3.0,0
-17.0,-227.0,-85.0,-304.0,26.0,-4.0,0
-16.0,-231.0,-82.0,-313.0,30.0,-7.0,0
-15.0,-228.0,-87.0,-324.0,33.0,-9.0,0
-14.0,-218.0,-92.0,-335.0,34.0,-11.0,0
-18.0,-224.0,-92.0,-351.0,35.0,-15.0,0
-19.0,-225.0,-93.0,-368.0,34.0,-17.0,0
-15.0,-225.0,-92.0,-385.0,29.0,-18.0,0
-16.0,-225.0,-96.0,-401.0,24.0,-19.0,0
-17.0,-221.0,-95.0,-413.0,21.0,-22.0,0
-13.0,-223.0,-98.0,-423.0,15.0,-23.0,0
-16.0,-221.0,-95.0,-426.0,16.0,-25.0,0
-14.0,-220.0,-101.0,-424.0,19.0,-28.0,0
-13.0,-216.0,-96.0,-416.0,26.0,-31.0,0
-12.0,-214.0,-98.0,-405.0,34.0,-34.0,0
-11.0,-206.0,-106.0,-392.0,43.0,-40.0,0
-10.0,-204.0,-103.0,-382.0,55.0,-44.0,0
-10.0,-197.0,-103.0,-375.0,66.0,-47.0,0
-8.0,-194.0,-106.0,-372.0,78.0,-51.0,0
-6.0,-191.0,-109.0,-375.0,92.0,-54.0,0
-7.0,-184.0,-112.0,-383.0,106.0,-58.0,0
-4.0,-178.0,-110.0,-393.0,120.0,-61.0,0
-4.0,-169.0,-109.0,-406.0,133.0,-63.0,0
-2.0,-160.0,-110.0,-419.0,144.0,-64.0,0
-2.0,-156.0,-109.0,-427.0,154.0,-66.0,0
1.0,-149.0,-104.0,-430.0,163.0,-67.0,0
0.0,-137.0,-98.0,-431.0,175.0,-68.0,0
3.0,-130.0,-99.0,-427.0,186.0,-70.0,0
0.0,-126.0,-95.0,-418.0,194.0,-68.0,0
4.0,-117.0,-90.0,-409.0,202.0,-69.0,0
4.0,-110.0,-84.0,-401.0,208.0,-67.0,0
4.0,-105.0,-82.0,-396.0,210.0,-67.0,0
3.0,-92.0,-76.0,-398.0,212.0,-65.0,0
0.0,-83.0,-74.0,-410.0,210.0,-63.0,0
3.0,-77.0,-67.0,-434.0,204.0,-61.0,0
4.0,-71.0,-64.0,-470.0,191.0,-59.0,0
3.0,-65.0,-58.0,-521.0,178.0,-59.0,0
1.0,-60.0,-53.0,-585.0,160.0,-56.0,0
-1.0,-55.0,-53.0,-661.0,144.0,-53.0,0
-1.0,-50.0,-49.0,-746.0,123.0,-46.0,0
-6.0,-50.0,-45.0,-841.0,104.0,-40.0,0
-4.0,-43.0,-44.0,-940.0,84.0,-32.0,0
-5.0,-42.0,-39.0,-1039.0,74.0,-31.0,0
-4.0,-40.0,-36.0,-1131.0,66.0,-28.0,0
-5.0,-40.0,-30.0,-1214.0,62.0,-19.0,0
-4.0,-42.0,-24.0,-1268.0,60.0,-16.0,0
-4.0,-41.0,-24.0,-1318.0,59.0,-25.0,0
-7.0,-42.0,-27.0,-1348.0,58.0,-36.0,0
-5.0,-45.0,-29.0,-1372.0,53.0,-48.0,0
-9.0,-50.0,-35.0,-1394.0,50.0,-54.0,0
-6.0,-56.0,-35.0,-1409.0,45.0,-56.0,0
-4.0,-64.0,-41.0,-1410.0,39.0,-60.0,0
-1.0,-65.0,-48.0,-1392.0,39.0,-65.0,0
-2.0,-73.0,-60.0,-1351.0,46.0,-74.0,0
4.0,-81.0,-68.0,-1287.0,65.0,-83.0,0
1.0,-88.0,-82.0,-1216.0,92.0,-95.0,0
1.0,-91.0,-97.0,-1147.0,126.0,-110.0,0
-1.0,-96.0,-113.0,-1098.0,151.0,-129.0,0
-4.0,-100.0,-125.0,-1079.0,149.0,-145.0,0
-10.0,-108.0,-136.0,-1096.0,111.0,-161.0,0
-11.0,-115.0,-142.0,-1141.0,40.0,-174.0,0
-18.0,-124.0,-141.0,-1192.0,-46.0,-180.0,0
-17.0,-133.0,-135.0,-1225.0,-131.0,-178.0,0
-21.0,-145.0,-125.0,-1222.0,-201.0,-174.0,0
-21.0,-166.0,-103.0,-1166.0,-249.0,-168.0,0
-17.0,-191.0,-86.0,-1053.0,-270.0,-162.0,0
-19.0,-214.0,-71.0,-888.0,-270.0,-154.0,0
-27.0,-246.0,-56.0,-687.0,-256.0,-144.0,0
-31.0,-273.0,-40.0,-463.0,-241.0,-134.0,0
-42.0,-309.0,-24.0,-203.0,-231.0,-133.0,0
-48.0,-346.0,-10.0,92.0,-238.0,-130.0,0
-54.0,-383.0,-5.0,423.0,-261.0,-123.0,0
-52.0,-413.0,-4.0,795.0,-279.0,-102.0,0
-46.0,-449.0,2.0,1198.0,-275.0,-83.0,0
-49.0,-479.0,2.0,1635.0,-248.0,-62.0,0
-53.0,-501.0,-8.0,2094.0,-220.0,-40.0,0
-38.0,-504.0,-25.0,2542.0,-198.0,-17.0,0
-39.0,-497.0,-33.0,2956.0,-171.0,-17.0,0
-32.0,-480.0,-28.0,3338.0,-144.0,-23.0,0
-25.0,-462.0,-29.0,3723.0,-107.0,-27.0,0
-11.0,-437.0,-34.0,4100.0,-66.0,-32.0,0
-11.0,-401.0,-60.0,4432.0,-36.0,-69.0,0
-11.0,-354.0,-77.0,4680.0,-22.0,-100.0,0
-7.0,-309.0,-97.0,4809.0,-18.0,-123.0,0
4.0,-259.0,-127.0,4793.0,-31.0,-142.0,0
8.0,-212.0,-157.0,4579.0,-58.0,-151.0,0
12.0,-164.0,-182.0,4141.0,-103.0,-142.0,0
26.0,-130.0,-199.0,3486.0,-149.0,-112.0,0
28.0,-109.0,-213.0,2642.0,-178.0,-74.0,0
31.0,-101.0,-215.0,1662.0,-196.0,-31.0,0
34.0,-112.0,-204.0,631.0,-208.0,-1.0,0
30.0,-129.0,-159.0,-340.0,-208.0,10.0,0
24.0,-164.0,-105.0,-1137.0,-190.0,22.0,0
22.0,-201.0,-49.0,-1694.0,-156.0,37.0,0
16.0,-247.0,-3.0,-2002.0,-121.0,43.0,0
9.0,-281.0,10.0,-2131.0,-128.0,64.0,0
4.0,-313.0,17.0,-2134.0,-186.0,75.0,0
4.0,-318.0,-8.0,-2037.0,-258.0,80.0,0
0.0,-313.0,-54.0,-1897.0,-298.0,80.0,0
-20.0,-320.0,-79.0,-1775.0,-302.0,68.0,0
1.0,-351.0,-122.0,-1696.0,-282.0,101.0,0
9.0,-342.0,-165.0,-1699.0,-278.0,167.0,0
-27.0,-325.0,-197.0,-1784.0,-332.0,213.0,0
-6.0,-321.0,-194.0,-1876.0,-387.0,273.0,0
-1.0,-346.0,-172.0,-1844.0,-301.0,318.0,0
-10.0,-387.0,-146.0,-1669.0,-111.0,332.0,0
-3.0,-412.0,-127.0,-1399.0,85.0,283.0,0
-35.0,-407.0,-118.0,-1045.0,232.0,154.0,0
-61.0,-390.0,-105.0,-652.0,268.0,113.0,0
-76.0,-383.0,-81.0,-261.0,233.0,125.0,0
-45.0,-362.0,-96.0,69.0,167.0,147.0,0
-60.0,-341.0,-98.0,291.0,142.0,149.0,0
-12.0,-327.0,-111.0,449.0,155.0,218.0,0
-17.0,-340.0,-101.0,519.0,209.0,229.0,0
-15.0,-327.0,-102.0,569.0,281.0,228.0,0
-8.0,-335.0,-91.0,581.0,330.0,216.0,0
-11.0,-325.0,-91.0,570.0,361.0,172.0,0
30.0,-321.0,-96.0,588.0,368.0,140.0,0
8.0,-328.0,-82.0,621.0,351.0,89.0,0
30.0,-314.0,-102.0,658.0,327.0,17.0,0
-12.0,-323.0,-75.0,720.0,311.0,-26.0,0
33.0,-296.0,-100.0,811.0,308.0,-50.0,0
-13.0,-297.0,-91.0,863.0,323.0,-121.0,0
-2.0,-300.0,-100.0,926.0,329.0,-148.0,0
-28.0,-308.0,-87.0,957.0,357.0,-161.0,0
4.0,-292.0,-104.0,1028.0,371.0,-152.0,0
-32.0,-298.0,-85.0,1050.0,387.0,-207.0,0
9.0,-304.0,-98.0,1079.0,376.0,-208.0,0
-41.0,-293.0,-85.0,1102.0,358.0,-255.0,0
-41.0,-287.0,-83.0,1128.0,319.0,-210.0,0
-61.0,-308.0,-70.0,1142.0,269.0,-150.0,0
2.0,-314.0,-107.0,1197.0,216.0,-60.0,0
-18.0,-297.0,-107.0,1180.0,200.0,-119.0,0
-40.0,-295.0,-97.0,1149.0,216.0,-152.0,0
-22.0,-304.0,-98.0,1128.0,226.0,-136.0,0
3.0,-313.0,-96.0,1099.0,233.0,-105.0,0
-20.0,-300.0,-103.0,1084.0,229.0,-99.0,0
23.0,-300.0,-108.0,1076.0,211.0,-71.0,0
-11.0,-299.0,-88.0,1051.0,193.0,-92.0,0
-33.0,-320.0,-65.0,1081.0,157.0,-78.0,0
1.0,-325.0,-71.0,1190.0,103.0,-38.0,0
-11.0,-307.0,-70.0,1305.0,69.0,-75.0,0
-6.0,-296.0,-63.0,1378.0,64.0,-111.0,0
-22.0,-296.0,-53.0,1458.0,76.0,-152.0,0
-15.0,-288.0,-52.0,1526.0,88.0,-160.0,0
-13.0,-277.0,-53.0,1587.0,101.0,-168.0,0
-12.0,-273.0,-52.0,1620.0,112.0,-174.0,0
-12.0,-269.0,-43.0,1637.0,123.0,-177.0,0
-10.0,-265.0,-37.0,1658.0,126.0,-174.0,0
5.0,-214.0,-18.0,1687.0,119.0,-165.0,0
13.0,-136.0,-29.0,1728.0,95.0,-159.0,0
-19.0,-163.0,-56.0,1656.0,45.0,-174.0,0
-48.0,-274.0,-39.0,1422.0,1.0,-156.0,0
-10.0,-448.0,41.0,1210.0,1.0,-114.0,0
5.0,-500.0,113.0,1240.0,55.0,-83.0,0
-7.0,-576.0,148.0,1494.0,57.0,-96.0,0
-46.0,-670.0,172.0,1878.0,13.0,-128.0,0
-29.0,-776.0,105.0,2421.0,-10.0,-144.0,0
-84.0,-822.0,-40.0,2969.0,28.0,-287.0,0
-68.0,-807.0,-217.0,3076.0,90.0,-260.0,0
16.0,-727.0,-336.0,2549.0,126.0,-309.0,0
24.0,-581.0,-376.0,1617.0,160.0,-447.0,0
-18.0,-504.0,-212.0,740.0,234.0,-423.0,0
15.0,-412.0,-78.0,489.0,273.0,-280.0,0
13.0,-322.0,-4.0,583.0,252.0,-207.0,0
17.0,-284.0,55.0,626.0,204.0,-155.0,0
-8.0,-233.0,72.0,647.0,164.0,-114.0,0
-31.0,-186.0,48.0,686.0,156.0,-86.0,0
-26.0,-153.0,0.0,721.0,186.0,-44.0,0
-31.0,-138.0,-53.0,697.0,240.0,-20.0,0
-47.0,-132.0,-93.0,618.0,282.0,-19.0,0
-49.0,-142.0,-112.0,518.0,295.0,-23.0,0
-46.0,-166.0,-119.0,451.0,293.0,-29.0,0
-39.0,-187.0,-120.0,443.0,305.0,-56.0,0
-37.0,-198.0,-101.0,480.0,336.0,-92.0,0
-34.0,-203.0,-79.0,542.0,357.0,-113.0,0
-31.0,-199.0,-73.0,604.0,356.0,-111.0,0
-18.0,-196.0,-40.0,632.0,342.0,-87.0,0
1.0,-182.0,11.0,648.0,289.0,-60.0,0
10.0,-186.0,59.0,679.0,208.0,-42.0,0
8.0,-187.0,84.0,712.0,140.0,-30.0,0
20.0,-188.0,110.0,742.0,83.0,-23.0,0
23.0,-205.0,120.0,718.0,69.0,-20.0,0
19.0,-212.0,142.0,651.0,65.0,-29.0,0
9.0,-244.0,157.0,591.0,49.0,-46.0,0
14.0,-253.0,171.0,565.0,32.0,-55.0,0
15.0,-273.0,150.0,569.0,34.0,-61.0,0
16.0,-290.0,142.0,578.0,49.0,-66.0,0
10.0,-286.0,151.0,604.0,61.0,-64.0,0
3.0,-292.0,138.0,664.0,66.0,-46.0,0
0.0,-295.0,113.0,747.0,67.0,-16.0,0
5.0,-288.0,108.0,816.0,77.0,11.0,0
8.0,-279.0,101.0,852.0,90.0,16.0,0
14.0,-269.0,86.0,862.0,110.0,12.0,0
12.0,-271.0,80.0,833.0,131.0,-6.0,0
8.0,-259.0,88.0,793.0,167.0,-14.0,0
6.0,-262.0,96.0,734.0,188.0,-27.0,0
-7.0,-265.0,96.0,698.0,196.0,-27.0,0
0.0,-259.0,89.0,688.0,192.0,-19.0,0
-5.0,-253.0,76.0,695.0,183.0,-15.0,0
-11.0,-240.0,63.0,674.0,165.0,-8.0,0
-13.0,-233.0,47.0,617.0,144.0,7.0,0
-14.0,-231.0,46.0,531.0,118.0,24.0,0
-13.0,-230.0,40.0,446.0,98.0,43.0,0
-16.0,-235.0,40.0,366.0,71.0,63.0,0
-19.0,-238.0,41.0,308.0,48.0,80.0,0
-19.0,-246.0,43.0,282.0,28.0,94.0,0
-20.0,-245.0,52.0,281.0,8.0,105.0,0
-18.0,-256.0,51.0,307.0,-2.0,112.0,0
-20.0,-260.0,58.0,350.0,-7.0,115.0,0
-17.0,-266.0,56.0,396.0,-7.0,113.0,0
-15.0,-267.0,56.0,435.0,5.0,101.0,0
-11.0,-263.0,54.0,434.0,1.0,89.0,0
-8.0,-265.0,64.0,413.0,11.0,67.0,0
-4.0,-266.0,71.0,419.0,53.0,53.0,0
-4.0,-268.0,75.0,447.0,108.0,34.0,0
-11.0,-265.0,80.0,485.0,154.0,18.0,0
-6.0,-264.0,87.0,525.0,184.0,3.0,0
-11.0,-260.0,87.0,560.0,195.0,-11.0,0
-10.0,-256.0,88.0,592.0,199.0,-15.0,0
-5.0,-256.0,90.0,619.0,196.0,-17.0,0
-9.0,-250.0,89.0,639.0,191.0,-22.0,0
-11.0,-248.0,88.0,653.0,182.0,-19.0,0
-8.0,-249.0,87.0,653.0,175.0,-17.0,0
-8.0,-246.0,83.0,644.0,166.0,-8.0,0
-4.0,-244.0,85.0,626.0,155.0,-1.0,0
-7.0,-242.0,76.0,605.0,145.0,2.0,0
-3.0,-242.0,80.0,576.0,133.0,5.0,0
3.0,-241.0,77.0,549.0,120.0,6.0,0
2.0,-235.0,68.0,521.0,109.0,6.0,0
4.0,-247.0,77.0,492.0,100.0,7.0,0
10.0,-237.0,78.0,464.0,91.0,7.0,0
3.0,-240.0,71.0,438.0,84.0,6.0,0
4.0,-242.0,69.0,417.0,80.0,6.0,0
4.0,-243.0,69.0,397.0,81.0,4.0,0
5.0,-248.0,71.0,379.0,83.0,2.0,0
5.0,-251.0,71.0,363.0,85.0,2.0,0
6.0,-253.0,71.0,350.0,85.0,4.0,0
3.0,-255.0,75.0,337.0,79.0,8.0,0
4.0,-252.0,78.0,327.0,66.0,17.0,0
4.0,-254.0,75.0,319.0,52.0,20.0,0
4.0,-255.0,78.0,316.0,40.0,26.0,0
3.0,-255.0,82.0,314.0,32.0,28.0,0
2.0,-257.0,85.0,314.0,31.0,24.0,0
4.0,-262.0,82.0,317.0,34.0,22.0,0
4.0,-259.0,83.0,316.0,41.0,15.0,0
0.0,-258.0,86.0,317.0,50.0,7.0,0
4.0,-264.0,81.0,314.0,57.0,2.0,0
0.0,-261.0,79.0,310.0,66.0,-8.0,0
1.0,-263.0,82.0,308.0,73.0,-16.0,0
0.0,-263.0,88.0,304.0,77.0,-19.0,0
-3.0,-262.0,80.0,301.0,81.0,-21.0,0
-5.0,-268.0,76.0,301.0,82.0,-25.0,0
-3.0,-262.0,74.0,299.0,79.0,-30.0,0
-6.0,-258.0,77.0,300.0,73.0,-31.0,0
-6.0,-257.0,71.0,299.0,64.0,-29.0,0
-6.0,-255.0,72.0,298.0,54.0,-30.0,0
-3.0,-254.0,67.0,292.0,45.0,-26.0,0
-9.0,-248.0,68.0,279.0,37.0,-29.0,0
-8.0,-246.0,71.0,261.0,29.0,-28.0,0
-9.0,-246.0,73.0,237.0,26.0,-27.0,0
-7.0,-244.0,71.0,208.0,20.0,-28.0,0
-8.0,-243.0,76.0,177.0,16.0,-25.0,0
-5.0,-242.0,75.0,144.0,12.0,-20.0,0
-7.0,-240.0,77.0,111.0,8.0,-20.0,0
-8.0,-239.0,79.0,78.0,10.0,-15.0,0
-9.0,-245.0,82.0,45.0,14.0,-11.0,0
-7.0,-243.0,80.0,15.0,20.0,-10.0,0
-6.0,-247.0,80.0,-16.0,30.0,-7.0,0
-7.0,-248.0,78.0,-44.0,39.0,-6.0,0
-4.0,-255.0,78.0,-70.0,48.0,-6.0,0
-4.0,-251.0,75.0,-89.0,55.0,-7.0,0
-6.0,-255.0,77.0,-98.0,59.0,-9.0,0
1.0,-263.0,72.0,-98.0,63.0,-10.0,0
-5.0,-258.0,78.0,-92.0,66.0,-11.0,0
-4.0,-258.0,79.0,-80.0,68.0,-11.0,0
-6.0,-261.0,79.0,-64.0,70.0,-13.0,0
-5.0,-263.0,75.0,-47.0,70.0,-14.0,0
-3.0,-262.0,83.0,-29.0,71.0,-12.0,0
-2.0,-264.0,82.0,-10.0,73.0,-13.0,0
1.0,-262.0,79.0,4.0,75.0,-13.0,0
1.0,-264.0,80.0,23.0,76.0,-14.0,0
0.0,-262.0,80.0,37.0,76.0,-14.0,0
0.0,-260.0,86.0,48.0,73.0,-14.0,0
-1.0,-260.0,84.0,57.0,69.0,-13.0,0
1.0,-259.0,82.0,67.0,64.0,-13.0,0
1.0,-260.0,81.0,76.0,60.0,-13.0,0
-3.0,-259.0,84.0,86.0,56.0,-12.0,0
0.0,-260.0,85.0,93.0,50.0,-11.0,0
1.0,-258.0,83.0,98.0,46.0,-11.0,0
1.0,-260.0,82.0,103.0,40.0,-12.0,0
-4.0,-253.0,77.0,105.0,39.0,-10.0,0
-4.0,-253.0,81.0,106.0,43.0,-10.0,0
-4.0,-251.0,83.0,103.0,49.0,-9.0,0
-5.0,-246.0,80.0,100.0,55.0,-8.0,0
-3.0,-248.0,85.0,92.0,62.0,-8.0,0
0.0,-247.0,81.0,83.0,66.0,-7.0,0
-5.0,-243.0,87.0,77.0,68.0,-2.0,0
-7.0,-245.0,90.0,70.0,67.0,2.0,0
-2.0,-246.0,92.0,62.0,65.0,6.0,0
1.0,-249.0,90.0,55.0,59.0,9.0,0
-3.0,-244.0,86.0,49.0,55.0,13.0,0
0.0,-248.0,90.0,45.0,53.0,15.0,0
-4.0,-248.0,89.0,44.0,48.0,16.0,0
-3.0,-249.0,90.0,45.0,44.0,17.0,0
-3.0,-251.0,86.0,48.0,40.0,15.0,0
-3.0,-250.0,91.0,50.0,38.0,12.0,0
-1.0,-255.0,86.0,49.0,34.0,11.0,0
-4.0,-252.0,84.0,50.0,32.0,9.0,0
-3.0,-254.0,87.0,48.0,30.0,7.0,0
-5.0,-252.0,85.0,46.0,30.0,5.0,0
-1.0,-252.0,84.0,44.0,30.0,6.0,0
-4.0,-252.0,85.0,42.0,31.0,5.0,0
-3.0,-249.0,83.0,35.0,32.0,6.0,0
-1.0,-250.0,86.0,28.0,35.0,9.0,0
-3.0,-249.0,87.0,20.0,37.0,12.0,0
0.0,-249.0,90.0,14.0,44.0,13.0,0
3.0,-250.0,95.0,7.0,49.0,12.0,0
-1.0,-253.0,95.0,6.0,50.0,11.0,0
0.0,-252.0,95.0,9.0,47.0,9.0,0
1.0,-251.0,95.0,14.0,43.0,7.0,0
4.0,-251.0,94.0,17.0,36.0,7.0,0
2.0,-252.0,99.0,22.0,30.0,4.0,0
0.0,-250.0,97.0,22.0,26.0,6.0,0
-1.0,-252.0,94.0,24.0,21.0,4.0,0
-1.0,-253.0,93.0,27.0,23.0,4.0,0
-2.0,-253.0,95.0,30.0,25.0,4.0,0
-2.0,-252.0,92.0,30.0,25.0,3.0,0
-4.0,-252.0,89.0,28.0,29.0,4.0,0
-1.0,-252.0,86.0,23.0,31.0,6.0,0
-4.0,-252.0,87.0,16.0,34.0,7.0,0
-3.0,-250.0,87.0,5.0,37.0,6.0,0
-5.0,-254.0,87.0,-8.0,40.0,6.0,0
-5.0,-253.0,86.0,-19.0,43.0,6.0,0
0.0,-253.0,85.0,-30.0,46.0,6.0,0
0.0,-254.0,83.0,-39.0,49.0,4.0,0
-7.0,-256.0,83.0,-42.0,53.0,2.0,0
1.0,-255.0,84.0,-44.0,56.0,-2.0,0
-1.0,-255.0,84.0,-43.0,61.0,-5.0,0
-3.0,-255.0,86.0,-39.0,64.0,-8.0,0
-3.0,-257.0,87.0,-34.0,67.0,-11.0,0
-4.0,-256.0,79.0,-30.0,69.0,-13.0,0
-3.0,-257.0,78.0,-25.0,71.0,-12.0,0
-4.0,-257.0,78.0,-22.0,70.0,-13.0,0
-5.0,-254.0,76.0,-22.0,67.0,-13.0,0
-3.0,-257.0,79.0,-23.0,61.0,-10.0,0
-6.0,-254.0,78.0,-25.0,53.0,-10.0,0
-4.0,-257.0,79.0,-29.0,48.0,-7.0,0
-3.0,-254.0,78.0,-36.0,45.0,-6.0,0
2.0,-258.0,77.0,-43.0,44.0,-3.0,0
-5.0,-255.0,80.0,-47.0,45.0,-1.0,0
-1.0,-256.0,79.0,-49.0,50.0,-1.0,0
-4.0,-259.0,81.0,-51.0,54.0,-2.0,0
-1.0,-259.0,82.0,-46.0,61.0,-2.0,0
-1.0,-260.0,84.0,-39.0,67.0,-4.0,0
-1.0,-259.0,82.0,-31.0,73.0,-6.0,0
3.0,-260.0,81.0,-24.0,77.0,-8.0,0
0.0,-260.0,81.0,-14.0,78.0,-9.0,0
0.0,-259.0,78.0,-7.0,80.0,-10.0,0
1.0,-260.0,78.0,-4.0,79.0,-11.0,0
4.0,-258.0,76.0,-2.0,78.0,-13.0,0
2.0,-258.0,78.0,-1.0,78.0,-12.0,0
-2.0,-258.0,81.0,-2.0,77.0,-13.0,0
-1.0,-257.0,76.0,-5.0,77.0,-13.0,0
-2.0,-256.0,75.0,-6.0,77.0,-14.0,0
-4.0,-258.0,75.0,-7.0,78.0,-14.0,0
-6.0,-258.0,79.0,-5.0,78.0,-16.0,0
-5.0,-258.0,76.0,-2.0,76.0,-12.0,0
-5.0,-257.0,76.0,2.0,76.0,-11.0,0
-4.0,-256.0,82.0,8.0,76.0,-10.0,0
-1.0,-258.0,82.0,16.0,74.0,-8.0,0
-4.0,-256.0,85.0,27.0,72.0,-8.0,0
-3.0,-255.0,85.0,34.0,71.0,-8.0,0
-6.0,-256.0,84.0,42.0,71.0,-7.0,0
-6.0,-254.0,83.0,48.0,67.0,-8.0,0
-3.0,-256.0,87.0,52.0,64.0,-6.0,0
-4.0,-255.0,86.0,55.0,62.0,-6.0,0
-3.0,-254.0,87.0,54.0,63.0,-7.0,0
-2.0,-254.0,90.0,52.0,62.0,-7.0,0
-6.0,-251.0,90.0,46.0,61.0,-6.0,0
-5.0,-251.0,90.0,43.0,62.0,-6.0,0
-5.0,-253.0,85.0,41.0,62.0,-5.0,0
-2.0,-253.0,91.0,38.0,62.0,-5.0,0
-1.0,-252.0,86.0,35.0,62.0,-3.0,0
-3.0,-252.0,89.0,34.0,61.0,-3.0,0
0.0,-253.0,90.0,30.0,61.0,-4.0,0
-3.0,-248.0,88.0,25.0,60.0,-2.0,0
-2.0,-251.0,91.0,21.0,60.0,1.0,0
0.0,-250.0,86.0,13.0,60.0,2.0,0
-5.0,-250.0,84.0,9.0,59.0,4.0,0
-1.0,-247.0,83.0,2.0,58.0,5.0,0
-5.0,-250.0,85.0,-7.0,59.0,5.0,0
-4.0,-250.0,85.0,-13.0,61.0,5.0,0
-2.0,-252.0,90.0,-15.0,64.0,4.0,0
-4.0,-251.0,89.0,-15.0,67.0,2.0,0
-2.0,-251.0,88.0,-12.0,73.0,1.0,0
-2.0,-251.0,89.0,-7.0,80.0,-2.0,0
0.0,-253.0,85.0,-1.0,85.0,-4.0,0
2.0,-253.0,90.0,4.0,91.0,-7.0,0
1.0,-251.0,89.0,5.0,95.0,-10.0,0
-1.0,-251.0,92.0,6.0,99.0,-11.0,0
-2.0,-253.0,94.0,6.0,100.0,-13.0,0
2.0,-252.0,92.0,5.0,100.0,-14.0,0
-1.0,-250.0,90.0,4.0,99.0,-14.0,0
0.0,-251.0,93.0,2.0,97.0,-14.0,0
-2.0,-253.0,88.0,-1.0,98.0,-13.0,0
-2.0,-252.0,93.0,-2.0,99.0,-12.0,0
-2.0,-252.0,85.0,-6.0,101.0,-11.0,0
-3.0,-252.0,89.0,-8.0,103.0,-12.0,0
-3.0,-252.0,92.0,-8.0,103.0,-9.0,0
-3.0,-252.0,91.0,-7.0,103.0,-9.0,0
-1.0,-254.0,89.0,-6.0,99.0,-8.0,0
-3.0,-252.0,90.0,-5.0,96.0,-6.0,0
-1.0,-252.0,91.0,-4.0,92.0,-5.0,0
-1.0,-254.0,90.0,-5.0,87.0,-4.0,0
-3.0,-249.0,93.0,-8.0,84.0,0.0,0
-2.0,-252.0,86.0,-11.0,81.0,0.0,0
-4.0,-254.0,88.0,-12.0,81.0,0.0,0
-5.0,-251.0,88.0,-14.0,82.0,-1.0,0
-2.0,-253.0,86.0,-17.0,83.0,-1.0,0
-3.0,-252.0,84.0,-15.0,82.0,0.0,0
-4.0,-257.0,89.0,-14.0,80.0,1.0,0
-5.0,-255.0,81.0,-10.0,76.0,2.0,0
-3.0,-257.0,85.0,-6.0,73.0,3.0,0
-4.0,-257.0,83.0,1.0,70.0,2.0,0
-2.0,-255.0,87.0,10.0,70.0,2.0,0
-3.0,-256.0,84.0,16.0,69.0,2.0,0
-1.0,-255.0,86.0,22.0,69.0,3.0,0
-6.0,-255.0,85.0,28.0,68.0,0.0,0
1.0,-257.0,88.0,31.0,66.0,0.0,0
-6.0,-253.0,85.0,34.0,64.0,-1.0,0
-2.0,-256.0,85.0,35.0,63.0,0.0,0
-3.0,-256.0,84.0,37.0,63.0,0.0,0
-1.0,-255.0,87.0,36.0,62.0,1.0,0
-3.0,-253.0,89.0,35.0,63.0,0.0,0
-4.0,-255.0,89.0,32.0,61.0,0.0,0
-3.0,-252.0,90.0,29.0,64.0,0.0,0
-3.0,-252.0,89.0,26.0,65.0,-1.0,0
0.0,-249.0,91.0,27.0,64.0,0.0,0
-2.0,-253.0,94.0,25.0,63.0,2.0,0
-1.0,-250.0,90.0,22.0,62.0,3.0,0
0.0,-252.0,93.0,19.0,61.0,4.0,0
-5.0,-251.0,94.0,17.0,60.0,4.0,0
-2.0,-251.0,92.0,14.0,58.0,4.0,0
-4.0,-249.0,93.0,11.0,58.0,4.0,0
-2.0,-250.0,94.0,8.0,58.0,2.0,0
-3.0,-251.0,88.0,7.0,62.0,2.0,0
-2.0,-252.0,91.0,6.0,63.0,0.0,0
-2.0,-252.0,91.0,5.0,66.0,-1.0,0
0.0,-252.0,93.0,1.0,69.0,-3.0,0
-2.0,-253.0,90.0,3.0,69.0,-3.0,0
-6.0,-253.0,88.0,3.0,68.0,-4.0,0
-4.0,-253.0,89.0,2.0,68.0,-1.0,0
-6.0,-252.0,89.0,0.0,68.0,-2.0,0
-5.0,-252.0,88.0,-4.0,68.0,-3.0,0
-3.0,-250.0,84.0,-9.0,69.0,-1.0,0
-3.0,-253.0,89.0,-14.0,68.0,2.0,0
-4.0,-249.0,88.0,-15.0,66.0,2.0,0
-4.0,-254.0,94.0,-13.0,64.0,3.0,0
-5.0,-253.0,91.0,-10.0,63.0,6.0,0
-1.0,-252.0,91.0,-4.0,61.0,6.0,0
-5.0,-254.0,92.0,2.0,63.0,6.0,0
-8.0,-251.0,91.0,6.0,62.0,6.0,0
-5.0,-252.0,92.0,9.0,63.0,4.0,0
-4.0,-255.0,90.0,12.0,65.0,4.0,0
-5.0,-255.0,91.0,15.0,68.0,1.0,0
-4.0,-254.0,92.0,17.0,70.0,0.0,0
-5.0,-250.0,90.0,18.0,71.0,-1.0,0
-6.0,-253.0,88.0,20.0,72.0,-1.0,0
-5.0,-248.0,86.0,22.0,73.0,-2.0,0
-1.0,-253.0,89.0,25.0,75.0,-3.0,0
-3.0,-255.0,89.0,27.0,77.0,-5.0,0
-4.0,-253.0,85.0,28.0,80.0,-5.0,0
-4.0,-254.0,90.0,27.0,84.0,-6.0,0
-2.0,-255.0,91.0,25.0,87.0,-6.0,0
0.0,-255.0,93.0,23.0,87.0,-8.0,0
-1.0,-250.0,92.0,22.0,87.0,-8.0,0
-1.0,-250.0,94.0,21.0,88.0,-10.0,0
3.0,-251.0,90.0,20.0,87.0,-10.0,0
3.0,-249.0,90.0,18.0,90.0,-10.0,0
3.0,-252.0,93.0,17.0,87.0,-8.0,0
2.0,-250.0,91.0,14.0,86.0,-9.0,0
1.0,-251.0,86.0,9.0,81.0,-8.0,0
2.0,-252.0,86.0,3.0,74.0,-5.0,0
4.0,-252.0,90.0,-4.0,66.0,-1.0,0
0.0,-250.0,88.0,-11.0,60.0,2.0,0
-2.0,-252.0,91.0,-20.0,54.0,7.0,0
2.0,-251.0,89.0,-27.0,52.0,8.0,0
-4.0,-251.0,88.0,-31.0,53.0,10.0,0
-5.0,-252.0,91.0,-37.0,56.0,10.0,0
-2.0,-248.0,89.0,-40.0,60.0,11.0,0
-3.0,-254.0,92.0,-42.0,64.0,11.0,0
-7.0,-255.0,90.0,-39.0,67.0,10.0,0
-4.0,-251.0,84.0,-33.0,69.0,11.0,0
-4.0,-254.0,88.0,-29.0,70.0,10.0,0
-5.0,-254.0,89.0,-22.0,68.0,8.0,0
-5.0,-254.0,94.0,-16.0,66.0,7.0,0
-4.0,-254.0,90.0,-11.0,64.0,5.0,0
-5.0,-254.0,91.0,-4.0,64.0,2.0,0
-2.0,-255.0,89.0,2.0,67.0,2.0,0
-4.0,-252.0,88.0,5.0,68.0,-1.0,0
-4.0,-252.0,87.0,8.0,70.0,-3.0,0
-5.0,-251.0,89.0,8.0,71.0,-5.0,0
-5.0,-254.0,90.0,6.0,72.0,-7.0,0
-3.0,-255.0,89.0,3.0,72.0,-7.0,0
-4.0,-254.0,91.0,1.0,71.0,-7.0,0
-1.0,-255.0,90.0,0.0,72.0,-8.0,0
-2.0,-255.0,90.0,-2.0,70.0,-7.0,0
-4.0,-252.0,91.0,-4.0,69.0,-7.0,0
-3.0,-252.0,88.0,-6.0,70.0,-5.0,0
-3.0,-256.0,91.0,-5.0,67.0,-2.0,0
-2.0,-256.0,98.0,-3.0,67.0,-2.0,0
-4.0,-255.0,88.0,-2.0,66.0,-1.0,0
-3.0,-253.0,92.0,2.0,66.0,-1.0,0
-2.0,-252.0,92.0,4.0,67.0,1.0,0
-7.0,-255.0,91.0,7.0,66.0,1.0,0
-5.0,-255.0,90.0,11.0,67.0,0.0,0
-5.0,-253.0,89.0,11.0,68.0,0.0,0
-1.0,-252.0,90.0,9.0,70.0,0.0,0
-3.0,-253.0,92.0,6.0,72.0,1.0,0
-3.0,-255.0,86.0,4.0,71.0,0.0,0
-7.0,-253.0,89.0,2.0,71.0,-2.0,0
-4.0,-251.0,89.0,1.0,69.0,-3.0,0
-3.0,-252.0,87.0,-1.0,66.0,-5.0,0
-6.0,-253.0,90.0,-2.0,66.0,-6.0,0
-5.0,-250.0,89.0,-2.0,64.0,-6.0,0
-7.0,-253.0,92.0,-4.0,64.0,-7.0,0
-5.0,-252.0,89.0,-5.0,65.0,-6.0,0
-5.0,-251.0,88.0,-6.0,66.0,-7.0,0
-5.0,-253.0,88.0,-7.0,66.0,-8.0,0
-5.0,-251.0,90.0,-8.0,68.0,-9.0,0
-2.0,-253.0,93.0,-6.0,68.0,-9.0,0
-4.0,-254.0,94.0,-4.0,68.0,-8.0,0
-4.0,-249.0,89.0,-3.0,67.0,-7.0,0
-6.0,-254.0,90.0,-1.0,65.0,-7.0,0
-6.0,-253.0,91.0,0.0,65.0,-8.0,0
-5.0,-254.0,94.0,1.0,66.0,-6.0,0
-1.0,-253.0,89.0,1.0,66.0,-7.0,0
-1.0,-254.0,90.0,4.0,66.0,-5.0,0
-4.0,-251.0,92.0,3.0,69.0,-5.0,0
-6.0,-249.0,86.0,5.0,70.0,-6.0,0
-4.0,-253.0,89.0,5.0,69.0,-5.0,0
2.0,-253.0,91.0,4.0,70.0,-4.0,0
-3.0,-254.0,91.0,3.0,68.0,-4.0,0
-2.0,-253.0,92.0,1.0,65.0,-3.0,0
-6.0,-251.0,93.0,0.0,64.0,-4.0,0
-1.0,-252.0,92.0,-3.0,63.0,-6.0,0
-2.0,-251.0,91.0,-3.0,61.0,-5.0,0
-2.0,-254.0,94.0,-3.0,59.0,-4.0,0
-3.0,-251.0,95.0,-4.0,61.0,-4.0,0
-2.0,-252.0,90.0,-2.0,63.0,-2.0,0
-4.0,-252.0,90.0,-2.0,64.0,-2.0,0
-4.0,-250.0,89.0,-3.0,65.0,-2.0,0
-1.0,-252.0,92.0,-4.0,65.0,-2.0,0
-1.0,-254.0,92.0,-6.0,66.0,-1.0,0
4.0,-257.0,98.0,-8.0,68.0,0.0,0
-2.0,-253.0,90.0,-8.0,66.0,0.0,0
-3.0,-250.0,94.0,-4.0,66.0,1.0,0
-3.0,-253.0,91.0,-1.0,65.0,1.0,0
-2.0,-251.0,94.0,3.0,64.0,2.0,0
-2.0,-251.0,95.0,7.0,64.0,3.0,0
-2.0,-251.0,92.0,10.0,64.0,3.0,0
0.0,-251.0,89.0,12.0,64.0,2.0,0
-3.0,-253.0,90.0,12.0,60.0,3.0,0
-2.0,-252.0,92.0,12.0,60.0,3.0,0
-3.0,-249.0,89.0,10.0,60.0,2.0,0
-1.0,-251.0,91.0,8.0,61.0,3.0,0
-3.0,-251.0,91.0,6.0,60.0,2.0,0
-2.0,-250.0,90.0,4.0,59.0,2.0,0
-4.0,-253.0,91.0,2.0,60.0,2.0,0
-5.0,-252.0,92.0,2.0,63.0,2.0,0
-2.0,-252.0,94.0,1.0,64.0,1.0,0
0.0,-254.0,93.0,2.0,65.0,1.0,0
1.0,-254.0,94.0,4.0,66.0,0.0,0
-4.0,-253.0,94.0,6.0,66.0,-1.0,0
-4.0,-256.0,90.0,10.0,66.0,-1.0,0
1.0,-256.0,89.0,14.0,65.0,-2.0,0
-4.0,-254.0,90.0,16.0,66.0,-1.0,0
-3.0,-254.0,88.0,15.0,67.0,-3.0,0
-1.0,-251.0,87.0,16.0,68.0,-3.0,0
-1.0,-250.0,87.0,13.0,70.0,-5.0,0
-4.0,-250.0,91.0,10.0,72.0,-4.0,0
-6.0,-252.0,91.0,6.0,72.0,-4.0,0
-4.0,-252.0,91.0,4.0,72.0,-4.0,0
-3.0,-250.0,93.0,1.0,72.0,-5.0,0
-1.0,-250.0,93.0,1.0,72.0,-5.0,0
-2.0,-252.0,90.0,1.0,71.0,-4.0,0
-3.0,-251.0,97.0,-1.0,69.0,-3.0,0
-1.0,-250.0,93.0,-2.0,68.0,-2.0,0
-3.0,-252.0,92.0,-4.0,68.0,0.0,0
-3.0,-251.0,91.0,-5.0,69.0,1.0,0
-4.0,-251.0,93.0,-7.0,69.0,2.0,0
-6.0,-249.0,95.0,-10.0,69.0,3.0,0
-3.0,-252.0,96.0,-12.0,69.0,2.0,0
-6.0,-253.0,90.0,-15.0,69.0,3.0,0
-1.0,-253.0,94.0,-22.0,68.0,3.0,0
-3.0,-251.0,89.0,-25.0,68.0,1.0,0
-3.0,-250.0,89.0,-28.0,69.0,-1.0,0
-6.0,-250.0,90.0,-30.0,71.0,0.0,0
-4.0,-245.0,88.0,-27.0,71.0,-3.0,0
-5.0,-251.0,92.0,-25.0,73.0,-4.0,0
-7.0,-249.0,95.0,-22.0,73.0,-7.0,0
-5.0,-251.0,90.0,-19.0,73.0,-8.0,0
-5.0,-253.0,95.0,-17.0,73.0,-8.0,0
-7.0,-254.0,93.0,-15.0,74.0,-7.0,0
-5.0,-248.0,93.0,-14.0,71.0,-7.0,0
-3.0,-253.0,90.0,-15.0,69.0,-8.0,0
-4.0,-254.0,91.0,-14.0,68.0,-6.0,0
-5.0,-251.0,90.0,-14.0,68.0,-5.0,0
-1.0,-251.0,94.0,-15.0,66.0,-5.0,0
0.0,-252.0,90.0,-13.0,66.0,-6.0,0
1.0,-251.0,93.0,-15.0,67.0,-3.0,0
-3.0,-250.0,91.0,-15.0,68.0,-3.0,0
-3.0,-253.0,91.0,-16.0,68.0,-3.0,0
-1.0,-253.0,91.0,-17.0,68.0,-1.0,0
-1.0,-253.0,95.0,-16.0,68.0,-3.0,0
-3.0,-254.0,92.0,-14.0,65.0,-3.0,0
-3.0,-252.0,95.0,-13.0,63.0,-3.0,0
-2.0,-255.0,90.0,-13.0,60.0,-1.0,0
-4.0,-251.0,90.0,-11.0,59.0,0.0,0
-5.0,-253.0,91.0,-12.0,58.0,-1.0,0
-7.0,-250.0,84.0,-11.0,57.0,1.0,0
-2.0,-251.0,89.0,-12.0,55.0,1.0,0
-3.0,-249.0,88.0,-14.0,56.0,0.0,0
-3.0,-252.0,86.0,-14.0,58.0,-1.0,0
-3.0,-252.0,93.0,-13.0,61.0,-1.0,0
-3.0,-254.0,92.0,-13.0,62.0,-1.0,0
-4.0,-253.0,94.0,-12.0,64.0,-2.0,0
-5.0,-252.0,92.0,-12.0,66.0,-2.0,0
-4.0,-254.0,92.0,-10.0,66.0,-3.0,0
-6.0,-252.0,92.0,-8.0,70.0,-4.0,0
-3.0,-253.0,93.0,-5.0,72.0,-5.0,0
-6.0,-252.0,91.0,-1.0,73.0,-5.0,0
-4.0,-253.0,93.0,3.0,72.0,-5.0,0
-4.0,-254.0,93.0,4.0,71.0,-5.0,0
-3.0,-251.0,90.0,3.0,72.0,-4.0,0
-3.0,-255.0,88.0,2.0,71.0,-4.0,0
-4.0,-252.0,92.0,0.0,70.0,-3.0,0
-2.0,-252.0,95.0,-2.0,72.0,-4.0,0
-2.0,-252.0,92.0,-3.0,73.0,-5.0,0
-4.0,-250.0,92.0,-4.0,74.0,-6.0,0
-2.0,-252.0,95.0,-2.0,75.0,-6.0,0
-4.0,-252.0,91.0,-3.0,77.0,-8.0,0
-3.0,-253.0,89.0,-2.0,79.0,-8.0,0
0.0,-253.0,91.0,-1.0,78.0,-9.0,0
-5.0,-250.0,95.0,2.0,78.0,-8.0,0
-3.0,-250.0,91.0,5.0,76.0,-6.0,0
-2.0,-253.0,91.0,5.0,77.0,-6.0,0
-2.0,-253.0,95.0,6.0,76.0,-6.0,0
0.0,-252.0,93.0,7.0,77.0,-7.0,0
-1.0,-252.0,90.0,6.0,77.0,-5.0,0
-2.0,-251.0,91.0,4.0,77.0,-5.0,0
-3.0,-251.0,92.0,5.0,76.0,-4.0,0
-5.0,-247.0,91.0,5.0,74.0,-3.0,0
-3.0,-251.0,89.0,3.0,73.0,-2.0,0
-3.0,-251.0,90.0,4.0,72.0,0.0,0
-6.0,-253.0,89.0,4.0,71.0,2.0,0
-2.0,-251.0,89.0,3.0,71.0,2.0,0
-6.0,-252.0,92.0,2.0,71.0,2.0,0
-4.0,-253.0,90.0,1.0,72.0,2.0,0
-4.0,-253.0,94.0,2.0,72.0,2.0,0
-4.0,-253.0,93.0,2.0,74.0,1.0,0
-4.0,-250.0,91.0,1.0,75.0,-1.0,0
-5.0,-251.0,92.0,1.0,76.0,-2.0,0
-2.0,-253.0,92.0,0.0,77.0,-1.0,0
-3.0,-246.0,89.0,0.0,77.0,-1.0,0
-2.0,-253.0,90.0,1.0,78.0,-3.0,0
-1.0,-251.0,92.0,1.0,78.0,-4.0,0
-1.0,-251.0,90.0,-1.0,79.0,-4.0,0
-4.0,-251.0,90.0,-2.0,78.0,-5.0,0
-6.0,-250.0,93.0,-3.0,77.0,-5.0,0
-4.0,-250.0,90.0,-4.0,78.0,-5.0,0
-4.0,-250.0,94.0,-5.0,78.0,-5.0,0
-6.0,-251.0,91.0,-5.0,78.0,-5.0,0
-6.0,-250.0,92.0,-6.0,80.0,-4.0,0
-4.0,-249.0,91.0,-6.0,80.0,-4.0,0
-3.0,-251.0,92.0,-6.0,78.0,-3.0,0
1.0,-253.0,90.0,-5.0,78.0,-3.0,0
-3.0,-251.0,92.0,-3.0,80.0,-3.0,0
-3.0,-254.0,93.0,-2.0,81.0,-4.0,0
-2.0,-252.0,89.0,-2.0,79.0,-5.0,0
-3.0,-254.0,95.0,-2.0,77.0,-4.0,0
-1.0,-253.0,92.0,-1.0,77.0,-3.0,0
-3.0,-252.0,94.0,-4.0,79.0,-5.0,0
-1.0,-252.0,95.0,-4.0,80.0,-4.0,0
-5.0,-252.0,92.0,-7.0,81.0,-6.0,0
-5.0,-249.0,93.0,-7.0,81.0,-6.0,0
-2.0,-251.0,87.0,-8.0,82.0,-5.0,0
-5.0,-251.0,94.0,-10.0,82.0,-5.0,0
-3.0,-251.0,92.0,-12.0,81.0,-5.0,0
-4.0,-251.0,92.0,-13.0,80.0,-4.0,0
-4.0,-250.0,93.0,-15.0,79.0,-5.0,0
-4.0,-250.0,91.0,-17.0,78.0,-4.0,0
-1.0,-252.0,94.0,-19.0,77.0,-4.0,0
-4.0,-253.0,92.0,-19.0,76.0,-5.0,0
-2.0,-252.0,95.0,-18.0,76.0,-5.0,0
-5.0,-248.0,91.0,-17.0,75.0,-6.0,0
-5.0,-250.0,94.0,-17.0,74.0,-6.0,0
-6.0,-249.0,96.0,-16.0,77.0,-6.0,0
-4.0,-249.0,92.0,-14.0,78.0,-9.0,0
-4.0,-250.0,95.0,-13.0,80.0,-9.0,0
-6.0,-251.0,89.0,-12.0,81.0,-10.0,0
-2.0,-252.0,92.0,-10.0,81.0,-10.0,0
0.0,-253.0,94.0,-11.0,81.0,-10.0,0
-4.0,-253.0,92.0,-10.0,78.0,-9.0,0
-5.0,-251.0,96.0,-10.0,76.0,-9.0,0
-4.0,-250.0,92.0,-11.0,74.0,-7.0,0
-1.0,-254.0,92.0,-11.0,74.0,-5.0,0
-3.0,-252.0,91.0,-12.0,72.0,-6.0,0
-3.0,-253.0,94.0,-13.0,71.0,-6.0,0
-4.0,-254.0,92.0,-16.0,71.0,-5.0,0
-4.0,-253.0,94.0,-16.0,72.0,-4.0,0
-6.0,-252.0,96.0,-18.0,73.0,-4.0,0
-1.0,-254.0,96.0,-19.0,73.0,-4.0,0
-2.0,-253.0,95.0,-18.0,73.0,-4.0,0
-4.0,-252.0,95.0,-15.0,73.0,-4.0,0
-5.0,-253.0,96.0,-13.0,72.0,-4.0,0
-5.0,-249.0,94.0,-11.0,72.0,-3.0,0
-5.0,-251.0,94.0,-12.0,72.0,-3.0,0
-4.0,-252.0,89.0,-12.0,73.0,-3.0,0
-5.0,-251.0,90.0,-14.0,72.0,-4.0,0
-5.0,-248.0,94.0,-16.0,73.0,-3.0,0
-6.0,-251.0,93.0,-16.0,74.0,-4.0,0
-6.0,-252.0,89.0,-14.0,74.0,-4.0,0
-3.0,-254.0,92.0,-11.0,74.0,-4.0,0
-3.0,-253.0,93.0,-8.0,74.0,-2.0,0
-2.0,-253.0,93.0,-5.0,75.0,-3.0,0
-1.0,-249.0,93.0,-3.0,74.0,-4.0,0
-4.0,-249.0,96.0,0.0,74.0,-5.0,0
-3.0,-251.0,96.0,1.0,73.0,-4.0,0
-1.0,-250.0,87.0,-3.0,73.0,-5.0,0
-3.0,-251.0,90.0,-6.0,71.0,-5.0,0
-1.0,-250.0,95.0,-10.0,71.0,-2.0,0
-5.0,-250.0,92.0,-14.0,68.0,-1.0,0
-3.0,-252.0,93.0,-16.0,69.0,-1.0,0
-3.0,-252.0,91.0,-18.0,70.0,-1.0,0
-2.0,-252.0,94.0,-19.0,69.0,-2.0,0
-5.0,-250.0,91.0,-19.0,70.0,-1.0,0
-2.0,-254.0,95.0,-18.0,72.0,-2.0,0
-4.0,-251.0,88.0,-16.0,72.0,-2.0,0
-8.0,-246.0,95.0,-13.0,73.0,-2.0,0
-4.0,-250.0,94.0,-10.0,75.0,-4.0,0
-3.0,-251.0,94.0,-5.0,75.0,-4.0,0
-2.0,-252.0,97.0,-3.0,75.0,-5.0,0
-3.0,-251.0,98.0,0.0,74.0,-6.0,0
-5.0,-249.0,95.0,-1.0,74.0,-6.0,0
-6.0,-247.0,94.0,-1.0,75.0,-6.0,0
-4.0,-251.0,96.0,-2.0,76.0,-7.0,0
-3.0,-252.0,96.0,-2.0,75.0,-8.0,0
-3.0,-250.0,93.0,-2.0,75.0,-8.0,0
-2.0,-252.0,94.0,-4.0,75.0,-7.0,0
-4.0,-250.0,95.0,-7.0,75.0,-8.0,0
-4.0,-249.0,94.0,-11.0,76.0,-7.0,0
-3.0,-253.0,96.0,-12.0,78.0,-7.0,0
-6.0,-250.0,95.0,-15.0,78.0,-7.0,0
3.0,-252.0,93.0,-17.0,79.0,-8.0,0
-4.0,-252.0,94.0,-17.0,80.0,-7.0,0
-1.0,-255.0,91.0,-17.0,80.0,-7.0,0
-2.0,-252.0,91.0,-16.0,78.0,-5.0,0
0.0,-252.0,92.0,-17.0,75.0,-4.0,0
-4.0,-251.0,91.0,-18.0,72.0,-3.0,0
-2.0,-253.0,91.0,-19.0,69.0,-2.0,0
-1.0,-253.0,92.0,-20.0,67.0,-3.0,0
-5.0,-248.0,92.0,-21.0,66.0,-4.0,0
-5.0,-250.0,94.0,-22.0,66.0,-4.0,0
-5.0,-249.0,90.0,-22.0,64.0,-4.0,0
-3.0,-252.0,91.0,-21.0,64.0,-4.0,0
-1.0,-253.0,90.0,-23.0,67.0,-4.0,0
-5.0,-251.0,88.0,-21.0,67.0,-6.0,0
-5.0,-252.0,89.0,-21.0,68.0,-6.0,0
-2.0,-253.0,91.0,-19.0,71.0,-7.0,0
-4.0,-250.0,92.0,-18.0,74.0,-8.0,0
-4.0,-251.0,93.0,-17.0,77.0,-7.0,0
-3.0,-251.0,96.0,-14.0,80.0,-6.0,0
-4.0,-253.0,93.0,-13.0,80.0,-6.0,0
-4.0,-251.0,97.0,-10.0,79.0,-6.0,0
-4.0,-254.0,97.0,-10.0,80.0,-7.0,0
-2.0,-254.0,92.0,-9.0,78.0,-4.0,0
-2.0,-252.0,91.0,-11.0,78.0,-5.0,0
-4.0,-247.0,93.0,-11.0,78.0,-5.0,0
-5.0,-252.0,94.0,-12.0,77.0,-3.0,0
-3.0,-251.0,95.0,-15.0,76.0,-4.0,0
-5.0,-252.0,95.0,-17.0,74.0,-3.0,0
0.0,-252.0,95.0,-19.0,74.0,-3.0,0
-5.0,-251.0,94.0,-19.0,72.0,-5.0,0
-2.0,-251.0,95.0,-19.0,72.0,-5.0,0
-4.0,-251.0,94.0,-17.0,71.0,-5.0,0
-7.0,-250.0,93.0,-14.0,74.0,-4.0,0
-5.0,-251.0,97.0,-13.0,74.0,-5.0,0
-3.0,-253.0,93.0,-10.0,75.0,-6.0,0
-7.0,-250.0,93.0,-10.0,76.0,-5.0,0
-2.0,-251.0,95.0,-12.0,75.0,-8.0,0
-3.0,-250.0,91.0,-14.0,76.0,-7.0,0
-4.0,-254.0,95.0,-16.0,72.0,-7.0,0
-8.0,-249.0,93.0,-20.0,72.0,-6.0,0
-1.0,-249.0,92.0,-21.0,70.0,-4.0,0
-4.0,-250.0,91.0,-22.0,70.0,-3.0,0
1.0,-252.0,94.0,-23.0,70.0,-4.0,0
-3.0,-252.0,94.0,-23.0,68.0,-2.0,0
-7.0,-250.0,95.0,-21.0,70.0,-1.0,0
-2.0,-251.0,89.0,-19.0,69.0,-1.0,0
-6.0,-251.0,86.0,-17.0,69.0,-2.0,0
-5.0,-252.0,90.0,-17.0,70.0,-2.0,0
-2.0,-251.0,97.0,-18.0,69.0,-2.0,0
-4.0,-253.0,90.0,-19.0,69.0,-2.0,0
-4.0,-252.0,93.0,-18.0,69.0,-1.0,0
-2.0,-251.0,89.0,-18.0,69.0,-1.0,0
-4.0,-253.0,93.0,-19.0,70.0,-2.0,0
-4.0,-254.0,93.0,-19.0,69.0,-2.0,0
-5.0,-250.0,92.0,-21.0,70.0,-1.0,0
-3.0,-251.0,94.0,-20.0,69.0,-1.0,0
-4.0,-251.0,95.0,-19.0,67.0,-1.0,0
-5.0,-250.0,93.0,-19.0,66.0,-2.0,0
-3.0,-249.0,95.0,-18.0,66.0,-3.0,0
-6.0,-246.0,95.0,-18.0,66.0,-1.0,0
-7.0,-252.0,93.0,-18.0,66.0,-2.0,0
-4.0,-252.0,94.0,-17.0,67.0,-4.0,0
-5.0,-250.0,97.0,-19.0,69.0,-3.0,0
-4.0,-251.0,95.0,-20.0,69.0,-4.0,0
-5.0,-252.0,91.0,-21.0,72.0,-7.0,0
-7.0,-249.0,93.0,-19.0,74.0,-7.0,0
-5.0,-250.0,93.0,-18.0,73.0,-7.0,0
-3.0,-251.0,92.0,-16.0,74.0,-7.0,0
-2.0,-253.0,94.0,-15.0,74.0,-6.0,0
-4.0,-251.0,94.0,-14.0,72.0,-9.0,0
1.0,-252.0,91.0,-14.0,72.0,-9.0,0
1.0,-255.0,96.0,-14.0,71.0,-7.0,0
-5.0,-250.0,92.0,-14.0,70.0,-7.0,0
-3.0,-251.0,93.0,-14.0,70.0,-7.0,0
-2.0,-253.0,92.0,-12.0,69.0,-7.0,0
-2.0,-252.0,96.0,-11.0,70.0,-5.0,0
-4.0,-252.0,95.0,-12.0,72.0,-5.0,0
-4.0,-252.0,94.0,-12.0,73.0,-6.0,0
-4.0,-252.0,89.0,-13.0,74.0,-4.0,0
-2.0,-253.0,92.0,-13.0,75.0,-5.0,0
-2.0,-253.0,93.0,-15.0,77.0,-5.0,0
-1.0,-251.0,95.0,-16.0,76.0,-5.0,0
-2.0,-250.0,92.0,-16.0,76.0,-6.0,0
-4.0,-251.0,91.0,-17.0,76.0,-5.0,0
-3.0,-248.0,91.0,-17.0,74.0,-4.0,0
-3.0,-253.0,93.0,-16.0,73.0,-5.0,0
-6.0,-253.0,92.0,-16.0,69.0,-4.0,0
-4.0,-251.0,96.0,-16.0,68.0,-3.0,0
-4.0,-250.0,92.0,-15.0,68.0,-3.0,0
-1.0,-252.0,90.0,-15.0,67.0,-3.0,0
-3.0,-251.0,92.0,-16.0,66.0,-4.0,0
-2.0,-249.0,93.0,-15.0,66.0,-4.0,0
-2.0,-249.0,91.0,-16.0,67.0,-4.0,0
-6.0,-250.0,92.0,-16.0,67.0,-3.0,0
-2.0,-251.0,92.0,-16.0,68.0,-3.0,0
0.0,-253.0,94.0,-18.0,66.0,-2.0,0
-4.0,-251.0,95.0,-16.0,67.0,-2.0,0
-3.0,-254.0,95.0,-16.0,69.0,-2.0,0
-2.0,-254.0,93.0,-16.0,69.0,-1.0,0
1.0,-254.0,93.0,-15.0,71.0,1.0,0
-5.0,-250.0,92.0,-15.0,71.0,0.0,0
-3.0,-252.0,92.0,-14.0,70.0,-1.0,0
-1.0,-253.0,92.0,-15.0,69.0,-1.0,0
-7.0,-252.0,92.0,-12.0,67.0,-1.0,0
-4.0,-250.0,90.0,-12.0,67.0,-1.0,0
-5.0,-252.0,92.0,-14.0,66.0,-2.0,0
-5.0,-251.0,94.0,-16.0,66.0,-2.0,0
-4.0,-251.0,94.0,-17.0,66.0,-4.0,0
-5.0,-250.0,97.0,-16.0,66.0,-5.0,0
-6.0,-251.0,94.0,-14.0,66.0,-5.0,0
-3.0,-253.0,92.0,-12.0,66.0,-7.0,0
-3.0,-254.0,93.0,-10.0,65.0,-6.0,0
-3.0,-253.0,94.0,-8.0,67.0,-5.0,0
-6.0,-251.0,92.0,-6.0,67.0,-6.0,0
-5.0,-254.0,91.0,-4.0,68.0,-6.0,0
-6.0,-252.0,90.0,-2.0,68.0,-6.0,0
-3.0,-252.0,92.0,-2.0,68.0,-4.0,0
-5.0,-252.0,93.0,-1.0,66.0,-4.0,0
-1.0,-252.0,92.0,-2.0,65.0,-3.0,0
1.0,-253.0,92.0,-4.0,64.0,-3.0,0
1.0,-253.0,94.0,-7.0,61.0,-3.0,0
-3.0,-250.0,88.0,-12.0,61.0,-1.0,0
-5.0,-255.0,90.0,-17.0,61.0,-2.0,0
-4.0,-251.0,90.0,-21.0,61.0,-1.0,0
-3.0,-254.0,92.0,-22.0,63.0,-2.0,0
-4.0,-254.0,92.0,-21.0,65.0,-1.0,0
-5.0,-254.0,93.0,-16.0,67.0,-1.0,0
-6.0,-248.0,91.0,-13.0,70.0,-1.0,0
-6.0,-253.0,94.0,-8.0,71.0,-2.0,0
-2.0,-254.0,93.0,-2.0,72.0,-2.0,0
1.0,-254.0,89.0,2.0,74.0,-4.0,0
-3.0,-252.0,95.0,2.0,74.0,-5.0,0
-5.0,-247.0,95.0,2.0,73.0,-4.0,0
-7.0,-247.0,93.0,0.0,72.0,-6.0,0
-4.0,-253.0,96.0,-2.0,71.0,-6.0,0
-6.0,-250.0,95.0,-5.0,71.0,-7.0,0
-5.0,-249.0,99.0,-5.0,72.0,-7.0,0
-7.0,-249.0,97.0,-7.0,73.0,-9.0,0
-4.0,-254.0,93.0,-9.0,74.0,-9.0,0
-6.0,-252.0,93.0,-10.0,73.0,-8.0,0
-6.0,-251.0,92.0,-10.0,71.0,-9.0,0
-4.0,-252.0,94.0,-10.0,71.0,-8.0,0
-5.0,-250.0,91.0,-10.0,70.0,-7.0,0
-3.0,-253.0,95.0,-10.0,68.0,-6.0,0
-3.0,-251.0,91.0,-13.0,68.0,-4.0,0
-6.0,-250.0,92.0,-14.0,69.0,-3.0,0
-2.0,-253.0,89.0,-17.0,67.0,-2.0,0
0.0,-254.0,86.0,-22.0,68.0,0.0,0
-4.0,-248.0,86.0,-28.0,69.0,1.0,0
-5.0,-252.0,91.0,-32.0,70.0,1.0,0
2.0,-255.0,89.0,-35.0,72.0,0.0,0
-4.0,-251.0,88.0,-32.0,71.0,0.0,0
-3.0,-251.0,90.0,-29.0,69.0,1.0,0
-4.0,-252.0,91.0,-25.0,66.0,-2.0,0
0.0,-254.0,88.0,-22.0,66.0,-2.0,0
1.0,-250.0,93.0,-20.0,68.0,-2.0,0
-4.0,-253.0,92.0,-21.0,68.0,-4.0,0
-4.0,-252.0,92.0,-20.0,73.0,-5.0,0
-6.0,-250.0,93.0,-21.0,78.0,-8.0,0
-4.0,-253.0,93.0,-26.0,81.0,-10.0,0
0.0,-252.0,93.0,-29.0,85.0,-13.0,0
-3.0,-252.0,91.0,-36.0,86.0,-13.0,0
-1.0,-254.0,94.0,-40.0,90.0,-12.0,0
-4.0,-254.0,90.0,-46.0,90.0,-11.0,0
-3.0,-254.0,93.0,-53.0,87.0,-10.0,0
-3.0,-252.0,91.0,-63.0,84.0,-7.0,0
-3.0,-253.0,90.0,-72.0,80.0,-5.0,0
0.0,-254.0,91.0,-82.0,74.0,-4.0,0
-1.0,-253.0,92.0,-92.0,71.0,-3.0,0
-4.0,-250.0,89.0,-107.0,67.0,-2.0,0
-2.0,-248.0,92.0,-123.0,62.0,-1.0,0
-1.0,-253.0,88.0,-142.0,57.0,-3.0,0
0.0,-254.0,95.0,-163.0,56.0,-2.0,0
-5.0,-250.0,98.0,-188.0,53.0,-6.0,0
-5.0,-248.0,93.0,-217.0,53.0,-10.0,0
-3.0,-248.0,85.0,-253.0,52.0,-15.0,0
-4.0,-248.0,88.0,-297.0,52.0,-23.0,0
-9.0,-244.0,85.0,-349.0,51.0,-31.0,0
-2.0,-242.0,78.0,-398.0,52.0,-39.0,0
-4.0,-240.0,74.0,-469.0,53.0,-49.0,0
-3.0,-241.0,70.0,-548.0,50.0,-59.0,0
-3.0,-241.0,65.0,-626.0,51.0,-67.0,0
-3.0,-245.0,60.0,-695.0,59.0,-72.0,0
-1.0,-249.0,57.0,-746.0,74.0,-79.0,0
-4.0,-253.0,49.0,-776.0,95.0,-84.0,0
-7.0,-257.0,49.0,-796.0,118.0,-92.0,0
-3.0,-260.0,45.0,-810.0,139.0,-99.0,0
-5.0,-257.0,43.0,-823.0,155.0,-104.0,0
1.0,-262.0,45.0,-844.0,168.0,-105.0,0
1.0,-257.0,50.0,-866.0,174.0,-99.0,0
-1.0,-256.0,54.0,-889.0,179.0,-88.0,0
1.0,-256.0,62.0,-911.0,178.0,-71.0,0
-4.0,-252.0,63.0,-927.0,176.0,-52.0,0
0.0,-255.0,71.0,-935.0,175.0,-33.0,0
-1.0,-254.0,71.0,-935.0,164.0,-13.0,0
0.0,-258.0,77.0,-926.0,149.0,3.0,0
-1.0,-260.0,85.0,-899.0,124.0,17.0,0
-1.0,-263.0,84.0,-856.0,98.0,30.0,0
-1.0,-268.0,81.0,-804.0,74.0,40.0,0
-1.0,-264.0,75.0,-746.0,56.0,49.0,0
2.0,-266.0,73.0,-688.0,45.0,53.0,0
2.0,-266.0,69.0,-634.0,41.0,51.0,0
2.0,-262.0,70.0,-587.0,43.0,50.0,0
-1.0,-260.0,72.0,-546.0,49.0,43.0,0
1.0,-257.0,73.0,-517.0,57.0,35.0,0
3.0,-256.0,72.0,-500.0,69.0,27.0,0
2.0,-252.0,66.0,-498.0,84.0,16.0,0
4.0,-252.0,67.0,-506.0,100.0,7.0,0
1.0,-249.0,68.0,-521.0,112.0,0.0,0
4.0,-248.0,65.0,-544.0,121.0,-5.0,0
4.0,-248.0,64.0,-570.0,124.0,-9.0,0
3.0,-248.0,62.0,-595.0,125.0,-10.0,0
5.0,-244.0,60.0,-625.0,122.0,-15.0,0
4.0,-245.0,60.0,-658.0,119.0,-19.0,0
2.0,-247.0,64.0,-685.0,116.0,-17.0,0
0.0,-250.0,61.0,-706.0,114.0,-17.0,0
-2.0,-248.0,63.0,-726.0,112.0,-16.0,0
-3.0,-248.0,62.0,-739.0,110.0,-11.0,0
-3.0,-250.0,60.0,-746.0,105.0,-12.0,0
-5.0,-245.0,64.0,-747.0,104.0,-13.0,0
-3.0,-244.0,65.0,-745.0,108.0,-17.0,0
-5.0,-245.0,63.0,-742.0,111.0,-19.0,0
-5.0,-247.0,58.0,-744.0,110.0,-15.0,0
-6.0,-244.0,64.0,-754.0,105.0,-11.0,0
-9.0,-241.0,60.0,-773.0,101.0,-12.0,0
-11.0,-238.0,60.0,-799.0,90.0,-10.0,0
-11.0,-238.0,60.0,-835.0,79.0,-5.0,0
-7.0,-238.0,63.0,-871.0,67.0,2.0,0
-12.0,-240.0,64.0,-905.0,52.0,6.0,0
-11.0,-244.0,65.0,-943.0,40.0,11.0,0
-13.0,-248.0,74.0,-972.0,28.0,4.0,0
-13.0,-255.0,83.0,-999.0,32.0,3.0,0
-6.0,-252.0,87.0,-1028.0,54.0,5.0,0
-13.0,-249.0,87.0,-1080.0,80.0,2.0,0
-6.0,-246.0,91.0,-1144.0,87.0,11.0,0
1.0,-240.0,85.0,-1209.0,67.0,24.0,0
-5.0,-240.0,67.0,-1292.0,28.0,28.0,0
-7.0,-244.0,57.0,-1421.0,-23.0,46.0,0
4.0,-250.0,43.0,-1591.0,-75.0,62.0,0
-9.0,-252.0,30.0,-1795.0,-111.0,71.0,0
4.0,-269.0,27.0,-2010.0,-147.0,96.0,0
-9.0,-282.0,19.0,-2213.0,-170.0,96.0,0
-7.0,-316.0,16.0,-2360.0,-170.0,100.0,0
6.0,-320.0,14.0,-2410.0,-145.0,71.0,0
-4.0,-333.0,28.0,-2372.0,-114.0,21.0,0
20.0,-332.0,24.0,-2247.0,-90.0,33.0,0
21.0,-330.0,-8.0,-2065.0,-33.0,27.0,0
44.0,-312.0,-40.0,-1915.0,113.0,2.0,0
21.0,-303.0,-71.0,-1832.0,302.0,2.0,0
29.0,-299.0,-103.0,-1815.0,465.0,17.0,0
36.0,-316.0,-113.0,-1853.0,583.0,48.0,0
23.0,-323.0,-110.0,-1906.0,664.0,67.0,0
8.0,-344.0,-87.0,-1987.0,751.0,58.0,0
-9.0,-361.0,-58.0,-2018.0,814.0,79.0,0
-50.0,-383.0,-35.0,-2017.0,842.0,94.0,0
-52.0,-385.0,-15.0,-2004.0,827.0,136.0,0
-49.0,-386.0,-4.0,-2020.0,779.0,157.0,0
-50.0,-407.0,8.0,-2082.0,710.0,155.0,0
-40.0,-421.0,12.0,-2133.0,622.0,147.0,0
-30.0,-436.0,7.0,-2160.0,507.0,123.0,0
-19.0,-457.0,2.0,-2151.0,354.0,85.0,0
-3.0,-462.0,-17.0,-2102.0,213.0,44.0,0
7.0,-466.0,-31.0,-2032.0,109.0,-6.0,0
19.0,-462.0,-46.0,-1964.0,55.0,-50.0,0
22.0,-450.0,-56.0,-1910.0,44.0,-87.0,0
16.0,-443.0,-58.0,-1873.0,65.0,-115.0,0
4.0,-441.0,-57.0,-1861.0,107.0,-140.0,0
-1.0,-436.0,-58.0,-1851.0,158.0,-160.0,0
-11.0,-433.0,-59.0,-1845.0,212.0,-176.0,0
-17.0,-424.0,-64.0,-1842.0,262.0,-182.0,0
-26.0,-406.0,-70.0,-1854.0,302.0,-180.0,0
-30.0,-385.0,-85.0,-1876.0,325.0,-166.0,0
-26.0,-373.0,-99.0,-1923.0,332.0,-146.0,0
-41.0,-352.0,-112.0,-1980.0,318.0,-119.0,0
-24.0,-332.0,-122.0,-2024.0,280.0,-84.0,0
-24.0,-324.0,-127.0,-2031.0,221.0,-54.0,0
-15.0,-312.0,-134.0,-1988.0,145.0,-20.0,0
-18.0,-306.0,-142.0,-1900.0,68.0,-3.0,0
-19.0,-296.0,-142.0,-1799.0,-4.0,11.0,0
-12.0,-289.0,-153.0,-1700.0,-64.0,19.0,0
-4.0,-307.0,-142.0,-1608.0,-107.0,27.0,0
-12.0,-306.0,-146.0,-1471.0,-134.0,15.0,0
-9.0,-303.0,-150.0,-1303.0,-160.0,27.0,0
-7.0,-313.0,-142.0,-1118.0,-164.0,62.0,0
-33.0,-297.0,-155.0,-901.0,-128.0,81.0,0
-9.0,-301.0,-134.0,-714.0,-83.0,121.0,0
-4.0,-293.0,-134.0,-550.0,-18.0,121.0,0
-10.0,-271.0,-135.0,-374.0,35.0,88.0,0
-5.0,-275.0,-129.0,-181.0,67.0,80.0,0
9.0,-268.0,-122.0,24.0,69.0,73.0,0
-22.0,-259.0,-146.0,248.0,42.0,45.0,0
7.0,-263.0,-138.0,488.0,1.0,61.0,0
0.0,-235.0,-135.0,777.0,-58.0,63.0,0
-9.0,-235.0,-131.0,1061.0,-111.0,80.0,0
2.0,-202.0,-136.0,1316.0,-130.0,111.0,0
6.0,-226.0,-125.0,1554.0,-129.0,131.0,0
-7.0,-213.0,-121.0,1760.0,-112.0,150.0,0
3.0,-205.0,-136.0,1917.0,-102.0,158.0,0
-12.0,-199.0,-121.0,2027.0,-88.0,129.0,0
5.0,-187.0,-127.0,2088.0,-86.0,82.0,0
-16.0,-195.0,-116.0,2107.0,-66.0,45.0,0
-12.0,-190.0,-126.0,2101.0,-63.0,0.0,0
-27.0,-200.0,-112.0,2064.0,-61.0,-37.0,0
-17.0,-201.0,-104.0,2009.0,-67.0,-68.0,0
-8.0,-205.0,-112.0,1930.0,-68.0,-93.0,0
-16.0,-216.0,-124.0,1820.0,-74.0,-112.0,0
-13.0,-214.0,-140.0,1668.0,-64.0,-123.0,0
-14.0,-212.0,-159.0,1433.0,-34.0,-115.0,0
-11.0,-228.0,-167.0,1120.0,11.0,-100.0,0
-9.0,-245.0,-169.0,771.0,53.0,-92.0,0
-3.0,-265.0,-156.0,434.0,84.0,-90.0,0
-5.0,-287.0,-139.0,157.0,102.0,-87.0,0
-7.0,-306.0,-123.0,-36.0,109.0,-80.0,0
-8.0,-320.0,-99.0,-127.0,110.0,-69.0,0
-8.0,-322.0,-85.0,-133.0,108.0,-52.0,0
-3.0,-327.0,-70.0,-75.0,101.0,-38.0,0
-4.0,-329.0,-61.0,19.0,83.0,-28.0,0
-4.0,-327.0,-50.0,126.0,57.0,-19.0,0
-6.0,-319.0,-47.0,208.0,29.0,-14.0,0
-4.0,-307.0,-49.0,296.0,12.0,-2.0,0
-4.0,-295.0,-44.0,356.0,4.0,20.0,0
-1.0,-286.0,-43.0,385.0,-5.0,41.0,0
-4.0,-278.0,-42.0,381.0,-28.0,58.0,0
-2.0,-275.0,-42.0,356.0,-58.0,73.0,0
-6.0,-272.0,-40.0,312.0,-87.0,85.0,0
-8.0,-268.0,-43.0,263.0,-105.0,96.0,0
-3.0,-265.0,-48.0,213.0,-112.0,106.0,0
-1.0,-266.0,-55.0,152.0,-116.0,106.0,0
-8.0,-261.0,-57.0,88.0,-117.0,101.0,0
-7.0,-257.0,-60.0,23.0,-122.0,91.0,0
-6.0,-252.0,-64.0,-50.0,-125.0,73.0,0
-2.0,-250.0,-65.0,-122.0,-119.0,58.0,0
4.0,-244.0,-60.0,-193.0,-103.0,45.0,0
6.0,-247.0,-64.0,-262.0,-83.0,30.0,0
5.0,-249.0,-66.0,-332.0,-64.0,13.0,0
6.0,-245.0,-61.0,-407.0,-46.0,-4.0,0
5.0,-247.0,-52.0,-481.0,-35.0,-12.0,0
2.0,-242.0,-53.0,-548.0,-31.0,-16.0,0
5.0,-245.0,-45.0,-606.0,-30.0,-16.0,0
4.0,-247.0,-40.0,-660.0,-29.0,-21.0,0
3.0,-246.0,-39.0,-704.0,-24.0,-23.0,0
0.0,-246.0,-36.0,-737.0,-16.0,-24.0,0
0.0,-251.0,-39.0,-762.0,-2.0,-24.0,0
-6.0,-253.0,-35.0,-775.0,13.0,-22.0,0
-8.0,-255.0,-39.0,-779.0,27.0,-15.0,0
-12.0,-256.0,-39.0,-768.0,39.0,-7.0,0
-10.0,-257.0,-42.0,-739.0,51.0,2.0,0
-13.0,-258.0,-44.0,-697.0,64.0,3.0,0
-11.0,-258.0,-45.0,-644.0,77.0,2.0,0
-14.0,-256.0,-49.0,-586.0,90.0,-2.0,0
-14.0,-256.0,-49.0,-528.0,102.0,-4.0,0
-15.0,-254.0,-49.0,-479.0,113.0,-7.0,0
-14.0,-255.0,-50.0,-435.0,120.0,-10.0,0
-12.0,-255.0,-50.0,-398.0,124.0,-14.0,0
-10.0,-254.0,-49.0,-364.0,123.0,-14.0,0
-4.0,-249.0,-49.0,-335.0,121.0,-17.0,0
-8.0,-245.0,-53.0,-308.0,113.0,-16.0,0
0.0,-241.0,-50.0,-284.0,104.0,-11.0,0
-2.0,-234.0,-49.0,-264.0,97.0,-9.0,0
3.0,-231.0,-51.0,-247.0,89.0,-6.0,0
0.0,-224.0,-49.0,-232.0,84.0,-10.0,0
4.0,-218.0,-48.0,-214.0,78.0,-2.0,0
6.0,-213.0,-46.0,-193.0,74.0,-2.0,0
5.0,-208.0,-45.0,-170.0,73.0,-4.0,0
7.0,-208.0,-44.0,-151.0,79.0,-7.0,0
10.0,-205.0,-43.0,-131.0,83.0,-11.0,0
7.0,-198.0,-42.0,-112.0,89.0,-21.0,0
9.0,-194.0,-41.0,-97.0,95.0,-29.0,0
5.0,-189.0,-36.0,-75.0,96.0,-33.0,0
5.0,-189.0,-38.0,-49.0,96.0,-39.0,0
8.0,-188.0,-42.0,-28.0,95.0,-42.0,0
7.0,-184.0,-47.0,-12.0,95.0,-40.0,0
1.0,-181.0,-47.0,0.0,99.0,-39.0,0
8.0,-180.0,-47.0,-4.0,105.0,-32.0,0
1.0,-175.0,-45.0,-6.0,117.0,-42.0,0
4.0,-170.0,-47.0,5.0,127.0,-45.0,0
5.0,-168.0,-42.0,21.0,133.0,-47.0,0
4.0,-166.0,-47.0,49.0,138.0,-47.0,0
4.0,-163.0,-48.0,81.0,138.0,-47.0,0
5.0,-163.0,-45.0,122.0,134.0,-50.0,0
3.0,-160.0,-48.0,165.0,131.0,-67.0,0
-3.0,-154.0,-49.0,210.0,130.0,-71.0,0
-5.0,-153.0,-48.0,255.0,121.0,-56.0,0
-3.0,-147.0,-51.0,292.0,109.0,-35.0,0
-9.0,-146.0,-50.0,330.0,97.0,-16.0,0
3.0,-142.0,-49.0,361.0,85.0,9.0,0
2.0,-135.0,-44.0,396.0,88.0,8.0,0
3.0,-131.0,-47.0,438.0,96.0,16.0,0
5.0,-128.0,-44.0,474.0,112.0,22.0,0
8.0,-124.0,-45.0,503.0,130.0,27.0,0
14.0,-123.0,-54.0,533.0,152.0,31.0,0
15.0,-109.0,-48.0,561.0,181.0,3.0,0
17.0,-100.0,-48.0,586.0,204.0,-10.0,0
16.0,-90.0,-49.0,602.0,224.0,-5.0,0
23.0,-87.0,-54.0,606.0,237.0,2.0,0
24.0,-79.0,-54.0,601.0,247.0,-20.0,0
19.0,-73.0,-54.0,598.0,253.0,-30.0,0
19.0,-63.0,-59.0,582.0,246.0,-30.0,0
6.0,-64.0,-69.0,552.0,232.0,-28.0,0
15.0,-58.0,-70.0,506.0,205.0,-16.0,0
16.0,-60.0,-73.0,452.0,174.0,-30.0,0
5.0,-58.0,-79.0,394.0,138.0,-41.0,0
4.0,-64.0,-80.0,334.0,90.0,-27.0,0
4.0,-70.0,-87.0,278.0,33.0,-15.0,0
0.0,-76.0,-84.0,222.0,-27.0,-3.0,0
-4.0,-93.0,-92.0,176.0,-89.0,10.0,0
-8.0,-104.0,-100.0,129.0,-148.0,28.0,0
-7.0,-115.0,-110.0,82.0,-208.0,39.0,0
-13.0,-127.0,-119.0,29.0,-259.0,51.0,0
-14.0,-141.0,-125.0,-29.0,-293.0,65.0,0
-15.0,-155.0,-144.0,-99.0,-302.0,78.0,0
-18.0,-175.0,-156.0,-185.0,-283.0,93.0,0
-21.0,-197.0,-168.0,-284.0,-240.0,105.0,0
-21.0,-221.0,-173.0,-394.0,-183.0,114.0,0
-21.0,-250.0,-169.0,-495.0,-121.0,124.0,0
-23.0,-273.0,-170.0,-558.0,-61.0,134.0,0
-19.0,-298.0,-165.0,-612.0,-3.0,143.0,0
-17.0,-320.0,-161.0,-630.0,42.0,149.0,0
-11.0,-332.0,-151.0,-613.0,101.0,155.0,0
-7.0,-347.0,-144.0,-560.0,161.0,157.0,0
-9.0,-356.0,-134.0,-480.0,217.0,153.0,0
-6.0,-360.0,-128.0,-382.0,264.0,149.0,0
-7.0,-358.0,-124.0,-271.0,303.0,143.0,0
-5.0,-359.0,-114.0,-147.0,329.0,134.0,0
-3.0,-348.0,-101.0,-9.0,344.0,123.0,0
-4.0,-336.0,-94.0,146.0,349.0,113.0,0
-4.0,-323.0,-89.0,312.0,347.0,103.0,0
-1.0,-309.0,-89.0,468.0,339.0,97.0,0
-3.0,-291.0,-88.0,605.0,328.0,91.0,0
-4.0,-276.0,-90.0,709.0,321.0,84.0,0
-2.0,-256.0,-86.0,780.0,316.0,81.0,0
-6.0,-244.0,-87.0,820.0,315.0,77.0,0
-10.0,-232.0,-83.0,829.0,316.0,72.0,0
-11.0,-219.0,-81.0,813.0,311.0,68.0,0
-15.0,-210.0,-69.0,773.0,301.0,65.0,0
-17.0,-198.0,-66.0,714.0,286.0,61.0,0
-17.0,-193.0,-62.0,644.0,264.0,61.0,0
-18.0,-191.0,-51.0,569.0,237.0,58.0,0
-24.0,-189.0,-49.0,496.0,211.0,54.0,0
-25.0,-189.0,-48.0,426.0,183.0,50.0,0
-28.0,-188.0,-45.0,362.0,157.0,49.0,0
-30.0,-192.0,-43.0,304.0,130.0,45.0,0
-34.0,-194.0,-49.0,248.0,103.0,43.0,0
-31.0,-203.0,-47.0,193.0,80.0,44.0,0
-36.0,-206.0,-48.0,137.0,59.0,44.0,0
-34.0,-215.0,-50.0,80.0,44.0,42.0,0
-34.0,-220.0,-57.0,27.0,31.0,40.0,0
-33.0,-229.0,-59.0,-24.0,23.0,39.0,0
-33.0,-233.0,-61.0,-70.0,17.0,37.0,0
-29.0,-237.0,-64.0,-111.0,12.0,33.0,0
-32.0,-240.0,-70.0,-148.0,9.0,28.0,0
-22.0,-248.0,-66.0,-180.0,3.0,24.0,0
-24.0,-250.0,-82.0,-206.0,-2.0,18.0,0
-25.0,-248.0,-87.0,-230.0,-9.0,12.0,0
-24.0,-254.0,-89.0,-245.0,-18.0,8.0,0
-22.0,-258.0,-87.0,-254.0,-26.0,5.0,0
-18.0,-255.0,-89.0,-258.0,-36.0,-1.0,0
-13.0,-256.0,-90.0,-254.0,-44.0,-5.0,0
-16.0,-257.0,-85.0,-242.0,-51.0,-6.0,0
-14.0,-259.0,-82.0,-222.0,-54.0,-11.0,0
-11.0,-259.0,-80.0,-196.0,-52.0,-13.0,0
-7.0,-257.0,-79.0,-174.0,-48.0,-17.0,0
-10.0,-256.0,-75.0,-143.0,-39.0,-22.0,0
-3.0,-259.0,-75.0,-117.0,-32.0,-26.0,0
-5.0,-256.0,-78.0,-95.0,-21.0,-28.0,0
-2.0,-258.0,-77.0,-82.0,-9.0,-29.0,0
-3.0,-257.0,-73.0,-72.0,-3.0,-30.0,0
-4.0,-254.0,-76.0,-70.0,-1.0,-30.0,0
-4.0,-258.0,-73.0,-71.0,0.0,-30.0,0
-6.0,-259.0,-76.0,-70.0,-4.0,-31.0,0
-4.0,-262.0,-71.0,-68.0,-11.0,-33.0,0
-2.0,-263.0,-70.0,-59.0,-23.0,-34.0,0
-6.0,-263.0,-69.0,-38.0,-39.0,-34.0,0
-6.0,-264.0,-64.0,-10.0,-58.0,-32.0,0
-8.0,-262.0,-64.0,21.0,-75.0,-32.0,0
-10.0,-264.0,-64.0,57.0,-91.0,-31.0,0
-11.0,-262.0,-62.0,89.0,-104.0,-29.0,0
-13.0,-258.0,-60.0,122.0,-117.0,-29.0,0
-13.0,-260.0,-58.0,146.0,-126.0,-28.0,0
-14.0,-257.0,-57.0,161.0,-132.0,-27.0,0
-15.0,-253.0,-58.0,169.0,-133.0,-28.0,0
-13.0,-253.0,-57.0,169.0,-133.0,-27.0,0
-14.0,-253.0,-56.0,161.0,-132.0,-30.0,0
-15.0,-251.0,-54.0,147.0,-129.0,-33.0,0
-12.0,-249.0,-58.0,124.0,-128.0,-36.0,0
-12.0,-249.0,-56.0,98.0,-122.0,-39.0,0
-11.0,-246.0,-62.0,68.0,-116.0,-45.0,0
-9.0,-250.0,-56.0,38.0,-108.0,-49.0,0
-9.0,-250.0,-56.0,11.0,-100.0,-53.0,0
-6.0,-249.0,-58.0,-11.0,-92.0,-60.0,0
-5.0,-251.0,-57.0,-29.0,-81.0,-63.0,0
-3.0,-248.0,-56.0,-41.0,-71.0,-67.0,0
-3.0,-252.0,-59.0,-52.0,-61.0,-69.0,0
1.0,-251.0,-57.0,-62.0,-55.0,-70.0,0
3.0,-247.0,-47.0,-73.0,-48.0,-68.0,0
5.0,-253.0,-59.0,-82.0,-44.0,-68.0,0
4.0,-252.0,-61.0,-93.0,-44.0,-70.0,0
4.0,-250.0,-62.0,-103.0,-43.0,-67.0,0
5.0,-252.0,-63.0,-113.0,-42.0,-65.0,0
6.0,-253.0,-62.0,-124.0,-45.0,-63.0,0
4.0,-253.0,-66.0,-132.0,-46.0,-63.0,0
4.0,-254.0,-65.0,-140.0,-46.0,-60.0,0
4.0,-257.0,-69.0,-143.0,-44.0,-59.0,0
5.0,-254.0,-71.0,-145.0,-39.0,-57.0,0
4.0,-253.0,-70.0,-143.0,-34.0,-55.0,0
2.0,-257.0,-71.0,-138.0,-32.0,-53.0,0
1.0,-254.0,-71.0,-131.0,-31.0,-52.0,0
-3.0,-253.0,-68.0,-123.0,-29.0,-50.0,0
-4.0,-256.0,-71.0,-118.0,-27.0,-48.0,0
-7.0,-253.0,-68.0,-111.0,-20.0,-47.0,0
-8.0,-253.0,-71.0,-108.0,-12.0,-47.0,0
-12.0,-250.0,-74.0,-104.0,-3.0,-46.0,0
-7.0,-251.0,-68.0,-103.0,7.0,-46.0,0
-8.0,-252.0,-73.0,-101.0,16.0,-46.0,0
-8.0,-251.0,-73.0,-101.0,24.0,-45.0,0
-12.0,-251.0,-73.0,-97.0,31.0,-42.0,0
-12.0,-255.0,-78.0,-92.0,35.0,-41.0,0
-11.0,-248.0,-69.0,-85.0,39.0,-39.0,0
-11.0,-249.0,-71.0,-78.0,41.0,-38.0,0
-10.0,-251.0,-69.0,-69.0,41.0,-37.0,0
-10.0,-250.0,-69.0,-63.0,38.0,-36.0,0
-9.0,-252.0,-68.0,-56.0,36.0,-34.0,0
-8.0,-250.0,-71.0,-51.0,33.0,-34.0,0
-11.0,-249.0,-71.0,-48.0,31.0,-34.0,0
-11.0,-253.0,-68.0,-46.0,29.0,-34.0,0
-9.0,-250.0,-69.0,-46.0,26.0,-31.0,0
-11.0,-252.0,-68.0,-46.0,20.0,-31.0,0
-8.0,-254.0,-67.0,-45.0,13.0,-31.0,0
-9.0,-253.0,-65.0,-44.0,8.0,-31.0,0
-11.0,-253.0,-69.0,-41.0,4.0,-29.0,0
-10.0,-253.0,-68.0,-36.0,3.0,-28.0,0
-10.0,-253.0,-66.0,-30.0,2.0,-26.0,0
-11.0,-251.0,-66.0,-25.0,1.0,-26.0,0
-6.0,-252.0,-66.0,-20.0,1.0,-25.0,0
-12.0,-255.0,-68.0,-14.0,1.0,-23.0,0
-6.0,-255.0,-67.0,-10.0,4.0,-21.0,0
-8.0,-255.0,-65.0,-5.0,9.0,-21.0,0
-8.0,-256.0,-67.0,2.0,13.0,-21.0,0
-6.0,-264.0,-69.0,11.0,16.0,-24.0,0
-9.0,-252.0,-65.0,20.0,18.0,-25.0,0
-10.0,-257.0,-64.0,29.0,20.0,-23.0,0
-9.0,-253.0,-65.0,37.0,22.0,-22.0,0
-12.0,-251.0,-64.0,44.0,23.0,-21.0,0
-8.0,-252.0,-67.0,47.0,24.0,-22.0,0
-10.0,-250.0,-66.0,47.0,25.0,-19.0,0
-11.0,-252.0,-66.0,48.0,26.0,-19.0,0
-11.0,-252.0,-69.0,47.0,27.0,-14.0,0
-10.0,-253.0,-67.0,43.0,26.0,-13.0,0
-8.0,-249.0,-74.0,38.0,29.0,-10.0,0
-10.0,-249.0,-73.0,30.0,31.0,-7.0,0
-8.0,-249.0,-70.0,20.0,35.0,-4.0,0
-8.0,-248.0,-71.0,9.0,39.0,-3.0,0
-7.0,-252.0,-71.0,-1.0,43.0,-2.0,0
-7.0,-252.0,-69.0,-8.0,45.0,0.0,0
-11.0,-253.0,-66.0,-11.0,45.0,1.0,0
-7.0,-256.0,-66.0,-13.0,45.0,1.0,0
-8.0,-254.0,-69.0,-11.0,46.0,2.0,0
-6.0,-256.0,-67.0,-8.0,47.0,0.0,0
-8.0,-254.0,-67.0,-3.0,49.0,-1.0,0
-6.0,-255.0,-69.0,3.0,52.0,-3.0,0
-7.0,-255.0,-69.0,9.0,56.0,-2.0,0
-8.0,-256.0,-67.0,13.0,57.0,-3.0,0
-9.0,-252.0,-68.0,18.0,61.0,-5.0,0
-7.0,-255.0,-67.0,18.0,65.0,-6.0,0
-7.0,-253.0,-65.0,16.0,72.0,-7.0,0
-8.0,-253.0,-66.0,16.0,79.0,-7.0,0
-11.0,-253.0,-69.0,17.0,88.0,-9.0,0
-8.0,-252.0,-70.0,20.0,92.0,-7.0,0
-11.0,-252.0,-68.0,25.0,95.0,-6.0,0
-10.0,-253.0,-65.0,32.0,96.0,-6.0,0
-11.0,-252.0,-65.0,38.0,96.0,-5.0,0
-11.0,-251.0,-66.0,43.0,94.0,-3.0,0
-10.0,-251.0,-68.0,45.0,92.0,-1.0,0
-12.0,-246.0,-66.0,44.0,89.0,2.0,0
-12.0,-245.0,-71.0,41.0,87.0,6.0,0
-11.0,-248.0,-65.0,34.0,84.0,7.0,0
-10.0,-247.0,-65.0,28.0,81.0,9.0,0
-16.0,-248.0,-65.0,24.0,79.0,11.0,0
-14.0,-251.0,-64.0,20.0,80.0,11.0,0
-12.0,-249.0,-67.0,17.0,77.0,11.0,0
-10.0,-251.0,-69.0,16.0,76.0,10.0,0
-13.0,-250.0,-65.0,15.0,74.0,11.0,0
-11.0,-249.0,-66.0,15.0,72.0,12.0,0
-11.0,-252.0,-65.0,15.0,70.0,13.0,0
-12.0,-251.0,-67.0,14.0,69.0,11.0,0
-13.0,-254.0,-68.0,11.0,67.0,11.0,0
-11.0,-252.0,-71.0,11.0,68.0,9.0,0
-10.0,-252.0,-70.0,12.0,70.0,9.0,0
-10.0,-252.0,-71.0,12.0,74.0,7.0,0
-10.0,-255.0,-69.0,11.0,76.0,6.0,0
-10.0,-254.0,-70.0,12.0,77.0,4.0,0
-13.0,-255.0,-68.0,14.0,78.0,4.0,0
-13.0,-254.0,-71.0,17.0,78.0,3.0,0
-12.0,-254.0,-67.0,21.0,75.0,3.0,0
-10.0,-256.0,-66.0,24.0,75.0,2.0,0
-12.0,-254.0,-70.0,25.0,74.0,1.0,0
-12.0,-253.0,-69.0,26.0,75.0,3.0,0
-14.0,-254.0,-64.0,28.0,75.0,4.0,0
-13.0,-250.0,-67.0,28.0,74.0,3.0,0
-14.0,-254.0,-64.0,27.0,74.0,2.0,0
-8.0,-254.0,-66.0,24.0,74.0,3.0,0
-13.0,-251.0,-67.0,22.0,70.0,4.0,0
-12.0,-254.0,-68.0,23.0,68.0,3.0,0
-13.0,-254.0,-67.0,24.0,65.0,4.0,0
-11.0,-254.0,-67.0,25.0,65.0,3.0,0
-13.0,-255.0,-62.0,28.0,64.0,5.0,0
-15.0,-252.0,-64.0,29.0,62.0,3.0,0
-13.0,-253.0,-68.0,29.0,63.0,3.0,0
-10.0,-254.0,-65.0,31.0,62.0,4.0,0
-13.0,-250.0,-66.0,29.0,61.0,2.0,0
-10.0,-251.0,-64.0,26.0,61.0,1.0,0
-10.0,-252.0,-67.0,26.0,60.0,2.0,0
-11.0,-250.0,-67.0,26.0,60.0,2.0,0
-11.0,-251.0,-67.0,23.0,62.0,0.0,0
-12.0,-251.0,-66.0,23.0,62.0,0.0,0
-10.0,-250.0,-66.0,23.0,60.0,0.0,0
-12.0,-253.0,-66.0,22.0,60.0,1.0,0
-12.0,-253.0,-67.0,22.0,59.0,0.0,0
-9.0,-253.0,-67.0,21.0,57.0,1.0,0
-13.0,-254.0,-66.0,20.0,56.0,1.0,0
-11.0,-253.0,-67.0,20.0,56.0,2.0,0
-12.0,-251.0,-67.0,21.0,55.0,1.0,0
-9.0,-253.0,-66.0,22.0,52.0,2.0,0
-15.0,-253.0,-66.0,25.0,53.0,2.0,0
-11.0,-253.0,-66.0,24.0,55.0,4.0,0
-8.0,-250.0,-65.0,22.0,58.0,3.0,0
-11.0,-256.0,-65.0,21.0,61.0,3.0,0
-10.0,-252.0,-65.0,19.0,65.0,5.0,0
-11.0,-251.0,-68.0,17.0,65.0,4.0,0
-8.0,-251.0,-70.0,16.0,67.0,5.0,0
-9.0,-251.0,-65.0,16.0,68.0,3.0,0
-9.0,-252.0,-67.0,15.0,68.0,4.0,0
-8.0,-252.0,-64.0,16.0,68.0,6.0,0
-12.0,-255.0,-66.0,16.0,68.0,5.0,0
-12.0,-252.0,-62.0,17.0,69.0,7.0,0
-10.0,-252.0,-67.0,19.0,69.0,7.0,0
-13.0,-253.0,-66.0,18.0,67.0,8.0,0
-11.0,-249.0,-68.0,18.0,66.0,7.0,0
-8.0,-253.0,-67.0,17.0,65.0,8.0,0
-10.0,-253.0,-67.0,16.0,63.0,8.0,0
-13.0,-255.0,-69.0,15.0,62.0,10.0,0
-11.0,-253.0,-69.0,14.0,64.0,9.0,0
-12.0,-254.0,-67.0,16.0,67.0,11.0,0
-11.0,-253.0,-66.0,17.0,69.0,13.0,0
-10.0,-252.0,-65.0,20.0,71.0,12.0,0
-10.0,-254.0,-66.0,21.0,72.0,12.0,0
-9.0,-253.0,-65.0,23.0,74.0,13.0,0
-11.0,-254.0,-65.0,24.0,74.0,12.0,0
-10.0,-253.0,-65.0,23.0,74.0,12.0,0
-10.0,-253.0,-67.0,24.0,74.0,12.0,0
-9.0,-256.0,-67.0,23.0,74.0,11.0,0
-14.0,-250.0,-69.0,21.0,73.0,11.0,0
-9.0,-254.0,-66.0,20.0,72.0,10.0,0
-12.0,-254.0,-64.0,20.0,72.0,10.0,0
-15.0,-253.0,-64.0,23.0,74.0,9.0,0
-9.0,-251.0,-63.0,25.0,75.0,7.0,0
-15.0,-252.0,-65.0,29.0,75.0,7.0,0
-15.0,-252.0,-63.0,33.0,73.0,8.0,0
-12.0,-252.0,-64.0,35.0,71.0,8.0,0
-14.0,-251.0,-63.0,35.0,70.0,7.0,0
-13.0,-253.0,-64.0,35.0,67.0,7.0,0
-11.0,-251.0,-63.0,31.0,64.0,7.0,0
-15.0,-251.0,-62.0,26.0,62.0,9.0,0
-11.0,-253.0,-67.0,23.0,58.0,11.0,0
-13.0,-252.0,-64.0,17.0,56.0,9.0,0
-13.0,-253.0,-60.0,14.0,54.0,9.0,0
-12.0,-250.0,-62.0,11.0,56.0,7.0,0
-12.0,-254.0,-64.0,10.0,54.0,8.0,0
-13.0,-250.0,-66.0,10.0,52.0,8.0,0
-12.0,-251.0,-60.0,9.0,53.0,5.0,0
-12.0,-254.0,-64.0,9.0,52.0,4.0,0
-11.0,-253.0,-64.0,10.0,52.0,3.0,0
-10.0,-257.0,-62.0,9.0,51.0,3.0,0
-13.0,-252.0,-62.0,7.0,49.0,2.0,0
-10.0,-251.0,-61.0,7.0,47.0,3.0,0
-14.0,-250.0,-63.0,5.0,46.0,2.0,0
-8.0,-255.0,-63.0,4.0,46.0,2.0,0
-12.0,-253.0,-64.0,4.0,46.0,3.0,0
-13.0,-251.0,-63.0,6.0,48.0,4.0,0
-12.0,-252.0,-61.0,7.0,47.0,3.0,0
-11.0,-254.0,-67.0,10.0,48.0,4.0,0
-10.0,-250.0,-65.0,9.0,46.0,3.0,0
-12.0,-253.0,-64.0,7.0,45.0,5.0,0
-11.0,-253.0,-63.0,6.0,43.0,5.0,0
-11.0,-253.0,-62.0,3.0,40.0,6.0,0
-9.0,-253.0,-64.0,4.0,36.0,5.0,0
-14.0,-255.0,-58.0,3.0,33.0,7.0,0
-13.0,-256.0,-58.0,5.0,32.0,6.0,0
-11.0,-257.0,-58.0,7.0,34.0,4.0,0
-12.0,-254.0,-60.0,11.0,35.0,4.0,0
-8.0,-260.0,-65.0,15.0,39.0,4.0,0
-14.0,-255.0,-62.0,19.0,41.0,4.0,0
-10.0,-257.0,-62.0,21.0,43.0,2.0,0
-15.0,-256.0,-57.0,23.0,45.0,3.0,0
-10.0,-256.0,-62.0,25.0,46.0,2.0,0
-15.0,-255.0,-59.0,27.0,46.0,1.0,0
-10.0,-256.0,-63.0,30.0,45.0,0.0,0
-10.0,-256.0,-64.0,32.0,45.0,-2.0,0
-12.0,-256.0,-60.0,32.0,45.0,-2.0,0
-12.0,-256.0,-59.0,32.0,45.0,-3.0,0
-14.0,-255.0,-64.0,32.0,44.0,-4.0,0
-12.0,-256.0,-59.0,32.0,46.0,-5.0,0
-9.0,-256.0,-61.0,32.0,47.0,-5.0,0
-8.0,-255.0,-62.0,35.0,49.0,-5.0,0
-10.0,-253.0,-62.0,37.0,50.0,-5.0,0
-10.0,-255.0,-61.0,39.0,50.0,-3.0,0
-11.0,-252.0,-61.0,38.0,51.0,-3.0,0
-9.0,-252.0,-63.0,36.0,51.0,-1.0,0
-9.0,-254.0,-60.0,36.0,52.0,1.0,0
-8.0,-252.0,-55.0,35.0,50.0,-1.0,0
-9.0,-252.0,-59.0,35.0,51.0,1.0,0
-10.0,-253.0,-58.0,34.0,52.0,1.0,0
-13.0,-256.0,-61.0,32.0,56.0,3.0,0
-11.0,-254.0,-60.0,29.0,60.0,4.0,0
-8.0,-253.0,-58.0,25.0,63.0,5.0,0
-9.0,-255.0,-58.0,22.0,70.0,6.0,0
-10.0,-256.0,-56.0,21.0,74.0,7.0,0
-12.0,-253.0,-59.0,21.0,80.0,7.0,0
-13.0,-251.0,-60.0,22.0,82.0,8.0,0
-9.0,-253.0,-56.0,23.0,84.0,8.0,0
-12.0,-255.0,-59.0,24.0,82.0,8.0,0
-11.0,-254.0,-61.0,24.0,81.0,9.0,0
-12.0,-256.0,-54.0,22.0,79.0,10.0,0
-10.0,-252.0,-56.0,20.0,79.0,8.0,0
-14.0,-252.0,-58.0,15.0,80.0,9.0,0
-12.0,-252.0,-59.0,9.0,82.0,9.0,0
-14.0,-253.0,-59.0,2.0,85.0,9.0,0
-12.0,-253.0,-61.0,-4.0,86.0,9.0,0
-14.0,-254.0,-61.0,-8.0,87.0,7.0,0
-13.0,-252.0,-55.0,-13.0,89.0,8.0,0
-12.0,-250.0,-62.0,-17.0,90.0,7.0,0
-14.0,-255.0,-61.0,-17.0,92.0,8.0,0
-15.0,-254.0,-59.0,-15.0,91.0,7.0,0
-12.0,-255.0,-57.0,-14.0,92.0,8.0,0
-15.0,-251.0,-62.0,-11.0,93.0,7.0,0
-13.0,-254.0,-55.0,-10.0,95.0,8.0,0
-13.0,-253.0,-63.0,-11.0,96.0,9.0,0
-12.0,-254.0,-57.0,-12.0,95.0,12.0,0
-15.0,-253.0,-58.0,-13.0,94.0,12.0,0
-12.0,-254.0,-58.0,-15.0,93.0,13.0,0
-12.0,-253.0,-61.0,-16.0,89.0,15.0,0
-11.0,-255.0,-61.0,-19.0,88.0,14.0,0
-12.0,-256.0,-59.0,-20.0,86.0,15.0,0
-13.0,-256.0,-55.0,-18.0,83.0,14.0,0
-14.0,-255.0,-57.0,-15.0,79.0,13.0,0
-13.0,-257.0,-58.0,-13.0,77.0,12.0,0
-13.0,-255.0,-60.0,-11.0,73.0,11.0,0
-14.0,-257.0,-54.0,-12.0,71.0,10.0,0
-13.0,-257.0,-58.0,-10.0,68.0,8.0,0
-15.0,-256.0,-58.0,-9.0,67.0,9.0,0
-12.0,-256.0,-59.0,-6.0,65.0,8.0,0
-15.0,-256.0,-63.0,-3.0,66.0,9.0,0
-15.0,-257.0,-62.0,0.0,68.0,8.0,0
-15.0,-257.0,-56.0,1.0,69.0,6.0,0
-16.0,-254.0,-60.0,4.0,71.0,4.0,0
-14.0,-255.0,-61.0,7.0,73.0,6.0,0
-19.0,-255.0,-70.0,10.0,73.0,5.0,0
-12.0,-255.0,-59.0,13.0,72.0,4.0,0
-14.0,-255.0,-61.0,18.0,68.0,3.0,0
-16.0,-255.0,-56.0,24.0,65.0,3.0,0
-13.0,-255.0,-57.0,27.0,61.0,2.0,0
-16.0,-251.0,-57.0,29.0,58.0,2.0,0
-14.0,-253.0,-59.0,27.0,58.0,1.0,0
-12.0,-254.0,-56.0,24.0,58.0,1.0,0
-14.0,-254.0,-57.0,20.0,59.0,1.0,0
-15.0,-253.0,-57.0,16.0,60.0,-2.0,0
-12.0,-253.0,-57.0,11.0,62.0,-1.0,0
-12.0,-255.0,-57.0,6.0,64.0,-1.0,0
-13.0,-255.0,-58.0,1.0,63.0,1.0,0
-15.0,-252.0,-57.0,-3.0,62.0,0.0,0
-13.0,-254.0,-57.0,-6.0,59.0,-2.0,0
-10.0,-256.0,-62.0,-13.0,56.0,-1.0,0
-10.0,-256.0,-60.0,-15.0,53.0,-1.0,0
-10.0,-256.0,-58.0,-16.0,55.0,-2.0,0
-14.0,-255.0,-57.0,-16.0,55.0,-2.0,0
-12.0,-257.0,-60.0,-13.0,57.0,-3.0,0
-14.0,-256.0,-61.0,-14.0,60.0,-3.0,0
-14.0,-255.0,-53.0,-13.0,63.0,-3.0,0
-15.0,-254.0,-55.0,-10.0,63.0,-3.0,0
-13.0,-255.0,-56.0,-9.0,65.0,-4.0,0
-13.0,-255.0,-63.0,-8.0,63.0,-4.0,0
-14.0,-258.0,-57.0,-6.0,59.0,-5.0,0
-17.0,-255.0,-57.0,-6.0,56.0,-5.0,0
-14.0,-255.0,-58.0,-6.0,52.0,-5.0,0
-15.0,-255.0,-58.0,-7.0,48.0,-5.0,0
-17.0,-256.0,-57.0,-7.0,46.0,-4.0,0
-16.0,-255.0,-53.0,-7.0,47.0,-4.0,0
-14.0,-255.0,-58.0,-6.0,47.0,-4.0,0
-14.0,-255.0,-58.0,-4.0,48.0,-3.0,0
-14.0,-256.0,-55.0,-4.0,50.0,-1.0,0
-14.0,-254.0,-58.0,-3.0,51.0,-3.0,0
-14.0,-256.0,-61.0,-2.0,50.0,-3.0,0
-12.0,-257.0,-57.0,-3.0,50.0,-4.0,0
-12.0,-255.0,-56.0,-5.0,50.0,-4.0,0
-13.0,-255.0,-61.0,-8.0,48.0,-3.0,0
-14.0,-252.0,-61.0,-10.0,46.0,-5.0,0
-12.0,-255.0,-60.0,-14.0,46.0,-5.0,0
-15.0,-256.0,-61.0,-18.0,46.0,-3.0,0
-12.0,-253.0,-57.0,-21.0,46.0,-4.0,0
-7.0,-253.0,-54.0,-25.0,48.0,-6.0,0
-13.0,-256.0,-59.0,-26.0,49.0,-5.0,0
-15.0,-255.0,-60.0,-26.0,51.0,-4.0,0
-15.0,-254.0,-61.0,-26.0,51.0,-4.0,0
-13.0,-256.0,-58.0,-24.0,52.0,-5.0,0
-12.0,-253.0,-60.0,-20.0,52.0,-5.0,0
-12.0,-257.0,-60.0,-15.0,53.0,-5.0,0
-19.0,-254.0,-59.0,-13.0,55.0,-5.0,0
-15.0,-253.0,-59.0,-11.0,57.0,-6.0,0
-13.0,-256.0,-60.0,-9.0,59.0,-6.0,0
-14.0,-253.0,-55.0,-8.0,58.0,-6.0,0
-15.0,-256.0,-59.0,-8.0,59.0,-5.0,0
-15.0,-253.0,-59.0,-7.0,57.0,-5.0,0
-14.0,-255.0,-56.0,-8.0,57.0,-5.0,0
-13.0,-256.0,-54.0,-9.0,58.0,-4.0,0
-16.0,-255.0,-58.0,-10.0,57.0,-4.0,0
-15.0,-256.0,-56.0,-10.0,56.0,-5.0,0
-14.0,-257.0,-57.0,-10.0,55.0,-4.0,0
-13.0,-254.0,-54.0,-8.0,53.0,-4.0,0
-13.0,-255.0,-60.0,-7.0,52.0,-4.0,0
-13.0,-254.0,-58.0,-6.0,52.0,-2.0,0
-15.0,-254.0,-57.0,-7.0,53.0,-1.0,0
-13.0,-260.0,-59.0,-9.0,53.0,-1.0,0
-14.0,-253.0,-60.0,-11.0,55.0,-1.0,0
-16.0,-252.0,-59.0,-14.0,55.0,0.0,0
-13.0,-255.0,-58.0,-15.0,55.0,-1.0,0
-15.0,-254.0,-58.0,-16.0,56.0,-1.0,0
-13.0,-255.0,-54.0,-19.0,56.0,-1.0,0
-15.0,-256.0,-56.0,-18.0,54.0,-2.0,0
-11.0,-257.0,-58.0,-19.0,54.0,-1.0,0
-14.0,-256.0,-61.0,-20.0,52.0,-1.0,0
-12.0,-256.0,-62.0,-20.0,54.0,-1.0,0
-13.0,-255.0,-56.0,-20.0,56.0,0.0,0
-13.0,-252.0,-62.0,-20.0,57.0,0.0,0
-14.0,-253.0,-56.0,-20.0,60.0,1.0,0
-13.0,-253.0,-56.0,-21.0,61.0,1.0,0
-12.0,-255.0,-59.0,-19.0,61.0,2.0,0
-11.0,-253.0,-56.0,-19.0,62.0,1.0,0
-13.0,-254.0,-61.0,-22.0,62.0,2.0,0
-12.0,-254.0,-58.0,-25.0,64.0,1.0,0
-13.0,-253.0,-55.0,-28.0,66.0,0.0,0
-13.0,-257.0,-56.0,-32.0,66.0,0.0,0
-13.0,-255.0,-58.0,-36.0,68.0,0.0,0
-12.0,-255.0,-58.0,-37.0,70.0,0.0,0
-16.0,-253.0,-61.0,-39.0,68.0,-2.0,0
-16.0,-253.0,-59.0,-38.0,71.0,-2.0,0
-14.0,-254.0,-61.0,-40.0,70.0,-3.0,0
-14.0,-253.0,-62.0,-36.0,67.0,-3.0,0
-15.0,-254.0,-63.0,-33.0,66.0,-4.0,0
-16.0,-254.0,-61.0,-31.0,64.0,-1.0,0
-15.0,-251.0,-57.0,-27.0,63.0,-1.0,0
-15.0,-255.0,-59.0,-24.0,64.0,-3.0,0
-10.0,-255.0,-58.0,-21.0,61.0,-2.0,0
-13.0,-254.0,-60.0,-19.0,60.0,-1.0,0
-13.0,-255.0,-57.0,-16.0,57.0,1.0,0
-14.0,-256.0,-58.0,-15.0,55.0,1.0,0
-13.0,-253.0,-59.0,-16.0,53.0,1.0,0
-13.0,-255.0,-63.0,-19.0,54.0,1.0,0
-13.0,-256.0,-64.0,-22.0,56.0,1.0,0
-15.0,-255.0,-64.0,-25.0,59.0,1.0,0
-15.0,-255.0,-63.0,-29.0,62.0,-1.0,0
-13.0,-255.0,-64.0,-30.0,64.0,0.0,0
-12.0,-255.0,-61.0,-32.0,66.0,-1.0,0
-12.0,-255.0,-60.0,-30.0,68.0,0.0,0
-15.0,-254.0,-60.0,-27.0,70.0,0.0,0
-14.0,-255.0,-60.0,-26.0,72.0,0.0,0
-14.0,-256.0,-61.0,-27.0,72.0,-1.0,0
-13.0,-255.0,-62.0,-27.0,69.0,-2.0,0
-11.0,-255.0,-60.0,-28.0,66.0,-2.0,0
-15.0,-255.0,-57.0,-29.0,66.0,-3.0,0
-13.0,-257.0,-61.0,-26.0,63.0,-2.0,0
-15.0,-257.0,-61.0,-27.0,61.0,-2.0,0
-16.0,-254.0,-61.0,-26.0,59.0,-2.0,0
-16.0,-254.0,-58.0,-24.0,58.0,-2.0,0
-13.0,-253.0,-56.0,-23.0,58.0,-1.0,0
-14.0,-255.0,-60.0,-20.0,57.0,-2.0,0
-12.0,-255.0,-61.0,-20.0,58.0,-4.0,0
-17.0,-254.0,-60.0,-20.0,60.0,-5.0,0
-13.0,-254.0,-58.0,-18.0,60.0,-4.0,0
-14.0,-253.0,-63.0,-18.0,62.0,-3.0,0
-13.0,-255.0,-62.0,-17.0,61.0,-5.0,0
-14.0,-256.0,-61.0,-20.0,61.0,-5.0,0
-14.0,-252.0,-60.0,-21.0,61.0,-4.0,0
-16.0,-252.0,-62.0,-22.0,60.0,-4.0,0
-13.0,-252.0,-60.0,-21.0,60.0,-4.0,0
-13.0,-254.0,-58.0,-22.0,61.0,-4.0,0
-14.0,-255.0,-63.0,-24.0,62.0,-4.0,0
-16.0,-251.0,-61.0,-27.0,62.0,-3.0,0
-17.0,-253.0,-66.0,-27.0,61.0,-3.0,0
-11.0,-254.0,-63.0,-28.0,61.0,-2.0,0
-13.0,-251.0,-60.0,-29.0,60.0,-1.0,0
-16.0,-253.0,-59.0,-28.0,58.0,-1.0,0
-12.0,-254.0,-58.0,-26.0,57.0,1.0,0
-13.0,-251.0,-60.0,-25.0,57.0,0.0,0
-16.0,-251.0,-60.0,-24.0,56.0,-1.0,0
-10.0,-255.0,-61.0,-24.0,57.0,1.0,0
-14.0,-252.0,-60.0,-26.0,57.0,-2.0,0
-12.0,-256.0,-59.0,-27.0,60.0,-2.0,0
-16.0,-253.0,-61.0,-29.0,60.0,-1.0,0
-11.0,-254.0,-58.0,-29.0,60.0,-4.0,0
-15.0,-256.0,-62.0,-29.0,62.0,-5.0,0
-14.0,-254.0,-57.0,-31.0,64.0,-5.0,0
-13.0,-254.0,-62.0,-30.0,65.0,-6.0,0
-18.0,-255.0,-63.0,-30.0,66.0,-6.0,0
-13.0,-255.0,-63.0,-31.0,66.0,-7.0,0
-16.0,-253.0,-61.0,-31.0,65.0,-8.0,0
-12.0,-259.0,-62.0,-31.0,66.0,-6.0,0
-13.0,-256.0,-62.0,-32.0,66.0,-7.0,0
-12.0,-256.0,-62.0,-31.0,64.0,-5.0,0
-16.0,-254.0,-60.0,-30.0,62.0,-3.0,0
-18.0,-252.0,-62.0,-30.0,62.0,-3.0,0
-12.0,-254.0,-63.0,-29.0,62.0,-2.0,0
-13.0,-253.0,-62.0,-27.0,64.0,-2.0,0
-14.0,-252.0,-60.0,-27.0,66.0,-1.0,0
-12.0,-253.0,-63.0,-26.0,66.0,-1.0,0
-14.0,-252.0,-61.0,-25.0,68.0,-2.0,0
-14.0,-252.0,-62.0,-25.0,69.0,-1.0,0
-13.0,-253.0,-59.0,-25.0,70.0,-2.0,0
-13.0,-253.0,-60.0,-25.0,68.0,-3.0,0
-12.0,-255.0,-60.0,-25.0,70.0,-3.0,0
-13.0,-256.0,-59.0,-24.0,69.0,-5.0,0
-12.0,-255.0,-59.0,-24.0,68.0,-5.0,0
-15.0,-254.0,-59.0,-24.0,68.0,-5.0,0
-15.0,-256.0,-60.0,-25.0,68.0,-4.0,0
-14.0,-256.0,-63.0,-23.0,67.0,-6.0,0
-15.0,-255.0,-62.0,-23.0,68.0,-6.0,0
-11.0,-255.0,-60.0,-24.0,69.0,-6.0,0
-13.0,-255.0,-56.0,-23.0,72.0,-6.0,0
-12.0,-255.0,-61.0,-23.0,73.0,-5.0,0
-15.0,-254.0,-59.0,-24.0,75.0,-5.0,0
-10.0,-254.0,-66.0,-24.0,73.0,-5.0,0
-16.0,-255.0,-62.0,-23.0,74.0,-3.0,0
-13.0,-254.0,-64.0,-21.0,76.0,-3.0,0
-14.0,-255.0,-61.0,-21.0,76.0,-3.0,0
-15.0,-252.0,-59.0,-20.0,75.0,-3.0,0
-15.0,-253.0,-63.0,-18.0,75.0,-5.0,0
-14.0,-256.0,-61.0,-18.0,75.0,-2.0,0
-13.0,-254.0,-61.0,-17.0,74.0,-1.0,0
-15.0,-256.0,-62.0,-17.0,73.0,-2.0,0
-15.0,-254.0,-64.0,-16.0,72.0,-1.0,0
-14.0,-252.0,-61.0,-14.0,74.0,-3.0,0
-14.0,-256.0,-63.0,-15.0,76.0,-2.0,0
-14.0,-251.0,-58.0,-14.0,76.0,-1.0,0
-16.0,-256.0,-63.0,-14.0,78.0,-3.0,0
-13.0,-255.0,-60.0,-13.0,79.0,-2.0,0
-13.0,-254.0,-60.0,-11.0,79.0,0.0,0
-17.0,-253.0,-60.0,-11.0,79.0,-2.0,0
-15.0,-253.0,-57.0,-11.0,79.0,-2.0,0
-17.0,-253.0,-57.0,-11.0,79.0,-1.0,0
-14.0,-251.0,-61.0,-12.0,79.0,-2.0,0
-14.0,-251.0,-60.0,-13.0,78.0,-2.0,0
-16.0,-256.0,-59.0,-13.0,77.0,-1.0,0
-12.0,-254.0,-60.0,-14.0,75.0,-2.0,0
-12.0,-253.0,-62.0,-12.0,74.0,-1.0,0
-15.0,-255.0,-63.0,-11.0,75.0,-2.0,0
-13.0,-253.0,-59.0,-13.0,75.0,-1.0,0
-13.0,-255.0,-60.0,-12.0,76.0,1.0,0
-15.0,-255.0,-57.0,-11.0,78.0,1.0,0
-15.0,-255.0,-60.0,-8.0,78.0,0.0,0
-14.0,-253.0,-61.0,-7.0,78.0,0.0,0
-14.0,-254.0,-62.0,-7.0,77.0,1.0,0
-18.0,-253.0,-61.0,-7.0,80.0,1.0,0
-14.0,-256.0,-63.0,-7.0,80.0,2.0,0
-13.0,-256.0,-59.0,-7.0,79.0,1.0,0
-13.0,-255.0,-61.0,-8.0,79.0,0.0,0
-14.0,-256.0,-55.0,-7.0,78.0,1.0,0
-14.0,-253.0,-60.0,-5.0,77.0,0.0,0
-13.0,-256.0,-62.0,-4.0,77.0,1.0,0
-14.0,-253.0,-62.0,-3.0,77.0,1.0,0
-14.0,-255.0,-60.0,-1.0,77.0,0.0,0
-16.0,-254.0,-60.0,-3.0,79.0,0.0,0
-16.0,-255.0,-62.0,-4.0,79.0,1.0,0
-13.0,-255.0,-61.0,-5.0,78.0,1.0,0
-11.0,-255.0,-62.0,-7.0,78.0,1.0,0
-15.0,-253.0,-60.0,-9.0,77.0,-1.0,0
-12.0,-252.0,-60.0,-11.0,76.0,0.0,0
-14.0,-254.0,-61.0,-11.0,75.0,-1.0,0
-15.0,-255.0,-57.0,-11.0,74.0,-2.0,0
-13.0,-256.0,-60.0,-12.0,73.0,-1.0,0
-14.0,-256.0,-62.0,-10.0,72.0,-1.0,0
-13.0,-252.0,-59.0,-8.0,72.0,1.0,0
-14.0,-256.0,-61.0,-7.0,73.0,1.0,0
-15.0,-252.0,-61.0,-9.0,71.0,2.0,0
-13.0,-253.0,-60.0,-9.0,72.0,1.0,0
-11.0,-254.0,-62.0,-10.0,74.0,-1.0,0
-13.0,-253.0,-60.0,-10.0,74.0,-1.0,0
-12.0,-252.0,-59.0,-12.0,74.0,0.0,0
-14.0,-253.0,-61.0,-13.0,74.0,0.0,0
-12.0,-254.0,-59.0,-13.0,75.0,-1.0,0
-14.0,-254.0,-62.0,-12.0,75.0,-1.0,0
-14.0,-255.0,-57.0,-13.0,76.0,0.0,0
-14.0,-255.0,-60.0,-13.0,75.0,1.0,0
-13.0,-253.0,-62.0,-12.0,74.0,-2.0,0
-11.0,-255.0,-61.0,-13.0,74.0,-2.0,0
-13.0,-255.0,-62.0,-12.0,72.0,-2.0,0
-14.0,-250.0,-63.0,-14.0,74.0,-2.0,0
-15.0,-255.0,-64.0,-14.0,73.0,-4.0,0
-13.0,-257.0,-59.0,-15.0,73.0,-3.0,0
-17.0,-252.0,-63.0,-13.0,73.0,-4.0,0
-14.0,-254.0,-62.0,-13.0,75.0,-4.0,0
-13.0,-254.0,-63.0,-9.0,75.0,-4.0,0
-13.0,-255.0,-60.0,-7.0,75.0,-3.0,0
-13.0,-253.0,-61.0,-5.0,74.0,-4.0,0
-14.0,-255.0,-61.0,-3.0,74.0,-4.0,0
-13.0,-256.0,-62.0,-1.0,74.0,-5.0,0
-13.0,-254.0,-62.0,1.0,73.0,-4.0,0
-17.0,-253.0,-64.0,2.0,71.0,-4.0,0
-12.0,-252.0,-61.0,2.0,72.0,-2.0,0
-15.0,-252.0,-62.0,3.0,71.0,-2.0,0
-12.0,-253.0,-63.0,2.0,71.0,-2.0,0
-15.0,-251.0,-63.0,2.0,70.0,-2.0,0
-13.0,-253.0,-63.0,3.0,71.0,-2.0,0
-13.0,-252.0,-61.0,3.0,72.0,-2.0,0
-14.0,-254.0,-59.0,3.0,70.0,-3.0,0
-14.0,-253.0,-55.0,4.0,69.0,-1.0,0
-13.0,-253.0,-61.0,2.0,71.0,-2.0,0
-14.0,-257.0,-57.0,1.0,72.0,-2.0,0
-14.0,-254.0,-56.0,-1.0,74.0,-3.0,0
-16.0,-254.0,-61.0,-4.0,75.0,-2.0,0
-16.0,-255.0,-60.0,-7.0,76.0,-4.0,0
-13.0,-253.0,-57.0,-8.0,76.0,-3.0,0
-15.0,-256.0,-61.0,-10.0,76.0,-5.0,0
-17.0,-254.0,-61.0,-12.0,76.0,-6.0,0
-14.0,-255.0,-58.0,-10.0,75.0,-6.0,0
-15.0,-256.0,-63.0,-8.0,74.0,-8.0,0
-15.0,-255.0,-58.0,-6.0,75.0,-7.0,0
-15.0,-256.0,-61.0,-4.0,75.0,-7.0,0
-15.0,-254.0,-63.0,-4.0,76.0,-6.0,0
-13.0,-255.0,-63.0,-5.0,76.0,-7.0,0
-11.0,-254.0,-62.0,-5.0,78.0,-5.0,0
-13.0,-256.0,-62.0,-6.0,78.0,-5.0,0
-13.0,-256.0,-61.0,-7.0,80.0,-5.0,0
-15.0,-255.0,-58.0,-8.0,81.0,-3.0,0
-14.0,-254.0,-62.0,-10.0,80.0,-2.0,0
-12.0,-255.0,-63.0,-10.0,77.0,-2.0,0
-13.0,-252.0,-63.0,-11.0,75.0,-2.0,0
-12.0,-253.0,-62.0,-13.0,73.0,-2.0,0
-13.0,-255.0,-63.0,-14.0,71.0,-2.0,0
-10.0,-254.0,-60.0,-13.0,71.0,-1.0,0
-11.0,-253.0,-62.0,-14.0,72.0,0.0,0
-11.0,-257.0,-60.0,-13.0,71.0,0.0,0
-17.0,-253.0,-63.0,-13.0,70.0,0.0,0
-11.0,-256.0,-59.0,-11.0,70.0,-1.0,0
-12.0,-255.0,-58.0,-10.0,69.0,-1.0,0
-13.0,-255.0,-57.0,-9.0,70.0,0.0,0
-14.0,-252.0,-59.0,-8.0,70.0,-3.0,0
-14.0,-255.0,-60.0,-11.0,70.0,-3.0,0
-15.0,-254.0,-60.0,-11.0,70.0,-2.0,0
-11.0,-253.0,-60.0,-13.0,71.0,-3.0,0
-17.0,-255.0,-59.0,-15.0,74.0,-3.0,0
-18.0,-256.0,-60.0,-16.0,75.0,-3.0,0
-16.0,-254.0,-60.0,-16.0,75.0,-4.0,0
-14.0,-253.0,-57.0,-16.0,77.0,-5.0,0
-16.0,-255.0,-59.0,-15.0,77.0,-5.0,0
-15.0,-253.0,-61.0,-14.0,76.0,-4.0,0
-13.0,-254.0,-64.0,-14.0,76.0,-5.0,0
-18.0,-253.0,-61.0,-14.0,77.0,-6.0,0
-13.0,-254.0,-62.0,-14.0,76.0,-6.0,0
-14.0,-255.0,-59.0,-17.0,75.0,-5.0,0
-13.0,-255.0,-61.0,-17.0,75.0,-5.0,0
-14.0,-255.0,-61.0,-19.0,73.0,-5.0,0
-17.0,-254.0,-63.0,-21.0,71.0,-5.0,0
-15.0,-250.0,-61.0,-22.0,71.0,-6.0,0
-12.0,-252.0,-64.0,-23.0,69.0,-4.0,0
-14.0,-254.0,-59.0,-21.0,68.0,-5.0,0
-14.0,-254.0,-56.0,-20.0,67.0,-5.0,0
-11.0,-253.0,-60.0,-17.0,65.0,-4.0,0
-15.0,-255.0,-59.0,-16.0,64.0,-4.0,0
-14.0,-253.0,-61.0,-17.0,66.0,-5.0,0
-14.0,-255.0,-60.0,-17.0,66.0,-4.0,0
-17.0,-252.0,-61.0,-18.0,67.0,-5.0,0
-14.0,-256.0,-62.0,-19.0,67.0,-4.0,0
-11.0,-254.0,-61.0,-18.0,69.0,-3.0,0
-12.0,-254.0,-60.0,-20.0,68.0,-3.0,0
-14.0,-254.0,-65.0,-20.0,70.0,-4.0,0
-15.0,-254.0,-58.0,-21.0,71.0,-2.0,0
-13.0,-252.0,-60.0,-22.0,71.0,-2.0,0
-11.0,-255.0,-61.0,-24.0,70.0,-2.0,0
-12.0,-256.0,-58.0,-23.0,69.0,-3.0,0
-14.0,-256.0,-60.0,-22.0,69.0,-2.0,0
-14.0,-255.0,-62.0,-22.0,70.0,-1.0,0
-12.0,-256.0,-63.0,-21.0,70.0,-2.0,0
-11.0,-255.0,-62.0,-21.0,69.0,-1.0,0
-15.0,-255.0,-60.0,-22.0,70.0,-2.0,0
-13.0,-256.0,-64.0,-20.0,69.0,-2.0,0
-14.0,-256.0,-62.0,-19.0,70.0,-3.0,0
-13.0,-256.0,-60.0,-18.0,71.0,-4.0,0
-14.0,-255.0,-62.0,-16.0,72.0,-5.0,0
-14.0,-256.0,-60.0,-14.0,72.0,-4.0,0
-13.0,-254.0,-60.0,-14.0,73.0,-4.0,0
-13.0,-256.0,-61.0,-12.0,72.0,-4.0,0
-14.0,-255.0,-59.0,-10.0,73.0,-7.0,0
-14.0,-253.0,-60.0,-9.0,73.0,-5.0,0
-15.0,-255.0,-59.0,-9.0,74.0,-6.0,0
-12.0,-256.0,-59.0,-8.0,74.0,-5.0,0
-17.0,-254.0,-63.0,-9.0,72.0,-5.0,0
-16.0,-253.0,-62.0,-8.0,73.0,-4.0,0
-13.0,-252.0,-61.0,-9.0,72.0,-6.0,0
-16.0,-251.0,-60.0,-10.0,70.0,-5.0,0
-16.0,-253.0,-61.0,-11.0,69.0,-5.0,0
-14.0,-253.0,-62.0,-10.0,67.0,-6.0,0
-16.0,-252.0,-60.0,-10.0,67.0,-5.0,0
-16.0,-253.0,-62.0,-10.0,67.0,-6.0,0
-17.0,-254.0,-62.0,-9.0,69.0,-6.0,0
-15.0,-256.0,-64.0,-10.0,69.0,-7.0,0
-12.0,-255.0,-63.0,-7.0,69.0,-8.0,0
-17.0,-255.0,-59.0,-5.0,70.0,-6.0,0
-16.0,-253.0,-61.0,-2.0,70.0,-6.0,0
-14.0,-255.0,-62.0,0.0,72.0,-6.0,0
-16.0,-255.0,-60.0,0.0,72.0,-7.0,0
-15.0,-255.0,-62.0,-3.0,75.0,-6.0,0
-14.0,-254.0,-62.0,-2.0,77.0,-6.0,0
-14.0,-252.0,-60.0,-3.0,79.0,-7.0,0
-14.0,-255.0,-61.0,-3.0,80.0,-7.0,0
-16.0,-255.0,-59.0,-2.0,81.0,-6.0,0
-14.0,-254.0,-60.0,1.0,79.0,-7.0,0
-16.0,-253.0,-62.0,3.0,75.0,-8.0,0
-14.0,-255.0,-58.0,5.0,71.0,-8.0,0
-16.0,-252.0,-60.0,5.0,70.0,-9.0,0
-18.0,-254.0,-59.0,4.0,69.0,-7.0,0
-14.0,-253.0,-60.0,1.0,64.0,-8.0,0
-16.0,-254.0,-62.0,-2.0,62.0,-8.0,0
-15.0,-254.0,-60.0,-4.0,60.0,-7.0,0
-14.0,-255.0,-63.0,-4.0,58.0,-7.0,0
-12.0,-255.0,-61.0,-6.0,60.0,-7.0,0
-17.0,-255.0,-62.0,-7.0,59.0,-6.0,0
-17.0,-253.0,-60.0,-7.0,61.0,-7.0,0
-15.0,-254.0,-60.0,-6.0,60.0,-8.0,0
-12.0,-251.0,-59.0,-8.0,61.0,-8.0,0
-15.0,-252.0,-59.0,-9.0,63.0,-8.0,0
-15.0,-252.0,-62.0,-12.0,63.0,-8.0,0
-13.0,-253.0,-58.0,-14.0,62.0,-9.0,0
-14.0,-255.0,-62.0,-17.0,62.0,-8.0,0
-14.0,-254.0,-61.0,-18.0,61.0,-8.0,0
-14.0,-255.0,-60.0,-18.0,63.0,-8.0,0
-14.0,-254.0,-59.0,-20.0,61.0,-7.0,0
-14.0,-253.0,-61.0,-21.0,61.0,-6.0,0
-12.0,-254.0,-60.0,-20.0,60.0,-5.0,0
-13.0,-252.0,-58.0,-20.0,59.0,-6.0,0
-12.0,-254.0,-60.0,-21.0,61.0,-5.0,0
-14.0,-254.0,-57.0,-22.0,63.0,-6.0,0
-16.0,-255.0,-60.0,-22.0,65.0,-6.0,0
-12.0,-256.0,-60.0,-23.0,66.0,-5.0,0
-11.0,-256.0,-61.0,-25.0,64.0,-5.0,0
-15.0,-253.0,-60.0,-27.0,65.0,-6.0,0
-15.0,-254.0,-63.0,-25.0,65.0,-8.0,0
-16.0,-257.0,-60.0,-24.0,64.0,-7.0,0
-15.0,-253.0,-59.0,-22.0,65.0,-9.0,0
-14.0,-252.0,-61.0,-19.0,65.0,-10.0,0
-14.0,-253.0,-62.0,-18.0,67.0,-8.0,0
-15.0,-254.0,-60.0,-16.0,69.0,-8.0,0
-15.0,-254.0,-61.0,-15.0,71.0,-8.0,0
-13.0,-256.0,-60.0,-15.0,72.0,-7.0,0
-15.0,-253.0,-62.0,-15.0,71.0,-8.0,0
-16.0,-252.0,-58.0,-16.0,70.0,-8.0,0
-12.0,-255.0,-54.0,-13.0,70.0,-7.0,0
-13.0,-254.0,-58.0,-11.0,69.0,-5.0,0
-10.0,-255.0,-59.0,-6.0,68.0,-5.0,0
-11.0,-256.0,-63.0,-3.0,66.0,-4.0,0
-16.0,-252.0,-61.0,-1.0,63.0,-6.0,0
-13.0,-255.0,-62.0,0.0,63.0,-4.0,0
-14.0,-255.0,-62.0,0.0,63.0,-5.0,0
-12.0,-256.0,-61.0,0.0,64.0,-4.0,0
-12.0,-254.0,-61.0,0.0,65.0,-4.0,0
-13.0,-254.0,-59.0,-1.0,68.0,-3.0,0
-12.0,-256.0,-59.0,-3.0,69.0,-4.0,0
-12.0,-255.0,-61.0,-6.0,70.0,-3.0,0
-12.0,-255.0,-59.0,-9.0,73.0,-4.0,0
-12.0,-255.0,-53.0,-11.0,75.0,-5.0,0
-13.0,-255.0,-57.0,-12.0,76.0,-5.0,0
-10.0,-256.0,-56.0,-10.0,76.0,-4.0,0
-12.0,-256.0,-58.0,-8.0,79.0,-5.0,0
-13.0,-256.0,-60.0,-9.0,80.0,-5.0,0
-14.0,-254.0,-63.0,-6.0,81.0,-6.0,0
-12.0,-256.0,-58.0,-2.0,81.0,-4.0,0
-12.0,-257.0,-64.0,-1.0,81.0,-4.0,0
-16.0,-252.0,-61.0,1.0,82.0,-3.0,0
-12.0,-254.0,-58.0,2.0,81.0,-3.0,0
-12.0,-253.0,-57.0,2.0,81.0,-3.0,0
-16.0,-255.0,-59.0,0.0,82.0,-3.0,0
-15.0,-255.0,-59.0,-2.0,82.0,-4.0,0
-14.0,-252.0,-59.0,-3.0,82.0,-3.0,0
-14.0,-254.0,-60.0,-5.0,82.0,-1.0,0
-12.0,-254.0,-59.0,-5.0,82.0,0.0,0
-13.0,-255.0,-57.0,-7.0,82.0,-1.0,0
-13.0,-254.0,-62.0,-9.0,80.0,0.0,0
-15.0,-253.0,-60.0,-10.0,78.0,0.0,0
-11.0,-253.0,-60.0,-11.0,75.0,1.0,0
-12.0,-252.0,-60.0,-10.0,75.0,1.0,0
-12.0,-253.0,-60.0,-10.0,74.0,0.0,0
-15.0,-252.0,-64.0,-11.0,75.0,2.0,0
-11.0,-255.0,-61.0,-9.0,76.0,2.0,0
-13.0,-256.0,-59.0,-7.0,79.0,1.0,0
-15.0,-250.0,-63.0,-7.0,79.0,-1.0,0
-15.0,-251.0,-62.0,-6.0,81.0,0.0,0
-11.0,-255.0,-58.0,-5.0,80.0,-1.0,0
-13.0,-253.0,-57.0,-6.0,80.0,-3.0,0
-16.0,-255.0,-62.0,-5.0,80.0,-1.0,0
-14.0,-256.0,-62.0,-4.0,79.0,-2.0,0
-14.0,-255.0,-62.0,-3.0,79.0,-2.0,0
-16.0,-254.0,-58.0,-3.0,78.0,-3.0,0
-14.0,-255.0,-58.0,-3.0,77.0,-3.0,0
-13.0,-253.0,-58.0,-4.0,77.0,-3.0,0
-13.0,-256.0,-62.0,-4.0,75.0,-3.0,0
-14.0,-253.0,-60.0,-2.0,73.0,-3.0,0
-16.0,-252.0,-64.0,-1.0,74.0,-4.0,0
-14.0,-256.0,-62.0,-2.0,73.0,-3.0,0
-14.0,-255.0,-63.0,-1.0,73.0,-4.0,0
-13.0,-256.0,-60.0,-2.0,72.0,-3.0,0
-16.0,-255.0,-61.0,-4.0,71.0,-5.0,0
-14.0,-254.0,-60.0,-5.0,72.0,-4.0,0
-15.0,-255.0,-60.0,-7.0,72.0,-3.0,0
-13.0,-253.0,-62.0,-6.0,73.0,-4.0,0
-13.0,-255.0,-59.0,-7.0,72.0,-3.0,0
-12.0,-250.0,-56.0,-7.0,72.0,-3.0,0
-14.0,-253.0,-60.0,-6.0,73.0,-4.0,0
-12.0,-255.0,-56.0,-6.0,72.0,-3.0,0
-13.0,-254.0,-63.0,-4.0,71.0,-2.0,0
-12.0,-256.0,-62.0,-2.0,69.0,-3.0,0
-13.0,-255.0,-60.0,-2.0,71.0,-5.0,0
-11.0,-256.0,-59.0,-3.0,69.0,-4.0,0
-11.0,-253.0,-58.0,-5.0,71.0,-4.0,0
-14.0,-254.0,-61.0,-4.0,70.0,-4.0,0
-14.0,-254.0,-57.0,-7.0,68.0,-2.0,0
-13.0,-254.0,-61.0,-7.0,69.0,-3.0,0
-15.0,-253.0,-63.0,-8.0,68.0,-2.0,0
-12.0,-252.0,-59.0,-8.0,69.0,-2.0,0
-13.0,-254.0,-62.0,-9.0,70.0,-2.0,0
-9.0,-254.0,-64.0,-9.0,71.0,-2.0,0
-12.0,-256.0,-61.0,-10.0,71.0,-3.0,0
-12.0,-255.0,-63.0,-13.0,73.0,-2.0,0
-13.0,-253.0,-62.0,-13.0,74.0,-4.0,0
-15.0,-254.0,-61.0,-17.0,76.0,-2.0,0
-10.0,-255.0,-61.0,-18.0,77.0,-2.0,0
-16.0,-254.0,-60.0,-18.0,77.0,-2.0,0
-14.0,-254.0,-61.0,-18.0,75.0,-2.0,0
-9.0,-253.0,-61.0,-16.0,75.0,-2.0,0
-14.0,-254.0,-58.0,-16.0,73.0,-2.0,0
-11.0,-257.0,-55.0,-16.0,72.0,-2.0,0
-16.0,-255.0,-59.0,-16.0,72.0,-1.0,0
-13.0,-254.0,-63.0,-16.0,74.0,-2.0,0
-14.0,-255.0,-61.0,-17.0,74.0,-1.0,0
-14.0,-253.0,-57.0,-18.0,75.0,-1.0,0
