ax,ay,az,gx,gy,gz,label
-4.0,-258.0,16.0,-45.0,36.0,-10.0,0
-8.0,-260.0,11.0,-46.0,36.0,-10.0,0
-6.0,-257.0,13.0,-45.0,36.0,-10.0,0
-4.0,-257.0,11.0,-45.0,35.0,-10.0,0
-6.0,-256.0,13.0,-44.0,35.0,-9.0,0
-3.0,-265.0,10.0,-44.0,33.0,-9.0,0
-4.0,-258.0,11.0,-43.0,33.0,-8.0,0
-1.0,-260.0,14.0,-43.0,33.0,-7.0,0
-4.0,-257.0,15.0,-42.0,32.0,-7.0,0
-2.0,-257.0,12.0,-43.0,31.0,-7.0,0
-4.0,-256.0,11.0,-43.0,29.0,-8.0,0
-6.0,-258.0,12.0,-44.0,29.0,-8.0,0
-6.0,-256.0,10.0,-45.0,29.0,-9.0,0
-5.0,-257.0,12.0,-46.0,29.0,-10.0,0
-4.0,-260.0,10.0,-45.0,29.0,-9.0,0
-4.0,-258.0,14.0,-47.0,30.0,-9.0,0
-5.0,-258.0,7.0,-47.0,30.0,-9.0,0
-5.0,-261.0,13.0,-46.0,29.0,-7.0,0
-10.0,-257.0,9.0,-46.0,28.0,-8.0,0
-3.0,-259.0,18.0,-46.0,27.0,-8.0,0
-5.0,-258.0,16.0,-47.0,27.0,-7.0,0
-5.0,-258.0,12.0,-47.0,27.0,-6.0,0
-2.0,-257.0,14.0,-47.0,26.0,-6.0,0
-4.0,-263.0,13.0,-47.0,25.0,-7.0,0
-4.0,-259.0,14.0,-48.0,25.0,-6.0,0
-8.0,-258.0,9.0,-48.0,23.0,-4.0,0
-4.0,-260.0,13.0,-49.0,23.0,-6.0,0
-6.0,-257.0,11.0,-50.0,23.0,-6.0,0
-5.0,-259.0,14.0,-50.0,23.0,-6.0,0
-5.0,-257.0,11.0,-52.0,22.0,-5.0,0
-5.0,-259.0,8.0,-52.0,22.0,-5.0,0
-6.0,-256.0,15.0,-51.0,21.0,-6.0,0
-8.0,-258.0,11.0,-53.0,19.0,-7.0,0
-5.0,-260.0,8.0,-53.0,20.0,-7.0,0
-6.0,-256.0,12.0,-53.0,22.0,-7.0,0
-7.0,-259.0,9.0,-55.0,21.0,-7.0,0
-4.0,-262.0,13.0,-53.0,20.0,-7.0,0
-7.0,-259.0,7.0,-54.0,19.0,-7.0,0
-6.0,-256.0,7.0,-53.0,19.0,-7.0,0
-6.0,-259.0,10.0,-55.0,19.0,-7.0,0
-5.0,-258.0,9.0,-55.0,19.0,-6.0,0
-5.0,-261.0,8.0,-56.0,18.0,-5.0,0
-5.0,-259.0,10.0,-57.0,18.0,-6.0,0
-5.0,-259.0,11.0,-57.0,18.0,-4.0,0
-5.0,-257.0,8.0,-58.0,17.0,-4.0,0
-4.0,-259.0,8.0,-56.0,16.0,-4.0,0
-4.0,-262.0,8.0,-58.0,16.0,-5.0,0
2.0,-257.0,7.0,-57.0,16.0,-4.0,0
-7.0,-257.0,8.0,-57.0,16.0,-4.0,0
-3.0,-261.0,4.0,-57.0,16.0,-5.0,0
-6.0,-259.0,10.0,-57.0,15.0,-5.0,0
-4.0,-257.0,8.0,-57.0,15.0,-5.0,0
-1.0,-258.0,16.0,-54.0,15.0,-3.0,0
-6.0,-260.0,9.0,-54.0,16.0,-2.0,0
-3.0,-258.0,9.0,-55.0,16.0,-1.0,0
-3.0,-258.0,12.0,-53.0,16.0,-1.0,0
-6.0,-261.0,4.0,-54.0,15.0,-3.0,0
-4.0,-259.0,11.0,-51.0,15.0,-4.0,0
-7.0,-257.0,18.0,-51.0,14.0,-4.0,0
-3.0,-261.0,10.0,-50.0,15.0,-5.0,0
-6.0,-259.0,12.0,-49.0,16.0,-4.0,0
-4.0,-257.0,11.0,-47.0,16.0,-4.0,0
-3.0,-258.0,14.0,-48.0,17.0,-5.0,0
-5.0,-257.0,11.0,-47.0,16.0,-5.0,0
-3.0,-260.0,10.0,-47.0,16.0,-5.0,0
-1.0,-257.0,7.0,-46.0,16.0,-3.0,0
-5.0,-255.0,13.0,-45.0,16.0,-5.0,0
-3.0,-258.0,8.0,-44.0,17.0,-5.0,0
-2.0,-257.0,12.0,-43.0,17.0,-4.0,0
2.0,-259.0,11.0,-42.0,18.0,-4.0,0
-2.0,-261.0,7.0,-43.0,17.0,-5.0,0
0.0,-255.0,9.0,-44.0,18.0,-5.0,0
-1.0,-259.0,17.0,-43.0,18.0,-6.0,0
-6.0,-256.0,9.0,-43.0,18.0,-6.0,0
1.0,-257.0,21.0,-41.0,18.0,-6.0,0
-8.0,-257.0,19.0,-40.0,19.0,-7.0,0
-7.0,-258.0,6.0,-40.0,21.0,-5.0,0
7.0,-261.0,0.0,-38.0,21.0,-5.0,0
-4.0,-261.0,8.0,-37.0,21.0,-5.0,0
-5.0,-265.0,16.0,-35.0,22.0,-6.0,0
-5.0,-255.0,23.0,-34.0,23.0,-5.0,0
-8.0,-262.0,15.0,-31.0,25.0,-9.0,0
0.0,-263.0,14.0,-31.0,24.0,-6.0,0
-8.0,-259.0,8.0,-30.0,24.0,-7.0,0
-2.0,-255.0,3.0,-30.0,25.0,-7.0,0
-7.0,-259.0,14.0,-29.0,26.0,-7.0,0
-3.0,-267.0,0.0,-27.0,25.0,-6.0,0
1.0,-261.0,13.0,-27.0,25.0,-7.0,0
-2.0,-256.0,6.0,-29.0,25.0,-8.0,0
-6.0,-262.0,14.0,-31.0,24.0,-8.0,0
-7.0,-260.0,15.0,-34.0,24.0,-7.0,0
1.0,-259.0,12.0,-34.0,23.0,-8.0,0
-4.0,-261.0,15.0,-34.0,22.0,-8.0,0
-3.0,-259.0,12.0,-35.0,24.0,-7.0,0
-4.0,-255.0,9.0,-34.0,24.0,-7.0,0
8.0,-254.0,18.0,-32.0,25.0,-7.0,0
-6.0,-258.0,14.0,-31.0,25.0,-8.0,0
-2.0,-260.0,9.0,-28.0,26.0,-7.0,0
-7.0,-256.0,15.0,-26.0,24.0,-8.0,0
-5.0,-255.0,13.0,-26.0,23.0,-7.0,0
-4.0,-257.0,15.0,-30.0,24.0,-8.0,0
-6.0,-257.0,12.0,-33.0,26.0,-9.0,0
-7.0,-255.0,10.0,-35.0,28.0,-10.0,0
-4.0,-261.0,17.0,-39.0,29.0,-12.0,0
-4.0,-258.0,14.0,-41.0,31.0,-12.0,0
-2.0,-259.0,9.0,-42.0,33.0,-13.0,0
-7.0,-258.0,12.0,-40.0,35.0,-11.0,0
-5.0,-259.0,10.0,-38.0,35.0,-12.0,0
-5.0,-257.0,16.0,-36.0,36.0,-13.0,0
-4.0,-259.0,15.0,-34.0,37.0,-12.0,0
-3.0,-258.0,11.0,-35.0,36.0,-12.0,0
-2.0,-259.0,16.0,-33.0,38.0,-11.0,0
-6.0,-259.0,14.0,-33.0,38.0,-11.0,0
-6.0,-258.0,12.0,-32.0,38.0,-11.0,0
-7.0,-256.0,14.0,-32.0,38.0,-11.0,0
-2.0,-259.0,11.0,-33.0,36.0,-13.0,0
-2.0,-258.0,11.0,-38.0,37.0,-14.0,0
-4.0,-262.0,12.0,-38.0,38.0,-14.0,0
-3.0,-259.0,13.0,-40.0,40.0,-13.0,0
-5.0,-258.0,10.0,-39.0,40.0,-13.0,0
-3.0,-260.0,15.0,-39.0,40.0,-15.0,0
-6.0,-261.0,10.0,-36.0,42.0,-15.0,0
-8.0,-260.0,7.0,-34.0,44.0,-15.0,0
-13.0,-260.0,14.0,-34.0,47.0,-15.0,0
-4.0,-256.0,14.0,-33.0,47.0,-15.0,0
-4.0,-258.0,13.0,-33.0,49.0,-14.0,0
-5.0,-260.0,10.0,-33.0,50.0,-15.0,0
-4.0,-259.0,12.0,-33.0,49.0,-14.0,0
-5.0,-257.0,14.0,-35.0,48.0,-15.0,0
-6.0,-256.0,13.0,-37.0,48.0,-16.0,0
-3.0,-258.0,9.0,-38.0,48.0,-16.0,0
-8.0,-258.0,14.0,-38.0,48.0,-15.0,0
-5.0,-258.0,14.0,-38.0,49.0,-16.0,0
-8.0,-257.0,10.0,-37.0,47.0,-17.0,0
-8.0,-259.0,16.0,-37.0,49.0,-16.0,0
-2.0,-258.0,13.0,-37.0,47.0,-15.0,0
-4.0,-259.0,14.0,-38.0,48.0,-16.0,0
-8.0,-257.0,12.0,-40.0,47.0,-14.0,0
-6.0,-257.0,11.0,-40.0,45.0,-15.0,0
-3.0,-258.0,15.0,-42.0,45.0,-15.0,0
-3.0,-258.0,12.0,-41.0,44.0,-14.0,0
-4.0,-259.0,16.0,-42.0,43.0,-14.0,0
-4.0,-258.0,14.0,-39.0,43.0,-14.0,0
0.0,-259.0,14.0,-39.0,44.0,-11.0,0
-6.0,-258.0,8.0,-39.0,43.0,-12.0,0
-2.0,-261.0,13.0,-36.0,43.0,-12.0,0
-4.0,-257.0,11.0,-37.0,42.0,-13.0,0
-4.0,-259.0,16.0,-39.0,42.0,-12.0,0
-4.0,-258.0,13.0,-41.0,40.0,-12.0,0
-5.0,-258.0,9.0,-41.0,40.0,-13.0,0
-7.0,-258.0,14.0,-43.0,39.0,-13.0,0
-6.0,-256.0,10.0,-41.0,38.0,-13.0,0
-5.0,-259.0,13.0,-39.0,38.0,-13.0,0
-3.0,-263.0,12.0,-41.0,37.0,-12.0,0
-4.0,-264.0,16.0,-41.0,36.0,-13.0,0
-7.0,-259.0,15.0,-41.0,37.0,-11.0,0
-10.0,-259.0,14.0,-42.0,36.0,-10.0,0
-2.0,-259.0,14.0,-42.0,36.0,-12.0,0
-7.0,-261.0,16.0,-41.0,37.0,-9.0,0
-4.0,-257.0,12.0,-39.0,35.0,-9.0,0
-7.0,-256.0,15.0,-37.0,34.0,-10.0,0
-5.0,-258.0,15.0,-37.0,32.0,-8.0,0
-8.0,-259.0,5.0,-38.0,30.0,-9.0,0
-6.0,-257.0,11.0,-38.0,29.0,-7.0,0
-3.0,-260.0,11.0,-40.0,27.0,-8.0,0
-2.0,-265.0,11.0,-40.0,27.0,-7.0,0
-7.0,-257.0,10.0,-39.0,25.0,-9.0,0
-2.0,-257.0,10.0,-41.0,26.0,-7.0,0
-7.0,-259.0,14.0,-41.0,26.0,-8.0,0
-4.0,-258.0,13.0,-42.0,25.0,-8.0,0
-7.0,-256.0,13.0,-43.0,25.0,-8.0,0
-5.0,-258.0,14.0,-44.0,25.0,-8.0,0
-5.0,-259.0,11.0,-45.0,24.0,-8.0,0
-8.0,-260.0,9.0,-45.0,25.0,-9.0,0
-6.0,-260.0,14.0,-44.0,24.0,-7.0,0
-1.0,-258.0,12.0,-43.0,25.0,-7.0,0
-6.0,-259.0,14.0,-43.0,24.0,-6.0,0
-6.0,-257.0,14.0,-42.0,24.0,-7.0,0
-3.0,-259.0,14.0,-43.0,24.0,-7.0,0
-5.0,-260.0,13.0,-42.0,23.0,-6.0,0
-5.0,-257.0,15.0,-40.0,23.0,-6.0,0
-4.0,-259.0,13.0,-40.0,24.0,-5.0,0
-3.0,-259.0,11.0,-39.0,23.0,-6.0,0
-2.0,-259.0,12.0,-40.0,22.0,-6.0,0
-4.0,-256.0,17.0,-39.0,22.0,-6.0,0
0.0,-259.0,12.0,-40.0,22.0,-5.0,0
3.0,-263.0,16.0,-39.0,22.0,-5.0,0
-5.0,-259.0,14.0,-42.0,22.0,-6.0,0
-5.0,-256.0,11.0,-40.0,21.0,-4.0,0
-6.0,-257.0,13.0,-39.0,19.0,-4.0,0
-3.0,-258.0,13.0,-40.0,20.0,-3.0,0
-5.0,-257.0,11.0,-41.0,18.0,-5.0,0
-6.0,-259.0,14.0,-40.0,18.0,-5.0,0
-4.0,-257.0,15.0,-40.0,20.0,-4.0,0
-3.0,-256.0,12.0,-40.0,18.0,-4.0,0
-5.0,-259.0,11.0,-40.0,17.0,-3.0,0
-4.0,-258.0,13.0,-40.0,17.0,-4.0,0
-5.0,-258.0,13.0,-40.0,16.0,-3.0,0
-6.0,-258.0,16.0,-41.0,17.0,-3.0,0
-5.0,-257.0,16.0,-40.0,16.0,-2.0,0
-6.0,-257.0,16.0,-41.0,15.0,-2.0,0
-5.0,-258.0,12.0,-41.0,16.0,-1.0,0
-3.0,-257.0,13.0,-41.0,16.0,-3.0,0
-6.0,-257.0,13.0,-43.0,15.0,-3.0,0
-6.0,-257.0,11.0,-43.0,15.0,-4.0,0
-7.0,-256.0,14.0,-42.0,15.0,-3.0,0
-7.0,-258.0,15.0,-41.0,15.0,-3.0,0
-2.0,-258.0,11.0,-41.0,16.0,-4.0,0
-3.0,-259.0,12.0,-43.0,15.0,-4.0,0
-4.0,-259.0,15.0,-41.0,15.0,-4.0,0
-4.0,-257.0,11.0,-42.0,13.0,-3.0,0
-2.0,-259.0,16.0,-41.0,14.0,-3.0,0
-3.0,-258.0,15.0,-41.0,12.0,-1.0,0
-4.0,-258.0,14.0,-40.0,13.0,-1.0,0
-3.0,-258.0,10.0,-40.0,11.0,-1.0,0
-4.0,-261.0,15.0,-40.0,11.0,-1.0,0
-5.0,-259.0,14.0,-41.0,10.0,-2.0,0
-4.0,-254.0,12.0,-40.0,8.0,-1.0,0
-7.0,-258.0,12.0,-39.0,7.0,-2.0,0
-4.0,-257.0,11.0,-41.0,7.0,-1.0,0
-4.0,-259.0,15.0,-41.0,9.0,-1.0,0
-6.0,-257.0,15.0,-40.0,9.0,-1.0,0
-5.0,-260.0,13.0,-41.0,8.0,-1.0,0
-6.0,-257.0,14.0,-39.0,8.0,-1.0,0
-4.0,-258.0,12.0,-40.0,7.0,-2.0,0
-1.0,-257.0,16.0,-39.0,8.0,-2.0,0
-3.0,-258.0,15.0,-38.0,7.0,-1.0,0
-6.0,-256.0,13.0,-38.0,6.0,-2.0,0
0.0,-262.0,9.0,-40.0,7.0,-2.0,0
-3.0,-262.0,18.0,-41.0,7.0,-3.0,0
-4.0,-259.0,12.0,-45.0,7.0,-2.0,0
-4.0,-259.0,13.0,-46.0,9.0,-3.0,0
-8.0,-257.0,12.0,-47.0,8.0,-2.0,0
0.0,-262.0,12.0,-45.0,10.0,-2.0,0
-6.0,-258.0,13.0,-45.0,12.0,-3.0,0
-5.0,-257.0,18.0,-44.0,13.0,-2.0,0
-3.0,-258.0,15.0,-41.0,11.0,-2.0,0
-4.0,-258.0,14.0,-40.0,11.0,-2.0,0
-3.0,-258.0,15.0,-39.0,10.0,0.0,0
-8.0,-257.0,14.0,-38.0,9.0,0.0,0
-4.0,-256.0,16.0,-41.0,9.0,-1.0,0
-5.0,-257.0,15.0,-45.0,8.0,-2.0,0
-4.0,-258.0,17.0,-50.0,10.0,-3.0,0
-2.0,-259.0,13.0,-53.0,13.0,-3.0,0
-5.0,-260.0,11.0,-55.0,16.0,-4.0,0
-8.0,-256.0,17.0,-53.0,17.0,-4.0,0
-3.0,-260.0,13.0,-52.0,18.0,-6.0,0
-3.0,-257.0,14.0,-50.0,17.0,-7.0,0
-4.0,-258.0,15.0,-48.0,18.0,-6.0,0
-1.0,-258.0,11.0,-48.0,17.0,-4.0,0
-3.0,-253.0,12.0,-48.0,18.0,-6.0,0
-4.0,-260.0,16.0,-50.0,16.0,-6.0,0
-3.0,-260.0,9.0,-53.0,14.0,-5.0,0
-2.0,-262.0,13.0,-53.0,13.0,-5.0,0
-4.0,-260.0,15.0,-55.0,12.0,-5.0,0
-6.0,-255.0,11.0,-54.0,12.0,-5.0,0
-5.0,-258.0,14.0,-53.0,11.0,-5.0,0
-3.0,-260.0,12.0,-51.0,10.0,-4.0,0
-5.0,-258.0,16.0,-51.0,11.0,-4.0,0
-2.0,-261.0,11.0,-49.0,11.0,-3.0,0
-6.0,-258.0,14.0,-48.0,11.0,-3.0,0
-7.0,-261.0,8.0,-49.0,13.0,-3.0,0
-5.0,-259.0,9.0,-48.0,11.0,-3.0,0
-6.0,-261.0,16.0,-48.0,11.0,-3.0,0
-5.0,-258.0,14.0,-46.0,11.0,-3.0,0
-8.0,-256.0,9.0,-44.0,10.0,-3.0,0
-6.0,-260.0,12.0,-44.0,10.0,-2.0,0
-4.0,-259.0,12.0,-43.0,12.0,-3.0,0
-8.0,-257.0,11.0,-42.0,13.0,-4.0,0
-3.0,-259.0,10.0,-42.0,12.0,-3.0,0
-6.0,-257.0,9.0,-42.0,12.0,-3.0,0
-2.0,-256.0,13.0,-41.0,13.0,-4.0,0
-5.0,-259.0,13.0,-42.0,13.0,-6.0,0
-4.0,-258.0,13.0,-40.0,13.0,-5.0,0
-3.0,-256.0,12.0,-40.0,11.0,-5.0,0
-2.0,-259.0,8.0,-41.0,13.0,-5.0,0
-3.0,-258.0,14.0,-38.0,14.0,-7.0,0
-3.0,-259.0,16.0,-40.0,13.0,-6.0,0
-4.0,-260.0,13.0,-38.0,12.0,-6.0,0
-5.0,-260.0,14.0,-37.0,12.0,-6.0,0
-5.0,-258.0,12.0,-37.0,10.0,-6.0,0
-5.0,-259.0,10.0,-36.0,11.0,-7.0,0
-6.0,-258.0,11.0,-34.0,12.0,-7.0,0
-5.0,-257.0,15.0,-31.0,12.0,-6.0,0
-6.0,-258.0,10.0,-29.0,13.0,-7.0,0
-7.0,-257.0,10.0,-29.0,15.0,-7.0,0
-3.0,-258.0,9.0,-30.0,15.0,-6.0,0
-5.0,-257.0,11.0,-32.0,16.0,-7.0,0
-5.0,-257.0,15.0,-32.0,17.0,-6.0,0
-4.0,-256.0,13.0,-33.0,17.0,-6.0,0
-5.0,-258.0,10.0,-33.0,17.0,-7.0,0
-2.0,-259.0,14.0,-33.0,18.0,-6.0,0
-6.0,-259.0,12.0,-31.0,16.0,-7.0,0
-3.0,-255.0,11.0,-33.0,16.0,-7.0,0
-4.0,-257.0,14.0,-34.0,15.0,-6.0,0
-4.0,-259.0,10.0,-33.0,16.0,-5.0,0
-6.0,-258.0,9.0,-35.0,15.0,-6.0,0
-5.0,-258.0,8.0,-34.0,15.0,-6.0,0
-4.0,-257.0,14.0,-35.0,14.0,-7.0,0
-1.0,-262.0,5.0,-34.0,15.0,-7.0,0
-6.0,-259.0,8.0,-35.0,14.0,-8.0,0
-3.0,-261.0,12.0,-35.0,13.0,-7.0,0
-2.0,-259.0,9.0,-35.0,14.0,-7.0,0
-3.0,-266.0,12.0,-34.0,14.0,-7.0,0
-5.0,-257.0,8.0,-34.0,14.0,-7.0,0
-3.0,-262.0,12.0,-35.0,14.0,-8.0,0
-3.0,-257.0,8.0,-36.0,13.0,-7.0,0
-5.0,-258.0,13.0,-33.0,12.0,-5.0,0
-5.0,-260.0,12.0,-33.0,12.0,-4.0,0
-5.0,-256.0,13.0,-31.0,12.0,-5.0,0
-6.0,-262.0,10.0,-33.0,10.0,-5.0,0
-7.0,-257.0,7.0,-32.0,11.0,-4.0,0
-7.0,-257.0,11.0,-33.0,11.0,-5.0,0
-4.0,-257.0,13.0,-33.0,10.0,-6.0,0
-6.0,-258.0,7.0,-32.0,9.0,-6.0,0
-7.0,-257.0,12.0,-33.0,11.0,-6.0,0
-6.0,-259.0,10.0,-32.0,9.0,-7.0,0
-6.0,-257.0,14.0,-34.0,10.0,-8.0,0
-7.0,-259.0,11.0,-37.0,9.0,-7.0,0
-6.0,-256.0,9.0,-39.0,9.0,-7.0,0
-3.0,-260.0,14.0,-42.0,10.0,-8.0,0
-1.0,-257.0,8.0,-43.0,10.0,-8.0,0
-4.0,-257.0,14.0,-45.0,11.0,-10.0,0
-1.0,-258.0,14.0,-48.0,11.0,-9.0,0
-3.0,-257.0,11.0,-48.0,10.0,-9.0,0
-5.0,-264.0,14.0,-48.0,10.0,-9.0,0
-5.0,-257.0,12.0,-48.0,9.0,-8.0,0
-4.0,-257.0,14.0,-48.0,8.0,-9.0,0
-6.0,-256.0,12.0,-47.0,9.0,-8.0,0
-4.0,-258.0,11.0,-48.0,6.0,-8.0,0
-2.0,-262.0,15.0,-48.0,5.0,-8.0,0
-6.0,-257.0,13.0,-48.0,5.0,-9.0,0
-4.0,-259.0,14.0,-48.0,6.0,-10.0,0
-4.0,-261.0,15.0,-49.0,7.0,-9.0,0
-6.0,-257.0,11.0,-50.0,7.0,-10.0,0
-5.0,-258.0,11.0,-50.0,9.0,-11.0,0
-5.0,-257.0,11.0,-52.0,10.0,-11.0,0
-3.0,-258.0,12.0,-53.0,11.0,-13.0,0
-4.0,-259.0,13.0,-51.0,11.0,-13.0,0
-7.0,-258.0,15.0,-51.0,11.0,-12.0,0
-4.0,-260.0,14.0,-55.0,9.0,-13.0,0
-4.0,-259.0,11.0,-55.0,10.0,-14.0,0
-1.0,-256.0,14.0,-55.0,7.0,-12.0,0
-4.0,-259.0,13.0,-56.0,9.0,-12.0,0
-6.0,-257.0,13.0,-57.0,7.0,-12.0,0
-3.0,-260.0,18.0,-57.0,7.0,-11.0,0
-3.0,-259.0,12.0,-59.0,5.0,-11.0,0
-1.0,-259.0,14.0,-59.0,5.0,-10.0,0
-3.0,-258.0,7.0,-61.0,5.0,-10.0,0
-5.0,-256.0,12.0,-60.0,7.0,-9.0,0
-5.0,-258.0,12.0,-60.0,7.0,-9.0,0
-6.0,-259.0,13.0,-60.0,7.0,-9.0,0
-3.0,-258.0,15.0,-58.0,8.0,-9.0,0
-3.0,-257.0,11.0,-59.0,7.0,-9.0,0
-3.0,-259.0,14.0,-59.0,7.0,-9.0,0
-5.0,-257.0,13.0,-58.0,7.0,-7.0,0
-4.0,-258.0,10.0,-58.0,7.0,-8.0,0
-9.0,-265.0,23.0,-58.0,7.0,-8.0,0
-9.0,-257.0,13.0,-59.0,5.0,-6.0,0
-6.0,-259.0,12.0,-58.0,5.0,-7.0,0
-5.0,-256.0,11.0,-58.0,4.0,-7.0,0
-9.0,-257.0,10.0,-58.0,3.0,-4.0,0
-6.0,-257.0,14.0,-60.0,5.0,-4.0,0
-5.0,-263.0,12.0,-62.0,4.0,-5.0,0
-11.0,-256.0,9.0,-62.0,4.0,-5.0,0
-2.0,-258.0,14.0,-64.0,3.0,-4.0,0
-5.0,-256.0,6.0,-66.0,1.0,-5.0,0
-13.0,-255.0,15.0,-67.0,1.0,-5.0,0
-9.0,-256.0,16.0,-73.0,0.0,-6.0,0
-6.0,-256.0,10.0,-78.0,-1.0,-5.0,0
-7.0,-255.0,10.0,-83.0,-2.0,-5.0,0
-6.0,-257.0,14.0,-87.0,-2.0,-5.0,0
-6.0,-256.0,9.0,-90.0,-2.0,-6.0,0
-6.0,-258.0,11.0,-94.0,0.0,-6.0,0
-8.0,-257.0,9.0,-98.0,0.0,-7.0,0
-5.0,-255.0,13.0,-100.0,0.0,-8.0,0
-5.0,-258.0,15.0,-101.0,1.0,-7.0,0
-5.0,-259.0,10.0,-100.0,1.0,-8.0,0
-8.0,-257.0,14.0,-100.0,0.0,-6.0,0
-6.0,-257.0,9.0,-99.0,0.0,-5.0,0
-4.0,-256.0,7.0,-102.0,0.0,-6.0,0
-1.0,-259.0,16.0,-105.0,0.0,-4.0,0
-4.0,-259.0,9.0,-108.0,0.0,-4.0,0
-3.0,-258.0,4.0,-111.0,0.0,-6.0,0
-4.0,-257.0,11.0,-112.0,0.0,-5.0,0
-5.0,-257.0,6.0,-114.0,2.0,-8.0,0
-2.0,-259.0,15.0,-115.0,3.0,-7.0,0
-4.0,-259.0,7.0,-115.0,4.0,-8.0,0
-5.0,-260.0,6.0,-112.0,5.0,-9.0,0
-7.0,-256.0,8.0,-110.0,6.0,-9.0,0
-3.0,-262.0,10.0,-109.0,8.0,-8.0,0
-3.0,-260.0,9.0,-107.0,10.0,-8.0,0
-4.0,-257.0,7.0,-104.0,11.0,-7.0,0
-5.0,-260.0,11.0,-102.0,10.0,-9.0,0
-5.0,-257.0,10.0,-103.0,13.0,-8.0,0
-4.0,-258.0,6.0,-103.0,14.0,-8.0,0
-5.0,-258.0,5.0,-104.0,15.0,-8.0,0
-3.0,-261.0,8.0,-107.0,16.0,-9.0,0
-2.0,-258.0,6.0,-109.0,15.0,-8.0,0
-5.0,-264.0,15.0,-110.0,17.0,-9.0,0
-4.0,-256.0,4.0,-109.0,18.0,-7.0,0
-3.0,-260.0,7.0,-109.0,21.0,-8.0,0
-5.0,-257.0,6.0,-109.0,21.0,-7.0,0
-6.0,-257.0,4.0,-109.0,24.0,-8.0,0
-4.0,-259.0,4.0,-108.0,25.0,-9.0,0
-4.0,-259.0,7.0,-110.0,26.0,-11.0,0
-7.0,-258.0,5.0,-109.0,28.0,-9.0,0
-2.0,-259.0,3.0,-111.0,29.0,-9.0,0
-3.0,-258.0,6.0,-111.0,32.0,-10.0,0
-2.0,-258.0,6.0,-111.0,33.0,-11.0,0
-2.0,-259.0,8.0,-110.0,35.0,-10.0,0
-5.0,-260.0,4.0,-113.0,35.0,-10.0,0
-3.0,-259.0,5.0,-114.0,37.0,-10.0,0
-7.0,-258.0,0.0,-117.0,38.0,-11.0,0
-4.0,-260.0,3.0,-118.0,39.0,-11.0,0
-3.0,-260.0,3.0,-121.0,39.0,-10.0,0
-7.0,-256.0,6.0,-124.0,39.0,-10.0,0
-8.0,-260.0,3.0,-126.0,43.0,-12.0,0
-5.0,-260.0,3.0,-126.0,43.0,-14.0,0
-3.0,-262.0,0.0,-127.0,44.0,-14.0,0
-7.0,-257.0,3.0,-129.0,45.0,-13.0,0
-8.0,-255.0,2.0,-131.0,45.0,-13.0,0
-5.0,-256.0,2.0,-132.0,46.0,-14.0,0
-5.0,-260.0,1.0,-133.0,49.0,-12.0,0
-5.0,-257.0,-1.0,-135.0,49.0,-13.0,0
-6.0,-261.0,-2.0,-136.0,51.0,-12.0,0
-5.0,-262.0,-3.0,-137.0,50.0,-13.0,0
-7.0,-260.0,-3.0,-137.0,51.0,-12.0,0
-7.0,-259.0,-2.0,-138.0,52.0,-12.0,0
-6.0,-258.0,-2.0,-139.0,55.0,-12.0,0
-5.0,-261.0,-7.0,-140.0,55.0,-11.0,0
-7.0,-261.0,-4.0,-141.0,57.0,-9.0,0
-6.0,-258.0,-7.0,-141.0,59.0,-9.0,0
-5.0,-258.0,-8.0,-143.0,60.0,-8.0,0
-4.0,-262.0,-9.0,-145.0,59.0,-6.0,0
-5.0,-258.0,-14.0,-146.0,62.0,-7.0,0
-6.0,-263.0,-7.0,-147.0,65.0,-4.0,0
-5.0,-261.0,-8.0,-151.0,68.0,-5.0,0
-7.0,-259.0,-9.0,-155.0,71.0,-3.0,0
-5.0,-261.0,-9.0,-162.0,74.0,-5.0,0
-8.0,-257.0,-10.0,-166.0,77.0,-4.0,0
-5.0,-258.0,-11.0,-174.0,79.0,-6.0,0
-5.0,-258.0,-14.0,-182.0,81.0,-6.0,0
-7.0,-260.0,-13.0,-189.0,82.0,-5.0,0
-8.0,-260.0,-13.0,-193.0,84.0,-7.0,0
-5.0,-259.0,-19.0,-199.0,87.0,-6.0,0
-4.0,-262.0,-16.0,-208.0,91.0,-7.0,0
-8.0,-258.0,-18.0,-219.0,97.0,-8.0,0
-7.0,-257.0,-21.0,-232.0,104.0,-9.0,0
-10.0,-257.0,-17.0,-249.0,110.0,-11.0,0
-10.0,-256.0,-21.0,-267.0,115.0,-13.0,0
-8.0,-256.0,-22.0,-288.0,119.0,-15.0,0
-11.0,-258.0,-31.0,-309.0,122.0,-16.0,0
-11.0,-256.0,-25.0,-331.0,126.0,-17.0,0
-9.0,-254.0,-31.0,-351.0,128.0,-16.0,0
-11.0,-255.0,-31.0,-371.0,130.0,-14.0,0
-9.0,-256.0,-31.0,-389.0,135.0,-12.0,0
-11.0,-253.0,-33.0,-407.0,135.0,-10.0,0
-12.0,-253.0,-32.0,-429.0,137.0,-7.0,0
-11.0,-253.0,-37.0,-448.0,140.0,-4.0,0
-10.0,-254.0,-36.0,-468.0,142.0,-1.0,0
-12.0,-253.0,-41.0,-485.0,143.0,1.0,0
-10.0,-253.0,-43.0,-507.0,143.0,2.0,0
-8.0,-256.0,-38.0,-533.0,143.0,3.0,0
-10.0,-256.0,-48.0,-556.0,143.0,6.0,0
-10.0,-255.0,-49.0,-577.0,146.0,5.0,0
-9.0,-256.0,-48.0,-594.0,147.0,5.0,0
-11.0,-253.0,-55.0,-609.0,151.0,7.0,0
-9.0,-253.0,-58.0,-624.0,154.0,6.0,0
-11.0,-248.0,-58.0,-640.0,156.0,7.0,0
-9.0,-248.0,-64.0,-658.0,158.0,8.0,0
-10.0,-246.0,-62.0,-679.0,160.0,9.0,0
-10.0,-243.0,-68.0,-707.0,157.0,12.0,0
-8.0,-239.0,-75.0,-738.0,158.0,13.0,0
-7.0,-235.0,-84.0,-771.0,162.0,14.0,0
-10.0,-234.0,-80.0,-812.0,165.0,17.0,0
-9.0,-230.0,-86.0,-857.0,169.0,20.0,0
-6.0,-223.0,-93.0,-907.0,174.0,23.0,0
-5.0,-220.0,-98.0,-962.0,181.0,26.0,0
-6.0,-218.0,-102.0,-1024.0,190.0,27.0,0
-3.0,-208.0,-107.0,-1089.0,203.0,25.0,0
0.0,-205.0,-112.0,-1161.0,214.0,26.0,0
2.0,-201.0,-117.0,-1236.0,223.0,26.0,0
0.0,-191.0,-112.0,-1317.0,229.0,27.0,0
5.0,-188.0,-116.0,-1397.0,236.0,29.0,0
2.0,-177.0,-115.0,-1476.0,245.0,32.0,0
8.0,-170.0,-116.0,-1555.0,253.0,36.0,0
8.0,-158.0,-114.0,-1632.0,259.0,41.0,0
9.0,-150.0,-121.0,-1705.0,260.0,47.0,0
10.0,-139.0,-116.0,-1788.0,257.0,56.0,0
5.0,-128.0,-111.0,-1877.0,245.0,68.0,0
7.0,-124.0,-110.0,-1968.0,221.0,82.0,0
6.0,-114.0,-97.0,-2050.0,194.0,95.0,0
2.0,-106.0,-93.0,-2112.0,164.0,110.0,0
-1.0,-102.0,-81.0,-2169.0,125.0,126.0,0
-8.0,-100.0,-70.0,-2218.0,80.0,142.0,0
-12.0,-98.0,-55.0,-2258.0,28.0,156.0,0
-10.0,-100.0,-49.0,-2279.0,-22.0,167.0,0
-13.0,-101.0,-37.0,-2277.0,-67.0,170.0,0
-15.0,-105.0,-26.0,-2247.0,-109.0,172.0,0
-16.0,-111.0,-16.0,-2189.0,-138.0,168.0,0
-16.0,-116.0,-11.0,-2116.0,-157.0,152.0,0
-16.0,-121.0,-2.0,-2016.0,-166.0,131.0,0
-19.0,-127.0,8.0,-1889.0,-172.0,107.0,0
-25.0,-128.0,8.0,-1749.0,-171.0,89.0,0
-24.0,-131.0,2.0,-1600.0,-170.0,71.0,0
-21.0,-136.0,0.0,-1437.0,-165.0,60.0,0
-18.0,-141.0,-6.0,-1270.0,-152.0,50.0,0
-18.0,-146.0,-8.0,-1115.0,-128.0,40.0,0
-17.0,-154.0,-12.0,-975.0,-93.0,27.0,0
-16.0,-160.0,-14.0,-839.0,-49.0,15.0,0
-11.0,-167.0,-13.0,-712.0,1.0,5.0,0
-6.0,-170.0,-18.0,-595.0,50.0,-1.0,0
-5.0,-170.0,-20.0,-481.0,97.0,-8.0,0
7.0,-171.0,-24.0,-382.0,140.0,-9.0,0
10.0,-166.0,-25.0,-311.0,176.0,-8.0,0
17.0,-162.0,-25.0,-255.0,199.0,-6.0,0
32.0,-159.0,-32.0,-217.0,214.0,-7.0,0
39.0,-154.0,-34.0,-191.0,222.0,-14.0,0
47.0,-151.0,-28.0,-172.0,231.0,-28.0,0
49.0,-147.0,-29.0,-153.0,240.0,-49.0,0
50.0,-144.0,-24.0,-135.0,239.0,-81.0,0
52.0,-141.0,-13.0,-115.0,230.0,-119.0,0
57.0,-150.0,-13.0,-73.0,223.0,-162.0,0
52.0,-150.0,-14.0,-8.0,231.0,-209.0,0
39.0,-158.0,-6.0,85.0,249.0,-245.0,0
27.0,-172.0,-10.0,203.0,258.0,-266.0,0
23.0,-180.0,-12.0,338.0,255.0,-276.0,0
12.0,-192.0,-6.0,461.0,243.0,-283.0,0
0.0,-187.0,-32.0,556.0,220.0,-272.0,0
-3.0,-192.0,-43.0,573.0,178.0,-239.0,0
-5.0,-204.0,-52.0,540.0,144.0,-206.0,0
-9.0,-209.0,-68.0,490.0,137.0,-180.0,0
-15.0,-218.0,-86.0,417.0,144.0,-148.0,0
-24.0,-227.0,-94.0,320.0,143.0,-117.0,0
-30.0,-233.0,-99.0,217.0,127.0,-91.0,0
-42.0,-240.0,-109.0,104.0,95.0,-71.0,0
-41.0,-252.0,-112.0,5.0,62.0,-61.0,0
-54.0,-262.0,-111.0,-53.0,42.0,-61.0,0
-60.0,-277.0,-105.0,-46.0,29.0,-55.0,0
-51.0,-277.0,-110.0,12.0,20.0,-46.0,0
-49.0,-271.0,-108.0,83.0,8.0,-45.0,0
-39.0,-270.0,-104.0,159.0,9.0,-56.0,0
-36.0,-268.0,-98.0,230.0,20.0,-73.0,0
-31.0,-273.0,-94.0,306.0,39.0,-90.0,0
-22.0,-276.0,-84.0,389.0,66.0,-101.0,0
-16.0,-282.0,-79.0,461.0,85.0,-113.0,0
-12.0,-287.0,-83.0,513.0,90.0,-128.0,0
-5.0,-290.0,-86.0,538.0,74.0,-141.0,0
0.0,-292.0,-92.0,538.0,36.0,-154.0,0
10.0,-289.0,-99.0,510.0,-18.0,-170.0,0
14.0,-297.0,-105.0,450.0,-73.0,-193.0,0
22.0,-299.0,-110.0,369.0,-129.0,-220.0,0
26.0,-310.0,-110.0,287.0,-163.0,-245.0,0
30.0,-312.0,-110.0,227.0,-162.0,-259.0,0
33.0,-319.0,-104.0,209.0,-132.0,-256.0,0
34.0,-321.0,-102.0,222.0,-81.0,-245.0,0
36.0,-322.0,-96.0,264.0,-29.0,-223.0,0
31.0,-321.0,-95.0,321.0,7.0,-200.0,0
33.0,-321.0,-90.0,369.0,14.0,-178.0,0
31.0,-321.0,-93.0,397.0,-14.0,-166.0,0
23.0,-317.0,-103.0,398.0,-59.0,-163.0,0
14.0,-311.0,-104.0,370.0,-106.0,-165.0,0
10.0,-313.0,-103.0,326.0,-146.0,-165.0,0
-1.0,-312.0,-103.0,283.0,-170.0,-166.0,0
-7.0,-322.0,-99.0,251.0,-172.0,-150.0,0
-16.0,-330.0,-91.0,227.0,-167.0,-132.0,0
-16.0,-341.0,-83.0,219.0,-157.0,-111.0,0
-18.0,-355.0,-73.0,230.0,-155.0,-100.0,0
-17.0,-365.0,-73.0,262.0,-171.0,-96.0,0
-13.0,-368.0,-71.0,308.0,-204.0,-96.0,0
-12.0,-367.0,-77.0,354.0,-245.0,-106.0,0
1.0,-368.0,-85.0,385.0,-271.0,-124.0,0
9.0,-362.0,-89.0,405.0,-264.0,-148.0,0
20.0,-365.0,-90.0,420.0,-230.0,-171.0,0
28.0,-361.0,-83.0,433.0,-193.0,-200.0,0
25.0,-361.0,-75.0,457.0,-162.0,-228.0,0
30.0,-362.0,-73.0,486.0,-138.0,-252.0,0
22.0,-361.0,-73.0,517.0,-121.0,-268.0,0
19.0,-360.0,-74.0,550.0,-106.0,-281.0,0
18.0,-360.0,-77.0,585.0,-104.0,-289.0,0
11.0,-363.0,-69.0,618.0,-124.0,-292.0,0
18.0,-369.0,-66.0,663.0,-148.0,-282.0,0
13.0,-371.0,-67.0,731.0,-170.0,-270.0,0
13.0,-370.0,-60.0,813.0,-183.0,-257.0,0
17.0,-367.0,-61.0,911.0,-193.0,-244.0,0
21.0,-362.0,-59.0,1009.0,-195.0,-229.0,0
25.0,-356.0,-63.0,1087.0,-187.0,-213.0,0
26.0,-355.0,-67.0,1153.0,-173.0,-200.0,0
25.0,-352.0,-65.0,1211.0,-163.0,-188.0,0
25.0,-349.0,-62.0,1276.0,-157.0,-176.0,0
26.0,-344.0,-60.0,1349.0,-157.0,-169.0,0
21.0,-337.0,-65.0,1422.0,-153.0,-160.0,0
25.0,-325.0,-65.0,1486.0,-143.0,-154.0,0
25.0,-319.0,-66.0,1533.0,-132.0,-146.0,0
25.0,-307.0,-57.0,1559.0,-117.0,-141.0,0
25.0,-298.0,-48.0,1577.0,-100.0,-136.0,0
24.0,-289.0,-47.0,1595.0,-83.0,-135.0,0
25.0,-282.0,-36.0,1612.0,-68.0,-137.0,0
20.0,-272.0,-34.0,1625.0,-50.0,-144.0,0
18.0,-265.0,-36.0,1627.0,-31.0,-152.0,0
17.0,-259.0,-35.0,1623.0,-14.0,-160.0,0
17.0,-256.0,-45.0,1616.0,4.0,-168.0,0
10.0,-246.0,-32.0,1612.0,14.0,-175.0,0
21.0,-238.0,46.0,1631.0,22.0,-183.0,0
43.0,-327.0,101.0,1834.0,46.0,-187.0,0
75.0,-446.0,66.0,2151.0,53.0,-186.0,0
62.0,-540.0,106.0,2358.0,95.0,-170.0,0
40.0,-678.0,144.0,2623.0,152.0,-108.0,0
46.0,-846.0,120.0,3028.0,187.0,8.0,0
91.0,-967.0,23.0,3357.0,242.0,183.0,0
117.0,-875.0,-88.0,3210.0,235.0,349.0,0
80.0,-738.0,-186.0,2434.0,111.0,441.0,0
20.0,-671.0,-186.0,1576.0,-78.0,474.0,0
-30.0,-646.0,-123.0,1193.0,-162.0,446.0,0
-67.0,-615.0,-93.0,1158.0,-139.0,355.0,0
-90.0,-507.0,-102.0,1140.0,-97.0,225.0,0
-91.0,-353.0,-89.0,974.0,-97.0,97.0,0
-61.0,-203.0,-80.0,727.0,-129.0,15.0,0
-26.0,-93.0,-85.0,480.0,-118.0,-17.0,0
-7.0,-24.0,-78.0,210.0,-17.0,-72.0,0
-18.0,23.0,-55.0,-77.0,124.0,-185.0,0
-28.0,33.0,-44.0,-291.0,228.0,-292.0,0
-19.0,-9.0,-31.0,-347.0,257.0,-361.0,0
-17.0,-62.0,-18.0,-213.0,206.0,-401.0,0
-37.0,-121.0,-9.0,64.0,105.0,-408.0,0
-34.0,-161.0,-3.0,378.0,-12.0,-370.0,0
-21.0,-190.0,5.0,626.0,-119.0,-308.0,0
-12.0,-195.0,16.0,770.0,-190.0,-250.0,0
-3.0,-191.0,26.0,825.0,-202.0,-192.0,0
4.0,-176.0,46.0,820.0,-153.0,-131.0,0
7.0,-167.0,74.0,764.0,-59.0,-65.0,0
8.0,-167.0,98.0,667.0,44.0,1.0,0
0.0,-172.0,136.0,551.0,132.0,58.0,0
-4.0,-194.0,164.0,439.0,190.0,109.0,0
3.0,-216.0,182.0,356.0,221.0,143.0,0
8.0,-243.0,192.0,325.0,246.0,160.0,0
4.0,-269.0,194.0,350.0,275.0,163.0,0
1.0,-285.0,181.0,423.0,295.0,153.0,0
-3.0,-299.0,166.0,519.0,294.0,135.0,0
-2.0,-304.0,139.0,612.0,274.0,114.0,0
1.0,-310.0,108.0,673.0,242.0,94.0,0
-5.0,-310.0,87.0,687.0,212.0,75.0,0
-1.0,-303.0,73.0,674.0,185.0,53.0,0
5.0,-294.0,61.0,650.0,167.0,29.0,0
8.0,-282.0,60.0,623.0,158.0,7.0,0
11.0,-263.0,58.0,587.0,152.0,-14.0,0
17.0,-247.0,68.0,543.0,142.0,-28.0,0
23.0,-232.0,63.0,490.0,129.0,-44.0,0
28.0,-219.0,62.0,430.0,111.0,-59.0,0
31.0,-211.0,60.0,366.0,95.0,-75.0,0
31.0,-203.0,57.0,306.0,82.0,-91.0,0
33.0,-201.0,56.0,257.0,69.0,-103.0,0
30.0,-200.0,47.0,224.0,56.0,-110.0,0
31.0,-200.0,46.0,207.0,43.0,-111.0,0
27.0,-200.0,42.0,214.0,32.0,-107.0,0
24.0,-206.0,37.0,226.0,23.0,-103.0,0
19.0,-205.0,28.0,245.0,17.0,-98.0,0
23.0,-215.0,31.0,262.0,19.0,-91.0,0
20.0,-224.0,28.0,272.0,26.0,-83.0,0
21.0,-234.0,32.0,276.0,38.0,-70.0,0
22.0,-247.0,31.0,270.0,53.0,-57.0,0
24.0,-258.0,37.0,262.0,71.0,-41.0,0
23.0,-269.0,43.0,254.0,89.0,-21.0,0
22.0,-275.0,48.0,252.0,104.0,1.0,0
23.0,-283.0,52.0,251.0,115.0,21.0,0
23.0,-289.0,52.0,251.0,123.0,43.0,0
21.0,-287.0,52.0,247.0,129.0,57.0,0
23.0,-293.0,52.0,239.0,129.0,66.0,0
18.0,-275.0,54.0,224.0,124.0,68.0,0
16.0,-268.0,52.0,207.0,115.0,65.0,0
12.0,-261.0,48.0,184.0,103.0,58.0,0
12.0,-255.0,51.0,158.0,90.0,49.0,0
11.0,-252.0,45.0,132.0,78.0,36.0,0
9.0,-245.0,46.0,101.0,67.0,24.0,0
12.0,-240.0,49.0,74.0,59.0,12.0,0
5.0,-240.0,49.0,55.0,51.0,0.0,0
6.0,-236.0,50.0,41.0,45.0,-7.0,0
4.0,-235.0,53.0,37.0,43.0,-10.0,0
4.0,-238.0,53.0,41.0,45.0,-10.0,0
4.0,-238.0,57.0,51.0,45.0,-8.0,0
4.0,-238.0,59.0,63.0,49.0,-6.0,0
2.0,-239.0,57.0,73.0,53.0,-2.0,0
2.0,-242.0,58.0,81.0,56.0,6.0,0
0.0,-243.0,58.0,85.0,57.0,13.0,0
0.0,-241.0,64.0,88.0,55.0,21.0,0
2.0,-246.0,59.0,87.0,52.0,31.0,0
3.0,-242.0,62.0,85.0,49.0,38.0,0
4.0,-242.0,62.0,82.0,46.0,46.0,0
3.0,-239.0,63.0,77.0,42.0,53.0,0
7.0,-244.0,64.0,70.0,36.0,59.0,0
9.0,-242.0,64.0,64.0,34.0,69.0,0
8.0,-243.0,62.0,59.0,24.0,74.0,0
10.0,-241.0,63.0,55.0,14.0,80.0,0
10.0,-246.0,66.0,46.0,1.0,82.0,0
9.0,-242.0,64.0,40.0,-7.0,83.0,0
13.0,-242.0,62.0,33.0,-13.0,80.0,0
13.0,-247.0,63.0,28.0,-15.0,78.0,0
10.0,-247.0,63.0,23.0,-13.0,75.0,0
11.0,-251.0,52.0,19.0,-12.0,70.0,0
12.0,-249.0,62.0,20.0,-9.0,66.0,0
15.0,-254.0,54.0,21.0,-6.0,61.0,0
14.0,-254.0,58.0,25.0,-2.0,59.0,0
14.0,-255.0,59.0,33.0,2.0,54.0,0
14.0,-254.0,55.0,41.0,5.0,51.0,0
14.0,-257.0,54.0,49.0,7.0,47.0,0
13.0,-254.0,57.0,53.0,7.0,44.0,0
12.0,-254.0,56.0,60.0,4.0,40.0,0
13.0,-253.0,53.0,57.0,2.0,36.0,0
11.0,-251.0,57.0,57.0,2.0,34.0,0
14.0,-250.0,55.0,52.0,3.0,33.0,0
16.0,-250.0,56.0,50.0,5.0,30.0,0
11.0,-250.0,57.0,43.0,9.0,28.0,0
7.0,-248.0,52.0,37.0,15.0,29.0,0
8.0,-247.0,55.0,31.0,20.0,27.0,0
8.0,-247.0,54.0,28.0,25.0,27.0,0
5.0,-244.0,54.0,22.0,29.0,26.0,0
5.0,-243.0,56.0,16.0,31.0,24.0,0
7.0,-246.0,53.0,11.0,33.0,24.0,0
2.0,-242.0,58.0,4.0,36.0,23.0,0
4.0,-241.0,60.0,0.0,37.0,23.0,0
4.0,-239.0,62.0,-2.0,36.0,23.0,0
5.0,-246.0,57.0,-5.0,39.0,25.0,0
3.0,-240.0,60.0,-6.0,40.0,24.0,0
3.0,-242.0,57.0,-6.0,43.0,24.0,0
0.0,-241.0,61.0,-5.0,43.0,22.0,0
2.0,-242.0,65.0,-5.0,43.0,21.0,0
6.0,-244.0,68.0,-8.0,41.0,19.0,0
0.0,-245.0,65.0,-6.0,38.0,18.0,0
3.0,-245.0,63.0,-8.0,37.0,17.0,0
4.0,-247.0,65.0,-9.0,35.0,16.0,0
3.0,-247.0,62.0,-7.0,29.0,15.0,0
1.0,-243.0,60.0,-11.0,25.0,15.0,0
2.0,-239.0,64.0,-15.0,19.0,15.0,0
4.0,-247.0,64.0,-18.0,16.0,16.0,0
5.0,-249.0,62.0,-18.0,13.0,16.0,0
3.0,-247.0,59.0,-20.0,8.0,18.0,0
1.0,-244.0,60.0,-20.0,3.0,19.0,0
4.0,-246.0,60.0,-22.0,0.0,20.0,0
6.0,-249.0,60.0,-24.0,-2.0,19.0,0
6.0,-248.0,56.0,-24.0,-5.0,19.0,0
5.0,-244.0,54.0,-24.0,-7.0,20.0,0
8.0,-245.0,63.0,-23.0,-9.0,20.0,0
7.0,-248.0,57.0,-22.0,-10.0,18.0,0
6.0,-247.0,57.0,-21.0,-10.0,17.0,0
8.0,-245.0,58.0,-22.0,-10.0,15.0,0
10.0,-245.0,54.0,-23.0,-8.0,15.0,0
9.0,-248.0,57.0,-25.0,-6.0,14.0,0
10.0,-249.0,61.0,-26.0,-4.0,11.0,0
7.0,-244.0,62.0,-31.0,-2.0,9.0,0
10.0,-249.0,59.0,-34.0,1.0,6.0,0
9.0,-247.0,60.0,-36.0,2.0,3.0,0
5.0,-246.0,63.0,-40.0,3.0,1.0,0
6.0,-247.0,58.0,-43.0,0.0,-1.0,0
7.0,-247.0,60.0,-48.0,0.0,-3.0,0
1.0,-247.0,63.0,-49.0,-1.0,-3.0,0
4.0,-248.0,61.0,-52.0,-2.0,-4.0,0
7.0,-249.0,62.0,-54.0,0.0,-4.0,0
4.0,-248.0,61.0,-54.0,-2.0,-3.0,0
3.0,-248.0,61.0,-53.0,-4.0,-2.0,0
3.0,-247.0,60.0,-50.0,-6.0,-1.0,0
5.0,-244.0,61.0,-50.0,-6.0,0.0,0
1.0,-243.0,60.0,-52.0,-6.0,1.0,0
4.0,-243.0,62.0,-51.0,-6.0,3.0,0
7.0,-248.0,62.0,-52.0,-7.0,2.0,0
7.0,-249.0,61.0,-53.0,-6.0,3.0,0
3.0,-244.0,62.0,-56.0,-4.0,5.0,0
5.0,-246.0,60.0,-56.0,-5.0,5.0,0
10.0,-248.0,55.0,-57.0,-7.0,6.0,0
9.0,-246.0,59.0,-58.0,-7.0,7.0,0
7.0,-246.0,60.0,-59.0,-11.0,6.0,0
7.0,-247.0,59.0,-58.0,-16.0,6.0,0
7.0,-248.0,58.0,-57.0,-18.0,7.0,0
11.0,-249.0,60.0,-56.0,-19.0,8.0,0
6.0,-249.0,57.0,-56.0,-20.0,8.0,0
7.0,-248.0,60.0,-56.0,-23.0,7.0,0
7.0,-249.0,60.0,-55.0,-23.0,8.0,0
10.0,-251.0,61.0,-53.0,-25.0,9.0,0
6.0,-249.0,57.0,-54.0,-24.0,8.0,0
7.0,-249.0,59.0,-56.0,-22.0,7.0,0
9.0,-248.0,58.0,-55.0,-22.0,6.0,0
8.0,-248.0,59.0,-56.0,-20.0,6.0,0
8.0,-247.0,62.0,-55.0,-18.0,4.0,0
9.0,-248.0,60.0,-54.0,-18.0,4.0,0
6.0,-249.0,64.0,-55.0,-17.0,6.0,0
7.0,-245.0,57.0,-55.0,-15.0,5.0,0
8.0,-249.0,62.0,-57.0,-14.0,5.0,0
7.0,-248.0,54.0,-59.0,-12.0,6.0,0
12.0,-247.0,54.0,-58.0,-9.0,6.0,0
4.0,-247.0,57.0,-59.0,-8.0,5.0,0
6.0,-245.0,57.0,-59.0,-7.0,5.0,0
7.0,-247.0,58.0,-59.0,-5.0,6.0,0
7.0,-246.0,63.0,-60.0,-3.0,6.0,0
7.0,-250.0,58.0,-58.0,-1.0,4.0,0
9.0,-246.0,57.0,-56.0,0.0,4.0,0
9.0,-248.0,58.0,-56.0,-2.0,6.0,0
9.0,-251.0,57.0,-53.0,-2.0,5.0,0
8.0,-245.0,60.0,-50.0,-3.0,3.0,0
4.0,-248.0,57.0,-49.0,-3.0,4.0,0
8.0,-245.0,60.0,-49.0,-3.0,3.0,0
8.0,-247.0,58.0,-47.0,-2.0,4.0,0
12.0,-249.0,58.0,-50.0,-2.0,4.0,0
6.0,-249.0,58.0,-51.0,-1.0,5.0,0
10.0,-248.0,60.0,-50.0,1.0,7.0,0
6.0,-247.0,62.0,-50.0,0.0,5.0,0
3.0,-248.0,59.0,-48.0,1.0,5.0,0
9.0,-249.0,56.0,-50.0,3.0,3.0,0
3.0,-246.0,59.0,-49.0,5.0,2.0,0
2.0,-246.0,62.0,-48.0,5.0,2.0,0
12.0,-249.0,64.0,-47.0,5.0,1.0,0
5.0,-248.0,59.0,-49.0,6.0,0.0,0
9.0,-250.0,61.0,-47.0,7.0,0.0,0
7.0,-247.0,62.0,-47.0,6.0,1.0,0
5.0,-248.0,61.0,-49.0,7.0,2.0,0
5.0,-248.0,58.0,-49.0,7.0,1.0,0
6.0,-248.0,57.0,-49.0,7.0,1.0,0
4.0,-245.0,58.0,-49.0,8.0,2.0,0
9.0,-247.0,61.0,-51.0,9.0,1.0,0
4.0,-247.0,58.0,-52.0,9.0,-1.0,0
4.0,-248.0,58.0,-52.0,10.0,-1.0,0
10.0,-249.0,52.0,-53.0,12.0,-3.0,0
7.0,-249.0,59.0,-52.0,13.0,-3.0,0
4.0,-246.0,59.0,-51.0,13.0,-3.0,0
5.0,-248.0,57.0,-52.0,15.0,-5.0,0
6.0,-248.0,57.0,-51.0,16.0,-7.0,0
6.0,-250.0,60.0,-49.0,15.0,-7.0,0
10.0,-249.0,59.0,-48.0,17.0,-10.0,0
2.0,-246.0,59.0,-45.0,17.0,-10.0,0
5.0,-246.0,60.0,-46.0,17.0,-11.0,0
6.0,-251.0,56.0,-46.0,18.0,-12.0,0
6.0,-243.0,59.0,-46.0,20.0,-12.0,0
4.0,-251.0,64.0,-45.0,22.0,-14.0,0
9.0,-247.0,56.0,-44.0,22.0,-12.0,0
8.0,-249.0,60.0,-46.0,21.0,-11.0,0
4.0,-246.0,57.0,-45.0,23.0,-11.0,0
9.0,-251.0,55.0,-45.0,24.0,-10.0,0
6.0,-249.0,59.0,-45.0,24.0,-9.0,0
6.0,-249.0,59.0,-43.0,24.0,-8.0,0
7.0,-247.0,58.0,-46.0,23.0,-7.0,0
7.0,-248.0,59.0,-46.0,24.0,-7.0,0
7.0,-247.0,65.0,-46.0,22.0,-8.0,0
3.0,-245.0,60.0,-48.0,22.0,-7.0,0
8.0,-244.0,65.0,-49.0,22.0,-7.0,0
7.0,-247.0,59.0,-49.0,20.0,-8.0,0
8.0,-248.0,61.0,-48.0,18.0,-8.0,0
8.0,-245.0,58.0,-45.0,16.0,-9.0,0
8.0,-248.0,59.0,-45.0,15.0,-9.0,0
9.0,-247.0,60.0,-46.0,13.0,-11.0,0
11.0,-249.0,60.0,-46.0,13.0,-12.0,0
7.0,-249.0,60.0,-44.0,14.0,-11.0,0
7.0,-247.0,56.0,-44.0,14.0,-13.0,0
8.0,-247.0,61.0,-43.0,15.0,-13.0,0
9.0,-246.0,59.0,-41.0,16.0,-13.0,0
8.0,-249.0,60.0,-40.0,18.0,-13.0,0
7.0,-247.0,55.0,-40.0,19.0,-16.0,0
5.0,-246.0,57.0,-40.0,21.0,-18.0,0
7.0,-249.0,60.0,-42.0,23.0,-20.0,0
3.0,-246.0,59.0,-43.0,25.0,-23.0,0
2.0,-248.0,59.0,-41.0,29.0,-27.0,0
4.0,-245.0,60.0,-43.0,32.0,-29.0,0
6.0,-249.0,63.0,-45.0,34.0,-31.0,0
7.0,-243.0,60.0,-43.0,38.0,-32.0,0
7.0,-248.0,59.0,-45.0,42.0,-32.0,0
8.0,-246.0,63.0,-45.0,46.0,-34.0,0
9.0,-249.0,61.0,-46.0,50.0,-35.0,0
9.0,-248.0,57.0,-44.0,53.0,-34.0,0
7.0,-246.0,58.0,-45.0,57.0,-32.0,0
10.0,-249.0,60.0,-47.0,58.0,-30.0,0
10.0,-245.0,61.0,-50.0,58.0,-27.0,0
12.0,-246.0,60.0,-54.0,58.0,-23.0,0
8.0,-244.0,61.0,-56.0,56.0,-18.0,0
11.0,-244.0,63.0,-59.0,54.0,-14.0,0
12.0,-243.0,58.0,-61.0,51.0,-9.0,0
7.0,-245.0,59.0,-61.0,48.0,-5.0,0
10.0,-243.0,62.0,-60.0,47.0,-1.0,0
5.0,-248.0,59.0,-59.0,45.0,3.0,0
11.0,-248.0,59.0,-56.0,43.0,6.0,0
10.0,-250.0,60.0,-52.0,39.0,9.0,0
11.0,-250.0,58.0,-50.0,37.0,13.0,0
10.0,-248.0,61.0,-46.0,30.0,16.0,0
8.0,-248.0,60.0,-43.0,25.0,19.0,0
9.0,-249.0,58.0,-41.0,19.0,22.0,0
6.0,-249.0,60.0,-40.0,11.0,23.0,0
9.0,-248.0,59.0,-37.0,5.0,25.0,0
5.0,-245.0,59.0,-38.0,-2.0,26.0,0
13.0,-251.0,59.0,-38.0,-10.0,29.0,0
8.0,-248.0,54.0,-38.0,-17.0,28.0,0
7.0,-247.0,58.0,-40.0,-21.0,28.0,0
8.0,-249.0,58.0,-42.0,-24.0,27.0,0
7.0,-251.0,58.0,-42.0,-25.0,26.0,0
7.0,-250.0,58.0,-44.0,-25.0,25.0,0
2.0,-248.0,59.0,-45.0,-22.0,24.0,0
3.0,-248.0,59.0,-42.0,-20.0,22.0,0
5.0,-250.0,60.0,-44.0,-15.0,19.0,0
5.0,-249.0,60.0,-44.0,-10.0,16.0,0
5.0,-250.0,61.0,-46.0,-6.0,14.0,0
2.0,-247.0,57.0,-46.0,-1.0,10.0,0
4.0,-250.0,56.0,-47.0,3.0,8.0,0
3.0,-248.0,56.0,-50.0,7.0,5.0,0
1.0,-251.0,58.0,-50.0,12.0,4.0,0
0.0,-244.0,62.0,-52.0,15.0,1.0,0
2.0,-247.0,61.0,-51.0,17.0,-1.0,0
0.0,-246.0,60.0,-52.0,20.0,-2.0,0
5.0,-247.0,60.0,-55.0,19.0,-4.0,0
4.0,-246.0,59.0,-56.0,19.0,-6.0,0
3.0,-248.0,59.0,-55.0,19.0,-7.0,0
3.0,-250.0,59.0,-56.0,18.0,-9.0,0
8.0,-249.0,69.0,-56.0,18.0,-10.0,0
4.0,-249.0,61.0,-56.0,16.0,-11.0,0
6.0,-246.0,57.0,-54.0,15.0,-12.0,0
6.0,-246.0,58.0,-56.0,15.0,-13.0,0
7.0,-248.0,58.0,-54.0,15.0,-14.0,0
8.0,-249.0,55.0,-55.0,16.0,-14.0,0
9.0,-249.0,59.0,-57.0,16.0,-14.0,0
8.0,-250.0,61.0,-54.0,14.0,-16.0,0
6.0,-244.0,61.0,-55.0,13.0,-17.0,0
9.0,-250.0,59.0,-55.0,13.0,-17.0,0
7.0,-250.0,58.0,-55.0,13.0,-17.0,0
8.0,-247.0,52.0,-54.0,14.0,-18.0,0
5.0,-249.0,60.0,-55.0,16.0,-16.0,0
5.0,-248.0,56.0,-55.0,16.0,-16.0,0
3.0,-245.0,60.0,-53.0,15.0,-16.0,0
8.0,-247.0,60.0,-53.0,17.0,-15.0,0
8.0,-245.0,58.0,-56.0,18.0,-14.0,0
7.0,-249.0,62.0,-55.0,17.0,-13.0,0
7.0,-246.0,58.0,-57.0,17.0,-13.0,0
5.0,-248.0,58.0,-55.0,15.0,-10.0,0
6.0,-245.0,57.0,-55.0,13.0,-8.0,0
6.0,-249.0,63.0,-55.0,12.0,-7.0,0
6.0,-247.0,63.0,-55.0,10.0,-5.0,0
7.0,-246.0,60.0,-55.0,9.0,-2.0,0
8.0,-246.0,60.0,-57.0,6.0,-2.0,0
6.0,-245.0,63.0,-57.0,4.0,0.0,0
9.0,-247.0,61.0,-59.0,2.0,2.0,0
5.0,-246.0,61.0,-61.0,2.0,2.0,0
9.0,-244.0,60.0,-60.0,1.0,4.0,0
7.0,-247.0,54.0,-60.0,-1.0,6.0,0
9.0,-245.0,62.0,-60.0,-1.0,8.0,0
10.0,-248.0,61.0,-59.0,-1.0,8.0,0
5.0,-243.0,55.0,-62.0,0.0,10.0,0
7.0,-248.0,55.0,-63.0,1.0,12.0,0
8.0,-246.0,58.0,-63.0,3.0,13.0,0
11.0,-247.0,57.0,-64.0,4.0,14.0,0
9.0,-245.0,58.0,-65.0,5.0,14.0,0
10.0,-245.0,61.0,-65.0,7.0,14.0,0
9.0,-247.0,56.0,-66.0,9.0,14.0,0
10.0,-245.0,59.0,-66.0,11.0,14.0,0
12.0,-250.0,58.0,-69.0,13.0,15.0,0
10.0,-245.0,58.0,-72.0,16.0,13.0,0
7.0,-246.0,53.0,-72.0,16.0,13.0,0
8.0,-252.0,61.0,-73.0,15.0,12.0,0
6.0,-248.0,56.0,-72.0,15.0,12.0,0
7.0,-247.0,57.0,-73.0,15.0,12.0,0
6.0,-249.0,60.0,-73.0,16.0,13.0,0
9.0,-251.0,58.0,-72.0,17.0,13.0,0
7.0,-249.0,56.0,-74.0,15.0,14.0,0
9.0,-248.0,53.0,-74.0,14.0,15.0,0
8.0,-251.0,58.0,-72.0,13.0,15.0,0
7.0,-248.0,56.0,-70.0,14.0,17.0,0
9.0,-246.0,54.0,-69.0,14.0,17.0,0
9.0,-248.0,54.0,-67.0,14.0,18.0,0
10.0,-248.0,54.0,-65.0,14.0,18.0,0
5.0,-248.0,56.0,-64.0,15.0,17.0,0
8.0,-249.0,54.0,-64.0,16.0,15.0,0
7.0,-252.0,52.0,-64.0,19.0,13.0,0
7.0,-250.0,55.0,-65.0,20.0,14.0,0
5.0,-250.0,57.0,-66.0,22.0,13.0,0
6.0,-249.0,55.0,-66.0,24.0,11.0,0
7.0,-250.0,58.0,-67.0,25.0,8.0,0
5.0,-251.0,52.0,-66.0,25.0,7.0,0
5.0,-250.0,59.0,-69.0,24.0,6.0,0
7.0,-250.0,57.0,-67.0,25.0,3.0,0
4.0,-251.0,56.0,-66.0,26.0,2.0,0
2.0,-247.0,53.0,-65.0,25.0,2.0,0
7.0,-251.0,53.0,-62.0,24.0,1.0,0
6.0,-251.0,54.0,-63.0,24.0,0.0,0
3.0,-249.0,54.0,-61.0,24.0,-2.0,0
0.0,-250.0,58.0,-59.0,23.0,-4.0,0
0.0,-247.0,57.0,-57.0,23.0,-5.0,0
2.0,-248.0,57.0,-56.0,22.0,-4.0,0
3.0,-250.0,60.0,-52.0,22.0,-4.0,0
2.0,-250.0,55.0,-50.0,22.0,-5.0,0
4.0,-247.0,58.0,-50.0,22.0,-5.0,0
2.0,-248.0,55.0,-49.0,22.0,-6.0,0
5.0,-250.0,55.0,-47.0,23.0,-8.0,0
1.0,-246.0,61.0,-45.0,22.0,-6.0,0
4.0,-250.0,58.0,-43.0,21.0,-8.0,0
5.0,-248.0,59.0,-41.0,19.0,-6.0,0
4.0,-248.0,57.0,-40.0,17.0,-6.0,0
6.0,-250.0,55.0,-41.0,17.0,-7.0,0
4.0,-249.0,55.0,-38.0,16.0,-7.0,0
6.0,-250.0,56.0,-38.0,14.0,-5.0,0
7.0,-248.0,55.0,-38.0,14.0,-4.0,0
6.0,-248.0,54.0,-36.0,13.0,-4.0,0
10.0,-252.0,59.0,-37.0,10.0,-4.0,0
12.0,-247.0,60.0,-35.0,11.0,-3.0,0
10.0,-248.0,57.0,-36.0,10.0,-3.0,0
10.0,-251.0,59.0,-37.0,10.0,-3.0,0
9.0,-248.0,58.0,-37.0,10.0,-2.0,0
8.0,-249.0,57.0,-39.0,10.0,-1.0,0
6.0,-250.0,51.0,-40.0,11.0,0.0,0
9.0,-247.0,58.0,-42.0,13.0,2.0,0
8.0,-250.0,58.0,-43.0,15.0,3.0,0
7.0,-249.0,57.0,-43.0,15.0,3.0,0
8.0,-247.0,59.0,-45.0,16.0,4.0,0
14.0,-251.0,56.0,-44.0,16.0,3.0,0
8.0,-248.0,58.0,-44.0,17.0,4.0,0
8.0,-249.0,54.0,-43.0,16.0,4.0,0
9.0,-247.0,53.0,-47.0,17.0,5.0,0
8.0,-248.0,52.0,-49.0,19.0,4.0,0
5.0,-248.0,58.0,-51.0,16.0,3.0,0
10.0,-247.0,56.0,-49.0,16.0,3.0,0
8.0,-251.0,57.0,-47.0,17.0,5.0,0
12.0,-247.0,55.0,-47.0,17.0,4.0,0
6.0,-250.0,60.0,-45.0,18.0,5.0,0
4.0,-248.0,55.0,-43.0,18.0,5.0,0
1.0,-244.0,57.0,-41.0,16.0,4.0,0
5.0,-247.0,57.0,-40.0,16.0,4.0,0
8.0,-249.0,56.0,-41.0,15.0,5.0,0
6.0,-249.0,56.0,-41.0,15.0,6.0,0
5.0,-246.0,57.0,-42.0,16.0,6.0,0
5.0,-246.0,56.0,-41.0,17.0,6.0,0
5.0,-245.0,56.0,-42.0,17.0,6.0,0
4.0,-250.0,53.0,-42.0,19.0,4.0,0
0.0,-251.0,56.0,-42.0,19.0,6.0,0
1.0,-249.0,56.0,-40.0,21.0,6.0,0
4.0,-253.0,54.0,-38.0,25.0,7.0,0
7.0,-251.0,54.0,-38.0,24.0,6.0,0
6.0,-249.0,56.0,-37.0,26.0,4.0,0
6.0,-248.0,56.0,-34.0,23.0,4.0,0
3.0,-246.0,57.0,-33.0,24.0,3.0,0
4.0,-247.0,57.0,-33.0,24.0,2.0,0
2.0,-249.0,60.0,-32.0,24.0,2.0,0
5.0,-250.0,55.0,-32.0,25.0,2.0,0
6.0,-250.0,59.0,-33.0,24.0,2.0,0
4.0,-251.0,55.0,-33.0,24.0,1.0,0
2.0,-247.0,57.0,-31.0,23.0,1.0,0
6.0,-251.0,54.0,-31.0,22.0,1.0,0
2.0,-249.0,55.0,-31.0,21.0,2.0,0
4.0,-251.0,57.0,-30.0,21.0,1.0,0
6.0,-253.0,54.0,-29.0,20.0,2.0,0
4.0,-249.0,54.0,-28.0,20.0,3.0,0
7.0,-247.0,60.0,-26.0,21.0,4.0,0
4.0,-250.0,60.0,-23.0,20.0,4.0,0
4.0,-249.0,55.0,-23.0,20.0,3.0,0
3.0,-247.0,55.0,-24.0,19.0,2.0,0
6.0,-246.0,58.0,-23.0,16.0,1.0,0
3.0,-245.0,58.0,-22.0,14.0,0.0,0
4.0,-247.0,59.0,-22.0,13.0,-1.0,0
-1.0,-246.0,65.0,-22.0,13.0,-2.0,0
5.0,-244.0,57.0,-22.0,12.0,-2.0,0
2.0,-248.0,55.0,-22.0,13.0,-3.0,0
5.0,-247.0,58.0,-23.0,14.0,-3.0,0
6.0,-248.0,61.0,-23.0,13.0,-3.0,0
0.0,-246.0,58.0,-24.0,14.0,-2.0,0
3.0,-249.0,56.0,-22.0,12.0,-3.0,0
5.0,-250.0,59.0,-22.0,10.0,-4.0,0
2.0,-249.0,59.0,-22.0,11.0,-4.0,0
3.0,-248.0,57.0,-21.0,11.0,-4.0,0
5.0,-249.0,58.0,-21.0,10.0,-5.0,0
2.0,-247.0,60.0,-21.0,11.0,-5.0,0
4.0,-249.0,59.0,-20.0,12.0,-7.0,0
5.0,-250.0,62.0,-19.0,11.0,-7.0,0
5.0,-248.0,58.0,-19.0,11.0,-8.0,0
4.0,-248.0,61.0,-20.0,12.0,-8.0,0
6.0,-249.0,62.0,-20.0,14.0,-7.0,0
4.0,-246.0,58.0,-20.0,13.0,-8.0,0
4.0,-245.0,57.0,-21.0,14.0,-8.0,0
2.0,-245.0,61.0,-25.0,13.0,-9.0,0
3.0,-245.0,60.0,-26.0,12.0,-9.0,0
2.0,-245.0,61.0,-29.0,14.0,-10.0,0
4.0,-248.0,57.0,-32.0,14.0,-10.0,0
5.0,-247.0,61.0,-34.0,15.0,-11.0,0
4.0,-247.0,56.0,-37.0,14.0,-10.0,0
5.0,-249.0,58.0,-39.0,15.0,-11.0,0
4.0,-248.0,55.0,-39.0,15.0,-11.0,0
3.0,-244.0,57.0,-38.0,12.0,-10.0,0
5.0,-249.0,58.0,-36.0,11.0,-10.0,0
5.0,-252.0,54.0,-38.0,11.0,-11.0,0
2.0,-250.0,61.0,-38.0,10.0,-9.0,0
7.0,-249.0,57.0,-38.0,11.0,-9.0,0
7.0,-247.0,63.0,-38.0,11.0,-8.0,0
7.0,-247.0,62.0,-37.0,12.0,-8.0,0
4.0,-246.0,60.0,-35.0,13.0,-9.0,0
8.0,-248.0,58.0,-35.0,15.0,-8.0,0
5.0,-250.0,57.0,-34.0,16.0,-8.0,0
6.0,-247.0,56.0,-34.0,18.0,-5.0,0
5.0,-247.0,61.0,-35.0,19.0,-6.0,0
5.0,-249.0,57.0,-33.0,20.0,-6.0,0
9.0,-250.0,64.0,-35.0,19.0,-5.0,0
6.0,-248.0,59.0,-34.0,20.0,-4.0,0
6.0,-247.0,62.0,-35.0,20.0,-3.0,0
7.0,-245.0,59.0,-34.0,19.0,-4.0,0
-1.0,-247.0,54.0,-36.0,16.0,-2.0,0
5.0,-245.0,59.0,-37.0,16.0,-2.0,0
6.0,-247.0,57.0,-37.0,14.0,-2.0,0
7.0,-246.0,56.0,-38.0,13.0,-3.0,0
6.0,-246.0,59.0,-40.0,13.0,-2.0,0
7.0,-248.0,61.0,-40.0,12.0,-1.0,0
7.0,-247.0,58.0,-41.0,10.0,0.0,0
9.0,-248.0,55.0,-42.0,11.0,1.0,0
8.0,-245.0,59.0,-41.0,12.0,0.0,0
8.0,-249.0,53.0,-42.0,14.0,0.0,0
6.0,-250.0,61.0,-44.0,15.0,1.0,0
7.0,-243.0,57.0,-44.0,16.0,0.0,0
6.0,-248.0,56.0,-44.0,16.0,-1.0,0
7.0,-248.0,63.0,-43.0,16.0,-2.0,0
6.0,-247.0,58.0,-42.0,16.0,-1.0,0
5.0,-249.0,61.0,-42.0,16.0,0.0,0
7.0,-249.0,54.0,-45.0,18.0,-2.0,0
7.0,-246.0,57.0,-44.0,18.0,-2.0,0
6.0,-247.0,59.0,-44.0,20.0,-1.0,0
2.0,-247.0,57.0,-43.0,18.0,-1.0,0
7.0,-250.0,55.0,-43.0,18.0,-2.0,0
3.0,-248.0,53.0,-44.0,18.0,-1.0,0
4.0,-247.0,53.0,-44.0,18.0,-2.0,0
3.0,-246.0,60.0,-45.0,19.0,-1.0,0
6.0,-247.0,61.0,-45.0,19.0,-2.0,0
5.0,-248.0,59.0,-47.0,20.0,-1.0,0
3.0,-245.0,59.0,-47.0,21.0,-1.0,0
6.0,-247.0,59.0,-50.0,21.0,1.0,0
6.0,-248.0,55.0,-50.0,21.0,0.0,0
0.0,-247.0,59.0,-49.0,21.0,1.0,0
-1.0,-246.0,61.0,-51.0,20.0,1.0,0
5.0,-244.0,64.0,-48.0,19.0,-1.0,0
3.0,-250.0,58.0,-47.0,18.0,-1.0,0
4.0,-249.0,60.0,-46.0,19.0,-2.0,0
1.0,-247.0,59.0,-45.0,19.0,-3.0,0
4.0,-248.0,58.0,-42.0,18.0,-2.0,0
6.0,-247.0,64.0,-42.0,18.0,0.0,0
4.0,-247.0,60.0,-42.0,18.0,-3.0,0
3.0,-246.0,62.0,-43.0,18.0,-1.0,0
6.0,-246.0,56.0,-44.0,16.0,-1.0,0
3.0,-248.0,61.0,-45.0,18.0,-3.0,0
3.0,-245.0,59.0,-45.0,16.0,-2.0,0
6.0,-246.0,63.0,-47.0,18.0,-3.0,0
4.0,-249.0,50.0,-45.0,18.0,-2.0,0
6.0,-247.0,58.0,-47.0,19.0,-3.0,0
3.0,-244.0,57.0,-48.0,20.0,-2.0,0
5.0,-250.0,58.0,-47.0,20.0,-2.0,0
3.0,-245.0,59.0,-49.0,21.0,-4.0,0
4.0,-246.0,57.0,-50.0,21.0,-4.0,0
5.0,-249.0,59.0,-51.0,23.0,-5.0,0
1.0,-249.0,61.0,-52.0,22.0,-5.0,0
4.0,-246.0,57.0,-52.0,22.0,-7.0,0
3.0,-248.0,58.0,-50.0,20.0,-8.0,0
6.0,-246.0,63.0,-50.0,21.0,-8.0,0
6.0,-242.0,61.0,-51.0,20.0,-7.0,0
4.0,-249.0,55.0,-49.0,18.0,-9.0,0
5.0,-248.0,57.0,-47.0,15.0,-9.0,0
1.0,-248.0,57.0,-45.0,15.0,-8.0,0
4.0,-250.0,58.0,-45.0,14.0,-9.0,0
4.0,-248.0,56.0,-45.0,14.0,-9.0,0
2.0,-249.0,59.0,-43.0,12.0,-8.0,0
2.0,-245.0,53.0,-42.0,12.0,-8.0,0
3.0,-246.0,59.0,-42.0,14.0,-10.0,0
2.0,-247.0,59.0,-42.0,14.0,-8.0,0
4.0,-246.0,52.0,-43.0,16.0,-8.0,0
4.0,-247.0,61.0,-42.0,17.0,-9.0,0
4.0,-245.0,55.0,-42.0,17.0,-9.0,0
2.0,-245.0,59.0,-41.0,17.0,-10.0,0
4.0,-245.0,57.0,-42.0,17.0,-11.0,0
5.0,-247.0,62.0,-44.0,18.0,-11.0,0
4.0,-248.0,56.0,-45.0,18.0,-12.0,0
9.0,-249.0,60.0,-44.0,19.0,-11.0,0
3.0,-248.0,56.0,-46.0,17.0,-12.0,0
4.0,-248.0,57.0,-46.0,18.0,-12.0,0
0.0,-247.0,59.0,-47.0,17.0,-10.0,0
2.0,-249.0,62.0,-50.0,19.0,-11.0,0
7.0,-246.0,59.0,-50.0,17.0,-11.0,0
5.0,-248.0,57.0,-49.0,16.0,-10.0,0
7.0,-248.0,56.0,-50.0,16.0,-9.0,0
4.0,-251.0,59.0,-52.0,16.0,-10.0,0
4.0,-249.0,59.0,-50.0,16.0,-10.0,0
5.0,-250.0,60.0,-50.0,14.0,-9.0,0
6.0,-246.0,58.0,-49.0,13.0,-8.0,0
7.0,-250.0,60.0,-50.0,14.0,-8.0,0
5.0,-245.0,61.0,-49.0,14.0,-8.0,0
4.0,-247.0,59.0,-49.0,13.0,-6.0,0
4.0,-247.0,57.0,-47.0,13.0,-6.0,0
7.0,-247.0,68.0,-47.0,12.0,-6.0,0
4.0,-247.0,56.0,-48.0,12.0,-6.0,0
6.0,-249.0,61.0,-46.0,12.0,-6.0,0
3.0,-247.0,58.0,-46.0,12.0,-6.0,0
3.0,-247.0,59.0,-46.0,12.0,-5.0,0
5.0,-246.0,57.0,-45.0,12.0,-4.0,0
5.0,-247.0,58.0,-46.0,13.0,-5.0,0
2.0,-246.0,64.0,-44.0,11.0,-5.0,0
2.0,-245.0,56.0,-44.0,10.0,-5.0,0
5.0,-248.0,59.0,-44.0,11.0,-4.0,0
5.0,-248.0,61.0,-46.0,11.0,-4.0,0
2.0,-246.0,58.0,-45.0,12.0,-4.0,0
2.0,-246.0,55.0,-47.0,14.0,-5.0,0
4.0,-248.0,56.0,-49.0,12.0,-5.0,0
7.0,-249.0,58.0,-48.0,12.0,-6.0,0
4.0,-245.0,61.0,-47.0,12.0,-6.0,0
6.0,-249.0,56.0,-46.0,13.0,-4.0,0
8.0,-249.0,54.0,-47.0,15.0,-4.0,0
7.0,-250.0,61.0,-45.0,15.0,-5.0,0
6.0,-251.0,56.0,-45.0,15.0,-4.0,0
5.0,-248.0,58.0,-45.0,14.0,-4.0,0
4.0,-249.0,52.0,-43.0,14.0,-5.0,0
8.0,-251.0,56.0,-42.0,14.0,-3.0,0
6.0,-249.0,59.0,-40.0,13.0,-3.0,0
7.0,-251.0,59.0,-41.0,13.0,-4.0,0
6.0,-248.0,60.0,-38.0,12.0,-3.0,0
2.0,-249.0,60.0,-37.0,12.0,-3.0,0
10.0,-247.0,57.0,-38.0,11.0,-5.0,0
8.0,-248.0,62.0,-37.0,11.0,-5.0,0
6.0,-246.0,57.0,-37.0,11.0,-4.0,0
5.0,-246.0,57.0,-35.0,11.0,-4.0,0
6.0,-248.0,60.0,-37.0,12.0,-6.0,0
2.0,-247.0,53.0,-38.0,12.0,-5.0,0
6.0,-245.0,55.0,-37.0,12.0,-5.0,0
6.0,-248.0,57.0,-36.0,11.0,-5.0,0
2.0,-246.0,54.0,-38.0,12.0,-6.0,0
8.0,-250.0,56.0,-39.0,12.0,-6.0,0
3.0,-246.0,62.0,-40.0,12.0,-6.0,0
5.0,-246.0,64.0,-42.0,12.0,-6.0,0
3.0,-247.0,59.0,-43.0,14.0,-6.0,0
0.0,-250.0,59.0,-44.0,14.0,-6.0,0
4.0,-248.0,63.0,-41.0,14.0,-7.0,0
5.0,-248.0,58.0,-40.0,12.0,-7.0,0
2.0,-239.0,53.0,-37.0,12.0,-8.0,0
5.0,-250.0,57.0,-35.0,12.0,-8.0,0
9.0,-251.0,56.0,-36.0,14.0,-8.0,0
4.0,-249.0,59.0,-35.0,15.0,-6.0,0
4.0,-246.0,58.0,-34.0,16.0,-7.0,0
7.0,-246.0,59.0,-34.0,18.0,-7.0,0
6.0,-246.0,56.0,-32.0,19.0,-7.0,0
11.0,-249.0,59.0,-32.0,20.0,-7.0,0
8.0,-248.0,56.0,-33.0,22.0,-6.0,0
7.0,-248.0,64.0,-33.0,23.0,-7.0,0
10.0,-245.0,63.0,-35.0,23.0,-8.0,0
8.0,-245.0,57.0,-34.0,23.0,-7.0,0
5.0,-249.0,61.0,-35.0,23.0,-7.0,0
4.0,-245.0,60.0,-36.0,22.0,-7.0,0
8.0,-246.0,59.0,-37.0,22.0,-7.0,0
6.0,-246.0,59.0,-36.0,20.0,-7.0,0
6.0,-247.0,57.0,-40.0,21.0,-7.0,0
8.0,-246.0,60.0,-39.0,20.0,-5.0,0
6.0,-248.0,58.0,-39.0,20.0,-4.0,0
7.0,-249.0,58.0,-41.0,19.0,-3.0,0
5.0,-247.0,60.0,-42.0,17.0,-4.0,0
7.0,-248.0,60.0,-40.0,15.0,-2.0,0
11.0,-246.0,66.0,-39.0,14.0,-1.0,0
9.0,-249.0,58.0,-41.0,15.0,0.0,0
8.0,-248.0,58.0,-41.0,16.0,0.0,0
5.0,-249.0,59.0,-43.0,16.0,0.0,0
5.0,-250.0,57.0,-43.0,17.0,-1.0,0
4.0,-247.0,55.0,-44.0,18.0,-2.0,0
4.0,-246.0,56.0,-45.0,18.0,-2.0,0
4.0,-248.0,62.0,-46.0,19.0,-2.0,0
4.0,-246.0,58.0,-46.0,18.0,-3.0,0
8.0,-246.0,59.0,-47.0,19.0,-2.0,0
4.0,-251.0,56.0,-46.0,21.0,-2.0,0
3.0,-246.0,57.0,-45.0,20.0,-2.0,0
3.0,-247.0,62.0,-46.0,20.0,-3.0,0
7.0,-249.0,54.0,-43.0,21.0,-3.0,0
3.0,-247.0,60.0,-42.0,19.0,-3.0,0
5.0,-249.0,56.0,-43.0,19.0,-3.0,0
6.0,-251.0,56.0,-41.0,20.0,-3.0,0
4.0,-248.0,55.0,-40.0,19.0,-4.0,0
8.0,-248.0,60.0,-40.0,20.0,-5.0,0
7.0,-251.0,54.0,-43.0,20.0,-5.0,0
6.0,-249.0,62.0,-41.0,21.0,-3.0,0
4.0,-248.0,59.0,-41.0,21.0,-4.0,0
6.0,-254.0,56.0,-40.0,21.0,-4.0,0
6.0,-248.0,61.0,-41.0,21.0,-3.0,0
6.0,-250.0,59.0,-40.0,22.0,-5.0,0
6.0,-247.0,60.0,-37.0,22.0,-5.0,0
5.0,-246.0,58.0,-38.0,21.0,-5.0,0
4.0,-246.0,61.0,-39.0,20.0,-4.0,0
2.0,-245.0,55.0,-39.0,20.0,-4.0,0
4.0,-249.0,64.0,-41.0,19.0,-6.0,0
4.0,-245.0,56.0,-41.0,19.0,-4.0,0
6.0,-246.0,62.0,-43.0,18.0,-3.0,0
2.0,-245.0,60.0,-42.0,17.0,-6.0,0
5.0,-240.0,60.0,-42.0,17.0,-5.0,0
9.0,-248.0,59.0,-42.0,16.0,-5.0,0
5.0,-246.0,56.0,-42.0,17.0,-4.0,0
6.0,-250.0,61.0,-45.0,16.0,-4.0,0
6.0,-247.0,56.0,-46.0,17.0,-4.0,0
5.0,-246.0,57.0,-47.0,17.0,-4.0,0
4.0,-249.0,55.0,-45.0,18.0,-3.0,0
4.0,-245.0,61.0,-46.0,20.0,-5.0,0
4.0,-244.0,61.0,-47.0,20.0,-6.0,0
2.0,-247.0,62.0,-48.0,21.0,-5.0,0
4.0,-245.0,63.0,-48.0,23.0,-5.0,0
2.0,-248.0,58.0,-49.0,23.0,-4.0,0
3.0,-246.0,62.0,-48.0,23.0,-5.0,0
2.0,-246.0,58.0,-49.0,26.0,-5.0,0
6.0,-246.0,60.0,-49.0,24.0,-5.0,0
4.0,-248.0,58.0,-47.0,25.0,-7.0,0
7.0,-250.0,59.0,-49.0,25.0,-6.0,0
3.0,-246.0,64.0,-47.0,24.0,-6.0,0
3.0,-249.0,55.0,-47.0,22.0,-5.0,0
0.0,-245.0,56.0,-46.0,22.0,-5.0,0
8.0,-247.0,59.0,-46.0,21.0,-5.0,0
3.0,-245.0,58.0,-45.0,19.0,-6.0,0
7.0,-247.0,54.0,-45.0,18.0,-5.0,0
7.0,-246.0,55.0,-47.0,19.0,-6.0,0
6.0,-249.0,56.0,-47.0,20.0,-5.0,0
9.0,-248.0,56.0,-47.0,22.0,-7.0,0
7.0,-248.0,61.0,-47.0,23.0,-9.0,0
5.0,-245.0,59.0,-48.0,26.0,-8.0,0
1.0,-247.0,52.0,-48.0,27.0,-9.0,0
4.0,-249.0,58.0,-51.0,27.0,-8.0,0
6.0,-249.0,61.0,-53.0,28.0,-6.0,0
8.0,-252.0,52.0,-56.0,29.0,-7.0,0
4.0,-250.0,60.0,-59.0,29.0,-5.0,0
7.0,-249.0,56.0,-62.0,30.0,-1.0,0
9.0,-251.0,53.0,-66.0,31.0,1.0,0
6.0,-253.0,57.0,-69.0,34.0,3.0,0
9.0,-252.0,54.0,-72.0,37.0,5.0,0
6.0,-250.0,55.0,-73.0,40.0,6.0,0
7.0,-248.0,55.0,-75.0,43.0,5.0,0
10.0,-249.0,56.0,-75.0,49.0,1.0,0
9.0,-249.0,52.0,-75.0,58.0,0.0,0
8.0,-244.0,53.0,-76.0,68.0,-4.0,0
13.0,-249.0,49.0,-80.0,80.0,-6.0,0
8.0,-249.0,50.0,-84.0,90.0,-10.0,0
9.0,-249.0,48.0,-87.0,96.0,-12.0,0
13.0,-251.0,51.0,-92.0,103.0,-16.0,0
11.0,-252.0,51.0,-98.0,110.0,-18.0,0
14.0,-252.0,50.0,-97.0,114.0,-22.0,0
12.0,-254.0,52.0,-95.0,114.0,-24.0,0
10.0,-252.0,48.0,-89.0,108.0,-26.0,0
8.0,-253.0,51.0,-87.0,96.0,-29.0,0
6.0,-254.0,52.0,-87.0,81.0,-34.0,0
10.0,-250.0,49.0,-90.0,67.0,-41.0,0
4.0,-250.0,47.0,-103.0,58.0,-46.0,0
5.0,-249.0,49.0,-121.0,52.0,-55.0,0
-1.0,-243.0,45.0,-143.0,52.0,-62.0,0
0.0,-246.0,50.0,-164.0,56.0,-66.0,0
0.0,-243.0,49.0,-183.0,62.0,-69.0,0
0.0,-246.0,52.0,-200.0,70.0,-72.0,0
-3.0,-245.0,52.0,-210.0,77.0,-73.0,0
-5.0,-246.0,51.0,-218.0,81.0,-72.0,0
-9.0,-240.0,52.0,-223.0,83.0,-73.0,0
-9.0,-241.0,61.0,-222.0,84.0,-71.0,0
-7.0,-244.0,60.0,-220.0,85.0,-68.0,0
-9.0,-244.0,60.0,-214.0,85.0,-64.0,0
-11.0,-245.0,64.0,-205.0,86.0,-59.0,0
-9.0,-241.0,62.0,-195.0,85.0,-53.0,0
-8.0,-242.0,68.0,-181.0,83.0,-46.0,0
-6.0,-240.0,71.0,-170.0,78.0,-41.0,0
-8.0,-237.0,72.0,-159.0,72.0,-36.0,0
-4.0,-237.0,73.0,-155.0,66.0,-31.0,0
-1.0,-235.0,74.0,-153.0,57.0,-29.0,0
0.0,-233.0,72.0,-158.0,44.0,-27.0,0
3.0,-228.0,79.0,-166.0,33.0,-26.0,0
6.0,-229.0,77.0,-178.0,25.0,-27.0,0
3.0,-224.0,78.0,-194.0,16.0,-25.0,0
6.0,-229.0,80.0,-211.0,8.0,-26.0,0
7.0,-223.0,77.0,-230.0,0.0,-24.0,0
6.0,-223.0,84.0,-252.0,-8.0,-25.0,0
4.0,-223.0,81.0,-278.0,-12.0,-24.0,0
8.0,-225.0,79.0,-304.0,-20.0,-25.0,0
4.0,-227.0,79.0,-334.0,-28.0,-25.0,0
3.0,-222.0,78.0,-367.0,-36.0,-24.0,0
-1.0,-225.0,73.0,-404.0,-45.0,-22.0,0
1.0,-227.0,74.0,-446.0,-53.0,-20.0,0
4.0,-221.0,78.0,-492.0,-59.0,-15.0,0
3.0,-219.0,78.0,-540.0,-63.0,-9.0,0
-3.0,-219.0,71.0,-587.0,-66.0,-4.0,0
1.0,-221.0,79.0,-637.0,-71.0,4.0,0
3.0,-222.0,78.0,-689.0,-76.0,11.0,0
-1.0,-224.0,78.0,-742.0,-81.0,15.0,0
1.0,-225.0,79.0,-796.0,-87.0,21.0,0
0.0,-228.0,79.0,-850.0,-94.0,23.0,0
1.0,-227.0,76.0,-903.0,-97.0,25.0,0
-3.0,-234.0,77.0,-953.0,-102.0,22.0,0
-1.0,-241.0,80.0,-995.0,-107.0,19.0,0
-3.0,-242.0,85.0,-1025.0,-115.0,12.0,0
-6.0,-248.0,84.0,-1042.0,-124.0,4.0,0
5.0,-250.0,86.0,-1046.0,-135.0,-8.0,0
-4.0,-256.0,85.0,-1036.0,-142.0,-25.0,0
0.0,-256.0,83.0,-1016.0,-145.0,-41.0,0
1.0,-259.0,79.0,-990.0,-141.0,-54.0,0
7.0,-259.0,82.0,-978.0,-136.0,-66.0,0
12.0,-262.0,74.0,-985.0,-133.0,-77.0,0
13.0,-260.0,63.0,-1016.0,-126.0,-84.0,0
20.0,-265.0,52.0,-1074.0,-125.0,-90.0,0
29.0,-269.0,47.0,-1154.0,-115.0,-104.0,0
33.0,-267.0,40.0,-1236.0,-84.0,-118.0,0
42.0,-268.0,23.0,-1321.0,-44.0,-128.0,0
51.0,-266.0,11.0,-1418.0,3.0,-127.0,0
50.0,-267.0,-19.0,-1515.0,51.0,-122.0,0
48.0,-266.0,-39.0,-1617.0,90.0,-113.0,0
42.0,-266.0,-53.0,-1736.0,133.0,-96.0,0
28.0,-275.0,-47.0,-1854.0,180.0,-78.0,0
5.0,-286.0,-33.0,-1935.0,219.0,-60.0,0
-6.0,-304.0,-12.0,-1964.0,245.0,-42.0,0
-13.0,-318.0,3.0,-1929.0,263.0,-31.0,0
-15.0,-329.0,20.0,-1851.0,276.0,-27.0,0
-16.0,-335.0,29.0,-1747.0,271.0,-36.0,0
-10.0,-337.0,33.0,-1643.0,244.0,-47.0,0
-13.0,-344.0,35.0,-1551.0,205.0,-55.0,0
-7.0,-346.0,25.0,-1476.0,168.0,-60.0,0
1.0,-348.0,22.0,-1427.0,148.0,-54.0,0
17.0,-351.0,27.0,-1393.0,143.0,-40.0,0
24.0,-355.0,37.0,-1354.0,146.0,-30.0,0
29.0,-357.0,37.0,-1299.0,150.0,-23.0,0
30.0,-355.0,30.0,-1242.0,143.0,-20.0,0
26.0,-353.0,21.0,-1194.0,126.0,-20.0,0
18.0,-348.0,5.0,-1172.0,114.0,-17.0,0
36.0,-348.0,-1.0,-1184.0,113.0,-21.0,0
32.0,-350.0,-16.0,-1210.0,129.0,-22.0,0
36.0,-354.0,-11.0,-1246.0,147.0,-27.0,0
37.0,-358.0,-5.0,-1274.0,167.0,-37.0,0
35.0,-362.0,-2.0,-1280.0,189.0,-47.0,0
33.0,-366.0,-4.0,-1266.0,205.0,-56.0,0
28.0,-366.0,-15.0,-1242.0,220.0,-63.0,0
23.0,-368.0,-18.0,-1215.0,234.0,-62.0,0
23.0,-367.0,-30.0,-1184.0,237.0,-60.0,0
18.0,-361.0,-40.0,-1160.0,231.0,-57.0,0
21.0,-354.0,-50.0,-1145.0,214.0,-55.0,0
18.0,-351.0,-59.0,-1141.0,188.0,-54.0,0
23.0,-350.0,-65.0,-1155.0,164.0,-55.0,0
24.0,-345.0,-72.0,-1173.0,144.0,-59.0,0
27.0,-343.0,-77.0,-1191.0,131.0,-58.0,0
28.0,-345.0,-83.0,-1209.0,119.0,-59.0,0
26.0,-338.0,-95.0,-1229.0,106.0,-56.0,0
27.0,-336.0,-102.0,-1253.0,91.0,-54.0,0
24.0,-332.0,-100.0,-1279.0,82.0,-51.0,0
20.0,-325.0,-103.0,-1295.0,77.0,-48.0,0
18.0,-326.0,-106.0,-1306.0,70.0,-44.0,0
22.0,-329.0,-123.0,-1310.0,64.0,-37.0,0
19.0,-333.0,-112.0,-1302.0,57.0,-36.0,0
15.0,-333.0,-116.0,-1292.0,45.0,-36.0,0
10.0,-333.0,-121.0,-1274.0,30.0,-35.0,0
9.0,-335.0,-122.0,-1257.0,15.0,-33.0,0
3.0,-336.0,-121.0,-1242.0,0.0,-30.0,0
6.0,-332.0,-123.0,-1231.0,-9.0,-28.0,0
8.0,-332.0,-125.0,-1217.0,-15.0,-26.0,0
7.0,-328.0,-125.0,-1203.0,-13.0,-24.0,0
6.0,-326.0,-123.0,-1185.0,-7.0,-21.0,0
11.0,-324.0,-121.0,-1170.0,-14.0,-10.0,0
2.0,-330.0,-118.0,-1156.0,-26.0,1.0,0
9.0,-334.0,-121.0,-1144.0,-36.0,11.0,0
6.0,-335.0,-120.0,-1131.0,-54.0,15.0,0
11.0,-334.0,-120.0,-1109.0,-65.0,19.0,0
6.0,-334.0,-120.0,-1081.0,-60.0,23.0,0
8.0,-339.0,-121.0,-1041.0,-51.0,32.0,0
14.0,-337.0,-116.0,-995.0,-37.0,40.0,0
11.0,-340.0,-120.0,-943.0,-20.0,47.0,0
11.0,-342.0,-112.0,-898.0,-5.0,47.0,0
11.0,-349.0,-118.0,-849.0,15.0,44.0,0
13.0,-350.0,-116.0,-793.0,36.0,46.0,0
8.0,-353.0,-121.0,-728.0,56.0,44.0,0
6.0,-355.0,-114.0,-656.0,79.0,42.0,0
-1.0,-357.0,-115.0,-580.0,97.0,37.0,0
-2.0,-353.0,-120.0,-504.0,111.0,32.0,0
2.0,-357.0,-118.0,-422.0,134.0,31.0,0
2.0,-351.0,-120.0,-338.0,154.0,22.0,0
-1.0,-349.0,-127.0,-256.0,168.0,15.0,0
-1.0,-340.0,-126.0,-178.0,183.0,10.0,0
0.0,-335.0,-127.0,-115.0,195.0,11.0,0
0.0,-331.0,-137.0,-69.0,206.0,19.0,0
3.0,-326.0,-133.0,-44.0,212.0,30.0,0
1.0,-329.0,-136.0,-33.0,211.0,45.0,0
6.0,-328.0,-133.0,-30.0,206.0,56.0,0
14.0,-334.0,-132.0,-19.0,205.0,67.0,0
23.0,-330.0,-134.0,-3.0,200.0,72.0,0
33.0,-331.0,-131.0,12.0,197.0,81.0,0
40.0,-329.0,-124.0,27.0,200.0,91.0,0
45.0,-331.0,-123.0,45.0,217.0,101.0,0
36.0,-331.0,-121.0,69.0,245.0,104.0,0
30.0,-329.0,-117.0,99.0,277.0,107.0,0
19.0,-327.0,-118.0,126.0,296.0,106.0,0
9.0,-322.0,-112.0,157.0,290.0,112.0,0
12.0,-317.0,-107.0,180.0,258.0,120.0,0
11.0,-315.0,-111.0,191.0,213.0,125.0,0
6.0,-307.0,-107.0,198.0,171.0,127.0,0
6.0,-300.0,-110.0,200.0,142.0,128.0,0
1.0,-294.0,-110.0,204.0,124.0,125.0,0
-8.0,-283.0,-110.0,210.0,118.0,124.0,0
-10.0,-272.0,-110.0,214.0,119.0,123.0,0
-11.0,-262.0,-113.0,218.0,115.0,118.0,0
-14.0,-255.0,-117.0,222.0,119.0,106.0,0
-7.0,-246.0,-119.0,218.0,119.0,94.0,0
-12.0,-232.0,-119.0,208.0,113.0,96.0,0
-4.0,-218.0,-116.0,193.0,108.0,103.0,0
3.0,-207.0,-115.0,177.0,117.0,117.0,0
5.0,-198.0,-107.0,168.0,139.0,133.0,0
5.0,-194.0,-102.0,162.0,158.0,146.0,0
5.0,-188.0,-92.0,147.0,160.0,153.0,0
2.0,-179.0,-85.0,137.0,147.0,153.0,0
1.0,-175.0,-82.0,139.0,123.0,156.0,0
2.0,-168.0,-83.0,155.0,102.0,161.0,0
1.0,-162.0,-83.0,173.0,87.0,170.0,0
11.0,-158.0,-78.0,184.0,72.0,177.0,0
7.0,-155.0,-77.0,196.0,62.0,173.0,0
9.0,-147.0,-67.0,229.0,54.0,168.0,0
7.0,-143.0,-65.0,278.0,46.0,164.0,0
8.0,-130.0,-64.0,334.0,43.0,162.0,0
11.0,-128.0,-66.0,386.0,42.0,161.0,0
6.0,-119.0,-68.0,427.0,43.0,158.0,0
2.0,-111.0,-68.0,451.0,45.0,160.0,0
6.0,-105.0,-70.0,459.0,44.0,163.0,0
5.0,-96.0,-64.0,456.0,45.0,166.0,0
-1.0,-88.0,-65.0,445.0,42.0,171.0,0
4.0,-87.0,-60.0,429.0,37.0,179.0,0
4.0,-86.0,-66.0,413.0,28.0,181.0,0
6.0,-86.0,-59.0,397.0,17.0,180.0,0
3.0,-84.0,-58.0,388.0,7.0,174.0,0
6.0,-84.0,-56.0,382.0,-2.0,167.0,0
5.0,-84.0,-58.0,390.0,-3.0,163.0,0
4.0,-85.0,-56.0,403.0,1.0,154.0,0
4.0,-80.0,-53.0,423.0,3.0,139.0,0
7.0,-86.0,-57.0,448.0,7.0,117.0,0
6.0,-82.0,-56.0,477.0,12.0,94.0,0
7.0,-90.0,-55.0,509.0,20.0,72.0,0
3.0,-91.0,-57.0,548.0,28.0,49.0,0
10.0,-96.0,-50.0,590.0,36.0,30.0,0
9.0,-104.0,-54.0,636.0,41.0,10.0,0
6.0,-109.0,-57.0,688.0,47.0,-10.0,0
6.0,-115.0,-55.0,748.0,58.0,-26.0,0
4.0,-120.0,-51.0,817.0,73.0,-38.0,0
4.0,-127.0,-55.0,891.0,89.0,-48.0,0
6.0,-134.0,-56.0,959.0,104.0,-55.0,0
4.0,-136.0,-52.0,1023.0,117.0,-60.0,0
7.0,-144.0,-55.0,1084.0,131.0,-64.0,0
3.0,-147.0,-52.0,1136.0,148.0,-68.0,0
2.0,-151.0,-55.0,1177.0,166.0,-71.0,0
7.0,-158.0,-59.0,1208.0,180.0,-74.0,0
8.0,-160.0,-62.0,1224.0,196.0,-80.0,0
11.0,-163.0,-67.0,1226.0,207.0,-82.0,0
10.0,-163.0,-71.0,1215.0,215.0,-86.0,0
9.0,-168.0,-76.0,1195.0,213.0,-89.0,0
9.0,-171.0,-80.0,1161.0,201.0,-89.0,0
9.0,-173.0,-86.0,1110.0,181.0,-88.0,0
6.0,-174.0,-95.0,1048.0,157.0,-83.0,0
11.0,-181.0,-96.0,962.0,133.0,-72.0,0
9.0,-181.0,-100.0,871.0,117.0,-64.0,0
12.0,-185.0,-100.0,780.0,110.0,-54.0,0
13.0,-190.0,-99.0,692.0,113.0,-46.0,0
15.0,-198.0,-96.0,610.0,124.0,-38.0,0
17.0,-201.0,-88.0,538.0,136.0,-27.0,0
15.0,-211.0,-85.0,480.0,147.0,-16.0,0
18.0,-215.0,-80.0,439.0,159.0,-5.0,0
15.0,-221.0,-69.0,413.0,168.0,3.0,0
20.0,-232.0,-69.0,400.0,175.0,10.0,0
18.0,-232.0,-60.0,402.0,179.0,16.0,0
20.0,-240.0,-62.0,411.0,179.0,19.0,0
18.0,-247.0,-66.0,420.0,179.0,21.0,0
21.0,-246.0,-60.0,429.0,177.0,21.0,0
15.0,-252.0,-66.0,437.0,181.0,19.0,0
13.0,-251.0,-67.0,441.0,184.0,14.0,0
11.0,-252.0,-70.0,439.0,188.0,6.0,0
6.0,-253.0,-67.0,432.0,194.0,-3.0,0
6.0,-255.0,-68.0,420.0,196.0,-10.0,0
4.0,-251.0,-67.0,404.0,204.0,-21.0,0
2.0,-255.0,-62.0,383.0,210.0,-28.0,0
4.0,-252.0,-60.0,364.0,215.0,-36.0,0
1.0,-253.0,-58.0,345.0,220.0,-40.0,0
6.0,-256.0,-55.0,334.0,227.0,-44.0,0
10.0,-258.0,-52.0,326.0,235.0,-46.0,0
6.0,-257.0,-51.0,325.0,246.0,-50.0,0
8.0,-256.0,-45.0,327.0,260.0,-52.0,0
10.0,-259.0,-45.0,335.0,269.0,-50.0,0
14.0,-257.0,-43.0,346.0,278.0,-49.0,0
20.0,-259.0,-36.0,359.0,285.0,-53.0,0
14.0,-259.0,-33.0,373.0,291.0,-56.0,0
19.0,-260.0,-30.0,383.0,291.0,-59.0,0
22.0,-256.0,-26.0,385.0,286.0,-61.0,0
21.0,-260.0,-25.0,386.0,290.0,-64.0,0
22.0,-254.0,-29.0,381.0,294.0,-72.0,0
17.0,-254.0,-32.0,373.0,294.0,-82.0,0
16.0,-254.0,-34.0,359.0,295.0,-90.0,0
16.0,-250.0,-31.0,337.0,295.0,-99.0,0
15.0,-251.0,-34.0,311.0,291.0,-104.0,0
15.0,-255.0,-33.0,281.0,287.0,-107.0,0
11.0,-256.0,-31.0,252.0,281.0,-111.0,0
2.0,-252.0,-30.0,232.0,278.0,-115.0,0
5.0,-256.0,-25.0,227.0,269.0,-118.0,0
3.0,-254.0,-26.0,223.0,257.0,-119.0,0
0.0,-254.0,-27.0,223.0,242.0,-117.0,0
1.0,-253.0,-30.0,220.0,227.0,-112.0,0
4.0,-251.0,-29.0,209.0,214.0,-103.0,0
4.0,-250.0,-36.0,190.0,206.0,-89.0,0
7.0,-251.0,-35.0,162.0,208.0,-73.0,0
4.0,-255.0,-39.0,115.0,212.0,-57.0,0
3.0,-254.0,-34.0,54.0,209.0,-38.0,0
2.0,-256.0,-32.0,-15.0,203.0,-24.0,0
3.0,-257.0,-38.0,-81.0,190.0,-9.0,0
2.0,-263.0,-34.0,-142.0,177.0,2.0,0
7.0,-266.0,-35.0,-183.0,168.0,10.0,0
5.0,-275.0,-33.0,-202.0,163.0,16.0,0
2.0,-278.0,-31.0,-194.0,161.0,20.0,0
10.0,-277.0,-34.0,-161.0,163.0,22.0,0
14.0,-279.0,-36.0,-118.0,171.0,21.0,0
13.0,-282.0,-31.0,-69.0,182.0,15.0,0
12.0,-276.0,-28.0,-20.0,197.0,8.0,0
13.0,-274.0,-30.0,22.0,206.0,-1.0,0
16.0,-273.0,-29.0,55.0,213.0,-11.0,0
17.0,-273.0,-29.0,81.0,218.0,-21.0,0
14.0,-274.0,-29.0,98.0,218.0,-33.0,0
9.0,-268.0,-23.0,108.0,220.0,-42.0,0
12.0,-267.0,-24.0,120.0,215.0,-52.0,0
12.0,-261.0,-27.0,129.0,211.0,-57.0,0
9.0,-262.0,-27.0,136.0,209.0,-61.0,0
8.0,-262.0,-26.0,144.0,207.0,-61.0,0
6.0,-260.0,-24.0,148.0,205.0,-62.0,0
5.0,-259.0,-27.0,149.0,204.0,-61.0,0
0.0,-255.0,-25.0,149.0,203.0,-59.0,0
1.0,-256.0,-24.0,144.0,199.0,-58.0,0
-1.0,-256.0,-28.0,140.0,194.0,-54.0,0
-1.0,-257.0,-26.0,133.0,189.0,-51.0,0
-5.0,-252.0,-18.0,127.0,184.0,-47.0,0
-5.0,-261.0,-20.0,120.0,179.0,-43.0,0
-4.0,-255.0,-19.0,115.0,173.0,-40.0,0
-4.0,-255.0,-19.0,108.0,165.0,-35.0,0
-4.0,-254.0,-15.0,102.0,157.0,-32.0,0
-2.0,-258.0,-17.0,97.0,146.0,-28.0,0
-6.0,-256.0,-18.0,92.0,133.0,-25.0,0
-2.0,-257.0,-19.0,87.0,124.0,-23.0,0
-4.0,-256.0,-15.0,81.0,110.0,-20.0,0
-8.0,-258.0,-28.0,74.0,97.0,-18.0,0
-6.0,-257.0,-19.0,67.0,84.0,-16.0,0
-3.0,-260.0,-23.0,58.0,75.0,-14.0,0
-8.0,-264.0,-26.0,46.0,66.0,-15.0,0
-8.0,-257.0,-23.0,36.0,56.0,-14.0,0
-8.0,-257.0,-27.0,24.0,48.0,-14.0,0
-4.0,-260.0,-27.0,12.0,40.0,-12.0,0
-8.0,-257.0,-29.0,-2.0,33.0,-10.0,0
-6.0,-259.0,-26.0,-14.0,26.0,-8.0,0
-6.0,-261.0,-25.0,-27.0,21.0,-7.0,0
-1.0,-261.0,-27.0,-38.0,16.0,-7.0,0
-5.0,-263.0,-29.0,-49.0,13.0,-6.0,0
-1.0,-266.0,-29.0,-57.0,11.0,-5.0,0
-1.0,-265.0,-24.0,-61.0,12.0,-8.0,0
0.0,-267.0,-29.0,-63.0,11.0,-9.0,0
1.0,-268.0,-22.0,-59.0,10.0,-10.0,0
1.0,-266.0,-25.0,-55.0,10.0,-11.0,0
1.0,-266.0,-22.0,-50.0,11.0,-12.0,0
3.0,-265.0,-19.0,-47.0,11.0,-12.0,0
2.0,-264.0,-21.0,-42.0,10.0,-13.0,0
5.0,-267.0,-22.0,-37.0,9.0,-13.0,0
4.0,-264.0,-22.0,-31.0,10.0,-13.0,0
4.0,-265.0,-15.0,-26.0,10.0,-10.0,0
11.0,-266.0,-17.0,-17.0,9.0,-8.0,0
9.0,-268.0,-18.0,-8.0,6.0,-5.0,0
2.0,-261.0,-21.0,1.0,2.0,-3.0,0
9.0,-260.0,-19.0,9.0,-2.0,-1.0,0
8.0,-261.0,-17.0,13.0,-4.0,1.0,0
7.0,-260.0,-17.0,15.0,-8.0,3.0,0
8.0,-258.0,-17.0,14.0,-11.0,4.0,0
8.0,-260.0,-18.0,8.0,-13.0,4.0,0
4.0,-256.0,-15.0,2.0,-15.0,5.0,0
1.0,-255.0,-15.0,-7.0,-17.0,5.0,0
6.0,-258.0,-12.0,-19.0,-19.0,4.0,0
4.0,-258.0,-8.0,-31.0,-19.0,4.0,0
5.0,-258.0,-18.0,-40.0,-23.0,3.0,0
2.0,-258.0,-14.0,-46.0,-25.0,3.0,0
0.0,-261.0,-13.0,-50.0,-26.0,3.0,0
0.0,-257.0,-13.0,-54.0,-24.0,3.0,0
-1.0,-258.0,-15.0,-58.0,-24.0,2.0,0
-1.0,-261.0,-12.0,-61.0,-20.0,1.0,0
0.0,-260.0,-14.0,-63.0,-18.0,0.0,0
-1.0,-262.0,-14.0,-63.0,-12.0,1.0,0
0.0,-261.0,-15.0,-61.0,-8.0,1.0,0
2.0,-263.0,-8.0,-60.0,-5.0,2.0,0
6.0,-260.0,-12.0,-58.0,-4.0,3.0,0
1.0,-264.0,-17.0,-59.0,-3.0,4.0,0
6.0,-261.0,-15.0,-62.0,-3.0,4.0,0
4.0,-260.0,-12.0,-61.0,-3.0,3.0,0
6.0,-264.0,-14.0,-61.0,-2.0,2.0,0
7.0,-262.0,-14.0,-60.0,-4.0,3.0,0
8.0,-263.0,-14.0,-63.0,-1.0,2.0,0
7.0,-259.0,-17.0,-63.0,3.0,0.0,0
9.0,-262.0,-15.0,-61.0,7.0,-2.0,0
12.0,-262.0,-18.0,-57.0,10.0,-3.0,0
10.0,-258.0,-15.0,-54.0,16.0,-5.0,0
10.0,-264.0,-17.0,-53.0,20.0,-6.0,0
12.0,-265.0,-15.0,-52.0,24.0,-5.0,0
15.0,-263.0,-18.0,-50.0,27.0,-5.0,0
12.0,-260.0,-17.0,-51.0,29.0,-6.0,0
9.0,-261.0,-15.0,-49.0,31.0,-5.0,0
13.0,-261.0,-14.0,-50.0,34.0,-3.0,0
11.0,-263.0,-17.0,-54.0,35.0,-3.0,0
15.0,-262.0,-17.0,-57.0,36.0,-5.0,0
11.0,-262.0,-19.0,-60.0,42.0,-5.0,0
13.0,-262.0,-11.0,-61.0,47.0,-7.0,0
8.0,-266.0,-15.0,-61.0,52.0,-8.0,0
9.0,-264.0,-16.0,-60.0,57.0,-9.0,0
7.0,-263.0,-15.0,-55.0,61.0,-11.0,0
5.0,-264.0,-16.0,-52.0,68.0,-13.0,0
5.0,-261.0,-16.0,-45.0,72.0,-17.0,0
6.0,-262.0,-15.0,-39.0,78.0,-16.0,0
5.0,-258.0,-15.0,-36.0,83.0,-15.0,0
5.0,-255.0,-17.0,-39.0,87.0,-15.0,0
6.0,-254.0,-14.0,-44.0,90.0,-14.0,0
8.0,-254.0,-12.0,-52.0,92.0,-16.0,0
6.0,-255.0,-16.0,-65.0,93.0,-19.0,0
5.0,-260.0,-19.0,-78.0,95.0,-21.0,0
6.0,-258.0,-11.0,-92.0,93.0,-23.0,0
6.0,-256.0,-14.0,-100.0,91.0,-22.0,0
11.0,-259.0,-13.0,-104.0,89.0,-23.0,0
10.0,-263.0,-13.0,-101.0,86.0,-21.0,0
6.0,-260.0,-7.0,-93.0,83.0,-20.0,0
11.0,-263.0,-11.0,-85.0,82.0,-16.0,0
12.0,-263.0,-15.0,-77.0,81.0,-14.0,0
8.0,-260.0,-13.0,-71.0,83.0,-14.0,0
8.0,-261.0,-18.0,-65.0,83.0,-11.0,0
6.0,-262.0,-15.0,-64.0,84.0,-11.0,0
10.0,-264.0,-16.0,-64.0,83.0,-11.0,0
4.0,-263.0,-20.0,-63.0,81.0,-10.0,0
9.0,-263.0,-18.0,-63.0,79.0,-7.0,0
5.0,-263.0,-18.0,-65.0,76.0,-5.0,0
8.0,-261.0,-16.0,-65.0,74.0,-4.0,0
12.0,-266.0,-14.0,-66.0,73.0,-3.0,0
8.0,-263.0,-21.0,-65.0,74.0,-3.0,0
8.0,-264.0,-17.0,-64.0,75.0,-2.0,0
5.0,-262.0,-21.0,-65.0,74.0,-1.0,0
7.0,-260.0,-17.0,-63.0,73.0,-1.0,0
6.0,-259.0,-19.0,-61.0,74.0,-2.0,0
6.0,-264.0,-16.0,-61.0,71.0,-1.0,0
7.0,-263.0,-13.0,-58.0,69.0,-1.0,0
6.0,-262.0,-13.0,-57.0,67.0,-1.0,0
7.0,-260.0,-16.0,-56.0,64.0,-3.0,0
9.0,-260.0,-15.0,-56.0,60.0,-2.0,0
8.0,-259.0,-16.0,-56.0,57.0,-3.0,0
6.0,-259.0,-18.0,-57.0,55.0,-4.0,0
8.0,-260.0,-16.0,-61.0,52.0,-4.0,0
7.0,-258.0,-23.0,-67.0,50.0,-5.0,0
7.0,-261.0,-18.0,-70.0,49.0,-7.0,0
5.0,-257.0,-16.0,-77.0,48.0,-7.0,0
10.0,-262.0,-15.0,-82.0,47.0,-7.0,0
10.0,-261.0,-17.0,-84.0,45.0,-6.0,0
8.0,-261.0,-16.0,-84.0,45.0,-5.0,0
5.0,-259.0,-17.0,-86.0,44.0,-6.0,0
5.0,-261.0,-15.0,-87.0,41.0,-2.0,0
6.0,-262.0,-14.0,-84.0,39.0,-3.0,0
7.0,-261.0,-12.0,-83.0,36.0,-2.0,0
4.0,-262.0,-16.0,-80.0,32.0,-1.0,0
4.0,-262.0,-19.0,-76.0,29.0,0.0,0
7.0,-261.0,-14.0,-73.0,25.0,0.0,0
6.0,-260.0,-15.0,-70.0,22.0,3.0,0
7.0,-258.0,-17.0,-69.0,20.0,4.0,0
10.0,-258.0,1.0,-68.0,17.0,4.0,0
7.0,-261.0,-18.0,-67.0,16.0,7.0,0
6.0,-263.0,-17.0,-67.0,12.0,6.0,0
4.0,-261.0,-21.0,-70.0,11.0,6.0,0
5.0,-262.0,-13.0,-70.0,9.0,6.0,0
7.0,-266.0,-19.0,-70.0,6.0,7.0,0
8.0,-265.0,-18.0,-70.0,3.0,7.0,0
7.0,-263.0,-19.0,-71.0,2.0,7.0,0
5.0,-257.0,-14.0,-68.0,1.0,7.0,0
3.0,-263.0,-12.0,-69.0,-1.0,7.0,0
6.0,-261.0,-15.0,-69.0,-2.0,6.0,0
8.0,-261.0,-17.0,-68.0,-3.0,6.0,0
7.0,-264.0,-16.0,-69.0,-5.0,8.0,0
9.0,-263.0,-15.0,-67.0,-6.0,7.0,0
5.0,-260.0,-14.0,-67.0,-8.0,6.0,0
9.0,-264.0,-18.0,-65.0,-9.0,7.0,0
4.0,-262.0,-16.0,-62.0,-9.0,7.0,0
7.0,-261.0,-15.0,-59.0,-8.0,8.0,0
9.0,-268.0,-19.0,-57.0,-7.0,8.0,0
7.0,-262.0,-15.0,-56.0,-8.0,9.0,0
3.0,-263.0,-20.0,-55.0,-8.0,10.0,0
7.0,-261.0,-16.0,-52.0,-8.0,10.0,0
9.0,-262.0,-13.0,-50.0,-8.0,10.0,0
7.0,-260.0,-17.0,-47.0,-7.0,10.0,0
10.0,-263.0,-16.0,-47.0,-6.0,12.0,0
8.0,-259.0,-15.0,-48.0,-5.0,9.0,0
8.0,-260.0,-15.0,-50.0,-6.0,8.0,0
8.0,-258.0,-18.0,-53.0,-5.0,9.0,0
7.0,-258.0,-16.0,-56.0,-4.0,8.0,0
9.0,-260.0,-15.0,-56.0,-2.0,8.0,0
13.0,-262.0,-17.0,-58.0,-2.0,7.0,0
11.0,-261.0,-18.0,-62.0,-1.0,7.0,0
9.0,-260.0,-18.0,-59.0,0.0,6.0,0
6.0,-261.0,-13.0,-58.0,1.0,5.0,0
8.0,-262.0,-19.0,-58.0,0.0,5.0,0
9.0,-266.0,-13.0,-57.0,0.0,5.0,0
9.0,-263.0,-15.0,-57.0,0.0,6.0,0
8.0,-262.0,-12.0,-54.0,1.0,6.0,0
9.0,-259.0,-18.0,-51.0,6.0,6.0,0
8.0,-262.0,-17.0,-51.0,8.0,6.0,0
9.0,-262.0,-17.0,-48.0,11.0,5.0,0
11.0,-260.0,-21.0,-46.0,14.0,6.0,0
11.0,-263.0,-19.0,-47.0,16.0,4.0,0
11.0,-264.0,-17.0,-48.0,19.0,3.0,0
7.0,-261.0,-12.0,-48.0,20.0,3.0,0
10.0,-259.0,-15.0,-50.0,22.0,3.0,0
11.0,-262.0,-15.0,-51.0,23.0,2.0,0
11.0,-263.0,-20.0,-52.0,23.0,2.0,0
8.0,-262.0,-17.0,-51.0,24.0,2.0,0
10.0,-262.0,-15.0,-52.0,24.0,2.0,0
11.0,-262.0,-17.0,-51.0,25.0,1.0,0
8.0,-259.0,-18.0,-52.0,25.0,0.0,0
10.0,-266.0,-13.0,-52.0,25.0,0.0,0
9.0,-260.0,-15.0,-53.0,27.0,-1.0,0
7.0,-263.0,-17.0,-50.0,27.0,0.0,0
8.0,-262.0,-15.0,-47.0,28.0,0.0,0
8.0,-262.0,-18.0,-43.0,29.0,1.0,0
6.0,-260.0,-16.0,-42.0,30.0,1.0,0
8.0,-261.0,-17.0,-40.0,31.0,0.0,0
12.0,-262.0,-20.0,-41.0,32.0,0.0,0
10.0,-259.0,-19.0,-45.0,35.0,-2.0,0
8.0,-261.0,-17.0,-49.0,37.0,-3.0,0
12.0,-261.0,-17.0,-54.0,39.0,-5.0,0
15.0,-267.0,-11.0,-56.0,41.0,-4.0,0
6.0,-259.0,-17.0,-60.0,42.0,-6.0,0
8.0,-260.0,-16.0,-58.0,44.0,-7.0,0
9.0,-262.0,-13.0,-58.0,45.0,-7.0,0
9.0,-260.0,-17.0,-55.0,47.0,-8.0,0
12.0,-263.0,-16.0,-52.0,49.0,-8.0,0
10.0,-260.0,-17.0,-48.0,50.0,-7.0,0
12.0,-262.0,-16.0,-46.0,50.0,-8.0,0
9.0,-264.0,-17.0,-43.0,51.0,-9.0,0
8.0,-259.0,-16.0,-41.0,51.0,-7.0,0
6.0,-258.0,-21.0,-41.0,51.0,-8.0,0
10.0,-258.0,-20.0,-42.0,52.0,-8.0,0
9.0,-260.0,-17.0,-44.0,50.0,-8.0,0
7.0,-262.0,-16.0,-47.0,50.0,-9.0,0
9.0,-261.0,-19.0,-48.0,50.0,-8.0,0
9.0,-260.0,-19.0,-50.0,50.0,-10.0,0
10.0,-263.0,-17.0,-52.0,49.0,-10.0,0
9.0,-261.0,-17.0,-54.0,50.0,-11.0,0
8.0,-262.0,-15.0,-55.0,50.0,-11.0,0
5.0,-260.0,-16.0,-54.0,52.0,-13.0,0
12.0,-266.0,-21.0,-53.0,51.0,-13.0,0
7.0,-262.0,-20.0,-53.0,52.0,-13.0,0
9.0,-262.0,-16.0,-54.0,54.0,-13.0,0
9.0,-262.0,-22.0,-55.0,55.0,-13.0,0
7.0,-262.0,-16.0,-53.0,56.0,-14.0,0
10.0,-262.0,-20.0,-54.0,55.0,-14.0,0
9.0,-262.0,-17.0,-55.0,54.0,-15.0,0
11.0,-264.0,-17.0,-53.0,53.0,-15.0,0
7.0,-260.0,-15.0,-49.0,53.0,-15.0,0
13.0,-265.0,-18.0,-46.0,53.0,-14.0,0
8.0,-262.0,-16.0,-44.0,52.0,-13.0,0
6.0,-262.0,-20.0,-42.0,52.0,-13.0,0
1.0,-259.0,-18.0,-40.0,51.0,-12.0,0
5.0,-262.0,-16.0,-37.0,50.0,-12.0,0
9.0,-260.0,-17.0,-33.0,49.0,-11.0,0
9.0,-264.0,-21.0,-30.0,47.0,-9.0,0
7.0,-261.0,-17.0,-28.0,47.0,-9.0,0
7.0,-261.0,-18.0,-27.0,45.0,-10.0,0
6.0,-260.0,-19.0,-26.0,44.0,-9.0,0
7.0,-262.0,-19.0,-26.0,45.0,-9.0,0
9.0,-259.0,-21.0,-24.0,46.0,-10.0,0
7.0,-263.0,-20.0,-23.0,45.0,-8.0,0
0.0,-264.0,-16.0,-27.0,44.0,-8.0,0
6.0,-263.0,-18.0,-29.0,45.0,-9.0,0
7.0,-264.0,-23.0,-28.0,48.0,-9.0,0
9.0,-259.0,-20.0,-29.0,46.0,-9.0,0
8.0,-263.0,-20.0,-30.0,46.0,-9.0,0
11.0,-262.0,-23.0,-32.0,43.0,-9.0,0
8.0,-262.0,-18.0,-32.0,43.0,-8.0,0
7.0,-260.0,-21.0,-32.0,40.0,-7.0,0
3.0,-262.0,-25.0,-35.0,40.0,-7.0,0
8.0,-260.0,-15.0,-37.0,39.0,-5.0,0
6.0,-260.0,-21.0,-39.0,38.0,-5.0,0
12.0,-256.0,-11.0,-41.0,35.0,-5.0,0
7.0,-259.0,-20.0,-40.0,33.0,-4.0,0
5.0,-260.0,-17.0,-40.0,33.0,-5.0,0
7.0,-264.0,-21.0,-37.0,34.0,-3.0,0
7.0,-261.0,-20.0,-35.0,34.0,-3.0,0
4.0,-260.0,-17.0,-33.0,34.0,-2.0,0
5.0,-261.0,-19.0,-32.0,32.0,-2.0,0
8.0,-262.0,-15.0,-31.0,30.0,-1.0,0
4.0,-262.0,-22.0,-30.0,28.0,-1.0,0
3.0,-262.0,-21.0,-30.0,27.0,-2.0,0
7.0,-263.0,-18.0,-30.0,25.0,-1.0,0
4.0,-257.0,-21.0,-32.0,24.0,-2.0,0
6.0,-261.0,-18.0,-33.0,23.0,-2.0,0
4.0,-260.0,-20.0,-33.0,22.0,-2.0,0
7.0,-261.0,-18.0,-33.0,21.0,-1.0,0
7.0,-263.0,-18.0,-35.0,20.0,0.0,0
5.0,-260.0,-19.0,-36.0,19.0,-1.0,0
4.0,-259.0,-19.0,-38.0,19.0,-1.0,0
5.0,-259.0,-21.0,-38.0,19.0,1.0,0
5.0,-261.0,-22.0,-39.0,17.0,1.0,0
5.0,-260.0,-19.0,-41.0,15.0,2.0,0
7.0,-262.0,-18.0,-41.0,14.0,4.0,0
4.0,-261.0,-19.0,-40.0,11.0,5.0,0
6.0,-263.0,-19.0,-40.0,9.0,4.0,0
6.0,-262.0,-20.0,-42.0,7.0,5.0,0
5.0,-260.0,-22.0,-43.0,7.0,5.0,0
6.0,-262.0,-20.0,-44.0,6.0,4.0,0
7.0,-260.0,-20.0,-43.0,6.0,3.0,0
8.0,-259.0,-20.0,-43.0,5.0,4.0,0
5.0,-259.0,-21.0,-42.0,4.0,5.0,0
7.0,-263.0,-18.0,-42.0,2.0,6.0,0
10.0,-262.0,-21.0,-40.0,1.0,5.0,0
8.0,-262.0,-21.0,-40.0,1.0,6.0,0
7.0,-263.0,-19.0,-40.0,3.0,6.0,0
4.0,-260.0,-18.0,-41.0,3.0,5.0,0
7.0,-261.0,-17.0,-39.0,2.0,5.0,0
8.0,-261.0,-19.0,-40.0,1.0,7.0,0
7.0,-260.0,-17.0,-41.0,-1.0,6.0,0
5.0,-258.0,-13.0,-39.0,-1.0,5.0,0
6.0,-260.0,-19.0,-38.0,-2.0,9.0,0
10.0,-263.0,-17.0,-41.0,-2.0,9.0,0
7.0,-258.0,-15.0,-40.0,-1.0,7.0,0
8.0,-261.0,-17.0,-39.0,-2.0,8.0,0
2.0,-265.0,-20.0,-39.0,-1.0,8.0,0
8.0,-262.0,-15.0,-41.0,-3.0,9.0,0
6.0,-260.0,-18.0,-37.0,-2.0,8.0,0
4.0,-260.0,-20.0,-37.0,-1.0,9.0,0
6.0,-261.0,-16.0,-37.0,-1.0,8.0,0
7.0,-264.0,-21.0,-35.0,0.0,8.0,0
5.0,-260.0,-16.0,-35.0,1.0,7.0,0
8.0,-263.0,-16.0,-35.0,4.0,5.0,0
8.0,-262.0,-20.0,-34.0,7.0,4.0,0
9.0,-263.0,-19.0,-33.0,8.0,3.0,0
8.0,-261.0,-19.0,-33.0,11.0,3.0,0
8.0,-264.0,-16.0,-32.0,12.0,2.0,0
6.0,-263.0,-16.0,-32.0,14.0,2.0,0
5.0,-262.0,-14.0,-31.0,14.0,2.0,0
6.0,-260.0,-19.0,-31.0,15.0,2.0,0
7.0,-262.0,-15.0,-30.0,15.0,3.0,0
9.0,-260.0,-17.0,-28.0,16.0,3.0,0
7.0,-263.0,-19.0,-29.0,19.0,2.0,0
9.0,-263.0,-14.0,-31.0,18.0,2.0,0
8.0,-263.0,-20.0,-29.0,17.0,3.0,0
7.0,-261.0,-14.0,-30.0,20.0,3.0,0
9.0,-257.0,-19.0,-29.0,20.0,3.0,0
8.0,-261.0,-13.0,-29.0,20.0,3.0,0
7.0,-261.0,-18.0,-29.0,21.0,2.0,0
6.0,-260.0,-19.0,-28.0,23.0,2.0,0
9.0,-262.0,-20.0,-26.0,23.0,-1.0,0
7.0,-260.0,-15.0,-24.0,25.0,-2.0,0
6.0,-262.0,-14.0,-24.0,27.0,-1.0,0
9.0,-263.0,-17.0,-27.0,29.0,-2.0,0
9.0,-262.0,-14.0,-28.0,30.0,-3.0,0
6.0,-263.0,-18.0,-29.0,31.0,-3.0,0
11.0,-259.0,-17.0,-32.0,31.0,-3.0,0
6.0,-259.0,-20.0,-31.0,32.0,-4.0,0
6.0,-261.0,-21.0,-37.0,33.0,-3.0,0
5.0,-260.0,-16.0,-38.0,32.0,-3.0,0
7.0,-260.0,-15.0,-38.0,33.0,-1.0,0
6.0,-263.0,-19.0,-39.0,32.0,-4.0,0
7.0,-261.0,-18.0,-37.0,32.0,-3.0,0
7.0,-261.0,-12.0,-34.0,32.0,-3.0,0
7.0,-260.0,-16.0,-33.0,32.0,-4.0,0
8.0,-263.0,-18.0,-31.0,33.0,-4.0,0
2.0,-256.0,-19.0,-33.0,33.0,-2.0,0
8.0,-263.0,-13.0,-36.0,33.0,-5.0,0
8.0,-261.0,-16.0,-42.0,34.0,-5.0,0
6.0,-262.0,-14.0,-47.0,37.0,-5.0,0
8.0,-261.0,-17.0,-48.0,40.0,-8.0,0
8.0,-263.0,-15.0,-49.0,42.0,-7.0,0
7.0,-262.0,-16.0,-49.0,43.0,-7.0,0
8.0,-260.0,-15.0,-47.0,43.0,-7.0,0
3.0,-261.0,-16.0,-45.0,41.0,-7.0,0
5.0,-258.0,-10.0,-44.0,39.0,-8.0,0
6.0,-259.0,-12.0,-46.0,35.0,-7.0,0
6.0,-259.0,-12.0,-48.0,33.0,-6.0,0
2.0,-260.0,-19.0,-47.0,27.0,-5.0,0
6.0,-263.0,-21.0,-46.0,23.0,-4.0,0
6.0,-262.0,-19.0,-47.0,20.0,-3.0,0
6.0,-261.0,-18.0,-49.0,18.0,-3.0,0
5.0,-259.0,-18.0,-49.0,15.0,-2.0,0
5.0,-263.0,-21.0,-47.0,13.0,-3.0,0
5.0,-263.0,-16.0,-50.0,11.0,-2.0,0
3.0,-260.0,-18.0,-51.0,10.0,-2.0,0
4.0,-262.0,-19.0,-52.0,10.0,-1.0,0
5.0,-260.0,-16.0,-54.0,12.0,1.0,0
5.0,-264.0,-19.0,-52.0,11.0,0.0,0
11.0,-266.0,-11.0,-49.0,9.0,1.0,0
8.0,-261.0,-20.0,-47.0,7.0,1.0,0
8.0,-261.0,-18.0,-47.0,7.0,2.0,0
4.0,-259.0,-15.0,-45.0,6.0,1.0,0
3.0,-261.0,-17.0,-46.0,6.0,1.0,0
6.0,-261.0,-16.0,-43.0,5.0,0.0,0
5.0,-260.0,-16.0,-43.0,5.0,1.0,0
6.0,-261.0,-20.0,-44.0,6.0,-1.0,0
6.0,-264.0,-20.0,-42.0,7.0,-2.0,0
6.0,-261.0,-19.0,-39.0,5.0,1.0,0
2.0,-266.0,-21.0,-39.0,5.0,-2.0,0
9.0,-262.0,-18.0,-39.0,4.0,-3.0,0
7.0,-261.0,-16.0,-38.0,6.0,-3.0,0
8.0,-261.0,-16.0,-40.0,8.0,-4.0,0
6.0,-259.0,-14.0,-39.0,9.0,-5.0,0
5.0,-259.0,-21.0,-41.0,10.0,-2.0,0
7.0,-261.0,-16.0,-42.0,10.0,-5.0,0
4.0,-262.0,-16.0,-43.0,11.0,-4.0,0
6.0,-262.0,-17.0,-43.0,11.0,-4.0,0
7.0,-263.0,-15.0,-44.0,10.0,-3.0,0
9.0,-261.0,-16.0,-43.0,9.0,-4.0,0
13.0,-256.0,-17.0,-42.0,10.0,-2.0,0
6.0,-263.0,-16.0,-45.0,10.0,-2.0,0
11.0,-259.0,-16.0,-43.0,12.0,-2.0,0
8.0,-261.0,-16.0,-43.0,11.0,-3.0,0
9.0,-262.0,-20.0,-44.0,13.0,-3.0,0
5.0,-262.0,-16.0,-44.0,14.0,-2.0,0
7.0,-262.0,-15.0,-44.0,14.0,-3.0,0
7.0,-263.0,-15.0,-44.0,14.0,-3.0,0
7.0,-262.0,-21.0,-44.0,14.0,-2.0,0
5.0,-259.0,-14.0,-46.0,15.0,-2.0,0
6.0,-264.0,-18.0,-45.0,15.0,-1.0,0
6.0,-266.0,-18.0,-46.0,15.0,-3.0,0
7.0,-260.0,-16.0,-47.0,16.0,0.0,0
6.0,-261.0,-17.0,-48.0,14.0,0.0,0
6.0,-263.0,-15.0,-49.0,15.0,0.0,0
5.0,-258.0,-18.0,-50.0,16.0,0.0,0
6.0,-258.0,-16.0,-49.0,17.0,1.0,0
7.0,-260.0,-20.0,-50.0,16.0,2.0,0
6.0,-260.0,-16.0,-50.0,15.0,1.0,0
6.0,-262.0,-18.0,-51.0,15.0,1.0,0
5.0,-261.0,-15.0,-49.0,15.0,1.0,0
5.0,-265.0,-19.0,-50.0,13.0,-2.0,0
6.0,-259.0,-17.0,-52.0,13.0,0.0,0
7.0,-260.0,-14.0,-53.0,12.0,0.0,0
5.0,-259.0,-17.0,-53.0,11.0,-1.0,0
6.0,-261.0,-18.0,-54.0,10.0,-2.0,0
6.0,-263.0,-19.0,-55.0,10.0,-3.0,0
5.0,-258.0,-16.0,-55.0,10.0,-4.0,0
6.0,-257.0,-17.0,-57.0,9.0,-3.0,0
6.0,-259.0,-21.0,-55.0,7.0,-3.0,0
6.0,-260.0,-20.0,-56.0,9.0,-3.0,0
6.0,-263.0,-20.0,-57.0,7.0,-3.0,0
1.0,-260.0,-17.0,-59.0,7.0,-3.0,0
8.0,-261.0,-17.0,-60.0,8.0,-3.0,0
6.0,-262.0,-17.0,-61.0,8.0,-4.0,0
5.0,-263.0,-16.0,-60.0,8.0,-3.0,0
7.0,-262.0,-15.0,-60.0,8.0,-4.0,0
4.0,-260.0,-23.0,-62.0,7.0,-3.0,0
2.0,-263.0,-17.0,-60.0,6.0,-3.0,0
8.0,-264.0,-18.0,-58.0,6.0,-4.0,0
4.0,-262.0,-16.0,-54.0,6.0,-5.0,0
2.0,-263.0,-17.0,-53.0,5.0,-4.0,0
6.0,-260.0,-16.0,-50.0,5.0,-4.0,0
7.0,-266.0,-20.0,-50.0,5.0,-2.0,0
4.0,-261.0,-22.0,-50.0,6.0,-3.0,0
7.0,-261.0,-17.0,-49.0,5.0,-4.0,0
10.0,-264.0,-21.0,-48.0,5.0,-3.0,0
4.0,-259.0,-15.0,-49.0,5.0,-2.0,0
7.0,-261.0,-17.0,-48.0,5.0,-2.0,0
7.0,-263.0,-19.0,-49.0,4.0,-2.0,0
3.0,-260.0,-22.0,-47.0,3.0,-3.0,0
6.0,-260.0,-11.0,-44.0,2.0,-2.0,0
6.0,-263.0,-13.0,-44.0,1.0,-3.0,0
7.0,-267.0,-14.0,-44.0,-1.0,-1.0,0
7.0,-261.0,-12.0,-43.0,-1.0,-2.0,0
4.0,-261.0,-19.0,-42.0,-3.0,-2.0,0
2.0,-262.0,-18.0,-41.0,-4.0,-2.0,0
2.0,-259.0,-17.0,-41.0,-4.0,-3.0,0
6.0,-262.0,-18.0,-39.0,-3.0,-2.0,0
5.0,-264.0,-19.0,-39.0,-2.0,-1.0,0
6.0,-260.0,-19.0,-39.0,-4.0,-1.0,0
4.0,-261.0,-15.0,-40.0,-4.0,-1.0,0
6.0,-257.0,-17.0,-42.0,-3.0,-1.0,0
7.0,-262.0,-17.0,-42.0,-3.0,0.0,0
7.0,-262.0,-17.0,-43.0,-4.0,-1.0,0
4.0,-259.0,-20.0,-43.0,-3.0,0.0,0
4.0,-262.0,-17.0,-44.0,-3.0,-1.0,0
6.0,-261.0,-15.0,-44.0,-3.0,-1.0,0
3.0,-262.0,-18.0,-47.0,-4.0,-2.0,0
6.0,-262.0,-16.0,-47.0,-5.0,0.0,0
3.0,-260.0,-21.0,-47.0,-6.0,0.0,0
2.0,-261.0,-13.0,-47.0,-5.0,1.0,0
4.0,-262.0,-16.0,-47.0,-7.0,1.0,0
4.0,-260.0,-17.0,-46.0,-8.0,2.0,0
0.0,-261.0,-9.0,-47.0,-9.0,3.0,0
3.0,-261.0,-19.0,-46.0,-9.0,3.0,0
4.0,-258.0,-18.0,-45.0,-11.0,3.0,0
6.0,-264.0,-14.0,-45.0,-11.0,2.0,0
3.0,-262.0,-19.0,-44.0,-11.0,3.0,0
6.0,-260.0,-17.0,-45.0,-10.0,3.0,0
9.0,-263.0,-16.0,-47.0,-11.0,3.0,0
2.0,-259.0,-20.0,-46.0,-11.0,4.0,0
2.0,-261.0,-15.0,-45.0,-10.0,4.0,0
8.0,-263.0,-16.0,-44.0,-9.0,4.0,0
6.0,-259.0,-20.0,-45.0,-10.0,4.0,0
3.0,-262.0,-15.0,-44.0,-11.0,5.0,0
4.0,-260.0,-20.0,-46.0,-12.0,5.0,0
3.0,-261.0,-16.0,-49.0,-12.0,6.0,0
5.0,-263.0,-17.0,-50.0,-15.0,7.0,0
5.0,-262.0,-19.0,-52.0,-15.0,6.0,0
2.0,-261.0,-18.0,-52.0,-16.0,5.0,0
2.0,-261.0,-18.0,-52.0,-17.0,6.0,0
4.0,-262.0,-17.0,-53.0,-16.0,7.0,0
2.0,-262.0,-16.0,-52.0,-17.0,6.0,0
4.0,-258.0,-15.0,-51.0,-16.0,7.0,0
7.0,-261.0,-17.0,-48.0,-16.0,5.0,0
5.0,-259.0,-21.0,-45.0,-16.0,7.0,0
5.0,-257.0,-16.0,-46.0,-16.0,6.0,0
4.0,-258.0,-21.0,-48.0,-14.0,6.0,0
4.0,-262.0,-20.0,-50.0,-12.0,6.0,0
5.0,-260.0,-18.0,-55.0,-10.0,7.0,0
5.0,-260.0,-15.0,-57.0,-7.0,6.0,0
7.0,-265.0,-16.0,-60.0,-7.0,6.0,0
6.0,-262.0,-13.0,-59.0,-6.0,6.0,0
4.0,-260.0,-18.0,-58.0,-5.0,5.0,0
4.0,-262.0,-17.0,-56.0,-7.0,6.0,0
4.0,-261.0,-19.0,-55.0,-4.0,6.0,0
5.0,-265.0,-23.0,-52.0,-4.0,7.0,0
5.0,-262.0,-17.0,-51.0,-4.0,5.0,0
3.0,-258.0,-18.0,-49.0,-4.0,6.0,0
2.0,-260.0,-18.0,-48.0,-4.0,6.0,0
5.0,-261.0,-20.0,-47.0,-4.0,7.0,0
8.0,-261.0,-18.0,-47.0,-2.0,7.0,0
7.0,-265.0,-20.0,-48.0,-1.0,8.0,0
8.0,-259.0,-20.0,-50.0,0.0,8.0,0
3.0,-258.0,-17.0,-51.0,2.0,6.0,0
3.0,-263.0,-17.0,-54.0,2.0,7.0,0
4.0,-265.0,-15.0,-54.0,5.0,6.0,0
3.0,-264.0,-17.0,-52.0,6.0,9.0,0
3.0,-262.0,-20.0,-53.0,5.0,7.0,0
8.0,-263.0,-19.0,-51.0,7.0,7.0,0
4.0,-262.0,-19.0,-49.0,7.0,6.0,0
8.0,-262.0,-17.0,-47.0,8.0,7.0,0
7.0,-266.0,-16.0,-46.0,9.0,5.0,0
4.0,-264.0,-17.0,-46.0,9.0,5.0,0
3.0,-263.0,-19.0,-46.0,8.0,7.0,0
1.0,-262.0,-20.0,-46.0,7.0,7.0,0
5.0,-262.0,-16.0,-48.0,7.0,5.0,0
2.0,-262.0,-30.0,-48.0,7.0,5.0,0
5.0,-263.0,-17.0,-49.0,4.0,7.0,0
5.0,-264.0,-17.0,-48.0,3.0,7.0,0
2.0,-259.0,-15.0,-48.0,3.0,6.0,0
6.0,-261.0,-18.0,-47.0,1.0,6.0,0
4.0,-262.0,-18.0,-45.0,1.0,5.0,0
8.0,-262.0,-18.0,-47.0,0.0,5.0,0
4.0,-260.0,-17.0,-48.0,0.0,6.0,0
7.0,-261.0,-19.0,-48.0,0.0,6.0,0
6.0,-258.0,-12.0,-48.0,1.0,7.0,0
2.0,-262.0,-15.0,-46.0,1.0,6.0,0
3.0,-259.0,-13.0,-42.0,0.0,6.0,0
7.0,-263.0,-19.0,-38.0,-1.0,5.0,0
7.0,-263.0,-16.0,-37.0,-3.0,4.0,0
8.0,-263.0,-16.0,-34.0,-2.0,6.0,0
4.0,-260.0,-15.0,-33.0,-5.0,5.0,0
7.0,-261.0,-18.0,-35.0,-5.0,5.0,0
4.0,-263.0,-18.0,-37.0,-5.0,5.0,0
7.0,-261.0,-17.0,-38.0,-7.0,6.0,0
2.0,-264.0,-15.0,-40.0,-6.0,6.0,0
4.0,-263.0,-15.0,-39.0,-7.0,6.0,0
1.0,-260.0,-19.0,-37.0,-9.0,5.0,0
3.0,-261.0,-18.0,-37.0,-10.0,5.0,0
3.0,-259.0,-19.0,-35.0,-10.0,5.0,0
0.0,-260.0,-14.0,-35.0,-9.0,5.0,0
2.0,-257.0,-13.0,-35.0,-10.0,4.0,0
3.0,-261.0,-12.0,-34.0,-10.0,4.0,0
4.0,-261.0,-13.0,-33.0,-10.0,4.0,0
2.0,-262.0,-17.0,-33.0,-10.0,4.0,0
6.0,-263.0,-19.0,-36.0,-9.0,4.0,0
3.0,-262.0,-13.0,-37.0,-8.0,4.0,0
5.0,-262.0,-15.0,-38.0,-8.0,3.0,0
5.0,-263.0,-16.0,-37.0,-8.0,3.0,0
1.0,-259.0,-17.0,-38.0,-7.0,2.0,0
5.0,-262.0,-16.0,-38.0,-8.0,1.0,0
4.0,-261.0,-15.0,-38.0,-8.0,0.0,0
4.0,-264.0,-15.0,-39.0,-9.0,1.0,0
6.0,-260.0,-16.0,-38.0,-10.0,2.0,0
5.0,-262.0,-16.0,-38.0,-9.0,2.0,0
5.0,-259.0,-14.0,-37.0,-10.0,2.0,0
4.0,-260.0,-18.0,-38.0,-9.0,1.0,0
7.0,-263.0,-15.0,-37.0,-9.0,0.0,0
7.0,-263.0,-17.0,-38.0,-7.0,0.0,0
7.0,-257.0,-22.0,-37.0,-6.0,2.0,0
7.0,-260.0,-17.0,-40.0,-5.0,0.0,0
5.0,-259.0,-18.0,-39.0,-2.0,0.0,0
3.0,-260.0,-17.0,-40.0,-1.0,-1.0,0
5.0,-259.0,-15.0,-41.0,0.0,-1.0,0
6.0,-262.0,-19.0,-40.0,2.0,0.0,0
5.0,-261.0,-18.0,-42.0,2.0,0.0,0
8.0,-261.0,-18.0,-42.0,2.0,-1.0,0
7.0,-263.0,-18.0,-44.0,1.0,-1.0,0
4.0,-262.0,-19.0,-44.0,3.0,-3.0,0
7.0,-258.0,-23.0,-46.0,4.0,-3.0,0
5.0,-262.0,-18.0,-44.0,4.0,-3.0,0
5.0,-263.0,-18.0,-45.0,4.0,-3.0,0
3.0,-261.0,-17.0,-45.0,6.0,-4.0,0
3.0,-261.0,-14.0,-45.0,7.0,-5.0,0
8.0,-260.0,-16.0,-45.0,7.0,-4.0,0
5.0,-260.0,-18.0,-43.0,9.0,-4.0,0
8.0,-262.0,-16.0,-44.0,9.0,-4.0,0
4.0,-262.0,-16.0,-41.0,10.0,-4.0,0
6.0,-262.0,-15.0,-40.0,11.0,-4.0,0
7.0,-262.0,-15.0,-38.0,13.0,-4.0,0
9.0,-267.0,-16.0,-36.0,12.0,-4.0,0
3.0,-261.0,-19.0,-36.0,13.0,-2.0,0
3.0,-262.0,-17.0,-37.0,13.0,-3.0,0
4.0,-261.0,-16.0,-37.0,12.0,-4.0,0
4.0,-262.0,-16.0,-39.0,13.0,-4.0,0
7.0,-260.0,-14.0,-41.0,12.0,-4.0,0
2.0,-261.0,-15.0,-44.0,12.0,-4.0,0
1.0,-261.0,-12.0,-43.0,11.0,-2.0,0
4.0,-263.0,-15.0,-42.0,9.0,-2.0,0
1.0,-259.0,-16.0,-41.0,8.0,-2.0,0
4.0,-262.0,-15.0,-38.0,8.0,-3.0,0
3.0,-265.0,-16.0,-38.0,6.0,-2.0,0
3.0,-260.0,-14.0,-40.0,4.0,-3.0,0
2.0,-262.0,-18.0,-38.0,5.0,-3.0,0
0.0,-259.0,-20.0,-40.0,6.0,-4.0,0
5.0,-262.0,-12.0,-40.0,6.0,-4.0,0
5.0,-261.0,-15.0,-40.0,6.0,-4.0,0
6.0,-263.0,-22.0,-39.0,5.0,-5.0,0
3.0,-261.0,-19.0,-38.0,5.0,-4.0,0
-1.0,-259.0,-17.0,-38.0,4.0,-4.0,0
1.0,-258.0,-14.0,-40.0,2.0,-4.0,0
10.0,-259.0,-18.0,-41.0,1.0,-4.0,0
3.0,-261.0,-13.0,-42.0,1.0,-3.0,0
8.0,-263.0,-15.0,-43.0,1.0,-4.0,0
8.0,-261.0,-14.0,-43.0,1.0,-3.0,0
4.0,-258.0,-14.0,-44.0,0.0,-4.0,0
5.0,-262.0,-17.0,-45.0,-1.0,-4.0,0
8.0,-265.0,-19.0,-44.0,1.0,-4.0,0
2.0,-261.0,-18.0,-46.0,1.0,-4.0,0
6.0,-262.0,-18.0,-45.0,4.0,-5.0,0
5.0,-260.0,-13.0,-43.0,4.0,-5.0,0
4.0,-261.0,-15.0,-43.0,5.0,-5.0,0
6.0,-262.0,-27.0,-45.0,5.0,-5.0,0
7.0,-262.0,-17.0,-45.0,6.0,-7.0,0
7.0,-262.0,-16.0,-44.0,7.0,-7.0,0
7.0,-259.0,-18.0,-45.0,7.0,-6.0,0
4.0,-261.0,-18.0,-46.0,7.0,-8.0,0
7.0,-262.0,-19.0,-46.0,7.0,-6.0,0
5.0,-258.0,-18.0,-47.0,8.0,-5.0,0
2.0,-260.0,-16.0,-47.0,9.0,-7.0,0
4.0,-260.0,-17.0,-48.0,8.0,-6.0,0
2.0,-260.0,-18.0,-48.0,10.0,-6.0,0
4.0,-259.0,-15.0,-47.0,10.0,-8.0,0
-2.0,-258.0,-13.0,-44.0,10.0,-6.0,0
3.0,-263.0,-28.0,-40.0,11.0,-8.0,0
3.0,-251.0,-27.0,-38.0,10.0,-10.0,0
0.0,-259.0,-14.0,-38.0,11.0,-12.0,0
10.0,-257.0,-18.0,-41.0,11.0,-11.0,0
7.0,-264.0,-16.0,-47.0,13.0,-11.0,0
4.0,-261.0,-21.0,-52.0,19.0,-12.0,0
5.0,-260.0,-1.0,-55.0,20.0,-11.0,0
2.0,-265.0,-24.0,-57.0,22.0,-9.0,0
0.0,-259.0,-16.0,-55.0,22.0,-8.0,0
3.0,-261.0,-8.0,-52.0,21.0,-7.0,0
3.0,-259.0,-11.0,-49.0,20.0,-5.0,0
10.0,-266.0,-13.0,-46.0,18.0,-4.0,0
-3.0,-265.0,-18.0,-44.0,18.0,-4.0,0
2.0,-261.0,-12.0,-45.0,18.0,-4.0,0
-1.0,-264.0,-18.0,-46.0,19.0,-4.0,0
-3.0,-260.0,-26.0,-48.0,18.0,-4.0,0
6.0,-267.0,-9.0,-48.0,18.0,-4.0,0
1.0,-266.0,-10.0,-51.0,17.0,-6.0,0
9.0,-265.0,-26.0,-52.0,16.0,-6.0,0
3.0,-263.0,-20.0,-54.0,16.0,-6.0,0
-1.0,-271.0,-15.0,-56.0,15.0,-9.0,0
7.0,-259.0,-17.0,-55.0,15.0,-7.0,0
7.0,-260.0,-16.0,-53.0,15.0,-7.0,0
-10.0,-266.0,-17.0,-53.0,16.0,-9.0,0
5.0,-260.0,-11.0,-51.0,18.0,-10.0,0
-1.0,-278.0,-15.0,-48.0,17.0,-10.0,0
15.0,-261.0,-18.0,-46.0,17.0,-10.0,0
3.0,-263.0,-19.0,-46.0,16.0,-8.0,0
5.0,-262.0,-19.0,-46.0,16.0,-8.0,0
2.0,-262.0,-21.0,-47.0,15.0,-5.0,0
3.0,-261.0,-17.0,-48.0,12.0,-5.0,0
3.0,-261.0,-17.0,-50.0,11.0,-5.0,0
4.0,-262.0,-8.0,-51.0,10.0,-6.0,0
3.0,-260.0,-13.0,-52.0,8.0,-4.0,0
2.0,-259.0,-16.0,-51.0,7.0,-4.0,0
4.0,-259.0,-12.0,-51.0,7.0,-4.0,0
2.0,-257.0,-20.0,-51.0,8.0,-4.0,0
4.0,-263.0,-16.0,-51.0,8.0,-6.0,0
6.0,-259.0,-17.0,-53.0,8.0,-5.0,0
5.0,-261.0,-16.0,-56.0,7.0,-7.0,0
0.0,-260.0,-17.0,-56.0,7.0,-6.0,0
8.0,-263.0,-21.0,-57.0,8.0,-6.0,0
-1.0,-263.0,-12.0,-57.0,8.0,-7.0,0
2.0,-262.0,-18.0,-56.0,6.0,-7.0,0
2.0,-261.0,-17.0,-55.0,5.0,-6.0,0
3.0,-260.0,-16.0,-53.0,5.0,-5.0,0
10.0,-262.0,-22.0,-51.0,4.0,-5.0,0
5.0,-261.0,-16.0,-49.0,4.0,-7.0,0
2.0,-262.0,-18.0,-50.0,3.0,-7.0,0
8.0,-263.0,-19.0,-52.0,3.0,-7.0,0
5.0,-262.0,-19.0,-50.0,3.0,-6.0,0
5.0,-260.0,-21.0,-51.0,2.0,-5.0,0
9.0,-266.0,-10.0,-50.0,2.0,-6.0,0
4.0,-263.0,-18.0,-51.0,2.0,-6.0,0
5.0,-263.0,-15.0,-50.0,2.0,-6.0,0
3.0,-264.0,-15.0,-50.0,2.0,-6.0,0
6.0,-262.0,-17.0,-48.0,2.0,-7.0,0
5.0,-262.0,-16.0,-48.0,2.0,-6.0,0
1.0,-263.0,-17.0,-47.0,3.0,-5.0,0
4.0,-259.0,-16.0,-48.0,3.0,-4.0,0
5.0,-260.0,-14.0,-47.0,3.0,-4.0,0
0.0,-260.0,-18.0,-49.0,2.0,-5.0,0
2.0,-262.0,-15.0,-49.0,2.0,-4.0,0
7.0,-260.0,-11.0,-50.0,2.0,-3.0,0
3.0,-262.0,-16.0,-49.0,1.0,-3.0,0
5.0,-263.0,-18.0,-48.0,1.0,-5.0,0
4.0,-262.0,-17.0,-49.0,1.0,-5.0,0
4.0,-263.0,-20.0,-50.0,2.0,-4.0,0
1.0,-260.0,-18.0,-49.0,3.0,-3.0,0
6.0,-261.0,-15.0,-49.0,2.0,-4.0,0
6.0,-261.0,-15.0,-49.0,3.0,-4.0,0
4.0,-260.0,-15.0,-50.0,3.0,-3.0,0
4.0,-260.0,-16.0,-49.0,4.0,-1.0,0
5.0,-263.0,-18.0,-51.0,3.0,-2.0,0
4.0,-262.0,-18.0,-52.0,4.0,-2.0,0
1.0,-259.0,-17.0,-51.0,5.0,-1.0,0
2.0,-259.0,-19.0,-53.0,5.0,-1.0,0
5.0,-262.0,-21.0,-54.0,4.0,-1.0,0
6.0,-260.0,-20.0,-53.0,6.0,-2.0,0
5.0,-261.0,-18.0,-56.0,6.0,-2.0,0
5.0,-263.0,-19.0,-57.0,8.0,-2.0,0
5.0,-260.0,-22.0,-57.0,10.0,-2.0,0
7.0,-261.0,-16.0,-59.0,11.0,-3.0,0
6.0,-258.0,-13.0,-59.0,13.0,-4.0,0
4.0,-262.0,-16.0,-60.0,13.0,-3.0,0
6.0,-258.0,-15.0,-60.0,14.0,-4.0,0
3.0,-262.0,-18.0,-59.0,15.0,-5.0,0
4.0,-263.0,-17.0,-59.0,15.0,-6.0,0
4.0,-260.0,-17.0,-58.0,14.0,-3.0,0
7.0,-263.0,-16.0,-58.0,16.0,-5.0,0
3.0,-262.0,-19.0,-58.0,18.0,-5.0,0
4.0,-264.0,-18.0,-58.0,19.0,-3.0,0
3.0,-261.0,-17.0,-57.0,19.0,-4.0,0
3.0,-260.0,-18.0,-58.0,19.0,-4.0,0
3.0,-261.0,-19.0,-57.0,19.0,-4.0,0
3.0,-261.0,-19.0,-57.0,19.0,-4.0,0
5.0,-260.0,-17.0,-56.0,19.0,-4.0,0
2.0,-261.0,-19.0,-55.0,20.0,-5.0,0
5.0,-260.0,-17.0,-54.0,19.0,-5.0,0
6.0,-263.0,-19.0,-54.0,21.0,-6.0,0
4.0,-263.0,-20.0,-54.0,20.0,-7.0,0
4.0,-261.0,-18.0,-55.0,19.0,-7.0,0
4.0,-261.0,-18.0,-53.0,21.0,-7.0,0
4.0,-261.0,-15.0,-52.0,21.0,-8.0,0
2.0,-262.0,-20.0,-52.0,19.0,-8.0,0
4.0,-263.0,-13.0,-53.0,18.0,-6.0,0
4.0,-261.0,-19.0,-54.0,19.0,-6.0,0
1.0,-262.0,-20.0,-54.0,19.0,-5.0,0
7.0,-262.0,-20.0,-54.0,18.0,-5.0,0
5.0,-261.0,-19.0,-54.0,16.0,-5.0,0
5.0,-263.0,-20.0,-53.0,17.0,-6.0,0
4.0,-261.0,-13.0,-53.0,15.0,-4.0,0
6.0,-262.0,-20.0,-52.0,16.0,-6.0,0
6.0,-262.0,-19.0,-51.0,14.0,-5.0,0
4.0,-262.0,-17.0,-50.0,14.0,-5.0,0
2.0,-258.0,-24.0,-47.0,15.0,-7.0,0
5.0,-261.0,-12.0,-46.0,15.0,-7.0,0
6.0,-264.0,-18.0,-45.0,16.0,-7.0,0
5.0,-260.0,-19.0,-44.0,16.0,-7.0,0
4.0,-261.0,-18.0,-44.0,18.0,-9.0,0
5.0,-263.0,-18.0,-43.0,17.0,-8.0,0
5.0,-262.0,-21.0,-43.0,17.0,-6.0,0
5.0,-260.0,-20.0,-42.0,17.0,-6.0,0
7.0,-259.0,-18.0,-41.0,16.0,-6.0,0
5.0,-258.0,-16.0,-40.0,15.0,-4.0,0
5.0,-259.0,-21.0,-40.0,17.0,-5.0,0
7.0,-262.0,-17.0,-39.0,18.0,-5.0,0
0.0,-261.0,-23.0,-42.0,17.0,-5.0,0
4.0,-262.0,-16.0,-42.0,19.0,-5.0,0
5.0,-261.0,-14.0,-40.0,18.0,-5.0,0
3.0,-261.0,-17.0,-42.0,18.0,-3.0,0
4.0,-258.0,-20.0,-42.0,20.0,-3.0,0
4.0,-262.0,-19.0,-44.0,20.0,-4.0,0
2.0,-258.0,-18.0,-45.0,21.0,-4.0,0
5.0,-263.0,-16.0,-47.0,22.0,-5.0,0
3.0,-263.0,-17.0,-51.0,24.0,-5.0,0
2.0,-259.0,-15.0,-52.0,24.0,-5.0,0
1.0,-258.0,-17.0,-51.0,26.0,-6.0,0
3.0,-262.0,-16.0,-49.0,28.0,-6.0,0
6.0,-263.0,-17.0,-43.0,27.0,-9.0,0
4.0,-261.0,-16.0,-38.0,27.0,-8.0,0
6.0,-261.0,-18.0,-38.0,27.0,-9.0,0
5.0,-261.0,-19.0,-38.0,30.0,-11.0,0
5.0,-258.0,-15.0,-40.0,33.0,-11.0,0
3.0,-259.0,-20.0,-42.0,39.0,-12.0,0
6.0,-260.0,-19.0,-43.0,41.0,-11.0,0
2.0,-262.0,-18.0,-43.0,43.0,-12.0,0
7.0,-262.0,-16.0,-43.0,46.0,-11.0,0
9.0,-263.0,-15.0,-38.0,47.0,-10.0,0
6.0,-263.0,-13.0,-32.0,45.0,-10.0,0
3.0,-261.0,-15.0,-31.0,45.0,-9.0,0
6.0,-260.0,-16.0,-30.0,45.0,-9.0,0
7.0,-262.0,-14.0,-29.0,46.0,-7.0,0
2.0,-261.0,-14.0,-28.0,45.0,-8.0,0
7.0,-261.0,-20.0,-31.0,45.0,-7.0,0
4.0,-260.0,-18.0,-30.0,44.0,-6.0,0
5.0,-258.0,-16.0,-33.0,43.0,-7.0,0
3.0,-260.0,-16.0,-36.0,43.0,-7.0,0
6.0,-261.0,-16.0,-41.0,42.0,-7.0,0
7.0,-268.0,-18.0,-43.0,42.0,-8.0,0
5.0,-262.0,-16.0,-44.0,42.0,-7.0,0
5.0,-261.0,-19.0,-47.0,43.0,-8.0,0
3.0,-261.0,-18.0,-46.0,43.0,-8.0,0
8.0,-262.0,-19.0,-46.0,44.0,-9.0,0
3.0,-260.0,-17.0,-46.0,45.0,-8.0,0
4.0,-260.0,-19.0,-46.0,43.0,-8.0,0
-2.0,-259.0,-17.0,-47.0,43.0,-7.0,0
2.0,-261.0,-18.0,-47.0,42.0,-8.0,0
3.0,-262.0,-20.0,-47.0,41.0,-8.0,0
6.0,-260.0,-21.0,-48.0,41.0,-9.0,0
5.0,-261.0,-14.0,-48.0,39.0,-9.0,0
5.0,-264.0,-16.0,-50.0,38.0,-10.0,0
3.0,-262.0,-17.0,-49.0,38.0,-11.0,0
3.0,-262.0,-19.0,-46.0,39.0,-10.0,0
2.0,-259.0,-17.0,-47.0,37.0,-10.0,0
1.0,-259.0,-19.0,-47.0,36.0,-11.0,0
4.0,-261.0,-15.0,-48.0,35.0,-12.0,0
7.0,-259.0,-14.0,-48.0,34.0,-10.0,0
4.0,-259.0,-16.0,-51.0,32.0,-11.0,0
