ax,ay,az,gx,gy,gz,label
26.0,-247.0,44.0,-72.0,16.0,-9.0,0
26.0,-248.0,46.0,-76.0,13.0,-7.0,0
30.0,-250.0,45.0,-80.0,15.0,-6.0,0
26.0,-250.0,46.0,-83.0,15.0,-7.0,0
32.0,-251.0,44.0,-86.0,18.0,-6.0,0
21.0,-246.0,41.0,-87.0,20.0,-5.0,0
25.0,-247.0,45.0,-90.0,20.0,-5.0,0
24.0,-247.0,48.0,-87.0,20.0,-3.0,0
25.0,-246.0,45.0,-87.0,19.0,-3.0,0
28.0,-250.0,42.0,-85.0,17.0,-3.0,0
26.0,-247.0,45.0,-84.0,16.0,-4.0,0
29.0,-248.0,46.0,-82.0,14.0,-6.0,0
27.0,-245.0,43.0,-81.0,9.0,-7.0,0
29.0,-244.0,44.0,-82.0,7.0,-6.0,0
27.0,-246.0,47.0,-80.0,6.0,-7.0,0
26.0,-245.0,41.0,-78.0,5.0,-7.0,0
26.0,-247.0,44.0,-77.0,8.0,-7.0,0
26.0,-246.0,40.0,-76.0,10.0,-6.0,0
27.0,-250.0,45.0,-74.0,14.0,-5.0,0
28.0,-248.0,42.0,-75.0,17.0,-5.0,0
27.0,-241.0,42.0,-74.0,21.0,-6.0,0
23.0,-245.0,43.0,-76.0,22.0,-6.0,0
23.0,-245.0,42.0,-81.0,23.0,-7.0,0
27.0,-246.0,47.0,-86.0,22.0,-9.0,0
28.0,-247.0,46.0,-93.0,18.0,-7.0,0
28.0,-246.0,40.0,-98.0,12.0,-8.0,0
24.0,-245.0,47.0,-99.0,9.0,-7.0,0
28.0,-250.0,42.0,-101.0,7.0,-7.0,0
29.0,-247.0,44.0,-96.0,9.0,-6.0,0
28.0,-248.0,41.0,-92.0,11.0,-8.0,0
26.0,-247.0,42.0,-90.0,11.0,-7.0,0
27.0,-248.0,45.0,-89.0,14.0,-6.0,0
26.0,-250.0,45.0,-87.0,17.0,-5.0,0
27.0,-249.0,46.0,-85.0,19.0,-4.0,0
27.0,-250.0,44.0,-82.0,21.0,-5.0,0
27.0,-252.0,42.0,-80.0,25.0,-4.0,0
28.0,-250.0,41.0,-76.0,27.0,-3.0,0
26.0,-248.0,40.0,-75.0,29.0,-4.0,0
27.0,-248.0,41.0,-74.0,28.0,-4.0,0
25.0,-247.0,45.0,-75.0,26.0,-3.0,0
27.0,-244.0,43.0,-76.0,28.0,-3.0,0
32.0,-247.0,43.0,-78.0,28.0,1.0,0
30.0,-248.0,44.0,-80.0,29.0,1.0,0
29.0,-249.0,42.0,-84.0,27.0,1.0,0
27.0,-248.0,44.0,-84.0,27.0,1.0,0
29.0,-250.0,42.0,-85.0,25.0,0.0,0
28.0,-249.0,43.0,-86.0,27.0,0.0,0
28.0,-247.0,43.0,-85.0,28.0,0.0,0
28.0,-248.0,38.0,-84.0,31.0,2.0,0
28.0,-247.0,40.0,-83.0,33.0,3.0,0
25.0,-248.0,41.0,-85.0,33.0,4.0,0
27.0,-252.0,40.0,-86.0,36.0,5.0,0
25.0,-249.0,39.0,-87.0,38.0,3.0,0
28.0,-246.0,40.0,-86.0,40.0,3.0,0
28.0,-248.0,38.0,-85.0,42.0,5.0,0
26.0,-246.0,35.0,-84.0,44.0,6.0,0
27.0,-249.0,41.0,-85.0,45.0,5.0,0
27.0,-247.0,39.0,-85.0,44.0,1.0,0
25.0,-246.0,41.0,-86.0,41.0,-1.0,0
27.0,-246.0,38.0,-88.0,37.0,-2.0,0
28.0,-249.0,39.0,-88.0,36.0,-4.0,0
27.0,-246.0,39.0,-87.0,37.0,-9.0,0
26.0,-244.0,41.0,-88.0,40.0,-7.0,0
26.0,-243.0,34.0,-88.0,42.0,-5.0,0
26.0,-249.0,40.0,-92.0,46.0,-7.0,0
27.0,-249.0,42.0,-95.0,46.0,-9.0,0
26.0,-247.0,40.0,-100.0,45.0,-8.0,0
26.0,-248.0,42.0,-106.0,41.0,-8.0,0
23.0,-248.0,40.0,-113.0,42.0,-4.0,0
25.0,-256.0,47.0,-124.0,42.0,-13.0,0
32.0,-249.0,37.0,-128.0,43.0,-19.0,0
25.0,-240.0,45.0,-111.0,31.0,-20.0,0
22.0,-239.0,43.0,-97.0,22.0,-14.0,0
25.0,-238.0,39.0,-90.0,25.0,-3.0,0
27.0,-243.0,34.0,-99.0,34.0,2.0,0
31.0,-247.0,40.0,-116.0,43.0,1.0,0
30.0,-248.0,36.0,-131.0,36.0,-5.0,0
31.0,-248.0,46.0,-136.0,25.0,-11.0,0
26.0,-249.0,42.0,-138.0,22.0,-19.0,0
23.0,-243.0,48.0,-135.0,19.0,-14.0,0
23.0,-237.0,48.0,-132.0,17.0,-4.0,0
24.0,-236.0,43.0,-131.0,22.0,8.0,0
27.0,-237.0,43.0,-133.0,33.0,16.0,0
30.0,-241.0,39.0,-144.0,43.0,16.0,0
34.0,-245.0,45.0,-156.0,40.0,11.0,0
30.0,-247.0,45.0,-167.0,27.0,6.0,0
28.0,-243.0,46.0,-168.0,12.0,3.0,0
26.0,-245.0,50.0,-165.0,7.0,3.0,0
27.0,-249.0,46.0,-159.0,8.0,5.0,0
27.0,-248.0,46.0,-158.0,10.0,5.0,0
28.0,-250.0,47.0,-159.0,9.0,4.0,0
28.0,-251.0,45.0,-162.0,7.0,3.0,0
28.0,-253.0,40.0,-164.0,5.0,2.0,0
26.0,-252.0,40.0,-161.0,4.0,3.0,0
26.0,-250.0,38.0,-155.0,4.0,1.0,0
27.0,-254.0,38.0,-149.0,10.0,1.0,0
26.0,-253.0,39.0,-143.0,14.0,1.0,0
25.0,-251.0,37.0,-136.0,17.0,1.0,0
26.0,-252.0,35.0,-130.0,19.0,2.0,0
25.0,-252.0,35.0,-128.0,16.0,2.0,0
25.0,-252.0,35.0,-123.0,14.0,2.0,0
24.0,-251.0,36.0,-120.0,14.0,4.0,0
27.0,-252.0,33.0,-118.0,14.0,5.0,0
25.0,-251.0,33.0,-116.0,19.0,2.0,0
20.0,-252.0,31.0,-116.0,24.0,1.0,0
22.0,-252.0,32.0,-113.0,26.0,0.0,0
23.0,-254.0,33.0,-107.0,27.0,1.0,0
23.0,-255.0,26.0,-100.0,24.0,2.0,0
23.0,-252.0,30.0,-97.0,22.0,0.0,0
25.0,-255.0,29.0,-93.0,21.0,2.0,0
22.0,-251.0,31.0,-88.0,21.0,5.0,0
21.0,-253.0,27.0,-84.0,18.0,6.0,0
21.0,-255.0,27.0,-79.0,9.0,9.0,0
20.0,-253.0,23.0,-71.0,3.0,14.0,0
16.0,-254.0,27.0,-60.0,-5.0,19.0,0
18.0,-255.0,23.0,-50.0,-11.0,25.0,0
17.0,-251.0,26.0,-39.0,-13.0,25.0,0
20.0,-252.0,25.0,-23.0,-13.0,26.0,0
18.0,-251.0,26.0,-5.0,-13.0,27.0,0
22.0,-252.0,31.0,14.0,-20.0,31.0,0
23.0,-250.0,27.0,30.0,-30.0,28.0,0
20.0,-253.0,30.0,42.0,-41.0,27.0,0
20.0,-251.0,29.0,46.0,-50.0,25.0,0
25.0,-254.0,28.0,47.0,-61.0,28.0,0
20.0,-255.0,32.0,45.0,-63.0,30.0,0
21.0,-255.0,28.0,40.0,-61.0,32.0,0
20.0,-255.0,28.0,31.0,-55.0,36.0,0
24.0,-258.0,29.0,18.0,-49.0,37.0,0
23.0,-256.0,30.0,1.0,-44.0,35.0,0
27.0,-255.0,31.0,-18.0,-44.0,27.0,0
25.0,-253.0,31.0,-32.0,-42.0,20.0,0
28.0,-252.0,34.0,-46.0,-41.0,13.0,0
26.0,-250.0,32.0,-62.0,-42.0,7.0,0
30.0,-249.0,32.0,-75.0,-37.0,0.0,0
29.0,-245.0,38.0,-82.0,-29.0,-4.0,0
33.0,-249.0,36.0,-88.0,-19.0,-7.0,0
27.0,-248.0,37.0,-89.0,-11.0,-11.0,0
30.0,-246.0,37.0,-91.0,-7.0,-12.0,0
32.0,-246.0,36.0,-91.0,-4.0,-12.0,0
29.0,-248.0,35.0,-89.0,-4.0,-12.0,0
31.0,-249.0,40.0,-87.0,-1.0,-12.0,0
30.0,-248.0,37.0,-87.0,-1.0,-10.0,0
27.0,-249.0,37.0,-86.0,1.0,-9.0,0
29.0,-252.0,36.0,-84.0,4.0,-9.0,0
25.0,-252.0,33.0,-85.0,7.0,-8.0,0
28.0,-254.0,41.0,-93.0,19.0,-2.0,0
27.0,-249.0,43.0,-90.0,26.0,-7.0,0
23.0,-250.0,39.0,-81.0,24.0,-10.0,0
25.0,-252.0,38.0,-77.0,19.0,-8.0,0
21.0,-253.0,35.0,-80.0,21.0,-2.0,0
23.0,-252.0,37.0,-89.0,30.0,2.0,0
23.0,-249.0,40.0,-87.0,32.0,0.0,0
23.0,-252.0,34.0,-79.0,24.0,-3.0,0
28.0,-251.0,35.0,-73.0,12.0,-4.0,0
27.0,-255.0,31.0,-73.0,9.0,-2.0,0
27.0,-252.0,39.0,-73.0,13.0,1.0,0
29.0,-251.0,40.0,-65.0,13.0,-2.0,0
27.0,-255.0,39.0,-54.0,8.0,-5.0,0
30.0,-251.0,37.0,-48.0,4.0,-11.0,0
28.0,-247.0,36.0,-42.0,2.0,-10.0,0
29.0,-252.0,34.0,-41.0,4.0,-7.0,0
32.0,-251.0,31.0,-42.0,9.0,-7.0,0
30.0,-252.0,35.0,-42.0,15.0,-6.0,0
29.0,-247.0,34.0,-42.0,18.0,-5.0,0
30.0,-250.0,34.0,-42.0,21.0,0.0,0
30.0,-252.0,34.0,-40.0,25.0,-1.0,0
29.0,-251.0,35.0,-37.0,28.0,-1.0,0
25.0,-249.0,34.0,-39.0,30.0,-1.0,0
27.0,-253.0,33.0,-40.0,27.0,-1.0,0
30.0,-253.0,33.0,-44.0,26.0,-3.0,0
31.0,-254.0,33.0,-47.0,24.0,-2.0,0
29.0,-251.0,33.0,-47.0,25.0,-2.0,0
31.0,-251.0,35.0,-47.0,26.0,0.0,0
30.0,-254.0,35.0,-46.0,29.0,0.0,0
29.0,-252.0,30.0,-45.0,33.0,0.0,0
29.0,-252.0,28.0,-42.0,37.0,-2.0,0
27.0,-249.0,27.0,-39.0,39.0,-2.0,0
26.0,-249.0,32.0,-38.0,41.0,-2.0,0
30.0,-253.0,30.0,-37.0,42.0,-2.0,0
29.0,-251.0,31.0,-37.0,41.0,-3.0,0
36.0,-260.0,24.0,-41.0,38.0,-7.0,0
32.0,-261.0,30.0,-57.0,34.0,-29.0,0
24.0,-247.0,34.0,-57.0,21.0,-28.0,0
24.0,-240.0,33.0,-42.0,10.0,-10.0,0
25.0,-239.0,30.0,-21.0,17.0,10.0,0
31.0,-246.0,25.0,-16.0,42.0,12.0,0
30.0,-254.0,29.0,-26.0,52.0,1.0,0
28.0,-254.0,38.0,-42.0,40.0,-13.0,0
25.0,-257.0,35.0,-49.0,27.0,-19.0,0
27.0,-253.0,31.0,-41.0,22.0,-19.0,0
27.0,-251.0,37.0,-31.0,28.0,-13.0,0
27.0,-251.0,34.0,-26.0,37.0,-10.0,0
28.0,-250.0,36.0,-33.0,38.0,-13.0,0
29.0,-255.0,37.0,-40.0,36.0,-19.0,0
32.0,-262.0,32.0,-47.0,37.0,-28.0,0
26.0,-252.0,39.0,-54.0,36.0,-45.0,0
19.0,-246.0,42.0,-48.0,28.0,-44.0,0
15.0,-236.0,35.0,-30.0,20.0,-32.0,0
23.0,-241.0,31.0,-12.0,28.0,-11.0,0
30.0,-246.0,30.0,-12.0,49.0,-5.0,0
27.0,-262.0,50.0,-23.0,62.0,-9.0,0
30.0,-256.0,38.0,-39.0,58.0,-20.0,0
23.0,-251.0,32.0,-43.0,49.0,-27.0,0
25.0,-249.0,37.0,-34.0,42.0,-26.0,0
24.0,-249.0,38.0,-24.0,39.0,-24.0,0
21.0,-248.0,33.0,-20.0,38.0,-20.0,0
24.0,-252.0,42.0,-23.0,36.0,-22.0,0
23.0,-251.0,34.0,-25.0,33.0,-21.0,0
25.0,-251.0,36.0,-28.0,33.0,-23.0,0
24.0,-248.0,35.0,-28.0,32.0,-22.0,0
18.0,-241.0,30.0,-27.0,35.0,-19.0,0
23.0,-246.0,38.0,-26.0,38.0,-19.0,0
22.0,-249.0,34.0,-29.0,37.0,-20.0,0
21.0,-252.0,35.0,-35.0,43.0,-19.0,0
24.0,-252.0,41.0,-41.0,49.0,-18.0,0
26.0,-249.0,41.0,-42.0,52.0,-20.0,0
28.0,-245.0,39.0,-33.0,46.0,-23.0,0
25.0,-248.0,33.0,-25.0,37.0,-27.0,0
20.0,-249.0,35.0,-22.0,37.0,-27.0,0
23.0,-249.0,36.0,-28.0,46.0,-20.0,0
23.0,-248.0,39.0,-30.0,54.0,-19.0,0
20.0,-244.0,24.0,-32.0,57.0,-18.0,0
25.0,-249.0,34.0,-32.0,55.0,-19.0,0
24.0,-251.0,35.0,-29.0,50.0,-19.0,0
24.0,-252.0,34.0,-32.0,48.0,-18.0,0
23.0,-249.0,39.0,-31.0,43.0,-19.0,0
26.0,-253.0,41.0,-32.0,40.0,-21.0,0
26.0,-252.0,33.0,-33.0,37.0,-23.0,0
25.0,-249.0,41.0,-35.0,35.0,-23.0,0
28.0,-250.0,37.0,-37.0,36.0,-22.0,0
26.0,-249.0,34.0,-37.0,36.0,-23.0,0
22.0,-248.0,33.0,-41.0,36.0,-20.0,0
37.0,-245.0,35.0,-43.0,37.0,-20.0,0
25.0,-248.0,39.0,-45.0,36.0,-18.0,0
29.0,-249.0,35.0,-44.0,33.0,-16.0,0
23.0,-248.0,34.0,-45.0,32.0,-14.0,0
27.0,-252.0,36.0,-44.0,30.0,-16.0,0
27.0,-250.0,37.0,-45.0,30.0,-17.0,0
31.0,-256.0,34.0,-47.0,30.0,-15.0,0
19.0,-243.0,36.0,-54.0,36.0,-19.0,0
27.0,-244.0,38.0,-52.0,35.0,-14.0,0
29.0,-246.0,31.0,-44.0,19.0,-18.0,0
30.0,-245.0,34.0,-38.0,14.0,-20.0,0
28.0,-252.0,25.0,-37.0,14.0,-17.0,0
24.0,-256.0,33.0,-47.0,20.0,-16.0,0
29.0,-256.0,40.0,-59.0,32.0,-14.0,0
25.0,-253.0,36.0,-61.0,38.0,-13.0,0
30.0,-250.0,38.0,-64.0,41.0,-8.0,0
30.0,-247.0,38.0,-59.0,41.0,-10.0,0
29.0,-249.0,33.0,-49.0,35.0,-10.0,0
26.0,-249.0,32.0,-43.0,31.0,-9.0,0
25.0,-247.0,32.0,-45.0,33.0,-9.0,0
28.0,-247.0,36.0,-42.0,30.0,-10.0,0
30.0,-253.0,34.0,-38.0,23.0,-11.0,0
27.0,-252.0,37.0,-38.0,14.0,-9.0,0
30.0,-250.0,36.0,-44.0,17.0,-5.0,0
27.0,-252.0,37.0,-46.0,18.0,-4.0,0
28.0,-253.0,38.0,-51.0,19.0,-3.0,0
26.0,-251.0,37.0,-55.0,22.0,-5.0,0
29.0,-252.0,35.0,-54.0,21.0,-6.0,0
28.0,-252.0,39.0,-51.0,12.0,-7.0,0
26.0,-248.0,32.0,-41.0,-2.0,-11.0,0
26.0,-250.0,32.0,-36.0,-12.0,-9.0,0
23.0,-253.0,31.0,-39.0,-3.0,-4.0,0
24.0,-254.0,34.0,-47.0,19.0,2.0,0
25.0,-255.0,37.0,-53.0,33.0,5.0,0
27.0,-252.0,37.0,-48.0,33.0,7.0,0
28.0,-248.0,37.0,-36.0,22.0,6.0,0
27.0,-251.0,33.0,-27.0,16.0,5.0,0
25.0,-251.0,33.0,-23.0,15.0,1.0,0
26.0,-252.0,34.0,-23.0,16.0,-2.0,0
27.0,-251.0,36.0,-22.0,15.0,-2.0,0
28.0,-254.0,39.0,-20.0,11.0,-4.0,0
26.0,-251.0,36.0,-17.0,7.0,-5.0,0
26.0,-252.0,38.0,-19.0,6.0,-5.0,0
22.0,-248.0,36.0,-18.0,5.0,-5.0,0
24.0,-251.0,30.0,-16.0,6.0,-6.0,0
24.0,-250.0,38.0,-16.0,7.0,-6.0,0
26.0,-249.0,38.0,-18.0,7.0,-6.0,0
26.0,-247.0,36.0,-21.0,9.0,-5.0,0
24.0,-247.0,36.0,-19.0,9.0,-4.0,0
23.0,-249.0,38.0,-21.0,8.0,0.0,0
25.0,-248.0,35.0,-17.0,8.0,0.0,0
25.0,-250.0,36.0,-15.0,8.0,0.0,0
26.0,-250.0,37.0,-16.0,7.0,2.0,0
26.0,-250.0,37.0,-18.0,6.0,4.0,0
26.0,-249.0,40.0,-21.0,4.0,4.0,0
26.0,-249.0,40.0,-23.0,2.0,3.0,0
27.0,-250.0,35.0,-22.0,-2.0,0.0,0
25.0,-248.0,37.0,-22.0,-6.0,-3.0,0
25.0,-247.0,34.0,-23.0,-9.0,-1.0,0
27.0,-247.0,33.0,-28.0,-4.0,-2.0,0
26.0,-250.0,39.0,-30.0,2.0,-1.0,0
22.0,-251.0,39.0,-34.0,4.0,0.0,0
26.0,-251.0,32.0,-35.0,7.0,-1.0,0
25.0,-248.0,37.0,-34.0,6.0,-1.0,0
30.0,-252.0,38.0,-32.0,4.0,-1.0,0
26.0,-249.0,38.0,-30.0,-1.0,-2.0,0
27.0,-251.0,36.0,-29.0,-3.0,0.0,0
23.0,-250.0,40.0,-32.0,-3.0,-1.0,0
25.0,-249.0,36.0,-31.0,-3.0,-1.0,0
25.0,-248.0,35.0,-31.0,-6.0,1.0,0
29.0,-250.0,37.0,-32.0,-7.0,1.0,0
28.0,-251.0,34.0,-34.0,-8.0,2.0,0
26.0,-248.0,38.0,-35.0,-8.0,3.0,0
22.0,-249.0,39.0,-38.0,-6.0,3.0,0
23.0,-249.0,37.0,-36.0,-7.0,2.0,0
27.0,-248.0,37.0,-38.0,-6.0,3.0,0
27.0,-250.0,35.0,-37.0,-6.0,2.0,0
25.0,-250.0,35.0,-38.0,-3.0,0.0,0
25.0,-246.0,35.0,-40.0,-3.0,2.0,0
29.0,-252.0,33.0,-40.0,0.0,3.0,0
26.0,-250.0,38.0,-43.0,6.0,1.0,0
29.0,-254.0,37.0,-45.0,7.0,1.0,0
27.0,-251.0,34.0,-48.0,7.0,-1.0,0
25.0,-250.0,39.0,-48.0,8.0,0.0,0
27.0,-251.0,37.0,-46.0,5.0,-1.0,0
30.0,-249.0,36.0,-44.0,6.0,-1.0,0
27.0,-250.0,37.0,-43.0,6.0,-2.0,0
25.0,-250.0,39.0,-38.0,5.0,-1.0,0
27.0,-248.0,36.0,-37.0,5.0,-1.0,0
26.0,-246.0,33.0,-39.0,5.0,0.0,0
30.0,-251.0,38.0,-41.0,5.0,0.0,0
24.0,-248.0,35.0,-44.0,6.0,0.0,0
26.0,-250.0,42.0,-43.0,7.0,0.0,0
26.0,-248.0,36.0,-44.0,8.0,-1.0,0
27.0,-250.0,35.0,-42.0,11.0,-1.0,0
24.0,-250.0,39.0,-41.0,12.0,-2.0,0
28.0,-250.0,43.0,-40.0,13.0,-3.0,0
28.0,-250.0,41.0,-38.0,15.0,-3.0,0
25.0,-247.0,37.0,-38.0,16.0,-1.0,0
27.0,-249.0,40.0,-38.0,15.0,-2.0,0
28.0,-252.0,36.0,-39.0,15.0,-2.0,0
27.0,-251.0,42.0,-39.0,14.0,-4.0,0
27.0,-249.0,42.0,-40.0,13.0,-5.0,0
29.0,-250.0,39.0,-43.0,13.0,-5.0,0
24.0,-250.0,40.0,-44.0,15.0,-7.0,0
24.0,-249.0,40.0,-48.0,17.0,-6.0,0
28.0,-252.0,36.0,-50.0,16.0,-7.0,0
28.0,-251.0,37.0,-46.0,10.0,-9.0,0
30.0,-252.0,36.0,-44.0,7.0,-9.0,0
27.0,-248.0,38.0,-44.0,10.0,-9.0,0
27.0,-249.0,37.0,-45.0,14.0,-9.0,0
27.0,-251.0,36.0,-44.0,18.0,-8.0,0
26.0,-248.0,37.0,-44.0,20.0,-8.0,0
25.0,-253.0,40.0,-50.0,30.0,-3.0,0
24.0,-245.0,39.0,-52.0,37.0,-7.0,0
22.0,-248.0,36.0,-39.0,21.0,-11.0,0
29.0,-250.0,34.0,-36.0,12.0,-8.0,0
30.0,-250.0,37.0,-40.0,16.0,-8.0,0
27.0,-250.0,38.0,-46.0,27.0,-6.0,0
27.0,-251.0,38.0,-50.0,32.0,-6.0,0
30.0,-250.0,37.0,-51.0,23.0,-8.0,0
26.0,-251.0,37.0,-52.0,14.0,-9.0,0
27.0,-248.0,35.0,-53.0,13.0,-11.0,0
29.0,-250.0,38.0,-50.0,8.0,-14.0,0
28.0,-249.0,36.0,-48.0,5.0,-14.0,0
29.0,-251.0,33.0,-51.0,9.0,-15.0,0
27.0,-251.0,35.0,-54.0,15.0,-13.0,0
28.0,-250.0,33.0,-55.0,14.0,-15.0,0
25.0,-248.0,34.0,-52.0,9.0,-15.0,0
25.0,-250.0,38.0,-50.0,9.0,-16.0,0
27.0,-249.0,37.0,-52.0,14.0,-15.0,0
26.0,-248.0,36.0,-55.0,17.0,-13.0,0
28.0,-256.0,37.0,-55.0,18.0,-13.0,0
24.0,-251.0,38.0,-53.0,18.0,-11.0,0
27.0,-247.0,38.0,-51.0,18.0,-11.0,0
24.0,-251.0,35.0,-49.0,19.0,-10.0,0
29.0,-250.0,39.0,-48.0,18.0,-11.0,0
27.0,-249.0,35.0,-47.0,18.0,-10.0,0
23.0,-248.0,35.0,-48.0,18.0,-10.0,0
24.0,-249.0,38.0,-47.0,17.0,-8.0,0
28.0,-248.0,33.0,-48.0,17.0,-8.0,0
26.0,-248.0,34.0,-48.0,16.0,-6.0,0
27.0,-252.0,37.0,-49.0,18.0,-5.0,0
24.0,-248.0,39.0,-49.0,17.0,-5.0,0
28.0,-253.0,37.0,-50.0,20.0,-5.0,0
29.0,-251.0,40.0,-51.0,23.0,-5.0,0
24.0,-251.0,38.0,-53.0,23.0,-5.0,0
28.0,-250.0,35.0,-54.0,22.0,-5.0,0
25.0,-251.0,39.0,-55.0,19.0,-6.0,0
24.0,-249.0,40.0,-53.0,19.0,-5.0,0
26.0,-251.0,39.0,-54.0,20.0,-3.0,0
26.0,-252.0,38.0,-54.0,19.0,-1.0,0
26.0,-250.0,35.0,-56.0,20.0,-2.0,0
28.0,-250.0,38.0,-57.0,18.0,-2.0,0
26.0,-252.0,35.0,-56.0,15.0,-2.0,0
27.0,-252.0,36.0,-54.0,13.0,-1.0,0
27.0,-251.0,35.0,-53.0,14.0,0.0,0
28.0,-250.0,36.0,-51.0,15.0,-1.0,0
27.0,-251.0,33.0,-49.0,15.0,-1.0,0
26.0,-248.0,37.0,-48.0,16.0,-1.0,0
27.0,-252.0,35.0,-46.0,16.0,-1.0,0
27.0,-250.0,39.0,-44.0,16.0,-1.0,0
27.0,-251.0,39.0,-41.0,16.0,-2.0,0
27.0,-252.0,37.0,-41.0,15.0,-1.0,0
25.0,-249.0,36.0,-39.0,16.0,0.0,0
26.0,-248.0,39.0,-39.0,14.0,-1.0,0
29.0,-251.0,38.0,-39.0,11.0,0.0,0
28.0,-249.0,38.0,-40.0,9.0,-1.0,0
25.0,-249.0,41.0,-42.0,9.0,-1.0,0
25.0,-250.0,37.0,-45.0,9.0,-1.0,0
25.0,-247.0,39.0,-44.0,6.0,-1.0,0
27.0,-247.0,37.0,-45.0,7.0,1.0,0
26.0,-249.0,38.0,-47.0,7.0,1.0,0
25.0,-245.0,38.0,-46.0,8.0,3.0,0
26.0,-248.0,38.0,-46.0,8.0,3.0,0
27.0,-250.0,39.0,-45.0,9.0,5.0,0
26.0,-250.0,36.0,-44.0,11.0,6.0,0
27.0,-250.0,37.0,-41.0,11.0,8.0,0
25.0,-249.0,36.0,-42.0,9.0,8.0,0
26.0,-248.0,33.0,-42.0,8.0,9.0,0
26.0,-250.0,36.0,-42.0,10.0,10.0,0
28.0,-248.0,37.0,-40.0,10.0,8.0,0
26.0,-252.0,31.0,-42.0,11.0,6.0,0
30.0,-251.0,35.0,-42.0,11.0,4.0,0
25.0,-250.0,33.0,-44.0,8.0,-1.0,0
28.0,-247.0,39.0,-46.0,5.0,3.0,0
28.0,-253.0,39.0,-44.0,3.0,5.0,0
27.0,-248.0,36.0,-42.0,3.0,5.0,0
26.0,-250.0,35.0,-40.0,5.0,4.0,0
29.0,-251.0,35.0,-40.0,6.0,5.0,0
26.0,-249.0,36.0,-41.0,4.0,6.0,0
25.0,-249.0,35.0,-41.0,4.0,5.0,0
28.0,-251.0,35.0,-44.0,2.0,1.0,0
30.0,-253.0,36.0,-45.0,1.0,4.0,0
26.0,-249.0,38.0,-44.0,-1.0,2.0,0
26.0,-249.0,38.0,-41.0,2.0,-1.0,0
30.0,-248.0,36.0,-41.0,2.0,-2.0,0
29.0,-250.0,39.0,-41.0,4.0,-4.0,0
26.0,-250.0,35.0,-39.0,6.0,-4.0,0
27.0,-251.0,37.0,-39.0,9.0,-4.0,0
28.0,-250.0,36.0,-39.0,10.0,-4.0,0
28.0,-252.0,36.0,-42.0,10.0,-6.0,0
27.0,-250.0,35.0,-42.0,10.0,-6.0,0
26.0,-255.0,34.0,-43.0,11.0,-7.0,0
28.0,-252.0,34.0,-44.0,9.0,-8.0,0
25.0,-251.0,36.0,-45.0,11.0,-10.0,0
28.0,-251.0,39.0,-45.0,15.0,-10.0,0
26.0,-251.0,34.0,-41.0,16.0,-10.0,0
27.0,-253.0,34.0,-37.0,17.0,-12.0,0
25.0,-250.0,36.0,-33.0,17.0,-11.0,0
27.0,-252.0,36.0,-31.0,17.0,-12.0,0
26.0,-252.0,37.0,-27.0,19.0,-12.0,0
27.0,-254.0,31.0,-24.0,19.0,-13.0,0
30.0,-254.0,34.0,-23.0,19.0,-14.0,0
27.0,-253.0,32.0,-21.0,21.0,-14.0,0
25.0,-252.0,36.0,-19.0,20.0,-14.0,0
26.0,-253.0,36.0,-18.0,19.0,-11.0,0
25.0,-252.0,32.0,-17.0,18.0,-11.0,0
25.0,-253.0,37.0,-16.0,16.0,-10.0,0
27.0,-252.0,37.0,-13.0,15.0,-10.0,0
27.0,-249.0,37.0,-9.0,14.0,-10.0,0
25.0,-248.0,37.0,-7.0,13.0,-11.0,0
23.0,-249.0,36.0,-7.0,13.0,-11.0,0
27.0,-250.0,34.0,-5.0,12.0,-10.0,0
24.0,-245.0,37.0,-4.0,12.0,-10.0,0
25.0,-250.0,35.0,-5.0,12.0,-9.0,0
25.0,-251.0,33.0,-5.0,11.0,-9.0,0
24.0,-250.0,38.0,-9.0,10.0,-11.0,0
23.0,-250.0,37.0,-12.0,9.0,-12.0,0
24.0,-249.0,37.0,-15.0,7.0,-12.0,0
26.0,-251.0,39.0,-17.0,4.0,-13.0,0
25.0,-247.0,37.0,-18.0,1.0,-16.0,0
22.0,-248.0,40.0,-18.0,0.0,-17.0,0
26.0,-249.0,39.0,-23.0,-3.0,-16.0,0
25.0,-250.0,35.0,-22.0,-5.0,-17.0,0
25.0,-247.0,38.0,-22.0,-7.0,-17.0,0
30.0,-247.0,41.0,-20.0,-14.0,-14.0,0
29.0,-245.0,39.0,-15.0,-19.0,-12.0,0
32.0,-248.0,39.0,-11.0,-16.0,-10.0,0
28.0,-244.0,38.0,-13.0,-12.0,-11.0,0
27.0,-249.0,40.0,-18.0,-9.0,-12.0,0
26.0,-243.0,40.0,-24.0,-4.0,-14.0,0
30.0,-249.0,48.0,-30.0,-1.0,-11.0,0
28.0,-251.0,41.0,-35.0,4.0,-10.0,0
27.0,-246.0,37.0,-39.0,11.0,-12.0,0
25.0,-246.0,38.0,-41.0,17.0,-13.0,0
25.0,-250.0,41.0,-43.0,17.0,-13.0,0
27.0,-247.0,42.0,-44.0,15.0,-15.0,0
27.0,-249.0,43.0,-44.0,11.0,-14.0,0
27.0,-245.0,39.0,-47.0,6.0,-14.0,0
31.0,-251.0,38.0,-47.0,1.0,-12.0,0
26.0,-248.0,42.0,-45.0,1.0,-13.0,0
24.0,-246.0,40.0,-41.0,4.0,-13.0,0
28.0,-245.0,43.0,-42.0,6.0,-9.0,0
31.0,-250.0,36.0,-43.0,8.0,-9.0,0
25.0,-248.0,40.0,-44.0,10.0,-8.0,0
26.0,-248.0,35.0,-42.0,18.0,-2.0,0
26.0,-247.0,34.0,-35.0,33.0,3.0,0
28.0,-245.0,38.0,-35.0,45.0,5.0,0
28.0,-249.0,37.0,-42.0,49.0,2.0,0
31.0,-253.0,39.0,-52.0,41.0,-5.0,0
26.0,-249.0,42.0,-54.0,28.0,-9.0,0
26.0,-248.0,43.0,-50.0,14.0,-10.0,0
25.0,-249.0,41.0,-45.0,8.0,-8.0,0
25.0,-247.0,36.0,-40.0,10.0,-4.0,0
29.0,-247.0,36.0,-41.0,15.0,-2.0,0
26.0,-247.0,38.0,-45.0,20.0,-4.0,0
23.0,-247.0,40.0,-49.0,20.0,-5.0,0
27.0,-251.0,31.0,-51.0,19.0,-6.0,0
27.0,-249.0,38.0,-55.0,16.0,-6.0,0
26.0,-251.0,41.0,-55.0,17.0,-5.0,0
27.0,-251.0,40.0,-59.0,19.0,-5.0,0
27.0,-250.0,39.0,-63.0,20.0,-5.0,0
29.0,-252.0,38.0,-69.0,20.0,-5.0,0
28.0,-249.0,39.0,-74.0,21.0,-7.0,0
26.0,-251.0,38.0,-78.0,21.0,-7.0,0
27.0,-248.0,37.0,-82.0,21.0,-8.0,0
28.0,-250.0,37.0,-85.0,18.0,-7.0,0
27.0,-252.0,40.0,-88.0,15.0,-7.0,0
26.0,-247.0,37.0,-90.0,12.0,-7.0,0
28.0,-249.0,38.0,-93.0,8.0,-8.0,0
24.0,-246.0,40.0,-93.0,5.0,-8.0,0
27.0,-252.0,36.0,-94.0,3.0,-7.0,0
28.0,-251.0,38.0,-94.0,2.0,-7.0,0
26.0,-246.0,39.0,-93.0,2.0,-10.0,0
28.0,-246.0,42.0,-93.0,5.0,-9.0,0
26.0,-245.0,37.0,-91.0,11.0,-4.0,0
28.0,-248.0,32.0,-91.0,14.0,1.0,0
29.0,-250.0,30.0,-95.0,17.0,-3.0,0
29.0,-251.0,38.0,-101.0,18.0,-8.0,0
29.0,-249.0,41.0,-106.0,14.0,-12.0,0
27.0,-248.0,40.0,-108.0,12.0,-15.0,0
30.0,-250.0,40.0,-108.0,11.0,-17.0,0
29.0,-249.0,39.0,-111.0,11.0,-17.0,0
31.0,-246.0,40.0,-115.0,9.0,-17.0,0
27.0,-247.0,42.0,-121.0,9.0,-20.0,0
28.0,-248.0,41.0,-126.0,6.0,-19.0,0
27.0,-246.0,42.0,-129.0,4.0,-17.0,0
25.0,-244.0,41.0,-131.0,4.0,-16.0,0
23.0,-247.0,39.0,-133.0,3.0,-15.0,0
25.0,-249.0,40.0,-138.0,2.0,-14.0,0
27.0,-247.0,40.0,-143.0,3.0,-12.0,0
30.0,-249.0,43.0,-147.0,3.0,-11.0,0
31.0,-248.0,40.0,-151.0,3.0,-10.0,0
28.0,-249.0,40.0,-153.0,4.0,-10.0,0
29.0,-248.0,38.0,-153.0,6.0,-11.0,0
29.0,-249.0,39.0,-152.0,6.0,-11.0,0
33.0,-247.0,38.0,-152.0,8.0,-13.0,0
31.0,-248.0,35.0,-154.0,8.0,-15.0,0
32.0,-247.0,36.0,-157.0,8.0,-16.0,0
31.0,-252.0,36.0,-161.0,8.0,-14.0,0
26.0,-249.0,38.0,-166.0,8.0,-12.0,0
29.0,-252.0,34.0,-172.0,9.0,-10.0,0
30.0,-252.0,31.0,-176.0,11.0,-10.0,0
26.0,-251.0,36.0,-179.0,12.0,-8.0,0
27.0,-251.0,35.0,-180.0,11.0,-5.0,0
29.0,-248.0,37.0,-179.0,9.0,-4.0,0
29.0,-248.0,37.0,-177.0,10.0,-4.0,0
28.0,-248.0,34.0,-176.0,11.0,-3.0,0
29.0,-249.0,33.0,-175.0,14.0,-2.0,0
28.0,-248.0,36.0,-174.0,15.0,-1.0,0
25.0,-251.0,33.0,-175.0,17.0,0.0,0
28.0,-253.0,34.0,-175.0,18.0,0.0,0
27.0,-250.0,36.0,-172.0,16.0,1.0,0
27.0,-252.0,29.0,-171.0,15.0,3.0,0
25.0,-250.0,37.0,-170.0,13.0,3.0,0
25.0,-251.0,35.0,-167.0,9.0,4.0,0
26.0,-253.0,33.0,-165.0,7.0,4.0,0
23.0,-251.0,36.0,-163.0,4.0,7.0,0
29.0,-252.0,32.0,-160.0,4.0,9.0,0
28.0,-250.0,31.0,-158.0,1.0,10.0,0
27.0,-254.0,30.0,-158.0,-5.0,10.0,0
25.0,-250.0,30.0,-159.0,-7.0,9.0,0
27.0,-253.0,33.0,-156.0,-8.0,10.0,0
29.0,-253.0,32.0,-155.0,-6.0,10.0,0
30.0,-251.0,33.0,-152.0,-3.0,10.0,0
30.0,-254.0,32.0,-152.0,1.0,8.0,0
28.0,-253.0,31.0,-151.0,4.0,11.0,0
26.0,-254.0,34.0,-152.0,6.0,12.0,0
26.0,-253.0,31.0,-152.0,8.0,12.0,0
28.0,-255.0,31.0,-152.0,9.0,13.0,0
26.0,-254.0,28.0,-149.0,11.0,12.0,0
29.0,-251.0,28.0,-144.0,15.0,12.0,0
28.0,-255.0,31.0,-139.0,17.0,13.0,0
28.0,-255.0,29.0,-136.0,19.0,13.0,0
28.0,-250.0,30.0,-134.0,22.0,11.0,0
28.0,-251.0,32.0,-133.0,24.0,12.0,0
25.0,-253.0,27.0,-132.0,23.0,12.0,0
25.0,-252.0,26.0,-133.0,23.0,14.0,0
28.0,-254.0,26.0,-134.0,21.0,13.0,0
22.0,-250.0,30.0,-132.0,20.0,11.0,0
24.0,-251.0,31.0,-131.0,19.0,11.0,0
26.0,-253.0,28.0,-133.0,15.0,10.0,0
26.0,-252.0,26.0,-135.0,13.0,9.0,0
26.0,-252.0,28.0,-135.0,9.0,9.0,0
27.0,-253.0,26.0,-135.0,8.0,10.0,0
26.0,-253.0,21.0,-133.0,5.0,12.0,0
30.0,-254.0,23.0,-130.0,5.0,14.0,0
24.0,-252.0,26.0,-129.0,4.0,16.0,0
28.0,-250.0,24.0,-127.0,7.0,19.0,0
27.0,-254.0,21.0,-127.0,10.0,19.0,0
30.0,-254.0,24.0,-127.0,12.0,20.0,0
28.0,-255.0,22.0,-128.0,16.0,23.0,0
29.0,-256.0,22.0,-131.0,18.0,22.0,0
27.0,-253.0,22.0,-130.0,22.0,21.0,0
30.0,-254.0,20.0,-130.0,24.0,19.0,0
28.0,-253.0,25.0,-130.0,26.0,17.0,0
29.0,-256.0,21.0,-129.0,27.0,15.0,0
25.0,-254.0,23.0,-128.0,26.0,13.0,0
25.0,-254.0,22.0,-126.0,25.0,11.0,0
25.0,-256.0,18.0,-125.0,23.0,9.0,0
26.0,-257.0,22.0,-125.0,21.0,9.0,0
29.0,-257.0,19.0,-123.0,18.0,7.0,0
29.0,-257.0,20.0,-121.0,15.0,7.0,0
26.0,-256.0,23.0,-119.0,13.0,6.0,0
26.0,-255.0,23.0,-117.0,12.0,6.0,0
25.0,-255.0,25.0,-112.0,11.0,6.0,0
24.0,-255.0,18.0,-107.0,13.0,8.0,0
25.0,-255.0,17.0,-102.0,14.0,8.0,0
25.0,-255.0,16.0,-98.0,16.0,9.0,0
25.0,-253.0,21.0,-95.0,17.0,9.0,0
25.0,-253.0,18.0,-95.0,19.0,9.0,0
28.0,-257.0,21.0,-93.0,22.0,8.0,0
30.0,-257.0,20.0,-94.0,25.0,8.0,0
30.0,-256.0,21.0,-94.0,27.0,10.0,0
26.0,-255.0,17.0,-97.0,26.0,10.0,0
28.0,-256.0,18.0,-98.0,27.0,11.0,0
28.0,-254.0,17.0,-96.0,27.0,13.0,0
27.0,-254.0,22.0,-93.0,27.0,14.0,0
28.0,-257.0,20.0,-92.0,27.0,14.0,0
26.0,-254.0,17.0,-91.0,25.0,13.0,0
24.0,-254.0,19.0,-90.0,26.0,13.0,0
26.0,-253.0,21.0,-89.0,27.0,14.0,0
29.0,-252.0,19.0,-92.0,26.0,14.0,0
27.0,-254.0,23.0,-91.0,26.0,13.0,0
25.0,-255.0,18.0,-91.0,27.0,13.0,0
24.0,-254.0,25.0,-91.0,28.0,13.0,0
28.0,-254.0,22.0,-92.0,27.0,11.0,0
26.0,-254.0,19.0,-93.0,29.0,11.0,0
27.0,-256.0,20.0,-93.0,28.0,10.0,0
26.0,-256.0,14.0,-92.0,30.0,10.0,0
28.0,-255.0,22.0,-87.0,31.0,10.0,0
24.0,-255.0,24.0,-87.0,31.0,7.0,0
26.0,-256.0,22.0,-87.0,30.0,6.0,0
28.0,-257.0,20.0,-84.0,30.0,5.0,0
27.0,-256.0,22.0,-84.0,31.0,4.0,0
24.0,-255.0,22.0,-82.0,29.0,3.0,0
24.0,-255.0,20.0,-78.0,29.0,2.0,0
24.0,-251.0,26.0,-77.0,28.0,3.0,0
26.0,-254.0,22.0,-72.0,27.0,1.0,0
29.0,-255.0,20.0,-72.0,26.0,3.0,0
30.0,-255.0,21.0,-70.0,26.0,3.0,0
27.0,-255.0,25.0,-68.0,26.0,4.0,0
25.0,-256.0,21.0,-65.0,28.0,4.0,0
25.0,-255.0,20.0,-66.0,29.0,5.0,0
24.0,-251.0,21.0,-63.0,30.0,5.0,0
27.0,-256.0,27.0,-58.0,29.0,7.0,0
27.0,-255.0,23.0,-55.0,29.0,7.0,0
26.0,-253.0,18.0,-50.0,27.0,7.0,0
27.0,-255.0,24.0,-44.0,24.0,6.0,0
26.0,-256.0,21.0,-41.0,22.0,5.0,0
26.0,-255.0,24.0,-41.0,20.0,4.0,0
27.0,-255.0,21.0,-43.0,20.0,2.0,0
26.0,-255.0,23.0,-46.0,20.0,3.0,0
24.0,-255.0,24.0,-47.0,22.0,1.0,0
22.0,-255.0,21.0,-48.0,23.0,3.0,0
26.0,-255.0,17.0,-44.0,23.0,3.0,0
23.0,-253.0,22.0,-40.0,23.0,3.0,0
23.0,-252.0,16.0,-37.0,24.0,3.0,0
27.0,-256.0,17.0,-34.0,22.0,4.0,0
27.0,-256.0,19.0,-33.0,23.0,3.0,0
23.0,-252.0,19.0,-31.0,21.0,2.0,0
26.0,-256.0,17.0,-28.0,21.0,0.0,0
26.0,-259.0,19.0,-25.0,19.0,0.0,0
24.0,-257.0,15.0,-22.0,20.0,0.0,0
23.0,-252.0,18.0,-19.0,21.0,0.0,0
23.0,-257.0,21.0,-15.0,25.0,0.0,0
22.0,-256.0,16.0,-11.0,28.0,0.0,0
26.0,-256.0,13.0,-8.0,30.0,0.0,0
24.0,-255.0,19.0,-4.0,33.0,-1.0,0
25.0,-255.0,17.0,1.0,34.0,1.0,0
27.0,-255.0,20.0,3.0,36.0,2.0,0
24.0,-255.0,21.0,5.0,37.0,1.0,0
24.0,-255.0,19.0,3.0,39.0,1.0,0
20.0,-252.0,16.0,1.0,38.0,0.0,0
23.0,-254.0,18.0,-4.0,35.0,-1.0,0
24.0,-254.0,19.0,-9.0,32.0,1.0,0
17.0,-246.0,26.0,-15.0,29.0,0.0,0
25.0,-255.0,18.0,-21.0,26.0,-1.0,0
22.0,-251.0,23.0,-26.0,25.0,-2.0,0
27.0,-254.0,20.0,-30.0,26.0,-2.0,0
23.0,-257.0,21.0,-34.0,26.0,-2.0,0
22.0,-256.0,24.0,-34.0,25.0,0.0,0
25.0,-257.0,21.0,-34.0,24.0,2.0,0
24.0,-255.0,23.0,-30.0,22.0,1.0,0
23.0,-254.0,25.0,-25.0,19.0,1.0,0
27.0,-253.0,21.0,-22.0,17.0,1.0,0
25.0,-253.0,18.0,-17.0,14.0,3.0,0
37.0,-254.0,24.0,-18.0,11.0,2.0,0
25.0,-256.0,21.0,-20.0,7.0,1.0,0
26.0,-255.0,22.0,-21.0,5.0,3.0,0
23.0,-254.0,24.0,-28.0,2.0,4.0,0
27.0,-256.0,21.0,-31.0,2.0,4.0,0
28.0,-254.0,27.0,-33.0,0.0,5.0,0
26.0,-256.0,22.0,-35.0,-1.0,5.0,0
25.0,-254.0,25.0,-35.0,-3.0,4.0,0
25.0,-254.0,26.0,-38.0,-6.0,3.0,0
26.0,-254.0,26.0,-40.0,-8.0,1.0,0
27.0,-255.0,26.0,-38.0,-12.0,0.0,0
20.0,-267.0,36.0,-39.0,-12.0,0.0,0
26.0,-254.0,25.0,-39.0,-13.0,-2.0,0
26.0,-254.0,23.0,-35.0,-11.0,-1.0,0
26.0,-253.0,23.0,-32.0,-8.0,1.0,0
27.0,-252.0,23.0,-29.0,-4.0,2.0,0
28.0,-252.0,24.0,-26.0,-1.0,1.0,0
28.0,-252.0,26.0,-25.0,3.0,1.0,0
25.0,-254.0,24.0,-24.0,8.0,1.0,0
27.0,-253.0,26.0,-22.0,10.0,3.0,0
26.0,-251.0,30.0,-23.0,11.0,3.0,0
27.0,-254.0,29.0,-25.0,11.0,4.0,0
35.0,-260.0,39.0,-28.0,9.0,5.0,0
22.0,-253.0,29.0,-30.0,6.0,5.0,0
25.0,-253.0,22.0,-30.0,4.0,4.0,0
26.0,-251.0,26.0,-33.0,1.0,3.0,0
25.0,-254.0,28.0,-34.0,0.0,3.0,0
25.0,-253.0,26.0,-36.0,-3.0,4.0,0
25.0,-253.0,24.0,-38.0,-5.0,3.0,0
22.0,-254.0,25.0,-39.0,-5.0,2.0,0
26.0,-253.0,24.0,-38.0,-5.0,2.0,0
24.0,-256.0,28.0,-37.0,-4.0,1.0,0
22.0,-265.0,36.0,-38.0,-2.0,-2.0,0
26.0,-257.0,26.0,-37.0,-2.0,-5.0,0
48.0,-274.0,20.0,-42.0,-2.0,-14.0,0
26.0,-260.0,27.0,-64.0,-9.0,-56.0,0
7.0,-245.0,36.0,-57.0,-34.0,-51.0,0
11.0,-234.0,26.0,-25.0,-49.0,-10.0,0
25.0,-242.0,16.0,2.0,-24.0,21.0,0
35.0,-252.0,17.0,-9.0,8.0,19.0,0
29.0,-257.0,23.0,-43.0,18.0,1.0,0
28.0,-258.0,25.0,-64.0,9.0,-9.0,0
23.0,-254.0,25.0,-62.0,-1.0,-14.0,0
20.0,-251.0,33.0,-49.0,-4.0,-12.0,0
21.0,-248.0,24.0,-36.0,-1.0,-4.0,0
22.0,-250.0,17.0,-34.0,8.0,5.0,0
27.0,-253.0,20.0,-39.0,16.0,4.0,0
24.0,-253.0,24.0,-44.0,18.0,1.0,0
25.0,-254.0,26.0,-49.0,18.0,0.0,0
25.0,-254.0,23.0,-46.0,18.0,-3.0,0
23.0,-254.0,26.0,-42.0,17.0,-4.0,0
24.0,-252.0,19.0,-39.0,18.0,-2.0,0
27.0,-250.0,22.0,-37.0,20.0,1.0,0
27.0,-252.0,23.0,-36.0,24.0,5.0,0
24.0,-255.0,31.0,-40.0,26.0,3.0,0
28.0,-259.0,24.0,-47.0,28.0,6.0,0
26.0,-252.0,25.0,-44.0,28.0,-2.0,0
29.0,-255.0,25.0,-35.0,23.0,-10.0,0
24.0,-255.0,20.0,-30.0,16.0,-12.0,0
23.0,-254.0,25.0,-34.0,20.0,-10.0,0
28.0,-257.0,24.0,-39.0,29.0,-7.0,0
25.0,-254.0,25.0,-40.0,32.0,-7.0,0
24.0,-254.0,26.0,-39.0,31.0,-6.0,0
22.0,-255.0,25.0,-39.0,29.0,-5.0,0
23.0,-255.0,22.0,-41.0,30.0,-3.0,0
23.0,-252.0,19.0,-44.0,31.0,-2.0,0
25.0,-252.0,25.0,-46.0,32.0,1.0,0
22.0,-259.0,21.0,-51.0,33.0,7.0,0
29.0,-256.0,30.0,-69.0,46.0,23.0,0
28.0,-242.0,27.0,-53.0,45.0,2.0,0
22.0,-250.0,15.0,-32.0,17.0,-7.0,0
20.0,-253.0,20.0,-43.0,-5.0,-2.0,0
25.0,-257.0,25.0,-63.0,11.0,3.0,0
26.0,-256.0,28.0,-73.0,30.0,8.0,0
26.0,-255.0,25.0,-72.0,28.0,6.0,0
28.0,-256.0,23.0,-63.0,18.0,5.0,0
27.0,-256.0,20.0,-59.0,13.0,2.0,0
27.0,-254.0,24.0,-59.0,11.0,-3.0,0
27.0,-253.0,21.0,-56.0,8.0,-1.0,0
24.0,-255.0,20.0,-56.0,10.0,-3.0,0
24.0,-258.0,22.0,-59.0,11.0,2.0,0
32.0,-253.0,28.0,-67.0,16.0,17.0,0
27.0,-248.0,28.0,-54.0,14.0,-4.0,0
26.0,-249.0,19.0,-37.0,-6.0,-11.0,0
24.0,-253.0,20.0,-37.0,-18.0,-8.0,0
24.0,-254.0,29.0,-50.0,-5.0,-1.0,0
25.0,-254.0,29.0,-58.0,6.0,2.0,0
25.0,-249.0,26.0,-59.0,7.0,0.0,0
25.0,-250.0,23.0,-57.0,4.0,-4.0,0
30.0,-252.0,27.0,-57.0,0.0,-6.0,0
24.0,-251.0,25.0,-59.0,0.0,-6.0,0
27.0,-252.0,25.0,-62.0,3.0,-4.0,0
29.0,-248.0,28.0,-63.0,7.0,-3.0,0
24.0,-252.0,27.0,-66.0,7.0,-1.0,0
26.0,-254.0,24.0,-69.0,4.0,0.0,0
29.0,-252.0,27.0,-81.0,4.0,10.0,0
29.0,-245.0,26.0,-83.0,8.0,-1.0,0
25.0,-249.0,23.0,-74.0,-4.0,-15.0,0
22.0,-251.0,21.0,-78.0,-21.0,-11.0,0
24.0,-254.0,26.0,-91.0,-22.0,-5.0,0
26.0,-253.0,26.0,-100.0,-14.0,0.0,0
28.0,-253.0,26.0,-102.0,-11.0,1.0,0
27.0,-253.0,19.0,-100.0,-9.0,1.0,0
24.0,-252.0,24.0,-102.0,-8.0,3.0,0
24.0,-254.0,21.0,-102.0,-6.0,3.0,0
25.0,-255.0,24.0,-102.0,-4.0,3.0,0
26.0,-256.0,25.0,-100.0,-3.0,3.0,0
22.0,-251.0,22.0,-96.0,0.0,4.0,0
25.0,-255.0,21.0,-92.0,4.0,4.0,0
24.0,-251.0,21.0,-88.0,7.0,1.0,0
27.0,-251.0,21.0,-85.0,11.0,-5.0,0
26.0,-254.0,22.0,-85.0,14.0,-10.0,0
26.0,-248.0,21.0,-88.0,14.0,-17.0,0
26.0,-249.0,24.0,-93.0,12.0,-24.0,0
17.0,-257.0,11.0,-100.0,10.0,-25.0,0
35.0,-253.0,22.0,-122.0,19.0,2.0,0
26.0,-244.0,22.0,-123.0,35.0,-32.0,0
23.0,-250.0,11.0,-111.0,23.0,-40.0,0
20.0,-255.0,16.0,-123.0,5.0,-25.0,0
23.0,-258.0,16.0,-147.0,21.0,-6.0,0
25.0,-257.0,21.0,-156.0,41.0,3.0,0
24.0,-256.0,19.0,-148.0,43.0,8.0,0
24.0,-256.0,13.0,-141.0,43.0,10.0,0
22.0,-255.0,15.0,-136.0,48.0,13.0,0
19.0,-258.0,18.0,-133.0,52.0,16.0,0
31.0,-263.0,20.0,-144.0,60.0,41.0,0
28.0,-245.0,23.0,-139.0,69.0,15.0,0
21.0,-249.0,10.0,-109.0,56.0,-2.0,0
20.0,-254.0,12.0,-117.0,45.0,8.0,0
23.0,-256.0,15.0,-136.0,63.0,14.0,0
23.0,-255.0,18.0,-138.0,74.0,10.0,0
22.0,-257.0,15.0,-127.0,70.0,4.0,0
25.0,-262.0,19.0,-124.0,66.0,11.0,0
23.0,-255.0,24.0,-111.0,69.0,0.0,0
22.0,-254.0,16.0,-95.0,64.0,-10.0,0
18.0,-255.0,20.0,-99.0,58.0,-6.0,0
21.0,-254.0,20.0,-114.0,64.0,-1.0,0
23.0,-255.0,22.0,-123.0,66.0,1.0,0
20.0,-253.0,23.0,-128.0,63.0,2.0,0
22.0,-255.0,20.0,-133.0,60.0,4.0,0
25.0,-259.0,18.0,-144.0,58.0,14.0,0
23.0,-254.0,22.0,-149.0,59.0,9.0,0
22.0,-255.0,17.0,-137.0,52.0,-4.0,0
23.0,-253.0,17.0,-140.0,43.0,3.0,0
24.0,-256.0,17.0,-152.0,49.0,8.0,0
22.0,-255.0,19.0,-159.0,58.0,9.0,0
22.0,-255.0,19.0,-163.0,60.0,10.0,0
25.0,-256.0,16.0,-165.0,56.0,10.0,0
22.0,-256.0,19.0,-164.0,56.0,12.0,0
24.0,-256.0,18.0,-166.0,58.0,12.0,0
21.0,-255.0,19.0,-168.0,61.0,12.0,0
22.0,-256.0,23.0,-166.0,63.0,9.0,0
22.0,-256.0,22.0,-163.0,64.0,5.0,0
25.0,-255.0,19.0,-157.0,65.0,5.0,0
26.0,-254.0,20.0,-152.0,66.0,3.0,0
22.0,-256.0,14.0,-149.0,67.0,-1.0,0
24.0,-255.0,21.0,-146.0,66.0,-1.0,0
24.0,-255.0,20.0,-141.0,66.0,-4.0,0
26.0,-255.0,18.0,-135.0,66.0,-6.0,0
23.0,-254.0,16.0,-131.0,66.0,-8.0,0
21.0,-254.0,25.0,-126.0,65.0,-12.0,0
19.0,-253.0,23.0,-124.0,61.0,-15.0,0
25.0,-253.0,21.0,-120.0,56.0,-17.0,0
25.0,-255.0,19.0,-115.0,50.0,-20.0,0
25.0,-254.0,20.0,-111.0,46.0,-22.0,0
21.0,-252.0,20.0,-110.0,41.0,-25.0,0
24.0,-253.0,21.0,-112.0,37.0,-26.0,0
20.0,-254.0,19.0,-116.0,30.0,-26.0,0
21.0,-256.0,17.0,-121.0,24.0,-25.0,0
25.0,-256.0,14.0,-124.0,18.0,-24.0,0
26.0,-255.0,12.0,-125.0,14.0,-24.0,0
26.0,-255.0,14.0,-128.0,14.0,-23.0,0
22.0,-254.0,12.0,-133.0,17.0,-21.0,0
26.0,-254.0,20.0,-143.0,20.0,-17.0,0
24.0,-253.0,19.0,-154.0,21.0,-17.0,0
26.0,-255.0,17.0,-162.0,17.0,-15.0,0
28.0,-252.0,13.0,-173.0,13.0,-14.0,0
23.0,-255.0,11.0,-185.0,10.0,-16.0,0
24.0,-252.0,14.0,-196.0,4.0,-16.0,0
26.0,-254.0,19.0,-199.0,0.0,-13.0,0
25.0,-254.0,17.0,-195.0,-3.0,-15.0,0
25.0,-253.0,11.0,-191.0,-2.0,-10.0,0
19.0,-257.0,16.0,-196.0,3.0,-6.0,0
21.0,-255.0,11.0,-205.0,5.0,-4.0,0
24.0,-255.0,12.0,-208.0,4.0,-5.0,0
29.0,-253.0,12.0,-206.0,0.0,-7.0,0
28.0,-249.0,12.0,-204.0,3.0,-8.0,0
27.0,-252.0,11.0,-208.0,9.0,-14.0,0
28.0,-254.0,12.0,-221.0,18.0,-14.0,0
25.0,-252.0,8.0,-240.0,26.0,-14.0,0
26.0,-254.0,9.0,-257.0,27.0,-16.0,0
24.0,-255.0,8.0,-269.0,21.0,-19.0,0
24.0,-256.0,8.0,-277.0,17.0,-20.0,0
23.0,-258.0,7.0,-283.0,16.0,-22.0,0
28.0,-259.0,6.0,-290.0,16.0,-13.0,0
30.0,-254.0,12.0,-285.0,17.0,-16.0,0
26.0,-257.0,8.0,-271.0,16.0,-31.0,0
20.0,-259.0,8.0,-266.0,14.0,-30.0,0
24.0,-258.0,9.0,-268.0,22.0,-24.0,0
14.0,-258.0,7.0,-266.0,27.0,-22.0,0
20.0,-258.0,11.0,-258.0,25.0,-26.0,0
29.0,-258.0,9.0,-246.0,24.0,-23.0,0
34.0,-256.0,7.0,-234.0,31.0,-22.0,0
29.0,-255.0,3.0,-227.0,42.0,-26.0,0
21.0,-255.0,7.0,-232.0,47.0,-30.0,0
27.0,-255.0,5.0,-250.0,44.0,-25.0,0
25.0,-257.0,6.0,-270.0,42.0,-23.0,0
26.0,-253.0,9.0,-280.0,39.0,-22.0,0
24.0,-256.0,-1.0,-284.0,36.0,-25.0,0
18.0,-259.0,1.0,-286.0,33.0,-25.0,0
10.0,-257.0,4.0,-292.0,23.0,-21.0,0
30.0,-259.0,4.0,-286.0,13.0,-21.0,0
31.0,-258.0,5.0,-268.0,16.0,-26.0,0
34.0,-256.0,6.0,-256.0,30.0,-28.0,0
26.0,-255.0,4.0,-253.0,45.0,-26.0,0
25.0,-253.0,5.0,-258.0,53.0,-26.0,0
27.0,-253.0,2.0,-275.0,59.0,-23.0,0
29.0,-254.0,3.0,-293.0,61.0,-14.0,0
22.0,-256.0,2.0,-310.0,59.0,-13.0,0
25.0,-257.0,2.0,-322.0,50.0,-7.0,0
25.0,-258.0,2.0,-331.0,43.0,3.0,0
27.0,-258.0,2.0,-337.0,41.0,8.0,0
23.0,-258.0,0.0,-342.0,42.0,13.0,0
18.0,-257.0,0.0,-348.0,43.0,21.0,0
24.0,-261.0,0.0,-355.0,39.0,27.0,0
25.0,-258.0,-3.0,-354.0,33.0,27.0,0
24.0,-258.0,-2.0,-349.0,28.0,28.0,0
22.0,-256.0,-1.0,-342.0,26.0,26.0,0
23.0,-256.0,-3.0,-338.0,26.0,25.0,0
27.0,-257.0,-7.0,-336.0,28.0,22.0,0
27.0,-258.0,-8.0,-340.0,30.0,20.0,0
25.0,-256.0,-3.0,-347.0,32.0,20.0,0
28.0,-257.0,-5.0,-355.0,32.0,19.0,0
23.0,-256.0,-2.0,-366.0,31.0,17.0,0
27.0,-256.0,-5.0,-377.0,31.0,17.0,0
26.0,-260.0,-4.0,-387.0,34.0,20.0,0
27.0,-258.0,-2.0,-392.0,35.0,23.0,0
22.0,-257.0,-4.0,-397.0,36.0,22.0,0
24.0,-256.0,0.0,-402.0,37.0,23.0,0
20.0,-257.0,-4.0,-405.0,37.0,25.0,0
22.0,-256.0,-6.0,-410.0,35.0,25.0,0
21.0,-257.0,-4.0,-414.0,31.0,27.0,0
23.0,-258.0,-6.0,-416.0,26.0,29.0,0
23.0,-257.0,-6.0,-420.0,20.0,30.0,0
21.0,-258.0,-4.0,-423.0,13.0,33.0,0
21.0,-256.0,-5.0,-425.0,8.0,36.0,0
26.0,-258.0,-6.0,-428.0,1.0,36.0,0
22.0,-256.0,-8.0,-431.0,-6.0,36.0,0
28.0,-256.0,-12.0,-438.0,-12.0,34.0,0
25.0,-254.0,-10.0,-444.0,-15.0,32.0,0
27.0,-256.0,-12.0,-450.0,-18.0,29.0,0
25.0,-257.0,-11.0,-456.0,-21.0,27.0,0
24.0,-256.0,-11.0,-461.0,-21.0,26.0,0
21.0,-256.0,-7.0,-465.0,-20.0,26.0,0
23.0,-257.0,-10.0,-465.0,-18.0,28.0,0
22.0,-256.0,-11.0,-463.0,-15.0,31.0,0
24.0,-257.0,-8.0,-461.0,-11.0,31.0,0
21.0,-255.0,-12.0,-461.0,-5.0,31.0,0
24.0,-257.0,-15.0,-460.0,-1.0,31.0,0
24.0,-255.0,-14.0,-462.0,4.0,32.0,0
22.0,-255.0,-19.0,-469.0,8.0,34.0,0
24.0,-258.0,-19.0,-480.0,8.0,36.0,0
22.0,-258.0,-22.0,-493.0,9.0,35.0,0
20.0,-257.0,-18.0,-504.0,6.0,35.0,0
20.0,-257.0,-21.0,-516.0,1.0,33.0,0
25.0,-256.0,-22.0,-528.0,-2.0,34.0,0
24.0,-258.0,-23.0,-540.0,-2.0,37.0,0
21.0,-256.0,-25.0,-556.0,0.0,39.0,0
21.0,-259.0,-26.0,-575.0,1.0,41.0,0
22.0,-258.0,-26.0,-592.0,2.0,44.0,0
25.0,-256.0,-27.0,-607.0,3.0,45.0,0
22.0,-256.0,-27.0,-623.0,4.0,49.0,0
26.0,-258.0,-24.0,-639.0,6.0,53.0,0
21.0,-259.0,-27.0,-653.0,7.0,55.0,0
23.0,-257.0,-27.0,-670.0,5.0,56.0,0
26.0,-259.0,-26.0,-682.0,2.0,55.0,0
26.0,-255.0,-30.0,-692.0,2.0,51.0,0
24.0,-256.0,-33.0,-705.0,4.0,45.0,0
23.0,-256.0,-35.0,-723.0,2.0,40.0,0
27.0,-257.0,-35.0,-746.0,4.0,40.0,0
25.0,-263.0,-36.0,-767.0,6.0,40.0,0
25.0,-260.0,-37.0,-780.0,5.0,35.0,0
24.0,-257.0,-36.0,-794.0,0.0,31.0,0
25.0,-260.0,-37.0,-805.0,-9.0,26.0,0
24.0,-258.0,-42.0,-817.0,-16.0,22.0,0
21.0,-258.0,-46.0,-833.0,-25.0,19.0,0
25.0,-258.0,-44.0,-846.0,-29.0,14.0,0
25.0,-254.0,-44.0,-861.0,-33.0,7.0,0
24.0,-256.0,-45.0,-875.0,-37.0,1.0,0
23.0,-256.0,-47.0,-892.0,-43.0,1.0,0
23.0,-254.0,-45.0,-914.0,-49.0,4.0,0
24.0,-258.0,-49.0,-926.0,-52.0,6.0,0
24.0,-258.0,-50.0,-939.0,-56.0,8.0,0
25.0,-262.0,-49.0,-954.0,-59.0,7.0,0
24.0,-266.0,-56.0,-965.0,-56.0,6.0,0
24.0,-269.0,-50.0,-978.0,-52.0,4.0,0
20.0,-271.0,-49.0,-994.0,-46.0,1.0,0
18.0,-277.0,-54.0,-1005.0,-40.0,-7.0,0
16.0,-282.0,-57.0,-1020.0,-47.0,-14.0,0
21.0,-287.0,-57.0,-1036.0,-56.0,-14.0,0
20.0,-293.0,-62.0,-1047.0,-67.0,-17.0,0
17.0,-291.0,-72.0,-1051.0,-74.0,-21.0,0
21.0,-292.0,-73.0,-1062.0,-86.0,-20.0,0
17.0,-288.0,-86.0,-1077.0,-90.0,-15.0,0
24.0,-289.0,-89.0,-1110.0,-101.0,-2.0,0
27.0,-283.0,-89.0,-1147.0,-104.0,15.0,0
28.0,-280.0,-92.0,-1188.0,-102.0,30.0,0
25.0,-278.0,-90.0,-1218.0,-90.0,39.0,0
27.0,-275.0,-86.0,-1235.0,-69.0,40.0,0
28.0,-278.0,-84.0,-1247.0,-47.0,36.0,0
31.0,-283.0,-79.0,-1255.0,-27.0,29.0,0
30.0,-285.0,-78.0,-1245.0,12.0,12.0,0
27.0,-286.0,-75.0,-1227.0,58.0,-8.0,0
28.0,-289.0,-80.0,-1203.0,120.0,-31.0,0
25.0,-293.0,-82.0,-1175.0,183.0,-49.0,0
22.0,-289.0,-82.0,-1147.0,243.0,-60.0,0
23.0,-296.0,-90.0,-1121.0,305.0,-66.0,0
24.0,-298.0,-94.0,-1098.0,356.0,-69.0,0
21.0,-301.0,-92.0,-1080.0,386.0,-67.0,0
17.0,-298.0,-94.0,-1058.0,391.0,-66.0,0
16.0,-300.0,-99.0,-1036.0,367.0,-61.0,0
13.0,-292.0,-106.0,-1017.0,321.0,-47.0,0
16.0,-295.0,-105.0,-995.0,266.0,-30.0,0
14.0,-295.0,-101.0,-967.0,218.0,-21.0,0
16.0,-297.0,-109.0,-936.0,175.0,-14.0,0
19.0,-299.0,-111.0,-907.0,138.0,-6.0,0
18.0,-296.0,-109.0,-875.0,111.0,-1.0,0
19.0,-298.0,-112.0,-839.0,97.0,-5.0,0
21.0,-298.0,-105.0,-803.0,93.0,-11.0,0
20.0,-293.0,-114.0,-757.0,100.0,-20.0,0
23.0,-293.0,-115.0,-719.0,106.0,-25.0,0
23.0,-295.0,-122.0,-681.0,115.0,-29.0,0
23.0,-284.0,-121.0,-646.0,122.0,-35.0,0
23.0,-280.0,-122.0,-614.0,131.0,-38.0,0
19.0,-272.0,-124.0,-591.0,138.0,-36.0,0
21.0,-271.0,-126.0,-569.0,150.0,-36.0,0
23.0,-269.0,-127.0,-550.0,165.0,-39.0,0
23.0,-262.0,-125.0,-529.0,179.0,-41.0,0
24.0,-260.0,-130.0,-508.0,185.0,-43.0,0
24.0,-256.0,-128.0,-489.0,180.0,-40.0,0
19.0,-256.0,-128.0,-473.0,170.0,-38.0,0
27.0,-257.0,-127.0,-461.0,154.0,-34.0,0
24.0,-257.0,-129.0,-442.0,140.0,-33.0,0
23.0,-256.0,-124.0,-419.0,123.0,-32.0,0
21.0,-257.0,-124.0,-389.0,113.0,-33.0,0
20.0,-255.0,-123.0,-358.0,97.0,-34.0,0
21.0,-256.0,-118.0,-325.0,79.0,-35.0,0
21.0,-251.0,-115.0,-288.0,64.0,-34.0,0
23.0,-247.0,-119.0,-249.0,54.0,-31.0,0
27.0,-247.0,-115.0,-204.0,52.0,-33.0,0
22.0,-245.0,-119.0,-157.0,54.0,-33.0,0
23.0,-246.0,-118.0,-118.0,60.0,-19.0,0
23.0,-244.0,-120.0,-84.0,69.0,-9.0,0
23.0,-241.0,-115.0,-48.0,76.0,-3.0,0
27.0,-242.0,-116.0,-12.0,81.0,3.0,0
28.0,-240.0,-114.0,20.0,87.0,10.0,0
29.0,-240.0,-116.0,48.0,94.0,18.0,0
30.0,-235.0,-120.0,71.0,106.0,20.0,0
25.0,-235.0,-122.0,92.0,119.0,24.0,0
23.0,-229.0,-122.0,106.0,130.0,29.0,0
23.0,-232.0,-127.0,114.0,135.0,32.0,0
25.0,-229.0,-125.0,118.0,136.0,37.0,0
23.0,-228.0,-125.0,122.0,136.0,38.0,0
27.0,-230.0,-129.0,128.0,136.0,40.0,0
24.0,-224.0,-127.0,139.0,131.0,46.0,0
25.0,-223.0,-127.0,155.0,126.0,52.0,0
24.0,-224.0,-128.0,175.0,118.0,59.0,0
26.0,-227.0,-129.0,196.0,107.0,63.0,0
27.0,-228.0,-131.0,215.0,99.0,68.0,0
29.0,-225.0,-133.0,234.0,89.0,68.0,0
34.0,-226.0,-132.0,247.0,85.0,68.0,0
30.0,-222.0,-133.0,258.0,86.0,63.0,0
33.0,-221.0,-136.0,266.0,88.0,53.0,0
34.0,-222.0,-145.0,271.0,94.0,45.0,0
33.0,-223.0,-141.0,278.0,102.0,34.0,0
30.0,-223.0,-143.0,283.0,110.0,26.0,0
31.0,-225.0,-147.0,289.0,113.0,20.0,0
29.0,-219.0,-146.0,295.0,116.0,17.0,0
27.0,-225.0,-147.0,300.0,117.0,10.0,0
30.0,-223.0,-142.0,308.0,116.0,2.0,0
31.0,-223.0,-147.0,316.0,116.0,-4.0,0
28.0,-226.0,-146.0,328.0,112.0,-11.0,0
30.0,-227.0,-149.0,342.0,110.0,-18.0,0
34.0,-225.0,-143.0,361.0,108.0,-27.0,0
30.0,-228.0,-147.0,382.0,107.0,-34.0,0
26.0,-231.0,-148.0,405.0,106.0,-40.0,0
27.0,-235.0,-148.0,426.0,102.0,-41.0,0
28.0,-239.0,-151.0,444.0,96.0,-40.0,0
27.0,-242.0,-149.0,465.0,94.0,-38.0,0
29.0,-245.0,-148.0,488.0,93.0,-40.0,0
25.0,-246.0,-150.0,518.0,94.0,-41.0,0
24.0,-245.0,-152.0,548.0,97.0,-41.0,0
27.0,-249.0,-154.0,576.0,99.0,-43.0,0
23.0,-246.0,-149.0,605.0,105.0,-40.0,0
20.0,-247.0,-150.0,633.0,110.0,-37.0,0
23.0,-245.0,-159.0,661.0,110.0,-36.0,0
19.0,-240.0,-158.0,689.0,105.0,-30.0,0
23.0,-243.0,-155.0,719.0,96.0,-23.0,0
21.0,-246.0,-155.0,751.0,83.0,-14.0,0
20.0,-249.0,-148.0,782.0,59.0,-14.0,0
25.0,-255.0,-146.0,818.0,34.0,-14.0,0
25.0,-259.0,-140.0,855.0,14.0,-16.0,0
24.0,-257.0,-140.0,898.0,3.0,-18.0,0
23.0,-259.0,-137.0,943.0,-4.0,-19.0,0
26.0,-257.0,-134.0,984.0,-7.0,-21.0,0
25.0,-251.0,-130.0,1022.0,-7.0,-25.0,0
28.0,-248.0,-128.0,1057.0,-7.0,-28.0,0
25.0,-243.0,-129.0,1092.0,-9.0,-29.0,0
27.0,-236.0,-128.0,1123.0,-9.0,-31.0,0
29.0,-227.0,-123.0,1146.0,0.0,-30.0,0
29.0,-224.0,-125.0,1166.0,13.0,-27.0,0
24.0,-218.0,-125.0,1182.0,32.0,-23.0,0
31.0,-219.0,-122.0,1200.0,48.0,-18.0,0
33.0,-218.0,-126.0,1220.0,59.0,-17.0,0
34.0,-217.0,-126.0,1246.0,68.0,-17.0,0
33.0,-217.0,-128.0,1263.0,76.0,-18.0,0
30.0,-211.0,-128.0,1271.0,87.0,-21.0,0
29.0,-210.0,-126.0,1269.0,100.0,-28.0,0
28.0,-206.0,-126.0,1255.0,118.0,-35.0,0
29.0,-204.0,-128.0,1239.0,144.0,-46.0,0
30.0,-197.0,-123.0,1219.0,171.0,-55.0,0
30.0,-192.0,-125.0,1191.0,191.0,-67.0,0
34.0,-185.0,-126.0,1162.0,196.0,-81.0,0
33.0,-173.0,-126.0,1120.0,183.0,-93.0,0
31.0,-163.0,-129.0,1059.0,156.0,-109.0,0
30.0,-152.0,-129.0,971.0,127.0,-123.0,0
30.0,-136.0,-127.0,858.0,105.0,-133.0,0
27.0,-123.0,-119.0,718.0,91.0,-136.0,0
32.0,-112.0,-105.0,572.0,77.0,-135.0,0
39.0,-98.0,-93.0,441.0,72.0,-134.0,0
42.0,-86.0,-80.0,343.0,73.0,-129.0,0
46.0,-75.0,-58.0,284.0,81.0,-122.0,0
50.0,-67.0,-43.0,250.0,92.0,-116.0,0
54.0,-63.0,-28.0,223.0,107.0,-114.0,0
54.0,-60.0,-14.0,204.0,123.0,-116.0,0
54.0,-59.0,-13.0,186.0,125.0,-117.0,0
58.0,-60.0,-13.0,164.0,114.0,-115.0,0
54.0,-57.0,-14.0,136.0,89.0,-122.0,0
59.0,-62.0,-23.0,114.0,60.0,-141.0,0
51.0,-64.0,-25.0,105.0,35.0,-169.0,0
55.0,-78.0,-32.0,126.0,33.0,-200.0,0
58.0,-101.0,-32.0,206.0,65.0,-232.0,0
57.0,-128.0,-23.0,350.0,121.0,-255.0,0
57.0,-173.0,19.0,569.0,190.0,-266.0,0
63.0,-241.0,71.0,885.0,251.0,-273.0,0
83.0,-342.0,85.0,1252.0,304.0,-278.0,0
104.0,-463.0,126.0,1675.0,383.0,-310.0,0
100.0,-596.0,163.0,2234.0,526.0,-382.0,0
74.0,-734.0,196.0,2927.0,742.0,-429.0,0
55.0,-849.0,138.0,3577.0,1011.0,-391.0,0
57.0,-940.0,-164.0,3639.0,1124.0,-269.0,0
44.0,-1130.0,-338.0,3033.0,791.0,-192.0,0
-80.0,-1279.0,-191.0,2831.0,178.0,-320.0,0
-155.0,-1153.0,31.0,3282.0,-359.0,-426.0,0
-96.0,-798.0,128.0,3716.0,-385.0,-257.0,0
-52.0,-488.0,96.0,3495.0,-52.0,97.0,0
-71.0,-351.0,81.0,2478.0,202.0,471.0,0
-86.0,-273.0,82.0,1413.0,305.0,803.0,0
-79.0,-163.0,83.0,926.0,340.0,1057.0,0
-73.0,-58.0,79.0,948.0,344.0,1202.0,0
-76.0,49.0,51.0,1106.0,255.0,1200.0,0
-66.0,120.0,-8.0,1041.0,48.0,1062.0,0
-43.0,126.0,-44.0,626.0,-261.0,826.0,0
-12.0,104.0,-11.0,38.0,-553.0,555.0,0
18.0,66.0,41.0,-481.0,-617.0,288.0,0
44.0,14.0,70.0,-834.0,-399.0,45.0,0
54.0,-37.0,74.0,-1043.0,-43.0,-154.0,0
46.0,-93.0,84.0,-1189.0,280.0,-276.0,0
22.0,-171.0,90.0,-1357.0,489.0,-338.0,0
7.0,-240.0,78.0,-1471.0,564.0,-332.0,0
11.0,-304.0,49.0,-1407.0,499.0,-244.0,0
25.0,-352.0,19.0,-1153.0,363.0,-116.0,0
42.0,-374.0,3.0,-793.0,241.0,4.0,0
50.0,-374.0,11.0,-434.0,156.0,74.0,0
49.0,-381.0,48.0,-193.0,80.0,155.0,0
46.0,-342.0,72.0,-42.0,-10.0,208.0,0
27.0,-317.0,59.0,116.0,-170.0,147.0,0
37.0,-282.0,29.0,228.0,-298.0,167.0,0
24.0,-265.0,21.0,351.0,-276.0,188.0,0
21.0,-243.0,13.0,466.0,-192.0,215.0,0
23.0,-217.0,16.0,556.0,-142.0,240.0,0
29.0,-194.0,24.0,640.0,-125.0,248.0,0
29.0,-177.0,32.0,716.0,-123.0,233.0,0
18.0,-172.0,34.0,782.0,-148.0,207.0,0
14.0,-176.0,38.0,836.0,-202.0,178.0,0
12.0,-191.0,45.0,881.0,-255.0,156.0,0
21.0,-209.0,54.0,918.0,-290.0,140.0,0
29.0,-226.0,65.0,943.0,-313.0,124.0,0
32.0,-224.0,58.0,970.0,-331.0,101.0,0
39.0,-243.0,79.0,1003.0,-343.0,72.0,0
45.0,-249.0,81.0,1029.0,-340.0,42.0,0
40.0,-255.0,80.0,1038.0,-325.0,16.0,0
39.0,-247.0,82.0,1024.0,-298.0,-12.0,0
38.0,-241.0,80.0,997.0,-254.0,-10.0,0
34.0,-233.0,76.0,963.0,-211.0,8.0,0
32.0,-227.0,73.0,921.0,-191.0,21.0,0
39.0,-223.0,79.0,878.0,-184.0,31.0,0
45.0,-214.0,75.0,841.0,-171.0,40.0,0
55.0,-207.0,76.0,816.0,-143.0,46.0,0
69.0,-194.0,55.0,803.0,-99.0,49.0,0
63.0,-201.0,74.0,786.0,-51.0,42.0,0
64.0,-205.0,72.0,767.0,-2.0,25.0,0
61.0,-212.0,77.0,747.0,46.0,2.0,0
58.0,-220.0,79.0,717.0,90.0,-24.0,0
56.0,-231.0,76.0,674.0,122.0,-50.0,0
53.0,-243.0,78.0,627.0,148.0,-80.0,0
47.0,-252.0,78.0,588.0,166.0,-107.0,0
45.0,-259.0,75.0,544.0,172.0,-126.0,0
42.0,-265.0,68.0,497.0,162.0,-136.0,0
46.0,-262.0,54.0,454.0,147.0,-137.0,0
38.0,-270.0,60.0,412.0,136.0,-134.0,0
31.0,-271.0,58.0,369.0,129.0,-125.0,0
30.0,-270.0,50.0,326.0,123.0,-116.0,0
20.0,-264.0,46.0,282.0,114.0,-103.0,0
16.0,-262.0,43.0,240.0,100.0,-85.0,0
17.0,-253.0,40.0,204.0,84.0,-68.0,0
14.0,-249.0,41.0,176.0,68.0,-47.0,0
12.0,-241.0,38.0,154.0,55.0,-26.0,0
13.0,-235.0,37.0,134.0,43.0,-8.0,0
15.0,-231.0,37.0,125.0,27.0,8.0,0
20.0,-215.0,32.0,118.0,6.0,19.0,0
14.0,-224.0,39.0,114.0,-16.0,24.0,0
17.0,-229.0,37.0,106.0,-33.0,24.0,0
18.0,-233.0,37.0,104.0,-46.0,17.0,0
14.0,-230.0,38.0,102.0,-57.0,-7.0,0
7.0,-227.0,40.0,111.0,-67.0,-12.0,0
13.0,-233.0,33.0,122.0,-71.0,-2.0,0
16.0,-235.0,34.0,127.0,-74.0,-2.0,0
16.0,-237.0,39.0,127.0,-77.0,-6.0,0
19.0,-244.0,38.0,126.0,-80.0,-9.0,0
19.0,-243.0,37.0,122.0,-83.0,-10.0,0
22.0,-251.0,42.0,119.0,-83.0,-12.0,0
25.0,-247.0,38.0,111.0,-80.0,-25.0,0
23.0,-246.0,36.0,103.0,-79.0,-38.0,0
26.0,-249.0,39.0,92.0,-75.0,-46.0,0
27.0,-247.0,40.0,84.0,-70.0,-52.0,0
25.0,-250.0,45.0,75.0,-65.0,-49.0,0
24.0,-249.0,43.0,61.0,-61.0,-36.0,0
32.0,-245.0,46.0,49.0,-51.0,-18.0,0
35.0,-245.0,48.0,51.0,-28.0,-27.0,0
35.0,-242.0,47.0,57.0,-15.0,-35.0,0
34.0,-242.0,49.0,54.0,-4.0,-27.0,0
32.0,-242.0,51.0,46.0,16.0,-11.0,0
32.0,-240.0,50.0,42.0,37.0,4.0,0
29.0,-240.0,50.0,39.0,56.0,14.0,0
30.0,-236.0,50.0,37.0,71.0,22.0,0
28.0,-237.0,52.0,37.0,84.0,29.0,0
28.0,-237.0,56.0,35.0,93.0,35.0,0
17.0,-239.0,58.0,33.0,91.0,38.0,0
26.0,-244.0,57.0,24.0,77.0,55.0,0
27.0,-243.0,59.0,23.0,69.0,54.0,0
21.0,-240.0,60.0,25.0,59.0,41.0,0
21.0,-239.0,56.0,18.0,49.0,36.0,0
21.0,-242.0,59.0,5.0,38.0,31.0,0
20.0,-242.0,61.0,-3.0,28.0,30.0,0
20.0,-243.0,59.0,-12.0,21.0,32.0,0
23.0,-239.0,59.0,-20.0,15.0,32.0,0
24.0,-239.0,59.0,-23.0,7.0,29.0,0
27.0,-241.0,60.0,-25.0,1.0,28.0,0
27.0,-242.0,60.0,-23.0,-7.0,24.0,0
27.0,-242.0,60.0,-24.0,-17.0,26.0,0
28.0,-245.0,59.0,-23.0,-29.0,24.0,0
21.0,-243.0,60.0,-21.0,-43.0,21.0,0
23.0,-246.0,60.0,-22.0,-59.0,22.0,0
25.0,-247.0,59.0,-23.0,-67.0,26.0,0
27.0,-248.0,64.0,-29.0,-66.0,34.0,0
34.0,-247.0,63.0,-35.0,-56.0,39.0,0
37.0,-247.0,63.0,-29.0,-40.0,34.0,0
33.0,-246.0,62.0,-22.0,-29.0,27.0,0
32.0,-244.0,65.0,-14.0,-29.0,17.0,0
35.0,-246.0,66.0,-3.0,-37.0,3.0,0
34.0,-242.0,64.0,11.0,-49.0,-11.0,0
32.0,-240.0,61.0,22.0,-56.0,-25.0,0
31.0,-239.0,61.0,25.0,-48.0,-35.0,0
27.0,-241.0,62.0,26.0,-31.0,-39.0,0
26.0,-239.0,63.0,21.0,-14.0,-42.0,0
25.0,-238.0,61.0,15.0,0.0,-44.0,0
24.0,-236.0,61.0,8.0,15.0,-43.0,0
23.0,-237.0,60.0,-2.0,29.0,-38.0,0
22.0,-236.0,56.0,-9.0,43.0,-32.0,0
21.0,-239.0,60.0,-12.0,57.0,-27.0,0
24.0,-240.0,62.0,-10.0,70.0,-23.0,0
22.0,-231.0,63.0,-2.0,77.0,-21.0,0
20.0,-235.0,65.0,4.0,80.0,-18.0,0
19.0,-232.0,64.0,10.0,77.0,-11.0,0
19.0,-229.0,65.0,14.0,74.0,-2.0,0
17.0,-228.0,60.0,13.0,70.0,7.0,0
20.0,-231.0,66.0,4.0,67.0,17.0,0
20.0,-230.0,66.0,-11.0,68.0,27.0,0
17.0,-232.0,61.0,-27.0,67.0,34.0,0
17.0,-237.0,63.0,-47.0,64.0,41.0,0
14.0,-237.0,60.0,-71.0,58.0,42.0,0
16.0,-243.0,63.0,-97.0,49.0,38.0,0
17.0,-247.0,62.0,-118.0,39.0,33.0,0
12.0,-247.0,63.0,-129.0,25.0,25.0,0
12.0,-247.0,61.0,-136.0,6.0,17.0,0
14.0,-248.0,61.0,-139.0,-9.0,6.0,0
13.0,-245.0,59.0,-142.0,-22.0,0.0,0
10.0,-243.0,58.0,-146.0,-33.0,-3.0,0
17.0,-244.0,54.0,-151.0,-46.0,-7.0,0
16.0,-241.0,52.0,-152.0,-57.0,-11.0,0
19.0,-242.0,54.0,-158.0,-64.0,-14.0,0
23.0,-242.0,57.0,-168.0,-66.0,-18.0,0
24.0,-243.0,52.0,-176.0,-67.0,-22.0,0
28.0,-240.0,52.0,-182.0,-67.0,-24.0,0
31.0,-245.0,50.0,-187.0,-66.0,-26.0,0
30.0,-239.0,53.0,-192.0,-67.0,-27.0,0
31.0,-240.0,52.0,-192.0,-64.0,-27.0,0
30.0,-238.0,46.0,-192.0,-57.0,-27.0,0
30.0,-239.0,49.0,-191.0,-43.0,-28.0,0
30.0,-243.0,50.0,-189.0,-30.0,-22.0,0
29.0,-239.0,51.0,-184.0,-19.0,-18.0,0
33.0,-239.0,51.0,-178.0,-10.0,-12.0,0
30.0,-239.0,48.0,-177.0,2.0,-7.0,0
28.0,-243.0,53.0,-174.0,13.0,-3.0,0
31.0,-244.0,52.0,-170.0,19.0,0.0,0
29.0,-243.0,47.0,-168.0,24.0,6.0,0
29.0,-242.0,48.0,-167.0,28.0,7.0,0
33.0,-247.0,50.0,-170.0,33.0,9.0,0
29.0,-247.0,46.0,-171.0,36.0,8.0,0
32.0,-251.0,51.0,-171.0,34.0,5.0,0
27.0,-251.0,48.0,-172.0,31.0,2.0,0
26.0,-249.0,47.0,-173.0,27.0,-2.0,0
21.0,-246.0,54.0,-171.0,22.0,-7.0,0
24.0,-248.0,51.0,-170.0,17.0,-10.0,0
23.0,-250.0,51.0,-168.0,13.0,-12.0,0
24.0,-247.0,50.0,-168.0,10.0,-14.0,0
21.0,-246.0,54.0,-165.0,4.0,-16.0,0
25.0,-246.0,52.0,-160.0,0.0,-19.0,0
25.0,-248.0,47.0,-156.0,1.0,-19.0,0
19.0,-245.0,47.0,-146.0,4.0,-18.0,0
24.0,-247.0,53.0,-137.0,4.0,-18.0,0
26.0,-246.0,53.0,-130.0,4.0,-17.0,0
27.0,-245.0,52.0,-125.0,1.0,-18.0,0
25.0,-242.0,53.0,-119.0,-4.0,-17.0,0
26.0,-247.0,51.0,-116.0,-7.0,-17.0,0
28.0,-243.0,50.0,-111.0,-10.0,-15.0,0
29.0,-245.0,48.0,-104.0,-11.0,-14.0,0
30.0,-244.0,50.0,-99.0,-10.0,-13.0,0
28.0,-242.0,51.0,-96.0,-9.0,-14.0,0
29.0,-244.0,55.0,-95.0,-8.0,-13.0,0
28.0,-245.0,49.0,-92.0,-5.0,-13.0,0
30.0,-241.0,50.0,-88.0,-3.0,-11.0,0
28.0,-243.0,50.0,-86.0,-1.0,-8.0,0
28.0,-243.0,56.0,-86.0,1.0,-8.0,0
29.0,-241.0,52.0,-87.0,4.0,-6.0,0
28.0,-246.0,54.0,-88.0,5.0,-5.0,0
26.0,-244.0,57.0,-91.0,6.0,-4.0,0
28.0,-244.0,51.0,-92.0,4.0,-4.0,0
27.0,-246.0,55.0,-93.0,3.0,-5.0,0
25.0,-245.0,52.0,-93.0,2.0,-8.0,0
27.0,-246.0,50.0,-89.0,3.0,-10.0,0
25.0,-244.0,49.0,-89.0,5.0,-15.0,0
24.0,-245.0,52.0,-91.0,7.0,-18.0,0
27.0,-246.0,53.0,-94.0,12.0,-18.0,0
25.0,-244.0,52.0,-100.0,15.0,-22.0,0
24.0,-243.0,51.0,-104.0,15.0,-24.0,0
27.0,-248.0,49.0,-110.0,18.0,-25.0,0
23.0,-242.0,50.0,-115.0,20.0,-24.0,0
26.0,-244.0,51.0,-123.0,20.0,-23.0,0
28.0,-245.0,50.0,-130.0,19.0,-23.0,0
28.0,-248.0,52.0,-132.0,19.0,-24.0,0
25.0,-243.0,49.0,-131.0,18.0,-23.0,0
25.0,-244.0,50.0,-130.0,19.0,-23.0,0
25.0,-245.0,48.0,-125.0,21.0,-23.0,0
28.0,-248.0,52.0,-123.0,22.0,-22.0,0
26.0,-244.0,46.0,-118.0,21.0,-22.0,0
26.0,-247.0,51.0,-114.0,19.0,-20.0,0
26.0,-247.0,49.0,-108.0,18.0,-19.0,0
26.0,-245.0,48.0,-108.0,17.0,-17.0,0
27.0,-245.0,46.0,-109.0,20.0,-16.0,0
29.0,-243.0,46.0,-112.0,24.0,-16.0,0
26.0,-245.0,49.0,-113.0,31.0,-16.0,0
27.0,-241.0,48.0,-115.0,33.0,-16.0,0
24.0,-242.0,48.0,-116.0,34.0,-16.0,0
25.0,-245.0,52.0,-118.0,36.0,-14.0,0
26.0,-244.0,48.0,-117.0,36.0,-13.0,0
25.0,-244.0,48.0,-121.0,35.0,-15.0,0
26.0,-246.0,51.0,-122.0,32.0,-16.0,0
25.0,-248.0,49.0,-123.0,29.0,-17.0,0
25.0,-248.0,55.0,-123.0,27.0,-18.0,0
27.0,-249.0,47.0,-120.0,24.0,-19.0,0
24.0,-246.0,47.0,-119.0,22.0,-20.0,0
25.0,-245.0,50.0,-118.0,21.0,-22.0,0
24.0,-246.0,47.0,-119.0,22.0,-22.0,0
25.0,-244.0,46.0,-117.0,25.0,-22.0,0
25.0,-246.0,47.0,-119.0,26.0,-21.0,0
20.0,-243.0,49.0,-117.0,27.0,-22.0,0
23.0,-245.0,50.0,-115.0,30.0,-20.0,0
24.0,-244.0,48.0,-111.0,30.0,-18.0,0
24.0,-245.0,49.0,-107.0,29.0,-19.0,0
27.0,-245.0,45.0,-103.0,28.0,-17.0,0
26.0,-245.0,45.0,-98.0,23.0,-17.0,0
26.0,-246.0,46.0,-95.0,22.0,-16.0,0
27.0,-249.0,42.0,-93.0,21.0,-14.0,0
26.0,-250.0,46.0,-91.0,21.0,-12.0,0
27.0,-246.0,49.0,-90.0,23.0,-11.0,0
25.0,-248.0,47.0,-89.0,25.0,-10.0,0
25.0,-244.0,48.0,-86.0,25.0,-11.0,0
27.0,-245.0,46.0,-85.0,24.0,-12.0,0
28.0,-248.0,44.0,-87.0,21.0,-12.0,0
24.0,-246.0,49.0,-88.0,17.0,-12.0,0
29.0,-246.0,45.0,-88.0,15.0,-12.0,0
27.0,-249.0,48.0,-87.0,17.0,-10.0,0
29.0,-250.0,47.0,-86.0,18.0,-10.0,0
28.0,-245.0,44.0,-84.0,20.0,-9.0,0
28.0,-247.0,47.0,-82.0,21.0,-7.0,0
27.0,-245.0,46.0,-80.0,20.0,-7.0,0
29.0,-249.0,41.0,-79.0,19.0,-6.0,0
28.0,-246.0,38.0,-76.0,20.0,-4.0,0
25.0,-245.0,45.0,-74.0,20.0,-4.0,0
28.0,-249.0,44.0,-72.0,19.0,-3.0,0
28.0,-246.0,44.0,-69.0,16.0,-3.0,0
29.0,-247.0,45.0,-65.0,15.0,-3.0,0
29.0,-252.0,47.0,-61.0,14.0,-3.0,0
27.0,-250.0,44.0,-54.0,12.0,-4.0,0
28.0,-252.0,45.0,-50.0,10.0,-4.0,0
26.0,-249.0,42.0,-46.0,9.0,-5.0,0
25.0,-247.0,42.0,-43.0,11.0,-7.0,0
29.0,-250.0,44.0,-39.0,12.0,-7.0,0
26.0,-248.0,46.0,-36.0,14.0,-10.0,0
27.0,-252.0,46.0,-30.0,13.0,-9.0,0
26.0,-251.0,42.0,-23.0,14.0,-8.0,0
26.0,-248.0,47.0,-19.0,11.0,-10.0,0
26.0,-249.0,45.0,-14.0,7.0,-11.0,0
27.0,-248.0,46.0,-7.0,5.0,-12.0,0
28.0,-250.0,48.0,-1.0,3.0,-10.0,0
25.0,-249.0,43.0,6.0,2.0,-11.0,0
28.0,-249.0,45.0,12.0,0.0,-9.0,0
28.0,-249.0,46.0,17.0,-3.0,-10.0,0
27.0,-250.0,46.0,22.0,-7.0,-12.0,0
25.0,-247.0,49.0,28.0,-10.0,-12.0,0
26.0,-247.0,46.0,32.0,-13.0,-12.0,0
25.0,-246.0,47.0,37.0,-11.0,-12.0,0
22.0,-243.0,44.0,41.0,-14.0,-11.0,0
27.0,-247.0,45.0,44.0,-14.0,-10.0,0
27.0,-244.0,45.0,46.0,-15.0,-11.0,0
28.0,-247.0,46.0,46.0,-17.0,-12.0,0
27.0,-244.0,46.0,44.0,-19.0,-12.0,0
27.0,-243.0,50.0,34.0,-18.0,-11.0,0
27.0,-246.0,43.0,20.0,-14.0,-11.0,0
26.0,-242.0,46.0,3.0,-7.0,-11.0,0
27.0,-244.0,47.0,-13.0,-2.0,-11.0,0
22.0,-243.0,50.0,-27.0,0.0,-10.0,0
28.0,-243.0,46.0,-30.0,-2.0,-12.0,0
26.0,-241.0,48.0,-34.0,-1.0,-11.0,0
26.0,-244.0,47.0,-36.0,0.0,-9.0,0
26.0,-246.0,44.0,-41.0,0.0,-8.0,0
24.0,-245.0,47.0,-42.0,0.0,-8.0,0
23.0,-245.0,49.0,-46.0,2.0,-9.0,0
24.0,-245.0,47.0,-50.0,2.0,-10.0,0
22.0,-245.0,47.0,-53.0,3.0,-11.0,0
24.0,-246.0,48.0,-50.0,2.0,-10.0,0
25.0,-247.0,48.0,-51.0,2.0,-10.0,0
25.0,-246.0,44.0,-50.0,3.0,-8.0,0
24.0,-246.0,49.0,-47.0,2.0,-8.0,0
26.0,-246.0,48.0,-48.0,2.0,-6.0,0
27.0,-247.0,47.0,-45.0,2.0,-4.0,0
27.0,-245.0,46.0,-46.0,0.0,-3.0,0
23.0,-243.0,46.0,-48.0,-2.0,-2.0,0
26.0,-245.0,48.0,-49.0,-4.0,-1.0,0
25.0,-244.0,49.0,-51.0,-4.0,0.0,0
28.0,-244.0,43.0,-54.0,-3.0,0.0,0
28.0,-246.0,51.0,-55.0,-4.0,0.0,0
25.0,-241.0,48.0,-55.0,-3.0,0.0,0
29.0,-246.0,46.0,-53.0,-3.0,-1.0,0
31.0,-245.0,48.0,-53.0,0.0,-1.0,0
28.0,-246.0,48.0,-52.0,0.0,-3.0,0
31.0,-245.0,53.0,-52.0,0.0,-4.0,0
29.0,-247.0,50.0,-53.0,1.0,-4.0,0
31.0,-246.0,49.0,-56.0,-1.0,-5.0,0
31.0,-245.0,49.0,-56.0,1.0,-5.0,0
30.0,-243.0,50.0,-57.0,3.0,-4.0,0
30.0,-246.0,50.0,-56.0,7.0,-4.0,0
27.0,-246.0,50.0,-58.0,9.0,-5.0,0
30.0,-244.0,50.0,-62.0,9.0,-4.0,0
27.0,-245.0,50.0,-62.0,8.0,-6.0,0
30.0,-246.0,49.0,-59.0,7.0,-7.0,0
31.0,-244.0,48.0,-61.0,10.0,-5.0,0
31.0,-245.0,49.0,-63.0,9.0,-7.0,0
30.0,-246.0,48.0,-64.0,7.0,-7.0,0
30.0,-244.0,47.0,-64.0,5.0,-9.0,0
30.0,-246.0,50.0,-66.0,4.0,-9.0,0
26.0,-247.0,47.0,-68.0,5.0,-10.0,0
29.0,-246.0,48.0,-69.0,8.0,-9.0,0
31.0,-249.0,49.0,-67.0,9.0,-9.0,0
28.0,-245.0,49.0,-67.0,11.0,-9.0,0
30.0,-247.0,50.0,-63.0,13.0,-9.0,0
29.0,-248.0,47.0,-59.0,14.0,-8.0,0
31.0,-247.0,48.0,-56.0,16.0,-9.0,0
30.0,-245.0,44.0,-54.0,19.0,-9.0,0
29.0,-244.0,44.0,-49.0,18.0,-10.0,0
28.0,-244.0,47.0,-47.0,20.0,-10.0,0
27.0,-243.0,45.0,-45.0,20.0,-9.0,0
31.0,-245.0,51.0,-44.0,20.0,-9.0,0
30.0,-245.0,51.0,-47.0,17.0,-10.0,0
29.0,-241.0,49.0,-50.0,18.0,-9.0,0
30.0,-248.0,46.0,-53.0,17.0,-10.0,0
33.0,-250.0,47.0,-56.0,17.0,-11.0,0
28.0,-248.0,46.0,-58.0,16.0,-12.0,0
29.0,-246.0,49.0,-60.0,15.0,-12.0,0
28.0,-246.0,48.0,-61.0,15.0,-13.0,0
27.0,-242.0,46.0,-63.0,14.0,-14.0,0
26.0,-245.0,46.0,-63.0,15.0,-14.0,0
26.0,-246.0,45.0,-63.0,18.0,-13.0,0
26.0,-245.0,48.0,-65.0,19.0,-13.0,0
32.0,-245.0,48.0,-65.0,19.0,-13.0,0
28.0,-245.0,47.0,-69.0,19.0,-12.0,0
29.0,-245.0,47.0,-70.0,19.0,-9.0,0
28.0,-246.0,46.0,-70.0,19.0,-8.0,0
30.0,-249.0,43.0,-70.0,18.0,-7.0,0
26.0,-247.0,46.0,-68.0,16.0,-7.0,0
29.0,-248.0,48.0,-65.0,15.0,-8.0,0
27.0,-249.0,48.0,-63.0,14.0,-7.0,0
28.0,-248.0,50.0,-62.0,15.0,-6.0,0
28.0,-246.0,53.0,-59.0,16.0,-8.0,0
29.0,-248.0,48.0,-56.0,20.0,-7.0,0
27.0,-245.0,48.0,-55.0,21.0,-7.0,0
26.0,-245.0,49.0,-56.0,22.0,-7.0,0
26.0,-245.0,47.0,-58.0,23.0,-5.0,0
28.0,-244.0,52.0,-61.0,23.0,-5.0,0
28.0,-244.0,47.0,-65.0,23.0,-3.0,0
29.0,-246.0,47.0,-64.0,21.0,-2.0,0
30.0,-251.0,45.0,-66.0,19.0,-4.0,0
30.0,-246.0,49.0,-64.0,18.0,-4.0,0
31.0,-245.0,46.0,-65.0,19.0,-4.0,0
27.0,-245.0,48.0,-66.0,17.0,-5.0,0
29.0,-245.0,48.0,-66.0,15.0,-5.0,0
30.0,-246.0,46.0,-66.0,17.0,-6.0,0
27.0,-246.0,45.0,-69.0,18.0,-6.0,0
28.0,-245.0,50.0,-66.0,18.0,-5.0,0
27.0,-247.0,47.0,-67.0,19.0,-5.0,0
28.0,-248.0,45.0,-66.0,19.0,-7.0,0
28.0,-244.0,47.0,-63.0,20.0,-5.0,0
27.0,-246.0,49.0,-61.0,18.0,-5.0,0
27.0,-246.0,47.0,-60.0,20.0,-6.0,0
28.0,-248.0,43.0,-57.0,19.0,-6.0,0
25.0,-244.0,45.0,-55.0,19.0,-5.0,0
27.0,-245.0,46.0,-54.0,18.0,-6.0,0
30.0,-248.0,44.0,-53.0,18.0,-8.0,0
29.0,-247.0,45.0,-55.0,16.0,-9.0,0
29.0,-248.0,43.0,-55.0,12.0,-9.0,0
27.0,-244.0,49.0,-54.0,12.0,-10.0,0
31.0,-246.0,44.0,-54.0,12.0,-9.0,0
27.0,-246.0,47.0,-58.0,11.0,-10.0,0
27.0,-246.0,44.0,-59.0,10.0,-9.0,0
26.0,-247.0,49.0,-58.0,13.0,-8.0,0
27.0,-247.0,43.0,-56.0,14.0,-6.0,0
27.0,-248.0,42.0,-57.0,13.0,-4.0,0
30.0,-245.0,43.0,-57.0,10.0,-5.0,0
29.0,-247.0,43.0,-54.0,9.0,-3.0,0
31.0,-245.0,48.0,-56.0,9.0,-3.0,0
28.0,-247.0,47.0,-57.0,9.0,-4.0,0
29.0,-246.0,47.0,-59.0,9.0,-4.0,0
31.0,-247.0,45.0,-60.0,10.0,-4.0,0
29.0,-244.0,43.0,-61.0,10.0,-5.0,0
25.0,-245.0,48.0,-62.0,12.0,-5.0,0
26.0,-244.0,44.0,-63.0,15.0,-6.0,0
25.0,-243.0,46.0,-65.0,15.0,-5.0,0
26.0,-245.0,48.0,-68.0,16.0,-6.0,0
28.0,-243.0,47.0,-68.0,16.0,-6.0,0
28.0,-246.0,49.0,-68.0,15.0,-7.0,0
27.0,-248.0,47.0,-67.0,13.0,-8.0,0
27.0,-246.0,46.0,-66.0,9.0,-8.0,0
28.0,-247.0,42.0,-65.0,8.0,-9.0,0
27.0,-246.0,45.0,-67.0,8.0,-7.0,0
28.0,-246.0,45.0,-66.0,9.0,-7.0,0
30.0,-247.0,46.0,-65.0,10.0,-6.0,0
29.0,-246.0,44.0,-64.0,9.0,-7.0,0
31.0,-248.0,46.0,-64.0,10.0,-8.0,0
29.0,-246.0,47.0,-65.0,12.0,-8.0,0
26.0,-246.0,47.0,-68.0,11.0,-8.0,0
29.0,-245.0,45.0,-68.0,12.0,-10.0,0
27.0,-247.0,45.0,-66.0,13.0,-8.0,0
29.0,-248.0,51.0,-64.0,12.0,-8.0,0
30.0,-244.0,49.0,-64.0,13.0,-6.0,0
30.0,-244.0,48.0,-65.0,13.0,-6.0,0
27.0,-245.0,48.0,-63.0,13.0,-5.0,0
28.0,-245.0,47.0,-64.0,12.0,-5.0,0
27.0,-244.0,45.0,-65.0,8.0,-7.0,0
27.0,-243.0,47.0,-64.0,7.0,-8.0,0
30.0,-244.0,42.0,-63.0,7.0,-8.0,0
31.0,-247.0,44.0,-63.0,6.0,-8.0,0
31.0,-245.0,46.0,-65.0,6.0,-9.0,0
32.0,-245.0,44.0,-68.0,7.0,-10.0,0
30.0,-246.0,42.0,-66.0,7.0,-9.0,0
30.0,-247.0,44.0,-66.0,9.0,-9.0,0
30.0,-248.0,46.0,-63.0,10.0,-10.0,0
28.0,-246.0,49.0,-64.0,11.0,-9.0,0
29.0,-245.0,47.0,-62.0,12.0,-9.0,0
29.0,-246.0,45.0,-62.0,15.0,-9.0,0
27.0,-245.0,44.0,-60.0,16.0,-9.0,0
31.0,-248.0,46.0,-60.0,18.0,-9.0,0
31.0,-249.0,42.0,-64.0,19.0,-10.0,0
30.0,-247.0,45.0,-65.0,19.0,-11.0,0
30.0,-247.0,46.0,-64.0,19.0,-11.0,0
31.0,-251.0,45.0,-64.0,20.0,-11.0,0
28.0,-248.0,46.0,-65.0,19.0,-12.0,0
32.0,-247.0,44.0,-67.0,20.0,-12.0,0
31.0,-247.0,45.0,-65.0,22.0,-11.0,0
25.0,-248.0,48.0,-64.0,20.0,-12.0,0
21.0,-253.0,51.0,-64.0,19.0,-11.0,0
29.0,-245.0,45.0,-63.0,20.0,-10.0,0
26.0,-245.0,44.0,-65.0,20.0,-10.0,0
28.0,-247.0,47.0,-67.0,21.0,-8.0,0
29.0,-245.0,44.0,-68.0,22.0,-7.0,0
29.0,-250.0,48.0,-68.0,21.0,-7.0,0
29.0,-249.0,47.0,-69.0,18.0,-5.0,0
29.0,-248.0,41.0,-69.0,17.0,-5.0,0
30.0,-249.0,45.0,-69.0,15.0,-5.0,0
28.0,-249.0,46.0,-63.0,17.0,-6.0,0
26.0,-248.0,43.0,-61.0,18.0,-6.0,0
38.0,-250.0,41.0,-61.0,20.0,-6.0,0
28.0,-246.0,45.0,-59.0,22.0,-7.0,0
27.0,-245.0,42.0,-60.0,24.0,-6.0,0
29.0,-246.0,43.0,-62.0,25.0,-7.0,0
28.0,-247.0,48.0,-64.0,26.0,-8.0,0
30.0,-248.0,44.0,-64.0,27.0,-7.0,0
28.0,-247.0,46.0,-65.0,27.0,-8.0,0
29.0,-247.0,42.0,-62.0,27.0,-8.0,0
32.0,-250.0,44.0,-57.0,26.0,-6.0,0
26.0,-245.0,45.0,-56.0,25.0,-7.0,0
28.0,-247.0,46.0,-51.0,23.0,-6.0,0
29.0,-256.0,52.0,-50.0,21.0,-6.0,0
29.0,-246.0,44.0,-49.0,19.0,-7.0,0
27.0,-246.0,43.0,-49.0,18.0,-7.0,0
30.0,-247.0,44.0,-51.0,19.0,-6.0,0
30.0,-243.0,43.0,-55.0,18.0,-6.0,0
31.0,-245.0,47.0,-59.0,20.0,-7.0,0
27.0,-246.0,47.0,-58.0,22.0,-7.0,0
29.0,-245.0,48.0,-61.0,25.0,-7.0,0
30.0,-246.0,43.0,-63.0,23.0,-6.0,0
28.0,-245.0,42.0,-65.0,23.0,-6.0,0
28.0,-246.0,43.0,-64.0,21.0,-8.0,0
20.0,-256.0,50.0,-65.0,23.0,-8.0,0
28.0,-249.0,47.0,-64.0,26.0,-9.0,0
27.0,-250.0,45.0,-62.0,27.0,-9.0,0
27.0,-247.0,46.0,-60.0,28.0,-10.0,0
28.0,-247.0,45.0,-60.0,27.0,-9.0,0
26.0,-245.0,44.0,-56.0,28.0,-8.0,0
28.0,-249.0,42.0,-55.0,26.0,-6.0,0
29.0,-248.0,45.0,-54.0,24.0,-6.0,0
28.0,-245.0,48.0,-55.0,21.0,-5.0,0
27.0,-248.0,45.0,-55.0,18.0,-4.0,0
26.0,-248.0,41.0,-53.0,14.0,-2.0,0
41.0,-241.0,36.0,-52.0,12.0,-3.0,0
27.0,-249.0,45.0,-53.0,11.0,-3.0,0
27.0,-249.0,44.0,-55.0,12.0,-4.0,0
30.0,-247.0,47.0,-55.0,11.0,-5.0,0
28.0,-249.0,44.0,-53.0,11.0,-6.0,0
29.0,-249.0,42.0,-50.0,9.0,-7.0,0
29.0,-247.0,43.0,-51.0,10.0,-7.0,0
28.0,-246.0,40.0,-49.0,12.0,-8.0,0
29.0,-248.0,43.0,-48.0,14.0,-9.0,0
26.0,-247.0,41.0,-46.0,16.0,-9.0,0
28.0,-247.0,40.0,-45.0,17.0,-9.0,0
29.0,-240.0,44.0,-44.0,18.0,-8.0,0
27.0,-244.0,46.0,-42.0,19.0,-9.0,0
30.0,-247.0,47.0,-44.0,19.0,-8.0,0
27.0,-247.0,44.0,-43.0,20.0,-8.0,0
30.0,-249.0,42.0,-43.0,18.0,-8.0,0
29.0,-250.0,35.0,-41.0,16.0,-8.0,0
31.0,-248.0,45.0,-40.0,16.0,-9.0,0
26.0,-248.0,43.0,-40.0,15.0,-9.0,0
28.0,-248.0,43.0,-41.0,16.0,-9.0,0
28.0,-249.0,44.0,-41.0,16.0,-7.0,0
28.0,-246.0,43.0,-40.0,15.0,-7.0,0
29.0,-249.0,48.0,-42.0,14.0,-6.0,0
27.0,-244.0,45.0,-47.0,11.0,-6.0,0
28.0,-245.0,42.0,-47.0,10.0,-6.0,0
28.0,-247.0,44.0,-48.0,10.0,-5.0,0
30.0,-250.0,43.0,-49.0,11.0,-6.0,0
28.0,-249.0,44.0,-47.0,9.0,-6.0,0
28.0,-247.0,44.0,-49.0,10.0,-6.0,0
28.0,-245.0,40.0,-51.0,8.0,-6.0,0
30.0,-249.0,45.0,-54.0,9.0,-5.0,0
27.0,-247.0,43.0,-53.0,11.0,-3.0,0
29.0,-246.0,41.0,-56.0,10.0,-4.0,0
29.0,-249.0,39.0,-57.0,10.0,-4.0,0
27.0,-246.0,40.0,-57.0,10.0,-4.0,0
29.0,-248.0,46.0,-56.0,11.0,-4.0,0
30.0,-248.0,42.0,-55.0,13.0,-4.0,0
30.0,-251.0,47.0,-54.0,14.0,-6.0,0
30.0,-250.0,45.0,-55.0,13.0,-8.0,0
29.0,-248.0,42.0,-53.0,12.0,-6.0,0
27.0,-248.0,43.0,-51.0,15.0,-7.0,0
30.0,-252.0,45.0,-49.0,18.0,-5.0,0
30.0,-248.0,44.0,-48.0,18.0,-6.0,0
31.0,-250.0,45.0,-47.0,18.0,-6.0,0
27.0,-246.0,49.0,-44.0,15.0,-6.0,0
31.0,-249.0,43.0,-43.0,15.0,-5.0,0
29.0,-249.0,47.0,-44.0,14.0,-6.0,0
31.0,-244.0,46.0,-41.0,14.0,-6.0,0
28.0,-244.0,44.0,-41.0,14.0,-6.0,0
28.0,-247.0,42.0,-40.0,14.0,-6.0,0
27.0,-247.0,42.0,-40.0,13.0,-5.0,0
28.0,-246.0,44.0,-40.0,11.0,-4.0,0
28.0,-249.0,45.0,-39.0,13.0,-4.0,0
25.0,-247.0,46.0,-38.0,14.0,-6.0,0
29.0,-249.0,44.0,-35.0,15.0,-5.0,0
29.0,-245.0,48.0,-35.0,16.0,-7.0,0
30.0,-248.0,45.0,-32.0,15.0,-6.0,0
31.0,-249.0,45.0,-33.0,16.0,-8.0,0
32.0,-247.0,44.0,-35.0,15.0,-6.0,0
28.0,-246.0,43.0,-38.0,16.0,-6.0,0
30.0,-248.0,41.0,-39.0,18.0,-6.0,0
27.0,-246.0,46.0,-38.0,19.0,-5.0,0
29.0,-246.0,41.0,-39.0,19.0,-5.0,0
29.0,-249.0,42.0,-38.0,17.0,-5.0,0
28.0,-248.0,43.0,-41.0,16.0,-5.0,0
32.0,-247.0,40.0,-42.0,15.0,-4.0,0
29.0,-244.0,43.0,-43.0,15.0,-3.0,0
29.0,-248.0,40.0,-44.0,13.0,-4.0,0
31.0,-246.0,41.0,-43.0,11.0,-3.0,0
29.0,-247.0,37.0,-45.0,10.0,-3.0,0
27.0,-247.0,37.0,-45.0,12.0,-4.0,0
29.0,-251.0,40.0,-43.0,14.0,-3.0,0
27.0,-250.0,43.0,-40.0,17.0,-3.0,0
28.0,-252.0,42.0,-37.0,19.0,-5.0,0
29.0,-252.0,43.0,-34.0,21.0,-6.0,0
29.0,-249.0,39.0,-34.0,21.0,-5.0,0
30.0,-246.0,44.0,-32.0,20.0,-4.0,0
27.0,-244.0,42.0,-32.0,19.0,-5.0,0
25.0,-248.0,40.0,-35.0,17.0,-6.0,0
27.0,-246.0,43.0,-37.0,15.0,-6.0,0
28.0,-247.0,43.0,-39.0,12.0,-4.0,0
27.0,-246.0,44.0,-40.0,8.0,-2.0,0
32.0,-247.0,44.0,-40.0,7.0,-2.0,0
31.0,-250.0,43.0,-39.0,3.0,0.0,0
29.0,-245.0,43.0,-38.0,3.0,1.0,0
27.0,-246.0,43.0,-36.0,2.0,-1.0,0
28.0,-250.0,45.0,-35.0,2.0,-2.0,0
26.0,-249.0,46.0,-33.0,4.0,-3.0,0
30.0,-247.0,42.0,-34.0,5.0,-2.0,0
29.0,-251.0,44.0,-32.0,7.0,-2.0,0
27.0,-247.0,43.0,-33.0,9.0,-3.0,0
28.0,-247.0,43.0,-34.0,10.0,-4.0,0
28.0,-247.0,42.0,-38.0,12.0,-4.0,0
26.0,-246.0,41.0,-39.0,16.0,-5.0,0
29.0,-247.0,44.0,-39.0,15.0,-6.0,0
28.0,-249.0,46.0,-36.0,16.0,-6.0,0
30.0,-249.0,48.0,-33.0,15.0,-6.0,0
28.0,-249.0,48.0,-31.0,15.0,-5.0,0
26.0,-246.0,46.0,-30.0,14.0,-4.0,0
32.0,-248.0,44.0,-26.0,11.0,-4.0,0
30.0,-247.0,47.0,-26.0,11.0,-4.0,0
32.0,-247.0,44.0,-29.0,11.0,-3.0,0
29.0,-244.0,42.0,-34.0,10.0,-3.0,0
28.0,-247.0,47.0,-40.0,8.0,-4.0,0
29.0,-246.0,51.0,-43.0,8.0,-3.0,0
27.0,-249.0,44.0,-44.0,10.0,-2.0,0
28.0,-248.0,39.0,-42.0,11.0,-4.0,0
28.0,-249.0,41.0,-38.0,12.0,-3.0,0
30.0,-247.0,39.0,-36.0,12.0,-5.0,0
28.0,-247.0,44.0,-33.0,13.0,-6.0,0
27.0,-247.0,47.0,-32.0,12.0,-4.0,0
28.0,-249.0,44.0,-29.0,12.0,-4.0,0
28.0,-251.0,49.0,-24.0,13.0,-3.0,0
28.0,-247.0,42.0,-21.0,12.0,-3.0,0
28.0,-250.0,45.0,-18.0,11.0,-2.0,0
29.0,-244.0,46.0,-17.0,10.0,-1.0,0
27.0,-243.0,45.0,-16.0,9.0,-2.0,0
29.0,-249.0,45.0,-16.0,10.0,-3.0,0
29.0,-246.0,47.0,-16.0,12.0,-3.0,0
29.0,-246.0,46.0,-17.0,11.0,-5.0,0
30.0,-244.0,45.0,-22.0,9.0,-4.0,0
30.0,-245.0,47.0,-25.0,8.0,-6.0,0
30.0,-242.0,42.0,-30.0,8.0,-4.0,0
31.0,-245.0,45.0,-31.0,10.0,-5.0,0
30.0,-247.0,47.0,-33.0,14.0,-5.0,0
29.0,-248.0,48.0,-35.0,13.0,-5.0,0
27.0,-246.0,49.0,-34.0,13.0,-5.0,0
28.0,-248.0,45.0,-32.0,14.0,-5.0,0
29.0,-244.0,44.0,-31.0,14.0,-4.0,0
27.0,-246.0,46.0,-32.0,13.0,-3.0,0
30.0,-246.0,48.0,-34.0,13.0,-3.0,0
31.0,-250.0,46.0,-35.0,14.0,-2.0,0
28.0,-248.0,47.0,-34.0,13.0,-4.0,0
29.0,-249.0,46.0,-35.0,14.0,-3.0,0
28.0,-249.0,48.0,-35.0,15.0,-4.0,0
28.0,-246.0,44.0,-33.0,15.0,-5.0,0
28.0,-247.0,46.0,-33.0,17.0,-4.0,0
28.0,-244.0,45.0,-33.0,15.0,-3.0,0
27.0,-245.0,40.0,-30.0,15.0,-4.0,0
28.0,-245.0,42.0,-30.0,14.0,-4.0,0
30.0,-247.0,43.0,-31.0,13.0,-3.0,0
28.0,-247.0,46.0,-35.0,10.0,-3.0,0
28.0,-248.0,44.0,-35.0,10.0,-3.0,0
31.0,-251.0,44.0,-35.0,11.0,-4.0,0
31.0,-246.0,47.0,-33.0,12.0,-3.0,0
31.0,-248.0,40.0,-33.0,13.0,-3.0,0
28.0,-243.0,43.0,-33.0,14.0,-4.0,0
27.0,-244.0,46.0,-37.0,13.0,-5.0,0
31.0,-249.0,44.0,-38.0,14.0,-4.0,0
28.0,-249.0,44.0,-38.0,15.0,-5.0,0
28.0,-248.0,45.0,-38.0,17.0,-4.0,0
28.0,-247.0,42.0,-39.0,16.0,-3.0,0
25.0,-245.0,43.0,-39.0,16.0,-5.0,0
29.0,-248.0,40.0,-41.0,17.0,-6.0,0
27.0,-247.0,45.0,-42.0,17.0,-5.0,0
30.0,-245.0,48.0,-40.0,15.0,-5.0,0
25.0,-246.0,43.0,-39.0,15.0,-4.0,0
29.0,-246.0,42.0,-36.0,16.0,-5.0,0
29.0,-246.0,46.0,-34.0,16.0,-4.0,0
28.0,-247.0,44.0,-32.0,17.0,-6.0,0
28.0,-247.0,46.0,-30.0,16.0,-6.0,0
28.0,-245.0,47.0,-30.0,17.0,-5.0,0
31.0,-249.0,47.0,-30.0,14.0,-6.0,0
26.0,-246.0,49.0,-29.0,15.0,-6.0,0
29.0,-246.0,48.0,-30.0,15.0,-6.0,0
29.0,-245.0,44.0,-29.0,18.0,-5.0,0
27.0,-247.0,49.0,-30.0,17.0,-4.0,0
27.0,-244.0,48.0,-33.0,17.0,-3.0,0
27.0,-247.0,51.0,-34.0,16.0,-6.0,0
28.0,-245.0,49.0,-34.0,14.0,-4.0,0
28.0,-246.0,43.0,-34.0,14.0,-4.0,0
28.0,-245.0,45.0,-35.0,14.0,-4.0,0
27.0,-244.0,46.0,-34.0,14.0,-3.0,0
26.0,-247.0,48.0,-33.0,13.0,-3.0,0
30.0,-246.0,46.0,-32.0,12.0,-4.0,0
29.0,-245.0,45.0,-31.0,13.0,-4.0,0
29.0,-248.0,45.0,-30.0,13.0,-5.0,0
28.0,-245.0,45.0,-29.0,13.0,-4.0,0
30.0,-244.0,48.0,-29.0,12.0,-4.0,0
28.0,-247.0,44.0,-29.0,13.0,-4.0,0
27.0,-248.0,47.0,-29.0,13.0,-5.0,0
29.0,-243.0,47.0,-30.0,14.0,-6.0,0
30.0,-246.0,45.0,-31.0,14.0,-5.0,0
30.0,-246.0,46.0,-34.0,14.0,-2.0,0
30.0,-248.0,44.0,-35.0,14.0,-3.0,0
28.0,-247.0,49.0,-38.0,14.0,-4.0,0
29.0,-244.0,52.0,-37.0,14.0,-3.0,0
29.0,-252.0,47.0,-36.0,15.0,-4.0,0
26.0,-247.0,48.0,-36.0,14.0,-4.0,0
26.0,-246.0,48.0,-35.0,14.0,-5.0,0
31.0,-245.0,44.0,-35.0,14.0,-5.0,0
29.0,-245.0,44.0,-36.0,12.0,-6.0,0
26.0,-244.0,42.0,-36.0,11.0,-6.0,0
32.0,-247.0,45.0,-34.0,11.0,-5.0,0
28.0,-247.0,42.0,-34.0,11.0,-6.0,0
31.0,-248.0,44.0,-35.0,11.0,-7.0,0
29.0,-245.0,46.0,-36.0,13.0,-6.0,0
30.0,-245.0,47.0,-37.0,12.0,-4.0,0
30.0,-248.0,43.0,-39.0,12.0,-4.0,0
27.0,-247.0,46.0,-41.0,12.0,-3.0,0
28.0,-247.0,45.0,-42.0,11.0,-3.0,0
26.0,-249.0,49.0,-43.0,12.0,-2.0,0
27.0,-246.0,44.0,-45.0,12.0,-5.0,0
30.0,-247.0,48.0,-47.0,11.0,-5.0,0
29.0,-247.0,44.0,-46.0,12.0,-4.0,0
28.0,-249.0,45.0,-45.0,12.0,-3.0,0
27.0,-246.0,45.0,-46.0,10.0,-5.0,0
30.0,-247.0,48.0,-46.0,8.0,-3.0,0
30.0,-250.0,43.0,-45.0,9.0,-5.0,0
30.0,-246.0,43.0,-41.0,11.0,-4.0,0
28.0,-244.0,41.0,-39.0,13.0,-4.0,0
33.0,-245.0,44.0,-39.0,12.0,-4.0,0
27.0,-243.0,47.0,-41.0,13.0,-3.0,0
29.0,-248.0,45.0,-43.0,14.0,-3.0,0
30.0,-247.0,46.0,-44.0,15.0,-5.0,0
31.0,-248.0,48.0,-45.0,17.0,-5.0,0
31.0,-248.0,49.0,-46.0,18.0,-6.0,0
29.0,-248.0,47.0,-50.0,17.0,-6.0,0
28.0,-245.0,50.0,-51.0,16.0,-4.0,0
27.0,-248.0,49.0,-52.0,17.0,-6.0,0
29.0,-247.0,46.0,-50.0,16.0,-4.0,0
27.0,-247.0,45.0,-50.0,14.0,-6.0,0
29.0,-245.0,44.0,-48.0,13.0,-7.0,0
29.0,-243.0,47.0,-46.0,13.0,-8.0,0
28.0,-244.0,41.0,-47.0,14.0,-7.0,0
27.0,-246.0,44.0,-50.0,14.0,-4.0,0
29.0,-248.0,41.0,-51.0,13.0,-5.0,0
27.0,-246.0,42.0,-52.0,12.0,-4.0,0
32.0,-248.0,47.0,-47.0,12.0,-3.0,0
29.0,-247.0,45.0,-45.0,11.0,-3.0,0
27.0,-245.0,45.0,-41.0,10.0,-3.0,0
28.0,-245.0,47.0,-39.0,11.0,-3.0,0
29.0,-250.0,48.0,-38.0,12.0,-3.0,0
31.0,-250.0,49.0,-35.0,12.0,-3.0,0
30.0,-249.0,45.0,-31.0,13.0,-4.0,0
30.0,-247.0,49.0,-31.0,14.0,-5.0,0
32.0,-245.0,43.0,-30.0,16.0,-6.0,0
30.0,-247.0,46.0,-32.0,17.0,-7.0,0
26.0,-243.0,47.0,-31.0,17.0,-6.0,0
28.0,-243.0,46.0,-33.0,17.0,-7.0,0
28.0,-246.0,44.0,-35.0,17.0,-5.0,0
29.0,-244.0,47.0,-37.0,18.0,-4.0,0
28.0,-245.0,48.0,-38.0,17.0,-4.0,0
31.0,-247.0,47.0,-39.0,17.0,-2.0,0
28.0,-247.0,49.0,-41.0,16.0,0.0,0
30.0,-245.0,48.0,-43.0,15.0,2.0,0
29.0,-247.0,44.0,-45.0,11.0,3.0,0
30.0,-247.0,45.0,-48.0,12.0,4.0,0
32.0,-249.0,47.0,-49.0,12.0,3.0,0
28.0,-247.0,48.0,-50.0,12.0,2.0,0
31.0,-244.0,49.0,-50.0,12.0,1.0,0
29.0,-246.0,43.0,-50.0,12.0,0.0,0
27.0,-244.0,43.0,-49.0,14.0,-2.0,0
31.0,-247.0,48.0,-46.0,12.0,-1.0,0
26.0,-245.0,45.0,-44.0,14.0,-1.0,0
32.0,-246.0,48.0,-44.0,15.0,-3.0,0
31.0,-244.0,48.0,-43.0,15.0,-5.0,0
30.0,-248.0,44.0,-42.0,15.0,-4.0,0
29.0,-246.0,49.0,-40.0,15.0,-5.0,0
30.0,-247.0,45.0,-41.0,14.0,-5.0,0
30.0,-245.0,44.0,-38.0,16.0,-6.0,0
29.0,-244.0,44.0,-38.0,16.0,-7.0,0
29.0,-246.0,47.0,-40.0,15.0,-8.0,0
28.0,-244.0,44.0,-39.0,15.0,-10.0,0
28.0,-247.0,42.0,-39.0,18.0,-8.0,0
31.0,-247.0,45.0,-39.0,18.0,-10.0,0
27.0,-243.0,47.0,-39.0,17.0,-9.0,0
26.0,-242.0,42.0,-40.0,19.0,-7.0,0
29.0,-246.0,44.0,-42.0,20.0,-9.0,0
28.0,-244.0,48.0,-45.0,20.0,-9.0,0
29.0,-247.0,46.0,-45.0,22.0,-8.0,0
26.0,-243.0,44.0,-45.0,22.0,-8.0,0
28.0,-246.0,47.0,-46.0,24.0,-8.0,0
30.0,-249.0,49.0,-46.0,23.0,-8.0,0
27.0,-248.0,45.0,-45.0,22.0,-8.0,0
28.0,-247.0,43.0,-46.0,20.0,-6.0,0
29.0,-251.0,43.0,-46.0,18.0,-7.0,0
28.0,-246.0,45.0,-46.0,14.0,-5.0,0
28.0,-249.0,46.0,-47.0,13.0,-6.0,0
28.0,-246.0,47.0,-48.0,12.0,-5.0,0
29.0,-249.0,45.0,-46.0,12.0,-6.0,0
28.0,-246.0,48.0,-46.0,12.0,-7.0,0
30.0,-249.0,46.0,-44.0,11.0,-5.0,0
31.0,-246.0,44.0,-42.0,12.0,-4.0,0
28.0,-247.0,46.0,-42.0,15.0,-5.0,0
31.0,-246.0,46.0,-43.0,17.0,-5.0,0
29.0,-244.0,47.0,-45.0,17.0,-6.0,0
28.0,-244.0,44.0,-45.0,19.0,-7.0,0
29.0,-246.0,44.0,-47.0,20.0,-8.0,0
28.0,-243.0,47.0,-51.0,20.0,-6.0,0
29.0,-246.0,45.0,-54.0,19.0,-5.0,0
27.0,-245.0,46.0,-56.0,15.0,-5.0,0
29.0,-246.0,48.0,-54.0,10.0,-4.0,0
26.0,-247.0,49.0,-52.0,9.0,-4.0,0
29.0,-245.0,50.0,-51.0,9.0,-4.0,0
27.0,-245.0,46.0,-49.0,10.0,-4.0,0
29.0,-252.0,46.0,-48.0,12.0,-3.0,0
29.0,-246.0,50.0,-47.0,14.0,-4.0,0
28.0,-245.0,47.0,-46.0,15.0,-5.0,0
28.0,-245.0,45.0,-47.0,14.0,-4.0,0
27.0,-246.0,47.0,-47.0,12.0,-3.0,0
29.0,-244.0,46.0,-48.0,14.0,-2.0,0
29.0,-244.0,48.0,-48.0,14.0,-2.0,0
29.0,-243.0,47.0,-50.0,16.0,-2.0,0
30.0,-244.0,48.0,-53.0,17.0,0.0,0
29.0,-248.0,50.0,-53.0,16.0,-1.0,0
28.0,-244.0,50.0,-51.0,15.0,-1.0,0
29.0,-244.0,51.0,-49.0,12.0,1.0,0
32.0,-248.0,45.0,-48.0,11.0,0.0,0
31.0,-248.0,44.0,-46.0,11.0,-1.0,0
32.0,-248.0,43.0,-45.0,11.0,-2.0,0
28.0,-246.0,49.0,-42.0,12.0,-2.0,0
32.0,-250.0,44.0,-40.0,12.0,-2.0,0
30.0,-247.0,44.0,-40.0,13.0,0.0,0
28.0,-247.0,50.0,-40.0,13.0,-1.0,0
30.0,-244.0,45.0,-42.0,15.0,-1.0,0
30.0,-242.0,48.0,-44.0,17.0,-1.0,0
29.0,-246.0,49.0,-45.0,19.0,-2.0,0
27.0,-245.0,47.0,-45.0,17.0,-3.0,0
30.0,-243.0,46.0,-46.0,17.0,-4.0,0
29.0,-244.0,48.0,-47.0,15.0,-4.0,0
28.0,-244.0,48.0,-46.0,17.0,-4.0,0
28.0,-247.0,45.0,-47.0,16.0,-4.0,0
29.0,-248.0,48.0,-47.0,16.0,-5.0,0
31.0,-244.0,47.0,-44.0,14.0,-5.0,0
31.0,-246.0,49.0,-42.0,15.0,-7.0,0
32.0,-246.0,47.0,-42.0,15.0,-8.0,0
29.0,-247.0,45.0,-42.0,14.0,-6.0,0
29.0,-247.0,43.0,-45.0,15.0,-9.0,0
25.0,-246.0,44.0,-48.0,15.0,-9.0,0
27.0,-247.0,49.0,-48.0,16.0,-9.0,0
31.0,-249.0,41.0,-46.0,16.0,-6.0,0
28.0,-248.0,42.0,-44.0,14.0,-6.0,0
29.0,-245.0,48.0,-43.0,15.0,-6.0,0
30.0,-248.0,45.0,-40.0,17.0,-6.0,0
31.0,-246.0,48.0,-38.0,17.0,-6.0,0
28.0,-247.0,43.0,-37.0,15.0,-6.0,0
29.0,-246.0,45.0,-35.0,14.0,-6.0,0
29.0,-245.0,44.0,-38.0,13.0,-8.0,0
28.0,-250.0,47.0,-39.0,13.0,-7.0,0
31.0,-246.0,47.0,-42.0,15.0,-8.0,0
27.0,-246.0,46.0,-46.0,17.0,-8.0,0
29.0,-248.0,43.0,-49.0,19.0,-7.0,0
30.0,-247.0,49.0,-51.0,19.0,-6.0,0
30.0,-248.0,44.0,-52.0,20.0,-6.0,0
30.0,-247.0,46.0,-53.0,19.0,-4.0,0
28.0,-246.0,44.0,-52.0,19.0,-4.0,0
30.0,-247.0,45.0,-52.0,18.0,-4.0,0
25.0,-246.0,47.0,-52.0,18.0,-4.0,0
26.0,-245.0,45.0,-50.0,16.0,-4.0,0
27.0,-243.0,45.0,-49.0,14.0,-5.0,0
31.0,-247.0,47.0,-50.0,14.0,-5.0,0
30.0,-246.0,45.0,-49.0,16.0,-3.0,0
32.0,-248.0,47.0,-49.0,17.0,-4.0,0
27.0,-248.0,45.0,-44.0,19.0,-6.0,0
27.0,-249.0,51.0,-40.0,18.0,-8.0,0
26.0,-245.0,48.0,-38.0,16.0,-7.0,0
27.0,-246.0,46.0,-39.0,16.0,-8.0,0
29.0,-244.0,48.0,-39.0,16.0,-9.0,0
27.0,-250.0,48.0,-35.0,19.0,-10.0,0
27.0,-247.0,46.0,-32.0,22.0,-9.0,0
29.0,-245.0,47.0,-32.0,26.0,-10.0,0
30.0,-245.0,45.0,-32.0,27.0,-8.0,0
30.0,-246.0,50.0,-32.0,26.0,-9.0,0
27.0,-247.0,48.0,-33.0,25.0,-9.0,0
32.0,-244.0,48.0,-34.0,23.0,-9.0,0
30.0,-246.0,46.0,-34.0,21.0,-8.0,0
30.0,-245.0,48.0,-35.0,20.0,-7.0,0
29.0,-245.0,47.0,-36.0,19.0,-6.0,0
30.0,-244.0,48.0,-36.0,18.0,-7.0,0
27.0,-242.0,47.0,-40.0,16.0,-7.0,0
25.0,-249.0,46.0,-41.0,16.0,-8.0,0
26.0,-245.0,45.0,-40.0,15.0,-6.0,0
30.0,-250.0,46.0,-42.0,17.0,-6.0,0
29.0,-246.0,47.0,-44.0,17.0,-3.0,0
30.0,-246.0,43.0,-45.0,17.0,-4.0,0
28.0,-248.0,46.0,-47.0,17.0,-3.0,0
29.0,-246.0,48.0,-47.0,18.0,-4.0,0
27.0,-248.0,42.0,-48.0,17.0,-5.0,0
27.0,-246.0,46.0,-48.0,16.0,-6.0,0
27.0,-248.0,44.0,-48.0,15.0,-4.0,0
34.0,-260.0,44.0,-46.0,16.0,-5.0,0
28.0,-247.0,49.0,-45.0,17.0,-6.0,0
30.0,-246.0,44.0,-44.0,16.0,-6.0,0
27.0,-247.0,48.0,-44.0,15.0,-7.0,0
28.0,-242.0,45.0,-44.0,14.0,-8.0,0
27.0,-243.0,44.0,-44.0,15.0,-7.0,0
28.0,-243.0,44.0,-45.0,16.0,-6.0,0
26.0,-247.0,43.0,-45.0,17.0,-7.0,0
31.0,-247.0,48.0,-46.0,18.0,-7.0,0
28.0,-244.0,47.0,-46.0,20.0,-4.0,0
31.0,-246.0,46.0,-48.0,19.0,-4.0,0
26.0,-239.0,52.0,-51.0,17.0,-4.0,0
27.0,-245.0,40.0,-52.0,16.0,-4.0,0
30.0,-247.0,44.0,-54.0,15.0,-4.0,0
24.0,-242.0,46.0,-53.0,12.0,-3.0,0
27.0,-244.0,47.0,-54.0,11.0,-4.0,0
27.0,-251.0,48.0,-54.0,9.0,-3.0,0
28.0,-245.0,44.0,-57.0,10.0,-2.0,0
29.0,-244.0,44.0,-60.0,10.0,-1.0,0
30.0,-247.0,46.0,-63.0,11.0,-2.0,0
30.0,-250.0,47.0,-65.0,12.0,-2.0,0
29.0,-245.0,47.0,-65.0,12.0,-3.0,0
21.0,-249.0,59.0,-63.0,13.0,-2.0,0
30.0,-246.0,47.0,-63.0,12.0,-2.0,0
27.0,-247.0,45.0,-61.0,11.0,-4.0,0
31.0,-251.0,49.0,-60.0,10.0,-5.0,0
27.0,-245.0,43.0,-60.0,11.0,-6.0,0
29.0,-246.0,45.0,-58.0,11.0,-6.0,0
29.0,-248.0,49.0,-61.0,10.0,-6.0,0
30.0,-248.0,44.0,-63.0,10.0,-8.0,0
31.0,-246.0,46.0,-64.0,10.0,-8.0,0
29.0,-246.0,47.0,-64.0,10.0,-9.0,0
28.0,-243.0,48.0,-66.0,8.0,-8.0,0
29.0,-255.0,63.0,-66.0,8.0,-7.0,0
30.0,-250.0,48.0,-68.0,12.0,-6.0,0
26.0,-247.0,47.0,-67.0,13.0,-5.0,0
28.0,-246.0,49.0,-63.0,15.0,-7.0,0
30.0,-247.0,48.0,-61.0,15.0,-6.0,0
29.0,-251.0,47.0,-60.0,15.0,-6.0,0
30.0,-247.0,44.0,-59.0,15.0,-4.0,0
30.0,-245.0,47.0,-57.0,13.0,-3.0,0
31.0,-247.0,49.0,-54.0,13.0,-4.0,0
30.0,-248.0,43.0,-52.0,13.0,-3.0,0
27.0,-244.0,47.0,-52.0,12.0,-3.0,0
37.0,-254.0,57.0,-52.0,12.0,-3.0,0
32.0,-247.0,47.0,-53.0,10.0,-3.0,0
28.0,-248.0,49.0,-57.0,11.0,-4.0,0
26.0,-244.0,45.0,-59.0,11.0,-4.0,0
26.0,-244.0,44.0,-62.0,12.0,-4.0,0
27.0,-244.0,48.0,-65.0,12.0,-5.0,0
29.0,-245.0,44.0,-65.0,13.0,-5.0,0
30.0,-244.0,47.0,-65.0,15.0,-6.0,0
29.0,-244.0,45.0,-62.0,17.0,-6.0,0
29.0,-247.0,48.0,-61.0,15.0,-6.0,0
29.0,-249.0,44.0,-61.0,16.0,-6.0,0
45.0,-242.0,51.0,-65.0,17.0,-6.0,0
32.0,-248.0,46.0,-65.0,17.0,-5.0,0
33.0,-246.0,44.0,-65.0,18.0,-5.0,0
26.0,-248.0,45.0,-64.0,19.0,-5.0,0
28.0,-246.0,46.0,-65.0,19.0,-6.0,0
30.0,-248.0,47.0,-68.0,18.0,-6.0,0
30.0,-247.0,42.0,-69.0,18.0,-6.0,0
30.0,-247.0,43.0,-71.0,19.0,-4.0,0
29.0,-245.0,45.0,-72.0,19.0,-5.0,0
27.0,-246.0,44.0,-73.0,19.0,-5.0,0
30.0,-244.0,45.0,-73.0,19.0,-7.0,0
29.0,-245.0,43.0,-69.0,19.0,-7.0,0
29.0,-246.0,47.0,-66.0,21.0,-7.0,0
32.0,-246.0,43.0,-64.0,20.0,-8.0,0
30.0,-247.0,49.0,-62.0,17.0,-8.0,0
27.0,-246.0,42.0,-61.0,17.0,-6.0,0
26.0,-250.0,49.0,-63.0,15.0,-5.0,0
32.0,-249.0,46.0,-64.0,15.0,-4.0,0
28.0,-248.0,43.0,-65.0,15.0,-6.0,0
30.0,-248.0,45.0,-67.0,17.0,-5.0,0
30.0,-244.0,44.0,-70.0,17.0,-6.0,0
29.0,-247.0,45.0,-72.0,17.0,-5.0,0
30.0,-249.0,45.0,-71.0,16.0,-5.0,0
29.0,-247.0,44.0,-70.0,16.0,-4.0,0
28.0,-247.0,47.0,-72.0,16.0,-5.0,0
29.0,-248.0,43.0,-70.0,18.0,-5.0,0
31.0,-247.0,43.0,-70.0,19.0,-6.0,0
30.0,-244.0,45.0,-67.0,19.0,-6.0,0
29.0,-246.0,42.0,-65.0,17.0,-8.0,0
27.0,-246.0,47.0,-68.0,16.0,-9.0,0
29.0,-246.0,45.0,-68.0,16.0,-7.0,0
29.0,-248.0,46.0,-69.0,17.0,-8.0,0
27.0,-249.0,42.0,-70.0,18.0,-8.0,0
28.0,-250.0,47.0,-70.0,18.0,-8.0,0
28.0,-248.0,47.0,-69.0,20.0,-9.0,0
28.0,-248.0,46.0,-68.0,21.0,-10.0,0
32.0,-249.0,43.0,-65.0,20.0,-10.0,0
26.0,-246.0,45.0,-64.0,20.0,-11.0,0
26.0,-244.0,43.0,-65.0,20.0,-11.0,0
28.0,-246.0,44.0,-65.0,19.0,-13.0,0
27.0,-248.0,42.0,-66.0,18.0,-10.0,0
28.0,-247.0,44.0,-69.0,16.0,-10.0,0
28.0,-248.0,48.0,-73.0,14.0,-10.0,0
29.0,-250.0,46.0,-77.0,14.0,-9.0,0
31.0,-249.0,44.0,-77.0,14.0,-8.0,0
31.0,-249.0,42.0,-79.0,16.0,-5.0,0
30.0,-249.0,42.0,-79.0,16.0,-5.0,0
30.0,-244.0,41.0,-77.0,15.0,-6.0,0
30.0,-248.0,42.0,-74.0,16.0,-6.0,0
28.0,-249.0,45.0,-73.0,15.0,-7.0,0
28.0,-247.0,46.0,-69.0,18.0,-8.0,0
29.0,-246.0,46.0,-67.0,19.0,-8.0,0
29.0,-248.0,50.0,-64.0,20.0,-9.0,0
31.0,-246.0,44.0,-63.0,19.0,-9.0,0
27.0,-243.0,41.0,-62.0,19.0,-9.0,0
32.0,-247.0,46.0,-61.0,16.0,-8.0,0
29.0,-246.0,45.0,-62.0,16.0,-9.0,0
30.0,-247.0,50.0,-62.0,14.0,-9.0,0
27.0,-244.0,43.0,-61.0,12.0,-7.0,0
29.0,-247.0,43.0,-60.0,10.0,-6.0,0
29.0,-244.0,41.0,-60.0,9.0,-4.0,0
30.0,-245.0,43.0,-62.0,9.0,-4.0,0
31.0,-249.0,42.0,-65.0,6.0,-3.0,0
31.0,-245.0,44.0,-63.0,5.0,-3.0,0
32.0,-249.0,42.0,-67.0,4.0,-4.0,0
31.0,-247.0,43.0,-67.0,3.0,-6.0,0
31.0,-245.0,44.0,-68.0,4.0,-5.0,0
29.0,-246.0,44.0,-68.0,6.0,-7.0,0
33.0,-250.0,43.0,-68.0,8.0,-7.0,0
31.0,-246.0,42.0,-67.0,12.0,-7.0,0
28.0,-248.0,42.0,-65.0,15.0,-8.0,0
31.0,-248.0,44.0,-62.0,17.0,-8.0,0
30.0,-251.0,44.0,-60.0,19.0,-8.0,0
31.0,-245.0,45.0,-58.0,19.0,-7.0,0
30.0,-247.0,44.0,-58.0,19.0,-5.0,0
30.0,-248.0,44.0,-56.0,16.0,-4.0,0
32.0,-249.0,44.0,-54.0,16.0,-5.0,0
31.0,-250.0,41.0,-53.0,14.0,-4.0,0
27.0,-246.0,42.0,-51.0,12.0,-3.0,0
29.0,-249.0,45.0,-50.0,10.0,-5.0,0
32.0,-248.0,43.0,-48.0,9.0,-4.0,0
28.0,-246.0,42.0,-48.0,9.0,-3.0,0
30.0,-250.0,41.0,-49.0,9.0,-2.0,0
29.0,-247.0,43.0,-48.0,11.0,-3.0,0
29.0,-246.0,46.0,-48.0,14.0,-2.0,0
32.0,-250.0,42.0,-45.0,14.0,-3.0,0
29.0,-247.0,46.0,-45.0,16.0,-5.0,0
32.0,-249.0,39.0,-43.0,18.0,-4.0,0
29.0,-245.0,44.0,-44.0,19.0,-4.0,0
26.0,-249.0,41.0,-44.0,20.0,-5.0,0
27.0,-246.0,44.0,-46.0,21.0,-6.0,0
28.0,-247.0,41.0,-47.0,20.0,-7.0,0
29.0,-248.0,44.0,-49.0,18.0,-7.0,0
28.0,-248.0,40.0,-51.0,18.0,-6.0,0
27.0,-247.0,44.0,-53.0,17.0,-7.0,0
29.0,-249.0,41.0,-53.0,18.0,-7.0,0
27.0,-246.0,46.0,-53.0,19.0,-8.0,0
31.0,-247.0,46.0,-55.0,19.0,-8.0,0
29.0,-251.0,45.0,-55.0,19.0,-8.0,0
28.0,-250.0,43.0,-55.0,17.0,-8.0,0
29.0,-246.0,44.0,-57.0,18.0,-7.0,0
29.0,-246.0,45.0,-55.0,19.0,-8.0,0
29.0,-246.0,45.0,-54.0,22.0,-7.0,0
30.0,-248.0,43.0,-52.0,22.0,-7.0,0
29.0,-246.0,43.0,-51.0,24.0,-8.0,0
30.0,-249.0,43.0,-49.0,24.0,-7.0,0
29.0,-246.0,43.0,-46.0,24.0,-6.0,0
28.0,-247.0,40.0,-43.0,24.0,-6.0,0
28.0,-247.0,43.0,-41.0,22.0,-6.0,0
29.0,-243.0,44.0,-36.0,22.0,-7.0,0
28.0,-246.0,45.0,-35.0,20.0,-5.0,0
28.0,-245.0,46.0,-32.0,22.0,-5.0,0
28.0,-250.0,46.0,-30.0,20.0,-5.0,0
29.0,-246.0,45.0,-28.0,20.0,-6.0,0
29.0,-249.0,45.0,-26.0,21.0,-7.0,0
33.0,-246.0,40.0,-26.0,21.0,-7.0,0
29.0,-246.0,45.0,-27.0,22.0,-10.0,0
30.0,-248.0,45.0,-29.0,24.0,-9.0,0
28.0,-248.0,42.0,-31.0,25.0,-10.0,0
32.0,-248.0,41.0,-33.0,24.0,-9.0,0
27.0,-246.0,40.0,-39.0,24.0,-11.0,0
27.0,-245.0,45.0,-40.0,21.0,-10.0,0
29.0,-246.0,45.0,-39.0,19.0,-12.0,0
26.0,-245.0,42.0,-35.0,15.0,-9.0,0
25.0,-245.0,39.0,-29.0,7.0,-7.0,0
27.0,-246.0,42.0,-24.0,4.0,-5.0,0
26.0,-251.0,37.0,-19.0,3.0,-2.0,0
31.0,-247.0,39.0,-14.0,7.0,-2.0,0
32.0,-246.0,40.0,-11.0,14.0,-4.0,0
30.0,-248.0,43.0,-4.0,25.0,-9.0,0
34.0,-251.0,41.0,1.0,36.0,-17.0,0
33.0,-249.0,48.0,6.0,45.0,-28.0,0
32.0,-252.0,52.0,10.0,46.0,-40.0,0
31.0,-249.0,46.0,12.0,46.0,-53.0,0
32.0,-250.0,50.0,15.0,43.0,-62.0,0
25.0,-242.0,51.0,21.0,38.0,-60.0,0
28.0,-239.0,42.0,32.0,30.0,-45.0,0
35.0,-240.0,42.0,41.0,38.0,-24.0,0
36.0,-239.0,43.0,38.0,41.0,-22.0,0
31.0,-239.0,47.0,32.0,25.0,-31.0,0
27.0,-246.0,52.0,26.0,1.0,-22.0,0
29.0,-245.0,52.0,37.0,-22.0,-13.0,0
35.0,-250.0,45.0,53.0,-36.0,-16.0,0
37.0,-251.0,41.0,55.0,-27.0,-24.0,0
35.0,-257.0,44.0,49.0,0.0,-35.0,0
34.0,-258.0,43.0,34.0,21.0,-43.0,0
16.0,-258.0,32.0,10.0,32.0,-35.0,0
22.0,-261.0,44.0,-32.0,57.0,-15.0,0
34.0,-259.0,53.0,-58.0,68.0,-7.0,0
36.0,-254.0,51.0,-48.0,59.0,-4.0,0
36.0,-255.0,47.0,-21.0,49.0,7.0,0
38.0,-249.0,45.0,-7.0,42.0,28.0,0
50.0,-251.0,44.0,-4.0,41.0,49.0,0
54.0,-250.0,42.0,4.0,62.0,56.0,0
45.0,-253.0,52.0,4.0,93.0,41.0,0
4.0,-248.0,51.0,-15.0,111.0,16.0,0
-2.0,-242.0,51.0,-60.0,116.0,28.0,0
-5.0,-237.0,62.0,-113.0,95.0,36.0,0
4.0,-235.0,58.0,-130.0,49.0,52.0,0
17.0,-237.0,53.0,-113.0,27.0,57.0,0
24.0,-234.0,44.0,-88.0,26.0,57.0,0
26.0,-230.0,42.0,-74.0,42.0,56.0,0
35.0,-232.0,38.0,-79.0,57.0,50.0,0
35.0,-231.0,40.0,-97.0,61.0,33.0,0
27.0,-234.0,41.0,-121.0,48.0,20.0,0
26.0,-232.0,39.0,-131.0,28.0,14.0,0
28.0,-235.0,37.0,-144.0,15.0,13.0,0
33.0,-237.0,42.0,-173.0,13.0,18.0,0
38.0,-243.0,40.0,-199.0,20.0,21.0,0
34.0,-244.0,45.0,-216.0,22.0,21.0,0
35.0,-248.0,46.0,-227.0,13.0,22.0,0
34.0,-248.0,47.0,-236.0,7.0,24.0,0
36.0,-247.0,46.0,-245.0,-1.0,20.0,0
34.0,-245.0,40.0,-254.0,-6.0,14.0,0
30.0,-246.0,39.0,-263.0,-8.0,11.0,0
30.0,-244.0,46.0,-268.0,-9.0,7.0,0
30.0,-248.0,44.0,-269.0,-7.0,4.0,0
30.0,-247.0,45.0,-269.0,-3.0,1.0,0
29.0,-246.0,40.0,-269.0,4.0,-2.0,0
29.0,-248.0,44.0,-273.0,11.0,-3.0,0
27.0,-245.0,46.0,-276.0,14.0,-3.0,0
29.0,-251.0,48.0,-279.0,15.0,-4.0,0
29.0,-253.0,49.0,-271.0,17.0,-7.0,0
29.0,-254.0,46.0,-261.0,20.0,-10.0,0
28.0,-254.0,45.0,-250.0,26.0,-10.0,0
28.0,-256.0,38.0,-237.0,28.0,-8.0,0
28.0,-257.0,38.0,-220.0,24.0,-6.0,0
30.0,-256.0,34.0,-195.0,13.0,-2.0,0
28.0,-255.0,34.0,-161.0,-2.0,1.0,0
30.0,-253.0,30.0,-131.0,-11.0,0.0,0
29.0,-256.0,35.0,-109.0,-16.0,-1.0,0
29.0,-255.0,30.0,-91.0,-14.0,-2.0,0
33.0,-258.0,28.0,-73.0,-9.0,-7.0,0
19.0,-260.0,27.0,-51.0,0.0,-12.0,0
23.0,-256.0,24.0,-30.0,2.0,-7.0,0
23.0,-256.0,32.0,-6.0,11.0,-5.0,0
24.0,-257.0,26.0,19.0,17.0,-3.0,0
30.0,-257.0,27.0,42.0,19.0,-1.0,0
30.0,-255.0,30.0,59.0,22.0,1.0,0
23.0,-254.0,32.0,76.0,17.0,3.0,0
19.0,-255.0,34.0,96.0,10.0,6.0,0
22.0,-256.0,30.0,121.0,-1.0,6.0,0
21.0,-255.0,28.0,146.0,-13.0,4.0,0
21.0,-256.0,29.0,168.0,-22.0,4.0,0
27.0,-256.0,27.0,187.0,-25.0,5.0,0
27.0,-256.0,26.0,209.0,-24.0,5.0,0
29.0,-256.0,31.0,226.0,-17.0,2.0,0
24.0,-255.0,22.0,240.0,-11.0,-1.0,0
15.0,-254.0,28.0,248.0,-9.0,-4.0,0
17.0,-253.0,32.0,253.0,-8.0,-6.0,0
15.0,-252.0,34.0,254.0,-9.0,-8.0,0
21.0,-253.0,37.0,247.0,-12.0,-7.0,0
20.0,-253.0,37.0,236.0,-8.0,-4.0,0
22.0,-253.0,36.0,224.0,-3.0,5.0,0
26.0,-249.0,37.0,212.0,0.0,14.0,0
26.0,-248.0,37.0,200.0,4.0,23.0,0
31.0,-245.0,38.0,180.0,7.0,31.0,0
32.0,-245.0,43.0,155.0,6.0,35.0,0
32.0,-242.0,44.0,131.0,2.0,40.0,0
33.0,-239.0,45.0,108.0,-3.0,44.0,0
33.0,-235.0,47.0,89.0,-10.0,47.0,0
33.0,-235.0,45.0,67.0,-17.0,47.0,0
34.0,-234.0,49.0,45.0,-26.0,46.0,0
35.0,-236.0,45.0,23.0,-35.0,44.0,0
34.0,-236.0,49.0,5.0,-42.0,41.0,0
34.0,-235.0,53.0,-12.0,-47.0,36.0,0
34.0,-238.0,50.0,-25.0,-46.0,30.0,0
34.0,-237.0,55.0,-37.0,-45.0,24.0,0
34.0,-240.0,56.0,-51.0,-39.0,17.0,0
40.0,-241.0,55.0,-61.0,-35.0,10.0,0
36.0,-241.0,54.0,-68.0,-26.0,4.0,0
28.0,-244.0,57.0,-72.0,-18.0,0.0,0
15.0,-246.0,51.0,-74.0,-15.0,-3.0,0
16.0,-249.0,54.0,-69.0,-28.0,-5.0,0
21.0,-251.0,54.0,-59.0,-41.0,-8.0,0
30.0,-247.0,55.0,-42.0,-48.0,-11.0,0
38.0,-244.0,60.0,-27.0,-44.0,-12.0,0
50.0,-245.0,62.0,-14.0,-30.0,-8.0,0
59.0,-240.0,62.0,-9.0,-6.0,10.0,0
64.0,-239.0,63.0,-9.0,26.0,29.0,0
62.0,-239.0,63.0,-13.0,56.0,36.0,0
48.0,-237.0,59.0,-24.0,71.0,38.0,0
34.0,-240.0,57.0,-31.0,66.0,35.0,0
33.0,-239.0,52.0,-34.0,49.0,31.0,0
37.0,-238.0,51.0,-32.0,35.0,29.0,0
38.0,-237.0,52.0,-34.0,38.0,28.0,0
26.0,-238.0,55.0,-42.0,46.0,27.0,0
22.0,-240.0,55.0,-51.0,47.0,29.0,0
17.0,-240.0,57.0,-53.0,44.0,28.0,0
12.0,-239.0,55.0,-56.0,42.0,33.0,0
15.0,-243.0,56.0,-63.0,39.0,38.0,0
10.0,-242.0,53.0,-74.0,37.0,43.0,0
4.0,-243.0,56.0,-88.0,35.0,46.0,0
6.0,-246.0,54.0,-104.0,30.0,50.0,0
8.0,-246.0,52.0,-112.0,22.0,52.0,0
10.0,-245.0,52.0,-109.0,14.0,52.0,0
16.0,-247.0,51.0,-102.0,5.0,48.0,0
15.0,-245.0,53.0,-94.0,-4.0,39.0,0
15.0,-249.0,50.0,-85.0,-17.0,28.0,0
15.0,-248.0,45.0,-78.0,-25.0,14.0,0
13.0,-247.0,49.0,-69.0,-27.0,4.0,0
20.0,-248.0,44.0,-61.0,-23.0,-1.0,0
19.0,-249.0,43.0,-54.0,-16.0,-5.0,0
22.0,-251.0,43.0,-49.0,-7.0,-10.0,0
23.0,-249.0,41.0,-46.0,5.0,-13.0,0
28.0,-254.0,40.0,-43.0,19.0,-15.0,0
28.0,-254.0,45.0,-37.0,32.0,-19.0,0
31.0,-254.0,46.0,-25.0,43.0,-24.0,0
27.0,-254.0,40.0,-11.0,51.0,-28.0,0
28.0,-254.0,37.0,6.0,52.0,-31.0,0
26.0,-251.0,37.0,20.0,52.0,-30.0,0
24.0,-249.0,36.0,35.0,50.0,-29.0,0
22.0,-250.0,37.0,50.0,50.0,-28.0,0
22.0,-250.0,39.0,61.0,53.0,-26.0,0
24.0,-252.0,37.0,69.0,54.0,-22.0,0
21.0,-250.0,37.0,77.0,53.0,-18.0,0
25.0,-250.0,39.0,80.0,54.0,-16.0,0
26.0,-252.0,39.0,84.0,54.0,-15.0,0
25.0,-250.0,39.0,86.0,52.0,-14.0,0
25.0,-248.0,40.0,87.0,49.0,-17.0,0
23.0,-248.0,43.0,88.0,49.0,-19.0,0
27.0,-250.0,39.0,86.0,47.0,-25.0,0
25.0,-248.0,39.0,80.0,47.0,-32.0,0
24.0,-245.0,44.0,73.0,48.0,-35.0,0
23.0,-247.0,44.0,66.0,51.0,-39.0,0
28.0,-246.0,46.0,60.0,58.0,-42.0,0
28.0,-242.0,43.0,52.0,65.0,-42.0,0
26.0,-242.0,49.0,44.0,68.0,-44.0,0
31.0,-242.0,49.0,36.0,68.0,-43.0,0
29.0,-243.0,50.0,29.0,68.0,-39.0,0
26.0,-241.0,50.0,22.0,68.0,-34.0,0
26.0,-243.0,47.0,14.0,64.0,-32.0,0
23.0,-244.0,49.0,6.0,61.0,-29.0,0
25.0,-240.0,46.0,-1.0,56.0,-27.0,0
22.0,-241.0,49.0,-7.0,48.0,-25.0,0
23.0,-239.0,50.0,-15.0,42.0,-26.0,0
24.0,-242.0,53.0,-21.0,34.0,-26.0,0
23.0,-241.0,57.0,-23.0,30.0,-27.0,0
27.0,-243.0,59.0,-25.0,28.0,-28.0,0
27.0,-244.0,56.0,-26.0,25.0,-30.0,0
29.0,-246.0,59.0,-23.0,23.0,-29.0,0
30.0,-249.0,58.0,-18.0,22.0,-30.0,0
33.0,-244.0,60.0,-12.0,25.0,-29.0,0
33.0,-246.0,59.0,-8.0,28.0,-26.0,0
35.0,-243.0,60.0,-3.0,31.0,-27.0,0
37.0,-245.0,60.0,4.0,30.0,-25.0,0
34.0,-242.0,58.0,9.0,30.0,-24.0,0
35.0,-241.0,57.0,17.0,30.0,-22.0,0
36.0,-243.0,56.0,25.0,30.0,-21.0,0
40.0,-244.0,55.0,30.0,31.0,-20.0,0
38.0,-244.0,56.0,37.0,34.0,-19.0,0
37.0,-245.0,58.0,46.0,35.0,-15.0,0
37.0,-244.0,53.0,53.0,36.0,-12.0,0
36.0,-244.0,53.0,59.0,38.0,-8.0,0
33.0,-243.0,51.0,67.0,39.0,-7.0,0
34.0,-246.0,47.0,72.0,42.0,-4.0,0
36.0,-246.0,49.0,72.0,44.0,-2.0,0
33.0,-244.0,50.0,74.0,45.0,-2.0,0
30.0,-245.0,49.0,75.0,47.0,-3.0,0
32.0,-245.0,52.0,75.0,51.0,-2.0,0
30.0,-248.0,49.0,77.0,56.0,-2.0,0
29.0,-245.0,45.0,78.0,59.0,-2.0,0
29.0,-245.0,47.0,78.0,62.0,-2.0,0
29.0,-246.0,43.0,77.0,65.0,-2.0,0
28.0,-243.0,44.0,75.0,66.0,-1.0,0
27.0,-243.0,47.0,75.0,63.0,-1.0,0
27.0,-241.0,43.0,75.0,60.0,-1.0,0
29.0,-240.0,45.0,74.0,56.0,0.0,0
29.0,-239.0,50.0,71.0,52.0,2.0,0
