ax,ay,az,gx,gy,gz,label
-3.0,-249.0,-66.0,-4.0,65.0,4.0,0
-1.0,-248.0,-65.0,-4.0,65.0,3.0,0
-5.0,-248.0,-68.0,-3.0,64.0,4.0,0
-4.0,-249.0,-69.0,-2.0,66.0,2.0,0
-8.0,-252.0,-65.0,-2.0,65.0,4.0,0
0.0,-249.0,-70.0,1.0,64.0,2.0,0
-4.0,-248.0,-67.0,3.0,64.0,4.0,0
-4.0,-251.0,-63.0,3.0,64.0,2.0,0
-3.0,-251.0,-66.0,3.0,62.0,5.0,0
-3.0,-249.0,-64.0,3.0,63.0,2.0,0
-5.0,-247.0,-69.0,4.0,63.0,4.0,0
-5.0,-248.0,-65.0,4.0,63.0,3.0,0
-3.0,-251.0,-67.0,2.0,63.0,5.0,0
-3.0,-248.0,-64.0,-1.0,63.0,2.0,0
-2.0,-248.0,-64.0,-2.0,63.0,3.0,0
-4.0,-250.0,-64.0,-3.0,61.0,1.0,0
-5.0,-249.0,-65.0,-3.0,62.0,2.0,0
-5.0,-249.0,-64.0,-5.0,63.0,1.0,0
-4.0,-248.0,-64.0,-7.0,63.0,2.0,0
-6.0,-250.0,-66.0,-8.0,63.0,-1.0,0
-5.0,-249.0,-63.0,-10.0,63.0,2.0,0
-2.0,-251.0,-67.0,-11.0,62.0,0.0,0
-4.0,-248.0,-66.0,-13.0,62.0,1.0,0
-5.0,-249.0,-63.0,-15.0,59.0,-1.0,0
-3.0,-250.0,-69.0,-13.0,59.0,1.0,0
-7.0,-245.0,-66.0,-13.0,58.0,-2.0,0
-5.0,-251.0,-65.0,-15.0,56.0,0.0,0
-4.0,-247.0,-61.0,-14.0,56.0,-3.0,0
-4.0,-253.0,-64.0,-14.0,56.0,-1.0,0
-4.0,-246.0,-64.0,-14.0,57.0,-2.0,0
-4.0,-247.0,-63.0,-15.0,55.0,0.0,0
-4.0,-247.0,-69.0,-15.0,56.0,-3.0,0
-2.0,-249.0,-62.0,-16.0,59.0,0.0,0
-2.0,-249.0,-66.0,-17.0,59.0,-3.0,0
-7.0,-246.0,-64.0,-18.0,60.0,0.0,0
-4.0,-248.0,-66.0,-19.0,59.0,-2.0,0
-8.0,-250.0,-68.0,-19.0,60.0,0.0,0
-4.0,-247.0,-65.0,-19.0,60.0,-3.0,0
-3.0,-246.0,-67.0,-20.0,61.0,1.0,0
-3.0,-248.0,-66.0,-21.0,60.0,-1.0,0
-6.0,-251.0,-66.0,-22.0,59.0,2.0,0
-3.0,-251.0,-65.0,-21.0,59.0,0.0,0
-4.0,-249.0,-68.0,-23.0,60.0,1.0,0
-3.0,-249.0,-68.0,-24.0,60.0,-2.0,0
-5.0,-252.0,-64.0,-24.0,59.0,0.0,0
-2.0,-250.0,-64.0,-25.0,58.0,-1.0,0
-6.0,-249.0,-64.0,-25.0,58.0,1.0,0
-3.0,-251.0,-68.0,-24.0,57.0,-2.0,0
-5.0,-250.0,-66.0,-21.0,57.0,0.0,0
-4.0,-248.0,-67.0,-20.0,58.0,-2.0,0
-4.0,-250.0,-66.0,-19.0,60.0,-1.0,0
-3.0,-249.0,-66.0,-16.0,60.0,-4.0,0
-3.0,-250.0,-64.0,-15.0,62.0,-1.0,0
-2.0,-249.0,-67.0,-16.0,62.0,-3.0,0
-3.0,-249.0,-65.0,-17.0,63.0,-2.0,0
-4.0,-249.0,-64.0,-17.0,62.0,-4.0,0
-5.0,-251.0,-66.0,-19.0,62.0,-2.0,0
-3.0,-251.0,-66.0,-21.0,62.0,-4.0,0
-5.0,-249.0,-65.0,-22.0,61.0,-2.0,0
-3.0,-249.0,-65.0,-21.0,61.0,-4.0,0
-3.0,-249.0,-68.0,-20.0,60.0,-1.0,0
-4.0,-248.0,-65.0,-18.0,61.0,-2.0,0
-6.0,-247.0,-64.0,-18.0,62.0,1.0,0
-4.0,-249.0,-67.0,-19.0,60.0,-1.0,0
-3.0,-251.0,-65.0,-22.0,60.0,1.0,0
-6.0,-248.0,-65.0,-24.0,60.0,-3.0,0
-7.0,-251.0,-65.0,-25.0,58.0,-1.0,0
-3.0,-250.0,-68.0,-25.0,57.0,-3.0,0
-5.0,-250.0,-67.0,-23.0,56.0,-1.0,0
-2.0,-252.0,-63.0,-20.0,55.0,-4.0,0
-4.0,-251.0,-65.0,-17.0,58.0,-1.0,0
-2.0,-252.0,-67.0,-13.0,59.0,-3.0,0
-5.0,-251.0,-66.0,-10.0,61.0,-1.0,0
-6.0,-249.0,-68.0,-11.0,63.0,-2.0,0
-6.0,-246.0,-70.0,-12.0,64.0,1.0,0
-3.0,-247.0,-66.0,-12.0,66.0,-1.0,0
-1.0,-249.0,-65.0,-13.0,67.0,1.0,0
-2.0,-251.0,-63.0,-14.0,68.0,0.0,0
-3.0,-250.0,-64.0,-12.0,68.0,2.0,0
-6.0,-248.0,-70.0,-11.0,67.0,0.0,0
-3.0,-252.0,-68.0,-8.0,67.0,2.0,0
-3.0,-253.0,-63.0,-3.0,67.0,1.0,0
-2.0,-252.0,-67.0,0.0,67.0,1.0,0
-5.0,-249.0,-67.0,3.0,66.0,-2.0,0
-7.0,-249.0,-66.0,6.0,66.0,0.0,0
-4.0,-249.0,-66.0,11.0,64.0,-2.0,0
-1.0,-250.0,-68.0,13.0,64.0,0.0,0
-3.0,-251.0,-68.0,13.0,63.0,-4.0,0
-3.0,-248.0,-65.0,13.0,64.0,0.0,0
-5.0,-246.0,-68.0,11.0,64.0,-3.0,0
-4.0,-248.0,-65.0,7.0,62.0,2.0,0
-2.0,-251.0,-66.0,2.0,60.0,-1.0,0
-4.0,-247.0,-65.0,-1.0,59.0,2.0,0
-4.0,-250.0,-65.0,-4.0,58.0,-1.0,0
-2.0,-248.0,-68.0,-9.0,57.0,2.0,0
-5.0,-248.0,-62.0,-13.0,56.0,0.0,0
-6.0,-246.0,-66.0,-17.0,57.0,3.0,0
-4.0,-252.0,-66.0,-18.0,57.0,1.0,0
-4.0,-250.0,-70.0,-21.0,60.0,2.0,0
-3.0,-251.0,-62.0,-22.0,60.0,1.0,0
-5.0,-248.0,-65.0,-23.0,59.0,3.0,0
-4.0,-251.0,-70.0,-22.0,61.0,0.0,0
-4.0,-250.0,-65.0,-22.0,62.0,3.0,0
-6.0,-249.0,-63.0,-21.0,64.0,-1.0,0
-5.0,-248.0,-65.0,-22.0,61.0,2.0,0
-5.0,-253.0,-65.0,-20.0,61.0,-1.0,0
-4.0,-250.0,-63.0,-19.0,60.0,2.0,0
-6.0,-248.0,-66.0,-18.0,61.0,-1.0,0
-4.0,-252.0,-63.0,-15.0,61.0,0.0,0
-7.0,-249.0,-62.0,-12.0,61.0,-1.0,0
-5.0,-252.0,-66.0,-11.0,59.0,0.0,0
-6.0,-249.0,-62.0,-10.0,59.0,-3.0,0
-3.0,-250.0,-67.0,-10.0,57.0,0.0,0
-4.0,-251.0,-62.0,-11.0,59.0,-1.0,0
-4.0,-247.0,-67.0,-13.0,57.0,0.0,0
-3.0,-251.0,-66.0,-16.0,58.0,-3.0,0
-3.0,-251.0,-67.0,-16.0,57.0,-1.0,0
-5.0,-250.0,-66.0,-17.0,57.0,-3.0,0
-4.0,-251.0,-67.0,-16.0,57.0,-1.0,0
-3.0,-248.0,-70.0,-17.0,56.0,-4.0,0
-2.0,-252.0,-67.0,-16.0,56.0,0.0,0
-6.0,-250.0,-71.0,-16.0,56.0,-1.0,0
-3.0,-248.0,-63.0,-18.0,56.0,0.0,0
0.0,-253.0,-66.0,-18.0,56.0,-1.0,0
-5.0,-249.0,-65.0,-20.0,56.0,0.0,0
-6.0,-249.0,-70.0,-19.0,57.0,-2.0,0
-2.0,-251.0,-67.0,-19.0,57.0,0.0,0
-5.0,-249.0,-67.0,-19.0,59.0,-2.0,0
-5.0,-250.0,-67.0,-17.0,58.0,0.0,0
-3.0,-251.0,-64.0,-15.0,59.0,-3.0,0
-2.0,-251.0,-70.0,-13.0,62.0,-1.0,0
-4.0,-247.0,-67.0,-12.0,61.0,-3.0,0
-3.0,-249.0,-67.0,-9.0,61.0,-1.0,0
-2.0,-252.0,-65.0,-8.0,62.0,-4.0,0
-4.0,-249.0,-71.0,-5.0,58.0,0.0,0
-7.0,-271.0,-63.0,-6.0,60.0,-3.0,0
-8.0,-258.0,-63.0,-6.0,60.0,0.0,0
-5.0,-250.0,-65.0,-4.0,60.0,-3.0,0
-4.0,-249.0,-66.0,-4.0,59.0,-1.0,0
-2.0,-254.0,-66.0,-4.0,61.0,-1.0,0
-5.0,-249.0,-70.0,-3.0,61.0,0.0,0
-5.0,-250.0,-67.0,-3.0,62.0,-2.0,0
-4.0,-249.0,-66.0,-2.0,61.0,1.0,0
-6.0,-248.0,-66.0,-3.0,61.0,-1.0,0
-3.0,-250.0,-64.0,-5.0,62.0,2.0,0
-4.0,-250.0,-68.0,-4.0,62.0,-2.0,0
-4.0,-250.0,-65.0,-8.0,61.0,-1.0,0
-1.0,-248.0,-62.0,-9.0,61.0,-2.0,0
-4.0,-251.0,-66.0,-10.0,61.0,1.0,0
-6.0,-251.0,-65.0,-12.0,61.0,-1.0,0
-5.0,-249.0,-66.0,-12.0,60.0,1.0,0
-8.0,-248.0,-63.0,-15.0,62.0,-1.0,0
-4.0,-251.0,-67.0,-15.0,61.0,1.0,0
-2.0,-251.0,-59.0,-14.0,61.0,-1.0,0
-2.0,-251.0,-67.0,-15.0,62.0,0.0,0
-2.0,-250.0,-67.0,-14.0,63.0,-2.0,0
-5.0,-248.0,-67.0,-14.0,62.0,1.0,0
-2.0,-251.0,-64.0,-13.0,62.0,-1.0,0
-2.0,-249.0,-68.0,-13.0,61.0,1.0,0
-3.0,-248.0,-68.0,-11.0,61.0,-1.0,0
-5.0,-250.0,-68.0,-10.0,63.0,2.0,0
-6.0,-250.0,-61.0,-8.0,62.0,-1.0,0
-7.0,-248.0,-66.0,-9.0,61.0,2.0,0
-4.0,-248.0,-61.0,-8.0,61.0,0.0,0
-5.0,-251.0,-67.0,-10.0,61.0,2.0,0
-6.0,-246.0,-64.0,-11.0,61.0,-1.0,0
-4.0,-248.0,-67.0,-11.0,60.0,2.0,0
-5.0,-251.0,-70.0,-12.0,61.0,-1.0,0
-3.0,-251.0,-65.0,-12.0,60.0,2.0,0
-4.0,-251.0,-64.0,-15.0,60.0,-1.0,0
-1.0,-252.0,-65.0,-14.0,60.0,2.0,0
-2.0,-250.0,-67.0,-16.0,59.0,-1.0,0
-5.0,-247.0,-69.0,-15.0,59.0,2.0,0
-6.0,-248.0,-67.0,-14.0,61.0,-1.0,0
-2.0,-251.0,-63.0,-14.0,61.0,1.0,0
-4.0,-250.0,-70.0,-12.0,62.0,-1.0,0
-5.0,-250.0,-63.0,-12.0,61.0,1.0,0
-2.0,-251.0,-66.0,-13.0,61.0,0.0,0
-7.0,-249.0,-65.0,-12.0,61.0,1.0,0
-3.0,-247.0,-68.0,-12.0,60.0,-1.0,0
-1.0,-249.0,-67.0,-10.0,59.0,0.0,0
-3.0,-250.0,-67.0,-12.0,60.0,-2.0,0
-1.0,-254.0,-67.0,-13.0,59.0,1.0,0
-5.0,-250.0,-67.0,-12.0,58.0,0.0,0
-2.0,-249.0,-66.0,-13.0,59.0,2.0,0
-5.0,-249.0,-66.0,-14.0,58.0,-2.0,0
-2.0,-248.0,-64.0,-15.0,59.0,2.0,0
-3.0,-250.0,-65.0,-15.0,59.0,-1.0,0
-2.0,-249.0,-71.0,-15.0,60.0,1.0,0
-4.0,-249.0,-63.0,-16.0,58.0,-2.0,0
-2.0,-250.0,-67.0,-15.0,60.0,0.0,0
-2.0,-250.0,-66.0,-16.0,59.0,0.0,0
-5.0,-250.0,-67.0,-15.0,59.0,2.0,0
-7.0,-249.0,-69.0,-14.0,58.0,-2.0,0
-6.0,-252.0,-66.0,-16.0,58.0,1.0,0
-4.0,-251.0,-68.0,-18.0,59.0,-1.0,0
-8.0,-252.0,-66.0,-17.0,59.0,0.0,0
-3.0,-251.0,-64.0,-17.0,58.0,-3.0,0
-4.0,-253.0,-66.0,-15.0,56.0,0.0,0
-6.0,-251.0,-65.0,-13.0,58.0,-2.0,0
-2.0,-250.0,-68.0,-11.0,57.0,-1.0,0
-6.0,-252.0,-68.0,-10.0,57.0,-2.0,0
-7.0,-250.0,-66.0,-6.0,58.0,-2.0,0
-2.0,-248.0,-64.0,-3.0,61.0,-2.0,0
-4.0,-247.0,-67.0,-3.0,61.0,1.0,0
-1.0,-249.0,-66.0,-6.0,60.0,-2.0,0
-5.0,-247.0,-64.0,-9.0,59.0,-2.0,0
-3.0,-247.0,-63.0,-13.0,57.0,-4.0,0
-6.0,-247.0,-67.0,-18.0,57.0,-3.0,0
-5.0,-251.0,-67.0,-22.0,55.0,-5.0,0
-3.0,-250.0,-69.0,-25.0,55.0,-2.0,0
-4.0,-250.0,-62.0,-24.0,56.0,-4.0,0
-4.0,-251.0,-69.0,-22.0,57.0,-2.0,0
-2.0,-250.0,-68.0,-18.0,58.0,-3.0,0
-5.0,-251.0,-69.0,-13.0,58.0,0.0,0
-3.0,-251.0,-64.0,-9.0,57.0,-4.0,0
-7.0,-250.0,-68.0,-6.0,57.0,-1.0,0
-2.0,-250.0,-65.0,-4.0,55.0,-4.0,0
-4.0,-252.0,-67.0,-2.0,54.0,0.0,0
-4.0,-251.0,-67.0,-1.0,53.0,-1.0,0
-1.0,-250.0,-65.0,0.0,52.0,1.0,0
0.0,-249.0,-67.0,2.0,51.0,-1.0,0
-4.0,-249.0,-72.0,3.0,51.0,4.0,0
-3.0,-248.0,-73.0,2.0,54.0,1.0,0
-3.0,-247.0,-70.0,-2.0,54.0,5.0,0
-4.0,-249.0,-66.0,-6.0,53.0,2.0,0
-6.0,-247.0,-65.0,-8.0,55.0,3.0,0
-5.0,-248.0,-66.0,-10.0,55.0,0.0,0
-7.0,-248.0,-64.0,-12.0,58.0,2.0,0
-3.0,-249.0,-65.0,-14.0,61.0,0.0,0
-2.0,-248.0,-64.0,-15.0,64.0,1.0,0
-5.0,-250.0,-66.0,-15.0,65.0,1.0,0
-3.0,-251.0,-63.0,-15.0,65.0,2.0,0
-4.0,-254.0,-65.0,-15.0,64.0,0.0,0
-3.0,-251.0,-63.0,-11.0,64.0,2.0,0
-5.0,-252.0,-66.0,-6.0,63.0,-2.0,0
-4.0,-253.0,-65.0,-2.0,63.0,0.0,0
-4.0,-252.0,-69.0,0.0,62.0,-2.0,0
-2.0,-250.0,-66.0,4.0,61.0,0.0,0
-3.0,-251.0,-66.0,5.0,61.0,-3.0,0
-2.0,-253.0,-63.0,5.0,59.0,0.0,0
-6.0,-248.0,-64.0,6.0,58.0,-2.0,0
-6.0,-249.0,-65.0,4.0,57.0,1.0,0
-4.0,-249.0,-63.0,3.0,56.0,0.0,0
-3.0,-247.0,-65.0,1.0,55.0,2.0,0
-4.0,-246.0,-64.0,-1.0,53.0,1.0,0
-5.0,-248.0,-68.0,-2.0,53.0,4.0,0
-5.0,-248.0,-61.0,-5.0,54.0,1.0,0
-5.0,-248.0,-66.0,-8.0,55.0,3.0,0
-5.0,-249.0,-66.0,-11.0,56.0,1.0,0
-3.0,-250.0,-68.0,-14.0,57.0,4.0,0
-5.0,-248.0,-67.0,-17.0,58.0,0.0,0
0.0,-248.0,-65.0,-18.0,60.0,1.0,0
-1.0,-247.0,-67.0,-19.0,59.0,-2.0,0
-4.0,-248.0,-66.0,-18.0,60.0,0.0,0
-5.0,-248.0,-67.0,-20.0,60.0,-2.0,0
-5.0,-249.0,-63.0,-19.0,60.0,0.0,0
-2.0,-253.0,-64.0,-19.0,58.0,-1.0,0
-4.0,-251.0,-65.0,-17.0,58.0,1.0,0
-4.0,-250.0,-64.0,-15.0,58.0,-2.0,0
-5.0,-249.0,-63.0,-11.0,58.0,2.0,0
-5.0,-248.0,-63.0,-8.0,58.0,-1.0,0
-2.0,-248.0,-62.0,-5.0,57.0,2.0,0
-4.0,-249.0,-64.0,-3.0,58.0,0.0,0
-5.0,-248.0,-63.0,-1.0,58.0,1.0,0
-4.0,-251.0,-66.0,-1.0,58.0,-1.0,0
-9.0,-261.0,-42.0,0.0,58.0,1.0,0
-6.0,-241.0,-66.0,0.0,57.0,-1.0,0
-2.0,-246.0,-76.0,-1.0,59.0,1.0,0
3.0,-264.0,-60.0,-2.0,58.0,-3.0,0
-3.0,-250.0,-62.0,-6.0,58.0,-1.0,0
-5.0,-248.0,-67.0,-9.0,57.0,-3.0,0
-6.0,-249.0,-65.0,-10.0,58.0,2.0,0
-4.0,-250.0,-67.0,-11.0,58.0,0.0,0
-5.0,-247.0,-67.0,-12.0,56.0,2.0,0
-6.0,-248.0,-65.0,-14.0,57.0,-2.0,0
-4.0,-251.0,-66.0,-14.0,60.0,1.0,0
-3.0,-252.0,-62.0,-13.0,59.0,-1.0,0
-3.0,-249.0,-66.0,-13.0,61.0,0.0,0
-9.0,-247.0,-67.0,-12.0,60.0,-1.0,0
-5.0,-249.0,-65.0,-12.0,61.0,1.0,0
-5.0,-250.0,-65.0,-13.0,62.0,-1.0,0
-4.0,-252.0,-62.0,-12.0,61.0,1.0,0
-4.0,-250.0,-61.0,-13.0,61.0,-1.0,0
-1.0,-251.0,-67.0,-12.0,58.0,0.0,0
-3.0,-252.0,-63.0,-11.0,58.0,-1.0,0
-3.0,-250.0,-61.0,-8.0,58.0,0.0,0
-5.0,-251.0,-65.0,-9.0,58.0,-2.0,0
-2.0,-252.0,-67.0,-7.0,59.0,0.0,0
-3.0,-249.0,-63.0,-6.0,58.0,-3.0,0
-4.0,-250.0,-67.0,-6.0,58.0,1.0,0
-7.0,-251.0,-65.0,-6.0,56.0,-1.0,0
-4.0,-248.0,-66.0,-7.0,55.0,0.0,0
-3.0,-251.0,-64.0,-7.0,56.0,-1.0,0
-4.0,-248.0,-66.0,-7.0,55.0,2.0,0
-4.0,-251.0,-63.0,-9.0,56.0,-1.0,0
-5.0,-250.0,-65.0,-11.0,56.0,2.0,0
-4.0,-248.0,-63.0,-12.0,56.0,1.0,0
-6.0,-248.0,-64.0,-14.0,56.0,2.0,0
-4.0,-250.0,-65.0,-16.0,57.0,-1.0,0
-4.0,-247.0,-65.0,-18.0,57.0,1.0,0
-4.0,-251.0,-62.0,-19.0,57.0,-2.0,0
-3.0,-251.0,-65.0,-17.0,59.0,1.0,0
-2.0,-251.0,-66.0,-17.0,58.0,-1.0,0
-2.0,-251.0,-64.0,-16.0,59.0,1.0,0
-5.0,-251.0,-66.0,-17.0,60.0,-2.0,0
-5.0,-253.0,-69.0,-19.0,57.0,-1.0,0
-6.0,-251.0,-65.0,-15.0,59.0,-2.0,0
-5.0,-248.0,-65.0,-12.0,60.0,3.0,0
-3.0,-250.0,-67.0,-10.0,58.0,0.0,0
-4.0,-251.0,-68.0,-8.0,58.0,0.0,0
-5.0,-250.0,-64.0,-10.0,58.0,-2.0,0
-4.0,-251.0,-64.0,-9.0,56.0,0.0,0
-4.0,-246.0,-69.0,-10.0,57.0,-2.0,0
-5.0,-251.0,-66.0,-9.0,56.0,0.0,0
-5.0,-250.0,-64.0,-7.0,57.0,-2.0,0
-4.0,-251.0,-63.0,-9.0,58.0,1.0,0
-3.0,-251.0,-62.0,-9.0,57.0,-2.0,0
-5.0,-250.0,-65.0,-12.0,58.0,1.0,0
-4.0,-250.0,-66.0,-12.0,59.0,-2.0,0
-5.0,-249.0,-63.0,-11.0,58.0,0.0,0
-6.0,-247.0,-66.0,-12.0,57.0,-2.0,0
-4.0,-249.0,-66.0,-14.0,57.0,0.0,0
-4.0,-249.0,-68.0,-13.0,57.0,-3.0,0
-2.0,-247.0,-64.0,-14.0,56.0,0.0,0
-6.0,-248.0,-66.0,-14.0,57.0,-2.0,0
-6.0,-250.0,-64.0,-14.0,58.0,2.0,0
-7.0,-251.0,-62.0,-16.0,55.0,-1.0,0
-5.0,-250.0,-62.0,-17.0,54.0,2.0,0
-4.0,-250.0,-62.0,-19.0,55.0,-1.0,0
-4.0,-248.0,-67.0,-18.0,54.0,0.0,0
-6.0,-248.0,-64.0,-19.0,54.0,-2.0,0
-4.0,-253.0,-66.0,-17.0,53.0,0.0,0
-5.0,-253.0,-63.0,-15.0,54.0,-3.0,0
-4.0,-249.0,-66.0,-14.0,53.0,0.0,0
-5.0,-252.0,-65.0,-12.0,53.0,-1.0,0
-3.0,-248.0,-65.0,-11.0,55.0,-1.0,0
-6.0,-250.0,-65.0,-10.0,55.0,-3.0,0
-5.0,-250.0,-65.0,-10.0,55.0,0.0,0
-5.0,-249.0,-69.0,-10.0,56.0,-3.0,0
-4.0,-249.0,-67.0,-9.0,56.0,-1.0,0
-4.0,-250.0,-64.0,-11.0,59.0,-3.0,0
-4.0,-248.0,-67.0,-12.0,57.0,-1.0,0
-3.0,-251.0,-64.0,-12.0,58.0,-4.0,0
-4.0,-249.0,-70.0,-12.0,58.0,0.0,0
-3.0,-251.0,-71.0,-13.0,58.0,-2.0,0
-1.0,-252.0,-65.0,-12.0,58.0,0.0,0
-4.0,-249.0,-63.0,-12.0,58.0,-3.0,0
-6.0,-252.0,-64.0,-12.0,58.0,0.0,0
-5.0,-251.0,-64.0,-13.0,57.0,-1.0,0
-6.0,-251.0,-65.0,-13.0,58.0,0.0,0
-5.0,-250.0,-65.0,-14.0,57.0,-4.0,0
-4.0,-251.0,-66.0,-14.0,58.0,-1.0,0
-6.0,-247.0,-68.0,-15.0,58.0,-5.0,0
-5.0,-248.0,-65.0,-13.0,57.0,0.0,0
-6.0,-251.0,-65.0,-10.0,57.0,-3.0,0
-4.0,-250.0,-66.0,-8.0,57.0,-1.0,0
-2.0,-250.0,-66.0,-6.0,58.0,-4.0,0
-2.0,-250.0,-64.0,-6.0,61.0,-1.0,0
-3.0,-248.0,-65.0,-9.0,60.0,-3.0,0
-7.0,-248.0,-65.0,-12.0,59.0,-1.0,0
-3.0,-252.0,-62.0,-16.0,58.0,-4.0,0
-4.0,-250.0,-62.0,-22.0,57.0,-2.0,0
-6.0,-249.0,-65.0,-24.0,56.0,-4.0,0
-6.0,-249.0,-63.0,-24.0,56.0,-2.0,0
-5.0,-252.0,-65.0,-23.0,55.0,-5.0,0
-3.0,-254.0,-67.0,-19.0,55.0,-2.0,0
-5.0,-251.0,-61.0,-14.0,56.0,-4.0,0
-5.0,-252.0,-61.0,-11.0,56.0,-3.0,0
-5.0,-248.0,-64.0,-7.0,58.0,-4.0,0
-6.0,-249.0,-64.0,-5.0,57.0,-1.0,0
-4.0,-251.0,-64.0,-6.0,56.0,-3.0,0
-7.0,-249.0,-63.0,-6.0,53.0,-1.0,0
-3.0,-250.0,-65.0,-6.0,52.0,-2.0,0
-8.0,-247.0,-67.0,-7.0,49.0,0.0,0
-4.0,-248.0,-68.0,-6.0,50.0,0.0,0
-3.0,-250.0,-67.0,-5.0,51.0,2.0,0
-5.0,-250.0,-66.0,-8.0,52.0,1.0,0
-5.0,-247.0,-65.0,-14.0,53.0,1.0,0
-5.0,-246.0,-67.0,-20.0,56.0,0.0,0
-6.0,-251.0,-68.0,-22.0,57.0,1.0,0
-6.0,-250.0,-67.0,-24.0,59.0,-1.0,0
-6.0,-248.0,-66.0,-24.0,61.0,0.0,0
-6.0,-249.0,-64.0,-25.0,64.0,-1.0,0
-5.0,-251.0,-66.0,-24.0,65.0,0.0,0
-4.0,-252.0,-63.0,-21.0,65.0,-2.0,0
-4.0,-251.0,-64.0,-18.0,63.0,-2.0,0
-3.0,-254.0,-64.0,-13.0,63.0,-2.0,0
-4.0,-250.0,-61.0,-8.0,62.0,-1.0,0
-2.0,-250.0,-62.0,-1.0,62.0,-3.0,0
-3.0,-251.0,-67.0,2.0,60.0,-1.0,0
-4.0,-250.0,-67.0,4.0,57.0,-3.0,0
-7.0,-248.0,-71.0,6.0,56.0,-1.0,0
-4.0,-250.0,-61.0,3.0,55.0,-3.0,0
-3.0,-249.0,-67.0,2.0,54.0,-1.0,0
-3.0,-247.0,-67.0,-2.0,55.0,-2.0,0
-6.0,-249.0,-63.0,-3.0,54.0,0.0,0
-3.0,-248.0,-63.0,-4.0,51.0,-1.0,0
-3.0,-251.0,-66.0,-6.0,53.0,2.0,0
-2.0,-247.0,-66.0,-10.0,53.0,-2.0,0
-2.0,-250.0,-64.0,-11.0,54.0,0.0,0
-6.0,-251.0,-63.0,-14.0,54.0,-1.0,0
-5.0,-247.0,-64.0,-15.0,56.0,-1.0,0
-4.0,-250.0,-65.0,-16.0,57.0,-2.0,0
-4.0,-249.0,-65.0,-15.0,58.0,1.0,0
-1.0,-253.0,-63.0,-15.0,60.0,-2.0,0
-3.0,-252.0,-64.0,-16.0,60.0,0.0,0
-4.0,-251.0,-64.0,-16.0,60.0,-3.0,0
-3.0,-252.0,-69.0,-16.0,59.0,-1.0,0
-4.0,-248.0,-65.0,-15.0,58.0,-2.0,0
-3.0,-247.0,-66.0,-13.0,57.0,0.0,0
-5.0,-252.0,-65.0,-11.0,56.0,-2.0,0
-6.0,-250.0,-68.0,-9.0,55.0,1.0,0
-7.0,-247.0,-61.0,-7.0,54.0,-2.0,0
-6.0,-251.0,-63.0,-6.0,56.0,0.0,0
-6.0,-251.0,-62.0,-5.0,55.0,-1.0,0
-5.0,-250.0,-66.0,-2.0,55.0,1.0,0
-3.0,-250.0,-65.0,-1.0,55.0,-1.0,0
-4.0,-250.0,-65.0,0.0,57.0,-2.0,0
-4.0,-252.0,-62.0,0.0,57.0,-3.0,0
-5.0,-252.0,-66.0,0.0,57.0,-2.0,0
-3.0,-249.0,-65.0,-3.0,57.0,-4.0,0
-3.0,-249.0,-64.0,-3.0,55.0,-2.0,0
-3.0,-249.0,-63.0,-4.0,54.0,-4.0,0
-5.0,-251.0,-67.0,-6.0,55.0,-2.0,0
-5.0,-249.0,-67.0,-8.0,55.0,-4.0,0
-4.0,-249.0,-63.0,-9.0,55.0,0.0,0
-3.0,-252.0,-65.0,-10.0,55.0,-2.0,0
-4.0,-249.0,-64.0,-9.0,56.0,0.0,0
-6.0,-247.0,-65.0,-9.0,55.0,-2.0,0
-6.0,-250.0,-66.0,-10.0,54.0,0.0,0
-2.0,-251.0,-65.0,-11.0,56.0,-1.0,0
-3.0,-251.0,-65.0,-11.0,58.0,1.0,0
-5.0,-250.0,-63.0,-10.0,59.0,-2.0,0
-7.0,-248.0,-66.0,-12.0,60.0,-1.0,0
-2.0,-252.0,-61.0,-14.0,61.0,-1.0,0
-4.0,-254.0,-64.0,-13.0,61.0,-2.0,0
-6.0,-252.0,-64.0,-12.0,59.0,-3.0,0
-6.0,-248.0,-64.0,-13.0,59.0,-1.0,0
-7.0,-252.0,-62.0,-13.0,59.0,-2.0,0
-4.0,-250.0,-62.0,-13.0,58.0,-2.0,0
0.0,-254.0,-64.0,-13.0,58.0,-3.0,0
-5.0,-249.0,-68.0,-15.0,56.0,-1.0,0
-4.0,-250.0,-66.0,-13.0,57.0,-3.0,0
-5.0,-249.0,-65.0,-12.0,56.0,-2.0,0
0.0,-250.0,-67.0,-12.0,55.0,-3.0,0
-5.0,-249.0,-66.0,-12.0,54.0,-1.0,0
-7.0,-249.0,-66.0,-10.0,53.0,-2.0,0
-2.0,-247.0,-69.0,-10.0,54.0,-1.0,0
-4.0,-248.0,-64.0,-11.0,55.0,-4.0,0
-6.0,-250.0,-63.0,-11.0,54.0,-1.0,0
-5.0,-248.0,-65.0,-11.0,55.0,-2.0,0
-2.0,-251.0,-65.0,-13.0,54.0,-2.0,0
-4.0,-250.0,-63.0,-15.0,55.0,-2.0,0
-3.0,-250.0,-59.0,-17.0,56.0,-1.0,0
-4.0,-250.0,-62.0,-17.0,56.0,-4.0,0
-1.0,-252.0,-65.0,-20.0,56.0,-1.0,0
-2.0,-252.0,-62.0,-20.0,57.0,-2.0,0
-2.0,-251.0,-66.0,-20.0,56.0,-1.0,0
-2.0,-252.0,-65.0,-18.0,56.0,-3.0,0
-4.0,-247.0,-64.0,-16.0,55.0,0.0,0
-2.0,-248.0,-61.0,-14.0,55.0,-2.0,0
-4.0,-250.0,-63.0,-14.0,55.0,0.0,0
-4.0,-249.0,-63.0,-13.0,54.0,-1.0,0
-2.0,-251.0,-68.0,-11.0,54.0,1.0,0
-7.0,-249.0,-65.0,-9.0,54.0,-1.0,0
-5.0,-250.0,-65.0,-6.0,55.0,0.0,0
-2.0,-251.0,-66.0,-6.0,55.0,-1.0,0
-5.0,-248.0,-66.0,-5.0,55.0,1.0,0
-3.0,-250.0,-64.0,-6.0,55.0,-1.0,0
-5.0,-249.0,-66.0,-8.0,55.0,-1.0,0
-4.0,-248.0,-62.0,-7.0,58.0,-1.0,0
-5.0,-250.0,-65.0,-7.0,57.0,0.0,0
-3.0,-249.0,-64.0,-9.0,57.0,-2.0,0
-5.0,-249.0,-61.0,-10.0,56.0,-1.0,0
-2.0,-252.0,-62.0,-10.0,56.0,-2.0,0
-4.0,-250.0,-65.0,-12.0,54.0,-2.0,0
-2.0,-248.0,-64.0,-14.0,55.0,-5.0,0
-2.0,-250.0,-66.0,-15.0,56.0,-4.0,0
-2.0,-253.0,-66.0,-16.0,55.0,-4.0,0
-4.0,-249.0,-67.0,-14.0,54.0,-3.0,0
-5.0,-251.0,-62.0,-14.0,55.0,-4.0,0
-4.0,-253.0,-61.0,-13.0,55.0,-3.0,0
-3.0,-250.0,-69.0,-13.0,56.0,-4.0,0
-3.0,-253.0,-64.0,-11.0,54.0,-3.0,0
-5.0,-250.0,-64.0,-10.0,55.0,-4.0,0
-4.0,-252.0,-63.0,-8.0,55.0,-1.0,0
-4.0,-251.0,-63.0,-7.0,55.0,-2.0,0
-6.0,-250.0,-63.0,-5.0,53.0,-1.0,0
-6.0,-247.0,-61.0,-3.0,53.0,0.0,0
-4.0,-250.0,-65.0,-2.0,54.0,3.0,0
-2.0,-250.0,-66.0,-2.0,55.0,1.0,0
-3.0,-250.0,-69.0,-1.0,57.0,4.0,0
-4.0,-248.0,-65.0,0.0,58.0,4.0,0
-2.0,-249.0,-67.0,0.0,58.0,6.0,0
-2.0,-252.0,-67.0,-2.0,57.0,6.0,0
-5.0,-248.0,-69.0,0.0,56.0,7.0,0
-5.0,-250.0,-62.0,-1.0,55.0,5.0,0
-2.0,-248.0,-60.0,-2.0,54.0,7.0,0
-5.0,-250.0,-63.0,-2.0,54.0,7.0,0
-4.0,-251.0,-64.0,-1.0,55.0,10.0,0
-3.0,-248.0,-63.0,-3.0,53.0,8.0,0
-4.0,-251.0,-65.0,-5.0,53.0,10.0,0
-3.0,-251.0,-67.0,-6.0,52.0,11.0,0
-4.0,-248.0,-68.0,-7.0,50.0,12.0,0
-2.0,-252.0,-63.0,-5.0,50.0,12.0,0
-7.0,-250.0,-61.0,-4.0,49.0,12.0,0
-5.0,-250.0,-64.0,-2.0,51.0,12.0,0
-5.0,-251.0,-63.0,-1.0,51.0,12.0,0
-6.0,-249.0,-65.0,-3.0,52.0,10.0,0
-4.0,-252.0,-63.0,-4.0,52.0,11.0,0
-2.0,-248.0,-60.0,-5.0,51.0,10.0,0
-5.0,-252.0,-61.0,-6.0,52.0,9.0,0
-2.0,-251.0,-62.0,-7.0,52.0,8.0,0
-4.0,-250.0,-67.0,-8.0,52.0,8.0,0
-3.0,-252.0,-65.0,-10.0,51.0,7.0,0
-3.0,-250.0,-65.0,-12.0,51.0,6.0,0
-4.0,-251.0,-64.0,-13.0,52.0,4.0,0
-6.0,-252.0,-64.0,-13.0,51.0,6.0,0
-5.0,-251.0,-65.0,-15.0,51.0,3.0,0
-5.0,-248.0,-66.0,-15.0,51.0,3.0,0
-6.0,-250.0,-68.0,-14.0,52.0,2.0,0
-6.0,-250.0,-65.0,-13.0,55.0,3.0,0
-6.0,-253.0,-65.0,-12.0,55.0,2.0,0
-3.0,-249.0,-64.0,-8.0,55.0,4.0,0
-8.0,-251.0,-63.0,-6.0,54.0,3.0,0
-5.0,-249.0,-63.0,-5.0,55.0,3.0,0
-2.0,-247.0,-63.0,-7.0,55.0,1.0,0
-3.0,-247.0,-62.0,-10.0,54.0,3.0,0
-5.0,-248.0,-65.0,-15.0,52.0,0.0,0
-5.0,-250.0,-69.0,-20.0,51.0,0.0,0
-7.0,-250.0,-61.0,-25.0,49.0,-1.0,0
-4.0,-250.0,-64.0,-27.0,50.0,0.0,0
-5.0,-249.0,-65.0,-28.0,48.0,-2.0,0
-5.0,-253.0,-67.0,-25.0,50.0,1.0,0
-6.0,-250.0,-66.0,-21.0,52.0,-2.0,0
-5.0,-250.0,-68.0,-17.0,53.0,0.0,0
-8.0,-248.0,-64.0,-13.0,55.0,-3.0,0
-5.0,-248.0,-65.0,-13.0,54.0,-2.0,0
-4.0,-253.0,-66.0,-13.0,53.0,-2.0,0
-3.0,-252.0,-62.0,-15.0,52.0,-2.0,0
-7.0,-250.0,-64.0,-16.0,51.0,-2.0,0
-4.0,-251.0,-62.0,-17.0,48.0,-1.0,0
-6.0,-250.0,-65.0,-16.0,49.0,-2.0,0
-4.0,-249.0,-67.0,-18.0,48.0,0.0,0
-3.0,-250.0,-64.0,-19.0,48.0,-1.0,0
-5.0,-248.0,-68.0,-23.0,50.0,1.0,0
-5.0,-248.0,-65.0,-24.0,51.0,0.0,0
-7.0,-248.0,-61.0,-27.0,53.0,2.0,0
-5.0,-250.0,-64.0,-25.0,55.0,1.0,0
-6.0,-247.0,-63.0,-24.0,55.0,0.0,0
-8.0,-249.0,-61.0,-25.0,56.0,-1.0,0
-4.0,-250.0,-64.0,-22.0,56.0,0.0,0
-5.0,-251.0,-68.0,-18.0,54.0,-3.0,0
-1.0,-252.0,-66.0,-14.0,53.0,-1.0,0
-6.0,-251.0,-63.0,-8.0,53.0,-2.0,0
-3.0,-251.0,-65.0,-4.0,51.0,-2.0,0
-2.0,-248.0,-70.0,1.0,51.0,-4.0,0
-3.0,-249.0,-70.0,4.0,50.0,-4.0,0
-5.0,-251.0,-65.0,5.0,49.0,-4.0,0
-4.0,-249.0,-65.0,3.0,48.0,-3.0,0
-5.0,-247.0,-65.0,1.0,47.0,-4.0,0
-4.0,-246.0,-68.0,-2.0,46.0,-1.0,0
-3.0,-249.0,-69.0,-6.0,49.0,-2.0,0
-3.0,-248.0,-64.0,-10.0,49.0,-1.0,0
-4.0,-248.0,-63.0,-13.0,49.0,-2.0,0
-3.0,-248.0,-68.0,-16.0,49.0,-1.0,0
-8.0,-246.0,-65.0,-19.0,49.0,-1.0,0
-5.0,-249.0,-66.0,-23.0,49.0,0.0,0
-5.0,-250.0,-63.0,-25.0,49.0,-2.0,0
-4.0,-250.0,-63.0,-27.0,50.0,-2.0,0
-4.0,-251.0,-61.0,-27.0,49.0,-2.0,0
-8.0,-249.0,-65.0,-25.0,53.0,-3.0,0
-3.0,-248.0,-65.0,-24.0,55.0,-3.0,0
-3.0,-251.0,-65.0,-22.0,57.0,-3.0,0
-5.0,-248.0,-66.0,-21.0,57.0,-3.0,0
-7.0,-248.0,-67.0,-21.0,59.0,-2.0,0
-7.0,-251.0,-62.0,-18.0,59.0,-5.0,0
-5.0,-252.0,-64.0,-16.0,59.0,-4.0,0
-7.0,-252.0,-68.0,-14.0,59.0,-3.0,0
-3.0,-250.0,-63.0,-13.0,59.0,-4.0,0
-5.0,-248.0,-62.0,-11.0,60.0,-4.0,0
-6.0,-250.0,-62.0,-9.0,60.0,-4.0,0
-4.0,-248.0,-63.0,-7.0,61.0,-2.0,0
-4.0,-251.0,-66.0,-7.0,60.0,-3.0,0
-6.0,-250.0,-64.0,-8.0,60.0,-2.0,0
-2.0,-252.0,-65.0,-9.0,58.0,-1.0,0
-4.0,-249.0,-65.0,-11.0,57.0,-3.0,0
-6.0,-249.0,-62.0,-12.0,55.0,-3.0,0
-5.0,-247.0,-65.0,-12.0,57.0,-4.0,0
-2.0,-249.0,-64.0,-15.0,55.0,-4.0,0
-4.0,-250.0,-64.0,-16.0,55.0,-3.0,0
-4.0,-252.0,-63.0,-15.0,55.0,-3.0,0
-5.0,-247.0,-66.0,-18.0,54.0,-4.0,0
-6.0,-249.0,-64.0,-18.0,56.0,-4.0,0
-5.0,-246.0,-63.0,-20.0,56.0,-4.0,0
-1.0,-250.0,-65.0,-22.0,57.0,-3.0,0
-5.0,-253.0,-64.0,-22.0,57.0,-4.0,0
-4.0,-250.0,-65.0,-24.0,58.0,-4.0,0
-7.0,-248.0,-65.0,-26.0,59.0,-3.0,0
-6.0,-251.0,-64.0,-28.0,60.0,-4.0,0
-3.0,-252.0,-64.0,-29.0,59.0,-4.0,0
-5.0,-249.0,-65.0,-29.0,60.0,-4.0,0
-5.0,-251.0,-62.0,-29.0,59.0,-3.0,0
-5.0,-250.0,-66.0,-29.0,59.0,-2.0,0
-3.0,-249.0,-64.0,-28.0,59.0,-4.0,0
-4.0,-251.0,-65.0,-27.0,58.0,-4.0,0
-5.0,-251.0,-63.0,-25.0,59.0,-4.0,0
-5.0,-250.0,-65.0,-22.0,56.0,-5.0,0
-1.0,-253.0,-64.0,-21.0,55.0,-4.0,0
-5.0,-252.0,-67.0,-20.0,54.0,-4.0,0
-5.0,-251.0,-63.0,-20.0,54.0,-4.0,0
-3.0,-250.0,-64.0,-20.0,55.0,-3.0,0
-4.0,-252.0,-64.0,-20.0,54.0,-3.0,0
-2.0,-248.0,-68.0,-20.0,54.0,-3.0,0
-6.0,-251.0,-63.0,-20.0,53.0,-3.0,0
-7.0,-248.0,-67.0,-20.0,55.0,-1.0,0
-8.0,-247.0,-68.0,-21.0,56.0,-2.0,0
-5.0,-247.0,-66.0,-23.0,57.0,-3.0,0
-5.0,-250.0,-65.0,-24.0,58.0,-3.0,0
-2.0,-251.0,-68.0,-25.0,58.0,-3.0,0
-5.0,-249.0,-64.0,-25.0,58.0,-4.0,0
-4.0,-251.0,-62.0,-24.0,59.0,-4.0,0
-5.0,-250.0,-67.0,-25.0,59.0,-3.0,0
-2.0,-253.0,-65.0,-24.0,60.0,-4.0,0
-5.0,-249.0,-65.0,-23.0,61.0,-3.0,0
-6.0,-251.0,-67.0,-23.0,60.0,-3.0,0
-3.0,-250.0,-64.0,-23.0,60.0,-3.0,0
-5.0,-248.0,-68.0,-21.0,60.0,-2.0,0
-6.0,-248.0,-69.0,-20.0,59.0,-2.0,0
-6.0,-248.0,-65.0,-18.0,60.0,-4.0,0
-4.0,-251.0,-68.0,-16.0,58.0,-3.0,0
-3.0,-249.0,-70.0,-16.0,58.0,-2.0,0
-5.0,-248.0,-66.0,-17.0,59.0,0.0,0
-4.0,-248.0,-67.0,-16.0,58.0,-2.0,0
-4.0,-248.0,-66.0,-16.0,59.0,-1.0,0
-2.0,-250.0,-67.0,-16.0,58.0,-1.0,0
-2.0,-250.0,-69.0,-16.0,58.0,-1.0,0
-5.0,-250.0,-68.0,-16.0,57.0,-1.0,0
-5.0,-249.0,-67.0,-17.0,59.0,-1.0,0
-5.0,-248.0,-64.0,-16.0,58.0,0.0,0
-5.0,-248.0,-64.0,-16.0,59.0,0.0,0
-5.0,-248.0,-68.0,-15.0,61.0,-1.0,0
-2.0,-252.0,-66.0,-14.0,59.0,-1.0,0
-2.0,-251.0,-66.0,-13.0,59.0,-1.0,0
0.0,-250.0,-67.0,-13.0,58.0,0.0,0
-3.0,-251.0,-66.0,-13.0,59.0,1.0,0
-4.0,-247.0,-65.0,-13.0,59.0,1.0,0
-4.0,-250.0,-65.0,-12.0,59.0,0.0,0
-6.0,-250.0,-66.0,-10.0,59.0,-1.0,0
-2.0,-251.0,-66.0,-13.0,60.0,0.0,0
-3.0,-248.0,-65.0,-13.0,58.0,1.0,0
-4.0,-249.0,-66.0,-13.0,59.0,0.0,0
-6.0,-250.0,-64.0,-13.0,58.0,1.0,0
-4.0,-248.0,-63.0,-14.0,58.0,-1.0,0
-4.0,-247.0,-69.0,-14.0,58.0,-2.0,0
-7.0,-248.0,-64.0,-15.0,58.0,-2.0,0
-4.0,-248.0,-64.0,-16.0,60.0,-1.0,0
-7.0,-249.0,-65.0,-17.0,59.0,-1.0,0
-4.0,-251.0,-69.0,-18.0,58.0,0.0,0
-4.0,-249.0,-63.0,-19.0,60.0,0.0,0
-7.0,-250.0,-63.0,-20.0,60.0,0.0,0
-5.0,-249.0,-63.0,-22.0,61.0,-2.0,0
-4.0,-247.0,-66.0,-23.0,62.0,-1.0,0
-4.0,-250.0,-65.0,-25.0,62.0,-3.0,0
-4.0,-251.0,-67.0,-27.0,62.0,-1.0,0
-3.0,-249.0,-64.0,-27.0,60.0,-3.0,0
-4.0,-248.0,-63.0,-26.0,61.0,-2.0,0
-3.0,-250.0,-65.0,-26.0,61.0,-2.0,0
-2.0,-250.0,-64.0,-26.0,61.0,0.0,0
-4.0,-249.0,-66.0,-26.0,60.0,0.0,0
-5.0,-249.0,-69.0,-27.0,60.0,1.0,0
-6.0,-247.0,-69.0,-27.0,61.0,2.0,0
-4.0,-250.0,-67.0,-26.0,62.0,3.0,0
-2.0,-251.0,-67.0,-26.0,62.0,1.0,0
-1.0,-252.0,-65.0,-26.0,60.0,3.0,0
-1.0,-249.0,-65.0,-29.0,58.0,1.0,0
-4.0,-247.0,-67.0,-28.0,56.0,3.0,0
-5.0,-249.0,-65.0,-29.0,55.0,4.0,0
-5.0,-247.0,-67.0,-29.0,54.0,5.0,0
-7.0,-247.0,-66.0,-29.0,53.0,4.0,0
-4.0,-247.0,-65.0,-28.0,54.0,6.0,0
-1.0,-251.0,-68.0,-27.0,54.0,4.0,0
-6.0,-250.0,-70.0,-29.0,56.0,5.0,0
-7.0,-248.0,-66.0,-29.0,57.0,5.0,0
-8.0,-249.0,-63.0,-29.0,56.0,5.0,0
-8.0,-249.0,-64.0,-30.0,57.0,4.0,0
-7.0,-250.0,-67.0,-32.0,57.0,5.0,0
-4.0,-249.0,-68.0,-30.0,58.0,5.0,0
-5.0,-250.0,-69.0,-31.0,57.0,5.0,0
-4.0,-249.0,-71.0,-29.0,59.0,5.0,0
-6.0,-250.0,-68.0,-27.0,60.0,6.0,0
-5.0,-250.0,-68.0,-27.0,60.0,4.0,0
-5.0,-251.0,-69.0,-28.0,58.0,7.0,0
-5.0,-249.0,-67.0,-28.0,57.0,7.0,0
-5.0,-252.0,-65.0,-26.0,57.0,10.0,0
-3.0,-248.0,-67.0,-28.0,57.0,11.0,0
-5.0,-249.0,-67.0,-29.0,57.0,13.0,0
-2.0,-248.0,-65.0,-31.0,58.0,13.0,0
-5.0,-250.0,-64.0,-35.0,60.0,14.0,0
-2.0,-247.0,-69.0,-37.0,60.0,14.0,0
-5.0,-248.0,-68.0,-41.0,61.0,17.0,0
-3.0,-247.0,-69.0,-43.0,58.0,17.0,0
-1.0,-250.0,-68.0,-45.0,56.0,18.0,0
-3.0,-249.0,-63.0,-47.0,56.0,18.0,0
-3.0,-249.0,-67.0,-51.0,54.0,19.0,0
-4.0,-251.0,-69.0,-53.0,55.0,18.0,0
-4.0,-249.0,-69.0,-54.0,53.0,16.0,0
-5.0,-250.0,-71.0,-57.0,53.0,14.0,0
-3.0,-248.0,-73.0,-58.0,52.0,15.0,0
-4.0,-248.0,-66.0,-58.0,50.0,12.0,0
-5.0,-248.0,-68.0,-59.0,49.0,12.0,0
-5.0,-247.0,-71.0,-59.0,48.0,11.0,0
-3.0,-250.0,-67.0,-60.0,45.0,12.0,0
-5.0,-248.0,-69.0,-62.0,43.0,11.0,0
-5.0,-248.0,-70.0,-63.0,41.0,12.0,0
-6.0,-252.0,-68.0,-65.0,39.0,9.0,0
-4.0,-250.0,-69.0,-65.0,38.0,12.0,0
-6.0,-250.0,-71.0,-63.0,38.0,12.0,0
-6.0,-249.0,-68.0,-60.0,42.0,13.0,0
-7.0,-248.0,-72.0,-56.0,44.0,12.0,0
-5.0,-248.0,-69.0,-55.0,45.0,12.0,0
-6.0,-245.0,-67.0,-57.0,45.0,11.0,0
-8.0,-248.0,-70.0,-59.0,45.0,11.0,0
-7.0,-249.0,-69.0,-64.0,45.0,8.0,0
-5.0,-247.0,-73.0,-69.0,45.0,10.0,0
-4.0,-248.0,-71.0,-74.0,45.0,6.0,0
-4.0,-249.0,-69.0,-77.0,44.0,8.0,0
-4.0,-249.0,-69.0,-80.0,44.0,6.0,0
-7.0,-246.0,-72.0,-82.0,45.0,8.0,0
-6.0,-245.0,-73.0,-83.0,48.0,8.0,0
-5.0,-246.0,-69.0,-85.0,50.0,11.0,0
-3.0,-246.0,-74.0,-92.0,53.0,9.0,0
-5.0,-246.0,-69.0,-101.0,58.0,14.0,0
-6.0,-247.0,-69.0,-110.0,61.0,12.0,0
-5.0,-242.0,-67.0,-118.0,64.0,13.0,0
-8.0,-248.0,-66.0,-127.0,63.0,12.0,0
-6.0,-248.0,-69.0,-132.0,64.0,12.0,0
-6.0,-249.0,-68.0,-135.0,62.0,11.0,0
-6.0,-248.0,-69.0,-137.0,61.0,9.0,0
-7.0,-249.0,-72.0,-141.0,60.0,6.0,0
-6.0,-250.0,-71.0,-143.0,60.0,5.0,0
-4.0,-252.0,-73.0,-144.0,61.0,2.0,0
-6.0,-248.0,-75.0,-147.0,62.0,1.0,0
-8.0,-249.0,-76.0,-148.0,62.0,-5.0,0
-6.0,-252.0,-73.0,-150.0,64.0,-6.0,0
-6.0,-252.0,-72.0,-150.0,65.0,-11.0,0
-8.0,-247.0,-72.0,-149.0,68.0,-11.0,0
-6.0,-247.0,-74.0,-149.0,71.0,-14.0,0
-4.0,-246.0,-71.0,-150.0,75.0,-12.0,0
-4.0,-244.0,-73.0,-156.0,84.0,-15.0,0
-2.0,-243.0,-75.0,-163.0,89.0,-13.0,0
-3.0,-246.0,-70.0,-176.0,92.0,-16.0,0
-2.0,-242.0,-74.0,-190.0,93.0,-15.0,0
-2.0,-244.0,-73.0,-210.0,90.0,-18.0,0
-5.0,-242.0,-74.0,-230.0,87.0,-17.0,0
-6.0,-243.0,-70.0,-249.0,82.0,-21.0,0
-4.0,-241.0,-72.0,-267.0,77.0,-22.0,0
-4.0,-243.0,-71.0,-281.0,68.0,-27.0,0
-6.0,-246.0,-72.0,-299.0,62.0,-29.0,0
-5.0,-245.0,-71.0,-313.0,57.0,-35.0,0
-8.0,-247.0,-68.0,-322.0,51.0,-38.0,0
-8.0,-248.0,-73.0,-330.0,43.0,-46.0,0
-6.0,-250.0,-71.0,-337.0,31.0,-49.0,0
-6.0,-253.0,-76.0,-341.0,18.0,-55.0,0
-5.0,-250.0,-83.0,-343.0,6.0,-60.0,0
-9.0,-246.0,-81.0,-342.0,-10.0,-65.0,0
-7.0,-251.0,-84.0,-337.0,-21.0,-63.0,0
-6.0,-250.0,-89.0,-328.0,-29.0,-63.0,0
-8.0,-251.0,-91.0,-317.0,-32.0,-59.0,0
-6.0,-250.0,-92.0,-302.0,-32.0,-58.0,0
0.0,-248.0,-99.0,-285.0,-32.0,-54.0,0
-2.0,-246.0,-94.0,-265.0,-29.0,-52.0,0
-5.0,-240.0,-94.0,-250.0,-22.0,-48.0,0
-3.0,-241.0,-89.0,-237.0,-17.0,-45.0,0
0.0,-241.0,-85.0,-228.0,-6.0,-39.0,0
1.0,-235.0,-86.0,-232.0,3.0,-37.0,0
1.0,-230.0,-80.0,-247.0,15.0,-29.0,0
2.0,-225.0,-75.0,-270.0,25.0,-28.0,0
1.0,-224.0,-71.0,-300.0,38.0,-19.0,0
2.0,-222.0,-67.0,-337.0,50.0,-13.0,0
1.0,-223.0,-68.0,-382.0,62.0,-6.0,0
0.0,-222.0,-62.0,-431.0,69.0,-2.0,0
-1.0,-225.0,-58.0,-482.0,73.0,8.0,0
-1.0,-229.0,-61.0,-542.0,70.0,12.0,0
-3.0,-235.0,-57.0,-580.0,64.0,17.0,0
-7.0,-244.0,-58.0,-607.0,55.0,14.0,0
-5.0,-247.0,-56.0,-623.0,43.0,11.0,0
-7.0,-251.0,-62.0,-629.0,29.0,2.0,0
-6.0,-255.0,-58.0,-621.0,16.0,-8.0,0
-6.0,-254.0,-56.0,-602.0,7.0,-19.0,0
-7.0,-256.0,-51.0,-579.0,2.0,-28.0,0
-5.0,-256.0,-53.0,-551.0,5.0,-45.0,0
-2.0,-255.0,-55.0,-518.0,9.0,-56.0,0
-2.0,-249.0,-56.0,-503.0,19.0,-69.0,0
2.0,-250.0,-54.0,-505.0,36.0,-67.0,0
4.0,-242.0,-56.0,-519.0,49.0,-66.0,0
0.0,-241.0,-58.0,-541.0,62.0,-55.0,0
1.0,-237.0,-58.0,-573.0,69.0,-47.0,0
1.0,-236.0,-61.0,-618.0,74.0,-31.0,0
3.0,-234.0,-64.0,-678.0,78.0,-16.0,0
2.0,-236.0,-64.0,-766.0,74.0,2.0,0
0.0,-238.0,-68.0,-853.0,62.0,17.0,0
-1.0,-246.0,-67.0,-938.0,42.0,35.0,0
-4.0,-249.0,-68.0,-1022.0,16.0,48.0,0
-6.0,-255.0,-70.0,-1099.0,-13.0,63.0,0
-10.0,-263.0,-76.0,-1163.0,-45.0,70.0,0
-9.0,-272.0,-87.0,-1211.0,-79.0,76.0,0
-14.0,-278.0,-92.0,-1241.0,-104.0,74.0,0
-15.0,-284.0,-102.0,-1255.0,-115.0,74.0,0
-14.0,-287.0,-107.0,-1255.0,-110.0,67.0,0
-14.0,-293.0,-119.0,-1237.0,-90.0,63.0,0
-12.0,-294.0,-127.0,-1204.0,-65.0,56.0,0
-12.0,-291.0,-136.0,-1162.0,-37.0,54.0,0
-6.0,-293.0,-147.0,-1115.0,-4.0,49.0,0
-2.0,-288.0,-143.0,-1060.0,35.0,47.0,0
1.0,-282.0,-149.0,-1003.0,77.0,36.0,0
1.0,-281.0,-148.0,-946.0,115.0,28.0,0
7.0,-275.0,-150.0,-881.0,143.0,17.0,0
8.0,-269.0,-149.0,-831.0,154.0,18.0,0
12.0,-266.0,-148.0,-792.0,155.0,14.0,0
7.0,-262.0,-146.0,-761.0,150.0,18.0,0
9.0,-263.0,-142.0,-742.0,136.0,24.0,0
4.0,-259.0,-144.0,-729.0,118.0,32.0,0
4.0,-260.0,-143.0,-720.0,100.0,36.0,0
2.0,-258.0,-150.0,-717.0,82.0,44.0,0
-3.0,-258.0,-149.0,-718.0,70.0,48.0,0
-6.0,-258.0,-154.0,-723.0,67.0,49.0,0
-8.0,-257.0,-154.0,-730.0,73.0,40.0,0
-10.0,-257.0,-157.0,-734.0,84.0,37.0,0
-10.0,-256.0,-160.0,-735.0,97.0,28.0,0
-11.0,-259.0,-162.0,-734.0,117.0,26.0,0
-9.0,-257.0,-165.0,-727.0,137.0,21.0,0
-10.0,-254.0,-169.0,-717.0,158.0,20.0,0
-8.0,-255.0,-172.0,-706.0,176.0,16.0,0
-8.0,-255.0,-166.0,-682.0,190.0,18.0,0
-9.0,-253.0,-171.0,-658.0,191.0,14.0,0
-10.0,-251.0,-171.0,-632.0,184.0,19.0,0
-11.0,-249.0,-171.0,-604.0,172.0,21.0,0
-11.0,-245.0,-176.0,-580.0,160.0,29.0,0
-8.0,-246.0,-177.0,-561.0,150.0,32.0,0
-10.0,-244.0,-178.0,-548.0,141.0,40.0,0
-11.0,-240.0,-176.0,-534.0,133.0,43.0,0
-11.0,-241.0,-176.0,-513.0,129.0,48.0,0
-11.0,-242.0,-175.0,-492.0,128.0,47.0,0
-11.0,-242.0,-177.0,-467.0,129.0,52.0,0
-12.0,-243.0,-180.0,-438.0,135.0,50.0,0
-12.0,-243.0,-177.0,-408.0,142.0,50.0,0
-12.0,-244.0,-173.0,-375.0,150.0,45.0,0
-12.0,-244.0,-179.0,-343.0,156.0,45.0,0
-11.0,-242.0,-178.0,-316.0,157.0,43.0,0
-12.0,-242.0,-177.0,-293.0,160.0,42.0,0
-11.0,-240.0,-174.0,-271.0,162.0,36.0,0
-12.0,-240.0,-175.0,-260.0,160.0,34.0,0
-8.0,-239.0,-177.0,-256.0,157.0,24.0,0
-9.0,-234.0,-178.0,-252.0,153.0,20.0,0
-4.0,-236.0,-180.0,-253.0,146.0,11.0,0
-7.0,-234.0,-179.0,-255.0,141.0,7.0,0
-5.0,-232.0,-175.0,-257.0,135.0,3.0,0
-7.0,-233.0,-179.0,-256.0,129.0,5.0,0
-4.0,-230.0,-183.0,-251.0,122.0,5.0,0
-6.0,-231.0,-177.0,-244.0,115.0,10.0,0
-8.0,-229.0,-180.0,-230.0,107.0,11.0,0
-6.0,-231.0,-176.0,-211.0,100.0,19.0,0
-7.0,-228.0,-172.0,-189.0,88.0,20.0,0
-10.0,-229.0,-175.0,-164.0,78.0,28.0,0
-11.0,-227.0,-179.0,-136.0,68.0,30.0,0
-9.0,-227.0,-173.0,-109.0,59.0,36.0,0
-10.0,-223.0,-170.0,-83.0,51.0,37.0,0
-10.0,-221.0,-171.0,-57.0,47.0,43.0,0
-10.0,-221.0,-169.0,-40.0,47.0,42.0,0
-10.0,-217.0,-170.0,-27.0,49.0,45.0,0
-11.0,-213.0,-167.0,-19.0,50.0,44.0,0
-11.0,-210.0,-166.0,-11.0,51.0,46.0,0
-11.0,-210.0,-165.0,-2.0,49.0,44.0,0
-9.0,-207.0,-161.0,3.0,45.0,45.0,0
-11.0,-203.0,-161.0,8.0,36.0,41.0,0
-11.0,-204.0,-156.0,20.0,26.0,45.0,0
-8.0,-201.0,-155.0,29.0,17.0,44.0,0
-9.0,-199.0,-156.0,37.0,8.0,47.0,0
-10.0,-195.0,-151.0,45.0,3.0,46.0,0
-7.0,-196.0,-153.0,50.0,-2.0,51.0,0
-7.0,-190.0,-154.0,52.0,-5.0,49.0,0
-10.0,-188.0,-153.0,51.0,-9.0,56.0,0
-10.0,-184.0,-155.0,43.0,-13.0,55.0,0
-9.0,-185.0,-150.0,34.0,-23.0,57.0,0
-6.0,-181.0,-149.0,16.0,-28.0,54.0,0
-9.0,-176.0,-152.0,6.0,-30.0,57.0,0
-9.0,-176.0,-147.0,-2.0,-28.0,59.0,0
-7.0,-182.0,-148.0,-6.0,-24.0,66.0,0
-5.0,-180.0,-146.0,-10.0,-16.0,67.0,0
-11.0,-178.0,-148.0,-15.0,-10.0,72.0,0
-11.0,-181.0,-140.0,-17.0,-9.0,72.0,0
-8.0,-183.0,-141.0,-13.0,-8.0,73.0,0
-9.0,-184.0,-140.0,-6.0,-10.0,70.0,0
-9.0,-182.0,-140.0,1.0,-16.0,75.0,0
-7.0,-182.0,-141.0,7.0,-25.0,76.0,0
-4.0,-183.0,-139.0,21.0,-32.0,82.0,0
-8.0,-179.0,-140.0,42.0,-36.0,80.0,0
-9.0,-177.0,-143.0,64.0,-40.0,86.0,0
-3.0,-176.0,-150.0,80.0,-49.0,90.0,0
-6.0,-173.0,-152.0,94.0,-58.0,97.0,0
-2.0,-177.0,-152.0,108.0,-74.0,98.0,0
-5.0,-177.0,-159.0,125.0,-90.0,103.0,0
-4.0,-180.0,-154.0,138.0,-103.0,107.0,0
-5.0,-181.0,-155.0,158.0,-109.0,115.0,0
-2.0,-182.0,-160.0,186.0,-108.0,116.0,0
-7.0,-180.0,-154.0,224.0,-99.0,125.0,0
-9.0,-180.0,-152.0,264.0,-85.0,124.0,0
-12.0,-178.0,-155.0,304.0,-65.0,127.0,0
-15.0,-176.0,-149.0,331.0,-44.0,132.0,0
-12.0,-174.0,-153.0,346.0,-16.0,134.0,0
-19.0,-169.0,-146.0,346.0,7.0,126.0,0
-14.0,-169.0,-151.0,336.0,23.0,121.0,0
-14.0,-170.0,-152.0,315.0,41.0,110.0,0
-17.0,-164.0,-152.0,288.0,58.0,105.0,0
-18.0,-164.0,-153.0,259.0,73.0,96.0,0
-12.0,-164.0,-155.0,235.0,84.0,92.0,0
-11.0,-166.0,-154.0,211.0,90.0,84.0,0
-11.0,-164.0,-159.0,190.0,95.0,83.0,0
-12.0,-168.0,-159.0,168.0,94.0,80.0,0
-11.0,-169.0,-161.0,155.0,91.0,82.0,0
-10.0,-172.0,-161.0,147.0,88.0,81.0,0
-6.0,-173.0,-164.0,149.0,85.0,84.0,0
-7.0,-174.0,-164.0,153.0,80.0,83.0,0
-7.0,-179.0,-158.0,164.0,73.0,84.0,0
-7.0,-179.0,-163.0,174.0,69.0,81.0,0
-9.0,-179.0,-163.0,185.0,70.0,81.0,0
-7.0,-179.0,-159.0,200.0,78.0,74.0,0
-10.0,-177.0,-160.0,211.0,87.0,71.0,0
-10.0,-176.0,-155.0,221.0,95.0,60.0,0
-11.0,-175.0,-158.0,230.0,105.0,59.0,0
-11.0,-172.0,-160.0,236.0,115.0,53.0,0
-12.0,-167.0,-160.0,240.0,123.0,51.0,0
-12.0,-165.0,-155.0,242.0,128.0,46.0,0
-12.0,-165.0,-152.0,247.0,132.0,44.0,0
-13.0,-163.0,-156.0,247.0,138.0,46.0,0
-14.0,-162.0,-157.0,236.0,139.0,52.0,0
-13.0,-162.0,-152.0,226.0,137.0,51.0,0
-12.0,-161.0,-154.0,216.0,133.0,55.0,0
-11.0,-163.0,-152.0,208.0,126.0,53.0,0
-12.0,-162.0,-148.0,202.0,115.0,55.0,0
-12.0,-164.0,-147.0,198.0,108.0,50.0,0
-11.0,-164.0,-149.0,197.0,100.0,50.0,0
-12.0,-162.0,-150.0,193.0,96.0,45.0,0
-7.0,-163.0,-149.0,188.0,97.0,42.0,0
-6.0,-167.0,-147.0,184.0,98.0,37.0,0
-10.0,-164.0,-149.0,178.0,104.0,35.0,0
-6.0,-167.0,-148.0,170.0,108.0,29.0,0
-9.0,-170.0,-150.0,166.0,113.0,29.0,0
-7.0,-170.0,-147.0,165.0,114.0,23.0,0
-9.0,-168.0,-148.0,167.0,117.0,21.0,0
-11.0,-172.0,-147.0,176.0,121.0,15.0,0
-9.0,-172.0,-152.0,181.0,125.0,13.0,0
-8.0,-172.0,-149.0,190.0,127.0,10.0,0
-11.0,-171.0,-147.0,199.0,130.0,10.0,0
-11.0,-173.0,-148.0,214.0,129.0,7.0,0
-12.0,-172.0,-145.0,231.0,123.0,8.0,0
-10.0,-173.0,-144.0,250.0,117.0,7.0,0
-11.0,-171.0,-144.0,265.0,110.0,11.0,0
-12.0,-170.0,-138.0,277.0,104.0,10.0,0
-11.0,-170.0,-141.0,288.0,103.0,11.0,0
-13.0,-170.0,-139.0,295.0,98.0,9.0,0
-10.0,-168.0,-139.0,297.0,94.0,8.0,0
-10.0,-167.0,-139.0,296.0,89.0,2.0,0
-8.0,-169.0,-139.0,293.0,84.0,0.0,0
-8.0,-168.0,-138.0,289.0,79.0,-6.0,0
-7.0,-169.0,-137.0,286.0,78.0,-8.0,0
-8.0,-167.0,-140.0,283.0,75.0,-13.0,0
-6.0,-168.0,-138.0,281.0,73.0,-14.0,0
-8.0,-172.0,-139.0,281.0,73.0,-18.0,0
-7.0,-172.0,-142.0,283.0,76.0,-18.0,0
-8.0,-173.0,-143.0,285.0,79.0,-23.0,0
-8.0,-178.0,-141.0,286.0,80.0,-23.0,0
-7.0,-179.0,-143.0,289.0,80.0,-27.0,0
-8.0,-181.0,-143.0,298.0,76.0,-29.0,0
-8.0,-185.0,-141.0,309.0,66.0,-33.0,0
-10.0,-185.0,-142.0,327.0,57.0,-32.0,0
-10.0,-189.0,-143.0,349.0,47.0,-36.0,0
-12.0,-190.0,-136.0,382.0,37.0,-39.0,0
-10.0,-192.0,-137.0,415.0,32.0,-44.0,0
-12.0,-190.0,-138.0,450.0,30.0,-47.0,0
-11.0,-188.0,-136.0,482.0,30.0,-52.0,0
-12.0,-191.0,-134.0,513.0,34.0,-55.0,0
-11.0,-187.0,-133.0,542.0,38.0,-60.0,0
-12.0,-180.0,-147.0,566.0,46.0,-61.0,0
-12.0,-181.0,-125.0,587.0,54.0,-67.0,0
-9.0,-176.0,-127.0,602.0,61.0,-67.0,0
-11.0,-176.0,-129.0,611.0,66.0,-72.0,0
-12.0,-176.0,-129.0,616.0,65.0,-72.0,0
-9.0,-173.0,-128.0,616.0,65.0,-77.0,0
-9.0,-172.0,-126.0,617.0,60.0,-77.0,0
-7.0,-169.0,-132.0,615.0,54.0,-81.0,0
-5.0,-174.0,-127.0,612.0,47.0,-79.0,0
-7.0,-172.0,-127.0,606.0,38.0,-83.0,0
-7.0,-173.0,-126.0,602.0,30.0,-82.0,0
-9.0,-175.0,-129.0,601.0,25.0,-85.0,0
-6.0,-179.0,-129.0,604.0,20.0,-85.0,0
-10.0,-181.0,-127.0,613.0,22.0,-86.0,0
-10.0,-182.0,-125.0,625.0,22.0,-84.0,0
-11.0,-184.0,-124.0,642.0,22.0,-88.0,0
-11.0,-185.0,-124.0,662.0,20.0,-89.0,0
-12.0,-184.0,-124.0,682.0,19.0,-94.0,0
-11.0,-186.0,-124.0,699.0,19.0,-97.0,0
-13.0,-183.0,-125.0,716.0,22.0,-107.0,0
-13.0,-182.0,-125.0,731.0,30.0,-111.0,0
-12.0,-182.0,-122.0,739.0,42.0,-118.0,0
-12.0,-181.0,-124.0,744.0,54.0,-120.0,0
-12.0,-183.0,-124.0,747.0,64.0,-127.0,0
-12.0,-184.0,-124.0,744.0,72.0,-128.0,0
-13.0,-187.0,-122.0,738.0,72.0,-134.0,0
-13.0,-184.0,-119.0,733.0,66.0,-137.0,0
-12.0,-188.0,-118.0,730.0,54.0,-145.0,0
-11.0,-194.0,-118.0,733.0,42.0,-149.0,0
-10.0,-194.0,-114.0,741.0,32.0,-151.0,0
-11.0,-195.0,-116.0,754.0,25.0,-149.0,0
-9.0,-195.0,-116.0,774.0,19.0,-148.0,0
-6.0,-194.0,-116.0,802.0,12.0,-143.0,0
-6.0,-194.0,-112.0,833.0,7.0,-139.0,0
-4.0,-192.0,-108.0,866.0,6.0,-131.0,0
-3.0,-194.0,-106.0,901.0,6.0,-126.0,0
-4.0,-196.0,-103.0,936.0,8.0,-116.0,0
-3.0,-196.0,-108.0,976.0,10.0,-110.0,0
-3.0,-197.0,-100.0,1004.0,12.0,-105.0,0
-4.0,-198.0,-100.0,1031.0,17.0,-103.0,0
-3.0,-201.0,-92.0,1058.0,20.0,-100.0,0
-1.0,-205.0,-88.0,1089.0,24.0,-105.0,0
0.0,-204.0,-82.0,1130.0,27.0,-108.0,0
-1.0,-208.0,-80.0,1183.0,27.0,-113.0,0
-1.0,-204.0,-83.0,1247.0,30.0,-116.0,0
-1.0,-202.0,-83.0,1333.0,42.0,-118.0,0
3.0,-210.0,-78.0,1411.0,59.0,-116.0,0
-1.0,-214.0,-64.0,1492.0,70.0,-117.0,0
-6.0,-233.0,-56.0,1568.0,65.0,-114.0,0
-11.0,-259.0,-44.0,1591.0,29.0,-121.0,0
-26.0,-306.0,-9.0,1539.0,-33.0,-153.0,0
-33.0,-368.0,54.0,1420.0,-119.0,-198.0,0
-39.0,-504.0,109.0,1278.0,-243.0,-251.0,0
-34.0,-671.0,164.0,1054.0,-406.0,-385.0,0
-94.0,-915.0,266.0,610.0,-616.0,-591.0,0
-162.0,-1033.0,119.0,-11.0,-848.0,-853.0,0
-98.0,-835.0,-694.0,-1568.0,-1111.0,-1127.0,0
89.0,-768.0,-872.0,-3881.0,-980.0,-1366.0,0
155.0,-903.0,-587.0,-4797.0,-313.0,-1293.0,0
173.0,-1107.0,-191.0,-3237.0,482.0,-694.0,0
59.0,-1042.0,-41.0,372.0,1055.0,-173.0,0
31.0,-781.0,-159.0,4406.0,1174.0,179.0,0
12.0,-565.0,-202.0,7473.0,964.0,414.0,0
20.0,-370.0,-206.0,8237.0,795.0,521.0,0
29.0,-216.0,-187.0,7642.0,714.0,562.0,0
5.0,-11.0,-124.0,6092.0,619.0,545.0,0
-27.0,158.0,23.0,4140.0,401.0,496.0,0
-29.0,308.0,217.0,2364.0,108.0,375.0,0
-33.0,423.0,355.0,1118.0,-168.0,198.0,0
-10.0,413.0,389.0,472.0,-411.0,81.0,0
18.0,312.0,292.0,358.0,-645.0,75.0,0
19.0,223.0,190.0,441.0,-815.0,118.0,0
14.0,125.0,56.0,303.0,-785.0,195.0,0
8.0,42.0,-38.0,-107.0,-631.0,266.0,0
-4.0,-38.0,-89.0,-637.0,-421.0,293.0,0
-10.0,-129.0,-95.0,-1103.0,-175.0,282.0,0
-27.0,-234.0,-59.0,-1364.0,77.0,246.0,0
-50.0,-335.0,-22.0,-1366.0,294.0,182.0,0
-69.0,-402.0,4.0,-1165.0,446.0,85.0,0
-77.0,-471.0,29.0,-867.0,540.0,-73.0,0
-65.0,-515.0,37.0,-492.0,543.0,-224.0,0
-46.0,-522.0,27.0,-220.0,489.0,-358.0,0
-15.0,-504.0,9.0,25.0,415.0,-435.0,0
2.0,-475.0,4.0,278.0,342.0,-445.0,0
16.0,-437.0,-7.0,561.0,266.0,-406.0,0
15.0,-401.0,-3.0,875.0,184.0,-342.0,0
21.0,-364.0,-6.0,1189.0,99.0,-260.0,0
25.0,-319.0,-8.0,1447.0,5.0,-151.0,0
23.0,-277.0,5.0,1628.0,-109.0,-54.0,0
23.0,-252.0,4.0,1683.0,-182.0,33.0,0
21.0,-223.0,7.0,1685.0,-222.0,92.0,0
23.0,-204.0,10.0,1666.0,-224.0,119.0,0
24.0,-193.0,16.0,1643.0,-195.0,121.0,0
26.0,-187.0,17.0,1618.0,-139.0,105.0,0
28.0,-180.0,25.0,1582.0,-61.0,77.0,0
33.0,-178.0,23.0,1528.0,24.0,39.0,0
25.0,-171.0,30.0,1448.0,124.0,-7.0,0
19.0,-171.0,32.0,1313.0,189.0,-33.0,0
14.0,-173.0,33.0,1165.0,232.0,-46.0,0
12.0,-176.0,42.0,996.0,253.0,-48.0,0
7.0,-186.0,42.0,815.0,259.0,-40.0,0
9.0,-199.0,39.0,651.0,257.0,-31.0,0
3.0,-218.0,38.0,514.0,247.0,-19.0,0
3.0,-230.0,32.0,410.0,232.0,-12.0,0
-3.0,-243.0,25.0,331.0,211.0,-3.0,0
-1.0,-253.0,21.0,260.0,180.0,1.0,0
-9.0,-255.0,17.0,230.0,147.0,0.0,0
-7.0,-262.0,16.0,231.0,112.0,-2.0,0
-8.0,-265.0,17.0,254.0,78.0,-3.0,0
-4.0,-264.0,14.0,286.0,49.0,-4.0,0
0.0,-269.0,12.0,319.0,27.0,-3.0,0
5.0,-270.0,13.0,343.0,19.0,-6.0,0
5.0,-268.0,15.0,354.0,19.0,-11.0,0
11.0,-271.0,14.0,354.0,31.0,-23.0,0
15.0,-273.0,16.0,358.0,51.0,-32.0,0
18.0,-273.0,15.0,367.0,75.0,-40.0,0
21.0,-265.0,13.0,385.0,100.0,-45.0,0
26.0,-265.0,16.0,398.0,119.0,-49.0,0
26.0,-260.0,15.0,408.0,135.0,-51.0,0
28.0,-254.0,23.0,417.0,144.0,-50.0,0
25.0,-249.0,27.0,421.0,147.0,-45.0,0
26.0,-246.0,35.0,419.0,142.0,-39.0,0
18.0,-240.0,32.0,406.0,131.0,-31.0,0
19.0,-238.0,39.0,390.0,119.0,-21.0,0
11.0,-235.0,39.0,365.0,107.0,-10.0,0
10.0,-230.0,39.0,335.0,98.0,0.0,0
6.0,-231.0,37.0,299.0,93.0,11.0,0
2.0,-231.0,37.0,259.0,88.0,14.0,0
0.0,-230.0,36.0,220.0,79.0,17.0,0
-3.0,-234.0,41.0,189.0,68.0,19.0,0
-1.0,-238.0,40.0,166.0,51.0,21.0,0
-2.0,-240.0,41.0,144.0,38.0,22.0,0
-3.0,-245.0,40.0,134.0,31.0,23.0,0
-1.0,-247.0,37.0,121.0,27.0,22.0,0
-1.0,-252.0,39.0,107.0,32.0,20.0,0
-1.0,-250.0,40.0,111.0,38.0,17.0,0
-2.0,-250.0,42.0,124.0,43.0,16.0,0
1.0,-249.0,38.0,131.0,45.0,13.0,0
3.0,-246.0,33.0,122.0,48.0,9.0,0
2.0,-249.0,31.0,97.0,58.0,6.0,0
1.0,-246.0,42.0,77.0,69.0,4.0,0
1.0,-247.0,48.0,65.0,82.0,0.0,0
3.0,-248.0,49.0,64.0,91.0,-3.0,0
2.0,-249.0,49.0,69.0,93.0,-5.0,0
3.0,-246.0,50.0,65.0,96.0,-5.0,0
6.0,-247.0,50.0,53.0,102.0,-4.0,0
4.0,-246.0,46.0,33.0,108.0,-2.0,0
2.0,-246.0,49.0,21.0,112.0,-5.0,0
1.0,-247.0,53.0,12.0,110.0,-5.0,0
3.0,-248.0,48.0,13.0,103.0,-1.0,0
3.0,-248.0,48.0,15.0,91.0,3.0,0
2.0,-244.0,46.0,16.0,79.0,9.0,0
1.0,-245.0,47.0,19.0,65.0,16.0,0
2.0,-248.0,48.0,18.0,54.0,19.0,0
-2.0,-245.0,48.0,18.0,46.0,26.0,0
-4.0,-243.0,44.0,14.0,43.0,29.0,0
-6.0,-242.0,42.0,1.0,43.0,32.0,0
-2.0,-242.0,46.0,-16.0,43.0,32.0,0
-4.0,-244.0,41.0,-33.0,47.0,28.0,0
-1.0,-242.0,43.0,-49.0,54.0,25.0,0
0.0,-243.0,46.0,-57.0,60.0,21.0,0
0.0,-246.0,48.0,-63.0,65.0,16.0,0
-4.0,-246.0,41.0,-71.0,70.0,11.0,0
-3.0,-244.0,41.0,-81.0,76.0,6.0,0
-4.0,-246.0,43.0,-92.0,82.0,0.0,0
-1.0,-248.0,39.0,-105.0,83.0,-2.0,0
2.0,-253.0,37.0,-112.0,85.0,-6.0,0
3.0,-248.0,37.0,-118.0,84.0,-8.0,0
4.0,-250.0,33.0,-123.0,84.0,-9.0,0
4.0,-248.0,32.0,-132.0,85.0,-9.0,0
6.0,-250.0,30.0,-139.0,85.0,-10.0,0
5.0,-252.0,31.0,-144.0,88.0,-9.0,0
7.0,-252.0,30.0,-147.0,91.0,-7.0,0
5.0,-250.0,28.0,-146.0,94.0,-7.0,0
8.0,-247.0,28.0,-150.0,93.0,-7.0,0
8.0,-249.0,27.0,-156.0,91.0,-6.0,0
7.0,-250.0,26.0,-166.0,88.0,-1.0,0
7.0,-256.0,24.0,-173.0,83.0,2.0,0
4.0,-255.0,27.0,-179.0,80.0,5.0,0
1.0,-257.0,27.0,-175.0,79.0,8.0,0
1.0,-258.0,27.0,-168.0,79.0,8.0,0
2.0,-258.0,30.0,-160.0,76.0,8.0,0
-1.0,-257.0,26.0,-145.0,74.0,7.0,0
-3.0,-260.0,28.0,-128.0,72.0,7.0,0
-2.0,-259.0,33.0,-107.0,70.0,5.0,0
-4.0,-255.0,36.0,-86.0,68.0,6.0,0
-1.0,-253.0,33.0,-67.0,65.0,3.0,0
-2.0,-253.0,36.0,-54.0,64.0,4.0,0
0.0,-253.0,37.0,-45.0,61.0,3.0,0
3.0,-249.0,34.0,-43.0,63.0,2.0,0
3.0,-250.0,37.0,-42.0,68.0,1.0,0
3.0,-250.0,32.0,-44.0,71.0,1.0,0
2.0,-246.0,38.0,-45.0,76.0,-1.0,0
4.0,-248.0,36.0,-45.0,80.0,0.0,0
7.0,-246.0,39.0,-46.0,81.0,-2.0,0
5.0,-244.0,37.0,-47.0,81.0,0.0,0
5.0,-246.0,44.0,-46.0,77.0,0.0,0
7.0,-247.0,40.0,-46.0,72.0,4.0,0
6.0,-246.0,35.0,-51.0,62.0,5.0,0
3.0,-246.0,39.0,-58.0,55.0,9.0,0
5.0,-248.0,35.0,-65.0,50.0,9.0,0
1.0,-249.0,32.0,-71.0,46.0,12.0,0
2.0,-254.0,37.0,-75.0,41.0,12.0,0
1.0,-256.0,36.0,-76.0,38.0,11.0,0
1.0,-252.0,33.0,-74.0,36.0,10.0,0
0.0,-254.0,33.0,-68.0,34.0,11.0,0
-2.0,-256.0,34.0,-65.0,31.0,9.0,0
-1.0,-253.0,31.0,-55.0,27.0,8.0,0
0.0,-254.0,31.0,-48.0,28.0,4.0,0
1.0,-253.0,33.0,-45.0,29.0,3.0,0
0.0,-252.0,28.0,-42.0,31.0,0.0,0
1.0,-251.0,29.0,-38.0,32.0,-1.0,0
1.0,-251.0,26.0,-39.0,35.0,-5.0,0
0.0,-249.0,27.0,-39.0,39.0,-7.0,0
2.0,-249.0,29.0,-41.0,44.0,-12.0,0
3.0,-250.0,21.0,-47.0,48.0,-14.0,0
5.0,-250.0,20.0,-48.0,56.0,-17.0,0
3.0,-249.0,29.0,-48.0,64.0,-19.0,0
4.0,-249.0,25.0,-50.0,72.0,-20.0,0
2.0,-246.0,25.0,-55.0,75.0,-19.0,0
3.0,-250.0,23.0,-61.0,76.0,-19.0,0
2.0,-251.0,25.0,-68.0,74.0,-16.0,0
1.0,-249.0,26.0,-75.0,71.0,-15.0,0
0.0,-250.0,20.0,-82.0,67.0,-9.0,0
0.0,-253.0,24.0,-90.0,61.0,-8.0,0
-3.0,-252.0,19.0,-98.0,55.0,-5.0,0
1.0,-252.0,19.0,-107.0,50.0,-6.0,0
2.0,-254.0,19.0,-116.0,47.0,-4.0,0
1.0,-253.0,21.0,-124.0,50.0,-3.0,0
2.0,-255.0,22.0,-128.0,51.0,-2.0,0
2.0,-253.0,23.0,-128.0,53.0,-2.0,0
3.0,-253.0,22.0,-127.0,54.0,-2.0,0
1.0,-254.0,20.0,-121.0,54.0,-1.0,0
0.0,-255.0,18.0,-115.0,54.0,1.0,0
2.0,-256.0,19.0,-111.0,59.0,1.0,0
4.0,-257.0,19.0,-107.0,66.0,5.0,0
2.0,-252.0,18.0,-103.0,73.0,4.0,0
2.0,-254.0,18.0,-101.0,80.0,6.0,0
2.0,-253.0,21.0,-97.0,86.0,5.0,0
4.0,-256.0,18.0,-99.0,87.0,6.0,0
3.0,-256.0,20.0,-98.0,89.0,5.0,0
2.0,-256.0,24.0,-97.0,88.0,7.0,0
4.0,-254.0,22.0,-94.0,85.0,5.0,0
3.0,-253.0,21.0,-90.0,79.0,7.0,0
1.0,-255.0,22.0,-88.0,73.0,6.0,0
3.0,-252.0,19.0,-86.0,65.0,8.0,0
2.0,-253.0,17.0,-87.0,61.0,8.0,0
4.0,-251.0,21.0,-88.0,59.0,10.0,0
4.0,-251.0,17.0,-91.0,58.0,8.0,0
0.0,-251.0,21.0,-97.0,59.0,11.0,0
1.0,-248.0,18.0,-102.0,58.0,9.0,0
3.0,-251.0,19.0,-107.0,59.0,13.0,0
0.0,-252.0,18.0,-112.0,59.0,9.0,0
3.0,-252.0,17.0,-116.0,59.0,11.0,0
5.0,-257.0,20.0,-117.0,58.0,9.0,0
2.0,-254.0,23.0,-115.0,57.0,9.0,0
2.0,-255.0,22.0,-113.0,56.0,6.0,0
3.0,-253.0,19.0,-107.0,54.0,8.0,0
4.0,-255.0,21.0,-97.0,54.0,4.0,0
3.0,-253.0,22.0,-92.0,56.0,7.0,0
4.0,-253.0,23.0,-86.0,56.0,4.0,0
6.0,-251.0,21.0,-84.0,53.0,7.0,0
5.0,-252.0,19.0,-85.0,48.0,7.0,0
4.0,-247.0,20.0,-86.0,42.0,12.0,0
4.0,-248.0,17.0,-92.0,36.0,14.0,0
3.0,-248.0,20.0,-100.0,32.0,20.0,0
3.0,-250.0,21.0,-110.0,28.0,21.0,0
0.0,-248.0,19.0,-121.0,27.0,24.0,0
-1.0,-249.0,22.0,-128.0,28.0,25.0,0
-1.0,-249.0,18.0,-137.0,30.0,26.0,0
0.0,-252.0,24.0,-145.0,33.0,24.0,0
-2.0,-252.0,19.0,-151.0,35.0,25.0,0
-2.0,-252.0,25.0,-155.0,37.0,21.0,0
-3.0,-254.0,21.0,-156.0,39.0,21.0,0
-2.0,-254.0,19.0,-156.0,42.0,17.0,0
-2.0,-252.0,20.0,-153.0,46.0,17.0,0
-2.0,-254.0,24.0,-152.0,50.0,14.0,0
-1.0,-256.0,20.0,-152.0,54.0,15.0,0
-1.0,-252.0,21.0,-150.0,55.0,11.0,0
-1.0,-255.0,18.0,-150.0,56.0,12.0,0
0.0,-255.0,18.0,-151.0,55.0,11.0,0
1.0,-253.0,20.0,-151.0,56.0,12.0,0
2.0,-254.0,22.0,-152.0,58.0,10.0,0
-1.0,-254.0,16.0,-158.0,61.0,12.0,0
1.0,-251.0,20.0,-164.0,62.0,10.0,0
0.0,-253.0,18.0,-172.0,64.0,12.0,0
1.0,-252.0,19.0,-179.0,63.0,10.0,0
-1.0,-249.0,17.0,-186.0,64.0,14.0,0
0.0,-251.0,20.0,-191.0,63.0,12.0,0
1.0,-254.0,19.0,-196.0,63.0,16.0,0
-1.0,-250.0,14.0,-199.0,64.0,15.0,0
0.0,-254.0,19.0,-201.0,61.0,19.0,0
-2.0,-252.0,14.0,-202.0,59.0,16.0,0
-1.0,-255.0,19.0,-202.0,57.0,17.0,0
-3.0,-255.0,15.0,-201.0,55.0,14.0,0
-3.0,-254.0,15.0,-198.0,54.0,16.0,0
-4.0,-254.0,14.0,-195.0,56.0,13.0,0
0.0,-253.0,13.0,-190.0,56.0,14.0,0
0.0,-255.0,10.0,-184.0,57.0,12.0,0
-1.0,-253.0,10.0,-177.0,58.0,12.0,0
2.0,-255.0,14.0,-174.0,58.0,9.0,0
1.0,-255.0,12.0,-169.0,62.0,11.0,0
3.0,-258.0,10.0,-167.0,63.0,8.0,0
-2.0,-256.0,9.0,-165.0,65.0,11.0,0
1.0,-255.0,11.0,-163.0,64.0,10.0,0
1.0,-257.0,11.0,-164.0,63.0,12.0,0
-2.0,-256.0,12.0,-163.0,64.0,7.0,0
0.0,-257.0,9.0,-161.0,63.0,8.0,0
-1.0,-258.0,8.0,-159.0,62.0,7.0,0
1.0,-259.0,9.0,-154.0,60.0,9.0,0
-2.0,-254.0,9.0,-149.0,60.0,6.0,0
-3.0,-256.0,8.0,-142.0,59.0,7.0,0
-1.0,-255.0,9.0,-134.0,59.0,4.0,0
-1.0,-259.0,8.0,-126.0,60.0,5.0,0
0.0,-257.0,10.0,-118.0,63.0,3.0,0
1.0,-258.0,6.0,-111.0,66.0,4.0,0
0.0,-258.0,7.0,-103.0,66.0,2.0,0
0.0,-256.0,8.0,-95.0,66.0,5.0,0
2.0,-258.0,3.0,-90.0,66.0,4.0,0
-1.0,-256.0,7.0,-86.0,65.0,5.0,0
1.0,-257.0,8.0,-83.0,64.0,3.0,0
-3.0,-251.0,8.0,-79.0,64.0,5.0,0
2.0,-257.0,8.0,-77.0,61.0,2.0,0
3.0,-255.0,8.0,-74.0,58.0,5.0,0
1.0,-255.0,6.0,-74.0,56.0,3.0,0
5.0,-259.0,8.0,-72.0,54.0,6.0,0
-1.0,-256.0,8.0,-70.0,53.0,3.0,0
1.0,-255.0,7.0,-68.0,55.0,4.0,0
0.0,-254.0,6.0,-65.0,56.0,2.0,0
2.0,-256.0,8.0,-62.0,57.0,2.0,0
1.0,-258.0,8.0,-55.0,60.0,-2.0,0
-2.0,-255.0,6.0,-49.0,60.0,1.0,0
0.0,-259.0,4.0,-44.0,59.0,-1.0,0
2.0,-256.0,6.0,-39.0,57.0,1.0,0
-1.0,-256.0,4.0,-35.0,54.0,-3.0,0
-1.0,-254.0,5.0,-33.0,55.0,-1.0,0
-2.0,-257.0,8.0,-31.0,54.0,-4.0,0
0.0,-254.0,4.0,-30.0,52.0,-2.0,0
2.0,-257.0,6.0,-28.0,52.0,-3.0,0
1.0,-256.0,7.0,-27.0,51.0,-1.0,0
3.0,-256.0,3.0,-27.0,51.0,-2.0,0
1.0,-253.0,4.0,-28.0,51.0,0.0,0
0.0,-254.0,5.0,-30.0,55.0,-2.0,0
-1.0,-251.0,-1.0,-32.0,56.0,0.0,0
0.0,-251.0,7.0,-35.0,57.0,-2.0,0
1.0,-255.0,7.0,-37.0,61.0,1.0,0
-2.0,-252.0,5.0,-39.0,59.0,-2.0,0
-1.0,-253.0,8.0,-40.0,59.0,1.0,0
1.0,-254.0,2.0,-44.0,59.0,-2.0,0
-1.0,-252.0,6.0,-47.0,57.0,1.0,0
-1.0,-254.0,2.0,-51.0,55.0,0.0,0
3.0,-257.0,3.0,-55.0,54.0,1.0,0
-1.0,-254.0,8.0,-57.0,54.0,-2.0,0
0.0,-255.0,6.0,-58.0,53.0,0.0,0
0.0,-256.0,7.0,-58.0,52.0,-2.0,0
-1.0,-256.0,8.0,-59.0,54.0,0.0,0
-3.0,-253.0,2.0,-58.0,55.0,-3.0,0
0.0,-254.0,4.0,-59.0,56.0,-2.0,0
-3.0,-251.0,6.0,-58.0,59.0,-4.0,0
-2.0,-254.0,6.0,-57.0,62.0,-1.0,0
0.0,-254.0,9.0,-58.0,63.0,-3.0,0
0.0,-258.0,6.0,-57.0,63.0,-1.0,0
-3.0,-255.0,3.0,-58.0,65.0,-2.0,0
0.0,-254.0,6.0,-58.0,67.0,-1.0,0
0.0,-255.0,10.0,-57.0,67.0,-3.0,0
-1.0,-254.0,6.0,-55.0,69.0,0.0,0
1.0,-253.0,10.0,-53.0,67.0,-2.0,0
1.0,-257.0,9.0,-50.0,64.0,0.0,0
0.0,-253.0,9.0,-44.0,62.0,-2.0,0
0.0,-254.0,5.0,-41.0,61.0,-1.0,0
1.0,-257.0,8.0,-36.0,61.0,-2.0,0
-1.0,-256.0,6.0,-31.0,57.0,-1.0,0
-2.0,-255.0,5.0,-26.0,56.0,-4.0,0
-1.0,-253.0,9.0,-22.0,54.0,-3.0,0
2.0,-254.0,8.0,-20.0,55.0,-3.0,0
1.0,-254.0,7.0,-21.0,55.0,0.0,0
2.0,-253.0,7.0,-24.0,57.0,-1.0,0
2.0,-254.0,8.0,-27.0,58.0,-1.0,0
0.0,-257.0,8.0,-29.0,59.0,-3.0,0
1.0,-255.0,8.0,-30.0,58.0,-1.0,0
1.0,-256.0,8.0,-30.0,56.0,-3.0,0
2.0,-256.0,4.0,-28.0,57.0,0.0,0
1.0,-257.0,8.0,-23.0,60.0,-3.0,0
1.0,-256.0,8.0,-19.0,64.0,0.0,0
2.0,-257.0,8.0,-12.0,65.0,-2.0,0
-1.0,-257.0,7.0,-9.0,67.0,0.0,0
2.0,-255.0,5.0,-7.0,65.0,-1.0,0
0.0,-255.0,4.0,-5.0,63.0,1.0,0
0.0,-256.0,3.0,-3.0,61.0,0.0,0
3.0,-254.0,6.0,3.0,57.0,3.0,0
2.0,-256.0,8.0,6.0,56.0,1.0,0
1.0,-254.0,4.0,6.0,50.0,3.0,0
1.0,-253.0,-2.0,3.0,48.0,0.0,0
0.0,-253.0,6.0,-3.0,47.0,2.0,0
0.0,-251.0,5.0,-9.0,52.0,1.0,0
0.0,-253.0,-1.0,-14.0,55.0,3.0,0
0.0,-256.0,5.0,-16.0,58.0,2.0,0
-1.0,-255.0,7.0,-15.0,59.0,4.0,0
3.0,-256.0,8.0,-11.0,62.0,2.0,0
-1.0,-254.0,4.0,-6.0,62.0,5.0,0
0.0,-256.0,6.0,-5.0,64.0,3.0,0
-1.0,-254.0,4.0,-3.0,65.0,4.0,0
-1.0,-255.0,8.0,-1.0,64.0,3.0,0
2.0,-258.0,5.0,1.0,63.0,3.0,0
0.0,-254.0,8.0,0.0,63.0,2.0,0
-2.0,-254.0,7.0,-2.0,62.0,3.0,0
1.0,-254.0,7.0,-2.0,61.0,1.0,0
1.0,-253.0,7.0,-3.0,59.0,4.0,0
0.0,-254.0,8.0,-4.0,60.0,0.0,0
2.0,-254.0,7.0,-5.0,58.0,4.0,0
0.0,-252.0,9.0,-7.0,57.0,2.0,0
2.0,-257.0,9.0,-11.0,58.0,3.0,0
-1.0,-253.0,8.0,-14.0,57.0,0.0,0
-1.0,-254.0,6.0,-17.0,59.0,3.0,0
2.0,-257.0,7.0,-19.0,58.0,1.0,0
-1.0,-254.0,9.0,-21.0,60.0,3.0,0
3.0,-257.0,8.0,-22.0,60.0,0.0,0
2.0,-255.0,10.0,-21.0,60.0,1.0,0
-1.0,-256.0,9.0,-24.0,61.0,-1.0,0
0.0,-256.0,7.0,-24.0,63.0,0.0,0
0.0,-258.0,7.0,-26.0,65.0,-1.0,0
-1.0,-253.0,7.0,-24.0,66.0,1.0,0
-2.0,-256.0,7.0,-26.0,68.0,-1.0,0
2.0,-256.0,8.0,-24.0,67.0,2.0,0
2.0,-257.0,7.0,-26.0,67.0,0.0,0
0.0,-257.0,8.0,-25.0,66.0,1.0,0
0.0,-253.0,3.0,-26.0,67.0,0.0,0
0.0,-253.0,6.0,-26.0,68.0,3.0,0
-3.0,-252.0,6.0,-25.0,67.0,2.0,0
1.0,-253.0,8.0,-24.0,65.0,3.0,0
-2.0,-253.0,8.0,-25.0,65.0,0.0,0
0.0,-255.0,6.0,-27.0,65.0,2.0,0
-1.0,-255.0,8.0,-27.0,65.0,1.0,0
0.0,-258.0,4.0,-28.0,67.0,2.0,0
2.0,-254.0,5.0,-28.0,67.0,1.0,0
0.0,-252.0,6.0,-29.0,68.0,1.0,0
-1.0,-255.0,9.0,-31.0,69.0,-2.0,0
-4.0,-254.0,4.0,-32.0,69.0,1.0,0
0.0,-256.0,7.0,-34.0,70.0,0.0,0
1.0,-258.0,7.0,-36.0,69.0,2.0,0
1.0,-255.0,8.0,-35.0,68.0,0.0,0
1.0,-259.0,7.0,-34.0,66.0,1.0,0
1.0,-257.0,4.0,-33.0,66.0,-2.0,0
2.0,-256.0,8.0,-30.0,64.0,0.0,0
-1.0,-253.0,6.0,-28.0,62.0,-1.0,0
1.0,-257.0,5.0,-26.0,60.0,0.0,0
2.0,-257.0,8.0,-25.0,58.0,-1.0,0
-1.0,-252.0,6.0,-25.0,58.0,0.0,0
-1.0,-256.0,5.0,-23.0,56.0,-2.0,0
0.0,-256.0,7.0,-20.0,56.0,1.0,0
2.0,-254.0,7.0,-19.0,58.0,-1.0,0
1.0,-256.0,6.0,-18.0,58.0,0.0,0
1.0,-256.0,4.0,-16.0,58.0,-2.0,0
0.0,-255.0,6.0,-16.0,59.0,0.0,0
1.0,-258.0,3.0,-16.0,60.0,-2.0,0
1.0,-257.0,7.0,-15.0,57.0,1.0,0
3.0,-256.0,6.0,-15.0,57.0,-1.0,0
1.0,-257.0,6.0,-14.0,57.0,1.0,0
0.0,-256.0,8.0,-15.0,56.0,-1.0,0
1.0,-257.0,8.0,-17.0,54.0,2.0,0
0.0,-255.0,9.0,-17.0,52.0,0.0,0
0.0,-254.0,8.0,-17.0,51.0,0.0,0
2.0,-257.0,8.0,-17.0,50.0,-1.0,0
-1.0,-256.0,8.0,-18.0,49.0,1.0,0
1.0,-256.0,5.0,-16.0,48.0,0.0,0
1.0,-254.0,8.0,-14.0,47.0,1.0,0
0.0,-256.0,7.0,-13.0,46.0,0.0,0
4.0,-254.0,6.0,-12.0,45.0,2.0,0
1.0,-253.0,6.0,-9.0,45.0,1.0,0
1.0,-255.0,7.0,-7.0,45.0,2.0,0
-1.0,-256.0,5.0,-6.0,45.0,1.0,0
0.0,-259.0,4.0,-2.0,45.0,1.0,0
3.0,-256.0,2.0,-1.0,45.0,2.0,0
-1.0,-253.0,-2.0,0.0,47.0,3.0,0
2.0,-258.0,4.0,1.0,47.0,1.0,0
0.0,-253.0,5.0,1.0,47.0,4.0,0
-2.0,-255.0,5.0,2.0,48.0,4.0,0
1.0,-254.0,4.0,4.0,50.0,4.0,0
2.0,-257.0,8.0,5.0,52.0,3.0,0
-2.0,-257.0,0.0,7.0,52.0,2.0,0
0.0,-257.0,7.0,8.0,53.0,2.0,0
-1.0,-255.0,7.0,9.0,53.0,2.0,0
-1.0,-255.0,3.0,10.0,53.0,-1.0,0
3.0,-252.0,5.0,8.0,53.0,1.0,0
-1.0,-253.0,8.0,5.0,52.0,0.0,0
0.0,-253.0,8.0,2.0,52.0,0.0,0
0.0,-252.0,8.0,-3.0,51.0,-2.0,0
0.0,-255.0,8.0,-5.0,49.0,-3.0,0
-3.0,-254.0,6.0,-9.0,49.0,-3.0,0
-1.0,-254.0,10.0,-9.0,49.0,-2.0,0
0.0,-255.0,5.0,-12.0,47.0,-2.0,0
-2.0,-253.0,3.0,-12.0,46.0,-1.0,0
2.0,-254.0,5.0,-12.0,45.0,-3.0,0
0.0,-255.0,8.0,-10.0,48.0,-2.0,0
0.0,-254.0,7.0,-7.0,49.0,-2.0,0
1.0,-256.0,6.0,-6.0,48.0,-3.0,0
-1.0,-256.0,6.0,-5.0,49.0,-3.0,0
2.0,-255.0,8.0,-6.0,48.0,-1.0,0
1.0,-256.0,7.0,-7.0,48.0,-3.0,0
-2.0,-256.0,7.0,-8.0,46.0,-2.0,0
2.0,-255.0,8.0,-9.0,46.0,-4.0,0
0.0,-254.0,7.0,-10.0,48.0,-2.0,0
-1.0,-256.0,5.0,-12.0,47.0,-3.0,0
-1.0,-255.0,8.0,-15.0,47.0,-5.0,0
1.0,-255.0,8.0,-17.0,48.0,-5.0,0
0.0,-255.0,9.0,-20.0,50.0,-5.0,0
0.0,-253.0,6.0,-22.0,48.0,-4.0,0
-2.0,-254.0,8.0,-24.0,50.0,-4.0,0
0.0,-254.0,7.0,-25.0,50.0,-5.0,0
0.0,-255.0,10.0,-23.0,49.0,-3.0,0
0.0,-254.0,6.0,-22.0,48.0,-4.0,0
0.0,-258.0,8.0,-21.0,47.0,-4.0,0
-2.0,-253.0,7.0,-20.0,49.0,-4.0,0
2.0,-257.0,4.0,-17.0,47.0,-3.0,0
-2.0,-254.0,8.0,-16.0,47.0,-3.0,0
1.0,-256.0,2.0,-15.0,48.0,-3.0,0
0.0,-255.0,2.0,-14.0,50.0,-4.0,0
-3.0,-255.0,8.0,-13.0,51.0,-3.0,0
-1.0,-254.0,4.0,-15.0,51.0,-5.0,0
-3.0,-255.0,4.0,-17.0,51.0,-5.0,0
0.0,-257.0,5.0,-19.0,49.0,-4.0,0
1.0,-257.0,7.0,-19.0,48.0,-5.0,0
3.0,-258.0,5.0,-18.0,49.0,-5.0,0
0.0,-254.0,7.0,-16.0,52.0,-3.0,0
-1.0,-255.0,2.0,-13.0,53.0,-2.0,0
1.0,-257.0,7.0,-11.0,51.0,1.0,0
-1.0,-255.0,5.0,-11.0,51.0,-2.0,0
2.0,-256.0,6.0,-12.0,51.0,-2.0,0
3.0,-256.0,2.0,-11.0,51.0,-1.0,0
0.0,-256.0,6.0,-10.0,49.0,-1.0,0
0.0,-254.0,7.0,-9.0,50.0,-2.0,0
-1.0,-256.0,7.0,-9.0,50.0,-2.0,0
1.0,-254.0,8.0,-7.0,51.0,-2.0,0
2.0,-254.0,4.0,-6.0,52.0,-3.0,0
-1.0,-253.0,8.0,-4.0,53.0,-2.0,0
2.0,-254.0,5.0,-5.0,54.0,-2.0,0
1.0,-254.0,8.0,-7.0,57.0,-2.0,0
-2.0,-254.0,10.0,-9.0,56.0,-4.0,0
1.0,-253.0,6.0,-11.0,56.0,-4.0,0
1.0,-256.0,10.0,-13.0,55.0,-3.0,0
-1.0,-252.0,7.0,-15.0,55.0,-3.0,0
3.0,-256.0,8.0,-17.0,53.0,-4.0,0
0.0,-256.0,6.0,-18.0,54.0,-4.0,0
2.0,-257.0,6.0,-19.0,53.0,-3.0,0
0.0,-255.0,8.0,-22.0,52.0,-2.0,0
-2.0,-254.0,6.0,-22.0,52.0,-2.0,0
3.0,-255.0,7.0,-23.0,50.0,-1.0,0
-3.0,-253.0,7.0,-23.0,50.0,-1.0,0
-1.0,-255.0,8.0,-22.0,47.0,0.0,0
2.0,-255.0,4.0,-20.0,47.0,1.0,0
2.0,-257.0,5.0,-17.0,49.0,0.0,0
2.0,-259.0,5.0,-11.0,48.0,2.0,0
0.0,-254.0,4.0,-8.0,51.0,2.0,0
-1.0,-254.0,4.0,-6.0,51.0,2.0,0
1.0,-254.0,2.0,-5.0,54.0,1.0,0
0.0,-254.0,7.0,-6.0,54.0,1.0,0
1.0,-252.0,6.0,-9.0,54.0,1.0,0
0.0,-252.0,7.0,-11.0,54.0,1.0,0
-1.0,-252.0,7.0,-15.0,54.0,-1.0,0
-2.0,-253.0,8.0,-18.0,55.0,-1.0,0
-1.0,-254.0,6.0,-21.0,55.0,-1.0,0
-1.0,-256.0,7.0,-25.0,54.0,-2.0,0
-1.0,-256.0,6.0,-26.0,53.0,-2.0,0
0.0,-256.0,6.0,-29.0,52.0,-4.0,0
1.0,-256.0,7.0,-28.0,51.0,-3.0,0
-1.0,-257.0,4.0,-29.0,51.0,-2.0,0
0.0,-254.0,7.0,-28.0,52.0,-2.0,0
0.0,-254.0,2.0,-24.0,50.0,-1.0,0
0.0,-258.0,8.0,-22.0,46.0,-3.0,0
0.0,-255.0,5.0,-19.0,44.0,-4.0,0
1.0,-255.0,3.0,-11.0,45.0,-3.0,0
3.0,-257.0,8.0,-7.0,46.0,-3.0,0
2.0,-254.0,3.0,-5.0,48.0,-5.0,0
1.0,-256.0,5.0,-4.0,49.0,-5.0,0
-2.0,-251.0,7.0,-5.0,50.0,-5.0,0
-1.0,-256.0,4.0,-7.0,53.0,-6.0,0
1.0,-252.0,6.0,-10.0,52.0,-5.0,0
2.0,-253.0,3.0,-13.0,53.0,-4.0,0
3.0,-255.0,7.0,-14.0,52.0,-1.0,0
0.0,-255.0,5.0,-16.0,51.0,-1.0,0
-1.0,-251.0,6.0,-15.0,52.0,1.0,0
-2.0,-255.0,3.0,-16.0,54.0,0.0,0
0.0,-255.0,9.0,-15.0,56.0,1.0,0
3.0,-255.0,7.0,-16.0,57.0,-1.0,0
1.0,-254.0,7.0,-16.0,57.0,-1.0,0
6.0,-255.0,5.0,-16.0,59.0,-1.0,0
4.0,-256.0,6.0,-18.0,57.0,-1.0,0
-3.0,-256.0,8.0,-16.0,57.0,-5.0,0
-1.0,-259.0,9.0,-16.0,57.0,-5.0,0
1.0,-255.0,5.0,-14.0,55.0,-6.0,0
1.0,-254.0,5.0,-15.0,54.0,-5.0,0
0.0,-253.0,5.0,-20.0,52.0,-4.0,0
-2.0,-253.0,2.0,-27.0,54.0,-4.0,0
1.0,-255.0,6.0,-32.0,55.0,-2.0,0
2.0,-251.0,7.0,-36.0,58.0,-1.0,0
2.0,-258.0,6.0,-36.0,60.0,-2.0,0
1.0,-256.0,9.0,-34.0,62.0,-1.0,0
2.0,-257.0,4.0,-27.0,61.0,-3.0,0
2.0,-258.0,6.0,-25.0,60.0,-2.0,0
2.0,-256.0,7.0,-20.0,58.0,-3.0,0
1.0,-255.0,8.0,-17.0,56.0,-3.0,0
-1.0,-257.0,8.0,-13.0,56.0,-5.0,0
2.0,-253.0,4.0,-12.0,55.0,-3.0,0
2.0,-254.0,5.0,-11.0,52.0,-4.0,0
3.0,-253.0,4.0,-12.0,50.0,-2.0,0
-1.0,-254.0,6.0,-14.0,47.0,-3.0,0
1.0,-253.0,8.0,-14.0,44.0,-1.0,0
3.0,-253.0,8.0,-17.0,42.0,0.0,0
2.0,-255.0,8.0,-19.0,42.0,0.0,0
1.0,-252.0,5.0,-24.0,41.0,0.0,0
1.0,-254.0,6.0,-27.0,43.0,0.0,0
0.0,-255.0,7.0,-30.0,44.0,0.0,0
3.0,-255.0,9.0,-33.0,45.0,1.0,0
1.0,-257.0,6.0,-37.0,47.0,-2.0,0
2.0,-255.0,2.0,-36.0,50.0,0.0,0
2.0,-255.0,5.0,-36.0,51.0,-2.0,0
0.0,-258.0,5.0,-37.0,51.0,-2.0,0
2.0,-255.0,6.0,-35.0,53.0,-4.0,0
1.0,-256.0,7.0,-34.0,52.0,-1.0,0
-1.0,-253.0,1.0,-32.0,52.0,-4.0,0
3.0,-258.0,3.0,-29.0,54.0,-2.0,0
0.0,-255.0,6.0,-29.0,53.0,-4.0,0
4.0,-255.0,4.0,-25.0,53.0,-3.0,0
2.0,-254.0,4.0,-24.0,54.0,-4.0,0
2.0,-254.0,2.0,-25.0,54.0,-3.0,0
2.0,-255.0,6.0,-26.0,54.0,-3.0,0
-1.0,-252.0,3.0,-28.0,54.0,-2.0,0
-1.0,-255.0,8.0,-31.0,55.0,-3.0,0
-2.0,-254.0,6.0,-34.0,55.0,-2.0,0
-1.0,-252.0,6.0,-35.0,56.0,-4.0,0
-1.0,-254.0,8.0,-38.0,56.0,0.0,0
0.0,-258.0,4.0,-37.0,59.0,-4.0,0
1.0,-254.0,4.0,-36.0,58.0,-2.0,0
-1.0,-251.0,4.0,-34.0,58.0,-3.0,0
1.0,-255.0,8.0,-35.0,59.0,-2.0,0
0.0,-256.0,7.0,-34.0,60.0,-3.0,0
0.0,-255.0,6.0,-32.0,60.0,-3.0,0
1.0,-257.0,1.0,-30.0,60.0,-4.0,0
0.0,-256.0,1.0,-27.0,62.0,-3.0,0
-2.0,-257.0,5.0,-24.0,62.0,-4.0,0
0.0,-255.0,3.0,-20.0,62.0,-2.0,0
3.0,-256.0,5.0,-19.0,63.0,-4.0,0
0.0,-250.0,4.0,-17.0,64.0,-3.0,0
2.0,-254.0,7.0,-18.0,65.0,-5.0,0
2.0,-254.0,7.0,-20.0,66.0,-3.0,0
2.0,-252.0,6.0,-21.0,68.0,-4.0,0
0.0,-254.0,4.0,-26.0,69.0,-2.0,0
-1.0,-255.0,4.0,-30.0,67.0,-4.0,0
-2.0,-252.0,4.0,-33.0,69.0,-3.0,0
0.0,-253.0,6.0,-35.0,67.0,-4.0,0
3.0,-256.0,4.0,-34.0,68.0,-2.0,0
1.0,-254.0,2.0,-34.0,65.0,-4.0,0
0.0,-257.0,5.0,-32.0,64.0,-2.0,0
4.0,-256.0,3.0,-27.0,60.0,-6.0,0
2.0,-258.0,6.0,-25.0,60.0,-3.0,0
0.0,-257.0,3.0,-23.0,59.0,-6.0,0
-1.0,-256.0,7.0,-21.0,57.0,-5.0,0
-1.0,-256.0,4.0,-18.0,58.0,-6.0,0
-1.0,-256.0,7.0,-17.0,58.0,-4.0,0
1.0,-254.0,5.0,-17.0,59.0,-5.0,0
-1.0,-252.0,4.0,-16.0,61.0,-3.0,0
2.0,-256.0,3.0,-15.0,63.0,-4.0,0
-1.0,-254.0,5.0,-14.0,63.0,-2.0,0
-1.0,-255.0,7.0,-17.0,63.0,-5.0,0
-4.0,-253.0,4.0,-20.0,64.0,-3.0,0
2.0,-253.0,3.0,-21.0,62.0,-5.0,0
-1.0,-253.0,0.0,-24.0,60.0,-2.0,0
0.0,-254.0,6.0,-25.0,62.0,-3.0,0
1.0,-256.0,4.0,-27.0,62.0,-2.0,0
4.0,-252.0,5.0,-29.0,61.0,-2.0,0
1.0,-255.0,5.0,-27.0,60.0,0.0,0
0.0,-254.0,0.0,-27.0,57.0,-3.0,0
2.0,-256.0,4.0,-28.0,57.0,1.0,0
0.0,-257.0,4.0,-25.0,56.0,-2.0,0
1.0,-258.0,1.0,-23.0,55.0,0.0,0
0.0,-253.0,5.0,-22.0,56.0,0.0,0
1.0,-254.0,1.0,-18.0,56.0,1.0,0
1.0,-256.0,0.0,-15.0,58.0,-1.0,0
2.0,-256.0,2.0,-12.0,58.0,1.0,0
4.0,-258.0,6.0,-7.0,59.0,0.0,0
2.0,-252.0,1.0,-6.0,61.0,2.0,0
1.0,-255.0,2.0,-5.0,63.0,0.0,0
1.0,-254.0,3.0,-5.0,64.0,0.0,0
1.0,-254.0,2.0,-5.0,65.0,-4.0,0
2.0,-254.0,2.0,-6.0,65.0,-2.0,0
1.0,-253.0,4.0,-7.0,66.0,-4.0,0
1.0,-254.0,4.0,-10.0,65.0,-2.0,0
2.0,-252.0,3.0,-10.0,68.0,-3.0,0
3.0,-255.0,0.0,-12.0,69.0,0.0,0
-2.0,-254.0,3.0,-13.0,70.0,-1.0,0
3.0,-254.0,3.0,-14.0,70.0,0.0,0
1.0,-252.0,3.0,-15.0,70.0,-2.0,0
2.0,-254.0,4.0,-15.0,69.0,1.0,0
1.0,-254.0,-3.0,-16.0,70.0,-2.0,0
3.0,-255.0,3.0,-17.0,71.0,0.0,0
-1.0,-255.0,5.0,-15.0,72.0,1.0,0
3.0,-256.0,1.0,-13.0,72.0,3.0,0
1.0,-255.0,2.0,-11.0,71.0,1.0,0
-1.0,-255.0,2.0,-10.0,73.0,3.0,0
0.0,-255.0,4.0,-11.0,71.0,1.0,0
2.0,-256.0,7.0,-9.0,72.0,4.0,0
3.0,-256.0,4.0,-7.0,70.0,1.0,0
0.0,-255.0,8.0,-6.0,72.0,2.0,0
1.0,-254.0,5.0,-7.0,73.0,0.0,0
-1.0,-256.0,7.0,-8.0,72.0,2.0,0
0.0,-254.0,4.0,-9.0,72.0,0.0,0
0.0,-255.0,4.0,-11.0,72.0,2.0,0
1.0,-255.0,5.0,-10.0,71.0,1.0,0
2.0,-255.0,8.0,-13.0,71.0,2.0,0
2.0,-258.0,6.0,-14.0,70.0,2.0,0
-1.0,-254.0,5.0,-14.0,70.0,4.0,0
4.0,-257.0,6.0,-15.0,69.0,2.0,0
0.0,-257.0,7.0,-14.0,68.0,4.0,0
-1.0,-255.0,4.0,-13.0,67.0,3.0,0
2.0,-256.0,8.0,-14.0,67.0,6.0,0
1.0,-256.0,2.0,-13.0,68.0,2.0,0
2.0,-254.0,1.0,-11.0,67.0,5.0,0
3.0,-258.0,6.0,-10.0,68.0,1.0,0
0.0,-253.0,0.0,-10.0,65.0,3.0,0
3.0,-258.0,4.0,-10.0,63.0,1.0,0
1.0,-256.0,6.0,-9.0,60.0,4.0,0
1.0,-257.0,1.0,-9.0,59.0,1.0,0
1.0,-253.0,0.0,-8.0,59.0,3.0,0
3.0,-258.0,2.0,-6.0,58.0,-2.0,0
1.0,-258.0,5.0,-2.0,58.0,1.0,0
1.0,-255.0,0.0,2.0,59.0,-1.0,0
2.0,-257.0,7.0,5.0,57.0,1.0,0
0.0,-255.0,7.0,10.0,57.0,0.0,0
1.0,-253.0,4.0,13.0,57.0,3.0,0
1.0,-254.0,2.0,13.0,56.0,0.0,0
3.0,-253.0,7.0,14.0,55.0,5.0,0
1.0,-255.0,6.0,13.0,53.0,3.0,0
2.0,-254.0,8.0,14.0,52.0,5.0,0
-1.0,-252.0,3.0,14.0,52.0,2.0,0
1.0,-254.0,5.0,15.0,51.0,5.0,0
0.0,-256.0,2.0,13.0,50.0,4.0,0
0.0,-258.0,2.0,11.0,49.0,5.0,0
0.0,-256.0,8.0,11.0,50.0,3.0,0
-1.0,-257.0,4.0,9.0,52.0,4.0,0
-3.0,-254.0,5.0,8.0,52.0,1.0,0
-1.0,-255.0,7.0,5.0,54.0,2.0,0
0.0,-255.0,5.0,4.0,57.0,-2.0,0
-1.0,-256.0,4.0,3.0,59.0,0.0,0
-1.0,-257.0,7.0,3.0,62.0,-3.0,0
-2.0,-254.0,5.0,5.0,64.0,-1.0,0
0.0,-257.0,4.0,6.0,64.0,-4.0,0
1.0,-254.0,5.0,6.0,63.0,-2.0,0
-2.0,-255.0,5.0,8.0,63.0,-4.0,0
-1.0,-253.0,2.0,9.0,62.0,-2.0,0
-2.0,-251.0,4.0,9.0,65.0,-5.0,0
1.0,-252.0,8.0,12.0,65.0,-2.0,0
-1.0,-252.0,8.0,10.0,67.0,-5.0,0
1.0,-251.0,9.0,8.0,66.0,-4.0,0
3.0,-250.0,11.0,3.0,64.0,-7.0,0
-1.0,-251.0,6.0,-2.0,60.0,-5.0,0
-3.0,-252.0,1.0,-10.0,57.0,-6.0,0
0.0,-253.0,9.0,-14.0,55.0,-3.0,0
1.0,-254.0,6.0,-17.0,54.0,-5.0,0
-1.0,-257.0,5.0,-16.0,58.0,-1.0,0
0.0,-256.0,7.0,-15.0,60.0,-3.0,0
-1.0,-255.0,5.0,-11.0,62.0,0.0,0
0.0,-257.0,7.0,-7.0,64.0,-3.0,0
1.0,-258.0,5.0,-6.0,65.0,-1.0,0
0.0,-256.0,7.0,-4.0,63.0,-2.0,0
1.0,-256.0,7.0,1.0,61.0,0.0,0
3.0,-257.0,8.0,5.0,61.0,-2.0,0
0.0,-255.0,9.0,7.0,59.0,2.0,0
1.0,-254.0,5.0,10.0,58.0,0.0,0
2.0,-254.0,-1.0,11.0,57.0,3.0,0
4.0,-251.0,-1.0,8.0,56.0,1.0,0
4.0,-252.0,4.0,4.0,57.0,4.0,0
2.0,-256.0,3.0,-2.0,60.0,3.0,0
2.0,-253.0,1.0,-7.0,61.0,4.0,0
3.0,-254.0,4.0,-6.0,62.0,2.0,0
1.0,-252.0,6.0,-3.0,63.0,4.0,0
2.0,-253.0,6.0,-1.0,63.0,2.0,0
2.0,-256.0,3.0,2.0,64.0,4.0,0
2.0,-256.0,5.0,3.0,62.0,3.0,0
1.0,-254.0,8.0,6.0,62.0,6.0,0
-1.0,-255.0,5.0,5.0,61.0,4.0,0
1.0,-256.0,7.0,6.0,60.0,5.0,0
0.0,-257.0,1.0,7.0,61.0,3.0,0
-3.0,-252.0,6.0,5.0,60.0,5.0,0
2.0,-257.0,0.0,3.0,60.0,1.0,0
1.0,-254.0,8.0,3.0,60.0,2.0,0
1.0,-254.0,5.0,2.0,58.0,0.0,0
3.0,-255.0,7.0,1.0,57.0,2.0,0
2.0,-255.0,5.0,0.0,58.0,0.0,0
-2.0,-256.0,6.0,-1.0,56.0,1.0,0
2.0,-257.0,1.0,-4.0,57.0,-1.0,0
1.0,-253.0,4.0,-4.0,57.0,1.0,0
-1.0,-251.0,6.0,-5.0,57.0,-1.0,0
0.0,-254.0,7.0,-6.0,58.0,2.0,0
1.0,-256.0,6.0,-6.0,60.0,0.0,0
1.0,-254.0,4.0,-5.0,61.0,3.0,0
0.0,-253.0,5.0,-5.0,61.0,0.0,0
-1.0,-255.0,4.0,-5.0,64.0,0.0,0
-1.0,-255.0,8.0,-6.0,63.0,-1.0,0
0.0,-253.0,5.0,-4.0,62.0,2.0,0
2.0,-255.0,6.0,-4.0,63.0,1.0,0
0.0,-252.0,7.0,-6.0,62.0,2.0,0
-1.0,-254.0,8.0,-8.0,62.0,1.0,0
3.0,-255.0,5.0,-9.0,61.0,2.0,0
1.0,-252.0,4.0,-11.0,59.0,1.0,0
-1.0,-249.0,-4.0,-11.0,61.0,3.0,0
2.0,-257.0,13.0,-11.0,61.0,0.0,0
0.0,-257.0,22.0,-10.0,59.0,3.0,0
7.0,-253.0,16.0,-9.0,59.0,1.0,0
-2.0,-254.0,32.0,-9.0,58.0,3.0,0
0.0,-254.0,4.0,-11.0,59.0,2.0,0
0.0,-254.0,8.0,-11.0,59.0,3.0,0
3.0,-257.0,9.0,-12.0,60.0,1.0,0
0.0,-253.0,9.0,-12.0,59.0,2.0,0
0.0,-255.0,8.0,-13.0,58.0,1.0,0
-1.0,-255.0,5.0,-14.0,58.0,2.0,0
1.0,-254.0,7.0,-14.0,57.0,0.0,0
2.0,-256.0,2.0,-13.0,56.0,1.0,0
-2.0,-251.0,5.0,-11.0,55.0,-1.0,0
-2.0,-257.0,8.0,-7.0,56.0,2.0,0
-1.0,-254.0,8.0,-4.0,54.0,-2.0,0
1.0,-253.0,7.0,-3.0,53.0,-1.0,0
4.0,-257.0,6.0,-2.0,50.0,-3.0,0
0.0,-256.0,8.0,-1.0,48.0,-1.0,0
-1.0,-255.0,3.0,-1.0,47.0,-1.0,0
-1.0,-251.0,6.0,-1.0,46.0,1.0,0
2.0,-254.0,8.0,-1.0,49.0,-1.0,0
0.0,-256.0,3.0,-2.0,53.0,1.0,0
-2.0,-256.0,-1.0,-3.0,55.0,-2.0,0
-2.0,-255.0,4.0,-4.0,57.0,0.0,0
-1.0,-254.0,8.0,-5.0,59.0,-1.0,0
0.0,-255.0,5.0,-7.0,60.0,1.0,0
-1.0,-255.0,9.0,-9.0,59.0,-1.0,0
-1.0,-257.0,6.0,-10.0,59.0,2.0,0
-1.0,-254.0,9.0,-11.0,58.0,1.0,0
0.0,-253.0,4.0,-12.0,57.0,1.0,0
1.0,-255.0,7.0,-12.0,56.0,-2.0,0
-1.0,-254.0,8.0,-13.0,57.0,2.0,0
-3.0,-257.0,7.0,-13.0,57.0,-2.0,0
2.0,-251.0,5.0,-13.0,56.0,0.0,0
0.0,-256.0,5.0,-13.0,54.0,-1.0,0
2.0,-256.0,5.0,-13.0,56.0,0.0,0
1.0,-254.0,7.0,-11.0,55.0,-1.0,0
1.0,-254.0,7.0,-11.0,55.0,1.0,0
-1.0,-257.0,5.0,-11.0,54.0,-1.0,0
1.0,-256.0,5.0,-10.0,56.0,0.0,0
1.0,-256.0,6.0,-9.0,54.0,0.0,0
2.0,-255.0,5.0,-9.0,53.0,1.0,0
3.0,-256.0,10.0,-8.0,54.0,1.0,0
5.0,-253.0,6.0,-8.0,53.0,2.0,0
2.0,-255.0,8.0,-8.0,52.0,2.0,0
2.0,-256.0,6.0,-7.0,50.0,2.0,0
3.0,-257.0,6.0,-7.0,51.0,1.0,0
1.0,-255.0,6.0,-7.0,51.0,4.0,0
3.0,-255.0,0.0,-7.0,53.0,2.0,0
1.0,-255.0,2.0,-5.0,52.0,3.0,0
-3.0,-255.0,5.0,-5.0,53.0,1.0,0
0.0,-254.0,6.0,-6.0,55.0,1.0,0
1.0,-257.0,4.0,-5.0,56.0,0.0,0
2.0,-254.0,3.0,-6.0,59.0,0.0,0
1.0,-254.0,4.0,-7.0,57.0,0.0,0
2.0,-255.0,8.0,-6.0,60.0,1.0,0
2.0,-254.0,8.0,-6.0,61.0,0.0,0
1.0,-255.0,6.0,-4.0,63.0,1.0,0
2.0,-254.0,4.0,-4.0,63.0,-1.0,0
-1.0,-255.0,8.0,-2.0,62.0,0.0,0
1.0,-257.0,8.0,0.0,61.0,-2.0,0
1.0,-254.0,6.0,0.0,58.0,0.0,0
0.0,-253.0,1.0,0.0,56.0,-1.0,0
-1.0,-255.0,7.0,2.0,57.0,0.0,0
0.0,-253.0,7.0,2.0,57.0,0.0,0
1.0,-255.0,1.0,2.0,56.0,1.0,0
0.0,-252.0,7.0,1.0,55.0,0.0,0
-1.0,-255.0,5.0,-1.0,56.0,2.0,0
0.0,-254.0,8.0,-2.0,56.0,-2.0,0
1.0,-256.0,5.0,-3.0,56.0,-1.0,0
2.0,-255.0,8.0,-6.0,56.0,-2.0,0
2.0,-255.0,8.0,-7.0,57.0,0.0,0
0.0,-252.0,5.0,-10.0,56.0,-4.0,0
1.0,-256.0,7.0,-12.0,54.0,-3.0,0
-1.0,-253.0,5.0,-16.0,53.0,-4.0,0
0.0,-254.0,8.0,-16.0,54.0,0.0,0
1.0,-257.0,8.0,-14.0,51.0,0.0,0
0.0,-257.0,8.0,-13.0,49.0,0.0,0
1.0,-257.0,5.0,-13.0,48.0,-3.0,0
-1.0,-257.0,5.0,-12.0,50.0,0.0,0
1.0,-256.0,4.0,-11.0,51.0,-1.0,0
1.0,-255.0,7.0,-8.0,52.0,0.0,0
2.0,-257.0,4.0,-5.0,53.0,-2.0,0
-1.0,-254.0,9.0,-3.0,57.0,1.0,0
1.0,-254.0,5.0,-1.0,57.0,0.0,0
0.0,-253.0,3.0,2.0,58.0,1.0,0
2.0,-257.0,6.0,5.0,58.0,2.0,0
0.0,-257.0,5.0,5.0,59.0,1.0,0
2.0,-254.0,6.0,5.0,60.0,2.0,0
-1.0,-255.0,7.0,6.0,60.0,1.0,0
0.0,-257.0,6.0,7.0,61.0,2.0,0
1.0,-256.0,8.0,8.0,61.0,2.0,0
2.0,-253.0,8.0,8.0,59.0,0.0,0
3.0,-255.0,6.0,9.0,58.0,2.0,0
1.0,-256.0,6.0,6.0,58.0,1.0,0
1.0,-254.0,8.0,4.0,57.0,2.0,0
1.0,-256.0,8.0,2.0,58.0,1.0,0
2.0,-254.0,7.0,-1.0,59.0,4.0,0
0.0,-255.0,8.0,-2.0,57.0,1.0,0
3.0,-255.0,5.0,-4.0,59.0,2.0,0
1.0,-255.0,6.0,-4.0,56.0,2.0,0
0.0,-255.0,9.0,-5.0,57.0,3.0,0
2.0,-256.0,10.0,-5.0,57.0,3.0,0
1.0,-257.0,7.0,-4.0,55.0,3.0,0
1.0,-254.0,8.0,-3.0,53.0,3.0,0
1.0,-253.0,8.0,-5.0,51.0,5.0,0
0.0,-255.0,14.0,-6.0,50.0,5.0,0
0.0,-254.0,11.0,-6.0,49.0,5.0,0
0.0,-256.0,11.0,-6.0,47.0,5.0,0
2.0,-258.0,8.0,-7.0,47.0,5.0,0
1.0,-253.0,8.0,-8.0,46.0,5.0,0
3.0,-254.0,8.0,-9.0,49.0,7.0,0
2.0,-255.0,8.0,-12.0,50.0,7.0,0
-2.0,-251.0,8.0,-11.0,50.0,7.0,0
0.0,-255.0,12.0,-13.0,52.0,7.0,0
-1.0,-253.0,9.0,-14.0,53.0,7.0,0
0.0,-256.0,8.0,-15.0,54.0,6.0,0
2.0,-256.0,9.0,-17.0,55.0,6.0,0
-5.0,-256.0,9.0,-16.0,54.0,7.0,0
0.0,-254.0,8.0,-17.0,54.0,6.0,0
2.0,-255.0,6.0,-16.0,54.0,6.0,0
0.0,-254.0,6.0,-16.0,54.0,5.0,0
2.0,-258.0,8.0,-14.0,54.0,5.0,0
0.0,-258.0,8.0,-12.0,54.0,5.0,0
1.0,-256.0,6.0,-10.0,52.0,4.0,0
0.0,-255.0,5.0,-8.0,52.0,4.0,0
0.0,-253.0,2.0,-8.0,50.0,1.0,0
-1.0,-252.0,6.0,-9.0,51.0,3.0,0
0.0,-254.0,9.0,-9.0,52.0,3.0,0
-2.0,-252.0,6.0,-8.0,52.0,3.0,0
-3.0,-252.0,4.0,-8.0,54.0,5.0,0
-2.0,-253.0,10.0,-7.0,56.0,4.0,0
-1.0,-254.0,6.0,-8.0,58.0,3.0,0
1.0,-255.0,5.0,-7.0,60.0,4.0,0
-1.0,-256.0,7.0,-8.0,61.0,3.0,0
2.0,-258.0,6.0,-9.0,62.0,2.0,0
1.0,-256.0,6.0,-8.0,60.0,3.0,0
1.0,-258.0,4.0,-8.0,62.0,1.0,0
1.0,-255.0,7.0,-6.0,60.0,1.0,0
0.0,-254.0,2.0,-6.0,60.0,1.0,0
1.0,-255.0,8.0,-5.0,59.0,-1.0,0
0.0,-256.0,6.0,-7.0,59.0,-1.0,0
1.0,-253.0,5.0,-8.0,60.0,-1.0,0
-3.0,-255.0,7.0,-7.0,61.0,-2.0,0
1.0,-254.0,4.0,-10.0,63.0,-3.0,0
1.0,-254.0,9.0,-14.0,62.0,-3.0,0
1.0,-257.0,7.0,-17.0,60.0,-3.0,0
2.0,-253.0,5.0,-22.0,58.0,-2.0,0
0.0,-257.0,9.0,-24.0,56.0,-1.0,0
4.0,-255.0,7.0,-23.0,55.0,-1.0,0
0.0,-255.0,12.0,-20.0,56.0,-1.0,0
1.0,-257.0,8.0,-14.0,58.0,-1.0,0
0.0,-258.0,4.0,-8.0,60.0,-1.0,0
0.0,-257.0,8.0,-4.0,61.0,-2.0,0
0.0,-256.0,6.0,1.0,58.0,-1.0,0
-2.0,-255.0,8.0,6.0,58.0,-2.0,0
2.0,-258.0,10.0,12.0,55.0,0.0,0
1.0,-258.0,8.0,17.0,55.0,0.0,0
-2.0,-255.0,5.0,21.0,55.0,2.0,0
-2.0,-251.0,6.0,25.0,55.0,1.0,0
2.0,-253.0,0.0,25.0,57.0,1.0,0
0.0,-250.0,4.0,18.0,60.0,1.0,0
2.0,-250.0,5.0,8.0,63.0,1.0,0
0.0,-251.0,6.0,-3.0,65.0,-1.0,0
3.0,-252.0,5.0,-11.0,69.0,0.0,0
0.0,-253.0,3.0,-16.0,71.0,-2.0,0
1.0,-254.0,5.0,-19.0,72.0,-1.0,0
0.0,-254.0,11.0,-19.0,73.0,-1.0,0
0.0,-258.0,6.0,-18.0,72.0,-1.0,0
1.0,-256.0,8.0,-17.0,71.0,-2.0,0
-2.0,-257.0,6.0,-13.0,68.0,-1.0,0
-1.0,-257.0,8.0,-11.0,65.0,-1.0,0
-1.0,-257.0,7.0,-9.0,63.0,-1.0,0
-2.0,-257.0,10.0,-8.0,61.0,-2.0,0
1.0,-257.0,6.0,-7.0,59.0,-1.0,0
-2.0,-255.0,8.0,-7.0,57.0,-1.0,0
1.0,-254.0,6.0,-5.0,57.0,-1.0,0
0.0,-254.0,8.0,-5.0,56.0,-1.0,0
0.0,-253.0,6.0,-2.0,58.0,1.0,0
-1.0,-257.0,6.0,-1.0,59.0,1.0,0
0.0,-255.0,8.0,1.0,63.0,3.0,0
-1.0,-254.0,8.0,4.0,62.0,2.0,0
1.0,-256.0,8.0,5.0,63.0,3.0,0
2.0,-257.0,5.0,7.0,63.0,3.0,0
2.0,-256.0,7.0,13.0,62.0,5.0,0
-2.0,-253.0,8.0,17.0,62.0,4.0,0
1.0,-255.0,6.0,23.0,62.0,5.0,0
1.0,-257.0,4.0,30.0,65.0,3.0,0
-3.0,-254.0,6.0,34.0,68.0,4.0,0
-1.0,-256.0,7.0,35.0,69.0,2.0,0
0.0,-258.0,7.0,39.0,71.0,5.0,0
1.0,-251.0,7.0,38.0,72.0,4.0,0
0.0,-253.0,5.0,37.0,73.0,5.0,0
-3.0,-253.0,3.0,37.0,72.0,6.0,0
0.0,-253.0,8.0,33.0,73.0,8.0,0
0.0,-254.0,3.0,30.0,75.0,8.0,0
0.0,-251.0,6.0,26.0,75.0,10.0,0
-1.0,-255.0,8.0,23.0,76.0,8.0,0
-1.0,-254.0,7.0,17.0,72.0,8.0,0
0.0,-252.0,9.0,14.0,68.0,8.0,0
-1.0,-255.0,9.0,11.0,65.0,7.0,0
0.0,-256.0,8.0,7.0,62.0,7.0,0
-2.0,-255.0,6.0,4.0,59.0,7.0,0
-2.0,-256.0,7.0,4.0,58.0,4.0,0
0.0,-256.0,8.0,4.0,57.0,5.0,0
1.0,-252.0,7.0,5.0,55.0,2.0,0
1.0,-257.0,10.0,4.0,55.0,2.0,0
1.0,-258.0,10.0,3.0,55.0,1.0,0
-2.0,-256.0,8.0,2.0,56.0,1.0,0
1.0,-255.0,8.0,1.0,56.0,-1.0,0
0.0,-257.0,8.0,0.0,56.0,0.0,0
-2.0,-254.0,10.0,-2.0,56.0,-3.0,0
0.0,-256.0,9.0,-4.0,54.0,-2.0,0
1.0,-253.0,10.0,-7.0,54.0,-3.0,0
1.0,-255.0,7.0,-8.0,51.0,-2.0,0
-1.0,-254.0,9.0,-10.0,49.0,-3.0,0
1.0,-256.0,9.0,-10.0,47.0,-1.0,0
0.0,-256.0,8.0,-10.0,49.0,-3.0,0
2.0,-254.0,8.0,-11.0,49.0,-2.0,0
0.0,-255.0,9.0,-12.0,52.0,-3.0,0
-2.0,-254.0,9.0,-12.0,55.0,-2.0,0
-4.0,-254.0,10.0,-13.0,53.0,-5.0,0
2.0,-256.0,9.0,-12.0,53.0,-3.0,0
-1.0,-255.0,8.0,-12.0,53.0,-4.0,0
-1.0,-254.0,8.0,-13.0,53.0,-4.0,0
0.0,-252.0,6.0,-12.0,52.0,-4.0,0
-2.0,-252.0,6.0,-13.0,51.0,-2.0,0
-3.0,-253.0,8.0,-15.0,48.0,-4.0,0
0.0,-254.0,8.0,-16.0,45.0,-3.0,0
-2.0,-254.0,7.0,-18.0,44.0,-4.0,0
0.0,-254.0,6.0,-19.0,43.0,-2.0,0
2.0,-254.0,10.0,-20.0,43.0,-3.0,0
-1.0,-254.0,10.0,-19.0,42.0,-3.0,0
-3.0,-254.0,8.0,-18.0,44.0,-3.0,0
0.0,-253.0,7.0,-19.0,43.0,-1.0,0
0.0,-253.0,8.0,-19.0,43.0,-3.0,0
0.0,-253.0,5.0,-20.0,45.0,-1.0,0
-1.0,-255.0,9.0,-23.0,44.0,-3.0,0
-1.0,-255.0,8.0,-27.0,45.0,-1.0,0
1.0,-254.0,8.0,-28.0,45.0,-3.0,0
0.0,-255.0,6.0,-32.0,43.0,-3.0,0
-1.0,-256.0,8.0,-33.0,45.0,-5.0,0
0.0,-257.0,8.0,-33.0,45.0,-4.0,0
-1.0,-257.0,7.0,-30.0,46.0,-4.0,0
-2.0,-257.0,6.0,-26.0,47.0,-3.0,0
-1.0,-256.0,8.0,-21.0,50.0,-4.0,0
0.0,-256.0,9.0,-15.0,50.0,0.0,0
0.0,-259.0,9.0,-6.0,54.0,-3.0,0
-2.0,-255.0,7.0,0.0,56.0,0.0,0
-2.0,-257.0,8.0,6.0,57.0,-2.0,0
-1.0,-259.0,9.0,14.0,57.0,-2.0,0
-3.0,-257.0,7.0,21.0,59.0,-5.0,0
4.0,-259.0,11.0,28.0,60.0,-4.0,0
0.0,-258.0,4.0,34.0,60.0,-9.0,0
-2.0,-254.0,7.0,39.0,59.0,-6.0,0
0.0,-257.0,5.0,44.0,61.0,-9.0,0
1.0,-255.0,5.0,48.0,60.0,-9.0,0
1.0,-257.0,8.0,53.0,58.0,-9.0,0
-2.0,-252.0,8.0,56.0,57.0,-9.0,0
2.0,-256.0,9.0,57.0,55.0,-11.0,0
-1.0,-255.0,10.0,58.0,56.0,-9.0,0
1.0,-255.0,6.0,59.0,54.0,-11.0,0
0.0,-255.0,12.0,59.0,57.0,-9.0,0
3.0,-255.0,8.0,61.0,58.0,-12.0,0
0.0,-255.0,8.0,64.0,58.0,-10.0,0
2.0,-257.0,8.0,67.0,63.0,-10.0,0
2.0,-256.0,8.0,69.0,64.0,-8.0,0
2.0,-256.0,7.0,69.0,66.0,-9.0,0
0.0,-254.0,7.0,68.0,68.0,-7.0,0
1.0,-252.0,8.0,64.0,69.0,-9.0,0
3.0,-252.0,8.0,61.0,69.0,-7.0,0
1.0,-253.0,9.0,56.0,66.0,-9.0,0
2.0,-250.0,9.0,55.0,65.0,-5.0,0
2.0,-250.0,9.0,52.0,63.0,-7.0,0
1.0,-250.0,11.0,47.0,62.0,-5.0,0
1.0,-247.0,10.0,39.0,61.0,-6.0,0
1.0,-251.0,11.0,32.0,60.0,-3.0,0
1.0,-253.0,11.0,26.0,59.0,-5.0,0
0.0,-252.0,11.0,20.0,57.0,-4.0,0
1.0,-252.0,9.0,14.0,55.0,-6.0,0
3.0,-253.0,12.0,10.0,55.0,-4.0,0
0.0,-254.0,11.0,5.0,57.0,-5.0,0
-1.0,-250.0,12.0,3.0,56.0,-3.0,0
2.0,-255.0,9.0,0.0,56.0,-6.0,0
0.0,-256.0,10.0,1.0,55.0,-2.0,0
2.0,-254.0,10.0,-1.0,54.0,-4.0,0
0.0,-255.0,9.0,0.0,55.0,-2.0,0
1.0,-257.0,9.0,1.0,56.0,-5.0,0
-1.0,-254.0,12.0,5.0,56.0,-1.0,0
0.0,-256.0,11.0,9.0,56.0,-2.0,0
1.0,-260.0,9.0,18.0,54.0,0.0,0
0.0,-260.0,10.0,33.0,52.0,-1.0,0
2.0,-262.0,8.0,50.0,49.0,1.0,0
0.0,-260.0,8.0,69.0,48.0,-1.0,0
1.0,-260.0,9.0,89.0,45.0,0.0,0
3.0,-259.0,6.0,107.0,46.0,0.0,0
1.0,-258.0,9.0,121.0,47.0,3.0,0
-2.0,-255.0,7.0,128.0,49.0,1.0,0
-3.0,-253.0,8.0,131.0,48.0,3.0,0
4.0,-254.0,10.0,130.0,46.0,1.0,0
1.0,-251.0,12.0,127.0,44.0,2.0,0
0.0,-249.0,13.0,118.0,45.0,1.0,0
1.0,-249.0,13.0,109.0,42.0,4.0,0
-2.0,-249.0,15.0,97.0,41.0,1.0,0
-1.0,-247.0,14.0,84.0,41.0,4.0,0
1.0,-246.0,15.0,65.0,39.0,2.0,0
0.0,-249.0,12.0,51.0,39.0,5.0,0
0.0,-249.0,15.0,37.0,39.0,2.0,0
1.0,-251.0,16.0,23.0,39.0,4.0,0
-1.0,-250.0,12.0,11.0,40.0,0.0,0
-1.0,-253.0,13.0,0.0,41.0,1.0,0
0.0,-254.0,11.0,-7.0,40.0,-1.0,0
0.0,-256.0,15.0,-11.0,40.0,0.0,0
0.0,-259.0,15.0,-11.0,41.0,-3.0,0
1.0,-258.0,11.0,-8.0,43.0,-1.0,0
-1.0,-257.0,11.0,-1.0,46.0,-3.0,0
2.0,-260.0,12.0,7.0,49.0,-2.0,0
0.0,-258.0,13.0,17.0,50.0,-3.0,0
1.0,-256.0,12.0,25.0,50.0,-1.0,0
2.0,-258.0,10.0,30.0,52.0,-3.0,0
2.0,-256.0,13.0,36.0,51.0,-2.0,0
4.0,-258.0,14.0,39.0,51.0,-4.0,0
2.0,-255.0,17.0,40.0,53.0,-1.0,0
0.0,-253.0,14.0,40.0,51.0,-2.0,0
2.0,-254.0,12.0,37.0,49.0,-1.0,0
3.0,-252.0,15.0,33.0,48.0,-3.0,0
0.0,-250.0,12.0,28.0,48.0,1.0,0
0.0,-252.0,12.0,22.0,48.0,1.0,0
-3.0,-248.0,12.0,16.0,49.0,1.0,0
1.0,-252.0,11.0,9.0,50.0,-2.0,0
0.0,-250.0,16.0,4.0,51.0,1.0,0
0.0,-253.0,12.0,-3.0,51.0,-2.0,0
3.0,-254.0,13.0,-7.0,51.0,0.0,0
2.0,-254.0,10.0,-10.0,52.0,-2.0,0
1.0,-252.0,13.0,-13.0,53.0,-1.0,0
1.0,-252.0,12.0,-14.0,53.0,-2.0,0
2.0,-255.0,13.0,-16.0,55.0,-1.0,0
3.0,-254.0,15.0,-15.0,54.0,-5.0,0
1.0,-254.0,14.0,-11.0,56.0,-5.0,0
1.0,-256.0,11.0,-6.0,59.0,-6.0,0
3.0,-255.0,10.0,-2.0,60.0,-5.0,0
4.0,-254.0,11.0,2.0,60.0,-6.0,0
0.0,-254.0,10.0,4.0,61.0,-2.0,0
3.0,-254.0,13.0,8.0,60.0,-2.0,0
2.0,-257.0,12.0,12.0,60.0,1.0,0
2.0,-256.0,16.0,14.0,60.0,0.0,0
1.0,-255.0,11.0,15.0,59.0,4.0,0
1.0,-255.0,14.0,16.0,58.0,3.0,0
0.0,-256.0,14.0,17.0,58.0,6.0,0
3.0,-254.0,12.0,16.0,58.0,5.0,0
2.0,-257.0,12.0,15.0,58.0,5.0,0
3.0,-255.0,16.0,16.0,56.0,3.0,0
1.0,-257.0,17.0,19.0,57.0,5.0,0
0.0,-255.0,11.0,22.0,56.0,1.0,0
1.0,-255.0,13.0,25.0,56.0,4.0,0
2.0,-257.0,14.0,29.0,58.0,1.0,0
0.0,-255.0,15.0,31.0,60.0,2.0,0
1.0,-253.0,14.0,31.0,62.0,0.0,0
0.0,-253.0,13.0,28.0,65.0,4.0,0
1.0,-254.0,14.0,25.0,67.0,2.0,0
1.0,-254.0,13.0,22.0,68.0,5.0,0
3.0,-257.0,19.0,23.0,71.0,3.0,0
1.0,-257.0,13.0,29.0,73.0,6.0,0
2.0,-257.0,16.0,38.0,72.0,6.0,0
2.0,-256.0,17.0,49.0,72.0,9.0,0
2.0,-257.0,15.0,59.0,69.0,10.0,0
2.0,-258.0,18.0,70.0,67.0,13.0,0
2.0,-255.0,17.0,79.0,65.0,11.0,0
2.0,-256.0,13.0,88.0,62.0,14.0,0
3.0,-255.0,15.0,95.0,59.0,13.0,0
2.0,-257.0,11.0,99.0,56.0,15.0,0
0.0,-255.0,13.0,102.0,55.0,13.0,0
1.0,-259.0,14.0,105.0,57.0,15.0,0
-2.0,-255.0,12.0,108.0,58.0,11.0,0
0.0,-256.0,12.0,112.0,60.0,12.0,0
-3.0,-253.0,14.0,115.0,62.0,9.0,0
-3.0,-256.0,16.0,116.0,66.0,11.0,0
-4.0,-257.0,16.0,118.0,69.0,7.0,0
-5.0,-255.0,17.0,120.0,70.0,7.0,0
-5.0,-251.0,16.0,119.0,73.0,5.0,0
-4.0,-255.0,13.0,119.0,74.0,6.0,0
-7.0,-254.0,12.0,119.0,75.0,3.0,0
-3.0,-256.0,13.0,116.0,78.0,3.0,0
-6.0,-253.0,15.0,115.0,78.0,-2.0,0
-5.0,-252.0,17.0,113.0,78.0,0.0,0
-5.0,-249.0,14.0,114.0,80.0,-2.0,0
-1.0,-255.0,13.0,117.0,80.0,0.0,0
0.0,-250.0,15.0,118.0,81.0,-2.0,0
0.0,-252.0,16.0,117.0,79.0,-1.0,0
1.0,-249.0,13.0,111.0,80.0,-3.0,0
4.0,-247.0,15.0,107.0,77.0,-3.0,0
3.0,-249.0,12.0,101.0,75.0,-4.0,0
3.0,-251.0,20.0,92.0,71.0,0.0,0
0.0,-248.0,16.0,87.0,70.0,-1.0,0
3.0,-249.0,15.0,78.0,68.0,4.0,0
2.0,-249.0,16.0,72.0,66.0,3.0,0
1.0,-251.0,20.0,66.0,63.0,6.0,0
4.0,-254.0,18.0,57.0,60.0,5.0,0
4.0,-252.0,16.0,53.0,54.0,7.0,0
3.0,-254.0,18.0,51.0,52.0,6.0,0
-1.0,-251.0,20.0,48.0,49.0,10.0,0
2.0,-253.0,25.0,47.0,48.0,8.0,0
2.0,-254.0,22.0,48.0,48.0,12.0,0
2.0,-250.0,25.0,48.0,48.0,12.0,0
1.0,-248.0,19.0,47.0,47.0,16.0,0
4.0,-252.0,22.0,45.0,50.0,17.0,0
3.0,-253.0,27.0,40.0,52.0,21.0,0
5.0,-248.0,29.0,35.0,53.0,21.0,0
2.0,-253.0,28.0,30.0,55.0,26.0,0
3.0,-251.0,27.0,23.0,53.0,25.0,0
0.0,-251.0,25.0,16.0,49.0,28.0,0
2.0,-250.0,25.0,13.0,44.0,28.0,0
3.0,-252.0,28.0,5.0,39.0,32.0,0
1.0,-252.0,27.0,-1.0,33.0,29.0,0
1.0,-253.0,27.0,-6.0,28.0,31.0,0
2.0,-253.0,25.0,-11.0,23.0,27.0,0
0.0,-255.0,22.0,-11.0,19.0,28.0,0
2.0,-256.0,24.0,-8.0,20.0,25.0,0
0.0,-252.0,21.0,-6.0,21.0,25.0,0
2.0,-258.0,19.0,-3.0,24.0,22.0,0
0.0,-254.0,23.0,1.0,29.0,22.0,0
-1.0,-256.0,22.0,6.0,30.0,20.0,0
1.0,-258.0,18.0,12.0,32.0,21.0,0
-2.0,-252.0,21.0,17.0,33.0,19.0,0
1.0,-254.0,20.0,21.0,33.0,21.0,0
-1.0,-255.0,19.0,26.0,37.0,17.0,0
0.0,-255.0,18.0,29.0,37.0,19.0,0
-2.0,-255.0,21.0,33.0,39.0,18.0,0
-3.0,-248.0,19.0,35.0,41.0,19.0,0
-2.0,-254.0,20.0,34.0,42.0,16.0,0
-3.0,-247.0,18.0,37.0,44.0,19.0,0
1.0,-251.0,21.0,36.0,45.0,17.0,0
-2.0,-253.0,22.0,32.0,42.0,18.0,0
0.0,-251.0,22.0,30.0,41.0,17.0,0
1.0,-252.0,20.0,25.0,40.0,20.0,0
-2.0,-251.0,22.0,22.0,37.0,18.0,0
-3.0,-252.0,23.0,18.0,37.0,20.0,0
-3.0,-253.0,26.0,16.0,34.0,17.0,0
-3.0,-253.0,26.0,16.0,33.0,19.0,0
-1.0,-252.0,25.0,13.0,32.0,17.0,0
-4.0,-256.0,24.0,12.0,31.0,18.0,0
-2.0,-255.0,27.0,14.0,31.0,17.0,0
-2.0,-252.0,24.0,16.0,33.0,18.0,0
0.0,-255.0,24.0,18.0,31.0,17.0,0
-2.0,-254.0,22.0,23.0,30.0,17.0,0
-4.0,-253.0,22.0,28.0,26.0,16.0,0
0.0,-256.0,23.0,33.0,23.0,17.0,0
-1.0,-254.0,20.0,37.0,18.0,16.0,0
0.0,-254.0,20.0,39.0,16.0,19.0,0
-3.0,-251.0,24.0,41.0,14.0,18.0,0
-2.0,-251.0,22.0,39.0,12.0,20.0,0
-2.0,-252.0,23.0,37.0,12.0,20.0,0
-3.0,-249.0,24.0,34.0,11.0,21.0,0
-3.0,-250.0,24.0,29.0,10.0,20.0,0
-1.0,-250.0,23.0,22.0,7.0,22.0,0
-1.0,-251.0,24.0,17.0,5.0,21.0,0
-2.0,-252.0,25.0,10.0,3.0,22.0,0
0.0,-250.0,27.0,8.0,3.0,22.0,0
-4.0,-252.0,22.0,8.0,2.0,24.0,0
-1.0,-252.0,22.0,8.0,4.0,23.0,0
0.0,-250.0,24.0,8.0,7.0,25.0,0
1.0,-249.0,23.0,10.0,13.0,23.0,0
-3.0,-247.0,26.0,10.0,19.0,25.0,0
-2.0,-250.0,24.0,10.0,24.0,27.0,0
2.0,-252.0,29.0,13.0,30.0,26.0,0
0.0,-251.0,20.0,15.0,36.0,26.0,0
-2.0,-252.0,28.0,14.0,40.0,26.0,0
-1.0,-252.0,26.0,13.0,40.0,24.0,0
-3.0,-251.0,29.0,12.0,38.0,25.0,0
-1.0,-250.0,27.0,8.0,36.0,23.0,0
-4.0,-249.0,27.0,5.0,35.0,24.0,0
0.0,-252.0,24.0,3.0,35.0,21.0,0
-1.0,-247.0,25.0,-1.0,37.0,21.0,0
-1.0,-252.0,27.0,-5.0,38.0,19.0,0
-2.0,-250.0,30.0,-10.0,43.0,18.0,0
-3.0,-250.0,23.0,-14.0,45.0,16.0,0
-5.0,-251.0,27.0,-18.0,47.0,17.0,0
-3.0,-251.0,25.0,-21.0,51.0,14.0,0
-3.0,-252.0,24.0,-25.0,55.0,14.0,0
-7.0,-248.0,28.0,-29.0,59.0,11.0,0
-6.0,-249.0,25.0,-34.0,61.0,11.0,0
-3.0,-253.0,24.0,-41.0,64.0,9.0,0
-4.0,-252.0,24.0,-44.0,66.0,8.0,0
-2.0,-251.0,25.0,-48.0,68.0,6.0,0
-5.0,-251.0,25.0,-51.0,72.0,7.0,0
-2.0,-254.0,26.0,-53.0,75.0,4.0,0
-4.0,-252.0,24.0,-56.0,78.0,3.0,0
-3.0,-253.0,21.0,-56.0,78.0,0.0,0
-3.0,-254.0,23.0,-55.0,79.0,0.0,0
-4.0,-254.0,22.0,-54.0,79.0,-2.0,0
-3.0,-256.0,22.0,-50.0,80.0,-2.0,0
-3.0,-254.0,18.0,-49.0,81.0,-2.0,0
-6.0,-254.0,22.0,-43.0,83.0,-1.0,0
-1.0,-255.0,22.0,-36.0,81.0,-2.0,0
-1.0,-255.0,18.0,-29.0,83.0,-2.0,0
0.0,-255.0,18.0,-23.0,83.0,-3.0,0
1.0,-254.0,14.0,-19.0,84.0,-3.0,0
-4.0,-251.0,21.0,-17.0,84.0,-5.0,0
0.0,-250.0,18.0,-15.0,83.0,-4.0,0
-4.0,-250.0,18.0,-14.0,84.0,-6.0,0
-2.0,-253.0,21.0,-14.0,84.0,-5.0,0
-2.0,-250.0,22.0,-17.0,83.0,-6.0,0
-1.0,-252.0,21.0,-18.0,85.0,-5.0,0
-3.0,-252.0,21.0,-20.0,85.0,-6.0,0
-2.0,-252.0,20.0,-22.0,86.0,-3.0,0
-3.0,-254.0,21.0,-20.0,87.0,-3.0,0
1.0,-249.0,20.0,-18.0,87.0,-1.0,0
-1.0,-254.0,17.0,-16.0,87.0,-2.0,0
0.0,-254.0,22.0,-14.0,87.0,-1.0,0
-2.0,-255.0,23.0,-11.0,85.0,0.0,0
-1.0,-252.0,24.0,-10.0,82.0,0.0,0
1.0,-255.0,25.0,-8.0,80.0,0.0,0
1.0,-255.0,24.0,-6.0,78.0,1.0,0
-1.0,-255.0,22.0,-5.0,76.0,2.0,0
0.0,-255.0,24.0,1.0,74.0,2.0,0
-2.0,-254.0,23.0,4.0,72.0,2.0,0
0.0,-253.0,22.0,6.0,70.0,3.0,0
-1.0,-251.0,23.0,6.0,67.0,4.0,0
0.0,-249.0,20.0,3.0,66.0,6.0,0
1.0,-246.0,21.0,-3.0,65.0,8.0,0
-1.0,-250.0,24.0,-9.0,64.0,8.0,0
-2.0,-249.0,23.0,-12.0,64.0,10.0,0
-1.0,-254.0,27.0,-13.0,65.0,10.0,0
-1.0,-253.0,26.0,-11.0,65.0,12.0,0
-2.0,-253.0,28.0,-10.0,67.0,14.0,0
-2.0,-256.0,25.0,-7.0,66.0,13.0,0
-4.0,-254.0,30.0,-2.0,66.0,14.0,0
-4.0,-257.0,25.0,2.0,65.0,14.0,0
-3.0,-252.0,27.0,4.0,64.0,14.0,0
-6.0,-250.0,28.0,6.0,63.0,13.0,0
-4.0,-254.0,23.0,5.0,62.0,12.0,0
-4.0,-254.0,27.0,4.0,62.0,10.0,0
-6.0,-252.0,26.0,3.0,60.0,10.0,0
-4.0,-252.0,25.0,1.0,57.0,8.0,0
-2.0,-251.0,24.0,-3.0,55.0,10.0,0
-1.0,-252.0,20.0,-6.0,52.0,7.0,0
-6.0,-251.0,28.0,-14.0,51.0,8.0,0
-3.0,-254.0,26.0,-17.0,50.0,6.0,0
-3.0,-253.0,27.0,-19.0,51.0,6.0,0
-7.0,-249.0,23.0,-23.0,51.0,8.0,0
-3.0,-251.0,25.0,-22.0,51.0,7.0,0
-3.0,-254.0,24.0,-24.0,52.0,7.0,0
-3.0,-255.0,27.0,-27.0,52.0,7.0,0
-4.0,-252.0,24.0,-31.0,53.0,6.0,0
-5.0,-250.0,23.0,-32.0,54.0,5.0,0
-3.0,-253.0,23.0,-34.0,57.0,4.0,0
-6.0,-252.0,24.0,-35.0,58.0,3.0,0
-5.0,-252.0,19.0,-34.0,59.0,2.0,0
-5.0,-254.0,21.0,-36.0,59.0,0.0,0
-5.0,-253.0,23.0,-36.0,61.0,1.0,0
-5.0,-251.0,21.0,-32.0,65.0,1.0,0
-3.0,-253.0,17.0,-30.0,67.0,0.0,0
-3.0,-251.0,22.0,-28.0,68.0,0.0,0
-2.0,-255.0,19.0,-28.0,69.0,0.0,0
-4.0,-253.0,21.0,-26.0,69.0,0.0,0
-5.0,-251.0,23.0,-26.0,68.0,1.0,0
-2.0,-252.0,18.0,-26.0,66.0,2.0,0
-1.0,-253.0,22.0,-23.0,65.0,2.0,0
-2.0,-254.0,21.0,-21.0,64.0,1.0,0
0.0,-252.0,22.0,-22.0,64.0,2.0,0
-2.0,-253.0,21.0,-24.0,64.0,2.0,0
-1.0,-257.0,26.0,-26.0,62.0,1.0,0
-3.0,-251.0,19.0,-27.0,62.0,0.0,0
-4.0,-252.0,27.0,-27.0,60.0,1.0,0
-3.0,-252.0,22.0,-30.0,59.0,-2.0,0
0.0,-255.0,23.0,-26.0,58.0,0.0,0
-2.0,-254.0,23.0,-25.0,59.0,-2.0,0
-3.0,-253.0,24.0,-21.0,58.0,-2.0,0
-1.0,-251.0,20.0,-18.0,58.0,-2.0,0
-4.0,-253.0,23.0,-15.0,57.0,-2.0,0
-2.0,-252.0,22.0,-13.0,56.0,-4.0,0
-2.0,-254.0,23.0,-13.0,55.0,-2.0,0
-5.0,-253.0,23.0,-14.0,56.0,-1.0,0
-3.0,-250.0,21.0,-14.0,56.0,-1.0,0
-4.0,-252.0,24.0,-16.0,56.0,-1.0,0
-3.0,-252.0,27.0,-17.0,56.0,0.0,0
-6.0,-250.0,23.0,-19.0,59.0,-1.0,0
-4.0,-254.0,24.0,-18.0,62.0,0.0,0
-3.0,-252.0,23.0,-20.0,64.0,0.0,0
-3.0,-253.0,22.0,-20.0,64.0,-1.0,0
-3.0,-254.0,26.0,-20.0,66.0,-3.0,0
-4.0,-251.0,22.0,-21.0,68.0,-2.0,0
-4.0,-253.0,21.0,-20.0,68.0,-1.0,0
-4.0,-254.0,23.0,-19.0,66.0,-2.0,0
-6.0,-251.0,21.0,-16.0,66.0,-3.0,0
0.0,-254.0,22.0,-15.0,65.0,-2.0,0
-1.0,-255.0,21.0,-13.0,64.0,-2.0,0
-4.0,-252.0,26.0,-11.0,63.0,-2.0,0
-5.0,-249.0,23.0,-10.0,63.0,-3.0,0
-1.0,-251.0,25.0,-10.0,63.0,-1.0,0
-2.0,-252.0,25.0,-10.0,61.0,-3.0,0
-1.0,-251.0,23.0,-11.0,59.0,-2.0,0
0.0,-252.0,23.0,-13.0,61.0,-3.0,0
-5.0,-249.0,20.0,-14.0,59.0,-2.0,0
-2.0,-252.0,25.0,-15.0,59.0,-3.0,0
-1.0,-254.0,23.0,-16.0,58.0,-2.0,0
-3.0,-252.0,18.0,-20.0,57.0,-2.0,0
-4.0,-252.0,24.0,-20.0,55.0,-1.0,0
-3.0,-253.0,24.0,-22.0,54.0,-2.0,0
-4.0,-254.0,21.0,-21.0,53.0,0.0,0
-3.0,-255.0,25.0,-21.0,54.0,-2.0,0
-2.0,-255.0,21.0,-16.0,56.0,-1.0,0
-1.0,-254.0,19.0,-14.0,58.0,-2.0,0
-2.0,-253.0,23.0,-10.0,60.0,-1.0,0
-1.0,-255.0,25.0,-9.0,64.0,-2.0,0
-2.0,-249.0,17.0,-7.0,63.0,1.0,0
-2.0,-251.0,18.0,-8.0,61.0,-3.0,0
-2.0,-249.0,21.0,-12.0,61.0,-1.0,0
-1.0,-252.0,21.0,-16.0,60.0,-1.0,0
-2.0,-251.0,23.0,-20.0,57.0,1.0,0
