ax,ay,az,gx,gy,gz,label
11.0,-254.0,39.0,9.0,65.0,-6.0,0
8.0,-250.0,36.0,10.0,64.0,-5.0,0
7.0,-247.0,37.0,10.0,63.0,-5.0,0
10.0,-248.0,38.0,8.0,59.0,-5.0,0
9.0,-251.0,33.0,4.0,57.0,-4.0,0
42.0,-230.0,45.0,-1.0,57.0,-5.0,0
10.0,-243.0,33.0,-5.0,56.0,-3.0,0
3.0,-246.0,40.0,-6.0,57.0,-5.0,0
8.0,-234.0,42.0,-7.0,57.0,-4.0,0
0.0,-252.0,43.0,-5.0,60.0,-3.0,0
4.0,-255.0,56.0,-3.0,64.0,-2.0,0
7.0,-249.0,36.0,0.0,65.0,-2.0,0
10.0,-243.0,39.0,1.0,67.0,-2.0,0
14.0,-237.0,39.0,1.0,69.0,-2.0,0
6.0,-253.0,33.0,0.0,68.0,-1.0,0
10.0,-253.0,31.0,-2.0,69.0,-4.0,0
11.0,-240.0,39.0,-3.0,71.0,-4.0,0
13.0,-240.0,35.0,-6.0,71.0,-5.0,0
13.0,-247.0,36.0,-8.0,69.0,-5.0,0
3.0,-248.0,45.0,-10.0,69.0,-8.0,0
13.0,-254.0,23.0,-14.0,66.0,-7.0,0
0.0,-256.0,35.0,-16.0,63.0,-8.0,0
14.0,-250.0,35.0,-17.0,62.0,-6.0,0
12.0,-251.0,40.0,-17.0,60.0,-7.0,0
10.0,-250.0,37.0,-17.0,59.0,-5.0,0
8.0,-251.0,37.0,-15.0,59.0,-6.0,0
9.0,-250.0,38.0,-13.0,59.0,-3.0,0
13.0,-252.0,40.0,-11.0,59.0,-4.0,0
9.0,-250.0,35.0,-9.0,58.0,-1.0,0
10.0,-248.0,39.0,-7.0,59.0,-1.0,0
8.0,-250.0,38.0,-5.0,59.0,1.0,0
10.0,-248.0,35.0,-5.0,59.0,-1.0,0
7.0,-249.0,36.0,-4.0,58.0,0.0,0
10.0,-248.0,35.0,-6.0,58.0,0.0,0
11.0,-248.0,38.0,-7.0,59.0,1.0,0
11.0,-249.0,35.0,-9.0,59.0,-2.0,0
9.0,-247.0,36.0,-13.0,58.0,0.0,0
12.0,-261.0,39.0,-16.0,59.0,-3.0,0
9.0,-249.0,34.0,-17.0,61.0,-1.0,0
8.0,-249.0,37.0,-19.0,63.0,-2.0,0
8.0,-249.0,37.0,-20.0,65.0,-3.0,0
8.0,-251.0,39.0,-22.0,65.0,-5.0,0
9.0,-251.0,36.0,-23.0,67.0,-4.0,0
7.0,-251.0,38.0,-21.0,65.0,-5.0,0
6.0,-249.0,40.0,-20.0,65.0,-4.0,0
9.0,-251.0,38.0,-18.0,64.0,-5.0,0
9.0,-252.0,36.0,-15.0,63.0,-4.0,0
8.0,-253.0,40.0,-12.0,61.0,-6.0,0
9.0,-252.0,35.0,-10.0,60.0,-3.0,0
10.0,-252.0,39.0,-7.0,60.0,-5.0,0
8.0,-250.0,39.0,-7.0,61.0,-2.0,0
9.0,-246.0,32.0,-8.0,62.0,-3.0,0
11.0,-250.0,39.0,-10.0,60.0,-2.0,0
9.0,-251.0,35.0,-11.0,59.0,-2.0,0
11.0,-250.0,37.0,-14.0,59.0,-2.0,0
7.0,-249.0,40.0,-16.0,60.0,-1.0,0
9.0,-251.0,38.0,-16.0,59.0,-1.0,0
9.0,-251.0,38.0,-15.0,60.0,-2.0,0
9.0,-250.0,39.0,-14.0,60.0,-2.0,0
10.0,-251.0,42.0,-13.0,61.0,-1.0,0
9.0,-248.0,41.0,-10.0,61.0,1.0,0
10.0,-249.0,39.0,-9.0,62.0,-1.0,0
10.0,-250.0,40.0,-7.0,62.0,-2.0,0
6.0,-249.0,36.0,-7.0,63.0,-3.0,0
6.0,-250.0,39.0,-8.0,63.0,-3.0,0
10.0,-250.0,38.0,-8.0,66.0,-2.0,0
7.0,-249.0,36.0,-10.0,66.0,-4.0,0
7.0,-249.0,37.0,-8.0,66.0,-7.0,0
7.0,-248.0,36.0,-12.0,66.0,-7.0,0
9.0,-249.0,40.0,-13.0,65.0,-8.0,0
10.0,-248.0,42.0,-14.0,66.0,-6.0,0
9.0,-250.0,33.0,-15.0,65.0,-8.0,0
9.0,-250.0,38.0,-15.0,65.0,-7.0,0
7.0,-250.0,38.0,-15.0,63.0,-7.0,0
9.0,-248.0,39.0,-13.0,62.0,-5.0,0
8.0,-253.0,34.0,-11.0,62.0,-5.0,0
9.0,-250.0,37.0,-13.0,63.0,-3.0,0
6.0,-248.0,33.0,-12.0,62.0,-3.0,0
6.0,-249.0,37.0,-14.0,60.0,-2.0,0
7.0,-251.0,40.0,-14.0,61.0,-3.0,0
10.0,-250.0,33.0,-15.0,60.0,-2.0,0
11.0,-248.0,35.0,-14.0,61.0,-4.0,0
8.0,-251.0,39.0,-13.0,60.0,-3.0,0
8.0,-250.0,41.0,-12.0,60.0,-4.0,0
11.0,-250.0,39.0,-12.0,60.0,-4.0,0
10.0,-249.0,38.0,-10.0,61.0,-5.0,0
9.0,-250.0,38.0,-11.0,61.0,-5.0,0
9.0,-246.0,37.0,-11.0,61.0,-6.0,0
9.0,-250.0,39.0,-13.0,62.0,-6.0,0
10.0,-248.0,39.0,-16.0,62.0,-7.0,0
7.0,-249.0,38.0,-19.0,61.0,-5.0,0
8.0,-248.0,37.0,-20.0,63.0,-6.0,0
7.0,-248.0,39.0,-21.0,62.0,-4.0,0
9.0,-250.0,39.0,-24.0,63.0,-5.0,0
7.0,-250.0,34.0,-23.0,62.0,-4.0,0
8.0,-249.0,34.0,-23.0,61.0,-5.0,0
8.0,-252.0,39.0,-20.0,63.0,-3.0,0
5.0,-248.0,38.0,-20.0,62.0,-3.0,0
9.0,-248.0,36.0,-17.0,62.0,-3.0,0
10.0,-251.0,40.0,-18.0,63.0,-3.0,0
11.0,-249.0,41.0,-17.0,61.0,-2.0,0
10.0,-251.0,37.0,-15.0,61.0,-3.0,0
7.0,-249.0,38.0,-15.0,63.0,-3.0,0
4.0,-249.0,40.0,-13.0,61.0,-4.0,0
9.0,-251.0,40.0,-13.0,62.0,-4.0,0
11.0,-249.0,37.0,-13.0,62.0,-4.0,0
8.0,-247.0,38.0,-16.0,62.0,-5.0,0
11.0,-252.0,36.0,-16.0,62.0,-4.0,0
9.0,-250.0,37.0,-18.0,63.0,-5.0,0
11.0,-248.0,38.0,-19.0,63.0,-6.0,0
10.0,-249.0,37.0,-20.0,63.0,-6.0,0
9.0,-248.0,34.0,-22.0,64.0,-7.0,0
10.0,-249.0,38.0,-21.0,62.0,-7.0,0
9.0,-251.0,38.0,-20.0,64.0,-6.0,0
6.0,-249.0,41.0,-22.0,62.0,-7.0,0
6.0,-252.0,37.0,-20.0,62.0,-6.0,0
10.0,-250.0,41.0,-18.0,63.0,-6.0,0
8.0,-249.0,35.0,-18.0,61.0,-6.0,0
9.0,-253.0,39.0,-15.0,62.0,-6.0,0
8.0,-249.0,40.0,-12.0,62.0,-6.0,0
9.0,-251.0,38.0,-11.0,61.0,-5.0,0
7.0,-249.0,38.0,-11.0,62.0,-5.0,0
8.0,-248.0,37.0,-11.0,61.0,-4.0,0
7.0,-247.0,33.0,-11.0,61.0,-5.0,0
8.0,-248.0,38.0,-12.0,61.0,-3.0,0
10.0,-248.0,38.0,-15.0,62.0,-3.0,0
10.0,-249.0,37.0,-17.0,62.0,-2.0,0
8.0,-248.0,33.0,-18.0,63.0,-2.0,0
8.0,-250.0,39.0,-20.0,63.0,-3.0,0
9.0,-250.0,39.0,-22.0,63.0,-3.0,0
11.0,-249.0,40.0,-22.0,62.0,-3.0,0
11.0,-251.0,37.0,-24.0,61.0,-3.0,0
8.0,-249.0,37.0,-23.0,62.0,-3.0,0
9.0,-254.0,36.0,-23.0,60.0,-4.0,0
9.0,-249.0,38.0,-20.0,59.0,-4.0,0
6.0,-251.0,38.0,-21.0,60.0,-4.0,0
8.0,-251.0,39.0,-19.0,60.0,-5.0,0
8.0,-251.0,38.0,-18.0,61.0,-6.0,0
11.0,-251.0,37.0,-17.0,61.0,-4.0,0
8.0,-251.0,39.0,-15.0,62.0,-3.0,0
8.0,-251.0,39.0,-10.0,63.0,-5.0,0
7.0,-250.0,38.0,-9.0,61.0,-5.0,0
6.0,-250.0,34.0,-7.0,61.0,-7.0,0
7.0,-250.0,36.0,-6.0,63.0,-6.0,0
6.0,-249.0,40.0,-5.0,63.0,-6.0,0
7.0,-250.0,35.0,-6.0,63.0,-5.0,0
7.0,-246.0,38.0,-7.0,63.0,-5.0,0
8.0,-249.0,39.0,-11.0,62.0,-5.0,0
10.0,-250.0,35.0,-15.0,62.0,-3.0,0
8.0,-252.0,40.0,-16.0,62.0,-3.0,0
8.0,-250.0,39.0,-16.0,62.0,-4.0,0
8.0,-253.0,39.0,-13.0,61.0,-2.0,0
9.0,-250.0,39.0,-10.0,61.0,-5.0,0
9.0,-251.0,37.0,-5.0,59.0,-6.0,0
11.0,-250.0,40.0,2.0,60.0,-6.0,0
12.0,-251.0,40.0,4.0,62.0,-8.0,0
11.0,-250.0,36.0,6.0,64.0,-8.0,0
9.0,-249.0,38.0,7.0,65.0,-9.0,0
7.0,-249.0,37.0,6.0,66.0,-9.0,0
9.0,-247.0,38.0,3.0,65.0,-9.0,0
9.0,-252.0,41.0,-1.0,64.0,-7.0,0
9.0,-250.0,42.0,-4.0,64.0,-6.0,0
10.0,-251.0,36.0,-6.0,63.0,-4.0,0
9.0,-249.0,38.0,-4.0,63.0,-5.0,0
7.0,-247.0,33.0,-3.0,60.0,-4.0,0
7.0,-251.0,35.0,0.0,59.0,-5.0,0
9.0,-248.0,35.0,-1.0,55.0,-6.0,0
10.0,-250.0,33.0,-2.0,52.0,-5.0,0
7.0,-249.0,36.0,-4.0,52.0,-4.0,0
8.0,-249.0,43.0,-7.0,53.0,-3.0,0
6.0,-248.0,39.0,-9.0,55.0,-3.0,0
8.0,-248.0,41.0,-9.0,55.0,-3.0,0
8.0,-248.0,41.0,-8.0,58.0,-3.0,0
7.0,-243.0,42.0,-8.0,60.0,-3.0,0
5.0,-248.0,38.0,-7.0,61.0,-2.0,0
7.0,-248.0,43.0,-9.0,64.0,-3.0,0
9.0,-249.0,39.0,-9.0,67.0,-4.0,0
10.0,-249.0,39.0,-7.0,66.0,-6.0,0
9.0,-246.0,37.0,-9.0,67.0,-5.0,0
12.0,-252.0,35.0,-11.0,68.0,-7.0,0
8.0,-249.0,34.0,-14.0,67.0,-7.0,0
9.0,-250.0,39.0,-17.0,65.0,-7.0,0
8.0,-251.0,40.0,-20.0,63.0,-8.0,0
8.0,-249.0,38.0,-22.0,62.0,-7.0,0
10.0,-250.0,37.0,-21.0,59.0,-5.0,0
6.0,-249.0,33.0,-20.0,60.0,-3.0,0
11.0,-253.0,40.0,-17.0,58.0,-4.0,0
9.0,-251.0,38.0,-15.0,58.0,-3.0,0
7.0,-249.0,37.0,-12.0,57.0,-4.0,0
10.0,-251.0,37.0,-8.0,59.0,-2.0,0
9.0,-249.0,37.0,-5.0,59.0,-3.0,0
10.0,-249.0,37.0,-4.0,60.0,-2.0,0
13.0,-249.0,36.0,-3.0,60.0,-3.0,0
9.0,-250.0,38.0,-4.0,60.0,-3.0,0
10.0,-247.0,37.0,-5.0,60.0,-4.0,0
11.0,-250.0,37.0,-5.0,59.0,-3.0,0
11.0,-249.0,39.0,-9.0,60.0,-2.0,0
7.0,-247.0,34.0,-10.0,62.0,-2.0,0
11.0,-249.0,37.0,-13.0,62.0,-3.0,0
7.0,-248.0,38.0,-13.0,60.0,-3.0,0
8.0,-252.0,38.0,-14.0,61.0,-4.0,0
8.0,-249.0,36.0,-16.0,61.0,-3.0,0
8.0,-249.0,35.0,-14.0,63.0,-5.0,0
6.0,-250.0,37.0,-13.0,63.0,-4.0,0
10.0,-252.0,37.0,-13.0,62.0,-6.0,0
10.0,-250.0,41.0,-15.0,61.0,-8.0,0
6.0,-249.0,43.0,-14.0,60.0,-7.0,0
8.0,-251.0,35.0,-16.0,60.0,-6.0,0
11.0,-251.0,41.0,-16.0,61.0,-7.0,0
9.0,-250.0,38.0,-14.0,61.0,-5.0,0
7.0,-250.0,39.0,-10.0,60.0,-6.0,0
8.0,-250.0,37.0,-8.0,60.0,-5.0,0
8.0,-252.0,42.0,-4.0,59.0,-4.0,0
11.0,-251.0,35.0,-3.0,60.0,-4.0,0
8.0,-251.0,36.0,-4.0,61.0,-3.0,0
7.0,-248.0,38.0,-6.0,60.0,-4.0,0
9.0,-247.0,41.0,-8.0,61.0,-3.0,0
9.0,-250.0,36.0,-8.0,61.0,-3.0,0
10.0,-249.0,39.0,-10.0,61.0,-4.0,0
9.0,-251.0,40.0,-8.0,61.0,-3.0,0
7.0,-248.0,37.0,-7.0,60.0,-3.0,0
8.0,-248.0,40.0,-7.0,60.0,-3.0,0
11.0,-251.0,37.0,-7.0,61.0,-3.0,0
8.0,-245.0,41.0,-7.0,61.0,-3.0,0
8.0,-247.0,37.0,-9.0,61.0,-3.0,0
8.0,-251.0,40.0,-9.0,63.0,-2.0,0
8.0,-247.0,38.0,-12.0,64.0,-4.0,0
10.0,-247.0,41.0,-16.0,65.0,-4.0,0
9.0,-249.0,38.0,-17.0,66.0,-5.0,0
10.0,-249.0,41.0,-16.0,66.0,-6.0,0
10.0,-248.0,40.0,-16.0,66.0,-6.0,0
10.0,-249.0,40.0,-15.0,65.0,-5.0,0
10.0,-249.0,38.0,-16.0,64.0,-7.0,0
9.0,-249.0,40.0,-13.0,66.0,-6.0,0
8.0,-252.0,38.0,-14.0,63.0,-6.0,0
11.0,-250.0,39.0,-13.0,63.0,-6.0,0
8.0,-249.0,40.0,-12.0,64.0,-6.0,0
8.0,-247.0,37.0,-11.0,63.0,-4.0,0
9.0,-249.0,37.0,-12.0,61.0,-4.0,0
8.0,-250.0,37.0,-11.0,60.0,-4.0,0
10.0,-248.0,41.0,-11.0,59.0,-4.0,0
7.0,-249.0,41.0,-10.0,61.0,-3.0,0
6.0,-248.0,39.0,-10.0,59.0,-4.0,0
6.0,-248.0,38.0,-10.0,59.0,-2.0,0
9.0,-246.0,32.0,-11.0,59.0,-4.0,0
8.0,-246.0,39.0,-12.0,58.0,-4.0,0
10.0,-250.0,39.0,-13.0,58.0,-4.0,0
9.0,-250.0,39.0,-14.0,61.0,-4.0,0
11.0,-250.0,40.0,-14.0,61.0,-4.0,0
9.0,-250.0,35.0,-14.0,62.0,-5.0,0
8.0,-250.0,36.0,-14.0,62.0,-5.0,0
8.0,-248.0,38.0,-14.0,61.0,-6.0,0
10.0,-248.0,40.0,-15.0,63.0,-6.0,0
10.0,-249.0,41.0,-17.0,63.0,-5.0,0
11.0,-249.0,39.0,-18.0,64.0,-5.0,0
10.0,-249.0,42.0,-18.0,64.0,-6.0,0
8.0,-248.0,38.0,-18.0,62.0,-4.0,0
9.0,-249.0,37.0,-18.0,61.0,-4.0,0
8.0,-249.0,41.0,-18.0,62.0,-4.0,0
11.0,-249.0,39.0,-17.0,62.0,-4.0,0
10.0,-251.0,41.0,-18.0,63.0,-4.0,0
9.0,-249.0,38.0,-17.0,64.0,-3.0,0
7.0,-250.0,38.0,-17.0,62.0,-3.0,0
10.0,-247.0,35.0,-16.0,61.0,-2.0,0
11.0,-251.0,39.0,-16.0,62.0,-3.0,0
11.0,-250.0,41.0,-15.0,62.0,-2.0,0
10.0,-250.0,44.0,-18.0,62.0,-3.0,0
10.0,-251.0,41.0,-20.0,61.0,-4.0,0
8.0,-249.0,36.0,-20.0,61.0,-4.0,0
8.0,-249.0,38.0,-21.0,61.0,-6.0,0
11.0,-247.0,42.0,-21.0,60.0,-5.0,0
10.0,-250.0,37.0,-23.0,62.0,-5.0,0
8.0,-251.0,39.0,-23.0,62.0,-5.0,0
8.0,-251.0,40.0,-24.0,62.0,-4.0,0
9.0,-251.0,41.0,-22.0,62.0,-4.0,0
8.0,-249.0,39.0,-23.0,63.0,-2.0,0
12.0,-252.0,40.0,-23.0,61.0,-4.0,0
10.0,-250.0,40.0,-23.0,60.0,-4.0,0
10.0,-248.0,39.0,-23.0,63.0,-3.0,0
8.0,-247.0,40.0,-21.0,63.0,-3.0,0
8.0,-249.0,37.0,-20.0,61.0,-4.0,0
9.0,-250.0,40.0,-20.0,61.0,-3.0,0
10.0,-249.0,40.0,-19.0,61.0,-5.0,0
9.0,-248.0,36.0,-20.0,60.0,-5.0,0
10.0,-248.0,36.0,-21.0,60.0,-6.0,0
8.0,-248.0,39.0,-22.0,60.0,-4.0,0
9.0,-249.0,37.0,-22.0,59.0,-4.0,0
11.0,-250.0,39.0,-22.0,60.0,-4.0,0
9.0,-250.0,38.0,-23.0,62.0,-2.0,0
9.0,-249.0,40.0,-23.0,62.0,-2.0,0
8.0,-250.0,40.0,-23.0,63.0,-2.0,0
9.0,-251.0,37.0,-21.0,62.0,-4.0,0
11.0,-247.0,40.0,-23.0,63.0,-4.0,0
11.0,-248.0,39.0,-23.0,61.0,-3.0,0
10.0,-249.0,36.0,-22.0,62.0,-5.0,0
8.0,-247.0,37.0,-21.0,61.0,-5.0,0
8.0,-247.0,34.0,-22.0,62.0,-6.0,0
10.0,-251.0,39.0,-22.0,62.0,-4.0,0
9.0,-249.0,39.0,-23.0,63.0,-3.0,0
7.0,-248.0,41.0,-23.0,63.0,-2.0,0
8.0,-248.0,38.0,-24.0,61.0,-1.0,0
8.0,-251.0,40.0,-25.0,61.0,-1.0,0
11.0,-252.0,39.0,-25.0,61.0,-2.0,0
9.0,-251.0,40.0,-24.0,62.0,-1.0,0
10.0,-249.0,36.0,-24.0,62.0,-3.0,0
10.0,-253.0,36.0,-24.0,60.0,-2.0,0
11.0,-248.0,37.0,-21.0,61.0,-2.0,0
10.0,-251.0,39.0,-21.0,60.0,0.0,0
8.0,-252.0,37.0,-20.0,60.0,-2.0,0
13.0,-250.0,34.0,-21.0,61.0,-3.0,0
9.0,-252.0,37.0,-20.0,63.0,-2.0,0
12.0,-250.0,40.0,-22.0,64.0,-2.0,0
11.0,-250.0,38.0,-24.0,64.0,-3.0,0
10.0,-251.0,37.0,-28.0,64.0,-2.0,0
9.0,-250.0,43.0,-28.0,64.0,-2.0,0
6.0,-249.0,37.0,-28.0,64.0,-3.0,0
12.0,-252.0,39.0,-28.0,65.0,-4.0,0
9.0,-250.0,36.0,-28.0,66.0,-4.0,0
10.0,-253.0,40.0,-26.0,66.0,-6.0,0
9.0,-248.0,34.0,-21.0,66.0,-4.0,0
10.0,-250.0,40.0,-18.0,66.0,-4.0,0
7.0,-248.0,35.0,-18.0,66.0,-4.0,0
8.0,-250.0,41.0,-16.0,67.0,-4.0,0
8.0,-251.0,40.0,-18.0,66.0,-4.0,0
10.0,-248.0,38.0,-21.0,67.0,-3.0,0
10.0,-249.0,38.0,-24.0,67.0,-3.0,0
8.0,-249.0,38.0,-26.0,64.0,-3.0,0
10.0,-248.0,37.0,-24.0,64.0,-3.0,0
12.0,-252.0,41.0,-22.0,64.0,-5.0,0
12.0,-249.0,35.0,-19.0,63.0,-5.0,0
8.0,-250.0,39.0,-16.0,63.0,-7.0,0
9.0,-251.0,34.0,-13.0,63.0,-8.0,0
8.0,-252.0,33.0,-10.0,64.0,-8.0,0
10.0,-255.0,37.0,-7.0,65.0,-9.0,0
7.0,-250.0,37.0,-9.0,66.0,-9.0,0
5.0,-250.0,38.0,-9.0,68.0,-7.0,0
4.0,-251.0,39.0,-11.0,67.0,-7.0,0
8.0,-250.0,39.0,-13.0,67.0,-3.0,0
8.0,-251.0,39.0,-16.0,64.0,-3.0,0
8.0,-251.0,42.0,-15.0,62.0,-2.0,0
9.0,-250.0,37.0,-15.0,60.0,-2.0,0
7.0,-247.0,36.0,-12.0,60.0,-1.0,0
12.0,-252.0,35.0,-12.0,59.0,-2.0,0
6.0,-247.0,32.0,-16.0,59.0,-2.0,0
9.0,-247.0,32.0,-20.0,57.0,-2.0,0
9.0,-248.0,35.0,-24.0,56.0,0.0,0
7.0,-249.0,37.0,-28.0,57.0,0.0,0
9.0,-250.0,37.0,-29.0,60.0,1.0,0
8.0,-249.0,40.0,-25.0,61.0,-2.0,0
6.0,-249.0,40.0,-20.0,63.0,-1.0,0
9.0,-248.0,42.0,-16.0,65.0,-1.0,0
10.0,-247.0,37.0,-12.0,66.0,-2.0,0
9.0,-246.0,43.0,-12.0,66.0,-3.0,0
6.0,-250.0,40.0,-11.0,67.0,-3.0,0
9.0,-249.0,42.0,-13.0,68.0,-5.0,0
8.0,-252.0,36.0,-16.0,67.0,-4.0,0
11.0,-250.0,37.0,-18.0,67.0,-6.0,0
8.0,-251.0,37.0,-22.0,67.0,-5.0,0
7.0,-248.0,36.0,-26.0,65.0,-5.0,0
8.0,-249.0,33.0,-27.0,65.0,-4.0,0
8.0,-249.0,37.0,-29.0,64.0,-5.0,0
10.0,-251.0,35.0,-27.0,63.0,-4.0,0
8.0,-253.0,36.0,-26.0,61.0,-4.0,0
13.0,-253.0,37.0,-21.0,62.0,-2.0,0
9.0,-253.0,38.0,-18.0,61.0,-1.0,0
11.0,-250.0,38.0,-16.0,62.0,-1.0,0
11.0,-252.0,37.0,-15.0,61.0,0.0,0
10.0,-253.0,36.0,-13.0,61.0,0.0,0
12.0,-250.0,40.0,-13.0,60.0,-1.0,0
10.0,-252.0,41.0,-13.0,59.0,1.0,0
10.0,-248.0,35.0,-15.0,59.0,0.0,0
20.0,-257.0,45.0,-14.0,60.0,0.0,0
10.0,-250.0,37.0,-16.0,60.0,-1.0,0
9.0,-246.0,37.0,-19.0,60.0,-1.0,0
8.0,-246.0,37.0,-22.0,61.0,-3.0,0
7.0,-248.0,35.0,-25.0,61.0,-1.0,0
9.0,-247.0,36.0,-26.0,62.0,-3.0,0
6.0,-250.0,36.0,-26.0,63.0,-1.0,0
8.0,-250.0,37.0,-28.0,63.0,-2.0,0
9.0,-249.0,36.0,-28.0,64.0,-2.0,0
9.0,-253.0,35.0,-29.0,65.0,-3.0,0
10.0,-254.0,40.0,-26.0,64.0,-5.0,0
9.0,-250.0,36.0,-25.0,64.0,-5.0,0
10.0,-251.0,38.0,-22.0,64.0,-4.0,0
8.0,-252.0,39.0,-20.0,64.0,-5.0,0
8.0,-249.0,36.0,-18.0,65.0,-4.0,0
11.0,-251.0,39.0,-18.0,64.0,-5.0,0
7.0,-252.0,38.0,-15.0,62.0,-5.0,0
8.0,-252.0,37.0,-13.0,62.0,-6.0,0
9.0,-249.0,38.0,-11.0,61.0,-4.0,0
7.0,-248.0,41.0,-10.0,60.0,-4.0,0
10.0,-248.0,34.0,-9.0,61.0,-3.0,0
9.0,-251.0,36.0,-11.0,60.0,-2.0,0
8.0,-251.0,37.0,-12.0,59.0,-3.0,0
9.0,-251.0,40.0,-12.0,60.0,-3.0,0
6.0,-249.0,37.0,-14.0,60.0,-2.0,0
7.0,-252.0,37.0,-14.0,61.0,-3.0,0
6.0,-250.0,40.0,-14.0,61.0,-2.0,0
9.0,-251.0,40.0,-14.0,63.0,-3.0,0
10.0,-249.0,41.0,-14.0,64.0,-2.0,0
10.0,-252.0,40.0,-15.0,64.0,-3.0,0
9.0,-251.0,38.0,-14.0,65.0,-1.0,0
9.0,-247.0,39.0,-14.0,67.0,-3.0,0
10.0,-253.0,36.0,-13.0,68.0,-3.0,0
7.0,-247.0,41.0,-15.0,69.0,-5.0,0
6.0,-249.0,44.0,-15.0,70.0,-4.0,0
11.0,-249.0,37.0,-15.0,67.0,-7.0,0
8.0,-246.0,41.0,-15.0,68.0,-5.0,0
9.0,-249.0,39.0,-16.0,68.0,-7.0,0
10.0,-250.0,37.0,-17.0,67.0,-6.0,0
7.0,-248.0,37.0,-20.0,67.0,-8.0,0
11.0,-248.0,40.0,-22.0,66.0,-6.0,0
11.0,-251.0,35.0,-24.0,65.0,-6.0,0
10.0,-252.0,36.0,-23.0,64.0,-6.0,0
7.0,-251.0,36.0,-23.0,62.0,-5.0,0
7.0,-247.0,38.0,-22.0,61.0,-5.0,0
8.0,-251.0,36.0,-19.0,61.0,-6.0,0
10.0,-250.0,40.0,-19.0,59.0,-3.0,0
7.0,-249.0,34.0,-18.0,61.0,-4.0,0
11.0,-251.0,36.0,-17.0,61.0,-2.0,0
7.0,-253.0,35.0,-14.0,61.0,-3.0,0
5.0,-250.0,35.0,-13.0,62.0,-3.0,0
9.0,-251.0,34.0,-13.0,61.0,-3.0,0
6.0,-251.0,39.0,-11.0,62.0,-1.0,0
8.0,-251.0,38.0,-9.0,63.0,-3.0,0
10.0,-252.0,37.0,-11.0,61.0,-2.0,0
6.0,-249.0,37.0,-13.0,62.0,-5.0,0
9.0,-250.0,38.0,-16.0,63.0,-4.0,0
9.0,-251.0,38.0,-17.0,64.0,-6.0,0
8.0,-250.0,35.0,-18.0,63.0,-4.0,0
7.0,-248.0,37.0,-20.0,63.0,-4.0,0
10.0,-248.0,38.0,-20.0,62.0,-4.0,0
9.0,-251.0,38.0,-22.0,63.0,-5.0,0
8.0,-249.0,34.0,-21.0,64.0,-4.0,0
8.0,-251.0,36.0,-20.0,64.0,-4.0,0
8.0,-251.0,34.0,-19.0,63.0,-4.0,0
10.0,-251.0,36.0,-19.0,64.0,-5.0,0
8.0,-248.0,37.0,-18.0,62.0,-4.0,0
9.0,-250.0,34.0,-19.0,62.0,-4.0,0
8.0,-250.0,39.0,-19.0,62.0,-3.0,0
7.0,-249.0,33.0,-18.0,61.0,-4.0,0
9.0,-252.0,39.0,-19.0,62.0,-2.0,0
8.0,-249.0,40.0,-17.0,61.0,-4.0,0
7.0,-249.0,37.0,-19.0,60.0,-1.0,0
11.0,-253.0,32.0,-18.0,60.0,-3.0,0
9.0,-249.0,38.0,-18.0,62.0,-3.0,0
9.0,-247.0,38.0,-19.0,60.0,-2.0,0
7.0,-249.0,36.0,-19.0,60.0,-3.0,0
8.0,-249.0,36.0,-19.0,60.0,-4.0,0
8.0,-250.0,39.0,-18.0,60.0,-3.0,0
8.0,-249.0,36.0,-18.0,62.0,-3.0,0
8.0,-250.0,39.0,-16.0,60.0,-2.0,0
8.0,-251.0,38.0,-16.0,61.0,-4.0,0
11.0,-249.0,36.0,-17.0,60.0,-2.0,0
11.0,-250.0,39.0,-16.0,60.0,-3.0,0
6.0,-247.0,35.0,-16.0,62.0,-3.0,0
7.0,-249.0,37.0,-15.0,62.0,-4.0,0
6.0,-250.0,38.0,-14.0,63.0,-2.0,0
7.0,-248.0,32.0,-15.0,62.0,-3.0,0
7.0,-249.0,43.0,-17.0,59.0,-1.0,0
10.0,-250.0,36.0,-18.0,59.0,-3.0,0
8.0,-252.0,36.0,-16.0,60.0,-1.0,0
12.0,-251.0,42.0,-18.0,60.0,-3.0,0
10.0,-251.0,39.0,-20.0,58.0,-1.0,0
12.0,-248.0,36.0,-19.0,59.0,-3.0,0
12.0,-251.0,35.0,-21.0,60.0,-1.0,0
7.0,-249.0,39.0,-20.0,59.0,-3.0,0
9.0,-250.0,37.0,-19.0,59.0,-4.0,0
8.0,-248.0,37.0,-20.0,60.0,-3.0,0
11.0,-250.0,38.0,-20.0,60.0,-4.0,0
9.0,-251.0,38.0,-21.0,59.0,-4.0,0
8.0,-253.0,37.0,-20.0,59.0,-3.0,0
10.0,-253.0,37.0,-18.0,59.0,-4.0,0
9.0,-252.0,35.0,-17.0,59.0,-2.0,0
9.0,-251.0,39.0,-16.0,58.0,-4.0,0
8.0,-250.0,37.0,-14.0,60.0,-3.0,0
8.0,-251.0,37.0,-12.0,60.0,-3.0,0
8.0,-249.0,38.0,-11.0,60.0,-2.0,0
10.0,-252.0,37.0,-8.0,61.0,-2.0,0
8.0,-250.0,38.0,-7.0,59.0,-3.0,0
8.0,-250.0,40.0,-7.0,60.0,-4.0,0
7.0,-248.0,36.0,-8.0,58.0,-3.0,0
11.0,-249.0,34.0,-9.0,58.0,-4.0,0
12.0,-251.0,33.0,-12.0,59.0,-2.0,0
10.0,-249.0,36.0,-14.0,60.0,-4.0,0
10.0,-249.0,38.0,-13.0,60.0,-3.0,0
10.0,-250.0,36.0,-15.0,60.0,-3.0,0
10.0,-250.0,39.0,-16.0,60.0,-2.0,0
9.0,-250.0,38.0,-17.0,60.0,-4.0,0
11.0,-248.0,39.0,-18.0,58.0,-3.0,0
8.0,-249.0,34.0,-19.0,60.0,-3.0,0
9.0,-250.0,41.0,-19.0,60.0,-2.0,0
9.0,-253.0,38.0,-19.0,60.0,-3.0,0
9.0,-249.0,36.0,-19.0,61.0,-2.0,0
8.0,-251.0,39.0,-18.0,62.0,-4.0,0
6.0,-250.0,38.0,-19.0,63.0,-3.0,0
8.0,-254.0,37.0,-17.0,63.0,-5.0,0
7.0,-249.0,36.0,-15.0,65.0,-4.0,0
7.0,-250.0,37.0,-13.0,64.0,-5.0,0
5.0,-251.0,35.0,-11.0,65.0,-3.0,0
9.0,-250.0,40.0,-12.0,66.0,-4.0,0
6.0,-249.0,39.0,-9.0,66.0,-3.0,0
8.0,-252.0,34.0,-7.0,67.0,-5.0,0
9.0,-249.0,36.0,-4.0,66.0,-3.0,0
7.0,-250.0,36.0,-4.0,65.0,-5.0,0
9.0,-252.0,36.0,-6.0,65.0,-4.0,0
9.0,-248.0,39.0,-8.0,63.0,-5.0,0
11.0,-250.0,35.0,-9.0,61.0,-6.0,0
11.0,-252.0,40.0,-9.0,60.0,-5.0,0
8.0,-249.0,35.0,-8.0,58.0,-6.0,0
10.0,-249.0,34.0,-6.0,58.0,-7.0,0
10.0,-250.0,38.0,-4.0,60.0,-6.0,0
6.0,-250.0,38.0,-1.0,61.0,-6.0,0
6.0,-251.0,37.0,2.0,61.0,-5.0,0
11.0,-251.0,40.0,2.0,61.0,-5.0,0
8.0,-248.0,37.0,1.0,64.0,-3.0,0
7.0,-248.0,40.0,1.0,64.0,-6.0,0
9.0,-249.0,37.0,-2.0,66.0,-5.0,0
10.0,-249.0,37.0,-3.0,67.0,-5.0,0
6.0,-247.0,37.0,-6.0,65.0,-4.0,0
9.0,-246.0,37.0,-8.0,66.0,-5.0,0
10.0,-251.0,36.0,-9.0,63.0,-5.0,0
12.0,-252.0,36.0,-10.0,60.0,-6.0,0
10.0,-247.0,36.0,-8.0,58.0,-5.0,0
8.0,-253.0,37.0,-7.0,58.0,-7.0,0
11.0,-250.0,37.0,-4.0,58.0,-6.0,0
7.0,-249.0,37.0,-6.0,56.0,-6.0,0
9.0,-249.0,34.0,-10.0,56.0,-4.0,0
5.0,-248.0,37.0,-13.0,56.0,-3.0,0
6.0,-248.0,39.0,-13.0,58.0,-2.0,0
8.0,-250.0,38.0,-11.0,59.0,-1.0,0
10.0,-248.0,37.0,-9.0,61.0,-1.0,0
10.0,-251.0,36.0,-7.0,61.0,-2.0,0
10.0,-248.0,40.0,-6.0,64.0,-2.0,0
12.0,-249.0,40.0,-4.0,64.0,-3.0,0
11.0,-247.0,39.0,-4.0,64.0,-3.0,0
8.0,-247.0,44.0,-6.0,63.0,-5.0,0
10.0,-249.0,35.0,-6.0,62.0,-5.0,0
8.0,-251.0,37.0,-10.0,61.0,-7.0,0
7.0,-250.0,35.0,-14.0,61.0,-7.0,0
10.0,-250.0,37.0,-18.0,61.0,-7.0,0
10.0,-249.0,40.0,-21.0,60.0,-6.0,0
7.0,-250.0,35.0,-23.0,60.0,-6.0,0
11.0,-252.0,37.0,-23.0,59.0,-5.0,0
9.0,-248.0,35.0,-22.0,59.0,-4.0,0
8.0,-248.0,37.0,-21.0,58.0,-2.0,0
7.0,-249.0,38.0,-19.0,59.0,-2.0,0
11.0,-251.0,33.0,-18.0,59.0,0.0,0
12.0,-253.0,37.0,-13.0,60.0,-1.0,0
8.0,-249.0,35.0,-11.0,59.0,-2.0,0
12.0,-250.0,37.0,-9.0,57.0,-3.0,0
10.0,-250.0,36.0,-7.0,58.0,-1.0,0
9.0,-251.0,35.0,-6.0,57.0,-2.0,0
7.0,-250.0,35.0,-5.0,58.0,-2.0,0
9.0,-248.0,37.0,-6.0,57.0,-2.0,0
8.0,-249.0,37.0,-8.0,58.0,-1.0,0
11.0,-248.0,35.0,-10.0,59.0,-2.0,0
7.0,-248.0,40.0,-14.0,58.0,0.0,0
10.0,-248.0,36.0,-16.0,59.0,-2.0,0
8.0,-250.0,37.0,-16.0,59.0,-3.0,0
11.0,-249.0,37.0,-16.0,61.0,-4.0,0
8.0,-248.0,36.0,-18.0,61.0,-3.0,0
8.0,-249.0,38.0,-18.0,61.0,-4.0,0
7.0,-251.0,37.0,-18.0,60.0,-4.0,0
8.0,-249.0,38.0,-18.0,61.0,-4.0,0
6.0,-248.0,36.0,-18.0,61.0,-4.0,0
8.0,-250.0,39.0,-17.0,61.0,-6.0,0
9.0,-250.0,40.0,-15.0,60.0,-4.0,0
7.0,-249.0,35.0,-13.0,62.0,-3.0,0
7.0,-252.0,43.0,-13.0,61.0,-3.0,0
11.0,-252.0,37.0,-11.0,60.0,-3.0,0
7.0,-250.0,40.0,-12.0,59.0,-2.0,0
8.0,-248.0,37.0,-12.0,58.0,-4.0,0
8.0,-250.0,36.0,-11.0,58.0,-3.0,0
10.0,-249.0,41.0,-13.0,57.0,-5.0,0
8.0,-249.0,38.0,-14.0,56.0,-5.0,0
8.0,-248.0,37.0,-13.0,56.0,-4.0,0
8.0,-251.0,39.0,-13.0,57.0,-1.0,0
9.0,-251.0,35.0,-12.0,59.0,-3.0,0
9.0,-250.0,39.0,-11.0,60.0,-1.0,0
10.0,-249.0,35.0,-9.0,62.0,-2.0,0
7.0,-247.0,41.0,-7.0,63.0,-1.0,0
8.0,-248.0,37.0,-7.0,64.0,-3.0,0
9.0,-248.0,41.0,-8.0,64.0,-2.0,0
11.0,-249.0,37.0,-11.0,64.0,-4.0,0
11.0,-248.0,38.0,-10.0,65.0,-3.0,0
8.0,-250.0,39.0,-11.0,66.0,-5.0,0
10.0,-250.0,36.0,-9.0,64.0,-4.0,0
9.0,-250.0,34.0,-11.0,64.0,-5.0,0
8.0,-249.0,39.0,-11.0,64.0,-4.0,0
8.0,-248.0,38.0,-13.0,63.0,-6.0,0
11.0,-249.0,39.0,-13.0,64.0,-6.0,0
10.0,-251.0,40.0,-14.0,65.0,-7.0,0
7.0,-247.0,39.0,-11.0,63.0,-7.0,0
10.0,-253.0,42.0,-12.0,62.0,-7.0,0
13.0,-251.0,39.0,-11.0,60.0,-5.0,0
8.0,-249.0,36.0,-13.0,60.0,-6.0,0
8.0,-252.0,41.0,-13.0,59.0,-3.0,0
10.0,-252.0,40.0,-12.0,59.0,-5.0,0
5.0,-250.0,37.0,-12.0,59.0,-4.0,0
6.0,-250.0,42.0,-12.0,62.0,-3.0,0
10.0,-248.0,39.0,-9.0,62.0,-2.0,0
12.0,-252.0,40.0,-8.0,61.0,-3.0,0
11.0,-251.0,36.0,-9.0,61.0,-2.0,0
9.0,-250.0,33.0,-9.0,61.0,-3.0,0
9.0,-250.0,35.0,-8.0,61.0,-4.0,0
10.0,-248.0,38.0,-9.0,62.0,-4.0,0
10.0,-250.0,36.0,-11.0,62.0,-4.0,0
6.0,-249.0,38.0,-14.0,61.0,-5.0,0
9.0,-251.0,37.0,-13.0,62.0,-5.0,0
11.0,-249.0,39.0,-14.0,62.0,-5.0,0
10.0,-249.0,39.0,-14.0,62.0,-4.0,0
10.0,-251.0,36.0,-16.0,62.0,-4.0,0
10.0,-250.0,39.0,-16.0,63.0,-4.0,0
9.0,-250.0,36.0,-16.0,63.0,-4.0,0
9.0,-249.0,38.0,-16.0,63.0,-4.0,0
8.0,-253.0,35.0,-17.0,63.0,-6.0,0
10.0,-252.0,38.0,-15.0,63.0,-5.0,0
12.0,-249.0,36.0,-14.0,63.0,-5.0,0
7.0,-249.0,38.0,-12.0,64.0,-2.0,0
9.0,-248.0,35.0,-12.0,63.0,-4.0,0
12.0,-252.0,38.0,-13.0,63.0,-3.0,0
9.0,-251.0,38.0,-12.0,63.0,-3.0,0
8.0,-248.0,38.0,-12.0,62.0,-3.0,0
9.0,-249.0,37.0,-11.0,63.0,-3.0,0
10.0,-250.0,38.0,-13.0,63.0,-2.0,0
6.0,-249.0,38.0,-13.0,62.0,-4.0,0
7.0,-249.0,39.0,-13.0,60.0,-2.0,0
7.0,-248.0,37.0,-14.0,62.0,-6.0,0
7.0,-250.0,38.0,-15.0,61.0,-4.0,0
10.0,-250.0,39.0,-16.0,61.0,-4.0,0
10.0,-250.0,37.0,-14.0,60.0,-4.0,0
10.0,-248.0,39.0,-15.0,60.0,-4.0,0
11.0,-248.0,40.0,-15.0,60.0,-4.0,0
12.0,-247.0,33.0,-16.0,60.0,-5.0,0
9.0,-251.0,35.0,-15.0,59.0,-3.0,0
7.0,-250.0,38.0,-11.0,59.0,-5.0,0
7.0,-249.0,35.0,-10.0,59.0,-3.0,0
8.0,-249.0,40.0,-10.0,59.0,-4.0,0
8.0,-249.0,37.0,-8.0,59.0,-2.0,0
11.0,-249.0,37.0,-8.0,59.0,-2.0,0
6.0,-250.0,40.0,-10.0,59.0,-3.0,0
11.0,-250.0,38.0,-12.0,60.0,-3.0,0
9.0,-249.0,39.0,-13.0,60.0,-3.0,0
9.0,-249.0,41.0,-15.0,59.0,-4.0,0
7.0,-249.0,37.0,-16.0,59.0,-3.0,0
10.0,-251.0,37.0,-15.0,59.0,-3.0,0
9.0,-250.0,39.0,-17.0,59.0,-2.0,0
8.0,-248.0,39.0,-17.0,60.0,-3.0,0
10.0,-249.0,38.0,-17.0,60.0,-3.0,0
11.0,-249.0,37.0,-18.0,61.0,-5.0,0
9.0,-253.0,40.0,-18.0,60.0,-5.0,0
7.0,-248.0,40.0,-18.0,60.0,-4.0,0
8.0,-250.0,38.0,-16.0,60.0,-2.0,0
9.0,-248.0,39.0,-15.0,61.0,-3.0,0
9.0,-251.0,43.0,-15.0,61.0,-3.0,0
7.0,-249.0,41.0,-13.0,60.0,-4.0,0
10.0,-255.0,40.0,-10.0,59.0,-4.0,0
7.0,-252.0,39.0,-11.0,60.0,-5.0,0
8.0,-248.0,35.0,-11.0,62.0,-2.0,0
8.0,-251.0,31.0,-11.0,62.0,-4.0,0
11.0,-251.0,36.0,-11.0,61.0,-4.0,0
10.0,-251.0,38.0,-11.0,63.0,-3.0,0
9.0,-247.0,41.0,-12.0,61.0,-3.0,0
8.0,-250.0,34.0,-14.0,61.0,-3.0,0
9.0,-250.0,36.0,-13.0,60.0,-2.0,0
6.0,-250.0,39.0,-15.0,60.0,-3.0,0
9.0,-247.0,38.0,-15.0,61.0,-2.0,0
10.0,-248.0,36.0,-14.0,59.0,-4.0,0
10.0,-251.0,41.0,-14.0,58.0,-1.0,0
6.0,-247.0,37.0,-14.0,57.0,-1.0,0
11.0,-250.0,38.0,-15.0,58.0,1.0,0
7.0,-249.0,39.0,-16.0,57.0,-1.0,0
10.0,-248.0,37.0,-16.0,59.0,0.0,0
9.0,-250.0,38.0,-16.0,60.0,0.0,0
10.0,-251.0,40.0,-16.0,60.0,0.0,0
10.0,-252.0,38.0,-15.0,60.0,0.0,0
10.0,-249.0,36.0,-15.0,62.0,-1.0,0
8.0,-251.0,37.0,-13.0,62.0,-5.0,0
7.0,-246.0,42.0,-12.0,63.0,-4.0,0
10.0,-252.0,36.0,-10.0,63.0,-7.0,0
9.0,-251.0,40.0,-8.0,64.0,-5.0,0
11.0,-249.0,38.0,-6.0,62.0,-7.0,0
10.0,-251.0,37.0,-5.0,64.0,-5.0,0
10.0,-254.0,39.0,-6.0,65.0,-4.0,0
11.0,-248.0,38.0,-8.0,66.0,-3.0,0
11.0,-249.0,40.0,-11.0,65.0,-3.0,0
10.0,-249.0,36.0,-12.0,65.0,-3.0,0
9.0,-251.0,41.0,-14.0,63.0,-5.0,0
9.0,-249.0,39.0,-13.0,63.0,-4.0,0
11.0,-250.0,36.0,-13.0,63.0,-6.0,0
7.0,-247.0,40.0,-9.0,66.0,-4.0,0
8.0,-250.0,38.0,-6.0,63.0,-5.0,0
6.0,-250.0,35.0,-4.0,63.0,-6.0,0
10.0,-250.0,41.0,-1.0,64.0,-6.0,0
8.0,-250.0,33.0,0.0,64.0,-6.0,0
8.0,-251.0,36.0,0.0,65.0,-7.0,0
7.0,-248.0,37.0,-1.0,65.0,-5.0,0
8.0,-251.0,38.0,-2.0,65.0,-5.0,0
9.0,-248.0,35.0,-5.0,66.0,-4.0,0
9.0,-250.0,38.0,-6.0,66.0,-4.0,0
10.0,-248.0,44.0,-9.0,63.0,-2.0,0
10.0,-253.0,44.0,-9.0,63.0,-4.0,0
9.0,-254.0,38.0,-6.0,60.0,-3.0,0
13.0,-251.0,37.0,-3.0,57.0,-4.0,0
10.0,-248.0,35.0,0.0,56.0,-4.0,0
7.0,-246.0,36.0,-1.0,55.0,-5.0,0
8.0,-249.0,31.0,-5.0,52.0,-3.0,0
9.0,-250.0,34.0,-8.0,53.0,-5.0,0
6.0,-250.0,40.0,-15.0,54.0,-3.0,0
8.0,-251.0,37.0,-17.0,55.0,-3.0,0
9.0,-248.0,39.0,-17.0,56.0,-1.0,0
9.0,-249.0,41.0,-16.0,60.0,-2.0,0
9.0,-245.0,41.0,-15.0,62.0,-1.0,0
8.0,-247.0,40.0,-12.0,64.0,-2.0,0
11.0,-248.0,41.0,-12.0,67.0,-2.0,0
8.0,-249.0,40.0,-12.0,67.0,-3.0,0
8.0,-250.0,37.0,-14.0,67.0,-4.0,0
11.0,-250.0,37.0,-16.0,66.0,-6.0,0
8.0,-248.0,39.0,-18.0,64.0,-5.0,0
10.0,-247.0,36.0,-21.0,62.0,-5.0,0
10.0,-253.0,38.0,-21.0,61.0,-5.0,0
9.0,-248.0,39.0,-25.0,61.0,-6.0,0
10.0,-250.0,38.0,-26.0,60.0,-5.0,0
11.0,-250.0,40.0,-25.0,58.0,-4.0,0
11.0,-250.0,37.0,-23.0,58.0,-4.0,0
10.0,-251.0,35.0,-20.0,59.0,-4.0,0
8.0,-249.0,34.0,-17.0,59.0,-3.0,0
9.0,-250.0,35.0,-14.0,59.0,-3.0,0
9.0,-249.0,38.0,-11.0,58.0,-1.0,0
6.0,-255.0,33.0,-10.0,59.0,-2.0,0
8.0,-249.0,42.0,-12.0,57.0,0.0,0
9.0,-250.0,36.0,-14.0,58.0,-1.0,0
9.0,-249.0,39.0,-16.0,59.0,0.0,0
9.0,-248.0,33.0,-17.0,59.0,0.0,0
9.0,-248.0,37.0,-18.0,58.0,1.0,0
10.0,-247.0,34.0,-20.0,59.0,0.0,0
8.0,-249.0,36.0,-22.0,60.0,-2.0,0
8.0,-250.0,34.0,-24.0,61.0,-2.0,0
8.0,-247.0,36.0,-26.0,61.0,-1.0,0
7.0,-247.0,37.0,-27.0,62.0,-2.0,0
9.0,-250.0,35.0,-28.0,61.0,-1.0,0
9.0,-252.0,38.0,-28.0,61.0,-1.0,0
11.0,-252.0,34.0,-27.0,61.0,-2.0,0
9.0,-251.0,40.0,-26.0,60.0,-3.0,0
10.0,-251.0,36.0,-25.0,61.0,-3.0,0
9.0,-250.0,42.0,-24.0,63.0,-3.0,0
11.0,-251.0,37.0,-23.0,62.0,-4.0,0
8.0,-250.0,39.0,-22.0,63.0,-4.0,0
9.0,-250.0,39.0,-22.0,61.0,-4.0,0
9.0,-250.0,35.0,-19.0,59.0,-5.0,0
7.0,-252.0,42.0,-15.0,60.0,-3.0,0
7.0,-251.0,38.0,-15.0,60.0,-4.0,0
9.0,-250.0,41.0,-13.0,60.0,-2.0,0
8.0,-250.0,39.0,-12.0,59.0,-4.0,0
10.0,-247.0,36.0,-13.0,55.0,-2.0,0
7.0,-251.0,36.0,-14.0,57.0,-3.0,0
9.0,-251.0,36.0,-15.0,57.0,-3.0,0
8.0,-250.0,39.0,-16.0,58.0,-3.0,0
7.0,-251.0,38.0,-17.0,59.0,-2.0,0
8.0,-250.0,37.0,-18.0,60.0,-2.0,0
8.0,-248.0,41.0,-19.0,61.0,-1.0,0
9.0,-248.0,39.0,-20.0,61.0,-2.0,0
6.0,-250.0,38.0,-20.0,63.0,0.0,0
11.0,-253.0,35.0,-21.0,65.0,-1.0,0
9.0,-252.0,36.0,-18.0,66.0,-1.0,0
8.0,-251.0,38.0,-17.0,66.0,-2.0,0
9.0,-252.0,41.0,-16.0,66.0,-2.0,0
8.0,-249.0,40.0,-17.0,66.0,-5.0,0
7.0,-248.0,36.0,-16.0,67.0,-4.0,0
13.0,-250.0,38.0,-15.0,67.0,-6.0,0
10.0,-249.0,40.0,-16.0,67.0,-5.0,0
10.0,-249.0,37.0,-17.0,66.0,-8.0,0
8.0,-248.0,38.0,-17.0,64.0,-5.0,0
10.0,-250.0,38.0,-18.0,62.0,-5.0,0
9.0,-250.0,37.0,-19.0,62.0,-7.0,0
10.0,-252.0,40.0,-19.0,61.0,-6.0,0
9.0,-249.0,39.0,-19.0,59.0,-5.0,0
7.0,-252.0,41.0,-18.0,60.0,-5.0,0
9.0,-247.0,34.0,-17.0,62.0,-4.0,0
8.0,-251.0,37.0,-17.0,61.0,-4.0,0
8.0,-250.0,40.0,-18.0,60.0,-3.0,0
6.0,-251.0,42.0,-18.0,61.0,-3.0,0
8.0,-250.0,41.0,-18.0,60.0,-3.0,0
7.0,-248.0,39.0,-18.0,61.0,-5.0,0
7.0,-252.0,38.0,-16.0,61.0,-4.0,0
11.0,-247.0,36.0,-15.0,61.0,-4.0,0
8.0,-252.0,39.0,-15.0,62.0,-5.0,0
7.0,-248.0,39.0,-15.0,63.0,-5.0,0
10.0,-252.0,35.0,-16.0,64.0,-5.0,0
7.0,-249.0,38.0,-17.0,64.0,-5.0,0
11.0,-247.0,34.0,-19.0,64.0,-5.0,0
7.0,-248.0,39.0,-19.0,64.0,-5.0,0
6.0,-249.0,37.0,-20.0,65.0,-4.0,0
6.0,-249.0,35.0,-21.0,66.0,-5.0,0
11.0,-249.0,34.0,-22.0,65.0,-4.0,0
8.0,-250.0,40.0,-22.0,64.0,-3.0,0
9.0,-252.0,38.0,-23.0,64.0,-5.0,0
9.0,-250.0,35.0,-23.0,64.0,-4.0,0
9.0,-251.0,41.0,-23.0,64.0,-3.0,0
8.0,-248.0,36.0,-21.0,62.0,-4.0,0
11.0,-250.0,36.0,-19.0,62.0,-4.0,0
10.0,-250.0,35.0,-19.0,62.0,-6.0,0
10.0,-247.0,40.0,-19.0,60.0,-3.0,0
7.0,-249.0,41.0,-17.0,60.0,-4.0,0
9.0,-252.0,34.0,-16.0,60.0,-5.0,0
10.0,-253.0,38.0,-15.0,62.0,-4.0,0
8.0,-249.0,39.0,-16.0,62.0,-5.0,0
9.0,-248.0,36.0,-16.0,63.0,-3.0,0
7.0,-247.0,40.0,-16.0,62.0,-5.0,0
8.0,-249.0,37.0,-17.0,63.0,-3.0,0
11.0,-248.0,38.0,-18.0,62.0,-3.0,0
9.0,-248.0,38.0,-18.0,63.0,-3.0,0
8.0,-249.0,38.0,-18.0,63.0,-3.0,0
8.0,-250.0,35.0,-18.0,63.0,-4.0,0
12.0,-249.0,38.0,-16.0,62.0,-3.0,0
10.0,-250.0,39.0,-16.0,62.0,-4.0,0
8.0,-248.0,39.0,-17.0,64.0,-4.0,0
8.0,-248.0,34.0,-18.0,64.0,-4.0,0
10.0,-253.0,38.0,-18.0,63.0,-3.0,0
10.0,-251.0,37.0,-19.0,62.0,-3.0,0
7.0,-246.0,40.0,-20.0,59.0,-4.0,0
8.0,-248.0,36.0,-21.0,60.0,-3.0,0
11.0,-250.0,36.0,-21.0,60.0,-3.0,0
10.0,-248.0,34.0,-20.0,61.0,-3.0,0
7.0,-252.0,36.0,-18.0,60.0,-3.0,0
8.0,-251.0,36.0,-17.0,62.0,-2.0,0
8.0,-250.0,35.0,-16.0,63.0,-4.0,0
9.0,-251.0,38.0,-16.0,62.0,-4.0,0
10.0,-248.0,35.0,-17.0,62.0,-2.0,0
7.0,-250.0,36.0,-17.0,62.0,-3.0,0
8.0,-248.0,36.0,-17.0,62.0,-3.0,0
12.0,-251.0,42.0,-17.0,63.0,-2.0,0
9.0,-249.0,37.0,-16.0,63.0,-2.0,0
9.0,-252.0,37.0,-14.0,64.0,-3.0,0
9.0,-250.0,37.0,-14.0,64.0,-2.0,0
9.0,-247.0,37.0,-14.0,62.0,-2.0,0
7.0,-249.0,40.0,-14.0,61.0,-2.0,0
8.0,-251.0,36.0,-13.0,62.0,-1.0,0
7.0,-251.0,40.0,-12.0,62.0,0.0,0
7.0,-251.0,38.0,-8.0,62.0,0.0,0
10.0,-251.0,35.0,-8.0,60.0,-2.0,0
8.0,-251.0,39.0,-6.0,62.0,-2.0,0
9.0,-250.0,38.0,-6.0,64.0,-2.0,0
8.0,-249.0,38.0,-6.0,63.0,-3.0,0
11.0,-248.0,42.0,-6.0,65.0,-3.0,0
9.0,-250.0,34.0,-6.0,64.0,-2.0,0
10.0,-249.0,37.0,-10.0,63.0,-3.0,0
9.0,-251.0,38.0,-13.0,63.0,-3.0,0
11.0,-252.0,37.0,-14.0,63.0,-3.0,0
9.0,-249.0,40.0,-13.0,63.0,-3.0,0
10.0,-250.0,35.0,-15.0,61.0,-4.0,0
6.0,-247.0,40.0,-16.0,60.0,-4.0,0
9.0,-251.0,34.0,-16.0,60.0,-2.0,0
7.0,-252.0,37.0,-15.0,60.0,-2.0,0
9.0,-251.0,35.0,-15.0,60.0,-2.0,0
5.0,-248.0,40.0,-13.0,61.0,-3.0,0
9.0,-248.0,36.0,-13.0,62.0,-2.0,0
7.0,-249.0,40.0,-11.0,63.0,-2.0,0
6.0,-250.0,36.0,-10.0,63.0,-1.0,0
10.0,-249.0,38.0,-9.0,64.0,-2.0,0
8.0,-250.0,37.0,-8.0,65.0,-2.0,0
12.0,-250.0,35.0,-6.0,65.0,-2.0,0
7.0,-249.0,37.0,-5.0,65.0,-4.0,0
9.0,-248.0,35.0,-6.0,67.0,-4.0,0
10.0,-251.0,35.0,-7.0,67.0,-2.0,0
8.0,-248.0,40.0,-9.0,67.0,-3.0,0
9.0,-248.0,37.0,-12.0,67.0,-4.0,0
6.0,-249.0,36.0,-13.0,67.0,-4.0,0
9.0,-248.0,40.0,-11.0,67.0,-5.0,0
9.0,-251.0,39.0,-11.0,67.0,-6.0,0
10.0,-250.0,39.0,-9.0,66.0,-7.0,0
7.0,-249.0,36.0,-7.0,66.0,-8.0,0
9.0,-249.0,37.0,-5.0,66.0,-8.0,0
10.0,-251.0,37.0,-4.0,66.0,-10.0,0
10.0,-249.0,40.0,-2.0,67.0,-9.0,0
8.0,-250.0,40.0,-1.0,70.0,-9.0,0
8.0,-251.0,37.0,-1.0,70.0,-7.0,0
6.0,-245.0,40.0,-1.0,70.0,-7.0,0
10.0,-250.0,37.0,-4.0,71.0,-6.0,0
10.0,-249.0,41.0,-6.0,70.0,-4.0,0
10.0,-248.0,37.0,-7.0,69.0,-4.0,0
9.0,-248.0,35.0,-9.0,70.0,-3.0,0
9.0,-251.0,38.0,-10.0,68.0,-2.0,0
11.0,-251.0,38.0,-9.0,65.0,-3.0,0
11.0,-251.0,37.0,-8.0,62.0,-4.0,0
10.0,-249.0,37.0,-7.0,61.0,-5.0,0
8.0,-247.0,35.0,-8.0,59.0,-5.0,0
12.0,-247.0,34.0,-10.0,58.0,-4.0,0
6.0,-250.0,33.0,-14.0,56.0,-5.0,0
10.0,-248.0,37.0,-16.0,57.0,-3.0,0
8.0,-248.0,39.0,-19.0,57.0,-3.0,0
9.0,-251.0,39.0,-19.0,60.0,-2.0,0
9.0,-248.0,38.0,-19.0,62.0,-1.0,0
5.0,-247.0,39.0,-17.0,64.0,-2.0,0
9.0,-249.0,40.0,-14.0,65.0,-1.0,0
11.0,-250.0,43.0,-12.0,66.0,-1.0,0
7.0,-246.0,40.0,-11.0,68.0,-2.0,0
7.0,-250.0,43.0,-11.0,67.0,-3.0,0
8.0,-251.0,42.0,-10.0,68.0,-4.0,0
8.0,-248.0,36.0,-12.0,65.0,-5.0,0
8.0,-250.0,35.0,-13.0,66.0,-6.0,0
8.0,-251.0,39.0,-15.0,65.0,-6.0,0
7.0,-250.0,38.0,-16.0,65.0,-7.0,0
10.0,-249.0,36.0,-16.0,64.0,-5.0,0
8.0,-247.0,36.0,-16.0,63.0,-6.0,0
10.0,-248.0,36.0,-17.0,60.0,-4.0,0
10.0,-249.0,38.0,-16.0,60.0,-4.0,0
10.0,-248.0,35.0,-16.0,59.0,-4.0,0
10.0,-250.0,36.0,-16.0,58.0,-3.0,0
8.0,-251.0,35.0,-14.0,57.0,-1.0,0
9.0,-251.0,37.0,-14.0,58.0,0.0,0
11.0,-252.0,36.0,-11.0,57.0,-1.0,0
9.0,-249.0,38.0,-10.0,57.0,-1.0,0
7.0,-250.0,36.0,-10.0,57.0,0.0,0
8.0,-251.0,37.0,-10.0,56.0,0.0,0
8.0,-248.0,32.0,-10.0,57.0,0.0,0
8.0,-249.0,37.0,-12.0,56.0,0.0,0
11.0,-248.0,36.0,-16.0,57.0,-1.0,0
8.0,-247.0,39.0,-20.0,57.0,-2.0,0
9.0,-248.0,39.0,-22.0,58.0,0.0,0
9.0,-250.0,36.0,-24.0,60.0,0.0,0
10.0,-247.0,36.0,-24.0,59.0,-1.0,0
9.0,-250.0,35.0,-25.0,60.0,-2.0,0
7.0,-249.0,38.0,-27.0,59.0,-2.0,0
9.0,-250.0,39.0,-27.0,59.0,-4.0,0
9.0,-249.0,37.0,-26.0,60.0,-4.0,0
9.0,-249.0,40.0,-26.0,60.0,-4.0,0
10.0,-253.0,41.0,-25.0,59.0,-3.0,0
10.0,-251.0,40.0,-24.0,59.0,-3.0,0
9.0,-251.0,39.0,-21.0,59.0,-3.0,0
11.0,-254.0,38.0,-19.0,59.0,-3.0,0
8.0,-250.0,39.0,-16.0,59.0,-1.0,0
6.0,-249.0,39.0,-14.0,58.0,-3.0,0
9.0,-252.0,34.0,-13.0,59.0,-2.0,0
11.0,-249.0,34.0,-13.0,59.0,-2.0,0
7.0,-248.0,35.0,-13.0,58.0,-2.0,0
12.0,-250.0,37.0,-15.0,58.0,-3.0,0
10.0,-252.0,38.0,-15.0,57.0,-2.0,0
9.0,-247.0,38.0,-16.0,57.0,-2.0,0
6.0,-249.0,38.0,-15.0,58.0,-1.0,0
8.0,-249.0,36.0,-17.0,58.0,-1.0,0
10.0,-251.0,39.0,-18.0,59.0,0.0,0
9.0,-250.0,38.0,-18.0,61.0,-1.0,0
6.0,-249.0,40.0,-17.0,62.0,0.0,0
12.0,-253.0,40.0,-16.0,65.0,-1.0,0
10.0,-248.0,40.0,-12.0,65.0,-1.0,0
8.0,-248.0,39.0,-13.0,66.0,-2.0,0
8.0,-250.0,40.0,-12.0,66.0,-2.0,0
6.0,-246.0,41.0,-11.0,65.0,-4.0,0
10.0,-247.0,36.0,-13.0,65.0,-3.0,0
6.0,-252.0,39.0,-13.0,64.0,-4.0,0
6.0,-248.0,41.0,-14.0,63.0,-3.0,0
9.0,-249.0,38.0,-17.0,61.0,-5.0,0
7.0,-247.0,35.0,-17.0,59.0,-4.0,0
9.0,-249.0,41.0,-17.0,59.0,-4.0,0
9.0,-250.0,34.0,-17.0,59.0,-3.0,0
7.0,-251.0,38.0,-16.0,58.0,-3.0,0
7.0,-247.0,39.0,-16.0,60.0,-2.0,0
7.0,-249.0,36.0,-16.0,58.0,-1.0,0
11.0,-249.0,40.0,-15.0,58.0,-1.0,0
7.0,-250.0,34.0,-15.0,58.0,-1.0,0
8.0,-250.0,36.0,-14.0,58.0,-2.0,0
8.0,-249.0,36.0,-16.0,59.0,-1.0,0
9.0,-249.0,39.0,-15.0,59.0,-2.0,0
8.0,-248.0,38.0,-16.0,61.0,-2.0,0
8.0,-249.0,39.0,-18.0,61.0,-1.0,0
9.0,-249.0,38.0,-19.0,60.0,-1.0,0
8.0,-248.0,38.0,-19.0,61.0,-1.0,0
9.0,-248.0,35.0,-19.0,62.0,-2.0,0
7.0,-249.0,35.0,-20.0,62.0,-2.0,0
7.0,-253.0,38.0,-20.0,62.0,-3.0,0
9.0,-249.0,35.0,-21.0,61.0,-3.0,0
11.0,-249.0,36.0,-21.0,61.0,-5.0,0
12.0,-253.0,35.0,-21.0,62.0,-2.0,0
10.0,-248.0,41.0,-21.0,62.0,-6.0,0
6.0,-248.0,36.0,-21.0,63.0,-5.0,0
9.0,-248.0,41.0,-20.0,62.0,-5.0,0
8.0,-251.0,38.0,-19.0,62.0,-6.0,0
9.0,-253.0,35.0,-19.0,60.0,-5.0,0
7.0,-248.0,36.0,-19.0,61.0,-2.0,0
6.0,-252.0,37.0,-17.0,61.0,-5.0,0
8.0,-251.0,37.0,-17.0,59.0,-2.0,0
8.0,-251.0,39.0,-15.0,59.0,-3.0,0
8.0,-251.0,36.0,-16.0,58.0,-3.0,0
7.0,-252.0,37.0,-17.0,57.0,-3.0,0
7.0,-246.0,37.0,-18.0,57.0,-3.0,0
8.0,-246.0,37.0,-18.0,58.0,-3.0,0
11.0,-251.0,35.0,-18.0,57.0,-2.0,0
6.0,-249.0,35.0,-20.0,58.0,-3.0,0
7.0,-248.0,38.0,-19.0,59.0,-1.0,0
10.0,-249.0,39.0,-21.0,59.0,-3.0,0
11.0,-251.0,36.0,-22.0,60.0,-2.0,0
8.0,-250.0,35.0,-24.0,60.0,-3.0,0
10.0,-250.0,37.0,-24.0,60.0,-2.0,0
8.0,-248.0,39.0,-24.0,59.0,-3.0,0
9.0,-250.0,38.0,-23.0,60.0,-3.0,0
8.0,-249.0,41.0,-25.0,60.0,-2.0,0
7.0,-248.0,38.0,-27.0,61.0,-2.0,0
8.0,-249.0,37.0,-30.0,61.0,-1.0,0
8.0,-249.0,38.0,-32.0,60.0,1.0,0
6.0,-250.0,37.0,-34.0,59.0,-1.0,0
7.0,-249.0,35.0,-36.0,59.0,0.0,0
7.0,-250.0,36.0,-35.0,58.0,-1.0,0
9.0,-251.0,37.0,-36.0,58.0,0.0,0
7.0,-250.0,40.0,-37.0,57.0,-2.0,0
5.0,-250.0,39.0,-37.0,57.0,-1.0,0
11.0,-252.0,41.0,-37.0,57.0,-1.0,0
6.0,-250.0,38.0,-37.0,57.0,0.0,0
9.0,-251.0,37.0,-35.0,59.0,0.0,0
8.0,-253.0,39.0,-34.0,58.0,1.0,0
10.0,-249.0,36.0,-35.0,58.0,-1.0,0
10.0,-249.0,36.0,-33.0,58.0,0.0,0
10.0,-252.0,36.0,-34.0,58.0,-1.0,0
9.0,-252.0,39.0,-36.0,59.0,-1.0,0
7.0,-248.0,39.0,-34.0,60.0,-2.0,0
8.0,-253.0,34.0,-34.0,60.0,-2.0,0
7.0,-251.0,36.0,-33.0,59.0,-2.0,0
8.0,-249.0,36.0,-32.0,58.0,-1.0,0
10.0,-249.0,37.0,-31.0,61.0,-1.0,0
9.0,-249.0,42.0,-31.0,60.0,-2.0,0
7.0,-250.0,40.0,-29.0,60.0,-4.0,0
6.0,-248.0,35.0,-27.0,61.0,-3.0,0
8.0,-251.0,32.0,-27.0,60.0,-3.0,0
8.0,-251.0,35.0,-26.0,59.0,-3.0,0
11.0,-253.0,34.0,-23.0,58.0,-4.0,0
9.0,-251.0,35.0,-24.0,59.0,-3.0,0
7.0,-252.0,33.0,-21.0,60.0,-5.0,0
9.0,-254.0,35.0,-18.0,60.0,-4.0,0
8.0,-252.0,33.0,-15.0,59.0,-4.0,0
10.0,-253.0,37.0,-12.0,59.0,-3.0,0
6.0,-253.0,37.0,-8.0,60.0,-5.0,0
8.0,-253.0,33.0,-3.0,60.0,-5.0,0
5.0,-254.0,39.0,1.0,61.0,-6.0,0
6.0,-251.0,39.0,7.0,62.0,-6.0,0
9.0,-254.0,36.0,10.0,62.0,-6.0,0
7.0,-253.0,34.0,15.0,61.0,-5.0,0
7.0,-253.0,32.0,18.0,61.0,-6.0,0
8.0,-250.0,32.0,22.0,63.0,-6.0,0
9.0,-252.0,37.0,23.0,62.0,-8.0,0
8.0,-248.0,32.0,24.0,64.0,-8.0,0
10.0,-249.0,33.0,21.0,64.0,-8.0,0
8.0,-249.0,32.0,20.0,65.0,-8.0,0
9.0,-249.0,34.0,18.0,65.0,-9.0,0
10.0,-253.0,36.0,19.0,64.0,-8.0,0
8.0,-251.0,37.0,20.0,63.0,-9.0,0
8.0,-251.0,37.0,22.0,63.0,-8.0,0
5.0,-249.0,38.0,24.0,63.0,-11.0,0
7.0,-251.0,37.0,28.0,62.0,-12.0,0
7.0,-251.0,37.0,31.0,65.0,-12.0,0
9.0,-250.0,37.0,34.0,67.0,-11.0,0
8.0,-252.0,43.0,34.0,67.0,-13.0,0
7.0,-244.0,38.0,31.0,66.0,-12.0,0
7.0,-248.0,36.0,29.0,67.0,-13.0,0
10.0,-248.0,38.0,22.0,65.0,-12.0,0
10.0,-249.0,42.0,16.0,65.0,-11.0,0
9.0,-250.0,43.0,12.0,64.0,-8.0,0
5.0,-250.0,43.0,10.0,64.0,-9.0,0
10.0,-250.0,40.0,9.0,61.0,-6.0,0
10.0,-249.0,39.0,13.0,58.0,-5.0,0
11.0,-255.0,37.0,16.0,56.0,-5.0,0
11.0,-250.0,40.0,21.0,54.0,-3.0,0
10.0,-251.0,40.0,22.0,54.0,-3.0,0
9.0,-248.0,35.0,21.0,53.0,-4.0,0
8.0,-247.0,38.0,17.0,51.0,-3.0,0
11.0,-249.0,37.0,13.0,51.0,-6.0,0
9.0,-248.0,34.0,13.0,52.0,-2.0,0
11.0,-250.0,42.0,15.0,54.0,-4.0,0
7.0,-250.0,41.0,19.0,56.0,-4.0,0
9.0,-247.0,42.0,23.0,57.0,-5.0,0
8.0,-247.0,44.0,25.0,58.0,-6.0,0
12.0,-251.0,42.0,27.0,59.0,-6.0,0
7.0,-247.0,42.0,27.0,62.0,-7.0,0
10.0,-248.0,42.0,24.0,63.0,-10.0,0
9.0,-249.0,39.0,20.0,63.0,-9.0,0
9.0,-248.0,39.0,17.0,62.0,-10.0,0
11.0,-250.0,42.0,13.0,63.0,-9.0,0
11.0,-250.0,40.0,8.0,64.0,-11.0,0
11.0,-250.0,36.0,7.0,63.0,-9.0,0
8.0,-250.0,39.0,6.0,62.0,-11.0,0
6.0,-249.0,37.0,6.0,60.0,-9.0,0
8.0,-249.0,38.0,7.0,59.0,-9.0,0
7.0,-253.0,36.0,10.0,58.0,-7.0,0
11.0,-253.0,37.0,16.0,59.0,-8.0,0
9.0,-250.0,39.0,20.0,59.0,-5.0,0
10.0,-252.0,39.0,24.0,59.0,-7.0,0
7.0,-252.0,39.0,26.0,59.0,-4.0,0
9.0,-251.0,39.0,30.0,60.0,-5.0,0
7.0,-249.0,40.0,31.0,60.0,-4.0,0
9.0,-249.0,36.0,32.0,62.0,-5.0,0
15.0,-250.0,47.0,30.0,62.0,-4.0,0
7.0,-247.0,37.0,30.0,61.0,-6.0,0
9.0,-248.0,36.0,25.0,62.0,-5.0,0
7.0,-247.0,35.0,22.0,62.0,-8.0,0
6.0,-245.0,35.0,17.0,63.0,-6.0,0
9.0,-246.0,37.0,13.0,63.0,-8.0,0
8.0,-250.0,41.0,13.0,63.0,-7.0,0
8.0,-247.0,41.0,9.0,64.0,-8.0,0
10.0,-249.0,37.0,9.0,64.0,-6.0,0
7.0,-250.0,39.0,7.0,65.0,-9.0,0
9.0,-250.0,42.0,7.0,65.0,-8.0,0
5.0,-249.0,43.0,8.0,63.0,-9.0,0
10.0,-253.0,43.0,10.0,64.0,-7.0,0
9.0,-251.0,39.0,10.0,62.0,-8.0,0
10.0,-250.0,46.0,11.0,62.0,-5.0,0
7.0,-247.0,39.0,10.0,62.0,-6.0,0
10.0,-249.0,42.0,8.0,63.0,-4.0,0
9.0,-248.0,42.0,6.0,63.0,-3.0,0
12.0,-247.0,44.0,3.0,61.0,0.0,0
10.0,-248.0,43.0,1.0,61.0,-1.0,0
12.0,-245.0,42.0,-2.0,58.0,0.0,0
9.0,-244.0,45.0,-7.0,57.0,1.0,0
9.0,-246.0,46.0,-11.0,58.0,2.0,0
12.0,-247.0,43.0,-14.0,57.0,0.0,0
11.0,-246.0,44.0,-19.0,57.0,2.0,0
10.0,-247.0,48.0,-24.0,56.0,0.0,0
7.0,-247.0,44.0,-27.0,57.0,3.0,0
9.0,-247.0,44.0,-29.0,56.0,0.0,0
10.0,-248.0,48.0,-32.0,56.0,3.0,0
11.0,-250.0,39.0,-32.0,57.0,2.0,0
9.0,-248.0,47.0,-32.0,58.0,5.0,0
6.0,-247.0,43.0,-32.0,60.0,4.0,0
9.0,-248.0,42.0,-32.0,61.0,5.0,0
9.0,-244.0,43.0,-36.0,62.0,5.0,0
11.0,-246.0,44.0,-41.0,62.0,6.0,0
13.0,-248.0,45.0,-43.0,61.0,5.0,0
13.0,-249.0,42.0,-46.0,62.0,6.0,0
11.0,-248.0,44.0,-48.0,61.0,7.0,0
11.0,-248.0,46.0,-50.0,59.0,7.0,0
11.0,-247.0,43.0,-50.0,57.0,6.0,0
9.0,-249.0,40.0,-51.0,55.0,6.0,0
12.0,-248.0,43.0,-52.0,52.0,5.0,0
7.0,-247.0,41.0,-54.0,49.0,6.0,0
9.0,-248.0,42.0,-54.0,49.0,4.0,0
9.0,-248.0,38.0,-55.0,47.0,7.0,0
6.0,-250.0,37.0,-57.0,47.0,4.0,0
8.0,-250.0,38.0,-58.0,46.0,7.0,0
9.0,-254.0,38.0,-58.0,48.0,7.0,0
7.0,-254.0,37.0,-57.0,51.0,8.0,0
10.0,-254.0,36.0,-56.0,53.0,7.0,0
9.0,-250.0,37.0,-53.0,55.0,9.0,0
11.0,-252.0,38.0,-51.0,55.0,7.0,0
10.0,-253.0,40.0,-49.0,56.0,9.0,0
8.0,-252.0,36.0,-47.0,58.0,6.0,0
7.0,-254.0,35.0,-45.0,58.0,5.0,0
8.0,-249.0,32.0,-43.0,61.0,1.0,0
8.0,-253.0,39.0,-42.0,63.0,3.0,0
5.0,-251.0,33.0,-43.0,64.0,0.0,0
5.0,-251.0,36.0,-40.0,63.0,3.0,0
9.0,-250.0,40.0,-40.0,64.0,2.0,0
9.0,-249.0,34.0,-39.0,62.0,2.0,0
8.0,-249.0,33.0,-38.0,62.0,-1.0,0
8.0,-248.0,36.0,-37.0,62.0,-2.0,0
4.0,-250.0,37.0,-37.0,60.0,-2.0,0
9.0,-253.0,36.0,-35.0,59.0,-1.0,0
9.0,-253.0,31.0,-34.0,59.0,-3.0,0
4.0,-249.0,34.0,-32.0,58.0,-1.0,0
8.0,-253.0,35.0,-31.0,58.0,-1.0,0
6.0,-250.0,35.0,-29.0,56.0,1.0,0
8.0,-254.0,35.0,-27.0,56.0,-1.0,0
8.0,-252.0,37.0,-25.0,57.0,0.0,0
8.0,-250.0,35.0,-21.0,57.0,0.0,0
9.0,-252.0,36.0,-18.0,58.0,2.0,0
9.0,-253.0,34.0,-16.0,57.0,2.0,0
9.0,-252.0,37.0,-16.0,56.0,4.0,0
12.0,-252.0,38.0,-16.0,57.0,2.0,0
8.0,-249.0,37.0,-14.0,57.0,3.0,0
10.0,-252.0,36.0,-14.0,57.0,2.0,0
6.0,-248.0,34.0,-12.0,59.0,1.0,0
8.0,-249.0,38.0,-10.0,60.0,-2.0,0
7.0,-251.0,39.0,-9.0,63.0,-3.0,0
6.0,-248.0,38.0,-9.0,63.0,-6.0,0
7.0,-251.0,37.0,-9.0,63.0,-6.0,0
6.0,-250.0,32.0,-9.0,63.0,-7.0,0
9.0,-250.0,37.0,-7.0,63.0,-7.0,0
7.0,-252.0,39.0,-7.0,62.0,-8.0,0
8.0,-251.0,39.0,-3.0,61.0,-5.0,0
8.0,-253.0,38.0,0.0,60.0,-7.0,0
9.0,-250.0,35.0,3.0,59.0,-5.0,0
8.0,-252.0,39.0,5.0,59.0,-6.0,0
8.0,-252.0,39.0,9.0,59.0,-3.0,0
4.0,-250.0,38.0,11.0,58.0,-5.0,0
7.0,-251.0,38.0,14.0,58.0,-3.0,0
6.0,-250.0,37.0,17.0,56.0,-5.0,0
8.0,-251.0,40.0,19.0,56.0,-4.0,0
9.0,-251.0,37.0,18.0,57.0,-8.0,0
10.0,-250.0,37.0,13.0,55.0,-7.0,0
6.0,-247.0,41.0,11.0,56.0,-8.0,0
8.0,-249.0,38.0,8.0,54.0,-7.0,0
6.0,-246.0,40.0,5.0,56.0,-8.0,0
5.0,-249.0,41.0,3.0,56.0,-6.0,0
5.0,-246.0,39.0,0.0,58.0,-6.0,0
6.0,-246.0,38.0,-1.0,58.0,-7.0,0
9.0,-248.0,40.0,-4.0,60.0,-6.0,0
5.0,-249.0,43.0,-5.0,59.0,-5.0,0
8.0,-248.0,39.0,-4.0,58.0,-7.0,0
6.0,-249.0,39.0,-4.0,59.0,-3.0,0
10.0,-248.0,40.0,-4.0,59.0,-5.0,0
13.0,-249.0,38.0,-4.0,60.0,-3.0,0
8.0,-250.0,37.0,-5.0,62.0,-6.0,0
6.0,-249.0,37.0,-6.0,63.0,-4.0,0
9.0,-252.0,38.0,-6.0,63.0,-7.0,0
10.0,-246.0,40.0,-7.0,64.0,-4.0,0
8.0,-248.0,38.0,-6.0,62.0,-5.0,0
10.0,-250.0,40.0,-7.0,61.0,-4.0,0
7.0,-251.0,38.0,-10.0,60.0,-7.0,0
11.0,-248.0,39.0,-13.0,60.0,-8.0,0
8.0,-248.0,41.0,-14.0,59.0,-11.0,0
9.0,-249.0,42.0,-17.0,59.0,-11.0,0
11.0,-251.0,40.0,-18.0,59.0,-15.0,0
11.0,-249.0,41.0,-18.0,59.0,-13.0,0
13.0,-250.0,44.0,-18.0,60.0,-16.0,0
10.0,-245.0,40.0,-20.0,62.0,-14.0,0
9.0,-248.0,35.0,-25.0,63.0,-15.0,0
9.0,-248.0,37.0,-32.0,64.0,-13.0,0
12.0,-249.0,40.0,-40.0,65.0,-14.0,0
8.0,-248.0,39.0,-50.0,64.0,-12.0,0
9.0,-246.0,40.0,-56.0,65.0,-14.0,0
5.0,-246.0,39.0,-59.0,64.0,-12.0,0
6.0,-248.0,40.0,-60.0,66.0,-15.0,0
9.0,-247.0,43.0,-60.0,66.0,-13.0,0
6.0,-247.0,45.0,-61.0,66.0,-14.0,0
7.0,-246.0,45.0,-61.0,66.0,-11.0,0
4.0,-245.0,43.0,-63.0,68.0,-9.0,0
9.0,-247.0,41.0,-68.0,67.0,-6.0,0
10.0,-249.0,41.0,-72.0,67.0,-5.0,0
8.0,-248.0,41.0,-75.0,65.0,-2.0,0
5.0,-245.0,40.0,-75.0,60.0,-2.0,0
9.0,-248.0,40.0,-76.0,56.0,1.0,0
8.0,-247.0,42.0,-77.0,53.0,2.0,0
9.0,-247.0,45.0,-81.0,53.0,3.0,0
9.0,-251.0,41.0,-85.0,52.0,1.0,0
8.0,-250.0,41.0,-88.0,51.0,2.0,0
9.0,-249.0,41.0,-90.0,52.0,-2.0,0
8.0,-248.0,36.0,-92.0,53.0,-3.0,0
8.0,-245.0,34.0,-98.0,53.0,-5.0,0
11.0,-247.0,36.0,-106.0,54.0,-3.0,0
9.0,-245.0,40.0,-114.0,54.0,-5.0,0
11.0,-246.0,40.0,-122.0,55.0,-4.0,0
8.0,-243.0,42.0,-128.0,58.0,-5.0,0
8.0,-245.0,39.0,-134.0,61.0,-4.0,0
12.0,-247.0,42.0,-138.0,62.0,-7.0,0
10.0,-248.0,43.0,-138.0,63.0,-5.0,0
7.0,-244.0,42.0,-137.0,64.0,-6.0,0
6.0,-246.0,44.0,-136.0,66.0,-3.0,0
7.0,-247.0,42.0,-135.0,65.0,-2.0,0
8.0,-250.0,38.0,-138.0,64.0,2.0,0
8.0,-246.0,39.0,-143.0,61.0,1.0,0
7.0,-248.0,41.0,-148.0,61.0,4.0,0
9.0,-247.0,37.0,-152.0,58.0,3.0,0
8.0,-246.0,36.0,-155.0,54.0,5.0,0
7.0,-247.0,40.0,-156.0,50.0,1.0,0
9.0,-248.0,37.0,-158.0,49.0,3.0,0
9.0,-244.0,33.0,-161.0,49.0,2.0,0
10.0,-248.0,35.0,-167.0,49.0,4.0,0
11.0,-249.0,33.0,-174.0,49.0,4.0,0
13.0,-249.0,36.0,-178.0,47.0,9.0,0
14.0,-250.0,33.0,-184.0,48.0,7.0,0
14.0,-248.0,30.0,-187.0,47.0,10.0,0
11.0,-247.0,35.0,-190.0,49.0,9.0,0
12.0,-248.0,31.0,-195.0,50.0,12.0,0
10.0,-246.0,30.0,-199.0,50.0,9.0,0
13.0,-247.0,31.0,-205.0,51.0,10.0,0
12.0,-249.0,30.0,-209.0,53.0,8.0,0
10.0,-246.0,35.0,-214.0,54.0,9.0,0
10.0,-247.0,31.0,-216.0,54.0,7.0,0
11.0,-249.0,31.0,-218.0,54.0,9.0,0
9.0,-245.0,31.0,-222.0,53.0,9.0,0
10.0,-246.0,31.0,-225.0,53.0,12.0,0
10.0,-246.0,29.0,-230.0,50.0,12.0,0
7.0,-245.0,32.0,-238.0,50.0,16.0,0
8.0,-249.0,29.0,-243.0,50.0,14.0,0
7.0,-245.0,32.0,-249.0,50.0,17.0,0
9.0,-249.0,30.0,-254.0,51.0,16.0,0
11.0,-250.0,31.0,-263.0,52.0,19.0,0
6.0,-246.0,28.0,-274.0,55.0,16.0,0
8.0,-249.0,33.0,-285.0,55.0,19.0,0
3.0,-244.0,28.0,-297.0,54.0,17.0,0
7.0,-249.0,29.0,-303.0,55.0,20.0,0
8.0,-251.0,33.0,-307.0,55.0,19.0,0
8.0,-249.0,32.0,-309.0,55.0,20.0,0
8.0,-248.0,29.0,-312.0,55.0,17.0,0
8.0,-251.0,25.0,-314.0,56.0,20.0,0
6.0,-251.0,28.0,-315.0,56.0,18.0,0
6.0,-247.0,27.0,-320.0,56.0,20.0,0
4.0,-247.0,25.0,-326.0,55.0,19.0,0
6.0,-248.0,21.0,-334.0,56.0,23.0,0
9.0,-249.0,26.0,-342.0,56.0,24.0,0
3.0,-250.0,27.0,-347.0,58.0,27.0,0
6.0,-250.0,24.0,-351.0,62.0,27.0,0
3.0,-246.0,24.0,-356.0,65.0,33.0,0
5.0,-248.0,21.0,-362.0,66.0,32.0,0
9.0,-248.0,21.0,-369.0,66.0,36.0,0
7.0,-245.0,23.0,-376.0,64.0,36.0,0
7.0,-243.0,21.0,-389.0,61.0,40.0,0
4.0,-245.0,20.0,-403.0,61.0,37.0,0
3.0,-247.0,19.0,-419.0,62.0,39.0,0
7.0,-244.0,22.0,-440.0,63.0,36.0,0
6.0,-248.0,21.0,-457.0,63.0,39.0,0
6.0,-247.0,16.0,-474.0,63.0,37.0,0
6.0,-247.0,14.0,-487.0,62.0,39.0,0
9.0,-251.0,17.0,-495.0,63.0,35.0,0
11.0,-253.0,13.0,-499.0,62.0,37.0,0
6.0,-250.0,14.0,-507.0,61.0,34.0,0
6.0,-253.0,11.0,-510.0,60.0,33.0,0
10.0,-256.0,9.0,-511.0,59.0,29.0,0
6.0,-253.0,8.0,-513.0,59.0,28.0,0
5.0,-250.0,8.0,-516.0,57.0,25.0,0
7.0,-256.0,8.0,-517.0,56.0,27.0,0
9.0,-254.0,8.0,-517.0,54.0,24.0,0
9.0,-254.0,5.0,-516.0,55.0,23.0,0
7.0,-252.0,6.0,-515.0,55.0,20.0,0
7.0,-253.0,5.0,-518.0,55.0,22.0,0
4.0,-253.0,3.0,-520.0,55.0,20.0,0
7.0,-251.0,1.0,-524.0,54.0,24.0,0
9.0,-255.0,3.0,-529.0,56.0,22.0,0
7.0,-250.0,-1.0,-535.0,57.0,25.0,0
8.0,-252.0,2.0,-542.0,57.0,25.0,0
8.0,-253.0,-1.0,-551.0,55.0,27.0,0
5.0,-249.0,-4.0,-559.0,55.0,27.0,0
6.0,-252.0,2.0,-564.0,54.0,30.0,0
6.0,-251.0,-1.0,-569.0,53.0,28.0,0
9.0,-252.0,1.0,-569.0,53.0,32.0,0
8.0,-252.0,-4.0,-573.0,53.0,30.0,0
7.0,-252.0,-2.0,-576.0,53.0,32.0,0
10.0,-255.0,-8.0,-586.0,51.0,33.0,0
7.0,-252.0,-7.0,-592.0,57.0,36.0,0
9.0,-249.0,-9.0,-601.0,60.0,31.0,0
7.0,-253.0,-8.0,-612.0,60.0,32.0,0
9.0,-251.0,-10.0,-623.0,62.0,31.0,0
7.0,-253.0,-9.0,-637.0,62.0,33.0,0
6.0,-253.0,-9.0,-645.0,55.0,27.0,0
6.0,-251.0,-12.0,-648.0,47.0,25.0,0
4.0,-256.0,-12.0,-647.0,39.0,20.0,0
6.0,-254.0,-10.0,-642.0,34.0,22.0,0
6.0,-254.0,-14.0,-640.0,32.0,23.0,0
4.0,-253.0,-15.0,-635.0,33.0,27.0,0
4.0,-255.0,-10.0,-634.0,31.0,28.0,0
1.0,-253.0,-12.0,-629.0,32.0,33.0,0
-1.0,-254.0,-20.0,-632.0,32.0,33.0,0
0.0,-254.0,-13.0,-636.0,32.0,38.0,0
2.0,-253.0,-18.0,-644.0,29.0,38.0,0
-1.0,-253.0,-19.0,-653.0,27.0,45.0,0
3.0,-250.0,-15.0,-657.0,23.0,45.0,0
0.0,-252.0,-19.0,-659.0,19.0,49.0,0
3.0,-251.0,-16.0,-667.0,17.0,49.0,0
0.0,-250.0,-20.0,-677.0,13.0,51.0,0
4.0,-250.0,-22.0,-685.0,8.0,49.0,0
1.0,-249.0,-22.0,-697.0,0.0,51.0,0
5.0,-253.0,-21.0,-711.0,-2.0,50.0,0
2.0,-250.0,-26.0,-719.0,-4.0,49.0,0
5.0,-252.0,-25.0,-729.0,-6.0,46.0,0
3.0,-253.0,-25.0,-737.0,-8.0,45.0,0
1.0,-253.0,-26.0,-744.0,-11.0,36.0,0
0.0,-251.0,-27.0,-756.0,-11.0,29.0,0
0.0,-257.0,-24.0,-765.0,-7.0,19.0,0
-2.0,-255.0,-23.0,-772.0,1.0,17.0,0
1.0,-258.0,-25.0,-775.0,7.0,18.0,0
0.0,-259.0,-20.0,-772.0,13.0,32.0,0
0.0,-257.0,-20.0,-762.0,13.0,41.0,0
-1.0,-260.0,-20.0,-750.0,14.0,56.0,0
0.0,-260.0,-20.0,-735.0,16.0,64.0,0
3.0,-264.0,-22.0,-722.0,14.0,74.0,0
-1.0,-271.0,-21.0,-709.0,10.0,74.0,0
4.0,-270.0,-22.0,-680.0,9.0,77.0,0
1.0,-268.0,-23.0,-637.0,4.0,77.0,0
0.0,-267.0,-28.0,-589.0,4.0,81.0,0
2.0,-264.0,-28.0,-550.0,3.0,81.0,0
7.0,-259.0,-23.0,-538.0,10.0,81.0,0
5.0,-253.0,-22.0,-553.0,17.0,79.0,0
6.0,-247.0,-22.0,-592.0,21.0,83.0,0
6.0,-243.0,-22.0,-649.0,16.0,82.0,0
8.0,-245.0,-18.0,-711.0,17.0,93.0,0
11.0,-248.0,-14.0,-779.0,19.0,100.0,0
14.0,-251.0,-12.0,-841.0,19.0,116.0,0
16.0,-256.0,-18.0,-894.0,25.0,129.0,0
16.0,-263.0,-18.0,-935.0,28.0,142.0,0
18.0,-270.0,-20.0,-968.0,26.0,155.0,0
19.0,-278.0,-21.0,-996.0,26.0,170.0,0
13.0,-279.0,-27.0,-1026.0,25.0,174.0,0
11.0,-280.0,-37.0,-1054.0,20.0,173.0,0
8.0,-282.0,-44.0,-1090.0,20.0,169.0,0
7.0,-278.0,-49.0,-1135.0,17.0,175.0,0
5.0,-274.0,-57.0,-1193.0,18.0,176.0,0
9.0,-272.0,-68.0,-1262.0,21.0,176.0,0
5.0,-266.0,-73.0,-1333.0,29.0,168.0,0
-1.0,-264.0,-76.0,-1404.0,34.0,163.0,0
-2.0,-269.0,-73.0,-1471.0,35.0,160.0,0
-1.0,-276.0,-76.0,-1526.0,38.0,177.0,0
3.0,-285.0,-76.0,-1569.0,49.0,188.0,0
1.0,-283.0,-78.0,-1580.0,58.0,203.0,0
3.0,-287.0,-77.0,-1581.0,64.0,208.0,0
10.0,-293.0,-78.0,-1566.0,77.0,202.0,0
7.0,-293.0,-81.0,-1540.0,85.0,181.0,0
14.0,-296.0,-85.0,-1504.0,85.0,158.0,0
10.0,-295.0,-83.0,-1463.0,78.0,127.0,0
12.0,-295.0,-90.0,-1416.0,70.0,99.0,0
7.0,-291.0,-89.0,-1369.0,66.0,74.0,0
3.0,-283.0,-95.0,-1311.0,66.0,61.0,0
-2.0,-282.0,-104.0,-1231.0,65.0,55.0,0
-1.0,-281.0,-111.0,-1160.0,70.0,59.0,0
-4.0,-268.0,-111.0,-1091.0,79.0,61.0,0
-5.0,-289.0,-122.0,-1028.0,81.0,68.0,0
-6.0,-285.0,-134.0,-972.0,87.0,66.0,0
-7.0,-281.0,-141.0,-917.0,87.0,64.0,0
-3.0,-285.0,-148.0,-868.0,85.0,57.0,0
-4.0,-283.0,-157.0,-821.0,93.0,55.0,0
-11.0,-282.0,-162.0,-773.0,112.0,54.0,0
-19.0,-282.0,-158.0,-717.0,135.0,68.0,0
-28.0,-281.0,-157.0,-647.0,152.0,78.0,0
-30.0,-274.0,-148.0,-593.0,157.0,92.0,0
-27.0,-273.0,-141.0,-556.0,152.0,96.0,0
-23.0,-269.0,-137.0,-538.0,147.0,103.0,0
-26.0,-266.0,-133.0,-530.0,136.0,107.0,0
-20.0,-271.0,-135.0,-530.0,126.0,115.0,0
-13.0,-273.0,-128.0,-535.0,114.0,114.0,0
-11.0,-271.0,-132.0,-545.0,101.0,112.0,0
-3.0,-273.0,-130.0,-555.0,90.0,96.0,0
-3.0,-272.0,-138.0,-568.0,84.0,78.0,0
-3.0,-272.0,-136.0,-576.0,82.0,60.0,0
-5.0,-270.0,-139.0,-577.0,87.0,50.0,0
-7.0,-266.0,-137.0,-569.0,96.0,40.0,0
-6.0,-264.0,-145.0,-558.0,112.0,44.0,0
-7.0,-261.0,-148.0,-543.0,124.0,47.0,0
-7.0,-260.0,-151.0,-533.0,134.0,54.0,0
-9.0,-257.0,-156.0,-528.0,141.0,55.0,0
-11.0,-255.0,-153.0,-526.0,138.0,58.0,0
-11.0,-256.0,-159.0,-530.0,133.0,58.0,0
-9.0,-254.0,-162.0,-534.0,125.0,62.0,0
-6.0,-256.0,-165.0,-538.0,114.0,60.0,0
-7.0,-254.0,-165.0,-541.0,105.0,61.0,0
-7.0,-249.0,-172.0,-538.0,93.0,57.0,0
-9.0,-254.0,-168.0,-530.0,82.0,53.0,0
-9.0,-253.0,-169.0,-517.0,73.0,43.0,0
-7.0,-252.0,-175.0,-499.0,64.0,36.0,0
-9.0,-251.0,-171.0,-478.0,57.0,27.0,0
-11.0,-248.0,-174.0,-457.0,53.0,23.0,0
-10.0,-244.0,-174.0,-438.0,52.0,15.0,0
-12.0,-237.0,-170.0,-425.0,51.0,14.0,0
-11.0,-232.0,-174.0,-420.0,46.0,11.0,0
-10.0,-233.0,-173.0,-424.0,42.0,12.0,0
-10.0,-230.0,-167.0,-431.0,42.0,12.0,0
-11.0,-232.0,-165.0,-434.0,39.0,16.0,0
-10.0,-233.0,-164.0,-431.0,34.0,16.0,0
-8.0,-231.0,-168.0,-427.0,28.0,22.0,0
-10.0,-231.0,-169.0,-413.0,23.0,21.0,0
-7.0,-228.0,-170.0,-401.0,15.0,22.0,0
-10.0,-228.0,-171.0,-390.0,12.0,18.0,0
-7.0,-221.0,-174.0,-381.0,12.0,17.0,0
-11.0,-221.0,-168.0,-370.0,13.0,15.0,0
-7.0,-223.0,-167.0,-362.0,13.0,19.0,0
-10.0,-223.0,-166.0,-356.0,18.0,17.0,0
-11.0,-225.0,-165.0,-353.0,18.0,25.0,0
-12.0,-222.0,-163.0,-348.0,15.0,22.0,0
-12.0,-221.0,-162.0,-340.0,15.0,22.0,0
-16.0,-220.0,-167.0,-331.0,9.0,17.0,0
-17.0,-219.0,-161.0,-323.0,-3.0,18.0,0
-15.0,-219.0,-163.0,-310.0,-9.0,11.0,0
-14.0,-215.0,-155.0,-293.0,-19.0,9.0,0
-12.0,-214.0,-162.0,-276.0,-34.0,4.0,0
-15.0,-209.0,-158.0,-260.0,-43.0,4.0,0
-12.0,-210.0,-156.0,-251.0,-48.0,1.0,0
-12.0,-211.0,-153.0,-242.0,-50.0,4.0,0
-12.0,-207.0,-147.0,-228.0,-51.0,1.0,0
-12.0,-203.0,-147.0,-213.0,-51.0,5.0,0
-12.0,-202.0,-143.0,-193.0,-47.0,6.0,0
-12.0,-202.0,-141.0,-168.0,-47.0,10.0,0
-8.0,-199.0,-145.0,-144.0,-49.0,9.0,0
-11.0,-196.0,-145.0,-126.0,-53.0,14.0,0
-7.0,-196.0,-144.0,-108.0,-53.0,10.0,0
-5.0,-195.0,-144.0,-91.0,-44.0,9.0,0
-4.0,-191.0,-142.0,-76.0,-35.0,3.0,0
-5.0,-194.0,-147.0,-61.0,-26.0,2.0,0
-5.0,-194.0,-143.0,-48.0,-15.0,-5.0,0
-10.0,-193.0,-141.0,-35.0,-5.0,-4.0,0
-9.0,-193.0,-140.0,-28.0,4.0,-4.0,0
-8.0,-194.0,-141.0,-16.0,8.0,-3.0,0
-12.0,-192.0,-142.0,-2.0,8.0,-8.0,0
-15.0,-190.0,-141.0,12.0,9.0,-4.0,0
-13.0,-194.0,-136.0,25.0,10.0,-5.0,0
-17.0,-191.0,-140.0,46.0,14.0,-5.0,0
-15.0,-189.0,-143.0,58.0,14.0,-9.0,0
-16.0,-185.0,-141.0,64.0,16.0,-8.0,0
-20.0,-186.0,-140.0,67.0,15.0,-11.0,0
-17.0,-187.0,-144.0,66.0,12.0,-10.0,0
-17.0,-185.0,-140.0,68.0,5.0,-13.0,0
-17.0,-184.0,-144.0,70.0,-5.0,-8.0,0
-14.0,-186.0,-140.0,74.0,-12.0,-7.0,0
-12.0,-184.0,-144.0,88.0,-15.0,-3.0,0
-11.0,-186.0,-145.0,108.0,-17.0,-7.0,0
-9.0,-186.0,-147.0,136.0,-11.0,-6.0,0
-11.0,-184.0,-149.0,156.0,-8.0,-7.0,0
-12.0,-183.0,-147.0,174.0,-7.0,-5.0,0
-12.0,-182.0,-142.0,189.0,-10.0,-6.0,0
-12.0,-183.0,-150.0,196.0,-14.0,-3.0,0
-12.0,-181.0,-150.0,204.0,-18.0,-3.0,0
-10.0,-181.0,-152.0,208.0,-22.0,0.0,0
-12.0,-178.0,-151.0,214.0,-26.0,-2.0,0
-9.0,-180.0,-152.0,220.0,-27.0,0.0,0
-12.0,-177.0,-153.0,224.0,-26.0,-1.0,0
-12.0,-172.0,-153.0,227.0,-22.0,2.0,0
-12.0,-174.0,-150.0,225.0,-18.0,-3.0,0
-9.0,-173.0,-152.0,221.0,-16.0,-5.0,0
-12.0,-171.0,-152.0,213.0,-9.0,-10.0,0
-11.0,-173.0,-151.0,203.0,-4.0,-9.0,0
-12.0,-170.0,-153.0,193.0,3.0,-12.0,0
-13.0,-171.0,-149.0,185.0,7.0,-10.0,0
-11.0,-173.0,-155.0,174.0,11.0,-11.0,0
-12.0,-173.0,-151.0,165.0,13.0,-11.0,0
-14.0,-174.0,-156.0,158.0,13.0,-13.0,0
-12.0,-173.0,-153.0,151.0,9.0,-18.0,0
-12.0,-172.0,-159.0,148.0,8.0,-24.0,0
-12.0,-177.0,-155.0,146.0,13.0,-20.0,0
-15.0,-174.0,-151.0,148.0,21.0,-22.0,0
-15.0,-175.0,-154.0,156.0,31.0,-17.0,0
-12.0,-174.0,-146.0,168.0,40.0,-17.0,0
-15.0,-173.0,-154.0,183.0,44.0,-15.0,0
-15.0,-170.0,-159.0,190.0,47.0,-17.0,0
-15.0,-167.0,-161.0,192.0,46.0,-13.0,0
-22.0,-165.0,-158.0,187.0,43.0,-15.0,0
-18.0,-166.0,-154.0,177.0,38.0,-11.0,0
-15.0,-161.0,-157.0,160.0,32.0,-9.0,0
-14.0,-161.0,-154.0,148.0,29.0,-4.0,0
-15.0,-156.0,-155.0,139.0,28.0,-3.0,0
-13.0,-160.0,-147.0,135.0,27.0,0.0,0
-12.0,-158.0,-150.0,135.0,24.0,1.0,0
-11.0,-159.0,-154.0,138.0,23.0,8.0,0
-12.0,-160.0,-152.0,139.0,27.0,7.0,0
-9.0,-163.0,-150.0,140.0,31.0,10.0,0
-11.0,-163.0,-150.0,141.0,38.0,8.0,0
-9.0,-163.0,-153.0,138.0,43.0,9.0,0
-11.0,-166.0,-152.0,138.0,51.0,5.0,0
-9.0,-167.0,-155.0,140.0,58.0,5.0,0
-10.0,-172.0,-152.0,147.0,68.0,1.0,0
-8.0,-168.0,-149.0,157.0,77.0,0.0,0
-5.0,-174.0,-148.0,163.0,87.0,-2.0,0
-4.0,-176.0,-147.0,171.0,99.0,-1.0,0
-10.0,-176.0,-149.0,180.0,111.0,-4.0,0
-10.0,-180.0,-149.0,187.0,118.0,-5.0,0
-12.0,-180.0,-149.0,196.0,117.0,-9.0,0
-13.0,-175.0,-150.0,201.0,106.0,-9.0,0
-13.0,-179.0,-147.0,206.0,89.0,-12.0,0
-12.0,-182.0,-153.0,206.0,74.0,-11.0,0
-17.0,-180.0,-148.0,205.0,64.0,-12.0,0
-18.0,-178.0,-147.0,205.0,61.0,-8.0,0
-19.0,-177.0,-142.0,208.0,63.0,-7.0,0
-19.0,-179.0,-143.0,215.0,69.0,1.0,0
-21.0,-180.0,-142.0,219.0,78.0,4.0,0
-18.0,-180.0,-141.0,219.0,82.0,12.0,0
-19.0,-179.0,-145.0,217.0,82.0,14.0,0
-15.0,-183.0,-145.0,212.0,81.0,15.0,0
-11.0,-184.0,-141.0,206.0,81.0,8.0,0
-11.0,-181.0,-140.0,197.0,86.0,1.0,0
-8.0,-184.0,-140.0,190.0,91.0,-11.0,0
-4.0,-187.0,-136.0,185.0,98.0,-19.0,0
-8.0,-187.0,-138.0,187.0,103.0,-30.0,0
-7.0,-189.0,-135.0,196.0,105.0,-33.0,0
-8.0,-187.0,-131.0,203.0,102.0,-40.0,0
-12.0,-184.0,-134.0,211.0,96.0,-38.0,0
-9.0,-185.0,-134.0,212.0,87.0,-40.0,0
-10.0,-183.0,-136.0,211.0,80.0,-38.0,0
-12.0,-181.0,-133.0,212.0,76.0,-40.0,0
-11.0,-181.0,-128.0,215.0,74.0,-38.0,0
-14.0,-176.0,-129.0,218.0,76.0,-40.0,0
-12.0,-176.0,-129.0,225.0,76.0,-35.0,0
-16.0,-173.0,-127.0,234.0,78.0,-30.0,0
-13.0,-175.0,-125.0,239.0,79.0,-17.0,0
-12.0,-174.0,-129.0,244.0,81.0,-11.0,0
-14.0,-172.0,-131.0,242.0,82.0,-2.0,0
-12.0,-172.0,-127.0,236.0,81.0,-2.0,0
-11.0,-172.0,-130.0,231.0,77.0,-2.0,0
-11.0,-172.0,-128.0,228.0,74.0,-10.0,0
-7.0,-175.0,-124.0,228.0,70.0,-15.0,0
-5.0,-174.0,-124.0,230.0,65.0,-22.0,0
-5.0,-177.0,-122.0,229.0,62.0,-24.0,0
-5.0,-176.0,-121.0,231.0,64.0,-29.0,0
-7.0,-176.0,-121.0,237.0,71.0,-30.0,0
-5.0,-174.0,-120.0,248.0,77.0,-33.0,0
-6.0,-173.0,-121.0,260.0,87.0,-30.0,0
-8.0,-169.0,-119.0,270.0,95.0,-33.0,0
-12.0,-163.0,-119.0,278.0,100.0,-29.0,0
-10.0,-163.0,-119.0,281.0,103.0,-31.0,0
-12.0,-163.0,-118.0,282.0,107.0,-28.0,0
-11.0,-160.0,-116.0,285.0,109.0,-28.0,0
-12.0,-158.0,-118.0,285.0,113.0,-24.0,0
-12.0,-161.0,-121.0,284.0,119.0,-24.0,0
-11.0,-159.0,-117.0,281.0,123.0,-23.0,0
-9.0,-160.0,-119.0,276.0,130.0,-27.0,0
-4.0,-162.0,-119.0,277.0,142.0,-29.0,0
-2.0,-165.0,-119.0,282.0,154.0,-35.0,0
-8.0,-165.0,-120.0,290.0,167.0,-36.0,0
-12.0,-167.0,-119.0,297.0,173.0,-38.0,0
-9.0,-170.0,-122.0,302.0,168.0,-29.0,0
-10.0,-173.0,-120.0,301.0,158.0,-22.0,0
-12.0,-174.0,-120.0,304.0,145.0,-9.0,0
-12.0,-176.0,-119.0,311.0,133.0,1.0,0
-12.0,-173.0,-113.0,323.0,122.0,14.0,0
-14.0,-174.0,-114.0,340.0,114.0,20.0,0
-11.0,-173.0,-110.0,361.0,109.0,29.0,0
-12.0,-171.0,-110.0,383.0,110.0,29.0,0
-12.0,-166.0,-107.0,402.0,116.0,30.0,0
-11.0,-159.0,-109.0,414.0,129.0,21.0,0
-8.0,-158.0,-112.0,424.0,148.0,11.0,0
-3.0,-156.0,-109.0,432.0,180.0,-3.0,0
-1.0,-159.0,-108.0,434.0,207.0,-18.0,0
0.0,-162.0,-113.0,434.0,237.0,-34.0,0
0.0,-164.0,-115.0,429.0,260.0,-44.0,0
1.0,-166.0,-111.0,422.0,276.0,-60.0,0
-4.0,-171.0,-116.0,413.0,281.0,-71.0,0
-5.0,-175.0,-112.0,405.0,274.0,-82.0,0
-6.0,-183.0,-112.0,401.0,256.0,-86.0,0
-6.0,-186.0,-113.0,407.0,236.0,-91.0,0
-7.0,-193.0,-108.0,425.0,219.0,-96.0,0
-8.0,-196.0,-108.0,458.0,203.0,-98.0,0
-11.0,-199.0,-107.0,489.0,195.0,-100.0,0
-11.0,-202.0,-109.0,521.0,194.0,-108.0,0
-12.0,-203.0,-108.0,554.0,204.0,-114.0,0
-12.0,-206.0,-104.0,577.0,211.0,-122.0,0
-16.0,-203.0,-109.0,593.0,212.0,-124.0,0
-20.0,-204.0,-102.0,602.0,208.0,-128.0,0
-17.0,-205.0,-102.0,603.0,194.0,-125.0,0
-18.0,-211.0,-103.0,602.0,175.0,-121.0,0
-14.0,-213.0,-105.0,605.0,154.0,-113.0,0
-12.0,-219.0,-106.0,613.0,136.0,-105.0,0
-7.0,-220.0,-105.0,631.0,125.0,-96.0,0
-4.0,-232.0,-101.0,659.0,115.0,-92.0,0
-1.0,-239.0,-103.0,696.0,101.0,-88.0,0
1.0,-246.0,-103.0,735.0,87.0,-88.0,0
0.0,-252.0,-106.0,773.0,70.0,-89.0,0
-2.0,-258.0,-104.0,812.0,58.0,-93.0,0
-3.0,-263.0,-108.0,848.0,52.0,-88.0,0
-5.0,-268.0,-101.0,883.0,52.0,-86.0,0
-6.0,-274.0,-104.0,916.0,55.0,-78.0,0
-6.0,-277.0,-98.0,955.0,60.0,-73.0,0
-5.0,-282.0,-96.0,1008.0,65.0,-61.0,0
-7.0,-284.0,-95.0,1056.0,64.0,-54.0,0
-7.0,-285.0,-93.0,1111.0,59.0,-45.0,0
-8.0,-288.0,-91.0,1174.0,49.0,-45.0,0
-11.0,-282.0,-90.0,1229.0,34.0,-40.0,0
-10.0,-283.0,-87.0,1281.0,22.0,-42.0,0
-11.0,-279.0,-81.0,1324.0,11.0,-40.0,0
-14.0,-275.0,-71.0,1364.0,1.0,-40.0,0
-12.0,-271.0,-65.0,1409.0,-7.0,-35.0,0
-13.0,-264.0,-68.0,1450.0,-16.0,-32.0,0
-14.0,-259.0,-59.0,1479.0,-19.0,-30.0,0
-11.0,-264.0,-57.0,1497.0,-24.0,-35.0,0
-9.0,-277.0,-44.0,1526.0,-37.0,-48.0,0
-7.0,-303.0,-40.0,1589.0,-40.0,-67.0,0
2.0,-350.0,-15.0,1704.0,-33.0,-85.0,0
14.0,-434.0,50.0,1911.0,-19.0,-114.0,0
17.0,-533.0,73.0,2253.0,-16.0,-158.0,0
16.0,-642.0,86.0,2691.0,-22.0,-243.0,0
16.0,-724.0,103.0,3128.0,-27.0,-355.0,0
-4.0,-834.0,117.0,3479.0,-18.0,-529.0,0
-60.0,-926.0,-12.0,3508.0,-40.0,-707.0,0
-121.0,-906.0,-247.0,2868.0,-117.0,-878.0,0
-222.0,-840.0,-416.0,1544.0,-161.0,-934.0,0
-148.0,-778.0,-267.0,156.0,-151.0,-689.0,0
48.0,-686.0,-1.0,-375.0,-149.0,-317.0,0
78.0,-577.0,40.0,48.0,-99.0,-115.0,0
66.0,-468.0,-24.0,725.0,-50.0,4.0,0
33.0,-310.0,-126.0,1056.0,-40.0,85.0,0
-7.0,-184.0,-169.0,849.0,-44.0,121.0,0
-37.0,-91.0,-126.0,312.0,-2.0,71.0,0
-55.0,-33.0,-41.0,-324.0,78.0,40.0,0
-48.0,8.0,58.0,-622.0,127.0,112.0,0
-32.0,45.0,128.0,-679.0,138.0,270.0,0
-12.0,70.0,148.0,-579.0,101.0,392.0,0
11.0,81.0,121.0,-396.0,10.0,426.0,0
35.0,73.0,74.0,-138.0,-87.0,388.0,0
50.0,34.0,43.0,137.0,-157.0,298.0,0
54.0,-31.0,34.0,338.0,-171.0,183.0,0
63.0,-148.0,-19.0,457.0,-122.0,76.0,0
31.0,-243.0,-6.0,488.0,49.0,-102.0,0
8.0,-315.0,91.0,532.0,208.0,-198.0,0
10.0,-351.0,145.0,750.0,93.0,-231.0,0
27.0,-355.0,127.0,1110.0,-69.0,-236.0,0
48.0,-354.0,63.0,1380.0,-106.0,-236.0,0
53.0,-373.0,5.0,1435.0,-52.0,-266.0,0
46.0,-396.0,-14.0,1343.0,24.0,-350.0,0
24.0,-413.0,4.0,1245.0,54.0,-450.0,0
11.0,-413.0,10.0,1220.0,37.0,-533.0,0
-3.0,-392.0,30.0,1275.0,39.0,-564.0,0
-11.0,-364.0,41.0,1356.0,68.0,-519.0,0
-18.0,-313.0,46.0,1411.0,103.0,-441.0,0
-15.0,-261.0,38.0,1406.0,121.0,-357.0,0
-11.0,-212.0,32.0,1366.0,121.0,-286.0,0
-1.0,-174.0,38.0,1284.0,106.0,-225.0,0
1.0,-145.0,42.0,1160.0,97.0,-171.0,0
3.0,-136.0,54.0,1010.0,96.0,-119.0,0
11.0,-146.0,68.0,860.0,99.0,-66.0,0
15.0,-156.0,76.0,750.0,94.0,-33.0,0
18.0,-182.0,80.0,702.0,77.0,-13.0,0
19.0,-199.0,84.0,701.0,59.0,-15.0,0
17.0,-218.0,81.0,715.0,40.0,-31.0,0
13.0,-229.0,81.0,711.0,38.0,-52.0,0
12.0,-242.0,77.0,703.0,47.0,-72.0,0
11.0,-254.0,77.0,704.0,54.0,-94.0,0
13.0,-251.0,74.0,723.0,56.0,-109.0,0
8.0,-252.0,70.0,735.0,63.0,-116.0,0
13.0,-246.0,69.0,724.0,73.0,-108.0,0
18.0,-246.0,67.0,699.0,81.0,-104.0,0
20.0,-249.0,70.0,665.0,84.0,-96.0,0
24.0,-247.0,69.0,633.0,89.0,-86.0,0
29.0,-254.0,65.0,603.0,103.0,-60.0,0
28.0,-250.0,63.0,567.0,119.0,-35.0,0
34.0,-255.0,58.0,541.0,136.0,-15.0,0
33.0,-253.0,49.0,517.0,150.0,-2.0,0
32.0,-250.0,46.0,503.0,147.0,5.0,0
28.0,-241.0,38.0,498.0,136.0,-2.0,0
27.0,-238.0,38.0,497.0,127.0,-12.0,0
24.0,-231.0,44.0,493.0,120.0,-26.0,0
23.0,-222.0,52.0,483.0,116.0,-39.0,0
21.0,-218.0,48.0,462.0,115.0,-47.0,0
22.0,-218.0,52.0,427.0,123.0,-56.0,0
21.0,-216.0,50.0,394.0,127.0,-62.0,0
20.0,-220.0,48.0,377.0,135.0,-68.0,0
21.0,-224.0,49.0,367.0,140.0,-72.0,0
20.0,-225.0,51.0,362.0,138.0,-73.0,0
23.0,-230.0,54.0,357.0,137.0,-71.0,0
25.0,-231.0,52.0,349.0,131.0,-67.0,0
21.0,-231.0,51.0,334.0,126.0,-67.0,0
24.0,-233.0,51.0,308.0,124.0,-62.0,0
23.0,-241.0,54.0,277.0,120.0,-59.0,0
22.0,-247.0,50.0,252.0,113.0,-53.0,0
19.0,-247.0,47.0,226.0,107.0,-50.0,0
19.0,-253.0,48.0,210.0,102.0,-50.0,0
20.0,-253.0,48.0,199.0,104.0,-49.0,0
18.0,-256.0,46.0,188.0,110.0,-46.0,0
14.0,-253.0,44.0,178.0,116.0,-45.0,0
15.0,-252.0,45.0,165.0,126.0,-43.0,0
13.0,-251.0,42.0,154.0,136.0,-40.0,0
8.0,-249.0,46.0,138.0,147.0,-37.0,0
10.0,-244.0,49.0,128.0,154.0,-34.0,0
11.0,-248.0,50.0,122.0,156.0,-25.0,0
12.0,-241.0,55.0,116.0,155.0,-20.0,0
13.0,-236.0,53.0,108.0,154.0,-16.0,0
14.0,-235.0,59.0,95.0,145.0,-14.0,0
14.0,-230.0,57.0,78.0,136.0,-13.0,0
14.0,-229.0,48.0,59.0,126.0,-13.0,0
13.0,-227.0,51.0,43.0,120.0,-15.0,0
10.0,-227.0,47.0,32.0,114.0,-18.0,0
7.0,-229.0,47.0,23.0,110.0,-18.0,0
3.0,-232.0,45.0,17.0,106.0,-19.0,0
5.0,-238.0,44.0,15.0,103.0,-15.0,0
8.0,-242.0,45.0,15.0,105.0,-9.0,0
6.0,-244.0,45.0,13.0,104.0,-6.0,0
7.0,-242.0,47.0,10.0,103.0,-6.0,0
5.0,-249.0,44.0,7.0,99.0,-2.0,0
5.0,-248.0,48.0,5.0,94.0,-2.0,0
9.0,-254.0,52.0,7.0,87.0,3.0,0
11.0,-256.0,52.0,10.0,81.0,5.0,0
13.0,-252.0,53.0,13.0,76.0,13.0,0
12.0,-246.0,52.0,11.0,74.0,17.0,0
15.0,-245.0,58.0,5.0,71.0,23.0,0
15.0,-244.0,57.0,-7.0,68.0,27.0,0
15.0,-241.0,56.0,-18.0,62.0,29.0,0
19.0,-237.0,48.0,-26.0,55.0,30.0,0
14.0,-237.0,53.0,-32.0,50.0,30.0,0
15.0,-235.0,53.0,-37.0,50.0,32.0,0
16.0,-236.0,55.0,-43.0,49.0,31.0,0
13.0,-235.0,49.0,-50.0,49.0,28.0,0
18.0,-238.0,49.0,-59.0,51.0,29.0,0
17.0,-237.0,48.0,-68.0,55.0,27.0,0
18.0,-244.0,50.0,-77.0,57.0,25.0,0
15.0,-241.0,49.0,-81.0,60.0,22.0,0
13.0,-243.0,47.0,-83.0,65.0,20.0,0
10.0,-244.0,49.0,-88.0,71.0,18.0,0
12.0,-243.0,50.0,-94.0,75.0,19.0,0
7.0,-241.0,50.0,-105.0,75.0,19.0,0
7.0,-242.0,52.0,-116.0,75.0,20.0,0
6.0,-247.0,50.0,-125.0,71.0,22.0,0
6.0,-245.0,47.0,-132.0,67.0,23.0,0
6.0,-246.0,48.0,-137.0,61.0,24.0,0
6.0,-247.0,44.0,-140.0,55.0,24.0,0
9.0,-247.0,48.0,-146.0,46.0,23.0,0
8.0,-246.0,42.0,-147.0,38.0,22.0,0
10.0,-249.0,46.0,-145.0,35.0,22.0,0
7.0,-247.0,44.0,-144.0,30.0,22.0,0
9.0,-245.0,44.0,-144.0,27.0,21.0,0
8.0,-245.0,44.0,-144.0,23.0,20.0,0
11.0,-247.0,45.0,-146.0,17.0,20.0,0
13.0,-246.0,51.0,-144.0,15.0,21.0,0
12.0,-246.0,45.0,-140.0,15.0,19.0,0
13.0,-247.0,44.0,-137.0,15.0,21.0,0
12.0,-246.0,43.0,-136.0,17.0,20.0,0
13.0,-246.0,50.0,-132.0,18.0,18.0,0
11.0,-246.0,41.0,-130.0,19.0,17.0,0
13.0,-248.0,44.0,-128.0,20.0,17.0,0
10.0,-248.0,44.0,-126.0,22.0,19.0,0
10.0,-248.0,46.0,-124.0,22.0,21.0,0
10.0,-246.0,45.0,-122.0,24.0,21.0,0
9.0,-246.0,43.0,-123.0,23.0,21.0,0
9.0,-248.0,43.0,-126.0,20.0,21.0,0
10.0,-251.0,43.0,-126.0,18.0,22.0,0
9.0,-249.0,43.0,-130.0,16.0,22.0,0
9.0,-249.0,45.0,-129.0,13.0,21.0,0
7.0,-248.0,43.0,-126.0,10.0,22.0,0
9.0,-249.0,43.0,-124.0,8.0,22.0,0
9.0,-248.0,46.0,-125.0,6.0,24.0,0
6.0,-250.0,46.0,-126.0,9.0,24.0,0
12.0,-247.0,41.0,-125.0,11.0,25.0,0
12.0,-248.0,43.0,-123.0,15.0,24.0,0
10.0,-250.0,44.0,-121.0,15.0,24.0,0
12.0,-249.0,40.0,-118.0,14.0,24.0,0
10.0,-250.0,46.0,-112.0,13.0,25.0,0
27.0,-248.0,26.0,-106.0,11.0,23.0,0
13.0,-253.0,43.0,-101.0,10.0,23.0,0
10.0,-248.0,40.0,-98.0,9.0,20.0,0
10.0,-248.0,43.0,-97.0,10.0,18.0,0
9.0,-250.0,43.0,-98.0,12.0,15.0,0
7.0,-248.0,42.0,-102.0,12.0,15.0,0
7.0,-248.0,40.0,-105.0,11.0,15.0,0
10.0,-251.0,43.0,-107.0,9.0,17.0,0
8.0,-248.0,41.0,-106.0,7.0,20.0,0
6.0,-252.0,43.0,-103.0,3.0,23.0,0
9.0,-252.0,38.0,-99.0,2.0,24.0,0
7.0,-251.0,39.0,-98.0,-2.0,27.0,0
7.0,-252.0,36.0,-100.0,-5.0,28.0,0
10.0,-251.0,34.0,-103.0,-7.0,30.0,0
9.0,-254.0,37.0,-103.0,-12.0,30.0,0
9.0,-253.0,36.0,-100.0,-16.0,29.0,0
7.0,-251.0,39.0,-96.0,-19.0,27.0,0
11.0,-254.0,35.0,-90.0,-18.0,27.0,0
10.0,-251.0,39.0,-88.0,-17.0,26.0,0
9.0,-252.0,36.0,-90.0,-13.0,22.0,0
9.0,-253.0,33.0,-94.0,-6.0,17.0,0
11.0,-248.0,33.0,-101.0,1.0,15.0,0
10.0,-253.0,29.0,-101.0,7.0,14.0,0
7.0,-250.0,31.0,-101.0,12.0,13.0,0
9.0,-251.0,29.0,-105.0,14.0,10.0,0
9.0,-248.0,28.0,-108.0,12.0,7.0,0
6.0,-250.0,28.0,-114.0,12.0,7.0,0
5.0,-250.0,28.0,-121.0,11.0,8.0,0
6.0,-250.0,30.0,-127.0,13.0,9.0,0
5.0,-250.0,28.0,-131.0,15.0,9.0,0
7.0,-253.0,26.0,-136.0,13.0,7.0,0
4.0,-253.0,30.0,-139.0,13.0,9.0,0
8.0,-255.0,25.0,-139.0,12.0,8.0,0
6.0,-253.0,25.0,-139.0,11.0,9.0,0
9.0,-252.0,22.0,-140.0,11.0,9.0,0
7.0,-250.0,22.0,-144.0,12.0,10.0,0
8.0,-251.0,22.0,-149.0,10.0,10.0,0
11.0,-250.0,23.0,-156.0,10.0,13.0,0
9.0,-251.0,27.0,-163.0,10.0,14.0,0
10.0,-251.0,23.0,-171.0,12.0,16.0,0
7.0,-253.0,25.0,-175.0,16.0,15.0,0
8.0,-251.0,24.0,-175.0,20.0,18.0,0
9.0,-250.0,25.0,-176.0,26.0,16.0,0
9.0,-253.0,27.0,-173.0,26.0,15.0,0
6.0,-253.0,26.0,-171.0,24.0,14.0,0
9.0,-252.0,23.0,-172.0,19.0,13.0,0
8.0,-249.0,24.0,-175.0,16.0,10.0,0
8.0,-253.0,22.0,-177.0,17.0,12.0,0
7.0,-254.0,23.0,-181.0,17.0,12.0,0
9.0,-254.0,25.0,-181.0,20.0,13.0,0
10.0,-257.0,25.0,-178.0,24.0,12.0,0
9.0,-256.0,24.0,-173.0,25.0,11.0,0
12.0,-254.0,20.0,-171.0,25.0,11.0,0
11.0,-254.0,18.0,-171.0,26.0,10.0,0
8.0,-252.0,19.0,-171.0,31.0,8.0,0
9.0,-252.0,21.0,-172.0,34.0,7.0,0
7.0,-251.0,21.0,-172.0,37.0,4.0,0
8.0,-253.0,24.0,-173.0,37.0,3.0,0
4.0,-250.0,22.0,-172.0,38.0,2.0,0
7.0,-249.0,22.0,-170.0,39.0,1.0,0
8.0,-255.0,22.0,-168.0,41.0,-1.0,0
7.0,-251.0,24.0,-166.0,45.0,2.0,0
6.0,-251.0,23.0,-165.0,49.0,3.0,0
11.0,-254.0,22.0,-163.0,52.0,5.0,0
7.0,-248.0,29.0,-162.0,53.0,3.0,0
9.0,-252.0,22.0,-161.0,52.0,4.0,0
6.0,-254.0,22.0,-158.0,51.0,4.0,0
11.0,-254.0,25.0,-156.0,52.0,5.0,0
10.0,-253.0,27.0,-155.0,53.0,3.0,0
13.0,-254.0,29.0,-154.0,52.0,1.0,0
13.0,-253.0,25.0,-154.0,52.0,-2.0,0
14.0,-252.0,27.0,-153.0,54.0,-1.0,0
8.0,-254.0,27.0,-150.0,57.0,-3.0,0
11.0,-254.0,28.0,-145.0,59.0,-2.0,0
12.0,-254.0,25.0,-139.0,61.0,-4.0,0
13.0,-257.0,24.0,-133.0,59.0,-7.0,0
10.0,-257.0,23.0,-126.0,64.0,-12.0,0
11.0,-258.0,24.0,-122.0,70.0,-12.0,0
8.0,-253.0,21.0,-118.0,74.0,-14.0,0
8.0,-256.0,26.0,-114.0,75.0,-11.0,0
10.0,-253.0,26.0,-111.0,74.0,-11.0,0
10.0,-254.0,25.0,-108.0,71.0,-10.0,0
12.0,-253.0,20.0,-105.0,66.0,-11.0,0
11.0,-248.0,21.0,-107.0,63.0,-9.0,0
6.0,-255.0,19.0,-110.0,60.0,-8.0,0
11.0,-253.0,24.0,-111.0,58.0,-7.0,0
10.0,-251.0,17.0,-109.0,55.0,-7.0,0
7.0,-254.0,25.0,-104.0,54.0,-6.0,0
10.0,-253.0,22.0,-99.0,56.0,-8.0,0
9.0,-250.0,21.0,-96.0,59.0,-8.0,0
13.0,-254.0,20.0,-98.0,61.0,-8.0,0
12.0,-254.0,17.0,-101.0,64.0,-5.0,0
14.0,-257.0,22.0,-104.0,63.0,-4.0,0
13.0,-256.0,20.0,-104.0,62.0,-3.0,0
11.0,-254.0,20.0,-101.0,61.0,-3.0,0
12.0,-255.0,18.0,-98.0,62.0,-2.0,0
15.0,-258.0,19.0,-95.0,65.0,-3.0,0
14.0,-254.0,20.0,-92.0,66.0,-3.0,0
12.0,-252.0,18.0,-91.0,68.0,-5.0,0
16.0,-255.0,15.0,-88.0,68.0,-7.0,0
11.0,-254.0,14.0,-88.0,66.0,-8.0,0
14.0,-255.0,18.0,-84.0,66.0,-7.0,0
13.0,-252.0,21.0,-82.0,67.0,-9.0,0
12.0,-254.0,17.0,-81.0,69.0,-8.0,0
14.0,-254.0,21.0,-79.0,69.0,-9.0,0
10.0,-253.0,18.0,-78.0,70.0,-8.0,0
12.0,-254.0,18.0,-77.0,69.0,-9.0,0
11.0,-250.0,18.0,-78.0,70.0,-7.0,0
7.0,-256.0,17.0,-78.0,68.0,-7.0,0
9.0,-255.0,14.0,-80.0,68.0,-8.0,0
9.0,-254.0,16.0,-78.0,69.0,-8.0,0
4.0,-253.0,14.0,-77.0,70.0,-6.0,0
9.0,-258.0,16.0,-75.0,70.0,-8.0,0
8.0,-253.0,14.0,-73.0,70.0,-6.0,0
9.0,-254.0,15.0,-72.0,67.0,-7.0,0
8.0,-254.0,18.0,-70.0,67.0,-7.0,0
10.0,-254.0,16.0,-70.0,65.0,-8.0,0
7.0,-252.0,16.0,-70.0,67.0,-5.0,0
11.0,-254.0,11.0,-70.0,71.0,-6.0,0
12.0,-251.0,18.0,-72.0,71.0,-5.0,0
12.0,-251.0,19.0,-75.0,72.0,-7.0,0
9.0,-255.0,18.0,-76.0,69.0,-6.0,0
8.0,-253.0,12.0,-76.0,67.0,-6.0,0
9.0,-255.0,17.0,-73.0,65.0,-5.0,0
8.0,-256.0,16.0,-70.0,62.0,-7.0,0
7.0,-256.0,12.0,-67.0,60.0,-8.0,0
6.0,-255.0,15.0,-65.0,60.0,-8.0,0
7.0,-254.0,13.0,-63.0,61.0,-7.0,0
6.0,-256.0,14.0,-61.0,62.0,-5.0,0
9.0,-251.0,13.0,-61.0,65.0,-2.0,0
6.0,-253.0,14.0,-61.0,65.0,1.0,0
9.0,-251.0,12.0,-63.0,63.0,3.0,0
11.0,-252.0,16.0,-64.0,61.0,4.0,0
10.0,-254.0,18.0,-65.0,61.0,5.0,0
10.0,-253.0,15.0,-67.0,62.0,3.0,0
11.0,-252.0,14.0,-69.0,62.0,3.0,0
12.0,-257.0,19.0,-73.0,62.0,1.0,0
10.0,-255.0,15.0,-74.0,60.0,2.0,0
7.0,-254.0,17.0,-73.0,59.0,1.0,0
8.0,-255.0,15.0,-72.0,60.0,1.0,0
10.0,-255.0,19.0,-71.0,62.0,-2.0,0
10.0,-256.0,18.0,-68.0,62.0,1.0,0
12.0,-257.0,14.0,-68.0,63.0,-2.0,0
12.0,-255.0,15.0,-65.0,63.0,-2.0,0
11.0,-252.0,14.0,-62.0,65.0,-4.0,0
10.0,-251.0,14.0,-58.0,66.0,-1.0,0
11.0,-257.0,14.0,-56.0,64.0,-3.0,0
11.0,-257.0,15.0,-52.0,64.0,0.0,0
10.0,-255.0,17.0,-50.0,62.0,-1.0,0
8.0,-255.0,16.0,-48.0,64.0,-1.0,0
11.0,-256.0,13.0,-47.0,61.0,-2.0,0
8.0,-258.0,16.0,-43.0,61.0,-2.0,0
6.0,-258.0,19.0,-38.0,62.0,-4.0,0
9.0,-259.0,16.0,-28.0,62.0,-2.0,0
12.0,-259.0,17.0,-18.0,63.0,-4.0,0
7.0,-259.0,16.0,-5.0,63.0,-3.0,0
10.0,-260.0,17.0,9.0,64.0,-4.0,0
8.0,-259.0,18.0,23.0,64.0,-3.0,0
7.0,-259.0,15.0,37.0,64.0,-6.0,0
7.0,-256.0,14.0,49.0,63.0,-5.0,0
8.0,-255.0,16.0,58.0,62.0,-9.0,0
6.0,-257.0,17.0,65.0,57.0,-6.0,0
9.0,-255.0,14.0,68.0,55.0,-7.0,0
5.0,-250.0,14.0,69.0,52.0,-4.0,0
12.0,-251.0,16.0,65.0,49.0,-5.0,0
8.0,-247.0,13.0,60.0,50.0,-1.0,0
9.0,-246.0,13.0,51.0,52.0,-1.0,0
10.0,-249.0,16.0,43.0,49.0,2.0,0
9.0,-248.0,18.0,33.0,49.0,0.0,0
13.0,-246.0,15.0,22.0,50.0,2.0,0
10.0,-246.0,21.0,13.0,50.0,-2.0,0
7.0,-249.0,18.0,5.0,51.0,-1.0,0
13.0,-251.0,17.0,0.0,52.0,-4.0,0
9.0,-250.0,16.0,-2.0,55.0,-3.0,0
6.0,-249.0,19.0,-6.0,57.0,-7.0,0
6.0,-251.0,15.0,-10.0,57.0,-6.0,0
8.0,-253.0,13.0,-16.0,58.0,-7.0,0
6.0,-255.0,20.0,-20.0,57.0,-4.0,0
7.0,-255.0,19.0,-25.0,57.0,-3.0,0
8.0,-253.0,20.0,-27.0,54.0,-2.0,0
7.0,-255.0,18.0,-27.0,53.0,-3.0,0
10.0,-254.0,19.0,-26.0,51.0,0.0,0
8.0,-255.0,14.0,-24.0,47.0,-1.0,0
8.0,-254.0,13.0,-21.0,45.0,1.0,0
10.0,-250.0,13.0,-19.0,43.0,0.0,0
10.0,-253.0,11.0,-17.0,42.0,3.0,0
8.0,-252.0,15.0,-19.0,40.0,2.0,0
9.0,-249.0,13.0,-24.0,40.0,5.0,0
8.0,-251.0,13.0,-28.0,42.0,3.0,0
8.0,-249.0,12.0,-33.0,45.0,3.0,0
6.0,-250.0,17.0,-39.0,50.0,0.0,0
8.0,-248.0,17.0,-41.0,54.0,0.0,0
9.0,-252.0,15.0,-43.0,58.0,-2.0,0
8.0,-253.0,17.0,-43.0,60.0,1.0,0
9.0,-252.0,16.0,-45.0,62.0,-2.0,0
8.0,-252.0,18.0,-48.0,64.0,0.0,0
12.0,-254.0,16.0,-52.0,65.0,-4.0,0
11.0,-255.0,19.0,-53.0,65.0,-3.0,0
8.0,-254.0,19.0,-53.0,65.0,-6.0,0
11.0,-257.0,16.0,-51.0,61.0,-5.0,0
9.0,-259.0,17.0,-49.0,59.0,-6.0,0
9.0,-255.0,15.0,-47.0,54.0,-4.0,0
8.0,-254.0,15.0,-48.0,51.0,-4.0,0
7.0,-255.0,16.0,-45.0,51.0,0.0,0
6.0,-253.0,18.0,-40.0,49.0,-1.0,0
10.0,-256.0,15.0,-34.0,47.0,3.0,0
10.0,-254.0,18.0,-28.0,49.0,2.0,0
7.0,-254.0,15.0,-24.0,49.0,4.0,0
10.0,-255.0,19.0,-23.0,48.0,3.0,0
5.0,-252.0,14.0,-21.0,48.0,6.0,0
11.0,-250.0,14.0,-23.0,49.0,3.0,0
11.0,-254.0,14.0,-23.0,51.0,6.0,0
9.0,-252.0,19.0,-24.0,52.0,2.0,0
9.0,-252.0,13.0,-25.0,52.0,3.0,0
9.0,-254.0,17.0,-26.0,54.0,1.0,0
7.0,-253.0,19.0,-31.0,56.0,2.0,0
10.0,-256.0,16.0,-33.0,57.0,-4.0,0
9.0,-256.0,13.0,-36.0,59.0,-1.0,0
11.0,-255.0,18.0,-35.0,62.0,-5.0,0
11.0,-251.0,17.0,-35.0,61.0,-1.0,0
9.0,-255.0,15.0,-35.0,60.0,-3.0,0
8.0,-257.0,15.0,-32.0,59.0,-2.0,0
8.0,-254.0,15.0,-26.0,56.0,-5.0,0
8.0,-255.0,16.0,-21.0,56.0,-3.0,0
9.0,-255.0,19.0,-16.0,53.0,-5.0,0
9.0,-256.0,14.0,-12.0,54.0,-4.0,0
10.0,-257.0,17.0,-11.0,53.0,-5.0,0
9.0,-253.0,12.0,-9.0,53.0,-2.0,0
9.0,-255.0,16.0,-8.0,54.0,-2.0,0
9.0,-253.0,13.0,-6.0,55.0,1.0,0
10.0,-255.0,12.0,-7.0,56.0,0.0,0
10.0,-256.0,16.0,-7.0,55.0,3.0,0
7.0,-253.0,14.0,-7.0,55.0,1.0,0
13.0,-252.0,14.0,-8.0,54.0,3.0,0
11.0,-253.0,15.0,-10.0,54.0,0.0,0
9.0,-252.0,14.0,-12.0,54.0,2.0,0
9.0,-255.0,15.0,-15.0,54.0,0.0,0
9.0,-254.0,13.0,-15.0,57.0,1.0,0
9.0,-255.0,17.0,-15.0,56.0,-2.0,0
9.0,-255.0,16.0,-15.0,54.0,2.0,0
8.0,-257.0,13.0,-13.0,57.0,0.0,0
10.0,-257.0,18.0,-14.0,58.0,1.0,0
7.0,-254.0,15.0,-11.0,62.0,0.0,0
12.0,-258.0,13.0,-8.0,63.0,2.0,0
6.0,-251.0,17.0,-5.0,63.0,-2.0,0
9.0,-252.0,10.0,-4.0,62.0,-1.0,0
11.0,-255.0,15.0,-4.0,61.0,-4.0,0
10.0,-255.0,14.0,-6.0,59.0,-3.0,0
9.0,-254.0,14.0,-9.0,58.0,-5.0,0
13.0,-251.0,16.0,-10.0,57.0,-3.0,0
9.0,-251.0,13.0,-12.0,57.0,-6.0,0
11.0,-251.0,14.0,-11.0,55.0,-4.0,0
9.0,-253.0,13.0,-13.0,56.0,-6.0,0
7.0,-253.0,16.0,-15.0,55.0,-2.0,0
9.0,-254.0,17.0,-16.0,55.0,-4.0,0
10.0,-254.0,11.0,-19.0,55.0,0.0,0
9.0,-254.0,17.0,-19.0,58.0,-2.0,0
9.0,-253.0,15.0,-21.0,56.0,2.0,0
10.0,-254.0,13.0,-21.0,57.0,0.0,0
10.0,-254.0,22.0,-19.0,57.0,2.0,0
10.0,-252.0,15.0,-19.0,58.0,1.0,0
10.0,-253.0,18.0,-18.0,58.0,4.0,0
13.0,-253.0,18.0,-16.0,57.0,1.0,0
11.0,-256.0,15.0,-17.0,58.0,4.0,0
9.0,-253.0,18.0,-18.0,58.0,0.0,0
10.0,-254.0,17.0,-19.0,59.0,2.0,0
13.0,-255.0,13.0,-19.0,60.0,-2.0,0
9.0,-253.0,13.0,-21.0,61.0,0.0,0
10.0,-254.0,15.0,-23.0,61.0,-4.0,0
10.0,-254.0,15.0,-26.0,62.0,-1.0,0
9.0,-254.0,16.0,-28.0,63.0,-4.0,0
13.0,-252.0,19.0,-28.0,63.0,-1.0,0
7.0,-255.0,12.0,-28.0,64.0,-2.0,0
13.0,-257.0,16.0,-27.0,67.0,0.0,0
12.0,-253.0,14.0,-23.0,66.0,-3.0,0
10.0,-256.0,12.0,-18.0,68.0,-1.0,0
10.0,-256.0,17.0,-12.0,67.0,-3.0,0
7.0,-258.0,12.0,-8.0,65.0,-1.0,0
6.0,-256.0,18.0,-5.0,65.0,-4.0,0
7.0,-255.0,16.0,0.0,65.0,-2.0,0
7.0,-257.0,16.0,5.0,64.0,-5.0,0
9.0,-254.0,13.0,7.0,65.0,-2.0,0
8.0,-256.0,12.0,6.0,63.0,-4.0,0
9.0,-253.0,15.0,4.0,61.0,-1.0,0
5.0,-252.0,16.0,2.0,61.0,-2.0,0
7.0,-253.0,14.0,1.0,61.0,0.0,0
10.0,-254.0,18.0,2.0,61.0,0.0,0
8.0,-253.0,16.0,0.0,60.0,2.0,0
10.0,-251.0,15.0,-2.0,62.0,0.0,0
10.0,-248.0,16.0,-7.0,62.0,2.0,0
7.0,-249.0,12.0,-12.0,61.0,1.0,0
11.0,-252.0,12.0,-17.0,60.0,5.0,0
10.0,-251.0,13.0,-23.0,59.0,1.0,0
9.0,-254.0,18.0,-28.0,58.0,5.0,0
11.0,-250.0,18.0,-30.0,59.0,2.0,0
10.0,-254.0,16.0,-32.0,60.0,4.0,0
7.0,-252.0,15.0,-32.0,58.0,2.0,0
10.0,-254.0,18.0,-31.0,59.0,6.0,0
7.0,-254.0,18.0,-30.0,60.0,5.0,0
11.0,-254.0,19.0,-32.0,61.0,5.0,0
11.0,-254.0,18.0,-33.0,62.0,3.0,0
8.0,-256.0,20.0,-31.0,61.0,6.0,0
10.0,-255.0,19.0,-27.0,62.0,2.0,0
11.0,-254.0,19.0,-23.0,65.0,4.0,0
11.0,-252.0,14.0,-20.0,65.0,0.0,0
11.0,-252.0,13.0,-20.0,64.0,2.0,0
11.0,-251.0,19.0,-20.0,64.0,-2.0,0
8.0,-252.0,13.0,-19.0,62.0,0.0,0
13.0,-253.0,17.0,-19.0,62.0,-1.0,0
12.0,-254.0,16.0,-22.0,64.0,1.0,0
10.0,-253.0,12.0,-23.0,64.0,-2.0,0
8.0,-251.0,13.0,-26.0,64.0,0.0,0
6.0,-256.0,17.0,-29.0,64.0,-1.0,0
6.0,-253.0,14.0,-31.0,65.0,3.0,0
9.0,-255.0,15.0,-32.0,65.0,0.0,0
7.0,-251.0,13.0,-32.0,65.0,4.0,0
8.0,-252.0,14.0,-31.0,63.0,1.0,0
8.0,-252.0,16.0,-27.0,63.0,3.0,0
7.0,-253.0,15.0,-25.0,62.0,-1.0,0
6.0,-254.0,15.0,-23.0,60.0,2.0,0
9.0,-254.0,16.0,-25.0,59.0,-1.0,0
9.0,-256.0,12.0,-25.0,57.0,0.0,0
9.0,-251.0,15.0,-25.0,56.0,-2.0,0
9.0,-253.0,17.0,-25.0,55.0,2.0,0
9.0,-252.0,14.0,-24.0,56.0,0.0,0
8.0,-251.0,13.0,-25.0,58.0,2.0,0
8.0,-254.0,15.0,-25.0,61.0,0.0,0
10.0,-254.0,13.0,-25.0,62.0,2.0,0
8.0,-255.0,17.0,-21.0,65.0,-2.0,0
9.0,-253.0,15.0,-18.0,67.0,1.0,0
10.0,-254.0,17.0,-21.0,66.0,-1.0,0
6.0,-253.0,14.0,-26.0,66.0,0.0,0
8.0,-250.0,11.0,-30.0,63.0,-2.0,0
7.0,-254.0,14.0,-35.0,62.0,-1.0,0
9.0,-257.0,14.0,-38.0,59.0,-3.0,0
7.0,-254.0,11.0,-40.0,54.0,0.0,0
9.0,-257.0,13.0,-40.0,50.0,-1.0,0
5.0,-256.0,12.0,-39.0,47.0,1.0,0
5.0,-258.0,14.0,-35.0,45.0,-2.0,0
7.0,-257.0,12.0,-26.0,45.0,3.0,0
9.0,-256.0,11.0,-20.0,46.0,3.0,0
7.0,-258.0,10.0,-14.0,45.0,6.0,0
9.0,-257.0,10.0,-11.0,47.0,4.0,0
7.0,-254.0,9.0,-8.0,47.0,5.0,0
8.0,-252.0,9.0,-8.0,51.0,1.0,0
7.0,-250.0,12.0,-7.0,54.0,2.0,0
9.0,-252.0,12.0,-8.0,54.0,-1.0,0
8.0,-251.0,15.0,-6.0,53.0,2.0,0
8.0,-252.0,15.0,-3.0,54.0,0.0,0
8.0,-255.0,16.0,-1.0,57.0,2.0,0
8.0,-253.0,16.0,1.0,58.0,-1.0,0
11.0,-254.0,16.0,1.0,57.0,0.0,0
11.0,-256.0,17.0,0.0,57.0,-3.0,0
10.0,-255.0,14.0,-4.0,57.0,1.0,0
8.0,-255.0,15.0,-8.0,56.0,-3.0,0
8.0,-256.0,16.0,-10.0,55.0,0.0,0
7.0,-255.0,14.0,-12.0,55.0,-4.0,0
11.0,-256.0,13.0,-14.0,56.0,0.0,0
8.0,-257.0,13.0,-15.0,54.0,-3.0,0
4.0,-266.0,23.0,-16.0,54.0,-2.0,0
10.0,-257.0,12.0,-15.0,53.0,-6.0,0
10.0,-255.0,17.0,-10.0,52.0,-4.0,0
11.0,-257.0,13.0,-6.0,51.0,-6.0,0
9.0,-253.0,14.0,-2.0,51.0,-3.0,0
7.0,-256.0,15.0,4.0,50.0,-5.0,0
6.0,-254.0,15.0,10.0,49.0,0.0,0
10.0,-255.0,16.0,14.0,49.0,-1.0,0
10.0,-253.0,16.0,15.0,49.0,2.0,0
7.0,-250.0,16.0,17.0,51.0,0.0,0
8.0,-252.0,15.0,16.0,52.0,2.0,0
6.0,-253.0,14.0,15.0,53.0,-1.0,0
10.0,-253.0,16.0,13.0,55.0,1.0,0
9.0,-251.0,15.0,8.0,55.0,-2.0,0
9.0,-250.0,14.0,2.0,55.0,-1.0,0
9.0,-252.0,18.0,-2.0,56.0,-3.0,0
10.0,-252.0,16.0,-4.0,57.0,0.0,0
9.0,-253.0,17.0,-2.0,56.0,-5.0,0
9.0,-253.0,16.0,0.0,56.0,-2.0,0
9.0,-255.0,17.0,2.0,55.0,-5.0,0
8.0,-258.0,17.0,1.0,56.0,-3.0,0
7.0,-254.0,16.0,0.0,55.0,-6.0,0
9.0,-254.0,15.0,1.0,54.0,-4.0,0
8.0,-256.0,15.0,3.0,54.0,-5.0,0
9.0,-257.0,13.0,6.0,54.0,-2.0,0
7.0,-257.0,14.0,6.0,55.0,-4.0,0
10.0,-255.0,18.0,3.0,54.0,-1.0,0
8.0,-254.0,16.0,4.0,54.0,-4.0,0
9.0,-254.0,17.0,6.0,54.0,-2.0,0
7.0,-256.0,10.0,9.0,54.0,-6.0,0
10.0,-254.0,14.0,15.0,54.0,-4.0,0
8.0,-254.0,17.0,17.0,56.0,-7.0,0
10.0,-255.0,13.0,17.0,57.0,-6.0,0
7.0,-254.0,16.0,16.0,58.0,-10.0,0
8.0,-254.0,14.0,13.0,59.0,-6.0,0
9.0,-252.0,15.0,10.0,61.0,-7.0,0
10.0,-254.0,17.0,8.0,61.0,-4.0,0
11.0,-256.0,14.0,10.0,60.0,-6.0,0
7.0,-253.0,11.0,12.0,59.0,-3.0,0
11.0,-255.0,18.0,17.0,58.0,-6.0,0
4.0,-252.0,19.0,20.0,55.0,-3.0,0
10.0,-252.0,21.0,22.0,55.0,-7.0,0
8.0,-254.0,13.0,23.0,53.0,-5.0,0
9.0,-252.0,17.0,22.0,51.0,-8.0,0
7.0,-250.0,18.0,18.0,52.0,-5.0,0
10.0,-251.0,13.0,12.0,49.0,-7.0,0
5.0,-252.0,17.0,9.0,50.0,-6.0,0
10.0,-250.0,17.0,5.0,52.0,-7.0,0
7.0,-254.0,17.0,2.0,54.0,-5.0,0
9.0,-253.0,12.0,-1.0,54.0,-6.0,0
10.0,-250.0,15.0,-4.0,56.0,-3.0,0
7.0,-252.0,16.0,-6.0,57.0,-5.0,0
9.0,-252.0,13.0,-6.0,59.0,-2.0,0
8.0,-252.0,13.0,-6.0,60.0,-2.0,0
8.0,-253.0,15.0,-8.0,58.0,-1.0,0
9.0,-255.0,17.0,-8.0,56.0,-3.0,0
8.0,-254.0,15.0,-7.0,57.0,-1.0,0
9.0,-255.0,20.0,-5.0,57.0,-4.0,0
8.0,-253.0,16.0,-4.0,59.0,-3.0,0
12.0,-256.0,21.0,-2.0,59.0,-5.0,0
9.0,-255.0,18.0,-1.0,59.0,-4.0,0
11.0,-255.0,15.0,2.0,60.0,-7.0,0
9.0,-255.0,14.0,7.0,60.0,-6.0,0
8.0,-255.0,14.0,11.0,59.0,-8.0,0
7.0,-252.0,18.0,14.0,59.0,-7.0,0
8.0,-251.0,18.0,14.0,60.0,-9.0,0
9.0,-251.0,19.0,13.0,60.0,-7.0,0
10.0,-252.0,19.0,11.0,61.0,-7.0,0
8.0,-251.0,21.0,7.0,58.0,-5.0,0
7.0,-250.0,19.0,4.0,56.0,-8.0,0
6.0,-252.0,18.0,2.0,55.0,-4.0,0
9.0,-252.0,18.0,0.0,56.0,-6.0,0
7.0,-252.0,15.0,-2.0,56.0,-2.0,0
9.0,-253.0,18.0,-6.0,56.0,-3.0,0
6.0,-255.0,19.0,-8.0,56.0,0.0,0
9.0,-256.0,18.0,-9.0,56.0,-1.0,0
10.0,-258.0,17.0,-7.0,57.0,0.0,0
6.0,-254.0,14.0,-4.0,58.0,-1.0,0
9.0,-254.0,17.0,-1.0,57.0,0.0,0
9.0,-256.0,17.0,1.0,58.0,-3.0,0
9.0,-254.0,19.0,5.0,57.0,-3.0,0
9.0,-253.0,17.0,7.0,57.0,-7.0,0
7.0,-254.0,20.0,10.0,57.0,-5.0,0
10.0,-253.0,16.0,12.0,56.0,-9.0,0
12.0,-253.0,17.0,12.0,57.0,-7.0,0
11.0,-250.0,18.0,11.0,61.0,-9.0,0
8.0,-250.0,15.0,11.0,60.0,-6.0,0
8.0,-252.0,13.0,8.0,58.0,-6.0,0
10.0,-253.0,14.0,4.0,59.0,-6.0,0
11.0,-253.0,15.0,1.0,60.0,-6.0,0
8.0,-254.0,18.0,-2.0,61.0,-3.0,0
11.0,-254.0,18.0,-5.0,62.0,-5.0,0
7.0,-255.0,19.0,-6.0,61.0,-4.0,0
9.0,-252.0,19.0,-5.0,61.0,-7.0,0
7.0,-255.0,18.0,-5.0,59.0,-4.0,0
8.0,-253.0,18.0,-5.0,59.0,-5.0,0
10.0,-253.0,15.0,-5.0,60.0,-4.0,0
9.0,-253.0,20.0,-7.0,60.0,-5.0,0
10.0,-254.0,19.0,-5.0,59.0,-4.0,0
8.0,-256.0,20.0,-4.0,57.0,-6.0,0
10.0,-255.0,18.0,-5.0,57.0,-5.0,0
8.0,-254.0,16.0,-5.0,55.0,-7.0,0
7.0,-257.0,15.0,-5.0,55.0,-3.0,0
8.0,-253.0,18.0,-5.0,55.0,-6.0,0
8.0,-253.0,16.0,-5.0,54.0,-4.0,0
7.0,-253.0,18.0,-5.0,54.0,-7.0,0
6.0,-255.0,16.0,-7.0,54.0,-7.0,0
9.0,-252.0,20.0,-6.0,55.0,-8.0,0
10.0,-254.0,20.0,-8.0,58.0,-5.0,0
10.0,-256.0,17.0,-7.0,59.0,-7.0,0
11.0,-256.0,14.0,-5.0,61.0,-4.0,0
8.0,-252.0,22.0,-5.0,61.0,-6.0,0
9.0,-254.0,18.0,-1.0,63.0,-3.0,0
7.0,-251.0,16.0,0.0,62.0,-2.0,0
6.0,-255.0,18.0,0.0,63.0,-2.0,0
9.0,-251.0,18.0,-3.0,62.0,-5.0,0
6.0,-253.0,16.0,-4.0,62.0,-5.0,0
11.0,-255.0,16.0,-4.0,61.0,-8.0,0
9.0,-251.0,17.0,-4.0,63.0,-8.0,0
9.0,-252.0,16.0,-5.0,60.0,-10.0,0
8.0,-251.0,17.0,-7.0,59.0,-8.0,0
9.0,-253.0,18.0,-5.0,59.0,-11.0,0
9.0,-254.0,19.0,-4.0,60.0,-10.0,0
8.0,-252.0,19.0,-2.0,60.0,-11.0,0
11.0,-256.0,20.0,-1.0,64.0,-7.0,0
7.0,-256.0,17.0,1.0,65.0,-7.0,0
10.0,-254.0,16.0,3.0,63.0,-3.0,0
11.0,-257.0,18.0,3.0,62.0,-5.0,0
10.0,-256.0,21.0,5.0,60.0,-3.0,0
10.0,-254.0,14.0,10.0,58.0,-3.0,0
7.0,-255.0,20.0,12.0,58.0,-3.0,0
10.0,-256.0,18.0,16.0,56.0,-5.0,0
10.0,-253.0,18.0,17.0,55.0,-5.0,0
13.0,-252.0,14.0,19.0,54.0,-8.0,0
8.0,-251.0,13.0,20.0,52.0,-6.0,0
7.0,-251.0,11.0,17.0,52.0,-8.0,0
12.0,-250.0,16.0,9.0,52.0,-6.0,0
7.0,-251.0,16.0,1.0,54.0,-6.0,0
8.0,-252.0,18.0,-8.0,57.0,-3.0,0
8.0,-248.0,16.0,-15.0,58.0,-5.0,0
8.0,-252.0,17.0,-19.0,57.0,-4.0,0
9.0,-251.0,22.0,-20.0,59.0,-5.0,0
7.0,-253.0,22.0,-16.0,60.0,-4.0,0
7.0,-253.0,22.0,-13.0,61.0,-5.0,0
11.0,-257.0,17.0,-9.0,63.0,-4.0,0
9.0,-254.0,21.0,-7.0,63.0,-6.0,0
10.0,-254.0,19.0,-5.0,62.0,-5.0,0
7.0,-253.0,17.0,-3.0,62.0,-6.0,0
11.0,-254.0,18.0,-2.0,63.0,-5.0,0
7.0,-254.0,18.0,-1.0,63.0,-8.0,0
9.0,-252.0,17.0,-3.0,63.0,-7.0,0
9.0,-254.0,20.0,-3.0,61.0,-9.0,0
9.0,-255.0,21.0,-3.0,60.0,-7.0,0
8.0,-256.0,15.0,-3.0,60.0,-7.0,0
11.0,-251.0,21.0,-1.0,59.0,-7.0,0
9.0,-251.0,15.0,-3.0,60.0,-7.0,0
10.0,-251.0,15.0,-3.0,60.0,-4.0,0
9.0,-252.0,17.0,-1.0,60.0,-6.0,0
13.0,-251.0,19.0,-3.0,60.0,-4.0,0
13.0,-254.0,19.0,-3.0,57.0,-2.0,0
10.0,-252.0,17.0,-3.0,57.0,-1.0,0
10.0,-253.0,17.0,-5.0,57.0,-3.0,0
12.0,-253.0,20.0,-6.0,60.0,-3.0,0
11.0,-253.0,18.0,-7.0,60.0,-5.0,0
8.0,-250.0,16.0,-7.0,58.0,-1.0,0
9.0,-251.0,18.0,-7.0,58.0,-4.0,0
8.0,-252.0,18.0,-7.0,57.0,-2.0,0
8.0,-250.0,19.0,-9.0,57.0,-4.0,0
11.0,-252.0,14.0,-8.0,58.0,-3.0,0
8.0,-255.0,16.0,-9.0,58.0,-4.0,0
10.0,-254.0,21.0,-9.0,59.0,-4.0,0
9.0,-253.0,17.0,-9.0,59.0,-5.0,0
8.0,-251.0,19.0,-8.0,60.0,-4.0,0
9.0,-252.0,21.0,-8.0,61.0,-5.0,0
10.0,-255.0,18.0,-7.0,59.0,-4.0,0
9.0,-255.0,18.0,-6.0,59.0,-6.0,0
9.0,-253.0,18.0,-5.0,58.0,-5.0,0
7.0,-254.0,19.0,-4.0,60.0,-6.0,0
6.0,-251.0,18.0,-5.0,60.0,-4.0,0
12.0,-251.0,18.0,-7.0,62.0,-3.0,0
11.0,-250.0,20.0,-8.0,62.0,-3.0,0
11.0,-253.0,17.0,-13.0,61.0,-4.0,0
10.0,-252.0,17.0,-16.0,59.0,-3.0,0
9.0,-251.0,21.0,-17.0,60.0,-4.0,0
9.0,-253.0,19.0,-16.0,58.0,-4.0,0
9.0,-252.0,21.0,-15.0,57.0,-3.0,0
8.0,-251.0,20.0,-16.0,58.0,-3.0,0
10.0,-255.0,17.0,-15.0,59.0,-3.0,0
8.0,-250.0,18.0,-16.0,59.0,-5.0,0
9.0,-251.0,20.0,-16.0,62.0,-4.0,0
8.0,-251.0,19.0,-14.0,62.0,-1.0,0
7.0,-252.0,19.0,-14.0,61.0,-2.0,0
11.0,-253.0,17.0,-15.0,63.0,-1.0,0
8.0,-252.0,20.0,-16.0,63.0,-3.0,0
10.0,-253.0,22.0,-15.0,64.0,-1.0,0
11.0,-255.0,17.0,-15.0,64.0,-4.0,0
8.0,-253.0,20.0,-14.0,63.0,-4.0,0
9.0,-253.0,18.0,-14.0,62.0,-3.0,0
8.0,-251.0,22.0,-12.0,62.0,-4.0,0
7.0,-252.0,22.0,-14.0,61.0,-4.0,0
7.0,-253.0,21.0,-16.0,61.0,-3.0,0
7.0,-252.0,19.0,-15.0,62.0,-4.0,0
9.0,-250.0,19.0,-15.0,62.0,-2.0,0
11.0,-252.0,20.0,-17.0,63.0,0.0,0
8.0,-253.0,23.0,-19.0,61.0,0.0,0
8.0,-253.0,16.0,-22.0,61.0,-1.0,0
10.0,-254.0,16.0,-24.0,62.0,-1.0,0
9.0,-252.0,22.0,-26.0,60.0,-2.0,0
8.0,-252.0,21.0,-26.0,62.0,-3.0,0
9.0,-253.0,18.0,-24.0,64.0,-3.0,0
11.0,-253.0,17.0,-23.0,63.0,-3.0,0
9.0,-253.0,15.0,-20.0,61.0,-3.0,0
11.0,-252.0,17.0,-18.0,60.0,-2.0,0
10.0,-256.0,17.0,-19.0,61.0,-3.0,0
10.0,-255.0,15.0,-18.0,61.0,-3.0,0
9.0,-254.0,20.0,-18.0,61.0,-4.0,0
8.0,-253.0,16.0,-18.0,63.0,-3.0,0
8.0,-252.0,18.0,-18.0,62.0,-4.0,0
9.0,-255.0,17.0,-17.0,62.0,-5.0,0
8.0,-255.0,16.0,-15.0,61.0,-4.0,0
10.0,-253.0,18.0,-15.0,58.0,-4.0,0
10.0,-253.0,20.0,-13.0,59.0,-4.0,0
7.0,-254.0,20.0,-15.0,60.0,-3.0,0
8.0,-254.0,20.0,-15.0,59.0,-3.0,0
4.0,-252.0,22.0,-14.0,60.0,0.0,0
10.0,-251.0,18.0,-17.0,59.0,-1.0,0
11.0,-254.0,20.0,-20.0,59.0,1.0,0
9.0,-255.0,18.0,-24.0,59.0,0.0,0
9.0,-254.0,19.0,-25.0,62.0,0.0,0
11.0,-251.0,19.0,-24.0,62.0,-2.0,0
11.0,-254.0,17.0,-22.0,63.0,-2.0,0
8.0,-254.0,15.0,-22.0,63.0,-3.0,0
10.0,-252.0,20.0,-22.0,65.0,-4.0,0
11.0,-255.0,22.0,-21.0,63.0,-5.0,0
