ax,ay,az,gx,gy,gz,label
29.0,-242.0,-87.0,-36.0,77.0,-10.0,0
28.0,-242.0,-88.0,-30.0,78.0,-9.0,0
27.0,-240.0,-88.0,-26.0,79.0,-10.0,0
27.0,-242.0,-89.0,-21.0,81.0,-13.0,0
28.0,-240.0,-89.0,-15.0,81.0,-14.0,0
31.0,-230.0,-91.0,-10.0,82.0,-14.0,0
29.0,-238.0,-92.0,-6.0,82.0,-14.0,0
29.0,-240.0,-93.0,-2.0,80.0,-15.0,0
29.0,-240.0,-90.0,3.0,79.0,-15.0,0
29.0,-240.0,-91.0,5.0,78.0,-15.0,0
28.0,-242.0,-91.0,10.0,78.0,-15.0,0
30.0,-240.0,-92.0,10.0,79.0,-12.0,0
30.0,-240.0,-90.0,12.0,76.0,-11.0,0
27.0,-241.0,-90.0,12.0,76.0,-9.0,0
29.0,-237.0,-90.0,13.0,74.0,-9.0,0
30.0,-240.0,-91.0,13.0,71.0,-8.0,0
28.0,-238.0,-94.0,12.0,69.0,-7.0,0
31.0,-239.0,-89.0,7.0,67.0,-6.0,0
31.0,-236.0,-92.0,0.0,66.0,-5.0,0
31.0,-241.0,-90.0,-6.0,66.0,-4.0,0
29.0,-241.0,-88.0,-14.0,65.0,-4.0,0
30.0,-241.0,-88.0,-21.0,65.0,-3.0,0
31.0,-245.0,-90.0,-23.0,64.0,-3.0,0
30.0,-244.0,-72.0,-26.0,65.0,-3.0,0
29.0,-245.0,-94.0,-25.0,68.0,-7.0,0
31.0,-238.0,-76.0,-23.0,68.0,-11.0,0
33.0,-243.0,-97.0,-16.0,70.0,-15.0,0
24.0,-229.0,-84.0,-10.0,71.0,-18.0,0
25.0,-232.0,-93.0,-5.0,72.0,-20.0,0
24.0,-246.0,-85.0,1.0,72.0,-20.0,0
39.0,-243.0,-84.0,3.0,71.0,-20.0,0
26.0,-239.0,-94.0,3.0,71.0,-19.0,0
32.0,-240.0,-80.0,2.0,71.0,-17.0,0
30.0,-237.0,-87.0,0.0,70.0,-16.0,0
28.0,-244.0,-88.0,-6.0,70.0,-15.0,0
27.0,-245.0,-79.0,-12.0,71.0,-13.0,0
34.0,-245.0,-80.0,-19.0,70.0,-14.0,0
28.0,-243.0,-79.0,-28.0,69.0,-17.0,0
31.0,-241.0,-78.0,-33.0,69.0,-20.0,0
20.0,-250.0,-69.0,-39.0,68.0,-25.0,0
28.0,-245.0,-82.0,-45.0,65.0,-32.0,0
31.0,-245.0,-88.0,-49.0,63.0,-40.0,0
30.0,-243.0,-86.0,-55.0,62.0,-49.0,0
31.0,-245.0,-88.0,-62.0,60.0,-60.0,0
30.0,-246.0,-83.0,-68.0,58.0,-70.0,0
30.0,-245.0,-86.0,-76.0,53.0,-78.0,0
29.0,-244.0,-87.0,-84.0,48.0,-86.0,0
27.0,-244.0,-88.0,-91.0,46.0,-96.0,0
28.0,-243.0,-87.0,-96.0,45.0,-100.0,0
30.0,-240.0,-88.0,-97.0,45.0,-103.0,0
27.0,-240.0,-84.0,-94.0,43.0,-103.0,0
25.0,-240.0,-88.0,-89.0,44.0,-102.0,0
28.0,-241.0,-89.0,-85.0,46.0,-100.0,0
23.0,-236.0,-90.0,-81.0,47.0,-97.0,0
22.0,-237.0,-93.0,-75.0,50.0,-94.0,0
23.0,-234.0,-90.0,-70.0,51.0,-88.0,0
25.0,-240.0,-92.0,-62.0,52.0,-81.0,0
23.0,-238.0,-95.0,-55.0,55.0,-74.0,0
25.0,-234.0,-98.0,-51.0,56.0,-65.0,0
24.0,-235.0,-92.0,-44.0,58.0,-60.0,0
22.0,-234.0,-94.0,-44.0,61.0,-54.0,0
22.0,-236.0,-96.0,-42.0,64.0,-52.0,0
21.0,-235.0,-96.0,-39.0,67.0,-51.0,0
20.0,-238.0,-99.0,-38.0,70.0,-55.0,0
17.0,-236.0,-95.0,-38.0,73.0,-60.0,0
17.0,-237.0,-92.0,-38.0,75.0,-65.0,0
17.0,-238.0,-91.0,-37.0,76.0,-71.0,0
14.0,-235.0,-91.0,-41.0,75.0,-76.0,0
15.0,-236.0,-94.0,-43.0,75.0,-83.0,0
18.0,-234.0,-97.0,-47.0,73.0,-91.0,0
16.0,-237.0,-95.0,-54.0,72.0,-95.0,0
17.0,-238.0,-95.0,-57.0,72.0,-100.0,0
19.0,-235.0,-95.0,-58.0,70.0,-103.0,0
18.0,-239.0,-95.0,-58.0,69.0,-107.0,0
21.0,-242.0,-96.0,-56.0,68.0,-110.0,0
22.0,-241.0,-94.0,-55.0,68.0,-111.0,0
23.0,-243.0,-93.0,-54.0,72.0,-113.0,0
27.0,-247.0,-87.0,-54.0,76.0,-114.0,0
25.0,-248.0,-84.0,-54.0,79.0,-118.0,0
30.0,-251.0,-85.0,-54.0,84.0,-123.0,0
34.0,-252.0,-81.0,-55.0,93.0,-133.0,0
32.0,-251.0,-83.0,-54.0,98.0,-145.0,0
32.0,-251.0,-84.0,-52.0,99.0,-158.0,0
33.0,-248.0,-91.0,-50.0,99.0,-176.0,0
36.0,-249.0,-88.0,-46.0,100.0,-196.0,0
33.0,-248.0,-92.0,-38.0,99.0,-215.0,0
34.0,-243.0,-93.0,-32.0,98.0,-235.0,0
35.0,-239.0,-98.0,-29.0,98.0,-251.0,0
32.0,-237.0,-96.0,-27.0,97.0,-265.0,0
32.0,-237.0,-99.0,-27.0,99.0,-272.0,0
35.0,-237.0,-99.0,-29.0,100.0,-278.0,0
35.0,-235.0,-96.0,-34.0,100.0,-280.0,0
35.0,-235.0,-94.0,-36.0,102.0,-278.0,0
31.0,-233.0,-97.0,-39.0,104.0,-276.0,0
33.0,-235.0,-94.0,-41.0,108.0,-271.0,0
35.0,-236.0,-91.0,-42.0,111.0,-268.0,0
33.0,-234.0,-94.0,-44.0,112.0,-261.0,0
30.0,-231.0,-86.0,-45.0,114.0,-255.0,0
30.0,-233.0,-89.0,-48.0,114.0,-247.0,0
32.0,-232.0,-88.0,-50.0,114.0,-241.0,0
32.0,-233.0,-85.0,-52.0,112.0,-236.0,0
31.0,-232.0,-89.0,-52.0,107.0,-233.0,0
30.0,-233.0,-84.0,-52.0,99.0,-232.0,0
29.0,-237.0,-82.0,-52.0,91.0,-239.0,0
29.0,-235.0,-80.0,-55.0,78.0,-248.0,0
26.0,-236.0,-83.0,-61.0,66.0,-260.0,0
25.0,-232.0,-88.0,-73.0,51.0,-273.0,0
23.0,-233.0,-89.0,-94.0,45.0,-285.0,0
18.0,-233.0,-91.0,-118.0,44.0,-293.0,0
16.0,-227.0,-95.0,-144.0,52.0,-294.0,0
15.0,-228.0,-103.0,-172.0,67.0,-292.0,0
17.0,-225.0,-109.0,-199.0,88.0,-289.0,0
20.0,-226.0,-110.0,-225.0,112.0,-287.0,0
17.0,-229.0,-108.0,-248.0,132.0,-283.0,0
16.0,-228.0,-107.0,-274.0,153.0,-281.0,0
15.0,-231.0,-107.0,-294.0,166.0,-284.0,0
16.0,-233.0,-107.0,-316.0,178.0,-287.0,0
17.0,-239.0,-108.0,-343.0,185.0,-295.0,0
20.0,-238.0,-104.0,-379.0,188.0,-306.0,0
29.0,-240.0,-104.0,-414.0,188.0,-320.0,0
32.0,-238.0,-107.0,-441.0,181.0,-329.0,0
39.0,-238.0,-105.0,-462.0,164.0,-330.0,0
42.0,-234.0,-104.0,-471.0,146.0,-319.0,0
40.0,-233.0,-101.0,-468.0,124.0,-300.0,0
41.0,-230.0,-100.0,-461.0,100.0,-270.0,0
43.0,-235.0,-102.0,-457.0,81.0,-246.0,0
47.0,-235.0,-102.0,-457.0,62.0,-226.0,0
48.0,-234.0,-102.0,-460.0,45.0,-216.0,0
49.0,-235.0,-103.0,-467.0,24.0,-211.0,0
52.0,-236.0,-98.0,-479.0,3.0,-209.0,0
55.0,-233.0,-99.0,-490.0,-16.0,-207.0,0
51.0,-233.0,-102.0,-502.0,-38.0,-204.0,0
55.0,-233.0,-95.0,-508.0,-54.0,-199.0,0
55.0,-230.0,-99.0,-507.0,-68.0,-194.0,0
57.0,-231.0,-102.0,-504.0,-76.0,-187.0,0
57.0,-227.0,-105.0,-501.0,-84.0,-179.0,0
59.0,-228.0,-100.0,-497.0,-89.0,-171.0,0
62.0,-223.0,-98.0,-493.0,-92.0,-167.0,0
64.0,-224.0,-102.0,-484.0,-93.0,-158.0,0
64.0,-223.0,-103.0,-470.0,-93.0,-150.0,0
66.0,-227.0,-96.0,-450.0,-89.0,-140.0,0
73.0,-226.0,-104.0,-425.0,-84.0,-129.0,0
73.0,-227.0,-102.0,-393.0,-72.0,-116.0,0
76.0,-225.0,-104.0,-354.0,-58.0,-102.0,0
81.0,-228.0,-103.0,-311.0,-42.0,-87.0,0
76.0,-225.0,-104.0,-261.0,-22.0,-70.0,0
81.0,-226.0,-108.0,-211.0,5.0,-49.0,0
80.0,-225.0,-112.0,-148.0,26.0,-38.0,0
84.0,-226.0,-108.0,-97.0,46.0,-28.0,0
82.0,-224.0,-114.0,-50.0,66.0,-22.0,0
81.0,-226.0,-114.0,-11.0,84.0,-18.0,0
84.0,-222.0,-117.0,19.0,100.0,-17.0,0
82.0,-224.0,-116.0,44.0,115.0,-17.0,0
82.0,-224.0,-115.0,61.0,125.0,-16.0,0
86.0,-223.0,-116.0,72.0,134.0,-16.0,0
84.0,-223.0,-112.0,78.0,139.0,-17.0,0
84.0,-223.0,-112.0,79.0,143.0,-17.0,0
79.0,-220.0,-113.0,77.0,148.0,-17.0,0
83.0,-222.0,-112.0,69.0,151.0,-12.0,0
79.0,-220.0,-113.0,62.0,153.0,-11.0,0
78.0,-219.0,-113.0,57.0,152.0,-6.0,0
78.0,-222.0,-113.0,55.0,152.0,0.0,0
76.0,-220.0,-111.0,58.0,147.0,10.0,0
75.0,-219.0,-113.0,60.0,144.0,18.0,0
69.0,-219.0,-113.0,63.0,140.0,31.0,0
69.0,-216.0,-116.0,63.0,140.0,48.0,0
73.0,-219.0,-115.0,62.0,135.0,54.0,0
70.0,-219.0,-118.0,65.0,134.0,66.0,0
69.0,-223.0,-119.0,70.0,133.0,84.0,0
66.0,-221.0,-117.0,81.0,130.0,94.0,0
66.0,-223.0,-118.0,90.0,125.0,101.0,0
65.0,-219.0,-117.0,96.0,123.0,105.0,0
59.0,-223.0,-116.0,98.0,121.0,109.0,0
59.0,-223.0,-116.0,95.0,119.0,106.0,0
57.0,-221.0,-112.0,86.0,118.0,102.0,0
55.0,-225.0,-113.0,71.0,116.0,93.0,0
53.0,-226.0,-112.0,51.0,114.0,85.0,0
52.0,-228.0,-110.0,28.0,115.0,74.0,0
49.0,-226.0,-110.0,6.0,112.0,66.0,0
51.0,-227.0,-110.0,-11.0,108.0,55.0,0
47.0,-229.0,-107.0,-26.0,105.0,49.0,0
48.0,-226.0,-107.0,-29.0,103.0,44.0,0
48.0,-230.0,-109.0,-27.0,100.0,46.0,0
47.0,-229.0,-110.0,-20.0,96.0,45.0,0
48.0,-226.0,-110.0,-13.0,92.0,48.0,0
48.0,-225.0,-103.0,0.0,88.0,53.0,0
48.0,-227.0,-106.0,10.0,85.0,62.0,0
51.0,-227.0,-104.0,19.0,79.0,70.0,0
51.0,-225.0,-109.0,29.0,74.0,80.0,0
52.0,-226.0,-106.0,34.0,69.0,91.0,0
50.0,-226.0,-112.0,38.0,65.0,106.0,0
51.0,-226.0,-111.0,36.0,60.0,118.0,0
53.0,-225.0,-108.0,34.0,57.0,132.0,0
53.0,-225.0,-108.0,29.0,55.0,141.0,0
54.0,-225.0,-114.0,24.0,53.0,150.0,0
51.0,-226.0,-110.0,16.0,49.0,159.0,0
51.0,-225.0,-110.0,5.0,47.0,167.0,0
50.0,-226.0,-109.0,-3.0,44.0,172.0,0
50.0,-228.0,-110.0,-14.0,40.0,174.0,0
50.0,-226.0,-107.0,-24.0,39.0,174.0,0
48.0,-227.0,-106.0,-32.0,36.0,175.0,0
46.0,-229.0,-103.0,-39.0,35.0,173.0,0
46.0,-228.0,-106.0,-41.0,35.0,173.0,0
45.0,-227.0,-108.0,-46.0,35.0,169.0,0
47.0,-227.0,-111.0,-49.0,34.0,167.0,0
45.0,-226.0,-104.0,-50.0,31.0,163.0,0
45.0,-228.0,-108.0,-46.0,30.0,162.0,0
45.0,-232.0,-110.0,-41.0,28.0,156.0,0
44.0,-230.0,-107.0,-33.0,25.0,155.0,0
43.0,-230.0,-110.0,-23.0,24.0,153.0,0
43.0,-230.0,-108.0,-13.0,24.0,152.0,0
40.0,-230.0,-106.0,-2.0,23.0,150.0,0
40.0,-231.0,-105.0,13.0,22.0,152.0,0
39.0,-235.0,-107.0,23.0,20.0,151.0,0
38.0,-235.0,-106.0,31.0,22.0,155.0,0
38.0,-234.0,-108.0,36.0,23.0,157.0,0
40.0,-233.0,-111.0,37.0,21.0,161.0,0
38.0,-234.0,-114.0,35.0,21.0,164.0,0
41.0,-232.0,-113.0,32.0,19.0,168.0,0
37.0,-232.0,-111.0,31.0,20.0,169.0,0
36.0,-230.0,-113.0,31.0,17.0,172.0,0
41.0,-232.0,-110.0,31.0,18.0,176.0,0
38.0,-231.0,-110.0,33.0,19.0,179.0,0
41.0,-232.0,-112.0,30.0,17.0,178.0,0
41.0,-231.0,-109.0,27.0,16.0,181.0,0
38.0,-232.0,-109.0,26.0,16.0,180.0,0
38.0,-230.0,-108.0,20.0,15.0,181.0,0
38.0,-230.0,-104.0,15.0,14.0,179.0,0
38.0,-232.0,-109.0,9.0,12.0,180.0,0
39.0,-230.0,-105.0,5.0,12.0,178.0,0
39.0,-231.0,-105.0,2.0,13.0,177.0,0
40.0,-231.0,-105.0,-1.0,14.0,175.0,0
40.0,-230.0,-104.0,-3.0,14.0,175.0,0
36.0,-228.0,-106.0,-1.0,16.0,172.0,0
41.0,-232.0,-106.0,2.0,20.0,172.0,0
36.0,-229.0,-110.0,7.0,20.0,172.0,0
39.0,-231.0,-107.0,10.0,21.0,174.0,0
38.0,-229.0,-107.0,12.0,24.0,173.0,0
40.0,-228.0,-112.0,14.0,26.0,176.0,0
40.0,-230.0,-110.0,12.0,27.0,177.0,0
38.0,-229.0,-110.0,10.0,28.0,180.0,0
38.0,-231.0,-107.0,7.0,28.0,181.0,0
40.0,-231.0,-107.0,4.0,29.0,182.0,0
38.0,-230.0,-107.0,1.0,27.0,183.0,0
38.0,-230.0,-109.0,-3.0,28.0,184.0,0
39.0,-230.0,-110.0,-6.0,29.0,183.0,0
39.0,-230.0,-110.0,-6.0,30.0,182.0,0
38.0,-234.0,-109.0,-7.0,29.0,179.0,0
40.0,-231.0,-111.0,-6.0,31.0,177.0,0
36.0,-231.0,-112.0,-6.0,31.0,172.0,0
35.0,-232.0,-111.0,-3.0,31.0,171.0,0
34.0,-234.0,-113.0,2.0,34.0,167.0,0
35.0,-233.0,-109.0,6.0,36.0,165.0,0
34.0,-232.0,-110.0,9.0,38.0,158.0,0
32.0,-235.0,-111.0,13.0,42.0,154.0,0
33.0,-232.0,-110.0,15.0,45.0,149.0,0
32.0,-232.0,-108.0,15.0,46.0,148.0,0
29.0,-232.0,-107.0,16.0,47.0,144.0,0
29.0,-231.0,-110.0,14.0,45.0,144.0,0
29.0,-233.0,-113.0,9.0,43.0,141.0,0
28.0,-235.0,-109.0,6.0,40.0,141.0,0
30.0,-234.0,-109.0,-2.0,38.0,138.0,0
23.0,-234.0,-107.0,-8.0,37.0,139.0,0
24.0,-231.0,-109.0,-14.0,35.0,136.0,0
24.0,-233.0,-109.0,-16.0,32.0,137.0,0
28.0,-232.0,-113.0,-19.0,29.0,135.0,0
26.0,-233.0,-110.0,-19.0,28.0,136.0,0
24.0,-236.0,-107.0,-21.0,26.0,132.0,0
23.0,-231.0,-113.0,-21.0,25.0,132.0,0
24.0,-234.0,-109.0,-23.0,26.0,128.0,0
22.0,-237.0,-110.0,-23.0,27.0,127.0,0
26.0,-234.0,-109.0,-22.0,30.0,122.0,0
24.0,-234.0,-107.0,-20.0,31.0,120.0,0
24.0,-237.0,-114.0,-18.0,35.0,115.0,0
24.0,-235.0,-110.0,-12.0,40.0,113.0,0
25.0,-236.0,-112.0,-5.0,42.0,108.0,0
25.0,-236.0,-113.0,1.0,44.0,106.0,0
24.0,-234.0,-111.0,5.0,43.0,101.0,0
26.0,-231.0,-109.0,7.0,44.0,101.0,0
27.0,-234.0,-110.0,8.0,46.0,97.0,0
25.0,-234.0,-108.0,8.0,46.0,99.0,0
26.0,-233.0,-107.0,7.0,45.0,96.0,0
28.0,-233.0,-109.0,8.0,45.0,96.0,0
25.0,-232.0,-108.0,5.0,45.0,95.0,0
24.0,-229.0,-109.0,5.0,43.0,96.0,0
28.0,-233.0,-107.0,5.0,43.0,94.0,0
27.0,-231.0,-109.0,3.0,43.0,95.0,0
27.0,-231.0,-104.0,0.0,42.0,90.0,0
29.0,-232.0,-107.0,-3.0,43.0,92.0,0
32.0,-231.0,-108.0,-9.0,41.0,88.0,0
26.0,-230.0,-110.0,-15.0,41.0,87.0,0
28.0,-228.0,-109.0,-24.0,41.0,84.0,0
24.0,-229.0,-108.0,-32.0,41.0,86.0,0
28.0,-229.0,-108.0,-42.0,39.0,83.0,0
28.0,-231.0,-111.0,-50.0,40.0,82.0,0
25.0,-229.0,-108.0,-56.0,41.0,81.0,0
26.0,-230.0,-108.0,-64.0,40.0,80.0,0
27.0,-228.0,-111.0,-70.0,39.0,76.0,0
24.0,-229.0,-109.0,-74.0,40.0,78.0,0
27.0,-231.0,-107.0,-77.0,36.0,73.0,0
25.0,-233.0,-110.0,-78.0,36.0,74.0,0
25.0,-229.0,-107.0,-75.0,33.0,70.0,0
25.0,-234.0,-108.0,-73.0,33.0,69.0,0
25.0,-235.0,-110.0,-70.0,32.0,65.0,0
27.0,-234.0,-111.0,-69.0,30.0,65.0,0
27.0,-231.0,-106.0,-71.0,30.0,60.0,0
26.0,-232.0,-107.0,-72.0,31.0,58.0,0
27.0,-233.0,-111.0,-73.0,28.0,52.0,0
27.0,-233.0,-112.0,-74.0,27.0,52.0,0
26.0,-233.0,-109.0,-73.0,25.0,46.0,0
27.0,-233.0,-112.0,-73.0,24.0,47.0,0
27.0,-233.0,-107.0,-70.0,21.0,44.0,0
22.0,-230.0,-110.0,-67.0,18.0,45.0,0
26.0,-234.0,-113.0,-65.0,18.0,44.0,0
23.0,-231.0,-110.0,-61.0,16.0,44.0,0
22.0,-233.0,-113.0,-60.0,16.0,43.0,0
24.0,-231.0,-109.0,-59.0,14.0,44.0,0
24.0,-231.0,-110.0,-59.0,13.0,42.0,0
26.0,-232.0,-112.0,-60.0,14.0,45.0,0
22.0,-231.0,-114.0,-59.0,13.0,41.0,0
24.0,-233.0,-109.0,-59.0,14.0,44.0,0
23.0,-231.0,-111.0,-60.0,15.0,41.0,0
19.0,-233.0,-112.0,-60.0,16.0,41.0,0
23.0,-233.0,-113.0,-59.0,18.0,38.0,0
23.0,-233.0,-113.0,-57.0,18.0,38.0,0
22.0,-233.0,-109.0,-54.0,17.0,34.0,0
24.0,-230.0,-110.0,-50.0,20.0,34.0,0
22.0,-231.0,-114.0,-47.0,21.0,32.0,0
21.0,-232.0,-110.0,-42.0,22.0,32.0,0
24.0,-232.0,-115.0,-37.0,23.0,29.0,0
22.0,-231.0,-114.0,-33.0,26.0,31.0,0
24.0,-233.0,-112.0,-33.0,26.0,29.0,0
22.0,-230.0,-111.0,-34.0,27.0,31.0,0
23.0,-229.0,-113.0,-37.0,27.0,31.0,0
22.0,-231.0,-111.0,-40.0,28.0,35.0,0
23.0,-231.0,-115.0,-42.0,27.0,34.0,0
23.0,-228.0,-110.0,-47.0,28.0,37.0,0
22.0,-230.0,-115.0,-50.0,27.0,38.0,0
23.0,-230.0,-113.0,-53.0,30.0,40.0,0
25.0,-233.0,-108.0,-54.0,32.0,38.0,0
22.0,-230.0,-110.0,-53.0,34.0,41.0,0
25.0,-232.0,-113.0,-50.0,36.0,38.0,0
22.0,-235.0,-109.0,-46.0,38.0,39.0,0
23.0,-232.0,-108.0,-42.0,37.0,37.0,0
24.0,-234.0,-109.0,-39.0,42.0,37.0,0
23.0,-236.0,-113.0,-40.0,43.0,34.0,0
19.0,-235.0,-114.0,-34.0,42.0,37.0,0
20.0,-233.0,-111.0,-31.0,42.0,32.0,0
21.0,-233.0,-110.0,-29.0,43.0,34.0,0
18.0,-234.0,-112.0,-23.0,43.0,34.0,0
18.0,-230.0,-111.0,-17.0,42.0,36.0,0
20.0,-231.0,-113.0,-11.0,43.0,36.0,0
20.0,-229.0,-115.0,-7.0,41.0,40.0,0
20.0,-232.0,-112.0,-6.0,42.0,41.0,0
20.0,-231.0,-114.0,-6.0,40.0,46.0,0
22.0,-231.0,-111.0,-11.0,41.0,47.0,0
21.0,-232.0,-115.0,-15.0,39.0,49.0,0
22.0,-232.0,-113.0,-21.0,38.0,45.0,0
23.0,-230.0,-111.0,-25.0,35.0,45.0,0
22.0,-232.0,-110.0,-27.0,36.0,40.0,0
23.0,-232.0,-115.0,-28.0,36.0,40.0,0
21.0,-231.0,-110.0,-28.0,36.0,35.0,0
24.0,-233.0,-113.0,-28.0,39.0,35.0,0
20.0,-230.0,-111.0,-24.0,41.0,27.0,0
23.0,-231.0,-113.0,-22.0,42.0,28.0,0
21.0,-229.0,-112.0,-20.0,46.0,24.0,0
23.0,-230.0,-110.0,-18.0,47.0,26.0,0
24.0,-231.0,-107.0,-16.0,46.0,21.0,0
26.0,-232.0,-110.0,-14.0,46.0,23.0,0
24.0,-233.0,-113.0,-15.0,46.0,21.0,0
25.0,-229.0,-113.0,-16.0,44.0,24.0,0
24.0,-229.0,-112.0,-19.0,44.0,23.0,0
26.0,-231.0,-113.0,-24.0,43.0,27.0,0
26.0,-230.0,-114.0,-27.0,44.0,26.0,0
25.0,-229.0,-114.0,-29.0,44.0,29.0,0
23.0,-233.0,-115.0,-34.0,45.0,27.0,0
22.0,-229.0,-112.0,-37.0,44.0,29.0,0
23.0,-233.0,-113.0,-40.0,45.0,27.0,0
22.0,-231.0,-114.0,-41.0,46.0,28.0,0
23.0,-231.0,-118.0,-41.0,47.0,24.0,0
21.0,-234.0,-116.0,-42.0,48.0,26.0,0
23.0,-234.0,-113.0,-41.0,50.0,19.0,0
19.0,-227.0,-122.0,-37.0,51.0,21.0,0
21.0,-232.0,-114.0,-34.0,53.0,18.0,0
19.0,-233.0,-115.0,-30.0,55.0,20.0,0
22.0,-234.0,-115.0,-27.0,55.0,16.0,0
21.0,-232.0,-116.0,-23.0,55.0,18.0,0
19.0,-232.0,-114.0,-20.0,57.0,14.0,0
21.0,-231.0,-118.0,-16.0,57.0,15.0,0
18.0,-231.0,-113.0,-13.0,58.0,10.0,0
18.0,-233.0,-118.0,-11.0,57.0,12.0,0
17.0,-232.0,-115.0,-10.0,58.0,9.0,0
15.0,-234.0,-114.0,-10.0,57.0,8.0,0
18.0,-231.0,-116.0,-12.0,55.0,5.0,0
18.0,-234.0,-110.0,-11.0,55.0,8.0,0
17.0,-231.0,-111.0,-13.0,53.0,6.0,0
18.0,-231.0,-113.0,-14.0,53.0,10.0,0
16.0,-231.0,-112.0,-13.0,52.0,9.0,0
17.0,-233.0,-111.0,-13.0,51.0,12.0,0
14.0,-231.0,-113.0,-13.0,52.0,11.0,0
15.0,-230.0,-113.0,-15.0,52.0,15.0,0
17.0,-233.0,-115.0,-15.0,50.0,16.0,0
14.0,-230.0,-110.0,-16.0,49.0,17.0,0
17.0,-233.0,-112.0,-18.0,50.0,16.0,0
15.0,-231.0,-112.0,-20.0,51.0,19.0,0
16.0,-232.0,-113.0,-26.0,49.0,14.0,0
16.0,-233.0,-114.0,-30.0,49.0,14.0,0
17.0,-231.0,-113.0,-34.0,50.0,10.0,0
18.0,-231.0,-113.0,-35.0,52.0,11.0,0
17.0,-228.0,-114.0,-37.0,51.0,5.0,0
17.0,-230.0,-116.0,-38.0,52.0,4.0,0
18.0,-233.0,-112.0,-36.0,55.0,0.0,0
17.0,-231.0,-108.0,-36.0,57.0,0.0,0
18.0,-230.0,-114.0,-36.0,56.0,-3.0,0
20.0,-229.0,-113.0,-36.0,57.0,-2.0,0
18.0,-231.0,-114.0,-38.0,59.0,-4.0,0
19.0,-230.0,-116.0,-42.0,60.0,-1.0,0
20.0,-232.0,-115.0,-46.0,60.0,-4.0,0
18.0,-231.0,-111.0,-52.0,59.0,-1.0,0
18.0,-229.0,-113.0,-56.0,60.0,-5.0,0
19.0,-233.0,-110.0,-57.0,59.0,-2.0,0
18.0,-231.0,-113.0,-59.0,56.0,-3.0,0
23.0,-233.0,-113.0,-60.0,56.0,1.0,0
19.0,-232.0,-113.0,-59.0,56.0,0.0,0
20.0,-229.0,-113.0,-55.0,56.0,3.0,0
19.0,-229.0,-114.0,-53.0,55.0,1.0,0
17.0,-230.0,-115.0,-49.0,54.0,3.0,0
17.0,-229.0,-113.0,-46.0,56.0,1.0,0
22.0,-233.0,-110.0,-42.0,57.0,3.0,0
23.0,-231.0,-115.0,-37.0,56.0,3.0,0
18.0,-233.0,-117.0,-34.0,58.0,6.0,0
24.0,-228.0,-115.0,-33.0,57.0,4.0,0
22.0,-231.0,-113.0,-35.0,58.0,6.0,0
17.0,-230.0,-112.0,-38.0,57.0,4.0,0
19.0,-230.0,-116.0,-40.0,57.0,7.0,0
19.0,-229.0,-116.0,-43.0,59.0,3.0,0
19.0,-229.0,-115.0,-47.0,59.0,5.0,0
21.0,-233.0,-113.0,-50.0,60.0,2.0,0
20.0,-231.0,-119.0,-53.0,61.0,3.0,0
19.0,-230.0,-116.0,-54.0,61.0,-1.0,0
21.0,-230.0,-114.0,-54.0,62.0,-1.0,0
18.0,-232.0,-115.0,-54.0,62.0,-4.0,0
19.0,-231.0,-115.0,-53.0,63.0,-4.0,0
22.0,-232.0,-114.0,-50.0,61.0,-4.0,0
21.0,-231.0,-115.0,-47.0,59.0,-1.0,0
20.0,-232.0,-118.0,-44.0,58.0,-3.0,0
22.0,-229.0,-116.0,-41.0,57.0,1.0,0
21.0,-233.0,-115.0,-39.0,56.0,-1.0,0
21.0,-229.0,-116.0,-38.0,59.0,4.0,0
20.0,-231.0,-115.0,-36.0,59.0,1.0,0
19.0,-228.0,-114.0,-36.0,61.0,5.0,0
21.0,-230.0,-116.0,-36.0,63.0,1.0,0
20.0,-229.0,-115.0,-37.0,63.0,4.0,0
19.0,-230.0,-115.0,-39.0,65.0,2.0,0
18.0,-232.0,-117.0,-40.0,68.0,4.0,0
22.0,-233.0,-115.0,-40.0,72.0,1.0,0
19.0,-230.0,-117.0,-42.0,73.0,2.0,0
18.0,-232.0,-115.0,-41.0,75.0,-1.0,0
20.0,-232.0,-117.0,-41.0,76.0,1.0,0
17.0,-231.0,-114.0,-41.0,78.0,-1.0,0
17.0,-230.0,-114.0,-40.0,76.0,1.0,0
21.0,-233.0,-114.0,-41.0,77.0,0.0,0
20.0,-231.0,-115.0,-42.0,80.0,3.0,0
17.0,-229.0,-116.0,-45.0,79.0,1.0,0
20.0,-230.0,-116.0,-48.0,80.0,3.0,0
18.0,-229.0,-115.0,-49.0,81.0,1.0,0
19.0,-230.0,-115.0,-49.0,81.0,4.0,0
19.0,-228.0,-115.0,-50.0,77.0,0.0,0
18.0,-230.0,-115.0,-47.0,76.0,4.0,0
18.0,-230.0,-110.0,-43.0,74.0,3.0,0
21.0,-232.0,-109.0,-36.0,73.0,5.0,0
21.0,-230.0,-113.0,-28.0,74.0,6.0,0
22.0,-234.0,-113.0,-19.0,75.0,11.0,0
20.0,-229.0,-110.0,-13.0,77.0,11.0,0
24.0,-233.0,-111.0,-4.0,79.0,16.0,0
25.0,-231.0,-110.0,2.0,82.0,13.0,0
27.0,-230.0,-111.0,9.0,84.0,11.0,0
27.0,-232.0,-113.0,14.0,85.0,1.0,0
27.0,-227.0,-115.0,18.0,86.0,-4.0,0
26.0,-228.0,-113.0,20.0,82.0,-16.0,0
24.0,-228.0,-118.0,19.0,81.0,-21.0,0
25.0,-231.0,-117.0,18.0,78.0,-32.0,0
23.0,-231.0,-119.0,14.0,76.0,-35.0,0
18.0,-229.0,-118.0,13.0,76.0,-43.0,0
19.0,-229.0,-116.0,13.0,80.0,-44.0,0
19.0,-231.0,-115.0,17.0,84.0,-50.0,0
18.0,-229.0,-114.0,19.0,88.0,-48.0,0
21.0,-231.0,-114.0,20.0,93.0,-49.0,0
19.0,-229.0,-114.0,21.0,101.0,-43.0,0
17.0,-230.0,-114.0,18.0,105.0,-39.0,0
20.0,-232.0,-110.0,14.0,108.0,-33.0,0
22.0,-235.0,-108.0,12.0,113.0,-31.0,0
20.0,-238.0,-109.0,13.0,115.0,-27.0,0
23.0,-240.0,-108.0,16.0,119.0,-29.0,0
23.0,-239.0,-107.0,20.0,122.0,-30.0,0
26.0,-239.0,-109.0,27.0,124.0,-38.0,0
27.0,-240.0,-107.0,37.0,122.0,-45.0,0
24.0,-238.0,-109.0,48.0,123.0,-54.0,0
24.0,-240.0,-105.0,59.0,125.0,-61.0,0
23.0,-238.0,-107.0,70.0,124.0,-71.0,0
27.0,-241.0,-107.0,76.0,123.0,-80.0,0
29.0,-240.0,-104.0,77.0,119.0,-93.0,0
32.0,-240.0,-101.0,75.0,111.0,-103.0,0
35.0,-237.0,-103.0,75.0,104.0,-115.0,0
33.0,-237.0,-108.0,73.0,90.0,-122.0,0
37.0,-239.0,-108.0,72.0,76.0,-131.0,0
35.0,-237.0,-110.0,71.0,63.0,-132.0,0
35.0,-234.0,-113.0,72.0,52.0,-141.0,0
33.0,-233.0,-114.0,76.0,46.0,-143.0,0
35.0,-233.0,-113.0,77.0,44.0,-150.0,0
35.0,-233.0,-116.0,78.0,50.0,-153.0,0
34.0,-233.0,-120.0,75.0,59.0,-157.0,0
35.0,-230.0,-121.0,66.0,71.0,-158.0,0
36.0,-230.0,-119.0,57.0,85.0,-163.0,0
34.0,-231.0,-118.0,47.0,99.0,-163.0,0
31.0,-231.0,-116.0,41.0,115.0,-171.0,0
28.0,-231.0,-116.0,36.0,132.0,-172.0,0
29.0,-231.0,-115.0,33.0,147.0,-178.0,0
29.0,-235.0,-114.0,31.0,163.0,-180.0,0
26.0,-232.0,-120.0,30.0,177.0,-187.0,0
28.0,-232.0,-111.0,28.0,192.0,-187.0,0
28.0,-233.0,-111.0,26.0,205.0,-190.0,0
25.0,-230.0,-113.0,23.0,217.0,-189.0,0
24.0,-229.0,-116.0,24.0,223.0,-191.0,0
23.0,-225.0,-111.0,23.0,227.0,-191.0,0
22.0,-223.0,-114.0,21.0,231.0,-195.0,0
24.0,-226.0,-114.0,15.0,234.0,-197.0,0
23.0,-223.0,-120.0,11.0,233.0,-203.0,0
23.0,-225.0,-117.0,8.0,232.0,-207.0,0
23.0,-225.0,-114.0,5.0,231.0,-216.0,0
22.0,-224.0,-118.0,-2.0,232.0,-224.0,0
22.0,-224.0,-126.0,-13.0,233.0,-235.0,0
23.0,-226.0,-124.0,-25.0,239.0,-245.0,0
21.0,-223.0,-122.0,-41.0,244.0,-262.0,0
18.0,-222.0,-122.0,-57.0,252.0,-274.0,0
19.0,-224.0,-124.0,-74.0,261.0,-292.0,0
16.0,-225.0,-123.0,-89.0,269.0,-307.0,0
16.0,-227.0,-123.0,-101.0,279.0,-329.0,0
14.0,-227.0,-123.0,-110.0,287.0,-342.0,0
13.0,-223.0,-126.0,-119.0,296.0,-362.0,0
11.0,-227.0,-122.0,-124.0,301.0,-378.0,0
9.0,-230.0,-124.0,-128.0,306.0,-399.0,0
11.0,-230.0,-121.0,-133.0,308.0,-412.0,0
8.0,-230.0,-118.0,-141.0,308.0,-427.0,0
8.0,-231.0,-119.0,-153.0,303.0,-439.0,0
7.0,-231.0,-117.0,-164.0,298.0,-455.0,0
9.0,-233.0,-120.0,-174.0,293.0,-467.0,0
9.0,-229.0,-118.0,-186.0,288.0,-482.0,0
11.0,-234.0,-122.0,-199.0,283.0,-489.0,0
15.0,-234.0,-120.0,-209.0,276.0,-501.0,0
14.0,-235.0,-120.0,-217.0,268.0,-508.0,0
15.0,-237.0,-120.0,-227.0,262.0,-524.0,0
16.0,-235.0,-117.0,-232.0,251.0,-532.0,0
15.0,-237.0,-115.0,-234.0,242.0,-544.0,0
19.0,-239.0,-115.0,-232.0,232.0,-553.0,0
23.0,-238.0,-118.0,-231.0,223.0,-561.0,0
24.0,-241.0,-114.0,-225.0,216.0,-565.0,0
21.0,-239.0,-114.0,-217.0,209.0,-572.0,0
20.0,-237.0,-117.0,-209.0,206.0,-573.0,0
21.0,-235.0,-119.0,-199.0,206.0,-580.0,0
22.0,-234.0,-116.0,-184.0,204.0,-586.0,0
26.0,-232.0,-116.0,-164.0,207.0,-595.0,0
26.0,-227.0,-115.0,-146.0,218.0,-600.0,0
25.0,-223.0,-114.0,-134.0,228.0,-606.0,0
25.0,-225.0,-111.0,-135.0,236.0,-610.0,0
26.0,-225.0,-114.0,-143.0,241.0,-620.0,0
29.0,-223.0,-111.0,-155.0,244.0,-627.0,0
31.0,-225.0,-112.0,-176.0,245.0,-640.0,0
30.0,-222.0,-113.0,-201.0,245.0,-652.0,0
32.0,-224.0,-112.0,-231.0,244.0,-670.0,0
29.0,-224.0,-114.0,-265.0,243.0,-686.0,0
30.0,-223.0,-114.0,-300.0,240.0,-704.0,0
32.0,-221.0,-112.0,-333.0,237.0,-713.0,0
31.0,-223.0,-115.0,-362.0,238.0,-723.0,0
29.0,-224.0,-120.0,-401.0,233.0,-726.0,0
34.0,-226.0,-121.0,-435.0,228.0,-727.0,0
37.0,-229.0,-123.0,-468.0,224.0,-722.0,0
41.0,-231.0,-124.0,-496.0,223.0,-719.0,0
46.0,-234.0,-121.0,-517.0,221.0,-709.0,0
48.0,-234.0,-124.0,-532.0,218.0,-703.0,0
47.0,-236.0,-123.0,-538.0,215.0,-693.0,0
49.0,-236.0,-124.0,-537.0,216.0,-688.0,0
53.0,-239.0,-125.0,-527.0,216.0,-676.0,0
54.0,-238.0,-123.0,-511.0,219.0,-662.0,0
59.0,-241.0,-124.0,-487.0,228.0,-650.0,0
60.0,-243.0,-125.0,-459.0,239.0,-640.0,0
61.0,-236.0,-127.0,-420.0,250.0,-629.0,0
69.0,-231.0,-131.0,-380.0,261.0,-622.0,0
74.0,-230.0,-138.0,-335.0,277.0,-617.0,0
79.0,-226.0,-135.0,-289.0,291.0,-620.0,0
81.0,-222.0,-135.0,-242.0,301.0,-623.0,0
83.0,-222.0,-132.0,-205.0,310.0,-634.0,0
86.0,-220.0,-132.0,-176.0,319.0,-645.0,0
87.0,-215.0,-131.0,-159.0,324.0,-666.0,0
83.0,-214.0,-135.0,-146.0,331.0,-687.0,0
91.0,-212.0,-132.0,-136.0,342.0,-710.0,0
91.0,-209.0,-126.0,-130.0,358.0,-730.0,0
93.0,-206.0,-131.0,-121.0,374.0,-748.0,0
93.0,-206.0,-131.0,-108.0,386.0,-762.0,0
90.0,-202.0,-135.0,-96.0,394.0,-782.0,0
92.0,-204.0,-138.0,-90.0,400.0,-802.0,0
89.0,-202.0,-136.0,-91.0,403.0,-828.0,0
90.0,-203.0,-134.0,-102.0,409.0,-852.0,0
92.0,-206.0,-130.0,-116.0,415.0,-882.0,0
88.0,-207.0,-130.0,-127.0,423.0,-907.0,0
95.0,-210.0,-127.0,-130.0,427.0,-942.0,0
95.0,-208.0,-123.0,-127.0,428.0,-967.0,0
99.0,-208.0,-123.0,-119.0,426.0,-993.0,0
107.0,-203.0,-121.0,-112.0,423.0,-1010.0,0
107.0,-198.0,-125.0,-113.0,425.0,-1025.0,0
111.0,-196.0,-125.0,-112.0,427.0,-1032.0,0
115.0,-196.0,-128.0,-107.0,430.0,-1039.0,0
122.0,-193.0,-127.0,-102.0,438.0,-1038.0,0
123.0,-187.0,-129.0,-93.0,444.0,-1034.0,0
124.0,-185.0,-130.0,-84.0,447.0,-1027.0,0
128.0,-187.0,-131.0,-72.0,448.0,-1025.0,0
132.0,-180.0,-134.0,-64.0,453.0,-1021.0,0
129.0,-184.0,-129.0,-66.0,457.0,-1015.0,0
129.0,-182.0,-129.0,-68.0,459.0,-1008.0,0
132.0,-182.0,-129.0,-73.0,463.0,-1000.0,0
131.0,-184.0,-127.0,-78.0,466.0,-992.0,0
132.0,-184.0,-128.0,-80.0,465.0,-992.0,0
133.0,-182.0,-123.0,-81.0,465.0,-986.0,0
130.0,-181.0,-124.0,-82.0,464.0,-982.0,0
130.0,-179.0,-121.0,-79.0,462.0,-979.0,0
131.0,-177.0,-120.0,-73.0,464.0,-977.0,0
133.0,-172.0,-123.0,-67.0,469.0,-967.0,0
134.0,-172.0,-119.0,-57.0,480.0,-962.0,0
135.0,-168.0,-119.0,-55.0,494.0,-957.0,0
143.0,-166.0,-120.0,-56.0,509.0,-950.0,0
145.0,-162.0,-120.0,-62.0,522.0,-942.0,0
148.0,-165.0,-118.0,-71.0,533.0,-936.0,0
154.0,-163.0,-119.0,-85.0,546.0,-931.0,0
151.0,-170.0,-113.0,-105.0,561.0,-936.0,0
155.0,-168.0,-115.0,-130.0,576.0,-943.0,0
159.0,-170.0,-106.0,-157.0,599.0,-961.0,0
157.0,-167.0,-108.0,-180.0,620.0,-973.0,0
157.0,-169.0,-111.0,-195.0,644.0,-998.0,0
158.0,-171.0,-111.0,-201.0,662.0,-1020.0,0
156.0,-170.0,-113.0,-190.0,680.0,-1040.0,0
157.0,-170.0,-115.0,-177.0,694.0,-1057.0,0
156.0,-172.0,-116.0,-167.0,705.0,-1073.0,0
153.0,-173.0,-121.0,-162.0,705.0,-1076.0,0
155.0,-177.0,-115.0,-164.0,708.0,-1079.0,0
164.0,-182.0,-116.0,-166.0,707.0,-1085.0,0
165.0,-184.0,-117.0,-169.0,704.0,-1095.0,0
160.0,-189.0,-116.0,-168.0,707.0,-1107.0,0
163.0,-190.0,-115.0,-162.0,712.0,-1128.0,0
166.0,-191.0,-112.0,-143.0,722.0,-1148.0,0
165.0,-183.0,-112.0,-113.0,738.0,-1171.0,0
161.0,-180.0,-110.0,-84.0,753.0,-1186.0,0
164.0,-176.0,-108.0,-57.0,766.0,-1204.0,0
164.0,-175.0,-110.0,-39.0,778.0,-1216.0,0
162.0,-173.0,-105.0,-21.0,785.0,-1223.0,0
168.0,-175.0,-107.0,-7.0,791.0,-1230.0,0
172.0,-171.0,-106.0,6.0,803.0,-1237.0,0
168.0,-169.0,-111.0,12.0,815.0,-1239.0,0
171.0,-171.0,-108.0,18.0,826.0,-1242.0,0
176.0,-161.0,-112.0,32.0,841.0,-1251.0,0
181.0,-163.0,-113.0,29.0,862.0,-1249.0,0
182.0,-162.0,-110.0,28.0,889.0,-1248.0,0
190.0,-159.0,-107.0,27.0,915.0,-1253.0,0
193.0,-160.0,-106.0,30.0,934.0,-1255.0,0
198.0,-159.0,-103.0,35.0,950.0,-1254.0,0
204.0,-157.0,-100.0,46.0,960.0,-1254.0,0
206.0,-154.0,-100.0,63.0,967.0,-1262.0,0
211.0,-160.0,-94.0,89.0,974.0,-1269.0,0
208.0,-158.0,-94.0,114.0,991.0,-1286.0,0
212.0,-159.0,-89.0,138.0,1006.0,-1294.0,0
207.0,-160.0,-91.0,156.0,1026.0,-1298.0,0
209.0,-158.0,-88.0,168.0,1044.0,-1298.0,0
205.0,-156.0,-86.0,179.0,1069.0,-1299.0,0
199.0,-155.0,-82.0,195.0,1096.0,-1297.0,0
200.0,-151.0,-84.0,217.0,1118.0,-1296.0,0
196.0,-148.0,-83.0,241.0,1145.0,-1299.0,0
183.0,-138.0,-78.0,263.0,1180.0,-1305.0,0
183.0,-132.0,-82.0,277.0,1199.0,-1302.0,0
176.0,-123.0,-80.0,281.0,1207.0,-1300.0,0
176.0,-115.0,-82.0,269.0,1215.0,-1285.0,0
173.0,-108.0,-82.0,249.0,1218.0,-1264.0,0
174.0,-103.0,-85.0,218.0,1208.0,-1238.0,0
176.0,-98.0,-82.0,191.0,1201.0,-1211.0,0
177.0,-94.0,-83.0,161.0,1197.0,-1184.0,0
176.0,-94.0,-82.0,122.0,1175.0,-1154.0,0
182.0,-92.0,-87.0,81.0,1136.0,-1124.0,0
182.0,-90.0,-89.0,44.0,1111.0,-1102.0,0
188.0,-91.0,-90.0,17.0,1093.0,-1081.0,0
193.0,-93.0,-80.0,-3.0,1082.0,-1069.0,0
193.0,-95.0,-80.0,-15.0,1080.0,-1056.0,0
197.0,-93.0,-80.0,-29.0,1077.0,-1045.0,0
200.0,-95.0,-79.0,-44.0,1080.0,-1033.0,0
200.0,-95.0,-77.0,-58.0,1083.0,-1021.0,0
204.0,-99.0,-70.0,-69.0,1085.0,-1013.0,0
212.0,-100.0,-71.0,-81.0,1085.0,-1005.0,0
208.0,-99.0,-70.0,-90.0,1085.0,-1002.0,0
210.0,-96.0,-69.0,-98.0,1080.0,-995.0,0
212.0,-100.0,-66.0,-100.0,1074.0,-992.0,0
217.0,-96.0,-65.0,-96.0,1067.0,-996.0,0
226.0,-94.0,-62.0,-91.0,1066.0,-998.0,0
230.0,-94.0,-59.0,-89.0,1067.0,-1000.0,0
231.0,-91.0,-56.0,-87.0,1072.0,-1002.0,0
233.0,-86.0,-55.0,-86.0,1068.0,-999.0,0
239.0,-84.0,-54.0,-89.0,1058.0,-994.0,0
240.0,-82.0,-51.0,-97.0,1042.0,-987.0,0
238.0,-80.0,-51.0,-107.0,1020.0,-980.0,0
238.0,-74.0,-49.0,-126.0,998.0,-967.0,0
241.0,-71.0,-51.0,-150.0,980.0,-954.0,0
240.0,-67.0,-49.0,-172.0,969.0,-938.0,0
246.0,-69.0,-47.0,-190.0,962.0,-923.0,0
255.0,-67.0,-38.0,-198.0,962.0,-913.0,0
245.0,-66.0,-36.0,-204.0,973.0,-896.0,0
251.0,-67.0,-33.0,-210.0,984.0,-869.0,0
248.0,-62.0,-34.0,-217.0,989.0,-844.0,0
250.0,-62.0,-36.0,-224.0,985.0,-815.0,0
246.0,-56.0,-31.0,-230.0,980.0,-791.0,0
248.0,-57.0,-30.0,-240.0,976.0,-762.0,0
249.0,-56.0,-36.0,-258.0,967.0,-741.0,0
252.0,-60.0,-33.0,-280.0,962.0,-718.0,0
252.0,-60.0,-29.0,-293.0,960.0,-703.0,0
255.0,-59.0,-31.0,-297.0,955.0,-688.0,0
253.0,-57.0,-33.0,-298.0,953.0,-675.0,0
257.0,-59.0,-32.0,-298.0,953.0,-665.0,0
259.0,-59.0,-31.0,-295.0,959.0,-663.0,0
255.0,-60.0,-29.0,-290.0,972.0,-656.0,0
253.0,-61.0,-25.0,-285.0,987.0,-645.0,0
254.0,-61.0,-27.0,-286.0,1001.0,-631.0,0
257.0,-60.0,-25.0,-286.0,1010.0,-616.0,0
258.0,-58.0,-25.0,-279.0,1016.0,-602.0,0
249.0,-58.0,-29.0,-265.0,1021.0,-589.0,0
255.0,-56.0,-25.0,-245.0,1019.0,-568.0,0
254.0,-56.0,-21.0,-217.0,1014.0,-551.0,0
253.0,-54.0,-21.0,-187.0,1007.0,-542.0,0
252.0,-59.0,-19.0,-157.0,1008.0,-526.0,0
243.0,-57.0,-16.0,-132.0,1013.0,-509.0,0
250.0,-59.0,-9.0,-101.0,1013.0,-503.0,0
247.0,-57.0,-5.0,-76.0,1007.0,-502.0,0
250.0,-53.0,-6.0,-50.0,1005.0,-506.0,0
250.0,-52.0,-1.0,-26.0,1008.0,-506.0,0
248.0,-52.0,5.0,-3.0,1008.0,-503.0,0
250.0,-49.0,10.0,21.0,1010.0,-502.0,0
248.0,-58.0,14.0,47.0,1006.0,-501.0,0
250.0,-44.0,16.0,70.0,1010.0,-501.0,0
257.0,-41.0,16.0,99.0,1015.0,-500.0,0
256.0,-41.0,19.0,127.0,1022.0,-497.0,0
262.0,-37.0,21.0,153.0,1036.0,-487.0,0
267.0,-31.0,22.0,182.0,1051.0,-483.0,0
274.0,-30.0,24.0,202.0,1068.0,-483.0,0
280.0,-25.0,35.0,228.0,1086.0,-490.0,0
285.0,-17.0,37.0,260.0,1105.0,-505.0,0
290.0,-13.0,38.0,296.0,1129.0,-518.0,0
288.0,-2.0,41.0,331.0,1154.0,-531.0,0
285.0,9.0,38.0,363.0,1167.0,-541.0,0
280.0,14.0,42.0,390.0,1190.0,-548.0,0
289.0,18.0,47.0,407.0,1215.0,-556.0,0
286.0,23.0,53.0,418.0,1230.0,-567.0,0
280.0,29.0,54.0,427.0,1211.0,-570.0,0
281.0,36.0,55.0,439.0,1169.0,-583.0,0
284.0,41.0,57.0,451.0,1129.0,-591.0,0
275.0,48.0,47.0,468.0,1098.0,-592.0,0
265.0,44.0,52.0,480.0,1074.0,-574.0,0
251.0,43.0,56.0,512.0,1044.0,-552.0,0
241.0,40.0,65.0,554.0,987.0,-536.0,0
234.0,33.0,70.0,610.0,923.0,-526.0,0
233.0,30.0,80.0,675.0,842.0,-519.0,0
222.0,31.0,82.0,741.0,773.0,-509.0,0
218.0,22.0,84.0,799.0,707.0,-475.0,0
212.0,22.0,93.0,853.0,663.0,-446.0,0
207.0,21.0,92.0,871.0,631.0,-406.0,0
205.0,24.0,98.0,865.0,616.0,-362.0,0
201.0,21.0,101.0,827.0,626.0,-303.0,0
195.0,19.0,104.0,769.0,642.0,-248.0,0
188.0,17.0,108.0,680.0,675.0,-187.0,0
185.0,17.0,105.0,569.0,701.0,-125.0,0
191.0,18.0,102.0,446.0,743.0,-56.0,0
180.0,12.0,112.0,318.0,799.0,24.0,0
184.0,8.0,104.0,199.0,818.0,100.0,0
184.0,10.0,106.0,61.0,842.0,158.0,0
182.0,4.0,116.0,-35.0,847.0,212.0,0
191.0,11.0,106.0,-111.0,837.0,240.0,0
205.0,15.0,102.0,-165.0,828.0,267.0,0
195.0,10.0,111.0,-195.0,830.0,301.0,0
206.0,14.0,106.0,-198.0,798.0,318.0,0
216.0,12.0,109.0,-184.0,760.0,319.0,0
219.0,14.0,115.0,-145.0,730.0,330.0,0
228.0,22.0,111.0,-88.0,699.0,343.0,0
225.0,22.0,107.0,-22.0,676.0,361.0,0
229.0,19.0,117.0,55.0,634.0,376.0,0
238.0,16.0,123.0,160.0,554.0,370.0,0
235.0,11.0,118.0,246.0,480.0,360.0,0
235.0,6.0,126.0,331.0,392.0,349.0,0
235.0,-2.0,131.0,415.0,290.0,335.0,0
234.0,-3.0,137.0,489.0,191.0,325.0,0
223.0,-12.0,149.0,539.0,109.0,313.0,0
221.0,-14.0,145.0,571.0,30.0,299.0,0
222.0,-16.0,150.0,561.0,-41.0,293.0,0
220.0,-19.0,160.0,526.0,-109.0,291.0,0
216.0,-23.0,159.0,462.0,-179.0,289.0,0
215.0,-32.0,157.0,374.0,-284.0,288.0,0
223.0,-35.0,154.0,244.0,-371.0,281.0,0
214.0,-39.0,151.0,124.0,-446.0,277.0,0
208.0,-46.0,146.0,10.0,-506.0,266.0,0
202.0,-53.0,132.0,-97.0,-551.0,247.0,0
203.0,-60.0,123.0,-198.0,-590.0,208.0,0
206.0,-68.0,116.0,-290.0,-615.0,144.0,0
199.0,-71.0,107.0,-357.0,-606.0,73.0,0
193.0,-79.0,93.0,-385.0,-594.0,-2.0,0
192.0,-81.0,81.0,-381.0,-575.0,-80.0,0
196.0,-83.0,71.0,-351.0,-551.0,-164.0,0
195.0,-76.0,58.0,-289.0,-519.0,-224.0,0
197.0,-77.0,54.0,-215.0,-494.0,-260.0,0
197.0,-77.0,53.0,-124.0,-473.0,-288.0,0
203.0,-78.0,50.0,-22.0,-463.0,-301.0,0
202.0,-69.0,51.0,82.0,-462.0,-318.0,0
211.0,-64.0,49.0,187.0,-471.0,-334.0,0
218.0,-58.0,51.0,288.0,-501.0,-349.0,0
229.0,-52.0,47.0,379.0,-541.0,-350.0,0
237.0,-44.0,46.0,452.0,-577.0,-342.0,0
243.0,-34.0,47.0,512.0,-609.0,-319.0,0
246.0,-30.0,44.0,562.0,-663.0,-290.0,0
251.0,-27.0,43.0,596.0,-705.0,-264.0,0
255.0,-22.0,38.0,610.0,-736.0,-240.0,0
259.0,-19.0,40.0,618.0,-769.0,-211.0,0
262.0,-18.0,34.0,617.0,-802.0,-191.0,0
265.0,-17.0,40.0,605.0,-818.0,-170.0,0
267.0,-14.0,34.0,587.0,-830.0,-155.0,0
265.0,-17.0,33.0,561.0,-827.0,-146.0,0
264.0,-16.0,35.0,528.0,-832.0,-140.0,0
261.0,-16.0,30.0,481.0,-841.0,-145.0,0
259.0,-14.0,29.0,420.0,-843.0,-155.0,0
251.0,-18.0,38.0,336.0,-836.0,-164.0,0
245.0,-18.0,29.0,264.0,-839.0,-172.0,0
247.0,-18.0,31.0,185.0,-844.0,-180.0,0
249.0,-22.0,35.0,105.0,-840.0,-193.0,0
244.0,-24.0,33.0,34.0,-819.0,-205.0,0
246.0,-32.0,30.0,-18.0,-805.0,-227.0,0
249.0,-32.0,22.0,-59.0,-796.0,-257.0,0
251.0,-30.0,17.0,-81.0,-783.0,-295.0,0
251.0,-29.0,16.0,-74.0,-760.0,-330.0,0
253.0,-27.0,13.0,-44.0,-728.0,-366.0,0
254.0,-27.0,13.0,-1.0,-694.0,-395.0,0
257.0,-23.0,10.0,54.0,-668.0,-414.0,0
256.0,-20.0,7.0,95.0,-657.0,-422.0,0
258.0,-21.0,6.0,125.0,-656.0,-433.0,0
258.0,-16.0,1.0,146.0,-656.0,-433.0,0
264.0,-15.0,7.0,159.0,-664.0,-435.0,0
265.0,-12.0,3.0,163.0,-670.0,-431.0,0
267.0,-11.0,-4.0,164.0,-674.0,-427.0,0
268.0,-7.0,-1.0,162.0,-682.0,-418.0,0
271.0,-4.0,1.0,162.0,-687.0,-410.0,0
272.0,-3.0,0.0,163.0,-689.0,-395.0,0
271.0,-1.0,-3.0,164.0,-679.0,-381.0,0
269.0,1.0,-4.0,172.0,-664.0,-364.0,0
270.0,7.0,0.0,181.0,-639.0,-354.0,0
268.0,7.0,-5.0,187.0,-609.0,-339.0,0
269.0,9.0,-5.0,184.0,-576.0,-325.0,0
266.0,14.0,-3.0,172.0,-548.0,-302.0,0
264.0,16.0,2.0,148.0,-524.0,-283.0,0
266.0,17.0,1.0,111.0,-510.0,-256.0,0
267.0,17.0,-2.0,67.0,-505.0,-237.0,0
266.0,20.0,-2.0,20.0,-510.0,-217.0,0
264.0,19.0,-6.0,-27.0,-522.0,-198.0,0
265.0,17.0,-4.0,-78.0,-541.0,-183.0,0
267.0,15.0,-9.0,-114.0,-554.0,-174.0,0
266.0,13.0,-14.0,-137.0,-560.0,-161.0,0
265.0,11.0,-12.0,-145.0,-553.0,-151.0,0
264.0,11.0,-14.0,-140.0,-541.0,-133.0,0
261.0,9.0,-17.0,-127.0,-518.0,-122.0,0
263.0,8.0,-21.0,-107.0,-491.0,-108.0,0
260.0,7.0,-19.0,-88.0,-465.0,-100.0,0
257.0,3.0,-27.0,-68.0,-442.0,-86.0,0
261.0,4.0,-24.0,-52.0,-423.0,-78.0,0
265.0,-1.0,-27.0,-38.0,-401.0,-67.0,0
263.0,1.0,-27.0,-21.0,-372.0,-60.0,0
261.0,2.0,-30.0,-11.0,-339.0,-45.0,0
261.0,4.0,-25.0,-5.0,-300.0,-28.0,0
264.0,6.0,-24.0,-1.0,-264.0,-1.0,0
265.0,5.0,-25.0,3.0,-231.0,15.0,0
264.0,12.0,-22.0,6.0,-204.0,34.0,0
268.0,18.0,-25.0,9.0,-184.0,44.0,0
272.0,20.0,-22.0,6.0,-168.0,52.0,0
271.0,22.0,-29.0,0.0,-154.0,53.0,0
271.0,26.0,-34.0,-8.0,-137.0,59.0,0
270.0,27.0,-36.0,-18.0,-115.0,61.0,0
273.0,26.0,-38.0,-15.0,-93.0,65.0,0
276.0,24.0,-35.0,3.0,-63.0,62.0,0
279.0,24.0,-39.0,35.0,-28.0,66.0,0
275.0,24.0,-35.0,74.0,18.0,56.0,0
275.0,24.0,-32.0,119.0,62.0,46.0,0
280.0,22.0,-27.0,162.0,105.0,31.0,0
273.0,25.0,-20.0,197.0,141.0,25.0,0
269.0,26.0,-17.0,217.0,169.0,13.0,0
269.0,24.0,-16.0,219.0,189.0,7.0,0
264.0,24.0,-12.0,207.0,205.0,-1.0,0
262.0,25.0,-5.0,179.0,208.0,7.0,0
259.0,24.0,-2.0,145.0,204.0,14.0,0
258.0,20.0,-1.0,102.0,193.0,26.0,0
258.0,21.0,-1.0,55.0,183.0,33.0,0
254.0,17.0,8.0,3.0,175.0,42.0,0
256.0,12.0,4.0,-45.0,164.0,47.0,0
256.0,12.0,1.0,-93.0,154.0,50.0,0
253.0,13.0,1.0,-141.0,142.0,47.0,0
254.0,9.0,-1.0,-196.0,126.0,53.0,0
254.0,11.0,1.0,-249.0,106.0,60.0,0
253.0,12.0,-1.0,-316.0,68.0,72.0,0
258.0,9.0,-3.0,-364.0,30.0,83.0,0
259.0,9.0,-10.0,-402.0,-12.0,104.0,0
266.0,10.0,-12.0,-421.0,-50.0,122.0,0
272.0,6.0,-14.0,-411.0,-78.0,144.0,0
277.0,7.0,-18.0,-374.0,-86.0,161.0,0
280.0,6.0,-18.0,-317.0,-77.0,176.0,0
280.0,7.0,-21.0,-246.0,-60.0,179.0,0
279.0,13.0,-20.0,-174.0,-36.0,183.0,0
276.0,16.0,-21.0,-112.0,-17.0,180.0,0
280.0,17.0,-23.0,-61.0,7.0,172.0,0
277.0,19.0,-22.0,-17.0,28.0,159.0,0
272.0,17.0,-16.0,2.0,53.0,147.0,0
267.0,19.0,-21.0,6.0,78.0,130.0,0
263.0,10.0,-16.0,0.0,105.0,112.0,0
257.0,10.0,-17.0,-13.0,132.0,88.0,0
252.0,5.0,-12.0,-30.0,161.0,72.0,0
248.0,-1.0,-3.0,-48.0,195.0,53.0,0
244.0,-3.0,-3.0,-68.0,230.0,41.0,0
244.0,-4.0,-4.0,-89.0,267.0,31.0,0
243.0,-7.0,5.0,-112.0,300.0,25.0,0
240.0,-5.0,6.0,-136.0,336.0,16.0,0
245.0,-4.0,4.0,-156.0,361.0,15.0,0
244.0,-5.0,12.0,-172.0,378.0,11.0,0
247.0,-4.0,12.0,-182.0,383.0,15.0,0
249.0,-4.0,15.0,-186.0,378.0,17.0,0
253.0,-4.0,14.0,-177.0,361.0,25.0,0
256.0,-5.0,14.0,-156.0,339.0,28.0,0
261.0,-3.0,19.0,-129.0,309.0,32.0,0
264.0,-4.0,15.0,-100.0,275.0,31.0,0
263.0,-2.0,15.0,-71.0,237.0,37.0,0
268.0,-1.0,16.0,-48.0,185.0,36.0,0
270.0,-1.0,13.0,-30.0,139.0,37.0,0
269.0,0.0,15.0,-25.0,88.0,35.0,0
272.0,-2.0,11.0,-32.0,37.0,36.0,0
267.0,-3.0,9.0,-43.0,-15.0,32.0,0
266.0,-3.0,1.0,-60.0,-61.0,35.0,0
260.0,-7.0,-3.0,-79.0,-102.0,33.0,0
260.0,-10.0,0.0,-92.0,-133.0,39.0,0
254.0,-12.0,-1.0,-103.0,-157.0,36.0,0
251.0,-17.0,-2.0,-106.0,-172.0,36.0,0
249.0,-21.0,1.0,-102.0,-180.0,24.0,0
245.0,-25.0,3.0,-90.0,-176.0,18.0,0
241.0,-24.0,-1.0,-72.0,-170.0,4.0,0
244.0,-25.0,8.0,-53.0,-161.0,-5.0,0
242.0,-25.0,4.0,-30.0,-150.0,-20.0,0
243.0,-21.0,8.0,-10.0,-140.0,-30.0,0
241.0,-18.0,6.0,5.0,-135.0,-39.0,0
240.0,-13.0,7.0,14.0,-136.0,-42.0,0
242.0,-6.0,9.0,13.0,-141.0,-48.0,0
242.0,-4.0,3.0,1.0,-151.0,-50.0,0
240.0,-2.0,1.0,-22.0,-163.0,-56.0,0
242.0,-2.0,-2.0,-51.0,-176.0,-59.0,0
243.0,-2.0,-6.0,-96.0,-181.0,-60.0,0
244.0,-4.0,-13.0,-138.0,-178.0,-57.0,0
245.0,-6.0,-12.0,-176.0,-174.0,-57.0,0
248.0,-14.0,-16.0,-204.0,-164.0,-52.0,0
248.0,-16.0,-19.0,-217.0,-152.0,-54.0,0
252.0,-20.0,-24.0,-214.0,-137.0,-54.0,0
249.0,-22.0,-23.0,-195.0,-119.0,-58.0,0
254.0,-24.0,-26.0,-161.0,-101.0,-59.0,0
259.0,-21.0,-33.0,-115.0,-77.0,-63.0,0
257.0,-18.0,-34.0,-59.0,-55.0,-59.0,0
257.0,-18.0,-27.0,14.0,-29.0,-56.0,0
261.0,-14.0,-38.0,72.0,-9.0,-48.0,0
263.0,-13.0,-34.0,118.0,10.0,-43.0,0
261.0,-12.0,-31.0,154.0,27.0,-33.0,0
265.0,-5.0,-31.0,178.0,45.0,-28.0,0
263.0,-7.0,-31.0,196.0,59.0,-17.0,0
267.0,-5.0,-29.0,209.0,74.0,-9.0,0
266.0,-2.0,-25.0,217.0,87.0,8.0,0
266.0,-3.0,-24.0,225.0,99.0,20.0,0
269.0,-1.0,-19.0,232.0,106.0,38.0,0
265.0,2.0,-18.0,238.0,112.0,50.0,0
264.0,5.0,-16.0,239.0,114.0,61.0,0
265.0,8.0,-18.0,229.0,113.0,64.0,0
268.0,11.0,-18.0,216.0,114.0,69.0,0
264.0,12.0,-19.0,199.0,115.0,69.0,0
264.0,13.0,-16.0,184.0,119.0,75.0,0
263.0,11.0,-13.0,171.0,124.0,74.0,0
262.0,14.0,-19.0,162.0,130.0,77.0,0
263.0,18.0,-13.0,153.0,139.0,70.0,0
264.0,18.0,-15.0,147.0,146.0,70.0,0
264.0,17.0,-16.0,146.0,157.0,61.0,0
266.0,16.0,-14.0,145.0,167.0,57.0,0
264.0,19.0,-18.0,141.0,176.0,50.0,0
263.0,17.0,-17.0,133.0,183.0,48.0,0
264.0,12.0,-20.0,121.0,190.0,42.0,0
261.0,14.0,-18.0,107.0,197.0,40.0,0
260.0,11.0,-15.0,94.0,206.0,34.0,0
261.0,11.0,-15.0,83.0,216.0,34.0,0
258.0,8.0,-16.0,74.0,229.0,32.0,0
259.0,8.0,-13.0,67.0,237.0,30.0,0
260.0,7.0,-12.0,59.0,247.0,24.0,0
264.0,5.0,-14.0,50.0,256.0,24.0,0
260.0,3.0,-6.0,47.0,265.0,21.0,0
261.0,2.0,-9.0,45.0,273.0,25.0,0
261.0,1.0,-10.0,49.0,280.0,24.0,0
261.0,0.0,-4.0,53.0,285.0,28.0,0
262.0,1.0,-7.0,62.0,290.0,29.0,0
260.0,1.0,-3.0,74.0,293.0,32.0,0
258.0,-2.0,-1.0,86.0,296.0,32.0,0
257.0,0.0,-3.0,105.0,297.0,35.0,0
255.0,0.0,2.0,127.0,295.0,35.0,0
257.0,-2.0,0.0,148.0,293.0,50.0,0
254.0,0.0,6.0,171.0,292.0,62.0,0
253.0,-3.0,9.0,183.0,288.0,77.0,0
253.0,-4.0,12.0,191.0,283.0,86.0,0
252.0,-2.0,11.0,189.0,274.0,99.0,0
254.0,-1.0,14.0,179.0,264.0,104.0,0
249.0,-1.0,14.0,164.0,251.0,107.0,0
251.0,-6.0,18.0,140.0,237.0,105.0,0
254.0,-4.0,19.0,112.0,220.0,101.0,0
249.0,-5.0,22.0,78.0,202.0,90.0,0
249.0,-6.0,18.0,41.0,182.0,77.0,0
247.0,-12.0,19.0,-7.0,158.0,59.0,0
249.0,-10.0,19.0,-47.0,136.0,44.0,0
250.0,-12.0,15.0,-87.0,113.0,26.0,0
248.0,-12.0,15.0,-125.0,95.0,11.0,0
247.0,-15.0,13.0,-160.0,76.0,-5.0,0
250.0,-15.0,9.0,-187.0,62.0,-17.0,0
248.0,-18.0,12.0,-210.0,50.0,-31.0,0
251.0,-20.0,6.0,-230.0,40.0,-45.0,0
246.0,-22.0,2.0,-245.0,33.0,-65.0,0
250.0,-27.0,2.0,-252.0,29.0,-81.0,0
245.0,-26.0,0.0,-254.0,28.0,-104.0,0
249.0,-25.0,-2.0,-248.0,30.0,-119.0,0
248.0,-25.0,-3.0,-235.0,33.0,-136.0,0
252.0,-25.0,-3.0,-215.0,38.0,-147.0,0
249.0,-25.0,-4.0,-189.0,45.0,-158.0,0
252.0,-25.0,-6.0,-157.0,53.0,-164.0,0
253.0,-26.0,-5.0,-122.0,58.0,-172.0,0
255.0,-23.0,-5.0,-83.0,65.0,-176.0,0
254.0,-20.0,-9.0,-44.0,70.0,-178.0,0
255.0,-18.0,-6.0,-2.0,76.0,-176.0,0
254.0,-12.0,-8.0,38.0,80.0,-176.0,0
258.0,-12.0,-8.0,85.0,87.0,-173.0,0
255.0,-5.0,-9.0,124.0,92.0,-171.0,0
255.0,-1.0,-8.0,155.0,100.0,-164.0,0
258.0,-3.0,-11.0,186.0,109.0,-157.0,0
257.0,-1.0,-1.0,213.0,117.0,-147.0,0
255.0,6.0,-7.0,235.0,125.0,-138.0,0
259.0,8.0,-2.0,251.0,129.0,-127.0,0
257.0,11.0,-5.0,260.0,133.0,-116.0,0
255.0,15.0,-2.0,261.0,135.0,-103.0,0
257.0,16.0,-6.0,256.0,136.0,-88.0,0
257.0,17.0,-3.0,243.0,137.0,-73.0,0
258.0,19.0,4.0,227.0,139.0,-61.0,0
256.0,23.0,3.0,211.0,140.0,-46.0,0
257.0,22.0,4.0,195.0,140.0,-36.0,0
258.0,21.0,4.0,178.0,139.0,-25.0,0
260.0,22.0,9.0,162.0,139.0,-21.0,0
260.0,17.0,8.0,148.0,138.0,-13.0,0
259.0,17.0,7.0,133.0,134.0,-9.0,0
258.0,19.0,11.0,118.0,134.0,-4.0,0
259.0,19.0,8.0,102.0,130.0,-3.0,0
259.0,16.0,12.0,88.0,125.0,0.0,0
261.0,14.0,9.0,69.0,120.0,0.0,0
260.0,12.0,8.0,53.0,119.0,4.0,0
258.0,12.0,8.0,36.0,115.0,5.0,0
259.0,10.0,10.0,19.0,112.0,11.0,0
257.0,9.0,5.0,2.0,108.0,14.0,0
258.0,7.0,10.0,-14.0,106.0,20.0,0
257.0,6.0,6.0,-31.0,105.0,22.0,0
259.0,3.0,8.0,-46.0,101.0,28.0,0
257.0,5.0,4.0,-58.0,99.0,27.0,0
257.0,0.0,5.0,-66.0,96.0,30.0,0
259.0,0.0,1.0,-72.0,93.0,33.0,0
257.0,1.0,3.0,-71.0,91.0,33.0,0
256.0,-3.0,2.0,-72.0,89.0,32.0,0
256.0,-1.0,2.0,-70.0,88.0,33.0,0
257.0,-4.0,4.0,-69.0,86.0,31.0,0
257.0,-4.0,4.0,-65.0,88.0,29.0,0
257.0,-4.0,3.0,-64.0,91.0,25.0,0
257.0,-4.0,2.0,-62.0,94.0,23.0,0
253.0,-3.0,4.0,-60.0,99.0,17.0,0
253.0,-2.0,6.0,-58.0,103.0,13.0,0
253.0,-4.0,7.0,-58.0,112.0,6.0,0
253.0,-2.0,3.0,-60.0,115.0,2.0,0
253.0,-3.0,6.0,-62.0,123.0,-2.0,0
251.0,-4.0,5.0,-67.0,129.0,-5.0,0
252.0,-4.0,7.0,-72.0,134.0,-8.0,0
251.0,-3.0,3.0,-77.0,139.0,-10.0,0
251.0,-3.0,4.0,-83.0,143.0,-10.0,0
250.0,-4.0,5.0,-87.0,150.0,-10.0,0
254.0,-1.0,7.0,-89.0,155.0,-12.0,0
255.0,-3.0,5.0,-89.0,159.0,-9.0,0
252.0,-3.0,3.0,-93.0,163.0,-12.0,0
254.0,-3.0,5.0,-94.0,167.0,-13.0,0
255.0,-4.0,4.0,-96.0,169.0,-17.0,0
255.0,-3.0,6.0,-97.0,171.0,-19.0,0
255.0,-3.0,4.0,-97.0,173.0,-22.0,0
257.0,-5.0,5.0,-99.0,174.0,-24.0,0
255.0,-2.0,4.0,-97.0,175.0,-28.0,0
256.0,-3.0,4.0,-94.0,175.0,-31.0,0
255.0,-3.0,7.0,-90.0,174.0,-34.0,0
257.0,10.0,6.0,-85.0,172.0,-39.0,0
257.0,0.0,8.0,-80.0,169.0,-43.0,0
256.0,-3.0,10.0,-72.0,166.0,-48.0,0
257.0,-1.0,8.0,-63.0,159.0,-53.0,0
260.0,-3.0,7.0,-54.0,152.0,-57.0,0
258.0,-2.0,12.0,-45.0,145.0,-59.0,0
262.0,1.0,7.0,-36.0,137.0,-60.0,0
257.0,1.0,8.0,-29.0,132.0,-61.0,0
260.0,-2.0,10.0,-20.0,129.0,-62.0,0
254.0,1.0,11.0,-14.0,123.0,-63.0,0
257.0,-2.0,8.0,-6.0,120.0,-62.0,0
260.0,0.0,7.0,1.0,115.0,-61.0,0
254.0,-1.0,12.0,10.0,111.0,-61.0,0
256.0,-2.0,13.0,15.0,108.0,-61.0,0
258.0,-2.0,10.0,20.0,106.0,-60.0,0
256.0,-3.0,11.0,22.0,105.0,-60.0,0
256.0,-2.0,12.0,23.0,103.0,-58.0,0
254.0,-2.0,10.0,20.0,103.0,-55.0,0
256.0,-3.0,10.0,16.0,100.0,-52.0,0
256.0,-1.0,12.0,13.0,98.0,-52.0,0
255.0,0.0,10.0,8.0,97.0,-48.0,0
254.0,3.0,9.0,3.0,93.0,-46.0,0
257.0,-1.0,15.0,-4.0,90.0,-42.0,0
257.0,-3.0,12.0,-10.0,85.0,-39.0,0
260.0,-1.0,12.0,-17.0,79.0,-37.0,0
257.0,1.0,12.0,-23.0,72.0,-35.0,0
257.0,-1.0,12.0,-26.0,65.0,-32.0,0
258.0,2.0,8.0,-27.0,58.0,-31.0,0
259.0,3.0,10.0,-27.0,52.0,-28.0,0
257.0,4.0,12.0,-27.0,46.0,-27.0,0
261.0,1.0,10.0,-28.0,43.0,-25.0,0
257.0,3.0,12.0,-27.0,40.0,-25.0,0
255.0,5.0,10.0,-26.0,39.0,-25.0,0
255.0,4.0,5.0,-28.0,40.0,-26.0,0
260.0,2.0,7.0,-29.0,40.0,-27.0,0
256.0,5.0,6.0,-30.0,42.0,-25.0,0
255.0,7.0,7.0,-33.0,44.0,-25.0,0
258.0,8.0,5.0,-34.0,47.0,-22.0,0
257.0,8.0,6.0,-34.0,49.0,-22.0,0
258.0,6.0,7.0,-37.0,51.0,-19.0,0
256.0,7.0,7.0,-39.0,56.0,-18.0,0
256.0,6.0,7.0,-41.0,58.0,-16.0,0
259.0,4.0,9.0,-43.0,63.0,-16.0,0
256.0,4.0,11.0,-46.0,65.0,-16.0,0
256.0,3.0,5.0,-49.0,69.0,-17.0,0
256.0,6.0,11.0,-52.0,75.0,-15.0,0
259.0,5.0,7.0,-56.0,80.0,-15.0,0
259.0,6.0,6.0,-58.0,85.0,-14.0,0
257.0,6.0,6.0,-59.0,88.0,-14.0,0
256.0,3.0,6.0,-64.0,94.0,-13.0,0
257.0,5.0,13.0,-67.0,98.0,-12.0,0
258.0,3.0,8.0,-70.0,101.0,-12.0,0
256.0,0.0,4.0,-73.0,103.0,-10.0,0
260.0,2.0,11.0,-76.0,106.0,-8.0,0
257.0,5.0,8.0,-78.0,107.0,-8.0,0
257.0,2.0,12.0,-80.0,107.0,-4.0,0
259.0,3.0,11.0,-80.0,105.0,-4.0,0
257.0,2.0,10.0,-80.0,102.0,-2.0,0
260.0,4.0,10.0,-81.0,101.0,-2.0,0
254.0,3.0,13.0,-84.0,97.0,-2.0,0
257.0,3.0,9.0,-87.0,94.0,-2.0,0
258.0,1.0,12.0,-88.0,92.0,-3.0,0
257.0,0.0,8.0,-91.0,91.0,-4.0,0
257.0,3.0,11.0,-93.0,87.0,-5.0,0
256.0,3.0,9.0,-95.0,83.0,-4.0,0
256.0,5.0,10.0,-97.0,80.0,-1.0,0
258.0,1.0,9.0,-97.0,77.0,-2.0,0
255.0,4.0,10.0,-96.0,75.0,-2.0,0
258.0,0.0,9.0,-93.0,70.0,-3.0,0
255.0,3.0,12.0,-92.0,67.0,-3.0,0
257.0,-1.0,10.0,-87.0,67.0,-3.0,0
259.0,-1.0,6.0,-84.0,67.0,-2.0,0
256.0,2.0,12.0,-81.0,66.0,-3.0,0
256.0,0.0,12.0,-78.0,66.0,-4.0,0
253.0,0.0,9.0,-74.0,68.0,-4.0,0
255.0,1.0,12.0,-68.0,68.0,-4.0,0
254.0,0.0,11.0,-65.0,67.0,-8.0,0
255.0,2.0,10.0,-58.0,67.0,-6.0,0
253.0,1.0,8.0,-52.0,67.0,-10.0,0
255.0,0.0,15.0,-48.0,67.0,-8.0,0
256.0,-1.0,14.0,-44.0,66.0,-8.0,0
255.0,-1.0,12.0,-42.0,65.0,-7.0,0
255.0,1.0,12.0,-39.0,64.0,-7.0,0
256.0,1.0,13.0,-38.0,63.0,-6.0,0
255.0,0.0,10.0,-38.0,60.0,-8.0,0
256.0,-2.0,13.0,-36.0,54.0,-8.0,0
256.0,0.0,11.0,-37.0,49.0,-11.0,0
256.0,2.0,11.0,-37.0,47.0,-11.0,0
255.0,0.0,11.0,-37.0,46.0,-14.0,0
256.0,1.0,10.0,-37.0,43.0,-13.0,0
257.0,0.0,11.0,-38.0,42.0,-15.0,0
256.0,1.0,8.0,-37.0,39.0,-13.0,0
254.0,1.0,10.0,-36.0,38.0,-16.0,0
255.0,-1.0,7.0,-35.0,37.0,-15.0,0
256.0,2.0,10.0,-31.0,38.0,-17.0,0
254.0,5.0,9.0,-29.0,38.0,-15.0,0
256.0,1.0,6.0,-26.0,40.0,-16.0,0
256.0,3.0,8.0,-21.0,43.0,-13.0,0
257.0,2.0,8.0,-16.0,45.0,-15.0,0
257.0,0.0,7.0,-11.0,46.0,-12.0,0
253.0,2.0,8.0,-5.0,48.0,-14.0,0
255.0,3.0,10.0,-1.0,50.0,-10.0,0
255.0,3.0,5.0,4.0,52.0,-10.0,0
257.0,1.0,4.0,11.0,54.0,-9.0,0
254.0,3.0,8.0,15.0,56.0,-10.0,0
254.0,4.0,11.0,18.0,58.0,-9.0,0
255.0,4.0,9.0,18.0,60.0,-10.0,0
254.0,2.0,10.0,19.0,65.0,-8.0,0
254.0,2.0,13.0,16.0,67.0,-10.0,0
257.0,4.0,12.0,12.0,69.0,-9.0,0
255.0,3.0,14.0,5.0,71.0,-11.0,0
253.0,1.0,9.0,-4.0,72.0,-9.0,0
259.0,1.0,12.0,-13.0,70.0,-11.0,0
255.0,3.0,13.0,-21.0,69.0,-9.0,0
258.0,3.0,13.0,-29.0,66.0,-10.0,0
259.0,3.0,11.0,-33.0,60.0,-9.0,0
259.0,4.0,11.0,-37.0,55.0,-13.0,0
260.0,1.0,11.0,-40.0,50.0,-14.0,0
260.0,1.0,9.0,-44.0,44.0,-18.0,0
259.0,2.0,9.0,-48.0,39.0,-20.0,0
258.0,5.0,12.0,-54.0,35.0,-24.0,0
259.0,5.0,9.0,-60.0,30.0,-24.0,0
257.0,5.0,11.0,-64.0,29.0,-28.0,0
257.0,6.0,11.0,-71.0,26.0,-27.0,0
255.0,3.0,10.0,-79.0,25.0,-31.0,0
254.0,6.0,10.0,-85.0,25.0,-28.0,0
253.0,5.0,8.0,-89.0,25.0,-29.0,0
257.0,2.0,11.0,-94.0,27.0,-26.0,0
257.0,4.0,10.0,-100.0,29.0,-28.0,0
255.0,3.0,12.0,-102.0,29.0,-23.0,0
258.0,2.0,12.0,-103.0,32.0,-25.0,0
254.0,3.0,10.0,-103.0,32.0,-20.0,0
253.0,3.0,10.0,-101.0,32.0,-20.0,0
257.0,2.0,10.0,-97.0,34.0,-17.0,0
255.0,3.0,10.0,-93.0,35.0,-18.0,0
255.0,3.0,6.0,-90.0,36.0,-17.0,0
256.0,3.0,8.0,-85.0,37.0,-19.0,0
256.0,2.0,10.0,-85.0,37.0,-19.0,0
254.0,3.0,11.0,-81.0,37.0,-20.0,0
253.0,2.0,7.0,-82.0,37.0,-17.0,0
255.0,2.0,8.0,-81.0,36.0,-20.0,0
255.0,5.0,10.0,-82.0,37.0,-20.0,0
253.0,3.0,10.0,-86.0,39.0,-21.0,0
256.0,5.0,12.0,-89.0,42.0,-18.0,0
255.0,5.0,6.0,-94.0,42.0,-21.0,0
255.0,4.0,10.0,-100.0,40.0,-19.0,0
255.0,5.0,12.0,-106.0,40.0,-20.0,0
256.0,4.0,10.0,-113.0,40.0,-17.0,0
259.0,3.0,13.0,-120.0,37.0,-21.0,0
258.0,4.0,12.0,-127.0,34.0,-18.0,0
252.0,3.0,8.0,-131.0,32.0,-21.0,0
255.0,4.0,13.0,-136.0,31.0,-18.0,0
255.0,5.0,9.0,-137.0,29.0,-20.0,0
255.0,2.0,10.0,-140.0,27.0,-19.0,0
257.0,0.0,12.0,-142.0,26.0,-22.0,0
257.0,2.0,10.0,-143.0,23.0,-18.0,0
257.0,1.0,10.0,-141.0,21.0,-22.0,0
256.0,4.0,7.0,-139.0,18.0,-19.0,0
255.0,2.0,10.0,-136.0,17.0,-22.0,0
255.0,3.0,9.0,-132.0,17.0,-21.0,0
258.0,0.0,10.0,-130.0,14.0,-24.0,0
256.0,2.0,7.0,-125.0,12.0,-23.0,0
257.0,1.0,6.0,-118.0,10.0,-26.0,0
256.0,4.0,8.0,-117.0,10.0,-26.0,0
258.0,1.0,7.0,-112.0,7.0,-30.0,0
257.0,2.0,8.0,-110.0,7.0,-28.0,0
254.0,3.0,9.0,-105.0,6.0,-32.0,0
256.0,-1.0,6.0,-102.0,7.0,-30.0,0
256.0,1.0,8.0,-100.0,7.0,-33.0,0
257.0,2.0,11.0,-99.0,8.0,-31.0,0
256.0,1.0,8.0,-98.0,8.0,-35.0,0
252.0,4.0,9.0,-96.0,9.0,-33.0,0
257.0,3.0,9.0,-96.0,10.0,-34.0,0
255.0,3.0,6.0,-98.0,10.0,-32.0,0
257.0,4.0,8.0,-100.0,12.0,-34.0,0
257.0,1.0,8.0,-101.0,13.0,-33.0,0
256.0,1.0,6.0,-101.0,15.0,-35.0,0
254.0,4.0,9.0,-102.0,14.0,-34.0,0
259.0,3.0,9.0,-102.0,13.0,-38.0,0
256.0,5.0,9.0,-105.0,12.0,-37.0,0
258.0,4.0,6.0,-105.0,12.0,-40.0,0
258.0,6.0,7.0,-101.0,10.0,-37.0,0
259.0,6.0,6.0,-99.0,9.0,-40.0,0
258.0,3.0,5.0,-98.0,8.0,-37.0,0
255.0,6.0,6.0,-95.0,7.0,-38.0,0
257.0,2.0,6.0,-95.0,5.0,-35.0,0
254.0,4.0,10.0,-93.0,4.0,-38.0,0
256.0,4.0,3.0,-92.0,2.0,-34.0,0
256.0,5.0,4.0,-92.0,2.0,-38.0,0
256.0,5.0,4.0,-93.0,2.0,-35.0,0
256.0,2.0,2.0,-92.0,3.0,-38.0,0
258.0,4.0,1.0,-91.0,5.0,-35.0,0
257.0,7.0,2.0,-90.0,7.0,-37.0,0
256.0,8.0,0.0,-87.0,8.0,-33.0,0
254.0,6.0,-1.0,-85.0,8.0,-33.0,0
260.0,6.0,2.0,-81.0,14.0,-30.0,0
256.0,6.0,3.0,-79.0,15.0,-31.0,0
256.0,3.0,-1.0,-75.0,17.0,-26.0,0
257.0,4.0,3.0,-68.0,19.0,-28.0,0
257.0,3.0,3.0,-62.0,24.0,-26.0,0
255.0,5.0,2.0,-54.0,28.0,-28.0,0
256.0,5.0,1.0,-43.0,33.0,-26.0,0
257.0,7.0,-1.0,-33.0,38.0,-28.0,0
257.0,7.0,3.0,-24.0,42.0,-24.0,0
259.0,5.0,4.0,-17.0,46.0,-26.0,0
260.0,6.0,2.0,-10.0,50.0,-21.0,0
260.0,9.0,0.0,-4.0,52.0,-22.0,0
257.0,8.0,5.0,2.0,56.0,-19.0,0
257.0,8.0,4.0,8.0,58.0,-18.0,0
254.0,7.0,4.0,12.0,62.0,-13.0,0
258.0,9.0,0.0,15.0,64.0,-12.0,0
258.0,8.0,0.0,18.0,67.0,-8.0,0
259.0,6.0,6.0,20.0,68.0,-7.0,0
255.0,8.0,5.0,20.0,70.0,-3.0,0
257.0,8.0,4.0,21.0,71.0,-3.0,0
257.0,5.0,6.0,20.0,74.0,3.0,0
255.0,10.0,-1.0,20.0,77.0,2.0,0
255.0,8.0,3.0,19.0,78.0,6.0,0
255.0,9.0,2.0,18.0,80.0,6.0,0
257.0,6.0,0.0,17.0,81.0,11.0,0
258.0,6.0,3.0,16.0,83.0,10.0,0
256.0,5.0,7.0,16.0,85.0,13.0,0
257.0,5.0,3.0,15.0,87.0,9.0,0
257.0,6.0,3.0,16.0,90.0,13.0,0
259.0,4.0,0.0,18.0,93.0,10.0,0
257.0,5.0,6.0,18.0,93.0,14.0,0
258.0,8.0,4.0,18.0,95.0,12.0,0
255.0,5.0,2.0,20.0,98.0,15.0,0
254.0,6.0,3.0,21.0,99.0,13.0,0
256.0,5.0,6.0,21.0,99.0,14.0,0
257.0,4.0,6.0,20.0,103.0,12.0,0
255.0,4.0,8.0,20.0,103.0,13.0,0
255.0,4.0,4.0,19.0,104.0,11.0,0
258.0,3.0,4.0,18.0,106.0,12.0,0
256.0,4.0,6.0,16.0,106.0,9.0,0
258.0,5.0,5.0,14.0,106.0,12.0,0
255.0,3.0,7.0,11.0,107.0,8.0,0
257.0,7.0,8.0,7.0,108.0,10.0,0
258.0,2.0,6.0,3.0,109.0,6.0,0
258.0,6.0,7.0,-2.0,109.0,9.0,0
258.0,3.0,6.0,-7.0,110.0,6.0,0
256.0,2.0,6.0,-12.0,111.0,7.0,0
256.0,3.0,8.0,-16.0,109.0,7.0,0
259.0,1.0,7.0,-20.0,109.0,10.0,0
254.0,1.0,11.0,-21.0,107.0,8.0,0
258.0,4.0,5.0,-22.0,106.0,11.0,0
258.0,3.0,11.0,-23.0,102.0,8.0,0
256.0,5.0,7.0,-22.0,100.0,11.0,0
257.0,3.0,6.0,-20.0,96.0,10.0,0
258.0,3.0,6.0,-17.0,94.0,12.0,0
258.0,5.0,5.0,-14.0,93.0,10.0,0
256.0,7.0,2.0,-9.0,93.0,13.0,0
259.0,2.0,5.0,-4.0,91.0,11.0,0
256.0,7.0,6.0,2.0,91.0,13.0,0
258.0,5.0,8.0,4.0,88.0,11.0,0
256.0,4.0,4.0,7.0,88.0,12.0,0
255.0,7.0,6.0,11.0,87.0,11.0,0
257.0,4.0,8.0,14.0,86.0,12.0,0
255.0,3.0,9.0,17.0,85.0,10.0,0
256.0,7.0,5.0,16.0,87.0,12.0,0
255.0,5.0,6.0,18.0,86.0,10.0,0
256.0,3.0,6.0,19.0,85.0,11.0,0
254.0,6.0,4.0,20.0,86.0,10.0,0
257.0,3.0,8.0,18.0,86.0,10.0,0
257.0,2.0,11.0,17.0,86.0,9.0,0
255.0,5.0,8.0,16.0,88.0,9.0,0
257.0,6.0,6.0,12.0,88.0,6.0,0
254.0,5.0,9.0,10.0,87.0,8.0,0
255.0,4.0,12.0,8.0,87.0,4.0,0
257.0,3.0,10.0,4.0,87.0,6.0,0
257.0,4.0,7.0,1.0,87.0,4.0,0
256.0,3.0,11.0,0.0,84.0,6.0,0
255.0,5.0,7.0,-4.0,85.0,1.0,0
255.0,6.0,9.0,-3.0,83.0,2.0,0
256.0,4.0,8.0,-3.0,83.0,1.0,0
253.0,4.0,9.0,-3.0,83.0,2.0,0
256.0,5.0,11.0,-3.0,82.0,0.0,0
253.0,6.0,10.0,-4.0,80.0,1.0,0
257.0,4.0,10.0,-5.0,79.0,-1.0,0
258.0,3.0,11.0,-8.0,79.0,0.0,0
255.0,5.0,9.0,-11.0,76.0,-2.0,0
253.0,4.0,11.0,-14.0,73.0,1.0,0
256.0,6.0,9.0,-17.0,69.0,-3.0,0
256.0,5.0,6.0,-21.0,66.0,-3.0,0
256.0,7.0,10.0,-23.0,62.0,-3.0,0
257.0,5.0,9.0,-24.0,61.0,-1.0,0
260.0,6.0,8.0,-25.0,60.0,-5.0,0
257.0,6.0,10.0,-27.0,58.0,-4.0,0
255.0,7.0,11.0,-28.0,58.0,-5.0,0
256.0,5.0,12.0,-28.0,56.0,-5.0,0
256.0,4.0,7.0,-29.0,56.0,-6.0,0
254.0,5.0,7.0,-30.0,56.0,-5.0,0
258.0,3.0,6.0,-29.0,55.0,-7.0,0
256.0,3.0,5.0,-27.0,53.0,-3.0,0
255.0,4.0,8.0,-27.0,55.0,-4.0,0
255.0,2.0,8.0,-27.0,57.0,-3.0,0
255.0,6.0,6.0,-26.0,57.0,-4.0,0
256.0,6.0,4.0,-24.0,59.0,-1.0,0
254.0,5.0,8.0,-22.0,61.0,-1.0,0
256.0,4.0,11.0,-22.0,62.0,1.0,0
254.0,4.0,6.0,-20.0,65.0,-2.0,0
258.0,3.0,5.0,-20.0,65.0,-1.0,0
255.0,4.0,11.0,-20.0,66.0,-1.0,0
254.0,4.0,9.0,-21.0,67.0,2.0,0
257.0,5.0,8.0,-23.0,66.0,1.0,0
255.0,7.0,6.0,-27.0,68.0,4.0,0
256.0,2.0,10.0,-30.0,67.0,2.0,0
258.0,7.0,4.0,-33.0,66.0,4.0,0
255.0,6.0,11.0,-35.0,65.0,1.0,0
257.0,4.0,5.0,-36.0,60.0,2.0,0
254.0,5.0,10.0,-34.0,59.0,3.0,0
253.0,8.0,9.0,-32.0,58.0,4.0,0
256.0,3.0,8.0,-28.0,58.0,3.0,0
257.0,5.0,10.0,-24.0,57.0,3.0,0
257.0,4.0,8.0,-19.0,57.0,3.0,0
256.0,7.0,8.0,-15.0,55.0,3.0,0
254.0,3.0,10.0,-12.0,55.0,1.0,0
257.0,4.0,6.0,-9.0,56.0,1.0,0
256.0,1.0,4.0,-7.0,57.0,-1.0,0
256.0,7.0,4.0,-6.0,56.0,0.0,0
256.0,4.0,8.0,-4.0,56.0,-2.0,0
258.0,5.0,2.0,-5.0,58.0,0.0,0
255.0,8.0,4.0,-4.0,59.0,-2.0,0
256.0,4.0,5.0,-2.0,58.0,0.0,0
255.0,4.0,2.0,-1.0,58.0,-2.0,0
256.0,2.0,6.0,-1.0,58.0,0.0,0
255.0,5.0,5.0,2.0,62.0,0.0,0
259.0,2.0,5.0,3.0,64.0,2.0,0
256.0,3.0,9.0,3.0,66.0,1.0,0
254.0,3.0,8.0,3.0,68.0,2.0,0
252.0,4.0,6.0,5.0,70.0,0.0,0
255.0,1.0,6.0,8.0,71.0,3.0,0
258.0,2.0,9.0,9.0,74.0,2.0,0
256.0,5.0,10.0,11.0,76.0,3.0,0
253.0,4.0,12.0,14.0,77.0,2.0,0
255.0,3.0,10.0,13.0,77.0,2.0,0
256.0,8.0,6.0,13.0,74.0,1.0,0
259.0,6.0,11.0,14.0,73.0,0.0,0
255.0,6.0,8.0,13.0,69.0,0.0,0
259.0,3.0,13.0,10.0,68.0,-3.0,0
256.0,4.0,12.0,7.0,66.0,-5.0,0
255.0,6.0,9.0,3.0,64.0,-5.0,0
255.0,5.0,9.0,-2.0,61.0,-7.0,0
256.0,6.0,7.0,-8.0,58.0,-5.0,0
255.0,5.0,5.0,-15.0,55.0,-7.0,0
256.0,6.0,5.0,-20.0,53.0,-7.0,0
257.0,6.0,7.0,-26.0,50.0,-8.0,0
256.0,2.0,10.0,-28.0,50.0,-7.0,0
255.0,3.0,8.0,-31.0,47.0,-7.0,0
255.0,5.0,6.0,-30.0,47.0,-6.0,0
255.0,5.0,6.0,-28.0,46.0,-7.0,0
259.0,3.0,8.0,-27.0,45.0,-6.0,0
254.0,3.0,8.0,-25.0,47.0,-7.0,0
254.0,5.0,10.0,-20.0,48.0,-7.0,0
258.0,4.0,10.0,-18.0,48.0,-7.0,0
257.0,3.0,9.0,-15.0,48.0,-6.0,0
255.0,3.0,5.0,-10.0,49.0,-8.0,0
255.0,5.0,10.0,-8.0,51.0,-7.0,0
254.0,5.0,4.0,-8.0,51.0,-8.0,0
257.0,5.0,6.0,-7.0,51.0,-7.0,0
263.0,2.0,16.0,-6.0,51.0,-6.0,0
255.0,7.0,8.0,-6.0,52.0,-4.0,0
259.0,5.0,6.0,-4.0,52.0,-3.0,0
255.0,5.0,8.0,-3.0,54.0,-1.0,0
258.0,4.0,8.0,-3.0,56.0,-1.0,0
256.0,8.0,11.0,-3.0,57.0,1.0,0
254.0,6.0,6.0,-3.0,58.0,3.0,0
256.0,5.0,7.0,-3.0,60.0,4.0,0
253.0,5.0,10.0,-3.0,59.0,5.0,0
258.0,3.0,8.0,-4.0,59.0,6.0,0
258.0,2.0,11.0,-6.0,58.0,8.0,0
256.0,3.0,10.0,-7.0,57.0,8.0,0
259.0,4.0,11.0,-8.0,56.0,7.0,0
256.0,4.0,6.0,-8.0,54.0,7.0,0
258.0,6.0,7.0,-8.0,54.0,6.0,0
257.0,6.0,9.0,-7.0,52.0,5.0,0
254.0,3.0,7.0,-8.0,50.0,3.0,0
256.0,4.0,7.0,-8.0,50.0,2.0,0
256.0,3.0,9.0,-10.0,49.0,2.0,0
254.0,5.0,6.0,-12.0,50.0,1.0,0
255.0,6.0,3.0,-14.0,50.0,1.0,0
258.0,5.0,9.0,-15.0,48.0,1.0,0
257.0,3.0,11.0,-15.0,48.0,0.0,0
258.0,6.0,7.0,-15.0,47.0,0.0,0
258.0,4.0,6.0,-18.0,46.0,0.0,0
257.0,3.0,9.0,-18.0,48.0,-1.0,0
256.0,5.0,5.0,-17.0,49.0,-1.0,0
258.0,4.0,9.0,-17.0,50.0,0.0,0
256.0,5.0,9.0,-17.0,52.0,0.0,0
254.0,3.0,9.0,-15.0,54.0,1.0,0
257.0,2.0,5.0,-14.0,55.0,2.0,0
256.0,5.0,10.0,-15.0,56.0,3.0,0
253.0,2.0,5.0,-16.0,57.0,3.0,0
256.0,1.0,12.0,-14.0,58.0,4.0,0
253.0,2.0,5.0,-13.0,59.0,4.0,0
255.0,3.0,10.0,-13.0,59.0,4.0,0
257.0,4.0,11.0,-13.0,60.0,3.0,0
253.0,5.0,9.0,-14.0,61.0,4.0,0
256.0,2.0,9.0,-13.0,61.0,2.0,0
256.0,4.0,7.0,-14.0,62.0,1.0,0
255.0,4.0,9.0,-13.0,60.0,2.0,0
257.0,4.0,7.0,-13.0,57.0,1.0,0
255.0,5.0,10.0,-12.0,56.0,1.0,0
256.0,5.0,8.0,-12.0,55.0,0.0,0
257.0,1.0,4.0,-11.0,56.0,-1.0,0
256.0,5.0,11.0,-10.0,55.0,-1.0,0
255.0,5.0,11.0,-9.0,55.0,-1.0,0
257.0,4.0,6.0,-9.0,55.0,-2.0,0
256.0,4.0,10.0,-11.0,53.0,-1.0,0
257.0,4.0,6.0,-10.0,54.0,-2.0,0
256.0,2.0,6.0,-12.0,55.0,-2.0,0
256.0,1.0,9.0,-12.0,53.0,-2.0,0
258.0,0.0,7.0,-12.0,53.0,-2.0,0
258.0,4.0,8.0,-11.0,52.0,-3.0,0
255.0,2.0,10.0,-11.0,51.0,-2.0,0
259.0,3.0,8.0,-11.0,48.0,-3.0,0
256.0,1.0,7.0,-12.0,49.0,-3.0,0
257.0,1.0,9.0,-11.0,48.0,-2.0,0
256.0,4.0,11.0,-11.0,47.0,-3.0,0
255.0,2.0,12.0,-11.0,47.0,-6.0,0
255.0,4.0,11.0,-13.0,46.0,-7.0,0
259.0,-1.0,8.0,-14.0,45.0,-8.0,0
255.0,4.0,6.0,-15.0,44.0,-9.0,0
257.0,3.0,9.0,-17.0,43.0,-10.0,0
256.0,5.0,8.0,-17.0,44.0,-11.0,0
257.0,3.0,8.0,-18.0,42.0,-13.0,0
258.0,4.0,4.0,-18.0,40.0,-13.0,0
257.0,7.0,10.0,-19.0,40.0,-14.0,0
257.0,4.0,5.0,-22.0,41.0,-13.0,0
254.0,4.0,9.0,-22.0,39.0,-16.0,0
260.0,2.0,3.0,-26.0,39.0,-15.0,0
257.0,3.0,7.0,-25.0,40.0,-14.0,0
255.0,5.0,8.0,-24.0,43.0,-14.0,0
255.0,4.0,4.0,-24.0,43.0,-14.0,0
258.0,4.0,7.0,-23.0,45.0,-12.0,0
256.0,6.0,6.0,-20.0,49.0,-12.0,0
256.0,4.0,4.0,-17.0,51.0,-11.0,0
255.0,4.0,2.0,-14.0,53.0,-10.0,0
258.0,5.0,5.0,-12.0,53.0,-8.0,0
259.0,3.0,4.0,-10.0,57.0,-8.0,0
256.0,6.0,5.0,-7.0,58.0,-8.0,0
255.0,5.0,10.0,-7.0,60.0,-9.0,0
255.0,5.0,6.0,-7.0,62.0,-9.0,0
255.0,3.0,10.0,-7.0,61.0,-9.0,0
255.0,5.0,4.0,-5.0,61.0,-7.0,0
256.0,5.0,5.0,-6.0,63.0,-8.0,0
257.0,5.0,8.0,-6.0,62.0,-6.0,0
257.0,2.0,8.0,-6.0,61.0,-6.0,0
260.0,2.0,7.0,-5.0,63.0,-5.0,0
256.0,5.0,5.0,-7.0,61.0,-5.0,0
258.0,5.0,4.0,-5.0,60.0,-3.0,0
256.0,4.0,3.0,-6.0,58.0,-3.0,0
256.0,6.0,7.0,-8.0,57.0,-2.0,0
258.0,3.0,7.0,-9.0,56.0,-3.0,0
257.0,4.0,7.0,-10.0,54.0,-3.0,0
258.0,6.0,5.0,-11.0,55.0,-3.0,0
258.0,1.0,4.0,-15.0,53.0,-3.0,0
259.0,5.0,7.0,-15.0,53.0,-3.0,0
258.0,3.0,4.0,-15.0,52.0,-1.0,0
257.0,3.0,4.0,-13.0,52.0,-1.0,0
261.0,4.0,2.0,-10.0,52.0,2.0,0
258.0,6.0,1.0,-5.0,52.0,2.0,0
259.0,5.0,3.0,-1.0,51.0,4.0,0
259.0,5.0,3.0,2.0,49.0,4.0,0
259.0,7.0,4.0,6.0,48.0,5.0,0
259.0,5.0,3.0,8.0,48.0,5.0,0
261.0,3.0,3.0,11.0,48.0,7.0,0
256.0,7.0,0.0,14.0,50.0,7.0,0
259.0,6.0,4.0,14.0,51.0,10.0,0
254.0,9.0,4.0,16.0,54.0,13.0,0
257.0,4.0,4.0,18.0,58.0,18.0,0
258.0,4.0,6.0,21.0,57.0,21.0,0
261.0,4.0,3.0,25.0,57.0,26.0,0
262.0,3.0,8.0,29.0,56.0,27.0,0
261.0,4.0,8.0,34.0,51.0,30.0,0
264.0,5.0,5.0,38.0,48.0,29.0,0
263.0,6.0,2.0,42.0,46.0,34.0,0
262.0,6.0,0.0,45.0,45.0,34.0,0
265.0,7.0,-1.0,49.0,44.0,39.0,0
264.0,5.0,-4.0,51.0,46.0,43.0,0
263.0,10.0,2.0,56.0,49.0,52.0,0
261.0,9.0,5.0,61.0,53.0,58.0,0
258.0,9.0,9.0,66.0,55.0,67.0,0
260.0,8.0,11.0,74.0,50.0,69.0,0
261.0,13.0,17.0,79.0,36.0,74.0,0
258.0,15.0,19.0,80.0,15.0,74.0,0
262.0,21.0,29.0,72.0,-10.0,76.0,0
262.0,24.0,35.0,56.0,-46.0,75.0,0
265.0,22.0,40.0,35.0,-94.0,74.0,0
266.0,31.0,41.0,8.0,-165.0,70.0,0
270.0,37.0,32.0,-39.0,-248.0,66.0,0
274.0,41.0,12.0,-149.0,-339.0,57.0,0
282.0,37.0,-8.0,-299.0,-388.0,44.0,0
286.0,34.0,-18.0,-482.0,-405.0,22.0,0
288.0,26.0,-21.0,-670.0,-410.0,-8.0,0
291.0,8.0,-27.0,-811.0,-423.0,-47.0,0
288.0,3.0,-19.0,-873.0,-446.0,-82.0,0
288.0,-4.0,-21.0,-838.0,-473.0,-117.0,0
282.0,-5.0,-19.0,-715.0,-495.0,-142.0,0
275.0,-4.0,-23.0,-532.0,-501.0,-159.0,0
274.0,-3.0,-27.0,-322.0,-483.0,-169.0,0
270.0,2.0,-31.0,-117.0,-419.0,-189.0,0
259.0,12.0,-42.0,91.0,-338.0,-199.0,0
255.0,18.0,-46.0,213.0,-241.0,-208.0,0
252.0,24.0,-49.0,280.0,-132.0,-203.0,0
247.0,29.0,-55.0,295.0,-25.0,-195.0,0
248.0,26.0,-50.0,268.0,77.0,-170.0,0
247.0,22.0,-43.0,212.0,177.0,-136.0,0
249.0,19.0,-43.0,139.0,272.0,-85.0,0
251.0,20.0,-39.0,61.0,355.0,-25.0,0
251.0,17.0,-34.0,-15.0,433.0,45.0,0
247.0,15.0,-26.0,-84.0,513.0,129.0,0
250.0,15.0,-23.0,-153.0,570.0,206.0,0
250.0,11.0,-19.0,-203.0,620.0,276.0,0
249.0,10.0,-22.0,-252.0,661.0,342.0,0
251.0,4.0,-16.0,-301.0,697.0,396.0,0
251.0,0.0,-20.0,-351.0,725.0,443.0,0
258.0,-4.0,-11.0,-403.0,743.0,470.0,0
262.0,-8.0,-13.0,-443.0,758.0,487.0,0
267.0,-15.0,-9.0,-469.0,763.0,492.0,0
269.0,-26.0,-12.0,-480.0,761.0,488.0,0
273.0,-28.0,-7.0,-470.0,758.0,463.0,0
276.0,-35.0,-4.0,-435.0,748.0,436.0,0
278.0,-36.0,-1.0,-391.0,735.0,396.0,0
275.0,-35.0,6.0,-336.0,716.0,359.0,0
274.0,-37.0,9.0,-276.0,684.0,307.0,0
272.0,-38.0,15.0,-209.0,656.0,261.0,0
266.0,-35.0,17.0,-143.0,633.0,220.0,0
257.0,-33.0,20.0,-81.0,616.0,188.0,0
257.0,-35.0,24.0,-31.0,598.0,151.0,0
252.0,-33.0,29.0,8.0,582.0,130.0,0
248.0,-32.0,30.0,35.0,566.0,110.0,0
244.0,-31.0,28.0,48.0,539.0,97.0,0
242.0,-27.0,24.0,43.0,518.0,86.0,0
239.0,-22.0,28.0,29.0,497.0,84.0,0
235.0,-21.0,28.0,17.0,481.0,84.0,0
231.0,-20.0,28.0,9.0,455.0,82.0,0
229.0,-17.0,29.0,10.0,431.0,72.0,0
228.0,-13.0,33.0,20.0,405.0,64.0,0
231.0,-13.0,37.0,37.0,380.0,51.0,0
228.0,-9.0,41.0,60.0,361.0,47.0,0
224.0,-4.0,38.0,82.0,344.0,43.0,0
225.0,-4.0,38.0,94.0,317.0,41.0,0
226.0,-4.0,40.0,91.0,288.0,36.0,0
224.0,-3.0,43.0,79.0,263.0,45.0,0
225.0,1.0,47.0,61.0,240.0,52.0,0
225.0,-3.0,50.0,41.0,215.0,62.0,0
230.0,-2.0,50.0,19.0,188.0,59.0,0
231.0,-2.0,54.0,-4.0,166.0,61.0,0
233.0,-2.0,54.0,-26.0,150.0,60.0,0
230.0,-3.0,57.0,-45.0,135.0,64.0,0
237.0,-1.0,53.0,-65.0,114.0,58.0,0
240.0,-2.0,53.0,-79.0,99.0,57.0,0
241.0,-3.0,54.0,-85.0,78.0,51.0,0
243.0,-4.0,53.0,-81.0,54.0,42.0,0
247.0,-3.0,51.0,-70.0,35.0,28.0,0
245.0,-1.0,48.0,-49.0,18.0,19.0,0
252.0,-4.0,46.0,-22.0,5.0,4.0,0
250.0,-5.0,47.0,17.0,-13.0,-7.0,0
252.0,-4.0,47.0,67.0,-31.0,-25.0,0
251.0,-3.0,46.0,126.0,-49.0,-43.0,0
252.0,-3.0,43.0,187.0,-67.0,-70.0,0
254.0,1.0,43.0,241.0,-83.0,-94.0,0
252.0,-2.0,46.0,287.0,-97.0,-134.0,0
253.0,0.0,50.0,313.0,-106.0,-161.0,0
244.0,0.0,56.0,326.0,-109.0,-190.0,0
240.0,-1.0,58.0,332.0,-113.0,-209.0,0
235.0,-1.0,63.0,320.0,-122.0,-226.0,0
235.0,-2.0,61.0,295.0,-139.0,-229.0,0
232.0,0.0,64.0,250.0,-160.0,-230.0,0
233.0,-2.0,56.0,194.0,-185.0,-216.0,0
232.0,1.0,55.0,136.0,-210.0,-196.0,0
232.0,0.0,50.0,78.0,-236.0,-164.0,0
231.0,1.0,55.0,30.0,-272.0,-128.0,0
230.0,-1.0,50.0,-13.0,-308.0,-94.0,0
233.0,-1.0,54.0,-39.0,-345.0,-60.0,0
231.0,2.0,55.0,-54.0,-382.0,-18.0,0
230.0,-1.0,60.0,-69.0,-417.0,23.0,0
229.0,-4.0,60.0,-87.0,-456.0,70.0,0
228.0,-6.0,56.0,-111.0,-497.0,109.0,0
235.0,-6.0,59.0,-146.0,-541.0,142.0,0
239.0,-12.0,55.0,-186.0,-579.0,160.0,0
241.0,-11.0,54.0,-216.0,-609.0,173.0,0
243.0,-10.0,43.0,-237.0,-641.0,175.0,0
244.0,-7.0,41.0,-244.0,-665.0,177.0,0
243.0,-7.0,38.0,-231.0,-676.0,166.0,0
242.0,-4.0,35.0,-192.0,-693.0,157.0,0
242.0,-5.0,36.0,-140.0,-724.0,137.0,0
242.0,-5.0,35.0,-90.0,-763.0,112.0,0
241.0,-6.0,35.0,-51.0,-803.0,82.0,0
243.0,-3.0,23.0,-27.0,-839.0,56.0,0
243.0,0.0,24.0,-20.0,-871.0,28.0,0
247.0,5.0,14.0,-38.0,-906.0,17.0,0
247.0,7.0,5.0,-75.0,-937.0,6.0,0
252.0,12.0,1.0,-119.0,-971.0,18.0,0
254.0,12.0,-8.0,-165.0,-991.0,32.0,0
255.0,13.0,-18.0,-188.0,-1013.0,57.0,0
261.0,14.0,-20.0,-200.0,-1028.0,79.0,0
263.0,17.0,-30.0,-196.0,-1022.0,93.0,0
268.0,22.0,-35.0,-186.0,-1013.0,95.0,0
275.0,26.0,-31.0,-167.0,-1009.0,101.0,0
281.0,29.0,-41.0,-139.0,-1006.0,97.0,0
281.0,36.0,-39.0,-123.0,-997.0,91.0,0
285.0,38.0,-39.0,-110.0,-981.0,78.0,0
291.0,44.0,-40.0,-102.0,-970.0,68.0,0
296.0,46.0,-40.0,-95.0,-962.0,48.0,0
289.0,53.0,-38.0,-99.0,-948.0,26.0,0
283.0,55.0,-40.0,-109.0,-943.0,5.0,0
277.0,58.0,-45.0,-125.0,-956.0,7.0,0
278.0,61.0,-42.0,-155.0,-972.0,24.0,0
271.0,57.0,-42.0,-179.0,-997.0,59.0,0
270.0,51.0,-49.0,-197.0,-1022.0,96.0,0
269.0,49.0,-47.0,-220.0,-1040.0,144.0,0
271.0,46.0,-46.0,-244.0,-1054.0,191.0,0
264.0,35.0,-53.0,-262.0,-1071.0,263.0,0
266.0,28.0,-54.0,-276.0,-1094.0,318.0,0
262.0,18.0,-54.0,-276.0,-1108.0,369.0,0
258.0,12.0,-51.0,-266.0,-1117.0,403.0,0
258.0,0.0,-52.0,-248.0,-1121.0,434.0,0
260.0,-3.0,-51.0,-229.0,-1119.0,462.0,0
256.0,-14.0,-49.0,-205.0,-1115.0,494.0,0
256.0,-17.0,-47.0,-174.0,-1110.0,507.0,0
258.0,-19.0,-53.0,-129.0,-1115.0,504.0,0
258.0,-21.0,-50.0,-81.0,-1125.0,488.0,0
258.0,-12.0,-53.0,-36.0,-1146.0,472.0,0
255.0,-7.0,-55.0,-2.0,-1169.0,459.0,0
253.0,-11.0,-55.0,1.0,-1179.0,460.0,0
252.0,-4.0,-53.0,-7.0,-1193.0,461.0,0
260.0,0.0,-52.0,-20.0,-1209.0,476.0,0
263.0,0.0,-53.0,-34.0,-1229.0,501.0,0
263.0,0.0,-52.0,-51.0,-1253.0,542.0,0
263.0,-3.0,-49.0,-70.0,-1272.0,591.0,0
270.0,-4.0,-53.0,-83.0,-1275.0,647.0,0
269.0,-5.0,-52.0,-91.0,-1273.0,696.0,0
268.0,-5.0,-55.0,-92.0,-1259.0,758.0,0
262.0,-8.0,-58.0,-83.0,-1238.0,831.0,0
258.0,-12.0,-62.0,-58.0,-1213.0,893.0,0
257.0,-18.0,-67.0,-26.0,-1192.0,945.0,0
249.0,-22.0,-62.0,9.0,-1175.0,989.0,0
243.0,-21.0,-68.0,38.0,-1158.0,1023.0,0
243.0,-22.0,-60.0,59.0,-1150.0,1050.0,0
243.0,-25.0,-66.0,76.0,-1152.0,1064.0,0
240.0,-26.0,-67.0,77.0,-1155.0,1072.0,0
238.0,-27.0,-66.0,63.0,-1165.0,1072.0,0
234.0,-27.0,-71.0,34.0,-1171.0,1070.0,0
232.0,-23.0,-69.0,-4.0,-1171.0,1067.0,0
231.0,-25.0,-72.0,-49.0,-1169.0,1069.0,0
235.0,-26.0,-75.0,-113.0,-1164.0,1071.0,0
233.0,-28.0,-77.0,-165.0,-1154.0,1071.0,0
231.0,-29.0,-81.0,-223.0,-1143.0,1075.0,0
234.0,-31.0,-85.0,-269.0,-1142.0,1085.0,0
229.0,-30.0,-88.0,-298.0,-1138.0,1096.0,0
226.0,-33.0,-92.0,-317.0,-1139.0,1115.0,0
227.0,-31.0,-98.0,-323.0,-1142.0,1132.0,0
225.0,-30.0,-99.0,-318.0,-1155.0,1148.0,0
222.0,-27.0,-107.0,-308.0,-1169.0,1160.0,0
216.0,-28.0,-113.0,-299.0,-1182.0,1176.0,0
221.0,-31.0,-113.0,-285.0,-1188.0,1192.0,0
216.0,-34.0,-118.0,-277.0,-1188.0,1204.0,0
220.0,-36.0,-120.0,-269.0,-1182.0,1213.0,0
218.0,-37.0,-118.0,-252.0,-1177.0,1223.0,0
222.0,-40.0,-122.0,-220.0,-1170.0,1225.0,0
220.0,-44.0,-125.0,-184.0,-1155.0,1229.0,0
220.0,-47.0,-127.0,-153.0,-1140.0,1224.0,0
227.0,-52.0,-133.0,-123.0,-1124.0,1211.0,0
221.0,-52.0,-132.0,-96.0,-1106.0,1181.0,0
219.0,-51.0,-130.0,-77.0,-1094.0,1138.0,0
216.0,-46.0,-138.0,-58.0,-1082.0,1098.0,0
209.0,-45.0,-133.0,-61.0,-1064.0,1065.0,0
209.0,-43.0,-133.0,-69.0,-1039.0,1036.0,0
205.0,-42.0,-123.0,-83.0,-1012.0,1023.0,0
201.0,-38.0,-125.0,-94.0,-1002.0,1017.0,0
200.0,-40.0,-127.0,-107.0,-993.0,1026.0,0
201.0,-38.0,-127.0,-124.0,-982.0,1044.0,0
205.0,-44.0,-128.0,-145.0,-963.0,1078.0,0
214.0,-51.0,-130.0,-164.0,-946.0,1113.0,0
214.0,-58.0,-136.0,-177.0,-934.0,1155.0,0
212.0,-63.0,-139.0,-184.0,-912.0,1202.0,0
220.0,-72.0,-142.0,-178.0,-886.0,1245.0,0
222.0,-80.0,-150.0,-168.0,-864.0,1281.0,0
213.0,-85.0,-152.0,-149.0,-848.0,1304.0,0
203.0,-85.0,-155.0,-104.0,-842.0,1303.0,0
193.0,-80.0,-166.0,-47.0,-835.0,1294.0,0
184.0,-86.0,-170.0,-7.0,-815.0,1281.0,0
180.0,-89.0,-168.0,22.0,-794.0,1260.0,0
175.0,-92.0,-164.0,35.0,-775.0,1228.0,0
167.0,-95.0,-172.0,37.0,-757.0,1184.0,0
171.0,-101.0,-169.0,32.0,-739.0,1126.0,0
171.0,-113.0,-167.0,3.0,-726.0,1095.0,0
166.0,-130.0,-171.0,-20.0,-722.0,1067.0,0
163.0,-137.0,-168.0,-40.0,-721.0,1030.0,0
160.0,-147.0,-165.0,-61.0,-721.0,986.0,0
158.0,-152.0,-164.0,-79.0,-714.0,943.0,0
158.0,-155.0,-162.0,-85.0,-699.0,894.0,0
151.0,-156.0,-162.0,-82.0,-671.0,849.0,0
148.0,-158.0,-161.0,-67.0,-636.0,806.0,0
139.0,-150.0,-161.0,-49.0,-601.0,769.0,0
137.0,-149.0,-165.0,-31.0,-579.0,744.0,0
132.0,-142.0,-159.0,-2.0,-579.0,735.0,0
129.0,-135.0,-171.0,24.0,-589.0,734.0,0
129.0,-134.0,-174.0,53.0,-604.0,742.0,0
123.0,-129.0,-175.0,76.0,-618.0,757.0,0
123.0,-129.0,-174.0,87.0,-625.0,771.0,0
120.0,-128.0,-177.0,82.0,-631.0,786.0,0
116.0,-129.0,-175.0,64.0,-634.0,800.0,0
115.0,-132.0,-177.0,44.0,-638.0,812.0,0
116.0,-134.0,-180.0,22.0,-640.0,829.0,0
113.0,-139.0,-181.0,2.0,-643.0,845.0,0
110.0,-137.0,-181.0,-13.0,-653.0,870.0,0
114.0,-139.0,-184.0,-28.0,-665.0,886.0,0
118.0,-142.0,-194.0,-31.0,-669.0,902.0,0
119.0,-148.0,-196.0,-24.0,-671.0,924.0,0
117.0,-154.0,-199.0,-3.0,-680.0,948.0,0
113.0,-157.0,-207.0,32.0,-694.0,970.0,0
111.0,-157.0,-210.0,71.0,-708.0,971.0,0
111.0,-165.0,-215.0,109.0,-720.0,959.0,0
108.0,-170.0,-218.0,145.0,-720.0,941.0,0
99.0,-165.0,-220.0,178.0,-690.0,907.0,0
106.0,-152.0,-201.0,202.0,-654.0,856.0,0
95.0,-162.0,-212.0,205.0,-593.0,815.0,0
100.0,-160.0,-210.0,199.0,-539.0,769.0,0
102.0,-161.0,-203.0,185.0,-481.0,724.0,0
104.0,-159.0,-191.0,176.0,-431.0,686.0,0
107.0,-158.0,-191.0,175.0,-385.0,652.0,0
110.0,-153.0,-187.0,179.0,-347.0,631.0,0
112.0,-147.0,-187.0,196.0,-315.0,617.0,0
111.0,-144.0,-182.0,219.0,-288.0,610.0,0
106.0,-137.0,-182.0,241.0,-268.0,613.0,0
107.0,-135.0,-179.0,252.0,-258.0,621.0,0
103.0,-127.0,-179.0,243.0,-253.0,628.0,0
104.0,-127.0,-177.0,215.0,-253.0,633.0,0
95.0,-127.0,-177.0,182.0,-262.0,639.0,0
95.0,-126.0,-175.0,155.0,-278.0,642.0,0
91.0,-122.0,-174.0,122.0,-292.0,645.0,0
89.0,-122.0,-176.0,84.0,-308.0,645.0,0
90.0,-124.0,-178.0,38.0,-322.0,644.0,0
89.0,-120.0,-176.0,-7.0,-336.0,646.0,0
89.0,-120.0,-182.0,-48.0,-353.0,658.0,0
87.0,-121.0,-181.0,-89.0,-373.0,667.0,0
87.0,-126.0,-186.0,-122.0,-403.0,684.0,0
89.0,-129.0,-193.0,-142.0,-424.0,693.0,0
94.0,-132.0,-200.0,-144.0,-435.0,703.0,0
97.0,-138.0,-204.0,-132.0,-439.0,714.0,0
98.0,-138.0,-200.0,-108.0,-440.0,717.0,0
100.0,-141.0,-204.0,-73.0,-434.0,725.0,0
99.0,-146.0,-207.0,-26.0,-428.0,732.0,0
103.0,-148.0,-201.0,25.0,-421.0,730.0,0
102.0,-155.0,-204.0,78.0,-415.0,723.0,0
102.0,-159.0,-208.0,131.0,-409.0,708.0,0
105.0,-161.0,-206.0,185.0,-394.0,691.0,0
102.0,-162.0,-211.0,239.0,-374.0,671.0,0
101.0,-161.0,-206.0,278.0,-350.0,656.0,0
102.0,-166.0,-203.0,313.0,-322.0,634.0,0
100.0,-164.0,-205.0,338.0,-288.0,610.0,0
105.0,-162.0,-199.0,349.0,-253.0,583.0,0
99.0,-159.0,-193.0,342.0,-222.0,555.0,0
97.0,-162.0,-192.0,333.0,-199.0,526.0,0
92.0,-162.0,-189.0,333.0,-186.0,502.0,0
90.0,-159.0,-189.0,355.0,-180.0,479.0,0
88.0,-160.0,-184.0,384.0,-174.0,456.0,0
89.0,-154.0,-185.0,422.0,-173.0,436.0,0
88.0,-154.0,-187.0,446.0,-174.0,430.0,0
86.0,-151.0,-183.0,462.0,-179.0,419.0,0
84.0,-147.0,-179.0,464.0,-181.0,415.0,0
84.0,-152.0,-180.0,457.0,-188.0,414.0,0
80.0,-148.0,-179.0,446.0,-192.0,416.0,0
80.0,-150.0,-181.0,435.0,-201.0,418.0,0
83.0,-149.0,-181.0,416.0,-212.0,421.0,0
84.0,-151.0,-182.0,401.0,-220.0,428.0,0
81.0,-148.0,-185.0,385.0,-232.0,439.0,0
82.0,-148.0,-183.0,372.0,-239.0,451.0,0
84.0,-150.0,-184.0,364.0,-245.0,464.0,0
86.0,-152.0,-183.0,367.0,-251.0,473.0,0
87.0,-151.0,-183.0,372.0,-253.0,482.0,0
90.0,-156.0,-187.0,365.0,-253.0,491.0,0
90.0,-159.0,-185.0,359.0,-261.0,499.0,0
90.0,-157.0,-195.0,363.0,-269.0,503.0,0
93.0,-153.0,-192.0,375.0,-269.0,518.0,0
90.0,-150.0,-193.0,390.0,-270.0,542.0,0
87.0,-149.0,-195.0,408.0,-273.0,571.0,0
87.0,-151.0,-187.0,432.0,-272.0,601.0,0
85.0,-152.0,-189.0,468.0,-271.0,628.0,0
83.0,-158.0,-189.0,498.0,-271.0,649.0,0
80.0,-157.0,-183.0,532.0,-277.0,667.0,0
81.0,-160.0,-183.0,568.0,-286.0,673.0,0
81.0,-167.0,-183.0,609.0,-290.0,671.0,0
79.0,-174.0,-181.0,645.0,-286.0,666.0,0
75.0,-177.0,-181.0,674.0,-280.0,663.0,0
72.0,-182.0,-179.0,689.0,-270.0,653.0,0
73.0,-183.0,-183.0,702.0,-262.0,632.0,0
76.0,-183.0,-179.0,716.0,-240.0,608.0,0
77.0,-183.0,-178.0,731.0,-216.0,595.0,0
82.0,-188.0,-181.0,741.0,-186.0,582.0,0
73.0,-187.0,-179.0,753.0,-150.0,570.0,0
75.0,-185.0,-177.0,759.0,-131.0,548.0,0
78.0,-187.0,-179.0,770.0,-110.0,532.0,0
74.0,-186.0,-176.0,776.0,-87.0,516.0,0
73.0,-186.0,-173.0,781.0,-66.0,505.0,0
69.0,-191.0,-172.0,785.0,-47.0,492.0,0
73.0,-192.0,-170.0,786.0,-32.0,487.0,0
71.0,-191.0,-168.0,788.0,-13.0,476.0,0
68.0,-192.0,-163.0,788.0,8.0,474.0,0
69.0,-194.0,-165.0,792.0,21.0,468.0,0
66.0,-194.0,-170.0,795.0,34.0,463.0,0
62.0,-194.0,-168.0,799.0,43.0,456.0,0
58.0,-195.0,-166.0,804.0,48.0,453.0,0
55.0,-192.0,-165.0,805.0,50.0,445.0,0
58.0,-189.0,-168.0,796.0,47.0,441.0,0
56.0,-193.0,-168.0,780.0,40.0,438.0,0
55.0,-187.0,-168.0,751.0,35.0,441.0,0
52.0,-188.0,-167.0,718.0,28.0,447.0,0
48.0,-187.0,-167.0,673.0,6.0,457.0,0
49.0,-186.0,-168.0,631.0,-10.0,466.0,0
46.0,-190.0,-167.0,582.0,-21.0,478.0,0
44.0,-188.0,-167.0,534.0,-36.0,487.0,0
44.0,-193.0,-167.0,488.0,-49.0,503.0,0
43.0,-191.0,-165.0,449.0,-61.0,517.0,0
37.0,-197.0,-162.0,418.0,-71.0,533.0,0
37.0,-200.0,-168.0,399.0,-83.0,544.0,0
38.0,-199.0,-163.0,388.0,-92.0,558.0,0
34.0,-206.0,-165.0,381.0,-95.0,568.0,0
32.0,-207.0,-161.0,375.0,-94.0,582.0,0
34.0,-207.0,-166.0,369.0,-96.0,586.0,0
33.0,-212.0,-156.0,369.0,-98.0,592.0,0
33.0,-214.0,-157.0,369.0,-99.0,590.0,0
46.0,-215.0,-158.0,366.0,-92.0,588.0,0
34.0,-218.0,-156.0,378.0,-82.0,581.0,0
31.0,-218.0,-153.0,394.0,-82.0,572.0,0
33.0,-217.0,-151.0,403.0,-77.0,556.0,0
32.0,-217.0,-152.0,411.0,-68.0,540.0,0
34.0,-219.0,-148.0,412.0,-58.0,521.0,0
32.0,-213.0,-147.0,409.0,-44.0,499.0,0
33.0,-218.0,-144.0,397.0,-37.0,479.0,0
38.0,-221.0,-143.0,387.0,-27.0,459.0,0
37.0,-217.0,-136.0,372.0,-23.0,434.0,0
31.0,-216.0,-135.0,353.0,-21.0,417.0,0
33.0,-218.0,-133.0,335.0,-20.0,390.0,0
37.0,-218.0,-127.0,311.0,-13.0,370.0,0
37.0,-223.0,-130.0,285.0,-11.0,352.0,0
32.0,-223.0,-130.0,261.0,-9.0,338.0,0
29.0,-221.0,-133.0,240.0,-8.0,319.0,0
32.0,-222.0,-128.0,220.0,-7.0,314.0,0
29.0,-222.0,-134.0,202.0,-9.0,311.0,0
29.0,-221.0,-135.0,194.0,-9.0,311.0,0
27.0,-222.0,-140.0,189.0,-10.0,311.0,0
26.0,-224.0,-136.0,188.0,-10.0,313.0,0
24.0,-219.0,-139.0,190.0,-13.0,314.0,0
24.0,-223.0,-138.0,191.0,-12.0,321.0,0
23.0,-221.0,-139.0,197.0,-11.0,322.0,0
25.0,-222.0,-143.0,203.0,-8.0,324.0,0
24.0,-223.0,-138.0,209.0,0.0,323.0,0
22.0,-221.0,-144.0,214.0,8.0,326.0,0
20.0,-219.0,-141.0,218.0,21.0,322.0,0
20.0,-220.0,-141.0,221.0,32.0,329.0,0
19.0,-221.0,-141.0,226.0,45.0,334.0,0
20.0,-223.0,-141.0,232.0,54.0,340.0,0
18.0,-224.0,-140.0,236.0,64.0,338.0,0
18.0,-223.0,-138.0,239.0,68.0,341.0,0
16.0,-222.0,-136.0,237.0,75.0,336.0,0
15.0,-223.0,-138.0,234.0,77.0,335.0,0
15.0,-223.0,-134.0,231.0,75.0,333.0,0
13.0,-221.0,-132.0,230.0,77.0,333.0,0
7.0,-223.0,-133.0,227.0,81.0,327.0,0
8.0,-222.0,-133.0,229.0,81.0,325.0,0
7.0,-220.0,-134.0,228.0,83.0,314.0,0
8.0,-222.0,-133.0,229.0,87.0,310.0,0
7.0,-217.0,-131.0,229.0,90.0,301.0,0
5.0,-220.0,-134.0,231.0,92.0,300.0,0
6.0,-219.0,-132.0,235.0,95.0,294.0,0
9.0,-223.0,-134.0,242.0,98.0,296.0,0
9.0,-219.0,-130.0,247.0,100.0,295.0,0
9.0,-220.0,-132.0,252.0,100.0,299.0,0
9.0,-221.0,-130.0,256.0,102.0,298.0,0
9.0,-221.0,-127.0,252.0,104.0,302.0,0
7.0,-222.0,-130.0,245.0,106.0,302.0,0
6.0,-218.0,-129.0,239.0,109.0,302.0,0
8.0,-220.0,-130.0,232.0,114.0,299.0,0
7.0,-221.0,-129.0,224.0,118.0,297.0,0
12.0,-220.0,-132.0,220.0,118.0,294.0,0
10.0,-220.0,-132.0,221.0,124.0,295.0,0
10.0,-222.0,-131.0,227.0,127.0,290.0,0
13.0,-222.0,-127.0,232.0,127.0,291.0,0
10.0,-224.0,-127.0,234.0,128.0,288.0,0
11.0,-224.0,-130.0,236.0,133.0,286.0,0
10.0,-221.0,-128.0,239.0,135.0,282.0,0
11.0,-225.0,-126.0,246.0,129.0,278.0,0
7.0,-224.0,-122.0,254.0,134.0,268.0,0
14.0,-222.0,-127.0,259.0,138.0,262.0,0
12.0,-221.0,-123.0,257.0,138.0,253.0,0
12.0,-221.0,-125.0,247.0,142.0,250.0,0
7.0,-223.0,-125.0,236.0,142.0,247.0,0
8.0,-219.0,-125.0,224.0,137.0,245.0,0
9.0,-218.0,-125.0,207.0,134.0,235.0,0
10.0,-218.0,-126.0,192.0,137.0,239.0,0
12.0,-217.0,-124.0,174.0,141.0,239.0,0
13.0,-218.0,-123.0,158.0,142.0,243.0,0
12.0,-217.0,-125.0,137.0,142.0,244.0,0
18.0,-217.0,-123.0,121.0,143.0,246.0,0
21.0,-216.0,-126.0,103.0,154.0,244.0,0
22.0,-217.0,-123.0,86.0,163.0,252.0,0
23.0,-217.0,-119.0,76.0,177.0,253.0,0
22.0,-219.0,-120.0,68.0,189.0,254.0,0
25.0,-219.0,-122.0,62.0,200.0,247.0,0
27.0,-221.0,-118.0,57.0,213.0,241.0,0
27.0,-221.0,-118.0,52.0,226.0,231.0,0
27.0,-223.0,-118.0,47.0,236.0,228.0,0
28.0,-224.0,-119.0,42.0,243.0,215.0,0
23.0,-228.0,-123.0,34.0,249.0,209.0,0
23.0,-233.0,-120.0,25.0,254.0,195.0,0
23.0,-231.0,-122.0,18.0,260.0,184.0,0
20.0,-234.0,-124.0,12.0,266.0,167.0,0
22.0,-236.0,-122.0,10.0,271.0,158.0,0
18.0,-238.0,-121.0,14.0,273.0,141.0,0
14.0,-241.0,-115.0,22.0,271.0,126.0,0
13.0,-241.0,-116.0,41.0,267.0,117.0,0
11.0,-245.0,-116.0,58.0,264.0,114.0,0
5.0,-243.0,-113.0,76.0,258.0,115.0,0
6.0,-243.0,-114.0,95.0,253.0,119.0,0
1.0,-245.0,-112.0,118.0,246.0,120.0,0
0.0,-243.0,-113.0,140.0,240.0,129.0,0
-6.0,-241.0,-111.0,161.0,235.0,134.0,0
-6.0,-237.0,-112.0,182.0,230.0,138.0,0
-11.0,-235.0,-110.0,197.0,226.0,134.0,0
-9.0,-228.0,-110.0,209.0,221.0,138.0,0
-13.0,-227.0,-109.0,216.0,211.0,136.0,0
-9.0,-227.0,-109.0,214.0,205.0,142.0,0
-11.0,-222.0,-113.0,208.0,199.0,144.0,0
-12.0,-222.0,-116.0,199.0,194.0,148.0,0
-8.0,-221.0,-114.0,185.0,189.0,145.0,0
-13.0,-217.0,-116.0,166.0,182.0,147.0,0
-13.0,-217.0,-115.0,146.0,175.0,148.0,0
-14.0,-221.0,-120.0,126.0,170.0,151.0,0
-11.0,-221.0,-122.0,105.0,161.0,147.0,0
-11.0,-227.0,-118.0,83.0,156.0,146.0,0
-9.0,-230.0,-125.0,63.0,151.0,139.0,0
-4.0,-232.0,-118.0,51.0,147.0,134.0,0
-2.0,-237.0,-122.0,43.0,147.0,125.0,0
-2.0,-236.0,-122.0,38.0,152.0,120.0,0
-2.0,-237.0,-116.0,38.0,156.0,113.0,0
-1.0,-237.0,-115.0,46.0,158.0,108.0,0
-1.0,-235.0,-113.0,59.0,160.0,100.0,0
1.0,-235.0,-115.0,76.0,161.0,92.0,0
-1.0,-235.0,-113.0,95.0,160.0,78.0,0
0.0,-233.0,-111.0,117.0,159.0,67.0,0
3.0,-230.0,-113.0,139.0,156.0,54.0,0
0.0,-229.0,-114.0,156.0,150.0,44.0,0
3.0,-227.0,-114.0,163.0,141.0,32.0,0
4.0,-224.0,-108.0,170.0,130.0,26.0,0
3.0,-223.0,-111.0,172.0,119.0,17.0,0
4.0,-218.0,-114.0,176.0,106.0,16.0,0
6.0,-217.0,-112.0,177.0,92.0,11.0,0
3.0,-214.0,-110.0,175.0,78.0,10.0,0
4.0,-214.0,-111.0,168.0,64.0,7.0,0
3.0,-216.0,-114.0,159.0,51.0,6.0,0
3.0,-216.0,-114.0,146.0,35.0,-4.0,0
0.0,-215.0,-114.0,126.0,24.0,-8.0,0
0.0,-220.0,-110.0,109.0,13.0,-15.0,0
-1.0,-223.0,-110.0,93.0,5.0,-19.0,0
1.0,-226.0,-112.0,78.0,-3.0,-26.0,0
0.0,-232.0,-106.0,65.0,-10.0,-27.0,0
-4.0,-229.0,-111.0,53.0,-14.0,-36.0,0
-4.0,-234.0,-111.0,40.0,-20.0,-41.0,0
-1.0,-232.0,-111.0,29.0,-25.0,-49.0,0
-5.0,-236.0,-117.0,20.0,-30.0,-54.0,0
-4.0,-235.0,-112.0,13.0,-34.0,-58.0,0
-3.0,-239.0,-115.0,8.0,-38.0,-59.0,0
-7.0,-236.0,-117.0,4.0,-40.0,-66.0,0
-4.0,-236.0,-113.0,0.0,-41.0,-71.0,0
-6.0,-235.0,-118.0,-4.0,-45.0,-77.0,0
-5.0,-234.0,-116.0,-12.0,-48.0,-79.0,0
-3.0,-234.0,-117.0,-21.0,-50.0,-86.0,0
-7.0,-230.0,-117.0,-33.0,-51.0,-86.0,0
-1.0,-227.0,-115.0,-48.0,-55.0,-89.0,0
-1.0,-230.0,-117.0,-64.0,-58.0,-87.0,0
1.0,-224.0,-120.0,-80.0,-61.0,-84.0,0
5.0,-226.0,-117.0,-103.0,-63.0,-79.0,0
6.0,-225.0,-121.0,-122.0,-62.0,-76.0,0
6.0,-223.0,-118.0,-139.0,-63.0,-72.0,0
8.0,-224.0,-118.0,-157.0,-61.0,-68.0,0
8.0,-227.0,-118.0,-175.0,-59.0,-62.0,0
9.0,-225.0,-118.0,-189.0,-56.0,-60.0,0
10.0,-228.0,-117.0,-201.0,-53.0,-54.0,0
10.0,-230.0,-116.0,-208.0,-50.0,-55.0,0
9.0,-229.0,-120.0,-208.0,-48.0,-53.0,0
10.0,-231.0,-118.0,-208.0,-44.0,-54.0,0
10.0,-232.0,-121.0,-198.0,-38.0,-54.0,0
10.0,-234.0,-115.0,-187.0,-32.0,-56.0,0
10.0,-232.0,-117.0,-173.0,-32.0,-58.0,0
12.0,-232.0,-118.0,-160.0,-26.0,-62.0,0
12.0,-236.0,-119.0,-150.0,-22.0,-62.0,0
11.0,-235.0,-118.0,-138.0,-20.0,-66.0,0
9.0,-234.0,-120.0,-128.0,-21.0,-67.0,0
4.0,-232.0,-123.0,-119.0,-18.0,-70.0,0
10.0,-234.0,-121.0,-111.0,-17.0,-69.0,0
8.0,-236.0,-119.0,-106.0,-15.0,-72.0,0
4.0,-236.0,-119.0,-100.0,-14.0,-71.0,0
6.0,-233.0,-121.0,-92.0,-11.0,-71.0,0
4.0,-231.0,-123.0,-86.0,-11.0,-71.0,0
3.0,-235.0,-123.0,-80.0,-10.0,-73.0,0
6.0,-233.0,-121.0,-72.0,-8.0,-71.0,0
5.0,-236.0,-120.0,-63.0,-6.0,-72.0,0
6.0,-233.0,-121.0,-53.0,-2.0,-70.0,0
4.0,-234.0,-120.0,-43.0,0.0,-71.0,0
7.0,-234.0,-119.0,-33.0,5.0,-70.0,0
7.0,-235.0,-123.0,-23.0,9.0,-70.0,0
5.0,-232.0,-123.0,-12.0,13.0,-69.0,0
8.0,-231.0,-121.0,-3.0,16.0,-70.0,0
7.0,-229.0,-120.0,6.0,19.0,-68.0,0
9.0,-231.0,-117.0,14.0,22.0,-67.0,0
8.0,-227.0,-117.0,20.0,28.0,-63.0,0
9.0,-228.0,-118.0,26.0,31.0,-61.0,0
14.0,-227.0,-117.0,28.0,35.0,-57.0,0
12.0,-226.0,-116.0,30.0,40.0,-54.0,0
14.0,-228.0,-116.0,28.0,47.0,-50.0,0
11.0,-227.0,-117.0,25.0,51.0,-47.0,0
15.0,-228.0,-115.0,20.0,57.0,-43.0,0
15.0,-230.0,-119.0,14.0,60.0,-41.0,0
10.0,-227.0,-118.0,7.0,64.0,-38.0,0
12.0,-228.0,-118.0,0.0,66.0,-37.0,0
9.0,-227.0,-120.0,-4.0,70.0,-36.0,0
11.0,-230.0,-120.0,-11.0,73.0,-36.0,0
12.0,-229.0,-119.0,-17.0,76.0,-35.0,0
10.0,-228.0,-121.0,-20.0,78.0,-35.0,0
10.0,-227.0,-119.0,-26.0,79.0,-32.0,0
8.0,-228.0,-122.0,-29.0,80.0,-32.0,0
8.0,-224.0,-125.0,-37.0,85.0,-31.0,0
10.0,-228.0,-126.0,-45.0,88.0,-31.0,0
10.0,-226.0,-125.0,-52.0,89.0,-33.0,0
7.0,-226.0,-123.0,-59.0,91.0,-37.0,0
9.0,-225.0,-121.0,-69.0,92.0,-38.0,0
11.0,-229.0,-125.0,-80.0,95.0,-41.0,0
9.0,-225.0,-125.0,-92.0,93.0,-44.0,0
8.0,-224.0,-125.0,-103.0,94.0,-47.0,0
7.0,-224.0,-124.0,-113.0,94.0,-48.0,0
11.0,-224.0,-121.0,-122.0,94.0,-51.0,0
9.0,-221.0,-125.0,-129.0,93.0,-51.0,0
9.0,-224.0,-121.0,-134.0,94.0,-50.0,0
8.0,-223.0,-127.0,-136.0,94.0,-48.0,0
10.0,-225.0,-122.0,-137.0,94.0,-46.0,0
8.0,-222.0,-121.0,-135.0,92.0,-43.0,0
10.0,-226.0,-121.0,-134.0,89.0,-40.0,0
7.0,-225.0,-122.0,-132.0,87.0,-37.0,0
6.0,-227.0,-124.0,-130.0,87.0,-34.0,0
9.0,-222.0,-121.0,-126.0,85.0,-32.0,0
9.0,-225.0,-123.0,-122.0,84.0,-32.0,0
7.0,-228.0,-119.0,-114.0,83.0,-30.0,0
10.0,-228.0,-120.0,-104.0,83.0,-29.0,0
8.0,-226.0,-121.0,-96.0,83.0,-28.0,0
10.0,-229.0,-120.0,-89.0,82.0,-28.0,0
11.0,-232.0,-123.0,-82.0,81.0,-28.0,0
11.0,-232.0,-119.0,-79.0,80.0,-30.0,0
8.0,-233.0,-122.0,-73.0,80.0,-32.0,0
9.0,-230.0,-122.0,-66.0,80.0,-32.0,0
10.0,-233.0,-120.0,-57.0,80.0,-31.0,0
11.0,-233.0,-120.0,-48.0,78.0,-32.0,0
8.0,-229.0,-119.0,-39.0,76.0,-33.0,0
9.0,-230.0,-118.0,-30.0,72.0,-33.0,0
7.0,-230.0,-118.0,-26.0,69.0,-33.0,0
7.0,-230.0,-122.0,-24.0,67.0,-32.0,0
6.0,-230.0,-120.0,-23.0,64.0,-32.0,0
6.0,-230.0,-122.0,-23.0,61.0,-30.0,0
8.0,-232.0,-120.0,-23.0,56.0,-28.0,0
9.0,-229.0,-119.0,-23.0,55.0,-27.0,0
6.0,-226.0,-123.0,-23.0,50.0,-24.0,0
9.0,-224.0,-124.0,-24.0,48.0,-20.0,0
7.0,-226.0,-121.0,-27.0,45.0,-18.0,0
4.0,-226.0,-119.0,-29.0,43.0,-14.0,0
7.0,-227.0,-120.0,-32.0,41.0,-14.0,0
8.0,-226.0,-123.0,-35.0,41.0,-11.0,0
9.0,-226.0,-122.0,-37.0,43.0,-11.0,0
7.0,-224.0,-118.0,-38.0,46.0,-10.0,0
11.0,-228.0,-121.0,-37.0,48.0,-10.0,0
9.0,-229.0,-120.0,-33.0,50.0,-10.0,0
9.0,-226.0,-119.0,-30.0,53.0,-10.0,0
11.0,-227.0,-124.0,-25.0,57.0,-12.0,0
13.0,-229.0,-123.0,-22.0,61.0,-14.0,0
12.0,-229.0,-121.0,-16.0,64.0,-14.0,0
27.0,-232.0,-109.0,-12.0,66.0,-19.0,0
11.0,-223.0,-124.0,-10.0,69.0,-19.0,0
12.0,-226.0,-119.0,-10.0,75.0,-21.0,0
14.0,-231.0,-120.0,-10.0,77.0,-22.0,0
16.0,-226.0,-119.0,-12.0,81.0,-24.0,0
15.0,-228.0,-120.0,-16.0,86.0,-23.0,0
15.0,-229.0,-120.0,-21.0,90.0,-23.0,0
16.0,-226.0,-121.0,-26.0,90.0,-21.0,0
16.0,-231.0,-121.0,-29.0,93.0,-23.0,0
16.0,-231.0,-119.0,-31.0,95.0,-21.0,0
16.0,-228.0,-124.0,-30.0,92.0,-22.0,0
18.0,-232.0,-121.0,-31.0,91.0,-20.0,0
13.0,-225.0,-118.0,-30.0,88.0,-18.0,0
15.0,-226.0,-121.0,-31.0,87.0,-14.0,0
15.0,-224.0,-121.0,-31.0,81.0,-11.0,0
15.0,-226.0,-122.0,-34.0,77.0,-7.0,0
12.0,-226.0,-123.0,-37.0,73.0,-7.0,0
13.0,-223.0,-122.0,-40.0,68.0,-5.0,0
15.0,-224.0,-122.0,-44.0,64.0,-7.0,0
14.0,-225.0,-125.0,-49.0,59.0,-8.0,0
13.0,-222.0,-123.0,-57.0,57.0,-12.0,0
13.0,-221.0,-122.0,-63.0,54.0,-16.0,0
9.0,-222.0,-128.0,-68.0,53.0,-23.0,0
13.0,-222.0,-126.0,-72.0,53.0,-27.0,0
11.0,-225.0,-123.0,-73.0,53.0,-36.0,0
11.0,-225.0,-126.0,-75.0,53.0,-42.0,0
8.0,-223.0,-123.0,-75.0,54.0,-48.0,0
9.0,-225.0,-124.0,-77.0,52.0,-50.0,0
11.0,-227.0,-124.0,-78.0,50.0,-54.0,0
7.0,-228.0,-121.0,-78.0,48.0,-54.0,0
7.0,-226.0,-121.0,-76.0,45.0,-54.0,0
6.0,-225.0,-122.0,-74.0,41.0,-51.0,0
4.0,-229.0,-120.0,-69.0,38.0,-51.0,0
6.0,-226.0,-124.0,-66.0,37.0,-46.0,0
6.0,-229.0,-124.0,-62.0,34.0,-43.0,0
6.0,-227.0,-123.0,-60.0,30.0,-40.0,0
2.0,-227.0,-123.0,-59.0,28.0,-38.0,0
6.0,-230.0,-121.0,-60.0,26.0,-35.0,0
6.0,-227.0,-119.0,-63.0,24.0,-36.0,0
5.0,-227.0,-122.0,-66.0,21.0,-36.0,0
7.0,-226.0,-119.0,-69.0,18.0,-40.0,0
8.0,-227.0,-122.0,-71.0,16.0,-42.0,0
9.0,-229.0,-121.0,-74.0,16.0,-46.0,0
8.0,-228.0,-121.0,-77.0,16.0,-47.0,0
4.0,-225.0,-124.0,-79.0,17.0,-52.0,0
9.0,-226.0,-122.0,-81.0,19.0,-54.0,0
9.0,-226.0,-122.0,-83.0,19.0,-57.0,0
11.0,-225.0,-120.0,-85.0,20.0,-57.0,0
11.0,-224.0,-130.0,-85.0,23.0,-56.0,0
14.0,-226.0,-126.0,-86.0,25.0,-53.0,0
14.0,-224.0,-128.0,-86.0,27.0,-54.0,0
14.0,-225.0,-128.0,-85.0,28.0,-48.0,0
15.0,-224.0,-128.0,-84.0,30.0,-46.0,0
19.0,-223.0,-128.0,-82.0,32.0,-37.0,0
18.0,-222.0,-129.0,-82.0,35.0,-33.0,0
20.0,-222.0,-130.0,-80.0,38.0,-26.0,0
21.0,-222.0,-127.0,-80.0,41.0,-22.0,0
22.0,-223.0,-125.0,-83.0,42.0,-13.0,0
19.0,-222.0,-127.0,-85.0,47.0,-7.0,0
23.0,-222.0,-129.0,-87.0,49.0,-1.0,0
19.0,-219.0,-126.0,-91.0,56.0,5.0,0
23.0,-221.0,-130.0,-93.0,59.0,11.0,0
24.0,-225.0,-126.0,-89.0,65.0,11.0,0
21.0,-223.0,-128.0,-84.0,72.0,15.0,0
20.0,-225.0,-127.0,-76.0,80.0,15.0,0
21.0,-225.0,-125.0,-65.0,84.0,17.0,0
21.0,-225.0,-124.0,-55.0,90.0,17.0,0
20.0,-229.0,-125.0,-42.0,95.0,19.0,0
18.0,-228.0,-127.0,-32.0,98.0,19.0,0
18.0,-225.0,-124.0,-23.0,102.0,22.0,0
18.0,-226.0,-122.0,-14.0,107.0,22.0,0
18.0,-226.0,-125.0,-5.0,112.0,26.0,0
15.0,-226.0,-123.0,2.0,113.0,25.0,0
15.0,-225.0,-126.0,9.0,115.0,27.0,0
15.0,-226.0,-125.0,13.0,114.0,26.0,0
17.0,-224.0,-125.0,16.0,114.0,25.0,0
14.0,-226.0,-126.0,18.0,113.0,22.0,0
16.0,-230.0,-124.0,18.0,111.0,24.0,0
12.0,-227.0,-124.0,18.0,110.0,21.0,0
11.0,-226.0,-129.0,17.0,108.0,23.0,0
11.0,-226.0,-128.0,14.0,106.0,20.0,0
8.0,-228.0,-126.0,10.0,105.0,22.0,0
8.0,-224.0,-126.0,10.0,103.0,16.0,0
6.0,-227.0,-129.0,10.0,102.0,19.0,0
9.0,-231.0,-123.0,14.0,98.0,15.0,0
8.0,-227.0,-124.0,20.0,96.0,16.0,0
8.0,-226.0,-127.0,26.0,93.0,13.0,0
6.0,-223.0,-120.0,32.0,91.0,13.0,0
6.0,-224.0,-122.0,35.0,89.0,10.0,0
7.0,-222.0,-125.0,39.0,85.0,12.0,0
7.0,-225.0,-126.0,41.0,81.0,7.0,0
8.0,-224.0,-118.0,38.0,77.0,9.0,0
6.0,-224.0,-125.0,32.0,72.0,4.0,0
7.0,-224.0,-125.0,22.0,70.0,3.0,0
7.0,-223.0,-123.0,13.0,67.0,0.0,0
9.0,-223.0,-125.0,2.0,62.0,1.0,0
7.0,-222.0,-125.0,-13.0,57.0,-5.0,0
7.0,-222.0,-125.0,-23.0,56.0,-5.0,0
6.0,-220.0,-130.0,-35.0,53.0,-9.0,0
11.0,-224.0,-124.0,-44.0,49.0,-7.0,0
10.0,-226.0,-129.0,-50.0,47.0,-12.0,0
9.0,-225.0,-124.0,-57.0,46.0,-10.0,0
8.0,-222.0,-127.0,-61.0,45.0,-14.0,0
9.0,-227.0,-127.0,-65.0,42.0,-13.0,0
9.0,-224.0,-125.0,-65.0,41.0,-18.0,0
12.0,-225.0,-129.0,-65.0,38.0,-16.0,0
13.0,-226.0,-128.0,-64.0,37.0,-21.0,0
11.0,-224.0,-126.0,-62.0,34.0,-20.0,0
12.0,-223.0,-129.0,-60.0,35.0,-22.0,0
12.0,-220.0,-124.0,-57.0,33.0,-21.0,0
11.0,-223.0,-125.0,-57.0,33.0,-22.0,0
11.0,-223.0,-123.0,-60.0,33.0,-20.0,0
15.0,-224.0,-128.0,-61.0,34.0,-19.0,0
12.0,-226.0,-126.0,-60.0,35.0,-15.0,0
13.0,-222.0,-126.0,-61.0,39.0,-16.0,0
11.0,-225.0,-129.0,-61.0,40.0,-12.0,0
13.0,-223.0,-130.0,-60.0,43.0,-12.0,0
12.0,-223.0,-127.0,-56.0,44.0,-7.0,0
12.0,-225.0,-131.0,-53.0,46.0,-7.0,0
12.0,-226.0,-126.0,-45.0,49.0,-2.0,0
12.0,-225.0,-128.0,-41.0,50.0,-2.0,0
14.0,-227.0,-127.0,-33.0,52.0,2.0,0
12.0,-227.0,-131.0,-26.0,53.0,2.0,0
12.0,-227.0,-131.0,-14.0,54.0,6.0,0
13.0,-227.0,-128.0,-5.0,55.0,5.0,0
12.0,-224.0,-127.0,4.0,58.0,9.0,0
11.0,-228.0,-127.0,12.0,59.0,8.0,0
13.0,-226.0,-131.0,19.0,61.0,12.0,0
13.0,-228.0,-126.0,23.0,64.0,11.0,0
15.0,-224.0,-125.0,25.0,66.0,13.0,0
14.0,-228.0,-130.0,25.0,69.0,12.0,0
15.0,-226.0,-132.0,25.0,73.0,12.0,0
15.0,-226.0,-127.0,25.0,76.0,8.0,0
13.0,-224.0,-127.0,24.0,79.0,8.0,0
16.0,-226.0,-125.0,24.0,82.0,3.0,0
15.0,-224.0,-125.0,24.0,84.0,5.0,0
17.0,-223.0,-126.0,24.0,86.0,-1.0,0
14.0,-224.0,-130.0,21.0,89.0,0.0,0
12.0,-222.0,-127.0,18.0,90.0,-4.0,0
14.0,-225.0,-122.0,18.0,91.0,-3.0,0
12.0,-225.0,-124.0,16.0,92.0,-6.0,0
15.0,-224.0,-122.0,15.0,92.0,-1.0,0
14.0,-225.0,-127.0,12.0,92.0,-3.0,0
12.0,-223.0,-123.0,12.0,90.0,0.0,0
12.0,-226.0,-124.0,9.0,88.0,-2.0,0
13.0,-225.0,-122.0,6.0,85.0,0.0,0
12.0,-223.0,-124.0,3.0,82.0,-1.0,0
13.0,-226.0,-125.0,3.0,80.0,1.0,0
14.0,-225.0,-124.0,0.0,76.0,0.0,0
11.0,-225.0,-123.0,-2.0,73.0,2.0,0
10.0,-225.0,-124.0,-5.0,69.0,0.0,0
10.0,-225.0,-125.0,-8.0,66.0,3.0,0
11.0,-223.0,-121.0,-11.0,64.0,0.0,0
11.0,-224.0,-124.0,-16.0,62.0,2.0,0
11.0,-226.0,-125.0,-18.0,59.0,-1.0,0
9.0,-226.0,-127.0,-19.0,60.0,3.0,0
11.0,-226.0,-124.0,-22.0,60.0,-1.0,0
9.0,-222.0,-121.0,-23.0,60.0,1.0,0
9.0,-226.0,-130.0,-23.0,59.0,-1.0,0
11.0,-228.0,-126.0,-23.0,60.0,1.0,0
13.0,-226.0,-128.0,-23.0,60.0,-2.0,0
9.0,-226.0,-128.0,-19.0,60.0,-1.0,0
9.0,-226.0,-127.0,-15.0,62.0,-5.0,0
11.0,-226.0,-129.0,-10.0,61.0,-3.0,0
11.0,-224.0,-129.0,-6.0,60.0,-6.0,0
11.0,-225.0,-124.0,-3.0,61.0,-6.0,0
13.0,-228.0,-128.0,1.0,60.0,-9.0,0
10.0,-226.0,-130.0,5.0,59.0,-7.0,0
12.0,-226.0,-132.0,6.0,60.0,-10.0,0
10.0,-225.0,-129.0,7.0,58.0,-8.0,0
13.0,-226.0,-127.0,8.0,57.0,-10.0,0
13.0,-224.0,-126.0,10.0,57.0,-10.0,0
13.0,-224.0,-127.0,12.0,55.0,-11.0,0
15.0,-225.0,-129.0,12.0,56.0,-10.0,0
12.0,-223.0,-130.0,9.0,56.0,-12.0,0
11.0,-221.0,-128.0,9.0,55.0,-9.0,0
14.0,-221.0,-127.0,8.0,56.0,-10.0,0
11.0,-224.0,-124.0,10.0,57.0,-6.0,0
13.0,-224.0,-125.0,11.0,58.0,-8.0,0
14.0,-224.0,-124.0,11.0,57.0,-3.0,0
15.0,-224.0,-122.0,11.0,58.0,-4.0,0
12.0,-223.0,-126.0,8.0,58.0,-1.0,0
14.0,-222.0,-126.0,5.0,59.0,-3.0,0
14.0,-225.0,-120.0,1.0,61.0,0.0,0
11.0,-223.0,-128.0,-3.0,62.0,-3.0,0
13.0,-227.0,-124.0,-3.0,64.0,0.0,0
13.0,-224.0,-124.0,-5.0,66.0,-1.0,0
15.0,-225.0,-125.0,-6.0,67.0,0.0,0
14.0,-224.0,-129.0,-4.0,69.0,-2.0,0
10.0,-222.0,-128.0,-4.0,70.0,0.0,0
11.0,-224.0,-126.0,0.0,72.0,-4.0,0
11.0,-225.0,-125.0,1.0,73.0,0.0,0
11.0,-227.0,-125.0,0.0,74.0,-4.0,0
10.0,-226.0,-124.0,3.0,74.0,-2.0,0
13.0,-228.0,-123.0,4.0,73.0,-4.0,0
11.0,-229.0,-125.0,3.0,73.0,-2.0,0
13.0,-226.0,-127.0,3.0,73.0,-4.0,0
14.0,-227.0,-127.0,4.0,71.0,-3.0,0
14.0,-229.0,-125.0,4.0,73.0,-3.0,0
15.0,-228.0,-128.0,5.0,69.0,-3.0,0
14.0,-226.0,-126.0,6.0,69.0,-4.0,0
12.0,-226.0,-120.0,7.0,67.0,-3.0,0
15.0,-225.0,-123.0,9.0,68.0,-4.0,0
12.0,-226.0,-129.0,11.0,67.0,-2.0,0
17.0,-226.0,-120.0,10.0,66.0,-2.0,0
13.0,-227.0,-121.0,11.0,66.0,-1.0,0
15.0,-223.0,-123.0,10.0,65.0,-2.0,0
14.0,-225.0,-123.0,6.0,65.0,0.0,0
14.0,-224.0,-126.0,3.0,63.0,-1.0,0
9.0,-225.0,-127.0,-2.0,64.0,1.0,0
17.0,-227.0,-124.0,-6.0,63.0,1.0,0
14.0,-224.0,-123.0,-7.0,62.0,2.0,0
14.0,-225.0,-124.0,-7.0,62.0,0.0,0
12.0,-226.0,-123.0,-4.0,62.0,2.0,0
12.0,-223.0,-126.0,0.0,61.0,0.0,0
15.0,-225.0,-124.0,1.0,59.0,2.0,0
13.0,-226.0,-125.0,4.0,58.0,1.0,0
13.0,-226.0,-126.0,6.0,58.0,3.0,0
14.0,-227.0,-124.0,5.0,56.0,0.0,0
13.0,-222.0,-125.0,6.0,56.0,1.0,0
14.0,-226.0,-126.0,6.0,56.0,-2.0,0
13.0,-226.0,-122.0,5.0,55.0,-1.0,0
11.0,-225.0,-126.0,5.0,55.0,-3.0,0
13.0,-225.0,-125.0,5.0,55.0,-3.0,0
