ax,ay,az,gx,gy,gz,label
-8.0,-246.0,3.0,56.0,9.0,-10.0,0
-4.0,-249.0,5.0,55.0,9.0,-11.0,0
-8.0,-248.0,8.0,54.0,10.0,-11.0,0
-6.0,-248.0,5.0,54.0,9.0,-12.0,0
-6.0,-250.0,8.0,55.0,11.0,-10.0,0
-9.0,-245.0,4.0,54.0,11.0,-10.0,0
-5.0,-246.0,7.0,56.0,10.0,-11.0,0
-4.0,-248.0,8.0,56.0,11.0,-11.0,0
-3.0,-248.0,9.0,56.0,10.0,-12.0,0
-6.0,-249.0,4.0,58.0,10.0,-11.0,0
-9.0,-245.0,7.0,58.0,11.0,-12.0,0
-5.0,-247.0,5.0,57.0,12.0,-10.0,0
-9.0,-248.0,6.0,56.0,13.0,-11.0,0
-6.0,-251.0,5.0,56.0,12.0,-12.0,0
-6.0,-248.0,2.0,54.0,11.0,-11.0,0
-9.0,-252.0,10.0,54.0,10.0,-11.0,0
-5.0,-248.0,4.0,54.0,10.0,-12.0,0
-9.0,-246.0,0.0,51.0,10.0,-11.0,0
-5.0,-250.0,2.0,53.0,11.0,-11.0,0
-5.0,-246.0,8.0,53.0,10.0,-11.0,0
-5.0,-244.0,5.0,54.0,10.0,-12.0,0
-4.0,-248.0,2.0,54.0,9.0,-12.0,0
-6.0,-247.0,3.0,55.0,9.0,-14.0,0
-6.0,-248.0,5.0,54.0,9.0,-13.0,0
-7.0,-247.0,9.0,55.0,9.0,-11.0,0
-5.0,-251.0,8.0,54.0,8.0,-10.0,0
-8.0,-249.0,3.0,54.0,9.0,-10.0,0
-7.0,-249.0,3.0,54.0,8.0,-11.0,0
-6.0,-250.0,4.0,56.0,9.0,-10.0,0
-9.0,-245.0,6.0,58.0,9.0,-11.0,0
-8.0,-249.0,9.0,60.0,9.0,-9.0,0
-8.0,-251.0,8.0,63.0,9.0,-10.0,0
-4.0,-249.0,7.0,64.0,9.0,-10.0,0
-5.0,-250.0,2.0,64.0,8.0,-12.0,0
-6.0,-249.0,4.0,64.0,7.0,-11.0,0
-7.0,-248.0,4.0,65.0,6.0,-12.0,0
-12.0,-242.0,2.0,62.0,5.0,-12.0,0
-7.0,-246.0,5.0,61.0,4.0,-13.0,0
-7.0,-247.0,3.0,60.0,5.0,-14.0,0
-4.0,-248.0,3.0,59.0,5.0,-13.0,0
-4.0,-249.0,5.0,58.0,7.0,-12.0,0
-6.0,-244.0,8.0,59.0,8.0,-13.0,0
-6.0,-248.0,7.0,59.0,9.0,-12.0,0
-12.0,-249.0,6.0,59.0,11.0,-11.0,0
-4.0,-248.0,3.0,59.0,12.0,-11.0,0
-5.0,-247.0,7.0,57.0,13.0,-11.0,0
-9.0,-245.0,7.0,56.0,14.0,-11.0,0
-10.0,-253.0,2.0,53.0,16.0,-10.0,0
3.0,-247.0,4.0,51.0,17.0,-11.0,0
-7.0,-246.0,7.0,48.0,18.0,-9.0,0
-4.0,-248.0,8.0,47.0,15.0,-11.0,0
-4.0,-247.0,5.0,46.0,15.0,-11.0,0
-4.0,-248.0,6.0,48.0,14.0,-12.0,0
-4.0,-247.0,5.0,49.0,14.0,-13.0,0
-4.0,-251.0,6.0,52.0,13.0,-11.0,0
-4.0,-249.0,6.0,55.0,12.0,-12.0,0
-8.0,-248.0,1.0,57.0,10.0,-12.0,0
-4.0,-249.0,2.0,58.0,9.0,-14.0,0
-2.0,-248.0,5.0,60.0,9.0,-14.0,0
-4.0,-250.0,6.0,60.0,9.0,-13.0,0
-6.0,-250.0,7.0,60.0,8.0,-14.0,0
-4.0,-249.0,8.0,60.0,10.0,-14.0,0
-6.0,-246.0,3.0,60.0,11.0,-14.0,0
-4.0,-248.0,7.0,62.0,12.0,-16.0,0
-5.0,-249.0,2.0,62.0,13.0,-13.0,0
-4.0,-247.0,6.0,62.0,13.0,-13.0,0
-3.0,-248.0,4.0,62.0,11.0,-12.0,0
-8.0,-250.0,-1.0,63.0,11.0,-10.0,0
-3.0,-249.0,5.0,63.0,10.0,-10.0,0
-11.0,-243.0,0.0,62.0,9.0,-11.0,0
-5.0,-247.0,4.0,62.0,8.0,-11.0,0
-6.0,-246.0,5.0,61.0,8.0,-12.0,0
-4.0,-246.0,4.0,62.0,9.0,-11.0,0
-7.0,-247.0,6.0,62.0,10.0,-10.0,0
-3.0,-249.0,3.0,63.0,13.0,-11.0,0
-10.0,-246.0,7.0,64.0,12.0,-12.0,0
-10.0,-250.0,9.0,63.0,12.0,-13.0,0
-6.0,-249.0,3.0,63.0,14.0,-12.0,0
-5.0,-251.0,9.0,63.0,16.0,-11.0,0
-8.0,-247.0,9.0,62.0,16.0,-12.0,0
-7.0,-247.0,7.0,64.0,15.0,-13.0,0
-5.0,-248.0,9.0,65.0,15.0,-14.0,0
-4.0,-247.0,7.0,66.0,15.0,-13.0,0
-5.0,-247.0,8.0,69.0,13.0,-13.0,0
-5.0,-246.0,10.0,70.0,13.0,-14.0,0
-8.0,-245.0,2.0,70.0,13.0,-14.0,0
-5.0,-246.0,4.0,71.0,11.0,-14.0,0
-4.0,-251.0,8.0,70.0,12.0,-15.0,0
-5.0,-247.0,6.0,70.0,11.0,-13.0,0
-5.0,-248.0,5.0,69.0,12.0,-13.0,0
-2.0,-248.0,15.0,72.0,11.0,-12.0,0
-4.0,-248.0,5.0,70.0,11.0,-11.0,0
-6.0,-248.0,6.0,69.0,10.0,-12.0,0
-5.0,-246.0,9.0,66.0,10.0,-10.0,0
-4.0,-248.0,7.0,65.0,10.0,-10.0,0
-7.0,-247.0,11.0,62.0,11.0,-10.0,0
-6.0,-247.0,9.0,60.0,10.0,-10.0,0
-5.0,-250.0,6.0,59.0,11.0,-9.0,0
-7.0,-249.0,9.0,59.0,11.0,-12.0,0
-6.0,-249.0,4.0,60.0,11.0,-12.0,0
-4.0,-248.0,7.0,61.0,10.0,-12.0,0
-7.0,-247.0,10.0,62.0,10.0,-12.0,0
-6.0,-245.0,3.0,62.0,9.0,-14.0,0
-6.0,-247.0,5.0,62.0,8.0,-12.0,0
-6.0,-244.0,4.0,63.0,7.0,-12.0,0
-4.0,-247.0,7.0,62.0,7.0,-13.0,0
-9.0,-247.0,6.0,64.0,7.0,-11.0,0
-6.0,-246.0,7.0,66.0,8.0,-12.0,0
-9.0,-246.0,7.0,67.0,7.0,-11.0,0
-7.0,-246.0,9.0,68.0,8.0,-11.0,0
-10.0,-245.0,3.0,67.0,8.0,-12.0,0
-6.0,-247.0,7.0,64.0,8.0,-12.0,0
-4.0,-245.0,6.0,63.0,10.0,-12.0,0
-6.0,-249.0,7.0,64.0,12.0,-11.0,0
-6.0,-246.0,9.0,62.0,12.0,-11.0,0
-6.0,-247.0,5.0,62.0,11.0,-12.0,0
-6.0,-248.0,8.0,63.0,12.0,-12.0,0
-3.0,-250.0,9.0,62.0,12.0,-12.0,0
-3.0,-247.0,9.0,60.0,12.0,-11.0,0
-3.0,-250.0,8.0,60.0,12.0,-12.0,0
-5.0,-248.0,3.0,59.0,11.0,-11.0,0
-3.0,-246.0,7.0,58.0,12.0,-11.0,0
-4.0,-249.0,10.0,57.0,12.0,-10.0,0
-4.0,-244.0,7.0,56.0,13.0,-10.0,0
-4.0,-250.0,5.0,56.0,13.0,-10.0,0
-4.0,-248.0,9.0,55.0,13.0,-9.0,0
-5.0,-248.0,8.0,57.0,14.0,-7.0,0
-6.0,-248.0,10.0,56.0,13.0,-9.0,0
-5.0,-246.0,8.0,56.0,14.0,-9.0,0
-4.0,-246.0,9.0,56.0,15.0,-8.0,0
-4.0,-244.0,8.0,55.0,14.0,-9.0,0
-5.0,-246.0,7.0,55.0,13.0,-7.0,0
-5.0,-246.0,7.0,53.0,13.0,-6.0,0
-5.0,-249.0,14.0,54.0,12.0,-7.0,0
-6.0,-248.0,10.0,53.0,11.0,-7.0,0
-4.0,-249.0,11.0,53.0,11.0,-8.0,0
-8.0,-248.0,10.0,54.0,11.0,-6.0,0
-3.0,-251.0,3.0,55.0,10.0,-6.0,0
-4.0,-250.0,7.0,58.0,11.0,-7.0,0
-6.0,-248.0,9.0,60.0,11.0,-7.0,0
-4.0,-249.0,9.0,61.0,11.0,-9.0,0
-8.0,-246.0,4.0,62.0,11.0,-9.0,0
-2.0,-247.0,8.0,63.0,10.0,-8.0,0
-5.0,-251.0,8.0,62.0,12.0,-6.0,0
-7.0,-248.0,7.0,62.0,9.0,-8.0,0
-4.0,-245.0,11.0,62.0,9.0,-6.0,0
-4.0,-249.0,7.0,62.0,10.0,-6.0,0
-5.0,-246.0,8.0,62.0,11.0,-7.0,0
-7.0,-247.0,7.0,63.0,11.0,-9.0,0
-4.0,-249.0,7.0,65.0,9.0,-9.0,0
-5.0,-244.0,9.0,66.0,8.0,-8.0,0
-9.0,-246.0,7.0,67.0,7.0,-9.0,0
-6.0,-249.0,5.0,67.0,6.0,-8.0,0
-8.0,-246.0,6.0,66.0,6.0,-9.0,0
-9.0,-247.0,6.0,64.0,6.0,-8.0,0
-6.0,-250.0,6.0,65.0,8.0,-8.0,0
-7.0,-251.0,6.0,65.0,10.0,-8.0,0
-5.0,-248.0,7.0,66.0,11.0,-8.0,0
-4.0,-248.0,7.0,66.0,13.0,-8.0,0
-7.0,-249.0,9.0,68.0,15.0,-10.0,0
-6.0,-247.0,11.0,69.0,16.0,-8.0,0
-5.0,-247.0,5.0,71.0,17.0,-8.0,0
-8.0,-249.0,11.0,73.0,16.0,-9.0,0
-5.0,-247.0,7.0,71.0,15.0,-7.0,0
-6.0,-247.0,7.0,72.0,10.0,-8.0,0
-8.0,-253.0,8.0,71.0,8.0,-8.0,0
-6.0,-248.0,11.0,70.0,6.0,-7.0,0
-5.0,-246.0,7.0,71.0,5.0,-9.0,0
-4.0,-248.0,8.0,73.0,5.0,-9.0,0
-4.0,-249.0,7.0,75.0,6.0,-9.0,0
-5.0,-248.0,6.0,76.0,6.0,-8.0,0
-12.0,-248.0,13.0,77.0,8.0,-8.0,0
-5.0,-245.0,10.0,78.0,9.0,-10.0,0
-6.0,-250.0,9.0,77.0,9.0,-11.0,0
-4.0,-246.0,9.0,77.0,11.0,-11.0,0
-1.0,-250.0,9.0,74.0,12.0,-10.0,0
-5.0,-246.0,5.0,73.0,12.0,-9.0,0
-4.0,-247.0,8.0,70.0,14.0,-8.0,0
-5.0,-248.0,4.0,67.0,13.0,-9.0,0
-4.0,-248.0,6.0,66.0,14.0,-8.0,0
-5.0,-248.0,8.0,67.0,12.0,-10.0,0
-8.0,-251.0,9.0,68.0,9.0,-10.0,0
-7.0,-252.0,12.0,70.0,7.0,-11.0,0
-5.0,-251.0,8.0,73.0,5.0,-10.0,0
-7.0,-245.0,7.0,77.0,4.0,-9.0,0
-7.0,-249.0,12.0,79.0,2.0,-9.0,0
-10.0,-250.0,7.0,80.0,1.0,-6.0,0
-4.0,-251.0,10.0,82.0,1.0,-6.0,0
-4.0,-251.0,8.0,84.0,1.0,-5.0,0
-5.0,-247.0,7.0,84.0,1.0,-5.0,0
-5.0,-252.0,10.0,85.0,-1.0,-6.0,0
-4.0,-249.0,5.0,85.0,-2.0,-7.0,0
-4.0,-244.0,8.0,84.0,0.0,-7.0,0
-4.0,-246.0,7.0,81.0,1.0,-5.0,0
-9.0,-247.0,8.0,78.0,2.0,-7.0,0
-5.0,-246.0,11.0,76.0,2.0,-4.0,0
-4.0,-248.0,9.0,73.0,2.0,-5.0,0
-3.0,-247.0,13.0,71.0,2.0,-6.0,0
-5.0,-245.0,11.0,74.0,2.0,-6.0,0
-4.0,-249.0,10.0,76.0,2.0,-5.0,0
-7.0,-248.0,6.0,79.0,2.0,-5.0,0
-4.0,-247.0,10.0,82.0,4.0,-4.0,0
-6.0,-247.0,13.0,82.0,5.0,-6.0,0
-5.0,-249.0,11.0,83.0,5.0,-5.0,0
-8.0,-250.0,11.0,81.0,7.0,-5.0,0
-10.0,-251.0,8.0,79.0,8.0,-3.0,0
-7.0,-250.0,8.0,81.0,7.0,-4.0,0
-14.0,-255.0,5.0,83.0,5.0,-1.0,0
-5.0,-249.0,9.0,90.0,4.0,-1.0,0
-9.0,-253.0,12.0,97.0,1.0,-1.0,0
-4.0,-251.0,7.0,107.0,-1.0,0.0,0
-4.0,-247.0,9.0,115.0,-3.0,2.0,0
-8.0,-244.0,10.0,123.0,-2.0,3.0,0
-8.0,-242.0,13.0,127.0,-3.0,3.0,0
-6.0,-243.0,10.0,127.0,-4.0,3.0,0
-6.0,-244.0,8.0,124.0,-7.0,5.0,0
-3.0,-245.0,10.0,118.0,-6.0,6.0,0
-4.0,-246.0,12.0,112.0,-5.0,4.0,0
-7.0,-245.0,10.0,107.0,-6.0,5.0,0
-4.0,-244.0,12.0,104.0,-6.0,6.0,0
-4.0,-245.0,12.0,101.0,-6.0,7.0,0
-4.0,-245.0,12.0,97.0,-6.0,6.0,0
-4.0,-245.0,10.0,93.0,-7.0,7.0,0
-6.0,-249.0,11.0,89.0,-7.0,6.0,0
-6.0,-250.0,9.0,87.0,-10.0,9.0,0
-8.0,-250.0,12.0,89.0,-11.0,11.0,0
-8.0,-251.0,13.0,90.0,-12.0,13.0,0
-6.0,-249.0,11.0,95.0,-13.0,14.0,0
-9.0,-249.0,20.0,102.0,-15.0,14.0,0
-12.0,-246.0,7.0,105.0,-15.0,16.0,0
-7.0,-248.0,12.0,109.0,-15.0,20.0,0
-5.0,-247.0,10.0,110.0,-18.0,22.0,0
-10.0,-247.0,13.0,112.0,-18.0,26.0,0
-12.0,-249.0,15.0,113.0,-17.0,31.0,0
-8.0,-248.0,12.0,110.0,-18.0,33.0,0
-10.0,-250.0,9.0,109.0,-19.0,38.0,0
-7.0,-248.0,13.0,109.0,-18.0,41.0,0
-9.0,-248.0,17.0,106.0,-19.0,48.0,0
-10.0,-247.0,12.0,107.0,-20.0,54.0,0
-6.0,-249.0,9.0,105.0,-23.0,63.0,0
-9.0,-246.0,14.0,101.0,-26.0,67.0,0
-8.0,-246.0,15.0,95.0,-26.0,72.0,0
-4.0,-246.0,11.0,88.0,-27.0,75.0,0
-5.0,-246.0,11.0,80.0,-26.0,77.0,0
-4.0,-244.0,8.0,74.0,-24.0,80.0,0
-4.0,-242.0,12.0,70.0,-19.0,82.0,0
-5.0,-246.0,12.0,64.0,-15.0,82.0,0
-2.0,-247.0,17.0,63.0,-9.0,83.0,0
-4.0,-248.0,15.0,63.0,-2.0,82.0,0
-1.0,-246.0,19.0,65.0,2.0,80.0,0
-5.0,-242.0,18.0,68.0,2.0,79.0,0
-5.0,-246.0,15.0,73.0,0.0,78.0,0
-4.0,-247.0,17.0,77.0,-5.0,77.0,0
-4.0,-245.0,14.0,79.0,-8.0,76.0,0
-4.0,-246.0,14.0,81.0,-12.0,78.0,0
-8.0,-252.0,18.0,80.0,-16.0,79.0,0
-8.0,-247.0,17.0,80.0,-18.0,83.0,0
-7.0,-246.0,15.0,78.0,-21.0,90.0,0
-11.0,-250.0,18.0,76.0,-22.0,94.0,0
-7.0,-247.0,13.0,73.0,-25.0,102.0,0
-12.0,-244.0,19.0,72.0,-27.0,106.0,0
-10.0,-245.0,22.0,74.0,-29.0,111.0,0
-7.0,-247.0,13.0,74.0,-29.0,117.0,0
-10.0,-245.0,12.0,73.0,-31.0,125.0,0
-7.0,-247.0,15.0,71.0,-27.0,131.0,0
-9.0,-246.0,15.0,69.0,-23.0,138.0,0
-5.0,-247.0,15.0,65.0,-17.0,142.0,0
-4.0,-250.0,13.0,63.0,-11.0,146.0,0
-3.0,-250.0,15.0,62.0,-6.0,150.0,0
-8.0,-248.0,7.0,61.0,-1.0,153.0,0
-3.0,-249.0,13.0,61.0,2.0,155.0,0
-10.0,-257.0,17.0,64.0,4.0,156.0,0
-4.0,-246.0,12.0,68.0,7.0,154.0,0
-3.0,-253.0,15.0,72.0,9.0,152.0,0
-7.0,-248.0,15.0,74.0,8.0,152.0,0
-8.0,-247.0,9.0,74.0,5.0,153.0,0
-7.0,-248.0,13.0,73.0,4.0,156.0,0
-7.0,-249.0,13.0,71.0,5.0,159.0,0
-12.0,-247.0,13.0,66.0,6.0,164.0,0
-13.0,-245.0,11.0,60.0,11.0,167.0,0
-8.0,-245.0,11.0,55.0,13.0,170.0,0
-16.0,-245.0,18.0,51.0,14.0,177.0,0
-11.0,-246.0,7.0,46.0,15.0,182.0,0
-13.0,-247.0,12.0,42.0,13.0,186.0,0
-13.0,-247.0,12.0,40.0,12.0,193.0,0
-15.0,-250.0,9.0,39.0,14.0,201.0,0
-11.0,-251.0,10.0,40.0,18.0,208.0,0
-12.0,-250.0,13.0,40.0,25.0,215.0,0
-15.0,-253.0,15.0,41.0,33.0,222.0,0
-15.0,-256.0,13.0,44.0,38.0,231.0,0
-14.0,-248.0,15.0,47.0,45.0,240.0,0
-13.0,-250.0,14.0,47.0,49.0,249.0,0
-13.0,-254.0,13.0,46.0,56.0,257.0,0
-11.0,-253.0,10.0,42.0,65.0,267.0,0
-8.0,-252.0,9.0,39.0,75.0,277.0,0
-10.0,-250.0,10.0,34.0,83.0,286.0,0
-10.0,-249.0,12.0,32.0,92.0,291.0,0
-9.0,-251.0,12.0,28.0,100.0,295.0,0
-7.0,-252.0,12.0,27.0,104.0,298.0,0
-10.0,-247.0,14.0,26.0,108.0,298.0,0
-13.0,-247.0,16.0,30.0,113.0,297.0,0
-10.0,-243.0,14.0,37.0,115.0,295.0,0
-16.0,-244.0,8.0,48.0,117.0,290.0,0
-19.0,-244.0,19.0,59.0,117.0,285.0,0
-22.0,-242.0,14.0,68.0,115.0,278.0,0
-24.0,-243.0,17.0,72.0,112.0,274.0,0
-26.0,-238.0,11.0,75.0,107.0,268.0,0
-29.0,-236.0,14.0,71.0,104.0,263.0,0
-30.0,-241.0,17.0,64.0,97.0,259.0,0
-27.0,-241.0,15.0,55.0,93.0,254.0,0
-29.0,-240.0,13.0,43.0,87.0,251.0,0
-33.0,-243.0,19.0,32.0,80.0,250.0,0
-31.0,-245.0,16.0,22.0,75.0,250.0,0
-31.0,-245.0,20.0,15.0,70.0,253.0,0
-27.0,-248.0,5.0,9.0,65.0,255.0,0
-32.0,-244.0,20.0,6.0,63.0,259.0,0
-30.0,-248.0,20.0,4.0,58.0,265.0,0
-28.0,-248.0,16.0,4.0,52.0,271.0,0
-25.0,-249.0,15.0,5.0,46.0,274.0,0
-26.0,-249.0,16.0,7.0,40.0,276.0,0
-24.0,-247.0,16.0,11.0,31.0,277.0,0
-25.0,-249.0,14.0,15.0,23.0,277.0,0
-25.0,-249.0,13.0,21.0,16.0,279.0,0
-24.0,-249.0,18.0,28.0,12.0,280.0,0
-20.0,-247.0,17.0,37.0,11.0,280.0,0
-29.0,-248.0,12.0,46.0,12.0,281.0,0
-30.0,-245.0,17.0,58.0,17.0,281.0,0
-32.0,-247.0,10.0,67.0,23.0,282.0,0
-35.0,-244.0,13.0,74.0,29.0,283.0,0
-33.0,-244.0,13.0,78.0,33.0,286.0,0
-36.0,-247.0,9.0,76.0,34.0,290.0,0
-36.0,-244.0,9.0,72.0,34.0,295.0,0
-36.0,-242.0,12.0,68.0,37.0,298.0,0
-37.0,-248.0,11.0,62.0,38.0,301.0,0
-41.0,-245.0,10.0,60.0,41.0,302.0,0
-42.0,-242.0,11.0,57.0,46.0,304.0,0
-43.0,-245.0,16.0,53.0,51.0,306.0,0
-44.0,-243.0,13.0,52.0,54.0,305.0,0
-43.0,-244.0,15.0,51.0,54.0,305.0,0
-44.0,-241.0,14.0,49.0,57.0,305.0,0
-46.0,-241.0,11.0,45.0,59.0,308.0,0
-44.0,-239.0,11.0,39.0,61.0,311.0,0
-46.0,-239.0,10.0,32.0,64.0,313.0,0
-48.0,-241.0,14.0,26.0,65.0,315.0,0
-41.0,-241.0,17.0,20.0,66.0,318.0,0
-42.0,-242.0,14.0,18.0,67.0,321.0,0
-43.0,-241.0,15.0,17.0,68.0,321.0,0
-46.0,-245.0,15.0,18.0,72.0,323.0,0
-47.0,-245.0,17.0,23.0,75.0,325.0,0
-44.0,-243.0,16.0,31.0,80.0,325.0,0
-43.0,-245.0,14.0,39.0,82.0,326.0,0
-45.0,-243.0,15.0,49.0,85.0,326.0,0
-46.0,-244.0,18.0,57.0,88.0,326.0,0
-48.0,-245.0,19.0,65.0,92.0,327.0,0
-48.0,-243.0,15.0,71.0,95.0,328.0,0
-46.0,-241.0,15.0,73.0,98.0,331.0,0
-51.0,-245.0,16.0,71.0,101.0,333.0,0
-48.0,-241.0,16.0,68.0,103.0,334.0,0
-46.0,-241.0,16.0,65.0,104.0,335.0,0
-47.0,-243.0,16.0,63.0,105.0,335.0,0
-52.0,-240.0,16.0,61.0,107.0,337.0,0
-48.0,-240.0,14.0,58.0,106.0,337.0,0
-50.0,-240.0,15.0,54.0,108.0,339.0,0
-53.0,-241.0,16.0,50.0,107.0,339.0,0
-50.0,-237.0,16.0,45.0,106.0,341.0,0
-53.0,-239.0,15.0,40.0,106.0,342.0,0
-56.0,-238.0,14.0,38.0,106.0,342.0,0
-53.0,-237.0,15.0,36.0,105.0,345.0,0
-58.0,-239.0,15.0,35.0,105.0,346.0,0
-57.0,-240.0,17.0,32.0,105.0,347.0,0
-60.0,-238.0,12.0,29.0,107.0,349.0,0
-57.0,-239.0,13.0,26.0,106.0,351.0,0
-61.0,-241.0,12.0,24.0,104.0,353.0,0
-62.0,-237.0,17.0,19.0,106.0,352.0,0
-61.0,-237.0,13.0,17.0,107.0,352.0,0
-60.0,-239.0,13.0,13.0,106.0,351.0,0
-57.0,-242.0,13.0,12.0,107.0,352.0,0
-59.0,-240.0,15.0,13.0,108.0,351.0,0
-56.0,-243.0,12.0,18.0,110.0,350.0,0
-56.0,-244.0,16.0,20.0,111.0,350.0,0
-62.0,-237.0,10.0,25.0,112.0,349.0,0
-59.0,-240.0,11.0,28.0,114.0,351.0,0
-59.0,-242.0,10.0,30.0,117.0,351.0,0
-56.0,-241.0,14.0,32.0,118.0,350.0,0
-60.0,-241.0,11.0,32.0,120.0,351.0,0
-65.0,-240.0,11.0,34.0,124.0,351.0,0
-64.0,-240.0,11.0,36.0,128.0,353.0,0
-62.0,-241.0,12.0,40.0,133.0,354.0,0
-65.0,-240.0,7.0,45.0,138.0,354.0,0
-66.0,-239.0,9.0,50.0,144.0,356.0,0
-73.0,-245.0,10.0,57.0,151.0,358.0,0
-64.0,-239.0,14.0,62.0,159.0,356.0,0
-67.0,-239.0,11.0,64.0,167.0,358.0,0
-68.0,-239.0,11.0,65.0,175.0,360.0,0
-68.0,-239.0,11.0,64.0,178.0,362.0,0
-70.0,-241.0,11.0,63.0,181.0,366.0,0
-69.0,-240.0,11.0,59.0,181.0,369.0,0
-69.0,-242.0,7.0,56.0,181.0,375.0,0
-68.0,-239.0,15.0,55.0,186.0,378.0,0
-73.0,-237.0,11.0,60.0,191.0,383.0,0
-72.0,-240.0,15.0,72.0,197.0,387.0,0
-73.0,-240.0,13.0,85.0,202.0,390.0,0
-70.0,-244.0,12.0,95.0,205.0,392.0,0
-73.0,-239.0,11.0,104.0,204.0,396.0,0
-70.0,-241.0,7.0,108.0,204.0,400.0,0
-71.0,-240.0,11.0,107.0,204.0,402.0,0
-70.0,-236.0,6.0,103.0,205.0,405.0,0
-75.0,-235.0,7.0,98.0,206.0,406.0,0
-70.0,-239.0,7.0,91.0,207.0,409.0,0
-71.0,-237.0,7.0,84.0,206.0,411.0,0
-73.0,-239.0,8.0,75.0,206.0,414.0,0
-77.0,-236.0,8.0,66.0,204.0,416.0,0
-78.0,-236.0,8.0,62.0,207.0,417.0,0
-78.0,-237.0,11.0,61.0,209.0,418.0,0
-80.0,-238.0,10.0,69.0,211.0,418.0,0
-79.0,-237.0,13.0,83.0,216.0,417.0,0
-81.0,-236.0,16.0,99.0,219.0,415.0,0
-82.0,-238.0,18.0,114.0,222.0,414.0,0
-83.0,-235.0,16.0,129.0,223.0,413.0,0
-86.0,-233.0,14.0,139.0,223.0,414.0,0
-87.0,-231.0,10.0,143.0,220.0,414.0,0
-87.0,-230.0,18.0,141.0,210.0,413.0,0
-88.0,-233.0,13.0,134.0,200.0,413.0,0
-85.0,-232.0,19.0,124.0,192.0,410.0,0
-87.0,-229.0,10.0,113.0,185.0,409.0,0
-90.0,-231.0,10.0,100.0,180.0,408.0,0
-89.0,-227.0,9.0,88.0,177.0,408.0,0
-92.0,-225.0,9.0,73.0,176.0,408.0,0
-91.0,-229.0,6.0,58.0,173.0,407.0,0
-92.0,-226.0,6.0,41.0,169.0,403.0,0
-96.0,-224.0,7.0,25.0,159.0,402.0,0
-99.0,-224.0,4.0,7.0,145.0,401.0,0
-99.0,-226.0,3.0,-10.0,130.0,404.0,0
-100.0,-228.0,-3.0,-24.0,115.0,404.0,0
-100.0,-228.0,3.0,-38.0,109.0,408.0,0
-101.0,-230.0,5.0,-49.0,106.0,411.0,0
-102.0,-234.0,4.0,-53.0,111.0,417.0,0
-104.0,-234.0,4.0,-47.0,118.0,424.0,0
-107.0,-231.0,11.0,-32.0,124.0,429.0,0
-107.0,-228.0,7.0,-12.0,127.0,432.0,0
-108.0,-230.0,11.0,11.0,128.0,436.0,0
-108.0,-227.0,16.0,31.0,126.0,434.0,0
-105.0,-227.0,14.0,47.0,120.0,435.0,0
-109.0,-224.0,9.0,56.0,113.0,433.0,0
-109.0,-223.0,12.0,61.0,101.0,427.0,0
-116.0,-226.0,10.0,64.0,89.0,423.0,0
-114.0,-220.0,11.0,61.0,74.0,418.0,0
-116.0,-217.0,11.0,54.0,55.0,415.0,0
-114.0,-216.0,7.0,43.0,42.0,414.0,0
-116.0,-217.0,12.0,27.0,30.0,414.0,0
-116.0,-216.0,11.0,12.0,26.0,414.0,0
-114.0,-218.0,13.0,0.0,22.0,415.0,0
-113.0,-220.0,14.0,-12.0,13.0,418.0,0
-117.0,-220.0,14.0,-21.0,5.0,420.0,0
-117.0,-221.0,13.0,-25.0,-6.0,419.0,0
-116.0,-227.0,9.0,-28.0,-13.0,416.0,0
-113.0,-225.0,10.0,-30.0,-18.0,411.0,0
-113.0,-223.0,11.0,-32.0,-18.0,407.0,0
-112.0,-223.0,8.0,-37.0,-17.0,405.0,0
-116.0,-222.0,9.0,-43.0,-17.0,404.0,0
-117.0,-223.0,6.0,-48.0,-16.0,405.0,0
-114.0,-226.0,5.0,-52.0,-15.0,409.0,0
-115.0,-226.0,8.0,-51.0,-12.0,415.0,0
-114.0,-226.0,13.0,-43.0,-8.0,420.0,0
-116.0,-227.0,9.0,-31.0,-2.0,425.0,0
-114.0,-225.0,13.0,-13.0,5.0,431.0,0
-117.0,-221.0,10.0,10.0,15.0,435.0,0
-117.0,-223.0,9.0,37.0,25.0,440.0,0
-118.0,-227.0,10.0,60.0,34.0,445.0,0
-118.0,-222.0,14.0,81.0,41.0,449.0,0
-119.0,-221.0,11.0,97.0,48.0,453.0,0
-118.0,-217.0,14.0,105.0,53.0,459.0,0
-120.0,-217.0,11.0,108.0,56.0,461.0,0
-119.0,-215.0,12.0,103.0,56.0,464.0,0
-117.0,-212.0,14.0,93.0,58.0,466.0,0
-116.0,-209.0,8.0,76.0,58.0,465.0,0
-121.0,-209.0,9.0,58.0,54.0,461.0,0
-117.0,-209.0,9.0,42.0,51.0,455.0,0
-123.0,-208.0,11.0,26.0,52.0,447.0,0
-123.0,-213.0,7.0,14.0,51.0,439.0,0
-130.0,-211.0,10.0,4.0,54.0,431.0,0
-131.0,-213.0,12.0,2.0,57.0,426.0,0
-133.0,-215.0,12.0,4.0,64.0,421.0,0
-135.0,-216.0,12.0,9.0,71.0,419.0,0
-137.0,-211.0,11.0,19.0,81.0,415.0,0
-135.0,-215.0,11.0,30.0,88.0,409.0,0
-137.0,-209.0,9.0,36.0,92.0,406.0,0
-136.0,-208.0,8.0,35.0,92.0,401.0,0
-139.0,-198.0,8.0,25.0,88.0,400.0,0
-134.0,-205.0,-1.0,10.0,83.0,400.0,0
-133.0,-204.0,-1.0,-8.0,78.0,401.0,0
-133.0,-206.0,6.0,-20.0,77.0,402.0,0
-133.0,-208.0,12.0,-18.0,79.0,405.0,0
-134.0,-209.0,8.0,-3.0,84.0,408.0,0
-134.0,-212.0,10.0,22.0,87.0,408.0,0
-136.0,-210.0,8.0,49.0,92.0,411.0,0
-136.0,-211.0,10.0,74.0,100.0,414.0,0
-136.0,-205.0,6.0,90.0,102.0,416.0,0
-132.0,-203.0,4.0,98.0,105.0,417.0,0
-134.0,-208.0,6.0,98.0,102.0,416.0,0
-134.0,-200.0,1.0,91.0,103.0,414.0,0
-131.0,-200.0,4.0,77.0,102.0,415.0,0
-133.0,-197.0,-1.0,56.0,104.0,410.0,0
-132.0,-197.0,1.0,38.0,110.0,410.0,0
-134.0,-199.0,1.0,23.0,120.0,407.0,0
-136.0,-197.0,1.0,14.0,132.0,407.0,0
-138.0,-198.0,-2.0,9.0,146.0,407.0,0
-141.0,-200.0,2.0,7.0,158.0,409.0,0
-141.0,-200.0,2.0,6.0,166.0,414.0,0
-145.0,-196.0,-2.0,5.0,171.0,417.0,0
-148.0,-191.0,-2.0,6.0,175.0,421.0,0
-144.0,-203.0,-1.0,8.0,181.0,425.0,0
-148.0,-201.0,-2.0,10.0,187.0,432.0,0
-147.0,-205.0,1.0,15.0,191.0,438.0,0
-150.0,-205.0,0.0,20.0,188.0,444.0,0
-148.0,-204.0,-2.0,24.0,182.0,448.0,0
-145.0,-206.0,1.0,30.0,177.0,452.0,0
-148.0,-204.0,1.0,36.0,174.0,455.0,0
-152.0,-198.0,0.0,43.0,173.0,456.0,0
-152.0,-196.0,0.0,47.0,173.0,456.0,0
-154.0,-195.0,1.0,51.0,172.0,456.0,0
-151.0,-200.0,4.0,51.0,169.0,455.0,0
-152.0,-194.0,3.0,49.0,167.0,454.0,0
-155.0,-195.0,1.0,43.0,166.0,454.0,0
-157.0,-194.0,-2.0,32.0,167.0,454.0,0
-152.0,-194.0,2.0,22.0,172.0,454.0,0
-153.0,-198.0,0.0,13.0,178.0,451.0,0
-155.0,-196.0,1.0,11.0,179.0,447.0,0
-154.0,-199.0,5.0,12.0,173.0,448.0,0
-156.0,-195.0,3.0,14.0,165.0,445.0,0
-153.0,-193.0,2.0,15.0,158.0,445.0,0
-155.0,-193.0,-1.0,14.0,159.0,445.0,0
-158.0,-196.0,0.0,12.0,165.0,445.0,0
-157.0,-193.0,3.0,11.0,174.0,446.0,0
-158.0,-191.0,4.0,11.0,183.0,447.0,0
-161.0,-191.0,2.0,11.0,184.0,448.0,0
-160.0,-191.0,0.0,13.0,179.0,448.0,0
-160.0,-189.0,0.0,11.0,174.0,447.0,0
-162.0,-188.0,-5.0,9.0,166.0,445.0,0
-163.0,-189.0,-2.0,7.0,158.0,442.0,0
-157.0,-189.0,-4.0,4.0,150.0,439.0,0
-162.0,-187.0,-3.0,-2.0,146.0,437.0,0
-160.0,-184.0,-5.0,-11.0,147.0,430.0,0
-161.0,-186.0,-4.0,-23.0,149.0,424.0,0
-164.0,-184.0,-3.0,-37.0,149.0,420.0,0
-161.0,-187.0,-7.0,-48.0,150.0,417.0,0
-163.0,-187.0,-8.0,-59.0,148.0,415.0,0
-161.0,-190.0,-4.0,-66.0,146.0,415.0,0
-163.0,-187.0,-4.0,-66.0,146.0,411.0,0
-164.0,-192.0,-1.0,-59.0,140.0,407.0,0
-166.0,-193.0,2.0,-43.0,138.0,405.0,0
-169.0,-199.0,0.0,-20.0,133.0,401.0,0
-174.0,-196.0,0.0,11.0,130.0,397.0,0
-179.0,-199.0,2.0,46.0,128.0,394.0,0
-182.0,-196.0,0.0,76.0,128.0,393.0,0
-179.0,-196.0,-3.0,102.0,128.0,392.0,0
-184.0,-189.0,-4.0,116.0,122.0,396.0,0
-182.0,-188.0,-6.0,120.0,111.0,404.0,0
-179.0,-187.0,-11.0,114.0,101.0,410.0,0
-174.0,-183.0,-13.0,98.0,94.0,416.0,0
-172.0,-177.0,-13.0,78.0,92.0,422.0,0
-171.0,-177.0,-8.0,56.0,94.0,428.0,0
-165.0,-178.0,-11.0,37.0,98.0,429.0,0
-161.0,-177.0,-6.0,22.0,103.0,429.0,0
-164.0,-173.0,-2.0,12.0,110.0,424.0,0
-164.0,-174.0,-6.0,5.0,119.0,418.0,0
-162.0,-170.0,-8.0,1.0,130.0,413.0,0
-167.0,-170.0,-11.0,-5.0,141.0,409.0,0
-168.0,-169.0,-12.0,-13.0,149.0,408.0,0
-170.0,-170.0,-12.0,-23.0,158.0,404.0,0
-169.0,-168.0,-13.0,-38.0,166.0,399.0,0
-171.0,-170.0,-13.0,-50.0,178.0,396.0,0
-174.0,-169.0,-12.0,-62.0,190.0,388.0,0
-179.0,-175.0,-9.0,-68.0,197.0,382.0,0
-187.0,-176.0,-3.0,-65.0,197.0,376.0,0
-189.0,-182.0,0.0,-51.0,192.0,370.0,0
-193.0,-177.0,-6.0,-27.0,185.0,367.0,0
-197.0,-177.0,-3.0,-1.0,178.0,365.0,0
-198.0,-179.0,-5.0,24.0,169.0,365.0,0
-201.0,-178.0,-8.0,44.0,159.0,367.0,0
-201.0,-177.0,-8.0,60.0,148.0,369.0,0
-198.0,-176.0,-12.0,65.0,136.0,372.0,0
-194.0,-174.0,-10.0,64.0,127.0,372.0,0
-190.0,-173.0,-9.0,58.0,125.0,369.0,0
-184.0,-169.0,-10.0,49.0,130.0,365.0,0
-181.0,-170.0,-11.0,40.0,139.0,360.0,0
-177.0,-160.0,-9.0,29.0,148.0,354.0,0
-172.0,-169.0,-7.0,20.0,151.0,345.0,0
-170.0,-163.0,-9.0,12.0,150.0,343.0,0
-173.0,-162.0,-10.0,6.0,145.0,341.0,0
-176.0,-163.0,-10.0,4.0,137.0,340.0,0
-181.0,-160.0,-8.0,6.0,126.0,343.0,0
-185.0,-160.0,-11.0,12.0,116.0,346.0,0
-194.0,-158.0,-10.0,22.0,109.0,352.0,0
-195.0,-162.0,-7.0,33.0,111.0,357.0,0
-198.0,-164.0,-13.0,44.0,118.0,359.0,0
-203.0,-157.0,-13.0,52.0,125.0,360.0,0
-206.0,-157.0,-15.0,56.0,128.0,359.0,0
-205.0,-156.0,-16.0,50.0,127.0,360.0,0
-206.0,-154.0,-13.0,30.0,122.0,356.0,0
-202.0,-150.0,-8.0,2.0,117.0,354.0,0
-200.0,-149.0,-13.0,-34.0,115.0,351.0,0
-200.0,-150.0,-10.0,-78.0,115.0,345.0,0
-199.0,-146.0,-15.0,-123.0,112.0,342.0,0
-203.0,-148.0,-15.0,-171.0,105.0,340.0,0
-200.0,-146.0,-19.0,-221.0,94.0,339.0,0
-200.0,-147.0,-16.0,-273.0,82.0,340.0,0
-198.0,-151.0,-19.0,-320.0,75.0,342.0,0
-199.0,-152.0,-11.0,-358.0,71.0,348.0,0
-199.0,-152.0,-13.0,-384.0,72.0,349.0,0
-197.0,-154.0,-11.0,-395.0,68.0,354.0,0
-197.0,-157.0,-13.0,-396.0,62.0,357.0,0
-197.0,-157.0,-14.0,-390.0,50.0,360.0,0
-194.0,-157.0,-14.0,-383.0,38.0,362.0,0
-193.0,-159.0,-10.0,-372.0,27.0,364.0,0
-191.0,-163.0,-11.0,-361.0,22.0,365.0,0
-191.0,-161.0,-12.0,-346.0,19.0,367.0,0
-192.0,-164.0,-12.0,-322.0,19.0,368.0,0
-193.0,-167.0,-16.0,-290.0,18.0,370.0,0
-198.0,-166.0,-20.0,-246.0,17.0,373.0,0
-196.0,-169.0,-16.0,-194.0,16.0,377.0,0
-196.0,-171.0,-19.0,-137.0,18.0,378.0,0
-198.0,-170.0,-18.0,-78.0,22.0,379.0,0
-199.0,-169.0,-18.0,-22.0,26.0,382.0,0
-199.0,-168.0,-22.0,23.0,29.0,385.0,0
-200.0,-159.0,-29.0,54.0,31.0,387.0,0
-198.0,-157.0,-26.0,68.0,31.0,392.0,0
-194.0,-157.0,-27.0,66.0,27.0,389.0,0
-195.0,-149.0,-31.0,53.0,26.0,388.0,0
-199.0,-148.0,-28.0,37.0,23.0,385.0,0
-200.0,-146.0,-32.0,19.0,19.0,382.0,0
-201.0,-142.0,-28.0,3.0,14.0,377.0,0
-199.0,-145.0,-22.0,-12.0,7.0,376.0,0
-201.0,-142.0,-21.0,-24.0,-2.0,372.0,0
-204.0,-141.0,-21.0,-32.0,-11.0,369.0,0
-207.0,-144.0,-19.0,-38.0,-18.0,367.0,0
-208.0,-147.0,-22.0,-44.0,-24.0,364.0,0
-208.0,-147.0,-20.0,-50.0,-31.0,362.0,0
-210.0,-148.0,-20.0,-52.0,-39.0,361.0,0
-213.0,-149.0,-27.0,-51.0,-52.0,357.0,0
-207.0,-149.0,-28.0,-46.0,-67.0,356.0,0
-209.0,-152.0,-21.0,-43.0,-79.0,357.0,0
-206.0,-152.0,-27.0,-41.0,-86.0,357.0,0
-203.0,-156.0,-25.0,-38.0,-90.0,358.0,0
-205.0,-152.0,-22.0,-35.0,-90.0,358.0,0
-204.0,-155.0,-21.0,-33.0,-94.0,357.0,0
-202.0,-151.0,-21.0,-32.0,-100.0,355.0,0
-201.0,-152.0,-22.0,-35.0,-101.0,353.0,0
-201.0,-150.0,-22.0,-44.0,-106.0,349.0,0
-201.0,-152.0,-25.0,-55.0,-108.0,343.0,0
-202.0,-148.0,-26.0,-66.0,-114.0,336.0,0
-200.0,-148.0,-24.0,-75.0,-119.0,327.0,0
-199.0,-146.0,-21.0,-82.0,-124.0,318.0,0
-204.0,-150.0,-22.0,-83.0,-127.0,309.0,0
-209.0,-148.0,-19.0,-80.0,-125.0,301.0,0
-209.0,-145.0,-22.0,-76.0,-120.0,294.0,0
-207.0,-146.0,-22.0,-73.0,-116.0,288.0,0
-207.0,-144.0,-19.0,-67.0,-111.0,283.0,0
-208.0,-143.0,-25.0,-63.0,-107.0,281.0,0
-208.0,-144.0,-19.0,-58.0,-106.0,275.0,0
-205.0,-140.0,-22.0,-57.0,-110.0,268.0,0
-207.0,-140.0,-22.0,-54.0,-119.0,268.0,0
-209.0,-146.0,-20.0,-53.0,-128.0,264.0,0
-207.0,-139.0,-15.0,-50.0,-132.0,261.0,0
-208.0,-138.0,-17.0,-48.0,-135.0,255.0,0
-210.0,-137.0,-20.0,-45.0,-134.0,250.0,0
-213.0,-136.0,-21.0,-43.0,-134.0,246.0,0
-210.0,-140.0,-18.0,-44.0,-129.0,242.0,0
-213.0,-138.0,-18.0,-46.0,-118.0,241.0,0
-208.0,-144.0,-14.0,-47.0,-102.0,242.0,0
-211.0,-138.0,-11.0,-48.0,-87.0,242.0,0
-212.0,-139.0,-16.0,-44.0,-80.0,243.0,0
-209.0,-140.0,-14.0,-39.0,-79.0,249.0,0
-211.0,-138.0,-19.0,-36.0,-83.0,255.0,0
-208.0,-137.0,-18.0,-34.0,-86.0,260.0,0
-209.0,-141.0,-19.0,-37.0,-85.0,267.0,0
-208.0,-137.0,-22.0,-41.0,-79.0,272.0,0
-206.0,-138.0,-17.0,-47.0,-71.0,277.0,0
-206.0,-140.0,-19.0,-53.0,-61.0,281.0,0
-208.0,-139.0,-20.0,-56.0,-54.0,286.0,0
-210.0,-140.0,-24.0,-57.0,-48.0,292.0,0
-209.0,-145.0,-19.0,-54.0,-47.0,295.0,0
-211.0,-146.0,-18.0,-40.0,-46.0,300.0,0
-215.0,-143.0,-17.0,-16.0,-45.0,303.0,0
-218.0,-144.0,-24.0,17.0,-38.0,308.0,0
-217.0,-140.0,-16.0,51.0,-26.0,309.0,0
-218.0,-136.0,-12.0,84.0,-14.0,312.0,0
-214.0,-138.0,-11.0,108.0,0.0,311.0,0
-218.0,-129.0,-15.0,123.0,10.0,311.0,0
-218.0,-128.0,-11.0,127.0,13.0,308.0,0
-218.0,-125.0,-16.0,121.0,11.0,304.0,0
-218.0,-123.0,-16.0,107.0,8.0,303.0,0
-221.0,-119.0,-12.0,85.0,8.0,301.0,0
-222.0,-119.0,-11.0,64.0,8.0,299.0,0
-223.0,-122.0,-15.0,45.0,8.0,300.0,0
-225.0,-120.0,-16.0,30.0,3.0,300.0,0
-226.0,-122.0,-14.0,18.0,0.0,302.0,0
-229.0,-119.0,-13.0,10.0,-6.0,301.0,0
-228.0,-123.0,-15.0,7.0,-15.0,303.0,0
-226.0,-125.0,-16.0,6.0,-24.0,305.0,0
-222.0,-126.0,-13.0,4.0,-39.0,305.0,0
-224.0,-125.0,-17.0,3.0,-51.0,310.0,0
-226.0,-126.0,-18.0,4.0,-60.0,311.0,0
-222.0,-126.0,-19.0,6.0,-68.0,316.0,0
-222.0,-127.0,-22.0,10.0,-72.0,317.0,0
-228.0,-126.0,-20.0,11.0,-74.0,318.0,0
-223.0,-129.0,-11.0,14.0,-76.0,318.0,0
-224.0,-125.0,-14.0,19.0,-76.0,316.0,0
-224.0,-123.0,-17.0,23.0,-76.0,313.0,0
-224.0,-119.0,-18.0,28.0,-77.0,309.0,0
-224.0,-121.0,-20.0,28.0,-75.0,306.0,0
-222.0,-120.0,-13.0,24.0,-73.0,300.0,0
-223.0,-121.0,-16.0,17.0,-72.0,294.0,0
-227.0,-122.0,-13.0,8.0,-73.0,288.0,0
-225.0,-123.0,-15.0,-1.0,-78.0,283.0,0
-225.0,-125.0,-16.0,-8.0,-84.0,279.0,0
-225.0,-123.0,-25.0,-17.0,-92.0,275.0,0
-224.0,-122.0,-23.0,-22.0,-102.0,268.0,0
-223.0,-118.0,-21.0,-28.0,-112.0,262.0,0
-225.0,-117.0,-27.0,-35.0,-126.0,258.0,0
-224.0,-114.0,-23.0,-42.0,-138.0,254.0,0
-226.0,-113.0,-22.0,-51.0,-142.0,252.0,0
-227.0,-111.0,-18.0,-59.0,-138.0,250.0,0
-229.0,-112.0,-14.0,-66.0,-130.0,248.0,0
-233.0,-112.0,-13.0,-75.0,-122.0,246.0,0
-231.0,-111.0,-13.0,-82.0,-118.0,246.0,0
-232.0,-113.0,-12.0,-91.0,-116.0,245.0,0
-231.0,-112.0,-8.0,-103.0,-113.0,244.0,0
-231.0,-114.0,-15.0,-116.0,-105.0,241.0,0
-229.0,-115.0,-18.0,-127.0,-102.0,233.0,0
-231.0,-113.0,-21.0,-136.0,-99.0,228.0,0
-228.0,-115.0,-28.0,-146.0,-103.0,224.0,0
-228.0,-116.0,-22.0,-151.0,-110.0,218.0,0
-224.0,-117.0,-24.0,-148.0,-111.0,214.0,0
-225.0,-117.0,-17.0,-138.0,-109.0,208.0,0
-228.0,-118.0,-16.0,-124.0,-105.0,204.0,0
-231.0,-115.0,-16.0,-109.0,-100.0,202.0,0
-230.0,-116.0,-16.0,-91.0,-96.0,199.0,0
-225.0,-114.0,-12.0,-74.0,-94.0,201.0,0
-225.0,-119.0,-19.0,-66.0,-90.0,203.0,0
-229.0,-114.0,-15.0,-63.0,-88.0,203.0,0
-225.0,-113.0,-13.0,-65.0,-89.0,201.0,0
-227.0,-112.0,-11.0,-64.0,-87.0,199.0,0
-224.0,-108.0,-15.0,-67.0,-85.0,198.0,0
-226.0,-107.0,-18.0,-65.0,-77.0,193.0,0
-228.0,-106.0,-17.0,-68.0,-66.0,188.0,0
-228.0,-104.0,-23.0,-67.0,-59.0,181.0,0
-231.0,-105.0,-15.0,-65.0,-55.0,177.0,0
-231.0,-104.0,-13.0,-61.0,-49.0,174.0,0
-235.0,-101.0,-13.0,-57.0,-40.0,173.0,0
-235.0,-103.0,-11.0,-53.0,-28.0,174.0,0
-234.0,-102.0,-9.0,-52.0,-16.0,179.0,0
-237.0,-103.0,-8.0,-54.0,-6.0,182.0,0
-238.0,-105.0,-5.0,-55.0,-3.0,185.0,0
-241.0,-105.0,-7.0,-54.0,-11.0,188.0,0
-238.0,-108.0,-7.0,-53.0,-28.0,191.0,0
-241.0,-105.0,-11.0,-56.0,-41.0,192.0,0
-240.0,-105.0,-11.0,-56.0,-51.0,190.0,0
-238.0,-113.0,-9.0,-54.0,-52.0,191.0,0
-231.0,-114.0,-8.0,-48.0,-46.0,188.0,0
-240.0,-108.0,-5.0,-32.0,-37.0,187.0,0
-234.0,-115.0,-6.0,-13.0,-28.0,182.0,0
-230.0,-109.0,-7.0,7.0,-22.0,178.0,0
-235.0,-112.0,-6.0,24.0,-17.0,179.0,0
-229.0,-112.0,-8.0,35.0,-13.0,182.0,0
-229.0,-109.0,-6.0,42.0,-14.0,185.0,0
-236.0,-109.0,-7.0,45.0,-24.0,186.0,0
-233.0,-112.0,-3.0,50.0,-38.0,189.0,0
-232.0,-111.0,-8.0,56.0,-48.0,189.0,0
-232.0,-105.0,-9.0,69.0,-49.0,185.0,0
-229.0,-107.0,-9.0,82.0,-37.0,181.0,0
-233.0,-106.0,-7.0,93.0,-16.0,177.0,0
-230.0,-104.0,-10.0,99.0,5.0,176.0,0
-229.0,-104.0,-12.0,97.0,23.0,176.0,0
-229.0,-105.0,-14.0,85.0,29.0,180.0,0
-234.0,-100.0,-13.0,71.0,25.0,183.0,0
-232.0,-103.0,-15.0,60.0,14.0,188.0,0
-234.0,-102.0,-15.0,59.0,2.0,191.0,0
-235.0,-106.0,-12.0,71.0,-8.0,196.0,0
-236.0,-107.0,-12.0,91.0,-12.0,199.0,0
-238.0,-102.0,-12.0,116.0,-12.0,202.0,0
-236.0,-101.0,-20.0,136.0,-4.0,203.0,0
-229.0,-107.0,-29.0,149.0,7.0,207.0,0
-230.0,-104.0,-21.0,155.0,21.0,211.0,0
-230.0,-102.0,-25.0,157.0,40.0,212.0,0
-229.0,-106.0,-24.0,159.0,62.0,213.0,0
-228.0,-104.0,-21.0,161.0,81.0,216.0,0
-230.0,-104.0,-22.0,163.0,92.0,215.0,0
-231.0,-104.0,-23.0,164.0,88.0,214.0,0
-235.0,-97.0,-20.0,164.0,77.0,213.0,0
-237.0,-97.0,-17.0,162.0,71.0,212.0,0
-236.0,-94.0,-24.0,162.0,73.0,211.0,0
-237.0,-92.0,-19.0,165.0,84.0,208.0,0
-236.0,-95.0,-23.0,169.0,93.0,203.0,0
-241.0,-90.0,-23.0,169.0,99.0,199.0,0
-238.0,-91.0,-23.0,162.0,101.0,192.0,0
-241.0,-91.0,-18.0,154.0,103.0,187.0,0
-238.0,-94.0,-20.0,149.0,105.0,179.0,0
-238.0,-95.0,-21.0,145.0,103.0,174.0,0
-242.0,-92.0,-21.0,148.0,94.0,168.0,0
-244.0,-96.0,-21.0,151.0,80.0,167.0,0
-241.0,-94.0,-16.0,156.0,64.0,171.0,0
-245.0,-92.0,-18.0,162.0,51.0,175.0,0
-244.0,-92.0,-16.0,167.0,44.0,180.0,0
-241.0,-97.0,-16.0,171.0,41.0,190.0,0
-243.0,-93.0,-15.0,168.0,39.0,197.0,0
-240.0,-92.0,-19.0,166.0,29.0,201.0,0
-236.0,-97.0,-17.0,163.0,13.0,200.0,0
-236.0,-95.0,-21.0,161.0,-4.0,201.0,0
-235.0,-95.0,-20.0,158.0,-16.0,198.0,0
-232.0,-97.0,-19.0,155.0,-23.0,195.0,0
-233.0,-92.0,-19.0,151.0,-21.0,197.0,0
-236.0,-93.0,-16.0,149.0,-19.0,202.0,0
-238.0,-91.0,-16.0,149.0,-18.0,208.0,0
-237.0,-93.0,-17.0,153.0,-19.0,214.0,0
-240.0,-92.0,-10.0,156.0,-16.0,220.0,0
-240.0,-91.0,-11.0,160.0,-9.0,225.0,0
-239.0,-88.0,-14.0,161.0,1.0,229.0,0
-240.0,-88.0,-11.0,158.0,5.0,232.0,0
-248.0,-88.0,-15.0,151.0,2.0,233.0,0
-246.0,-89.0,-17.0,139.0,-9.0,233.0,0
-248.0,-89.0,-15.0,128.0,-23.0,235.0,0
-246.0,-90.0,-18.0,119.0,-33.0,233.0,0
-248.0,-92.0,-19.0,110.0,-37.0,233.0,0
-247.0,-93.0,-22.0,108.0,-40.0,234.0,0
-246.0,-92.0,-15.0,111.0,-44.0,231.0,0
-250.0,-96.0,-17.0,120.0,-50.0,229.0,0
-248.0,-93.0,-17.0,129.0,-58.0,228.0,0
-248.0,-97.0,-15.0,140.0,-66.0,229.0,0
-248.0,-93.0,-16.0,151.0,-72.0,229.0,0
-247.0,-91.0,-11.0,158.0,-79.0,230.0,0
-249.0,-90.0,-8.0,164.0,-92.0,232.0,0
-247.0,-87.0,-8.0,167.0,-109.0,235.0,0
-247.0,-89.0,-8.0,169.0,-126.0,239.0,0
-244.0,-89.0,-5.0,170.0,-138.0,243.0,0
-240.0,-83.0,-6.0,164.0,-145.0,247.0,0
-239.0,-85.0,-2.0,153.0,-150.0,247.0,0
-226.0,-84.0,3.0,135.0,-154.0,246.0,0
-233.0,-82.0,-5.0,119.0,-160.0,244.0,0
-241.0,-81.0,-6.0,103.0,-167.0,238.0,0
-244.0,-80.0,-1.0,93.0,-174.0,231.0,0
-244.0,-82.0,-5.0,82.0,-183.0,224.0,0
-248.0,-81.0,-6.0,75.0,-193.0,216.0,0
-249.0,-83.0,-8.0,68.0,-200.0,209.0,0
-256.0,-82.0,-9.0,61.0,-206.0,203.0,0
-256.0,-82.0,-13.0,57.0,-211.0,196.0,0
-251.0,-84.0,-11.0,51.0,-212.0,193.0,0
-253.0,-81.0,-5.0,46.0,-214.0,189.0,0
-251.0,-82.0,-14.0,43.0,-217.0,184.0,0
-256.0,-85.0,-8.0,39.0,-222.0,175.0,0
-254.0,-81.0,-8.0,41.0,-229.0,168.0,0
-255.0,-80.0,-6.0,46.0,-237.0,160.0,0
-250.0,-82.0,-6.0,52.0,-242.0,151.0,0
-250.0,-81.0,-4.0,59.0,-246.0,143.0,0
-251.0,-79.0,-4.0,61.0,-246.0,136.0,0
-248.0,-80.0,-4.0,58.0,-248.0,132.0,0
-248.0,-78.0,-2.0,53.0,-247.0,129.0,0
-248.0,-80.0,-1.0,48.0,-247.0,126.0,0
-244.0,-75.0,-5.0,42.0,-246.0,127.0,0
-243.0,-82.0,1.0,40.0,-249.0,126.0,0
-246.0,-84.0,-2.0,41.0,-250.0,131.0,0
-247.0,-85.0,0.0,46.0,-261.0,134.0,0
-245.0,-86.0,-2.0,56.0,-275.0,137.0,0
-244.0,-84.0,-2.0,70.0,-288.0,143.0,0
-246.0,-82.0,1.0,87.0,-299.0,151.0,0
-249.0,-84.0,4.0,105.0,-304.0,158.0,0
-249.0,-81.0,1.0,122.0,-306.0,167.0,0
-247.0,-85.0,1.0,135.0,-305.0,178.0,0
-244.0,-88.0,2.0,146.0,-301.0,188.0,0
-251.0,-76.0,-1.0,156.0,-297.0,195.0,0
-245.0,-78.0,5.0,167.0,-295.0,198.0,0
-244.0,-80.0,2.0,171.0,-296.0,198.0,0
-248.0,-78.0,6.0,174.0,-299.0,195.0,0
-244.0,-79.0,2.0,178.0,-308.0,194.0,0
-242.0,-79.0,0.0,181.0,-319.0,192.0,0
-240.0,-78.0,1.0,185.0,-329.0,192.0,0
-243.0,-81.0,-1.0,186.0,-334.0,187.0,0
-240.0,-80.0,2.0,190.0,-336.0,184.0,0
-242.0,-77.0,0.0,197.0,-339.0,181.0,0
-242.0,-80.0,5.0,207.0,-338.0,179.0,0
-242.0,-78.0,2.0,217.0,-334.0,181.0,0
-244.0,-76.0,3.0,224.0,-327.0,186.0,0
-242.0,-76.0,9.0,228.0,-319.0,192.0,0
-240.0,-71.0,4.0,230.0,-308.0,196.0,0
-242.0,-72.0,2.0,231.0,-296.0,200.0,0
-241.0,-69.0,11.0,230.0,-289.0,203.0,0
-240.0,-69.0,11.0,232.0,-280.0,207.0,0
-244.0,-68.0,11.0,236.0,-276.0,206.0,0
-243.0,-72.0,11.0,239.0,-274.0,205.0,0
-242.0,-72.0,14.0,247.0,-273.0,206.0,0
-239.0,-71.0,18.0,258.0,-270.0,208.0,0
-244.0,-74.0,14.0,269.0,-267.0,211.0,0
-241.0,-69.0,16.0,281.0,-266.0,216.0,0
-238.0,-68.0,13.0,292.0,-262.0,222.0,0
-235.0,-69.0,13.0,302.0,-260.0,225.0,0
-235.0,-65.0,10.0,313.0,-264.0,224.0,0
-240.0,-64.0,11.0,323.0,-273.0,223.0,0
-240.0,-62.0,9.0,329.0,-281.0,219.0,0
-243.0,-59.0,15.0,331.0,-290.0,219.0,0
-247.0,-59.0,12.0,327.0,-292.0,220.0,0
-251.0,-55.0,7.0,318.0,-291.0,222.0,0
-254.0,-59.0,12.0,302.0,-289.0,225.0,0
-253.0,-58.0,19.0,290.0,-290.0,228.0,0
-257.0,-57.0,16.0,280.0,-300.0,232.0,0
-259.0,-58.0,15.0,276.0,-318.0,235.0,0
-261.0,-58.0,17.0,275.0,-342.0,237.0,0
-259.0,-58.0,17.0,276.0,-366.0,239.0,0
-262.0,-56.0,17.0,281.0,-388.0,241.0,0
-261.0,-53.0,24.0,284.0,-405.0,240.0,0
-260.0,-54.0,21.0,284.0,-415.0,239.0,0
-260.0,-49.0,21.0,281.0,-419.0,234.0,0
-256.0,-49.0,23.0,273.0,-417.0,226.0,0
-249.0,-48.0,36.0,266.0,-412.0,213.0,0
-254.0,-44.0,24.0,255.0,-406.0,197.0,0
-256.0,-41.0,25.0,244.0,-403.0,178.0,0
-256.0,-35.0,22.0,235.0,-403.0,159.0,0
-258.0,-39.0,21.0,220.0,-404.0,141.0,0
-258.0,-35.0,17.0,196.0,-403.0,123.0,0
-259.0,-35.0,19.0,173.0,-397.0,107.0,0
-261.0,-35.0,21.0,149.0,-392.0,94.0,0
-261.0,-36.0,22.0,130.0,-385.0,83.0,0
-262.0,-37.0,24.0,113.0,-383.0,70.0,0
-260.0,-42.0,22.0,103.0,-385.0,57.0,0
-260.0,-43.0,16.0,96.0,-387.0,48.0,0
-258.0,-49.0,24.0,89.0,-387.0,41.0,0
-258.0,-50.0,23.0,83.0,-388.0,39.0,0
-259.0,-54.0,23.0,76.0,-389.0,40.0,0
-254.0,-54.0,26.0,71.0,-390.0,39.0,0
-250.0,-62.0,29.0,73.0,-395.0,40.0,0
-247.0,-65.0,31.0,83.0,-407.0,38.0,0
-247.0,-67.0,34.0,99.0,-422.0,39.0,0
-247.0,-66.0,32.0,119.0,-439.0,39.0,0
-246.0,-68.0,37.0,140.0,-451.0,42.0,0
-247.0,-66.0,39.0,156.0,-455.0,48.0,0
-244.0,-69.0,35.0,169.0,-455.0,53.0,0
-238.0,-66.0,39.0,181.0,-456.0,58.0,0
-238.0,-70.0,38.0,193.0,-460.0,62.0,0
-236.0,-71.0,40.0,204.0,-468.0,68.0,0
-236.0,-70.0,39.0,218.0,-483.0,69.0,0
-234.0,-69.0,42.0,235.0,-501.0,70.0,0
-233.0,-66.0,43.0,255.0,-521.0,68.0,0
-228.0,-70.0,44.0,276.0,-537.0,67.0,0
-231.0,-64.0,50.0,293.0,-546.0,68.0,0
-229.0,-67.0,51.0,303.0,-553.0,74.0,0
-227.0,-62.0,44.0,303.0,-559.0,79.0,0
-224.0,-61.0,54.0,295.0,-567.0,86.0,0
-225.0,-56.0,53.0,284.0,-580.0,92.0,0
-228.0,-53.0,55.0,266.0,-592.0,102.0,0
-228.0,-46.0,55.0,248.0,-603.0,113.0,0
-228.0,-45.0,56.0,222.0,-607.0,125.0,0
-229.0,-38.0,57.0,192.0,-604.0,136.0,0
-233.0,-35.0,55.0,159.0,-598.0,150.0,0
-235.0,-34.0,52.0,123.0,-587.0,157.0,0
-234.0,-40.0,55.0,89.0,-572.0,164.0,0
-234.0,-37.0,59.0,58.0,-557.0,165.0,0
-237.0,-40.0,57.0,35.0,-544.0,165.0,0
-243.0,-39.0,65.0,20.0,-533.0,162.0,0
-241.0,-47.0,64.0,7.0,-521.0,155.0,0
-246.0,-49.0,62.0,0.0,-513.0,152.0,0
-247.0,-55.0,63.0,-1.0,-501.0,149.0,0
-251.0,-57.0,66.0,2.0,-488.0,147.0,0
-251.0,-60.0,64.0,13.0,-475.0,142.0,0
-252.0,-65.0,68.0,31.0,-462.0,137.0,0
-249.0,-65.0,63.0,56.0,-445.0,130.0,0
-249.0,-64.0,64.0,85.0,-427.0,122.0,0
-244.0,-66.0,71.0,116.0,-408.0,115.0,0
-245.0,-66.0,76.0,149.0,-394.0,107.0,0
-243.0,-61.0,74.0,179.0,-380.0,96.0,0
-237.0,-60.0,76.0,206.0,-365.0,89.0,0
-240.0,-54.0,82.0,232.0,-347.0,83.0,0
-234.0,-50.0,83.0,245.0,-323.0,80.0,0
-230.0,-43.0,85.0,254.0,-299.0,78.0,0
-227.0,-41.0,84.0,256.0,-280.0,79.0,0
-227.0,-37.0,90.0,253.0,-268.0,79.0,0
-226.0,-32.0,87.0,248.0,-266.0,82.0,0
-231.0,-27.0,88.0,236.0,-268.0,86.0,0
-225.0,-26.0,86.0,222.0,-275.0,94.0,0
-232.0,-26.0,81.0,204.0,-283.0,100.0,0
-226.0,-25.0,87.0,181.0,-288.0,105.0,0
-231.0,-28.0,89.0,153.0,-295.0,114.0,0
-232.0,-25.0,87.0,122.0,-301.0,119.0,0
-230.0,-31.0,92.0,86.0,-302.0,127.0,0
-229.0,-33.0,93.0,56.0,-298.0,134.0,0
-227.0,-37.0,95.0,32.0,-290.0,141.0,0
-228.0,-42.0,98.0,17.0,-277.0,145.0,0
-226.0,-46.0,95.0,11.0,-262.0,145.0,0
-230.0,-50.0,95.0,15.0,-251.0,145.0,0
-229.0,-48.0,95.0,31.0,-249.0,146.0,0
-232.0,-46.0,92.0,55.0,-250.0,143.0,0
-230.0,-46.0,90.0,85.0,-259.0,141.0,0
-233.0,-47.0,82.0,112.0,-270.0,138.0,0
-236.0,-43.0,84.0,133.0,-282.0,132.0,0
-238.0,-37.0,80.0,145.0,-296.0,126.0,0
-239.0,-36.0,81.0,145.0,-305.0,121.0,0
-243.0,-32.0,79.0,135.0,-304.0,114.0,0
-248.0,-32.0,80.0,121.0,-292.0,107.0,0
-246.0,-32.0,81.0,104.0,-278.0,103.0,0
-244.0,-33.0,87.0,88.0,-265.0,97.0,0
-242.0,-34.0,88.0,75.0,-255.0,88.0,0
-239.0,-34.0,83.0,69.0,-256.0,76.0,0
-247.0,-34.0,92.0,71.0,-264.0,65.0,0
-246.0,-31.0,88.0,80.0,-277.0,53.0,0
-246.0,-31.0,84.0,89.0,-288.0,42.0,0
-241.0,-29.0,87.0,95.0,-296.0,30.0,0
-245.0,-27.0,89.0,92.0,-299.0,20.0,0
-244.0,-25.0,87.0,81.0,-299.0,10.0,0
-239.0,-23.0,90.0,65.0,-301.0,0.0,0
-240.0,-25.0,89.0,46.0,-300.0,-5.0,0
-238.0,-26.0,84.0,24.0,-302.0,-7.0,0
-239.0,-24.0,79.0,2.0,-304.0,-7.0,0
-237.0,-27.0,85.0,-21.0,-303.0,-5.0,0
-233.0,-30.0,87.0,-41.0,-299.0,2.0,0
-233.0,-29.0,86.0,-60.0,-288.0,11.0,0
-231.0,-35.0,89.0,-70.0,-272.0,21.0,0
-234.0,-41.0,86.0,-79.0,-254.0,29.0,0
-230.0,-45.0,91.0,-81.0,-236.0,37.0,0
-229.0,-46.0,90.0,-76.0,-221.0,43.0,0
-226.0,-49.0,91.0,-65.0,-213.0,46.0,0
-231.0,-47.0,90.0,-44.0,-212.0,48.0,0
-229.0,-49.0,92.0,-18.0,-218.0,47.0,0
-225.0,-49.0,101.0,8.0,-224.0,48.0,0
-229.0,-43.0,89.0,25.0,-227.0,49.0,0
-228.0,-40.0,87.0,31.0,-228.0,47.0,0
-223.0,-36.0,87.0,27.0,-225.0,49.0,0
-227.0,-35.0,84.0,10.0,-221.0,48.0,0
-225.0,-33.0,89.0,-11.0,-218.0,46.0,0
-228.0,-32.0,91.0,-34.0,-215.0,39.0,0
-229.0,-31.0,97.0,-55.0,-209.0,35.0,0
-233.0,-32.0,99.0,-68.0,-204.0,30.0,0
-232.0,-32.0,100.0,-77.0,-199.0,28.0,0
-239.0,-33.0,96.0,-79.0,-195.0,26.0,0
-237.0,-37.0,96.0,-77.0,-193.0,22.0,0
-237.0,-38.0,100.0,-74.0,-191.0,23.0,0
-241.0,-38.0,98.0,-70.0,-190.0,21.0,0
-236.0,-41.0,100.0,-70.0,-187.0,22.0,0
-239.0,-42.0,97.0,-72.0,-182.0,24.0,0
-238.0,-41.0,101.0,-76.0,-174.0,26.0,0
-234.0,-41.0,96.0,-76.0,-168.0,29.0,0
-232.0,-39.0,93.0,-76.0,-161.0,30.0,0
-231.0,-41.0,93.0,-70.0,-159.0,33.0,0
-228.0,-41.0,91.0,-58.0,-159.0,34.0,0
-223.0,-43.0,93.0,-44.0,-161.0,36.0,0
-222.0,-47.0,90.0,-23.0,-163.0,36.0,0
-222.0,-43.0,93.0,-1.0,-164.0,36.0,0
-223.0,-43.0,97.0,22.0,-161.0,40.0,0
-219.0,-42.0,97.0,42.0,-153.0,46.0,0
-217.0,-44.0,97.0,55.0,-143.0,51.0,0
-218.0,-44.0,99.0,69.0,-135.0,58.0,0
-220.0,-43.0,100.0,80.0,-128.0,66.0,0
-219.0,-41.0,102.0,90.0,-127.0,72.0,0
-220.0,-39.0,101.0,95.0,-130.0,75.0,0
-222.0,-41.0,101.0,99.0,-133.0,76.0,0
-227.0,-39.0,101.0,101.0,-135.0,77.0,0
-224.0,-42.0,106.0,102.0,-132.0,80.0,0
-225.0,-38.0,102.0,107.0,-124.0,81.0,0
-225.0,-33.0,105.0,112.0,-113.0,80.0,0
-227.0,-33.0,104.0,115.0,-97.0,78.0,0
-225.0,-33.0,101.0,112.0,-83.0,78.0,0
-228.0,-33.0,99.0,106.0,-67.0,76.0,0
-226.0,-30.0,103.0,92.0,-54.0,74.0,0
-230.0,-31.0,100.0,71.0,-49.0,71.0,0
-230.0,-29.0,100.0,47.0,-46.0,66.0,0
-231.0,-34.0,96.0,16.0,-48.0,61.0,0
-228.0,-32.0,100.0,-10.0,-49.0,57.0,0
-233.0,-34.0,99.0,-35.0,-44.0,57.0,0
-231.0,-35.0,103.0,-52.0,-35.0,51.0,0
-230.0,-37.0,100.0,-57.0,-24.0,47.0,0
-229.0,-41.0,101.0,-51.0,-16.0,40.0,0
-232.0,-44.0,101.0,-34.0,-12.0,32.0,0
-232.0,-44.0,97.0,-14.0,-9.0,25.0,0
-231.0,-44.0,102.0,10.0,-13.0,15.0,0
-232.0,-44.0,98.0,30.0,-17.0,9.0,0
-230.0,-42.0,103.0,50.0,-18.0,1.0,0
-230.0,-43.0,105.0,70.0,-18.0,-5.0,0
-234.0,-45.0,96.0,82.0,-13.0,-11.0,0
-233.0,-45.0,97.0,92.0,-3.0,-12.0,0
-232.0,-49.0,100.0,95.0,6.0,-12.0,0
-233.0,-45.0,98.0,96.0,16.0,-14.0,0
-233.0,-47.0,101.0,97.0,27.0,-14.0,0
-225.0,-46.0,98.0,100.0,37.0,-12.0,0
-224.0,-48.0,100.0,107.0,43.0,-11.0,0
-224.0,-45.0,103.0,115.0,44.0,-10.0,0
-219.0,-51.0,100.0,128.0,46.0,-10.0,0
-218.0,-46.0,102.0,140.0,46.0,-10.0,0
-221.0,-50.0,103.0,149.0,47.0,-10.0,0
-221.0,-44.0,109.0,157.0,45.0,-9.0,0
-222.0,-48.0,103.0,160.0,47.0,-7.0,0
-220.0,-43.0,101.0,161.0,47.0,-4.0,0
-225.0,-41.0,102.0,155.0,48.0,0.0,0
-223.0,-39.0,102.0,145.0,52.0,8.0,0
-225.0,-36.0,101.0,132.0,58.0,14.0,0
-226.0,-39.0,101.0,119.0,65.0,20.0,0
-226.0,-37.0,98.0,104.0,72.0,25.0,0
-225.0,-39.0,98.0,88.0,81.0,31.0,0
-226.0,-37.0,99.0,73.0,90.0,37.0,0
-221.0,-34.0,99.0,60.0,99.0,42.0,0
-226.0,-35.0,97.0,53.0,106.0,44.0,0
-228.0,-37.0,110.0,50.0,108.0,46.0,0
-223.0,-38.0,96.0,51.0,105.0,47.0,0
-227.0,-36.0,96.0,57.0,101.0,46.0,0
-224.0,-38.0,101.0,60.0,95.0,45.0,0
-229.0,-41.0,99.0,63.0,89.0,45.0,0
-230.0,-41.0,95.0,66.0,86.0,44.0,0
-228.0,-43.0,99.0,70.0,87.0,45.0,0
-229.0,-41.0,95.0,77.0,92.0,46.0,0
-231.0,-38.0,98.0,83.0,97.0,47.0,0
-228.0,-41.0,95.0,90.0,100.0,49.0,0
-233.0,-36.0,104.0,101.0,102.0,51.0,0
-232.0,-37.0,106.0,112.0,102.0,51.0,0
-230.0,-35.0,102.0,126.0,97.0,50.0,0
-235.0,-33.0,106.0,139.0,89.0,49.0,0
-236.0,-31.0,106.0,151.0,83.0,49.0,0
-239.0,-32.0,104.0,158.0,77.0,51.0,0
-240.0,-35.0,103.0,163.0,73.0,56.0,0
-238.0,-30.0,109.0,159.0,78.0,62.0,0
-237.0,-31.0,98.0,150.0,87.0,70.0,0
-232.0,-32.0,100.0,139.0,103.0,77.0,0
-229.0,-35.0,101.0,125.0,120.0,82.0,0
-233.0,-35.0,99.0,107.0,140.0,86.0,0
-224.0,-31.0,96.0,87.0,156.0,86.0,0
-224.0,-32.0,101.0,68.0,169.0,85.0,0
-222.0,-34.0,98.0,51.0,178.0,79.0,0
-220.0,-34.0,98.0,39.0,186.0,76.0,0
-218.0,-33.0,100.0,36.0,193.0,71.0,0
-218.0,-33.0,99.0,38.0,202.0,66.0,0
-221.0,-37.0,99.0,46.0,208.0,64.0,0
-223.0,-34.0,97.0,57.0,214.0,61.0,0
-228.0,-32.0,101.0,67.0,219.0,59.0,0
-227.0,-33.0,97.0,78.0,220.0,59.0,0
-222.0,-28.0,94.0,86.0,219.0,59.0,0
-233.0,-26.0,97.0,90.0,213.0,59.0,0
-235.0,-28.0,94.0,91.0,201.0,58.0,0
-240.0,-30.0,97.0,87.0,186.0,59.0,0
-240.0,-31.0,95.0,82.0,170.0,57.0,0
-242.0,-28.0,97.0,79.0,153.0,57.0,0
-241.0,-31.0,97.0,76.0,139.0,57.0,0
-241.0,-31.0,95.0,77.0,127.0,58.0,0
-243.0,-33.0,99.0,80.0,117.0,56.0,0
-237.0,-28.0,89.0,82.0,107.0,54.0,0
-233.0,-25.0,90.0,84.0,100.0,54.0,0
-238.0,-29.0,83.0,80.0,95.0,53.0,0
-230.0,-27.0,85.0,73.0,93.0,52.0,0
-229.0,-25.0,88.0,62.0,92.0,50.0,0
-231.0,-27.0,86.0,52.0,92.0,50.0,0
-230.0,-28.0,85.0,39.0,93.0,50.0,0
-230.0,-28.0,84.0,28.0,93.0,45.0,0
-233.0,-30.0,85.0,19.0,93.0,45.0,0
-232.0,-28.0,83.0,15.0,93.0,44.0,0
-233.0,-31.0,85.0,10.0,96.0,42.0,0
-234.0,-34.0,85.0,8.0,99.0,40.0,0
-239.0,-34.0,81.0,10.0,103.0,41.0,0
-240.0,-36.0,79.0,11.0,108.0,41.0,0
-239.0,-35.0,82.0,11.0,111.0,42.0,0
-238.0,-35.0,83.0,13.0,114.0,43.0,0
-240.0,-35.0,85.0,13.0,117.0,45.0,0
-240.0,-35.0,87.0,17.0,118.0,45.0,0
-240.0,-37.0,87.0,23.0,119.0,45.0,0
-243.0,-36.0,87.0,31.0,119.0,44.0,0
-242.0,-35.0,85.0,40.0,118.0,43.0,0
-240.0,-34.0,83.0,47.0,115.0,44.0,0
-244.0,-32.0,87.0,53.0,108.0,42.0,0
-239.0,-31.0,80.0,60.0,101.0,43.0,0
-238.0,-34.0,79.0,65.0,95.0,41.0,0
-238.0,-30.0,83.0,69.0,90.0,36.0,0
-238.0,-30.0,81.0,70.0,85.0,32.0,0
-235.0,-29.0,87.0,70.0,81.0,32.0,0
-237.0,-31.0,78.0,70.0,80.0,30.0,0
-239.0,-24.0,80.0,69.0,76.0,31.0,0
-237.0,-28.0,78.0,65.0,70.0,31.0,0
-237.0,-28.0,80.0,59.0,65.0,34.0,0
-240.0,-27.0,79.0,52.0,58.0,32.0,0
-236.0,-26.0,77.0,45.0,52.0,35.0,0
-236.0,-29.0,79.0,38.0,48.0,37.0,0
-241.0,-23.0,78.0,30.0,47.0,37.0,0
-235.0,-28.0,84.0,20.0,51.0,40.0,0
-239.0,-28.0,83.0,12.0,57.0,40.0,0
-238.0,-30.0,83.0,5.0,64.0,41.0,0
-235.0,-31.0,80.0,0.0,70.0,40.0,0
-241.0,-31.0,85.0,-1.0,72.0,39.0,0
-242.0,-30.0,86.0,1.0,75.0,39.0,0
-241.0,-29.0,81.0,5.0,70.0,38.0,0
-238.0,-30.0,86.0,11.0,66.0,36.0,0
-240.0,-31.0,85.0,20.0,63.0,34.0,0
-240.0,-33.0,84.0,29.0,57.0,31.0,0
-242.0,-33.0,87.0,36.0,55.0,27.0,0
-240.0,-30.0,88.0,38.0,54.0,24.0,0
-242.0,-26.0,84.0,37.0,53.0,19.0,0
-235.0,-28.0,84.0,35.0,53.0,16.0,0
-242.0,-26.0,88.0,30.0,52.0,9.0,0
-239.0,-28.0,87.0,25.0,50.0,6.0,0
-238.0,-31.0,85.0,22.0,47.0,2.0,0
-239.0,-30.0,86.0,18.0,43.0,1.0,0
-237.0,-34.0,88.0,18.0,40.0,1.0,0
-239.0,-34.0,87.0,20.0,35.0,-2.0,0
-236.0,-34.0,84.0,22.0,30.0,-5.0,0
-243.0,-28.0,86.0,27.0,25.0,-8.0,0
-238.0,-31.0,90.0,34.0,19.0,-12.0,0
-238.0,-32.0,92.0,40.0,14.0,-15.0,0
-238.0,-32.0,87.0,44.0,10.0,-18.0,0
-237.0,-32.0,85.0,48.0,8.0,-19.0,0
-236.0,-34.0,88.0,51.0,7.0,-20.0,0
-235.0,-32.0,92.0,52.0,9.0,-23.0,0
-236.0,-35.0,87.0,53.0,9.0,-25.0,0
-238.0,-32.0,84.0,49.0,10.0,-23.0,0
-233.0,-34.0,91.0,45.0,11.0,-21.0,0
-234.0,-30.0,89.0,34.0,11.0,-19.0,0
-241.0,-32.0,88.0,22.0,11.0,-18.0,0
-237.0,-30.0,92.0,12.0,9.0,-15.0,0
-236.0,-32.0,90.0,6.0,6.0,-15.0,0
-238.0,-31.0,92.0,2.0,4.0,-15.0,0
-238.0,-29.0,87.0,3.0,2.0,-14.0,0
-237.0,-30.0,84.0,4.0,-2.0,-16.0,0
-238.0,-31.0,83.0,8.0,-6.0,-17.0,0
-241.0,-29.0,85.0,16.0,-13.0,-18.0,0
-235.0,-30.0,77.0,23.0,-19.0,-18.0,0
-234.0,-30.0,81.0,31.0,-29.0,-18.0,0
-240.0,-32.0,83.0,39.0,-35.0,-20.0,0
-237.0,-31.0,81.0,46.0,-39.0,-21.0,0
-236.0,-30.0,83.0,55.0,-43.0,-21.0,0
-236.0,-30.0,85.0,62.0,-46.0,-20.0,0
-236.0,-29.0,83.0,71.0,-46.0,-20.0,0
-237.0,-30.0,89.0,79.0,-41.0,-19.0,0
-237.0,-32.0,84.0,85.0,-37.0,-20.0,0
-238.0,-29.0,90.0,88.0,-32.0,-19.0,0
-240.0,-25.0,89.0,90.0,-26.0,-20.0,0
-235.0,-28.0,89.0,87.0,-22.0,-18.0,0
-236.0,-26.0,90.0,81.0,-18.0,-16.0,0
-239.0,-28.0,84.0,73.0,-14.0,-17.0,0
-237.0,-22.0,90.0,64.0,-11.0,-17.0,0
-238.0,-24.0,86.0,53.0,-11.0,-17.0,0
-237.0,-27.0,91.0,43.0,-12.0,-18.0,0
-240.0,-22.0,88.0,33.0,-15.0,-19.0,0
-238.0,-24.0,88.0,23.0,-20.0,-19.0,0
-237.0,-27.0,88.0,18.0,-25.0,-18.0,0
-238.0,-29.0,82.0,13.0,-26.0,-22.0,0
-233.0,-36.0,88.0,13.0,-28.0,-23.0,0
-235.0,-32.0,89.0,14.0,-26.0,-24.0,0
-238.0,-32.0,90.0,18.0,-26.0,-27.0,0
-236.0,-37.0,98.0,23.0,-27.0,-29.0,0
-236.0,-32.0,86.0,31.0,-26.0,-29.0,0
-235.0,-31.0,87.0,39.0,-24.0,-31.0,0
-234.0,-34.0,88.0,45.0,-25.0,-29.0,0
-230.0,-35.0,89.0,55.0,-25.0,-29.0,0
-235.0,-33.0,85.0,63.0,-25.0,-30.0,0
-233.0,-32.0,85.0,70.0,-24.0,-27.0,0
-234.0,-28.0,86.0,73.0,-25.0,-27.0,0
-232.0,-31.0,86.0,74.0,-23.0,-26.0,0
-233.0,-29.0,83.0,74.0,-21.0,-26.0,0
-235.0,-32.0,87.0,74.0,-19.0,-25.0,0
-231.0,-32.0,95.0,70.0,-18.0,-24.0,0
-235.0,-32.0,87.0,66.0,-18.0,-20.0,0
-239.0,-29.0,88.0,63.0,-17.0,-18.0,0
-238.0,-32.0,90.0,56.0,-17.0,-17.0,0
-240.0,-28.0,88.0,49.0,-19.0,-17.0,0
-235.0,-33.0,88.0,44.0,-21.0,-17.0,0
-234.0,-32.0,91.0,38.0,-24.0,-16.0,0
-235.0,-32.0,90.0,34.0,-26.0,-17.0,0
-233.0,-32.0,87.0,31.0,-27.0,-19.0,0
-236.0,-33.0,87.0,29.0,-27.0,-21.0,0
-236.0,-34.0,94.0,27.0,-29.0,-22.0,0
-237.0,-39.0,91.0,27.0,-31.0,-23.0,0
-236.0,-32.0,87.0,26.0,-31.0,-25.0,0
-236.0,-30.0,87.0,30.0,-30.0,-25.0,0
-236.0,-31.0,90.0,36.0,-29.0,-27.0,0
-235.0,-33.0,89.0,43.0,-28.0,-26.0,0
-234.0,-32.0,89.0,48.0,-24.0,-26.0,0
-233.0,-34.0,89.0,53.0,-21.0,-25.0,0
-232.0,-33.0,90.0,56.0,-19.0,-23.0,0
-236.0,-33.0,93.0,58.0,-18.0,-20.0,0
-235.0,-30.0,87.0,60.0,-16.0,-20.0,0
-235.0,-33.0,87.0,60.0,-14.0,-19.0,0
-234.0,-26.0,101.0,59.0,-15.0,-16.0,0
-237.0,-30.0,90.0,58.0,-13.0,-17.0,0
-234.0,-31.0,90.0,58.0,-12.0,-17.0,0
-233.0,-31.0,91.0,59.0,-13.0,-19.0,0
-233.0,-30.0,92.0,57.0,-13.0,-19.0,0
-234.0,-30.0,92.0,59.0,-16.0,-18.0,0
-235.0,-30.0,90.0,61.0,-19.0,-18.0,0
-237.0,-25.0,84.0,63.0,-25.0,-20.0,0
-234.0,-30.0,91.0,67.0,-29.0,-19.0,0
-236.0,-32.0,88.0,71.0,-34.0,-21.0,0
-236.0,-31.0,89.0,75.0,-38.0,-23.0,0
-234.0,-35.0,94.0,77.0,-44.0,-26.0,0
-236.0,-34.0,90.0,81.0,-49.0,-29.0,0
-236.0,-35.0,89.0,84.0,-58.0,-36.0,0
-242.0,-33.0,92.0,87.0,-68.0,-45.0,0
-243.0,-33.0,96.0,91.0,-80.0,-52.0,0
-245.0,-32.0,93.0,98.0,-91.0,-57.0,0
-241.0,-35.0,90.0,105.0,-100.0,-63.0,0
-244.0,-32.0,90.0,113.0,-105.0,-68.0,0
-239.0,-35.0,93.0,121.0,-107.0,-72.0,0
-243.0,-35.0,83.0,126.0,-108.0,-76.0,0
-240.0,-32.0,81.0,131.0,-109.0,-81.0,0
-244.0,-39.0,80.0,133.0,-112.0,-85.0,0
-237.0,-31.0,81.0,128.0,-118.0,-90.0,0
-238.0,-29.0,80.0,121.0,-121.0,-92.0,0
-237.0,-26.0,83.0,112.0,-125.0,-92.0,0
-229.0,-29.0,82.0,101.0,-128.0,-88.0,0
-232.0,-25.0,85.0,91.0,-126.0,-84.0,0
-227.0,-26.0,84.0,79.0,-125.0,-82.0,0
-225.0,-26.0,87.0,68.0,-123.0,-76.0,0
-231.0,-25.0,87.0,59.0,-121.0,-68.0,0
-229.0,-27.0,87.0,52.0,-123.0,-63.0,0
-228.0,-29.0,91.0,50.0,-123.0,-56.0,0
-227.0,-32.0,95.0,50.0,-124.0,-49.0,0
-228.0,-28.0,92.0,50.0,-127.0,-43.0,0
-231.0,-30.0,88.0,51.0,-129.0,-40.0,0
-230.0,-32.0,94.0,55.0,-132.0,-36.0,0
-234.0,-31.0,91.0,59.0,-135.0,-32.0,0
-234.0,-28.0,90.0,62.0,-137.0,-29.0,0
-231.0,-32.0,93.0,64.0,-137.0,-27.0,0
-238.0,-34.0,93.0,66.0,-137.0,-24.0,0
-231.0,-34.0,95.0,69.0,-137.0,-21.0,0
-237.0,-30.0,97.0,69.0,-135.0,-18.0,0
-235.0,-31.0,93.0,69.0,-131.0,-15.0,0
-231.0,-40.0,96.0,66.0,-127.0,-14.0,0
-232.0,-30.0,94.0,65.0,-122.0,-11.0,0
-233.0,-28.0,95.0,62.0,-119.0,-11.0,0
-231.0,-29.0,91.0,58.0,-116.0,-10.0,0
-233.0,-25.0,89.0,56.0,-115.0,-10.0,0
-233.0,-28.0,96.0,53.0,-114.0,-12.0,0
-236.0,-28.0,95.0,49.0,-114.0,-11.0,0
-234.0,-27.0,96.0,45.0,-115.0,-10.0,0
-234.0,-28.0,96.0,39.0,-112.0,-12.0,0
-229.0,-31.0,102.0,32.0,-108.0,-14.0,0
-232.0,-35.0,101.0,26.0,-104.0,-15.0,0
-232.0,-32.0,101.0,22.0,-101.0,-20.0,0
-233.0,-32.0,100.0,18.0,-98.0,-22.0,0
-231.0,-35.0,103.0,15.0,-96.0,-27.0,0
-233.0,-35.0,103.0,13.0,-93.0,-34.0,0
-230.0,-37.0,106.0,15.0,-94.0,-38.0,0
-232.0,-40.0,103.0,20.0,-96.0,-44.0,0
-236.0,-33.0,100.0,29.0,-103.0,-50.0,0
-237.0,-36.0,103.0,43.0,-111.0,-55.0,0
-237.0,-38.0,106.0,61.0,-118.0,-60.0,0
-236.0,-42.0,109.0,78.0,-127.0,-65.0,0
-234.0,-44.0,103.0,97.0,-133.0,-74.0,0
-240.0,-41.0,107.0,113.0,-141.0,-85.0,0
-237.0,-37.0,104.0,125.0,-148.0,-92.0,0
-231.0,-39.0,104.0,130.0,-148.0,-100.0,0
-230.0,-34.0,105.0,126.0,-136.0,-100.0,0
-223.0,-34.0,111.0,114.0,-118.0,-107.0,0
-220.0,-29.0,111.0,97.0,-103.0,-118.0,0
-226.0,-27.0,106.0,75.0,-95.0,-129.0,0
-222.0,-32.0,103.0,39.0,-90.0,-140.0,0
-222.0,-31.0,106.0,-3.0,-88.0,-153.0,0
-225.0,-31.0,104.0,-47.0,-88.0,-166.0,0
-236.0,-30.0,103.0,-81.0,-86.0,-177.0,0
-233.0,-35.0,107.0,-104.0,-85.0,-181.0,0
-236.0,-37.0,105.0,-113.0,-85.0,-180.0,0
-239.0,-38.0,102.0,-110.0,-87.0,-178.0,0
-237.0,-40.0,106.0,-94.0,-93.0,-172.0,0
-235.0,-38.0,101.0,-73.0,-102.0,-162.0,0
-228.0,-38.0,97.0,-52.0,-113.0,-152.0,0
-227.0,-42.0,95.0,-37.0,-124.0,-144.0,0
-222.0,-38.0,98.0,-29.0,-134.0,-135.0,0
-222.0,-35.0,96.0,-31.0,-139.0,-125.0,0
-220.0,-36.0,89.0,-40.0,-140.0,-115.0,0
-221.0,-40.0,95.0,-53.0,-136.0,-106.0,0
-220.0,-38.0,92.0,-67.0,-123.0,-96.0,0
-218.0,-40.0,92.0,-80.0,-103.0,-85.0,0
-224.0,-41.0,91.0,-97.0,-75.0,-77.0,0
-223.0,-38.0,91.0,-117.0,-46.0,-68.0,0
-230.0,-35.0,88.0,-133.0,-19.0,-64.0,0
-226.0,-36.0,87.0,-143.0,1.0,-59.0,0
-228.0,-35.0,83.0,-145.0,16.0,-58.0,0
-227.0,-36.0,88.0,-139.0,28.0,-58.0,0
-228.0,-36.0,90.0,-127.0,33.0,-59.0,0
-229.0,-36.0,82.0,-111.0,34.0,-56.0,0
-226.0,-36.0,78.0,-97.0,30.0,-53.0,0
-228.0,-32.0,81.0,-87.0,24.0,-49.0,0
-228.0,-34.0,81.0,-82.0,15.0,-42.0,0
-228.0,-35.0,80.0,-80.0,6.0,-34.0,0
-227.0,-32.0,80.0,-83.0,-4.0,-23.0,0
-227.0,-33.0,81.0,-82.0,-8.0,-14.0,0
-229.0,-37.0,80.0,-84.0,-10.0,-2.0,0
-229.0,-39.0,87.0,-84.0,-8.0,10.0,0
-226.0,-41.0,85.0,-81.0,-3.0,20.0,0
-227.0,-44.0,94.0,-72.0,4.0,27.0,0
-226.0,-43.0,96.0,-60.0,12.0,34.0,0
-223.0,-48.0,103.0,-45.0,19.0,39.0,0
-225.0,-47.0,97.0,-25.0,22.0,43.0,0
-230.0,-43.0,109.0,-3.0,25.0,46.0,0
-224.0,-48.0,113.0,22.0,26.0,47.0,0
-229.0,-43.0,108.0,45.0,25.0,50.0,0
-227.0,-41.0,116.0,67.0,29.0,48.0,0
-225.0,-38.0,109.0,85.0,31.0,45.0,0
-224.0,-36.0,116.0,101.0,34.0,41.0,0
-229.0,-35.0,114.0,114.0,37.0,35.0,0
-228.0,-32.0,123.0,118.0,34.0,31.0,0
-228.0,-29.0,117.0,119.0,34.0,28.0,0
-228.0,-32.0,123.0,112.0,27.0,21.0,0
-222.0,-30.0,120.0,103.0,24.0,14.0,0
-221.0,-30.0,116.0,89.0,21.0,9.0,0
-219.0,-32.0,122.0,72.0,20.0,5.0,0
-218.0,-34.0,120.0,56.0,18.0,1.0,0
-217.0,-35.0,121.0,40.0,23.0,-5.0,0
-217.0,-37.0,120.0,29.0,30.0,-8.0,0
-214.0,-42.0,123.0,26.0,39.0,-13.0,0
-217.0,-43.0,122.0,28.0,50.0,-17.0,0
-217.0,-44.0,127.0,39.0,61.0,-18.0,0
-216.0,-48.0,125.0,56.0,71.0,-20.0,0
-218.0,-45.0,121.0,78.0,80.0,-20.0,0
-216.0,-44.0,127.0,105.0,86.0,-22.0,0
-215.0,-41.0,124.0,129.0,92.0,-21.0,0
-214.0,-42.0,120.0,153.0,97.0,-21.0,0
-212.0,-44.0,120.0,169.0,101.0,-21.0,0
-214.0,-38.0,120.0,181.0,101.0,-21.0,0
-217.0,-35.0,120.0,184.0,101.0,-21.0,0
-219.0,-37.0,117.0,185.0,98.0,-19.0,0
-218.0,-34.0,122.0,178.0,94.0,-21.0,0
-221.0,-33.0,117.0,168.0,91.0,-21.0,0
-222.0,-33.0,122.0,158.0,92.0,-20.0,0
-224.0,-35.0,121.0,151.0,97.0,-19.0,0
-222.0,-38.0,118.0,142.0,104.0,-20.0,0
-223.0,-37.0,119.0,140.0,116.0,-21.0,0
-220.0,-39.0,119.0,140.0,129.0,-25.0,0
-218.0,-42.0,116.0,143.0,146.0,-26.0,0
-218.0,-38.0,116.0,146.0,161.0,-32.0,0
-218.0,-39.0,120.0,147.0,178.0,-38.0,0
-220.0,-40.0,118.0,151.0,195.0,-45.0,0
-221.0,-36.0,119.0,154.0,210.0,-52.0,0
-220.0,-34.0,118.0,156.0,224.0,-56.0,0
-222.0,-33.0,118.0,156.0,239.0,-60.0,0
-228.0,-27.0,116.0,153.0,254.0,-61.0,0
-226.0,-25.0,113.0,147.0,268.0,-60.0,0
-228.0,-23.0,109.0,133.0,276.0,-60.0,0
-230.0,-23.0,113.0,114.0,281.0,-60.0,0
-231.0,-20.0,105.0,93.0,281.0,-60.0,0
-231.0,-22.0,103.0,71.0,278.0,-59.0,0
-231.0,-23.0,106.0,49.0,274.0,-60.0,0
-234.0,-22.0,107.0,31.0,270.0,-61.0,0
-230.0,-30.0,108.0,14.0,270.0,-61.0,0
-230.0,-35.0,105.0,4.0,274.0,-60.0,0
-228.0,-42.0,115.0,0.0,281.0,-57.0,0
-223.0,-42.0,116.0,2.0,285.0,-54.0,0
-227.0,-41.0,108.0,9.0,292.0,-49.0,0
-225.0,-40.0,108.0,18.0,297.0,-46.0,0
-221.0,-45.0,107.0,26.0,301.0,-43.0,0
-223.0,-45.0,106.0,31.0,309.0,-36.0,0
-218.0,-48.0,108.0,34.0,318.0,-34.0,0
-218.0,-49.0,104.0,33.0,334.0,-29.0,0
-220.0,-45.0,103.0,31.0,356.0,-25.0,0
-214.0,-47.0,101.0,28.0,383.0,-22.0,0
-213.0,-50.0,104.0,28.0,414.0,-17.0,0
-210.0,-48.0,95.0,31.0,447.0,-11.0,0
-213.0,-50.0,97.0,40.0,479.0,-3.0,0
-211.0,-47.0,98.0,54.0,509.0,6.0,0
-212.0,-46.0,96.0,69.0,533.0,13.0,0
-210.0,-43.0,95.0,87.0,548.0,14.0,0
-214.0,-42.0,97.0,104.0,556.0,12.0,0
-216.0,-41.0,97.0,116.0,561.0,5.0,0
-222.0,-40.0,98.0,127.0,560.0,-4.0,0
-223.0,-38.0,96.0,135.0,560.0,-10.0,0
-229.0,-34.0,93.0,141.0,560.0,-17.0,0
-235.0,-33.0,96.0,144.0,561.0,-21.0,0
-233.0,-38.0,89.0,143.0,562.0,-22.0,0
-241.0,-32.0,90.0,140.0,561.0,-22.0,0
-242.0,-33.0,89.0,132.0,560.0,-25.0,0
-242.0,-31.0,90.0,118.0,558.0,-31.0,0
-243.0,-30.0,87.0,104.0,555.0,-36.0,0
-248.0,-28.0,88.0,86.0,552.0,-43.0,0
-243.0,-31.0,84.0,65.0,551.0,-47.0,0
-245.0,-30.0,78.0,43.0,557.0,-51.0,0
-244.0,-32.0,82.0,22.0,569.0,-54.0,0
-244.0,-28.0,81.0,0.0,586.0,-56.0,0
-238.0,-29.0,81.0,-23.0,609.0,-57.0,0
-232.0,-30.0,80.0,-44.0,628.0,-55.0,0
-231.0,-28.0,81.0,-64.0,641.0,-57.0,0
-232.0,-33.0,79.0,-82.0,645.0,-63.0,0
-235.0,-32.0,75.0,-95.0,643.0,-74.0,0
-236.0,-33.0,72.0,-105.0,640.0,-85.0,0
-242.0,-31.0,70.0,-110.0,645.0,-90.0,0
-243.0,-31.0,73.0,-112.0,655.0,-97.0,0
-244.0,-31.0,75.0,-113.0,672.0,-99.0,0
-249.0,-31.0,68.0,-116.0,694.0,-100.0,0
-253.0,-29.0,67.0,-119.0,716.0,-99.0,0
-251.0,-36.0,67.0,-124.0,736.0,-99.0,0
-258.0,-42.0,64.0,-129.0,751.0,-95.0,0
-256.0,-36.0,56.0,-138.0,762.0,-95.0,0
-257.0,-40.0,50.0,-151.0,766.0,-93.0,0
-250.0,-43.0,42.0,-167.0,771.0,-89.0,0
-244.0,-45.0,41.0,-182.0,779.0,-78.0,0
-240.0,-44.0,40.0,-193.0,788.0,-64.0,0
-224.0,-47.0,30.0,-198.0,804.0,-49.0,0
-215.0,-49.0,27.0,-194.0,826.0,-29.0,0
-203.0,-52.0,25.0,-180.0,851.0,-8.0,0
-196.0,-57.0,21.0,-160.0,869.0,13.0,0
-193.0,-58.0,15.0,-135.0,881.0,28.0,0
-192.0,-52.0,15.0,-112.0,892.0,45.0,0
-190.0,-56.0,14.0,-86.0,914.0,61.0,0
-188.0,-57.0,17.0,-58.0,941.0,77.0,0
-192.0,-56.0,20.0,-25.0,975.0,89.0,0
-196.0,-51.0,25.0,8.0,1006.0,96.0,0
-208.0,-47.0,25.0,44.0,1032.0,95.0,0
-221.0,-46.0,27.0,73.0,1048.0,86.0,0
-236.0,-36.0,29.0,101.0,1051.0,74.0,0
-247.0,-35.0,28.0,125.0,1041.0,57.0,0
-264.0,-30.0,28.0,140.0,1023.0,35.0,0
-280.0,-22.0,27.0,145.0,1001.0,16.0,0
-300.0,-14.0,20.0,131.0,980.0,-3.0,0
-311.0,-12.0,17.0,98.0,960.0,-21.0,0
-317.0,-9.0,11.0,45.0,939.0,-36.0,0
-320.0,-10.0,12.0,-23.0,914.0,-52.0,0
-319.0,-12.0,9.0,-101.0,890.0,-65.0,0
-309.0,-12.0,3.0,-177.0,870.0,-83.0,0
-300.0,-16.0,1.0,-249.0,854.0,-102.0,0
-290.0,-18.0,6.0,-311.0,844.0,-122.0,0
-275.0,-20.0,0.0,-362.0,837.0,-140.0,0
-268.0,-21.0,-2.0,-403.0,832.0,-156.0,0
-258.0,-27.0,-4.0,-434.0,832.0,-171.0,0
-248.0,-23.0,-2.0,-460.0,842.0,-182.0,0
-241.0,-29.0,3.0,-475.0,863.0,-186.0,0
-233.0,-31.0,10.0,-476.0,889.0,-190.0,0
-231.0,-31.0,12.0,-463.0,918.0,-191.0,0
-227.0,-32.0,19.0,-437.0,948.0,-194.0,0
-229.0,-34.0,23.0,-404.0,973.0,-199.0,0
-227.0,-33.0,19.0,-364.0,999.0,-203.0,0
-224.0,-39.0,18.0,-323.0,1019.0,-211.0,0
-229.0,-35.0,17.0,-284.0,1030.0,-225.0,0
-234.0,-39.0,15.0,-252.0,1029.0,-245.0,0
-240.0,-42.0,11.0,-231.0,1013.0,-268.0,0
-252.0,-41.0,0.0,-223.0,987.0,-294.0,0
-261.0,-50.0,-6.0,-224.0,955.0,-319.0,0
-265.0,-59.0,-6.0,-224.0,922.0,-340.0,0
-276.0,-66.0,-18.0,-212.0,888.0,-361.0,0
-285.0,-69.0,-9.0,-173.0,856.0,-375.0,0
-291.0,-80.0,-14.0,-110.0,826.0,-376.0,0
-295.0,-80.0,-21.0,-24.0,792.0,-369.0,0
-299.0,-84.0,-19.0,72.0,754.0,-360.0,0
-301.0,-78.0,-17.0,171.0,710.0,-344.0,0
-300.0,-77.0,-17.0,257.0,657.0,-327.0,0
-302.0,-66.0,-22.0,322.0,597.0,-310.0,0
-294.0,-63.0,-22.0,362.0,534.0,-293.0,0
-288.0,-53.0,-23.0,379.0,483.0,-280.0,0
-280.0,-51.0,-27.0,375.0,450.0,-265.0,0
-272.0,-41.0,-27.0,354.0,433.0,-257.0,0
-264.0,-41.0,-29.0,320.0,429.0,-253.0,0
-258.0,-40.0,-31.0,279.0,429.0,-255.0,0
-250.0,-39.0,-26.0,234.0,428.0,-265.0,0
-248.0,-40.0,-26.0,187.0,422.0,-279.0,0
-239.0,-40.0,-25.0,142.0,410.0,-297.0,0
-242.0,-42.0,-26.0,104.0,395.0,-313.0,0
-242.0,-47.0,-33.0,73.0,380.0,-331.0,0
-238.0,-49.0,-26.0,47.0,367.0,-347.0,0
-240.0,-51.0,-24.0,27.0,356.0,-358.0,0
-244.0,-56.0,-26.0,7.0,343.0,-366.0,0
-254.0,-59.0,-23.0,-16.0,325.0,-372.0,0
-254.0,-62.0,-25.0,-38.0,301.0,-375.0,0
-261.0,-63.0,-30.0,-59.0,277.0,-376.0,0
-264.0,-65.0,-30.0,-73.0,254.0,-371.0,0
-265.0,-65.0,-27.0,-79.0,234.0,-361.0,0
-266.0,-70.0,-32.0,-75.0,219.0,-347.0,0
-265.0,-68.0,-31.0,-68.0,206.0,-333.0,0
-263.0,-69.0,-26.0,-60.0,195.0,-324.0,0
-259.0,-68.0,-27.0,-56.0,183.0,-316.0,0
-255.0,-68.0,-31.0,-61.0,170.0,-310.0,0
-250.0,-66.0,-21.0,-75.0,158.0,-304.0,0
-245.0,-65.0,-24.0,-94.0,147.0,-302.0,0
-248.0,-64.0,-25.0,-114.0,136.0,-306.0,0
-247.0,-64.0,-20.0,-134.0,124.0,-314.0,0
-246.0,-65.0,-21.0,-147.0,109.0,-323.0,0
-245.0,-63.0,-24.0,-157.0,97.0,-332.0,0
-246.0,-63.0,-31.0,-165.0,89.0,-340.0,0
-253.0,-63.0,-27.0,-173.0,88.0,-349.0,0
-251.0,-64.0,-31.0,-178.0,88.0,-360.0,0
-253.0,-67.0,-30.0,-184.0,82.0,-376.0,0
-257.0,-69.0,-28.0,-188.0,68.0,-387.0,0
-258.0,-74.0,-26.0,-192.0,43.0,-398.0,0
-262.0,-75.0,-27.0,-195.0,16.0,-407.0,0
-261.0,-77.0,-24.0,-198.0,-12.0,-415.0,0
-261.0,-77.0,-28.0,-202.0,-35.0,-416.0,0
-259.0,-76.0,-30.0,-206.0,-51.0,-414.0,0
-253.0,-83.0,-26.0,-204.0,-61.0,-411.0,0
-252.0,-82.0,-31.0,-196.0,-68.0,-410.0,0
-253.0,-86.0,-25.0,-177.0,-69.0,-409.0,0
-249.0,-83.0,-32.0,-152.0,-69.0,-409.0,0
-244.0,-80.0,-36.0,-125.0,-69.0,-413.0,0
-243.0,-82.0,-29.0,-97.0,-66.0,-415.0,0
-240.0,-79.0,-31.0,-77.0,-59.0,-418.0,0
-236.0,-79.0,-29.0,-66.0,-52.0,-424.0,0
-233.0,-80.0,-24.0,-64.0,-45.0,-432.0,0
-233.0,-74.0,-26.0,-77.0,-36.0,-437.0,0
-235.0,-79.0,-23.0,-96.0,-26.0,-445.0,0
-235.0,-80.0,-20.0,-113.0,-13.0,-448.0,0
-237.0,-83.0,-27.0,-123.0,-5.0,-455.0,0
-240.0,-87.0,-32.0,-122.0,0.0,-461.0,0
-245.0,-87.0,-36.0,-105.0,1.0,-468.0,0
-248.0,-89.0,-35.0,-76.0,-1.0,-475.0,0
-248.0,-94.0,-40.0,-35.0,-5.0,-481.0,0
-249.0,-96.0,-36.0,7.0,-7.0,-485.0,0
-249.0,-100.0,-39.0,44.0,-12.0,-490.0,0
-250.0,-95.0,-34.0,72.0,-17.0,-492.0,0
-249.0,-95.0,-31.0,94.0,-22.0,-490.0,0
-245.0,-98.0,-33.0,108.0,-24.0,-488.0,0
-241.0,-92.0,-30.0,117.0,-23.0,-488.0,0
-241.0,-92.0,-34.0,121.0,-18.0,-487.0,0
-235.0,-90.0,-35.0,125.0,-8.0,-492.0,0
-235.0,-85.0,-32.0,126.0,4.0,-495.0,0
-234.0,-84.0,-31.0,128.0,19.0,-503.0,0
-227.0,-85.0,-28.0,133.0,34.0,-510.0,0
-228.0,-84.0,-27.0,138.0,54.0,-516.0,0
-231.0,-87.0,-17.0,139.0,78.0,-522.0,0
-229.0,-89.0,-11.0,136.0,105.0,-522.0,0
-232.0,-95.0,-9.0,129.0,131.0,-521.0,0
-233.0,-94.0,-8.0,121.0,143.0,-517.0,0
-234.0,-93.0,-3.0,115.0,150.0,-510.0,0
-227.0,-99.0,1.0,113.0,154.0,-500.0,0
-233.0,-99.0,-6.0,119.0,156.0,-495.0,0
-229.0,-100.0,-8.0,124.0,157.0,-492.0,0
-228.0,-102.0,-13.0,130.0,154.0,-497.0,0
-229.0,-100.0,-13.0,136.0,143.0,-505.0,0
-230.0,-99.0,-12.0,150.0,129.0,-514.0,0
-233.0,-100.0,-14.0,169.0,113.0,-526.0,0
-237.0,-97.0,-21.0,188.0,99.0,-541.0,0
-237.0,-97.0,-25.0,201.0,87.0,-554.0,0
-237.0,-96.0,-29.0,206.0,76.0,-561.0,0
-236.0,-95.0,-26.0,199.0,67.0,-562.0,0
-238.0,-91.0,-27.0,183.0,65.0,-552.0,0
-245.0,-91.0,-33.0,158.0,72.0,-541.0,0
-242.0,-93.0,-30.0,129.0,88.0,-530.0,0
-244.0,-94.0,-32.0,100.0,108.0,-518.0,0
-239.0,-96.0,-36.0,73.0,130.0,-511.0,0
-238.0,-94.0,-34.0,50.0,150.0,-504.0,0
-234.0,-99.0,-31.0,32.0,168.0,-500.0,0
-229.0,-104.0,-33.0,17.0,185.0,-496.0,0
-224.0,-104.0,-37.0,2.0,198.0,-492.0,0
-222.0,-106.0,-39.0,-13.0,211.0,-489.0,0
-215.0,-116.0,-35.0,-23.0,223.0,-487.0,0
-218.0,-116.0,-38.0,-23.0,231.0,-486.0,0
-220.0,-115.0,-34.0,-17.0,232.0,-481.0,0
-220.0,-121.0,-28.0,-5.0,229.0,-476.0,0
-215.0,-122.0,-32.0,11.0,221.0,-467.0,0
-220.0,-122.0,-30.0,24.0,215.0,-462.0,0
-220.0,-122.0,-32.0,31.0,211.0,-452.0,0
-225.0,-119.0,-27.0,32.0,212.0,-444.0,0
-227.0,-117.0,-27.0,27.0,216.0,-437.0,0
-231.0,-120.0,-31.0,22.0,220.0,-433.0,0
-229.0,-120.0,-29.0,16.0,224.0,-428.0,0
-229.0,-121.0,-33.0,15.0,225.0,-427.0,0
-231.0,-121.0,-28.0,18.0,227.0,-428.0,0
-226.0,-126.0,-29.0,24.0,228.0,-435.0,0
-227.0,-122.0,-31.0,34.0,228.0,-440.0,0
-229.0,-123.0,-30.0,49.0,226.0,-446.0,0
-222.0,-126.0,-31.0,61.0,223.0,-452.0,0
-220.0,-127.0,-31.0,72.0,221.0,-460.0,0
-222.0,-125.0,-30.0,79.0,218.0,-466.0,0
-218.0,-124.0,-30.0,82.0,218.0,-472.0,0
-215.0,-124.0,-32.0,80.0,218.0,-476.0,0
-214.0,-126.0,-31.0,76.0,223.0,-478.0,0
-215.0,-128.0,-31.0,75.0,227.0,-479.0,0
-214.0,-125.0,-35.0,77.0,232.0,-482.0,0
-218.0,-124.0,-34.0,77.0,238.0,-483.0,0
-216.0,-125.0,-34.0,79.0,243.0,-485.0,0
-214.0,-124.0,-37.0,79.0,251.0,-487.0,0
-216.0,-123.0,-43.0,80.0,259.0,-487.0,0
-213.0,-126.0,-36.0,77.0,267.0,-487.0,0
-213.0,-124.0,-38.0,72.0,278.0,-486.0,0
-214.0,-127.0,-37.0,66.0,289.0,-483.0,0
-211.0,-127.0,-41.0,64.0,300.0,-482.0,0
-216.0,-124.0,-38.0,67.0,302.0,-478.0,0
-212.0,-129.0,-38.0,72.0,301.0,-473.0,0
-213.0,-128.0,-36.0,79.0,299.0,-469.0,0
-213.0,-129.0,-40.0,79.0,302.0,-464.0,0
-209.0,-129.0,-40.0,78.0,310.0,-455.0,0
-209.0,-128.0,-41.0,77.0,322.0,-448.0,0
-211.0,-129.0,-37.0,71.0,334.0,-444.0,0
-208.0,-128.0,-39.0,64.0,337.0,-435.0,0
-205.0,-129.0,-35.0,59.0,340.0,-431.0,0
-206.0,-133.0,-40.0,54.0,343.0,-427.0,0
-203.0,-132.0,-34.0,50.0,346.0,-427.0,0
-207.0,-133.0,-40.0,48.0,353.0,-425.0,0
-206.0,-135.0,-38.0,45.0,359.0,-425.0,0
-208.0,-134.0,-39.0,50.0,364.0,-427.0,0
-208.0,-134.0,-44.0,57.0,363.0,-426.0,0
-210.0,-135.0,-36.0,69.0,353.0,-425.0,0
-209.0,-136.0,-40.0,83.0,336.0,-424.0,0
-212.0,-136.0,-43.0,96.0,319.0,-423.0,0
-211.0,-138.0,-40.0,105.0,305.0,-423.0,0
-211.0,-140.0,-45.0,112.0,296.0,-422.0,0
-211.0,-136.0,-46.0,114.0,289.0,-421.0,0
-212.0,-140.0,-41.0,118.0,282.0,-420.0,0
-215.0,-139.0,-42.0,123.0,270.0,-419.0,0
-216.0,-136.0,-43.0,130.0,253.0,-418.0,0
-215.0,-137.0,-46.0,135.0,235.0,-417.0,0
-212.0,-138.0,-49.0,135.0,220.0,-418.0,0
-212.0,-137.0,-50.0,131.0,206.0,-421.0,0
-214.0,-139.0,-45.0,128.0,198.0,-421.0,0
-215.0,-139.0,-46.0,124.0,192.0,-426.0,0
-210.0,-138.0,-47.0,120.0,186.0,-430.0,0
-209.0,-143.0,-49.0,113.0,178.0,-437.0,0
-206.0,-143.0,-43.0,107.0,172.0,-441.0,0
-207.0,-144.0,-50.0,103.0,168.0,-446.0,0
-204.0,-145.0,-49.0,95.0,167.0,-448.0,0
-199.0,-147.0,-55.0,90.0,173.0,-452.0,0
-198.0,-153.0,-48.0,90.0,184.0,-461.0,0
-194.0,-158.0,-45.0,100.0,196.0,-467.0,0
-195.0,-162.0,-50.0,121.0,209.0,-475.0,0
-197.0,-163.0,-49.0,157.0,221.0,-486.0,0
-197.0,-165.0,-51.0,202.0,232.0,-495.0,0
-199.0,-165.0,-51.0,252.0,242.0,-501.0,0
-198.0,-167.0,-55.0,305.0,252.0,-508.0,0
-201.0,-160.0,-55.0,349.0,264.0,-510.0,0
-198.0,-162.0,-56.0,387.0,277.0,-513.0,0
-197.0,-155.0,-50.0,417.0,285.0,-513.0,0
-199.0,-158.0,-58.0,441.0,286.0,-516.0,0
-197.0,-157.0,-53.0,455.0,283.0,-518.0,0
-197.0,-156.0,-55.0,462.0,274.0,-523.0,0
-194.0,-155.0,-59.0,463.0,264.0,-528.0,0
-192.0,-158.0,-56.0,456.0,258.0,-537.0,0
-194.0,-155.0,-56.0,452.0,251.0,-544.0,0
-193.0,-156.0,-51.0,446.0,246.0,-553.0,0
-193.0,-150.0,-53.0,436.0,237.0,-558.0,0
-193.0,-149.0,-50.0,421.0,224.0,-556.0,0
-191.0,-154.0,-51.0,398.0,206.0,-552.0,0
-192.0,-152.0,-56.0,367.0,188.0,-545.0,0
-184.0,-158.0,-42.0,327.0,176.0,-536.0,0
-190.0,-155.0,-48.0,289.0,174.0,-525.0,0
-188.0,-155.0,-46.0,262.0,172.0,-515.0,0
-188.0,-161.0,-44.0,247.0,170.0,-507.0,0
-188.0,-166.0,-40.0,245.0,163.0,-505.0,0
-186.0,-167.0,-43.0,251.0,157.0,-503.0,0
-183.0,-166.0,-48.0,265.0,153.0,-504.0,0
-182.0,-168.0,-47.0,282.0,150.0,-505.0,0
-187.0,-166.0,-51.0,297.0,153.0,-508.0,0
-185.0,-164.0,-54.0,310.0,153.0,-507.0,0
-185.0,-164.0,-49.0,314.0,149.0,-507.0,0
-184.0,-164.0,-58.0,312.0,143.0,-508.0,0
-186.0,-163.0,-51.0,305.0,132.0,-509.0,0
-184.0,-163.0,-53.0,291.0,122.0,-507.0,0
-185.0,-161.0,-50.0,275.0,113.0,-506.0,0
-184.0,-165.0,-49.0,258.0,101.0,-503.0,0
-186.0,-165.0,-46.0,241.0,89.0,-500.0,0
-185.0,-167.0,-47.0,228.0,77.0,-500.0,0
-186.0,-168.0,-44.0,217.0,67.0,-498.0,0
-185.0,-174.0,-44.0,211.0,64.0,-499.0,0
-184.0,-176.0,-45.0,209.0,63.0,-501.0,0
-180.0,-181.0,-36.0,214.0,67.0,-506.0,0
-177.0,-174.0,-49.0,219.0,68.0,-508.0,0
-183.0,-182.0,-43.0,223.0,66.0,-512.0,0
-179.0,-182.0,-47.0,227.0,58.0,-520.0,0
-178.0,-180.0,-46.0,224.0,45.0,-525.0,0
-175.0,-180.0,-48.0,221.0,36.0,-531.0,0
-171.0,-180.0,-50.0,213.0,32.0,-533.0,0
-174.0,-177.0,-51.0,208.0,28.0,-532.0,0
-171.0,-178.0,-46.0,202.0,24.0,-531.0,0
-172.0,-177.0,-48.0,195.0,20.0,-527.0,0
-171.0,-175.0,-45.0,189.0,15.0,-522.0,0
-172.0,-178.0,-49.0,183.0,13.0,-519.0,0
-174.0,-178.0,-45.0,178.0,11.0,-515.0,0
-171.0,-181.0,-41.0,175.0,13.0,-512.0,0
-173.0,-188.0,-44.0,174.0,16.0,-511.0,0
-170.0,-185.0,-45.0,175.0,21.0,-512.0,0
-171.0,-184.0,-47.0,175.0,27.0,-513.0,0
-170.0,-186.0,-42.0,174.0,35.0,-513.0,0
-168.0,-186.0,-41.0,171.0,46.0,-515.0,0
-166.0,-184.0,-42.0,166.0,52.0,-518.0,0
-167.0,-187.0,-38.0,161.0,55.0,-520.0,0
-168.0,-189.0,-38.0,156.0,53.0,-519.0,0
-168.0,-186.0,-37.0,150.0,49.0,-522.0,0
-166.0,-182.0,-42.0,143.0,44.0,-522.0,0
-165.0,-186.0,-35.0,137.0,41.0,-521.0,0
-166.0,-184.0,-34.0,128.0,42.0,-519.0,0
-162.0,-187.0,-31.0,125.0,44.0,-522.0,0
-168.0,-188.0,-30.0,126.0,46.0,-524.0,0
-165.0,-190.0,-33.0,134.0,43.0,-525.0,0
-164.0,-189.0,-35.0,148.0,32.0,-526.0,0
-165.0,-191.0,-37.0,161.0,20.0,-525.0,0
-167.0,-188.0,-42.0,169.0,9.0,-526.0,0
-164.0,-189.0,-35.0,171.0,3.0,-524.0,0
-159.0,-187.0,-40.0,165.0,2.0,-516.0,0
-160.0,-189.0,-41.0,152.0,3.0,-509.0,0
-157.0,-190.0,-39.0,137.0,3.0,-505.0,0
-159.0,-192.0,-38.0,123.0,-3.0,-499.0,0
-155.0,-192.0,-42.0,112.0,-12.0,-490.0,0
-154.0,-193.0,-43.0,101.0,-22.0,-480.0,0
-151.0,-195.0,-44.0,97.0,-25.0,-473.0,0
-152.0,-195.0,-41.0,96.0,-23.0,-468.0,0
-156.0,-194.0,-48.0,99.0,-21.0,-460.0,0
-145.0,-194.0,-42.0,105.0,-20.0,-453.0,0
-149.0,-198.0,-45.0,114.0,-17.0,-444.0,0
-148.0,-198.0,-50.0,126.0,-13.0,-436.0,0
-140.0,-204.0,-38.0,138.0,-10.0,-431.0,0
-142.0,-203.0,-40.0,147.0,-6.0,-422.0,0
-141.0,-201.0,-39.0,152.0,-2.0,-415.0,0
-138.0,-203.0,-37.0,154.0,-1.0,-409.0,0
-134.0,-199.0,-42.0,153.0,-2.0,-402.0,0
-135.0,-200.0,-41.0,149.0,-5.0,-395.0,0
-137.0,-200.0,-42.0,139.0,-10.0,-391.0,0
-138.0,-199.0,-42.0,131.0,-16.0,-385.0,0
-133.0,-201.0,-41.0,121.0,-16.0,-378.0,0
-133.0,-200.0,-43.0,114.0,-8.0,-373.0,0
-139.0,-196.0,-43.0,111.0,5.0,-366.0,0
-136.0,-204.0,-38.0,115.0,17.0,-362.0,0
-138.0,-204.0,-43.0,119.0,25.0,-357.0,0
-136.0,-204.0,-43.0,120.0,28.0,-350.0,0
-136.0,-208.0,-41.0,124.0,32.0,-343.0,0
-137.0,-209.0,-40.0,129.0,35.0,-338.0,0
-142.0,-207.0,-41.0,135.0,38.0,-331.0,0
-139.0,-205.0,-42.0,143.0,42.0,-327.0,0
-140.0,-209.0,-41.0,151.0,44.0,-324.0,0
-143.0,-208.0,-33.0,155.0,46.0,-318.0,0
-138.0,-208.0,-38.0,157.0,44.0,-314.0,0
-141.0,-213.0,-35.0,155.0,42.0,-311.0,0
-140.0,-208.0,-40.0,148.0,38.0,-309.0,0
-144.0,-207.0,-36.0,143.0,38.0,-307.0,0
-139.0,-207.0,-30.0,137.0,39.0,-303.0,0
-136.0,-205.0,-33.0,136.0,40.0,-300.0,0
-137.0,-204.0,-35.0,139.0,38.0,-298.0,0
-138.0,-205.0,-37.0,141.0,31.0,-292.0,0
-137.0,-198.0,-33.0,140.0,22.0,-289.0,0
-137.0,-201.0,-35.0,139.0,15.0,-286.0,0
-134.0,-207.0,-36.0,137.0,10.0,-283.0,0
-132.0,-208.0,-32.0,136.0,8.0,-281.0,0
-138.0,-200.0,-37.0,139.0,11.0,-280.0,0
-137.0,-208.0,-35.0,142.0,15.0,-282.0,0
-136.0,-209.0,-36.0,149.0,17.0,-283.0,0
-137.0,-214.0,-36.0,153.0,16.0,-285.0,0
-138.0,-214.0,-36.0,156.0,15.0,-292.0,0
-137.0,-212.0,-35.0,164.0,11.0,-298.0,0
-140.0,-205.0,-34.0,171.0,4.0,-307.0,0
-137.0,-210.0,-38.0,177.0,1.0,-317.0,0
-137.0,-207.0,-34.0,175.0,-3.0,-325.0,0
-139.0,-204.0,-37.0,170.0,-4.0,-328.0,0
-136.0,-204.0,-34.0,159.0,-4.0,-333.0,0
-137.0,-206.0,-26.0,149.0,-6.0,-335.0,0
-141.0,-204.0,-33.0,137.0,-17.0,-336.0,0
-135.0,-203.0,-34.0,122.0,-32.0,-335.0,0
-135.0,-203.0,-34.0,103.0,-50.0,-334.0,0
-136.0,-201.0,-34.0,82.0,-63.0,-332.0,0
-133.0,-204.0,-32.0,63.0,-73.0,-326.0,0
-132.0,-206.0,-38.0,50.0,-81.0,-319.0,0
-129.0,-205.0,-37.0,42.0,-90.0,-314.0,0
-129.0,-205.0,-36.0,37.0,-95.0,-307.0,0
-131.0,-205.0,-34.0,37.0,-104.0,-303.0,0
-129.0,-210.0,-39.0,40.0,-112.0,-301.0,0
-132.0,-209.0,-32.0,45.0,-115.0,-303.0,0
-130.0,-207.0,-32.0,53.0,-116.0,-305.0,0
-132.0,-209.0,-36.0,62.0,-119.0,-308.0,0
-131.0,-209.0,-36.0,69.0,-118.0,-314.0,0
-133.0,-205.0,-36.0,68.0,-118.0,-315.0,0
-133.0,-208.0,-36.0,65.0,-120.0,-317.0,0
-132.0,-208.0,-36.0,63.0,-122.0,-319.0,0
-128.0,-207.0,-32.0,62.0,-125.0,-319.0,0
-133.0,-203.0,-32.0,61.0,-129.0,-319.0,0
-133.0,-210.0,-36.0,60.0,-131.0,-317.0,0
-133.0,-209.0,-31.0,59.0,-133.0,-316.0,0
-136.0,-211.0,-30.0,59.0,-136.0,-315.0,0
-132.0,-214.0,-35.0,60.0,-139.0,-316.0,0
-132.0,-211.0,-34.0,61.0,-144.0,-315.0,0
-130.0,-213.0,-40.0,62.0,-146.0,-318.0,0
-129.0,-212.0,-37.0,62.0,-145.0,-324.0,0
-131.0,-211.0,-38.0,61.0,-142.0,-328.0,0
-128.0,-213.0,-34.0,58.0,-141.0,-332.0,0
-130.0,-214.0,-37.0,57.0,-147.0,-339.0,0
-130.0,-211.0,-40.0,56.0,-157.0,-340.0,0
-130.0,-210.0,-33.0,56.0,-167.0,-340.0,0
-125.0,-212.0,-32.0,55.0,-173.0,-341.0,0
-125.0,-216.0,-29.0,55.0,-171.0,-341.0,0
-125.0,-213.0,-36.0,53.0,-166.0,-342.0,0
-127.0,-214.0,-32.0,50.0,-159.0,-338.0,0
-125.0,-213.0,-31.0,47.0,-153.0,-336.0,0
-122.0,-215.0,-29.0,45.0,-153.0,-340.0,0
-124.0,-212.0,-29.0,44.0,-157.0,-341.0,0
-125.0,-212.0,-29.0,44.0,-164.0,-342.0,0
-121.0,-214.0,-31.0,44.0,-175.0,-349.0,0
-125.0,-212.0,-35.0,44.0,-188.0,-354.0,0
-122.0,-211.0,-34.0,44.0,-202.0,-361.0,0
-124.0,-209.0,-31.0,44.0,-211.0,-369.0,0
-123.0,-209.0,-32.0,38.0,-218.0,-373.0,0
-121.0,-213.0,-30.0,31.0,-218.0,-374.0,0
-121.0,-211.0,-29.0,27.0,-213.0,-378.0,0
-121.0,-217.0,-29.0,21.0,-207.0,-379.0,0
-121.0,-218.0,-24.0,21.0,-197.0,-378.0,0
-118.0,-219.0,-25.0,23.0,-187.0,-379.0,0
-117.0,-223.0,-25.0,26.0,-178.0,-375.0,0
-117.0,-221.0,-28.0,30.0,-175.0,-375.0,0
-116.0,-225.0,-24.0,34.0,-181.0,-374.0,0
-115.0,-224.0,-30.0,32.0,-195.0,-372.0,0
-109.0,-224.0,-25.0,27.0,-214.0,-369.0,0
-117.0,-217.0,-36.0,21.0,-232.0,-366.0,0
-110.0,-216.0,-32.0,13.0,-246.0,-365.0,0
-111.0,-215.0,-31.0,8.0,-253.0,-361.0,0
-108.0,-218.0,-31.0,5.0,-253.0,-356.0,0
-110.0,-219.0,-32.0,2.0,-252.0,-353.0,0
-112.0,-218.0,-31.0,3.0,-251.0,-352.0,0
-111.0,-221.0,-30.0,3.0,-248.0,-349.0,0
-110.0,-219.0,-30.0,2.0,-242.0,-346.0,0
-105.0,-223.0,-30.0,4.0,-233.0,-345.0,0
-108.0,-225.0,-27.0,7.0,-222.0,-344.0,0
-111.0,-220.0,-33.0,13.0,-209.0,-346.0,0
-104.0,-226.0,-24.0,19.0,-197.0,-349.0,0
-102.0,-224.0,-24.0,26.0,-186.0,-352.0,0
-104.0,-227.0,-25.0,31.0,-181.0,-358.0,0
-103.0,-224.0,-23.0,30.0,-177.0,-366.0,0
-97.0,-227.0,-29.0,27.0,-179.0,-374.0,0
-99.0,-229.0,-28.0,22.0,-185.0,-381.0,0
-99.0,-229.0,-31.0,16.0,-194.0,-390.0,0
-97.0,-226.0,-30.0,8.0,-201.0,-394.0,0
-100.0,-229.0,-31.0,1.0,-206.0,-396.0,0
-100.0,-229.0,-35.0,-8.0,-206.0,-394.0,0
-97.0,-231.0,-30.0,-16.0,-204.0,-393.0,0
-101.0,-226.0,-30.0,-21.0,-198.0,-389.0,0
-101.0,-227.0,-28.0,-24.0,-190.0,-383.0,0
-96.0,-228.0,-28.0,-21.0,-180.0,-378.0,0
-97.0,-228.0,-28.0,-15.0,-166.0,-376.0,0
-96.0,-229.0,-21.0,-10.0,-151.0,-372.0,0
-93.0,-227.0,-22.0,-9.0,-137.0,-368.0,0
-92.0,-225.0,-24.0,-8.0,-123.0,-367.0,0
-92.0,-226.0,-19.0,-8.0,-113.0,-368.0,0
-89.0,-226.0,-21.0,-6.0,-107.0,-371.0,0
-85.0,-230.0,-20.0,-5.0,-105.0,-372.0,0
-86.0,-228.0,-16.0,0.0,-105.0,-378.0,0
-87.0,-227.0,-24.0,9.0,-105.0,-391.0,0
-87.0,-230.0,-22.0,18.0,-106.0,-402.0,0
-88.0,-230.0,-26.0,27.0,-109.0,-406.0,0
-87.0,-236.0,-28.0,34.0,-113.0,-408.0,0
-89.0,-234.0,-27.0,39.0,-118.0,-410.0,0
-93.0,-234.0,-30.0,44.0,-120.0,-410.0,0
-94.0,-238.0,-33.0,47.0,-121.0,-408.0,0
-96.0,-237.0,-28.0,50.0,-120.0,-403.0,0
-99.0,-237.0,-25.0,50.0,-119.0,-391.0,0
-100.0,-236.0,-24.0,51.0,-117.0,-373.0,0
-96.0,-239.0,-20.0,51.0,-112.0,-359.0,0
-95.0,-237.0,-18.0,52.0,-105.0,-347.0,0
-94.0,-236.0,-17.0,56.0,-99.0,-333.0,0
-86.0,-236.0,-18.0,63.0,-98.0,-325.0,0
-84.0,-236.0,-18.0,69.0,-97.0,-319.0,0
-79.0,-234.0,-20.0,71.0,-98.0,-316.0,0
-81.0,-232.0,-19.0,72.0,-100.0,-315.0,0
-77.0,-230.0,-22.0,69.0,-102.0,-314.0,0
-78.0,-227.0,-26.0,64.0,-104.0,-316.0,0
-76.0,-228.0,-23.0,59.0,-108.0,-315.0,0
-79.0,-224.0,-18.0,50.0,-114.0,-319.0,0
-71.0,-222.0,-32.0,38.0,-119.0,-322.0,0
-82.0,-221.0,-28.0,25.0,-127.0,-324.0,0
-79.0,-224.0,-29.0,7.0,-133.0,-328.0,0
-85.0,-224.0,-25.0,-8.0,-137.0,-332.0,0
-82.0,-226.0,-25.0,-18.0,-138.0,-334.0,0
-86.0,-228.0,-28.0,-21.0,-137.0,-337.0,0
-84.0,-231.0,-24.0,-22.0,-134.0,-338.0,0
-85.0,-235.0,-22.0,-20.0,-131.0,-340.0,0
-88.0,-233.0,-23.0,-15.0,-128.0,-340.0,0
-86.0,-232.0,-25.0,-10.0,-128.0,-338.0,0
-87.0,-231.0,-23.0,-2.0,-130.0,-333.0,0
-90.0,-226.0,-31.0,3.0,-132.0,-330.0,0
-87.0,-230.0,-27.0,5.0,-133.0,-326.0,0
-83.0,-232.0,-27.0,8.0,-131.0,-321.0,0
-84.0,-230.0,-29.0,9.0,-129.0,-319.0,0
-77.0,-234.0,-30.0,7.0,-126.0,-319.0,0
-76.0,-235.0,-27.0,7.0,-122.0,-320.0,0
-75.0,-236.0,-28.0,9.0,-120.0,-325.0,0
-70.0,-237.0,-25.0,13.0,-118.0,-330.0,0
-67.0,-238.0,-29.0,16.0,-115.0,-339.0,0
-63.0,-240.0,-30.0,22.0,-113.0,-345.0,0
-65.0,-237.0,-32.0,24.0,-110.0,-352.0,0
-67.0,-237.0,-24.0,25.0,-106.0,-359.0,0
-66.0,-239.0,-31.0,21.0,-99.0,-365.0,0
-66.0,-237.0,-33.0,18.0,-94.0,-371.0,0
-68.0,-238.0,-30.0,9.0,-92.0,-371.0,0
-72.0,-237.0,-30.0,2.0,-89.0,-368.0,0
-70.0,-239.0,-30.0,-6.0,-85.0,-363.0,0
-70.0,-241.0,-28.0,-9.0,-79.0,-354.0,0
-68.0,-247.0,-29.0,-8.0,-73.0,-346.0,0
-69.0,-243.0,-27.0,-4.0,-65.0,-334.0,0
-70.0,-243.0,-28.0,-1.0,-59.0,-325.0,0
-68.0,-246.0,-25.0,4.0,-54.0,-321.0,0
-70.0,-241.0,-29.0,13.0,-49.0,-316.0,0
-64.0,-246.0,-27.0,20.0,-50.0,-311.0,0
-64.0,-243.0,-28.0,27.0,-49.0,-308.0,0
-65.0,-243.0,-27.0,32.0,-48.0,-307.0,0
-63.0,-242.0,-29.0,39.0,-47.0,-306.0,0
-61.0,-243.0,-29.0,42.0,-47.0,-303.0,0
-63.0,-239.0,-27.0,46.0,-47.0,-302.0,0
-59.0,-243.0,-27.0,52.0,-50.0,-301.0,0
-60.0,-242.0,-26.0,59.0,-49.0,-299.0,0
-62.0,-240.0,-24.0,68.0,-49.0,-300.0,0
-62.0,-241.0,-26.0,75.0,-46.0,-300.0,0
-62.0,-246.0,-27.0,83.0,-43.0,-300.0,0
-62.0,-241.0,-24.0,87.0,-37.0,-303.0,0
-61.0,-242.0,-26.0,88.0,-32.0,-305.0,0
-60.0,-240.0,-20.0,88.0,-29.0,-308.0,0
-62.0,-242.0,-23.0,86.0,-30.0,-312.0,0
-61.0,-245.0,-24.0,84.0,-34.0,-316.0,0
-58.0,-246.0,-20.0,81.0,-40.0,-321.0,0
-58.0,-247.0,-23.0,83.0,-48.0,-324.0,0
-59.0,-247.0,-24.0,87.0,-58.0,-327.0,0
-61.0,-243.0,-22.0,92.0,-68.0,-328.0,0
-61.0,-248.0,-16.0,98.0,-81.0,-331.0,0
-60.0,-242.0,-20.0,102.0,-95.0,-333.0,0
-59.0,-244.0,-23.0,103.0,-108.0,-336.0,0
-60.0,-240.0,-24.0,104.0,-121.0,-337.0,0
-54.0,-242.0,-27.0,99.0,-133.0,-339.0,0
-58.0,-236.0,-30.0,92.0,-141.0,-339.0,0
-54.0,-238.0,-27.0,83.0,-146.0,-342.0,0
-51.0,-237.0,-27.0,72.0,-147.0,-346.0,0
-50.0,-239.0,-27.0,63.0,-148.0,-350.0,0
-50.0,-240.0,-25.0,55.0,-146.0,-349.0,0
-45.0,-241.0,-30.0,51.0,-143.0,-352.0,0
-44.0,-236.0,-22.0,48.0,-138.0,-356.0,0
-45.0,-243.0,-29.0,47.0,-136.0,-359.0,0
-44.0,-243.0,-29.0,50.0,-131.0,-361.0,0
-41.0,-246.0,-31.0,54.0,-127.0,-363.0,0
-41.0,-247.0,-31.0,56.0,-125.0,-365.0,0
-41.0,-246.0,-31.0,60.0,-121.0,-363.0,0
-39.0,-246.0,-30.0,63.0,-118.0,-361.0,0
-43.0,-246.0,-25.0,70.0,-114.0,-359.0,0
-37.0,-248.0,-29.0,75.0,-110.0,-357.0,0
-39.0,-249.0,-28.0,81.0,-107.0,-354.0,0
-37.0,-248.0,-21.0,89.0,-102.0,-349.0,0
-45.0,-247.0,-31.0,97.0,-99.0,-344.0,0
-40.0,-246.0,-25.0,106.0,-93.0,-338.0,0
-38.0,-248.0,-22.0,115.0,-87.0,-333.0,0
-35.0,-250.0,-23.0,120.0,-85.0,-331.0,0
-38.0,-249.0,-24.0,123.0,-80.0,-331.0,0
-36.0,-248.0,-21.0,123.0,-78.0,-334.0,0
-35.0,-246.0,-26.0,122.0,-77.0,-333.0,0
-37.0,-243.0,-21.0,120.0,-78.0,-335.0,0
-38.0,-243.0,-23.0,115.0,-84.0,-338.0,0
-40.0,-245.0,-22.0,112.0,-87.0,-339.0,0
-38.0,-240.0,-18.0,109.0,-89.0,-341.0,0
-30.0,-236.0,-20.0,112.0,-88.0,-343.0,0
-41.0,-244.0,-22.0,116.0,-83.0,-347.0,0
-37.0,-243.0,-20.0,120.0,-77.0,-348.0,0
-42.0,-245.0,-18.0,123.0,-74.0,-352.0,0
-39.0,-247.0,-20.0,127.0,-67.0,-350.0,0
-40.0,-245.0,-19.0,129.0,-64.0,-349.0,0
-35.0,-249.0,-20.0,131.0,-59.0,-346.0,0
-37.0,-252.0,-20.0,135.0,-56.0,-343.0,0
-36.0,-250.0,-20.0,137.0,-51.0,-341.0,0
-32.0,-253.0,-16.0,139.0,-53.0,-339.0,0
-31.0,-252.0,-21.0,143.0,-57.0,-339.0,0
-29.0,-247.0,-9.0,145.0,-64.0,-338.0,0
-31.0,-246.0,-21.0,150.0,-71.0,-340.0,0
-23.0,-253.0,-20.0,152.0,-80.0,-338.0,0
-25.0,-249.0,-26.0,156.0,-88.0,-337.0,0
-24.0,-250.0,-23.0,158.0,-92.0,-334.0,0
-22.0,-248.0,-17.0,162.0,-91.0,-328.0,0
-19.0,-246.0,-19.0,163.0,-88.0,-325.0,0
-23.0,-246.0,-24.0,161.0,-83.0,-321.0,0
-21.0,-245.0,-19.0,156.0,-76.0,-317.0,0
-18.0,-243.0,-18.0,146.0,-70.0,-311.0,0
-23.0,-248.0,-17.0,136.0,-64.0,-307.0,0
-23.0,-246.0,-14.0,124.0,-57.0,-302.0,0
-25.0,-244.0,-17.0,112.0,-53.0,-298.0,0
-23.0,-245.0,-18.0,102.0,-52.0,-293.0,0
-22.0,-244.0,-16.0,94.0,-48.0,-290.0,0
-22.0,-250.0,-17.0,90.0,-45.0,-286.0,0
-22.0,-250.0,-17.0,90.0,-40.0,-282.0,0
-22.0,-247.0,-19.0,91.0,-35.0,-280.0,0
-24.0,-251.0,-23.0,93.0,-32.0,-279.0,0
-20.0,-249.0,-15.0,98.0,-28.0,-278.0,0
-19.0,-252.0,-13.0,104.0,-27.0,-277.0,0
-20.0,-249.0,-15.0,109.0,-26.0,-276.0,0
-23.0,-247.0,-18.0,111.0,-26.0,-273.0,0
-19.0,-248.0,-17.0,113.0,-26.0,-269.0,0
-16.0,-247.0,-19.0,112.0,-28.0,-265.0,0
-19.0,-246.0,-16.0,110.0,-28.0,-260.0,0
-19.0,-247.0,-15.0,106.0,-27.0,-255.0,0
-19.0,-249.0,-11.0,101.0,-26.0,-250.0,0
-19.0,-246.0,-12.0,96.0,-22.0,-244.0,0
-16.0,-244.0,-12.0,89.0,-19.0,-238.0,0
-15.0,-247.0,-15.0,82.0,-16.0,-234.0,0
-17.0,-247.0,-12.0,78.0,-13.0,-228.0,0
-18.0,-247.0,-13.0,78.0,-9.0,-224.0,0
-15.0,-250.0,-13.0,80.0,-6.0,-220.0,0
-13.0,-249.0,-15.0,82.0,-5.0,-218.0,0
-13.0,-246.0,-15.0,82.0,-4.0,-216.0,0
-13.0,-245.0,-13.0,83.0,-1.0,-214.0,0
-14.0,-248.0,-14.0,82.0,1.0,-212.0,0
-16.0,-245.0,-16.0,75.0,4.0,-210.0,0
-14.0,-242.0,-14.0,66.0,6.0,-210.0,0
-14.0,-240.0,-16.0,56.0,5.0,-209.0,0
-6.0,-247.0,-12.0,46.0,4.0,-208.0,0
-12.0,-245.0,-15.0,38.0,4.0,-207.0,0
-8.0,-247.0,-13.0,32.0,4.0,-205.0,0
-11.0,-248.0,-15.0,28.0,6.0,-205.0,0
-10.0,-247.0,-14.0,22.0,10.0,-202.0,0
-11.0,-248.0,-12.0,17.0,17.0,-195.0,0
-5.0,-250.0,-14.0,17.0,21.0,-188.0,0
-10.0,-251.0,-12.0,14.0,26.0,-183.0,0
-8.0,-252.0,-13.0,12.0,32.0,-179.0,0
-8.0,-250.0,-12.0,16.0,35.0,-174.0,0
-7.0,-248.0,-15.0,18.0,41.0,-171.0,0
-6.0,-249.0,-10.0,21.0,44.0,-166.0,0
-5.0,-253.0,-11.0,22.0,45.0,-163.0,0
-9.0,-246.0,-12.0,24.0,45.0,-159.0,0
-7.0,-246.0,-16.0,21.0,42.0,-156.0,0
-4.0,-245.0,-16.0,16.0,37.0,-151.0,0
-7.0,-244.0,-15.0,10.0,32.0,-143.0,0
-7.0,-243.0,-15.0,0.0,29.0,-138.0,0
-12.0,-242.0,-14.0,-9.0,28.0,-131.0,0
-11.0,-243.0,-17.0,-19.0,27.0,-126.0,0
-14.0,-242.0,-17.0,-28.0,24.0,-120.0,0
-12.0,-248.0,-15.0,-37.0,23.0,-115.0,0
-8.0,-245.0,-13.0,-45.0,22.0,-108.0,0
-16.0,-249.0,-12.0,-54.0,22.0,-104.0,0
-12.0,-242.0,-10.0,-60.0,24.0,-100.0,0
-7.0,-244.0,-14.0,-64.0,26.0,-96.0,0
-12.0,-244.0,-16.0,-68.0,27.0,-91.0,0
-11.0,-245.0,-19.0,-70.0,29.0,-88.0,0
-10.0,-245.0,-17.0,-76.0,31.0,-81.0,0
-8.0,-248.0,-15.0,-81.0,35.0,-76.0,0
-9.0,-247.0,-21.0,-87.0,40.0,-73.0,0
-8.0,-249.0,-17.0,-93.0,46.0,-67.0,0
-5.0,-251.0,-19.0,-97.0,51.0,-63.0,0
-13.0,-247.0,-25.0,-98.0,55.0,-60.0,0
-6.0,-250.0,-16.0,-101.0,59.0,-58.0,0
-8.0,-248.0,-18.0,-101.0,62.0,-55.0,0
-8.0,-250.0,-18.0,-101.0,65.0,-51.0,0
-10.0,-245.0,-19.0,-106.0,67.0,-49.0,0
-11.0,-251.0,-21.0,-108.0,69.0,-46.0,0
-11.0,-247.0,-25.0,-110.0,69.0,-44.0,0
-11.0,-250.0,-24.0,-109.0,70.0,-43.0,0
-16.0,-250.0,-23.0,-107.0,67.0,-41.0,0
-14.0,-249.0,-21.0,-102.0,65.0,-39.0,0
-14.0,-250.0,-18.0,-94.0,62.0,-38.0,0
-14.0,-249.0,-23.0,-84.0,57.0,-37.0,0
-15.0,-247.0,-25.0,-72.0,50.0,-35.0,0
-16.0,-249.0,-22.0,-62.0,44.0,-32.0,0
-16.0,-250.0,-27.0,-55.0,39.0,-34.0,0
-14.0,-248.0,-24.0,-48.0,31.0,-32.0,0
-14.0,-247.0,-23.0,-42.0,26.0,-30.0,0
-14.0,-247.0,-23.0,-38.0,19.0,-30.0,0
-17.0,-242.0,-28.0,-37.0,15.0,-30.0,0
-14.0,-246.0,-27.0,-36.0,9.0,-29.0,0
-12.0,-247.0,-27.0,-35.0,5.0,-29.0,0
-12.0,-244.0,-27.0,-32.0,3.0,-27.0,0
-8.0,-250.0,-31.0,-30.0,4.0,-27.0,0
-9.0,-246.0,-28.0,-27.0,7.0,-26.0,0
-12.0,-250.0,-30.0,-24.0,10.0,-24.0,0
-9.0,-247.0,-25.0,-24.0,12.0,-22.0,0
-11.0,-249.0,-28.0,-23.0,15.0,-23.0,0
-13.0,-251.0,-26.0,-27.0,17.0,-23.0,0
-15.0,-249.0,-27.0,-29.0,18.0,-23.0,0
-10.0,-253.0,-29.0,-29.0,19.0,-23.0,0
-8.0,-253.0,-27.0,-27.0,19.0,-24.0,0
-13.0,-250.0,-27.0,-23.0,21.0,-26.0,0
-10.0,-251.0,-28.0,-17.0,21.0,-26.0,0
-15.0,-249.0,-30.0,-12.0,20.0,-26.0,0
-14.0,-249.0,-23.0,-8.0,21.0,-28.0,0
-14.0,-246.0,-25.0,-3.0,21.0,-26.0,0
-11.0,-248.0,-26.0,-1.0,20.0,-25.0,0
-12.0,-247.0,-26.0,2.0,20.0,-23.0,0
-14.0,-245.0,-29.0,3.0,23.0,-20.0,0
-14.0,-248.0,-30.0,3.0,23.0,-15.0,0
-14.0,-245.0,-30.0,1.0,23.0,-12.0,0
-14.0,-246.0,-30.0,-3.0,25.0,-12.0,0
-10.0,-250.0,-38.0,-6.0,25.0,-9.0,0
-10.0,-251.0,-28.0,-9.0,27.0,-7.0,0
-13.0,-245.0,-28.0,-9.0,29.0,-4.0,0
-10.0,-246.0,-27.0,-8.0,29.0,-1.0,0
-13.0,-248.0,-25.0,-2.0,29.0,0.0,0
-11.0,-247.0,-28.0,5.0,28.0,-1.0,0
-8.0,-252.0,-30.0,13.0,26.0,1.0,0
-8.0,-249.0,-28.0,23.0,22.0,0.0,0
-4.0,-251.0,-30.0,32.0,19.0,-1.0,0
-7.0,-249.0,-27.0,38.0,16.0,-3.0,0
-10.0,-249.0,-29.0,41.0,15.0,-2.0,0
-8.0,-248.0,-28.0,45.0,14.0,-3.0,0
-10.0,-247.0,-24.0,46.0,12.0,-6.0,0
-8.0,-247.0,-29.0,46.0,10.0,-8.0,0
-11.0,-246.0,-30.0,44.0,10.0,-12.0,0
-7.0,-247.0,-28.0,40.0,11.0,-14.0,0
-10.0,-244.0,-32.0,40.0,11.0,-15.0,0
-8.0,-248.0,-30.0,40.0,13.0,-15.0,0
-10.0,-245.0,-27.0,41.0,13.0,-18.0,0
-8.0,-247.0,-25.0,45.0,13.0,-19.0,0
-8.0,-248.0,-26.0,49.0,10.0,-20.0,0
-9.0,-247.0,-29.0,52.0,7.0,-20.0,0
-9.0,-244.0,-23.0,50.0,3.0,-20.0,0
-13.0,-250.0,-26.0,46.0,-3.0,-21.0,0
-9.0,-245.0,-27.0,40.0,-7.0,-22.0,0
-7.0,-246.0,-27.0,32.0,-7.0,-19.0,0
-9.0,-248.0,-25.0,22.0,-5.0,-16.0,0
-9.0,-245.0,-28.0,15.0,-2.0,-15.0,0
-7.0,-248.0,-23.0,10.0,0.0,-13.0,0
-9.0,-248.0,-30.0,8.0,3.0,-12.0,0
-8.0,-249.0,-25.0,11.0,2.0,-10.0,0
-9.0,-248.0,-25.0,16.0,1.0,-10.0,0
-10.0,-247.0,-27.0,20.0,-1.0,-9.0,0
-14.0,-256.0,-32.0,22.0,-2.0,-8.0,0
-7.0,-247.0,-29.0,23.0,-2.0,-6.0,0
-9.0,-247.0,-27.0,21.0,-2.0,-5.0,0
-9.0,-248.0,-28.0,17.0,-3.0,-5.0,0
-10.0,-247.0,-26.0,10.0,-1.0,-3.0,0
-8.0,-246.0,-27.0,5.0,-2.0,-4.0,0
-7.0,-247.0,-24.0,-1.0,-3.0,-3.0,0
-7.0,-245.0,-26.0,-5.0,-5.0,-5.0,0
-10.0,-247.0,-30.0,-9.0,-6.0,-5.0,0
-10.0,-245.0,-24.0,-10.0,-7.0,-6.0,0
-13.0,-246.0,-33.0,-7.0,-7.0,-4.0,0
-12.0,-240.0,-31.0,-2.0,-2.0,-4.0,0
-10.0,-250.0,-30.0,7.0,-2.0,-4.0,0
-12.0,-250.0,-29.0,17.0,0.0,-4.0,0
-13.0,-246.0,-27.0,25.0,2.0,-4.0,0
-13.0,-249.0,-27.0,34.0,4.0,-5.0,0
-10.0,-247.0,-30.0,39.0,5.0,-7.0,0
-15.0,-245.0,-32.0,40.0,7.0,-9.0,0
-7.0,-246.0,-32.0,39.0,7.0,-12.0,0
-11.0,-245.0,-32.0,35.0,7.0,-13.0,0
-8.0,-250.0,-32.0,34.0,7.0,-13.0,0
-10.0,-246.0,-29.0,31.0,9.0,-13.0,0
-13.0,-246.0,-30.0,29.0,11.0,-15.0,0
-9.0,-248.0,-31.0,29.0,13.0,-16.0,0
-11.0,-247.0,-30.0,29.0,15.0,-15.0,0
-10.0,-247.0,-30.0,32.0,17.0,-14.0,0
-11.0,-245.0,-31.0,35.0,18.0,-14.0,0
-8.0,-249.0,-30.0,37.0,17.0,-11.0,0
-9.0,-250.0,-30.0,40.0,19.0,-12.0,0
-8.0,-245.0,-30.0,41.0,21.0,-9.0,0
-12.0,-247.0,-30.0,42.0,21.0,-6.0,0
-10.0,-251.0,-27.0,43.0,24.0,-5.0,0
-16.0,-247.0,-35.0,43.0,26.0,-4.0,0
-16.0,-249.0,-34.0,46.0,29.0,-4.0,0
-9.0,-248.0,-31.0,47.0,33.0,-1.0,0
-11.0,-248.0,-31.0,49.0,34.0,0.0,0
-11.0,-250.0,-31.0,51.0,35.0,0.0,0
-12.0,-246.0,-33.0,51.0,37.0,2.0,0
-7.0,-247.0,-31.0,53.0,37.0,1.0,0
-8.0,-245.0,-32.0,55.0,34.0,0.0,0
-11.0,-248.0,-30.0,55.0,31.0,-1.0,0
-10.0,-246.0,-30.0,55.0,27.0,-2.0,0
-10.0,-248.0,-29.0,53.0,23.0,-2.0,0
-7.0,-249.0,-36.0,50.0,17.0,-2.0,0
-10.0,-247.0,-30.0,49.0,14.0,-1.0,0
-10.0,-248.0,-31.0,51.0,16.0,-3.0,0
-10.0,-249.0,-33.0,53.0,17.0,-4.0,0
-10.0,-251.0,-29.0,56.0,18.0,-5.0,0
-13.0,-249.0,-27.0,60.0,18.0,-6.0,0
-11.0,-249.0,-28.0,64.0,18.0,-7.0,0
-13.0,-246.0,-28.0,68.0,15.0,-9.0,0
-13.0,-247.0,-29.0,68.0,13.0,-10.0,0
-13.0,-247.0,-30.0,70.0,12.0,-13.0,0
-12.0,-250.0,-28.0,72.0,13.0,-17.0,0
-14.0,-244.0,-29.0,72.0,12.0,-17.0,0
-11.0,-247.0,-28.0,73.0,11.0,-19.0,0
-12.0,-247.0,-29.0,73.0,11.0,-20.0,0
-11.0,-247.0,-28.0,76.0,9.0,-19.0,0
-13.0,-245.0,-31.0,77.0,4.0,-19.0,0
-7.0,-245.0,-30.0,79.0,5.0,-18.0,0
-9.0,-249.0,-32.0,82.0,3.0,-18.0,0
-7.0,-248.0,-29.0,85.0,4.0,-17.0,0
-11.0,-245.0,-24.0,86.0,3.0,-16.0,0
-12.0,-248.0,-24.0,88.0,1.0,-14.0,0
-10.0,-249.0,-29.0,88.0,2.0,-14.0,0
-14.0,-241.0,-30.0,90.0,4.0,-13.0,0
-9.0,-248.0,-29.0,89.0,5.0,-12.0,0
-12.0,-244.0,-28.0,88.0,6.0,-10.0,0
-7.0,-248.0,-27.0,87.0,8.0,-11.0,0
-11.0,-250.0,-31.0,85.0,9.0,-11.0,0
-10.0,-250.0,-30.0,86.0,7.0,-10.0,0
-11.0,-245.0,-27.0,87.0,7.0,-11.0,0
-11.0,-249.0,-26.0,87.0,6.0,-10.0,0
-14.0,-247.0,-28.0,88.0,5.0,-13.0,0
-12.0,-248.0,-30.0,90.0,7.0,-13.0,0
-15.0,-246.0,-27.0,93.0,8.0,-12.0,0
-12.0,-247.0,-27.0,97.0,9.0,-11.0,0
-11.0,-250.0,-25.0,98.0,11.0,-13.0,0
-13.0,-247.0,-26.0,100.0,11.0,-12.0,0
-15.0,-246.0,-25.0,100.0,9.0,-12.0,0
-12.0,-247.0,-28.0,99.0,10.0,-14.0,0
-10.0,-246.0,-26.0,96.0,8.0,-14.0,0
-8.0,-243.0,-26.0,93.0,5.0,-14.0,0
-10.0,-243.0,-28.0,90.0,2.0,-14.0,0
-11.0,-243.0,-26.0,87.0,1.0,-13.0,0
-11.0,-240.0,-27.0,82.0,1.0,-14.0,0
-14.0,-238.0,-32.0,78.0,-1.0,-13.0,0
-10.0,-249.0,-26.0,75.0,-2.0,-13.0,0
-7.0,-247.0,-28.0,73.0,-2.0,-14.0,0
-8.0,-243.0,-27.0,72.0,-4.0,-14.0,0
-8.0,-248.0,-30.0,72.0,-5.0,-13.0,0
-6.0,-251.0,-26.0,74.0,-1.0,-13.0,0
-7.0,-247.0,-28.0,78.0,-1.0,-13.0,0
-8.0,-249.0,-26.0,81.0,2.0,-13.0,0
-9.0,-250.0,-26.0,85.0,3.0,-12.0,0
-11.0,-248.0,-25.0,89.0,4.0,-11.0,0
-9.0,-251.0,-26.0,92.0,5.0,-10.0,0
-7.0,-250.0,-27.0,97.0,5.0,-11.0,0
-9.0,-250.0,-24.0,101.0,3.0,-8.0,0
-8.0,-250.0,-27.0,104.0,4.0,-8.0,0
-10.0,-247.0,-25.0,105.0,3.0,-9.0,0
-12.0,-247.0,-26.0,109.0,1.0,-9.0,0
-12.0,-248.0,-23.0,113.0,0.0,-11.0,0
-13.0,-249.0,-24.0,116.0,0.0,-9.0,0
-11.0,-248.0,-24.0,119.0,0.0,-9.0,0
-10.0,-248.0,-22.0,120.0,2.0,-8.0,0
-8.0,-246.0,-19.0,122.0,2.0,-9.0,0
-15.0,-250.0,-24.0,123.0,3.0,-10.0,0
-11.0,-248.0,-22.0,123.0,4.0,-11.0,0
-11.0,-246.0,-26.0,122.0,5.0,-11.0,0
-11.0,-246.0,-24.0,119.0,7.0,-11.0,0
-8.0,-251.0,-25.0,113.0,9.0,-10.0,0
-11.0,-245.0,-23.0,107.0,10.0,-10.0,0
-11.0,-245.0,-20.0,104.0,11.0,-10.0,0
-13.0,-247.0,-26.0,102.0,12.0,-10.0,0
-10.0,-248.0,-24.0,101.0,11.0,-9.0,0
-10.0,-247.0,-25.0,98.0,9.0,-10.0,0
-9.0,-241.0,-27.0,95.0,7.0,-9.0,0
-14.0,-244.0,-31.0,88.0,6.0,-9.0,0
-10.0,-244.0,-26.0,82.0,6.0,-9.0,0
-10.0,-243.0,-23.0,72.0,6.0,-10.0,0
-8.0,-248.0,-21.0,66.0,8.0,-9.0,0
-12.0,-248.0,-22.0,61.0,9.0,-9.0,0
-13.0,-246.0,-21.0,59.0,12.0,-10.0,0
-8.0,-248.0,-22.0,62.0,12.0,-10.0,0
-11.0,-251.0,-21.0,66.0,16.0,-10.0,0
-10.0,-250.0,-19.0,70.0,15.0,-10.0,0
-8.0,-245.0,-24.0,77.0,15.0,-8.0,0
-8.0,-253.0,-21.0,80.0,16.0,-7.0,0
-15.0,-251.0,-18.0,81.0,17.0,-7.0,0
-12.0,-249.0,-25.0,83.0,17.0,-8.0,0
-7.0,-250.0,-22.0,83.0,16.0,-9.0,0
-10.0,-246.0,-23.0,85.0,15.0,-8.0,0
-9.0,-247.0,-25.0,85.0,13.0,-5.0,0
-11.0,-250.0,-23.0,87.0,12.0,-4.0,0
-10.0,-249.0,-24.0,89.0,10.0,-5.0,0
-8.0,-248.0,-24.0,93.0,7.0,-5.0,0
-7.0,-247.0,-29.0,94.0,8.0,-4.0,0
-9.0,-250.0,-23.0,97.0,6.0,-6.0,0
-10.0,-247.0,-24.0,99.0,7.0,-6.0,0
-8.0,-247.0,-25.0,100.0,8.0,-7.0,0
-8.0,-246.0,-27.0,97.0,10.0,-8.0,0
-13.0,-244.0,-22.0,93.0,10.0,-8.0,0
-11.0,-246.0,-25.0,88.0,10.0,-10.0,0
-8.0,-245.0,-23.0,84.0,10.0,-11.0,0
-12.0,-245.0,-22.0,81.0,11.0,-11.0,0
-12.0,-248.0,-21.0,76.0,10.0,-11.0,0
-8.0,-247.0,-25.0,75.0,9.0,-11.0,0
-10.0,-247.0,-26.0,72.0,8.0,-9.0,0
-7.0,-248.0,-22.0,73.0,7.0,-9.0,0
-14.0,-253.0,-24.0,74.0,5.0,-7.0,0
-11.0,-249.0,-25.0,76.0,2.0,-8.0,0
-9.0,-250.0,-23.0,76.0,3.0,-8.0,0
-9.0,-248.0,-25.0,77.0,2.0,-6.0,0
-7.0,-249.0,-25.0,82.0,1.0,-5.0,0
-8.0,-248.0,-25.0,83.0,0.0,-5.0,0
-10.0,-248.0,-18.0,88.0,2.0,-5.0,0
-8.0,-250.0,-23.0,93.0,3.0,-6.0,0
-10.0,-245.0,-23.0,100.0,3.0,-7.0,0
-12.0,-244.0,-23.0,104.0,4.0,-7.0,0
-9.0,-250.0,-21.0,108.0,5.0,-8.0,0
-7.0,-246.0,-25.0,111.0,6.0,-7.0,0
-14.0,-247.0,-18.0,111.0,8.0,-7.0,0
-7.0,-247.0,-21.0,112.0,10.0,-6.0,0
-8.0,-247.0,-19.0,113.0,12.0,-4.0,0
-11.0,-248.0,-15.0,113.0,14.0,-4.0,0
-10.0,-246.0,-23.0,112.0,15.0,-4.0,0
-9.0,-249.0,-23.0,115.0,16.0,-3.0,0
-6.0,-249.0,-12.0,118.0,17.0,-4.0,0
-12.0,-250.0,-24.0,119.0,18.0,-5.0,0
-5.0,-252.0,-21.0,121.0,15.0,-5.0,0
-7.0,-246.0,-21.0,121.0,11.0,-5.0,0
-11.0,-247.0,-21.0,119.0,8.0,-4.0,0
-8.0,-249.0,-17.0,117.0,5.0,-4.0,0
-12.0,-248.0,-20.0,115.0,2.0,-5.0,0
-14.0,-248.0,-20.0,115.0,1.0,-5.0,0
-12.0,-249.0,-22.0,117.0,2.0,-5.0,0
-12.0,-246.0,-20.0,119.0,4.0,-4.0,0
-13.0,-248.0,-19.0,123.0,4.0,-5.0,0
-7.0,-250.0,-18.0,127.0,4.0,-4.0,0
-8.0,-249.0,-19.0,131.0,6.0,-5.0,0
-13.0,-246.0,-21.0,134.0,9.0,-5.0,0
-11.0,-250.0,-17.0,135.0,11.0,-6.0,0
-12.0,-248.0,-10.0,137.0,11.0,-7.0,0
-6.0,-252.0,-11.0,137.0,13.0,-7.0,0
-11.0,-248.0,-24.0,138.0,11.0,-9.0,0
-8.0,-249.0,-21.0,138.0,10.0,-9.0,0
-12.0,-249.0,-21.0,141.0,7.0,-10.0,0
-11.0,-248.0,-20.0,142.0,5.0,-8.0,0
-11.0,-247.0,-20.0,143.0,4.0,-8.0,0
-14.0,-249.0,-17.0,144.0,4.0,-7.0,0
-13.0,-248.0,-18.0,146.0,7.0,-8.0,0
-13.0,-247.0,-17.0,147.0,9.0,-8.0,0
-7.0,-249.0,-22.0,150.0,13.0,-8.0,0
-13.0,-245.0,-10.0,152.0,15.0,-6.0,0
-9.0,-246.0,-13.0,151.0,17.0,-7.0,0
-13.0,-244.0,-14.0,148.0,20.0,-6.0,0
-8.0,-246.0,-15.0,146.0,19.0,-4.0,0
-9.0,-247.0,-11.0,142.0,21.0,-5.0,0
-9.0,-253.0,-10.0,135.0,21.0,-6.0,0
-11.0,-250.0,-19.0,127.0,22.0,-7.0,0
-11.0,-246.0,-13.0,123.0,23.0,-6.0,0
-15.0,-245.0,-15.0,118.0,24.0,-8.0,0
-11.0,-246.0,-16.0,114.0,22.0,-7.0,0
-8.0,-251.0,-20.0,112.0,22.0,-7.0,0
-8.0,-247.0,-18.0,110.0,22.0,-6.0,0
-10.0,-248.0,-12.0,109.0,23.0,-8.0,0
-10.0,-245.0,-16.0,108.0,21.0,-9.0,0
-6.0,-249.0,-21.0,107.0,19.0,-7.0,0
-13.0,-252.0,-15.0,106.0,18.0,-10.0,0
-8.0,-247.0,-16.0,105.0,18.0,-10.0,0
-9.0,-250.0,-18.0,102.0,19.0,-9.0,0
-12.0,-247.0,-13.0,101.0,19.0,-9.0,0
-12.0,-247.0,-19.0,100.0,20.0,-9.0,0
-11.0,-245.0,-9.0,99.0,20.0,-8.0,0
-14.0,-248.0,-14.0,98.0,20.0,-9.0,0
-7.0,-249.0,-13.0,98.0,20.0,-8.0,0
-8.0,-249.0,-14.0,96.0,21.0,-8.0,0
-12.0,-243.0,-10.0,94.0,21.0,-7.0,0
