ax,ay,az,gx,gy,gz,label
16.0,-220.0,-128.0,-13.0,55.0,11.0,0
16.0,-220.0,-135.0,-14.0,55.0,12.0,0
14.0,-222.0,-134.0,-17.0,55.0,12.0,0
15.0,-220.0,-132.0,-19.0,53.0,12.0,0
13.0,-220.0,-132.0,-20.0,53.0,12.0,0
12.0,-224.0,-130.0,-22.0,53.0,11.0,0
12.0,-218.0,-132.0,-24.0,52.0,9.0,0
12.0,-218.0,-137.0,-24.0,51.0,10.0,0
13.0,-222.0,-134.0,-25.0,50.0,11.0,0
14.0,-219.0,-133.0,-24.0,50.0,11.0,0
15.0,-218.0,-132.0,-22.0,50.0,9.0,0
14.0,-218.0,-137.0,-19.0,50.0,9.0,0
15.0,-219.0,-132.0,-17.0,50.0,7.0,0
13.0,-221.0,-132.0,-14.0,49.0,8.0,0
15.0,-220.0,-134.0,-12.0,50.0,8.0,0
13.0,-218.0,-135.0,-10.0,50.0,7.0,0
15.0,-220.0,-136.0,-8.0,50.0,7.0,0
14.0,-223.0,-134.0,-8.0,51.0,9.0,0
12.0,-218.0,-134.0,-8.0,50.0,8.0,0
12.0,-218.0,-137.0,-8.0,50.0,10.0,0
14.0,-222.0,-136.0,-8.0,51.0,8.0,0
15.0,-218.0,-131.0,-7.0,52.0,10.0,0
11.0,-216.0,-136.0,-7.0,50.0,10.0,0
12.0,-218.0,-125.0,-7.0,52.0,8.0,0
13.0,-215.0,-139.0,-7.0,53.0,8.0,0
-2.0,-224.0,-138.0,-6.0,52.0,8.0,0
21.0,-231.0,-128.0,-3.0,52.0,7.0,0
11.0,-219.0,-134.0,-3.0,54.0,7.0,0
19.0,-210.0,-132.0,-3.0,54.0,6.0,0
6.0,-223.0,-140.0,-2.0,54.0,6.0,0
10.0,-215.0,-133.0,-1.0,55.0,4.0,0
14.0,-224.0,-130.0,-2.0,54.0,3.0,0
19.0,-208.0,-131.0,-1.0,53.0,3.0,0
13.0,-217.0,-136.0,-2.0,53.0,3.0,0
10.0,-213.0,-139.0,-2.0,54.0,2.0,0
14.0,-221.0,-132.0,-3.0,52.0,2.0,0
11.0,-223.0,-137.0,-1.0,52.0,1.0,0
17.0,-221.0,-136.0,-3.0,53.0,1.0,0
11.0,-229.0,-132.0,-2.0,54.0,1.0,0
1.0,-213.0,-114.0,-3.0,55.0,-1.0,0
13.0,-218.0,-132.0,-2.0,55.0,-2.0,0
15.0,-220.0,-132.0,-2.0,57.0,-3.0,0
11.0,-219.0,-132.0,-2.0,58.0,-6.0,0
15.0,-222.0,-132.0,-1.0,58.0,-5.0,0
13.0,-221.0,-136.0,-1.0,58.0,-8.0,0
18.0,-222.0,-133.0,0.0,59.0,-7.0,0
17.0,-222.0,-136.0,1.0,61.0,-6.0,0
15.0,-218.0,-135.0,5.0,62.0,-6.0,0
17.0,-221.0,-132.0,7.0,64.0,-4.0,0
17.0,-217.0,-147.0,9.0,63.0,-3.0,0
17.0,-220.0,-134.0,9.0,65.0,0.0,0
16.0,-218.0,-132.0,7.0,63.0,1.0,0
14.0,-220.0,-132.0,5.0,65.0,3.0,0
19.0,-218.0,-133.0,0.0,63.0,5.0,0
15.0,-219.0,-135.0,-6.0,64.0,4.0,0
15.0,-220.0,-131.0,-11.0,63.0,3.0,0
17.0,-222.0,-135.0,-16.0,63.0,5.0,0
15.0,-217.0,-130.0,-22.0,65.0,4.0,0
16.0,-219.0,-130.0,-26.0,65.0,4.0,0
16.0,-221.0,-132.0,-28.0,64.0,3.0,0
17.0,-221.0,-133.0,-29.0,64.0,2.0,0
15.0,-220.0,-133.0,-29.0,64.0,2.0,0
13.0,-220.0,-133.0,-29.0,66.0,3.0,0
17.0,-220.0,-137.0,-28.0,64.0,1.0,0
15.0,-217.0,-131.0,-27.0,64.0,1.0,0
12.0,-217.0,-132.0,-25.0,64.0,1.0,0
15.0,-220.0,-132.0,-21.0,62.0,0.0,0
17.0,-220.0,-133.0,-21.0,62.0,-1.0,0
17.0,-220.0,-132.0,-19.0,61.0,-1.0,0
16.0,-219.0,-132.0,-17.0,61.0,-2.0,0
16.0,-218.0,-133.0,-15.0,61.0,-2.0,0
12.0,-220.0,-138.0,-15.0,61.0,-1.0,0
17.0,-218.0,-132.0,-17.0,60.0,-3.0,0
15.0,-221.0,-134.0,-16.0,57.0,-4.0,0
16.0,-222.0,-137.0,-15.0,58.0,-6.0,0
13.0,-219.0,-139.0,-15.0,58.0,-7.0,0
14.0,-218.0,-141.0,-12.0,58.0,-8.0,0
14.0,-220.0,-138.0,-10.0,57.0,-9.0,0
14.0,-220.0,-135.0,-7.0,57.0,-8.0,0
15.0,-221.0,-132.0,-6.0,58.0,-8.0,0
13.0,-217.0,-138.0,-4.0,58.0,-8.0,0
13.0,-218.0,-134.0,-4.0,58.0,-9.0,0
15.0,-221.0,-132.0,-4.0,57.0,-9.0,0
15.0,-221.0,-135.0,-5.0,58.0,-7.0,0
13.0,-219.0,-130.0,-4.0,57.0,-6.0,0
15.0,-219.0,-133.0,-5.0,56.0,-4.0,0
13.0,-223.0,-131.0,-5.0,54.0,-2.0,0
14.0,-220.0,-129.0,-5.0,54.0,-2.0,0
16.0,-221.0,-132.0,-6.0,53.0,0.0,0
16.0,-217.0,-129.0,-7.0,54.0,-1.0,0
15.0,-223.0,-132.0,-9.0,55.0,1.0,0
16.0,-221.0,-130.0,-9.0,56.0,2.0,0
16.0,-223.0,-130.0,-11.0,58.0,2.0,0
15.0,-220.0,-134.0,-12.0,57.0,2.0,0
13.0,-223.0,-129.0,-13.0,58.0,2.0,0
11.0,-223.0,-133.0,-13.0,57.0,2.0,0
16.0,-221.0,-135.0,-15.0,58.0,1.0,0
13.0,-220.0,-132.0,-15.0,58.0,1.0,0
15.0,-221.0,-134.0,-12.0,59.0,0.0,0
15.0,-220.0,-133.0,-11.0,60.0,0.0,0
16.0,-222.0,-130.0,-11.0,59.0,0.0,0
13.0,-219.0,-136.0,-12.0,60.0,-1.0,0
15.0,-220.0,-136.0,-13.0,61.0,-1.0,0
15.0,-220.0,-133.0,-13.0,61.0,-2.0,0
16.0,-222.0,-132.0,-12.0,62.0,-4.0,0
15.0,-221.0,-131.0,-14.0,62.0,-3.0,0
15.0,-220.0,-134.0,-13.0,62.0,-5.0,0
16.0,-220.0,-130.0,-10.0,62.0,-7.0,0
14.0,-220.0,-131.0,-10.0,63.0,-6.0,0
18.0,-220.0,-132.0,-10.0,63.0,-7.0,0
14.0,-217.0,-133.0,-10.0,62.0,-6.0,0
15.0,-218.0,-131.0,-10.0,62.0,-7.0,0
15.0,-220.0,-134.0,-11.0,61.0,-6.0,0
19.0,-221.0,-130.0,-11.0,60.0,-7.0,0
13.0,-220.0,-132.0,-13.0,58.0,-5.0,0
16.0,-220.0,-132.0,-15.0,58.0,-4.0,0
15.0,-221.0,-132.0,-18.0,59.0,-5.0,0
15.0,-222.0,-132.0,-19.0,59.0,-3.0,0
15.0,-218.0,-134.0,-20.0,58.0,-1.0,0
15.0,-218.0,-133.0,-22.0,57.0,-2.0,0
13.0,-221.0,-137.0,-21.0,59.0,0.0,0
14.0,-218.0,-135.0,-21.0,58.0,0.0,0
16.0,-219.0,-132.0,-20.0,58.0,1.0,0
15.0,-221.0,-132.0,-20.0,60.0,1.0,0
16.0,-220.0,-133.0,-20.0,60.0,2.0,0
14.0,-218.0,-139.0,-16.0,60.0,2.0,0
19.0,-222.0,-133.0,-17.0,60.0,2.0,0
15.0,-219.0,-139.0,-16.0,63.0,2.0,0
14.0,-218.0,-134.0,-15.0,63.0,2.0,0
15.0,-219.0,-130.0,-15.0,63.0,1.0,0
13.0,-218.0,-133.0,-15.0,64.0,2.0,0
15.0,-218.0,-130.0,-15.0,63.0,1.0,0
14.0,-224.0,-132.0,-13.0,65.0,2.0,0
16.0,-222.0,-135.0,-15.0,65.0,2.0,0
13.0,-216.0,-135.0,-14.0,64.0,2.0,0
14.0,-219.0,-136.0,-16.0,65.0,2.0,0
15.0,-222.0,-136.0,-18.0,65.0,2.0,0
14.0,-221.0,-134.0,-18.0,63.0,2.0,0
11.0,-223.0,-135.0,-20.0,63.0,1.0,0
14.0,-222.0,-132.0,-21.0,62.0,1.0,0
13.0,-222.0,-128.0,-23.0,61.0,0.0,0
12.0,-221.0,-130.0,-23.0,61.0,-2.0,0
12.0,-221.0,-136.0,-23.0,61.0,-1.0,0
15.0,-223.0,-132.0,-23.0,61.0,-4.0,0
11.0,-222.0,-134.0,-23.0,59.0,-4.0,0
15.0,-223.0,-133.0,-22.0,57.0,-6.0,0
13.0,-222.0,-132.0,-19.0,58.0,-5.0,0
14.0,-222.0,-135.0,-17.0,57.0,-5.0,0
14.0,-222.0,-131.0,-13.0,57.0,-4.0,0
13.0,-223.0,-133.0,-11.0,56.0,-5.0,0
14.0,-220.0,-128.0,-8.0,55.0,-5.0,0
10.0,-218.0,-130.0,-6.0,56.0,-6.0,0
13.0,-221.0,-131.0,-7.0,54.0,-5.0,0
17.0,-223.0,-137.0,-6.0,53.0,-8.0,0
16.0,-221.0,-129.0,-6.0,53.0,-6.0,0
14.0,-220.0,-132.0,-7.0,53.0,-9.0,0
13.0,-218.0,-135.0,-10.0,53.0,-8.0,0
16.0,-219.0,-133.0,-11.0,54.0,-8.0,0
14.0,-220.0,-133.0,-11.0,54.0,-7.0,0
14.0,-222.0,-132.0,-12.0,52.0,-7.0,0
15.0,-220.0,-132.0,-11.0,52.0,-5.0,0
14.0,-220.0,-134.0,-12.0,54.0,-5.0,0
16.0,-221.0,-134.0,-14.0,56.0,-2.0,0
14.0,-217.0,-140.0,-15.0,55.0,-1.0,0
14.0,-221.0,-134.0,-16.0,56.0,1.0,0
17.0,-223.0,-133.0,-18.0,55.0,0.0,0
15.0,-222.0,-132.0,-20.0,58.0,2.0,0
17.0,-221.0,-136.0,-20.0,58.0,1.0,0
16.0,-222.0,-130.0,-21.0,60.0,3.0,0
16.0,-220.0,-134.0,-21.0,59.0,2.0,0
17.0,-224.0,-133.0,-20.0,61.0,3.0,0
17.0,-224.0,-131.0,-19.0,61.0,1.0,0
18.0,-222.0,-133.0,-16.0,62.0,1.0,0
15.0,-220.0,-135.0,-13.0,64.0,0.0,0
17.0,-221.0,-133.0,-11.0,63.0,2.0,0
15.0,-219.0,-134.0,-9.0,64.0,1.0,0
15.0,-218.0,-130.0,-7.0,63.0,1.0,0
16.0,-219.0,-130.0,-5.0,62.0,0.0,0
16.0,-217.0,-131.0,-4.0,63.0,2.0,0
18.0,-220.0,-132.0,-4.0,63.0,2.0,0
16.0,-220.0,-131.0,-4.0,63.0,2.0,0
18.0,-218.0,-133.0,-5.0,63.0,2.0,0
16.0,-219.0,-133.0,-6.0,63.0,4.0,0
13.0,-218.0,-134.0,-10.0,61.0,2.0,0
14.0,-219.0,-135.0,-13.0,61.0,5.0,0
16.0,-218.0,-133.0,-16.0,60.0,4.0,0
16.0,-219.0,-136.0,-20.0,60.0,5.0,0
16.0,-222.0,-132.0,-23.0,58.0,4.0,0
13.0,-219.0,-134.0,-26.0,58.0,3.0,0
16.0,-223.0,-130.0,-27.0,58.0,2.0,0
14.0,-221.0,-132.0,-26.0,58.0,2.0,0
12.0,-218.0,-135.0,-26.0,60.0,0.0,0
15.0,-221.0,-133.0,-24.0,60.0,-1.0,0
12.0,-220.0,-134.0,-22.0,60.0,-3.0,0
13.0,-221.0,-135.0,-19.0,61.0,-1.0,0
13.0,-218.0,-137.0,-19.0,62.0,-3.0,0
13.0,-222.0,-134.0,-18.0,62.0,-1.0,0
14.0,-218.0,-130.0,-18.0,62.0,-2.0,0
12.0,-221.0,-131.0,-15.0,61.0,-2.0,0
14.0,-220.0,-134.0,-14.0,60.0,-1.0,0
14.0,-218.0,-136.0,-13.0,61.0,1.0,0
17.0,-221.0,-138.0,-13.0,59.0,2.0,0
13.0,-222.0,-133.0,-13.0,60.0,2.0,0
14.0,-220.0,-134.0,-15.0,59.0,2.0,0
14.0,-220.0,-135.0,-17.0,58.0,3.0,0
14.0,-222.0,-133.0,-19.0,59.0,2.0,0
12.0,-222.0,-137.0,-19.0,59.0,2.0,0
14.0,-221.0,-134.0,-16.0,59.0,-2.0,0
13.0,-221.0,-136.0,-13.0,60.0,0.0,0
12.0,-219.0,-138.0,-12.0,58.0,-1.0,0
13.0,-220.0,-134.0,-7.0,59.0,-3.0,0
13.0,-219.0,-131.0,-5.0,58.0,-4.0,0
12.0,-223.0,-130.0,-2.0,56.0,-3.0,0
15.0,-225.0,-132.0,-1.0,55.0,-4.0,0
15.0,-222.0,-133.0,0.0,56.0,-2.0,0
12.0,-222.0,-132.0,2.0,56.0,-3.0,0
13.0,-219.0,-134.0,5.0,57.0,0.0,0
11.0,-219.0,-133.0,6.0,55.0,0.0,0
14.0,-221.0,-130.0,7.0,56.0,2.0,0
12.0,-221.0,-130.0,7.0,56.0,1.0,0
15.0,-222.0,-130.0,3.0,55.0,5.0,0
14.0,-217.0,-132.0,-4.0,56.0,4.0,0
14.0,-221.0,-134.0,-5.0,56.0,6.0,0
15.0,-219.0,-133.0,-8.0,56.0,7.0,0
15.0,-220.0,-131.0,-8.0,56.0,9.0,0
16.0,-223.0,-133.0,-10.0,58.0,6.0,0
16.0,-219.0,-137.0,-10.0,59.0,8.0,0
17.0,-224.0,-131.0,-11.0,61.0,5.0,0
15.0,-220.0,-127.0,-12.0,63.0,5.0,0
15.0,-219.0,-136.0,-15.0,64.0,3.0,0
15.0,-221.0,-133.0,-15.0,63.0,4.0,0
13.0,-217.0,-135.0,-17.0,64.0,1.0,0
16.0,-219.0,-135.0,-19.0,62.0,2.0,0
14.0,-220.0,-133.0,-20.0,64.0,1.0,0
14.0,-218.0,-135.0,-19.0,63.0,2.0,0
17.0,-221.0,-132.0,-19.0,63.0,0.0,0
15.0,-223.0,-134.0,-18.0,63.0,0.0,0
15.0,-220.0,-136.0,-16.0,63.0,-2.0,0
14.0,-222.0,-129.0,-14.0,63.0,-2.0,0
13.0,-220.0,-133.0,-12.0,62.0,-5.0,0
15.0,-223.0,-132.0,-12.0,63.0,-5.0,0
12.0,-221.0,-130.0,-9.0,63.0,-8.0,0
16.0,-220.0,-134.0,-9.0,62.0,-7.0,0
13.0,-221.0,-133.0,-7.0,61.0,-8.0,0
14.0,-218.0,-134.0,-7.0,60.0,-5.0,0
14.0,-220.0,-132.0,-6.0,61.0,-5.0,0
15.0,-218.0,-131.0,-6.0,61.0,-3.0,0
18.0,-220.0,-129.0,-6.0,61.0,-4.0,0
16.0,-222.0,-129.0,-9.0,61.0,0.0,0
14.0,-222.0,-133.0,-11.0,59.0,0.0,0
15.0,-219.0,-132.0,-12.0,59.0,3.0,0
16.0,-221.0,-135.0,-13.0,59.0,3.0,0
12.0,-220.0,-132.0,-14.0,59.0,5.0,0
17.0,-224.0,-133.0,-16.0,59.0,4.0,0
12.0,-221.0,-133.0,-15.0,60.0,7.0,0
14.0,-225.0,-136.0,-14.0,59.0,6.0,0
14.0,-220.0,-132.0,-13.0,58.0,8.0,0
12.0,-220.0,-134.0,-11.0,58.0,7.0,0
16.0,-220.0,-136.0,-9.0,58.0,9.0,0
14.0,-223.0,-133.0,-9.0,56.0,6.0,0
15.0,-222.0,-135.0,-7.0,56.0,7.0,0
16.0,-221.0,-134.0,-8.0,58.0,4.0,0
15.0,-219.0,-132.0,-11.0,60.0,4.0,0
14.0,-220.0,-134.0,-12.0,60.0,1.0,0
13.0,-219.0,-134.0,-15.0,59.0,2.0,0
16.0,-218.0,-133.0,-20.0,60.0,1.0,0
22.0,-217.0,-127.0,-25.0,60.0,0.0,0
10.0,-215.0,-139.0,-30.0,59.0,-3.0,0
11.0,-214.0,-139.0,-35.0,58.0,0.0,0
16.0,-224.0,-132.0,-39.0,57.0,-2.0,0
5.0,-220.0,-136.0,-41.0,57.0,0.0,0
24.0,-217.0,-132.0,-41.0,55.0,-2.0,0
6.0,-225.0,-139.0,-43.0,54.0,1.0,0
15.0,-213.0,-132.0,-44.0,54.0,-1.0,0
12.0,-216.0,-135.0,-43.0,54.0,1.0,0
14.0,-222.0,-125.0,-41.0,54.0,0.0,0
15.0,-211.0,-130.0,-42.0,55.0,2.0,0
26.0,-224.0,-127.0,-39.0,55.0,0.0,0
20.0,-222.0,-125.0,-38.0,56.0,2.0,0
16.0,-226.0,-130.0,-37.0,57.0,-1.0,0
7.0,-219.0,-137.0,-35.0,58.0,0.0,0
13.0,-207.0,-137.0,-34.0,58.0,-3.0,0
12.0,-212.0,-136.0,-33.0,58.0,-3.0,0
20.0,-224.0,-139.0,-30.0,60.0,-5.0,0
-6.0,-223.0,-127.0,-28.0,60.0,-4.0,0
13.0,-218.0,-134.0,-26.0,59.0,-5.0,0
13.0,-220.0,-135.0,-26.0,60.0,-3.0,0
14.0,-219.0,-137.0,-26.0,59.0,-6.0,0
13.0,-221.0,-134.0,-27.0,59.0,-4.0,0
14.0,-216.0,-132.0,-30.0,60.0,-7.0,0
9.0,-227.0,-135.0,-31.0,59.0,-4.0,0
12.0,-218.0,-135.0,-33.0,59.0,-5.0,0
2.0,-222.0,-142.0,-33.0,59.0,-4.0,0
13.0,-226.0,-133.0,-32.0,58.0,-7.0,0
13.0,-218.0,-130.0,-33.0,59.0,-5.0,0
14.0,-225.0,-138.0,-32.0,59.0,-6.0,0
10.0,-219.0,-134.0,-30.0,58.0,-4.0,0
12.0,-220.0,-137.0,-29.0,58.0,-5.0,0
13.0,-215.0,-139.0,-28.0,59.0,-4.0,0
7.0,-218.0,-135.0,-24.0,61.0,-7.0,0
21.0,-222.0,-130.0,-22.0,61.0,-4.0,0
17.0,-221.0,-138.0,-19.0,62.0,-6.0,0
12.0,-215.0,-123.0,-19.0,63.0,-4.0,0
20.0,-213.0,-135.0,-19.0,63.0,-5.0,0
15.0,-219.0,-132.0,-22.0,64.0,-2.0,0
2.0,-216.0,-125.0,-21.0,63.0,-4.0,0
18.0,-221.0,-135.0,-24.0,63.0,-1.0,0
16.0,-219.0,-138.0,-23.0,63.0,-1.0,0
13.0,-219.0,-131.0,-23.0,63.0,0.0,0
14.0,-221.0,-131.0,-25.0,63.0,-2.0,0
13.0,-216.0,-133.0,-27.0,62.0,-1.0,0
19.0,-218.0,-133.0,-28.0,63.0,-4.0,0
15.0,-218.0,-137.0,-29.0,62.0,-1.0,0
15.0,-217.0,-136.0,-28.0,63.0,-2.0,0
10.0,-219.0,-130.0,-29.0,61.0,-1.0,0
11.0,-220.0,-138.0,-30.0,61.0,-1.0,0
23.0,-218.0,-127.0,-30.0,61.0,2.0,0
15.0,-223.0,-133.0,-31.0,61.0,-1.0,0
13.0,-217.0,-127.0,-32.0,61.0,3.0,0
17.0,-214.0,-136.0,-32.0,62.0,1.0,0
15.0,-222.0,-139.0,-32.0,60.0,5.0,0
10.0,-220.0,-126.0,-32.0,61.0,3.0,0
12.0,-220.0,-144.0,-32.0,63.0,6.0,0
13.0,-217.0,-129.0,-30.0,63.0,3.0,0
22.0,-217.0,-146.0,-28.0,62.0,6.0,0
20.0,-215.0,-132.0,-28.0,63.0,2.0,0
18.0,-229.0,-138.0,-27.0,63.0,3.0,0
7.0,-217.0,-138.0,-27.0,63.0,0.0,0
16.0,-212.0,-132.0,-27.0,63.0,1.0,0
18.0,-220.0,-133.0,-27.0,63.0,-2.0,0
32.0,-223.0,-131.0,-25.0,63.0,-1.0,0
14.0,-221.0,-131.0,-25.0,62.0,-5.0,0
16.0,-224.0,-133.0,-27.0,62.0,-2.0,0
16.0,-223.0,-133.0,-28.0,62.0,-7.0,0
12.0,-219.0,-132.0,-27.0,63.0,-4.0,0
17.0,-230.0,-138.0,-26.0,63.0,-7.0,0
13.0,-215.0,-138.0,-25.0,62.0,-6.0,0
17.0,-215.0,-132.0,-24.0,61.0,-9.0,0
8.0,-222.0,-126.0,-22.0,60.0,-7.0,0
11.0,-221.0,-134.0,-20.0,59.0,-10.0,0
18.0,-221.0,-147.0,-18.0,58.0,-8.0,0
12.0,-220.0,-143.0,-16.0,58.0,-10.0,0
16.0,-220.0,-135.0,-17.0,59.0,-9.0,0
9.0,-227.0,-132.0,-15.0,57.0,-11.0,0
14.0,-215.0,-126.0,-15.0,57.0,-9.0,0
8.0,-221.0,-127.0,-13.0,58.0,-10.0,0
12.0,-212.0,-135.0,-10.0,57.0,-8.0,0
18.0,-229.0,-127.0,-8.0,58.0,-9.0,0
7.0,-222.0,-135.0,-7.0,57.0,-6.0,0
18.0,-219.0,-138.0,-2.0,57.0,-6.0,0
6.0,-223.0,-124.0,2.0,57.0,-1.0,0
12.0,-218.0,-135.0,6.0,54.0,-2.0,0
13.0,-221.0,-136.0,9.0,56.0,2.0,0
16.0,-223.0,-133.0,11.0,56.0,2.0,0
16.0,-222.0,-130.0,9.0,54.0,4.0,0
16.0,-222.0,-135.0,9.0,56.0,3.0,0
19.0,-222.0,-134.0,8.0,56.0,5.0,0
15.0,-222.0,-131.0,6.0,58.0,4.0,0
13.0,-220.0,-134.0,4.0,59.0,6.0,0
15.0,-221.0,-135.0,2.0,60.0,4.0,0
17.0,-220.0,-135.0,-1.0,61.0,6.0,0
5.0,-219.0,-142.0,-3.0,61.0,4.0,0
11.0,-222.0,-136.0,-6.0,62.0,4.0,0
15.0,-215.0,-125.0,-9.0,61.0,0.0,0
12.0,-218.0,-129.0,-9.0,62.0,1.0,0
11.0,-221.0,-139.0,-10.0,62.0,-4.0,0
8.0,-217.0,-135.0,-10.0,61.0,-4.0,0
15.0,-223.0,-141.0,-7.0,60.0,-8.0,0
5.0,-225.0,-132.0,-5.0,62.0,-7.0,0
17.0,-221.0,-130.0,-2.0,60.0,-12.0,0
15.0,-222.0,-135.0,3.0,60.0,-12.0,0
12.0,-221.0,-139.0,7.0,59.0,-15.0,0
14.0,-218.0,-135.0,10.0,57.0,-13.0,0
12.0,-226.0,-134.0,15.0,57.0,-15.0,0
10.0,-224.0,-128.0,17.0,57.0,-13.0,0
18.0,-211.0,-128.0,20.0,57.0,-15.0,0
14.0,-218.0,-138.0,22.0,57.0,-12.0,0
5.0,-209.0,-130.0,24.0,56.0,-15.0,0
11.0,-218.0,-130.0,24.0,55.0,-12.0,0
14.0,-220.0,-135.0,23.0,54.0,-13.0,0
13.0,-219.0,-131.0,21.0,54.0,-10.0,0
14.0,-219.0,-134.0,19.0,53.0,-11.0,0
12.0,-221.0,-131.0,17.0,53.0,-8.0,0
10.0,-222.0,-133.0,14.0,54.0,-8.0,0
15.0,-220.0,-130.0,9.0,53.0,-5.0,0
12.0,-220.0,-133.0,7.0,53.0,-8.0,0
13.0,-220.0,-134.0,8.0,51.0,-5.0,0
14.0,-224.0,-133.0,8.0,51.0,-6.0,0
14.0,-220.0,-134.0,9.0,49.0,-4.0,0
12.0,-218.0,-134.0,12.0,48.0,-7.0,0
13.0,-217.0,-135.0,15.0,47.0,-4.0,0
11.0,-221.0,-132.0,14.0,47.0,-7.0,0
12.0,-222.0,-136.0,15.0,47.0,-5.0,0
14.0,-219.0,-132.0,15.0,47.0,-8.0,0
13.0,-220.0,-133.0,12.0,47.0,-4.0,0
14.0,-219.0,-135.0,10.0,49.0,-5.0,0
12.0,-218.0,-130.0,6.0,50.0,-2.0,0
14.0,-217.0,-134.0,4.0,50.0,-1.0,0
13.0,-218.0,-132.0,-2.0,52.0,3.0,0
15.0,-216.0,-135.0,-7.0,53.0,2.0,0
11.0,-220.0,-134.0,-10.0,55.0,6.0,0
10.0,-218.0,-133.0,-14.0,57.0,4.0,0
17.0,-219.0,-135.0,-14.0,58.0,8.0,0
13.0,-220.0,-132.0,-13.0,60.0,7.0,0
13.0,-223.0,-132.0,-15.0,61.0,8.0,0
12.0,-222.0,-134.0,-15.0,60.0,5.0,0
13.0,-219.0,-131.0,-15.0,62.0,5.0,0
23.0,-206.0,-120.0,-13.0,61.0,2.0,0
13.0,-220.0,-134.0,-12.0,61.0,3.0,0
14.0,-220.0,-133.0,-10.0,61.0,-1.0,0
12.0,-219.0,-134.0,-9.0,61.0,1.0,0
13.0,-220.0,-135.0,-7.0,61.0,-2.0,0
13.0,-221.0,-136.0,-4.0,61.0,-1.0,0
17.0,-221.0,-132.0,-2.0,63.0,-3.0,0
14.0,-219.0,-132.0,-1.0,62.0,0.0,0
12.0,-219.0,-130.0,-2.0,63.0,-1.0,0
15.0,-222.0,-129.0,-6.0,64.0,3.0,0
16.0,-218.0,-129.0,-10.0,66.0,6.0,0
2.0,-224.0,-128.0,-14.0,70.0,12.0,0
18.0,-217.0,-128.0,-13.0,74.0,13.0,0
14.0,-226.0,-124.0,-9.0,80.0,17.0,0
8.0,-229.0,-140.0,-3.0,87.0,13.0,0
27.0,-226.0,-130.0,7.0,97.0,15.0,0
29.0,-230.0,-132.0,15.0,105.0,9.0,0
32.0,-221.0,-137.0,23.0,110.0,5.0,0
32.0,-217.0,-130.0,29.0,113.0,-6.0,0
31.0,-216.0,-126.0,26.0,111.0,-11.0,0
27.0,-220.0,-117.0,13.0,105.0,-21.0,0
22.0,-231.0,-126.0,-3.0,96.0,-28.0,0
34.0,-223.0,-128.0,-24.0,89.0,-41.0,0
29.0,-242.0,-134.0,-43.0,84.0,-50.0,0
22.0,-240.0,-132.0,-60.0,79.0,-64.0,0
29.0,-235.0,-126.0,-75.0,75.0,-77.0,0
22.0,-226.0,-135.0,-89.0,71.0,-94.0,0
31.0,-221.0,-129.0,-103.0,70.0,-108.0,0
47.0,-225.0,-130.0,-116.0,71.0,-131.0,0
24.0,-228.0,-134.0,-130.0,75.0,-144.0,0
22.0,-226.0,-136.0,-145.0,78.0,-163.0,0
20.0,-223.0,-127.0,-159.0,82.0,-175.0,0
24.0,-224.0,-121.0,-177.0,86.0,-189.0,0
24.0,-239.0,-121.0,-198.0,91.0,-195.0,0
23.0,-231.0,-123.0,-223.0,99.0,-205.0,0
36.0,-224.0,-115.0,-247.0,107.0,-210.0,0
34.0,-217.0,-134.0,-274.0,112.0,-221.0,0
36.0,-222.0,-125.0,-301.0,120.0,-224.0,0
36.0,-215.0,-125.0,-324.0,128.0,-233.0,0
36.0,-217.0,-130.0,-348.0,135.0,-233.0,0
45.0,-219.0,-123.0,-365.0,141.0,-237.0,0
41.0,-212.0,-127.0,-379.0,145.0,-236.0,0
39.0,-216.0,-135.0,-386.0,148.0,-241.0,0
33.0,-216.0,-152.0,-386.0,153.0,-240.0,0
41.0,-218.0,-146.0,-381.0,161.0,-238.0,0
42.0,-216.0,-142.0,-369.0,171.0,-230.0,0
34.0,-222.0,-156.0,-353.0,182.0,-226.0,0
30.0,-215.0,-160.0,-330.0,198.0,-223.0,0
30.0,-216.0,-157.0,-303.0,215.0,-228.0,0
20.0,-229.0,-185.0,-272.0,237.0,-232.0,0
29.0,-211.0,-167.0,-232.0,264.0,-241.0,0
26.0,-212.0,-165.0,-197.0,290.0,-246.0,0
25.0,-209.0,-164.0,-163.0,310.0,-257.0,0
25.0,-202.0,-164.0,-135.0,326.0,-262.0,0
23.0,-203.0,-161.0,-112.0,342.0,-265.0,0
26.0,-202.0,-163.0,-100.0,357.0,-263.0,0
22.0,-202.0,-158.0,-98.0,371.0,-261.0,0
21.0,-200.0,-155.0,-100.0,383.0,-255.0,0
15.0,-198.0,-152.0,-108.0,389.0,-257.0,0
25.0,-199.0,-149.0,-117.0,397.0,-251.0,0
14.0,-208.0,-140.0,-125.0,396.0,-255.0,0
6.0,-199.0,-147.0,-131.0,391.0,-261.0,0
4.0,-203.0,-150.0,-136.0,387.0,-260.0,0
12.0,-205.0,-142.0,-138.0,384.0,-253.0,0
11.0,-197.0,-138.0,-132.0,370.0,-264.0,0
11.0,-202.0,-142.0,-127.0,364.0,-267.0,0
6.0,-217.0,-145.0,-121.0,359.0,-270.0,0
12.0,-211.0,-140.0,-117.0,351.0,-273.0,0
-2.0,-206.0,-125.0,-111.0,343.0,-290.0,0
-7.0,-212.0,-138.0,-105.0,336.0,-297.0,0
1.0,-217.0,-157.0,-103.0,327.0,-311.0,0
7.0,-211.0,-142.0,-109.0,321.0,-320.0,0
-3.0,-226.0,-141.0,-114.0,309.0,-342.0,0
1.0,-220.0,-136.0,-122.0,297.0,-358.0,0
-8.0,-220.0,-136.0,-127.0,286.0,-380.0,0
-10.0,-224.0,-130.0,-135.0,272.0,-394.0,0
-9.0,-224.0,-142.0,-136.0,253.0,-411.0,0
-11.0,-224.0,-143.0,-135.0,231.0,-424.0,0
-10.0,-225.0,-139.0,-132.0,217.0,-437.0,0
-13.0,-224.0,-134.0,-127.0,201.0,-444.0,0
-4.0,-222.0,-132.0,-123.0,178.0,-458.0,0
-10.0,-222.0,-130.0,-123.0,157.0,-465.0,0
-3.0,-224.0,-136.0,-123.0,142.0,-474.0,0
-8.0,-225.0,-134.0,-123.0,124.0,-476.0,0
-5.0,-224.0,-135.0,-123.0,109.0,-481.0,0
-2.0,-223.0,-135.0,-124.0,98.0,-483.0,0
-3.0,-224.0,-135.0,-121.0,85.0,-495.0,0
-3.0,-225.0,-134.0,-118.0,75.0,-497.0,0
-1.0,-222.0,-140.0,-115.0,66.0,-507.0,0
-1.0,-221.0,-142.0,-115.0,62.0,-512.0,0
8.0,-219.0,-148.0,-117.0,56.0,-528.0,0
4.0,-222.0,-148.0,-119.0,54.0,-542.0,0
7.0,-222.0,-148.0,-126.0,60.0,-553.0,0
13.0,-217.0,-145.0,-142.0,66.0,-565.0,0
11.0,-214.0,-148.0,-161.0,70.0,-586.0,0
16.0,-219.0,-151.0,-184.0,80.0,-605.0,0
19.0,-220.0,-156.0,-211.0,95.0,-627.0,0
20.0,-219.0,-154.0,-241.0,111.0,-642.0,0
19.0,-220.0,-154.0,-269.0,123.0,-665.0,0
23.0,-225.0,-150.0,-301.0,135.0,-689.0,0
20.0,-226.0,-150.0,-334.0,143.0,-716.0,0
21.0,-223.0,-148.0,-366.0,147.0,-750.0,0
24.0,-223.0,-153.0,-395.0,152.0,-781.0,0
33.0,-223.0,-154.0,-409.0,158.0,-805.0,0
38.0,-221.0,-152.0,-416.0,167.0,-826.0,0
43.0,-218.0,-159.0,-414.0,178.0,-837.0,0
44.0,-216.0,-155.0,-406.0,185.0,-845.0,0
48.0,-213.0,-159.0,-396.0,193.0,-850.0,0
52.0,-212.0,-156.0,-389.0,199.0,-857.0,0
53.0,-209.0,-165.0,-381.0,204.0,-853.0,0
60.0,-207.0,-166.0,-372.0,208.0,-850.0,0
63.0,-208.0,-163.0,-353.0,208.0,-843.0,0
71.0,-207.0,-167.0,-325.0,214.0,-834.0,0
78.0,-207.0,-167.0,-282.0,218.0,-826.0,0
80.0,-208.0,-165.0,-242.0,215.0,-825.0,0
78.0,-206.0,-161.0,-210.0,215.0,-823.0,0
81.0,-208.0,-159.0,-191.0,214.0,-832.0,0
84.0,-208.0,-152.0,-176.0,217.0,-844.0,0
91.0,-210.0,-150.0,-159.0,216.0,-861.0,0
85.0,-212.0,-144.0,-143.0,218.0,-872.0,0
85.0,-209.0,-141.0,-123.0,217.0,-891.0,0
84.0,-209.0,-139.0,-96.0,215.0,-907.0,0
79.0,-211.0,-137.0,-69.0,214.0,-929.0,0
75.0,-213.0,-135.0,-49.0,215.0,-948.0,0
74.0,-206.0,-144.0,-44.0,222.0,-974.0,0
72.0,-205.0,-142.0,-45.0,236.0,-996.0,0
72.0,-197.0,-148.0,-49.0,260.0,-1019.0,0
72.0,-198.0,-148.0,-61.0,288.0,-1043.0,0
77.0,-194.0,-149.0,-80.0,319.0,-1069.0,0
81.0,-192.0,-154.0,-96.0,348.0,-1089.0,0
85.0,-190.0,-153.0,-111.0,372.0,-1105.0,0
85.0,-183.0,-152.0,-117.0,391.0,-1111.0,0
93.0,-179.0,-151.0,-118.0,406.0,-1114.0,0
97.0,-177.0,-152.0,-122.0,419.0,-1107.0,0
104.0,-179.0,-149.0,-129.0,422.0,-1095.0,0
109.0,-179.0,-150.0,-149.0,424.0,-1081.0,0
111.0,-177.0,-148.0,-170.0,417.0,-1079.0,0
116.0,-176.0,-149.0,-193.0,413.0,-1063.0,0
119.0,-174.0,-147.0,-215.0,410.0,-1050.0,0
119.0,-171.0,-147.0,-231.0,404.0,-1036.0,0
121.0,-171.0,-149.0,-246.0,400.0,-1024.0,0
126.0,-166.0,-145.0,-265.0,396.0,-1007.0,0
125.0,-167.0,-149.0,-292.0,401.0,-998.0,0
126.0,-161.0,-146.0,-330.0,414.0,-987.0,0
126.0,-157.0,-143.0,-382.0,430.0,-977.0,0
130.0,-158.0,-143.0,-430.0,450.0,-970.0,0
133.0,-152.0,-139.0,-479.0,474.0,-970.0,0
135.0,-148.0,-140.0,-528.0,497.0,-964.0,0
136.0,-150.0,-139.0,-572.0,514.0,-958.0,0
140.0,-149.0,-142.0,-608.0,526.0,-948.0,0
142.0,-147.0,-147.0,-629.0,537.0,-940.0,0
144.0,-145.0,-147.0,-634.0,548.0,-924.0,0
147.0,-143.0,-150.0,-622.0,554.0,-908.0,0
145.0,-146.0,-151.0,-604.0,556.0,-894.0,0
149.0,-141.0,-156.0,-583.0,561.0,-887.0,0
143.0,-144.0,-161.0,-566.0,567.0,-885.0,0
141.0,-145.0,-164.0,-551.0,574.0,-885.0,0
140.0,-147.0,-162.0,-531.0,579.0,-889.0,0
147.0,-145.0,-159.0,-509.0,579.0,-901.0,0
142.0,-146.0,-163.0,-485.0,573.0,-912.0,0
144.0,-142.0,-156.0,-461.0,567.0,-919.0,0
146.0,-144.0,-158.0,-445.0,560.0,-927.0,0
147.0,-142.0,-154.0,-438.0,555.0,-937.0,0
143.0,-137.0,-150.0,-434.0,551.0,-946.0,0
143.0,-146.0,-154.0,-437.0,549.0,-956.0,0
146.0,-140.0,-146.0,-444.0,548.0,-967.0,0
146.0,-142.0,-148.0,-448.0,545.0,-982.0,0
145.0,-141.0,-148.0,-449.0,540.0,-1000.0,0
148.0,-142.0,-145.0,-441.0,534.0,-1018.0,0
153.0,-139.0,-150.0,-429.0,532.0,-1031.0,0
151.0,-136.0,-147.0,-410.0,530.0,-1045.0,0
151.0,-132.0,-150.0,-387.0,533.0,-1054.0,0
157.0,-132.0,-153.0,-366.0,540.0,-1062.0,0
157.0,-132.0,-146.0,-354.0,548.0,-1063.0,0
156.0,-133.0,-148.0,-351.0,554.0,-1067.0,0
159.0,-132.0,-149.0,-359.0,565.0,-1068.0,0
160.0,-135.0,-150.0,-368.0,575.0,-1071.0,0
165.0,-133.0,-146.0,-380.0,584.0,-1078.0,0
163.0,-133.0,-149.0,-385.0,594.0,-1086.0,0
169.0,-134.0,-144.0,-385.0,603.0,-1096.0,0
171.0,-133.0,-144.0,-387.0,613.0,-1104.0,0
174.0,-131.0,-143.0,-385.0,620.0,-1107.0,0
175.0,-125.0,-142.0,-385.0,625.0,-1115.0,0
174.0,-123.0,-139.0,-384.0,628.0,-1123.0,0
177.0,-119.0,-139.0,-383.0,633.0,-1133.0,0
176.0,-116.0,-136.0,-380.0,636.0,-1143.0,0
175.0,-112.0,-134.0,-380.0,638.0,-1157.0,0
173.0,-108.0,-137.0,-383.0,639.0,-1173.0,0
177.0,-112.0,-134.0,-401.0,644.0,-1194.0,0
178.0,-109.0,-134.0,-432.0,643.0,-1223.0,0
182.0,-109.0,-140.0,-469.0,644.0,-1248.0,0
185.0,-107.0,-144.0,-511.0,643.0,-1270.0,0
190.0,-106.0,-152.0,-550.0,643.0,-1291.0,0
191.0,-107.0,-156.0,-576.0,648.0,-1298.0,0
189.0,-106.0,-164.0,-595.0,661.0,-1299.0,0
194.0,-101.0,-173.0,-602.0,686.0,-1284.0,0
196.0,-100.0,-178.0,-595.0,733.0,-1255.0,0
203.0,-96.0,-174.0,-568.0,775.0,-1213.0,0
210.0,-100.0,-175.0,-523.0,818.0,-1165.0,0
214.0,-103.0,-171.0,-465.0,862.0,-1122.0,0
221.0,-98.0,-166.0,-394.0,906.0,-1086.0,0
221.0,-101.0,-162.0,-315.0,943.0,-1058.0,0
224.0,-99.0,-158.0,-233.0,973.0,-1034.0,0
224.0,-95.0,-152.0,-153.0,993.0,-1009.0,0
226.0,-89.0,-150.0,-90.0,1009.0,-977.0,0
221.0,-80.0,-146.0,-48.0,1026.0,-940.0,0
222.0,-76.0,-142.0,-12.0,1039.0,-908.0,0
212.0,-70.0,-138.0,10.0,1048.0,-881.0,0
205.0,-67.0,-132.0,23.0,1051.0,-854.0,0
199.0,-61.0,-135.0,26.0,1052.0,-836.0,0
189.0,-54.0,-136.0,17.0,1053.0,-820.0,0
179.0,-50.0,-131.0,-3.0,1054.0,-803.0,0
179.0,-48.0,-135.0,-36.0,1053.0,-786.0,0
177.0,-49.0,-133.0,-84.0,1054.0,-767.0,0
177.0,-45.0,-140.0,-143.0,1054.0,-740.0,0
176.0,-43.0,-139.0,-211.0,1062.0,-708.0,0
179.0,-46.0,-139.0,-285.0,1061.0,-664.0,0
183.0,-50.0,-138.0,-368.0,1059.0,-629.0,0
189.0,-54.0,-133.0,-425.0,1054.0,-595.0,0
198.0,-58.0,-139.0,-467.0,1043.0,-568.0,0
201.0,-60.0,-138.0,-498.0,1037.0,-545.0,0
203.0,-64.0,-141.0,-519.0,1033.0,-525.0,0
205.0,-67.0,-145.0,-527.0,1025.0,-509.0,0
205.0,-69.0,-142.0,-524.0,1023.0,-502.0,0
206.0,-75.0,-140.0,-513.0,1019.0,-497.0,0
209.0,-80.0,-140.0,-491.0,1021.0,-500.0,0
210.0,-87.0,-142.0,-468.0,1026.0,-503.0,0
210.0,-89.0,-137.0,-440.0,1022.0,-510.0,0
214.0,-88.0,-135.0,-416.0,1028.0,-523.0,0
211.0,-92.0,-137.0,-389.0,1034.0,-535.0,0
209.0,-91.0,-137.0,-359.0,1034.0,-545.0,0
214.0,-84.0,-139.0,-324.0,1031.0,-561.0,0
215.0,-85.0,-129.0,-290.0,1031.0,-576.0,0
216.0,-82.0,-124.0,-258.0,1038.0,-590.0,0
211.0,-80.0,-123.0,-228.0,1038.0,-596.0,0
209.0,-73.0,-120.0,-207.0,1034.0,-602.0,0
208.0,-72.0,-116.0,-197.0,1030.0,-603.0,0
201.0,-73.0,-113.0,-201.0,1022.0,-604.0,0
205.0,-68.0,-111.0,-205.0,991.0,-607.0,0
210.0,-68.0,-107.0,-216.0,962.0,-611.0,0
216.0,-62.0,-106.0,-228.0,938.0,-608.0,0
218.0,-66.0,-101.0,-236.0,920.0,-607.0,0
224.0,-63.0,-100.0,-238.0,908.0,-610.0,0
217.0,-61.0,-94.0,-242.0,895.0,-612.0,0
217.0,-65.0,-94.0,-245.0,876.0,-609.0,0
218.0,-61.0,-96.0,-248.0,850.0,-610.0,0
219.0,-60.0,-96.0,-243.0,822.0,-606.0,0
218.0,-57.0,-98.0,-236.0,791.0,-599.0,0
228.0,-56.0,-92.0,-228.0,766.0,-588.0,0
227.0,-55.0,-99.0,-223.0,742.0,-579.0,0
230.0,-53.0,-95.0,-218.0,722.0,-565.0,0
228.0,-49.0,-91.0,-217.0,706.0,-555.0,0
233.0,-48.0,-90.0,-215.0,685.0,-544.0,0
236.0,-50.0,-93.0,-209.0,670.0,-545.0,0
237.0,-46.0,-86.0,-200.0,665.0,-540.0,0
241.0,-43.0,-89.0,-193.0,664.0,-538.0,0
240.0,-36.0,-88.0,-188.0,670.0,-534.0,0
241.0,-31.0,-90.0,-190.0,681.0,-527.0,0
240.0,-30.0,-90.0,-204.0,689.0,-511.0,0
242.0,-30.0,-91.0,-216.0,695.0,-500.0,0
240.0,-28.0,-87.0,-223.0,705.0,-486.0,0
240.0,-29.0,-86.0,-224.0,715.0,-471.0,0
239.0,-30.0,-86.0,-224.0,724.0,-453.0,0
240.0,-28.0,-85.0,-218.0,729.0,-438.0,0
239.0,-28.0,-84.0,-213.0,735.0,-420.0,0
235.0,-24.0,-83.0,-207.0,736.0,-405.0,0
239.0,-22.0,-80.0,-206.0,738.0,-389.0,0
241.0,-20.0,-80.0,-209.0,740.0,-370.0,0
221.0,-29.0,-91.0,-220.0,746.0,-346.0,0
243.0,-19.0,-77.0,-230.0,750.0,-327.0,0
243.0,-15.0,-71.0,-241.0,756.0,-308.0,0
244.0,-17.0,-71.0,-247.0,763.0,-297.0,0
240.0,-12.0,-72.0,-253.0,771.0,-284.0,0
242.0,-12.0,-73.0,-260.0,776.0,-269.0,0
245.0,-7.0,-70.0,-264.0,780.0,-255.0,0
245.0,-8.0,-68.0,-262.0,787.0,-241.0,0
254.0,-8.0,-71.0,-250.0,790.0,-227.0,0
265.0,-12.0,-68.0,-234.0,798.0,-218.0,0
265.0,-12.0,-64.0,-217.0,824.0,-201.0,0
271.0,-13.0,-64.0,-195.0,850.0,-189.0,0
271.0,-10.0,-60.0,-178.0,877.0,-173.0,0
271.0,-12.0,-58.0,-164.0,906.0,-160.0,0
279.0,-11.0,-56.0,-148.0,928.0,-151.0,0
273.0,-6.0,-57.0,-127.0,954.0,-152.0,0
273.0,-9.0,-53.0,-105.0,981.0,-149.0,0
276.0,-8.0,-49.0,-86.0,1010.0,-151.0,0
274.0,-4.0,-48.0,-68.0,1038.0,-153.0,0
274.0,-4.0,-44.0,-52.0,1064.0,-159.0,0
274.0,-4.0,-47.0,-41.0,1090.0,-166.0,0
271.0,-1.0,-42.0,-37.0,1116.0,-171.0,0
272.0,-1.0,-38.0,-35.0,1131.0,-176.0,0
270.0,-1.0,-41.0,-35.0,1146.0,-182.0,0
271.0,-3.0,-32.0,-38.0,1161.0,-181.0,0
269.0,-4.0,-33.0,-39.0,1175.0,-187.0,0
271.0,-4.0,-31.0,-37.0,1188.0,-193.0,0
275.0,-4.0,-29.0,-35.0,1202.0,-199.0,0
274.0,-4.0,-25.0,-32.0,1220.0,-204.0,0
275.0,-4.0,-23.0,-27.0,1238.0,-212.0,0
267.0,-4.0,-15.0,-14.0,1253.0,-222.0,0
276.0,-3.0,-18.0,2.0,1271.0,-244.0,0
272.0,1.0,-13.0,28.0,1289.0,-258.0,0
272.0,1.0,-10.0,51.0,1310.0,-271.0,0
272.0,7.0,-10.0,69.0,1328.0,-278.0,0
271.0,7.0,-7.0,83.0,1349.0,-276.0,0
274.0,5.0,-6.0,99.0,1359.0,-266.0,0
264.0,13.0,-1.0,116.0,1360.0,-263.0,0
258.0,13.0,0.0,137.0,1329.0,-254.0,0
251.0,17.0,3.0,158.0,1289.0,-251.0,0
250.0,17.0,-2.0,177.0,1251.0,-238.0,0
253.0,20.0,-1.0,190.0,1223.0,-211.0,0
255.0,19.0,2.0,207.0,1212.0,-180.0,0
245.0,21.0,13.0,226.0,1214.0,-161.0,0
245.0,18.0,16.0,248.0,1190.0,-137.0,0
246.0,18.0,25.0,273.0,1156.0,-114.0,0
249.0,14.0,30.0,299.0,1134.0,-82.0,0
248.0,11.0,34.0,320.0,1125.0,-51.0,0
241.0,9.0,42.0,336.0,1120.0,-19.0,0
242.0,10.0,46.0,348.0,1107.0,6.0,0
238.0,14.0,49.0,354.0,1095.0,35.0,0
238.0,9.0,53.0,356.0,1079.0,68.0,0
231.0,11.0,61.0,357.0,1048.0,107.0,0
229.0,6.0,62.0,352.0,1021.0,127.0,0
232.0,3.0,65.0,343.0,995.0,153.0,0
233.0,5.0,66.0,333.0,985.0,175.0,0
227.0,2.0,70.0,323.0,975.0,199.0,0
223.0,5.0,72.0,310.0,960.0,216.0,0
227.0,4.0,71.0,287.0,925.0,244.0,0
226.0,5.0,73.0,266.0,883.0,269.0,0
228.0,-1.0,71.0,245.0,842.0,292.0,0
224.0,0.0,66.0,229.0,798.0,312.0,0
226.0,5.0,63.0,209.0,747.0,333.0,0
228.0,5.0,64.0,184.0,706.0,340.0,0
226.0,0.0,62.0,161.0,664.0,353.0,0
225.0,2.0,64.0,141.0,626.0,364.0,0
227.0,-2.0,61.0,128.0,586.0,375.0,0
230.0,-2.0,65.0,125.0,550.0,377.0,0
234.0,-3.0,66.0,135.0,518.0,382.0,0
232.0,-5.0,64.0,149.0,490.0,383.0,0
237.0,-5.0,59.0,171.0,463.0,390.0,0
243.0,-11.0,61.0,200.0,439.0,394.0,0
245.0,-17.0,59.0,230.0,414.0,398.0,0
248.0,-20.0,57.0,275.0,379.0,394.0,0
249.0,-28.0,57.0,317.0,346.0,393.0,0
248.0,-31.0,61.0,362.0,308.0,386.0,0
249.0,-40.0,59.0,413.0,272.0,385.0,0
247.0,-48.0,59.0,467.0,242.0,379.0,0
247.0,-49.0,60.0,509.0,216.0,371.0,0
245.0,-57.0,65.0,544.0,194.0,352.0,0
242.0,-59.0,64.0,576.0,167.0,326.0,0
241.0,-61.0,62.0,599.0,135.0,284.0,0
242.0,-66.0,69.0,608.0,92.0,231.0,0
245.0,-68.0,60.0,604.0,34.0,180.0,0
246.0,-69.0,55.0,588.0,-16.0,141.0,0
250.0,-69.0,48.0,561.0,-62.0,102.0,0
245.0,-68.0,40.0,523.0,-101.0,76.0,0
250.0,-68.0,36.0,481.0,-136.0,53.0,0
250.0,-69.0,30.0,432.0,-166.0,40.0,0
247.0,-69.0,23.0,387.0,-183.0,22.0,0
252.0,-69.0,21.0,350.0,-195.0,6.0,0
245.0,-67.0,18.0,325.0,-196.0,-11.0,0
246.0,-67.0,14.0,314.0,-203.0,-22.0,0
248.0,-66.0,12.0,311.0,-201.0,-44.0,0
248.0,-64.0,16.0,326.0,-195.0,-51.0,0
247.0,-59.0,13.0,354.0,-194.0,-56.0,0
249.0,-62.0,10.0,396.0,-192.0,-49.0,0
245.0,-55.0,12.0,450.0,-189.0,-43.0,0
245.0,-51.0,13.0,503.0,-179.0,-31.0,0
244.0,-45.0,18.0,555.0,-169.0,-23.0,0
242.0,-42.0,16.0,600.0,-158.0,-10.0,0
248.0,-42.0,17.0,639.0,-144.0,-4.0,0
245.0,-33.0,21.0,669.0,-134.0,7.0,0
250.0,-29.0,23.0,688.0,-124.0,17.0,0
252.0,-24.0,21.0,700.0,-115.0,30.0,0
256.0,-20.0,25.0,696.0,-110.0,34.0,0
256.0,-16.0,24.0,678.0,-105.0,41.0,0
256.0,-11.0,26.0,652.0,-104.0,42.0,0
258.0,-9.0,24.0,624.0,-98.0,52.0,0
264.0,-5.0,20.0,598.0,-91.0,58.0,0
264.0,-5.0,18.0,573.0,-78.0,65.0,0
266.0,-3.0,15.0,548.0,-60.0,65.0,0
266.0,-4.0,15.0,526.0,-46.0,74.0,0
266.0,-5.0,13.0,510.0,-28.0,87.0,0
266.0,-6.0,15.0,497.0,3.0,100.0,0
270.0,-7.0,17.0,489.0,34.0,104.0,0
267.0,-9.0,12.0,484.0,65.0,102.0,0
266.0,-12.0,15.0,476.0,96.0,86.0,0
262.0,-14.0,17.0,465.0,136.0,72.0,0
263.0,-13.0,18.0,454.0,175.0,49.0,0
255.0,-17.0,20.0,440.0,219.0,27.0,0
257.0,-15.0,22.0,418.0,265.0,0.0,0
253.0,-18.0,30.0,388.0,309.0,-24.0,0
256.0,-23.0,31.0,351.0,342.0,-60.0,0
252.0,-22.0,35.0,300.0,369.0,-86.0,0
254.0,-19.0,32.0,257.0,378.0,-116.0,0
254.0,-20.0,36.0,215.0,380.0,-140.0,0
252.0,-20.0,36.0,176.0,377.0,-164.0,0
255.0,-20.0,36.0,147.0,372.0,-177.0,0
257.0,-17.0,37.0,124.0,366.0,-189.0,0
255.0,-20.0,37.0,117.0,354.0,-183.0,0
256.0,-20.0,35.0,124.0,338.0,-181.0,0
253.0,-22.0,33.0,142.0,329.0,-171.0,0
254.0,-24.0,33.0,169.0,316.0,-166.0,0
253.0,-21.0,34.0,197.0,303.0,-157.0,0
248.0,-19.0,36.0,231.0,290.0,-154.0,0
247.0,-19.0,38.0,256.0,273.0,-144.0,0
250.0,-17.0,34.0,276.0,256.0,-136.0,0
245.0,-17.0,41.0,286.0,246.0,-118.0,0
242.0,-12.0,42.0,292.0,234.0,-103.0,0
239.0,-18.0,50.0,282.0,221.0,-74.0,0
240.0,-19.0,56.0,280.0,196.0,-51.0,0
241.0,-23.0,51.0,279.0,163.0,-27.0,0
241.0,-23.0,53.0,281.0,125.0,-12.0,0
240.0,-25.0,53.0,289.0,77.0,6.0,0
241.0,-25.0,59.0,307.0,32.0,14.0,0
240.0,-24.0,56.0,325.0,-5.0,18.0,0
244.0,-30.0,53.0,343.0,-37.0,14.0,0
247.0,-31.0,52.0,358.0,-57.0,9.0,0
241.0,-31.0,55.0,368.0,-69.0,-8.0,0
244.0,-32.0,51.0,372.0,-83.0,-21.0,0
241.0,-34.0,49.0,370.0,-99.0,-41.0,0
240.0,-29.0,48.0,363.0,-118.0,-57.0,0
239.0,-27.0,51.0,348.0,-135.0,-76.0,0
239.0,-27.0,51.0,327.0,-146.0,-93.0,0
241.0,-23.0,49.0,302.0,-149.0,-111.0,0
241.0,-17.0,44.0,276.0,-145.0,-120.0,0
244.0,-15.0,44.0,239.0,-135.0,-130.0,0
240.0,-4.0,44.0,191.0,-127.0,-135.0,0
240.0,0.0,43.0,131.0,-120.0,-138.0,0
244.0,6.0,46.0,64.0,-113.0,-142.0,0
246.0,10.0,42.0,-4.0,-104.0,-153.0,0
250.0,16.0,48.0,-75.0,-95.0,-163.0,0
253.0,18.0,47.0,-142.0,-84.0,-175.0,0
255.0,13.0,46.0,-195.0,-75.0,-183.0,0
255.0,18.0,47.0,-244.0,-67.0,-193.0,0
254.0,17.0,51.0,-270.0,-61.0,-196.0,0
257.0,12.0,50.0,-281.0,-60.0,-199.0,0
259.0,10.0,51.0,-284.0,-63.0,-196.0,0
259.0,5.0,45.0,-271.0,-68.0,-197.0,0
257.0,0.0,44.0,-250.0,-79.0,-195.0,0
258.0,-4.0,45.0,-220.0,-88.0,-197.0,0
257.0,-7.0,48.0,-187.0,-99.0,-196.0,0
257.0,-7.0,38.0,-152.0,-108.0,-199.0,0
256.0,-8.0,40.0,-115.0,-115.0,-196.0,0
255.0,-13.0,36.0,-84.0,-125.0,-197.0,0
252.0,-14.0,31.0,-52.0,-131.0,-192.0,0
254.0,-15.0,28.0,-29.0,-132.0,-188.0,0
248.0,-15.0,25.0,-11.0,-131.0,-180.0,0
253.0,-12.0,27.0,4.0,-130.0,-174.0,0
252.0,-14.0,26.0,13.0,-124.0,-161.0,0
248.0,-12.0,23.0,19.0,-117.0,-150.0,0
247.0,-13.0,23.0,21.0,-109.0,-134.0,0
248.0,-14.0,23.0,17.0,-100.0,-122.0,0
249.0,-10.0,24.0,14.0,-91.0,-103.0,0
249.0,-9.0,22.0,3.0,-78.0,-86.0,0
250.0,-10.0,22.0,-12.0,-71.0,-70.0,0
251.0,-8.0,23.0,-24.0,-65.0,-55.0,0
252.0,-7.0,28.0,-38.0,-62.0,-39.0,0
255.0,-9.0,25.0,-49.0,-60.0,-28.0,0
252.0,-7.0,24.0,-55.0,-60.0,-16.0,0
258.0,-8.0,24.0,-57.0,-60.0,-9.0,0
255.0,-7.0,23.0,-54.0,-62.0,-3.0,0
254.0,-8.0,23.0,-49.0,-62.0,-3.0,0
256.0,-8.0,32.0,-43.0,-63.0,-2.0,0
255.0,-8.0,27.0,-32.0,-66.0,-11.0,0
255.0,-8.0,24.0,-18.0,-73.0,-17.0,0
253.0,-11.0,28.0,-8.0,-79.0,-25.0,0
252.0,-5.0,29.0,-3.0,-88.0,-30.0,0
254.0,-10.0,26.0,-1.0,-96.0,-39.0,0
253.0,-14.0,28.0,-2.0,-105.0,-45.0,0
253.0,-14.0,32.0,-6.0,-111.0,-53.0,0
251.0,-13.0,30.0,-10.0,-115.0,-59.0,0
251.0,-15.0,32.0,-16.0,-122.0,-67.0,0
253.0,-15.0,31.0,-20.0,-128.0,-72.0,0
251.0,-12.0,30.0,-22.0,-133.0,-81.0,0
250.0,-13.0,27.0,-21.0,-140.0,-84.0,0
252.0,-9.0,26.0,-17.0,-146.0,-89.0,0
251.0,-10.0,27.0,-12.0,-151.0,-94.0,0
254.0,-11.0,23.0,-4.0,-158.0,-99.0,0
252.0,-6.0,24.0,7.0,-163.0,-101.0,0
253.0,-5.0,22.0,19.0,-168.0,-106.0,0
252.0,-4.0,21.0,27.0,-172.0,-110.0,0
253.0,-3.0,26.0,35.0,-172.0,-118.0,0
252.0,-3.0,22.0,43.0,-173.0,-122.0,0
253.0,-2.0,25.0,44.0,-173.0,-126.0,0
252.0,2.0,19.0,47.0,-174.0,-130.0,0
252.0,2.0,20.0,42.0,-175.0,-132.0,0
253.0,2.0,25.0,34.0,-172.0,-131.0,0
255.0,-1.0,25.0,25.0,-169.0,-132.0,0
253.0,7.0,25.0,11.0,-166.0,-130.0,0
256.0,5.0,23.0,-3.0,-162.0,-130.0,0
252.0,7.0,25.0,-18.0,-160.0,-124.0,0
253.0,6.0,24.0,-34.0,-158.0,-124.0,0
256.0,7.0,27.0,-48.0,-154.0,-118.0,0
258.0,5.0,22.0,-58.0,-150.0,-114.0,0
260.0,7.0,27.0,-71.0,-149.0,-104.0,0
262.0,3.0,22.0,-85.0,-149.0,-100.0,0
261.0,4.0,23.0,-95.0,-151.0,-92.0,0
263.0,4.0,19.0,-103.0,-155.0,-89.0,0
266.0,2.0,20.0,-110.0,-160.0,-83.0,0
264.0,-2.0,15.0,-112.0,-164.0,-84.0,0
263.0,-2.0,11.0,-114.0,-168.0,-85.0,0
266.0,-3.0,14.0,-109.0,-168.0,-88.0,0
263.0,-4.0,12.0,-101.0,-165.0,-87.0,0
264.0,-4.0,9.0,-93.0,-161.0,-91.0,0
257.0,-5.0,7.0,-83.0,-154.0,-91.0,0
258.0,-5.0,5.0,-69.0,-143.0,-90.0,0
258.0,-5.0,3.0,-60.0,-132.0,-89.0,0
255.0,-8.0,6.0,-48.0,-120.0,-86.0,0
260.0,-8.0,4.0,-37.0,-104.0,-81.0,0
258.0,-8.0,3.0,-27.0,-89.0,-74.0,0
256.0,-6.0,3.0,-13.0,-71.0,-67.0,0
257.0,-7.0,3.0,1.0,-56.0,-59.0,0
257.0,-5.0,4.0,17.0,-43.0,-50.0,0
260.0,-4.0,5.0,36.0,-30.0,-42.0,0
258.0,-4.0,3.0,58.0,-17.0,-33.0,0
260.0,-2.0,4.0,85.0,-5.0,-27.0,0
261.0,-2.0,0.0,107.0,6.0,-20.0,0
258.0,1.0,3.0,127.0,17.0,-14.0,0
260.0,0.0,4.0,146.0,25.0,-10.0,0
263.0,5.0,4.0,164.0,33.0,-8.0,0
260.0,7.0,4.0,175.0,41.0,-5.0,0
262.0,11.0,7.0,182.0,49.0,-4.0,0
264.0,14.0,10.0,185.0,59.0,0.0,0
265.0,16.0,6.0,183.0,66.0,3.0,0
263.0,16.0,7.0,176.0,74.0,8.0,0
262.0,17.0,9.0,166.0,82.0,17.0,0
260.0,15.0,12.0,148.0,90.0,24.0,0
263.0,17.0,7.0,135.0,96.0,33.0,0
263.0,19.0,8.0,117.0,102.0,41.0,0
262.0,14.0,11.0,101.0,108.0,48.0,0
263.0,11.0,7.0,84.0,113.0,54.0,0
261.0,11.0,7.0,68.0,118.0,59.0,0
260.0,8.0,11.0,57.0,121.0,66.0,0
259.0,6.0,8.0,43.0,125.0,69.0,0
260.0,2.0,12.0,32.0,129.0,74.0,0
259.0,-1.0,9.0,22.0,136.0,78.0,0
259.0,-2.0,12.0,12.0,142.0,83.0,0
255.0,-2.0,11.0,5.0,147.0,86.0,0
259.0,-3.0,10.0,0.0,151.0,87.0,0
258.0,-5.0,10.0,-8.0,157.0,90.0,0
257.0,-4.0,10.0,-12.0,165.0,93.0,0
257.0,-5.0,9.0,-16.0,171.0,95.0,0
257.0,-4.0,10.0,-19.0,181.0,95.0,0
254.0,-3.0,9.0,-20.0,189.0,95.0,0
254.0,-4.0,12.0,-19.0,197.0,96.0,0
254.0,-4.0,13.0,-19.0,204.0,95.0,0
256.0,-1.0,12.0,-16.0,212.0,95.0,0
255.0,-4.0,15.0,-14.0,219.0,96.0,0
256.0,-1.0,16.0,-13.0,225.0,94.0,0
256.0,-3.0,16.0,-12.0,230.0,93.0,0
252.0,-4.0,18.0,-10.0,233.0,91.0,0
254.0,-4.0,19.0,-11.0,237.0,88.0,0
256.0,-4.0,20.0,-10.0,240.0,87.0,0
253.0,-5.0,18.0,-11.0,241.0,85.0,0
256.0,-9.0,20.0,-13.0,242.0,83.0,0
254.0,-5.0,23.0,-13.0,242.0,79.0,0
254.0,-4.0,21.0,-15.0,240.0,74.0,0
255.0,-7.0,21.0,-14.0,236.0,71.0,0
254.0,-8.0,24.0,-10.0,229.0,66.0,0
252.0,-5.0,24.0,-5.0,226.0,64.0,0
255.0,-8.0,23.0,1.0,221.0,60.0,0
256.0,-5.0,22.0,5.0,217.0,55.0,0
255.0,-8.0,20.0,10.0,214.0,51.0,0
255.0,-12.0,16.0,18.0,211.0,47.0,0
252.0,-7.0,18.0,26.0,208.0,44.0,0
253.0,-12.0,19.0,35.0,205.0,41.0,0
252.0,-14.0,19.0,45.0,203.0,39.0,0
253.0,-14.0,23.0,53.0,200.0,41.0,0
255.0,-14.0,22.0,60.0,198.0,39.0,0
250.0,-12.0,19.0,66.0,197.0,41.0,0
251.0,-12.0,24.0,74.0,196.0,41.0,0
251.0,-13.0,22.0,77.0,196.0,42.0,0
251.0,-7.0,21.0,79.0,195.0,41.0,0
253.0,-9.0,24.0,80.0,192.0,42.0,0
252.0,-8.0,25.0,79.0,190.0,42.0,0
251.0,-7.0,25.0,77.0,187.0,42.0,0
252.0,-5.0,27.0,74.0,182.0,41.0,0
253.0,-9.0,24.0,70.0,179.0,43.0,0
250.0,-6.0,26.0,66.0,175.0,40.0,0
250.0,-4.0,25.0,61.0,171.0,41.0,0
250.0,-5.0,22.0,57.0,167.0,39.0,0
249.0,-5.0,27.0,53.0,163.0,39.0,0
248.0,-4.0,25.0,50.0,159.0,34.0,0
249.0,-4.0,20.0,48.0,158.0,32.0,0
253.0,-4.0,26.0,47.0,159.0,28.0,0
249.0,-6.0,28.0,48.0,159.0,24.0,0
250.0,-5.0,29.0,47.0,158.0,17.0,0
250.0,-3.0,27.0,44.0,159.0,14.0,0
248.0,-5.0,28.0,42.0,160.0,9.0,0
251.0,-4.0,28.0,38.0,159.0,6.0,0
250.0,-4.0,28.0,33.0,155.0,3.0,0
249.0,-3.0,29.0,27.0,151.0,2.0,0
253.0,-4.0,31.0,21.0,147.0,-1.0,0
253.0,-4.0,29.0,16.0,143.0,-1.0,0
252.0,-4.0,33.0,12.0,136.0,-1.0,0
250.0,-3.0,34.0,6.0,132.0,0.0,0
252.0,-4.0,30.0,4.0,126.0,-3.0,0
254.0,-4.0,30.0,1.0,118.0,-1.0,0
252.0,-4.0,31.0,-1.0,112.0,-5.0,0
252.0,-5.0,33.0,-1.0,105.0,-6.0,0
253.0,-4.0,31.0,0.0,98.0,-10.0,0
252.0,-6.0,29.0,0.0,94.0,-11.0,0
255.0,-7.0,30.0,1.0,87.0,-15.0,0
251.0,-4.0,31.0,3.0,81.0,-16.0,0
250.0,-4.0,28.0,3.0,75.0,-19.0,0
251.0,-5.0,28.0,3.0,70.0,-17.0,0
255.0,-5.0,27.0,2.0,67.0,-18.0,0
250.0,-5.0,30.0,1.0,63.0,-15.0,0
251.0,-4.0,35.0,2.0,62.0,-15.0,0
250.0,-4.0,34.0,1.0,60.0,-12.0,0
252.0,-7.0,27.0,2.0,59.0,-11.0,0
253.0,-6.0,31.0,3.0,59.0,-6.0,0
250.0,-7.0,30.0,3.0,58.0,-6.0,0
253.0,-4.0,28.0,3.0,57.0,-5.0,0
251.0,-2.0,29.0,4.0,55.0,-5.0,0
253.0,-8.0,26.0,3.0,55.0,-5.0,0
250.0,-4.0,30.0,4.0,55.0,-6.0,0
252.0,-5.0,30.0,2.0,52.0,-4.0,0
252.0,-8.0,30.0,0.0,50.0,-7.0,0
251.0,-5.0,26.0,-4.0,49.0,-7.0,0
253.0,-3.0,31.0,-6.0,46.0,-9.0,0
250.0,-3.0,28.0,-9.0,45.0,-8.0,0
253.0,-2.0,24.0,-10.0,42.0,-11.0,0
252.0,-4.0,28.0,-12.0,40.0,-10.0,0
253.0,-6.0,29.0,-14.0,39.0,-10.0,0
252.0,-4.0,27.0,-12.0,38.0,-10.0,0
253.0,-6.0,24.0,-8.0,37.0,-10.0,0
252.0,-6.0,26.0,-9.0,37.0,-9.0,0
251.0,-5.0,23.0,-9.0,36.0,-11.0,0
252.0,-7.0,25.0,-5.0,39.0,-8.0,0
253.0,-6.0,26.0,-5.0,40.0,-8.0,0
251.0,-6.0,21.0,-5.0,44.0,-4.0,0
254.0,-7.0,23.0,-4.0,47.0,-5.0,0
256.0,-9.0,21.0,-4.0,48.0,-2.0,0
254.0,-7.0,25.0,-6.0,53.0,-1.0,0
254.0,-11.0,23.0,-5.0,58.0,2.0,0
251.0,-7.0,25.0,-3.0,62.0,2.0,0
254.0,-11.0,26.0,-2.0,66.0,4.0,0
257.0,-9.0,21.0,-3.0,72.0,3.0,0
248.0,-4.0,25.0,0.0,78.0,5.0,0
254.0,-6.0,26.0,-1.0,81.0,3.0,0
253.0,-6.0,26.0,-4.0,87.0,5.0,0
253.0,-8.0,28.0,-7.0,93.0,2.0,0
252.0,-5.0,23.0,-11.0,97.0,6.0,0
253.0,-4.0,28.0,-16.0,102.0,4.0,0
251.0,-6.0,30.0,-24.0,108.0,5.0,0
251.0,-6.0,27.0,-29.0,110.0,3.0,0
251.0,-6.0,25.0,-34.0,114.0,3.0,0
254.0,-5.0,25.0,-39.0,119.0,-1.0,0
252.0,-7.0,25.0,-44.0,124.0,1.0,0
252.0,-4.0,27.0,-47.0,129.0,-1.0,0
256.0,-5.0,25.0,-52.0,133.0,2.0,0
253.0,-4.0,26.0,-56.0,140.0,0.0,0
256.0,-5.0,26.0,-58.0,148.0,3.0,0
254.0,-3.0,25.0,-60.0,154.0,0.0,0
254.0,-4.0,27.0,-64.0,163.0,2.0,0
253.0,-4.0,28.0,-69.0,168.0,1.0,0
256.0,-4.0,28.0,-72.0,174.0,2.0,0
255.0,-4.0,28.0,-80.0,177.0,0.0,0
254.0,-3.0,27.0,-90.0,177.0,1.0,0
256.0,-3.0,29.0,-97.0,172.0,-4.0,0
256.0,-2.0,31.0,-103.0,164.0,-3.0,0
258.0,-4.0,30.0,-109.0,154.0,-7.0,0
258.0,-4.0,31.0,-112.0,145.0,-3.0,0
257.0,-3.0,29.0,-112.0,134.0,-2.0,0
261.0,-4.0,28.0,-104.0,126.0,4.0,0
258.0,-6.0,23.0,-92.0,117.0,3.0,0
259.0,-4.0,25.0,-78.0,110.0,9.0,0
259.0,-9.0,27.0,-58.0,105.0,8.0,0
258.0,-5.0,22.0,-37.0,101.0,11.0,0
258.0,-6.0,23.0,-17.0,100.0,11.0,0
256.0,-6.0,23.0,-1.0,100.0,14.0,0
257.0,-7.0,28.0,10.0,102.0,11.0,0
255.0,-5.0,25.0,15.0,105.0,14.0,0
256.0,-7.0,25.0,19.0,109.0,11.0,0
254.0,-4.0,29.0,17.0,113.0,13.0,0
253.0,-4.0,28.0,13.0,117.0,11.0,0
255.0,-4.0,32.0,9.0,118.0,13.0,0
252.0,-4.0,31.0,3.0,118.0,12.0,0
255.0,-6.0,31.0,0.0,118.0,15.0,0
252.0,-4.0,29.0,-3.0,118.0,14.0,0
253.0,-6.0,30.0,-6.0,116.0,18.0,0
254.0,-6.0,31.0,-7.0,115.0,15.0,0
250.0,-5.0,31.0,-8.0,114.0,16.0,0
251.0,-4.0,34.0,-7.0,114.0,14.0,0
253.0,-7.0,32.0,-8.0,114.0,16.0,0
253.0,-4.0,31.0,-11.0,115.0,14.0,0
253.0,-5.0,32.0,-12.0,116.0,15.0,0
253.0,-4.0,31.0,-15.0,116.0,12.0,0
254.0,-4.0,30.0,-19.0,117.0,15.0,0
253.0,-5.0,31.0,-23.0,117.0,12.0,0
254.0,-4.0,33.0,-26.0,116.0,14.0,0
255.0,-4.0,31.0,-30.0,114.0,13.0,0
257.0,-7.0,31.0,-32.0,115.0,17.0,0
255.0,-5.0,32.0,-35.0,111.0,14.0,0
252.0,-6.0,29.0,-36.0,111.0,16.0,0
250.0,-4.0,32.0,-37.0,111.0,14.0,0
252.0,-7.0,34.0,-35.0,110.0,17.0,0
251.0,-4.0,36.0,-33.0,111.0,16.0,0
249.0,-6.0,33.0,-35.0,109.0,17.0,0
251.0,-4.0,35.0,-36.0,111.0,16.0,0
251.0,-5.0,35.0,-35.0,113.0,17.0,0
252.0,-3.0,35.0,-34.0,114.0,15.0,0
254.0,-4.0,33.0,-32.0,112.0,15.0,0
250.0,-5.0,33.0,-31.0,112.0,12.0,0
252.0,-5.0,33.0,-32.0,110.0,13.0,0
252.0,-4.0,33.0,-29.0,109.0,10.0,0
252.0,-6.0,33.0,-27.0,106.0,13.0,0
253.0,-5.0,33.0,-25.0,105.0,9.0,0
254.0,-9.0,32.0,-26.0,101.0,10.0,0
252.0,-5.0,37.0,-27.0,97.0,7.0,0
247.0,-6.0,37.0,-28.0,95.0,11.0,0
248.0,-9.0,33.0,-31.0,92.0,8.0,0
250.0,-10.0,33.0,-34.0,87.0,10.0,0
250.0,-6.0,33.0,-35.0,84.0,6.0,0
250.0,-9.0,35.0,-37.0,81.0,8.0,0
252.0,-8.0,37.0,-37.0,77.0,7.0,0
253.0,-9.0,34.0,-40.0,73.0,11.0,0
251.0,-10.0,36.0,-39.0,67.0,8.0,0
250.0,-11.0,34.0,-39.0,62.0,11.0,0
251.0,-12.0,35.0,-39.0,55.0,8.0,0
252.0,-10.0,38.0,-38.0,49.0,7.0,0
254.0,-10.0,33.0,-39.0,44.0,2.0,0
254.0,-8.0,31.0,-39.0,40.0,1.0,0
250.0,-9.0,39.0,-41.0,36.0,-2.0,0
252.0,-11.0,34.0,-42.0,32.0,-4.0,0
255.0,-9.0,36.0,-44.0,28.0,-9.0,0
250.0,-7.0,33.0,-47.0,26.0,-9.0,0
252.0,-6.0,41.0,-48.0,22.0,-15.0,0
250.0,-4.0,32.0,-53.0,21.0,-16.0,0
252.0,-9.0,35.0,-58.0,19.0,-20.0,0
251.0,-8.0,34.0,-61.0,15.0,-22.0,0
251.0,-8.0,32.0,-66.0,13.0,-28.0,0
254.0,-5.0,35.0,-70.0,11.0,-29.0,0
255.0,-6.0,31.0,-73.0,8.0,-34.0,0
248.0,-7.0,33.0,-77.0,6.0,-34.0,0
252.0,-4.0,36.0,-79.0,4.0,-37.0,0
251.0,-7.0,33.0,-83.0,1.0,-37.0,0
248.0,-6.0,33.0,-86.0,0.0,-42.0,0
254.0,-8.0,33.0,-91.0,-3.0,-41.0,0
253.0,-4.0,33.0,-94.0,-5.0,-43.0,0
253.0,-5.0,31.0,-97.0,-8.0,-41.0,0
250.0,-6.0,34.0,-99.0,-10.0,-44.0,0
251.0,-9.0,32.0,-101.0,-14.0,-45.0,0
252.0,-6.0,30.0,-103.0,-15.0,-47.0,0
251.0,-4.0,33.0,-102.0,-16.0,-45.0,0
254.0,-5.0,32.0,-100.0,-17.0,-46.0,0
250.0,-4.0,32.0,-99.0,-18.0,-43.0,0
252.0,-8.0,30.0,-99.0,-18.0,-45.0,0
251.0,-6.0,35.0,-98.0,-17.0,-45.0,0
254.0,-8.0,33.0,-99.0,-14.0,-48.0,0
252.0,-7.0,35.0,-100.0,-13.0,-46.0,0
250.0,-5.0,30.0,-98.0,-12.0,-48.0,0
250.0,-5.0,34.0,-100.0,-12.0,-46.0,0
253.0,-4.0,29.0,-101.0,-11.0,-47.0,0
256.0,-4.0,29.0,-102.0,-10.0,-46.0,0
252.0,-4.0,29.0,-103.0,-8.0,-49.0,0
252.0,-6.0,30.0,-102.0,-5.0,-49.0,0
251.0,-5.0,27.0,-102.0,-2.0,-50.0,0
255.0,-6.0,31.0,-101.0,1.0,-50.0,0
254.0,-4.0,32.0,-103.0,2.0,-54.0,0
253.0,-5.0,28.0,-107.0,4.0,-53.0,0
254.0,-4.0,30.0,-113.0,4.0,-55.0,0
254.0,-4.0,31.0,-119.0,2.0,-54.0,0
256.0,-4.0,28.0,-124.0,2.0,-55.0,0
254.0,-4.0,30.0,-125.0,2.0,-51.0,0
255.0,-5.0,29.0,-126.0,2.0,-52.0,0
254.0,-4.0,29.0,-124.0,0.0,-48.0,0
257.0,-5.0,28.0,-124.0,-1.0,-47.0,0
255.0,-7.0,30.0,-125.0,-1.0,-43.0,0
254.0,-6.0,25.0,-125.0,-2.0,-41.0,0
253.0,-4.0,24.0,-125.0,-3.0,-39.0,0
253.0,-4.0,28.0,-124.0,-6.0,-37.0,0
255.0,-5.0,27.0,-123.0,-5.0,-35.0,0
255.0,-5.0,27.0,-117.0,-5.0,-37.0,0
256.0,-6.0,23.0,-113.0,-6.0,-35.0,0
253.0,-4.0,30.0,-109.0,-4.0,-38.0,0
254.0,-4.0,28.0,-104.0,-4.0,-38.0,0
255.0,-3.0,27.0,-102.0,-1.0,-41.0,0
254.0,-6.0,26.0,-100.0,2.0,-39.0,0
254.0,-6.0,27.0,-98.0,2.0,-41.0,0
256.0,-3.0,26.0,-97.0,3.0,-40.0,0
254.0,-4.0,29.0,-97.0,5.0,-40.0,0
254.0,-4.0,25.0,-96.0,5.0,-36.0,0
253.0,-2.0,29.0,-95.0,6.0,-35.0,0
253.0,-4.0,25.0,-91.0,9.0,-32.0,0
255.0,-3.0,23.0,-88.0,12.0,-31.0,0
251.0,-4.0,31.0,-82.0,13.0,-26.0,0
254.0,-4.0,28.0,-78.0,14.0,-26.0,0
254.0,-5.0,24.0,-73.0,16.0,-22.0,0
253.0,-4.0,28.0,-69.0,15.0,-23.0,0
254.0,-4.0,23.0,-66.0,15.0,-20.0,0
255.0,-4.0,23.0,-64.0,17.0,-18.0,0
257.0,-4.0,27.0,-61.0,19.0,-17.0,0
254.0,-6.0,25.0,-60.0,20.0,-18.0,0
253.0,-4.0,28.0,-56.0,22.0,-15.0,0
255.0,-4.0,26.0,-53.0,24.0,-15.0,0
255.0,-2.0,23.0,-51.0,26.0,-12.0,0
252.0,-6.0,27.0,-47.0,29.0,-13.0,0
254.0,-4.0,24.0,-47.0,30.0,-12.0,0
253.0,-3.0,26.0,-43.0,32.0,-13.0,0
251.0,-4.0,25.0,-41.0,33.0,-13.0,0
255.0,-4.0,24.0,-40.0,34.0,-14.0,0
252.0,-7.0,23.0,-39.0,36.0,-12.0,0
255.0,-4.0,25.0,-38.0,37.0,-10.0,0
254.0,-4.0,19.0,-35.0,38.0,-9.0,0
255.0,-4.0,25.0,-32.0,41.0,-9.0,0
254.0,-3.0,26.0,-30.0,43.0,-6.0,0
251.0,-4.0,26.0,-29.0,46.0,-6.0,0
253.0,-2.0,21.0,-24.0,51.0,-1.0,0
254.0,-5.0,22.0,-23.0,54.0,-1.0,0
255.0,-4.0,25.0,-19.0,58.0,1.0,0
255.0,-4.0,22.0,-16.0,60.0,2.0,0
252.0,-5.0,23.0,-12.0,63.0,5.0,0
254.0,-5.0,19.0,-9.0,67.0,6.0,0
253.0,-2.0,21.0,-7.0,71.0,8.0,0
254.0,-4.0,24.0,-5.0,74.0,9.0,0
257.0,-4.0,20.0,-3.0,79.0,12.0,0
254.0,-3.0,19.0,-1.0,82.0,13.0,0
257.0,-4.0,21.0,0.0,86.0,16.0,0
254.0,-4.0,24.0,1.0,90.0,20.0,0
254.0,-3.0,26.0,2.0,92.0,22.0,0
252.0,-4.0,23.0,6.0,97.0,24.0,0
256.0,-4.0,22.0,9.0,100.0,26.0,0
254.0,-5.0,23.0,11.0,102.0,26.0,0
252.0,-4.0,25.0,13.0,105.0,28.0,0
256.0,-4.0,26.0,14.0,108.0,28.0,0
255.0,-5.0,26.0,14.0,110.0,28.0,0
254.0,-7.0,24.0,13.0,111.0,26.0,0
256.0,-9.0,26.0,15.0,111.0,27.0,0
255.0,-5.0,26.0,14.0,110.0,27.0,0
255.0,-4.0,27.0,15.0,109.0,27.0,0
256.0,-6.0,25.0,16.0,106.0,25.0,0
254.0,-5.0,25.0,18.0,101.0,24.0,0
258.0,-7.0,26.0,20.0,100.0,24.0,0
257.0,-7.0,24.0,20.0,98.0,24.0,0
256.0,-10.0,25.0,21.0,94.0,23.0,0
256.0,-7.0,23.0,23.0,93.0,24.0,0
252.0,-4.0,21.0,22.0,93.0,23.0,0
254.0,-8.0,25.0,23.0,95.0,23.0,0
253.0,-6.0,25.0,21.0,95.0,24.0,0
252.0,-4.0,31.0,20.0,96.0,23.0,0
254.0,-7.0,29.0,18.0,95.0,21.0,0
252.0,-5.0,30.0,15.0,95.0,21.0,0
253.0,-6.0,27.0,13.0,94.0,20.0,0
252.0,-4.0,27.0,9.0,94.0,20.0,0
251.0,-5.0,27.0,8.0,93.0,19.0,0
253.0,-4.0,32.0,6.0,92.0,20.0,0
253.0,-5.0,32.0,2.0,91.0,18.0,0
254.0,-7.0,29.0,-2.0,88.0,18.0,0
252.0,-3.0,30.0,-5.0,84.0,17.0,0
256.0,-4.0,30.0,-10.0,82.0,17.0,0
254.0,-5.0,29.0,-13.0,82.0,15.0,0
250.0,-4.0,30.0,-14.0,81.0,13.0,0
250.0,-4.0,29.0,-16.0,80.0,11.0,0
255.0,-3.0,29.0,-16.0,80.0,11.0,0
249.0,-4.0,28.0,-14.0,80.0,10.0,0
254.0,-4.0,30.0,-12.0,81.0,8.0,0
251.0,-4.0,33.0,-12.0,81.0,7.0,0
253.0,-4.0,27.0,-9.0,81.0,6.0,0
254.0,-6.0,28.0,-7.0,83.0,5.0,0
254.0,-4.0,29.0,-5.0,83.0,7.0,0
251.0,-6.0,29.0,-3.0,83.0,7.0,0
252.0,-4.0,29.0,-2.0,83.0,5.0,0
254.0,-7.0,27.0,-2.0,82.0,6.0,0
253.0,-4.0,24.0,-4.0,81.0,7.0,0
253.0,-7.0,27.0,-3.0,78.0,7.0,0
249.0,-4.0,32.0,-7.0,74.0,7.0,0
254.0,-7.0,26.0,-7.0,73.0,7.0,0
252.0,-7.0,26.0,-8.0,71.0,9.0,0
252.0,-7.0,30.0,-7.0,70.0,9.0,0
251.0,-5.0,28.0,-8.0,66.0,10.0,0
256.0,-4.0,27.0,-8.0,65.0,9.0,0
252.0,-6.0,30.0,-7.0,62.0,9.0,0
254.0,-7.0,30.0,-7.0,63.0,9.0,0
252.0,-5.0,29.0,-6.0,63.0,8.0,0
252.0,-6.0,29.0,-6.0,62.0,6.0,0
253.0,-8.0,28.0,-5.0,64.0,6.0,0
252.0,-6.0,26.0,-6.0,65.0,5.0,0
252.0,-4.0,28.0,-7.0,66.0,4.0,0
254.0,-5.0,31.0,-8.0,67.0,4.0,0
253.0,-6.0,28.0,-11.0,66.0,3.0,0
252.0,-7.0,32.0,-14.0,65.0,3.0,0
254.0,-7.0,31.0,-15.0,65.0,1.0,0
254.0,-7.0,27.0,-16.0,63.0,1.0,0
254.0,-5.0,29.0,-18.0,63.0,1.0,0
254.0,-7.0,29.0,-18.0,60.0,1.0,0
256.0,-4.0,23.0,-18.0,59.0,0.0,0
254.0,-8.0,30.0,-18.0,57.0,1.0,0
252.0,-7.0,27.0,-17.0,55.0,2.0,0
253.0,-7.0,27.0,-15.0,54.0,4.0,0
251.0,-4.0,28.0,-12.0,54.0,7.0,0
256.0,-5.0,27.0,-9.0,53.0,11.0,0
255.0,-5.0,24.0,-4.0,50.0,13.0,0
253.0,-4.0,22.0,-1.0,49.0,16.0,0
255.0,-5.0,27.0,3.0,50.0,18.0,0
257.0,-5.0,26.0,5.0,52.0,22.0,0
254.0,-4.0,25.0,6.0,52.0,26.0,0
254.0,-2.0,28.0,9.0,53.0,30.0,0
256.0,-4.0,21.0,11.0,56.0,33.0,0
255.0,-4.0,29.0,10.0,57.0,37.0,0
258.0,-3.0,27.0,13.0,58.0,41.0,0
258.0,-4.0,25.0,14.0,58.0,48.0,0
255.0,-3.0,24.0,17.0,56.0,50.0,0
255.0,-4.0,28.0,22.0,53.0,55.0,0
258.0,-6.0,27.0,28.0,51.0,57.0,0
255.0,-6.0,25.0,38.0,47.0,60.0,0
258.0,-4.0,22.0,49.0,44.0,60.0,0
259.0,-4.0,26.0,62.0,43.0,60.0,0
259.0,-4.0,27.0,74.0,40.0,58.0,0
259.0,-6.0,27.0,83.0,37.0,55.0,0
257.0,-3.0,32.0,85.0,34.0,50.0,0
256.0,-4.0,32.0,81.0,26.0,46.0,0
253.0,-3.0,35.0,64.0,15.0,38.0,0
255.0,-3.0,36.0,41.0,7.0,40.0,0
258.0,1.0,33.0,21.0,-2.0,37.0,0
259.0,-3.0,36.0,-1.0,-10.0,37.0,0
255.0,-3.0,33.0,-24.0,-20.0,32.0,0
255.0,-2.0,35.0,-51.0,-32.0,27.0,0
259.0,-4.0,36.0,-78.0,-44.0,20.0,0
255.0,-3.0,33.0,-109.0,-54.0,14.0,0
258.0,-4.0,36.0,-139.0,-67.0,9.0,0
258.0,-6.0,29.0,-162.0,-78.0,6.0,0
261.0,-10.0,25.0,-180.0,-89.0,-2.0,0
261.0,-12.0,21.0,-188.0,-96.0,-4.0,0
256.0,-11.0,24.0,-187.0,-99.0,-9.0,0
257.0,-13.0,20.0,-178.0,-99.0,-12.0,0
258.0,-17.0,25.0,-169.0,-92.0,-20.0,0
257.0,-17.0,19.0,-151.0,-84.0,-25.0,0
254.0,-18.0,20.0,-133.0,-74.0,-34.0,0
254.0,-18.0,22.0,-113.0,-67.0,-41.0,0
252.0,-16.0,18.0,-94.0,-59.0,-51.0,0
251.0,-20.0,20.0,-75.0,-50.0,-60.0,0
251.0,-19.0,24.0,-59.0,-44.0,-71.0,0
250.0,-17.0,21.0,-41.0,-39.0,-75.0,0
248.0,-16.0,23.0,-28.0,-38.0,-79.0,0
252.0,-16.0,30.0,-24.0,-45.0,-81.0,0
251.0,-13.0,37.0,-28.0,-54.0,-86.0,0
255.0,-16.0,38.0,-38.0,-76.0,-90.0,0
256.0,-12.0,39.0,-55.0,-110.0,-100.0,0
261.0,-6.0,33.0,-84.0,-146.0,-107.0,0
265.0,-3.0,25.0,-125.0,-178.0,-123.0,0
272.0,-2.0,19.0,-174.0,-209.0,-139.0,0
277.0,0.0,16.0,-232.0,-231.0,-166.0,0
280.0,8.0,5.0,-298.0,-252.0,-185.0,0
286.0,13.0,0.0,-348.0,-248.0,-204.0,0
282.0,19.0,-4.0,-389.0,-228.0,-208.0,0
273.0,27.0,-6.0,-419.0,-198.0,-210.0,0
271.0,29.0,-10.0,-439.0,-163.0,-208.0,0
267.0,31.0,-9.0,-451.0,-109.0,-202.0,0
258.0,30.0,1.0,-446.0,-52.0,-188.0,0
249.0,31.0,4.0,-429.0,2.0,-171.0,0
245.0,30.0,6.0,-402.0,49.0,-141.0,0
240.0,29.0,11.0,-374.0,98.0,-99.0,0
242.0,24.0,12.0,-341.0,156.0,-54.0,0
237.0,22.0,12.0,-324.0,202.0,-17.0,0
236.0,17.0,13.0,-320.0,233.0,20.0,0
239.0,10.0,17.0,-329.0,252.0,51.0,0
239.0,5.0,17.0,-343.0,267.0,83.0,0
241.0,-2.0,16.0,-358.0,274.0,106.0,0
243.0,-6.0,17.0,-377.0,269.0,124.0,0
248.0,-14.0,19.0,-392.0,256.0,129.0,0
255.0,-20.0,20.0,-400.0,244.0,129.0,0
257.0,-22.0,24.0,-407.0,231.0,112.0,0
261.0,-25.0,25.0,-415.0,216.0,85.0,0
261.0,-31.0,28.0,-426.0,213.0,43.0,0
257.0,-33.0,29.0,-426.0,220.0,6.0,0
254.0,-35.0,32.0,-430.0,215.0,-37.0,0
252.0,-31.0,39.0,-435.0,197.0,-79.0,0
251.0,-30.0,38.0,-441.0,178.0,-126.0,0
246.0,-29.0,43.0,-445.0,166.0,-167.0,0
243.0,-30.0,48.0,-444.0,143.0,-206.0,0
239.0,-26.0,52.0,-434.0,122.0,-240.0,0
238.0,-22.0,52.0,-414.0,108.0,-274.0,0
229.0,-22.0,60.0,-381.0,98.0,-307.0,0
228.0,-15.0,60.0,-338.0,86.0,-334.0,0
226.0,-16.0,63.0,-298.0,68.0,-356.0,0
222.0,-13.0,69.0,-259.0,48.0,-378.0,0
219.0,-10.0,68.0,-226.0,30.0,-386.0,0
222.0,-9.0,67.0,-205.0,5.0,-395.0,0
217.0,-9.0,66.0,-191.0,-23.0,-399.0,0
219.0,-4.0,69.0,-179.0,-53.0,-404.0,0
221.0,-5.0,61.0,-170.0,-84.0,-403.0,0
224.0,-6.0,61.0,-158.0,-116.0,-403.0,0
227.0,-9.0,58.0,-138.0,-159.0,-397.0,0
229.0,-6.0,63.0,-96.0,-192.0,-395.0,0
232.0,-3.0,57.0,-54.0,-226.0,-390.0,0
233.0,-3.0,59.0,-10.0,-258.0,-390.0,0
239.0,-1.0,57.0,31.0,-292.0,-381.0,0
240.0,-3.0,49.0,67.0,-331.0,-370.0,0
242.0,-2.0,55.0,96.0,-374.0,-352.0,0
242.0,-1.0,55.0,121.0,-416.0,-339.0,0
242.0,-2.0,52.0,144.0,-462.0,-325.0,0
243.0,0.0,55.0,160.0,-507.0,-312.0,0
246.0,-1.0,55.0,169.0,-547.0,-284.0,0
241.0,-1.0,50.0,160.0,-602.0,-264.0,0
242.0,-2.0,48.0,147.0,-650.0,-239.0,0
239.0,0.0,47.0,133.0,-697.0,-214.0,0
238.0,-1.0,45.0,112.0,-738.0,-182.0,0
239.0,2.0,47.0,92.0,-779.0,-155.0,0
236.0,3.0,46.0,75.0,-821.0,-118.0,0
236.0,3.0,44.0,54.0,-865.0,-88.0,0
240.0,-1.0,45.0,36.0,-913.0,-55.0,0
240.0,2.0,44.0,28.0,-955.0,-31.0,0
239.0,3.0,43.0,19.0,-988.0,7.0,0
240.0,1.0,39.0,3.0,-1027.0,40.0,0
242.0,2.0,29.0,-19.0,-1059.0,78.0,0
246.0,2.0,25.0,-52.0,-1090.0,106.0,0
249.0,3.0,22.0,-88.0,-1119.0,140.0,0
253.0,4.0,14.0,-125.0,-1144.0,163.0,0
255.0,6.0,9.0,-162.0,-1158.0,185.0,0
259.0,6.0,6.0,-197.0,-1156.0,198.0,0
262.0,10.0,-3.0,-226.0,-1166.0,209.0,0
266.0,12.0,-13.0,-241.0,-1181.0,200.0,0
273.0,17.0,-21.0,-247.0,-1198.0,185.0,0
273.0,20.0,-24.0,-245.0,-1215.0,162.0,0
273.0,23.0,-32.0,-234.0,-1229.0,136.0,0
275.0,29.0,-34.0,-216.0,-1235.0,108.0,0
273.0,33.0,-35.0,-193.0,-1246.0,79.0,0
277.0,39.0,-43.0,-159.0,-1263.0,43.0,0
278.0,49.0,-50.0,-123.0,-1293.0,22.0,0
277.0,59.0,-64.0,-98.0,-1330.0,10.0,0
280.0,61.0,-61.0,-77.0,-1354.0,11.0,0
275.0,65.0,-68.0,-62.0,-1376.0,15.0,0
280.0,72.0,-74.0,-57.0,-1395.0,34.0,0
278.0,73.0,-76.0,-75.0,-1402.0,52.0,0
280.0,74.0,-79.0,-88.0,-1399.0,70.0,0
279.0,77.0,-82.0,-91.0,-1398.0,85.0,0
278.0,78.0,-85.0,-97.0,-1391.0,117.0,0
274.0,75.0,-84.0,-99.0,-1376.0,150.0,0
273.0,68.0,-85.0,-92.0,-1355.0,184.0,0
267.0,62.0,-85.0,-79.0,-1323.0,212.0,0
263.0,59.0,-84.0,-72.0,-1291.0,240.0,0
262.0,53.0,-81.0,-71.0,-1260.0,262.0,0
257.0,47.0,-74.0,-75.0,-1227.0,291.0,0
254.0,38.0,-77.0,-80.0,-1190.0,311.0,0
252.0,29.0,-79.0,-83.0,-1172.0,327.0,0
251.0,23.0,-77.0,-90.0,-1162.0,333.0,0
248.0,19.0,-81.0,-101.0,-1158.0,344.0,0
250.0,15.0,-78.0,-111.0,-1156.0,343.0,0
244.0,12.0,-78.0,-117.0,-1153.0,346.0,0
243.0,11.0,-80.0,-116.0,-1149.0,345.0,0
243.0,8.0,-79.0,-116.0,-1141.0,354.0,0
242.0,6.0,-76.0,-117.0,-1127.0,360.0,0
243.0,2.0,-73.0,-115.0,-1112.0,372.0,0
246.0,1.0,-73.0,-109.0,-1090.0,386.0,0
246.0,3.0,-72.0,-97.0,-1074.0,408.0,0
250.0,4.0,-70.0,-84.0,-1060.0,434.0,0
250.0,4.0,-67.0,-68.0,-1040.0,468.0,0
253.0,3.0,-74.0,-49.0,-1020.0,500.0,0
253.0,1.0,-73.0,-31.0,-998.0,537.0,0
252.0,4.0,-77.0,-11.0,-973.0,566.0,0
255.0,2.0,-77.0,9.0,-948.0,599.0,0
251.0,0.0,-76.0,27.0,-923.0,631.0,0
249.0,-1.0,-80.0,44.0,-901.0,666.0,0
247.0,-1.0,-82.0,59.0,-875.0,701.0,0
242.0,1.0,-81.0,68.0,-857.0,733.0,0
241.0,-3.0,-88.0,69.0,-841.0,761.0,0
242.0,-3.0,-83.0,63.0,-821.0,791.0,0
237.0,-9.0,-88.0,62.0,-809.0,815.0,0
236.0,-14.0,-96.0,67.0,-800.0,837.0,0
235.0,-14.0,-99.0,73.0,-796.0,851.0,0
230.0,-17.0,-100.0,73.0,-793.0,868.0,0
230.0,-22.0,-100.0,74.0,-788.0,878.0,0
232.0,-29.0,-109.0,75.0,-789.0,888.0,0
228.0,-25.0,-113.0,76.0,-790.0,889.0,0
226.0,-35.0,-116.0,72.0,-792.0,887.0,0
222.0,-37.0,-121.0,70.0,-792.0,878.0,0
221.0,-41.0,-128.0,74.0,-789.0,867.0,0
223.0,-46.0,-130.0,84.0,-789.0,850.0,0
221.0,-51.0,-135.0,90.0,-785.0,837.0,0
217.0,-53.0,-137.0,91.0,-780.0,819.0,0
217.0,-57.0,-139.0,96.0,-775.0,799.0,0
217.0,-58.0,-141.0,104.0,-763.0,774.0,0
216.0,-60.0,-143.0,113.0,-750.0,752.0,0
217.0,-57.0,-140.0,126.0,-733.0,724.0,0
216.0,-57.0,-140.0,138.0,-708.0,710.0,0
218.0,-58.0,-137.0,147.0,-684.0,696.0,0
216.0,-59.0,-136.0,153.0,-666.0,689.0,0
215.0,-57.0,-131.0,159.0,-653.0,684.0,0
216.0,-54.0,-129.0,163.0,-647.0,689.0,0
218.0,-56.0,-127.0,169.0,-654.0,689.0,0
208.0,-55.0,-123.0,176.0,-673.0,697.0,0
208.0,-56.0,-128.0,181.0,-696.0,699.0,0
198.0,-55.0,-131.0,185.0,-722.0,702.0,0
195.0,-55.0,-137.0,184.0,-749.0,703.0,0
193.0,-58.0,-140.0,174.0,-780.0,706.0,0
191.0,-63.0,-138.0,167.0,-813.0,702.0,0
186.0,-62.0,-145.0,163.0,-848.0,686.0,0
183.0,-65.0,-152.0,163.0,-883.0,673.0,0
189.0,-64.0,-150.0,149.0,-887.0,672.0,0
187.0,-66.0,-153.0,132.0,-892.0,660.0,0
179.0,-66.0,-156.0,124.0,-902.0,647.0,0
190.0,-68.0,-160.0,122.0,-903.0,628.0,0
183.0,-67.0,-153.0,115.0,-903.0,611.0,0
189.0,-69.0,-159.0,112.0,-905.0,598.0,0
190.0,-69.0,-158.0,114.0,-892.0,583.0,0
194.0,-70.0,-156.0,129.0,-890.0,572.0,0
192.0,-80.0,-163.0,141.0,-882.0,559.0,0
184.0,-79.0,-150.0,141.0,-851.0,526.0,0
202.0,-82.0,-152.0,171.0,-853.0,510.0,0
215.0,-78.0,-157.0,215.0,-866.0,483.0,0
200.0,-73.0,-159.0,238.0,-866.0,460.0,0
199.0,-80.0,-154.0,246.0,-849.0,450.0,0
203.0,-86.0,-145.0,258.0,-833.0,422.0,0
209.0,-76.0,-157.0,286.0,-862.0,375.0,0
206.0,-68.0,-166.0,305.0,-902.0,344.0,0
198.0,-71.0,-165.0,286.0,-891.0,326.0,0
207.0,-72.0,-159.0,282.0,-892.0,314.0,0
199.0,-72.0,-155.0,290.0,-922.0,310.0,0
186.0,-76.0,-159.0,312.0,-972.0,343.0,0
190.0,-70.0,-168.0,329.0,-997.0,375.0,0
195.0,-74.0,-166.0,328.0,-993.0,406.0,0
184.0,-82.0,-168.0,311.0,-963.0,413.0,0
187.0,-85.0,-164.0,302.0,-925.0,404.0,0
189.0,-83.0,-161.0,315.0,-896.0,373.0,0
196.0,-70.0,-159.0,328.0,-857.0,325.0,0
202.0,-72.0,-155.0,337.0,-847.0,318.0,0
200.0,-71.0,-161.0,345.0,-847.0,335.0,0
204.0,-67.0,-160.0,351.0,-852.0,363.0,0
208.0,-63.0,-158.0,341.0,-850.0,397.0,0
204.0,-64.0,-157.0,317.0,-831.0,436.0,0
209.0,-67.0,-161.0,295.0,-807.0,483.0,0
207.0,-69.0,-162.0,285.0,-771.0,525.0,0
207.0,-68.0,-165.0,294.0,-726.0,568.0,0
209.0,-74.0,-162.0,322.0,-675.0,613.0,0
211.0,-80.0,-157.0,353.0,-612.0,671.0,0
210.0,-80.0,-153.0,389.0,-560.0,720.0,0
211.0,-86.0,-149.0,415.0,-512.0,764.0,0
209.0,-87.0,-146.0,437.0,-470.0,800.0,0
203.0,-90.0,-142.0,455.0,-434.0,830.0,0
204.0,-94.0,-142.0,473.0,-406.0,852.0,0
198.0,-93.0,-143.0,479.0,-384.0,870.0,0
194.0,-90.0,-143.0,482.0,-369.0,881.0,0
191.0,-95.0,-145.0,480.0,-363.0,888.0,0
189.0,-91.0,-149.0,477.0,-364.0,885.0,0
185.0,-91.0,-156.0,472.0,-366.0,877.0,0
182.0,-89.0,-161.0,459.0,-367.0,873.0,0
177.0,-88.0,-165.0,443.0,-367.0,869.0,0
174.0,-88.0,-168.0,424.0,-362.0,865.0,0
173.0,-86.0,-177.0,410.0,-363.0,859.0,0
165.0,-89.0,-178.0,395.0,-358.0,854.0,0
169.0,-91.0,-184.0,381.0,-344.0,851.0,0
166.0,-92.0,-182.0,370.0,-321.0,846.0,0
162.0,-93.0,-189.0,367.0,-293.0,839.0,0
155.0,-97.0,-185.0,374.0,-264.0,826.0,0
152.0,-101.0,-190.0,378.0,-232.0,816.0,0
153.0,-100.0,-187.0,376.0,-196.0,807.0,0
147.0,-102.0,-189.0,368.0,-166.0,802.0,0
148.0,-107.0,-186.0,360.0,-145.0,797.0,0
147.0,-108.0,-187.0,359.0,-131.0,792.0,0
145.0,-107.0,-183.0,362.0,-121.0,790.0,0
149.0,-110.0,-187.0,369.0,-120.0,794.0,0
147.0,-106.0,-183.0,381.0,-125.0,802.0,0
148.0,-106.0,-181.0,394.0,-132.0,815.0,0
146.0,-106.0,-182.0,412.0,-143.0,827.0,0
142.0,-106.0,-182.0,435.0,-155.0,837.0,0
142.0,-104.0,-181.0,466.0,-174.0,849.0,0
141.0,-108.0,-184.0,494.0,-196.0,854.0,0
139.0,-105.0,-182.0,523.0,-217.0,855.0,0
139.0,-105.0,-182.0,552.0,-237.0,852.0,0
137.0,-106.0,-181.0,577.0,-255.0,845.0,0
139.0,-109.0,-179.0,590.0,-267.0,835.0,0
137.0,-109.0,-182.0,600.0,-281.0,819.0,0
137.0,-109.0,-179.0,603.0,-291.0,797.0,0
139.0,-109.0,-178.0,601.0,-301.0,769.0,0
140.0,-106.0,-180.0,585.0,-299.0,741.0,0
134.0,-109.0,-178.0,546.0,-292.0,722.0,0
138.0,-111.0,-179.0,509.0,-288.0,690.0,0
138.0,-109.0,-177.0,466.0,-278.0,661.0,0
139.0,-108.0,-179.0,423.0,-263.0,631.0,0
142.0,-110.0,-180.0,376.0,-240.0,609.0,0
139.0,-108.0,-173.0,340.0,-217.0,585.0,0
142.0,-114.0,-176.0,308.0,-192.0,569.0,0
146.0,-116.0,-173.0,283.0,-164.0,557.0,0
142.0,-117.0,-169.0,269.0,-142.0,549.0,0
144.0,-123.0,-168.0,271.0,-124.0,537.0,0
140.0,-116.0,-167.0,274.0,-105.0,540.0,0
141.0,-123.0,-162.0,280.0,-96.0,548.0,0
139.0,-122.0,-162.0,289.0,-93.0,560.0,0
137.0,-128.0,-162.0,300.0,-93.0,574.0,0
137.0,-128.0,-161.0,313.0,-100.0,591.0,0
134.0,-129.0,-160.0,331.0,-108.0,609.0,0
131.0,-131.0,-163.0,349.0,-115.0,629.0,0
129.0,-133.0,-166.0,364.0,-122.0,652.0,0
129.0,-132.0,-165.0,379.0,-128.0,676.0,0
130.0,-135.0,-163.0,394.0,-128.0,702.0,0
128.0,-136.0,-165.0,406.0,-125.0,734.0,0
129.0,-136.0,-170.0,424.0,-122.0,762.0,0
127.0,-137.0,-167.0,437.0,-115.0,794.0,0
129.0,-133.0,-169.0,447.0,-108.0,821.0,0
126.0,-135.0,-175.0,454.0,-95.0,856.0,0
130.0,-137.0,-176.0,461.0,-78.0,887.0,0
127.0,-135.0,-181.0,460.0,-55.0,921.0,0
126.0,-136.0,-180.0,450.0,-33.0,953.0,0
125.0,-144.0,-179.0,434.0,-7.0,982.0,0
123.0,-144.0,-180.0,418.0,11.0,1002.0,0
125.0,-145.0,-183.0,394.0,36.0,1029.0,0
121.0,-152.0,-179.0,362.0,57.0,1047.0,0
120.0,-160.0,-176.0,334.0,74.0,1059.0,0
116.0,-161.0,-178.0,311.0,88.0,1066.0,0
114.0,-172.0,-173.0,289.0,101.0,1072.0,0
113.0,-171.0,-178.0,269.0,108.0,1067.0,0
112.0,-180.0,-174.0,241.0,121.0,1061.0,0
107.0,-183.0,-168.0,215.0,133.0,1049.0,0
100.0,-189.0,-168.0,189.0,146.0,1036.0,0
96.0,-191.0,-168.0,167.0,162.0,1020.0,0
95.0,-196.0,-164.0,146.0,185.0,996.0,0
90.0,-198.0,-165.0,127.0,205.0,968.0,0
90.0,-199.0,-166.0,108.0,225.0,942.0,0
84.0,-202.0,-167.0,93.0,241.0,916.0,0
87.0,-203.0,-165.0,80.0,255.0,895.0,0
84.0,-204.0,-167.0,72.0,265.0,876.0,0
80.0,-207.0,-164.0,70.0,272.0,865.0,0
76.0,-211.0,-157.0,82.0,264.0,847.0,0
92.0,-203.0,-171.0,105.0,248.0,836.0,0
90.0,-203.0,-174.0,114.0,267.0,841.0,0
80.0,-203.0,-162.0,119.0,292.0,860.0,0
81.0,-202.0,-159.0,125.0,295.0,869.0,0
77.0,-200.0,-154.0,130.0,293.0,886.0,0
71.0,-198.0,-152.0,140.0,285.0,903.0,0
67.0,-196.0,-145.0,158.0,273.0,926.0,0
74.0,-193.0,-145.0,180.0,265.0,950.0,0
66.0,-197.0,-142.0,197.0,261.0,988.0,0
66.0,-195.0,-141.0,222.0,244.0,1013.0,0
62.0,-191.0,-145.0,242.0,238.0,1055.0,0
56.0,-192.0,-152.0,263.0,235.0,1091.0,0
58.0,-188.0,-150.0,278.0,230.0,1126.0,0
58.0,-189.0,-149.0,287.0,230.0,1160.0,0
55.0,-190.0,-152.0,290.0,227.0,1192.0,0
51.0,-192.0,-146.0,295.0,228.0,1209.0,0
48.0,-195.0,-153.0,306.0,219.0,1223.0,0
44.0,-194.0,-152.0,319.0,209.0,1231.0,0
47.0,-196.0,-156.0,330.0,208.0,1236.0,0
44.0,-196.0,-155.0,333.0,206.0,1231.0,0
43.0,-197.0,-157.0,339.0,194.0,1222.0,0
44.0,-202.0,-154.0,344.0,184.0,1205.0,0
47.0,-204.0,-160.0,352.0,174.0,1187.0,0
40.0,-202.0,-158.0,363.0,180.0,1162.0,0
44.0,-204.0,-157.0,372.0,192.0,1147.0,0
42.0,-203.0,-156.0,379.0,195.0,1118.0,0
39.0,-205.0,-154.0,383.0,191.0,1093.0,0
43.0,-206.0,-157.0,388.0,182.0,1061.0,0
45.0,-205.0,-154.0,393.0,184.0,1039.0,0
42.0,-202.0,-155.0,389.0,185.0,1018.0,0
40.0,-207.0,-150.0,382.0,179.0,999.0,0
45.0,-209.0,-155.0,373.0,172.0,971.0,0
41.0,-206.0,-151.0,360.0,164.0,945.0,0
41.0,-205.0,-153.0,342.0,153.0,927.0,0
42.0,-210.0,-153.0,322.0,137.0,904.0,0
44.0,-215.0,-153.0,308.0,119.0,871.0,0
39.0,-216.0,-143.0,293.0,103.0,844.0,0
39.0,-218.0,-149.0,285.0,87.0,804.0,0
37.0,-222.0,-146.0,278.0,71.0,769.0,0
39.0,-220.0,-142.0,270.0,59.0,729.0,0
37.0,-221.0,-143.0,260.0,50.0,694.0,0
38.0,-221.0,-145.0,249.0,44.0,657.0,0
39.0,-222.0,-138.0,237.0,40.0,625.0,0
35.0,-220.0,-140.0,216.0,36.0,592.0,0
34.0,-221.0,-135.0,189.0,36.0,573.0,0
31.0,-222.0,-135.0,164.0,28.0,547.0,0
32.0,-225.0,-135.0,142.0,15.0,523.0,0
30.0,-219.0,-133.0,129.0,4.0,490.0,0
27.0,-221.0,-136.0,116.0,-7.0,472.0,0
27.0,-217.0,-138.0,107.0,-18.0,462.0,0
21.0,-222.0,-140.0,101.0,-26.0,457.0,0
24.0,-221.0,-134.0,97.0,-35.0,447.0,0
21.0,-222.0,-132.0,95.0,-46.0,447.0,0
18.0,-224.0,-134.0,102.0,-63.0,436.0,0
17.0,-221.0,-132.0,107.0,-76.0,430.0,0
21.0,-226.0,-133.0,113.0,-89.0,430.0,0
19.0,-227.0,-134.0,124.0,-102.0,440.0,0
16.0,-226.0,-135.0,141.0,-119.0,438.0,0
19.0,-229.0,-142.0,162.0,-133.0,434.0,0
21.0,-228.0,-133.0,182.0,-146.0,426.0,0
22.0,-228.0,-139.0,204.0,-162.0,423.0,0
35.0,-226.0,-144.0,223.0,-162.0,413.0,0
37.0,-225.0,-146.0,239.0,-146.0,416.0,0
39.0,-221.0,-142.0,248.0,-128.0,415.0,0
40.0,-220.0,-147.0,237.0,-123.0,422.0,0
44.0,-223.0,-152.0,215.0,-112.0,422.0,0
45.0,-218.0,-152.0,187.0,-96.0,418.0,0
45.0,-217.0,-150.0,153.0,-88.0,414.0,0
45.0,-217.0,-147.0,119.0,-77.0,408.0,0
46.0,-220.0,-146.0,93.0,-67.0,393.0,0
49.0,-220.0,-148.0,75.0,-55.0,382.0,0
49.0,-220.0,-151.0,65.0,-44.0,364.0,0
41.0,-214.0,-146.0,59.0,-29.0,350.0,0
41.0,-216.0,-139.0,56.0,-15.0,334.0,0
37.0,-217.0,-135.0,60.0,-14.0,325.0,0
31.0,-214.0,-132.0,76.0,-19.0,305.0,0
20.0,-219.0,-131.0,100.0,-28.0,299.0,0
21.0,-215.0,-119.0,132.0,-46.0,284.0,0
9.0,-214.0,-121.0,172.0,-73.0,281.0,0
9.0,-209.0,-118.0,208.0,-98.0,272.0,0
4.0,-210.0,-111.0,239.0,-126.0,273.0,0
3.0,-208.0,-116.0,261.0,-150.0,271.0,0
6.0,-207.0,-115.0,270.0,-169.0,281.0,0
-4.0,-208.0,-112.0,267.0,-192.0,293.0,0
0.0,-210.0,-118.0,249.0,-214.0,298.0,0
-2.0,-210.0,-121.0,231.0,-234.0,289.0,0
3.0,-211.0,-124.0,214.0,-248.0,284.0,0
4.0,-214.0,-130.0,192.0,-255.0,282.0,0
4.0,-216.0,-136.0,178.0,-254.0,280.0,0
4.0,-221.0,-133.0,168.0,-243.0,283.0,0
6.0,-221.0,-138.0,165.0,-233.0,289.0,0
11.0,-224.0,-147.0,165.0,-215.0,290.0,0
4.0,-228.0,-142.0,161.0,-184.0,298.0,0
4.0,-236.0,-145.0,155.0,-153.0,291.0,0
1.0,-238.0,-151.0,155.0,-134.0,274.0,0
6.0,-238.0,-152.0,156.0,-109.0,247.0,0
5.0,-239.0,-147.0,152.0,-80.0,234.0,0
7.0,-238.0,-150.0,152.0,-58.0,214.0,0
10.0,-236.0,-142.0,159.0,-41.0,210.0,0
10.0,-233.0,-141.0,167.0,-20.0,215.0,0
6.0,-231.0,-135.0,178.0,-8.0,214.0,0
10.0,-233.0,-134.0,191.0,2.0,214.0,0
14.0,-224.0,-134.0,197.0,11.0,217.0,0
6.0,-222.0,-128.0,195.0,23.0,220.0,0
13.0,-219.0,-126.0,189.0,18.0,219.0,0
14.0,-217.0,-121.0,175.0,14.0,206.0,0
17.0,-214.0,-122.0,155.0,15.0,202.0,0
26.0,-209.0,-123.0,132.0,14.0,196.0,0
22.0,-211.0,-124.0,104.0,16.0,198.0,0
26.0,-211.0,-125.0,74.0,10.0,188.0,0
30.0,-212.0,-129.0,42.0,7.0,181.0,0
26.0,-209.0,-126.0,5.0,7.0,168.0,0
27.0,-212.0,-126.0,-30.0,6.0,162.0,0
27.0,-212.0,-129.0,-65.0,10.0,153.0,0
25.0,-212.0,-130.0,-98.0,11.0,149.0,0
25.0,-217.0,-129.0,-117.0,16.0,146.0,0
25.0,-221.0,-125.0,-122.0,21.0,145.0,0
23.0,-221.0,-124.0,-117.0,23.0,140.0,0
22.0,-221.0,-136.0,-103.0,25.0,137.0,0
21.0,-223.0,-129.0,-85.0,32.0,132.0,0
22.0,-225.0,-127.0,-65.0,42.0,139.0,0
15.0,-228.0,-126.0,-43.0,53.0,149.0,0
14.0,-228.0,-127.0,-15.0,55.0,151.0,0
16.0,-227.0,-125.0,13.0,57.0,140.0,0
10.0,-226.0,-127.0,42.0,58.0,130.0,0
11.0,-223.0,-126.0,69.0,58.0,123.0,0
9.0,-221.0,-132.0,87.0,61.0,124.0,0
9.0,-222.0,-128.0,101.0,67.0,128.0,0
10.0,-216.0,-130.0,110.0,69.0,134.0,0
-2.0,-228.0,-126.0,111.0,73.0,140.0,0
29.0,-215.0,-125.0,116.0,57.0,134.0,0
-1.0,-223.0,-130.0,116.0,44.0,117.0,0
3.0,-223.0,-129.0,113.0,32.0,107.0,0
4.0,-216.0,-132.0,102.0,26.0,109.0,0
0.0,-212.0,-135.0,87.0,22.0,127.0,0
0.0,-213.0,-137.0,72.0,22.0,144.0,0
-4.0,-216.0,-139.0,57.0,15.0,157.0,0
-1.0,-213.0,-138.0,42.0,8.0,161.0,0
-1.0,-220.0,-133.0,28.0,3.0,165.0,0
0.0,-228.0,-134.0,29.0,-6.0,158.0,0
5.0,-225.0,-133.0,31.0,-12.0,145.0,0
7.0,-225.0,-132.0,37.0,-12.0,131.0,0
8.0,-225.0,-131.0,42.0,-9.0,134.0,0
5.0,-225.0,-131.0,51.0,4.0,128.0,0
2.0,-224.0,-125.0,63.0,15.0,122.0,0
1.0,-222.0,-130.0,73.0,23.0,116.0,0
-1.0,-224.0,-126.0,81.0,30.0,110.0,0
-1.0,-217.0,-128.0,85.0,33.0,101.0,0
-3.0,-217.0,-126.0,83.0,31.0,98.0,0
-9.0,-223.0,-119.0,78.0,27.0,98.0,0
-12.0,-215.0,-120.0,74.0,13.0,99.0,0
-12.0,-216.0,-118.0,63.0,0.0,98.0,0
-12.0,-219.0,-117.0,47.0,-14.0,102.0,0
-17.0,-219.0,-119.0,34.0,-27.0,97.0,0
-15.0,-220.0,-123.0,22.0,-42.0,91.0,0
-16.0,-218.0,-117.0,8.0,-49.0,84.0,0
-15.0,-219.0,-126.0,-13.0,-52.0,79.0,0
-16.0,-222.0,-124.0,-39.0,-49.0,75.0,0
-16.0,-225.0,-122.0,-62.0,-49.0,65.0,0
-13.0,-224.0,-125.0,-78.0,-51.0,51.0,0
-16.0,-232.0,-123.0,-96.0,-47.0,44.0,0
-16.0,-229.0,-123.0,-110.0,-47.0,22.0,0
-12.0,-228.0,-120.0,-129.0,-47.0,4.0,0
-8.0,-225.0,-124.0,-150.0,-38.0,-3.0,0
-11.0,-226.0,-116.0,-183.0,-24.0,-3.0,0
-14.0,-238.0,-119.0,-203.0,-22.0,-16.0,0
-10.0,-233.0,-118.0,-206.0,-29.0,-44.0,0
-8.0,-228.0,-123.0,-212.0,-24.0,-59.0,0
-6.0,-221.0,-122.0,-221.0,-16.0,-60.0,0
-2.0,-224.0,-125.0,-239.0,-9.0,-55.0,0
-1.0,-229.0,-127.0,-251.0,-8.0,-56.0,0
1.0,-223.0,-128.0,-251.0,-10.0,-62.0,0
5.0,-223.0,-125.0,-255.0,-11.0,-60.0,0
6.0,-223.0,-128.0,-259.0,-11.0,-59.0,0
6.0,-220.0,-132.0,-264.0,-13.0,-58.0,0
9.0,-224.0,-132.0,-264.0,-15.0,-57.0,0
9.0,-223.0,-132.0,-260.0,-18.0,-56.0,0
8.0,-225.0,-136.0,-251.0,-20.0,-53.0,0
6.0,-223.0,-138.0,-241.0,-24.0,-49.0,0
7.0,-224.0,-141.0,-233.0,-27.0,-46.0,0
10.0,-225.0,-136.0,-227.0,-27.0,-41.0,0
5.0,-222.0,-142.0,-224.0,-30.0,-39.0,0
4.0,-227.0,-142.0,-222.0,-33.0,-39.0,0
5.0,-223.0,-139.0,-218.0,-36.0,-42.0,0
3.0,-223.0,-143.0,-213.0,-36.0,-43.0,0
0.0,-220.0,-143.0,-209.0,-37.0,-47.0,0
1.0,-220.0,-142.0,-207.0,-34.0,-47.0,0
2.0,-221.0,-143.0,-205.0,-32.0,-49.0,0
1.0,-219.0,-143.0,-202.0,-29.0,-52.0,0
1.0,-218.0,-147.0,-198.0,-28.0,-56.0,0
2.0,-217.0,-144.0,-193.0,-24.0,-63.0,0
-1.0,-217.0,-140.0,-187.0,-18.0,-70.0,0
2.0,-217.0,-137.0,-185.0,-14.0,-76.0,0
-3.0,-213.0,-138.0,-184.0,-12.0,-84.0,0
3.0,-215.0,-140.0,-183.0,-8.0,-90.0,0
4.0,-214.0,-143.0,-179.0,-6.0,-97.0,0
3.0,-213.0,-141.0,-177.0,-1.0,-102.0,0
0.0,-215.0,-137.0,-172.0,2.0,-107.0,0
0.0,-214.0,-137.0,-164.0,3.0,-112.0,0
1.0,-214.0,-140.0,-156.0,3.0,-115.0,0
-1.0,-216.0,-136.0,-149.0,4.0,-118.0,0
0.0,-217.0,-139.0,-140.0,6.0,-122.0,0
2.0,-217.0,-137.0,-132.0,5.0,-123.0,0
3.0,-219.0,-139.0,-124.0,5.0,-123.0,0
1.0,-218.0,-138.0,-116.0,2.0,-124.0,0
3.0,-221.0,-139.0,-106.0,2.0,-122.0,0
-1.0,-219.0,-139.0,-99.0,1.0,-124.0,0
2.0,-220.0,-140.0,-92.0,0.0,-124.0,0
3.0,-219.0,-139.0,-87.0,3.0,-123.0,0
2.0,-218.0,-142.0,-81.0,3.0,-123.0,0
5.0,-220.0,-140.0,-77.0,4.0,-123.0,0
2.0,-220.0,-137.0,-73.0,8.0,-121.0,0
6.0,-218.0,-141.0,-74.0,12.0,-121.0,0
7.0,-221.0,-140.0,-73.0,15.0,-120.0,0
2.0,-219.0,-145.0,-74.0,19.0,-120.0,0
3.0,-220.0,-140.0,-76.0,24.0,-116.0,0
4.0,-220.0,-140.0,-75.0,29.0,-114.0,0
3.0,-216.0,-139.0,-79.0,33.0,-111.0,0
7.0,-218.0,-142.0,-83.0,39.0,-108.0,0
7.0,-217.0,-142.0,-88.0,46.0,-103.0,0
6.0,-213.0,-144.0,-91.0,52.0,-98.0,0
7.0,-216.0,-139.0,-91.0,58.0,-95.0,0
7.0,-215.0,-140.0,-92.0,65.0,-91.0,0
8.0,-218.0,-140.0,-94.0,70.0,-88.0,0
8.0,-218.0,-142.0,-96.0,78.0,-89.0,0
8.0,-216.0,-138.0,-95.0,82.0,-85.0,0
7.0,-219.0,-140.0,-96.0,89.0,-85.0,0
6.0,-214.0,-144.0,-97.0,94.0,-84.0,0
8.0,-215.0,-142.0,-95.0,100.0,-82.0,0
10.0,-215.0,-142.0,-95.0,104.0,-78.0,0
8.0,-216.0,-141.0,-94.0,109.0,-75.0,0
7.0,-217.0,-146.0,-95.0,115.0,-73.0,0
6.0,-216.0,-143.0,-96.0,119.0,-70.0,0
9.0,-216.0,-147.0,-98.0,121.0,-67.0,0
8.0,-216.0,-147.0,-97.0,124.0,-65.0,0
9.0,-216.0,-146.0,-99.0,125.0,-63.0,0
8.0,-214.0,-149.0,-103.0,125.0,-65.0,0
8.0,-216.0,-144.0,-109.0,125.0,-62.0,0
4.0,-212.0,-149.0,-113.0,123.0,-62.0,0
8.0,-215.0,-145.0,-117.0,121.0,-60.0,0
4.0,-213.0,-142.0,-121.0,118.0,-61.0,0
6.0,-214.0,-148.0,-125.0,115.0,-59.0,0
5.0,-212.0,-147.0,-126.0,113.0,-59.0,0
5.0,-213.0,-145.0,-126.0,108.0,-57.0,0
7.0,-212.0,-146.0,-123.0,104.0,-59.0,0
6.0,-214.0,-144.0,-115.0,100.0,-56.0,0
6.0,-212.0,-142.0,-110.0,97.0,-59.0,0
4.0,-213.0,-145.0,-101.0,91.0,-57.0,0
7.0,-214.0,-147.0,-93.0,88.0,-58.0,0
9.0,-215.0,-145.0,-83.0,84.0,-55.0,0
6.0,-212.0,-149.0,-77.0,79.0,-54.0,0
7.0,-208.0,-152.0,-74.0,77.0,-52.0,0
12.0,-212.0,-147.0,-72.0,74.0,-50.0,0
9.0,-214.0,-150.0,-72.0,70.0,-44.0,0
10.0,-213.0,-147.0,-74.0,68.0,-43.0,0
9.0,-214.0,-152.0,-77.0,65.0,-40.0,0
11.0,-215.0,-148.0,-82.0,63.0,-39.0,0
10.0,-211.0,-148.0,-88.0,62.0,-37.0,0
13.0,-213.0,-146.0,-94.0,61.0,-37.0,0
12.0,-213.0,-148.0,-101.0,62.0,-37.0,0
13.0,-213.0,-148.0,-106.0,62.0,-39.0,0
13.0,-213.0,-148.0,-110.0,63.0,-38.0,0
13.0,-214.0,-145.0,-113.0,66.0,-40.0,0
13.0,-214.0,-145.0,-113.0,69.0,-39.0,0
13.0,-211.0,-146.0,-113.0,70.0,-41.0,0
11.0,-212.0,-148.0,-111.0,73.0,-39.0,0
14.0,-213.0,-148.0,-107.0,76.0,-41.0,0
14.0,-214.0,-146.0,-101.0,79.0,-38.0,0
14.0,-214.0,-146.0,-94.0,81.0,-38.0,0
12.0,-215.0,-146.0,-87.0,82.0,-35.0,0
12.0,-216.0,-146.0,-78.0,82.0,-36.0,0
11.0,-216.0,-143.0,-68.0,83.0,-33.0,0
12.0,-216.0,-142.0,-60.0,86.0,-34.0,0
13.0,-214.0,-147.0,-52.0,87.0,-30.0,0
9.0,-216.0,-143.0,-45.0,85.0,-30.0,0
13.0,-214.0,-145.0,-43.0,83.0,-27.0,0
11.0,-213.0,-145.0,-40.0,82.0,-27.0,0
11.0,-216.0,-145.0,-38.0,81.0,-23.0,0
10.0,-213.0,-145.0,-40.0,80.0,-23.0,0
9.0,-211.0,-145.0,-45.0,78.0,-18.0,0
12.0,-213.0,-148.0,-50.0,78.0,-16.0,0
9.0,-210.0,-150.0,-55.0,76.0,-12.0,0
11.0,-211.0,-144.0,-60.0,73.0,-13.0,0
12.0,-211.0,-147.0,-65.0,75.0,-8.0,0
10.0,-211.0,-146.0,-72.0,72.0,-10.0,0
8.0,-209.0,-147.0,-77.0,72.0,-8.0,0
11.0,-210.0,-149.0,-82.0,71.0,-11.0,0
7.0,-211.0,-153.0,-85.0,71.0,-12.0,0
8.0,-209.0,-146.0,-86.0,71.0,-16.0,0
11.0,-212.0,-146.0,-87.0,70.0,-14.0,0
9.0,-213.0,-148.0,-84.0,69.0,-19.0,0
12.0,-209.0,-151.0,-82.0,68.0,-18.0,0
11.0,-212.0,-151.0,-82.0,69.0,-22.0,0
9.0,-211.0,-148.0,-80.0,67.0,-19.0,0
9.0,-212.0,-147.0,-81.0,69.0,-22.0,0
11.0,-212.0,-150.0,-82.0,68.0,-19.0,0
10.0,-209.0,-149.0,-83.0,67.0,-20.0,0
10.0,-211.0,-145.0,-84.0,66.0,-17.0,0
10.0,-210.0,-149.0,-82.0,65.0,-17.0,0
10.0,-209.0,-145.0,-82.0,65.0,-13.0,0
9.0,-209.0,-150.0,-82.0,63.0,-14.0,0
7.0,-212.0,-150.0,-78.0,63.0,-9.0,0
10.0,-212.0,-148.0,-73.0,62.0,-8.0,0
9.0,-212.0,-148.0,-68.0,62.0,-3.0,0
10.0,-210.0,-150.0,-63.0,63.0,-4.0,0
9.0,-211.0,-147.0,-57.0,63.0,2.0,0
11.0,-212.0,-151.0,-51.0,63.0,3.0,0
9.0,-212.0,-149.0,-44.0,62.0,6.0,0
7.0,-209.0,-147.0,-39.0,63.0,4.0,0
11.0,-213.0,-148.0,-35.0,63.0,9.0,0
11.0,-210.0,-150.0,-29.0,64.0,7.0,0
11.0,-214.0,-146.0,-25.0,64.0,8.0,0
9.0,-213.0,-148.0,-25.0,65.0,4.0,0
8.0,-210.0,-149.0,-25.0,65.0,6.0,0
9.0,-211.0,-147.0,-27.0,66.0,3.0,0
10.0,-214.0,-150.0,-30.0,65.0,5.0,0
10.0,-215.0,-151.0,-31.0,65.0,1.0,0
9.0,-213.0,-148.0,-33.0,66.0,2.0,0
11.0,-212.0,-148.0,-34.0,64.0,-1.0,0
8.0,-212.0,-146.0,-35.0,64.0,1.0,0
10.0,-211.0,-150.0,-37.0,62.0,-2.0,0
8.0,-212.0,-147.0,-38.0,61.0,0.0,0
12.0,-209.0,-151.0,-40.0,60.0,-4.0,0
14.0,-212.0,-147.0,-40.0,59.0,-2.0,0
10.0,-211.0,-148.0,-42.0,58.0,-4.0,0
11.0,-210.0,-150.0,-43.0,59.0,-2.0,0
8.0,-210.0,-152.0,-45.0,58.0,-4.0,0
9.0,-211.0,-148.0,-43.0,58.0,-3.0,0
10.0,-210.0,-148.0,-43.0,57.0,-5.0,0
12.0,-214.0,-150.0,-44.0,56.0,-3.0,0
15.0,-211.0,-152.0,-42.0,54.0,-5.0,0
11.0,-213.0,-149.0,-40.0,54.0,-4.0,0
9.0,-210.0,-153.0,-39.0,55.0,-8.0,0
13.0,-211.0,-153.0,-38.0,54.0,-6.0,0
12.0,-209.0,-149.0,-36.0,54.0,-8.0,0
11.0,-214.0,-147.0,-34.0,53.0,-5.0,0
11.0,-210.0,-155.0,-34.0,56.0,-6.0,0
11.0,-208.0,-149.0,-34.0,56.0,-3.0,0
10.0,-213.0,-147.0,-33.0,58.0,-4.0,0
12.0,-212.0,-146.0,-32.0,59.0,-2.0,0
10.0,-211.0,-148.0,-33.0,59.0,-3.0,0
13.0,-211.0,-145.0,-33.0,62.0,0.0,0
11.0,-212.0,-150.0,-33.0,60.0,0.0,0
11.0,-214.0,-148.0,-31.0,62.0,4.0,0
9.0,-210.0,-151.0,-28.0,63.0,2.0,0
10.0,-211.0,-150.0,-24.0,64.0,5.0,0
8.0,-209.0,-149.0,-19.0,64.0,4.0,0
13.0,-209.0,-147.0,-17.0,65.0,6.0,0
10.0,-211.0,-152.0,-14.0,66.0,4.0,0
11.0,-210.0,-149.0,-16.0,67.0,5.0,0
12.0,-210.0,-147.0,-16.0,66.0,3.0,0
11.0,-212.0,-146.0,-18.0,66.0,5.0,0
11.0,-209.0,-150.0,-19.0,67.0,5.0,0
12.0,-206.0,-147.0,-20.0,68.0,7.0,0
11.0,-209.0,-149.0,-20.0,68.0,6.0,0
12.0,-213.0,-149.0,-20.0,70.0,9.0,0
11.0,-209.0,-149.0,-22.0,70.0,8.0,0
12.0,-212.0,-152.0,-21.0,70.0,12.0,0
11.0,-209.0,-152.0,-19.0,71.0,10.0,0
7.0,-210.0,-156.0,-18.0,71.0,11.0,0
12.0,-206.0,-152.0,-17.0,71.0,10.0,0
12.0,-209.0,-150.0,-17.0,71.0,12.0,0
7.0,-209.0,-149.0,-16.0,70.0,10.0,0
9.0,-208.0,-156.0,-18.0,70.0,12.0,0
9.0,-209.0,-151.0,-17.0,71.0,9.0,0
10.0,-209.0,-153.0,-17.0,71.0,11.0,0
8.0,-207.0,-153.0,-16.0,69.0,9.0,0
11.0,-210.0,-150.0,-18.0,70.0,12.0,0
11.0,-212.0,-154.0,-17.0,70.0,9.0,0
10.0,-207.0,-154.0,-18.0,69.0,12.0,0
11.0,-210.0,-152.0,-18.0,70.0,7.0,0
11.0,-208.0,-152.0,-18.0,68.0,9.0,0
13.0,-209.0,-151.0,-16.0,68.0,7.0,0
11.0,-211.0,-153.0,-13.0,66.0,10.0,0
11.0,-210.0,-149.0,-8.0,66.0,6.0,0
8.0,-207.0,-150.0,-4.0,64.0,7.0,0
9.0,-207.0,-149.0,2.0,63.0,6.0,0
9.0,-210.0,-151.0,8.0,62.0,8.0,0
11.0,-211.0,-147.0,14.0,62.0,7.0,0
12.0,-210.0,-151.0,17.0,59.0,8.0,0
11.0,-211.0,-150.0,23.0,60.0,6.0,0
8.0,-210.0,-152.0,24.0,58.0,8.0,0
11.0,-212.0,-152.0,27.0,57.0,4.0,0
7.0,-209.0,-151.0,28.0,56.0,6.0,0
11.0,-213.0,-152.0,29.0,56.0,3.0,0
9.0,-209.0,-150.0,29.0,57.0,5.0,0
5.0,-209.0,-150.0,28.0,57.0,2.0,0
10.0,-213.0,-147.0,26.0,54.0,3.0,0
9.0,-210.0,-145.0,25.0,54.0,1.0,0
4.0,-212.0,-148.0,26.0,54.0,3.0,0
6.0,-211.0,-148.0,27.0,55.0,1.0,0
7.0,-213.0,-150.0,28.0,55.0,1.0,0
5.0,-213.0,-148.0,29.0,54.0,-1.0,0
5.0,-208.0,-149.0,29.0,56.0,2.0,0
10.0,-214.0,-148.0,29.0,55.0,0.0,0
8.0,-215.0,-146.0,29.0,53.0,2.0,0
10.0,-211.0,-145.0,29.0,53.0,-1.0,0
9.0,-213.0,-145.0,29.0,53.0,0.0,0
8.0,-213.0,-144.0,30.0,52.0,-1.0,0
10.0,-212.0,-144.0,29.0,50.0,1.0,0
10.0,-210.0,-150.0,28.0,49.0,-1.0,0
10.0,-213.0,-148.0,26.0,49.0,1.0,0
7.0,-212.0,-147.0,25.0,49.0,0.0,0
8.0,-214.0,-146.0,23.0,48.0,1.0,0
11.0,-210.0,-148.0,20.0,47.0,0.0,0
11.0,-212.0,-148.0,17.0,47.0,2.0,0
11.0,-213.0,-145.0,15.0,49.0,2.0,0
10.0,-211.0,-151.0,13.0,49.0,2.0,0
11.0,-213.0,-147.0,13.0,49.0,0.0,0
10.0,-214.0,-147.0,12.0,50.0,2.0,0
9.0,-212.0,-144.0,14.0,51.0,1.0,0
10.0,-211.0,-148.0,18.0,51.0,1.0,0
8.0,-209.0,-148.0,20.0,52.0,-1.0,0
9.0,-212.0,-149.0,22.0,53.0,0.0,0
8.0,-213.0,-143.0,22.0,53.0,-2.0,0
10.0,-214.0,-148.0,25.0,52.0,-2.0,0
12.0,-210.0,-149.0,24.0,54.0,-3.0,0
8.0,-211.0,-152.0,25.0,54.0,-3.0,0
10.0,-211.0,-144.0,26.0,55.0,-2.0,0
6.0,-212.0,-149.0,27.0,55.0,-3.0,0
11.0,-212.0,-147.0,29.0,56.0,-5.0,0
9.0,-212.0,-148.0,31.0,56.0,-4.0,0
11.0,-211.0,-146.0,33.0,56.0,-6.0,0
7.0,-210.0,-146.0,34.0,56.0,-5.0,0
10.0,-211.0,-151.0,34.0,58.0,-7.0,0
9.0,-212.0,-146.0,36.0,58.0,-7.0,0
9.0,-212.0,-147.0,38.0,57.0,-6.0,0
9.0,-211.0,-150.0,36.0,56.0,-6.0,0
9.0,-210.0,-148.0,36.0,56.0,-5.0,0
9.0,-213.0,-150.0,35.0,56.0,-5.0,0
10.0,-210.0,-143.0,34.0,56.0,-5.0,0
10.0,-213.0,-146.0,35.0,56.0,-4.0,0
9.0,-210.0,-148.0,34.0,57.0,-3.0,0
11.0,-213.0,-145.0,35.0,56.0,-2.0,0
9.0,-214.0,-147.0,36.0,56.0,-2.0,0
9.0,-213.0,-147.0,36.0,56.0,-2.0,0
8.0,-209.0,-147.0,37.0,55.0,0.0,0
11.0,-213.0,-148.0,39.0,56.0,-2.0,0
11.0,-214.0,-149.0,39.0,57.0,-2.0,0
13.0,-213.0,-147.0,39.0,56.0,-1.0,0
10.0,-213.0,-146.0,40.0,56.0,-1.0,0
10.0,-211.0,-145.0,41.0,57.0,-1.0,0
10.0,-215.0,-144.0,42.0,57.0,-1.0,0
7.0,-213.0,-147.0,43.0,57.0,-1.0,0
12.0,-212.0,-145.0,46.0,60.0,-1.0,0
9.0,-213.0,-146.0,50.0,59.0,-1.0,0
8.0,-213.0,-146.0,51.0,59.0,-2.0,0
10.0,-211.0,-145.0,53.0,61.0,-2.0,0
9.0,-215.0,-147.0,53.0,62.0,-2.0,0
11.0,-213.0,-146.0,53.0,62.0,-3.0,0
10.0,-210.0,-145.0,55.0,62.0,-3.0,0
11.0,-214.0,-143.0,56.0,60.0,-3.0,0
9.0,-216.0,-140.0,56.0,59.0,-3.0,0
9.0,-214.0,-146.0,57.0,60.0,-4.0,0
9.0,-212.0,-144.0,57.0,59.0,-7.0,0
9.0,-211.0,-146.0,54.0,57.0,-10.0,0
9.0,-213.0,-144.0,52.0,56.0,-10.0,0
9.0,-212.0,-148.0,48.0,56.0,-11.0,0
12.0,-213.0,-146.0,45.0,55.0,-10.0,0
10.0,-212.0,-144.0,41.0,55.0,-11.0,0
10.0,-214.0,-146.0,36.0,56.0,-11.0,0
11.0,-218.0,-149.0,34.0,59.0,-11.0,0
11.0,-216.0,-144.0,35.0,61.0,-11.0,0
10.0,-215.0,-146.0,38.0,60.0,-9.0,0
7.0,-218.0,-145.0,41.0,60.0,-7.0,0
9.0,-216.0,-143.0,45.0,59.0,-3.0,0
11.0,-216.0,-143.0,49.0,58.0,0.0,0
9.0,-215.0,-147.0,51.0,56.0,1.0,0
9.0,-212.0,-147.0,50.0,55.0,5.0,0
6.0,-215.0,-144.0,49.0,55.0,4.0,0
7.0,-212.0,-149.0,52.0,55.0,4.0,0
6.0,-216.0,-147.0,52.0,54.0,3.0,0
8.0,-216.0,-148.0,53.0,54.0,0.0,0
7.0,-216.0,-144.0,54.0,55.0,-2.0,0
7.0,-213.0,-148.0,55.0,55.0,-4.0,0
9.0,-213.0,-144.0,58.0,56.0,-7.0,0
8.0,-212.0,-142.0,60.0,56.0,-7.0,0
9.0,-216.0,-143.0,62.0,56.0,-9.0,0
9.0,-214.0,-143.0,65.0,56.0,-8.0,0
8.0,-215.0,-142.0,67.0,56.0,-8.0,0
7.0,-217.0,-142.0,68.0,56.0,-5.0,0
11.0,-215.0,-141.0,69.0,55.0,-3.0,0
10.0,-214.0,-142.0,70.0,56.0,0.0,0
7.0,-216.0,-141.0,70.0,58.0,0.0,0
11.0,-216.0,-141.0,72.0,56.0,1.0,0
10.0,-214.0,-140.0,73.0,57.0,1.0,0
9.0,-212.0,-139.0,73.0,60.0,2.0,0
11.0,-215.0,-140.0,72.0,61.0,-2.0,0
11.0,-215.0,-141.0,68.0,62.0,-1.0,0
10.0,-212.0,-140.0,65.0,64.0,-5.0,0
8.0,-228.0,-134.0,59.0,67.0,-7.0,0
12.0,-218.0,-136.0,55.0,67.0,-11.0,0
9.0,-216.0,-141.0,47.0,68.0,-11.0,0
10.0,-219.0,-136.0,39.0,68.0,-13.0,0
10.0,-215.0,-144.0,32.0,67.0,-13.0,0
10.0,-216.0,-144.0,25.0,66.0,-14.0,0
8.0,-214.0,-142.0,21.0,64.0,-11.0,0
9.0,-219.0,-144.0,17.0,64.0,-11.0,0
9.0,-217.0,-141.0,17.0,63.0,-10.0,0
12.0,-215.0,-142.0,17.0,62.0,-10.0,0
10.0,-215.0,-140.0,21.0,62.0,-7.0,0
11.0,-215.0,-146.0,25.0,62.0,-6.0,0
9.0,-215.0,-140.0,30.0,63.0,-3.0,0
11.0,-217.0,-137.0,34.0,63.0,-4.0,0
11.0,-214.0,-142.0,40.0,62.0,-1.0,0
11.0,-216.0,-143.0,46.0,64.0,-2.0,0
11.0,-217.0,-140.0,51.0,66.0,1.0,0
9.0,-215.0,-141.0,54.0,66.0,0.0,0
14.0,-217.0,-143.0,54.0,64.0,1.0,0
8.0,-216.0,-141.0,56.0,65.0,0.0,0
9.0,-216.0,-140.0,55.0,66.0,1.0,0
12.0,-217.0,-140.0,54.0,67.0,-1.0,0
10.0,-216.0,-142.0,51.0,68.0,-2.0,0
9.0,-218.0,-140.0,49.0,68.0,-3.0,0
7.0,-214.0,-140.0,48.0,70.0,-2.0,0
11.0,-217.0,-141.0,46.0,70.0,-3.0,0
10.0,-216.0,-141.0,43.0,70.0,-3.0,0
9.0,-217.0,-142.0,39.0,71.0,-4.0,0
10.0,-215.0,-139.0,34.0,73.0,-3.0,0
10.0,-215.0,-139.0,32.0,73.0,-5.0,0
10.0,-216.0,-139.0,30.0,73.0,-1.0,0
11.0,-217.0,-137.0,29.0,74.0,-3.0,0
10.0,-216.0,-137.0,27.0,73.0,-2.0,0
10.0,-217.0,-140.0,29.0,75.0,-2.0,0
8.0,-215.0,-137.0,27.0,74.0,-1.0,0
9.0,-216.0,-138.0,28.0,74.0,-3.0,0
8.0,-216.0,-140.0,28.0,73.0,-2.0,0
9.0,-217.0,-138.0,24.0,73.0,-5.0,0
8.0,-213.0,-138.0,20.0,73.0,-3.0,0
11.0,-216.0,-140.0,19.0,74.0,-6.0,0
11.0,-217.0,-134.0,17.0,73.0,-4.0,0
8.0,-217.0,-137.0,16.0,71.0,-5.0,0
8.0,-218.0,-134.0,14.0,72.0,-4.0,0
9.0,-220.0,-138.0,13.0,72.0,-4.0,0
10.0,-220.0,-137.0,12.0,72.0,-3.0,0
9.0,-218.0,-136.0,9.0,71.0,-4.0,0
9.0,-219.0,-137.0,7.0,72.0,-2.0,0
8.0,-219.0,-136.0,3.0,70.0,-4.0,0
8.0,-219.0,-138.0,3.0,70.0,-2.0,0
12.0,-221.0,-138.0,1.0,68.0,-4.0,0
8.0,-217.0,-139.0,-1.0,68.0,-2.0,0
7.0,-217.0,-140.0,-3.0,69.0,-4.0,0
10.0,-221.0,-140.0,-3.0,68.0,-2.0,0
9.0,-220.0,-141.0,-6.0,68.0,-4.0,0
8.0,-218.0,-139.0,-8.0,67.0,-2.0,0
9.0,-220.0,-140.0,-9.0,67.0,-4.0,0
9.0,-220.0,-135.0,-12.0,65.0,-3.0,0
10.0,-218.0,-140.0,-13.0,63.0,-4.0,0
8.0,-215.0,-136.0,-14.0,63.0,0.0,0
12.0,-217.0,-141.0,-16.0,62.0,-1.0,0
10.0,-217.0,-134.0,-18.0,59.0,1.0,0
10.0,-217.0,-136.0,-22.0,58.0,-3.0,0
11.0,-217.0,-138.0,-23.0,57.0,-3.0,0
12.0,-217.0,-137.0,-24.0,56.0,-5.0,0
9.0,-219.0,-136.0,-28.0,55.0,-4.0,0
12.0,-219.0,-138.0,-30.0,54.0,-8.0,0
14.0,-218.0,-139.0,-31.0,54.0,-7.0,0
9.0,-219.0,-137.0,-33.0,54.0,-11.0,0
9.0,-216.0,-137.0,-34.0,55.0,-8.0,0
12.0,-220.0,-138.0,-33.0,53.0,-11.0,0
10.0,-216.0,-137.0,-32.0,54.0,-8.0,0
8.0,-221.0,-138.0,-31.0,54.0,-11.0,0
10.0,-216.0,-138.0,-29.0,54.0,-7.0,0
12.0,-219.0,-138.0,-27.0,56.0,-8.0,0
11.0,-216.0,-139.0,-24.0,55.0,-6.0,0
10.0,-217.0,-138.0,-21.0,56.0,-8.0,0
9.0,-218.0,-142.0,-19.0,55.0,-4.0,0
11.0,-219.0,-139.0,-18.0,56.0,-5.0,0
9.0,-219.0,-137.0,-18.0,55.0,-2.0,0
10.0,-217.0,-140.0,-18.0,55.0,-5.0,0
11.0,-215.0,-145.0,-19.0,54.0,-3.0,0
11.0,-221.0,-139.0,-20.0,54.0,-4.0,0
10.0,-216.0,-139.0,-21.0,52.0,0.0,0
9.0,-215.0,-139.0,-24.0,52.0,-4.0,0
8.0,-215.0,-138.0,-25.0,52.0,-1.0,0
9.0,-219.0,-140.0,-27.0,50.0,-4.0,0
10.0,-215.0,-136.0,-30.0,52.0,-4.0,0
9.0,-214.0,-140.0,-33.0,52.0,-5.0,0
10.0,-217.0,-137.0,-35.0,51.0,-3.0,0
9.0,-219.0,-141.0,-37.0,51.0,-6.0,0
10.0,-217.0,-141.0,-38.0,52.0,-3.0,0
10.0,-217.0,-139.0,-40.0,54.0,-7.0,0
10.0,-218.0,-138.0,-41.0,55.0,-4.0,0
13.0,-217.0,-140.0,-42.0,54.0,-7.0,0
11.0,-216.0,-140.0,-44.0,55.0,-2.0,0
9.0,-217.0,-138.0,-46.0,54.0,-5.0,0
12.0,-220.0,-136.0,-47.0,55.0,-1.0,0
10.0,-216.0,-141.0,-47.0,55.0,-4.0,0
10.0,-215.0,-141.0,-50.0,55.0,0.0,0
12.0,-220.0,-135.0,-52.0,56.0,-1.0,0
9.0,-217.0,-136.0,-54.0,56.0,2.0,0
12.0,-220.0,-139.0,-53.0,57.0,0.0,0
10.0,-218.0,-139.0,-52.0,58.0,2.0,0
9.0,-216.0,-136.0,-50.0,57.0,2.0,0
10.0,-219.0,-139.0,-50.0,59.0,4.0,0
11.0,-218.0,-143.0,-49.0,59.0,2.0,0
6.0,-215.0,-139.0,-46.0,61.0,5.0,0
9.0,-219.0,-140.0,-44.0,62.0,3.0,0
10.0,-216.0,-143.0,-41.0,63.0,4.0,0
9.0,-217.0,-140.0,-42.0,64.0,2.0,0
11.0,-218.0,-136.0,-40.0,63.0,3.0,0
11.0,-217.0,-140.0,-40.0,62.0,-1.0,0
10.0,-214.0,-140.0,-44.0,62.0,0.0,0
10.0,-216.0,-141.0,-47.0,62.0,-2.0,0
5.0,-213.0,-138.0,-50.0,61.0,-3.0,0
8.0,-218.0,-139.0,-50.0,60.0,-4.0,0
10.0,-218.0,-142.0,-52.0,60.0,-3.0,0
7.0,-219.0,-140.0,-53.0,58.0,-7.0,0
8.0,-218.0,-139.0,-53.0,59.0,-4.0,0
8.0,-216.0,-139.0,-48.0,60.0,-7.0,0
10.0,-218.0,-140.0,-43.0,61.0,-6.0,0
7.0,-215.0,-141.0,-41.0,59.0,-11.0,0
8.0,-217.0,-141.0,-41.0,59.0,-10.0,0
8.0,-216.0,-144.0,-43.0,58.0,-13.0,0
10.0,-214.0,-141.0,-43.0,58.0,-10.0,0
9.0,-214.0,-140.0,-46.0,60.0,-11.0,0
10.0,-217.0,-142.0,-51.0,63.0,-9.0,0
11.0,-214.0,-138.0,-55.0,64.0,-12.0,0
9.0,-218.0,-140.0,-54.0,67.0,-8.0,0
10.0,-218.0,-140.0,-51.0,66.0,-10.0,0
8.0,-218.0,-141.0,-45.0,67.0,-5.0,0
6.0,-218.0,-143.0,-40.0,66.0,-7.0,0
8.0,-218.0,-137.0,-33.0,63.0,-4.0,0
6.0,-214.0,-140.0,-30.0,62.0,-5.0,0
9.0,-214.0,-140.0,-27.0,59.0,-4.0,0
7.0,-215.0,-144.0,-23.0,59.0,-6.0,0
6.0,-215.0,-143.0,-21.0,56.0,-3.0,0
8.0,-218.0,-140.0,-19.0,55.0,-6.0,0
6.0,-215.0,-140.0,-19.0,55.0,-4.0,0
6.0,-214.0,-141.0,-19.0,53.0,-7.0,0
8.0,-217.0,-139.0,-19.0,53.0,-5.0,0
9.0,-218.0,-136.0,-19.0,53.0,-7.0,0
7.0,-218.0,-141.0,-19.0,52.0,-4.0,0
9.0,-217.0,-143.0,-21.0,50.0,-7.0,0
12.0,-216.0,-140.0,-21.0,52.0,-3.0,0
9.0,-217.0,-143.0,-21.0,53.0,-6.0,0
11.0,-218.0,-141.0,-20.0,52.0,-3.0,0
10.0,-219.0,-140.0,-19.0,54.0,-6.0,0
10.0,-217.0,-140.0,-19.0,55.0,-4.0,0
12.0,-216.0,-143.0,-18.0,56.0,-4.0,0
10.0,-217.0,-143.0,-20.0,57.0,-1.0,0
9.0,-216.0,-140.0,-20.0,57.0,-3.0,0
12.0,-217.0,-140.0,-22.0,58.0,-1.0,0
11.0,-214.0,-142.0,-24.0,58.0,-3.0,0
14.0,-214.0,-143.0,-25.0,57.0,0.0,0
12.0,-215.0,-144.0,-29.0,57.0,-2.0,0
10.0,-214.0,-142.0,-31.0,58.0,0.0,0
11.0,-215.0,-138.0,-34.0,58.0,-2.0,0
10.0,-215.0,-142.0,-34.0,58.0,0.0,0
12.0,-215.0,-143.0,-35.0,58.0,-2.0,0
8.0,-214.0,-145.0,-34.0,59.0,-1.0,0
7.0,-213.0,-142.0,-35.0,59.0,-3.0,0
11.0,-213.0,-145.0,-36.0,57.0,-1.0,0
13.0,-218.0,-141.0,-38.0,58.0,-5.0,0
11.0,-213.0,-141.0,-39.0,58.0,-4.0,0
12.0,-213.0,-143.0,-39.0,58.0,-7.0,0
12.0,-215.0,-140.0,-39.0,58.0,-4.0,0
11.0,-217.0,-141.0,-40.0,59.0,-6.0,0
11.0,-214.0,-140.0,-39.0,57.0,-3.0,0
9.0,-213.0,-142.0,-40.0,58.0,-5.0,0
13.0,-216.0,-138.0,-39.0,58.0,-3.0,0
11.0,-218.0,-139.0,-39.0,57.0,-3.0,0
7.0,-214.0,-140.0,-39.0,59.0,-1.0,0
10.0,-215.0,-142.0,-40.0,60.0,-3.0,0
12.0,-215.0,-141.0,-39.0,58.0,-1.0,0
11.0,-213.0,-143.0,-36.0,58.0,-3.0,0
10.0,-215.0,-140.0,-33.0,59.0,2.0,0
10.0,-217.0,-137.0,-33.0,59.0,1.0,0
11.0,-217.0,-144.0,-30.0,58.0,3.0,0
11.0,-215.0,-144.0,-27.0,57.0,4.0,0
11.0,-217.0,-144.0,-24.0,58.0,6.0,0
9.0,-216.0,-145.0,-23.0,58.0,5.0,0
8.0,-215.0,-139.0,-24.0,57.0,8.0,0
6.0,-215.0,-145.0,-23.0,57.0,6.0,0
11.0,-217.0,-142.0,-23.0,56.0,7.0,0
11.0,-217.0,-146.0,-24.0,55.0,6.0,0
8.0,-216.0,-140.0,-26.0,57.0,8.0,0
11.0,-215.0,-144.0,-26.0,57.0,5.0,0
9.0,-215.0,-142.0,-28.0,57.0,4.0,0
9.0,-214.0,-142.0,-30.0,58.0,4.0,0
9.0,-219.0,-141.0,-32.0,58.0,3.0,0
8.0,-217.0,-139.0,-34.0,58.0,2.0,0
9.0,-215.0,-140.0,-34.0,59.0,2.0,0
8.0,-213.0,-144.0,-35.0,60.0,1.0,0
10.0,-213.0,-143.0,-37.0,60.0,1.0,0
10.0,-215.0,-144.0,-37.0,61.0,2.0,0
11.0,-217.0,-138.0,-34.0,61.0,2.0,0
7.0,-216.0,-141.0,-34.0,62.0,1.0,0
9.0,-215.0,-143.0,-32.0,61.0,2.0,0
10.0,-215.0,-144.0,-31.0,61.0,3.0,0
10.0,-213.0,-145.0,-31.0,61.0,4.0,0
10.0,-216.0,-142.0,-31.0,61.0,3.0,0
7.0,-212.0,-143.0,-31.0,63.0,4.0,0
9.0,-215.0,-141.0,-33.0,62.0,4.0,0
7.0,-214.0,-140.0,-34.0,61.0,6.0,0
9.0,-213.0,-144.0,-34.0,62.0,5.0,0
8.0,-214.0,-144.0,-37.0,60.0,5.0,0
8.0,-214.0,-144.0,-37.0,59.0,3.0,0
10.0,-214.0,-144.0,-38.0,61.0,4.0,0
7.0,-213.0,-144.0,-41.0,61.0,2.0,0
7.0,-212.0,-142.0,-40.0,60.0,1.0,0
6.0,-213.0,-142.0,-40.0,60.0,1.0,0
10.0,-216.0,-142.0,-39.0,59.0,1.0,0
9.0,-218.0,-142.0,-40.0,60.0,1.0,0
9.0,-215.0,-143.0,-38.0,59.0,0.0,0
8.0,-216.0,-142.0,-38.0,58.0,1.0,0
7.0,-215.0,-136.0,-37.0,58.0,0.0,0
11.0,-216.0,-144.0,-37.0,59.0,0.0,0
8.0,-214.0,-141.0,-38.0,57.0,1.0,0
9.0,-214.0,-145.0,-40.0,59.0,0.0,0
7.0,-217.0,-144.0,-41.0,61.0,0.0,0
7.0,-214.0,-144.0,-41.0,62.0,-1.0,0
9.0,-216.0,-142.0,-41.0,62.0,1.0,0
11.0,-214.0,-144.0,-42.0,64.0,1.0,0
10.0,-216.0,-145.0,-44.0,64.0,2.0,0
9.0,-217.0,-143.0,-44.0,66.0,2.0,0
9.0,-215.0,-143.0,-46.0,68.0,3.0,0
9.0,-213.0,-144.0,-46.0,66.0,3.0,0
8.0,-214.0,-141.0,-46.0,67.0,4.0,0
10.0,-214.0,-143.0,-46.0,68.0,5.0,0
8.0,-214.0,-148.0,-46.0,68.0,2.0,0
10.0,-216.0,-147.0,-43.0,68.0,3.0,0
10.0,-213.0,-143.0,-44.0,68.0,3.0,0
10.0,-215.0,-142.0,-44.0,66.0,3.0,0
13.0,-213.0,-145.0,-43.0,65.0,4.0,0
8.0,-213.0,-151.0,-43.0,65.0,3.0,0
12.0,-215.0,-146.0,-44.0,63.0,2.0,0
7.0,-215.0,-144.0,-42.0,60.0,0.0,0
9.0,-215.0,-144.0,-42.0,61.0,-1.0,0
10.0,-213.0,-143.0,-43.0,60.0,0.0,0
9.0,-212.0,-142.0,-42.0,59.0,-1.0,0
8.0,-213.0,-147.0,-42.0,58.0,-2.0,0
12.0,-214.0,-147.0,-44.0,57.0,-2.0,0
11.0,-214.0,-144.0,-43.0,58.0,-1.0,0
11.0,-213.0,-143.0,-44.0,58.0,-3.0,0
11.0,-213.0,-143.0,-44.0,59.0,-2.0,0
9.0,-213.0,-143.0,-45.0,58.0,-2.0,0
10.0,-214.0,-146.0,-45.0,58.0,-3.0,0
9.0,-215.0,-142.0,-44.0,59.0,-3.0,0
8.0,-212.0,-139.0,-44.0,61.0,-1.0,0
12.0,-215.0,-144.0,-42.0,61.0,-4.0,0
6.0,-212.0,-142.0,-41.0,63.0,-3.0,0
8.0,-214.0,-145.0,-39.0,63.0,-3.0,0
11.0,-215.0,-140.0,-36.0,64.0,-2.0,0
10.0,-216.0,-144.0,-34.0,64.0,-3.0,0
13.0,-213.0,-142.0,-32.0,62.0,-1.0,0
9.0,-216.0,-145.0,-27.0,63.0,-2.0,0
9.0,-215.0,-145.0,-24.0,64.0,-2.0,0
9.0,-214.0,-145.0,-22.0,64.0,-2.0,0
11.0,-213.0,-144.0,-21.0,64.0,-2.0,0
10.0,-214.0,-147.0,-21.0,65.0,-3.0,0
9.0,-214.0,-145.0,-21.0,67.0,-1.0,0
8.0,-211.0,-145.0,-22.0,69.0,-3.0,0
9.0,-216.0,-146.0,-24.0,68.0,-1.0,0
7.0,-210.0,-146.0,-24.0,70.0,-3.0,0
11.0,-214.0,-147.0,-25.0,70.0,-4.0,0
10.0,-213.0,-147.0,-25.0,71.0,-4.0,0
11.0,-210.0,-141.0,-23.0,71.0,-5.0,0
11.0,-212.0,-145.0,-21.0,70.0,-6.0,0
10.0,-214.0,-146.0,-19.0,70.0,-6.0,0
9.0,-215.0,-144.0,-16.0,70.0,-9.0,0
8.0,-211.0,-147.0,-12.0,70.0,-7.0,0
12.0,-213.0,-147.0,-9.0,68.0,-10.0,0
9.0,-212.0,-145.0,-6.0,67.0,-10.0,0
13.0,-212.0,-144.0,-4.0,67.0,-12.0,0
11.0,-216.0,-146.0,-1.0,66.0,-13.0,0
9.0,-214.0,-142.0,2.0,65.0,-15.0,0
8.0,-210.0,-149.0,5.0,63.0,-15.0,0
10.0,-215.0,-147.0,9.0,64.0,-17.0,0
10.0,-211.0,-143.0,10.0,63.0,-17.0,0
10.0,-212.0,-150.0,13.0,60.0,-20.0,0
8.0,-211.0,-146.0,14.0,60.0,-18.0,0
8.0,-212.0,-146.0,13.0,58.0,-19.0,0
12.0,-213.0,-142.0,11.0,58.0,-16.0,0
9.0,-211.0,-145.0,9.0,59.0,-16.0,0
12.0,-213.0,-142.0,6.0,59.0,-12.0,0
9.0,-215.0,-143.0,2.0,60.0,-12.0,0
8.0,-212.0,-146.0,0.0,59.0,-9.0,0
