ax,ay,az,gx,gy,gz,label
24.0,-260.0,5.0,-43.0,16.0,-6.0,0
23.0,-260.0,0.0,-43.0,17.0,-6.0,0
23.0,-260.0,4.0,-43.0,17.0,-7.0,0
22.0,-262.0,2.0,-44.0,18.0,-6.0,0
24.0,-257.0,5.0,-44.0,19.0,-7.0,0
13.0,-259.0,7.0,-44.0,18.0,-6.0,0
20.0,-259.0,3.0,-45.0,18.0,-8.0,0
22.0,-258.0,3.0,-44.0,19.0,-6.0,0
22.0,-260.0,3.0,-45.0,17.0,-7.0,0
23.0,-264.0,3.0,-47.0,17.0,-7.0,0
23.0,-258.0,7.0,-46.0,16.0,-7.0,0
20.0,-256.0,6.0,-45.0,16.0,-6.0,0
22.0,-260.0,3.0,-47.0,17.0,-7.0,0
22.0,-259.0,1.0,-47.0,17.0,-6.0,0
21.0,-257.0,0.0,-47.0,18.0,-6.0,0
23.0,-261.0,3.0,-47.0,19.0,-6.0,0
18.0,-259.0,0.0,-46.0,20.0,-6.0,0
22.0,-259.0,6.0,-46.0,20.0,-6.0,0
26.0,-259.0,7.0,-45.0,18.0,-7.0,0
21.0,-263.0,8.0,-45.0,17.0,-6.0,0
20.0,-262.0,3.0,-45.0,16.0,-6.0,0
21.0,-260.0,3.0,-45.0,17.0,-6.0,0
22.0,-262.0,8.0,-45.0,17.0,-5.0,0
21.0,-260.0,6.0,-44.0,17.0,-4.0,0
19.0,-258.0,2.0,-43.0,16.0,-5.0,0
22.0,-259.0,3.0,-44.0,16.0,-5.0,0
26.0,-258.0,4.0,-44.0,17.0,-6.0,0
23.0,-261.0,1.0,-43.0,16.0,-6.0,0
22.0,-258.0,2.0,-45.0,17.0,-5.0,0
19.0,-258.0,6.0,-46.0,18.0,-6.0,0
18.0,-256.0,4.0,-46.0,17.0,-6.0,0
22.0,-259.0,2.0,-47.0,17.0,-6.0,0
22.0,-259.0,3.0,-45.0,18.0,-5.0,0
19.0,-258.0,4.0,-45.0,17.0,-5.0,0
19.0,-258.0,0.0,-44.0,19.0,-5.0,0
24.0,-258.0,2.0,-43.0,19.0,-3.0,0
22.0,-258.0,6.0,-46.0,17.0,-6.0,0
23.0,-267.0,6.0,-45.0,18.0,-5.0,0
22.0,-260.0,3.0,-45.0,17.0,-6.0,0
19.0,-260.0,6.0,-43.0,18.0,-5.0,0
22.0,-259.0,4.0,-45.0,17.0,-4.0,0
21.0,-257.0,5.0,-45.0,18.0,-5.0,0
20.0,-258.0,2.0,-45.0,15.0,-4.0,0
21.0,-258.0,3.0,-45.0,15.0,-4.0,0
21.0,-259.0,1.0,-46.0,16.0,-5.0,0
20.0,-258.0,0.0,-46.0,16.0,-5.0,0
23.0,-261.0,4.0,-45.0,18.0,-5.0,0
24.0,-257.0,7.0,-46.0,18.0,-5.0,0
20.0,-260.0,6.0,-47.0,18.0,-4.0,0
20.0,-261.0,7.0,-46.0,18.0,-5.0,0
23.0,-262.0,6.0,-47.0,17.0,-4.0,0
21.0,-259.0,6.0,-45.0,16.0,-4.0,0
23.0,-260.0,4.0,-45.0,15.0,-3.0,0
22.0,-258.0,5.0,-43.0,15.0,-5.0,0
21.0,-256.0,2.0,-44.0,18.0,-4.0,0
21.0,-257.0,6.0,-44.0,17.0,-4.0,0
20.0,-259.0,1.0,-44.0,18.0,-5.0,0
20.0,-259.0,4.0,-44.0,18.0,-4.0,0
16.0,-264.0,8.0,-43.0,17.0,-5.0,0
18.0,-256.0,2.0,-44.0,18.0,-4.0,0
20.0,-259.0,4.0,-43.0,19.0,-4.0,0
20.0,-258.0,4.0,-44.0,18.0,-4.0,0
21.0,-258.0,8.0,-44.0,20.0,-3.0,0
23.0,-259.0,-2.0,-43.0,19.0,-4.0,0
23.0,-258.0,4.0,-44.0,20.0,-3.0,0
21.0,-259.0,3.0,-45.0,20.0,-3.0,0
20.0,-262.0,1.0,-46.0,19.0,-3.0,0
21.0,-261.0,10.0,-48.0,19.0,-2.0,0
22.0,-263.0,5.0,-48.0,17.0,-3.0,0
26.0,-259.0,4.0,-48.0,16.0,-2.0,0
18.0,-262.0,1.0,-48.0,17.0,-4.0,0
23.0,-261.0,3.0,-49.0,16.0,-4.0,0
21.0,-260.0,7.0,-49.0,15.0,-3.0,0
21.0,-258.0,4.0,-49.0,16.0,-4.0,0
22.0,-260.0,4.0,-50.0,16.0,-6.0,0
23.0,-260.0,3.0,-46.0,15.0,-4.0,0
24.0,-260.0,3.0,-45.0,17.0,-4.0,0
21.0,-261.0,4.0,-45.0,16.0,-5.0,0
23.0,-257.0,5.0,-44.0,16.0,-3.0,0
27.0,-261.0,4.0,-44.0,15.0,-4.0,0
19.0,-257.0,2.0,-44.0,15.0,-4.0,0
23.0,-258.0,4.0,-45.0,17.0,-3.0,0
19.0,-259.0,5.0,-46.0,18.0,-2.0,0
22.0,-259.0,2.0,-46.0,18.0,-1.0,0
20.0,-260.0,2.0,-47.0,18.0,-1.0,0
23.0,-259.0,5.0,-48.0,19.0,-1.0,0
21.0,-259.0,4.0,-49.0,19.0,-1.0,0
20.0,-260.0,5.0,-50.0,19.0,-1.0,0
24.0,-263.0,5.0,-50.0,20.0,-2.0,0
20.0,-259.0,11.0,-49.0,20.0,-2.0,0
18.0,-263.0,0.0,-49.0,20.0,-1.0,0
21.0,-261.0,7.0,-50.0,18.0,-3.0,0
21.0,-259.0,2.0,-50.0,17.0,-4.0,0
22.0,-261.0,5.0,-49.0,16.0,-3.0,0
23.0,-261.0,-2.0,-48.0,14.0,-4.0,0
22.0,-259.0,1.0,-48.0,13.0,-3.0,0
21.0,-257.0,-1.0,-47.0,12.0,-4.0,0
21.0,-261.0,0.0,-46.0,14.0,-4.0,0
17.0,-261.0,4.0,-47.0,15.0,-2.0,0
20.0,-256.0,2.0,-43.0,15.0,-4.0,0
20.0,-257.0,9.0,-44.0,16.0,-1.0,0
15.0,-255.0,4.0,-41.0,18.0,-3.0,0
23.0,-259.0,4.0,-40.0,20.0,-1.0,0
21.0,-258.0,3.0,-40.0,21.0,-5.0,0
21.0,-258.0,3.0,-39.0,23.0,-5.0,0
22.0,-261.0,7.0,-38.0,22.0,-4.0,0
24.0,-260.0,5.0,-39.0,22.0,-2.0,0
20.0,-258.0,-1.0,-39.0,22.0,-5.0,0
23.0,-260.0,4.0,-39.0,21.0,-4.0,0
23.0,-259.0,1.0,-40.0,21.0,-3.0,0
20.0,-257.0,1.0,-43.0,21.0,-4.0,0
15.0,-261.0,-6.0,-41.0,19.0,-4.0,0
24.0,-258.0,4.0,-42.0,19.0,-4.0,0
21.0,-258.0,1.0,-42.0,16.0,-4.0,0
21.0,-259.0,4.0,-43.0,17.0,-3.0,0
22.0,-259.0,2.0,-42.0,15.0,-3.0,0
21.0,-257.0,4.0,-41.0,15.0,-4.0,0
23.0,-258.0,3.0,-42.0,14.0,-5.0,0
20.0,-259.0,4.0,-41.0,15.0,-4.0,0
23.0,-258.0,0.0,-42.0,17.0,-5.0,0
23.0,-259.0,5.0,-42.0,17.0,-5.0,0
23.0,-259.0,3.0,-45.0,19.0,-5.0,0
22.0,-263.0,1.0,-43.0,19.0,-6.0,0
22.0,-257.0,3.0,-41.0,19.0,-4.0,0
22.0,-258.0,4.0,-44.0,19.0,-3.0,0
20.0,-260.0,2.0,-45.0,18.0,-4.0,0
20.0,-260.0,2.0,-44.0,18.0,-6.0,0
21.0,-257.0,6.0,-44.0,18.0,-6.0,0
20.0,-259.0,5.0,-43.0,18.0,-7.0,0
20.0,-260.0,3.0,-43.0,19.0,-6.0,0
21.0,-261.0,6.0,-43.0,16.0,-5.0,0
21.0,-258.0,10.0,-43.0,17.0,-3.0,0
19.0,-262.0,5.0,-45.0,17.0,-5.0,0
22.0,-259.0,8.0,-43.0,17.0,-6.0,0
21.0,-257.0,5.0,-45.0,17.0,-5.0,0
23.0,-259.0,4.0,-43.0,17.0,-4.0,0
21.0,-256.0,3.0,-46.0,17.0,-4.0,0
24.0,-260.0,7.0,-46.0,17.0,-5.0,0
24.0,-262.0,8.0,-47.0,17.0,-6.0,0
20.0,-259.0,8.0,-48.0,18.0,-5.0,0
20.0,-259.0,4.0,-48.0,16.0,-6.0,0
21.0,-257.0,4.0,-49.0,16.0,-5.0,0
19.0,-258.0,3.0,-50.0,17.0,-6.0,0
25.0,-256.0,8.0,-49.0,16.0,-7.0,0
21.0,-259.0,3.0,-50.0,15.0,-6.0,0
20.0,-258.0,4.0,-50.0,16.0,-5.0,0
21.0,-258.0,5.0,-50.0,16.0,-4.0,0
22.0,-259.0,6.0,-51.0,15.0,-5.0,0
19.0,-258.0,4.0,-50.0,15.0,-6.0,0
21.0,-257.0,2.0,-52.0,15.0,-5.0,0
21.0,-258.0,4.0,-50.0,15.0,-4.0,0
20.0,-257.0,2.0,-48.0,15.0,-3.0,0
19.0,-260.0,6.0,-50.0,15.0,-5.0,0
23.0,-261.0,1.0,-50.0,15.0,-5.0,0
22.0,-263.0,3.0,-50.0,15.0,-6.0,0
22.0,-260.0,7.0,-49.0,15.0,-5.0,0
22.0,-260.0,3.0,-46.0,16.0,-4.0,0
21.0,-260.0,2.0,-48.0,17.0,-6.0,0
22.0,-259.0,4.0,-48.0,17.0,-5.0,0
18.0,-258.0,2.0,-48.0,18.0,-7.0,0
23.0,-260.0,6.0,-48.0,20.0,-7.0,0
22.0,-258.0,2.0,-48.0,20.0,-6.0,0
21.0,-261.0,5.0,-47.0,19.0,-5.0,0
22.0,-259.0,3.0,-50.0,20.0,-6.0,0
21.0,-261.0,2.0,-48.0,19.0,-5.0,0
23.0,-261.0,7.0,-47.0,18.0,-5.0,0
21.0,-260.0,2.0,-48.0,16.0,-5.0,0
18.0,-257.0,8.0,-49.0,17.0,-6.0,0
23.0,-260.0,3.0,-48.0,15.0,-6.0,0
21.0,-260.0,6.0,-47.0,15.0,-7.0,0
20.0,-258.0,1.0,-47.0,14.0,-7.0,0
20.0,-260.0,2.0,-46.0,13.0,-6.0,0
22.0,-260.0,4.0,-46.0,14.0,-6.0,0
23.0,-259.0,3.0,-46.0,13.0,-5.0,0
22.0,-260.0,3.0,-46.0,13.0,-5.0,0
20.0,-264.0,3.0,-46.0,14.0,-5.0,0
22.0,-260.0,5.0,-46.0,15.0,-4.0,0
21.0,-259.0,3.0,-45.0,16.0,-4.0,0
24.0,-260.0,7.0,-45.0,17.0,-4.0,0
20.0,-258.0,4.0,-45.0,17.0,-5.0,0
20.0,-261.0,5.0,-46.0,17.0,-4.0,0
23.0,-258.0,3.0,-45.0,18.0,-5.0,0
22.0,-258.0,3.0,-46.0,18.0,-5.0,0
24.0,-260.0,3.0,-46.0,17.0,-5.0,0
21.0,-255.0,4.0,-46.0,18.0,-5.0,0
19.0,-259.0,7.0,-46.0,18.0,-5.0,0
19.0,-260.0,0.0,-48.0,17.0,-6.0,0
20.0,-259.0,4.0,-48.0,18.0,-5.0,0
18.0,-257.0,2.0,-48.0,18.0,-7.0,0
23.0,-260.0,4.0,-47.0,17.0,-6.0,0
21.0,-259.0,-1.0,-48.0,16.0,-6.0,0
20.0,-259.0,7.0,-48.0,16.0,-6.0,0
21.0,-261.0,9.0,-48.0,16.0,-5.0,0
23.0,-261.0,2.0,-47.0,15.0,-6.0,0
22.0,-258.0,0.0,-46.0,17.0,-5.0,0
21.0,-258.0,1.0,-46.0,17.0,-4.0,0
18.0,-259.0,3.0,-47.0,16.0,-5.0,0
20.0,-258.0,-1.0,-46.0,16.0,-5.0,0
23.0,-257.0,3.0,-47.0,17.0,-5.0,0
22.0,-259.0,1.0,-45.0,18.0,-5.0,0
22.0,-258.0,-1.0,-46.0,18.0,-5.0,0
19.0,-258.0,4.0,-47.0,17.0,-5.0,0
22.0,-260.0,2.0,-47.0,17.0,-5.0,0
22.0,-259.0,4.0,-46.0,15.0,-5.0,0
22.0,-258.0,3.0,-47.0,15.0,-5.0,0
20.0,-259.0,4.0,-45.0,16.0,-4.0,0
22.0,-264.0,7.0,-47.0,16.0,-5.0,0
23.0,-261.0,4.0,-48.0,15.0,-5.0,0
21.0,-260.0,2.0,-48.0,14.0,-6.0,0
19.0,-260.0,6.0,-47.0,15.0,-6.0,0
19.0,-257.0,-1.0,-47.0,15.0,-5.0,0
21.0,-261.0,3.0,-47.0,16.0,-6.0,0
20.0,-260.0,4.0,-47.0,14.0,-5.0,0
22.0,-260.0,6.0,-46.0,16.0,-5.0,0
22.0,-259.0,-1.0,-47.0,15.0,-5.0,0
23.0,-259.0,3.0,-47.0,15.0,-5.0,0
22.0,-258.0,4.0,-47.0,16.0,-5.0,0
19.0,-256.0,3.0,-45.0,18.0,-5.0,0
22.0,-260.0,4.0,-47.0,17.0,-4.0,0
23.0,-260.0,1.0,-48.0,17.0,-3.0,0
21.0,-257.0,-2.0,-45.0,18.0,-4.0,0
22.0,-259.0,3.0,-45.0,17.0,-4.0,0
24.0,-262.0,7.0,-47.0,17.0,-4.0,0
22.0,-260.0,1.0,-46.0,16.0,-5.0,0
22.0,-259.0,3.0,-46.0,16.0,-4.0,0
23.0,-259.0,5.0,-45.0,16.0,-5.0,0
21.0,-257.0,6.0,-45.0,15.0,-6.0,0
23.0,-260.0,3.0,-49.0,15.0,-4.0,0
14.0,-264.0,7.0,-48.0,14.0,-3.0,0
17.0,-258.0,5.0,-47.0,14.0,-3.0,0
20.0,-257.0,0.0,-47.0,14.0,-2.0,0
20.0,-258.0,2.0,-45.0,14.0,-3.0,0
21.0,-260.0,3.0,-44.0,13.0,-1.0,0
23.0,-258.0,5.0,-43.0,13.0,-3.0,0
23.0,-260.0,4.0,-44.0,15.0,-4.0,0
22.0,-259.0,2.0,-42.0,15.0,-4.0,0
20.0,-257.0,6.0,-41.0,16.0,-3.0,0
19.0,-259.0,4.0,-40.0,17.0,-5.0,0
20.0,-254.0,5.0,-41.0,18.0,-4.0,0
23.0,-263.0,9.0,-42.0,19.0,-4.0,0
22.0,-259.0,1.0,-43.0,20.0,-4.0,0
20.0,-259.0,6.0,-44.0,19.0,-5.0,0
23.0,-259.0,2.0,-46.0,19.0,-6.0,0
20.0,-258.0,2.0,-48.0,19.0,-5.0,0
22.0,-259.0,5.0,-47.0,20.0,-6.0,0
21.0,-258.0,2.0,-49.0,21.0,-6.0,0
24.0,-258.0,1.0,-49.0,19.0,-8.0,0
18.0,-260.0,3.0,-49.0,19.0,-7.0,0
20.0,-260.0,6.0,-46.0,17.0,-6.0,0
21.0,-259.0,6.0,-46.0,16.0,-6.0,0
24.0,-256.0,11.0,-46.0,15.0,-5.0,0
21.0,-258.0,-1.0,-46.0,14.0,-4.0,0
21.0,-260.0,-1.0,-47.0,11.0,-4.0,0
23.0,-260.0,4.0,-46.0,12.0,-5.0,0
18.0,-257.0,1.0,-43.0,13.0,-5.0,0
21.0,-259.0,3.0,-43.0,12.0,-5.0,0
20.0,-259.0,2.0,-42.0,14.0,-5.0,0
19.0,-258.0,4.0,-41.0,15.0,-4.0,0
20.0,-259.0,4.0,-41.0,16.0,-5.0,0
19.0,-258.0,8.0,-42.0,18.0,-2.0,0
24.0,-261.0,6.0,-41.0,20.0,-4.0,0
21.0,-261.0,0.0,-39.0,20.0,-4.0,0
22.0,-262.0,3.0,-39.0,20.0,-4.0,0
21.0,-261.0,4.0,-39.0,21.0,-4.0,0
21.0,-259.0,3.0,-37.0,21.0,-5.0,0
23.0,-259.0,2.0,-38.0,19.0,-5.0,0
21.0,-259.0,5.0,-40.0,19.0,-4.0,0
21.0,-258.0,3.0,-39.0,19.0,-4.0,0
22.0,-256.0,4.0,-40.0,18.0,-6.0,0
19.0,-258.0,5.0,-42.0,17.0,-6.0,0
22.0,-258.0,7.0,-42.0,16.0,-5.0,0
26.0,-257.0,7.0,-41.0,15.0,-5.0,0
20.0,-261.0,5.0,-41.0,14.0,-5.0,0
21.0,-261.0,4.0,-41.0,16.0,-6.0,0
19.0,-259.0,2.0,-42.0,17.0,-5.0,0
20.0,-261.0,4.0,-40.0,16.0,-6.0,0
19.0,-258.0,3.0,-40.0,16.0,-6.0,0
20.0,-258.0,5.0,-40.0,16.0,-5.0,0
23.0,-257.0,2.0,-41.0,17.0,-3.0,0
22.0,-258.0,2.0,-37.0,18.0,-4.0,0
21.0,-259.0,2.0,-40.0,19.0,-4.0,0
22.0,-258.0,1.0,-41.0,16.0,-4.0,0
17.0,-257.0,7.0,-40.0,17.0,-5.0,0
22.0,-259.0,5.0,-39.0,19.0,-5.0,0
22.0,-261.0,5.0,-38.0,19.0,-5.0,0
23.0,-259.0,6.0,-38.0,19.0,-5.0,0
22.0,-259.0,2.0,-37.0,20.0,-6.0,0
24.0,-263.0,3.0,-39.0,19.0,-6.0,0
19.0,-257.0,6.0,-40.0,19.0,-4.0,0
24.0,-259.0,5.0,-39.0,17.0,-4.0,0
22.0,-258.0,4.0,-39.0,18.0,-4.0,0
20.0,-258.0,3.0,-40.0,19.0,-4.0,0
21.0,-258.0,7.0,-40.0,18.0,-3.0,0
16.0,-260.0,6.0,-41.0,18.0,-5.0,0
22.0,-260.0,5.0,-41.0,18.0,-5.0,0
21.0,-259.0,6.0,-42.0,17.0,-6.0,0
19.0,-260.0,4.0,-43.0,17.0,-6.0,0
19.0,-262.0,6.0,-42.0,16.0,-6.0,0
22.0,-260.0,5.0,-44.0,15.0,-5.0,0
21.0,-262.0,3.0,-42.0,14.0,-4.0,0
21.0,-258.0,1.0,-44.0,14.0,-6.0,0
21.0,-260.0,0.0,-44.0,14.0,-6.0,0
22.0,-259.0,0.0,-43.0,15.0,-7.0,0
21.0,-257.0,4.0,-43.0,15.0,-5.0,0
20.0,-259.0,6.0,-42.0,16.0,-5.0,0
20.0,-259.0,3.0,-41.0,16.0,-5.0,0
21.0,-262.0,4.0,-41.0,16.0,-5.0,0
24.0,-261.0,2.0,-41.0,16.0,-4.0,0
25.0,-257.0,2.0,-43.0,16.0,-5.0,0
23.0,-261.0,7.0,-42.0,16.0,-5.0,0
19.0,-258.0,5.0,-43.0,17.0,-4.0,0
22.0,-258.0,7.0,-43.0,18.0,-4.0,0
22.0,-264.0,4.0,-42.0,17.0,-4.0,0
23.0,-257.0,1.0,-42.0,18.0,-6.0,0
21.0,-260.0,0.0,-42.0,18.0,-6.0,0
22.0,-262.0,1.0,-42.0,17.0,-5.0,0
20.0,-257.0,7.0,-41.0,17.0,-5.0,0
19.0,-261.0,5.0,-41.0,16.0,-5.0,0
21.0,-259.0,1.0,-40.0,17.0,-5.0,0
17.0,-258.0,6.0,-42.0,16.0,-5.0,0
22.0,-258.0,3.0,-41.0,16.0,-5.0,0
22.0,-262.0,3.0,-41.0,17.0,-5.0,0
20.0,-260.0,6.0,-41.0,16.0,-4.0,0
20.0,-259.0,3.0,-41.0,17.0,-4.0,0
21.0,-259.0,5.0,-40.0,17.0,-5.0,0
24.0,-262.0,8.0,-41.0,16.0,-6.0,0
21.0,-258.0,3.0,-40.0,17.0,-5.0,0
22.0,-259.0,7.0,-41.0,17.0,-5.0,0
18.0,-257.0,7.0,-43.0,17.0,-5.0,0
21.0,-258.0,1.0,-42.0,17.0,-7.0,0
22.0,-260.0,3.0,-42.0,18.0,-6.0,0
24.0,-260.0,3.0,-42.0,19.0,-7.0,0
20.0,-259.0,4.0,-41.0,20.0,-6.0,0
21.0,-258.0,5.0,-43.0,20.0,-5.0,0
24.0,-260.0,4.0,-42.0,21.0,-7.0,0
22.0,-264.0,6.0,-42.0,20.0,-5.0,0
20.0,-257.0,3.0,-42.0,20.0,-6.0,0
22.0,-261.0,8.0,-42.0,18.0,-4.0,0
22.0,-261.0,5.0,-43.0,17.0,-4.0,0
22.0,-258.0,4.0,-43.0,17.0,-6.0,0
19.0,-261.0,2.0,-42.0,17.0,-6.0,0
22.0,-259.0,5.0,-42.0,16.0,-6.0,0
22.0,-258.0,0.0,-42.0,17.0,-5.0,0
20.0,-258.0,2.0,-43.0,17.0,-6.0,0
22.0,-261.0,4.0,-42.0,17.0,-5.0,0
22.0,-260.0,7.0,-42.0,16.0,-4.0,0
20.0,-257.0,8.0,-43.0,18.0,-4.0,0
19.0,-258.0,1.0,-42.0,17.0,-3.0,0
21.0,-257.0,3.0,-43.0,17.0,-4.0,0
19.0,-257.0,5.0,-41.0,17.0,-4.0,0
20.0,-258.0,4.0,-42.0,18.0,-3.0,0
23.0,-260.0,1.0,-42.0,18.0,-3.0,0
18.0,-259.0,5.0,-39.0,19.0,-5.0,0
22.0,-261.0,5.0,-40.0,18.0,-6.0,0
22.0,-262.0,1.0,-41.0,18.0,-6.0,0
21.0,-257.0,6.0,-40.0,18.0,-6.0,0
20.0,-261.0,4.0,-40.0,16.0,-6.0,0
23.0,-257.0,8.0,-39.0,18.0,-4.0,0
10.0,-261.0,3.0,-41.0,17.0,-6.0,0
22.0,-259.0,2.0,-41.0,16.0,-5.0,0
16.0,-258.0,6.0,-39.0,15.0,-5.0,0
19.0,-260.0,3.0,-41.0,16.0,-6.0,0
23.0,-260.0,5.0,-42.0,17.0,-5.0,0
23.0,-259.0,5.0,-41.0,16.0,-6.0,0
20.0,-260.0,5.0,-41.0,16.0,-7.0,0
19.0,-259.0,5.0,-42.0,16.0,-6.0,0
21.0,-259.0,2.0,-43.0,16.0,-6.0,0
21.0,-263.0,4.0,-41.0,16.0,-5.0,0
21.0,-259.0,8.0,-42.0,17.0,-5.0,0
24.0,-258.0,-1.0,-41.0,19.0,-5.0,0
24.0,-259.0,5.0,-42.0,18.0,-4.0,0
20.0,-258.0,7.0,-41.0,19.0,-5.0,0
22.0,-259.0,8.0,-42.0,20.0,-4.0,0
22.0,-260.0,4.0,-41.0,20.0,-4.0,0
23.0,-259.0,5.0,-42.0,20.0,-3.0,0
25.0,-260.0,2.0,-41.0,21.0,-3.0,0
21.0,-257.0,5.0,-40.0,20.0,-5.0,0
22.0,-260.0,2.0,-40.0,19.0,-4.0,0
19.0,-263.0,0.0,-40.0,20.0,-4.0,0
21.0,-257.0,9.0,-40.0,19.0,-4.0,0
22.0,-262.0,1.0,-42.0,18.0,-4.0,0
21.0,-260.0,-1.0,-41.0,18.0,-4.0,0
20.0,-257.0,4.0,-41.0,17.0,-6.0,0
21.0,-257.0,3.0,-41.0,16.0,-5.0,0
22.0,-256.0,7.0,-43.0,14.0,-4.0,0
23.0,-259.0,7.0,-43.0,14.0,-5.0,0
21.0,-260.0,9.0,-43.0,15.0,-4.0,0
23.0,-257.0,7.0,-43.0,14.0,-4.0,0
20.0,-259.0,3.0,-42.0,15.0,-5.0,0
20.0,-261.0,8.0,-42.0,14.0,-4.0,0
25.0,-260.0,6.0,-43.0,14.0,-4.0,0
23.0,-263.0,3.0,-40.0,14.0,-3.0,0
20.0,-259.0,10.0,-39.0,16.0,-3.0,0
23.0,-260.0,6.0,-40.0,16.0,-3.0,0
19.0,-259.0,6.0,-39.0,16.0,-3.0,0
23.0,-259.0,5.0,-38.0,17.0,-4.0,0
21.0,-258.0,6.0,-40.0,19.0,-3.0,0
20.0,-257.0,6.0,-40.0,18.0,-4.0,0
22.0,-259.0,1.0,-42.0,18.0,-4.0,0
21.0,-259.0,10.0,-44.0,19.0,-4.0,0
21.0,-260.0,9.0,-45.0,19.0,-5.0,0
20.0,-259.0,5.0,-47.0,18.0,-6.0,0
18.0,-258.0,1.0,-46.0,20.0,-7.0,0
19.0,-258.0,6.0,-44.0,20.0,-6.0,0
22.0,-262.0,5.0,-42.0,19.0,-6.0,0
21.0,-260.0,4.0,-43.0,18.0,-5.0,0
20.0,-259.0,4.0,-42.0,18.0,-7.0,0
23.0,-260.0,-1.0,-43.0,17.0,-6.0,0
20.0,-259.0,3.0,-42.0,16.0,-5.0,0
20.0,-255.0,7.0,-44.0,16.0,-5.0,0
18.0,-259.0,1.0,-43.0,16.0,-5.0,0
22.0,-258.0,4.0,-42.0,15.0,-5.0,0
20.0,-258.0,7.0,-40.0,14.0,-5.0,0
19.0,-260.0,4.0,-38.0,15.0,-5.0,0
22.0,-259.0,4.0,-37.0,16.0,-3.0,0
22.0,-259.0,7.0,-37.0,18.0,-3.0,0
23.0,-260.0,6.0,-36.0,20.0,-5.0,0
21.0,-257.0,5.0,-36.0,20.0,-5.0,0
22.0,-259.0,2.0,-35.0,21.0,-5.0,0
21.0,-256.0,6.0,-34.0,21.0,-4.0,0
22.0,-258.0,5.0,-35.0,20.0,-6.0,0
18.0,-255.0,7.0,-34.0,19.0,-7.0,0
22.0,-258.0,1.0,-34.0,19.0,-7.0,0
21.0,-257.0,6.0,-37.0,19.0,-6.0,0
25.0,-259.0,4.0,-37.0,19.0,-6.0,0
21.0,-258.0,5.0,-37.0,19.0,-5.0,0
22.0,-259.0,2.0,-37.0,18.0,-6.0,0
22.0,-260.0,4.0,-37.0,17.0,-6.0,0
20.0,-258.0,7.0,-37.0,15.0,-6.0,0
23.0,-260.0,3.0,-38.0,15.0,-6.0,0
24.0,-260.0,6.0,-37.0,15.0,-6.0,0
22.0,-255.0,-1.0,-36.0,15.0,-6.0,0
21.0,-260.0,6.0,-36.0,14.0,-5.0,0
23.0,-259.0,7.0,-38.0,16.0,-7.0,0
21.0,-260.0,7.0,-37.0,17.0,-4.0,0
22.0,-258.0,2.0,-37.0,16.0,-5.0,0
22.0,-260.0,5.0,-37.0,18.0,-4.0,0
20.0,-259.0,4.0,-37.0,18.0,-5.0,0
23.0,-260.0,7.0,-38.0,18.0,-6.0,0
20.0,-258.0,5.0,-37.0,18.0,-4.0,0
20.0,-257.0,7.0,-35.0,18.0,-3.0,0
24.0,-259.0,7.0,-35.0,18.0,-5.0,0
28.0,-259.0,12.0,-36.0,18.0,-5.0,0
20.0,-258.0,9.0,-36.0,17.0,-6.0,0
19.0,-257.0,4.0,-35.0,18.0,-7.0,0
20.0,-259.0,7.0,-34.0,18.0,-7.0,0
20.0,-257.0,4.0,-34.0,19.0,-5.0,0
19.0,-259.0,5.0,-34.0,18.0,-5.0,0
22.0,-259.0,6.0,-34.0,17.0,-5.0,0
23.0,-258.0,5.0,-34.0,18.0,-6.0,0
23.0,-257.0,6.0,-35.0,18.0,-5.0,0
18.0,-257.0,2.0,-35.0,18.0,-4.0,0
21.0,-259.0,5.0,-36.0,19.0,-5.0,0
24.0,-252.0,1.0,-36.0,20.0,-5.0,0
24.0,-261.0,9.0,-36.0,21.0,-5.0,0
22.0,-258.0,-1.0,-36.0,21.0,-5.0,0
22.0,-260.0,5.0,-36.0,21.0,-5.0,0
21.0,-256.0,3.0,-37.0,21.0,-3.0,0
23.0,-257.0,5.0,-37.0,20.0,-5.0,0
23.0,-257.0,7.0,-37.0,21.0,-4.0,0
24.0,-262.0,4.0,-39.0,20.0,-5.0,0
20.0,-260.0,1.0,-39.0,18.0,-5.0,0
23.0,-258.0,4.0,-40.0,20.0,-4.0,0
20.0,-261.0,5.0,-41.0,21.0,-4.0,0
21.0,-257.0,8.0,-41.0,20.0,-4.0,0
21.0,-258.0,8.0,-41.0,20.0,-4.0,0
21.0,-260.0,5.0,-42.0,21.0,-3.0,0
20.0,-259.0,8.0,-43.0,20.0,-1.0,0
21.0,-256.0,5.0,-42.0,21.0,-1.0,0
20.0,-258.0,7.0,-43.0,19.0,0.0,0
22.0,-261.0,4.0,-43.0,19.0,2.0,0
24.0,-258.0,10.0,-42.0,20.0,3.0,0
22.0,-258.0,7.0,-42.0,20.0,2.0,0
23.0,-261.0,4.0,-42.0,19.0,3.0,0
24.0,-260.0,2.0,-40.0,20.0,4.0,0
24.0,-259.0,7.0,-38.0,20.0,4.0,0
23.0,-257.0,5.0,-36.0,18.0,3.0,0
25.0,-259.0,6.0,-36.0,18.0,2.0,0
19.0,-256.0,6.0,-37.0,18.0,2.0,0
20.0,-258.0,8.0,-38.0,18.0,2.0,0
20.0,-257.0,2.0,-38.0,17.0,2.0,0
16.0,-260.0,4.0,-41.0,16.0,1.0,0
20.0,-259.0,7.0,-41.0,17.0,-1.0,0
22.0,-259.0,7.0,-42.0,17.0,0.0,0
21.0,-259.0,2.0,-41.0,18.0,-2.0,0
23.0,-261.0,9.0,-44.0,19.0,-4.0,0
20.0,-258.0,10.0,-43.0,22.0,-4.0,0
18.0,-258.0,10.0,-42.0,22.0,-4.0,0
21.0,-256.0,3.0,-42.0,22.0,-6.0,0
22.0,-259.0,7.0,-42.0,21.0,-7.0,0
19.0,-260.0,6.0,-42.0,20.0,-8.0,0
20.0,-260.0,5.0,-42.0,21.0,-9.0,0
17.0,-256.0,5.0,-42.0,21.0,-7.0,0
19.0,-257.0,9.0,-42.0,21.0,-10.0,0
18.0,-257.0,-1.0,-41.0,21.0,-7.0,0
18.0,-256.0,11.0,-42.0,21.0,-8.0,0
19.0,-259.0,6.0,-39.0,22.0,-8.0,0
22.0,-259.0,8.0,-41.0,21.0,-8.0,0
17.0,-256.0,6.0,-41.0,22.0,-9.0,0
21.0,-258.0,9.0,-40.0,21.0,-8.0,0
21.0,-258.0,1.0,-40.0,21.0,-9.0,0
22.0,-259.0,4.0,-42.0,20.0,-9.0,0
19.0,-259.0,5.0,-43.0,22.0,-9.0,0
22.0,-257.0,9.0,-43.0,23.0,-9.0,0
24.0,-258.0,4.0,-43.0,24.0,-9.0,0
20.0,-260.0,2.0,-43.0,23.0,-9.0,0
18.0,-260.0,4.0,-42.0,22.0,-8.0,0
21.0,-258.0,3.0,-40.0,22.0,-9.0,0
20.0,-257.0,4.0,-41.0,21.0,-8.0,0
22.0,-263.0,7.0,-39.0,21.0,-8.0,0
21.0,-261.0,6.0,-39.0,19.0,-8.0,0
20.0,-259.0,2.0,-38.0,20.0,-8.0,0
18.0,-259.0,3.0,-37.0,19.0,-7.0,0
20.0,-258.0,4.0,-38.0,18.0,-7.0,0
23.0,-260.0,5.0,-37.0,19.0,-7.0,0
21.0,-262.0,2.0,-38.0,19.0,-6.0,0
17.0,-257.0,10.0,-38.0,19.0,-6.0,0
20.0,-261.0,5.0,-38.0,18.0,-7.0,0
23.0,-257.0,9.0,-37.0,18.0,-6.0,0
21.0,-260.0,8.0,-38.0,19.0,-6.0,0
22.0,-258.0,4.0,-37.0,20.0,-5.0,0
23.0,-258.0,2.0,-38.0,20.0,-7.0,0
19.0,-259.0,6.0,-38.0,20.0,-8.0,0
22.0,-259.0,3.0,-35.0,20.0,-8.0,0
22.0,-259.0,10.0,-38.0,19.0,-9.0,0
23.0,-258.0,5.0,-39.0,19.0,-10.0,0
22.0,-259.0,3.0,-39.0,18.0,-10.0,0
16.0,-258.0,10.0,-40.0,17.0,-10.0,0
24.0,-259.0,3.0,-40.0,15.0,-11.0,0
23.0,-260.0,7.0,-42.0,15.0,-10.0,0
21.0,-258.0,5.0,-43.0,15.0,-10.0,0
21.0,-259.0,9.0,-40.0,14.0,-11.0,0
20.0,-257.0,6.0,-41.0,14.0,-11.0,0
21.0,-258.0,4.0,-42.0,13.0,-11.0,0
23.0,-258.0,5.0,-43.0,12.0,-13.0,0
24.0,-260.0,9.0,-44.0,13.0,-15.0,0
21.0,-258.0,8.0,-44.0,14.0,-14.0,0
25.0,-260.0,6.0,-44.0,14.0,-15.0,0
28.0,-260.0,11.0,-43.0,11.0,-16.0,0
20.0,-257.0,6.0,-45.0,11.0,-18.0,0
22.0,-260.0,9.0,-47.0,10.0,-17.0,0
20.0,-258.0,5.0,-50.0,9.0,-18.0,0
21.0,-257.0,7.0,-50.0,8.0,-19.0,0
21.0,-258.0,11.0,-52.0,7.0,-20.0,0
21.0,-258.0,7.0,-55.0,7.0,-20.0,0
18.0,-259.0,8.0,-57.0,5.0,-22.0,0
23.0,-259.0,12.0,-56.0,3.0,-24.0,0
21.0,-259.0,5.0,-56.0,2.0,-25.0,0
22.0,-257.0,7.0,-59.0,0.0,-26.0,0
20.0,-258.0,2.0,-56.0,0.0,-28.0,0
22.0,-258.0,8.0,-57.0,-1.0,-30.0,0
23.0,-260.0,7.0,-57.0,-1.0,-33.0,0
24.0,-258.0,8.0,-56.0,1.0,-37.0,0
20.0,-258.0,8.0,-56.0,5.0,-38.0,0
22.0,-259.0,10.0,-54.0,11.0,-42.0,0
23.0,-263.0,7.0,-53.0,18.0,-45.0,0
22.0,-257.0,13.0,-54.0,21.0,-51.0,0
22.0,-257.0,15.0,-56.0,21.0,-57.0,0
21.0,-262.0,8.0,-60.0,19.0,-65.0,0
21.0,-260.0,16.0,-66.0,14.0,-73.0,0
16.0,-259.0,9.0,-73.0,10.0,-82.0,0
14.0,-262.0,12.0,-83.0,4.0,-89.0,0
13.0,-261.0,5.0,-93.0,-4.0,-99.0,0
8.0,-260.0,6.0,-105.0,-10.0,-107.0,0
10.0,-262.0,3.0,-118.0,-14.0,-114.0,0
7.0,-263.0,-1.0,-129.0,-16.0,-125.0,0
6.0,-265.0,0.0,-142.0,-18.0,-137.0,0
6.0,-268.0,-7.0,-151.0,-22.0,-146.0,0
1.0,-269.0,-3.0,-160.0,-26.0,-159.0,0
1.0,-274.0,-7.0,-166.0,-30.0,-172.0,0
3.0,-272.0,-10.0,-170.0,-30.0,-189.0,0
4.0,-274.0,-9.0,-173.0,-30.0,-201.0,0
1.0,-273.0,-12.0,-176.0,-27.0,-215.0,0
5.0,-276.0,-11.0,-173.0,-22.0,-231.0,0
5.0,-277.0,-9.0,-169.0,-18.0,-243.0,0
5.0,-275.0,-12.0,-166.0,-13.0,-254.0,0
1.0,-272.0,-4.0,-156.0,-12.0,-263.0,0
2.0,-274.0,-10.0,-142.0,-12.0,-271.0,0
12.0,-274.0,-11.0,-129.0,-11.0,-277.0,0
8.0,-265.0,1.0,-115.0,-15.0,-281.0,0
11.0,-270.0,-11.0,-97.0,-21.0,-283.0,0
1.0,-264.0,-3.0,-81.0,-27.0,-284.0,0
6.0,-262.0,0.0,-63.0,-35.0,-285.0,0
13.0,-262.0,-6.0,-50.0,-44.0,-283.0,0
15.0,-263.0,-1.0,-38.0,-48.0,-281.0,0
14.0,-258.0,-4.0,-30.0,-54.0,-279.0,0
15.0,-257.0,-5.0,-24.0,-54.0,-280.0,0
16.0,-258.0,-4.0,-20.0,-51.0,-282.0,0
20.0,-259.0,-8.0,-20.0,-49.0,-282.0,0
22.0,-257.0,-2.0,-24.0,-45.0,-281.0,0
19.0,-259.0,0.0,-33.0,-40.0,-281.0,0
24.0,-259.0,8.0,-41.0,-34.0,-279.0,0
26.0,-261.0,-1.0,-50.0,-29.0,-278.0,0
24.0,-261.0,-2.0,-56.0,-23.0,-277.0,0
24.0,-262.0,2.0,-61.0,-17.0,-276.0,0
23.0,-265.0,3.0,-64.0,-10.0,-273.0,0
28.0,-262.0,-2.0,-63.0,-2.0,-265.0,0
29.0,-260.0,2.0,-58.0,8.0,-254.0,0
32.0,-257.0,-5.0,-47.0,22.0,-239.0,0
35.0,-263.0,-2.0,-34.0,36.0,-223.0,0
38.0,-261.0,3.0,-26.0,45.0,-210.0,0
39.0,-260.0,-2.0,-20.0,50.0,-199.0,0
33.0,-262.0,0.0,-12.0,48.0,-188.0,0
36.0,-258.0,5.0,-3.0,40.0,-175.0,0
40.0,-261.0,4.0,15.0,30.0,-158.0,0
42.0,-255.0,5.0,38.0,26.0,-140.0,0
44.0,-257.0,0.0,59.0,26.0,-121.0,0
44.0,-255.0,7.0,80.0,29.0,-101.0,0
47.0,-257.0,5.0,95.0,30.0,-79.0,0
43.0,-254.0,2.0,110.0,31.0,-59.0,0
45.0,-252.0,5.0,120.0,29.0,-38.0,0
46.0,-251.0,0.0,125.0,30.0,-16.0,0
50.0,-253.0,5.0,125.0,29.0,5.0,0
53.0,-256.0,3.0,117.0,27.0,27.0,0
52.0,-250.0,3.0,106.0,25.0,46.0,0
56.0,-249.0,2.0,90.0,22.0,65.0,0
55.0,-250.0,-1.0,76.0,18.0,87.0,0
56.0,-251.0,3.0,62.0,16.0,110.0,0
58.0,-251.0,-4.0,52.0,17.0,132.0,0
62.0,-252.0,3.0,45.0,19.0,156.0,0
63.0,-248.0,3.0,45.0,21.0,178.0,0
67.0,-253.0,6.0,48.0,22.0,202.0,0
66.0,-249.0,6.0,53.0,26.0,226.0,0
68.0,-249.0,4.0,60.0,29.0,250.0,0
69.0,-251.0,5.0,70.0,36.0,276.0,0
66.0,-248.0,5.0,76.0,42.0,302.0,0
68.0,-248.0,8.0,79.0,53.0,330.0,0
68.0,-243.0,7.0,81.0,63.0,356.0,0
68.0,-245.0,10.0,83.0,77.0,382.0,0
65.0,-242.0,11.0,83.0,91.0,413.0,0
71.0,-241.0,12.0,78.0,107.0,446.0,0
69.0,-235.0,9.0,69.0,122.0,480.0,0
72.0,-233.0,14.0,45.0,138.0,516.0,0
72.0,-229.0,16.0,8.0,154.0,556.0,0
80.0,-228.0,23.0,-37.0,174.0,595.0,0
81.0,-226.0,19.0,-93.0,193.0,636.0,0
84.0,-224.0,22.0,-149.0,215.0,684.0,0
89.0,-225.0,26.0,-201.0,232.0,733.0,0
95.0,-222.0,28.0,-247.0,247.0,781.0,0
100.0,-226.0,24.0,-292.0,259.0,827.0,0
104.0,-229.0,32.0,-338.0,268.0,869.0,0
108.0,-230.0,29.0,-385.0,267.0,905.0,0
110.0,-238.0,27.0,-424.0,260.0,937.0,0
115.0,-248.0,25.0,-448.0,258.0,963.0,0
120.0,-256.0,27.0,-449.0,257.0,985.0,0
118.0,-265.0,15.0,-424.0,255.0,990.0,0
121.0,-283.0,17.0,-370.0,251.0,980.0,0
121.0,-303.0,18.0,-296.0,246.0,953.0,0
118.0,-321.0,16.0,-203.0,243.0,906.0,0
110.0,-333.0,16.0,-115.0,243.0,842.0,0
94.0,-339.0,11.0,-43.0,250.0,779.0,0
73.0,-337.0,11.0,4.0,270.0,724.0,0
51.0,-326.0,6.0,23.0,296.0,687.0,0
37.0,-321.0,6.0,19.0,312.0,675.0,0
28.0,-311.0,1.0,14.0,303.0,686.0,0
25.0,-305.0,-1.0,13.0,280.0,717.0,0
23.0,-287.0,-5.0,20.0,259.0,751.0,0
23.0,-283.0,-5.0,35.0,252.0,796.0,0
29.0,-275.0,-6.0,56.0,281.0,862.0,0
27.0,-270.0,-7.0,78.0,349.0,920.0,0
31.0,-269.0,-2.0,91.0,434.0,974.0,0
33.0,-267.0,-3.0,90.0,514.0,1023.0,0
32.0,-268.0,3.0,83.0,577.0,1059.0,0
33.0,-269.0,6.0,81.0,624.0,1084.0,0
34.0,-266.0,4.0,86.0,663.0,1105.0,0
31.0,-263.0,-2.0,100.0,713.0,1114.0,0
27.0,-261.0,-6.0,120.0,759.0,1115.0,0
24.0,-260.0,-1.0,145.0,806.0,1116.0,0
20.0,-253.0,-5.0,174.0,849.0,1110.0,0
14.0,-254.0,-3.0,200.0,895.0,1102.0,0
6.0,-250.0,-2.0,221.0,937.0,1097.0,0
-2.0,-247.0,1.0,236.0,973.0,1084.0,0
-7.0,-245.0,1.0,249.0,1003.0,1073.0,0
-14.0,-240.0,4.0,263.0,1026.0,1059.0,0
-17.0,-238.0,9.0,273.0,1045.0,1047.0,0
-17.0,-245.0,5.0,284.0,1057.0,1037.0,0
-24.0,-242.0,10.0,296.0,1062.0,1031.0,0
-26.0,-242.0,17.0,306.0,1073.0,1024.0,0
-33.0,-243.0,14.0,314.0,1077.0,1022.0,0
-39.0,-248.0,13.0,325.0,1081.0,1023.0,0
-36.0,-250.0,16.0,334.0,1088.0,1028.0,0
-32.0,-252.0,18.0,346.0,1095.0,1026.0,0
-28.0,-256.0,21.0,358.0,1104.0,1024.0,0
-30.0,-257.0,6.0,371.0,1106.0,1024.0,0
-31.0,-267.0,11.0,389.0,1101.0,1021.0,0
-38.0,-272.0,12.0,418.0,1079.0,1025.0,0
-46.0,-278.0,5.0,449.0,1049.0,1042.0,0
-52.0,-280.0,-1.0,480.0,1018.0,1061.0,0
-58.0,-284.0,-1.0,503.0,993.0,1080.0,0
-70.0,-283.0,5.0,507.0,974.0,1101.0,0
-77.0,-287.0,6.0,504.0,961.0,1133.0,0
-86.0,-280.0,10.0,497.0,950.0,1168.0,0
-91.0,-279.0,12.0,482.0,942.0,1204.0,0
-88.0,-275.0,17.0,460.0,935.0,1238.0,0
-85.0,-270.0,17.0,441.0,940.0,1270.0,0
-86.0,-258.0,22.0,424.0,949.0,1297.0,0
-83.0,-252.0,27.0,410.0,961.0,1321.0,0
-82.0,-236.0,27.0,398.0,973.0,1338.0,0
-72.0,-230.0,26.0,393.0,992.0,1355.0,0
-70.0,-220.0,29.0,389.0,1000.0,1366.0,0
-60.0,-212.0,25.0,367.0,1026.0,1353.0,0
-76.0,-206.0,27.0,351.0,1052.0,1353.0,0
-72.0,-207.0,25.0,338.0,1043.0,1374.0,0
-70.0,-207.0,25.0,312.0,1048.0,1393.0,0
-75.0,-202.0,20.0,266.0,1064.0,1403.0,0
-74.0,-202.0,18.0,199.0,1080.0,1411.0,0
-81.0,-199.0,15.0,131.0,1099.0,1420.0,0
-90.0,-204.0,16.0,62.0,1114.0,1438.0,0
-94.0,-203.0,10.0,-1.0,1123.0,1456.0,0
-103.0,-208.0,-1.0,-58.0,1126.0,1481.0,0
-107.0,-206.0,-12.0,-109.0,1132.0,1508.0,0
-113.0,-205.0,-2.0,-162.0,1144.0,1538.0,0
-115.0,-206.0,-3.0,-212.0,1163.0,1568.0,0
-123.0,-202.0,-5.0,-266.0,1175.0,1597.0,0
-126.0,-206.0,-3.0,-323.0,1188.0,1632.0,0
-124.0,-208.0,-3.0,-376.0,1204.0,1663.0,0
-127.0,-213.0,-2.0,-419.0,1215.0,1695.0,0
-119.0,-212.0,-2.0,-453.0,1215.0,1726.0,0
-125.0,-209.0,6.0,-470.0,1219.0,1759.0,0
-141.0,-207.0,9.0,-483.0,1211.0,1793.0,0
-117.0,-212.0,9.0,-491.0,1182.0,1832.0,0
-122.0,-212.0,-1.0,-480.0,1192.0,1869.0,0
-124.0,-206.0,2.0,-458.0,1213.0,1900.0,0
-129.0,-200.0,-2.0,-440.0,1228.0,1931.0,0
-130.0,-197.0,-2.0,-437.0,1232.0,1962.0,0
-137.0,-192.0,-10.0,-442.0,1229.0,1991.0,0
-144.0,-192.0,-7.0,-451.0,1220.0,2015.0,0
-149.0,-192.0,-19.0,-451.0,1203.0,2037.0,0
-160.0,-192.0,-24.0,-443.0,1178.0,2052.0,0
-173.0,-193.0,-26.0,-422.0,1146.0,2058.0,0
-183.0,-193.0,-36.0,-394.0,1103.0,2056.0,0
-194.0,-188.0,-35.0,-360.0,1063.0,2049.0,0
-203.0,-192.0,-42.0,-317.0,1022.0,2037.0,0
-207.0,-193.0,-44.0,-273.0,986.0,2023.0,0
-212.0,-189.0,-48.0,-226.0,956.0,2002.0,0
-212.0,-187.0,-48.0,-183.0,929.0,1974.0,0
-212.0,-185.0,-52.0,-154.0,898.0,1935.0,0
-207.0,-179.0,-51.0,-141.0,865.0,1890.0,0
-207.0,-172.0,-45.0,-143.0,839.0,1831.0,0
-223.0,-171.0,-42.0,-147.0,822.0,1768.0,0
-217.0,-173.0,-42.0,-128.0,788.0,1730.0,0
-221.0,-165.0,-56.0,-100.0,748.0,1697.0,0
-210.0,-169.0,-54.0,-96.0,710.0,1665.0,0
-214.0,-169.0,-69.0,-98.0,698.0,1637.0,0
-208.0,-167.0,-67.0,-102.0,677.0,1618.0,0
-205.0,-164.0,-75.0,-110.0,644.0,1602.0,0
-203.0,-163.0,-68.0,-123.0,596.0,1590.0,0
-202.0,-156.0,-62.0,-111.0,549.0,1585.0,0
-195.0,-150.0,-66.0,-93.0,512.0,1581.0,0
-195.0,-141.0,-70.0,-72.0,467.0,1579.0,0
-194.0,-134.0,-67.0,-61.0,419.0,1577.0,0
-192.0,-131.0,-70.0,-59.0,382.0,1573.0,0
-192.0,-128.0,-62.0,-66.0,360.0,1571.0,0
-194.0,-127.0,-68.0,-76.0,349.0,1565.0,0
-192.0,-128.0,-66.0,-99.0,343.0,1558.0,0
-191.0,-130.0,-70.0,-126.0,341.0,1548.0,0
-191.0,-137.0,-61.0,-154.0,343.0,1539.0,0
-186.0,-143.0,-76.0,-176.0,344.0,1524.0,0
-192.0,-151.0,-76.0,-193.0,344.0,1507.0,0
-190.0,-153.0,-77.0,-208.0,340.0,1493.0,0
-193.0,-155.0,-74.0,-211.0,327.0,1475.0,0
-194.0,-153.0,-84.0,-198.0,306.0,1460.0,0
-198.0,-153.0,-79.0,-173.0,284.0,1446.0,0
-198.0,-148.0,-85.0,-145.0,268.0,1434.0,0
-200.0,-141.0,-86.0,-118.0,265.0,1422.0,0
-204.0,-139.0,-83.0,-103.0,275.0,1408.0,0
-206.0,-132.0,-84.0,-96.0,287.0,1391.0,0
-208.0,-129.0,-78.0,-97.0,295.0,1371.0,0
-209.0,-125.0,-80.0,-101.0,297.0,1352.0,0
-211.0,-123.0,-74.0,-108.0,293.0,1337.0,0
-212.0,-118.0,-70.0,-110.0,275.0,1317.0,0
-212.0,-117.0,-68.0,-110.0,249.0,1296.0,0
-208.0,-113.0,-62.0,-103.0,219.0,1275.0,0
-210.0,-109.0,-57.0,-89.0,186.0,1247.0,0
-215.0,-109.0,-58.0,-69.0,152.0,1220.0,0
-220.0,-103.0,-66.0,-46.0,114.0,1191.0,0
-227.0,-103.0,-62.0,-24.0,70.0,1159.0,0
-235.0,-97.0,-62.0,-7.0,27.0,1127.0,0
-239.0,-95.0,-67.0,2.0,-9.0,1100.0,0
-246.0,-90.0,-74.0,-3.0,-38.0,1069.0,0
-249.0,-91.0,-69.0,-16.0,-58.0,1042.0,0
-254.0,-87.0,-71.0,-39.0,-66.0,1017.0,0
-256.0,-86.0,-70.0,-69.0,-65.0,991.0,0
-256.0,-88.0,-69.0,-94.0,-63.0,967.0,0
-255.0,-83.0,-66.0,-111.0,-65.0,946.0,0
-254.0,-81.0,-64.0,-116.0,-69.0,930.0,0
-247.0,-75.0,-78.0,-117.0,-79.0,919.0,0
-251.0,-78.0,-71.0,-116.0,-96.0,912.0,0
-247.0,-76.0,-71.0,-118.0,-113.0,912.0,0
-243.0,-74.0,-66.0,-112.0,-132.0,915.0,0
-243.0,-69.0,-65.0,-105.0,-148.0,921.0,0
-242.0,-68.0,-58.0,-100.0,-166.0,932.0,0
-242.0,-65.0,-58.0,-96.0,-179.0,946.0,0
-244.0,-67.0,-56.0,-89.0,-194.0,960.0,0
-245.0,-64.0,-48.0,-86.0,-208.0,974.0,0
-245.0,-63.0,-54.0,-84.0,-223.0,989.0,0
-243.0,-60.0,-49.0,-83.0,-232.0,1003.0,0
-247.0,-61.0,-43.0,-85.0,-236.0,1015.0,0
-249.0,-63.0,-48.0,-87.0,-235.0,1026.0,0
-250.0,-64.0,-53.0,-89.0,-230.0,1037.0,0
-254.0,-64.0,-49.0,-92.0,-219.0,1045.0,0
-256.0,-64.0,-57.0,-90.0,-204.0,1050.0,0
-264.0,-64.0,-78.0,-81.0,-201.0,1048.0,0
-273.0,-57.0,-88.0,-68.0,-223.0,1031.0,0
-278.0,-49.0,-79.0,-49.0,-276.0,999.0,0
-285.0,-40.0,-62.0,-14.0,-347.0,957.0,0
-292.0,-36.0,-54.0,47.0,-433.0,914.0,0
-305.0,-24.0,-55.0,120.0,-522.0,844.0,0
-325.0,-12.0,-58.0,158.0,-579.0,744.0,0
-338.0,2.0,-50.0,153.0,-580.0,627.0,0
-356.0,9.0,-41.0,129.0,-520.0,500.0,0
-370.0,6.0,-39.0,103.0,-429.0,371.0,0
-362.0,2.0,-50.0,76.0,-322.0,251.0,0
-364.0,3.0,-23.0,23.0,-200.0,147.0,0
-345.0,0.0,-15.0,14.0,-61.0,72.0,0
-330.0,4.0,-4.0,7.0,81.0,7.0,0
-315.0,8.0,14.0,12.0,200.0,-45.0,0
-287.0,17.0,20.0,48.0,286.0,-79.0,0
-266.0,20.0,22.0,94.0,326.0,-105.0,0
-243.0,28.0,24.0,146.0,327.0,-117.0,0
-240.0,26.0,18.0,192.0,289.0,-121.0,0
-228.0,25.0,14.0,229.0,208.0,-121.0,0
-227.0,25.0,3.0,253.0,96.0,-114.0,0
-225.0,17.0,-3.0,265.0,-25.0,-110.0,0
-227.0,7.0,-13.0,269.0,-149.0,-106.0,0
-231.0,-3.0,-22.0,265.0,-265.0,-95.0,0
-238.0,-22.0,-23.0,257.0,-364.0,-82.0,0
-245.0,-36.0,-25.0,251.0,-449.0,-59.0,0
-252.0,-57.0,-26.0,246.0,-518.0,-33.0,0
-263.0,-63.0,-19.0,243.0,-572.0,-2.0,0
-268.0,-80.0,-23.0,256.0,-613.0,33.0,0
-266.0,-90.0,-19.0,301.0,-638.0,68.0,0
-270.0,-86.0,-22.0,363.0,-642.0,102.0,0
-269.0,-78.0,-31.0,417.0,-637.0,128.0,0
-267.0,-63.0,-35.0,437.0,-625.0,147.0,0
-266.0,-49.0,-41.0,420.0,-607.0,158.0,0
-268.0,-41.0,-37.0,377.0,-588.0,163.0,0
-263.0,-33.0,-37.0,326.0,-565.0,164.0,0
-261.0,-33.0,-39.0,276.0,-535.0,162.0,0
-267.0,-26.0,-41.0,237.0,-505.0,156.0,0
-262.0,-28.0,-40.0,206.0,-477.0,149.0,0
-260.0,-38.0,-41.0,183.0,-446.0,139.0,0
-263.0,-42.0,-36.0,164.0,-413.0,127.0,0
-261.0,-45.0,-36.0,157.0,-375.0,119.0,0
-263.0,-46.0,-41.0,152.0,-333.0,114.0,0
-263.0,-49.0,-42.0,146.0,-293.0,111.0,0
-265.0,-46.0,-43.0,137.0,-253.0,112.0,0
-259.0,-47.0,-44.0,122.0,-212.0,110.0,0
-262.0,-42.0,-41.0,98.0,-182.0,108.0,0
-259.0,-38.0,-38.0,67.0,-161.0,102.0,0
-256.0,-36.0,-36.0,32.0,-149.0,93.0,0
-258.0,-36.0,-34.0,-7.0,-149.0,77.0,0
-256.0,-29.0,-23.0,-45.0,-160.0,55.0,0
-256.0,-28.0,-20.0,-82.0,-183.0,24.0,0
-258.0,-29.0,-18.0,-120.0,-207.0,-2.0,0
-261.0,-32.0,-12.0,-149.0,-228.0,-28.0,0
-265.0,-34.0,-9.0,-167.0,-254.0,-61.0,0
-269.0,-40.0,-4.0,-187.0,-289.0,-95.0,0
-268.0,-42.0,3.0,-200.0,-320.0,-127.0,0
-282.0,-48.0,-4.0,-208.0,-353.0,-161.0,0
-305.0,-41.0,7.0,-207.0,-390.0,-194.0,0
-311.0,-46.0,1.0,-185.0,-440.0,-183.0,0
-302.0,-51.0,-1.0,-173.0,-486.0,-155.0,0
-293.0,-50.0,-9.0,-177.0,-505.0,-129.0,0
-282.0,-53.0,-10.0,-190.0,-481.0,-96.0,0
-273.0,-56.0,-9.0,-199.0,-423.0,-64.0,0
-265.0,-58.0,-5.0,-198.0,-352.0,-34.0,0
-257.0,-56.0,-3.0,-194.0,-285.0,-11.0,0
-243.0,-53.0,-3.0,-196.0,-233.0,3.0,0
-232.0,-51.0,6.0,-208.0,-199.0,5.0,0
-220.0,-56.0,4.0,-224.0,-181.0,-3.0,0
-211.0,-58.0,12.0,-241.0,-173.0,-14.0,0
-209.0,-63.0,9.0,-258.0,-163.0,-24.0,0
-205.0,-65.0,7.0,-279.0,-153.0,-33.0,0
-207.0,-68.0,8.0,-299.0,-139.0,-45.0,0
-211.0,-71.0,13.0,-321.0,-127.0,-53.0,0
-214.0,-74.0,17.0,-335.0,-122.0,-59.0,0
-225.0,-70.0,20.0,-335.0,-127.0,-57.0,0
-234.0,-72.0,18.0,-321.0,-139.0,-50.0,0
-242.0,-67.0,23.0,-306.0,-154.0,-37.0,0
-247.0,-69.0,18.0,-288.0,-167.0,-20.0,0
-252.0,-71.0,19.0,-272.0,-179.0,-1.0,0
-256.0,-71.0,16.0,-255.0,-187.0,18.0,0
-259.0,-71.0,18.0,-241.0,-191.0,34.0,0
-259.0,-76.0,12.0,-230.0,-199.0,47.0,0
-259.0,-76.0,13.0,-223.0,-205.0,57.0,0
-256.0,-76.0,12.0,-214.0,-213.0,62.0,0
-254.0,-80.0,10.0,-203.0,-220.0,61.0,0
-253.0,-77.0,6.0,-191.0,-224.0,55.0,0
-248.0,-76.0,4.0,-180.0,-225.0,46.0,0
-248.0,-75.0,3.0,-173.0,-223.0,34.0,0
-243.0,-74.0,3.0,-169.0,-216.0,22.0,0
-243.0,-73.0,-1.0,-170.0,-203.0,10.0,0
-242.0,-76.0,5.0,-174.0,-189.0,-3.0,0
-241.0,-71.0,-3.0,-179.0,-172.0,-15.0,0
-239.0,-80.0,3.0,-182.0,-153.0,-25.0,0
-237.0,-81.0,8.0,-180.0,-135.0,-33.0,0
-237.0,-83.0,4.0,-178.0,-114.0,-41.0,0
-238.0,-86.0,3.0,-172.0,-91.0,-45.0,0
-235.0,-86.0,5.0,-161.0,-64.0,-46.0,0
-238.0,-90.0,4.0,-151.0,-37.0,-47.0,0
-238.0,-89.0,8.0,-143.0,-9.0,-48.0,0
-237.0,-88.0,3.0,-133.0,19.0,-47.0,0
-239.0,-90.0,-5.0,-123.0,45.0,-44.0,0
-240.0,-89.0,-3.0,-107.0,69.0,-38.0,0
-240.0,-86.0,-5.0,-93.0,94.0,-31.0,0
-242.0,-84.0,1.0,-73.0,121.0,-24.0,0
-244.0,-79.0,1.0,-52.0,148.0,-17.0,0
-245.0,-78.0,4.0,-36.0,172.0,-9.0,0
-242.0,-75.0,-3.0,-23.0,197.0,0.0,0
-246.0,-71.0,1.0,-13.0,222.0,7.0,0
-243.0,-71.0,1.0,-7.0,243.0,13.0,0
-246.0,-69.0,-2.0,-4.0,260.0,17.0,0
-243.0,-68.0,-1.0,-4.0,272.0,19.0,0
-247.0,-65.0,-2.0,-7.0,279.0,22.0,0
-243.0,-68.0,-8.0,-5.0,281.0,22.0,0
-242.0,-60.0,5.0,-5.0,278.0,23.0,0
-248.0,-64.0,-2.0,-3.0,268.0,24.0,0
-248.0,-65.0,-1.0,2.0,257.0,26.0,0
-249.0,-64.0,1.0,4.0,245.0,27.0,0
-249.0,-64.0,-5.0,6.0,233.0,29.0,0
-252.0,-63.0,-2.0,8.0,217.0,29.0,0
-252.0,-62.0,-5.0,7.0,205.0,32.0,0
-256.0,-60.0,-3.0,8.0,194.0,34.0,0
-255.0,-57.0,2.0,8.0,186.0,35.0,0
-254.0,-62.0,-8.0,9.0,181.0,38.0,0
-258.0,-57.0,-9.0,10.0,183.0,40.0,0
-252.0,-54.0,-7.0,9.0,183.0,42.0,0
-257.0,-57.0,-10.0,7.0,183.0,43.0,0
-257.0,-56.0,-11.0,3.0,184.0,43.0,0
-258.0,-54.0,-13.0,-2.0,184.0,44.0,0
-258.0,-52.0,-13.0,-9.0,180.0,43.0,0
-258.0,-55.0,-12.0,-17.0,178.0,42.0,0
-260.0,-52.0,-14.0,-23.0,176.0,42.0,0
-257.0,-54.0,-16.0,-29.0,175.0,39.0,0
-261.0,-53.0,-14.0,-39.0,175.0,38.0,0
-261.0,-53.0,-18.0,-45.0,174.0,38.0,0
-261.0,-53.0,-16.0,-52.0,174.0,38.0,0
-260.0,-53.0,-17.0,-58.0,171.0,37.0,0
-259.0,-51.0,-21.0,-65.0,168.0,36.0,0
-258.0,-54.0,-20.0,-71.0,163.0,34.0,0
-258.0,-53.0,-17.0,-78.0,160.0,31.0,0
-257.0,-51.0,-16.0,-85.0,154.0,29.0,0
-262.0,-51.0,-15.0,-93.0,149.0,27.0,0
-261.0,-52.0,-16.0,-96.0,144.0,25.0,0
-261.0,-51.0,-15.0,-99.0,138.0,26.0,0
-262.0,-50.0,-15.0,-101.0,131.0,21.0,0
-260.0,-49.0,-17.0,-103.0,120.0,19.0,0
-261.0,-54.0,-19.0,-104.0,111.0,17.0,0
-260.0,-52.0,-18.0,-105.0,99.0,14.0,0
-260.0,-51.0,-17.0,-106.0,87.0,11.0,0
-260.0,-55.0,-17.0,-108.0,74.0,7.0,0
-261.0,-52.0,-18.0,-106.0,61.0,3.0,0
-259.0,-55.0,-16.0,-105.0,48.0,-2.0,0
-262.0,-55.0,-16.0,-105.0,37.0,-5.0,0
-263.0,-55.0,-23.0,-107.0,26.0,-10.0,0
-262.0,-56.0,-20.0,-108.0,14.0,-16.0,0
-263.0,-55.0,-21.0,-109.0,3.0,-19.0,0
-261.0,-57.0,-21.0,-109.0,-10.0,-25.0,0
-264.0,-57.0,-21.0,-109.0,-21.0,-30.0,0
-261.0,-56.0,-19.0,-106.0,-32.0,-35.0,0
-261.0,-56.0,-18.0,-105.0,-40.0,-41.0,0
-256.0,-59.0,-21.0,-102.0,-51.0,-46.0,0
-259.0,-56.0,-21.0,-101.0,-60.0,-53.0,0
-261.0,-57.0,-19.0,-98.0,-68.0,-57.0,0
-257.0,-57.0,-22.0,-101.0,-76.0,-63.0,0
-262.0,-57.0,-19.0,-103.0,-81.0,-66.0,0
-260.0,-56.0,-21.0,-102.0,-84.0,-69.0,0
-256.0,-60.0,-23.0,-103.0,-82.0,-72.0,0
-257.0,-56.0,-21.0,-101.0,-81.0,-74.0,0
-258.0,-56.0,-21.0,-100.0,-81.0,-75.0,0
-259.0,-54.0,-15.0,-103.0,-81.0,-74.0,0
-254.0,-57.0,-17.0,-105.0,-83.0,-71.0,0
-258.0,-56.0,-16.0,-110.0,-87.0,-69.0,0
-258.0,-56.0,-16.0,-116.0,-90.0,-68.0,0
-255.0,-57.0,-16.0,-125.0,-96.0,-66.0,0
-254.0,-65.0,-14.0,-134.0,-98.0,-63.0,0
-252.0,-60.0,-14.0,-141.0,-102.0,-60.0,0
-255.0,-65.0,-14.0,-145.0,-105.0,-58.0,0
-250.0,-63.0,-19.0,-145.0,-109.0,-56.0,0
-248.0,-66.0,-9.0,-144.0,-111.0,-55.0,0
-251.0,-68.0,-15.0,-141.0,-112.0,-53.0,0
-254.0,-67.0,-15.0,-136.0,-111.0,-50.0,0
-251.0,-71.0,-15.0,-128.0,-114.0,-48.0,0
-253.0,-70.0,-15.0,-119.0,-119.0,-47.0,0
-251.0,-70.0,-11.0,-108.0,-122.0,-44.0,0
-254.0,-70.0,-10.0,-97.0,-128.0,-43.0,0
-251.0,-72.0,-11.0,-82.0,-135.0,-41.0,0
-253.0,-66.0,-8.0,-69.0,-138.0,-36.0,0
-250.0,-66.0,-10.0,-58.0,-141.0,-34.0,0
-252.0,-66.0,-2.0,-50.0,-139.0,-31.0,0
-255.0,-64.0,-10.0,-45.0,-134.0,-29.0,0
-250.0,-66.0,-9.0,-41.0,-126.0,-27.0,0
-255.0,-64.0,-8.0,-43.0,-118.0,-24.0,0
-252.0,-65.0,-6.0,-43.0,-110.0,-24.0,0
-251.0,-66.0,-5.0,-45.0,-103.0,-22.0,0
-249.0,-65.0,-5.0,-44.0,-97.0,-23.0,0
-248.0,-66.0,-4.0,-45.0,-90.0,-23.0,0
-249.0,-68.0,-3.0,-46.0,-83.0,-22.0,0
-246.0,-65.0,-4.0,-46.0,-74.0,-24.0,0
-246.0,-68.0,-3.0,-46.0,-65.0,-23.0,0
-245.0,-68.0,-3.0,-49.0,-55.0,-22.0,0
-246.0,-65.0,-4.0,-50.0,-45.0,-21.0,0
-249.0,-67.0,0.0,-48.0,-37.0,-21.0,0
-250.0,-66.0,-1.0,-45.0,-29.0,-20.0,0
-250.0,-68.0,-3.0,-41.0,-24.0,-18.0,0
-249.0,-68.0,-4.0,-38.0,-20.0,-16.0,0
-249.0,-66.0,-4.0,-36.0,-15.0,-15.0,0
-249.0,-66.0,-6.0,-36.0,-12.0,-14.0,0
-248.0,-66.0,-3.0,-37.0,-7.0,-10.0,0
-250.0,-64.0,1.0,-39.0,-3.0,-10.0,0
-249.0,-68.0,-1.0,-40.0,-2.0,-8.0,0
-249.0,-63.0,1.0,-41.0,1.0,-4.0,0
-248.0,-64.0,-1.0,-43.0,4.0,-2.0,0
-250.0,-65.0,-3.0,-44.0,9.0,0.0,0
-250.0,-62.0,0.0,-45.0,11.0,2.0,0
-251.0,-66.0,1.0,-44.0,16.0,4.0,0
-250.0,-64.0,2.0,-47.0,19.0,5.0,0
-255.0,-65.0,1.0,-46.0,23.0,6.0,0
-249.0,-65.0,3.0,-42.0,28.0,8.0,0
-249.0,-64.0,-2.0,-42.0,31.0,8.0,0
-249.0,-67.0,1.0,-40.0,32.0,8.0,0
-252.0,-64.0,-4.0,-36.0,34.0,9.0,0
-251.0,-63.0,-4.0,-34.0,37.0,10.0,0
-248.0,-65.0,-4.0,-31.0,39.0,12.0,0
-251.0,-64.0,-2.0,-29.0,42.0,11.0,0
-252.0,-62.0,-8.0,-28.0,45.0,12.0,0
-252.0,-64.0,-6.0,-28.0,48.0,13.0,0
-253.0,-62.0,-5.0,-27.0,50.0,12.0,0
-254.0,-64.0,-4.0,-26.0,53.0,12.0,0
-251.0,-65.0,-4.0,-25.0,58.0,13.0,0
-253.0,-61.0,-8.0,-26.0,63.0,12.0,0
-254.0,-63.0,-13.0,-23.0,64.0,12.0,0
-252.0,-65.0,-3.0,-24.0,67.0,12.0,0
-252.0,-63.0,-7.0,-26.0,70.0,11.0,0
-251.0,-64.0,-5.0,-24.0,72.0,12.0,0
-253.0,-64.0,-3.0,-26.0,75.0,11.0,0
-255.0,-62.0,-7.0,-26.0,80.0,9.0,0
-253.0,-61.0,-3.0,-27.0,83.0,9.0,0
-254.0,-62.0,-2.0,-30.0,87.0,9.0,0
-253.0,-60.0,-6.0,-31.0,89.0,9.0,0
-254.0,-60.0,-3.0,-33.0,95.0,7.0,0
-250.0,-59.0,0.0,-34.0,97.0,5.0,0
-254.0,-61.0,-6.0,-36.0,101.0,5.0,0
-250.0,-61.0,-5.0,-39.0,101.0,3.0,0
-257.0,-62.0,-8.0,-42.0,100.0,4.0,0
-255.0,-61.0,-8.0,-43.0,99.0,2.0,0
-252.0,-62.0,-7.0,-43.0,99.0,3.0,0
-256.0,-63.0,-6.0,-44.0,96.0,1.0,0
-254.0,-62.0,-9.0,-43.0,96.0,0.0,0
-251.0,-64.0,-7.0,-43.0,95.0,2.0,0
-254.0,-63.0,-10.0,-41.0,95.0,4.0,0
-252.0,-63.0,-8.0,-38.0,93.0,6.0,0
-254.0,-63.0,-12.0,-38.0,89.0,7.0,0
-253.0,-62.0,-10.0,-36.0,85.0,8.0,0
-257.0,-61.0,-7.0,-34.0,80.0,7.0,0
-261.0,-58.0,-8.0,-34.0,73.0,6.0,0
-254.0,-60.0,-10.0,-35.0,66.0,6.0,0
-251.0,-61.0,-12.0,-35.0,58.0,5.0,0
-252.0,-61.0,-13.0,-36.0,52.0,4.0,0
-256.0,-61.0,-11.0,-37.0,45.0,2.0,0
-255.0,-57.0,-9.0,-36.0,41.0,3.0,0
-256.0,-63.0,-13.0,-37.0,38.0,3.0,0
-258.0,-58.0,-14.0,-38.0,35.0,3.0,0
-258.0,-57.0,-11.0,-39.0,34.0,1.0,0
-259.0,-61.0,-11.0,-39.0,30.0,0.0,0
-253.0,-61.0,-10.0,-40.0,29.0,0.0,0
-252.0,-58.0,-5.0,-42.0,24.0,-1.0,0
-255.0,-57.0,-10.0,-43.0,22.0,-3.0,0
-257.0,-62.0,-12.0,-45.0,19.0,-4.0,0
-255.0,-62.0,-10.0,-47.0,18.0,-5.0,0
-254.0,-63.0,-9.0,-47.0,18.0,-7.0,0
-254.0,-60.0,-10.0,-46.0,19.0,-7.0,0
-255.0,-61.0,-11.0,-46.0,19.0,-8.0,0
-253.0,-64.0,-11.0,-45.0,19.0,-8.0,0
-256.0,-64.0,-7.0,-45.0,18.0,-8.0,0
-253.0,-62.0,-7.0,-45.0,17.0,-9.0,0
-253.0,-64.0,-10.0,-45.0,12.0,-8.0,0
-256.0,-63.0,-8.0,-42.0,10.0,-7.0,0
-254.0,-60.0,-9.0,-40.0,7.0,-6.0,0
-254.0,-63.0,-5.0,-41.0,3.0,-6.0,0
-255.0,-63.0,-4.0,-37.0,-1.0,-9.0,0
-254.0,-63.0,-3.0,-39.0,-6.0,-10.0,0
-250.0,-62.0,-7.0,-39.0,-9.0,-12.0,0
-250.0,-64.0,1.0,-37.0,-12.0,-13.0,0
-253.0,-59.0,-3.0,-37.0,-12.0,-17.0,0
-252.0,-62.0,3.0,-37.0,-12.0,-20.0,0
-251.0,-61.0,-1.0,-36.0,-9.0,-25.0,0
-252.0,-60.0,-1.0,-37.0,-5.0,-29.0,0
-254.0,-68.0,-10.0,-39.0,7.0,-30.0,0
-253.0,-64.0,-7.0,-41.0,19.0,-33.0,0
-253.0,-62.0,-9.0,-43.0,31.0,-36.0,0
-250.0,-65.0,-12.0,-47.0,42.0,-37.0,0
-251.0,-65.0,-9.0,-50.0,52.0,-38.0,0
-249.0,-69.0,-9.0,-50.0,57.0,-38.0,0
-252.0,-66.0,-7.0,-46.0,58.0,-37.0,0
-255.0,-67.0,-5.0,-37.0,55.0,-33.0,0
-255.0,-68.0,-5.0,-30.0,51.0,-28.0,0
-253.0,-67.0,-9.0,-19.0,49.0,-23.0,0
-251.0,-64.0,-15.0,-10.0,49.0,-14.0,0
-253.0,-67.0,-4.0,0.0,50.0,-9.0,0
-253.0,-64.0,-9.0,6.0,51.0,-1.0,0
-255.0,-60.0,-9.0,8.0,52.0,3.0,0
-253.0,-61.0,-10.0,7.0,52.0,5.0,0
-256.0,-60.0,-11.0,5.0,53.0,8.0,0
-256.0,-60.0,-14.0,3.0,54.0,10.0,0
-256.0,-56.0,-9.0,-2.0,52.0,13.0,0
-255.0,-55.0,-9.0,-7.0,50.0,14.0,0
-254.0,-55.0,-9.0,-12.0,49.0,14.0,0
-254.0,-57.0,-11.0,-16.0,46.0,14.0,0
-253.0,-60.0,-9.0,-16.0,42.0,17.0,0
-255.0,-60.0,-10.0,-16.0,38.0,16.0,0
-255.0,-57.0,-18.0,-15.0,33.0,16.0,0
-253.0,-63.0,-13.0,-13.0,26.0,15.0,0
-254.0,-60.0,-16.0,-11.0,20.0,13.0,0
-254.0,-64.0,-11.0,-10.0,15.0,12.0,0
-253.0,-64.0,-14.0,-9.0,9.0,10.0,0
-256.0,-61.0,-12.0,-7.0,3.0,8.0,0
-255.0,-59.0,-13.0,-7.0,-1.0,7.0,0
-257.0,-61.0,-13.0,-5.0,-2.0,3.0,0
-258.0,-63.0,-15.0,-4.0,-3.0,2.0,0
-255.0,-62.0,-14.0,-1.0,-4.0,1.0,0
-260.0,-65.0,-17.0,-5.0,-6.0,1.0,0
-253.0,-61.0,-11.0,-5.0,-6.0,0.0,0
-256.0,-61.0,-13.0,-7.0,-4.0,-1.0,0
-255.0,-63.0,-9.0,-8.0,-4.0,-2.0,0
-249.0,-63.0,-11.0,-10.0,-4.0,-2.0,0
-251.0,-63.0,-10.0,-11.0,-3.0,-3.0,0
-254.0,-64.0,-14.0,-12.0,-5.0,-4.0,0
-252.0,-65.0,-11.0,-11.0,-7.0,-3.0,0
-254.0,-64.0,-12.0,-11.0,-10.0,-6.0,0
-255.0,-61.0,-15.0,-12.0,-11.0,-6.0,0
-253.0,-61.0,-6.0,-14.0,-12.0,-6.0,0
-259.0,-61.0,-11.0,-18.0,-12.0,-6.0,0
-253.0,-62.0,-8.0,-23.0,-9.0,-7.0,0
-253.0,-64.0,-10.0,-28.0,-2.0,-6.0,0
-250.0,-65.0,-9.0,-30.0,5.0,-3.0,0
-253.0,-62.0,-8.0,-34.0,12.0,0.0,0
-251.0,-63.0,-6.0,-35.0,18.0,3.0,0
-251.0,-62.0,-7.0,-37.0,22.0,6.0,0
-253.0,-63.0,-2.0,-37.0,27.0,8.0,0
-248.0,-63.0,-6.0,-39.0,30.0,10.0,0
-249.0,-61.0,-10.0,-39.0,32.0,13.0,0
-247.0,-64.0,-5.0,-42.0,34.0,14.0,0
-247.0,-62.0,-2.0,-42.0,34.0,15.0,0
-247.0,-65.0,-4.0,-44.0,37.0,15.0,0
-254.0,-64.0,-5.0,-44.0,40.0,15.0,0
-247.0,-67.0,-2.0,-43.0,43.0,16.0,0
-251.0,-64.0,-2.0,-40.0,44.0,15.0,0
-253.0,-66.0,2.0,-36.0,45.0,14.0,0
-251.0,-65.0,-4.0,-30.0,46.0,13.0,0
-253.0,-62.0,-3.0,-24.0,48.0,13.0,0
-254.0,-61.0,-3.0,-20.0,51.0,14.0,0
-253.0,-57.0,-4.0,-14.0,54.0,15.0,0
-250.0,-64.0,-7.0,-14.0,58.0,17.0,0
-252.0,-59.0,-5.0,-18.0,62.0,18.0,0
-254.0,-61.0,-6.0,-23.0,64.0,17.0,0
-255.0,-59.0,-11.0,-30.0,67.0,19.0,0
-253.0,-60.0,-8.0,-35.0,65.0,18.0,0
-254.0,-60.0,-8.0,-40.0,65.0,18.0,0
-257.0,-60.0,-9.0,-44.0,64.0,18.0,0
-254.0,-60.0,-6.0,-45.0,65.0,19.0,0
-252.0,-60.0,-15.0,-47.0,67.0,19.0,0
-255.0,-60.0,-12.0,-49.0,69.0,19.0,0
-252.0,-63.0,-10.0,-48.0,69.0,19.0,0
-255.0,-60.0,-15.0,-49.0,69.0,18.0,0
-253.0,-60.0,-9.0,-48.0,69.0,16.0,0
-254.0,-61.0,-11.0,-48.0,70.0,15.0,0
-255.0,-61.0,-10.0,-46.0,69.0,14.0,0
-256.0,-58.0,-11.0,-46.0,68.0,12.0,0
-258.0,-58.0,-9.0,-44.0,66.0,7.0,0
-255.0,-61.0,-11.0,-44.0,65.0,5.0,0
-255.0,-60.0,-9.0,-45.0,63.0,2.0,0
-259.0,-58.0,-16.0,-45.0,63.0,-3.0,0
-257.0,-58.0,-11.0,-45.0,61.0,-7.0,0
-259.0,-61.0,-14.0,-45.0,62.0,-10.0,0
-261.0,-60.0,-13.0,-46.0,62.0,-13.0,0
-255.0,-60.0,-13.0,-48.0,62.0,-14.0,0
-257.0,-60.0,-14.0,-48.0,60.0,-18.0,0
-256.0,-61.0,-16.0,-50.0,59.0,-20.0,0
-257.0,-60.0,-14.0,-51.0,58.0,-21.0,0
-255.0,-62.0,-15.0,-51.0,57.0,-22.0,0
-251.0,-61.0,-15.0,-54.0,53.0,-22.0,0
-256.0,-63.0,-17.0,-53.0,52.0,-22.0,0
-258.0,-61.0,-17.0,-54.0,50.0,-22.0,0
-255.0,-60.0,-9.0,-52.0,49.0,-23.0,0
-252.0,-61.0,-17.0,-52.0,49.0,-23.0,0
-254.0,-61.0,-17.0,-53.0,49.0,-23.0,0
-253.0,-60.0,-13.0,-54.0,50.0,-23.0,0
-255.0,-62.0,-18.0,-56.0,51.0,-25.0,0
-257.0,-61.0,-12.0,-56.0,53.0,-27.0,0
-256.0,-60.0,-16.0,-57.0,52.0,-29.0,0
-257.0,-63.0,-15.0,-58.0,52.0,-31.0,0
-258.0,-60.0,-16.0,-59.0,50.0,-33.0,0
-255.0,-62.0,-13.0,-60.0,50.0,-37.0,0
-254.0,-60.0,-13.0,-62.0,50.0,-40.0,0
-252.0,-65.0,-13.0,-60.0,51.0,-43.0,0
-255.0,-66.0,-12.0,-62.0,51.0,-45.0,0
-249.0,-64.0,-12.0,-61.0,49.0,-48.0,0
-252.0,-65.0,-13.0,-61.0,47.0,-51.0,0
-255.0,-64.0,-10.0,-57.0,47.0,-50.0,0
-250.0,-64.0,-11.0,-52.0,46.0,-48.0,0
-255.0,-62.0,-8.0,-49.0,44.0,-45.0,0
-253.0,-64.0,-13.0,-47.0,41.0,-44.0,0
-251.0,-64.0,-12.0,-48.0,37.0,-41.0,0
-254.0,-64.0,-13.0,-49.0,33.0,-38.0,0
-254.0,-62.0,-12.0,-48.0,30.0,-36.0,0
-251.0,-62.0,-13.0,-48.0,27.0,-30.0,0
-251.0,-60.0,-11.0,-48.0,24.0,-26.0,0
-249.0,-58.0,-14.0,-49.0,23.0,-20.0,0
-252.0,-60.0,-11.0,-53.0,21.0,-18.0,0
-252.0,-63.0,-14.0,-55.0,19.0,-13.0,0
-254.0,-63.0,-14.0,-58.0,15.0,-9.0,0
-255.0,-63.0,-13.0,-60.0,9.0,-5.0,0
-255.0,-62.0,-13.0,-59.0,6.0,0.0,0
-252.0,-64.0,-14.0,-58.0,2.0,3.0,0
-251.0,-65.0,-14.0,-58.0,-1.0,7.0,0
-254.0,-64.0,-15.0,-58.0,-4.0,11.0,0
-252.0,-63.0,-9.0,-58.0,-7.0,12.0,0
-252.0,-65.0,-15.0,-58.0,-9.0,12.0,0
-254.0,-63.0,-12.0,-58.0,-11.0,13.0,0
-256.0,-63.0,-11.0,-57.0,-13.0,13.0,0
-253.0,-64.0,-15.0,-56.0,-15.0,12.0,0
-251.0,-65.0,-11.0,-54.0,-16.0,11.0,0
-256.0,-64.0,-16.0,-52.0,-16.0,9.0,0
-254.0,-63.0,-15.0,-51.0,-13.0,9.0,0
-258.0,-63.0,-14.0,-48.0,-9.0,6.0,0
-256.0,-63.0,-13.0,-47.0,-7.0,4.0,0
-255.0,-64.0,-13.0,-45.0,-2.0,3.0,0
-254.0,-63.0,-10.0,-44.0,-2.0,2.0,0
-252.0,-64.0,-15.0,-43.0,1.0,2.0,0
-254.0,-61.0,-15.0,-43.0,1.0,0.0,0
-255.0,-61.0,-12.0,-40.0,3.0,1.0,0
-257.0,-61.0,-13.0,-41.0,0.0,0.0,0
-252.0,-62.0,-16.0,-40.0,2.0,0.0,0
-255.0,-63.0,-12.0,-40.0,1.0,0.0,0
-256.0,-63.0,-12.0,-39.0,1.0,0.0,0
-258.0,-60.0,-11.0,-40.0,3.0,0.0,0
-255.0,-62.0,-13.0,-38.0,4.0,-1.0,0
-257.0,-63.0,-11.0,-40.0,5.0,-1.0,0
-252.0,-60.0,-15.0,-41.0,6.0,0.0,0
-256.0,-63.0,-13.0,-40.0,8.0,-1.0,0
-257.0,-62.0,-14.0,-40.0,10.0,-3.0,0
-251.0,-62.0,-12.0,-40.0,12.0,-5.0,0
-254.0,-61.0,-13.0,-41.0,15.0,-7.0,0
-256.0,-63.0,-14.0,-39.0,15.0,-7.0,0
-254.0,-62.0,-16.0,-40.0,18.0,-7.0,0
-254.0,-64.0,-17.0,-37.0,18.0,-9.0,0
-257.0,-65.0,-14.0,-38.0,18.0,-10.0,0
-257.0,-61.0,-13.0,-37.0,20.0,-11.0,0
-257.0,-64.0,-15.0,-35.0,19.0,-11.0,0
-255.0,-65.0,-14.0,-33.0,17.0,-9.0,0
-252.0,-63.0,-14.0,-31.0,17.0,-10.0,0
-253.0,-63.0,-12.0,-31.0,15.0,-8.0,0
-255.0,-61.0,-11.0,-29.0,15.0,-10.0,0
-256.0,-63.0,-8.0,-29.0,15.0,-10.0,0
-257.0,-60.0,-12.0,-25.0,15.0,-10.0,0
-254.0,-63.0,-16.0,-26.0,14.0,-9.0,0
-253.0,-61.0,-9.0,-25.0,14.0,-10.0,0
-252.0,-61.0,-8.0,-25.0,14.0,-9.0,0
-258.0,-57.0,-14.0,-27.0,13.0,-10.0,0
-254.0,-59.0,-11.0,-29.0,12.0,-11.0,0
-253.0,-59.0,-12.0,-30.0,11.0,-10.0,0
-252.0,-63.0,-6.0,-33.0,9.0,-11.0,0
-255.0,-61.0,-9.0,-35.0,8.0,-11.0,0
-251.0,-60.0,-11.0,-38.0,6.0,-12.0,0
-253.0,-62.0,-11.0,-37.0,1.0,-11.0,0
-252.0,-62.0,-13.0,-36.0,-2.0,-12.0,0
-251.0,-62.0,-9.0,-35.0,-4.0,-11.0,0
-253.0,-62.0,-10.0,-35.0,-7.0,-10.0,0
-253.0,-62.0,-8.0,-37.0,-11.0,-10.0,0
-254.0,-63.0,-3.0,-35.0,-16.0,-9.0,0
-251.0,-61.0,-10.0,-33.0,-19.0,-8.0,0
-255.0,-63.0,-6.0,-31.0,-22.0,-7.0,0
-255.0,-62.0,-12.0,-29.0,-23.0,-5.0,0
-255.0,-61.0,-13.0,-27.0,-24.0,-3.0,0
-253.0,-59.0,-10.0,-27.0,-25.0,-2.0,0
-254.0,-60.0,-13.0,-29.0,-26.0,-1.0,0
-255.0,-60.0,-10.0,-32.0,-24.0,0.0,0
-253.0,-58.0,-11.0,-33.0,-22.0,0.0,0
-254.0,-60.0,-7.0,-35.0,-23.0,3.0,0
-252.0,-61.0,-9.0,-38.0,-21.0,3.0,0
-251.0,-59.0,-5.0,-40.0,-19.0,3.0,0
-257.0,-64.0,-11.0,-40.0,-18.0,1.0,0
-257.0,-60.0,-8.0,-42.0,-16.0,2.0,0
-251.0,-60.0,-8.0,-42.0,-16.0,3.0,0
-256.0,-61.0,-11.0,-44.0,-15.0,2.0,0
-256.0,-62.0,-8.0,-45.0,-12.0,0.0,0
-250.0,-64.0,-6.0,-46.0,-12.0,-3.0,0
-254.0,-62.0,-7.0,-47.0,-9.0,-3.0,0
-254.0,-65.0,-6.0,-46.0,-6.0,-4.0,0
-250.0,-62.0,-7.0,-45.0,-1.0,-5.0,0
-251.0,-63.0,-8.0,-43.0,2.0,-4.0,0
-254.0,-62.0,-7.0,-42.0,5.0,-3.0,0
-253.0,-64.0,-10.0,-40.0,9.0,-5.0,0
-251.0,-64.0,-6.0,-40.0,10.0,-4.0,0
-254.0,-65.0,-10.0,-39.0,13.0,-3.0,0
-253.0,-60.0,-13.0,-40.0,14.0,-2.0,0
-253.0,-62.0,-11.0,-38.0,16.0,-3.0,0
-250.0,-62.0,-8.0,-38.0,17.0,-2.0,0
-251.0,-63.0,-10.0,-39.0,19.0,-2.0,0
-252.0,-65.0,-7.0,-38.0,21.0,-2.0,0
-252.0,-64.0,-9.0,-40.0,26.0,-4.0,0
-255.0,-64.0,-9.0,-40.0,28.0,-3.0,0
-252.0,-64.0,-8.0,-40.0,32.0,-2.0,0
-253.0,-63.0,-10.0,-40.0,35.0,-4.0,0
-250.0,-64.0,-6.0,-37.0,39.0,-4.0,0
-254.0,-59.0,-14.0,-37.0,40.0,-2.0,0
-253.0,-62.0,-7.0,-37.0,44.0,-1.0,0
-253.0,-64.0,-10.0,-39.0,45.0,1.0,0
-251.0,-63.0,-5.0,-38.0,46.0,2.0,0
-253.0,-62.0,-9.0,-39.0,48.0,4.0,0
-250.0,-59.0,-5.0,-41.0,48.0,7.0,0
-253.0,-60.0,-12.0,-44.0,48.0,9.0,0
-252.0,-61.0,-7.0,-46.0,48.0,11.0,0
-253.0,-61.0,-10.0,-47.0,47.0,11.0,0
-251.0,-60.0,-10.0,-51.0,46.0,12.0,0
-252.0,-62.0,-8.0,-52.0,44.0,14.0,0
-253.0,-61.0,-10.0,-52.0,43.0,14.0,0
-257.0,-60.0,-9.0,-54.0,43.0,16.0,0
-253.0,-60.0,-9.0,-54.0,43.0,16.0,0
-256.0,-61.0,-12.0,-54.0,41.0,15.0,0
-255.0,-62.0,-11.0,-54.0,40.0,17.0,0
-255.0,-60.0,-13.0,-54.0,40.0,15.0,0
-253.0,-63.0,-11.0,-55.0,40.0,15.0,0
-255.0,-58.0,-14.0,-55.0,41.0,13.0,0
-255.0,-64.0,-13.0,-57.0,41.0,12.0,0
-257.0,-58.0,-11.0,-57.0,41.0,10.0,0
-256.0,-62.0,-14.0,-59.0,41.0,7.0,0
-255.0,-64.0,-16.0,-59.0,41.0,5.0,0
-257.0,-60.0,-14.0,-60.0,42.0,4.0,0
-256.0,-61.0,-13.0,-61.0,44.0,2.0,0
-256.0,-61.0,-13.0,-62.0,47.0,1.0,0
-254.0,-62.0,-14.0,-63.0,48.0,0.0,0
-255.0,-60.0,-12.0,-65.0,49.0,-1.0,0
-254.0,-58.0,-16.0,-64.0,48.0,0.0,0
-258.0,-63.0,-11.0,-65.0,47.0,-1.0,0
-257.0,-60.0,-11.0,-65.0,46.0,0.0,0
-254.0,-62.0,-12.0,-66.0,45.0,-1.0,0
-254.0,-61.0,-25.0,-66.0,41.0,0.0,0
-253.0,-61.0,-10.0,-64.0,38.0,-2.0,0
-253.0,-63.0,-15.0,-65.0,37.0,-1.0,0
-254.0,-62.0,-13.0,-63.0,35.0,-4.0,0
-253.0,-61.0,-14.0,-64.0,33.0,-3.0,0
-253.0,-62.0,-11.0,-63.0,30.0,-4.0,0
-256.0,-63.0,-11.0,-61.0,29.0,-4.0,0
-256.0,-64.0,-8.0,-58.0,27.0,-7.0,0
-252.0,-63.0,-14.0,-53.0,26.0,-7.0,0
-256.0,-64.0,-18.0,-50.0,25.0,-7.0,0
-252.0,-63.0,-7.0,-49.0,24.0,-7.0,0
-250.0,-64.0,-21.0,-46.0,22.0,-5.0,0
-255.0,-63.0,-14.0,-43.0,23.0,-5.0,0
-257.0,-60.0,-13.0,-41.0,23.0,-5.0,0
-256.0,-61.0,-14.0,-40.0,23.0,-5.0,0
-254.0,-59.0,-15.0,-43.0,24.0,-5.0,0
-255.0,-62.0,-14.0,-45.0,23.0,-4.0,0
-255.0,-62.0,-10.0,-47.0,21.0,-3.0,0
-255.0,-62.0,-12.0,-49.0,20.0,-2.0,0
-254.0,-61.0,-11.0,-50.0,17.0,-1.0,0
-257.0,-59.0,-16.0,-50.0,15.0,-1.0,0
-255.0,-63.0,-10.0,-50.0,12.0,-2.0,0
-256.0,-56.0,-14.0,-48.0,9.0,-2.0,0
-255.0,-63.0,-15.0,-47.0,3.0,-3.0,0
-255.0,-64.0,-11.0,-44.0,-2.0,0.0,0
-255.0,-64.0,-12.0,-42.0,-8.0,0.0,0
-254.0,-61.0,-11.0,-39.0,-15.0,0.0,0
-253.0,-61.0,-11.0,-36.0,-22.0,0.0,0
-255.0,-59.0,-13.0,-32.0,-29.0,1.0,0
-250.0,-63.0,-13.0,-27.0,-37.0,3.0,0
-253.0,-64.0,-10.0,-22.0,-46.0,4.0,0
-252.0,-62.0,-13.0,-15.0,-54.0,6.0,0
-252.0,-62.0,-13.0,-11.0,-61.0,6.0,0
-254.0,-59.0,-4.0,-8.0,-69.0,6.0,0
-253.0,-63.0,-8.0,-7.0,-78.0,6.0,0
-256.0,-61.0,-10.0,-7.0,-85.0,5.0,0
-254.0,-64.0,-9.0,-9.0,-90.0,3.0,0
-254.0,-61.0,-11.0,-10.0,-90.0,1.0,0
-256.0,-63.0,-12.0,-12.0,-82.0,0.0,0
-256.0,-63.0,-10.0,-16.0,-73.0,-2.0,0
-257.0,-63.0,-11.0,-18.0,-63.0,-4.0,0
-258.0,-61.0,-16.0,-22.0,-52.0,-5.0,0
-252.0,-62.0,-16.0,-21.0,-43.0,-5.0,0
-255.0,-63.0,-16.0,-23.0,-33.0,-6.0,0
-255.0,-62.0,-12.0,-25.0,-27.0,-6.0,0
-253.0,-64.0,-12.0,-23.0,-19.0,-6.0,0
-255.0,-61.0,-13.0,-23.0,-14.0,-7.0,0
-255.0,-62.0,-15.0,-19.0,-11.0,-6.0,0
-257.0,-61.0,-12.0,-17.0,-6.0,-4.0,0
-252.0,-63.0,-10.0,-17.0,-1.0,-5.0,0
-254.0,-63.0,-11.0,-19.0,0.0,-4.0,0
-256.0,-63.0,-7.0,-19.0,3.0,-6.0,0
-258.0,-61.0,-9.0,-20.0,5.0,-4.0,0
-257.0,-64.0,-6.0,-21.0,4.0,-4.0,0
-256.0,-62.0,-10.0,-20.0,5.0,-5.0,0
-253.0,-58.0,-11.0,-20.0,4.0,-4.0,0
-255.0,-65.0,-10.0,-20.0,2.0,-4.0,0
-252.0,-58.0,-10.0,-18.0,0.0,-5.0,0
-252.0,-61.0,-10.0,-19.0,-4.0,-5.0,0
-253.0,-58.0,-8.0,-21.0,-7.0,-4.0,0
-255.0,-61.0,-5.0,-24.0,-10.0,-5.0,0
-251.0,-62.0,-9.0,-28.0,-14.0,-5.0,0
-256.0,-60.0,-7.0,-30.0,-15.0,-7.0,0
-253.0,-59.0,-8.0,-31.0,-17.0,-7.0,0
-256.0,-57.0,-12.0,-32.0,-19.0,-7.0,0
-253.0,-60.0,-8.0,-34.0,-20.0,-9.0,0
-256.0,-57.0,-9.0,-34.0,-17.0,-10.0,0
-254.0,-61.0,-6.0,-34.0,-16.0,-11.0,0
-256.0,-61.0,-4.0,-33.0,-15.0,-10.0,0
-253.0,-61.0,-7.0,-33.0,-14.0,-11.0,0
-255.0,-61.0,-8.0,-34.0,-14.0,-12.0,0
-251.0,-62.0,-5.0,-33.0,-14.0,-12.0,0
-255.0,-63.0,-5.0,-34.0,-12.0,-11.0,0
-252.0,-61.0,-3.0,-35.0,-12.0,-12.0,0
-256.0,-57.0,-8.0,-35.0,-11.0,-12.0,0
-253.0,-58.0,-8.0,-37.0,-10.0,-13.0,0
-253.0,-57.0,-9.0,-38.0,-8.0,-10.0,0
-242.0,-58.0,-6.0,-38.0,-9.0,-10.0,0
-249.0,-63.0,-8.0,-41.0,-7.0,-9.0,0
-251.0,-60.0,-8.0,-45.0,-6.0,-7.0,0
-255.0,-59.0,-1.0,-46.0,-6.0,-6.0,0
-252.0,-62.0,-5.0,-48.0,-6.0,-6.0,0
-253.0,-62.0,-6.0,-48.0,-7.0,-7.0,0
-253.0,-63.0,-3.0,-46.0,-6.0,-7.0,0
-253.0,-62.0,-9.0,-45.0,-4.0,-8.0,0
-254.0,-64.0,-6.0,-45.0,-2.0,-6.0,0
-255.0,-62.0,-11.0,-44.0,-2.0,-7.0,0
-256.0,-52.0,-5.0,-43.0,-2.0,-6.0,0
-255.0,-61.0,-4.0,-41.0,1.0,-3.0,0
-255.0,-61.0,-6.0,-40.0,2.0,-2.0,0
-251.0,-60.0,-7.0,-39.0,5.0,-1.0,0
-252.0,-62.0,-10.0,-41.0,7.0,-1.0,0
-252.0,-61.0,-7.0,-40.0,8.0,1.0,0
-253.0,-62.0,-6.0,-41.0,5.0,-1.0,0
-249.0,-61.0,-7.0,-42.0,4.0,0.0,0
-253.0,-64.0,-3.0,-41.0,2.0,0.0,0
-252.0,-61.0,-6.0,-41.0,-3.0,1.0,0
-250.0,-63.0,-10.0,-39.0,-6.0,3.0,0
-250.0,-63.0,-1.0,-38.0,-8.0,3.0,0
-252.0,-63.0,-6.0,-35.0,-10.0,4.0,0
-253.0,-62.0,-6.0,-31.0,-8.0,6.0,0
-251.0,-63.0,-6.0,-25.0,-9.0,7.0,0
-254.0,-62.0,-7.0,-21.0,-12.0,8.0,0
-254.0,-63.0,-9.0,-20.0,-13.0,9.0,0
-253.0,-64.0,-9.0,-21.0,-12.0,11.0,0
-257.0,-62.0,-7.0,-19.0,-11.0,9.0,0
-252.0,-62.0,-6.0,-19.0,-10.0,10.0,0
-255.0,-61.0,-1.0,-18.0,-6.0,10.0,0
-254.0,-60.0,-6.0,-19.0,-1.0,7.0,0
-263.0,-59.0,-8.0,-19.0,4.0,7.0,0
-253.0,-59.0,-8.0,-18.0,11.0,6.0,0
-256.0,-60.0,-1.0,-20.0,16.0,4.0,0
-256.0,-59.0,-9.0,-24.0,23.0,2.0,0
-255.0,-60.0,-8.0,-26.0,31.0,2.0,0
-256.0,-58.0,-7.0,-31.0,39.0,-2.0,0
-256.0,-58.0,-6.0,-35.0,45.0,-3.0,0
-252.0,-61.0,-8.0,-40.0,50.0,-4.0,0
-253.0,-57.0,-2.0,-43.0,51.0,-5.0,0
-253.0,-61.0,-4.0,-47.0,54.0,-7.0,0
-250.0,-60.0,-7.0,-51.0,56.0,-7.0,0
-252.0,-61.0,-6.0,-53.0,55.0,-7.0,0
-251.0,-61.0,-6.0,-55.0,55.0,-7.0,0
-251.0,-63.0,-4.0,-53.0,53.0,-7.0,0
-256.0,-63.0,-5.0,-52.0,51.0,-7.0,0
-254.0,-62.0,-7.0,-52.0,49.0,-6.0,0
-255.0,-62.0,-3.0,-50.0,46.0,-5.0,0
-253.0,-60.0,-12.0,-49.0,44.0,-4.0,0
-253.0,-64.0,-4.0,-47.0,42.0,-5.0,0
-252.0,-61.0,-8.0,-46.0,41.0,-4.0,0
-256.0,-64.0,-5.0,-48.0,40.0,-4.0,0
-254.0,-62.0,-8.0,-48.0,40.0,-4.0,0
-253.0,-65.0,-8.0,-47.0,38.0,-3.0,0
-257.0,-62.0,-11.0,-49.0,38.0,-2.0,0
-256.0,-61.0,-7.0,-50.0,38.0,-2.0,0
-253.0,-62.0,-13.0,-50.0,39.0,-2.0,0
-254.0,-62.0,-8.0,-50.0,38.0,-2.0,0
-254.0,-60.0,-9.0,-50.0,38.0,-3.0,0
-254.0,-60.0,-14.0,-50.0,38.0,-2.0,0
-255.0,-60.0,-17.0,-49.0,36.0,-2.0,0
-253.0,-62.0,-6.0,-50.0,37.0,-1.0,0
-253.0,-61.0,-14.0,-49.0,37.0,-3.0,0
-249.0,-60.0,-16.0,-50.0,36.0,-3.0,0
-254.0,-60.0,-9.0,-52.0,33.0,-4.0,0
-253.0,-58.0,-11.0,-53.0,32.0,-4.0,0
-255.0,-61.0,-10.0,-55.0,31.0,-4.0,0
-256.0,-61.0,-13.0,-56.0,30.0,-5.0,0
-255.0,-61.0,-13.0,-57.0,30.0,-5.0,0
-253.0,-61.0,-6.0,-57.0,29.0,-5.0,0
-253.0,-61.0,-10.0,-57.0,28.0,-6.0,0
-256.0,-60.0,-12.0,-57.0,27.0,-4.0,0
-255.0,-61.0,-7.0,-58.0,25.0,-7.0,0
-255.0,-60.0,-10.0,-59.0,21.0,-8.0,0
-255.0,-57.0,-9.0,-59.0,19.0,-9.0,0
-250.0,-59.0,-7.0,-58.0,17.0,-9.0,0
-254.0,-62.0,-9.0,-57.0,14.0,-9.0,0
-254.0,-64.0,-11.0,-55.0,13.0,-11.0,0
-255.0,-64.0,-10.0,-53.0,14.0,-12.0,0
-255.0,-63.0,-10.0,-51.0,13.0,-13.0,0
-255.0,-63.0,-10.0,-48.0,12.0,-14.0,0
-254.0,-64.0,-7.0,-47.0,11.0,-15.0,0
-255.0,-62.0,-10.0,-48.0,11.0,-15.0,0
-254.0,-62.0,-12.0,-46.0,10.0,-17.0,0
-257.0,-60.0,-9.0,-44.0,10.0,-18.0,0
-250.0,-63.0,-7.0,-45.0,11.0,-18.0,0
-251.0,-61.0,-14.0,-45.0,10.0,-18.0,0
-254.0,-63.0,-9.0,-44.0,10.0,-17.0,0
-254.0,-62.0,-8.0,-45.0,11.0,-15.0,0
-253.0,-61.0,-9.0,-47.0,11.0,-15.0,0
-253.0,-59.0,-3.0,-50.0,12.0,-15.0,0
-253.0,-59.0,-12.0,-53.0,11.0,-13.0,0
-252.0,-62.0,-7.0,-55.0,10.0,-12.0,0
-256.0,-58.0,-5.0,-57.0,10.0,-11.0,0
-250.0,-62.0,-4.0,-58.0,10.0,-10.0,0
-255.0,-59.0,-9.0,-57.0,10.0,-8.0,0
-251.0,-61.0,-5.0,-58.0,11.0,-9.0,0
-252.0,-65.0,-11.0,-56.0,11.0,-8.0,0
-254.0,-61.0,-8.0,-54.0,10.0,-7.0,0
-255.0,-60.0,-10.0,-53.0,7.0,-6.0,0
-253.0,-61.0,-7.0,-54.0,6.0,-5.0,0
-255.0,-59.0,-6.0,-54.0,4.0,-3.0,0
-255.0,-60.0,-8.0,-52.0,3.0,-5.0,0
-253.0,-60.0,-5.0,-54.0,3.0,-4.0,0
-252.0,-61.0,-7.0,-51.0,4.0,-2.0,0
-250.0,-60.0,-4.0,-51.0,3.0,-2.0,0
-254.0,-60.0,-10.0,-49.0,4.0,-2.0,0
-255.0,-58.0,-5.0,-50.0,6.0,-2.0,0
-254.0,-59.0,-10.0,-49.0,7.0,-2.0,0
-254.0,-61.0,-9.0,-50.0,5.0,-3.0,0
-253.0,-62.0,-6.0,-49.0,5.0,-2.0,0
-254.0,-61.0,-4.0,-50.0,8.0,-2.0,0
-254.0,-63.0,-8.0,-50.0,8.0,-3.0,0
-256.0,-57.0,-4.0,-49.0,8.0,-3.0,0
-250.0,-62.0,-9.0,-48.0,7.0,-2.0,0
-255.0,-63.0,-5.0,-49.0,7.0,-2.0,0
-253.0,-62.0,-4.0,-48.0,8.0,-2.0,0
-257.0,-64.0,-8.0,-47.0,9.0,-2.0,0
-255.0,-62.0,-8.0,-46.0,10.0,-1.0,0
-251.0,-65.0,-6.0,-45.0,10.0,0.0,0
-252.0,-63.0,-7.0,-42.0,11.0,0.0,0
-251.0,-64.0,-10.0,-42.0,12.0,1.0,0
-254.0,-61.0,-9.0,-41.0,10.0,0.0,0
-250.0,-64.0,-7.0,-39.0,8.0,0.0,0
-252.0,-62.0,-11.0,-36.0,4.0,2.0,0
-250.0,-61.0,-8.0,-33.0,1.0,0.0,0
-254.0,-61.0,-3.0,-30.0,-1.0,1.0,0
-253.0,-62.0,-3.0,-28.0,-4.0,0.0,0
-255.0,-61.0,-7.0,-24.0,-7.0,0.0,0
-253.0,-61.0,-12.0,-25.0,-10.0,1.0,0
-253.0,-64.0,-8.0,-21.0,-12.0,1.0,0
-250.0,-62.0,-6.0,-19.0,-13.0,2.0,0
-253.0,-61.0,-6.0,-18.0,-14.0,3.0,0
-253.0,-61.0,-4.0,-17.0,-14.0,3.0,0
-254.0,-61.0,-7.0,-15.0,-15.0,5.0,0
-253.0,-60.0,-9.0,-13.0,-13.0,6.0,0
-254.0,-64.0,-7.0,-13.0,-11.0,9.0,0
-256.0,-62.0,-7.0,-12.0,-10.0,10.0,0
-254.0,-61.0,-7.0,-13.0,-8.0,11.0,0
-256.0,-60.0,-6.0,-13.0,-6.0,11.0,0
-263.0,-61.0,-4.0,-12.0,-4.0,13.0,0
-253.0,-63.0,-8.0,-16.0,-1.0,13.0,0
-252.0,-62.0,-8.0,-18.0,4.0,10.0,0
-253.0,-64.0,-4.0,-22.0,10.0,9.0,0
-253.0,-65.0,-5.0,-25.0,16.0,5.0,0
-255.0,-63.0,-8.0,-29.0,20.0,2.0,0
-255.0,-61.0,-4.0,-31.0,24.0,-2.0,0
-252.0,-60.0,-8.0,-28.0,32.0,-3.0,0
-257.0,-63.0,-8.0,-25.0,42.0,-4.0,0
-252.0,-63.0,-10.0,-24.0,48.0,-4.0,0
-253.0,-61.0,-4.0,-25.0,54.0,-6.0,0
-255.0,-60.0,-18.0,-26.0,58.0,-7.0,0
-255.0,-58.0,-6.0,-27.0,59.0,-6.0,0
-253.0,-61.0,-9.0,-32.0,59.0,-7.0,0
-258.0,-57.0,-6.0,-35.0,57.0,-8.0,0
-253.0,-61.0,-6.0,-34.0,53.0,-8.0,0
-257.0,-60.0,-3.0,-33.0,49.0,-8.0,0
-255.0,-58.0,-7.0,-33.0,45.0,-10.0,0
-256.0,-60.0,-12.0,-34.0,41.0,-9.0,0
-254.0,-59.0,-7.0,-36.0,36.0,-8.0,0
-249.0,-61.0,-8.0,-37.0,31.0,-8.0,0
-255.0,-60.0,-9.0,-40.0,29.0,-9.0,0
-255.0,-57.0,-9.0,-43.0,28.0,-11.0,0
-255.0,-57.0,-8.0,-46.0,26.0,-10.0,0
-256.0,-59.0,-9.0,-49.0,26.0,-11.0,0
-251.0,-62.0,-7.0,-50.0,26.0,-14.0,0
-252.0,-60.0,-9.0,-54.0,26.0,-13.0,0
-253.0,-61.0,-11.0,-54.0,24.0,-13.0,0
-256.0,-58.0,-9.0,-54.0,25.0,-14.0,0
-253.0,-62.0,-11.0,-58.0,23.0,-15.0,0
-253.0,-60.0,-15.0,-59.0,23.0,-15.0,0
-252.0,-64.0,-10.0,-60.0,20.0,-13.0,0
-254.0,-59.0,-9.0,-59.0,20.0,-15.0,0
-260.0,-64.0,-13.0,-58.0,21.0,-15.0,0
-253.0,-64.0,-9.0,-55.0,22.0,-13.0,0
-254.0,-62.0,-11.0,-54.0,20.0,-12.0,0
-251.0,-63.0,-7.0,-51.0,19.0,-12.0,0
-254.0,-61.0,-10.0,-50.0,19.0,-11.0,0
-254.0,-62.0,-10.0,-52.0,17.0,-10.0,0
-254.0,-62.0,-9.0,-50.0,18.0,-11.0,0
-255.0,-62.0,-11.0,-51.0,17.0,-11.0,0
-252.0,-63.0,-8.0,-52.0,18.0,-10.0,0
-256.0,-61.0,-6.0,-53.0,16.0,-10.0,0
-256.0,-63.0,-9.0,-54.0,15.0,-11.0,0
-259.0,-59.0,-14.0,-54.0,15.0,-10.0,0
-254.0,-61.0,-5.0,-51.0,14.0,-11.0,0
-258.0,-59.0,-10.0,-51.0,12.0,-11.0,0
-254.0,-61.0,-10.0,-50.0,10.0,-11.0,0
-252.0,-61.0,-8.0,-50.0,11.0,-12.0,0
-256.0,-60.0,-8.0,-48.0,10.0,-13.0,0
-254.0,-62.0,-7.0,-47.0,10.0,-13.0,0
-253.0,-60.0,-8.0,-46.0,9.0,-14.0,0
-253.0,-62.0,-8.0,-46.0,9.0,-15.0,0
-256.0,-63.0,-10.0,-47.0,8.0,-15.0,0
-253.0,-59.0,-8.0,-47.0,8.0,-15.0,0
-255.0,-62.0,-9.0,-45.0,7.0,-14.0,0
-253.0,-62.0,-7.0,-47.0,8.0,-14.0,0
-253.0,-63.0,-3.0,-49.0,9.0,-14.0,0
-255.0,-61.0,-3.0,-51.0,11.0,-16.0,0
-252.0,-61.0,-8.0,-52.0,12.0,-16.0,0
-254.0,-61.0,-9.0,-52.0,13.0,-17.0,0
-253.0,-62.0,-4.0,-54.0,14.0,-17.0,0
-249.0,-64.0,-3.0,-52.0,17.0,-14.0,0
-253.0,-63.0,-6.0,-51.0,18.0,-14.0,0
-254.0,-63.0,-8.0,-51.0,17.0,-13.0,0
-253.0,-61.0,-7.0,-50.0,19.0,-13.0,0
-245.0,-62.0,-8.0,-49.0,20.0,-12.0,0
-251.0,-61.0,-7.0,-47.0,20.0,-10.0,0
-252.0,-63.0,-7.0,-46.0,20.0,-10.0,0
-255.0,-63.0,-8.0,-47.0,21.0,-7.0,0
-254.0,-63.0,-11.0,-46.0,20.0,-4.0,0
-253.0,-63.0,-7.0,-46.0,19.0,-3.0,0
-250.0,-62.0,-7.0,-45.0,19.0,-2.0,0
-253.0,-62.0,-10.0,-45.0,17.0,0.0,0
-252.0,-62.0,-7.0,-42.0,16.0,1.0,0
-254.0,-58.0,-8.0,-42.0,15.0,3.0,0
-257.0,-61.0,-5.0,-41.0,14.0,3.0,0
-254.0,-62.0,-9.0,-43.0,14.0,4.0,0
-255.0,-60.0,-8.0,-43.0,14.0,4.0,0
-254.0,-63.0,-7.0,-43.0,15.0,4.0,0
-255.0,-64.0,-8.0,-44.0,16.0,4.0,0
-251.0,-60.0,-5.0,-42.0,18.0,3.0,0
-253.0,-63.0,-10.0,-44.0,18.0,4.0,0
-254.0,-62.0,-11.0,-46.0,18.0,2.0,0
-257.0,-63.0,-5.0,-46.0,17.0,2.0,0
-249.0,-61.0,-7.0,-44.0,16.0,1.0,0
-255.0,-62.0,-1.0,-42.0,15.0,1.0,0
-253.0,-58.0,-15.0,-42.0,11.0,0.0,0
-252.0,-63.0,-4.0,-41.0,13.0,0.0,0
-256.0,-62.0,-5.0,-38.0,10.0,-1.0,0
-253.0,-62.0,-5.0,-35.0,11.0,-1.0,0
-253.0,-65.0,-8.0,-34.0,10.0,-1.0,0
-255.0,-63.0,-10.0,-32.0,10.0,-1.0,0
-256.0,-61.0,-10.0,-32.0,9.0,-1.0,0
-255.0,-62.0,-12.0,-32.0,9.0,1.0,0
-254.0,-60.0,-5.0,-29.0,9.0,0.0,0
-255.0,-63.0,-7.0,-30.0,12.0,0.0,0
-253.0,-62.0,-4.0,-29.0,14.0,-1.0,0
-258.0,-63.0,-3.0,-25.0,14.0,-5.0,0
-253.0,-64.0,-10.0,-23.0,15.0,-8.0,0
-256.0,-62.0,-8.0,-21.0,15.0,-13.0,0
-253.0,-62.0,-9.0,-17.0,12.0,-17.0,0
-253.0,-62.0,-9.0,-20.0,13.0,-22.0,0
-253.0,-61.0,-9.0,-26.0,13.0,-26.0,0
-254.0,-62.0,-10.0,-30.0,13.0,-30.0,0
-255.0,-64.0,-10.0,-32.0,13.0,-35.0,0
-256.0,-65.0,-11.0,-33.0,12.0,-41.0,0
-256.0,-66.0,-14.0,-33.0,10.0,-49.0,0
-253.0,-69.0,-12.0,-32.0,6.0,-58.0,0
-260.0,-64.0,-13.0,-29.0,1.0,-65.0,0
-255.0,-71.0,-12.0,-28.0,-5.0,-73.0,0
-255.0,-77.0,-8.0,-29.0,-12.0,-81.0,0
-258.0,-75.0,-11.0,-30.0,-22.0,-91.0,0
-260.0,-79.0,-6.0,-29.0,-29.0,-98.0,0
-262.0,-82.0,0.0,-22.0,-38.0,-105.0,0
-265.0,-83.0,-2.0,-3.0,-48.0,-110.0,0
-267.0,-79.0,-8.0,23.0,-56.0,-112.0,0
-267.0,-78.0,-9.0,49.0,-61.0,-115.0,0
-262.0,-72.0,-15.0,64.0,-62.0,-115.0,0
-253.0,-72.0,-15.0,62.0,-54.0,-117.0,0
-252.0,-74.0,-25.0,45.0,-33.0,-127.0,0
-251.0,-73.0,-18.0,24.0,-7.0,-139.0,0
-248.0,-76.0,-16.0,10.0,9.0,-154.0,0
-248.0,-76.0,-18.0,-2.0,16.0,-170.0,0
-245.0,-77.0,-21.0,-15.0,17.0,-185.0,0
-245.0,-77.0,-14.0,-29.0,20.0,-198.0,0
-247.0,-76.0,-15.0,-44.0,26.0,-212.0,0
-245.0,-75.0,-22.0,-56.0,35.0,-224.0,0
-248.0,-72.0,-24.0,-72.0,45.0,-236.0,0
-252.0,-74.0,-23.0,-92.0,55.0,-248.0,0
-252.0,-71.0,-23.0,-117.0,68.0,-261.0,0
-250.0,-66.0,-20.0,-146.0,77.0,-270.0,0
-254.0,-75.0,-20.0,-173.0,88.0,-274.0,0
-255.0,-75.0,-15.0,-198.0,99.0,-276.0,0
-254.0,-74.0,-11.0,-221.0,107.0,-271.0,0
-257.0,-73.0,-8.0,-239.0,114.0,-260.0,0
-256.0,-76.0,-2.0,-251.0,118.0,-246.0,0
-252.0,-74.0,-3.0,-256.0,116.0,-227.0,0
-256.0,-72.0,2.0,-258.0,113.0,-205.0,0
-250.0,-70.0,1.0,-256.0,115.0,-177.0,0
-252.0,-66.0,12.0,-253.0,118.0,-143.0,0
-251.0,-63.0,13.0,-245.0,133.0,-106.0,0
-249.0,-62.0,7.0,-232.0,153.0,-67.0,0
-245.0,-52.0,12.0,-227.0,178.0,-30.0,0
-241.0,-47.0,15.0,-226.0,204.0,9.0,0
-234.0,-44.0,7.0,-234.0,233.0,55.0,0
-228.0,-37.0,16.0,-246.0,270.0,87.0,0
-227.0,-35.0,14.0,-264.0,308.0,112.0,0
-229.0,-35.0,18.0,-281.0,348.0,134.0,0
-226.0,-30.0,24.0,-304.0,370.0,149.0,0
-224.0,-27.0,24.0,-325.0,384.0,158.0,0
-222.0,-30.0,25.0,-347.0,407.0,159.0,0
-226.0,-28.0,22.0,-364.0,429.0,149.0,0
-228.0,-22.0,24.0,-383.0,452.0,136.0,0
-234.0,-26.0,22.0,-405.0,480.0,119.0,0
-239.0,-23.0,20.0,-421.0,509.0,102.0,0
-249.0,-22.0,17.0,-432.0,535.0,85.0,0
-247.0,-30.0,21.0,-450.0,558.0,55.0,0
-251.0,-20.0,12.0,-449.0,561.0,1.0,0
-258.0,-20.0,16.0,-465.0,586.0,-20.0,0
-264.0,-20.0,13.0,-484.0,618.0,-48.0,0
-268.0,-23.0,13.0,-502.0,642.0,-73.0,0
-272.0,-25.0,13.0,-509.0,661.0,-97.0,0
-280.0,-26.0,8.0,-512.0,681.0,-122.0,0
-273.0,-27.0,5.0,-517.0,691.0,-133.0,0
-276.0,-25.0,2.0,-516.0,706.0,-154.0,0
-278.0,-28.0,-5.0,-504.0,738.0,-175.0,0
-278.0,-29.0,-4.0,-488.0,786.0,-188.0,0
-273.0,-30.0,-4.0,-471.0,835.0,-192.0,0
-269.0,-32.0,-7.0,-458.0,886.0,-197.0,0
-264.0,-33.0,-16.0,-433.0,939.0,-207.0,0
-256.0,-32.0,-16.0,-410.0,998.0,-223.0,0
-246.0,-37.0,-19.0,-388.0,1059.0,-250.0,0
-240.0,-35.0,-22.0,-369.0,1128.0,-285.0,0
-224.0,-38.0,-10.0,-352.0,1201.0,-319.0,0
-221.0,-44.0,-14.0,-335.0,1274.0,-352.0,0
-212.0,-50.0,-12.0,-313.0,1335.0,-386.0,0
-207.0,-52.0,-11.0,-282.0,1375.0,-428.0,0
-207.0,-55.0,-7.0,-237.0,1395.0,-466.0,0
-209.0,-57.0,-7.0,-185.0,1401.0,-509.0,0
-208.0,-59.0,-9.0,-133.0,1384.0,-534.0,0
-216.0,-60.0,-12.0,-84.0,1351.0,-550.0,0
-225.0,-60.0,-21.0,-37.0,1299.0,-560.0,0
-232.0,-59.0,-28.0,3.0,1234.0,-559.0,0
-242.0,-64.0,-35.0,30.0,1166.0,-552.0,0
-249.0,-65.0,-32.0,43.0,1098.0,-543.0,0
-262.0,-64.0,-42.0,53.0,1034.0,-528.0,0
-268.0,-65.0,-50.0,51.0,970.0,-505.0,0
-270.0,-68.0,-51.0,47.0,914.0,-485.0,0
-272.0,-70.0,-62.0,38.0,860.0,-468.0,0
-277.0,-75.0,-69.0,24.0,813.0,-462.0,0
-278.0,-82.0,-75.0,13.0,769.0,-461.0,0
-281.0,-90.0,-84.0,9.0,735.0,-475.0,0
-286.0,-92.0,-85.0,9.0,706.0,-493.0,0
-286.0,-102.0,-99.0,17.0,679.0,-512.0,0
-286.0,-104.0,-105.0,25.0,663.0,-541.0,0
-276.0,-98.0,-116.0,21.0,658.0,-582.0,0
-280.0,-100.0,-119.0,4.0,666.0,-625.0,0
-275.0,-98.0,-125.0,-19.0,670.0,-675.0,0
-270.0,-94.0,-138.0,-40.0,672.0,-725.0,0
-266.0,-96.0,-142.0,-56.0,680.0,-777.0,0
-266.0,-88.0,-149.0,-66.0,685.0,-832.0,0
-261.0,-89.0,-153.0,-80.0,671.0,-892.0,0
-263.0,-85.0,-162.0,-94.0,635.0,-954.0,0
-261.0,-80.0,-163.0,-110.0,590.0,-1014.0,0
-257.0,-70.0,-160.0,-128.0,532.0,-1065.0,0
-258.0,-72.0,-154.0,-146.0,478.0,-1113.0,0
-257.0,-70.0,-154.0,-168.0,428.0,-1162.0,0
-261.0,-66.0,-149.0,-192.0,382.0,-1210.0,0
-255.0,-67.0,-144.0,-218.0,338.0,-1249.0,0
-258.0,-71.0,-141.0,-244.0,302.0,-1286.0,0
-259.0,-77.0,-141.0,-260.0,279.0,-1320.0,0
-257.0,-83.0,-143.0,-272.0,256.0,-1351.0,0
-256.0,-93.0,-143.0,-280.0,229.0,-1386.0,0
-261.0,-94.0,-137.0,-284.0,200.0,-1416.0,0
-256.0,-102.0,-143.0,-271.0,180.0,-1436.0,0
-250.0,-107.0,-140.0,-259.0,159.0,-1457.0,0
-248.0,-109.0,-133.0,-248.0,135.0,-1477.0,0
-250.0,-109.0,-133.0,-247.0,101.0,-1499.0,0
-250.0,-112.0,-134.0,-252.0,57.0,-1516.0,0
-248.0,-110.0,-129.0,-253.0,18.0,-1521.0,0
-240.0,-116.0,-126.0,-251.0,-28.0,-1528.0,0
-236.0,-110.0,-126.0,-249.0,-76.0,-1535.0,0
-231.0,-113.0,-122.0,-248.0,-112.0,-1549.0,0
-227.0,-115.0,-128.0,-245.0,-146.0,-1562.0,0
-224.0,-116.0,-123.0,-235.0,-188.0,-1576.0,0
-222.0,-118.0,-121.0,-225.0,-231.0,-1586.0,0
-220.0,-122.0,-121.0,-213.0,-276.0,-1595.0,0
-225.0,-126.0,-123.0,-197.0,-315.0,-1605.0,0
-214.0,-126.0,-117.0,-183.0,-347.0,-1613.0,0
-217.0,-128.0,-105.0,-171.0,-371.0,-1618.0,0
-214.0,-128.0,-109.0,-160.0,-400.0,-1616.0,0
-215.0,-132.0,-103.0,-150.0,-426.0,-1613.0,0
-219.0,-130.0,-101.0,-135.0,-449.0,-1610.0,0
-209.0,-124.0,-97.0,-116.0,-487.0,-1604.0,0
-192.0,-133.0,-102.0,-100.0,-525.0,-1583.0,0
-199.0,-136.0,-97.0,-89.0,-526.0,-1580.0,0
-198.0,-143.0,-94.0,-86.0,-525.0,-1581.0,0
-199.0,-139.0,-91.0,-72.0,-536.0,-1573.0,0
-196.0,-149.0,-82.0,-46.0,-551.0,-1556.0,0
-194.0,-154.0,-84.0,-15.0,-573.0,-1541.0,0
-193.0,-157.0,-81.0,14.0,-606.0,-1529.0,0
-187.0,-162.0,-82.0,41.0,-640.0,-1518.0,0
-184.0,-162.0,-82.0,64.0,-671.0,-1510.0,0
-180.0,-166.0,-82.0,81.0,-696.0,-1504.0,0
-176.0,-172.0,-87.0,96.0,-720.0,-1502.0,0
-173.0,-173.0,-88.0,109.0,-739.0,-1498.0,0
-169.0,-177.0,-88.0,117.0,-756.0,-1498.0,0
-159.0,-183.0,-84.0,117.0,-779.0,-1500.0,0
-154.0,-191.0,-77.0,143.0,-789.0,-1500.0,0
-154.0,-197.0,-82.0,201.0,-787.0,-1499.0,0
-156.0,-198.0,-80.0,267.0,-803.0,-1496.0,0
-153.0,-198.0,-81.0,332.0,-822.0,-1482.0,0
-150.0,-203.0,-77.0,392.0,-831.0,-1469.0,0
-146.0,-206.0,-79.0,443.0,-837.0,-1469.0,0
-151.0,-208.0,-80.0,480.0,-837.0,-1482.0,0
-154.0,-207.0,-81.0,498.0,-827.0,-1480.0,0
-145.0,-201.0,-90.0,513.0,-815.0,-1473.0,0
-133.0,-193.0,-100.0,522.0,-791.0,-1469.0,0
-130.0,-193.0,-102.0,511.0,-763.0,-1471.0,0
-134.0,-192.0,-96.0,483.0,-741.0,-1473.0,0
-139.0,-187.0,-98.0,451.0,-728.0,-1470.0,0
-140.0,-183.0,-97.0,422.0,-719.0,-1460.0,0
-143.0,-189.0,-99.0,385.0,-712.0,-1448.0,0
-145.0,-189.0,-91.0,345.0,-707.0,-1431.0,0
-143.0,-193.0,-92.0,313.0,-707.0,-1411.0,0
-145.0,-197.0,-84.0,295.0,-704.0,-1385.0,0
-149.0,-197.0,-78.0,289.0,-702.0,-1352.0,0
-151.0,-201.0,-78.0,289.0,-710.0,-1316.0,0
-147.0,-204.0,-67.0,284.0,-729.0,-1278.0,0
-148.0,-207.0,-62.0,287.0,-746.0,-1241.0,0
-146.0,-212.0,-62.0,297.0,-766.0,-1206.0,0
-146.0,-216.0,-61.0,295.0,-789.0,-1173.0,0
-145.0,-221.0,-57.0,287.0,-810.0,-1139.0,0
-144.0,-225.0,-59.0,275.0,-827.0,-1111.0,0
-143.0,-227.0,-57.0,256.0,-844.0,-1086.0,0
-139.0,-228.0,-57.0,228.0,-861.0,-1064.0,0
-139.0,-229.0,-53.0,190.0,-880.0,-1048.0,0
-137.0,-230.0,-52.0,152.0,-898.0,-1039.0,0
-135.0,-229.0,-55.0,112.0,-915.0,-1031.0,0
-134.0,-230.0,-46.0,74.0,-931.0,-1024.0,0
-133.0,-230.0,-42.0,38.0,-945.0,-1018.0,0
-130.0,-231.0,-34.0,9.0,-954.0,-1011.0,0
-129.0,-230.0,-29.0,-13.0,-965.0,-1006.0,0
-124.0,-227.0,-28.0,-24.0,-981.0,-1000.0,0
-121.0,-226.0,-28.0,-36.0,-999.0,-991.0,0
-118.0,-222.0,-26.0,-46.0,-1016.0,-984.0,0
-115.0,-218.0,-23.0,-51.0,-1036.0,-975.0,0
-118.0,-216.0,-21.0,-53.0,-1058.0,-972.0,0
-115.0,-214.0,-25.0,-53.0,-1082.0,-966.0,0
-116.0,-218.0,-19.0,-51.0,-1099.0,-959.0,0
-115.0,-219.0,-22.0,-46.0,-1112.0,-951.0,0
-108.0,-221.0,-26.0,-36.0,-1122.0,-941.0,0
-107.0,-228.0,-18.0,-23.0,-1129.0,-934.0,0
-102.0,-232.0,-16.0,-6.0,-1129.0,-925.0,0
-103.0,-236.0,-13.0,23.0,-1124.0,-916.0,0
-99.0,-241.0,-16.0,58.0,-1122.0,-903.0,0
-102.0,-242.0,-13.0,86.0,-1119.0,-891.0,0
-101.0,-244.0,-13.0,109.0,-1122.0,-881.0,0
-100.0,-244.0,-11.0,131.0,-1130.0,-872.0,0
-101.0,-242.0,-14.0,147.0,-1142.0,-859.0,0
-100.0,-243.0,-9.0,152.0,-1154.0,-841.0,0
-103.0,-240.0,-14.0,152.0,-1169.0,-823.0,0
-95.0,-246.0,-8.0,150.0,-1175.0,-803.0,0
-98.0,-242.0,0.0,142.0,-1173.0,-784.0,0
-95.0,-243.0,-1.0,136.0,-1162.0,-764.0,0
-85.0,-245.0,6.0,125.0,-1148.0,-745.0,0
-86.0,-242.0,7.0,111.0,-1130.0,-725.0,0
-82.0,-242.0,3.0,94.0,-1112.0,-707.0,0
-80.0,-239.0,8.0,73.0,-1096.0,-694.0,0
-78.0,-240.0,13.0,53.0,-1080.0,-684.0,0
-73.0,-243.0,11.0,33.0,-1061.0,-675.0,0
-75.0,-237.0,10.0,14.0,-1043.0,-670.0,0
-76.0,-237.0,8.0,-1.0,-1023.0,-662.0,0
-76.0,-239.0,11.0,-14.0,-1007.0,-656.0,0
-71.0,-239.0,10.0,-21.0,-989.0,-652.0,0
-75.0,-237.0,13.0,-33.0,-973.0,-648.0,0
-75.0,-239.0,11.0,-49.0,-958.0,-643.0,0
-77.0,-238.0,16.0,-69.0,-943.0,-636.0,0
-73.0,-239.0,10.0,-84.0,-922.0,-631.0,0
-72.0,-242.0,14.0,-95.0,-899.0,-629.0,0
-71.0,-243.0,13.0,-113.0,-882.0,-629.0,0
-67.0,-239.0,11.0,-137.0,-864.0,-631.0,0
-66.0,-241.0,14.0,-154.0,-837.0,-632.0,0
-62.0,-244.0,14.0,-158.0,-804.0,-633.0,0
-64.0,-245.0,14.0,-163.0,-769.0,-636.0,0
-58.0,-243.0,13.0,-172.0,-737.0,-642.0,0
-53.0,-244.0,14.0,-175.0,-710.0,-652.0,0
-54.0,-244.0,12.0,-175.0,-684.0,-665.0,0
-55.0,-245.0,11.0,-177.0,-666.0,-681.0,0
-57.0,-244.0,12.0,-177.0,-651.0,-699.0,0
-58.0,-242.0,11.0,-168.0,-639.0,-712.0,0
-54.0,-243.0,6.0,-153.0,-626.0,-723.0,0
-58.0,-243.0,10.0,-133.0,-612.0,-733.0,0
-57.0,-250.0,7.0,-114.0,-603.0,-742.0,0
-59.0,-239.0,13.0,-90.0,-596.0,-749.0,0
-56.0,-247.0,7.0,-67.0,-586.0,-756.0,0
-59.0,-249.0,14.0,-43.0,-567.0,-764.0,0
-61.0,-245.0,14.0,-18.0,-548.0,-769.0,0
-51.0,-248.0,11.0,5.0,-526.0,-776.0,0
-49.0,-247.0,7.0,20.0,-503.0,-784.0,0
-45.0,-249.0,14.0,25.0,-480.0,-792.0,0
-47.0,-250.0,12.0,27.0,-459.0,-803.0,0
-42.0,-250.0,12.0,22.0,-441.0,-813.0,0
-36.0,-254.0,9.0,18.0,-421.0,-822.0,0
-39.0,-254.0,7.0,13.0,-402.0,-833.0,0
-34.0,-256.0,12.0,7.0,-381.0,-843.0,0
-32.0,-253.0,12.0,-1.0,-359.0,-852.0,0
-28.0,-251.0,10.0,-10.0,-335.0,-859.0,0
-28.0,-253.0,3.0,-24.0,-311.0,-868.0,0
-25.0,-255.0,4.0,-38.0,-286.0,-876.0,0
-25.0,-256.0,3.0,-55.0,-264.0,-884.0,0
-20.0,-254.0,4.0,-64.0,-238.0,-889.0,0
-18.0,-256.0,1.0,-67.0,-211.0,-891.0,0
-17.0,-257.0,-7.0,-70.0,-180.0,-896.0,0
-16.0,-256.0,-9.0,-74.0,-151.0,-900.0,0
-14.0,-257.0,3.0,-79.0,-125.0,-903.0,0
-14.0,-259.0,-10.0,-82.0,-104.0,-907.0,0
-15.0,-254.0,-10.0,-80.0,-84.0,-909.0,0
-13.0,-256.0,-14.0,-80.0,-66.0,-913.0,0
-13.0,-255.0,-17.0,-79.0,-52.0,-915.0,0
-10.0,-257.0,-14.0,-80.0,-35.0,-919.0,0
-8.0,-259.0,-15.0,-79.0,-19.0,-919.0,0
-7.0,-263.0,-15.0,-74.0,-1.0,-920.0,0
-9.0,-260.0,-15.0,-67.0,14.0,-920.0,0
-9.0,-265.0,-13.0,-57.0,29.0,-921.0,0
-7.0,-262.0,-10.0,-47.0,41.0,-924.0,0
-10.0,-262.0,-1.0,-32.0,53.0,-929.0,0
-7.0,-266.0,-9.0,-16.0,62.0,-936.0,0
-7.0,-264.0,-9.0,3.0,73.0,-942.0,0
-7.0,-261.0,-5.0,25.0,84.0,-949.0,0
-10.0,-262.0,-5.0,38.0,92.0,-956.0,0
-9.0,-261.0,-5.0,49.0,94.0,-964.0,0
-9.0,-261.0,-11.0,53.0,85.0,-972.0,0
-11.0,-260.0,-8.0,55.0,71.0,-975.0,0
-7.0,-262.0,-7.0,56.0,56.0,-979.0,0
-11.0,-261.0,-10.0,58.0,42.0,-980.0,0
-8.0,-261.0,-4.0,62.0,36.0,-979.0,0
-7.0,-257.0,2.0,67.0,32.0,-976.0,0
-5.0,-257.0,5.0,78.0,32.0,-963.0,0
-5.0,-259.0,0.0,93.0,34.0,-949.0,0
-4.0,-258.0,3.0,107.0,36.0,-933.0,0
-3.0,-259.0,0.0,120.0,37.0,-915.0,0
-3.0,-265.0,6.0,132.0,36.0,-893.0,0
0.0,-269.0,11.0,145.0,32.0,-868.0,0
2.0,-272.0,10.0,158.0,28.0,-842.0,0
0.0,-277.0,3.0,169.0,24.0,-807.0,0
2.0,-287.0,10.0,180.0,29.0,-763.0,0
5.0,-294.0,14.0,194.0,41.0,-710.0,0
-5.0,-306.0,15.0,216.0,60.0,-627.0,0
4.0,-313.0,14.0,238.0,89.0,-539.0,0
14.0,-315.0,15.0,257.0,136.0,-471.0,0
13.0,-312.0,14.0,269.0,175.0,-399.0,0
24.0,-310.0,12.0,270.0,191.0,-319.0,0
33.0,-305.0,10.0,254.0,183.0,-244.0,0
43.0,-295.0,7.0,224.0,162.0,-182.0,0
55.0,-291.0,1.0,189.0,133.0,-109.0,0
67.0,-278.0,5.0,160.0,130.0,-83.0,0
71.0,-275.0,2.0,148.0,137.0,-85.0,0
69.0,-262.0,-4.0,136.0,149.0,-91.0,0
72.0,-259.0,3.0,132.0,161.0,-110.0,0
71.0,-254.0,3.0,138.0,170.0,-135.0,0
70.0,-246.0,3.0,146.0,175.0,-164.0,0
65.0,-244.0,-3.0,145.0,174.0,-193.0,0
61.0,-239.0,-3.0,133.0,169.0,-224.0,0
61.0,-235.0,-6.0,114.0,165.0,-251.0,0
60.0,-233.0,-3.0,90.0,161.0,-275.0,0
59.0,-233.0,-4.0,59.0,158.0,-295.0,0
58.0,-236.0,-1.0,21.0,157.0,-314.0,0
62.0,-237.0,-1.0,-20.0,149.0,-328.0,0
59.0,-245.0,-8.0,-51.0,144.0,-342.0,0
61.0,-249.0,-2.0,-70.0,140.0,-349.0,0
63.0,-254.0,-4.0,-79.0,139.0,-353.0,0
65.0,-257.0,1.0,-72.0,138.0,-351.0,0
67.0,-257.0,2.0,-60.0,131.0,-346.0,0
71.0,-257.0,4.0,-41.0,114.0,-336.0,0
71.0,-257.0,6.0,-23.0,95.0,-322.0,0
66.0,-256.0,8.0,-6.0,73.0,-306.0,0
70.0,-257.0,14.0,8.0,47.0,-290.0,0
68.0,-255.0,21.0,16.0,21.0,-269.0,0
69.0,-257.0,22.0,21.0,-3.0,-248.0,0
58.0,-257.0,24.0,26.0,-27.0,-226.0,0
60.0,-254.0,28.0,31.0,-49.0,-204.0,0
57.0,-253.0,36.0,34.0,-67.0,-181.0,0
52.0,-254.0,31.0,35.0,-81.0,-162.0,0
47.0,-256.0,32.0,35.0,-91.0,-146.0,0
44.0,-257.0,35.0,32.0,-96.0,-130.0,0
37.0,-255.0,35.0,30.0,-95.0,-113.0,0
32.0,-256.0,31.0,29.0,-90.0,-96.0,0
26.0,-255.0,29.0,32.0,-77.0,-80.0,0
26.0,-257.0,31.0,36.0,-66.0,-64.0,0
25.0,-255.0,30.0,46.0,-55.0,-49.0,0
19.0,-258.0,21.0,55.0,-46.0,-32.0,0
14.0,-253.0,22.0,65.0,-41.0,-17.0,0
14.0,-252.0,21.0,72.0,-38.0,-5.0,0
7.0,-249.0,22.0,74.0,-41.0,8.0,0
14.0,-248.0,19.0,72.0,-43.0,20.0,0
12.0,-246.0,18.0,65.0,-44.0,29.0,0
12.0,-246.0,21.0,53.0,-47.0,35.0,0
6.0,-242.0,21.0,36.0,-49.0,39.0,0
8.0,-244.0,17.0,15.0,-50.0,43.0,0
9.0,-244.0,20.0,-9.0,-51.0,44.0,0
11.0,-243.0,13.0,-38.0,-49.0,47.0,0
16.0,-248.0,17.0,-67.0,-43.0,48.0,0
18.0,-248.0,14.0,-97.0,-32.0,53.0,0
21.0,-247.0,15.0,-116.0,-12.0,57.0,0
25.0,-256.0,10.0,-126.0,11.0,62.0,0
26.0,-256.0,17.0,-131.0,38.0,68.0,0
31.0,-259.0,13.0,-129.0,62.0,75.0,0
31.0,-260.0,15.0,-125.0,80.0,81.0,0
33.0,-263.0,12.0,-121.0,94.0,86.0,0
38.0,-258.0,10.0,-118.0,101.0,91.0,0
47.0,-262.0,4.0,-115.0,105.0,94.0,0
44.0,-260.0,4.0,-115.0,106.0,96.0,0
39.0,-258.0,6.0,-114.0,102.0,98.0,0
39.0,-257.0,3.0,-118.0,92.0,97.0,0
38.0,-256.0,8.0,-128.0,91.0,85.0,0
33.0,-253.0,5.0,-140.0,86.0,79.0,0
31.0,-253.0,4.0,-155.0,82.0,71.0,0
30.0,-253.0,4.0,-172.0,81.0,64.0,0
27.0,-250.0,8.0,-191.0,82.0,58.0,0
23.0,-253.0,11.0,-207.0,88.0,52.0,0
24.0,-259.0,7.0,-220.0,93.0,46.0,0
25.0,-255.0,1.0,-230.0,100.0,40.0,0
24.0,-256.0,10.0,-237.0,109.0,36.0,0
21.0,-261.0,14.0,-241.0,117.0,31.0,0
20.0,-267.0,14.0,-245.0,122.0,24.0,0
22.0,-266.0,15.0,-241.0,128.0,19.0,0
20.0,-269.0,14.0,-227.0,131.0,13.0,0
17.0,-269.0,13.0,-203.0,134.0,9.0,0
18.0,-271.0,13.0,-181.0,133.0,4.0,0
15.0,-266.0,14.0,-167.0,129.0,2.0,0
14.0,-265.0,10.0,-156.0,124.0,-4.0,0
13.0,-267.0,14.0,-149.0,117.0,-7.0,0
13.0,-267.0,15.0,-145.0,112.0,-10.0,0
11.0,-264.0,9.0,-143.0,105.0,-11.0,0
10.0,-262.0,14.0,-142.0,101.0,-11.0,0
9.0,-261.0,16.0,-142.0,97.0,-10.0,0
7.0,-262.0,12.0,-140.0,93.0,-9.0,0
4.0,-263.0,9.0,-136.0,87.0,-6.0,0
6.0,-263.0,15.0,-130.0,85.0,-4.0,0
5.0,-262.0,9.0,-125.0,82.0,-1.0,0
3.0,-261.0,10.0,-118.0,81.0,-1.0,0
6.0,-258.0,4.0,-112.0,80.0,1.0,0
2.0,-262.0,6.0,-111.0,81.0,4.0,0
1.0,-259.0,12.0,-107.0,79.0,4.0,0
9.0,-260.0,12.0,-106.0,76.0,3.0,0
6.0,-261.0,10.0,-104.0,74.0,4.0,0
4.0,-260.0,7.0,-99.0,71.0,6.0,0
5.0,-261.0,9.0,-95.0,70.0,6.0,0
8.0,-261.0,8.0,-88.0,67.0,6.0,0
8.0,-260.0,7.0,-84.0,66.0,5.0,0
8.0,-262.0,1.0,-83.0,62.0,6.0,0
3.0,-256.0,3.0,-83.0,59.0,6.0,0
7.0,-258.0,1.0,-87.0,55.0,5.0,0
8.0,-258.0,8.0,-94.0,51.0,4.0,0
8.0,-261.0,5.0,-97.0,48.0,4.0,0
10.0,-259.0,5.0,-99.0,42.0,3.0,0
10.0,-259.0,7.0,-98.0,36.0,2.0,0
10.0,-260.0,7.0,-96.0,32.0,3.0,0
11.0,-262.0,7.0,-93.0,27.0,3.0,0
11.0,-261.0,6.0,-91.0,19.0,5.0,0
10.0,-259.0,6.0,-89.0,15.0,6.0,0
13.0,-261.0,6.0,-85.0,11.0,7.0,0
11.0,-262.0,3.0,-84.0,8.0,9.0,0
15.0,-261.0,8.0,-80.0,5.0,10.0,0
13.0,-264.0,0.0,-77.0,3.0,9.0,0
17.0,-263.0,7.0,-74.0,-1.0,10.0,0
18.0,-264.0,8.0,-70.0,-3.0,9.0,0
19.0,-262.0,5.0,-66.0,-7.0,11.0,0
19.0,-260.0,6.0,-61.0,-11.0,11.0,0
20.0,-262.0,6.0,-57.0,-17.0,11.0,0
19.0,-262.0,4.0,-55.0,-21.0,10.0,0
20.0,-258.0,2.0,-54.0,-26.0,9.0,0
22.0,-260.0,0.0,-50.0,-29.0,9.0,0
21.0,-258.0,6.0,-48.0,-30.0,5.0,0
24.0,-260.0,5.0,-48.0,-32.0,6.0,0
23.0,-256.0,5.0,-50.0,-31.0,5.0,0
20.0,-257.0,7.0,-53.0,-33.0,4.0,0
23.0,-257.0,5.0,-54.0,-31.0,2.0,0
23.0,-258.0,7.0,-57.0,-28.0,1.0,0
22.0,-259.0,7.0,-57.0,-28.0,-1.0,0
24.0,-257.0,12.0,-54.0,-24.0,-2.0,0
25.0,-256.0,7.0,-55.0,-21.0,-3.0,0
24.0,-258.0,3.0,-52.0,-18.0,-5.0,0
26.0,-258.0,7.0,-52.0,-13.0,-6.0,0
27.0,-257.0,6.0,-52.0,-9.0,-5.0,0
26.0,-257.0,6.0,-51.0,-8.0,-5.0,0
28.0,-257.0,1.0,-48.0,-6.0,-6.0,0
25.0,-256.0,6.0,-45.0,-5.0,-5.0,0
25.0,-261.0,8.0,-45.0,-5.0,-7.0,0
24.0,-256.0,6.0,-45.0,-5.0,-7.0,0
24.0,-260.0,7.0,-46.0,-5.0,-8.0,0
26.0,-259.0,7.0,-47.0,-4.0,-7.0,0
23.0,-260.0,9.0,-48.0,-2.0,-7.0,0
25.0,-260.0,7.0,-47.0,-2.0,-6.0,0
24.0,-258.0,7.0,-48.0,-2.0,-6.0,0
19.0,-259.0,10.0,-45.0,-1.0,-7.0,0
22.0,-259.0,5.0,-45.0,-1.0,-7.0,0
25.0,-258.0,0.0,-44.0,0.0,-7.0,0
24.0,-260.0,6.0,-43.0,1.0,-7.0,0
24.0,-258.0,9.0,-42.0,4.0,-8.0,0
22.0,-258.0,4.0,-42.0,6.0,-8.0,0
24.0,-257.0,8.0,-41.0,10.0,-7.0,0
25.0,-257.0,13.0,-40.0,12.0,-8.0,0
26.0,-259.0,7.0,-41.0,16.0,-7.0,0
25.0,-257.0,4.0,-40.0,20.0,-8.0,0
24.0,-257.0,8.0,-40.0,22.0,-8.0,0
29.0,-258.0,6.0,-43.0,22.0,-9.0,0
20.0,-258.0,8.0,-46.0,24.0,-9.0,0
27.0,-254.0,6.0,-46.0,25.0,-9.0,0
23.0,-258.0,7.0,-50.0,27.0,-8.0,0
25.0,-260.0,9.0,-54.0,27.0,-9.0,0
23.0,-260.0,7.0,-56.0,30.0,-6.0,0
24.0,-258.0,7.0,-58.0,31.0,-6.0,0
22.0,-259.0,10.0,-58.0,31.0,-5.0,0
21.0,-258.0,10.0,-57.0,32.0,-4.0,0
22.0,-257.0,5.0,-56.0,31.0,-3.0,0
24.0,-259.0,3.0,-58.0,31.0,-2.0,0
21.0,-258.0,9.0,-60.0,29.0,-4.0,0
22.0,-269.0,4.0,-63.0,29.0,-5.0,0
20.0,-258.0,5.0,-67.0,27.0,-4.0,0
22.0,-258.0,4.0,-67.0,29.0,-6.0,0
20.0,-257.0,6.0,-66.0,30.0,-6.0,0
21.0,-260.0,7.0,-66.0,30.0,-7.0,0
22.0,-260.0,10.0,-67.0,29.0,-7.0,0
21.0,-258.0,7.0,-66.0,29.0,-8.0,0
19.0,-258.0,10.0,-65.0,27.0,-8.0,0
21.0,-260.0,7.0,-64.0,27.0,-9.0,0
21.0,-258.0,7.0,-64.0,24.0,-8.0,0
22.0,-260.0,10.0,-63.0,22.0,-7.0,0
10.0,-258.0,13.0,-62.0,22.0,-7.0,0
22.0,-260.0,6.0,-61.0,20.0,-7.0,0
19.0,-256.0,3.0,-60.0,19.0,-6.0,0
19.0,-259.0,9.0,-59.0,17.0,-6.0,0
18.0,-263.0,2.0,-56.0,15.0,-5.0,0
20.0,-260.0,4.0,-56.0,14.0,-5.0,0
19.0,-260.0,3.0,-54.0,15.0,-5.0,0
21.0,-258.0,7.0,-54.0,14.0,-5.0,0
17.0,-259.0,5.0,-53.0,14.0,-4.0,0
20.0,-261.0,5.0,-53.0,15.0,-4.0,0
20.0,-256.0,6.0,-53.0,16.0,-3.0,0
21.0,-259.0,6.0,-52.0,15.0,-5.0,0
19.0,-258.0,5.0,-50.0,14.0,-4.0,0
18.0,-258.0,5.0,-49.0,12.0,-4.0,0
17.0,-259.0,4.0,-49.0,11.0,-5.0,0
18.0,-262.0,8.0,-49.0,10.0,-4.0,0
16.0,-258.0,1.0,-46.0,10.0,-4.0,0
18.0,-259.0,5.0,-45.0,9.0,-4.0,0
18.0,-261.0,11.0,-46.0,9.0,-4.0,0
22.0,-261.0,3.0,-46.0,8.0,-6.0,0
19.0,-262.0,7.0,-46.0,9.0,-7.0,0
20.0,-257.0,5.0,-46.0,7.0,-5.0,0
15.0,-257.0,6.0,-42.0,6.0,-5.0,0
21.0,-258.0,2.0,-40.0,7.0,-5.0,0
18.0,-259.0,6.0,-41.0,9.0,-4.0,0
22.0,-260.0,9.0,-42.0,7.0,-5.0,0
18.0,-258.0,8.0,-38.0,9.0,-4.0,0
20.0,-259.0,6.0,-39.0,9.0,-5.0,0
23.0,-262.0,1.0,-38.0,9.0,-4.0,0
18.0,-260.0,11.0,-38.0,8.0,-4.0,0
20.0,-258.0,4.0,-37.0,7.0,-4.0,0
20.0,-258.0,7.0,-38.0,7.0,-4.0,0
24.0,-259.0,4.0,-39.0,8.0,-3.0,0
20.0,-257.0,8.0,-38.0,8.0,-2.0,0
21.0,-259.0,6.0,-40.0,8.0,-1.0,0
19.0,-260.0,9.0,-38.0,8.0,-1.0,0
22.0,-257.0,8.0,-38.0,8.0,-2.0,0
22.0,-259.0,5.0,-38.0,7.0,-3.0,0
24.0,-263.0,5.0,-36.0,5.0,-3.0,0
22.0,-259.0,9.0,-37.0,6.0,-3.0,0
24.0,-258.0,8.0,-37.0,5.0,-3.0,0
23.0,-258.0,7.0,-38.0,6.0,-4.0,0
24.0,-259.0,4.0,-39.0,5.0,-5.0,0
22.0,-261.0,8.0,-39.0,6.0,-5.0,0
22.0,-259.0,8.0,-40.0,6.0,-4.0,0
22.0,-259.0,5.0,-39.0,8.0,-5.0,0
21.0,-258.0,7.0,-40.0,8.0,-4.0,0
22.0,-256.0,7.0,-40.0,9.0,-2.0,0
24.0,-257.0,6.0,-41.0,9.0,-3.0,0
22.0,-257.0,4.0,-41.0,12.0,0.0,0
23.0,-258.0,6.0,-40.0,12.0,-2.0,0
25.0,-260.0,8.0,-41.0,14.0,-2.0,0
23.0,-259.0,6.0,-41.0,13.0,-2.0,0
23.0,-264.0,5.0,-41.0,12.0,-3.0,0
21.0,-260.0,6.0,-42.0,11.0,-4.0,0
19.0,-260.0,4.0,-42.0,10.0,-4.0,0
22.0,-262.0,8.0,-43.0,10.0,-5.0,0
21.0,-258.0,6.0,-41.0,11.0,-3.0,0
20.0,-258.0,3.0,-41.0,12.0,-3.0,0
18.0,-257.0,5.0,-39.0,13.0,-3.0,0
20.0,-260.0,1.0,-39.0,14.0,-4.0,0
22.0,-259.0,9.0,-41.0,16.0,-1.0,0
24.0,-258.0,3.0,-41.0,16.0,-1.0,0
22.0,-260.0,11.0,-41.0,19.0,-1.0,0
24.0,-256.0,8.0,-42.0,18.0,-1.0,0
20.0,-258.0,6.0,-43.0,18.0,0.0,0
22.0,-258.0,4.0,-43.0,18.0,0.0,0
24.0,-261.0,7.0,-44.0,18.0,1.0,0
21.0,-259.0,8.0,-46.0,16.0,2.0,0
21.0,-259.0,6.0,-48.0,16.0,1.0,0
20.0,-259.0,5.0,-49.0,16.0,2.0,0
21.0,-258.0,10.0,-49.0,17.0,4.0,0
19.0,-261.0,8.0,-47.0,17.0,3.0,0
21.0,-259.0,8.0,-49.0,16.0,5.0,0
21.0,-258.0,2.0,-49.0,16.0,4.0,0
23.0,-261.0,7.0,-50.0,14.0,5.0,0
18.0,-258.0,4.0,-48.0,13.0,4.0,0
21.0,-257.0,5.0,-49.0,11.0,2.0,0
21.0,-259.0,3.0,-48.0,10.0,3.0,0
18.0,-257.0,10.0,-49.0,10.0,2.0,0
22.0,-258.0,8.0,-48.0,11.0,2.0,0
22.0,-259.0,11.0,-47.0,12.0,1.0,0
21.0,-260.0,5.0,-47.0,13.0,0.0,0
22.0,-257.0,7.0,-46.0,11.0,0.0,0
23.0,-260.0,7.0,-46.0,13.0,-1.0,0
18.0,-258.0,7.0,-44.0,14.0,-2.0,0
22.0,-257.0,6.0,-42.0,15.0,-3.0,0
21.0,-258.0,5.0,-43.0,18.0,-2.0,0
20.0,-261.0,7.0,-41.0,18.0,-1.0,0
20.0,-260.0,7.0,-40.0,17.0,-3.0,0
20.0,-256.0,6.0,-40.0,16.0,-3.0,0
19.0,-258.0,6.0,-40.0,16.0,-2.0,0
21.0,-259.0,5.0,-39.0,15.0,-2.0,0
21.0,-259.0,3.0,-41.0,15.0,-2.0,0
23.0,-259.0,5.0,-40.0,15.0,-1.0,0
23.0,-256.0,2.0,-41.0,15.0,-1.0,0
23.0,-262.0,3.0,-42.0,14.0,-2.0,0
20.0,-259.0,7.0,-40.0,13.0,-1.0,0
21.0,-257.0,7.0,-42.0,13.0,0.0,0
18.0,-257.0,7.0,-41.0,14.0,-1.0,0
17.0,-258.0,11.0,-40.0,13.0,-2.0,0
20.0,-257.0,6.0,-39.0,12.0,-1.0,0
20.0,-260.0,6.0,-40.0,12.0,-2.0,0
22.0,-258.0,6.0,-39.0,12.0,-3.0,0
19.0,-258.0,3.0,-37.0,14.0,-4.0,0
19.0,-258.0,7.0,-39.0,14.0,-4.0,0
19.0,-260.0,0.0,-39.0,16.0,-4.0,0
22.0,-266.0,7.0,-39.0,18.0,-2.0,0
19.0,-260.0,3.0,-38.0,16.0,-4.0,0
21.0,-259.0,7.0,-40.0,18.0,-3.0,0
19.0,-258.0,5.0,-38.0,19.0,-5.0,0
20.0,-256.0,3.0,-37.0,18.0,-6.0,0
17.0,-256.0,8.0,-36.0,16.0,-4.0,0
24.0,-257.0,4.0,-38.0,16.0,-6.0,0
22.0,-260.0,5.0,-39.0,17.0,-5.0,0
20.0,-258.0,9.0,-41.0,16.0,-4.0,0
18.0,-257.0,10.0,-39.0,15.0,-2.0,0
19.0,-259.0,7.0,-38.0,17.0,-2.0,0
21.0,-257.0,15.0,-38.0,16.0,-2.0,0
22.0,-260.0,6.0,-39.0,15.0,-2.0,0
22.0,-259.0,9.0,-39.0,15.0,-3.0,0
21.0,-256.0,8.0,-41.0,15.0,-2.0,0
20.0,-258.0,9.0,-40.0,16.0,-2.0,0
20.0,-258.0,7.0,-40.0,16.0,-2.0,0
19.0,-259.0,6.0,-42.0,17.0,-4.0,0
19.0,-257.0,10.0,-40.0,17.0,-4.0,0
23.0,-259.0,6.0,-40.0,17.0,-3.0,0
24.0,-257.0,7.0,-40.0,16.0,-3.0,0
15.0,-259.0,6.0,-41.0,17.0,-4.0,0
20.0,-259.0,8.0,-39.0,16.0,-4.0,0
19.0,-258.0,10.0,-42.0,17.0,-5.0,0
19.0,-258.0,10.0,-41.0,16.0,-4.0,0
21.0,-259.0,7.0,-43.0,16.0,-5.0,0
21.0,-258.0,6.0,-41.0,15.0,-4.0,0
21.0,-257.0,4.0,-40.0,15.0,-3.0,0
22.0,-259.0,9.0,-40.0,15.0,-4.0,0
18.0,-257.0,11.0,-40.0,14.0,-4.0,0
24.0,-260.0,7.0,-41.0,15.0,-4.0,0
20.0,-259.0,1.0,-40.0,16.0,-2.0,0
20.0,-259.0,6.0,-41.0,15.0,-3.0,0
21.0,-259.0,9.0,-39.0,16.0,-2.0,0
21.0,-262.0,6.0,-38.0,18.0,-3.0,0
18.0,-257.0,3.0,-40.0,17.0,-2.0,0
20.0,-257.0,5.0,-40.0,18.0,-3.0,0
19.0,-257.0,8.0,-39.0,19.0,-3.0,0
18.0,-257.0,7.0,-39.0,18.0,-4.0,0
18.0,-258.0,7.0,-40.0,20.0,-4.0,0
20.0,-259.0,12.0,-40.0,21.0,-3.0,0
22.0,-259.0,13.0,-39.0,19.0,-3.0,0
22.0,-262.0,4.0,-38.0,18.0,-2.0,0
19.0,-260.0,9.0,-36.0,17.0,-2.0,0
22.0,-257.0,11.0,-35.0,17.0,-1.0,0
21.0,-260.0,7.0,-32.0,16.0,-1.0,0
20.0,-258.0,4.0,-33.0,16.0,0.0,0
17.0,-257.0,6.0,-32.0,16.0,0.0,0
18.0,-257.0,7.0,-29.0,16.0,0.0,0
24.0,-258.0,5.0,-29.0,17.0,1.0,0
22.0,-260.0,6.0,-30.0,17.0,2.0,0
24.0,-258.0,12.0,-32.0,16.0,2.0,0
21.0,-255.0,8.0,-32.0,18.0,0.0,0
19.0,-260.0,4.0,-32.0,17.0,1.0,0
20.0,-257.0,6.0,-33.0,17.0,1.0,0
21.0,-259.0,9.0,-33.0,17.0,0.0,0
25.0,-259.0,4.0,-35.0,17.0,-1.0,0
22.0,-258.0,2.0,-37.0,17.0,-3.0,0
22.0,-260.0,9.0,-39.0,18.0,-2.0,0
23.0,-262.0,4.0,-39.0,19.0,-2.0,0
21.0,-260.0,7.0,-40.0,19.0,-2.0,0
21.0,-260.0,7.0,-40.0,20.0,-3.0,0
19.0,-258.0,3.0,-38.0,21.0,-1.0,0
23.0,-258.0,8.0,-38.0,21.0,-2.0,0
19.0,-258.0,9.0,-37.0,18.0,-2.0,0
23.0,-259.0,11.0,-37.0,20.0,-2.0,0
21.0,-258.0,6.0,-36.0,20.0,-4.0,0
19.0,-258.0,8.0,-37.0,18.0,-4.0,0
23.0,-258.0,8.0,-36.0,15.0,-4.0,0
22.0,-258.0,10.0,-36.0,14.0,-5.0,0
19.0,-255.0,4.0,-37.0,12.0,-4.0,0
20.0,-257.0,8.0,-37.0,13.0,-5.0,0
18.0,-260.0,6.0,-36.0,14.0,-6.0,0
18.0,-259.0,6.0,-36.0,15.0,-6.0,0
21.0,-262.0,8.0,-38.0,16.0,-6.0,0
19.0,-257.0,6.0,-39.0,16.0,-7.0,0
19.0,-259.0,6.0,-39.0,17.0,-5.0,0
20.0,-257.0,8.0,-40.0,16.0,-5.0,0
20.0,-260.0,8.0,-39.0,17.0,-6.0,0
19.0,-260.0,7.0,-40.0,19.0,-6.0,0
19.0,-259.0,5.0,-40.0,19.0,-7.0,0
21.0,-261.0,5.0,-40.0,17.0,-6.0,0
18.0,-260.0,5.0,-40.0,16.0,-8.0,0
17.0,-257.0,12.0,-39.0,15.0,-8.0,0
20.0,-263.0,10.0,-38.0,13.0,-8.0,0
17.0,-260.0,3.0,-36.0,11.0,-7.0,0
19.0,-259.0,6.0,-35.0,10.0,-8.0,0
20.0,-259.0,7.0,-34.0,9.0,-9.0,0
19.0,-258.0,6.0,-34.0,9.0,-8.0,0
18.0,-257.0,9.0,-34.0,8.0,-8.0,0
18.0,-256.0,7.0,-32.0,8.0,-9.0,0
18.0,-257.0,9.0,-33.0,6.0,-7.0,0
20.0,-258.0,9.0,-32.0,4.0,-7.0,0
19.0,-259.0,7.0,-33.0,5.0,-7.0,0
17.0,-257.0,5.0,-34.0,7.0,-5.0,0
17.0,-258.0,8.0,-34.0,8.0,-3.0,0
16.0,-255.0,8.0,-34.0,8.0,-1.0,0
19.0,-258.0,10.0,-34.0,7.0,1.0,0
20.0,-258.0,5.0,-35.0,9.0,1.0,0
21.0,-259.0,5.0,-34.0,10.0,3.0,0
20.0,-259.0,6.0,-34.0,10.0,4.0,0
22.0,-258.0,9.0,-32.0,11.0,4.0,0
21.0,-261.0,9.0,-32.0,11.0,3.0,0
24.0,-260.0,9.0,-33.0,10.0,3.0,0
23.0,-259.0,9.0,-34.0,11.0,2.0,0
21.0,-259.0,10.0,-34.0,12.0,2.0,0
23.0,-258.0,11.0,-34.0,11.0,1.0,0
20.0,-258.0,8.0,-34.0,11.0,0.0,0
20.0,-257.0,5.0,-34.0,12.0,0.0,0
21.0,-260.0,4.0,-32.0,14.0,-1.0,0
21.0,-257.0,13.0,-33.0,13.0,0.0,0
22.0,-258.0,10.0,-32.0,15.0,-1.0,0
19.0,-259.0,8.0,-33.0,15.0,-2.0,0
21.0,-259.0,6.0,-35.0,15.0,-4.0,0
18.0,-258.0,11.0,-36.0,15.0,-4.0,0
22.0,-257.0,10.0,-38.0,15.0,-4.0,0
23.0,-261.0,9.0,-41.0,14.0,-5.0,0
18.0,-254.0,13.0,-41.0,16.0,-6.0,0
20.0,-257.0,9.0,-42.0,15.0,-7.0,0
20.0,-258.0,7.0,-38.0,16.0,-6.0,0
22.0,-259.0,5.0,-37.0,17.0,-7.0,0
21.0,-259.0,3.0,-38.0,15.0,-6.0,0
19.0,-259.0,7.0,-40.0,15.0,-5.0,0
19.0,-261.0,3.0,-40.0,14.0,-6.0,0
21.0,-263.0,6.0,-40.0,13.0,-5.0,0
19.0,-258.0,7.0,-43.0,14.0,-4.0,0
18.0,-258.0,8.0,-40.0,15.0,-6.0,0
20.0,-259.0,9.0,-38.0,17.0,-5.0,0
21.0,-255.0,8.0,-38.0,17.0,-6.0,0
18.0,-259.0,13.0,-37.0,16.0,-6.0,0
19.0,-256.0,5.0,-35.0,16.0,-6.0,0
21.0,-258.0,11.0,-35.0,16.0,-6.0,0
21.0,-257.0,9.0,-34.0,17.0,-7.0,0
20.0,-258.0,10.0,-30.0,15.0,-7.0,0
19.0,-259.0,7.0,-28.0,14.0,-7.0,0
20.0,-260.0,12.0,-27.0,15.0,-7.0,0
21.0,-259.0,9.0,-26.0,14.0,-7.0,0
21.0,-258.0,8.0,-24.0,13.0,-8.0,0
25.0,-258.0,10.0,-23.0,15.0,-8.0,0
21.0,-257.0,11.0,-23.0,14.0,-8.0,0
19.0,-256.0,7.0,-23.0,13.0,-8.0,0
21.0,-258.0,8.0,-24.0,14.0,-8.0,0
21.0,-260.0,7.0,-24.0,15.0,-8.0,0
21.0,-257.0,6.0,-24.0,16.0,-8.0,0
23.0,-257.0,8.0,-25.0,17.0,-9.0,0
21.0,-257.0,7.0,-26.0,18.0,-9.0,0
19.0,-259.0,7.0,-25.0,19.0,-9.0,0
22.0,-258.0,3.0,-26.0,18.0,-9.0,0
20.0,-259.0,8.0,-24.0,19.0,-9.0,0
19.0,-259.0,10.0,-24.0,18.0,-9.0,0
19.0,-257.0,9.0,-23.0,19.0,-8.0,0
20.0,-256.0,9.0,-28.0,19.0,-8.0,0
22.0,-259.0,7.0,-30.0,20.0,-7.0,0
22.0,-258.0,9.0,-30.0,21.0,-9.0,0
20.0,-258.0,9.0,-31.0,21.0,-8.0,0
21.0,-257.0,8.0,-31.0,20.0,-8.0,0
23.0,-262.0,12.0,-29.0,21.0,-7.0,0
19.0,-256.0,7.0,-32.0,22.0,-8.0,0
20.0,-259.0,6.0,-33.0,23.0,-8.0,0
18.0,-259.0,11.0,-32.0,23.0,-7.0,0
19.0,-260.0,15.0,-36.0,23.0,-5.0,0
20.0,-257.0,13.0,-36.0,22.0,-4.0,0
20.0,-261.0,11.0,-37.0,20.0,-5.0,0
21.0,-260.0,11.0,-38.0,19.0,-4.0,0
22.0,-260.0,11.0,-37.0,18.0,-4.0,0
