ax,ay,az,gx,gy,gz,label
17.0,-230.0,94.0,-20.0,10.0,-5.0,0
18.0,-236.0,97.0,-18.0,4.0,-6.0,0
14.0,-233.0,97.0,-16.0,2.0,-8.0,0
18.0,-235.0,93.0,-11.0,1.0,-10.0,0
17.0,-233.0,98.0,-6.0,1.0,-10.0,0
17.0,-228.0,97.0,-1.0,1.0,-12.0,0
15.0,-230.0,93.0,5.0,3.0,-11.0,0
20.0,-231.0,88.0,10.0,7.0,-13.0,0
21.0,-234.0,92.0,13.0,10.0,-13.0,0
17.0,-230.0,90.0,16.0,14.0,-16.0,0
16.0,-230.0,89.0,22.0,18.0,-18.0,0
19.0,-230.0,86.0,29.0,19.0,-17.0,0
19.0,-231.0,94.0,35.0,21.0,-18.0,0
18.0,-231.0,93.0,41.0,23.0,-19.0,0
18.0,-228.0,88.0,47.0,21.0,-19.0,0
14.0,-225.0,94.0,50.0,18.0,-20.0,0
15.0,-222.0,90.0,51.0,14.0,-18.0,0
19.0,-229.0,93.0,46.0,14.0,-18.0,0
18.0,-229.0,94.0,40.0,14.0,-17.0,0
21.0,-227.0,90.0,37.0,12.0,-16.0,0
19.0,-227.0,91.0,31.0,9.0,-19.0,0
21.0,-227.0,93.0,27.0,4.0,-19.0,0
15.0,-226.0,96.0,22.0,2.0,-22.0,0
19.0,-226.0,99.0,19.0,3.0,-22.0,0
15.0,-225.0,93.0,19.0,4.0,-19.0,0
19.0,-226.0,96.0,23.0,4.0,-19.0,0
22.0,-237.0,97.0,28.0,7.0,-17.0,0
18.0,-230.0,95.0,34.0,10.0,-19.0,0
18.0,-229.0,95.0,40.0,12.0,-15.0,0
17.0,-231.0,90.0,43.0,13.0,-15.0,0
14.0,-230.0,88.0,47.0,15.0,-12.0,0
15.0,-228.0,93.0,49.0,13.0,-11.0,0
17.0,-229.0,89.0,47.0,14.0,-9.0,0
15.0,-230.0,87.0,43.0,15.0,-8.0,0
16.0,-228.0,87.0,38.0,17.0,-8.0,0
15.0,-228.0,84.0,33.0,20.0,-5.0,0
21.0,-231.0,92.0,30.0,19.0,-6.0,0
13.0,-236.0,84.0,28.0,18.0,-7.0,0
16.0,-230.0,94.0,27.0,16.0,-8.0,0
18.0,-229.0,91.0,30.0,12.0,-8.0,0
18.0,-231.0,91.0,32.0,9.0,-7.0,0
15.0,-228.0,92.0,37.0,7.0,-7.0,0
15.0,-227.0,91.0,42.0,8.0,-3.0,0
20.0,-228.0,93.0,45.0,7.0,-3.0,0
17.0,-228.0,91.0,50.0,8.0,-2.0,0
17.0,-229.0,91.0,52.0,8.0,-2.0,0
16.0,-227.0,94.0,51.0,9.0,-1.0,0
22.0,-230.0,91.0,50.0,10.0,-3.0,0
22.0,-231.0,96.0,48.0,10.0,-4.0,0
17.0,-229.0,95.0,51.0,12.0,-4.0,0
17.0,-228.0,95.0,54.0,14.0,-5.0,0
20.0,-232.0,94.0,57.0,15.0,-6.0,0
18.0,-228.0,94.0,58.0,16.0,-5.0,0
19.0,-230.0,93.0,60.0,17.0,-6.0,0
19.0,-228.0,90.0,61.0,17.0,-5.0,0
20.0,-230.0,94.0,60.0,16.0,-6.0,0
14.0,-229.0,92.0,57.0,14.0,-6.0,0
16.0,-227.0,94.0,58.0,10.0,-6.0,0
15.0,-224.0,93.0,58.0,8.0,-7.0,0
18.0,-231.0,95.0,58.0,8.0,-6.0,0
18.0,-228.0,90.0,58.0,6.0,-8.0,0
17.0,-232.0,92.0,59.0,6.0,-10.0,0
16.0,-229.0,92.0,59.0,5.0,-11.0,0
17.0,-228.0,91.0,60.0,4.0,-11.0,0
15.0,-228.0,96.0,62.0,6.0,-13.0,0
18.0,-228.0,88.0,62.0,7.0,-13.0,0
19.0,-230.0,93.0,64.0,8.0,-13.0,0
17.0,-227.0,94.0,63.0,9.0,-14.0,0
16.0,-225.0,90.0,65.0,11.0,-13.0,0
21.0,-230.0,93.0,67.0,11.0,-12.0,0
16.0,-228.0,85.0,69.0,11.0,-11.0,0
20.0,-228.0,93.0,71.0,9.0,-11.0,0
17.0,-227.0,91.0,71.0,6.0,-10.0,0
17.0,-230.0,95.0,72.0,4.0,-7.0,0
18.0,-232.0,91.0,73.0,1.0,-6.0,0
16.0,-229.0,94.0,71.0,-1.0,-6.0,0
17.0,-228.0,91.0,70.0,0.0,-6.0,0
17.0,-229.0,97.0,71.0,0.0,-7.0,0
16.0,-230.0,99.0,70.0,0.0,-7.0,0
17.0,-226.0,93.0,70.0,2.0,-9.0,0
18.0,-228.0,95.0,70.0,4.0,-10.0,0
22.0,-230.0,99.0,73.0,4.0,-12.0,0
16.0,-226.0,93.0,77.0,6.0,-13.0,0
19.0,-229.0,93.0,80.0,7.0,-13.0,0
18.0,-226.0,95.0,82.0,6.0,-14.0,0
19.0,-228.0,94.0,82.0,6.0,-14.0,0
18.0,-227.0,94.0,81.0,7.0,-13.0,0
18.0,-226.0,94.0,78.0,8.0,-14.0,0
19.0,-224.0,95.0,73.0,7.0,-10.0,0
16.0,-226.0,90.0,67.0,8.0,-8.0,0
14.0,-227.0,95.0,60.0,8.0,-5.0,0
19.0,-231.0,93.0,52.0,10.0,-3.0,0
18.0,-228.0,94.0,47.0,12.0,1.0,0
17.0,-224.0,98.0,46.0,11.0,2.0,0
18.0,-228.0,93.0,46.0,11.0,5.0,0
17.0,-227.0,92.0,47.0,8.0,5.0,0
18.0,-228.0,92.0,49.0,5.0,2.0,0
16.0,-227.0,97.0,49.0,6.0,2.0,0
19.0,-225.0,96.0,49.0,6.0,2.0,0
15.0,-222.0,90.0,49.0,7.0,2.0,0
17.0,-226.0,96.0,48.0,7.0,0.0,0
19.0,-227.0,97.0,49.0,9.0,1.0,0
14.0,-224.0,92.0,49.0,10.0,1.0,0
25.0,-231.0,93.0,48.0,12.0,-1.0,0
17.0,-227.0,93.0,48.0,16.0,0.0,0
19.0,-229.0,97.0,49.0,17.0,-1.0,0
19.0,-227.0,97.0,52.0,18.0,-2.0,0
18.0,-227.0,95.0,55.0,20.0,-4.0,0
20.0,-225.0,92.0,57.0,20.0,-3.0,0
19.0,-229.0,96.0,56.0,20.0,-2.0,0
18.0,-229.0,96.0,57.0,20.0,-3.0,0
17.0,-225.0,94.0,58.0,20.0,-4.0,0
19.0,-226.0,93.0,58.0,20.0,-3.0,0
17.0,-227.0,93.0,58.0,21.0,-5.0,0
19.0,-227.0,94.0,57.0,21.0,-5.0,0
19.0,-226.0,95.0,56.0,19.0,-4.0,0
17.0,-229.0,94.0,53.0,18.0,-3.0,0
21.0,-227.0,94.0,50.0,19.0,0.0,0
16.0,-226.0,97.0,49.0,18.0,-2.0,0
18.0,-227.0,99.0,48.0,15.0,-3.0,0
17.0,-230.0,94.0,47.0,15.0,-2.0,0
18.0,-231.0,90.0,48.0,14.0,0.0,0
21.0,-229.0,92.0,51.0,15.0,-1.0,0
16.0,-228.0,94.0,53.0,14.0,0.0,0
26.0,-230.0,92.0,57.0,11.0,0.0,0
17.0,-230.0,92.0,60.0,10.0,-1.0,0
19.0,-228.0,92.0,63.0,9.0,-1.0,0
20.0,-228.0,87.0,66.0,8.0,-3.0,0
20.0,-228.0,92.0,68.0,8.0,-4.0,0
18.0,-226.0,91.0,68.0,8.0,-4.0,0
19.0,-228.0,91.0,66.0,8.0,-3.0,0
18.0,-226.0,92.0,64.0,8.0,-4.0,0
15.0,-222.0,92.0,62.0,10.0,-6.0,0
17.0,-226.0,94.0,59.0,12.0,-6.0,0
13.0,-227.0,94.0,56.0,13.0,-4.0,0
17.0,-225.0,97.0,55.0,14.0,-5.0,0
20.0,-229.0,92.0,53.0,15.0,-7.0,0
19.0,-228.0,95.0,54.0,18.0,-5.0,0
17.0,-228.0,96.0,53.0,18.0,-8.0,0
17.0,-225.0,93.0,54.0,19.0,-8.0,0
18.0,-228.0,98.0,53.0,21.0,-8.0,0
14.0,-229.0,96.0,51.0,20.0,-7.0,0
17.0,-227.0,100.0,49.0,17.0,-7.0,0
14.0,-229.0,94.0,48.0,14.0,-3.0,0
19.0,-230.0,95.0,51.0,11.0,-3.0,0
16.0,-227.0,93.0,50.0,9.0,-2.0,0
18.0,-230.0,104.0,51.0,9.0,-3.0,0
16.0,-230.0,96.0,52.0,9.0,-1.0,0
19.0,-225.0,94.0,54.0,8.0,-3.0,0
18.0,-228.0,96.0,57.0,4.0,-3.0,0
14.0,-226.0,97.0,59.0,5.0,-3.0,0
14.0,-229.0,93.0,60.0,4.0,-3.0,0
17.0,-230.0,94.0,60.0,3.0,-3.0,0
12.0,-227.0,96.0,61.0,4.0,-3.0,0
16.0,-225.0,89.0,60.0,3.0,-5.0,0
11.0,-225.0,90.0,59.0,1.0,-4.0,0
17.0,-229.0,92.0,58.0,1.0,-3.0,0
13.0,-227.0,92.0,56.0,0.0,-5.0,0
16.0,-228.0,95.0,54.0,0.0,-4.0,0
15.0,-231.0,98.0,53.0,2.0,-4.0,0
14.0,-228.0,91.0,51.0,3.0,-5.0,0
15.0,-228.0,91.0,51.0,3.0,-5.0,0
15.0,-228.0,87.0,53.0,5.0,-6.0,0
18.0,-231.0,94.0,52.0,4.0,-4.0,0
16.0,-230.0,92.0,55.0,3.0,-5.0,0
16.0,-229.0,88.0,57.0,2.0,-6.0,0
15.0,-228.0,93.0,59.0,0.0,-4.0,0
16.0,-226.0,94.0,63.0,-1.0,-4.0,0
13.0,-227.0,86.0,64.0,-2.0,-4.0,0
17.0,-228.0,94.0,65.0,-1.0,-4.0,0
16.0,-228.0,91.0,65.0,-2.0,-6.0,0
16.0,-231.0,90.0,63.0,-1.0,-7.0,0
17.0,-230.0,91.0,61.0,0.0,-8.0,0
17.0,-227.0,92.0,58.0,0.0,-6.0,0
13.0,-227.0,91.0,54.0,-1.0,-8.0,0
14.0,-229.0,89.0,51.0,-2.0,-8.0,0
13.0,-230.0,90.0,49.0,-5.0,-6.0,0
20.0,-229.0,94.0,49.0,-6.0,-7.0,0
16.0,-229.0,95.0,50.0,-6.0,-7.0,0
18.0,-227.0,93.0,52.0,-6.0,-5.0,0
18.0,-231.0,96.0,54.0,-5.0,-6.0,0
19.0,-232.0,92.0,57.0,-4.0,-6.0,0
15.0,-227.0,93.0,59.0,-4.0,-7.0,0
15.0,-226.0,94.0,62.0,-5.0,-7.0,0
17.0,-230.0,92.0,66.0,-3.0,-6.0,0
19.0,-227.0,93.0,68.0,-2.0,-7.0,0
23.0,-228.0,94.0,67.0,-2.0,-7.0,0
19.0,-228.0,90.0,67.0,-4.0,-9.0,0
17.0,-230.0,94.0,66.0,-5.0,-10.0,0
18.0,-228.0,91.0,64.0,-5.0,-12.0,0
13.0,-227.0,96.0,63.0,-5.0,-11.0,0
20.0,-232.0,95.0,63.0,-2.0,-11.0,0
22.0,-231.0,98.0,62.0,-2.0,-10.0,0
17.0,-229.0,96.0,63.0,0.0,-8.0,0
23.0,-231.0,97.0,63.0,4.0,-6.0,0
18.0,-231.0,98.0,64.0,10.0,-3.0,0
17.0,-229.0,97.0,65.0,16.0,-1.0,0
19.0,-232.0,95.0,67.0,19.0,2.0,0
19.0,-228.0,94.0,68.0,20.0,3.0,0
21.0,-231.0,96.0,70.0,17.0,5.0,0
15.0,-228.0,95.0,71.0,17.0,7.0,0
15.0,-228.0,96.0,72.0,17.0,5.0,0
16.0,-223.0,96.0,74.0,16.0,1.0,0
21.0,-228.0,90.0,76.0,13.0,-1.0,0
16.0,-222.0,90.0,75.0,11.0,-6.0,0
20.0,-226.0,93.0,74.0,9.0,-9.0,0
17.0,-227.0,92.0,72.0,11.0,-11.0,0
17.0,-225.0,92.0,71.0,10.0,-12.0,0
22.0,-226.0,95.0,70.0,11.0,-11.0,0
17.0,-223.0,96.0,70.0,13.0,-11.0,0
17.0,-227.0,98.0,70.0,15.0,-10.0,0
17.0,-222.0,95.0,66.0,18.0,-12.0,0
18.0,-227.0,92.0,63.0,17.0,-11.0,0
17.0,-226.0,91.0,59.0,15.0,-10.0,0
16.0,-226.0,94.0,56.0,13.0,-12.0,0
14.0,-226.0,93.0,52.0,11.0,-11.0,0
18.0,-230.0,96.0,51.0,14.0,-10.0,0
17.0,-226.0,96.0,52.0,17.0,-10.0,0
20.0,-227.0,95.0,57.0,20.0,-11.0,0
19.0,-228.0,97.0,60.0,21.0,-14.0,0
15.0,-227.0,93.0,66.0,24.0,-14.0,0
17.0,-229.0,95.0,71.0,24.0,-14.0,0
15.0,-232.0,97.0,73.0,23.0,-14.0,0
15.0,-225.0,100.0,76.0,24.0,-14.0,0
17.0,-227.0,95.0,79.0,23.0,-15.0,0
16.0,-227.0,98.0,79.0,25.0,-14.0,0
16.0,-226.0,97.0,78.0,24.0,-14.0,0
18.0,-228.0,98.0,76.0,24.0,-15.0,0
18.0,-225.0,95.0,69.0,24.0,-14.0,0
18.0,-225.0,98.0,63.0,26.0,-14.0,0
20.0,-228.0,97.0,56.0,27.0,-13.0,0
18.0,-228.0,96.0,50.0,27.0,-13.0,0
17.0,-226.0,97.0,45.0,25.0,-12.0,0
17.0,-221.0,97.0,42.0,21.0,-9.0,0
17.0,-227.0,92.0,40.0,21.0,-10.0,0
17.0,-229.0,95.0,42.0,21.0,-8.0,0
20.0,-228.0,98.0,45.0,22.0,-10.0,0
19.0,-228.0,91.0,49.0,22.0,-10.0,0
16.0,-225.0,93.0,53.0,22.0,-12.0,0
17.0,-228.0,95.0,57.0,22.0,-14.0,0
19.0,-227.0,98.0,58.0,21.0,-11.0,0
18.0,-225.0,95.0,61.0,19.0,-10.0,0
18.0,-227.0,95.0,61.0,18.0,-9.0,0
17.0,-226.0,96.0,60.0,20.0,-8.0,0
16.0,-226.0,93.0,59.0,22.0,-7.0,0
18.0,-226.0,99.0,58.0,22.0,-6.0,0
15.0,-230.0,98.0,57.0,23.0,-6.0,0
17.0,-228.0,99.0,57.0,21.0,-8.0,0
20.0,-230.0,98.0,53.0,20.0,-8.0,0
17.0,-229.0,98.0,51.0,21.0,-7.0,0
16.0,-230.0,96.0,49.0,19.0,-7.0,0
15.0,-224.0,94.0,50.0,19.0,-9.0,0
18.0,-229.0,97.0,49.0,17.0,-9.0,0
15.0,-225.0,99.0,49.0,15.0,-9.0,0
13.0,-227.0,94.0,49.0,13.0,-12.0,0
13.0,-230.0,90.0,51.0,11.0,-9.0,0
13.0,-225.0,93.0,53.0,11.0,-10.0,0
16.0,-229.0,92.0,55.0,12.0,-10.0,0
17.0,-226.0,95.0,58.0,11.0,-10.0,0
15.0,-228.0,96.0,60.0,10.0,-8.0,0
17.0,-226.0,96.0,63.0,10.0,-9.0,0
18.0,-226.0,93.0,64.0,9.0,-8.0,0
16.0,-229.0,94.0,65.0,9.0,-8.0,0
13.0,-228.0,89.0,65.0,8.0,-5.0,0
15.0,-229.0,94.0,63.0,8.0,-6.0,0
15.0,-229.0,88.0,62.0,8.0,-5.0,0
17.0,-221.0,93.0,59.0,8.0,-3.0,0
15.0,-227.0,94.0,55.0,10.0,-4.0,0
19.0,-231.0,96.0,52.0,10.0,-4.0,0
17.0,-228.0,91.0,52.0,11.0,-5.0,0
16.0,-227.0,94.0,53.0,13.0,-6.0,0
17.0,-230.0,95.0,54.0,14.0,-5.0,0
19.0,-226.0,95.0,56.0,13.0,-8.0,0
22.0,-232.0,95.0,59.0,12.0,-10.0,0
17.0,-230.0,93.0,62.0,11.0,-10.0,0
16.0,-225.0,99.0,64.0,11.0,-11.0,0
15.0,-227.0,96.0,65.0,10.0,-11.0,0
20.0,-224.0,91.0,65.0,10.0,-9.0,0
17.0,-228.0,93.0,66.0,11.0,-8.0,0
22.0,-232.0,93.0,69.0,13.0,-9.0,0
18.0,-227.0,92.0,70.0,13.0,-9.0,0
14.0,-228.0,96.0,71.0,14.0,-9.0,0
14.0,-227.0,96.0,71.0,14.0,-8.0,0
14.0,-227.0,97.0,70.0,12.0,-7.0,0
16.0,-229.0,97.0,70.0,11.0,-7.0,0
15.0,-228.0,93.0,70.0,11.0,-7.0,0
15.0,-227.0,98.0,69.0,11.0,-6.0,0
15.0,-229.0,98.0,70.0,12.0,-8.0,0
16.0,-231.0,95.0,75.0,10.0,-7.0,0
14.0,-229.0,98.0,78.0,9.0,-9.0,0
16.0,-229.0,95.0,79.0,8.0,-9.0,0
16.0,-227.0,96.0,83.0,9.0,-8.0,0
17.0,-228.0,94.0,86.0,8.0,-10.0,0
15.0,-227.0,99.0,88.0,12.0,-10.0,0
15.0,-227.0,95.0,89.0,10.0,-9.0,0
15.0,-226.0,102.0,89.0,9.0,-11.0,0
19.0,-227.0,101.0,87.0,8.0,-9.0,0
17.0,-229.0,98.0,83.0,8.0,-5.0,0
14.0,-225.0,93.0,82.0,9.0,-5.0,0
16.0,-226.0,96.0,81.0,10.0,-5.0,0
16.0,-227.0,96.0,78.0,10.0,-7.0,0
17.0,-227.0,95.0,77.0,10.0,-10.0,0
18.0,-226.0,96.0,76.0,9.0,-12.0,0
16.0,-226.0,94.0,76.0,8.0,-12.0,0
16.0,-227.0,96.0,79.0,7.0,-12.0,0
19.0,-229.0,95.0,84.0,4.0,-12.0,0
14.0,-227.0,102.0,91.0,3.0,-14.0,0
20.0,-231.0,100.0,98.0,2.0,-14.0,0
19.0,-234.0,98.0,107.0,4.0,-16.0,0
17.0,-234.0,102.0,113.0,5.0,-17.0,0
13.0,-236.0,101.0,113.0,5.0,-19.0,0
12.0,-234.0,101.0,105.0,3.0,-18.0,0
6.0,-237.0,105.0,97.0,-6.0,-15.0,0
4.0,-240.0,107.0,91.0,-22.0,-11.0,0
4.0,-245.0,106.0,90.0,-46.0,-8.0,0
0.0,-247.0,112.0,95.0,-75.0,-6.0,0
-4.0,-252.0,122.0,107.0,-118.0,-7.0,0
-10.0,-258.0,126.0,123.0,-159.0,-5.0,0
-16.0,-261.0,130.0,138.0,-206.0,-6.0,0
-21.0,-268.0,141.0,149.0,-254.0,-8.0,0
-30.0,-270.0,151.0,149.0,-306.0,-20.0,0
-26.0,-281.0,151.0,120.0,-357.0,-35.0,0
-37.0,-288.0,149.0,56.0,-410.0,-46.0,0
-37.0,-291.0,144.0,-56.0,-465.0,-41.0,0
-24.0,-299.0,137.0,-209.0,-501.0,-38.0,0
-9.0,-303.0,124.0,-369.0,-517.0,-48.0,0
-1.0,-308.0,105.0,-517.0,-512.0,-63.0,0
2.0,-309.0,95.0,-620.0,-520.0,-67.0,0
2.0,-322.0,82.0,-643.0,-563.0,-59.0,0
-7.0,-334.0,72.0,-565.0,-647.0,-53.0,0
-13.0,-345.0,64.0,-379.0,-730.0,-69.0,0
-20.0,-357.0,56.0,-87.0,-760.0,-115.0,0
-17.0,-350.0,46.0,272.0,-691.0,-182.0,0
-37.0,-334.0,42.0,649.0,-523.0,-262.0,0
-59.0,-315.0,52.0,1008.0,-340.0,-334.0,0
-76.0,-287.0,58.0,1307.0,-220.0,-393.0,0
-87.0,-255.0,54.0,1518.0,-161.0,-437.0,0
-92.0,-221.0,56.0,1646.0,-142.0,-461.0,0
-75.0,-186.0,46.0,1710.0,-153.0,-462.0,0
-56.0,-144.0,36.0,1691.0,-161.0,-464.0,0
-30.0,-102.0,39.0,1593.0,-166.0,-459.0,0
-14.0,-69.0,39.0,1452.0,-200.0,-434.0,0
-2.0,-67.0,36.0,1290.0,-269.0,-380.0,0
11.0,-54.0,29.0,1099.0,-355.0,-311.0,0
34.0,-63.0,24.0,879.0,-426.0,-229.0,0
53.0,-77.0,26.0,646.0,-453.0,-135.0,0
71.0,-96.0,30.0,411.0,-434.0,-42.0,0
89.0,-127.0,40.0,200.0,-381.0,45.0,0
106.0,-157.0,50.0,23.0,-299.0,124.0,0
127.0,-186.0,57.0,-108.0,-195.0,193.0,0
136.0,-215.0,64.0,-193.0,-70.0,252.0,0
143.0,-234.0,67.0,-225.0,75.0,296.0,0
139.0,-252.0,67.0,-214.0,237.0,324.0,0
133.0,-264.0,66.0,-176.0,394.0,349.0,0
127.0,-269.0,63.0,-115.0,539.0,369.0,0
122.0,-268.0,68.0,-49.0,673.0,380.0,0
116.0,-259.0,66.0,9.0,803.0,382.0,0
100.0,-248.0,71.0,48.0,932.0,394.0,0
81.0,-236.0,77.0,56.0,1047.0,425.0,0
73.0,-230.0,88.0,37.0,1130.0,473.0,0
70.0,-219.0,88.0,-4.0,1185.0,531.0,0
66.0,-215.0,90.0,-53.0,1217.0,590.0,0
57.0,-211.0,87.0,-106.0,1235.0,660.0,0
49.0,-204.0,87.0,-151.0,1247.0,740.0,0
38.0,-201.0,84.0,-176.0,1257.0,824.0,0
27.0,-195.0,83.0,-187.0,1269.0,908.0,0
21.0,-189.0,82.0,-191.0,1278.0,996.0,0
26.0,-180.0,82.0,-192.0,1278.0,1095.0,0
35.0,-171.0,82.0,-202.0,1278.0,1200.0,0
53.0,-168.0,92.0,-210.0,1278.0,1296.0,0
69.0,-170.0,95.0,-211.0,1278.0,1368.0,0
84.0,-180.0,105.0,-193.0,1288.0,1426.0,0
102.0,-195.0,119.0,-142.0,1281.0,1457.0,0
112.0,-225.0,117.0,-72.0,1247.0,1462.0,0
111.0,-264.0,131.0,6.0,1220.0,1447.0,0
116.0,-292.0,143.0,85.0,1243.0,1405.0,0
111.0,-326.0,166.0,159.0,1319.0,1333.0,0
99.0,-350.0,188.0,220.0,1400.0,1255.0,0
97.0,-363.0,196.0,269.0,1420.0,1179.0,0
104.0,-369.0,204.0,302.0,1350.0,1128.0,0
122.0,-379.0,201.0,334.0,1223.0,1143.0,0
158.0,-379.0,191.0,361.0,1090.0,1199.0,0
200.0,-377.0,171.0,368.0,1019.0,1280.0,0
198.0,-373.0,164.0,374.0,1042.0,1370.0,0
189.0,-362.0,164.0,427.0,1130.0,1465.0,0
151.0,-347.0,157.0,526.0,1207.0,1580.0,0
141.0,-322.0,154.0,623.0,1225.0,1717.0,0
146.0,-303.0,165.0,705.0,1183.0,1863.0,0
146.0,-284.0,167.0,788.0,1110.0,1973.0,0
129.0,-268.0,152.0,882.0,1054.0,2052.0,0
113.0,-258.0,122.0,957.0,1021.0,2129.0,0
84.0,-253.0,93.0,1014.0,990.0,2210.0,0
67.0,-246.0,84.0,1069.0,960.0,2286.0,0
64.0,-231.0,95.0,1139.0,947.0,2306.0,0
66.0,-216.0,102.0,1212.0,988.0,2280.0,0
61.0,-203.0,109.0,1271.0,1106.0,2251.0,0
48.0,-187.0,108.0,1294.0,1288.0,2248.0,0
43.0,-175.0,121.0,1297.0,1399.0,2259.0,0
36.0,-170.0,124.0,1292.0,1459.0,2260.0,0
15.0,-162.0,141.0,1278.0,1493.0,2241.0,0
7.0,-163.0,141.0,1260.0,1518.0,2214.0,0
-2.0,-163.0,140.0,1241.0,1541.0,2177.0,0
-19.0,-165.0,131.0,1231.0,1571.0,2134.0,0
-30.0,-169.0,133.0,1238.0,1607.0,2087.0,0
-39.0,-166.0,130.0,1251.0,1651.0,2040.0,0
-49.0,-157.0,136.0,1256.0,1690.0,1995.0,0
-58.0,-147.0,134.0,1241.0,1699.0,1946.0,0
-61.0,-135.0,129.0,1199.0,1695.0,1897.0,0
-67.0,-129.0,124.0,1134.0,1703.0,1857.0,0
-76.0,-123.0,103.0,1057.0,1710.0,1831.0,0
-86.0,-109.0,81.0,980.0,1698.0,1821.0,0
-98.0,-100.0,67.0,905.0,1664.0,1821.0,0
-106.0,-88.0,67.0,838.0,1627.0,1835.0,0
-117.0,-85.0,62.0,781.0,1606.0,1853.0,0
-140.0,-72.0,73.0,722.0,1615.0,1874.0,0
-157.0,-64.0,86.0,650.0,1631.0,1905.0,0
-188.0,-63.0,102.0,561.0,1618.0,1951.0,0
-198.0,-69.0,112.0,474.0,1548.0,2007.0,0
-194.0,-81.0,111.0,393.0,1450.0,2057.0,0
-193.0,-86.0,106.0,333.0,1360.0,2097.0,0
-182.0,-94.0,99.0,294.0,1283.0,2122.0,0
-174.0,-93.0,94.0,274.0,1216.0,2129.0,0
-161.0,-94.0,86.0,268.0,1165.0,2124.0,0
-152.0,-88.0,73.0,268.0,1142.0,2111.0,0
-155.0,-88.0,63.0,257.0,1159.0,2100.0,0
-183.0,-75.0,64.0,226.0,1194.0,2094.0,0
-213.0,-63.0,78.0,189.0,1227.0,2112.0,0
-241.0,-61.0,90.0,151.0,1224.0,2139.0,0
-253.0,-55.0,89.0,96.0,1186.0,2154.0,0
-259.0,-46.0,91.0,22.0,1152.0,2142.0,0
-276.0,-41.0,87.0,-58.0,1136.0,2125.0,0
-295.0,-36.0,83.0,-131.0,1114.0,2123.0,0
-305.0,-31.0,78.0,-187.0,1060.0,2147.0,0
-310.0,-28.0,73.0,-219.0,974.0,2193.0,0
-303.0,-28.0,64.0,-233.0,875.0,2240.0,0
-301.0,-25.0,67.0,-254.0,790.0,2271.0,0
-297.0,-19.0,69.0,-289.0,731.0,2285.0,0
-275.0,-24.0,68.0,-338.0,688.0,2295.0,0
-257.0,-27.0,63.0,-391.0,662.0,2304.0,0
-235.0,-30.0,52.0,-436.0,626.0,2313.0,0
-232.0,-31.0,60.0,-465.0,555.0,2319.0,0
-230.0,-31.0,69.0,-491.0,453.0,2326.0,0
-243.0,-35.0,72.0,-529.0,313.0,2327.0,0
-256.0,-47.0,72.0,-597.0,136.0,2319.0,0
-263.0,-68.0,65.0,-666.0,-19.0,2307.0,0
-261.0,-81.0,46.0,-671.0,-103.0,2301.0,0
-264.0,-91.0,44.0,-614.0,-132.0,2314.0,0
-252.0,-96.0,47.0,-499.0,-163.0,2322.0,0
-228.0,-101.0,54.0,-365.0,-189.0,2320.0,0
-215.0,-93.0,56.0,-251.0,-184.0,2313.0,0
-202.0,-87.0,39.0,-162.0,-155.0,2313.0,0
-183.0,-72.0,41.0,-90.0,-117.0,2313.0,0
-174.0,-57.0,32.0,-37.0,-87.0,2305.0,0
-165.0,-37.0,31.0,5.0,-71.0,2292.0,0
-166.0,-22.0,37.0,21.0,-63.0,2264.0,0
-179.0,-9.0,51.0,12.0,-60.0,2226.0,0
-207.0,2.0,65.0,-21.0,-60.0,2195.0,0
-209.0,3.0,68.0,-79.0,-68.0,2176.0,0
-204.0,-5.0,62.0,-151.0,-56.0,2162.0,0
-195.0,-13.0,48.0,-221.0,-32.0,2153.0,0
-193.0,-17.0,45.0,-258.0,-1.0,2140.0,0
-190.0,-24.0,44.0,-257.0,31.0,2128.0,0
-194.0,-18.0,54.0,-230.0,55.0,2124.0,0
-208.0,-11.0,64.0,-193.0,56.0,2122.0,0
-221.0,-3.0,69.0,-152.0,34.0,2114.0,0
-240.0,-2.0,72.0,-120.0,15.0,2098.0,0
-271.0,4.0,76.0,-101.0,1.0,2059.0,0
-313.0,6.0,71.0,-102.0,-11.0,2006.0,0
-368.0,4.0,59.0,-112.0,-23.0,1944.0,0
-406.0,-2.0,41.0,-124.0,-26.0,1857.0,0
-435.0,-9.0,17.0,-106.0,21.0,1755.0,0
-468.0,-2.0,7.0,-23.0,116.0,1622.0,0
-475.0,14.0,3.0,130.0,273.0,1470.0,0
-477.0,58.0,25.0,324.0,400.0,1307.0,0
-469.0,89.0,47.0,497.0,473.0,1139.0,0
-447.0,124.0,67.0,595.0,505.0,977.0,0
-398.0,144.0,87.0,580.0,522.0,838.0,0
-361.0,159.0,84.0,472.0,537.0,745.0,0
-304.0,156.0,88.0,336.0,559.0,708.0,0
-263.0,152.0,85.0,246.0,582.0,706.0,0
-230.0,148.0,96.0,238.0,620.0,720.0,0
-209.0,147.0,97.0,296.0,660.0,718.0,0
-182.0,140.0,105.0,372.0,680.0,677.0,0
-168.0,138.0,99.0,418.0,684.0,602.0,0
-158.0,132.0,96.0,418.0,683.0,519.0,0
-166.0,135.0,90.0,357.0,695.0,420.0,0
-180.0,133.0,89.0,223.0,710.0,331.0,0
-201.0,124.0,87.0,9.0,705.0,275.0,0
-212.0,98.0,76.0,-261.0,654.0,268.0,0
-224.0,71.0,70.0,-544.0,550.0,296.0,0
-229.0,34.0,45.0,-794.0,415.0,354.0,0
-224.0,0.0,26.0,-973.0,258.0,413.0,0
-217.0,-25.0,16.0,-1065.0,103.0,448.0,0
-214.0,-33.0,13.0,-1064.0,-20.0,482.0,0
-199.0,-30.0,17.0,-972.0,-99.0,522.0,0
-194.0,-17.0,19.0,-814.0,-131.0,572.0,0
-197.0,3.0,25.0,-627.0,-133.0,631.0,0
-200.0,23.0,23.0,-452.0,-121.0,701.0,0
-207.0,38.0,19.0,-318.0,-106.0,774.0,0
-212.0,58.0,17.0,-217.0,-105.0,854.0,0
-215.0,78.0,18.0,-146.0,-122.0,927.0,0
-224.0,101.0,12.0,-99.0,-142.0,975.0,0
-231.0,121.0,12.0,-79.0,-162.0,1000.0,0
-243.0,132.0,12.0,-91.0,-194.0,1005.0,0
-250.0,154.0,11.0,-135.0,-236.0,991.0,0
-270.0,165.0,15.0,-202.0,-294.0,953.0,0
-284.0,169.0,17.0,-296.0,-380.0,896.0,0
-308.0,170.0,14.0,-412.0,-480.0,830.0,0
-310.0,167.0,21.0,-560.0,-614.0,766.0,0
-302.0,151.0,28.0,-718.0,-748.0,707.0,0
-295.0,134.0,34.0,-866.0,-859.0,649.0,0
-292.0,115.0,55.0,-993.0,-936.0,599.0,0
-297.0,102.0,66.0,-1085.0,-1020.0,559.0,0
-317.0,87.0,77.0,-1134.0,-1133.0,531.0,0
-329.0,79.0,82.0,-1156.0,-1262.0,525.0,0
-335.0,68.0,104.0,-1165.0,-1343.0,531.0,0
-340.0,71.0,121.0,-1164.0,-1288.0,503.0,0
-337.0,69.0,136.0,-1159.0,-1126.0,447.0,0
-343.0,77.0,159.0,-1144.0,-924.0,374.0,0
-322.0,77.0,166.0,-1118.0,-739.0,315.0,0
-285.0,65.0,159.0,-1075.0,-594.0,270.0,0
-244.0,56.0,155.0,-1009.0,-489.0,249.0,0
-206.0,42.0,145.0,-910.0,-424.0,251.0,0
-150.0,29.0,148.0,-786.0,-379.0,258.0,0
-103.0,18.0,160.0,-645.0,-318.0,277.0,0
-68.0,14.0,164.0,-485.0,-233.0,308.0,0
-51.0,7.0,159.0,-316.0,-140.0,333.0,0
-47.0,0.0,152.0,-151.0,-65.0,346.0,0
-51.0,-1.0,153.0,-13.0,-29.0,342.0,0
-77.0,0.0,162.0,92.0,-38.0,319.0,0
-91.0,2.0,172.0,167.0,-78.0,297.0,0
-106.0,4.0,174.0,204.0,-131.0,273.0,0
-142.0,8.0,174.0,214.0,-165.0,236.0,0
-163.0,23.0,151.0,210.0,-178.0,187.0,0
-182.0,31.0,130.0,185.0,-158.0,98.0,0
-196.0,52.0,127.0,132.0,-101.0,-21.0,0
-205.0,61.0,124.0,61.0,-6.0,-168.0,0
-213.0,70.0,132.0,-5.0,102.0,-315.0,0
-215.0,83.0,139.0,-78.0,205.0,-446.0,0
-215.0,97.0,146.0,-145.0,267.0,-542.0,0
-213.0,103.0,154.0,-194.0,275.0,-608.0,0
-210.0,106.0,154.0,-214.0,244.0,-633.0,0
-191.0,97.0,160.0,-208.0,205.0,-616.0,0
-169.0,84.0,162.0,-182.0,175.0,-566.0,0
-165.0,71.0,180.0,-136.0,173.0,-529.0,0
-170.0,67.0,182.0,-59.0,191.0,-519.0,0
-168.0,61.0,190.0,27.0,212.0,-535.0,0
-175.0,57.0,193.0,80.0,238.0,-564.0,0
-180.0,47.0,197.0,84.0,265.0,-593.0,0
-187.0,41.0,197.0,57.0,290.0,-635.0,0
-186.0,29.0,189.0,10.0,319.0,-688.0,0
-185.0,20.0,178.0,-33.0,351.0,-747.0,0
-188.0,12.0,171.0,-75.0,398.0,-804.0,0
-188.0,2.0,162.0,-115.0,460.0,-849.0,0
-188.0,0.0,151.0,-141.0,540.0,-879.0,0
-183.0,0.0,147.0,-136.0,629.0,-888.0,0
-179.0,-3.0,136.0,-103.0,732.0,-882.0,0
-183.0,-4.0,123.0,-51.0,835.0,-853.0,0
-189.0,-7.0,110.0,19.0,931.0,-803.0,0
-189.0,-6.0,103.0,100.0,1015.0,-745.0,0
-191.0,-7.0,100.0,179.0,1080.0,-675.0,0
-197.0,-12.0,89.0,247.0,1114.0,-604.0,0
-207.0,-18.0,89.0,298.0,1110.0,-535.0,0
-200.0,-27.0,79.0,326.0,1076.0,-472.0,0
-204.0,-32.0,80.0,338.0,1025.0,-417.0,0
-209.0,-41.0,84.0,346.0,972.0,-386.0,0
-232.0,-52.0,78.0,357.0,904.0,-377.0,0
-254.0,-56.0,76.0,357.0,812.0,-375.0,0
-262.0,-59.0,76.0,345.0,700.0,-372.0,0
-262.0,-59.0,71.0,325.0,585.0,-378.0,0
-273.0,-60.0,68.0,306.0,483.0,-382.0,0
-285.0,-58.0,62.0,289.0,407.0,-374.0,0
-293.0,-47.0,62.0,272.0,351.0,-355.0,0
-293.0,-47.0,61.0,259.0,304.0,-322.0,0
-293.0,-40.0,55.0,253.0,261.0,-283.0,0
-290.0,-34.0,46.0,247.0,227.0,-239.0,0
-285.0,-31.0,42.0,235.0,202.0,-196.0,0
-287.0,-20.0,32.0,211.0,190.0,-153.0,0
-279.0,-9.0,21.0,185.0,186.0,-105.0,0
-280.0,-6.0,18.0,154.0,188.0,-57.0,0
-274.0,-2.0,15.0,116.0,184.0,-13.0,0
-273.0,-3.0,12.0,70.0,163.0,20.0,0
-275.0,0.0,11.0,21.0,135.0,44.0,0
-278.0,0.0,8.0,-31.0,100.0,65.0,0
-283.0,-3.0,7.0,-76.0,64.0,87.0,0
-285.0,-9.0,5.0,-114.0,29.0,106.0,0
-284.0,-10.0,8.0,-141.0,1.0,120.0,0
-284.0,-18.0,5.0,-163.0,-24.0,131.0,0
-283.0,-18.0,5.0,-186.0,-31.0,137.0,0
-281.0,-17.0,5.0,-202.0,-20.0,136.0,0
-274.0,-22.0,1.0,-210.0,8.0,130.0,0
-282.0,-22.0,7.0,-208.0,39.0,120.0,0
-287.0,-20.0,11.0,-199.0,60.0,110.0,0
-288.0,-20.0,17.0,-189.0,65.0,99.0,0
-286.0,-21.0,22.0,-179.0,54.0,85.0,0
-289.0,-19.0,25.0,-173.0,29.0,68.0,0
-292.0,-17.0,31.0,-165.0,-6.0,43.0,0
-293.0,-16.0,25.0,-154.0,-38.0,13.0,0
-292.0,-20.0,26.0,-153.0,-63.0,-26.0,0
-286.0,-18.0,31.0,-165.0,-66.0,-72.0,0
-291.0,-25.0,25.0,-184.0,-47.0,-121.0,0
-295.0,-29.0,27.0,-203.0,-19.0,-161.0,0
-301.0,-32.0,38.0,-204.0,3.0,-182.0,0
-299.0,-33.0,45.0,-168.0,9.0,-179.0,0
-289.0,-37.0,60.0,-91.0,3.0,-149.0,0
-278.0,-35.0,66.0,24.0,-6.0,-106.0,0
-255.0,-34.0,78.0,160.0,-7.0,-57.0,0
-238.0,-26.0,89.0,295.0,10.0,-8.0,0
-215.0,-13.0,95.0,412.0,52.0,34.0,0
-188.0,-6.0,99.0,498.0,108.0,74.0,0
-166.0,8.0,107.0,543.0,172.0,104.0,0
-152.0,21.0,107.0,547.0,237.0,127.0,0
-140.0,29.0,108.0,505.0,303.0,136.0,0
-132.0,35.0,104.0,420.0,363.0,133.0,0
-135.0,37.0,95.0,302.0,419.0,115.0,0
-144.0,38.0,92.0,163.0,471.0,81.0,0
-167.0,37.0,82.0,19.0,518.0,31.0,0
-181.0,32.0,76.0,-112.0,557.0,-12.0,0
-212.0,24.0,74.0,-217.0,581.0,-57.0,0
-243.0,20.0,69.0,-289.0,599.0,-98.0,0
-265.0,10.0,70.0,-323.0,600.0,-127.0,0
-287.0,7.0,68.0,-320.0,591.0,-147.0,0
-311.0,7.0,72.0,-285.0,567.0,-159.0,0
-320.0,1.0,74.0,-221.0,519.0,-160.0,0
-333.0,-2.0,80.0,-165.0,454.0,-151.0,0
-343.0,0.0,81.0,-113.0,367.0,-134.0,0
-339.0,1.0,82.0,-67.0,261.0,-110.0,0
-335.0,6.0,81.0,-35.0,142.0,-86.0,0
-324.0,2.0,76.0,-17.0,21.0,-58.0,0
-309.0,1.0,72.0,-13.0,-89.0,-32.0,0
-288.0,0.0,67.0,-21.0,-177.0,-15.0,0
-270.0,-2.0,66.0,-33.0,-237.0,-8.0,0
-255.0,-10.0,61.0,-44.0,-271.0,-16.0,0
-245.0,-15.0,63.0,-46.0,-289.0,-30.0,0
-238.0,-10.0,64.0,-35.0,-298.0,-46.0,0
-228.0,-12.0,64.0,-11.0,-302.0,-57.0,0
-222.0,-13.0,63.0,22.0,-305.0,-63.0,0
-222.0,-14.0,65.0,57.0,-304.0,-67.0,0
-218.0,-12.0,69.0,89.0,-297.0,-70.0,0
-220.0,-11.0,68.0,118.0,-285.0,-67.0,0
-222.0,-11.0,72.0,147.0,-273.0,-61.0,0
-221.0,-8.0,76.0,177.0,-261.0,-57.0,0
-218.0,-8.0,76.0,209.0,-247.0,-46.0,0
-217.0,-4.0,73.0,241.0,-233.0,-36.0,0
-220.0,-2.0,71.0,273.0,-221.0,-23.0,0
-219.0,1.0,77.0,304.0,-213.0,-10.0,0
-224.0,0.0,74.0,330.0,-205.0,7.0,0
-225.0,5.0,75.0,348.0,-197.0,20.0,0
-229.0,7.0,72.0,357.0,-186.0,34.0,0
-231.0,9.0,69.0,354.0,-172.0,45.0,0
-236.0,9.0,72.0,344.0,-154.0,55.0,0
-239.0,13.0,72.0,326.0,-134.0,64.0,0
-240.0,8.0,70.0,306.0,-114.0,70.0,0
-242.0,9.0,70.0,285.0,-90.0,78.0,0
-244.0,7.0,69.0,264.0,-67.0,80.0,0
-242.0,5.0,70.0,241.0,-42.0,79.0,0
-244.0,6.0,66.0,219.0,-19.0,76.0,0
-250.0,9.0,69.0,196.0,-4.0,70.0,0
-251.0,9.0,73.0,174.0,5.0,68.0,0
-252.0,9.0,72.0,153.0,14.0,66.0,0
-253.0,11.0,74.0,134.0,32.0,72.0,0
-254.0,14.0,70.0,122.0,58.0,81.0,0
-252.0,14.0,71.0,110.0,87.0,88.0,0
-250.0,13.0,68.0,90.0,114.0,87.0,0
-249.0,13.0,68.0,63.0,133.0,78.0,0
-239.0,16.0,65.0,35.0,139.0,72.0,0
-246.0,14.0,71.0,13.0,133.0,74.0,0
-244.0,15.0,68.0,4.0,121.0,77.0,0
-245.0,17.0,69.0,-2.0,108.0,77.0,0
-244.0,12.0,65.0,-10.0,98.0,72.0,0
-243.0,14.0,61.0,-25.0,90.0,62.0,0
-245.0,18.0,63.0,-45.0,79.0,53.0,0
-249.0,18.0,61.0,-64.0,58.0,48.0,0
-249.0,15.0,60.0,-78.0,32.0,48.0,0
-245.0,10.0,62.0,-88.0,4.0,48.0,0
-250.0,9.0,57.0,-93.0,-20.0,49.0,0
-248.0,2.0,53.0,-93.0,-43.0,53.0,0
-252.0,1.0,60.0,-89.0,-60.0,59.0,0
-249.0,3.0,64.0,-75.0,-71.0,64.0,0
-249.0,0.0,65.0,-57.0,-80.0,75.0,0
-248.0,0.0,64.0,-36.0,-87.0,83.0,0
-253.0,0.0,66.0,-10.0,-96.0,92.0,0
-251.0,-5.0,64.0,15.0,-102.0,100.0,0
-254.0,-1.0,66.0,40.0,-105.0,105.0,0
-247.0,-5.0,72.0,67.0,-109.0,108.0,0
-253.0,-2.0,70.0,91.0,-116.0,108.0,0
-250.0,-1.0,68.0,112.0,-118.0,105.0,0
-249.0,-3.0,71.0,135.0,-123.0,102.0,0
-248.0,-1.0,73.0,156.0,-125.0,95.0,0
-245.0,-2.0,75.0,177.0,-123.0,92.0,0
-243.0,1.0,75.0,198.0,-120.0,85.0,0
-244.0,3.0,77.0,218.0,-116.0,76.0,0
-242.0,2.0,79.0,238.0,-111.0,69.0,0
-243.0,4.0,75.0,261.0,-106.0,64.0,0
-239.0,5.0,77.0,273.0,-100.0,57.0,0
-238.0,4.0,77.0,280.0,-96.0,53.0,0
-239.0,5.0,81.0,284.0,-94.0,51.0,0
-239.0,6.0,85.0,287.0,-97.0,53.0,0
-236.0,10.0,81.0,287.0,-103.0,56.0,0
-240.0,11.0,83.0,281.0,-115.0,61.0,0
-238.0,12.0,84.0,266.0,-127.0,63.0,0
-236.0,14.0,82.0,247.0,-137.0,68.0,0
-238.0,15.0,83.0,223.0,-152.0,71.0,0
-236.0,15.0,83.0,198.0,-163.0,74.0,0
-236.0,18.0,81.0,175.0,-172.0,71.0,0
-237.0,18.0,90.0,152.0,-179.0,70.0,0
-242.0,23.0,82.0,134.0,-180.0,67.0,0
-236.0,19.0,80.0,117.0,-175.0,61.0,0
-242.0,21.0,84.0,100.0,-159.0,54.0,0
-245.0,21.0,87.0,80.0,-136.0,48.0,0
-243.0,21.0,85.0,58.0,-109.0,42.0,0
-240.0,19.0,84.0,37.0,-82.0,37.0,0
-244.0,22.0,85.0,18.0,-56.0,34.0,0
-239.0,20.0,83.0,3.0,-31.0,32.0,0
-238.0,22.0,83.0,-11.0,-12.0,29.0,0
-240.0,23.0,76.0,-23.0,5.0,26.0,0
-239.0,23.0,80.0,-34.0,16.0,22.0,0
-237.0,19.0,80.0,-43.0,22.0,17.0,0
-234.0,20.0,81.0,-52.0,23.0,13.0,0
-241.0,17.0,78.0,-58.0,23.0,7.0,0
-238.0,18.0,75.0,-58.0,19.0,3.0,0
-237.0,20.0,77.0,-58.0,15.0,-1.0,0
-238.0,18.0,75.0,-56.0,11.0,-4.0,0
-240.0,17.0,78.0,-52.0,6.0,-5.0,0
-244.0,19.0,75.0,-48.0,2.0,-5.0,0
-243.0,15.0,79.0,-44.0,-4.0,0.0,0
-242.0,13.0,77.0,-39.0,-9.0,2.0,0
-242.0,14.0,72.0,-31.0,-14.0,6.0,0
-246.0,11.0,69.0,-27.0,-19.0,9.0,0
-246.0,15.0,77.0,-21.0,-22.0,10.0,0
-248.0,15.0,83.0,-14.0,-27.0,14.0,0
-245.0,14.0,75.0,-8.0,-31.0,14.0,0
-245.0,12.0,75.0,-1.0,-36.0,14.0,0
-248.0,13.0,79.0,5.0,-41.0,10.0,0
-246.0,16.0,76.0,9.0,-42.0,8.0,0
-247.0,16.0,77.0,11.0,-38.0,2.0,0
-246.0,17.0,77.0,9.0,-31.0,-3.0,0
-245.0,16.0,76.0,5.0,-17.0,-8.0,0
-250.0,15.0,76.0,1.0,-1.0,-12.0,0
-249.0,23.0,77.0,-3.0,13.0,-16.0,0
-248.0,17.0,81.0,-5.0,25.0,-18.0,0
-250.0,17.0,72.0,-5.0,35.0,-23.0,0
-245.0,13.0,77.0,-4.0,44.0,-24.0,0
-245.0,16.0,77.0,0.0,53.0,-26.0,0
-240.0,14.0,78.0,2.0,63.0,-28.0,0
-240.0,12.0,76.0,6.0,74.0,-31.0,0
-240.0,13.0,77.0,11.0,84.0,-31.0,0
-237.0,9.0,82.0,14.0,92.0,-32.0,0
-239.0,13.0,79.0,18.0,99.0,-29.0,0
-236.0,7.0,78.0,22.0,101.0,-29.0,0
-240.0,14.0,76.0,25.0,99.0,-21.0,0
-238.0,21.0,81.0,25.0,98.0,-19.0,0
-238.0,15.0,79.0,20.0,94.0,-15.0,0
-235.0,14.0,79.0,14.0,91.0,-10.0,0
-236.0,14.0,76.0,3.0,87.0,-7.0,0
-235.0,15.0,78.0,-9.0,82.0,-7.0,0
-240.0,15.0,77.0,-20.0,76.0,-5.0,0
-241.0,15.0,80.0,-27.0,72.0,-4.0,0
-242.0,13.0,78.0,-31.0,67.0,-4.0,0
-244.0,13.0,79.0,-32.0,67.0,-7.0,0
-243.0,12.0,74.0,-32.0,73.0,-11.0,0
-244.0,9.0,74.0,-28.0,82.0,-14.0,0
-243.0,8.0,71.0,-26.0,93.0,-18.0,0
-241.0,5.0,77.0,-20.0,100.0,-22.0,0
-244.0,5.0,75.0,-16.0,105.0,-21.0,0
-243.0,3.0,76.0,-3.0,108.0,-21.0,0
-242.0,6.0,80.0,8.0,107.0,-18.0,0
-245.0,4.0,78.0,21.0,103.0,-18.0,0
-242.0,5.0,78.0,33.0,96.0,-13.0,0
-243.0,9.0,71.0,43.0,89.0,-11.0,0
-240.0,7.0,78.0,49.0,79.0,-10.0,0
-238.0,10.0,72.0,53.0,71.0,-11.0,0
-241.0,16.0,74.0,55.0,64.0,-9.0,0
-240.0,11.0,70.0,52.0,60.0,-7.0,0
-241.0,15.0,71.0,47.0,59.0,-5.0,0
-245.0,19.0,70.0,36.0,58.0,-2.0,0
-246.0,19.0,66.0,22.0,58.0,3.0,0
-246.0,21.0,69.0,7.0,59.0,7.0,0
-246.0,21.0,73.0,-9.0,57.0,13.0,0
-244.0,22.0,77.0,-26.0,56.0,19.0,0
-243.0,21.0,78.0,-44.0,50.0,26.0,0
-244.0,19.0,86.0,-64.0,41.0,32.0,0
-245.0,25.0,83.0,-86.0,31.0,39.0,0
-245.0,22.0,86.0,-109.0,19.0,42.0,0
-244.0,22.0,87.0,-134.0,7.0,45.0,0
-243.0,18.0,91.0,-161.0,0.0,41.0,0
-249.0,18.0,87.0,-189.0,3.0,32.0,0
-249.0,14.0,82.0,-217.0,20.0,13.0,0
-250.0,9.0,78.0,-241.0,54.0,-13.0,0
-249.0,5.0,75.0,-251.0,109.0,-43.0,0
-249.0,4.0,69.0,-243.0,179.0,-73.0,0
-243.0,-2.0,70.0,-214.0,251.0,-102.0,0
-247.0,-1.0,63.0,-170.0,317.0,-124.0,0
-249.0,0.0,57.0,-119.0,369.0,-140.0,0
-249.0,-4.0,53.0,-67.0,405.0,-152.0,0
-247.0,0.0,61.0,-23.0,418.0,-159.0,0
-250.0,1.0,62.0,12.0,415.0,-159.0,0
-249.0,0.0,61.0,38.0,394.0,-157.0,0
-252.0,3.0,62.0,57.0,359.0,-147.0,0
-248.0,5.0,64.0,72.0,313.0,-135.0,0
-249.0,5.0,65.0,82.0,259.0,-119.0,0
-247.0,4.0,68.0,89.0,201.0,-102.0,0
-249.0,8.0,64.0,96.0,144.0,-88.0,0
-249.0,10.0,65.0,98.0,94.0,-78.0,0
-246.0,9.0,66.0,96.0,51.0,-66.0,0
-249.0,12.0,65.0,95.0,19.0,-58.0,0
-249.0,11.0,64.0,91.0,-5.0,-51.0,0
-250.0,13.0,65.0,86.0,-17.0,-43.0,0
-246.0,16.0,61.0,82.0,-23.0,-40.0,0
-250.0,16.0,59.0,76.0,-22.0,-36.0,0
-251.0,13.0,57.0,71.0,-15.0,-33.0,0
-246.0,10.0,57.0,63.0,-3.0,-30.0,0
-249.0,10.0,56.0,55.0,12.0,-28.0,0
-248.0,11.0,56.0,47.0,30.0,-27.0,0
-249.0,12.0,62.0,38.0,45.0,-26.0,0
-244.0,13.0,60.0,31.0,56.0,-25.0,0
-250.0,12.0,62.0,27.0,64.0,-23.0,0
-248.0,10.0,61.0,24.0,63.0,-19.0,0
-249.0,8.0,63.0,23.0,59.0,-13.0,0
-248.0,3.0,65.0,22.0,51.0,-13.0,0
-245.0,7.0,69.0,25.0,42.0,-9.0,0
-247.0,6.0,68.0,27.0,34.0,-8.0,0
-248.0,7.0,69.0,30.0,24.0,-5.0,0
-248.0,7.0,72.0,32.0,16.0,-3.0,0
-244.0,6.0,66.0,36.0,7.0,-2.0,0
-244.0,7.0,68.0,39.0,0.0,-1.0,0
-246.0,9.0,66.0,43.0,-7.0,0.0,0
-246.0,5.0,68.0,46.0,-12.0,0.0,0
-243.0,2.0,68.0,48.0,-14.0,-1.0,0
-248.0,7.0,65.0,50.0,-15.0,-3.0,0
-247.0,9.0,67.0,51.0,-14.0,-2.0,0
-248.0,11.0,66.0,48.0,-12.0,-3.0,0
-246.0,9.0,66.0,45.0,-10.0,-8.0,0
-248.0,12.0,69.0,40.0,-6.0,-9.0,0
-244.0,6.0,66.0,34.0,0.0,-12.0,0
-244.0,6.0,68.0,26.0,4.0,-14.0,0
-247.0,11.0,69.0,20.0,8.0,-15.0,0
-248.0,8.0,66.0,16.0,11.0,-17.0,0
-246.0,9.0,67.0,14.0,13.0,-18.0,0
-245.0,5.0,65.0,15.0,15.0,-22.0,0
-251.0,7.0,66.0,14.0,16.0,-24.0,0
-248.0,4.0,66.0,14.0,16.0,-24.0,0
-248.0,6.0,68.0,16.0,15.0,-24.0,0
-246.0,6.0,68.0,17.0,12.0,-24.0,0
-248.0,3.0,69.0,20.0,9.0,-21.0,0
-243.0,5.0,68.0,25.0,7.0,-20.0,0
-244.0,3.0,67.0,30.0,7.0,-19.0,0
-247.0,1.0,61.0,34.0,6.0,-18.0,0
-244.0,4.0,66.0,39.0,4.0,-22.0,0
-242.0,5.0,70.0,45.0,0.0,-22.0,0
-245.0,5.0,67.0,50.0,-5.0,-22.0,0
-246.0,6.0,68.0,54.0,-10.0,-25.0,0
-246.0,7.0,67.0,57.0,-11.0,-27.0,0
-245.0,7.0,67.0,57.0,-10.0,-28.0,0
-243.0,4.0,68.0,58.0,-9.0,-28.0,0
-247.0,3.0,68.0,58.0,-6.0,-28.0,0
-244.0,4.0,67.0,60.0,-2.0,-31.0,0
-244.0,5.0,71.0,65.0,1.0,-30.0,0
-254.0,6.0,71.0,72.0,2.0,-34.0,0
-243.0,4.0,67.0,83.0,1.0,-34.0,0
-244.0,3.0,66.0,94.0,1.0,-36.0,0
-241.0,3.0,65.0,107.0,0.0,-37.0,0
-244.0,4.0,65.0,118.0,2.0,-39.0,0
-242.0,5.0,64.0,128.0,4.0,-39.0,0
-246.0,7.0,66.0,136.0,6.0,-39.0,0
-245.0,8.0,63.0,142.0,11.0,-42.0,0
-242.0,5.0,62.0,147.0,13.0,-42.0,0
-246.0,8.0,66.0,150.0,14.0,-42.0,0
-243.0,5.0,69.0,154.0,12.0,-41.0,0
-242.0,4.0,63.0,162.0,10.0,-38.0,0
-242.0,4.0,64.0,167.0,6.0,-38.0,0
-244.0,5.0,69.0,169.0,2.0,-34.0,0
-243.0,6.0,65.0,173.0,3.0,-32.0,0
-244.0,6.0,67.0,176.0,3.0,-28.0,0
-240.0,1.0,69.0,179.0,1.0,-25.0,0
-243.0,4.0,68.0,183.0,0.0,-22.0,0
-245.0,3.0,67.0,187.0,-2.0,-18.0,0
-247.0,4.0,71.0,192.0,-5.0,-17.0,0
-245.0,4.0,68.0,198.0,-9.0,-17.0,0
-245.0,9.0,64.0,200.0,-12.0,-14.0,0
-248.0,8.0,68.0,198.0,-14.0,-13.0,0
-250.0,12.0,62.0,193.0,-18.0,-12.0,0
-248.0,12.0,62.0,183.0,-23.0,-9.0,0
-248.0,8.0,66.0,174.0,-30.0,-8.0,0
-249.0,11.0,64.0,167.0,-36.0,-6.0,0
-250.0,10.0,63.0,160.0,-42.0,-3.0,0
-250.0,13.0,64.0,155.0,-45.0,-4.0,0
-248.0,13.0,64.0,153.0,-46.0,-4.0,0
-250.0,11.0,63.0,150.0,-45.0,-4.0,0
-249.0,8.0,64.0,151.0,-42.0,-5.0,0
-247.0,10.0,64.0,151.0,-38.0,-5.0,0
-249.0,12.0,67.0,152.0,-29.0,-4.0,0
-251.0,12.0,63.0,148.0,-18.0,-4.0,0
-248.0,11.0,63.0,142.0,-4.0,-4.0,0
-249.0,9.0,67.0,130.0,14.0,-7.0,0
-250.0,7.0,65.0,119.0,30.0,-10.0,0
-249.0,6.0,66.0,105.0,44.0,-16.0,0
-245.0,7.0,71.0,100.0,59.0,-23.0,0
-241.0,2.0,70.0,105.0,72.0,-32.0,0
-246.0,3.0,71.0,122.0,83.0,-44.0,0
-247.0,2.0,67.0,151.0,94.0,-56.0,0
-243.0,6.0,74.0,186.0,105.0,-64.0,0
-244.0,4.0,71.0,224.0,114.0,-65.0,0
-243.0,6.0,70.0,253.0,121.0,-67.0,0
-243.0,9.0,71.0,271.0,122.0,-64.0,0
-242.0,9.0,67.0,277.0,118.0,-60.0,0
-243.0,10.0,65.0,266.0,111.0,-54.0,0
-242.0,12.0,63.0,243.0,100.0,-48.0,0
-243.0,13.0,67.0,215.0,87.0,-40.0,0
-246.0,17.0,65.0,184.0,71.0,-35.0,0
-243.0,13.0,68.0,154.0,55.0,-30.0,0
-242.0,16.0,63.0,129.0,38.0,-27.0,0
-246.0,13.0,65.0,108.0,25.0,-25.0,0
-248.0,12.0,68.0,93.0,13.0,-23.0,0
-249.0,12.0,68.0,89.0,5.0,-20.0,0
-246.0,9.0,69.0,89.0,0.0,-18.0,0
-246.0,10.0,67.0,93.0,-2.0,-18.0,0
-244.0,11.0,66.0,98.0,-3.0,-17.0,0
-248.0,13.0,71.0,103.0,-1.0,-16.0,0
-243.0,10.0,67.0,106.0,2.0,-14.0,0
-247.0,12.0,70.0,109.0,5.0,-12.0,0
-248.0,16.0,71.0,108.0,9.0,-11.0,0
-244.0,11.0,75.0,106.0,9.0,-8.0,0
-248.0,16.0,68.0,101.0,9.0,-7.0,0
-247.0,15.0,67.0,96.0,6.0,-4.0,0
-246.0,13.0,66.0,92.0,3.0,-3.0,0
-250.0,11.0,68.0,84.0,-1.0,-4.0,0
-249.0,10.0,67.0,78.0,-4.0,-6.0,0
-248.0,7.0,65.0,70.0,-5.0,-8.0,0
-247.0,7.0,65.0,63.0,-7.0,-7.0,0
-247.0,6.0,66.0,57.0,-11.0,-7.0,0
-248.0,9.0,64.0,53.0,-18.0,-5.0,0
-249.0,10.0,65.0,52.0,-23.0,-5.0,0
-245.0,10.0,64.0,52.0,-29.0,-5.0,0
-243.0,8.0,68.0,55.0,-33.0,-4.0,0
-244.0,11.0,68.0,55.0,-36.0,-3.0,0
-243.0,9.0,67.0,54.0,-38.0,-1.0,0
-246.0,11.0,66.0,52.0,-39.0,5.0,0
-242.0,13.0,67.0,47.0,-41.0,9.0,0
-242.0,14.0,63.0,40.0,-43.0,13.0,0
-248.0,13.0,72.0,31.0,-46.0,18.0,0
-246.0,15.0,70.0,22.0,-47.0,24.0,0
-245.0,14.0,69.0,10.0,-49.0,26.0,0
-249.0,11.0,69.0,-3.0,-52.0,27.0,0
-247.0,12.0,69.0,-16.0,-52.0,28.0,0
-248.0,8.0,70.0,-25.0,-52.0,30.0,0
-248.0,7.0,70.0,-31.0,-50.0,30.0,0
-246.0,7.0,70.0,-33.0,-48.0,29.0,0
-249.0,5.0,71.0,-30.0,-48.0,29.0,0
-246.0,4.0,73.0,-25.0,-46.0,25.0,0
-246.0,3.0,69.0,-15.0,-46.0,23.0,0
-246.0,2.0,70.0,-3.0,-45.0,18.0,0
-246.0,2.0,73.0,11.0,-45.0,15.0,0
-243.0,2.0,71.0,23.0,-45.0,15.0,0
-243.0,4.0,74.0,35.0,-43.0,14.0,0
-242.0,9.0,75.0,44.0,-44.0,11.0,0
-247.0,7.0,71.0,53.0,-44.0,11.0,0
-244.0,7.0,70.0,59.0,-43.0,9.0,0
-244.0,7.0,69.0,63.0,-43.0,8.0,0
-244.0,11.0,73.0,63.0,-44.0,7.0,0
-245.0,15.0,69.0,60.0,-44.0,7.0,0
-244.0,14.0,70.0,53.0,-43.0,8.0,0
-245.0,18.0,72.0,42.0,-40.0,7.0,0
-244.0,19.0,68.0,30.0,-36.0,7.0,0
-248.0,26.0,68.0,16.0,-30.0,7.0,0
-245.0,15.0,68.0,4.0,-25.0,9.0,0
-243.0,15.0,70.0,-9.0,-20.0,11.0,0
-245.0,17.0,72.0,-20.0,-16.0,10.0,0
-245.0,17.0,75.0,-32.0,-12.0,10.0,0
-244.0,15.0,73.0,-42.0,-7.0,10.0,0
-244.0,12.0,68.0,-51.0,-3.0,11.0,0
-241.0,13.0,73.0,-57.0,2.0,10.0,0
-243.0,8.0,76.0,-62.0,6.0,9.0,0
-242.0,8.0,74.0,-64.0,11.0,8.0,0
-244.0,8.0,75.0,-63.0,16.0,5.0,0
-243.0,1.0,75.0,-59.0,21.0,2.0,0
-239.0,1.0,72.0,-46.0,27.0,0.0,0
-241.0,1.0,75.0,-32.0,32.0,-4.0,0
-243.0,0.0,71.0,-15.0,31.0,-4.0,0
-241.0,2.0,75.0,6.0,30.0,-5.0,0
-245.0,3.0,74.0,26.0,28.0,-4.0,0
-240.0,3.0,73.0,44.0,23.0,-6.0,0
-243.0,5.0,71.0,61.0,16.0,-6.0,0
-246.0,8.0,68.0,72.0,9.0,-6.0,0
-241.0,3.0,77.0,81.0,2.0,-5.0,0
-244.0,13.0,73.0,88.0,-7.0,-7.0,0
-246.0,19.0,64.0,90.0,-15.0,-7.0,0
-242.0,10.0,69.0,90.0,-21.0,-9.0,0
-247.0,14.0,70.0,90.0,-27.0,-10.0,0
-243.0,9.0,69.0,89.0,-32.0,-12.0,0
-249.0,16.0,68.0,88.0,-34.0,-13.0,0
-246.0,11.0,67.0,87.0,-31.0,-13.0,0
-250.0,14.0,68.0,85.0,-28.0,-16.0,0
-250.0,13.0,73.0,84.0,-23.0,-18.0,0
-250.0,10.0,68.0,85.0,-22.0,-21.0,0
-247.0,7.0,65.0,86.0,-19.0,-21.0,0
-243.0,8.0,69.0,87.0,-19.0,-24.0,0
-247.0,8.0,70.0,91.0,-17.0,-24.0,0
-245.0,9.0,69.0,95.0,-17.0,-24.0,0
-249.0,8.0,70.0,99.0,-17.0,-26.0,0
-248.0,12.0,67.0,102.0,-18.0,-28.0,0
-246.0,13.0,68.0,102.0,-20.0,-28.0,0
-245.0,10.0,67.0,102.0,-22.0,-27.0,0
-245.0,9.0,71.0,102.0,-22.0,-28.0,0
-245.0,12.0,68.0,99.0,-23.0,-27.0,0
-240.0,7.0,75.0,97.0,-24.0,-24.0,0
-242.0,5.0,70.0,95.0,-22.0,-24.0,0
-239.0,8.0,72.0,94.0,-19.0,-25.0,0
-244.0,8.0,72.0,92.0,-16.0,-24.0,0
-244.0,7.0,77.0,90.0,-13.0,-24.0,0
-243.0,13.0,72.0,91.0,-10.0,-23.0,0
-243.0,8.0,71.0,91.0,-6.0,-22.0,0
-244.0,6.0,76.0,92.0,-5.0,-21.0,0
-246.0,6.0,74.0,93.0,-3.0,-23.0,0
-245.0,5.0,73.0,92.0,0.0,-26.0,0
-245.0,5.0,70.0,90.0,2.0,-26.0,0
-248.0,9.0,72.0,90.0,3.0,-25.0,0
-246.0,5.0,71.0,89.0,5.0,-23.0,0
-249.0,5.0,70.0,89.0,4.0,-22.0,0
-246.0,7.0,71.0,90.0,2.0,-19.0,0
-243.0,4.0,70.0,90.0,0.0,-18.0,0
-244.0,6.0,71.0,93.0,-2.0,-16.0,0
-245.0,7.0,72.0,97.0,-7.0,-12.0,0
-241.0,7.0,73.0,102.0,-11.0,-11.0,0
-238.0,6.0,76.0,108.0,-17.0,-8.0,0
-242.0,11.0,75.0,117.0,-21.0,-8.0,0
-241.0,10.0,71.0,124.0,-23.0,-9.0,0
-241.0,13.0,73.0,130.0,-24.0,-12.0,0
-243.0,14.0,73.0,133.0,-21.0,-15.0,0
-241.0,11.0,71.0,132.0,-13.0,-18.0,0
-245.0,17.0,72.0,127.0,-2.0,-22.0,0
-244.0,17.0,71.0,118.0,10.0,-25.0,0
-245.0,17.0,68.0,106.0,20.0,-26.0,0
-246.0,18.0,69.0,92.0,30.0,-24.0,0
-243.0,17.0,69.0,78.0,36.0,-24.0,0
-247.0,16.0,71.0,61.0,37.0,-19.0,0
-251.0,13.0,68.0,45.0,37.0,-15.0,0
-247.0,9.0,70.0,33.0,34.0,-10.0,0
-245.0,12.0,70.0,22.0,31.0,-8.0,0
-241.0,8.0,75.0,14.0,26.0,-3.0,0
-242.0,10.0,72.0,9.0,19.0,0.0,0
-241.0,7.0,71.0,9.0,12.0,3.0,0
-243.0,5.0,73.0,11.0,5.0,2.0,0
-241.0,6.0,72.0,18.0,-3.0,3.0,0
-241.0,6.0,73.0,23.0,-8.0,-1.0,0
-242.0,4.0,71.0,31.0,-10.0,-2.0,0
-242.0,6.0,74.0,39.0,-11.0,-3.0,0
-247.0,10.0,69.0,46.0,-11.0,-4.0,0
-246.0,6.0,72.0,52.0,-13.0,-5.0,0
-247.0,7.0,70.0,56.0,-12.0,-8.0,0
-247.0,10.0,67.0,57.0,-11.0,-9.0,0
-249.0,9.0,77.0,58.0,-8.0,-12.0,0
-248.0,8.0,68.0,58.0,-5.0,-11.0,0
-249.0,12.0,75.0,58.0,-1.0,-11.0,0
-248.0,9.0,73.0,58.0,2.0,-12.0,0
-247.0,10.0,69.0,59.0,3.0,-12.0,0
-242.0,10.0,74.0,62.0,5.0,-11.0,0
-244.0,10.0,70.0,66.0,5.0,-15.0,0
-245.0,9.0,73.0,71.0,7.0,-18.0,0
-240.0,7.0,75.0,78.0,7.0,-22.0,0
-241.0,3.0,75.0,83.0,8.0,-25.0,0
-240.0,6.0,72.0,92.0,10.0,-29.0,0
-243.0,10.0,74.0,100.0,15.0,-32.0,0
-242.0,8.0,68.0,108.0,21.0,-33.0,0
-245.0,8.0,73.0,114.0,26.0,-36.0,0
-245.0,10.0,73.0,113.0,35.0,-37.0,0
-246.0,10.0,76.0,105.0,47.0,-40.0,0
-246.0,11.0,78.0,88.0,66.0,-41.0,0
-246.0,15.0,74.0,59.0,87.0,-40.0,0
-245.0,15.0,79.0,26.0,109.0,-38.0,0
-246.0,7.0,80.0,-11.0,125.0,-34.0,0
-246.0,4.0,86.0,-41.0,134.0,-27.0,0
-256.0,2.0,82.0,-63.0,133.0,-17.0,0
-254.0,-2.0,80.0,-73.0,127.0,-7.0,0
-258.0,-2.0,79.0,-78.0,118.0,2.0,0
-256.0,-6.0,77.0,-80.0,112.0,11.0,0
-253.0,-9.0,75.0,-86.0,110.0,15.0,0
-252.0,-13.0,71.0,-100.0,113.0,12.0,0
-245.0,-6.0,70.0,-115.0,116.0,-2.0,0
-244.0,-8.0,71.0,-118.0,129.0,-27.0,0
-246.0,-3.0,73.0,-101.0,158.0,-67.0,0
-245.0,6.0,72.0,-68.0,208.0,-118.0,0
-240.0,2.0,66.0,-31.0,273.0,-175.0,0
-245.0,3.0,71.0,1.0,343.0,-230.0,0
-248.0,9.0,79.0,22.0,403.0,-278.0,0
-244.0,11.0,86.0,34.0,453.0,-319.0,0
-245.0,9.0,88.0,39.0,493.0,-348.0,0
-243.0,14.0,106.0,42.0,528.0,-370.0,0
-242.0,17.0,107.0,31.0,561.0,-385.0,0
-240.0,21.0,112.0,-4.0,602.0,-396.0,0
-239.0,17.0,115.0,-61.0,646.0,-406.0,0
-240.0,12.0,112.0,-129.0,671.0,-414.0,0
-245.0,7.0,83.0,-189.0,646.0,-407.0,0
-251.0,-4.0,56.0,-235.0,568.0,-385.0,0
-253.0,-17.0,22.0,-263.0,473.0,-355.0,0
-248.0,-20.0,0.0,-260.0,405.0,-322.0,0
-240.0,-22.0,-32.0,-220.0,392.0,-301.0,0
-239.0,-16.0,-50.0,-167.0,431.0,-292.0,0
-253.0,-2.0,-50.0,-103.0,490.0,-292.0,0
-260.0,22.0,-51.0,-37.0,544.0,-278.0,0
-265.0,38.0,-38.0,5.0,569.0,-230.0,0
-279.0,65.0,-22.0,4.0,531.0,-147.0,0
-291.0,87.0,-11.0,-53.0,400.0,-47.0,0
-294.0,89.0,-4.0,-180.0,176.0,55.0,0
-309.0,91.0,11.0,-359.0,-79.0,139.0,0
-307.0,76.0,15.0,-554.0,-298.0,197.0,0
-311.0,54.0,15.0,-726.0,-446.0,221.0,0
-312.0,34.0,24.0,-852.0,-529.0,211.0,0
-318.0,15.0,21.0,-923.0,-551.0,182.0,0
-321.0,2.0,19.0,-931.0,-525.0,153.0,0
-326.0,-16.0,21.0,-891.0,-479.0,125.0,0
-322.0,-27.0,25.0,-828.0,-444.0,102.0,0
-317.0,-38.0,27.0,-760.0,-444.0,92.0,0
-313.0,-45.0,24.0,-701.0,-495.0,91.0,0
-314.0,-41.0,17.0,-663.0,-595.0,113.0,0
-295.0,-45.0,15.0,-643.0,-730.0,161.0,0
-289.0,-41.0,16.0,-643.0,-813.0,221.0,0
-279.0,-43.0,15.0,-661.0,-874.0,284.0,0
-276.0,-42.0,13.0,-682.0,-919.0,349.0,0
-274.0,-38.0,13.0,-689.0,-957.0,411.0,0
-261.0,-39.0,16.0,-677.0,-988.0,456.0,0
-252.0,-38.0,25.0,-654.0,-1000.0,484.0,0
-250.0,-35.0,35.0,-631.0,-993.0,489.0,0
-249.0,-34.0,42.0,-612.0,-975.0,490.0,0
-240.0,-36.0,48.0,-595.0,-956.0,499.0,0
-227.0,-46.0,58.0,-569.0,-938.0,511.0,0
-231.0,-49.0,69.0,-530.0,-928.0,532.0,0
-220.0,-60.0,71.0,-468.0,-937.0,569.0,0
-218.0,-66.0,78.0,-379.0,-956.0,603.0,0
-218.0,-79.0,84.0,-266.0,-980.0,643.0,0
-209.0,-86.0,92.0,-129.0,-1007.0,689.0,0
-208.0,-95.0,88.0,8.0,-1022.0,726.0,0
-214.0,-102.0,92.0,123.0,-1028.0,768.0,0
-218.0,-110.0,89.0,224.0,-1025.0,824.0,0
-221.0,-118.0,96.0,317.0,-1022.0,888.0,0
-219.0,-126.0,97.0,401.0,-1029.0,957.0,0
-202.0,-128.0,103.0,488.0,-1045.0,1023.0,0
-199.0,-118.0,106.0,588.0,-1057.0,1052.0,0
-194.0,-114.0,111.0,702.0,-1064.0,1056.0,0
-190.0,-101.0,112.0,831.0,-1060.0,1038.0,0
-180.0,-81.0,112.0,962.0,-1045.0,1001.0,0
-178.0,-63.0,113.0,1090.0,-1018.0,952.0,0
-168.0,-47.0,110.0,1205.0,-982.0,907.0,0
-163.0,-37.0,112.0,1287.0,-928.0,839.0,0
-165.0,-18.0,106.0,1340.0,-864.0,760.0,0
-174.0,-6.0,115.0,1380.0,-793.0,680.0,0
-190.0,13.0,120.0,1413.0,-722.0,596.0,0
-192.0,22.0,118.0,1433.0,-657.0,514.0,0
-201.0,36.0,121.0,1433.0,-603.0,442.0,0
-214.0,46.0,128.0,1409.0,-561.0,372.0,0
-226.0,53.0,131.0,1362.0,-521.0,301.0,0
-240.0,64.0,137.0,1290.0,-477.0,223.0,0
-251.0,70.0,143.0,1200.0,-420.0,143.0,0
-258.0,82.0,157.0,1095.0,-357.0,75.0,0
-261.0,93.0,167.0,984.0,-285.0,16.0,0
-254.0,108.0,173.0,879.0,-223.0,-36.0,0
-244.0,114.0,177.0,767.0,-156.0,-88.0,0
-235.0,118.0,175.0,626.0,-82.0,-149.0,0
-222.0,121.0,179.0,455.0,-1.0,-210.0,0
-214.0,117.0,179.0,263.0,73.0,-274.0,0
-197.0,114.0,189.0,71.0,138.0,-341.0,0
-189.0,113.0,193.0,-105.0,195.0,-424.0,0
-171.0,107.0,200.0,-236.0,252.0,-517.0,0
-160.0,107.0,190.0,-322.0,312.0,-626.0,0
-149.0,110.0,194.0,-362.0,400.0,-738.0,0
-137.0,106.0,190.0,-369.0,513.0,-840.0,0
-128.0,106.0,185.0,-342.0,628.0,-935.0,0
-123.0,111.0,174.0,-293.0,735.0,-1030.0,0
-111.0,121.0,169.0,-235.0,831.0,-1119.0,0
-111.0,129.0,162.0,-194.0,940.0,-1213.0,0
-106.0,138.0,155.0,-169.0,1055.0,-1282.0,0
-109.0,143.0,134.0,-148.0,1156.0,-1322.0,0
-107.0,137.0,106.0,-139.0,1208.0,-1334.0,0
-114.0,129.0,95.0,-124.0,1203.0,-1341.0,0
-129.0,137.0,86.0,-94.0,1152.0,-1339.0,0
-140.0,153.0,92.0,-68.0,1077.0,-1323.0,0
-154.0,163.0,98.0,-63.0,992.0,-1293.0,0
-173.0,182.0,98.0,-86.0,893.0,-1250.0,0
-196.0,195.0,99.0,-148.0,772.0,-1183.0,0
-218.0,198.0,89.0,-220.0,628.0,-1121.0,0
-236.0,200.0,80.0,-279.0,510.0,-1070.0,0
-255.0,203.0,64.0,-323.0,469.0,-1042.0,0
-264.0,199.0,46.0,-334.0,512.0,-1032.0,0
-260.0,191.0,51.0,-296.0,603.0,-1037.0,0
-254.0,172.0,59.0,-198.0,714.0,-1087.0,0
-242.0,155.0,62.0,-81.0,822.0,-1184.0,0
-233.0,137.0,73.0,27.0,909.0,-1307.0,0
-217.0,122.0,96.0,99.0,957.0,-1409.0,0
-195.0,97.0,113.0,127.0,913.0,-1474.0,0
-187.0,65.0,115.0,131.0,752.0,-1512.0,0
-185.0,41.0,101.0,136.0,508.0,-1543.0,0
-185.0,12.0,82.0,153.0,291.0,-1592.0,0
-196.0,-11.0,74.0,173.0,205.0,-1677.0,0
-238.0,-22.0,82.0,158.0,249.0,-1794.0,0
-280.0,-24.0,98.0,103.0,353.0,-1927.0,0
-318.0,-19.0,104.0,59.0,478.0,-2013.0,0
-352.0,-24.0,106.0,65.0,599.0,-2077.0,0
-370.0,-32.0,105.0,130.0,642.0,-2139.0,0
-377.0,-47.0,109.0,224.0,572.0,-2192.0,0
-374.0,-55.0,93.0,324.0,402.0,-2258.0,0
-364.0,-53.0,83.0,400.0,204.0,-2350.0,0
-340.0,-60.0,81.0,455.0,52.0,-2456.0,0
-328.0,-57.0,95.0,505.0,-56.0,-2562.0,0
-323.0,-53.0,94.0,556.0,-172.0,-2658.0,0
-322.0,-55.0,78.0,588.0,-315.0,-2729.0,0
-313.0,-45.0,56.0,586.0,-472.0,-2773.0,0
-311.0,-30.0,51.0,547.0,-603.0,-2767.0,0
-308.0,-7.0,32.0,473.0,-716.0,-2733.0,0
-296.0,0.0,23.0,336.0,-810.0,-2700.0,0
-291.0,8.0,30.0,159.0,-887.0,-2672.0,0
-279.0,28.0,37.0,38.0,-949.0,-2647.0,0
-264.0,52.0,21.0,7.0,-979.0,-2631.0,0
-260.0,58.0,-6.0,28.0,-965.0,-2630.0,0
-257.0,52.0,0.0,4.0,-929.0,-2632.0,0
-252.0,52.0,20.0,-141.0,-898.0,-2639.0,0
-255.0,55.0,46.0,-401.0,-854.0,-2621.0,0
-244.0,22.0,44.0,-670.0,-822.0,-2555.0,0
-237.0,-25.0,47.0,-864.0,-788.0,-2491.0,0
-218.0,-71.0,43.0,-939.0,-726.0,-2469.0,0
-233.0,-113.0,52.0,-936.0,-637.0,-2480.0,0
-241.0,-127.0,60.0,-900.0,-540.0,-2469.0,0
-265.0,-121.0,63.0,-849.0,-436.0,-2435.0,0
-281.0,-118.0,62.0,-804.0,-379.0,-2366.0,0
-272.0,-113.0,51.0,-763.0,-355.0,-2297.0,0
-259.0,-109.0,40.0,-730.0,-314.0,-2264.0,0
-247.0,-105.0,27.0,-728.0,-246.0,-2269.0,0
-238.0,-102.0,26.0,-774.0,-184.0,-2303.0,0
-226.0,-106.0,38.0,-848.0,-125.0,-2333.0,0
-220.0,-118.0,43.0,-906.0,-69.0,-2347.0,0
-210.0,-125.0,49.0,-933.0,-52.0,-2356.0,0
-206.0,-136.0,66.0,-933.0,-69.0,-2366.0,0
-201.0,-146.0,66.0,-901.0,-116.0,-2374.0,0
-210.0,-139.0,68.0,-848.0,-170.0,-2391.0,0
-226.0,-132.0,66.0,-784.0,-260.0,-2400.0,0
-245.0,-129.0,67.0,-701.0,-382.0,-2397.0,0
-249.0,-134.0,61.0,-601.0,-514.0,-2391.0,0
-248.0,-127.0,56.0,-496.0,-610.0,-2389.0,0
-242.0,-123.0,58.0,-405.0,-664.0,-2377.0,0
-229.0,-105.0,61.0,-344.0,-694.0,-2369.0,0
-215.0,-96.0,66.0,-303.0,-704.0,-2377.0,0
-204.0,-82.0,79.0,-280.0,-707.0,-2384.0,0
-192.0,-76.0,85.0,-287.0,-731.0,-2379.0,0
-169.0,-72.0,89.0,-327.0,-777.0,-2363.0,0
-139.0,-83.0,89.0,-396.0,-812.0,-2343.0,0
-112.0,-85.0,80.0,-491.0,-826.0,-2322.0,0
-85.0,-92.0,74.0,-601.0,-828.0,-2305.0,0
-53.0,-103.0,70.0,-707.0,-844.0,-2283.0,0
-38.0,-106.0,47.0,-793.0,-902.0,-2264.0,0
-5.0,-113.0,20.0,-874.0,-1002.0,-2236.0,0
17.0,-130.0,1.0,-945.0,-1109.0,-2156.0,0
33.0,-141.0,-12.0,-1002.0,-1179.0,-2062.0,0
25.0,-154.0,-16.0,-1052.0,-1210.0,-1934.0,0
8.0,-171.0,-10.0,-1100.0,-1218.0,-1777.0,0
-13.0,-188.0,5.0,-1155.0,-1201.0,-1610.0,0
-34.0,-214.0,38.0,-1212.0,-1164.0,-1462.0,0
-50.0,-239.0,68.0,-1247.0,-1113.0,-1344.0,0
-60.0,-255.0,89.0,-1267.0,-1038.0,-1256.0,0
-73.0,-269.0,111.0,-1267.0,-952.0,-1194.0,0
-69.0,-285.0,121.0,-1253.0,-862.0,-1153.0,0
-63.0,-293.0,121.0,-1237.0,-778.0,-1138.0,0
-51.0,-295.0,111.0,-1239.0,-705.0,-1145.0,0
-43.0,-294.0,109.0,-1258.0,-664.0,-1171.0,0
-42.0,-287.0,93.0,-1266.0,-653.0,-1207.0,0
-44.0,-285.0,83.0,-1248.0,-653.0,-1247.0,0
-39.0,-286.0,66.0,-1193.0,-638.0,-1297.0,0
-36.0,-285.0,63.0,-1112.0,-594.0,-1363.0,0
-34.0,-278.0,64.0,-1001.0,-524.0,-1451.0,0
-32.0,-270.0,69.0,-880.0,-458.0,-1542.0,0
-34.0,-267.0,64.0,-745.0,-420.0,-1632.0,0
-32.0,-265.0,67.0,-611.0,-430.0,-1700.0,0
-22.0,-261.0,66.0,-494.0,-494.0,-1734.0,0
-1.0,-270.0,62.0,-401.0,-583.0,-1746.0,0
14.0,-267.0,64.0,-325.0,-662.0,-1746.0,0
18.0,-265.0,64.0,-270.0,-727.0,-1727.0,0
39.0,-266.0,67.0,-239.0,-775.0,-1688.0,0
36.0,-260.0,59.0,-220.0,-807.0,-1647.0,0
42.0,-260.0,51.0,-201.0,-825.0,-1607.0,0
44.0,-258.0,45.0,-164.0,-831.0,-1578.0,0
39.0,-253.0,32.0,-101.0,-830.0,-1567.0,0
36.0,-248.0,27.0,-15.0,-837.0,-1570.0,0
27.0,-239.0,19.0,86.0,-845.0,-1585.0,0
2.0,-225.0,12.0,184.0,-856.0,-1601.0,0
-14.0,-216.0,9.0,250.0,-879.0,-1608.0,0
-25.0,-204.0,12.0,267.0,-917.0,-1600.0,0
-21.0,-212.0,17.0,234.0,-952.0,-1577.0,0
-27.0,-215.0,15.0,148.0,-976.0,-1537.0,0
-5.0,-236.0,27.0,8.0,-987.0,-1480.0,0
19.0,-255.0,34.0,-123.0,-960.0,-1445.0,0
36.0,-277.0,33.0,-211.0,-896.0,-1420.0,0
45.0,-294.0,30.0,-242.0,-811.0,-1387.0,0
57.0,-318.0,26.0,-229.0,-722.0,-1341.0,0
58.0,-336.0,17.0,-183.0,-652.0,-1284.0,0
62.0,-352.0,24.0,-112.0,-618.0,-1224.0,0
63.0,-348.0,26.0,-9.0,-607.0,-1165.0,0
53.0,-356.0,22.0,111.0,-593.0,-1100.0,0
38.0,-342.0,27.0,233.0,-569.0,-1013.0,0
25.0,-331.0,34.0,342.0,-534.0,-915.0,0
25.0,-321.0,33.0,423.0,-489.0,-812.0,0
32.0,-308.0,39.0,472.0,-424.0,-727.0,0
45.0,-302.0,47.0,497.0,-343.0,-659.0,0
58.0,-296.0,52.0,523.0,-248.0,-609.0,0
72.0,-289.0,52.0,563.0,-160.0,-563.0,0
83.0,-280.0,47.0,623.0,-94.0,-518.0,0
84.0,-273.0,29.0,697.0,-51.0,-486.0,0
89.0,-257.0,17.0,760.0,-36.0,-476.0,0
85.0,-238.0,-2.0,789.0,-34.0,-483.0,0
77.0,-215.0,-10.0,774.0,-31.0,-500.0,0
68.0,-196.0,-7.0,730.0,-22.0,-524.0,0
62.0,-187.0,0.0,662.0,-10.0,-548.0,0
60.0,-184.0,11.0,577.0,10.0,-561.0,0
58.0,-179.0,25.0,469.0,34.0,-553.0,0
56.0,-189.0,35.0,343.0,58.0,-530.0,0
50.0,-203.0,43.0,217.0,67.0,-498.0,0
54.0,-210.0,49.0,115.0,66.0,-475.0,0
49.0,-228.0,63.0,41.0,67.0,-462.0,0
42.0,-248.0,69.0,-3.0,76.0,-455.0,0
27.0,-251.0,82.0,-18.0,96.0,-456.0,0
26.0,-260.0,83.0,-4.0,124.0,-452.0,0
27.0,-260.0,82.0,30.0,167.0,-443.0,0
10.0,-258.0,85.0,83.0,215.0,-447.0,0
9.0,-255.0,84.0,136.0,250.0,-444.0,0
7.0,-254.0,77.0,162.0,282.0,-422.0,0
12.0,-248.0,77.0,160.0,302.0,-394.0,0
17.0,-243.0,77.0,147.0,307.0,-375.0,0
17.0,-241.0,79.0,128.0,297.0,-359.0,0
17.0,-235.0,83.0,110.0,284.0,-349.0,0
23.0,-233.0,82.0,101.0,280.0,-336.0,0
26.0,-231.0,81.0,101.0,287.0,-325.0,0
27.0,-227.0,83.0,113.0,298.0,-311.0,0
30.0,-229.0,86.0,135.0,308.0,-291.0,0
31.0,-225.0,87.0,155.0,317.0,-269.0,0
25.0,-222.0,86.0,166.0,325.0,-247.0,0
21.0,-224.0,92.0,161.0,331.0,-224.0,0
14.0,-223.0,99.0,148.0,326.0,-202.0,0
4.0,-227.0,104.0,134.0,316.0,-179.0,0
3.0,-229.0,99.0,122.0,300.0,-162.0,0
-2.0,-239.0,105.0,115.0,286.0,-154.0,0
-11.0,-236.0,99.0,112.0,271.0,-152.0,0
-9.0,-241.0,100.0,104.0,259.0,-156.0,0
-8.0,-242.0,99.0,99.0,249.0,-165.0,0
-10.0,-240.0,99.0,94.0,241.0,-176.0,0
-11.0,-243.0,98.0,94.0,241.0,-187.0,0
-8.0,-243.0,97.0,97.0,250.0,-191.0,0
-9.0,-241.0,94.0,112.0,258.0,-200.0,0
-1.0,-239.0,91.0,136.0,263.0,-206.0,0
2.0,-232.0,93.0,171.0,262.0,-220.0,0
1.0,-225.0,80.0,222.0,248.0,-248.0,0
4.0,-224.0,74.0,245.0,232.0,-239.0,0
6.0,-227.0,68.0,235.0,221.0,-223.0,0
9.0,-215.0,69.0,211.0,205.0,-211.0,0
12.0,-217.0,73.0,178.0,185.0,-197.0,0
11.0,-217.0,71.0,139.0,174.0,-182.0,0
9.0,-220.0,71.0,101.0,167.0,-168.0,0
7.0,-229.0,79.0,70.0,160.0,-151.0,0
2.0,-233.0,76.0,50.0,146.0,-135.0,0
2.0,-237.0,88.0,44.0,129.0,-120.0,0
1.0,-238.0,83.0,49.0,109.0,-109.0,0
-6.0,-240.0,82.0,55.0,93.0,-105.0,0
-7.0,-239.0,84.0,49.0,89.0,-97.0,0
-9.0,-242.0,84.0,36.0,102.0,-89.0,0
-8.0,-242.0,90.0,23.0,114.0,-81.0,0
-7.0,-243.0,92.0,18.0,108.0,-72.0,0
-4.0,-245.0,88.0,27.0,93.0,-69.0,0
-4.0,-240.0,84.0,46.0,73.0,-73.0,0
0.0,-239.0,78.0,74.0,51.0,-85.0,0
-2.0,-234.0,77.0,89.0,37.0,-87.0,0
5.0,-239.0,78.0,86.0,31.0,-82.0,0
5.0,-236.0,79.0,78.0,19.0,-77.0,0
5.0,-235.0,76.0,73.0,-1.0,-72.0,0
5.0,-239.0,79.0,76.0,-26.0,-66.0,0
1.0,-235.0,76.0,82.0,-49.0,-62.0,0
2.0,-235.0,71.0,89.0,-68.0,-60.0,0
0.0,-235.0,73.0,93.0,-79.0,-60.0,0
-2.0,-233.0,70.0,92.0,-81.0,-57.0,0
0.0,-232.0,76.0,90.0,-80.0,-53.0,0
-5.0,-232.0,73.0,89.0,-78.0,-52.0,0
-4.0,-230.0,83.0,90.0,-77.0,-48.0,0
-4.0,-228.0,80.0,92.0,-80.0,-40.0,0
-5.0,-230.0,78.0,91.0,-84.0,-33.0,0
-7.0,-232.0,79.0,88.0,-87.0,-26.0,0
-4.0,-233.0,86.0,83.0,-89.0,-23.0,0
0.0,-232.0,82.0,74.0,-87.0,-17.0,0
0.0,-234.0,87.0,64.0,-83.0,-11.0,0
5.0,-233.0,83.0,52.0,-77.0,-6.0,0
10.0,-236.0,85.0,44.0,-72.0,-2.0,0
10.0,-236.0,85.0,42.0,-71.0,-1.0,0
16.0,-237.0,85.0,47.0,-73.0,0.0,0
16.0,-236.0,85.0,55.0,-75.0,4.0,0
15.0,-236.0,86.0,68.0,-76.0,7.0,0
19.0,-235.0,85.0,81.0,-70.0,6.0,0
23.0,-236.0,82.0,95.0,-62.0,8.0,0
22.0,-235.0,88.0,108.0,-54.0,7.0,0
23.0,-237.0,81.0,116.0,-48.0,8.0,0
21.0,-229.0,86.0,124.0,-44.0,11.0,0
22.0,-233.0,87.0,130.0,-43.0,12.0,0
23.0,-236.0,88.0,134.0,-37.0,14.0,0
24.0,-231.0,85.0,132.0,-27.0,19.0,0
19.0,-228.0,88.0,126.0,-15.0,20.0,0
21.0,-227.0,82.0,119.0,-3.0,21.0,0
19.0,-228.0,84.0,109.0,7.0,23.0,0
20.0,-232.0,85.0,100.0,16.0,23.0,0
18.0,-225.0,86.0,89.0,27.0,22.0,0
26.0,-236.0,84.0,77.0,35.0,21.0,0
19.0,-230.0,81.0,66.0,42.0,18.0,0
18.0,-231.0,78.0,54.0,45.0,11.0,0
17.0,-233.0,78.0,44.0,44.0,3.0,0
15.0,-233.0,81.0,37.0,41.0,-3.0,0
11.0,-233.0,82.0,32.0,38.0,-7.0,0
12.0,-235.0,80.0,34.0,35.0,-9.0,0
10.0,-233.0,81.0,36.0,29.0,-9.0,0
11.0,-231.0,79.0,36.0,26.0,-7.0,0
11.0,-233.0,84.0,35.0,23.0,-5.0,0
6.0,-229.0,80.0,30.0,20.0,-2.0,0
7.0,-232.0,79.0,24.0,18.0,2.0,0
7.0,-233.0,82.0,17.0,18.0,5.0,0
6.0,-233.0,84.0,10.0,22.0,7.0,0
4.0,-232.0,86.0,7.0,26.0,10.0,0
4.0,-235.0,85.0,6.0,25.0,15.0,0
4.0,-236.0,85.0,11.0,24.0,21.0,0
5.0,-237.0,84.0,17.0,21.0,25.0,0
8.0,-237.0,81.0,23.0,17.0,28.0,0
7.0,-235.0,82.0,27.0,15.0,29.0,0
9.0,-238.0,74.0,31.0,12.0,29.0,0
4.0,-234.0,81.0,36.0,11.0,27.0,0
6.0,-232.0,78.0,38.0,8.0,22.0,0
5.0,-234.0,76.0,43.0,5.0,20.0,0
8.0,-236.0,77.0,51.0,0.0,15.0,0
6.0,-235.0,79.0,59.0,-2.0,12.0,0
4.0,-235.0,79.0,68.0,-4.0,12.0,0
5.0,-235.0,83.0,75.0,-5.0,10.0,0
6.0,-239.0,82.0,77.0,-9.0,10.0,0
6.0,-240.0,83.0,75.0,-14.0,10.0,0
7.0,-237.0,80.0,72.0,-15.0,10.0,0
6.0,-236.0,76.0,64.0,-9.0,11.0,0
6.0,-237.0,79.0,52.0,-2.0,10.0,0
8.0,-238.0,77.0,40.0,5.0,8.0,0
8.0,-236.0,80.0,34.0,7.0,4.0,0
11.0,-237.0,79.0,36.0,8.0,3.0,0
8.0,-233.0,84.0,45.0,10.0,0.0,0
6.0,-234.0,79.0,56.0,11.0,-4.0,0
7.0,-235.0,82.0,67.0,11.0,-8.0,0
8.0,-235.0,77.0,78.0,10.0,-10.0,0
7.0,-229.0,78.0,87.0,7.0,-16.0,0
9.0,-230.0,79.0,90.0,3.0,-17.0,0
8.0,-229.0,77.0,89.0,0.0,-19.0,0
12.0,-227.0,72.0,86.0,-1.0,-22.0,0
4.0,-228.0,75.0,78.0,-4.0,-23.0,0
6.0,-230.0,81.0,69.0,-8.0,-20.0,0
9.0,-232.0,78.0,63.0,-16.0,-18.0,0
7.0,-233.0,82.0,54.0,-24.0,-16.0,0
9.0,-235.0,84.0,49.0,-29.0,-15.0,0
7.0,-232.0,86.0,45.0,-33.0,-19.0,0
6.0,-235.0,85.0,42.0,-33.0,-21.0,0
6.0,-235.0,79.0,43.0,-32.0,-26.0,0
6.0,-235.0,80.0,45.0,-33.0,-32.0,0
6.0,-237.0,80.0,41.0,-30.0,-38.0,0
4.0,-231.0,79.0,33.0,-25.0,-45.0,0
2.0,-238.0,83.0,24.0,-19.0,-51.0,0
11.0,-228.0,83.0,20.0,-19.0,-52.0,0
10.0,-228.0,78.0,23.0,-26.0,-53.0,0
10.0,-229.0,79.0,23.0,-30.0,-56.0,0
13.0,-227.0,83.0,21.0,-31.0,-60.0,0
13.0,-228.0,82.0,15.0,-36.0,-60.0,0
15.0,-227.0,81.0,6.0,-38.0,-58.0,0
14.0,-227.0,84.0,-1.0,-38.0,-60.0,0
17.0,-222.0,78.0,-5.0,-42.0,-57.0,0
17.0,-226.0,82.0,-8.0,-50.0,-54.0,0
16.0,-220.0,85.0,-12.0,-58.0,-49.0,0
16.0,-226.0,77.0,-17.0,-63.0,-44.0,0
15.0,-229.0,79.0,-23.0,-69.0,-39.0,0
18.0,-232.0,79.0,-30.0,-69.0,-36.0,0
17.0,-232.0,83.0,-34.0,-67.0,-31.0,0
19.0,-237.0,78.0,-34.0,-62.0,-28.0,0
23.0,-235.0,78.0,-26.0,-58.0,-31.0,0
22.0,-237.0,82.0,-14.0,-56.0,-33.0,0
27.0,-241.0,79.0,-3.0,-55.0,-35.0,0
21.0,-237.0,84.0,6.0,-50.0,-34.0,0
23.0,-239.0,81.0,12.0,-46.0,-34.0,0
25.0,-237.0,80.0,20.0,-42.0,-37.0,0
23.0,-237.0,84.0,27.0,-39.0,-39.0,0
21.0,-234.0,83.0,34.0,-34.0,-42.0,0
22.0,-234.0,87.0,41.0,-31.0,-44.0,0
21.0,-235.0,84.0,49.0,-29.0,-44.0,0
25.0,-237.0,85.0,54.0,-29.0,-45.0,0
21.0,-232.0,85.0,61.0,-29.0,-43.0,0
21.0,-234.0,80.0,69.0,-31.0,-42.0,0
16.0,-232.0,85.0,75.0,-36.0,-40.0,0
14.0,-233.0,84.0,79.0,-37.0,-33.0,0
19.0,-237.0,84.0,80.0,-37.0,-27.0,0
11.0,-228.0,78.0,78.0,-31.0,-24.0,0
10.0,-235.0,77.0,79.0,-24.0,-21.0,0
14.0,-233.0,83.0,79.0,-18.0,-19.0,0
14.0,-233.0,81.0,78.0,-14.0,-19.0,0
10.0,-232.0,82.0,77.0,-9.0,-21.0,0
14.0,-234.0,73.0,76.0,-7.0,-20.0,0
8.0,-235.0,81.0,74.0,-4.0,-20.0,0
11.0,-232.0,77.0,71.0,-1.0,-17.0,0
10.0,-231.0,79.0,68.0,3.0,-17.0,0
9.0,-231.0,74.0,65.0,9.0,-13.0,0
9.0,-231.0,75.0,60.0,16.0,-10.0,0
13.0,-235.0,86.0,57.0,19.0,-6.0,0
7.0,-232.0,78.0,56.0,19.0,-4.0,0
12.0,-232.0,73.0,53.0,20.0,-3.0,0
12.0,-230.0,76.0,52.0,21.0,-4.0,0
12.0,-236.0,75.0,50.0,20.0,-1.0,0
16.0,-231.0,78.0,50.0,20.0,-4.0,0
14.0,-234.0,78.0,50.0,21.0,-6.0,0
12.0,-233.0,81.0,50.0,27.0,-3.0,0
13.0,-239.0,79.0,49.0,31.0,-2.0,0
8.0,-238.0,79.0,47.0,35.0,-3.0,0
11.0,-234.0,77.0,45.0,37.0,-7.0,0
10.0,-237.0,78.0,44.0,41.0,-9.0,0
11.0,-237.0,84.0,43.0,41.0,-12.0,0
14.0,-235.0,79.0,43.0,42.0,-11.0,0
14.0,-236.0,79.0,45.0,41.0,-12.0,0
13.0,-239.0,77.0,49.0,38.0,-11.0,0
12.0,-234.0,80.0,53.0,37.0,-11.0,0
15.0,-237.0,80.0,57.0,38.0,-12.0,0
14.0,-236.0,78.0,59.0,39.0,-10.0,0
14.0,-234.0,75.0,64.0,39.0,-8.0,0
14.0,-236.0,80.0,67.0,41.0,-7.0,0
16.0,-236.0,79.0,67.0,41.0,-11.0,0
19.0,-234.0,79.0,67.0,42.0,-10.0,0
12.0,-234.0,86.0,63.0,45.0,-7.0,0
13.0,-234.0,80.0,62.0,46.0,-7.0,0
14.0,-234.0,81.0,63.0,45.0,-8.0,0
15.0,-233.0,81.0,65.0,45.0,-7.0,0
14.0,-232.0,83.0,68.0,46.0,-8.0,0
13.0,-231.0,81.0,71.0,47.0,-7.0,0
16.0,-234.0,83.0,75.0,48.0,-7.0,0
16.0,-231.0,81.0,81.0,48.0,-6.0,0
12.0,-233.0,81.0,85.0,46.0,-7.0,0
12.0,-230.0,80.0,93.0,45.0,-8.0,0
12.0,-226.0,79.0,100.0,46.0,-9.0,0
13.0,-233.0,82.0,105.0,47.0,-10.0,0
13.0,-232.0,82.0,110.0,47.0,-9.0,0
12.0,-231.0,82.0,112.0,46.0,-12.0,0
12.0,-232.0,88.0,114.0,45.0,-11.0,0
10.0,-233.0,84.0,112.0,45.0,-8.0,0
12.0,-231.0,86.0,108.0,48.0,-6.0,0
14.0,-232.0,88.0,102.0,52.0,-6.0,0
11.0,-231.0,83.0,96.0,51.0,-7.0,0
10.0,-232.0,81.0,89.0,46.0,-6.0,0
8.0,-232.0,86.0,87.0,37.0,-5.0,0
10.0,-233.0,81.0,83.0,30.0,-4.0,0
12.0,-229.0,87.0,80.0,23.0,-4.0,0
9.0,-234.0,83.0,72.0,24.0,3.0,0
10.0,-233.0,85.0,59.0,24.0,12.0,0
7.0,-233.0,79.0,50.0,15.0,18.0,0
3.0,-232.0,84.0,43.0,6.0,20.0,0
6.0,-230.0,82.0,41.0,-2.0,20.0,0
3.0,-228.0,86.0,41.0,-10.0,21.0,0
3.0,-228.0,84.0,43.0,-17.0,23.0,0
2.0,-230.0,80.0,44.0,-22.0,26.0,0
3.0,-231.0,79.0,43.0,-29.0,27.0,0
5.0,-232.0,81.0,45.0,-36.0,29.0,0
2.0,-232.0,86.0,46.0,-42.0,34.0,0
1.0,-232.0,81.0,44.0,-47.0,36.0,0
3.0,-234.0,85.0,43.0,-53.0,38.0,0
0.0,-232.0,85.0,40.0,-57.0,41.0,0
1.0,-231.0,86.0,38.0,-63.0,46.0,0
3.0,-230.0,87.0,39.0,-71.0,51.0,0
1.0,-233.0,87.0,41.0,-81.0,56.0,0
2.0,-232.0,92.0,46.0,-94.0,57.0,0
2.0,-234.0,88.0,55.0,-114.0,59.0,0
1.0,-234.0,91.0,63.0,-134.0,59.0,0
3.0,-234.0,86.0,71.0,-157.0,58.0,0
1.0,-234.0,82.0,73.0,-175.0,62.0,0
3.0,-234.0,86.0,76.0,-189.0,67.0,0
6.0,-235.0,87.0,76.0,-196.0,69.0,0
9.0,-234.0,84.0,76.0,-195.0,72.0,0
7.0,-234.0,80.0,76.0,-186.0,80.0,0
11.0,-230.0,79.0,75.0,-175.0,88.0,0
14.0,-231.0,76.0,76.0,-167.0,100.0,0
14.0,-234.0,76.0,76.0,-164.0,106.0,0
15.0,-235.0,80.0,77.0,-168.0,109.0,0
15.0,-234.0,72.0,74.0,-176.0,107.0,0
16.0,-234.0,74.0,64.0,-184.0,102.0,0
21.0,-234.0,73.0,51.0,-187.0,99.0,0
24.0,-233.0,71.0,34.0,-187.0,98.0,0
22.0,-235.0,72.0,18.0,-177.0,96.0,0
26.0,-237.0,73.0,7.0,-162.0,91.0,0
27.0,-238.0,71.0,2.0,-144.0,82.0,0
28.0,-235.0,75.0,4.0,-120.0,73.0,0
31.0,-238.0,71.0,7.0,-95.0,63.0,0
30.0,-238.0,72.0,14.0,-72.0,53.0,0
31.0,-239.0,72.0,22.0,-55.0,44.0,0
28.0,-232.0,66.0,31.0,-42.0,33.0,0
30.0,-237.0,70.0,39.0,-32.0,24.0,0
30.0,-237.0,69.0,43.0,-22.0,14.0,0
26.0,-233.0,70.0,49.0,-10.0,8.0,0
28.0,-235.0,67.0,53.0,3.0,-1.0,0
28.0,-235.0,71.0,57.0,17.0,-8.0,0
26.0,-236.0,68.0,59.0,31.0,-13.0,0
24.0,-233.0,70.0,63.0,47.0,-18.0,0
18.0,-237.0,73.0,69.0,62.0,-24.0,0
23.0,-241.0,78.0,74.0,75.0,-29.0,0
20.0,-240.0,75.0,80.0,85.0,-33.0,0
15.0,-238.0,76.0,85.0,95.0,-37.0,0
20.0,-237.0,76.0,90.0,104.0,-41.0,0
15.0,-241.0,77.0,95.0,112.0,-43.0,0
18.0,-241.0,76.0,98.0,120.0,-49.0,0
14.0,-239.0,75.0,99.0,129.0,-52.0,0
12.0,-238.0,85.0,102.0,135.0,-56.0,0
12.0,-237.0,83.0,102.0,135.0,-61.0,0
9.0,-237.0,82.0,101.0,132.0,-62.0,0
14.0,-243.0,81.0,100.0,133.0,-65.0,0
10.0,-234.0,81.0,99.0,137.0,-65.0,0
12.0,-239.0,81.0,98.0,145.0,-67.0,0
18.0,-228.0,78.0,99.0,153.0,-64.0,0
13.0,-235.0,72.0,101.0,170.0,-49.0,0
31.0,-231.0,65.0,90.0,201.0,-54.0,0
29.0,-235.0,66.0,46.0,249.0,-65.0,0
18.0,-226.0,60.0,-16.0,295.0,-83.0,0
21.0,-235.0,81.0,-55.0,320.0,-87.0,0
17.0,-238.0,78.0,-79.0,319.0,-99.0,0
30.0,-240.0,103.0,-115.0,305.0,-120.0,0
30.0,-245.0,97.0,-129.0,290.0,-150.0,0
27.0,-248.0,93.0,-65.0,283.0,-160.0,0
-11.0,-215.0,92.0,79.0,290.0,-87.0,0
-30.0,-202.0,84.0,253.0,283.0,40.0,0
-44.0,-202.0,93.0,417.0,249.0,111.0,0
-35.0,-209.0,107.0,482.0,201.0,100.0,0
-24.0,-208.0,99.0,413.0,138.0,67.0,0
-17.0,-202.0,92.0,260.0,62.0,44.0,0
-19.0,-226.0,102.0,146.0,1.0,36.0,0
-11.0,-222.0,98.0,73.0,-30.0,33.0,0
1.0,-244.0,94.0,25.0,-35.0,26.0,0
4.0,-246.0,76.0,-12.0,-26.0,17.0,0
4.0,-253.0,86.0,-33.0,-9.0,4.0,0
2.0,-253.0,74.0,-37.0,11.0,-13.0,0
8.0,-259.0,85.0,-21.0,40.0,-29.0,0
6.0,-257.0,99.0,6.0,65.0,-46.0,0
2.0,-253.0,107.0,42.0,83.0,-56.0,0
3.0,-244.0,115.0,82.0,90.0,-64.0,0
11.0,-237.0,98.0,120.0,87.0,-69.0,0
12.0,-238.0,95.0,152.0,75.0,-72.0,0
5.0,-230.0,96.0,172.0,58.0,-71.0,0
19.0,-220.0,75.0,186.0,45.0,-64.0,0
16.0,-215.0,86.0,192.0,40.0,-51.0,0
9.0,-220.0,79.0,179.0,39.0,-37.0,0
13.0,-216.0,79.0,155.0,40.0,-27.0,0
14.0,-219.0,78.0,122.0,45.0,-18.0,0
15.0,-217.0,73.0,88.0,58.0,-10.0,0
18.0,-226.0,77.0,54.0,72.0,-8.0,0
17.0,-230.0,75.0,33.0,83.0,-14.0,0
22.0,-232.0,82.0,28.0,87.0,-21.0,0
23.0,-238.0,79.0,30.0,86.0,-32.0,0
19.0,-235.0,79.0,42.0,83.0,-43.0,0
22.0,-238.0,80.0,60.0,80.0,-52.0,0
23.0,-240.0,80.0,78.0,80.0,-59.0,0
20.0,-236.0,77.0,93.0,79.0,-64.0,0
17.0,-234.0,80.0,100.0,77.0,-66.0,0
12.0,-225.0,79.0,106.0,79.0,-71.0,0
19.0,-231.0,77.0,106.0,79.0,-70.0,0
15.0,-229.0,79.0,103.0,77.0,-64.0,0
13.0,-225.0,77.0,97.0,71.0,-59.0,0
11.0,-225.0,81.0,93.0,63.0,-56.0,0
12.0,-230.0,79.0,87.0,56.0,-50.0,0
10.0,-226.0,85.0,79.0,53.0,-47.0,0
13.0,-230.0,86.0,69.0,50.0,-44.0,0
11.0,-230.0,89.0,61.0,44.0,-38.0,0
10.0,-233.0,88.0,57.0,39.0,-36.0,0
9.0,-234.0,84.0,55.0,32.0,-33.0,0
6.0,-234.0,86.0,53.0,26.0,-31.0,0
8.0,-235.0,89.0,54.0,19.0,-29.0,0
12.0,-238.0,89.0,55.0,11.0,-28.0,0
9.0,-237.0,86.0,60.0,7.0,-29.0,0
10.0,-237.0,84.0,63.0,3.0,-29.0,0
7.0,-238.0,87.0,66.0,0.0,-31.0,0
10.0,-236.0,87.0,67.0,-1.0,-32.0,0
8.0,-236.0,90.0,68.0,0.0,-34.0,0
7.0,-232.0,95.0,65.0,-1.0,-33.0,0
6.0,-229.0,84.0,62.0,-3.0,-34.0,0
2.0,-226.0,84.0,60.0,-6.0,-32.0,0
5.0,-228.0,88.0,57.0,-9.0,-32.0,0
7.0,-230.0,90.0,54.0,-12.0,-30.0,0
8.0,-229.0,90.0,47.0,-16.0,-30.0,0
5.0,-227.0,87.0,40.0,-23.0,-30.0,0
4.0,-229.0,89.0,31.0,-33.0,-27.0,0
3.0,-230.0,87.0,22.0,-41.0,-27.0,0
3.0,-225.0,90.0,13.0,-46.0,-28.0,0
4.0,-230.0,90.0,3.0,-46.0,-27.0,0
7.0,-234.0,88.0,-6.0,-41.0,-25.0,0
9.0,-233.0,89.0,-17.0,-37.0,-22.0,0
13.0,-236.0,82.0,-27.0,-31.0,-22.0,0
10.0,-234.0,83.0,-35.0,-25.0,-25.0,0
11.0,-235.0,85.0,-41.0,-17.0,-28.0,0
14.0,-235.0,86.0,-39.0,-14.0,-28.0,0
15.0,-235.0,86.0,-29.0,-11.0,-27.0,0
5.0,-227.0,87.0,-17.0,-10.0,-27.0,0
-3.0,-225.0,92.0,2.0,-21.0,-15.0,0
3.0,-219.0,94.0,26.0,-37.0,-2.0,0
3.0,-219.0,94.0,46.0,-45.0,6.0,0
6.0,-219.0,92.0,58.0,-55.0,17.0,0
14.0,-223.0,90.0,62.0,-61.0,20.0,0
15.0,-235.0,80.0,48.0,-64.0,18.0,0
17.0,-231.0,75.0,16.0,-63.0,13.0,0
17.0,-234.0,78.0,-5.0,-59.0,8.0,0
22.0,-240.0,74.0,-23.0,-51.0,2.0,0
22.0,-242.0,78.0,-35.0,-36.0,-1.0,0
21.0,-246.0,77.0,-41.0,-18.0,-8.0,0
19.0,-245.0,80.0,-42.0,0.0,-14.0,0
18.0,-244.0,84.0,-39.0,11.0,-21.0,0
20.0,-242.0,84.0,-30.0,24.0,-25.0,0
19.0,-239.0,78.0,-18.0,33.0,-34.0,0
26.0,-239.0,81.0,-5.0,46.0,-39.0,0
32.0,-238.0,77.0,4.0,64.0,-48.0,0
24.0,-236.0,75.0,7.0,86.0,-54.0,0
21.0,-234.0,80.0,12.0,96.0,-55.0,0
17.0,-234.0,78.0,27.0,96.0,-57.0,0
17.0,-230.0,79.0,39.0,98.0,-59.0,0
21.0,-230.0,78.0,44.0,107.0,-59.0,0
9.0,-226.0,92.0,41.0,116.0,-58.0,0
2.0,-227.0,92.0,49.0,104.0,-46.0,0
0.0,-224.0,91.0,71.0,82.0,-35.0,0
3.0,-225.0,95.0,89.0,58.0,-26.0,0
3.0,-222.0,87.0,95.0,47.0,-24.0,0
1.0,-231.0,88.0,84.0,44.0,-23.0,0
-7.0,-225.0,95.0,76.0,27.0,-20.0,0
-2.0,-228.0,92.0,77.0,0.0,-15.0,0
-2.0,-230.0,91.0,70.0,-21.0,-18.0,0
-2.0,-229.0,88.0,56.0,-37.0,-16.0,0
2.0,-232.0,91.0,42.0,-46.0,-11.0,0
3.0,-231.0,80.0,35.0,-50.0,-7.0,0
8.0,-233.0,85.0,30.0,-50.0,-2.0,0
11.0,-233.0,84.0,25.0,-47.0,-2.0,0
14.0,-231.0,80.0,22.0,-43.0,-1.0,0
16.0,-232.0,82.0,25.0,-36.0,-1.0,0
22.0,-233.0,79.0,25.0,-25.0,-3.0,0
23.0,-238.0,84.0,26.0,-12.0,-4.0,0
26.0,-239.0,86.0,30.0,-2.0,-6.0,0
23.0,-235.0,83.0,39.0,3.0,-7.0,0
22.0,-234.0,82.0,45.0,7.0,-10.0,0
25.0,-235.0,87.0,51.0,11.0,-9.0,0
18.0,-233.0,86.0,59.0,12.0,-5.0,0
19.0,-232.0,87.0,64.0,14.0,-4.0,0
15.0,-233.0,84.0,68.0,15.0,-2.0,0
12.0,-229.0,85.0,70.0,10.0,1.0,0
11.0,-230.0,85.0,69.0,7.0,0.0,0
6.0,-224.0,81.0,69.0,1.0,2.0,0
12.0,-229.0,83.0,65.0,-3.0,0.0,0
9.0,-231.0,82.0,62.0,-5.0,1.0,0
10.0,-228.0,80.0,56.0,-9.0,0.0,0
8.0,-228.0,79.0,45.0,-12.0,-2.0,0
12.0,-234.0,82.0,36.0,-15.0,-2.0,0
11.0,-234.0,85.0,23.0,-16.0,-2.0,0
15.0,-235.0,75.0,12.0,-14.0,-3.0,0
13.0,-238.0,79.0,4.0,-10.0,-3.0,0
14.0,-235.0,80.0,-3.0,-6.0,-5.0,0
16.0,-238.0,85.0,-7.0,0.0,-9.0,0
19.0,-234.0,77.0,-5.0,2.0,-11.0,0
17.0,-236.0,84.0,-3.0,7.0,-14.0,0
18.0,-233.0,78.0,2.0,11.0,-17.0,0
23.0,-236.0,79.0,13.0,13.0,-17.0,0
21.0,-233.0,76.0,22.0,20.0,-20.0,0
19.0,-236.0,80.0,31.0,26.0,-20.0,0
18.0,-236.0,79.0,39.0,31.0,-19.0,0
16.0,-233.0,77.0,46.0,33.0,-20.0,0
12.0,-234.0,80.0,50.0,34.0,-18.0,0
11.0,-227.0,76.0,52.0,32.0,-19.0,0
12.0,-237.0,84.0,51.0,30.0,-19.0,0
5.0,-230.0,84.0,49.0,28.0,-19.0,0
3.0,-229.0,83.0,48.0,21.0,-16.0,0
1.0,-228.0,83.0,49.0,11.0,-13.0,0
2.0,-229.0,81.0,53.0,3.0,-10.0,0
1.0,-229.0,86.0,57.0,-2.0,-5.0,0
1.0,-228.0,86.0,60.0,-8.0,-2.0,0
3.0,-231.0,84.0,62.0,-15.0,1.0,0
8.0,-235.0,87.0,63.0,-22.0,6.0,0
6.0,-232.0,83.0,62.0,-30.0,7.0,0
13.0,-233.0,86.0,64.0,-34.0,10.0,0
11.0,-239.0,85.0,66.0,-35.0,12.0,0
16.0,-238.0,81.0,67.0,-34.0,14.0,0
17.0,-233.0,82.0,70.0,-31.0,17.0,0
16.0,-235.0,86.0,71.0,-28.0,15.0,0
15.0,-236.0,83.0,70.0,-26.0,12.0,0
19.0,-237.0,86.0,67.0,-23.0,9.0,0
18.0,-236.0,86.0,63.0,-23.0,6.0,0
19.0,-240.0,87.0,57.0,-17.0,0.0,0
16.0,-235.0,84.0,48.0,-11.0,-7.0,0
18.0,-236.0,85.0,40.0,-6.0,-13.0,0
14.0,-230.0,83.0,31.0,-3.0,-18.0,0
9.0,-230.0,83.0,25.0,1.0,-23.0,0
12.0,-230.0,79.0,25.0,7.0,-26.0,0
12.0,-230.0,76.0,27.0,14.0,-28.0,0
10.0,-232.0,79.0,29.0,20.0,-29.0,0
13.0,-232.0,74.0,32.0,24.0,-29.0,0
10.0,-232.0,81.0,37.0,26.0,-27.0,0
8.0,-228.0,79.0,38.0,22.0,-22.0,0
10.0,-231.0,79.0,38.0,19.0,-18.0,0
8.0,-229.0,80.0,38.0,10.0,-15.0,0
9.0,-232.0,81.0,37.0,3.0,-14.0,0
6.0,-231.0,89.0,32.0,-2.0,-10.0,0
6.0,-229.0,83.0,32.0,-5.0,-10.0,0
5.0,-235.0,84.0,29.0,-8.0,-8.0,0
10.0,-233.0,84.0,28.0,-10.0,-7.0,0
9.0,-235.0,86.0,29.0,-11.0,-6.0,0
8.0,-236.0,85.0,28.0,-12.0,-6.0,0
12.0,-236.0,82.0,31.0,-11.0,-5.0,0
9.0,-234.0,83.0,36.0,-11.0,-4.0,0
12.0,-234.0,86.0,39.0,-11.0,-4.0,0
11.0,-232.0,81.0,44.0,-9.0,-2.0,0
9.0,-230.0,80.0,44.0,-7.0,-3.0,0
16.0,-231.0,79.0,47.0,-4.0,-2.0,0
10.0,-235.0,83.0,48.0,-2.0,-3.0,0
11.0,-231.0,81.0,49.0,-2.0,-1.0,0
14.0,-232.0,81.0,48.0,-1.0,0.0,0
14.0,-234.0,82.0,47.0,-2.0,-1.0,0
11.0,-233.0,81.0,47.0,-1.0,-4.0,0
13.0,-235.0,81.0,49.0,-2.0,-4.0,0
11.0,-234.0,80.0,51.0,1.0,-5.0,0
13.0,-231.0,80.0,46.0,6.0,-8.0,0
13.0,-232.0,81.0,45.0,9.0,-11.0,0
11.0,-233.0,78.0,41.0,9.0,-12.0,0
14.0,-235.0,82.0,39.0,10.0,-11.0,0
11.0,-224.0,75.0,37.0,10.0,-10.0,0
10.0,-236.0,78.0,34.0,11.0,-10.0,0
11.0,-235.0,76.0,34.0,15.0,-9.0,0
14.0,-234.0,80.0,39.0,17.0,-12.0,0
15.0,-236.0,76.0,45.0,20.0,-11.0,0
14.0,-228.0,79.0,52.0,23.0,-10.0,0
11.0,-236.0,78.0,59.0,25.0,-9.0,0
13.0,-230.0,77.0,65.0,26.0,-9.0,0
13.0,-232.0,76.0,67.0,29.0,-11.0,0
13.0,-233.0,82.0,66.0,33.0,-12.0,0
18.0,-232.0,83.0,62.0,34.0,-12.0,0
17.0,-233.0,90.0,60.0,35.0,-12.0,0
13.0,-236.0,83.0,58.0,33.0,-12.0,0
13.0,-234.0,78.0,55.0,32.0,-13.0,0
14.0,-235.0,80.0,52.0,31.0,-15.0,0
13.0,-236.0,88.0,49.0,29.0,-16.0,0
15.0,-234.0,84.0,48.0,25.0,-17.0,0
12.0,-232.0,87.0,48.0,22.0,-18.0,0
12.0,-233.0,80.0,49.0,19.0,-19.0,0
15.0,-233.0,81.0,50.0,17.0,-19.0,0
12.0,-235.0,80.0,53.0,15.0,-18.0,0
11.0,-232.0,78.0,56.0,15.0,-17.0,0
10.0,-233.0,82.0,61.0,16.0,-16.0,0
15.0,-234.0,81.0,64.0,20.0,-13.0,0
14.0,-232.0,81.0,65.0,19.0,-13.0,0
11.0,-232.0,80.0,65.0,18.0,-14.0,0
17.0,-229.0,83.0,66.0,15.0,-14.0,0
12.0,-231.0,85.0,65.0,15.0,-12.0,0
11.0,-228.0,81.0,65.0,12.0,-12.0,0
15.0,-231.0,83.0,63.0,13.0,-12.0,0
13.0,-230.0,83.0,61.0,12.0,-14.0,0
14.0,-228.0,77.0,59.0,13.0,-13.0,0
11.0,-232.0,86.0,59.0,15.0,-14.0,0
16.0,-236.0,83.0,59.0,17.0,-13.0,0
13.0,-235.0,85.0,61.0,17.0,-14.0,0
14.0,-237.0,80.0,62.0,17.0,-14.0,0
13.0,-238.0,81.0,64.0,17.0,-14.0,0
16.0,-233.0,81.0,65.0,18.0,-15.0,0
14.0,-231.0,81.0,66.0,17.0,-13.0,0
8.0,-234.0,85.0,67.0,18.0,-12.0,0
12.0,-233.0,83.0,66.0,21.0,-11.0,0
10.0,-230.0,88.0,66.0,21.0,-12.0,0
8.0,-230.0,84.0,65.0,22.0,-12.0,0
8.0,-231.0,82.0,63.0,22.0,-12.0,0
12.0,-232.0,85.0,62.0,19.0,-13.0,0
11.0,-233.0,86.0,64.0,17.0,-14.0,0
14.0,-230.0,81.0,65.0,15.0,-14.0,0
11.0,-232.0,83.0,67.0,13.0,-12.0,0
12.0,-231.0,88.0,68.0,12.0,-12.0,0
7.0,-231.0,82.0,70.0,10.0,-13.0,0
13.0,-233.0,80.0,72.0,7.0,-12.0,0
13.0,-233.0,82.0,74.0,6.0,-11.0,0
6.0,-230.0,84.0,72.0,8.0,-9.0,0
8.0,-230.0,84.0,71.0,8.0,-8.0,0
7.0,-235.0,88.0,70.0,7.0,-9.0,0
14.0,-233.0,83.0,68.0,6.0,-8.0,0
11.0,-230.0,81.0,63.0,5.0,-9.0,0
10.0,-231.0,83.0,59.0,5.0,-7.0,0
12.0,-232.0,85.0,59.0,4.0,-8.0,0
11.0,-233.0,84.0,59.0,5.0,-8.0,0
11.0,-232.0,80.0,58.0,6.0,-8.0,0
11.0,-233.0,81.0,60.0,8.0,-7.0,0
16.0,-233.0,84.0,65.0,8.0,-7.0,0
13.0,-233.0,79.0,67.0,12.0,-9.0,0
16.0,-236.0,77.0,65.0,15.0,-10.0,0
12.0,-240.0,93.0,64.0,14.0,-9.0,0
12.0,-235.0,84.0,64.0,11.0,-11.0,0
15.0,-234.0,86.0,67.0,7.0,-11.0,0
14.0,-231.0,82.0,67.0,8.0,-11.0,0
12.0,-230.0,85.0,63.0,8.0,-11.0,0
13.0,-232.0,82.0,64.0,8.0,-9.0,0
14.0,-233.0,86.0,66.0,7.0,-10.0,0
13.0,-232.0,82.0,68.0,6.0,-10.0,0
9.0,-231.0,85.0,72.0,5.0,-11.0,0
12.0,-233.0,84.0,76.0,2.0,-10.0,0
13.0,-229.0,87.0,79.0,4.0,-11.0,0
17.0,-236.0,88.0,73.0,4.0,-11.0,0
12.0,-231.0,85.0,66.0,4.0,-10.0,0
11.0,-230.0,83.0,62.0,2.0,-9.0,0
13.0,-233.0,81.0,57.0,3.0,-9.0,0
9.0,-231.0,80.0,53.0,5.0,-9.0,0
13.0,-231.0,81.0,50.0,5.0,-6.0,0
14.0,-232.0,80.0,49.0,6.0,-7.0,0
15.0,-235.0,87.0,51.0,6.0,-7.0,0
16.0,-233.0,80.0,55.0,7.0,-6.0,0
15.0,-233.0,80.0,60.0,8.0,-7.0,0
14.0,-229.0,84.0,65.0,8.0,-7.0,0
15.0,-231.0,78.0,71.0,8.0,-8.0,0
15.0,-232.0,84.0,73.0,6.0,-11.0,0
14.0,-233.0,83.0,73.0,8.0,-11.0,0
13.0,-234.0,84.0,70.0,10.0,-10.0,0
9.0,-229.0,85.0,67.0,12.0,-8.0,0
13.0,-233.0,82.0,65.0,11.0,-6.0,0
13.0,-233.0,84.0,65.0,14.0,-11.0,0
12.0,-234.0,88.0,62.0,16.0,-9.0,0
16.0,-235.0,84.0,63.0,17.0,-10.0,0
11.0,-233.0,83.0,69.0,19.0,-10.0,0
9.0,-229.0,80.0,73.0,17.0,-11.0,0
9.0,-234.0,84.0,74.0,19.0,-13.0,0
14.0,-235.0,81.0,74.0,17.0,-16.0,0
14.0,-234.0,79.0,72.0,16.0,-17.0,0
14.0,-233.0,81.0,72.0,13.0,-16.0,0
13.0,-233.0,86.0,71.0,11.0,-15.0,0
12.0,-229.0,80.0,70.0,11.0,-15.0,0
11.0,-231.0,83.0,69.0,11.0,-15.0,0
13.0,-231.0,80.0,66.0,12.0,-15.0,0
12.0,-233.0,85.0,63.0,16.0,-13.0,0
14.0,-228.0,80.0,63.0,17.0,-16.0,0
13.0,-232.0,83.0,64.0,17.0,-14.0,0
15.0,-230.0,81.0,66.0,17.0,-13.0,0
12.0,-232.0,84.0,66.0,18.0,-11.0,0
14.0,-232.0,82.0,65.0,19.0,-11.0,0
12.0,-231.0,84.0,64.0,19.0,-10.0,0
13.0,-237.0,86.0,61.0,21.0,-10.0,0
12.0,-232.0,87.0,58.0,19.0,-11.0,0
12.0,-232.0,84.0,56.0,19.0,-9.0,0
14.0,-234.0,89.0,54.0,18.0,-11.0,0
15.0,-237.0,82.0,54.0,17.0,-10.0,0
10.0,-235.0,84.0,57.0,18.0,-12.0,0
15.0,-233.0,86.0,60.0,18.0,-13.0,0
12.0,-232.0,80.0,65.0,20.0,-14.0,0
14.0,-236.0,82.0,66.0,19.0,-15.0,0
11.0,-230.0,80.0,67.0,20.0,-18.0,0
11.0,-229.0,82.0,65.0,20.0,-18.0,0
14.0,-231.0,82.0,64.0,19.0,-19.0,0
13.0,-234.0,85.0,62.0,19.0,-19.0,0
13.0,-233.0,84.0,60.0,19.0,-19.0,0
12.0,-231.0,85.0,61.0,20.0,-18.0,0
14.0,-232.0,85.0,62.0,18.0,-17.0,0
14.0,-228.0,85.0,65.0,18.0,-17.0,0
9.0,-230.0,94.0,69.0,19.0,-19.0,0
16.0,-230.0,80.0,74.0,19.0,-18.0,0
13.0,-233.0,87.0,77.0,20.0,-16.0,0
12.0,-230.0,87.0,78.0,22.0,-14.0,0
14.0,-230.0,86.0,78.0,21.0,-11.0,0
10.0,-231.0,85.0,76.0,21.0,-12.0,0
13.0,-232.0,85.0,71.0,20.0,-9.0,0
11.0,-231.0,83.0,68.0,18.0,-8.0,0
11.0,-229.0,80.0,61.0,17.0,-8.0,0
11.0,-232.0,83.0,59.0,16.0,-9.0,0
14.0,-231.0,88.0,58.0,17.0,-11.0,0
9.0,-231.0,81.0,57.0,20.0,-13.0,0
12.0,-234.0,83.0,58.0,21.0,-12.0,0
11.0,-231.0,80.0,58.0,20.0,-13.0,0
11.0,-230.0,89.0,58.0,18.0,-14.0,0
10.0,-232.0,84.0,60.0,17.0,-16.0,0
11.0,-231.0,85.0,60.0,14.0,-15.0,0
11.0,-232.0,80.0,60.0,14.0,-12.0,0
14.0,-234.0,84.0,59.0,14.0,-13.0,0
13.0,-231.0,84.0,58.0,13.0,-13.0,0
13.0,-233.0,79.0,58.0,12.0,-12.0,0
14.0,-233.0,88.0,60.0,11.0,-13.0,0
8.0,-232.0,84.0,62.0,11.0,-10.0,0
11.0,-232.0,86.0,63.0,12.0,-10.0,0
12.0,-232.0,86.0,64.0,15.0,-9.0,0
13.0,-232.0,85.0,62.0,15.0,-7.0,0
13.0,-231.0,86.0,61.0,15.0,-7.0,0
13.0,-231.0,86.0,61.0,15.0,-8.0,0
13.0,-231.0,84.0,59.0,16.0,-7.0,0
11.0,-233.0,85.0,60.0,14.0,-8.0,0
15.0,-230.0,84.0,59.0,14.0,-8.0,0
9.0,-232.0,90.0,62.0,13.0,-8.0,0
14.0,-230.0,87.0,65.0,12.0,-10.0,0
12.0,-232.0,88.0,66.0,9.0,-11.0,0
11.0,-231.0,88.0,70.0,7.0,-12.0,0
11.0,-233.0,89.0,73.0,7.0,-14.0,0
12.0,-231.0,85.0,73.0,7.0,-15.0,0
13.0,-232.0,83.0,72.0,6.0,-14.0,0
11.0,-230.0,86.0,70.0,7.0,-14.0,0
11.0,-233.0,84.0,68.0,10.0,-12.0,0
13.0,-234.0,86.0,66.0,8.0,-13.0,0
14.0,-231.0,84.0,66.0,7.0,-11.0,0
15.0,-233.0,84.0,65.0,7.0,-11.0,0
17.0,-229.0,85.0,65.0,7.0,-13.0,0
11.0,-227.0,80.0,64.0,7.0,-11.0,0
15.0,-232.0,87.0,64.0,5.0,-11.0,0
14.0,-231.0,84.0,65.0,7.0,-9.0,0
11.0,-232.0,87.0,62.0,8.0,-7.0,0
14.0,-232.0,86.0,61.0,11.0,-7.0,0
13.0,-235.0,84.0,57.0,11.0,-6.0,0
13.0,-229.0,87.0,58.0,13.0,-7.0,0
15.0,-231.0,81.0,58.0,12.0,-7.0,0
12.0,-231.0,82.0,59.0,12.0,-8.0,0
11.0,-232.0,86.0,60.0,11.0,-11.0,0
13.0,-233.0,85.0,62.0,11.0,-10.0,0
10.0,-231.0,85.0,65.0,12.0,-11.0,0
14.0,-229.0,85.0,63.0,13.0,-11.0,0
11.0,-231.0,85.0,63.0,13.0,-12.0,0
11.0,-233.0,87.0,61.0,12.0,-12.0,0
12.0,-231.0,86.0,59.0,12.0,-12.0,0
12.0,-233.0,87.0,56.0,10.0,-13.0,0
10.0,-232.0,89.0,54.0,9.0,-14.0,0
14.0,-234.0,88.0,53.0,10.0,-9.0,0
12.0,-232.0,82.0,55.0,9.0,-8.0,0
16.0,-235.0,86.0,59.0,10.0,-7.0,0
9.0,-234.0,85.0,63.0,9.0,-7.0,0
11.0,-237.0,89.0,64.0,11.0,-8.0,0
10.0,-230.0,87.0,66.0,11.0,-9.0,0
12.0,-232.0,86.0,70.0,9.0,-11.0,0
13.0,-234.0,87.0,70.0,11.0,-12.0,0
10.0,-228.0,82.0,69.0,9.0,-14.0,0
13.0,-230.0,83.0,66.0,10.0,-13.0,0
12.0,-232.0,85.0,66.0,11.0,-13.0,0
13.0,-230.0,84.0,62.0,13.0,-12.0,0
15.0,-233.0,84.0,60.0,14.0,-11.0,0
16.0,-230.0,84.0,59.0,16.0,-10.0,0
19.0,-236.0,90.0,57.0,17.0,-11.0,0
14.0,-235.0,85.0,56.0,17.0,-13.0,0
16.0,-231.0,86.0,59.0,16.0,-13.0,0
13.0,-233.0,87.0,59.0,15.0,-13.0,0
13.0,-230.0,89.0,60.0,13.0,-12.0,0
11.0,-231.0,82.0,59.0,13.0,-11.0,0
12.0,-227.0,84.0,58.0,13.0,-10.0,0
14.0,-232.0,85.0,56.0,14.0,-10.0,0
14.0,-230.0,88.0,56.0,14.0,-10.0,0
15.0,-231.0,85.0,55.0,15.0,-10.0,0
16.0,-234.0,84.0,53.0,16.0,-10.0,0
12.0,-230.0,80.0,53.0,13.0,-12.0,0
11.0,-223.0,84.0,53.0,12.0,-11.0,0
9.0,-232.0,86.0,52.0,12.0,-11.0,0
14.0,-230.0,82.0,49.0,11.0,-10.0,0
13.0,-232.0,87.0,47.0,11.0,-7.0,0
13.0,-232.0,87.0,47.0,11.0,-9.0,0
11.0,-231.0,82.0,44.0,12.0,-9.0,0
12.0,-233.0,82.0,45.0,14.0,-10.0,0
15.0,-234.0,86.0,45.0,14.0,-11.0,0
14.0,-229.0,87.0,46.0,13.0,-10.0,0
13.0,-233.0,89.0,49.0,12.0,-13.0,0
12.0,-230.0,87.0,50.0,11.0,-14.0,0
15.0,-236.0,87.0,50.0,12.0,-14.0,0
13.0,-230.0,87.0,48.0,12.0,-16.0,0
12.0,-234.0,86.0,49.0,12.0,-16.0,0
11.0,-234.0,82.0,48.0,12.0,-14.0,0
12.0,-233.0,85.0,47.0,14.0,-15.0,0
13.0,-232.0,84.0,50.0,16.0,-16.0,0
12.0,-230.0,85.0,51.0,16.0,-16.0,0
10.0,-229.0,81.0,54.0,17.0,-16.0,0
14.0,-229.0,82.0,53.0,18.0,-14.0,0
11.0,-228.0,86.0,55.0,18.0,-14.0,0
16.0,-231.0,85.0,54.0,17.0,-14.0,0
14.0,-239.0,83.0,52.0,18.0,-12.0,0
12.0,-230.0,85.0,51.0,16.0,-13.0,0
9.0,-228.0,84.0,50.0,16.0,-12.0,0
12.0,-233.0,88.0,48.0,15.0,-13.0,0
12.0,-232.0,90.0,47.0,18.0,-15.0,0
10.0,-231.0,90.0,47.0,16.0,-14.0,0
12.0,-231.0,91.0,49.0,14.0,-14.0,0
16.0,-232.0,88.0,46.0,13.0,-13.0,0
9.0,-229.0,87.0,45.0,13.0,-13.0,0
12.0,-230.0,85.0,43.0,13.0,-12.0,0
13.0,-229.0,85.0,41.0,14.0,-13.0,0
12.0,-231.0,83.0,39.0,14.0,-10.0,0
13.0,-235.0,81.0,38.0,15.0,-10.0,0
13.0,-234.0,82.0,38.0,15.0,-13.0,0
12.0,-233.0,85.0,40.0,14.0,-16.0,0
15.0,-232.0,83.0,40.0,14.0,-14.0,0
14.0,-231.0,85.0,44.0,13.0,-15.0,0
13.0,-228.0,80.0,46.0,12.0,-15.0,0
11.0,-229.0,85.0,48.0,11.0,-12.0,0
11.0,-232.0,79.0,48.0,12.0,-11.0,0
13.0,-231.0,83.0,48.0,12.0,-10.0,0
14.0,-231.0,85.0,45.0,11.0,-9.0,0
14.0,-233.0,85.0,43.0,11.0,-9.0,0
14.0,-232.0,87.0,41.0,10.0,-9.0,0
11.0,-233.0,86.0,39.0,10.0,-8.0,0
13.0,-233.0,84.0,37.0,11.0,-7.0,0
13.0,-233.0,86.0,36.0,9.0,-6.0,0
15.0,-231.0,82.0,36.0,10.0,-7.0,0
15.0,-233.0,83.0,35.0,8.0,-9.0,0
15.0,-234.0,91.0,36.0,9.0,-8.0,0
14.0,-232.0,87.0,37.0,9.0,-8.0,0
17.0,-234.0,84.0,40.0,9.0,-7.0,0
10.0,-229.0,82.0,44.0,10.0,-8.0,0
10.0,-232.0,79.0,47.0,11.0,-8.0,0
11.0,-231.0,87.0,46.0,12.0,-8.0,0
12.0,-233.0,83.0,44.0,13.0,-9.0,0
15.0,-233.0,86.0,41.0,11.0,-9.0,0
15.0,-234.0,83.0,37.0,11.0,-11.0,0
13.0,-236.0,83.0,35.0,11.0,-10.0,0
12.0,-227.0,85.0,34.0,9.0,-13.0,0
15.0,-233.0,86.0,33.0,6.0,-14.0,0
10.0,-233.0,89.0,33.0,3.0,-15.0,0
18.0,-236.0,85.0,34.0,1.0,-15.0,0
9.0,-233.0,79.0,35.0,0.0,-13.0,0
12.0,-233.0,84.0,37.0,2.0,-14.0,0
12.0,-229.0,83.0,37.0,3.0,-13.0,0
11.0,-231.0,85.0,37.0,5.0,-11.0,0
13.0,-229.0,80.0,36.0,6.0,-9.0,0
11.0,-231.0,86.0,33.0,8.0,-10.0,0
12.0,-230.0,86.0,32.0,9.0,-9.0,0
11.0,-232.0,88.0,30.0,9.0,-9.0,0
13.0,-229.0,84.0,29.0,10.0,-9.0,0
9.0,-233.0,86.0,28.0,8.0,-9.0,0
14.0,-230.0,91.0,28.0,10.0,-9.0,0
11.0,-237.0,82.0,28.0,9.0,-8.0,0
11.0,-231.0,84.0,28.0,9.0,-8.0,0
15.0,-232.0,87.0,27.0,12.0,-7.0,0
12.0,-232.0,85.0,29.0,12.0,-7.0,0
12.0,-234.0,86.0,27.0,11.0,-9.0,0
15.0,-234.0,87.0,26.0,11.0,-9.0,0
9.0,-233.0,85.0,27.0,11.0,-11.0,0
12.0,-228.0,81.0,26.0,10.0,-11.0,0
12.0,-231.0,80.0,26.0,6.0,-11.0,0
10.0,-230.0,85.0,26.0,5.0,-10.0,0
10.0,-231.0,86.0,24.0,3.0,-9.0,0
6.0,-229.0,82.0,23.0,0.0,-8.0,0
12.0,-233.0,85.0,24.0,1.0,-7.0,0
12.0,-229.0,83.0,24.0,0.0,-4.0,0
10.0,-228.0,83.0,22.0,2.0,-6.0,0
10.0,-229.0,83.0,21.0,2.0,-5.0,0
12.0,-227.0,84.0,21.0,3.0,-2.0,0
10.0,-228.0,84.0,21.0,4.0,-2.0,0
9.0,-229.0,79.0,19.0,5.0,-2.0,0
12.0,-231.0,85.0,17.0,7.0,-2.0,0
10.0,-230.0,78.0,16.0,6.0,-3.0,0
9.0,-232.0,83.0,15.0,7.0,0.0,0
8.0,-232.0,78.0,15.0,7.0,-1.0,0
14.0,-234.0,81.0,16.0,6.0,1.0,0
15.0,-234.0,83.0,16.0,6.0,4.0,0
13.0,-232.0,82.0,18.0,4.0,4.0,0
14.0,-235.0,79.0,21.0,3.0,6.0,0
14.0,-233.0,85.0,23.0,3.0,6.0,0
15.0,-235.0,79.0,25.0,4.0,7.0,0
17.0,-234.0,77.0,29.0,4.0,6.0,0
15.0,-237.0,80.0,34.0,3.0,4.0,0
13.0,-233.0,79.0,38.0,0.0,2.0,0
14.0,-233.0,80.0,40.0,0.0,-1.0,0
15.0,-235.0,80.0,39.0,-2.0,-2.0,0
14.0,-232.0,82.0,39.0,-1.0,-3.0,0
16.0,-234.0,83.0,37.0,0.0,-4.0,0
13.0,-231.0,84.0,33.0,-1.0,-4.0,0
14.0,-234.0,85.0,30.0,2.0,-7.0,0
14.0,-232.0,83.0,31.0,2.0,-7.0,0
16.0,-233.0,84.0,30.0,1.0,-4.0,0
8.0,-232.0,84.0,29.0,0.0,-3.0,0
11.0,-229.0,83.0,27.0,-1.0,-2.0,0
15.0,-232.0,84.0,23.0,1.0,0.0,0
12.0,-230.0,76.0,18.0,1.0,1.0,0
15.0,-232.0,81.0,16.0,-1.0,3.0,0
11.0,-233.0,82.0,13.0,-4.0,4.0,0
18.0,-234.0,86.0,12.0,-7.0,3.0,0
14.0,-231.0,84.0,12.0,-6.0,1.0,0
14.0,-233.0,79.0,15.0,-5.0,2.0,0
14.0,-229.0,87.0,17.0,-8.0,2.0,0
12.0,-227.0,83.0,21.0,-7.0,1.0,0
11.0,-231.0,82.0,23.0,-7.0,2.0,0
10.0,-229.0,79.0,24.0,-4.0,4.0,0
12.0,-231.0,82.0,24.0,-2.0,3.0,0
14.0,-233.0,85.0,23.0,-1.0,2.0,0
13.0,-233.0,84.0,22.0,-1.0,1.0,0
13.0,-236.0,87.0,22.0,0.0,2.0,0
10.0,-233.0,85.0,23.0,1.0,0.0,0
13.0,-235.0,88.0,26.0,2.0,-2.0,0
10.0,-234.0,82.0,30.0,1.0,-3.0,0
10.0,-233.0,82.0,35.0,0.0,-3.0,0
11.0,-234.0,81.0,38.0,3.0,-5.0,0
9.0,-232.0,77.0,38.0,4.0,-10.0,0
9.0,-233.0,80.0,38.0,6.0,-9.0,0
14.0,-233.0,81.0,32.0,9.0,-11.0,0
13.0,-236.0,77.0,26.0,11.0,-9.0,0
11.0,-234.0,85.0,25.0,10.0,-12.0,0
13.0,-233.0,81.0,25.0,11.0,-13.0,0
14.0,-232.0,79.0,25.0,11.0,-14.0,0
14.0,-231.0,79.0,25.0,11.0,-13.0,0
13.0,-232.0,80.0,29.0,9.0,-13.0,0
14.0,-232.0,80.0,31.0,10.0,-11.0,0
13.0,-231.0,82.0,34.0,10.0,-10.0,0
15.0,-231.0,77.0,36.0,10.0,-8.0,0
13.0,-232.0,81.0,38.0,12.0,-7.0,0
15.0,-233.0,79.0,39.0,13.0,-5.0,0
9.0,-233.0,80.0,38.0,12.0,-3.0,0
15.0,-232.0,81.0,39.0,10.0,-3.0,0
13.0,-233.0,77.0,38.0,10.0,-3.0,0
11.0,-232.0,79.0,39.0,8.0,-3.0,0
14.0,-232.0,78.0,40.0,11.0,-4.0,0
12.0,-235.0,79.0,42.0,11.0,-4.0,0
13.0,-234.0,79.0,44.0,7.0,-6.0,0
10.0,-236.0,83.0,46.0,8.0,-7.0,0
12.0,-233.0,81.0,49.0,9.0,-7.0,0
13.0,-235.0,82.0,48.0,11.0,-7.0,0
10.0,-231.0,78.0,51.0,11.0,-7.0,0
12.0,-234.0,76.0,49.0,10.0,-6.0,0
10.0,-231.0,84.0,47.0,10.0,-7.0,0
12.0,-233.0,77.0,44.0,8.0,-6.0,0
12.0,-229.0,80.0,45.0,9.0,-8.0,0
14.0,-233.0,80.0,45.0,9.0,-8.0,0
12.0,-234.0,78.0,49.0,10.0,-12.0,0
13.0,-234.0,79.0,54.0,8.0,-11.0,0
14.0,-234.0,83.0,59.0,10.0,-13.0,0
13.0,-234.0,78.0,62.0,11.0,-13.0,0
14.0,-233.0,82.0,64.0,11.0,-15.0,0
13.0,-234.0,86.0,67.0,9.0,-14.0,0
12.0,-235.0,89.0,67.0,9.0,-14.0,0
10.0,-231.0,83.0,66.0,7.0,-14.0,0
12.0,-230.0,80.0,65.0,8.0,-13.0,0
12.0,-237.0,85.0,64.0,8.0,-11.0,0
9.0,-232.0,82.0,63.0,9.0,-11.0,0
13.0,-231.0,79.0,64.0,10.0,-12.0,0
11.0,-230.0,80.0,65.0,11.0,-12.0,0
9.0,-229.0,84.0,66.0,11.0,-11.0,0
15.0,-239.0,80.0,69.0,11.0,-10.0,0
8.0,-230.0,81.0,70.0,10.0,-11.0,0
14.0,-236.0,83.0,69.0,9.0,-10.0,0
12.0,-234.0,83.0,68.0,11.0,-9.0,0
11.0,-232.0,81.0,68.0,9.0,-9.0,0
13.0,-235.0,83.0,65.0,8.0,-9.0,0
12.0,-234.0,83.0,64.0,7.0,-9.0,0
15.0,-236.0,80.0,61.0,6.0,-9.0,0
13.0,-234.0,82.0,59.0,7.0,-10.0,0
11.0,-232.0,82.0,58.0,7.0,-9.0,0
16.0,-234.0,80.0,57.0,7.0,-9.0,0
10.0,-232.0,79.0,57.0,9.0,-11.0,0
12.0,-232.0,80.0,59.0,10.0,-12.0,0
12.0,-231.0,82.0,61.0,10.0,-12.0,0
12.0,-234.0,92.0,62.0,11.0,-13.0,0
13.0,-231.0,83.0,65.0,10.0,-12.0,0
14.0,-233.0,84.0,68.0,9.0,-13.0,0
13.0,-235.0,83.0,70.0,9.0,-14.0,0
13.0,-232.0,78.0,72.0,9.0,-11.0,0
13.0,-232.0,81.0,74.0,9.0,-12.0,0
12.0,-231.0,81.0,75.0,10.0,-9.0,0
11.0,-235.0,82.0,72.0,10.0,-12.0,0
15.0,-233.0,83.0,70.0,12.0,-10.0,0
12.0,-232.0,80.0,68.0,13.0,-8.0,0
9.0,-232.0,91.0,66.0,12.0,-8.0,0
9.0,-234.0,84.0,64.0,11.0,-7.0,0
15.0,-233.0,79.0,62.0,10.0,-8.0,0
12.0,-231.0,84.0,60.0,10.0,-7.0,0
15.0,-231.0,84.0,60.0,11.0,-8.0,0
11.0,-229.0,81.0,59.0,12.0,-10.0,0
11.0,-234.0,80.0,56.0,11.0,-12.0,0
11.0,-229.0,85.0,56.0,10.0,-12.0,0
14.0,-233.0,80.0,55.0,10.0,-11.0,0
15.0,-232.0,86.0,56.0,11.0,-8.0,0
13.0,-231.0,85.0,58.0,13.0,-9.0,0
11.0,-233.0,80.0,60.0,14.0,-9.0,0
10.0,-231.0,77.0,61.0,14.0,-9.0,0
14.0,-232.0,81.0,64.0,14.0,-9.0,0
11.0,-230.0,80.0,65.0,13.0,-6.0,0
12.0,-231.0,84.0,63.0,12.0,-5.0,0
16.0,-235.0,83.0,59.0,10.0,-3.0,0
11.0,-232.0,81.0,55.0,11.0,-3.0,0
11.0,-236.0,82.0,51.0,12.0,-3.0,0
10.0,-238.0,82.0,48.0,13.0,-3.0,0
10.0,-235.0,83.0,45.0,12.0,-6.0,0
15.0,-236.0,82.0,44.0,11.0,-9.0,0
8.0,-238.0,80.0,45.0,10.0,-10.0,0
12.0,-234.0,81.0,46.0,9.0,-12.0,0
13.0,-234.0,84.0,51.0,9.0,-10.0,0
11.0,-233.0,83.0,52.0,11.0,-11.0,0
12.0,-232.0,85.0,53.0,11.0,-13.0,0
11.0,-233.0,84.0,55.0,12.0,-11.0,0
13.0,-232.0,84.0,57.0,11.0,-14.0,0
14.0,-234.0,82.0,56.0,9.0,-15.0,0
12.0,-234.0,83.0,56.0,7.0,-15.0,0
11.0,-230.0,84.0,56.0,5.0,-16.0,0
13.0,-232.0,83.0,56.0,5.0,-17.0,0
13.0,-237.0,85.0,57.0,4.0,-17.0,0
14.0,-233.0,83.0,57.0,4.0,-18.0,0
12.0,-234.0,85.0,56.0,3.0,-17.0,0
15.0,-232.0,84.0,56.0,4.0,-17.0,0
15.0,-233.0,85.0,55.0,2.0,-17.0,0
14.0,-233.0,86.0,54.0,3.0,-17.0,0
15.0,-232.0,83.0,54.0,4.0,-17.0,0
15.0,-233.0,80.0,53.0,6.0,-14.0,0
14.0,-229.0,83.0,51.0,7.0,-16.0,0
11.0,-232.0,85.0,49.0,5.0,-17.0,0
14.0,-228.0,81.0,48.0,4.0,-16.0,0
5.0,-233.0,78.0,42.0,3.0,-16.0,0
8.0,-232.0,82.0,38.0,3.0,-16.0,0
7.0,-235.0,79.0,33.0,4.0,-14.0,0
12.0,-234.0,81.0,29.0,5.0,-14.0,0
10.0,-233.0,85.0,28.0,6.0,-13.0,0
13.0,-235.0,83.0,30.0,8.0,-13.0,0
11.0,-232.0,84.0,33.0,8.0,-14.0,0
13.0,-230.0,84.0,36.0,10.0,-15.0,0
11.0,-235.0,81.0,42.0,9.0,-14.0,0
15.0,-232.0,83.0,47.0,9.0,-16.0,0
15.0,-230.0,84.0,49.0,7.0,-15.0,0
19.0,-236.0,81.0,53.0,8.0,-16.0,0
15.0,-233.0,84.0,55.0,10.0,-13.0,0
17.0,-232.0,82.0,56.0,11.0,-10.0,0
14.0,-232.0,80.0,57.0,10.0,-10.0,0
16.0,-229.0,85.0,57.0,10.0,-11.0,0
14.0,-232.0,81.0,57.0,9.0,-10.0,0
14.0,-234.0,81.0,57.0,11.0,-12.0,0
19.0,-237.0,85.0,58.0,12.0,-10.0,0
13.0,-232.0,82.0,58.0,12.0,-9.0,0
15.0,-233.0,82.0,58.0,11.0,-12.0,0
14.0,-236.0,84.0,59.0,12.0,-13.0,0
12.0,-236.0,77.0,58.0,12.0,-12.0,0
14.0,-232.0,81.0,56.0,12.0,-12.0,0
13.0,-229.0,83.0,54.0,14.0,-11.0,0
15.0,-234.0,82.0,53.0,15.0,-9.0,0
13.0,-233.0,79.0,51.0,15.0,-9.0,0
13.0,-234.0,81.0,52.0,15.0,-9.0,0
14.0,-231.0,80.0,53.0,15.0,-8.0,0
10.0,-228.0,79.0,54.0,14.0,-7.0,0
11.0,-230.0,81.0,55.0,12.0,-7.0,0
13.0,-235.0,83.0,57.0,10.0,-8.0,0
16.0,-235.0,82.0,59.0,10.0,-8.0,0
16.0,-229.0,82.0,59.0,9.0,-9.0,0
11.0,-232.0,85.0,55.0,10.0,-10.0,0
16.0,-233.0,83.0,51.0,11.0,-12.0,0
14.0,-235.0,83.0,48.0,9.0,-11.0,0
12.0,-234.0,83.0,45.0,9.0,-11.0,0
15.0,-233.0,81.0,43.0,9.0,-11.0,0
13.0,-234.0,86.0,42.0,9.0,-14.0,0
14.0,-237.0,83.0,43.0,10.0,-12.0,0
13.0,-235.0,85.0,46.0,10.0,-12.0,0
11.0,-234.0,86.0,50.0,10.0,-12.0,0
12.0,-236.0,81.0,54.0,10.0,-11.0,0
15.0,-235.0,73.0,57.0,10.0,-12.0,0
13.0,-233.0,82.0,57.0,10.0,-11.0,0
10.0,-232.0,80.0,57.0,11.0,-9.0,0
11.0,-234.0,84.0,56.0,9.0,-10.0,0
14.0,-233.0,83.0,55.0,10.0,-10.0,0
13.0,-231.0,83.0,50.0,9.0,-11.0,0
10.0,-230.0,84.0,50.0,10.0,-8.0,0
16.0,-235.0,83.0,47.0,10.0,-9.0,0
16.0,-239.0,84.0,48.0,12.0,-9.0,0
10.0,-232.0,78.0,48.0,13.0,-8.0,0
16.0,-235.0,82.0,48.0,12.0,-8.0,0
13.0,-237.0,77.0,49.0,11.0,-9.0,0
13.0,-233.0,81.0,54.0,12.0,-10.0,0
13.0,-231.0,82.0,55.0,11.0,-9.0,0
12.0,-230.0,82.0,58.0,12.0,-8.0,0
13.0,-235.0,84.0,57.0,12.0,-6.0,0
12.0,-230.0,86.0,56.0,12.0,-8.0,0
15.0,-234.0,84.0,55.0,11.0,-7.0,0
12.0,-232.0,81.0,52.0,10.0,-9.0,0
16.0,-239.0,80.0,53.0,11.0,-10.0,0
11.0,-230.0,85.0,51.0,10.0,-10.0,0
12.0,-231.0,80.0,49.0,11.0,-11.0,0
12.0,-231.0,90.0,51.0,10.0,-10.0,0
13.0,-236.0,78.0,50.0,10.0,-9.0,0
13.0,-232.0,81.0,47.0,11.0,-9.0,0
11.0,-229.0,83.0,43.0,12.0,-9.0,0
14.0,-236.0,82.0,41.0,11.0,-8.0,0
14.0,-231.0,79.0,36.0,11.0,-8.0,0
14.0,-233.0,80.0,34.0,11.0,-6.0,0
14.0,-230.0,80.0,33.0,12.0,-7.0,0
15.0,-236.0,81.0,33.0,11.0,-6.0,0
17.0,-233.0,77.0,35.0,11.0,-8.0,0
10.0,-236.0,79.0,38.0,10.0,-9.0,0
13.0,-235.0,83.0,44.0,9.0,-8.0,0
13.0,-234.0,80.0,48.0,10.0,-7.0,0
13.0,-233.0,83.0,54.0,9.0,-7.0,0
15.0,-237.0,83.0,57.0,9.0,-8.0,0
14.0,-232.0,84.0,60.0,10.0,-10.0,0
13.0,-231.0,85.0,60.0,10.0,-10.0,0
12.0,-235.0,83.0,60.0,10.0,-11.0,0
16.0,-232.0,85.0,59.0,11.0,-12.0,0
11.0,-229.0,81.0,61.0,12.0,-12.0,0
14.0,-234.0,82.0,62.0,12.0,-12.0,0
15.0,-238.0,81.0,63.0,12.0,-12.0,0
15.0,-234.0,82.0,63.0,14.0,-12.0,0
12.0,-234.0,83.0,63.0,13.0,-14.0,0
12.0,-232.0,84.0,61.0,13.0,-15.0,0
10.0,-232.0,84.0,59.0,11.0,-13.0,0
13.0,-232.0,77.0,58.0,13.0,-13.0,0
12.0,-232.0,79.0,57.0,15.0,-11.0,0
13.0,-231.0,81.0,57.0,15.0,-11.0,0
15.0,-232.0,82.0,57.0,16.0,-10.0,0
10.0,-230.0,81.0,56.0,18.0,-11.0,0
11.0,-231.0,83.0,56.0,16.0,-11.0,0
14.0,-233.0,84.0,56.0,14.0,-11.0,0
12.0,-231.0,83.0,56.0,13.0,-11.0,0
10.0,-232.0,82.0,57.0,12.0,-10.0,0
14.0,-233.0,80.0,55.0,12.0,-9.0,0
14.0,-234.0,77.0,53.0,12.0,-9.0,0
14.0,-234.0,79.0,49.0,14.0,-7.0,0
11.0,-232.0,83.0,47.0,15.0,-6.0,0
10.0,-229.0,80.0,44.0,15.0,-4.0,0
15.0,-233.0,87.0,43.0,15.0,-4.0,0
8.0,-234.0,81.0,44.0,15.0,-5.0,0
10.0,-233.0,77.0,45.0,15.0,-6.0,0
13.0,-234.0,82.0,44.0,16.0,-7.0,0
14.0,-235.0,85.0,49.0,15.0,-9.0,0
15.0,-236.0,83.0,50.0,13.0,-12.0,0
9.0,-235.0,84.0,52.0,11.0,-14.0,0
14.0,-231.0,84.0,56.0,12.0,-16.0,0
14.0,-234.0,85.0,57.0,13.0,-17.0,0
13.0,-231.0,85.0,57.0,14.0,-16.0,0
