ax,ay,az,gx,gy,gz,label
15.0,-267.0,15.0,-14.0,60.0,-3.0,0
16.0,-269.0,14.0,-13.0,59.0,-5.0,0
16.0,-269.0,17.0,-14.0,58.0,-3.0,0
16.0,-270.0,15.0,-13.0,58.0,-5.0,0
14.0,-266.0,14.0,-12.0,59.0,-4.0,0
21.0,-288.0,16.0,-13.0,60.0,-4.0,0
13.0,-268.0,12.0,-11.0,59.0,-1.0,0
15.0,-268.0,14.0,-10.0,59.0,-4.0,0
13.0,-269.0,18.0,-12.0,59.0,-2.0,0
16.0,-268.0,19.0,-10.0,60.0,-4.0,0
13.0,-269.0,15.0,-10.0,60.0,-1.0,0
15.0,-268.0,13.0,-9.0,59.0,-3.0,0
15.0,-268.0,16.0,-9.0,59.0,0.0,0
16.0,-267.0,18.0,-11.0,58.0,-2.0,0
13.0,-268.0,13.0,-10.0,59.0,1.0,0
15.0,-268.0,12.0,-9.0,57.0,-1.0,0
14.0,-266.0,18.0,-9.0,57.0,1.0,0
16.0,-270.0,16.0,-8.0,58.0,-2.0,0
13.0,-268.0,15.0,-11.0,57.0,1.0,0
15.0,-267.0,15.0,-13.0,56.0,-1.0,0
14.0,-266.0,13.0,-13.0,59.0,0.0,0
14.0,-267.0,15.0,-14.0,58.0,-3.0,0
13.0,-264.0,23.0,-13.0,58.0,-2.0,0
18.0,-263.0,20.0,-12.0,59.0,-3.0,0
6.0,-269.0,8.0,-12.0,58.0,-1.0,0
18.0,-273.0,13.0,-14.0,59.0,-3.0,0
13.0,-275.0,23.0,-13.0,60.0,0.0,0
14.0,-263.0,14.0,-13.0,59.0,-2.0,0
7.0,-269.0,12.0,-13.0,59.0,0.0,0
18.0,-266.0,19.0,-14.0,59.0,-1.0,0
10.0,-275.0,13.0,-15.0,58.0,0.0,0
15.0,-270.0,11.0,-15.0,58.0,-3.0,0
9.0,-267.0,14.0,-16.0,58.0,-2.0,0
10.0,-273.0,12.0,-17.0,59.0,-3.0,0
15.0,-266.0,20.0,-15.0,59.0,0.0,0
18.0,-266.0,18.0,-14.0,59.0,-2.0,0
23.0,-264.0,19.0,-12.0,58.0,0.0,0
20.0,-273.0,13.0,-11.0,57.0,-2.0,0
8.0,-272.0,11.0,-11.0,56.0,1.0,0
24.0,-271.0,29.0,-10.0,56.0,0.0,0
12.0,-268.0,15.0,-12.0,57.0,2.0,0
17.0,-269.0,15.0,-13.0,59.0,-3.0,0
14.0,-267.0,16.0,-13.0,60.0,-1.0,0
16.0,-268.0,16.0,-15.0,62.0,-3.0,0
15.0,-268.0,15.0,-14.0,65.0,-2.0,0
15.0,-270.0,15.0,-13.0,66.0,-3.0,0
13.0,-269.0,16.0,-15.0,66.0,-1.0,0
13.0,-269.0,18.0,-14.0,65.0,-2.0,0
16.0,-268.0,13.0,-15.0,64.0,0.0,0
19.0,-262.0,13.0,-17.0,61.0,-1.0,0
15.0,-268.0,17.0,-17.0,58.0,2.0,0
15.0,-269.0,17.0,-16.0,56.0,-1.0,0
13.0,-269.0,13.0,-12.0,55.0,2.0,0
14.0,-270.0,13.0,-8.0,54.0,-1.0,0
14.0,-276.0,16.0,-5.0,54.0,0.0,0
13.0,-268.0,12.0,-5.0,56.0,-1.0,0
16.0,-270.0,10.0,-7.0,57.0,0.0,0
14.0,-268.0,14.0,-5.0,58.0,-3.0,0
15.0,-267.0,17.0,-5.0,62.0,-1.0,0
14.0,-267.0,15.0,1.0,66.0,-5.0,0
17.0,-265.0,13.0,6.0,67.0,-2.0,0
15.0,-267.0,15.0,6.0,68.0,-5.0,0
18.0,-270.0,15.0,6.0,69.0,-3.0,0
16.0,-265.0,15.0,4.0,71.0,-5.0,0
17.0,-264.0,16.0,0.0,69.0,-2.0,0
15.0,-272.0,18.0,-4.0,68.0,-5.0,0
14.0,-268.0,16.0,-6.0,65.0,-2.0,0
16.0,-270.0,15.0,-6.0,64.0,-4.0,0
15.0,-269.0,17.0,-6.0,60.0,-2.0,0
13.0,-270.0,12.0,-5.0,59.0,-5.0,0
14.0,-267.0,13.0,-4.0,56.0,-2.0,0
14.0,-267.0,18.0,-5.0,54.0,-4.0,0
13.0,-267.0,15.0,-6.0,52.0,-2.0,0
15.0,-270.0,18.0,-7.0,53.0,-5.0,0
15.0,-270.0,17.0,-7.0,54.0,-3.0,0
11.0,-267.0,17.0,-8.0,54.0,-4.0,0
14.0,-268.0,14.0,-8.0,56.0,-2.0,0
15.0,-268.0,18.0,-6.0,57.0,-6.0,0
11.0,-267.0,14.0,-8.0,60.0,-3.0,0
16.0,-267.0,18.0,-7.0,61.0,-6.0,0
13.0,-268.0,16.0,-8.0,60.0,-4.0,0
18.0,-271.0,17.0,-8.0,60.0,-6.0,0
12.0,-268.0,19.0,-9.0,59.0,-4.0,0
17.0,-269.0,17.0,-10.0,59.0,-5.0,0
13.0,-268.0,19.0,-9.0,60.0,-4.0,0
18.0,-269.0,17.0,-12.0,59.0,-7.0,0
13.0,-268.0,18.0,-11.0,58.0,-4.0,0
13.0,-267.0,16.0,-11.0,58.0,-6.0,0
15.0,-268.0,17.0,-12.0,57.0,-4.0,0
18.0,-268.0,15.0,-11.0,57.0,-6.0,0
15.0,-269.0,17.0,-12.0,54.0,-3.0,0
13.0,-266.0,14.0,-11.0,54.0,-6.0,0
15.0,-267.0,11.0,-13.0,54.0,-4.0,0
17.0,-269.0,16.0,-15.0,52.0,-5.0,0
13.0,-264.0,20.0,-14.0,51.0,-3.0,0
17.0,-270.0,14.0,-13.0,53.0,-6.0,0
15.0,-268.0,17.0,-13.0,55.0,-3.0,0
14.0,-270.0,14.0,-13.0,56.0,-6.0,0
13.0,-266.0,17.0,-14.0,54.0,-5.0,0
13.0,-268.0,16.0,-15.0,56.0,-7.0,0
13.0,-269.0,18.0,-13.0,55.0,-6.0,0
16.0,-268.0,17.0,-14.0,56.0,-7.0,0
14.0,-265.0,17.0,-12.0,57.0,-5.0,0
11.0,-265.0,16.0,-12.0,57.0,-8.0,0
12.0,-266.0,13.0,-12.0,57.0,-7.0,0
14.0,-269.0,17.0,-11.0,58.0,-7.0,0
15.0,-269.0,16.0,-9.0,59.0,-6.0,0
15.0,-268.0,15.0,-7.0,58.0,-7.0,0
17.0,-270.0,17.0,-8.0,58.0,-7.0,0
17.0,-269.0,16.0,-7.0,57.0,-7.0,0
15.0,-267.0,16.0,-10.0,58.0,-6.0,0
14.0,-268.0,14.0,-11.0,58.0,-7.0,0
14.0,-267.0,16.0,-12.0,58.0,-5.0,0
16.0,-267.0,16.0,-12.0,58.0,-5.0,0
16.0,-268.0,14.0,-12.0,57.0,-5.0,0
15.0,-267.0,14.0,-13.0,57.0,-5.0,0
16.0,-270.0,12.0,-13.0,57.0,-4.0,0
15.0,-266.0,18.0,-13.0,57.0,-6.0,0
15.0,-268.0,19.0,-14.0,56.0,-4.0,0
14.0,-265.0,17.0,-16.0,59.0,-5.0,0
14.0,-267.0,12.0,-17.0,58.0,-4.0,0
15.0,-265.0,18.0,-17.0,57.0,-6.0,0
15.0,-267.0,15.0,-17.0,57.0,-4.0,0
15.0,-266.0,15.0,-16.0,57.0,-5.0,0
16.0,-270.0,13.0,-15.0,56.0,-5.0,0
17.0,-269.0,14.0,-13.0,58.0,-5.0,0
16.0,-269.0,15.0,-14.0,59.0,-5.0,0
15.0,-268.0,20.0,-13.0,60.0,-5.0,0
16.0,-267.0,15.0,-12.0,60.0,-5.0,0
14.0,-268.0,17.0,-13.0,59.0,-5.0,0
16.0,-266.0,16.0,-12.0,60.0,-4.0,0
13.0,-268.0,16.0,-13.0,60.0,-6.0,0
13.0,-269.0,14.0,-13.0,59.0,-4.0,0
17.0,-267.0,15.0,-14.0,59.0,-3.0,0
16.0,-267.0,19.0,-14.0,60.0,-2.0,0
16.0,-272.0,13.0,-15.0,60.0,-3.0,0
16.0,-268.0,16.0,-14.0,58.0,-3.0,0
17.0,-266.0,16.0,-15.0,58.0,-3.0,0
18.0,-268.0,16.0,-15.0,59.0,-2.0,0
16.0,-267.0,17.0,-15.0,60.0,-3.0,0
14.0,-266.0,15.0,-13.0,58.0,-2.0,0
17.0,-269.0,18.0,-13.0,57.0,-3.0,0
14.0,-268.0,20.0,-13.0,58.0,-2.0,0
15.0,-266.0,15.0,-12.0,59.0,-3.0,0
16.0,-267.0,17.0,-11.0,61.0,-3.0,0
14.0,-267.0,11.0,-13.0,61.0,-3.0,0
16.0,-270.0,16.0,-14.0,60.0,-3.0,0
15.0,-267.0,19.0,-14.0,61.0,-3.0,0
14.0,-266.0,16.0,-14.0,60.0,-3.0,0
17.0,-268.0,17.0,-15.0,60.0,-3.0,0
12.0,-269.0,19.0,-15.0,61.0,-2.0,0
15.0,-268.0,16.0,-15.0,60.0,-2.0,0
13.0,-267.0,16.0,-15.0,58.0,-3.0,0
11.0,-268.0,16.0,-14.0,58.0,-2.0,0
16.0,-271.0,18.0,-13.0,58.0,-1.0,0
17.0,-270.0,16.0,-13.0,57.0,-1.0,0
16.0,-271.0,14.0,-14.0,58.0,-1.0,0
17.0,-268.0,16.0,-14.0,60.0,-1.0,0
13.0,-268.0,16.0,-14.0,60.0,-1.0,0
14.0,-270.0,14.0,-14.0,60.0,-2.0,0
14.0,-267.0,15.0,-15.0,61.0,-1.0,0
18.0,-269.0,11.0,-14.0,61.0,-2.0,0
15.0,-266.0,16.0,-14.0,60.0,-2.0,0
15.0,-270.0,12.0,-14.0,59.0,0.0,0
16.0,-266.0,19.0,-13.0,59.0,-2.0,0
16.0,-269.0,18.0,-12.0,58.0,-1.0,0
13.0,-266.0,16.0,-10.0,59.0,0.0,0
16.0,-266.0,14.0,-10.0,59.0,2.0,0
18.0,-269.0,17.0,-11.0,57.0,2.0,0
17.0,-269.0,16.0,-11.0,57.0,1.0,0
15.0,-266.0,15.0,-12.0,56.0,0.0,0
16.0,-267.0,13.0,-12.0,55.0,2.0,0
15.0,-268.0,16.0,-15.0,56.0,-1.0,0
15.0,-270.0,17.0,-16.0,59.0,0.0,0
13.0,-269.0,16.0,-17.0,60.0,-1.0,0
17.0,-268.0,15.0,-17.0,61.0,-2.0,0
14.0,-268.0,16.0,-17.0,63.0,-2.0,0
16.0,-266.0,17.0,-18.0,63.0,-1.0,0
10.0,-267.0,12.0,-19.0,63.0,-2.0,0
15.0,-266.0,18.0,-19.0,62.0,-2.0,0
15.0,-267.0,19.0,-19.0,61.0,-1.0,0
14.0,-267.0,16.0,-19.0,60.0,1.0,0
14.0,-269.0,18.0,-19.0,59.0,1.0,0
13.0,-269.0,19.0,-17.0,59.0,2.0,0
15.0,-267.0,14.0,-15.0,59.0,1.0,0
15.0,-268.0,11.0,-16.0,58.0,3.0,0
16.0,-268.0,13.0,-18.0,56.0,2.0,0
18.0,-269.0,13.0,-19.0,55.0,4.0,0
16.0,-269.0,12.0,-17.0,57.0,3.0,0
16.0,-268.0,15.0,-12.0,58.0,3.0,0
16.0,-268.0,15.0,-5.0,60.0,3.0,0
15.0,-265.0,15.0,-4.0,60.0,2.0,0
12.0,-263.0,15.0,-5.0,62.0,1.0,0
14.0,-268.0,18.0,-8.0,63.0,2.0,0
13.0,-265.0,17.0,-13.0,64.0,-1.0,0
14.0,-267.0,19.0,-15.0,62.0,0.0,0
14.0,-269.0,14.0,-18.0,62.0,-1.0,0
16.0,-266.0,18.0,-18.0,61.0,1.0,0
14.0,-266.0,16.0,-18.0,60.0,0.0,0
16.0,-267.0,17.0,-17.0,57.0,2.0,0
15.0,-268.0,17.0,-17.0,56.0,0.0,0
15.0,-267.0,13.0,-16.0,56.0,3.0,0
16.0,-266.0,16.0,-16.0,56.0,0.0,0
16.0,-267.0,21.0,-16.0,57.0,2.0,0
15.0,-269.0,14.0,-15.0,56.0,0.0,0
15.0,-267.0,19.0,-15.0,55.0,3.0,0
16.0,-265.0,15.0,-14.0,55.0,1.0,0
12.0,-268.0,21.0,-14.0,55.0,2.0,0
16.0,-269.0,20.0,-14.0,57.0,0.0,0
14.0,-266.0,15.0,-16.0,57.0,2.0,0
17.0,-270.0,19.0,-17.0,58.0,0.0,0
16.0,-266.0,18.0,-18.0,58.0,2.0,0
15.0,-270.0,17.0,-19.0,57.0,0.0,0
16.0,-268.0,20.0,-18.0,58.0,2.0,0
14.0,-267.0,15.0,-19.0,59.0,-1.0,0
17.0,-266.0,13.0,-19.0,59.0,1.0,0
15.0,-269.0,13.0,-18.0,58.0,1.0,0
15.0,-267.0,17.0,-18.0,59.0,2.0,0
16.0,-267.0,18.0,-18.0,58.0,0.0,0
15.0,-267.0,16.0,-17.0,57.0,2.0,0
16.0,-269.0,16.0,-17.0,57.0,1.0,0
14.0,-269.0,17.0,-16.0,56.0,3.0,0
13.0,-267.0,14.0,-17.0,56.0,1.0,0
11.0,-266.0,14.0,-15.0,57.0,2.0,0
17.0,-270.0,17.0,-16.0,57.0,0.0,0
15.0,-268.0,19.0,-17.0,56.0,2.0,0
15.0,-269.0,14.0,-17.0,57.0,-1.0,0
17.0,-268.0,18.0,-16.0,56.0,2.0,0
16.0,-269.0,13.0,-17.0,56.0,-1.0,0
15.0,-267.0,16.0,-18.0,57.0,0.0,0
11.0,-265.0,13.0,-17.0,57.0,-3.0,0
16.0,-269.0,14.0,-17.0,57.0,0.0,0
16.0,-268.0,14.0,-18.0,58.0,-2.0,0
16.0,-269.0,16.0,-17.0,58.0,1.0,0
14.0,-270.0,14.0,-16.0,58.0,-3.0,0
14.0,-271.0,17.0,-15.0,58.0,0.0,0
14.0,-269.0,19.0,-15.0,58.0,-2.0,0
15.0,-266.0,15.0,-15.0,58.0,1.0,0
16.0,-269.0,14.0,-13.0,59.0,-4.0,0
14.0,-271.0,16.0,-14.0,59.0,-1.0,0
14.0,-267.0,12.0,-14.0,60.0,-4.0,0
16.0,-266.0,21.0,-14.0,60.0,0.0,0
16.0,-269.0,18.0,-15.0,58.0,-4.0,0
15.0,-270.0,11.0,-15.0,59.0,-2.0,0
13.0,-268.0,16.0,-14.0,59.0,-4.0,0
14.0,-266.0,14.0,-13.0,56.0,-2.0,0
15.0,-270.0,17.0,-13.0,57.0,-4.0,0
16.0,-269.0,17.0,-15.0,56.0,-2.0,0
14.0,-268.0,16.0,-16.0,55.0,-5.0,0
13.0,-267.0,15.0,-16.0,56.0,-3.0,0
11.0,-266.0,15.0,-17.0,56.0,-6.0,0
16.0,-269.0,18.0,-18.0,57.0,-4.0,0
16.0,-267.0,14.0,-17.0,58.0,-6.0,0
16.0,-267.0,17.0,-19.0,58.0,-4.0,0
13.0,-268.0,18.0,-19.0,58.0,-7.0,0
11.0,-266.0,16.0,-19.0,59.0,-4.0,0
16.0,-265.0,14.0,-19.0,60.0,-6.0,0
15.0,-269.0,19.0,-18.0,60.0,-6.0,0
14.0,-269.0,15.0,-18.0,60.0,-8.0,0
14.0,-267.0,17.0,-18.0,61.0,-6.0,0
16.0,-269.0,12.0,-20.0,61.0,-9.0,0
16.0,-269.0,13.0,-22.0,61.0,-6.0,0
16.0,-268.0,22.0,-21.0,61.0,-9.0,0
14.0,-268.0,20.0,-23.0,60.0,-7.0,0
17.0,-269.0,18.0,-24.0,61.0,-8.0,0
14.0,-268.0,16.0,-25.0,60.0,-7.0,0
13.0,-269.0,16.0,-23.0,58.0,-10.0,0
14.0,-265.0,17.0,-25.0,59.0,-7.0,0
13.0,-267.0,15.0,-25.0,57.0,-9.0,0
15.0,-268.0,15.0,-25.0,57.0,-6.0,0
14.0,-268.0,12.0,-27.0,58.0,-9.0,0
16.0,-269.0,16.0,-26.0,58.0,-7.0,0
14.0,-267.0,17.0,-27.0,57.0,-9.0,0
17.0,-266.0,16.0,-27.0,56.0,-8.0,0
14.0,-268.0,13.0,-26.0,57.0,-10.0,0
12.0,-266.0,14.0,-27.0,56.0,-8.0,0
15.0,-266.0,16.0,-26.0,57.0,-9.0,0
18.0,-268.0,14.0,-28.0,56.0,-7.0,0
17.0,-268.0,17.0,-26.0,56.0,-9.0,0
14.0,-268.0,19.0,-27.0,56.0,-8.0,0
15.0,-268.0,16.0,-29.0,56.0,-9.0,0
16.0,-269.0,16.0,-29.0,57.0,-7.0,0
15.0,-269.0,18.0,-30.0,56.0,-10.0,0
16.0,-272.0,15.0,-30.0,57.0,-8.0,0
16.0,-270.0,15.0,-31.0,57.0,-9.0,0
17.0,-270.0,16.0,-33.0,57.0,-6.0,0
17.0,-267.0,16.0,-35.0,58.0,-7.0,0
15.0,-265.0,19.0,-37.0,56.0,-5.0,0
16.0,-268.0,17.0,-37.0,55.0,-6.0,0
16.0,-267.0,13.0,-37.0,57.0,-5.0,0
15.0,-267.0,19.0,-36.0,56.0,-6.0,0
16.0,-267.0,18.0,-37.0,55.0,-5.0,0
17.0,-267.0,16.0,-38.0,55.0,-5.0,0
16.0,-269.0,16.0,-37.0,54.0,-4.0,0
15.0,-269.0,15.0,-37.0,54.0,-7.0,0
17.0,-267.0,15.0,-37.0,53.0,-4.0,0
15.0,-267.0,13.0,-38.0,53.0,-5.0,0
15.0,-267.0,15.0,-36.0,53.0,-4.0,0
14.0,-268.0,13.0,-35.0,53.0,-5.0,0
18.0,-270.0,13.0,-35.0,53.0,-5.0,0
17.0,-268.0,15.0,-37.0,53.0,-5.0,0
16.0,-268.0,13.0,-35.0,52.0,-2.0,0
15.0,-269.0,15.0,-37.0,51.0,-3.0,0
16.0,-270.0,12.0,-40.0,51.0,-3.0,0
15.0,-267.0,15.0,-42.0,52.0,-2.0,0
18.0,-271.0,13.0,-40.0,51.0,-3.0,0
17.0,-266.0,14.0,-40.0,53.0,-4.0,0
16.0,-271.0,13.0,-38.0,54.0,-4.0,0
17.0,-271.0,11.0,-36.0,53.0,-6.0,0
14.0,-267.0,14.0,-38.0,54.0,-4.0,0
15.0,-266.0,16.0,-38.0,53.0,-6.0,0
13.0,-268.0,16.0,-38.0,53.0,-6.0,0
17.0,-268.0,16.0,-37.0,55.0,-5.0,0
16.0,-267.0,15.0,-36.0,54.0,-6.0,0
17.0,-274.0,12.0,-33.0,55.0,-4.0,0
16.0,-269.0,15.0,-30.0,56.0,-4.0,0
16.0,-269.0,16.0,-29.0,54.0,-3.0,0
15.0,-269.0,12.0,-29.0,52.0,-3.0,0
17.0,-272.0,11.0,-29.0,53.0,-2.0,0
16.0,-271.0,14.0,-26.0,55.0,-1.0,0
16.0,-271.0,13.0,-22.0,56.0,-1.0,0
16.0,-270.0,11.0,-15.0,58.0,-1.0,0
14.0,-269.0,14.0,-11.0,59.0,-1.0,0
16.0,-267.0,12.0,-9.0,59.0,-2.0,0
19.0,-267.0,14.0,-9.0,60.0,-2.0,0
15.0,-266.0,10.0,-11.0,60.0,-2.0,0
15.0,-267.0,11.0,-14.0,61.0,-4.0,0
13.0,-266.0,14.0,-16.0,59.0,-4.0,0
16.0,-269.0,10.0,-16.0,59.0,-4.0,0
16.0,-269.0,15.0,-14.0,59.0,-4.0,0
15.0,-271.0,17.0,-11.0,57.0,-3.0,0
17.0,-269.0,17.0,-7.0,57.0,-5.0,0
13.0,-268.0,12.0,-3.0,56.0,-4.0,0
17.0,-272.0,11.0,-3.0,57.0,-5.0,0
16.0,-272.0,16.0,-4.0,57.0,-4.0,0
15.0,-268.0,11.0,-3.0,57.0,-5.0,0
15.0,-270.0,17.0,-3.0,57.0,-4.0,0
16.0,-270.0,15.0,-4.0,56.0,-5.0,0
17.0,-268.0,14.0,-3.0,57.0,-5.0,0
14.0,-271.0,17.0,-1.0,57.0,-5.0,0
16.0,-271.0,18.0,-2.0,57.0,-4.0,0
14.0,-269.0,14.0,-2.0,56.0,-6.0,0
14.0,-271.0,15.0,-4.0,58.0,-5.0,0
13.0,-265.0,10.0,-6.0,59.0,-7.0,0
19.0,-271.0,11.0,-6.0,59.0,-7.0,0
14.0,-266.0,15.0,-7.0,58.0,-7.0,0
14.0,-268.0,10.0,-7.0,59.0,-6.0,0
16.0,-268.0,15.0,-8.0,57.0,-7.0,0
14.0,-268.0,15.0,-8.0,57.0,-7.0,0
17.0,-269.0,17.0,-7.0,56.0,-7.0,0
16.0,-270.0,12.0,-9.0,57.0,-6.0,0
17.0,-269.0,12.0,-10.0,56.0,-7.0,0
15.0,-267.0,14.0,-11.0,55.0,-6.0,0
15.0,-268.0,13.0,-13.0,55.0,-8.0,0
14.0,-267.0,12.0,-13.0,54.0,-6.0,0
17.0,-267.0,13.0,-13.0,56.0,-7.0,0
18.0,-264.0,14.0,-13.0,56.0,-7.0,0
18.0,-266.0,18.0,-13.0,56.0,-8.0,0
15.0,-267.0,12.0,-14.0,56.0,-6.0,0
19.0,-269.0,12.0,-17.0,57.0,-8.0,0
16.0,-267.0,13.0,-18.0,58.0,-6.0,0
15.0,-269.0,14.0,-17.0,58.0,-7.0,0
14.0,-267.0,14.0,-21.0,57.0,-6.0,0
15.0,-266.0,17.0,-21.0,59.0,-9.0,0
16.0,-268.0,12.0,-20.0,58.0,-6.0,0
15.0,-270.0,15.0,-22.0,58.0,-7.0,0
15.0,-265.0,13.0,-23.0,59.0,-6.0,0
15.0,-267.0,15.0,-24.0,58.0,-9.0,0
16.0,-266.0,18.0,-26.0,58.0,-7.0,0
16.0,-271.0,14.0,-28.0,57.0,-9.0,0
15.0,-267.0,12.0,-31.0,57.0,-8.0,0
12.0,-267.0,13.0,-31.0,58.0,-11.0,0
14.0,-268.0,15.0,-33.0,58.0,-9.0,0
15.0,-268.0,12.0,-32.0,59.0,-10.0,0
16.0,-247.0,15.0,-36.0,60.0,-8.0,0
14.0,-267.0,16.0,-39.0,59.0,-10.0,0
13.0,-267.0,12.0,-42.0,59.0,-10.0,0
15.0,-265.0,15.0,-42.0,60.0,-12.0,0
18.0,-270.0,16.0,-45.0,59.0,-11.0,0
15.0,-269.0,14.0,-47.0,59.0,-14.0,0
15.0,-268.0,14.0,-49.0,59.0,-12.0,0
18.0,-270.0,16.0,-50.0,59.0,-14.0,0
13.0,-266.0,13.0,-50.0,59.0,-13.0,0
15.0,-266.0,16.0,-50.0,57.0,-13.0,0
15.0,-273.0,16.0,-49.0,57.0,-10.0,0
18.0,-268.0,13.0,-47.0,57.0,-12.0,0
15.0,-268.0,16.0,-46.0,54.0,-10.0,0
17.0,-270.0,14.0,-42.0,53.0,-12.0,0
17.0,-268.0,11.0,-40.0,52.0,-9.0,0
15.0,-268.0,12.0,-36.0,53.0,-12.0,0
20.0,-272.0,15.0,-33.0,53.0,-9.0,0
17.0,-272.0,12.0,-31.0,54.0,-11.0,0
16.0,-266.0,12.0,-28.0,56.0,-8.0,0
17.0,-268.0,16.0,-26.0,56.0,-9.0,0
18.0,-269.0,15.0,-23.0,56.0,-8.0,0
18.0,-269.0,11.0,-21.0,57.0,-11.0,0
17.0,-267.0,14.0,-19.0,56.0,-7.0,0
16.0,-267.0,15.0,-15.0,56.0,-8.0,0
18.0,-270.0,12.0,-16.0,54.0,-4.0,0
16.0,-270.0,11.0,-16.0,53.0,-7.0,0
17.0,-271.0,11.0,-17.0,53.0,-5.0,0
17.0,-270.0,12.0,-17.0,53.0,-7.0,0
17.0,-269.0,10.0,-18.0,51.0,-4.0,0
18.0,-269.0,11.0,-16.0,51.0,-7.0,0
17.0,-270.0,11.0,-16.0,54.0,-5.0,0
18.0,-267.0,12.0,-15.0,54.0,-8.0,0
18.0,-271.0,10.0,-17.0,56.0,-6.0,0
16.0,-267.0,13.0,-18.0,57.0,-8.0,0
18.0,-267.0,16.0,-17.0,57.0,-7.0,0
18.0,-268.0,15.0,-19.0,57.0,-8.0,0
15.0,-268.0,12.0,-18.0,57.0,-3.0,0
14.0,-266.0,15.0,-19.0,54.0,-5.0,0
17.0,-271.0,14.0,-20.0,56.0,-2.0,0
16.0,-266.0,13.0,-19.0,56.0,-4.0,0
13.0,-267.0,10.0,-20.0,58.0,-1.0,0
18.0,-270.0,16.0,-21.0,59.0,-5.0,0
17.0,-266.0,15.0,-20.0,60.0,-2.0,0
15.0,-268.0,16.0,-21.0,61.0,-4.0,0
16.0,-267.0,14.0,-21.0,61.0,-2.0,0
16.0,-267.0,12.0,-22.0,61.0,-5.0,0
17.0,-266.0,13.0,-24.0,62.0,-2.0,0
13.0,-268.0,15.0,-24.0,62.0,-4.0,0
15.0,-267.0,18.0,-25.0,61.0,-1.0,0
17.0,-268.0,11.0,-28.0,62.0,-5.0,0
16.0,-267.0,12.0,-32.0,61.0,-2.0,0
18.0,-268.0,14.0,-32.0,60.0,-5.0,0
18.0,-271.0,13.0,-33.0,59.0,-2.0,0
15.0,-270.0,14.0,-33.0,60.0,-5.0,0
14.0,-268.0,12.0,-33.0,61.0,-4.0,0
17.0,-267.0,14.0,-32.0,62.0,-6.0,0
18.0,-267.0,15.0,-33.0,63.0,-4.0,0
15.0,-268.0,13.0,-34.0,63.0,-7.0,0
16.0,-268.0,9.0,-34.0,60.0,-4.0,0
16.0,-269.0,12.0,-32.0,59.0,-8.0,0
14.0,-267.0,17.0,-30.0,58.0,-6.0,0
17.0,-266.0,13.0,-27.0,55.0,-8.0,0
17.0,-271.0,16.0,-27.0,54.0,-6.0,0
15.0,-267.0,10.0,-25.0,54.0,-7.0,0
16.0,-271.0,14.0,-25.0,53.0,-6.0,0
14.0,-266.0,14.0,-24.0,52.0,-8.0,0
15.0,-269.0,13.0,-20.0,53.0,-5.0,0
14.0,-267.0,8.0,-16.0,54.0,-8.0,0
15.0,-268.0,10.0,-15.0,55.0,-4.0,0
13.0,-267.0,8.0,-14.0,55.0,-7.0,0
16.0,-270.0,13.0,-14.0,55.0,-4.0,0
18.0,-272.0,10.0,-11.0,56.0,-7.0,0
15.0,-270.0,13.0,-8.0,56.0,-7.0,0
16.0,-268.0,15.0,-4.0,57.0,-8.0,0
17.0,-269.0,13.0,3.0,57.0,-7.0,0
13.0,-267.0,12.0,7.0,58.0,-9.0,0
15.0,-269.0,12.0,9.0,60.0,-9.0,0
17.0,-270.0,12.0,8.0,61.0,-11.0,0
14.0,-266.0,17.0,6.0,60.0,-10.0,0
15.0,-267.0,14.0,3.0,59.0,-11.0,0
16.0,-269.0,14.0,3.0,57.0,-9.0,0
13.0,-266.0,15.0,5.0,56.0,-11.0,0
16.0,-267.0,13.0,6.0,56.0,-11.0,0
18.0,-272.0,13.0,9.0,56.0,-11.0,0
17.0,-267.0,9.0,10.0,54.0,-10.0,0
15.0,-269.0,12.0,9.0,52.0,-9.0,0
16.0,-267.0,17.0,8.0,51.0,-7.0,0
18.0,-269.0,12.0,9.0,48.0,-8.0,0
15.0,-267.0,12.0,8.0,46.0,-6.0,0
18.0,-267.0,10.0,8.0,47.0,-6.0,0
17.0,-266.0,10.0,9.0,48.0,-6.0,0
16.0,-270.0,10.0,10.0,51.0,-6.0,0
16.0,-268.0,11.0,9.0,54.0,-6.0,0
16.0,-270.0,12.0,8.0,54.0,-6.0,0
17.0,-269.0,9.0,9.0,54.0,-5.0,0
18.0,-270.0,12.0,9.0,55.0,-5.0,0
13.0,-268.0,17.0,11.0,55.0,-5.0,0
18.0,-270.0,10.0,12.0,54.0,-5.0,0
19.0,-268.0,13.0,11.0,53.0,-4.0,0
16.0,-266.0,14.0,11.0,54.0,-4.0,0
19.0,-271.0,13.0,10.0,55.0,-4.0,0
20.0,-268.0,13.0,9.0,57.0,-4.0,0
14.0,-268.0,10.0,8.0,56.0,-4.0,0
17.0,-269.0,11.0,10.0,57.0,-4.0,0
19.0,-271.0,14.0,11.0,57.0,-1.0,0
18.0,-269.0,12.0,13.0,60.0,-2.0,0
16.0,-270.0,17.0,13.0,61.0,-1.0,0
18.0,-269.0,9.0,12.0,63.0,0.0,0
17.0,-267.0,15.0,11.0,65.0,1.0,0
18.0,-270.0,16.0,11.0,67.0,2.0,0
15.0,-267.0,15.0,15.0,68.0,5.0,0
22.0,-270.0,13.0,16.0,70.0,8.0,0
19.0,-269.0,14.0,16.0,72.0,9.0,0
19.0,-265.0,14.0,13.0,76.0,11.0,0
19.0,-271.0,14.0,10.0,78.0,13.0,0
20.0,-269.0,15.0,7.0,75.0,15.0,0
21.0,-269.0,19.0,6.0,74.0,20.0,0
23.0,-269.0,16.0,4.0,76.0,25.0,0
26.0,-267.0,13.0,-1.0,88.0,28.0,0
24.0,-267.0,17.0,-12.0,96.0,31.0,0
34.0,-284.0,1.0,-23.0,97.0,37.0,0
23.0,-265.0,22.0,-22.0,94.0,35.0,0
27.0,-271.0,15.0,-15.0,99.0,53.0,0
27.0,-267.0,15.0,-13.0,101.0,59.0,0
26.0,-268.0,15.0,-13.0,100.0,69.0,0
28.0,-273.0,6.0,-15.0,83.0,80.0,0
31.0,-277.0,9.0,-12.0,57.0,91.0,0
35.0,-278.0,6.0,0.0,40.0,102.0,0
37.0,-279.0,8.0,21.0,31.0,113.0,0
36.0,-281.0,6.0,45.0,31.0,119.0,0
36.0,-280.0,2.0,67.0,36.0,125.0,0
33.0,-281.0,2.0,84.0,45.0,129.0,0
32.0,-278.0,2.0,92.0,59.0,126.0,0
32.0,-278.0,3.0,96.0,78.0,122.0,0
32.0,-278.0,0.0,99.0,103.0,113.0,0
30.0,-280.0,2.0,111.0,134.0,103.0,0
28.0,-277.0,1.0,127.0,157.0,89.0,0
26.0,-275.0,1.0,142.0,183.0,79.0,0
28.0,-276.0,4.0,160.0,211.0,66.0,0
29.0,-273.0,5.0,178.0,239.0,56.0,0
24.0,-272.0,12.0,198.0,263.0,43.0,0
24.0,-272.0,8.0,212.0,280.0,35.0,0
19.0,-270.0,12.0,224.0,287.0,26.0,0
18.0,-266.0,15.0,228.0,287.0,18.0,0
19.0,-268.0,13.0,225.0,288.0,8.0,0
19.0,-264.0,14.0,217.0,293.0,2.0,0
17.0,-268.0,13.0,207.0,301.0,-9.0,0
15.0,-265.0,14.0,195.0,308.0,-15.0,0
11.0,-269.0,12.0,183.0,315.0,-26.0,0
9.0,-266.0,15.0,174.0,324.0,-32.0,0
12.0,-273.0,13.0,169.0,332.0,-44.0,0
13.0,-274.0,14.0,166.0,343.0,-52.0,0
11.0,-273.0,16.0,163.0,348.0,-64.0,0
8.0,-276.0,19.0,166.0,351.0,-74.0,0
11.0,-274.0,18.0,171.0,345.0,-89.0,0
8.0,-278.0,19.0,177.0,335.0,-102.0,0
10.0,-274.0,22.0,182.0,324.0,-118.0,0
12.0,-277.0,18.0,186.0,317.0,-132.0,0
15.0,-279.0,18.0,191.0,314.0,-151.0,0
12.0,-278.0,18.0,197.0,316.0,-167.0,0
15.0,-279.0,21.0,201.0,318.0,-190.0,0
15.0,-279.0,16.0,207.0,319.0,-206.0,0
17.0,-279.0,21.0,211.0,327.0,-224.0,0
19.0,-281.0,20.0,210.0,333.0,-227.0,0
23.0,-286.0,21.0,205.0,340.0,-230.0,0
24.0,-285.0,19.0,205.0,347.0,-232.0,0
22.0,-283.0,12.0,206.0,362.0,-247.0,0
24.0,-286.0,19.0,180.0,372.0,-266.0,0
17.0,-276.0,13.0,190.0,367.0,-298.0,0
26.0,-284.0,8.0,236.0,368.0,-267.0,0
26.0,-282.0,7.0,266.0,376.0,-260.0,0
26.0,-277.0,10.0,303.0,394.0,-267.0,0
26.0,-277.0,11.0,363.0,423.0,-284.0,0
23.0,-275.0,12.0,417.0,442.0,-303.0,0
21.0,-268.0,11.0,463.0,453.0,-331.0,0
19.0,-264.0,14.0,496.0,449.0,-358.0,0
30.0,-273.0,-5.0,507.0,436.0,-393.0,0
13.0,-247.0,19.0,449.0,412.0,-456.0,0
23.0,-251.0,10.0,472.0,401.0,-492.0,0
26.0,-255.0,10.0,481.0,408.0,-481.0,0
18.0,-260.0,10.0,466.0,412.0,-506.0,0
17.0,-264.0,19.0,443.0,408.0,-524.0,0
15.0,-269.0,16.0,429.0,396.0,-548.0,0
18.0,-275.0,13.0,425.0,385.0,-569.0,0
18.0,-279.0,16.0,427.0,377.0,-596.0,0
18.0,-281.0,20.0,441.0,377.0,-624.0,0
18.0,-280.0,21.0,462.0,382.0,-657.0,0
16.0,-283.0,29.0,488.0,387.0,-686.0,0
14.0,-282.0,35.0,513.0,389.0,-719.0,0
14.0,-285.0,33.0,535.0,394.0,-744.0,0
10.0,-285.0,33.0,554.0,401.0,-774.0,0
7.0,-282.0,37.0,570.0,406.0,-794.0,0
-1.0,-282.0,35.0,580.0,410.0,-812.0,0
-4.0,-285.0,36.0,581.0,409.0,-819.0,0
-11.0,-287.0,32.0,587.0,407.0,-832.0,0
-15.0,-286.0,38.0,590.0,413.0,-846.0,0
-26.0,-282.0,32.0,569.0,415.0,-871.0,0
-35.0,-275.0,33.0,523.0,416.0,-900.0,0
-39.0,-271.0,33.0,456.0,416.0,-948.0,0
-56.0,-268.0,43.0,373.0,412.0,-1008.0,0
-70.0,-274.0,48.0,277.0,386.0,-1066.0,0
-82.0,-281.0,61.0,219.0,334.0,-1119.0,0
-96.0,-302.0,73.0,203.0,253.0,-1176.0,0
-103.0,-321.0,75.0,247.0,169.0,-1232.0,0
-99.0,-335.0,66.0,342.0,108.0,-1306.0,0
-96.0,-341.0,45.0,466.0,78.0,-1380.0,0
-89.0,-347.0,18.0,591.0,80.0,-1457.0,0
-79.0,-345.0,1.0,705.0,91.0,-1508.0,0
-71.0,-341.0,-6.0,800.0,94.0,-1548.0,0
-56.0,-340.0,5.0,883.0,87.0,-1560.0,0
-45.0,-333.0,22.0,943.0,55.0,-1571.0,0
-35.0,-324.0,35.0,998.0,-16.0,-1580.0,0
-32.0,-309.0,47.0,1046.0,-113.0,-1597.0,0
-26.0,-300.0,46.0,1073.0,-211.0,-1616.0,0
-12.0,-291.0,38.0,1075.0,-292.0,-1647.0,0
-8.0,-282.0,36.0,1059.0,-359.0,-1678.0,0
-4.0,-283.0,32.0,1041.0,-403.0,-1711.0,0
0.0,-285.0,32.0,1033.0,-413.0,-1743.0,0
-2.0,-283.0,33.0,1022.0,-384.0,-1794.0,0
-4.0,-283.0,35.0,1007.0,-353.0,-1831.0,0
-6.0,-281.0,36.0,1016.0,-340.0,-1856.0,0
-4.0,-271.0,40.0,1062.0,-354.0,-1858.0,0
-1.0,-260.0,31.0,1111.0,-381.0,-1850.0,0
0.0,-245.0,24.0,1140.0,-403.0,-1831.0,0
1.0,-232.0,25.0,1151.0,-423.0,-1801.0,0
19.0,-229.0,57.0,1158.0,-452.0,-1747.0,0
28.0,-223.0,85.0,1181.0,-503.0,-1690.0,0
40.0,-227.0,108.0,1194.0,-563.0,-1612.0,0
52.0,-241.0,125.0,1165.0,-651.0,-1560.0,0
68.0,-258.0,128.0,1150.0,-718.0,-1500.0,0
87.0,-266.0,121.0,1180.0,-783.0,-1444.0,0
109.0,-266.0,91.0,1232.0,-822.0,-1399.0,0
125.0,-252.0,74.0,1291.0,-837.0,-1373.0,0
135.0,-236.0,78.0,1360.0,-820.0,-1357.0,0
132.0,-215.0,101.0,1431.0,-784.0,-1357.0,0
117.0,-190.0,112.0,1484.0,-756.0,-1358.0,0
107.0,-166.0,117.0,1501.0,-767.0,-1343.0,0
103.0,-150.0,111.0,1460.0,-823.0,-1313.0,0
106.0,-135.0,96.0,1394.0,-858.0,-1281.0,0
102.0,-115.0,87.0,1315.0,-855.0,-1249.0,0
95.0,-105.0,82.0,1233.0,-833.0,-1220.0,0
99.0,-107.0,91.0,1156.0,-822.0,-1188.0,0
102.0,-109.0,95.0,1079.0,-823.0,-1171.0,0
114.0,-123.0,94.0,1010.0,-816.0,-1168.0,0
124.0,-134.0,92.0,946.0,-801.0,-1181.0,0
137.0,-148.0,108.0,887.0,-779.0,-1201.0,0
150.0,-163.0,113.0,849.0,-767.0,-1217.0,0
164.0,-173.0,110.0,835.0,-762.0,-1219.0,0
176.0,-175.0,106.0,828.0,-749.0,-1216.0,0
180.0,-175.0,110.0,829.0,-714.0,-1199.0,0
189.0,-167.0,112.0,831.0,-658.0,-1193.0,0
193.0,-159.0,111.0,831.0,-585.0,-1189.0,0
193.0,-148.0,113.0,827.0,-513.0,-1202.0,0
191.0,-124.0,111.0,816.0,-453.0,-1225.0,0
196.0,-105.0,112.0,800.0,-385.0,-1253.0,0
190.0,-89.0,107.0,759.0,-310.0,-1283.0,0
183.0,-86.0,100.0,666.0,-246.0,-1298.0,0
177.0,-91.0,102.0,582.0,-233.0,-1303.0,0
169.0,-103.0,105.0,512.0,-248.0,-1302.0,0
166.0,-107.0,108.0,463.0,-278.0,-1298.0,0
155.0,-117.0,117.0,425.0,-314.0,-1303.0,0
150.0,-131.0,120.0,394.0,-337.0,-1315.0,0
139.0,-142.0,127.0,373.0,-351.0,-1327.0,0
132.0,-141.0,121.0,371.0,-369.0,-1339.0,0
136.0,-126.0,109.0,377.0,-388.0,-1355.0,0
153.0,-114.0,104.0,358.0,-386.0,-1365.0,0
158.0,-106.0,109.0,317.0,-370.0,-1361.0,0
160.0,-102.0,104.0,260.0,-342.0,-1335.0,0
169.0,-104.0,91.0,207.0,-325.0,-1327.0,0
187.0,-104.0,84.0,164.0,-330.0,-1325.0,0
202.0,-106.0,87.0,144.0,-342.0,-1321.0,0
212.0,-104.0,87.0,152.0,-358.0,-1321.0,0
214.0,-104.0,90.0,172.0,-386.0,-1328.0,0
216.0,-105.0,89.0,173.0,-404.0,-1332.0,0
218.0,-109.0,93.0,140.0,-389.0,-1328.0,0
208.0,-118.0,96.0,89.0,-368.0,-1336.0,0
197.0,-122.0,95.0,79.0,-358.0,-1367.0,0
193.0,-125.0,89.0,99.0,-359.0,-1416.0,0
194.0,-119.0,81.0,134.0,-355.0,-1462.0,0
187.0,-107.0,81.0,160.0,-328.0,-1501.0,0
180.0,-97.0,87.0,176.0,-306.0,-1525.0,0
178.0,-89.0,91.0,189.0,-320.0,-1533.0,0
177.0,-77.0,98.0,197.0,-363.0,-1534.0,0
191.0,-60.0,100.0,179.0,-419.0,-1536.0,0
212.0,-46.0,94.0,125.0,-475.0,-1529.0,0
226.0,-42.0,86.0,56.0,-505.0,-1521.0,0
237.0,-48.0,74.0,-18.0,-516.0,-1510.0,0
238.0,-59.0,71.0,-70.0,-522.0,-1512.0,0
242.0,-70.0,66.0,-73.0,-522.0,-1519.0,0
246.0,-70.0,66.0,-32.0,-522.0,-1543.0,0
249.0,-65.0,56.0,25.0,-507.0,-1575.0,0
255.0,-54.0,60.0,66.0,-461.0,-1606.0,0
263.0,-42.0,62.0,92.0,-403.0,-1628.0,0
262.0,-31.0,73.0,104.0,-347.0,-1639.0,0
268.0,-21.0,74.0,94.0,-322.0,-1646.0,0
266.0,-20.0,77.0,74.0,-310.0,-1650.0,0
270.0,-22.0,71.0,48.0,-315.0,-1659.0,0
283.0,-23.0,68.0,13.0,-318.0,-1672.0,0
306.0,-22.0,75.0,-14.0,-294.0,-1690.0,0
318.0,-23.0,79.0,-39.0,-220.0,-1721.0,0
313.0,-28.0,93.0,-68.0,-129.0,-1751.0,0
301.0,-33.0,89.0,-103.0,-81.0,-1785.0,0
299.0,-36.0,93.0,-136.0,-94.0,-1820.0,0
302.0,-42.0,84.0,-169.0,-114.0,-1836.0,0
296.0,-54.0,73.0,-191.0,-111.0,-1849.0,0
272.0,-66.0,68.0,-189.0,-108.0,-1879.0,0
257.0,-67.0,65.0,-156.0,-134.0,-1906.0,0
265.0,-64.0,82.0,-115.0,-151.0,-1903.0,0
265.0,-48.0,83.0,-73.0,-140.0,-1877.0,0
265.0,-31.0,77.0,-48.0,-121.0,-1834.0,0
266.0,-15.0,85.0,-39.0,-132.0,-1748.0,0
275.0,7.0,79.0,-26.0,-198.0,-1599.0,0
285.0,18.0,69.0,4.0,-285.0,-1456.0,0
291.0,4.0,59.0,35.0,-290.0,-1304.0,0
290.0,-12.0,56.0,89.0,-234.0,-1152.0,0
291.0,-20.0,76.0,151.0,-149.0,-1015.0,0
267.0,-9.0,120.0,199.0,-64.0,-900.0,0
245.0,4.0,144.0,245.0,-16.0,-816.0,0
212.0,37.0,154.0,261.0,-67.0,-740.0,0
190.0,68.0,138.0,221.0,-235.0,-666.0,0
183.0,89.0,101.0,134.0,-458.0,-584.0,0
191.0,92.0,66.0,3.0,-646.0,-492.0,0
187.0,89.0,44.0,-96.0,-682.0,-436.0,0
176.0,73.0,39.0,-179.0,-625.0,-394.0,0
166.0,65.0,41.0,-241.0,-527.0,-358.0,0
161.0,53.0,45.0,-287.0,-430.0,-336.0,0
169.0,42.0,56.0,-319.0,-319.0,-314.0,0
165.0,39.0,63.0,-326.0,-191.0,-298.0,0
172.0,30.0,71.0,-332.0,-77.0,-267.0,0
175.0,28.0,80.0,-352.0,3.0,-227.0,0
175.0,22.0,92.0,-383.0,55.0,-162.0,0
177.0,11.0,103.0,-426.0,56.0,-108.0,0
188.0,-1.0,109.0,-458.0,32.0,-48.0,0
201.0,-5.0,105.0,-476.0,4.0,7.0,0
209.0,-8.0,108.0,-491.0,-25.0,71.0,0
213.0,-6.0,108.0,-512.0,-60.0,136.0,0
218.0,-5.0,100.0,-542.0,-106.0,208.0,0
223.0,-9.0,90.0,-573.0,-168.0,269.0,0
238.0,-9.0,82.0,-599.0,-239.0,321.0,0
244.0,-9.0,68.0,-600.0,-303.0,363.0,0
258.0,-9.0,62.0,-574.0,-328.0,392.0,0
267.0,-6.0,71.0,-540.0,-289.0,412.0,0
257.0,-7.0,74.0,-504.0,-240.0,447.0,0
247.0,-7.0,80.0,-470.0,-234.0,496.0,0
246.0,-10.0,77.0,-442.0,-282.0,560.0,0
251.0,-17.0,73.0,-428.0,-351.0,599.0,0
258.0,-20.0,65.0,-425.0,-402.0,617.0,0
267.0,-27.0,59.0,-406.0,-419.0,623.0,0
279.0,-35.0,54.0,-363.0,-407.0,635.0,0
286.0,-41.0,53.0,-295.0,-378.0,643.0,0
281.0,-42.0,50.0,-258.0,-358.0,642.0,0
278.0,-55.0,53.0,-237.0,-338.0,633.0,0
272.0,-64.0,58.0,-213.0,-312.0,625.0,0
274.0,-68.0,55.0,-185.0,-287.0,613.0,0
276.0,-72.0,67.0,-155.0,-260.0,607.0,0
271.0,-82.0,66.0,-124.0,-231.0,589.0,0
263.0,-86.0,66.0,-94.0,-202.0,567.0,0
252.0,-84.0,65.0,-54.0,-180.0,542.0,0
245.0,-78.0,64.0,-13.0,-174.0,524.0,0
235.0,-72.0,67.0,15.0,-181.0,508.0,0
235.0,-69.0,73.0,22.0,-194.0,501.0,0
231.0,-67.0,77.0,15.0,-211.0,488.0,0
225.0,-74.0,79.0,4.0,-230.0,482.0,0
218.0,-79.0,75.0,-2.0,-249.0,476.0,0
212.0,-83.0,70.0,-4.0,-278.0,474.0,0
211.0,-90.0,65.0,-6.0,-312.0,470.0,0
215.0,-97.0,60.0,-3.0,-342.0,469.0,0
218.0,-103.0,60.0,14.0,-362.0,462.0,0
221.0,-105.0,62.0,52.0,-373.0,461.0,0
225.0,-105.0,68.0,86.0,-382.0,452.0,0
226.0,-101.0,74.0,120.0,-402.0,447.0,0
225.0,-97.0,69.0,149.0,-424.0,436.0,0
224.0,-90.0,65.0,174.0,-447.0,429.0,0
226.0,-88.0,61.0,190.0,-468.0,416.0,0
225.0,-81.0,54.0,202.0,-490.0,415.0,0
225.0,-81.0,50.0,210.0,-518.0,416.0,0
226.0,-80.0,47.0,213.0,-541.0,428.0,0
235.0,-79.0,45.0,217.0,-557.0,441.0,0
241.0,-81.0,49.0,222.0,-556.0,457.0,0
244.0,-80.0,56.0,224.0,-539.0,463.0,0
246.0,-78.0,49.0,226.0,-509.0,470.0,0
248.0,-77.0,54.0,230.0,-472.0,467.0,0
249.0,-72.0,47.0,223.0,-442.0,458.0,0
249.0,-67.0,49.0,202.0,-420.0,438.0,0
246.0,-65.0,55.0,165.0,-406.0,417.0,0
246.0,-70.0,58.0,121.0,-396.0,390.0,0
242.0,-72.0,62.0,77.0,-385.0,362.0,0
238.0,-79.0,59.0,31.0,-375.0,334.0,0
234.0,-82.0,58.0,9.0,-366.0,313.0,0
233.0,-82.0,55.0,-5.0,-363.0,294.0,0
232.0,-80.0,56.0,-14.0,-369.0,285.0,0
236.0,-81.0,50.0,-28.0,-384.0,275.0,0
237.0,-79.0,45.0,-45.0,-407.0,273.0,0
242.0,-76.0,40.0,-69.0,-435.0,268.0,0
245.0,-77.0,33.0,-92.0,-465.0,264.0,0
251.0,-79.0,26.0,-109.0,-492.0,252.0,0
257.0,-81.0,23.0,-120.0,-519.0,236.0,0
258.0,-86.0,24.0,-124.0,-529.0,216.0,0
261.0,-86.0,21.0,-127.0,-532.0,197.0,0
266.0,-93.0,18.0,-130.0,-522.0,177.0,0
262.0,-95.0,21.0,-127.0,-503.0,162.0,0
263.0,-95.0,19.0,-109.0,-478.0,149.0,0
261.0,-89.0,15.0,-86.0,-452.0,142.0,0
264.0,-85.0,7.0,-67.0,-430.0,131.0,0
263.0,-80.0,2.0,-54.0,-406.0,126.0,0
265.0,-79.0,2.0,-52.0,-376.0,116.0,0
260.0,-78.0,2.0,-55.0,-352.0,108.0,0
259.0,-84.0,1.0,-56.0,-330.0,106.0,0
256.0,-85.0,1.0,-46.0,-304.0,104.0,0
250.0,-83.0,4.0,-27.0,-274.0,102.0,0
246.0,-80.0,5.0,-3.0,-244.0,103.0,0
243.0,-72.0,5.0,11.0,-226.0,104.0,0
244.0,-73.0,9.0,8.0,-217.0,110.0,0
245.0,-71.0,7.0,-11.0,-217.0,109.0,0
244.0,-71.0,11.0,-30.0,-213.0,113.0,0
248.0,-75.0,13.0,-47.0,-197.0,114.0,0
253.0,-75.0,11.0,-55.0,-172.0,115.0,0
254.0,-80.0,9.0,-65.0,-142.0,112.0,0
258.0,-78.0,9.0,-76.0,-113.0,105.0,0
258.0,-82.0,7.0,-90.0,-90.0,99.0,0
262.0,-83.0,6.0,-102.0,-67.0,93.0,0
260.0,-85.0,5.0,-114.0,-45.0,85.0,0
259.0,-89.0,1.0,-119.0,-27.0,76.0,0
259.0,-93.0,-1.0,-116.0,-15.0,63.0,0
261.0,-101.0,1.0,-105.0,-4.0,51.0,0
258.0,-98.0,1.0,-98.0,1.0,45.0,0
257.0,-101.0,3.0,-90.0,6.0,42.0,0
254.0,-103.0,3.0,-83.0,5.0,38.0,0
252.0,-104.0,2.0,-80.0,6.0,34.0,0
254.0,-101.0,2.0,-84.0,13.0,29.0,0
250.0,-104.0,0.0,-89.0,29.0,20.0,0
247.0,-103.0,4.0,-85.0,49.0,9.0,0
247.0,-109.0,5.0,-70.0,69.0,1.0,0
244.0,-110.0,8.0,-42.0,83.0,-4.0,0
244.0,-108.0,12.0,-9.0,82.0,-10.0,0
244.0,-109.0,12.0,27.0,75.0,-14.0,0
246.0,-107.0,11.0,59.0,68.0,-15.0,0
244.0,-99.0,12.0,83.0,61.0,-14.0,0
242.0,-96.0,14.0,103.0,60.0,-16.0,0
244.0,-93.0,18.0,115.0,65.0,-17.0,0
245.0,-92.0,12.0,119.0,72.0,-20.0,0
244.0,-91.0,14.0,124.0,86.0,-26.0,0
244.0,-89.0,12.0,125.0,112.0,-33.0,0
243.0,-90.0,20.0,128.0,134.0,-38.0,0
244.0,-92.0,19.0,130.0,152.0,-43.0,0
244.0,-91.0,21.0,132.0,167.0,-41.0,0
244.0,-91.0,28.0,139.0,174.0,-44.0,0
246.0,-91.0,29.0,140.0,181.0,-43.0,0
244.0,-88.0,25.0,136.0,189.0,-48.0,0
242.0,-86.0,26.0,120.0,197.0,-51.0,0
244.0,-87.0,29.0,100.0,203.0,-58.0,0
242.0,-86.0,27.0,84.0,206.0,-67.0,0
240.0,-86.0,26.0,69.0,205.0,-75.0,0
244.0,-88.0,24.0,66.0,206.0,-83.0,0
244.0,-84.0,24.0,67.0,208.0,-93.0,0
244.0,-87.0,25.0,68.0,213.0,-102.0,0
245.0,-83.0,23.0,66.0,218.0,-113.0,0
245.0,-84.0,30.0,61.0,220.0,-122.0,0
245.0,-84.0,25.0,55.0,222.0,-128.0,0
246.0,-83.0,26.0,49.0,222.0,-132.0,0
246.0,-83.0,24.0,39.0,217.0,-132.0,0
246.0,-83.0,26.0,37.0,207.0,-129.0,0
249.0,-84.0,25.0,42.0,200.0,-125.0,0
247.0,-83.0,29.0,50.0,191.0,-121.0,0
247.0,-84.0,24.0,57.0,186.0,-120.0,0
250.0,-83.0,29.0,66.0,188.0,-115.0,0
247.0,-83.0,28.0,69.0,196.0,-116.0,0
247.0,-82.0,27.0,67.0,205.0,-113.0,0
247.0,-83.0,28.0,64.0,216.0,-112.0,0
244.0,-81.0,31.0,58.0,224.0,-107.0,0
244.0,-82.0,31.0,56.0,231.0,-107.0,0
244.0,-79.0,28.0,55.0,239.0,-103.0,0
246.0,-81.0,34.0,58.0,248.0,-104.0,0
247.0,-78.0,27.0,59.0,260.0,-100.0,0
246.0,-76.0,29.0,61.0,270.0,-100.0,0
246.0,-77.0,29.0,60.0,280.0,-98.0,0
244.0,-78.0,28.0,58.0,289.0,-94.0,0
246.0,-78.0,31.0,59.0,292.0,-86.0,0
245.0,-78.0,28.0,60.0,294.0,-83.0,0
244.0,-78.0,29.0,61.0,292.0,-74.0,0
246.0,-76.0,34.0,66.0,294.0,-72.0,0
246.0,-76.0,40.0,69.0,296.0,-65.0,0
246.0,-77.0,37.0,70.0,298.0,-66.0,0
244.0,-75.0,35.0,69.0,293.0,-63.0,0
243.0,-72.0,36.0,64.0,290.0,-67.0,0
244.0,-72.0,40.0,57.0,283.0,-65.0,0
245.0,-76.0,40.0,51.0,271.0,-70.0,0
245.0,-73.0,39.0,45.0,258.0,-68.0,0
245.0,-72.0,38.0,38.0,239.0,-70.0,0
245.0,-72.0,38.0,31.0,224.0,-68.0,0
245.0,-75.0,38.0,27.0,209.0,-66.0,0
245.0,-74.0,38.0,27.0,196.0,-63.0,0
244.0,-75.0,39.0,24.0,188.0,-65.0,0
246.0,-76.0,44.0,21.0,184.0,-63.0,0
243.0,-77.0,40.0,19.0,183.0,-67.0,0
245.0,-77.0,40.0,18.0,182.0,-63.0,0
245.0,-76.0,44.0,18.0,189.0,-63.0,0
245.0,-73.0,41.0,17.0,194.0,-60.0,0
244.0,-75.0,42.0,18.0,200.0,-62.0,0
244.0,-75.0,41.0,18.0,201.0,-61.0,0
245.0,-77.0,38.0,19.0,202.0,-62.0,0
244.0,-73.0,38.0,18.0,204.0,-57.0,0
245.0,-70.0,37.0,15.0,201.0,-58.0,0
246.0,-72.0,42.0,14.0,198.0,-53.0,0
245.0,-71.0,37.0,12.0,194.0,-52.0,0
244.0,-73.0,37.0,12.0,190.0,-43.0,0
247.0,-73.0,38.0,11.0,189.0,-43.0,0
246.0,-73.0,41.0,11.0,186.0,-36.0,0
247.0,-75.0,42.0,9.0,184.0,-35.0,0
245.0,-72.0,39.0,8.0,183.0,-29.0,0
246.0,-71.0,37.0,8.0,182.0,-30.0,0
245.0,-72.0,43.0,7.0,180.0,-26.0,0
245.0,-72.0,42.0,6.0,179.0,-26.0,0
244.0,-72.0,45.0,2.0,179.0,-21.0,0
244.0,-73.0,47.0,0.0,179.0,-19.0,0
242.0,-73.0,42.0,-1.0,178.0,-13.0,0
244.0,-74.0,44.0,-3.0,178.0,-13.0,0
245.0,-76.0,46.0,-1.0,177.0,-9.0,0
244.0,-77.0,49.0,1.0,175.0,-8.0,0
243.0,-77.0,43.0,2.0,171.0,-1.0,0
241.0,-76.0,46.0,6.0,167.0,0.0,0
242.0,-80.0,48.0,8.0,160.0,4.0,0
241.0,-76.0,50.0,14.0,150.0,2.0,0
242.0,-79.0,46.0,23.0,144.0,6.0,0
242.0,-77.0,49.0,29.0,139.0,6.0,0
241.0,-76.0,50.0,33.0,137.0,7.0,0
242.0,-77.0,50.0,32.0,132.0,6.0,0
241.0,-76.0,50.0,32.0,129.0,10.0,0
242.0,-78.0,50.0,32.0,126.0,8.0,0
242.0,-76.0,51.0,33.0,126.0,10.0,0
241.0,-77.0,49.0,33.0,124.0,8.0,0
240.0,-78.0,49.0,35.0,121.0,10.0,0
242.0,-77.0,50.0,36.0,119.0,6.0,0
242.0,-77.0,49.0,37.0,115.0,10.0,0
242.0,-79.0,46.0,37.0,111.0,10.0,0
240.0,-76.0,49.0,37.0,105.0,10.0,0
244.0,-76.0,47.0,39.0,98.0,12.0,0
241.0,-75.0,46.0,37.0,93.0,14.0,0
243.0,-74.0,46.0,35.0,85.0,13.0,0
241.0,-77.0,49.0,33.0,77.0,14.0,0
243.0,-80.0,45.0,34.0,70.0,13.0,0
243.0,-73.0,49.0,34.0,64.0,12.0,0
246.0,-76.0,50.0,37.0,60.0,10.0,0
244.0,-77.0,45.0,37.0,59.0,12.0,0
244.0,-73.0,44.0,36.0,59.0,9.0,0
244.0,-79.0,48.0,35.0,60.0,9.0,0
244.0,-77.0,44.0,32.0,59.0,4.0,0
243.0,-74.0,43.0,31.0,56.0,2.0,0
243.0,-78.0,46.0,28.0,55.0,-2.0,0
243.0,-76.0,43.0,24.0,56.0,-2.0,0
242.0,-76.0,48.0,18.0,59.0,-4.0,0
243.0,-78.0,42.0,13.0,61.0,-3.0,0
242.0,-78.0,49.0,8.0,61.0,-8.0,0
243.0,-75.0,44.0,5.0,60.0,-6.0,0
243.0,-78.0,48.0,5.0,57.0,-7.0,0
244.0,-75.0,46.0,7.0,56.0,-6.0,0
244.0,-80.0,42.0,8.0,53.0,-8.0,0
246.0,-76.0,42.0,10.0,51.0,-7.0,0
245.0,-76.0,41.0,13.0,48.0,-8.0,0
244.0,-76.0,41.0,14.0,48.0,-9.0,0
246.0,-76.0,41.0,16.0,49.0,-11.0,0
243.0,-78.0,41.0,17.0,51.0,-11.0,0
246.0,-77.0,37.0,17.0,57.0,-13.0,0
244.0,-79.0,44.0,23.0,65.0,-14.0,0
245.0,-79.0,44.0,27.0,70.0,-14.0,0
244.0,-79.0,47.0,34.0,75.0,-15.0,0
245.0,-78.0,45.0,36.0,78.0,-16.0,0
243.0,-75.0,48.0,39.0,83.0,-16.0,0
247.0,-77.0,45.0,41.0,83.0,-15.0,0
244.0,-74.0,42.0,41.0,86.0,-13.0,0
244.0,-75.0,47.0,38.0,87.0,-14.0,0
243.0,-73.0,44.0,34.0,84.0,-12.0,0
244.0,-72.0,48.0,30.0,81.0,-15.0,0
243.0,-73.0,45.0,27.0,79.0,-16.0,0
245.0,-74.0,42.0,23.0,74.0,-16.0,0
244.0,-75.0,43.0,22.0,72.0,-18.0,0
240.0,-71.0,47.0,22.0,70.0,-18.0,0
244.0,-74.0,44.0,23.0,67.0,-17.0,0
244.0,-75.0,46.0,25.0,63.0,-17.0,0
244.0,-75.0,45.0,26.0,60.0,-18.0,0
244.0,-72.0,45.0,27.0,56.0,-19.0,0
244.0,-70.0,45.0,27.0,50.0,-20.0,0
243.0,-73.0,44.0,28.0,41.0,-19.0,0
245.0,-74.0,46.0,26.0,38.0,-18.0,0
244.0,-72.0,43.0,25.0,36.0,-16.0,0
245.0,-68.0,47.0,23.0,37.0,-15.0,0
246.0,-74.0,43.0,22.0,36.0,-12.0,0
245.0,-69.0,46.0,21.0,41.0,-10.0,0
245.0,-69.0,49.0,19.0,41.0,-9.0,0
245.0,-71.0,48.0,16.0,44.0,-8.0,0
244.0,-69.0,45.0,13.0,44.0,-6.0,0
243.0,-71.0,52.0,0.0,42.0,-7.0,0
244.0,-75.0,50.0,-1.0,42.0,-2.0,0
243.0,-72.0,47.0,-3.0,39.0,-3.0,0
244.0,-72.0,49.0,-7.0,35.0,1.0,0
243.0,-71.0,48.0,-11.0,32.0,1.0,0
244.0,-72.0,50.0,-15.0,31.0,3.0,0
243.0,-76.0,47.0,-21.0,28.0,3.0,0
243.0,-79.0,48.0,-23.0,28.0,4.0,0
242.0,-75.0,48.0,-24.0,26.0,5.0,0
244.0,-76.0,44.0,-24.0,27.0,6.0,0
242.0,-76.0,52.0,-24.0,30.0,3.0,0
243.0,-74.0,49.0,-26.0,31.0,4.0,0
243.0,-75.0,49.0,-29.0,35.0,0.0,0
243.0,-75.0,51.0,-32.0,35.0,0.0,0
243.0,-75.0,49.0,-35.0,35.0,-2.0,0
244.0,-76.0,50.0,-39.0,35.0,-2.0,0
246.0,-77.0,48.0,-42.0,33.0,-4.0,0
244.0,-75.0,46.0,-43.0,32.0,-3.0,0
243.0,-74.0,48.0,-45.0,30.0,-5.0,0
244.0,-74.0,45.0,-47.0,29.0,-3.0,0
244.0,-75.0,49.0,-51.0,26.0,-5.0,0
245.0,-75.0,46.0,-54.0,26.0,-5.0,0
244.0,-77.0,44.0,-54.0,25.0,-6.0,0
244.0,-77.0,43.0,-52.0,24.0,-5.0,0
244.0,-74.0,45.0,-51.0,22.0,-7.0,0
243.0,-73.0,42.0,-50.0,22.0,-5.0,0
245.0,-74.0,44.0,-50.0,22.0,-6.0,0
244.0,-72.0,36.0,-51.0,21.0,-4.0,0
243.0,-76.0,42.0,-53.0,22.0,-7.0,0
244.0,-74.0,44.0,-55.0,20.0,-4.0,0
246.0,-76.0,46.0,-56.0,23.0,-5.0,0
243.0,-75.0,44.0,-58.0,22.0,-3.0,0
243.0,-73.0,44.0,-58.0,25.0,-4.0,0
244.0,-76.0,44.0,-57.0,25.0,-1.0,0
245.0,-76.0,45.0,-54.0,27.0,-3.0,0
243.0,-75.0,44.0,-51.0,29.0,-2.0,0
244.0,-74.0,43.0,-49.0,32.0,-5.0,0
245.0,-76.0,48.0,-48.0,37.0,-3.0,0
244.0,-76.0,42.0,-48.0,38.0,-6.0,0
244.0,-73.0,41.0,-49.0,40.0,-3.0,0
245.0,-76.0,38.0,-49.0,41.0,-4.0,0
244.0,-75.0,44.0,-45.0,45.0,-3.0,0
245.0,-77.0,44.0,-41.0,44.0,-7.0,0
244.0,-79.0,44.0,-36.0,45.0,-4.0,0
244.0,-79.0,49.0,-35.0,46.0,-7.0,0
244.0,-75.0,41.0,-32.0,47.0,-4.0,0
244.0,-78.0,42.0,-29.0,45.0,-8.0,0
245.0,-77.0,43.0,-26.0,45.0,-6.0,0
245.0,-79.0,44.0,-20.0,46.0,-9.0,0
244.0,-77.0,41.0,-17.0,45.0,-7.0,0
244.0,-77.0,43.0,-16.0,47.0,-11.0,0
245.0,-71.0,41.0,-14.0,50.0,-9.0,0
243.0,-72.0,44.0,-15.0,52.0,-12.0,0
243.0,-72.0,43.0,-15.0,53.0,-10.0,0
246.0,-73.0,44.0,-17.0,50.0,-12.0,0
244.0,-74.0,43.0,-20.0,47.0,-9.0,0
241.0,-72.0,45.0,-22.0,46.0,-10.0,0
244.0,-75.0,46.0,-23.0,45.0,-6.0,0
245.0,-75.0,43.0,-22.0,43.0,-9.0,0
245.0,-74.0,44.0,-23.0,42.0,-6.0,0
244.0,-73.0,40.0,-22.0,42.0,-7.0,0
244.0,-72.0,44.0,-24.0,45.0,-3.0,0
245.0,-72.0,44.0,-26.0,46.0,-5.0,0
244.0,-75.0,45.0,-29.0,46.0,-3.0,0
244.0,-76.0,43.0,-32.0,47.0,-5.0,0
244.0,-72.0,41.0,-36.0,47.0,-2.0,0
245.0,-74.0,45.0,-36.0,47.0,-2.0,0
244.0,-73.0,42.0,-36.0,48.0,0.0,0
245.0,-73.0,45.0,-37.0,48.0,-3.0,0
244.0,-73.0,43.0,-40.0,51.0,-2.0,0
245.0,-73.0,44.0,-44.0,53.0,-3.0,0
244.0,-74.0,41.0,-48.0,52.0,-1.0,0
243.0,-75.0,45.0,-51.0,49.0,-3.0,0
243.0,-74.0,36.0,-53.0,46.0,-1.0,0
244.0,-74.0,43.0,-55.0,41.0,-4.0,0
243.0,-73.0,43.0,-55.0,40.0,-1.0,0
244.0,-76.0,40.0,-56.0,38.0,-3.0,0
245.0,-77.0,39.0,-55.0,34.0,0.0,0
246.0,-77.0,36.0,-50.0,32.0,-3.0,0
244.0,-75.0,43.0,-46.0,33.0,-2.0,0
244.0,-74.0,39.0,-43.0,40.0,-6.0,0
244.0,-76.0,44.0,-39.0,44.0,-5.0,0
243.0,-72.0,42.0,-40.0,49.0,-7.0,0
244.0,-77.0,42.0,-43.0,50.0,-5.0,0
243.0,-74.0,45.0,-43.0,50.0,-6.0,0
243.0,-75.0,41.0,-43.0,51.0,-3.0,0
242.0,-76.0,43.0,-43.0,51.0,-5.0,0
243.0,-74.0,44.0,-43.0,50.0,-1.0,0
244.0,-77.0,44.0,-43.0,48.0,-3.0,0
243.0,-75.0,39.0,-43.0,44.0,-1.0,0
246.0,-78.0,44.0,-44.0,42.0,-3.0,0
244.0,-77.0,43.0,-46.0,40.0,-3.0,0
244.0,-74.0,46.0,-49.0,38.0,-6.0,0
244.0,-76.0,44.0,-51.0,36.0,-5.0,0
244.0,-75.0,43.0,-52.0,32.0,-8.0,0
247.0,-77.0,45.0,-51.0,31.0,-6.0,0
244.0,-74.0,37.0,-50.0,29.0,-8.0,0
244.0,-76.0,36.0,-49.0,26.0,-7.0,0
242.0,-73.0,37.0,-52.0,26.0,-8.0,0
244.0,-76.0,39.0,-51.0,27.0,-5.0,0
245.0,-78.0,39.0,-51.0,30.0,-8.0,0
244.0,-77.0,40.0,-47.0,34.0,-6.0,0
244.0,-77.0,44.0,-44.0,40.0,-9.0,0
241.0,-75.0,41.0,-42.0,47.0,-8.0,0
244.0,-78.0,43.0,-39.0,51.0,-10.0,0
244.0,-77.0,40.0,-40.0,52.0,-7.0,0
244.0,-78.0,42.0,-40.0,56.0,-8.0,0
244.0,-73.0,44.0,-39.0,60.0,-7.0,0
246.0,-75.0,41.0,-38.0,66.0,-8.0,0
242.0,-74.0,43.0,-37.0,71.0,-6.0,0
245.0,-72.0,36.0,-38.0,73.0,-5.0,0
244.0,-73.0,43.0,-37.0,73.0,-2.0,0
243.0,-73.0,41.0,-37.0,71.0,0.0,0
242.0,-73.0,41.0,-38.0,65.0,1.0,0
245.0,-74.0,43.0,-40.0,51.0,0.0,0
247.0,-72.0,38.0,-40.0,39.0,2.0,0
243.0,-74.0,37.0,-42.0,27.0,0.0,0
243.0,-73.0,37.0,-44.0,19.0,2.0,0
246.0,-75.0,37.0,-45.0,14.0,3.0,0
247.0,-74.0,33.0,-44.0,16.0,5.0,0
248.0,-76.0,37.0,-41.0,22.0,5.0,0
230.0,-67.0,29.0,-33.0,30.0,8.0,0
246.0,-77.0,38.0,-28.0,41.0,8.0,0
246.0,-76.0,38.0,-21.0,49.0,8.0,0
244.0,-73.0,41.0,-17.0,55.0,9.0,0
244.0,-77.0,40.0,-13.0,63.0,9.0,0
244.0,-74.0,39.0,-10.0,66.0,8.0,0
245.0,-75.0,43.0,-8.0,66.0,8.0,0
246.0,-77.0,42.0,-6.0,67.0,7.0,0
244.0,-76.0,40.0,-6.0,66.0,8.0,0
245.0,-77.0,41.0,-5.0,62.0,7.0,0
244.0,-77.0,42.0,-2.0,60.0,6.0,0
245.0,-76.0,40.0,-1.0,60.0,5.0,0
246.0,-79.0,35.0,1.0,59.0,4.0,0
246.0,-76.0,41.0,-1.0,58.0,3.0,0
244.0,-76.0,40.0,0.0,59.0,0.0,0
244.0,-74.0,40.0,-2.0,57.0,-2.0,0
245.0,-75.0,42.0,-1.0,58.0,-2.0,0
244.0,-79.0,36.0,-1.0,56.0,-5.0,0
242.0,-74.0,40.0,-1.0,56.0,-5.0,0
246.0,-78.0,42.0,1.0,55.0,-6.0,0
245.0,-78.0,43.0,-1.0,55.0,-8.0,0
245.0,-78.0,39.0,1.0,56.0,-9.0,0
244.0,-79.0,44.0,0.0,59.0,-12.0,0
244.0,-80.0,43.0,3.0,59.0,-12.0,0
243.0,-81.0,41.0,6.0,59.0,-14.0,0
243.0,-79.0,42.0,8.0,57.0,-17.0,0
247.0,-79.0,43.0,12.0,55.0,-18.0,0
243.0,-77.0,42.0,13.0,53.0,-20.0,0
244.0,-80.0,44.0,14.0,53.0,-22.0,0
243.0,-79.0,42.0,16.0,56.0,-23.0,0
243.0,-78.0,42.0,19.0,57.0,-27.0,0
243.0,-76.0,40.0,22.0,60.0,-27.0,0
243.0,-78.0,39.0,28.0,65.0,-31.0,0
243.0,-80.0,41.0,33.0,66.0,-33.0,0
244.0,-79.0,46.0,38.0,68.0,-36.0,0
244.0,-80.0,44.0,41.0,69.0,-37.0,0
242.0,-76.0,41.0,45.0,65.0,-38.0,0
243.0,-75.0,46.0,46.0,65.0,-40.0,0
242.0,-75.0,45.0,46.0,61.0,-40.0,0
243.0,-73.0,45.0,43.0,54.0,-37.0,0
242.0,-74.0,42.0,39.0,46.0,-38.0,0
244.0,-72.0,42.0,34.0,42.0,-36.0,0
242.0,-74.0,43.0,33.0,37.0,-36.0,0
245.0,-72.0,43.0,31.0,34.0,-32.0,0
244.0,-71.0,43.0,28.0,28.0,-33.0,0
244.0,-72.0,44.0,24.0,25.0,-28.0,0
247.0,-76.0,36.0,23.0,24.0,-28.0,0
245.0,-73.0,39.0,23.0,25.0,-26.0,0
244.0,-75.0,38.0,22.0,26.0,-25.0,0
245.0,-74.0,39.0,24.0,29.0,-23.0,0
245.0,-72.0,40.0,25.0,32.0,-23.0,0
247.0,-73.0,36.0,27.0,38.0,-20.0,0
245.0,-70.0,41.0,27.0,42.0,-19.0,0
244.0,-70.0,37.0,27.0,44.0,-17.0,0
247.0,-75.0,37.0,28.0,48.0,-18.0,0
248.0,-73.0,38.0,28.0,51.0,-14.0,0
247.0,-73.0,36.0,28.0,54.0,-15.0,0
247.0,-71.0,34.0,29.0,56.0,-13.0,0
246.0,-72.0,40.0,32.0,59.0,-15.0,0
248.0,-71.0,38.0,32.0,60.0,-12.0,0
246.0,-73.0,36.0,34.0,62.0,-13.0,0
245.0,-74.0,35.0,35.0,65.0,-9.0,0
246.0,-71.0,36.0,34.0,66.0,-9.0,0
247.0,-73.0,40.0,34.0,67.0,-6.0,0
250.0,-75.0,41.0,33.0,69.0,-8.0,0
247.0,-71.0,39.0,33.0,70.0,-6.0,0
245.0,-72.0,39.0,32.0,72.0,-6.0,0
249.0,-73.0,40.0,31.0,76.0,-5.0,0
247.0,-69.0,38.0,30.0,81.0,-8.0,0
245.0,-70.0,38.0,30.0,83.0,-6.0,0
247.0,-74.0,40.0,31.0,88.0,-8.0,0
247.0,-72.0,41.0,29.0,93.0,-5.0,0
245.0,-73.0,39.0,26.0,96.0,-7.0,0
247.0,-73.0,38.0,26.0,99.0,-7.0,0
245.0,-70.0,41.0,24.0,102.0,-5.0,0
244.0,-72.0,37.0,21.0,106.0,-3.0,0
246.0,-73.0,41.0,19.0,106.0,-3.0,0
246.0,-72.0,43.0,16.0,106.0,0.0,0
244.0,-73.0,41.0,14.0,102.0,-1.0,0
244.0,-73.0,40.0,13.0,102.0,1.0,0
245.0,-73.0,40.0,12.0,99.0,0.0,0
245.0,-76.0,41.0,13.0,96.0,1.0,0
245.0,-69.0,41.0,14.0,96.0,-1.0,0
245.0,-70.0,43.0,14.0,98.0,-1.0,0
245.0,-70.0,42.0,16.0,100.0,-4.0,0
244.0,-74.0,41.0,16.0,103.0,-2.0,0
244.0,-73.0,44.0,17.0,106.0,-5.0,0
246.0,-72.0,42.0,18.0,108.0,-3.0,0
245.0,-76.0,44.0,17.0,109.0,-6.0,0
244.0,-74.0,39.0,15.0,111.0,-5.0,0
244.0,-73.0,45.0,15.0,110.0,-8.0,0
244.0,-75.0,42.0,12.0,105.0,-6.0,0
243.0,-72.0,44.0,12.0,103.0,-8.0,0
244.0,-74.0,46.0,13.0,99.0,-5.0,0
244.0,-74.0,45.0,13.0,94.0,-9.0,0
241.0,-75.0,46.0,15.0,91.0,-7.0,0
242.0,-75.0,46.0,17.0,89.0,-9.0,0
242.0,-76.0,48.0,16.0,86.0,-8.0,0
243.0,-76.0,45.0,19.0,81.0,-12.0,0
243.0,-73.0,47.0,18.0,78.0,-10.0,0
243.0,-74.0,45.0,19.0,76.0,-11.0,0
245.0,-75.0,44.0,14.0,72.0,-10.0,0
244.0,-73.0,44.0,10.0,69.0,-12.0,0
246.0,-75.0,47.0,8.0,64.0,-11.0,0
243.0,-75.0,43.0,7.0,61.0,-12.0,0
243.0,-74.0,45.0,9.0,59.0,-14.0,0
244.0,-72.0,47.0,10.0,56.0,-16.0,0
243.0,-71.0,45.0,14.0,55.0,-14.0,0
243.0,-72.0,45.0,16.0,53.0,-15.0,0
243.0,-72.0,47.0,18.0,49.0,-13.0,0
244.0,-74.0,51.0,20.0,46.0,-14.0,0
245.0,-75.0,46.0,20.0,44.0,-11.0,0
245.0,-74.0,46.0,22.0,43.0,-11.0,0
243.0,-74.0,44.0,25.0,43.0,-10.0,0
244.0,-73.0,47.0,30.0,39.0,-11.0,0
242.0,-71.0,43.0,32.0,38.0,-6.0,0
242.0,-73.0,45.0,35.0,36.0,-6.0,0
243.0,-72.0,44.0,34.0,34.0,-5.0,0
244.0,-72.0,48.0,28.0,30.0,-8.0,0
244.0,-71.0,46.0,33.0,28.0,-4.0,0
244.0,-74.0,41.0,36.0,26.0,-7.0,0
245.0,-74.0,49.0,40.0,25.0,-1.0,0
245.0,-71.0,47.0,43.0,26.0,-2.0,0
244.0,-73.0,48.0,44.0,28.0,-2.0,0
246.0,-72.0,43.0,46.0,27.0,-2.0,0
244.0,-68.0,45.0,45.0,29.0,1.0,0
245.0,-72.0,43.0,45.0,29.0,3.0,0
245.0,-71.0,47.0,43.0,28.0,4.0,0
244.0,-70.0,44.0,40.0,27.0,3.0,0
244.0,-70.0,42.0,36.0,25.0,5.0,0
245.0,-67.0,45.0,32.0,23.0,2.0,0
246.0,-70.0,40.0,27.0,22.0,4.0,0
246.0,-69.0,44.0,23.0,23.0,3.0,0
247.0,-66.0,40.0,21.0,22.0,4.0,0
248.0,-72.0,42.0,14.0,24.0,2.0,0
247.0,-69.0,42.0,10.0,27.0,3.0,0
247.0,-69.0,39.0,4.0,30.0,2.0,0
246.0,-70.0,42.0,1.0,30.0,2.0,0
244.0,-71.0,37.0,0.0,32.0,0.0,0
245.0,-73.0,40.0,-1.0,35.0,0.0,0
245.0,-71.0,44.0,-2.0,36.0,0.0,0
244.0,-70.0,44.0,-2.0,39.0,2.0,0
247.0,-71.0,41.0,0.0,45.0,2.0,0
245.0,-70.0,35.0,1.0,49.0,3.0,0
246.0,-71.0,38.0,2.0,56.0,3.0,0
247.0,-71.0,35.0,4.0,58.0,3.0,0
245.0,-72.0,39.0,6.0,62.0,2.0,0
249.0,-73.0,40.0,5.0,65.0,4.0,0
245.0,-72.0,40.0,7.0,68.0,3.0,0
246.0,-74.0,41.0,9.0,69.0,4.0,0
246.0,-72.0,39.0,10.0,70.0,4.0,0
247.0,-73.0,39.0,13.0,73.0,2.0,0
247.0,-75.0,40.0,13.0,77.0,2.0,0
246.0,-71.0,38.0,13.0,79.0,1.0,0
246.0,-73.0,39.0,11.0,84.0,-2.0,0
245.0,-71.0,40.0,9.0,84.0,-2.0,0
244.0,-73.0,45.0,8.0,87.0,-6.0,0
246.0,-74.0,42.0,4.0,91.0,-6.0,0
245.0,-70.0,43.0,2.0,94.0,-8.0,0
247.0,-70.0,46.0,1.0,95.0,-8.0,0
244.0,-73.0,42.0,-1.0,93.0,-6.0,0
245.0,-72.0,41.0,-3.0,93.0,-7.0,0
246.0,-71.0,41.0,-3.0,92.0,-8.0,0
245.0,-71.0,44.0,-5.0,90.0,-7.0,0
246.0,-72.0,45.0,-4.0,88.0,-7.0,0
245.0,-70.0,45.0,-6.0,87.0,-8.0,0
243.0,-71.0,44.0,-8.0,87.0,-7.0,0
244.0,-70.0,45.0,-7.0,86.0,-8.0,0
245.0,-71.0,41.0,-6.0,85.0,-8.0,0
245.0,-73.0,45.0,-7.0,83.0,-9.0,0
244.0,-69.0,43.0,-7.0,84.0,-8.0,0
245.0,-72.0,52.0,-5.0,83.0,-10.0,0
243.0,-72.0,42.0,-5.0,84.0,-9.0,0
244.0,-72.0,44.0,-6.0,82.0,-10.0,0
245.0,-72.0,44.0,-4.0,82.0,-8.0,0
244.0,-74.0,46.0,-4.0,81.0,-9.0,0
242.0,-68.0,50.0,-4.0,80.0,-7.0,0
243.0,-69.0,45.0,-1.0,77.0,-6.0,0
245.0,-75.0,48.0,-2.0,75.0,-5.0,0
243.0,-70.0,46.0,-1.0,70.0,-7.0,0
243.0,-69.0,46.0,-4.0,66.0,-5.0,0
242.0,-70.0,41.0,-5.0,63.0,-5.0,0
246.0,-70.0,45.0,-7.0,62.0,-4.0,0
244.0,-70.0,48.0,-5.0,61.0,-5.0,0
244.0,-72.0,47.0,-4.0,61.0,-4.0,0
245.0,-72.0,49.0,-4.0,59.0,-6.0,0
245.0,-69.0,46.0,-5.0,58.0,-4.0,0
244.0,-72.0,44.0,-5.0,57.0,-5.0,0
244.0,-69.0,43.0,-6.0,54.0,-3.0,0
244.0,-72.0,45.0,-7.0,53.0,-5.0,0
245.0,-74.0,44.0,-7.0,52.0,-3.0,0
244.0,-72.0,50.0,-5.0,50.0,-4.0,0
246.0,-73.0,48.0,-5.0,48.0,-2.0,0
245.0,-72.0,47.0,-4.0,48.0,-2.0,0
244.0,-71.0,48.0,-2.0,46.0,-1.0,0
245.0,-74.0,46.0,-2.0,46.0,-2.0,0
245.0,-70.0,43.0,-3.0,46.0,0.0,0
243.0,-71.0,45.0,-3.0,45.0,-2.0,0
244.0,-70.0,47.0,-4.0,45.0,0.0,0
244.0,-67.0,43.0,-3.0,44.0,-4.0,0
243.0,-70.0,43.0,-4.0,43.0,-1.0,0
243.0,-69.0,48.0,-4.0,42.0,-5.0,0
244.0,-73.0,43.0,-4.0,42.0,-3.0,0
246.0,-73.0,44.0,-5.0,41.0,-6.0,0
246.0,-71.0,46.0,-7.0,40.0,-2.0,0
244.0,-69.0,41.0,-6.0,39.0,-4.0,0
245.0,-72.0,44.0,-6.0,41.0,-3.0,0
243.0,-67.0,45.0,-5.0,42.0,-5.0,0
246.0,-73.0,41.0,-6.0,43.0,-2.0,0
243.0,-70.0,43.0,-7.0,43.0,-4.0,0
244.0,-70.0,46.0,-7.0,45.0,0.0,0
245.0,-69.0,43.0,-6.0,46.0,-3.0,0
245.0,-72.0,43.0,-6.0,46.0,0.0,0
244.0,-71.0,42.0,-7.0,46.0,-2.0,0
247.0,-72.0,46.0,-7.0,46.0,0.0,0
245.0,-72.0,42.0,-6.0,47.0,-3.0,0
245.0,-70.0,44.0,-5.0,47.0,-1.0,0
246.0,-70.0,44.0,-3.0,48.0,-4.0,0
244.0,-71.0,41.0,-3.0,49.0,-2.0,0
244.0,-70.0,38.0,-1.0,52.0,-5.0,0
246.0,-72.0,43.0,-1.0,54.0,-2.0,0
245.0,-70.0,36.0,-1.0,56.0,-4.0,0
246.0,-76.0,46.0,-2.0,57.0,-3.0,0
244.0,-72.0,43.0,-2.0,59.0,-5.0,0
244.0,-72.0,44.0,-4.0,58.0,-1.0,0
244.0,-73.0,43.0,-3.0,59.0,-2.0,0
245.0,-72.0,45.0,-2.0,60.0,0.0,0
244.0,-72.0,42.0,-2.0,60.0,-2.0,0
246.0,-71.0,44.0,1.0,60.0,0.0,0
245.0,-70.0,38.0,3.0,62.0,-2.0,0
245.0,-70.0,44.0,5.0,66.0,-1.0,0
248.0,-71.0,38.0,6.0,70.0,-4.0,0
245.0,-73.0,42.0,8.0,74.0,-2.0,0
244.0,-70.0,42.0,10.0,74.0,-2.0,0
245.0,-68.0,42.0,9.0,77.0,3.0,0
244.0,-71.0,42.0,9.0,81.0,3.0,0
245.0,-70.0,45.0,11.0,82.0,7.0,0
244.0,-72.0,42.0,14.0,85.0,7.0,0
245.0,-71.0,45.0,17.0,89.0,11.0,0
244.0,-71.0,46.0,20.0,91.0,8.0,0
244.0,-70.0,49.0,20.0,93.0,12.0,0
244.0,-71.0,46.0,19.0,94.0,10.0,0
244.0,-68.0,45.0,16.0,94.0,11.0,0
244.0,-72.0,46.0,11.0,93.0,6.0,0
245.0,-68.0,44.0,3.0,88.0,6.0,0
244.0,-71.0,45.0,0.0,85.0,4.0,0
246.0,-69.0,43.0,-2.0,82.0,4.0,0
244.0,-70.0,45.0,-2.0,79.0,0.0,0
245.0,-71.0,39.0,-7.0,76.0,1.0,0
244.0,-72.0,43.0,-9.0,76.0,-1.0,0
246.0,-75.0,44.0,-10.0,75.0,2.0,0
244.0,-72.0,49.0,-8.0,75.0,-1.0,0
244.0,-72.0,46.0,-7.0,76.0,-1.0,0
244.0,-72.0,45.0,-4.0,77.0,-4.0,0
243.0,-73.0,46.0,-2.0,78.0,-2.0,0
244.0,-71.0,48.0,-2.0,78.0,-4.0,0
245.0,-71.0,47.0,0.0,78.0,-3.0,0
243.0,-74.0,45.0,1.0,77.0,-4.0,0
244.0,-73.0,46.0,3.0,78.0,-3.0,0
243.0,-70.0,47.0,3.0,76.0,-6.0,0
245.0,-71.0,47.0,3.0,74.0,-3.0,0
243.0,-72.0,47.0,3.0,70.0,-4.0,0
245.0,-70.0,43.0,1.0,69.0,-3.0,0
244.0,-74.0,42.0,1.0,64.0,-5.0,0
246.0,-72.0,45.0,2.0,63.0,-3.0,0
244.0,-74.0,46.0,5.0,61.0,-5.0,0
244.0,-73.0,47.0,8.0,57.0,-4.0,0
244.0,-73.0,44.0,11.0,56.0,-7.0,0
244.0,-73.0,46.0,13.0,54.0,-4.0,0
244.0,-72.0,46.0,14.0,53.0,-6.0,0
244.0,-73.0,47.0,15.0,49.0,-2.0,0
244.0,-73.0,46.0,13.0,41.0,-3.0,0
244.0,-73.0,46.0,10.0,29.0,-5.0,0
244.0,-77.0,46.0,7.0,11.0,-7.0,0
250.0,-81.0,37.0,-1.0,-17.0,-4.0,0
248.0,-83.0,53.0,-19.0,-57.0,-7.0,0
244.0,-82.0,42.0,-35.0,-129.0,-17.0,0
246.0,-89.0,41.0,-26.0,-211.0,-6.0,0
245.0,-93.0,45.0,-9.0,-288.0,-1.0,0
244.0,-106.0,46.0,15.0,-379.0,-1.0,0
240.0,-112.0,51.0,54.0,-496.0,0.0,0
243.0,-118.0,59.0,117.0,-582.0,-10.0,0
234.0,-118.0,65.0,179.0,-654.0,-29.0,0
233.0,-118.0,69.0,240.0,-706.0,-59.0,0
232.0,-112.0,70.0,292.0,-736.0,-94.0,0
232.0,-107.0,64.0,328.0,-746.0,-141.0,0
235.0,-101.0,50.0,351.0,-744.0,-188.0,0
240.0,-94.0,36.0,363.0,-722.0,-244.0,0
242.0,-83.0,21.0,366.0,-675.0,-293.0,0
245.0,-71.0,10.0,361.0,-590.0,-338.0,0
246.0,-55.0,3.0,340.0,-509.0,-360.0,0
250.0,-41.0,1.0,307.0,-430.0,-366.0,0
249.0,-32.0,4.0,248.0,-355.0,-367.0,0
249.0,-28.0,10.0,168.0,-297.0,-356.0,0
249.0,-34.0,19.0,92.0,-255.0,-321.0,0
254.0,-40.0,23.0,34.0,-227.0,-283.0,0
245.0,-48.0,33.0,-5.0,-219.0,-260.0,0
252.0,-55.0,31.0,-16.0,-230.0,-234.0,0
253.0,-55.0,30.0,-5.0,-241.0,-212.0,0
252.0,-47.0,32.0,13.0,-239.0,-193.0,0
251.0,-45.0,26.0,11.0,-223.0,-181.0,0
255.0,-45.0,16.0,-16.0,-204.0,-177.0,0
257.0,-44.0,14.0,-62.0,-182.0,-175.0,0
260.0,-43.0,17.0,-115.0,-159.0,-178.0,0
260.0,-49.0,20.0,-167.0,-131.0,-184.0,0
267.0,-50.0,18.0,-212.0,-107.0,-191.0,0
270.0,-55.0,23.0,-241.0,-77.0,-201.0,0
272.0,-53.0,21.0,-260.0,-39.0,-217.0,0
273.0,-55.0,23.0,-275.0,12.0,-230.0,0
274.0,-57.0,19.0,-286.0,53.0,-240.0,0
269.0,-63.0,21.0,-296.0,84.0,-254.0,0
271.0,-67.0,16.0,-303.0,102.0,-266.0,0
271.0,-68.0,11.0,-298.0,117.0,-278.0,0
269.0,-73.0,17.0,-286.0,135.0,-286.0,0
267.0,-70.0,14.0,-270.0,156.0,-300.0,0
263.0,-71.0,18.0,-251.0,170.0,-310.0,0
265.0,-68.0,21.0,-231.0,178.0,-320.0,0
263.0,-71.0,15.0,-205.0,184.0,-331.0,0
263.0,-67.0,18.0,-183.0,199.0,-345.0,0
260.0,-66.0,20.0,-162.0,229.0,-361.0,0
256.0,-63.0,24.0,-144.0,264.0,-373.0,0
251.0,-63.0,32.0,-127.0,294.0,-376.0,0
248.0,-62.0,35.0,-108.0,307.0,-374.0,0
253.0,-60.0,40.0,-89.0,316.0,-369.0,0
252.0,-55.0,35.0,-73.0,321.0,-371.0,0
255.0,-48.0,37.0,-69.0,324.0,-380.0,0
251.0,-45.0,39.0,-72.0,317.0,-391.0,0
249.0,-36.0,44.0,-73.0,306.0,-392.0,0
253.0,-28.0,49.0,-74.0,289.0,-390.0,0
247.0,-15.0,47.0,-86.0,261.0,-380.0,0
249.0,-5.0,43.0,-118.0,222.0,-355.0,0
255.0,-1.0,41.0,-155.0,190.0,-322.0,0
255.0,-8.0,38.0,-187.0,178.0,-296.0,0
256.0,-3.0,37.0,-198.0,168.0,-277.0,0
254.0,-1.0,43.0,-199.0,140.0,-262.0,0
254.0,3.0,47.0,-200.0,83.0,-223.0,0
254.0,8.0,50.0,-226.0,48.0,-188.0,0
248.0,15.0,53.0,-273.0,44.0,-152.0,0
248.0,16.0,64.0,-328.0,68.0,-126.0,0
243.0,20.0,65.0,-368.0,98.0,-106.0,0
244.0,15.0,65.0,-392.0,117.0,-95.0,0
248.0,15.0,61.0,-407.0,127.0,-86.0,0
241.0,13.0,59.0,-422.0,119.0,-72.0,0
240.0,7.0,65.0,-433.0,91.0,-20.0,0
238.0,4.0,69.0,-425.0,51.0,60.0,0
236.0,6.0,68.0,-400.0,25.0,127.0,0
234.0,3.0,65.0,-377.0,-1.0,183.0,0
232.0,-5.0,61.0,-359.0,-32.0,237.0,0
230.0,-12.0,57.0,-343.0,-81.0,287.0,0
235.0,-20.0,42.0,-322.0,-146.0,342.0,0
245.0,-29.0,33.0,-278.0,-201.0,389.0,0
256.0,-20.0,38.0,-217.0,-220.0,429.0,0
269.0,-11.0,52.0,-147.0,-195.0,454.0,0
271.0,-7.0,62.0,-77.0,-141.0,487.0,0
272.0,9.0,70.0,-17.0,-101.0,506.0,0
276.0,26.0,60.0,-22.0,-107.0,526.0,0
280.0,36.0,40.0,-69.0,-112.0,533.0,0
279.0,38.0,31.0,-129.0,-73.0,537.0,0
276.0,27.0,17.0,-163.0,11.0,532.0,0
269.0,14.0,-32.0,-153.0,78.0,543.0,0
266.0,10.0,-11.0,-106.0,90.0,552.0,0
261.0,11.0,-14.0,-24.0,68.0,597.0,0
261.0,11.0,-3.0,71.0,66.0,656.0,0
251.0,16.0,13.0,155.0,100.0,678.0,0
239.0,18.0,27.0,191.0,146.0,663.0,0
221.0,20.0,21.0,195.0,186.0,641.0,0
197.0,15.0,12.0,172.0,199.0,618.0,0
188.0,13.0,9.0,140.0,185.0,619.0,0
183.0,10.0,7.0,127.0,153.0,632.0,0
182.0,5.0,8.0,136.0,130.0,643.0,0
173.0,1.0,-11.0,160.0,132.0,643.0,0
156.0,-10.0,-44.0,173.0,124.0,676.0,0
150.0,-27.0,-57.0,168.0,48.0,733.0,0
177.0,-39.0,-45.0,184.0,-21.0,783.0,0
200.0,-48.0,-21.0,230.0,-32.0,788.0,0
215.0,-49.0,-6.0,280.0,14.0,804.0,0
232.0,-55.0,-3.0,309.0,45.0,828.0,0
242.0,-66.0,-26.0,282.0,23.0,881.0,0
264.0,-76.0,-56.0,223.0,-44.0,922.0,0
295.0,-88.0,-74.0,172.0,-102.0,966.0,0
319.0,-95.0,-77.0,166.0,-87.0,997.0,0
339.0,-108.0,-60.0,226.0,37.0,1046.0,0
339.0,-115.0,-46.0,291.0,173.0,1087.0,0
351.0,-126.0,-33.0,342.0,278.0,1122.0,0
365.0,-141.0,-23.0,367.0,328.0,1137.0,0
374.0,-151.0,-22.0,380.0,366.0,1139.0,0
379.0,-166.0,-18.0,384.0,437.0,1129.0,0
381.0,-182.0,-10.0,395.0,546.0,1114.0,0
372.0,-185.0,0.0,425.0,685.0,1071.0,0
361.0,-172.0,-4.0,471.0,831.0,1052.0,0
340.0,-162.0,-15.0,507.0,972.0,1056.0,0
301.0,-150.0,-28.0,511.0,1024.0,1046.0,0
266.0,-138.0,-23.0,473.0,1024.0,1021.0,0
243.0,-139.0,-4.0,411.0,975.0,1010.0,0
230.0,-149.0,23.0,340.0,904.0,1013.0,0
217.0,-164.0,39.0,283.0,843.0,1009.0,0
216.0,-173.0,44.0,240.0,786.0,994.0,0
218.0,-177.0,38.0,212.0,726.0,998.0,0
215.0,-166.0,30.0,193.0,676.0,997.0,0
216.0,-148.0,25.0,188.0,625.0,1008.0,0
213.0,-130.0,29.0,187.0,591.0,1012.0,0
215.0,-107.0,35.0,162.0,567.0,1013.0,0
221.0,-95.0,46.0,110.0,565.0,1022.0,0
224.0,-90.0,66.0,44.0,587.0,1041.0,0
224.0,-92.0,74.0,-25.0,623.0,1075.0,0
224.0,-102.0,79.0,-85.0,659.0,1119.0,0
215.0,-111.0,67.0,-123.0,697.0,1157.0,0
211.0,-115.0,60.0,-141.0,748.0,1195.0,0
202.0,-120.0,50.0,-142.0,804.0,1225.0,0
192.0,-121.0,48.0,-127.0,877.0,1245.0,0
186.0,-126.0,49.0,-113.0,934.0,1258.0,0
181.0,-122.0,49.0,-101.0,984.0,1271.0,0
180.0,-126.0,54.0,-97.0,1023.0,1282.0,0
177.0,-131.0,60.0,-97.0,1047.0,1300.0,0
180.0,-136.0,63.0,-105.0,1053.0,1314.0,0
176.0,-141.0,69.0,-116.0,1052.0,1332.0,0
177.0,-144.0,72.0,-123.0,1056.0,1335.0,0
177.0,-147.0,81.0,-125.0,1058.0,1333.0,0
178.0,-147.0,84.0,-121.0,1052.0,1321.0,0
176.0,-147.0,84.0,-117.0,1044.0,1310.0,0
178.0,-144.0,84.0,-113.0,1040.0,1300.0,0
178.0,-144.0,90.0,-97.0,1040.0,1298.0,0
181.0,-142.0,87.0,-83.0,1046.0,1297.0,0
180.0,-139.0,94.0,-74.0,1057.0,1298.0,0
179.0,-145.0,89.0,-73.0,1070.0,1295.0,0
173.0,-148.0,99.0,-80.0,1069.0,1294.0,0
173.0,-149.0,101.0,-91.0,1046.0,1287.0,0
175.0,-156.0,104.0,-116.0,998.0,1275.0,0
176.0,-161.0,102.0,-143.0,949.0,1250.0,0
177.0,-172.0,104.0,-161.0,908.0,1221.0,0
172.0,-177.0,103.0,-166.0,878.0,1182.0,0
165.0,-182.0,109.0,-159.0,861.0,1149.0,0
163.0,-182.0,108.0,-147.0,852.0,1115.0,0
155.0,-181.0,107.0,-131.0,846.0,1089.0,0
149.0,-180.0,115.0,-118.0,845.0,1066.0,0
144.0,-171.0,113.0,-113.0,842.0,1047.0,0
143.0,-166.0,109.0,-119.0,836.0,1030.0,0
145.0,-159.0,102.0,-154.0,822.0,1026.0,0
150.0,-157.0,99.0,-193.0,798.0,1024.0,0
154.0,-161.0,97.0,-228.0,769.0,1025.0,0
157.0,-170.0,97.0,-246.0,735.0,1026.0,0
158.0,-180.0,94.0,-252.0,701.0,1031.0,0
164.0,-189.0,91.0,-244.0,676.0,1028.0,0
164.0,-192.0,85.0,-215.0,667.0,1022.0,0
163.0,-193.0,87.0,-173.0,670.0,1013.0,0
160.0,-186.0,87.0,-131.0,681.0,1000.0,0
159.0,-179.0,89.0,-98.0,684.0,983.0,0
157.0,-171.0,90.0,-84.0,683.0,976.0,0
156.0,-165.0,85.0,-80.0,678.0,966.0,0
154.0,-164.0,90.0,-84.0,670.0,966.0,0
150.0,-169.0,90.0,-91.0,661.0,964.0,0
151.0,-171.0,97.0,-100.0,654.0,961.0,0
151.0,-177.0,96.0,-106.0,647.0,957.0,0
151.0,-177.0,97.0,-113.0,645.0,953.0,0
151.0,-180.0,93.0,-122.0,646.0,944.0,0
152.0,-180.0,97.0,-130.0,654.0,932.0,0
145.0,-179.0,97.0,-135.0,656.0,919.0,0
144.0,-177.0,99.0,-141.0,649.0,905.0,0
142.0,-180.0,104.0,-147.0,628.0,888.0,0
139.0,-183.0,96.0,-149.0,604.0,869.0,0
139.0,-184.0,106.0,-161.0,582.0,863.0,0
137.0,-190.0,106.0,-176.0,572.0,857.0,0
132.0,-192.0,108.0,-184.0,576.0,850.0,0
129.0,-190.0,110.0,-189.0,579.0,837.0,0
127.0,-190.0,103.0,-200.0,586.0,828.0,0
126.0,-188.0,102.0,-216.0,591.0,821.0,0
130.0,-192.0,97.0,-234.0,590.0,819.0,0
128.0,-192.0,100.0,-253.0,584.0,816.0,0
126.0,-194.0,96.0,-270.0,570.0,818.0,0
123.0,-194.0,97.0,-288.0,553.0,820.0,0
128.0,-198.0,96.0,-297.0,539.0,825.0,0
130.0,-201.0,97.0,-301.0,530.0,828.0,0
129.0,-204.0,102.0,-300.0,528.0,831.0,0
123.0,-200.0,104.0,-298.0,531.0,827.0,0
126.0,-202.0,102.0,-301.0,526.0,822.0,0
125.0,-199.0,106.0,-305.0,516.0,815.0,0
121.0,-198.0,103.0,-312.0,502.0,813.0,0
124.0,-198.0,100.0,-325.0,488.0,806.0,0
124.0,-200.0,96.0,-336.0,484.0,804.0,0
126.0,-201.0,98.0,-340.0,485.0,800.0,0
124.0,-202.0,93.0,-341.0,491.0,798.0,0
118.0,-199.0,92.0,-340.0,501.0,795.0,0
116.0,-203.0,93.0,-342.0,512.0,797.0,0
116.0,-206.0,93.0,-347.0,523.0,793.0,0
114.0,-206.0,94.0,-348.0,534.0,791.0,0
112.0,-208.0,90.0,-346.0,543.0,784.0,0
115.0,-211.0,89.0,-345.0,551.0,782.0,0
110.0,-212.0,90.0,-342.0,553.0,778.0,0
109.0,-210.0,96.0,-340.0,547.0,781.0,0
106.0,-213.0,94.0,-335.0,536.0,783.0,0
104.0,-211.0,93.0,-327.0,525.0,787.0,0
101.0,-212.0,98.0,-319.0,517.0,788.0,0
95.0,-211.0,100.0,-312.0,503.0,794.0,0
93.0,-213.0,95.0,-310.0,490.0,796.0,0
90.0,-215.0,97.0,-307.0,474.0,803.0,0
90.0,-214.0,92.0,-304.0,462.0,805.0,0
90.0,-218.0,97.0,-295.0,454.0,809.0,0
89.0,-221.0,96.0,-279.0,449.0,811.0,0
89.0,-220.0,96.0,-260.0,447.0,815.0,0
89.0,-222.0,95.0,-249.0,436.0,814.0,0
85.0,-225.0,94.0,-246.0,432.0,817.0,0
85.0,-222.0,90.0,-244.0,436.0,817.0,0
80.0,-228.0,94.0,-238.0,438.0,817.0,0
77.0,-226.0,97.0,-231.0,443.0,812.0,0
72.0,-224.0,101.0,-218.0,441.0,810.0,0
66.0,-223.0,100.0,-208.0,434.0,804.0,0
67.0,-222.0,97.0,-203.0,419.0,802.0,0
66.0,-224.0,100.0,-202.0,399.0,798.0,0
65.0,-223.0,99.0,-198.0,380.0,802.0,0
66.0,-221.0,100.0,-196.0,361.0,803.0,0
65.0,-218.0,97.0,-192.0,340.0,810.0,0
62.0,-219.0,93.0,-190.0,321.0,811.0,0
64.0,-218.0,89.0,-194.0,304.0,816.0,0
61.0,-220.0,86.0,-201.0,290.0,817.0,0
64.0,-221.0,81.0,-213.0,282.0,828.0,0
65.0,-222.0,88.0,-219.0,278.0,831.0,0
68.0,-232.0,92.0,-220.0,278.0,838.0,0
71.0,-236.0,90.0,-216.0,281.0,838.0,0
73.0,-241.0,98.0,-208.0,283.0,842.0,0
70.0,-241.0,98.0,-198.0,279.0,846.0,0
71.0,-244.0,94.0,-193.0,271.0,851.0,0
70.0,-244.0,92.0,-190.0,260.0,855.0,0
66.0,-245.0,89.0,-187.0,255.0,862.0,0
68.0,-243.0,83.0,-184.0,258.0,862.0,0
64.0,-240.0,81.0,-186.0,270.0,865.0,0
66.0,-241.0,80.0,-182.0,290.0,860.0,0
63.0,-240.0,75.0,-177.0,316.0,858.0,0
58.0,-233.0,78.0,-174.0,342.0,851.0,0
57.0,-235.0,75.0,-186.0,358.0,845.0,0
52.0,-231.0,72.0,-222.0,362.0,831.0,0
54.0,-233.0,70.0,-259.0,359.0,816.0,0
54.0,-236.0,68.0,-292.0,356.0,796.0,0
53.0,-238.0,66.0,-318.0,357.0,781.0,0
51.0,-239.0,65.0,-334.0,360.0,758.0,0
50.0,-237.0,66.0,-345.0,359.0,740.0,0
52.0,-243.0,64.0,-353.0,353.0,719.0,0
52.0,-247.0,65.0,-358.0,345.0,703.0,0
52.0,-252.0,73.0,-356.0,334.0,678.0,0
51.0,-254.0,78.0,-340.0,320.0,661.0,0
55.0,-258.0,80.0,-318.0,318.0,642.0,0
55.0,-261.0,86.0,-291.0,324.0,634.0,0
53.0,-260.0,87.0,-266.0,339.0,615.0,0
54.0,-261.0,89.0,-249.0,352.0,598.0,0
53.0,-260.0,91.0,-237.0,366.0,579.0,0
55.0,-263.0,86.0,-229.0,382.0,566.0,0
54.0,-262.0,90.0,-219.0,397.0,541.0,0
53.0,-262.0,91.0,-210.0,415.0,523.0,0
49.0,-259.0,84.0,-202.0,448.0,489.0,0
39.0,-263.0,82.0,-197.0,469.0,461.0,0
32.0,-268.0,83.0,-206.0,480.0,430.0,0
25.0,-266.0,80.0,-228.0,482.0,401.0,0
15.0,-270.0,76.0,-260.0,476.0,368.0,0
5.0,-271.0,77.0,-299.0,465.0,340.0,0
-3.0,-273.0,75.0,-323.0,451.0,306.0,0
-10.0,-277.0,76.0,-331.0,432.0,281.0,0
-17.0,-277.0,74.0,-320.0,409.0,256.0,0
-22.0,-273.0,76.0,-294.0,385.0,242.0,0
-28.0,-267.0,78.0,-245.0,359.0,231.0,0
-27.0,-261.0,79.0,-204.0,329.0,235.0,0
-25.0,-252.0,80.0,-167.0,297.0,239.0,0
-20.0,-243.0,78.0,-141.0,269.0,243.0,0
-18.0,-233.0,76.0,-138.0,242.0,251.0,0
-10.0,-225.0,76.0,-154.0,226.0,268.0,0
-9.0,-217.0,74.0,-187.0,222.0,280.0,0
-10.0,-216.0,74.0,-236.0,220.0,299.0,0
-9.0,-215.0,78.0,-291.0,218.0,318.0,0
-5.0,-218.0,72.0,-355.0,212.0,328.0,0
-6.0,-220.0,72.0,-402.0,206.0,333.0,0
-4.0,-225.0,73.0,-444.0,207.0,339.0,0
-4.0,-227.0,72.0,-482.0,213.0,342.0,0
-7.0,-230.0,73.0,-522.0,226.0,349.0,0
-3.0,-234.0,77.0,-560.0,240.0,357.0,0
-5.0,-240.0,79.0,-593.0,252.0,370.0,0
-9.0,-244.0,83.0,-624.0,263.0,378.0,0
-10.0,-248.0,87.0,-648.0,265.0,391.0,0
-12.0,-245.0,84.0,-672.0,262.0,398.0,0
-12.0,-250.0,85.0,-695.0,254.0,406.0,0
-12.0,-249.0,84.0,-717.0,242.0,415.0,0
-14.0,-248.0,77.0,-737.0,229.0,427.0,0
-13.0,-247.0,76.0,-751.0,219.0,435.0,0
-12.0,-248.0,70.0,-758.0,221.0,444.0,0
-14.0,-249.0,72.0,-758.0,231.0,449.0,0
-12.0,-251.0,67.0,-758.0,240.0,454.0,0
-17.0,-247.0,70.0,-758.0,246.0,457.0,0
-14.0,-250.0,63.0,-751.0,246.0,464.0,0
-13.0,-249.0,62.0,-746.0,240.0,471.0,0
-17.0,-248.0,58.0,-744.0,232.0,475.0,0
-16.0,-255.0,57.0,-740.0,227.0,481.0,0
-15.0,-248.0,52.0,-738.0,225.0,488.0,0
-12.0,-255.0,50.0,-739.0,228.0,492.0,0
-13.0,-257.0,51.0,-746.0,234.0,492.0,0
-12.0,-266.0,48.0,-754.0,242.0,491.0,0
-10.0,-273.0,50.0,-761.0,250.0,489.0,0
-10.0,-274.0,47.0,-761.0,258.0,483.0,0
-11.0,-278.0,43.0,-746.0,264.0,473.0,0
-14.0,-275.0,46.0,-725.0,267.0,463.0,0
-12.0,-277.0,41.0,-696.0,268.0,447.0,0
-13.0,-273.0,35.0,-671.0,268.0,437.0,0
-17.0,-273.0,34.0,-648.0,265.0,424.0,0
-20.0,-269.0,34.0,-631.0,264.0,412.0,0
-21.0,-263.0,28.0,-620.0,267.0,398.0,0
-21.0,-262.0,25.0,-612.0,271.0,384.0,0
-22.0,-259.0,24.0,-615.0,284.0,372.0,0
-26.0,-259.0,20.0,-626.0,301.0,366.0,0
-26.0,-254.0,22.0,-638.0,309.0,358.0,0
-25.0,-254.0,16.0,-656.0,313.0,355.0,0
-29.0,-253.0,16.0,-680.0,321.0,347.0,0
-28.0,-259.0,18.0,-700.0,331.0,340.0,0
-25.0,-256.0,15.0,-716.0,337.0,332.0,0
-28.0,-260.0,14.0,-727.0,336.0,323.0,0
-28.0,-264.0,13.0,-730.0,331.0,315.0,0
-29.0,-266.0,15.0,-725.0,328.0,308.0,0
-31.0,-270.0,13.0,-717.0,317.0,303.0,0
-34.0,-270.0,15.0,-706.0,305.0,291.0,0
-30.0,-273.0,12.0,-689.0,289.0,275.0,0
-33.0,-270.0,11.0,-677.0,273.0,262.0,0
-33.0,-274.0,14.0,-662.0,264.0,244.0,0
-29.0,-269.0,10.0,-647.0,254.0,227.0,0
-26.0,-274.0,9.0,-636.0,240.0,206.0,0
-25.0,-269.0,9.0,-631.0,231.0,190.0,0
-24.0,-275.0,7.0,-627.0,224.0,168.0,0
-25.0,-272.0,7.0,-623.0,212.0,143.0,0
-24.0,-274.0,3.0,-617.0,197.0,121.0,0
-22.0,-271.0,9.0,-614.0,184.0,103.0,0
-21.0,-270.0,1.0,-611.0,171.0,82.0,0
-17.0,-272.0,1.0,-609.0,162.0,66.0,0
-21.0,-269.0,2.0,-607.0,159.0,50.0,0
-20.0,-273.0,2.0,-601.0,151.0,36.0,0
-22.0,-273.0,4.0,-595.0,139.0,22.0,0
-27.0,-272.0,4.0,-589.0,117.0,11.0,0
-25.0,-272.0,3.0,-582.0,93.0,-3.0,0
-21.0,-271.0,2.0,-578.0,67.0,-4.0,0
-25.0,-266.0,-2.0,-580.0,56.0,-8.0,0
-23.0,-269.0,-2.0,-582.0,46.0,-4.0,0
-24.0,-268.0,-1.0,-578.0,36.0,-3.0,0
-26.0,-267.0,-2.0,-576.0,27.0,-4.0,0
-25.0,-271.0,0.0,-574.0,22.0,-11.0,0
-30.0,-269.0,-3.0,-570.0,18.0,-15.0,0
-31.0,-271.0,-4.0,-568.0,11.0,-20.0,0
-31.0,-270.0,-2.0,-569.0,2.0,-24.0,0
-34.0,-273.0,-11.0,-561.0,-5.0,-33.0,0
-33.0,-276.0,-9.0,-553.0,-10.0,-37.0,0
-32.0,-276.0,-7.0,-539.0,-14.0,-49.0,0
-32.0,-277.0,-11.0,-521.0,-23.0,-54.0,0
-34.0,-278.0,-9.0,-504.0,-30.0,-64.0,0
-30.0,-276.0,-10.0,-486.0,-37.0,-69.0,0
-30.0,-275.0,-10.0,-472.0,-42.0,-74.0,0
-31.0,-273.0,-13.0,-465.0,-49.0,-73.0,0
-31.0,-274.0,-12.0,-464.0,-55.0,-75.0,0
-30.0,-273.0,-14.0,-470.0,-65.0,-71.0,0
-33.0,-273.0,-13.0,-478.0,-76.0,-74.0,0
-28.0,-274.0,-14.0,-488.0,-86.0,-72.0,0
-29.0,-272.0,-15.0,-500.0,-91.0,-73.0,0
-24.0,-269.0,-21.0,-518.0,-90.0,-71.0,0
-27.0,-275.0,-12.0,-528.0,-88.0,-80.0,0
-30.0,-277.0,-10.0,-531.0,-85.0,-85.0,0
-26.0,-274.0,-16.0,-519.0,-87.0,-92.0,0
-23.0,-278.0,-15.0,-509.0,-86.0,-93.0,0
-23.0,-274.0,-12.0,-496.0,-84.0,-102.0,0
-22.0,-277.0,-13.0,-482.0,-80.0,-102.0,0
-23.0,-274.0,-12.0,-471.0,-76.0,-109.0,0
-21.0,-274.0,-13.0,-463.0,-71.0,-109.0,0
-18.0,-272.0,-14.0,-457.0,-69.0,-115.0,0
-21.0,-273.0,-10.0,-453.0,-68.0,-116.0,0
-16.0,-273.0,-17.0,-446.0,-69.0,-122.0,0
-19.0,-276.0,-18.0,-440.0,-72.0,-125.0,0
-16.0,-276.0,-15.0,-428.0,-72.0,-134.0,0
-15.0,-276.0,-19.0,-411.0,-67.0,-141.0,0
-13.0,-276.0,-21.0,-388.0,-62.0,-150.0,0
-13.0,-276.0,-19.0,-366.0,-59.0,-154.0,0
-13.0,-278.0,-20.0,-341.0,-53.0,-164.0,0
-14.0,-277.0,-21.0,-318.0,-48.0,-169.0,0
-14.0,-280.0,-25.0,-298.0,-42.0,-177.0,0
-11.0,-276.0,-28.0,-282.0,-34.0,-182.0,0
-12.0,-276.0,-28.0,-268.0,-27.0,-189.0,0
-12.0,-277.0,-23.0,-256.0,-22.0,-188.0,0
-12.0,-278.0,-24.0,-248.0,-17.0,-190.0,0
-11.0,-278.0,-27.0,-239.0,-14.0,-187.0,0
-12.0,-273.0,-28.0,-234.0,-10.0,-188.0,0
-12.0,-275.0,-33.0,-228.0,-5.0,-189.0,0
-11.0,-272.0,-28.0,-221.0,-1.0,-195.0,0
-12.0,-271.0,-34.0,-217.0,5.0,-196.0,0
-11.0,-276.0,-36.0,-218.0,11.0,-200.0,0
-10.0,-276.0,-27.0,-215.0,16.0,-201.0,0
-9.0,-276.0,-27.0,-213.0,23.0,-204.0,0
-9.0,-275.0,-31.0,-207.0,29.0,-201.0,0
-9.0,-276.0,-33.0,-197.0,32.0,-204.0,0
-8.0,-274.0,-34.0,-189.0,38.0,-205.0,0
-9.0,-272.0,-32.0,-184.0,41.0,-208.0,0
-5.0,-273.0,-32.0,-184.0,43.0,-206.0,0
-4.0,-272.0,-32.0,-188.0,45.0,-208.0,0
-4.0,-273.0,-30.0,-192.0,46.0,-205.0,0
-5.0,-274.0,-28.0,-193.0,45.0,-205.0,0
-4.0,-274.0,-32.0,-194.0,44.0,-202.0,0
-2.0,-276.0,-30.0,-191.0,44.0,-204.0,0
-5.0,-273.0,-31.0,-190.0,42.0,-205.0,0
0.0,-275.0,-34.0,-190.0,43.0,-208.0,0
-2.0,-275.0,-30.0,-188.0,44.0,-209.0,0
-4.0,-274.0,-33.0,-186.0,45.0,-215.0,0
-2.0,-272.0,-37.0,-177.0,45.0,-218.0,0
-3.0,-273.0,-36.0,-169.0,46.0,-225.0,0
-3.0,-277.0,-34.0,-159.0,42.0,-225.0,0
-2.0,-274.0,-36.0,-150.0,37.0,-231.0,0
-3.0,-274.0,-36.0,-141.0,35.0,-234.0,0
-5.0,-274.0,-37.0,-132.0,30.0,-239.0,0
-3.0,-275.0,-35.0,-117.0,26.0,-241.0,0
-3.0,-274.0,-34.0,-106.0,22.0,-241.0,0
-3.0,-272.0,-38.0,-95.0,18.0,-240.0,0
-3.0,-272.0,-35.0,-89.0,15.0,-240.0,0
-1.0,-273.0,-34.0,-88.0,13.0,-239.0,0
-5.0,-270.0,-35.0,-87.0,12.0,-242.0,0
-1.0,-272.0,-30.0,-87.0,14.0,-237.0,0
-2.0,-271.0,-32.0,-88.0,13.0,-237.0,0
-4.0,-273.0,-31.0,-90.0,11.0,-229.0,0
-3.0,-273.0,-33.0,-100.0,1.0,-226.0,0
-2.0,-271.0,-32.0,-105.0,-4.0,-222.0,0
6.0,-258.0,-25.0,-106.0,-6.0,-221.0,0
2.0,-274.0,-34.0,-110.0,-9.0,-222.0,0
1.0,-273.0,-35.0,-110.0,-12.0,-221.0,0
3.0,-272.0,-36.0,-105.0,-14.0,-214.0,0
2.0,-272.0,-31.0,-104.0,-15.0,-214.0,0
3.0,-274.0,-34.0,-100.0,-15.0,-212.0,0
4.0,-273.0,-30.0,-97.0,-17.0,-209.0,0
3.0,-272.0,-35.0,-92.0,-22.0,-211.0,0
3.0,-274.0,-33.0,-90.0,-25.0,-213.0,0
5.0,-273.0,-34.0,-88.0,-29.0,-213.0,0
6.0,-274.0,-36.0,-86.0,-32.0,-212.0,0
4.0,-274.0,-34.0,-86.0,-32.0,-210.0,0
7.0,-276.0,-28.0,-83.0,-32.0,-209.0,0
3.0,-275.0,-35.0,-83.0,-34.0,-205.0,0
6.0,-274.0,-35.0,-78.0,-35.0,-205.0,0
8.0,-274.0,-33.0,-72.0,-34.0,-204.0,0
10.0,-275.0,-31.0,-60.0,-33.0,-203.0,0
6.0,-274.0,-32.0,-48.0,-32.0,-205.0,0
8.0,-273.0,-35.0,-37.0,-30.0,-205.0,0
6.0,-275.0,-33.0,-28.0,-31.0,-201.0,0
8.0,-274.0,-38.0,-21.0,-31.0,-199.0,0
7.0,-276.0,-33.0,-13.0,-29.0,-196.0,0
11.0,-276.0,-35.0,-8.0,-28.0,-197.0,0
11.0,-276.0,-35.0,-5.0,-31.0,-196.0,0
13.0,-275.0,-35.0,-2.0,-30.0,-198.0,0
11.0,-278.0,-34.0,-1.0,-24.0,-199.0,0
13.0,-273.0,-33.0,8.0,-18.0,-198.0,0
12.0,-275.0,-29.0,15.0,-14.0,-198.0,0
12.0,-270.0,-31.0,26.0,-14.0,-195.0,0
11.0,-271.0,-40.0,29.0,-13.0,-194.0,0
11.0,-270.0,-36.0,26.0,-9.0,-191.0,0
9.0,-267.0,-38.0,26.0,-5.0,-187.0,0
11.0,-273.0,-30.0,25.0,0.0,-182.0,0
14.0,-269.0,-35.0,25.0,1.0,-178.0,0
11.0,-270.0,-39.0,27.0,4.0,-175.0,0
14.0,-271.0,-35.0,35.0,6.0,-173.0,0
16.0,-275.0,-34.0,40.0,7.0,-171.0,0
18.0,-273.0,-32.0,45.0,7.0,-171.0,0
16.0,-272.0,-32.0,48.0,8.0,-169.0,0
16.0,-273.0,-32.0,52.0,9.0,-169.0,0
17.0,-270.0,-33.0,56.0,9.0,-165.0,0
18.0,-272.0,-34.0,60.0,8.0,-162.0,0
19.0,-275.0,-32.0,64.0,9.0,-159.0,0
18.0,-273.0,-32.0,68.0,9.0,-156.0,0
18.0,-270.0,-31.0,72.0,9.0,-150.0,0
20.0,-271.0,-34.0,76.0,11.0,-147.0,0
20.0,-268.0,-32.0,80.0,12.0,-141.0,0
19.0,-270.0,-30.0,83.0,13.0,-138.0,0
18.0,-269.0,-32.0,86.0,15.0,-135.0,0
20.0,-271.0,-32.0,85.0,15.0,-133.0,0
18.0,-270.0,-33.0,87.0,15.0,-128.0,0
21.0,-269.0,-35.0,88.0,14.0,-127.0,0
22.0,-272.0,-29.0,91.0,15.0,-123.0,0
21.0,-268.0,-32.0,93.0,16.0,-123.0,0
21.0,-274.0,-33.0,94.0,17.0,-117.0,0
18.0,-269.0,-32.0,95.0,18.0,-116.0,0
18.0,-273.0,-32.0,97.0,18.0,-113.0,0
21.0,-270.0,-31.0,99.0,20.0,-113.0,0
20.0,-272.0,-27.0,101.0,22.0,-111.0,0
22.0,-271.0,-28.0,103.0,24.0,-111.0,0
21.0,-272.0,-28.0,104.0,27.0,-108.0,0
24.0,-272.0,-28.0,106.0,27.0,-108.0,0
21.0,-269.0,-27.0,106.0,29.0,-105.0,0
21.0,-271.0,-27.0,106.0,31.0,-106.0,0
20.0,-270.0,-30.0,104.0,32.0,-104.0,0
20.0,-272.0,-26.0,102.0,34.0,-105.0,0
22.0,-272.0,-25.0,99.0,36.0,-102.0,0
21.0,-273.0,-25.0,99.0,38.0,-102.0,0
20.0,-270.0,-25.0,100.0,39.0,-99.0,0
20.0,-271.0,-24.0,99.0,41.0,-98.0,0
17.0,-271.0,-25.0,100.0,44.0,-94.0,0
18.0,-272.0,-26.0,99.0,47.0,-94.0,0
19.0,-271.0,-24.0,98.0,49.0,-89.0,0
18.0,-272.0,-23.0,94.0,52.0,-90.0,0
20.0,-274.0,-27.0,90.0,57.0,-88.0,0
21.0,-275.0,-27.0,88.0,59.0,-93.0,0
20.0,-275.0,-24.0,87.0,61.0,-93.0,0
20.0,-275.0,-23.0,89.0,65.0,-95.0,0
18.0,-271.0,-21.0,90.0,67.0,-93.0,0
19.0,-272.0,-21.0,91.0,69.0,-93.0,0
19.0,-270.0,-26.0,93.0,70.0,-89.0,0
19.0,-269.0,-24.0,96.0,72.0,-88.0,0
19.0,-269.0,-24.0,95.0,73.0,-86.0,0
20.0,-269.0,-26.0,95.0,71.0,-87.0,0
18.0,-270.0,-23.0,98.0,72.0,-82.0,0
20.0,-270.0,-27.0,101.0,71.0,-81.0,0
22.0,-272.0,-25.0,103.0,69.0,-77.0,0
22.0,-274.0,-25.0,103.0,68.0,-79.0,0
22.0,-273.0,-24.0,104.0,66.0,-74.0,0
21.0,-271.0,-19.0,105.0,65.0,-74.0,0
24.0,-272.0,-23.0,108.0,63.0,-70.0,0
25.0,-273.0,-21.0,112.0,60.0,-71.0,0
23.0,-270.0,-22.0,116.0,59.0,-67.0,0
23.0,-271.0,-23.0,120.0,60.0,-69.0,0
21.0,-272.0,-20.0,121.0,60.0,-64.0,0
24.0,-269.0,-22.0,122.0,59.0,-64.0,0
23.0,-270.0,-26.0,119.0,60.0,-60.0,0
24.0,-271.0,-20.0,119.0,61.0,-59.0,0
23.0,-271.0,-20.0,117.0,63.0,-55.0,0
24.0,-271.0,-23.0,117.0,67.0,-55.0,0
22.0,-269.0,-23.0,118.0,69.0,-52.0,0
23.0,-271.0,-22.0,118.0,71.0,-52.0,0
24.0,-267.0,-19.0,120.0,71.0,-50.0,0
24.0,-272.0,-20.0,120.0,72.0,-52.0,0
22.0,-268.0,-22.0,119.0,70.0,-48.0,0
24.0,-269.0,-21.0,120.0,66.0,-49.0,0
24.0,-270.0,-19.0,118.0,65.0,-47.0,0
27.0,-272.0,-21.0,116.0,65.0,-48.0,0
25.0,-272.0,-23.0,113.0,64.0,-47.0,0
26.0,-269.0,-19.0,112.0,61.0,-47.0,0
25.0,-273.0,-24.0,113.0,58.0,-45.0,0
23.0,-271.0,-18.0,114.0,57.0,-45.0,0
25.0,-273.0,-21.0,114.0,58.0,-43.0,0
23.0,-270.0,-13.0,114.0,56.0,-46.0,0
25.0,-272.0,-18.0,113.0,54.0,-44.0,0
26.0,-270.0,-17.0,113.0,52.0,-48.0,0
23.0,-271.0,-19.0,112.0,53.0,-46.0,0
24.0,-270.0,-20.0,112.0,53.0,-46.0,0
26.0,-273.0,-19.0,110.0,54.0,-44.0,0
23.0,-272.0,-19.0,111.0,51.0,-45.0,0
26.0,-272.0,-20.0,113.0,51.0,-42.0,0
25.0,-273.0,-17.0,114.0,50.0,-43.0,0
24.0,-272.0,-21.0,116.0,50.0,-40.0,0
24.0,-270.0,-19.0,116.0,51.0,-41.0,0
22.0,-272.0,-19.0,114.0,51.0,-39.0,0
23.0,-270.0,-17.0,115.0,52.0,-41.0,0
21.0,-274.0,-19.0,115.0,54.0,-40.0,0
22.0,-271.0,-13.0,116.0,58.0,-41.0,0
21.0,-267.0,-15.0,119.0,58.0,-38.0,0
22.0,-270.0,-17.0,120.0,60.0,-38.0,0
21.0,-265.0,-15.0,119.0,62.0,-35.0,0
26.0,-269.0,-16.0,116.0,60.0,-36.0,0
23.0,-269.0,-14.0,112.0,58.0,-37.0,0
23.0,-267.0,-13.0,105.0,57.0,-39.0,0
22.0,-272.0,-9.0,102.0,54.0,-39.0,0
23.0,-269.0,-12.0,102.0,52.0,-39.0,0
22.0,-269.0,-10.0,107.0,52.0,-37.0,0
24.0,-267.0,-8.0,110.0,50.0,-39.0,0
22.0,-267.0,-12.0,113.0,49.0,-37.0,0
23.0,-266.0,-11.0,111.0,51.0,-35.0,0
23.0,-267.0,-11.0,104.0,52.0,-34.0,0
24.0,-267.0,-11.0,97.0,53.0,-35.0,0
24.0,-270.0,-14.0,88.0,55.0,-33.0,0
25.0,-270.0,-11.0,82.0,57.0,-34.0,0
27.0,-268.0,-9.0,78.0,59.0,-31.0,0
26.0,-267.0,-11.0,74.0,63.0,-29.0,0
27.0,-269.0,-8.0,71.0,63.0,-28.0,0
28.0,-268.0,-4.0,71.0,64.0,-27.0,0
28.0,-269.0,-9.0,70.0,66.0,-26.0,0
27.0,-268.0,-11.0,71.0,65.0,-26.0,0
25.0,-267.0,-14.0,64.0,61.0,-26.0,0
24.0,-268.0,-13.0,58.0,57.0,-26.0,0
29.0,-269.0,-10.0,54.0,54.0,-24.0,0
25.0,-269.0,-13.0,51.0,56.0,-24.0,0
27.0,-268.0,-7.0,54.0,59.0,-23.0,0
25.0,-269.0,-12.0,57.0,64.0,-23.0,0
24.0,-270.0,-8.0,62.0,68.0,-23.0,0
25.0,-267.0,-12.0,65.0,70.0,-24.0,0
28.0,-267.0,-8.0,66.0,72.0,-25.0,0
29.0,-267.0,-5.0,66.0,72.0,-25.0,0
27.0,-269.0,-9.0,63.0,78.0,-23.0,0
26.0,-268.0,-11.0,60.0,78.0,-24.0,0
25.0,-267.0,-6.0,55.0,79.0,-22.0,0
25.0,-264.0,-6.0,53.0,80.0,-21.0,0
25.0,-268.0,-8.0,51.0,79.0,-20.0,0
26.0,-271.0,-11.0,48.0,79.0,-18.0,0
27.0,-271.0,-7.0,46.0,77.0,-17.0,0
26.0,-269.0,-9.0,43.0,74.0,-17.0,0
27.0,-270.0,-7.0,39.0,73.0,-16.0,0
22.0,-268.0,-3.0,36.0,72.0,-15.0,0
26.0,-268.0,-10.0,33.0,73.0,-15.0,0
28.0,-273.0,-5.0,31.0,72.0,-14.0,0
26.0,-269.0,-9.0,31.0,72.0,-14.0,0
25.0,-269.0,-8.0,29.0,73.0,-9.0,0
28.0,-270.0,-10.0,26.0,70.0,-9.0,0
25.0,-269.0,-1.0,23.0,68.0,-8.0,0
26.0,-266.0,-6.0,18.0,68.0,-11.0,0
25.0,-271.0,-10.0,15.0,67.0,-10.0,0
25.0,-269.0,-8.0,15.0,66.0,-10.0,0
25.0,-269.0,-9.0,18.0,66.0,-10.0,0
27.0,-270.0,-8.0,18.0,67.0,-9.0,0
26.0,-267.0,-4.0,21.0,68.0,-9.0,0
26.0,-268.0,-10.0,21.0,68.0,-11.0,0
27.0,-268.0,-11.0,20.0,68.0,-7.0,0
24.0,-270.0,-9.0,17.0,68.0,-9.0,0
26.0,-270.0,-13.0,16.0,68.0,-8.0,0
26.0,-268.0,-7.0,14.0,68.0,-8.0,0
27.0,-271.0,-2.0,15.0,68.0,-6.0,0
28.0,-270.0,-8.0,17.0,69.0,-6.0,0
24.0,-267.0,-6.0,17.0,66.0,-3.0,0
25.0,-271.0,-6.0,17.0,67.0,-6.0,0
25.0,-269.0,-13.0,12.0,64.0,-5.0,0
26.0,-270.0,-5.0,9.0,62.0,-5.0,0
27.0,-269.0,-7.0,6.0,61.0,-2.0,0
27.0,-275.0,-6.0,5.0,60.0,-4.0,0
25.0,-269.0,-3.0,5.0,60.0,-1.0,0
26.0,-272.0,-9.0,8.0,61.0,-2.0,0
28.0,-271.0,-8.0,10.0,63.0,-1.0,0
26.0,-270.0,-9.0,13.0,63.0,-2.0,0
25.0,-269.0,-8.0,13.0,64.0,0.0,0
25.0,-270.0,-5.0,13.0,66.0,-1.0,0
27.0,-268.0,-4.0,14.0,65.0,2.0,0
25.0,-270.0,-1.0,14.0,65.0,1.0,0
24.0,-268.0,-3.0,12.0,65.0,4.0,0
27.0,-272.0,-6.0,13.0,64.0,2.0,0
27.0,-271.0,-9.0,12.0,63.0,3.0,0
28.0,-268.0,-7.0,12.0,62.0,1.0,0
25.0,-269.0,-6.0,12.0,62.0,4.0,0
25.0,-270.0,-7.0,12.0,60.0,3.0,0
27.0,-271.0,-4.0,13.0,59.0,5.0,0
26.0,-271.0,-3.0,14.0,57.0,3.0,0
26.0,-267.0,-5.0,13.0,57.0,6.0,0
26.0,-269.0,-7.0,11.0,57.0,3.0,0
28.0,-268.0,-11.0,9.0,55.0,6.0,0
26.0,-269.0,-2.0,6.0,55.0,4.0,0
24.0,-269.0,-3.0,5.0,55.0,6.0,0
27.0,-272.0,-4.0,4.0,56.0,6.0,0
29.0,-271.0,-3.0,4.0,55.0,7.0,0
26.0,-271.0,-8.0,3.0,58.0,4.0,0
28.0,-273.0,0.0,1.0,57.0,7.0,0
27.0,-270.0,-7.0,-1.0,57.0,5.0,0
27.0,-269.0,-7.0,0.0,56.0,9.0,0
27.0,-268.0,-10.0,-1.0,57.0,5.0,0
24.0,-268.0,-5.0,0.0,53.0,7.0,0
25.0,-268.0,-4.0,-3.0,53.0,6.0,0
24.0,-268.0,-6.0,-6.0,53.0,9.0,0
24.0,-270.0,-7.0,-6.0,53.0,5.0,0
26.0,-272.0,-4.0,-6.0,52.0,7.0,0
25.0,-269.0,-6.0,-7.0,54.0,4.0,0
22.0,-268.0,-1.0,-7.0,54.0,8.0,0
24.0,-270.0,-4.0,-8.0,55.0,5.0,0
25.0,-269.0,-9.0,-6.0,56.0,8.0,0
24.0,-271.0,-6.0,-7.0,57.0,6.0,0
24.0,-269.0,-7.0,-5.0,57.0,9.0,0
27.0,-267.0,-9.0,-6.0,58.0,8.0,0
27.0,-268.0,-8.0,-6.0,59.0,10.0,0
26.0,-268.0,-9.0,-8.0,59.0,8.0,0
26.0,-271.0,-8.0,-8.0,60.0,8.0,0
22.0,-267.0,-5.0,-11.0,59.0,7.0,0
26.0,-267.0,-6.0,-11.0,60.0,9.0,0
27.0,-270.0,-7.0,-11.0,59.0,8.0,0
24.0,-270.0,-3.0,-10.0,60.0,11.0,0
27.0,-270.0,-2.0,-9.0,59.0,9.0,0
26.0,-272.0,-6.0,-9.0,57.0,10.0,0
28.0,-273.0,-8.0,-8.0,57.0,7.0,0
28.0,-272.0,-5.0,-9.0,58.0,11.0,0
23.0,-272.0,-5.0,-9.0,58.0,9.0,0
24.0,-269.0,-3.0,-6.0,59.0,11.0,0
26.0,-267.0,-8.0,-4.0,60.0,9.0,0
26.0,-269.0,-5.0,-3.0,61.0,11.0,0
26.0,-269.0,-5.0,-3.0,60.0,8.0,0
24.0,-269.0,-10.0,-4.0,59.0,12.0,0
26.0,-270.0,-5.0,-4.0,58.0,9.0,0
25.0,-270.0,-6.0,-5.0,60.0,12.0,0
24.0,-267.0,-9.0,-5.0,59.0,10.0,0
25.0,-271.0,-7.0,-5.0,59.0,12.0,0
28.0,-270.0,-4.0,-5.0,60.0,11.0,0
25.0,-270.0,-1.0,-5.0,60.0,11.0,0
26.0,-270.0,0.0,-4.0,62.0,6.0,0
24.0,-269.0,-4.0,-4.0,61.0,6.0,0
27.0,-270.0,-3.0,-6.0,61.0,4.0,0
24.0,-271.0,-6.0,-6.0,63.0,5.0,0
24.0,-271.0,-5.0,-3.0,64.0,3.0,0
26.0,-273.0,-7.0,2.0,64.0,6.0,0
26.0,-270.0,-10.0,5.0,62.0,6.0,0
24.0,-267.0,-14.0,5.0,62.0,7.0,0
24.0,-269.0,-7.0,3.0,61.0,7.0,0
26.0,-272.0,-10.0,2.0,60.0,9.0,0
21.0,-271.0,-3.0,4.0,59.0,7.0,0
24.0,-270.0,-12.0,7.0,59.0,8.0,0
26.0,-270.0,-7.0,12.0,61.0,6.0,0
23.0,-267.0,-9.0,17.0,63.0,8.0,0
24.0,-271.0,-7.0,20.0,66.0,6.0,0
23.0,-269.0,-9.0,22.0,66.0,6.0,0
24.0,-267.0,-4.0,19.0,65.0,5.0,0
24.0,-270.0,-8.0,15.0,64.0,6.0,0
23.0,-269.0,-7.0,12.0,64.0,4.0,0
25.0,-268.0,-5.0,11.0,65.0,7.0,0
24.0,-270.0,-1.0,12.0,67.0,5.0,0
29.0,-270.0,-3.0,11.0,63.0,8.0,0
24.0,-270.0,-10.0,10.0,62.0,6.0,0
26.0,-271.0,-1.0,9.0,61.0,8.0,0
26.0,-268.0,-6.0,7.0,60.0,6.0,0
26.0,-272.0,-8.0,7.0,58.0,8.0,0
27.0,-272.0,-6.0,8.0,58.0,7.0,0
25.0,-273.0,-3.0,9.0,59.0,8.0,0
25.0,-272.0,-2.0,13.0,60.0,8.0,0
24.0,-271.0,-5.0,16.0,59.0,10.0,0
23.0,-270.0,-7.0,15.0,60.0,8.0,0
26.0,-269.0,-4.0,16.0,62.0,9.0,0
25.0,-269.0,-8.0,14.0,62.0,8.0,0
25.0,-267.0,-2.0,13.0,63.0,8.0,0
23.0,-270.0,-5.0,11.0,60.0,7.0,0
25.0,-267.0,-6.0,12.0,60.0,6.0,0
25.0,-268.0,-8.0,13.0,61.0,5.0,0
24.0,-268.0,-3.0,14.0,59.0,4.0,0
27.0,-271.0,-5.0,14.0,59.0,4.0,0
25.0,-272.0,-6.0,12.0,59.0,2.0,0
24.0,-271.0,-2.0,11.0,58.0,1.0,0
24.0,-269.0,-3.0,10.0,59.0,1.0,0
26.0,-269.0,-2.0,12.0,61.0,0.0,0
23.0,-270.0,-1.0,12.0,62.0,0.0,0
25.0,-271.0,-3.0,14.0,61.0,2.0,0
22.0,-270.0,-9.0,13.0,62.0,1.0,0
23.0,-269.0,-4.0,13.0,62.0,1.0,0
24.0,-269.0,-5.0,11.0,62.0,0.0,0
24.0,-269.0,-6.0,10.0,61.0,2.0,0
23.0,-271.0,0.0,9.0,62.0,3.0,0
27.0,-273.0,-2.0,7.0,61.0,6.0,0
28.0,-270.0,-1.0,8.0,60.0,7.0,0
26.0,-270.0,-5.0,7.0,60.0,6.0,0
21.0,-268.0,-7.0,8.0,60.0,4.0,0
24.0,-266.0,-3.0,6.0,61.0,5.0,0
25.0,-270.0,-2.0,6.0,61.0,3.0,0
27.0,-269.0,-7.0,4.0,60.0,2.0,0
24.0,-269.0,-2.0,5.0,59.0,2.0,0
29.0,-270.0,-5.0,5.0,60.0,4.0,0
26.0,-269.0,-1.0,5.0,59.0,1.0,0
24.0,-271.0,-2.0,5.0,58.0,2.0,0
26.0,-269.0,-3.0,4.0,59.0,3.0,0
27.0,-267.0,-3.0,3.0,59.0,2.0,0
28.0,-271.0,-3.0,3.0,60.0,0.0,0
21.0,-270.0,-3.0,2.0,60.0,2.0,0
26.0,-272.0,-5.0,0.0,62.0,1.0,0
27.0,-268.0,0.0,1.0,61.0,2.0,0
25.0,-271.0,-3.0,2.0,62.0,1.0,0
24.0,-269.0,-2.0,2.0,63.0,2.0,0
25.0,-269.0,0.0,2.0,62.0,0.0,0
25.0,-268.0,-3.0,1.0,65.0,1.0,0
23.0,-271.0,-5.0,2.0,65.0,0.0,0
24.0,-268.0,-4.0,1.0,63.0,0.0,0
25.0,-274.0,-2.0,0.0,64.0,0.0,0
26.0,-270.0,-3.0,-1.0,61.0,2.0,0
23.0,-270.0,-3.0,-1.0,60.0,0.0,0
22.0,-268.0,-1.0,0.0,60.0,2.0,0
25.0,-271.0,-3.0,-1.0,58.0,0.0,0
25.0,-270.0,-4.0,-3.0,58.0,2.0,0
24.0,-268.0,-9.0,-5.0,58.0,-1.0,0
22.0,-270.0,-8.0,-5.0,58.0,0.0,0
25.0,-267.0,-5.0,-5.0,59.0,-2.0,0
23.0,-269.0,-4.0,-4.0,59.0,0.0,0
23.0,-268.0,-1.0,-5.0,59.0,-2.0,0
23.0,-273.0,-4.0,-4.0,61.0,-3.0,0
23.0,-268.0,-7.0,-2.0,63.0,-6.0,0
25.0,-270.0,-3.0,-1.0,64.0,-4.0,0
24.0,-271.0,-4.0,0.0,64.0,-7.0,0
22.0,-269.0,-2.0,0.0,65.0,-5.0,0
26.0,-268.0,-4.0,0.0,67.0,-5.0,0
24.0,-270.0,-5.0,0.0,67.0,-1.0,0
25.0,-270.0,-2.0,0.0,67.0,-5.0,0
27.0,-272.0,-3.0,1.0,68.0,-2.0,0
23.0,-272.0,-2.0,3.0,67.0,-3.0,0
6.0,-273.0,-10.0,5.0,66.0,-2.0,0
25.0,-270.0,-7.0,6.0,64.0,-4.0,0
22.0,-269.0,-1.0,6.0,64.0,-3.0,0
24.0,-266.0,-3.0,4.0,61.0,-6.0,0
22.0,-270.0,-4.0,3.0,60.0,-3.0,0
23.0,-267.0,-5.0,1.0,61.0,-5.0,0
26.0,-271.0,-2.0,1.0,61.0,-3.0,0
24.0,-270.0,-5.0,2.0,59.0,-4.0,0
27.0,-269.0,-4.0,1.0,60.0,-2.0,0
25.0,-270.0,-3.0,3.0,60.0,-5.0,0
25.0,-269.0,-7.0,4.0,60.0,-2.0,0
26.0,-270.0,-3.0,5.0,63.0,-4.0,0
23.0,-271.0,-6.0,7.0,62.0,-3.0,0
24.0,-269.0,-3.0,8.0,61.0,-5.0,0
25.0,-272.0,-5.0,11.0,62.0,-4.0,0
23.0,-269.0,-5.0,12.0,61.0,-5.0,0
26.0,-269.0,-6.0,13.0,62.0,-3.0,0
22.0,-271.0,-5.0,14.0,62.0,-5.0,0
26.0,-269.0,-5.0,16.0,63.0,-3.0,0
23.0,-270.0,-4.0,16.0,63.0,-6.0,0
26.0,-268.0,-1.0,18.0,62.0,-3.0,0
24.0,-268.0,-1.0,17.0,62.0,-5.0,0
23.0,-269.0,-3.0,18.0,62.0,-3.0,0
26.0,-270.0,-7.0,17.0,62.0,-5.0,0
25.0,-267.0,-1.0,15.0,62.0,-3.0,0
25.0,-270.0,0.0,15.0,62.0,-6.0,0
25.0,-271.0,0.0,16.0,62.0,-3.0,0
24.0,-270.0,-1.0,17.0,62.0,-6.0,0
27.0,-269.0,-1.0,17.0,61.0,-3.0,0
24.0,-272.0,0.0,18.0,61.0,-6.0,0
26.0,-271.0,-5.0,18.0,62.0,-2.0,0
26.0,-270.0,-2.0,19.0,61.0,-3.0,0
23.0,-267.0,-1.0,17.0,62.0,-1.0,0
26.0,-269.0,-3.0,14.0,60.0,-3.0,0
23.0,-268.0,-4.0,12.0,60.0,-2.0,0
27.0,-270.0,0.0,11.0,59.0,-5.0,0
25.0,-270.0,-4.0,9.0,58.0,-3.0,0
24.0,-268.0,-3.0,11.0,59.0,-5.0,0
25.0,-269.0,-2.0,14.0,58.0,-3.0,0
24.0,-268.0,-3.0,13.0,61.0,-4.0,0
25.0,-267.0,-3.0,14.0,59.0,-3.0,0
24.0,-268.0,-1.0,14.0,60.0,-3.0,0
25.0,-269.0,-2.0,13.0,59.0,-1.0,0
23.0,-268.0,-5.0,12.0,58.0,-2.0,0
25.0,-270.0,0.0,11.0,58.0,-2.0,0
25.0,-267.0,-2.0,9.0,58.0,-3.0,0
25.0,-270.0,-1.0,8.0,60.0,-1.0,0
27.0,-270.0,0.0,7.0,61.0,-4.0,0
26.0,-267.0,-1.0,5.0,60.0,-3.0,0
24.0,-268.0,1.0,4.0,60.0,-5.0,0
22.0,-265.0,1.0,0.0,60.0,-4.0,0
25.0,-267.0,1.0,-2.0,60.0,-6.0,0
23.0,-265.0,1.0,-6.0,58.0,-5.0,0
26.0,-268.0,0.0,-8.0,57.0,-7.0,0
23.0,-265.0,0.0,-9.0,57.0,-4.0,0
24.0,-272.0,0.0,-7.0,58.0,-6.0,0
24.0,-270.0,1.0,-6.0,58.0,-4.0,0
25.0,-270.0,-3.0,-3.0,57.0,-4.0,0
26.0,-270.0,-5.0,-2.0,56.0,-2.0,0
25.0,-271.0,-8.0,-5.0,56.0,-4.0,0
24.0,-271.0,-4.0,-6.0,57.0,-2.0,0
24.0,-270.0,-5.0,-5.0,56.0,-2.0,0
27.0,-271.0,1.0,-3.0,58.0,-1.0,0
22.0,-269.0,-3.0,1.0,58.0,-3.0,0
26.0,-269.0,0.0,3.0,61.0,-1.0,0
25.0,-267.0,-1.0,5.0,61.0,-4.0,0
26.0,-267.0,0.0,4.0,63.0,-2.0,0
26.0,-265.0,0.0,0.0,62.0,-4.0,0
24.0,-269.0,0.0,-2.0,62.0,-2.0,0
25.0,-271.0,-5.0,-6.0,61.0,-3.0,0
27.0,-270.0,-4.0,-9.0,59.0,-3.0,0
24.0,-267.0,0.0,-8.0,59.0,-3.0,0
24.0,-269.0,0.0,-10.0,59.0,-2.0,0
25.0,-271.0,-2.0,-11.0,58.0,-3.0,0
27.0,-271.0,-5.0,-12.0,55.0,-2.0,0
24.0,-272.0,-1.0,-10.0,55.0,-2.0,0
25.0,-269.0,0.0,-7.0,54.0,-1.0,0
25.0,-271.0,-2.0,-5.0,54.0,-2.0,0
24.0,-267.0,1.0,-4.0,55.0,0.0,0
25.0,-269.0,-1.0,-4.0,55.0,-2.0,0
27.0,-270.0,0.0,-6.0,56.0,-1.0,0
23.0,-269.0,0.0,-5.0,56.0,-1.0,0
24.0,-271.0,-2.0,-4.0,59.0,-1.0,0
26.0,-270.0,-1.0,-3.0,60.0,-4.0,0
27.0,-268.0,-2.0,-1.0,61.0,-3.0,0
26.0,-270.0,-1.0,0.0,62.0,-4.0,0
25.0,-269.0,-2.0,1.0,63.0,-2.0,0
28.0,-269.0,-2.0,1.0,64.0,-3.0,0
25.0,-272.0,-1.0,1.0,62.0,0.0,0
25.0,-271.0,0.0,0.0,61.0,0.0,0
25.0,-269.0,-2.0,0.0,62.0,0.0,0
27.0,-270.0,-4.0,0.0,62.0,-1.0,0
24.0,-268.0,-1.0,0.0,62.0,-1.0,0
26.0,-269.0,-3.0,-1.0,62.0,-1.0,0
24.0,-268.0,-1.0,1.0,61.0,1.0,0
26.0,-268.0,-1.0,2.0,62.0,0.0,0
21.0,-270.0,0.0,4.0,61.0,0.0,0
22.0,-269.0,0.0,5.0,63.0,0.0,0
26.0,-270.0,1.0,4.0,62.0,-2.0,0
22.0,-272.0,1.0,3.0,61.0,-1.0,0
25.0,-271.0,0.0,-1.0,62.0,-2.0,0
24.0,-270.0,-1.0,-1.0,62.0,-2.0,0
25.0,-270.0,0.0,-2.0,61.0,-2.0,0
23.0,-269.0,1.0,-2.0,63.0,-1.0,0
27.0,-267.0,0.0,-2.0,63.0,-1.0,0
26.0,-270.0,2.0,-2.0,63.0,-2.0,0
23.0,-265.0,0.0,-5.0,65.0,-2.0,0
25.0,-268.0,0.0,-8.0,64.0,-1.0,0
25.0,-268.0,1.0,-11.0,64.0,-2.0,0
27.0,-268.0,1.0,-12.0,61.0,-2.0,0
27.0,-269.0,-2.0,-15.0,60.0,-4.0,0
25.0,-271.0,1.0,-15.0,59.0,-1.0,0
25.0,-270.0,-2.0,-15.0,59.0,-2.0,0
24.0,-268.0,-4.0,-13.0,58.0,0.0,0
23.0,-270.0,-2.0,-12.0,59.0,-1.0,0
25.0,-272.0,1.0,-10.0,57.0,0.0,0
27.0,-270.0,3.0,-9.0,58.0,-1.0,0
24.0,-270.0,-1.0,-8.0,58.0,0.0,0
26.0,-267.0,0.0,-7.0,57.0,0.0,0
26.0,-268.0,-1.0,-7.0,58.0,2.0,0
24.0,-267.0,-2.0,-6.0,58.0,0.0,0
22.0,-267.0,0.0,-6.0,59.0,-1.0,0
23.0,-268.0,-3.0,-7.0,59.0,0.0,0
25.0,-271.0,-2.0,-9.0,59.0,0.0,0
27.0,-270.0,0.0,-9.0,59.0,0.0,0
24.0,-270.0,-1.0,-7.0,58.0,1.0,0
24.0,-268.0,1.0,-7.0,57.0,-1.0,0
25.0,-269.0,-1.0,-9.0,57.0,-1.0,0
26.0,-269.0,0.0,-8.0,56.0,-2.0,0
24.0,-268.0,3.0,-9.0,57.0,0.0,0
25.0,-269.0,1.0,-8.0,56.0,-3.0,0
25.0,-269.0,1.0,-7.0,57.0,0.0,0
23.0,-270.0,1.0,-8.0,56.0,-2.0,0
22.0,-267.0,-1.0,-6.0,57.0,0.0,0
25.0,-268.0,1.0,-6.0,57.0,-1.0,0
27.0,-270.0,-1.0,-6.0,57.0,0.0,0
25.0,-271.0,0.0,-5.0,57.0,-2.0,0
28.0,-269.0,-3.0,-5.0,60.0,1.0,0
25.0,-270.0,0.0,-5.0,60.0,0.0,0
28.0,-269.0,1.0,-5.0,60.0,1.0,0
26.0,-268.0,0.0,-6.0,59.0,-1.0,0
24.0,-272.0,-3.0,-8.0,60.0,1.0,0
24.0,-268.0,-2.0,-8.0,61.0,1.0,0
26.0,-268.0,1.0,-7.0,61.0,3.0,0
26.0,-272.0,-2.0,-6.0,58.0,1.0,0
26.0,-267.0,-1.0,-5.0,59.0,2.0,0
26.0,-270.0,-2.0,-4.0,59.0,0.0,0
24.0,-269.0,0.0,-4.0,59.0,3.0,0
25.0,-267.0,0.0,-4.0,59.0,-1.0,0
24.0,-271.0,-4.0,-5.0,58.0,2.0,0
26.0,-269.0,-1.0,-5.0,57.0,-1.0,0
24.0,-270.0,-1.0,-6.0,58.0,1.0,0
23.0,-270.0,0.0,-5.0,58.0,-1.0,0
26.0,-267.0,0.0,-4.0,58.0,2.0,0
24.0,-268.0,0.0,-5.0,58.0,0.0,0
23.0,-268.0,0.0,-7.0,59.0,2.0,0
25.0,-266.0,-1.0,-8.0,59.0,-1.0,0
23.0,-270.0,0.0,-8.0,59.0,2.0,0
23.0,-268.0,0.0,-9.0,59.0,-1.0,0
22.0,-269.0,-1.0,-8.0,58.0,1.0,0
25.0,-269.0,0.0,-7.0,59.0,-3.0,0
27.0,-271.0,-1.0,-6.0,58.0,2.0,0
25.0,-270.0,2.0,-7.0,59.0,-1.0,0
24.0,-269.0,1.0,-9.0,59.0,1.0,0
25.0,-268.0,0.0,-11.0,57.0,-4.0,0
24.0,-266.0,1.0,-12.0,58.0,-1.0,0
25.0,-269.0,1.0,-12.0,58.0,-4.0,0
26.0,-269.0,0.0,-14.0,58.0,0.0,0
21.0,-267.0,0.0,-13.0,58.0,-4.0,0
24.0,-269.0,0.0,-11.0,58.0,-1.0,0
23.0,-268.0,-2.0,-12.0,60.0,-5.0,0
25.0,-270.0,0.0,-11.0,60.0,-1.0,0
25.0,-269.0,-3.0,-10.0,60.0,-3.0,0
24.0,-267.0,-2.0,-9.0,59.0,-1.0,0
24.0,-272.0,-1.0,-9.0,60.0,-4.0,0
26.0,-270.0,-2.0,-8.0,58.0,-1.0,0
28.0,-271.0,-1.0,-7.0,59.0,-4.0,0
24.0,-268.0,-4.0,-10.0,59.0,-3.0,0
23.0,-270.0,0.0,-12.0,59.0,-4.0,0
23.0,-269.0,0.0,-13.0,58.0,-1.0,0
25.0,-268.0,-2.0,-14.0,58.0,-4.0,0
25.0,-273.0,0.0,-15.0,58.0,-3.0,0
24.0,-271.0,0.0,-14.0,57.0,-6.0,0
25.0,-269.0,3.0,-13.0,58.0,-2.0,0
22.0,-268.0,-2.0,-10.0,58.0,-5.0,0
22.0,-270.0,1.0,-7.0,59.0,-2.0,0
25.0,-270.0,-1.0,-6.0,60.0,-4.0,0
24.0,-270.0,0.0,-8.0,59.0,-1.0,0
24.0,-268.0,0.0,-9.0,57.0,-4.0,0
27.0,-269.0,0.0,-9.0,57.0,-2.0,0
23.0,-270.0,-1.0,-11.0,57.0,-4.0,0
26.0,-270.0,-5.0,-11.0,58.0,-3.0,0
26.0,-271.0,0.0,-11.0,61.0,-6.0,0
26.0,-272.0,-1.0,-10.0,61.0,-4.0,0
26.0,-270.0,0.0,-10.0,63.0,-7.0,0
26.0,-272.0,1.0,-11.0,63.0,-4.0,0
24.0,-269.0,-3.0,-12.0,62.0,-6.0,0
20.0,-268.0,0.0,-11.0,62.0,-5.0,0
26.0,-271.0,1.0,-14.0,62.0,-7.0,0
25.0,-270.0,1.0,-13.0,62.0,-6.0,0
24.0,-268.0,0.0,-12.0,61.0,-7.0,0
25.0,-271.0,-3.0,-11.0,61.0,-5.0,0
28.0,-270.0,-4.0,-8.0,62.0,-5.0,0
25.0,-271.0,-1.0,-5.0,63.0,-2.0,0
23.0,-269.0,-4.0,-1.0,61.0,-3.0,0
27.0,-272.0,-3.0,1.0,60.0,0.0,0
24.0,-269.0,-4.0,-2.0,62.0,-2.0,0
26.0,-268.0,-4.0,-3.0,60.0,0.0,0
26.0,-271.0,-3.0,-1.0,63.0,-1.0,0
26.0,-272.0,-1.0,4.0,63.0,-2.0,0
24.0,-268.0,0.0,10.0,65.0,-3.0,0
24.0,-266.0,2.0,13.0,65.0,-1.0,0
25.0,-269.0,1.0,15.0,65.0,-4.0,0
26.0,-268.0,2.0,10.0,64.0,-5.0,0
27.0,-272.0,0.0,7.0,65.0,-6.0,0
23.0,-267.0,1.0,5.0,65.0,-4.0,0
24.0,-269.0,-3.0,5.0,64.0,-6.0,0
27.0,-270.0,-3.0,5.0,61.0,-7.0,0
24.0,-269.0,-1.0,4.0,59.0,-7.0,0
23.0,-269.0,1.0,5.0,61.0,-6.0,0
26.0,-272.0,2.0,4.0,58.0,-6.0,0
26.0,-269.0,0.0,2.0,56.0,-4.0,0
24.0,-271.0,-1.0,2.0,55.0,-5.0,0
26.0,-267.0,3.0,2.0,53.0,-4.0,0
25.0,-269.0,3.0,1.0,54.0,-5.0,0
25.0,-271.0,2.0,-1.0,55.0,-6.0,0
27.0,-272.0,-3.0,-2.0,55.0,-5.0,0
23.0,-270.0,1.0,-3.0,55.0,-5.0,0
27.0,-269.0,2.0,-6.0,56.0,-4.0,0
27.0,-267.0,0.0,-7.0,57.0,-4.0,0
24.0,-266.0,2.0,-9.0,56.0,-4.0,0
26.0,-268.0,1.0,-10.0,56.0,-3.0,0
27.0,-269.0,2.0,-12.0,56.0,-3.0,0
25.0,-270.0,4.0,-15.0,55.0,-3.0,0
25.0,-270.0,0.0,-18.0,54.0,-3.0,0
24.0,-268.0,2.0,-22.0,53.0,-4.0,0
23.0,-268.0,1.0,-23.0,54.0,0.0,0
28.0,-271.0,1.0,-26.0,53.0,-2.0,0
25.0,-269.0,4.0,-27.0,53.0,-1.0,0
23.0,-268.0,0.0,-29.0,54.0,-1.0,0
26.0,-268.0,0.0,-30.0,53.0,-2.0,0
27.0,-269.0,0.0,-32.0,54.0,-1.0,0
24.0,-267.0,0.0,-34.0,53.0,-1.0,0
26.0,-271.0,2.0,-34.0,53.0,-1.0,0
26.0,-269.0,1.0,-33.0,52.0,0.0,0
27.0,-269.0,2.0,-33.0,54.0,-1.0,0
