ax,ay,az,gx,gy,gz,label
7.0,39.0,249.0,51.0,12.0,-9.0,0
7.0,35.0,254.0,51.0,12.0,-10.0,0
6.0,39.0,248.0,52.0,11.0,-9.0,0
9.0,36.0,249.0,53.0,11.0,-10.0,0
9.0,39.0,250.0,52.0,10.0,-9.0,0
8.0,37.0,241.0,52.0,9.0,-9.0,0
5.0,41.0,255.0,52.0,8.0,-9.0,0
7.0,38.0,254.0,51.0,9.0,-11.0,0
7.0,37.0,246.0,52.0,9.0,-9.0,0
7.0,38.0,249.0,52.0,8.0,-9.0,0
6.0,39.0,246.0,53.0,10.0,-10.0,0
6.0,39.0,248.0,56.0,10.0,-8.0,0
5.0,38.0,247.0,58.0,11.0,-10.0,0
4.0,39.0,248.0,59.0,11.0,-9.0,0
5.0,43.0,249.0,60.0,12.0,-8.0,0
11.0,37.0,247.0,60.0,13.0,-10.0,0
5.0,35.0,248.0,60.0,13.0,-10.0,0
9.0,39.0,248.0,61.0,14.0,-9.0,0
8.0,40.0,249.0,63.0,15.0,-11.0,0
7.0,36.0,247.0,64.0,16.0,-11.0,0
7.0,37.0,247.0,65.0,17.0,-12.0,0
6.0,39.0,250.0,65.0,18.0,-10.0,0
7.0,39.0,251.0,66.0,18.0,-11.0,0
8.0,36.0,247.0,66.0,17.0,-11.0,0
7.0,36.0,251.0,65.0,19.0,-11.0,0
6.0,38.0,247.0,63.0,17.0,-10.0,0
5.0,41.0,251.0,60.0,15.0,-10.0,0
6.0,40.0,252.0,56.0,12.0,-9.0,0
10.0,39.0,249.0,52.0,9.0,-10.0,0
7.0,37.0,253.0,48.0,10.0,-10.0,0
5.0,38.0,250.0,47.0,9.0,-10.0,0
7.0,35.0,253.0,49.0,9.0,-10.0,0
7.0,38.0,249.0,52.0,8.0,-8.0,0
4.0,36.0,254.0,54.0,7.0,-9.0,0
9.0,39.0,245.0,60.0,7.0,-8.0,0
5.0,40.0,249.0,61.0,7.0,-9.0,0
7.0,35.0,248.0,63.0,7.0,-9.0,0
6.0,50.0,252.0,62.0,7.0,-9.0,0
6.0,39.0,250.0,61.0,7.0,-11.0,0
7.0,40.0,248.0,57.0,6.0,-11.0,0
5.0,39.0,249.0,55.0,8.0,-10.0,0
3.0,39.0,248.0,52.0,9.0,-11.0,0
6.0,39.0,252.0,49.0,11.0,-10.0,0
7.0,39.0,248.0,46.0,12.0,-10.0,0
7.0,36.0,254.0,46.0,14.0,-10.0,0
7.0,35.0,251.0,45.0,17.0,-11.0,0
6.0,35.0,252.0,46.0,18.0,-13.0,0
8.0,32.0,252.0,46.0,20.0,-11.0,0
3.0,36.0,256.0,50.0,20.0,-12.0,0
6.0,39.0,253.0,54.0,20.0,-12.0,0
7.0,36.0,252.0,60.0,17.0,-10.0,0
6.0,33.0,252.0,67.0,16.0,-10.0,0
5.0,34.0,249.0,78.0,14.0,-10.0,0
8.0,34.0,249.0,87.0,12.0,-9.0,0
6.0,36.0,248.0,97.0,12.0,-10.0,0
5.0,36.0,249.0,107.0,13.0,-12.0,0
11.0,36.0,252.0,118.0,11.0,-10.0,0
6.0,39.0,250.0,126.0,11.0,-9.0,0
7.0,40.0,250.0,133.0,13.0,-9.0,0
3.0,34.0,249.0,136.0,14.0,-10.0,0
8.0,40.0,243.0,132.0,15.0,-10.0,0
6.0,41.0,246.0,124.0,17.0,-10.0,0
11.0,42.0,244.0,113.0,16.0,-10.0,0
5.0,39.0,244.0,98.0,16.0,-10.0,0
6.0,46.0,246.0,84.0,14.0,-9.0,0
6.0,44.0,248.0,70.0,14.0,-8.0,0
5.0,48.0,247.0,59.0,13.0,-8.0,0
9.0,38.0,247.0,50.0,13.0,-9.0,0
7.0,42.0,248.0,45.0,11.0,-9.0,0
8.0,38.0,251.0,45.0,10.0,-9.0,0
8.0,45.0,244.0,46.0,10.0,-9.0,0
6.0,37.0,253.0,46.0,9.0,-8.0,0
5.0,41.0,251.0,52.0,9.0,-7.0,0
9.0,41.0,247.0,57.0,9.0,-9.0,0
7.0,40.0,251.0,61.0,9.0,-8.0,0
4.0,40.0,248.0,65.0,8.0,-9.0,0
7.0,38.0,250.0,70.0,9.0,-10.0,0
7.0,37.0,249.0,71.0,9.0,-10.0,0
7.0,39.0,249.0,72.0,10.0,-9.0,0
6.0,46.0,246.0,72.0,12.0,-9.0,0
8.0,41.0,249.0,71.0,12.0,-9.0,0
2.0,39.0,249.0,69.0,12.0,-9.0,0
8.0,41.0,251.0,67.0,13.0,-10.0,0
7.0,40.0,251.0,64.0,14.0,-9.0,0
7.0,39.0,245.0,61.0,13.0,-10.0,0
6.0,37.0,245.0,59.0,13.0,-9.0,0
3.0,42.0,246.0,56.0,14.0,-9.0,0
5.0,41.0,247.0,57.0,13.0,-11.0,0
6.0,39.0,249.0,55.0,13.0,-10.0,0
8.0,40.0,253.0,55.0,14.0,-11.0,0
5.0,38.0,248.0,57.0,13.0,-10.0,0
6.0,45.0,242.0,60.0,14.0,-11.0,0
14.0,45.0,253.0,61.0,14.0,-11.0,0
7.0,39.0,249.0,65.0,13.0,-10.0,0
7.0,39.0,247.0,65.0,11.0,-11.0,0
5.0,38.0,250.0,67.0,12.0,-10.0,0
7.0,38.0,248.0,66.0,10.0,-8.0,0
6.0,39.0,248.0,68.0,9.0,-10.0,0
8.0,42.0,247.0,68.0,10.0,-10.0,0
8.0,41.0,247.0,69.0,11.0,-11.0,0
10.0,38.0,250.0,68.0,13.0,-10.0,0
9.0,42.0,251.0,65.0,14.0,-11.0,0
9.0,38.0,249.0,62.0,13.0,-11.0,0
4.0,39.0,244.0,58.0,14.0,-12.0,0
5.0,44.0,247.0,55.0,13.0,-11.0,0
4.0,39.0,248.0,52.0,15.0,-12.0,0
4.0,41.0,250.0,49.0,14.0,-11.0,0
6.0,39.0,252.0,45.0,15.0,-12.0,0
9.0,38.0,249.0,43.0,15.0,-11.0,0
6.0,38.0,255.0,43.0,15.0,-11.0,0
5.0,37.0,249.0,45.0,15.0,-10.0,0
9.0,39.0,252.0,48.0,15.0,-10.0,0
7.0,38.0,245.0,56.0,14.0,-12.0,0
3.0,43.0,241.0,62.0,16.0,-11.0,0
7.0,37.0,248.0,69.0,17.0,-12.0,0
8.0,37.0,247.0,75.0,17.0,-12.0,0
5.0,37.0,250.0,80.0,19.0,-11.0,0
5.0,38.0,243.0,83.0,20.0,-13.0,0
5.0,41.0,246.0,85.0,21.0,-14.0,0
6.0,40.0,247.0,86.0,22.0,-12.0,0
6.0,43.0,245.0,85.0,23.0,-11.0,0
6.0,45.0,247.0,84.0,24.0,-12.0,0
6.0,43.0,248.0,80.0,23.0,-12.0,0
10.0,41.0,249.0,77.0,24.0,-12.0,0
9.0,42.0,243.0,73.0,22.0,-11.0,0
6.0,40.0,253.0,70.0,22.0,-9.0,0
7.0,41.0,250.0,67.0,19.0,-11.0,0
6.0,41.0,250.0,63.0,18.0,-11.0,0
6.0,41.0,247.0,61.0,17.0,-9.0,0
3.0,39.0,247.0,59.0,14.0,-9.0,0
6.0,42.0,249.0,56.0,13.0,-9.0,0
7.0,39.0,249.0,56.0,11.0,-9.0,0
3.0,40.0,251.0,55.0,10.0,-9.0,0
6.0,40.0,247.0,56.0,9.0,-9.0,0
9.0,41.0,249.0,57.0,8.0,-9.0,0
6.0,42.0,254.0,59.0,8.0,-9.0,0
7.0,38.0,249.0,60.0,10.0,-9.0,0
5.0,43.0,250.0,60.0,10.0,-10.0,0
5.0,41.0,253.0,61.0,9.0,-9.0,0
3.0,41.0,251.0,61.0,9.0,-9.0,0
6.0,41.0,248.0,62.0,9.0,-9.0,0
5.0,39.0,250.0,63.0,9.0,-8.0,0
8.0,38.0,250.0,64.0,10.0,-9.0,0
5.0,39.0,253.0,63.0,9.0,-8.0,0
7.0,41.0,246.0,64.0,9.0,-9.0,0
8.0,39.0,249.0,64.0,10.0,-10.0,0
4.0,36.0,245.0,65.0,11.0,-10.0,0
7.0,41.0,248.0,66.0,11.0,-8.0,0
6.0,41.0,248.0,67.0,10.0,-7.0,0
7.0,39.0,245.0,66.0,13.0,-8.0,0
8.0,39.0,245.0,66.0,15.0,-8.0,0
8.0,40.0,249.0,66.0,16.0,-8.0,0
8.0,41.0,248.0,66.0,17.0,-8.0,0
8.0,39.0,249.0,65.0,17.0,-9.0,0
6.0,41.0,245.0,63.0,18.0,-9.0,0
7.0,41.0,246.0,61.0,16.0,-10.0,0
7.0,35.0,250.0,59.0,17.0,-9.0,0
4.0,43.0,244.0,58.0,15.0,-10.0,0
6.0,39.0,248.0,57.0,14.0,-10.0,0
6.0,43.0,249.0,54.0,13.0,-10.0,0
7.0,41.0,248.0,54.0,11.0,-10.0,0
5.0,41.0,246.0,53.0,9.0,-11.0,0
5.0,38.0,251.0,53.0,9.0,-10.0,0
5.0,40.0,247.0,53.0,10.0,-11.0,0
5.0,41.0,248.0,54.0,10.0,-11.0,0
10.0,40.0,242.0,56.0,11.0,-10.0,0
8.0,41.0,248.0,58.0,10.0,-10.0,0
14.0,39.0,254.0,61.0,10.0,-10.0,0
1.0,36.0,253.0,63.0,12.0,-10.0,0
6.0,40.0,245.0,65.0,13.0,-11.0,0
7.0,42.0,249.0,66.0,12.0,-10.0,0
6.0,42.0,249.0,67.0,13.0,-10.0,0
8.0,41.0,252.0,68.0,14.0,-9.0,0
7.0,43.0,250.0,69.0,16.0,-11.0,0
6.0,41.0,250.0,69.0,16.0,-10.0,0
7.0,39.0,244.0,68.0,16.0,-11.0,0
4.0,43.0,246.0,68.0,17.0,-9.0,0
7.0,41.0,248.0,68.0,17.0,-11.0,0
5.0,44.0,247.0,65.0,16.0,-9.0,0
2.0,43.0,248.0,64.0,15.0,-10.0,0
3.0,43.0,251.0,65.0,16.0,-11.0,0
5.0,42.0,249.0,64.0,15.0,-10.0,0
6.0,43.0,249.0,64.0,14.0,-10.0,0
4.0,41.0,247.0,64.0,15.0,-10.0,0
8.0,43.0,249.0,64.0,13.0,-11.0,0
6.0,44.0,249.0,65.0,12.0,-11.0,0
4.0,42.0,250.0,68.0,12.0,-9.0,0
6.0,43.0,245.0,68.0,12.0,-10.0,0
8.0,39.0,251.0,68.0,11.0,-8.0,0
6.0,39.0,249.0,67.0,11.0,-10.0,0
2.0,33.0,241.0,69.0,11.0,-9.0,0
6.0,44.0,250.0,69.0,11.0,-10.0,0
4.0,45.0,246.0,68.0,12.0,-11.0,0
10.0,41.0,246.0,67.0,11.0,-10.0,0
8.0,42.0,250.0,68.0,12.0,-9.0,0
6.0,42.0,249.0,66.0,12.0,-8.0,0
5.0,39.0,246.0,66.0,13.0,-8.0,0
4.0,45.0,246.0,66.0,14.0,-9.0,0
6.0,46.0,247.0,64.0,13.0,-12.0,0
5.0,42.0,243.0,64.0,13.0,-11.0,0
8.0,40.0,247.0,63.0,13.0,-11.0,0
4.0,44.0,247.0,62.0,13.0,-9.0,0
5.0,44.0,245.0,61.0,13.0,-11.0,0
7.0,43.0,248.0,60.0,13.0,-9.0,0
4.0,41.0,256.0,60.0,13.0,-9.0,0
7.0,42.0,250.0,58.0,13.0,-8.0,0
6.0,42.0,247.0,57.0,12.0,-8.0,0
5.0,42.0,249.0,58.0,13.0,-10.0,0
7.0,44.0,244.0,57.0,13.0,-9.0,0
7.0,39.0,247.0,57.0,12.0,-10.0,0
6.0,43.0,249.0,55.0,11.0,-9.0,0
5.0,33.0,252.0,55.0,11.0,-10.0,0
8.0,42.0,251.0,56.0,11.0,-11.0,0
5.0,40.0,249.0,55.0,11.0,-10.0,0
6.0,43.0,250.0,54.0,12.0,-8.0,0
6.0,44.0,252.0,54.0,11.0,-9.0,0
6.0,40.0,252.0,55.0,12.0,-11.0,0
6.0,40.0,247.0,55.0,12.0,-10.0,0
8.0,41.0,248.0,56.0,12.0,-10.0,0
4.0,40.0,247.0,56.0,13.0,-11.0,0
6.0,41.0,245.0,56.0,12.0,-9.0,0
8.0,40.0,247.0,56.0,11.0,-10.0,0
5.0,38.0,249.0,56.0,10.0,-11.0,0
6.0,41.0,247.0,56.0,10.0,-11.0,0
8.0,43.0,253.0,54.0,10.0,-10.0,0
6.0,44.0,247.0,52.0,12.0,-10.0,0
6.0,42.0,249.0,52.0,10.0,-9.0,0
9.0,41.0,250.0,49.0,10.0,-9.0,0
6.0,44.0,249.0,48.0,10.0,-10.0,0
5.0,43.0,247.0,47.0,10.0,-10.0,0
8.0,41.0,249.0,47.0,10.0,-12.0,0
4.0,44.0,249.0,49.0,12.0,-12.0,0
9.0,41.0,246.0,51.0,11.0,-11.0,0
3.0,44.0,253.0,54.0,11.0,-9.0,0
7.0,43.0,252.0,57.0,11.0,-9.0,0
3.0,45.0,250.0,57.0,11.0,-11.0,0
6.0,41.0,246.0,58.0,12.0,-10.0,0
6.0,43.0,246.0,58.0,11.0,-9.0,0
6.0,41.0,251.0,57.0,13.0,-10.0,0
8.0,43.0,247.0,56.0,11.0,-10.0,0
7.0,44.0,250.0,56.0,14.0,-10.0,0
8.0,42.0,250.0,56.0,14.0,-11.0,0
7.0,44.0,251.0,57.0,14.0,-11.0,0
7.0,43.0,250.0,59.0,14.0,-10.0,0
6.0,35.0,250.0,61.0,15.0,-11.0,0
8.0,41.0,248.0,62.0,15.0,-10.0,0
7.0,44.0,253.0,63.0,16.0,-9.0,0
6.0,40.0,246.0,62.0,16.0,-9.0,0
6.0,42.0,247.0,61.0,15.0,-8.0,0
7.0,43.0,252.0,58.0,15.0,-8.0,0
5.0,41.0,250.0,54.0,12.0,-10.0,0
7.0,43.0,249.0,51.0,12.0,-8.0,0
8.0,43.0,244.0,51.0,12.0,-10.0,0
8.0,40.0,249.0,52.0,12.0,-8.0,0
3.0,43.0,246.0,52.0,10.0,-9.0,0
4.0,47.0,240.0,55.0,10.0,-10.0,0
5.0,41.0,248.0,58.0,9.0,-9.0,0
6.0,43.0,246.0,61.0,9.0,-9.0,0
4.0,42.0,250.0,62.0,8.0,-9.0,0
6.0,43.0,248.0,61.0,9.0,-9.0,0
4.0,42.0,252.0,60.0,9.0,-11.0,0
6.0,42.0,250.0,57.0,10.0,-10.0,0
7.0,44.0,249.0,52.0,10.0,-11.0,0
4.0,42.0,252.0,48.0,11.0,-11.0,0
7.0,43.0,249.0,43.0,11.0,-12.0,0
6.0,46.0,249.0,42.0,13.0,-12.0,0
10.0,37.0,250.0,42.0,16.0,-11.0,0
9.0,38.0,253.0,42.0,18.0,-11.0,0
8.0,40.0,249.0,46.0,19.0,-11.0,0
9.0,37.0,251.0,51.0,21.0,-11.0,0
5.0,41.0,248.0,58.0,20.0,-12.0,0
6.0,36.0,250.0,66.0,22.0,-12.0,0
5.0,38.0,250.0,78.0,21.0,-11.0,0
8.0,35.0,247.0,92.0,19.0,-12.0,0
7.0,40.0,247.0,103.0,17.0,-10.0,0
9.0,41.0,248.0,115.0,16.0,-8.0,0
4.0,39.0,250.0,127.0,16.0,-10.0,0
9.0,42.0,242.0,137.0,13.0,-8.0,0
5.0,42.0,248.0,145.0,12.0,-8.0,0
2.0,42.0,242.0,151.0,13.0,-10.0,0
4.0,46.0,245.0,153.0,14.0,-9.0,0
4.0,43.0,243.0,150.0,15.0,-8.0,0
7.0,48.0,244.0,143.0,16.0,-10.0,0
4.0,45.0,243.0,132.0,16.0,-9.0,0
7.0,45.0,245.0,117.0,16.0,-10.0,0
6.0,49.0,247.0,99.0,17.0,-11.0,0
5.0,46.0,247.0,84.0,16.0,-10.0,0
6.0,51.0,243.0,71.0,18.0,-10.0,0
10.0,42.0,249.0,61.0,15.0,-8.0,0
5.0,46.0,248.0,54.0,15.0,-7.0,0
7.0,45.0,250.0,52.0,14.0,-9.0,0
5.0,46.0,248.0,50.0,13.0,-10.0,0
6.0,45.0,247.0,53.0,12.0,-8.0,0
5.0,45.0,249.0,56.0,11.0,-11.0,0
6.0,46.0,250.0,57.0,9.0,-10.0,0
4.0,48.0,246.0,60.0,8.0,-9.0,0
6.0,45.0,248.0,61.0,7.0,-8.0,0
8.0,44.0,250.0,61.0,7.0,-9.0,0
4.0,49.0,244.0,61.0,8.0,-8.0,0
3.0,42.0,249.0,59.0,9.0,-10.0,0
6.0,45.0,251.0,55.0,10.0,-9.0,0
7.0,47.0,244.0,51.0,11.0,-8.0,0
4.0,46.0,247.0,47.0,11.0,-7.0,0
5.0,47.0,247.0,46.0,11.0,-8.0,0
6.0,44.0,248.0,43.0,11.0,-9.0,0
5.0,42.0,248.0,41.0,11.0,-8.0,0
8.0,45.0,250.0,41.0,9.0,-9.0,0
9.0,42.0,247.0,41.0,10.0,-9.0,0
4.0,43.0,250.0,41.0,11.0,-11.0,0
8.0,42.0,247.0,43.0,10.0,-11.0,0
4.0,42.0,244.0,44.0,10.0,-9.0,0
7.0,42.0,250.0,47.0,11.0,-10.0,0
3.0,43.0,247.0,51.0,12.0,-11.0,0
5.0,48.0,248.0,52.0,12.0,-9.0,0
7.0,44.0,246.0,54.0,12.0,-11.0,0
4.0,45.0,248.0,55.0,11.0,-11.0,0
7.0,46.0,246.0,57.0,13.0,-11.0,0
6.0,46.0,247.0,57.0,12.0,-11.0,0
8.0,46.0,246.0,57.0,12.0,-12.0,0
9.0,42.0,247.0,54.0,13.0,-11.0,0
4.0,44.0,244.0,52.0,14.0,-10.0,0
7.0,42.0,248.0,50.0,14.0,-9.0,0
5.0,45.0,249.0,49.0,16.0,-9.0,0
6.0,44.0,250.0,48.0,15.0,-10.0,0
6.0,45.0,246.0,46.0,16.0,-11.0,0
6.0,44.0,249.0,46.0,14.0,-9.0,0
4.0,44.0,250.0,46.0,15.0,-11.0,0
5.0,44.0,248.0,46.0,16.0,-9.0,0
5.0,45.0,250.0,44.0,17.0,-10.0,0
8.0,44.0,245.0,42.0,16.0,-11.0,0
7.0,41.0,251.0,43.0,17.0,-11.0,0
1.0,44.0,248.0,42.0,16.0,-9.0,0
6.0,40.0,247.0,44.0,16.0,-8.0,0
2.0,44.0,249.0,48.0,16.0,-8.0,0
6.0,44.0,249.0,52.0,17.0,-10.0,0
5.0,45.0,249.0,59.0,18.0,-10.0,0
5.0,43.0,248.0,64.0,18.0,-12.0,0
4.0,44.0,251.0,70.0,18.0,-12.0,0
4.0,46.0,244.0,74.0,19.0,-12.0,0
5.0,42.0,249.0,76.0,20.0,-11.0,0
7.0,41.0,248.0,78.0,20.0,-11.0,0
3.0,43.0,247.0,78.0,20.0,-12.0,0
2.0,48.0,243.0,75.0,22.0,-15.0,0
6.0,47.0,248.0,73.0,20.0,-13.0,0
5.0,47.0,242.0,69.0,19.0,-11.0,0
4.0,47.0,247.0,64.0,19.0,-11.0,0
7.0,44.0,248.0,61.0,19.0,-12.0,0
6.0,42.0,246.0,57.0,18.0,-10.0,0
6.0,45.0,246.0,55.0,16.0,-11.0,0
3.0,48.0,241.0,53.0,15.0,-10.0,0
4.0,44.0,253.0,51.0,15.0,-10.0,0
3.0,48.0,246.0,51.0,14.0,-10.0,0
4.0,44.0,250.0,50.0,11.0,-10.0,0
5.0,44.0,249.0,49.0,10.0,-10.0,0
5.0,44.0,245.0,49.0,9.0,-11.0,0
5.0,45.0,251.0,49.0,9.0,-9.0,0
6.0,44.0,251.0,48.0,8.0,-10.0,0
3.0,46.0,251.0,49.0,6.0,-10.0,0
4.0,45.0,250.0,47.0,7.0,-10.0,0
6.0,47.0,249.0,45.0,8.0,-11.0,0
4.0,45.0,248.0,42.0,8.0,-11.0,0
6.0,42.0,250.0,41.0,7.0,-9.0,0
5.0,47.0,249.0,39.0,7.0,-9.0,0
9.0,49.0,242.0,36.0,8.0,-9.0,0
4.0,44.0,249.0,37.0,7.0,-10.0,0
2.0,45.0,249.0,35.0,7.0,-10.0,0
6.0,45.0,248.0,35.0,6.0,-6.0,0
7.0,43.0,251.0,36.0,5.0,-9.0,0
6.0,45.0,247.0,36.0,5.0,-7.0,0
6.0,44.0,249.0,38.0,5.0,-7.0,0
5.0,42.0,251.0,41.0,6.0,-8.0,0
3.0,45.0,248.0,44.0,6.0,-8.0,0
5.0,41.0,246.0,47.0,7.0,-9.0,0
5.0,41.0,243.0,50.0,8.0,-9.0,0
6.0,45.0,247.0,52.0,10.0,-9.0,0
11.0,44.0,246.0,54.0,11.0,-10.0,0
6.0,41.0,251.0,56.0,11.0,-11.0,0
6.0,43.0,246.0,55.0,13.0,-12.0,0
5.0,45.0,252.0,56.0,13.0,-10.0,0
7.0,42.0,249.0,54.0,14.0,-12.0,0
8.0,42.0,245.0,52.0,16.0,-12.0,0
5.0,44.0,244.0,50.0,17.0,-12.0,0
8.0,42.0,246.0,47.0,16.0,-10.0,0
4.0,43.0,250.0,45.0,17.0,-12.0,0
7.0,45.0,244.0,42.0,16.0,-13.0,0
5.0,42.0,250.0,38.0,17.0,-13.0,0
6.0,39.0,257.0,35.0,17.0,-13.0,0
7.0,42.0,249.0,32.0,18.0,-12.0,0
4.0,47.0,248.0,29.0,20.0,-11.0,0
7.0,43.0,253.0,27.0,19.0,-10.0,0
7.0,42.0,249.0,24.0,19.0,-11.0,0
6.0,41.0,250.0,21.0,18.0,-11.0,0
8.0,45.0,244.0,20.0,19.0,-10.0,0
4.0,44.0,248.0,17.0,21.0,-10.0,0
5.0,46.0,249.0,13.0,24.0,-9.0,0
7.0,45.0,247.0,10.0,24.0,-10.0,0
7.0,44.0,246.0,6.0,23.0,-10.0,0
4.0,36.0,249.0,3.0,19.0,-9.0,0
7.0,44.0,249.0,2.0,17.0,-7.0,0
7.0,42.0,247.0,2.0,15.0,-9.0,0
6.0,43.0,250.0,2.0,12.0,-7.0,0
6.0,43.0,251.0,4.0,10.0,-8.0,0
7.0,44.0,250.0,4.0,12.0,-7.0,0
8.0,43.0,250.0,5.0,13.0,-8.0,0
10.0,43.0,250.0,5.0,17.0,-9.0,0
7.0,47.0,254.0,3.0,22.0,-10.0,0
11.0,40.0,253.0,2.0,28.0,-10.0,0
10.0,47.0,249.0,-5.0,34.0,-12.0,0
6.0,49.0,248.0,-22.0,42.0,-13.0,0
11.0,46.0,254.0,-47.0,49.0,-15.0,0
10.0,50.0,254.0,-77.0,56.0,-13.0,0
10.0,48.0,256.0,-103.0,58.0,-13.0,0
13.0,44.0,259.0,-118.0,53.0,-12.0,0
12.0,44.0,262.0,-126.0,42.0,-11.0,0
9.0,43.0,264.0,-130.0,30.0,-12.0,0
12.0,44.0,265.0,-133.0,19.0,-10.0,0
14.0,41.0,261.0,-134.0,13.0,-6.0,0
9.0,43.0,254.0,-132.0,10.0,-4.0,0
10.0,38.0,253.0,-127.0,4.0,1.0,0
8.0,37.0,253.0,-125.0,-9.0,4.0,0
3.0,38.0,246.0,-126.0,-30.0,3.0,0
1.0,41.0,243.0,-136.0,-55.0,6.0,0
2.0,39.0,245.0,-151.0,-81.0,9.0,0
5.0,37.0,247.0,-178.0,-103.0,6.0,0
5.0,39.0,250.0,-200.0,-115.0,6.0,0
9.0,34.0,251.0,-202.0,-112.0,8.0,0
12.0,30.0,257.0,-185.0,-96.0,9.0,0
11.0,25.0,257.0,-147.0,-71.0,7.0,0
10.0,26.0,266.0,-97.0,-44.0,2.0,0
17.0,23.0,267.0,-31.0,-16.0,-3.0,0
13.0,23.0,261.0,41.0,12.0,-13.0,0
13.0,24.0,257.0,116.0,40.0,-25.0,0
15.0,28.0,252.0,178.0,63.0,-37.0,0
16.0,34.0,241.0,217.0,80.0,-49.0,0
14.0,41.0,236.0,226.0,90.0,-59.0,0
18.0,46.0,232.0,212.0,98.0,-64.0,0
18.0,52.0,232.0,173.0,105.0,-64.0,0
16.0,57.0,229.0,112.0,112.0,-71.0,0
12.0,58.0,238.0,31.0,107.0,-74.0,0
9.0,59.0,239.0,-56.0,94.0,-73.0,0
3.0,55.0,252.0,-130.0,80.0,-69.0,0
8.0,53.0,255.0,-182.0,63.0,-65.0,0
6.0,48.0,254.0,-206.0,46.0,-63.0,0
7.0,43.0,253.0,-200.0,36.0,-62.0,0
12.0,35.0,253.0,-173.0,34.0,-65.0,0
11.0,33.0,255.0,-131.0,44.0,-68.0,0
13.0,30.0,249.0,-86.0,63.0,-72.0,0
12.0,28.0,254.0,-45.0,84.0,-77.0,0
10.0,34.0,251.0,-15.0,100.0,-81.0,0
5.0,34.0,253.0,1.0,109.0,-81.0,0
9.0,34.0,253.0,3.0,105.0,-81.0,0
5.0,31.0,253.0,-8.0,91.0,-79.0,0
5.0,39.0,245.0,-24.0,72.0,-76.0,0
3.0,38.0,246.0,-49.0,51.0,-71.0,0
4.0,41.0,244.0,-76.0,38.0,-67.0,0
4.0,40.0,243.0,-102.0,31.0,-64.0,0
8.0,37.0,247.0,-121.0,32.0,-62.0,0
4.0,37.0,248.0,-130.0,38.0,-64.0,0
2.0,34.0,250.0,-130.0,51.0,-66.0,0
5.0,31.0,252.0,-124.0,66.0,-69.0,0
4.0,31.0,253.0,-108.0,83.0,-72.0,0
13.0,25.0,253.0,-89.0,104.0,-74.0,0
21.0,26.0,250.0,-68.0,131.0,-77.0,0
24.0,32.0,251.0,-54.0,164.0,-82.0,0
24.0,31.0,254.0,-54.0,206.0,-93.0,0
29.0,31.0,256.0,-70.0,251.0,-103.0,0
31.0,29.0,257.0,-93.0,294.0,-121.0,0
29.0,33.0,258.0,-114.0,333.0,-137.0,0
31.0,36.0,257.0,-134.0,362.0,-149.0,0
27.0,35.0,256.0,-156.0,377.0,-157.0,0
18.0,40.0,246.0,-188.0,385.0,-163.0,0
10.0,37.0,246.0,-229.0,384.0,-163.0,0
7.0,35.0,242.0,-274.0,379.0,-159.0,0
1.0,35.0,233.0,-315.0,371.0,-154.0,0
0.0,31.0,238.0,-340.0,361.0,-149.0,0
-6.0,28.0,244.0,-350.0,359.0,-148.0,0
-12.0,25.0,245.0,-349.0,361.0,-144.0,0
-10.0,21.0,243.0,-339.0,361.0,-139.0,0
-11.0,16.0,243.0,-321.0,359.0,-133.0,0
-13.0,18.0,247.0,-300.0,357.0,-126.0,0
-7.0,14.0,248.0,-275.0,355.0,-126.0,0
-12.0,7.0,245.0,-250.0,354.0,-123.0,0
-12.0,9.0,241.0,-229.0,350.0,-116.0,0
-17.0,6.0,240.0,-212.0,343.0,-104.0,0
-9.0,4.0,250.0,-197.0,333.0,-89.0,0
-17.0,3.0,248.0,-179.0,320.0,-73.0,0
-19.0,4.0,247.0,-162.0,309.0,-57.0,0
-22.0,8.0,250.0,-145.0,303.0,-40.0,0
-24.0,8.0,247.0,-131.0,301.0,-22.0,0
-27.0,9.0,245.0,-115.0,299.0,-7.0,0
-31.0,9.0,247.0,-98.0,289.0,8.0,0
-35.0,14.0,244.0,-85.0,268.0,24.0,0
-28.0,17.0,246.0,-75.0,242.0,35.0,0
-32.0,27.0,243.0,-73.0,214.0,39.0,0
-31.0,28.0,249.0,-76.0,191.0,45.0,0
-24.0,30.0,254.0,-79.0,174.0,49.0,0
-25.0,35.0,247.0,-79.0,160.0,49.0,0
-23.0,37.0,243.0,-73.0,148.0,48.0,0
-25.0,40.0,247.0,-62.0,137.0,47.0,0
-19.0,39.0,244.0,-50.0,129.0,41.0,0
-16.0,34.0,245.0,-39.0,124.0,27.0,0
-16.0,38.0,245.0,-35.0,120.0,19.0,0
-20.0,33.0,249.0,-36.0,115.0,15.0,0
-22.0,31.0,248.0,-42.0,104.0,13.0,0
-20.0,26.0,253.0,-50.0,86.0,16.0,0
-25.0,23.0,251.0,-54.0,67.0,26.0,0
-29.0,14.0,259.0,-53.0,54.0,27.0,0
-26.0,9.0,258.0,-41.0,41.0,30.0,0
-30.0,9.0,255.0,-22.0,35.0,34.0,0
-28.0,2.0,255.0,2.0,34.0,41.0,0
-29.0,2.0,246.0,27.0,36.0,51.0,0
-28.0,3.0,248.0,48.0,46.0,60.0,0
-23.0,0.0,248.0,69.0,68.0,67.0,0
-24.0,0.0,242.0,96.0,100.0,74.0,0
-30.0,0.0,235.0,130.0,124.0,80.0,0
-24.0,-6.0,242.0,162.0,137.0,85.0,0
-20.0,1.0,239.0,189.0,143.0,90.0,0
-19.0,1.0,255.0,210.0,146.0,95.0,0
-18.0,6.0,258.0,219.0,151.0,97.0,0
-15.0,13.0,257.0,212.0,153.0,97.0,0
-9.0,18.0,259.0,188.0,140.0,99.0,0
-4.0,23.0,260.0,151.0,111.0,102.0,0
-3.0,28.0,265.0,102.0,73.0,108.0,0
-2.0,28.0,261.0,51.0,36.0,117.0,0
-2.0,29.0,254.0,12.0,-6.0,122.0,0
-5.0,28.0,249.0,-9.0,-50.0,128.0,0
-8.0,24.0,246.0,-23.0,-94.0,129.0,0
-7.0,34.0,249.0,-30.0,-127.0,114.0,0
-16.0,28.0,245.0,-47.0,-144.0,110.0,0
-21.0,31.0,248.0,-76.0,-149.0,84.0,0
-29.0,29.0,250.0,-102.0,-152.0,77.0,0
-34.0,30.0,254.0,-123.0,-157.0,61.0,0
-42.0,35.0,258.0,-138.0,-162.0,38.0,0
-45.0,37.0,256.0,-153.0,-162.0,6.0,0
-45.0,37.0,251.0,-178.0,-155.0,-5.0,0
-41.0,37.0,249.0,-214.0,-130.0,-31.0,0
-47.0,36.0,251.0,-250.0,-104.0,-77.0,0
-49.0,38.0,246.0,-272.0,-85.0,-115.0,0
-43.0,31.0,239.0,-280.0,-75.0,-144.0,0
-36.0,28.0,236.0,-273.0,-74.0,-152.0,0
-31.0,27.0,240.0,-259.0,-70.0,-166.0,0
-21.0,24.0,234.0,-233.0,-66.0,-178.0,0
-14.0,17.0,237.0,-202.0,-48.0,-181.0,0
-9.0,8.0,236.0,-168.0,-34.0,-183.0,0
0.0,2.0,237.0,-142.0,-30.0,-188.0,0
4.0,0.0,246.0,-132.0,-36.0,-189.0,0
4.0,-3.0,248.0,-128.0,-41.0,-187.0,0
4.0,-2.0,253.0,-122.0,-43.0,-181.0,0
3.0,-6.0,263.0,-114.0,-41.0,-175.0,0
-3.0,-5.0,263.0,-96.0,-42.0,-174.0,0
-8.0,-12.0,263.0,-75.0,-50.0,-180.0,0
-15.0,-4.0,260.0,-62.0,-66.0,-192.0,0
-21.0,0.0,257.0,-57.0,-75.0,-208.0,0
-24.0,0.0,256.0,-60.0,-71.0,-227.0,0
-26.0,1.0,256.0,-66.0,-55.0,-248.0,0
-27.0,1.0,253.0,-70.0,-30.0,-272.0,0
-29.0,7.0,253.0,-74.0,-4.0,-300.0,0
-32.0,5.0,254.0,-79.0,12.0,-323.0,0
-30.0,8.0,259.0,-89.0,11.0,-345.0,0
-35.0,10.0,259.0,-95.0,-3.0,-366.0,0
-30.0,8.0,262.0,-106.0,-27.0,-392.0,0
-25.0,7.0,271.0,-117.0,-47.0,-426.0,0
-23.0,6.0,266.0,-128.0,-56.0,-461.0,0
-24.0,6.0,263.0,-136.0,-69.0,-493.0,0
-24.0,3.0,259.0,-142.0,-97.0,-515.0,0
-25.0,1.0,259.0,-148.0,-136.0,-528.0,0
-26.0,0.0,256.0,-151.0,-163.0,-546.0,0
-32.0,-2.0,253.0,-166.0,-163.0,-567.0,0
-41.0,-5.0,258.0,-181.0,-146.0,-590.0,0
-50.0,-5.0,259.0,-177.0,-165.0,-601.0,0
-59.0,-5.0,255.0,-148.0,-241.0,-607.0,0
-54.0,-6.0,251.0,-98.0,-360.0,-598.0,0
-49.0,1.0,233.0,-45.0,-488.0,-584.0,0
-35.0,2.0,222.0,2.0,-595.0,-566.0,0
-26.0,6.0,221.0,21.0,-661.0,-553.0,0
-17.0,12.0,227.0,15.0,-690.0,-551.0,0
-18.0,17.0,230.0,-1.0,-686.0,-561.0,0
-18.0,16.0,232.0,-16.0,-655.0,-577.0,0
-16.0,20.0,232.0,-24.0,-592.0,-580.0,0
-8.0,14.0,225.0,-18.0,-494.0,-579.0,0
0.0,20.0,228.0,-15.0,-386.0,-580.0,0
12.0,28.0,232.0,-14.0,-290.0,-585.0,0
23.0,33.0,237.0,-16.0,-216.0,-589.0,0
25.0,28.0,231.0,-15.0,-156.0,-587.0,0
22.0,27.0,229.0,-5.0,-117.0,-575.0,0
14.0,23.0,232.0,14.0,-98.0,-555.0,0
1.0,17.0,242.0,37.0,-87.0,-525.0,0
-5.0,9.0,245.0,50.0,-74.0,-489.0,0
-19.0,4.0,258.0,49.0,-62.0,-458.0,0
-32.0,0.0,257.0,32.0,-43.0,-429.0,0
-45.0,-7.0,261.0,-6.0,2.0,-404.0,0
-54.0,-6.0,267.0,-59.0,60.0,-383.0,0
-55.0,-24.0,281.0,-110.0,99.0,-361.0,0
-54.0,-29.0,281.0,-132.0,94.0,-344.0,0
-45.0,-35.0,276.0,-124.0,47.0,-321.0,0
-27.0,-38.0,273.0,-96.0,-22.0,-302.0,0
-8.0,-35.0,273.0,-61.0,-88.0,-296.0,0
9.0,-33.0,263.0,-37.0,-139.0,-292.0,0
16.0,-30.0,262.0,-20.0,-164.0,-291.0,0
19.0,-26.0,259.0,0.0,-185.0,-283.0,0
22.0,-18.0,252.0,33.0,-214.0,-267.0,0
21.0,-18.0,245.0,87.0,-248.0,-248.0,0
19.0,-14.0,245.0,129.0,-272.0,-225.0,0
28.0,-8.0,242.0,174.0,-279.0,-203.0,0
32.0,-3.0,250.0,221.0,-278.0,-182.0,0
36.0,0.0,233.0,262.0,-275.0,-158.0,0
39.0,3.0,238.0,292.0,-272.0,-129.0,0
38.0,9.0,236.0,307.0,-267.0,-106.0,0
44.0,7.0,241.0,309.0,-253.0,-82.0,0
54.0,10.0,245.0,306.0,-230.0,-60.0,0
62.0,13.0,251.0,311.0,-200.0,-41.0,0
71.0,15.0,253.0,314.0,-167.0,-31.0,0
79.0,19.0,252.0,310.0,-148.0,-26.0,0
85.0,23.0,247.0,288.0,-154.0,-12.0,0
82.0,24.0,242.0,248.0,-193.0,7.0,0
86.0,16.0,242.0,208.0,-240.0,23.0,0
86.0,6.0,238.0,188.0,-272.0,35.0,0
84.0,6.0,236.0,198.0,-276.0,47.0,0
88.0,1.0,229.0,229.0,-259.0,48.0,0
97.0,2.0,227.0,270.0,-227.0,31.0,0
92.0,3.0,236.0,308.0,-186.0,11.0,0
82.0,0.0,245.0,346.0,-139.0,-4.0,0
75.0,-4.0,246.0,384.0,-94.0,-10.0,0
78.0,-7.0,246.0,427.0,-52.0,-13.0,0
72.0,-9.0,248.0,474.0,-13.0,-16.0,0
69.0,-12.0,250.0,515.0,21.0,-19.0,0
75.0,-6.0,254.0,546.0,53.0,-25.0,0
77.0,-2.0,250.0,557.0,88.0,-31.0,0
77.0,0.0,249.0,551.0,126.0,-32.0,0
80.0,3.0,247.0,538.0,164.0,-28.0,0
84.0,4.0,251.0,527.0,206.0,-18.0,0
85.0,7.0,247.0,520.0,250.0,-6.0,0
81.0,15.0,245.0,509.0,298.0,8.0,0
80.0,17.0,251.0,491.0,345.0,23.0,0
67.0,26.0,249.0,468.0,386.0,37.0,0
62.0,27.0,253.0,441.0,426.0,53.0,0
42.0,35.0,253.0,406.0,470.0,66.0,0
29.0,33.0,257.0,370.0,524.0,79.0,0
9.0,35.0,261.0,342.0,586.0,88.0,0
-4.0,32.0,260.0,337.0,653.0,99.0,0
-21.0,28.0,257.0,354.0,716.0,110.0,0
-27.0,29.0,258.0,393.0,763.0,123.0,0
-32.0,29.0,254.0,444.0,790.0,136.0,0
-39.0,26.0,248.0,493.0,796.0,154.0,0
-43.0,25.0,248.0,531.0,786.0,175.0,0
-50.0,27.0,254.0,558.0,769.0,204.0,0
-49.0,23.0,256.0,571.0,748.0,238.0,0
-51.0,28.0,255.0,578.0,718.0,275.0,0
-56.0,23.0,264.0,588.0,682.0,317.0,0
-61.0,22.0,266.0,595.0,651.0,359.0,0
-67.0,27.0,271.0,595.0,632.0,401.0,0
-77.0,27.0,274.0,586.0,628.0,443.0,0
-88.0,33.0,275.0,566.0,643.0,484.0,0
-99.0,41.0,280.0,539.0,678.0,523.0,0
-113.0,49.0,271.0,497.0,728.0,566.0,0
-120.0,52.0,268.0,440.0,773.0,622.0,0
-123.0,61.0,263.0,372.0,800.0,689.0,0
-127.0,65.0,258.0,298.0,807.0,755.0,0
-125.0,68.0,256.0,228.0,791.0,816.0,0
-110.0,73.0,252.0,165.0,762.0,857.0,0
-95.0,76.0,249.0,121.0,722.0,898.0,0
-72.0,79.0,252.0,86.0,708.0,908.0,0
-49.0,84.0,249.0,74.0,703.0,902.0,0
-15.0,87.0,245.0,73.0,719.0,895.0,0
11.0,83.0,245.0,72.0,756.0,882.0,0
39.0,85.0,236.0,56.0,818.0,839.0,0
64.0,72.0,239.0,33.0,891.0,808.0,0
78.0,68.0,232.0,-17.0,990.0,762.0,0
62.0,60.0,225.0,-78.0,1102.0,709.0,0
48.0,48.0,226.0,-141.0,1206.0,666.0,0
23.0,34.0,229.0,-187.0,1276.0,643.0,0
2.0,23.0,241.0,-208.0,1302.0,629.0,0
-11.0,10.0,249.0,-195.0,1293.0,616.0,0
-20.0,1.0,256.0,-158.0,1268.0,598.0,0
-28.0,2.0,267.0,-106.0,1244.0,586.0,0
-30.0,-6.0,280.0,-55.0,1230.0,579.0,0
-27.0,-8.0,294.0,-11.0,1226.0,573.0,0
-19.0,-17.0,310.0,23.0,1235.0,562.0,0
-17.0,-12.0,313.0,58.0,1252.0,547.0,0
-11.0,-11.0,319.0,98.0,1287.0,542.0,0
-19.0,-6.0,310.0,140.0,1338.0,524.0,0
-19.0,0.0,299.0,182.0,1400.0,492.0,0
-23.0,5.0,288.0,213.0,1464.0,451.0,0
-26.0,15.0,277.0,231.0,1523.0,428.0,0
-31.0,23.0,268.0,233.0,1571.0,395.0,0
-40.0,30.0,256.0,228.0,1606.0,356.0,0
-42.0,46.0,247.0,208.0,1632.0,313.0,0
-41.0,58.0,238.0,182.0,1645.0,297.0,0
-46.0,64.0,227.0,135.0,1658.0,286.0,0
-51.0,68.0,213.0,71.0,1660.0,271.0,0
-56.0,76.0,208.0,-22.0,1656.0,247.0,0
-59.0,79.0,205.0,-107.0,1643.0,245.0,0
-61.0,78.0,202.0,-204.0,1642.0,253.0,0
-66.0,69.0,199.0,-298.0,1644.0,255.0,0
-72.0,65.0,204.0,-384.0,1650.0,241.0,0
-81.0,60.0,197.0,-455.0,1653.0,241.0,0
-89.0,53.0,200.0,-511.0,1665.0,242.0,0
-99.0,41.0,203.0,-545.0,1687.0,235.0,0
-101.0,39.0,203.0,-553.0,1721.0,217.0,0
-110.0,39.0,202.0,-546.0,1759.0,214.0,0
-117.0,30.0,203.0,-531.0,1802.0,209.0,0
-127.0,27.0,200.0,-507.0,1843.0,192.0,0
-126.0,29.0,195.0,-479.0,1875.0,157.0,0
-129.0,28.0,200.0,-454.0,1900.0,137.0,0
-126.0,25.0,199.0,-437.0,1925.0,116.0,0
-126.0,18.0,193.0,-423.0,1944.0,91.0,0
-127.0,19.0,194.0,-406.0,1954.0,69.0,0
-123.0,21.0,195.0,-375.0,1949.0,50.0,0
-117.0,21.0,195.0,-340.0,1938.0,46.0,0
-113.0,22.0,194.0,-302.0,1927.0,39.0,0
-113.0,25.0,190.0,-268.0,1912.0,35.0,0
-114.0,28.0,186.0,-244.0,1893.0,29.0,0
-117.0,29.0,188.0,-232.0,1868.0,25.0,0
-117.0,34.0,185.0,-233.0,1845.0,19.0,0
-123.0,31.0,190.0,-240.0,1825.0,14.0,0
-125.0,32.0,180.0,-258.0,1827.0,16.0,0
-129.0,32.0,176.0,-281.0,1848.0,12.0,0
-128.0,26.0,173.0,-305.0,1889.0,2.0,0
-141.0,23.0,159.0,-326.0,1948.0,-12.0,0
-137.0,27.0,153.0,-339.0,2023.0,-39.0,0
-132.0,21.0,149.0,-349.0,2102.0,-37.0,0
-139.0,21.0,144.0,-352.0,2193.0,-29.0,0
-139.0,14.0,140.0,-348.0,2271.0,-31.0,0
-144.0,17.0,145.0,-335.0,2313.0,-39.0,0
-150.0,19.0,146.0,-317.0,2310.0,-29.0,0
-150.0,16.0,155.0,-300.0,2273.0,-8.0,0
-153.0,18.0,161.0,-283.0,2225.0,7.0,0
-149.0,20.0,163.0,-277.0,2185.0,8.0,0
-141.0,17.0,168.0,-289.0,2158.0,13.0,0
-138.0,16.0,173.0,-322.0,2142.0,30.0,0
-136.0,12.0,174.0,-361.0,2131.0,53.0,0
-144.0,8.0,176.0,-385.0,2116.0,73.0,0
-146.0,3.0,179.0,-389.0,2094.0,82.0,0
-153.0,3.0,177.0,-371.0,2072.0,116.0,0
-153.0,-5.0,180.0,-333.0,2063.0,152.0,0
-150.0,2.0,177.0,-279.0,2070.0,170.0,0
-146.0,0.0,172.0,-206.0,2091.0,170.0,0
-150.0,-3.0,171.0,-116.0,2118.0,163.0,0
-159.0,-5.0,166.0,-10.0,2141.0,149.0,0
-169.0,-6.0,158.0,107.0,2155.0,138.0,0
-179.0,-4.0,143.0,223.0,2151.0,122.0,0
-188.0,-3.0,140.0,326.0,2129.0,105.0,0
-201.0,0.0,131.0,404.0,2084.0,91.0,0
-218.0,3.0,125.0,458.0,2023.0,83.0,0
-225.0,10.0,122.0,489.0,1938.0,77.0,0
-230.0,13.0,121.0,501.0,1841.0,70.0,0
-240.0,23.0,118.0,501.0,1744.0,59.0,0
-249.0,31.0,117.0,498.0,1662.0,48.0,0
-254.0,40.0,119.0,491.0,1593.0,37.0,0
-248.0,41.0,125.0,478.0,1528.0,27.0,0
-244.0,45.0,128.0,460.0,1467.0,6.0,0
-241.0,50.0,132.0,434.0,1417.0,-16.0,0
-235.0,49.0,134.0,401.0,1378.0,-43.0,0
-231.0,55.0,131.0,365.0,1346.0,-70.0,0
-229.0,52.0,134.0,329.0,1314.0,-96.0,0
-227.0,49.0,138.0,296.0,1269.0,-121.0,0
-226.0,41.0,133.0,269.0,1211.0,-143.0,0
-236.0,48.0,131.0,247.0,1144.0,-161.0,0
-232.0,41.0,128.0,235.0,1070.0,-174.0,0
-235.0,43.0,123.0,233.0,995.0,-180.0,0
-239.0,45.0,124.0,239.0,919.0,-179.0,0
-243.0,41.0,121.0,252.0,839.0,-180.0,0
-249.0,42.0,118.0,275.0,751.0,-179.0,0
-253.0,43.0,112.0,309.0,650.0,-179.0,0
-250.0,43.0,121.0,344.0,541.0,-176.0,0
-248.0,43.0,121.0,369.0,433.0,-172.0,0
-245.0,48.0,126.0,380.0,337.0,-172.0,0
-236.0,51.0,134.0,379.0,248.0,-175.0,0
-220.0,57.0,133.0,368.0,167.0,-186.0,0
-204.0,56.0,140.0,345.0,98.0,-209.0,0
-198.0,59.0,141.0,302.0,46.0,-238.0,0
-191.0,58.0,139.0,240.0,18.0,-275.0,0
-186.0,55.0,133.0,163.0,13.0,-301.0,0
-182.0,43.0,129.0,88.0,25.0,-321.0,0
-180.0,36.0,122.0,33.0,46.0,-340.0,0
-183.0,36.0,116.0,9.0,66.0,-356.0,0
-188.0,28.0,114.0,15.0,74.0,-367.0,0
-197.0,29.0,108.0,47.0,72.0,-371.0,0
-204.0,23.0,103.0,96.0,62.0,-369.0,0
-212.0,22.0,104.0,150.0,49.0,-365.0,0
-225.0,25.0,98.0,206.0,35.0,-357.0,0
-236.0,26.0,99.0,237.0,24.0,-346.0,0
-247.0,24.0,104.0,247.0,21.0,-330.0,0
-253.0,28.0,105.0,242.0,24.0,-313.0,0
-258.0,26.0,107.0,223.0,35.0,-293.0,0
-261.0,28.0,110.0,196.0,49.0,-274.0,0
-269.0,23.0,115.0,168.0,69.0,-255.0,0
-268.0,27.0,116.0,145.0,95.0,-233.0,0
-267.0,25.0,124.0,126.0,130.0,-215.0,0
-259.0,19.0,127.0,108.0,177.0,-203.0,0
-265.0,19.0,125.0,93.0,228.0,-194.0,0
-265.0,18.0,126.0,83.0,282.0,-186.0,0
-259.0,18.0,128.0,76.0,334.0,-177.0,0
-259.0,19.0,124.0,79.0,382.0,-167.0,0
-251.0,15.0,120.0,88.0,425.0,-156.0,0
-245.0,21.0,113.0,102.0,462.0,-149.0,0
-237.0,15.0,110.0,120.0,498.0,-146.0,0
-238.0,12.0,106.0,138.0,528.0,-146.0,0
-236.0,17.0,104.0,153.0,552.0,-145.0,0
-233.0,10.0,91.0,157.0,568.0,-142.0,0
-227.0,10.0,99.0,152.0,580.0,-138.0,0
-221.0,8.0,98.0,134.0,592.0,-137.0,0
-217.0,8.0,98.0,110.0,603.0,-133.0,0
-214.0,5.0,98.0,89.0,614.0,-125.0,0
-209.0,7.0,95.0,74.0,618.0,-117.0,0
-211.0,7.0,95.0,63.0,614.0,-106.0,0
-214.0,10.0,92.0,54.0,601.0,-94.0,0
-215.0,8.0,90.0,40.0,582.0,-75.0,0
-215.0,13.0,85.0,20.0,559.0,-56.0,0
-217.0,11.0,85.0,-8.0,541.0,-35.0,0
-225.0,14.0,77.0,-40.0,528.0,-15.0,0
-229.0,12.0,81.0,-75.0,521.0,3.0,0
-236.0,9.0,78.0,-112.0,514.0,23.0,0
-237.0,8.0,78.0,-145.0,501.0,46.0,0
-242.0,5.0,79.0,-176.0,480.0,66.0,0
-247.0,2.0,83.0,-194.0,452.0,82.0,0
-245.0,-3.0,83.0,-202.0,417.0,90.0,0
-247.0,-5.0,84.0,-194.0,382.0,96.0,0
-255.0,-11.0,86.0,-177.0,342.0,92.0,0
-257.0,-23.0,91.0,-154.0,289.0,88.0,0
-261.0,-23.0,96.0,-132.0,223.0,79.0,0
-258.0,-27.0,96.0,-111.0,154.0,68.0,0
-257.0,-27.0,101.0,-100.0,101.0,54.0,0
-252.0,-26.0,104.0,-96.0,65.0,42.0,0
-256.0,-18.0,109.0,-98.0,51.0,36.0,0
-257.0,-14.0,102.0,-99.0,53.0,27.0,0
-259.0,-9.0,99.0,-100.0,66.0,14.0,0
-261.0,-4.0,95.0,-100.0,89.0,2.0,0
-260.0,0.0,88.0,-98.0,119.0,-6.0,0
-255.0,3.0,81.0,-91.0,156.0,-18.0,0
-255.0,9.0,78.0,-74.0,203.0,-36.0,0
-254.0,11.0,78.0,-52.0,254.0,-62.0,0
-258.0,12.0,73.0,-35.0,303.0,-87.0,0
-256.0,9.0,77.0,-27.0,349.0,-112.0,0
-254.0,6.0,84.0,-7.0,388.0,-137.0,0
-245.0,3.0,87.0,25.0,429.0,-157.0,0
-243.0,9.0,90.0,70.0,475.0,-170.0,0
-239.0,6.0,88.0,116.0,527.0,-181.0,0
-235.0,9.0,92.0,148.0,581.0,-178.0,0
-232.0,8.0,90.0,163.0,646.0,-175.0,0
-227.0,2.0,91.0,167.0,720.0,-166.0,0
-228.0,7.0,85.0,164.0,793.0,-155.0,0
-229.0,7.0,87.0,160.0,857.0,-143.0,0
-226.0,13.0,81.0,157.0,907.0,-135.0,0
-225.0,15.0,72.0,150.0,936.0,-122.0,0
-225.0,22.0,68.0,136.0,944.0,-109.0,0
-220.0,24.0,66.0,109.0,942.0,-94.0,0
-218.0,27.0,66.0,66.0,940.0,-77.0,0
-215.0,27.0,59.0,12.0,940.0,-58.0,0
-217.0,26.0,64.0,-45.0,946.0,-40.0,0
-216.0,29.0,61.0,-98.0,958.0,-18.0,0
-218.0,22.0,61.0,-146.0,971.0,2.0,0
-227.0,17.0,62.0,-179.0,983.0,23.0,0
-232.0,15.0,63.0,-195.0,982.0,44.0,0
-241.0,10.0,56.0,-191.0,964.0,65.0,0
-249.0,3.0,51.0,-166.0,932.0,94.0,0
-250.0,2.0,51.0,-128.0,891.0,127.0,0
-256.0,2.0,50.0,-79.0,843.0,158.0,0
-262.0,0.0,42.0,-30.0,794.0,187.0,0
-265.0,4.0,40.0,19.0,748.0,211.0,0
-271.0,7.0,35.0,58.0,709.0,230.0,0
-263.0,7.0,42.0,91.0,682.0,245.0,0
-267.0,15.0,42.0,113.0,661.0,260.0,0
-268.0,19.0,42.0,123.0,645.0,268.0,0
-269.0,24.0,37.0,117.0,628.0,276.0,0
-264.0,26.0,48.0,94.0,605.0,279.0,0
-260.0,27.0,48.0,63.0,579.0,279.0,0
-259.0,26.0,51.0,31.0,545.0,278.0,0
-255.0,24.0,48.0,2.0,518.0,276.0,0
-254.0,24.0,46.0,-20.0,495.0,276.0,0
-252.0,24.0,44.0,-32.0,481.0,271.0,0
-247.0,17.0,48.0,-38.0,475.0,264.0,0
-248.0,13.0,46.0,-34.0,479.0,253.0,0
-248.0,9.0,35.0,-23.0,482.0,244.0,0
-247.0,3.0,36.0,-5.0,483.0,236.0,0
-245.0,0.0,33.0,24.0,480.0,226.0,0
-251.0,0.0,36.0,65.0,469.0,219.0,0
-253.0,-3.0,34.0,114.0,451.0,218.0,0
-252.0,-10.0,33.0,166.0,425.0,214.0,0
-253.0,-9.0,36.0,218.0,397.0,211.0,0
-252.0,-11.0,35.0,271.0,367.0,209.0,0
-245.0,-7.0,41.0,318.0,335.0,205.0,0
-249.0,-4.0,40.0,361.0,305.0,205.0,0
-247.0,-2.0,49.0,395.0,279.0,201.0,0
-244.0,-2.0,45.0,420.0,260.0,193.0,0
-240.0,1.0,54.0,436.0,252.0,178.0,0
-246.0,3.0,46.0,443.0,253.0,158.0,0
-247.0,7.0,47.0,447.0,259.0,137.0,0
-254.0,11.0,43.0,451.0,269.0,116.0,0
-254.0,13.0,40.0,456.0,282.0,92.0,0
-258.0,19.0,37.0,462.0,297.0,67.0,0
-262.0,27.0,30.0,468.0,311.0,42.0,0
-268.0,29.0,28.0,473.0,326.0,18.0,0
-264.0,32.0,28.0,474.0,338.0,-6.0,0
-262.0,36.0,26.0,469.0,345.0,-29.0,0
-265.0,33.0,20.0,461.0,346.0,-55.0,0
-267.0,43.0,20.0,447.0,344.0,-77.0,0
-265.0,36.0,23.0,430.0,335.0,-94.0,0
-264.0,37.0,18.0,410.0,317.0,-105.0,0
-262.0,35.0,25.0,397.0,293.0,-111.0,0
-259.0,34.0,20.0,391.0,268.0,-114.0,0
-260.0,32.0,25.0,391.0,240.0,-120.0,0
-256.0,30.0,21.0,399.0,215.0,-124.0,0
-249.0,31.0,28.0,412.0,194.0,-129.0,0
-250.0,29.0,25.0,429.0,181.0,-130.0,0
-249.0,29.0,25.0,447.0,171.0,-132.0,0
-247.0,30.0,20.0,464.0,165.0,-133.0,0
-254.0,28.0,23.0,474.0,159.0,-133.0,0
-252.0,29.0,15.0,487.0,154.0,-131.0,0
-254.0,33.0,19.0,497.0,149.0,-128.0,0
-252.0,33.0,18.0,510.0,144.0,-121.0,0
-251.0,38.0,17.0,518.0,145.0,-117.0,0
-249.0,36.0,19.0,522.0,154.0,-117.0,0
-255.0,36.0,14.0,524.0,169.0,-113.0,0
-253.0,36.0,19.0,524.0,185.0,-105.0,0
-252.0,35.0,18.0,520.0,199.0,-102.0,0
-253.0,35.0,23.0,511.0,209.0,-95.0,0
-251.0,33.0,21.0,502.0,215.0,-93.0,0
-253.0,34.0,25.0,490.0,218.0,-93.0,0
-253.0,33.0,25.0,476.0,221.0,-94.0,0
-255.0,32.0,25.0,463.0,218.0,-93.0,0
-255.0,33.0,25.0,452.0,213.0,-91.0,0
-254.0,34.0,30.0,444.0,203.0,-87.0,0
-254.0,35.0,30.0,435.0,194.0,-82.0,0
-257.0,37.0,28.0,427.0,185.0,-84.0,0
-258.0,38.0,28.0,411.0,176.0,-83.0,0
-261.0,44.0,27.0,385.0,165.0,-85.0,0
-260.0,43.0,23.0,351.0,158.0,-88.0,0
-262.0,45.0,24.0,304.0,152.0,-88.0,0
-263.0,46.0,23.0,250.0,149.0,-90.0,0
-260.0,45.0,16.0,187.0,148.0,-92.0,0
-262.0,41.0,16.0,121.0,148.0,-94.0,0
-268.0,43.0,11.0,55.0,147.0,-94.0,0
-270.0,44.0,14.0,-9.0,143.0,-92.0,0
-266.0,41.0,12.0,-70.0,140.0,-87.0,0
-266.0,43.0,13.0,-128.0,141.0,-80.0,0
-263.0,42.0,7.0,-181.0,149.0,-72.0,0
-263.0,41.0,1.0,-230.0,162.0,-66.0,0
-264.0,40.0,4.0,-274.0,178.0,-60.0,0
-267.0,35.0,2.0,-316.0,190.0,-53.0,0
-277.0,34.0,2.0,-352.0,191.0,-49.0,0
-274.0,29.0,5.0,-384.0,181.0,-44.0,0
-278.0,25.0,2.0,-414.0,155.0,-41.0,0
-281.0,19.0,4.0,-441.0,119.0,-37.0,0
-275.0,15.0,6.0,-462.0,78.0,-37.0,0
-271.0,10.0,13.0,-475.0,34.0,-40.0,0
-269.0,4.0,11.0,-481.0,-6.0,-43.0,0
-265.0,0.0,11.0,-480.0,-39.0,-48.0,0
-260.0,-4.0,10.0,-472.0,-68.0,-55.0,0
-260.0,-7.0,12.0,-458.0,-92.0,-60.0,0
-256.0,-5.0,15.0,-437.0,-111.0,-68.0,0
-255.0,-8.0,16.0,-410.0,-129.0,-74.0,0
-255.0,-4.0,10.0,-376.0,-148.0,-83.0,0
-255.0,-8.0,13.0,-340.0,-169.0,-96.0,0
-254.0,-6.0,16.0,-303.0,-189.0,-108.0,0
-255.0,-1.0,14.0,-265.0,-214.0,-123.0,0
-255.0,0.0,15.0,-228.0,-242.0,-133.0,0
-264.0,1.0,14.0,-191.0,-271.0,-134.0,0
-265.0,0.0,16.0,-152.0,-298.0,-134.0,0
-266.0,7.0,23.0,-110.0,-327.0,-126.0,0
-259.0,5.0,21.0,-71.0,-342.0,-112.0,0
-257.0,14.0,14.0,-33.0,-337.0,-98.0,0
-257.0,18.0,18.0,-6.0,-314.0,-85.0,0
-256.0,25.0,17.0,10.0,-277.0,-76.0,0
-255.0,26.0,18.0,13.0,-237.0,-69.0,0
-253.0,25.0,21.0,3.0,-196.0,-64.0,0
-254.0,29.0,22.0,-11.0,-155.0,-60.0,0
-257.0,25.0,18.0,-33.0,-114.0,-57.0,0
-256.0,28.0,23.0,-58.0,-77.0,-57.0,0
-255.0,20.0,26.0,-83.0,-43.0,-58.0,0
-254.0,21.0,25.0,-109.0,-15.0,-61.0,0
-250.0,15.0,23.0,-133.0,6.0,-61.0,0
-249.0,14.0,26.0,-152.0,24.0,-62.0,0
-247.0,10.0,27.0,-170.0,36.0,-63.0,0
-249.0,8.0,26.0,-183.0,47.0,-64.0,0
-247.0,8.0,26.0,-196.0,54.0,-63.0,0
-247.0,8.0,28.0,-206.0,58.0,-59.0,0
-247.0,8.0,27.0,-214.0,62.0,-57.0,0
-248.0,7.0,26.0,-222.0,65.0,-54.0,0
-249.0,7.0,22.0,-231.0,67.0,-54.0,0
-252.0,4.0,24.0,-240.0,67.0,-49.0,0
-253.0,13.0,21.0,-247.0,67.0,-43.0,0
-255.0,8.0,21.0,-251.0,60.0,-37.0,0
-258.0,10.0,21.0,-252.0,51.0,-28.0,0
-258.0,9.0,19.0,-252.0,35.0,-19.0,0
-259.0,11.0,15.0,-250.0,18.0,-10.0,0
-261.0,9.0,16.0,-248.0,-5.0,0.0,0
-267.0,9.0,19.0,-242.0,-30.0,13.0,0
-267.0,8.0,17.0,-233.0,-59.0,27.0,0
-262.0,7.0,16.0,-221.0,-90.0,41.0,0
-265.0,9.0,20.0,-208.0,-121.0,55.0,0
-263.0,6.0,18.0,-193.0,-154.0,70.0,0
-258.0,8.0,21.0,-174.0,-188.0,85.0,0
-260.0,12.0,24.0,-155.0,-221.0,100.0,0
-257.0,6.0,21.0,-136.0,-253.0,113.0,0
-257.0,6.0,24.0,-116.0,-282.0,124.0,0
-256.0,9.0,29.0,-96.0,-308.0,130.0,0
-257.0,10.0,29.0,-74.0,-330.0,134.0,0
-256.0,15.0,35.0,-49.0,-349.0,136.0,0
-257.0,14.0,37.0,-25.0,-363.0,133.0,0
-257.0,14.0,38.0,-3.0,-370.0,129.0,0
-252.0,11.0,37.0,19.0,-373.0,122.0,0
-252.0,14.0,33.0,39.0,-374.0,115.0,0
-250.0,12.0,38.0,53.0,-367.0,107.0,0
-253.0,11.0,39.0,66.0,-359.0,100.0,0
-249.0,9.0,39.0,77.0,-348.0,91.0,0
-249.0,11.0,40.0,80.0,-333.0,84.0,0
-248.0,9.0,41.0,83.0,-315.0,78.0,0
-248.0,10.0,43.0,81.0,-296.0,71.0,0
-248.0,12.0,45.0,76.0,-276.0,66.0,0
-246.0,10.0,41.0,68.0,-256.0,59.0,0
-243.0,14.0,40.0,60.0,-237.0,53.0,0
-242.0,14.0,45.0,50.0,-219.0,50.0,0
-250.0,15.0,48.0,41.0,-201.0,45.0,0
-245.0,16.0,44.0,32.0,-183.0,43.0,0
-246.0,14.0,45.0,21.0,-166.0,40.0,0
-247.0,16.0,45.0,13.0,-148.0,37.0,0
-247.0,18.0,43.0,6.0,-132.0,35.0,0
-249.0,18.0,47.0,0.0,-115.0,33.0,0
-248.0,18.0,43.0,-6.0,-100.0,31.0,0
-247.0,21.0,45.0,-9.0,-87.0,27.0,0
-248.0,19.0,47.0,-12.0,-76.0,26.0,0
-245.0,19.0,44.0,-15.0,-68.0,25.0,0
-248.0,22.0,47.0,-19.0,-60.0,25.0,0
-249.0,21.0,47.0,-22.0,-54.0,23.0,0
-248.0,26.0,45.0,-26.0,-46.0,23.0,0
-250.0,26.0,43.0,-30.0,-42.0,23.0,0
-248.0,24.0,45.0,-37.0,-39.0,24.0,0
-247.0,27.0,47.0,-44.0,-35.0,25.0,0
-247.0,28.0,47.0,-53.0,-34.0,27.0,0
-246.0,27.0,46.0,-64.0,-30.0,29.0,0
-247.0,26.0,44.0,-76.0,-27.0,34.0,0
-247.0,26.0,43.0,-88.0,-24.0,35.0,0
-247.0,27.0,45.0,-102.0,-21.0,38.0,0
-248.0,28.0,48.0,-115.0,-19.0,41.0,0
-254.0,22.0,44.0,-129.0,-17.0,42.0,0
-248.0,28.0,48.0,-142.0,-15.0,48.0,0
-251.0,29.0,49.0,-156.0,-15.0,50.0,0
-251.0,27.0,45.0,-169.0,-15.0,51.0,0
-251.0,26.0,44.0,-180.0,-14.0,53.0,0
-251.0,28.0,48.0,-188.0,-15.0,53.0,0
-251.0,24.0,43.0,-193.0,-18.0,54.0,0
-252.0,25.0,44.0,-198.0,-18.0,56.0,0
-253.0,26.0,42.0,-201.0,-18.0,54.0,0
-252.0,29.0,47.0,-201.0,-18.0,54.0,0
-255.0,28.0,43.0,-198.0,-17.0,50.0,0
-254.0,31.0,39.0,-196.0,-14.0,43.0,0
-255.0,26.0,40.0,-191.0,-11.0,35.0,0
-254.0,27.0,43.0,-183.0,-9.0,30.0,0
-256.0,27.0,40.0,-175.0,-7.0,21.0,0
-254.0,24.0,39.0,-165.0,-7.0,12.0,0
-254.0,24.0,42.0,-153.0,-8.0,7.0,0
-254.0,24.0,36.0,-141.0,-10.0,-3.0,0
-256.0,22.0,35.0,-125.0,-11.0,-9.0,0
-257.0,25.0,32.0,-108.0,-9.0,-18.0,0
-251.0,18.0,38.0,-88.0,-8.0,-22.0,0
-253.0,15.0,37.0,-73.0,-4.0,-29.0,0
-246.0,14.0,38.0,-60.0,0.0,-33.0,0
-251.0,16.0,36.0,-47.0,3.0,-35.0,0
-252.0,20.0,38.0,-38.0,5.0,-38.0,0
-252.0,18.0,39.0,-31.0,9.0,-40.0,0
-252.0,21.0,40.0,-27.0,10.0,-41.0,0
-249.0,17.0,38.0,-26.0,15.0,-41.0,0
-250.0,13.0,39.0,-28.0,18.0,-40.0,0
-250.0,17.0,40.0,-31.0,24.0,-42.0,0
-250.0,16.0,39.0,-37.0,28.0,-43.0,0
-249.0,16.0,40.0,-41.0,31.0,-42.0,0
-249.0,17.0,54.0,-46.0,34.0,-41.0,0
-251.0,15.0,41.0,-50.0,35.0,-40.0,0
-252.0,13.0,41.0,-56.0,38.0,-39.0,0
-249.0,13.0,43.0,-59.0,40.0,-37.0,0
-250.0,15.0,44.0,-61.0,42.0,-37.0,0
-249.0,14.0,43.0,-63.0,45.0,-39.0,0
-249.0,12.0,40.0,-63.0,45.0,-38.0,0
-250.0,11.0,40.0,-63.0,47.0,-38.0,0
-249.0,11.0,42.0,-59.0,47.0,-36.0,0
-251.0,13.0,42.0,-55.0,49.0,-35.0,0
-253.0,9.0,44.0,-49.0,52.0,-38.0,0
-249.0,13.0,42.0,-42.0,53.0,-36.0,0
-252.0,9.0,44.0,-33.0,52.0,-37.0,0
-251.0,9.0,41.0,-26.0,53.0,-37.0,0
-250.0,8.0,40.0,-17.0,53.0,-38.0,0
-251.0,10.0,44.0,-11.0,54.0,-37.0,0
-250.0,11.0,42.0,-5.0,54.0,-38.0,0
-253.0,10.0,37.0,0.0,58.0,-37.0,0
-250.0,11.0,43.0,5.0,60.0,-35.0,0
-251.0,15.0,39.0,11.0,61.0,-32.0,0
-248.0,11.0,42.0,16.0,65.0,-30.0,0
-251.0,14.0,38.0,21.0,65.0,-25.0,0
-248.0,12.0,39.0,28.0,64.0,-21.0,0
-251.0,11.0,41.0,31.0,58.0,-17.0,0
-253.0,13.0,35.0,35.0,55.0,-13.0,0
-252.0,13.0,36.0,38.0,51.0,-11.0,0
-249.0,13.0,41.0,40.0,45.0,-9.0,0
-253.0,13.0,36.0,42.0,40.0,-7.0,0
-251.0,15.0,40.0,44.0,36.0,-5.0,0
-254.0,14.0,37.0,45.0,32.0,-5.0,0
-255.0,13.0,33.0,47.0,29.0,-4.0,0
-253.0,22.0,36.0,48.0,28.0,-5.0,0
-246.0,14.0,36.0,52.0,29.0,-4.0,0
-254.0,15.0,39.0,54.0,32.0,-3.0,0
-250.0,15.0,34.0,60.0,35.0,-5.0,0
-254.0,17.0,40.0,61.0,37.0,-5.0,0
-253.0,16.0,38.0,65.0,39.0,-6.0,0
-253.0,18.0,39.0,69.0,40.0,-5.0,0
-252.0,15.0,35.0,72.0,41.0,-7.0,0
-252.0,18.0,40.0,75.0,42.0,-9.0,0
-253.0,14.0,40.0,77.0,41.0,-10.0,0
-254.0,16.0,35.0,78.0,43.0,-9.0,0
-252.0,14.0,30.0,82.0,44.0,-10.0,0
-251.0,18.0,39.0,85.0,43.0,-10.0,0
-253.0,19.0,37.0,87.0,44.0,-9.0,0
-252.0,14.0,41.0,91.0,45.0,-9.0,0
-252.0,18.0,38.0,94.0,44.0,-10.0,0
-250.0,14.0,40.0,99.0,44.0,-9.0,0
-254.0,17.0,35.0,102.0,45.0,-8.0,0
-253.0,19.0,39.0,105.0,44.0,-7.0,0
-252.0,22.0,38.0,108.0,43.0,-5.0,0
-253.0,18.0,41.0,111.0,41.0,-4.0,0
-254.0,18.0,35.0,112.0,39.0,-2.0,0
-251.0,22.0,32.0,115.0,39.0,-1.0,0
-255.0,20.0,38.0,117.0,37.0,-2.0,0
-254.0,20.0,38.0,116.0,35.0,-3.0,0
-254.0,20.0,39.0,117.0,33.0,-5.0,0
-254.0,21.0,41.0,116.0,33.0,-6.0,0
-256.0,18.0,36.0,116.0,33.0,-9.0,0
-253.0,17.0,37.0,116.0,33.0,-12.0,0
-253.0,16.0,33.0,117.0,35.0,-14.0,0
-254.0,15.0,41.0,115.0,35.0,-16.0,0
-252.0,17.0,35.0,116.0,37.0,-17.0,0
-256.0,22.0,38.0,115.0,36.0,-16.0,0
-257.0,16.0,36.0,112.0,37.0,-17.0,0
-255.0,18.0,36.0,109.0,36.0,-20.0,0
-254.0,19.0,37.0,106.0,35.0,-21.0,0
-255.0,17.0,37.0,100.0,33.0,-21.0,0
-255.0,18.0,39.0,94.0,30.0,-23.0,0
-258.0,18.0,37.0,88.0,29.0,-24.0,0
-256.0,16.0,35.0,83.0,27.0,-25.0,0
-255.0,14.0,37.0,80.0,25.0,-27.0,0
-253.0,17.0,37.0,75.0,25.0,-28.0,0
-255.0,18.0,33.0,73.0,25.0,-29.0,0
-254.0,17.0,40.0,74.0,26.0,-27.0,0
-254.0,18.0,36.0,74.0,25.0,-28.0,0
-252.0,15.0,38.0,76.0,26.0,-29.0,0
-253.0,17.0,36.0,78.0,25.0,-29.0,0
-251.0,12.0,34.0,80.0,24.0,-27.0,0
-254.0,15.0,37.0,84.0,23.0,-25.0,0
-252.0,14.0,34.0,87.0,24.0,-21.0,0
-253.0,15.0,33.0,92.0,23.0,-21.0,0
-253.0,15.0,38.0,97.0,23.0,-19.0,0
-254.0,16.0,40.0,101.0,22.0,-19.0,0
-250.0,15.0,31.0,104.0,20.0,-16.0,0
-246.0,13.0,43.0,107.0,15.0,-16.0,0
-253.0,16.0,34.0,109.0,9.0,-14.0,0
-254.0,14.0,36.0,112.0,3.0,-14.0,0
-253.0,14.0,36.0,114.0,-4.0,-13.0,0
-254.0,18.0,37.0,117.0,-9.0,-13.0,0
-255.0,17.0,37.0,116.0,-13.0,-11.0,0
-255.0,17.0,36.0,113.0,-17.0,-11.0,0
-253.0,17.0,36.0,110.0,-19.0,-8.0,0
-256.0,17.0,38.0,106.0,-19.0,-6.0,0
-252.0,18.0,36.0,100.0,-20.0,-4.0,0
-255.0,17.0,31.0,95.0,-21.0,-3.0,0
-256.0,14.0,44.0,92.0,-21.0,-1.0,0
-253.0,16.0,34.0,88.0,-21.0,-1.0,0
-253.0,16.0,37.0,85.0,-20.0,0.0,0
-255.0,16.0,40.0,81.0,-20.0,0.0,0
-255.0,17.0,36.0,78.0,-21.0,0.0,0
-254.0,20.0,35.0,74.0,-24.0,1.0,0
-250.0,15.0,36.0,71.0,-23.0,0.0,0
-257.0,19.0,38.0,70.0,-24.0,1.0,0
-255.0,18.0,37.0,70.0,-23.0,0.0,0
-254.0,18.0,36.0,72.0,-24.0,-1.0,0
-257.0,16.0,32.0,73.0,-23.0,-2.0,0
-256.0,21.0,35.0,76.0,-23.0,-4.0,0
-256.0,19.0,36.0,77.0,-23.0,-5.0,0
-255.0,19.0,37.0,78.0,-23.0,-7.0,0
-253.0,18.0,38.0,80.0,-24.0,-9.0,0
-252.0,18.0,37.0,80.0,-23.0,-10.0,0
-253.0,17.0,37.0,80.0,-25.0,-11.0,0
-252.0,20.0,31.0,82.0,-24.0,-15.0,0
-255.0,20.0,40.0,83.0,-25.0,-15.0,0
-252.0,18.0,41.0,86.0,-25.0,-17.0,0
-254.0,17.0,35.0,88.0,-25.0,-18.0,0
-255.0,11.0,35.0,92.0,-24.0,-18.0,0
-252.0,17.0,42.0,93.0,-26.0,-19.0,0
-251.0,17.0,39.0,95.0,-24.0,-22.0,0
-252.0,17.0,43.0,94.0,-24.0,-21.0,0
-253.0,18.0,40.0,95.0,-23.0,-21.0,0
-254.0,20.0,39.0,95.0,-24.0,-21.0,0
-252.0,14.0,39.0,95.0,-24.0,-18.0,0
-251.0,20.0,38.0,93.0,-23.0,-19.0,0
-250.0,17.0,41.0,93.0,-21.0,-18.0,0
-251.0,20.0,42.0,91.0,-21.0,-16.0,0
-251.0,16.0,41.0,89.0,-22.0,-14.0,0
-251.0,26.0,42.0,87.0,-23.0,-13.0,0
-253.0,17.0,37.0,84.0,-23.0,-11.0,0
-249.0,16.0,41.0,83.0,-23.0,-9.0,0
-252.0,15.0,38.0,83.0,-23.0,-8.0,0
-252.0,17.0,39.0,83.0,-23.0,-6.0,0
-253.0,16.0,40.0,85.0,-23.0,-6.0,0
-252.0,15.0,40.0,87.0,-22.0,-4.0,0
-250.0,12.0,41.0,89.0,-22.0,-5.0,0
-249.0,12.0,40.0,92.0,-20.0,-6.0,0
-252.0,19.0,42.0,95.0,-17.0,-5.0,0
-250.0,17.0,44.0,98.0,-16.0,-7.0,0
-251.0,17.0,40.0,102.0,-11.0,-10.0,0
-250.0,16.0,44.0,110.0,-8.0,-10.0,0
-249.0,15.0,43.0,117.0,-5.0,-12.0,0
-250.0,15.0,39.0,124.0,-2.0,-15.0,0
-253.0,17.0,41.0,130.0,1.0,-16.0,0
-249.0,18.0,40.0,136.0,5.0,-17.0,0
-251.0,16.0,41.0,141.0,7.0,-17.0,0
-251.0,18.0,44.0,142.0,9.0,-18.0,0
-252.0,20.0,48.0,142.0,9.0,-17.0,0
-251.0,17.0,50.0,142.0,10.0,-17.0,0
-251.0,20.0,45.0,139.0,11.0,-17.0,0
-251.0,18.0,44.0,136.0,13.0,-16.0,0
-252.0,17.0,45.0,133.0,15.0,-14.0,0
-249.0,18.0,44.0,128.0,18.0,-14.0,0
-251.0,18.0,41.0,124.0,21.0,-12.0,0
-250.0,16.0,42.0,118.0,24.0,-10.0,0
-251.0,16.0,44.0,113.0,25.0,-7.0,0
-251.0,19.0,44.0,110.0,25.0,-4.0,0
-252.0,18.0,45.0,105.0,23.0,-2.0,0
-248.0,15.0,40.0,100.0,23.0,-2.0,0
-254.0,18.0,43.0,97.0,22.0,-2.0,0
-253.0,25.0,35.0,94.0,21.0,0.0,0
-252.0,19.0,38.0,92.0,20.0,1.0,0
-253.0,17.0,37.0,90.0,21.0,0.0,0
-251.0,17.0,39.0,90.0,21.0,-2.0,0
-250.0,17.0,36.0,89.0,21.0,-2.0,0
-252.0,17.0,38.0,88.0,21.0,-3.0,0
-253.0,15.0,38.0,89.0,21.0,-2.0,0
-257.0,23.0,36.0,87.0,19.0,-1.0,0
-250.0,19.0,39.0,87.0,21.0,-5.0,0
-249.0,21.0,42.0,87.0,20.0,-5.0,0
-256.0,22.0,38.0,87.0,19.0,-5.0,0
-252.0,19.0,38.0,86.0,19.0,-6.0,0
-254.0,19.0,38.0,88.0,17.0,-4.0,0
-255.0,22.0,42.0,88.0,18.0,-5.0,0
-256.0,16.0,35.0,87.0,17.0,-6.0,0
-254.0,17.0,39.0,89.0,15.0,-6.0,0
-253.0,17.0,41.0,92.0,16.0,-6.0,0
-252.0,16.0,39.0,93.0,15.0,-7.0,0
-253.0,16.0,40.0,96.0,16.0,-6.0,0
-254.0,16.0,38.0,98.0,16.0,-6.0,0
-252.0,15.0,41.0,103.0,16.0,-7.0,0
-249.0,18.0,36.0,105.0,18.0,-11.0,0
-252.0,17.0,38.0,107.0,17.0,-9.0,0
-254.0,18.0,42.0,110.0,16.0,-8.0,0
-254.0,18.0,39.0,112.0,17.0,-9.0,0
-254.0,15.0,41.0,112.0,17.0,-9.0,0
-255.0,17.0,36.0,113.0,16.0,-11.0,0
-254.0,17.0,39.0,112.0,14.0,-11.0,0
-251.0,15.0,38.0,112.0,12.0,-10.0,0
-253.0,20.0,39.0,109.0,11.0,-10.0,0
-253.0,16.0,39.0,107.0,10.0,-10.0,0
-252.0,17.0,43.0,107.0,9.0,-8.0,0
-256.0,18.0,39.0,104.0,7.0,-8.0,0
-251.0,19.0,39.0,101.0,5.0,-10.0,0
-253.0,20.0,39.0,98.0,3.0,-7.0,0
-254.0,17.0,38.0,95.0,2.0,-7.0,0
-255.0,20.0,40.0,92.0,-1.0,-5.0,0
-252.0,17.0,40.0,88.0,-3.0,-6.0,0
-256.0,23.0,36.0,84.0,-4.0,-6.0,0
-251.0,18.0,39.0,80.0,-6.0,-4.0,0
-251.0,17.0,41.0,75.0,-8.0,-4.0,0
-256.0,18.0,40.0,68.0,-9.0,-3.0,0
-251.0,18.0,38.0,63.0,-10.0,-3.0,0
-256.0,14.0,35.0,57.0,-9.0,-6.0,0
-253.0,22.0,34.0,53.0,-8.0,-7.0,0
-252.0,16.0,38.0,49.0,-6.0,-6.0,0
-253.0,16.0,40.0,47.0,-4.0,-6.0,0
-253.0,18.0,39.0,46.0,-2.0,-8.0,0
-251.0,16.0,42.0,45.0,2.0,-9.0,0
-250.0,17.0,41.0,46.0,5.0,-9.0,0
-254.0,18.0,39.0,49.0,7.0,-11.0,0
-253.0,16.0,41.0,53.0,9.0,-13.0,0
-250.0,14.0,43.0,60.0,9.0,-11.0,0
-254.0,16.0,43.0,66.0,8.0,-12.0,0
-254.0,16.0,38.0,73.0,9.0,-14.0,0
-253.0,16.0,40.0,81.0,9.0,-15.0,0
-251.0,15.0,41.0,88.0,8.0,-16.0,0
-252.0,14.0,38.0,95.0,8.0,-15.0,0
-250.0,15.0,43.0,102.0,7.0,-14.0,0
-254.0,17.0,39.0,107.0,6.0,-14.0,0
-253.0,18.0,43.0,113.0,6.0,-13.0,0
-254.0,21.0,38.0,118.0,6.0,-12.0,0
-251.0,16.0,42.0,121.0,6.0,-13.0,0
-252.0,19.0,38.0,125.0,3.0,-12.0,0
-247.0,14.0,40.0,126.0,4.0,-11.0,0
-250.0,22.0,39.0,127.0,3.0,-10.0,0
-250.0,19.0,40.0,126.0,3.0,-10.0,0
-254.0,21.0,39.0,124.0,5.0,-10.0,0
-251.0,21.0,40.0,122.0,5.0,-11.0,0
-252.0,20.0,38.0,119.0,5.0,-9.0,0
-253.0,22.0,41.0,115.0,6.0,-10.0,0
-253.0,19.0,39.0,111.0,6.0,-9.0,0
-255.0,21.0,42.0,107.0,8.0,-10.0,0
-254.0,21.0,37.0,107.0,9.0,-11.0,0
-255.0,14.0,38.0,105.0,9.0,-11.0,0
-253.0,20.0,40.0,104.0,9.0,-11.0,0
-252.0,17.0,40.0,103.0,9.0,-11.0,0
-253.0,20.0,41.0,103.0,8.0,-11.0,0
-253.0,17.0,40.0,105.0,7.0,-11.0,0
-251.0,16.0,40.0,105.0,6.0,-11.0,0
-252.0,17.0,39.0,107.0,8.0,-12.0,0
-253.0,17.0,39.0,108.0,8.0,-11.0,0
-254.0,21.0,41.0,109.0,8.0,-13.0,0
-253.0,16.0,39.0,110.0,8.0,-13.0,0
-253.0,22.0,41.0,110.0,10.0,-14.0,0
-255.0,17.0,42.0,112.0,10.0,-14.0,0
-250.0,17.0,39.0,111.0,10.0,-14.0,0
-253.0,22.0,43.0,112.0,10.0,-15.0,0
-251.0,16.0,44.0,110.0,8.0,-14.0,0
-252.0,19.0,39.0,108.0,8.0,-15.0,0
-253.0,20.0,43.0,106.0,6.0,-15.0,0
-253.0,18.0,41.0,104.0,4.0,-15.0,0
-249.0,16.0,43.0,101.0,2.0,-13.0,0
-253.0,18.0,38.0,99.0,2.0,-13.0,0
-250.0,17.0,38.0,96.0,1.0,-13.0,0
-252.0,21.0,42.0,93.0,2.0,-12.0,0
-253.0,15.0,46.0,90.0,4.0,-13.0,0
-252.0,18.0,41.0,85.0,1.0,-12.0,0
-251.0,19.0,40.0,82.0,2.0,-12.0,0
-253.0,18.0,41.0,80.0,3.0,-10.0,0
-252.0,18.0,42.0,78.0,3.0,-11.0,0
-255.0,20.0,43.0,76.0,3.0,-10.0,0
-250.0,19.0,42.0,76.0,1.0,-9.0,0
-252.0,21.0,41.0,75.0,0.0,-8.0,0
-252.0,20.0,42.0,74.0,-2.0,-7.0,0
-256.0,18.0,44.0,74.0,0.0,-8.0,0
-252.0,18.0,40.0,75.0,-1.0,-7.0,0
-251.0,17.0,43.0,78.0,-1.0,-9.0,0
-253.0,17.0,42.0,79.0,-1.0,-9.0,0
-252.0,16.0,40.0,81.0,0.0,-7.0,0
-254.0,22.0,41.0,83.0,0.0,-8.0,0
-253.0,19.0,42.0,83.0,1.0,-9.0,0
-252.0,22.0,39.0,83.0,3.0,-6.0,0
-253.0,14.0,39.0,85.0,4.0,-8.0,0
-250.0,20.0,39.0,88.0,3.0,-10.0,0
-251.0,18.0,41.0,91.0,3.0,-9.0,0
-252.0,21.0,44.0,92.0,3.0,-9.0,0
-254.0,24.0,33.0,93.0,4.0,-9.0,0
-252.0,23.0,41.0,95.0,5.0,-10.0,0
-252.0,20.0,42.0,96.0,4.0,-9.0,0
-254.0,18.0,44.0,95.0,5.0,-11.0,0
-254.0,18.0,41.0,94.0,5.0,-11.0,0
-249.0,18.0,43.0,93.0,6.0,-10.0,0
-253.0,21.0,41.0,93.0,8.0,-10.0,0
-250.0,17.0,50.0,94.0,11.0,-10.0,0
-249.0,15.0,44.0,94.0,12.0,-9.0,0
-251.0,16.0,42.0,94.0,15.0,-9.0,0
-251.0,19.0,46.0,96.0,16.0,-8.0,0
-253.0,18.0,45.0,98.0,15.0,-9.0,0
-252.0,21.0,43.0,99.0,14.0,-8.0,0
-249.0,17.0,41.0,101.0,15.0,-7.0,0
-254.0,18.0,39.0,101.0,15.0,-8.0,0
-250.0,17.0,44.0,102.0,14.0,-7.0,0
-251.0,19.0,42.0,103.0,13.0,-6.0,0
-253.0,22.0,44.0,103.0,13.0,-6.0,0
-253.0,18.0,39.0,104.0,13.0,-9.0,0
-250.0,22.0,43.0,105.0,14.0,-8.0,0
-252.0,20.0,42.0,105.0,14.0,-7.0,0
-252.0,21.0,37.0,104.0,15.0,-8.0,0
-254.0,23.0,39.0,104.0,13.0,-10.0,0
-249.0,22.0,40.0,104.0,14.0,-10.0,0
-254.0,22.0,41.0,102.0,14.0,-10.0,0
-255.0,21.0,40.0,101.0,11.0,-11.0,0
-251.0,21.0,41.0,98.0,9.0,-10.0,0
-250.0,20.0,40.0,95.0,9.0,-11.0,0
-251.0,19.0,37.0,91.0,8.0,-7.0,0
-252.0,24.0,40.0,88.0,8.0,-8.0,0
-253.0,21.0,44.0,87.0,7.0,-8.0,0
-252.0,21.0,41.0,86.0,7.0,-9.0,0
-257.0,25.0,43.0,84.0,7.0,-10.0,0
-254.0,20.0,38.0,82.0,9.0,-11.0,0
-249.0,20.0,40.0,81.0,10.0,-14.0,0
-252.0,15.0,41.0,81.0,10.0,-16.0,0
-256.0,22.0,39.0,83.0,12.0,-16.0,0
-253.0,19.0,40.0,83.0,10.0,-17.0,0
-254.0,19.0,39.0,81.0,12.0,-17.0,0
-251.0,21.0,40.0,80.0,10.0,-19.0,0
-250.0,19.0,43.0,78.0,10.0,-18.0,0
-251.0,17.0,40.0,74.0,10.0,-17.0,0
-249.0,20.0,35.0,71.0,9.0,-17.0,0
-251.0,20.0,41.0,67.0,9.0,-17.0,0
-253.0,19.0,41.0,65.0,11.0,-15.0,0
-249.0,21.0,39.0,64.0,12.0,-16.0,0
-252.0,21.0,42.0,63.0,13.0,-17.0,0
-252.0,16.0,41.0,65.0,13.0,-17.0,0
-250.0,16.0,42.0,65.0,14.0,-17.0,0
-254.0,19.0,38.0,67.0,14.0,-17.0,0
-252.0,17.0,36.0,69.0,12.0,-16.0,0
-250.0,14.0,41.0,71.0,12.0,-15.0,0
-252.0,18.0,36.0,71.0,10.0,-16.0,0
-250.0,12.0,38.0,72.0,8.0,-15.0,0
-251.0,17.0,41.0,70.0,9.0,-16.0,0
-251.0,16.0,43.0,69.0,7.0,-16.0,0
-254.0,23.0,42.0,67.0,8.0,-15.0,0
-254.0,19.0,40.0,65.0,7.0,-13.0,0
-250.0,17.0,39.0,63.0,7.0,-12.0,0
-253.0,18.0,39.0,61.0,6.0,-11.0,0
-251.0,20.0,42.0,57.0,8.0,-9.0,0
-251.0,21.0,40.0,55.0,7.0,-7.0,0
-250.0,18.0,44.0,52.0,8.0,-6.0,0
-253.0,22.0,43.0,51.0,9.0,-6.0,0
-254.0,17.0,41.0,47.0,11.0,-4.0,0
-252.0,20.0,42.0,45.0,10.0,-4.0,0
-250.0,19.0,45.0,43.0,9.0,-4.0,0
-254.0,17.0,42.0,43.0,9.0,-4.0,0
-253.0,17.0,40.0,44.0,9.0,-3.0,0
-251.0,21.0,41.0,46.0,8.0,-4.0,0
-252.0,19.0,39.0,47.0,10.0,-5.0,0
-249.0,16.0,39.0,52.0,9.0,-5.0,0
-254.0,20.0,42.0,56.0,9.0,-6.0,0
-252.0,16.0,38.0,61.0,10.0,-7.0,0
-251.0,14.0,39.0,67.0,10.0,-8.0,0
-252.0,21.0,49.0,73.0,11.0,-8.0,0
-252.0,19.0,43.0,78.0,11.0,-8.0,0
-252.0,18.0,45.0,83.0,12.0,-8.0,0
-251.0,18.0,40.0,84.0,12.0,-9.0,0
-252.0,20.0,40.0,86.0,12.0,-11.0,0
-252.0,22.0,43.0,84.0,12.0,-11.0,0
-255.0,19.0,41.0,81.0,12.0,-9.0,0
-256.0,22.0,39.0,79.0,13.0,-9.0,0
-254.0,21.0,43.0,76.0,13.0,-11.0,0
-252.0,22.0,45.0,75.0,14.0,-11.0,0
-256.0,23.0,41.0,71.0,16.0,-10.0,0
-254.0,23.0,45.0,70.0,21.0,-11.0,0
-249.0,17.0,46.0,71.0,23.0,-9.0,0
-253.0,21.0,41.0,71.0,25.0,-8.0,0
-255.0,19.0,44.0,71.0,25.0,-11.0,0
-253.0,20.0,40.0,70.0,26.0,-10.0,0
-250.0,18.0,42.0,70.0,24.0,-11.0,0
-250.0,20.0,42.0,69.0,23.0,-12.0,0
-256.0,19.0,42.0,66.0,21.0,-13.0,0
-254.0,19.0,37.0,64.0,17.0,-14.0,0
-251.0,22.0,39.0,62.0,15.0,-16.0,0
-245.0,14.0,37.0,60.0,14.0,-13.0,0
-253.0,20.0,42.0,59.0,13.0,-15.0,0
-254.0,20.0,44.0,59.0,12.0,-15.0,0
-256.0,18.0,40.0,60.0,13.0,-15.0,0
-254.0,20.0,41.0,62.0,13.0,-14.0,0
-252.0,19.0,43.0,65.0,13.0,-15.0,0
-254.0,19.0,42.0,66.0,15.0,-13.0,0
-254.0,22.0,40.0,67.0,14.0,-14.0,0
-251.0,18.0,44.0,69.0,15.0,-13.0,0
-250.0,21.0,40.0,70.0,14.0,-16.0,0
-250.0,16.0,41.0,71.0,16.0,-17.0,0
-248.0,16.0,43.0,71.0,16.0,-16.0,0
-254.0,19.0,43.0,72.0,15.0,-16.0,0
-253.0,19.0,38.0,71.0,15.0,-16.0,0
-252.0,19.0,38.0,69.0,15.0,-17.0,0
-251.0,22.0,38.0,67.0,16.0,-15.0,0
-252.0,19.0,41.0,64.0,14.0,-16.0,0
-251.0,18.0,42.0,60.0,14.0,-16.0,0
-251.0,15.0,40.0,57.0,15.0,-15.0,0
-256.0,19.0,40.0,55.0,14.0,-14.0,0
-252.0,17.0,45.0,54.0,13.0,-14.0,0
-244.0,16.0,42.0,52.0,13.0,-11.0,0
-254.0,22.0,41.0,54.0,13.0,-12.0,0
-255.0,19.0,44.0,53.0,11.0,-12.0,0
-251.0,19.0,41.0,55.0,10.0,-11.0,0
-251.0,18.0,40.0,58.0,9.0,-11.0,0
-251.0,17.0,40.0,58.0,9.0,-11.0,0
-253.0,21.0,37.0,58.0,5.0,-10.0,0
-257.0,21.0,42.0,58.0,2.0,-10.0,0
-254.0,15.0,36.0,59.0,2.0,-11.0,0
-251.0,19.0,41.0,61.0,-1.0,-12.0,0
-253.0,20.0,42.0,62.0,-2.0,-11.0,0
-256.0,19.0,39.0,64.0,-3.0,-11.0,0
-251.0,18.0,44.0,68.0,-5.0,-12.0,0
-252.0,20.0,39.0,71.0,-5.0,-10.0,0
-252.0,19.0,39.0,73.0,-6.0,-11.0,0
-254.0,19.0,39.0,76.0,-6.0,-12.0,0
-253.0,17.0,41.0,80.0,-5.0,-11.0,0
-255.0,20.0,38.0,82.0,-4.0,-11.0,0
-251.0,19.0,40.0,84.0,-2.0,-11.0,0
-254.0,18.0,39.0,88.0,-2.0,-10.0,0
-253.0,18.0,34.0,91.0,-2.0,-9.0,0
-253.0,21.0,41.0,95.0,-3.0,-10.0,0
-246.0,13.0,41.0,95.0,-4.0,-13.0,0
-255.0,21.0,35.0,96.0,-6.0,-13.0,0
-254.0,18.0,41.0,95.0,-6.0,-15.0,0
-253.0,18.0,43.0,92.0,-9.0,-15.0,0
-254.0,17.0,40.0,91.0,-14.0,-17.0,0
-253.0,17.0,40.0,90.0,-17.0,-21.0,0
-254.0,14.0,43.0,90.0,-19.0,-21.0,0
-253.0,17.0,40.0,90.0,-21.0,-21.0,0
-255.0,16.0,44.0,91.0,-21.0,-21.0,0
-254.0,15.0,41.0,93.0,-23.0,-21.0,0
-255.0,14.0,36.0,95.0,-27.0,-22.0,0
-252.0,16.0,41.0,98.0,-30.0,-21.0,0
-253.0,18.0,39.0,101.0,-34.0,-20.0,0
-255.0,15.0,36.0,106.0,-38.0,-19.0,0
-253.0,15.0,39.0,110.0,-42.0,-16.0,0
-254.0,15.0,38.0,116.0,-48.0,-17.0,0
-253.0,16.0,42.0,126.0,-55.0,-19.0,0
-251.0,14.0,39.0,135.0,-62.0,-17.0,0
-255.0,15.0,41.0,151.0,-73.0,-22.0,0
-252.0,8.0,40.0,173.0,-86.0,-26.0,0
-251.0,12.0,45.0,203.0,-103.0,-35.0,0
-252.0,6.0,36.0,241.0,-120.0,-49.0,0
-260.0,5.0,44.0,284.0,-138.0,-65.0,0
-262.0,2.0,44.0,322.0,-161.0,-80.0,0
-262.0,2.0,39.0,356.0,-189.0,-90.0,0
-260.0,5.0,40.0,380.0,-218.0,-93.0,0
-258.0,5.0,34.0,397.0,-242.0,-94.0,0
-254.0,9.0,41.0,409.0,-261.0,-96.0,0
-255.0,13.0,45.0,417.0,-269.0,-98.0,0
-250.0,14.0,43.0,426.0,-270.0,-101.0,0
-248.0,18.0,50.0,437.0,-260.0,-105.0,0
-248.0,23.0,50.0,451.0,-247.0,-113.0,0
-248.0,24.0,46.0,469.0,-232.0,-123.0,0
-252.0,28.0,52.0,493.0,-217.0,-132.0,0
-251.0,25.0,57.0,521.0,-203.0,-143.0,0
-251.0,27.0,55.0,550.0,-193.0,-149.0,0
-253.0,23.0,52.0,573.0,-187.0,-157.0,0
-256.0,24.0,52.0,582.0,-185.0,-160.0,0
-255.0,23.0,54.0,579.0,-189.0,-161.0,0
-259.0,27.0,53.0,565.0,-196.0,-159.0,0
-260.0,28.0,53.0,541.0,-206.0,-157.0,0
-262.0,30.0,51.0,510.0,-215.0,-153.0,0
-258.0,29.0,46.0,474.0,-224.0,-148.0,0
-258.0,32.0,44.0,435.0,-231.0,-148.0,0
-256.0,35.0,45.0,397.0,-235.0,-147.0,0
-255.0,34.0,47.0,358.0,-234.0,-151.0,0
-255.0,32.0,43.0,321.0,-232.0,-157.0,0
-260.0,29.0,45.0,288.0,-228.0,-157.0,0
-251.0,28.0,44.0,259.0,-225.0,-151.0,0
-249.0,29.0,45.0,232.0,-225.0,-154.0,0
-253.0,24.0,44.0,210.0,-224.0,-158.0,0
-254.0,24.0,42.0,189.0,-223.0,-160.0,0
-256.0,24.0,42.0,167.0,-224.0,-155.0,0
-258.0,20.0,40.0,141.0,-229.0,-147.0,0
-258.0,20.0,42.0,109.0,-237.0,-139.0,0
-259.0,20.0,39.0,71.0,-248.0,-126.0,0
-258.0,18.0,37.0,32.0,-255.0,-113.0,0
-259.0,17.0,37.0,-10.0,-257.0,-101.0,0
-256.0,17.0,36.0,-48.0,-258.0,-87.0,0
-257.0,16.0,42.0,-79.0,-256.0,-76.0,0
-255.0,13.0,41.0,-103.0,-255.0,-69.0,0
-250.0,10.0,43.0,-118.0,-257.0,-65.0,0
-249.0,10.0,46.0,-125.0,-260.0,-62.0,0
-243.0,9.0,45.0,-121.0,-264.0,-59.0,0
-240.0,10.0,51.0,-106.0,-270.0,-59.0,0
-247.0,11.0,52.0,-84.0,-279.0,-58.0,0
-245.0,5.0,56.0,-60.0,-285.0,-58.0,0
-247.0,10.0,58.0,-34.0,-295.0,-60.0,0
-247.0,10.0,55.0,-7.0,-307.0,-61.0,0
-246.0,11.0,53.0,17.0,-319.0,-59.0,0
-246.0,10.0,54.0,41.0,-328.0,-58.0,0
-249.0,14.0,59.0,55.0,-340.0,-57.0,0
-253.0,13.0,55.0,63.0,-350.0,-56.0,0
-255.0,16.0,58.0,67.0,-362.0,-53.0,0
-255.0,16.0,57.0,68.0,-375.0,-49.0,0
-256.0,22.0,57.0,65.0,-386.0,-46.0,0
-256.0,22.0,60.0,55.0,-396.0,-45.0,0
-256.0,22.0,60.0,42.0,-405.0,-44.0,0
-260.0,28.0,65.0,23.0,-419.0,-41.0,0
-254.0,24.0,63.0,4.0,-434.0,-43.0,0
-258.0,31.0,64.0,-16.0,-448.0,-55.0,0
-256.0,34.0,66.0,-40.0,-466.0,-68.0,0
-253.0,32.0,68.0,-65.0,-485.0,-82.0,0
-255.0,38.0,66.0,-95.0,-503.0,-96.0,0
-257.0,38.0,69.0,-124.0,-513.0,-107.0,0
-257.0,46.0,60.0,-157.0,-518.0,-124.0,0
-258.0,39.0,65.0,-193.0,-514.0,-139.0,0
-257.0,33.0,67.0,-234.0,-507.0,-149.0,0
-256.0,34.0,65.0,-274.0,-501.0,-158.0,0
-259.0,31.0,64.0,-313.0,-493.0,-164.0,0
-257.0,23.0,63.0,-350.0,-489.0,-168.0,0
-256.0,21.0,64.0,-386.0,-491.0,-173.0,0
-255.0,19.0,67.0,-419.0,-499.0,-173.0,0
-252.0,11.0,69.0,-446.0,-512.0,-171.0,0
-248.0,9.0,68.0,-460.0,-527.0,-166.0,0
-248.0,9.0,69.0,-464.0,-541.0,-161.0,0
-241.0,3.0,72.0,-461.0,-550.0,-151.0,0
-241.0,4.0,67.0,-451.0,-557.0,-145.0,0
-234.0,2.0,68.0,-442.0,-563.0,-137.0,0
-230.0,1.0,67.0,-429.0,-571.0,-128.0,0
-229.0,2.0,69.0,-410.0,-584.0,-119.0,0
-231.0,3.0,70.0,-390.0,-598.0,-115.0,0
-231.0,5.0,67.0,-369.0,-613.0,-106.0,0
-232.0,5.0,75.0,-348.0,-627.0,-94.0,0
-238.0,3.0,74.0,-328.0,-641.0,-80.0,0
-236.0,6.0,78.0,-306.0,-654.0,-63.0,0
-234.0,9.0,72.0,-286.0,-661.0,-46.0,0
-235.0,11.0,80.0,-266.0,-659.0,-24.0,0
-235.0,12.0,86.0,-249.0,-648.0,-2.0,0
-236.0,13.0,82.0,-231.0,-631.0,21.0,0
-238.0,16.0,83.0,-220.0,-610.0,42.0,0
-240.0,14.0,81.0,-221.0,-588.0,55.0,0
-241.0,17.0,79.0,-235.0,-572.0,62.0,0
-242.0,18.0,82.0,-263.0,-570.0,67.0,0
-246.0,20.0,87.0,-298.0,-581.0,70.0,0
-242.0,22.0,93.0,-333.0,-604.0,73.0,0
-246.0,17.0,91.0,-365.0,-632.0,74.0,0
-238.0,24.0,90.0,-395.0,-658.0,72.0,0
-246.0,15.0,96.0,-422.0,-681.0,67.0,0
-248.0,12.0,99.0,-446.0,-703.0,60.0,0
-247.0,9.0,98.0,-461.0,-726.0,48.0,0
-248.0,6.0,97.0,-472.0,-747.0,36.0,0
-245.0,3.0,98.0,-485.0,-758.0,28.0,0
-246.0,3.0,101.0,-503.0,-757.0,22.0,0
-245.0,0.0,103.0,-519.0,-752.0,18.0,0
-246.0,-3.0,107.0,-531.0,-746.0,15.0,0
-241.0,-5.0,102.0,-539.0,-742.0,20.0,0
-243.0,-9.0,104.0,-541.0,-743.0,22.0,0
-234.0,-13.0,113.0,-535.0,-747.0,23.0,0
-234.0,-13.0,103.0,-522.0,-750.0,24.0,0
-232.0,-14.0,104.0,-505.0,-756.0,26.0,0
-230.0,-15.0,106.0,-487.0,-762.0,27.0,0
-222.0,-15.0,110.0,-465.0,-765.0,31.0,0
-216.0,-12.0,113.0,-444.0,-764.0,36.0,0
-210.0,-12.0,115.0,-425.0,-756.0,45.0,0
-208.0,-13.0,115.0,-411.0,-747.0,55.0,0
-206.0,-11.0,113.0,-395.0,-739.0,69.0,0
-208.0,-10.0,117.0,-383.0,-733.0,85.0,0
-212.0,-11.0,116.0,-363.0,-736.0,95.0,0
-209.0,-13.0,114.0,-344.0,-751.0,98.0,0
-206.0,-11.0,124.0,-330.0,-771.0,100.0,0
-197.0,-9.0,124.0,-321.0,-784.0,103.0,0
-194.0,-12.0,123.0,-328.0,-784.0,128.0,0
-208.0,-12.0,127.0,-330.0,-776.0,151.0,0
-216.0,-14.0,128.0,-319.0,-779.0,150.0,0
-210.0,-17.0,124.0,-304.0,-786.0,129.0,0
-202.0,-10.0,123.0,-295.0,-785.0,118.0,0
-196.0,-12.0,127.0,-301.0,-774.0,131.0,0
-207.0,-14.0,126.0,-320.0,-738.0,169.0,0
-217.0,-13.0,131.0,-317.0,-716.0,185.0,0
-226.0,-7.0,135.0,-297.0,-709.0,175.0,0
-219.0,-7.0,130.0,-273.0,-708.0,155.0,0
-220.0,-7.0,130.0,-251.0,-717.0,138.0,0
-216.0,-3.0,130.0,-253.0,-715.0,147.0,0
-213.0,-11.0,129.0,-273.0,-695.0,185.0,0
-216.0,-12.0,131.0,-288.0,-672.0,215.0,0
-220.0,-15.0,132.0,-281.0,-653.0,214.0,0
-214.0,-17.0,138.0,-256.0,-632.0,194.0,0
-209.0,-21.0,130.0,-234.0,-608.0,182.0,0
-207.0,-25.0,129.0,-223.0,-579.0,186.0,0
-203.0,-34.0,137.0,-217.0,-549.0,193.0,0
-202.0,-39.0,138.0,-215.0,-517.0,199.0,0
-198.0,-38.0,142.0,-206.0,-488.0,202.0,0
-194.0,-45.0,146.0,-187.0,-469.0,196.0,0
-195.0,-42.0,150.0,-159.0,-453.0,190.0,0
-191.0,-37.0,150.0,-124.0,-438.0,187.0,0
-192.0,-35.0,152.0,-83.0,-416.0,193.0,0
-192.0,-29.0,158.0,-45.0,-395.0,201.0,0
-195.0,-22.0,148.0,-12.0,-377.0,205.0,0
-194.0,-19.0,154.0,11.0,-364.0,208.0,0
-197.0,-14.0,150.0,22.0,-358.0,211.0,0
-191.0,-3.0,147.0,20.0,-357.0,212.0,0
-199.0,-2.0,144.0,5.0,-361.0,214.0,0
-199.0,-2.0,147.0,-22.0,-367.0,213.0,0
-200.0,0.0,144.0,-59.0,-373.0,207.0,0
-198.0,-2.0,144.0,-99.0,-376.0,197.0,0
-197.0,-4.0,146.0,-137.0,-377.0,182.0,0
-199.0,-9.0,146.0,-170.0,-375.0,165.0,0
-197.0,-16.0,147.0,-192.0,-371.0,148.0,0
-197.0,-20.0,147.0,-202.0,-364.0,130.0,0
-193.0,-25.0,154.0,-197.0,-348.0,110.0,0
-200.0,-31.0,149.0,-180.0,-324.0,92.0,0
-206.0,-36.0,156.0,-147.0,-300.0,81.0,0
-201.0,-33.0,157.0,-97.0,-283.0,68.0,0
-202.0,-34.0,158.0,-33.0,-283.0,62.0,0
-200.0,-32.0,159.0,42.0,-294.0,55.0,0
-193.0,-27.0,160.0,117.0,-312.0,51.0,0
-191.0,-25.0,160.0,187.0,-332.0,45.0,0
-190.0,-17.0,158.0,244.0,-350.0,41.0,0
-187.0,-15.0,158.0,285.0,-367.0,36.0,0
-182.0,-11.0,160.0,312.0,-387.0,30.0,0
-183.0,-2.0,158.0,327.0,-406.0,20.0,0
-180.0,0.0,170.0,325.0,-425.0,22.0,0
-184.0,-1.0,169.0,327.0,-449.0,8.0,0
-182.0,0.0,161.0,326.0,-470.0,-13.0,0
-179.0,0.0,161.0,318.0,-481.0,-32.0,0
-173.0,1.0,162.0,310.0,-477.0,-46.0,0
-175.0,1.0,157.0,303.0,-447.0,-54.0,0
-176.0,1.0,160.0,288.0,-400.0,-44.0,0
-184.0,0.0,157.0,288.0,-355.0,-40.0,0
-183.0,0.0,159.0,297.0,-323.0,-43.0,0
-182.0,2.0,159.0,307.0,-303.0,-44.0,0
-180.0,4.0,162.0,317.0,-292.0,-42.0,0
-178.0,0.0,169.0,327.0,-284.0,-34.0,0
-180.0,6.0,161.0,338.0,-280.0,-21.0,0
-174.0,3.0,175.0,354.0,-279.0,-9.0,0
-175.0,4.0,172.0,367.0,-279.0,7.0,0
-174.0,6.0,179.0,380.0,-281.0,10.0,0
-172.0,7.0,183.0,393.0,-286.0,11.0,0
-171.0,5.0,185.0,401.0,-296.0,14.0,0
-169.0,10.0,183.0,410.0,-312.0,13.0,0
-172.0,9.0,186.0,415.0,-327.0,9.0,0
-176.0,17.0,187.0,416.0,-339.0,0.0,0
-176.0,19.0,188.0,409.0,-346.0,-7.0,0
-176.0,26.0,182.0,394.0,-345.0,-12.0,0
-176.0,25.0,185.0,372.0,-338.0,-18.0,0
-176.0,29.0,182.0,339.0,-327.0,-21.0,0
-183.0,32.0,179.0,299.0,-312.0,-27.0,0
-186.0,31.0,179.0,259.0,-292.0,-42.0,0
-192.0,35.0,177.0,220.0,-273.0,-57.0,0
-191.0,32.0,178.0,176.0,-253.0,-68.0,0
-191.0,33.0,179.0,131.0,-240.0,-80.0,0
-191.0,26.0,181.0,92.0,-234.0,-78.0,0
-192.0,25.0,177.0,57.0,-221.0,-81.0,0
-193.0,28.0,176.0,42.0,-205.0,-94.0,0
-191.0,27.0,176.0,37.0,-190.0,-99.0,0
-192.0,26.0,169.0,36.0,-174.0,-104.0,0
-183.0,24.0,176.0,36.0,-161.0,-102.0,0
-185.0,22.0,178.0,22.0,-148.0,-74.0,0
-189.0,26.0,183.0,14.0,-137.0,-82.0,0
-194.0,27.0,188.0,9.0,-145.0,-89.0,0
-195.0,33.0,188.0,-2.0,-167.0,-83.0,0
-195.0,33.0,189.0,-33.0,-203.0,-56.0,0
-209.0,41.0,193.0,-76.0,-236.0,-17.0,0
-214.0,44.0,201.0,-115.0,-257.0,-10.0,0
-222.0,51.0,192.0,-144.0,-283.0,-13.0,0
-225.0,52.0,192.0,-178.0,-311.0,-4.0,0
-216.0,55.0,192.0,-229.0,-341.0,29.0,0
-223.0,60.0,191.0,-313.0,-366.0,103.0,0
-222.0,62.0,199.0,-406.0,-372.0,133.0,0
-220.0,56.0,196.0,-498.0,-386.0,107.0,0
-216.0,49.0,199.0,-598.0,-416.0,67.0,0
-225.0,42.0,201.0,-707.0,-450.0,36.0,0
-219.0,33.0,203.0,-805.0,-476.0,-10.0,0
-218.0,19.0,205.0,-899.0,-502.0,-28.0,0
-216.0,8.0,200.0,-988.0,-523.0,-37.0,0
-221.0,5.0,207.0,-1068.0,-543.0,-51.0,0
-214.0,-4.0,202.0,-1139.0,-565.0,-85.0,0
-212.0,-12.0,210.0,-1202.0,-586.0,-139.0,0
-213.0,-32.0,206.0,-1266.0,-618.0,-170.0,0
-215.0,-32.0,209.0,-1334.0,-651.0,-165.0,0
-217.0,-38.0,210.0,-1374.0,-676.0,-162.0,0
-215.0,-43.0,209.0,-1385.0,-693.0,-178.0,0
-206.0,-46.0,204.0,-1360.0,-701.0,-227.0,0
-193.0,-54.0,196.0,-1297.0,-687.0,-299.0,0
-183.0,-58.0,192.0,-1184.0,-654.0,-335.0,0
-170.0,-70.0,186.0,-988.0,-576.0,-336.0,0
-156.0,-80.0,186.0,-688.0,-460.0,-323.0,0
-143.0,-101.0,172.0,-262.0,-342.0,-319.0,0
-137.0,-99.0,163.0,249.0,-249.0,-296.0,0
-130.0,-104.0,149.0,808.0,-202.0,-272.0,0
-124.0,-87.0,143.0,1334.0,-203.0,-236.0,0
-122.0,-66.0,144.0,1769.0,-258.0,-165.0,0
-121.0,-45.0,136.0,2080.0,-358.0,-65.0,0
-122.0,-10.0,143.0,2243.0,-483.0,28.0,0
-133.0,21.0,147.0,2271.0,-627.0,72.0,0
-147.0,45.0,150.0,2152.0,-786.0,113.0,0
-154.0,77.0,160.0,1901.0,-944.0,167.0,0
-146.0,102.0,175.0,1592.0,-1088.0,196.0,0
-147.0,106.0,172.0,1250.0,-1195.0,188.0,0
-160.0,108.0,174.0,887.0,-1249.0,173.0,0
-169.0,106.0,173.0,548.0,-1260.0,165.0,0
-169.0,90.0,174.0,270.0,-1238.0,173.0,0
-164.0,67.0,176.0,59.0,-1199.0,175.0,0
-163.0,56.0,165.0,-83.0,-1150.0,161.0,0
-160.0,35.0,167.0,-156.0,-1086.0,140.0,0
-160.0,17.0,171.0,-159.0,-1014.0,106.0,0
-156.0,4.0,168.0,-108.0,-940.0,62.0,0
-161.0,-1.0,170.0,-29.0,-860.0,21.0,0
-153.0,-7.0,171.0,63.0,-782.0,-7.0,0
-154.0,-5.0,172.0,147.0,-712.0,-32.0,0
-155.0,-1.0,185.0,212.0,-655.0,-51.0,0
-154.0,-4.0,191.0,250.0,-611.0,-70.0,0
-157.0,-1.0,193.0,259.0,-584.0,-77.0,0
-161.0,0.0,199.0,245.0,-573.0,-85.0,0
-160.0,1.0,197.0,227.0,-576.0,-88.0,0
-157.0,0.0,199.0,214.0,-586.0,-89.0,0
-158.0,-2.0,200.0,211.0,-601.0,-93.0,0
-157.0,-3.0,201.0,217.0,-622.0,-94.0,0
-155.0,0.0,199.0,225.0,-650.0,-96.0,0
-150.0,-3.0,197.0,240.0,-678.0,-95.0,0
-149.0,-11.0,198.0,245.0,-712.0,-92.0,0
-144.0,3.0,211.0,237.0,-742.0,-80.0,0
-145.0,0.0,206.0,272.0,-770.0,-94.0,0
-145.0,-2.0,201.0,295.0,-797.0,-113.0,0
-140.0,-3.0,200.0,290.0,-822.0,-124.0,0
-144.0,-5.0,199.0,269.0,-843.0,-131.0,0
-146.0,-5.0,202.0,248.0,-859.0,-138.0,0
-146.0,-6.0,203.0,231.0,-871.0,-147.0,0
-142.0,-8.0,208.0,223.0,-879.0,-154.0,0
-141.0,-14.0,207.0,221.0,-882.0,-154.0,0
-136.0,-19.0,211.0,233.0,-880.0,-156.0,0
-142.0,-23.0,202.0,255.0,-870.0,-161.0,0
-138.0,-22.0,204.0,287.0,-857.0,-165.0,0
-131.0,-24.0,206.0,317.0,-846.0,-169.0,0
-124.0,-30.0,206.0,344.0,-846.0,-171.0,0
-118.0,-30.0,211.0,365.0,-853.0,-176.0,0
-118.0,-30.0,219.0,391.0,-859.0,-178.0,0
-117.0,-28.0,219.0,416.0,-870.0,-175.0,0
-121.0,-28.0,215.0,440.0,-881.0,-166.0,0
-121.0,-25.0,219.0,455.0,-894.0,-151.0,0
-116.0,-23.0,218.0,460.0,-911.0,-130.0,0
-115.0,-15.0,214.0,456.0,-928.0,-110.0,0
-120.0,-18.0,218.0,444.0,-941.0,-95.0,0
-116.0,-12.0,209.0,425.0,-952.0,-76.0,0
-117.0,-8.0,205.0,398.0,-966.0,-65.0,0
-116.0,-5.0,203.0,368.0,-987.0,-58.0,0
-116.0,0.0,207.0,337.0,-1011.0,-56.0,0
-117.0,0.0,201.0,308.0,-1035.0,-62.0,0
-117.0,0.0,203.0,285.0,-1060.0,-72.0,0
-115.0,-3.0,198.0,262.0,-1085.0,-84.0,0
-117.0,-2.0,204.0,242.0,-1109.0,-97.0,0
-113.0,-1.0,201.0,222.0,-1125.0,-110.0,0
-111.0,-2.0,203.0,213.0,-1126.0,-124.0,0
-108.0,0.0,202.0,211.0,-1110.0,-142.0,0
-105.0,-5.0,201.0,217.0,-1089.0,-157.0,0
-104.0,-5.0,203.0,216.0,-1076.0,-168.0,0
-100.0,-6.0,202.0,213.0,-1077.0,-174.0,0
-95.0,-6.0,209.0,211.0,-1088.0,-173.0,0
-93.0,-6.0,213.0,220.0,-1095.0,-166.0,0
-83.0,-9.0,214.0,239.0,-1096.0,-158.0,0
-80.0,-12.0,209.0,267.0,-1089.0,-151.0,0
-77.0,-12.0,208.0,301.0,-1076.0,-145.0,0
-78.0,-10.0,199.0,330.0,-1063.0,-137.0,0
-81.0,6.0,199.0,350.0,-1055.0,-127.0,0
-81.0,3.0,199.0,358.0,-1051.0,-116.0,0
-79.0,5.0,195.0,353.0,-1045.0,-108.0,0
-80.0,7.0,194.0,341.0,-1035.0,-99.0,0
-81.0,15.0,194.0,323.0,-1017.0,-94.0,0
-82.0,14.0,197.0,298.0,-996.0,-88.0,0
-79.0,21.0,195.0,269.0,-971.0,-78.0,0
-84.0,23.0,197.0,241.0,-955.0,-66.0,0
-80.0,26.0,204.0,215.0,-947.0,-56.0,0
-86.0,30.0,203.0,197.0,-942.0,-44.0,0
-81.0,27.0,208.0,178.0,-937.0,-33.0,0
-90.0,30.0,214.0,158.0,-932.0,-26.0,0
-88.0,27.0,217.0,140.0,-924.0,-26.0,0
-91.0,28.0,224.0,127.0,-912.0,-26.0,0
-95.0,25.0,230.0,119.0,-894.0,-26.0,0
-104.0,21.0,236.0,117.0,-875.0,-17.0,0
-109.0,18.0,244.0,116.0,-858.0,5.0,0
-124.0,16.0,247.0,117.0,-847.0,35.0,0
-135.0,17.0,248.0,126.0,-836.0,70.0,0
-142.0,17.0,251.0,136.0,-827.0,118.0,0
-143.0,19.0,246.0,143.0,-816.0,172.0,0
-146.0,25.0,239.0,140.0,-805.0,225.0,0
-138.0,22.0,228.0,126.0,-786.0,268.0,0
-126.0,24.0,231.0,105.0,-762.0,302.0,0
-115.0,28.0,226.0,83.0,-733.0,322.0,0
-101.0,29.0,227.0,66.0,-701.0,330.0,0
-90.0,28.0,229.0,54.0,-670.0,329.0,0
-78.0,23.0,231.0,54.0,-638.0,324.0,0
-71.0,24.0,232.0,64.0,-607.0,309.0,0
-65.0,21.0,232.0,79.0,-580.0,296.0,0
-62.0,23.0,229.0,91.0,-562.0,285.0,0
-57.0,19.0,229.0,98.0,-554.0,274.0,0
-56.0,19.0,224.0,102.0,-552.0,266.0,0
-58.0,17.0,220.0,99.0,-554.0,258.0,0
-59.0,19.0,221.0,92.0,-556.0,250.0,0
-55.0,19.0,223.0,83.0,-560.0,238.0,0
-61.0,20.0,224.0,72.0,-570.0,228.0,0
-63.0,22.0,224.0,60.0,-585.0,220.0,0
-65.0,23.0,226.0,48.0,-602.0,219.0,0
-69.0,26.0,226.0,34.0,-616.0,222.0,0
-67.0,21.0,233.0,24.0,-636.0,222.0,0
-67.0,25.0,239.0,21.0,-657.0,221.0,0
-67.0,26.0,238.0,19.0,-678.0,226.0,0
-71.0,17.0,244.0,14.0,-702.0,230.0,0
-71.0,26.0,244.0,11.0,-728.0,240.0,0
-68.0,27.0,245.0,5.0,-758.0,251.0,0
-64.0,25.0,244.0,-2.0,-793.0,259.0,0
-62.0,27.0,249.0,-8.0,-831.0,265.0,0
-54.0,23.0,247.0,-15.0,-870.0,273.0,0
-47.0,24.0,252.0,-25.0,-913.0,277.0,0
-45.0,25.0,254.0,-35.0,-960.0,279.0,0
-34.0,23.0,258.0,-43.0,-1009.0,282.0,0
-30.0,19.0,261.0,-43.0,-1056.0,287.0,0
-25.0,16.0,272.0,-36.0,-1099.0,292.0,0
-29.0,26.0,275.0,-15.0,-1144.0,301.0,0
-31.0,12.0,290.0,16.0,-1192.0,310.0,0
-31.0,11.0,296.0,52.0,-1239.0,328.0,0
-27.0,5.0,310.0,92.0,-1283.0,349.0,0
-25.0,6.0,317.0,138.0,-1342.0,359.0,0
-17.0,5.0,327.0,178.0,-1384.0,358.0,0
-2.0,4.0,329.0,211.0,-1406.0,353.0,0
14.0,8.0,330.0,226.0,-1391.0,340.0,0
40.0,5.0,321.0,217.0,-1340.0,316.0,0
65.0,6.0,314.0,191.0,-1252.0,275.0,0
79.0,4.0,312.0,160.0,-1127.0,214.0,0
107.0,2.0,308.0,139.0,-974.0,138.0,0
118.0,2.0,294.0,140.0,-808.0,49.0,0
127.0,1.0,284.0,162.0,-648.0,-38.0,0
128.0,1.0,280.0,193.0,-519.0,-116.0,0
118.0,13.0,260.0,200.0,-436.0,-170.0,0
114.0,19.0,246.0,155.0,-394.0,-204.0,0
99.0,26.0,231.0,44.0,-378.0,-211.0,0
95.0,30.0,222.0,-121.0,-361.0,-208.0,0
81.0,26.0,220.0,-311.0,-332.0,-197.0,0
65.0,19.0,220.0,-487.0,-292.0,-178.0,0
57.0,6.0,229.0,-614.0,-254.0,-145.0,0
55.0,-5.0,233.0,-666.0,-237.0,-106.0,0
50.0,-22.0,236.0,-634.0,-244.0,-67.0,0
54.0,-33.0,232.0,-522.0,-269.0,-37.0,0
61.0,-40.0,239.0,-347.0,-304.0,-14.0,0
72.0,-38.0,230.0,-131.0,-335.0,0.0,0
89.0,-33.0,232.0,93.0,-358.0,15.0,0
109.0,-20.0,230.0,290.0,-370.0,27.0,0
117.0,-5.0,227.0,431.0,-367.0,32.0,0
129.0,10.0,220.0,503.0,-348.0,31.0,0
128.0,31.0,221.0,507.0,-326.0,26.0,0
128.0,41.0,210.0,457.0,-304.0,24.0,0
125.0,43.0,214.0,373.0,-298.0,26.0,0
127.0,52.0,207.0,272.0,-299.0,21.0,0
126.0,54.0,209.0,171.0,-310.0,12.0,0
126.0,53.0,210.0,79.0,-319.0,-8.0,0
124.0,54.0,208.0,0.0,-324.0,-31.0,0
124.0,55.0,207.0,-64.0,-321.0,-53.0,0
122.0,56.0,213.0,-122.0,-307.0,-68.0,0
119.0,59.0,224.0,-169.0,-277.0,-82.0,0
116.0,55.0,238.0,-207.0,-236.0,-98.0,0
108.0,50.0,242.0,-233.0,-198.0,-110.0,0
103.0,44.0,251.0,-248.0,-176.0,-120.0,0
85.0,57.0,253.0,-248.0,-167.0,-127.0,0
81.0,37.0,255.0,-233.0,-168.0,-133.0,0
73.0,30.0,253.0,-203.0,-168.0,-136.0,0
67.0,29.0,256.0,-169.0,-158.0,-137.0,0
63.0,28.0,256.0,-125.0,-136.0,-136.0,0
59.0,26.0,254.0,-77.0,-107.0,-134.0,0
51.0,29.0,257.0,-26.0,-72.0,-130.0,0
46.0,37.0,254.0,23.0,-34.0,-123.0,0
42.0,40.0,263.0,68.0,1.0,-115.0,0
38.0,40.0,259.0,101.0,27.0,-110.0,0
32.0,46.0,255.0,123.0,45.0,-103.0,0
37.0,48.0,260.0,132.0,59.0,-105.0,0
31.0,48.0,260.0,133.0,74.0,-109.0,0
29.0,49.0,259.0,124.0,91.0,-118.0,0
26.0,46.0,259.0,111.0,112.0,-133.0,0
26.0,44.0,262.0,98.0,135.0,-149.0,0
23.0,41.0,263.0,89.0,156.0,-164.0,0
21.0,40.0,258.0,84.0,172.0,-176.0,0
21.0,40.0,258.0,71.0,185.0,-183.0,0
22.0,43.0,259.0,56.0,197.0,-183.0,0
23.0,47.0,252.0,33.0,207.0,-185.0,0
15.0,53.0,251.0,3.0,206.0,-180.0,0
28.0,46.0,250.0,-38.0,193.0,-172.0,0
31.0,48.0,246.0,-83.0,162.0,-153.0,0
33.0,47.0,239.0,-128.0,114.0,-123.0,0
36.0,41.0,239.0,-162.0,54.0,-88.0,0
34.0,34.0,235.0,-183.0,-11.0,-52.0,0
27.0,33.0,240.0,-192.0,-76.0,-21.0,0
25.0,26.0,236.0,-191.0,-138.0,11.0,0
18.0,25.0,240.0,-186.0,-191.0,36.0,0
14.0,17.0,240.0,-177.0,-226.0,61.0,0
11.0,15.0,242.0,-163.0,-241.0,82.0,0
12.0,5.0,241.0,-150.0,-239.0,100.0,0
11.0,5.0,244.0,-140.0,-225.0,115.0,0
7.0,1.0,245.0,-135.0,-189.0,128.0,0
14.0,-1.0,242.0,-137.0,-134.0,142.0,0
13.0,-3.0,247.0,-138.0,-66.0,150.0,0
19.0,-9.0,250.0,-143.0,1.0,165.0,0
19.0,-6.0,252.0,-149.0,72.0,181.0,0
24.0,-5.0,250.0,-148.0,118.0,202.0,0
27.0,-5.0,251.0,-136.0,145.0,227.0,0
29.0,1.0,249.0,-124.0,155.0,252.0,0
33.0,2.0,247.0,-119.0,149.0,277.0,0
32.0,8.0,247.0,-133.0,132.0,304.0,0
36.0,11.0,247.0,-162.0,101.0,325.0,0
26.0,16.0,247.0,-205.0,63.0,348.0,0
29.0,15.0,244.0,-256.0,19.0,365.0,0
26.0,12.0,243.0,-311.0,-25.0,378.0,0
27.0,10.0,249.0,-357.0,-63.0,385.0,0
23.0,2.0,253.0,-390.0,-92.0,391.0,0
23.0,-4.0,256.0,-398.0,-105.0,391.0,0
16.0,-12.0,260.0,-383.0,-106.0,389.0,0
22.0,-18.0,256.0,-343.0,-100.0,385.0,0
21.0,-28.0,256.0,-282.0,-94.0,379.0,0
19.0,-37.0,249.0,-204.0,-82.0,371.0,0
24.0,-38.0,247.0,-119.0,-68.0,365.0,0
26.0,-38.0,247.0,-41.0,-49.0,354.0,0
30.0,-36.0,245.0,24.0,-25.0,339.0,0
30.0,-33.0,242.0,69.0,4.0,322.0,0
32.0,-28.0,246.0,96.0,33.0,310.0,0
31.0,-25.0,245.0,114.0,58.0,300.0,0
30.0,-26.0,247.0,126.0,81.0,288.0,0
31.0,-19.0,251.0,140.0,98.0,280.0,0
26.0,-18.0,252.0,155.0,110.0,274.0,0
24.0,-11.0,250.0,169.0,115.0,267.0,0
19.0,-9.0,246.0,182.0,111.0,261.0,0
19.0,0.0,249.0,187.0,95.0,255.0,0
19.0,0.0,244.0,184.0,72.0,252.0,0
19.0,2.0,244.0,168.0,50.0,249.0,0
19.0,2.0,243.0,145.0,35.0,242.0,0
22.0,0.0,240.0,126.0,28.0,232.0,0
20.0,0.0,244.0,115.0,32.0,222.0,0
21.0,-6.0,245.0,116.0,46.0,209.0,0
20.0,-2.0,243.0,126.0,66.0,198.0,0
23.0,-8.0,242.0,139.0,84.0,185.0,0
21.0,-7.0,241.0,156.0,99.0,176.0,0
14.0,2.0,240.0,172.0,114.0,162.0,0
21.0,0.0,247.0,187.0,127.0,149.0,0
21.0,-3.0,247.0,199.0,136.0,136.0,0
24.0,1.0,244.0,208.0,137.0,125.0,0
26.0,2.0,249.0,218.0,129.0,118.0,0
21.0,4.0,249.0,228.0,116.0,116.0,0
23.0,5.0,247.0,244.0,102.0,113.0,0
26.0,5.0,250.0,264.0,91.0,112.0,0
25.0,5.0,247.0,277.0,87.0,109.0,0
31.0,7.0,250.0,278.0,87.0,103.0,0
30.0,7.0,244.0,267.0,92.0,96.0,0
35.0,6.0,249.0,246.0,97.0,92.0,0
34.0,7.0,251.0,216.0,107.0,85.0,0
35.0,8.0,254.0,186.0,117.0,76.0,0
37.0,3.0,251.0,160.0,128.0,64.0,0
37.0,1.0,256.0,145.0,140.0,57.0,0
33.0,-1.0,257.0,142.0,152.0,52.0,0
31.0,0.0,252.0,151.0,162.0,48.0,0
28.0,-1.0,251.0,169.0,172.0,49.0,0
27.0,1.0,254.0,189.0,182.0,49.0,0
27.0,0.0,254.0,205.0,194.0,48.0,0
23.0,1.0,250.0,214.0,198.0,47.0,0
21.0,1.0,247.0,219.0,193.0,47.0,0
23.0,4.0,249.0,217.0,172.0,49.0,0
23.0,3.0,247.0,216.0,146.0,51.0,0
26.0,3.0,247.0,213.0,124.0,53.0,0
25.0,6.0,247.0,212.0,107.0,51.0,0
23.0,7.0,248.0,217.0,96.0,48.0,0
23.0,8.0,247.0,226.0,89.0,44.0,0
24.0,15.0,244.0,236.0,85.0,40.0,0
19.0,17.0,248.0,243.0,78.0,34.0,0
19.0,20.0,248.0,247.0,71.0,30.0,0
24.0,24.0,238.0,246.0,62.0,28.0,0
20.0,23.0,239.0,239.0,47.0,27.0,0
28.0,28.0,240.0,221.0,33.0,23.0,0
28.0,30.0,240.0,197.0,22.0,21.0,0
32.0,32.0,243.0,173.0,16.0,16.0,0
34.0,28.0,246.0,156.0,12.0,7.0,0
32.0,24.0,248.0,143.0,20.0,-1.0,0
35.0,23.0,248.0,134.0,30.0,-7.0,0
31.0,26.0,249.0,124.0,41.0,-7.0,0
31.0,27.0,253.0,110.0,49.0,-5.0,0
31.0,25.0,254.0,96.0,54.0,-4.0,0
28.0,22.0,258.0,80.0,51.0,-2.0,0
26.0,26.0,250.0,65.0,42.0,2.0,0
30.0,27.0,255.0,55.0,33.0,9.0,0
31.0,23.0,253.0,48.0,24.0,8.0,0
31.0,25.0,255.0,43.0,19.0,7.0,0
34.0,23.0,249.0,42.0,16.0,0.0,0
28.0,23.0,246.0,45.0,13.0,-4.0,0
22.0,22.0,247.0,48.0,7.0,-13.0,0
19.0,25.0,246.0,50.0,-5.0,-18.0,0
21.0,22.0,242.0,54.0,-13.0,-26.0,0
16.0,21.0,245.0,59.0,-14.0,-35.0,0
10.0,19.0,245.0,64.0,-5.0,-47.0,0
10.0,20.0,246.0,69.0,12.0,-58.0,0
8.0,19.0,245.0,71.0,32.0,-69.0,0
7.0,15.0,245.0,71.0,53.0,-79.0,0
5.0,16.0,252.0,73.0,73.0,-85.0,0
6.0,15.0,248.0,75.0,86.0,-95.0,0
4.0,10.0,250.0,80.0,101.0,-104.0,0
4.0,11.0,250.0,87.0,115.0,-112.0,0
2.0,14.0,249.0,92.0,124.0,-120.0,0
3.0,13.0,252.0,99.0,132.0,-128.0,0
1.0,14.0,247.0,108.0,138.0,-133.0,0
7.0,12.0,251.0,117.0,144.0,-138.0,0
6.0,15.0,254.0,125.0,150.0,-141.0,0
4.0,13.0,254.0,132.0,154.0,-146.0,0
5.0,15.0,254.0,136.0,158.0,-144.0,0
5.0,17.0,256.0,139.0,156.0,-142.0,0
5.0,15.0,256.0,142.0,149.0,-141.0,0
6.0,16.0,254.0,143.0,135.0,-137.0,0
6.0,11.0,251.0,141.0,113.0,-134.0,0
3.0,9.0,252.0,139.0,84.0,-129.0,0
10.0,6.0,254.0,137.0,53.0,-124.0,0
9.0,8.0,252.0,139.0,23.0,-120.0,0
3.0,6.0,252.0,143.0,-6.0,-116.0,0
9.0,8.0,247.0,150.0,-24.0,-112.0,0
11.0,14.0,250.0,153.0,-37.0,-108.0,0
13.0,14.0,250.0,155.0,-39.0,-105.0,0
17.0,14.0,247.0,159.0,-35.0,-108.0,0
15.0,19.0,251.0,155.0,-25.0,-110.0,0
20.0,20.0,251.0,142.0,-7.0,-109.0,0
23.0,24.0,249.0,128.0,17.0,-106.0,0
24.0,25.0,248.0,117.0,49.0,-103.0,0
29.0,25.0,247.0,111.0,86.0,-100.0,0
31.0,27.0,244.0,116.0,121.0,-101.0,0
35.0,26.0,249.0,126.0,152.0,-102.0,0
36.0,27.0,247.0,143.0,175.0,-101.0,0
38.0,26.0,250.0,160.0,193.0,-105.0,0
35.0,23.0,249.0,174.0,206.0,-110.0,0
39.0,25.0,248.0,187.0,210.0,-115.0,0
46.0,24.0,249.0,196.0,214.0,-120.0,0
45.0,23.0,251.0,205.0,214.0,-130.0,0
46.0,23.0,253.0,208.0,212.0,-140.0,0
48.0,24.0,252.0,208.0,207.0,-152.0,0
44.0,25.0,250.0,207.0,201.0,-163.0,0
51.0,25.0,254.0,203.0,193.0,-175.0,0
51.0,19.0,250.0,194.0,183.0,-185.0,0
38.0,20.0,255.0,187.0,175.0,-194.0,0
44.0,22.0,254.0,179.0,171.0,-199.0,0
40.0,20.0,254.0,171.0,167.0,-200.0,0
37.0,22.0,256.0,166.0,161.0,-201.0,0
35.0,18.0,253.0,164.0,156.0,-198.0,0
32.0,13.0,255.0,166.0,151.0,-187.0,0
25.0,16.0,255.0,173.0,148.0,-174.0,0
26.0,12.0,256.0,184.0,144.0,-162.0,0
21.0,12.0,251.0,201.0,145.0,-150.0,0
24.0,14.0,256.0,218.0,149.0,-135.0,0
14.0,15.0,257.0,237.0,154.0,-122.0,0
9.0,21.0,252.0,253.0,160.0,-110.0,0
5.0,23.0,249.0,266.0,165.0,-96.0,0
4.0,25.0,246.0,271.0,168.0,-84.0,0
0.0,28.0,245.0,268.0,172.0,-74.0,0
-1.0,33.0,246.0,255.0,174.0,-65.0,0
-1.0,31.0,245.0,238.0,178.0,-58.0,0
-4.0,35.0,244.0,216.0,181.0,-49.0,0
-4.0,37.0,250.0,191.0,181.0,-46.0,0
-10.0,37.0,248.0,161.0,181.0,-41.0,0
-7.0,37.0,248.0,128.0,177.0,-36.0,0
-13.0,34.0,246.0,92.0,172.0,-33.0,0
-7.0,34.0,252.0,53.0,166.0,-30.0,0
-9.0,30.0,254.0,15.0,155.0,-30.0,0
-8.0,30.0,256.0,-17.0,139.0,-33.0,0
-7.0,32.0,255.0,-44.0,122.0,-40.0,0
-7.0,27.0,254.0,-64.0,101.0,-47.0,0
-5.0,23.0,255.0,-78.0,85.0,-55.0,0
-2.0,27.0,255.0,-86.0,71.0,-63.0,0
-7.0,24.0,253.0,-89.0,59.0,-71.0,0
0.0,25.0,254.0,-85.0,49.0,-81.0,0
0.0,22.0,251.0,-68.0,45.0,-88.0,0
1.0,24.0,243.0,-47.0,42.0,-93.0,0
4.0,27.0,249.0,-27.0,45.0,-96.0,0
7.0,23.0,246.0,-7.0,44.0,-96.0,0
9.0,25.0,247.0,11.0,42.0,-99.0,0
7.0,27.0,249.0,25.0,42.0,-99.0,0
9.0,28.0,248.0,27.0,41.0,-96.0,0
12.0,23.0,245.0,16.0,41.0,-96.0,0
15.0,19.0,247.0,0.0,42.0,-95.0,0
12.0,18.0,252.0,-19.0,42.0,-93.0,0
11.0,17.0,254.0,-37.0,41.0,-91.0,0
16.0,19.0,252.0,-50.0,39.0,-90.0,0
8.0,17.0,253.0,-56.0,37.0,-89.0,0
13.0,12.0,249.0,-59.0,39.0,-91.0,0
17.0,9.0,254.0,-56.0,42.0,-90.0,0
14.0,8.0,252.0,-43.0,48.0,-87.0,0
17.0,10.0,252.0,-31.0,55.0,-83.0,0
19.0,7.0,251.0,-21.0,62.0,-79.0,0
17.0,10.0,251.0,-13.0,70.0,-75.0,0
14.0,9.0,251.0,-8.0,79.0,-70.0,0
15.0,9.0,252.0,-1.0,87.0,-66.0,0
14.0,7.0,252.0,5.0,97.0,-59.0,0
11.0,14.0,263.0,11.0,109.0,-55.0,0
13.0,8.0,254.0,22.0,117.0,-46.0,0
10.0,9.0,253.0,33.0,124.0,-38.0,0
10.0,9.0,252.0,40.0,126.0,-30.0,0
7.0,11.0,253.0,44.0,125.0,-22.0,0
3.0,15.0,253.0,50.0,120.0,-13.0,0
5.0,11.0,247.0,51.0,111.0,-6.0,0
6.0,13.0,248.0,52.0,102.0,2.0,0
4.0,16.0,247.0,53.0,91.0,7.0,0
2.0,15.0,250.0,49.0,79.0,13.0,0
0.0,19.0,250.0,45.0,69.0,22.0,0
3.0,6.0,251.0,39.0,59.0,31.0,0
0.0,17.0,248.0,35.0,49.0,28.0,0
1.0,16.0,251.0,35.0,40.0,27.0,0
2.0,14.0,252.0,31.0,33.0,31.0,0
-1.0,16.0,252.0,31.0,25.0,31.0,0
-1.0,15.0,250.0,36.0,20.0,32.0,0
1.0,17.0,254.0,42.0,14.0,34.0,0
1.0,18.0,244.0,41.0,5.0,27.0,0
2.0,17.0,244.0,39.0,-2.0,20.0,0
0.0,14.0,244.0,34.0,-12.0,15.0,0
0.0,18.0,245.0,41.0,-21.0,9.0,0
1.0,13.0,242.0,53.0,-26.0,2.0,0
0.0,24.0,252.0,70.0,-30.0,-3.0,0
1.0,24.0,250.0,85.0,-34.0,1.0,0
2.0,24.0,251.0,95.0,-40.0,4.0,0
5.0,22.0,248.0,98.0,-47.0,-1.0,0
5.0,22.0,248.0,94.0,-55.0,-10.0,0
4.0,23.0,246.0,88.0,-59.0,-16.0,0
4.0,23.0,245.0,85.0,-61.0,-18.0,0
2.0,18.0,249.0,86.0,-61.0,-21.0,0
1.0,27.0,241.0,89.0,-59.0,-22.0,0
8.0,23.0,245.0,98.0,-53.0,-22.0,0
7.0,30.0,248.0,106.0,-46.0,-24.0,0
5.0,26.0,246.0,111.0,-37.0,-26.0,0
5.0,25.0,248.0,116.0,-29.0,-28.0,0
3.0,29.0,249.0,121.0,-19.0,-27.0,0
7.0,24.0,250.0,125.0,-11.0,-24.0,0
3.0,26.0,250.0,126.0,-3.0,-22.0,0
4.0,24.0,248.0,121.0,5.0,-22.0,0
4.0,28.0,253.0,117.0,14.0,-21.0,0
7.0,26.0,253.0,113.0,20.0,-20.0,0
6.0,24.0,251.0,109.0,28.0,-20.0,0
2.0,30.0,254.0,105.0,34.0,-21.0,0
7.0,23.0,253.0,102.0,40.0,-20.0,0
3.0,26.0,251.0,98.0,44.0,-23.0,0
5.0,25.0,253.0,93.0,49.0,-23.0,0
2.0,28.0,254.0,87.0,51.0,-23.0,0
1.0,27.0,253.0,81.0,52.0,-23.0,0
0.0,25.0,251.0,74.0,53.0,-25.0,0
2.0,27.0,252.0,69.0,53.0,-23.0,0
1.0,25.0,252.0,62.0,51.0,-22.0,0
3.0,22.0,254.0,57.0,49.0,-23.0,0
1.0,26.0,252.0,53.0,47.0,-22.0,0
5.0,22.0,253.0,50.0,43.0,-21.0,0
3.0,18.0,254.0,48.0,41.0,-21.0,0
0.0,22.0,248.0,44.0,37.0,-20.0,0
1.0,21.0,252.0,41.0,34.0,-21.0,0
1.0,20.0,251.0,39.0,31.0,-19.0,0
2.0,23.0,247.0,36.0,28.0,-23.0,0
2.0,23.0,246.0,33.0,26.0,-22.0,0
3.0,21.0,251.0,32.0,22.0,-20.0,0
5.0,22.0,253.0,32.0,19.0,-20.0,0
8.0,21.0,251.0,34.0,14.0,-18.0,0
4.0,18.0,253.0,35.0,11.0,-17.0,0
3.0,25.0,246.0,37.0,7.0,-16.0,0
7.0,21.0,254.0,40.0,5.0,-14.0,0
8.0,23.0,251.0,46.0,3.0,-14.0,0
9.0,23.0,248.0,49.0,1.0,-13.0,0
9.0,22.0,251.0,53.0,-2.0,-11.0,0
7.0,20.0,251.0,56.0,-3.0,-11.0,0
10.0,20.0,250.0,57.0,-3.0,-11.0,0
10.0,23.0,248.0,58.0,-2.0,-10.0,0
8.0,24.0,252.0,57.0,-2.0,-10.0,0
11.0,23.0,251.0,56.0,-1.0,-10.0,0
14.0,22.0,248.0,55.0,3.0,-8.0,0
10.0,19.0,242.0,56.0,6.0,-8.0,0
11.0,24.0,259.0,58.0,10.0,-9.0,0
13.0,18.0,250.0,59.0,14.0,-10.0,0
15.0,19.0,249.0,60.0,20.0,-9.0,0
13.0,20.0,251.0,63.0,24.0,-8.0,0
12.0,20.0,254.0,65.0,28.0,-9.0,0
12.0,19.0,251.0,69.0,31.0,-9.0,0
10.0,18.0,253.0,74.0,34.0,-10.0,0
10.0,20.0,252.0,83.0,34.0,-9.0,0
9.0,21.0,251.0,94.0,33.0,-10.0,0
9.0,21.0,249.0,105.0,31.0,-10.0,0
10.0,19.0,249.0,117.0,29.0,-10.0,0
10.0,16.0,245.0,131.0,26.0,-10.0,0
11.0,21.0,254.0,141.0,23.0,-11.0,0
9.0,23.0,250.0,150.0,20.0,-11.0,0
9.0,26.0,253.0,156.0,18.0,-12.0,0
11.0,26.0,248.0,159.0,17.0,-11.0,0
8.0,28.0,249.0,156.0,16.0,-13.0,0
10.0,26.0,246.0,151.0,18.0,-14.0,0
7.0,29.0,251.0,141.0,18.0,-15.0,0
8.0,29.0,249.0,129.0,17.0,-14.0,0
5.0,31.0,247.0,116.0,17.0,-14.0,0
4.0,29.0,251.0,102.0,17.0,-14.0,0
7.0,27.0,252.0,88.0,17.0,-11.0,0
4.0,30.0,248.0,75.0,17.0,-13.0,0
9.0,27.0,249.0,65.0,16.0,-13.0,0
6.0,30.0,252.0,57.0,12.0,-12.0,0
6.0,27.0,250.0,52.0,11.0,-12.0,0
8.0,27.0,252.0,49.0,8.0,-10.0,0
7.0,28.0,254.0,46.0,6.0,-10.0,0
7.0,25.0,252.0,46.0,3.0,-10.0,0
6.0,23.0,252.0,47.0,2.0,-11.0,0
7.0,30.0,256.0,49.0,2.0,-9.0,0
4.0,22.0,244.0,51.0,2.0,-11.0,0
4.0,26.0,251.0,54.0,3.0,-11.0,0
6.0,23.0,249.0,56.0,5.0,-11.0,0
6.0,23.0,250.0,58.0,7.0,-11.0,0
5.0,22.0,249.0,60.0,10.0,-12.0,0
2.0,25.0,250.0,66.0,13.0,-14.0,0
5.0,22.0,245.0,70.0,16.0,-13.0,0
4.0,27.0,250.0,72.0,20.0,-14.0,0
3.0,23.0,251.0,73.0,22.0,-13.0,0
6.0,24.0,246.0,74.0,25.0,-13.0,0
5.0,23.0,250.0,74.0,27.0,-13.0,0
2.0,18.0,251.0,75.0,28.0,-13.0,0
2.0,24.0,248.0,76.0,28.0,-13.0,0
3.0,25.0,249.0,77.0,28.0,-13.0,0
5.0,25.0,250.0,80.0,28.0,-12.0,0
3.0,26.0,252.0,82.0,28.0,-12.0,0
3.0,25.0,249.0,84.0,28.0,-11.0,0
3.0,26.0,250.0,86.0,26.0,-12.0,0
2.0,25.0,252.0,88.0,26.0,-13.0,0
3.0,21.0,247.0,90.0,25.0,-14.0,0
3.0,28.0,248.0,92.0,23.0,-13.0,0
1.0,24.0,243.0,93.0,22.0,-14.0,0
3.0,24.0,246.0,94.0,21.0,-16.0,0
1.0,25.0,252.0,96.0,20.0,-16.0,0
2.0,25.0,251.0,95.0,19.0,-17.0,0
5.0,25.0,251.0,96.0,20.0,-17.0,0
5.0,27.0,247.0,94.0,18.0,-15.0,0
4.0,28.0,250.0,93.0,20.0,-16.0,0
5.0,25.0,250.0,93.0,19.0,-16.0,0
5.0,25.0,252.0,92.0,20.0,-15.0,0
4.0,24.0,250.0,91.0,20.0,-14.0,0
8.0,23.0,252.0,91.0,20.0,-15.0,0
3.0,25.0,250.0,89.0,18.0,-15.0,0
4.0,25.0,244.0,89.0,17.0,-14.0,0
4.0,24.0,251.0,91.0,16.0,-15.0,0
6.0,23.0,251.0,94.0,14.0,-16.0,0
3.0,26.0,247.0,98.0,12.0,-16.0,0
5.0,25.0,249.0,104.0,11.0,-16.0,0
5.0,25.0,251.0,108.0,9.0,-15.0,0
6.0,26.0,248.0,113.0,10.0,-16.0,0
6.0,26.0,253.0,117.0,11.0,-17.0,0
5.0,26.0,242.0,118.0,12.0,-15.0,0
5.0,30.0,250.0,117.0,14.0,-16.0,0
9.0,27.0,248.0,117.0,15.0,-18.0,0
5.0,31.0,243.0,114.0,18.0,-18.0,0
9.0,29.0,244.0,109.0,18.0,-15.0,0
6.0,30.0,253.0,104.0,17.0,-15.0,0
5.0,29.0,248.0,98.0,18.0,-15.0,0
6.0,28.0,253.0,92.0,18.0,-14.0,0
5.0,30.0,253.0,86.0,18.0,-13.0,0
5.0,29.0,250.0,81.0,15.0,-12.0,0
5.0,30.0,249.0,77.0,14.0,-13.0,0
3.0,30.0,249.0,73.0,12.0,-12.0,0
3.0,26.0,254.0,70.0,9.0,-13.0,0
2.0,31.0,252.0,66.0,9.0,-12.0,0
8.0,26.0,250.0,66.0,8.0,-11.0,0
6.0,26.0,248.0,67.0,7.0,-10.0,0
6.0,30.0,252.0,66.0,5.0,-9.0,0
6.0,28.0,250.0,66.0,6.0,-10.0,0
5.0,27.0,247.0,67.0,5.0,-11.0,0
5.0,28.0,250.0,68.0,6.0,-11.0,0
8.0,27.0,249.0,69.0,6.0,-10.0,0
3.0,25.0,249.0,69.0,9.0,-12.0,0
6.0,28.0,251.0,70.0,8.0,-11.0,0
9.0,28.0,252.0,69.0,10.0,-10.0,0
6.0,27.0,252.0,72.0,12.0,-11.0,0
5.0,30.0,246.0,70.0,11.0,-9.0,0
6.0,29.0,251.0,72.0,10.0,-10.0,0
8.0,27.0,245.0,72.0,10.0,-10.0,0
7.0,31.0,247.0,73.0,11.0,-11.0,0
9.0,27.0,248.0,75.0,10.0,-10.0,0
7.0,26.0,250.0,76.0,10.0,-10.0,0
9.0,28.0,247.0,77.0,13.0,-12.0,0
10.0,24.0,248.0,79.0,14.0,-10.0,0
5.0,26.0,252.0,81.0,16.0,-12.0,0
10.0,26.0,251.0,81.0,18.0,-12.0,0
9.0,28.0,253.0,82.0,18.0,-10.0,0
6.0,26.0,252.0,82.0,19.0,-11.0,0
6.0,29.0,249.0,81.0,18.0,-12.0,0
8.0,29.0,249.0,77.0,19.0,-14.0,0
8.0,30.0,252.0,75.0,16.0,-12.0,0
5.0,26.0,249.0,71.0,16.0,-14.0,0
5.0,28.0,250.0,71.0,15.0,-14.0,0
6.0,27.0,251.0,70.0,13.0,-15.0,0
6.0,30.0,250.0,69.0,12.0,-15.0,0
6.0,29.0,247.0,71.0,14.0,-15.0,0
7.0,30.0,250.0,73.0,13.0,-13.0,0
6.0,29.0,250.0,72.0,14.0,-13.0,0
4.0,31.0,249.0,73.0,15.0,-16.0,0
7.0,27.0,252.0,74.0,16.0,-13.0,0
4.0,31.0,253.0,70.0,15.0,-14.0,0
5.0,29.0,250.0,67.0,13.0,-14.0,0
4.0,33.0,251.0,64.0,11.0,-14.0,0
7.0,30.0,250.0,61.0,8.0,-13.0,0
2.0,30.0,248.0,59.0,6.0,-14.0,0
4.0,30.0,252.0,54.0,3.0,-12.0,0
6.0,32.0,249.0,54.0,1.0,-12.0,0
6.0,30.0,245.0,54.0,-2.0,-13.0,0
3.0,21.0,246.0,56.0,-2.0,-12.0,0
3.0,32.0,249.0,57.0,-2.0,-13.0,0
4.0,31.0,247.0,59.0,-2.0,-12.0,0
4.0,32.0,251.0,61.0,-1.0,-12.0,0
2.0,33.0,249.0,60.0,1.0,-9.0,0
4.0,30.0,250.0,59.0,4.0,-10.0,0
2.0,29.0,251.0,60.0,6.0,-10.0,0
4.0,27.0,252.0,59.0,10.0,-11.0,0
5.0,30.0,250.0,60.0,12.0,-12.0,0
4.0,30.0,249.0,63.0,15.0,-13.0,0
5.0,31.0,251.0,65.0,19.0,-10.0,0
4.0,26.0,256.0,69.0,21.0,-11.0,0
4.0,28.0,252.0,71.0,26.0,-12.0,0
5.0,29.0,253.0,74.0,26.0,-13.0,0
5.0,28.0,252.0,77.0,27.0,-13.0,0
8.0,24.0,253.0,81.0,30.0,-12.0,0
4.0,26.0,251.0,89.0,29.0,-13.0,0
4.0,25.0,254.0,96.0,29.0,-12.0,0
4.0,25.0,252.0,106.0,26.0,-13.0,0
6.0,26.0,249.0,117.0,25.0,-14.0,0
7.0,26.0,250.0,127.0,21.0,-14.0,0
2.0,29.0,243.0,136.0,20.0,-15.0,0
8.0,22.0,250.0,146.0,18.0,-15.0,0
1.0,29.0,247.0,152.0,18.0,-16.0,0
7.0,31.0,250.0,156.0,18.0,-15.0,0
4.0,30.0,244.0,156.0,19.0,-15.0,0
2.0,33.0,246.0,152.0,19.0,-15.0,0
6.0,35.0,245.0,144.0,19.0,-15.0,0
5.0,35.0,247.0,135.0,18.0,-15.0,0
6.0,36.0,248.0,121.0,19.0,-12.0,0
6.0,37.0,247.0,108.0,20.0,-15.0,0
9.0,34.0,248.0,96.0,18.0,-15.0,0
5.0,33.0,245.0,85.0,17.0,-14.0,0
3.0,34.0,246.0,77.0,15.0,-13.0,0
6.0,31.0,250.0,70.0,13.0,-9.0,0
4.0,35.0,244.0,67.0,12.0,-12.0,0
5.0,32.0,248.0,63.0,8.0,-10.0,0
6.0,31.0,252.0,63.0,5.0,-11.0,0
7.0,31.0,250.0,62.0,4.0,-12.0,0
6.0,28.0,249.0,61.0,3.0,-12.0,0
5.0,32.0,252.0,61.0,1.0,-9.0,0
1.0,33.0,248.0,59.0,1.0,-11.0,0
6.0,30.0,248.0,60.0,3.0,-11.0,0
5.0,30.0,245.0,60.0,4.0,-12.0,0
3.0,32.0,251.0,59.0,5.0,-11.0,0
7.0,29.0,248.0,60.0,7.0,-11.0,0
5.0,32.0,251.0,59.0,9.0,-11.0,0
5.0,30.0,248.0,58.0,9.0,-12.0,0
5.0,32.0,249.0,56.0,11.0,-11.0,0
7.0,33.0,247.0,55.0,11.0,-13.0,0
