ax,ay,az,gx,gy,gz,label
-25.0,-40.0,236.0,29.0,48.0,-3.0,0
-22.0,-39.0,234.0,29.0,49.0,-6.0,0
-21.0,-37.0,237.0,24.0,51.0,-4.0,0
-22.0,-35.0,233.0,17.0,58.0,-5.0,0
-22.0,-37.0,240.0,10.0,58.0,-4.0,0
-22.0,-43.0,231.0,-1.0,60.0,-5.0,0
-29.0,-27.0,237.0,-11.0,63.0,-2.0,0
-22.0,-40.0,236.0,-19.0,65.0,-5.0,0
-23.0,-36.0,242.0,-26.0,67.0,-4.0,0
-26.0,-40.0,235.0,-30.0,67.0,-6.0,0
-24.0,-39.0,232.0,-31.0,67.0,-3.0,0
-25.0,-38.0,232.0,-29.0,64.0,-5.0,0
-26.0,-38.0,237.0,-25.0,65.0,-3.0,0
-22.0,-40.0,233.0,-19.0,64.0,-7.0,0
-23.0,-40.0,233.0,-12.0,62.0,-4.0,0
-21.0,-39.0,234.0,-5.0,59.0,-6.0,0
-17.0,-35.0,243.0,2.0,57.0,-4.0,0
-22.0,-39.0,240.0,7.0,56.0,-7.0,0
-23.0,-39.0,234.0,11.0,54.0,-4.0,0
-22.0,-40.0,235.0,14.0,53.0,-7.0,0
-21.0,-39.0,237.0,17.0,52.0,-6.0,0
-25.0,-38.0,236.0,17.0,54.0,-8.0,0
-22.0,-38.0,235.0,16.0,54.0,-6.0,0
-24.0,-38.0,234.0,16.0,55.0,-10.0,0
-22.0,-40.0,237.0,15.0,55.0,-7.0,0
-23.0,-37.0,236.0,14.0,56.0,-8.0,0
-21.0,-34.0,235.0,13.0,56.0,-6.0,0
-20.0,-39.0,237.0,10.0,57.0,-9.0,0
-22.0,-37.0,234.0,10.0,56.0,-6.0,0
-23.0,-37.0,235.0,10.0,57.0,-9.0,0
-24.0,-36.0,237.0,8.0,55.0,-6.0,0
-23.0,-35.0,237.0,7.0,53.0,-7.0,0
-23.0,-35.0,234.0,6.0,54.0,-4.0,0
-22.0,-34.0,237.0,6.0,52.0,-7.0,0
-21.0,-36.0,236.0,3.0,52.0,-4.0,0
-16.0,-38.0,234.0,4.0,50.0,-7.0,0
-23.0,-37.0,233.0,6.0,50.0,-5.0,0
-23.0,-35.0,237.0,4.0,49.0,-7.0,0
-22.0,-37.0,235.0,5.0,51.0,-4.0,0
-21.0,-37.0,235.0,7.0,51.0,-7.0,0
-20.0,-39.0,235.0,7.0,54.0,-5.0,0
-21.0,-38.0,235.0,6.0,57.0,-6.0,0
-23.0,-37.0,234.0,6.0,60.0,-4.0,0
-19.0,-37.0,234.0,2.0,62.0,-6.0,0
-23.0,-37.0,234.0,0.0,64.0,-4.0,0
-20.0,-36.0,236.0,-5.0,65.0,-6.0,0
-21.0,-37.0,237.0,-8.0,67.0,-4.0,0
-22.0,-37.0,232.0,-10.0,67.0,-6.0,0
-23.0,-38.0,236.0,-13.0,68.0,-4.0,0
-21.0,-34.0,242.0,-16.0,67.0,-6.0,0
-21.0,-38.0,234.0,-18.0,65.0,-4.0,0
-24.0,-38.0,232.0,-19.0,62.0,-6.0,0
-21.0,-35.0,237.0,-18.0,61.0,-5.0,0
-24.0,-35.0,234.0,-13.0,58.0,-7.0,0
-22.0,-36.0,241.0,-11.0,55.0,-4.0,0
-21.0,-37.0,236.0,-6.0,55.0,-7.0,0
-26.0,-35.0,235.0,0.0,54.0,-6.0,0
-23.0,-40.0,233.0,5.0,54.0,-7.0,0
-21.0,-37.0,232.0,8.0,55.0,-5.0,0
-21.0,-36.0,234.0,12.0,54.0,-8.0,0
-21.0,-36.0,238.0,15.0,55.0,-6.0,0
-20.0,-37.0,238.0,15.0,56.0,-7.0,0
-21.0,-35.0,237.0,14.0,58.0,-5.0,0
-24.0,-35.0,238.0,12.0,57.0,-8.0,0
-20.0,-38.0,236.0,9.0,59.0,-4.0,0
-23.0,-35.0,236.0,7.0,58.0,-7.0,0
-22.0,-35.0,240.0,4.0,58.0,-5.0,0
-22.0,-38.0,236.0,3.0,60.0,-8.0,0
-23.0,-35.0,232.0,-1.0,60.0,-4.0,0
-24.0,-34.0,234.0,-6.0,59.0,-7.0,0
-22.0,-37.0,234.0,-6.0,60.0,-4.0,0
-22.0,-37.0,240.0,-7.0,61.0,-5.0,0
-21.0,-36.0,238.0,-9.0,63.0,-4.0,0
-21.0,-37.0,234.0,-9.0,62.0,-6.0,0
-22.0,-33.0,237.0,-10.0,61.0,-5.0,0
-21.0,-35.0,235.0,-9.0,62.0,-6.0,0
-23.0,-37.0,236.0,-8.0,61.0,-5.0,0
-22.0,-36.0,237.0,-7.0,60.0,-6.0,0
-19.0,-36.0,236.0,-5.0,59.0,-5.0,0
-22.0,-36.0,238.0,-3.0,59.0,-7.0,0
-20.0,-36.0,236.0,-2.0,59.0,-5.0,0
-23.0,-36.0,234.0,0.0,59.0,-7.0,0
-23.0,-33.0,236.0,2.0,58.0,-4.0,0
-22.0,-35.0,237.0,4.0,57.0,-4.0,0
-21.0,-39.0,239.0,4.0,57.0,-5.0,0
-22.0,-34.0,232.0,2.0,58.0,-6.0,0
-22.0,-36.0,236.0,2.0,56.0,-5.0,0
-25.0,-35.0,237.0,3.0,56.0,-7.0,0
-22.0,-34.0,233.0,1.0,56.0,-5.0,0
-21.0,-35.0,236.0,-1.0,57.0,-6.0,0
-20.0,-32.0,234.0,-2.0,55.0,-6.0,0
-23.0,-36.0,237.0,-4.0,57.0,-6.0,0
-23.0,-33.0,240.0,-5.0,57.0,-5.0,0
-25.0,-36.0,237.0,-7.0,57.0,-6.0,0
-21.0,-37.0,235.0,-7.0,58.0,-6.0,0
-21.0,-32.0,238.0,-6.0,58.0,-6.0,0
-22.0,-34.0,234.0,-7.0,58.0,-6.0,0
-20.0,-36.0,233.0,-8.0,58.0,-7.0,0
-21.0,-37.0,236.0,-7.0,60.0,-6.0,0
-21.0,-35.0,235.0,-7.0,59.0,-6.0,0
-23.0,-36.0,237.0,-6.0,56.0,-5.0,0
-19.0,-35.0,235.0,-7.0,56.0,-6.0,0
-20.0,-38.0,235.0,-5.0,56.0,-3.0,0
-20.0,-37.0,235.0,-7.0,56.0,-5.0,0
-19.0,-36.0,234.0,-7.0,57.0,-5.0,0
-19.0,-36.0,234.0,-6.0,55.0,-6.0,0
-22.0,-36.0,234.0,-6.0,55.0,-5.0,0
-23.0,-36.0,235.0,-6.0,57.0,-6.0,0
-21.0,-35.0,236.0,-6.0,58.0,-5.0,0
-20.0,-36.0,232.0,-5.0,58.0,-5.0,0
-22.0,-36.0,235.0,-4.0,57.0,-5.0,0
-20.0,-34.0,236.0,-4.0,57.0,-6.0,0
-23.0,-34.0,237.0,-3.0,60.0,-5.0,0
-24.0,-33.0,229.0,-5.0,58.0,-4.0,0
-21.0,-36.0,235.0,-6.0,58.0,-5.0,0
-24.0,-32.0,236.0,-8.0,58.0,-4.0,0
-23.0,-36.0,237.0,-8.0,58.0,-5.0,0
-22.0,-36.0,236.0,-10.0,59.0,-5.0,0
-20.0,-37.0,238.0,-11.0,58.0,-4.0,0
-21.0,-38.0,236.0,-10.0,58.0,-5.0,0
-21.0,-37.0,237.0,-10.0,57.0,-4.0,0
-24.0,-35.0,238.0,-8.0,57.0,-5.0,0
-21.0,-38.0,232.0,-8.0,56.0,-3.0,0
-23.0,-32.0,236.0,-8.0,56.0,-3.0,0
-20.0,-34.0,235.0,-7.0,56.0,-4.0,0
-19.0,-37.0,238.0,-9.0,57.0,-4.0,0
-22.0,-33.0,229.0,-10.0,57.0,-5.0,0
-20.0,-35.0,236.0,-10.0,56.0,-4.0,0
-23.0,-33.0,235.0,-11.0,57.0,-5.0,0
-19.0,-33.0,234.0,-13.0,57.0,-5.0,0
-23.0,-37.0,235.0,-16.0,58.0,-4.0,0
-20.0,-37.0,240.0,-14.0,57.0,-4.0,0
-22.0,-34.0,236.0,-16.0,59.0,-4.0,0
-21.0,-38.0,235.0,-16.0,59.0,-4.0,0
-21.0,-33.0,241.0,-16.0,59.0,-4.0,0
-20.0,-37.0,236.0,-16.0,62.0,-4.0,0
-23.0,-34.0,238.0,-16.0,61.0,-5.0,0
-21.0,-32.0,234.0,-16.0,62.0,-3.0,0
-20.0,-37.0,236.0,-16.0,61.0,-5.0,0
-23.0,-36.0,234.0,-17.0,62.0,-4.0,0
-22.0,-35.0,236.0,-20.0,63.0,-4.0,0
-23.0,-36.0,239.0,-24.0,64.0,-2.0,0
-21.0,-36.0,237.0,-30.0,64.0,-3.0,0
-20.0,-37.0,238.0,-36.0,67.0,-2.0,0
-20.0,-36.0,237.0,-41.0,73.0,0.0,0
-23.0,-35.0,238.0,-44.0,76.0,1.0,0
-20.0,-33.0,235.0,-49.0,81.0,2.0,0
-21.0,-35.0,235.0,-50.0,88.0,2.0,0
-23.0,-36.0,234.0,-50.0,92.0,1.0,0
-24.0,-35.0,232.0,-50.0,96.0,1.0,0
-20.0,-36.0,234.0,-50.0,100.0,1.0,0
-24.0,-38.0,232.0,-50.0,101.0,1.0,0
-21.0,-36.0,235.0,-50.0,100.0,-1.0,0
-23.0,-34.0,232.0,-50.0,98.0,0.0,0
-23.0,-34.0,233.0,-49.0,92.0,-1.0,0
-25.0,-34.0,234.0,-47.0,82.0,-1.0,0
-24.0,-33.0,234.0,-41.0,73.0,-2.0,0
-23.0,-35.0,236.0,-34.0,65.0,0.0,0
-23.0,-35.0,238.0,-26.0,57.0,-1.0,0
-24.0,-36.0,233.0,-17.0,51.0,-1.0,0
-21.0,-37.0,237.0,-8.0,46.0,-1.0,0
-20.0,-39.0,238.0,-1.0,43.0,0.0,0
-22.0,-38.0,235.0,8.0,42.0,0.0,0
-19.0,-36.0,232.0,13.0,42.0,1.0,0
-22.0,-35.0,235.0,15.0,44.0,0.0,0
-22.0,-33.0,239.0,15.0,48.0,0.0,0
-20.0,-38.0,240.0,10.0,51.0,-1.0,0
-23.0,-32.0,233.0,0.0,55.0,-1.0,0
-22.0,-34.0,237.0,-12.0,60.0,-2.0,0
-23.0,-34.0,235.0,-23.0,63.0,-1.0,0
-20.0,-35.0,234.0,-35.0,66.0,-2.0,0
-22.0,-34.0,235.0,-46.0,69.0,0.0,0
-23.0,-36.0,233.0,-54.0,70.0,-1.0,0
-23.0,-37.0,236.0,-57.0,70.0,-1.0,0
-23.0,-37.0,237.0,-61.0,70.0,-2.0,0
-24.0,-36.0,239.0,-59.0,69.0,-1.0,0
-24.0,-39.0,236.0,-56.0,70.0,-1.0,0
-21.0,-39.0,235.0,-49.0,68.0,0.0,0
-22.0,-39.0,238.0,-41.0,67.0,-2.0,0
-23.0,-37.0,236.0,-32.0,64.0,0.0,0
-22.0,-37.0,236.0,-26.0,62.0,-2.0,0
-20.0,-37.0,234.0,-19.0,60.0,-1.0,0
-21.0,-37.0,236.0,-13.0,58.0,-2.0,0
-23.0,-36.0,234.0,-10.0,56.0,0.0,0
-22.0,-35.0,234.0,-9.0,53.0,-2.0,0
-21.0,-38.0,237.0,-11.0,56.0,-1.0,0
-22.0,-37.0,238.0,-11.0,55.0,-3.0,0
-22.0,-36.0,236.0,-13.0,56.0,-1.0,0
-19.0,-39.0,235.0,-13.0,57.0,-4.0,0
-21.0,-37.0,238.0,-13.0,56.0,-2.0,0
-19.0,-36.0,237.0,-14.0,59.0,-3.0,0
-21.0,-36.0,237.0,-12.0,61.0,-1.0,0
-24.0,-34.0,235.0,-13.0,63.0,-2.0,0
-22.0,-35.0,234.0,-14.0,63.0,-1.0,0
-22.0,-35.0,239.0,-16.0,64.0,-4.0,0
-23.0,-36.0,236.0,-18.0,62.0,0.0,0
-22.0,-33.0,236.0,-20.0,61.0,-3.0,0
-21.0,-35.0,233.0,-22.0,59.0,-2.0,0
-24.0,-37.0,236.0,-24.0,57.0,-3.0,0
-21.0,-36.0,234.0,-24.0,57.0,-2.0,0
-22.0,-37.0,233.0,-24.0,56.0,-4.0,0
-25.0,-36.0,233.0,-26.0,57.0,-2.0,0
-20.0,-39.0,239.0,-26.0,57.0,-4.0,0
-22.0,-38.0,236.0,-28.0,58.0,-2.0,0
-23.0,-35.0,237.0,-27.0,59.0,-3.0,0
-21.0,-37.0,234.0,-26.0,62.0,-2.0,0
-20.0,-34.0,233.0,-26.0,63.0,-4.0,0
-22.0,-39.0,235.0,-24.0,66.0,-3.0,0
-21.0,-38.0,236.0,-25.0,70.0,-3.0,0
-22.0,-35.0,233.0,-28.0,71.0,-2.0,0
-21.0,-38.0,235.0,-28.0,73.0,-4.0,0
-24.0,-36.0,234.0,-29.0,74.0,-1.0,0
-23.0,-36.0,236.0,-30.0,75.0,-3.0,0
-24.0,-36.0,231.0,-32.0,73.0,0.0,0
-24.0,-34.0,238.0,-33.0,72.0,-2.0,0
-24.0,-36.0,237.0,-33.0,69.0,-1.0,0
-22.0,-36.0,235.0,-33.0,67.0,-2.0,0
-21.0,-39.0,235.0,-30.0,65.0,-1.0,0
-24.0,-36.0,234.0,-29.0,62.0,-4.0,0
-27.0,-36.0,234.0,-29.0,59.0,-1.0,0
-23.0,-37.0,236.0,-25.0,59.0,-4.0,0
-19.0,-37.0,231.0,-22.0,58.0,-2.0,0
-21.0,-37.0,233.0,-21.0,58.0,-4.0,0
-25.0,-36.0,233.0,-21.0,58.0,-2.0,0
-20.0,-37.0,232.0,-21.0,58.0,-5.0,0
-22.0,-35.0,234.0,-20.0,60.0,-1.0,0
-22.0,-38.0,235.0,-21.0,61.0,-4.0,0
-21.0,-40.0,235.0,-24.0,63.0,-1.0,0
-23.0,-36.0,234.0,-26.0,65.0,-2.0,0
-22.0,-38.0,235.0,-28.0,66.0,-2.0,0
-24.0,-37.0,234.0,-31.0,66.0,-3.0,0
-21.0,-36.0,237.0,-34.0,66.0,0.0,0
-23.0,-33.0,237.0,-35.0,65.0,-2.0,0
-24.0,-36.0,234.0,-36.0,66.0,-1.0,0
-22.0,-36.0,233.0,-39.0,67.0,-1.0,0
-21.0,-37.0,232.0,-40.0,67.0,0.0,0
-22.0,-38.0,232.0,-41.0,68.0,-1.0,0
-25.0,-36.0,230.0,-41.0,67.0,1.0,0
-22.0,-38.0,237.0,-40.0,67.0,-1.0,0
-20.0,-36.0,234.0,-38.0,67.0,0.0,0
-18.0,-40.0,234.0,-37.0,65.0,-1.0,0
-23.0,-38.0,237.0,-35.0,65.0,1.0,0
-26.0,-36.0,236.0,-35.0,66.0,-1.0,0
-24.0,-38.0,233.0,-33.0,64.0,0.0,0
-20.0,-36.0,233.0,-34.0,64.0,-1.0,0
-24.0,-37.0,233.0,-32.0,62.0,2.0,0
-21.0,-37.0,235.0,-30.0,63.0,-2.0,0
-20.0,-39.0,234.0,-31.0,63.0,0.0,0
-17.0,-41.0,236.0,-30.0,62.0,-2.0,0
-19.0,-41.0,235.0,-32.0,62.0,2.0,0
-25.0,-38.0,235.0,-34.0,63.0,-2.0,0
-23.0,-38.0,240.0,-35.0,62.0,0.0,0
-21.0,-38.0,236.0,-36.0,64.0,-2.0,0
-22.0,-37.0,237.0,-35.0,65.0,1.0,0
-24.0,-37.0,234.0,-36.0,65.0,-2.0,0
-21.0,-39.0,234.0,-38.0,64.0,2.0,0
-22.0,-39.0,237.0,-38.0,65.0,-1.0,0
-23.0,-39.0,236.0,-36.0,64.0,1.0,0
-21.0,-36.0,236.0,-36.0,65.0,-1.0,0
-22.0,-40.0,233.0,-36.0,64.0,2.0,0
-27.0,-36.0,233.0,-34.0,64.0,1.0,0
-22.0,-38.0,235.0,-34.0,63.0,3.0,0
-25.0,-36.0,233.0,-33.0,64.0,0.0,0
-20.0,-38.0,232.0,-34.0,64.0,2.0,0
-18.0,-38.0,234.0,-32.0,64.0,0.0,0
-23.0,-35.0,233.0,-33.0,64.0,2.0,0
-24.0,-37.0,238.0,-32.0,65.0,-1.0,0
-24.0,-37.0,234.0,-33.0,65.0,1.0,0
-24.0,-35.0,234.0,-34.0,65.0,0.0,0
-21.0,-39.0,235.0,-34.0,66.0,3.0,0
-21.0,-41.0,235.0,-34.0,65.0,1.0,0
-23.0,-37.0,236.0,-34.0,67.0,2.0,0
-21.0,-40.0,236.0,-35.0,65.0,-1.0,0
-21.0,-40.0,237.0,-35.0,66.0,1.0,0
-22.0,-37.0,235.0,-35.0,66.0,-1.0,0
-21.0,-37.0,234.0,-35.0,66.0,1.0,0
-23.0,-37.0,236.0,-35.0,65.0,-1.0,0
-21.0,-39.0,235.0,-35.0,66.0,2.0,0
-19.0,-39.0,235.0,-35.0,65.0,-2.0,0
-22.0,-39.0,233.0,-35.0,65.0,0.0,0
-21.0,-39.0,235.0,-36.0,65.0,-1.0,0
-23.0,-42.0,239.0,-37.0,64.0,1.0,0
-20.0,-41.0,234.0,-36.0,65.0,-1.0,0
-25.0,-41.0,234.0,-34.0,65.0,0.0,0
-21.0,-39.0,236.0,-31.0,63.0,-2.0,0
-24.0,-38.0,232.0,-29.0,63.0,0.0,0
-20.0,-40.0,235.0,-26.0,63.0,-1.0,0
-17.0,-40.0,230.0,-23.0,63.0,0.0,0
-25.0,-35.0,235.0,-25.0,63.0,-2.0,0
-22.0,-39.0,237.0,-25.0,64.0,-1.0,0
-22.0,-39.0,236.0,-26.0,63.0,-3.0,0
-21.0,-39.0,236.0,-28.0,63.0,-2.0,0
-23.0,-42.0,233.0,-30.0,63.0,-4.0,0
-22.0,-39.0,232.0,-32.0,64.0,-4.0,0
-23.0,-38.0,235.0,-34.0,64.0,-5.0,0
-22.0,-39.0,237.0,-36.0,65.0,-3.0,0
-22.0,-40.0,235.0,-36.0,66.0,-4.0,0
-21.0,-40.0,237.0,-37.0,68.0,-2.0,0
-22.0,-42.0,235.0,-37.0,70.0,-2.0,0
-22.0,-40.0,232.0,-38.0,71.0,0.0,0
-20.0,-41.0,235.0,-37.0,74.0,0.0,0
-22.0,-42.0,238.0,-38.0,77.0,1.0,0
-24.0,-40.0,237.0,-37.0,82.0,1.0,0
-22.0,-41.0,234.0,-38.0,85.0,2.0,0
-22.0,-39.0,234.0,-37.0,89.0,2.0,0
-22.0,-40.0,232.0,-35.0,93.0,2.0,0
-23.0,-40.0,232.0,-36.0,96.0,2.0,0
-23.0,-39.0,234.0,-36.0,95.0,1.0,0
-25.0,-37.0,233.0,-37.0,97.0,0.0,0
-23.0,-36.0,228.0,-39.0,93.0,1.0,0
-25.0,-41.0,230.0,-39.0,89.0,-1.0,0
-24.0,-37.0,231.0,-38.0,86.0,0.0,0
-24.0,-38.0,235.0,-37.0,76.0,-2.0,0
-25.0,-40.0,234.0,-33.0,69.0,-1.0,0
-25.0,-42.0,233.0,-24.0,62.0,-2.0,0
-24.0,-40.0,231.0,-14.0,56.0,-2.0,0
-22.0,-41.0,237.0,-6.0,51.0,-3.0,0
-24.0,-41.0,235.0,7.0,50.0,-3.0,0
-23.0,-40.0,231.0,16.0,48.0,-2.0,0
-22.0,-40.0,234.0,22.0,47.0,-2.0,0
-20.0,-41.0,236.0,26.0,49.0,-3.0,0
-22.0,-38.0,232.0,28.0,50.0,-3.0,0
-21.0,-35.0,232.0,26.0,53.0,-4.0,0
-22.0,-38.0,235.0,17.0,56.0,-4.0,0
-23.0,-36.0,234.0,9.0,59.0,-4.0,0
-24.0,-38.0,233.0,-1.0,59.0,-4.0,0
-24.0,-37.0,237.0,-12.0,60.0,-4.0,0
-21.0,-40.0,236.0,-22.0,64.0,-4.0,0
-24.0,-39.0,237.0,-31.0,64.0,-5.0,0
-22.0,-38.0,236.0,-35.0,66.0,-4.0,0
-22.0,-39.0,234.0,-38.0,68.0,-5.0,0
-22.0,-37.0,235.0,-38.0,69.0,-4.0,0
-23.0,-42.0,236.0,-34.0,68.0,-3.0,0
-24.0,-42.0,232.0,-27.0,69.0,-4.0,0
-27.0,-40.0,233.0,-20.0,69.0,-4.0,0
-25.0,-39.0,237.0,-12.0,66.0,-5.0,0
-21.0,-41.0,235.0,-4.0,62.0,-4.0,0
-23.0,-42.0,235.0,0.0,62.0,-4.0,0
-22.0,-41.0,235.0,5.0,60.0,-5.0,0
-23.0,-38.0,235.0,7.0,57.0,-5.0,0
-20.0,-40.0,229.0,9.0,54.0,-6.0,0
-24.0,-40.0,238.0,8.0,53.0,-7.0,0
-22.0,-41.0,235.0,8.0,52.0,-7.0,0
-25.0,-38.0,232.0,8.0,52.0,-7.0,0
-22.0,-39.0,235.0,7.0,53.0,-5.0,0
-24.0,-37.0,236.0,8.0,51.0,-7.0,0
-21.0,-39.0,236.0,9.0,52.0,-6.0,0
-22.0,-38.0,236.0,9.0,53.0,-7.0,0
-23.0,-37.0,236.0,8.0,54.0,-7.0,0
-25.0,-39.0,234.0,9.0,53.0,-8.0,0
-25.0,-39.0,233.0,8.0,55.0,-6.0,0
-20.0,-38.0,231.0,7.0,54.0,-7.0,0
-22.0,-39.0,235.0,7.0,55.0,-8.0,0
-23.0,-36.0,236.0,6.0,54.0,-7.0,0
-22.0,-38.0,237.0,6.0,54.0,-6.0,0
-23.0,-38.0,233.0,6.0,54.0,-7.0,0
-24.0,-40.0,234.0,7.0,53.0,-6.0,0
-21.0,-40.0,238.0,4.0,55.0,-7.0,0
-22.0,-42.0,238.0,5.0,54.0,-6.0,0
-22.0,-37.0,239.0,5.0,55.0,-6.0,0
-20.0,-40.0,233.0,5.0,57.0,-6.0,0
-24.0,-36.0,235.0,5.0,59.0,-7.0,0
-21.0,-38.0,237.0,5.0,60.0,-6.0,0
-22.0,-37.0,235.0,3.0,63.0,-7.0,0
-21.0,-36.0,236.0,2.0,62.0,-5.0,0
-21.0,-37.0,233.0,0.0,65.0,-6.0,0
-22.0,-38.0,232.0,-3.0,65.0,-4.0,0
-23.0,-38.0,233.0,-5.0,66.0,-6.0,0
-23.0,-38.0,237.0,-7.0,66.0,-5.0,0
-23.0,-39.0,235.0,-7.0,63.0,-6.0,0
-23.0,-42.0,235.0,-8.0,62.0,-6.0,0
-22.0,-38.0,233.0,-6.0,61.0,-8.0,0
-23.0,-40.0,236.0,-3.0,59.0,-6.0,0
-23.0,-40.0,236.0,1.0,56.0,-8.0,0
-23.0,-40.0,237.0,7.0,53.0,-6.0,0
-22.0,-41.0,235.0,13.0,54.0,-10.0,0
-23.0,-36.0,233.0,17.0,52.0,-8.0,0
-23.0,-38.0,233.0,22.0,50.0,-11.0,0
-22.0,-37.0,233.0,23.0,49.0,-9.0,0
-22.0,-38.0,234.0,24.0,52.0,-10.0,0
-23.0,-37.0,237.0,23.0,53.0,-8.0,0
-22.0,-36.0,237.0,20.0,52.0,-9.0,0
-24.0,-36.0,235.0,18.0,54.0,-8.0,0
-24.0,-41.0,234.0,14.0,56.0,-10.0,0
-21.0,-37.0,237.0,10.0,56.0,-8.0,0
-22.0,-37.0,234.0,6.0,57.0,-9.0,0
-20.0,-37.0,235.0,2.0,59.0,-6.0,0
-22.0,-38.0,240.0,2.0,62.0,-9.0,0
-24.0,-40.0,234.0,1.0,61.0,-7.0,0
-22.0,-37.0,235.0,-1.0,61.0,-7.0,0
-23.0,-38.0,234.0,0.0,62.0,-6.0,0
-23.0,-38.0,234.0,0.0,63.0,-8.0,0
-21.0,-36.0,236.0,1.0,63.0,-6.0,0
-24.0,-34.0,233.0,2.0,62.0,-7.0,0
-23.0,-37.0,231.0,2.0,62.0,-6.0,0
-21.0,-37.0,232.0,3.0,61.0,-9.0,0
-21.0,-39.0,235.0,3.0,60.0,-5.0,0
-23.0,-36.0,233.0,2.0,59.0,-7.0,0
-21.0,-36.0,233.0,2.0,58.0,-5.0,0
-19.0,-37.0,238.0,1.0,57.0,-7.0,0
-22.0,-38.0,233.0,1.0,55.0,-6.0,0
-23.0,-35.0,233.0,2.0,55.0,-8.0,0
-21.0,-40.0,233.0,4.0,55.0,-6.0,0
-19.0,-41.0,235.0,4.0,56.0,-8.0,0
-20.0,-37.0,233.0,6.0,55.0,-5.0,0
-22.0,-37.0,234.0,9.0,54.0,-7.0,0
-21.0,-40.0,237.0,11.0,54.0,-4.0,0
-22.0,-36.0,237.0,10.0,54.0,-8.0,0
-23.0,-38.0,236.0,9.0,53.0,-6.0,0
-22.0,-39.0,237.0,10.0,54.0,-7.0,0
-22.0,-35.0,236.0,9.0,55.0,-5.0,0
-22.0,-38.0,235.0,9.0,55.0,-7.0,0
-21.0,-38.0,233.0,8.0,55.0,-7.0,0
-21.0,-41.0,238.0,7.0,53.0,-7.0,0
-22.0,-39.0,235.0,6.0,53.0,-6.0,0
-21.0,-37.0,232.0,7.0,54.0,-7.0,0
-25.0,-36.0,236.0,6.0,53.0,-6.0,0
-21.0,-37.0,233.0,4.0,55.0,-8.0,0
-22.0,-37.0,232.0,4.0,54.0,-6.0,0
-22.0,-37.0,238.0,3.0,55.0,-8.0,0
-21.0,-38.0,232.0,2.0,56.0,-6.0,0
-22.0,-36.0,237.0,4.0,56.0,-8.0,0
-21.0,-36.0,235.0,6.0,55.0,-5.0,0
-21.0,-37.0,235.0,6.0,56.0,-6.0,0
-23.0,-37.0,235.0,7.0,55.0,-5.0,0
-21.0,-37.0,234.0,10.0,56.0,-6.0,0
-19.0,-36.0,234.0,9.0,57.0,-4.0,0
-22.0,-37.0,235.0,10.0,56.0,-8.0,0
-21.0,-36.0,237.0,10.0,56.0,-4.0,0
-20.0,-36.0,241.0,9.0,57.0,-7.0,0
-22.0,-35.0,238.0,8.0,57.0,-4.0,0
-22.0,-34.0,237.0,5.0,57.0,-8.0,0
-23.0,-36.0,236.0,4.0,56.0,-5.0,0
-23.0,-37.0,236.0,4.0,56.0,-11.0,0
-22.0,-38.0,231.0,0.0,57.0,-7.0,0
-22.0,-37.0,236.0,-3.0,58.0,-8.0,0
-21.0,-38.0,234.0,-6.0,59.0,-7.0,0
-21.0,-36.0,237.0,-9.0,60.0,-9.0,0
-21.0,-35.0,236.0,-13.0,61.0,-5.0,0
-22.0,-37.0,234.0,-17.0,65.0,-7.0,0
-24.0,-37.0,236.0,-20.0,68.0,-3.0,0
-22.0,-38.0,235.0,-21.0,72.0,-5.0,0
-20.0,-39.0,236.0,-23.0,75.0,-2.0,0
-23.0,-36.0,234.0,-22.0,80.0,-4.0,0
-20.0,-37.0,234.0,-23.0,83.0,-1.0,0
-20.0,-36.0,238.0,-23.0,86.0,-4.0,0
-22.0,-36.0,235.0,-23.0,89.0,-2.0,0
-23.0,-37.0,233.0,-22.0,89.0,-3.0,0
-23.0,-38.0,234.0,-24.0,89.0,-1.0,0
-19.0,-38.0,234.0,-25.0,87.0,-4.0,0
-27.0,-38.0,234.0,-24.0,82.0,-3.0,0
-24.0,-36.0,235.0,-21.0,76.0,-5.0,0
-24.0,-39.0,237.0,-19.0,70.0,-4.0,0
-22.0,-37.0,238.0,-14.0,63.0,-7.0,0
-23.0,-36.0,234.0,-9.0,56.0,-4.0,0
-23.0,-37.0,238.0,-3.0,51.0,-5.0,0
-25.0,-35.0,237.0,6.0,46.0,-4.0,0
-23.0,-37.0,239.0,14.0,44.0,-5.0,0
-23.0,-35.0,233.0,18.0,43.0,-3.0,0
-25.0,-36.0,237.0,23.0,44.0,-5.0,0
-24.0,-39.0,234.0,27.0,45.0,-4.0,0
-20.0,-35.0,233.0,27.0,47.0,-5.0,0
-20.0,-36.0,234.0,25.0,49.0,-3.0,0
-24.0,-34.0,234.0,19.0,51.0,-4.0,0
-21.0,-36.0,237.0,12.0,53.0,-1.0,0
-20.0,-33.0,237.0,3.0,55.0,-4.0,0
-21.0,-37.0,236.0,-8.0,57.0,-2.0,0
-22.0,-36.0,233.0,-16.0,60.0,-5.0,0
-22.0,-35.0,235.0,-23.0,61.0,-2.0,0
-22.0,-36.0,237.0,-27.0,63.0,-4.0,0
-22.0,-36.0,235.0,-31.0,64.0,-3.0,0
-23.0,-36.0,236.0,-32.0,64.0,-5.0,0
-20.0,-38.0,234.0,-31.0,65.0,-4.0,0
-21.0,-39.0,236.0,-26.0,64.0,-6.0,0
-22.0,-37.0,234.0,-22.0,64.0,-4.0,0
-24.0,-38.0,234.0,-17.0,62.0,-6.0,0
-20.0,-37.0,235.0,-12.0,60.0,-4.0,0
-20.0,-38.0,238.0,-5.0,57.0,-5.0,0
-19.0,-38.0,233.0,1.0,54.0,-5.0,0
-21.0,-36.0,236.0,7.0,54.0,-7.0,0
-22.0,-37.0,235.0,12.0,53.0,-5.0,0
-22.0,-36.0,235.0,13.0,52.0,-7.0,0
-23.0,-36.0,237.0,14.0,51.0,-5.0,0
-23.0,-36.0,233.0,15.0,51.0,-7.0,0
-19.0,-37.0,233.0,14.0,51.0,-5.0,0
-24.0,-36.0,237.0,12.0,51.0,-7.0,0
-22.0,-34.0,235.0,10.0,53.0,-6.0,0
-22.0,-37.0,235.0,9.0,54.0,-7.0,0
-22.0,-34.0,235.0,7.0,53.0,-5.0,0
-23.0,-34.0,238.0,5.0,55.0,-6.0,0
-21.0,-38.0,237.0,3.0,54.0,-6.0,0
-21.0,-35.0,235.0,2.0,55.0,-7.0,0
-21.0,-34.0,234.0,2.0,54.0,-5.0,0
-21.0,-37.0,233.0,2.0,53.0,-5.0,0
-22.0,-36.0,232.0,3.0,53.0,-4.0,0
-22.0,-34.0,238.0,3.0,53.0,-6.0,0
-23.0,-32.0,232.0,2.0,53.0,-5.0,0
-20.0,-35.0,234.0,4.0,52.0,-6.0,0
-21.0,-37.0,237.0,4.0,51.0,-5.0,0
-18.0,-36.0,236.0,4.0,54.0,-5.0,0
-20.0,-34.0,234.0,4.0,53.0,-4.0,0
-20.0,-32.0,236.0,3.0,56.0,-5.0,0
-21.0,-33.0,235.0,1.0,57.0,-5.0,0
-21.0,-36.0,240.0,-1.0,61.0,-6.0,0
-22.0,-33.0,235.0,-2.0,62.0,-4.0,0
-20.0,-36.0,236.0,-5.0,65.0,-5.0,0
-23.0,-36.0,232.0,-8.0,65.0,-5.0,0
-20.0,-33.0,237.0,-9.0,65.0,-6.0,0
-22.0,-32.0,232.0,-11.0,66.0,-4.0,0
-22.0,-36.0,238.0,-12.0,66.0,-5.0,0
-21.0,-36.0,241.0,-13.0,64.0,-5.0,0
-20.0,-37.0,236.0,-14.0,63.0,-5.0,0
-22.0,-35.0,236.0,-12.0,60.0,-4.0,0
-22.0,-36.0,238.0,-12.0,58.0,-5.0,0
-20.0,-36.0,233.0,-9.0,56.0,-6.0,0
-22.0,-35.0,234.0,-4.0,55.0,-5.0,0
-20.0,-35.0,240.0,-1.0,53.0,-4.0,0
-22.0,-36.0,237.0,4.0,52.0,-5.0,0
-21.0,-36.0,231.0,9.0,51.0,-5.0,0
-22.0,-35.0,235.0,12.0,53.0,-5.0,0
-22.0,-34.0,235.0,13.0,54.0,-6.0,0
-21.0,-35.0,236.0,14.0,55.0,-6.0,0
-22.0,-33.0,238.0,12.0,56.0,-6.0,0
-23.0,-34.0,239.0,11.0,57.0,-6.0,0
-22.0,-36.0,236.0,8.0,58.0,-6.0,0
-24.0,-34.0,240.0,6.0,59.0,-6.0,0
-20.0,-32.0,241.0,2.0,59.0,-5.0,0
-23.0,-35.0,238.0,-1.0,60.0,-4.0,0
-19.0,-36.0,236.0,-6.0,60.0,-6.0,0
-22.0,-33.0,234.0,-8.0,61.0,-4.0,0
-23.0,-36.0,235.0,-9.0,62.0,-5.0,0
-18.0,-34.0,239.0,-11.0,62.0,-5.0,0
-17.0,-35.0,238.0,-11.0,62.0,-5.0,0
-23.0,-33.0,233.0,-9.0,62.0,-5.0,0
-21.0,-35.0,236.0,-8.0,62.0,-5.0,0
-22.0,-33.0,234.0,-9.0,61.0,-5.0,0
-21.0,-35.0,236.0,-7.0,60.0,-5.0,0
-24.0,-33.0,235.0,-7.0,59.0,-5.0,0
-22.0,-34.0,235.0,-7.0,57.0,-6.0,0
-21.0,-36.0,232.0,-6.0,58.0,-4.0,0
-21.0,-37.0,235.0,-7.0,58.0,-6.0,0
-22.0,-36.0,231.0,-7.0,57.0,-4.0,0
-20.0,-33.0,236.0,-6.0,56.0,-6.0,0
-23.0,-33.0,236.0,-6.0,56.0,-5.0,0
-23.0,-35.0,236.0,-6.0,56.0,-6.0,0
-21.0,-33.0,235.0,-3.0,56.0,-5.0,0
-20.0,-36.0,237.0,-4.0,56.0,-5.0,0
-21.0,-36.0,236.0,-2.0,57.0,-4.0,0
-22.0,-36.0,236.0,0.0,57.0,-5.0,0
-23.0,-36.0,240.0,1.0,56.0,-4.0,0
-21.0,-39.0,230.0,2.0,58.0,-6.0,0
-29.0,-29.0,220.0,4.0,57.0,-2.0,0
-22.0,-20.0,242.0,7.0,58.0,-3.0,0
-26.0,-33.0,232.0,8.0,56.0,-1.0,0
-20.0,-31.0,256.0,9.0,57.0,0.0,0
-28.0,-39.0,242.0,8.0,56.0,1.0,0
-23.0,-40.0,243.0,8.0,55.0,4.0,0
-24.0,-32.0,240.0,4.0,53.0,6.0,0
-20.0,-39.0,240.0,0.0,49.0,8.0,0
-24.0,-32.0,238.0,-4.0,47.0,11.0,0
-24.0,-35.0,237.0,-8.0,46.0,11.0,0
-26.0,-32.0,237.0,-15.0,44.0,15.0,0
-25.0,-35.0,235.0,-24.0,42.0,14.0,0
-22.0,-37.0,235.0,-33.0,42.0,18.0,0
-25.0,-34.0,231.0,-41.0,43.0,17.0,0
-23.0,-33.0,232.0,-51.0,41.0,20.0,0
-24.0,-37.0,235.0,-60.0,41.0,19.0,0
-26.0,-36.0,236.0,-70.0,38.0,23.0,0
-23.0,-39.0,236.0,-75.0,37.0,23.0,0
-24.0,-37.0,232.0,-81.0,35.0,28.0,0
-26.0,-37.0,237.0,-84.0,33.0,29.0,0
-28.0,-36.0,242.0,-82.0,31.0,34.0,0
-29.0,-34.0,236.0,-78.0,29.0,35.0,0
-28.0,-35.0,243.0,-72.0,28.0,38.0,0
-26.0,-39.0,242.0,-64.0,25.0,38.0,0
-26.0,-37.0,247.0,-58.0,23.0,42.0,0
-27.0,-37.0,241.0,-54.0,23.0,40.0,0
-25.0,-35.0,240.0,-52.0,27.0,41.0,0
-23.0,-35.0,240.0,-57.0,33.0,37.0,0
-19.0,-35.0,237.0,-65.0,44.0,40.0,0
-19.0,-37.0,233.0,-73.0,57.0,35.0,0
-16.0,-38.0,236.0,-84.0,75.0,34.0,0
-20.0,-36.0,230.0,-97.0,92.0,25.0,0
-20.0,-37.0,228.0,-111.0,109.0,22.0,0
-22.0,-36.0,230.0,-122.0,123.0,17.0,0
-23.0,-36.0,234.0,-130.0,132.0,16.0,0
-28.0,-34.0,227.0,-137.0,138.0,12.0,0
-25.0,-35.0,224.0,-146.0,143.0,13.0,0
-27.0,-34.0,222.0,-154.0,150.0,11.0,0
-29.0,-32.0,221.0,-166.0,160.0,13.0,0
-29.0,-32.0,221.0,-183.0,170.0,10.0,0
-24.0,-35.0,218.0,-197.0,181.0,11.0,0
-25.0,-32.0,219.0,-214.0,191.0,8.0,0
-23.0,-35.0,225.0,-229.0,202.0,8.0,0
-23.0,-36.0,225.0,-242.0,212.0,3.0,0
-19.0,-34.0,225.0,-256.0,218.0,4.0,0
-17.0,-39.0,229.0,-266.0,224.0,-1.0,0
-13.0,-35.0,233.0,-273.0,228.0,-1.0,0
-14.0,-39.0,234.0,-276.0,230.0,-7.0,0
-12.0,-38.0,238.0,-275.0,231.0,-7.0,0
-10.0,-39.0,245.0,-265.0,231.0,-12.0,0
-12.0,-40.0,250.0,-250.0,229.0,-13.0,0
-11.0,-37.0,255.0,-230.0,226.0,-18.0,0
-8.0,-40.0,252.0,-207.0,222.0,-17.0,0
-7.0,-38.0,251.0,-179.0,219.0,-22.0,0
-8.0,-37.0,251.0,-154.0,214.0,-22.0,0
-10.0,-37.0,250.0,-136.0,207.0,-26.0,0
-10.0,-37.0,248.0,-124.0,198.0,-25.0,0
-11.0,-36.0,244.0,-118.0,186.0,-28.0,0
-12.0,-37.0,243.0,-123.0,169.0,-26.0,0
-12.0,-39.0,241.0,-135.0,153.0,-29.0,0
-12.0,-39.0,237.0,-151.0,136.0,-25.0,0
-18.0,-39.0,233.0,-171.0,118.0,-26.0,0
-19.0,-38.0,238.0,-195.0,100.0,-22.0,0
-16.0,-44.0,237.0,-220.0,78.0,-22.0,0
-23.0,-44.0,233.0,-247.0,61.0,-16.0,0
-27.0,-48.0,232.0,-270.0,43.0,-14.0,0
-30.0,-49.0,233.0,-290.0,31.0,-5.0,0
-35.0,-54.0,234.0,-305.0,20.0,-1.0,0
-37.0,-57.0,238.0,-314.0,13.0,10.0,0
-36.0,-62.0,233.0,-309.0,5.0,16.0,0
-41.0,-60.0,231.0,-293.0,-1.0,27.0,0
-44.0,-62.0,236.0,-271.0,-6.0,32.0,0
-49.0,-59.0,230.0,-246.0,-10.0,42.0,0
-47.0,-63.0,227.0,-221.0,-18.0,47.0,0
-49.0,-62.0,225.0,-201.0,-27.0,56.0,0
-48.0,-61.0,227.0,-188.0,-37.0,58.0,0
-48.0,-59.0,223.0,-183.0,-48.0,64.0,0
-46.0,-59.0,224.0,-185.0,-60.0,63.0,0
-48.0,-59.0,225.0,-195.0,-73.0,63.0,0
-44.0,-59.0,225.0,-208.0,-88.0,57.0,0
-43.0,-56.0,235.0,-214.0,-99.0,54.0,0
-44.0,-57.0,233.0,-218.0,-105.0,43.0,0
-42.0,-58.0,240.0,-218.0,-108.0,34.0,0
-41.0,-57.0,237.0,-215.0,-111.0,22.0,0
-39.0,-54.0,239.0,-206.0,-111.0,14.0,0
-36.0,-53.0,237.0,-197.0,-113.0,5.0,0
-34.0,-53.0,237.0,-189.0,-111.0,0.0,0
-32.0,-51.0,235.0,-177.0,-111.0,-6.0,0
-28.0,-48.0,232.0,-170.0,-106.0,-9.0,0
-22.0,-47.0,233.0,-164.0,-98.0,-15.0,0
-19.0,-45.0,227.0,-161.0,-88.0,-16.0,0
-16.0,-45.0,229.0,-158.0,-77.0,-19.0,0
-12.0,-42.0,231.0,-158.0,-67.0,-18.0,0
-12.0,-43.0,231.0,-151.0,-57.0,-22.0,0
-12.0,-39.0,232.0,-143.0,-47.0,-21.0,0
-11.0,-43.0,233.0,-128.0,-41.0,-23.0,0
-10.0,-40.0,226.0,-113.0,-34.0,-22.0,0
-9.0,-39.0,229.0,-98.0,-26.0,-18.0,0
-5.0,-44.0,230.0,-88.0,-14.0,-13.0,0
-2.0,-41.0,225.0,-83.0,7.0,-13.0,0
-1.0,-46.0,223.0,-88.0,29.0,-15.0,0
-2.0,-46.0,220.0,-99.0,56.0,-16.0,0
0.0,-48.0,217.0,-118.0,89.0,-19.0,0
0.0,-55.0,223.0,-141.0,125.0,-26.0,0
-2.0,-57.0,219.0,-170.0,161.0,-29.0,0
-5.0,-58.0,223.0,-197.0,196.0,-35.0,0
-7.0,-64.0,228.0,-227.0,228.0,-38.0,0
-10.0,-61.0,223.0,-251.0,255.0,-42.0,0
-10.0,-66.0,226.0,-273.0,276.0,-40.0,0
-9.0,-68.0,232.0,-287.0,296.0,-41.0,0
-10.0,-67.0,234.0,-293.0,308.0,-36.0,0
-10.0,-67.0,234.0,-285.0,317.0,-32.0,0
-9.0,-68.0,237.0,-272.0,323.0,-25.0,0
-4.0,-64.0,231.0,-247.0,334.0,-23.0,0
-4.0,-63.0,237.0,-217.0,347.0,-22.0,0
-1.0,-59.0,238.0,-189.0,368.0,-24.0,0
3.0,-58.0,238.0,-164.0,393.0,-24.0,0
5.0,-57.0,236.0,-147.0,420.0,-28.0,0
3.0,-52.0,237.0,-140.0,447.0,-32.0,0
3.0,-50.0,237.0,-141.0,472.0,-37.0,0
-1.0,-47.0,238.0,-152.0,496.0,-37.0,0
-3.0,-49.0,237.0,-163.0,512.0,-37.0,0
-4.0,-48.0,239.0,-173.0,521.0,-36.0,0
-9.0,-45.0,238.0,-185.0,522.0,-34.0,0
-12.0,-48.0,236.0,-197.0,520.0,-31.0,0
-19.0,-48.0,232.0,-212.0,512.0,-28.0,0
-23.0,-49.0,231.0,-227.0,503.0,-22.0,0
-26.0,-51.0,228.0,-247.0,490.0,-20.0,0
-27.0,-53.0,226.0,-268.0,478.0,-13.0,0
-30.0,-54.0,226.0,-290.0,468.0,-6.0,0
-31.0,-57.0,228.0,-318.0,459.0,-2.0,0
-33.0,-60.0,221.0,-337.0,453.0,0.0,0
-35.0,-66.0,224.0,-354.0,450.0,0.0,0
-33.0,-69.0,217.0,-363.0,448.0,-3.0,0
-33.0,-71.0,225.0,-366.0,449.0,-7.0,0
-33.0,-75.0,222.0,-360.0,449.0,-14.0,0
-32.0,-77.0,224.0,-343.0,452.0,-22.0,0
-32.0,-82.0,226.0,-314.0,456.0,-34.0,0
-33.0,-82.0,225.0,-277.0,459.0,-46.0,0
-33.0,-84.0,233.0,-233.0,463.0,-62.0,0
-37.0,-85.0,227.0,-183.0,467.0,-79.0,0
-38.0,-82.0,224.0,-120.0,473.0,-93.0,0
-36.0,-84.0,225.0,-67.0,477.0,-105.0,0
-39.0,-81.0,227.0,-26.0,479.0,-114.0,0
-41.0,-79.0,227.0,7.0,483.0,-121.0,0
-37.0,-79.0,229.0,26.0,485.0,-127.0,0
-37.0,-79.0,222.0,35.0,488.0,-132.0,0
-39.0,-75.0,222.0,33.0,493.0,-138.0,0
-38.0,-75.0,220.0,23.0,498.0,-141.0,0
-47.0,-68.0,223.0,6.0,509.0,-142.0,0
-43.0,-70.0,222.0,-14.0,524.0,-143.0,0
-46.0,-73.0,220.0,-41.0,538.0,-138.0,0
-47.0,-72.0,222.0,-67.0,553.0,-133.0,0
-45.0,-70.0,223.0,-96.0,568.0,-126.0,0
-48.0,-71.0,222.0,-126.0,584.0,-118.0,0
-47.0,-73.0,221.0,-152.0,597.0,-109.0,0
-46.0,-76.0,224.0,-171.0,609.0,-101.0,0
-43.0,-77.0,221.0,-181.0,619.0,-92.0,0
-42.0,-82.0,219.0,-185.0,627.0,-85.0,0
-40.0,-83.0,223.0,-181.0,634.0,-80.0,0
-42.0,-84.0,216.0,-176.0,642.0,-74.0,0
-43.0,-91.0,220.0,-166.0,655.0,-67.0,0
-46.0,-87.0,214.0,-156.0,667.0,-63.0,0
-42.0,-90.0,218.0,-140.0,676.0,-59.0,0
-47.0,-92.0,216.0,-122.0,684.0,-56.0,0
-51.0,-93.0,216.0,-96.0,686.0,-52.0,0
-54.0,-88.0,221.0,-67.0,685.0,-52.0,0
-58.0,-90.0,220.0,-34.0,678.0,-49.0,0
-62.0,-89.0,218.0,2.0,670.0,-50.0,0
-65.0,-87.0,220.0,35.0,658.0,-48.0,0
-69.0,-88.0,219.0,67.0,645.0,-48.0,0
-73.0,-81.0,217.0,91.0,631.0,-46.0,0
-74.0,-84.0,213.0,108.0,621.0,-44.0,0
-76.0,-80.0,217.0,113.0,613.0,-39.0,0
-78.0,-76.0,210.0,111.0,609.0,-36.0,0
-79.0,-77.0,209.0,102.0,608.0,-28.0,0
-78.0,-78.0,212.0,92.0,606.0,-24.0,0
-78.0,-73.0,211.0,80.0,606.0,-18.0,0
-76.0,-76.0,212.0,73.0,610.0,-15.0,0
-76.0,-71.0,213.0,70.0,612.0,-11.0,0
-76.0,-70.0,213.0,72.0,611.0,-9.0,0
-75.0,-70.0,215.0,82.0,611.0,-6.0,0
-76.0,-71.0,215.0,100.0,609.0,-3.0,0
-75.0,-69.0,217.0,117.0,604.0,3.0,0
-74.0,-69.0,215.0,134.0,596.0,4.0,0
-72.0,-71.0,220.0,152.0,587.0,12.0,0
-75.0,-68.0,215.0,163.0,576.0,16.0,0
-73.0,-69.0,214.0,173.0,561.0,27.0,0
-75.0,-69.0,214.0,178.0,546.0,34.0,0
-75.0,-67.0,209.0,180.0,529.0,44.0,0
-75.0,-70.0,213.0,176.0,512.0,48.0,0
-75.0,-70.0,208.0,166.0,494.0,58.0,0
-76.0,-70.0,210.0,146.0,478.0,65.0,0
-75.0,-69.0,213.0,125.0,469.0,73.0,0
-77.0,-66.0,213.0,105.0,465.0,76.0,0
-77.0,-69.0,212.0,86.0,467.0,83.0,0
-80.0,-69.0,219.0,70.0,474.0,86.0,0
-82.0,-72.0,221.0,58.0,481.0,93.0,0
-83.0,-71.0,219.0,53.0,488.0,94.0,0
-86.0,-72.0,217.0,54.0,492.0,97.0,0
-87.0,-69.0,216.0,61.0,493.0,99.0,0
-89.0,-70.0,216.0,73.0,486.0,102.0,0
-90.0,-69.0,216.0,89.0,474.0,99.0,0
-92.0,-67.0,220.0,104.0,462.0,98.0,0
-92.0,-62.0,215.0,118.0,444.0,91.0,0
-93.0,-63.0,213.0,130.0,426.0,89.0,0
-93.0,-60.0,210.0,140.0,409.0,83.0,0
-93.0,-59.0,211.0,146.0,396.0,84.0,0
-92.0,-55.0,212.0,150.0,386.0,80.0,0
-89.0,-50.0,207.0,148.0,379.0,79.0,0
-92.0,-52.0,208.0,142.0,377.0,75.0,0
-94.0,-54.0,206.0,131.0,375.0,75.0,0
-95.0,-54.0,206.0,116.0,379.0,70.0,0
-92.0,-56.0,206.0,92.0,384.0,70.0,0
-95.0,-54.0,212.0,73.0,387.0,68.0,0
-94.0,-60.0,211.0,55.0,387.0,72.0,0
-95.0,-60.0,214.0,40.0,380.0,71.0,0
-97.0,-67.0,213.0,26.0,366.0,73.0,0
-98.0,-69.0,216.0,17.0,347.0,72.0,0
-95.0,-68.0,215.0,15.0,322.0,78.0,0
-95.0,-71.0,213.0,17.0,297.0,81.0,0
-94.0,-74.0,215.0,25.0,272.0,85.0,0
-94.0,-74.0,217.0,39.0,250.0,87.0,0
-92.0,-78.0,217.0,64.0,238.0,92.0,0
-93.0,-78.0,216.0,89.0,227.0,92.0,0
-92.0,-75.0,219.0,117.0,222.0,98.0,0
-90.0,-76.0,217.0,147.0,214.0,98.0,0
-87.0,-74.0,212.0,174.0,202.0,111.0,0
-86.0,-72.0,212.0,200.0,189.0,121.0,0
-84.0,-70.0,214.0,217.0,186.0,117.0,0
-88.0,-69.0,212.0,227.0,195.0,98.0,0
-85.0,-65.0,213.0,235.0,209.0,85.0,0
-85.0,-60.0,208.0,241.0,227.0,74.0,0
-83.0,-58.0,210.0,244.0,256.0,73.0,0
-83.0,-55.0,209.0,241.0,284.0,72.0,0
-83.0,-53.0,206.0,234.0,317.0,74.0,0
-86.0,-49.0,203.0,225.0,352.0,68.0,0
-86.0,-48.0,207.0,213.0,386.0,70.0,0
-89.0,-46.0,205.0,201.0,415.0,64.0,0
-90.0,-46.0,207.0,188.0,442.0,63.0,0
-92.0,-48.0,201.0,179.0,461.0,60.0,0
-91.0,-50.0,207.0,173.0,474.0,64.0,0
-96.0,-52.0,205.0,169.0,480.0,65.0,0
-93.0,-52.0,207.0,162.0,478.0,70.0,0
-96.0,-53.0,205.0,155.0,477.0,74.0,0
-93.0,-58.0,199.0,149.0,477.0,82.0,0
-96.0,-57.0,203.0,146.0,480.0,85.0,0
-95.0,-58.0,207.0,145.0,485.0,94.0,0
-98.0,-59.0,210.0,149.0,494.0,98.0,0
-97.0,-62.0,209.0,158.0,505.0,110.0,0
-95.0,-61.0,206.0,173.0,520.0,117.0,0
-94.0,-63.0,210.0,188.0,537.0,130.0,0
-96.0,-61.0,210.0,199.0,557.0,135.0,0
-99.0,-58.0,208.0,206.0,587.0,147.0,0
-101.0,-57.0,209.0,207.0,611.0,156.0,0
-100.0,-55.0,213.0,204.0,633.0,171.0,0
-102.0,-55.0,209.0,203.0,651.0,179.0,0
-105.0,-51.0,214.0,198.0,667.0,191.0,0
-109.0,-46.0,212.0,192.0,683.0,203.0,0
-113.0,-43.0,217.0,185.0,697.0,223.0,0
-114.0,-42.0,219.0,178.0,711.0,241.0,0
-114.0,-39.0,218.0,167.0,725.0,265.0,0
-115.0,-40.0,217.0,155.0,744.0,281.0,0
-112.0,-39.0,213.0,142.0,770.0,304.0,0
-112.0,-35.0,209.0,124.0,789.0,317.0,0
-113.0,-34.0,209.0,107.0,807.0,335.0,0
-113.0,-36.0,205.0,87.0,822.0,346.0,0
-112.0,-36.0,209.0,68.0,836.0,360.0,0
-111.0,-37.0,207.0,47.0,846.0,366.0,0
-112.0,-36.0,200.0,23.0,856.0,377.0,0
-114.0,-38.0,200.0,-4.0,867.0,381.0,0
-113.0,-41.0,200.0,-33.0,872.0,390.0,0
-115.0,-33.0,195.0,-58.0,874.0,400.0,0
-119.0,-47.0,202.0,-82.0,871.0,416.0,0
-122.0,-48.0,201.0,-106.0,865.0,429.0,0
-122.0,-53.0,197.0,-121.0,853.0,443.0,0
-127.0,-52.0,198.0,-134.0,845.0,457.0,0
-126.0,-55.0,194.0,-142.0,835.0,469.0,0
-128.0,-54.0,199.0,-143.0,827.0,477.0,0
-131.0,-55.0,195.0,-141.0,817.0,486.0,0
-134.0,-53.0,194.0,-134.0,809.0,492.0,0
-136.0,-51.0,189.0,-125.0,797.0,499.0,0
-137.0,-48.0,187.0,-114.0,784.0,501.0,0
-136.0,-49.0,185.0,-97.0,770.0,503.0,0
-135.0,-45.0,183.0,-75.0,755.0,499.0,0
-138.0,-44.0,181.0,-53.0,752.0,490.0,0
-138.0,-39.0,179.0,-30.0,755.0,482.0,0
-139.0,-36.0,179.0,-7.0,768.0,475.0,0
-138.0,-35.0,179.0,14.0,789.0,467.0,0
-140.0,-30.0,174.0,31.0,817.0,458.0,0
-139.0,-30.0,177.0,43.0,850.0,446.0,0
-140.0,-29.0,179.0,51.0,887.0,436.0,0
-140.0,-27.0,179.0,54.0,925.0,422.0,0
-141.0,-26.0,181.0,50.0,966.0,410.0,0
-144.0,-25.0,181.0,41.0,1009.0,394.0,0
-148.0,-24.0,183.0,28.0,1041.0,382.0,0
-151.0,-22.0,181.0,15.0,1068.0,368.0,0
-152.0,-23.0,181.0,2.0,1086.0,357.0,0
-154.0,-22.0,184.0,-14.0,1100.0,350.0,0
-157.0,-19.0,185.0,-30.0,1107.0,344.0,0
-160.0,-17.0,185.0,-47.0,1111.0,342.0,0
-161.0,-18.0,183.0,-64.0,1110.0,345.0,0
-162.0,-18.0,184.0,-81.0,1108.0,350.0,0
-166.0,-18.0,180.0,-97.0,1106.0,357.0,0
-165.0,-19.0,178.0,-111.0,1105.0,368.0,0
-169.0,-18.0,178.0,-132.0,1106.0,378.0,0
-167.0,-19.0,175.0,-145.0,1109.0,389.0,0
-169.0,-18.0,171.0,-153.0,1115.0,402.0,0
-170.0,-19.0,171.0,-157.0,1123.0,414.0,0
-173.0,-20.0,169.0,-155.0,1132.0,428.0,0
-175.0,-20.0,165.0,-153.0,1139.0,438.0,0
-177.0,-20.0,164.0,-153.0,1146.0,447.0,0
-178.0,-20.0,161.0,-154.0,1152.0,456.0,0
-176.0,-20.0,161.0,-158.0,1155.0,466.0,0
-182.0,-19.0,160.0,-162.0,1156.0,471.0,0
-182.0,-18.0,156.0,-168.0,1159.0,474.0,0
-183.0,-21.0,153.0,-175.0,1163.0,475.0,0
-186.0,-20.0,154.0,-180.0,1170.0,478.0,0
-189.0,-20.0,149.0,-182.0,1178.0,482.0,0
-195.0,-21.0,154.0,-181.0,1180.0,483.0,0
-200.0,-18.0,151.0,-181.0,1178.0,484.0,0
-201.0,-18.0,152.0,-181.0,1166.0,482.0,0
-203.0,-20.0,151.0,-181.0,1145.0,480.0,0
-204.0,-18.0,146.0,-186.0,1127.0,477.0,0
-204.0,-14.0,148.0,-189.0,1109.0,474.0,0
-203.0,-15.0,146.0,-187.0,1097.0,472.0,0
-202.0,-14.0,146.0,-180.0,1087.0,475.0,0
-204.0,-5.0,142.0,-173.0,1080.0,475.0,0
-205.0,-11.0,139.0,-167.0,1079.0,476.0,0
-206.0,-6.0,138.0,-163.0,1082.0,478.0,0
-205.0,-5.0,136.0,-162.0,1087.0,483.0,0
-209.0,-3.0,128.0,-167.0,1094.0,487.0,0
-207.0,-4.0,131.0,-178.0,1102.0,489.0,0
-206.0,-3.0,127.0,-195.0,1111.0,488.0,0
-211.0,-3.0,129.0,-218.0,1125.0,487.0,0
-211.0,0.0,126.0,-249.0,1135.0,483.0,0
-214.0,-3.0,123.0,-273.0,1148.0,482.0,0
-211.0,-3.0,122.0,-297.0,1158.0,481.0,0
-211.0,-4.0,124.0,-319.0,1172.0,482.0,0
-211.0,-4.0,123.0,-339.0,1187.0,480.0,0
-212.0,-5.0,122.0,-353.0,1196.0,482.0,0
-211.0,-9.0,118.0,-366.0,1204.0,484.0,0
-210.0,-12.0,115.0,-380.0,1215.0,485.0,0
-212.0,-13.0,115.0,-393.0,1224.0,489.0,0
-213.0,-16.0,110.0,-400.0,1234.0,499.0,0
-210.0,-17.0,106.0,-401.0,1241.0,509.0,0
-215.0,-17.0,109.0,-395.0,1246.0,520.0,0
-213.0,-18.0,105.0,-389.0,1249.0,529.0,0
-218.0,-16.0,102.0,-380.0,1251.0,541.0,0
-217.0,-15.0,100.0,-371.0,1255.0,551.0,0
-214.0,-15.0,95.0,-360.0,1260.0,565.0,0
-217.0,-11.0,89.0,-350.0,1268.0,575.0,0
-218.0,-11.0,92.0,-338.0,1285.0,592.0,0
-217.0,-7.0,90.0,-323.0,1303.0,607.0,0
-217.0,-7.0,88.0,-307.0,1327.0,620.0,0
-222.0,-3.0,85.0,-288.0,1352.0,629.0,0
-223.0,-4.0,83.0,-274.0,1378.0,645.0,0
-223.0,-4.0,80.0,-261.0,1402.0,652.0,0
-226.0,-4.0,83.0,-247.0,1421.0,662.0,0
-228.0,-4.0,87.0,-229.0,1434.0,665.0,0
-234.0,-3.0,76.0,-212.0,1443.0,671.0,0
-234.0,-4.0,74.0,-208.0,1447.0,679.0,0
-235.0,-3.0,75.0,-213.0,1449.0,691.0,0
-236.0,-3.0,72.0,-221.0,1449.0,701.0,0
-236.0,-4.0,68.0,-226.0,1447.0,714.0,0
-235.0,-3.0,70.0,-230.0,1444.0,719.0,0
-239.0,0.0,67.0,-228.0,1444.0,729.0,0
-238.0,0.0,64.0,-224.0,1447.0,734.0,0
-233.0,-1.0,63.0,-225.0,1453.0,736.0,0
-237.0,2.0,64.0,-230.0,1463.0,732.0,0
-238.0,2.0,62.0,-234.0,1477.0,734.0,0
-240.0,2.0,59.0,-243.0,1488.0,733.0,0
-243.0,1.0,61.0,-246.0,1493.0,737.0,0
-238.0,0.0,54.0,-243.0,1495.0,739.0,0
-240.0,3.0,55.0,-236.0,1498.0,742.0,0
-242.0,4.0,47.0,-217.0,1503.0,741.0,0
-241.0,7.0,44.0,-197.0,1509.0,744.0,0
-243.0,7.0,40.0,-174.0,1514.0,746.0,0
-243.0,13.0,41.0,-151.0,1518.0,757.0,0
-245.0,13.0,37.0,-136.0,1521.0,762.0,0
-242.0,13.0,30.0,-125.0,1525.0,775.0,0
-245.0,19.0,33.0,-123.0,1532.0,786.0,0
-245.0,19.0,33.0,-122.0,1544.0,802.0,0
-240.0,20.0,28.0,-120.0,1557.0,813.0,0
-242.0,21.0,37.0,-119.0,1574.0,832.0,0
-241.0,21.0,33.0,-114.0,1601.0,842.0,0
-242.0,25.0,35.0,-108.0,1626.0,854.0,0
-237.0,24.0,35.0,-103.0,1653.0,859.0,0
-237.0,28.0,34.0,-98.0,1679.0,862.0,0
-238.0,28.0,33.0,-92.0,1706.0,857.0,0
-240.0,32.0,35.0,-89.0,1728.0,848.0,0
-238.0,36.0,34.0,-91.0,1743.0,829.0,0
-234.0,37.0,27.0,-95.0,1747.0,809.0,0
-254.0,45.0,33.0,-110.0,1748.0,777.0,0
-260.0,47.0,34.0,-119.0,1749.0,769.0,0
-258.0,47.0,21.0,-117.0,1720.0,769.0,0
-261.0,53.0,14.0,-150.0,1681.0,765.0,0
-263.0,53.0,9.0,-201.0,1640.0,748.0,0
-266.0,58.0,8.0,-253.0,1593.0,734.0,0
-268.0,59.0,5.0,-302.0,1544.0,713.0,0
-270.0,61.0,0.0,-350.0,1492.0,703.0,0
-275.0,59.0,-7.0,-398.0,1434.0,691.0,0
-275.0,60.0,-6.0,-442.0,1374.0,689.0,0
-273.0,56.0,-16.0,-482.0,1316.0,682.0,0
-269.0,53.0,-22.0,-518.0,1269.0,680.0,0
-279.0,45.0,-28.0,-553.0,1236.0,662.0,0
-281.0,46.0,-30.0,-585.0,1218.0,652.0,0
-286.0,44.0,-28.0,-587.0,1201.0,641.0,0
-283.0,43.0,-30.0,-564.0,1186.0,644.0,0
-278.0,39.0,-34.0,-523.0,1181.0,651.0,0
-279.0,38.0,-40.0,-468.0,1188.0,666.0,0
-282.0,37.0,-40.0,-407.0,1204.0,675.0,0
-280.0,38.0,-38.0,-341.0,1224.0,684.0,0
-282.0,41.0,-37.0,-277.0,1246.0,675.0,0
-284.0,47.0,-37.0,-216.0,1261.0,661.0,0
-285.0,48.0,-38.0,-168.0,1263.0,631.0,0
-285.0,55.0,-35.0,-132.0,1251.0,601.0,0
-287.0,63.0,-37.0,-115.0,1226.0,567.0,0
-284.0,68.0,-39.0,-103.0,1198.0,538.0,0
-282.0,71.0,-40.0,-101.0,1168.0,512.0,0
-282.0,79.0,-40.0,-106.0,1138.0,491.0,0
-280.0,81.0,-42.0,-114.0,1109.0,465.0,0
-279.0,83.0,-49.0,-128.0,1079.0,440.0,0
-277.0,85.0,-48.0,-146.0,1049.0,408.0,0
-276.0,86.0,-51.0,-167.0,1019.0,380.0,0
-273.0,85.0,-53.0,-191.0,979.0,341.0,0
-272.0,88.0,-56.0,-218.0,949.0,313.0,0
-269.0,86.0,-59.0,-240.0,926.0,284.0,0
-267.0,84.0,-69.0,-264.0,911.0,263.0,0
-264.0,86.0,-70.0,-285.0,904.0,241.0,0
-262.0,85.0,-79.0,-304.0,908.0,226.0,0
-263.0,86.0,-82.0,-320.0,920.0,214.0,0
-257.0,83.0,-90.0,-335.0,941.0,208.0,0
-256.0,83.0,-94.0,-348.0,970.0,200.0,0
-256.0,83.0,-90.0,-356.0,996.0,197.0,0
-256.0,80.0,-91.0,-357.0,1017.0,191.0,0
-256.0,83.0,-95.0,-350.0,1027.0,190.0,0
-257.0,83.0,-89.0,-335.0,1030.0,191.0,0
-258.0,82.0,-88.0,-314.0,1020.0,193.0,0
-253.0,75.0,-84.0,-289.0,999.0,193.0,0
-253.0,78.0,-84.0,-265.0,969.0,195.0,0
-252.0,77.0,-80.0,-246.0,930.0,189.0,0
-250.0,73.0,-80.0,-231.0,887.0,183.0,0
-246.0,67.0,-83.0,-224.0,845.0,172.0,0
-247.0,69.0,-75.0,-231.0,799.0,164.0,0
-247.0,67.0,-77.0,-244.0,741.0,151.0,0
-244.0,64.0,-74.0,-268.0,694.0,144.0,0
-242.0,62.0,-73.0,-285.0,651.0,137.0,0
-241.0,59.0,-72.0,-291.0,612.0,137.0,0
-241.0,58.0,-68.0,-293.0,574.0,132.0,0
-236.0,54.0,-66.0,-287.0,535.0,127.0,0
-236.0,54.0,-66.0,-275.0,494.0,122.0,0
-236.0,51.0,-70.0,-262.0,455.0,123.0,0
-233.0,48.0,-69.0,-250.0,417.0,118.0,0
-237.0,51.0,-68.0,-243.0,378.0,114.0,0
-236.0,49.0,-69.0,-241.0,331.0,102.0,0
-235.0,52.0,-73.0,-237.0,294.0,90.0,0
-238.0,47.0,-65.0,-234.0,261.0,77.0,0
-239.0,45.0,-71.0,-227.0,224.0,62.0,0
-239.0,45.0,-67.0,-221.0,186.0,41.0,0
-240.0,46.0,-67.0,-211.0,144.0,20.0,0
-240.0,46.0,-67.0,-199.0,102.0,-10.0,0
-246.0,44.0,-69.0,-190.0,58.0,-45.0,0
-245.0,43.0,-70.0,-180.0,14.0,-85.0,0
-245.0,41.0,-77.0,-167.0,-25.0,-127.0,0
-242.0,42.0,-75.0,-150.0,-60.0,-181.0,0
-242.0,40.0,-80.0,-122.0,-86.0,-228.0,0
-247.0,44.0,-81.0,-85.0,-100.0,-275.0,0
-248.0,43.0,-81.0,-39.0,-112.0,-320.0,0
-253.0,44.0,-82.0,18.0,-130.0,-363.0,0
-260.0,49.0,-88.0,81.0,-156.0,-406.0,0
-259.0,53.0,-89.0,144.0,-195.0,-446.0,0
-268.0,57.0,-92.0,203.0,-244.0,-482.0,0
-273.0,61.0,-96.0,249.0,-302.0,-518.0,0
-275.0,63.0,-101.0,281.0,-367.0,-546.0,0
-277.0,66.0,-103.0,302.0,-428.0,-570.0,0
-287.0,68.0,-99.0,309.0,-499.0,-583.0,0
-291.0,67.0,-103.0,306.0,-551.0,-584.0,0
-298.0,66.0,-101.0,302.0,-596.0,-575.0,0
-303.0,70.0,-100.0,297.0,-632.0,-558.0,0
-308.0,65.0,-101.0,297.0,-663.0,-531.0,0
-312.0,66.0,-95.0,301.0,-684.0,-497.0,0
-311.0,64.0,-93.0,312.0,-692.0,-455.0,0
-312.0,64.0,-87.0,328.0,-691.0,-411.0,0
-310.0,63.0,-83.0,349.0,-681.0,-369.0,0
-302.0,60.0,-81.0,371.0,-661.0,-331.0,0
-293.0,59.0,-77.0,395.0,-623.0,-294.0,0
-284.0,60.0,-71.0,413.0,-582.0,-270.0,0
-273.0,60.0,-68.0,424.0,-534.0,-255.0,0
-268.0,56.0,-62.0,429.0,-481.0,-245.0,0
-260.0,59.0,-56.0,428.0,-424.0,-242.0,0
-253.0,55.0,-53.0,416.0,-370.0,-241.0,0
-244.0,55.0,-47.0,403.0,-319.0,-245.0,0
-235.0,53.0,-44.0,386.0,-275.0,-250.0,0
-230.0,54.0,-40.0,365.0,-235.0,-257.0,0
-228.0,55.0,-33.0,343.0,-201.0,-261.0,0
-223.0,51.0,-30.0,315.0,-166.0,-264.0,0
-220.0,53.0,-29.0,275.0,-146.0,-258.0,0
-220.0,47.0,-25.0,240.0,-133.0,-249.0,0
-217.0,48.0,-25.0,204.0,-127.0,-233.0,0
-217.0,48.0,-24.0,172.0,-126.0,-213.0,0
-219.0,49.0,-25.0,147.0,-135.0,-187.0,0
-218.0,47.0,-23.0,124.0,-151.0,-162.0,0
-221.0,45.0,-24.0,104.0,-171.0,-133.0,0
-221.0,47.0,-26.0,84.0,-195.0,-103.0,0
-226.0,48.0,-25.0,66.0,-222.0,-71.0,0
-227.0,45.0,-30.0,52.0,-258.0,-35.0,0
-227.0,44.0,-28.0,35.0,-284.0,-6.0,0
-233.0,49.0,-33.0,22.0,-312.0,16.0,0
-235.0,46.0,-30.0,13.0,-332.0,40.0,0
-238.0,43.0,-33.0,-1.0,-352.0,57.0,0
-238.0,41.0,-35.0,-12.0,-370.0,70.0,0
-245.0,37.0,-37.0,-20.0,-381.0,78.0,0
-244.0,37.0,-36.0,-27.0,-392.0,85.0,0
-248.0,38.0,-39.0,-23.0,-401.0,84.0,0
-250.0,37.0,-38.0,-10.0,-407.0,85.0,0
-251.0,33.0,-34.0,13.0,-411.0,81.0,0
-255.0,38.0,-34.0,55.0,-411.0,75.0,0
-256.0,41.0,-33.0,99.0,-407.0,68.0,0
-261.0,41.0,-33.0,148.0,-401.0,62.0,0
-263.0,41.0,-32.0,201.0,-397.0,51.0,0
-263.0,45.0,-32.0,255.0,-393.0,45.0,0
-266.0,48.0,-39.0,303.0,-389.0,37.0,0
-269.0,52.0,-40.0,344.0,-388.0,32.0,0
-269.0,55.0,-37.0,373.0,-385.0,26.0,0
-269.0,58.0,-42.0,393.0,-380.0,27.0,0
-269.0,60.0,-44.0,402.0,-373.0,25.0,0
-264.0,62.0,-44.0,401.0,-363.0,30.0,0
-264.0,63.0,-44.0,391.0,-348.0,32.0,0
-263.0,67.0,-40.0,374.0,-332.0,37.0,0
-266.0,67.0,-37.0,350.0,-311.0,39.0,0
-260.0,68.0,-35.0,324.0,-291.0,45.0,0
-259.0,73.0,-25.0,296.0,-267.0,46.0,0
-265.0,62.0,-38.0,269.0,-242.0,47.0,0
-250.0,64.0,-17.0,239.0,-216.0,46.0,0
-255.0,65.0,-6.0,210.0,-188.0,52.0,0
-259.0,72.0,-37.0,181.0,-154.0,54.0,0
-262.0,66.0,-28.0,147.0,-125.0,60.0,0
-265.0,62.0,-13.0,121.0,-97.0,58.0,0
-255.0,63.0,-23.0,102.0,-67.0,57.0,0
-253.0,60.0,-23.0,87.0,-40.0,48.0,0
-254.0,56.0,-23.0,75.0,-13.0,43.0,0
-255.0,56.0,-20.0,65.0,8.0,32.0,0
-260.0,55.0,-21.0,59.0,23.0,23.0,0
-254.0,55.0,-18.0,58.0,35.0,10.0,0
-256.0,54.0,-26.0,57.0,39.0,4.0,0
-257.0,52.0,-17.0,58.0,39.0,-8.0,0
-255.0,51.0,-22.0,59.0,39.0,-9.0,0
-260.0,52.0,-25.0,59.0,39.0,-17.0,0
-259.0,51.0,-23.0,56.0,39.0,-19.0,0
-260.0,51.0,-28.0,56.0,44.0,-26.0,0
-260.0,55.0,-23.0,56.0,51.0,-29.0,0
-259.0,52.0,-22.0,58.0,61.0,-35.0,0
-261.0,52.0,-26.0,61.0,70.0,-37.0,0
-257.0,55.0,-30.0,64.0,80.0,-44.0,0
-259.0,55.0,-30.0,64.0,89.0,-46.0,0
-261.0,56.0,-28.0,61.0,100.0,-52.0,0
-258.0,58.0,-26.0,54.0,109.0,-51.0,0
-255.0,57.0,-28.0,44.0,119.0,-55.0,0
-252.0,55.0,-26.0,32.0,128.0,-51.0,0
-254.0,58.0,-24.0,20.0,139.0,-52.0,0
-252.0,58.0,-28.0,8.0,146.0,-47.0,0
-248.0,60.0,-26.0,-4.0,154.0,-46.0,0
-247.0,57.0,-27.0,-16.0,163.0,-41.0,0
-249.0,58.0,-27.0,-30.0,172.0,-40.0,0
-248.0,59.0,-28.0,-47.0,178.0,-36.0,0
-246.0,57.0,-25.0,-62.0,185.0,-35.0,0
-248.0,58.0,-29.0,-82.0,188.0,-32.0,0
-252.0,59.0,-25.0,-98.0,190.0,-31.0,0
-248.0,56.0,-30.0,-112.0,192.0,-28.0,0
-250.0,55.0,-27.0,-126.0,194.0,-29.0,0
-247.0,55.0,-27.0,-140.0,193.0,-25.0,0
-248.0,52.0,-29.0,-154.0,194.0,-25.0,0
-250.0,51.0,-34.0,-165.0,194.0,-23.0,0
-249.0,47.0,-30.0,-174.0,193.0,-22.0,0
-249.0,44.0,-30.0,-179.0,197.0,-17.0,0
-252.0,47.0,-28.0,-184.0,200.0,-17.0,0
-253.0,46.0,-29.0,-186.0,202.0,-11.0,0
-253.0,41.0,-29.0,-185.0,204.0,-9.0,0
-252.0,40.0,-27.0,-185.0,206.0,-2.0,0
-252.0,40.0,-33.0,-181.0,206.0,1.0,0
-254.0,40.0,-32.0,-178.0,208.0,9.0,0
-251.0,43.0,-32.0,-174.0,209.0,13.0,0
-253.0,39.0,-33.0,-165.0,210.0,22.0,0
-252.0,41.0,-31.0,-156.0,210.0,23.0,0
-253.0,41.0,-35.0,-143.0,209.0,32.0,0
-255.0,41.0,-33.0,-129.0,208.0,34.0,0
-257.0,41.0,-33.0,-110.0,205.0,38.0,0
-253.0,43.0,-36.0,-95.0,201.0,37.0,0
-257.0,43.0,-31.0,-79.0,197.0,39.0,0
-256.0,43.0,-33.0,-62.0,194.0,38.0,0
-257.0,44.0,-37.0,-47.0,188.0,39.0,0
-256.0,49.0,-35.0,-35.0,184.0,36.0,0
-257.0,50.0,-37.0,-25.0,180.0,36.0,0
-262.0,51.0,-40.0,-18.0,177.0,30.0,0
-261.0,54.0,-41.0,-14.0,175.0,27.0,0
-261.0,56.0,-44.0,-13.0,170.0,20.0,0
-263.0,57.0,-39.0,-17.0,169.0,14.0,0
-266.0,57.0,-42.0,-23.0,167.0,9.0,0
-267.0,58.0,-42.0,-30.0,164.0,6.0,0
-269.0,59.0,-46.0,-39.0,160.0,0.0,0
-269.0,58.0,-44.0,-49.0,157.0,-2.0,0
-268.0,61.0,-48.0,-60.0,154.0,-8.0,0
-269.0,60.0,-48.0,-73.0,152.0,-9.0,0
-270.0,64.0,-53.0,-89.0,153.0,-14.0,0
-267.0,60.0,-50.0,-104.0,153.0,-12.0,0
-269.0,60.0,-48.0,-116.0,155.0,-16.0,0
-269.0,61.0,-49.0,-130.0,158.0,-17.0,0
-268.0,61.0,-50.0,-141.0,160.0,-19.0,0
-268.0,60.0,-47.0,-151.0,159.0,-18.0,0
-267.0,61.0,-43.0,-160.0,158.0,-20.0,0
-267.0,61.0,-49.0,-168.0,153.0,-22.0,0
-264.0,59.0,-49.0,-172.0,148.0,-26.0,0
-263.0,58.0,-47.0,-176.0,141.0,-30.0,0
-261.0,57.0,-47.0,-174.0,135.0,-36.0,0
-259.0,55.0,-44.0,-171.0,128.0,-39.0,0
-260.0,57.0,-45.0,-167.0,120.0,-46.0,0
-254.0,54.0,-43.0,-162.0,109.0,-49.0,0
-257.0,51.0,-42.0,-158.0,104.0,-53.0,0
-257.0,54.0,-43.0,-155.0,97.0,-55.0,0
-254.0,52.0,-42.0,-149.0,92.0,-56.0,0
-255.0,54.0,-39.0,-144.0,87.0,-56.0,0
-254.0,49.0,-33.0,-140.0,85.0,-57.0,0
-253.0,48.0,-38.0,-134.0,83.0,-55.0,0
-254.0,45.0,-34.0,-128.0,82.0,-55.0,0
-250.0,45.0,-37.0,-124.0,81.0,-53.0,0
-250.0,44.0,-35.0,-114.0,79.0,-52.0,0
-253.0,40.0,-38.0,-105.0,75.0,-48.0,0
-254.0,39.0,-35.0,-95.0,70.0,-43.0,0
-252.0,39.0,-37.0,-84.0,65.0,-39.0,0
-251.0,40.0,-36.0,-73.0,60.0,-34.0,0
-253.0,38.0,-36.0,-60.0,54.0,-28.0,0
-251.0,37.0,-34.0,-47.0,48.0,-24.0,0
-252.0,39.0,-32.0,-34.0,43.0,-18.0,0
-256.0,41.0,-34.0,-21.0,40.0,-12.0,0
-256.0,40.0,-35.0,-9.0,36.0,-5.0,0
-253.0,40.0,-37.0,3.0,33.0,4.0,0
-255.0,39.0,-36.0,12.0,29.0,12.0,0
-257.0,40.0,-40.0,25.0,25.0,20.0,0
-253.0,42.0,-36.0,34.0,24.0,24.0,0
-254.0,43.0,-40.0,43.0,21.0,27.0,0
-252.0,40.0,-39.0,53.0,20.0,29.0,0
-255.0,43.0,-36.0,64.0,18.0,29.0,0
-258.0,46.0,-39.0,72.0,17.0,29.0,0
-256.0,46.0,-36.0,79.0,17.0,30.0,0
-258.0,44.0,-38.0,86.0,17.0,29.0,0
-258.0,48.0,-41.0,92.0,17.0,27.0,0
-254.0,47.0,-37.0,97.0,19.0,25.0,0
-259.0,51.0,-39.0,104.0,22.0,25.0,0
-259.0,48.0,-36.0,108.0,24.0,21.0,0
-260.0,49.0,-41.0,113.0,29.0,22.0,0
-260.0,50.0,-39.0,116.0,34.0,21.0,0
-257.0,51.0,-41.0,115.0,42.0,19.0,0
-261.0,54.0,-36.0,111.0,48.0,19.0,0
-261.0,52.0,-41.0,102.0,56.0,19.0,0
-261.0,54.0,-43.0,93.0,64.0,18.0,0
-262.0,54.0,-42.0,83.0,70.0,17.0,0
-263.0,55.0,-43.0,71.0,73.0,14.0,0
-260.0,56.0,-43.0,56.0,75.0,11.0,0
-264.0,56.0,-42.0,46.0,74.0,9.0,0
-262.0,54.0,-48.0,36.0,74.0,8.0,0
-262.0,55.0,-45.0,26.0,72.0,6.0,0
-261.0,57.0,-44.0,18.0,71.0,8.0,0
-259.0,57.0,-41.0,13.0,69.0,6.0,0
-259.0,59.0,-40.0,10.0,70.0,7.0,0
-260.0,57.0,-39.0,9.0,71.0,6.0,0
-258.0,56.0,-42.0,12.0,69.0,5.0,0
-255.0,56.0,-43.0,13.0,69.0,2.0,0
-257.0,59.0,-41.0,15.0,69.0,1.0,0
-256.0,57.0,-36.0,15.0,72.0,-3.0,0
-253.0,57.0,-36.0,13.0,72.0,-4.0,0
-253.0,55.0,-36.0,9.0,75.0,-11.0,0
-252.0,57.0,-35.0,5.0,77.0,-15.0,0
-250.0,55.0,-30.0,0.0,81.0,-22.0,0
-248.0,56.0,-34.0,-5.0,84.0,-26.0,0
-249.0,55.0,-33.0,-10.0,87.0,-32.0,0
-249.0,55.0,-32.0,-15.0,92.0,-36.0,0
-246.0,54.0,-32.0,-22.0,96.0,-40.0,0
-251.0,54.0,-28.0,-32.0,100.0,-41.0,0
-250.0,51.0,-30.0,-38.0,105.0,-43.0,0
-252.0,52.0,-29.0,-44.0,110.0,-42.0,0
-249.0,47.0,-37.0,-49.0,113.0,-42.0,0
-249.0,51.0,-32.0,-51.0,118.0,-39.0,0
-250.0,49.0,-30.0,-52.0,125.0,-41.0,0
-248.0,46.0,-32.0,-54.0,133.0,-39.0,0
-250.0,49.0,-32.0,-55.0,140.0,-40.0,0
-249.0,46.0,-36.0,-59.0,147.0,-39.0,0
-251.0,48.0,-34.0,-62.0,153.0,-43.0,0
-253.0,50.0,-29.0,-62.0,159.0,-43.0,0
-257.0,50.0,-34.0,-63.0,159.0,-47.0,0
-254.0,49.0,-32.0,-62.0,160.0,-48.0,0
-255.0,53.0,-37.0,-64.0,161.0,-53.0,0
-259.0,54.0,-41.0,-68.0,162.0,-56.0,0
-258.0,52.0,-38.0,-76.0,161.0,-63.0,0
-263.0,56.0,-41.0,-85.0,163.0,-62.0,0
-262.0,53.0,-43.0,-96.0,167.0,-66.0,0
-261.0,53.0,-44.0,-111.0,169.0,-67.0,0
-261.0,54.0,-48.0,-127.0,172.0,-73.0,0
-262.0,51.0,-47.0,-147.0,171.0,-73.0,0
-266.0,53.0,-50.0,-165.0,166.0,-76.0,0
-263.0,52.0,-47.0,-183.0,161.0,-73.0,0
-263.0,51.0,-47.0,-199.0,151.0,-75.0,0
-264.0,51.0,-46.0,-214.0,142.0,-71.0,0
-266.0,53.0,-50.0,-226.0,131.0,-70.0,0
-264.0,50.0,-44.0,-238.0,115.0,-66.0,0
-263.0,50.0,-48.0,-246.0,100.0,-65.0,0
-263.0,50.0,-50.0,-250.0,86.0,-57.0,0
-263.0,45.0,-49.0,-255.0,71.0,-54.0,0
-261.0,44.0,-51.0,-256.0,55.0,-45.0,0
-261.0,47.0,-50.0,-255.0,42.0,-40.0,0
-259.0,47.0,-52.0,-251.0,29.0,-31.0,0
-260.0,44.0,-54.0,-245.0,17.0,-28.0,0
-258.0,47.0,-47.0,-237.0,7.0,-20.0,0
-258.0,46.0,-51.0,-229.0,-3.0,-18.0,0
-256.0,46.0,-49.0,-217.0,-12.0,-12.0,0
-256.0,44.0,-46.0,-206.0,-21.0,-12.0,0
-256.0,47.0,-46.0,-193.0,-33.0,-10.0,0
-256.0,47.0,-45.0,-175.0,-42.0,-13.0,0
-254.0,44.0,-48.0,-155.0,-53.0,-11.0,0
-254.0,47.0,-47.0,-127.0,-63.0,-13.0,0
-257.0,42.0,-43.0,-104.0,-74.0,-12.0,0
-255.0,44.0,-46.0,-83.0,-83.0,-15.0,0
-252.0,46.0,-44.0,-66.0,-95.0,-13.0,0
-255.0,49.0,-41.0,-51.0,-107.0,-15.0,0
-256.0,50.0,-45.0,-39.0,-120.0,-12.0,0
-256.0,48.0,-44.0,-32.0,-131.0,-13.0,0
-255.0,49.0,-39.0,-29.0,-142.0,-9.0,0
-256.0,51.0,-39.0,-28.0,-152.0,-9.0,0
-257.0,46.0,-45.0,-28.0,-161.0,-4.0,0
-258.0,48.0,-41.0,-30.0,-168.0,-4.0,0
-257.0,48.0,-41.0,-31.0,-172.0,0.0,0
-259.0,46.0,-35.0,-33.0,-177.0,2.0,0
-259.0,48.0,-39.0,-29.0,-177.0,8.0,0
-258.0,46.0,-35.0,-24.0,-179.0,10.0,0
-254.0,42.0,-31.0,-18.0,-179.0,16.0,0
-259.0,45.0,-36.0,-8.0,-178.0,18.0,0
-257.0,42.0,-31.0,4.0,-175.0,25.0,0
-256.0,43.0,-35.0,19.0,-172.0,28.0,0
-257.0,42.0,-31.0,34.0,-167.0,34.0,0
-257.0,42.0,-29.0,52.0,-159.0,36.0,0
-258.0,44.0,-31.0,67.0,-150.0,42.0,0
-258.0,42.0,-30.0,82.0,-140.0,43.0,0
-259.0,43.0,-24.0,95.0,-128.0,47.0,0
-255.0,44.0,-24.0,106.0,-117.0,46.0,0
-257.0,46.0,-26.0,115.0,-104.0,49.0,0
-256.0,46.0,-27.0,122.0,-90.0,49.0,0
-254.0,45.0,-23.0,124.0,-76.0,49.0,0
-255.0,45.0,-28.0,125.0,-62.0,47.0,0
-253.0,47.0,-24.0,123.0,-47.0,46.0,0
-254.0,52.0,-26.0,119.0,-30.0,43.0,0
-255.0,51.0,-25.0,115.0,-15.0,42.0,0
-254.0,49.0,-23.0,106.0,-1.0,38.0,0
-254.0,50.0,-25.0,99.0,15.0,36.0,0
-252.0,51.0,-24.0,91.0,29.0,32.0,0
-254.0,50.0,-24.0,84.0,44.0,30.0,0
-253.0,50.0,-28.0,76.0,58.0,25.0,0
-252.0,53.0,-22.0,70.0,73.0,26.0,0
-252.0,55.0,-25.0,66.0,87.0,21.0,0
-251.0,51.0,-28.0,62.0,101.0,20.0,0
-253.0,52.0,-28.0,55.0,119.0,18.0,0
-252.0,51.0,-28.0,51.0,133.0,17.0,0
-254.0,51.0,-29.0,44.0,145.0,14.0,0
-253.0,50.0,-26.0,38.0,157.0,15.0,0
-253.0,50.0,-26.0,30.0,169.0,15.0,0
-257.0,50.0,-27.0,21.0,179.0,15.0,0
-253.0,52.0,-27.0,14.0,189.0,13.0,0
-254.0,49.0,-32.0,5.0,196.0,15.0,0
-253.0,47.0,-34.0,-3.0,201.0,15.0,0
-254.0,48.0,-32.0,-11.0,207.0,17.0,0
-257.0,50.0,-35.0,-17.0,210.0,18.0,0
-256.0,48.0,-32.0,-24.0,212.0,20.0,0
-255.0,46.0,-33.0,-27.0,215.0,21.0,0
-252.0,48.0,-35.0,-29.0,212.0,24.0,0
-254.0,48.0,-35.0,-30.0,210.0,25.0,0
-254.0,50.0,-38.0,-31.0,208.0,29.0,0
-254.0,49.0,-36.0,-31.0,204.0,30.0,0
-255.0,49.0,-33.0,-29.0,200.0,32.0,0
-254.0,50.0,-33.0,-28.0,196.0,33.0,0
-253.0,50.0,-35.0,-25.0,193.0,35.0,0
-251.0,48.0,-35.0,-20.0,189.0,36.0,0
-255.0,46.0,-35.0,-17.0,187.0,35.0,0
-254.0,48.0,-39.0,-13.0,184.0,35.0,0
-256.0,51.0,-35.0,-8.0,182.0,36.0,0
-253.0,51.0,-31.0,-2.0,181.0,36.0,0
-255.0,53.0,-40.0,2.0,181.0,35.0,0
-255.0,49.0,-37.0,6.0,180.0,34.0,0
-259.0,52.0,-38.0,9.0,179.0,35.0,0
-255.0,53.0,-37.0,9.0,178.0,34.0,0
-255.0,52.0,-41.0,9.0,179.0,33.0,0
-257.0,52.0,-38.0,7.0,176.0,31.0,0
-257.0,53.0,-40.0,2.0,175.0,30.0,0
-258.0,56.0,-39.0,-3.0,173.0,29.0,0
-257.0,57.0,-37.0,-13.0,169.0,23.0,0
-258.0,58.0,-41.0,-21.0,165.0,23.0,0
-258.0,53.0,-41.0,-29.0,162.0,25.0,0
-256.0,57.0,-42.0,-36.0,157.0,23.0,0
-258.0,54.0,-40.0,-46.0,151.0,22.0,0
-257.0,54.0,-39.0,-53.0,144.0,20.0,0
-261.0,57.0,-44.0,-60.0,138.0,18.0,0
-258.0,56.0,-42.0,-67.0,130.0,16.0,0
-262.0,52.0,-44.0,-73.0,124.0,13.0,0
-260.0,55.0,-43.0,-77.0,117.0,13.0,0
-261.0,55.0,-44.0,-80.0,112.0,11.0,0
-261.0,54.0,-41.0,-81.0,105.0,10.0,0
-261.0,53.0,-41.0,-80.0,100.0,9.0,0
-261.0,53.0,-44.0,-80.0,95.0,8.0,0
-260.0,55.0,-41.0,-78.0,91.0,5.0,0
-260.0,54.0,-41.0,-76.0,85.0,4.0,0
-260.0,57.0,-43.0,-74.0,82.0,2.0,0
-257.0,52.0,-44.0,-73.0,75.0,0.0,0
-258.0,53.0,-42.0,-70.0,73.0,-4.0,0
-258.0,55.0,-43.0,-68.0,71.0,-5.0,0
-260.0,53.0,-39.0,-65.0,66.0,-7.0,0
-255.0,54.0,-43.0,-66.0,63.0,-9.0,0
-258.0,52.0,-37.0,-66.0,60.0,-13.0,0
-260.0,55.0,-41.0,-66.0,55.0,-14.0,0
-259.0,55.0,-39.0,-65.0,51.0,-16.0,0
-258.0,56.0,-38.0,-66.0,47.0,-18.0,0
-260.0,53.0,-43.0,-66.0,42.0,-20.0,0
-259.0,55.0,-40.0,-65.0,40.0,-21.0,0
-260.0,54.0,-40.0,-65.0,35.0,-24.0,0
-260.0,54.0,-42.0,-66.0,32.0,-23.0,0
-257.0,50.0,-42.0,-67.0,27.0,-27.0,0
-258.0,54.0,-42.0,-69.0,23.0,-26.0,0
-259.0,51.0,-43.0,-69.0,18.0,-27.0,0
-257.0,52.0,-38.0,-70.0,16.0,-28.0,0
-259.0,54.0,-42.0,-70.0,13.0,-30.0,0
-258.0,52.0,-38.0,-70.0,9.0,-28.0,0
-258.0,50.0,-37.0,-69.0,7.0,-30.0,0
-257.0,53.0,-40.0,-67.0,6.0,-28.0,0
-257.0,50.0,-34.0,-67.0,6.0,-29.0,0
-257.0,49.0,-35.0,-67.0,6.0,-26.0,0
-253.0,49.0,-40.0,-65.0,8.0,-26.0,0
-256.0,49.0,-39.0,-63.0,12.0,-22.0,0
-255.0,49.0,-38.0,-60.0,16.0,-22.0,0
-255.0,49.0,-42.0,-58.0,18.0,-17.0,0
-254.0,49.0,-37.0,-56.0,20.0,-17.0,0
-252.0,47.0,-34.0,-53.0,22.0,-13.0,0
-255.0,49.0,-31.0,-48.0,21.0,-12.0,0
-253.0,50.0,-35.0,-44.0,21.0,-8.0,0
-255.0,51.0,-35.0,-38.0,21.0,-7.0,0
-256.0,50.0,-40.0,-32.0,19.0,-4.0,0
-255.0,49.0,-33.0,-26.0,17.0,-4.0,0
-255.0,48.0,-32.0,-21.0,16.0,-1.0,0
-254.0,49.0,-36.0,-14.0,15.0,-2.0,0
-256.0,50.0,-35.0,-8.0,10.0,2.0,0
-255.0,49.0,-36.0,-3.0,10.0,0.0,0
-254.0,49.0,-35.0,3.0,7.0,3.0,0
-251.0,48.0,-35.0,7.0,6.0,1.0,0
-254.0,49.0,-34.0,9.0,5.0,3.0,0
-255.0,54.0,-35.0,10.0,7.0,0.0,0
-256.0,50.0,-35.0,12.0,7.0,3.0,0
-259.0,51.0,-33.0,12.0,11.0,0.0,0
-260.0,53.0,-35.0,11.0,15.0,2.0,0
-255.0,55.0,-36.0,10.0,22.0,0.0,0
-257.0,52.0,-34.0,6.0,29.0,2.0,0
-255.0,52.0,-35.0,0.0,38.0,-2.0,0
-256.0,55.0,-32.0,-4.0,44.0,-1.0,0
-258.0,56.0,-34.0,-8.0,54.0,-4.0,0
-256.0,53.0,-35.0,-15.0,63.0,-2.0,0
-259.0,56.0,-36.0,-21.0,72.0,-6.0,0
-256.0,54.0,-32.0,-28.0,81.0,-3.0,0
-255.0,52.0,-37.0,-29.0,88.0,-6.0,0
-256.0,53.0,-32.0,-32.0,94.0,-4.0,0
-257.0,51.0,-33.0,-34.0,97.0,-7.0,0
-257.0,52.0,-36.0,-35.0,100.0,-4.0,0
-255.0,51.0,-37.0,-36.0,103.0,-8.0,0
-256.0,51.0,-34.0,-34.0,105.0,-5.0,0
-255.0,54.0,-38.0,-33.0,106.0,-7.0,0
-256.0,49.0,-34.0,-31.0,105.0,-5.0,0
-256.0,52.0,-34.0,-28.0,102.0,-7.0,0
-255.0,49.0,-37.0,-24.0,100.0,-4.0,0
-257.0,52.0,-35.0,-21.0,96.0,-5.0,0
-256.0,51.0,-39.0,-18.0,94.0,-4.0,0
-255.0,50.0,-39.0,-13.0,90.0,-5.0,0
-257.0,52.0,-40.0,-11.0,86.0,-1.0,0
-256.0,49.0,-37.0,-10.0,82.0,-4.0,0
-258.0,52.0,-39.0,-10.0,78.0,-1.0,0
-253.0,52.0,-37.0,-6.0,74.0,-3.0,0
-257.0,52.0,-39.0,-5.0,70.0,1.0,0
-256.0,50.0,-36.0,-5.0,65.0,-1.0,0
-254.0,53.0,-37.0,-4.0,65.0,1.0,0
-255.0,52.0,-38.0,-5.0,64.0,-1.0,0
-254.0,52.0,-39.0,-6.0,62.0,1.0,0
-256.0,53.0,-38.0,-6.0,62.0,-1.0,0
-257.0,48.0,-37.0,-8.0,63.0,-1.0,0
-256.0,50.0,-37.0,-10.0,64.0,-3.0,0
-258.0,51.0,-35.0,-10.0,64.0,-1.0,0
-259.0,52.0,-40.0,-10.0,65.0,-2.0,0
-258.0,52.0,-35.0,-12.0,65.0,0.0,0
-255.0,51.0,-37.0,-12.0,66.0,-2.0,0
-258.0,51.0,-37.0,-12.0,66.0,1.0,0
-255.0,51.0,-36.0,-11.0,66.0,1.0,0
-252.0,49.0,-36.0,-9.0,65.0,3.0,0
-258.0,52.0,-36.0,-7.0,64.0,1.0,0
-254.0,51.0,-33.0,-5.0,62.0,3.0,0
-251.0,48.0,-38.0,-4.0,60.0,2.0,0
-256.0,52.0,-39.0,-2.0,59.0,4.0,0
-255.0,53.0,-37.0,-1.0,55.0,3.0,0
-255.0,53.0,-39.0,1.0,52.0,4.0,0
-258.0,49.0,-35.0,1.0,49.0,2.0,0
-258.0,53.0,-39.0,1.0,45.0,5.0,0
-258.0,54.0,-37.0,2.0,43.0,4.0,0
-259.0,54.0,-33.0,2.0,41.0,5.0,0
-257.0,52.0,-37.0,0.0,40.0,4.0,0
-257.0,53.0,-33.0,-1.0,38.0,5.0,0
-258.0,54.0,-38.0,-3.0,40.0,4.0,0
-257.0,55.0,-34.0,-5.0,40.0,6.0,0
-257.0,54.0,-34.0,-6.0,42.0,5.0,0
-256.0,56.0,-37.0,-8.0,44.0,5.0,0
-255.0,52.0,-36.0,-12.0,47.0,2.0,0
-257.0,54.0,-36.0,-15.0,47.0,1.0,0
-257.0,51.0,-36.0,-17.0,50.0,-1.0,0
-257.0,55.0,-37.0,-19.0,52.0,0.0,0
-257.0,54.0,-36.0,-17.0,55.0,-2.0,0
-257.0,53.0,-35.0,-17.0,57.0,-3.0,0
-256.0,54.0,-35.0,-18.0,57.0,-4.0,0
-258.0,56.0,-33.0,-20.0,60.0,-4.0,0
-256.0,53.0,-40.0,-19.0,60.0,-7.0,0
-258.0,53.0,-37.0,-20.0,61.0,-6.0,0
-255.0,52.0,-39.0,-22.0,61.0,-9.0,0
-259.0,53.0,-37.0,-24.0,63.0,-10.0,0
-257.0,53.0,-36.0,-29.0,64.0,-11.0,0
-258.0,54.0,-31.0,-30.0,62.0,-12.0,0
-255.0,56.0,-35.0,-34.0,60.0,-12.0,0
-257.0,54.0,-36.0,-35.0,59.0,-12.0,0
-258.0,51.0,-40.0,-36.0,58.0,-13.0,0
-258.0,51.0,-39.0,-37.0,57.0,-13.0,0
-255.0,51.0,-36.0,-38.0,55.0,-14.0,0
-255.0,54.0,-39.0,-37.0,54.0,-12.0,0
-257.0,52.0,-34.0,-36.0,51.0,-13.0,0
-258.0,51.0,-34.0,-32.0,51.0,-14.0,0
-255.0,49.0,-38.0,-30.0,50.0,-13.0,0
-255.0,49.0,-38.0,-28.0,51.0,-13.0,0
-260.0,51.0,-33.0,-27.0,51.0,-13.0,0
-255.0,53.0,-37.0,-25.0,50.0,-13.0,0
-257.0,55.0,-36.0,-23.0,52.0,-12.0,0
-256.0,53.0,-35.0,-21.0,54.0,-10.0,0
-256.0,50.0,-36.0,-19.0,55.0,-9.0,0
-255.0,52.0,-40.0,-18.0,55.0,-8.0,0
-255.0,52.0,-36.0,-16.0,56.0,-8.0,0
-256.0,51.0,-39.0,-15.0,59.0,-6.0,0
-256.0,53.0,-31.0,-15.0,57.0,-5.0,0
-257.0,49.0,-37.0,-13.0,59.0,-6.0,0
-258.0,50.0,-38.0,-14.0,59.0,-5.0,0
-257.0,50.0,-36.0,-12.0,58.0,-3.0,0
-256.0,51.0,-36.0,-11.0,59.0,-2.0,0
-255.0,53.0,-34.0,-11.0,59.0,-1.0,0
-254.0,49.0,-37.0,-10.0,57.0,-1.0,0
-254.0,50.0,-40.0,-11.0,57.0,-1.0,0
-256.0,53.0,-35.0,-12.0,57.0,-2.0,0
-256.0,51.0,-37.0,-12.0,58.0,-3.0,0
-256.0,53.0,-35.0,-13.0,58.0,-4.0,0
-257.0,52.0,-35.0,-15.0,58.0,-5.0,0
-257.0,51.0,-41.0,-15.0,57.0,-5.0,0
-257.0,50.0,-36.0,-16.0,58.0,-6.0,0
-257.0,51.0,-37.0,-18.0,57.0,-5.0,0
-256.0,51.0,-37.0,-20.0,58.0,-8.0,0
-256.0,51.0,-36.0,-22.0,58.0,-7.0,0
-256.0,50.0,-39.0,-22.0,58.0,-6.0,0
-255.0,53.0,-34.0,-23.0,60.0,-5.0,0
-257.0,49.0,-36.0,-24.0,64.0,-5.0,0
-255.0,49.0,-34.0,-26.0,69.0,-2.0,0
-256.0,50.0,-34.0,-25.0,74.0,0.0,0
-256.0,52.0,-35.0,-25.0,77.0,3.0,0
-256.0,48.0,-37.0,-24.0,81.0,4.0,0
-257.0,52.0,-36.0,-22.0,82.0,6.0,0
-256.0,49.0,-37.0,-21.0,82.0,7.0,0
-255.0,51.0,-36.0,-20.0,80.0,9.0,0
-253.0,48.0,-38.0,-18.0,80.0,10.0,0
-253.0,48.0,-33.0,-16.0,77.0,12.0,0
-256.0,51.0,-37.0,-14.0,72.0,12.0,0
-256.0,49.0,-37.0,-10.0,69.0,14.0,0
-256.0,53.0,-31.0,-2.0,63.0,12.0,0
-256.0,51.0,-36.0,3.0,59.0,12.0,0
-255.0,49.0,-33.0,8.0,55.0,10.0,0
-257.0,54.0,-39.0,14.0,50.0,9.0,0
-258.0,53.0,-37.0,19.0,48.0,6.0,0
-260.0,54.0,-44.0,20.0,46.0,7.0,0
-258.0,52.0,-31.0,23.0,46.0,4.0,0
-257.0,54.0,-35.0,22.0,44.0,5.0,0
-257.0,52.0,-41.0,21.0,45.0,1.0,0
-259.0,54.0,-38.0,17.0,49.0,1.0,0
-257.0,52.0,-37.0,11.0,51.0,-3.0,0
-259.0,53.0,-34.0,2.0,56.0,-2.0,0
-255.0,56.0,-37.0,-4.0,59.0,-9.0,0
-256.0,54.0,-38.0,-9.0,63.0,-10.0,0
-260.0,55.0,-38.0,-17.0,64.0,-16.0,0
-258.0,56.0,-36.0,-21.0,65.0,-16.0,0
-260.0,52.0,-40.0,-25.0,63.0,-22.0,0
-259.0,48.0,-40.0,-27.0,59.0,-24.0,0
-257.0,51.0,-40.0,-26.0,56.0,-30.0,0
-259.0,51.0,-35.0,-22.0,51.0,-33.0,0
-258.0,50.0,-38.0,-18.0,48.0,-38.0,0
-258.0,51.0,-37.0,-9.0,44.0,-39.0,0
-264.0,50.0,-38.0,-2.0,38.0,-43.0,0
-262.0,49.0,-39.0,7.0,33.0,-44.0,0
-263.0,50.0,-40.0,18.0,28.0,-48.0,0
-262.0,48.0,-39.0,26.0,23.0,-49.0,0
-260.0,48.0,-39.0,35.0,17.0,-54.0,0
-263.0,49.0,-42.0,43.0,14.0,-54.0,0
-261.0,52.0,-38.0,48.0,6.0,-59.0,0
-265.0,50.0,-39.0,53.0,-2.0,-58.0,0
-263.0,49.0,-42.0,56.0,-7.0,-63.0,0
-264.0,52.0,-40.0,55.0,-14.0,-61.0,0
-264.0,53.0,-37.0,53.0,-23.0,-67.0,0
-264.0,53.0,-43.0,49.0,-30.0,-66.0,0
-266.0,56.0,-40.0,45.0,-38.0,-71.0,0
-264.0,56.0,-42.0,40.0,-46.0,-69.0,0
-265.0,56.0,-38.0,34.0,-54.0,-74.0,0
-260.0,56.0,-36.0,28.0,-65.0,-73.0,0
-259.0,57.0,-40.0,18.0,-76.0,-78.0,0
-257.0,57.0,-41.0,7.0,-82.0,-82.0,0
-259.0,58.0,-36.0,-7.0,-87.0,-87.0,0
-257.0,57.0,-38.0,-18.0,-92.0,-87.0,0
-256.0,59.0,-39.0,-31.0,-99.0,-90.0,0
-257.0,57.0,-32.0,-40.0,-107.0,-91.0,0
-257.0,57.0,-37.0,-51.0,-113.0,-95.0,0
-255.0,58.0,-37.0,-61.0,-121.0,-95.0,0
-255.0,56.0,-38.0,-71.0,-127.0,-98.0,0
-254.0,56.0,-34.0,-79.0,-133.0,-96.0,0
-255.0,52.0,-32.0,-86.0,-140.0,-98.0,0
-254.0,50.0,-33.0,-89.0,-147.0,-95.0,0
-254.0,49.0,-31.0,-89.0,-156.0,-98.0,0
-255.0,50.0,-33.0,-89.0,-163.0,-95.0,0
-254.0,43.0,-30.0,-86.0,-171.0,-95.0,0
-254.0,43.0,-28.0,-81.0,-177.0,-90.0,0
-256.0,45.0,-29.0,-75.0,-183.0,-89.0,0
-256.0,43.0,-29.0,-69.0,-188.0,-85.0,0
-255.0,41.0,-29.0,-61.0,-193.0,-83.0,0
-257.0,44.0,-29.0,-52.0,-197.0,-76.0,0
-256.0,42.0,-28.0,-44.0,-199.0,-75.0,0
-255.0,41.0,-29.0,-34.0,-202.0,-68.0,0
-259.0,41.0,-26.0,-27.0,-202.0,-65.0,0
-258.0,43.0,-28.0,-21.0,-202.0,-59.0,0
-261.0,43.0,-26.0,-13.0,-203.0,-59.0,0
-258.0,43.0,-25.0,-9.0,-202.0,-55.0,0
-260.0,45.0,-27.0,-3.0,-201.0,-55.0,0
-259.0,41.0,-37.0,1.0,-199.0,-50.0,0
-274.0,42.0,-22.0,5.0,-196.0,-51.0,0
-255.0,40.0,-12.0,10.0,-195.0,-50.0,0
-256.0,40.0,-24.0,14.0,-192.0,-51.0,0
-265.0,40.0,-9.0,18.0,-188.0,-49.0,0
-253.0,44.0,-28.0,24.0,-184.0,-51.0,0
-259.0,38.0,-30.0,27.0,-181.0,-51.0,0
-263.0,45.0,-22.0,31.0,-177.0,-56.0,0
-258.0,40.0,-20.0,35.0,-173.0,-60.0,0
-258.0,41.0,-22.0,41.0,-170.0,-65.0,0
-260.0,43.0,-19.0,46.0,-168.0,-70.0,0
-262.0,43.0,-21.0,53.0,-164.0,-77.0,0
-258.0,44.0,-14.0,60.0,-161.0,-81.0,0
-260.0,41.0,-17.0,67.0,-158.0,-89.0,0
-262.0,44.0,-20.0,75.0,-154.0,-91.0,0
-264.0,44.0,-24.0,80.0,-149.0,-98.0,0
-265.0,43.0,-22.0,85.0,-143.0,-102.0,0
-264.0,44.0,-24.0,91.0,-139.0,-109.0,0
-267.0,42.0,-23.0,93.0,-135.0,-113.0,0
-266.0,43.0,-21.0,95.0,-131.0,-120.0,0
-267.0,43.0,-21.0,97.0,-130.0,-125.0,0
-266.0,39.0,-20.0,97.0,-126.0,-133.0,0
-266.0,42.0,-20.0,99.0,-126.0,-137.0,0
-264.0,44.0,-24.0,97.0,-126.0,-142.0,0
-265.0,44.0,-24.0,96.0,-127.0,-144.0,0
-267.0,45.0,-18.0,96.0,-130.0,-149.0,0
-266.0,43.0,-22.0,93.0,-131.0,-151.0,0
-264.0,45.0,-20.0,88.0,-135.0,-156.0,0
-265.0,43.0,-21.0,81.0,-138.0,-159.0,0
-262.0,43.0,-21.0,77.0,-140.0,-161.0,0
-263.0,46.0,-18.0,70.0,-146.0,-162.0,0
-260.0,44.0,-15.0,63.0,-150.0,-164.0,0
-260.0,47.0,-18.0,55.0,-156.0,-165.0,0
-258.0,46.0,-15.0,47.0,-158.0,-168.0,0
-261.0,46.0,-19.0,40.0,-163.0,-168.0,0
-259.0,47.0,-15.0,32.0,-167.0,-170.0,0
-260.0,45.0,-13.0,25.0,-169.0,-170.0,0
-258.0,49.0,-16.0,17.0,-174.0,-170.0,0
-259.0,48.0,-12.0,12.0,-177.0,-167.0,0
-258.0,45.0,-11.0,5.0,-181.0,-167.0,0
-257.0,43.0,-15.0,-3.0,-186.0,-165.0,0
-256.0,44.0,-13.0,-9.0,-190.0,-164.0,0
-258.0,43.0,-13.0,-13.0,-195.0,-163.0,0
-257.0,44.0,-11.0,-16.0,-200.0,-160.0,0
-255.0,41.0,-11.0,-17.0,-204.0,-158.0,0
-259.0,42.0,-8.0,-17.0,-210.0,-155.0,0
-255.0,38.0,-10.0,-12.0,-213.0,-151.0,0
-253.0,37.0,-9.0,-10.0,-218.0,-148.0,0
-257.0,37.0,-9.0,-7.0,-222.0,-145.0,0
-257.0,37.0,-7.0,-6.0,-226.0,-140.0,0
-258.0,34.0,-8.0,-5.0,-231.0,-134.0,0
-257.0,32.0,-5.0,-4.0,-233.0,-130.0,0
-257.0,32.0,-5.0,-4.0,-237.0,-123.0,0
-257.0,33.0,-6.0,-4.0,-240.0,-120.0,0
-258.0,46.0,-9.0,-5.0,-242.0,-115.0,0
-257.0,32.0,-5.0,-3.0,-247.0,-110.0,0
-259.0,29.0,-6.0,-3.0,-249.0,-106.0,0
-261.0,33.0,-3.0,-3.0,-250.0,-101.0,0
-259.0,30.0,3.0,-2.0,-248.0,-97.0,0
-259.0,27.0,-2.0,-1.0,-245.0,-93.0,0
-258.0,28.0,-1.0,1.0,-242.0,-88.0,0
-256.0,26.0,-1.0,1.0,-236.0,-84.0,0
-259.0,29.0,-2.0,1.0,-230.0,-80.0,0
-254.0,28.0,1.0,4.0,-225.0,-78.0,0
-259.0,29.0,-2.0,6.0,-221.0,-77.0,0
-255.0,28.0,4.0,7.0,-216.0,-76.0,0
-256.0,27.0,3.0,11.0,-212.0,-75.0,0
-257.0,28.0,5.0,16.0,-209.0,-75.0,0
-257.0,27.0,7.0,21.0,-205.0,-80.0,0
-254.0,28.0,3.0,28.0,-203.0,-82.0,0
-257.0,26.0,4.0,37.0,-198.0,-87.0,0
-257.0,28.0,6.0,45.0,-196.0,-93.0,0
-259.0,26.0,5.0,55.0,-192.0,-100.0,0
-259.0,27.0,8.0,66.0,-190.0,-104.0,0
-259.0,29.0,5.0,75.0,-189.0,-114.0,0
-259.0,26.0,6.0,87.0,-186.0,-123.0,0
-262.0,27.0,7.0,96.0,-185.0,-134.0,0
-262.0,25.0,8.0,104.0,-184.0,-142.0,0
-265.0,29.0,6.0,111.0,-184.0,-153.0,0
-264.0,27.0,8.0,119.0,-184.0,-161.0,0
-267.0,27.0,6.0,124.0,-184.0,-173.0,0
-265.0,26.0,6.0,128.0,-183.0,-181.0,0
-267.0,27.0,6.0,130.0,-186.0,-189.0,0
-269.0,30.0,7.0,133.0,-186.0,-196.0,0
-270.0,26.0,7.0,135.0,-186.0,-203.0,0
-269.0,29.0,8.0,135.0,-186.0,-208.0,0
-268.0,28.0,7.0,133.0,-185.0,-219.0,0
-267.0,30.0,4.0,132.0,-187.0,-220.0,0
-269.0,32.0,5.0,125.0,-188.0,-227.0,0
-268.0,32.0,8.0,120.0,-189.0,-231.0,0
-268.0,30.0,8.0,113.0,-194.0,-238.0,0
-269.0,34.0,3.0,105.0,-199.0,-242.0,0
-266.0,32.0,5.0,97.0,-206.0,-249.0,0
-267.0,33.0,4.0,89.0,-213.0,-253.0,0
-265.0,32.0,6.0,80.0,-222.0,-262.0,0
-263.0,34.0,7.0,71.0,-232.0,-268.0,0
-265.0,34.0,8.0,64.0,-241.0,-280.0,0
-264.0,33.0,9.0,57.0,-249.0,-285.0,0
-262.0,29.0,8.0,54.0,-258.0,-297.0,0
-260.0,32.0,8.0,53.0,-269.0,-299.0,0
-263.0,29.0,10.0,56.0,-276.0,-308.0,0
-263.0,27.0,9.0,57.0,-284.0,-310.0,0
-265.0,29.0,12.0,55.0,-292.0,-317.0,0
-260.0,28.0,8.0,55.0,-301.0,-319.0,0
-264.0,28.0,10.0,55.0,-309.0,-323.0,0
-262.0,25.0,10.0,55.0,-320.0,-325.0,0
-261.0,27.0,10.0,53.0,-330.0,-328.0,0
-264.0,24.0,13.0,51.0,-340.0,-324.0,0
-263.0,24.0,15.0,51.0,-348.0,-325.0,0
-261.0,23.0,9.0,51.0,-358.0,-324.0,0
-263.0,20.0,11.0,51.0,-365.0,-326.0,0
-261.0,20.0,15.0,52.0,-373.0,-320.0,0
-262.0,18.0,13.0,54.0,-381.0,-316.0,0
-261.0,20.0,11.0,56.0,-388.0,-307.0,0
-261.0,19.0,15.0,58.0,-397.0,-308.0,0
-260.0,19.0,16.0,58.0,-403.0,-303.0,0
-258.0,18.0,17.0,62.0,-410.0,-299.0,0
-260.0,19.0,19.0,66.0,-419.0,-290.0,0
-261.0,19.0,16.0,68.0,-428.0,-291.0,0
-255.0,14.0,17.0,70.0,-439.0,-288.0,0
-255.0,12.0,18.0,70.0,-447.0,-289.0,0
-257.0,12.0,19.0,70.0,-452.0,-285.0,0
-257.0,13.0,22.0,69.0,-459.0,-289.0,0
-255.0,11.0,20.0,71.0,-467.0,-288.0,0
-257.0,8.0,27.0,73.0,-475.0,-290.0,0
-255.0,10.0,23.0,76.0,-480.0,-288.0,0
-257.0,6.0,27.0,78.0,-485.0,-294.0,0
-259.0,12.0,28.0,79.0,-491.0,-294.0,0
-261.0,9.0,28.0,82.0,-495.0,-298.0,0
-260.0,9.0,30.0,87.0,-501.0,-297.0,0
-258.0,7.0,33.0,93.0,-505.0,-300.0,0
-257.0,2.0,32.0,99.0,-510.0,-299.0,0
-259.0,7.0,35.0,105.0,-514.0,-301.0,0
-259.0,3.0,31.0,111.0,-519.0,-302.0,0
-260.0,4.0,36.0,117.0,-521.0,-310.0,0
-258.0,-1.0,35.0,123.0,-527.0,-311.0,0
-258.0,1.0,35.0,129.0,-534.0,-318.0,0
-262.0,5.0,36.0,136.0,-539.0,-321.0,0
-260.0,2.0,39.0,141.0,-546.0,-326.0,0
-262.0,-1.0,38.0,148.0,-552.0,-329.0,0
-259.0,3.0,41.0,154.0,-560.0,-333.0,0
-260.0,1.0,41.0,160.0,-569.0,-334.0,0
-257.0,-3.0,41.0,164.0,-576.0,-341.0,0
-258.0,-3.0,40.0,167.0,-584.0,-347.0,0
-258.0,-2.0,43.0,171.0,-588.0,-355.0,0
-257.0,-1.0,43.0,172.0,-593.0,-359.0,0
-258.0,-4.0,48.0,173.0,-597.0,-368.0,0
-255.0,0.0,46.0,178.0,-601.0,-370.0,0
-257.0,-3.0,50.0,179.0,-604.0,-376.0,0
-258.0,-3.0,48.0,179.0,-606.0,-381.0,0
-257.0,-2.0,48.0,179.0,-607.0,-392.0,0
-257.0,-2.0,57.0,177.0,-609.0,-397.0,0
-255.0,-2.0,53.0,176.0,-611.0,-404.0,0
-256.0,-2.0,55.0,174.0,-612.0,-407.0,0
-255.0,-3.0,53.0,173.0,-614.0,-417.0,0
-257.0,0.0,55.0,170.0,-616.0,-422.0,0
-253.0,-4.0,56.0,172.0,-618.0,-427.0,0
-252.0,-4.0,56.0,172.0,-623.0,-429.0,0
-253.0,-4.0,59.0,169.0,-626.0,-434.0,0
-256.0,-4.0,60.0,169.0,-627.0,-435.0,0
-256.0,-4.0,59.0,165.0,-631.0,-441.0,0
-257.0,-4.0,58.0,160.0,-638.0,-440.0,0
-258.0,-3.0,58.0,157.0,-650.0,-441.0,0
-258.0,-2.0,60.0,154.0,-667.0,-437.0,0
-258.0,-4.0,59.0,149.0,-683.0,-437.0,0
-259.0,-4.0,59.0,141.0,-701.0,-432.0,0
-251.0,-5.0,60.0,130.0,-719.0,-429.0,0
-253.0,-6.0,63.0,117.0,-740.0,-425.0,0
-251.0,-4.0,62.0,105.0,-757.0,-429.0,0
-249.0,-6.0,64.0,99.0,-774.0,-431.0,0
-246.0,-9.0,65.0,94.0,-790.0,-433.0,0
-245.0,-8.0,65.0,89.0,-807.0,-429.0,0
-240.0,-11.0,68.0,85.0,-821.0,-426.0,0
-242.0,-11.0,76.0,84.0,-832.0,-422.0,0
-237.0,-11.0,74.0,87.0,-833.0,-420.0,0
-237.0,-12.0,84.0,92.0,-828.0,-418.0,0
-236.0,-13.0,82.0,100.0,-813.0,-417.0,0
-236.0,-14.0,85.0,112.0,-795.0,-413.0,0
-235.0,-14.0,89.0,124.0,-778.0,-411.0,0
-238.0,-16.0,90.0,132.0,-763.0,-405.0,0
-237.0,-17.0,91.0,138.0,-748.0,-402.0,0
-236.0,-18.0,98.0,140.0,-729.0,-396.0,0
-236.0,-18.0,94.0,140.0,-709.0,-395.0,0
-238.0,-21.0,95.0,135.0,-682.0,-391.0,0
-240.0,-23.0,97.0,125.0,-654.0,-391.0,0
-240.0,-26.0,99.0,112.0,-625.0,-387.0,0
-249.0,-24.0,101.0,94.0,-597.0,-388.0,0
-243.0,-24.0,100.0,76.0,-561.0,-374.0,0
-235.0,-25.0,100.0,55.0,-527.0,-363.0,0
-234.0,-28.0,100.0,28.0,-481.0,-362.0,0
-231.0,-32.0,103.0,-3.0,-421.0,-366.0,0
-234.0,-35.0,101.0,-38.0,-363.0,-371.0,0
-236.0,-33.0,97.0,-74.0,-304.0,-378.0,0
-237.0,-36.0,102.0,-105.0,-249.0,-378.0,0
-245.0,-33.0,105.0,-125.0,-195.0,-375.0,0
-238.0,-38.0,104.0,-127.0,-148.0,-361.0,0
-241.0,-46.0,110.0,-110.0,-109.0,-345.0,0
-237.0,-46.0,105.0,-79.0,-80.0,-325.0,0
-232.0,-49.0,107.0,-35.0,-67.0,-312.0,0
-234.0,-45.0,103.0,13.0,-60.0,-300.0,0
-231.0,-47.0,104.0,71.0,-69.0,-288.0,0
-233.0,-43.0,98.0,137.0,-98.0,-279.0,0
-231.0,-40.0,100.0,200.0,-145.0,-277.0,0
-228.0,-32.0,91.0,262.0,-202.0,-277.0,0
-223.0,-32.0,92.0,316.0,-268.0,-283.0,0
-225.0,-28.0,90.0,363.0,-340.0,-291.0,0
-219.0,-22.0,86.0,393.0,-416.0,-302.0,0
-218.0,-12.0,90.0,412.0,-493.0,-312.0,0
-216.0,-8.0,84.0,417.0,-545.0,-308.0,0
-215.0,-4.0,90.0,407.0,-585.0,-300.0,0
-216.0,-2.0,93.0,386.0,-616.0,-286.0,0
-223.0,1.0,93.0,351.0,-632.0,-274.0,0
-223.0,4.0,96.0,306.0,-640.0,-261.0,0
-229.0,-1.0,104.0,259.0,-647.0,-249.0,0
-230.0,-4.0,103.0,208.0,-649.0,-238.0,0
-232.0,-4.0,110.0,158.0,-646.0,-229.0,0
-231.0,-4.0,115.0,117.0,-635.0,-219.0,0
-236.0,-4.0,116.0,86.0,-616.0,-202.0,0
-231.0,-14.0,116.0,61.0,-599.0,-189.0,0
-232.0,-12.0,119.0,45.0,-583.0,-188.0,0
-230.0,-10.0,115.0,36.0,-569.0,-189.0,0
-227.0,-14.0,115.0,29.0,-559.0,-196.0,0
-228.0,-18.0,117.0,24.0,-556.0,-199.0,0
-224.0,-17.0,114.0,23.0,-558.0,-204.0,0
-224.0,-19.0,113.0,22.0,-566.0,-212.0,0
-224.0,-20.0,107.0,20.0,-581.0,-222.0,0
-227.0,-20.0,110.0,18.0,-599.0,-228.0,0
-224.0,-23.0,109.0,18.0,-625.0,-230.0,0
-222.0,-21.0,110.0,23.0,-648.0,-227.0,0
-221.0,-22.0,118.0,32.0,-664.0,-225.0,0
-220.0,-22.0,116.0,42.0,-676.0,-220.0,0
-218.0,-20.0,115.0,48.0,-682.0,-222.0,0
-215.0,-17.0,116.0,50.0,-684.0,-222.0,0
-212.0,-20.0,116.0,49.0,-682.0,-223.0,0
-213.0,-18.0,117.0,41.0,-674.0,-219.0,0
-211.0,-21.0,119.0,30.0,-664.0,-216.0,0
-210.0,-21.0,121.0,14.0,-656.0,-203.0,0
-210.0,-21.0,123.0,-1.0,-645.0,-185.0,0
-208.0,-24.0,129.0,-22.0,-634.0,-167.0,0
-206.0,-27.0,130.0,-35.0,-622.0,-160.0,0
-204.0,-28.0,131.0,-43.0,-615.0,-157.0,0
-205.0,-32.0,131.0,-46.0,-610.0,-159.0,0
-202.0,-36.0,132.0,-53.0,-613.0,-152.0,0
-202.0,-33.0,136.0,-61.0,-621.0,-147.0,0
-193.0,-34.0,136.0,-55.0,-630.0,-136.0,0
-195.0,-31.0,139.0,-35.0,-634.0,-134.0,0
-194.0,-34.0,138.0,-22.0,-638.0,-120.0,0
-189.0,-39.0,140.0,-23.0,-637.0,-106.0,0
-183.0,-38.0,141.0,-36.0,-628.0,-100.0,0
-176.0,-41.0,150.0,-45.0,-621.0,-108.0,0
-177.0,-41.0,146.0,-48.0,-618.0,-112.0,0
-174.0,-43.0,145.0,-48.0,-613.0,-121.0,0
-174.0,-43.0,149.0,-47.0,-606.0,-127.0,0
-177.0,-43.0,149.0,-45.0,-597.0,-135.0,0
-178.0,-46.0,148.0,-43.0,-584.0,-140.0,0
-181.0,-48.0,152.0,-42.0,-570.0,-146.0,0
-183.0,-45.0,150.0,-39.0,-557.0,-148.0,0
-186.0,-46.0,154.0,-34.0,-543.0,-155.0,0
-187.0,-45.0,151.0,-24.0,-533.0,-158.0,0
-186.0,-46.0,150.0,-14.0,-524.0,-166.0,0
-186.0,-44.0,152.0,-1.0,-520.0,-170.0,0
-187.0,-45.0,153.0,15.0,-516.0,-180.0,0
-186.0,-44.0,149.0,30.0,-514.0,-185.0,0
-185.0,-43.0,150.0,47.0,-515.0,-195.0,0
-183.0,-43.0,151.0,63.0,-522.0,-199.0,0
-184.0,-40.0,153.0,77.0,-530.0,-211.0,0
-185.0,-40.0,151.0,87.0,-541.0,-221.0,0
-188.0,-41.0,151.0,88.0,-556.0,-226.0,0
-182.0,-43.0,150.0,86.0,-569.0,-221.0,0
-185.0,-39.0,153.0,86.0,-577.0,-222.0,0
-182.0,-40.0,151.0,90.0,-584.0,-225.0,0
-181.0,-36.0,152.0,95.0,-585.0,-237.0,0
-180.0,-37.0,154.0,99.0,-584.0,-244.0,0
-179.0,-35.0,155.0,106.0,-583.0,-254.0,0
-178.0,-33.0,156.0,111.0,-581.0,-258.0,0
-181.0,-35.0,153.0,112.0,-580.0,-270.0,0
-181.0,-31.0,154.0,110.0,-581.0,-275.0,0
-181.0,-27.0,157.0,105.0,-584.0,-285.0,0
-176.0,-31.0,156.0,92.0,-593.0,-288.0,0
-178.0,-31.0,159.0,75.0,-603.0,-299.0,0
-181.0,-32.0,162.0,58.0,-616.0,-300.0,0
-180.0,-33.0,161.0,39.0,-629.0,-306.0,0
-178.0,-36.0,163.0,22.0,-641.0,-307.0,0
-179.0,-33.0,166.0,6.0,-655.0,-313.0,0
-180.0,-40.0,164.0,-7.0,-668.0,-313.0,0
-179.0,-43.0,165.0,-14.0,-683.0,-317.0,0
-180.0,-39.0,163.0,-16.0,-697.0,-312.0,0
-181.0,-43.0,165.0,-15.0,-709.0,-310.0,0
-180.0,-45.0,170.0,-9.0,-722.0,-304.0,0
-176.0,-45.0,168.0,-3.0,-730.0,-302.0,0
-177.0,-48.0,168.0,3.0,-736.0,-296.0,0
-178.0,-45.0,165.0,12.0,-739.0,-296.0,0
-176.0,-46.0,166.0,19.0,-741.0,-291.0,0
-174.0,-47.0,168.0,27.0,-742.0,-292.0,0
-173.0,-43.0,168.0,29.0,-744.0,-291.0,0
-173.0,-45.0,170.0,33.0,-745.0,-295.0,0
-169.0,-42.0,169.0,37.0,-744.0,-292.0,0
-168.0,-43.0,171.0,41.0,-745.0,-295.0,0
-167.0,-42.0,172.0,42.0,-744.0,-293.0,0
-163.0,-41.0,171.0,42.0,-742.0,-295.0,0
-163.0,-40.0,175.0,37.0,-740.0,-292.0,0
-160.0,-38.0,175.0,29.0,-740.0,-293.0,0
-159.0,-43.0,178.0,19.0,-742.0,-290.0,0
-155.0,-44.0,174.0,6.0,-744.0,-290.0,0
-153.0,-46.0,178.0,-8.0,-747.0,-284.0,0
-154.0,-46.0,177.0,-23.0,-747.0,-283.0,0
-146.0,-47.0,181.0,-42.0,-748.0,-276.0,0
-145.0,-49.0,183.0,-61.0,-746.0,-271.0,0
-140.0,-54.0,184.0,-89.0,-742.0,-257.0,0
-139.0,-60.0,187.0,-111.0,-734.0,-247.0,0
-136.0,-64.0,189.0,-133.0,-727.0,-236.0,0
-135.0,-68.0,192.0,-150.0,-715.0,-226.0,0
-134.0,-69.0,196.0,-164.0,-701.0,-217.0,0
-132.0,-70.0,197.0,-167.0,-690.0,-214.0,0
-131.0,-71.0,201.0,-161.0,-682.0,-210.0,0
-129.0,-71.0,203.0,-142.0,-676.0,-211.0,0
-132.0,-73.0,202.0,-116.0,-675.0,-209.0,0
-129.0,-73.0,203.0,-82.0,-675.0,-214.0,0
-132.0,-70.0,198.0,-50.0,-675.0,-216.0,0
-129.0,-70.0,198.0,-12.0,-671.0,-219.0,0
-126.0,-68.0,199.0,11.0,-664.0,-219.0,0
-129.0,-67.0,197.0,26.0,-655.0,-217.0,0
-128.0,-65.0,194.0,29.0,-643.0,-212.0,0
-126.0,-61.0,195.0,27.0,-628.0,-207.0,0
-124.0,-63.0,197.0,18.0,-607.0,-196.0,0
-124.0,-57.0,200.0,4.0,-582.0,-183.0,0
-127.0,-54.0,198.0,-6.0,-554.0,-168.0,0
-125.0,-54.0,200.0,-12.0,-527.0,-154.0,0
-121.0,-53.0,206.0,-15.0,-500.0,-133.0,0
-121.0,-52.0,208.0,-10.0,-481.0,-121.0,0
-116.0,-48.0,211.0,-2.0,-467.0,-109.0,0
-113.0,-48.0,211.0,6.0,-460.0,-103.0,0
-109.0,-46.0,211.0,16.0,-454.0,-97.0,0
-104.0,-45.0,214.0,21.0,-450.0,-92.0,0
-102.0,-43.0,213.0,26.0,-445.0,-88.0,0
-100.0,-45.0,211.0,29.0,-446.0,-83.0,0
-100.0,-43.0,212.0,31.0,-450.0,-75.0,0
-99.0,-45.0,215.0,29.0,-459.0,-70.0,0
-98.0,-43.0,211.0,24.0,-471.0,-59.0,0
-97.0,-42.0,205.0,8.0,-479.0,-45.0,0
-98.0,-47.0,207.0,-18.0,-488.0,-33.0,0
-98.0,-48.0,201.0,-57.0,-499.0,-19.0,0
-102.0,-47.0,198.0,-108.0,-506.0,-4.0,0
-103.0,-53.0,197.0,-166.0,-515.0,13.0,0
-112.0,-53.0,193.0,-230.0,-524.0,29.0,0
-111.0,-63.0,194.0,-293.0,-537.0,47.0,0
-118.0,-64.0,195.0,-349.0,-554.0,61.0,0
-123.0,-71.0,196.0,-391.0,-577.0,71.0,0
-124.0,-74.0,200.0,-415.0,-606.0,77.0,0
-127.0,-84.0,199.0,-414.0,-638.0,75.0,0
-132.0,-86.0,200.0,-385.0,-674.0,67.0,0
-139.0,-84.0,196.0,-330.0,-712.0,63.0,0
-140.0,-85.0,194.0,-257.0,-748.0,62.0,0
-140.0,-85.0,189.0,-179.0,-775.0,66.0,0
-139.0,-83.0,191.0,-110.0,-790.0,70.0,0
-133.0,-82.0,187.0,-55.0,-789.0,71.0,0
-126.0,-79.0,185.0,-23.0,-778.0,67.0,0
-119.0,-79.0,184.0,-11.0,-755.0,59.0,0
-115.0,-79.0,188.0,-14.0,-719.0,42.0,0
-108.0,-75.0,191.0,-29.0,-687.0,24.0,0
-105.0,-75.0,198.0,-43.0,-654.0,-1.0,0
-101.0,-74.0,203.0,-53.0,-625.0,-26.0,0
-102.0,-72.0,203.0,-53.0,-600.0,-53.0,0
-102.0,-73.0,213.0,-36.0,-582.0,-77.0,0
-108.0,-66.0,216.0,-6.0,-572.0,-100.0,0
-104.0,-69.0,219.0,34.0,-571.0,-118.0,0
-109.0,-63.0,220.0,83.0,-575.0,-133.0,0
-107.0,-59.0,218.0,130.0,-584.0,-142.0,0
-103.0,-54.0,214.0,175.0,-601.0,-151.0,0
-105.0,-45.0,213.0,214.0,-614.0,-154.0,0
-101.0,-43.0,209.0,227.0,-626.0,-158.0,0
-98.0,-37.0,213.0,215.0,-636.0,-157.0,0
-94.0,-37.0,212.0,185.0,-647.0,-158.0,0
-95.0,-36.0,217.0,136.0,-662.0,-158.0,0
-92.0,-34.0,214.0,77.0,-681.0,-160.0,0
-90.0,-36.0,217.0,14.0,-704.0,-161.0,0
-93.0,-39.0,218.0,-46.0,-732.0,-164.0,0
-92.0,-39.0,223.0,-98.0,-762.0,-165.0,0
-92.0,-44.0,226.0,-138.0,-798.0,-172.0,0
-96.0,-47.0,230.0,-166.0,-826.0,-176.0,0
-94.0,-51.0,227.0,-171.0,-853.0,-182.0,0
-91.0,-53.0,228.0,-165.0,-876.0,-183.0,0
-94.0,-55.0,228.0,-148.0,-896.0,-184.0,0
-86.0,-58.0,225.0,-125.0,-909.0,-177.0,0
-89.0,-53.0,231.0,-96.0,-914.0,-172.0,0
-86.0,-53.0,226.0,-67.0,-911.0,-163.0,0
-80.0,-55.0,223.0,-42.0,-901.0,-155.0,0
-76.0,-54.0,219.0,-26.0,-882.0,-144.0,0
-69.0,-53.0,222.0,-18.0,-851.0,-138.0,0
-64.0,-53.0,222.0,-18.0,-820.0,-130.0,0
-60.0,-52.0,217.0,-24.0,-787.0,-130.0,0
-53.0,-57.0,220.0,-38.0,-753.0,-127.0,0
-49.0,-56.0,219.0,-56.0,-721.0,-129.0,0
-47.0,-55.0,225.0,-75.0,-695.0,-127.0,0
-41.0,-57.0,219.0,-90.0,-673.0,-126.0,0
-38.0,-60.0,222.0,-105.0,-659.0,-120.0,0
-41.0,-60.0,224.0,-117.0,-652.0,-113.0,0
-38.0,-61.0,226.0,-127.0,-645.0,-101.0,0
-37.0,-58.0,227.0,-131.0,-645.0,-90.0,0
-33.0,-61.0,228.0,-131.0,-646.0,-75.0,0
-27.0,-61.0,225.0,-128.0,-644.0,-65.0,0
-27.0,-58.0,224.0,-122.0,-636.0,-51.0,0
-25.0,-56.0,224.0,-116.0,-621.0,-42.0,0
-24.0,-57.0,221.0,-114.0,-601.0,-29.0,0
-19.0,-59.0,223.0,-115.0,-576.0,-19.0,0
-15.0,-60.0,218.0,-125.0,-550.0,-7.0,0
-10.0,-61.0,219.0,-141.0,-521.0,1.0,0
-7.0,-61.0,219.0,-161.0,-491.0,7.0,0
-4.0,-64.0,221.0,-182.0,-451.0,9.0,0
-4.0,-68.0,222.0,-205.0,-421.0,16.0,0
-4.0,-74.0,230.0,-212.0,-399.0,15.0,0
-3.0,-79.0,235.0,-205.0,-385.0,18.0,0
0.0,-83.0,241.0,-180.0,-378.0,13.0,0
-1.0,-88.0,242.0,-143.0,-376.0,17.0,0
-1.0,-90.0,246.0,-93.0,-380.0,13.0,0
-2.0,-88.0,247.0,-32.0,-391.0,12.0,0
1.0,-91.0,246.0,36.0,-406.0,8.0,0
-1.0,-83.0,247.0,105.0,-419.0,10.0,0
-4.0,-79.0,247.0,173.0,-433.0,10.0,0
-5.0,-73.0,240.0,251.0,-437.0,21.0,0
-6.0,-69.0,240.0,303.0,-434.0,31.0,0
-5.0,-64.0,237.0,335.0,-425.0,38.0,0
-4.0,-59.0,228.0,343.0,-412.0,37.0,0
0.0,-49.0,220.0,331.0,-394.0,38.0,0
0.0,-44.0,220.0,305.0,-371.0,32.0,0
1.0,-37.0,212.0,271.0,-345.0,37.0,0
1.0,-35.0,210.0,232.0,-315.0,40.0,0
2.0,-34.0,204.0,189.0,-278.0,48.0,0
5.0,-33.0,205.0,137.0,-233.0,49.0,0
4.0,-34.0,203.0,63.0,-194.0,51.0,0
3.0,-39.0,207.0,7.0,-158.0,47.0,0
10.0,-45.0,213.0,-44.0,-123.0,49.0,0
6.0,-53.0,217.0,-78.0,-92.0,40.0,0
5.0,-57.0,223.0,-95.0,-73.0,31.0,0
5.0,-65.0,225.0,-94.0,-57.0,17.0,0
2.0,-69.0,234.0,-70.0,-47.0,11.0,0
3.0,-69.0,233.0,-29.0,-37.0,3.0,0
0.0,-73.0,238.0,25.0,-30.0,0.0,0
-2.0,-71.0,241.0,88.0,-16.0,-7.0,0
-4.0,-70.0,239.0,171.0,-5.0,-6.0,0
-6.0,-70.0,237.0,234.0,6.0,-3.0,0
-7.0,-66.0,235.0,284.0,14.0,8.0,0
-10.0,-62.0,235.0,319.0,23.0,20.0,0
-7.0,-58.0,233.0,333.0,33.0,42.0,0
-9.0,-52.0,231.0,334.0,43.0,66.0,0
-8.0,-49.0,236.0,325.0,52.0,96.0,0
-10.0,-50.0,235.0,300.0,58.0,116.0,0
-12.0,-46.0,238.0,266.0,60.0,134.0,0
-15.0,-45.0,239.0,226.0,59.0,144.0,0
-21.0,-46.0,244.0,181.0,52.0,151.0,0
-24.0,-47.0,251.0,146.0,44.0,152.0,0
-25.0,-48.0,250.0,119.0,29.0,147.0,0
-31.0,-49.0,249.0,100.0,8.0,138.0,0
-38.0,-49.0,247.0,89.0,-19.0,132.0,0
-44.0,-53.0,246.0,84.0,-54.0,123.0,0
-47.0,-59.0,244.0,72.0,-92.0,110.0,0
-50.0,-58.0,242.0,58.0,-129.0,90.0,0
-55.0,-58.0,239.0,54.0,-158.0,75.0,0
-54.0,-61.0,235.0,61.0,-178.0,62.0,0
-59.0,-61.0,236.0,87.0,-192.0,52.0,0
-58.0,-60.0,230.0,111.0,-197.0,37.0,0
-54.0,-59.0,225.0,136.0,-196.0,23.0,0
-54.0,-57.0,219.0,153.0,-189.0,6.0,0
-49.0,-58.0,210.0,158.0,-178.0,-8.0,0
-44.0,-57.0,206.0,151.0,-166.0,-26.0,0
-41.0,-52.0,208.0,132.0,-153.0,-46.0,0
-35.0,-58.0,212.0,106.0,-138.0,-68.0,0
-33.0,-61.0,211.0,78.0,-125.0,-88.0,0
-30.0,-59.0,212.0,51.0,-113.0,-121.0,0
-29.0,-63.0,221.0,28.0,-110.0,-146.0,0
-32.0,-64.0,225.0,25.0,-112.0,-168.0,0
-30.0,-68.0,233.0,38.0,-118.0,-181.0,0
-28.0,-66.0,239.0,69.0,-127.0,-193.0,0
-24.0,-66.0,241.0,115.0,-141.0,-200.0,0
-19.0,-63.0,245.0,170.0,-153.0,-203.0,0
-16.0,-60.0,241.0,230.0,-160.0,-200.0,0
-12.0,-55.0,239.0,287.0,-160.0,-194.0,0
-10.0,-48.0,237.0,340.0,-152.0,-177.0,0
-5.0,-42.0,235.0,380.0,-133.0,-150.0,0
-1.0,-32.0,226.0,408.0,-104.0,-128.0,0
3.0,-27.0,225.0,405.0,-71.0,-107.0,0
5.0,-26.0,222.0,373.0,-35.0,-88.0,0
8.0,-21.0,222.0,319.0,1.0,-73.0,0
8.0,-16.0,223.0,247.0,36.0,-59.0,0
10.0,-18.0,222.0,162.0,65.0,-44.0,0
6.0,-22.0,227.0,69.0,88.0,-30.0,0
4.0,-29.0,229.0,-20.0,104.0,-19.0,0
4.0,-32.0,231.0,-100.0,111.0,-6.0,0
3.0,-39.0,236.0,-164.0,113.0,3.0,0
5.0,-48.0,239.0,-212.0,111.0,7.0,0
3.0,-55.0,237.0,-228.0,115.0,13.0,0
1.0,-56.0,236.0,-224.0,124.0,18.0,0
3.0,-62.0,237.0,-208.0,143.0,27.0,0
5.0,-63.0,236.0,-183.0,171.0,36.0,0
6.0,-65.0,235.0,-152.0,209.0,38.0,0
6.0,-63.0,240.0,-121.0,252.0,36.0,0
8.0,-63.0,237.0,-95.0,299.0,31.0,0
8.0,-62.0,235.0,-72.0,347.0,22.0,0
11.0,-77.0,241.0,-56.0,400.0,5.0,0
10.0,-57.0,246.0,-47.0,436.0,-14.0,0
7.0,-57.0,242.0,-45.0,462.0,-38.0,0
16.0,-55.0,248.0,-46.0,478.0,-66.0,0
17.0,-54.0,268.0,-50.0,482.0,-96.0,0
2.0,-52.0,256.0,-56.0,475.0,-128.0,0
13.0,-36.0,251.0,-61.0,458.0,-154.0,0
1.0,-50.0,255.0,-70.0,432.0,-178.0,0
4.0,-45.0,246.0,-80.0,399.0,-202.0,0
-1.0,-49.0,249.0,-91.0,361.0,-220.0,0
-5.0,-47.0,247.0,-100.0,315.0,-233.0,0
-6.0,-50.0,245.0,-102.0,279.0,-240.0,0
-10.0,-48.0,239.0,-99.0,252.0,-239.0,0
-9.0,-49.0,237.0,-89.0,234.0,-236.0,0
-11.0,-51.0,230.0,-77.0,229.0,-225.0,0
-10.0,-53.0,224.0,-65.0,236.0,-214.0,0
-12.0,-50.0,218.0,-57.0,253.0,-200.0,0
-14.0,-54.0,216.0,-59.0,272.0,-181.0,0
-19.0,-55.0,215.0,-69.0,294.0,-160.0,0
-24.0,-56.0,211.0,-84.0,308.0,-143.0,0
-33.0,-57.0,214.0,-103.0,313.0,-124.0,0
-37.0,-62.0,216.0,-127.0,310.0,-108.0,0
-43.0,-63.0,217.0,-149.0,297.0,-87.0,0
-51.0,-69.0,214.0,-165.0,279.0,-66.0,0
-53.0,-69.0,218.0,-175.0,256.0,-42.0,0
-56.0,-69.0,216.0,-165.0,233.0,-20.0,0
-59.0,-69.0,221.0,-134.0,213.0,2.0,0
-58.0,-68.0,218.0,-86.0,198.0,23.0,0
-59.0,-67.0,220.0,-21.0,188.0,44.0,0
-61.0,-68.0,223.0,53.0,183.0,64.0,0
-59.0,-62.0,226.0,129.0,178.0,86.0,0
-60.0,-57.0,222.0,219.0,177.0,97.0,0
-61.0,-49.0,224.0,281.0,177.0,106.0,0
-60.0,-46.0,225.0,330.0,178.0,108.0,0
-54.0,-43.0,228.0,355.0,176.0,106.0,0
-53.0,-38.0,226.0,358.0,177.0,97.0,0
-50.0,-37.0,228.0,341.0,176.0,88.0,0
-50.0,-38.0,230.0,304.0,178.0,72.0,0
-49.0,-35.0,232.0,252.0,183.0,58.0,0
-48.0,-37.0,233.0,190.0,184.0,41.0,0
-52.0,-35.0,236.0,124.0,188.0,24.0,0
-53.0,-40.0,236.0,42.0,189.0,9.0,0
-52.0,-41.0,237.0,-22.0,189.0,2.0,0
-53.0,-44.0,234.0,-78.0,188.0,-6.0,0
-55.0,-42.0,236.0,-123.0,184.0,-10.0,0
-60.0,-48.0,237.0,-154.0,180.0,-14.0,0
-58.0,-51.0,236.0,-174.0,173.0,-12.0,0
-55.0,-49.0,237.0,-185.0,164.0,-14.0,0
-57.0,-51.0,232.0,-189.0,154.0,-10.0,0
-58.0,-54.0,235.0,-185.0,144.0,-9.0,0
-58.0,-55.0,232.0,-179.0,130.0,1.0,0
-56.0,-57.0,231.0,-166.0,117.0,4.0,0
-58.0,-55.0,226.0,-149.0,103.0,13.0,0
-57.0,-57.0,224.0,-132.0,87.0,17.0,0
-54.0,-58.0,225.0,-116.0,70.0,20.0,0
-54.0,-58.0,224.0,-102.0,55.0,20.0,0
-56.0,-58.0,226.0,-88.0,37.0,24.0,0
-54.0,-62.0,222.0,-69.0,21.0,21.0,0
-57.0,-63.0,221.0,-55.0,3.0,21.0,0
-58.0,-61.0,220.0,-44.0,-14.0,15.0,0
-59.0,-64.0,225.0,-29.0,-36.0,15.0,0
-62.0,-60.0,222.0,-16.0,-52.0,11.0,0
-60.0,-59.0,223.0,1.0,-71.0,14.0,0
-58.0,-60.0,223.0,19.0,-89.0,11.0,0
-60.0,-57.0,223.0,40.0,-104.0,13.0,0
-61.0,-52.0,226.0,57.0,-122.0,12.0,0
-60.0,-49.0,225.0,73.0,-137.0,17.0,0
-56.0,-51.0,226.0,86.0,-150.0,17.0,0
-54.0,-52.0,229.0,94.0,-162.0,22.0,0
-53.0,-48.0,230.0,102.0,-169.0,22.0,0
-49.0,-45.0,230.0,106.0,-175.0,27.0,0
-44.0,-49.0,227.0,112.0,-175.0,25.0,0
-37.0,-47.0,233.0,117.0,-171.0,27.0,0
-35.0,-43.0,231.0,119.0,-166.0,22.0,0
-28.0,-44.0,230.0,123.0,-158.0,21.0,0
-26.0,-45.0,235.0,122.0,-148.0,16.0,0
-24.0,-45.0,235.0,116.0,-136.0,13.0,0
-21.0,-43.0,234.0,105.0,-119.0,6.0,0
-17.0,-46.0,236.0,91.0,-100.0,3.0,0
-17.0,-43.0,235.0,69.0,-79.0,-6.0,0
-12.0,-43.0,236.0,46.0,-54.0,-10.0,0
-11.0,-41.0,240.0,16.0,-33.0,-18.0,0
-10.0,-44.0,238.0,-6.0,-12.0,-22.0,0
-12.0,-45.0,240.0,-28.0,6.0,-29.0,0
-12.0,-44.0,237.0,-43.0,23.0,-29.0,0
-9.0,-47.0,238.0,-54.0,36.0,-36.0,0
-7.0,-48.0,237.0,-67.0,46.0,-35.0,0
-10.0,-48.0,242.0,-72.0,52.0,-41.0,0
-9.0,-49.0,238.0,-71.0,55.0,-40.0,0
-10.0,-51.0,237.0,-64.0,53.0,-39.0,0
-11.0,-48.0,233.0,-57.0,49.0,-35.0,0
-11.0,-53.0,234.0,-49.0,44.0,-39.0,0
-12.0,-52.0,235.0,-36.0,36.0,-36.0,0
-9.0,-56.0,232.0,-18.0,30.0,-35.0,0
-11.0,-55.0,230.0,-1.0,26.0,-31.0,0
-12.0,-52.0,235.0,16.0,22.0,-28.0,0
-12.0,-53.0,233.0,33.0,20.0,-22.0,0
-12.0,-49.0,227.0,48.0,18.0,-20.0,0
-12.0,-52.0,230.0,61.0,18.0,-15.0,0
-12.0,-51.0,227.0,71.0,17.0,-15.0,0
-10.0,-52.0,230.0,79.0,16.0,-11.0,0
-13.0,-47.0,227.0,81.0,16.0,-12.0,0
-12.0,-46.0,225.0,81.0,14.0,-10.0,0
-19.0,-46.0,235.0,78.0,13.0,-11.0,0
-16.0,-46.0,231.0,75.0,12.0,-9.0,0
-19.0,-46.0,232.0,68.0,12.0,-12.0,0
-21.0,-47.0,237.0,64.0,12.0,-10.0,0
-18.0,-45.0,234.0,62.0,15.0,-11.0,0
-18.0,-46.0,236.0,58.0,20.0,-8.0,0
-19.0,-47.0,232.0,57.0,26.0,-9.0,0
-22.0,-46.0,234.0,55.0,33.0,-6.0,0
-20.0,-48.0,230.0,58.0,41.0,-6.0,0
-19.0,-46.0,233.0,59.0,48.0,-2.0,0
-15.0,-43.0,235.0,61.0,55.0,-2.0,0
-20.0,-44.0,232.0,61.0,61.0,1.0,0
-18.0,-46.0,231.0,59.0,64.0,0.0,0
-16.0,-43.0,233.0,55.0,69.0,2.0,0
-20.0,-44.0,232.0,50.0,71.0,2.0,0
-23.0,-42.0,232.0,45.0,73.0,3.0,0
-20.0,-43.0,236.0,38.0,72.0,3.0,0
-21.0,-43.0,233.0,30.0,71.0,4.0,0
-21.0,-41.0,237.0,24.0,70.0,5.0,0
-22.0,-43.0,235.0,22.0,69.0,7.0,0
-25.0,-42.0,237.0,19.0,68.0,7.0,0
-24.0,-44.0,235.0,19.0,67.0,7.0,0
-23.0,-42.0,237.0,17.0,67.0,8.0,0
-25.0,-43.0,234.0,14.0,66.0,9.0,0
-23.0,-40.0,236.0,13.0,65.0,9.0,0
-26.0,-43.0,233.0,9.0,66.0,11.0,0
-23.0,-44.0,234.0,4.0,67.0,11.0,0
-28.0,-43.0,233.0,-1.0,66.0,13.0,0
-26.0,-42.0,230.0,-4.0,66.0,13.0,0
-30.0,-45.0,233.0,-3.0,68.0,13.0,0
-30.0,-47.0,231.0,0.0,68.0,13.0,0
-29.0,-46.0,234.0,5.0,67.0,13.0,0
-31.0,-46.0,232.0,10.0,67.0,14.0,0
-30.0,-46.0,232.0,16.0,68.0,12.0,0
-27.0,-43.0,233.0,21.0,70.0,12.0,0
-32.0,-46.0,232.0,28.0,67.0,12.0,0
-29.0,-46.0,236.0,32.0,68.0,11.0,0
-34.0,-45.0,232.0,37.0,66.0,12.0,0
-32.0,-44.0,234.0,42.0,63.0,11.0,0
-31.0,-44.0,232.0,47.0,63.0,9.0,0
-32.0,-46.0,235.0,48.0,61.0,8.0,0
-32.0,-43.0,231.0,47.0,59.0,8.0,0
-33.0,-41.0,239.0,42.0,55.0,7.0,0
-34.0,-41.0,230.0,36.0,55.0,6.0,0
-31.0,-43.0,233.0,28.0,52.0,5.0,0
-31.0,-46.0,237.0,22.0,50.0,4.0,0
-33.0,-44.0,231.0,17.0,50.0,3.0,0
-32.0,-42.0,233.0,13.0,47.0,1.0,0
-32.0,-43.0,233.0,9.0,47.0,2.0,0
-29.0,-46.0,236.0,10.0,48.0,-1.0,0
-32.0,-43.0,236.0,13.0,47.0,-1.0,0
-32.0,-44.0,233.0,16.0,46.0,-4.0,0
-29.0,-45.0,236.0,18.0,46.0,-5.0,0
-32.0,-42.0,231.0,23.0,44.0,-5.0,0
-29.0,-44.0,233.0,26.0,45.0,-6.0,0
-31.0,-44.0,232.0,30.0,44.0,-9.0,0
-30.0,-45.0,234.0,30.0,42.0,-8.0,0
-29.0,-44.0,232.0,31.0,40.0,-10.0,0
-30.0,-44.0,235.0,29.0,38.0,-10.0,0
-28.0,-41.0,228.0,27.0,37.0,-13.0,0
-31.0,-40.0,233.0,24.0,37.0,-11.0,0
-30.0,-42.0,231.0,23.0,37.0,-14.0,0
-27.0,-42.0,232.0,20.0,37.0,-13.0,0
-29.0,-41.0,233.0,14.0,38.0,-13.0,0
-29.0,-43.0,233.0,11.0,38.0,-14.0,0
-28.0,-45.0,235.0,12.0,39.0,-16.0,0
-28.0,-44.0,234.0,12.0,40.0,-14.0,0
-26.0,-42.0,236.0,12.0,40.0,-17.0,0
-27.0,-42.0,231.0,11.0,41.0,-15.0,0
-26.0,-42.0,237.0,8.0,43.0,-17.0,0
-25.0,-42.0,234.0,6.0,45.0,-15.0,0
-24.0,-42.0,238.0,1.0,47.0,-16.0,0
-25.0,-41.0,234.0,-3.0,53.0,-12.0,0
-22.0,-46.0,236.0,-7.0,59.0,-14.0,0
-25.0,-43.0,235.0,-13.0,64.0,-11.0,0
-25.0,-42.0,234.0,-15.0,69.0,-14.0,0
-22.0,-46.0,236.0,-17.0,74.0,-11.0,0
-24.0,-41.0,234.0,-18.0,80.0,-14.0,0
-24.0,-45.0,233.0,-17.0,86.0,-13.0,0
-25.0,-43.0,231.0,-14.0,87.0,-15.0,0
-22.0,-42.0,234.0,-13.0,88.0,-12.0,0
-25.0,-42.0,234.0,-7.0,86.0,-14.0,0
-26.0,-41.0,234.0,-5.0,79.0,-11.0,0
-23.0,-40.0,235.0,-1.0,73.0,-12.0,0
-25.0,-41.0,233.0,3.0,64.0,-9.0,0
-28.0,-39.0,233.0,7.0,51.0,-9.0,0
-25.0,-40.0,232.0,13.0,42.0,-6.0,0
-26.0,-42.0,233.0,18.0,32.0,-5.0,0
-26.0,-42.0,236.0,21.0,23.0,-2.0,0
-28.0,-44.0,236.0,24.0,18.0,-3.0,0
-26.0,-42.0,232.0,27.0,18.0,1.0,0
-26.0,-40.0,234.0,31.0,18.0,0.0,0
-22.0,-43.0,236.0,31.0,19.0,1.0,0
-22.0,-41.0,232.0,32.0,23.0,-1.0,0
-22.0,-38.0,235.0,31.0,27.0,1.0,0
-23.0,-43.0,232.0,32.0,32.0,-3.0,0
-25.0,-39.0,235.0,26.0,38.0,-1.0,0
-26.0,-41.0,233.0,19.0,43.0,-5.0,0
-21.0,-40.0,236.0,16.0,49.0,-5.0,0
-24.0,-37.0,233.0,11.0,53.0,-9.0,0
-22.0,-42.0,234.0,6.0,58.0,-8.0,0
-22.0,-40.0,238.0,4.0,60.0,-11.0,0
-22.0,-43.0,233.0,3.0,64.0,-9.0,0
-23.0,-40.0,237.0,3.0,66.0,-11.0,0
-20.0,-40.0,239.0,2.0,66.0,-10.0,0
-23.0,-42.0,235.0,4.0,66.0,-12.0,0
-22.0,-44.0,238.0,4.0,63.0,-9.0,0
-20.0,-43.0,233.0,6.0,62.0,-11.0,0
-21.0,-41.0,234.0,8.0,62.0,-8.0,0
-21.0,-42.0,230.0,10.0,61.0,-10.0,0
-23.0,-40.0,235.0,11.0,61.0,-7.0,0
-22.0,-39.0,236.0,12.0,60.0,-8.0,0
-23.0,-39.0,233.0,11.0,60.0,-5.0,0
-21.0,-43.0,233.0,11.0,58.0,-8.0,0
-24.0,-38.0,232.0,12.0,58.0,-5.0,0
-25.0,-38.0,238.0,10.0,58.0,-8.0,0
-24.0,-42.0,233.0,10.0,58.0,-4.0,0
-26.0,-42.0,235.0,7.0,59.0,-5.0,0
-24.0,-41.0,240.0,8.0,61.0,-3.0,0
-23.0,-42.0,236.0,9.0,60.0,-6.0,0
-24.0,-41.0,234.0,11.0,60.0,-2.0,0
-25.0,-41.0,232.0,13.0,60.0,-5.0,0
-24.0,-42.0,237.0,15.0,60.0,-2.0,0
-29.0,-40.0,237.0,17.0,57.0,-4.0,0
-29.0,-38.0,233.0,21.0,56.0,-2.0,0
-25.0,-41.0,232.0,22.0,56.0,-6.0,0
-28.0,-39.0,231.0,22.0,54.0,-3.0,0
-29.0,-43.0,233.0,20.0,51.0,-6.0,0
-26.0,-41.0,236.0,17.0,50.0,-5.0,0
-28.0,-37.0,234.0,12.0,48.0,-7.0,0
-28.0,-41.0,233.0,12.0,48.0,-6.0,0
-28.0,-40.0,235.0,11.0,49.0,-8.0,0
-27.0,-37.0,234.0,10.0,48.0,-6.0,0
-27.0,-40.0,234.0,12.0,50.0,-9.0,0
-29.0,-40.0,235.0,13.0,52.0,-7.0,0
-27.0,-39.0,232.0,15.0,54.0,-9.0,0
-28.0,-41.0,235.0,16.0,56.0,-7.0,0
-24.0,-43.0,233.0,17.0,59.0,-8.0,0
-26.0,-36.0,233.0,19.0,61.0,-6.0,0
-30.0,-34.0,235.0,21.0,61.0,-8.0,0
-28.0,-39.0,233.0,22.0,62.0,-6.0,0
-27.0,-40.0,237.0,24.0,61.0,-7.0,0
-30.0,-39.0,232.0,24.0,61.0,-4.0,0
-28.0,-38.0,236.0,24.0,58.0,-6.0,0
-25.0,-42.0,236.0,23.0,56.0,-6.0,0
-27.0,-35.0,233.0,22.0,54.0,-7.0,0
-26.0,-41.0,235.0,21.0,51.0,-5.0,0
-29.0,-40.0,235.0,21.0,50.0,-7.0,0
-27.0,-43.0,236.0,20.0,47.0,-7.0,0
-25.0,-43.0,236.0,18.0,47.0,-10.0,0
-25.0,-38.0,233.0,16.0,47.0,-9.0,0
-27.0,-37.0,235.0,14.0,49.0,-10.0,0
-25.0,-38.0,237.0,14.0,47.0,-9.0,0
-28.0,-38.0,233.0,11.0,48.0,-10.0,0
-26.0,-38.0,234.0,9.0,48.0,-9.0,0
-25.0,-39.0,233.0,6.0,48.0,-11.0,0
-24.0,-38.0,234.0,5.0,50.0,-9.0,0
-24.0,-39.0,234.0,4.0,52.0,-11.0,0
-23.0,-41.0,236.0,2.0,53.0,-10.0,0
-24.0,-40.0,239.0,1.0,53.0,-12.0,0
-24.0,-40.0,234.0,1.0,55.0,-11.0,0
-24.0,-36.0,237.0,1.0,56.0,-13.0,0
-25.0,-41.0,239.0,1.0,54.0,-10.0,0
-23.0,-39.0,235.0,1.0,53.0,-11.0,0
-20.0,-41.0,234.0,3.0,56.0,-8.0,0
-23.0,-40.0,235.0,5.0,56.0,-10.0,0
-24.0,-40.0,236.0,6.0,55.0,-9.0,0
-22.0,-41.0,233.0,8.0,56.0,-9.0,0
-24.0,-39.0,233.0,8.0,55.0,-9.0,0
-25.0,-39.0,235.0,8.0,55.0,-8.0,0
-23.0,-38.0,233.0,8.0,52.0,-8.0,0
-25.0,-38.0,238.0,9.0,51.0,-7.0,0
-24.0,-37.0,234.0,8.0,51.0,-6.0,0
-22.0,-36.0,236.0,7.0,51.0,-8.0,0
-24.0,-38.0,235.0,5.0,51.0,-6.0,0
-24.0,-38.0,235.0,3.0,50.0,-8.0,0
-25.0,-39.0,236.0,0.0,51.0,-7.0,0
-23.0,-38.0,238.0,-4.0,52.0,-7.0,0
-22.0,-42.0,236.0,-4.0,52.0,-8.0,0
-23.0,-38.0,237.0,-6.0,52.0,-8.0,0
-27.0,-40.0,237.0,-5.0,54.0,-7.0,0
-22.0,-40.0,235.0,-5.0,53.0,-8.0,0
-25.0,-41.0,231.0,-5.0,54.0,-7.0,0
-22.0,-37.0,232.0,-5.0,55.0,-6.0,0
-22.0,-39.0,233.0,-4.0,55.0,-7.0,0
-23.0,-40.0,234.0,-3.0,57.0,-7.0,0
-21.0,-38.0,234.0,0.0,58.0,-7.0,0
-23.0,-36.0,231.0,3.0,57.0,-6.0,0
-21.0,-41.0,235.0,4.0,57.0,-8.0,0
-24.0,-38.0,237.0,6.0,56.0,-6.0,0
-23.0,-41.0,232.0,7.0,56.0,-7.0,0
-26.0,-36.0,235.0,7.0,55.0,-7.0,0
-26.0,-35.0,236.0,7.0,56.0,-7.0,0
-23.0,-36.0,233.0,6.0,54.0,-6.0,0
-25.0,-38.0,233.0,7.0,56.0,-6.0,0
-22.0,-37.0,234.0,7.0,56.0,-6.0,0
-26.0,-38.0,232.0,6.0,57.0,-6.0,0
-23.0,-39.0,233.0,5.0,57.0,-2.0,0
-24.0,-34.0,236.0,4.0,56.0,-3.0,0
-24.0,-36.0,237.0,1.0,56.0,-2.0,0
-26.0,-36.0,237.0,-4.0,59.0,-1.0,0
-24.0,-38.0,238.0,-10.0,61.0,0.0,0
-24.0,-34.0,239.0,-18.0,65.0,0.0,0
-25.0,-40.0,237.0,-25.0,69.0,2.0,0
-25.0,-40.0,233.0,-33.0,72.0,2.0,0
-25.0,-41.0,236.0,-38.0,78.0,2.0,0
-24.0,-38.0,233.0,-42.0,83.0,0.0,0
-25.0,-38.0,234.0,-43.0,87.0,1.0,0
-25.0,-38.0,235.0,-42.0,93.0,-3.0,0
-27.0,-40.0,235.0,-40.0,94.0,-1.0,0
