ax,ay,az,gx,gy,gz,label
-8.0,-205.0,-139.0,29.0,5.0,-29.0,0
-10.0,-206.0,-140.0,30.0,7.0,-27.0,0
-13.0,-206.0,-139.0,32.0,10.0,-27.0,0
-11.0,-207.0,-136.0,34.0,13.0,-25.0,0
-13.0,-205.0,-141.0,37.0,15.0,-24.0,0
-11.0,-209.0,-141.0,39.0,19.0,-22.0,0
-9.0,-204.0,-137.0,37.0,19.0,-23.0,0
-9.0,-207.0,-142.0,34.0,16.0,-22.0,0
-11.0,-203.0,-139.0,31.0,13.0,-23.0,0
-9.0,-205.0,-140.0,30.0,10.0,-24.0,0
-8.0,-206.0,-138.0,30.0,7.0,-26.0,0
-7.0,-208.0,-137.0,31.0,2.0,-25.0,0
-8.0,-205.0,-138.0,33.0,-1.0,-27.0,0
-11.0,-205.0,-137.0,35.0,-2.0,-26.0,0
-9.0,-206.0,-141.0,37.0,-4.0,-26.0,0
-9.0,-205.0,-139.0,37.0,-4.0,-28.0,0
-11.0,-204.0,-136.0,39.0,-4.0,-29.0,0
-9.0,-205.0,-141.0,38.0,-2.0,-27.0,0
-8.0,-203.0,-139.0,34.0,2.0,-26.0,0
-10.0,-201.0,-138.0,31.0,5.0,-24.0,0
-6.0,-204.0,-138.0,24.0,6.0,-24.0,0
-8.0,-200.0,-139.0,21.0,10.0,-23.0,0
-9.0,-203.0,-143.0,17.0,12.0,-21.0,0
-6.0,-203.0,-138.0,14.0,12.0,-18.0,0
-10.0,-199.0,-138.0,12.0,12.0,-19.0,0
-14.0,-202.0,-139.0,14.0,11.0,-18.0,0
-9.0,-206.0,-138.0,15.0,11.0,-19.0,0
-9.0,-206.0,-140.0,18.0,10.0,-19.0,0
-6.0,-205.0,-139.0,22.0,8.0,-18.0,0
-7.0,-205.0,-143.0,24.0,6.0,-19.0,0
-4.0,-205.0,-144.0,28.0,6.0,-19.0,0
-10.0,-205.0,-139.0,30.0,5.0,-18.0,0
-7.0,-207.0,-138.0,32.0,4.0,-18.0,0
-9.0,-202.0,-141.0,35.0,4.0,-17.0,0
-5.0,-204.0,-136.0,36.0,4.0,-19.0,0
-6.0,-204.0,-141.0,39.0,4.0,-18.0,0
-8.0,-202.0,-136.0,39.0,4.0,-18.0,0
-8.0,-200.0,-136.0,39.0,5.0,-18.0,0
-5.0,-204.0,-135.0,39.0,9.0,-16.0,0
-11.0,-206.0,-138.0,36.0,9.0,-14.0,0
-7.0,-203.0,-142.0,35.0,9.0,-15.0,0
-5.0,-205.0,-136.0,34.0,9.0,-15.0,0
-8.0,-203.0,-138.0,35.0,10.0,-15.0,0
-9.0,-203.0,-138.0,36.0,11.0,-16.0,0
-5.0,-202.0,-137.0,39.0,11.0,-14.0,0
-9.0,-203.0,-138.0,41.0,12.0,-15.0,0
-8.0,-202.0,-141.0,40.0,13.0,-13.0,0
-6.0,-201.0,-140.0,38.0,15.0,-11.0,0
-7.0,-206.0,-137.0,35.0,16.0,-10.0,0
-9.0,-207.0,-142.0,32.0,16.0,-9.0,0
-6.0,-204.0,-140.0,32.0,17.0,-7.0,0
-3.0,-204.0,-139.0,31.0,18.0,-7.0,0
-9.0,-205.0,-137.0,32.0,19.0,-7.0,0
-10.0,-204.0,-142.0,33.0,20.0,-7.0,0
-6.0,-209.0,-138.0,32.0,21.0,-6.0,0
-6.0,-203.0,-140.0,34.0,20.0,-6.0,0
-3.0,-207.0,-141.0,35.0,19.0,-7.0,0
-9.0,-203.0,-141.0,37.0,21.0,-7.0,0
-9.0,-204.0,-143.0,40.0,20.0,-9.0,0
-8.0,-203.0,-139.0,43.0,22.0,-11.0,0
-8.0,-204.0,-137.0,44.0,22.0,-12.0,0
-8.0,-203.0,-139.0,45.0,23.0,-11.0,0
-7.0,-205.0,-138.0,44.0,23.0,-12.0,0
-7.0,-205.0,-138.0,43.0,23.0,-12.0,0
-9.0,-201.0,-142.0,43.0,25.0,-12.0,0
-5.0,-198.0,-140.0,44.0,24.0,-11.0,0
-8.0,-201.0,-139.0,43.0,26.0,-12.0,0
-10.0,-204.0,-140.0,44.0,25.0,-9.0,0
-9.0,-200.0,-139.0,43.0,26.0,-9.0,0
-11.0,-202.0,-135.0,43.0,26.0,-10.0,0
-6.0,-206.0,-140.0,41.0,27.0,-9.0,0
-6.0,-201.0,-135.0,41.0,27.0,-8.0,0
-10.0,-205.0,-139.0,42.0,25.0,-9.0,0
-8.0,-206.0,-138.0,46.0,25.0,-9.0,0
-9.0,-203.0,-138.0,45.0,25.0,-10.0,0
-7.0,-203.0,-143.0,48.0,24.0,-11.0,0
-6.0,-204.0,-140.0,48.0,23.0,-11.0,0
-8.0,-202.0,-139.0,47.0,20.0,-10.0,0
-10.0,-203.0,-144.0,46.0,21.0,-10.0,0
-6.0,-201.0,-138.0,44.0,19.0,-11.0,0
-7.0,-207.0,-140.0,43.0,19.0,-11.0,0
-11.0,-202.0,-138.0,42.0,19.0,-10.0,0
-10.0,-204.0,-143.0,39.0,20.0,-9.0,0
-9.0,-205.0,-140.0,39.0,20.0,-9.0,0
-8.0,-207.0,-140.0,40.0,19.0,-8.0,0
-7.0,-204.0,-140.0,41.0,20.0,-8.0,0
-7.0,-206.0,-142.0,45.0,21.0,-8.0,0
-6.0,-201.0,-137.0,48.0,21.0,-8.0,0
-10.0,-204.0,-143.0,49.0,22.0,-8.0,0
-9.0,-200.0,-141.0,51.0,21.0,-9.0,0
-10.0,-201.0,-138.0,53.0,23.0,-9.0,0
-9.0,-203.0,-137.0,53.0,23.0,-10.0,0
-8.0,-209.0,-138.0,50.0,22.0,-9.0,0
-10.0,-204.0,-140.0,49.0,23.0,-9.0,0
-6.0,-204.0,-132.0,49.0,21.0,-10.0,0
-11.0,-201.0,-141.0,49.0,19.0,-10.0,0
-11.0,-201.0,-139.0,50.0,19.0,-11.0,0
-9.0,-204.0,-140.0,51.0,19.0,-10.0,0
-9.0,-201.0,-142.0,53.0,18.0,-12.0,0
-7.0,-202.0,-135.0,54.0,17.0,-15.0,0
-9.0,-203.0,-140.0,52.0,16.0,-16.0,0
-8.0,-202.0,-134.0,50.0,15.0,-16.0,0
-8.0,-203.0,-124.0,47.0,13.0,-17.0,0
-8.0,-200.0,-135.0,45.0,11.0,-20.0,0
-10.0,-201.0,-140.0,42.0,11.0,-20.0,0
-7.0,-200.0,-141.0,40.0,11.0,-20.0,0
-9.0,-201.0,-138.0,38.0,10.0,-20.0,0
-6.0,-204.0,-139.0,35.0,10.0,-20.0,0
-11.0,-202.0,-138.0,34.0,8.0,-20.0,0
-8.0,-205.0,-138.0,33.0,8.0,-19.0,0
-9.0,-204.0,-142.0,34.0,9.0,-17.0,0
-8.0,-203.0,-142.0,35.0,10.0,-18.0,0
6.0,-207.0,-136.0,36.0,11.0,-18.0,0
-6.0,-206.0,-143.0,38.0,12.0,-16.0,0
-10.0,-203.0,-139.0,40.0,11.0,-14.0,0
-8.0,-203.0,-143.0,39.0,12.0,-13.0,0
-10.0,-205.0,-142.0,39.0,14.0,-12.0,0
-10.0,-204.0,-141.0,40.0,12.0,-12.0,0
-10.0,-207.0,-141.0,42.0,14.0,-12.0,0
-9.0,-203.0,-137.0,45.0,13.0,-13.0,0
-10.0,-206.0,-142.0,46.0,13.0,-12.0,0
-6.0,-204.0,-141.0,49.0,14.0,-12.0,0
-6.0,-207.0,-136.0,51.0,15.0,-12.0,0
-10.0,-207.0,-142.0,52.0,15.0,-10.0,0
-8.0,-206.0,-141.0,53.0,14.0,-11.0,0
-10.0,-203.0,-140.0,54.0,13.0,-12.0,0
-8.0,-205.0,-140.0,53.0,13.0,-11.0,0
-8.0,-204.0,-141.0,53.0,14.0,-11.0,0
-5.0,-203.0,-140.0,52.0,12.0,-12.0,0
-8.0,-203.0,-135.0,52.0,11.0,-13.0,0
-5.0,-202.0,-144.0,53.0,11.0,-13.0,0
-6.0,-202.0,-137.0,54.0,10.0,-14.0,0
-6.0,-202.0,-139.0,55.0,11.0,-12.0,0
-8.0,-201.0,-142.0,54.0,10.0,-13.0,0
-8.0,-201.0,-140.0,54.0,8.0,-13.0,0
-8.0,-202.0,-143.0,51.0,7.0,-15.0,0
-6.0,-203.0,-139.0,48.0,6.0,-15.0,0
-10.0,-199.0,-140.0,44.0,5.0,-16.0,0
-7.0,-203.0,-145.0,42.0,4.0,-15.0,0
-5.0,-205.0,-141.0,41.0,4.0,-15.0,0
-8.0,-202.0,-143.0,40.0,3.0,-17.0,0
-7.0,-202.0,-143.0,42.0,5.0,-17.0,0
-6.0,-200.0,-143.0,44.0,6.0,-17.0,0
-9.0,-203.0,-139.0,44.0,8.0,-18.0,0
-11.0,-203.0,-141.0,44.0,8.0,-20.0,0
-2.0,-207.0,-140.0,45.0,10.0,-19.0,0
-9.0,-203.0,-139.0,44.0,9.0,-19.0,0
-9.0,-204.0,-140.0,43.0,10.0,-18.0,0
-10.0,-204.0,-137.0,43.0,11.0,-16.0,0
-5.0,-208.0,-141.0,43.0,11.0,-17.0,0
-9.0,-205.0,-138.0,44.0,11.0,-15.0,0
-7.0,-201.0,-140.0,47.0,11.0,-15.0,0
-9.0,-203.0,-138.0,49.0,11.0,-14.0,0
-8.0,-203.0,-138.0,52.0,11.0,-16.0,0
-9.0,-203.0,-138.0,53.0,11.0,-15.0,0
-9.0,-203.0,-141.0,55.0,10.0,-15.0,0
-5.0,-199.0,-134.0,54.0,10.0,-13.0,0
-7.0,-202.0,-141.0,55.0,10.0,-13.0,0
-9.0,-200.0,-141.0,54.0,10.0,-13.0,0
-9.0,-201.0,-143.0,53.0,9.0,-14.0,0
-10.0,-202.0,-142.0,53.0,10.0,-13.0,0
-7.0,-206.0,-142.0,52.0,8.0,-12.0,0
-7.0,-204.0,-141.0,53.0,11.0,-11.0,0
-5.0,-203.0,-142.0,51.0,12.0,-13.0,0
-3.0,-202.0,-139.0,51.0,11.0,-10.0,0
-6.0,-202.0,-142.0,51.0,13.0,-11.0,0
-7.0,-202.0,-139.0,51.0,13.0,-11.0,0
-8.0,-199.0,-144.0,50.0,14.0,-12.0,0
-6.0,-204.0,-141.0,50.0,15.0,-10.0,0
-10.0,-203.0,-141.0,49.0,16.0,-10.0,0
-7.0,-200.0,-141.0,47.0,16.0,-11.0,0
-6.0,-200.0,-140.0,44.0,18.0,-10.0,0
-5.0,-204.0,-138.0,43.0,19.0,-10.0,0
-8.0,-203.0,-140.0,43.0,19.0,-10.0,0
-7.0,-202.0,-140.0,43.0,20.0,-11.0,0
-9.0,-203.0,-137.0,45.0,22.0,-9.0,0
-7.0,-204.0,-139.0,48.0,23.0,-11.0,0
-9.0,-206.0,-140.0,50.0,21.0,-11.0,0
-9.0,-206.0,-145.0,52.0,21.0,-12.0,0
-10.0,-200.0,-141.0,52.0,19.0,-13.0,0
-8.0,-206.0,-139.0,52.0,17.0,-12.0,0
-7.0,-204.0,-140.0,54.0,16.0,-14.0,0
-8.0,-205.0,-143.0,55.0,16.0,-14.0,0
-9.0,-200.0,-140.0,55.0,17.0,-13.0,0
-10.0,-202.0,-139.0,56.0,17.0,-14.0,0
-9.0,-204.0,-140.0,57.0,16.0,-15.0,0
-4.0,-202.0,-140.0,55.0,15.0,-14.0,0
-8.0,-206.0,-142.0,55.0,15.0,-13.0,0
-6.0,-204.0,-141.0,57.0,15.0,-13.0,0
-9.0,-202.0,-141.0,58.0,15.0,-13.0,0
-6.0,-204.0,-142.0,58.0,15.0,-11.0,0
-8.0,-202.0,-138.0,59.0,15.0,-11.0,0
-6.0,-201.0,-142.0,60.0,16.0,-11.0,0
-8.0,-201.0,-139.0,59.0,15.0,-11.0,0
-8.0,-201.0,-144.0,59.0,18.0,-10.0,0
-8.0,-204.0,-141.0,57.0,16.0,-11.0,0
-10.0,-202.0,-143.0,55.0,16.0,-11.0,0
-10.0,-198.0,-138.0,55.0,15.0,-10.0,0
-10.0,-203.0,-142.0,54.0,14.0,-9.0,0
-5.0,-204.0,-142.0,53.0,15.0,-11.0,0
-7.0,-202.0,-140.0,53.0,14.0,-11.0,0
-7.0,-202.0,-139.0,52.0,14.0,-12.0,0
-4.0,-207.0,-142.0,51.0,12.0,-13.0,0
-5.0,-205.0,-140.0,51.0,12.0,-12.0,0
-7.0,-206.0,-140.0,51.0,13.0,-13.0,0
-6.0,-203.0,-138.0,52.0,12.0,-12.0,0
-6.0,-205.0,-135.0,52.0,12.0,-12.0,0
-6.0,-205.0,-139.0,52.0,14.0,-13.0,0
-6.0,-204.0,-137.0,54.0,14.0,-11.0,0
-8.0,-199.0,-139.0,55.0,14.0,-10.0,0
-6.0,-203.0,-139.0,56.0,14.0,-12.0,0
-7.0,-205.0,-140.0,57.0,14.0,-10.0,0
-8.0,-206.0,-139.0,58.0,14.0,-9.0,0
-5.0,-202.0,-139.0,54.0,13.0,-9.0,0
-11.0,-204.0,-142.0,52.0,13.0,-9.0,0
-7.0,-204.0,-141.0,51.0,13.0,-10.0,0
-7.0,-201.0,-141.0,54.0,14.0,-8.0,0
-3.0,-205.0,-138.0,58.0,16.0,-9.0,0
-5.0,-203.0,-142.0,60.0,17.0,-10.0,0
-9.0,-202.0,-138.0,60.0,16.0,-10.0,0
-7.0,-201.0,-143.0,59.0,16.0,-10.0,0
-10.0,-203.0,-140.0,60.0,17.0,-12.0,0
-7.0,-204.0,-140.0,61.0,17.0,-11.0,0
-9.0,-202.0,-137.0,61.0,18.0,-11.0,0
-8.0,-202.0,-140.0,61.0,18.0,-12.0,0
-7.0,-202.0,-144.0,58.0,19.0,-11.0,0
-10.0,-205.0,-142.0,56.0,20.0,-10.0,0
-10.0,-202.0,-141.0,55.0,20.0,-11.0,0
-8.0,-202.0,-140.0,54.0,21.0,-10.0,0
-9.0,-202.0,-138.0,52.0,21.0,-12.0,0
-9.0,-200.0,-138.0,52.0,20.0,-11.0,0
-7.0,-199.0,-139.0,50.0,20.0,-13.0,0
-10.0,-202.0,-142.0,48.0,20.0,-15.0,0
-8.0,-199.0,-143.0,47.0,20.0,-17.0,0
-5.0,-201.0,-145.0,46.0,19.0,-17.0,0
-9.0,-203.0,-139.0,45.0,18.0,-18.0,0
-10.0,-203.0,-140.0,46.0,17.0,-18.0,0
-8.0,-203.0,-140.0,44.0,16.0,-18.0,0
-6.0,-202.0,-139.0,43.0,16.0,-18.0,0
-4.0,-205.0,-139.0,42.0,15.0,-18.0,0
-7.0,-202.0,-141.0,41.0,15.0,-18.0,0
-6.0,-205.0,-139.0,41.0,13.0,-17.0,0
-6.0,-203.0,-144.0,41.0,14.0,-15.0,0
-4.0,-207.0,-137.0,40.0,13.0,-15.0,0
-5.0,-204.0,-142.0,40.0,13.0,-14.0,0
-6.0,-206.0,-140.0,42.0,14.0,-13.0,0
-9.0,-203.0,-142.0,44.0,13.0,-13.0,0
-7.0,-202.0,-145.0,46.0,14.0,-12.0,0
-8.0,-203.0,-144.0,47.0,14.0,-12.0,0
-6.0,-201.0,-143.0,48.0,12.0,-12.0,0
-7.0,-205.0,-139.0,49.0,13.0,-13.0,0
-9.0,-201.0,-137.0,48.0,13.0,-13.0,0
-9.0,-200.0,-141.0,46.0,12.0,-15.0,0
-7.0,-205.0,-146.0,45.0,13.0,-15.0,0
-11.0,-203.0,-140.0,42.0,13.0,-13.0,0
-5.0,-204.0,-140.0,40.0,12.0,-14.0,0
-8.0,-202.0,-142.0,40.0,12.0,-15.0,0
-5.0,-204.0,-137.0,38.0,12.0,-14.0,0
-4.0,-205.0,-144.0,39.0,11.0,-14.0,0
-5.0,-202.0,-141.0,39.0,11.0,-14.0,0
-6.0,-204.0,-138.0,40.0,11.0,-14.0,0
-7.0,-204.0,-141.0,42.0,12.0,-14.0,0
-7.0,-202.0,-142.0,42.0,13.0,-16.0,0
-11.0,-206.0,-139.0,42.0,13.0,-16.0,0
-6.0,-203.0,-143.0,42.0,13.0,-15.0,0
-6.0,-204.0,-144.0,41.0,15.0,-15.0,0
-1.0,-203.0,-143.0,42.0,15.0,-13.0,0
-11.0,-199.0,-138.0,42.0,14.0,-15.0,0
-4.0,-206.0,-141.0,43.0,14.0,-17.0,0
-6.0,-201.0,-142.0,44.0,15.0,-15.0,0
-5.0,-205.0,-141.0,47.0,15.0,-15.0,0
-7.0,-203.0,-140.0,48.0,15.0,-16.0,0
-10.0,-202.0,-140.0,49.0,15.0,-16.0,0
-9.0,-202.0,-143.0,49.0,14.0,-16.0,0
-9.0,-203.0,-141.0,51.0,16.0,-16.0,0
-5.0,-201.0,-140.0,49.0,14.0,-17.0,0
-6.0,-203.0,-143.0,48.0,16.0,-18.0,0
-6.0,-204.0,-143.0,48.0,15.0,-17.0,0
-7.0,-202.0,-141.0,47.0,16.0,-18.0,0
-9.0,-202.0,-139.0,46.0,16.0,-17.0,0
-5.0,-199.0,-138.0,45.0,16.0,-18.0,0
-7.0,-201.0,-143.0,45.0,17.0,-20.0,0
-5.0,-202.0,-139.0,45.0,17.0,-19.0,0
-7.0,-205.0,-138.0,45.0,16.0,-20.0,0
-8.0,-200.0,-139.0,45.0,17.0,-20.0,0
-11.0,-203.0,-141.0,45.0,15.0,-20.0,0
-6.0,-203.0,-144.0,45.0,16.0,-21.0,0
-1.0,-211.0,-142.0,47.0,17.0,-21.0,0
-6.0,-201.0,-142.0,49.0,15.0,-20.0,0
-9.0,-199.0,-139.0,50.0,14.0,-21.0,0
-6.0,-204.0,-139.0,49.0,14.0,-21.0,0
-4.0,-202.0,-145.0,48.0,14.0,-21.0,0
-7.0,-201.0,-141.0,49.0,13.0,-22.0,0
-7.0,-204.0,-141.0,48.0,13.0,-21.0,0
-4.0,-205.0,-138.0,47.0,14.0,-21.0,0
-6.0,-203.0,-142.0,47.0,14.0,-21.0,0
-1.0,-204.0,-140.0,48.0,14.0,-20.0,0
-8.0,-201.0,-143.0,49.0,14.0,-19.0,0
-5.0,-206.0,-140.0,51.0,13.0,-18.0,0
-6.0,-206.0,-141.0,51.0,14.0,-18.0,0
-7.0,-200.0,-144.0,52.0,15.0,-16.0,0
-8.0,-203.0,-139.0,55.0,14.0,-16.0,0
-5.0,-204.0,-140.0,54.0,13.0,-18.0,0
-6.0,-202.0,-138.0,52.0,13.0,-16.0,0
-7.0,-202.0,-138.0,52.0,11.0,-15.0,0
-6.0,-201.0,-143.0,51.0,13.0,-18.0,0
-5.0,-201.0,-139.0,49.0,12.0,-16.0,0
-9.0,-200.0,-140.0,49.0,13.0,-15.0,0
-9.0,-202.0,-141.0,47.0,12.0,-16.0,0
-2.0,-202.0,-138.0,45.0,11.0,-16.0,0
-3.0,-201.0,-141.0,44.0,13.0,-17.0,0
-5.0,-202.0,-140.0,43.0,13.0,-20.0,0
-3.0,-205.0,-140.0,41.0,13.0,-18.0,0
-7.0,-201.0,-138.0,41.0,11.0,-19.0,0
-6.0,-201.0,-141.0,40.0,12.0,-19.0,0
-7.0,-204.0,-141.0,42.0,12.0,-18.0,0
-8.0,-204.0,-142.0,43.0,13.0,-18.0,0
-5.0,-203.0,-141.0,44.0,12.0,-20.0,0
-8.0,-201.0,-144.0,46.0,12.0,-18.0,0
-7.0,-204.0,-142.0,49.0,11.0,-18.0,0
-4.0,-206.0,-143.0,49.0,10.0,-18.0,0
-7.0,-202.0,-144.0,47.0,11.0,-18.0,0
-2.0,-204.0,-140.0,48.0,10.0,-16.0,0
-3.0,-203.0,-144.0,49.0,11.0,-15.0,0
-6.0,-203.0,-140.0,49.0,12.0,-15.0,0
-5.0,-204.0,-143.0,49.0,11.0,-15.0,0
-4.0,-204.0,-143.0,50.0,13.0,-14.0,0
-3.0,-202.0,-139.0,50.0,13.0,-15.0,0
-3.0,-203.0,-140.0,50.0,13.0,-13.0,0
-4.0,-205.0,-145.0,49.0,12.0,-11.0,0
-4.0,-203.0,-144.0,50.0,14.0,-13.0,0
-4.0,-204.0,-140.0,52.0,13.0,-13.0,0
-5.0,-204.0,-142.0,54.0,13.0,-12.0,0
-4.0,-202.0,-139.0,57.0,13.0,-12.0,0
-4.0,-201.0,-143.0,61.0,12.0,-13.0,0
-4.0,-200.0,-141.0,61.0,15.0,-12.0,0
-6.0,-198.0,-144.0,60.0,14.0,-12.0,0
-2.0,-204.0,-139.0,60.0,14.0,-12.0,0
-7.0,-201.0,-141.0,58.0,12.0,-12.0,0
-3.0,-201.0,-140.0,55.0,12.0,-12.0,0
-7.0,-203.0,-140.0,55.0,12.0,-13.0,0
-6.0,-201.0,-136.0,54.0,12.0,-14.0,0
-7.0,-203.0,-139.0,53.0,15.0,-12.0,0
-6.0,-203.0,-141.0,52.0,14.0,-11.0,0
-7.0,-204.0,-140.0,52.0,15.0,-9.0,0
-5.0,-202.0,-136.0,50.0,14.0,-10.0,0
-5.0,-203.0,-140.0,50.0,15.0,-9.0,0
-5.0,-203.0,-141.0,50.0,16.0,-9.0,0
-8.0,-201.0,-143.0,49.0,14.0,-8.0,0
-8.0,-203.0,-141.0,49.0,15.0,-8.0,0
-7.0,-200.0,-141.0,49.0,16.0,-8.0,0
-7.0,-204.0,-142.0,49.0,16.0,-10.0,0
-5.0,-202.0,-144.0,49.0,15.0,-10.0,0
-7.0,-202.0,-141.0,49.0,17.0,-8.0,0
-6.0,-203.0,-144.0,51.0,18.0,-9.0,0
-4.0,-203.0,-140.0,50.0,18.0,-6.0,0
-6.0,-204.0,-147.0,51.0,18.0,-7.0,0
-4.0,-203.0,-140.0,54.0,20.0,-6.0,0
-5.0,-204.0,-142.0,55.0,20.0,-6.0,0
-6.0,-202.0,-146.0,56.0,20.0,-5.0,0
-5.0,-201.0,-140.0,59.0,19.0,-6.0,0
-6.0,-201.0,-139.0,60.0,19.0,-7.0,0
-6.0,-203.0,-141.0,60.0,18.0,-6.0,0
-8.0,-200.0,-143.0,59.0,19.0,-7.0,0
-6.0,-198.0,-142.0,54.0,19.0,-7.0,0
-4.0,-200.0,-141.0,51.0,18.0,-8.0,0
-4.0,-204.0,-142.0,49.0,17.0,-9.0,0
-8.0,-201.0,-140.0,50.0,17.0,-11.0,0
-1.0,-204.0,-141.0,50.0,17.0,-11.0,0
-4.0,-203.0,-137.0,48.0,15.0,-12.0,0
-6.0,-200.0,-137.0,47.0,14.0,-12.0,0
-5.0,-199.0,-142.0,44.0,13.0,-13.0,0
-3.0,-203.0,-142.0,42.0,13.0,-13.0,0
-2.0,-203.0,-146.0,43.0,13.0,-13.0,0
-4.0,-202.0,-140.0,42.0,12.0,-12.0,0
-4.0,-204.0,-141.0,44.0,14.0,-12.0,0
-7.0,-204.0,-139.0,43.0,14.0,-12.0,0
-7.0,-204.0,-143.0,45.0,13.0,-11.0,0
-9.0,-205.0,-141.0,48.0,15.0,-9.0,0
-4.0,-204.0,-142.0,51.0,14.0,-10.0,0
-5.0,-205.0,-144.0,52.0,13.0,-9.0,0
-5.0,-203.0,-142.0,53.0,13.0,-10.0,0
-6.0,-205.0,-139.0,53.0,13.0,-10.0,0
-8.0,-203.0,-143.0,51.0,15.0,-9.0,0
-7.0,-199.0,-142.0,50.0,15.0,-7.0,0
-7.0,-204.0,-139.0,48.0,16.0,-8.0,0
-6.0,-204.0,-144.0,48.0,16.0,-7.0,0
-9.0,-202.0,-140.0,49.0,17.0,-8.0,0
-6.0,-205.0,-140.0,50.0,19.0,-7.0,0
-9.0,-204.0,-141.0,53.0,18.0,-5.0,0
-5.0,-204.0,-141.0,53.0,18.0,-5.0,0
-7.0,-202.0,-141.0,54.0,19.0,-4.0,0
-4.0,-204.0,-140.0,57.0,19.0,-3.0,0
-8.0,-201.0,-137.0,57.0,19.0,-5.0,0
-10.0,-203.0,-143.0,59.0,19.0,-5.0,0
-6.0,-204.0,-143.0,59.0,19.0,-6.0,0
-7.0,-203.0,-140.0,58.0,18.0,-5.0,0
-9.0,-199.0,-143.0,58.0,18.0,-5.0,0
-7.0,-202.0,-143.0,58.0,20.0,-5.0,0
-4.0,-202.0,-142.0,56.0,19.0,-5.0,0
-4.0,-202.0,-143.0,56.0,19.0,-5.0,0
-5.0,-201.0,-141.0,57.0,19.0,-3.0,0
-6.0,-203.0,-144.0,57.0,18.0,-4.0,0
-6.0,-199.0,-142.0,57.0,18.0,-5.0,0
-9.0,-203.0,-144.0,57.0,17.0,-5.0,0
-8.0,-199.0,-143.0,55.0,14.0,-6.0,0
-7.0,-203.0,-142.0,56.0,13.0,-8.0,0
-6.0,-203.0,-140.0,56.0,13.0,-9.0,0
-8.0,-202.0,-139.0,54.0,11.0,-8.0,0
-7.0,-201.0,-138.0,54.0,11.0,-9.0,0
-4.0,-201.0,-141.0,52.0,10.0,-11.0,0
-9.0,-202.0,-144.0,51.0,9.0,-12.0,0
-8.0,-201.0,-143.0,49.0,7.0,-13.0,0
-8.0,-202.0,-139.0,50.0,6.0,-13.0,0
-10.0,-205.0,-138.0,51.0,6.0,-13.0,0
-6.0,-205.0,-140.0,55.0,7.0,-14.0,0
-9.0,-201.0,-140.0,56.0,7.0,-13.0,0
-9.0,-203.0,-142.0,58.0,9.0,-13.0,0
-4.0,-204.0,-144.0,57.0,9.0,-14.0,0
-6.0,-203.0,-138.0,59.0,9.0,-12.0,0
-4.0,-205.0,-142.0,61.0,10.0,-10.0,0
-10.0,-204.0,-144.0,62.0,10.0,-10.0,0
-8.0,-203.0,-141.0,65.0,11.0,-10.0,0
-4.0,-203.0,-142.0,65.0,10.0,-8.0,0
-7.0,-201.0,-141.0,64.0,10.0,-9.0,0
-8.0,-202.0,-140.0,64.0,8.0,-8.0,0
-8.0,-200.0,-141.0,64.0,9.0,-7.0,0
-8.0,-203.0,-145.0,63.0,8.0,-8.0,0
-7.0,-199.0,-140.0,64.0,6.0,-8.0,0
-5.0,-201.0,-138.0,66.0,8.0,-7.0,0
-9.0,-200.0,-139.0,70.0,8.0,-9.0,0
-8.0,-198.0,-140.0,71.0,7.0,-10.0,0
-1.0,-201.0,-143.0,70.0,7.0,-10.0,0
-7.0,-198.0,-144.0,68.0,7.0,-10.0,0
-2.0,-202.0,-142.0,66.0,7.0,-11.0,0
-5.0,-200.0,-139.0,62.0,7.0,-13.0,0
-6.0,-203.0,-142.0,57.0,6.0,-13.0,0
-4.0,-201.0,-141.0,54.0,7.0,-12.0,0
-5.0,-201.0,-138.0,52.0,6.0,-11.0,0
-8.0,-202.0,-138.0,51.0,8.0,-11.0,0
-7.0,-202.0,-139.0,51.0,8.0,-13.0,0
-8.0,-202.0,-144.0,50.0,8.0,-14.0,0
-6.0,-201.0,-141.0,49.0,9.0,-13.0,0
-6.0,-201.0,-141.0,51.0,10.0,-14.0,0
-8.0,-203.0,-143.0,53.0,11.0,-15.0,0
-4.0,-204.0,-141.0,57.0,10.0,-13.0,0
-10.0,-203.0,-143.0,60.0,10.0,-12.0,0
-6.0,-204.0,-140.0,63.0,10.0,-12.0,0
-8.0,-202.0,-137.0,64.0,10.0,-12.0,0
-8.0,-200.0,-141.0,64.0,9.0,-10.0,0
-6.0,-201.0,-142.0,64.0,10.0,-10.0,0
-9.0,-204.0,-143.0,64.0,9.0,-9.0,0
-5.0,-202.0,-141.0,65.0,10.0,-8.0,0
-7.0,-203.0,-141.0,68.0,11.0,-9.0,0
-7.0,-204.0,-139.0,68.0,12.0,-7.0,0
-3.0,-203.0,-144.0,68.0,11.0,-6.0,0
-4.0,-200.0,-141.0,68.0,11.0,-7.0,0
-10.0,-198.0,-140.0,69.0,11.0,-6.0,0
-6.0,-203.0,-142.0,70.0,11.0,-8.0,0
-4.0,-202.0,-145.0,71.0,10.0,-7.0,0
-2.0,-202.0,-145.0,70.0,9.0,-7.0,0
-7.0,-201.0,-135.0,67.0,8.0,-7.0,0
-7.0,-202.0,-138.0,65.0,7.0,-7.0,0
-8.0,-200.0,-140.0,61.0,7.0,-9.0,0
-3.0,-202.0,-141.0,58.0,6.0,-10.0,0
-8.0,-198.0,-144.0,57.0,7.0,-11.0,0
-7.0,-204.0,-138.0,56.0,7.0,-10.0,0
-2.0,-201.0,-138.0,56.0,6.0,-11.0,0
-7.0,-203.0,-145.0,55.0,5.0,-12.0,0
-7.0,-202.0,-140.0,56.0,5.0,-12.0,0
-5.0,-203.0,-137.0,56.0,6.0,-11.0,0
-8.0,-202.0,-140.0,55.0,6.0,-11.0,0
-5.0,-203.0,-143.0,56.0,6.0,-12.0,0
-5.0,-206.0,-140.0,56.0,8.0,-11.0,0
-5.0,-203.0,-140.0,56.0,9.0,-9.0,0
-10.0,-199.0,-139.0,56.0,10.0,-11.0,0
-9.0,-201.0,-141.0,57.0,11.0,-9.0,0
-2.0,-205.0,-140.0,57.0,11.0,-8.0,0
-4.0,-203.0,-139.0,56.0,14.0,-7.0,0
-8.0,-202.0,-145.0,55.0,14.0,-7.0,0
-9.0,-204.0,-143.0,54.0,14.0,-7.0,0
-9.0,-205.0,-140.0,57.0,14.0,-7.0,0
-8.0,-201.0,-143.0,58.0,15.0,-7.0,0
-8.0,-202.0,-138.0,60.0,15.0,-6.0,0
-7.0,-202.0,-145.0,62.0,16.0,-6.0,0
-5.0,-202.0,-139.0,63.0,16.0,-4.0,0
-6.0,-206.0,-143.0,64.0,14.0,-5.0,0
-8.0,-202.0,-137.0,64.0,13.0,-5.0,0
-2.0,-202.0,-142.0,63.0,15.0,-5.0,0
-6.0,-203.0,-137.0,64.0,14.0,-6.0,0
-6.0,-199.0,-140.0,62.0,16.0,-4.0,0
-6.0,-202.0,-139.0,62.0,17.0,-5.0,0
-8.0,-202.0,-142.0,60.0,18.0,-4.0,0
-3.0,-205.0,-142.0,59.0,19.0,-4.0,0
-8.0,-203.0,-139.0,57.0,18.0,-5.0,0
-8.0,-203.0,-143.0,57.0,18.0,-6.0,0
-7.0,-203.0,-141.0,57.0,19.0,-5.0,0
-3.0,-200.0,-141.0,56.0,18.0,-8.0,0
-9.0,-199.0,-140.0,57.0,17.0,-7.0,0
-7.0,-201.0,-144.0,56.0,15.0,-10.0,0
-6.0,-204.0,-143.0,55.0,15.0,-9.0,0
-5.0,-200.0,-139.0,55.0,15.0,-9.0,0
-7.0,-205.0,-138.0,54.0,12.0,-12.0,0
-8.0,-204.0,-142.0,53.0,11.0,-13.0,0
-7.0,-203.0,-140.0,52.0,10.0,-13.0,0
-5.0,-202.0,-148.0,53.0,10.0,-13.0,0
-6.0,-202.0,-141.0,53.0,10.0,-14.0,0
-6.0,-206.0,-138.0,52.0,8.0,-14.0,0
-7.0,-204.0,-138.0,52.0,8.0,-14.0,0
-5.0,-205.0,-140.0,53.0,6.0,-13.0,0
-9.0,-206.0,-137.0,53.0,6.0,-14.0,0
-9.0,-204.0,-138.0,54.0,5.0,-13.0,0
-8.0,-202.0,-137.0,56.0,6.0,-13.0,0
-7.0,-204.0,-140.0,58.0,5.0,-12.0,0
-8.0,-205.0,-137.0,60.0,6.0,-12.0,0
-11.0,-203.0,-140.0,61.0,5.0,-12.0,0
-6.0,-205.0,-142.0,60.0,8.0,-12.0,0
-6.0,-203.0,-136.0,58.0,7.0,-10.0,0
-5.0,-205.0,-142.0,58.0,9.0,-12.0,0
-8.0,-204.0,-141.0,58.0,8.0,-10.0,0
-6.0,-205.0,-138.0,56.0,9.0,-10.0,0
-6.0,-206.0,-139.0,54.0,10.0,-9.0,0
-9.0,-202.0,-140.0,53.0,11.0,-9.0,0
-7.0,-205.0,-140.0,52.0,12.0,-10.0,0
-8.0,-203.0,-141.0,52.0,11.0,-9.0,0
-6.0,-204.0,-141.0,53.0,10.0,-9.0,0
-7.0,-204.0,-144.0,53.0,11.0,-11.0,0
-7.0,-203.0,-140.0,53.0,12.0,-11.0,0
-2.0,-204.0,-135.0,53.0,12.0,-10.0,0
-7.0,-202.0,-137.0,54.0,14.0,-11.0,0
-3.0,-206.0,-138.0,55.0,15.0,-11.0,0
-7.0,-205.0,-137.0,57.0,14.0,-10.0,0
-10.0,-206.0,-141.0,59.0,14.0,-10.0,0
-8.0,-203.0,-139.0,60.0,14.0,-9.0,0
-7.0,-204.0,-140.0,62.0,12.0,-12.0,0
-4.0,-203.0,-141.0,65.0,11.0,-11.0,0
-7.0,-201.0,-144.0,66.0,9.0,-10.0,0
-4.0,-201.0,-138.0,68.0,9.0,-11.0,0
-5.0,-205.0,-140.0,70.0,8.0,-11.0,0
-5.0,-198.0,-146.0,71.0,8.0,-10.0,0
-8.0,-203.0,-140.0,72.0,7.0,-10.0,0
-5.0,-200.0,-140.0,70.0,7.0,-12.0,0
-6.0,-205.0,-140.0,68.0,7.0,-12.0,0
-7.0,-201.0,-137.0,65.0,8.0,-12.0,0
-6.0,-200.0,-139.0,60.0,7.0,-13.0,0
-6.0,-202.0,-141.0,58.0,7.0,-14.0,0
-6.0,-203.0,-141.0,56.0,6.0,-15.0,0
-6.0,-203.0,-139.0,56.0,7.0,-16.0,0
-6.0,-202.0,-141.0,53.0,6.0,-15.0,0
-5.0,-200.0,-143.0,53.0,5.0,-15.0,0
-3.0,-206.0,-141.0,52.0,5.0,-16.0,0
-5.0,-205.0,-140.0,51.0,6.0,-17.0,0
-6.0,-205.0,-143.0,50.0,6.0,-17.0,0
-5.0,-205.0,-146.0,52.0,4.0,-17.0,0
-2.0,-206.0,-139.0,54.0,3.0,-16.0,0
-6.0,-203.0,-139.0,57.0,4.0,-15.0,0
-5.0,-205.0,-141.0,57.0,2.0,-16.0,0
-5.0,-206.0,-139.0,60.0,1.0,-15.0,0
-7.0,-201.0,-142.0,63.0,1.0,-15.0,0
-3.0,-205.0,-137.0,64.0,0.0,-14.0,0
-3.0,-205.0,-137.0,65.0,0.0,-15.0,0
-5.0,-201.0,-138.0,66.0,0.0,-15.0,0
-4.0,-205.0,-140.0,68.0,0.0,-17.0,0
-4.0,-199.0,-138.0,66.0,1.0,-16.0,0
-5.0,-201.0,-142.0,64.0,1.0,-16.0,0
-3.0,-202.0,-141.0,62.0,2.0,-16.0,0
-4.0,-203.0,-138.0,61.0,2.0,-17.0,0
-5.0,-202.0,-141.0,59.0,1.0,-15.0,0
-4.0,-204.0,-144.0,56.0,0.0,-17.0,0
-6.0,-203.0,-141.0,53.0,1.0,-16.0,0
-4.0,-204.0,-143.0,51.0,1.0,-16.0,0
-7.0,-203.0,-142.0,48.0,1.0,-18.0,0
-8.0,-202.0,-140.0,47.0,2.0,-19.0,0
-4.0,-204.0,-143.0,45.0,3.0,-19.0,0
-4.0,-206.0,-143.0,46.0,3.0,-20.0,0
-4.0,-205.0,-140.0,47.0,5.0,-19.0,0
-6.0,-203.0,-145.0,49.0,5.0,-22.0,0
-6.0,-201.0,-142.0,51.0,6.0,-23.0,0
-5.0,-203.0,-146.0,50.0,6.0,-23.0,0
-7.0,-200.0,-140.0,52.0,7.0,-24.0,0
-5.0,-202.0,-142.0,51.0,7.0,-24.0,0
-6.0,-199.0,-141.0,49.0,8.0,-26.0,0
-4.0,-202.0,-145.0,46.0,8.0,-28.0,0
-8.0,-197.0,-144.0,43.0,7.0,-28.0,0
-5.0,-195.0,-144.0,40.0,5.0,-28.0,0
-4.0,-200.0,-146.0,33.0,4.0,-29.0,0
-7.0,-199.0,-143.0,30.0,3.0,-31.0,0
-6.0,-199.0,-148.0,25.0,5.0,-31.0,0
-3.0,-198.0,-144.0,22.0,7.0,-33.0,0
-2.0,-200.0,-144.0,20.0,8.0,-34.0,0
0.0,-201.0,-148.0,18.0,12.0,-34.0,0
-2.0,-196.0,-148.0,19.0,14.0,-35.0,0
-2.0,-203.0,-148.0,16.0,17.0,-35.0,0
0.0,-201.0,-148.0,14.0,19.0,-34.0,0
0.0,-199.0,-143.0,12.0,23.0,-35.0,0
-2.0,-197.0,-145.0,8.0,25.0,-33.0,0
-2.0,-195.0,-147.0,6.0,31.0,-33.0,0
-1.0,-193.0,-149.0,3.0,35.0,-34.0,0
0.0,-193.0,-149.0,0.0,39.0,-33.0,0
0.0,-192.0,-146.0,-3.0,39.0,-34.0,0
-1.0,-194.0,-151.0,-6.0,41.0,-33.0,0
-1.0,-194.0,-143.0,-10.0,41.0,-34.0,0
0.0,-193.0,-149.0,-14.0,39.0,-35.0,0
-1.0,-190.0,-145.0,-19.0,36.0,-33.0,0
1.0,-186.0,-145.0,-24.0,33.0,-36.0,0
-3.0,-188.0,-146.0,-30.0,31.0,-34.0,0
-4.0,-186.0,-150.0,-34.0,32.0,-35.0,0
-5.0,-183.0,-151.0,-40.0,33.0,-35.0,0
-4.0,-185.0,-149.0,-45.0,33.0,-35.0,0
-3.0,-184.0,-146.0,-54.0,34.0,-35.0,0
-3.0,-182.0,-148.0,-61.0,35.0,-30.0,0
-4.0,-185.0,-150.0,-70.0,34.0,-30.0,0
-3.0,-184.0,-143.0,-77.0,35.0,-30.0,0
-4.0,-182.0,-144.0,-87.0,35.0,-30.0,0
-6.0,-180.0,-141.0,-95.0,34.0,-31.0,0
-2.0,-181.0,-149.0,-101.0,34.0,-30.0,0
-2.0,-181.0,-146.0,-109.0,31.0,-31.0,0
0.0,-183.0,-146.0,-114.0,29.0,-31.0,0
-3.0,-181.0,-147.0,-123.0,26.0,-30.0,0
-8.0,-184.0,-146.0,-131.0,23.0,-31.0,0
0.0,-185.0,-149.0,-141.0,19.0,-33.0,0
-1.0,-183.0,-157.0,-148.0,17.0,-33.0,0
-3.0,-185.0,-150.0,-154.0,13.0,-34.0,0
-1.0,-185.0,-150.0,-157.0,12.0,-37.0,0
-6.0,-187.0,-151.0,-159.0,10.0,-37.0,0
-7.0,-186.0,-149.0,-164.0,11.0,-36.0,0
-5.0,-190.0,-151.0,-165.0,10.0,-36.0,0
-4.0,-190.0,-154.0,-167.0,11.0,-37.0,0
-4.0,-188.0,-153.0,-167.0,11.0,-39.0,0
-4.0,-187.0,-151.0,-166.0,10.0,-37.0,0
-4.0,-188.0,-152.0,-167.0,8.0,-39.0,0
-6.0,-185.0,-152.0,-169.0,6.0,-38.0,0
-5.0,-187.0,-150.0,-170.0,3.0,-41.0,0
-6.0,-183.0,-151.0,-174.0,-1.0,-41.0,0
0.0,-183.0,-148.0,-177.0,-5.0,-40.0,0
0.0,-183.0,-152.0,-180.0,-9.0,-43.0,0
0.0,-181.0,-146.0,-183.0,-14.0,-44.0,0
0.0,-181.0,-147.0,-188.0,-19.0,-47.0,0
1.0,-179.0,-147.0,-195.0,-22.0,-49.0,0
1.0,-177.0,-150.0,-200.0,-21.0,-51.0,0
1.0,-175.0,-144.0,-205.0,-21.0,-56.0,0
1.0,-173.0,-144.0,-211.0,-18.0,-57.0,0
1.0,-171.0,-151.0,-218.0,-17.0,-59.0,0
1.0,-172.0,-147.0,-226.0,-12.0,-63.0,0
1.0,-175.0,-149.0,-233.0,-8.0,-66.0,0
1.0,-170.0,-147.0,-240.0,-4.0,-70.0,0
2.0,-174.0,-145.0,-248.0,0.0,-74.0,0
0.0,-170.0,-150.0,-253.0,3.0,-77.0,0
2.0,-173.0,-148.0,-259.0,5.0,-82.0,0
1.0,-172.0,-149.0,-267.0,7.0,-93.0,0
0.0,-169.0,-151.0,-275.0,8.0,-98.0,0
-1.0,-170.0,-156.0,-286.0,10.0,-106.0,0
2.0,-173.0,-152.0,-297.0,12.0,-112.0,0
1.0,-170.0,-152.0,-309.0,15.0,-118.0,0
0.0,-172.0,-151.0,-320.0,19.0,-128.0,0
-2.0,-170.0,-154.0,-328.0,23.0,-135.0,0
-1.0,-171.0,-155.0,-336.0,25.0,-140.0,0
0.0,-171.0,-153.0,-338.0,28.0,-145.0,0
0.0,-170.0,-152.0,-338.0,33.0,-147.0,0
0.0,-171.0,-154.0,-336.0,37.0,-150.0,0
-3.0,-169.0,-152.0,-331.0,43.0,-152.0,0
-5.0,-164.0,-156.0,-325.0,49.0,-152.0,0
-2.0,-163.0,-150.0,-318.0,54.0,-149.0,0
-4.0,-164.0,-149.0,-313.0,57.0,-148.0,0
-4.0,-164.0,-145.0,-305.0,61.0,-147.0,0
-8.0,-160.0,-148.0,-301.0,61.0,-144.0,0
-4.0,-157.0,-145.0,-297.0,62.0,-140.0,0
-5.0,-156.0,-150.0,-296.0,60.0,-135.0,0
-7.0,-153.0,-143.0,-296.0,65.0,-130.0,0
-5.0,-151.0,-146.0,-297.0,70.0,-127.0,0
-4.0,-149.0,-149.0,-302.0,73.0,-121.0,0
1.0,-144.0,-150.0,-310.0,77.0,-116.0,0
0.0,-145.0,-150.0,-318.0,80.0,-110.0,0
-2.0,-145.0,-141.0,-327.0,83.0,-108.0,0
0.0,-144.0,-144.0,-334.0,88.0,-103.0,0
2.0,-143.0,-143.0,-341.0,94.0,-98.0,0
3.0,-142.0,-142.0,-346.0,102.0,-92.0,0
4.0,-142.0,-140.0,-350.0,109.0,-87.0,0
1.0,-139.0,-143.0,-350.0,118.0,-83.0,0
2.0,-147.0,-132.0,-351.0,124.0,-78.0,0
3.0,-138.0,-136.0,-351.0,129.0,-75.0,0
3.0,-137.0,-136.0,-349.0,131.0,-72.0,0
4.0,-139.0,-134.0,-347.0,130.0,-73.0,0
1.0,-137.0,-135.0,-345.0,126.0,-72.0,0
4.0,-140.0,-133.0,-348.0,119.0,-76.0,0
0.0,-136.0,-137.0,-353.0,110.0,-82.0,0
0.0,-139.0,-133.0,-363.0,97.0,-90.0,0
-1.0,-140.0,-139.0,-376.0,81.0,-101.0,0
0.0,-144.0,-143.0,-389.0,64.0,-111.0,0
0.0,-144.0,-140.0,-401.0,46.0,-123.0,0
0.0,-144.0,-144.0,-412.0,29.0,-131.0,0
1.0,-152.0,-148.0,-419.0,15.0,-142.0,0
1.0,-155.0,-153.0,-425.0,4.0,-149.0,0
1.0,-158.0,-154.0,-428.0,-4.0,-157.0,0
3.0,-163.0,-154.0,-431.0,-13.0,-161.0,0
-1.0,-164.0,-156.0,-424.0,-19.0,-165.0,0
3.0,-171.0,-157.0,-411.0,-24.0,-170.0,0
4.0,-172.0,-164.0,-391.0,-30.0,-175.0,0
2.0,-178.0,-166.0,-368.0,-35.0,-178.0,0
2.0,-181.0,-172.0,-340.0,-42.0,-183.0,0
1.0,-183.0,-170.0,-312.0,-51.0,-187.0,0
-3.0,-183.0,-171.0,-283.0,-60.0,-190.0,0
-4.0,-187.0,-169.0,-256.0,-71.0,-190.0,0
-3.0,-184.0,-171.0,-236.0,-84.0,-191.0,0
-4.0,-187.0,-176.0,-218.0,-93.0,-188.0,0
-5.0,-188.0,-175.0,-201.0,-101.0,-182.0,0
-6.0,-187.0,-173.0,-187.0,-104.0,-176.0,0
-9.0,-190.0,-174.0,-173.0,-103.0,-165.0,0
-8.0,-190.0,-175.0,-158.0,-102.0,-155.0,0
-11.0,-190.0,-177.0,-144.0,-98.0,-145.0,0
-8.0,-191.0,-173.0,-126.0,-92.0,-134.0,0
-3.0,-190.0,-175.0,-106.0,-83.0,-124.0,0
0.0,-188.0,-177.0,-82.0,-74.0,-115.0,0
1.0,-187.0,-178.0,-59.0,-60.0,-106.0,0
2.0,-186.0,-177.0,-38.0,-46.0,-96.0,0
2.0,-187.0,-181.0,-21.0,-35.0,-86.0,0
4.0,-185.0,-183.0,-8.0,-27.0,-80.0,0
7.0,-187.0,-181.0,1.0,-24.0,-78.0,0
8.0,-188.0,-184.0,6.0,-23.0,-79.0,0
9.0,-188.0,-189.0,8.0,-21.0,-82.0,0
13.0,-186.0,-188.0,10.0,-20.0,-88.0,0
10.0,-183.0,-186.0,12.0,-20.0,-93.0,0
13.0,-183.0,-188.0,19.0,-19.0,-98.0,0
12.0,-187.0,-187.0,26.0,-18.0,-104.0,0
10.0,-187.0,-183.0,34.0,-19.0,-113.0,0
10.0,-186.0,-185.0,42.0,-24.0,-120.0,0
7.0,-184.0,-182.0,45.0,-33.0,-129.0,0
4.0,-185.0,-184.0,43.0,-43.0,-136.0,0
4.0,-185.0,-182.0,39.0,-57.0,-140.0,0
1.0,-183.0,-180.0,33.0,-71.0,-146.0,0
1.0,-181.0,-179.0,28.0,-89.0,-149.0,0
0.0,-182.0,-183.0,22.0,-104.0,-151.0,0
0.0,-181.0,-179.0,19.0,-116.0,-150.0,0
0.0,-179.0,-179.0,20.0,-123.0,-141.0,0
0.0,-180.0,-179.0,21.0,-128.0,-134.0,0
-2.0,-178.0,-176.0,26.0,-129.0,-123.0,0
-6.0,-177.0,-178.0,31.0,-126.0,-111.0,0
-4.0,-175.0,-180.0,38.0,-124.0,-98.0,0
-2.0,-173.0,-179.0,46.0,-119.0,-89.0,0
-2.0,-174.0,-174.0,54.0,-112.0,-79.0,0
0.0,-171.0,-174.0,60.0,-106.0,-69.0,0
2.0,-173.0,-179.0,66.0,-101.0,-63.0,0
-2.0,-172.0,-179.0,70.0,-97.0,-57.0,0
3.0,-176.0,-174.0,74.0,-93.0,-52.0,0
0.0,-175.0,-179.0,81.0,-93.0,-50.0,0
-1.0,-177.0,-180.0,85.0,-93.0,-51.0,0
0.0,-175.0,-189.0,89.0,-92.0,-55.0,0
0.0,-178.0,-186.0,93.0,-91.0,-58.0,0
0.0,-178.0,-187.0,96.0,-94.0,-61.0,0
0.0,-179.0,-191.0,94.0,-94.0,-63.0,0
0.0,-181.0,-191.0,90.0,-96.0,-64.0,0
2.0,-182.0,-186.0,82.0,-92.0,-64.0,0
-1.0,-184.0,-190.0,69.0,-89.0,-61.0,0
-3.0,-185.0,-190.0,52.0,-91.0,-56.0,0
-9.0,-186.0,-194.0,34.0,-94.0,-52.0,0
-9.0,-186.0,-190.0,17.0,-101.0,-48.0,0
-10.0,-186.0,-190.0,3.0,-106.0,-41.0,0
-9.0,-181.0,-182.0,-9.0,-113.0,-32.0,0
-6.0,-183.0,-181.0,-16.0,-121.0,-26.0,0
-14.0,-180.0,-183.0,-18.0,-134.0,-20.0,0
-8.0,-183.0,-184.0,-16.0,-147.0,-16.0,0
-7.0,-182.0,-179.0,-8.0,-158.0,-10.0,0
-7.0,-183.0,-183.0,5.0,-166.0,-5.0,0
-1.0,-183.0,-181.0,22.0,-172.0,-1.0,0
0.0,-179.0,-184.0,44.0,-176.0,2.0,0
2.0,-181.0,-184.0,66.0,-172.0,4.0,0
7.0,-179.0,-180.0,88.0,-163.0,8.0,0
10.0,-181.0,-187.0,111.0,-153.0,12.0,0
8.0,-180.0,-187.0,129.0,-141.0,12.0,0
12.0,-183.0,-190.0,144.0,-125.0,14.0,0
15.0,-179.0,-187.0,150.0,-109.0,18.0,0
15.0,-182.0,-187.0,148.0,-95.0,17.0,0
14.0,-180.0,-188.0,135.0,-88.0,14.0,0
10.0,-180.0,-190.0,120.0,-82.0,5.0,0
2.0,-179.0,-185.0,106.0,-80.0,-5.0,0
6.0,-178.0,-189.0,92.0,-81.0,-11.0,0
3.0,-185.0,-184.0,79.0,-89.0,-19.0,0
1.0,-183.0,-189.0,66.0,-103.0,-28.0,0
4.0,-182.0,-188.0,62.0,-116.0,-37.0,0
-1.0,-185.0,-184.0,62.0,-127.0,-52.0,0
-2.0,-190.0,-181.0,68.0,-141.0,-57.0,0
-2.0,-187.0,-181.0,78.0,-159.0,-58.0,0
0.0,-188.0,-185.0,95.0,-164.0,-55.0,0
-4.0,-189.0,-181.0,112.0,-163.0,-58.0,0
-2.0,-189.0,-187.0,129.0,-159.0,-56.0,0
0.0,-190.0,-187.0,149.0,-154.0,-52.0,0
0.0,-186.0,-188.0,164.0,-144.0,-46.0,0
-1.0,-188.0,-186.0,173.0,-134.0,-39.0,0
5.0,-185.0,-184.0,176.0,-124.0,-34.0,0
2.0,-183.0,-186.0,178.0,-116.0,-33.0,0
3.0,-180.0,-190.0,178.0,-105.0,-24.0,0
10.0,-179.0,-189.0,177.0,-93.0,-16.0,0
9.0,-178.0,-185.0,172.0,-79.0,-17.0,0
11.0,-176.0,-193.0,165.0,-67.0,-17.0,0
10.0,-173.0,-188.0,158.0,-52.0,-21.0,0
14.0,-178.0,-192.0,151.0,-42.0,-26.0,0
12.0,-181.0,-189.0,140.0,-33.0,-32.0,0
8.0,-173.0,-191.0,133.0,-21.0,-43.0,0
7.0,-175.0,-189.0,123.0,-22.0,-43.0,0
7.0,-173.0,-193.0,114.0,-21.0,-44.0,0
1.0,-179.0,-193.0,104.0,-20.0,-45.0,0
7.0,-179.0,-190.0,93.0,-16.0,-40.0,0
1.0,-182.0,-188.0,82.0,-17.0,-39.0,0
0.0,-188.0,-185.0,73.0,-26.0,-36.0,0
-7.0,-191.0,-190.0,65.0,-34.0,-33.0,0
-9.0,-193.0,-188.0,63.0,-38.0,-25.0,0
-6.0,-185.0,-173.0,62.0,-38.0,-18.0,0
-7.0,-197.0,-186.0,78.0,-57.0,-9.0,0
-7.0,-202.0,-195.0,103.0,-55.0,1.0,0
-13.0,-194.0,-197.0,129.0,-41.0,3.0,0
-10.0,-211.0,-180.0,153.0,-36.0,14.0,0
-9.0,-193.0,-180.0,175.0,-43.0,21.0,0
-6.0,-197.0,-191.0,197.0,-50.0,30.0,0
-7.0,-193.0,-190.0,220.0,-46.0,36.0,0
-8.0,-189.0,-191.0,241.0,-38.0,33.0,0
-15.0,-184.0,-184.0,249.0,-46.0,37.0,0
-7.0,-196.0,-191.0,256.0,-53.0,47.0,0
1.0,-186.0,-185.0,273.0,-63.0,48.0,0
-3.0,-175.0,-178.0,281.0,-63.0,42.0,0
0.0,-185.0,-181.0,281.0,-68.0,40.0,0
-3.0,-190.0,-192.0,270.0,-73.0,52.0,0
1.0,-187.0,-182.0,257.0,-76.0,48.0,0
2.0,-182.0,-177.0,246.0,-67.0,45.0,0
18.0,-149.0,-188.0,227.0,-63.0,53.0,0
-1.0,-192.0,-218.0,249.0,-83.0,55.0,0
22.0,-201.0,-151.0,265.0,-42.0,43.0,0
21.0,-191.0,-146.0,265.0,-22.0,39.0,0
7.0,-178.0,-184.0,256.0,-47.0,46.0,0
2.0,-192.0,-206.0,247.0,-59.0,50.0,0
0.0,-200.0,-194.0,242.0,-27.0,37.0,0
12.0,-190.0,-142.0,236.0,-1.0,37.0,0
16.0,-187.0,-158.0,233.0,-16.0,54.0,0
0.0,-191.0,-197.0,233.0,-54.0,47.0,0
-3.0,-193.0,-207.0,240.0,-52.0,44.0,0
0.0,-189.0,-180.0,252.0,-23.0,41.0,0
15.0,-184.0,-150.0,263.0,-26.0,39.0,0
-2.0,-190.0,-175.0,272.0,-62.0,28.0,0
-10.0,-187.0,-198.0,283.0,-85.0,26.0,0
2.0,-189.0,-187.0,279.0,-75.0,37.0,0
6.0,-186.0,-170.0,263.0,-78.0,25.0,0
4.0,-190.0,-167.0,246.0,-101.0,14.0,0
-7.0,-189.0,-186.0,237.0,-139.0,23.0,0
-3.0,-189.0,-192.0,239.0,-147.0,28.0,0
1.0,-193.0,-176.0,240.0,-130.0,17.0,0
9.0,-195.0,-154.0,245.0,-127.0,12.0,0
0.0,-195.0,-185.0,254.0,-142.0,12.0,0
-7.0,-195.0,-195.0,260.0,-143.0,16.0,0
-7.0,-196.0,-177.0,264.0,-113.0,14.0,0
4.0,-192.0,-155.0,269.0,-91.0,11.0,0
-3.0,-195.0,-174.0,261.0,-98.0,11.0,0
-12.0,-189.0,-191.0,250.0,-96.0,5.0,0
-12.0,-192.0,-180.0,239.0,-69.0,1.0,0
-11.0,-141.0,-182.0,223.0,-51.0,-9.0,0
-7.0,-205.0,-193.0,227.0,-34.0,-11.0,0
10.0,-214.0,-143.0,235.0,-12.0,-19.0,0
-2.0,-192.0,-163.0,231.0,-20.0,-34.0,0
-13.0,-174.0,-189.0,227.0,-31.0,-43.0,0
-15.0,-193.0,-200.0,229.0,-5.0,-49.0,0
-1.0,-201.0,-171.0,232.0,29.0,-52.0,0
5.0,-199.0,-150.0,235.0,32.0,-52.0,0
-7.0,-188.0,-177.0,241.0,14.0,-63.0,0
-13.0,-194.0,-192.0,248.0,24.0,-69.0,0
-5.0,-198.0,-186.0,256.0,61.0,-72.0,0
-2.0,-190.0,-154.0,261.0,82.0,-76.0,0
-3.0,-187.0,-167.0,271.0,67.0,-71.0,0
-15.0,-194.0,-191.0,283.0,53.0,-63.0,0
-16.0,-196.0,-189.0,280.0,67.0,-67.0,0
-5.0,-189.0,-163.0,263.0,81.0,-76.0,0
0.0,-189.0,-147.0,245.0,62.0,-74.0,0
-14.0,-193.0,-178.0,228.0,36.0,-71.0,0
-14.0,-195.0,-185.0,217.0,30.0,-66.0,0
-7.0,-196.0,-170.0,208.0,41.0,-60.0,0
-1.0,-199.0,-150.0,204.0,36.0,-57.0,0
0.0,-200.0,-151.0,206.0,9.0,-59.0,0
-13.0,-201.0,-183.0,212.0,-4.0,-57.0,0
-9.0,-199.0,-181.0,227.0,8.0,-55.0,0
-2.0,-202.0,-157.0,242.0,22.0,-50.0,0
1.0,-199.0,-156.0,262.0,12.0,-42.0,0
-12.0,-200.0,-187.0,277.0,3.0,-33.0,0
-4.0,-196.0,-183.0,287.0,21.0,-27.0,0
-1.0,-194.0,-172.0,285.0,40.0,-25.0,0
0.0,-193.0,-160.0,270.0,46.0,-25.0,0
-1.0,-192.0,-165.0,251.0,46.0,-20.0,0
-5.0,-193.0,-179.0,231.0,56.0,-18.0,0
0.0,-196.0,-169.0,214.0,72.0,-15.0,0
0.0,-195.0,-156.0,202.0,77.0,-11.0,0
0.0,-193.0,-152.0,201.0,68.0,-6.0,0
-4.0,-194.0,-160.0,210.0,59.0,-2.0,0
-4.0,-193.0,-164.0,222.0,63.0,1.0,0
-9.0,-191.0,-156.0,231.0,64.0,2.0,0
-8.0,-191.0,-154.0,233.0,53.0,5.0,0
-9.0,-189.0,-154.0,228.0,41.0,5.0,0
-12.0,-191.0,-166.0,222.0,38.0,6.0,0
-11.0,-189.0,-154.0,211.0,44.0,2.0,0
-11.0,-188.0,-153.0,199.0,38.0,3.0,0
-13.0,-189.0,-153.0,189.0,22.0,1.0,0
-13.0,-192.0,-162.0,180.0,13.0,0.0,0
-16.0,-197.0,-172.0,174.0,13.0,-1.0,0
-10.0,-195.0,-156.0,169.0,10.0,-2.0,0
-9.0,-192.0,-150.0,167.0,6.0,0.0,0
-11.0,-192.0,-162.0,168.0,-3.0,1.0,0
-10.0,-193.0,-167.0,169.0,-4.0,1.0,0
-12.0,-191.0,-165.0,171.0,1.0,-1.0,0
-6.0,-191.0,-158.0,171.0,8.0,1.0,0
-7.0,-193.0,-158.0,171.0,9.0,3.0,0
-2.0,-194.0,-160.0,168.0,8.0,5.0,0
-8.0,-195.0,-164.0,167.0,16.0,4.0,0
-3.0,-193.0,-159.0,168.0,25.0,3.0,0
-4.0,-193.0,-157.0,171.0,26.0,1.0,0
-5.0,-191.0,-161.0,173.0,21.0,-1.0,0
-4.0,-190.0,-164.0,172.0,20.0,-3.0,0
-3.0,-191.0,-158.0,170.0,23.0,-6.0,0
-3.0,-189.0,-151.0,168.0,25.0,-10.0,0
-3.0,-190.0,-151.0,167.0,19.0,-12.0,0
-7.0,-190.0,-152.0,166.0,14.0,-13.0,0
-5.0,-192.0,-157.0,167.0,15.0,-11.0,0
-6.0,-187.0,-158.0,165.0,20.0,-14.0,0
-2.0,-194.0,-154.0,162.0,23.0,-11.0,0
-7.0,-194.0,-155.0,162.0,22.0,-9.0,0
-4.0,-190.0,-161.0,166.0,21.0,-10.0,0
-2.0,-192.0,-156.0,165.0,32.0,-10.0,0
-2.0,-190.0,-159.0,164.0,39.0,-7.0,0
-1.0,-191.0,-154.0,160.0,48.0,-7.0,0
-1.0,-192.0,-157.0,150.0,53.0,-6.0,0
-2.0,-192.0,-156.0,140.0,58.0,-4.0,0
1.0,-192.0,-156.0,135.0,60.0,-1.0,0
0.0,-193.0,-152.0,130.0,65.0,3.0,0
-1.0,-197.0,-153.0,129.0,63.0,2.0,0
1.0,-198.0,-154.0,129.0,64.0,5.0,0
0.0,-196.0,-150.0,130.0,65.0,8.0,0
-1.0,-194.0,-149.0,131.0,67.0,10.0,0
1.0,-196.0,-145.0,128.0,69.0,15.0,0
1.0,-193.0,-148.0,130.0,66.0,18.0,0
0.0,-195.0,-148.0,136.0,63.0,20.0,0
-3.0,-193.0,-151.0,139.0,62.0,21.0,0
-6.0,-194.0,-151.0,137.0,57.0,20.0,0
0.0,-195.0,-151.0,128.0,55.0,18.0,0
-3.0,-194.0,-144.0,122.0,50.0,15.0,0
-3.0,-196.0,-151.0,115.0,40.0,15.0,0
-5.0,-194.0,-153.0,114.0,34.0,13.0,0
-10.0,-195.0,-129.0,112.0,31.0,16.0,0
-8.0,-194.0,-141.0,115.0,27.0,15.0,0
-6.0,-192.0,-149.0,115.0,18.0,13.0,0
-7.0,-194.0,-149.0,112.0,14.0,13.0,0
-9.0,-196.0,-153.0,112.0,15.0,12.0,0
-9.0,-195.0,-150.0,111.0,18.0,11.0,0
-4.0,-193.0,-150.0,109.0,17.0,9.0,0
-7.0,-194.0,-152.0,104.0,17.0,7.0,0
-5.0,-195.0,-162.0,98.0,23.0,5.0,0
-7.0,-196.0,-147.0,95.0,31.0,5.0,0
-10.0,-196.0,-151.0,95.0,38.0,2.0,0
-10.0,-197.0,-150.0,97.0,42.0,0.0,0
-8.0,-194.0,-150.0,100.0,47.0,0.0,0
-9.0,-193.0,-152.0,101.0,52.0,-3.0,0
-8.0,-197.0,-151.0,102.0,55.0,-4.0,0
-4.0,-197.0,-148.0,104.0,57.0,-3.0,0
-7.0,-194.0,-150.0,106.0,58.0,-4.0,0
-9.0,-196.0,-151.0,106.0,60.0,-2.0,0
-8.0,-196.0,-151.0,113.0,62.0,3.0,0
-4.0,-195.0,-149.0,119.0,62.0,3.0,0
-42.0,-248.0,-154.0,118.0,60.0,-1.0,0
16.0,-209.0,-113.0,117.0,97.0,-23.0,0
-12.0,-221.0,-162.0,121.0,27.0,7.0,0
-25.0,-172.0,-190.0,121.0,28.0,-3.0,0
-17.0,-181.0,-175.0,119.0,61.0,-9.0,0
0.0,-212.0,-133.0,110.0,59.0,-11.0,0
-3.0,-210.0,-144.0,102.0,15.0,-12.0,0
-19.0,-187.0,-180.0,96.0,-2.0,-9.0,0
-19.0,-189.0,-180.0,96.0,23.0,-11.0,0
-8.0,-206.0,-150.0,99.0,40.0,-11.0,0
2.0,-206.0,-134.0,99.0,18.0,-8.0,0
-13.0,-192.0,-170.0,99.0,-4.0,-6.0,0
-15.0,-195.0,-185.0,102.0,8.0,-6.0,0
-9.0,-201.0,-167.0,105.0,39.0,-10.0,0
3.0,-201.0,-136.0,102.0,42.0,-11.0,0
-5.0,-197.0,-157.0,97.0,22.0,-11.0,0
-12.0,-197.0,-179.0,95.0,24.0,-8.0,0
-6.0,-202.0,-171.0,95.0,53.0,-7.0,0
0.0,-203.0,-147.0,94.0,68.0,-7.0,0
4.0,-199.0,-130.0,91.0,68.0,-7.0,0
-9.0,-198.0,-169.0,93.0,48.0,-3.0,0
-11.0,-200.0,-178.0,97.0,39.0,-1.0,0
-1.0,-203.0,-155.0,102.0,55.0,-1.0,0
3.0,-200.0,-136.0,106.0,68.0,0.0,0
5.0,-195.0,-139.0,106.0,44.0,-2.0,0
-11.0,-200.0,-175.0,100.0,22.0,-5.0,0
-8.0,-202.0,-165.0,95.0,22.0,-7.0,0
-1.0,-202.0,-145.0,91.0,35.0,-8.0,0
2.0,-200.0,-139.0,89.0,25.0,-9.0,0
-4.0,-199.0,-154.0,87.0,2.0,-8.0,0
-9.0,-202.0,-169.0,88.0,-4.0,-9.0,0
-4.0,-201.0,-156.0,88.0,12.0,-8.0,0
0.0,-199.0,-143.0,90.0,26.0,-6.0,0
-1.0,-200.0,-153.0,94.0,21.0,-3.0,0
-10.0,-196.0,-167.0,97.0,17.0,-1.0,0
-4.0,-198.0,-161.0,102.0,32.0,-2.0,0
0.0,-198.0,-147.0,106.0,51.0,-3.0,0
2.0,-197.0,-148.0,108.0,48.0,-5.0,0
-1.0,-197.0,-159.0,109.0,37.0,-6.0,0
-6.0,-197.0,-165.0,108.0,41.0,-10.0,0
0.0,-197.0,-151.0,109.0,55.0,-13.0,0
1.0,-200.0,-140.0,109.0,57.0,-15.0,0
1.0,-200.0,-151.0,107.0,46.0,-18.0,0
-9.0,-198.0,-162.0,107.0,39.0,-20.0,0
2.0,-200.0,-152.0,107.0,42.0,-20.0,0
1.0,-197.0,-141.0,105.0,48.0,-21.0,0
-2.0,-198.0,-146.0,105.0,39.0,-20.0,0
-7.0,-200.0,-156.0,103.0,30.0,-19.0,0
-8.0,-201.0,-158.0,103.0,32.0,-15.0,0
1.0,-203.0,-143.0,105.0,40.0,-12.0,0
0.0,-198.0,-148.0,105.0,42.0,-13.0,0
1.0,-199.0,-159.0,103.0,37.0,-17.0,0
-4.0,-203.0,-163.0,100.0,40.0,-22.0,0
-4.0,-198.0,-160.0,99.0,49.0,-24.0,0
2.0,-202.0,-144.0,98.0,56.0,-25.0,0
2.0,-202.0,-151.0,99.0,51.0,-26.0,0
-3.0,-201.0,-154.0,99.0,45.0,-27.0,0
0.0,-202.0,-153.0,101.0,47.0,-28.0,0
0.0,-199.0,-155.0,103.0,50.0,-28.0,0
-1.0,-203.0,-148.0,106.0,46.0,-29.0,0
0.0,-200.0,-151.0,106.0,37.0,-30.0,0
-4.0,-202.0,-160.0,107.0,35.0,-29.0,0
-6.0,-200.0,-156.0,104.0,40.0,-30.0,0
-1.0,-203.0,-150.0,99.0,43.0,-29.0,0
0.0,-204.0,-150.0,93.0,41.0,-28.0,0
-1.0,-203.0,-153.0,89.0,41.0,-26.0,0
-1.0,-206.0,-149.0,88.0,46.0,-26.0,0
-2.0,-200.0,-150.0,90.0,54.0,-25.0,0
1.0,-203.0,-149.0,95.0,57.0,-21.0,0
1.0,-204.0,-146.0,99.0,57.0,-19.0,0
3.0,-204.0,-152.0,103.0,58.0,-18.0,0
1.0,-202.0,-151.0,107.0,62.0,-17.0,0
-1.0,-203.0,-146.0,110.0,61.0,-18.0,0
-18.0,-209.0,-132.0,110.0,52.0,-15.0,0
6.0,-202.0,-156.0,122.0,23.0,-10.0,0
-5.0,-200.0,-160.0,118.0,34.0,-16.0,0
1.0,-199.0,-142.0,115.0,39.0,-18.0,0
4.0,-202.0,-139.0,112.0,31.0,-18.0,0
0.0,-199.0,-151.0,109.0,15.0,-17.0,0
-1.0,-203.0,-154.0,103.0,9.0,-16.0,0
-3.0,-197.0,-145.0,98.0,12.0,-14.0,0
1.0,-197.0,-140.0,92.0,8.0,-14.0,0
1.0,-198.0,-134.0,85.0,-3.0,-10.0,0
-7.0,-195.0,-150.0,79.0,-8.0,-8.0,0
-5.0,-195.0,-147.0,73.0,-4.0,-8.0,0
1.0,-199.0,-142.0,64.0,4.0,-6.0,0
0.0,-197.0,-139.0,52.0,0.0,-5.0,0
0.0,-198.0,-139.0,40.0,-6.0,-4.0,0
-5.0,-198.0,-150.0,36.0,-2.0,-3.0,0
-6.0,-198.0,-148.0,29.0,4.0,-3.0,0
2.0,-200.0,-137.0,24.0,1.0,-3.0,0
1.0,-197.0,-145.0,20.0,-9.0,-3.0,0
1.0,-202.0,-148.0,15.0,-16.0,-4.0,0
0.0,-205.0,-154.0,14.0,-15.0,-3.0,0
1.0,-200.0,-150.0,14.0,-18.0,-5.0,0
2.0,-203.0,-148.0,13.0,-27.0,-3.0,0
-1.0,-201.0,-151.0,14.0,-35.0,-7.0,0
-1.0,-197.0,-158.0,17.0,-35.0,-6.0,0
1.0,-198.0,-155.0,18.0,-34.0,-8.0,0
2.0,-197.0,-151.0,16.0,-34.0,-10.0,0
0.0,-195.0,-149.0,15.0,-30.0,-12.0,0
2.0,-197.0,-156.0,13.0,-28.0,-12.0,0
-2.0,-194.0,-156.0,12.0,-21.0,-15.0,0
0.0,-194.0,-149.0,10.0,-13.0,-15.0,0
0.0,-197.0,-153.0,9.0,-8.0,-14.0,0
0.0,-198.0,-152.0,9.0,-7.0,-14.0,0
-3.0,-200.0,-153.0,11.0,-4.0,-13.0,0
-1.0,-199.0,-147.0,16.0,1.0,-11.0,0
1.0,-200.0,-143.0,22.0,1.0,-11.0,0
-1.0,-197.0,-148.0,27.0,-2.0,-10.0,0
0.0,-200.0,-152.0,33.0,-5.0,-12.0,0
1.0,-200.0,-147.0,39.0,-3.0,-10.0,0
-3.0,-197.0,-145.0,45.0,-3.0,-12.0,0
0.0,-201.0,-147.0,51.0,-5.0,-12.0,0
0.0,-201.0,-154.0,55.0,-8.0,-12.0,0
-2.0,-196.0,-147.0,59.0,-7.0,-13.0,0
-3.0,-197.0,-148.0,62.0,-6.0,-15.0,0
0.0,-199.0,-148.0,65.0,-5.0,-20.0,0
0.0,-196.0,-147.0,68.0,-8.0,-24.0,0
-2.0,-196.0,-150.0,71.0,-8.0,-27.0,0
-2.0,-196.0,-148.0,71.0,-10.0,-28.0,0
-4.0,-194.0,-146.0,73.0,-9.0,-30.0,0
0.0,-191.0,-149.0,76.0,-10.0,-29.0,0
0.0,-193.0,-151.0,80.0,-13.0,-30.0,0
-1.0,-192.0,-152.0,83.0,-12.0,-29.0,0
0.0,-195.0,-150.0,81.0,-9.0,-26.0,0
-2.0,-192.0,-146.0,79.0,-8.0,-23.0,0
0.0,-194.0,-150.0,76.0,-8.0,-20.0,0
0.0,-194.0,-151.0,71.0,-6.0,-17.0,0
0.0,-192.0,-147.0,66.0,-4.0,-14.0,0
-1.0,-195.0,-146.0,56.0,-3.0,-13.0,0
-5.0,-193.0,-145.0,47.0,-2.0,-12.0,0
-6.0,-194.0,-147.0,37.0,-2.0,-13.0,0
-6.0,-194.0,-149.0,29.0,-3.0,-15.0,0
-8.0,-196.0,-147.0,22.0,1.0,-16.0,0
-3.0,-195.0,-144.0,15.0,-1.0,-16.0,0
-6.0,-199.0,-145.0,14.0,-3.0,-15.0,0
-3.0,-199.0,-149.0,18.0,-2.0,-15.0,0
-3.0,-204.0,-146.0,25.0,-1.0,-16.0,0
-6.0,-200.0,-144.0,34.0,-2.0,-15.0,0
-5.0,-201.0,-149.0,44.0,-5.0,-15.0,0
-4.0,-197.0,-148.0,52.0,-10.0,-15.0,0
0.0,-199.0,-152.0,55.0,-11.0,-15.0,0
-3.0,-198.0,-149.0,56.0,-13.0,-16.0,0
-4.0,-198.0,-149.0,59.0,-13.0,-16.0,0
-4.0,-196.0,-149.0,60.0,-16.0,-16.0,0
0.0,-196.0,-149.0,63.0,-17.0,-17.0,0
-2.0,-195.0,-152.0,65.0,-17.0,-17.0,0
-3.0,-198.0,-147.0,65.0,-20.0,-18.0,0
-5.0,-193.0,-149.0,65.0,-20.0,-19.0,0
-2.0,-194.0,-149.0,66.0,-21.0,-19.0,0
0.0,-201.0,-147.0,68.0,-20.0,-20.0,0
-5.0,-198.0,-147.0,71.0,-19.0,-20.0,0
1.0,-198.0,-152.0,76.0,-18.0,-21.0,0
-2.0,-197.0,-148.0,78.0,-16.0,-20.0,0
-2.0,-194.0,-153.0,80.0,-13.0,-20.0,0
-3.0,-193.0,-151.0,79.0,-7.0,-18.0,0
-3.0,-195.0,-147.0,79.0,0.0,-18.0,0
2.0,-194.0,-147.0,80.0,8.0,-16.0,0
-2.0,-192.0,-149.0,79.0,14.0,-15.0,0
0.0,-191.0,-148.0,78.0,22.0,-15.0,0
0.0,-191.0,-144.0,78.0,28.0,-14.0,0
0.0,-192.0,-147.0,78.0,32.0,-16.0,0
-1.0,-192.0,-144.0,77.0,36.0,-13.0,0
-3.0,-190.0,-146.0,75.0,35.0,-16.0,0
0.0,-188.0,-146.0,73.0,31.0,-17.0,0
-4.0,-190.0,-147.0,70.0,30.0,-15.0,0
-7.0,-189.0,-145.0,64.0,26.0,-16.0,0
-1.0,-190.0,-148.0,61.0,20.0,-15.0,0
-6.0,-189.0,-150.0,57.0,14.0,-14.0,0
-1.0,-190.0,-147.0,53.0,10.0,-10.0,0
-4.0,-188.0,-150.0,49.0,8.0,-8.0,0
-3.0,-191.0,-152.0,45.0,8.0,-7.0,0
-5.0,-193.0,-152.0,41.0,9.0,-5.0,0
-3.0,-195.0,-149.0,41.0,10.0,-6.0,0
-3.0,-194.0,-151.0,41.0,13.0,-4.0,0
-3.0,-193.0,-152.0,42.0,15.0,-4.0,0
-3.0,-199.0,-150.0,44.0,17.0,-7.0,0
-6.0,-195.0,-148.0,48.0,17.0,-11.0,0
-5.0,-194.0,-147.0,52.0,16.0,-14.0,0
-1.0,-193.0,-150.0,53.0,14.0,-16.0,0
-2.0,-194.0,-153.0,54.0,11.0,-19.0,0
-3.0,-196.0,-152.0,53.0,10.0,-23.0,0
-5.0,-193.0,-149.0,55.0,11.0,-24.0,0
-7.0,-195.0,-148.0,56.0,11.0,-27.0,0
-8.0,-193.0,-153.0,58.0,13.0,-27.0,0
-6.0,-194.0,-149.0,63.0,13.0,-30.0,0
-5.0,-197.0,-149.0,66.0,14.0,-29.0,0
-7.0,-200.0,-147.0,66.0,13.0,-28.0,0
-8.0,-198.0,-148.0,68.0,14.0,-28.0,0
-7.0,-200.0,-148.0,70.0,13.0,-31.0,0
-3.0,-202.0,-150.0,77.0,12.0,-33.0,0
-1.0,-203.0,-145.0,83.0,10.0,-33.0,0
0.0,-206.0,-149.0,89.0,6.0,-33.0,0
0.0,-202.0,-150.0,91.0,2.0,-36.0,0
0.0,-201.0,-150.0,93.0,0.0,-36.0,0
-3.0,-199.0,-151.0,91.0,-2.0,-38.0,0
-2.0,-202.0,-147.0,89.0,-4.0,-41.0,0
1.0,-204.0,-144.0,87.0,-6.0,-41.0,0
-1.0,-203.0,-147.0,86.0,-5.0,-42.0,0
0.0,-203.0,-151.0,87.0,-4.0,-43.0,0
-4.0,-204.0,-152.0,86.0,1.0,-43.0,0
-7.0,-204.0,-149.0,86.0,2.0,-43.0,0
0.0,-204.0,-150.0,88.0,8.0,-40.0,0
-1.0,-204.0,-149.0,90.0,16.0,-36.0,0
-4.0,-201.0,-153.0,91.0,23.0,-32.0,0
-5.0,-202.0,-150.0,89.0,28.0,-31.0,0
-2.0,-204.0,-150.0,87.0,31.0,-31.0,0
-1.0,-200.0,-151.0,85.0,35.0,-30.0,0
-2.0,-203.0,-149.0,83.0,37.0,-28.0,0
-2.0,-202.0,-145.0,82.0,36.0,-31.0,0
-5.0,-201.0,-143.0,82.0,31.0,-33.0,0
-3.0,-197.0,-148.0,81.0,24.0,-35.0,0
-1.0,-202.0,-148.0,81.0,18.0,-37.0,0
-5.0,-199.0,-144.0,80.0,10.0,-40.0,0
-2.0,-202.0,-144.0,77.0,2.0,-40.0,0
-1.0,-201.0,-143.0,73.0,-5.0,-41.0,0
-6.0,-199.0,-147.0,67.0,-10.0,-40.0,0
-7.0,-198.0,-150.0,62.0,-11.0,-39.0,0
-4.0,-200.0,-150.0,62.0,-12.0,-37.0,0
-5.0,-201.0,-148.0,60.0,-10.0,-33.0,0
-3.0,-202.0,-148.0,59.0,-9.0,-31.0,0
-3.0,-200.0,-149.0,57.0,-5.0,-28.0,0
-2.0,-201.0,-152.0,56.0,-1.0,-25.0,0
-2.0,-202.0,-150.0,52.0,2.0,-24.0,0
-2.0,-201.0,-149.0,52.0,5.0,-22.0,0
0.0,-202.0,-148.0,53.0,7.0,-23.0,0
2.0,-201.0,-148.0,56.0,12.0,-23.0,0
1.0,-203.0,-150.0,60.0,13.0,-23.0,0
4.0,-202.0,-149.0,64.0,13.0,-23.0,0
1.0,-201.0,-144.0,67.0,12.0,-24.0,0
1.0,-201.0,-146.0,69.0,11.0,-26.0,0
1.0,-199.0,-149.0,69.0,10.0,-25.0,0
-3.0,-200.0,-148.0,69.0,7.0,-25.0,0
0.0,-201.0,-149.0,66.0,5.0,-26.0,0
-3.0,-199.0,-146.0,63.0,3.0,-25.0,0
-2.0,-198.0,-147.0,62.0,3.0,-23.0,0
-1.0,-196.0,-146.0,62.0,2.0,-23.0,0
-1.0,-200.0,-149.0,64.0,3.0,-22.0,0
-2.0,-193.0,-147.0,66.0,2.0,-21.0,0
0.0,-198.0,-143.0,68.0,2.0,-19.0,0
-5.0,-198.0,-144.0,69.0,2.0,-16.0,0
-11.0,-206.0,-143.0,71.0,1.0,-14.0,0
3.0,-202.0,-147.0,71.0,0.0,-16.0,0
-2.0,-198.0,-144.0,72.0,1.0,-15.0,0
2.0,-199.0,-145.0,73.0,1.0,-13.0,0
-1.0,-199.0,-146.0,72.0,-1.0,-12.0,0
0.0,-198.0,-146.0,70.0,-1.0,-14.0,0
1.0,-197.0,-146.0,71.0,-2.0,-15.0,0
-1.0,-197.0,-143.0,70.0,-3.0,-14.0,0
0.0,-197.0,-145.0,69.0,-6.0,-16.0,0
1.0,-197.0,-146.0,66.0,-7.0,-16.0,0
0.0,-198.0,-147.0,64.0,-9.0,-19.0,0
0.0,-194.0,-140.0,63.0,-12.0,-21.0,0
0.0,-195.0,-145.0,63.0,-16.0,-23.0,0
0.0,-196.0,-146.0,62.0,-19.0,-23.0,0
0.0,-200.0,-147.0,57.0,-20.0,-23.0,0
0.0,-197.0,-147.0,54.0,-22.0,-21.0,0
5.0,-198.0,-146.0,49.0,-23.0,-21.0,0
0.0,-199.0,-145.0,47.0,-23.0,-19.0,0
0.0,-199.0,-148.0,48.0,-21.0,-18.0,0
2.0,-202.0,-144.0,50.0,-19.0,-19.0,0
1.0,-201.0,-142.0,56.0,-15.0,-18.0,0
3.0,-202.0,-145.0,59.0,-14.0,-17.0,0
2.0,-206.0,-144.0,66.0,-11.0,-18.0,0
1.0,-203.0,-144.0,74.0,-9.0,-19.0,0
2.0,-202.0,-145.0,80.0,-7.0,-20.0,0
1.0,-198.0,-147.0,86.0,-4.0,-20.0,0
0.0,-199.0,-144.0,88.0,1.0,-20.0,0
0.0,-201.0,-143.0,86.0,4.0,-23.0,0
-2.0,-197.0,-144.0,84.0,5.0,-24.0,0
0.0,-202.0,-144.0,81.0,7.0,-25.0,0
-4.0,-197.0,-148.0,78.0,6.0,-27.0,0
-5.0,-198.0,-145.0,77.0,5.0,-25.0,0
-3.0,-198.0,-145.0,75.0,3.0,-27.0,0
-5.0,-199.0,-140.0,74.0,-2.0,-27.0,0
-3.0,-199.0,-144.0,75.0,-7.0,-25.0,0
-4.0,-199.0,-147.0,74.0,-11.0,-25.0,0
-1.0,-201.0,-144.0,73.0,-14.0,-26.0,0
0.0,-200.0,-145.0,77.0,-19.0,-24.0,0
0.0,-201.0,-143.0,79.0,-22.0,-24.0,0
0.0,-198.0,-146.0,80.0,-25.0,-23.0,0
-3.0,-200.0,-142.0,78.0,-24.0,-20.0,0
2.0,-201.0,-147.0,77.0,-21.0,-20.0,0
-3.0,-201.0,-148.0,75.0,-19.0,-17.0,0
-1.0,-198.0,-151.0,72.0,-17.0,-16.0,0
-1.0,-199.0,-149.0,70.0,-15.0,-16.0,0
-2.0,-203.0,-141.0,67.0,-9.0,-16.0,0
3.0,-199.0,-144.0,64.0,-7.0,-15.0,0
2.0,-202.0,-144.0,66.0,-4.0,-16.0,0
-3.0,-199.0,-144.0,67.0,-3.0,-18.0,0
0.0,-201.0,-146.0,68.0,-2.0,-20.0,0
0.0,-200.0,-144.0,68.0,-4.0,-22.0,0
-2.0,-200.0,-141.0,69.0,-7.0,-24.0,0
-5.0,-200.0,-144.0,70.0,-9.0,-26.0,0
0.0,-198.0,-144.0,71.0,-11.0,-27.0,0
-6.0,-199.0,-144.0,75.0,-12.0,-26.0,0
-10.0,-201.0,-146.0,76.0,-13.0,-27.0,0
-2.0,-200.0,-147.0,76.0,-14.0,-25.0,0
-8.0,-197.0,-147.0,76.0,-12.0,-23.0,0
-6.0,-200.0,-144.0,75.0,-10.0,-21.0,0
-2.0,-201.0,-144.0,75.0,-10.0,-19.0,0
-6.0,-199.0,-144.0,77.0,-7.0,-19.0,0
-3.0,-202.0,-149.0,79.0,-6.0,-16.0,0
-3.0,-201.0,-147.0,79.0,-8.0,-16.0,0
-3.0,-202.0,-144.0,79.0,-9.0,-15.0,0
-6.0,-199.0,-148.0,77.0,-8.0,-14.0,0
-6.0,-197.0,-144.0,75.0,-7.0,-13.0,0
-3.0,-201.0,-142.0,74.0,-6.0,-15.0,0
-3.0,-195.0,-145.0,72.0,-8.0,-17.0,0
0.0,-197.0,-147.0,72.0,-8.0,-19.0,0
-1.0,-196.0,-147.0,70.0,-10.0,-20.0,0
0.0,-201.0,-145.0,69.0,-11.0,-24.0,0
-2.0,-196.0,-143.0,65.0,-12.0,-25.0,0
-4.0,-197.0,-146.0,59.0,-14.0,-27.0,0
-4.0,-196.0,-146.0,56.0,-16.0,-27.0,0
-7.0,-202.0,-148.0,50.0,-18.0,-27.0,0
-4.0,-200.0,-146.0,47.0,-20.0,-26.0,0
-7.0,-201.0,-145.0,44.0,-21.0,-26.0,0
-6.0,-201.0,-146.0,42.0,-23.0,-25.0,0
-8.0,-198.0,-146.0,39.0,-22.0,-26.0,0
-5.0,-201.0,-149.0,36.0,-19.0,-26.0,0
-7.0,-199.0,-148.0,35.0,-16.0,-27.0,0
-1.0,-199.0,-148.0,37.0,-15.0,-27.0,0
-4.0,-204.0,-146.0,39.0,-13.0,-27.0,0
-2.0,-204.0,-148.0,41.0,-12.0,-28.0,0
0.0,-203.0,-148.0,42.0,-12.0,-30.0,0
0.0,-202.0,-148.0,45.0,-10.0,-30.0,0
-1.0,-204.0,-148.0,47.0,-11.0,-31.0,0
-14.0,-201.0,-155.0,50.0,-7.0,-28.0,0
0.0,-202.0,-149.0,55.0,-5.0,-27.0,0
0.0,-203.0,-146.0,58.0,-4.0,-25.0,0
-4.0,-199.0,-146.0,59.0,-3.0,-25.0,0
-2.0,-199.0,-146.0,61.0,-3.0,-23.0,0
0.0,-200.0,-146.0,62.0,-1.0,-19.0,0
-1.0,-197.0,-149.0,63.0,1.0,-20.0,0
0.0,-200.0,-146.0,66.0,3.0,-21.0,0
0.0,-201.0,-145.0,68.0,5.0,-19.0,0
-1.0,-198.0,-144.0,73.0,7.0,-20.0,0
-2.0,-200.0,-148.0,77.0,12.0,-18.0,0
-2.0,-199.0,-148.0,80.0,14.0,-17.0,0
-3.0,-196.0,-144.0,82.0,17.0,-17.0,0
0.0,-199.0,-143.0,81.0,17.0,-14.0,0
-3.0,-194.0,-147.0,80.0,17.0,-13.0,0
-4.0,-196.0,-145.0,76.0,17.0,-12.0,0
-3.0,-195.0,-146.0,73.0,18.0,-11.0,0
-1.0,-195.0,-145.0,69.0,18.0,-8.0,0
0.0,-197.0,-145.0,66.0,18.0,-7.0,0
-4.0,-194.0,-144.0,63.0,17.0,-7.0,0
-7.0,-195.0,-143.0,60.0,17.0,-5.0,0
-2.0,-198.0,-146.0,56.0,19.0,-3.0,0
-4.0,-199.0,-147.0,54.0,20.0,-4.0,0
-1.0,-202.0,-144.0,54.0,20.0,-2.0,0
-1.0,-200.0,-148.0,53.0,19.0,-1.0,0
-1.0,-202.0,-149.0,54.0,20.0,-3.0,0
-1.0,-198.0,-144.0,55.0,20.0,-2.0,0
-2.0,-199.0,-143.0,58.0,20.0,-2.0,0
-3.0,-203.0,-144.0,60.0,20.0,-3.0,0
-2.0,-198.0,-147.0,60.0,19.0,-5.0,0
0.0,-199.0,-145.0,62.0,18.0,-6.0,0
-2.0,-199.0,-142.0,61.0,17.0,-6.0,0
0.0,-200.0,-143.0,60.0,18.0,-7.0,0
0.0,-200.0,-145.0,59.0,17.0,-9.0,0
0.0,-201.0,-142.0,60.0,18.0,-9.0,0
-5.0,-197.0,-142.0,60.0,19.0,-9.0,0
-2.0,-202.0,-140.0,59.0,19.0,-10.0,0
-3.0,-202.0,-143.0,60.0,18.0,-9.0,0
-5.0,-200.0,-139.0,61.0,15.0,-11.0,0
-4.0,-199.0,-141.0,62.0,15.0,-10.0,0
-3.0,-200.0,-144.0,63.0,13.0,-10.0,0
-1.0,-201.0,-139.0,67.0,14.0,-11.0,0
-1.0,-195.0,-139.0,70.0,14.0,-12.0,0
-5.0,-200.0,-146.0,73.0,13.0,-12.0,0
0.0,-203.0,-140.0,75.0,11.0,-12.0,0
-1.0,-196.0,-141.0,76.0,10.0,-13.0,0
0.0,-199.0,-144.0,77.0,8.0,-13.0,0
0.0,-200.0,-142.0,77.0,8.0,-15.0,0
-1.0,-200.0,-141.0,77.0,9.0,-14.0,0
0.0,-199.0,-141.0,78.0,9.0,-14.0,0
-1.0,-202.0,-145.0,77.0,9.0,-15.0,0
-3.0,-196.0,-142.0,74.0,11.0,-16.0,0
-2.0,-203.0,-146.0,75.0,15.0,-15.0,0
-1.0,-200.0,-145.0,74.0,19.0,-13.0,0
-2.0,-201.0,-146.0,75.0,23.0,-11.0,0
-1.0,-198.0,-140.0,76.0,26.0,-12.0,0
0.0,-201.0,-143.0,76.0,26.0,-11.0,0
0.0,-202.0,-142.0,76.0,28.0,-13.0,0
-2.0,-201.0,-142.0,78.0,29.0,-13.0,0
-6.0,-196.0,-142.0,77.0,29.0,-15.0,0
0.0,-198.0,-140.0,76.0,30.0,-14.0,0
-1.0,-197.0,-140.0,74.0,30.0,-16.0,0
-4.0,-196.0,-143.0,73.0,31.0,-18.0,0
-7.0,-199.0,-138.0,72.0,28.0,-19.0,0
-2.0,-198.0,-140.0,73.0,27.0,-18.0,0
-4.0,-199.0,-138.0,72.0,29.0,-17.0,0
-2.0,-200.0,-144.0,73.0,28.0,-17.0,0
-3.0,-200.0,-137.0,74.0,29.0,-16.0,0
0.0,-202.0,-137.0,73.0,28.0,-17.0,0
-1.0,-202.0,-139.0,72.0,25.0,-15.0,0
-1.0,-198.0,-143.0,68.0,23.0,-17.0,0
0.0,-202.0,-144.0,60.0,19.0,-16.0,0
-2.0,-203.0,-142.0,54.0,15.0,-16.0,0
0.0,-204.0,-143.0,52.0,14.0,-14.0,0
0.0,-203.0,-147.0,50.0,14.0,-12.0,0
-1.0,-203.0,-142.0,48.0,12.0,-13.0,0
0.0,-206.0,-143.0,42.0,11.0,-12.0,0
-2.0,-202.0,-148.0,37.0,11.0,-10.0,0
0.0,-205.0,-143.0,30.0,12.0,-10.0,0
0.0,-205.0,-150.0,23.0,15.0,-9.0,0
0.0,-204.0,-150.0,15.0,18.0,-8.0,0
0.0,-207.0,-147.0,9.0,19.0,-10.0,0
-2.0,-209.0,-148.0,-1.0,21.0,-10.0,0
0.0,-211.0,-151.0,-7.0,24.0,-11.0,0
0.0,-213.0,-148.0,-13.0,26.0,-9.0,0
-1.0,-213.0,-149.0,-14.0,29.0,-8.0,0
-1.0,-213.0,-151.0,-15.0,29.0,-4.0,0
-11.0,-209.0,-144.0,-13.0,30.0,-1.0,0
0.0,-215.0,-153.0,-8.0,29.0,-1.0,0
0.0,-213.0,-149.0,-5.0,29.0,0.0,0
-3.0,-211.0,-151.0,-3.0,27.0,2.0,0
-4.0,-213.0,-154.0,-5.0,22.0,1.0,0
-4.0,-213.0,-154.0,-8.0,16.0,-4.0,0
-5.0,-215.0,-151.0,-13.0,11.0,-5.0,0
-8.0,-215.0,-154.0,-21.0,8.0,-7.0,0
-9.0,-218.0,-151.0,-32.0,6.0,-10.0,0
-6.0,-214.0,-156.0,-39.0,7.0,-12.0,0
-8.0,-222.0,-152.0,-45.0,9.0,-13.0,0
-8.0,-220.0,-155.0,-44.0,12.0,-14.0,0
-10.0,-219.0,-154.0,-42.0,13.0,-19.0,0
-7.0,-223.0,-156.0,-41.0,12.0,-20.0,0
-8.0,-219.0,-162.0,-44.0,10.0,-26.0,0
-8.0,-217.0,-163.0,-46.0,12.0,-27.0,0
-7.0,-220.0,-164.0,-47.0,15.0,-29.0,0
-6.0,-215.0,-164.0,-55.0,16.0,-30.0,0
-5.0,-217.0,-167.0,-65.0,16.0,-31.0,0
-7.0,-218.0,-164.0,-82.0,14.0,-32.0,0
-5.0,-221.0,-167.0,-100.0,12.0,-32.0,0
-5.0,-218.0,-166.0,-117.0,11.0,-34.0,0
-3.0,-222.0,-166.0,-132.0,11.0,-32.0,0
-2.0,-223.0,-167.0,-144.0,16.0,-29.0,0
-1.0,-220.0,-168.0,-152.0,23.0,-23.0,0
1.0,-223.0,-166.0,-157.0,30.0,-18.0,0
-2.0,-223.0,-166.0,-161.0,35.0,-17.0,0
0.0,-220.0,-165.0,-171.0,38.0,-18.0,0
0.0,-221.0,-172.0,-187.0,40.0,-19.0,0
-1.0,-222.0,-170.0,-205.0,43.0,-21.0,0
-1.0,-219.0,-171.0,-225.0,47.0,-25.0,0
-2.0,-220.0,-167.0,-242.0,49.0,-28.0,0
-3.0,-220.0,-166.0,-256.0,50.0,-30.0,0
-3.0,-218.0,-173.0,-266.0,55.0,-29.0,0
1.0,-224.0,-170.0,-275.0,55.0,-31.0,0
0.0,-222.0,-173.0,-280.0,54.0,-26.0,0
2.0,-221.0,-173.0,-286.0,53.0,-23.0,0
1.0,-220.0,-171.0,-291.0,54.0,-18.0,0
1.0,-224.0,-171.0,-292.0,53.0,-14.0,0
0.0,-220.0,-175.0,-293.0,53.0,-11.0,0
0.0,-221.0,-171.0,-297.0,55.0,-6.0,0
3.0,-220.0,-171.0,-297.0,60.0,1.0,0
4.0,-222.0,-174.0,-297.0,65.0,6.0,0
0.0,-219.0,-173.0,-299.0,72.0,13.0,0
2.0,-219.0,-173.0,-299.0,76.0,16.0,0
2.0,-218.0,-171.0,-300.0,79.0,18.0,0
5.0,-219.0,-175.0,-302.0,78.0,20.0,0
5.0,-216.0,-173.0,-307.0,79.0,24.0,0
4.0,-212.0,-173.0,-313.0,79.0,27.0,0
6.0,-209.0,-173.0,-321.0,82.0,26.0,0
9.0,-208.0,-171.0,-325.0,84.0,25.0,0
5.0,-207.0,-174.0,-327.0,87.0,28.0,0
4.0,-206.0,-174.0,-328.0,93.0,27.0,0
1.0,-203.0,-172.0,-325.0,100.0,28.0,0
4.0,-204.0,-167.0,-321.0,106.0,29.0,0
2.0,-203.0,-171.0,-317.0,112.0,28.0,0
0.0,-197.0,-169.0,-314.0,117.0,24.0,0
1.0,-198.0,-168.0,-315.0,122.0,25.0,0
-1.0,-198.0,-162.0,-319.0,125.0,23.0,0
0.0,-194.0,-167.0,-325.0,125.0,25.0,0
1.0,-193.0,-168.0,-332.0,126.0,23.0,0
-1.0,-192.0,-166.0,-337.0,131.0,19.0,0
-3.0,-192.0,-162.0,-340.0,133.0,19.0,0
1.0,-192.0,-162.0,-340.0,136.0,21.0,0
-1.0,-190.0,-166.0,-334.0,137.0,21.0,0
-3.0,-191.0,-166.0,-325.0,137.0,16.0,0
-2.0,-190.0,-162.0,-317.0,137.0,12.0,0
-5.0,-190.0,-162.0,-308.0,133.0,14.0,0
0.0,-189.0,-160.0,-302.0,127.0,10.0,0
-5.0,-190.0,-160.0,-294.0,121.0,8.0,0
0.0,-190.0,-164.0,-288.0,115.0,11.0,0
-7.0,-190.0,-161.0,-282.0,106.0,12.0,0
-6.0,-184.0,-157.0,-274.0,95.0,10.0,0
-2.0,-191.0,-158.0,-270.0,79.0,7.0,0
-3.0,-187.0,-161.0,-268.0,61.0,3.0,0
-1.0,-187.0,-162.0,-266.0,47.0,2.0,0
1.0,-187.0,-159.0,-263.0,36.0,4.0,0
0.0,-184.0,-159.0,-267.0,23.0,0.0,0
0.0,-187.0,-156.0,-270.0,9.0,5.0,0
5.0,-188.0,-157.0,-267.0,-9.0,12.0,0
4.0,-187.0,-161.0,-263.0,-24.0,15.0,0
5.0,-186.0,-162.0,-252.0,-37.0,16.0,0
5.0,-187.0,-158.0,-240.0,-53.0,16.0,0
6.0,-185.0,-160.0,-228.0,-64.0,13.0,0
6.0,-187.0,-163.0,-216.0,-69.0,20.0,0
3.0,-187.0,-165.0,-203.0,-75.0,19.0,0
2.0,-182.0,-170.0,-194.0,-78.0,17.0,0
14.0,-192.0,-166.0,-192.0,-73.0,23.0,0
5.0,-181.0,-165.0,-194.0,-73.0,35.0,0
8.0,-184.0,-161.0,-199.0,-73.0,41.0,0
6.0,-180.0,-167.0,-199.0,-70.0,41.0,0
3.0,-181.0,-169.0,-193.0,-67.0,39.0,0
4.0,-180.0,-166.0,-182.0,-70.0,40.0,0
3.0,-181.0,-167.0,-165.0,-71.0,43.0,0
1.0,-179.0,-167.0,-144.0,-75.0,43.0,0
9.0,-180.0,-168.0,-124.0,-78.0,42.0,0
3.0,-174.0,-167.0,-104.0,-79.0,39.0,0
3.0,-171.0,-168.0,-85.0,-79.0,43.0,0
3.0,-170.0,-168.0,-67.0,-74.0,50.0,0
0.0,-173.0,-173.0,-56.0,-71.0,52.0,0
1.0,-175.0,-170.0,-53.0,-60.0,57.0,0
20.0,-181.0,-174.0,-52.0,-49.0,56.0,0
-2.0,-172.0,-177.0,-60.0,-37.0,35.0,0
2.0,-176.0,-172.0,-69.0,-16.0,37.0,0
6.0,-178.0,-171.0,-74.0,2.0,45.0,0
4.0,-173.0,-169.0,-79.0,18.0,47.0,0
5.0,-179.0,-169.0,-87.0,28.0,39.0,0
14.0,-180.0,-181.0,-97.0,41.0,37.0,0
1.0,-178.0,-176.0,-108.0,51.0,21.0,0
2.0,-182.0,-174.0,-112.0,61.0,34.0,0
7.0,-179.0,-173.0,-112.0,64.0,40.0,0
7.0,-181.0,-173.0,-112.0,60.0,41.0,0
2.0,-180.0,-181.0,-111.0,56.0,41.0,0
7.0,-186.0,-179.0,-109.0,61.0,41.0,0
25.0,-189.0,-177.0,-104.0,71.0,36.0,0
0.0,-181.0,-174.0,-105.0,69.0,8.0,0
-1.0,-182.0,-184.0,-100.0,76.0,15.0,0
4.0,-185.0,-184.0,-90.0,86.0,27.0,0
6.0,-184.0,-169.0,-85.0,94.0,27.0,0
5.0,-179.0,-171.0,-78.0,89.0,24.0,0
1.0,-183.0,-179.0,-75.0,87.0,19.0,0
3.0,-176.0,-184.0,-73.0,98.0,16.0,0
18.0,-182.0,-173.0,-77.0,112.0,10.0,0
2.0,-177.0,-167.0,-85.0,113.0,-10.0,0
0.0,-181.0,-182.0,-89.0,104.0,6.0,0
-3.0,-183.0,-193.0,-87.0,113.0,17.0,0
4.0,-178.0,-167.0,-84.0,125.0,15.0,0
8.0,-186.0,-164.0,-78.0,120.0,11.0,0
1.0,-186.0,-175.0,-72.0,108.0,7.0,0
-4.0,-186.0,-191.0,-65.0,111.0,-4.0,0
-9.0,-186.0,-188.0,-58.0,125.0,-11.0,0
-3.0,-184.0,-171.0,-49.0,129.0,-15.0,0
-5.0,-184.0,-178.0,-38.0,115.0,-16.0,0
8.0,-187.0,-190.0,-31.0,103.0,-17.0,0
-23.0,-179.0,-197.0,-31.0,100.0,-46.0,0
-16.0,-181.0,-197.0,-30.0,113.0,-40.0,0
-3.0,-184.0,-166.0,-25.0,113.0,-24.0,0
1.0,-184.0,-177.0,-24.0,91.0,-18.0,0
-10.0,-182.0,-189.0,-29.0,77.0,-17.0,0
-14.0,-180.0,-198.0,-35.0,89.0,-17.0,0
-13.0,-180.0,-188.0,-43.0,97.0,-14.0,0
-4.0,-180.0,-173.0,-54.0,107.0,-13.0,0
-7.0,-181.0,-184.0,-66.0,98.0,-9.0,0
-12.0,-183.0,-193.0,-82.0,95.0,-4.0,0
-10.0,-179.0,-195.0,-95.0,109.0,-4.0,0
-9.0,-177.0,-178.0,-108.0,122.0,-3.0,0
-3.0,-177.0,-179.0,-117.0,121.0,0.0,0
-3.0,-180.0,-187.0,-124.0,108.0,3.0,0
-6.0,-181.0,-190.0,-129.0,106.0,2.0,0
0.0,-179.0,-185.0,-130.0,111.0,2.0,0
1.0,-180.0,-175.0,-130.0,106.0,2.0,0
2.0,-183.0,-186.0,-130.0,90.0,0.0,0
-4.0,-183.0,-188.0,-127.0,75.0,-2.0,0
18.0,-187.0,-190.0,-121.0,69.0,-9.0,0
-15.0,-184.0,-192.0,-115.0,58.0,-41.0,0
-3.0,-185.0,-181.0,-110.0,57.0,-35.0,0
-2.0,-188.0,-173.0,-96.0,49.0,-22.0,0
-9.0,-188.0,-180.0,-86.0,28.0,-19.0,0
-12.0,-188.0,-190.0,-78.0,7.0,-26.0,0
-13.0,-187.0,-192.0,-68.0,4.0,-36.0,0
-3.0,-183.0,-176.0,-57.0,0.0,-40.0,0
-6.0,-181.0,-178.0,-43.0,-13.0,-42.0,0
-9.0,-179.0,-189.0,-31.0,-32.0,-39.0,0
-10.0,-183.0,-190.0,-17.0,-42.0,-33.0,0
-2.0,-180.0,-192.0,-7.0,-46.0,-27.0,0
-2.0,-179.0,-173.0,-1.0,-56.0,-22.0,0
-2.0,-179.0,-180.0,4.0,-77.0,-14.0,0
-3.0,-177.0,-184.0,7.0,-92.0,-4.0,0
0.0,-177.0,-186.0,9.0,-94.0,0.0,0
1.0,-178.0,-181.0,10.0,-92.0,2.0,0
3.0,-177.0,-175.0,11.0,-95.0,8.0,0
2.0,-180.0,-186.0,14.0,-97.0,13.0,0
1.0,-178.0,-189.0,17.0,-91.0,12.0,0
1.0,-178.0,-179.0,24.0,-74.0,2.0,0
15.0,-176.0,-170.0,26.0,-58.0,-7.0,0
3.0,-176.0,-191.0,32.0,-69.0,10.0,0
0.0,-179.0,-193.0,42.0,-58.0,19.0,0
6.0,-180.0,-186.0,54.0,-27.0,18.0,0
11.0,-176.0,-169.0,64.0,-7.0,17.0,0
8.0,-177.0,-182.0,76.0,-10.0,16.0,0
3.0,-177.0,-191.0,93.0,-8.0,16.0,0
2.0,-175.0,-188.0,110.0,16.0,13.0,0
7.0,-174.0,-171.0,129.0,37.0,14.0,0
12.0,-174.0,-163.0,145.0,37.0,15.0,0
4.0,-173.0,-189.0,162.0,27.0,16.0,0
0.0,-173.0,-191.0,178.0,32.0,16.0,0
4.0,-169.0,-180.0,197.0,50.0,16.0,0
5.0,-168.0,-168.0,217.0,56.0,15.0,0
5.0,-171.0,-167.0,233.0,49.0,18.0,0
-2.0,-170.0,-189.0,247.0,49.0,21.0,0
0.0,-166.0,-188.0,259.0,62.0,26.0,0
2.0,-166.0,-170.0,267.0,74.0,32.0,0
3.0,-161.0,-162.0,273.0,72.0,38.0,0
1.0,-165.0,-169.0,274.0,65.0,46.0,0
-5.0,-164.0,-181.0,274.0,68.0,56.0,0
1.0,-162.0,-172.0,278.0,78.0,56.0,0
1.0,-159.0,-152.0,280.0,78.0,53.0,0
-1.0,-160.0,-160.0,279.0,59.0,66.0,0
-4.0,-161.0,-181.0,280.0,55.0,77.0,0
-3.0,-162.0,-175.0,277.0,68.0,80.0,0
1.0,-164.0,-158.0,274.0,71.0,83.0,0
0.0,-161.0,-162.0,267.0,54.0,89.0,0
-4.0,-163.0,-179.0,261.0,38.0,93.0,0
-7.0,-168.0,-191.0,260.0,43.0,98.0,0
-1.0,-164.0,-170.0,256.0,52.0,104.0,0
0.0,-167.0,-162.0,255.0,46.0,108.0,0
-1.0,-169.0,-169.0,254.0,34.0,113.0,0
-8.0,-171.0,-187.0,256.0,32.0,114.0,0
0.0,-172.0,-173.0,257.0,45.0,118.0,0
4.0,-173.0,-162.0,261.0,50.0,118.0,0
2.0,-172.0,-167.0,265.0,43.0,117.0,0
0.0,-174.0,-177.0,272.0,40.0,117.0,0
-2.0,-176.0,-182.0,283.0,50.0,115.0,0
4.0,-172.0,-166.0,295.0,56.0,110.0,0
5.0,-176.0,-162.0,310.0,52.0,103.0,0
5.0,-178.0,-170.0,325.0,41.0,92.0,0
-3.0,-176.0,-182.0,338.0,27.0,88.0,0
-5.0,-171.0,-183.0,356.0,29.0,80.0,0
1.0,-174.0,-165.0,371.0,41.0,72.0,0
1.0,-171.0,-163.0,383.0,39.0,65.0,0
-2.0,-173.0,-176.0,394.0,28.0,56.0,0
-4.0,-174.0,-181.0,404.0,25.0,49.0,0
-9.0,-170.0,-174.0,412.0,31.0,43.0,0
0.0,-171.0,-164.0,418.0,30.0,37.0,0
-1.0,-171.0,-170.0,422.0,17.0,33.0,0
-9.0,-167.0,-176.0,422.0,7.0,30.0,0
-7.0,-169.0,-178.0,420.0,7.0,27.0,0
-8.0,-173.0,-170.0,420.0,11.0,26.0,0
-4.0,-173.0,-169.0,423.0,8.0,25.0,0
-8.0,-172.0,-171.0,423.0,-1.0,22.0,0
-10.0,-171.0,-175.0,426.0,-2.0,20.0,0
-8.0,-169.0,-173.0,427.0,6.0,17.0,0
-2.0,-168.0,-164.0,425.0,9.0,14.0,0
-9.0,-165.0,-165.0,424.0,9.0,12.0,0
-9.0,-167.0,-169.0,428.0,5.0,12.0,0
-8.0,-168.0,-166.0,436.0,11.0,17.0,0
-7.0,-161.0,-158.0,446.0,18.0,16.0,0
-4.0,-163.0,-154.0,452.0,18.0,16.0,0
-7.0,-161.0,-156.0,459.0,14.0,20.0,0
-7.0,-160.0,-161.0,467.0,13.0,26.0,0
-8.0,-160.0,-158.0,473.0,17.0,31.0,0
-8.0,-155.0,-149.0,476.0,15.0,34.0,0
-10.0,-156.0,-152.0,478.0,10.0,37.0,0
-12.0,-157.0,-157.0,482.0,6.0,42.0,0
-9.0,-153.0,-153.0,487.0,6.0,43.0,0
-2.0,-155.0,-150.0,490.0,9.0,44.0,0
-7.0,-154.0,-146.0,491.0,13.0,41.0,0
-9.0,-151.0,-152.0,490.0,12.0,46.0,0
-13.0,-148.0,-154.0,488.0,20.0,49.0,0
-9.0,-150.0,-148.0,484.0,27.0,48.0,0
-4.0,-151.0,-137.0,479.0,33.0,48.0,0
0.0,-145.0,-141.0,474.0,27.0,45.0,0
-9.0,-152.0,-153.0,468.0,22.0,44.0,0
-6.0,-149.0,-151.0,461.0,33.0,41.0,0
-4.0,-151.0,-142.0,456.0,44.0,40.0,0
2.0,-149.0,-135.0,455.0,41.0,38.0,0
-4.0,-149.0,-143.0,452.0,32.0,37.0,0
-5.0,-156.0,-153.0,446.0,37.0,38.0,0
-2.0,-156.0,-141.0,439.0,53.0,40.0,0
-3.0,-159.0,-140.0,431.0,64.0,43.0,0
2.0,-161.0,-140.0,421.0,66.0,47.0,0
-1.0,-162.0,-145.0,415.0,70.0,50.0,0
0.0,-166.0,-148.0,415.0,85.0,55.0,0
2.0,-166.0,-137.0,421.0,96.0,59.0,0
2.0,-164.0,-139.0,428.0,90.0,62.0,0
-1.0,-162.0,-146.0,434.0,93.0,59.0,0
0.0,-162.0,-153.0,442.0,105.0,60.0,0
1.0,-160.0,-141.0,446.0,118.0,56.0,0
5.0,-157.0,-137.0,446.0,119.0,54.0,0
0.0,-161.0,-144.0,441.0,111.0,50.0,0
0.0,-161.0,-153.0,430.0,113.0,47.0,0
0.0,-161.0,-141.0,419.0,122.0,43.0,0
0.0,-165.0,-140.0,403.0,124.0,41.0,0
-2.0,-165.0,-144.0,384.0,116.0,41.0,0
-4.0,-169.0,-151.0,367.0,107.0,42.0,0
-7.0,-171.0,-155.0,352.0,108.0,43.0,0
-2.0,-168.0,-139.0,340.0,110.0,44.0,0
0.0,-176.0,-144.0,324.0,103.0,46.0,0
-3.0,-179.0,-151.0,306.0,99.0,43.0,0
-3.0,-180.0,-160.0,295.0,105.0,44.0,0
-2.0,-181.0,-159.0,290.0,118.0,49.0,0
2.0,-182.0,-141.0,287.0,118.0,51.0,0
-1.0,-183.0,-147.0,287.0,112.0,54.0,0
-1.0,-180.0,-162.0,292.0,110.0,58.0,0
-3.0,-184.0,-160.0,303.0,121.0,60.0,0
0.0,-188.0,-156.0,308.0,125.0,62.0,0
0.0,-187.0,-148.0,313.0,126.0,65.0,0
-1.0,-187.0,-161.0,313.0,120.0,66.0,0
-2.0,-188.0,-162.0,309.0,118.0,67.0,0
-3.0,-191.0,-153.0,302.0,122.0,70.0,0
0.0,-193.0,-144.0,292.0,128.0,71.0,0
-3.0,-193.0,-152.0,280.0,121.0,74.0,0
-1.0,-190.0,-154.0,267.0,111.0,75.0,0
-15.0,-194.0,-160.0,260.0,100.0,78.0,0
-10.0,-196.0,-150.0,253.0,113.0,71.0,0
-5.0,-199.0,-138.0,250.0,111.0,69.0,0
-11.0,-198.0,-149.0,253.0,96.0,68.0,0
-16.0,-198.0,-155.0,259.0,81.0,68.0,0
-12.0,-197.0,-151.0,267.0,78.0,66.0,0
-10.0,-200.0,-141.0,275.0,76.0,64.0,0
-9.0,-194.0,-142.0,282.0,64.0,67.0,0
-10.0,-198.0,-151.0,286.0,48.0,66.0,0
-14.0,-193.0,-150.0,287.0,41.0,66.0,0
-11.0,-196.0,-146.0,287.0,41.0,68.0,0
-4.0,-192.0,-136.0,286.0,38.0,70.0,0
-4.0,-193.0,-144.0,281.0,28.0,71.0,0
-10.0,-190.0,-151.0,273.0,21.0,71.0,0
-9.0,-191.0,-148.0,264.0,23.0,72.0,0
-7.0,-190.0,-143.0,253.0,25.0,72.0,0
-1.0,-190.0,-144.0,237.0,23.0,73.0,0
-5.0,-193.0,-152.0,220.0,15.0,75.0,0
-4.0,-193.0,-153.0,203.0,18.0,75.0,0
-3.0,-194.0,-144.0,187.0,27.0,77.0,0
0.0,-192.0,-144.0,172.0,33.0,76.0,0
0.0,-198.0,-144.0,156.0,36.0,80.0,0
-1.0,-198.0,-148.0,144.0,40.0,80.0,0
-3.0,-196.0,-149.0,133.0,49.0,80.0,0
0.0,-202.0,-143.0,126.0,61.0,81.0,0
0.0,-201.0,-143.0,121.0,63.0,82.0,0
-2.0,-199.0,-143.0,121.0,59.0,86.0,0
-1.0,-205.0,-146.0,121.0,65.0,85.0,0
0.0,-204.0,-146.0,123.0,73.0,81.0,0
0.0,-207.0,-143.0,129.0,78.0,81.0,0
0.0,-207.0,-143.0,136.0,82.0,80.0,0
-2.0,-204.0,-141.0,143.0,82.0,76.0,0
-2.0,-206.0,-140.0,151.0,84.0,75.0,0
0.0,-210.0,-139.0,154.0,85.0,72.0,0
-4.0,-209.0,-140.0,157.0,87.0,68.0,0
-1.0,-210.0,-137.0,161.0,84.0,61.0,0
-4.0,-210.0,-140.0,169.0,81.0,56.0,0
-2.0,-211.0,-139.0,179.0,80.0,53.0,0
-6.0,-208.0,-140.0,188.0,79.0,49.0,0
-8.0,-209.0,-136.0,196.0,76.0,45.0,0
-9.0,-207.0,-138.0,204.0,72.0,42.0,0
-7.0,-205.0,-131.0,207.0,69.0,39.0,0
-7.0,-203.0,-136.0,212.0,63.0,39.0,0
-5.0,-203.0,-133.0,216.0,59.0,38.0,0
-9.0,-201.0,-132.0,214.0,56.0,38.0,0
-5.0,-200.0,-126.0,211.0,53.0,37.0,0
-9.0,-200.0,-136.0,205.0,47.0,38.0,0
-8.0,-202.0,-131.0,199.0,44.0,37.0,0
-6.0,-204.0,-132.0,190.0,40.0,37.0,0
-9.0,-201.0,-132.0,180.0,37.0,37.0,0
-6.0,-200.0,-134.0,171.0,35.0,34.0,0
-8.0,-202.0,-134.0,163.0,36.0,34.0,0
-9.0,-202.0,-140.0,155.0,36.0,33.0,0
-6.0,-201.0,-137.0,149.0,36.0,33.0,0
-9.0,-205.0,-134.0,143.0,34.0,31.0,0
-9.0,-202.0,-138.0,137.0,31.0,29.0,0
-6.0,-203.0,-134.0,133.0,30.0,30.0,0
-5.0,-202.0,-135.0,128.0,28.0,29.0,0
-5.0,-204.0,-139.0,125.0,25.0,29.0,0
-2.0,-204.0,-137.0,124.0,23.0,31.0,0
-2.0,-201.0,-141.0,125.0,24.0,30.0,0
-2.0,-205.0,-136.0,130.0,25.0,34.0,0
-4.0,-202.0,-136.0,133.0,27.0,36.0,0
-2.0,-205.0,-138.0,133.0,27.0,34.0,0
-6.0,-202.0,-139.0,131.0,30.0,35.0,0
-7.0,-206.0,-137.0,126.0,33.0,34.0,0
-5.0,-204.0,-139.0,121.0,35.0,31.0,0
-3.0,-203.0,-135.0,115.0,35.0,32.0,0
-8.0,-205.0,-138.0,107.0,33.0,32.0,0
-7.0,-206.0,-139.0,103.0,31.0,31.0,0
-5.0,-206.0,-140.0,100.0,32.0,29.0,0
-6.0,-209.0,-135.0,101.0,33.0,27.0,0
-9.0,-209.0,-133.0,105.0,27.0,25.0,0
-6.0,-209.0,-136.0,106.0,23.0,24.0,0
-7.0,-210.0,-138.0,110.0,20.0,21.0,0
-7.0,-208.0,-135.0,113.0,18.0,20.0,0
-5.0,-211.0,-135.0,116.0,16.0,16.0,0
-7.0,-210.0,-135.0,122.0,12.0,17.0,0
-8.0,-208.0,-133.0,127.0,11.0,16.0,0
-8.0,-212.0,-134.0,135.0,13.0,17.0,0
-7.0,-208.0,-135.0,143.0,14.0,20.0,0
-6.0,-210.0,-132.0,150.0,13.0,19.0,0
-7.0,-203.0,-137.0,156.0,13.0,21.0,0
-10.0,-205.0,-134.0,157.0,12.0,21.0,0
-9.0,-204.0,-131.0,155.0,11.0,21.0,0
-10.0,-202.0,-128.0,149.0,12.0,21.0,0
-9.0,-202.0,-136.0,138.0,11.0,20.0,0
-9.0,-204.0,-135.0,128.0,12.0,19.0,0
-7.0,-196.0,-125.0,118.0,11.0,17.0,0
-10.0,-202.0,-136.0,109.0,11.0,18.0,0
-9.0,-204.0,-136.0,100.0,12.0,18.0,0
-8.0,-203.0,-136.0,93.0,15.0,22.0,0
-6.0,-200.0,-135.0,86.0,18.0,24.0,0
-7.0,-204.0,-134.0,80.0,21.0,24.0,0
-7.0,-204.0,-135.0,74.0,21.0,23.0,0
-7.0,-206.0,-134.0,68.0,25.0,25.0,0
-4.0,-207.0,-132.0,64.0,24.0,23.0,0
-7.0,-203.0,-136.0,60.0,28.0,23.0,0
-7.0,-205.0,-131.0,57.0,29.0,24.0,0
-7.0,-205.0,-137.0,54.0,31.0,24.0,0
-4.0,-207.0,-138.0,53.0,31.0,24.0,0
-8.0,-206.0,-131.0,51.0,31.0,24.0,0
-5.0,-204.0,-137.0,53.0,31.0,24.0,0
-3.0,-204.0,-135.0,52.0,32.0,24.0,0
-4.0,-203.0,-134.0,51.0,31.0,21.0,0
-4.0,-203.0,-138.0,50.0,30.0,19.0,0
0.0,-203.0,-139.0,46.0,28.0,17.0,0
-4.0,-204.0,-135.0,40.0,27.0,13.0,0
-4.0,-203.0,-135.0,35.0,24.0,10.0,0
-6.0,-202.0,-134.0,31.0,20.0,7.0,0
-4.0,-205.0,-138.0,31.0,17.0,3.0,0
-2.0,-206.0,-138.0,32.0,15.0,-1.0,0
-5.0,-204.0,-137.0,36.0,14.0,-4.0,0
-8.0,-203.0,-134.0,41.0,14.0,-6.0,0
-6.0,-203.0,-135.0,45.0,11.0,-7.0,0
-5.0,-203.0,-132.0,46.0,11.0,-10.0,0
-5.0,-203.0,-135.0,45.0,11.0,-11.0,0
-5.0,-205.0,-136.0,41.0,9.0,-10.0,0
-8.0,-199.0,-135.0,34.0,9.0,-10.0,0
-6.0,-204.0,-137.0,27.0,8.0,-9.0,0
-6.0,-201.0,-134.0,19.0,9.0,-10.0,0
-3.0,-206.0,-135.0,13.0,10.0,-9.0,0
-4.0,-207.0,-131.0,6.0,10.0,-8.0,0
0.0,-205.0,-134.0,1.0,11.0,-8.0,0
0.0,-206.0,-133.0,-2.0,13.0,-6.0,0
-6.0,-207.0,-131.0,-3.0,14.0,-6.0,0
-5.0,-210.0,-131.0,-5.0,16.0,-7.0,0
-4.0,-209.0,-132.0,-5.0,19.0,-6.0,0
-7.0,-208.0,-133.0,-5.0,21.0,-5.0,0
-1.0,-209.0,-133.0,-5.0,23.0,-5.0,0
-3.0,-210.0,-132.0,-6.0,24.0,-5.0,0
-5.0,-207.0,-134.0,-6.0,26.0,-5.0,0
-4.0,-203.0,-132.0,-9.0,28.0,-4.0,0
0.0,-210.0,-132.0,-8.0,30.0,-2.0,0
0.0,-209.0,-131.0,-8.0,34.0,0.0,0
1.0,-211.0,-132.0,-6.0,37.0,0.0,0
-1.0,-208.0,-136.0,-3.0,40.0,0.0,0
0.0,-209.0,-134.0,-3.0,43.0,-1.0,0
-4.0,-206.0,-131.0,-4.0,47.0,0.0,0
0.0,-205.0,-131.0,-6.0,50.0,-1.0,0
-2.0,-205.0,-137.0,-8.0,53.0,-1.0,0
-6.0,-205.0,-133.0,-11.0,52.0,-1.0,0
-3.0,-208.0,-133.0,-13.0,53.0,-3.0,0
-3.0,-207.0,-131.0,-14.0,55.0,-3.0,0
0.0,-209.0,-133.0,-12.0,55.0,-4.0,0
0.0,-209.0,-135.0,-10.0,55.0,-6.0,0
-1.0,-208.0,-134.0,-7.0,55.0,-5.0,0
-1.0,-209.0,-135.0,-4.0,58.0,-6.0,0
-3.0,-210.0,-133.0,-3.0,58.0,-7.0,0
-7.0,-208.0,-134.0,-2.0,59.0,-7.0,0
-7.0,-211.0,-133.0,0.0,60.0,-8.0,0
-6.0,-208.0,-133.0,-1.0,59.0,-11.0,0
-5.0,-210.0,-131.0,0.0,59.0,-9.0,0
-1.0,-211.0,-132.0,1.0,58.0,-9.0,0
0.0,-211.0,-135.0,4.0,59.0,-8.0,0
-4.0,-210.0,-133.0,7.0,60.0,-8.0,0
-1.0,-210.0,-133.0,11.0,61.0,-5.0,0
-6.0,-210.0,-132.0,17.0,64.0,-3.0,0
-4.0,-210.0,-136.0,18.0,68.0,-2.0,0
-1.0,-211.0,-133.0,20.0,70.0,1.0,0
0.0,-211.0,-135.0,22.0,72.0,3.0,0
-2.0,-209.0,-129.0,22.0,77.0,4.0,0
-2.0,-211.0,-131.0,21.0,81.0,7.0,0
-1.0,-210.0,-137.0,22.0,85.0,8.0,0
-4.0,-210.0,-134.0,24.0,88.0,10.0,0
-4.0,-211.0,-136.0,26.0,91.0,11.0,0
-6.0,-206.0,-135.0,29.0,92.0,10.0,0
-3.0,-210.0,-135.0,32.0,94.0,10.0,0
-5.0,-207.0,-135.0,34.0,94.0,10.0,0
-4.0,-209.0,-132.0,36.0,93.0,11.0,0
-8.0,-207.0,-132.0,34.0,91.0,9.0,0
-2.0,-207.0,-135.0,34.0,89.0,9.0,0
-6.0,-211.0,-136.0,34.0,86.0,7.0,0
-7.0,-207.0,-135.0,33.0,84.0,7.0,0
-8.0,-209.0,-138.0,34.0,81.0,7.0,0
-7.0,-210.0,-134.0,33.0,79.0,6.0,0
-7.0,-209.0,-134.0,35.0,76.0,6.0,0
-4.0,-210.0,-138.0,39.0,74.0,5.0,0
-8.0,-210.0,-132.0,45.0,71.0,6.0,0
-8.0,-208.0,-134.0,50.0,70.0,5.0,0
-10.0,-212.0,-135.0,54.0,68.0,6.0,0
-10.0,-208.0,-136.0,58.0,66.0,5.0,0
-4.0,-211.0,-129.0,56.0,65.0,3.0,0
-10.0,-210.0,-132.0,57.0,62.0,5.0,0
-9.0,-209.0,-131.0,59.0,59.0,6.0,0
-10.0,-210.0,-130.0,59.0,57.0,3.0,0
-10.0,-209.0,-131.0,62.0,54.0,2.0,0
-11.0,-205.0,-133.0,60.0,51.0,1.0,0
-12.0,-208.0,-134.0,58.0,48.0,2.0,0
-13.0,-208.0,-131.0,58.0,46.0,2.0,0
-13.0,-211.0,-132.0,56.0,46.0,2.0,0
-9.0,-209.0,-135.0,55.0,44.0,2.0,0
-13.0,-209.0,-130.0,53.0,42.0,4.0,0
-12.0,-211.0,-130.0,53.0,41.0,4.0,0
-9.0,-210.0,-133.0,53.0,39.0,3.0,0
-13.0,-211.0,-135.0,54.0,38.0,4.0,0
-10.0,-210.0,-135.0,56.0,37.0,3.0,0
-9.0,-207.0,-133.0,58.0,36.0,5.0,0
-10.0,-209.0,-136.0,64.0,34.0,5.0,0
-9.0,-211.0,-130.0,69.0,33.0,6.0,0
-8.0,-210.0,-132.0,75.0,33.0,5.0,0
-8.0,-209.0,-133.0,78.0,31.0,6.0,0
-8.0,-209.0,-134.0,81.0,28.0,6.0,0
-7.0,-209.0,-130.0,81.0,26.0,6.0,0
-8.0,-211.0,-135.0,82.0,24.0,4.0,0
-6.0,-208.0,-131.0,83.0,22.0,3.0,0
-9.0,-211.0,-135.0,85.0,18.0,3.0,0
-6.0,-208.0,-133.0,84.0,15.0,3.0,0
-6.0,-206.0,-131.0,82.0,12.0,0.0,0
-8.0,-211.0,-135.0,80.0,8.0,0.0,0
-7.0,-209.0,-131.0,79.0,5.0,0.0,0
-10.0,-208.0,-133.0,80.0,2.0,-1.0,0
-7.0,-208.0,-134.0,82.0,0.0,-3.0,0
-9.0,-209.0,-132.0,83.0,-1.0,-3.0,0
-4.0,-207.0,-129.0,86.0,-3.0,-2.0,0
-6.0,-208.0,-131.0,89.0,-3.0,-3.0,0
-8.0,-208.0,-134.0,89.0,-4.0,-3.0,0
-5.0,-212.0,-131.0,90.0,-7.0,-5.0,0
-10.0,-209.0,-135.0,94.0,-7.0,-6.0,0
-7.0,-203.0,-147.0,98.0,-10.0,-5.0,0
-6.0,-211.0,-133.0,100.0,-11.0,-8.0,0
-8.0,-209.0,-131.0,101.0,-13.0,-10.0,0
-8.0,-210.0,-133.0,103.0,-13.0,-10.0,0
-7.0,-211.0,-137.0,105.0,-14.0,-7.0,0
-7.0,-207.0,-134.0,106.0,-13.0,-6.0,0
-4.0,-207.0,-134.0,106.0,-12.0,-7.0,0
-6.0,-206.0,-134.0,105.0,-11.0,-7.0,0
-9.0,-205.0,-130.0,104.0,-9.0,-6.0,0
-5.0,-208.0,-134.0,101.0,-10.0,-7.0,0
-8.0,-207.0,-133.0,98.0,-8.0,-6.0,0
-4.0,-212.0,-131.0,95.0,-8.0,-6.0,0
-8.0,-210.0,-131.0,91.0,-8.0,-7.0,0
-10.0,-206.0,-133.0,89.0,-9.0,-11.0,0
-7.0,-208.0,-132.0,89.0,-8.0,-13.0,0
-9.0,-208.0,-133.0,90.0,-10.0,-15.0,0
-6.0,-208.0,-132.0,91.0,-11.0,-17.0,0
-5.0,-209.0,-132.0,92.0,-13.0,-19.0,0
-6.0,-209.0,-132.0,96.0,-14.0,-22.0,0
-8.0,-211.0,-130.0,100.0,-16.0,-23.0,0
-7.0,-208.0,-130.0,102.0,-18.0,-23.0,0
-7.0,-206.0,-134.0,103.0,-20.0,-23.0,0
-9.0,-204.0,-132.0,105.0,-22.0,-26.0,0
-7.0,-206.0,-132.0,106.0,-24.0,-28.0,0
-6.0,-207.0,-138.0,109.0,-25.0,-29.0,0
-3.0,-205.0,-135.0,110.0,-25.0,-29.0,0
-4.0,-206.0,-133.0,109.0,-23.0,-29.0,0
-3.0,-204.0,-134.0,107.0,-21.0,-28.0,0
-8.0,-206.0,-133.0,107.0,-17.0,-25.0,0
-4.0,-208.0,-130.0,105.0,-16.0,-26.0,0
-5.0,-207.0,-134.0,103.0,-14.0,-27.0,0
-3.0,-207.0,-130.0,102.0,-13.0,-25.0,0
-6.0,-208.0,-132.0,101.0,-10.0,-28.0,0
-1.0,-207.0,-133.0,98.0,-11.0,-29.0,0
-4.0,-207.0,-132.0,94.0,-11.0,-28.0,0
-8.0,-206.0,-131.0,90.0,-11.0,-29.0,0
-3.0,-209.0,-130.0,86.0,-13.0,-30.0,0
-5.0,-209.0,-134.0,82.0,-15.0,-32.0,0
-7.0,-210.0,-134.0,81.0,-15.0,-33.0,0
-7.0,-207.0,-128.0,80.0,-16.0,-33.0,0
-5.0,-209.0,-131.0,79.0,-17.0,-32.0,0
-8.0,-204.0,-132.0,81.0,-17.0,-34.0,0
-6.0,-209.0,-136.0,83.0,-18.0,-32.0,0
-8.0,-210.0,-132.0,84.0,-20.0,-28.0,0
-6.0,-207.0,-136.0,85.0,-18.0,-27.0,0
-8.0,-207.0,-134.0,87.0,-18.0,-28.0,0
-5.0,-206.0,-130.0,88.0,-16.0,-27.0,0
-4.0,-208.0,-133.0,88.0,-13.0,-23.0,0
-3.0,-208.0,-134.0,88.0,-10.0,-21.0,0
-5.0,-205.0,-134.0,89.0,-9.0,-21.0,0
-5.0,-206.0,-135.0,89.0,-9.0,-20.0,0
-6.0,-205.0,-134.0,88.0,-5.0,-19.0,0
-4.0,-206.0,-133.0,86.0,-4.0,-19.0,0
-4.0,-209.0,-135.0,84.0,-4.0,-19.0,0
-7.0,-207.0,-134.0,82.0,-3.0,-18.0,0
-8.0,-205.0,-132.0,77.0,-2.0,-16.0,0
-9.0,-207.0,-131.0,72.0,-1.0,-20.0,0
-6.0,-204.0,-132.0,68.0,-2.0,-19.0,0
-6.0,-202.0,-133.0,66.0,0.0,-19.0,0
-6.0,-207.0,-131.0,64.0,1.0,-18.0,0
-7.0,-205.0,-128.0,64.0,1.0,-19.0,0
-9.0,-206.0,-130.0,64.0,0.0,-18.0,0
-3.0,-206.0,-130.0,62.0,0.0,-18.0,0
-8.0,-205.0,-130.0,59.0,-1.0,-19.0,0
-7.0,-204.0,-132.0,57.0,-2.0,-20.0,0
-6.0,-203.0,-131.0,53.0,-3.0,-18.0,0
-7.0,-207.0,-129.0,48.0,-4.0,-19.0,0
-7.0,-208.0,-130.0,43.0,-3.0,-16.0,0
-4.0,-211.0,-133.0,40.0,-1.0,-18.0,0
-9.0,-207.0,-130.0,40.0,1.0,-18.0,0
-10.0,-206.0,-131.0,39.0,2.0,-16.0,0
-8.0,-209.0,-130.0,37.0,3.0,-16.0,0
-8.0,-210.0,-132.0,37.0,5.0,-17.0,0
-7.0,-208.0,-133.0,35.0,4.0,-18.0,0
-8.0,-207.0,-133.0,35.0,5.0,-17.0,0
-8.0,-212.0,-131.0,33.0,5.0,-18.0,0
-8.0,-208.0,-131.0,30.0,3.0,-17.0,0
-9.0,-211.0,-132.0,29.0,4.0,-17.0,0
-6.0,-212.0,-134.0,28.0,5.0,-17.0,0
-6.0,-208.0,-132.0,29.0,5.0,-16.0,0
-8.0,-208.0,-128.0,30.0,6.0,-16.0,0
-7.0,-208.0,-133.0,33.0,6.0,-16.0,0
-6.0,-209.0,-136.0,39.0,6.0,-15.0,0
-8.0,-208.0,-130.0,45.0,5.0,-12.0,0
-8.0,-211.0,-130.0,46.0,5.0,-11.0,0
-3.0,-206.0,-134.0,47.0,6.0,-10.0,0
-6.0,-208.0,-132.0,46.0,7.0,-11.0,0
-3.0,-207.0,-137.0,43.0,9.0,-9.0,0
-9.0,-205.0,-132.0,40.0,8.0,-8.0,0
-5.0,-210.0,-130.0,38.0,11.0,-8.0,0
-5.0,-207.0,-132.0,34.0,12.0,-8.0,0
-6.0,-210.0,-130.0,31.0,14.0,-5.0,0
-8.0,-207.0,-130.0,29.0,16.0,-5.0,0
-6.0,-211.0,-135.0,31.0,16.0,-4.0,0
-8.0,-209.0,-133.0,30.0,16.0,-5.0,0
-4.0,-212.0,-132.0,30.0,14.0,-5.0,0
-5.0,-210.0,-134.0,29.0,14.0,-5.0,0
-8.0,-211.0,-133.0,29.0,12.0,-6.0,0
-8.0,-210.0,-132.0,30.0,13.0,-7.0,0
-9.0,-209.0,-134.0,30.0,12.0,-8.0,0
-7.0,-211.0,-132.0,31.0,12.0,-9.0,0
-7.0,-209.0,-130.0,33.0,9.0,-10.0,0
-6.0,-207.0,-133.0,34.0,7.0,-10.0,0
-9.0,-208.0,-130.0,37.0,6.0,-11.0,0
-8.0,-208.0,-134.0,41.0,6.0,-13.0,0
-7.0,-208.0,-133.0,41.0,6.0,-12.0,0
-7.0,-206.0,-130.0,44.0,8.0,-13.0,0
-8.0,-207.0,-133.0,44.0,10.0,-12.0,0
-8.0,-207.0,-132.0,43.0,12.0,-12.0,0
-7.0,-208.0,-132.0,41.0,14.0,-13.0,0
-8.0,-204.0,-131.0,38.0,15.0,-11.0,0
-7.0,-208.0,-133.0,35.0,17.0,-11.0,0
