ax,ay,az,gx,gy,gz,label
12.0,-249.0,-11.0,57.0,11.0,-18.0,0
13.0,-248.0,-9.0,52.0,13.0,-18.0,0
12.0,-247.0,-10.0,49.0,13.0,-18.0,0
12.0,-248.0,-12.0,46.0,14.0,-19.0,0
12.0,-251.0,-17.0,44.0,16.0,-20.0,0
13.0,-249.0,-14.0,43.0,16.0,-22.0,0
13.0,-250.0,-15.0,43.0,19.0,-22.0,0
10.0,-250.0,-13.0,44.0,19.0,-23.0,0
10.0,-249.0,-12.0,46.0,20.0,-21.0,0
13.0,-251.0,-12.0,50.0,20.0,-22.0,0
11.0,-245.0,-14.0,54.0,21.0,-23.0,0
11.0,-247.0,-16.0,57.0,20.0,-23.0,0
10.0,-246.0,-14.0,60.0,18.0,-19.0,0
11.0,-246.0,-16.0,60.0,17.0,-20.0,0
13.0,-245.0,-13.0,61.0,17.0,-19.0,0
24.0,-243.0,-17.0,60.0,16.0,-18.0,0
17.0,-251.0,-7.0,57.0,14.0,-18.0,0
13.0,-247.0,-16.0,56.0,12.0,-16.0,0
12.0,-244.0,-13.0,51.0,11.0,-15.0,0
14.0,-245.0,-13.0,49.0,10.0,-16.0,0
13.0,-248.0,-16.0,44.0,11.0,-14.0,0
16.0,-245.0,-12.0,39.0,11.0,-12.0,0
12.0,-246.0,-12.0,36.0,9.0,-11.0,0
16.0,-245.0,-17.0,30.0,8.0,-12.0,0
13.0,-246.0,-11.0,25.0,6.0,-11.0,0
14.0,-246.0,-12.0,20.0,5.0,-9.0,0
12.0,-247.0,-18.0,16.0,4.0,-10.0,0
13.0,-245.0,-14.0,12.0,3.0,-9.0,0
11.0,-247.0,-12.0,10.0,1.0,-8.0,0
11.0,-246.0,-12.0,6.0,3.0,-5.0,0
12.0,-247.0,-11.0,3.0,3.0,-6.0,0
11.0,-244.0,-15.0,0.0,4.0,-5.0,0
11.0,-246.0,-11.0,-3.0,4.0,-5.0,0
15.0,-247.0,-17.0,-5.0,5.0,-6.0,0
9.0,-250.0,-18.0,-7.0,4.0,-4.0,0
15.0,-252.0,-11.0,-5.0,5.0,-4.0,0
7.0,-247.0,-15.0,-3.0,7.0,-6.0,0
16.0,-254.0,-20.0,2.0,7.0,-4.0,0
11.0,-249.0,-14.0,6.0,8.0,-5.0,0
11.0,-251.0,-19.0,7.0,9.0,-5.0,0
12.0,-249.0,-16.0,11.0,8.0,-4.0,0
11.0,-249.0,-12.0,13.0,7.0,-3.0,0
13.0,-250.0,-16.0,13.0,4.0,-3.0,0
14.0,-253.0,-17.0,14.0,1.0,-4.0,0
12.0,-249.0,-18.0,15.0,-2.0,-4.0,0
11.0,-249.0,-15.0,16.0,-6.0,-6.0,0
10.0,-251.0,-16.0,17.0,-6.0,-8.0,0
14.0,-245.0,-13.0,19.0,-9.0,-8.0,0
12.0,-251.0,-14.0,22.0,-12.0,-9.0,0
11.0,-248.0,-17.0,26.0,-17.0,-5.0,0
11.0,-247.0,-14.0,29.0,-20.0,-6.0,0
11.0,-247.0,-13.0,33.0,-23.0,-4.0,0
11.0,-245.0,-14.0,34.0,-27.0,-4.0,0
12.0,-249.0,-12.0,37.0,-28.0,-3.0,0
10.0,-251.0,-18.0,36.0,-29.0,0.0,0
11.0,-248.0,-16.0,38.0,-28.0,0.0,0
7.0,-244.0,-13.0,41.0,-27.0,0.0,0
10.0,-249.0,-18.0,43.0,-28.0,1.0,0
12.0,-249.0,-14.0,45.0,-26.0,-1.0,0
11.0,-250.0,-15.0,44.0,-26.0,0.0,0
13.0,-247.0,-17.0,44.0,-25.0,-3.0,0
14.0,-247.0,-13.0,44.0,-23.0,-3.0,0
13.0,-249.0,-14.0,43.0,-20.0,-4.0,0
11.0,-246.0,-15.0,43.0,-16.0,-5.0,0
12.0,-246.0,-13.0,42.0,-12.0,-7.0,0
14.0,-249.0,-18.0,43.0,-10.0,-8.0,0
12.0,-250.0,-18.0,43.0,-7.0,-7.0,0
13.0,-249.0,-15.0,44.0,-6.0,-9.0,0
15.0,-249.0,-14.0,45.0,-5.0,-8.0,0
16.0,-248.0,-19.0,46.0,-6.0,-7.0,0
14.0,-247.0,-18.0,46.0,-6.0,-6.0,0
12.0,-242.0,-14.0,45.0,-7.0,-7.0,0
10.0,-243.0,-19.0,43.0,-9.0,-4.0,0
13.0,-247.0,-18.0,41.0,-10.0,-5.0,0
15.0,-246.0,-14.0,39.0,-13.0,-3.0,0
11.0,-247.0,-16.0,36.0,-14.0,-2.0,0
16.0,-248.0,-15.0,30.0,-17.0,-2.0,0
10.0,-247.0,-16.0,26.0,-20.0,1.0,0
11.0,-248.0,-18.0,22.0,-21.0,2.0,0
10.0,-242.0,-18.0,20.0,-23.0,2.0,0
12.0,-247.0,-15.0,18.0,-24.0,3.0,0
11.0,-250.0,-21.0,17.0,-26.0,6.0,0
15.0,-249.0,-17.0,20.0,-26.0,9.0,0
9.0,-247.0,-16.0,20.0,-26.0,11.0,0
12.0,-249.0,-14.0,18.0,-25.0,9.0,0
10.0,-248.0,-17.0,17.0,-24.0,10.0,0
12.0,-248.0,-16.0,15.0,-24.0,12.0,0
11.0,-252.0,-21.0,16.0,-22.0,12.0,0
11.0,-251.0,-17.0,16.0,-20.0,12.0,0
10.0,-249.0,-20.0,16.0,-17.0,12.0,0
11.0,-254.0,-15.0,18.0,-14.0,13.0,0
13.0,-252.0,-13.0,20.0,-12.0,13.0,0
12.0,-251.0,-24.0,22.0,-12.0,12.0,0
12.0,-248.0,-17.0,24.0,-10.0,11.0,0
13.0,-248.0,-19.0,24.0,-7.0,12.0,0
14.0,-249.0,-21.0,24.0,-8.0,13.0,0
9.0,-246.0,-19.0,25.0,-7.0,12.0,0
12.0,-245.0,-24.0,26.0,-6.0,12.0,0
14.0,-249.0,-21.0,25.0,-7.0,12.0,0
9.0,-249.0,-19.0,27.0,-6.0,11.0,0
13.0,-247.0,-19.0,27.0,-5.0,11.0,0
7.0,-244.0,-25.0,29.0,-7.0,12.0,0
12.0,-248.0,-18.0,34.0,-8.0,11.0,0
12.0,-249.0,-17.0,37.0,-8.0,11.0,0
11.0,-246.0,-15.0,40.0,-7.0,11.0,0
12.0,-246.0,-16.0,43.0,-6.0,11.0,0
12.0,-247.0,-18.0,42.0,-2.0,10.0,0
11.0,-246.0,-20.0,42.0,0.0,11.0,0
11.0,-244.0,-14.0,41.0,3.0,10.0,0
12.0,-249.0,-18.0,39.0,6.0,10.0,0
14.0,-247.0,-20.0,39.0,9.0,10.0,0
14.0,-249.0,-17.0,39.0,11.0,12.0,0
14.0,-248.0,-14.0,42.0,12.0,13.0,0
15.0,-248.0,-18.0,45.0,12.0,14.0,0
11.0,-252.0,-15.0,47.0,11.0,14.0,0
9.0,-246.0,-20.0,48.0,10.0,13.0,0
12.0,-245.0,-18.0,49.0,8.0,13.0,0
12.0,-248.0,-18.0,48.0,6.0,10.0,0
14.0,-249.0,-22.0,46.0,3.0,7.0,0
8.0,-246.0,-16.0,46.0,2.0,7.0,0
10.0,-245.0,-18.0,47.0,0.0,7.0,0
11.0,-249.0,-14.0,46.0,0.0,4.0,0
8.0,-252.0,-16.0,47.0,2.0,3.0,0
10.0,-251.0,-21.0,49.0,3.0,0.0,0
8.0,-249.0,-22.0,52.0,6.0,-4.0,0
10.0,-249.0,-19.0,54.0,12.0,-7.0,0
10.0,-249.0,-18.0,54.0,14.0,-9.0,0
10.0,-247.0,-21.0,55.0,18.0,-10.0,0
10.0,-248.0,-19.0,55.0,21.0,-12.0,0
8.0,-248.0,-19.0,54.0,23.0,-11.0,0
14.0,-245.0,-17.0,52.0,25.0,-10.0,0
9.0,-250.0,-17.0,49.0,23.0,-11.0,0
11.0,-247.0,-17.0,46.0,23.0,-10.0,0
6.0,-244.0,-17.0,42.0,21.0,-7.0,0
10.0,-247.0,-15.0,39.0,19.0,-6.0,0
11.0,-250.0,-14.0,38.0,15.0,-6.0,0
10.0,-246.0,-14.0,39.0,10.0,-4.0,0
11.0,-248.0,-16.0,38.0,8.0,-4.0,0
9.0,-248.0,-18.0,40.0,2.0,-3.0,0
10.0,-250.0,-16.0,41.0,-3.0,-1.0,0
8.0,-247.0,-17.0,41.0,-6.0,3.0,0
9.0,-249.0,-16.0,43.0,-8.0,1.0,0
7.0,-248.0,-18.0,46.0,-12.0,2.0,0
4.0,-243.0,-13.0,50.0,-12.0,1.0,0
11.0,-248.0,-14.0,51.0,-14.0,2.0,0
9.0,-249.0,-17.0,54.0,-13.0,3.0,0
10.0,-250.0,-19.0,55.0,-10.0,4.0,0
10.0,-251.0,-20.0,58.0,-9.0,5.0,0
10.0,-250.0,-17.0,61.0,-9.0,7.0,0
7.0,-251.0,-17.0,64.0,-9.0,7.0,0
7.0,-247.0,-18.0,67.0,-9.0,8.0,0
8.0,-250.0,-18.0,70.0,-11.0,9.0,0
11.0,-247.0,-15.0,72.0,-14.0,11.0,0
7.0,-248.0,-20.0,75.0,-15.0,10.0,0
9.0,-249.0,-14.0,78.0,-19.0,11.0,0
7.0,-251.0,-19.0,81.0,-23.0,10.0,0
7.0,-249.0,-18.0,85.0,-28.0,11.0,0
8.0,-251.0,-19.0,87.0,-30.0,10.0,0
9.0,-250.0,-17.0,88.0,-34.0,10.0,0
10.0,-248.0,-18.0,91.0,-35.0,9.0,0
9.0,-247.0,-18.0,93.0,-35.0,9.0,0
9.0,-246.0,-13.0,96.0,-37.0,7.0,0
11.0,-249.0,-21.0,99.0,-38.0,4.0,0
7.0,-245.0,-14.0,101.0,-39.0,2.0,0
7.0,-245.0,-10.0,103.0,-40.0,-2.0,0
9.0,-252.0,-13.0,105.0,-40.0,-6.0,0
6.0,-247.0,-18.0,105.0,-40.0,-8.0,0
10.0,-249.0,-18.0,104.0,-39.0,-10.0,0
12.0,-248.0,-15.0,100.0,-40.0,-12.0,0
10.0,-248.0,-17.0,97.0,-40.0,-14.0,0
10.0,-247.0,-17.0,93.0,-40.0,-14.0,0
10.0,-249.0,-11.0,87.0,-37.0,-11.0,0
9.0,-248.0,-18.0,82.0,-34.0,-10.0,0
9.0,-247.0,-16.0,78.0,-32.0,-11.0,0
10.0,-248.0,-17.0,73.0,-29.0,-10.0,0
11.0,-249.0,-5.0,71.0,-27.0,-8.0,0
13.0,-247.0,-16.0,69.0,-25.0,-5.0,0
11.0,-249.0,-17.0,70.0,-23.0,-5.0,0
9.0,-248.0,-16.0,72.0,-20.0,-5.0,0
11.0,-247.0,-18.0,77.0,-18.0,-4.0,0
10.0,-252.0,-13.0,80.0,-18.0,-3.0,0
9.0,-247.0,-18.0,81.0,-15.0,-3.0,0
11.0,-246.0,-18.0,82.0,-11.0,-4.0,0
11.0,-250.0,-17.0,83.0,-8.0,-2.0,0
6.0,-248.0,-18.0,82.0,-3.0,-2.0,0
8.0,-249.0,-19.0,80.0,1.0,-3.0,0
8.0,-241.0,-22.0,75.0,4.0,-3.0,0
8.0,-246.0,-17.0,72.0,9.0,-4.0,0
10.0,-249.0,-19.0,71.0,10.0,-6.0,0
7.0,-248.0,-17.0,68.0,15.0,-7.0,0
9.0,-249.0,-17.0,68.0,16.0,-7.0,0
6.0,-249.0,-18.0,67.0,16.0,-10.0,0
10.0,-246.0,-9.0,70.0,17.0,-11.0,0
8.0,-247.0,-17.0,71.0,17.0,-13.0,0
7.0,-245.0,-14.0,74.0,15.0,-11.0,0
8.0,-244.0,-15.0,76.0,12.0,-11.0,0
9.0,-248.0,-9.0,80.0,10.0,-13.0,0
8.0,-245.0,-16.0,82.0,8.0,-14.0,0
12.0,-252.0,-15.0,82.0,4.0,-13.0,0
8.0,-245.0,-14.0,82.0,1.0,-14.0,0
9.0,-248.0,-13.0,80.0,-2.0,-13.0,0
11.0,-250.0,-15.0,79.0,-6.0,-14.0,0
9.0,-249.0,-16.0,79.0,-8.0,-12.0,0
13.0,-249.0,-14.0,80.0,-10.0,-13.0,0
6.0,-247.0,-20.0,83.0,-12.0,-12.0,0
11.0,-248.0,-16.0,86.0,-14.0,-11.0,0
12.0,-250.0,-15.0,88.0,-15.0,-11.0,0
12.0,-252.0,-14.0,91.0,-14.0,-11.0,0
10.0,-247.0,-16.0,94.0,-12.0,-10.0,0
11.0,-248.0,-18.0,95.0,-9.0,-11.0,0
8.0,-249.0,-17.0,94.0,-4.0,-11.0,0
11.0,-249.0,-20.0,92.0,-1.0,-13.0,0
9.0,-248.0,-16.0,91.0,4.0,-14.0,0
9.0,-248.0,-19.0,88.0,7.0,-12.0,0
8.0,-250.0,-17.0,86.0,10.0,-11.0,0
11.0,-247.0,-13.0,83.0,12.0,-11.0,0
8.0,-249.0,-12.0,82.0,14.0,-12.0,0
10.0,-248.0,-14.0,80.0,14.0,-11.0,0
9.0,-248.0,-9.0,80.0,11.0,-10.0,0
11.0,-249.0,-12.0,80.0,10.0,-9.0,0
9.0,-248.0,-11.0,80.0,7.0,-11.0,0
8.0,-248.0,-14.0,82.0,5.0,-11.0,0
7.0,-247.0,-9.0,82.0,5.0,-10.0,0
11.0,-246.0,-12.0,83.0,3.0,-13.0,0
9.0,-247.0,-14.0,84.0,2.0,-13.0,0
12.0,-246.0,-11.0,83.0,0.0,-15.0,0
7.0,-245.0,-15.0,83.0,1.0,-17.0,0
7.0,-245.0,-14.0,82.0,2.0,-18.0,0
9.0,-246.0,-15.0,81.0,4.0,-19.0,0
10.0,-245.0,-14.0,79.0,6.0,-20.0,0
8.0,-245.0,-15.0,75.0,7.0,-22.0,0
9.0,-248.0,-14.0,72.0,6.0,-23.0,0
9.0,-248.0,-13.0,66.0,7.0,-23.0,0
10.0,-246.0,-17.0,61.0,7.0,-23.0,0
10.0,-247.0,-13.0,57.0,6.0,-25.0,0
11.0,-246.0,-13.0,52.0,5.0,-23.0,0
10.0,-242.0,-13.0,48.0,5.0,-20.0,0
8.0,-244.0,-15.0,43.0,4.0,-18.0,0
8.0,-248.0,-16.0,39.0,4.0,-18.0,0
9.0,-246.0,-17.0,35.0,4.0,-16.0,0
9.0,-248.0,-14.0,33.0,3.0,-17.0,0
11.0,-249.0,-15.0,31.0,3.0,-15.0,0
12.0,-247.0,-14.0,29.0,2.0,-13.0,0
15.0,-248.0,-16.0,28.0,3.0,-13.0,0
10.0,-248.0,-16.0,26.0,4.0,-13.0,0
12.0,-250.0,-14.0,23.0,6.0,-13.0,0
12.0,-251.0,-16.0,21.0,10.0,-12.0,0
12.0,-249.0,-14.0,18.0,12.0,-11.0,0
11.0,-249.0,-13.0,16.0,15.0,-12.0,0
12.0,-251.0,-17.0,17.0,15.0,-11.0,0
11.0,-251.0,-17.0,18.0,16.0,-12.0,0
11.0,-247.0,-10.0,19.0,18.0,-13.0,0
11.0,-248.0,-14.0,21.0,20.0,-14.0,0
12.0,-250.0,-12.0,25.0,22.0,-12.0,0
8.0,-247.0,-13.0,27.0,24.0,-12.0,0
9.0,-250.0,-20.0,27.0,22.0,-12.0,0
7.0,-248.0,-15.0,27.0,22.0,-11.0,0
8.0,-245.0,-15.0,25.0,21.0,-12.0,0
8.0,-246.0,-17.0,26.0,18.0,-10.0,0
10.0,-246.0,-11.0,24.0,16.0,-8.0,0
11.0,-248.0,-11.0,23.0,14.0,-8.0,0
6.0,-247.0,-15.0,22.0,14.0,-7.0,0
10.0,-248.0,-13.0,21.0,14.0,-5.0,0
9.0,-247.0,-17.0,17.0,13.0,-6.0,0
10.0,-248.0,-17.0,15.0,14.0,-5.0,0
13.0,-246.0,-14.0,12.0,17.0,-8.0,0
10.0,-245.0,-16.0,10.0,16.0,-8.0,0
8.0,-248.0,-13.0,10.0,16.0,-7.0,0
8.0,-248.0,-18.0,9.0,16.0,-10.0,0
12.0,-247.0,-17.0,10.0,15.0,-9.0,0
9.0,-249.0,-17.0,10.0,16.0,-9.0,0
19.0,-247.0,-18.0,11.0,15.0,-8.0,0
11.0,-249.0,-19.0,12.0,12.0,-9.0,0
13.0,-245.0,-20.0,13.0,9.0,-8.0,0
11.0,-246.0,-15.0,13.0,8.0,-8.0,0
11.0,-249.0,-21.0,13.0,6.0,-4.0,0
9.0,-248.0,-21.0,12.0,4.0,-6.0,0
10.0,-248.0,-17.0,13.0,3.0,-5.0,0
9.0,-247.0,-17.0,15.0,3.0,-4.0,0
12.0,-251.0,-15.0,19.0,1.0,-4.0,0
8.0,-250.0,-16.0,21.0,2.0,-5.0,0
10.0,-251.0,-19.0,26.0,4.0,-6.0,0
7.0,-251.0,-18.0,28.0,6.0,-7.0,0
12.0,-248.0,-19.0,32.0,8.0,-7.0,0
13.0,-248.0,-18.0,35.0,10.0,-7.0,0
10.0,-248.0,-18.0,34.0,14.0,-9.0,0
8.0,-247.0,-16.0,36.0,16.0,-9.0,0
10.0,-248.0,-16.0,36.0,17.0,-11.0,0
11.0,-248.0,-14.0,37.0,20.0,-12.0,0
10.0,-248.0,-13.0,36.0,20.0,-13.0,0
8.0,-244.0,-17.0,36.0,22.0,-11.0,0
9.0,-249.0,-18.0,36.0,22.0,-12.0,0
14.0,-248.0,-23.0,35.0,21.0,-13.0,0
8.0,-249.0,-19.0,35.0,19.0,-12.0,0
6.0,-245.0,-18.0,37.0,18.0,-11.0,0
10.0,-246.0,-19.0,36.0,16.0,-9.0,0
11.0,-248.0,-19.0,37.0,15.0,-11.0,0
9.0,-247.0,-11.0,40.0,15.0,-8.0,0
7.0,-248.0,-20.0,41.0,14.0,-8.0,0
9.0,-248.0,-20.0,42.0,13.0,-7.0,0
9.0,-248.0,-21.0,43.0,14.0,-6.0,0
9.0,-248.0,-16.0,42.0,13.0,-6.0,0
7.0,-246.0,-18.0,40.0,13.0,-7.0,0
9.0,-249.0,-17.0,39.0,11.0,-4.0,0
10.0,-245.0,-13.0,39.0,12.0,-5.0,0
10.0,-246.0,-15.0,38.0,12.0,-7.0,0
8.0,-243.0,-14.0,39.0,12.0,-7.0,0
14.0,-247.0,-18.0,38.0,13.0,-6.0,0
11.0,-249.0,-19.0,38.0,14.0,-5.0,0
13.0,-247.0,-18.0,37.0,14.0,-5.0,0
7.0,-249.0,-14.0,36.0,14.0,-6.0,0
13.0,-250.0,-17.0,35.0,17.0,-7.0,0
14.0,-255.0,-17.0,35.0,17.0,-8.0,0
11.0,-251.0,-19.0,37.0,17.0,-9.0,0
7.0,-249.0,-20.0,37.0,18.0,-9.0,0
10.0,-245.0,-18.0,39.0,19.0,-10.0,0
11.0,-244.0,-20.0,38.0,19.0,-11.0,0
12.0,-245.0,-19.0,38.0,19.0,-12.0,0
10.0,-247.0,-20.0,37.0,20.0,-12.0,0
11.0,-247.0,-20.0,35.0,21.0,-14.0,0
10.0,-248.0,-16.0,32.0,21.0,-14.0,0
9.0,-244.0,-24.0,27.0,21.0,-14.0,0
11.0,-245.0,-18.0,24.0,19.0,-14.0,0
8.0,-249.0,-19.0,22.0,17.0,-16.0,0
7.0,-245.0,-17.0,20.0,16.0,-16.0,0
11.0,-250.0,-17.0,18.0,14.0,-14.0,0
10.0,-249.0,-18.0,19.0,12.0,-14.0,0
13.0,-247.0,-19.0,21.0,12.0,-13.0,0
12.0,-246.0,-21.0,22.0,12.0,-14.0,0
12.0,-249.0,-21.0,25.0,13.0,-14.0,0
11.0,-245.0,-17.0,30.0,17.0,-15.0,0
13.0,-249.0,-17.0,33.0,18.0,-17.0,0
9.0,-245.0,-22.0,36.0,21.0,-17.0,0
13.0,-248.0,-23.0,39.0,23.0,-19.0,0
8.0,-247.0,-19.0,39.0,25.0,-20.0,0
12.0,-250.0,-24.0,39.0,28.0,-18.0,0
8.0,-248.0,-20.0,37.0,29.0,-19.0,0
12.0,-249.0,-19.0,35.0,28.0,-20.0,0
10.0,-248.0,-16.0,34.0,28.0,-22.0,0
10.0,-249.0,-21.0,34.0,29.0,-24.0,0
10.0,-249.0,-21.0,31.0,29.0,-22.0,0
10.0,-251.0,-14.0,31.0,29.0,-22.0,0
10.0,-248.0,-19.0,31.0,30.0,-22.0,0
8.0,-249.0,-15.0,31.0,30.0,-22.0,0
8.0,-246.0,-21.0,32.0,30.0,-21.0,0
12.0,-247.0,-14.0,34.0,30.0,-22.0,0
9.0,-245.0,-18.0,32.0,29.0,-21.0,0
11.0,-250.0,-16.0,33.0,29.0,-21.0,0
7.0,-250.0,-20.0,32.0,29.0,-22.0,0
9.0,-248.0,-20.0,32.0,28.0,-20.0,0
10.0,-248.0,-19.0,31.0,28.0,-20.0,0
9.0,-249.0,-17.0,31.0,26.0,-20.0,0
11.0,-250.0,-20.0,28.0,25.0,-20.0,0
7.0,-244.0,-16.0,26.0,23.0,-19.0,0
11.0,-246.0,-15.0,25.0,24.0,-19.0,0
14.0,-246.0,-17.0,23.0,22.0,-18.0,0
10.0,-248.0,-17.0,19.0,20.0,-18.0,0
10.0,-244.0,-19.0,18.0,20.0,-18.0,0
9.0,-248.0,-19.0,15.0,20.0,-19.0,0
11.0,-246.0,-20.0,11.0,20.0,-18.0,0
13.0,-249.0,-19.0,10.0,20.0,-19.0,0
11.0,-246.0,-22.0,7.0,19.0,-20.0,0
12.0,-249.0,-18.0,8.0,19.0,-18.0,0
12.0,-248.0,-23.0,6.0,18.0,-18.0,0
10.0,-247.0,-18.0,5.0,17.0,-21.0,0
8.0,-248.0,-20.0,6.0,15.0,-22.0,0
11.0,-248.0,-21.0,8.0,15.0,-22.0,0
11.0,-244.0,-24.0,12.0,14.0,-23.0,0
14.0,-246.0,-19.0,14.0,12.0,-23.0,0
14.0,-248.0,-18.0,18.0,11.0,-24.0,0
10.0,-250.0,-20.0,19.0,10.0,-24.0,0
12.0,-247.0,-22.0,20.0,10.0,-24.0,0
14.0,-252.0,-23.0,20.0,11.0,-22.0,0
10.0,-246.0,-20.0,20.0,13.0,-23.0,0
11.0,-254.0,-25.0,20.0,14.0,-22.0,0
12.0,-248.0,-19.0,18.0,16.0,-24.0,0
12.0,-250.0,-19.0,17.0,16.0,-23.0,0
17.0,-249.0,-22.0,16.0,18.0,-23.0,0
12.0,-244.0,-17.0,18.0,19.0,-21.0,0
12.0,-246.0,-19.0,21.0,19.0,-20.0,0
8.0,-247.0,-20.0,24.0,20.0,-20.0,0
11.0,-250.0,-15.0,27.0,22.0,-20.0,0
12.0,-248.0,-19.0,30.0,24.0,-22.0,0
10.0,-249.0,-18.0,29.0,25.0,-20.0,0
7.0,-243.0,-22.0,28.0,26.0,-20.0,0
12.0,-246.0,-20.0,25.0,26.0,-20.0,0
12.0,-247.0,-21.0,20.0,27.0,-18.0,0
14.0,-249.0,-19.0,17.0,26.0,-18.0,0
12.0,-249.0,-19.0,18.0,25.0,-18.0,0
8.0,-250.0,-21.0,21.0,28.0,-18.0,0
14.0,-252.0,-16.0,24.0,30.0,-17.0,0
11.0,-248.0,-19.0,29.0,31.0,-21.0,0
11.0,-249.0,-21.0,33.0,31.0,-22.0,0
13.0,-249.0,-19.0,39.0,31.0,-21.0,0
12.0,-247.0,-22.0,42.0,32.0,-23.0,0
11.0,-244.0,-25.0,42.0,32.0,-23.0,0
14.0,-247.0,-25.0,43.0,32.0,-23.0,0
13.0,-248.0,-19.0,42.0,33.0,-22.0,0
11.0,-249.0,-18.0,41.0,34.0,-23.0,0
17.0,-249.0,-21.0,40.0,33.0,-20.0,0
11.0,-250.0,-23.0,37.0,33.0,-20.0,0
14.0,-246.0,-22.0,34.0,33.0,-20.0,0
13.0,-246.0,-21.0,33.0,32.0,-22.0,0
11.0,-245.0,-23.0,31.0,33.0,-21.0,0
11.0,-244.0,-22.0,29.0,32.0,-22.0,0
8.0,-246.0,-23.0,28.0,31.0,-22.0,0
14.0,-248.0,-16.0,27.0,31.0,-23.0,0
13.0,-245.0,-23.0,26.0,30.0,-23.0,0
12.0,-248.0,-21.0,25.0,31.0,-23.0,0
10.0,-244.0,-25.0,26.0,33.0,-24.0,0
5.0,-246.0,-24.0,25.0,35.0,-23.0,0
10.0,-245.0,-26.0,26.0,35.0,-22.0,0
11.0,-251.0,-19.0,31.0,36.0,-21.0,0
12.0,-247.0,-23.0,32.0,37.0,-22.0,0
9.0,-249.0,-21.0,34.0,38.0,-20.0,0
11.0,-249.0,-17.0,36.0,38.0,-19.0,0
11.0,-249.0,-22.0,40.0,39.0,-18.0,0
14.0,-253.0,-19.0,42.0,37.0,-15.0,0
9.0,-253.0,-21.0,46.0,37.0,-14.0,0
14.0,-253.0,-17.0,50.0,38.0,-13.0,0
9.0,-248.0,-24.0,54.0,36.0,-12.0,0
12.0,-250.0,-18.0,60.0,37.0,-12.0,0
10.0,-251.0,-21.0,62.0,36.0,-13.0,0
12.0,-252.0,-23.0,65.0,37.0,-10.0,0
13.0,-250.0,-16.0,67.0,38.0,-12.0,0
13.0,-246.0,-18.0,70.0,38.0,-11.0,0
14.0,-251.0,-20.0,72.0,36.0,-12.0,0
12.0,-251.0,-19.0,74.0,36.0,-11.0,0
11.0,-248.0,-21.0,75.0,38.0,-12.0,0
11.0,-244.0,-18.0,75.0,36.0,-12.0,0
13.0,-249.0,-13.0,75.0,37.0,-13.0,0
7.0,-249.0,-21.0,74.0,38.0,-11.0,0
11.0,-246.0,-22.0,73.0,39.0,-11.0,0
11.0,-246.0,-19.0,72.0,39.0,-12.0,0
12.0,-244.0,-20.0,69.0,41.0,-12.0,0
10.0,-248.0,-21.0,66.0,40.0,-13.0,0
12.0,-249.0,-19.0,63.0,39.0,-12.0,0
11.0,-250.0,-18.0,59.0,38.0,-11.0,0
10.0,-244.0,-23.0,55.0,36.0,-10.0,0
9.0,-249.0,-22.0,53.0,35.0,-8.0,0
9.0,-244.0,-23.0,50.0,32.0,-6.0,0
13.0,-247.0,-20.0,49.0,32.0,-5.0,0
21.0,-251.0,-26.0,49.0,30.0,-1.0,0
11.0,-249.0,-20.0,46.0,29.0,2.0,0
11.0,-249.0,-16.0,42.0,28.0,7.0,0
12.0,-247.0,-20.0,37.0,27.0,10.0,0
13.0,-246.0,-17.0,35.0,25.0,15.0,0
15.0,-249.0,-24.0,32.0,24.0,18.0,0
16.0,-249.0,-21.0,29.0,25.0,21.0,0
13.0,-248.0,-27.0,29.0,30.0,21.0,0
16.0,-247.0,-17.0,30.0,35.0,20.0,0
14.0,-249.0,-28.0,31.0,44.0,18.0,0
22.0,-251.0,-21.0,30.0,54.0,16.0,0
17.0,-251.0,-24.0,29.0,65.0,12.0,0
20.0,-248.0,-21.0,29.0,76.0,11.0,0
21.0,-249.0,-26.0,29.0,89.0,8.0,0
20.0,-248.0,-25.0,29.0,100.0,8.0,0
21.0,-248.0,-23.0,29.0,114.0,9.0,0
24.0,-247.0,-24.0,31.0,126.0,10.0,0
27.0,-248.0,-26.0,34.0,137.0,9.0,0
21.0,-248.0,-26.0,37.0,146.0,10.0,0
19.0,-247.0,-20.0,40.0,154.0,12.0,0
18.0,-246.0,-27.0,40.0,163.0,12.0,0
24.0,-247.0,-26.0,38.0,170.0,13.0,0
21.0,-246.0,-26.0,33.0,176.0,15.0,0
23.0,-245.0,-28.0,26.0,182.0,19.0,0
24.0,-246.0,-31.0,20.0,189.0,22.0,0
23.0,-246.0,-24.0,13.0,195.0,25.0,0
20.0,-250.0,-27.0,6.0,204.0,27.0,0
22.0,-249.0,-24.0,1.0,213.0,31.0,0
18.0,-250.0,-27.0,-2.0,222.0,32.0,0
18.0,-248.0,-19.0,-3.0,229.0,35.0,0
17.0,-249.0,-24.0,-3.0,240.0,35.0,0
18.0,-248.0,-25.0,-2.0,251.0,40.0,0
17.0,-249.0,-19.0,1.0,261.0,41.0,0
16.0,-248.0,-22.0,1.0,274.0,42.0,0
20.0,-248.0,-22.0,0.0,285.0,45.0,0
21.0,-249.0,-22.0,-2.0,297.0,48.0,0
21.0,-249.0,-21.0,-6.0,305.0,50.0,0
23.0,-246.0,-27.0,-11.0,314.0,55.0,0
21.0,-242.0,-26.0,-20.0,323.0,56.0,0
19.0,-242.0,-29.0,-30.0,333.0,59.0,0
27.0,-247.0,-20.0,-42.0,341.0,59.0,0
23.0,-242.0,-27.0,-52.0,353.0,59.0,0
23.0,-242.0,-27.0,-62.0,363.0,57.0,0
25.0,-243.0,-25.0,-68.0,379.0,54.0,0
24.0,-242.0,-28.0,-73.0,393.0,51.0,0
26.0,-244.0,-29.0,-74.0,410.0,46.0,0
23.0,-240.0,-32.0,-75.0,427.0,40.0,0
23.0,-239.0,-33.0,-75.0,446.0,37.0,0
26.0,-242.0,-29.0,-76.0,469.0,33.0,0
24.0,-239.0,-29.0,-78.0,492.0,30.0,0
26.0,-241.0,-31.0,-78.0,520.0,24.0,0
30.0,-241.0,-38.0,-81.0,549.0,21.0,0
31.0,-241.0,-34.0,-87.0,581.0,18.0,0
31.0,-245.0,-34.0,-96.0,613.0,9.0,0
35.0,-241.0,-44.0,-108.0,646.0,1.0,0
37.0,-242.0,-42.0,-125.0,680.0,-5.0,0
41.0,-244.0,-41.0,-147.0,717.0,-12.0,0
43.0,-246.0,-43.0,-169.0,753.0,-20.0,0
42.0,-247.0,-42.0,-188.0,792.0,-26.0,0
43.0,-244.0,-41.0,-200.0,825.0,-30.0,0
46.0,-247.0,-36.0,-205.0,857.0,-32.0,0
47.0,-248.0,-34.0,-201.0,888.0,-32.0,0
47.0,-249.0,-30.0,-188.0,915.0,-29.0,0
40.0,-245.0,-33.0,-171.0,940.0,-23.0,0
41.0,-251.0,-23.0,-152.0,962.0,-17.0,0
41.0,-245.0,-30.0,-131.0,984.0,-8.0,0
36.0,-242.0,-24.0,-113.0,1006.0,2.0,0
35.0,-240.0,-25.0,-100.0,1027.0,12.0,0
33.0,-236.0,-26.0,-93.0,1049.0,20.0,0
35.0,-241.0,-22.0,-94.0,1071.0,30.0,0
32.0,-237.0,-21.0,-104.0,1091.0,37.0,0
29.0,-238.0,-30.0,-118.0,1113.0,41.0,0
28.0,-235.0,-24.0,-138.0,1133.0,45.0,0
26.0,-237.0,-26.0,-160.0,1152.0,48.0,0
28.0,-237.0,-33.0,-182.0,1171.0,47.0,0
30.0,-244.0,-33.0,-200.0,1191.0,45.0,0
27.0,-240.0,-35.0,-216.0,1211.0,43.0,0
30.0,-247.0,-43.0,-227.0,1230.0,37.0,0
31.0,-250.0,-41.0,-231.0,1253.0,27.0,0
32.0,-251.0,-47.0,-231.0,1283.0,13.0,0
31.0,-254.0,-50.0,-231.0,1319.0,-6.0,0
36.0,-257.0,-49.0,-231.0,1366.0,-28.0,0
32.0,-256.0,-54.0,-237.0,1413.0,-53.0,0
35.0,-256.0,-50.0,-252.0,1461.0,-80.0,0
33.0,-256.0,-52.0,-269.0,1499.0,-104.0,0
30.0,-260.0,-53.0,-289.0,1531.0,-126.0,0
28.0,-260.0,-47.0,-304.0,1554.0,-141.0,0
27.0,-255.0,-47.0,-312.0,1572.0,-146.0,0
32.0,-256.0,-45.0,-309.0,1581.0,-144.0,0
30.0,-253.0,-44.0,-298.0,1582.0,-138.0,0
29.0,-249.0,-42.0,-277.0,1575.0,-130.0,0
30.0,-246.0,-43.0,-253.0,1560.0,-120.0,0
32.0,-247.0,-48.0,-228.0,1547.0,-114.0,0
31.0,-237.0,-50.0,-205.0,1536.0,-111.0,0
38.0,-243.0,-59.0,-191.0,1534.0,-116.0,0
42.0,-240.0,-64.0,-189.0,1542.0,-127.0,0
43.0,-240.0,-68.0,-201.0,1559.0,-138.0,0
46.0,-238.0,-70.0,-222.0,1587.0,-155.0,0
48.0,-237.0,-80.0,-252.0,1627.0,-177.0,0
49.0,-232.0,-78.0,-284.0,1676.0,-199.0,0
46.0,-233.0,-72.0,-316.0,1732.0,-221.0,0
43.0,-230.0,-73.0,-346.0,1789.0,-234.0,0
41.0,-229.0,-73.0,-372.0,1840.0,-245.0,0
38.0,-229.0,-70.0,-394.0,1885.0,-248.0,0
35.0,-223.0,-70.0,-414.0,1920.0,-246.0,0
30.0,-219.0,-62.0,-429.0,1949.0,-228.0,0
23.0,-213.0,-62.0,-446.0,1967.0,-203.0,0
12.0,-223.0,-58.0,-463.0,1977.0,-169.0,0
17.0,-214.0,-57.0,-480.0,1981.0,-129.0,0
12.0,-210.0,-56.0,-499.0,1978.0,-88.0,0
10.0,-209.0,-55.0,-524.0,1972.0,-47.0,0
8.0,-207.0,-57.0,-560.0,1963.0,-11.0,0
4.0,-208.0,-63.0,-598.0,1953.0,19.0,0
3.0,-205.0,-63.0,-643.0,1946.0,43.0,0
1.0,-207.0,-71.0,-692.0,1940.0,59.0,0
-2.0,-209.0,-69.0,-744.0,1935.0,72.0,0
-7.0,-208.0,-68.0,-790.0,1930.0,80.0,0
-14.0,-207.0,-73.0,-830.0,1921.0,83.0,0
-21.0,-216.0,-75.0,-860.0,1903.0,86.0,0
-20.0,-215.0,-76.0,-883.0,1883.0,85.0,0
-26.0,-219.0,-80.0,-899.0,1856.0,82.0,0
-33.0,-218.0,-81.0,-911.0,1826.0,77.0,0
-39.0,-221.0,-88.0,-918.0,1790.0,68.0,0
-48.0,-222.0,-87.0,-927.0,1750.0,62.0,0
-48.0,-226.0,-93.0,-936.0,1708.0,51.0,0
-56.0,-227.0,-93.0,-947.0,1666.0,45.0,0
-60.0,-227.0,-96.0,-958.0,1621.0,45.0,0
-62.0,-229.0,-90.0,-970.0,1573.0,51.0,0
-63.0,-230.0,-93.0,-983.0,1522.0,62.0,0
-67.0,-229.0,-94.0,-993.0,1475.0,77.0,0
-66.0,-232.0,-91.0,-1003.0,1431.0,113.0,0
-63.0,-236.0,-85.0,-1010.0,1387.0,152.0,0
-61.0,-238.0,-86.0,-1010.0,1348.0,186.0,0
-64.0,-234.0,-82.0,-999.0,1309.0,224.0,0
-57.0,-232.0,-79.0,-979.0,1272.0,267.0,0
-50.0,-230.0,-75.0,-948.0,1237.0,312.0,0
-45.0,-221.0,-67.0,-911.0,1202.0,355.0,0
-38.0,-216.0,-64.0,-872.0,1170.0,388.0,0
-26.0,-208.0,-57.0,-835.0,1142.0,417.0,0
-13.0,-202.0,-61.0,-803.0,1121.0,438.0,0
-8.0,-204.0,-60.0,-778.0,1103.0,454.0,0
1.0,-193.0,-56.0,-762.0,1089.0,462.0,0
8.0,-184.0,-58.0,-759.0,1077.0,464.0,0
18.0,-181.0,-63.0,-766.0,1069.0,459.0,0
20.0,-171.0,-67.0,-785.0,1060.0,445.0,0
26.0,-168.0,-68.0,-813.0,1053.0,434.0,0
29.0,-163.0,-75.0,-849.0,1041.0,420.0,0
35.0,-163.0,-82.0,-891.0,1025.0,395.0,0
38.0,-167.0,-87.0,-931.0,1006.0,358.0,0
45.0,-163.0,-95.0,-968.0,984.0,316.0,0
47.0,-161.0,-103.0,-1006.0,965.0,269.0,0
57.0,-162.0,-112.0,-1052.0,949.0,222.0,0
50.0,-165.0,-118.0,-1108.0,933.0,176.0,0
51.0,-167.0,-122.0,-1173.0,918.0,137.0,0
52.0,-173.0,-128.0,-1245.0,900.0,105.0,0
47.0,-180.0,-133.0,-1321.0,879.0,78.0,0
45.0,-190.0,-132.0,-1391.0,846.0,59.0,0
43.0,-196.0,-131.0,-1454.0,804.0,48.0,0
44.0,-209.0,-127.0,-1504.0,746.0,41.0,0
44.0,-215.0,-126.0,-1539.0,676.0,40.0,0
47.0,-228.0,-123.0,-1558.0,600.0,46.0,0
49.0,-235.0,-114.0,-1558.0,517.0,61.0,0
50.0,-247.0,-118.0,-1539.0,432.0,85.0,0
51.0,-256.0,-109.0,-1497.0,344.0,114.0,0
50.0,-260.0,-104.0,-1437.0,251.0,142.0,0
51.0,-269.0,-102.0,-1365.0,157.0,167.0,0
48.0,-275.0,-106.0,-1285.0,65.0,188.0,0
45.0,-284.0,-105.0,-1199.0,-15.0,200.0,0
40.0,-284.0,-102.0,-1108.0,-79.0,203.0,0
41.0,-289.0,-106.0,-1009.0,-120.0,190.0,0
41.0,-286.0,-107.0,-907.0,-140.0,163.0,0
38.0,-283.0,-101.0,-797.0,-132.0,131.0,0
31.0,-272.0,-100.0,-689.0,-107.0,97.0,0
30.0,-264.0,-98.0,-585.0,-72.0,64.0,0
27.0,-250.0,-100.0,-473.0,-35.0,35.0,0
26.0,-234.0,-106.0,-395.0,-5.0,14.0,0
25.0,-219.0,-107.0,-336.0,20.0,2.0,0
26.0,-207.0,-112.0,-299.0,38.0,-10.0,0
24.0,-192.0,-116.0,-283.0,47.0,-18.0,0
20.0,-183.0,-118.0,-290.0,52.0,-23.0,0
22.0,-174.0,-125.0,-320.0,47.0,-28.0,0
23.0,-167.0,-125.0,-372.0,31.0,-33.0,0
20.0,-159.0,-126.0,-438.0,4.0,-37.0,0
16.0,-160.0,-124.0,-514.0,-36.0,-37.0,0
23.0,-157.0,-128.0,-592.0,-86.0,-35.0,0
29.0,-158.0,-130.0,-671.0,-147.0,-30.0,0
34.0,-158.0,-130.0,-746.0,-212.0,-26.0,0
41.0,-163.0,-131.0,-814.0,-279.0,-21.0,0
50.0,-167.0,-131.0,-870.0,-342.0,-19.0,0
54.0,-167.0,-134.0,-912.0,-401.0,-23.0,0
57.0,-167.0,-135.0,-941.0,-452.0,-28.0,0
65.0,-170.0,-141.0,-959.0,-494.0,-34.0,0
69.0,-173.0,-145.0,-967.0,-525.0,-38.0,0
71.0,-171.0,-145.0,-963.0,-543.0,-37.0,0
75.0,-172.0,-141.0,-950.0,-546.0,-29.0,0
85.0,-178.0,-138.0,-927.0,-537.0,-18.0,0
86.0,-179.0,-137.0,-893.0,-515.0,0.0,0
85.0,-180.0,-134.0,-848.0,-485.0,20.0,0
90.0,-182.0,-130.0,-793.0,-448.0,43.0,0
90.0,-182.0,-128.0,-730.0,-405.0,72.0,0
93.0,-186.0,-123.0,-658.0,-360.0,100.0,0
96.0,-184.0,-113.0,-579.0,-314.0,131.0,0
95.0,-181.0,-110.0,-498.0,-265.0,161.0,0
96.0,-181.0,-110.0,-420.0,-213.0,185.0,0
97.0,-182.0,-103.0,-347.0,-160.0,206.0,0
97.0,-179.0,-103.0,-288.0,-107.0,223.0,0
94.0,-176.0,-102.0,-245.0,-54.0,238.0,0
95.0,-168.0,-102.0,-219.0,-4.0,249.0,0
89.0,-164.0,-98.0,-211.0,42.0,254.0,0
79.0,-166.0,-100.0,-212.0,79.0,256.0,0
73.0,-166.0,-96.0,-220.0,106.0,254.0,0
63.0,-163.0,-98.0,-227.0,124.0,247.0,0
56.0,-162.0,-100.0,-231.0,136.0,233.0,0
42.0,-162.0,-99.0,-230.0,139.0,215.0,0
27.0,-163.0,-102.0,-222.0,137.0,194.0,0
12.0,-157.0,-107.0,-208.0,130.0,175.0,0
0.0,-153.0,-101.0,-188.0,119.0,156.0,0
-11.0,-159.0,-107.0,-166.0,102.0,147.0,0
-27.0,-152.0,-109.0,-143.0,81.0,146.0,0
-35.0,-154.0,-114.0,-124.0,53.0,150.0,0
-42.0,-151.0,-120.0,-113.0,22.0,162.0,0
-45.0,-152.0,-125.0,-113.0,-10.0,175.0,0
-49.0,-152.0,-127.0,-127.0,-42.0,187.0,0
-56.0,-152.0,-134.0,-156.0,-73.0,196.0,0
-55.0,-157.0,-140.0,-199.0,-104.0,205.0,0
-54.0,-161.0,-148.0,-249.0,-135.0,211.0,0
-45.0,-163.0,-154.0,-306.0,-165.0,214.0,0
-41.0,-169.0,-156.0,-361.0,-193.0,216.0,0
-35.0,-175.0,-158.0,-404.0,-215.0,216.0,0
-25.0,-185.0,-160.0,-431.0,-233.0,217.0,0
-19.0,-189.0,-160.0,-438.0,-242.0,211.0,0
-11.0,-193.0,-162.0,-419.0,-239.0,210.0,0
0.0,-200.0,-161.0,-374.0,-228.0,208.0,0
9.0,-207.0,-162.0,-307.0,-205.0,204.0,0
15.0,-208.0,-156.0,-225.0,-177.0,199.0,0
24.0,-208.0,-155.0,-131.0,-148.0,194.0,0
34.0,-215.0,-154.0,-33.0,-110.0,186.0,0
37.0,-217.0,-149.0,62.0,-79.0,179.0,0
46.0,-214.0,-152.0,154.0,-49.0,173.0,0
55.0,-214.0,-148.0,256.0,-19.0,170.0,0
61.0,-216.0,-149.0,335.0,10.0,162.0,0
65.0,-221.0,-150.0,406.0,34.0,152.0,0
70.0,-225.0,-153.0,466.0,57.0,140.0,0
76.0,-225.0,-155.0,510.0,74.0,124.0,0
79.0,-224.0,-157.0,536.0,85.0,109.0,0
80.0,-222.0,-164.0,549.0,90.0,96.0,0
74.0,-219.0,-164.0,546.0,87.0,88.0,0
76.0,-217.0,-170.0,533.0,88.0,81.0,0
70.0,-215.0,-167.0,517.0,90.0,82.0,0
69.0,-213.0,-168.0,502.0,98.0,83.0,0
64.0,-210.0,-171.0,487.0,108.0,90.0,0
60.0,-208.0,-171.0,481.0,129.0,99.0,0
57.0,-206.0,-173.0,478.0,147.0,113.0,0
50.0,-206.0,-176.0,476.0,175.0,127.0,0
44.0,-199.0,-175.0,473.0,199.0,143.0,0
43.0,-195.0,-175.0,466.0,223.0,164.0,0
40.0,-194.0,-176.0,458.0,246.0,173.0,0
37.0,-192.0,-174.0,447.0,261.0,176.0,0
29.0,-184.0,-180.0,434.0,274.0,174.0,0
27.0,-185.0,-188.0,412.0,286.0,166.0,0
20.0,-186.0,-175.0,385.0,294.0,156.0,0
16.0,-188.0,-174.0,351.0,300.0,147.0,0
17.0,-193.0,-176.0,309.0,305.0,147.0,0
9.0,-191.0,-174.0,261.0,308.0,131.0,0
7.0,-197.0,-176.0,204.0,308.0,121.0,0
9.0,-201.0,-163.0,144.0,302.0,111.0,0
2.0,-203.0,-165.0,84.0,287.0,96.0,0
-8.0,-209.0,-156.0,25.0,266.0,91.0,0
-10.0,-213.0,-158.0,-27.0,233.0,88.0,0
-13.0,-221.0,-154.0,-67.0,188.0,94.0,0
-21.0,-222.0,-149.0,-100.0,133.0,99.0,0
-25.0,-224.0,-145.0,-119.0,77.0,114.0,0
-22.0,-224.0,-142.0,-129.0,30.0,130.0,0
-18.0,-225.0,-142.0,-130.0,-13.0,151.0,0
-18.0,-219.0,-140.0,-124.0,-60.0,150.0,0
-14.0,-220.0,-138.0,-114.0,-98.0,148.0,0
-12.0,-217.0,-144.0,-109.0,-131.0,138.0,0
-18.0,-213.0,-139.0,-106.0,-148.0,133.0,0
-19.0,-210.0,-139.0,-114.0,-161.0,128.0,0
-10.0,-212.0,-139.0,-124.0,-162.0,137.0,0
-4.0,-207.0,-140.0,-139.0,-165.0,134.0,0
5.0,-217.0,-145.0,-158.0,-164.0,139.0,0
-1.0,-205.0,-139.0,-181.0,-154.0,113.0,0
0.0,-212.0,-143.0,-201.0,-144.0,111.0,0
0.0,-212.0,-134.0,-223.0,-131.0,95.0,0
1.0,-212.0,-137.0,-235.0,-133.0,91.0,0
2.0,-212.0,-134.0,-243.0,-134.0,81.0,0
-1.0,-210.0,-130.0,-243.0,-149.0,64.0,0
7.0,-211.0,-126.0,-229.0,-164.0,67.0,0
6.0,-213.0,-131.0,-212.0,-181.0,72.0,0
3.0,-225.0,-132.0,-194.0,-201.0,78.0,0
7.0,-221.0,-130.0,-181.0,-223.0,50.0,0
11.0,-230.0,-129.0,-162.0,-254.0,50.0,0
2.0,-219.0,-132.0,-152.0,-276.0,33.0,0
11.0,-229.0,-140.0,-139.0,-289.0,47.0,0
4.0,-217.0,-147.0,-133.0,-292.0,20.0,0
6.0,-224.0,-156.0,-126.0,-304.0,21.0,0
4.0,-216.0,-157.0,-120.0,-294.0,12.0,0
7.0,-212.0,-166.0,-121.0,-278.0,18.0,0
10.0,-217.0,-174.0,-123.0,-247.0,28.0,0
7.0,-214.0,-165.0,-131.0,-226.0,4.0,0
13.0,-216.0,-169.0,-137.0,-221.0,4.0,0
18.0,-219.0,-168.0,-135.0,-209.0,11.0,0
21.0,-226.0,-165.0,-133.0,-197.0,0.0,0
22.0,-218.0,-170.0,-131.0,-206.0,-20.0,0
19.0,-220.0,-167.0,-123.0,-216.0,-14.0,0
16.0,-224.0,-168.0,-122.0,-227.0,-7.0,0
16.0,-213.0,-159.0,-125.0,-244.0,-10.0,0
20.0,-212.0,-162.0,-121.0,-273.0,14.0,0
25.0,-223.0,-164.0,-125.0,-293.0,26.0,0
20.0,-209.0,-162.0,-138.0,-298.0,3.0,0
22.0,-211.0,-164.0,-148.0,-300.0,15.0,0
17.0,-213.0,-167.0,-164.0,-283.0,31.0,0
8.0,-203.0,-164.0,-194.0,-269.0,12.0,0
8.0,-209.0,-166.0,-217.0,-263.0,10.0,0
10.0,-222.0,-173.0,-237.0,-248.0,15.0,0
10.0,-205.0,-165.0,-259.0,-221.0,-12.0,0
2.0,-210.0,-167.0,-260.0,-192.0,-17.0,0
-2.0,-210.0,-166.0,-245.0,-153.0,-14.0,0
-3.0,-220.0,-169.0,-221.0,-124.0,-21.0,0
-2.0,-205.0,-161.0,-202.0,-106.0,-53.0,0
0.0,-209.0,-171.0,-172.0,-93.0,-33.0,0
7.0,-211.0,-169.0,-146.0,-69.0,-15.0,0
5.0,-208.0,-174.0,-129.0,-49.0,-11.0,0
0.0,-205.0,-173.0,-121.0,-34.0,-22.0,0
14.0,-208.0,-171.0,-112.0,-33.0,-28.0,0
12.0,-208.0,-170.0,-107.0,-35.0,-23.0,0
22.0,-213.0,-165.0,-104.0,-32.0,-15.0,0
17.0,-206.0,-169.0,-108.0,-33.0,-27.0,0
26.0,-213.0,-169.0,-106.0,-39.0,-11.0,0
30.0,-213.0,-175.0,-104.0,-53.0,9.0,0
26.0,-214.0,-176.0,-114.0,-72.0,14.0,0
23.0,-204.0,-177.0,-128.0,-96.0,9.0,0
29.0,-211.0,-183.0,-130.0,-119.0,30.0,0
23.0,-206.0,-174.0,-133.0,-131.0,26.0,0
32.0,-202.0,-178.0,-128.0,-147.0,40.0,0
19.0,-203.0,-175.0,-121.0,-147.0,54.0,0
13.0,-202.0,-173.0,-124.0,-131.0,36.0,0
12.0,-199.0,-171.0,-124.0,-124.0,37.0,0
7.0,-199.0,-171.0,-112.0,-105.0,53.0,0
0.0,-201.0,-174.0,-108.0,-81.0,41.0,0
5.0,-188.0,-169.0,-101.0,-69.0,14.0,0
9.0,-194.0,-170.0,-84.0,-44.0,41.0,0
5.0,-200.0,-169.0,-65.0,-16.0,47.0,0
-2.0,-194.0,-162.0,-58.0,11.0,17.0,0
5.0,-183.0,-164.0,-48.0,20.0,12.0,0
8.0,-194.0,-163.0,-36.0,35.0,27.0,0
12.0,-189.0,-162.0,-24.0,53.0,46.0,0
6.0,-189.0,-162.0,-25.0,63.0,37.0,0
9.0,-178.0,-164.0,-36.0,66.0,17.0,0
15.0,-182.0,-173.0,-34.0,75.0,53.0,0
30.0,-190.0,-177.0,-32.0,77.0,69.0,0
23.0,-189.0,-175.0,-42.0,70.0,58.0,0
17.0,-189.0,-181.0,-57.0,66.0,41.0,0
17.0,-187.0,-175.0,-63.0,48.0,40.0,0
25.0,-189.0,-180.0,-60.0,35.0,71.0,0
28.0,-188.0,-183.0,-71.0,16.0,76.0,0
13.0,-187.0,-172.0,-101.0,0.0,51.0,0
10.0,-180.0,-174.0,-129.0,-20.0,19.0,0
15.0,-186.0,-180.0,-127.0,-25.0,56.0,0
20.0,-190.0,-184.0,-125.0,-27.0,70.0,0
11.0,-187.0,-179.0,-128.0,-30.0,56.0,0
4.0,-183.0,-178.0,-138.0,-16.0,24.0,0
3.0,-189.0,-180.0,-139.0,-13.0,26.0,0
1.0,-187.0,-180.0,-125.0,0.0,40.0,0
8.0,-191.0,-180.0,-111.0,3.0,38.0,0
2.0,-190.0,-176.0,-107.0,10.0,14.0,0
7.0,-189.0,-182.0,-100.0,11.0,2.0,0
-1.0,-187.0,-179.0,-81.0,27.0,17.0,0
11.0,-194.0,-178.0,-63.0,45.0,26.0,0
10.0,-193.0,-181.0,-54.0,50.0,17.0,0
8.0,-191.0,-178.0,-44.0,52.0,13.0,0
5.0,-193.0,-176.0,-31.0,47.0,1.0,0
10.0,-189.0,-173.0,-13.0,30.0,0.0,0
19.0,-192.0,-176.0,7.0,24.0,16.0,0
17.0,-190.0,-174.0,15.0,18.0,13.0,0
10.0,-190.0,-177.0,13.0,13.0,2.0,0
9.0,-192.0,-174.0,11.0,11.0,-8.0,0
10.0,-188.0,-175.0,11.0,11.0,-11.0,0
8.0,-192.0,-182.0,11.0,8.0,-11.0,0
12.0,-187.0,-176.0,2.0,5.0,-31.0,0
9.0,-187.0,-174.0,6.0,3.0,-27.0,0
9.0,-186.0,-177.0,11.0,9.0,-23.0,0
9.0,-187.0,-177.0,11.0,10.0,-25.0,0
10.0,-186.0,-176.0,11.0,10.0,-34.0,0
7.0,-186.0,-171.0,13.0,11.0,-39.0,0
10.0,-185.0,-173.0,16.0,11.0,-43.0,0
7.0,-189.0,-174.0,17.0,14.0,-46.0,0
10.0,-183.0,-168.0,9.0,12.0,-64.0,0
14.0,-184.0,-178.0,12.0,15.0,-54.0,0
12.0,-184.0,-178.0,20.0,25.0,-46.0,0
16.0,-186.0,-177.0,19.0,28.0,-46.0,0
13.0,-185.0,-176.0,15.0,29.0,-50.0,0
12.0,-183.0,-179.0,10.0,30.0,-52.0,0
11.0,-187.0,-175.0,10.0,31.0,-50.0,0
14.0,-189.0,-169.0,12.0,34.0,-51.0,0
14.0,-186.0,-173.0,19.0,34.0,-51.0,0
15.0,-189.0,-172.0,27.0,35.0,-51.0,0
15.0,-192.0,-171.0,41.0,32.0,-51.0,0
11.0,-194.0,-174.0,55.0,27.0,-54.0,0
16.0,-185.0,-169.0,59.0,24.0,-66.0,0
12.0,-189.0,-173.0,72.0,21.0,-57.0,0
12.0,-189.0,-168.0,87.0,23.0,-50.0,0
14.0,-188.0,-169.0,99.0,22.0,-49.0,0
11.0,-189.0,-166.0,104.0,23.0,-51.0,0
13.0,-187.0,-166.0,107.0,20.0,-46.0,0
14.0,-188.0,-166.0,108.0,23.0,-54.0,0
12.0,-187.0,-169.0,115.0,23.0,-55.0,0
14.0,-188.0,-170.0,119.0,23.0,-56.0,0
12.0,-187.0,-177.0,122.0,26.0,-55.0,0
10.0,-187.0,-170.0,125.0,30.0,-54.0,0
17.0,-184.0,-175.0,130.0,34.0,-53.0,0
16.0,-184.0,-165.0,131.0,38.0,-53.0,0
12.0,-186.0,-172.0,128.0,40.0,-51.0,0
15.0,-188.0,-172.0,125.0,45.0,-49.0,0
10.0,-181.0,-168.0,115.0,48.0,-61.0,0
14.0,-182.0,-170.0,108.0,45.0,-54.0,0
10.0,-183.0,-172.0,110.0,56.0,-48.0,0
13.0,-184.0,-175.0,111.0,63.0,-43.0,0
15.0,-186.0,-171.0,112.0,75.0,-41.0,0
15.0,-186.0,-175.0,111.0,80.0,-37.0,0
15.0,-186.0,-168.0,114.0,85.0,-35.0,0
17.0,-183.0,-170.0,115.0,87.0,-34.0,0
10.0,-184.0,-171.0,116.0,86.0,-34.0,0
14.0,-184.0,-170.0,118.0,83.0,-33.0,0
16.0,-185.0,-173.0,117.0,80.0,-30.0,0
14.0,-184.0,-167.0,115.0,80.0,-27.0,0
15.0,-183.0,-168.0,114.0,79.0,-24.0,0
13.0,-180.0,-169.0,111.0,81.0,-23.0,0
15.0,-183.0,-170.0,111.0,84.0,-19.0,0
14.0,-184.0,-167.0,108.0,88.0,-17.0,0
13.0,-184.0,-171.0,105.0,95.0,-16.0,0
15.0,-183.0,-169.0,98.0,101.0,-15.0,0
11.0,-185.0,-170.0,92.0,104.0,-16.0,0
11.0,-182.0,-169.0,88.0,105.0,-15.0,0
11.0,-180.0,-165.0,83.0,103.0,-11.0,0
15.0,-185.0,-167.0,79.0,100.0,-9.0,0
16.0,-186.0,-168.0,77.0,96.0,-5.0,0
16.0,-175.0,-162.0,60.0,94.0,-20.0,0
10.0,-177.0,-165.0,57.0,86.0,-6.0,0
11.0,-185.0,-165.0,54.0,86.0,0.0,0
11.0,-183.0,-163.0,47.0,82.0,7.0,0
12.0,-186.0,-163.0,36.0,82.0,10.0,0
13.0,-182.0,-161.0,30.0,79.0,13.0,0
10.0,-185.0,-168.0,30.0,78.0,15.0,0
9.0,-182.0,-159.0,32.0,77.0,15.0,0
10.0,-186.0,-163.0,38.0,75.0,13.0,0
9.0,-185.0,-167.0,45.0,71.0,15.0,0
13.0,-184.0,-162.0,50.0,70.0,16.0,0
8.0,-184.0,-161.0,55.0,71.0,17.0,0
11.0,-193.0,-172.0,58.0,72.0,14.0,0
15.0,-175.0,-165.0,41.0,69.0,-7.0,0
10.0,-183.0,-171.0,36.0,63.0,6.0,0
7.0,-181.0,-167.0,38.0,66.0,18.0,0
13.0,-184.0,-166.0,38.0,63.0,26.0,0
15.0,-187.0,-172.0,34.0,65.0,26.0,0
15.0,-189.0,-170.0,34.0,67.0,28.0,0
12.0,-188.0,-170.0,37.0,66.0,28.0,0
10.0,-180.0,-166.0,36.0,62.0,44.0,0
6.0,-182.0,-162.0,34.0,66.0,36.0,0
9.0,-185.0,-163.0,37.0,56.0,33.0,0
-2.0,-185.0,-163.0,35.0,54.0,28.0,0
13.0,-180.0,-163.0,17.0,45.0,14.0,0
4.0,-181.0,-167.0,16.0,48.0,25.0,0
6.0,-185.0,-166.0,19.0,52.0,33.0,0
9.0,-182.0,-166.0,18.0,50.0,36.0,0
7.0,-188.0,-159.0,17.0,51.0,37.0,0
7.0,-184.0,-160.0,19.0,49.0,38.0,0
9.0,-187.0,-161.0,20.0,43.0,40.0,0
10.0,-183.0,-165.0,17.0,37.0,51.0,0
10.0,-185.0,-161.0,7.0,40.0,51.0,0
8.0,-185.0,-163.0,4.0,33.0,45.0,0
-3.0,-189.0,-163.0,-1.0,24.0,29.0,0
12.0,-184.0,-169.0,-17.0,7.0,17.0,0
8.0,-185.0,-164.0,-6.0,8.0,33.0,0
10.0,-191.0,-171.0,8.0,12.0,35.0,0
5.0,-187.0,-175.0,22.0,16.0,34.0,0
7.0,-188.0,-173.0,37.0,18.0,29.0,0
6.0,-190.0,-173.0,52.0,20.0,29.0,0
5.0,-192.0,-173.0,66.0,21.0,27.0,0
11.0,-192.0,-174.0,78.0,19.0,24.0,0
9.0,-190.0,-174.0,85.0,19.0,23.0,0
12.0,-192.0,-175.0,91.0,18.0,21.0,0
12.0,-190.0,-174.0,94.0,16.0,19.0,0
10.0,-190.0,-173.0,93.0,17.0,15.0,0
11.0,-191.0,-177.0,91.0,19.0,12.0,0
1.0,-193.0,-171.0,88.0,21.0,4.0,0
13.0,-184.0,-172.0,72.0,18.0,-15.0,0
12.0,-191.0,-168.0,81.0,26.0,-6.0,0
11.0,-188.0,-174.0,93.0,28.0,-3.0,0
13.0,-191.0,-171.0,101.0,29.0,-7.0,0
11.0,-190.0,-172.0,109.0,30.0,-7.0,0
14.0,-193.0,-172.0,118.0,30.0,-9.0,0
8.0,-187.0,-172.0,126.0,27.0,-9.0,0
10.0,-187.0,-175.0,133.0,23.0,-12.0,0
7.0,-183.0,-175.0,137.0,21.0,-11.0,0
9.0,-189.0,-173.0,136.0,20.0,-11.0,0
10.0,-183.0,-173.0,133.0,21.0,-10.0,0
7.0,-185.0,-176.0,129.0,20.0,-10.0,0
9.0,-188.0,-173.0,128.0,20.0,-11.0,0
9.0,-185.0,-175.0,126.0,17.0,-10.0,0
9.0,-182.0,-176.0,123.0,16.0,-10.0,0
10.0,-184.0,-172.0,120.0,13.0,-12.0,0
11.0,-188.0,-169.0,117.0,11.0,-13.0,0
11.0,-183.0,-171.0,116.0,8.0,-14.0,0
10.0,-184.0,-172.0,117.0,8.0,-15.0,0
12.0,-184.0,-172.0,119.0,10.0,-14.0,0
11.0,-185.0,-169.0,121.0,11.0,-16.0,0
9.0,-183.0,-174.0,124.0,12.0,-17.0,0
8.0,-183.0,-168.0,126.0,13.0,-18.0,0
15.0,-185.0,-176.0,127.0,14.0,-17.0,0
10.0,-181.0,-167.0,129.0,15.0,-16.0,0
9.0,-182.0,-171.0,129.0,18.0,-18.0,0
9.0,-182.0,-169.0,126.0,19.0,-18.0,0
10.0,-180.0,-170.0,127.0,21.0,-19.0,0
9.0,-179.0,-166.0,124.0,23.0,-18.0,0
10.0,-178.0,-171.0,122.0,21.0,-19.0,0
9.0,-177.0,-168.0,120.0,21.0,-18.0,0
8.0,-179.0,-164.0,115.0,20.0,-16.0,0
12.0,-178.0,-170.0,110.0,18.0,-16.0,0
10.0,-178.0,-169.0,108.0,17.0,-13.0,0
15.0,-177.0,-172.0,104.0,18.0,-11.0,0
8.0,-178.0,-164.0,101.0,17.0,-8.0,0
11.0,-180.0,-164.0,99.0,19.0,-6.0,0
11.0,-178.0,-165.0,97.0,22.0,-4.0,0
13.0,-180.0,-168.0,97.0,25.0,-1.0,0
12.0,-176.0,-167.0,99.0,28.0,-1.0,0
12.0,-183.0,-164.0,100.0,30.0,1.0,0
8.0,-179.0,-164.0,105.0,31.0,3.0,0
10.0,-179.0,-166.0,108.0,33.0,5.0,0
7.0,-177.0,-167.0,111.0,35.0,7.0,0
8.0,-187.0,-172.0,112.0,34.0,9.0,0
8.0,-180.0,-162.0,111.0,35.0,11.0,0
12.0,-179.0,-160.0,109.0,33.0,9.0,0
8.0,-179.0,-163.0,106.0,32.0,11.0,0
10.0,-182.0,-164.0,103.0,28.0,12.0,0
13.0,-179.0,-167.0,101.0,25.0,12.0,0
13.0,-183.0,-161.0,96.0,25.0,10.0,0
12.0,-179.0,-166.0,92.0,23.0,12.0,0
9.0,-185.0,-163.0,89.0,21.0,11.0,0
8.0,-179.0,-169.0,84.0,17.0,11.0,0
11.0,-186.0,-167.0,81.0,14.0,12.0,0
9.0,-186.0,-165.0,75.0,12.0,9.0,0
10.0,-187.0,-165.0,72.0,12.0,9.0,0
12.0,-185.0,-165.0,68.0,13.0,7.0,0
12.0,-188.0,-163.0,62.0,14.0,4.0,0
10.0,-186.0,-164.0,60.0,18.0,1.0,0
7.0,-185.0,-166.0,61.0,20.0,-1.0,0
9.0,-189.0,-165.0,62.0,22.0,-3.0,0
8.0,-188.0,-163.0,67.0,19.0,-2.0,0
11.0,-191.0,-172.0,76.0,17.0,-5.0,0
7.0,-188.0,-166.0,77.0,15.0,-13.0,0
2.0,-195.0,-168.0,80.0,11.0,-19.0,0
14.0,-183.0,-165.0,71.0,5.0,-27.0,0
9.0,-184.0,-170.0,74.0,5.0,-19.0,0
8.0,-185.0,-168.0,76.0,2.0,-17.0,0
8.0,-185.0,-167.0,74.0,-2.0,-17.0,0
10.0,-184.0,-166.0,72.0,-3.0,-18.0,0
11.0,-187.0,-164.0,69.0,-5.0,-18.0,0
10.0,-187.0,-165.0,67.0,-9.0,-18.0,0
8.0,-188.0,-162.0,65.0,-3.0,-16.0,0
8.0,-185.0,-169.0,68.0,0.0,-19.0,0
7.0,-186.0,-164.0,71.0,2.0,-19.0,0
7.0,-184.0,-166.0,72.0,1.0,-20.0,0
6.0,-183.0,-168.0,75.0,3.0,-22.0,0
7.0,-187.0,-169.0,77.0,3.0,-25.0,0
9.0,-189.0,-169.0,80.0,3.0,-28.0,0
6.0,-187.0,-170.0,84.0,0.0,-31.0,0
7.0,-189.0,-169.0,87.0,-2.0,-31.0,0
8.0,-188.0,-169.0,92.0,-4.0,-33.0,0
9.0,-186.0,-169.0,97.0,-7.0,-34.0,0
6.0,-188.0,-170.0,100.0,-7.0,-37.0,0
12.0,-186.0,-167.0,103.0,-10.0,-38.0,0
12.0,-183.0,-167.0,105.0,-10.0,-38.0,0
8.0,-184.0,-170.0,105.0,-12.0,-38.0,0
5.0,-185.0,-163.0,105.0,-11.0,-36.0,0
9.0,-184.0,-160.0,105.0,-11.0,-35.0,0
6.0,-184.0,-167.0,103.0,-10.0,-35.0,0
6.0,-184.0,-165.0,102.0,-10.0,-34.0,0
7.0,-188.0,-160.0,99.0,-11.0,-35.0,0
8.0,-184.0,-160.0,96.0,-11.0,-35.0,0
10.0,-186.0,-163.0,91.0,-14.0,-33.0,0
3.0,-183.0,-164.0,88.0,-15.0,-33.0,0
13.0,-188.0,-163.0,84.0,-16.0,-34.0,0
12.0,-189.0,-164.0,80.0,-17.0,-32.0,0
8.0,-185.0,-160.0,76.0,-18.0,-32.0,0
8.0,-184.0,-162.0,71.0,-19.0,-30.0,0
11.0,-185.0,-164.0,66.0,-22.0,-29.0,0
10.0,-183.0,-164.0,63.0,-24.0,-28.0,0
9.0,-187.0,-163.0,63.0,-24.0,-27.0,0
12.0,-188.0,-164.0,61.0,-25.0,-26.0,0
8.0,-185.0,-163.0,62.0,-25.0,-26.0,0
11.0,-187.0,-163.0,63.0,-22.0,-24.0,0
14.0,-192.0,-167.0,67.0,-20.0,-24.0,0
11.0,-187.0,-167.0,72.0,-16.0,-24.0,0
13.0,-188.0,-165.0,76.0,-12.0,-23.0,0
10.0,-185.0,-163.0,78.0,-10.0,-22.0,0
14.0,-185.0,-162.0,78.0,-9.0,-19.0,0
12.0,-189.0,-162.0,77.0,-8.0,-17.0,0
11.0,-187.0,-165.0,79.0,-6.0,-17.0,0
12.0,-184.0,-158.0,79.0,-5.0,-18.0,0
13.0,-186.0,-160.0,80.0,-4.0,-16.0,0
15.0,-184.0,-164.0,81.0,-5.0,-13.0,0
13.0,-187.0,-163.0,82.0,-6.0,-11.0,0
12.0,-183.0,-163.0,80.0,-4.0,-10.0,0
9.0,-180.0,-158.0,79.0,1.0,-9.0,0
10.0,-184.0,-156.0,75.0,5.0,-8.0,0
8.0,-184.0,-161.0,71.0,7.0,-7.0,0
11.0,-188.0,-158.0,66.0,8.0,-6.0,0
8.0,-178.0,-175.0,64.0,8.0,-5.0,0
11.0,-183.0,-158.0,65.0,7.0,-4.0,0
11.0,-186.0,-163.0,69.0,7.0,-3.0,0
13.0,-187.0,-164.0,75.0,9.0,-4.0,0
12.0,-183.0,-166.0,80.0,9.0,-3.0,0
9.0,-181.0,-161.0,81.0,9.0,-1.0,0
12.0,-184.0,-163.0,79.0,11.0,0.0,0
12.0,-182.0,-160.0,75.0,12.0,1.0,0
9.0,-184.0,-167.0,70.0,14.0,0.0,0
16.0,-183.0,-158.0,64.0,14.0,1.0,0
7.0,-182.0,-158.0,57.0,12.0,2.0,0
12.0,-184.0,-165.0,55.0,10.0,2.0,0
10.0,-187.0,-161.0,53.0,9.0,3.0,0
9.0,-185.0,-163.0,54.0,8.0,4.0,0
12.0,-187.0,-161.0,55.0,7.0,3.0,0
12.0,-186.0,-163.0,56.0,9.0,2.0,0
13.0,-191.0,-164.0,56.0,13.0,5.0,0
9.0,-189.0,-158.0,60.0,12.0,6.0,0
7.0,-193.0,-163.0,63.0,10.0,6.0,0
17.0,-186.0,-160.0,50.0,5.0,-9.0,0
13.0,-185.0,-161.0,54.0,11.0,2.0,0
12.0,-188.0,-162.0,63.0,12.0,11.0,0
12.0,-189.0,-161.0,68.0,16.0,12.0,0
17.0,-191.0,-163.0,71.0,16.0,13.0,0
15.0,-187.0,-165.0,72.0,16.0,10.0,0
10.0,-188.0,-165.0,72.0,14.0,5.0,0
11.0,-182.0,-162.0,71.0,13.0,5.0,0
10.0,-185.0,-161.0,64.0,14.0,3.0,0
11.0,-189.0,-163.0,59.0,15.0,2.0,0
12.0,-190.0,-161.0,62.0,18.0,-1.0,0
8.0,-187.0,-163.0,65.0,21.0,-5.0,0
4.0,-186.0,-166.0,69.0,24.0,-7.0,0
11.0,-189.0,-162.0,73.0,23.0,-9.0,0
15.0,-190.0,-165.0,76.0,21.0,-7.0,0
9.0,-186.0,-158.0,71.0,28.0,-7.0,0
7.0,-185.0,-163.0,65.0,29.0,-9.0,0
8.0,-189.0,-161.0,60.0,26.0,-11.0,0
10.0,-187.0,-159.0,57.0,24.0,-13.0,0
11.0,-191.0,-162.0,56.0,22.0,-14.0,0
9.0,-190.0,-160.0,58.0,17.0,-13.0,0
8.0,-189.0,-158.0,62.0,14.0,-14.0,0
11.0,-190.0,-161.0,63.0,12.0,-13.0,0
5.0,-182.0,-163.0,61.0,12.0,-9.0,0
10.0,-186.0,-160.0,51.0,17.0,-4.0,0
30.0,-191.0,-168.0,38.0,15.0,12.0,0
14.0,-185.0,-159.0,1.0,37.0,29.0,0
7.0,-181.0,-158.0,-26.0,45.0,30.0,0
7.0,-188.0,-159.0,-30.0,41.0,43.0,0
7.0,-188.0,-164.0,-43.0,61.0,37.0,0
4.0,-190.0,-168.0,-41.0,54.0,31.0,0
1.0,-187.0,-166.0,-26.0,29.0,41.0,0
4.0,-190.0,-167.0,0.0,21.0,14.0,0
8.0,-192.0,-167.0,55.0,5.0,-9.0,0
7.0,-191.0,-172.0,100.0,1.0,-14.0,0
6.0,-187.0,-166.0,126.0,0.0,-17.0,0
7.0,-183.0,-164.0,140.0,2.0,-20.0,0
8.0,-184.0,-164.0,141.0,4.0,-20.0,0
7.0,-183.0,-165.0,133.0,8.0,-18.0,0
10.0,-186.0,-164.0,122.0,10.0,-17.0,0
7.0,-185.0,-164.0,117.0,8.0,-16.0,0
10.0,-185.0,-163.0,118.0,6.0,-17.0,0
12.0,-186.0,-168.0,127.0,2.0,-16.0,0
10.0,-185.0,-167.0,138.0,-4.0,-14.0,0
5.0,-185.0,-167.0,146.0,-5.0,-14.0,0
12.0,-184.0,-168.0,152.0,-6.0,-11.0,0
11.0,-182.0,-167.0,156.0,-5.0,-10.0,0
9.0,-185.0,-160.0,156.0,-4.0,-10.0,0
5.0,-183.0,-161.0,155.0,-4.0,-8.0,0
10.0,-187.0,-162.0,150.0,-4.0,-7.0,0
9.0,-184.0,-160.0,146.0,-5.0,-7.0,0
8.0,-183.0,-161.0,142.0,-6.0,-6.0,0
6.0,-184.0,-159.0,138.0,-4.0,-4.0,0
9.0,-188.0,-161.0,134.0,-5.0,-4.0,0
10.0,-187.0,-165.0,135.0,-1.0,-2.0,0
11.0,-186.0,-165.0,137.0,3.0,-4.0,0
9.0,-191.0,-165.0,141.0,7.0,-5.0,0
12.0,-185.0,-168.0,146.0,11.0,-5.0,0
10.0,-186.0,-167.0,147.0,16.0,-3.0,0
11.0,-187.0,-165.0,150.0,18.0,-4.0,0
10.0,-187.0,-164.0,150.0,16.0,-5.0,0
8.0,-186.0,-164.0,151.0,14.0,-3.0,0
7.0,-188.0,-166.0,151.0,12.0,-2.0,0
1.0,-188.0,-164.0,152.0,12.0,-2.0,0
7.0,-189.0,-162.0,151.0,11.0,-2.0,0
8.0,-190.0,-163.0,153.0,11.0,-1.0,0
10.0,-187.0,-159.0,156.0,14.0,-2.0,0
16.0,-191.0,-151.0,157.0,17.0,-3.0,0
6.0,-189.0,-162.0,155.0,19.0,1.0,0
7.0,-189.0,-159.0,154.0,19.0,1.0,0
9.0,-191.0,-162.0,153.0,20.0,4.0,0
11.0,-190.0,-161.0,151.0,20.0,5.0,0
10.0,-191.0,-156.0,153.0,20.0,9.0,0
9.0,-190.0,-159.0,152.0,16.0,13.0,0
10.0,-190.0,-162.0,150.0,12.0,15.0,0
9.0,-189.0,-160.0,146.0,11.0,19.0,0
11.0,-190.0,-160.0,137.0,11.0,19.0,0
11.0,-190.0,-160.0,130.0,12.0,18.0,0
6.0,-192.0,-157.0,126.0,12.0,18.0,0
9.0,-190.0,-161.0,123.0,15.0,20.0,0
10.0,-193.0,-159.0,126.0,21.0,17.0,0
10.0,-193.0,-159.0,130.0,22.0,19.0,0
7.0,-193.0,-162.0,136.0,25.0,20.0,0
10.0,-194.0,-161.0,142.0,28.0,19.0,0
9.0,-191.0,-161.0,147.0,30.0,16.0,0
6.0,-188.0,-164.0,150.0,30.0,16.0,0
8.0,-191.0,-155.0,151.0,32.0,16.0,0
6.0,-189.0,-164.0,151.0,32.0,16.0,0
10.0,-190.0,-162.0,144.0,31.0,13.0,0
3.0,-196.0,-162.0,139.0,30.0,14.0,0
7.0,-191.0,-156.0,134.0,28.0,14.0,0
11.0,-190.0,-159.0,129.0,26.0,13.0,0
6.0,-191.0,-156.0,125.0,23.0,12.0,0
9.0,-192.0,-154.0,122.0,23.0,8.0,0
6.0,-190.0,-155.0,120.0,23.0,5.0,0
7.0,-192.0,-159.0,121.0,26.0,3.0,0
4.0,-193.0,-156.0,123.0,26.0,0.0,0
4.0,-191.0,-162.0,126.0,24.0,-3.0,0
2.0,-191.0,-159.0,132.0,23.0,-3.0,0
5.0,-195.0,-156.0,136.0,24.0,-5.0,0
3.0,-192.0,-161.0,141.0,25.0,-6.0,0
5.0,-191.0,-160.0,144.0,26.0,-8.0,0
4.0,-194.0,-158.0,146.0,25.0,-9.0,0
4.0,-192.0,-158.0,146.0,25.0,-8.0,0
2.0,-191.0,-156.0,143.0,25.0,-6.0,0
4.0,-191.0,-160.0,140.0,24.0,-7.0,0
4.0,-191.0,-158.0,134.0,22.0,-7.0,0
4.0,-190.0,-158.0,125.0,19.0,-8.0,0
3.0,-190.0,-157.0,119.0,17.0,-7.0,0
4.0,-190.0,-159.0,112.0,14.0,-8.0,0
2.0,-189.0,-159.0,111.0,11.0,-9.0,0
6.0,-192.0,-157.0,108.0,9.0,-9.0,0
5.0,-193.0,-154.0,108.0,8.0,-11.0,0
5.0,-191.0,-151.0,107.0,6.0,-12.0,0
5.0,-192.0,-155.0,109.0,6.0,-11.0,0
5.0,-195.0,-159.0,113.0,6.0,-13.0,0
4.0,-191.0,-155.0,119.0,8.0,-13.0,0
6.0,-194.0,-154.0,124.0,10.0,-12.0,0
6.0,-190.0,-151.0,128.0,11.0,-12.0,0
8.0,-188.0,-151.0,128.0,12.0,-13.0,0
4.0,-189.0,-154.0,127.0,13.0,-13.0,0
6.0,-194.0,-155.0,123.0,9.0,-14.0,0
5.0,-193.0,-160.0,120.0,7.0,-12.0,0
8.0,-194.0,-154.0,113.0,2.0,-13.0,0
6.0,-190.0,-157.0,108.0,-3.0,-12.0,0
6.0,-191.0,-156.0,103.0,-7.0,-11.0,0
9.0,-192.0,-160.0,95.0,-7.0,-10.0,0
5.0,-189.0,-155.0,87.0,-10.0,-12.0,0
7.0,-190.0,-153.0,77.0,-10.0,-12.0,0
12.0,-188.0,-154.0,69.0,-10.0,-12.0,0
6.0,-189.0,-153.0,62.0,-9.0,-12.0,0
8.0,-191.0,-156.0,56.0,-10.0,-10.0,0
12.0,-192.0,-157.0,51.0,-11.0,-12.0,0
6.0,-193.0,-153.0,50.0,-12.0,-14.0,0
7.0,-192.0,-155.0,46.0,-11.0,-16.0,0
8.0,-193.0,-153.0,42.0,-10.0,-17.0,0
8.0,-192.0,-153.0,38.0,-5.0,-18.0,0
8.0,-194.0,-157.0,37.0,-2.0,-21.0,0
9.0,-196.0,-153.0,35.0,1.0,-23.0,0
10.0,-196.0,-154.0,35.0,1.0,-23.0,0
8.0,-199.0,-151.0,37.0,2.0,-24.0,0
11.0,-197.0,-151.0,39.0,1.0,-26.0,0
6.0,-196.0,-156.0,41.0,-1.0,-26.0,0
10.0,-199.0,-157.0,45.0,-5.0,-26.0,0
11.0,-200.0,-155.0,46.0,-10.0,-26.0,0
8.0,-197.0,-160.0,48.0,-15.0,-25.0,0
11.0,-197.0,-161.0,52.0,-19.0,-22.0,0
11.0,-198.0,-160.0,58.0,-23.0,-21.0,0
8.0,-196.0,-159.0,64.0,-22.0,-21.0,0
8.0,-194.0,-162.0,71.0,-19.0,-21.0,0
12.0,-194.0,-165.0,74.0,-15.0,-22.0,0
10.0,-196.0,-159.0,77.0,-11.0,-24.0,0
10.0,-196.0,-162.0,79.0,-5.0,-24.0,0
9.0,-197.0,-160.0,80.0,-2.0,-25.0,0
11.0,-205.0,-150.0,80.0,1.0,-26.0,0
7.0,-196.0,-159.0,82.0,3.0,-27.0,0
12.0,-198.0,-156.0,85.0,3.0,-27.0,0
10.0,-193.0,-160.0,91.0,3.0,-29.0,0
8.0,-195.0,-152.0,94.0,3.0,-30.0,0
7.0,-192.0,-151.0,100.0,2.0,-30.0,0
7.0,-190.0,-152.0,101.0,2.0,-30.0,0
9.0,-193.0,-152.0,100.0,1.0,-30.0,0
8.0,-190.0,-152.0,98.0,0.0,-28.0,0
9.0,-191.0,-155.0,97.0,-1.0,-27.0,0
13.0,-196.0,-152.0,94.0,-2.0,-26.0,0
13.0,-195.0,-152.0,93.0,-2.0,-26.0,0
7.0,-195.0,-142.0,91.0,-2.0,-26.0,0
9.0,-192.0,-154.0,89.0,0.0,-27.0,0
11.0,-193.0,-156.0,87.0,-1.0,-27.0,0
10.0,-192.0,-159.0,86.0,-2.0,-28.0,0
10.0,-195.0,-156.0,83.0,-3.0,-29.0,0
8.0,-192.0,-159.0,82.0,-4.0,-29.0,0
9.0,-191.0,-158.0,79.0,-3.0,-29.0,0
9.0,-191.0,-162.0,78.0,0.0,-29.0,0
11.0,-193.0,-160.0,76.0,1.0,-30.0,0
6.0,-185.0,-160.0,73.0,3.0,-30.0,0
1.0,-189.0,-162.0,74.0,4.0,-29.0,0
9.0,-190.0,-159.0,75.0,6.0,-30.0,0
11.0,-191.0,-159.0,76.0,7.0,-29.0,0
7.0,-191.0,-155.0,78.0,8.0,-30.0,0
11.0,-189.0,-155.0,80.0,10.0,-28.0,0
9.0,-191.0,-157.0,80.0,8.0,-24.0,0
12.0,-191.0,-157.0,78.0,10.0,-24.0,0
9.0,-188.0,-149.0,75.0,10.0,-22.0,0
8.0,-191.0,-152.0,70.0,9.0,-18.0,0
11.0,-190.0,-153.0,67.0,8.0,-16.0,0
13.0,-191.0,-151.0,63.0,7.0,-12.0,0
7.0,-194.0,-141.0,62.0,5.0,-10.0,0
7.0,-192.0,-152.0,61.0,3.0,-10.0,0
7.0,-188.0,-151.0,62.0,2.0,-10.0,0
7.0,-188.0,-155.0,62.0,2.0,-10.0,0
5.0,-190.0,-155.0,62.0,2.0,-10.0,0
6.0,-186.0,-156.0,59.0,4.0,-11.0,0
11.0,-187.0,-150.0,54.0,4.0,-8.0,0
8.0,-191.0,-149.0,49.0,4.0,-7.0,0
6.0,-184.0,-152.0,43.0,4.0,-5.0,0
9.0,-189.0,-153.0,38.0,4.0,-4.0,0
10.0,-186.0,-145.0,32.0,3.0,-4.0,0
10.0,-190.0,-148.0,25.0,4.0,-5.0,0
8.0,-190.0,-149.0,20.0,5.0,-4.0,0
10.0,-190.0,-149.0,15.0,5.0,-4.0,0
6.0,-189.0,-148.0,13.0,7.0,-3.0,0
6.0,-188.0,-150.0,12.0,9.0,-2.0,0
6.0,-189.0,-147.0,8.0,11.0,-2.0,0
7.0,-192.0,-144.0,7.0,12.0,0.0,0
9.0,-192.0,-148.0,7.0,14.0,-1.0,0
9.0,-191.0,-146.0,7.0,14.0,-2.0,0
10.0,-193.0,-150.0,7.0,16.0,-1.0,0
7.0,-189.0,-145.0,5.0,17.0,-1.0,0
8.0,-190.0,-145.0,2.0,16.0,1.0,0
6.0,-190.0,-146.0,0.0,13.0,2.0,0
8.0,-191.0,-144.0,0.0,12.0,3.0,0
9.0,-192.0,-143.0,1.0,11.0,3.0,0
10.0,-195.0,-143.0,2.0,11.0,5.0,0
9.0,-192.0,-143.0,4.0,12.0,6.0,0
6.0,-192.0,-151.0,5.0,15.0,7.0,0
7.0,-195.0,-142.0,8.0,16.0,7.0,0
9.0,-195.0,-147.0,13.0,19.0,5.0,0
7.0,-196.0,-146.0,19.0,21.0,4.0,0
7.0,-191.0,-146.0,25.0,23.0,4.0,0
6.0,-193.0,-147.0,29.0,23.0,3.0,0
7.0,-195.0,-145.0,31.0,23.0,3.0,0
8.0,-193.0,-142.0,31.0,23.0,4.0,0
5.0,-193.0,-147.0,32.0,24.0,4.0,0
9.0,-196.0,-145.0,33.0,25.0,5.0,0
9.0,-195.0,-142.0,37.0,23.0,5.0,0
5.0,-192.0,-145.0,40.0,24.0,6.0,0
7.0,-197.0,-149.0,47.0,22.0,5.0,0
7.0,-196.0,-146.0,51.0,20.0,4.0,0
3.0,-192.0,-152.0,55.0,20.0,2.0,0
5.0,-194.0,-155.0,61.0,20.0,1.0,0
3.0,-195.0,-150.0,66.0,18.0,-2.0,0
6.0,-193.0,-148.0,70.0,18.0,-2.0,0
6.0,-195.0,-149.0,76.0,17.0,-4.0,0
9.0,-193.0,-149.0,79.0,18.0,-4.0,0
3.0,-194.0,-146.0,80.0,18.0,-5.0,0
7.0,-192.0,-145.0,78.0,14.0,-5.0,0
6.0,-193.0,-147.0,76.0,11.0,-7.0,0
5.0,-193.0,-148.0,73.0,6.0,-6.0,0
6.0,-193.0,-146.0,71.0,1.0,-6.0,0
7.0,-189.0,-150.0,71.0,-1.0,-5.0,0
3.0,-195.0,-154.0,71.0,-8.0,-5.0,0
5.0,-195.0,-150.0,70.0,-11.0,-8.0,0
4.0,-193.0,-151.0,71.0,-15.0,-10.0,0
4.0,-194.0,-153.0,70.0,-17.0,-14.0,0
6.0,-194.0,-149.0,72.0,-20.0,-18.0,0
4.0,-193.0,-149.0,74.0,-21.0,-21.0,0
6.0,-198.0,-150.0,75.0,-18.0,-24.0,0
6.0,-196.0,-151.0,76.0,-17.0,-26.0,0
5.0,-196.0,-151.0,73.0,-14.0,-29.0,0
4.0,-198.0,-156.0,73.0,-12.0,-30.0,0
3.0,-194.0,-158.0,74.0,-10.0,-32.0,0
12.0,-197.0,-158.0,77.0,-9.0,-33.0,0
8.0,-196.0,-156.0,81.0,-10.0,-32.0,0
7.0,-197.0,-156.0,86.0,-12.0,-33.0,0
8.0,-198.0,-154.0,87.0,-14.0,-33.0,0
8.0,-196.0,-157.0,89.0,-14.0,-31.0,0
7.0,-198.0,-153.0,90.0,-14.0,-32.0,0
10.0,-193.0,-156.0,91.0,-14.0,-30.0,0
6.0,-196.0,-154.0,94.0,-13.0,-28.0,0
8.0,-197.0,-158.0,97.0,-13.0,-29.0,0
8.0,-194.0,-159.0,99.0,-13.0,-28.0,0
4.0,-192.0,-156.0,102.0,-14.0,-25.0,0
7.0,-193.0,-155.0,103.0,-15.0,-22.0,0
5.0,-193.0,-156.0,102.0,-16.0,-20.0,0
7.0,-196.0,-151.0,100.0,-16.0,-19.0,0
7.0,-194.0,-158.0,100.0,-16.0,-17.0,0
0.0,-192.0,-156.0,102.0,-17.0,-16.0,0
4.0,-192.0,-153.0,104.0,-16.0,-7.0,0
8.0,-193.0,-157.0,107.0,-18.0,-4.0,0
7.0,-191.0,-158.0,102.0,-16.0,-12.0,0
6.0,-192.0,-159.0,96.0,-14.0,-17.0,0
3.0,-191.0,-156.0,90.0,-12.0,-20.0,0
6.0,-192.0,-155.0,86.0,-10.0,-23.0,0
5.0,-199.0,-155.0,84.0,-9.0,-20.0,0
6.0,-193.0,-154.0,85.0,-10.0,-20.0,0
7.0,-192.0,-154.0,88.0,-8.0,-19.0,0
8.0,-192.0,-156.0,92.0,-6.0,-18.0,0
8.0,-192.0,-155.0,91.0,-6.0,-18.0,0
8.0,-192.0,-157.0,90.0,-3.0,-17.0,0
8.0,-192.0,-157.0,86.0,-2.0,-16.0,0
5.0,-192.0,-164.0,82.0,3.0,-14.0,0
8.0,-194.0,-161.0,77.0,4.0,-11.0,0
9.0,-193.0,-156.0,74.0,5.0,-9.0,0
9.0,-192.0,-152.0,71.0,6.0,-6.0,0
7.0,-191.0,-156.0,67.0,5.0,-4.0,0
8.0,-192.0,-155.0,63.0,3.0,-2.0,0
8.0,-192.0,-160.0,62.0,5.0,-1.0,0
8.0,-193.0,-151.0,63.0,7.0,1.0,0
9.0,-196.0,-153.0,62.0,9.0,2.0,0
12.0,-195.0,-151.0,65.0,12.0,2.0,0
10.0,-191.0,-151.0,65.0,15.0,2.0,0
7.0,-192.0,-157.0,66.0,17.0,2.0,0
9.0,-192.0,-152.0,64.0,17.0,1.0,0
6.0,-192.0,-148.0,63.0,19.0,-1.0,0
3.0,-191.0,-151.0,60.0,17.0,-1.0,0
5.0,-197.0,-156.0,56.0,14.0,-3.0,0
8.0,-192.0,-154.0,50.0,11.0,-1.0,0
7.0,-192.0,-153.0,46.0,5.0,-3.0,0
5.0,-192.0,-152.0,40.0,-1.0,-3.0,0
6.0,-190.0,-154.0,35.0,-6.0,-6.0,0
5.0,-192.0,-151.0,28.0,-7.0,-9.0,0
5.0,-193.0,-154.0,19.0,-6.0,-10.0,0
10.0,-192.0,-154.0,4.0,-4.0,-10.0,0
4.0,-194.0,-146.0,-9.0,-2.0,-11.0,0
6.0,-197.0,-150.0,-16.0,0.0,-10.0,0
6.0,-195.0,-154.0,-19.0,0.0,-9.0,0
2.0,-207.0,-152.0,-21.0,-2.0,-9.0,0
11.0,-203.0,-148.0,-18.0,-7.0,-2.0,0
3.0,-203.0,-146.0,-19.0,-12.0,-4.0,0
25.0,-212.0,-145.0,-11.0,-11.0,27.0,0
11.0,-211.0,-153.0,-5.0,-31.0,8.0,0
2.0,-209.0,-150.0,-7.0,-33.0,-11.0,0
7.0,-214.0,-153.0,-8.0,-46.0,-11.0,0
-3.0,-214.0,-147.0,-12.0,-67.0,-4.0,0
6.0,-220.0,-148.0,0.0,-83.0,12.0,0
8.0,-219.0,-154.0,9.0,-106.0,7.0,0
3.0,-221.0,-153.0,13.0,-107.0,-3.0,0
-1.0,-221.0,-150.0,18.0,-109.0,-13.0,0
-1.0,-222.0,-145.0,36.0,-112.0,-7.0,0
3.0,-230.0,-149.0,57.0,-124.0,-5.0,0
-5.0,-231.0,-155.0,70.0,-136.0,-9.0,0
4.0,-234.0,-158.0,87.0,-138.0,-3.0,0
9.0,-239.0,-163.0,104.0,-145.0,-11.0,0
1.0,-233.0,-168.0,110.0,-148.0,-33.0,0
0.0,-231.0,-168.0,117.0,-133.0,-36.0,0
0.0,-234.0,-174.0,129.0,-119.0,-27.0,0
16.0,-238.0,-177.0,138.0,-111.0,-19.0,0
9.0,-241.0,-189.0,127.0,-107.0,-30.0,0
20.0,-237.0,-194.0,102.0,-97.0,-42.0,0
9.0,-242.0,-183.0,75.0,-89.0,-55.0,0
9.0,-241.0,-185.0,57.0,-86.0,-53.0,0
10.0,-243.0,-180.0,46.0,-92.0,-49.0,0
9.0,-248.0,-181.0,32.0,-95.0,-46.0,0
4.0,-247.0,-175.0,26.0,-100.0,-45.0,0
1.0,-246.0,-169.0,27.0,-108.0,-43.0,0
-1.0,-251.0,-168.0,36.0,-117.0,-41.0,0
0.0,-251.0,-163.0,56.0,-121.0,-39.0,0
-1.0,-257.0,-167.0,83.0,-121.0,-41.0,0
-1.0,-255.0,-168.0,121.0,-114.0,-45.0,0
0.0,-255.0,-169.0,160.0,-109.0,-52.0,0
0.0,-255.0,-172.0,200.0,-100.0,-59.0,0
1.0,-255.0,-169.0,234.0,-92.0,-65.0,0
1.0,-252.0,-164.0,278.0,-83.0,-75.0,0
0.0,-247.0,-170.0,328.0,-76.0,-81.0,0
1.0,-249.0,-170.0,378.0,-70.0,-88.0,0
2.0,-247.0,-171.0,433.0,-64.0,-93.0,0
2.0,-244.0,-169.0,488.0,-53.0,-93.0,0
4.0,-241.0,-172.0,537.0,-36.0,-95.0,0
4.0,-238.0,-162.0,587.0,-22.0,-94.0,0
9.0,-237.0,-163.0,644.0,-17.0,-96.0,0
6.0,-239.0,-164.0,696.0,-18.0,-94.0,0
7.0,-238.0,-163.0,743.0,-16.0,-88.0,0
6.0,-235.0,-162.0,792.0,-11.0,-79.0,0
10.0,-233.0,-161.0,842.0,3.0,-70.0,0
11.0,-229.0,-159.0,891.0,16.0,-56.0,0
13.0,-230.0,-165.0,932.0,27.0,-44.0,0
8.0,-224.0,-168.0,953.0,38.0,-36.0,0
11.0,-222.0,-161.0,954.0,46.0,-27.0,0
10.0,-225.0,-165.0,944.0,49.0,-17.0,0
19.0,-224.0,-155.0,926.0,42.0,-10.0,0
9.0,-227.0,-159.0,894.0,25.0,-2.0,0
14.0,-230.0,-154.0,864.0,-3.0,4.0,0
14.0,-235.0,-152.0,841.0,-23.0,20.0,0
10.0,-237.0,-154.0,819.0,-42.0,28.0,0
10.0,-240.0,-151.0,801.0,-52.0,35.0,0
10.0,-237.0,-150.0,788.0,-57.0,45.0,0
5.0,-240.0,-143.0,784.0,-58.0,48.0,0
4.0,-239.0,-142.0,785.0,-56.0,50.0,0
1.0,-241.0,-150.0,778.0,-54.0,41.0,0
7.0,-242.0,-143.0,764.0,-50.0,33.0,0
3.0,-238.0,-139.0,746.0,-47.0,17.0,0
8.0,-234.0,-131.0,727.0,-44.0,2.0,0
6.0,-236.0,-129.0,709.0,-46.0,-14.0,0
5.0,-229.0,-132.0,683.0,-51.0,-34.0,0
6.0,-232.0,-128.0,654.0,-50.0,-40.0,0
8.0,-235.0,-129.0,620.0,-51.0,-53.0,0
9.0,-234.0,-129.0,583.0,-51.0,-65.0,0
11.0,-236.0,-127.0,556.0,-52.0,-73.0,0
10.0,-238.0,-123.0,528.0,-55.0,-75.0,0
13.0,-242.0,-124.0,498.0,-61.0,-87.0,0
14.0,-238.0,-126.0,473.0,-61.0,-93.0,0
7.0,-232.0,-129.0,453.0,-60.0,-93.0,0
13.0,-244.0,-128.0,429.0,-64.0,-99.0,0
9.0,-242.0,-127.0,408.0,-66.0,-98.0,0
14.0,-245.0,-127.0,390.0,-60.0,-87.0,0
5.0,-242.0,-126.0,370.0,-63.0,-90.0,0
7.0,-244.0,-125.0,352.0,-63.0,-98.0,0
14.0,-245.0,-127.0,336.0,-62.0,-98.0,0
3.0,-240.0,-125.0,313.0,-65.0,-95.0,0
10.0,-243.0,-124.0,293.0,-57.0,-97.0,0
14.0,-246.0,-127.0,273.0,-49.0,-93.0,0
9.0,-241.0,-122.0,251.0,-38.0,-95.0,0
14.0,-241.0,-125.0,230.0,-27.0,-98.0,0
12.0,-239.0,-121.0,201.0,-27.0,-94.0,0
16.0,-237.0,-122.0,186.0,-25.0,-82.0,0
15.0,-234.0,-118.0,160.0,-23.0,-68.0,0
7.0,-227.0,-120.0,114.0,-28.0,-73.0,0
4.0,-229.0,-113.0,71.0,-28.0,-74.0,0
7.0,-223.0,-113.0,28.0,-30.0,-62.0,0
4.0,-222.0,-114.0,-15.0,-39.0,-48.0,0
4.0,-220.0,-110.0,-57.0,-39.0,-41.0,0
2.0,-219.0,-106.0,-104.0,-42.0,-37.0,0
6.0,-218.0,-104.0,-152.0,-46.0,-32.0,0
10.0,-215.0,-120.0,-199.0,-46.0,-17.0,0
6.0,-219.0,-106.0,-255.0,-49.0,-19.0,0
8.0,-218.0,-112.0,-315.0,-55.0,-33.0,0
12.0,-214.0,-115.0,-374.0,-51.0,-45.0,0
10.0,-217.0,-119.0,-428.0,-42.0,-47.0,0
10.0,-214.0,-121.0,-488.0,-30.0,-65.0,0
8.0,-212.0,-122.0,-543.0,-21.0,-79.0,0
3.0,-210.0,-126.0,-589.0,-22.0,-82.0,0
7.0,-216.0,-124.0,-624.0,-23.0,-75.0,0
2.0,-213.0,-127.0,-658.0,-32.0,-82.0,0
2.0,-215.0,-125.0,-678.0,-53.0,-88.0,0
4.0,-218.0,-127.0,-689.0,-69.0,-80.0,0
3.0,-213.0,-128.0,-707.0,-90.0,-95.0,0
2.0,-212.0,-126.0,-716.0,-111.0,-102.0,0
1.0,-215.0,-127.0,-721.0,-126.0,-99.0,0
2.0,-213.0,-128.0,-732.0,-139.0,-103.0,0
2.0,-214.0,-128.0,-736.0,-156.0,-87.0,0
1.0,-217.0,-127.0,-742.0,-167.0,-82.0,0
6.0,-214.0,-124.0,-756.0,-178.0,-80.0,0
10.0,-219.0,-125.0,-756.0,-183.0,-68.0,0
11.0,-216.0,-126.0,-751.0,-174.0,-92.0,0
7.0,-212.0,-127.0,-755.0,-166.0,-125.0,0
1.0,-220.0,-132.0,-748.0,-150.0,-127.0,0
3.0,-212.0,-128.0,-752.0,-131.0,-134.0,0
3.0,-211.0,-129.0,-760.0,-111.0,-144.0,0
2.0,-213.0,-128.0,-772.0,-92.0,-153.0,0
2.0,-213.0,-130.0,-785.0,-70.0,-167.0,0
1.0,-213.0,-132.0,-788.0,-43.0,-164.0,0
6.0,-216.0,-132.0,-794.0,-10.0,-170.0,0
3.0,-214.0,-130.0,-798.0,19.0,-185.0,0
4.0,-221.0,-132.0,-794.0,47.0,-201.0,0
2.0,-220.0,-127.0,-783.0,72.0,-225.0,0
4.0,-225.0,-125.0,-765.0,92.0,-242.0,0
-5.0,-226.0,-129.0,-743.0,106.0,-255.0,0
1.0,-231.0,-128.0,-706.0,116.0,-270.0,0
0.0,-236.0,-127.0,-671.0,123.0,-292.0,0
0.0,-239.0,-129.0,-623.0,126.0,-311.0,0
-2.0,-243.0,-129.0,-573.0,126.0,-324.0,0
-2.0,-242.0,-125.0,-509.0,122.0,-344.0,0
-1.0,-242.0,-127.0,-437.0,120.0,-357.0,0
-2.0,-241.0,-131.0,-356.0,118.0,-393.0,0
1.0,-240.0,-125.0,-285.0,118.0,-413.0,0
0.0,-240.0,-127.0,-208.0,123.0,-417.0,0
-2.0,-234.0,-125.0,-132.0,133.0,-422.0,0
-3.0,-226.0,-128.0,-62.0,145.0,-430.0,0
-1.0,-226.0,-129.0,4.0,157.0,-444.0,0
0.0,-224.0,-138.0,62.0,175.0,-439.0,0
-1.0,-220.0,-134.0,120.0,197.0,-440.0,0
0.0,-219.0,-133.0,170.0,217.0,-439.0,0
2.0,-217.0,-130.0,223.0,231.0,-435.0,0
2.0,-208.0,-132.0,280.0,240.0,-424.0,0
3.0,-204.0,-130.0,335.0,246.0,-407.0,0
4.0,-201.0,-128.0,386.0,251.0,-390.0,0
7.0,-197.0,-129.0,436.0,254.0,-379.0,0
9.0,-191.0,-133.0,477.0,257.0,-361.0,0
10.0,-187.0,-133.0,514.0,263.0,-347.0,0
16.0,-185.0,-130.0,545.0,271.0,-342.0,0
17.0,-184.0,-129.0,571.0,281.0,-335.0,0
19.0,-179.0,-128.0,593.0,290.0,-330.0,0
24.0,-174.0,-128.0,615.0,299.0,-326.0,0
23.0,-169.0,-125.0,638.0,308.0,-323.0,0
27.0,-171.0,-125.0,661.0,317.0,-318.0,0
33.0,-165.0,-127.0,680.0,330.0,-313.0,0
31.0,-160.0,-125.0,696.0,345.0,-309.0,0
36.0,-161.0,-121.0,704.0,362.0,-305.0,0
39.0,-156.0,-121.0,704.0,377.0,-306.0,0
39.0,-155.0,-115.0,694.0,390.0,-307.0,0
39.0,-158.0,-120.0,677.0,396.0,-312.0,0
40.0,-156.0,-119.0,660.0,398.0,-319.0,0
39.0,-160.0,-113.0,640.0,391.0,-329.0,0
40.0,-160.0,-111.0,632.0,377.0,-341.0,0
37.0,-161.0,-111.0,629.0,356.0,-350.0,0
33.0,-165.0,-110.0,629.0,328.0,-364.0,0
32.0,-165.0,-102.0,637.0,294.0,-376.0,0
30.0,-165.0,-105.0,652.0,255.0,-385.0,0
27.0,-166.0,-110.0,670.0,212.0,-397.0,0
29.0,-162.0,-112.0,690.0,167.0,-406.0,0
28.0,-165.0,-109.0,711.0,122.0,-415.0,0
23.0,-159.0,-108.0,730.0,70.0,-426.0,0
21.0,-161.0,-112.0,747.0,27.0,-435.0,0
17.0,-159.0,-112.0,760.0,-17.0,-438.0,0
12.0,-156.0,-108.0,771.0,-59.0,-439.0,0
10.0,-152.0,-107.0,789.0,-104.0,-438.0,0
9.0,-151.0,-106.0,809.0,-152.0,-433.0,0
6.0,-144.0,-112.0,836.0,-200.0,-426.0,0
5.0,-145.0,-105.0,866.0,-251.0,-418.0,0
7.0,-143.0,-109.0,895.0,-299.0,-409.0,0
12.0,-136.0,-114.0,921.0,-345.0,-397.0,0
3.0,-133.0,-111.0,937.0,-389.0,-383.0,0
1.0,-129.0,-110.0,947.0,-431.0,-367.0,0
1.0,-128.0,-111.0,951.0,-471.0,-347.0,0
0.0,-127.0,-119.0,945.0,-507.0,-326.0,0
1.0,-125.0,-116.0,933.0,-536.0,-309.0,0
5.0,-126.0,-124.0,911.0,-559.0,-292.0,0
5.0,-127.0,-117.0,884.0,-578.0,-276.0,0
5.0,-123.0,-116.0,851.0,-593.0,-261.0,0
10.0,-129.0,-121.0,815.0,-609.0,-247.0,0
11.0,-130.0,-120.0,776.0,-626.0,-235.0,0
17.0,-133.0,-116.0,736.0,-643.0,-224.0,0
19.0,-132.0,-120.0,697.0,-661.0,-212.0,0
22.0,-137.0,-120.0,661.0,-679.0,-203.0,0
28.0,-145.0,-120.0,626.0,-701.0,-196.0,0
29.0,-147.0,-122.0,588.0,-730.0,-190.0,0
34.0,-158.0,-124.0,553.0,-762.0,-185.0,0
32.0,-162.0,-123.0,515.0,-800.0,-185.0,0
31.0,-170.0,-125.0,481.0,-843.0,-188.0,0
37.0,-183.0,-125.0,451.0,-891.0,-196.0,0
39.0,-188.0,-126.0,424.0,-941.0,-203.0,0
36.0,-194.0,-130.0,405.0,-992.0,-213.0,0
33.0,-204.0,-133.0,390.0,-1042.0,-220.0,0
39.0,-210.0,-135.0,384.0,-1090.0,-228.0,0
45.0,-221.0,-134.0,389.0,-1133.0,-229.0,0
45.0,-229.0,-136.0,401.0,-1166.0,-223.0,0
48.0,-234.0,-133.0,424.0,-1196.0,-237.0,0
46.0,-236.0,-134.0,459.0,-1216.0,-245.0,0
47.0,-238.0,-129.0,510.0,-1225.0,-243.0,0
48.0,-239.0,-127.0,577.0,-1225.0,-239.0,0
45.0,-228.0,-127.0,648.0,-1217.0,-232.0,0
48.0,-234.0,-126.0,712.0,-1204.0,-234.0,0
50.0,-227.0,-130.0,767.0,-1181.0,-235.0,0
54.0,-232.0,-132.0,804.0,-1156.0,-236.0,0
49.0,-218.0,-127.0,821.0,-1128.0,-239.0,0
52.0,-216.0,-127.0,820.0,-1098.0,-245.0,0
50.0,-216.0,-129.0,803.0,-1065.0,-254.0,0
53.0,-218.0,-128.0,772.0,-1029.0,-264.0,0
54.0,-214.0,-123.0,736.0,-996.0,-279.0,0
49.0,-217.0,-121.0,702.0,-968.0,-293.0,0
52.0,-220.0,-115.0,672.0,-947.0,-309.0,0
48.0,-220.0,-115.0,649.0,-933.0,-325.0,0
43.0,-219.0,-111.0,635.0,-925.0,-341.0,0
43.0,-218.0,-113.0,628.0,-923.0,-352.0,0
36.0,-217.0,-105.0,627.0,-924.0,-360.0,0
37.0,-218.0,-108.0,633.0,-928.0,-367.0,0
32.0,-217.0,-102.0,641.0,-933.0,-374.0,0
30.0,-217.0,-107.0,650.0,-939.0,-379.0,0
26.0,-218.0,-105.0,659.0,-948.0,-379.0,0
21.0,-214.0,-102.0,666.0,-962.0,-379.0,0
15.0,-211.0,-103.0,671.0,-978.0,-379.0,0
13.0,-212.0,-104.0,673.0,-997.0,-378.0,0
10.0,-212.0,-104.0,673.0,-1020.0,-374.0,0
2.0,-212.0,-101.0,671.0,-1052.0,-370.0,0
1.0,-216.0,-103.0,665.0,-1080.0,-366.0,0
-1.0,-214.0,-103.0,657.0,-1112.0,-360.0,0
-5.0,-217.0,-105.0,646.0,-1141.0,-359.0,0
-6.0,-222.0,-103.0,639.0,-1170.0,-355.0,0
-11.0,-225.0,-103.0,631.0,-1194.0,-353.0,0
-12.0,-222.0,-101.0,627.0,-1212.0,-353.0,0
-14.0,-225.0,-105.0,622.0,-1226.0,-353.0,0
-17.0,-226.0,-106.0,619.0,-1234.0,-355.0,0
-19.0,-230.0,-105.0,614.0,-1236.0,-355.0,0
-19.0,-230.0,-106.0,611.0,-1233.0,-349.0,0
-17.0,-237.0,-105.0,607.0,-1228.0,-343.0,0
-14.0,-229.0,-98.0,605.0,-1225.0,-337.0,0
-17.0,-236.0,-103.0,605.0,-1221.0,-327.0,0
-18.0,-237.0,-101.0,602.0,-1218.0,-319.0,0
-19.0,-241.0,-95.0,601.0,-1216.0,-311.0,0
-17.0,-243.0,-96.0,598.0,-1216.0,-304.0,0
-15.0,-244.0,-92.0,598.0,-1218.0,-295.0,0
-15.0,-242.0,-90.0,597.0,-1221.0,-285.0,0
-12.0,-247.0,-87.0,597.0,-1227.0,-273.0,0
-10.0,-245.0,-89.0,596.0,-1236.0,-262.0,0
-7.0,-246.0,-88.0,597.0,-1247.0,-250.0,0
-13.0,-241.0,-86.0,597.0,-1257.0,-240.0,0
-4.0,-236.0,-88.0,599.0,-1265.0,-226.0,0
-4.0,-241.0,-82.0,602.0,-1270.0,-213.0,0
-1.0,-238.0,-78.0,606.0,-1274.0,-204.0,0
-2.0,-236.0,-75.0,612.0,-1274.0,-197.0,0
-2.0,-239.0,-77.0,618.0,-1272.0,-198.0,0
1.0,-232.0,-75.0,622.0,-1268.0,-200.0,0
4.0,-230.0,-69.0,630.0,-1260.0,-209.0,0
5.0,-229.0,-67.0,637.0,-1255.0,-219.0,0
7.0,-225.0,-65.0,641.0,-1250.0,-234.0,0
10.0,-218.0,-68.0,644.0,-1246.0,-250.0,0
10.0,-218.0,-69.0,642.0,-1240.0,-269.0,0
14.0,-218.0,-71.0,635.0,-1232.0,-288.0,0
17.0,-216.0,-72.0,624.0,-1222.0,-306.0,0
19.0,-216.0,-75.0,609.0,-1209.0,-322.0,0
19.0,-214.0,-69.0,591.0,-1189.0,-334.0,0
25.0,-213.0,-77.0,570.0,-1165.0,-344.0,0
20.0,-212.0,-73.0,551.0,-1139.0,-352.0,0
26.0,-216.0,-73.0,533.0,-1111.0,-356.0,0
23.0,-213.0,-72.0,518.0,-1084.0,-356.0,0
26.0,-223.0,-71.0,508.0,-1055.0,-353.0,0
25.0,-219.0,-77.0,504.0,-1024.0,-347.0,0
27.0,-222.0,-76.0,503.0,-995.0,-340.0,0
23.0,-226.0,-72.0,506.0,-969.0,-331.0,0
27.0,-230.0,-69.0,514.0,-946.0,-320.0,0
27.0,-232.0,-68.0,524.0,-924.0,-307.0,0
28.0,-237.0,-69.0,534.0,-902.0,-292.0,0
29.0,-238.0,-65.0,546.0,-887.0,-279.0,0
30.0,-239.0,-66.0,557.0,-867.0,-269.0,0
28.0,-240.0,-61.0,568.0,-847.0,-260.0,0
28.0,-244.0,-57.0,575.0,-830.0,-253.0,0
26.0,-245.0,-58.0,580.0,-822.0,-240.0,0
27.0,-248.0,-56.0,582.0,-821.0,-232.0,0
20.0,-245.0,-54.0,586.0,-824.0,-227.0,0
20.0,-250.0,-54.0,597.0,-838.0,-229.0,0
36.0,-251.0,-53.0,611.0,-849.0,-234.0,0
40.0,-247.0,-54.0,616.0,-827.0,-222.0,0
38.0,-246.0,-47.0,613.0,-791.0,-195.0,0
37.0,-247.0,-52.0,609.0,-754.0,-179.0,0
33.0,-245.0,-51.0,604.0,-723.0,-167.0,0
35.0,-240.0,-51.0,592.0,-695.0,-157.0,0
36.0,-245.0,-46.0,578.0,-678.0,-147.0,0
28.0,-237.0,-47.0,564.0,-664.0,-139.0,0
34.0,-242.0,-46.0,555.0,-648.0,-135.0,0
28.0,-234.0,-49.0,549.0,-635.0,-127.0,0
35.0,-236.0,-46.0,544.0,-621.0,-120.0,0
35.0,-237.0,-45.0,541.0,-605.0,-114.0,0
36.0,-237.0,-44.0,537.0,-585.0,-109.0,0
38.0,-234.0,-43.0,532.0,-565.0,-102.0,0
38.0,-234.0,-43.0,523.0,-545.0,-96.0,0
40.0,-233.0,-40.0,512.0,-523.0,-90.0,0
41.0,-232.0,-40.0,499.0,-495.0,-85.0,0
41.0,-234.0,-40.0,481.0,-469.0,-78.0,0
41.0,-235.0,-44.0,462.0,-441.0,-72.0,0
42.0,-237.0,-39.0,439.0,-411.0,-68.0,0
39.0,-235.0,-45.0,416.0,-379.0,-61.0,0
38.0,-238.0,-44.0,394.0,-348.0,-55.0,0
38.0,-236.0,-42.0,375.0,-318.0,-53.0,0
42.0,-240.0,-43.0,361.0,-290.0,-46.0,0
42.0,-243.0,-43.0,351.0,-266.0,-42.0,0
38.0,-241.0,-43.0,349.0,-240.0,-38.0,0
40.0,-246.0,-38.0,354.0,-217.0,-36.0,0
41.0,-247.0,-42.0,362.0,-197.0,-36.0,0
34.0,-248.0,-41.0,372.0,-178.0,-36.0,0
40.0,-250.0,-40.0,385.0,-160.0,-37.0,0
42.0,-249.0,-39.0,397.0,-144.0,-37.0,0
36.0,-248.0,-34.0,409.0,-127.0,-34.0,0
40.0,-249.0,-34.0,419.0,-108.0,-35.0,0
38.0,-248.0,-36.0,427.0,-89.0,-33.0,0
37.0,-246.0,-33.0,433.0,-68.0,-30.0,0
39.0,-246.0,-32.0,435.0,-50.0,-27.0,0
40.0,-246.0,-32.0,433.0,-33.0,-24.0,0
36.0,-244.0,-29.0,430.0,-22.0,-19.0,0
34.0,-241.0,-32.0,422.0,-10.0,-13.0,0
38.0,-241.0,-31.0,412.0,3.0,-5.0,0
35.0,-242.0,-33.0,400.0,16.0,1.0,0
32.0,-239.0,-22.0,387.0,27.0,7.0,0
31.0,-239.0,-23.0,374.0,33.0,9.0,0
33.0,-241.0,-20.0,359.0,40.0,14.0,0
27.0,-240.0,-25.0,347.0,47.0,20.0,0
27.0,-241.0,-24.0,334.0,55.0,28.0,0
25.0,-239.0,-23.0,319.0,61.0,32.0,0
24.0,-241.0,-16.0,306.0,65.0,33.0,0
21.0,-242.0,-22.0,292.0,66.0,36.0,0
21.0,-243.0,-19.0,280.0,68.0,41.0,0
26.0,-244.0,-21.0,269.0,69.0,44.0,0
26.0,-248.0,-19.0,266.0,69.0,44.0,0
25.0,-238.0,-25.0,268.0,73.0,42.0,0
21.0,-243.0,-19.0,275.0,72.0,36.0,0
22.0,-244.0,-19.0,290.0,74.0,34.0,0
23.0,-241.0,-21.0,306.0,73.0,26.0,0
24.0,-244.0,-19.0,319.0,70.0,17.0,0
24.0,-241.0,-25.0,329.0,66.0,10.0,0
25.0,-244.0,-27.0,334.0,63.0,4.0,0
24.0,-238.0,-23.0,332.0,61.0,-5.0,0
23.0,-240.0,-28.0,321.0,60.0,-10.0,0
20.0,-240.0,-26.0,305.0,58.0,-15.0,0
17.0,-243.0,-24.0,284.0,60.0,-21.0,0
20.0,-244.0,-27.0,261.0,66.0,-25.0,0
21.0,-245.0,-24.0,237.0,70.0,-26.0,0
22.0,-250.0,-24.0,217.0,74.0,-27.0,0
22.0,-251.0,-25.0,204.0,81.0,-27.0,0
16.0,-253.0,-22.0,199.0,87.0,-27.0,0
18.0,-256.0,-20.0,201.0,94.0,-27.0,0
16.0,-254.0,-17.0,208.0,101.0,-28.0,0
13.0,-251.0,-18.0,219.0,104.0,-29.0,0
13.0,-255.0,-15.0,232.0,108.0,-32.0,0
15.0,-250.0,-15.0,248.0,110.0,-34.0,0
16.0,-255.0,-12.0,264.0,112.0,-39.0,0
8.0,-256.0,-15.0,279.0,111.0,-45.0,0
18.0,-255.0,-14.0,291.0,110.0,-50.0,0
17.0,-253.0,-15.0,302.0,105.0,-55.0,0
19.0,-249.0,-18.0,306.0,98.0,-61.0,0
16.0,-246.0,-21.0,307.0,90.0,-74.0,0
16.0,-245.0,-29.0,299.0,85.0,-79.0,0
10.0,-242.0,-28.0,286.0,79.0,-80.0,0
12.0,-242.0,-29.0,262.0,71.0,-78.0,0
7.0,-239.0,-29.0,238.0,59.0,-73.0,0
13.0,-242.0,-25.0,214.0,46.0,-70.0,0
14.0,-243.0,-22.0,196.0,35.0,-62.0,0
12.0,-241.0,-26.0,182.0,22.0,-53.0,0
9.0,-238.0,-18.0,173.0,13.0,-47.0,0
11.0,-238.0,-21.0,167.0,4.0,-40.0,0
12.0,-242.0,-16.0,162.0,-5.0,-31.0,0
11.0,-240.0,-14.0,159.0,-14.0,-26.0,0
7.0,-238.0,-11.0,155.0,-24.0,-22.0,0
12.0,-239.0,-14.0,148.0,-33.0,-18.0,0
8.0,-239.0,-13.0,141.0,-41.0,-14.0,0
12.0,-239.0,-13.0,132.0,-47.0,-14.0,0
10.0,-243.0,-12.0,122.0,-54.0,-15.0,0
16.0,-242.0,-12.0,110.0,-60.0,-16.0,0
10.0,-238.0,-11.0,95.0,-67.0,-19.0,0
11.0,-246.0,-10.0,85.0,-70.0,-22.0,0
12.0,-244.0,-13.0,77.0,-73.0,-24.0,0
14.0,-245.0,-11.0,73.0,-72.0,-26.0,0
13.0,-245.0,-14.0,75.0,-69.0,-29.0,0
17.0,-247.0,-11.0,81.0,-69.0,-32.0,0
17.0,-249.0,-10.0,90.0,-69.0,-33.0,0
12.0,-247.0,-18.0,101.0,-68.0,-36.0,0
17.0,-248.0,-11.0,108.0,-69.0,-38.0,0
17.0,-251.0,-5.0,118.0,-70.0,-41.0,0
17.0,-250.0,-24.0,124.0,-72.0,-43.0,0
18.0,-248.0,-14.0,125.0,-77.0,-45.0,0
20.0,-249.0,-14.0,123.0,-82.0,-43.0,0
19.0,-247.0,-16.0,120.0,-88.0,-41.0,0
23.0,-249.0,-16.0,115.0,-93.0,-39.0,0
27.0,-250.0,-14.0,111.0,-97.0,-36.0,0
26.0,-248.0,-13.0,107.0,-99.0,-32.0,0
28.0,-251.0,-15.0,104.0,-99.0,-30.0,0
31.0,-251.0,-11.0,103.0,-101.0,-27.0,0
31.0,-249.0,-15.0,105.0,-99.0,-25.0,0
29.0,-249.0,-17.0,109.0,-97.0,-23.0,0
29.0,-251.0,-18.0,113.0,-92.0,-19.0,0
27.0,-248.0,-17.0,119.0,-86.0,-18.0,0
31.0,-252.0,-13.0,127.0,-78.0,-18.0,0
29.0,-254.0,-12.0,137.0,-71.0,-17.0,0
32.0,-252.0,-11.0,144.0,-64.0,-17.0,0
32.0,-252.0,-14.0,153.0,-58.0,-21.0,0
27.0,-250.0,-13.0,161.0,-50.0,-23.0,0
26.0,-252.0,-10.0,166.0,-42.0,-18.0,0
30.0,-255.0,-10.0,170.0,-36.0,-17.0,0
29.0,-250.0,-7.0,173.0,-26.0,-19.0,0
27.0,-242.0,-18.0,175.0,-21.0,-16.0,0
28.0,-250.0,-8.0,177.0,-14.0,-16.0,0
28.0,-247.0,-7.0,178.0,-9.0,-16.0,0
28.0,-247.0,-12.0,176.0,-4.0,-18.0,0
26.0,-244.0,-10.0,175.0,-2.0,-18.0,0
30.0,-245.0,-8.0,170.0,2.0,-16.0,0
30.0,-246.0,-6.0,166.0,4.0,-17.0,0
25.0,-242.0,-10.0,161.0,6.0,-19.0,0
28.0,-241.0,-8.0,154.0,7.0,-20.0,0
24.0,-239.0,-13.0,147.0,8.0,-22.0,0
29.0,-246.0,-4.0,139.0,7.0,-22.0,0
23.0,-248.0,-12.0,132.0,5.0,-24.0,0
24.0,-247.0,-10.0,125.0,4.0,-26.0,0
21.0,-247.0,-9.0,121.0,1.0,-25.0,0
23.0,-246.0,-12.0,120.0,-3.0,-27.0,0
23.0,-248.0,-10.0,119.0,-2.0,-27.0,0
20.0,-245.0,-10.0,122.0,-4.0,-29.0,0
20.0,-247.0,-7.0,126.0,-5.0,-30.0,0
21.0,-250.0,-5.0,131.0,-8.0,-33.0,0
24.0,-250.0,-7.0,136.0,-13.0,-37.0,0
21.0,-246.0,-11.0,141.0,-18.0,-36.0,0
21.0,-245.0,-8.0,144.0,-24.0,-36.0,0
26.0,-248.0,-5.0,146.0,-28.0,-38.0,0
18.0,-246.0,-9.0,145.0,-36.0,-39.0,0
18.0,-250.0,-6.0,145.0,-41.0,-40.0,0
21.0,-248.0,-7.0,145.0,-47.0,-42.0,0
20.0,-250.0,-3.0,146.0,-52.0,-45.0,0
19.0,-248.0,-3.0,146.0,-59.0,-45.0,0
20.0,-249.0,-9.0,147.0,-67.0,-46.0,0
20.0,-248.0,-8.0,149.0,-76.0,-50.0,0
18.0,-250.0,-1.0,151.0,-83.0,-51.0,0
16.0,-245.0,-10.0,153.0,-91.0,-52.0,0
19.0,-250.0,-7.0,155.0,-96.0,-52.0,0
24.0,-249.0,-2.0,156.0,-101.0,-54.0,0
21.0,-246.0,-5.0,157.0,-105.0,-55.0,0
21.0,-248.0,-4.0,157.0,-109.0,-56.0,0
21.0,-248.0,-4.0,158.0,-113.0,-57.0,0
22.0,-251.0,-5.0,159.0,-115.0,-57.0,0
22.0,-249.0,-6.0,160.0,-119.0,-56.0,0
27.0,-246.0,-3.0,163.0,-124.0,-56.0,0
15.0,-245.0,-7.0,167.0,-132.0,-70.0,0
16.0,-248.0,-2.0,171.0,-134.0,-67.0,0
20.0,-248.0,-3.0,172.0,-140.0,-55.0,0
17.0,-245.0,-3.0,172.0,-148.0,-50.0,0
19.0,-244.0,-4.0,172.0,-155.0,-46.0,0
18.0,-244.0,-2.0,172.0,-163.0,-43.0,0
19.0,-244.0,-4.0,169.0,-169.0,-41.0,0
19.0,-243.0,-3.0,166.0,-176.0,-41.0,0
20.0,-244.0,-2.0,158.0,-183.0,-40.0,0
21.0,-243.0,-3.0,148.0,-190.0,-39.0,0
18.0,-240.0,-5.0,138.0,-193.0,-40.0,0
22.0,-244.0,-5.0,127.0,-197.0,-40.0,0
23.0,-247.0,-3.0,117.0,-199.0,-39.0,0
22.0,-244.0,-9.0,107.0,-201.0,-42.0,0
21.0,-249.0,-5.0,99.0,-200.0,-42.0,0
23.0,-245.0,-1.0,93.0,-198.0,-45.0,0
25.0,-246.0,-6.0,90.0,-196.0,-43.0,0
25.0,-244.0,-5.0,87.0,-197.0,-44.0,0
29.0,-248.0,-1.0,87.0,-194.0,-45.0,0
29.0,-252.0,-1.0,88.0,-193.0,-44.0,0
29.0,-248.0,-7.0,89.0,-191.0,-44.0,0
32.0,-251.0,-4.0,91.0,-191.0,-42.0,0
30.0,-248.0,-6.0,90.0,-189.0,-39.0,0
34.0,-251.0,0.0,91.0,-186.0,-39.0,0
30.0,-256.0,-3.0,91.0,-185.0,-37.0,0
33.0,-247.0,-2.0,91.0,-181.0,-36.0,0
35.0,-249.0,0.0,93.0,-180.0,-34.0,0
35.0,-251.0,-1.0,93.0,-176.0,-34.0,0
33.0,-251.0,-2.0,94.0,-172.0,-33.0,0
34.0,-249.0,2.0,94.0,-167.0,-30.0,0
34.0,-253.0,0.0,96.0,-160.0,-30.0,0
37.0,-248.0,1.0,94.0,-152.0,-29.0,0
36.0,-250.0,-1.0,97.0,-146.0,-27.0,0
39.0,-250.0,-1.0,98.0,-140.0,-27.0,0
36.0,-250.0,-1.0,100.0,-130.0,-27.0,0
37.0,-241.0,-2.0,101.0,-123.0,-28.0,0
33.0,-250.0,-1.0,103.0,-116.0,-29.0,0
32.0,-251.0,-2.0,103.0,-107.0,-29.0,0
33.0,-246.0,-3.0,104.0,-98.0,-28.0,0
34.0,-249.0,-2.0,102.0,-88.0,-29.0,0
30.0,-245.0,-5.0,102.0,-80.0,-29.0,0
29.0,-245.0,-5.0,103.0,-73.0,-32.0,0
33.0,-245.0,-2.0,102.0,-65.0,-33.0,0
28.0,-248.0,0.0,102.0,-58.0,-34.0,0
27.0,-245.0,-4.0,103.0,-56.0,-33.0,0
31.0,-248.0,-3.0,104.0,-51.0,-36.0,0
24.0,-246.0,-3.0,104.0,-50.0,-37.0,0
30.0,-245.0,-1.0,107.0,-50.0,-36.0,0
27.0,-248.0,0.0,107.0,-50.0,-36.0,0
28.0,-244.0,0.0,107.0,-51.0,-38.0,0
30.0,-245.0,1.0,104.0,-53.0,-36.0,0
26.0,-242.0,0.0,101.0,-54.0,-37.0,0
28.0,-246.0,-1.0,97.0,-53.0,-37.0,0
27.0,-246.0,-1.0,92.0,-53.0,-39.0,0
26.0,-247.0,2.0,88.0,-52.0,-38.0,0
33.0,-247.0,1.0,83.0,-50.0,-38.0,0
28.0,-245.0,3.0,81.0,-49.0,-39.0,0
29.0,-248.0,-3.0,81.0,-47.0,-41.0,0
27.0,-249.0,0.0,82.0,-43.0,-40.0,0
28.0,-247.0,0.0,84.0,-42.0,-41.0,0
29.0,-248.0,-1.0,88.0,-41.0,-38.0,0
27.0,-248.0,1.0,91.0,-39.0,-40.0,0
27.0,-248.0,2.0,92.0,-37.0,-40.0,0
28.0,-247.0,1.0,94.0,-34.0,-40.0,0
28.0,-245.0,0.0,95.0,-33.0,-41.0,0
28.0,-244.0,3.0,95.0,-31.0,-40.0,0
27.0,-243.0,-1.0,95.0,-32.0,-40.0,0
30.0,-240.0,-2.0,94.0,-32.0,-39.0,0
25.0,-243.0,1.0,91.0,-31.0,-39.0,0
27.0,-241.0,1.0,88.0,-33.0,-40.0,0
28.0,-245.0,2.0,84.0,-34.0,-38.0,0
27.0,-243.0,2.0,81.0,-36.0,-38.0,0
26.0,-242.0,2.0,77.0,-36.0,-39.0,0
30.0,-246.0,0.0,73.0,-33.0,-38.0,0
28.0,-242.0,4.0,68.0,-32.0,-36.0,0
29.0,-246.0,1.0,64.0,-29.0,-33.0,0
28.0,-249.0,4.0,60.0,-29.0,-35.0,0
30.0,-246.0,1.0,56.0,-27.0,-32.0,0
28.0,-247.0,3.0,54.0,-26.0,-33.0,0
30.0,-244.0,1.0,51.0,-26.0,-32.0,0
32.0,-247.0,1.0,47.0,-25.0,-31.0,0
30.0,-250.0,1.0,43.0,-23.0,-30.0,0
30.0,-249.0,0.0,43.0,-20.0,-29.0,0
28.0,-247.0,1.0,43.0,-20.0,-28.0,0
34.0,-252.0,4.0,44.0,-17.0,-27.0,0
31.0,-250.0,1.0,45.0,-16.0,-26.0,0
31.0,-253.0,3.0,48.0,-13.0,-26.0,0
32.0,-250.0,0.0,51.0,-12.0,-23.0,0
35.0,-253.0,2.0,54.0,-12.0,-21.0,0
31.0,-251.0,1.0,58.0,-10.0,-19.0,0
33.0,-249.0,0.0,61.0,-9.0,-18.0,0
33.0,-250.0,0.0,63.0,-6.0,-15.0,0
33.0,-245.0,-1.0,64.0,-4.0,-13.0,0
34.0,-249.0,1.0,66.0,-1.0,-11.0,0
33.0,-248.0,1.0,66.0,4.0,-10.0,0
31.0,-248.0,0.0,65.0,9.0,-6.0,0
34.0,-245.0,1.0,63.0,13.0,-4.0,0
34.0,-244.0,1.0,59.0,18.0,0.0,0
32.0,-242.0,0.0,55.0,22.0,0.0,0
29.0,-242.0,-3.0,50.0,24.0,2.0,0
35.0,-247.0,2.0,47.0,26.0,5.0,0
33.0,-248.0,0.0,45.0,28.0,8.0,0
34.0,-245.0,5.0,43.0,30.0,10.0,0
32.0,-248.0,1.0,42.0,32.0,12.0,0
34.0,-248.0,-1.0,40.0,33.0,12.0,0
35.0,-249.0,0.0,40.0,34.0,14.0,0
31.0,-249.0,1.0,40.0,35.0,13.0,0
33.0,-244.0,1.0,39.0,36.0,14.0,0
33.0,-247.0,1.0,39.0,38.0,12.0,0
35.0,-246.0,2.0,40.0,40.0,13.0,0
32.0,-246.0,1.0,39.0,42.0,12.0,0
31.0,-247.0,0.0,40.0,46.0,12.0,0
29.0,-244.0,0.0,40.0,48.0,12.0,0
31.0,-245.0,2.0,40.0,51.0,12.0,0
34.0,-250.0,1.0,38.0,53.0,10.0,0
32.0,-247.0,0.0,37.0,55.0,9.0,0
31.0,-248.0,0.0,33.0,58.0,9.0,0
29.0,-250.0,0.0,33.0,61.0,9.0,0
30.0,-249.0,0.0,32.0,62.0,8.0,0
30.0,-243.0,-1.0,32.0,62.0,8.0,0
28.0,-251.0,8.0,32.0,64.0,7.0,0
30.0,-245.0,0.0,33.0,63.0,6.0,0
28.0,-247.0,-1.0,35.0,64.0,6.0,0
29.0,-248.0,0.0,37.0,62.0,4.0,0
28.0,-248.0,0.0,38.0,62.0,4.0,0
31.0,-247.0,0.0,41.0,59.0,7.0,0
27.0,-248.0,-4.0,43.0,57.0,8.0,0
28.0,-250.0,2.0,47.0,52.0,8.0,0
27.0,-246.0,0.0,48.0,48.0,7.0,0
24.0,-245.0,2.0,51.0,43.0,10.0,0
28.0,-250.0,-3.0,52.0,41.0,11.0,0
28.0,-253.0,1.0,55.0,38.0,11.0,0
23.0,-246.0,-2.0,57.0,34.0,12.0,0
27.0,-246.0,-1.0,59.0,31.0,12.0,0
26.0,-249.0,-4.0,61.0,28.0,13.0,0
28.0,-249.0,0.0,64.0,27.0,13.0,0
22.0,-248.0,0.0,66.0,23.0,14.0,0
26.0,-248.0,-3.0,68.0,22.0,12.0,0
28.0,-248.0,-3.0,70.0,21.0,11.0,0
21.0,-248.0,-3.0,71.0,22.0,11.0,0
24.0,-250.0,-5.0,73.0,21.0,11.0,0
26.0,-250.0,-2.0,75.0,20.0,12.0,0
28.0,-252.0,-4.0,76.0,20.0,11.0,0
25.0,-248.0,-4.0,80.0,17.0,10.0,0
24.0,-249.0,-2.0,84.0,17.0,10.0,0
25.0,-248.0,-3.0,89.0,15.0,10.0,0
27.0,-250.0,-1.0,93.0,12.0,9.0,0
27.0,-251.0,1.0,96.0,11.0,9.0,0
25.0,-249.0,0.0,97.0,10.0,8.0,0
23.0,-251.0,-2.0,98.0,9.0,10.0,0
25.0,-249.0,0.0,97.0,6.0,10.0,0
27.0,-251.0,2.0,94.0,6.0,9.0,0
24.0,-249.0,-2.0,92.0,5.0,9.0,0
27.0,-250.0,-3.0,91.0,4.0,8.0,0
24.0,-249.0,0.0,89.0,3.0,10.0,0
24.0,-246.0,1.0,89.0,0.0,10.0,0
27.0,-248.0,-1.0,88.0,-1.0,10.0,0
25.0,-244.0,1.0,88.0,-1.0,11.0,0
26.0,-248.0,0.0,89.0,-3.0,11.0,0
30.0,-248.0,-5.0,89.0,-5.0,12.0,0
25.0,-246.0,0.0,89.0,-7.0,11.0,0
26.0,-250.0,-1.0,90.0,-10.0,14.0,0
26.0,-246.0,0.0,88.0,-9.0,14.0,0
26.0,-247.0,1.0,87.0,-10.0,12.0,0
27.0,-244.0,0.0,86.0,-11.0,12.0,0
25.0,-246.0,1.0,84.0,-10.0,13.0,0
27.0,-247.0,0.0,84.0,-12.0,14.0,0
27.0,-247.0,1.0,83.0,-11.0,13.0,0
24.0,-247.0,1.0,82.0,-10.0,15.0,0
27.0,-244.0,0.0,81.0,-12.0,15.0,0
26.0,-246.0,1.0,82.0,-11.0,15.0,0
28.0,-248.0,0.0,80.0,-9.0,16.0,0
25.0,-248.0,0.0,79.0,-9.0,15.0,0
21.0,-245.0,-1.0,77.0,-8.0,15.0,0
23.0,-251.0,3.0,76.0,-7.0,14.0,0
23.0,-248.0,0.0,74.0,-4.0,15.0,0
24.0,-248.0,4.0,74.0,-2.0,14.0,0
22.0,-248.0,2.0,72.0,-2.0,13.0,0
25.0,-249.0,1.0,73.0,-2.0,13.0,0
26.0,-252.0,1.0,74.0,-2.0,11.0,0
25.0,-250.0,5.0,77.0,-2.0,11.0,0
22.0,-252.0,-2.0,79.0,-3.0,10.0,0
23.0,-248.0,0.0,81.0,-7.0,10.0,0
23.0,-247.0,-4.0,83.0,-10.0,10.0,0
21.0,-247.0,2.0,84.0,-11.0,12.0,0
25.0,-248.0,1.0,85.0,-13.0,12.0,0
23.0,-250.0,2.0,85.0,-16.0,11.0,0
22.0,-248.0,0.0,86.0,-19.0,11.0,0
23.0,-248.0,0.0,86.0,-21.0,11.0,0
22.0,-247.0,2.0,87.0,-22.0,11.0,0
20.0,-246.0,0.0,87.0,-21.0,13.0,0
20.0,-247.0,0.0,88.0,-22.0,13.0,0
21.0,-246.0,-3.0,86.0,-24.0,13.0,0
21.0,-249.0,2.0,85.0,-24.0,13.0,0
23.0,-246.0,3.0,82.0,-27.0,13.0,0
15.0,-239.0,-4.0,79.0,-28.0,14.0,0
20.0,-246.0,2.0,76.0,-28.0,14.0,0
19.0,-245.0,4.0,73.0,-30.0,15.0,0
19.0,-248.0,3.0,71.0,-31.0,15.0,0
20.0,-245.0,1.0,71.0,-30.0,16.0,0
20.0,-245.0,5.0,69.0,-29.0,15.0,0
25.0,-246.0,2.0,67.0,-28.0,13.0,0
24.0,-247.0,2.0,63.0,-28.0,11.0,0
21.0,-247.0,2.0,61.0,-28.0,13.0,0
23.0,-248.0,-1.0,58.0,-27.0,11.0,0
22.0,-246.0,1.0,55.0,-27.0,9.0,0
29.0,-245.0,-3.0,52.0,-26.0,10.0,0
25.0,-247.0,1.0,49.0,-27.0,11.0,0
23.0,-247.0,0.0,46.0,-25.0,10.0,0
25.0,-245.0,-1.0,42.0,-29.0,10.0,0
21.0,-247.0,4.0,38.0,-27.0,10.0,0
20.0,-244.0,3.0,33.0,-26.0,7.0,0
25.0,-249.0,2.0,30.0,-24.0,8.0,0
22.0,-246.0,4.0,28.0,-23.0,8.0,0
21.0,-248.0,1.0,29.0,-21.0,8.0,0
24.0,-251.0,4.0,29.0,-20.0,8.0,0
30.0,-248.0,-4.0,30.0,-19.0,7.0,0
25.0,-248.0,0.0,30.0,-19.0,5.0,0
22.0,-248.0,0.0,31.0,-20.0,6.0,0
22.0,-251.0,2.0,34.0,-21.0,7.0,0
23.0,-247.0,1.0,38.0,-21.0,7.0,0
27.0,-253.0,1.0,41.0,-22.0,7.0,0
23.0,-248.0,1.0,47.0,-23.0,8.0,0
22.0,-249.0,1.0,54.0,-24.0,9.0,0
24.0,-247.0,2.0,61.0,-23.0,9.0,0
23.0,-249.0,2.0,67.0,-25.0,11.0,0
25.0,-250.0,3.0,73.0,-25.0,11.0,0
23.0,-253.0,2.0,78.0,-24.0,14.0,0
20.0,-246.0,3.0,80.0,-23.0,11.0,0
24.0,-248.0,-1.0,80.0,-21.0,11.0,0
25.0,-248.0,0.0,79.0,-20.0,12.0,0
26.0,-251.0,0.0,75.0,-18.0,11.0,0
25.0,-244.0,0.0,71.0,-16.0,9.0,0
22.0,-246.0,-1.0,69.0,-14.0,8.0,0
24.0,-248.0,2.0,67.0,-14.0,7.0,0
20.0,-244.0,1.0,65.0,-13.0,4.0,0
20.0,-245.0,1.0,64.0,-12.0,3.0,0
27.0,-249.0,1.0,62.0,-12.0,4.0,0
26.0,-247.0,0.0,62.0,-10.0,1.0,0
23.0,-245.0,2.0,62.0,-9.0,2.0,0
24.0,-247.0,4.0,61.0,-8.0,0.0,0
24.0,-244.0,2.0,61.0,-9.0,-1.0,0
23.0,-249.0,1.0,63.0,-9.0,0.0,0
22.0,-250.0,4.0,64.0,-12.0,2.0,0
21.0,-245.0,-1.0,64.0,-12.0,2.0,0
23.0,-246.0,-1.0,66.0,-15.0,3.0,0
20.0,-245.0,3.0,68.0,-15.0,6.0,0
25.0,-250.0,1.0,71.0,-16.0,7.0,0
25.0,-254.0,5.0,73.0,-15.0,6.0,0
27.0,-249.0,-2.0,76.0,-16.0,8.0,0
23.0,-249.0,2.0,78.0,-18.0,8.0,0
21.0,-248.0,2.0,79.0,-17.0,10.0,0
25.0,-249.0,1.0,80.0,-16.0,8.0,0
20.0,-247.0,2.0,79.0,-15.0,11.0,0
21.0,-250.0,1.0,80.0,-13.0,10.0,0
20.0,-245.0,5.0,82.0,-13.0,10.0,0
25.0,-253.0,1.0,83.0,-12.0,6.0,0
24.0,-249.0,2.0,83.0,-10.0,9.0,0
22.0,-248.0,-2.0,83.0,-7.0,8.0,0
29.0,-250.0,2.0,84.0,-4.0,3.0,0
22.0,-249.0,0.0,84.0,-1.0,2.0,0
22.0,-249.0,6.0,86.0,3.0,0.0,0
26.0,-249.0,3.0,85.0,5.0,0.0,0
26.0,-250.0,0.0,85.0,5.0,-2.0,0
23.0,-247.0,5.0,87.0,4.0,-6.0,0
24.0,-248.0,0.0,86.0,5.0,-6.0,0
25.0,-249.0,3.0,86.0,5.0,-5.0,0
21.0,-249.0,3.0,84.0,4.0,-7.0,0
24.0,-251.0,2.0,84.0,4.0,-9.0,0
20.0,-250.0,1.0,86.0,4.0,-9.0,0
25.0,-250.0,5.0,87.0,4.0,-9.0,0
23.0,-249.0,2.0,90.0,3.0,-9.0,0
24.0,-249.0,6.0,93.0,1.0,-9.0,0
24.0,-249.0,1.0,98.0,-2.0,-9.0,0
25.0,-249.0,1.0,100.0,-3.0,-9.0,0
21.0,-246.0,4.0,102.0,-4.0,-9.0,0
20.0,-249.0,3.0,101.0,-5.0,-10.0,0
24.0,-248.0,6.0,96.0,-5.0,-8.0,0
23.0,-250.0,2.0,88.0,-4.0,-8.0,0
24.0,-246.0,0.0,80.0,-3.0,-8.0,0
26.0,-247.0,3.0,73.0,-4.0,-8.0,0
21.0,-249.0,2.0,70.0,-4.0,-7.0,0
19.0,-249.0,4.0,66.0,-6.0,-8.0,0
18.0,-251.0,1.0,66.0,-5.0,-10.0,0
20.0,-249.0,1.0,68.0,-7.0,-8.0,0
19.0,-249.0,1.0,72.0,-6.0,-7.0,0
20.0,-251.0,2.0,78.0,-7.0,-7.0,0
18.0,-247.0,5.0,84.0,-6.0,-4.0,0
20.0,-249.0,0.0,91.0,-3.0,-3.0,0
18.0,-247.0,8.0,97.0,-3.0,-2.0,0
20.0,-248.0,6.0,102.0,-1.0,-3.0,0
21.0,-243.0,2.0,102.0,3.0,-4.0,0
24.0,-246.0,3.0,100.0,1.0,-4.0,0
24.0,-249.0,1.0,96.0,1.0,-6.0,0
21.0,-247.0,1.0,90.0,0.0,-8.0,0
21.0,-247.0,4.0,85.0,0.0,-10.0,0
23.0,-247.0,2.0,79.0,-2.0,-11.0,0
21.0,-245.0,2.0,76.0,-3.0,-14.0,0
27.0,-247.0,3.0,72.0,-5.0,-13.0,0
20.0,-248.0,4.0,70.0,-6.0,-14.0,0
21.0,-246.0,3.0,68.0,-7.0,-14.0,0
25.0,-247.0,2.0,70.0,-8.0,-14.0,0
14.0,-244.0,7.0,71.0,-9.0,-13.0,0
20.0,-250.0,8.0,73.0,-12.0,-12.0,0
21.0,-250.0,2.0,74.0,-15.0,-13.0,0
22.0,-248.0,5.0,78.0,-15.0,-14.0,0
20.0,-248.0,8.0,78.0,-17.0,-11.0,0
23.0,-251.0,6.0,81.0,-19.0,-13.0,0
20.0,-254.0,7.0,84.0,-21.0,-13.0,0
26.0,-250.0,2.0,83.0,-22.0,-12.0,0
22.0,-250.0,6.0,82.0,-21.0,-12.0,0
22.0,-250.0,3.0,79.0,-20.0,-10.0,0
23.0,-248.0,1.0,73.0,-19.0,-9.0,0
21.0,-250.0,1.0,68.0,-15.0,-7.0,0
23.0,-248.0,2.0,63.0,-11.0,-5.0,0
22.0,-246.0,4.0,57.0,-10.0,-1.0,0
24.0,-250.0,4.0,52.0,-10.0,-1.0,0
22.0,-248.0,4.0,48.0,-11.0,0.0,0
23.0,-247.0,5.0,46.0,-12.0,2.0,0
19.0,-246.0,3.0,44.0,-12.0,1.0,0
18.0,-247.0,5.0,49.0,-14.0,2.0,0
23.0,-250.0,1.0,54.0,-15.0,3.0,0
25.0,-243.0,3.0,60.0,-19.0,3.0,0
20.0,-252.0,6.0,65.0,-21.0,5.0,0
26.0,-247.0,0.0,70.0,-20.0,4.0,0
23.0,-249.0,0.0,74.0,-20.0,3.0,0
22.0,-249.0,1.0,76.0,-22.0,2.0,0
21.0,-246.0,1.0,75.0,-22.0,1.0,0
20.0,-248.0,2.0,73.0,-22.0,0.0,0
24.0,-247.0,3.0,68.0,-23.0,-3.0,0
21.0,-247.0,0.0,62.0,-20.0,-7.0,0
22.0,-247.0,-2.0,58.0,-19.0,-7.0,0
20.0,-245.0,1.0,53.0,-16.0,-11.0,0
20.0,-250.0,4.0,48.0,-13.0,-13.0,0
20.0,-248.0,6.0,46.0,-9.0,-14.0,0
26.0,-248.0,2.0,43.0,-8.0,-14.0,0
23.0,-247.0,2.0,42.0,-6.0,-13.0,0
23.0,-247.0,3.0,41.0,-4.0,-13.0,0
25.0,-248.0,5.0,42.0,-3.0,-12.0,0
26.0,-250.0,2.0,44.0,-3.0,-11.0,0
22.0,-249.0,3.0,43.0,-2.0,-12.0,0
24.0,-251.0,1.0,41.0,-4.0,-12.0,0
23.0,-246.0,3.0,37.0,-5.0,-12.0,0
22.0,-247.0,2.0,32.0,-6.0,-11.0,0
24.0,-249.0,4.0,27.0,-8.0,-11.0,0
24.0,-248.0,6.0,23.0,-9.0,-10.0,0
22.0,-247.0,2.0,20.0,-8.0,-8.0,0
20.0,-248.0,4.0,17.0,-9.0,-8.0,0
20.0,-248.0,2.0,18.0,-11.0,-8.0,0
23.0,-249.0,4.0,19.0,-13.0,-7.0,0
22.0,-250.0,6.0,21.0,-16.0,-6.0,0
25.0,-251.0,3.0,23.0,-17.0,-7.0,0
21.0,-250.0,7.0,28.0,-18.0,-7.0,0
23.0,-247.0,3.0,31.0,-21.0,-7.0,0
22.0,-250.0,4.0,32.0,-20.0,-8.0,0
19.0,-245.0,4.0,34.0,-18.0,-9.0,0
26.0,-249.0,-1.0,33.0,-17.0,-9.0,0
21.0,-248.0,1.0,33.0,-17.0,-9.0,0
22.0,-247.0,1.0,33.0,-15.0,-9.0,0
19.0,-247.0,3.0,34.0,-15.0,-11.0,0
21.0,-247.0,1.0,32.0,-14.0,-10.0,0
21.0,-247.0,5.0,30.0,-15.0,-9.0,0
20.0,-248.0,1.0,28.0,-14.0,-9.0,0
22.0,-248.0,5.0,25.0,-15.0,-10.0,0
21.0,-243.0,1.0,22.0,-12.0,-7.0,0
23.0,-241.0,4.0,17.0,-8.0,-8.0,0
28.0,-246.0,2.0,12.0,-5.0,-7.0,0
23.0,-249.0,1.0,8.0,-3.0,-9.0,0
23.0,-250.0,1.0,8.0,0.0,-9.0,0
23.0,-245.0,5.0,8.0,3.0,-11.0,0
23.0,-251.0,1.0,9.0,6.0,-10.0,0
21.0,-248.0,1.0,12.0,9.0,-13.0,0
24.0,-250.0,0.0,12.0,9.0,-11.0,0
23.0,-245.0,3.0,12.0,9.0,-12.0,0
20.0,-248.0,0.0,11.0,8.0,-12.0,0
24.0,-248.0,0.0,8.0,7.0,-14.0,0
21.0,-246.0,1.0,4.0,5.0,-14.0,0
24.0,-247.0,0.0,1.0,3.0,-13.0,0
22.0,-247.0,1.0,-2.0,1.0,-13.0,0
22.0,-248.0,-3.0,-3.0,-2.0,-15.0,0
24.0,-249.0,1.0,-6.0,-5.0,-13.0,0
24.0,-251.0,1.0,-6.0,-9.0,-12.0,0
21.0,-244.0,4.0,-5.0,-12.0,-10.0,0
20.0,-247.0,1.0,-5.0,-14.0,-12.0,0
26.0,-248.0,0.0,-2.0,-15.0,-12.0,0
19.0,-247.0,-2.0,0.0,-17.0,-12.0,0
24.0,-250.0,1.0,2.0,-16.0,-13.0,0
22.0,-251.0,-1.0,5.0,-14.0,-13.0,0
22.0,-249.0,1.0,8.0,-13.0,-12.0,0
23.0,-248.0,0.0,12.0,-9.0,-12.0,0
18.0,-243.0,1.0,15.0,-8.0,-13.0,0
19.0,-248.0,1.0,21.0,-6.0,-12.0,0
20.0,-247.0,4.0,24.0,-6.0,-15.0,0
18.0,-247.0,0.0,27.0,-6.0,-13.0,0
21.0,-241.0,1.0,27.0,-4.0,-11.0,0
19.0,-244.0,-1.0,27.0,-3.0,-12.0,0
17.0,-242.0,3.0,25.0,-4.0,-12.0,0
20.0,-244.0,1.0,20.0,-4.0,-12.0,0
22.0,-240.0,-2.0,15.0,-4.0,-12.0,0
19.0,-245.0,1.0,11.0,-7.0,-12.0,0
20.0,-246.0,3.0,5.0,-8.0,-12.0,0
20.0,-247.0,2.0,2.0,-10.0,-12.0,0
20.0,-246.0,0.0,-2.0,-11.0,-12.0,0
23.0,-244.0,3.0,-7.0,-15.0,-12.0,0
24.0,-248.0,0.0,-11.0,-16.0,-11.0,0
22.0,-251.0,2.0,-14.0,-16.0,-13.0,0
21.0,-247.0,-2.0,-14.0,-15.0,-13.0,0
19.0,-248.0,2.0,-15.0,-13.0,-13.0,0
17.0,-251.0,-3.0,-14.0,-11.0,-13.0,0
23.0,-249.0,-1.0,-13.0,-11.0,-12.0,0
22.0,-251.0,-1.0,-12.0,-9.0,-12.0,0
23.0,-244.0,0.0,-12.0,-10.0,-11.0,0
22.0,-248.0,1.0,-13.0,-10.0,-10.0,0
23.0,-250.0,0.0,-13.0,-9.0,-8.0,0
23.0,-245.0,0.0,-12.0,-9.0,-9.0,0
24.0,-248.0,-1.0,-11.0,-9.0,-7.0,0
25.0,-249.0,0.0,-9.0,-10.0,-8.0,0
20.0,-250.0,0.0,-7.0,-10.0,-7.0,0
19.0,-249.0,-4.0,-3.0,-10.0,-6.0,0
20.0,-250.0,2.0,4.0,-10.0,-8.0,0
22.0,-249.0,0.0,10.0,-12.0,-7.0,0
23.0,-248.0,1.0,16.0,-10.0,-7.0,0
23.0,-252.0,2.0,20.0,-9.0,-9.0,0
22.0,-250.0,0.0,23.0,-7.0,-8.0,0
21.0,-249.0,-3.0,27.0,-4.0,-9.0,0
20.0,-248.0,0.0,29.0,-1.0,-10.0,0
21.0,-249.0,-4.0,33.0,2.0,-11.0,0
21.0,-247.0,-2.0,36.0,5.0,-12.0,0
21.0,-249.0,-7.0,38.0,6.0,-13.0,0
20.0,-245.0,-4.0,41.0,7.0,-13.0,0
22.0,-246.0,0.0,43.0,7.0,-14.0,0
22.0,-247.0,0.0,44.0,8.0,-16.0,0
21.0,-247.0,-2.0,46.0,10.0,-17.0,0
18.0,-243.0,0.0,48.0,9.0,-17.0,0
23.0,-243.0,0.0,48.0,9.0,-15.0,0
21.0,-244.0,-1.0,48.0,9.0,-18.0,0
22.0,-246.0,-2.0,48.0,10.0,-16.0,0
23.0,-245.0,0.0,46.0,11.0,-16.0,0
22.0,-247.0,-1.0,44.0,10.0,-16.0,0
22.0,-245.0,-1.0,40.0,9.0,-13.0,0
22.0,-244.0,5.0,39.0,9.0,-13.0,0
24.0,-248.0,0.0,38.0,9.0,-13.0,0
22.0,-246.0,-1.0,37.0,9.0,-12.0,0
23.0,-246.0,1.0,38.0,10.0,-13.0,0
25.0,-248.0,2.0,38.0,11.0,-13.0,0
23.0,-250.0,1.0,36.0,12.0,-13.0,0
23.0,-249.0,-1.0,35.0,12.0,-12.0,0
20.0,-249.0,-3.0,33.0,11.0,-10.0,0
27.0,-248.0,0.0,32.0,12.0,-10.0,0
24.0,-250.0,-5.0,31.0,12.0,-10.0,0
24.0,-249.0,1.0,31.0,13.0,-11.0,0
17.0,-250.0,-3.0,31.0,13.0,-12.0,0
23.0,-250.0,-2.0,35.0,12.0,-13.0,0
22.0,-251.0,1.0,38.0,12.0,-11.0,0
23.0,-248.0,-3.0,41.0,12.0,-11.0,0
24.0,-250.0,0.0,45.0,12.0,-11.0,0
23.0,-248.0,-1.0,49.0,12.0,-11.0,0
23.0,-247.0,-1.0,51.0,13.0,-12.0,0
21.0,-248.0,-3.0,52.0,13.0,-11.0,0
22.0,-247.0,-2.0,52.0,13.0,-11.0,0
25.0,-248.0,-3.0,50.0,16.0,-13.0,0
21.0,-250.0,-4.0,47.0,17.0,-14.0,0
17.0,-239.0,6.0,45.0,18.0,-14.0,0
21.0,-248.0,-2.0,43.0,18.0,-14.0,0
20.0,-248.0,-2.0,43.0,17.0,-12.0,0
20.0,-248.0,-2.0,43.0,16.0,-14.0,0
25.0,-249.0,-2.0,45.0,14.0,-14.0,0
23.0,-248.0,-5.0,45.0,14.0,-14.0,0
24.0,-250.0,1.0,46.0,12.0,-13.0,0
23.0,-242.0,-2.0,44.0,13.0,-12.0,0
24.0,-247.0,3.0,42.0,16.0,-11.0,0
22.0,-247.0,0.0,39.0,17.0,-13.0,0
19.0,-249.0,0.0,34.0,17.0,-13.0,0
24.0,-248.0,-2.0,31.0,18.0,-13.0,0
19.0,-247.0,-2.0,29.0,20.0,-14.0,0
26.0,-249.0,-3.0,23.0,21.0,-14.0,0
27.0,-248.0,0.0,21.0,26.0,-16.0,0
23.0,-246.0,-1.0,21.0,27.0,-15.0,0
24.0,-247.0,-2.0,21.0,30.0,-16.0,0
21.0,-242.0,1.0,22.0,32.0,-17.0,0
23.0,-249.0,-2.0,24.0,35.0,-19.0,0
24.0,-245.0,-4.0,27.0,37.0,-19.0,0
25.0,-249.0,-6.0,28.0,39.0,-19.0,0
24.0,-252.0,-4.0,28.0,38.0,-19.0,0
24.0,-247.0,-3.0,29.0,38.0,-20.0,0
25.0,-246.0,-4.0,27.0,37.0,-19.0,0
21.0,-247.0,-2.0,27.0,36.0,-21.0,0
19.0,-247.0,-2.0,26.0,36.0,-20.0,0
23.0,-250.0,-2.0,28.0,33.0,-19.0,0
25.0,-250.0,-3.0,29.0,32.0,-18.0,0
20.0,-248.0,-3.0,31.0,29.0,-18.0,0
24.0,-248.0,-2.0,35.0,26.0,-18.0,0
20.0,-249.0,-3.0,38.0,25.0,-17.0,0
20.0,-248.0,-5.0,40.0,23.0,-18.0,0
21.0,-249.0,2.0,44.0,20.0,-18.0,0
21.0,-251.0,0.0,47.0,17.0,-17.0,0
20.0,-249.0,-2.0,49.0,16.0,-15.0,0
18.0,-250.0,-2.0,51.0,17.0,-15.0,0
22.0,-247.0,-1.0,54.0,16.0,-17.0,0
22.0,-250.0,-7.0,55.0,17.0,-18.0,0
24.0,-252.0,0.0,57.0,19.0,-17.0,0
23.0,-249.0,-1.0,59.0,19.0,-18.0,0
21.0,-249.0,-6.0,60.0,19.0,-18.0,0
22.0,-247.0,-3.0,58.0,22.0,-18.0,0
23.0,-247.0,2.0,58.0,22.0,-18.0,0
18.0,-246.0,0.0,59.0,24.0,-17.0,0
22.0,-250.0,-8.0,57.0,23.0,-17.0,0
23.0,-249.0,0.0,55.0,23.0,-15.0,0
22.0,-246.0,-1.0,55.0,24.0,-14.0,0
23.0,-245.0,-1.0,53.0,25.0,-14.0,0
22.0,-248.0,0.0,52.0,25.0,-13.0,0
17.0,-243.0,0.0,52.0,24.0,-13.0,0
23.0,-250.0,-2.0,52.0,23.0,-12.0,0
24.0,-249.0,-6.0,53.0,24.0,-12.0,0
24.0,-250.0,0.0,55.0,23.0,-12.0,0
17.0,-249.0,-1.0,56.0,22.0,-13.0,0
23.0,-248.0,0.0,59.0,23.0,-10.0,0
25.0,-250.0,-1.0,60.0,23.0,-11.0,0
21.0,-250.0,-4.0,62.0,22.0,-12.0,0
23.0,-246.0,-2.0,63.0,21.0,-11.0,0
22.0,-250.0,-3.0,62.0,20.0,-12.0,0
22.0,-247.0,-4.0,61.0,19.0,-12.0,0
16.0,-245.0,-5.0,60.0,18.0,-13.0,0
23.0,-244.0,-2.0,57.0,17.0,-13.0,0
23.0,-248.0,1.0,55.0,16.0,-13.0,0
26.0,-245.0,-5.0,52.0,16.0,-14.0,0
21.0,-247.0,-2.0,51.0,15.0,-12.0,0
23.0,-246.0,0.0,48.0,12.0,-12.0,0
24.0,-248.0,-2.0,45.0,13.0,-13.0,0
24.0,-246.0,0.0,42.0,14.0,-12.0,0
23.0,-249.0,0.0,39.0,13.0,-12.0,0
22.0,-245.0,1.0,37.0,12.0,-13.0,0
25.0,-251.0,0.0,37.0,12.0,-11.0,0
17.0,-242.0,-2.0,36.0,10.0,-11.0,0
21.0,-250.0,-1.0,35.0,9.0,-11.0,0
21.0,-246.0,-3.0,38.0,12.0,-12.0,0
22.0,-250.0,-2.0,40.0,12.0,-12.0,0
23.0,-249.0,2.0,43.0,11.0,-13.0,0
24.0,-250.0,-2.0,47.0,12.0,-12.0,0
26.0,-251.0,-4.0,50.0,13.0,-14.0,0
21.0,-247.0,-3.0,55.0,15.0,-13.0,0
26.0,-251.0,-6.0,57.0,17.0,-16.0,0
24.0,-250.0,0.0,58.0,19.0,-17.0,0
24.0,-248.0,-2.0,61.0,21.0,-16.0,0
22.0,-248.0,-3.0,63.0,22.0,-18.0,0
22.0,-248.0,-1.0,65.0,21.0,-18.0,0
22.0,-249.0,-1.0,66.0,22.0,-18.0,0
29.0,-251.0,3.0,68.0,23.0,-20.0,0
23.0,-250.0,-5.0,68.0,25.0,-19.0,0
26.0,-250.0,-4.0,69.0,25.0,-16.0,0
22.0,-249.0,-2.0,72.0,25.0,-16.0,0
26.0,-251.0,-2.0,76.0,26.0,-15.0,0
23.0,-249.0,0.0,79.0,25.0,-15.0,0
23.0,-248.0,-1.0,82.0,25.0,-13.0,0
22.0,-246.0,0.0,83.0,25.0,-12.0,0
25.0,-249.0,-6.0,83.0,24.0,-11.0,0
22.0,-247.0,-4.0,81.0,23.0,-9.0,0
21.0,-249.0,-1.0,80.0,22.0,-11.0,0
25.0,-254.0,-5.0,82.0,21.0,-9.0,0
22.0,-249.0,0.0,81.0,21.0,-10.0,0
23.0,-247.0,-3.0,80.0,20.0,-8.0,0
24.0,-248.0,0.0,78.0,19.0,-6.0,0
