ax,ay,az,gx,gy,gz,label
2.0,-252.0,-68.0,-17.0,72.0,-2.0,0
1.0,-251.0,-67.0,-14.0,71.0,-4.0,0
1.0,-250.0,-65.0,-14.0,70.0,-4.0,0
4.0,-248.0,-62.0,-13.0,69.0,-3.0,0
5.0,-253.0,-66.0,-15.0,68.0,-4.0,0
0.0,-249.0,-68.0,-16.0,68.0,-3.0,0
3.0,-248.0,-67.0,-19.0,66.0,-4.0,0
3.0,-249.0,-62.0,-22.0,68.0,-3.0,0
1.0,-247.0,-63.0,-26.0,67.0,-3.0,0
6.0,-248.0,-67.0,-29.0,68.0,-4.0,0
3.0,-249.0,-65.0,-30.0,68.0,-2.0,0
1.0,-247.0,-63.0,-30.0,67.0,-2.0,0
2.0,-250.0,-64.0,-31.0,67.0,-1.0,0
4.0,-250.0,-62.0,-31.0,66.0,-2.0,0
2.0,-249.0,-65.0,-31.0,67.0,-3.0,0
3.0,-248.0,-76.0,-30.0,68.0,-3.0,0
2.0,-248.0,-63.0,-29.0,68.0,-3.0,0
3.0,-249.0,-65.0,-30.0,67.0,-2.0,0
4.0,-249.0,-69.0,-30.0,69.0,-4.0,0
4.0,-249.0,-65.0,-31.0,70.0,-3.0,0
2.0,-246.0,-65.0,-33.0,68.0,-2.0,0
1.0,-249.0,-65.0,-37.0,69.0,-2.0,0
4.0,-249.0,-64.0,-40.0,71.0,-3.0,0
3.0,-248.0,-62.0,-42.0,72.0,-2.0,0
0.0,-248.0,-66.0,-41.0,73.0,-2.0,0
3.0,-249.0,-60.0,-43.0,74.0,-2.0,0
8.0,-249.0,-67.0,-43.0,72.0,-2.0,0
2.0,-240.0,-54.0,-43.0,71.0,-1.0,0
2.0,-248.0,-71.0,-47.0,72.0,-1.0,0
2.0,-251.0,-71.0,-51.0,72.0,0.0,0
-5.0,-249.0,-65.0,-54.0,72.0,0.0,0
2.0,-257.0,-54.0,-57.0,74.0,0.0,0
2.0,-252.0,-65.0,-58.0,74.0,3.0,0
3.0,-251.0,-60.0,-56.0,73.0,4.0,0
2.0,-251.0,-75.0,-55.0,71.0,4.0,0
7.0,-253.0,-62.0,-54.0,71.0,5.0,0
8.0,-263.0,-56.0,-53.0,70.0,5.0,0
2.0,-251.0,-68.0,-53.0,70.0,5.0,0
3.0,-254.0,-67.0,-52.0,70.0,4.0,0
2.0,-251.0,-64.0,-51.0,69.0,5.0,0
3.0,-253.0,-66.0,-48.0,67.0,5.0,0
0.0,-240.0,-68.0,-46.0,68.0,6.0,0
3.0,-247.0,-58.0,-45.0,69.0,4.0,0
9.0,-254.0,-66.0,-45.0,71.0,3.0,0
3.0,-248.0,-65.0,-49.0,73.0,4.0,0
6.0,-248.0,-53.0,-54.0,74.0,5.0,0
1.0,-252.0,-65.0,-58.0,74.0,4.0,0
5.0,-252.0,-70.0,-57.0,76.0,5.0,0
4.0,-251.0,-60.0,-55.0,78.0,5.0,0
8.0,-252.0,-63.0,-51.0,78.0,5.0,0
8.0,-257.0,-64.0,-47.0,79.0,5.0,0
1.0,-250.0,-68.0,-44.0,79.0,5.0,0
5.0,-249.0,-70.0,-45.0,79.0,5.0,0
2.0,-248.0,-64.0,-48.0,79.0,5.0,0
3.0,-250.0,-67.0,-50.0,77.0,3.0,0
2.0,-247.0,-66.0,-53.0,78.0,3.0,0
1.0,-245.0,-53.0,-55.0,78.0,3.0,0
17.0,-257.0,-66.0,-55.0,78.0,5.0,0
6.0,-245.0,-63.0,-54.0,78.0,3.0,0
6.0,-252.0,-59.0,-53.0,80.0,3.0,0
4.0,-248.0,-62.0,-54.0,82.0,3.0,0
1.0,-250.0,-69.0,-53.0,82.0,3.0,0
5.0,-245.0,-75.0,-53.0,83.0,4.0,0
3.0,-251.0,-65.0,-52.0,84.0,4.0,0
4.0,-249.0,-66.0,-51.0,82.0,6.0,0
-2.0,-249.0,-72.0,-48.0,80.0,6.0,0
-5.0,-246.0,-63.0,-45.0,78.0,5.0,0
0.0,-250.0,-68.0,-43.0,76.0,5.0,0
0.0,-246.0,-70.0,-40.0,74.0,4.0,0
3.0,-249.0,-70.0,-38.0,74.0,5.0,0
2.0,-249.0,-68.0,-38.0,74.0,4.0,0
0.0,-245.0,-66.0,-39.0,73.0,3.0,0
4.0,-248.0,-55.0,-41.0,72.0,4.0,0
0.0,-255.0,-64.0,-42.0,73.0,4.0,0
1.0,-258.0,-61.0,-42.0,71.0,3.0,0
4.0,-251.0,-70.0,-43.0,71.0,5.0,0
2.0,-254.0,-67.0,-46.0,68.0,4.0,0
7.0,-251.0,-65.0,-47.0,66.0,6.0,0
7.0,-243.0,-70.0,-48.0,63.0,4.0,0
5.0,-249.0,-55.0,-50.0,63.0,4.0,0
3.0,-252.0,-75.0,-51.0,63.0,5.0,0
2.0,-246.0,-69.0,-51.0,60.0,4.0,0
2.0,-246.0,-61.0,-51.0,60.0,3.0,0
2.0,-250.0,-66.0,-49.0,60.0,2.0,0
1.0,-249.0,-66.0,-46.0,58.0,2.0,0
1.0,-250.0,-69.0,-42.0,58.0,1.0,0
2.0,-249.0,-68.0,-40.0,57.0,0.0,0
6.0,-244.0,-70.0,-37.0,59.0,0.0,0
-3.0,-249.0,-50.0,-37.0,58.0,-1.0,0
10.0,-251.0,-82.0,-38.0,59.0,-2.0,0
3.0,-251.0,-75.0,-39.0,59.0,-1.0,0
5.0,-242.0,-58.0,-42.0,58.0,-1.0,0
10.0,-249.0,-64.0,-42.0,58.0,0.0,0
0.0,-255.0,-69.0,-39.0,55.0,0.0,0
4.0,-253.0,-66.0,-36.0,54.0,-2.0,0
2.0,-247.0,-68.0,-33.0,55.0,-1.0,0
1.0,-241.0,-71.0,-32.0,55.0,0.0,0
6.0,-241.0,-76.0,-34.0,56.0,-2.0,0
0.0,-247.0,-73.0,-39.0,58.0,-2.0,0
3.0,-248.0,-72.0,-45.0,62.0,-1.0,0
0.0,-246.0,-71.0,-47.0,64.0,-2.0,0
0.0,-248.0,-70.0,-46.0,65.0,0.0,0
0.0,-247.0,-72.0,-43.0,66.0,-1.0,0
4.0,-249.0,-67.0,-39.0,66.0,1.0,0
4.0,-250.0,-61.0,-35.0,66.0,1.0,0
1.0,-244.0,-67.0,-34.0,65.0,1.0,0
2.0,-238.0,-73.0,-31.0,63.0,0.0,0
-7.0,-245.0,-70.0,-31.0,61.0,0.0,0
1.0,-243.0,-71.0,-30.0,62.0,-1.0,0
-2.0,-252.0,-54.0,-32.0,60.0,-2.0,0
11.0,-246.0,-68.0,-33.0,61.0,-3.0,0
3.0,-241.0,-61.0,-36.0,60.0,-2.0,0
8.0,-236.0,-77.0,-38.0,62.0,-3.0,0
1.0,-249.0,-73.0,-39.0,63.0,-3.0,0
1.0,-245.0,-72.0,-37.0,65.0,-4.0,0
1.0,-245.0,-66.0,-34.0,65.0,-6.0,0
0.0,-247.0,-70.0,-33.0,64.0,-6.0,0
3.0,-247.0,-77.0,-35.0,65.0,-5.0,0
-15.0,-238.0,-64.0,-38.0,66.0,-5.0,0
7.0,-248.0,-69.0,-42.0,68.0,-4.0,0
2.0,-245.0,-65.0,-48.0,68.0,-3.0,0
1.0,-249.0,-74.0,-52.0,66.0,-5.0,0
0.0,-259.0,-74.0,-51.0,64.0,-4.0,0
2.0,-251.0,-66.0,-49.0,62.0,-3.0,0
1.0,-249.0,-71.0,-44.0,60.0,-4.0,0
1.0,-249.0,-68.0,-39.0,57.0,-4.0,0
1.0,-247.0,-70.0,-35.0,56.0,-3.0,0
5.0,-248.0,-71.0,-34.0,55.0,-2.0,0
3.0,-248.0,-71.0,-37.0,55.0,-3.0,0
1.0,-247.0,-72.0,-40.0,55.0,-3.0,0
0.0,-248.0,-71.0,-43.0,57.0,-2.0,0
2.0,-248.0,-71.0,-45.0,58.0,-2.0,0
2.0,-249.0,-68.0,-46.0,59.0,-3.0,0
2.0,-251.0,-70.0,-43.0,62.0,-2.0,0
1.0,-246.0,-74.0,-42.0,60.0,-3.0,0
2.0,-249.0,-74.0,-41.0,63.0,-2.0,0
3.0,-250.0,-73.0,-41.0,62.0,-3.0,0
0.0,-248.0,-72.0,-41.0,62.0,-3.0,0
2.0,-248.0,-72.0,-40.0,62.0,-3.0,0
3.0,-248.0,-70.0,-39.0,65.0,-4.0,0
1.0,-248.0,-72.0,-38.0,66.0,-3.0,0
0.0,-250.0,-67.0,-39.0,66.0,-2.0,0
2.0,-250.0,-69.0,-40.0,65.0,-2.0,0
3.0,-250.0,-70.0,-40.0,65.0,-1.0,0
1.0,-250.0,-71.0,-41.0,63.0,1.0,0
5.0,-250.0,-71.0,-41.0,65.0,2.0,0
1.0,-249.0,-71.0,-42.0,64.0,2.0,0
0.0,-245.0,-70.0,-42.0,64.0,3.0,0
2.0,-251.0,-73.0,-42.0,65.0,3.0,0
0.0,-250.0,-73.0,-42.0,67.0,4.0,0
0.0,-249.0,-73.0,-40.0,68.0,4.0,0
3.0,-249.0,-69.0,-40.0,68.0,2.0,0
1.0,-249.0,-70.0,-40.0,69.0,3.0,0
4.0,-250.0,-74.0,-42.0,71.0,3.0,0
4.0,-249.0,-73.0,-44.0,69.0,2.0,0
0.0,-248.0,-72.0,-45.0,70.0,4.0,0
2.0,-250.0,-72.0,-45.0,70.0,4.0,0
2.0,-250.0,-74.0,-43.0,70.0,5.0,0
1.0,-249.0,-73.0,-42.0,69.0,4.0,0
0.0,-249.0,-73.0,-41.0,67.0,5.0,0
2.0,-248.0,-69.0,-41.0,66.0,6.0,0
1.0,-250.0,-74.0,-42.0,68.0,6.0,0
0.0,-248.0,-71.0,-43.0,68.0,6.0,0
0.0,-248.0,-72.0,-43.0,67.0,7.0,0
1.0,-249.0,-74.0,-42.0,67.0,6.0,0
1.0,-250.0,-68.0,-40.0,67.0,5.0,0
1.0,-250.0,-73.0,-37.0,65.0,4.0,0
3.0,-247.0,-73.0,-34.0,64.0,4.0,0
-1.0,-247.0,-71.0,-34.0,65.0,4.0,0
2.0,-251.0,-72.0,-35.0,65.0,3.0,0
3.0,-249.0,-69.0,-36.0,65.0,6.0,0
2.0,-247.0,-71.0,-38.0,66.0,5.0,0
1.0,-249.0,-74.0,-40.0,66.0,4.0,0
1.0,-245.0,-70.0,-40.0,67.0,5.0,0
3.0,-251.0,-74.0,-43.0,68.0,4.0,0
3.0,-246.0,-71.0,-44.0,67.0,5.0,0
0.0,-249.0,-70.0,-44.0,68.0,5.0,0
2.0,-248.0,-69.0,-45.0,68.0,4.0,0
1.0,-248.0,-72.0,-46.0,68.0,3.0,0
10.0,-241.0,-76.0,-44.0,68.0,2.0,0
3.0,-248.0,-73.0,-43.0,67.0,2.0,0
1.0,-247.0,-71.0,-44.0,66.0,2.0,0
1.0,-248.0,-71.0,-43.0,66.0,1.0,0
1.0,-249.0,-71.0,-43.0,66.0,3.0,0
2.0,-250.0,-72.0,-44.0,64.0,3.0,0
0.0,-249.0,-68.0,-43.0,62.0,2.0,0
1.0,-250.0,-69.0,-43.0,62.0,2.0,0
0.0,-248.0,-72.0,-41.0,60.0,3.0,0
2.0,-250.0,-72.0,-39.0,60.0,2.0,0
0.0,-249.0,-75.0,-38.0,60.0,1.0,0
0.0,-248.0,-75.0,-39.0,60.0,-1.0,0
0.0,-248.0,-72.0,-39.0,62.0,-1.0,0
1.0,-247.0,-73.0,-39.0,64.0,0.0,0
1.0,-248.0,-75.0,-39.0,65.0,-1.0,0
1.0,-246.0,-71.0,-38.0,66.0,-2.0,0
2.0,-246.0,-76.0,-40.0,66.0,-4.0,0
1.0,-247.0,-72.0,-41.0,65.0,-3.0,0
2.0,-247.0,-72.0,-41.0,64.0,-3.0,0
1.0,-248.0,-75.0,-40.0,63.0,-3.0,0
0.0,-250.0,-75.0,-36.0,61.0,-3.0,0
2.0,-251.0,-70.0,-32.0,63.0,-4.0,0
3.0,-250.0,-74.0,-28.0,64.0,-2.0,0
0.0,-249.0,-74.0,-26.0,64.0,-2.0,0
3.0,-248.0,-77.0,-25.0,64.0,-2.0,0
2.0,-247.0,-72.0,-24.0,62.0,-3.0,0
0.0,-247.0,-78.0,-25.0,60.0,-2.0,0
1.0,-246.0,-73.0,-29.0,58.0,-3.0,0
3.0,-248.0,-71.0,-30.0,57.0,-4.0,0
0.0,-247.0,-73.0,-32.0,56.0,-2.0,0
1.0,-251.0,-71.0,-32.0,56.0,-1.0,0
1.0,-247.0,-72.0,-30.0,56.0,-1.0,0
5.0,-251.0,-78.0,-27.0,56.0,1.0,0
0.0,-248.0,-73.0,-22.0,56.0,1.0,0
0.0,-248.0,-71.0,-16.0,56.0,1.0,0
2.0,-248.0,-73.0,-11.0,58.0,1.0,0
0.0,-250.0,-73.0,-6.0,58.0,2.0,0
3.0,-249.0,-75.0,-2.0,58.0,1.0,0
2.0,-249.0,-74.0,-1.0,61.0,0.0,0
3.0,-249.0,-75.0,-3.0,61.0,0.0,0
1.0,-247.0,-73.0,-5.0,62.0,-1.0,0
6.0,-248.0,-75.0,-5.0,63.0,-2.0,0
0.0,-248.0,-75.0,-5.0,66.0,-3.0,0
2.0,-249.0,-73.0,-3.0,67.0,-2.0,0
0.0,-247.0,-71.0,-4.0,68.0,-1.0,0
0.0,-246.0,-73.0,-4.0,69.0,-1.0,0
1.0,-248.0,-73.0,-6.0,70.0,-1.0,0
2.0,-248.0,-71.0,-5.0,69.0,0.0,0
2.0,-249.0,-70.0,-2.0,67.0,-2.0,0
1.0,-249.0,-70.0,0.0,67.0,-3.0,0
-1.0,-248.0,-74.0,2.0,67.0,-3.0,0
2.0,-251.0,-73.0,3.0,68.0,-4.0,0
1.0,-248.0,-73.0,5.0,69.0,-4.0,0
0.0,-248.0,-74.0,6.0,69.0,-4.0,0
1.0,-249.0,-74.0,7.0,68.0,-3.0,0
0.0,-248.0,-75.0,10.0,68.0,-4.0,0
3.0,-249.0,-71.0,12.0,67.0,-3.0,0
1.0,-247.0,-75.0,15.0,67.0,-3.0,0
4.0,-249.0,-74.0,16.0,67.0,-3.0,0
2.0,-247.0,-74.0,13.0,68.0,-3.0,0
2.0,-247.0,-74.0,10.0,68.0,-4.0,0
1.0,-248.0,-74.0,7.0,69.0,-5.0,0
1.0,-248.0,-75.0,7.0,69.0,-4.0,0
2.0,-251.0,-76.0,6.0,72.0,-3.0,0
1.0,-247.0,-77.0,6.0,72.0,-3.0,0
3.0,-247.0,-71.0,7.0,73.0,-3.0,0
0.0,-246.0,-72.0,7.0,74.0,-4.0,0
0.0,-247.0,-71.0,6.0,77.0,-6.0,0
0.0,-250.0,-73.0,7.0,79.0,-4.0,0
2.0,-249.0,-72.0,6.0,80.0,-5.0,0
1.0,-248.0,-72.0,5.0,79.0,-5.0,0
2.0,-249.0,-71.0,6.0,78.0,-6.0,0
3.0,-248.0,-75.0,6.0,75.0,-4.0,0
0.0,-249.0,-70.0,5.0,77.0,-4.0,0
0.0,-246.0,-75.0,7.0,76.0,-4.0,0
0.0,-247.0,-71.0,8.0,74.0,-4.0,0
2.0,-247.0,-74.0,10.0,71.0,-4.0,0
0.0,-244.0,-74.0,12.0,70.0,-5.0,0
0.0,-246.0,-73.0,16.0,68.0,-6.0,0
0.0,-247.0,-76.0,16.0,67.0,-6.0,0
0.0,-247.0,-71.0,15.0,68.0,-6.0,0
0.0,-247.0,-75.0,11.0,71.0,-6.0,0
0.0,-248.0,-73.0,8.0,73.0,-8.0,0
1.0,-247.0,-75.0,7.0,75.0,-7.0,0
0.0,-247.0,-74.0,6.0,74.0,-8.0,0
0.0,-248.0,-71.0,3.0,74.0,-8.0,0
0.0,-248.0,-74.0,6.0,74.0,-7.0,0
3.0,-248.0,-76.0,7.0,73.0,-9.0,0
1.0,-248.0,-73.0,9.0,73.0,-8.0,0
1.0,-248.0,-71.0,11.0,72.0,-8.0,0
1.0,-247.0,-70.0,10.0,74.0,-10.0,0
1.0,-246.0,-70.0,11.0,74.0,-8.0,0
0.0,-248.0,-74.0,9.0,74.0,-9.0,0
1.0,-248.0,-68.0,7.0,73.0,-7.0,0
1.0,-248.0,-73.0,9.0,73.0,-8.0,0
1.0,-249.0,-74.0,11.0,73.0,-7.0,0
1.0,-249.0,-69.0,12.0,73.0,-7.0,0
2.0,-250.0,-75.0,14.0,72.0,-7.0,0
2.0,-249.0,-78.0,15.0,72.0,-5.0,0
2.0,-248.0,-75.0,14.0,72.0,-6.0,0
1.0,-249.0,-74.0,12.0,75.0,-6.0,0
1.0,-251.0,-73.0,8.0,75.0,-5.0,0
0.0,-247.0,-76.0,6.0,76.0,-4.0,0
2.0,-252.0,-75.0,5.0,76.0,-3.0,0
0.0,-247.0,-74.0,5.0,76.0,-2.0,0
0.0,-250.0,-70.0,7.0,74.0,-3.0,0
2.0,-251.0,-74.0,7.0,73.0,-3.0,0
0.0,-251.0,-71.0,12.0,73.0,-2.0,0
1.0,-250.0,-68.0,13.0,74.0,-2.0,0
5.0,-249.0,-78.0,15.0,73.0,-2.0,0
0.0,-250.0,-72.0,16.0,73.0,-1.0,0
0.0,-252.0,-70.0,15.0,72.0,-2.0,0
0.0,-249.0,-73.0,15.0,72.0,-1.0,0
0.0,-251.0,-70.0,14.0,71.0,0.0,0
-1.0,-248.0,-72.0,15.0,70.0,0.0,0
3.0,-250.0,-73.0,15.0,68.0,-3.0,0
1.0,-249.0,-69.0,16.0,69.0,-1.0,0
2.0,-251.0,-73.0,18.0,70.0,-1.0,0
1.0,-250.0,-71.0,18.0,68.0,-2.0,0
0.0,-250.0,-73.0,19.0,67.0,-1.0,0
1.0,-249.0,-74.0,19.0,66.0,-2.0,0
2.0,-249.0,-70.0,18.0,65.0,0.0,0
1.0,-248.0,-71.0,19.0,65.0,-2.0,0
2.0,-248.0,-75.0,21.0,65.0,-2.0,0
1.0,-249.0,-71.0,22.0,65.0,-1.0,0
0.0,-250.0,-70.0,22.0,64.0,-1.0,0
1.0,-248.0,-72.0,24.0,63.0,1.0,0
1.0,-250.0,-67.0,26.0,63.0,0.0,0
1.0,-248.0,-70.0,25.0,61.0,-2.0,0
2.0,-248.0,-67.0,28.0,63.0,-1.0,0
0.0,-247.0,-70.0,29.0,63.0,-3.0,0
-4.0,-253.0,-70.0,31.0,63.0,-4.0,0
0.0,-248.0,-70.0,30.0,61.0,-4.0,0
1.0,-247.0,-67.0,30.0,62.0,-4.0,0
3.0,-248.0,-65.0,29.0,59.0,-3.0,0
0.0,-248.0,-66.0,32.0,58.0,-4.0,0
1.0,-247.0,-69.0,32.0,59.0,-6.0,0
0.0,-246.0,-68.0,32.0,60.0,-4.0,0
-1.0,-244.0,-69.0,32.0,62.0,-4.0,0
2.0,-248.0,-64.0,30.0,63.0,-5.0,0
4.0,-248.0,-69.0,27.0,63.0,-5.0,0
3.0,-250.0,-68.0,22.0,63.0,-5.0,0
1.0,-246.0,-68.0,17.0,65.0,-4.0,0
1.0,-250.0,-67.0,16.0,65.0,-4.0,0
3.0,-250.0,-68.0,15.0,68.0,-4.0,0
3.0,-249.0,-70.0,19.0,67.0,-6.0,0
2.0,-248.0,-72.0,23.0,67.0,-7.0,0
0.0,-248.0,-69.0,23.0,67.0,-8.0,0
1.0,-247.0,-71.0,22.0,63.0,-7.0,0
3.0,-250.0,-72.0,20.0,64.0,-8.0,0
0.0,-247.0,-70.0,16.0,64.0,-9.0,0
0.0,-247.0,-68.0,15.0,63.0,-8.0,0
4.0,-251.0,-62.0,13.0,62.0,-8.0,0
1.0,-247.0,-71.0,14.0,60.0,-7.0,0
1.0,-248.0,-69.0,16.0,59.0,-7.0,0
1.0,-249.0,-68.0,17.0,57.0,-7.0,0
-1.0,-249.0,-69.0,19.0,55.0,-8.0,0
0.0,-249.0,-66.0,23.0,55.0,-6.0,0
0.0,-250.0,-69.0,24.0,54.0,-6.0,0
1.0,-250.0,-67.0,26.0,55.0,-6.0,0
2.0,-248.0,-67.0,26.0,55.0,-7.0,0
1.0,-250.0,-71.0,27.0,56.0,-8.0,0
1.0,-247.0,-69.0,26.0,54.0,-9.0,0
1.0,-247.0,-68.0,26.0,56.0,-8.0,0
2.0,-251.0,-66.0,23.0,56.0,-8.0,0
2.0,-249.0,-69.0,23.0,57.0,-9.0,0
3.0,-250.0,-68.0,21.0,60.0,-10.0,0
1.0,-248.0,-70.0,21.0,61.0,-11.0,0
3.0,-250.0,-67.0,19.0,62.0,-12.0,0
4.0,-248.0,-69.0,17.0,62.0,-10.0,0
3.0,-248.0,-65.0,15.0,62.0,-9.0,0
1.0,-248.0,-69.0,11.0,60.0,-9.0,0
3.0,-251.0,-66.0,12.0,59.0,-8.0,0
-1.0,-249.0,-66.0,10.0,60.0,-9.0,0
0.0,-247.0,-70.0,13.0,59.0,-8.0,0
0.0,-250.0,-71.0,16.0,58.0,-8.0,0
2.0,-250.0,-71.0,19.0,58.0,-8.0,0
1.0,-251.0,-70.0,22.0,56.0,-8.0,0
0.0,-248.0,-71.0,21.0,57.0,-7.0,0
0.0,-250.0,-69.0,21.0,56.0,-7.0,0
2.0,-251.0,-68.0,21.0,56.0,-5.0,0
1.0,-248.0,-69.0,21.0,57.0,-5.0,0
1.0,-251.0,-66.0,18.0,56.0,-4.0,0
5.0,-252.0,-66.0,16.0,56.0,-6.0,0
1.0,-251.0,-68.0,14.0,58.0,-6.0,0
1.0,-251.0,-66.0,14.0,58.0,-5.0,0
1.0,-251.0,-68.0,16.0,62.0,-4.0,0
1.0,-248.0,-68.0,18.0,64.0,-4.0,0
3.0,-253.0,-69.0,20.0,64.0,-3.0,0
1.0,-249.0,-74.0,21.0,64.0,-2.0,0
0.0,-248.0,-66.0,22.0,63.0,-5.0,0
0.0,-247.0,-69.0,21.0,61.0,-5.0,0
1.0,-248.0,-68.0,20.0,59.0,-6.0,0
2.0,-250.0,-67.0,15.0,59.0,-6.0,0
0.0,-251.0,-68.0,11.0,58.0,-5.0,0
1.0,-248.0,-66.0,9.0,58.0,-4.0,0
0.0,-249.0,-64.0,8.0,58.0,-6.0,0
2.0,-250.0,-68.0,9.0,60.0,-5.0,0
1.0,-248.0,-67.0,10.0,61.0,-5.0,0
0.0,-248.0,-68.0,12.0,62.0,-5.0,0
2.0,-249.0,-67.0,11.0,63.0,-5.0,0
2.0,-247.0,-66.0,9.0,64.0,-4.0,0
4.0,-250.0,-66.0,7.0,66.0,-4.0,0
0.0,-249.0,-68.0,6.0,67.0,-4.0,0
1.0,-248.0,-66.0,8.0,67.0,-3.0,0
1.0,-251.0,-67.0,8.0,68.0,-3.0,0
2.0,-249.0,-64.0,10.0,68.0,-1.0,0
2.0,-250.0,-66.0,12.0,68.0,-3.0,0
2.0,-249.0,-68.0,16.0,69.0,-4.0,0
2.0,-250.0,-70.0,18.0,68.0,-5.0,0
2.0,-249.0,-67.0,18.0,70.0,-5.0,0
1.0,-248.0,-67.0,18.0,69.0,-6.0,0
2.0,-249.0,-65.0,17.0,68.0,-6.0,0
1.0,-247.0,-69.0,16.0,69.0,-6.0,0
0.0,-246.0,-62.0,14.0,68.0,-4.0,0
1.0,-248.0,-65.0,11.0,67.0,-4.0,0
0.0,-250.0,-68.0,8.0,66.0,-4.0,0
2.0,-249.0,-63.0,7.0,65.0,-4.0,0
2.0,-250.0,-69.0,5.0,65.0,-4.0,0
3.0,-252.0,-66.0,5.0,63.0,-4.0,0
2.0,-249.0,-68.0,7.0,62.0,-4.0,0
3.0,-249.0,-69.0,11.0,64.0,-5.0,0
1.0,-249.0,-69.0,13.0,62.0,-5.0,0
1.0,-251.0,-65.0,15.0,64.0,-6.0,0
1.0,-247.0,-67.0,15.0,64.0,-5.0,0
1.0,-246.0,-67.0,12.0,65.0,-5.0,0
2.0,-247.0,-71.0,7.0,66.0,-5.0,0
0.0,-247.0,-70.0,3.0,64.0,-4.0,0
1.0,-249.0,-69.0,0.0,64.0,-5.0,0
0.0,-248.0,-67.0,-3.0,64.0,-5.0,0
1.0,-249.0,-62.0,-4.0,62.0,-6.0,0
1.0,-247.0,-67.0,-5.0,62.0,-5.0,0
0.0,-248.0,-63.0,-6.0,61.0,-7.0,0
1.0,-250.0,-68.0,-5.0,63.0,-5.0,0
0.0,-249.0,-65.0,-4.0,63.0,-4.0,0
2.0,-252.0,-64.0,-3.0,63.0,-3.0,0
0.0,-250.0,-67.0,-2.0,63.0,-3.0,0
0.0,-250.0,-66.0,1.0,62.0,-4.0,0
2.0,-252.0,-69.0,2.0,62.0,-4.0,0
2.0,-252.0,-65.0,4.0,61.0,-4.0,0
4.0,-248.0,-65.0,4.0,59.0,-4.0,0
0.0,-249.0,-67.0,4.0,60.0,-4.0,0
1.0,-251.0,-67.0,5.0,62.0,-5.0,0
3.0,-251.0,-68.0,6.0,63.0,-5.0,0
0.0,-251.0,-66.0,4.0,64.0,-4.0,0
3.0,-249.0,-67.0,3.0,65.0,-5.0,0
3.0,-251.0,-67.0,2.0,64.0,-4.0,0
2.0,-248.0,-65.0,2.0,66.0,-4.0,0
1.0,-249.0,-66.0,3.0,64.0,-3.0,0
5.0,-251.0,-62.0,3.0,64.0,-2.0,0
3.0,-249.0,-68.0,4.0,63.0,-1.0,0
1.0,-248.0,-68.0,5.0,63.0,-2.0,0
2.0,-251.0,-67.0,4.0,61.0,-2.0,0
1.0,-250.0,-66.0,2.0,62.0,-3.0,0
1.0,-249.0,-65.0,-1.0,62.0,-2.0,0
2.0,-249.0,-65.0,-3.0,62.0,-2.0,0
4.0,-251.0,-66.0,-3.0,63.0,-1.0,0
1.0,-253.0,-66.0,-2.0,64.0,-1.0,0
0.0,-249.0,-64.0,-1.0,66.0,-2.0,0
1.0,-250.0,-67.0,-1.0,68.0,0.0,0
2.0,-249.0,-66.0,1.0,68.0,-1.0,0
2.0,-247.0,-65.0,7.0,67.0,-1.0,0
4.0,-250.0,-65.0,10.0,67.0,0.0,0
1.0,-249.0,-65.0,13.0,66.0,0.0,0
1.0,-249.0,-67.0,15.0,67.0,0.0,0
1.0,-249.0,-65.0,14.0,65.0,0.0,0
0.0,-251.0,-64.0,14.0,63.0,-1.0,0
2.0,-251.0,-63.0,12.0,62.0,-2.0,0
0.0,-248.0,-65.0,10.0,61.0,-1.0,0
2.0,-248.0,-65.0,10.0,58.0,-1.0,0
3.0,-247.0,-65.0,8.0,59.0,-2.0,0
1.0,-249.0,-68.0,4.0,59.0,-2.0,0
0.0,-248.0,-62.0,2.0,60.0,-2.0,0
0.0,-248.0,-68.0,0.0,60.0,-2.0,0
1.0,-249.0,-63.0,-2.0,62.0,-2.0,0
2.0,-250.0,-64.0,-1.0,64.0,-1.0,0
1.0,-249.0,-66.0,0.0,65.0,-1.0,0
3.0,-252.0,-64.0,2.0,66.0,-1.0,0
3.0,-250.0,-65.0,3.0,65.0,-1.0,0
1.0,-250.0,-63.0,5.0,63.0,-2.0,0
2.0,-248.0,-68.0,7.0,65.0,-1.0,0
1.0,-250.0,-65.0,9.0,64.0,-1.0,0
2.0,-250.0,-63.0,11.0,64.0,-1.0,0
2.0,-248.0,-63.0,11.0,65.0,-1.0,0
0.0,-247.0,-66.0,11.0,64.0,-1.0,0
1.0,-248.0,-64.0,11.0,63.0,-2.0,0
2.0,-248.0,-65.0,10.0,63.0,-2.0,0
3.0,-249.0,-66.0,8.0,64.0,-4.0,0
1.0,-248.0,-62.0,5.0,64.0,-4.0,0
0.0,-248.0,-64.0,4.0,65.0,-4.0,0
2.0,-248.0,-67.0,3.0,63.0,-4.0,0
1.0,-249.0,-65.0,2.0,64.0,-4.0,0
3.0,-253.0,-63.0,1.0,63.0,-3.0,0
3.0,-252.0,-65.0,0.0,64.0,-2.0,0
1.0,-249.0,-65.0,0.0,63.0,-3.0,0
5.0,-249.0,-66.0,0.0,63.0,-3.0,0
3.0,-250.0,-66.0,-1.0,63.0,-2.0,0
2.0,-248.0,-65.0,1.0,62.0,-4.0,0
4.0,-249.0,-64.0,2.0,62.0,-2.0,0
3.0,-253.0,-64.0,4.0,63.0,-2.0,0
2.0,-249.0,-62.0,5.0,62.0,-3.0,0
2.0,-250.0,-65.0,8.0,63.0,-4.0,0
3.0,-249.0,-63.0,9.0,66.0,-3.0,0
1.0,-249.0,-62.0,10.0,66.0,-5.0,0
0.0,-248.0,-63.0,10.0,64.0,-5.0,0
6.0,-247.0,-68.0,10.0,65.0,-6.0,0
0.0,-248.0,-67.0,8.0,65.0,-5.0,0
2.0,-248.0,-67.0,5.0,65.0,-5.0,0
2.0,-248.0,-63.0,3.0,66.0,-5.0,0
3.0,-248.0,-68.0,-1.0,67.0,-6.0,0
1.0,-250.0,-67.0,-1.0,68.0,-5.0,0
4.0,-252.0,-67.0,-4.0,69.0,-7.0,0
1.0,-248.0,-62.0,-4.0,69.0,-7.0,0
1.0,-247.0,-66.0,-3.0,69.0,-5.0,0
1.0,-248.0,-65.0,-2.0,71.0,-5.0,0
3.0,-249.0,-65.0,-1.0,71.0,-5.0,0
3.0,-248.0,-63.0,-3.0,69.0,-3.0,0
1.0,-250.0,-64.0,-4.0,66.0,-4.0,0
2.0,-255.0,-67.0,-6.0,66.0,-2.0,0
0.0,-248.0,-63.0,-6.0,65.0,-3.0,0
0.0,-250.0,-62.0,0.0,66.0,-3.0,0
2.0,-249.0,-69.0,6.0,67.0,-3.0,0
1.0,-248.0,-66.0,9.0,65.0,-3.0,0
1.0,-249.0,-67.0,12.0,66.0,-5.0,0
3.0,-251.0,-64.0,9.0,68.0,-4.0,0
2.0,-251.0,-60.0,7.0,70.0,-3.0,0
1.0,-250.0,-65.0,5.0,71.0,-4.0,0
2.0,-249.0,-66.0,2.0,71.0,-3.0,0
1.0,-249.0,-65.0,2.0,70.0,-3.0,0
2.0,-249.0,-62.0,-1.0,69.0,-1.0,0
2.0,-250.0,-61.0,-1.0,70.0,-1.0,0
0.0,-253.0,-64.0,-1.0,70.0,-1.0,0
1.0,-251.0,-63.0,-3.0,73.0,0.0,0
1.0,-251.0,-62.0,-3.0,74.0,2.0,0
2.0,-249.0,-64.0,-1.0,75.0,3.0,0
2.0,-250.0,-61.0,-1.0,75.0,3.0,0
4.0,-251.0,-64.0,0.0,74.0,1.0,0
-1.0,-248.0,-66.0,0.0,74.0,-1.0,0
3.0,-249.0,-65.0,2.0,74.0,0.0,0
1.0,-249.0,-63.0,4.0,74.0,-1.0,0
0.0,-249.0,-65.0,1.0,73.0,-2.0,0
2.0,-250.0,-66.0,-3.0,74.0,-3.0,0
2.0,-249.0,-65.0,-6.0,74.0,-3.0,0
2.0,-251.0,-65.0,-9.0,73.0,-3.0,0
3.0,-252.0,-65.0,-11.0,73.0,-3.0,0
2.0,-252.0,-64.0,-10.0,73.0,-2.0,0
0.0,-251.0,-68.0,-7.0,73.0,-2.0,0
2.0,-253.0,-64.0,-3.0,73.0,-1.0,0
5.0,-251.0,-59.0,-1.0,74.0,0.0,0
2.0,-250.0,-62.0,1.0,72.0,0.0,0
1.0,-251.0,-65.0,2.0,73.0,0.0,0
1.0,-251.0,-62.0,2.0,74.0,-1.0,0
1.0,-250.0,-67.0,0.0,73.0,0.0,0
0.0,-247.0,-64.0,0.0,73.0,0.0,0
1.0,-249.0,-66.0,-1.0,70.0,1.0,0
0.0,-252.0,-61.0,-1.0,70.0,2.0,0
0.0,-252.0,-66.0,0.0,72.0,1.0,0
2.0,-250.0,-65.0,0.0,71.0,2.0,0
4.0,-246.0,-65.0,1.0,70.0,0.0,0
0.0,-251.0,-62.0,1.0,69.0,-1.0,0
3.0,-251.0,-63.0,3.0,68.0,1.0,0
1.0,-248.0,-64.0,3.0,68.0,-1.0,0
-1.0,-248.0,-66.0,4.0,67.0,-1.0,0
2.0,-251.0,-64.0,5.0,66.0,-1.0,0
-2.0,-246.0,-64.0,6.0,66.0,-1.0,0
3.0,-249.0,-65.0,3.0,67.0,0.0,0
1.0,-250.0,-69.0,2.0,70.0,-1.0,0
0.0,-250.0,-61.0,3.0,70.0,1.0,0
1.0,-249.0,-65.0,1.0,69.0,3.0,0
2.0,-250.0,-64.0,2.0,71.0,4.0,0
2.0,-249.0,-60.0,0.0,71.0,3.0,0
3.0,-249.0,-62.0,0.0,71.0,4.0,0
2.0,-251.0,-61.0,-2.0,71.0,3.0,0
2.0,-249.0,-65.0,-4.0,71.0,3.0,0
0.0,-250.0,-66.0,-5.0,71.0,3.0,0
2.0,-252.0,-66.0,-5.0,71.0,3.0,0
0.0,-248.0,-61.0,-4.0,71.0,1.0,0
2.0,-249.0,-58.0,-3.0,71.0,2.0,0
1.0,-248.0,-63.0,-2.0,71.0,3.0,0
0.0,-249.0,-62.0,-3.0,71.0,2.0,0
0.0,-250.0,-64.0,-5.0,72.0,0.0,0
1.0,-249.0,-62.0,-6.0,72.0,0.0,0
0.0,-249.0,-65.0,-9.0,72.0,0.0,0
0.0,-249.0,-64.0,-9.0,71.0,-2.0,0
1.0,-250.0,-61.0,-10.0,69.0,0.0,0
1.0,-250.0,-60.0,-10.0,69.0,0.0,0
1.0,-249.0,-63.0,-9.0,67.0,-2.0,0
2.0,-250.0,-65.0,-7.0,64.0,-2.0,0
1.0,-249.0,-67.0,-6.0,65.0,-2.0,0
-2.0,-250.0,-67.0,-7.0,66.0,-2.0,0
4.0,-253.0,-67.0,-8.0,67.0,-3.0,0
1.0,-248.0,-61.0,-8.0,69.0,-3.0,0
0.0,-248.0,-63.0,-9.0,67.0,-3.0,0
0.0,-247.0,-67.0,-9.0,70.0,-4.0,0
2.0,-249.0,-61.0,-12.0,70.0,-4.0,0
2.0,-253.0,-62.0,-13.0,70.0,-4.0,0
0.0,-249.0,-61.0,-13.0,69.0,-4.0,0
2.0,-249.0,-65.0,-15.0,69.0,-4.0,0
4.0,-250.0,-61.0,-16.0,70.0,-5.0,0
3.0,-250.0,-59.0,-16.0,71.0,-5.0,0
2.0,-250.0,-65.0,-18.0,72.0,-4.0,0
1.0,-247.0,-63.0,-20.0,71.0,-5.0,0
1.0,-251.0,-62.0,-22.0,70.0,-6.0,0
3.0,-249.0,-62.0,-22.0,70.0,-5.0,0
0.0,-249.0,-65.0,-21.0,70.0,-6.0,0
3.0,-251.0,-64.0,-23.0,72.0,-7.0,0
2.0,-251.0,-60.0,-26.0,71.0,-7.0,0
1.0,-249.0,-64.0,-27.0,71.0,-5.0,0
1.0,-248.0,-63.0,-27.0,70.0,-7.0,0
1.0,-248.0,-60.0,-26.0,69.0,-6.0,0
3.0,-250.0,-64.0,-25.0,70.0,-5.0,0
0.0,-249.0,-64.0,-25.0,70.0,-5.0,0
3.0,-247.0,-62.0,-28.0,71.0,-6.0,0
0.0,-248.0,-62.0,-30.0,73.0,-4.0,0
7.0,-255.0,-59.0,-33.0,75.0,-4.0,0
1.0,-249.0,-63.0,-38.0,77.0,-4.0,0
2.0,-248.0,-62.0,-41.0,78.0,-4.0,0
0.0,-248.0,-64.0,-45.0,76.0,-5.0,0
4.0,-252.0,-64.0,-48.0,76.0,-3.0,0
0.0,-250.0,-60.0,-49.0,74.0,-3.0,0
2.0,-252.0,-60.0,-49.0,74.0,-3.0,0
0.0,-251.0,-62.0,-46.0,74.0,-2.0,0
1.0,-253.0,-62.0,-45.0,76.0,1.0,0
2.0,-250.0,-61.0,-43.0,76.0,2.0,0
4.0,-252.0,-64.0,-44.0,77.0,2.0,0
1.0,-251.0,-64.0,-46.0,75.0,4.0,0
0.0,-253.0,-63.0,-49.0,78.0,2.0,0
3.0,-254.0,-61.0,-51.0,79.0,2.0,0
2.0,-255.0,-58.0,-52.0,80.0,3.0,0
1.0,-255.0,-66.0,-49.0,80.0,4.0,0
2.0,-253.0,-66.0,-47.0,81.0,6.0,0
0.0,-254.0,-63.0,-42.0,82.0,6.0,0
-2.0,-251.0,-63.0,-37.0,83.0,4.0,0
1.0,-250.0,-67.0,-34.0,78.0,5.0,0
0.0,-250.0,-66.0,-35.0,76.0,5.0,0
0.0,-248.0,-65.0,-34.0,73.0,5.0,0
1.0,-249.0,-66.0,-33.0,73.0,2.0,0
0.0,-251.0,-65.0,-34.0,71.0,3.0,0
-1.0,-251.0,-65.0,-32.0,71.0,1.0,0
0.0,-250.0,-61.0,-32.0,71.0,2.0,0
0.0,-249.0,-64.0,-33.0,71.0,1.0,0
-2.0,-249.0,-60.0,-35.0,72.0,0.0,0
1.0,-252.0,-60.0,-36.0,72.0,0.0,0
0.0,-250.0,-60.0,-35.0,71.0,1.0,0
0.0,-250.0,-60.0,-36.0,70.0,0.0,0
1.0,-250.0,-61.0,-38.0,68.0,1.0,0
0.0,-250.0,-63.0,-38.0,66.0,1.0,0
0.0,-251.0,-66.0,-40.0,66.0,1.0,0
-1.0,-248.0,-64.0,-41.0,64.0,3.0,0
0.0,-250.0,-62.0,-44.0,64.0,2.0,0
2.0,-249.0,-61.0,-44.0,62.0,3.0,0
2.0,-249.0,-65.0,-44.0,64.0,2.0,0
5.0,-250.0,-63.0,-45.0,64.0,2.0,0
0.0,-250.0,-65.0,-44.0,62.0,2.0,0
3.0,-249.0,-63.0,-45.0,61.0,2.0,0
2.0,-249.0,-63.0,-46.0,58.0,1.0,0
2.0,-249.0,-66.0,-48.0,57.0,2.0,0
2.0,-252.0,-66.0,-53.0,57.0,2.0,0
5.0,-250.0,-63.0,-58.0,60.0,3.0,0
2.0,-250.0,-62.0,-58.0,63.0,4.0,0
3.0,-250.0,-63.0,-59.0,64.0,4.0,0
3.0,-249.0,-64.0,-58.0,66.0,2.0,0
1.0,-250.0,-66.0,-52.0,68.0,2.0,0
4.0,-251.0,-64.0,-48.0,68.0,1.0,0
2.0,-251.0,-66.0,-47.0,69.0,1.0,0
3.0,-250.0,-70.0,-48.0,70.0,1.0,0
0.0,-248.0,-63.0,-51.0,70.0,1.0,0
-1.0,-251.0,-66.0,-53.0,72.0,1.0,0
1.0,-249.0,-72.0,-55.0,70.0,0.0,0
0.0,-248.0,-67.0,-55.0,70.0,2.0,0
0.0,-248.0,-68.0,-58.0,68.0,2.0,0
0.0,-249.0,-69.0,-61.0,66.0,0.0,0
2.0,-249.0,-69.0,-64.0,66.0,2.0,0
0.0,-248.0,-70.0,-68.0,64.0,3.0,0
0.0,-247.0,-66.0,-73.0,63.0,5.0,0
-1.0,-247.0,-65.0,-78.0,59.0,5.0,0
1.0,-249.0,-65.0,-81.0,56.0,5.0,0
0.0,-249.0,-68.0,-83.0,55.0,9.0,0
0.0,-246.0,-71.0,-87.0,53.0,13.0,0
0.0,-243.0,-72.0,-100.0,52.0,17.0,0
-1.0,-244.0,-73.0,-116.0,53.0,21.0,0
-1.0,-243.0,-76.0,-142.0,51.0,24.0,0
0.0,-247.0,-77.0,-168.0,49.0,28.0,0
-1.0,-244.0,-78.0,-189.0,47.0,29.0,0
0.0,-242.0,-82.0,-209.0,51.0,32.0,0
0.0,-244.0,-84.0,-226.0,57.0,36.0,0
-1.0,-238.0,-88.0,-240.0,59.0,37.0,0
0.0,-243.0,-87.0,-254.0,63.0,39.0,0
2.0,-244.0,-87.0,-271.0,66.0,37.0,0
2.0,-241.0,-92.0,-288.0,68.0,37.0,0
2.0,-248.0,-87.0,-303.0,72.0,40.0,0
4.0,-249.0,-87.0,-316.0,76.0,40.0,0
1.0,-252.0,-87.0,-327.0,79.0,43.0,0
5.0,-253.0,-90.0,-331.0,80.0,48.0,0
4.0,-254.0,-89.0,-335.0,77.0,53.0,0
4.0,-256.0,-89.0,-335.0,71.0,60.0,0
2.0,-256.0,-90.0,-331.0,65.0,63.0,0
1.0,-258.0,-92.0,-325.0,57.0,67.0,0
0.0,-257.0,-90.0,-316.0,50.0,70.0,0
0.0,-254.0,-92.0,-304.0,49.0,70.0,0
-3.0,-251.0,-86.0,-293.0,48.0,70.0,0
0.0,-250.0,-92.0,-284.0,51.0,71.0,0
0.0,-247.0,-90.0,-281.0,58.0,72.0,0
0.0,-245.0,-88.0,-278.0,64.0,71.0,0
1.0,-242.0,-87.0,-276.0,72.0,71.0,0
0.0,-240.0,-84.0,-273.0,80.0,70.0,0
2.0,-237.0,-85.0,-270.0,84.0,72.0,0
2.0,-238.0,-81.0,-271.0,88.0,73.0,0
2.0,-231.0,-83.0,-273.0,95.0,74.0,0
-1.0,-232.0,-85.0,-274.0,99.0,74.0,0
5.0,-232.0,-84.0,-275.0,101.0,76.0,0
3.0,-225.0,-84.0,-278.0,102.0,79.0,0
1.0,-223.0,-81.0,-278.0,107.0,84.0,0
3.0,-222.0,-84.0,-281.0,112.0,88.0,0
0.0,-219.0,-84.0,-292.0,113.0,90.0,0
-1.0,-219.0,-85.0,-307.0,109.0,93.0,0
0.0,-219.0,-84.0,-326.0,107.0,93.0,0
0.0,-220.0,-82.0,-348.0,106.0,94.0,0
0.0,-217.0,-85.0,-369.0,107.0,95.0,0
-2.0,-221.0,-88.0,-388.0,108.0,94.0,0
-8.0,-219.0,-91.0,-404.0,112.0,96.0,0
-2.0,-225.0,-90.0,-416.0,117.0,97.0,0
0.0,-225.0,-89.0,-428.0,123.0,101.0,0
2.0,-226.0,-90.0,-436.0,128.0,103.0,0
0.0,-227.0,-94.0,-446.0,135.0,106.0,0
-2.0,-229.0,-98.0,-458.0,142.0,110.0,0
1.0,-230.0,-99.0,-471.0,146.0,113.0,0
-1.0,-232.0,-98.0,-485.0,149.0,118.0,0
-4.0,-232.0,-102.0,-495.0,149.0,123.0,0
-7.0,-231.0,-102.0,-505.0,142.0,130.0,0
-5.0,-227.0,-102.0,-513.0,128.0,137.0,0
-8.0,-228.0,-102.0,-521.0,111.0,144.0,0
-11.0,-227.0,-105.0,-528.0,87.0,151.0,0
-12.0,-221.0,-104.0,-538.0,63.0,156.0,0
-18.0,-216.0,-102.0,-547.0,40.0,161.0,0
-20.0,-213.0,-102.0,-555.0,16.0,165.0,0
-20.0,-208.0,-105.0,-570.0,-8.0,173.0,0
-23.0,-200.0,-104.0,-589.0,-28.0,179.0,0
-26.0,-194.0,-110.0,-613.0,-45.0,185.0,0
-25.0,-192.0,-106.0,-641.0,-60.0,191.0,0
-35.0,-185.0,-111.0,-668.0,-75.0,196.0,0
-30.0,-183.0,-105.0,-696.0,-88.0,201.0,0
-33.0,-179.0,-109.0,-721.0,-104.0,205.0,0
-32.0,-179.0,-106.0,-740.0,-118.0,207.0,0
-35.0,-182.0,-102.0,-755.0,-131.0,211.0,0
-31.0,-174.0,-98.0,-764.0,-143.0,209.0,0
-24.0,-177.0,-100.0,-764.0,-153.0,205.0,0
-25.0,-175.0,-96.0,-756.0,-162.0,201.0,0
-27.0,-175.0,-91.0,-743.0,-169.0,197.0,0
-22.0,-176.0,-90.0,-727.0,-175.0,194.0,0
-18.0,-175.0,-96.0,-714.0,-174.0,191.0,0
-16.0,-175.0,-95.0,-704.0,-167.0,191.0,0
-15.0,-177.0,-95.0,-695.0,-157.0,193.0,0
-10.0,-177.0,-103.0,-686.0,-140.0,194.0,0
-9.0,-178.0,-101.0,-678.0,-125.0,199.0,0
-5.0,-178.0,-100.0,-669.0,-110.0,203.0,0
-2.0,-181.0,-103.0,-659.0,-101.0,208.0,0
0.0,-177.0,-104.0,-648.0,-98.0,215.0,0
2.0,-177.0,-107.0,-643.0,-101.0,224.0,0
2.0,-174.0,-109.0,-643.0,-107.0,236.0,0
1.0,-170.0,-110.0,-651.0,-115.0,250.0,0
4.0,-171.0,-108.0,-664.0,-127.0,266.0,0
1.0,-167.0,-109.0,-681.0,-139.0,278.0,0
0.0,-168.0,-107.0,-700.0,-147.0,285.0,0
0.0,-164.0,-104.0,-715.0,-154.0,289.0,0
-2.0,-163.0,-110.0,-733.0,-157.0,289.0,0
-10.0,-169.0,-107.0,-755.0,-152.0,282.0,0
-15.0,-164.0,-110.0,-778.0,-143.0,273.0,0
-23.0,-162.0,-120.0,-811.0,-129.0,255.0,0
-27.0,-161.0,-123.0,-849.0,-109.0,235.0,0
-32.0,-163.0,-122.0,-889.0,-83.0,212.0,0
-34.0,-161.0,-122.0,-924.0,-47.0,189.0,0
-34.0,-165.0,-124.0,-954.0,-7.0,169.0,0
-33.0,-165.0,-117.0,-974.0,34.0,146.0,0
-32.0,-165.0,-117.0,-980.0,73.0,128.0,0
-29.0,-163.0,-114.0,-973.0,108.0,113.0,0
-27.0,-163.0,-111.0,-955.0,136.0,102.0,0
-24.0,-159.0,-119.0,-934.0,154.0,100.0,0
-19.0,-157.0,-120.0,-921.0,159.0,99.0,0
-15.0,-159.0,-122.0,-922.0,157.0,104.0,0
-12.0,-158.0,-123.0,-933.0,149.0,116.0,0
-7.0,-161.0,-117.0,-947.0,136.0,133.0,0
-8.0,-169.0,-115.0,-953.0,119.0,156.0,0
-3.0,-171.0,-117.0,-948.0,100.0,188.0,0
-1.0,-176.0,-110.0,-937.0,84.0,218.0,0
0.0,-181.0,-109.0,-913.0,68.0,249.0,0
-4.0,-187.0,-114.0,-876.0,55.0,274.0,0
-4.0,-188.0,-115.0,-841.0,34.0,296.0,0
-8.0,-187.0,-121.0,-812.0,2.0,315.0,0
-10.0,-188.0,-125.0,-795.0,-36.0,332.0,0
-12.0,-188.0,-133.0,-789.0,-73.0,340.0,0
-17.0,-186.0,-137.0,-785.0,-104.0,336.0,0
-21.0,-185.0,-140.0,-780.0,-118.0,319.0,0
-23.0,-185.0,-139.0,-775.0,-115.0,303.0,0
-28.0,-187.0,-143.0,-769.0,-101.0,287.0,0
-29.0,-185.0,-138.0,-758.0,-72.0,270.0,0
-30.0,-185.0,-145.0,-744.0,-34.0,255.0,0
-35.0,-184.0,-148.0,-732.0,5.0,240.0,0
-38.0,-181.0,-150.0,-729.0,41.0,232.0,0
-36.0,-184.0,-151.0,-736.0,69.0,223.0,0
-38.0,-188.0,-146.0,-737.0,90.0,211.0,0
-36.0,-188.0,-146.0,-721.0,107.0,202.0,0
-34.0,-194.0,-144.0,-693.0,127.0,200.0,0
-34.0,-196.0,-142.0,-665.0,153.0,202.0,0
-30.0,-199.0,-140.0,-650.0,188.0,206.0,0
-34.0,-198.0,-143.0,-654.0,222.0,214.0,0
-31.0,-205.0,-136.0,-654.0,245.0,225.0,0
-26.0,-209.0,-140.0,-637.0,260.0,235.0,0
-24.0,-211.0,-147.0,-616.0,265.0,243.0,0
-17.0,-224.0,-144.0,-596.0,263.0,257.0,0
-17.0,-213.0,-153.0,-573.0,265.0,269.0,0
-20.0,-221.0,-165.0,-561.0,265.0,293.0,0
-16.0,-221.0,-172.0,-546.0,246.0,313.0,0
-14.0,-218.0,-188.0,-538.0,220.0,327.0,0
-11.0,-216.0,-192.0,-540.0,204.0,332.0,0
-13.0,-209.0,-196.0,-546.0,203.0,324.0,0
-15.0,-210.0,-193.0,-572.0,221.0,304.0,0
-23.0,-207.0,-182.0,-594.0,242.0,278.0,0
-25.0,-208.0,-176.0,-613.0,269.0,249.0,0
-34.0,-206.0,-170.0,-624.0,292.0,220.0,0
-35.0,-203.0,-167.0,-626.0,305.0,192.0,0
-42.0,-209.0,-163.0,-629.0,313.0,171.0,0
-46.0,-211.0,-164.0,-635.0,322.0,154.0,0
-43.0,-212.0,-165.0,-641.0,342.0,143.0,0
-45.0,-217.0,-170.0,-639.0,370.0,136.0,0
-42.0,-222.0,-171.0,-624.0,400.0,140.0,0
-42.0,-229.0,-174.0,-594.0,434.0,142.0,0
-38.0,-231.0,-180.0,-544.0,458.0,140.0,0
-36.0,-229.0,-186.0,-492.0,465.0,138.0,0
-34.0,-225.0,-193.0,-456.0,460.0,138.0,0
-33.0,-226.0,-195.0,-424.0,451.0,148.0,0
-32.0,-227.0,-192.0,-400.0,436.0,162.0,0
-28.0,-229.0,-188.0,-380.0,417.0,176.0,0
-29.0,-227.0,-190.0,-359.0,402.0,194.0,0
-32.0,-223.0,-191.0,-348.0,386.0,212.0,0
-32.0,-219.0,-191.0,-343.0,369.0,229.0,0
-30.0,-216.0,-192.0,-340.0,348.0,239.0,0
-31.0,-210.0,-191.0,-347.0,325.0,245.0,0
-33.0,-210.0,-193.0,-361.0,303.0,241.0,0
-36.0,-201.0,-191.0,-383.0,287.0,227.0,0
-39.0,-201.0,-191.0,-407.0,279.0,216.0,0
-38.0,-199.0,-182.0,-422.0,278.0,200.0,0
-41.0,-200.0,-180.0,-425.0,285.0,183.0,0
-41.0,-198.0,-176.0,-420.0,299.0,167.0,0
-44.0,-198.0,-184.0,-403.0,315.0,149.0,0
-43.0,-194.0,-185.0,-380.0,327.0,138.0,0
-38.0,-191.0,-187.0,-363.0,341.0,131.0,0
-33.0,-188.0,-192.0,-356.0,354.0,129.0,0
-33.0,-192.0,-199.0,-359.0,368.0,122.0,0
-32.0,-192.0,-199.0,-369.0,376.0,125.0,0
-32.0,-196.0,-195.0,-379.0,377.0,128.0,0
-27.0,-202.0,-200.0,-385.0,374.0,137.0,0
-28.0,-200.0,-201.0,-386.0,371.0,144.0,0
-28.0,-200.0,-205.0,-383.0,370.0,152.0,0
-26.0,-203.0,-200.0,-376.0,373.0,158.0,0
-22.0,-200.0,-203.0,-367.0,377.0,158.0,0
-22.0,-199.0,-203.0,-356.0,385.0,160.0,0
-28.0,-196.0,-204.0,-337.0,392.0,158.0,0
-21.0,-197.0,-201.0,-314.0,398.0,157.0,0
-27.0,-194.0,-202.0,-294.0,402.0,156.0,0
-23.0,-194.0,-199.0,-276.0,403.0,158.0,0
-28.0,-186.0,-197.0,-261.0,408.0,162.0,0
-25.0,-189.0,-197.0,-248.0,412.0,168.0,0
-24.0,-190.0,-197.0,-237.0,415.0,173.0,0
-24.0,-187.0,-200.0,-224.0,416.0,181.0,0
-25.0,-190.0,-200.0,-209.0,413.0,187.0,0
-25.0,-190.0,-198.0,-197.0,411.0,190.0,0
-25.0,-185.0,-199.0,-184.0,405.0,190.0,0
-25.0,-185.0,-197.0,-175.0,399.0,184.0,0
-24.0,-187.0,-194.0,-174.0,397.0,180.0,0
-24.0,-187.0,-196.0,-176.0,395.0,175.0,0
-21.0,-187.0,-198.0,-179.0,399.0,179.0,0
-27.0,-186.0,-192.0,-180.0,404.0,183.0,0
-25.0,-184.0,-189.0,-179.0,407.0,190.0,0
-30.0,-182.0,-191.0,-177.0,411.0,201.0,0
-25.0,-181.0,-195.0,-176.0,418.0,205.0,0
-25.0,-182.0,-199.0,-176.0,427.0,209.0,0
-27.0,-182.0,-196.0,-172.0,436.0,213.0,0
-24.0,-180.0,-199.0,-174.0,443.0,216.0,0
-21.0,-179.0,-198.0,-180.0,448.0,218.0,0
-19.0,-180.0,-200.0,-187.0,453.0,218.0,0
-16.0,-184.0,-201.0,-195.0,462.0,215.0,0
-17.0,-184.0,-206.0,-197.0,471.0,213.0,0
-17.0,-189.0,-205.0,-194.0,482.0,211.0,0
-19.0,-193.0,-208.0,-182.0,491.0,207.0,0
-18.0,-195.0,-207.0,-164.0,497.0,203.0,0
-24.0,-195.0,-205.0,-135.0,501.0,203.0,0
-25.0,-194.0,-203.0,-103.0,504.0,204.0,0
-25.0,-191.0,-207.0,-73.0,504.0,210.0,0
-28.0,-190.0,-201.0,-50.0,502.0,216.0,0
-25.0,-186.0,-202.0,-32.0,498.0,223.0,0
-27.0,-182.0,-200.0,-20.0,492.0,224.0,0
-22.0,-183.0,-201.0,-16.0,483.0,223.0,0
-24.0,-181.0,-205.0,-13.0,476.0,217.0,0
-26.0,-178.0,-205.0,-16.0,472.0,212.0,0
-22.0,-177.0,-208.0,-29.0,470.0,204.0,0
-22.0,-174.0,-209.0,-48.0,472.0,196.0,0
-22.0,-176.0,-207.0,-66.0,469.0,188.0,0
-23.0,-173.0,-208.0,-80.0,472.0,180.0,0
-24.0,-179.0,-210.0,-90.0,472.0,177.0,0
-24.0,-180.0,-204.0,-98.0,468.0,172.0,0
-30.0,-179.0,-205.0,-102.0,459.0,168.0,0
-29.0,-179.0,-204.0,-105.0,455.0,165.0,0
-30.0,-181.0,-205.0,-108.0,447.0,161.0,0
-30.0,-182.0,-206.0,-109.0,440.0,153.0,0
-24.0,-184.0,-205.0,-107.0,428.0,150.0,0
-22.0,-184.0,-207.0,-96.0,411.0,150.0,0
-20.0,-186.0,-206.0,-78.0,388.0,155.0,0
-16.0,-184.0,-205.0,-58.0,365.0,159.0,0
-17.0,-184.0,-202.0,-39.0,339.0,165.0,0
-16.0,-183.0,-206.0,-22.0,312.0,170.0,0
-20.0,-183.0,-204.0,-8.0,289.0,174.0,0
-14.0,-182.0,-207.0,4.0,266.0,174.0,0
-19.0,-177.0,-204.0,13.0,250.0,173.0,0
-17.0,-177.0,-205.0,16.0,237.0,173.0,0
-19.0,-177.0,-206.0,16.0,230.0,171.0,0
-20.0,-178.0,-204.0,17.0,225.0,171.0,0
-20.0,-173.0,-199.0,20.0,223.0,169.0,0
-17.0,-170.0,-201.0,25.0,228.0,169.0,0
-15.0,-173.0,-197.0,30.0,231.0,169.0,0
-15.0,-171.0,-201.0,38.0,235.0,166.0,0
-12.0,-173.0,-201.0,45.0,239.0,160.0,0
-13.0,-173.0,-195.0,56.0,243.0,155.0,0
-12.0,-175.0,-198.0,70.0,240.0,149.0,0
-14.0,-177.0,-201.0,89.0,232.0,144.0,0
-13.0,-179.0,-204.0,113.0,220.0,142.0,0
-14.0,-179.0,-206.0,136.0,205.0,142.0,0
-15.0,-179.0,-205.0,160.0,189.0,141.0,0
-14.0,-174.0,-212.0,187.0,177.0,139.0,0
-17.0,-177.0,-209.0,210.0,170.0,137.0,0
-17.0,-179.0,-212.0,225.0,166.0,135.0,0
-17.0,-178.0,-213.0,236.0,167.0,134.0,0
-14.0,-176.0,-213.0,244.0,175.0,134.0,0
-17.0,-175.0,-213.0,244.0,184.0,132.0,0
-15.0,-173.0,-211.0,234.0,192.0,129.0,0
-13.0,-171.0,-209.0,214.0,200.0,126.0,0
-13.0,-175.0,-213.0,193.0,203.0,123.0,0
-14.0,-171.0,-211.0,168.0,205.0,122.0,0
-11.0,-172.0,-210.0,143.0,203.0,117.0,0
-15.0,-174.0,-204.0,116.0,202.0,110.0,0
-19.0,-171.0,-204.0,86.0,203.0,104.0,0
-18.0,-166.0,-206.0,60.0,202.0,97.0,0
-16.0,-171.0,-207.0,38.0,197.0,94.0,0
-17.0,-174.0,-201.0,26.0,190.0,95.0,0
-15.0,-176.0,-202.0,20.0,180.0,100.0,0
-13.0,-178.0,-201.0,16.0,163.0,102.0,0
-15.0,-175.0,-199.0,16.0,150.0,106.0,0
-15.0,-179.0,-198.0,16.0,136.0,109.0,0
-19.0,-181.0,-199.0,12.0,124.0,112.0,0
-19.0,-181.0,-201.0,10.0,116.0,113.0,0
-17.0,-181.0,-198.0,4.0,109.0,111.0,0
-16.0,-184.0,-197.0,4.0,106.0,111.0,0
-19.0,-181.0,-200.0,9.0,101.0,114.0,0
-13.0,-183.0,-199.0,16.0,97.0,119.0,0
-14.0,-181.0,-202.0,28.0,96.0,125.0,0
-13.0,-178.0,-204.0,46.0,90.0,129.0,0
-10.0,-178.0,-200.0,63.0,81.0,128.0,0
-7.0,-178.0,-200.0,81.0,68.0,126.0,0
-9.0,-177.0,-200.0,103.0,49.0,120.0,0
-4.0,-179.0,-202.0,124.0,26.0,111.0,0
-2.0,-178.0,-197.0,143.0,5.0,103.0,0
-3.0,-176.0,-195.0,156.0,-11.0,93.0,0
-7.0,-179.0,-196.0,162.0,-23.0,84.0,0
-6.0,-176.0,-198.0,163.0,-25.0,74.0,0
-1.0,-176.0,-202.0,162.0,-23.0,61.0,0
-1.0,-183.0,-204.0,158.0,-11.0,50.0,0
-1.0,-185.0,-203.0,156.0,0.0,41.0,0
-5.0,-183.0,-204.0,160.0,8.0,33.0,0
-2.0,-182.0,-202.0,167.0,13.0,28.0,0
-2.0,-180.0,-205.0,174.0,11.0,23.0,0
0.0,-180.0,-205.0,181.0,8.0,18.0,0
-3.0,-182.0,-208.0,186.0,4.0,16.0,0
-5.0,-182.0,-209.0,187.0,0.0,14.0,0
-11.0,-181.0,-209.0,185.0,-4.0,11.0,0
-11.0,-183.0,-207.0,179.0,-2.0,6.0,0
-11.0,-183.0,-210.0,177.0,5.0,0.0,0
-11.0,-184.0,-210.0,174.0,18.0,-7.0,0
-14.0,-182.0,-211.0,170.0,32.0,-13.0,0
-14.0,-181.0,-210.0,163.0,46.0,-16.0,0
-16.0,-181.0,-210.0,152.0,56.0,-18.0,0
-14.0,-180.0,-204.0,141.0,62.0,-16.0,0
-12.0,-179.0,-208.0,125.0,66.0,-11.0,0
-13.0,-182.0,-205.0,108.0,66.0,-9.0,0
-12.0,-180.0,-206.0,92.0,66.0,-6.0,0
-13.0,-184.0,-192.0,77.0,63.0,-4.0,0
-14.0,-178.0,-202.0,63.0,63.0,-3.0,0
-16.0,-179.0,-204.0,50.0,63.0,-1.0,0
-18.0,-177.0,-203.0,38.0,63.0,1.0,0
-15.0,-180.0,-206.0,32.0,65.0,6.0,0
-17.0,-176.0,-205.0,30.0,65.0,10.0,0
-15.0,-181.0,-206.0,30.0,67.0,16.0,0
-19.0,-179.0,-204.0,33.0,64.0,22.0,0
-17.0,-180.0,-205.0,41.0,58.0,26.0,0
-18.0,-178.0,-204.0,49.0,55.0,30.0,0
-15.0,-178.0,-205.0,58.0,52.0,32.0,0
-12.0,-180.0,-207.0,64.0,51.0,33.0,0
-15.0,-179.0,-203.0,67.0,53.0,34.0,0
-11.0,-178.0,-205.0,66.0,55.0,35.0,0
-12.0,-176.0,-204.0,64.0,57.0,35.0,0
-11.0,-176.0,-198.0,59.0,59.0,33.0,0
-12.0,-174.0,-198.0,51.0,61.0,30.0,0
-16.0,-175.0,-198.0,41.0,64.0,24.0,0
-18.0,-174.0,-202.0,35.0,67.0,18.0,0
-17.0,-175.0,-200.0,32.0,68.0,11.0,0
-17.0,-179.0,-197.0,32.0,67.0,6.0,0
-18.0,-180.0,-198.0,34.0,67.0,-1.0,0
-11.0,-181.0,-199.0,38.0,63.0,-7.0,0
-17.0,-180.0,-196.0,46.0,59.0,-13.0,0
-15.0,-181.0,-197.0,54.0,52.0,-17.0,0
-18.0,-180.0,-198.0,63.0,44.0,-19.0,0
-15.0,-178.0,-202.0,72.0,37.0,-22.0,0
-16.0,-181.0,-200.0,80.0,32.0,-25.0,0
-12.0,-181.0,-196.0,88.0,26.0,-26.0,0
-7.0,-179.0,-198.0,96.0,24.0,-25.0,0
-5.0,-178.0,-193.0,104.0,25.0,-22.0,0
-9.0,-175.0,-194.0,107.0,26.0,-15.0,0
-10.0,-175.0,-195.0,105.0,29.0,-9.0,0
-13.0,-173.0,-201.0,100.0,37.0,-2.0,0
-16.0,-173.0,-202.0,92.0,44.0,1.0,0
-16.0,-178.0,-202.0,82.0,53.0,-2.0,0
-16.0,-174.0,-200.0,75.0,60.0,-6.0,0
-18.0,-175.0,-198.0,64.0,66.0,-10.0,0
-19.0,-178.0,-201.0,57.0,68.0,-13.0,0
-18.0,-180.0,-198.0,50.0,70.0,-13.0,0
-20.0,-183.0,-195.0,46.0,68.0,-9.0,0
-19.0,-181.0,-195.0,42.0,67.0,-6.0,0
-18.0,-181.0,-197.0,38.0,62.0,-2.0,0
-19.0,-179.0,-194.0,38.0,59.0,3.0,0
-19.0,-177.0,-190.0,35.0,57.0,4.0,0
-20.0,-177.0,-198.0,31.0,56.0,4.0,0
-22.0,-177.0,-200.0,23.0,55.0,4.0,0
-18.0,-176.0,-201.0,14.0,57.0,3.0,0
-20.0,-179.0,-192.0,7.0,63.0,0.0,0
-18.0,-176.0,-194.0,0.0,69.0,0.0,0
-16.0,-177.0,-189.0,-11.0,75.0,2.0,0
-17.0,-175.0,-190.0,-20.0,80.0,5.0,0
-17.0,-175.0,-192.0,-28.0,86.0,10.0,0
-17.0,-179.0,-188.0,-34.0,92.0,10.0,0
-18.0,-176.0,-187.0,-38.0,98.0,9.0,0
-20.0,-173.0,-194.0,-41.0,104.0,6.0,0
-18.0,-176.0,-194.0,-39.0,106.0,5.0,0
-17.0,-175.0,-187.0,-34.0,105.0,5.0,0
-17.0,-177.0,-189.0,-28.0,98.0,7.0,0
-22.0,-172.0,-184.0,-22.0,88.0,6.0,0
-20.0,-176.0,-184.0,-16.0,76.0,4.0,0
-20.0,-171.0,-181.0,-8.0,64.0,5.0,0
-18.0,-175.0,-188.0,-4.0,52.0,7.0,0
-18.0,-172.0,-184.0,-2.0,41.0,11.0,0
-14.0,-173.0,-185.0,-1.0,36.0,13.0,0
-16.0,-172.0,-190.0,-1.0,33.0,16.0,0
-13.0,-175.0,-191.0,-2.0,36.0,17.0,0
-14.0,-175.0,-188.0,-5.0,41.0,17.0,0
-13.0,-174.0,-191.0,-7.0,49.0,14.0,0
-14.0,-177.0,-191.0,-8.0,56.0,13.0,0
-14.0,-173.0,-189.0,-6.0,64.0,11.0,0
-11.0,-175.0,-187.0,-3.0,71.0,10.0,0
-18.0,-173.0,-184.0,0.0,75.0,10.0,0
-13.0,-176.0,-188.0,4.0,80.0,11.0,0
-15.0,-175.0,-189.0,4.0,84.0,13.0,0
-17.0,-177.0,-184.0,1.0,86.0,14.0,0
-19.0,-172.0,-187.0,-1.0,88.0,19.0,0
-17.0,-177.0,-184.0,-5.0,90.0,19.0,0
-21.0,-171.0,-189.0,-7.0,90.0,16.0,0
-16.0,-175.0,-184.0,-12.0,89.0,16.0,0
-16.0,-171.0,-187.0,-19.0,89.0,14.0,0
-20.0,-174.0,-184.0,-28.0,91.0,11.0,0
-16.0,-173.0,-184.0,-37.0,92.0,7.0,0
-19.0,-172.0,-184.0,-43.0,94.0,6.0,0
-20.0,-173.0,-185.0,-46.0,92.0,7.0,0
-16.0,-176.0,-182.0,-48.0,90.0,5.0,0
-18.0,-175.0,-186.0,-47.0,87.0,3.0,0
-19.0,-176.0,-183.0,-45.0,81.0,2.0,0
-22.0,-176.0,-184.0,-43.0,78.0,2.0,0
-15.0,-179.0,-182.0,-43.0,73.0,2.0,0
-15.0,-179.0,-183.0,-41.0,70.0,2.0,0
-14.0,-180.0,-183.0,-38.0,65.0,2.0,0
-15.0,-176.0,-186.0,-33.0,64.0,3.0,0
-16.0,-178.0,-189.0,-23.0,62.0,5.0,0
-15.0,-180.0,-185.0,-14.0,63.0,5.0,0
-15.0,-178.0,-186.0,-6.0,65.0,10.0,0
-15.0,-177.0,-188.0,-1.0,71.0,15.0,0
-14.0,-173.0,-189.0,-2.0,75.0,19.0,0
-14.0,-175.0,-185.0,-3.0,82.0,23.0,0
-10.0,-173.0,-186.0,-8.0,85.0,26.0,0
-16.0,-174.0,-187.0,-11.0,85.0,26.0,0
-15.0,-173.0,-188.0,-19.0,83.0,24.0,0
-15.0,-171.0,-189.0,-24.0,80.0,22.0,0
-13.0,-178.0,-186.0,-27.0,77.0,19.0,0
-16.0,-174.0,-186.0,-33.0,75.0,13.0,0
-17.0,-175.0,-186.0,-34.0,75.0,11.0,0
-14.0,-174.0,-187.0,-34.0,74.0,6.0,0
-18.0,-174.0,-185.0,-33.0,76.0,1.0,0
-14.0,-174.0,-189.0,-31.0,77.0,-4.0,0
-14.0,-171.0,-191.0,-28.0,80.0,-7.0,0
-15.0,-177.0,-187.0,-25.0,79.0,-12.0,0
-16.0,-172.0,-188.0,-24.0,77.0,-16.0,0
-17.0,-174.0,-185.0,-24.0,74.0,-16.0,0
-15.0,-178.0,-186.0,-25.0,68.0,-17.0,0
-15.0,-172.0,-186.0,-27.0,62.0,-16.0,0
-15.0,-175.0,-183.0,-27.0,60.0,-15.0,0
-14.0,-173.0,-183.0,-28.0,57.0,-13.0,0
-13.0,-174.0,-187.0,-28.0,57.0,-10.0,0
-10.0,-177.0,-187.0,-29.0,58.0,-7.0,0
-13.0,-175.0,-185.0,-29.0,62.0,-4.0,0
-14.0,-176.0,-190.0,-30.0,66.0,-1.0,0
-14.0,-175.0,-188.0,-31.0,74.0,0.0,0
-16.0,-175.0,-191.0,-30.0,81.0,1.0,0
-12.0,-175.0,-193.0,-30.0,86.0,-3.0,0
-16.0,-176.0,-187.0,-29.0,90.0,-4.0,0
-15.0,-177.0,-187.0,-26.0,92.0,-4.0,0
-14.0,-173.0,-189.0,-21.0,89.0,-5.0,0
-17.0,-171.0,-181.0,-15.0,85.0,-4.0,0
-17.0,-174.0,-187.0,-9.0,77.0,-4.0,0
-18.0,-169.0,-185.0,-3.0,69.0,-4.0,0
-17.0,-174.0,-186.0,1.0,61.0,-6.0,0
-15.0,-172.0,-187.0,1.0,55.0,-7.0,0
-14.0,-173.0,-191.0,-1.0,54.0,-9.0,0
-14.0,-171.0,-193.0,-6.0,58.0,-11.0,0
-14.0,-168.0,-192.0,-13.0,63.0,-15.0,0
-13.0,-174.0,-192.0,-19.0,72.0,-16.0,0
-13.0,-174.0,-188.0,-26.0,80.0,-18.0,0
-16.0,-173.0,-193.0,-29.0,87.0,-16.0,0
-13.0,-173.0,-188.0,-32.0,91.0,-14.0,0
-13.0,-175.0,-190.0,-34.0,95.0,-13.0,0
-15.0,-171.0,-192.0,-32.0,96.0,-9.0,0
-14.0,-173.0,-193.0,-29.0,97.0,-8.0,0
-16.0,-173.0,-194.0,-31.0,97.0,-7.0,0
-17.0,-174.0,-197.0,-30.0,98.0,-10.0,0
-19.0,-177.0,-193.0,-30.0,101.0,-11.0,0
-16.0,-176.0,-194.0,-29.0,103.0,-13.0,0
-17.0,-176.0,-194.0,-29.0,102.0,-14.0,0
-17.0,-179.0,-190.0,-27.0,103.0,-15.0,0
-15.0,-177.0,-187.0,-22.0,100.0,-13.0,0
-17.0,-177.0,-189.0,-19.0,99.0,-11.0,0
-14.0,-175.0,-189.0,-17.0,96.0,-7.0,0
-15.0,-177.0,-188.0,-16.0,90.0,-1.0,0
-17.0,-173.0,-191.0,-18.0,85.0,4.0,0
-20.0,-176.0,-198.0,-23.0,84.0,9.0,0
-16.0,-174.0,-190.0,-27.0,82.0,10.0,0
-19.0,-176.0,-191.0,-32.0,79.0,7.0,0
-16.0,-174.0,-192.0,-38.0,79.0,5.0,0
-16.0,-177.0,-189.0,-44.0,79.0,4.0,0
-19.0,-175.0,-187.0,-44.0,77.0,4.0,0
-21.0,-175.0,-189.0,-46.0,71.0,1.0,0
-19.0,-173.0,-188.0,-49.0,68.0,-1.0,0
-17.0,-174.0,-190.0,-52.0,63.0,-3.0,0
-16.0,-175.0,-188.0,-52.0,60.0,-6.0,0
-15.0,-175.0,-188.0,-51.0,61.0,-10.0,0
-14.0,-176.0,-188.0,-52.0,60.0,-13.0,0
-14.0,-175.0,-186.0,-53.0,62.0,-17.0,0
-15.0,-174.0,-189.0,-53.0,65.0,-22.0,0
-16.0,-172.0,-185.0,-50.0,66.0,-23.0,0
-12.0,-174.0,-186.0,-46.0,68.0,-23.0,0
-13.0,-171.0,-184.0,-39.0,68.0,-21.0,0
-15.0,-171.0,-186.0,-37.0,69.0,-17.0,0
-14.0,-170.0,-188.0,-35.0,70.0,-12.0,0
-13.0,-172.0,-188.0,-37.0,72.0,-8.0,0
-13.0,-171.0,-189.0,-36.0,73.0,-6.0,0
-14.0,-174.0,-190.0,-38.0,76.0,-7.0,0
-17.0,-172.0,-189.0,-38.0,76.0,-8.0,0
-18.0,-171.0,-186.0,-41.0,75.0,-13.0,0
-18.0,-170.0,-185.0,-43.0,74.0,-16.0,0
-15.0,-173.0,-190.0,-44.0,70.0,-19.0,0
-16.0,-173.0,-186.0,-42.0,67.0,-18.0,0
-17.0,-173.0,-188.0,-44.0,63.0,-19.0,0
-15.0,-173.0,-189.0,-47.0,63.0,-19.0,0
-16.0,-171.0,-185.0,-47.0,63.0,-20.0,0
-15.0,-174.0,-188.0,-50.0,63.0,-22.0,0
-15.0,-172.0,-191.0,-52.0,64.0,-23.0,0
-14.0,-174.0,-191.0,-51.0,65.0,-23.0,0
-15.0,-173.0,-187.0,-53.0,66.0,-21.0,0
-14.0,-173.0,-188.0,-55.0,67.0,-20.0,0
-10.0,-174.0,-188.0,-52.0,69.0,-18.0,0
-14.0,-171.0,-190.0,-48.0,71.0,-17.0,0
-15.0,-169.0,-190.0,-53.0,70.0,-13.0,0
-14.0,-171.0,-184.0,-55.0,70.0,-12.0,0
-11.0,-172.0,-183.0,-55.0,70.0,-11.0,0
-17.0,-170.0,-184.0,-52.0,70.0,-11.0,0
-15.0,-171.0,-184.0,-53.0,69.0,-13.0,0
-12.0,-170.0,-186.0,-56.0,68.0,-15.0,0
-12.0,-171.0,-186.0,-59.0,67.0,-18.0,0
-13.0,-173.0,-186.0,-65.0,66.0,-21.0,0
-14.0,-170.0,-185.0,-69.0,69.0,-22.0,0
-13.0,-169.0,-182.0,-72.0,72.0,-22.0,0
-14.0,-168.0,-187.0,-73.0,77.0,-23.0,0
-16.0,-168.0,-189.0,-74.0,81.0,-22.0,0
-14.0,-173.0,-187.0,-68.0,83.0,-22.0,0
-11.0,-171.0,-192.0,-57.0,85.0,-20.0,0
-12.0,-175.0,-191.0,-41.0,85.0,-17.0,0
-12.0,-178.0,-192.0,-23.0,82.0,-14.0,0
-13.0,-174.0,-195.0,-7.0,78.0,-12.0,0
-10.0,-173.0,-193.0,5.0,76.0,-11.0,0
-13.0,-173.0,-193.0,10.0,73.0,-11.0,0
-12.0,-172.0,-191.0,12.0,72.0,-9.0,0
-15.0,-171.0,-191.0,8.0,72.0,-7.0,0
-16.0,-170.0,-192.0,4.0,72.0,-9.0,0
-14.0,-171.0,-194.0,1.0,73.0,-9.0,0
-16.0,-169.0,-194.0,-5.0,74.0,-11.0,0
-15.0,-174.0,-189.0,-12.0,75.0,-11.0,0
-16.0,-171.0,-186.0,-18.0,75.0,-11.0,0
-16.0,-170.0,-188.0,-25.0,74.0,-11.0,0
-12.0,-170.0,-186.0,-29.0,72.0,-13.0,0
-17.0,-171.0,-189.0,-32.0,69.0,-9.0,0
-12.0,-171.0,-193.0,-36.0,67.0,-7.0,0
-14.0,-171.0,-193.0,-40.0,68.0,-6.0,0
-16.0,-173.0,-191.0,-45.0,69.0,-7.0,0
-17.0,-170.0,-192.0,-49.0,71.0,-6.0,0
-17.0,-172.0,-194.0,-52.0,74.0,-9.0,0
-15.0,-173.0,-189.0,-54.0,77.0,-10.0,0
-12.0,-173.0,-194.0,-47.0,79.0,-13.0,0
-16.0,-173.0,-192.0,-40.0,77.0,-13.0,0
-12.0,-173.0,-193.0,-30.0,75.0,-16.0,0
-13.0,-176.0,-197.0,-21.0,72.0,-20.0,0
-12.0,-174.0,-191.0,-14.0,70.0,-20.0,0
-15.0,-177.0,-192.0,-6.0,68.0,-22.0,0
-12.0,-177.0,-195.0,-1.0,66.0,-21.0,0
-14.0,-175.0,-192.0,3.0,67.0,-19.0,0
-16.0,-174.0,-195.0,6.0,69.0,-21.0,0
-12.0,-174.0,-194.0,7.0,71.0,-21.0,0
-14.0,-173.0,-196.0,6.0,74.0,-21.0,0
-15.0,-172.0,-194.0,6.0,72.0,-20.0,0
-13.0,-173.0,-191.0,0.0,70.0,-16.0,0
-16.0,-172.0,-193.0,-6.0,69.0,-16.0,0
-13.0,-171.0,-197.0,-12.0,70.0,-13.0,0
-14.0,-175.0,-191.0,-19.0,68.0,-11.0,0
-17.0,-173.0,-197.0,-27.0,68.0,-11.0,0
-17.0,-175.0,-194.0,-33.0,69.0,-14.0,0
-18.0,-175.0,-193.0,-37.0,71.0,-16.0,0
-16.0,-178.0,-195.0,-42.0,73.0,-16.0,0
-15.0,-176.0,-193.0,-48.0,76.0,-17.0,0
-16.0,-177.0,-195.0,-51.0,77.0,-17.0,0
-16.0,-174.0,-194.0,-51.0,77.0,-19.0,0
-14.0,-175.0,-194.0,-49.0,74.0,-18.0,0
-15.0,-177.0,-191.0,-48.0,72.0,-17.0,0
-14.0,-173.0,-190.0,-48.0,68.0,-16.0,0
-14.0,-177.0,-190.0,-49.0,66.0,-15.0,0
-16.0,-174.0,-190.0,-53.0,63.0,-10.0,0
-14.0,-172.0,-192.0,-58.0,62.0,-8.0,0
-14.0,-171.0,-191.0,-60.0,61.0,-4.0,0
-14.0,-172.0,-188.0,-63.0,61.0,-1.0,0
-14.0,-170.0,-191.0,-65.0,63.0,3.0,0
-16.0,-171.0,-189.0,-66.0,63.0,5.0,0
-15.0,-172.0,-188.0,-65.0,63.0,5.0,0
-14.0,-171.0,-192.0,-62.0,64.0,4.0,0
-16.0,-170.0,-192.0,-58.0,61.0,0.0,0
-16.0,-172.0,-191.0,-56.0,57.0,-1.0,0
-19.0,-168.0,-194.0,-51.0,57.0,-4.0,0
-15.0,-167.0,-193.0,-47.0,56.0,-6.0,0
-14.0,-167.0,-189.0,-42.0,51.0,-9.0,0
-12.0,-169.0,-188.0,-39.0,48.0,-8.0,0
-12.0,-168.0,-188.0,-35.0,41.0,-7.0,0
-11.0,-167.0,-188.0,-34.0,38.0,-6.0,0
-12.0,-169.0,-188.0,-34.0,35.0,-5.0,0
-12.0,-169.0,-192.0,-33.0,37.0,-4.0,0
-11.0,-171.0,-192.0,-36.0,40.0,-8.0,0
-13.0,-171.0,-192.0,-38.0,43.0,-11.0,0
-11.0,-173.0,-195.0,-38.0,50.0,-13.0,0
-12.0,-173.0,-193.0,-36.0,55.0,-13.0,0
-14.0,-170.0,-192.0,-33.0,58.0,-12.0,0
-10.0,-168.0,-190.0,-27.0,59.0,-11.0,0
-10.0,-169.0,-196.0,-22.0,59.0,-9.0,0
-13.0,-170.0,-193.0,-19.0,59.0,-10.0,0
-9.0,-169.0,-193.0,-15.0,60.0,-9.0,0
-10.0,-166.0,-191.0,-14.0,62.0,-8.0,0
-9.0,-170.0,-193.0,-16.0,62.0,-8.0,0
-11.0,-169.0,-190.0,-17.0,65.0,-7.0,0
-12.0,-170.0,-191.0,-21.0,68.0,-8.0,0
-7.0,-164.0,-195.0,-24.0,73.0,-6.0,0
-14.0,-169.0,-188.0,-28.0,77.0,-6.0,0
-16.0,-169.0,-194.0,-35.0,77.0,-4.0,0
-16.0,-170.0,-188.0,-40.0,79.0,-3.0,0
-17.0,-169.0,-191.0,-44.0,78.0,-3.0,0
-15.0,-174.0,-189.0,-45.0,76.0,0.0,0
-13.0,-175.0,-192.0,-45.0,74.0,1.0,0
-17.0,-171.0,-192.0,-43.0,71.0,3.0,0
-13.0,-172.0,-191.0,-41.0,69.0,5.0,0
-16.0,-175.0,-192.0,-37.0,68.0,4.0,0
-15.0,-172.0,-191.0,-31.0,65.0,5.0,0
-17.0,-171.0,-191.0,-27.0,64.0,5.0,0
-11.0,-173.0,-190.0,-25.0,63.0,7.0,0
-12.0,-170.0,-185.0,-22.0,62.0,5.0,0
-12.0,-167.0,-194.0,-20.0,61.0,3.0,0
-13.0,-168.0,-188.0,-21.0,56.0,4.0,0
-13.0,-172.0,-188.0,-21.0,51.0,2.0,0
-14.0,-168.0,-189.0,-22.0,48.0,3.0,0
-13.0,-168.0,-191.0,-23.0,43.0,1.0,0
-16.0,-168.0,-188.0,-23.0,40.0,-1.0,0
-13.0,-171.0,-192.0,-23.0,38.0,-2.0,0
-15.0,-170.0,-194.0,-24.0,37.0,-6.0,0
-15.0,-173.0,-192.0,-24.0,37.0,-7.0,0
-13.0,-172.0,-192.0,-26.0,39.0,-11.0,0
-11.0,-175.0,-196.0,-24.0,41.0,-14.0,0
-13.0,-172.0,-195.0,-21.0,46.0,-16.0,0
-12.0,-173.0,-195.0,-16.0,47.0,-17.0,0
-12.0,-171.0,-194.0,-12.0,47.0,-15.0,0
-12.0,-171.0,-195.0,-9.0,47.0,-13.0,0
-10.0,-170.0,-194.0,-6.0,48.0,-7.0,0
-12.0,-169.0,-194.0,-4.0,46.0,-5.0,0
-13.0,-173.0,-194.0,-3.0,48.0,-3.0,0
-11.0,-173.0,-193.0,-3.0,50.0,-2.0,0
-11.0,-168.0,-198.0,-5.0,54.0,-1.0,0
-13.0,-172.0,-198.0,-7.0,59.0,-2.0,0
-14.0,-170.0,-197.0,-9.0,62.0,-6.0,0
-15.0,-172.0,-199.0,-10.0,64.0,-9.0,0
-17.0,-170.0,-197.0,-12.0,67.0,-11.0,0
-17.0,-169.0,-193.0,-13.0,66.0,-14.0,0
-17.0,-171.0,-193.0,-16.0,66.0,-13.0,0
-13.0,-171.0,-195.0,-18.0,64.0,-12.0,0
-13.0,-172.0,-195.0,-18.0,59.0,-13.0,0
-14.0,-173.0,-196.0,-16.0,56.0,-13.0,0
-14.0,-169.0,-194.0,-16.0,52.0,-13.0,0
-18.0,-172.0,-206.0,-13.0,49.0,-13.0,0
-15.0,-171.0,-195.0,-14.0,47.0,-9.0,0
-13.0,-170.0,-194.0,-15.0,47.0,-8.0,0
-13.0,-172.0,-194.0,-15.0,47.0,-9.0,0
-15.0,-169.0,-195.0,-13.0,47.0,-10.0,0
-17.0,-169.0,-191.0,-12.0,48.0,-10.0,0
-11.0,-171.0,-191.0,-11.0,45.0,-7.0,0
-13.0,-169.0,-191.0,-8.0,45.0,-6.0,0
-14.0,-169.0,-194.0,-8.0,43.0,-7.0,0
-13.0,-169.0,-197.0,-7.0,42.0,-7.0,0
-14.0,-166.0,-194.0,-7.0,43.0,-8.0,0
-17.0,-169.0,-192.0,-6.0,44.0,-10.0,0
-17.0,-167.0,-196.0,-5.0,47.0,-11.0,0
-17.0,-170.0,-194.0,-5.0,50.0,-15.0,0
-16.0,-168.0,-192.0,-4.0,52.0,-14.0,0
-15.0,-171.0,-192.0,-3.0,53.0,-13.0,0
-10.0,-171.0,-193.0,0.0,55.0,-10.0,0
-12.0,-166.0,-196.0,-1.0,54.0,-10.0,0
-13.0,-167.0,-193.0,-3.0,53.0,-7.0,0
-13.0,-169.0,-195.0,-4.0,51.0,-4.0,0
-14.0,-166.0,-194.0,-6.0,50.0,-1.0,0
-15.0,-170.0,-194.0,-8.0,50.0,-2.0,0
-16.0,-169.0,-193.0,-9.0,53.0,-2.0,0
-15.0,-168.0,-196.0,-10.0,56.0,-4.0,0
-18.0,-165.0,-194.0,-9.0,59.0,-4.0,0
-13.0,-169.0,-198.0,-9.0,60.0,-4.0,0
-14.0,-168.0,-193.0,-8.0,61.0,-4.0,0
-15.0,-170.0,-192.0,-6.0,60.0,-4.0,0
-16.0,-170.0,-198.0,-3.0,60.0,-2.0,0
-14.0,-169.0,-195.0,-1.0,58.0,-1.0,0
-16.0,-172.0,-193.0,0.0,57.0,2.0,0
-16.0,-171.0,-190.0,0.0,53.0,4.0,0
-14.0,-171.0,-192.0,-1.0,49.0,5.0,0
-16.0,-165.0,-192.0,-1.0,44.0,9.0,0
-17.0,-167.0,-192.0,-3.0,40.0,10.0,0
-16.0,-169.0,-188.0,-4.0,36.0,12.0,0
-16.0,-171.0,-189.0,-5.0,34.0,13.0,0
-17.0,-172.0,-190.0,-2.0,30.0,13.0,0
-16.0,-170.0,-190.0,1.0,30.0,13.0,0
-18.0,-174.0,-193.0,7.0,31.0,10.0,0
-18.0,-172.0,-190.0,11.0,31.0,8.0,0
-15.0,-171.0,-192.0,15.0,35.0,5.0,0
-16.0,-170.0,-190.0,19.0,36.0,3.0,0
-15.0,-170.0,-190.0,21.0,41.0,5.0,0
-15.0,-161.0,-186.0,22.0,42.0,5.0,0
-13.0,-170.0,-190.0,23.0,43.0,5.0,0
-14.0,-169.0,-187.0,21.0,46.0,4.0,0
-13.0,-167.0,-187.0,19.0,48.0,6.0,0
-14.0,-163.0,-190.0,13.0,49.0,6.0,0
-16.0,-171.0,-193.0,6.0,50.0,7.0,0
-18.0,-170.0,-192.0,-1.0,50.0,5.0,0
-18.0,-173.0,-191.0,-5.0,50.0,5.0,0
-18.0,-174.0,-191.0,-9.0,49.0,7.0,0
-17.0,-177.0,-195.0,-12.0,47.0,8.0,0
-15.0,-175.0,-192.0,-10.0,43.0,10.0,0
-15.0,-174.0,-193.0,-4.0,42.0,9.0,0
-17.0,-173.0,-193.0,7.0,38.0,7.0,0
-18.0,-168.0,-192.0,10.0,33.0,7.0,0
-14.0,-172.0,-190.0,12.0,28.0,8.0,0
-18.0,-171.0,-190.0,12.0,23.0,7.0,0
-17.0,-171.0,-192.0,7.0,19.0,4.0,0
-16.0,-170.0,-190.0,3.0,17.0,4.0,0
-13.0,-173.0,-189.0,1.0,16.0,3.0,0
-14.0,-173.0,-184.0,1.0,14.0,0.0,0
-14.0,-169.0,-191.0,0.0,12.0,0.0,0
-20.0,-170.0,-190.0,-1.0,9.0,-1.0,0
-16.0,-169.0,-188.0,-2.0,5.0,-2.0,0
-16.0,-171.0,-190.0,-2.0,2.0,-3.0,0
-15.0,-170.0,-192.0,-1.0,-1.0,-1.0,0
-15.0,-170.0,-192.0,-5.0,-3.0,-2.0,0
-15.0,-172.0,-192.0,-8.0,-2.0,-5.0,0
-15.0,-173.0,-191.0,-10.0,-1.0,-7.0,0
-18.0,-174.0,-191.0,-13.0,4.0,-7.0,0
-20.0,-171.0,-190.0,-15.0,9.0,-9.0,0
-18.0,-174.0,-195.0,-17.0,11.0,-9.0,0
-17.0,-172.0,-193.0,-17.0,12.0,-12.0,0
-17.0,-175.0,-196.0,-15.0,13.0,-14.0,0
-18.0,-175.0,-194.0,-12.0,15.0,-17.0,0
-16.0,-173.0,-197.0,-11.0,12.0,-17.0,0
-18.0,-171.0,-192.0,-10.0,14.0,-19.0,0
-16.0,-172.0,-193.0,-8.0,18.0,-21.0,0
-15.0,-169.0,-196.0,-7.0,23.0,-23.0,0
-15.0,-170.0,-194.0,-8.0,25.0,-24.0,0
-12.0,-171.0,-193.0,-11.0,26.0,-25.0,0
-14.0,-171.0,-195.0,-14.0,27.0,-23.0,0
-12.0,-173.0,-195.0,-17.0,27.0,-22.0,0
-18.0,-176.0,-195.0,-19.0,26.0,-20.0,0
-18.0,-172.0,-196.0,-22.0,29.0,-18.0,0
-18.0,-172.0,-200.0,-21.0,37.0,-19.0,0
-16.0,-176.0,-200.0,-23.0,45.0,-22.0,0
-18.0,-171.0,-203.0,-27.0,56.0,-24.0,0
-19.0,-171.0,-203.0,-33.0,66.0,-26.0,0
-19.0,-174.0,-199.0,-39.0,73.0,-29.0,0
-19.0,-175.0,-199.0,-45.0,80.0,-32.0,0
-19.0,-175.0,-200.0,-50.0,85.0,-33.0,0
-24.0,-175.0,-202.0,-54.0,93.0,-36.0,0
-22.0,-177.0,-197.0,-60.0,101.0,-42.0,0
-21.0,-179.0,-201.0,-68.0,109.0,-50.0,0
-19.0,-182.0,-202.0,-76.0,116.0,-59.0,0
-15.0,-184.0,-204.0,-81.0,125.0,-67.0,0
-15.0,-184.0,-207.0,-79.0,134.0,-71.0,0
-12.0,-185.0,-207.0,-76.0,140.0,-74.0,0
-12.0,-185.0,-214.0,-71.0,148.0,-76.0,0
-9.0,-184.0,-212.0,-66.0,153.0,-79.0,0
-12.0,-184.0,-214.0,-67.0,153.0,-76.0,0
-15.0,-182.0,-212.0,-73.0,149.0,-74.0,0
-17.0,-183.0,-219.0,-81.0,143.0,-77.0,0
-20.0,-179.0,-215.0,-92.0,136.0,-82.0,0
-22.0,-182.0,-215.0,-107.0,130.0,-88.0,0
-19.0,-179.0,-216.0,-119.0,123.0,-91.0,0
-21.0,-184.0,-216.0,-129.0,116.0,-92.0,0
-21.0,-181.0,-215.0,-138.0,105.0,-89.0,0
-21.0,-181.0,-216.0,-141.0,96.0,-83.0,0
-21.0,-184.0,-215.0,-144.0,87.0,-78.0,0
-17.0,-184.0,-212.0,-143.0,77.0,-70.0,0
-18.0,-183.0,-208.0,-141.0,71.0,-62.0,0
-18.0,-184.0,-207.0,-137.0,66.0,-54.0,0
-16.0,-185.0,-201.0,-132.0,67.0,-48.0,0
-18.0,-184.0,-205.0,-126.0,68.0,-42.0,0
-17.0,-186.0,-207.0,-124.0,72.0,-39.0,0
-18.0,-186.0,-207.0,-127.0,77.0,-35.0,0
-17.0,-184.0,-206.0,-127.0,80.0,-30.0,0
-15.0,-185.0,-208.0,-127.0,85.0,-26.0,0
-19.0,-184.0,-207.0,-125.0,87.0,-24.0,0
-18.0,-185.0,-210.0,-129.0,86.0,-23.0,0
-18.0,-182.0,-209.0,-135.0,83.0,-24.0,0
-19.0,-182.0,-207.0,-142.0,76.0,-27.0,0
-18.0,-178.0,-211.0,-149.0,68.0,-31.0,0
-15.0,-178.0,-211.0,-160.0,61.0,-35.0,0
-15.0,-175.0,-209.0,-175.0,55.0,-38.0,0
-16.0,-181.0,-210.0,-188.0,51.0,-41.0,0
-12.0,-182.0,-210.0,-201.0,52.0,-46.0,0
-12.0,-182.0,-208.0,-210.0,52.0,-50.0,0
-11.0,-184.0,-209.0,-217.0,53.0,-53.0,0
-9.0,-187.0,-206.0,-218.0,57.0,-58.0,0
-9.0,-186.0,-210.0,-217.0,59.0,-62.0,0
-5.0,-188.0,-212.0,-213.0,59.0,-65.0,0
-8.0,-186.0,-208.0,-204.0,58.0,-65.0,0
-8.0,-186.0,-208.0,-192.0,50.0,-65.0,0
-5.0,-187.0,-211.0,-183.0,42.0,-64.0,0
-9.0,-184.0,-205.0,-174.0,32.0,-63.0,0
-11.0,-185.0,-210.0,-165.0,20.0,-64.0,0
-10.0,-186.0,-212.0,-160.0,7.0,-65.0,0
-13.0,-184.0,-213.0,-161.0,-5.0,-68.0,0
-15.0,-185.0,-213.0,-165.0,-14.0,-73.0,0
-13.0,-184.0,-213.0,-169.0,-20.0,-79.0,0
-12.0,-183.0,-214.0,-174.0,-24.0,-83.0,0
-10.0,-184.0,-213.0,-177.0,-28.0,-87.0,0
-11.0,-182.0,-213.0,-179.0,-34.0,-89.0,0
-12.0,-183.0,-214.0,-180.0,-41.0,-88.0,0
-11.0,-183.0,-216.0,-181.0,-46.0,-87.0,0
-12.0,-183.0,-215.0,-183.0,-50.0,-87.0,0
-11.0,-179.0,-214.0,-181.0,-52.0,-86.0,0
-15.0,-182.0,-217.0,-182.0,-56.0,-87.0,0
-16.0,-185.0,-216.0,-184.0,-60.0,-90.0,0
-13.0,-185.0,-218.0,-183.0,-63.0,-94.0,0
-13.0,-183.0,-216.0,-183.0,-64.0,-99.0,0
-10.0,-184.0,-216.0,-184.0,-64.0,-103.0,0
-8.0,-187.0,-214.0,-183.0,-68.0,-109.0,0
-11.0,-185.0,-217.0,-181.0,-72.0,-114.0,0
-8.0,-186.0,-215.0,-181.0,-77.0,-119.0,0
-9.0,-184.0,-214.0,-179.0,-86.0,-121.0,0
-13.0,-186.0,-217.0,-175.0,-96.0,-120.0,0
-10.0,-186.0,-214.0,-170.0,-106.0,-118.0,0
-13.0,-186.0,-213.0,-159.0,-112.0,-119.0,0
-13.0,-183.0,-213.0,-148.0,-115.0,-122.0,0
-12.0,-185.0,-212.0,-138.0,-117.0,-124.0,0
-14.0,-184.0,-211.0,-133.0,-120.0,-126.0,0
-13.0,-185.0,-213.0,-131.0,-120.0,-128.0,0
-12.0,-184.0,-211.0,-125.0,-118.0,-130.0,0
-12.0,-188.0,-215.0,-120.0,-112.0,-134.0,0
-16.0,-185.0,-213.0,-114.0,-105.0,-137.0,0
-14.0,-185.0,-209.0,-110.0,-100.0,-140.0,0
-17.0,-181.0,-212.0,-106.0,-95.0,-142.0,0
-17.0,-177.0,-216.0,-103.0,-93.0,-142.0,0
-20.0,-184.0,-211.0,-101.0,-95.0,-142.0,0
-17.0,-183.0,-212.0,-97.0,-98.0,-140.0,0
-17.0,-185.0,-211.0,-85.0,-101.0,-139.0,0
-16.0,-183.0,-211.0,-73.0,-105.0,-136.0,0
-16.0,-181.0,-213.0,-60.0,-110.0,-133.0,0
-18.0,-182.0,-211.0,-46.0,-117.0,-131.0,0
-14.0,-184.0,-212.0,-30.0,-124.0,-129.0,0
-17.0,-179.0,-213.0,-15.0,-131.0,-127.0,0
-17.0,-179.0,-213.0,-6.0,-135.0,-124.0,0
-18.0,-180.0,-212.0,4.0,-138.0,-123.0,0
-20.0,-181.0,-211.0,9.0,-138.0,-120.0,0
-21.0,-178.0,-212.0,12.0,-138.0,-117.0,0
-22.0,-179.0,-216.0,12.0,-137.0,-118.0,0
-20.0,-181.0,-208.0,12.0,-134.0,-115.0,0
-21.0,-182.0,-212.0,9.0,-128.0,-114.0,0
-22.0,-182.0,-211.0,12.0,-124.0,-114.0,0
-24.0,-177.0,-213.0,17.0,-124.0,-114.0,0
-19.0,-178.0,-211.0,25.0,-120.0,-115.0,0
-24.0,-177.0,-214.0,29.0,-119.0,-115.0,0
-23.0,-173.0,-210.0,33.0,-122.0,-111.0,0
-15.0,-176.0,-208.0,38.0,-125.0,-107.0,0
-20.0,-172.0,-210.0,43.0,-126.0,-104.0,0
-24.0,-170.0,-210.0,51.0,-125.0,-99.0,0
-20.0,-173.0,-208.0,60.0,-123.0,-95.0,0
-21.0,-171.0,-209.0,68.0,-117.0,-94.0,0
-25.0,-170.0,-205.0,73.0,-112.0,-90.0,0
-24.0,-167.0,-205.0,75.0,-105.0,-89.0,0
-25.0,-167.0,-203.0,75.0,-97.0,-87.0,0
-22.0,-168.0,-206.0,76.0,-88.0,-88.0,0
-20.0,-171.0,-204.0,77.0,-78.0,-85.0,0
-21.0,-170.0,-209.0,78.0,-66.0,-85.0,0
-22.0,-168.0,-207.0,79.0,-60.0,-84.0,0
-21.0,-168.0,-211.0,77.0,-57.0,-83.0,0
-26.0,-166.0,-207.0,65.0,-63.0,-79.0,0
-25.0,-170.0,-206.0,50.0,-68.0,-79.0,0
-29.0,-167.0,-209.0,51.0,-67.0,-86.0,0
-29.0,-166.0,-210.0,56.0,-65.0,-88.0,0
-28.0,-168.0,-211.0,60.0,-67.0,-88.0,0
-29.0,-168.0,-208.0,64.0,-69.0,-86.0,0
-29.0,-169.0,-209.0,70.0,-68.0,-84.0,0
-29.0,-170.0,-211.0,74.0,-73.0,-82.0,0
-28.0,-173.0,-206.0,79.0,-76.0,-79.0,0
-31.0,-173.0,-207.0,84.0,-83.0,-78.0,0
-29.0,-175.0,-210.0,89.0,-89.0,-74.0,0
-33.0,-177.0,-204.0,98.0,-100.0,-72.0,0
-31.0,-181.0,-202.0,110.0,-106.0,-71.0,0
-28.0,-180.0,-203.0,126.0,-112.0,-71.0,0
-28.0,-179.0,-200.0,140.0,-121.0,-72.0,0
-29.0,-183.0,-207.0,152.0,-126.0,-74.0,0
-25.0,-179.0,-201.0,159.0,-127.0,-79.0,0
-25.0,-181.0,-203.0,166.0,-124.0,-86.0,0
-20.0,-179.0,-203.0,172.0,-115.0,-91.0,0
-19.0,-180.0,-203.0,178.0,-109.0,-96.0,0
-20.0,-180.0,-206.0,182.0,-101.0,-101.0,0
-20.0,-182.0,-200.0,187.0,-96.0,-105.0,0
-21.0,-181.0,-198.0,195.0,-87.0,-108.0,0
-20.0,-182.0,-194.0,208.0,-79.0,-108.0,0
-19.0,-184.0,-196.0,221.0,-75.0,-108.0,0
-21.0,-184.0,-194.0,240.0,-74.0,-104.0,0
-24.0,-182.0,-194.0,261.0,-72.0,-105.0,0
-23.0,-180.0,-195.0,280.0,-74.0,-105.0,0
-22.0,-183.0,-192.0,294.0,-75.0,-108.0,0
-27.0,-183.0,-199.0,308.0,-73.0,-112.0,0
-25.0,-180.0,-195.0,317.0,-68.0,-113.0,0
-24.0,-184.0,-197.0,321.0,-60.0,-114.0,0
-23.0,-180.0,-192.0,325.0,-52.0,-112.0,0
-26.0,-181.0,-195.0,328.0,-41.0,-109.0,0
-25.0,-181.0,-195.0,332.0,-34.0,-105.0,0
-24.0,-181.0,-191.0,339.0,-32.0,-101.0,0
-25.0,-176.0,-190.0,347.0,-29.0,-99.0,0
-26.0,-180.0,-193.0,356.0,-31.0,-97.0,0
-23.0,-182.0,-189.0,362.0,-35.0,-99.0,0
-24.0,-180.0,-187.0,370.0,-40.0,-102.0,0
-24.0,-181.0,-186.0,380.0,-44.0,-107.0,0
-31.0,-182.0,-190.0,389.0,-51.0,-108.0,0
-30.0,-183.0,-185.0,396.0,-57.0,-109.0,0
-33.0,-186.0,-182.0,406.0,-65.0,-112.0,0
-32.0,-186.0,-184.0,419.0,-69.0,-116.0,0
-31.0,-187.0,-181.0,438.0,-71.0,-121.0,0
-30.0,-188.0,-180.0,460.0,-73.0,-124.0,0
-34.0,-191.0,-183.0,485.0,-76.0,-128.0,0
-33.0,-186.0,-182.0,509.0,-82.0,-131.0,0
-34.0,-184.0,-174.0,529.0,-91.0,-131.0,0
-33.0,-186.0,-178.0,549.0,-101.0,-134.0,0
-32.0,-185.0,-177.0,571.0,-111.0,-140.0,0
-30.0,-188.0,-171.0,594.0,-119.0,-141.0,0
-33.0,-185.0,-170.0,614.0,-127.0,-141.0,0
-31.0,-191.0,-166.0,632.0,-132.0,-142.0,0
-29.0,-191.0,-169.0,646.0,-138.0,-141.0,0
-31.0,-190.0,-167.0,660.0,-142.0,-142.0,0
-33.0,-189.0,-166.0,672.0,-139.0,-143.0,0
-26.0,-190.0,-168.0,687.0,-140.0,-145.0,0
-29.0,-186.0,-165.0,704.0,-138.0,-148.0,0
-25.0,-187.0,-167.0,717.0,-134.0,-154.0,0
-24.0,-186.0,-167.0,730.0,-129.0,-162.0,0
-25.0,-185.0,-170.0,736.0,-123.0,-170.0,0
-25.0,-186.0,-167.0,734.0,-124.0,-177.0,0
-28.0,-182.0,-169.0,733.0,-123.0,-184.0,0
-25.0,-188.0,-167.0,729.0,-121.0,-191.0,0
-25.0,-185.0,-167.0,728.0,-115.0,-198.0,0
-22.0,-187.0,-165.0,732.0,-107.0,-202.0,0
-26.0,-187.0,-162.0,739.0,-97.0,-203.0,0
-29.0,-191.0,-163.0,746.0,-86.0,-203.0,0
-29.0,-192.0,-158.0,758.0,-80.0,-200.0,0
-29.0,-190.0,-155.0,774.0,-76.0,-197.0,0
-26.0,-191.0,-158.0,783.0,-74.0,-197.0,0
-29.0,-192.0,-154.0,792.0,-68.0,-196.0,0
-25.0,-193.0,-153.0,801.0,-66.0,-197.0,0
-30.0,-191.0,-150.0,813.0,-66.0,-192.0,0
-28.0,-192.0,-154.0,823.0,-69.0,-190.0,0
-27.0,-196.0,-149.0,828.0,-72.0,-184.0,0
-29.0,-193.0,-149.0,835.0,-75.0,-178.0,0
-25.0,-195.0,-149.0,842.0,-78.0,-176.0,0
-21.0,-197.0,-148.0,847.0,-80.0,-171.0,0
-21.0,-196.0,-148.0,854.0,-78.0,-164.0,0
-18.0,-197.0,-147.0,856.0,-71.0,-160.0,0
-19.0,-196.0,-144.0,860.0,-71.0,-159.0,0
-17.0,-193.0,-145.0,866.0,-68.0,-163.0,0
-19.0,-195.0,-141.0,872.0,-62.0,-168.0,0
-19.0,-193.0,-144.0,877.0,-56.0,-172.0,0
-20.0,-196.0,-139.0,882.0,-51.0,-178.0,0
-17.0,-194.0,-142.0,889.0,-46.0,-183.0,0
-20.0,-196.0,-143.0,889.0,-43.0,-189.0,0
-22.0,-194.0,-138.0,887.0,-36.0,-198.0,0
-24.0,-194.0,-135.0,886.0,-30.0,-203.0,0
-20.0,-193.0,-136.0,885.0,-25.0,-208.0,0
-21.0,-192.0,-136.0,882.0,-21.0,-213.0,0
-25.0,-192.0,-132.0,876.0,-18.0,-218.0,0
-26.0,-189.0,-132.0,861.0,-21.0,-221.0,0
-29.0,-190.0,-133.0,850.0,-29.0,-224.0,0
-30.0,-188.0,-127.0,839.0,-38.0,-225.0,0
-28.0,-189.0,-124.0,831.0,-46.0,-222.0,0
-28.0,-188.0,-117.0,828.0,-49.0,-218.0,0
-31.0,-187.0,-122.0,833.0,-46.0,-213.0,0
-25.0,-186.0,-122.0,832.0,-43.0,-207.0,0
-26.0,-186.0,-120.0,823.0,-42.0,-204.0,0
-25.0,-186.0,-119.0,819.0,-46.0,-205.0,0
-29.0,-186.0,-117.0,813.0,-53.0,-208.0,0
-24.0,-183.0,-115.0,801.0,-62.0,-209.0,0
-28.0,-183.0,-111.0,791.0,-77.0,-211.0,0
-25.0,-184.0,-112.0,782.0,-96.0,-209.0,0
-29.0,-184.0,-112.0,780.0,-117.0,-208.0,0
-28.0,-184.0,-116.0,777.0,-129.0,-205.0,0
-25.0,-184.0,-115.0,772.0,-138.0,-204.0,0
-25.0,-187.0,-114.0,769.0,-142.0,-202.0,0
-25.0,-186.0,-114.0,778.0,-150.0,-200.0,0
-29.0,-185.0,-113.0,792.0,-155.0,-200.0,0
-28.0,-183.0,-119.0,801.0,-155.0,-200.0,0
-26.0,-181.0,-117.0,796.0,-155.0,-196.0,0
-30.0,-182.0,-115.0,785.0,-156.0,-194.0,0
-27.0,-182.0,-111.0,773.0,-163.0,-193.0,0
-27.0,-180.0,-105.0,759.0,-170.0,-193.0,0
-28.0,-182.0,-108.0,745.0,-169.0,-190.0,0
-29.0,-180.0,-97.0,734.0,-162.0,-188.0,0
-26.0,-183.0,-100.0,725.0,-153.0,-186.0,0
-24.0,-181.0,-99.0,717.0,-149.0,-185.0,0
-24.0,-185.0,-99.0,708.0,-147.0,-187.0,0
-21.0,-184.0,-104.0,693.0,-146.0,-186.0,0
-19.0,-186.0,-106.0,673.0,-146.0,-187.0,0
-21.0,-185.0,-102.0,657.0,-139.0,-191.0,0
-21.0,-187.0,-102.0,645.0,-128.0,-190.0,0
-17.0,-188.0,-104.0,642.0,-118.0,-187.0,0
-18.0,-186.0,-101.0,644.0,-108.0,-186.0,0
-17.0,-188.0,-106.0,652.0,-99.0,-192.0,0
-17.0,-187.0,-102.0,657.0,-95.0,-198.0,0
-19.0,-183.0,-102.0,665.0,-97.0,-207.0,0
-20.0,-184.0,-101.0,664.0,-105.0,-208.0,0
-18.0,-185.0,-96.0,650.0,-110.0,-206.0,0
-13.0,-185.0,-90.0,635.0,-114.0,-204.0,0
-13.0,-185.0,-88.0,622.0,-111.0,-201.0,0
-13.0,-187.0,-90.0,611.0,-101.0,-199.0,0
-12.0,-189.0,-88.0,606.0,-84.0,-201.0,0
-10.0,-189.0,-86.0,604.0,-73.0,-203.0,0
-14.0,-190.0,-90.0,600.0,-69.0,-208.0,0
-13.0,-193.0,-91.0,597.0,-68.0,-212.0,0
-15.0,-191.0,-92.0,596.0,-71.0,-220.0,0
-14.0,-190.0,-92.0,596.0,-75.0,-227.0,0
-15.0,-192.0,-90.0,597.0,-76.0,-233.0,0
-16.0,-192.0,-95.0,596.0,-79.0,-234.0,0
-15.0,-195.0,-94.0,589.0,-80.0,-235.0,0
-14.0,-196.0,-91.0,580.0,-79.0,-235.0,0
-14.0,-196.0,-93.0,573.0,-73.0,-235.0,0
-11.0,-205.0,-93.0,565.0,-60.0,-236.0,0
-7.0,-208.0,-93.0,557.0,-46.0,-236.0,0
-10.0,-204.0,-92.0,549.0,-28.0,-237.0,0
-9.0,-211.0,-94.0,539.0,-13.0,-234.0,0
-11.0,-210.0,-98.0,530.0,-4.0,-233.0,0
-11.0,-213.0,-97.0,516.0,1.0,-235.0,0
-10.0,-210.0,-98.0,500.0,3.0,-233.0,0
-9.0,-216.0,-98.0,481.0,2.0,-232.0,0
-8.0,-218.0,-98.0,462.0,1.0,-237.0,0
-8.0,-216.0,-96.0,448.0,4.0,-241.0,0
-10.0,-223.0,-96.0,431.0,13.0,-245.0,0
-10.0,-225.0,-93.0,416.0,26.0,-244.0,0
-11.0,-227.0,-90.0,403.0,38.0,-244.0,0
-14.0,-237.0,-87.0,395.0,49.0,-245.0,0
-9.0,-233.0,-86.0,391.0,62.0,-250.0,0
-8.0,-241.0,-83.0,392.0,75.0,-254.0,0
-5.0,-240.0,-86.0,393.0,86.0,-257.0,0
-8.0,-242.0,-85.0,401.0,97.0,-256.0,0
-2.0,-244.0,-88.0,416.0,104.0,-248.0,0
0.0,-243.0,-89.0,429.0,112.0,-246.0,0
-3.0,-240.0,-87.0,439.0,121.0,-240.0,0
0.0,-241.0,-88.0,440.0,128.0,-233.0,0
0.0,-238.0,-85.0,437.0,129.0,-228.0,0
0.0,-234.0,-83.0,434.0,129.0,-225.0,0
-2.0,-235.0,-82.0,435.0,123.0,-217.0,0
-2.0,-232.0,-82.0,440.0,119.0,-208.0,0
-1.0,-234.0,-82.0,437.0,116.0,-199.0,0
0.0,-237.0,-83.0,425.0,116.0,-192.0,0
-2.0,-239.0,-82.0,407.0,121.0,-187.0,0
0.0,-241.0,-80.0,397.0,124.0,-180.0,0
0.0,-241.0,-81.0,395.0,123.0,-174.0,0
0.0,-240.0,-81.0,394.0,123.0,-165.0,0
0.0,-241.0,-84.0,392.0,122.0,-157.0,0
-2.0,-242.0,-82.0,381.0,124.0,-146.0,0
-3.0,-239.0,-80.0,360.0,126.0,-138.0,0
-8.0,-239.0,-86.0,340.0,130.0,-132.0,0
-1.0,-237.0,-66.0,318.0,132.0,-125.0,0
-4.0,-243.0,-81.0,302.0,131.0,-123.0,0
-2.0,-242.0,-78.0,289.0,129.0,-121.0,0
-6.0,-244.0,-79.0,277.0,123.0,-121.0,0
-3.0,-247.0,-81.0,262.0,114.0,-124.0,0
-4.0,-248.0,-80.0,243.0,107.0,-130.0,0
-5.0,-249.0,-84.0,221.0,105.0,-137.0,0
-7.0,-249.0,-85.0,199.0,109.0,-146.0,0
-8.0,-251.0,-87.0,174.0,115.0,-151.0,0
-9.0,-258.0,-90.0,147.0,124.0,-160.0,0
-11.0,-250.0,-91.0,119.0,131.0,-165.0,0
-8.0,-257.0,-93.0,100.0,135.0,-168.0,0
-7.0,-254.0,-88.0,90.0,138.0,-164.0,0
-8.0,-258.0,-90.0,89.0,136.0,-158.0,0
-7.0,-258.0,-89.0,94.0,133.0,-151.0,0
-3.0,-256.0,-89.0,93.0,129.0,-139.0,0
-1.0,-258.0,-83.0,85.0,124.0,-123.0,0
0.0,-259.0,-83.0,72.0,120.0,-105.0,0
-1.0,-257.0,-84.0,59.0,114.0,-87.0,0
0.0,-261.0,-82.0,50.0,107.0,-72.0,0
2.0,-263.0,-79.0,47.0,101.0,-58.0,0
2.0,-263.0,-80.0,49.0,94.0,-45.0,0
2.0,-257.0,-77.0,59.0,88.0,-35.0,0
0.0,-256.0,-73.0,67.0,85.0,-28.0,0
1.0,-253.0,-71.0,74.0,83.0,-23.0,0
3.0,-248.0,-71.0,79.0,79.0,-19.0,0
4.0,-249.0,-72.0,81.0,75.0,-17.0,0
6.0,-249.0,-67.0,81.0,73.0,-17.0,0
6.0,-247.0,-64.0,81.0,76.0,-16.0,0
6.0,-247.0,-66.0,79.0,78.0,-15.0,0
5.0,-247.0,-61.0,74.0,83.0,-17.0,0
5.0,-246.0,-64.0,69.0,88.0,-17.0,0
4.0,-246.0,-56.0,64.0,93.0,-18.0,0
6.0,-248.0,-57.0,62.0,100.0,-18.0,0
2.0,-248.0,-55.0,65.0,107.0,-14.0,0
11.0,-250.0,-58.0,71.0,112.0,-12.0,0
7.0,-248.0,-53.0,80.0,119.0,-10.0,0
4.0,-248.0,-56.0,91.0,128.0,-6.0,0
2.0,-249.0,-56.0,103.0,133.0,-2.0,0
3.0,-248.0,-55.0,112.0,139.0,1.0,0
5.0,-250.0,-60.0,120.0,141.0,6.0,0
2.0,-249.0,-62.0,126.0,142.0,11.0,0
5.0,-250.0,-59.0,129.0,142.0,15.0,0
8.0,-248.0,-53.0,132.0,139.0,19.0,0
5.0,-249.0,-60.0,135.0,136.0,23.0,0
3.0,-248.0,-57.0,139.0,133.0,23.0,0
6.0,-247.0,-59.0,143.0,130.0,25.0,0
5.0,-242.0,-60.0,148.0,126.0,20.0,0
5.0,-243.0,-62.0,149.0,125.0,13.0,0
5.0,-244.0,-61.0,146.0,126.0,8.0,0
3.0,-241.0,-60.0,139.0,128.0,0.0,0
4.0,-236.0,-59.0,128.0,133.0,-10.0,0
1.0,-237.0,-57.0,115.0,137.0,-20.0,0
5.0,-240.0,-56.0,103.0,142.0,-28.0,0
3.0,-240.0,-54.0,88.0,146.0,-38.0,0
5.0,-241.0,-58.0,71.0,150.0,-46.0,0
1.0,-241.0,-55.0,55.0,150.0,-55.0,0
1.0,-244.0,-55.0,39.0,147.0,-61.0,0
0.0,-247.0,-60.0,23.0,144.0,-66.0,0
1.0,-247.0,-62.0,12.0,142.0,-71.0,0
0.0,-250.0,-61.0,4.0,139.0,-76.0,0
1.0,-250.0,-61.0,4.0,136.0,-78.0,0
0.0,-252.0,-59.0,6.0,134.0,-80.0,0
-2.0,-250.0,-61.0,12.0,130.0,-82.0,0
0.0,-254.0,-63.0,18.0,125.0,-81.0,0
-3.0,-250.0,-61.0,24.0,120.0,-81.0,0
-2.0,-249.0,-63.0,29.0,112.0,-78.0,0
0.0,-252.0,-55.0,33.0,104.0,-76.0,0
0.0,-250.0,-59.0,34.0,96.0,-75.0,0
0.0,-248.0,-60.0,30.0,89.0,-71.0,0
1.0,-250.0,-63.0,25.0,83.0,-69.0,0
1.0,-249.0,-61.0,19.0,73.0,-67.0,0
4.0,-251.0,-61.0,11.0,67.0,-67.0,0
2.0,-251.0,-63.0,5.0,61.0,-66.0,0
1.0,-252.0,-63.0,-2.0,57.0,-65.0,0
3.0,-255.0,-62.0,-7.0,53.0,-63.0,0
3.0,-253.0,-57.0,-10.0,52.0,-62.0,0
3.0,-255.0,-62.0,-13.0,49.0,-61.0,0
3.0,-257.0,-60.0,-16.0,46.0,-56.0,0
5.0,-257.0,-59.0,-19.0,43.0,-52.0,0
2.0,-257.0,-63.0,-25.0,37.0,-48.0,0
7.0,-257.0,-64.0,-32.0,34.0,-43.0,0
6.0,-257.0,-65.0,-39.0,31.0,-39.0,0
6.0,-259.0,-70.0,-44.0,28.0,-34.0,0
5.0,-259.0,-66.0,-47.0,22.0,-29.0,0
8.0,-259.0,-68.0,-48.0,19.0,-24.0,0
4.0,-260.0,-66.0,-45.0,17.0,-19.0,0
8.0,-259.0,-62.0,-40.0,18.0,-15.0,0
6.0,-256.0,-69.0,-35.0,19.0,-12.0,0
7.0,-254.0,-60.0,-29.0,23.0,-9.0,0
2.0,-253.0,-66.0,-25.0,26.0,-7.0,0
6.0,-255.0,-64.0,-25.0,28.0,-7.0,0
3.0,-253.0,-62.0,-25.0,34.0,-5.0,0
5.0,-251.0,-61.0,-26.0,37.0,-3.0,0
4.0,-250.0,-62.0,-22.0,38.0,-3.0,0
4.0,-254.0,-61.0,-17.0,37.0,-2.0,0
6.0,-253.0,-58.0,-13.0,36.0,1.0,0
4.0,-254.0,-56.0,-7.0,33.0,2.0,0
6.0,-253.0,-60.0,-1.0,32.0,2.0,0
6.0,-256.0,-55.0,5.0,33.0,5.0,0
7.0,-252.0,-57.0,8.0,32.0,9.0,0
7.0,-251.0,-56.0,10.0,32.0,11.0,0
9.0,-253.0,-55.0,12.0,36.0,15.0,0
7.0,-251.0,-51.0,14.0,38.0,18.0,0
7.0,-253.0,-50.0,20.0,40.0,22.0,0
7.0,-251.0,-54.0,26.0,45.0,24.0,0
7.0,-249.0,-52.0,31.0,49.0,26.0,0
6.0,-250.0,-53.0,38.0,52.0,28.0,0
12.0,-242.0,-50.0,40.0,54.0,29.0,0
10.0,-248.0,-50.0,38.0,57.0,26.0,0
11.0,-248.0,-48.0,35.0,60.0,25.0,0
10.0,-249.0,-50.0,32.0,63.0,23.0,0
11.0,-247.0,-47.0,27.0,66.0,19.0,0
12.0,-248.0,-53.0,22.0,69.0,16.0,0
12.0,-249.0,-54.0,20.0,70.0,13.0,0
7.0,-247.0,-50.0,18.0,72.0,11.0,0
6.0,-249.0,-53.0,17.0,75.0,10.0,0
10.0,-249.0,-51.0,16.0,78.0,10.0,0
10.0,-255.0,-48.0,14.0,79.0,9.0,0
9.0,-251.0,-52.0,12.0,78.0,8.0,0
3.0,-249.0,-54.0,9.0,79.0,7.0,0
7.0,-251.0,-54.0,6.0,78.0,8.0,0
6.0,-252.0,-58.0,8.0,77.0,9.0,0
4.0,-250.0,-55.0,8.0,77.0,9.0,0
2.0,-249.0,-55.0,8.0,81.0,10.0,0
3.0,-253.0,-55.0,7.0,82.0,10.0,0
5.0,-249.0,-60.0,6.0,82.0,9.0,0
4.0,-254.0,-50.0,4.0,80.0,8.0,0
4.0,-253.0,-51.0,5.0,80.0,8.0,0
4.0,-256.0,-56.0,7.0,80.0,8.0,0
3.0,-253.0,-57.0,11.0,80.0,7.0,0
3.0,-249.0,-53.0,14.0,82.0,5.0,0
4.0,-253.0,-53.0,18.0,84.0,5.0,0
3.0,-251.0,-57.0,20.0,85.0,3.0,0
6.0,-250.0,-51.0,21.0,85.0,4.0,0
3.0,-251.0,-54.0,21.0,84.0,5.0,0
5.0,-251.0,-53.0,20.0,83.0,4.0,0
6.0,-251.0,-55.0,17.0,81.0,4.0,0
5.0,-252.0,-56.0,14.0,81.0,3.0,0
5.0,-251.0,-53.0,13.0,82.0,6.0,0
6.0,-251.0,-51.0,12.0,83.0,6.0,0
4.0,-250.0,-55.0,11.0,82.0,7.0,0
5.0,-250.0,-51.0,10.0,80.0,9.0,0
0.0,-249.0,-52.0,6.0,77.0,9.0,0
3.0,-248.0,-51.0,-1.0,75.0,9.0,0
2.0,-250.0,-52.0,-5.0,71.0,12.0,0
2.0,-250.0,-49.0,-9.0,70.0,11.0,0
1.0,-250.0,-51.0,-13.0,71.0,12.0,0
5.0,-247.0,-51.0,-15.0,72.0,12.0,0
3.0,-250.0,-54.0,-18.0,72.0,14.0,0
6.0,-252.0,-54.0,-21.0,74.0,14.0,0
7.0,-252.0,-56.0,-24.0,73.0,13.0,0
5.0,-256.0,-53.0,-25.0,74.0,13.0,0
5.0,-253.0,-55.0,-23.0,74.0,13.0,0
4.0,-253.0,-51.0,-21.0,76.0,13.0,0
8.0,-256.0,-55.0,-20.0,77.0,12.0,0
4.0,-253.0,-52.0,-18.0,79.0,11.0,0
4.0,-254.0,-55.0,-15.0,81.0,10.0,0
4.0,-256.0,-53.0,-11.0,83.0,11.0,0
8.0,-254.0,-55.0,-8.0,86.0,13.0,0
4.0,-255.0,-55.0,-6.0,86.0,15.0,0
3.0,-252.0,-51.0,-3.0,89.0,15.0,0
2.0,-255.0,-51.0,-6.0,90.0,16.0,0
3.0,-256.0,-53.0,-5.0,90.0,19.0,0
2.0,-256.0,-55.0,-4.0,90.0,20.0,0
3.0,-254.0,-52.0,-2.0,92.0,21.0,0
3.0,-253.0,-52.0,-1.0,92.0,20.0,0
2.0,-252.0,-53.0,0.0,93.0,21.0,0
3.0,-251.0,-50.0,2.0,94.0,21.0,0
5.0,-256.0,-53.0,5.0,93.0,20.0,0
4.0,-252.0,-52.0,6.0,94.0,21.0,0
3.0,-250.0,-51.0,6.0,95.0,20.0,0
2.0,-252.0,-54.0,5.0,96.0,19.0,0
3.0,-254.0,-51.0,4.0,96.0,19.0,0
3.0,-252.0,-54.0,1.0,95.0,20.0,0
4.0,-254.0,-52.0,1.0,95.0,19.0,0
4.0,-252.0,-50.0,3.0,97.0,20.0,0
3.0,-251.0,-52.0,3.0,95.0,19.0,0
2.0,-250.0,-54.0,2.0,94.0,19.0,0
2.0,-252.0,-51.0,2.0,95.0,18.0,0
4.0,-250.0,-57.0,0.0,97.0,16.0,0
6.0,-256.0,-53.0,-2.0,99.0,16.0,0
3.0,-254.0,-53.0,0.0,98.0,15.0,0
0.0,-252.0,-54.0,-1.0,96.0,13.0,0
4.0,-251.0,-51.0,-2.0,94.0,14.0,0
0.0,-249.0,-55.0,-1.0,93.0,16.0,0
2.0,-252.0,-50.0,-1.0,93.0,16.0,0
1.0,-252.0,-52.0,-3.0,92.0,18.0,0
1.0,-253.0,-52.0,-4.0,90.0,19.0,0
3.0,-252.0,-55.0,-5.0,87.0,21.0,0
2.0,-251.0,-53.0,-4.0,85.0,21.0,0
1.0,-253.0,-53.0,-1.0,84.0,22.0,0
1.0,-256.0,-53.0,-1.0,81.0,22.0,0
2.0,-253.0,-53.0,-1.0,79.0,22.0,0
3.0,-253.0,-53.0,0.0,79.0,23.0,0
4.0,-253.0,-54.0,-2.0,78.0,22.0,0
4.0,-252.0,-52.0,-3.0,77.0,22.0,0
3.0,-251.0,-49.0,-7.0,76.0,20.0,0
2.0,-252.0,-53.0,-9.0,76.0,21.0,0
5.0,-253.0,-50.0,-9.0,76.0,21.0,0
2.0,-250.0,-51.0,-8.0,78.0,19.0,0
5.0,-253.0,-54.0,-6.0,77.0,18.0,0
2.0,-254.0,-55.0,-6.0,75.0,18.0,0
3.0,-249.0,-55.0,-4.0,77.0,17.0,0
4.0,-254.0,-50.0,-1.0,75.0,18.0,0
2.0,-251.0,-52.0,1.0,74.0,17.0,0
2.0,-249.0,-54.0,2.0,73.0,17.0,0
5.0,-254.0,-55.0,3.0,74.0,16.0,0
4.0,-251.0,-55.0,4.0,74.0,16.0,0
3.0,-250.0,-47.0,7.0,74.0,15.0,0
4.0,-252.0,-52.0,9.0,75.0,16.0,0
4.0,-251.0,-53.0,10.0,76.0,15.0,0
4.0,-252.0,-53.0,12.0,76.0,16.0,0
5.0,-251.0,-54.0,10.0,80.0,16.0,0
3.0,-253.0,-53.0,8.0,78.0,16.0,0
2.0,-254.0,-51.0,5.0,77.0,18.0,0
0.0,-253.0,-47.0,1.0,76.0,20.0,0
1.0,-247.0,-57.0,-1.0,74.0,18.0,0
1.0,-253.0,-55.0,1.0,71.0,17.0,0
4.0,-254.0,-52.0,4.0,70.0,18.0,0
3.0,-254.0,-55.0,6.0,70.0,19.0,0
2.0,-252.0,-53.0,5.0,70.0,21.0,0
4.0,-256.0,-57.0,3.0,74.0,21.0,0
3.0,-252.0,-52.0,-2.0,77.0,22.0,0
5.0,-254.0,-52.0,-4.0,79.0,22.0,0
4.0,-253.0,-53.0,-5.0,81.0,22.0,0
4.0,-255.0,-52.0,-5.0,82.0,23.0,0
3.0,-256.0,-46.0,-5.0,84.0,24.0,0
3.0,-255.0,-53.0,-5.0,84.0,25.0,0
3.0,-252.0,-50.0,-6.0,85.0,26.0,0
6.0,-253.0,-52.0,-7.0,86.0,25.0,0
4.0,-254.0,-52.0,-8.0,89.0,27.0,0
2.0,-252.0,-51.0,-8.0,91.0,26.0,0
5.0,-253.0,-54.0,-9.0,93.0,26.0,0
3.0,-253.0,-52.0,-7.0,93.0,23.0,0
1.0,-251.0,-49.0,-5.0,95.0,22.0,0
3.0,-252.0,-50.0,-4.0,96.0,21.0,0
4.0,-254.0,-50.0,-4.0,96.0,22.0,0
2.0,-250.0,-51.0,-5.0,98.0,19.0,0
2.0,-251.0,-55.0,-7.0,98.0,18.0,0
1.0,-250.0,-49.0,-10.0,97.0,18.0,0
1.0,-251.0,-53.0,-14.0,98.0,18.0,0
2.0,-250.0,-47.0,-16.0,98.0,16.0,0
4.0,-251.0,-49.0,-17.0,99.0,16.0,0
1.0,-249.0,-50.0,-18.0,98.0,18.0,0
1.0,-250.0,-53.0,-18.0,98.0,18.0,0
3.0,-252.0,-49.0,-18.0,98.0,20.0,0
3.0,-255.0,-52.0,-17.0,99.0,20.0,0
4.0,-252.0,-47.0,-15.0,98.0,22.0,0
0.0,-253.0,-51.0,-16.0,100.0,19.0,0
1.0,-252.0,-51.0,-19.0,101.0,20.0,0
1.0,-250.0,-49.0,-21.0,101.0,21.0,0
1.0,-254.0,-54.0,-24.0,99.0,21.0,0
2.0,-252.0,-56.0,-26.0,98.0,21.0,0
1.0,-252.0,-53.0,-26.0,98.0,22.0,0
2.0,-254.0,-52.0,-24.0,99.0,23.0,0
2.0,-253.0,-51.0,-22.0,98.0,24.0,0
3.0,-257.0,-48.0,-22.0,98.0,24.0,0
2.0,-251.0,-51.0,-19.0,100.0,24.0,0
0.0,-252.0,-53.0,-17.0,102.0,24.0,0
0.0,-253.0,-54.0,-17.0,103.0,23.0,0
0.0,-249.0,-55.0,-15.0,103.0,23.0,0
0.0,-249.0,-52.0,-16.0,102.0,21.0,0
1.0,-253.0,-52.0,-18.0,103.0,19.0,0
0.0,-252.0,-53.0,-22.0,106.0,18.0,0
1.0,-249.0,-50.0,-28.0,108.0,17.0,0
0.0,-249.0,-49.0,-34.0,109.0,14.0,0
1.0,-250.0,-44.0,-37.0,109.0,12.0,0
0.0,-255.0,-50.0,-35.0,109.0,11.0,0
-2.0,-251.0,-51.0,-33.0,109.0,10.0,0
0.0,-249.0,-52.0,-31.0,110.0,9.0,0
0.0,-249.0,-55.0,-31.0,111.0,11.0,0
0.0,-248.0,-51.0,-34.0,110.0,11.0,0
1.0,-251.0,-52.0,-40.0,111.0,10.0,0
1.0,-251.0,-54.0,-47.0,111.0,9.0,0
2.0,-251.0,-52.0,-50.0,109.0,10.0,0
1.0,-252.0,-53.0,-52.0,110.0,10.0,0
2.0,-250.0,-56.0,-53.0,108.0,11.0,0
0.0,-252.0,-53.0,-54.0,107.0,12.0,0
2.0,-253.0,-55.0,-55.0,107.0,13.0,0
2.0,-254.0,-53.0,-55.0,107.0,14.0,0
0.0,-253.0,-56.0,-52.0,104.0,14.0,0
0.0,-265.0,-53.0,-48.0,102.0,13.0,0
0.0,-253.0,-54.0,-42.0,100.0,13.0,0
0.0,-252.0,-52.0,-36.0,97.0,13.0,0
0.0,-251.0,-54.0,-34.0,95.0,12.0,0
0.0,-250.0,-54.0,-35.0,93.0,12.0,0
-3.0,-249.0,-55.0,-40.0,93.0,12.0,0
0.0,-252.0,-55.0,-48.0,93.0,12.0,0
0.0,-250.0,-53.0,-55.0,92.0,14.0,0
-1.0,-249.0,-54.0,-61.0,93.0,14.0,0
0.0,-250.0,-53.0,-67.0,93.0,15.0,0
-1.0,-252.0,-54.0,-70.0,96.0,16.0,0
0.0,-251.0,-55.0,-72.0,97.0,17.0,0
-3.0,-250.0,-54.0,-72.0,96.0,17.0,0
-1.0,-251.0,-55.0,-73.0,96.0,18.0,0
0.0,-251.0,-53.0,-74.0,93.0,18.0,0
-1.0,-251.0,-56.0,-74.0,91.0,17.0,0
-4.0,-251.0,-54.0,-74.0,90.0,14.0,0
-2.0,-248.0,-55.0,-75.0,90.0,14.0,0
-1.0,-249.0,-58.0,-75.0,91.0,14.0,0
-1.0,-252.0,-56.0,-77.0,90.0,12.0,0
0.0,-249.0,-52.0,-79.0,92.0,10.0,0
-1.0,-248.0,-55.0,-81.0,92.0,9.0,0
-2.0,-251.0,-57.0,-84.0,92.0,8.0,0
0.0,-251.0,-59.0,-83.0,93.0,8.0,0
-1.0,-254.0,-52.0,-82.0,93.0,7.0,0
0.0,-253.0,-56.0,-80.0,94.0,7.0,0
0.0,-250.0,-56.0,-78.0,92.0,8.0,0
-1.0,-255.0,-58.0,-75.0,92.0,8.0,0
0.0,-253.0,-56.0,-74.0,91.0,7.0,0
-3.0,-251.0,-55.0,-72.0,87.0,6.0,0
-4.0,-252.0,-59.0,-69.0,85.0,6.0,0
-6.0,-252.0,-60.0,-66.0,83.0,7.0,0
-3.0,-251.0,-61.0,-64.0,82.0,7.0,0
0.0,-252.0,-57.0,-64.0,81.0,8.0,0
-3.0,-250.0,-57.0,-65.0,81.0,9.0,0
-5.0,-250.0,-55.0,-68.0,80.0,9.0,0
-3.0,-250.0,-58.0,-69.0,79.0,9.0,0
-6.0,-249.0,-57.0,-70.0,79.0,9.0,0
-1.0,-251.0,-58.0,-67.0,78.0,11.0,0
-2.0,-251.0,-54.0,-65.0,79.0,11.0,0
-2.0,-251.0,-56.0,-62.0,80.0,9.0,0
0.0,-251.0,-57.0,-62.0,79.0,10.0,0
0.0,-250.0,-57.0,-63.0,77.0,9.0,0
-2.0,-251.0,-58.0,-66.0,76.0,10.0,0
0.0,-247.0,-60.0,-68.0,73.0,10.0,0
-1.0,-251.0,-58.0,-71.0,72.0,8.0,0
-2.0,-252.0,-60.0,-69.0,70.0,8.0,0
-1.0,-252.0,-62.0,-66.0,67.0,5.0,0
-3.0,-255.0,-63.0,-62.0,68.0,4.0,0
-2.0,-251.0,-63.0,-58.0,68.0,4.0,0
-4.0,-250.0,-61.0,-56.0,68.0,3.0,0
-2.0,-248.0,-60.0,-55.0,69.0,3.0,0
-2.0,-248.0,-58.0,-58.0,69.0,4.0,0
-5.0,-249.0,-57.0,-61.0,70.0,4.0,0
-5.0,-251.0,-58.0,-65.0,70.0,3.0,0
-2.0,-252.0,-59.0,-66.0,70.0,2.0,0
-1.0,-251.0,-63.0,-63.0,68.0,2.0,0
-5.0,-253.0,-58.0,-60.0,64.0,2.0,0
-2.0,-252.0,-62.0,-54.0,59.0,1.0,0
-5.0,-254.0,-62.0,-45.0,57.0,-1.0,0
0.0,-254.0,-62.0,-39.0,56.0,-1.0,0
-4.0,-251.0,-60.0,-36.0,53.0,-1.0,0
0.0,-254.0,-62.0,-34.0,53.0,-1.0,0
-1.0,-249.0,-60.0,-35.0,51.0,1.0,0
-1.0,-253.0,-62.0,-36.0,49.0,1.0,0
-3.0,-256.0,-67.0,-35.0,48.0,0.0,0
-1.0,-251.0,-62.0,-34.0,48.0,0.0,0
-4.0,-252.0,-61.0,-32.0,47.0,1.0,0
0.0,-249.0,-58.0,-30.0,47.0,0.0,0
-1.0,-249.0,-60.0,-28.0,47.0,0.0,0
0.0,-252.0,-59.0,-29.0,48.0,1.0,0
-3.0,-251.0,-56.0,-32.0,49.0,1.0,0
0.0,-253.0,-61.0,-39.0,49.0,-2.0,0
0.0,-251.0,-61.0,-42.0,52.0,-1.0,0
-2.0,-252.0,-60.0,-43.0,51.0,1.0,0
-1.0,-255.0,-58.0,-43.0,52.0,0.0,0
-3.0,-252.0,-56.0,-39.0,51.0,0.0,0
0.0,-250.0,-61.0,-36.0,49.0,1.0,0
-4.0,-252.0,-59.0,-31.0,47.0,2.0,0
0.0,-251.0,-61.0,-26.0,45.0,-1.0,0
0.0,-248.0,-63.0,-24.0,46.0,1.0,0
-2.0,-247.0,-59.0,-26.0,47.0,2.0,0
-1.0,-252.0,-59.0,-29.0,52.0,2.0,0
1.0,-250.0,-61.0,-33.0,59.0,4.0,0
-1.0,-250.0,-55.0,-38.0,63.0,4.0,0
0.0,-251.0,-58.0,-40.0,64.0,4.0,0
-1.0,-252.0,-56.0,-42.0,66.0,4.0,0
1.0,-252.0,-57.0,-42.0,67.0,3.0,0
0.0,-252.0,-59.0,-40.0,65.0,2.0,0
0.0,-251.0,-54.0,-40.0,66.0,0.0,0
0.0,-251.0,-59.0,-37.0,66.0,1.0,0
0.0,-253.0,-59.0,-36.0,66.0,2.0,0
-1.0,-254.0,-56.0,-34.0,66.0,2.0,0
-3.0,-249.0,-59.0,-33.0,65.0,3.0,0
-1.0,-252.0,-54.0,-34.0,62.0,4.0,0
0.0,-253.0,-59.0,-34.0,57.0,6.0,0
0.0,-253.0,-58.0,-31.0,53.0,5.0,0
-2.0,-251.0,-58.0,-28.0,50.0,6.0,0
0.0,-250.0,-57.0,-27.0,48.0,6.0,0
0.0,-251.0,-62.0,-25.0,46.0,7.0,0
1.0,-253.0,-56.0,-27.0,47.0,8.0,0
-2.0,-251.0,-63.0,-27.0,45.0,10.0,0
0.0,-252.0,-60.0,-30.0,45.0,10.0,0
0.0,-254.0,-62.0,-29.0,44.0,12.0,0
0.0,-252.0,-60.0,-26.0,46.0,12.0,0
1.0,-257.0,-61.0,-21.0,47.0,12.0,0
0.0,-255.0,-63.0,-17.0,49.0,10.0,0
-1.0,-253.0,-65.0,-14.0,48.0,10.0,0
0.0,-247.0,-63.0,-11.0,50.0,11.0,0
4.0,-256.0,-65.0,-11.0,51.0,11.0,0
0.0,-247.0,-64.0,-12.0,53.0,9.0,0
0.0,-254.0,-63.0,-15.0,57.0,8.0,0
0.0,-249.0,-60.0,-17.0,60.0,8.0,0
0.0,-248.0,-60.0,-19.0,62.0,7.0,0
0.0,-248.0,-61.0,-17.0,64.0,5.0,0
0.0,-248.0,-59.0,-15.0,63.0,4.0,0
0.0,-248.0,-58.0,-13.0,66.0,4.0,0
0.0,-248.0,-59.0,-10.0,67.0,1.0,0
0.0,-247.0,-63.0,-10.0,70.0,1.0,0
0.0,-248.0,-60.0,-7.0,71.0,-1.0,0
1.0,-248.0,-64.0,-7.0,70.0,-2.0,0
1.0,-248.0,-60.0,-8.0,71.0,-2.0,0
-2.0,-247.0,-61.0,-9.0,68.0,-1.0,0
1.0,-248.0,-62.0,-10.0,67.0,-3.0,0
0.0,-248.0,-62.0,-9.0,66.0,-2.0,0
0.0,-249.0,-58.0,-9.0,66.0,-3.0,0
0.0,-248.0,-62.0,-9.0,67.0,-2.0,0
0.0,-248.0,-65.0,-6.0,67.0,-1.0,0
2.0,-247.0,-61.0,-5.0,68.0,0.0,0
-1.0,-251.0,-60.0,-3.0,69.0,-1.0,0
0.0,-248.0,-63.0,-3.0,70.0,-2.0,0
4.0,-249.0,-67.0,-1.0,73.0,-2.0,0
2.0,-250.0,-64.0,-1.0,74.0,-3.0,0
2.0,-249.0,-64.0,-1.0,76.0,-2.0,0
1.0,-246.0,-61.0,-2.0,79.0,-3.0,0
1.0,-250.0,-65.0,-5.0,80.0,-3.0,0
4.0,-248.0,-60.0,-7.0,82.0,-4.0,0
3.0,-250.0,-63.0,-5.0,84.0,-6.0,0
2.0,-249.0,-63.0,-6.0,86.0,-6.0,0
2.0,-249.0,-61.0,-4.0,91.0,-6.0,0
4.0,-251.0,-65.0,-1.0,93.0,-8.0,0
3.0,-250.0,-62.0,0.0,96.0,-9.0,0
0.0,-251.0,-62.0,-1.0,97.0,-10.0,0
0.0,-246.0,-62.0,0.0,100.0,-11.0,0
2.0,-250.0,-63.0,-2.0,102.0,-10.0,0
2.0,-248.0,-64.0,-4.0,105.0,-12.0,0
4.0,-250.0,-67.0,-5.0,107.0,-11.0,0
2.0,-249.0,-60.0,-9.0,111.0,-10.0,0
2.0,-248.0,-59.0,-7.0,116.0,-10.0,0
1.0,-248.0,-59.0,-7.0,120.0,-11.0,0
2.0,-253.0,-59.0,-3.0,123.0,-11.0,0
0.0,-249.0,-59.0,-1.0,125.0,-11.0,0
1.0,-248.0,-59.0,1.0,128.0,-11.0,0
0.0,-249.0,-61.0,1.0,131.0,-9.0,0
1.0,-249.0,-59.0,0.0,133.0,-9.0,0
1.0,-251.0,-60.0,-2.0,135.0,-7.0,0
0.0,-251.0,-62.0,-4.0,137.0,-6.0,0
2.0,-251.0,-59.0,-4.0,139.0,-7.0,0
2.0,-251.0,-62.0,0.0,141.0,-6.0,0
1.0,-251.0,-60.0,2.0,144.0,-6.0,0
2.0,-249.0,-61.0,7.0,147.0,-6.0,0
2.0,-247.0,-61.0,9.0,151.0,-7.0,0
2.0,-249.0,-65.0,9.0,156.0,-7.0,0
1.0,-249.0,-64.0,7.0,159.0,-8.0,0
3.0,-250.0,-63.0,5.0,163.0,-8.0,0
1.0,-253.0,-59.0,4.0,163.0,-9.0,0
0.0,-253.0,-62.0,5.0,163.0,-10.0,0
1.0,-253.0,-64.0,5.0,164.0,-10.0,0
0.0,-250.0,-63.0,6.0,162.0,-10.0,0
0.0,-252.0,-60.0,7.0,160.0,-9.0,0
0.0,-255.0,-62.0,8.0,158.0,-9.0,0
1.0,-249.0,-62.0,6.0,156.0,-8.0,0
-2.0,-248.0,-60.0,7.0,156.0,-7.0,0
-3.0,-253.0,-64.0,7.0,155.0,-6.0,0
-1.0,-249.0,-65.0,7.0,154.0,-3.0,0
-2.0,-249.0,-63.0,9.0,151.0,-2.0,0
-2.0,-249.0,-61.0,11.0,148.0,-1.0,0
0.0,-252.0,-63.0,14.0,146.0,-1.0,0
-2.0,-251.0,-56.0,14.0,145.0,-1.0,0
-2.0,-252.0,-63.0,17.0,143.0,-4.0,0
0.0,-251.0,-57.0,18.0,142.0,-4.0,0
2.0,-251.0,-61.0,19.0,141.0,-4.0,0
0.0,-250.0,-61.0,17.0,142.0,-2.0,0
0.0,-251.0,-58.0,16.0,141.0,-2.0,0
1.0,-250.0,-62.0,17.0,141.0,-2.0,0
1.0,-250.0,-61.0,16.0,142.0,-1.0,0
1.0,-253.0,-62.0,18.0,142.0,-1.0,0
1.0,-251.0,-62.0,19.0,141.0,0.0,0
1.0,-249.0,-60.0,21.0,139.0,3.0,0
-2.0,-251.0,-60.0,23.0,137.0,4.0,0
1.0,-250.0,-61.0,24.0,135.0,4.0,0
0.0,-250.0,-62.0,24.0,132.0,5.0,0
-2.0,-250.0,-60.0,24.0,131.0,5.0,0
1.0,-251.0,-58.0,25.0,132.0,6.0,0
3.0,-254.0,-56.0,23.0,133.0,5.0,0
0.0,-248.0,-61.0,21.0,134.0,4.0,0
1.0,-248.0,-61.0,18.0,137.0,4.0,0
-2.0,-248.0,-58.0,17.0,138.0,6.0,0
2.0,-253.0,-61.0,15.0,138.0,5.0,0
0.0,-250.0,-59.0,13.0,137.0,4.0,0
0.0,-249.0,-59.0,12.0,136.0,4.0,0
0.0,-249.0,-55.0,11.0,134.0,4.0,0
0.0,-247.0,-54.0,9.0,135.0,2.0,0
1.0,-249.0,-56.0,8.0,133.0,2.0,0
2.0,-250.0,-58.0,6.0,134.0,0.0,0
0.0,-250.0,-60.0,3.0,135.0,1.0,0
2.0,-252.0,-57.0,1.0,133.0,0.0,0
1.0,-251.0,-62.0,0.0,134.0,-2.0,0
0.0,-252.0,-59.0,2.0,134.0,-1.0,0
0.0,-251.0,-60.0,6.0,134.0,-1.0,0
-2.0,-250.0,-61.0,9.0,136.0,-2.0,0
0.0,-250.0,-58.0,14.0,136.0,-1.0,0
-2.0,-249.0,-59.0,17.0,133.0,-4.0,0
0.0,-251.0,-59.0,17.0,132.0,-2.0,0
1.0,-251.0,-57.0,15.0,131.0,-1.0,0
2.0,-252.0,-61.0,15.0,128.0,-2.0,0
0.0,-253.0,-60.0,14.0,126.0,-2.0,0
-1.0,-250.0,-52.0,13.0,123.0,-3.0,0
2.0,-258.0,-56.0,11.0,121.0,-2.0,0
-1.0,-254.0,-53.0,14.0,119.0,-3.0,0
1.0,-256.0,-57.0,16.0,116.0,-5.0,0
2.0,-251.0,-62.0,19.0,113.0,-5.0,0
0.0,-249.0,-63.0,20.0,111.0,-4.0,0
1.0,-252.0,-63.0,20.0,109.0,-4.0,0
1.0,-252.0,-61.0,20.0,110.0,-3.0,0
1.0,-250.0,-61.0,18.0,110.0,-3.0,0
0.0,-250.0,-61.0,16.0,111.0,-2.0,0
2.0,-252.0,-59.0,16.0,110.0,-2.0,0
0.0,-252.0,-58.0,14.0,110.0,-4.0,0
1.0,-250.0,-60.0,13.0,110.0,-4.0,0
2.0,-251.0,-55.0,12.0,109.0,-4.0,0
1.0,-251.0,-58.0,13.0,110.0,-5.0,0
0.0,-253.0,-59.0,14.0,110.0,-4.0,0
1.0,-250.0,-55.0,14.0,109.0,-5.0,0
3.0,-250.0,-56.0,13.0,106.0,-5.0,0
0.0,-251.0,-57.0,13.0,103.0,-5.0,0
-2.0,-253.0,-54.0,12.0,99.0,-4.0,0
0.0,-252.0,-52.0,12.0,96.0,-5.0,0
1.0,-250.0,-55.0,11.0,91.0,-4.0,0
0.0,-250.0,-54.0,9.0,87.0,-5.0,0
1.0,-252.0,-54.0,9.0,85.0,-4.0,0
1.0,-251.0,-55.0,10.0,85.0,-4.0,0
1.0,-251.0,-52.0,12.0,82.0,-5.0,0
1.0,-253.0,-58.0,13.0,78.0,-4.0,0
2.0,-253.0,-57.0,14.0,76.0,-3.0,0
5.0,-253.0,-59.0,17.0,76.0,-4.0,0
2.0,-250.0,-57.0,21.0,77.0,-3.0,0
0.0,-249.0,-57.0,21.0,78.0,-4.0,0
2.0,-249.0,-57.0,20.0,76.0,-4.0,0
1.0,-250.0,-58.0,18.0,76.0,-4.0,0
1.0,-251.0,-54.0,15.0,75.0,-3.0,0
2.0,-253.0,-56.0,14.0,77.0,-2.0,0
0.0,-250.0,-54.0,16.0,78.0,-3.0,0
2.0,-252.0,-56.0,17.0,80.0,-3.0,0
3.0,-254.0,-54.0,20.0,80.0,-3.0,0
0.0,-250.0,-55.0,21.0,81.0,-3.0,0
3.0,-250.0,-53.0,21.0,82.0,-4.0,0
1.0,-249.0,-59.0,20.0,82.0,-4.0,0
2.0,-253.0,-54.0,19.0,81.0,-3.0,0
2.0,-254.0,-55.0,19.0,81.0,-3.0,0
2.0,-251.0,-55.0,20.0,79.0,-5.0,0
-1.0,-253.0,-55.0,20.0,80.0,-4.0,0
2.0,-250.0,-54.0,21.0,77.0,-5.0,0
2.0,-250.0,-53.0,20.0,76.0,-8.0,0
0.0,-249.0,-57.0,17.0,76.0,-7.0,0
1.0,-249.0,-54.0,13.0,76.0,-6.0,0
1.0,-251.0,-55.0,11.0,75.0,-8.0,0
2.0,-253.0,-54.0,8.0,76.0,-5.0,0
-1.0,-252.0,-55.0,8.0,75.0,-5.0,0
0.0,-252.0,-56.0,9.0,71.0,-6.0,0
0.0,-252.0,-54.0,12.0,68.0,-6.0,0
0.0,-251.0,-57.0,14.0,65.0,-5.0,0
0.0,-252.0,-58.0,17.0,64.0,-5.0,0
2.0,-252.0,-55.0,20.0,60.0,-4.0,0
0.0,-250.0,-53.0,19.0,60.0,-3.0,0
0.0,-251.0,-59.0,17.0,60.0,-4.0,0
0.0,-251.0,-56.0,16.0,59.0,-3.0,0
3.0,-252.0,-56.0,16.0,57.0,-2.0,0
1.0,-252.0,-56.0,17.0,56.0,-3.0,0
3.0,-250.0,-52.0,16.0,55.0,-4.0,0
3.0,-249.0,-56.0,16.0,56.0,-3.0,0
5.0,-251.0,-58.0,16.0,55.0,-3.0,0
1.0,-250.0,-52.0,16.0,56.0,-3.0,0
0.0,-252.0,-53.0,16.0,58.0,-3.0,0
2.0,-251.0,-53.0,12.0,59.0,-2.0,0
0.0,-253.0,-54.0,10.0,60.0,-1.0,0
0.0,-252.0,-54.0,8.0,60.0,-2.0,0
4.0,-255.0,-53.0,10.0,60.0,-1.0,0
1.0,-253.0,-49.0,11.0,60.0,-2.0,0
1.0,-249.0,-56.0,13.0,60.0,-1.0,0
2.0,-251.0,-52.0,13.0,60.0,-1.0,0
2.0,-254.0,-53.0,11.0,59.0,0.0,0
4.0,-251.0,-53.0,9.0,57.0,-1.0,0
2.0,-250.0,-55.0,7.0,56.0,-2.0,0
3.0,-251.0,-53.0,8.0,55.0,-1.0,0
0.0,-251.0,-55.0,8.0,55.0,-1.0,0
1.0,-251.0,-55.0,8.0,52.0,-1.0,0
1.0,-251.0,-55.0,8.0,50.0,-2.0,0
3.0,-251.0,-54.0,7.0,49.0,0.0,0
2.0,-249.0,-53.0,7.0,48.0,0.0,0
0.0,-249.0,-54.0,7.0,48.0,-1.0,0
3.0,-252.0,-55.0,8.0,46.0,0.0,0
1.0,-251.0,-54.0,10.0,47.0,0.0,0
1.0,-248.0,-57.0,9.0,48.0,-1.0,0
2.0,-251.0,-57.0,9.0,48.0,-1.0,0
0.0,-250.0,-57.0,9.0,49.0,-1.0,0
2.0,-252.0,-53.0,8.0,50.0,-2.0,0
0.0,-250.0,-56.0,4.0,51.0,-2.0,0
1.0,-250.0,-55.0,3.0,53.0,-1.0,0
1.0,-250.0,-57.0,-1.0,52.0,-3.0,0
1.0,-249.0,-51.0,-3.0,53.0,-2.0,0
0.0,-248.0,-52.0,-5.0,55.0,-3.0,0
0.0,-251.0,-52.0,-7.0,56.0,-3.0,0
2.0,-252.0,-52.0,-9.0,56.0,-3.0,0
1.0,-252.0,-55.0,-10.0,53.0,-3.0,0
0.0,-251.0,-53.0,-9.0,52.0,-3.0,0
0.0,-252.0,-52.0,-9.0,50.0,-3.0,0
0.0,-252.0,-55.0,-8.0,52.0,-5.0,0
1.0,-252.0,-53.0,-6.0,53.0,-5.0,0
1.0,-251.0,-53.0,-5.0,52.0,-5.0,0
1.0,-251.0,-54.0,-5.0,53.0,-3.0,0
2.0,-252.0,-57.0,-4.0,54.0,-4.0,0
2.0,-251.0,-53.0,-2.0,56.0,-3.0,0
1.0,-254.0,-52.0,-3.0,54.0,-3.0,0
1.0,-253.0,-54.0,-4.0,55.0,-3.0,0
2.0,-254.0,-53.0,-3.0,55.0,-4.0,0
3.0,-252.0,-53.0,-2.0,55.0,-4.0,0
6.0,-251.0,-48.0,-3.0,56.0,-3.0,0
1.0,-252.0,-58.0,-3.0,56.0,-2.0,0
1.0,-253.0,-49.0,-5.0,55.0,-2.0,0
3.0,-252.0,-56.0,-7.0,56.0,-1.0,0
1.0,-253.0,-53.0,-7.0,55.0,0.0,0
0.0,-254.0,-55.0,-7.0,55.0,0.0,0
1.0,-253.0,-53.0,-8.0,56.0,0.0,0
3.0,-253.0,-54.0,-10.0,57.0,1.0,0
-1.0,-250.0,-51.0,-10.0,57.0,1.0,0
0.0,-253.0,-49.0,-7.0,57.0,1.0,0
1.0,-250.0,-53.0,-7.0,58.0,2.0,0
2.0,-253.0,-52.0,-7.0,58.0,2.0,0
2.0,-252.0,-53.0,-7.0,59.0,2.0,0
0.0,-252.0,-54.0,-5.0,60.0,4.0,0
0.0,-251.0,-52.0,-4.0,60.0,2.0,0
1.0,-250.0,-57.0,-3.0,61.0,0.0,0
2.0,-253.0,-54.0,-3.0,61.0,-1.0,0
2.0,-251.0,-54.0,-4.0,61.0,0.0,0
0.0,-251.0,-52.0,-7.0,63.0,-2.0,0
0.0,-252.0,-50.0,-9.0,63.0,-2.0,0
1.0,-253.0,-54.0,-10.0,62.0,-3.0,0
0.0,-251.0,-55.0,-8.0,64.0,-5.0,0
2.0,-247.0,-55.0,-7.0,68.0,-3.0,0
1.0,-251.0,-49.0,-5.0,68.0,-3.0,0
2.0,-255.0,-54.0,-5.0,69.0,-2.0,0
0.0,-253.0,-51.0,-5.0,70.0,-1.0,0
1.0,-251.0,-53.0,-5.0,72.0,-2.0,0
2.0,-253.0,-54.0,-5.0,71.0,-1.0,0
2.0,-252.0,-51.0,-5.0,72.0,0.0,0
1.0,-250.0,-52.0,-2.0,73.0,1.0,0
1.0,-250.0,-52.0,-1.0,71.0,0.0,0
0.0,-251.0,-56.0,-1.0,70.0,-1.0,0
1.0,-256.0,-50.0,0.0,69.0,0.0,0
0.0,-254.0,-50.0,-1.0,69.0,0.0,0
0.0,-253.0,-52.0,1.0,68.0,-1.0,0
0.0,-254.0,-53.0,3.0,65.0,-2.0,0
1.0,-249.0,-57.0,6.0,63.0,-1.0,0
1.0,-251.0,-55.0,7.0,63.0,-1.0,0
0.0,-250.0,-57.0,5.0,64.0,1.0,0
0.0,-252.0,-54.0,1.0,68.0,1.0,0
0.0,-253.0,-52.0,-1.0,70.0,3.0,0
0.0,-252.0,-55.0,-2.0,71.0,4.0,0
1.0,-248.0,-56.0,-2.0,72.0,4.0,0
2.0,-251.0,-48.0,-3.0,73.0,3.0,0
3.0,-253.0,-51.0,-2.0,75.0,3.0,0
3.0,-253.0,-54.0,-3.0,77.0,3.0,0
3.0,-251.0,-53.0,-4.0,82.0,2.0,0
2.0,-252.0,-54.0,-3.0,84.0,5.0,0
1.0,-253.0,-49.0,-5.0,86.0,3.0,0
2.0,-252.0,-53.0,-5.0,88.0,4.0,0
1.0,-253.0,-53.0,-5.0,86.0,4.0,0
1.0,-251.0,-53.0,-5.0,87.0,5.0,0
2.0,-254.0,-51.0,-5.0,85.0,6.0,0
0.0,-249.0,-50.0,-4.0,83.0,5.0,0
0.0,-250.0,-51.0,-6.0,80.0,5.0,0
0.0,-250.0,-50.0,-8.0,78.0,3.0,0
-1.0,-252.0,-50.0,-11.0,77.0,4.0,0
-2.0,-251.0,-55.0,-13.0,75.0,4.0,0
0.0,-253.0,-53.0,-15.0,76.0,4.0,0
1.0,-253.0,-55.0,-16.0,75.0,4.0,0
0.0,-252.0,-55.0,-15.0,75.0,4.0,0
-1.0,-251.0,-53.0,-13.0,77.0,4.0,0
2.0,-252.0,-56.0,-13.0,78.0,4.0,0
1.0,-253.0,-52.0,-13.0,80.0,3.0,0
1.0,-252.0,-54.0,-12.0,79.0,3.0,0
1.0,-247.0,-59.0,-13.0,80.0,2.0,0
1.0,-253.0,-57.0,-12.0,83.0,3.0,0
3.0,-253.0,-54.0,-12.0,84.0,3.0,0
2.0,-251.0,-54.0,-12.0,84.0,2.0,0
-1.0,-250.0,-52.0,-12.0,84.0,3.0,0
2.0,-253.0,-50.0,-12.0,84.0,3.0,0
0.0,-254.0,-56.0,-12.0,84.0,2.0,0
2.0,-253.0,-50.0,-11.0,85.0,2.0,0
-1.0,-251.0,-58.0,-10.0,83.0,2.0,0
1.0,-252.0,-58.0,-10.0,83.0,1.0,0
0.0,-253.0,-45.0,-10.0,84.0,0.0,0
1.0,-252.0,-52.0,-9.0,84.0,-1.0,0
1.0,-251.0,-57.0,-8.0,85.0,1.0,0
-2.0,-249.0,-52.0,-7.0,83.0,0.0,0
1.0,-250.0,-54.0,-7.0,81.0,1.0,0
3.0,-254.0,-52.0,-9.0,79.0,1.0,0
0.0,-251.0,-56.0,-11.0,80.0,1.0,0
1.0,-253.0,-52.0,-11.0,79.0,2.0,0
3.0,-256.0,-53.0,-10.0,77.0,2.0,0
-2.0,-253.0,-55.0,-9.0,75.0,3.0,0
4.0,-251.0,-56.0,-10.0,74.0,2.0,0
4.0,-251.0,-54.0,-12.0,75.0,3.0,0
3.0,-253.0,-55.0,-14.0,75.0,3.0,0
1.0,-251.0,-55.0,-16.0,77.0,3.0,0
0.0,-252.0,-55.0,-18.0,78.0,5.0,0
2.0,-249.0,-51.0,-19.0,77.0,6.0,0
0.0,-253.0,-54.0,-19.0,79.0,5.0,0
1.0,-251.0,-50.0,-20.0,78.0,5.0,0
2.0,-255.0,-55.0,-19.0,79.0,5.0,0
1.0,-250.0,-57.0,-15.0,78.0,6.0,0
0.0,-251.0,-57.0,-14.0,79.0,5.0,0
1.0,-255.0,-52.0,-15.0,77.0,4.0,0
0.0,-248.0,-52.0,-15.0,77.0,5.0,0
0.0,-250.0,-57.0,-19.0,76.0,3.0,0
0.0,-252.0,-55.0,-20.0,75.0,4.0,0
0.0,-254.0,-55.0,-20.0,74.0,3.0,0
3.0,-254.0,-51.0,-19.0,74.0,3.0,0
2.0,-252.0,-53.0,-19.0,75.0,3.0,0
1.0,-252.0,-54.0,-19.0,75.0,5.0,0
0.0,-250.0,-48.0,-20.0,75.0,5.0,0
1.0,-250.0,-54.0,-21.0,76.0,5.0,0
0.0,-252.0,-50.0,-23.0,77.0,3.0,0
0.0,-252.0,-48.0,-24.0,74.0,4.0,0
