ax,ay,az,gx,gy,gz,label
24.0,-261.0,38.0,-12.0,64.0,-3.0,0
25.0,-260.0,41.0,-14.0,63.0,-3.0,0
26.0,-262.0,44.0,-15.0,64.0,-4.0,0
24.0,-262.0,41.0,-15.0,63.0,-5.0,0
25.0,-262.0,41.0,-15.0,64.0,-4.0,0
29.0,-258.0,26.0,-16.0,64.0,-3.0,0
23.0,-261.0,44.0,-17.0,65.0,-3.0,0
24.0,-264.0,39.0,-16.0,64.0,-4.0,0
23.0,-261.0,42.0,-16.0,63.0,-2.0,0
23.0,-262.0,40.0,-16.0,62.0,-2.0,0
26.0,-265.0,40.0,-16.0,61.0,-3.0,0
24.0,-263.0,41.0,-16.0,63.0,-3.0,0
27.0,-263.0,41.0,-15.0,60.0,-2.0,0
23.0,-263.0,44.0,-16.0,61.0,-1.0,0
22.0,-260.0,39.0,-17.0,60.0,-2.0,0
33.0,-259.0,36.0,-18.0,59.0,-2.0,0
23.0,-260.0,43.0,-21.0,58.0,-1.0,0
24.0,-261.0,38.0,-23.0,60.0,-1.0,0
22.0,-262.0,41.0,-24.0,58.0,-2.0,0
23.0,-259.0,43.0,-26.0,59.0,0.0,0
23.0,-262.0,44.0,-29.0,58.0,-2.0,0
21.0,-261.0,39.0,-30.0,58.0,-1.0,0
22.0,-261.0,39.0,-31.0,59.0,-2.0,0
25.0,-260.0,40.0,-30.0,62.0,-1.0,0
25.0,-262.0,37.0,-30.0,62.0,-1.0,0
22.0,-262.0,43.0,-30.0,63.0,-2.0,0
26.0,-256.0,41.0,-30.0,63.0,-3.0,0
23.0,-259.0,39.0,-30.0,64.0,-3.0,0
25.0,-259.0,44.0,-30.0,64.0,-3.0,0
26.0,-260.0,40.0,-31.0,65.0,-5.0,0
20.0,-262.0,40.0,-31.0,64.0,-5.0,0
25.0,-261.0,40.0,-32.0,63.0,-5.0,0
24.0,-261.0,40.0,-34.0,61.0,-6.0,0
23.0,-261.0,40.0,-33.0,61.0,-5.0,0
23.0,-259.0,40.0,-34.0,61.0,-5.0,0
23.0,-262.0,41.0,-35.0,60.0,-4.0,0
23.0,-262.0,41.0,-34.0,60.0,-4.0,0
26.0,-263.0,40.0,-33.0,60.0,-5.0,0
25.0,-267.0,37.0,-32.0,59.0,-3.0,0
26.0,-261.0,36.0,-29.0,61.0,-3.0,0
26.0,-264.0,37.0,-27.0,60.0,-4.0,0
23.0,-262.0,43.0,-24.0,60.0,-3.0,0
22.0,-263.0,40.0,-21.0,61.0,-3.0,0
24.0,-261.0,41.0,-18.0,62.0,-2.0,0
22.0,-264.0,38.0,-18.0,64.0,-2.0,0
22.0,-261.0,39.0,-17.0,64.0,-3.0,0
24.0,-259.0,43.0,-17.0,66.0,-6.0,0
24.0,-265.0,43.0,-18.0,67.0,-6.0,0
22.0,-264.0,40.0,-18.0,69.0,-5.0,0
23.0,-262.0,39.0,-17.0,70.0,-7.0,0
24.0,-262.0,41.0,-18.0,70.0,-7.0,0
24.0,-262.0,41.0,-18.0,70.0,-8.0,0
24.0,-263.0,42.0,-18.0,70.0,-9.0,0
26.0,-263.0,40.0,-18.0,70.0,-9.0,0
25.0,-263.0,36.0,-18.0,70.0,-7.0,0
22.0,-262.0,39.0,-18.0,70.0,-8.0,0
21.0,-261.0,38.0,-18.0,70.0,-8.0,0
24.0,-262.0,41.0,-17.0,69.0,-7.0,0
25.0,-262.0,39.0,-17.0,69.0,-6.0,0
25.0,-263.0,42.0,-17.0,68.0,-6.0,0
26.0,-265.0,41.0,-17.0,68.0,-5.0,0
24.0,-260.0,37.0,-18.0,68.0,-5.0,0
25.0,-261.0,40.0,-19.0,67.0,-5.0,0
26.0,-261.0,39.0,-18.0,67.0,-5.0,0
24.0,-263.0,40.0,-18.0,67.0,-6.0,0
24.0,-262.0,40.0,-18.0,67.0,-6.0,0
23.0,-261.0,41.0,-18.0,67.0,-6.0,0
24.0,-261.0,40.0,-18.0,67.0,-6.0,0
22.0,-260.0,39.0,-16.0,67.0,-6.0,0
22.0,-266.0,39.0,-18.0,68.0,-8.0,0
23.0,-261.0,41.0,-16.0,69.0,-7.0,0
24.0,-264.0,41.0,-16.0,68.0,-7.0,0
25.0,-261.0,41.0,-16.0,68.0,-6.0,0
27.0,-263.0,39.0,-16.0,68.0,-8.0,0
25.0,-261.0,39.0,-16.0,69.0,-8.0,0
26.0,-263.0,41.0,-18.0,68.0,-9.0,0
22.0,-262.0,36.0,-19.0,70.0,-7.0,0
24.0,-261.0,39.0,-20.0,70.0,-7.0,0
21.0,-260.0,37.0,-23.0,69.0,-8.0,0
21.0,-261.0,39.0,-24.0,68.0,-10.0,0
24.0,-261.0,38.0,-24.0,68.0,-9.0,0
23.0,-260.0,39.0,-26.0,69.0,-8.0,0
22.0,-260.0,39.0,-26.0,69.0,-8.0,0
23.0,-258.0,41.0,-26.0,67.0,-8.0,0
26.0,-261.0,40.0,-25.0,68.0,-9.0,0
26.0,-262.0,43.0,-24.0,67.0,-8.0,0
27.0,-261.0,41.0,-23.0,69.0,-9.0,0
23.0,-262.0,41.0,-22.0,70.0,-9.0,0
24.0,-262.0,41.0,-22.0,69.0,-8.0,0
24.0,-261.0,43.0,-23.0,70.0,-9.0,0
14.0,-264.0,43.0,-22.0,71.0,-8.0,0
28.0,-263.0,44.0,-22.0,73.0,-10.0,0
27.0,-262.0,39.0,-22.0,73.0,-11.0,0
25.0,-263.0,41.0,-23.0,74.0,-11.0,0
24.0,-259.0,38.0,-22.0,74.0,-10.0,0
25.0,-260.0,41.0,-24.0,76.0,-10.0,0
22.0,-260.0,40.0,-24.0,75.0,-11.0,0
25.0,-262.0,42.0,-25.0,77.0,-9.0,0
26.0,-262.0,40.0,-26.0,75.0,-9.0,0
23.0,-258.0,42.0,-26.0,76.0,-10.0,0
24.0,-261.0,40.0,-28.0,78.0,-9.0,0
24.0,-264.0,41.0,-27.0,78.0,-9.0,0
26.0,-262.0,37.0,-27.0,78.0,-9.0,0
24.0,-264.0,39.0,-27.0,79.0,-9.0,0
21.0,-260.0,38.0,-26.0,80.0,-9.0,0
27.0,-264.0,41.0,-25.0,82.0,-8.0,0
23.0,-260.0,43.0,-26.0,83.0,-9.0,0
25.0,-263.0,39.0,-25.0,84.0,-9.0,0
23.0,-264.0,40.0,-24.0,83.0,-9.0,0
24.0,-265.0,37.0,-23.0,85.0,-10.0,0
22.0,-262.0,38.0,-22.0,85.0,-9.0,0
32.0,-261.0,50.0,-22.0,86.0,-10.0,0
24.0,-263.0,41.0,-20.0,85.0,-10.0,0
23.0,-263.0,38.0,-18.0,86.0,-10.0,0
26.0,-265.0,40.0,-15.0,87.0,-9.0,0
25.0,-265.0,38.0,-13.0,87.0,-9.0,0
26.0,-263.0,40.0,-10.0,88.0,-10.0,0
25.0,-263.0,42.0,-9.0,88.0,-10.0,0
24.0,-262.0,42.0,-8.0,87.0,-11.0,0
27.0,-264.0,44.0,-5.0,86.0,-12.0,0
23.0,-260.0,39.0,-3.0,87.0,-12.0,0
24.0,-261.0,42.0,-3.0,87.0,-11.0,0
26.0,-264.0,41.0,-1.0,86.0,-10.0,0
26.0,-262.0,40.0,1.0,85.0,-10.0,0
22.0,-262.0,38.0,0.0,84.0,-11.0,0
20.0,-259.0,39.0,1.0,84.0,-11.0,0
23.0,-259.0,40.0,2.0,83.0,-10.0,0
23.0,-260.0,43.0,1.0,82.0,-9.0,0
24.0,-259.0,41.0,2.0,82.0,-9.0,0
23.0,-262.0,43.0,3.0,81.0,-10.0,0
26.0,-262.0,40.0,3.0,81.0,-10.0,0
26.0,-260.0,42.0,4.0,80.0,-10.0,0
24.0,-264.0,41.0,3.0,81.0,-9.0,0
26.0,-264.0,45.0,3.0,82.0,-9.0,0
26.0,-263.0,41.0,3.0,80.0,-10.0,0
24.0,-263.0,41.0,2.0,81.0,-10.0,0
27.0,-263.0,41.0,3.0,79.0,-9.0,0
24.0,-262.0,39.0,4.0,78.0,-10.0,0
21.0,-259.0,42.0,3.0,78.0,-10.0,0
23.0,-258.0,43.0,3.0,76.0,-10.0,0
21.0,-260.0,45.0,1.0,75.0,-9.0,0
24.0,-262.0,41.0,2.0,74.0,-9.0,0
24.0,-262.0,42.0,2.0,74.0,-10.0,0
25.0,-262.0,39.0,1.0,73.0,-8.0,0
25.0,-263.0,41.0,-1.0,73.0,-10.0,0
22.0,-262.0,40.0,-2.0,72.0,-8.0,0
25.0,-261.0,39.0,-3.0,70.0,-7.0,0
29.0,-264.0,38.0,-5.0,70.0,-6.0,0
24.0,-262.0,38.0,-6.0,69.0,-8.0,0
22.0,-261.0,40.0,-6.0,70.0,-8.0,0
25.0,-260.0,44.0,-7.0,70.0,-9.0,0
25.0,-263.0,39.0,-7.0,69.0,-7.0,0
25.0,-261.0,41.0,-7.0,69.0,-7.0,0
25.0,-261.0,43.0,-5.0,69.0,-7.0,0
31.0,-256.0,43.0,-6.0,69.0,-7.0,0
24.0,-260.0,40.0,-7.0,70.0,-6.0,0
25.0,-263.0,40.0,-7.0,68.0,-7.0,0
24.0,-259.0,39.0,-8.0,69.0,-8.0,0
23.0,-261.0,36.0,-8.0,70.0,-9.0,0
24.0,-261.0,43.0,-7.0,70.0,-8.0,0
26.0,-261.0,44.0,-7.0,72.0,-8.0,0
23.0,-261.0,40.0,-7.0,73.0,-8.0,0
26.0,-261.0,40.0,-7.0,75.0,-10.0,0
25.0,-263.0,39.0,-7.0,76.0,-10.0,0
25.0,-263.0,41.0,-6.0,78.0,-11.0,0
25.0,-262.0,41.0,-7.0,78.0,-11.0,0
27.0,-264.0,44.0,-7.0,79.0,-12.0,0
22.0,-260.0,39.0,-9.0,78.0,-12.0,0
23.0,-262.0,41.0,-8.0,77.0,-11.0,0
26.0,-260.0,45.0,-7.0,77.0,-12.0,0
26.0,-262.0,36.0,-7.0,75.0,-11.0,0
26.0,-264.0,40.0,-7.0,75.0,-11.0,0
26.0,-263.0,44.0,-6.0,76.0,-10.0,0
26.0,-260.0,42.0,-5.0,75.0,-10.0,0
25.0,-263.0,38.0,-6.0,75.0,-9.0,0
26.0,-255.0,34.0,-7.0,73.0,-8.0,0
23.0,-261.0,40.0,-8.0,73.0,-8.0,0
23.0,-261.0,39.0,-7.0,73.0,-8.0,0
24.0,-262.0,41.0,-7.0,73.0,-7.0,0
22.0,-261.0,40.0,-4.0,73.0,-6.0,0
23.0,-259.0,41.0,-2.0,74.0,-6.0,0
23.0,-263.0,34.0,-1.0,73.0,-7.0,0
22.0,-260.0,39.0,-1.0,73.0,-7.0,0
25.0,-262.0,42.0,0.0,75.0,-7.0,0
24.0,-260.0,43.0,1.0,74.0,-8.0,0
25.0,-263.0,42.0,-1.0,75.0,-9.0,0
23.0,-262.0,44.0,-1.0,75.0,-9.0,0
22.0,-262.0,39.0,-2.0,73.0,-8.0,0
23.0,-262.0,37.0,-2.0,73.0,-6.0,0
23.0,-262.0,40.0,-3.0,72.0,-7.0,0
23.0,-261.0,43.0,-2.0,73.0,-6.0,0
24.0,-263.0,43.0,-1.0,72.0,-7.0,0
23.0,-262.0,43.0,0.0,71.0,-7.0,0
27.0,-261.0,39.0,0.0,72.0,-6.0,0
27.0,-264.0,43.0,-1.0,70.0,-6.0,0
25.0,-263.0,44.0,-2.0,69.0,-3.0,0
23.0,-266.0,46.0,-3.0,69.0,-3.0,0
21.0,-260.0,47.0,-2.0,69.0,-3.0,0
26.0,-263.0,41.0,-3.0,69.0,-3.0,0
26.0,-265.0,42.0,-3.0,67.0,-2.0,0
24.0,-260.0,40.0,-4.0,68.0,-2.0,0
23.0,-263.0,42.0,-4.0,69.0,-2.0,0
28.0,-263.0,42.0,-4.0,68.0,-1.0,0
26.0,-266.0,44.0,-5.0,67.0,0.0,0
23.0,-261.0,44.0,-4.0,66.0,-1.0,0
22.0,-263.0,44.0,-3.0,66.0,-1.0,0
22.0,-261.0,40.0,-3.0,66.0,-2.0,0
26.0,-258.0,41.0,-1.0,66.0,-1.0,0
25.0,-264.0,45.0,-1.0,66.0,-2.0,0
23.0,-261.0,41.0,0.0,65.0,-1.0,0
23.0,-261.0,40.0,0.0,65.0,-2.0,0
25.0,-262.0,42.0,0.0,65.0,-1.0,0
23.0,-260.0,42.0,0.0,65.0,-2.0,0
24.0,-260.0,41.0,-1.0,64.0,-1.0,0
26.0,-261.0,45.0,-2.0,64.0,-1.0,0
26.0,-260.0,41.0,-3.0,66.0,-1.0,0
25.0,-262.0,44.0,-3.0,67.0,-3.0,0
23.0,-260.0,43.0,-4.0,67.0,-2.0,0
25.0,-260.0,40.0,-5.0,66.0,0.0,0
24.0,-262.0,41.0,-5.0,67.0,-1.0,0
25.0,-260.0,41.0,-6.0,66.0,-1.0,0
26.0,-261.0,39.0,-7.0,67.0,-2.0,0
22.0,-263.0,40.0,-7.0,67.0,-1.0,0
23.0,-261.0,43.0,-9.0,67.0,-2.0,0
27.0,-262.0,42.0,-8.0,67.0,-1.0,0
26.0,-260.0,40.0,-8.0,67.0,0.0,0
23.0,-258.0,40.0,-9.0,66.0,0.0,0
26.0,-261.0,42.0,-9.0,68.0,1.0,0
23.0,-261.0,46.0,-8.0,67.0,0.0,0
25.0,-262.0,43.0,-7.0,67.0,1.0,0
26.0,-261.0,42.0,-9.0,67.0,-1.0,0
26.0,-261.0,38.0,-8.0,67.0,1.0,0
24.0,-261.0,41.0,-7.0,68.0,-1.0,0
23.0,-259.0,42.0,-9.0,68.0,0.0,0
26.0,-262.0,39.0,-11.0,68.0,-2.0,0
23.0,-260.0,41.0,-10.0,69.0,-2.0,0
22.0,-264.0,40.0,-11.0,68.0,-1.0,0
26.0,-261.0,42.0,-11.0,68.0,-3.0,0
24.0,-263.0,41.0,-13.0,67.0,-3.0,0
27.0,-275.0,33.0,-14.0,68.0,-3.0,0
23.0,-262.0,43.0,-15.0,68.0,-4.0,0
23.0,-261.0,41.0,-11.0,68.0,-2.0,0
22.0,-263.0,43.0,-11.0,68.0,-4.0,0
23.0,-261.0,40.0,-10.0,69.0,-4.0,0
22.0,-260.0,40.0,-10.0,69.0,-3.0,0
24.0,-260.0,45.0,-9.0,70.0,-4.0,0
24.0,-261.0,45.0,-10.0,70.0,-3.0,0
24.0,-258.0,42.0,-11.0,69.0,-3.0,0
25.0,-261.0,44.0,-11.0,69.0,-3.0,0
24.0,-263.0,44.0,-11.0,70.0,-3.0,0
21.0,-264.0,40.0,-12.0,70.0,-4.0,0
23.0,-259.0,43.0,-12.0,68.0,-3.0,0
24.0,-261.0,41.0,-12.0,69.0,-4.0,0
27.0,-262.0,45.0,-11.0,70.0,-4.0,0
27.0,-261.0,41.0,-11.0,70.0,-4.0,0
23.0,-261.0,43.0,-11.0,70.0,-3.0,0
22.0,-259.0,41.0,-11.0,70.0,-2.0,0
25.0,-260.0,39.0,-10.0,69.0,-3.0,0
25.0,-262.0,45.0,-10.0,68.0,-4.0,0
24.0,-263.0,44.0,-11.0,68.0,-3.0,0
26.0,-263.0,37.0,-12.0,68.0,-4.0,0
20.0,-266.0,38.0,-12.0,68.0,-5.0,0
24.0,-262.0,38.0,-13.0,67.0,-4.0,0
26.0,-263.0,42.0,-13.0,66.0,-4.0,0
26.0,-261.0,37.0,-13.0,67.0,-4.0,0
25.0,-262.0,41.0,-14.0,66.0,-4.0,0
23.0,-261.0,44.0,-14.0,66.0,-3.0,0
26.0,-261.0,43.0,-14.0,67.0,-4.0,0
23.0,-260.0,40.0,-13.0,67.0,-4.0,0
23.0,-263.0,44.0,-12.0,67.0,-2.0,0
25.0,-260.0,41.0,-13.0,67.0,-4.0,0
26.0,-260.0,41.0,-11.0,70.0,-4.0,0
27.0,-263.0,42.0,-14.0,70.0,-4.0,0
26.0,-263.0,41.0,-14.0,70.0,-4.0,0
25.0,-259.0,45.0,-14.0,71.0,-3.0,0
23.0,-261.0,42.0,-14.0,70.0,-3.0,0
22.0,-261.0,44.0,-13.0,70.0,-3.0,0
25.0,-261.0,41.0,-14.0,71.0,-3.0,0
22.0,-259.0,42.0,-15.0,70.0,-3.0,0
24.0,-262.0,39.0,-13.0,70.0,-2.0,0
27.0,-261.0,43.0,-12.0,71.0,-1.0,0
25.0,-265.0,41.0,-13.0,72.0,-2.0,0
29.0,-263.0,42.0,-13.0,71.0,-3.0,0
25.0,-263.0,41.0,-13.0,72.0,-2.0,0
28.0,-262.0,43.0,-13.0,72.0,-2.0,0
25.0,-261.0,37.0,-15.0,71.0,-3.0,0
26.0,-259.0,40.0,-15.0,72.0,-2.0,0
24.0,-261.0,46.0,-15.0,73.0,-2.0,0
24.0,-261.0,42.0,-16.0,73.0,-2.0,0
22.0,-261.0,41.0,-16.0,72.0,-2.0,0
25.0,-263.0,42.0,-17.0,72.0,-3.0,0
24.0,-261.0,42.0,-15.0,73.0,-3.0,0
24.0,-261.0,41.0,-15.0,72.0,-4.0,0
24.0,-260.0,40.0,-15.0,72.0,-4.0,0
25.0,-260.0,42.0,-17.0,73.0,-2.0,0
25.0,-259.0,36.0,-19.0,73.0,-3.0,0
22.0,-260.0,40.0,-20.0,74.0,-4.0,0
20.0,-258.0,44.0,-21.0,73.0,-3.0,0
25.0,-263.0,44.0,-21.0,72.0,-3.0,0
26.0,-265.0,46.0,-21.0,73.0,-4.0,0
25.0,-262.0,43.0,-21.0,73.0,-4.0,0
25.0,-262.0,43.0,-20.0,74.0,-4.0,0
25.0,-263.0,40.0,-19.0,74.0,-3.0,0
23.0,-255.0,28.0,-18.0,74.0,-4.0,0
26.0,-263.0,41.0,-17.0,76.0,-5.0,0
22.0,-262.0,42.0,-16.0,77.0,-5.0,0
27.0,-260.0,42.0,-16.0,76.0,-6.0,0
25.0,-260.0,43.0,-16.0,75.0,-6.0,0
26.0,-264.0,43.0,-15.0,75.0,-5.0,0
25.0,-262.0,40.0,-14.0,74.0,-4.0,0
24.0,-259.0,39.0,-16.0,73.0,-4.0,0
26.0,-262.0,39.0,-16.0,72.0,-4.0,0
25.0,-261.0,42.0,-17.0,73.0,-3.0,0
24.0,-259.0,42.0,-18.0,71.0,-3.0,0
26.0,-260.0,41.0,-19.0,71.0,-3.0,0
25.0,-263.0,39.0,-18.0,69.0,-2.0,0
26.0,-262.0,39.0,-18.0,68.0,-3.0,0
23.0,-261.0,43.0,-16.0,68.0,-1.0,0
24.0,-262.0,44.0,-14.0,68.0,0.0,0
28.0,-263.0,39.0,-13.0,69.0,-2.0,0
24.0,-261.0,41.0,-10.0,69.0,-1.0,0
28.0,-259.0,42.0,-7.0,70.0,-2.0,0
26.0,-264.0,45.0,-6.0,71.0,-2.0,0
26.0,-263.0,39.0,-5.0,70.0,-2.0,0
24.0,-262.0,40.0,-6.0,71.0,-3.0,0
20.0,-269.0,31.0,-8.0,72.0,-1.0,0
26.0,-261.0,42.0,-10.0,72.0,-2.0,0
25.0,-260.0,40.0,-11.0,72.0,-2.0,0
23.0,-260.0,39.0,-13.0,71.0,-3.0,0
27.0,-262.0,38.0,-14.0,70.0,-2.0,0
23.0,-259.0,41.0,-19.0,72.0,-3.0,0
24.0,-263.0,44.0,-19.0,71.0,-4.0,0
23.0,-258.0,40.0,-21.0,71.0,-4.0,0
25.0,-259.0,39.0,-22.0,71.0,-3.0,0
25.0,-261.0,43.0,-23.0,70.0,-4.0,0
24.0,-261.0,39.0,-22.0,70.0,-4.0,0
24.0,-261.0,41.0,-22.0,72.0,-4.0,0
23.0,-261.0,42.0,-23.0,73.0,-3.0,0
26.0,-261.0,43.0,-21.0,72.0,-3.0,0
25.0,-262.0,39.0,-19.0,74.0,-2.0,0
26.0,-262.0,38.0,-19.0,73.0,-3.0,0
26.0,-260.0,41.0,-19.0,73.0,-3.0,0
24.0,-261.0,41.0,-18.0,73.0,-3.0,0
25.0,-262.0,39.0,-18.0,72.0,-3.0,0
24.0,-262.0,37.0,-17.0,71.0,-3.0,0
26.0,-259.0,42.0,-18.0,71.0,-2.0,0
33.0,-264.0,33.0,-18.0,70.0,-2.0,0
25.0,-263.0,41.0,-17.0,70.0,-1.0,0
23.0,-259.0,42.0,-19.0,71.0,-2.0,0
24.0,-262.0,38.0,-18.0,70.0,-2.0,0
25.0,-262.0,39.0,-17.0,71.0,-1.0,0
25.0,-263.0,43.0,-18.0,71.0,0.0,0
23.0,-263.0,43.0,-17.0,73.0,0.0,0
26.0,-266.0,38.0,-16.0,73.0,0.0,0
23.0,-263.0,41.0,-15.0,72.0,-1.0,0
24.0,-260.0,41.0,-13.0,74.0,0.0,0
25.0,-261.0,42.0,-13.0,74.0,-1.0,0
23.0,-261.0,40.0,-14.0,75.0,-2.0,0
24.0,-259.0,42.0,-15.0,75.0,0.0,0
26.0,-263.0,42.0,-14.0,74.0,0.0,0
25.0,-261.0,44.0,-13.0,74.0,0.0,0
24.0,-262.0,43.0,-16.0,72.0,0.0,0
24.0,-261.0,43.0,-15.0,73.0,0.0,0
24.0,-261.0,38.0,-15.0,73.0,0.0,0
23.0,-262.0,40.0,-14.0,72.0,0.0,0
24.0,-261.0,40.0,-12.0,71.0,2.0,0
23.0,-263.0,39.0,-13.0,70.0,1.0,0
31.0,-262.0,40.0,-13.0,70.0,0.0,0
25.0,-263.0,41.0,-13.0,69.0,0.0,0
23.0,-262.0,39.0,-13.0,69.0,-1.0,0
24.0,-260.0,42.0,-13.0,69.0,0.0,0
22.0,-265.0,41.0,-15.0,69.0,0.0,0
24.0,-262.0,38.0,-14.0,69.0,-1.0,0
25.0,-258.0,42.0,-13.0,70.0,1.0,0
24.0,-264.0,38.0,-13.0,70.0,1.0,0
23.0,-262.0,42.0,-12.0,69.0,0.0,0
23.0,-261.0,39.0,-13.0,70.0,0.0,0
26.0,-263.0,41.0,-13.0,70.0,1.0,0
25.0,-263.0,35.0,-14.0,70.0,1.0,0
21.0,-260.0,41.0,-15.0,69.0,0.0,0
23.0,-262.0,37.0,-16.0,70.0,0.0,0
23.0,-261.0,42.0,-17.0,69.0,1.0,0
24.0,-261.0,43.0,-17.0,69.0,-1.0,0
23.0,-263.0,38.0,-19.0,69.0,0.0,0
23.0,-261.0,42.0,-18.0,68.0,1.0,0
25.0,-263.0,41.0,-16.0,69.0,1.0,0
23.0,-262.0,42.0,-17.0,68.0,1.0,0
24.0,-263.0,40.0,-18.0,67.0,1.0,0
24.0,-262.0,42.0,-18.0,68.0,2.0,0
22.0,-270.0,33.0,-18.0,68.0,0.0,0
24.0,-264.0,41.0,-17.0,68.0,1.0,0
24.0,-260.0,39.0,-17.0,67.0,1.0,0
24.0,-261.0,42.0,-17.0,65.0,1.0,0
26.0,-261.0,41.0,-18.0,65.0,1.0,0
23.0,-261.0,41.0,-18.0,64.0,0.0,0
21.0,-261.0,40.0,-17.0,63.0,-1.0,0
25.0,-264.0,38.0,-19.0,65.0,0.0,0
23.0,-261.0,43.0,-19.0,66.0,1.0,0
22.0,-260.0,39.0,-19.0,66.0,1.0,0
24.0,-261.0,41.0,-18.0,64.0,1.0,0
23.0,-262.0,40.0,-18.0,64.0,1.0,0
24.0,-261.0,41.0,-16.0,65.0,0.0,0
25.0,-261.0,42.0,-16.0,64.0,1.0,0
26.0,-264.0,38.0,-17.0,64.0,1.0,0
26.0,-265.0,42.0,-19.0,64.0,0.0,0
25.0,-262.0,41.0,-18.0,64.0,0.0,0
24.0,-258.0,38.0,-17.0,64.0,0.0,0
23.0,-264.0,39.0,-17.0,65.0,0.0,0
24.0,-262.0,37.0,-17.0,63.0,1.0,0
25.0,-262.0,40.0,-17.0,63.0,2.0,0
19.0,-258.0,34.0,-17.0,63.0,0.0,0
24.0,-259.0,39.0,-16.0,63.0,0.0,0
25.0,-261.0,38.0,-16.0,63.0,1.0,0
26.0,-260.0,40.0,-14.0,64.0,0.0,0
25.0,-266.0,38.0,-13.0,64.0,0.0,0
24.0,-260.0,40.0,-13.0,64.0,0.0,0
25.0,-260.0,38.0,-14.0,65.0,1.0,0
24.0,-262.0,40.0,-13.0,63.0,1.0,0
25.0,-262.0,38.0,-13.0,65.0,1.0,0
27.0,-262.0,40.0,-12.0,65.0,1.0,0
22.0,-263.0,39.0,-13.0,64.0,1.0,0
23.0,-262.0,38.0,-13.0,63.0,1.0,0
25.0,-261.0,41.0,-14.0,63.0,0.0,0
25.0,-262.0,39.0,-14.0,63.0,0.0,0
24.0,-261.0,39.0,-14.0,62.0,0.0,0
22.0,-264.0,38.0,-13.0,63.0,1.0,0
25.0,-261.0,38.0,-13.0,63.0,1.0,0
24.0,-259.0,41.0,-14.0,61.0,0.0,0
26.0,-262.0,41.0,-15.0,61.0,1.0,0
23.0,-260.0,43.0,-18.0,61.0,1.0,0
24.0,-260.0,40.0,-19.0,62.0,0.0,0
28.0,-263.0,40.0,-20.0,63.0,0.0,0
21.0,-262.0,36.0,-20.0,63.0,1.0,0
23.0,-264.0,38.0,-22.0,64.0,0.0,0
20.0,-259.0,42.0,-22.0,65.0,0.0,0
24.0,-260.0,42.0,-23.0,64.0,-1.0,0
24.0,-263.0,42.0,-24.0,64.0,-2.0,0
23.0,-259.0,40.0,-26.0,65.0,-3.0,0
23.0,-259.0,38.0,-27.0,66.0,-2.0,0
24.0,-263.0,38.0,-28.0,66.0,-2.0,0
22.0,-263.0,44.0,-29.0,66.0,-2.0,0
25.0,-264.0,41.0,-28.0,67.0,-3.0,0
23.0,-261.0,37.0,-27.0,66.0,-3.0,0
23.0,-260.0,39.0,-25.0,68.0,-5.0,0
22.0,-262.0,37.0,-26.0,68.0,-3.0,0
24.0,-263.0,39.0,-25.0,67.0,-3.0,0
23.0,-260.0,39.0,-25.0,67.0,-3.0,0
25.0,-261.0,41.0,-25.0,67.0,-4.0,0
26.0,-262.0,42.0,-25.0,66.0,-3.0,0
24.0,-261.0,41.0,-24.0,66.0,-3.0,0
24.0,-259.0,41.0,-24.0,65.0,-3.0,0
21.0,-260.0,42.0,-25.0,64.0,-2.0,0
26.0,-262.0,37.0,-26.0,62.0,-3.0,0
23.0,-257.0,40.0,-25.0,61.0,-3.0,0
18.0,-258.0,37.0,-26.0,60.0,0.0,0
23.0,-261.0,40.0,-27.0,59.0,0.0,0
23.0,-263.0,39.0,-28.0,59.0,0.0,0
21.0,-260.0,40.0,-28.0,58.0,-1.0,0
23.0,-260.0,41.0,-28.0,59.0,0.0,0
24.0,-260.0,42.0,-26.0,58.0,1.0,0
24.0,-259.0,41.0,-25.0,59.0,1.0,0
23.0,-264.0,38.0,-22.0,61.0,1.0,0
22.0,-259.0,42.0,-21.0,61.0,0.0,0
23.0,-262.0,40.0,-18.0,61.0,0.0,0
23.0,-262.0,39.0,-17.0,63.0,-1.0,0
25.0,-262.0,37.0,-17.0,64.0,-2.0,0
25.0,-260.0,38.0,-16.0,65.0,-2.0,0
25.0,-261.0,37.0,-17.0,65.0,-2.0,0
23.0,-261.0,39.0,-19.0,65.0,0.0,0
23.0,-260.0,39.0,-22.0,64.0,-1.0,0
23.0,-260.0,42.0,-22.0,64.0,-2.0,0
26.0,-260.0,35.0,-24.0,64.0,0.0,0
24.0,-262.0,44.0,-26.0,65.0,-1.0,0
22.0,-261.0,40.0,-29.0,66.0,-2.0,0
21.0,-261.0,50.0,-29.0,67.0,-3.0,0
24.0,-261.0,38.0,-30.0,67.0,-2.0,0
22.0,-261.0,39.0,-29.0,67.0,-1.0,0
21.0,-262.0,40.0,-28.0,66.0,0.0,0
21.0,-260.0,39.0,-29.0,66.0,0.0,0
25.0,-264.0,39.0,-27.0,67.0,0.0,0
27.0,-264.0,40.0,-28.0,68.0,-1.0,0
25.0,-261.0,37.0,-28.0,69.0,-1.0,0
24.0,-262.0,39.0,-28.0,70.0,0.0,0
23.0,-259.0,43.0,-29.0,69.0,-2.0,0
24.0,-259.0,38.0,-30.0,70.0,-1.0,0
23.0,-260.0,39.0,-31.0,70.0,-1.0,0
25.0,-262.0,37.0,-32.0,72.0,-1.0,0
24.0,-260.0,38.0,-30.0,71.0,0.0,0
24.0,-261.0,39.0,-32.0,71.0,0.0,0
27.0,-262.0,36.0,-30.0,70.0,-1.0,0
26.0,-262.0,40.0,-31.0,71.0,1.0,0
24.0,-262.0,39.0,-32.0,72.0,0.0,0
25.0,-261.0,39.0,-33.0,71.0,-1.0,0
24.0,-264.0,41.0,-32.0,71.0,0.0,0
26.0,-260.0,43.0,-32.0,72.0,-1.0,0
27.0,-262.0,40.0,-32.0,70.0,-1.0,0
26.0,-261.0,40.0,-32.0,72.0,-1.0,0
27.0,-264.0,37.0,-32.0,74.0,0.0,0
24.0,-261.0,39.0,-32.0,74.0,-1.0,0
23.0,-262.0,37.0,-33.0,73.0,-2.0,0
24.0,-260.0,36.0,-34.0,74.0,-3.0,0
22.0,-259.0,40.0,-35.0,74.0,-3.0,0
20.0,-259.0,38.0,-38.0,74.0,-3.0,0
26.0,-265.0,39.0,-38.0,75.0,-2.0,0
25.0,-264.0,38.0,-39.0,76.0,-2.0,0
22.0,-261.0,41.0,-39.0,74.0,-1.0,0
25.0,-264.0,37.0,-41.0,73.0,-2.0,0
22.0,-262.0,36.0,-40.0,73.0,-2.0,0
23.0,-258.0,33.0,-40.0,75.0,-1.0,0
25.0,-261.0,37.0,-41.0,75.0,-1.0,0
27.0,-262.0,39.0,-41.0,75.0,0.0,0
24.0,-265.0,33.0,-40.0,74.0,-1.0,0
24.0,-261.0,34.0,-40.0,76.0,-2.0,0
22.0,-259.0,35.0,-40.0,76.0,-1.0,0
25.0,-261.0,36.0,-41.0,77.0,-2.0,0
24.0,-262.0,30.0,-41.0,79.0,-3.0,0
25.0,-264.0,35.0,-42.0,79.0,-2.0,0
31.0,-258.0,39.0,-44.0,81.0,-1.0,0
25.0,-263.0,35.0,-46.0,82.0,0.0,0
22.0,-263.0,35.0,-47.0,83.0,-1.0,0
25.0,-263.0,33.0,-47.0,84.0,1.0,0
26.0,-264.0,33.0,-46.0,87.0,-1.0,0
26.0,-264.0,33.0,-45.0,88.0,0.0,0
31.0,-267.0,32.0,-45.0,89.0,0.0,0
25.0,-262.0,29.0,-43.0,92.0,1.0,0
26.0,-263.0,31.0,-41.0,92.0,1.0,0
29.0,-266.0,29.0,-41.0,93.0,0.0,0
29.0,-263.0,32.0,-42.0,95.0,1.0,0
29.0,-263.0,31.0,-43.0,96.0,1.0,0
29.0,-264.0,30.0,-41.0,97.0,1.0,0
25.0,-265.0,30.0,-39.0,99.0,2.0,0
26.0,-265.0,34.0,-36.0,102.0,0.0,0
25.0,-261.0,29.0,-35.0,103.0,2.0,0
30.0,-264.0,29.0,-32.0,103.0,4.0,0
26.0,-265.0,33.0,-31.0,106.0,4.0,0
26.0,-262.0,31.0,-29.0,107.0,5.0,0
27.0,-262.0,30.0,-27.0,110.0,6.0,0
27.0,-264.0,31.0,-25.0,112.0,5.0,0
27.0,-265.0,35.0,-23.0,114.0,6.0,0
27.0,-263.0,30.0,-20.0,114.0,8.0,0
25.0,-263.0,31.0,-17.0,114.0,8.0,0
27.0,-264.0,32.0,-13.0,117.0,8.0,0
27.0,-265.0,29.0,-10.0,117.0,10.0,0
24.0,-262.0,31.0,-7.0,118.0,11.0,0
24.0,-262.0,28.0,-4.0,119.0,13.0,0
24.0,-261.0,31.0,-3.0,120.0,12.0,0
25.0,-260.0,31.0,-1.0,122.0,10.0,0
24.0,-262.0,26.0,-2.0,123.0,11.0,0
23.0,-259.0,30.0,-3.0,123.0,12.0,0
24.0,-258.0,30.0,-5.0,125.0,11.0,0
22.0,-256.0,29.0,-10.0,127.0,10.0,0
23.0,-259.0,28.0,-17.0,130.0,10.0,0
26.0,-257.0,25.0,-23.0,132.0,10.0,0
27.0,-257.0,25.0,-29.0,132.0,9.0,0
25.0,-256.0,27.0,-37.0,134.0,7.0,0
26.0,-256.0,26.0,-47.0,135.0,6.0,0
26.0,-254.0,22.0,-58.0,136.0,5.0,0
25.0,-256.0,24.0,-70.0,139.0,3.0,0
25.0,-254.0,28.0,-84.0,139.0,2.0,0
35.0,-253.0,29.0,-98.0,139.0,0.0,0
24.0,-255.0,28.0,-111.0,140.0,-2.0,0
24.0,-253.0,25.0,-123.0,141.0,-2.0,0
24.0,-252.0,23.0,-136.0,142.0,-3.0,0
25.0,-252.0,22.0,-148.0,142.0,-4.0,0
23.0,-249.0,22.0,-159.0,142.0,-6.0,0
23.0,-252.0,22.0,-171.0,141.0,-6.0,0
26.0,-248.0,22.0,-182.0,142.0,-7.0,0
27.0,-249.0,19.0,-194.0,139.0,-9.0,0
25.0,-248.0,20.0,-206.0,137.0,-11.0,0
27.0,-249.0,15.0,-221.0,135.0,-10.0,0
25.0,-248.0,15.0,-236.0,131.0,-11.0,0
23.0,-245.0,12.0,-252.0,128.0,-10.0,0
23.0,-242.0,17.0,-271.0,124.0,-14.0,0
25.0,-244.0,14.0,-289.0,119.0,-13.0,0
26.0,-243.0,14.0,-307.0,116.0,-15.0,0
25.0,-241.0,14.0,-326.0,111.0,-16.0,0
24.0,-240.0,13.0,-343.0,107.0,-19.0,0
24.0,-241.0,10.0,-360.0,104.0,-21.0,0
27.0,-239.0,14.0,-374.0,104.0,-22.0,0
23.0,-237.0,18.0,-393.0,101.0,-25.0,0
26.0,-234.0,11.0,-410.0,103.0,-29.0,0
28.0,-238.0,11.0,-427.0,104.0,-32.0,0
23.0,-234.0,8.0,-446.0,104.0,-35.0,0
24.0,-230.0,11.0,-468.0,104.0,-39.0,0
26.0,-230.0,6.0,-492.0,103.0,-44.0,0
25.0,-226.0,3.0,-517.0,102.0,-49.0,0
26.0,-227.0,1.0,-544.0,100.0,-54.0,0
25.0,-225.0,2.0,-571.0,98.0,-61.0,0
25.0,-226.0,-2.0,-596.0,95.0,-66.0,0
26.0,-225.0,1.0,-620.0,92.0,-73.0,0
27.0,-223.0,0.0,-644.0,87.0,-78.0,0
24.0,-221.0,0.0,-665.0,83.0,-86.0,0
28.0,-225.0,0.0,-688.0,79.0,-92.0,0
27.0,-221.0,0.0,-710.0,74.0,-98.0,0
25.0,-222.0,-2.0,-732.0,70.0,-104.0,0
26.0,-223.0,-2.0,-754.0,66.0,-111.0,0
27.0,-224.0,-5.0,-774.0,63.0,-118.0,0
26.0,-225.0,-9.0,-796.0,59.0,-125.0,0
25.0,-223.0,-7.0,-816.0,57.0,-132.0,0
26.0,-225.0,-9.0,-836.0,53.0,-138.0,0
26.0,-225.0,-9.0,-855.0,51.0,-144.0,0
28.0,-226.0,-5.0,-871.0,48.0,-150.0,0
27.0,-229.0,-8.0,-883.0,44.0,-156.0,0
29.0,-235.0,-5.0,-888.0,43.0,-159.0,0
20.0,-228.0,-5.0,-886.0,40.0,-163.0,0
23.0,-231.0,-10.0,-884.0,32.0,-164.0,0
23.0,-232.0,-7.0,-889.0,23.0,-163.0,0
25.0,-234.0,-7.0,-892.0,15.0,-160.0,0
24.0,-242.0,-5.0,-896.0,10.0,-155.0,0
22.0,-242.0,-8.0,-901.0,4.0,-145.0,0
22.0,-251.0,-17.0,-908.0,-2.0,-135.0,0
26.0,-253.0,-15.0,-915.0,-10.0,-120.0,0
20.0,-252.0,-19.0,-916.0,-20.0,-104.0,0
22.0,-256.0,-16.0,-916.0,-30.0,-90.0,0
17.0,-258.0,-14.0,-915.0,-39.0,-77.0,0
19.0,-258.0,-20.0,-912.0,-48.0,-63.0,0
18.0,-257.0,-21.0,-904.0,-60.0,-49.0,0
15.0,-257.0,-21.0,-898.0,-72.0,-37.0,0
15.0,-257.0,-22.0,-890.0,-85.0,-23.0,0
12.0,-256.0,-24.0,-883.0,-100.0,-13.0,0
12.0,-256.0,-24.0,-877.0,-115.0,-6.0,0
13.0,-256.0,-24.0,-874.0,-127.0,4.0,0
12.0,-253.0,-23.0,-869.0,-139.0,10.0,0
11.0,-254.0,-26.0,-867.0,-151.0,15.0,0
10.0,-250.0,-27.0,-869.0,-164.0,19.0,0
11.0,-253.0,-26.0,-877.0,-175.0,24.0,0
15.0,-250.0,-28.0,-890.0,-185.0,31.0,0
13.0,-248.0,-31.0,-906.0,-197.0,29.0,0
18.0,-249.0,-29.0,-926.0,-208.0,26.0,0
15.0,-251.0,-28.0,-944.0,-217.0,19.0,0
18.0,-245.0,-29.0,-959.0,-226.0,11.0,0
18.0,-246.0,-33.0,-965.0,-237.0,6.0,0
16.0,-242.0,-31.0,-971.0,-248.0,-2.0,0
20.0,-244.0,-34.0,-976.0,-259.0,-7.0,0
23.0,-239.0,-34.0,-979.0,-266.0,-12.0,0
27.0,-238.0,-34.0,-986.0,-274.0,-21.0,0
22.0,-239.0,-38.0,-992.0,-277.0,-28.0,0
22.0,-237.0,-37.0,-996.0,-283.0,-32.0,0
24.0,-237.0,-42.0,-999.0,-292.0,-36.0,0
26.0,-236.0,-41.0,-1003.0,-298.0,-40.0,0
30.0,-237.0,-41.0,-1009.0,-303.0,-45.0,0
27.0,-237.0,-43.0,-1017.0,-307.0,-50.0,0
27.0,-237.0,-42.0,-1022.0,-310.0,-56.0,0
29.0,-235.0,-46.0,-1027.0,-313.0,-60.0,0
27.0,-235.0,-49.0,-1032.0,-317.0,-65.0,0
30.0,-231.0,-47.0,-1038.0,-316.0,-67.0,0
31.0,-230.0,-43.0,-1044.0,-314.0,-70.0,0
32.0,-235.0,-52.0,-1048.0,-313.0,-70.0,0
31.0,-233.0,-54.0,-1053.0,-309.0,-72.0,0
34.0,-233.0,-50.0,-1057.0,-302.0,-73.0,0
34.0,-233.0,-55.0,-1062.0,-296.0,-79.0,0
31.0,-230.0,-53.0,-1067.0,-290.0,-79.0,0
34.0,-231.0,-55.0,-1077.0,-283.0,-81.0,0
35.0,-231.0,-59.0,-1088.0,-277.0,-87.0,0
37.0,-229.0,-54.0,-1092.0,-269.0,-90.0,0
39.0,-233.0,-60.0,-1096.0,-260.0,-93.0,0
39.0,-231.0,-57.0,-1100.0,-251.0,-96.0,0
38.0,-231.0,-61.0,-1102.0,-243.0,-99.0,0
40.0,-233.0,-62.0,-1106.0,-234.0,-102.0,0
37.0,-233.0,-60.0,-1106.0,-226.0,-107.0,0
40.0,-232.0,-63.0,-1105.0,-217.0,-107.0,0
43.0,-233.0,-63.0,-1104.0,-210.0,-109.0,0
42.0,-236.0,-66.0,-1102.0,-198.0,-110.0,0
42.0,-236.0,-61.0,-1096.0,-187.0,-113.0,0
43.0,-238.0,-64.0,-1089.0,-176.0,-116.0,0
45.0,-240.0,-64.0,-1079.0,-166.0,-117.0,0
39.0,-237.0,-66.0,-1068.0,-160.0,-121.0,0
43.0,-238.0,-69.0,-1059.0,-155.0,-125.0,0
36.0,-239.0,-64.0,-1051.0,-150.0,-129.0,0
41.0,-238.0,-70.0,-1041.0,-147.0,-136.0,0
38.0,-240.0,-71.0,-1031.0,-143.0,-140.0,0
40.0,-243.0,-76.0,-1022.0,-141.0,-144.0,0
36.0,-241.0,-77.0,-1015.0,-141.0,-150.0,0
36.0,-241.0,-74.0,-1014.0,-143.0,-156.0,0
30.0,-241.0,-74.0,-1010.0,-147.0,-162.0,0
40.0,-242.0,-72.0,-1001.0,-145.0,-162.0,0
37.0,-244.0,-78.0,-988.0,-146.0,-172.0,0
36.0,-247.0,-76.0,-972.0,-140.0,-178.0,0
29.0,-243.0,-76.0,-960.0,-130.0,-179.0,0
29.0,-247.0,-79.0,-950.0,-125.0,-177.0,0
25.0,-246.0,-83.0,-945.0,-122.0,-172.0,0
21.0,-246.0,-86.0,-938.0,-123.0,-169.0,0
21.0,-246.0,-87.0,-934.0,-120.0,-167.0,0
22.0,-244.0,-87.0,-930.0,-121.0,-162.0,0
18.0,-242.0,-92.0,-926.0,-118.0,-157.0,0
15.0,-240.0,-91.0,-931.0,-116.0,-147.0,0
24.0,-238.0,-93.0,-935.0,-116.0,-137.0,0
8.0,-237.0,-93.0,-928.0,-118.0,-133.0,0
10.0,-236.0,-90.0,-923.0,-117.0,-116.0,0
6.0,-232.0,-90.0,-920.0,-126.0,-102.0,0
12.0,-233.0,-96.0,-910.0,-139.0,-90.0,0
13.0,-234.0,-95.0,-905.0,-145.0,-75.0,0
11.0,-233.0,-93.0,-900.0,-149.0,-60.0,0
13.0,-230.0,-96.0,-883.0,-154.0,-46.0,0
11.0,-234.0,-96.0,-854.0,-161.0,-35.0,0
11.0,-232.0,-98.0,-825.0,-166.0,-22.0,0
13.0,-230.0,-98.0,-808.0,-166.0,-8.0,0
17.0,-232.0,-106.0,-782.0,-170.0,-2.0,0
17.0,-231.0,-106.0,-759.0,-166.0,4.0,0
11.0,-232.0,-105.0,-734.0,-164.0,5.0,0
27.0,-228.0,-113.0,-707.0,-166.0,1.0,0
23.0,-232.0,-119.0,-684.0,-177.0,-3.0,0
26.0,-229.0,-119.0,-678.0,-182.0,-5.0,0
22.0,-229.0,-124.0,-679.0,-188.0,-9.0,0
22.0,-225.0,-125.0,-684.0,-196.0,-15.0,0
23.0,-226.0,-127.0,-677.0,-206.0,-17.0,0
19.0,-225.0,-128.0,-671.0,-217.0,-18.0,0
23.0,-225.0,-128.0,-652.0,-226.0,-19.0,0
21.0,-221.0,-132.0,-636.0,-237.0,-20.0,0
18.0,-220.0,-132.0,-630.0,-248.0,-16.0,0
22.0,-221.0,-132.0,-624.0,-266.0,-13.0,0
24.0,-222.0,-133.0,-613.0,-286.0,-13.0,0
24.0,-218.0,-132.0,-609.0,-302.0,-12.0,0
23.0,-216.0,-136.0,-606.0,-318.0,-14.0,0
23.0,-214.0,-132.0,-610.0,-328.0,-15.0,0
19.0,-211.0,-134.0,-610.0,-337.0,-15.0,0
20.0,-213.0,-130.0,-610.0,-345.0,-8.0,0
21.0,-211.0,-133.0,-608.0,-356.0,-3.0,0
21.0,-208.0,-133.0,-603.0,-367.0,0.0,0
24.0,-204.0,-142.0,-605.0,-378.0,1.0,0
23.0,-205.0,-135.0,-603.0,-391.0,-5.0,0
26.0,-206.0,-139.0,-602.0,-399.0,-13.0,0
26.0,-205.0,-139.0,-594.0,-404.0,-25.0,0
23.0,-209.0,-141.0,-584.0,-410.0,-37.0,0
24.0,-212.0,-137.0,-564.0,-417.0,-45.0,0
22.0,-217.0,-135.0,-515.0,-423.0,-57.0,0
23.0,-222.0,-134.0,-445.0,-418.0,-62.0,0
24.0,-225.0,-134.0,-354.0,-412.0,-63.0,0
22.0,-224.0,-136.0,-247.0,-401.0,-67.0,0
15.0,-222.0,-139.0,-147.0,-393.0,-76.0,0
15.0,-219.0,-149.0,-67.0,-388.0,-86.0,0
14.0,-216.0,-147.0,-2.0,-379.0,-97.0,0
14.0,-216.0,-150.0,55.0,-373.0,-110.0,0
8.0,-210.0,-152.0,107.0,-368.0,-125.0,0
8.0,-211.0,-142.0,160.0,-366.0,-141.0,0
10.0,-212.0,-144.0,207.0,-365.0,-155.0,0
6.0,-209.0,-146.0,250.0,-366.0,-173.0,0
2.0,-205.0,-143.0,290.0,-369.0,-190.0,0
3.0,-203.0,-145.0,325.0,-373.0,-203.0,0
2.0,-203.0,-143.0,357.0,-378.0,-214.0,0
-3.0,-205.0,-148.0,383.0,-384.0,-224.0,0
-3.0,-197.0,-150.0,399.0,-392.0,-226.0,0
-8.0,-197.0,-149.0,405.0,-399.0,-227.0,0
-5.0,-197.0,-149.0,409.0,-406.0,-224.0,0
-8.0,-194.0,-148.0,406.0,-411.0,-215.0,0
-2.0,-192.0,-150.0,393.0,-414.0,-204.0,0
0.0,-193.0,-147.0,372.0,-415.0,-188.0,0
-34.0,-187.0,-151.0,363.0,-413.0,-199.0,0
-2.0,-192.0,-143.0,351.0,-408.0,-174.0,0
6.0,-193.0,-142.0,299.0,-411.0,-130.0,0
8.0,-188.0,-144.0,250.0,-425.0,-108.0,0
8.0,-188.0,-144.0,200.0,-438.0,-92.0,0
7.0,-186.0,-139.0,148.0,-453.0,-81.0,0
8.0,-184.0,-141.0,89.0,-470.0,-73.0,0
8.0,-186.0,-140.0,29.0,-483.0,-65.0,0
11.0,-188.0,-146.0,-28.0,-491.0,-58.0,0
11.0,-189.0,-137.0,-75.0,-496.0,-51.0,0
15.0,-189.0,-136.0,-117.0,-497.0,-49.0,0
13.0,-191.0,-136.0,-156.0,-495.0,-46.0,0
15.0,-195.0,-132.0,-177.0,-489.0,-39.0,0
18.0,-198.0,-131.0,-181.0,-481.0,-36.0,0
18.0,-204.0,-134.0,-175.0,-470.0,-31.0,0
17.0,-209.0,-132.0,-158.0,-456.0,-26.0,0
15.0,-210.0,-126.0,-137.0,-440.0,-13.0,0
15.0,-212.0,-135.0,-107.0,-432.0,4.0,0
9.0,-212.0,-132.0,-79.0,-424.0,25.0,0
1.0,-213.0,-133.0,-57.0,-417.0,45.0,0
3.0,-212.0,-137.0,-34.0,-422.0,66.0,0
-3.0,-216.0,-146.0,-19.0,-424.0,83.0,0
-1.0,-223.0,-149.0,-9.0,-422.0,99.0,0
-5.0,-222.0,-146.0,5.0,-418.0,111.0,0
-7.0,-228.0,-147.0,27.0,-413.0,122.0,0
-8.0,-225.0,-149.0,54.0,-416.0,131.0,0
-14.0,-223.0,-148.0,76.0,-418.0,139.0,0
-10.0,-220.0,-155.0,100.0,-420.0,143.0,0
-10.0,-220.0,-159.0,109.0,-414.0,145.0,0
-17.0,-224.0,-157.0,106.0,-406.0,146.0,0
-13.0,-222.0,-159.0,91.0,-398.0,148.0,0
-10.0,-218.0,-157.0,69.0,-386.0,148.0,0
-8.0,-218.0,-159.0,42.0,-373.0,150.0,0
-7.0,-216.0,-160.0,11.0,-358.0,148.0,0
-4.0,-218.0,-161.0,-24.0,-337.0,144.0,0
-4.0,-217.0,-155.0,-57.0,-318.0,140.0,0
-5.0,-218.0,-156.0,-91.0,-300.0,130.0,0
-4.0,-220.0,-155.0,-120.0,-282.0,124.0,0
-3.0,-217.0,-155.0,-142.0,-269.0,119.0,0
3.0,-217.0,-155.0,-160.0,-260.0,112.0,0
4.0,-219.0,-155.0,-177.0,-249.0,104.0,0
-5.0,-218.0,-160.0,-193.0,-238.0,96.0,0
-1.0,-224.0,-157.0,-206.0,-227.0,93.0,0
2.0,-230.0,-157.0,-213.0,-220.0,86.0,0
-2.0,-234.0,-156.0,-214.0,-212.0,79.0,0
0.0,-237.0,-158.0,-211.0,-206.0,70.0,0
-2.0,-238.0,-158.0,-204.0,-202.0,64.0,0
-4.0,-240.0,-156.0,-199.0,-199.0,59.0,0
1.0,-242.0,-159.0,-193.0,-194.0,53.0,0
0.0,-249.0,-157.0,-185.0,-190.0,48.0,0
2.0,-258.0,-154.0,-180.0,-186.0,38.0,0
5.0,-262.0,-165.0,-174.0,-184.0,19.0,0
5.0,-271.0,-153.0,-159.0,-181.0,2.0,0
11.0,-267.0,-159.0,-131.0,-176.0,-15.0,0
12.0,-260.0,-165.0,-97.0,-169.0,-30.0,0
15.0,-258.0,-170.0,-71.0,-155.0,-48.0,0
10.0,-256.0,-183.0,-61.0,-137.0,-65.0,0
9.0,-256.0,-192.0,-63.0,-118.0,-78.0,0
7.0,-255.0,-194.0,-67.0,-98.0,-89.0,0
7.0,-258.0,-198.0,-65.0,-76.0,-93.0,0
2.0,-262.0,-198.0,-50.0,-54.0,-91.0,0
-2.0,-267.0,-197.0,-16.0,-30.0,-83.0,0
-7.0,-272.0,-197.0,41.0,-2.0,-79.0,0
-15.0,-271.0,-191.0,123.0,28.0,-70.0,0
-21.0,-272.0,-188.0,224.0,57.0,-59.0,0
-27.0,-270.0,-187.0,343.0,86.0,-49.0,0
-34.0,-267.0,-189.0,468.0,111.0,-32.0,0
-37.0,-260.0,-180.0,590.0,137.0,-16.0,0
-39.0,-256.0,-178.0,705.0,164.0,1.0,0
-38.0,-250.0,-172.0,808.0,185.0,15.0,0
-40.0,-243.0,-169.0,893.0,207.0,28.0,0
-39.0,-240.0,-163.0,957.0,227.0,43.0,0
-37.0,-234.0,-161.0,999.0,245.0,55.0,0
-36.0,-231.0,-160.0,1019.0,262.0,65.0,0
-32.0,-225.0,-157.0,1017.0,275.0,73.0,0
-27.0,-220.0,-156.0,998.0,290.0,81.0,0
-27.0,-219.0,-151.0,968.0,301.0,88.0,0
-22.0,-220.0,-156.0,923.0,312.0,96.0,0
-24.0,-217.0,-150.0,869.0,322.0,102.0,0
-22.0,-217.0,-151.0,807.0,331.0,109.0,0
-21.0,-214.0,-147.0,737.0,339.0,116.0,0
-22.0,-218.0,-144.0,660.0,347.0,120.0,0
-24.0,-219.0,-146.0,577.0,346.0,125.0,0
-24.0,-219.0,-143.0,493.0,343.0,127.0,0
-23.0,-224.0,-142.0,411.0,337.0,128.0,0
-27.0,-225.0,-141.0,334.0,325.0,129.0,0
-25.0,-225.0,-141.0,266.0,314.0,131.0,0
-25.0,-224.0,-138.0,212.0,301.0,135.0,0
-27.0,-229.0,-138.0,173.0,286.0,137.0,0
-29.0,-229.0,-141.0,146.0,270.0,137.0,0
-28.0,-235.0,-137.0,130.0,253.0,135.0,0
-31.0,-235.0,-137.0,125.0,237.0,130.0,0
-33.0,-238.0,-138.0,129.0,224.0,125.0,0
-31.0,-238.0,-139.0,139.0,212.0,119.0,0
-32.0,-234.0,-142.0,153.0,205.0,114.0,0
-28.0,-235.0,-143.0,168.0,201.0,111.0,0
-32.0,-231.0,-144.0,182.0,203.0,108.0,0
-31.0,-230.0,-142.0,194.0,205.0,107.0,0
-32.0,-228.0,-142.0,204.0,210.0,106.0,0
-32.0,-230.0,-142.0,215.0,216.0,105.0,0
-30.0,-230.0,-142.0,226.0,223.0,103.0,0
-31.0,-228.0,-139.0,234.0,228.0,104.0,0
-27.0,-225.0,-140.0,240.0,235.0,101.0,0
-29.0,-228.0,-138.0,242.0,239.0,100.0,0
-27.0,-227.0,-134.0,242.0,244.0,95.0,0
-26.0,-225.0,-137.0,243.0,246.0,90.0,0
-24.0,-230.0,-134.0,246.0,249.0,86.0,0
-24.0,-230.0,-131.0,249.0,248.0,80.0,0
-23.0,-230.0,-133.0,250.0,249.0,73.0,0
-22.0,-230.0,-131.0,247.0,246.0,67.0,0
-23.0,-228.0,-130.0,244.0,246.0,61.0,0
-18.0,-230.0,-129.0,239.0,244.0,56.0,0
-19.0,-227.0,-127.0,233.0,243.0,53.0,0
-19.0,-229.0,-125.0,227.0,243.0,51.0,0
-21.0,-229.0,-127.0,225.0,244.0,50.0,0
-19.0,-233.0,-129.0,226.0,245.0,49.0,0
-17.0,-233.0,-122.0,229.0,246.0,48.0,0
-18.0,-235.0,-127.0,231.0,249.0,51.0,0
-19.0,-229.0,-125.0,233.0,253.0,56.0,0
-21.0,-231.0,-126.0,232.0,258.0,59.0,0
-21.0,-230.0,-128.0,229.0,261.0,67.0,0
-23.0,-231.0,-124.0,224.0,265.0,73.0,0
-22.0,-229.0,-127.0,215.0,266.0,77.0,0
-22.0,-225.0,-125.0,206.0,267.0,83.0,0
-23.0,-227.0,-125.0,194.0,268.0,87.0,0
-23.0,-227.0,-125.0,180.0,268.0,91.0,0
-24.0,-222.0,-123.0,164.0,268.0,97.0,0
-20.0,-228.0,-117.0,147.0,267.0,102.0,0
-23.0,-226.0,-122.0,131.0,265.0,105.0,0
-18.0,-224.0,-121.0,117.0,264.0,110.0,0
-20.0,-226.0,-118.0,106.0,262.0,112.0,0
-17.0,-231.0,-117.0,97.0,261.0,115.0,0
-17.0,-230.0,-118.0,91.0,259.0,118.0,0
-17.0,-229.0,-113.0,89.0,257.0,120.0,0
-17.0,-228.0,-112.0,86.0,255.0,121.0,0
-17.0,-228.0,-113.0,85.0,252.0,123.0,0
-16.0,-226.0,-114.0,84.0,250.0,122.0,0
-16.0,-235.0,-106.0,85.0,250.0,122.0,0
-14.0,-237.0,-110.0,89.0,249.0,125.0,0
-14.0,-233.0,-109.0,94.0,249.0,124.0,0
-14.0,-235.0,-108.0,99.0,251.0,125.0,0
-15.0,-233.0,-106.0,102.0,252.0,123.0,0
-14.0,-235.0,-111.0,108.0,254.0,125.0,0
-15.0,-235.0,-107.0,112.0,255.0,122.0,0
-15.0,-232.0,-112.0,117.0,257.0,118.0,0
-17.0,-232.0,-110.0,121.0,259.0,115.0,0
-15.0,-232.0,-107.0,123.0,263.0,115.0,0
-14.0,-236.0,-112.0,123.0,263.0,112.0,0
-12.0,-236.0,-114.0,123.0,267.0,110.0,0
-13.0,-234.0,-112.0,122.0,271.0,110.0,0
-15.0,-231.0,-112.0,119.0,271.0,110.0,0
-16.0,-233.0,-112.0,119.0,272.0,108.0,0
-12.0,-234.0,-108.0,119.0,273.0,105.0,0
-15.0,-229.0,-113.0,119.0,274.0,104.0,0
-13.0,-229.0,-108.0,121.0,274.0,101.0,0
-15.0,-234.0,-111.0,125.0,274.0,97.0,0
-18.0,-232.0,-109.0,128.0,274.0,95.0,0
-17.0,-232.0,-104.0,133.0,273.0,91.0,0
-14.0,-232.0,-108.0,138.0,271.0,89.0,0
-15.0,-234.0,-109.0,142.0,268.0,87.0,0
-21.0,-229.0,-114.0,146.0,267.0,84.0,0
-15.0,-232.0,-107.0,148.0,264.0,81.0,0
-15.0,-232.0,-109.0,149.0,262.0,79.0,0
-15.0,-231.0,-108.0,149.0,262.0,77.0,0
-11.0,-234.0,-109.0,149.0,260.0,73.0,0
-12.0,-229.0,-109.0,145.0,260.0,68.0,0
-11.0,-234.0,-110.0,139.0,260.0,66.0,0
-11.0,-231.0,-108.0,133.0,259.0,62.0,0
-12.0,-235.0,-112.0,124.0,261.0,61.0,0
-8.0,-234.0,-113.0,114.0,262.0,61.0,0
-11.0,-236.0,-113.0,105.0,264.0,58.0,0
-10.0,-235.0,-110.0,97.0,265.0,57.0,0
-8.0,-235.0,-115.0,89.0,267.0,54.0,0
-11.0,-233.0,-113.0,85.0,267.0,53.0,0
-9.0,-231.0,-114.0,81.0,267.0,52.0,0
-9.0,-233.0,-114.0,77.0,268.0,50.0,0
-7.0,-233.0,-113.0,76.0,270.0,50.0,0
-10.0,-233.0,-114.0,72.0,272.0,49.0,0
-6.0,-233.0,-116.0,69.0,273.0,46.0,0
-8.0,-232.0,-118.0,65.0,273.0,45.0,0
-9.0,-232.0,-113.0,63.0,273.0,45.0,0
-7.0,-229.0,-115.0,59.0,273.0,43.0,0
-12.0,-231.0,-112.0,58.0,273.0,43.0,0
-5.0,-232.0,-111.0,56.0,273.0,41.0,0
-5.0,-232.0,-112.0,56.0,272.0,41.0,0
-8.0,-232.0,-114.0,56.0,273.0,39.0,0
-5.0,-235.0,-111.0,57.0,273.0,36.0,0
-8.0,-233.0,-112.0,57.0,272.0,33.0,0
-8.0,-236.0,-110.0,56.0,269.0,31.0,0
-5.0,-231.0,-111.0,58.0,269.0,27.0,0
-10.0,-233.0,-111.0,57.0,266.0,26.0,0
-8.0,-232.0,-109.0,57.0,263.0,23.0,0
-9.0,-234.0,-111.0,55.0,262.0,22.0,0
-6.0,-231.0,-110.0,53.0,259.0,20.0,0
-9.0,-232.0,-112.0,51.0,256.0,17.0,0
-3.0,-232.0,-109.0,49.0,251.0,14.0,0
-7.0,-233.0,-107.0,48.0,247.0,12.0,0
-9.0,-232.0,-107.0,46.0,244.0,10.0,0
-5.0,-233.0,-107.0,44.0,240.0,8.0,0
-8.0,-232.0,-107.0,42.0,235.0,7.0,0
-4.0,-232.0,-111.0,41.0,232.0,6.0,0
-7.0,-230.0,-107.0,40.0,229.0,5.0,0
-4.0,-231.0,-110.0,38.0,227.0,4.0,0
-8.0,-232.0,-102.0,35.0,227.0,5.0,0
-5.0,-232.0,-112.0,34.0,225.0,6.0,0
-6.0,-229.0,-108.0,32.0,224.0,7.0,0
-6.0,-233.0,-113.0,33.0,223.0,7.0,0
-6.0,-231.0,-112.0,34.0,223.0,10.0,0
-5.0,-231.0,-109.0,35.0,222.0,10.0,0
-8.0,-229.0,-106.0,36.0,219.0,11.0,0
-4.0,-231.0,-109.0,38.0,216.0,10.0,0
-6.0,-229.0,-113.0,38.0,212.0,9.0,0
-4.0,-228.0,-108.0,39.0,209.0,10.0,0
-9.0,-226.0,-110.0,38.0,206.0,7.0,0
-7.0,-227.0,-105.0,37.0,203.0,4.0,0
-5.0,-229.0,-108.0,36.0,201.0,1.0,0
-6.0,-233.0,-110.0,35.0,197.0,-1.0,0
-8.0,-230.0,-108.0,34.0,194.0,-1.0,0
-7.0,-230.0,-108.0,31.0,190.0,-5.0,0
-6.0,-230.0,-111.0,29.0,187.0,-7.0,0
-7.0,-231.0,-110.0,27.0,184.0,-8.0,0
-8.0,-229.0,-104.0,23.0,181.0,-9.0,0
-7.0,-229.0,-109.0,19.0,178.0,-9.0,0
-6.0,-227.0,-106.0,14.0,174.0,-10.0,0
-7.0,-226.0,-106.0,10.0,169.0,-10.0,0
0.0,-220.0,-102.0,8.0,164.0,-12.0,0
-5.0,-230.0,-108.0,6.0,160.0,-13.0,0
-7.0,-230.0,-108.0,5.0,156.0,-13.0,0
-7.0,-230.0,-109.0,5.0,154.0,-13.0,0
-7.0,-230.0,-111.0,7.0,150.0,-14.0,0
-3.0,-234.0,-107.0,9.0,145.0,-15.0,0
-3.0,-236.0,-106.0,13.0,141.0,-16.0,0
-6.0,-233.0,-112.0,19.0,138.0,-18.0,0
-7.0,-235.0,-111.0,25.0,135.0,-16.0,0
-6.0,-232.0,-109.0,29.0,130.0,-14.0,0
-1.0,-233.0,-110.0,32.0,126.0,-14.0,0
-7.0,-232.0,-113.0,34.0,121.0,-15.0,0
-5.0,-232.0,-108.0,34.0,118.0,-15.0,0
-5.0,-233.0,-111.0,35.0,113.0,-16.0,0
-4.0,-232.0,-105.0,34.0,108.0,-17.0,0
-5.0,-233.0,-105.0,32.0,103.0,-20.0,0
-4.0,-235.0,-105.0,29.0,100.0,-21.0,0
-3.0,-239.0,-103.0,26.0,97.0,-22.0,0
-4.0,-235.0,-105.0,23.0,95.0,-24.0,0
-2.0,-237.0,-101.0,21.0,94.0,-25.0,0
-4.0,-239.0,-107.0,17.0,96.0,-27.0,0
-6.0,-239.0,-105.0,17.0,98.0,-29.0,0
0.0,-237.0,-106.0,18.0,99.0,-29.0,0
-4.0,-238.0,-103.0,20.0,99.0,-29.0,0
-6.0,-240.0,-103.0,22.0,100.0,-29.0,0
-4.0,-238.0,-102.0,21.0,101.0,-29.0,0
-5.0,-241.0,-106.0,17.0,100.0,-29.0,0
-8.0,-240.0,-106.0,15.0,99.0,-27.0,0
-7.0,-242.0,-102.0,12.0,98.0,-25.0,0
-6.0,-240.0,-103.0,10.0,94.0,-23.0,0
-7.0,-242.0,-102.0,8.0,91.0,-22.0,0
-5.0,-241.0,-101.0,8.0,89.0,-21.0,0
-3.0,-242.0,-101.0,11.0,83.0,-18.0,0
-8.0,-244.0,-98.0,16.0,80.0,-18.0,0
-7.0,-245.0,-104.0,22.0,77.0,-16.0,0
-4.0,-244.0,-102.0,29.0,73.0,-15.0,0
-5.0,-239.0,-100.0,38.0,71.0,-13.0,0
-6.0,-243.0,-106.0,47.0,68.0,-9.0,0
-2.0,-244.0,-102.0,55.0,65.0,-8.0,0
-4.0,-244.0,-100.0,63.0,64.0,-7.0,0
-4.0,-241.0,-101.0,71.0,64.0,-6.0,0
-5.0,-242.0,-104.0,76.0,63.0,-5.0,0
-3.0,-240.0,-106.0,79.0,62.0,-5.0,0
-6.0,-242.0,-103.0,82.0,63.0,-4.0,0
-6.0,-240.0,-106.0,81.0,63.0,-4.0,0
-5.0,-239.0,-104.0,78.0,64.0,-5.0,0
-6.0,-237.0,-97.0,74.0,65.0,-5.0,0
-6.0,-238.0,-101.0,70.0,66.0,-5.0,0
-3.0,-239.0,-102.0,66.0,66.0,-4.0,0
-8.0,-235.0,-106.0,64.0,67.0,-5.0,0
-2.0,-237.0,-105.0,62.0,67.0,-6.0,0
-6.0,-237.0,-103.0,59.0,67.0,-5.0,0
-4.0,-236.0,-99.0,56.0,67.0,-7.0,0
-5.0,-236.0,-101.0,50.0,67.0,-5.0,0
-4.0,-236.0,-104.0,47.0,68.0,-6.0,0
-1.0,-237.0,-100.0,41.0,67.0,-7.0,0
-4.0,-235.0,-101.0,37.0,69.0,-8.0,0
-8.0,-234.0,-100.0,32.0,68.0,-8.0,0
-2.0,-236.0,-101.0,28.0,67.0,-10.0,0
-1.0,-234.0,-98.0,25.0,66.0,-11.0,0
-8.0,-235.0,-101.0,24.0,64.0,-11.0,0
-1.0,-235.0,-101.0,24.0,64.0,-12.0,0
0.0,-237.0,-99.0,23.0,62.0,-13.0,0
-5.0,-231.0,-103.0,22.0,61.0,-14.0,0
-4.0,-234.0,-101.0,22.0,59.0,-12.0,0
-7.0,-234.0,-95.0,19.0,57.0,-13.0,0
-2.0,-238.0,-104.0,15.0,57.0,-13.0,0
-2.0,-238.0,-102.0,11.0,59.0,-13.0,0
-1.0,-237.0,-105.0,8.0,61.0,-14.0,0
0.0,-237.0,-100.0,7.0,61.0,-14.0,0
-2.0,-238.0,-104.0,5.0,61.0,-14.0,0
-4.0,-237.0,-103.0,7.0,62.0,-14.0,0
-1.0,-238.0,-97.0,9.0,65.0,-17.0,0
-2.0,-237.0,-107.0,13.0,65.0,-16.0,0
-4.0,-234.0,-99.0,14.0,65.0,-15.0,0
-6.0,-233.0,-102.0,16.0,66.0,-16.0,0
2.0,-234.0,-104.0,17.0,67.0,-16.0,0
1.0,-234.0,-102.0,18.0,68.0,-17.0,0
-3.0,-234.0,-101.0,19.0,69.0,-18.0,0
-2.0,-240.0,-100.0,20.0,71.0,-20.0,0
-2.0,-238.0,-102.0,22.0,71.0,-19.0,0
-2.0,-238.0,-103.0,25.0,72.0,-20.0,0
0.0,-236.0,-103.0,27.0,73.0,-21.0,0
-2.0,-237.0,-104.0,31.0,76.0,-22.0,0
0.0,-239.0,-101.0,32.0,76.0,-21.0,0
2.0,-240.0,-100.0,33.0,77.0,-22.0,0
-1.0,-237.0,-104.0,35.0,78.0,-22.0,0
-1.0,-240.0,-108.0,34.0,79.0,-22.0,0
-1.0,-236.0,-102.0,34.0,81.0,-21.0,0
2.0,-238.0,-101.0,32.0,81.0,-21.0,0
-1.0,-236.0,-105.0,29.0,83.0,-22.0,0
-2.0,-235.0,-104.0,27.0,83.0,-22.0,0
-1.0,-237.0,-99.0,25.0,84.0,-21.0,0
2.0,-239.0,-105.0,21.0,85.0,-21.0,0
-2.0,-236.0,-102.0,18.0,85.0,-21.0,0
0.0,-237.0,-101.0,16.0,87.0,-19.0,0
0.0,-238.0,-99.0,13.0,88.0,-18.0,0
0.0,-235.0,-103.0,11.0,89.0,-18.0,0
-3.0,-238.0,-104.0,10.0,91.0,-18.0,0
1.0,-236.0,-101.0,11.0,92.0,-16.0,0
1.0,-236.0,-101.0,12.0,92.0,-17.0,0
2.0,-238.0,-102.0,14.0,94.0,-15.0,0
1.0,-238.0,-103.0,13.0,96.0,-14.0,0
0.0,-239.0,-103.0,15.0,97.0,-15.0,0
-2.0,-239.0,-100.0,16.0,98.0,-15.0,0
-2.0,-237.0,-105.0,19.0,98.0,-14.0,0
2.0,-239.0,-101.0,22.0,98.0,-13.0,0
-4.0,-237.0,-103.0,26.0,99.0,-13.0,0
1.0,-240.0,-102.0,32.0,99.0,-13.0,0
-2.0,-243.0,-104.0,37.0,97.0,-12.0,0
-3.0,-237.0,-102.0,42.0,99.0,-11.0,0
-2.0,-241.0,-99.0,46.0,100.0,-10.0,0
-1.0,-240.0,-99.0,49.0,101.0,-11.0,0
3.0,-240.0,-102.0,52.0,101.0,-10.0,0
0.0,-237.0,-104.0,55.0,102.0,-9.0,0
-2.0,-237.0,-97.0,57.0,103.0,-9.0,0
-1.0,-241.0,-101.0,58.0,104.0,-9.0,0
-1.0,-241.0,-101.0,60.0,105.0,-9.0,0
-2.0,-240.0,-99.0,59.0,105.0,-9.0,0
2.0,-242.0,-101.0,59.0,105.0,-9.0,0
1.0,-240.0,-99.0,60.0,105.0,-10.0,0
-2.0,-235.0,-102.0,61.0,105.0,-11.0,0
-3.0,-238.0,-98.0,64.0,104.0,-12.0,0
-2.0,-239.0,-99.0,67.0,103.0,-13.0,0
-2.0,-239.0,-97.0,73.0,101.0,-15.0,0
-2.0,-240.0,-100.0,79.0,101.0,-16.0,0
-1.0,-240.0,-100.0,87.0,99.0,-17.0,0
2.0,-240.0,-99.0,94.0,97.0,-19.0,0
-1.0,-238.0,-100.0,101.0,93.0,-18.0,0
-3.0,-240.0,-95.0,112.0,91.0,-19.0,0
-3.0,-236.0,-96.0,122.0,88.0,-19.0,0
7.0,-235.0,-92.0,127.0,85.0,-18.0,0
0.0,-240.0,-93.0,131.0,83.0,-18.0,0
-4.0,-238.0,-100.0,133.0,83.0,-17.0,0
0.0,-235.0,-98.0,134.0,81.0,-16.0,0
0.0,-239.0,-98.0,134.0,80.0,-15.0,0
-3.0,-237.0,-95.0,130.0,79.0,-14.0,0
-2.0,-239.0,-98.0,127.0,81.0,-11.0,0
-1.0,-239.0,-97.0,122.0,81.0,-13.0,0
-2.0,-243.0,-97.0,120.0,79.0,-11.0,0
3.0,-241.0,-100.0,119.0,81.0,-11.0,0
0.0,-238.0,-97.0,117.0,80.0,-10.0,0
-4.0,-239.0,-98.0,117.0,82.0,-8.0,0
2.0,-241.0,-94.0,117.0,83.0,-7.0,0
-2.0,-240.0,-95.0,116.0,83.0,-4.0,0
-1.0,-237.0,-91.0,113.0,82.0,-3.0,0
-1.0,-240.0,-95.0,110.0,83.0,-3.0,0
-4.0,-240.0,-94.0,107.0,83.0,-4.0,0
-3.0,-240.0,-91.0,104.0,82.0,-4.0,0
-1.0,-240.0,-96.0,101.0,85.0,-3.0,0
1.0,-238.0,-93.0,99.0,86.0,-3.0,0
2.0,-241.0,-92.0,97.0,87.0,-2.0,0
1.0,-242.0,-89.0,96.0,90.0,-2.0,0
-4.0,-246.0,-84.0,94.0,91.0,-2.0,0
-2.0,-244.0,-89.0,92.0,93.0,-1.0,0
-2.0,-240.0,-91.0,90.0,93.0,-2.0,0
-3.0,-241.0,-91.0,87.0,95.0,0.0,0
-1.0,-241.0,-91.0,83.0,96.0,0.0,0
-1.0,-239.0,-94.0,79.0,97.0,1.0,0
-4.0,-238.0,-90.0,72.0,96.0,3.0,0
-6.0,-240.0,-90.0,65.0,96.0,3.0,0
-2.0,-242.0,-95.0,56.0,98.0,6.0,0
2.0,-242.0,-93.0,47.0,98.0,6.0,0
1.0,-240.0,-91.0,38.0,97.0,6.0,0
0.0,-240.0,-92.0,31.0,96.0,6.0,0
-3.0,-241.0,-91.0,26.0,96.0,7.0,0
-1.0,-242.0,-90.0,21.0,95.0,5.0,0
-1.0,-242.0,-92.0,17.0,95.0,5.0,0
1.0,-242.0,-92.0,16.0,94.0,5.0,0
1.0,-244.0,-95.0,15.0,95.0,4.0,0
2.0,-242.0,-90.0,16.0,95.0,4.0,0
0.0,-243.0,-93.0,17.0,94.0,5.0,0
1.0,-241.0,-92.0,17.0,95.0,4.0,0
-2.0,-240.0,-95.0,19.0,95.0,5.0,0
0.0,-247.0,-89.0,20.0,94.0,7.0,0
-1.0,-243.0,-95.0,20.0,95.0,8.0,0
0.0,-243.0,-90.0,19.0,95.0,9.0,0
-2.0,-242.0,-92.0,19.0,95.0,9.0,0
2.0,-242.0,-91.0,18.0,95.0,9.0,0
0.0,-241.0,-91.0,15.0,95.0,9.0,0
0.0,-243.0,-92.0,13.0,96.0,8.0,0
-3.0,-239.0,-91.0,12.0,97.0,9.0,0
1.0,-245.0,-92.0,9.0,96.0,9.0,0
-4.0,-243.0,-92.0,8.0,96.0,8.0,0
2.0,-240.0,-103.0,5.0,94.0,8.0,0
0.0,-242.0,-91.0,4.0,94.0,8.0,0
-4.0,-245.0,-93.0,1.0,94.0,7.0,0
-2.0,-242.0,-91.0,0.0,92.0,5.0,0
-1.0,-242.0,-90.0,-2.0,93.0,6.0,0
2.0,-242.0,-89.0,-5.0,92.0,5.0,0
-3.0,-240.0,-89.0,-8.0,93.0,5.0,0
-1.0,-242.0,-94.0,-11.0,94.0,6.0,0
1.0,-246.0,-94.0,-12.0,94.0,5.0,0
1.0,-243.0,-92.0,-15.0,94.0,6.0,0
-3.0,-241.0,-90.0,-16.0,95.0,6.0,0
0.0,-243.0,-91.0,-18.0,92.0,7.0,0
2.0,-244.0,-93.0,-20.0,93.0,7.0,0
1.0,-241.0,-93.0,-20.0,92.0,6.0,0
-3.0,-245.0,-88.0,-21.0,93.0,8.0,0
-1.0,-244.0,-90.0,-23.0,94.0,9.0,0
-2.0,-242.0,-91.0,-23.0,93.0,10.0,0
0.0,-244.0,-93.0,-26.0,94.0,10.0,0
-2.0,-240.0,-89.0,-25.0,94.0,11.0,0
-1.0,-241.0,-86.0,-27.0,94.0,11.0,0
2.0,-243.0,-92.0,-29.0,94.0,13.0,0
-2.0,-242.0,-93.0,-31.0,93.0,11.0,0
2.0,-244.0,-91.0,-31.0,91.0,11.0,0
0.0,-242.0,-90.0,-32.0,93.0,11.0,0
1.0,-241.0,-92.0,-31.0,93.0,11.0,0
-1.0,-240.0,-90.0,-31.0,93.0,12.0,0
-1.0,-242.0,-89.0,-29.0,92.0,13.0,0
-3.0,-240.0,-94.0,-28.0,92.0,11.0,0
-2.0,-241.0,-90.0,-27.0,93.0,9.0,0
0.0,-242.0,-88.0,-27.0,93.0,10.0,0
3.0,-243.0,-95.0,-26.0,91.0,11.0,0
-1.0,-242.0,-91.0,-25.0,91.0,10.0,0
-1.0,-241.0,-89.0,-24.0,92.0,9.0,0
4.0,-242.0,-91.0,-24.0,93.0,8.0,0
5.0,-244.0,-94.0,-25.0,91.0,8.0,0
2.0,-243.0,-89.0,-26.0,92.0,8.0,0
-3.0,-241.0,-92.0,-26.0,93.0,6.0,0
0.0,-244.0,-92.0,-27.0,92.0,7.0,0
-4.0,-243.0,-91.0,-26.0,91.0,8.0,0
-1.0,-241.0,-92.0,-27.0,92.0,5.0,0
-1.0,-243.0,-94.0,-28.0,92.0,7.0,0
-2.0,-241.0,-92.0,-29.0,93.0,5.0,0
-2.0,-243.0,-93.0,-28.0,94.0,5.0,0
-3.0,-241.0,-94.0,-26.0,94.0,6.0,0
-4.0,-239.0,-90.0,-25.0,94.0,6.0,0
0.0,-241.0,-92.0,-24.0,94.0,7.0,0
-4.0,-240.0,-94.0,-24.0,94.0,6.0,0
-2.0,-239.0,-93.0,-23.0,94.0,6.0,0
0.0,-242.0,-92.0,-22.0,93.0,5.0,0
-2.0,-241.0,-95.0,-22.0,92.0,5.0,0
-3.0,-240.0,-94.0,-22.0,91.0,4.0,0
0.0,-241.0,-88.0,-21.0,90.0,4.0,0
1.0,-244.0,-95.0,-21.0,91.0,3.0,0
-3.0,-242.0,-92.0,-20.0,90.0,3.0,0
-5.0,-243.0,-89.0,-21.0,91.0,2.0,0
-1.0,-244.0,-96.0,-21.0,89.0,2.0,0
-10.0,-243.0,-91.0,-21.0,88.0,2.0,0
-1.0,-240.0,-94.0,-19.0,88.0,2.0,0
-2.0,-241.0,-95.0,-20.0,90.0,1.0,0
1.0,-242.0,-93.0,-20.0,89.0,1.0,0
-4.0,-241.0,-93.0,-21.0,89.0,0.0,0
-2.0,-244.0,-90.0,-22.0,89.0,3.0,0
-4.0,-242.0,-96.0,-21.0,90.0,2.0,0
1.0,-244.0,-94.0,-22.0,89.0,2.0,0
0.0,-242.0,-92.0,-21.0,90.0,2.0,0
-1.0,-243.0,-92.0,-21.0,89.0,3.0,0
0.0,-242.0,-93.0,-20.0,89.0,3.0,0
-2.0,-243.0,-92.0,-19.0,89.0,3.0,0
3.0,-241.0,-92.0,-19.0,89.0,3.0,0
-3.0,-242.0,-96.0,-17.0,89.0,3.0,0
-3.0,-241.0,-95.0,-17.0,89.0,4.0,0
0.0,-243.0,-93.0,-16.0,89.0,3.0,0
-3.0,-239.0,-96.0,-15.0,89.0,4.0,0
-4.0,-241.0,-91.0,-14.0,89.0,3.0,0
4.0,-246.0,-97.0,-13.0,88.0,3.0,0
-2.0,-238.0,-93.0,-11.0,89.0,3.0,0
-4.0,-242.0,-96.0,-12.0,88.0,1.0,0
-2.0,-242.0,-94.0,-11.0,89.0,1.0,0
-1.0,-240.0,-91.0,-9.0,89.0,1.0,0
-1.0,-241.0,-90.0,-10.0,88.0,1.0,0
-3.0,-240.0,-93.0,-11.0,88.0,2.0,0
-2.0,-241.0,-94.0,-13.0,90.0,1.0,0
-2.0,-242.0,-95.0,-13.0,88.0,1.0,0
-2.0,-241.0,-96.0,-15.0,88.0,1.0,0
-2.0,-241.0,-94.0,-15.0,87.0,1.0,0
-2.0,-243.0,-94.0,-13.0,87.0,0.0,0
0.0,-243.0,-92.0,-12.0,87.0,0.0,0
-2.0,-243.0,-95.0,-9.0,85.0,2.0,0
-4.0,-241.0,-93.0,-6.0,85.0,1.0,0
1.0,-241.0,-92.0,-5.0,84.0,2.0,0
-2.0,-243.0,-92.0,-4.0,83.0,3.0,0
0.0,-241.0,-93.0,-4.0,82.0,2.0,0
-4.0,-242.0,-91.0,-5.0,81.0,0.0,0
-3.0,-239.0,-94.0,-6.0,79.0,-1.0,0
-2.0,-240.0,-91.0,-7.0,78.0,-2.0,0
-3.0,-241.0,-92.0,-9.0,76.0,-2.0,0
-2.0,-242.0,-93.0,-11.0,76.0,-2.0,0
1.0,-244.0,-93.0,-13.0,78.0,-2.0,0
-1.0,-244.0,-93.0,-12.0,77.0,-2.0,0
-4.0,-242.0,-92.0,-10.0,77.0,-3.0,0
1.0,-245.0,-91.0,-8.0,78.0,-2.0,0
0.0,-242.0,-93.0,-6.0,78.0,-4.0,0
-4.0,-241.0,-92.0,-6.0,79.0,-3.0,0
-1.0,-240.0,-93.0,-6.0,78.0,-4.0,0
-2.0,-240.0,-96.0,-8.0,78.0,-4.0,0
-4.0,-240.0,-94.0,-9.0,76.0,-4.0,0
0.0,-240.0,-94.0,-11.0,76.0,-4.0,0
-2.0,-241.0,-89.0,-14.0,77.0,-6.0,0
-1.0,-242.0,-91.0,-16.0,76.0,-5.0,0
-3.0,-242.0,-93.0,-17.0,73.0,-5.0,0
1.0,-242.0,-89.0,-16.0,72.0,-6.0,0
-4.0,-242.0,-95.0,-14.0,70.0,-6.0,0
-2.0,-239.0,-90.0,-12.0,71.0,-7.0,0
-3.0,-243.0,-95.0,-9.0,68.0,-6.0,0
-5.0,-243.0,-92.0,-5.0,68.0,-7.0,0
-2.0,-242.0,-90.0,-2.0,67.0,-7.0,0
1.0,-242.0,-92.0,1.0,66.0,-6.0,0
-3.0,-242.0,-92.0,3.0,65.0,-7.0,0
-3.0,-241.0,-93.0,5.0,66.0,-7.0,0
-2.0,-243.0,-96.0,7.0,64.0,-7.0,0
0.0,-244.0,-96.0,8.0,67.0,-5.0,0
1.0,-237.0,-98.0,9.0,64.0,-7.0,0
-4.0,-241.0,-91.0,8.0,65.0,-5.0,0
-1.0,-239.0,-93.0,9.0,63.0,-4.0,0
1.0,-241.0,-92.0,10.0,62.0,-4.0,0
-1.0,-241.0,-94.0,11.0,63.0,-3.0,0
-3.0,-241.0,-91.0,12.0,63.0,-4.0,0
1.0,-241.0,-93.0,14.0,63.0,-6.0,0
-3.0,-238.0,-94.0,14.0,62.0,-6.0,0
-5.0,-242.0,-96.0,14.0,63.0,-6.0,0
-2.0,-240.0,-93.0,15.0,61.0,-6.0,0
-2.0,-240.0,-93.0,13.0,62.0,-7.0,0
-3.0,-241.0,-95.0,11.0,62.0,-6.0,0
-3.0,-242.0,-90.0,8.0,61.0,-6.0,0
-3.0,-242.0,-88.0,6.0,59.0,-5.0,0
-5.0,-238.0,-92.0,3.0,60.0,-6.0,0
-2.0,-239.0,-96.0,2.0,60.0,-6.0,0
-1.0,-243.0,-89.0,-1.0,60.0,-6.0,0
0.0,-240.0,-93.0,-3.0,59.0,-8.0,0
-1.0,-241.0,-93.0,-6.0,58.0,-6.0,0
-2.0,-237.0,-92.0,-8.0,59.0,-7.0,0
-1.0,-241.0,-90.0,-9.0,60.0,-8.0,0
-3.0,-238.0,-89.0,-11.0,59.0,-8.0,0
-8.0,-236.0,-97.0,-11.0,58.0,-7.0,0
-1.0,-241.0,-92.0,-12.0,59.0,-7.0,0
-2.0,-240.0,-91.0,-12.0,58.0,-7.0,0
-2.0,-241.0,-94.0,-13.0,58.0,-7.0,0
0.0,-241.0,-97.0,-12.0,58.0,-6.0,0
-3.0,-240.0,-90.0,-13.0,58.0,-6.0,0
-2.0,-242.0,-93.0,-12.0,59.0,-6.0,0
-4.0,-239.0,-92.0,-13.0,59.0,-6.0,0
-4.0,-238.0,-91.0,-11.0,59.0,-5.0,0
-1.0,-240.0,-95.0,-12.0,59.0,-5.0,0
-2.0,-237.0,-99.0,-13.0,59.0,-4.0,0
-3.0,-242.0,-94.0,-13.0,58.0,-6.0,0
-4.0,-236.0,-92.0,-15.0,59.0,-4.0,0
0.0,-243.0,-93.0,-17.0,56.0,-4.0,0
-3.0,-244.0,-92.0,-16.0,58.0,-5.0,0
-3.0,-241.0,-90.0,-14.0,58.0,-4.0,0
-2.0,-241.0,-87.0,-12.0,58.0,-4.0,0
-2.0,-244.0,-91.0,-10.0,60.0,-3.0,0
-5.0,-242.0,-91.0,-6.0,60.0,-2.0,0
-4.0,-243.0,-90.0,-5.0,61.0,-2.0,0
0.0,-245.0,-89.0,-4.0,61.0,-2.0,0
-2.0,-243.0,-90.0,-2.0,61.0,-1.0,0
3.0,-236.0,-91.0,-4.0,63.0,0.0,0
-1.0,-241.0,-91.0,-7.0,62.0,0.0,0
0.0,-243.0,-93.0,-7.0,60.0,-1.0,0
0.0,-242.0,-96.0,-10.0,62.0,1.0,0
0.0,-243.0,-95.0,-12.0,62.0,0.0,0
-3.0,-241.0,-94.0,-14.0,63.0,2.0,0
-1.0,-240.0,-89.0,-16.0,63.0,0.0,0
-2.0,-243.0,-92.0,-19.0,62.0,1.0,0
1.0,-242.0,-95.0,-21.0,63.0,1.0,0
2.0,-244.0,-94.0,-22.0,64.0,2.0,0
0.0,-240.0,-90.0,-23.0,66.0,2.0,0
-3.0,-243.0,-91.0,-22.0,66.0,2.0,0
0.0,-242.0,-92.0,-23.0,65.0,1.0,0
0.0,-243.0,-91.0,-22.0,65.0,2.0,0
-3.0,-240.0,-91.0,-23.0,64.0,2.0,0
-1.0,-244.0,-92.0,-24.0,65.0,4.0,0
-4.0,-241.0,-93.0,-25.0,66.0,2.0,0
0.0,-243.0,-92.0,-24.0,66.0,3.0,0
-2.0,-242.0,-93.0,-25.0,66.0,4.0,0
-2.0,-243.0,-91.0,-25.0,66.0,2.0,0
-5.0,-243.0,-92.0,-24.0,66.0,4.0,0
-1.0,-239.0,-93.0,-24.0,66.0,4.0,0
-7.0,-241.0,-92.0,-24.0,66.0,4.0,0
1.0,-243.0,-95.0,-22.0,66.0,5.0,0
-1.0,-243.0,-88.0,-21.0,67.0,5.0,0
1.0,-241.0,-89.0,-21.0,67.0,6.0,0
-3.0,-241.0,-90.0,-21.0,67.0,6.0,0
-1.0,-240.0,-92.0,-21.0,66.0,4.0,0
-4.0,-239.0,-92.0,-21.0,68.0,5.0,0
-2.0,-243.0,-93.0,-21.0,68.0,7.0,0
-1.0,-242.0,-90.0,-25.0,70.0,7.0,0
2.0,-242.0,-93.0,-28.0,70.0,6.0,0
-3.0,-243.0,-91.0,-32.0,71.0,8.0,0
3.0,-242.0,-98.0,-36.0,71.0,9.0,0
2.0,-241.0,-91.0,-39.0,71.0,9.0,0
0.0,-243.0,-91.0,-43.0,71.0,9.0,0
2.0,-243.0,-97.0,-46.0,70.0,7.0,0
-1.0,-240.0,-97.0,-49.0,70.0,5.0,0
3.0,-242.0,-95.0,-53.0,69.0,4.0,0
2.0,-241.0,-94.0,-57.0,67.0,4.0,0
0.0,-242.0,-91.0,-63.0,66.0,3.0,0
2.0,-243.0,-95.0,-67.0,64.0,2.0,0
-1.0,-241.0,-94.0,-71.0,63.0,1.0,0
0.0,-240.0,-107.0,-76.0,59.0,2.0,0
2.0,-242.0,-96.0,-82.0,56.0,-2.0,0
1.0,-238.0,-94.0,-86.0,55.0,-4.0,0
1.0,-240.0,-93.0,-91.0,52.0,-6.0,0
4.0,-242.0,-98.0,-99.0,50.0,-9.0,0
-1.0,-238.0,-98.0,-107.0,48.0,-11.0,0
2.0,-238.0,-97.0,-116.0,45.0,-12.0,0
2.0,-239.0,-96.0,-126.0,40.0,-11.0,0
-2.0,-238.0,-96.0,-134.0,32.0,-10.0,0
-4.0,-241.0,-91.0,-141.0,25.0,-11.0,0
-5.0,-238.0,-91.0,-144.0,12.0,-13.0,0
-5.0,-243.0,-90.0,-140.0,0.0,-13.0,0
-4.0,-244.0,-88.0,-130.0,-14.0,-16.0,0
-4.0,-244.0,-90.0,-116.0,-28.0,-20.0,0
-1.0,-247.0,-91.0,-102.0,-40.0,-24.0,0
1.0,-247.0,-86.0,-89.0,-50.0,-27.0,0
-4.0,-247.0,-91.0,-80.0,-59.0,-28.0,0
-3.0,-248.0,-93.0,-73.0,-67.0,-27.0,0
-4.0,-248.0,-95.0,-68.0,-75.0,-28.0,0
-3.0,-248.0,-92.0,-64.0,-84.0,-27.0,0
0.0,-251.0,-96.0,-64.0,-92.0,-31.0,0
-5.0,-251.0,-97.0,-60.0,-98.0,-33.0,0
-3.0,-248.0,-89.0,-55.0,-105.0,-32.0,0
-1.0,-251.0,-97.0,-50.0,-111.0,-35.0,0
-2.0,-254.0,-96.0,-43.0,-117.0,-36.0,0
0.0,-253.0,-92.0,-36.0,-124.0,-37.0,0
-4.0,-253.0,-91.0,-30.0,-130.0,-39.0,0
-3.0,-255.0,-97.0,-26.0,-138.0,-39.0,0
-3.0,-249.0,-96.0,-25.0,-148.0,-39.0,0
-2.0,-250.0,-93.0,-28.0,-158.0,-43.0,0
-3.0,-248.0,-98.0,-32.0,-168.0,-45.0,0
-5.0,-247.0,-95.0,-39.0,-180.0,-46.0,0
-5.0,-245.0,-96.0,-47.0,-194.0,-51.0,0
-4.0,-245.0,-97.0,-58.0,-206.0,-55.0,0
-5.0,-244.0,-97.0,-68.0,-221.0,-61.0,0
-3.0,-246.0,-101.0,-77.0,-234.0,-64.0,0
-6.0,-246.0,-99.0,-87.0,-245.0,-71.0,0
-8.0,-244.0,-100.0,-97.0,-259.0,-80.0,0
2.0,-253.0,-115.0,-106.0,-274.0,-89.0,0
-7.0,-251.0,-101.0,-119.0,-280.0,-98.0,0
-8.0,-247.0,-104.0,-132.0,-291.0,-110.0,0
-3.0,-249.0,-101.0,-145.0,-301.0,-120.0,0
-8.0,-251.0,-103.0,-158.0,-311.0,-131.0,0
-9.0,-249.0,-105.0,-171.0,-321.0,-139.0,0
-9.0,-253.0,-99.0,-179.0,-330.0,-145.0,0
-11.0,-251.0,-104.0,-185.0,-339.0,-154.0,0
-12.0,-253.0,-108.0,-189.0,-349.0,-161.0,0
-16.0,-255.0,-105.0,-189.0,-358.0,-167.0,0
-14.0,-257.0,-111.0,-190.0,-366.0,-170.0,0
-14.0,-258.0,-112.0,-191.0,-376.0,-174.0,0
-16.0,-258.0,-114.0,-195.0,-389.0,-178.0,0
-18.0,-260.0,-116.0,-201.0,-401.0,-184.0,0
-23.0,-257.0,-120.0,-211.0,-414.0,-192.0,0
-24.0,-260.0,-125.0,-225.0,-427.0,-199.0,0
-22.0,-264.0,-130.0,-241.0,-440.0,-203.0,0
-24.0,-265.0,-132.0,-262.0,-454.0,-206.0,0
-27.0,-267.0,-132.0,-284.0,-465.0,-211.0,0
-27.0,-266.0,-135.0,-309.0,-475.0,-214.0,0
-26.0,-270.0,-138.0,-336.0,-483.0,-216.0,0
-22.0,-268.0,-144.0,-365.0,-488.0,-210.0,0
-21.0,-272.0,-145.0,-399.0,-490.0,-201.0,0
-23.0,-278.0,-144.0,-435.0,-488.0,-192.0,0
-17.0,-275.0,-149.0,-472.0,-484.0,-183.0,0
-16.0,-277.0,-152.0,-502.0,-476.0,-172.0,0
-15.0,-281.0,-150.0,-526.0,-466.0,-160.0,0
-14.0,-284.0,-144.0,-545.0,-456.0,-151.0,0
-9.0,-282.0,-148.0,-560.0,-448.0,-146.0,0
-6.0,-280.0,-143.0,-570.0,-440.0,-146.0,0
-6.0,-279.0,-142.0,-573.0,-436.0,-149.0,0
-2.0,-280.0,-138.0,-571.0,-430.0,-158.0,0
-2.0,-282.0,-139.0,-559.0,-426.0,-169.0,0
1.0,-279.0,-141.0,-541.0,-424.0,-176.0,0
2.0,-278.0,-138.0,-515.0,-420.0,-184.0,0
-4.0,-273.0,-137.0,-490.0,-412.0,-191.0,0
-4.0,-273.0,-136.0,-465.0,-406.0,-196.0,0
-4.0,-268.0,-137.0,-441.0,-399.0,-200.0,0
-4.0,-265.0,-139.0,-423.0,-394.0,-209.0,0
-9.0,-264.0,-139.0,-409.0,-394.0,-221.0,0
-10.0,-259.0,-136.0,-401.0,-394.0,-231.0,0
-13.0,-258.0,-138.0,-396.0,-394.0,-241.0,0
-16.0,-256.0,-138.0,-401.0,-392.0,-250.0,0
-19.0,-254.0,-134.0,-413.0,-389.0,-259.0,0
-23.0,-250.0,-137.0,-431.0,-388.0,-271.0,0
-27.0,-246.0,-134.0,-456.0,-384.0,-280.0,0
-32.0,-243.0,-136.0,-482.0,-379.0,-290.0,0
-35.0,-236.0,-132.0,-509.0,-373.0,-301.0,0
-36.0,-231.0,-132.0,-533.0,-362.0,-311.0,0
-34.0,-226.0,-143.0,-548.0,-350.0,-320.0,0
-40.0,-224.0,-135.0,-562.0,-336.0,-329.0,0
-36.0,-223.0,-132.0,-568.0,-322.0,-336.0,0
-41.0,-221.0,-132.0,-574.0,-309.0,-343.0,0
-35.0,-217.0,-134.0,-574.0,-299.0,-351.0,0
-38.0,-213.0,-134.0,-574.0,-293.0,-360.0,0
-35.0,-215.0,-136.0,-560.0,-289.0,-366.0,0
-30.0,-216.0,-142.0,-533.0,-286.0,-372.0,0
-25.0,-216.0,-144.0,-498.0,-280.0,-375.0,0
-19.0,-211.0,-142.0,-460.0,-271.0,-377.0,0
-16.0,-216.0,-147.0,-417.0,-265.0,-374.0,0
-13.0,-218.0,-147.0,-380.0,-259.0,-373.0,0
-11.0,-215.0,-149.0,-347.0,-251.0,-373.0,0
-8.0,-220.0,-154.0,-324.0,-245.0,-370.0,0
-3.0,-223.0,-150.0,-309.0,-241.0,-363.0,0
-12.0,-218.0,-147.0,-315.0,-239.0,-349.0,0
-2.0,-213.0,-154.0,-330.0,-237.0,-330.0,0
-6.0,-214.0,-153.0,-361.0,-233.0,-311.0,0
-26.0,-218.0,-142.0,-404.0,-216.0,-288.0,0
-4.0,-211.0,-151.0,-442.0,-218.0,-267.0,0
-6.0,-208.0,-156.0,-488.0,-206.0,-249.0,0
-23.0,-206.0,-146.0,-542.0,-179.0,-227.0,0
-11.0,-205.0,-151.0,-595.0,-164.0,-211.0,0
-19.0,-208.0,-151.0,-642.0,-153.0,-201.0,0
5.0,-196.0,-159.0,-694.0,-145.0,-174.0,0
-24.0,-203.0,-146.0,-774.0,-113.0,-133.0,0
-13.0,-200.0,-149.0,-847.0,-114.0,-112.0,0
-6.0,-201.0,-151.0,-934.0,-110.0,-84.0,0
35.0,-189.0,-161.0,-1040.0,-98.0,-46.0,0
-43.0,-199.0,-141.0,-1161.0,-49.0,35.0,0
-8.0,-199.0,-134.0,-1254.0,-67.0,39.0,0
-10.0,-194.0,-138.0,-1310.0,-70.0,61.0,0
-9.0,-199.0,-140.0,-1332.0,-61.0,91.0,0
-8.0,-200.0,-129.0,-1307.0,-53.0,129.0,0
34.0,-192.0,-152.0,-1235.0,-47.0,165.0,0
-5.0,-209.0,-140.0,-1151.0,-8.0,228.0,0
1.0,-207.0,-139.0,-1041.0,-27.0,205.0,0
5.0,-206.0,-143.0,-927.0,-64.0,195.0,0
6.0,-212.0,-148.0,-830.0,-82.0,190.0,0
-1.0,-216.0,-146.0,-750.0,-87.0,182.0,0
1.0,-216.0,-141.0,-678.0,-86.0,171.0,0
3.0,-221.0,-146.0,-617.0,-81.0,159.0,0
-2.0,-220.0,-145.0,-570.0,-72.0,148.0,0
-5.0,-224.0,-150.0,-532.0,-60.0,141.0,0
-3.0,-222.0,-150.0,-504.0,-49.0,135.0,0
-2.0,-223.0,-150.0,-486.0,-32.0,129.0,0
-1.0,-221.0,-149.0,-468.0,-18.0,121.0,0
1.0,-220.0,-152.0,-449.0,-6.0,108.0,0
4.0,-221.0,-151.0,-425.0,6.0,92.0,0
4.0,-221.0,-150.0,-400.0,16.0,70.0,0
5.0,-221.0,-150.0,-371.0,28.0,47.0,0
54.0,-218.0,-154.0,-344.0,39.0,27.0,0
-7.0,-221.0,-150.0,-306.0,69.0,36.0,0
8.0,-217.0,-160.0,-273.0,52.0,-11.0,0
6.0,-220.0,-158.0,-227.0,46.0,-31.0,0
4.0,-219.0,-159.0,-181.0,45.0,-43.0,0
4.0,-217.0,-156.0,-134.0,42.0,-54.0,0
2.0,-218.0,-156.0,-90.0,41.0,-66.0,0
4.0,-219.0,-158.0,-48.0,41.0,-75.0,0
4.0,-216.0,-156.0,-4.0,44.0,-84.0,0
4.0,-217.0,-158.0,37.0,49.0,-90.0,0
3.0,-216.0,-154.0,78.0,54.0,-96.0,0
2.0,-213.0,-157.0,115.0,62.0,-99.0,0
2.0,-211.0,-157.0,149.0,66.0,-103.0,0
5.0,-216.0,-156.0,181.0,72.0,-106.0,0
9.0,-216.0,-166.0,214.0,78.0,-107.0,0
2.0,-219.0,-152.0,243.0,82.0,-108.0,0
2.0,-219.0,-147.0,269.0,89.0,-108.0,0
4.0,-218.0,-150.0,294.0,96.0,-105.0,0
2.0,-220.0,-150.0,320.0,108.0,-102.0,0
3.0,-219.0,-148.0,345.0,118.0,-94.0,0
4.0,-220.0,-149.0,367.0,129.0,-88.0,0
1.0,-217.0,-148.0,383.0,137.0,-81.0,0
1.0,-214.0,-153.0,391.0,141.0,-72.0,0
-2.0,-214.0,-154.0,388.0,144.0,-59.0,0
-3.0,-210.0,-160.0,376.0,144.0,-47.0,0
-4.0,-209.0,-162.0,359.0,147.0,-32.0,0
-4.0,-211.0,-163.0,335.0,150.0,-16.0,0
0.0,-211.0,-158.0,308.0,154.0,-4.0,0
-4.0,-213.0,-164.0,289.0,167.0,7.0,0
-6.0,-212.0,-160.0,279.0,181.0,20.0,0
-6.0,-215.0,-160.0,281.0,202.0,30.0,0
-4.0,-217.0,-160.0,294.0,225.0,36.0,0
-7.0,-215.0,-162.0,322.0,250.0,39.0,0
-2.0,-220.0,-158.0,366.0,278.0,38.0,0
-6.0,-217.0,-158.0,420.0,308.0,31.0,0
-6.0,-219.0,-157.0,478.0,334.0,23.0,0
-2.0,-214.0,-147.0,532.0,360.0,14.0,0
-3.0,-211.0,-152.0,583.0,382.0,6.0,0
-4.0,-208.0,-151.0,621.0,406.0,-3.0,0
-8.0,-209.0,-150.0,663.0,424.0,-11.0,0
-7.0,-204.0,-148.0,707.0,439.0,-17.0,0
-7.0,-205.0,-146.0,749.0,453.0,-29.0,0
-6.0,-206.0,-139.0,795.0,464.0,-37.0,0
-8.0,-206.0,-137.0,847.0,472.0,-46.0,0
-5.0,-210.0,-136.0,898.0,478.0,-55.0,0
-5.0,-217.0,-132.0,947.0,481.0,-63.0,0
-3.0,-214.0,-128.0,991.0,482.0,-66.0,0
-3.0,-214.0,-127.0,1032.0,479.0,-67.0,0
-1.0,-218.0,-120.0,1077.0,473.0,-60.0,0
1.0,-220.0,-121.0,1124.0,464.0,-50.0,0
1.0,-228.0,-114.0,1179.0,453.0,-44.0,0
4.0,-229.0,-108.0,1249.0,443.0,-29.0,0
5.0,-239.0,-108.0,1326.0,437.0,-13.0,0
7.0,-243.0,-106.0,1413.0,434.0,10.0,0
8.0,-245.0,-103.0,1510.0,440.0,34.0,0
8.0,-247.0,-101.0,1621.0,449.0,57.0,0
10.0,-254.0,-97.0,1740.0,465.0,81.0,0
13.0,-260.0,-99.0,1861.0,487.0,103.0,0
8.0,-260.0,-97.0,1975.0,511.0,116.0,0
13.0,-267.0,-94.0,2088.0,542.0,123.0,0
12.0,-266.0,-93.0,2188.0,578.0,125.0,0
15.0,-263.0,-100.0,2264.0,614.0,117.0,0
17.0,-256.0,-102.0,2306.0,649.0,106.0,0
15.0,-254.0,-104.0,2301.0,677.0,93.0,0
18.0,-255.0,-102.0,2257.0,698.0,81.0,0
16.0,-252.0,-102.0,2184.0,713.0,73.0,0
19.0,-251.0,-95.0,2096.0,730.0,71.0,0
21.0,-254.0,-93.0,2010.0,751.0,76.0,0
20.0,-253.0,-85.0,1924.0,771.0,76.0,0
17.0,-245.0,-78.0,1837.0,778.0,47.0,0
20.0,-247.0,-74.0,1759.0,782.0,29.0,0
23.0,-236.0,-67.0,1686.0,790.0,12.0,0
22.0,-260.0,-69.0,1632.0,801.0,31.0,0
13.0,-246.0,-60.0,1564.0,803.0,-11.0,0
18.0,-244.0,-58.0,1494.0,790.0,-48.0,0
18.0,-238.0,-58.0,1418.0,771.0,-76.0,0
18.0,-241.0,-54.0,1337.0,754.0,-104.0,0
15.0,-236.0,-51.0,1252.0,735.0,-131.0,0
17.0,-235.0,-50.0,1165.0,717.0,-157.0,0
17.0,-236.0,-50.0,1081.0,698.0,-174.0,0
16.0,-234.0,-45.0,997.0,680.0,-194.0,0
17.0,-234.0,-49.0,915.0,662.0,-208.0,0
15.0,-234.0,-44.0,830.0,651.0,-221.0,0
13.0,-239.0,-43.0,746.0,639.0,-234.0,0
14.0,-238.0,-41.0,682.0,624.0,-238.0,0
19.0,-239.0,-41.0,626.0,607.0,-240.0,0
17.0,-245.0,-39.0,573.0,596.0,-245.0,0
11.0,-244.0,-33.0,532.0,592.0,-244.0,0
14.0,-243.0,-32.0,507.0,583.0,-241.0,0
10.0,-245.0,-32.0,491.0,573.0,-240.0,0
11.0,-245.0,-31.0,487.0,563.0,-237.0,0
10.0,-247.0,-29.0,491.0,551.0,-234.0,0
13.0,-247.0,-29.0,498.0,540.0,-232.0,0
11.0,-248.0,-28.0,508.0,530.0,-230.0,0
13.0,-247.0,-28.0,516.0,518.0,-224.0,0
11.0,-252.0,-27.0,528.0,507.0,-219.0,0
10.0,-252.0,-25.0,539.0,496.0,-213.0,0
13.0,-252.0,-27.0,549.0,487.0,-203.0,0
11.0,-254.0,-25.0,561.0,476.0,-193.0,0
13.0,-253.0,-25.0,568.0,465.0,-182.0,0
10.0,-253.0,-29.0,574.0,454.0,-172.0,0
8.0,-258.0,-29.0,581.0,444.0,-162.0,0
10.0,-250.0,-23.0,590.0,432.0,-152.0,0
11.0,-249.0,-30.0,600.0,423.0,-139.0,0
9.0,-250.0,-26.0,613.0,415.0,-125.0,0
15.0,-252.0,-16.0,626.0,408.0,-114.0,0
12.0,-252.0,-25.0,643.0,399.0,-103.0,0
14.0,-247.0,-16.0,659.0,391.0,-94.0,0
15.0,-254.0,-14.0,672.0,381.0,-84.0,0
6.0,-252.0,-24.0,687.0,373.0,-76.0,0
13.0,-241.0,-15.0,701.0,362.0,-70.0,0
16.0,-248.0,-15.0,716.0,346.0,-67.0,0
10.0,-245.0,-7.0,731.0,330.0,-61.0,0
11.0,-246.0,-14.0,749.0,317.0,-57.0,0
11.0,-246.0,-12.0,766.0,302.0,-56.0,0
11.0,-244.0,-6.0,784.0,286.0,-55.0,0
9.0,-244.0,-13.0,800.0,271.0,-54.0,0
13.0,-240.0,-6.0,816.0,256.0,-53.0,0
13.0,-240.0,-9.0,829.0,243.0,-53.0,0
12.0,-243.0,-5.0,842.0,235.0,-50.0,0
16.0,-237.0,1.0,854.0,227.0,-47.0,0
7.0,-228.0,-16.0,864.0,219.0,-47.0,0
10.0,-226.0,7.0,871.0,212.0,-46.0,0
6.0,-244.0,-7.0,881.0,205.0,-43.0,0
9.0,-217.0,8.0,890.0,199.0,-36.0,0
8.0,-237.0,-12.0,897.0,193.0,-30.0,0
6.0,-231.0,-15.0,900.0,188.0,-27.0,0
7.0,-228.0,-11.0,902.0,183.0,-25.0,0
10.0,-230.0,-2.0,900.0,176.0,-19.0,0
6.0,-230.0,-5.0,896.0,172.0,-17.0,0
6.0,-225.0,-5.0,889.0,163.0,-17.0,0
11.0,-230.0,-1.0,880.0,156.0,-14.0,0
10.0,-227.0,-4.0,864.0,145.0,-12.0,0
6.0,-230.0,-6.0,849.0,134.0,-6.0,0
6.0,-228.0,-4.0,834.0,125.0,-2.0,0
13.0,-232.0,4.0,820.0,119.0,-1.0,0
12.0,-232.0,-2.0,808.0,116.0,2.0,0
14.0,-241.0,4.0,797.0,115.0,6.0,0
17.0,-226.0,1.0,787.0,111.0,7.0,0
7.0,-239.0,13.0,779.0,109.0,8.0,0
12.0,-242.0,16.0,771.0,110.0,7.0,0
2.0,-236.0,19.0,762.0,110.0,5.0,0
7.0,-240.0,6.0,752.0,111.0,5.0,0
13.0,-235.0,7.0,742.0,113.0,6.0,0
17.0,-237.0,10.0,727.0,114.0,8.0,0
19.0,-240.0,12.0,711.0,115.0,8.0,0
19.0,-252.0,16.0,687.0,117.0,9.0,0
23.0,-233.0,11.0,665.0,120.0,9.0,0
21.0,-242.0,10.0,641.0,122.0,8.0,0
23.0,-245.0,16.0,622.0,126.0,7.0,0
30.0,-251.0,9.0,603.0,130.0,7.0,0
26.0,-256.0,28.0,581.0,135.0,6.0,0
30.0,-234.0,14.0,565.0,139.0,7.0,0
29.0,-258.0,19.0,553.0,143.0,8.0,0
42.0,-256.0,12.0,540.0,148.0,10.0,0
31.0,-257.0,28.0,530.0,156.0,9.0,0
34.0,-257.0,20.0,518.0,164.0,3.0,0
38.0,-246.0,15.0,507.0,172.0,1.0,0
35.0,-254.0,14.0,497.0,182.0,-3.0,0
35.0,-254.0,20.0,485.0,194.0,-9.0,0
37.0,-256.0,17.0,476.0,206.0,-4.0,0
40.0,-256.0,21.0,483.0,214.0,-4.0,0
37.0,-256.0,22.0,494.0,227.0,-10.0,0
42.0,-253.0,24.0,502.0,240.0,-13.0,0
33.0,-256.0,27.0,517.0,251.0,-15.0,0
35.0,-258.0,27.0,539.0,263.0,-17.0,0
33.0,-259.0,29.0,555.0,275.0,-21.0,0
35.0,-255.0,38.0,563.0,286.0,-24.0,0
36.0,-248.0,24.0,567.0,296.0,-30.0,0
36.0,-253.0,22.0,565.0,307.0,-36.0,0
33.0,-251.0,22.0,559.0,316.0,-39.0,0
28.0,-251.0,26.0,554.0,323.0,-39.0,0
30.0,-243.0,17.0,549.0,331.0,-42.0,0
33.0,-246.0,30.0,542.0,342.0,-47.0,0
35.0,-245.0,26.0,533.0,354.0,-50.0,0
30.0,-240.0,26.0,521.0,364.0,-54.0,0
32.0,-244.0,27.0,507.0,371.0,-55.0,0
30.0,-238.0,39.0,492.0,380.0,-60.0,0
33.0,-245.0,34.0,475.0,391.0,-61.0,0
30.0,-243.0,23.0,457.0,403.0,-60.0,0
33.0,-237.0,26.0,439.0,411.0,-61.0,0
34.0,-248.0,23.0,423.0,419.0,-53.0,0
35.0,-245.0,33.0,409.0,424.0,-51.0,0
27.0,-242.0,24.0,396.0,432.0,-55.0,0
28.0,-237.0,30.0,382.0,438.0,-50.0,0
30.0,-237.0,40.0,364.0,441.0,-47.0,0
28.0,-243.0,41.0,347.0,443.0,-47.0,0
21.0,-246.0,41.0,327.0,446.0,-47.0,0
24.0,-242.0,33.0,309.0,448.0,-45.0,0
23.0,-242.0,34.0,290.0,447.0,-44.0,0
26.0,-243.0,35.0,270.0,446.0,-42.0,0
22.0,-248.0,33.0,254.0,444.0,-40.0,0
18.0,-247.0,29.0,236.0,440.0,-41.0,0
26.0,-247.0,41.0,214.0,437.0,-40.0,0
28.0,-247.0,41.0,190.0,437.0,-40.0,0
24.0,-248.0,38.0,165.0,435.0,-37.0,0
24.0,-249.0,42.0,144.0,433.0,-35.0,0
19.0,-249.0,41.0,127.0,432.0,-34.0,0
24.0,-253.0,38.0,113.0,429.0,-32.0,0
20.0,-256.0,36.0,103.0,425.0,-32.0,0
18.0,-257.0,36.0,96.0,422.0,-32.0,0
17.0,-257.0,39.0,95.0,422.0,-34.0,0
33.0,-250.0,37.0,94.0,421.0,-34.0,0
16.0,-269.0,44.0,94.0,419.0,-34.0,0
21.0,-258.0,37.0,99.0,419.0,-37.0,0
19.0,-257.0,39.0,107.0,419.0,-40.0,0
18.0,-260.0,35.0,115.0,423.0,-46.0,0
24.0,-256.0,20.0,118.0,427.0,-51.0,0
20.0,-257.0,39.0,120.0,426.0,-55.0,0
19.0,-258.0,37.0,115.0,425.0,-57.0,0
19.0,-257.0,41.0,107.0,420.0,-58.0,0
20.0,-260.0,39.0,102.0,415.0,-60.0,0
12.0,-259.0,46.0,100.0,411.0,-65.0,0
20.0,-259.0,39.0,99.0,410.0,-66.0,0
22.0,-259.0,39.0,96.0,407.0,-70.0,0
23.0,-257.0,38.0,94.0,401.0,-74.0,0
20.0,-257.0,42.0,91.0,396.0,-76.0,0
22.0,-264.0,37.0,88.0,392.0,-78.0,0
21.0,-258.0,39.0,89.0,387.0,-80.0,0
21.0,-258.0,44.0,89.0,382.0,-81.0,0
22.0,-259.0,43.0,88.0,379.0,-80.0,0
21.0,-256.0,38.0,88.0,376.0,-82.0,0
10.0,-259.0,40.0,86.0,372.0,-81.0,0
22.0,-257.0,45.0,84.0,369.0,-81.0,0
19.0,-254.0,42.0,81.0,365.0,-80.0,0
20.0,-255.0,47.0,80.0,361.0,-80.0,0
19.0,-259.0,47.0,82.0,356.0,-79.0,0
18.0,-256.0,45.0,89.0,348.0,-80.0,0
23.0,-255.0,48.0,89.0,343.0,-78.0,0
23.0,-257.0,46.0,86.0,340.0,-75.0,0
20.0,-258.0,48.0,82.0,335.0,-73.0,0
19.0,-256.0,45.0,85.0,330.0,-72.0,0
24.0,-258.0,50.0,80.0,326.0,-68.0,0
21.0,-254.0,47.0,75.0,321.0,-69.0,0
20.0,-256.0,46.0,73.0,318.0,-68.0,0
18.0,-257.0,48.0,70.0,314.0,-67.0,0
20.0,-256.0,46.0,67.0,308.0,-64.0,0
20.0,-258.0,44.0,62.0,305.0,-60.0,0
18.0,-255.0,42.0,59.0,300.0,-59.0,0
15.0,-253.0,46.0,56.0,294.0,-54.0,0
15.0,-256.0,46.0,47.0,289.0,-49.0,0
17.0,-257.0,48.0,34.0,283.0,-46.0,0
15.0,-256.0,48.0,25.0,276.0,-45.0,0
16.0,-255.0,47.0,19.0,268.0,-41.0,0
16.0,-256.0,53.0,11.0,261.0,-36.0,0
15.0,-254.0,49.0,9.0,251.0,-32.0,0
20.0,-257.0,50.0,2.0,242.0,-28.0,0
14.0,-257.0,54.0,-2.0,230.0,-27.0,0
17.0,-260.0,50.0,2.0,220.0,-24.0,0
16.0,-259.0,51.0,6.0,210.0,-22.0,0
19.0,-257.0,55.0,11.0,203.0,-17.0,0
18.0,-257.0,49.0,18.0,194.0,-14.0,0
27.0,-238.0,33.0,-7.0,201.0,21.0,0
20.0,-237.0,46.0,-93.0,206.0,33.0,0
14.0,-253.0,49.0,-165.0,196.0,29.0,0
21.0,-259.0,53.0,-197.0,178.0,28.0,0
22.0,-263.0,57.0,-193.0,160.0,28.0,0
21.0,-268.0,52.0,-161.0,147.0,27.0,0
22.0,-268.0,55.0,-112.0,140.0,26.0,0
24.0,-266.0,53.0,-61.0,138.0,28.0,0
22.0,-262.0,51.0,-15.0,137.0,29.0,0
21.0,-262.0,50.0,16.0,137.0,32.0,0
20.0,-259.0,50.0,34.0,136.0,31.0,0
26.0,-261.0,48.0,44.0,130.0,31.0,0
24.0,-260.0,52.0,47.0,126.0,31.0,0
25.0,-262.0,47.0,49.0,123.0,32.0,0
27.0,-263.0,52.0,52.0,122.0,33.0,0
27.0,-261.0,50.0,60.0,121.0,34.0,0
26.0,-262.0,47.0,64.0,117.0,34.0,0
24.0,-261.0,50.0,70.0,118.0,34.0,0
24.0,-261.0,50.0,73.0,118.0,34.0,0
25.0,-262.0,48.0,76.0,120.0,36.0,0
24.0,-261.0,53.0,76.0,122.0,35.0,0
25.0,-259.0,54.0,76.0,123.0,36.0,0
23.0,-259.0,51.0,75.0,126.0,38.0,0
29.0,-266.0,52.0,75.0,128.0,37.0,0
25.0,-256.0,53.0,73.0,126.0,37.0,0
28.0,-258.0,53.0,72.0,125.0,38.0,0
25.0,-258.0,50.0,69.0,124.0,37.0,0
25.0,-256.0,51.0,65.0,123.0,38.0,0
23.0,-258.0,48.0,63.0,121.0,38.0,0
24.0,-258.0,55.0,62.0,118.0,40.0,0
23.0,-257.0,55.0,63.0,115.0,38.0,0
21.0,-256.0,49.0,64.0,111.0,37.0,0
22.0,-254.0,54.0,64.0,107.0,37.0,0
24.0,-257.0,55.0,62.0,104.0,35.0,0
22.0,-257.0,53.0,59.0,99.0,34.0,0
22.0,-256.0,53.0,50.0,95.0,35.0,0
20.0,-256.0,53.0,42.0,91.0,34.0,0
17.0,-257.0,56.0,34.0,85.0,31.0,0
23.0,-256.0,53.0,27.0,81.0,29.0,0
22.0,-256.0,48.0,21.0,74.0,26.0,0
18.0,-259.0,52.0,16.0,70.0,24.0,0
21.0,-256.0,49.0,10.0,65.0,22.0,0
19.0,-255.0,51.0,4.0,61.0,20.0,0
20.0,-255.0,54.0,0.0,56.0,19.0,0
27.0,-259.0,54.0,-5.0,51.0,18.0,0
20.0,-257.0,52.0,-9.0,47.0,19.0,0
20.0,-257.0,53.0,-11.0,44.0,17.0,0
23.0,-259.0,56.0,-13.0,41.0,16.0,0
24.0,-259.0,53.0,-18.0,42.0,16.0,0
23.0,-258.0,56.0,-21.0,41.0,15.0,0
22.0,-259.0,52.0,-23.0,42.0,14.0,0
22.0,-259.0,51.0,-29.0,42.0,15.0,0
21.0,-259.0,55.0,-36.0,42.0,12.0,0
22.0,-261.0,50.0,-42.0,42.0,11.0,0
22.0,-260.0,53.0,-50.0,41.0,13.0,0
25.0,-260.0,54.0,-57.0,41.0,13.0,0
29.0,-264.0,55.0,-62.0,38.0,11.0,0
25.0,-258.0,51.0,-66.0,36.0,11.0,0
27.0,-262.0,53.0,-66.0,35.0,8.0,0
26.0,-263.0,55.0,-68.0,36.0,8.0,0
27.0,-262.0,53.0,-71.0,35.0,7.0,0
26.0,-261.0,50.0,-71.0,35.0,6.0,0
27.0,-261.0,50.0,-71.0,36.0,4.0,0
26.0,-262.0,52.0,-72.0,37.0,2.0,0
26.0,-261.0,54.0,-71.0,41.0,-1.0,0
27.0,-258.0,51.0,-70.0,44.0,-3.0,0
31.0,-263.0,55.0,-72.0,45.0,-4.0,0
27.0,-259.0,51.0,-72.0,46.0,-6.0,0
27.0,-257.0,52.0,-74.0,51.0,-7.0,0
27.0,-257.0,51.0,-76.0,53.0,-7.0,0
27.0,-257.0,52.0,-78.0,53.0,-8.0,0
27.0,-256.0,52.0,-78.0,55.0,-11.0,0
27.0,-256.0,51.0,-80.0,56.0,-11.0,0
25.0,-257.0,53.0,-82.0,56.0,-12.0,0
25.0,-258.0,53.0,-86.0,58.0,-14.0,0
29.0,-259.0,50.0,-92.0,60.0,-18.0,0
27.0,-256.0,56.0,-97.0,62.0,-22.0,0
26.0,-258.0,52.0,-96.0,63.0,-25.0,0
23.0,-258.0,48.0,-96.0,65.0,-27.0,0
26.0,-256.0,52.0,-97.0,67.0,-30.0,0
26.0,-257.0,51.0,-98.0,68.0,-33.0,0
26.0,-257.0,55.0,-103.0,67.0,-34.0,0
25.0,-256.0,53.0,-112.0,67.0,-36.0,0
24.0,-259.0,49.0,-126.0,71.0,-39.0,0
31.0,-258.0,47.0,-142.0,75.0,-42.0,0
27.0,-257.0,50.0,-158.0,82.0,-43.0,0
26.0,-258.0,51.0,-174.0,87.0,-41.0,0
21.0,-258.0,40.0,-188.0,92.0,-39.0,0
23.0,-258.0,47.0,-199.0,95.0,-40.0,0
24.0,-257.0,46.0,-208.0,94.0,-37.0,0
25.0,-257.0,46.0,-211.0,90.0,-35.0,0
23.0,-257.0,47.0,-211.0,82.0,-32.0,0
23.0,-258.0,48.0,-210.0,78.0,-30.0,0
25.0,-255.0,48.0,-209.0,76.0,-30.0,0
23.0,-256.0,46.0,-206.0,71.0,-29.0,0
24.0,-255.0,49.0,-202.0,69.0,-28.0,0
27.0,-254.0,46.0,-198.0,67.0,-28.0,0
26.0,-254.0,48.0,-198.0,65.0,-26.0,0
28.0,-253.0,48.0,-197.0,62.0,-26.0,0
28.0,-256.0,46.0,-196.0,59.0,-27.0,0
29.0,-255.0,46.0,-197.0,56.0,-26.0,0
31.0,-256.0,48.0,-200.0,55.0,-25.0,0
28.0,-256.0,48.0,-202.0,56.0,-24.0,0
26.0,-254.0,46.0,-200.0,56.0,-22.0,0
27.0,-255.0,45.0,-199.0,57.0,-22.0,0
27.0,-257.0,43.0,-198.0,59.0,-23.0,0
27.0,-258.0,45.0,-196.0,64.0,-24.0,0
28.0,-259.0,44.0,-194.0,68.0,-25.0,0
28.0,-261.0,45.0,-191.0,72.0,-25.0,0
25.0,-261.0,43.0,-184.0,75.0,-27.0,0
26.0,-262.0,42.0,-177.0,78.0,-28.0,0
25.0,-262.0,40.0,-170.0,78.0,-27.0,0
25.0,-266.0,45.0,-163.0,80.0,-30.0,0
25.0,-266.0,43.0,-156.0,77.0,-30.0,0
26.0,-269.0,43.0,-149.0,76.0,-30.0,0
25.0,-267.0,40.0,-141.0,72.0,-30.0,0
22.0,-269.0,44.0,-131.0,69.0,-32.0,0
23.0,-269.0,41.0,-119.0,67.0,-31.0,0
22.0,-269.0,44.0,-108.0,63.0,-33.0,0
21.0,-273.0,43.0,-94.0,60.0,-33.0,0
21.0,-272.0,43.0,-80.0,57.0,-33.0,0
22.0,-274.0,43.0,-66.0,53.0,-33.0,0
21.0,-271.0,46.0,-52.0,51.0,-31.0,0
21.0,-272.0,42.0,-40.0,47.0,-31.0,0
21.0,-270.0,43.0,-27.0,45.0,-28.0,0
21.0,-271.0,46.0,-13.0,44.0,-28.0,0
19.0,-268.0,47.0,-4.0,42.0,-25.0,0
21.0,-266.0,47.0,3.0,41.0,-23.0,0
19.0,-262.0,46.0,10.0,40.0,-20.0,0
20.0,-265.0,48.0,16.0,39.0,-19.0,0
11.0,-258.0,50.0,22.0,39.0,-16.0,0
22.0,-263.0,46.0,29.0,37.0,-14.0,0
21.0,-262.0,49.0,35.0,35.0,-11.0,0
24.0,-263.0,47.0,40.0,36.0,-9.0,0
25.0,-264.0,48.0,46.0,35.0,-8.0,0
26.0,-262.0,47.0,51.0,35.0,-6.0,0
26.0,-259.0,52.0,57.0,36.0,-7.0,0
24.0,-260.0,52.0,60.0,37.0,-5.0,0
28.0,-261.0,54.0,63.0,37.0,-4.0,0
28.0,-260.0,53.0,64.0,36.0,-4.0,0
26.0,-260.0,51.0,64.0,36.0,-6.0,0
26.0,-261.0,50.0,64.0,37.0,-5.0,0
24.0,-258.0,53.0,62.0,35.0,-5.0,0
24.0,-260.0,52.0,61.0,34.0,-5.0,0
24.0,-259.0,52.0,59.0,35.0,-4.0,0
26.0,-261.0,54.0,58.0,37.0,-6.0,0
28.0,-259.0,56.0,57.0,39.0,-6.0,0
25.0,-259.0,55.0,55.0,41.0,-6.0,0
24.0,-256.0,54.0,53.0,41.0,-8.0,0
22.0,-258.0,55.0,50.0,43.0,-9.0,0
25.0,-258.0,56.0,48.0,43.0,-10.0,0
23.0,-257.0,55.0,43.0,45.0,-12.0,0
23.0,-257.0,55.0,40.0,46.0,-12.0,0
24.0,-257.0,51.0,36.0,46.0,-11.0,0
22.0,-257.0,54.0,34.0,46.0,-13.0,0
25.0,-258.0,50.0,31.0,48.0,-14.0,0
22.0,-256.0,54.0,27.0,47.0,-14.0,0
19.0,-258.0,51.0,25.0,46.0,-16.0,0
21.0,-259.0,51.0,22.0,47.0,-16.0,0
22.0,-259.0,52.0,19.0,46.0,-17.0,0
18.0,-257.0,54.0,17.0,44.0,-17.0,0
19.0,-257.0,55.0,14.0,43.0,-19.0,0
19.0,-256.0,53.0,13.0,43.0,-18.0,0
19.0,-261.0,55.0,12.0,42.0,-18.0,0
18.0,-257.0,54.0,11.0,39.0,-19.0,0
19.0,-257.0,54.0,9.0,37.0,-19.0,0
16.0,-256.0,51.0,7.0,34.0,-18.0,0
20.0,-259.0,55.0,7.0,31.0,-17.0,0
19.0,-259.0,54.0,7.0,28.0,-17.0,0
17.0,-259.0,51.0,5.0,23.0,-16.0,0
15.0,-257.0,55.0,7.0,17.0,-16.0,0
19.0,-259.0,51.0,4.0,13.0,-15.0,0
19.0,-263.0,52.0,3.0,9.0,-14.0,0
25.0,-267.0,56.0,2.0,4.0,-13.0,0
18.0,-258.0,52.0,2.0,-1.0,-11.0,0
21.0,-262.0,53.0,3.0,-3.0,-10.0,0
18.0,-260.0,53.0,3.0,-6.0,-9.0,0
19.0,-258.0,55.0,7.0,-8.0,-8.0,0
21.0,-261.0,53.0,11.0,-10.0,-9.0,0
21.0,-261.0,52.0,16.0,-10.0,-7.0,0
20.0,-259.0,55.0,20.0,-11.0,-7.0,0
20.0,-261.0,53.0,24.0,-12.0,-5.0,0
20.0,-263.0,54.0,26.0,-14.0,-6.0,0
23.0,-265.0,54.0,26.0,-16.0,-4.0,0
24.0,-261.0,54.0,27.0,-16.0,-4.0,0
20.0,-261.0,55.0,27.0,-18.0,-4.0,0
23.0,-262.0,53.0,27.0,-21.0,-3.0,0
23.0,-262.0,56.0,24.0,-22.0,-4.0,0
21.0,-261.0,54.0,24.0,-24.0,-2.0,0
21.0,-262.0,54.0,23.0,-27.0,-1.0,0
23.0,-263.0,52.0,24.0,-27.0,-1.0,0
23.0,-260.0,55.0,26.0,-26.0,0.0,0
22.0,-262.0,53.0,28.0,-27.0,1.0,0
23.0,-261.0,54.0,31.0,-28.0,1.0,0
24.0,-256.0,44.0,35.0,-28.0,2.0,0
24.0,-264.0,55.0,38.0,-26.0,2.0,0
25.0,-263.0,55.0,39.0,-27.0,2.0,0
22.0,-263.0,51.0,44.0,-26.0,4.0,0
22.0,-259.0,55.0,47.0,-26.0,2.0,0
21.0,-261.0,55.0,50.0,-25.0,4.0,0
25.0,-262.0,55.0,52.0,-26.0,2.0,0
22.0,-260.0,54.0,53.0,-26.0,2.0,0
24.0,-261.0,53.0,54.0,-25.0,2.0,0
22.0,-259.0,50.0,55.0,-26.0,1.0,0
22.0,-259.0,54.0,55.0,-25.0,2.0,0
23.0,-260.0,54.0,54.0,-23.0,1.0,0
25.0,-258.0,51.0,55.0,-23.0,1.0,0
25.0,-260.0,54.0,55.0,-24.0,2.0,0
24.0,-262.0,54.0,55.0,-21.0,3.0,0
22.0,-262.0,54.0,55.0,-21.0,4.0,0
22.0,-259.0,53.0,57.0,-21.0,4.0,0
22.0,-257.0,53.0,57.0,-21.0,4.0,0
26.0,-258.0,57.0,57.0,-19.0,5.0,0
24.0,-260.0,55.0,57.0,-19.0,6.0,0
23.0,-257.0,55.0,57.0,-18.0,6.0,0
27.0,-257.0,59.0,56.0,-18.0,6.0,0
24.0,-260.0,55.0,55.0,-17.0,6.0,0
25.0,-259.0,58.0,54.0,-18.0,7.0,0
23.0,-257.0,59.0,53.0,-17.0,7.0,0
26.0,-261.0,54.0,52.0,-15.0,5.0,0
23.0,-259.0,57.0,52.0,-14.0,6.0,0
23.0,-257.0,56.0,52.0,-12.0,7.0,0
23.0,-262.0,57.0,52.0,-10.0,7.0,0
25.0,-258.0,57.0,52.0,-9.0,7.0,0
23.0,-257.0,57.0,51.0,-9.0,6.0,0
23.0,-258.0,55.0,50.0,-7.0,6.0,0
23.0,-259.0,55.0,51.0,-7.0,6.0,0
22.0,-259.0,57.0,50.0,-5.0,5.0,0
27.0,-258.0,53.0,50.0,-6.0,6.0,0
23.0,-260.0,54.0,48.0,-5.0,6.0,0
24.0,-261.0,58.0,47.0,-3.0,5.0,0
25.0,-260.0,59.0,43.0,-2.0,5.0,0
24.0,-259.0,60.0,42.0,-2.0,6.0,0
26.0,-261.0,55.0,41.0,1.0,5.0,0
23.0,-259.0,56.0,41.0,0.0,6.0,0
28.0,-261.0,57.0,42.0,2.0,6.0,0
27.0,-258.0,57.0,43.0,3.0,7.0,0
23.0,-258.0,57.0,44.0,5.0,6.0,0
23.0,-258.0,57.0,44.0,6.0,6.0,0
27.0,-260.0,52.0,45.0,7.0,6.0,0
24.0,-260.0,58.0,43.0,9.0,6.0,0
23.0,-260.0,53.0,44.0,12.0,6.0,0
25.0,-261.0,54.0,44.0,13.0,6.0,0
27.0,-262.0,58.0,44.0,14.0,4.0,0
26.0,-261.0,57.0,44.0,13.0,6.0,0
25.0,-263.0,54.0,44.0,14.0,5.0,0
23.0,-260.0,58.0,44.0,14.0,7.0,0
26.0,-262.0,56.0,44.0,15.0,6.0,0
25.0,-258.0,54.0,43.0,15.0,6.0,0
26.0,-258.0,57.0,42.0,16.0,6.0,0
23.0,-260.0,53.0,40.0,17.0,7.0,0
24.0,-260.0,57.0,39.0,18.0,7.0,0
24.0,-258.0,57.0,38.0,18.0,8.0,0
24.0,-258.0,58.0,39.0,18.0,8.0,0
25.0,-258.0,57.0,37.0,19.0,9.0,0
26.0,-259.0,53.0,37.0,20.0,10.0,0
27.0,-260.0,55.0,36.0,23.0,10.0,0
24.0,-259.0,61.0,35.0,21.0,10.0,0
16.0,-255.0,44.0,33.0,23.0,11.0,0
26.0,-258.0,53.0,30.0,22.0,10.0,0
25.0,-256.0,57.0,26.0,24.0,11.0,0
26.0,-260.0,56.0,23.0,24.0,12.0,0
23.0,-257.0,56.0,20.0,25.0,10.0,0
25.0,-258.0,53.0,19.0,27.0,10.0,0
28.0,-259.0,58.0,17.0,28.0,10.0,0
25.0,-258.0,55.0,15.0,28.0,10.0,0
26.0,-258.0,54.0,15.0,30.0,11.0,0
29.0,-261.0,59.0,14.0,31.0,10.0,0
26.0,-260.0,59.0,12.0,32.0,11.0,0
27.0,-256.0,55.0,10.0,34.0,10.0,0
28.0,-258.0,55.0,8.0,35.0,11.0,0
26.0,-261.0,53.0,6.0,37.0,12.0,0
26.0,-258.0,58.0,3.0,39.0,11.0,0
27.0,-258.0,56.0,0.0,41.0,11.0,0
28.0,-259.0,57.0,-2.0,43.0,11.0,0
29.0,-259.0,51.0,-3.0,45.0,10.0,0
27.0,-257.0,56.0,-5.0,49.0,10.0,0
24.0,-258.0,55.0,-8.0,50.0,8.0,0
26.0,-258.0,54.0,-9.0,50.0,9.0,0
33.0,-261.0,53.0,-10.0,51.0,8.0,0
26.0,-260.0,55.0,-14.0,52.0,8.0,0
31.0,-259.0,55.0,-16.0,56.0,8.0,0
25.0,-257.0,56.0,-18.0,57.0,6.0,0
29.0,-257.0,55.0,-20.0,57.0,8.0,0
25.0,-258.0,56.0,-22.0,60.0,6.0,0
25.0,-256.0,56.0,-23.0,63.0,6.0,0
28.0,-260.0,53.0,-25.0,65.0,4.0,0
28.0,-258.0,55.0,-27.0,68.0,5.0,0
29.0,-261.0,53.0,-28.0,71.0,2.0,0
28.0,-257.0,54.0,-29.0,72.0,2.0,0
28.0,-259.0,58.0,-31.0,74.0,2.0,0
27.0,-257.0,58.0,-32.0,76.0,1.0,0
30.0,-260.0,53.0,-34.0,78.0,0.0,0
25.0,-258.0,52.0,-35.0,80.0,-1.0,0
24.0,-256.0,53.0,-39.0,81.0,-2.0,0
27.0,-257.0,55.0,-39.0,84.0,-1.0,0
27.0,-258.0,55.0,-40.0,86.0,-4.0,0
30.0,-261.0,51.0,-42.0,88.0,-5.0,0
30.0,-260.0,53.0,-44.0,89.0,-7.0,0
27.0,-259.0,53.0,-45.0,91.0,-7.0,0
26.0,-258.0,53.0,-44.0,92.0,-7.0,0
31.0,-261.0,49.0,-46.0,95.0,-7.0,0
27.0,-257.0,54.0,-47.0,96.0,-7.0,0
27.0,-259.0,53.0,-48.0,98.0,-7.0,0
30.0,-261.0,52.0,-46.0,99.0,-7.0,0
26.0,-259.0,54.0,-47.0,100.0,-9.0,0
31.0,-261.0,56.0,-47.0,101.0,-7.0,0
29.0,-259.0,51.0,-47.0,100.0,-7.0,0
28.0,-259.0,55.0,-48.0,100.0,-8.0,0
28.0,-260.0,51.0,-49.0,100.0,-8.0,0
27.0,-259.0,53.0,-50.0,101.0,-7.0,0
29.0,-260.0,47.0,-50.0,102.0,-7.0,0
29.0,-257.0,53.0,-49.0,104.0,-6.0,0
29.0,-259.0,54.0,-46.0,105.0,-5.0,0
30.0,-260.0,51.0,-42.0,107.0,-6.0,0
28.0,-257.0,54.0,-39.0,109.0,-6.0,0
26.0,-259.0,54.0,-36.0,110.0,-6.0,0
28.0,-260.0,51.0,-33.0,112.0,-8.0,0
26.0,-261.0,55.0,-30.0,115.0,-7.0,0
26.0,-260.0,51.0,-30.0,116.0,-8.0,0
24.0,-260.0,53.0,-30.0,119.0,-8.0,0
28.0,-262.0,55.0,-33.0,118.0,-9.0,0
30.0,-260.0,52.0,-33.0,119.0,-9.0,0
26.0,-261.0,53.0,-36.0,119.0,-11.0,0
25.0,-258.0,55.0,-37.0,118.0,-12.0,0
27.0,-261.0,55.0,-38.0,117.0,-12.0,0
26.0,-261.0,52.0,-39.0,117.0,-11.0,0
26.0,-259.0,56.0,-38.0,118.0,-11.0,0
27.0,-261.0,53.0,-37.0,118.0,-12.0,0
25.0,-264.0,53.0,-35.0,118.0,-12.0,0
24.0,-259.0,54.0,-33.0,118.0,-12.0,0
25.0,-260.0,57.0,-30.0,118.0,-12.0,0
28.0,-264.0,54.0,-27.0,118.0,-13.0,0
26.0,-264.0,53.0,-27.0,118.0,-13.0,0
23.0,-261.0,55.0,-24.0,116.0,-11.0,0
25.0,-261.0,54.0,-21.0,116.0,-12.0,0
27.0,-263.0,53.0,-19.0,117.0,-11.0,0
26.0,-262.0,54.0,-16.0,117.0,-12.0,0
26.0,-261.0,57.0,-15.0,117.0,-12.0,0
29.0,-259.0,54.0,-14.0,116.0,-11.0,0
23.0,-261.0,51.0,-12.0,115.0,-10.0,0
25.0,-261.0,53.0,-8.0,114.0,-10.0,0
25.0,-260.0,56.0,-5.0,113.0,-10.0,0
28.0,-262.0,49.0,-2.0,114.0,-10.0,0
26.0,-259.0,55.0,-1.0,113.0,-9.0,0
25.0,-261.0,53.0,1.0,112.0,-8.0,0
25.0,-260.0,55.0,3.0,112.0,-10.0,0
27.0,-261.0,54.0,7.0,112.0,-8.0,0
25.0,-262.0,55.0,7.0,110.0,-7.0,0
25.0,-260.0,56.0,9.0,110.0,-7.0,0
26.0,-256.0,55.0,8.0,111.0,-7.0,0
27.0,-260.0,55.0,8.0,109.0,-6.0,0
25.0,-260.0,57.0,9.0,108.0,-8.0,0
24.0,-260.0,54.0,8.0,107.0,-8.0,0
25.0,-258.0,57.0,8.0,107.0,-8.0,0
24.0,-258.0,58.0,7.0,106.0,-8.0,0
24.0,-259.0,59.0,9.0,106.0,-7.0,0
27.0,-259.0,59.0,6.0,105.0,-9.0,0
22.0,-258.0,55.0,5.0,106.0,-8.0,0
25.0,-261.0,58.0,6.0,105.0,-10.0,0
23.0,-259.0,55.0,4.0,103.0,-9.0,0
24.0,-260.0,56.0,3.0,102.0,-9.0,0
23.0,-259.0,54.0,2.0,101.0,-9.0,0
22.0,-257.0,57.0,-1.0,100.0,-9.0,0
23.0,-258.0,57.0,-2.0,99.0,-8.0,0
28.0,-258.0,58.0,-4.0,99.0,-7.0,0
23.0,-258.0,57.0,-5.0,98.0,-7.0,0
26.0,-260.0,56.0,-8.0,96.0,-7.0,0
26.0,-259.0,56.0,-9.0,95.0,-7.0,0
22.0,-259.0,53.0,-10.0,94.0,-6.0,0
25.0,-259.0,56.0,-11.0,94.0,-6.0,0
25.0,-259.0,59.0,-10.0,93.0,-5.0,0
21.0,-257.0,57.0,-8.0,93.0,-5.0,0
24.0,-259.0,54.0,-8.0,90.0,-5.0,0
25.0,-257.0,57.0,-7.0,91.0,-6.0,0
24.0,-259.0,57.0,-8.0,91.0,-5.0,0
26.0,-261.0,55.0,-6.0,93.0,-4.0,0
26.0,-261.0,58.0,-6.0,92.0,-3.0,0
25.0,-261.0,56.0,-5.0,91.0,-4.0,0
24.0,-261.0,55.0,-6.0,91.0,-3.0,0
23.0,-261.0,54.0,-6.0,91.0,-3.0,0
21.0,-260.0,58.0,-6.0,91.0,-2.0,0
25.0,-262.0,56.0,-5.0,91.0,-3.0,0
19.0,-260.0,55.0,-5.0,90.0,-2.0,0
25.0,-262.0,55.0,-4.0,91.0,-3.0,0
24.0,-257.0,57.0,-3.0,91.0,-3.0,0
28.0,-260.0,66.0,0.0,91.0,-4.0,0
24.0,-259.0,57.0,2.0,91.0,-2.0,0
21.0,-256.0,54.0,4.0,89.0,-1.0,0
23.0,-257.0,58.0,4.0,90.0,-3.0,0
21.0,-260.0,56.0,6.0,90.0,0.0,0
21.0,-258.0,59.0,6.0,89.0,0.0,0
23.0,-259.0,56.0,5.0,88.0,-1.0,0
21.0,-259.0,57.0,3.0,86.0,0.0,0
24.0,-260.0,56.0,2.0,84.0,0.0,0
22.0,-261.0,57.0,2.0,84.0,2.0,0
20.0,-257.0,58.0,4.0,84.0,1.0,0
22.0,-260.0,59.0,3.0,84.0,2.0,0
25.0,-259.0,59.0,5.0,83.0,3.0,0
24.0,-258.0,58.0,5.0,81.0,2.0,0
22.0,-259.0,57.0,6.0,80.0,2.0,0
23.0,-258.0,55.0,4.0,78.0,3.0,0
21.0,-258.0,60.0,4.0,77.0,3.0,0
21.0,-259.0,56.0,4.0,75.0,4.0,0
21.0,-257.0,59.0,2.0,74.0,4.0,0
23.0,-257.0,53.0,1.0,73.0,4.0,0
24.0,-259.0,58.0,1.0,73.0,4.0,0
22.0,-262.0,59.0,1.0,71.0,7.0,0
22.0,-261.0,57.0,1.0,71.0,7.0,0
23.0,-261.0,57.0,-1.0,71.0,7.0,0
25.0,-257.0,57.0,1.0,71.0,7.0,0
22.0,-261.0,56.0,1.0,71.0,8.0,0
23.0,-260.0,62.0,0.0,69.0,8.0,0
25.0,-261.0,57.0,1.0,69.0,8.0,0
21.0,-257.0,58.0,1.0,68.0,9.0,0
24.0,-259.0,58.0,0.0,67.0,11.0,0
21.0,-258.0,61.0,0.0,66.0,11.0,0
25.0,-262.0,57.0,0.0,63.0,12.0,0
23.0,-259.0,58.0,-1.0,62.0,12.0,0
22.0,-258.0,56.0,-3.0,60.0,12.0,0
22.0,-257.0,59.0,-4.0,59.0,13.0,0
24.0,-260.0,58.0,-4.0,57.0,13.0,0
21.0,-259.0,58.0,-6.0,56.0,15.0,0
24.0,-257.0,59.0,-6.0,53.0,16.0,0
20.0,-257.0,61.0,-8.0,52.0,18.0,0
20.0,-258.0,57.0,-6.0,50.0,18.0,0
25.0,-259.0,55.0,-6.0,50.0,19.0,0
21.0,-260.0,61.0,-6.0,49.0,20.0,0
20.0,-258.0,58.0,-7.0,48.0,19.0,0
26.0,-257.0,61.0,-9.0,49.0,18.0,0
22.0,-258.0,54.0,-9.0,46.0,19.0,0
21.0,-263.0,56.0,-8.0,47.0,18.0,0
22.0,-258.0,58.0,-10.0,46.0,17.0,0
22.0,-261.0,61.0,-11.0,46.0,16.0,0
21.0,-261.0,60.0,-10.0,46.0,18.0,0
22.0,-261.0,57.0,-12.0,46.0,19.0,0
23.0,-259.0,55.0,-12.0,46.0,17.0,0
22.0,-263.0,57.0,-12.0,45.0,17.0,0
21.0,-260.0,58.0,-13.0,44.0,17.0,0
20.0,-260.0,58.0,-12.0,43.0,18.0,0
22.0,-257.0,55.0,-13.0,43.0,18.0,0
22.0,-258.0,52.0,-13.0,40.0,17.0,0
24.0,-261.0,60.0,-13.0,37.0,18.0,0
20.0,-260.0,59.0,-13.0,35.0,19.0,0
22.0,-258.0,58.0,-14.0,31.0,21.0,0
20.0,-259.0,56.0,-12.0,26.0,21.0,0
23.0,-261.0,57.0,-12.0,24.0,22.0,0
23.0,-258.0,57.0,-15.0,22.0,23.0,0
19.0,-256.0,54.0,-18.0,22.0,23.0,0
19.0,-257.0,59.0,-20.0,21.0,24.0,0
13.0,-253.0,48.0,-22.0,20.0,24.0,0
24.0,-258.0,56.0,-20.0,19.0,26.0,0
22.0,-260.0,57.0,-20.0,19.0,26.0,0
24.0,-260.0,59.0,-19.0,20.0,27.0,0
19.0,-259.0,59.0,-17.0,21.0,26.0,0
21.0,-260.0,57.0,-14.0,22.0,26.0,0
22.0,-258.0,61.0,-13.0,24.0,25.0,0
23.0,-259.0,63.0,-11.0,24.0,24.0,0
23.0,-260.0,57.0,-11.0,22.0,24.0,0
23.0,-261.0,58.0,-12.0,23.0,23.0,0
20.0,-262.0,61.0,-15.0,23.0,23.0,0
20.0,-259.0,60.0,-16.0,22.0,23.0,0
24.0,-260.0,59.0,-18.0,22.0,21.0,0
21.0,-260.0,58.0,-23.0,22.0,22.0,0
23.0,-260.0,57.0,-25.0,21.0,22.0,0
22.0,-259.0,57.0,-27.0,21.0,21.0,0
24.0,-262.0,59.0,-30.0,19.0,21.0,0
24.0,-258.0,60.0,-31.0,20.0,21.0,0
22.0,-258.0,58.0,-32.0,20.0,20.0,0
23.0,-258.0,58.0,-33.0,18.0,19.0,0
21.0,-257.0,59.0,-32.0,19.0,20.0,0
25.0,-261.0,62.0,-31.0,21.0,20.0,0
23.0,-258.0,62.0,-31.0,20.0,19.0,0
20.0,-258.0,59.0,-31.0,20.0,20.0,0
22.0,-259.0,55.0,-30.0,19.0,17.0,0
22.0,-259.0,57.0,-28.0,21.0,17.0,0
21.0,-258.0,59.0,-29.0,21.0,18.0,0
23.0,-260.0,57.0,-27.0,22.0,17.0,0
26.0,-261.0,57.0,-26.0,22.0,17.0,0
23.0,-259.0,55.0,-25.0,22.0,16.0,0
25.0,-257.0,52.0,-24.0,23.0,16.0,0
22.0,-259.0,60.0,-23.0,22.0,17.0,0
24.0,-259.0,58.0,-24.0,23.0,15.0,0
26.0,-259.0,56.0,-23.0,25.0,15.0,0
23.0,-258.0,59.0,-23.0,26.0,15.0,0
22.0,-260.0,58.0,-23.0,27.0,15.0,0
25.0,-259.0,52.0,-21.0,27.0,17.0,0
25.0,-260.0,54.0,-20.0,28.0,16.0,0
22.0,-260.0,55.0,-19.0,29.0,16.0,0
23.0,-260.0,55.0,-18.0,30.0,16.0,0
24.0,-261.0,58.0,-19.0,31.0,15.0,0
21.0,-258.0,55.0,-17.0,32.0,14.0,0
23.0,-262.0,54.0,-17.0,34.0,15.0,0
30.0,-264.0,62.0,-15.0,35.0,15.0,0
21.0,-259.0,56.0,-15.0,37.0,15.0,0
23.0,-260.0,57.0,-12.0,39.0,13.0,0
23.0,-262.0,54.0,-12.0,39.0,13.0,0
22.0,-263.0,60.0,-11.0,40.0,14.0,0
25.0,-261.0,57.0,-9.0,40.0,13.0,0
23.0,-260.0,57.0,-10.0,39.0,11.0,0
25.0,-262.0,55.0,-12.0,40.0,12.0,0
24.0,-258.0,56.0,-12.0,40.0,12.0,0
23.0,-258.0,56.0,-13.0,41.0,12.0,0
23.0,-258.0,58.0,-14.0,40.0,12.0,0
21.0,-260.0,55.0,-16.0,41.0,11.0,0
25.0,-259.0,59.0,-16.0,40.0,11.0,0
22.0,-259.0,55.0,-15.0,40.0,12.0,0
19.0,-257.0,57.0,-15.0,40.0,12.0,0
23.0,-258.0,54.0,-15.0,39.0,12.0,0
22.0,-258.0,53.0,-14.0,39.0,12.0,0
23.0,-259.0,53.0,-13.0,41.0,13.0,0
23.0,-261.0,54.0,-13.0,41.0,13.0,0
19.0,-256.0,53.0,-14.0,41.0,12.0,0
22.0,-256.0,52.0,-15.0,41.0,12.0,0
22.0,-255.0,61.0,-16.0,41.0,11.0,0
20.0,-260.0,57.0,-18.0,40.0,10.0,0
22.0,-258.0,57.0,-19.0,41.0,11.0,0
21.0,-261.0,56.0,-22.0,42.0,11.0,0
23.0,-258.0,52.0,-24.0,42.0,12.0,0
22.0,-257.0,59.0,-26.0,43.0,11.0,0
21.0,-260.0,56.0,-28.0,43.0,10.0,0
21.0,-257.0,57.0,-29.0,43.0,10.0,0
22.0,-259.0,52.0,-30.0,44.0,9.0,0
23.0,-258.0,53.0,-30.0,43.0,10.0,0
21.0,-259.0,52.0,-33.0,43.0,9.0,0
25.0,-256.0,56.0,-33.0,44.0,9.0,0
23.0,-259.0,56.0,-35.0,44.0,9.0,0
26.0,-260.0,54.0,-37.0,45.0,9.0,0
20.0,-256.0,59.0,-38.0,45.0,9.0,0
21.0,-265.0,51.0,-39.0,45.0,8.0,0
19.0,-257.0,57.0,-40.0,46.0,7.0,0
23.0,-259.0,55.0,-41.0,46.0,8.0,0
21.0,-258.0,56.0,-42.0,48.0,9.0,0
23.0,-259.0,53.0,-42.0,48.0,7.0,0
22.0,-262.0,52.0,-42.0,47.0,7.0,0
15.0,-260.0,49.0,-43.0,48.0,8.0,0
21.0,-259.0,52.0,-43.0,48.0,8.0,0
23.0,-259.0,54.0,-42.0,48.0,7.0,0
23.0,-261.0,56.0,-43.0,48.0,5.0,0
23.0,-260.0,55.0,-43.0,49.0,6.0,0
23.0,-258.0,53.0,-42.0,49.0,7.0,0
20.0,-258.0,54.0,-42.0,50.0,5.0,0
26.0,-262.0,52.0,-40.0,49.0,5.0,0
23.0,-258.0,52.0,-40.0,50.0,4.0,0
21.0,-257.0,53.0,-41.0,50.0,5.0,0
25.0,-259.0,49.0,-40.0,52.0,4.0,0
24.0,-260.0,54.0,-40.0,53.0,3.0,0
22.0,-259.0,54.0,-41.0,56.0,2.0,0
22.0,-259.0,53.0,-42.0,57.0,2.0,0
23.0,-260.0,55.0,-43.0,58.0,0.0,0
21.0,-258.0,56.0,-42.0,59.0,1.0,0
21.0,-260.0,53.0,-42.0,62.0,-1.0,0
24.0,-260.0,54.0,-41.0,63.0,-1.0,0
23.0,-261.0,54.0,-40.0,63.0,-1.0,0
24.0,-263.0,53.0,-39.0,65.0,0.0,0
25.0,-261.0,51.0,-38.0,64.0,-1.0,0
24.0,-261.0,53.0,-37.0,65.0,-2.0,0
22.0,-263.0,57.0,-37.0,65.0,-2.0,0
23.0,-259.0,53.0,-36.0,64.0,-1.0,0
22.0,-259.0,54.0,-36.0,65.0,-1.0,0
25.0,-259.0,52.0,-36.0,65.0,-2.0,0
22.0,-259.0,50.0,-36.0,67.0,-3.0,0
21.0,-260.0,51.0,-37.0,67.0,-3.0,0
21.0,-260.0,52.0,-39.0,69.0,-2.0,0
18.0,-261.0,54.0,-40.0,69.0,-4.0,0
22.0,-259.0,53.0,-41.0,71.0,-4.0,0
20.0,-258.0,50.0,-41.0,70.0,-2.0,0
21.0,-259.0,53.0,-40.0,72.0,-3.0,0
23.0,-265.0,52.0,-42.0,72.0,-2.0,0
22.0,-262.0,56.0,-43.0,72.0,-4.0,0
24.0,-262.0,57.0,-42.0,73.0,-5.0,0
22.0,-259.0,53.0,-41.0,75.0,-4.0,0
19.0,-259.0,54.0,-41.0,74.0,-5.0,0
19.0,-260.0,50.0,-40.0,74.0,-6.0,0
23.0,-262.0,52.0,-41.0,76.0,-6.0,0
19.0,-259.0,49.0,-39.0,76.0,-6.0,0
20.0,-258.0,52.0,-37.0,76.0,-5.0,0
23.0,-258.0,53.0,-36.0,75.0,-5.0,0
20.0,-262.0,50.0,-36.0,74.0,-6.0,0
19.0,-260.0,54.0,-35.0,75.0,-5.0,0
20.0,-258.0,52.0,-35.0,74.0,-5.0,0
21.0,-261.0,52.0,-35.0,73.0,-4.0,0
23.0,-260.0,57.0,-36.0,70.0,-4.0,0
18.0,-259.0,52.0,-36.0,68.0,-4.0,0
19.0,-259.0,52.0,-40.0,66.0,-3.0,0
23.0,-260.0,52.0,-39.0,63.0,-4.0,0
20.0,-257.0,51.0,-41.0,61.0,-2.0,0
20.0,-258.0,49.0,-44.0,60.0,-1.0,0
19.0,-258.0,53.0,-46.0,59.0,0.0,0
22.0,-260.0,53.0,-46.0,59.0,0.0,0
23.0,-261.0,53.0,-46.0,58.0,0.0,0
20.0,-258.0,51.0,-46.0,58.0,0.0,0
20.0,-258.0,50.0,-44.0,59.0,1.0,0
18.0,-260.0,53.0,-43.0,57.0,0.0,0
19.0,-261.0,54.0,-40.0,58.0,0.0,0
21.0,-258.0,54.0,-40.0,60.0,-1.0,0
19.0,-260.0,49.0,-39.0,60.0,-2.0,0
20.0,-259.0,55.0,-40.0,61.0,-1.0,0
19.0,-257.0,55.0,-41.0,61.0,-3.0,0
19.0,-260.0,53.0,-41.0,61.0,-4.0,0
21.0,-261.0,53.0,-44.0,61.0,-4.0,0
17.0,-259.0,52.0,-43.0,60.0,-4.0,0
20.0,-262.0,54.0,-45.0,59.0,-5.0,0
21.0,-260.0,51.0,-46.0,60.0,-5.0,0
20.0,-261.0,52.0,-45.0,60.0,-4.0,0
22.0,-258.0,51.0,-46.0,58.0,-4.0,0
22.0,-260.0,50.0,-45.0,58.0,-3.0,0
23.0,-260.0,46.0,-44.0,57.0,-2.0,0
23.0,-260.0,50.0,-42.0,56.0,-3.0,0
21.0,-260.0,53.0,-43.0,56.0,-3.0,0
21.0,-261.0,47.0,-42.0,56.0,-2.0,0
23.0,-260.0,50.0,-42.0,56.0,-1.0,0
23.0,-262.0,51.0,-42.0,56.0,0.0,0
23.0,-261.0,52.0,-41.0,56.0,-1.0,0
23.0,-260.0,51.0,-40.0,57.0,-1.0,0
24.0,-260.0,48.0,-40.0,56.0,0.0,0
23.0,-259.0,50.0,-37.0,57.0,0.0,0
20.0,-258.0,48.0,-38.0,60.0,-1.0,0
22.0,-260.0,49.0,-36.0,60.0,-1.0,0
21.0,-259.0,50.0,-34.0,62.0,-2.0,0
22.0,-261.0,50.0,-33.0,63.0,-2.0,0
21.0,-257.0,50.0,-33.0,63.0,-2.0,0
19.0,-260.0,50.0,-32.0,64.0,-3.0,0
22.0,-261.0,51.0,-30.0,65.0,-4.0,0
20.0,-258.0,48.0,-31.0,66.0,-4.0,0
21.0,-261.0,48.0,-32.0,67.0,-6.0,0
22.0,-261.0,49.0,-34.0,68.0,-6.0,0
23.0,-258.0,50.0,-35.0,69.0,-6.0,0
21.0,-261.0,46.0,-35.0,70.0,-7.0,0
21.0,-259.0,52.0,-36.0,71.0,-7.0,0
19.0,-264.0,52.0,-35.0,72.0,-8.0,0
20.0,-261.0,48.0,-35.0,72.0,-8.0,0
22.0,-260.0,51.0,-34.0,74.0,-9.0,0
22.0,-264.0,51.0,-34.0,73.0,-9.0,0
22.0,-259.0,48.0,-34.0,73.0,-9.0,0
20.0,-261.0,55.0,-36.0,74.0,-8.0,0
18.0,-261.0,51.0,-36.0,74.0,-9.0,0
21.0,-261.0,49.0,-38.0,74.0,-8.0,0
23.0,-261.0,49.0,-38.0,73.0,-8.0,0
21.0,-262.0,48.0,-38.0,73.0,-9.0,0
19.0,-259.0,49.0,-39.0,74.0,-10.0,0
20.0,-260.0,52.0,-37.0,73.0,-9.0,0
27.0,-254.0,42.0,-37.0,72.0,-8.0,0
22.0,-261.0,51.0,-35.0,71.0,-8.0,0
20.0,-260.0,48.0,-35.0,71.0,-9.0,0
22.0,-261.0,51.0,-36.0,72.0,-8.0,0
