ax,ay,az,gx,gy,gz,label
10.0,-234.0,-79.0,59.0,26.0,-8.0,0
12.0,-232.0,-82.0,61.0,25.0,-6.0,0
13.0,-233.0,-83.0,59.0,23.0,-6.0,0
9.0,-235.0,-77.0,57.0,23.0,-6.0,0
10.0,-234.0,-89.0,55.0,22.0,-5.0,0
7.0,-232.0,-71.0,52.0,20.0,-5.0,0
8.0,-235.0,-77.0,49.0,21.0,-5.0,0
11.0,-233.0,-83.0,47.0,19.0,-6.0,0
9.0,-231.0,-84.0,48.0,20.0,-4.0,0
12.0,-235.0,-78.0,47.0,19.0,-5.0,0
12.0,-234.0,-82.0,47.0,17.0,-5.0,0
14.0,-234.0,-81.0,47.0,18.0,-6.0,0
11.0,-233.0,-81.0,47.0,17.0,-7.0,0
12.0,-236.0,-80.0,47.0,17.0,-5.0,0
10.0,-234.0,-81.0,46.0,18.0,-6.0,0
14.0,-234.0,-77.0,44.0,18.0,-7.0,0
10.0,-243.0,-91.0,44.0,19.0,-7.0,0
14.0,-235.0,-81.0,44.0,20.0,-7.0,0
12.0,-234.0,-81.0,43.0,20.0,-7.0,0
10.0,-234.0,-84.0,43.0,19.0,-8.0,0
11.0,-234.0,-83.0,43.0,18.0,-9.0,0
11.0,-235.0,-84.0,44.0,19.0,-8.0,0
11.0,-229.0,-80.0,44.0,18.0,-9.0,0
12.0,-234.0,-81.0,42.0,19.0,-8.0,0
12.0,-232.0,-84.0,43.0,19.0,-9.0,0
12.0,-232.0,-83.0,39.0,19.0,-11.0,0
6.0,-238.0,-84.0,37.0,19.0,-9.0,0
11.0,-232.0,-86.0,34.0,18.0,-10.0,0
8.0,-232.0,-80.0,33.0,16.0,-9.0,0
9.0,-234.0,-81.0,31.0,16.0,-9.0,0
10.0,-233.0,-78.0,30.0,16.0,-11.0,0
11.0,-233.0,-82.0,29.0,16.0,-11.0,0
11.0,-235.0,-81.0,28.0,15.0,-13.0,0
15.0,-232.0,-81.0,28.0,16.0,-13.0,0
11.0,-233.0,-82.0,26.0,16.0,-14.0,0
9.0,-234.0,-81.0,24.0,17.0,-14.0,0
10.0,-234.0,-79.0,25.0,17.0,-15.0,0
10.0,-238.0,-84.0,23.0,18.0,-14.0,0
11.0,-231.0,-82.0,23.0,20.0,-16.0,0
13.0,-233.0,-82.0,21.0,19.0,-16.0,0
13.0,-236.0,-82.0,20.0,19.0,-16.0,0
12.0,-233.0,-83.0,18.0,19.0,-16.0,0
13.0,-234.0,-80.0,20.0,19.0,-14.0,0
11.0,-234.0,-79.0,17.0,18.0,-17.0,0
10.0,-232.0,-81.0,16.0,16.0,-15.0,0
11.0,-232.0,-82.0,16.0,16.0,-16.0,0
13.0,-236.0,-85.0,13.0,14.0,-16.0,0
9.0,-234.0,-86.0,12.0,12.0,-14.0,0
14.0,-236.0,-82.0,12.0,10.0,-17.0,0
11.0,-235.0,-82.0,11.0,10.0,-18.0,0
12.0,-235.0,-83.0,11.0,9.0,-16.0,0
8.0,-232.0,-83.0,12.0,9.0,-16.0,0
13.0,-234.0,-85.0,14.0,8.0,-18.0,0
10.0,-234.0,-82.0,12.0,7.0,-16.0,0
9.0,-233.0,-84.0,14.0,7.0,-16.0,0
12.0,-235.0,-83.0,14.0,6.0,-17.0,0
7.0,-232.0,-86.0,14.0,6.0,-16.0,0
11.0,-234.0,-80.0,14.0,6.0,-16.0,0
7.0,-233.0,-88.0,13.0,5.0,-18.0,0
8.0,-233.0,-81.0,14.0,5.0,-17.0,0
10.0,-232.0,-83.0,14.0,4.0,-19.0,0
14.0,-235.0,-83.0,13.0,1.0,-20.0,0
12.0,-235.0,-83.0,13.0,2.0,-19.0,0
11.0,-235.0,-85.0,14.0,0.0,-22.0,0
9.0,-235.0,-85.0,13.0,-2.0,-21.0,0
12.0,-231.0,-83.0,12.0,-3.0,-20.0,0
5.0,-232.0,-82.0,8.0,-4.0,-20.0,0
9.0,-233.0,-88.0,5.0,-5.0,-20.0,0
9.0,-234.0,-88.0,1.0,-6.0,-21.0,0
11.0,-234.0,-81.0,0.0,-6.0,-21.0,0
11.0,-235.0,-85.0,-1.0,-7.0,-21.0,0
10.0,-230.0,-83.0,-3.0,-6.0,-22.0,0
13.0,-234.0,-81.0,-6.0,-6.0,-23.0,0
10.0,-232.0,-85.0,-9.0,-7.0,-22.0,0
9.0,-232.0,-81.0,-10.0,-7.0,-24.0,0
13.0,-233.0,-83.0,-13.0,-8.0,-24.0,0
10.0,-231.0,-86.0,-13.0,-10.0,-24.0,0
11.0,-233.0,-82.0,-16.0,-11.0,-26.0,0
11.0,-236.0,-89.0,-18.0,-11.0,-26.0,0
11.0,-234.0,-82.0,-18.0,-13.0,-27.0,0
8.0,-234.0,-86.0,-19.0,-15.0,-27.0,0
7.0,-228.0,-79.0,-17.0,-15.0,-28.0,0
10.0,-236.0,-85.0,-16.0,-18.0,-28.0,0
11.0,-232.0,-89.0,-18.0,-20.0,-26.0,0
9.0,-233.0,-85.0,-17.0,-20.0,-28.0,0
11.0,-232.0,-89.0,-16.0,-22.0,-28.0,0
10.0,-230.0,-87.0,-18.0,-23.0,-27.0,0
14.0,-228.0,-87.0,-22.0,-24.0,-27.0,0
11.0,-229.0,-93.0,-24.0,-25.0,-28.0,0
10.0,-228.0,-88.0,-29.0,-24.0,-27.0,0
12.0,-227.0,-91.0,-33.0,-23.0,-29.0,0
13.0,-227.0,-89.0,-40.0,-22.0,-28.0,0
9.0,-232.0,-88.0,-47.0,-22.0,-28.0,0
11.0,-226.0,-89.0,-53.0,-23.0,-30.0,0
7.0,-226.0,-88.0,-59.0,-23.0,-31.0,0
12.0,-227.0,-92.0,-66.0,-25.0,-32.0,0
8.0,-229.0,-89.0,-72.0,-26.0,-31.0,0
7.0,-227.0,-89.0,-76.0,-29.0,-31.0,0
6.0,-226.0,-96.0,-80.0,-31.0,-32.0,0
6.0,-228.0,-89.0,-85.0,-33.0,-33.0,0
10.0,-227.0,-91.0,-87.0,-34.0,-32.0,0
9.0,-224.0,-93.0,-90.0,-36.0,-32.0,0
8.0,-227.0,-95.0,-93.0,-37.0,-34.0,0
11.0,-223.0,-99.0,-97.0,-42.0,-34.0,0
9.0,-226.0,-92.0,-101.0,-43.0,-35.0,0
7.0,-227.0,-93.0,-107.0,-47.0,-36.0,0
8.0,-224.0,-95.0,-113.0,-52.0,-35.0,0
5.0,-228.0,-94.0,-120.0,-58.0,-38.0,0
8.0,-227.0,-95.0,-127.0,-61.0,-38.0,0
9.0,-226.0,-90.0,-133.0,-63.0,-38.0,0
12.0,-228.0,-96.0,-139.0,-65.0,-38.0,0
8.0,-225.0,-100.0,-147.0,-64.0,-38.0,0
8.0,-226.0,-99.0,-155.0,-64.0,-39.0,0
5.0,-216.0,-98.0,-163.0,-65.0,-41.0,0
9.0,-219.0,-96.0,-173.0,-64.0,-42.0,0
7.0,-218.0,-104.0,-184.0,-65.0,-42.0,0
6.0,-220.0,-103.0,-196.0,-66.0,-45.0,0
6.0,-221.0,-102.0,-208.0,-68.0,-46.0,0
8.0,-219.0,-103.0,-221.0,-71.0,-47.0,0
8.0,-219.0,-102.0,-234.0,-75.0,-48.0,0
9.0,-221.0,-102.0,-245.0,-78.0,-49.0,0
11.0,-223.0,-101.0,-256.0,-82.0,-51.0,0
9.0,-225.0,-102.0,-263.0,-82.0,-51.0,0
13.0,-220.0,-102.0,-269.0,-83.0,-52.0,0
12.0,-225.0,-109.0,-275.0,-84.0,-50.0,0
12.0,-218.0,-105.0,-283.0,-86.0,-50.0,0
13.0,-217.0,-105.0,-290.0,-87.0,-50.0,0
13.0,-220.0,-108.0,-300.0,-88.0,-48.0,0
10.0,-214.0,-108.0,-310.0,-87.0,-47.0,0
12.0,-218.0,-108.0,-324.0,-85.0,-46.0,0
12.0,-216.0,-108.0,-337.0,-84.0,-48.0,0
13.0,-213.0,-109.0,-352.0,-85.0,-47.0,0
11.0,-211.0,-109.0,-367.0,-84.0,-47.0,0
14.0,-213.0,-115.0,-384.0,-84.0,-46.0,0
14.0,-210.0,-116.0,-398.0,-84.0,-46.0,0
9.0,-209.0,-120.0,-410.0,-82.0,-48.0,0
11.0,-209.0,-116.0,-421.0,-81.0,-48.0,0
13.0,-213.0,-114.0,-434.0,-78.0,-50.0,0
13.0,-211.0,-116.0,-444.0,-76.0,-50.0,0
12.0,-210.0,-119.0,-455.0,-74.0,-52.0,0
13.0,-209.0,-116.0,-466.0,-72.0,-53.0,0
13.0,-210.0,-119.0,-479.0,-71.0,-53.0,0
10.0,-204.0,-125.0,-490.0,-67.0,-54.0,0
16.0,-208.0,-123.0,-503.0,-63.0,-54.0,0
16.0,-205.0,-126.0,-516.0,-59.0,-53.0,0
10.0,-204.0,-126.0,-529.0,-54.0,-53.0,0
16.0,-211.0,-125.0,-544.0,-51.0,-54.0,0
12.0,-204.0,-126.0,-559.0,-49.0,-54.0,0
11.0,-202.0,-125.0,-575.0,-46.0,-55.0,0
9.0,-200.0,-126.0,-589.0,-44.0,-56.0,0
12.0,-202.0,-127.0,-604.0,-46.0,-55.0,0
13.0,-198.0,-126.0,-621.0,-44.0,-55.0,0
13.0,-199.0,-129.0,-639.0,-42.0,-56.0,0
16.0,-200.0,-131.0,-658.0,-39.0,-56.0,0
14.0,-197.0,-129.0,-674.0,-35.0,-57.0,0
13.0,-196.0,-132.0,-690.0,-32.0,-58.0,0
10.0,-193.0,-133.0,-705.0,-30.0,-56.0,0
13.0,-199.0,-132.0,-717.0,-29.0,-57.0,0
14.0,-193.0,-134.0,-731.0,-29.0,-55.0,0
15.0,-193.0,-137.0,-742.0,-29.0,-54.0,0
10.0,-192.0,-139.0,-758.0,-28.0,-53.0,0
12.0,-188.0,-141.0,-775.0,-23.0,-52.0,0
14.0,-187.0,-141.0,-795.0,-18.0,-52.0,0
15.0,-190.0,-143.0,-817.0,-14.0,-52.0,0
15.0,-191.0,-141.0,-837.0,-8.0,-51.0,0
17.0,-187.0,-139.0,-854.0,-8.0,-54.0,0
16.0,-187.0,-139.0,-867.0,-7.0,-54.0,0
20.0,-188.0,-140.0,-880.0,-9.0,-56.0,0
16.0,-190.0,-145.0,-894.0,-12.0,-58.0,0
13.0,-189.0,-142.0,-907.0,-17.0,-59.0,0
13.0,-187.0,-145.0,-917.0,-23.0,-60.0,0
13.0,-185.0,-144.0,-928.0,-31.0,-61.0,0
15.0,-186.0,-147.0,-940.0,-35.0,-62.0,0
11.0,-183.0,-152.0,-948.0,-37.0,-59.0,0
11.0,-181.0,-149.0,-960.0,-41.0,-57.0,0
10.0,-179.0,-150.0,-972.0,-47.0,-58.0,0
9.0,-175.0,-149.0,-986.0,-52.0,-58.0,0
10.0,-178.0,-157.0,-1004.0,-56.0,-59.0,0
14.0,-176.0,-147.0,-1022.0,-59.0,-61.0,0
13.0,-180.0,-152.0,-1038.0,-57.0,-62.0,0
10.0,-176.0,-152.0,-1053.0,-55.0,-63.0,0
12.0,-179.0,-150.0,-1064.0,-54.0,-66.0,0
11.0,-180.0,-151.0,-1075.0,-52.0,-67.0,0
12.0,-180.0,-153.0,-1085.0,-52.0,-70.0,0
9.0,-181.0,-152.0,-1091.0,-56.0,-72.0,0
12.0,-185.0,-150.0,-1096.0,-62.0,-76.0,0
8.0,-182.0,-154.0,-1101.0,-70.0,-79.0,0
10.0,-183.0,-157.0,-1103.0,-77.0,-80.0,0
14.0,-184.0,-156.0,-1101.0,-83.0,-82.0,0
16.0,-186.0,-156.0,-1099.0,-87.0,-85.0,0
16.0,-188.0,-164.0,-1089.0,-91.0,-86.0,0
12.0,-186.0,-159.0,-1077.0,-97.0,-88.0,0
15.0,-186.0,-161.0,-1072.0,-103.0,-88.0,0
9.0,-185.0,-161.0,-1071.0,-112.0,-88.0,0
16.0,-186.0,-163.0,-1071.0,-119.0,-89.0,0
16.0,-187.0,-165.0,-1069.0,-124.0,-91.0,0
15.0,-191.0,-160.0,-1065.0,-124.0,-94.0,0
15.0,-184.0,-161.0,-1053.0,-124.0,-97.0,0
15.0,-188.0,-167.0,-1047.0,-125.0,-98.0,0
10.0,-182.0,-167.0,-1042.0,-126.0,-100.0,0
8.0,-183.0,-170.0,-1039.0,-129.0,-100.0,0
11.0,-183.0,-167.0,-1034.0,-133.0,-98.0,0
16.0,-187.0,-167.0,-1028.0,-136.0,-98.0,0
15.0,-187.0,-165.0,-1021.0,-140.0,-102.0,0
15.0,-183.0,-172.0,-1011.0,-143.0,-108.0,0
13.0,-187.0,-171.0,-1007.0,-148.0,-117.0,0
12.0,-188.0,-173.0,-1001.0,-154.0,-124.0,0
14.0,-187.0,-178.0,-993.0,-164.0,-130.0,0
13.0,-184.0,-178.0,-982.0,-174.0,-135.0,0
9.0,-183.0,-179.0,-965.0,-179.0,-139.0,0
14.0,-186.0,-185.0,-953.0,-180.0,-141.0,0
10.0,-180.0,-187.0,-945.0,-178.0,-143.0,0
11.0,-182.0,-187.0,-938.0,-177.0,-142.0,0
10.0,-178.0,-185.0,-931.0,-177.0,-140.0,0
8.0,-179.0,-184.0,-926.0,-177.0,-139.0,0
7.0,-178.0,-183.0,-912.0,-183.0,-134.0,0
11.0,-181.0,-181.0,-891.0,-191.0,-129.0,0
6.0,-177.0,-182.0,-870.0,-200.0,-130.0,0
7.0,-176.0,-182.0,-850.0,-211.0,-130.0,0
7.0,-176.0,-185.0,-835.0,-221.0,-129.0,0
9.0,-175.0,-184.0,-828.0,-227.0,-130.0,0
10.0,-172.0,-189.0,-823.0,-229.0,-133.0,0
13.0,-171.0,-191.0,-815.0,-225.0,-136.0,0
9.0,-167.0,-192.0,-805.0,-225.0,-138.0,0
12.0,-162.0,-192.0,-796.0,-222.0,-142.0,0
14.0,-160.0,-194.0,-788.0,-212.0,-144.0,0
11.0,-155.0,-196.0,-788.0,-203.0,-144.0,0
10.0,-154.0,-190.0,-786.0,-200.0,-145.0,0
11.0,-149.0,-188.0,-781.0,-201.0,-147.0,0
10.0,-152.0,-187.0,-773.0,-207.0,-154.0,0
9.0,-148.0,-190.0,-768.0,-217.0,-160.0,0
7.0,-151.0,-190.0,-769.0,-226.0,-161.0,0
6.0,-146.0,-195.0,-776.0,-231.0,-164.0,0
6.0,-142.0,-195.0,-788.0,-228.0,-167.0,0
11.0,-143.0,-196.0,-800.0,-217.0,-165.0,0
8.0,-139.0,-196.0,-808.0,-208.0,-165.0,0
11.0,-134.0,-196.0,-817.0,-203.0,-165.0,0
10.0,-135.0,-198.0,-822.0,-202.0,-162.0,0
10.0,-138.0,-196.0,-825.0,-206.0,-159.0,0
10.0,-135.0,-198.0,-827.0,-210.0,-158.0,0
9.0,-132.0,-206.0,-831.0,-212.0,-157.0,0
11.0,-134.0,-209.0,-840.0,-212.0,-157.0,0
9.0,-131.0,-211.0,-850.0,-215.0,-155.0,0
10.0,-135.0,-208.0,-866.0,-218.0,-153.0,0
8.0,-136.0,-217.0,-877.0,-219.0,-153.0,0
9.0,-133.0,-212.0,-881.0,-217.0,-159.0,0
10.0,-131.0,-214.0,-874.0,-212.0,-161.0,0
9.0,-131.0,-216.0,-868.0,-205.0,-162.0,0
9.0,-132.0,-217.0,-862.0,-199.0,-164.0,0
9.0,-131.0,-219.0,-861.0,-192.0,-162.0,0
10.0,-134.0,-221.0,-864.0,-186.0,-163.0,0
6.0,-132.0,-221.0,-869.0,-183.0,-162.0,0
7.0,-131.0,-222.0,-872.0,-179.0,-161.0,0
3.0,-129.0,-219.0,-872.0,-178.0,-157.0,0
4.0,-132.0,-225.0,-865.0,-175.0,-153.0,0
3.0,-131.0,-224.0,-854.0,-173.0,-153.0,0
5.0,-131.0,-224.0,-838.0,-173.0,-149.0,0
5.0,-129.0,-220.0,-819.0,-177.0,-146.0,0
4.0,-130.0,-217.0,-796.0,-180.0,-149.0,0
2.0,-126.0,-219.0,-766.0,-188.0,-145.0,0
3.0,-127.0,-221.0,-736.0,-196.0,-140.0,0
4.0,-122.0,-223.0,-714.0,-199.0,-140.0,0
1.0,-117.0,-220.0,-700.0,-197.0,-138.0,0
3.0,-119.0,-222.0,-691.0,-190.0,-135.0,0
5.0,-115.0,-222.0,-684.0,-183.0,-133.0,0
2.0,-120.0,-227.0,-680.0,-177.0,-132.0,0
4.0,-109.0,-228.0,-675.0,-168.0,-128.0,0
3.0,-109.0,-233.0,-671.0,-161.0,-123.0,0
3.0,-105.0,-230.0,-667.0,-157.0,-118.0,0
5.0,-108.0,-231.0,-661.0,-151.0,-112.0,0
6.0,-107.0,-236.0,-653.0,-139.0,-111.0,0
7.0,-104.0,-229.0,-646.0,-130.0,-109.0,0
5.0,-103.0,-232.0,-641.0,-123.0,-105.0,0
6.0,-105.0,-232.0,-637.0,-116.0,-105.0,0
7.0,-102.0,-232.0,-634.0,-109.0,-104.0,0
6.0,-103.0,-233.0,-632.0,-106.0,-99.0,0
13.0,-106.0,-232.0,-631.0,-105.0,-94.0,0
4.0,-100.0,-237.0,-633.0,-108.0,-94.0,0
12.0,-104.0,-234.0,-633.0,-110.0,-94.0,0
5.0,-96.0,-236.0,-636.0,-115.0,-95.0,0
6.0,-98.0,-233.0,-630.0,-122.0,-84.0,0
6.0,-97.0,-234.0,-622.0,-130.0,-81.0,0
4.0,-96.0,-234.0,-614.0,-136.0,-76.0,0
4.0,-98.0,-240.0,-605.0,-142.0,-75.0,0
6.0,-90.0,-230.0,-596.0,-143.0,-74.0,0
2.0,-95.0,-227.0,-593.0,-142.0,-72.0,0
2.0,-93.0,-233.0,-585.0,-143.0,-64.0,0
3.0,-91.0,-237.0,-575.0,-149.0,-58.0,0
0.0,-88.0,-227.0,-568.0,-157.0,-54.0,0
2.0,-88.0,-235.0,-563.0,-158.0,-57.0,0
2.0,-88.0,-232.0,-562.0,-157.0,-58.0,0
4.0,-88.0,-232.0,-562.0,-152.0,-61.0,0
1.0,-86.0,-238.0,-561.0,-147.0,-64.0,0
8.0,-84.0,-239.0,-556.0,-137.0,-67.0,0
1.0,-81.0,-236.0,-552.0,-127.0,-68.0,0
4.0,-81.0,-244.0,-547.0,-120.0,-68.0,0
1.0,-77.0,-244.0,-539.0,-121.0,-66.0,0
1.0,-78.0,-237.0,-529.0,-125.0,-63.0,0
1.0,-80.0,-241.0,-520.0,-132.0,-64.0,0
3.0,-83.0,-241.0,-508.0,-139.0,-67.0,0
0.0,-74.0,-238.0,-497.0,-141.0,-81.0,0
0.0,-74.0,-238.0,-479.0,-143.0,-77.0,0
1.0,-75.0,-241.0,-465.0,-137.0,-72.0,0
2.0,-74.0,-242.0,-460.0,-128.0,-69.0,0
3.0,-76.0,-240.0,-460.0,-121.0,-65.0,0
6.0,-75.0,-238.0,-462.0,-118.0,-62.0,0
5.0,-74.0,-244.0,-463.0,-115.0,-58.0,0
5.0,-72.0,-241.0,-465.0,-115.0,-53.0,0
4.0,-72.0,-244.0,-469.0,-115.0,-49.0,0
6.0,-71.0,-246.0,-471.0,-114.0,-47.0,0
5.0,-66.0,-248.0,-471.0,-114.0,-47.0,0
4.0,-64.0,-244.0,-473.0,-115.0,-45.0,0
10.0,-63.0,-246.0,-471.0,-119.0,-47.0,0
7.0,-62.0,-246.0,-467.0,-127.0,-49.0,0
3.0,-61.0,-244.0,-466.0,-134.0,-54.0,0
0.0,-62.0,-246.0,-463.0,-144.0,-57.0,0
2.0,-63.0,-246.0,-459.0,-149.0,-60.0,0
1.0,-60.0,-242.0,-452.0,-151.0,-65.0,0
0.0,-60.0,-245.0,-443.0,-149.0,-71.0,0
3.0,-57.0,-243.0,-437.0,-139.0,-74.0,0
0.0,-45.0,-238.0,-436.0,-130.0,-81.0,0
-6.0,-52.0,-241.0,-444.0,-122.0,-89.0,0
-6.0,-49.0,-237.0,-449.0,-126.0,-87.0,0
-8.0,-53.0,-238.0,-457.0,-129.0,-84.0,0
-10.0,-49.0,-238.0,-463.0,-137.0,-78.0,0
-12.0,-47.0,-241.0,-464.0,-148.0,-74.0,0
-10.0,-49.0,-232.0,-462.0,-160.0,-71.0,0
-11.0,-49.0,-230.0,-457.0,-166.0,-70.0,0
-15.0,-49.0,-233.0,-450.0,-168.0,-69.0,0
-14.0,-49.0,-229.0,-438.0,-171.0,-68.0,0
-14.0,-45.0,-229.0,-428.0,-175.0,-68.0,0
-14.0,-44.0,-231.0,-419.0,-179.0,-66.0,0
-13.0,-42.0,-230.0,-411.0,-190.0,-58.0,0
-8.0,-48.0,-233.0,-405.0,-204.0,-57.0,0
-10.0,-44.0,-235.0,-400.0,-213.0,-64.0,0
-9.0,-44.0,-239.0,-388.0,-226.0,-62.0,0
-12.0,-47.0,-244.0,-376.0,-236.0,-60.0,0
-6.0,-53.0,-248.0,-363.0,-239.0,-60.0,0
-15.0,-49.0,-244.0,-351.0,-236.0,-63.0,0
-12.0,-52.0,-250.0,-338.0,-232.0,-67.0,0
-13.0,-51.0,-248.0,-326.0,-227.0,-70.0,0
-14.0,-50.0,-249.0,-316.0,-219.0,-75.0,0
-15.0,-50.0,-252.0,-314.0,-212.0,-78.0,0
-19.0,-42.0,-248.0,-318.0,-205.0,-86.0,0
-17.0,-44.0,-250.0,-321.0,-204.0,-86.0,0
-15.0,-37.0,-248.0,-327.0,-205.0,-85.0,0
-17.0,-37.0,-250.0,-332.0,-208.0,-83.0,0
-15.0,-38.0,-248.0,-340.0,-214.0,-82.0,0
-13.0,-37.0,-250.0,-347.0,-221.0,-81.0,0
-17.0,-39.0,-253.0,-348.0,-229.0,-79.0,0
-18.0,-40.0,-253.0,-345.0,-233.0,-76.0,0
-17.0,-39.0,-255.0,-337.0,-231.0,-75.0,0
-16.0,-38.0,-256.0,-324.0,-230.0,-72.0,0
-16.0,-38.0,-250.0,-311.0,-226.0,-69.0,0
-14.0,-36.0,-248.0,-294.0,-224.0,-64.0,0
-16.0,-36.0,-247.0,-278.0,-223.0,-59.0,0
-15.0,-31.0,-246.0,-263.0,-227.0,-56.0,0
-18.0,-33.0,-246.0,-254.0,-226.0,-55.0,0
-20.0,-33.0,-247.0,-249.0,-227.0,-52.0,0
-15.0,-27.0,-236.0,-250.0,-227.0,-40.0,0
-20.0,-26.0,-246.0,-243.0,-224.0,-45.0,0
-17.0,-23.0,-244.0,-239.0,-227.0,-46.0,0
-20.0,-25.0,-242.0,-244.0,-230.0,-44.0,0
-24.0,-24.0,-240.0,-252.0,-236.0,-41.0,0
-20.0,-21.0,-234.0,-264.0,-241.0,-39.0,0
-20.0,-19.0,-244.0,-272.0,-245.0,-39.0,0
-22.0,-25.0,-244.0,-275.0,-249.0,-36.0,0
-21.0,-24.0,-247.0,-274.0,-249.0,-35.0,0
-24.0,-23.0,-244.0,-268.0,-250.0,-38.0,0
-26.0,-23.0,-242.0,-256.0,-247.0,-40.0,0
-24.0,-23.0,-242.0,-242.0,-243.0,-43.0,0
-25.0,-25.0,-238.0,-230.0,-238.0,-48.0,0
-23.0,-25.0,-244.0,-217.0,-235.0,-50.0,0
-29.0,-22.0,-240.0,-209.0,-231.0,-54.0,0
-27.0,-24.0,-245.0,-203.0,-228.0,-56.0,0
-29.0,-25.0,-247.0,-203.0,-222.0,-55.0,0
-26.0,-24.0,-249.0,-203.0,-218.0,-51.0,0
-30.0,-21.0,-248.0,-206.0,-212.0,-45.0,0
-30.0,-23.0,-252.0,-211.0,-211.0,-37.0,0
-29.0,-19.0,-251.0,-215.0,-210.0,-29.0,0
-30.0,-21.0,-249.0,-221.0,-206.0,-22.0,0
-29.0,-23.0,-249.0,-225.0,-205.0,-14.0,0
-32.0,-25.0,-255.0,-223.0,-205.0,-10.0,0
-33.0,-21.0,-254.0,-219.0,-206.0,-4.0,0
-29.0,-27.0,-248.0,-213.0,-208.0,-1.0,0
-29.0,-21.0,-254.0,-205.0,-213.0,2.0,0
-30.0,-24.0,-253.0,-194.0,-215.0,5.0,0
-34.0,-21.0,-252.0,-177.0,-218.0,6.0,0
-32.0,-22.0,-249.0,-164.0,-223.0,9.0,0
-29.0,-20.0,-253.0,-150.0,-229.0,11.0,0
-30.0,-18.0,-254.0,-138.0,-235.0,11.0,0
-34.0,-17.0,-249.0,-127.0,-240.0,11.0,0
-33.0,-17.0,-251.0,-117.0,-245.0,5.0,0
-34.0,-15.0,-250.0,-106.0,-246.0,1.0,0
-34.0,-18.0,-253.0,-96.0,-247.0,-2.0,0
-34.0,-23.0,-255.0,-86.0,-245.0,-7.0,0
-34.0,-19.0,-253.0,-77.0,-238.0,-9.0,0
-35.0,-18.0,-252.0,-71.0,-231.0,-13.0,0
-36.0,-16.0,-252.0,-69.0,-223.0,-11.0,0
-33.0,-21.0,-253.0,-74.0,-216.0,-7.0,0
-33.0,-18.0,-254.0,-86.0,-209.0,-5.0,0
-34.0,-17.0,-251.0,-105.0,-202.0,-3.0,0
-35.0,-20.0,-254.0,-130.0,-192.0,-3.0,0
-33.0,-19.0,-251.0,-152.0,-183.0,-4.0,0
-34.0,-16.0,-252.0,-172.0,-173.0,-8.0,0
-35.0,-15.0,-250.0,-186.0,-164.0,-10.0,0
-34.0,-20.0,-246.0,-194.0,-156.0,-12.0,0
-36.0,-19.0,-250.0,-197.0,-151.0,-13.0,0
-36.0,-19.0,-251.0,-197.0,-148.0,-12.0,0
-37.0,-15.0,-251.0,-198.0,-143.0,-12.0,0
-36.0,-13.0,-254.0,-201.0,-141.0,-11.0,0
-32.0,-15.0,-250.0,-205.0,-134.0,-14.0,0
-31.0,-14.0,-250.0,-211.0,-130.0,-16.0,0
-35.0,-15.0,-247.0,-219.0,-125.0,-17.0,0
-37.0,-7.0,-248.0,-229.0,-122.0,-16.0,0
-36.0,-12.0,-249.0,-240.0,-119.0,-19.0,0
-42.0,-14.0,-251.0,-252.0,-118.0,-22.0,0
-37.0,-11.0,-251.0,-263.0,-114.0,-24.0,0
-38.0,-11.0,-251.0,-272.0,-112.0,-27.0,0
-37.0,-14.0,-253.0,-279.0,-109.0,-27.0,0
-40.0,-9.0,-249.0,-284.0,-105.0,-25.0,0
-37.0,-12.0,-248.0,-291.0,-104.0,-19.0,0
-39.0,-12.0,-245.0,-295.0,-102.0,-15.0,0
-36.0,-5.0,-244.0,-301.0,-96.0,-13.0,0
-34.0,-8.0,-246.0,-307.0,-92.0,-10.0,0
-35.0,-9.0,-244.0,-311.0,-87.0,-10.0,0
-33.0,-9.0,-246.0,-316.0,-82.0,-11.0,0
-37.0,-5.0,-244.0,-315.0,-78.0,-13.0,0
-36.0,-4.0,-247.0,-310.0,-74.0,-17.0,0
-35.0,-6.0,-246.0,-304.0,-68.0,-22.0,0
-37.0,-4.0,-247.0,-298.0,-65.0,-25.0,0
-36.0,-2.0,-246.0,-292.0,-59.0,-29.0,0
-39.0,-2.0,-247.0,-283.0,-56.0,-32.0,0
-37.0,-4.0,-248.0,-271.0,-53.0,-35.0,0
-40.0,-2.0,-252.0,-266.0,-50.0,-34.0,0
-43.0,-3.0,-251.0,-262.0,-49.0,-35.0,0
-46.0,0.0,-250.0,-258.0,-48.0,-35.0,0
-44.0,3.0,-247.0,-255.0,-48.0,-33.0,0
-43.0,0.0,-244.0,-251.0,-49.0,-31.0,0
-45.0,0.0,-247.0,-247.0,-54.0,-28.0,0
-45.0,0.0,-246.0,-242.0,-54.0,-24.0,0
-48.0,0.0,-244.0,-240.0,-57.0,-23.0,0
-44.0,2.0,-244.0,-240.0,-58.0,-24.0,0
-42.0,1.0,-244.0,-239.0,-59.0,-24.0,0
-44.0,3.0,-244.0,-240.0,-60.0,-22.0,0
-40.0,3.0,-246.0,-242.0,-62.0,-17.0,0
-42.0,3.0,-246.0,-243.0,-61.0,-16.0,0
-40.0,2.0,-250.0,-241.0,-61.0,-15.0,0
-42.0,2.0,-249.0,-242.0,-61.0,-14.0,0
-38.0,2.0,-248.0,-242.0,-62.0,-14.0,0
-43.0,3.0,-248.0,-240.0,-61.0,-13.0,0
-42.0,3.0,-245.0,-235.0,-61.0,-11.0,0
-45.0,11.0,-248.0,-226.0,-62.0,-13.0,0
-42.0,8.0,-245.0,-217.0,-62.0,-16.0,0
-45.0,9.0,-247.0,-205.0,-62.0,-18.0,0
-49.0,10.0,-245.0,-193.0,-62.0,-17.0,0
-47.0,8.0,-250.0,-183.0,-61.0,-17.0,0
-47.0,7.0,-250.0,-174.0,-58.0,-14.0,0
-48.0,14.0,-252.0,-167.0,-57.0,-10.0,0
-52.0,8.0,-244.0,-163.0,-57.0,-5.0,0
-45.0,11.0,-248.0,-163.0,-55.0,3.0,0
-46.0,9.0,-243.0,-166.0,-53.0,8.0,0
-45.0,12.0,-246.0,-170.0,-51.0,11.0,0
-42.0,9.0,-249.0,-171.0,-51.0,13.0,0
-44.0,11.0,-246.0,-167.0,-48.0,15.0,0
-45.0,13.0,-242.0,-159.0,-48.0,16.0,0
-41.0,11.0,-249.0,-145.0,-44.0,18.0,0
-40.0,16.0,-249.0,-132.0,-43.0,17.0,0
-42.0,15.0,-249.0,-122.0,-42.0,18.0,0
-42.0,17.0,-249.0,-110.0,-41.0,19.0,0
-43.0,15.0,-251.0,-106.0,-40.0,21.0,0
-42.0,15.0,-248.0,-107.0,-37.0,22.0,0
-41.0,15.0,-247.0,-112.0,-32.0,25.0,0
-41.0,15.0,-250.0,-120.0,-29.0,28.0,0
-40.0,16.0,-250.0,-129.0,-26.0,34.0,0
-40.0,14.0,-248.0,-135.0,-23.0,36.0,0
-37.0,15.0,-244.0,-138.0,-21.0,39.0,0
-36.0,22.0,-243.0,-138.0,-20.0,41.0,0
-42.0,19.0,-245.0,-135.0,-19.0,41.0,0
-40.0,21.0,-247.0,-129.0,-19.0,41.0,0
-42.0,17.0,-236.0,-121.0,-19.0,38.0,0
-39.0,20.0,-240.0,-108.0,-21.0,33.0,0
-38.0,15.0,-237.0,-96.0,-22.0,29.0,0
-43.0,20.0,-243.0,-84.0,-21.0,25.0,0
-44.0,19.0,-243.0,-75.0,-19.0,21.0,0
-44.0,21.0,-243.0,-69.0,-14.0,21.0,0
-41.0,20.0,-247.0,-66.0,-10.0,21.0,0
-41.0,22.0,-246.0,-66.0,-4.0,22.0,0
-44.0,20.0,-252.0,-69.0,3.0,24.0,0
-42.0,23.0,-248.0,-74.0,9.0,28.0,0
-39.0,17.0,-248.0,-81.0,14.0,32.0,0
-40.0,24.0,-247.0,-86.0,18.0,35.0,0
-41.0,25.0,-250.0,-90.0,18.0,37.0,0
-39.0,23.0,-244.0,-92.0,20.0,41.0,0
-39.0,21.0,-245.0,-96.0,21.0,43.0,0
-37.0,23.0,-246.0,-95.0,21.0,47.0,0
-40.0,25.0,-244.0,-94.0,19.0,50.0,0
-38.0,22.0,-244.0,-93.0,18.0,51.0,0
-39.0,24.0,-247.0,-92.0,18.0,51.0,0
-38.0,23.0,-245.0,-89.0,17.0,50.0,0
-43.0,25.0,-253.0,-87.0,15.0,51.0,0
-46.0,23.0,-244.0,-83.0,16.0,52.0,0
-43.0,21.0,-245.0,-77.0,16.0,56.0,0
-42.0,22.0,-248.0,-70.0,16.0,62.0,0
-43.0,23.0,-244.0,-65.0,16.0,69.0,0
-44.0,26.0,-243.0,-58.0,17.0,77.0,0
-43.0,25.0,-246.0,-54.0,16.0,83.0,0
-42.0,25.0,-247.0,-49.0,13.0,95.0,0
-41.0,24.0,-246.0,-44.0,13.0,100.0,0
-43.0,24.0,-243.0,-38.0,13.0,105.0,0
-44.0,26.0,-246.0,-30.0,12.0,105.0,0
-42.0,31.0,-249.0,-19.0,13.0,103.0,0
-48.0,25.0,-246.0,-9.0,18.0,98.0,0
-44.0,29.0,-248.0,0.0,23.0,94.0,0
-48.0,30.0,-249.0,9.0,30.0,91.0,0
-45.0,32.0,-247.0,17.0,36.0,91.0,0
-46.0,30.0,-246.0,21.0,46.0,94.0,0
-47.0,29.0,-246.0,20.0,57.0,95.0,0
-46.0,31.0,-247.0,16.0,65.0,99.0,0
-43.0,30.0,-241.0,14.0,71.0,103.0,0
-40.0,32.0,-245.0,13.0,78.0,105.0,0
-44.0,32.0,-241.0,13.0,82.0,106.0,0
-42.0,35.0,-242.0,16.0,88.0,102.0,0
-46.0,31.0,-247.0,17.0,93.0,100.0,0
-42.0,30.0,-239.0,24.0,95.0,96.0,0
-40.0,33.0,-240.0,31.0,96.0,88.0,0
-44.0,35.0,-241.0,38.0,101.0,80.0,0
-44.0,34.0,-239.0,41.0,104.0,71.0,0
-43.0,35.0,-241.0,41.0,110.0,63.0,0
-41.0,35.0,-244.0,34.0,115.0,60.0,0
-45.0,33.0,-244.0,24.0,122.0,56.0,0
-46.0,31.0,-244.0,14.0,124.0,54.0,0
-47.0,34.0,-250.0,8.0,125.0,52.0,0
-40.0,32.0,-244.0,4.0,126.0,51.0,0
-41.0,30.0,-246.0,3.0,126.0,51.0,0
-47.0,33.0,-243.0,2.0,128.0,51.0,0
-46.0,34.0,-242.0,1.0,129.0,55.0,0
-45.0,36.0,-247.0,4.0,129.0,60.0,0
-44.0,30.0,-245.0,7.0,127.0,64.0,0
-48.0,27.0,-247.0,5.0,124.0,71.0,0
-47.0,29.0,-247.0,0.0,121.0,79.0,0
-51.0,27.0,-249.0,-7.0,119.0,89.0,0
-50.0,31.0,-246.0,-18.0,119.0,96.0,0
-49.0,31.0,-241.0,-32.0,123.0,100.0,0
-51.0,26.0,-240.0,-48.0,126.0,106.0,0
-50.0,23.0,-246.0,-61.0,131.0,111.0,0
-49.0,25.0,-242.0,-70.0,136.0,116.0,0
-49.0,21.0,-238.0,-73.0,141.0,123.0,0
-52.0,21.0,-238.0,-69.0,145.0,127.0,0
-45.0,16.0,-239.0,-61.0,150.0,133.0,0
-47.0,22.0,-233.0,-51.0,155.0,135.0,0
-42.0,20.0,-238.0,-41.0,159.0,137.0,0
-42.0,27.0,-237.0,-36.0,163.0,133.0,0
-40.0,28.0,-240.0,-38.0,167.0,131.0,0
-41.0,29.0,-244.0,-42.0,170.0,127.0,0
-34.0,29.0,-243.0,-46.0,174.0,122.0,0
-36.0,32.0,-245.0,-52.0,178.0,115.0,0
-34.0,33.0,-248.0,-56.0,181.0,110.0,0
-34.0,34.0,-245.0,-64.0,183.0,105.0,0
-34.0,31.0,-249.0,-72.0,182.0,103.0,0
-35.0,32.0,-244.0,-85.0,180.0,104.0,0
-35.0,34.0,-245.0,-95.0,179.0,103.0,0
-34.0,35.0,-244.0,-102.0,180.0,103.0,0
-37.0,29.0,-243.0,-111.0,181.0,105.0,0
-33.0,31.0,-242.0,-119.0,181.0,102.0,0
-34.0,28.0,-244.0,-129.0,182.0,100.0,0
-34.0,25.0,-232.0,-139.0,188.0,102.0,0
-40.0,28.0,-242.0,-149.0,196.0,104.0,0
-36.0,32.0,-237.0,-154.0,202.0,106.0,0
-38.0,32.0,-236.0,-157.0,212.0,108.0,0
-36.0,35.0,-241.0,-156.0,220.0,109.0,0
-41.0,31.0,-238.0,-150.0,231.0,111.0,0
-39.0,31.0,-239.0,-146.0,236.0,111.0,0
-36.0,31.0,-237.0,-142.0,241.0,113.0,0
-43.0,34.0,-240.0,-137.0,244.0,119.0,0
-36.0,31.0,-240.0,-134.0,246.0,128.0,0
-39.0,32.0,-243.0,-132.0,244.0,140.0,0
-32.0,38.0,-248.0,-134.0,242.0,153.0,0
-37.0,33.0,-243.0,-138.0,241.0,166.0,0
-32.0,33.0,-247.0,-144.0,241.0,182.0,0
-33.0,35.0,-247.0,-149.0,243.0,198.0,0
-33.0,32.0,-246.0,-156.0,244.0,212.0,0
-33.0,29.0,-247.0,-171.0,240.0,224.0,0
-29.0,31.0,-247.0,-189.0,234.0,234.0,0
-30.0,31.0,-242.0,-210.0,230.0,241.0,0
-29.0,31.0,-241.0,-234.0,225.0,245.0,0
-31.0,32.0,-250.0,-259.0,216.0,243.0,0
-29.0,36.0,-245.0,-286.0,206.0,243.0,0
-28.0,34.0,-243.0,-308.0,193.0,242.0,0
-27.0,35.0,-244.0,-317.0,186.0,240.0,0
-28.0,36.0,-246.0,-310.0,178.0,236.0,0
-23.0,32.0,-248.0,-299.0,175.0,231.0,0
-25.0,35.0,-249.0,-286.0,172.0,228.0,0
-28.0,34.0,-246.0,-274.0,168.0,229.0,0
-25.0,33.0,-244.0,-264.0,164.0,231.0,0
-26.0,39.0,-244.0,-254.0,163.0,237.0,0
-25.0,38.0,-244.0,-250.0,160.0,246.0,0
-26.0,40.0,-246.0,-249.0,156.0,249.0,0
-24.0,38.0,-241.0,-243.0,152.0,251.0,0
-31.0,42.0,-243.0,-226.0,150.0,254.0,0
-30.0,40.0,-241.0,-200.0,145.0,257.0,0
-34.0,40.0,-241.0,-165.0,140.0,257.0,0
-30.0,42.0,-246.0,-126.0,134.0,253.0,0
-31.0,42.0,-245.0,-91.0,132.0,253.0,0
-26.0,37.0,-250.0,-67.0,129.0,254.0,0
-22.0,35.0,-249.0,-57.0,126.0,255.0,0
-28.0,40.0,-248.0,-60.0,126.0,255.0,0
-24.0,39.0,-245.0,-74.0,123.0,255.0,0
-23.0,45.0,-250.0,-91.0,118.0,254.0,0
-25.0,39.0,-246.0,-103.0,112.0,251.0,0
-22.0,43.0,-250.0,-109.0,109.0,247.0,0
-21.0,42.0,-253.0,-113.0,105.0,241.0,0
-22.0,44.0,-250.0,-117.0,100.0,236.0,0
-23.0,45.0,-248.0,-122.0,95.0,232.0,0
-24.0,47.0,-253.0,-125.0,89.0,233.0,0
-20.0,51.0,-252.0,-130.0,82.0,232.0,0
-20.0,53.0,-249.0,-134.0,76.0,230.0,0
-21.0,55.0,-248.0,-137.0,72.0,231.0,0
-21.0,52.0,-250.0,-140.0,63.0,229.0,0
-20.0,48.0,-250.0,-142.0,57.0,225.0,0
-16.0,50.0,-249.0,-144.0,54.0,220.0,0
-14.0,49.0,-250.0,-147.0,52.0,214.0,0
-15.0,49.0,-245.0,-151.0,48.0,210.0,0
-13.0,53.0,-250.0,-154.0,43.0,210.0,0
-13.0,54.0,-248.0,-154.0,40.0,209.0,0
-11.0,59.0,-245.0,-152.0,39.0,205.0,0
-13.0,56.0,-250.0,-148.0,41.0,202.0,0
-12.0,53.0,-241.0,-148.0,42.0,196.0,0
-14.0,54.0,-245.0,-151.0,42.0,192.0,0
-12.0,54.0,-241.0,-152.0,44.0,183.0,0
-15.0,53.0,-246.0,-152.0,43.0,175.0,0
-15.0,48.0,-241.0,-150.0,41.0,168.0,0
-14.0,53.0,-244.0,-145.0,36.0,163.0,0
-16.0,54.0,-243.0,-136.0,30.0,158.0,0
-13.0,55.0,-244.0,-125.0,27.0,153.0,0
-15.0,53.0,-241.0,-116.0,23.0,149.0,0
-12.0,53.0,-243.0,-109.0,22.0,144.0,0
-15.0,55.0,-244.0,-101.0,22.0,141.0,0
-12.0,54.0,-241.0,-90.0,23.0,134.0,0
-10.0,54.0,-244.0,-77.0,25.0,130.0,0
-14.0,55.0,-242.0,-61.0,28.0,122.0,0
-5.0,53.0,-247.0,-50.0,30.0,113.0,0
-12.0,56.0,-246.0,-44.0,31.0,105.0,0
-15.0,59.0,-248.0,-42.0,30.0,96.0,0
-12.0,61.0,-245.0,-46.0,26.0,90.0,0
-12.0,58.0,-243.0,-47.0,23.0,84.0,0
-14.0,60.0,-242.0,-51.0,19.0,79.0,0
-11.0,62.0,-241.0,-55.0,16.0,73.0,0
-11.0,60.0,-243.0,-56.0,10.0,67.0,0
-13.0,61.0,-241.0,-56.0,4.0,62.0,0
-13.0,62.0,-245.0,-58.0,1.0,56.0,0
-6.0,58.0,-244.0,-62.0,-2.0,48.0,0
-6.0,57.0,-246.0,-63.0,-5.0,42.0,0
-11.0,57.0,-243.0,-64.0,-6.0,37.0,0
-7.0,60.0,-246.0,-64.0,-6.0,31.0,0
-6.0,59.0,-242.0,-62.0,-3.0,24.0,0
-7.0,62.0,-241.0,-62.0,0.0,17.0,0
-9.0,63.0,-241.0,-62.0,4.0,9.0,0
-7.0,61.0,-237.0,-60.0,8.0,0.0,0
-9.0,63.0,-244.0,-60.0,13.0,-8.0,0
-13.0,63.0,-237.0,-59.0,18.0,-17.0,0
-7.0,61.0,-238.0,-58.0,22.0,-26.0,0
-13.0,62.0,-243.0,-57.0,26.0,-32.0,0
-14.0,64.0,-242.0,-57.0,30.0,-37.0,0
-15.0,63.0,-239.0,-54.0,33.0,-43.0,0
-13.0,65.0,-241.0,-51.0,35.0,-47.0,0
-15.0,64.0,-241.0,-50.0,36.0,-51.0,0
-15.0,62.0,-236.0,-50.0,37.0,-56.0,0
-15.0,64.0,-243.0,-55.0,35.0,-58.0,0
-17.0,62.0,-239.0,-61.0,33.0,-60.0,0
-13.0,63.0,-240.0,-66.0,32.0,-62.0,0
-14.0,61.0,-238.0,-68.0,30.0,-65.0,0
-13.0,63.0,-241.0,-72.0,24.0,-69.0,0
-11.0,61.0,-241.0,-73.0,23.0,-72.0,0
-15.0,69.0,-243.0,-74.0,20.0,-75.0,0
-16.0,65.0,-238.0,-76.0,15.0,-78.0,0
-12.0,69.0,-238.0,-76.0,14.0,-79.0,0
-16.0,66.0,-240.0,-77.0,12.0,-80.0,0
-13.0,65.0,-241.0,-74.0,12.0,-80.0,0
-13.0,64.0,-241.0,-69.0,12.0,-80.0,0
-15.0,68.0,-242.0,-65.0,14.0,-82.0,0
-15.0,66.0,-244.0,-58.0,18.0,-83.0,0
-16.0,66.0,-241.0,-53.0,21.0,-83.0,0
-16.0,68.0,-248.0,-51.0,23.0,-84.0,0
-13.0,64.0,-240.0,-52.0,27.0,-86.0,0
-12.0,76.0,-243.0,-51.0,31.0,-86.0,0
-19.0,69.0,-239.0,-49.0,31.0,-88.0,0
-15.0,67.0,-243.0,-47.0,30.0,-88.0,0
-15.0,66.0,-242.0,-48.0,29.0,-90.0,0
-18.0,66.0,-240.0,-46.0,27.0,-91.0,0
-15.0,69.0,-243.0,-45.0,24.0,-91.0,0
-17.0,66.0,-240.0,-43.0,20.0,-89.0,0
-16.0,70.0,-245.0,-38.0,17.0,-88.0,0
-17.0,68.0,-242.0,-31.0,16.0,-86.0,0
-16.0,67.0,-242.0,-22.0,16.0,-84.0,0
-16.0,69.0,-240.0,-16.0,16.0,-83.0,0
-16.0,69.0,-244.0,-11.0,15.0,-80.0,0
-16.0,73.0,-241.0,-9.0,16.0,-77.0,0
-17.0,70.0,-240.0,-7.0,17.0,-76.0,0
-11.0,72.0,-241.0,-6.0,17.0,-75.0,0
-12.0,69.0,-239.0,-7.0,18.0,-73.0,0
-12.0,68.0,-238.0,-7.0,20.0,-71.0,0
-12.0,70.0,-239.0,-6.0,21.0,-70.0,0
-15.0,67.0,-240.0,-6.0,24.0,-69.0,0
-15.0,69.0,-237.0,-7.0,27.0,-68.0,0
-19.0,70.0,-243.0,-5.0,29.0,-69.0,0
-20.0,72.0,-240.0,-4.0,31.0,-71.0,0
-17.0,68.0,-239.0,-5.0,32.0,-71.0,0
-14.0,70.0,-241.0,-5.0,33.0,-69.0,0
-19.0,72.0,-238.0,-7.0,32.0,-68.0,0
-17.0,72.0,-241.0,-8.0,31.0,-67.0,0
-17.0,69.0,-241.0,-10.0,29.0,-68.0,0
-15.0,68.0,-239.0,-10.0,26.0,-66.0,0
-17.0,69.0,-234.0,-8.0,21.0,-64.0,0
-17.0,67.0,-235.0,-6.0,15.0,-64.0,0
-17.0,68.0,-237.0,-3.0,15.0,-62.0,0
-14.0,70.0,-239.0,2.0,12.0,-60.0,0
-20.0,77.0,-236.0,6.0,12.0,-58.0,0
-15.0,66.0,-240.0,8.0,11.0,-56.0,0
-15.0,68.0,-241.0,10.0,12.0,-56.0,0
-16.0,66.0,-239.0,11.0,13.0,-50.0,0
-17.0,69.0,-239.0,11.0,14.0,-47.0,0
-13.0,67.0,-241.0,12.0,14.0,-46.0,0
-13.0,67.0,-240.0,12.0,14.0,-45.0,0
-15.0,68.0,-239.0,10.0,15.0,-44.0,0
-12.0,68.0,-237.0,11.0,15.0,-43.0,0
-18.0,69.0,-243.0,13.0,17.0,-44.0,0
-12.0,71.0,-243.0,16.0,18.0,-45.0,0
-19.0,71.0,-248.0,17.0,18.0,-46.0,0
-14.0,69.0,-243.0,18.0,19.0,-48.0,0
-15.0,68.0,-243.0,17.0,20.0,-46.0,0
-18.0,70.0,-243.0,15.0,21.0,-45.0,0
-16.0,71.0,-237.0,13.0,22.0,-43.0,0
-16.0,70.0,-241.0,12.0,24.0,-41.0,0
-17.0,69.0,-239.0,10.0,25.0,-38.0,0
-17.0,70.0,-239.0,9.0,25.0,-39.0,0
-15.0,67.0,-240.0,9.0,26.0,-37.0,0
-18.0,66.0,-241.0,8.0,26.0,-37.0,0
-17.0,71.0,-238.0,9.0,25.0,-36.0,0
-13.0,64.0,-235.0,9.0,23.0,-35.0,0
-17.0,67.0,-240.0,11.0,22.0,-31.0,0
-15.0,69.0,-241.0,11.0,22.0,-28.0,0
-11.0,66.0,-241.0,9.0,22.0,-26.0,0
-15.0,69.0,-240.0,8.0,22.0,-26.0,0
-10.0,72.0,-237.0,5.0,24.0,-24.0,0
-11.0,72.0,-241.0,4.0,24.0,-21.0,0
-10.0,71.0,-243.0,1.0,25.0,-19.0,0
-13.0,74.0,-241.0,-1.0,25.0,-16.0,0
-13.0,71.0,-236.0,-3.0,25.0,-15.0,0
-12.0,70.0,-240.0,-4.0,26.0,-17.0,0
-13.0,68.0,-243.0,-6.0,27.0,-14.0,0
-13.0,69.0,-242.0,-6.0,27.0,-15.0,0
-13.0,68.0,-240.0,-8.0,25.0,-14.0,0
-12.0,72.0,-237.0,-10.0,24.0,-16.0,0
-14.0,70.0,-239.0,-10.0,23.0,-17.0,0
-12.0,72.0,-239.0,-10.0,22.0,-17.0,0
-11.0,71.0,-240.0,-8.0,20.0,-16.0,0
-13.0,70.0,-243.0,-5.0,19.0,-16.0,0
-12.0,70.0,-239.0,0.0,19.0,-18.0,0
-12.0,70.0,-240.0,5.0,19.0,-17.0,0
-9.0,68.0,-240.0,9.0,19.0,-15.0,0
-11.0,65.0,-235.0,12.0,17.0,-14.0,0
-15.0,68.0,-243.0,13.0,16.0,-12.0,0
-12.0,69.0,-244.0,14.0,15.0,-11.0,0
-11.0,73.0,-242.0,14.0,14.0,-11.0,0
-11.0,71.0,-241.0,12.0,14.0,-12.0,0
-14.0,72.0,-237.0,11.0,12.0,-12.0,0
-12.0,71.0,-238.0,10.0,12.0,-13.0,0
-13.0,72.0,-240.0,9.0,12.0,-15.0,0
-13.0,69.0,-242.0,7.0,12.0,-16.0,0
-15.0,76.0,-241.0,6.0,13.0,-18.0,0
-12.0,72.0,-239.0,5.0,14.0,-18.0,0
-15.0,76.0,-242.0,5.0,13.0,-18.0,0
-12.0,73.0,-239.0,4.0,12.0,-18.0,0
-13.0,75.0,-238.0,5.0,11.0,-17.0,0
-12.0,71.0,-242.0,4.0,9.0,-19.0,0
-10.0,72.0,-241.0,5.0,10.0,-19.0,0
-12.0,71.0,-240.0,6.0,8.0,-19.0,0
-9.0,72.0,-240.0,4.0,8.0,-19.0,0
-11.0,66.0,-239.0,4.0,9.0,-18.0,0
-12.0,70.0,-237.0,5.0,10.0,-19.0,0
-10.0,71.0,-241.0,5.0,12.0,-23.0,0
-8.0,72.0,-240.0,4.0,13.0,-24.0,0
-14.0,70.0,-239.0,1.0,15.0,-23.0,0
-12.0,72.0,-241.0,1.0,14.0,-24.0,0
-13.0,71.0,-240.0,-2.0,13.0,-21.0,0
-13.0,73.0,-237.0,-2.0,12.0,-22.0,0
-14.0,72.0,-238.0,-2.0,12.0,-22.0,0
-16.0,69.0,-242.0,-1.0,12.0,-21.0,0
-13.0,68.0,-238.0,0.0,12.0,-22.0,0
-14.0,70.0,-238.0,0.0,12.0,-21.0,0
-13.0,69.0,-237.0,2.0,10.0,-23.0,0
-16.0,75.0,-244.0,2.0,10.0,-23.0,0
-16.0,74.0,-235.0,3.0,6.0,-22.0,0
-14.0,71.0,-240.0,4.0,6.0,-22.0,0
-15.0,72.0,-241.0,4.0,5.0,-21.0,0
-14.0,74.0,-239.0,3.0,4.0,-20.0,0
-15.0,73.0,-240.0,2.0,2.0,-20.0,0
-15.0,72.0,-238.0,1.0,3.0,-20.0,0
-14.0,75.0,-239.0,0.0,1.0,-20.0,0
-16.0,76.0,-242.0,1.0,0.0,-22.0,0
-17.0,74.0,-244.0,0.0,0.0,-21.0,0
-14.0,71.0,-236.0,1.0,-3.0,-22.0,0
-9.0,74.0,-241.0,3.0,-3.0,-22.0,0
-9.0,69.0,-244.0,4.0,-4.0,-23.0,0
-15.0,75.0,-236.0,6.0,-5.0,-23.0,0
-17.0,74.0,-237.0,5.0,-5.0,-22.0,0
-14.0,73.0,-241.0,7.0,-5.0,-21.0,0
-16.0,77.0,-237.0,9.0,-3.0,-21.0,0
-15.0,72.0,-236.0,10.0,-1.0,-21.0,0
-15.0,74.0,-238.0,13.0,0.0,-20.0,0
-12.0,72.0,-242.0,15.0,2.0,-16.0,0
-13.0,72.0,-239.0,16.0,3.0,-16.0,0
-12.0,73.0,-243.0,17.0,4.0,-14.0,0
-15.0,74.0,-238.0,18.0,5.0,-13.0,0
-9.0,69.0,-242.0,19.0,6.0,-13.0,0
-17.0,74.0,-244.0,18.0,6.0,-10.0,0
-15.0,77.0,-238.0,16.0,7.0,-10.0,0
-17.0,74.0,-237.0,15.0,6.0,-9.0,0
-19.0,80.0,-239.0,15.0,5.0,-8.0,0
-17.0,77.0,-237.0,13.0,5.0,-8.0,0
-15.0,74.0,-238.0,12.0,4.0,-8.0,0
-18.0,77.0,-235.0,10.0,3.0,-7.0,0
-15.0,74.0,-234.0,11.0,2.0,-6.0,0
-20.0,74.0,-238.0,12.0,2.0,-5.0,0
-18.0,80.0,-239.0,11.0,0.0,-6.0,0
-14.0,77.0,-228.0,11.0,0.0,-4.0,0
-14.0,75.0,-235.0,13.0,1.0,-4.0,0
-14.0,77.0,-240.0,14.0,2.0,-3.0,0
-19.0,76.0,-237.0,15.0,3.0,-2.0,0
-12.0,73.0,-239.0,17.0,2.0,-2.0,0
-16.0,75.0,-242.0,19.0,3.0,-4.0,0
-15.0,76.0,-236.0,19.0,4.0,-3.0,0
-16.0,73.0,-240.0,21.0,4.0,-1.0,0
-20.0,76.0,-240.0,23.0,3.0,-2.0,0
-17.0,79.0,-237.0,23.0,3.0,0.0,0
-18.0,77.0,-237.0,23.0,3.0,-2.0,0
-15.0,74.0,-241.0,21.0,2.0,-1.0,0
-15.0,76.0,-237.0,21.0,2.0,1.0,0
-17.0,75.0,-236.0,19.0,2.0,3.0,0
-17.0,77.0,-238.0,18.0,0.0,4.0,0
-16.0,79.0,-239.0,16.0,-2.0,4.0,0
-18.0,77.0,-241.0,14.0,-3.0,6.0,0
-18.0,79.0,-235.0,14.0,-3.0,6.0,0
-20.0,79.0,-239.0,15.0,-4.0,6.0,0
-16.0,78.0,-241.0,16.0,-4.0,6.0,0
-16.0,78.0,-237.0,16.0,-4.0,8.0,0
-17.0,79.0,-240.0,17.0,-4.0,8.0,0
-10.0,80.0,-243.0,18.0,-3.0,8.0,0
-16.0,77.0,-235.0,19.0,-2.0,8.0,0
-17.0,76.0,-239.0,19.0,-1.0,9.0,0
-16.0,76.0,-236.0,22.0,0.0,7.0,0
-15.0,76.0,-236.0,24.0,0.0,8.0,0
-17.0,78.0,-236.0,28.0,-2.0,9.0,0
-15.0,73.0,-237.0,31.0,0.0,10.0,0
-15.0,72.0,-240.0,34.0,-1.0,10.0,0
-18.0,77.0,-236.0,35.0,-1.0,10.0,0
-14.0,77.0,-235.0,37.0,-1.0,10.0,0
-15.0,78.0,-236.0,38.0,0.0,9.0,0
-13.0,80.0,-241.0,41.0,0.0,8.0,0
-19.0,77.0,-236.0,41.0,1.0,6.0,0
-16.0,79.0,-233.0,41.0,2.0,6.0,0
-17.0,78.0,-238.0,41.0,2.0,7.0,0
-17.0,77.0,-238.0,41.0,1.0,7.0,0
-17.0,77.0,-234.0,42.0,0.0,9.0,0
-16.0,74.0,-239.0,43.0,1.0,9.0,0
-18.0,79.0,-242.0,45.0,1.0,11.0,0
-15.0,75.0,-238.0,44.0,3.0,13.0,0
-13.0,74.0,-241.0,44.0,2.0,13.0,0
-14.0,78.0,-234.0,43.0,3.0,14.0,0
-18.0,77.0,-235.0,40.0,3.0,12.0,0
-16.0,75.0,-236.0,38.0,4.0,12.0,0
-14.0,74.0,-239.0,36.0,4.0,11.0,0
-19.0,80.0,-242.0,33.0,6.0,14.0,0
-17.0,77.0,-237.0,31.0,9.0,12.0,0
-13.0,76.0,-238.0,29.0,9.0,10.0,0
-16.0,75.0,-239.0,29.0,8.0,9.0,0
-14.0,77.0,-239.0,27.0,10.0,10.0,0
-18.0,79.0,-240.0,26.0,7.0,9.0,0
-17.0,79.0,-238.0,28.0,7.0,8.0,0
-17.0,76.0,-236.0,29.0,6.0,8.0,0
-16.0,75.0,-229.0,30.0,5.0,6.0,0
-19.0,79.0,-241.0,32.0,5.0,7.0,0
-18.0,80.0,-239.0,34.0,5.0,3.0,0
-18.0,80.0,-237.0,35.0,6.0,3.0,0
-15.0,76.0,-237.0,37.0,5.0,1.0,0
-18.0,80.0,-237.0,36.0,5.0,3.0,0
-13.0,80.0,-236.0,36.0,5.0,4.0,0
-19.0,80.0,-240.0,36.0,4.0,2.0,0
-17.0,80.0,-237.0,37.0,5.0,2.0,0
-14.0,82.0,-242.0,39.0,3.0,1.0,0
-14.0,76.0,-238.0,41.0,3.0,0.0,0
-17.0,81.0,-240.0,42.0,3.0,0.0,0
-15.0,78.0,-241.0,45.0,1.0,-1.0,0
-15.0,79.0,-240.0,46.0,2.0,0.0,0
-16.0,78.0,-237.0,50.0,3.0,-2.0,0
-16.0,82.0,-235.0,52.0,4.0,-1.0,0
-13.0,78.0,-235.0,55.0,5.0,-1.0,0
-15.0,80.0,-238.0,55.0,7.0,0.0,0
-14.0,78.0,-239.0,55.0,7.0,-1.0,0
-17.0,78.0,-239.0,56.0,8.0,2.0,0
-17.0,80.0,-238.0,54.0,10.0,0.0,0
-19.0,83.0,-236.0,53.0,11.0,0.0,0
-15.0,80.0,-240.0,49.0,11.0,1.0,0
-18.0,79.0,-239.0,45.0,11.0,-1.0,0
-19.0,79.0,-238.0,43.0,9.0,-3.0,0
-18.0,78.0,-237.0,42.0,11.0,-3.0,0
-18.0,76.0,-236.0,41.0,10.0,-6.0,0
-18.0,77.0,-240.0,42.0,11.0,-8.0,0
-23.0,81.0,-239.0,45.0,11.0,-8.0,0
-18.0,80.0,-234.0,48.0,13.0,-8.0,0
-16.0,77.0,-240.0,52.0,13.0,-5.0,0
-18.0,79.0,-234.0,55.0,11.0,-4.0,0
-22.0,71.0,-234.0,56.0,11.0,-4.0,0
-18.0,79.0,-232.0,57.0,9.0,-4.0,0
-17.0,78.0,-237.0,57.0,7.0,-4.0,0
-16.0,79.0,-234.0,56.0,7.0,-5.0,0
-17.0,76.0,-234.0,55.0,7.0,-8.0,0
-15.0,77.0,-234.0,55.0,9.0,-10.0,0
-17.0,78.0,-237.0,56.0,10.0,-12.0,0
-17.0,76.0,-241.0,56.0,11.0,-13.0,0
-17.0,75.0,-238.0,57.0,13.0,-15.0,0
-18.0,79.0,-241.0,58.0,13.0,-16.0,0
-17.0,75.0,-236.0,60.0,13.0,-16.0,0
-18.0,74.0,-242.0,61.0,13.0,-17.0,0
-18.0,79.0,-241.0,63.0,11.0,-17.0,0
-14.0,76.0,-237.0,63.0,10.0,-18.0,0
-17.0,77.0,-237.0,62.0,10.0,-17.0,0
-16.0,77.0,-240.0,62.0,11.0,-16.0,0
-17.0,79.0,-240.0,63.0,11.0,-17.0,0
-18.0,79.0,-238.0,64.0,12.0,-17.0,0
-20.0,79.0,-238.0,64.0,12.0,-18.0,0
-18.0,77.0,-234.0,62.0,13.0,-16.0,0
-16.0,77.0,-233.0,62.0,14.0,-19.0,0
-16.0,79.0,-240.0,60.0,14.0,-21.0,0
-24.0,79.0,-242.0,59.0,14.0,-21.0,0
-16.0,78.0,-238.0,57.0,14.0,-20.0,0
-18.0,78.0,-238.0,56.0,14.0,-20.0,0
-17.0,79.0,-240.0,54.0,14.0,-20.0,0
-16.0,78.0,-240.0,52.0,14.0,-19.0,0
-18.0,77.0,-239.0,52.0,13.0,-20.0,0
-17.0,76.0,-241.0,52.0,14.0,-20.0,0
-16.0,78.0,-237.0,55.0,16.0,-19.0,0
-17.0,77.0,-242.0,55.0,17.0,-20.0,0
-16.0,75.0,-240.0,55.0,15.0,-21.0,0
-18.0,81.0,-239.0,54.0,15.0,-21.0,0
-15.0,79.0,-242.0,53.0,16.0,-23.0,0
-17.0,79.0,-241.0,54.0,16.0,-23.0,0
-17.0,78.0,-241.0,55.0,15.0,-24.0,0
-18.0,81.0,-241.0,58.0,14.0,-22.0,0
-19.0,77.0,-239.0,61.0,12.0,-21.0,0
-14.0,77.0,-244.0,67.0,12.0,-20.0,0
-16.0,79.0,-242.0,75.0,10.0,-19.0,0
-17.0,72.0,-244.0,83.0,7.0,-15.0,0
-17.0,73.0,-241.0,89.0,5.0,-10.0,0
-17.0,75.0,-247.0,94.0,2.0,-7.0,0
-15.0,77.0,-244.0,100.0,0.0,-6.0,0
-22.0,78.0,-249.0,104.0,-1.0,-3.0,0
-17.0,74.0,-253.0,109.0,-1.0,-3.0,0
-18.0,75.0,-247.0,115.0,-2.0,-2.0,0
-17.0,72.0,-247.0,122.0,-2.0,-1.0,0
-13.0,76.0,-251.0,130.0,-6.0,3.0,0
-16.0,77.0,-247.0,139.0,-7.0,5.0,0
-15.0,79.0,-247.0,145.0,-9.0,7.0,0
-18.0,80.0,-249.0,150.0,-11.0,5.0,0
-15.0,83.0,-248.0,156.0,-8.0,2.0,0
-18.0,84.0,-248.0,161.0,-4.0,-4.0,0
-19.0,80.0,-248.0,166.0,3.0,-11.0,0
-23.0,84.0,-241.0,171.0,9.0,-18.0,0
-18.0,77.0,-245.0,178.0,16.0,-24.0,0
-17.0,71.0,-248.0,189.0,22.0,-31.0,0
-17.0,71.0,-247.0,205.0,28.0,-34.0,0
-17.0,67.0,-248.0,222.0,29.0,-34.0,0
-19.0,64.0,-246.0,242.0,31.0,-35.0,0
-17.0,66.0,-243.0,262.0,33.0,-36.0,0
-15.0,64.0,-246.0,282.0,38.0,-34.0,0
-18.0,64.0,-244.0,297.0,43.0,-31.0,0
-15.0,68.0,-244.0,309.0,49.0,-26.0,0
-13.0,63.0,-245.0,318.0,56.0,-20.0,0
-17.0,63.0,-241.0,326.0,58.0,-16.0,0
-13.0,63.0,-239.0,335.0,60.0,-12.0,0
-14.0,63.0,-243.0,348.0,61.0,-7.0,0
-18.0,63.0,-241.0,365.0,61.0,-6.0,0
-17.0,64.0,-243.0,381.0,61.0,-4.0,0
-17.0,63.0,-241.0,400.0,61.0,-1.0,0
-21.0,68.0,-243.0,420.0,63.0,2.0,0
-23.0,66.0,-245.0,436.0,65.0,5.0,0
-19.0,64.0,-242.0,446.0,66.0,11.0,0
-18.0,64.0,-242.0,453.0,65.0,18.0,0
-20.0,62.0,-238.0,459.0,65.0,24.0,0
-17.0,57.0,-243.0,463.0,61.0,29.0,0
-19.0,58.0,-240.0,470.0,57.0,30.0,0
-14.0,57.0,-239.0,475.0,53.0,30.0,0
-16.0,55.0,-237.0,484.0,48.0,23.0,0
-15.0,53.0,-234.0,495.0,42.0,19.0,0
-14.0,49.0,-236.0,509.0,40.0,14.0,0
-11.0,48.0,-237.0,526.0,37.0,7.0,0
-16.0,48.0,-237.0,544.0,35.0,1.0,0
-17.0,46.0,-235.0,567.0,33.0,-6.0,0
-14.0,44.0,-233.0,590.0,34.0,-10.0,0
-14.0,41.0,-238.0,616.0,36.0,-12.0,0
-16.0,43.0,-237.0,644.0,37.0,-14.0,0
-16.0,44.0,-239.0,675.0,39.0,-14.0,0
-15.0,44.0,-239.0,706.0,40.0,-14.0,0
-17.0,46.0,-242.0,736.0,40.0,-10.0,0
-14.0,42.0,-244.0,762.0,41.0,-7.0,0
-15.0,48.0,-245.0,788.0,43.0,-5.0,0
-16.0,48.0,-248.0,809.0,44.0,-5.0,0
-13.0,48.0,-247.0,826.0,45.0,-6.0,0
-14.0,51.0,-252.0,837.0,45.0,-11.0,0
-15.0,49.0,-247.0,840.0,47.0,-15.0,0
-20.0,47.0,-250.0,837.0,50.0,-18.0,0
-10.0,49.0,-254.0,825.0,55.0,-22.0,0
-14.0,50.0,-251.0,811.0,59.0,-27.0,0
-14.0,45.0,-254.0,792.0,63.0,-31.0,0
-14.0,47.0,-253.0,770.0,67.0,-37.0,0
-11.0,45.0,-248.0,748.0,69.0,-43.0,0
-13.0,43.0,-249.0,730.0,72.0,-46.0,0
-12.0,39.0,-248.0,713.0,71.0,-51.0,0
-11.0,39.0,-247.0,704.0,69.0,-55.0,0
-9.0,38.0,-248.0,696.0,67.0,-58.0,0
-11.0,34.0,-246.0,694.0,64.0,-59.0,0
-13.0,36.0,-245.0,693.0,61.0,-59.0,0
-12.0,32.0,-249.0,697.0,58.0,-59.0,0
-12.0,31.0,-250.0,701.0,55.0,-60.0,0
-11.0,28.0,-246.0,704.0,50.0,-62.0,0
-11.0,30.0,-250.0,706.0,45.0,-64.0,0
-10.0,26.0,-251.0,705.0,44.0,-68.0,0
-14.0,28.0,-255.0,701.0,40.0,-71.0,0
-13.0,21.0,-251.0,693.0,38.0,-75.0,0
-6.0,23.0,-250.0,684.0,37.0,-76.0,0
-12.0,20.0,-253.0,676.0,37.0,-77.0,0
-14.0,23.0,-253.0,671.0,37.0,-80.0,0
-18.0,24.0,-255.0,664.0,35.0,-81.0,0
-15.0,26.0,-253.0,658.0,33.0,-84.0,0
-14.0,22.0,-256.0,650.0,36.0,-87.0,0
-15.0,20.0,-257.0,641.0,37.0,-91.0,0
-14.0,22.0,-257.0,634.0,38.0,-94.0,0
-15.0,20.0,-257.0,623.0,42.0,-95.0,0
-15.0,17.0,-259.0,607.0,45.0,-96.0,0
-13.0,13.0,-259.0,590.0,49.0,-96.0,0
-16.0,12.0,-255.0,574.0,53.0,-93.0,0
-16.0,17.0,-255.0,558.0,58.0,-91.0,0
-19.0,14.0,-256.0,546.0,60.0,-89.0,0
-19.0,10.0,-254.0,537.0,61.0,-85.0,0
-16.0,12.0,-256.0,530.0,61.0,-82.0,0
-17.0,11.0,-253.0,526.0,61.0,-82.0,0
-18.0,10.0,-254.0,522.0,61.0,-78.0,0
-17.0,9.0,-252.0,516.0,63.0,-78.0,0
-15.0,7.0,-254.0,512.0,64.0,-79.0,0
-17.0,7.0,-252.0,507.0,64.0,-84.0,0
-20.0,7.0,-250.0,503.0,64.0,-86.0,0
-15.0,7.0,-250.0,500.0,65.0,-87.0,0
-17.0,2.0,-243.0,497.0,68.0,-91.0,0
-13.0,1.0,-252.0,497.0,70.0,-92.0,0
-14.0,1.0,-252.0,494.0,68.0,-91.0,0
-12.0,1.0,-251.0,491.0,66.0,-91.0,0
-16.0,-2.0,-252.0,486.0,65.0,-91.0,0
-10.0,-4.0,-249.0,484.0,61.0,-89.0,0
-13.0,-4.0,-250.0,486.0,58.0,-90.0,0
-17.0,-1.0,-253.0,491.0,57.0,-88.0,0
-17.0,-3.0,-251.0,497.0,56.0,-86.0,0
-16.0,-7.0,-251.0,506.0,55.0,-85.0,0
-15.0,-10.0,-252.0,514.0,54.0,-86.0,0
-18.0,-14.0,-250.0,523.0,54.0,-90.0,0
-15.0,-6.0,-259.0,533.0,55.0,-89.0,0
-18.0,-11.0,-255.0,540.0,58.0,-90.0,0
-15.0,-11.0,-253.0,547.0,56.0,-91.0,0
-11.0,-12.0,-254.0,556.0,54.0,-96.0,0
-13.0,-10.0,-250.0,563.0,53.0,-101.0,0
-12.0,-12.0,-253.0,565.0,54.0,-103.0,0
-9.0,-13.0,-254.0,567.0,55.0,-106.0,0
-8.0,-18.0,-252.0,568.0,56.0,-109.0,0
-12.0,-17.0,-253.0,568.0,60.0,-108.0,0
-7.0,-17.0,-251.0,566.0,58.0,-107.0,0
-17.0,-19.0,-251.0,568.0,59.0,-107.0,0
-10.0,-17.0,-250.0,569.0,59.0,-106.0,0
-9.0,-17.0,-252.0,570.0,61.0,-102.0,0
-9.0,-20.0,-252.0,572.0,61.0,-104.0,0
-13.0,-20.0,-253.0,577.0,63.0,-103.0,0
-12.0,-23.0,-253.0,581.0,63.0,-104.0,0
-14.0,-19.0,-252.0,582.0,63.0,-106.0,0
-12.0,-25.0,-252.0,587.0,67.0,-108.0,0
-11.0,-25.0,-248.0,592.0,67.0,-110.0,0
-13.0,-23.0,-252.0,594.0,69.0,-111.0,0
-13.0,-22.0,-254.0,600.0,67.0,-116.0,0
-12.0,-24.0,-252.0,611.0,67.0,-121.0,0
-13.0,-28.0,-252.0,624.0,66.0,-119.0,0
-10.0,-28.0,-252.0,639.0,66.0,-117.0,0
-14.0,-28.0,-250.0,654.0,69.0,-111.0,0
-15.0,-23.0,-253.0,665.0,71.0,-103.0,0
-11.0,-30.0,-256.0,674.0,69.0,-102.0,0
-8.0,-26.0,-251.0,680.0,71.0,-101.0,0
-9.0,-28.0,-256.0,680.0,75.0,-97.0,0
-7.0,-27.0,-255.0,681.0,75.0,-91.0,0
-4.0,-27.0,-253.0,680.0,78.0,-88.0,0
-1.0,-30.0,-252.0,680.0,84.0,-81.0,0
-6.0,-27.0,-252.0,678.0,88.0,-74.0,0
-8.0,-29.0,-251.0,677.0,90.0,-72.0,0
-9.0,-26.0,-248.0,676.0,91.0,-70.0,0
-8.0,-32.0,-245.0,679.0,96.0,-68.0,0
-5.0,-36.0,-245.0,679.0,98.0,-66.0,0
-8.0,-33.0,-248.0,682.0,96.0,-66.0,0
-10.0,-35.0,-241.0,685.0,91.0,-62.0,0
-3.0,-35.0,-250.0,686.0,86.0,-60.0,0
-6.0,-40.0,-241.0,688.0,82.0,-58.0,0
-5.0,-44.0,-247.0,690.0,80.0,-56.0,0
-10.0,-46.0,-253.0,691.0,78.0,-52.0,0
-8.0,-48.0,-249.0,694.0,76.0,-53.0,0
-9.0,-47.0,-245.0,704.0,75.0,-53.0,0
-11.0,-48.0,-248.0,714.0,77.0,-54.0,0
-7.0,-51.0,-247.0,724.0,83.0,-56.0,0
-7.0,-46.0,-250.0,736.0,91.0,-53.0,0
-4.0,-47.0,-247.0,752.0,97.0,-49.0,0
-7.0,-48.0,-244.0,765.0,105.0,-45.0,0
-7.0,-52.0,-244.0,778.0,109.0,-37.0,0
-8.0,-50.0,-238.0,789.0,110.0,-32.0,0
-4.0,-45.0,-242.0,792.0,111.0,-26.0,0
-9.0,-51.0,-242.0,790.0,112.0,-18.0,0
-9.0,-49.0,-241.0,788.0,106.0,-16.0,0
-8.0,-54.0,-243.0,787.0,97.0,-12.0,0
-9.0,-56.0,-242.0,785.0,90.0,-9.0,0
-8.0,-54.0,-242.0,784.0,90.0,-8.0,0
-9.0,-56.0,-242.0,782.0,93.0,-3.0,0
-11.0,-57.0,-244.0,779.0,93.0,2.0,0
-10.0,-57.0,-245.0,777.0,91.0,5.0,0
-12.0,-56.0,-243.0,776.0,89.0,8.0,0
-8.0,-58.0,-242.0,776.0,87.0,14.0,0
-8.0,-63.0,-251.0,777.0,88.0,17.0,0
-6.0,-63.0,-242.0,780.0,89.0,20.0,0
-2.0,-64.0,-245.0,783.0,90.0,18.0,0
-5.0,-67.0,-248.0,785.0,89.0,14.0,0
-7.0,-66.0,-247.0,789.0,87.0,13.0,0
-8.0,-65.0,-245.0,792.0,87.0,13.0,0
-7.0,-68.0,-247.0,797.0,86.0,15.0,0
-3.0,-68.0,-245.0,801.0,83.0,17.0,0
-8.0,-71.0,-243.0,799.0,78.0,20.0,0
-4.0,-75.0,-239.0,798.0,72.0,23.0,0
-1.0,-75.0,-239.0,795.0,66.0,22.0,0
-2.0,-82.0,-236.0,791.0,59.0,23.0,0
-6.0,-79.0,-237.0,786.0,56.0,23.0,0
-7.0,-79.0,-235.0,779.0,54.0,24.0,0
-6.0,-78.0,-237.0,773.0,54.0,23.0,0
-6.0,-82.0,-236.0,771.0,55.0,24.0,0
-5.0,-83.0,-233.0,775.0,55.0,28.0,0
-5.0,-86.0,-230.0,782.0,55.0,31.0,0
-2.0,-85.0,-234.0,794.0,57.0,33.0,0
-4.0,-87.0,-235.0,806.0,59.0,39.0,0
-3.0,-91.0,-238.0,822.0,60.0,43.0,0
-6.0,-92.0,-230.0,838.0,61.0,44.0,0
-4.0,-89.0,-237.0,851.0,62.0,46.0,0
-7.0,-89.0,-234.0,858.0,61.0,49.0,0
-5.0,-90.0,-226.0,862.0,58.0,47.0,0
-3.0,-88.0,-225.0,862.0,55.0,47.0,0
-4.0,-87.0,-224.0,857.0,55.0,45.0,0
-5.0,-86.0,-228.0,850.0,58.0,45.0,0
-2.0,-90.0,-226.0,843.0,61.0,42.0,0
-4.0,-89.0,-229.0,836.0,68.0,40.0,0
-5.0,-90.0,-223.0,831.0,75.0,40.0,0
-3.0,-93.0,-224.0,824.0,81.0,38.0,0
0.0,-98.0,-224.0,815.0,86.0,40.0,0
0.0,-99.0,-220.0,808.0,84.0,40.0,0
-4.0,-98.0,-223.0,802.0,81.0,40.0,0
-2.0,-100.0,-221.0,799.0,75.0,42.0,0
-2.0,-96.0,-226.0,800.0,66.0,41.0,0
-3.0,-105.0,-224.0,801.0,59.0,37.0,0
-5.0,-101.0,-218.0,807.0,54.0,36.0,0
-5.0,-106.0,-221.0,815.0,49.0,36.0,0
-3.0,-105.0,-217.0,822.0,48.0,35.0,0
-1.0,-107.0,-224.0,825.0,47.0,35.0,0
-6.0,-107.0,-219.0,825.0,52.0,35.0,0
-2.0,-112.0,-222.0,825.0,56.0,39.0,0
-3.0,-110.0,-220.0,825.0,57.0,41.0,0
-5.0,-111.0,-220.0,826.0,56.0,43.0,0
-5.0,-109.0,-225.0,828.0,52.0,41.0,0
-7.0,-111.0,-223.0,829.0,50.0,42.0,0
-6.0,-119.0,-218.0,831.0,47.0,44.0,0
-1.0,-117.0,-216.0,834.0,47.0,44.0,0
-5.0,-119.0,-218.0,838.0,51.0,44.0,0
-9.0,-120.0,-218.0,845.0,56.0,43.0,0
-8.0,-121.0,-219.0,850.0,60.0,44.0,0
-6.0,-118.0,-219.0,855.0,64.0,44.0,0
-5.0,-120.0,-215.0,860.0,68.0,47.0,0
-2.0,-112.0,-207.0,865.0,71.0,50.0,0
-8.0,-116.0,-215.0,870.0,74.0,49.0,0
-2.0,-119.0,-210.0,874.0,72.0,50.0,0
-2.0,-121.0,-212.0,876.0,69.0,52.0,0
0.0,-122.0,-208.0,876.0,67.0,53.0,0
-1.0,-123.0,-213.0,877.0,65.0,52.0,0
-3.0,-124.0,-209.0,875.0,62.0,53.0,0
0.0,-129.0,-207.0,870.0,57.0,54.0,0
0.0,-129.0,-208.0,866.0,55.0,53.0,0
-2.0,-127.0,-203.0,862.0,55.0,50.0,0
-1.0,-131.0,-203.0,858.0,54.0,47.0,0
1.0,-129.0,-203.0,857.0,59.0,45.0,0
-1.0,-130.0,-205.0,854.0,60.0,43.0,0
0.0,-128.0,-204.0,851.0,65.0,42.0,0
2.0,-129.0,-207.0,847.0,73.0,41.0,0
-3.0,-127.0,-206.0,844.0,79.0,43.0,0
2.0,-129.0,-204.0,844.0,85.0,44.0,0
5.0,-132.0,-207.0,847.0,89.0,45.0,0
3.0,-135.0,-200.0,849.0,93.0,46.0,0
0.0,-141.0,-200.0,854.0,94.0,47.0,0
0.0,-137.0,-199.0,860.0,93.0,48.0,0
0.0,-145.0,-199.0,868.0,92.0,50.0,0
0.0,-143.0,-197.0,873.0,90.0,52.0,0
-2.0,-145.0,-201.0,876.0,90.0,52.0,0
0.0,-145.0,-199.0,879.0,92.0,54.0,0
-2.0,-145.0,-199.0,878.0,95.0,55.0,0
0.0,-145.0,-198.0,877.0,94.0,56.0,0
1.0,-145.0,-195.0,876.0,97.0,53.0,0
0.0,-147.0,-200.0,875.0,101.0,51.0,0
0.0,-148.0,-192.0,872.0,106.0,51.0,0
0.0,-147.0,-193.0,872.0,113.0,50.0,0
0.0,-151.0,-194.0,871.0,119.0,49.0,0
-7.0,-152.0,-191.0,872.0,127.0,50.0,0
0.0,-155.0,-191.0,874.0,134.0,50.0,0
-1.0,-154.0,-189.0,877.0,136.0,55.0,0
0.0,-159.0,-186.0,879.0,136.0,56.0,0
0.0,-156.0,-190.0,879.0,134.0,58.0,0
2.0,-161.0,-189.0,881.0,134.0,58.0,0
3.0,-160.0,-187.0,880.0,134.0,58.0,0
1.0,-161.0,-187.0,882.0,136.0,57.0,0
-1.0,-154.0,-192.0,880.0,137.0,62.0,0
4.0,-157.0,-190.0,874.0,138.0,68.0,0
9.0,-161.0,-186.0,868.0,137.0,70.0,0
4.0,-157.0,-187.0,863.0,141.0,69.0,0
1.0,-160.0,-180.0,859.0,146.0,72.0,0
2.0,-163.0,-181.0,854.0,149.0,72.0,0
0.0,-164.0,-178.0,847.0,156.0,71.0,0
2.0,-166.0,-177.0,841.0,160.0,70.0,0
1.0,-168.0,-175.0,834.0,161.0,72.0,0
-1.0,-168.0,-168.0,831.0,158.0,69.0,0
-4.0,-170.0,-172.0,828.0,152.0,65.0,0
-5.0,-171.0,-168.0,827.0,145.0,63.0,0
-8.0,-173.0,-171.0,826.0,142.0,58.0,0
-5.0,-174.0,-168.0,827.0,136.0,55.0,0
-4.0,-179.0,-167.0,825.0,131.0,52.0,0
-3.0,-179.0,-170.0,827.0,128.0,54.0,0
-2.0,-178.0,-171.0,828.0,126.0,53.0,0
0.0,-181.0,-168.0,831.0,125.0,53.0,0
-2.0,-182.0,-168.0,834.0,124.0,53.0,0
1.0,-183.0,-167.0,838.0,124.0,56.0,0
-1.0,-184.0,-169.0,843.0,122.0,58.0,0
-2.0,-185.0,-162.0,846.0,119.0,61.0,0
1.0,-190.0,-164.0,848.0,112.0,65.0,0
-2.0,-190.0,-164.0,853.0,105.0,65.0,0
0.0,-190.0,-162.0,859.0,103.0,64.0,0
1.0,-194.0,-164.0,861.0,105.0,63.0,0
3.0,-194.0,-166.0,863.0,108.0,62.0,0
0.0,-192.0,-166.0,862.0,109.0,60.0,0
3.0,-194.0,-165.0,859.0,113.0,59.0,0
3.0,-196.0,-159.0,855.0,119.0,56.0,0
1.0,-195.0,-162.0,848.0,123.0,51.0,0
1.0,-196.0,-157.0,839.0,122.0,45.0,0
1.0,-198.0,-156.0,833.0,121.0,35.0,0
4.0,-199.0,-155.0,831.0,118.0,26.0,0
2.0,-198.0,-150.0,831.0,117.0,19.0,0
4.0,-197.0,-151.0,830.0,116.0,15.0,0
2.0,-196.0,-162.0,832.0,116.0,13.0,0
3.0,-198.0,-158.0,834.0,114.0,11.0,0
3.0,-198.0,-148.0,832.0,108.0,9.0,0
3.0,-200.0,-147.0,832.0,104.0,9.0,0
4.0,-198.0,-150.0,828.0,102.0,11.0,0
1.0,-196.0,-148.0,823.0,104.0,8.0,0
4.0,-197.0,-147.0,817.0,107.0,4.0,0
2.0,-198.0,-140.0,808.0,106.0,1.0,0
0.0,-199.0,-142.0,801.0,104.0,-3.0,0
4.0,-196.0,-135.0,794.0,103.0,-4.0,0
3.0,-201.0,-142.0,792.0,104.0,-5.0,0
4.0,-203.0,-133.0,790.0,101.0,-9.0,0
3.0,-199.0,-137.0,788.0,100.0,-13.0,0
3.0,-196.0,-141.0,786.0,101.0,-17.0,0
2.0,-198.0,-135.0,784.0,104.0,-22.0,0
4.0,-201.0,-136.0,782.0,107.0,-24.0,0
4.0,-202.0,-136.0,779.0,110.0,-24.0,0
7.0,-202.0,-131.0,771.0,108.0,-29.0,0
6.0,-202.0,-133.0,763.0,105.0,-36.0,0
8.0,-205.0,-129.0,761.0,101.0,-47.0,0
2.0,-204.0,-128.0,769.0,92.0,-52.0,0
0.0,-207.0,-128.0,778.0,85.0,-47.0,0
0.0,-216.0,-126.0,783.0,77.0,-43.0,0
3.0,-208.0,-128.0,789.0,72.0,-41.0,0
3.0,-208.0,-132.0,797.0,72.0,-38.0,0
2.0,-209.0,-129.0,802.0,76.0,-35.0,0
6.0,-208.0,-127.0,804.0,80.0,-35.0,0
2.0,-205.0,-129.0,806.0,85.0,-39.0,0
5.0,-208.0,-129.0,801.0,86.0,-41.0,0
5.0,-214.0,-131.0,798.0,81.0,-39.0,0
5.0,-210.0,-129.0,797.0,77.0,-39.0,0
4.0,-210.0,-125.0,789.0,74.0,-42.0,0
10.0,-211.0,-124.0,779.0,70.0,-41.0,0
7.0,-211.0,-124.0,772.0,67.0,-44.0,0
8.0,-216.0,-129.0,766.0,66.0,-45.0,0
5.0,-214.0,-126.0,758.0,66.0,-46.0,0
5.0,-214.0,-123.0,755.0,65.0,-49.0,0
3.0,-215.0,-127.0,754.0,62.0,-51.0,0
0.0,-216.0,-122.0,750.0,54.0,-52.0,0
5.0,-219.0,-125.0,751.0,44.0,-52.0,0
3.0,-216.0,-124.0,750.0,40.0,-51.0,0
2.0,-216.0,-124.0,743.0,40.0,-54.0,0
3.0,-217.0,-120.0,733.0,47.0,-54.0,0
2.0,-214.0,-124.0,722.0,52.0,-54.0,0
4.0,-217.0,-115.0,709.0,55.0,-54.0,0
4.0,-217.0,-116.0,700.0,56.0,-57.0,0
5.0,-216.0,-115.0,696.0,58.0,-59.0,0
6.0,-217.0,-117.0,691.0,59.0,-58.0,0
6.0,-219.0,-111.0,685.0,63.0,-58.0,0
3.0,-218.0,-110.0,682.0,63.0,-57.0,0
4.0,-217.0,-115.0,683.0,60.0,-55.0,0
7.0,-217.0,-109.0,682.0,56.0,-53.0,0
9.0,-218.0,-110.0,679.0,55.0,-50.0,0
12.0,-223.0,-109.0,681.0,55.0,-48.0,0
5.0,-222.0,-110.0,680.0,59.0,-46.0,0
13.0,-219.0,-111.0,684.0,68.0,-47.0,0
10.0,-217.0,-111.0,686.0,74.0,-46.0,0
15.0,-217.0,-113.0,688.0,74.0,-40.0,0
11.0,-214.0,-109.0,678.0,75.0,-44.0,0
10.0,-212.0,-112.0,665.0,77.0,-45.0,0
11.0,-216.0,-106.0,649.0,74.0,-45.0,0
12.0,-212.0,-109.0,632.0,74.0,-45.0,0
12.0,-212.0,-108.0,617.0,78.0,-48.0,0
10.0,-214.0,-107.0,607.0,83.0,-47.0,0
10.0,-216.0,-105.0,591.0,84.0,-44.0,0
9.0,-217.0,-110.0,573.0,82.0,-42.0,0
9.0,-215.0,-107.0,553.0,84.0,-40.0,0
6.0,-217.0,-109.0,536.0,85.0,-38.0,0
9.0,-218.0,-106.0,523.0,86.0,-35.0,0
12.0,-219.0,-107.0,513.0,88.0,-35.0,0
10.0,-218.0,-103.0,503.0,91.0,-34.0,0
10.0,-218.0,-100.0,495.0,94.0,-32.0,0
13.0,-220.0,-105.0,486.0,97.0,-31.0,0
4.0,-217.0,-105.0,478.0,100.0,-29.0,0
4.0,-219.0,-104.0,468.0,103.0,-28.0,0
8.0,-223.0,-97.0,465.0,103.0,-25.0,0
9.0,-224.0,-100.0,460.0,104.0,-25.0,0
9.0,-222.0,-102.0,454.0,109.0,-24.0,0
13.0,-221.0,-101.0,446.0,114.0,-25.0,0
6.0,-220.0,-101.0,441.0,122.0,-24.0,0
6.0,-216.0,-102.0,436.0,125.0,-17.0,0
4.0,-219.0,-99.0,425.0,119.0,-12.0,0
5.0,-220.0,-100.0,413.0,115.0,-7.0,0
13.0,-225.0,-95.0,401.0,112.0,0.0,0
6.0,-219.0,-98.0,387.0,116.0,-4.0,0
7.0,-221.0,-95.0,374.0,116.0,-2.0,0
7.0,-223.0,-95.0,365.0,115.0,-2.0,0
12.0,-220.0,-96.0,355.0,114.0,-3.0,0
9.0,-220.0,-100.0,343.0,116.0,-6.0,0
11.0,-222.0,-101.0,335.0,121.0,-8.0,0
10.0,-219.0,-99.0,324.0,126.0,-7.0,0
6.0,-221.0,-97.0,313.0,135.0,-9.0,0
7.0,-220.0,-96.0,300.0,139.0,-7.0,0
6.0,-218.0,-96.0,286.0,137.0,-6.0,0
12.0,-223.0,-97.0,275.0,135.0,-6.0,0
10.0,-219.0,-95.0,264.0,134.0,-6.0,0
2.0,-222.0,-99.0,256.0,136.0,-6.0,0
5.0,-221.0,-94.0,246.0,130.0,-4.0,0
5.0,-222.0,-94.0,231.0,123.0,-3.0,0
7.0,-223.0,-94.0,219.0,119.0,-3.0,0
8.0,-224.0,-96.0,207.0,118.0,-1.0,0
6.0,-227.0,-92.0,199.0,120.0,1.0,0
2.0,-227.0,-91.0,190.0,118.0,3.0,0
2.0,-223.0,-92.0,178.0,115.0,7.0,0
5.0,-228.0,-91.0,167.0,108.0,6.0,0
6.0,-229.0,-92.0,154.0,107.0,8.0,0
4.0,-226.0,-91.0,142.0,110.0,8.0,0
5.0,-228.0,-93.0,135.0,111.0,8.0,0
5.0,-227.0,-88.0,129.0,111.0,6.0,0
1.0,-226.0,-96.0,124.0,109.0,7.0,0
5.0,-227.0,-90.0,117.0,103.0,6.0,0
3.0,-230.0,-88.0,111.0,100.0,5.0,0
6.0,-230.0,-87.0,105.0,99.0,2.0,0
6.0,-229.0,-86.0,101.0,100.0,3.0,0
7.0,-232.0,-87.0,101.0,99.0,3.0,0
7.0,-229.0,-82.0,97.0,99.0,2.0,0
5.0,-233.0,-83.0,93.0,95.0,4.0,0
7.0,-227.0,-87.0,87.0,88.0,5.0,0
6.0,-230.0,-83.0,79.0,81.0,7.0,0
6.0,-229.0,-85.0,69.0,75.0,9.0,0
8.0,-228.0,-86.0,61.0,73.0,6.0,0
1.0,-228.0,-89.0,53.0,71.0,6.0,0
4.0,-231.0,-88.0,48.0,67.0,11.0,0
9.0,-232.0,-89.0,44.0,63.0,9.0,0
4.0,-231.0,-88.0,37.0,62.0,6.0,0
9.0,-229.0,-87.0,37.0,61.0,5.0,0
3.0,-233.0,-83.0,35.0,59.0,3.0,0
10.0,-237.0,-80.0,33.0,56.0,0.0,0
6.0,-235.0,-82.0,31.0,53.0,-4.0,0
8.0,-232.0,-80.0,28.0,48.0,-8.0,0
3.0,-232.0,-81.0,26.0,45.0,-11.0,0
2.0,-231.0,-82.0,24.0,43.0,-13.0,0
5.0,-232.0,-81.0,20.0,39.0,-15.0,0
7.0,-233.0,-79.0,17.0,33.0,-16.0,0
3.0,-234.0,-78.0,13.0,25.0,-18.0,0
7.0,-235.0,-81.0,10.0,21.0,-21.0,0
8.0,-233.0,-78.0,10.0,17.0,-22.0,0
3.0,-232.0,-82.0,10.0,16.0,-23.0,0
5.0,-237.0,-81.0,9.0,12.0,-24.0,0
3.0,-234.0,-86.0,9.0,8.0,-26.0,0
2.0,-231.0,-80.0,10.0,6.0,-27.0,0
6.0,-237.0,-86.0,10.0,5.0,-30.0,0
7.0,-247.0,-82.0,10.0,5.0,-31.0,0
4.0,-236.0,-83.0,8.0,1.0,-30.0,0
9.0,-234.0,-82.0,8.0,0.0,-31.0,0
6.0,-236.0,-83.0,7.0,-3.0,-32.0,0
8.0,-240.0,-78.0,6.0,-5.0,-30.0,0
5.0,-237.0,-82.0,8.0,-5.0,-28.0,0
8.0,-241.0,-80.0,11.0,-5.0,-27.0,0
9.0,-240.0,-79.0,16.0,-5.0,-26.0,0
9.0,-239.0,-81.0,21.0,-4.0,-26.0,0
7.0,-239.0,-82.0,26.0,-5.0,-27.0,0
7.0,-233.0,-74.0,29.0,-7.0,-26.0,0
8.0,-237.0,-79.0,32.0,-5.0,-28.0,0
2.0,-238.0,-80.0,34.0,-5.0,-26.0,0
6.0,-239.0,-78.0,36.0,-8.0,-26.0,0
7.0,-240.0,-82.0,41.0,-13.0,-27.0,0
7.0,-241.0,-81.0,48.0,-14.0,-28.0,0
7.0,-240.0,-82.0,57.0,-15.0,-26.0,0
8.0,-243.0,-80.0,67.0,-15.0,-25.0,0
4.0,-240.0,-76.0,74.0,-16.0,-25.0,0
9.0,-237.0,-80.0,82.0,-15.0,-24.0,0
9.0,-238.0,-80.0,87.0,-15.0,-24.0,0
3.0,-230.0,-79.0,91.0,-17.0,-25.0,0
9.0,-238.0,-78.0,92.0,-20.0,-26.0,0
2.0,-236.0,-79.0,96.0,-22.0,-26.0,0
6.0,-235.0,-76.0,99.0,-23.0,-27.0,0
4.0,-237.0,-77.0,105.0,-27.0,-27.0,0
2.0,-234.0,-80.0,107.0,-31.0,-27.0,0
3.0,-234.0,-77.0,112.0,-34.0,-26.0,0
5.0,-239.0,-79.0,115.0,-38.0,-25.0,0
4.0,-236.0,-74.0,115.0,-40.0,-25.0,0
8.0,-234.0,-77.0,112.0,-39.0,-25.0,0
8.0,-230.0,-77.0,107.0,-40.0,-24.0,0
2.0,-235.0,-84.0,102.0,-40.0,-25.0,0
6.0,-233.0,-78.0,96.0,-42.0,-26.0,0
7.0,-234.0,-78.0,91.0,-44.0,-26.0,0
5.0,-236.0,-78.0,84.0,-46.0,-28.0,0
5.0,-233.0,-76.0,81.0,-48.0,-24.0,0
6.0,-236.0,-78.0,80.0,-52.0,-25.0,0
3.0,-233.0,-80.0,80.0,-57.0,-23.0,0
3.0,-233.0,-80.0,84.0,-60.0,-23.0,0
7.0,-233.0,-77.0,86.0,-61.0,-21.0,0
5.0,-236.0,-81.0,89.0,-59.0,-20.0,0
8.0,-239.0,-73.0,91.0,-58.0,-20.0,0
6.0,-237.0,-78.0,91.0,-58.0,-19.0,0
9.0,-236.0,-78.0,89.0,-58.0,-17.0,0
7.0,-237.0,-73.0,91.0,-57.0,-18.0,0
11.0,-239.0,-76.0,94.0,-54.0,-18.0,0
5.0,-236.0,-78.0,98.0,-53.0,-18.0,0
9.0,-238.0,-75.0,99.0,-53.0,-19.0,0
7.0,-237.0,-76.0,102.0,-53.0,-17.0,0
6.0,-235.0,-79.0,104.0,-52.0,-19.0,0
10.0,-241.0,-76.0,107.0,-52.0,-19.0,0
8.0,-238.0,-80.0,110.0,-50.0,-19.0,0
7.0,-234.0,-79.0,112.0,-47.0,-20.0,0
6.0,-232.0,-77.0,114.0,-42.0,-19.0,0
12.0,-239.0,-79.0,114.0,-38.0,-19.0,0
12.0,-238.0,-83.0,116.0,-35.0,-21.0,0
9.0,-233.0,-80.0,118.0,-29.0,-21.0,0
12.0,-235.0,-80.0,120.0,-23.0,-19.0,0
9.0,-233.0,-79.0,121.0,-17.0,-20.0,0
12.0,-235.0,-78.0,123.0,-11.0,-22.0,0
9.0,-232.0,-82.0,121.0,-8.0,-20.0,0
9.0,-234.0,-79.0,120.0,-7.0,-20.0,0
9.0,-232.0,-79.0,118.0,-7.0,-20.0,0
11.0,-235.0,-80.0,114.0,-4.0,-19.0,0
9.0,-234.0,-79.0,110.0,-3.0,-20.0,0
10.0,-233.0,-78.0,104.0,0.0,-21.0,0
9.0,-231.0,-83.0,101.0,3.0,-20.0,0
12.0,-234.0,-82.0,97.0,5.0,-18.0,0
11.0,-237.0,-75.0,94.0,7.0,-17.0,0
8.0,-233.0,-75.0,93.0,11.0,-17.0,0
10.0,-231.0,-80.0,93.0,16.0,-14.0,0
13.0,-235.0,-78.0,92.0,20.0,-13.0,0
9.0,-232.0,-80.0,90.0,22.0,-11.0,0
7.0,-231.0,-83.0,89.0,26.0,-7.0,0
7.0,-236.0,-80.0,85.0,30.0,-6.0,0
10.0,-239.0,-80.0,81.0,32.0,-5.0,0
7.0,-234.0,-77.0,80.0,34.0,-4.0,0
8.0,-236.0,-77.0,76.0,33.0,-3.0,0
6.0,-236.0,-78.0,74.0,33.0,-3.0,0
9.0,-232.0,-78.0,71.0,35.0,-2.0,0
6.0,-237.0,-77.0,69.0,36.0,-3.0,0
7.0,-236.0,-74.0,67.0,36.0,-2.0,0
4.0,-233.0,-78.0,68.0,37.0,-2.0,0
5.0,-238.0,-76.0,68.0,39.0,-2.0,0
7.0,-235.0,-77.0,72.0,42.0,-4.0,0
8.0,-236.0,-77.0,72.0,43.0,-4.0,0
6.0,-232.0,-79.0,74.0,44.0,-3.0,0
7.0,-234.0,-76.0,72.0,43.0,-4.0,0
4.0,-234.0,-77.0,72.0,42.0,-4.0,0
6.0,-233.0,-78.0,71.0,40.0,-5.0,0
7.0,-235.0,-76.0,71.0,38.0,-4.0,0
8.0,-235.0,-75.0,69.0,36.0,-3.0,0
7.0,-234.0,-76.0,65.0,32.0,-2.0,0
8.0,-231.0,-76.0,62.0,31.0,-3.0,0
5.0,-235.0,-79.0,61.0,27.0,-4.0,0
8.0,-234.0,-79.0,59.0,27.0,-4.0,0
14.0,-234.0,-77.0,55.0,25.0,-6.0,0
5.0,-233.0,-79.0,51.0,25.0,-5.0,0
4.0,-236.0,-77.0,50.0,24.0,-4.0,0
4.0,-235.0,-76.0,47.0,23.0,-4.0,0
7.0,-235.0,-78.0,44.0,22.0,-5.0,0
8.0,-236.0,-75.0,42.0,21.0,-5.0,0
6.0,-235.0,-77.0,42.0,24.0,-6.0,0
7.0,-238.0,-77.0,40.0,26.0,-6.0,0
5.0,-237.0,-75.0,42.0,27.0,-6.0,0
8.0,-237.0,-73.0,42.0,27.0,-7.0,0
8.0,-230.0,-77.0,44.0,26.0,-7.0,0
4.0,-240.0,-76.0,43.0,25.0,-6.0,0
9.0,-238.0,-75.0,44.0,23.0,-6.0,0
9.0,-233.0,-76.0,44.0,22.0,-7.0,0
8.0,-237.0,-75.0,42.0,20.0,-7.0,0
5.0,-233.0,-79.0,42.0,19.0,-9.0,0
8.0,-234.0,-80.0,40.0,17.0,-8.0,0
7.0,-238.0,-75.0,39.0,17.0,-8.0,0
7.0,-235.0,-76.0,36.0,17.0,-8.0,0
7.0,-236.0,-75.0,35.0,17.0,-8.0,0
7.0,-236.0,-75.0,34.0,18.0,-9.0,0
9.0,-233.0,-83.0,35.0,20.0,-8.0,0
7.0,-232.0,-75.0,33.0,22.0,-10.0,0
4.0,-233.0,-75.0,31.0,21.0,-10.0,0
9.0,-234.0,-77.0,28.0,20.0,-12.0,0
5.0,-234.0,-73.0,24.0,19.0,-13.0,0
5.0,-236.0,-73.0,21.0,19.0,-14.0,0
6.0,-235.0,-71.0,18.0,19.0,-13.0,0
9.0,-237.0,-75.0,17.0,19.0,-14.0,0
3.0,-234.0,-72.0,16.0,18.0,-14.0,0
4.0,-236.0,-73.0,16.0,16.0,-13.0,0
6.0,-235.0,-72.0,17.0,17.0,-14.0,0
11.0,-237.0,-73.0,20.0,15.0,-13.0,0
13.0,-236.0,-72.0,21.0,13.0,-15.0,0
6.0,-235.0,-76.0,22.0,12.0,-15.0,0
8.0,-235.0,-77.0,21.0,11.0,-14.0,0
8.0,-233.0,-74.0,19.0,9.0,-14.0,0
9.0,-234.0,-75.0,15.0,8.0,-14.0,0
8.0,-236.0,-75.0,11.0,8.0,-15.0,0
8.0,-237.0,-78.0,9.0,7.0,-16.0,0
6.0,-236.0,-76.0,7.0,6.0,-15.0,0
9.0,-233.0,-76.0,6.0,5.0,-16.0,0
5.0,-234.0,-81.0,5.0,4.0,-16.0,0
7.0,-241.0,-78.0,6.0,5.0,-14.0,0
6.0,-236.0,-81.0,6.0,5.0,-15.0,0
6.0,-232.0,-79.0,6.0,5.0,-14.0,0
5.0,-235.0,-76.0,6.0,6.0,-11.0,0
9.0,-237.0,-78.0,5.0,7.0,-10.0,0
8.0,-237.0,-78.0,3.0,9.0,-10.0,0
3.0,-235.0,-76.0,5.0,11.0,-9.0,0
5.0,-239.0,-76.0,6.0,12.0,-9.0,0
7.0,-241.0,-75.0,10.0,13.0,-9.0,0
7.0,-237.0,-81.0,13.0,13.0,-8.0,0
5.0,-235.0,-78.0,17.0,14.0,-8.0,0
8.0,-239.0,-72.0,21.0,15.0,-9.0,0
3.0,-236.0,-75.0,26.0,17.0,-8.0,0
8.0,-237.0,-78.0,30.0,20.0,-10.0,0
6.0,-238.0,-75.0,33.0,20.0,-10.0,0
7.0,-241.0,-76.0,36.0,20.0,-12.0,0
6.0,-236.0,-75.0,39.0,22.0,-11.0,0
7.0,-239.0,-74.0,41.0,20.0,-13.0,0
10.0,-239.0,-74.0,42.0,21.0,-14.0,0
7.0,-240.0,-79.0,43.0,21.0,-15.0,0
7.0,-237.0,-77.0,43.0,20.0,-12.0,0
8.0,-239.0,-75.0,42.0,18.0,-13.0,0
10.0,-236.0,-79.0,41.0,18.0,-12.0,0
10.0,-236.0,-73.0,38.0,16.0,-11.0,0
9.0,-237.0,-76.0,36.0,16.0,-12.0,0
8.0,-235.0,-76.0,34.0,15.0,-12.0,0
12.0,-236.0,-76.0,33.0,14.0,-11.0,0
8.0,-237.0,-73.0,35.0,14.0,-12.0,0
8.0,-234.0,-77.0,38.0,14.0,-12.0,0
6.0,-235.0,-79.0,41.0,13.0,-12.0,0
7.0,-237.0,-79.0,43.0,11.0,-12.0,0
7.0,-236.0,-79.0,45.0,11.0,-14.0,0
7.0,-237.0,-78.0,44.0,12.0,-12.0,0
7.0,-234.0,-76.0,44.0,11.0,-12.0,0
6.0,-239.0,-79.0,46.0,8.0,-14.0,0
6.0,-235.0,-80.0,48.0,7.0,-13.0,0
8.0,-236.0,-78.0,51.0,6.0,-13.0,0
6.0,-235.0,-82.0,54.0,3.0,-13.0,0
8.0,-235.0,-81.0,59.0,2.0,-12.0,0
5.0,-234.0,-76.0,61.0,2.0,-12.0,0
9.0,-236.0,-79.0,61.0,0.0,-13.0,0
5.0,-231.0,-82.0,56.0,1.0,-11.0,0
6.0,-234.0,-80.0,52.0,0.0,-11.0,0
7.0,-236.0,-80.0,46.0,-2.0,-11.0,0
5.0,-237.0,-80.0,42.0,-1.0,-12.0,0
2.0,-236.0,-79.0,41.0,-1.0,-12.0,0
7.0,-236.0,-78.0,42.0,0.0,-15.0,0
9.0,-236.0,-78.0,44.0,-1.0,-17.0,0
6.0,-237.0,-78.0,48.0,-1.0,-14.0,0
11.0,-236.0,-80.0,55.0,0.0,-13.0,0
7.0,-236.0,-77.0,59.0,1.0,-14.0,0
8.0,-234.0,-77.0,64.0,1.0,-15.0,0
5.0,-236.0,-83.0,68.0,2.0,-14.0,0
7.0,-237.0,-81.0,72.0,1.0,-13.0,0
11.0,-236.0,-78.0,76.0,0.0,-15.0,0
7.0,-230.0,-79.0,77.0,-1.0,-15.0,0
5.0,-233.0,-81.0,79.0,-2.0,-14.0,0
7.0,-230.0,-80.0,80.0,-3.0,-14.0,0
8.0,-234.0,-81.0,78.0,-5.0,-15.0,0
6.0,-233.0,-83.0,75.0,-4.0,-14.0,0
10.0,-233.0,-77.0,70.0,-3.0,-15.0,0
8.0,-235.0,-83.0,65.0,-3.0,-15.0,0
8.0,-237.0,-80.0,61.0,-2.0,-15.0,0
7.0,-233.0,-85.0,60.0,-2.0,-14.0,0
8.0,-237.0,-76.0,58.0,-2.0,-14.0,0
10.0,-237.0,-83.0,57.0,-3.0,-13.0,0
6.0,-236.0,-85.0,58.0,-2.0,-15.0,0
6.0,-237.0,-81.0,59.0,-1.0,-15.0,0
9.0,-236.0,-82.0,60.0,-2.0,-14.0,0
9.0,-235.0,-78.0,62.0,-1.0,-14.0,0
9.0,-240.0,-81.0,65.0,-1.0,-15.0,0
8.0,-236.0,-82.0,69.0,-2.0,-13.0,0
10.0,-237.0,-83.0,73.0,-2.0,-12.0,0
8.0,-235.0,-84.0,78.0,-2.0,-13.0,0
8.0,-233.0,-79.0,80.0,-2.0,-15.0,0
7.0,-233.0,-81.0,82.0,-1.0,-15.0,0
8.0,-232.0,-83.0,82.0,-1.0,-13.0,0
15.0,-237.0,-73.0,80.0,-1.0,-13.0,0
10.0,-234.0,-81.0,79.0,-1.0,-13.0,0
8.0,-235.0,-79.0,78.0,0.0,-14.0,0
10.0,-235.0,-82.0,78.0,1.0,-15.0,0
8.0,-237.0,-81.0,79.0,0.0,-14.0,0
11.0,-237.0,-79.0,78.0,0.0,-15.0,0
5.0,-233.0,-77.0,80.0,1.0,-13.0,0
8.0,-235.0,-82.0,81.0,1.0,-12.0,0
7.0,-234.0,-81.0,80.0,1.0,-14.0,0
9.0,-233.0,-78.0,79.0,-1.0,-13.0,0
6.0,-238.0,-72.0,79.0,0.0,-13.0,0
9.0,-238.0,-84.0,78.0,-1.0,-11.0,0
8.0,-235.0,-78.0,75.0,-2.0,-12.0,0
9.0,-234.0,-81.0,75.0,-2.0,-11.0,0
6.0,-231.0,-81.0,74.0,-2.0,-12.0,0
5.0,-236.0,-79.0,73.0,-1.0,-12.0,0
7.0,-236.0,-81.0,72.0,-1.0,-12.0,0
9.0,-236.0,-80.0,71.0,-2.0,-13.0,0
5.0,-234.0,-81.0,71.0,-2.0,-12.0,0
9.0,-234.0,-81.0,69.0,-2.0,-13.0,0
7.0,-234.0,-78.0,67.0,0.0,-13.0,0
8.0,-236.0,-80.0,67.0,-1.0,-11.0,0
8.0,-235.0,-81.0,66.0,-1.0,-13.0,0
8.0,-236.0,-75.0,64.0,1.0,-12.0,0
11.0,-236.0,-78.0,65.0,1.0,-12.0,0
9.0,-235.0,-77.0,63.0,3.0,-10.0,0
9.0,-235.0,-76.0,64.0,4.0,-12.0,0
11.0,-237.0,-78.0,66.0,3.0,-13.0,0
7.0,-234.0,-79.0,66.0,4.0,-16.0,0
10.0,-236.0,-79.0,66.0,3.0,-14.0,0
9.0,-235.0,-78.0,67.0,2.0,-14.0,0
10.0,-238.0,-80.0,65.0,2.0,-15.0,0
9.0,-238.0,-80.0,64.0,3.0,-14.0,0
11.0,-233.0,-81.0,64.0,1.0,-15.0,0
6.0,-234.0,-75.0,62.0,3.0,-14.0,0
8.0,-237.0,-80.0,61.0,1.0,-14.0,0
9.0,-236.0,-75.0,60.0,2.0,-14.0,0
11.0,-236.0,-79.0,60.0,0.0,-13.0,0
7.0,-238.0,-78.0,58.0,0.0,-14.0,0
8.0,-235.0,-75.0,58.0,-3.0,-13.0,0
8.0,-239.0,-76.0,57.0,-2.0,-14.0,0
9.0,-239.0,-80.0,55.0,-2.0,-14.0,0
11.0,-235.0,-83.0,56.0,-2.0,-14.0,0
7.0,-237.0,-74.0,55.0,-3.0,-14.0,0
5.0,-238.0,-76.0,53.0,-1.0,-12.0,0
8.0,-233.0,-78.0,52.0,0.0,-12.0,0
6.0,-234.0,-77.0,50.0,0.0,-14.0,0
7.0,-235.0,-76.0,49.0,2.0,-13.0,0
6.0,-234.0,-80.0,47.0,2.0,-14.0,0
12.0,-236.0,-73.0,47.0,3.0,-14.0,0
7.0,-234.0,-74.0,47.0,3.0,-16.0,0
9.0,-237.0,-72.0,48.0,3.0,-16.0,0
9.0,-235.0,-76.0,49.0,3.0,-16.0,0
6.0,-233.0,-79.0,49.0,1.0,-15.0,0
9.0,-237.0,-78.0,50.0,2.0,-16.0,0
7.0,-239.0,-83.0,50.0,2.0,-17.0,0
8.0,-239.0,-77.0,50.0,1.0,-18.0,0
7.0,-237.0,-73.0,51.0,3.0,-17.0,0
9.0,-235.0,-77.0,51.0,2.0,-18.0,0
7.0,-235.0,-78.0,52.0,4.0,-17.0,0
9.0,-237.0,-77.0,53.0,4.0,-17.0,0
7.0,-235.0,-74.0,50.0,4.0,-16.0,0
9.0,-236.0,-78.0,48.0,2.0,-17.0,0
9.0,-235.0,-73.0,46.0,3.0,-18.0,0
11.0,-236.0,-75.0,46.0,2.0,-19.0,0
8.0,-237.0,-71.0,47.0,1.0,-16.0,0
6.0,-233.0,-81.0,49.0,3.0,-17.0,0
7.0,-235.0,-77.0,50.0,3.0,-17.0,0
8.0,-237.0,-72.0,50.0,3.0,-16.0,0
7.0,-235.0,-77.0,52.0,4.0,-17.0,0
11.0,-237.0,-74.0,52.0,4.0,-18.0,0
9.0,-236.0,-72.0,53.0,7.0,-17.0,0
9.0,-235.0,-74.0,54.0,7.0,-18.0,0
6.0,-239.0,-80.0,56.0,8.0,-18.0,0
5.0,-236.0,-76.0,58.0,8.0,-18.0,0
10.0,-242.0,-74.0,61.0,8.0,-17.0,0
6.0,-234.0,-71.0,63.0,8.0,-16.0,0
12.0,-244.0,-73.0,64.0,8.0,-16.0,0
8.0,-237.0,-74.0,66.0,6.0,-15.0,0
11.0,-236.0,-73.0,67.0,6.0,-15.0,0
9.0,-236.0,-74.0,69.0,7.0,-16.0,0
8.0,-238.0,-78.0,70.0,8.0,-14.0,0
7.0,-237.0,-75.0,71.0,9.0,-14.0,0
6.0,-236.0,-77.0,71.0,7.0,-13.0,0
10.0,-235.0,-72.0,71.0,8.0,-14.0,0
7.0,-235.0,-72.0,72.0,8.0,-13.0,0
10.0,-235.0,-73.0,71.0,8.0,-14.0,0
9.0,-237.0,-76.0,70.0,8.0,-15.0,0
4.0,-235.0,-72.0,69.0,8.0,-15.0,0
8.0,-234.0,-75.0,67.0,9.0,-15.0,0
7.0,-237.0,-74.0,64.0,9.0,-15.0,0
8.0,-235.0,-74.0,63.0,6.0,-16.0,0
5.0,-233.0,-77.0,61.0,6.0,-16.0,0
8.0,-237.0,-78.0,61.0,5.0,-17.0,0
10.0,-239.0,-76.0,63.0,3.0,-19.0,0
5.0,-236.0,-75.0,66.0,5.0,-17.0,0
9.0,-237.0,-73.0,70.0,5.0,-16.0,0
6.0,-237.0,-77.0,73.0,4.0,-17.0,0
13.0,-236.0,-75.0,75.0,5.0,-15.0,0
8.0,-234.0,-77.0,72.0,6.0,-13.0,0
7.0,-235.0,-79.0,68.0,8.0,-13.0,0
12.0,-236.0,-75.0,66.0,8.0,-14.0,0
9.0,-236.0,-78.0,64.0,10.0,-11.0,0
8.0,-234.0,-77.0,65.0,10.0,-10.0,0
7.0,-235.0,-77.0,64.0,11.0,-10.0,0
8.0,-237.0,-77.0,64.0,12.0,-11.0,0
6.0,-234.0,-74.0,64.0,12.0,-11.0,0
9.0,-242.0,-71.0,64.0,13.0,-9.0,0
10.0,-238.0,-74.0,66.0,13.0,-10.0,0
7.0,-236.0,-67.0,70.0,13.0,-9.0,0
5.0,-237.0,-73.0,71.0,14.0,-10.0,0
6.0,-235.0,-72.0,76.0,13.0,-9.0,0
6.0,-236.0,-76.0,78.0,13.0,-9.0,0
8.0,-237.0,-74.0,81.0,12.0,-9.0,0
8.0,-237.0,-76.0,82.0,12.0,-7.0,0
8.0,-236.0,-75.0,83.0,11.0,-8.0,0
6.0,-235.0,-77.0,81.0,9.0,-9.0,0
7.0,-234.0,-78.0,78.0,9.0,-9.0,0
7.0,-238.0,-78.0,74.0,8.0,-11.0,0
9.0,-234.0,-71.0,71.0,8.0,-9.0,0
9.0,-235.0,-77.0,67.0,9.0,-9.0,0
8.0,-237.0,-76.0,63.0,11.0,-7.0,0
8.0,-236.0,-74.0,58.0,12.0,-8.0,0
6.0,-235.0,-76.0,57.0,13.0,-8.0,0
8.0,-238.0,-77.0,56.0,15.0,-7.0,0
8.0,-240.0,-77.0,53.0,18.0,-7.0,0
8.0,-235.0,-75.0,52.0,20.0,-6.0,0
8.0,-236.0,-78.0,51.0,22.0,-7.0,0
6.0,-236.0,-81.0,49.0,24.0,-6.0,0
9.0,-236.0,-75.0,47.0,28.0,-6.0,0
9.0,-232.0,-78.0,49.0,29.0,-9.0,0
9.0,-229.0,-77.0,50.0,29.0,-9.0,0
6.0,-244.0,-76.0,53.0,31.0,-10.0,0
7.0,-235.0,-76.0,56.0,30.0,-9.0,0
6.0,-234.0,-76.0,58.0,30.0,-9.0,0
5.0,-235.0,-76.0,59.0,29.0,-8.0,0
8.0,-236.0,-76.0,61.0,27.0,-10.0,0
11.0,-238.0,-75.0,61.0,27.0,-7.0,0
10.0,-237.0,-71.0,58.0,27.0,-9.0,0
5.0,-234.0,-74.0,56.0,26.0,-8.0,0
4.0,-236.0,-77.0,53.0,26.0,-7.0,0
8.0,-236.0,-78.0,50.0,27.0,-7.0,0
9.0,-233.0,-81.0,48.0,27.0,-8.0,0
9.0,-238.0,-76.0,48.0,28.0,-8.0,0
9.0,-238.0,-74.0,48.0,27.0,-8.0,0
3.0,-234.0,-77.0,50.0,25.0,-9.0,0
6.0,-236.0,-73.0,55.0,24.0,-9.0,0
4.0,-236.0,-72.0,59.0,23.0,-9.0,0
5.0,-236.0,-78.0,64.0,23.0,-10.0,0
10.0,-239.0,-75.0,66.0,23.0,-10.0,0
7.0,-241.0,-74.0,65.0,22.0,-10.0,0
5.0,-237.0,-72.0,64.0,19.0,-11.0,0
8.0,-239.0,-75.0,62.0,18.0,-9.0,0
4.0,-234.0,-74.0,63.0,16.0,-10.0,0
6.0,-237.0,-76.0,62.0,15.0,-11.0,0
6.0,-236.0,-74.0,62.0,15.0,-11.0,0
6.0,-237.0,-79.0,60.0,14.0,-11.0,0
6.0,-237.0,-71.0,60.0,14.0,-12.0,0
7.0,-235.0,-72.0,60.0,14.0,-10.0,0
8.0,-239.0,-69.0,58.0,15.0,-11.0,0
8.0,-240.0,-73.0,58.0,16.0,-11.0,0
6.0,-234.0,-74.0,59.0,16.0,-11.0,0
10.0,-241.0,-71.0,59.0,17.0,-12.0,0
6.0,-239.0,-72.0,60.0,17.0,-12.0,0
11.0,-242.0,-70.0,61.0,18.0,-13.0,0
7.0,-240.0,-77.0,63.0,19.0,-13.0,0
6.0,-237.0,-71.0,65.0,18.0,-12.0,0
9.0,-235.0,-78.0,69.0,18.0,-13.0,0
9.0,-237.0,-78.0,70.0,17.0,-13.0,0
8.0,-240.0,-69.0,73.0,17.0,-13.0,0
10.0,-238.0,-74.0,75.0,16.0,-12.0,0
4.0,-233.0,-73.0,77.0,15.0,-13.0,0
8.0,-235.0,-71.0,79.0,15.0,-12.0,0
9.0,-234.0,-71.0,80.0,15.0,-13.0,0
10.0,-238.0,-72.0,80.0,14.0,-13.0,0
13.0,-235.0,-75.0,81.0,15.0,-15.0,0
7.0,-234.0,-75.0,81.0,15.0,-12.0,0
9.0,-234.0,-75.0,80.0,15.0,-13.0,0
7.0,-235.0,-75.0,78.0,14.0,-11.0,0
8.0,-237.0,-75.0,74.0,15.0,-13.0,0
5.0,-235.0,-75.0,72.0,14.0,-12.0,0
10.0,-238.0,-69.0,68.0,15.0,-12.0,0
9.0,-235.0,-75.0,67.0,15.0,-10.0,0
9.0,-236.0,-71.0,65.0,17.0,-12.0,0
8.0,-234.0,-75.0,65.0,17.0,-10.0,0
11.0,-239.0,-75.0,64.0,18.0,-11.0,0
8.0,-232.0,-72.0,66.0,19.0,-11.0,0
9.0,-236.0,-71.0,66.0,20.0,-9.0,0
10.0,-239.0,-76.0,68.0,21.0,-10.0,0
5.0,-239.0,-72.0,67.0,23.0,-10.0,0
9.0,-240.0,-74.0,68.0,22.0,-11.0,0
7.0,-239.0,-73.0,69.0,22.0,-11.0,0
9.0,-239.0,-75.0,68.0,21.0,-10.0,0
9.0,-241.0,-75.0,68.0,21.0,-9.0,0
9.0,-234.0,-73.0,67.0,22.0,-10.0,0
8.0,-235.0,-79.0,66.0,23.0,-10.0,0
4.0,-232.0,-81.0,64.0,23.0,-9.0,0
7.0,-236.0,-73.0,63.0,24.0,-8.0,0
4.0,-237.0,-71.0,64.0,25.0,-7.0,0
8.0,-238.0,-76.0,63.0,26.0,-7.0,0
9.0,-233.0,-74.0,63.0,26.0,-8.0,0
9.0,-236.0,-71.0,61.0,26.0,-7.0,0
7.0,-235.0,-73.0,62.0,26.0,-8.0,0
13.0,-240.0,-73.0,61.0,27.0,-7.0,0
9.0,-234.0,-70.0,61.0,28.0,-6.0,0
9.0,-239.0,-77.0,61.0,29.0,-7.0,0
15.0,-234.0,-74.0,60.0,28.0,-8.0,0
14.0,-236.0,-79.0,61.0,28.0,-7.0,0
7.0,-236.0,-72.0,60.0,28.0,-8.0,0
10.0,-238.0,-72.0,61.0,28.0,-9.0,0
8.0,-237.0,-73.0,61.0,28.0,-9.0,0
10.0,-236.0,-78.0,61.0,28.0,-8.0,0
6.0,-236.0,-73.0,60.0,29.0,-8.0,0
6.0,-236.0,-74.0,62.0,30.0,-8.0,0
4.0,-235.0,-75.0,63.0,32.0,-8.0,0
9.0,-239.0,-72.0,63.0,31.0,-9.0,0
10.0,-239.0,-75.0,63.0,32.0,-10.0,0
11.0,-242.0,-70.0,64.0,32.0,-8.0,0
12.0,-239.0,-77.0,64.0,31.0,-7.0,0
7.0,-236.0,-73.0,62.0,31.0,-7.0,0
6.0,-236.0,-74.0,62.0,28.0,-6.0,0
7.0,-237.0,-75.0,61.0,27.0,-7.0,0
8.0,-237.0,-73.0,61.0,25.0,-8.0,0
7.0,-235.0,-71.0,62.0,25.0,-10.0,0
6.0,-236.0,-73.0,62.0,24.0,-10.0,0
7.0,-235.0,-71.0,60.0,23.0,-11.0,0
9.0,-234.0,-69.0,61.0,21.0,-11.0,0
8.0,-241.0,-72.0,62.0,19.0,-12.0,0
8.0,-239.0,-70.0,63.0,17.0,-11.0,0
9.0,-241.0,-81.0,64.0,16.0,-11.0,0
7.0,-238.0,-72.0,67.0,14.0,-10.0,0
8.0,-240.0,-75.0,70.0,14.0,-11.0,0
6.0,-235.0,-75.0,72.0,15.0,-11.0,0
11.0,-234.0,-78.0,72.0,15.0,-9.0,0
9.0,-239.0,-78.0,68.0,16.0,-9.0,0
12.0,-234.0,-73.0,66.0,17.0,-9.0,0
9.0,-237.0,-73.0,63.0,18.0,-9.0,0
11.0,-235.0,-66.0,59.0,19.0,-7.0,0
14.0,-236.0,-72.0,55.0,21.0,-8.0,0
12.0,-236.0,-70.0,53.0,18.0,-7.0,0
15.0,-233.0,-75.0,50.0,18.0,-9.0,0
12.0,-239.0,-70.0,50.0,17.0,-8.0,0
8.0,-238.0,-73.0,52.0,17.0,-8.0,0
10.0,-242.0,-73.0,55.0,17.0,-10.0,0
9.0,-240.0,-71.0,59.0,19.0,-10.0,0
7.0,-240.0,-71.0,63.0,21.0,-10.0,0
5.0,-239.0,-71.0,66.0,21.0,-10.0,0
13.0,-237.0,-74.0,69.0,21.0,-10.0,0
8.0,-239.0,-68.0,71.0,20.0,-11.0,0
9.0,-238.0,-71.0,73.0,20.0,-12.0,0
10.0,-241.0,-70.0,74.0,20.0,-14.0,0
13.0,-242.0,-73.0,74.0,19.0,-12.0,0
10.0,-238.0,-73.0,73.0,18.0,-13.0,0
9.0,-239.0,-71.0,73.0,19.0,-12.0,0
10.0,-235.0,-75.0,72.0,18.0,-12.0,0
9.0,-236.0,-74.0,69.0,18.0,-13.0,0
10.0,-235.0,-73.0,64.0,16.0,-12.0,0
11.0,-237.0,-73.0,60.0,15.0,-11.0,0
5.0,-235.0,-78.0,57.0,17.0,-10.0,0
9.0,-241.0,-78.0,55.0,18.0,-10.0,0
6.0,-239.0,-72.0,54.0,20.0,-9.0,0
8.0,-233.0,-77.0,54.0,20.0,-9.0,0
7.0,-237.0,-76.0,54.0,20.0,-11.0,0
9.0,-239.0,-76.0,57.0,20.0,-10.0,0
9.0,-238.0,-71.0,59.0,22.0,-11.0,0
8.0,-239.0,-73.0,60.0,22.0,-11.0,0
7.0,-236.0,-73.0,60.0,23.0,-11.0,0
4.0,-235.0,-76.0,61.0,24.0,-9.0,0
8.0,-238.0,-72.0,60.0,24.0,-9.0,0
6.0,-234.0,-74.0,61.0,24.0,-9.0,0
7.0,-237.0,-70.0,61.0,23.0,-9.0,0
10.0,-241.0,-68.0,61.0,21.0,-10.0,0
11.0,-237.0,-71.0,58.0,21.0,-9.0,0
5.0,-234.0,-77.0,56.0,21.0,-9.0,0
8.0,-239.0,-72.0,53.0,22.0,-11.0,0
6.0,-232.0,-74.0,49.0,22.0,-11.0,0
7.0,-237.0,-70.0,47.0,22.0,-12.0,0
7.0,-237.0,-72.0,46.0,20.0,-12.0,0
6.0,-234.0,-72.0,43.0,19.0,-12.0,0
9.0,-239.0,-74.0,45.0,18.0,-11.0,0
6.0,-236.0,-71.0,45.0,17.0,-11.0,0
8.0,-237.0,-75.0,46.0,15.0,-11.0,0
10.0,-236.0,-77.0,47.0,16.0,-12.0,0
7.0,-239.0,-73.0,47.0,15.0,-11.0,0
10.0,-242.0,-67.0,47.0,15.0,-11.0,0
9.0,-239.0,-71.0,49.0,13.0,-11.0,0
7.0,-238.0,-73.0,49.0,12.0,-11.0,0
8.0,-236.0,-73.0,50.0,11.0,-11.0,0
8.0,-239.0,-74.0,49.0,10.0,-10.0,0
8.0,-239.0,-72.0,49.0,8.0,-11.0,0
10.0,-239.0,-74.0,50.0,8.0,-11.0,0
9.0,-240.0,-71.0,50.0,8.0,-12.0,0
8.0,-237.0,-79.0,52.0,7.0,-14.0,0
6.0,-236.0,-75.0,53.0,7.0,-14.0,0
8.0,-236.0,-79.0,54.0,8.0,-13.0,0
6.0,-237.0,-72.0,54.0,8.0,-12.0,0
9.0,-238.0,-73.0,54.0,9.0,-10.0,0
8.0,-236.0,-70.0,55.0,8.0,-12.0,0
8.0,-235.0,-71.0,57.0,9.0,-13.0,0
6.0,-237.0,-73.0,58.0,10.0,-10.0,0
11.0,-236.0,-73.0,57.0,8.0,-12.0,0
8.0,-238.0,-73.0,57.0,9.0,-14.0,0
8.0,-234.0,-77.0,54.0,8.0,-14.0,0
8.0,-236.0,-73.0,51.0,8.0,-14.0,0
9.0,-235.0,-72.0,50.0,9.0,-14.0,0
6.0,-237.0,-83.0,49.0,9.0,-13.0,0
9.0,-235.0,-71.0,46.0,9.0,-13.0,0
10.0,-238.0,-69.0,47.0,9.0,-13.0,0
8.0,-238.0,-73.0,47.0,10.0,-13.0,0
11.0,-236.0,-73.0,47.0,8.0,-14.0,0
7.0,-237.0,-71.0,47.0,8.0,-13.0,0
11.0,-238.0,-72.0,47.0,7.0,-14.0,0
8.0,-236.0,-75.0,47.0,6.0,-13.0,0
11.0,-234.0,-74.0,49.0,7.0,-14.0,0
10.0,-236.0,-73.0,48.0,7.0,-13.0,0
8.0,-238.0,-73.0,49.0,8.0,-14.0,0
9.0,-234.0,-74.0,47.0,8.0,-12.0,0
7.0,-234.0,-72.0,47.0,8.0,-14.0,0
7.0,-238.0,-70.0,46.0,7.0,-13.0,0
7.0,-237.0,-70.0,47.0,10.0,-12.0,0
5.0,-235.0,-75.0,47.0,10.0,-13.0,0
6.0,-240.0,-72.0,46.0,11.0,-13.0,0
8.0,-237.0,-76.0,46.0,13.0,-12.0,0
7.0,-238.0,-76.0,47.0,12.0,-14.0,0
8.0,-235.0,-75.0,46.0,11.0,-13.0,0
10.0,-238.0,-73.0,44.0,12.0,-13.0,0
11.0,-236.0,-73.0,44.0,13.0,-14.0,0
10.0,-235.0,-73.0,44.0,13.0,-12.0,0
7.0,-234.0,-73.0,44.0,12.0,-13.0,0
9.0,-240.0,-75.0,43.0,12.0,-14.0,0
10.0,-237.0,-74.0,43.0,11.0,-13.0,0
7.0,-237.0,-73.0,43.0,10.0,-12.0,0
7.0,-237.0,-71.0,42.0,9.0,-14.0,0
11.0,-237.0,-74.0,42.0,11.0,-13.0,0
7.0,-235.0,-79.0,43.0,10.0,-14.0,0
8.0,-240.0,-71.0,44.0,11.0,-13.0,0
9.0,-238.0,-71.0,47.0,10.0,-12.0,0
8.0,-239.0,-71.0,47.0,10.0,-13.0,0
11.0,-242.0,-72.0,49.0,10.0,-10.0,0
8.0,-239.0,-75.0,51.0,12.0,-13.0,0
8.0,-238.0,-72.0,53.0,11.0,-13.0,0
9.0,-239.0,-70.0,53.0,12.0,-12.0,0
8.0,-237.0,-70.0,53.0,13.0,-12.0,0
7.0,-238.0,-72.0,53.0,13.0,-12.0,0
8.0,-237.0,-72.0,53.0,13.0,-10.0,0
10.0,-237.0,-73.0,53.0,13.0,-11.0,0
9.0,-237.0,-73.0,51.0,13.0,-11.0,0
7.0,-239.0,-74.0,50.0,11.0,-14.0,0
7.0,-238.0,-74.0,50.0,11.0,-13.0,0
10.0,-235.0,-65.0,50.0,10.0,-13.0,0
6.0,-235.0,-75.0,51.0,8.0,-13.0,0
6.0,-236.0,-73.0,50.0,7.0,-13.0,0
5.0,-236.0,-75.0,52.0,7.0,-12.0,0
8.0,-235.0,-73.0,52.0,6.0,-13.0,0
10.0,-236.0,-74.0,51.0,5.0,-12.0,0
8.0,-237.0,-73.0,52.0,4.0,-12.0,0
7.0,-237.0,-71.0,50.0,3.0,-14.0,0
7.0,-237.0,-74.0,52.0,4.0,-14.0,0
10.0,-236.0,-73.0,52.0,3.0,-14.0,0
9.0,-235.0,-72.0,54.0,4.0,-13.0,0
6.0,-240.0,-75.0,54.0,5.0,-14.0,0
9.0,-236.0,-77.0,53.0,5.0,-13.0,0
9.0,-235.0,-75.0,50.0,4.0,-12.0,0
6.0,-236.0,-73.0,48.0,3.0,-11.0,0
6.0,-236.0,-73.0,46.0,3.0,-14.0,0
9.0,-239.0,-74.0,45.0,2.0,-14.0,0
9.0,-235.0,-70.0,46.0,2.0,-12.0,0
11.0,-236.0,-78.0,48.0,2.0,-12.0,0
9.0,-236.0,-77.0,49.0,2.0,-12.0,0
9.0,-237.0,-80.0,48.0,5.0,-11.0,0
11.0,-239.0,-78.0,47.0,7.0,-10.0,0
10.0,-239.0,-72.0,45.0,9.0,-10.0,0
13.0,-240.0,-71.0,43.0,10.0,-11.0,0
8.0,-237.0,-73.0,41.0,10.0,-12.0,0
7.0,-235.0,-71.0,39.0,12.0,-11.0,0
11.0,-240.0,-73.0,38.0,11.0,-11.0,0
11.0,-236.0,-73.0,39.0,12.0,-11.0,0
8.0,-236.0,-73.0,40.0,12.0,-10.0,0
7.0,-236.0,-70.0,44.0,12.0,-10.0,0
9.0,-237.0,-76.0,45.0,12.0,-11.0,0
4.0,-237.0,-69.0,48.0,13.0,-10.0,0
7.0,-241.0,-68.0,49.0,12.0,-12.0,0
9.0,-235.0,-79.0,50.0,12.0,-14.0,0
7.0,-240.0,-76.0,53.0,13.0,-12.0,0
7.0,-236.0,-72.0,54.0,12.0,-12.0,0
9.0,-238.0,-75.0,55.0,10.0,-14.0,0
7.0,-237.0,-75.0,54.0,9.0,-12.0,0
8.0,-237.0,-74.0,55.0,10.0,-12.0,0
8.0,-238.0,-75.0,53.0,8.0,-13.0,0
9.0,-236.0,-72.0,50.0,7.0,-12.0,0
7.0,-235.0,-70.0,46.0,7.0,-11.0,0
10.0,-238.0,-72.0,43.0,7.0,-11.0,0
7.0,-237.0,-71.0,39.0,8.0,-12.0,0
8.0,-235.0,-76.0,37.0,8.0,-12.0,0
6.0,-236.0,-73.0,36.0,9.0,-12.0,0
8.0,-238.0,-71.0,35.0,10.0,-12.0,0
7.0,-235.0,-75.0,34.0,10.0,-12.0,0
8.0,-235.0,-74.0,35.0,12.0,-11.0,0
8.0,-235.0,-75.0,37.0,13.0,-10.0,0
8.0,-236.0,-75.0,39.0,13.0,-10.0,0
8.0,-238.0,-79.0,41.0,12.0,-10.0,0
11.0,-237.0,-76.0,42.0,12.0,-11.0,0
10.0,-236.0,-71.0,43.0,11.0,-8.0,0
9.0,-237.0,-72.0,44.0,11.0,-10.0,0
9.0,-237.0,-76.0,44.0,11.0,-10.0,0
11.0,-239.0,-72.0,46.0,11.0,-8.0,0
10.0,-239.0,-78.0,44.0,13.0,-8.0,0
7.0,-236.0,-74.0,43.0,12.0,-9.0,0
9.0,-237.0,-71.0,42.0,12.0,-9.0,0
11.0,-235.0,-74.0,42.0,13.0,-10.0,0
7.0,-233.0,-76.0,40.0,13.0,-9.0,0
9.0,-238.0,-74.0,39.0,13.0,-10.0,0
13.0,-236.0,-71.0,39.0,12.0,-12.0,0
8.0,-236.0,-71.0,38.0,11.0,-12.0,0
9.0,-240.0,-75.0,38.0,10.0,-11.0,0
10.0,-236.0,-78.0,40.0,9.0,-12.0,0
6.0,-237.0,-76.0,41.0,9.0,-12.0,0
6.0,-235.0,-75.0,41.0,8.0,-12.0,0
10.0,-236.0,-76.0,39.0,8.0,-10.0,0
9.0,-236.0,-76.0,40.0,10.0,-11.0,0
10.0,-237.0,-73.0,39.0,9.0,-10.0,0
9.0,-238.0,-75.0,39.0,8.0,-9.0,0
10.0,-238.0,-73.0,38.0,8.0,-9.0,0
10.0,-233.0,-74.0,39.0,8.0,-9.0,0
10.0,-238.0,-80.0,39.0,7.0,-10.0,0
7.0,-237.0,-67.0,40.0,8.0,-10.0,0
10.0,-238.0,-72.0,41.0,9.0,-9.0,0
7.0,-236.0,-78.0,40.0,9.0,-10.0,0
9.0,-238.0,-76.0,41.0,10.0,-10.0,0
7.0,-237.0,-73.0,42.0,12.0,-9.0,0
9.0,-235.0,-74.0,43.0,13.0,-10.0,0
9.0,-240.0,-74.0,44.0,14.0,-12.0,0
11.0,-235.0,-78.0,43.0,13.0,-12.0,0
15.0,-239.0,-74.0,44.0,12.0,-12.0,0
8.0,-241.0,-77.0,42.0,14.0,-11.0,0
7.0,-238.0,-75.0,44.0,15.0,-10.0,0
7.0,-235.0,-78.0,42.0,15.0,-11.0,0
10.0,-238.0,-73.0,42.0,15.0,-12.0,0
7.0,-234.0,-75.0,41.0,15.0,-11.0,0
11.0,-237.0,-72.0,42.0,15.0,-10.0,0
10.0,-241.0,-74.0,41.0,16.0,-10.0,0
9.0,-236.0,-73.0,40.0,16.0,-9.0,0
10.0,-239.0,-73.0,43.0,15.0,-10.0,0
13.0,-241.0,-75.0,42.0,13.0,-11.0,0
5.0,-237.0,-75.0,42.0,15.0,-10.0,0
7.0,-234.0,-79.0,42.0,13.0,-11.0,0
6.0,-233.0,-75.0,41.0,14.0,-9.0,0
9.0,-239.0,-72.0,40.0,15.0,-10.0,0
7.0,-234.0,-77.0,37.0,15.0,-9.0,0
8.0,-235.0,-76.0,36.0,15.0,-10.0,0
7.0,-234.0,-73.0,34.0,16.0,-9.0,0
12.0,-237.0,-77.0,33.0,17.0,-10.0,0
9.0,-238.0,-75.0,32.0,17.0,-11.0,0
9.0,-235.0,-73.0,31.0,19.0,-9.0,0
13.0,-236.0,-72.0,31.0,19.0,-9.0,0
10.0,-235.0,-70.0,30.0,19.0,-9.0,0
8.0,-240.0,-74.0,29.0,20.0,-8.0,0
9.0,-238.0,-74.0,29.0,21.0,-9.0,0
11.0,-236.0,-79.0,30.0,21.0,-9.0,0
9.0,-239.0,-78.0,29.0,21.0,-10.0,0
8.0,-238.0,-73.0,30.0,21.0,-11.0,0
9.0,-240.0,-71.0,31.0,20.0,-10.0,0
8.0,-237.0,-74.0,31.0,19.0,-11.0,0
8.0,-237.0,-77.0,31.0,19.0,-11.0,0
7.0,-237.0,-72.0,32.0,20.0,-12.0,0
9.0,-241.0,-76.0,32.0,20.0,-11.0,0
11.0,-241.0,-79.0,33.0,18.0,-10.0,0
8.0,-235.0,-76.0,34.0,17.0,-10.0,0
9.0,-234.0,-80.0,34.0,18.0,-7.0,0
7.0,-236.0,-71.0,37.0,18.0,-9.0,0
9.0,-239.0,-70.0,37.0,18.0,-11.0,0
8.0,-238.0,-73.0,39.0,18.0,-11.0,0
9.0,-239.0,-73.0,40.0,18.0,-11.0,0
7.0,-237.0,-78.0,41.0,18.0,-11.0,0
5.0,-236.0,-78.0,44.0,17.0,-12.0,0
8.0,-236.0,-74.0,45.0,18.0,-12.0,0
6.0,-240.0,-78.0,46.0,18.0,-13.0,0
7.0,-238.0,-76.0,44.0,18.0,-13.0,0
9.0,-238.0,-75.0,43.0,18.0,-13.0,0
9.0,-237.0,-71.0,42.0,19.0,-13.0,0
12.0,-239.0,-75.0,43.0,18.0,-13.0,0
6.0,-237.0,-72.0,43.0,18.0,-13.0,0
8.0,-237.0,-78.0,43.0,18.0,-12.0,0
6.0,-237.0,-78.0,44.0,17.0,-13.0,0
8.0,-237.0,-77.0,47.0,17.0,-11.0,0
9.0,-237.0,-75.0,47.0,17.0,-12.0,0
10.0,-236.0,-78.0,47.0,15.0,-13.0,0
6.0,-233.0,-71.0,47.0,15.0,-11.0,0
12.0,-238.0,-81.0,46.0,15.0,-11.0,0
5.0,-235.0,-72.0,46.0,14.0,-12.0,0
4.0,-233.0,-75.0,47.0,14.0,-12.0,0
4.0,-233.0,-80.0,47.0,12.0,-12.0,0
9.0,-236.0,-73.0,48.0,12.0,-14.0,0
10.0,-234.0,-71.0,47.0,11.0,-13.0,0
9.0,-236.0,-77.0,47.0,10.0,-13.0,0
7.0,-237.0,-74.0,47.0,11.0,-13.0,0
8.0,-237.0,-72.0,46.0,9.0,-14.0,0
7.0,-241.0,-77.0,47.0,8.0,-14.0,0
7.0,-240.0,-72.0,48.0,7.0,-14.0,0
9.0,-239.0,-75.0,52.0,6.0,-12.0,0
5.0,-230.0,-82.0,57.0,4.0,-14.0,0
11.0,-237.0,-68.0,60.0,3.0,-12.0,0
7.0,-232.0,-77.0,63.0,5.0,-12.0,0
8.0,-235.0,-77.0,62.0,6.0,-12.0,0
9.0,-233.0,-79.0,61.0,7.0,-10.0,0
7.0,-234.0,-80.0,57.0,9.0,-10.0,0
6.0,-236.0,-78.0,53.0,11.0,-10.0,0
8.0,-233.0,-77.0,49.0,11.0,-10.0,0
11.0,-238.0,-72.0,45.0,13.0,-11.0,0
5.0,-235.0,-81.0,42.0,12.0,-12.0,0
8.0,-235.0,-76.0,39.0,11.0,-11.0,0
8.0,-238.0,-76.0,40.0,9.0,-11.0,0
10.0,-240.0,-75.0,42.0,11.0,-11.0,0
10.0,-238.0,-74.0,43.0,12.0,-11.0,0
9.0,-236.0,-74.0,46.0,12.0,-10.0,0
11.0,-237.0,-78.0,50.0,13.0,-9.0,0
10.0,-241.0,-74.0,55.0,14.0,-10.0,0
8.0,-238.0,-75.0,60.0,17.0,-8.0,0
10.0,-238.0,-74.0,64.0,16.0,-8.0,0
9.0,-235.0,-73.0,67.0,15.0,-9.0,0
4.0,-238.0,-73.0,70.0,15.0,-10.0,0
11.0,-235.0,-76.0,70.0,16.0,-10.0,0
10.0,-234.0,-75.0,68.0,15.0,-10.0,0
5.0,-235.0,-81.0,64.0,15.0,-10.0,0
9.0,-235.0,-73.0,60.0,14.0,-10.0,0
9.0,-236.0,-72.0,56.0,13.0,-10.0,0
8.0,-236.0,-73.0,52.0,14.0,-10.0,0
9.0,-236.0,-74.0,49.0,15.0,-9.0,0
10.0,-237.0,-77.0,49.0,15.0,-9.0,0
8.0,-235.0,-71.0,47.0,16.0,-8.0,0
9.0,-238.0,-79.0,47.0,17.0,-9.0,0
8.0,-238.0,-76.0,49.0,17.0,-8.0,0
9.0,-238.0,-79.0,50.0,17.0,-8.0,0
8.0,-237.0,-73.0,52.0,18.0,-7.0,0
10.0,-229.0,-76.0,53.0,18.0,-9.0,0
11.0,-237.0,-74.0,55.0,19.0,-9.0,0
9.0,-237.0,-71.0,56.0,19.0,-8.0,0
9.0,-235.0,-71.0,57.0,20.0,-8.0,0
9.0,-236.0,-76.0,57.0,20.0,-6.0,0
8.0,-236.0,-78.0,57.0,21.0,-7.0,0
8.0,-235.0,-74.0,58.0,20.0,-7.0,0
7.0,-236.0,-77.0,59.0,20.0,-7.0,0
10.0,-236.0,-77.0,58.0,20.0,-8.0,0
7.0,-235.0,-71.0,58.0,20.0,-9.0,0
11.0,-237.0,-75.0,58.0,19.0,-8.0,0
5.0,-236.0,-66.0,59.0,17.0,-9.0,0
8.0,-236.0,-69.0,59.0,17.0,-9.0,0
3.0,-237.0,-59.0,60.0,16.0,-9.0,0
7.0,-232.0,-74.0,64.0,16.0,-10.0,0
7.0,-241.0,-70.0,65.0,15.0,-10.0,0
6.0,-234.0,-76.0,66.0,15.0,-11.0,0
10.0,-244.0,-72.0,65.0,14.0,-11.0,0
7.0,-228.0,-83.0,63.0,13.0,-9.0,0
10.0,-234.0,-80.0,60.0,12.0,-10.0,0
6.0,-236.0,-61.0,59.0,10.0,-8.0,0
12.0,-241.0,-85.0,57.0,10.0,-10.0,0
5.0,-231.0,-86.0,55.0,8.0,-10.0,0
12.0,-245.0,-73.0,54.0,7.0,-10.0,0
4.0,-243.0,-76.0,55.0,9.0,-11.0,0
10.0,-236.0,-73.0,56.0,8.0,-12.0,0
7.0,-237.0,-77.0,58.0,8.0,-11.0,0
1.0,-236.0,-72.0,58.0,8.0,-10.0,0
12.0,-241.0,-73.0,59.0,9.0,-10.0,0
18.0,-240.0,-76.0,59.0,10.0,-11.0,0
3.0,-240.0,-78.0,58.0,10.0,-9.0,0
3.0,-238.0,-77.0,58.0,11.0,-9.0,0
9.0,-238.0,-67.0,59.0,12.0,-11.0,0
9.0,-237.0,-73.0,60.0,12.0,-10.0,0
17.0,-236.0,-70.0,60.0,12.0,-10.0,0
12.0,-244.0,-68.0,58.0,12.0,-12.0,0
9.0,-239.0,-72.0,58.0,12.0,-12.0,0
7.0,-237.0,-72.0,59.0,12.0,-13.0,0
5.0,-233.0,-81.0,57.0,11.0,-13.0,0
7.0,-241.0,-73.0,57.0,10.0,-12.0,0
6.0,-240.0,-81.0,57.0,9.0,-13.0,0
9.0,-240.0,-78.0,59.0,11.0,-15.0,0
11.0,-235.0,-72.0,58.0,10.0,-13.0,0
7.0,-235.0,-75.0,57.0,12.0,-13.0,0
9.0,-237.0,-78.0,58.0,13.0,-14.0,0
16.0,-246.0,-76.0,57.0,13.0,-11.0,0
12.0,-238.0,-74.0,56.0,10.0,-12.0,0
8.0,-238.0,-73.0,58.0,12.0,-12.0,0
12.0,-239.0,-72.0,59.0,12.0,-11.0,0
9.0,-240.0,-72.0,57.0,12.0,-11.0,0
13.0,-239.0,-67.0,56.0,11.0,-10.0,0
7.0,-239.0,-76.0,56.0,11.0,-10.0,0
11.0,-232.0,-77.0,56.0,10.0,-10.0,0
6.0,-238.0,-71.0,55.0,11.0,-10.0,0
7.0,-230.0,-67.0,55.0,10.0,-10.0,0
5.0,-234.0,-79.0,57.0,11.0,-10.0,0
9.0,-237.0,-76.0,58.0,12.0,-9.0,0
9.0,-236.0,-75.0,60.0,13.0,-11.0,0
9.0,-238.0,-73.0,61.0,14.0,-11.0,0
4.0,-238.0,-77.0,60.0,16.0,-10.0,0
9.0,-233.0,-75.0,59.0,15.0,-11.0,0
9.0,-237.0,-75.0,58.0,16.0,-10.0,0
9.0,-238.0,-71.0,55.0,16.0,-10.0,0
12.0,-237.0,-76.0,54.0,15.0,-10.0,0
10.0,-239.0,-77.0,53.0,15.0,-9.0,0
7.0,-236.0,-70.0,51.0,16.0,-10.0,0
13.0,-235.0,-68.0,50.0,15.0,-9.0,0
9.0,-236.0,-75.0,49.0,16.0,-9.0,0
8.0,-237.0,-76.0,50.0,19.0,-10.0,0
11.0,-237.0,-73.0,51.0,18.0,-8.0,0
9.0,-238.0,-72.0,51.0,18.0,-9.0,0
9.0,-239.0,-71.0,53.0,18.0,-11.0,0
10.0,-239.0,-71.0,54.0,20.0,-12.0,0
7.0,-242.0,-77.0,55.0,20.0,-12.0,0
7.0,-238.0,-76.0,58.0,20.0,-10.0,0
7.0,-239.0,-73.0,62.0,20.0,-9.0,0
8.0,-238.0,-70.0,63.0,22.0,-10.0,0
6.0,-238.0,-73.0,65.0,20.0,-11.0,0
10.0,-240.0,-72.0,65.0,20.0,-11.0,0
9.0,-236.0,-73.0,66.0,19.0,-11.0,0
8.0,-237.0,-73.0,65.0,19.0,-11.0,0
7.0,-237.0,-71.0,64.0,18.0,-13.0,0
5.0,-239.0,-70.0,63.0,17.0,-11.0,0
9.0,-238.0,-71.0,62.0,16.0,-11.0,0
11.0,-237.0,-76.0,63.0,16.0,-10.0,0
8.0,-237.0,-75.0,63.0,16.0,-10.0,0
8.0,-239.0,-74.0,63.0,16.0,-9.0,0
14.0,-238.0,-75.0,63.0,15.0,-11.0,0
8.0,-235.0,-74.0,63.0,14.0,-11.0,0
7.0,-234.0,-74.0,62.0,13.0,-10.0,0
12.0,-238.0,-73.0,61.0,14.0,-12.0,0
9.0,-237.0,-70.0,60.0,13.0,-11.0,0
8.0,-236.0,-73.0,59.0,13.0,-11.0,0
6.0,-237.0,-74.0,57.0,12.0,-13.0,0
9.0,-236.0,-73.0,56.0,10.0,-13.0,0
10.0,-244.0,-72.0,56.0,7.0,-13.0,0
7.0,-237.0,-75.0,56.0,7.0,-13.0,0
8.0,-236.0,-71.0,57.0,4.0,-13.0,0
8.0,-238.0,-74.0,58.0,3.0,-13.0,0
10.0,-238.0,-77.0,61.0,2.0,-12.0,0
9.0,-235.0,-77.0,65.0,2.0,-12.0,0
9.0,-238.0,-71.0,67.0,2.0,-11.0,0
9.0,-236.0,-77.0,67.0,2.0,-12.0,0
10.0,-239.0,-75.0,65.0,3.0,-12.0,0
11.0,-240.0,-76.0,64.0,5.0,-11.0,0
7.0,-239.0,-74.0,62.0,7.0,-9.0,0
10.0,-236.0,-69.0,59.0,8.0,-9.0,0
11.0,-239.0,-73.0,58.0,8.0,-9.0,0
6.0,-234.0,-72.0,56.0,10.0,-10.0,0
7.0,-232.0,-80.0,57.0,9.0,-12.0,0
11.0,-240.0,-76.0,58.0,9.0,-11.0,0
11.0,-237.0,-72.0,61.0,10.0,-11.0,0
8.0,-237.0,-69.0,65.0,10.0,-11.0,0
11.0,-238.0,-74.0,66.0,12.0,-11.0,0
10.0,-237.0,-76.0,67.0,12.0,-11.0,0
8.0,-236.0,-74.0,69.0,13.0,-11.0,0
10.0,-234.0,-74.0,69.0,14.0,-12.0,0
6.0,-237.0,-73.0,68.0,13.0,-12.0,0
11.0,-232.0,-76.0,68.0,13.0,-12.0,0
8.0,-235.0,-72.0,69.0,12.0,-11.0,0
9.0,-237.0,-69.0,68.0,13.0,-11.0,0
10.0,-236.0,-75.0,66.0,13.0,-11.0,0
9.0,-235.0,-75.0,66.0,13.0,-12.0,0
7.0,-233.0,-72.0,64.0,12.0,-11.0,0
7.0,-235.0,-77.0,63.0,12.0,-11.0,0
8.0,-238.0,-75.0,60.0,12.0,-10.0,0
9.0,-235.0,-72.0,59.0,13.0,-9.0,0
8.0,-236.0,-76.0,56.0,14.0,-10.0,0
8.0,-235.0,-73.0,55.0,13.0,-10.0,0
9.0,-236.0,-71.0,53.0,13.0,-10.0,0
6.0,-232.0,-75.0,52.0,14.0,-9.0,0
8.0,-234.0,-67.0,53.0,14.0,-9.0,0
8.0,-237.0,-72.0,53.0,15.0,-10.0,0
8.0,-236.0,-76.0,55.0,15.0,-9.0,0
8.0,-238.0,-77.0,54.0,17.0,-8.0,0
9.0,-237.0,-70.0,55.0,18.0,-8.0,0
11.0,-236.0,-68.0,54.0,17.0,-7.0,0
8.0,-237.0,-76.0,55.0,18.0,-8.0,0
8.0,-240.0,-74.0,56.0,18.0,-8.0,0
7.0,-235.0,-74.0,56.0,19.0,-7.0,0
10.0,-240.0,-73.0,56.0,20.0,-9.0,0
6.0,-239.0,-72.0,57.0,19.0,-8.0,0
5.0,-240.0,-73.0,58.0,19.0,-9.0,0
8.0,-237.0,-74.0,57.0,18.0,-11.0,0
9.0,-237.0,-74.0,56.0,17.0,-12.0,0
10.0,-238.0,-75.0,56.0,15.0,-11.0,0
7.0,-234.0,-71.0,55.0,15.0,-12.0,0
9.0,-235.0,-74.0,55.0,14.0,-12.0,0
7.0,-235.0,-72.0,54.0,13.0,-12.0,0
6.0,-236.0,-73.0,54.0,13.0,-12.0,0
7.0,-239.0,-69.0,53.0,12.0,-10.0,0
5.0,-239.0,-76.0,51.0,10.0,-9.0,0
12.0,-240.0,-70.0,50.0,9.0,-9.0,0
4.0,-240.0,-75.0,48.0,8.0,-9.0,0
8.0,-237.0,-70.0,48.0,7.0,-11.0,0
12.0,-239.0,-70.0,48.0,7.0,-10.0,0
10.0,-239.0,-74.0,49.0,8.0,-11.0,0
9.0,-239.0,-73.0,47.0,8.0,-12.0,0
9.0,-241.0,-72.0,48.0,8.0,-11.0,0
11.0,-238.0,-73.0,48.0,8.0,-11.0,0
9.0,-239.0,-74.0,50.0,8.0,-9.0,0
9.0,-233.0,-73.0,50.0,10.0,-9.0,0
10.0,-238.0,-72.0,52.0,10.0,-11.0,0
8.0,-236.0,-76.0,52.0,11.0,-12.0,0
11.0,-239.0,-69.0,53.0,10.0,-10.0,0
9.0,-236.0,-77.0,54.0,11.0,-11.0,0
9.0,-238.0,-71.0,55.0,12.0,-11.0,0
9.0,-234.0,-75.0,56.0,10.0,-11.0,0
9.0,-237.0,-70.0,54.0,10.0,-10.0,0
8.0,-237.0,-71.0,53.0,10.0,-12.0,0
10.0,-238.0,-73.0,54.0,10.0,-11.0,0
12.0,-237.0,-75.0,52.0,11.0,-11.0,0
13.0,-237.0,-78.0,53.0,10.0,-11.0,0
11.0,-236.0,-77.0,51.0,9.0,-11.0,0
10.0,-244.0,-80.0,52.0,11.0,-11.0,0
13.0,-239.0,-73.0,51.0,11.0,-11.0,0
8.0,-235.0,-73.0,50.0,12.0,-11.0,0
10.0,-238.0,-71.0,51.0,11.0,-11.0,0
12.0,-239.0,-73.0,50.0,12.0,-12.0,0
12.0,-237.0,-73.0,49.0,11.0,-11.0,0
10.0,-239.0,-72.0,48.0,11.0,-13.0,0
7.0,-235.0,-74.0,46.0,10.0,-11.0,0
11.0,-235.0,-73.0,43.0,10.0,-10.0,0
12.0,-241.0,-73.0,43.0,9.0,-10.0,0
7.0,-237.0,-72.0,43.0,10.0,-11.0,0
11.0,-238.0,-71.0,44.0,9.0,-11.0,0
9.0,-234.0,-73.0,46.0,10.0,-9.0,0
6.0,-236.0,-72.0,48.0,11.0,-10.0,0
10.0,-236.0,-73.0,50.0,12.0,-9.0,0
10.0,-235.0,-71.0,50.0,12.0,-11.0,0
11.0,-238.0,-71.0,49.0,14.0,-10.0,0
8.0,-234.0,-72.0,50.0,14.0,-9.0,0
10.0,-240.0,-74.0,50.0,14.0,-9.0,0
8.0,-233.0,-72.0,49.0,15.0,-10.0,0
9.0,-241.0,-70.0,48.0,14.0,-10.0,0
5.0,-236.0,-69.0,46.0,15.0,-10.0,0
8.0,-237.0,-77.0,45.0,15.0,-10.0,0
11.0,-239.0,-75.0,44.0,15.0,-10.0,0
9.0,-236.0,-74.0,42.0,15.0,-10.0,0
10.0,-238.0,-71.0,41.0,16.0,-10.0,0
8.0,-236.0,-72.0,40.0,16.0,-11.0,0
9.0,-236.0,-71.0,40.0,17.0,-11.0,0
9.0,-240.0,-74.0,41.0,17.0,-10.0,0
11.0,-240.0,-73.0,42.0,17.0,-10.0,0
11.0,-239.0,-71.0,44.0,17.0,-9.0,0
9.0,-239.0,-76.0,46.0,16.0,-9.0,0
10.0,-234.0,-77.0,47.0,17.0,-10.0,0
11.0,-241.0,-66.0,49.0,18.0,-9.0,0
10.0,-240.0,-77.0,51.0,18.0,-8.0,0
10.0,-238.0,-72.0,53.0,17.0,-10.0,0
11.0,-241.0,-76.0,53.0,16.0,-10.0,0
10.0,-236.0,-75.0,56.0,16.0,-10.0,0
10.0,-234.0,-77.0,57.0,17.0,-10.0,0
8.0,-237.0,-75.0,57.0,17.0,-11.0,0
6.0,-236.0,-75.0,58.0,15.0,-11.0,0
8.0,-237.0,-77.0,58.0,16.0,-12.0,0
11.0,-235.0,-72.0,58.0,17.0,-11.0,0
8.0,-235.0,-74.0,58.0,17.0,-12.0,0
13.0,-234.0,-74.0,58.0,18.0,-12.0,0
8.0,-237.0,-71.0,56.0,18.0,-13.0,0
5.0,-236.0,-77.0,55.0,18.0,-11.0,0
9.0,-238.0,-76.0,55.0,17.0,-12.0,0
10.0,-238.0,-73.0,54.0,16.0,-11.0,0
10.0,-236.0,-72.0,55.0,14.0,-11.0,0
8.0,-236.0,-75.0,55.0,13.0,-13.0,0
8.0,-236.0,-76.0,52.0,13.0,-13.0,0
8.0,-239.0,-74.0,49.0,9.0,-12.0,0
10.0,-239.0,-70.0,49.0,9.0,-11.0,0
10.0,-235.0,-70.0,47.0,11.0,-11.0,0
6.0,-237.0,-80.0,47.0,11.0,-12.0,0
12.0,-238.0,-72.0,47.0,9.0,-14.0,0
8.0,-237.0,-68.0,50.0,6.0,-14.0,0
12.0,-237.0,-75.0,54.0,4.0,-14.0,0
7.0,-235.0,-71.0,56.0,3.0,-13.0,0
10.0,-237.0,-77.0,58.0,4.0,-10.0,0
10.0,-237.0,-73.0,58.0,6.0,-10.0,0
11.0,-234.0,-78.0,56.0,8.0,-9.0,0
10.0,-232.0,-77.0,52.0,12.0,-8.0,0
8.0,-238.0,-80.0,51.0,14.0,-8.0,0
8.0,-238.0,-76.0,47.0,15.0,-9.0,0
5.0,-242.0,-84.0,44.0,15.0,-9.0,0
9.0,-235.0,-72.0,43.0,14.0,-9.0,0
10.0,-236.0,-74.0,43.0,13.0,-10.0,0
8.0,-239.0,-70.0,42.0,13.0,-10.0,0
9.0,-240.0,-72.0,44.0,13.0,-10.0,0
9.0,-237.0,-72.0,47.0,14.0,-12.0,0
8.0,-239.0,-73.0,51.0,14.0,-10.0,0
