ax,ay,az,gx,gy,gz,label
34.0,-260.0,0.0,-69.0,-4.0,-3.0,0
34.0,-258.0,-2.0,-68.0,-6.0,-3.0,0
32.0,-257.0,-4.0,-69.0,-6.0,-3.0,0
32.0,-259.0,-3.0,-67.0,-7.0,-2.0,0
33.0,-262.0,-9.0,-67.0,-9.0,-2.0,0
30.0,-251.0,-4.0,-66.0,-10.0,-1.0,0
35.0,-261.0,-2.0,-63.0,-13.0,-1.0,0
35.0,-260.0,-6.0,-61.0,-12.0,-4.0,0
34.0,-260.0,-3.0,-59.0,-12.0,-4.0,0
33.0,-260.0,-4.0,-59.0,-11.0,-5.0,0
35.0,-260.0,-3.0,-59.0,-10.0,-6.0,0
30.0,-260.0,-5.0,-54.0,-9.0,-4.0,0
35.0,-261.0,-2.0,-53.0,-9.0,-6.0,0
34.0,-263.0,-10.0,-50.0,-8.0,-5.0,0
35.0,-264.0,-4.0,-47.0,-6.0,-6.0,0
42.0,-262.0,-6.0,-46.0,-6.0,-6.0,0
32.0,-259.0,-10.0,-42.0,-5.0,-5.0,0
32.0,-259.0,-6.0,-38.0,-5.0,-5.0,0
35.0,-261.0,-7.0,-36.0,-4.0,-6.0,0
34.0,-261.0,-7.0,-35.0,-4.0,-3.0,0
36.0,-261.0,-5.0,-32.0,-4.0,-4.0,0
33.0,-258.0,-7.0,-31.0,-6.0,-3.0,0
31.0,-258.0,-6.0,-33.0,-7.0,-2.0,0
31.0,-258.0,-3.0,-35.0,-6.0,-1.0,0
33.0,-258.0,-6.0,-37.0,-7.0,-1.0,0
35.0,-259.0,-3.0,-38.0,-7.0,0.0,0
32.0,-259.0,-6.0,-40.0,-6.0,1.0,0
36.0,-257.0,-7.0,-42.0,-5.0,0.0,0
32.0,-257.0,-11.0,-42.0,-4.0,-1.0,0
34.0,-256.0,-6.0,-46.0,-2.0,-2.0,0
33.0,-256.0,-8.0,-49.0,-2.0,-1.0,0
36.0,-261.0,-10.0,-53.0,-1.0,-1.0,0
34.0,-256.0,-7.0,-57.0,2.0,-1.0,0
36.0,-255.0,-10.0,-59.0,5.0,-2.0,0
38.0,-260.0,-9.0,-62.0,8.0,-4.0,0
35.0,-257.0,-8.0,-63.0,10.0,-5.0,0
38.0,-258.0,-5.0,-64.0,11.0,-7.0,0
33.0,-257.0,-11.0,-65.0,15.0,-6.0,0
34.0,-258.0,-9.0,-63.0,17.0,-7.0,0
34.0,-260.0,-8.0,-61.0,19.0,-9.0,0
35.0,-261.0,-7.0,-59.0,19.0,-10.0,0
36.0,-260.0,-5.0,-57.0,21.0,-10.0,0
36.0,-258.0,-9.0,-53.0,21.0,-11.0,0
35.0,-263.0,-10.0,-50.0,21.0,-11.0,0
31.0,-261.0,-5.0,-48.0,22.0,-11.0,0
36.0,-261.0,-7.0,-46.0,23.0,-11.0,0
34.0,-258.0,-8.0,-47.0,25.0,-11.0,0
35.0,-258.0,-9.0,-51.0,27.0,-10.0,0
43.0,-263.0,-11.0,-52.0,25.0,-8.0,0
34.0,-259.0,-7.0,-54.0,27.0,-8.0,0
35.0,-259.0,-4.0,-56.0,30.0,-8.0,0
33.0,-256.0,-12.0,-58.0,33.0,-7.0,0
33.0,-259.0,-8.0,-60.0,35.0,-8.0,0
31.0,-258.0,-8.0,-65.0,35.0,-8.0,0
31.0,-258.0,-7.0,-69.0,36.0,-8.0,0
34.0,-259.0,-3.0,-73.0,38.0,-7.0,0
34.0,-263.0,-10.0,-74.0,37.0,-7.0,0
29.0,-259.0,-11.0,-72.0,37.0,-6.0,0
31.0,-258.0,-9.0,-73.0,37.0,-7.0,0
31.0,-254.0,-10.0,-70.0,36.0,-6.0,0
33.0,-259.0,-8.0,-69.0,36.0,-8.0,0
32.0,-261.0,-7.0,-65.0,35.0,-10.0,0
32.0,-260.0,-9.0,-62.0,35.0,-10.0,0
31.0,-261.0,-9.0,-60.0,34.0,-13.0,0
34.0,-262.0,-7.0,-58.0,34.0,-13.0,0
32.0,-261.0,-8.0,-57.0,32.0,-13.0,0
32.0,-263.0,-12.0,-57.0,30.0,-12.0,0
31.0,-259.0,-10.0,-58.0,29.0,-12.0,0
33.0,-261.0,-10.0,-58.0,27.0,-13.0,0
29.0,-257.0,-10.0,-59.0,25.0,-12.0,0
39.0,-262.0,-6.0,-60.0,25.0,-12.0,0
31.0,-261.0,-6.0,-59.0,25.0,-11.0,0
31.0,-257.0,-8.0,-56.0,26.0,-10.0,0
32.0,-260.0,-7.0,-53.0,26.0,-11.0,0
32.0,-261.0,-8.0,-50.0,26.0,-9.0,0
35.0,-259.0,-3.0,-49.0,25.0,-8.0,0
31.0,-258.0,-8.0,-44.0,25.0,-7.0,0
32.0,-258.0,-2.0,-41.0,24.0,-6.0,0
32.0,-257.0,-9.0,-40.0,25.0,-6.0,0
32.0,-258.0,-7.0,-41.0,25.0,-5.0,0
33.0,-256.0,-5.0,-42.0,26.0,-6.0,0
30.0,-257.0,-7.0,-46.0,26.0,-7.0,0
31.0,-260.0,-10.0,-47.0,25.0,-7.0,0
31.0,-258.0,-8.0,-50.0,23.0,-8.0,0
31.0,-257.0,-12.0,-55.0,23.0,-8.0,0
29.0,-257.0,-10.0,-57.0,21.0,-10.0,0
30.0,-257.0,-6.0,-57.0,21.0,-9.0,0
31.0,-260.0,-6.0,-58.0,19.0,-9.0,0
31.0,-256.0,-6.0,-56.0,19.0,-11.0,0
31.0,-258.0,-6.0,-55.0,19.0,-11.0,0
33.0,-259.0,-7.0,-51.0,20.0,-12.0,0
37.0,-258.0,-6.0,-51.0,19.0,-11.0,0
34.0,-260.0,-9.0,-52.0,17.0,-10.0,0
31.0,-258.0,-5.0,-53.0,17.0,-11.0,0
31.0,-257.0,-11.0,-52.0,17.0,-10.0,0
34.0,-258.0,-7.0,-55.0,18.0,-11.0,0
34.0,-258.0,-8.0,-61.0,17.0,-11.0,0
32.0,-258.0,-9.0,-64.0,18.0,-12.0,0
31.0,-259.0,-5.0,-67.0,19.0,-15.0,0
33.0,-257.0,-1.0,-71.0,20.0,-15.0,0
32.0,-257.0,-9.0,-74.0,22.0,-17.0,0
31.0,-261.0,-4.0,-74.0,24.0,-16.0,0
29.0,-257.0,-6.0,-76.0,26.0,-18.0,0
29.0,-262.0,1.0,-78.0,27.0,-18.0,0
33.0,-260.0,-8.0,-75.0,25.0,-18.0,0
33.0,-257.0,-7.0,-74.0,25.0,-16.0,0
33.0,-261.0,-9.0,-72.0,23.0,-14.0,0
32.0,-259.0,-10.0,-71.0,21.0,-14.0,0
33.0,-259.0,-12.0,-72.0,19.0,-13.0,0
32.0,-260.0,-11.0,-71.0,18.0,-10.0,0
33.0,-260.0,-12.0,-70.0,15.0,-11.0,0
32.0,-262.0,-10.0,-68.0,13.0,-8.0,0
32.0,-262.0,-12.0,-66.0,10.0,-7.0,0
29.0,-264.0,-4.0,-65.0,10.0,-6.0,0
30.0,-262.0,-7.0,-66.0,7.0,-6.0,0
32.0,-260.0,-10.0,-65.0,5.0,-6.0,0
31.0,-263.0,-10.0,-61.0,3.0,-5.0,0
28.0,-260.0,-8.0,-59.0,4.0,-4.0,0
33.0,-265.0,-7.0,-57.0,2.0,-5.0,0
32.0,-262.0,-9.0,-56.0,1.0,-4.0,0
31.0,-263.0,-4.0,-52.0,1.0,-4.0,0
31.0,-262.0,-4.0,-49.0,-1.0,-5.0,0
33.0,-262.0,-7.0,-45.0,-2.0,-6.0,0
33.0,-259.0,-8.0,-43.0,-2.0,-6.0,0
32.0,-258.0,-4.0,-39.0,-3.0,-7.0,0
31.0,-260.0,-3.0,-36.0,-4.0,-6.0,0
33.0,-260.0,-9.0,-37.0,-3.0,-7.0,0
35.0,-261.0,-7.0,-36.0,-2.0,-8.0,0
35.0,-258.0,-6.0,-37.0,-1.0,-8.0,0
35.0,-258.0,-9.0,-37.0,1.0,-7.0,0
35.0,-257.0,-6.0,-40.0,0.0,-7.0,0
35.0,-259.0,-9.0,-42.0,2.0,-7.0,0
34.0,-258.0,-8.0,-45.0,1.0,-8.0,0
37.0,-257.0,-6.0,-48.0,5.0,-8.0,0
33.0,-261.0,-8.0,-48.0,5.0,-8.0,0
34.0,-260.0,-9.0,-50.0,7.0,-9.0,0
35.0,-257.0,-7.0,-52.0,10.0,-8.0,0
34.0,-256.0,-7.0,-50.0,11.0,-9.0,0
33.0,-258.0,-6.0,-49.0,11.0,-10.0,0
35.0,-258.0,-4.0,-49.0,11.0,-9.0,0
38.0,-260.0,-8.0,-49.0,10.0,-10.0,0
34.0,-258.0,-8.0,-50.0,10.0,-11.0,0
36.0,-260.0,-7.0,-49.0,10.0,-11.0,0
35.0,-261.0,-9.0,-48.0,12.0,-10.0,0
32.0,-258.0,-9.0,-49.0,12.0,-10.0,0
32.0,-260.0,-3.0,-47.0,12.0,-10.0,0
36.0,-254.0,-13.0,-44.0,13.0,-9.0,0
33.0,-261.0,-8.0,-41.0,11.0,-9.0,0
32.0,-261.0,-8.0,-38.0,13.0,-8.0,0
36.0,-261.0,-9.0,-37.0,11.0,-8.0,0
33.0,-261.0,-8.0,-35.0,11.0,-6.0,0
33.0,-263.0,-10.0,-34.0,12.0,-6.0,0
32.0,-258.0,-12.0,-29.0,10.0,-6.0,0
36.0,-260.0,-7.0,-27.0,11.0,-7.0,0
37.0,-264.0,-5.0,-24.0,10.0,-7.0,0
35.0,-259.0,-11.0,-23.0,10.0,-7.0,0
33.0,-260.0,-11.0,-21.0,9.0,-6.0,0
37.0,-257.0,-5.0,-18.0,7.0,-5.0,0
34.0,-260.0,-7.0,-16.0,6.0,-3.0,0
35.0,-259.0,-12.0,-17.0,5.0,-3.0,0
36.0,-260.0,-8.0,-17.0,3.0,-4.0,0
36.0,-257.0,-10.0,-17.0,1.0,-3.0,0
35.0,-261.0,-9.0,-20.0,1.0,-3.0,0
35.0,-260.0,-12.0,-21.0,1.0,-2.0,0
33.0,-259.0,-9.0,-21.0,2.0,-3.0,0
32.0,-256.0,-10.0,-20.0,2.0,-3.0,0
32.0,-257.0,-7.0,-22.0,3.0,-3.0,0
37.0,-257.0,-11.0,-23.0,3.0,-3.0,0
35.0,-258.0,-5.0,-23.0,2.0,-4.0,0
37.0,-260.0,-10.0,-23.0,2.0,-3.0,0
36.0,-256.0,-8.0,-24.0,3.0,-4.0,0
33.0,-257.0,-8.0,-27.0,4.0,-3.0,0
35.0,-258.0,-9.0,-30.0,3.0,-4.0,0
36.0,-258.0,-6.0,-33.0,4.0,-5.0,0
37.0,-260.0,-4.0,-36.0,6.0,-4.0,0
37.0,-260.0,-8.0,-39.0,5.0,-4.0,0
36.0,-258.0,-8.0,-42.0,7.0,-3.0,0
35.0,-256.0,-4.0,-45.0,8.0,-5.0,0
39.0,-259.0,3.0,-46.0,7.0,-6.0,0
34.0,-258.0,-5.0,-48.0,8.0,-7.0,0
33.0,-257.0,-5.0,-48.0,9.0,-8.0,0
36.0,-257.0,-6.0,-49.0,9.0,-9.0,0
33.0,-259.0,-6.0,-51.0,9.0,-8.0,0
32.0,-257.0,-7.0,-50.0,10.0,-8.0,0
35.0,-258.0,-8.0,-52.0,11.0,-9.0,0
33.0,-257.0,-10.0,-52.0,11.0,-9.0,0
32.0,-257.0,-11.0,-52.0,12.0,-11.0,0
31.0,-258.0,-5.0,-53.0,12.0,-11.0,0
31.0,-258.0,-8.0,-52.0,11.0,-12.0,0
28.0,-257.0,-15.0,-51.0,11.0,-10.0,0
33.0,-257.0,-9.0,-53.0,9.0,-11.0,0
33.0,-259.0,-7.0,-55.0,9.0,-12.0,0
33.0,-257.0,-9.0,-54.0,6.0,-12.0,0
35.0,-261.0,-4.0,-54.0,4.0,-12.0,0
32.0,-259.0,-7.0,-52.0,2.0,-10.0,0
32.0,-260.0,-7.0,-52.0,1.0,-10.0,0
35.0,-260.0,-9.0,-49.0,2.0,-11.0,0
33.0,-259.0,-6.0,-51.0,2.0,-11.0,0
37.0,-258.0,-9.0,-49.0,1.0,-10.0,0
33.0,-261.0,-11.0,-47.0,0.0,-9.0,0
29.0,-262.0,-6.0,-47.0,0.0,-9.0,0
33.0,-260.0,-9.0,-44.0,0.0,-8.0,0
32.0,-259.0,-7.0,-42.0,-3.0,-7.0,0
32.0,-259.0,-7.0,-41.0,-5.0,-7.0,0
31.0,-261.0,-9.0,-39.0,-6.0,-6.0,0
34.0,-259.0,-8.0,-38.0,-6.0,-5.0,0
34.0,-264.0,-7.0,-38.0,-9.0,-5.0,0
35.0,-260.0,-6.0,-36.0,-9.0,-5.0,0
35.0,-259.0,-7.0,-33.0,-11.0,-4.0,0
33.0,-260.0,-11.0,-31.0,-13.0,-3.0,0
32.0,-255.0,-9.0,-29.0,-11.0,-2.0,0
33.0,-260.0,-9.0,-27.0,-11.0,-3.0,0
35.0,-261.0,-9.0,-25.0,-11.0,-4.0,0
36.0,-259.0,-9.0,-22.0,-9.0,-4.0,0
37.0,-260.0,0.0,-21.0,-9.0,-2.0,0
35.0,-261.0,-10.0,-19.0,-6.0,-3.0,0
33.0,-259.0,-4.0,-20.0,-5.0,-4.0,0
35.0,-258.0,-6.0,-21.0,-2.0,-3.0,0
33.0,-258.0,-8.0,-23.0,-1.0,-3.0,0
35.0,-257.0,-4.0,-24.0,-2.0,-5.0,0
37.0,-259.0,-5.0,-28.0,-2.0,-5.0,0
34.0,-257.0,-6.0,-29.0,0.0,-6.0,0
31.0,-258.0,-8.0,-32.0,-1.0,-5.0,0
32.0,-257.0,-8.0,-34.0,-1.0,-6.0,0
35.0,-260.0,-5.0,-36.0,-1.0,-6.0,0
35.0,-259.0,-7.0,-36.0,0.0,-7.0,0
35.0,-258.0,-7.0,-35.0,0.0,-6.0,0
32.0,-260.0,-6.0,-35.0,1.0,-5.0,0
35.0,-258.0,-13.0,-34.0,2.0,-6.0,0
34.0,-260.0,-6.0,-31.0,4.0,-7.0,0
37.0,-259.0,-4.0,-31.0,6.0,-6.0,0
36.0,-258.0,-8.0,-31.0,8.0,-5.0,0
32.0,-263.0,-10.0,-31.0,9.0,-6.0,0
39.0,-256.0,-5.0,-29.0,11.0,-4.0,0
37.0,-261.0,-6.0,-29.0,13.0,-4.0,0
35.0,-262.0,-7.0,-30.0,14.0,-4.0,0
34.0,-261.0,-5.0,-29.0,14.0,-5.0,0
35.0,-262.0,-5.0,-30.0,15.0,-5.0,0
33.0,-258.0,-10.0,-28.0,17.0,-8.0,0
34.0,-261.0,-5.0,-27.0,17.0,-8.0,0
31.0,-257.0,-9.0,-25.0,16.0,-9.0,0
34.0,-256.0,-8.0,-24.0,15.0,-9.0,0
35.0,-259.0,-5.0,-23.0,14.0,-9.0,0
35.0,-262.0,-5.0,-24.0,14.0,-10.0,0
33.0,-258.0,-7.0,-25.0,13.0,-11.0,0
33.0,-259.0,-10.0,-25.0,13.0,-10.0,0
35.0,-259.0,-9.0,-25.0,14.0,-10.0,0
33.0,-260.0,-7.0,-26.0,13.0,-10.0,0
35.0,-260.0,-8.0,-26.0,13.0,-10.0,0
35.0,-257.0,-6.0,-27.0,13.0,-8.0,0
33.0,-260.0,-7.0,-26.0,12.0,-7.0,0
34.0,-261.0,-10.0,-27.0,14.0,-5.0,0
34.0,-259.0,-11.0,-31.0,13.0,-4.0,0
32.0,-257.0,-4.0,-30.0,14.0,-4.0,0
32.0,-254.0,-7.0,-31.0,12.0,-2.0,0
29.0,-263.0,-14.0,-36.0,10.0,-3.0,0
35.0,-261.0,-6.0,-37.0,10.0,-3.0,0
34.0,-259.0,-4.0,-38.0,10.0,-4.0,0
35.0,-258.0,-3.0,-36.0,12.0,-4.0,0
32.0,-258.0,-5.0,-33.0,11.0,-5.0,0
34.0,-262.0,-7.0,-33.0,11.0,-4.0,0
33.0,-260.0,-3.0,-35.0,11.0,-6.0,0
33.0,-257.0,-4.0,-36.0,11.0,-5.0,0
34.0,-256.0,-4.0,-39.0,11.0,-5.0,0
35.0,-258.0,-1.0,-40.0,12.0,-7.0,0
33.0,-260.0,-1.0,-40.0,12.0,-7.0,0
33.0,-259.0,-7.0,-42.0,12.0,-7.0,0
32.0,-258.0,-11.0,-41.0,12.0,-6.0,0
34.0,-258.0,-4.0,-43.0,11.0,-7.0,0
35.0,-259.0,-7.0,-45.0,12.0,-7.0,0
33.0,-260.0,-7.0,-46.0,12.0,-6.0,0
37.0,-259.0,-11.0,-47.0,13.0,-8.0,0
33.0,-257.0,-7.0,-46.0,16.0,-9.0,0
37.0,-259.0,-4.0,-45.0,18.0,-9.0,0
34.0,-257.0,-10.0,-47.0,19.0,-9.0,0
31.0,-261.0,-6.0,-48.0,21.0,-10.0,0
38.0,-260.0,-12.0,-48.0,23.0,-11.0,0
35.0,-257.0,-3.0,-50.0,24.0,-13.0,0
36.0,-262.0,-7.0,-53.0,26.0,-10.0,0
35.0,-259.0,-7.0,-54.0,26.0,-11.0,0
34.0,-258.0,-7.0,-55.0,26.0,-12.0,0
35.0,-257.0,-10.0,-54.0,25.0,-12.0,0
32.0,-257.0,-4.0,-53.0,25.0,-12.0,0
34.0,-260.0,-8.0,-54.0,25.0,-10.0,0
32.0,-257.0,-3.0,-55.0,24.0,-9.0,0
32.0,-257.0,-6.0,-54.0,23.0,-10.0,0
36.0,-261.0,-4.0,-53.0,23.0,-8.0,0
31.0,-258.0,-5.0,-54.0,22.0,-8.0,0
35.0,-259.0,-6.0,-52.0,22.0,-8.0,0
34.0,-261.0,-2.0,-51.0,20.0,-8.0,0
33.0,-260.0,-12.0,-51.0,20.0,-9.0,0
34.0,-259.0,-7.0,-50.0,20.0,-8.0,0
35.0,-258.0,-9.0,-52.0,20.0,-7.0,0
35.0,-259.0,-3.0,-49.0,20.0,-8.0,0
31.0,-260.0,-11.0,-52.0,19.0,-7.0,0
33.0,-260.0,-6.0,-53.0,18.0,-7.0,0
36.0,-260.0,-5.0,-53.0,18.0,-7.0,0
36.0,-261.0,-2.0,-53.0,20.0,-8.0,0
35.0,-264.0,-6.0,-53.0,20.0,-7.0,0
35.0,-259.0,-10.0,-52.0,20.0,-9.0,0
36.0,-262.0,-7.0,-55.0,21.0,-8.0,0
32.0,-261.0,-5.0,-53.0,20.0,-8.0,0
34.0,-257.0,-6.0,-55.0,22.0,-9.0,0
34.0,-259.0,-7.0,-57.0,22.0,-8.0,0
36.0,-260.0,-10.0,-55.0,22.0,-8.0,0
33.0,-258.0,-8.0,-53.0,23.0,-6.0,0
35.0,-259.0,-4.0,-52.0,22.0,-5.0,0
36.0,-261.0,-7.0,-52.0,22.0,-6.0,0
36.0,-262.0,-11.0,-51.0,20.0,-5.0,0
35.0,-257.0,-8.0,-51.0,18.0,-6.0,0
33.0,-258.0,-6.0,-51.0,16.0,-5.0,0
32.0,-258.0,-3.0,-51.0,15.0,-6.0,0
31.0,-255.0,-8.0,-55.0,14.0,-7.0,0
31.0,-257.0,-6.0,-58.0,14.0,-7.0,0
32.0,-256.0,-5.0,-59.0,14.0,-6.0,0
33.0,-256.0,-3.0,-61.0,14.0,-8.0,0
37.0,-260.0,-8.0,-63.0,16.0,-7.0,0
32.0,-256.0,-7.0,-64.0,18.0,-6.0,0
35.0,-258.0,-9.0,-67.0,20.0,-7.0,0
33.0,-257.0,-8.0,-66.0,21.0,-7.0,0
34.0,-257.0,-11.0,-66.0,23.0,-7.0,0
33.0,-257.0,-9.0,-65.0,23.0,-9.0,0
32.0,-259.0,-9.0,-66.0,24.0,-9.0,0
33.0,-257.0,-6.0,-70.0,23.0,-9.0,0
33.0,-261.0,-12.0,-74.0,22.0,-10.0,0
34.0,-258.0,-3.0,-79.0,24.0,-10.0,0
33.0,-259.0,-7.0,-79.0,23.0,-9.0,0
35.0,-261.0,-6.0,-79.0,24.0,-8.0,0
34.0,-259.0,-13.0,-83.0,24.0,-7.0,0
36.0,-263.0,-9.0,-81.0,24.0,-5.0,0
38.0,-264.0,-10.0,-79.0,25.0,-4.0,0
35.0,-260.0,-10.0,-72.0,22.0,-5.0,0
36.0,-261.0,-11.0,-66.0,20.0,-4.0,0
32.0,-260.0,-10.0,-61.0,17.0,-3.0,0
35.0,-264.0,-5.0,-55.0,16.0,-3.0,0
32.0,-260.0,-8.0,-51.0,17.0,-2.0,0
31.0,-259.0,-11.0,-48.0,18.0,-1.0,0
33.0,-262.0,-3.0,-46.0,17.0,-1.0,0
32.0,-260.0,-6.0,-47.0,20.0,-2.0,0
31.0,-261.0,-6.0,-49.0,19.0,-3.0,0
32.0,-259.0,-12.0,-51.0,19.0,-3.0,0
32.0,-262.0,-6.0,-51.0,20.0,-4.0,0
37.0,-258.0,-11.0,-53.0,22.0,-5.0,0
30.0,-258.0,-6.0,-53.0,25.0,-6.0,0
32.0,-259.0,-9.0,-55.0,28.0,-7.0,0
32.0,-257.0,-8.0,-53.0,30.0,-7.0,0
34.0,-257.0,-6.0,-54.0,32.0,-8.0,0
33.0,-256.0,-12.0,-55.0,31.0,-8.0,0
33.0,-256.0,-9.0,-56.0,30.0,-9.0,0
32.0,-258.0,-2.0,-57.0,30.0,-9.0,0
36.0,-259.0,-10.0,-58.0,30.0,-10.0,0
36.0,-261.0,-11.0,-62.0,28.0,-9.0,0
32.0,-254.0,-8.0,-64.0,28.0,-8.0,0
32.0,-257.0,-12.0,-64.0,29.0,-8.0,0
31.0,-257.0,-10.0,-66.0,30.0,-7.0,0
35.0,-259.0,-12.0,-69.0,31.0,-6.0,0
32.0,-257.0,-12.0,-69.0,31.0,-6.0,0
37.0,-262.0,-5.0,-70.0,33.0,-6.0,0
33.0,-259.0,-5.0,-69.0,33.0,-6.0,0
32.0,-262.0,-7.0,-69.0,33.0,-6.0,0
33.0,-258.0,-8.0,-69.0,32.0,-5.0,0
33.0,-261.0,-8.0,-67.0,31.0,-3.0,0
34.0,-265.0,-2.0,-68.0,31.0,-3.0,0
36.0,-267.0,-6.0,-67.0,28.0,-4.0,0
35.0,-258.0,-9.0,-65.0,27.0,-2.0,0
32.0,-257.0,-8.0,-62.0,27.0,-4.0,0
33.0,-260.0,-9.0,-59.0,27.0,-2.0,0
29.0,-260.0,-9.0,-58.0,28.0,-3.0,0
34.0,-259.0,-8.0,-57.0,27.0,-2.0,0
34.0,-261.0,-10.0,-56.0,28.0,-3.0,0
34.0,-261.0,-12.0,-52.0,28.0,-2.0,0
31.0,-258.0,-10.0,-52.0,27.0,-2.0,0
33.0,-260.0,-8.0,-49.0,27.0,-4.0,0
33.0,-261.0,-4.0,-47.0,29.0,-4.0,0
32.0,-267.0,-8.0,-47.0,31.0,-4.0,0
33.0,-258.0,-6.0,-47.0,33.0,-6.0,0
32.0,-256.0,-10.0,-48.0,35.0,-7.0,0
33.0,-258.0,-11.0,-51.0,37.0,-7.0,0
33.0,-258.0,-5.0,-55.0,38.0,-7.0,0
33.0,-258.0,-8.0,-60.0,38.0,-7.0,0
34.0,-259.0,-10.0,-62.0,38.0,-8.0,0
37.0,-260.0,-7.0,-65.0,37.0,-9.0,0
33.0,-257.0,-6.0,-66.0,35.0,-9.0,0
34.0,-257.0,-11.0,-68.0,32.0,-8.0,0
32.0,-260.0,-12.0,-67.0,30.0,-9.0,0
36.0,-259.0,-10.0,-69.0,29.0,-7.0,0
33.0,-258.0,-6.0,-68.0,26.0,-5.0,0
33.0,-258.0,-9.0,-69.0,28.0,-6.0,0
33.0,-258.0,-10.0,-69.0,28.0,-5.0,0
32.0,-259.0,-8.0,-69.0,29.0,-5.0,0
33.0,-259.0,-11.0,-69.0,29.0,-4.0,0
34.0,-257.0,-9.0,-69.0,29.0,-4.0,0
34.0,-259.0,-11.0,-69.0,29.0,-3.0,0
31.0,-260.0,-10.0,-68.0,29.0,-2.0,0
35.0,-263.0,-11.0,-68.0,30.0,-3.0,0
32.0,-263.0,-11.0,-66.0,29.0,-3.0,0
30.0,-259.0,-10.0,-64.0,28.0,-3.0,0
33.0,-257.0,3.0,-62.0,28.0,-3.0,0
31.0,-257.0,-11.0,-61.0,28.0,-3.0,0
33.0,-261.0,-12.0,-61.0,28.0,-4.0,0
34.0,-260.0,-9.0,-59.0,27.0,-3.0,0
34.0,-261.0,-11.0,-56.0,26.0,-4.0,0
35.0,-258.0,-13.0,-54.0,27.0,-4.0,0
31.0,-259.0,-13.0,-54.0,26.0,-4.0,0
33.0,-259.0,-7.0,-53.0,27.0,-4.0,0
36.0,-259.0,-12.0,-53.0,26.0,-3.0,0
35.0,-259.0,-8.0,-56.0,26.0,-3.0,0
32.0,-260.0,-17.0,-58.0,25.0,-3.0,0
34.0,-260.0,-7.0,-60.0,23.0,-2.0,0
35.0,-260.0,-11.0,-60.0,23.0,-2.0,0
35.0,-259.0,-10.0,-61.0,25.0,-3.0,0
31.0,-257.0,-8.0,-61.0,24.0,-2.0,0
35.0,-258.0,-10.0,-62.0,23.0,-2.0,0
34.0,-256.0,-11.0,-63.0,24.0,-2.0,0
35.0,-261.0,-9.0,-64.0,24.0,-2.0,0
36.0,-257.0,-9.0,-67.0,25.0,0.0,0
33.0,-257.0,-8.0,-69.0,25.0,0.0,0
34.0,-262.0,-13.0,-71.0,24.0,0.0,0
39.0,-256.0,-11.0,-73.0,26.0,-1.0,0
32.0,-258.0,-13.0,-72.0,27.0,0.0,0
32.0,-257.0,-10.0,-75.0,25.0,-2.0,0
35.0,-260.0,-11.0,-76.0,25.0,-1.0,0
33.0,-258.0,-12.0,-78.0,25.0,-3.0,0
33.0,-260.0,-15.0,-79.0,24.0,-4.0,0
33.0,-258.0,-15.0,-78.0,25.0,-4.0,0
34.0,-256.0,-11.0,-78.0,28.0,-4.0,0
32.0,-258.0,-12.0,-76.0,30.0,-6.0,0
33.0,-261.0,-15.0,-78.0,34.0,-8.0,0
29.0,-258.0,-17.0,-78.0,32.0,-9.0,0
34.0,-258.0,-16.0,-78.0,35.0,-8.0,0
33.0,-257.0,-11.0,-81.0,35.0,-8.0,0
33.0,-257.0,-10.0,-84.0,35.0,-8.0,0
33.0,-259.0,-14.0,-84.0,34.0,-8.0,0
34.0,-261.0,-12.0,-84.0,33.0,-8.0,0
31.0,-258.0,-8.0,-82.0,30.0,-8.0,0
34.0,-261.0,-15.0,-82.0,29.0,-8.0,0
30.0,-257.0,-11.0,-82.0,29.0,-5.0,0
37.0,-260.0,-12.0,-82.0,29.0,-5.0,0
35.0,-261.0,-17.0,-83.0,28.0,-4.0,0
30.0,-257.0,-17.0,-83.0,27.0,-4.0,0
34.0,-259.0,-16.0,-82.0,27.0,-2.0,0
32.0,-261.0,-17.0,-82.0,26.0,-2.0,0
34.0,-260.0,-11.0,-82.0,25.0,-2.0,0
36.0,-257.0,-14.0,-82.0,24.0,-2.0,0
33.0,-258.0,-13.0,-82.0,23.0,-1.0,0
34.0,-256.0,-18.0,-81.0,24.0,-2.0,0
33.0,-260.0,-16.0,-84.0,25.0,-3.0,0
33.0,-262.0,-14.0,-85.0,26.0,-3.0,0
33.0,-261.0,-13.0,-85.0,27.0,-3.0,0
33.0,-258.0,-17.0,-87.0,26.0,-3.0,0
29.0,-258.0,-15.0,-87.0,27.0,-4.0,0
28.0,-258.0,-13.0,-86.0,26.0,-4.0,0
35.0,-260.0,-9.0,-86.0,25.0,-4.0,0
31.0,-260.0,-11.0,-88.0,25.0,-6.0,0
33.0,-258.0,-14.0,-87.0,26.0,-9.0,0
30.0,-261.0,-11.0,-86.0,26.0,-10.0,0
31.0,-261.0,-15.0,-83.0,28.0,-9.0,0
27.0,-260.0,-19.0,-79.0,27.0,-11.0,0
32.0,-260.0,-15.0,-77.0,25.0,-8.0,0
30.0,-260.0,-11.0,-74.0,22.0,-9.0,0
35.0,-265.0,-13.0,-74.0,21.0,-7.0,0
35.0,-261.0,-14.0,-73.0,17.0,-6.0,0
33.0,-258.0,-15.0,-70.0,15.0,-5.0,0
32.0,-258.0,-14.0,-72.0,13.0,-3.0,0
30.0,-260.0,-13.0,-72.0,10.0,-1.0,0
29.0,-258.0,-18.0,-72.0,9.0,1.0,0
30.0,-257.0,-16.0,-78.0,6.0,4.0,0
30.0,-259.0,-16.0,-80.0,4.0,7.0,0
34.0,-259.0,-12.0,-79.0,2.0,9.0,0
29.0,-258.0,-19.0,-80.0,-2.0,12.0,0
31.0,-258.0,-18.0,-81.0,-4.0,14.0,0
31.0,-260.0,-20.0,-82.0,-7.0,15.0,0
26.0,-259.0,-16.0,-81.0,-11.0,19.0,0
31.0,-258.0,-23.0,-85.0,-17.0,22.0,0
29.0,-259.0,-22.0,-89.0,-21.0,24.0,0
27.0,-257.0,-26.0,-92.0,-24.0,27.0,0
27.0,-257.0,-26.0,-98.0,-27.0,28.0,0
28.0,-259.0,-27.0,-104.0,-33.0,31.0,0
27.0,-258.0,-28.0,-108.0,-36.0,32.0,0
26.0,-259.0,-32.0,-110.0,-40.0,33.0,0
30.0,-259.0,-26.0,-113.0,-43.0,34.0,0
28.0,-258.0,-33.0,-115.0,-46.0,34.0,0
26.0,-260.0,-34.0,-117.0,-48.0,34.0,0
33.0,-258.0,-35.0,-119.0,-47.0,34.0,0
33.0,-260.0,-33.0,-118.0,-45.0,34.0,0
31.0,-262.0,-38.0,-119.0,-44.0,31.0,0
35.0,-265.0,-38.0,-121.0,-40.0,27.0,0
34.0,-259.0,-33.0,-121.0,-34.0,25.0,0
32.0,-260.0,-34.0,-122.0,-27.0,20.0,0
35.0,-261.0,-35.0,-122.0,-22.0,16.0,0
37.0,-263.0,-34.0,-126.0,-17.0,12.0,0
35.0,-261.0,-31.0,-130.0,-12.0,10.0,0
37.0,-263.0,-34.0,-135.0,-8.0,7.0,0
35.0,-261.0,-35.0,-139.0,-4.0,5.0,0
31.0,-261.0,-34.0,-144.0,-2.0,4.0,0
33.0,-258.0,-32.0,-148.0,-2.0,3.0,0
29.0,-258.0,-31.0,-153.0,-3.0,2.0,0
31.0,-256.0,-32.0,-158.0,-4.0,3.0,0
32.0,-257.0,-30.0,-163.0,-6.0,3.0,0
34.0,-256.0,-33.0,-169.0,-10.0,1.0,0
34.0,-257.0,-32.0,-173.0,-13.0,-1.0,0
32.0,-255.0,-31.0,-178.0,-12.0,0.0,0
30.0,-254.0,-38.0,-185.0,-11.0,-2.0,0
31.0,-252.0,-40.0,-191.0,-7.0,-2.0,0
33.0,-249.0,-40.0,-200.0,-3.0,-4.0,0
32.0,-253.0,-39.0,-210.0,5.0,-5.0,0
34.0,-249.0,-38.0,-220.0,11.0,-8.0,0
34.0,-251.0,-42.0,-234.0,19.0,-9.0,0
31.0,-249.0,-40.0,-249.0,27.0,-14.0,0
32.0,-248.0,-43.0,-265.0,34.0,-16.0,0
36.0,-249.0,-42.0,-280.0,41.0,-20.0,0
34.0,-252.0,-43.0,-295.0,44.0,-23.0,0
32.0,-248.0,-42.0,-314.0,44.0,-26.0,0
31.0,-254.0,-44.0,-333.0,44.0,-29.0,0
32.0,-252.0,-47.0,-350.0,42.0,-32.0,0
30.0,-254.0,-49.0,-369.0,40.0,-37.0,0
32.0,-262.0,-46.0,-383.0,38.0,-40.0,0
32.0,-256.0,-46.0,-394.0,37.0,-42.0,0
30.0,-256.0,-46.0,-403.0,40.0,-46.0,0
30.0,-255.0,-45.0,-409.0,41.0,-51.0,0
33.0,-256.0,-48.0,-412.0,43.0,-53.0,0
30.0,-257.0,-48.0,-414.0,45.0,-57.0,0
30.0,-256.0,-49.0,-417.0,48.0,-61.0,0
30.0,-255.0,-45.0,-420.0,51.0,-63.0,0
29.0,-257.0,-50.0,-426.0,54.0,-65.0,0
29.0,-254.0,-50.0,-431.0,55.0,-64.0,0
28.0,-254.0,-51.0,-437.0,52.0,-67.0,0
30.0,-256.0,-50.0,-445.0,48.0,-69.0,0
29.0,-253.0,-50.0,-452.0,44.0,-70.0,0
27.0,-252.0,-49.0,-462.0,38.0,-69.0,0
29.0,-251.0,-53.0,-471.0,32.0,-70.0,0
26.0,-251.0,-51.0,-481.0,27.0,-69.0,0
26.0,-251.0,-52.0,-495.0,23.0,-68.0,0
29.0,-250.0,-53.0,-506.0,19.0,-69.0,0
25.0,-253.0,-54.0,-517.0,14.0,-68.0,0
27.0,-252.0,-54.0,-530.0,10.0,-68.0,0
27.0,-250.0,-56.0,-539.0,8.0,-67.0,0
27.0,-250.0,-55.0,-549.0,4.0,-68.0,0
28.0,-253.0,-60.0,-557.0,-1.0,-69.0,0
26.0,-250.0,-57.0,-565.0,-5.0,-71.0,0
26.0,-249.0,-57.0,-570.0,-5.0,-72.0,0
29.0,-249.0,-52.0,-578.0,-3.0,-74.0,0
29.0,-247.0,-56.0,-585.0,1.0,-74.0,0
28.0,-246.0,-56.0,-591.0,6.0,-76.0,0
33.0,-247.0,-54.0,-595.0,14.0,-78.0,0
33.0,-246.0,-61.0,-600.0,22.0,-82.0,0
37.0,-245.0,-62.0,-606.0,31.0,-88.0,0
36.0,-246.0,-60.0,-613.0,40.0,-93.0,0
33.0,-243.0,-58.0,-621.0,51.0,-97.0,0
37.0,-246.0,-63.0,-629.0,59.0,-103.0,0
41.0,-247.0,-62.0,-636.0,68.0,-109.0,0
39.0,-244.0,-63.0,-641.0,75.0,-116.0,0
44.0,-247.0,-59.0,-645.0,81.0,-123.0,0
41.0,-244.0,-64.0,-650.0,85.0,-130.0,0
45.0,-245.0,-60.0,-650.0,87.0,-135.0,0
44.0,-246.0,-63.0,-653.0,86.0,-139.0,0
50.0,-250.0,-61.0,-659.0,83.0,-144.0,0
48.0,-249.0,-65.0,-666.0,83.0,-148.0,0
47.0,-241.0,-65.0,-664.0,84.0,-152.0,0
49.0,-254.0,-65.0,-668.0,89.0,-155.0,0
51.0,-253.0,-61.0,-671.0,93.0,-161.0,0
50.0,-251.0,-66.0,-672.0,96.0,-164.0,0
47.0,-255.0,-65.0,-673.0,97.0,-165.0,0
50.0,-256.0,-68.0,-679.0,99.0,-168.0,0
46.0,-255.0,-64.0,-681.0,105.0,-169.0,0
46.0,-256.0,-65.0,-682.0,111.0,-170.0,0
50.0,-258.0,-65.0,-681.0,117.0,-170.0,0
47.0,-255.0,-65.0,-684.0,126.0,-171.0,0
47.0,-259.0,-66.0,-686.0,136.0,-172.0,0
46.0,-257.0,-66.0,-684.0,147.0,-170.0,0
45.0,-259.0,-67.0,-684.0,158.0,-169.0,0
45.0,-258.0,-65.0,-684.0,166.0,-164.0,0
41.0,-258.0,-66.0,-683.0,173.0,-164.0,0
44.0,-260.0,-66.0,-678.0,178.0,-161.0,0
40.0,-259.0,-65.0,-674.0,181.0,-158.0,0
40.0,-257.0,-65.0,-670.0,180.0,-155.0,0
40.0,-258.0,-69.0,-668.0,181.0,-152.0,0
37.0,-257.0,-62.0,-667.0,182.0,-146.0,0
36.0,-258.0,-67.0,-668.0,182.0,-144.0,0
37.0,-258.0,-67.0,-671.0,180.0,-139.0,0
35.0,-256.0,-71.0,-676.0,175.0,-133.0,0
30.0,-260.0,-63.0,-679.0,165.0,-128.0,0
35.0,-256.0,-69.0,-680.0,155.0,-122.0,0
33.0,-254.0,-70.0,-685.0,142.0,-117.0,0
31.0,-256.0,-74.0,-693.0,131.0,-111.0,0
33.0,-254.0,-74.0,-699.0,122.0,-106.0,0
35.0,-255.0,-74.0,-707.0,113.0,-102.0,0
33.0,-255.0,-76.0,-714.0,105.0,-97.0,0
36.0,-255.0,-80.0,-722.0,96.0,-94.0,0
36.0,-253.0,-78.0,-729.0,88.0,-93.0,0
35.0,-255.0,-84.0,-733.0,82.0,-94.0,0
35.0,-252.0,-85.0,-739.0,79.0,-92.0,0
38.0,-247.0,-89.0,-744.0,77.0,-95.0,0
40.0,-256.0,-83.0,-750.0,76.0,-96.0,0
39.0,-258.0,-86.0,-755.0,76.0,-98.0,0
38.0,-258.0,-81.0,-758.0,76.0,-100.0,0
43.0,-256.0,-81.0,-755.0,75.0,-100.0,0
42.0,-258.0,-85.0,-750.0,74.0,-98.0,0
46.0,-258.0,-81.0,-741.0,75.0,-98.0,0
47.0,-257.0,-81.0,-735.0,77.0,-97.0,0
50.0,-258.0,-84.0,-723.0,81.0,-94.0,0
47.0,-256.0,-83.0,-714.0,85.0,-91.0,0
46.0,-259.0,-89.0,-711.0,91.0,-87.0,0
48.0,-250.0,-89.0,-709.0,91.0,-82.0,0
51.0,-260.0,-85.0,-706.0,94.0,-79.0,0
51.0,-257.0,-89.0,-702.0,95.0,-75.0,0
53.0,-260.0,-86.0,-695.0,93.0,-70.0,0
49.0,-258.0,-87.0,-691.0,88.0,-65.0,0
51.0,-256.0,-87.0,-687.0,81.0,-58.0,0
53.0,-260.0,-93.0,-682.0,72.0,-54.0,0
52.0,-263.0,-90.0,-680.0,62.0,-48.0,0
51.0,-259.0,-92.0,-678.0,56.0,-45.0,0
49.0,-259.0,-93.0,-680.0,50.0,-43.0,0
52.0,-259.0,-101.0,-683.0,44.0,-42.0,0
48.0,-261.0,-98.0,-683.0,42.0,-44.0,0
51.0,-261.0,-103.0,-682.0,39.0,-46.0,0
46.0,-259.0,-104.0,-678.0,36.0,-49.0,0
50.0,-260.0,-105.0,-674.0,33.0,-54.0,0
49.0,-260.0,-106.0,-669.0,31.0,-58.0,0
48.0,-259.0,-106.0,-666.0,30.0,-63.0,0
47.0,-259.0,-109.0,-664.0,28.0,-67.0,0
48.0,-260.0,-112.0,-666.0,26.0,-71.0,0
51.0,-258.0,-110.0,-667.0,24.0,-71.0,0
46.0,-258.0,-111.0,-663.0,21.0,-70.0,0
47.0,-257.0,-114.0,-659.0,14.0,-68.0,0
43.0,-257.0,-119.0,-656.0,7.0,-63.0,0
48.0,-256.0,-113.0,-650.0,3.0,-55.0,0
48.0,-255.0,-111.0,-645.0,-3.0,-46.0,0
43.0,-249.0,-114.0,-641.0,-11.0,-38.0,0
48.0,-251.0,-114.0,-639.0,-20.0,-28.0,0
43.0,-248.0,-110.0,-638.0,-28.0,-19.0,0
44.0,-245.0,-113.0,-638.0,-36.0,-10.0,0
45.0,-242.0,-115.0,-636.0,-44.0,-3.0,0
45.0,-243.0,-115.0,-638.0,-51.0,4.0,0
45.0,-239.0,-117.0,-643.0,-57.0,8.0,0
45.0,-236.0,-117.0,-647.0,-59.0,13.0,0
47.0,-235.0,-113.0,-654.0,-57.0,16.0,0
46.0,-232.0,-124.0,-659.0,-56.0,19.0,0
44.0,-232.0,-123.0,-666.0,-48.0,19.0,0
49.0,-233.0,-124.0,-674.0,-40.0,17.0,0
47.0,-233.0,-127.0,-682.0,-33.0,15.0,0
48.0,-233.0,-125.0,-691.0,-25.0,12.0,0
49.0,-231.0,-127.0,-700.0,-19.0,8.0,0
53.0,-236.0,-128.0,-708.0,-17.0,4.0,0
50.0,-231.0,-131.0,-712.0,-16.0,0.0,0
53.0,-234.0,-128.0,-715.0,-17.0,-2.0,0
57.0,-242.0,-136.0,-716.0,-22.0,-5.0,0
51.0,-240.0,-133.0,-714.0,-29.0,-7.0,0
53.0,-243.0,-134.0,-716.0,-39.0,-8.0,0
52.0,-249.0,-133.0,-715.0,-49.0,-11.0,0
51.0,-247.0,-134.0,-713.0,-61.0,-17.0,0
52.0,-248.0,-141.0,-711.0,-71.0,-20.0,0
51.0,-251.0,-136.0,-712.0,-83.0,-23.0,0
48.0,-251.0,-136.0,-709.0,-92.0,-26.0,0
53.0,-253.0,-136.0,-703.0,-100.0,-29.0,0
48.0,-253.0,-138.0,-695.0,-104.0,-32.0,0
51.0,-252.0,-141.0,-686.0,-106.0,-34.0,0
47.0,-250.0,-143.0,-675.0,-108.0,-38.0,0
50.0,-254.0,-138.0,-667.0,-108.0,-38.0,0
51.0,-253.0,-143.0,-658.0,-106.0,-37.0,0
48.0,-246.0,-139.0,-652.0,-108.0,-35.0,0
49.0,-244.0,-149.0,-650.0,-111.0,-32.0,0
49.0,-241.0,-145.0,-652.0,-112.0,-28.0,0
48.0,-241.0,-149.0,-653.0,-114.0,-24.0,0
48.0,-242.0,-146.0,-653.0,-115.0,-20.0,0
52.0,-240.0,-149.0,-650.0,-114.0,-17.0,0
53.0,-240.0,-149.0,-647.0,-112.0,-13.0,0
52.0,-241.0,-151.0,-645.0,-110.0,-11.0,0
47.0,-240.0,-150.0,-645.0,-107.0,-12.0,0
54.0,-240.0,-152.0,-645.0,-104.0,-14.0,0
50.0,-238.0,-157.0,-645.0,-100.0,-14.0,0
50.0,-238.0,-158.0,-644.0,-99.0,-17.0,0
49.0,-237.0,-159.0,-645.0,-96.0,-22.0,0
50.0,-237.0,-160.0,-649.0,-93.0,-27.0,0
48.0,-236.0,-161.0,-652.0,-92.0,-29.0,0
50.0,-238.0,-161.0,-655.0,-92.0,-32.0,0
48.0,-236.0,-162.0,-659.0,-93.0,-32.0,0
47.0,-233.0,-163.0,-667.0,-94.0,-31.0,0
51.0,-229.0,-159.0,-671.0,-93.0,-32.0,0
46.0,-231.0,-163.0,-673.0,-93.0,-30.0,0
47.0,-229.0,-165.0,-677.0,-95.0,-28.0,0
47.0,-225.0,-166.0,-680.0,-96.0,-24.0,0
46.0,-227.0,-163.0,-684.0,-96.0,-20.0,0
44.0,-226.0,-164.0,-684.0,-100.0,-17.0,0
49.0,-228.0,-164.0,-684.0,-102.0,-12.0,0
50.0,-228.0,-163.0,-678.0,-105.0,-8.0,0
48.0,-227.0,-164.0,-666.0,-106.0,-6.0,0
47.0,-224.0,-167.0,-654.0,-108.0,-4.0,0
54.0,-226.0,-169.0,-637.0,-106.0,-6.0,0
47.0,-225.0,-166.0,-622.0,-103.0,-10.0,0
50.0,-225.0,-173.0,-606.0,-92.0,-16.0,0
50.0,-223.0,-172.0,-593.0,-83.0,-23.0,0
49.0,-222.0,-175.0,-584.0,-68.0,-34.0,0
53.0,-224.0,-178.0,-577.0,-52.0,-42.0,0
53.0,-220.0,-179.0,-574.0,-39.0,-52.0,0
54.0,-224.0,-177.0,-573.0,-27.0,-57.0,0
51.0,-220.0,-178.0,-569.0,-18.0,-66.0,0
54.0,-222.0,-176.0,-564.0,-12.0,-72.0,0
51.0,-220.0,-180.0,-563.0,-13.0,-77.0,0
50.0,-220.0,-184.0,-563.0,-15.0,-79.0,0
54.0,-224.0,-185.0,-562.0,-19.0,-82.0,0
53.0,-224.0,-185.0,-560.0,-25.0,-82.0,0
51.0,-223.0,-190.0,-555.0,-30.0,-82.0,0
49.0,-224.0,-190.0,-550.0,-35.0,-80.0,0
51.0,-223.0,-193.0,-543.0,-37.0,-79.0,0
50.0,-228.0,-190.0,-533.0,-39.0,-80.0,0
47.0,-224.0,-197.0,-526.0,-44.0,-79.0,0
45.0,-225.0,-195.0,-517.0,-48.0,-77.0,0
45.0,-229.0,-196.0,-510.0,-50.0,-71.0,0
44.0,-225.0,-199.0,-507.0,-54.0,-70.0,0
44.0,-224.0,-193.0,-507.0,-56.0,-68.0,0
39.0,-221.0,-194.0,-512.0,-59.0,-68.0,0
42.0,-226.0,-189.0,-515.0,-63.0,-62.0,0
41.0,-219.0,-187.0,-518.0,-66.0,-62.0,0
34.0,-226.0,-189.0,-516.0,-68.0,-60.0,0
36.0,-215.0,-187.0,-512.0,-71.0,-57.0,0
36.0,-214.0,-187.0,-508.0,-71.0,-53.0,0
38.0,-213.0,-191.0,-501.0,-70.0,-50.0,0
37.0,-211.0,-190.0,-490.0,-68.0,-48.0,0
37.0,-208.0,-190.0,-477.0,-65.0,-44.0,0
34.0,-208.0,-190.0,-457.0,-63.0,-41.0,0
43.0,-212.0,-197.0,-427.0,-62.0,-26.0,0
41.0,-213.0,-197.0,-406.0,-54.0,-33.0,0
42.0,-210.0,-205.0,-391.0,-46.0,-36.0,0
44.0,-208.0,-205.0,-381.0,-40.0,-36.0,0
45.0,-209.0,-202.0,-378.0,-37.0,-34.0,0
50.0,-207.0,-206.0,-378.0,-32.0,-32.0,0
53.0,-206.0,-206.0,-379.0,-30.0,-32.0,0
49.0,-206.0,-206.0,-382.0,-24.0,-33.0,0
52.0,-206.0,-203.0,-384.0,-19.0,-33.0,0
57.0,-212.0,-209.0,-383.0,-16.0,-25.0,0
55.0,-209.0,-211.0,-383.0,-7.0,-30.0,0
56.0,-210.0,-206.0,-389.0,3.0,-39.0,0
56.0,-209.0,-205.0,-395.0,10.0,-49.0,0
56.0,-204.0,-204.0,-401.0,13.0,-55.0,0
58.0,-207.0,-203.0,-404.0,16.0,-55.0,0
56.0,-210.0,-201.0,-402.0,20.0,-55.0,0
53.0,-208.0,-197.0,-392.0,19.0,-46.0,0
56.0,-212.0,-201.0,-378.0,14.0,-42.0,0
52.0,-206.0,-201.0,-367.0,17.0,-52.0,0
50.0,-210.0,-199.0,-358.0,22.0,-57.0,0
47.0,-208.0,-204.0,-348.0,23.0,-58.0,0
48.0,-208.0,-204.0,-337.0,23.0,-57.0,0
47.0,-206.0,-203.0,-327.0,17.0,-56.0,0
43.0,-207.0,-201.0,-312.0,13.0,-55.0,0
48.0,-206.0,-203.0,-294.0,5.0,-51.0,0
44.0,-207.0,-207.0,-279.0,0.0,-55.0,0
41.0,-206.0,-199.0,-268.0,-6.0,-65.0,0
36.0,-206.0,-203.0,-259.0,-10.0,-74.0,0
35.0,-204.0,-205.0,-251.0,-14.0,-76.0,0
37.0,-202.0,-202.0,-243.0,-16.0,-77.0,0
36.0,-201.0,-206.0,-239.0,-20.0,-79.0,0
38.0,-198.0,-203.0,-235.0,-23.0,-81.0,0
37.0,-196.0,-204.0,-228.0,-29.0,-83.0,0
33.0,-197.0,-208.0,-221.0,-36.0,-71.0,0
28.0,-203.0,-213.0,-210.0,-45.0,-68.0,0
36.0,-197.0,-215.0,-210.0,-47.0,-73.0,0
37.0,-196.0,-215.0,-214.0,-45.0,-75.0,0
39.0,-199.0,-210.0,-217.0,-41.0,-76.0,0
42.0,-198.0,-215.0,-218.0,-42.0,-72.0,0
44.0,-196.0,-215.0,-222.0,-41.0,-69.0,0
44.0,-201.0,-216.0,-224.0,-39.0,-69.0,0
49.0,-199.0,-219.0,-228.0,-35.0,-68.0,0
47.0,-201.0,-218.0,-236.0,-25.0,-68.0,0
47.0,-201.0,-216.0,-242.0,-13.0,-65.0,0
52.0,-202.0,-221.0,-244.0,0.0,-64.0,0
50.0,-205.0,-220.0,-240.0,14.0,-62.0,0
49.0,-201.0,-211.0,-234.0,25.0,-60.0,0
52.0,-204.0,-208.0,-221.0,31.0,-51.0,0
59.0,-199.0,-205.0,-206.0,33.0,-44.0,0
55.0,-198.0,-211.0,-205.0,39.0,-51.0,0
50.0,-194.0,-205.0,-207.0,45.0,-52.0,0
51.0,-197.0,-204.0,-206.0,45.0,-53.0,0
48.0,-195.0,-203.0,-203.0,38.0,-49.0,0
47.0,-191.0,-202.0,-200.0,30.0,-45.0,0
48.0,-194.0,-202.0,-196.0,20.0,-43.0,0
45.0,-191.0,-208.0,-188.0,9.0,-39.0,0
55.0,-193.0,-198.0,-181.0,-3.0,-36.0,0
38.0,-191.0,-209.0,-170.0,-9.0,-45.0,0
38.0,-192.0,-207.0,-161.0,-11.0,-34.0,0
43.0,-192.0,-207.0,-160.0,-18.0,-27.0,0
42.0,-190.0,-211.0,-163.0,-22.0,-24.0,0
42.0,-192.0,-213.0,-165.0,-21.0,-29.0,0
41.0,-190.0,-213.0,-165.0,-19.0,-36.0,0
40.0,-190.0,-215.0,-163.0,-14.0,-45.0,0
39.0,-190.0,-212.0,-165.0,-4.0,-51.0,0
44.0,-193.0,-218.0,-162.0,5.0,-55.0,0
43.0,-192.0,-220.0,-154.0,16.0,-55.0,0
44.0,-196.0,-218.0,-145.0,26.0,-51.0,0
46.0,-196.0,-218.0,-136.0,33.0,-48.0,0
45.0,-194.0,-215.0,-128.0,35.0,-44.0,0
49.0,-194.0,-219.0,-120.0,32.0,-38.0,0
48.0,-194.0,-213.0,-117.0,30.0,-34.0,0
48.0,-193.0,-218.0,-116.0,28.0,-28.0,0
49.0,-190.0,-217.0,-123.0,26.0,-24.0,0
49.0,-193.0,-222.0,-132.0,26.0,-20.0,0
51.0,-197.0,-219.0,-143.0,31.0,-17.0,0
49.0,-196.0,-224.0,-152.0,35.0,-15.0,0
47.0,-199.0,-226.0,-162.0,37.0,-14.0,0
46.0,-195.0,-230.0,-169.0,38.0,-15.0,0
46.0,-196.0,-224.0,-173.0,39.0,-16.0,0
44.0,-195.0,-225.0,-184.0,39.0,-16.0,0
48.0,-195.0,-225.0,-195.0,38.0,-15.0,0
44.0,-199.0,-222.0,-204.0,41.0,-21.0,0
44.0,-197.0,-223.0,-209.0,40.0,-20.0,0
45.0,-200.0,-222.0,-209.0,41.0,-20.0,0
48.0,-201.0,-221.0,-207.0,42.0,-21.0,0
44.0,-198.0,-216.0,-200.0,41.0,-20.0,0
50.0,-199.0,-212.0,-188.0,38.0,-20.0,0
48.0,-193.0,-213.0,-173.0,36.0,-18.0,0
49.0,-199.0,-210.0,-158.0,33.0,-10.0,0
53.0,-199.0,-209.0,-146.0,36.0,-14.0,0
53.0,-197.0,-209.0,-140.0,41.0,-21.0,0
52.0,-196.0,-206.0,-133.0,42.0,-22.0,0
52.0,-194.0,-205.0,-129.0,37.0,-20.0,0
50.0,-192.0,-207.0,-119.0,31.0,-21.0,0
49.0,-191.0,-204.0,-108.0,25.0,-19.0,0
50.0,-193.0,-205.0,-96.0,19.0,-16.0,0
48.0,-193.0,-202.0,-85.0,14.0,-15.0,0
50.0,-191.0,-208.0,-75.0,11.0,-13.0,0
48.0,-193.0,-205.0,-66.0,9.0,-11.0,0
57.0,-194.0,-212.0,-58.0,9.0,-7.0,0
48.0,-191.0,-208.0,-52.0,9.0,-3.0,0
46.0,-188.0,-213.0,-50.0,10.0,-2.0,0
47.0,-190.0,-210.0,-51.0,10.0,1.0,0
49.0,-192.0,-212.0,-52.0,8.0,3.0,0
50.0,-192.0,-214.0,-53.0,5.0,5.0,0
47.0,-191.0,-217.0,-53.0,-1.0,5.0,0
46.0,-191.0,-218.0,-52.0,-5.0,5.0,0
50.0,-192.0,-218.0,-53.0,-8.0,4.0,0
51.0,-196.0,-216.0,-54.0,-10.0,2.0,0
51.0,-192.0,-220.0,-54.0,-11.0,-4.0,0
54.0,-191.0,-221.0,-56.0,-10.0,-8.0,0
53.0,-194.0,-217.0,-59.0,-7.0,-12.0,0
52.0,-193.0,-221.0,-63.0,-3.0,-15.0,0
56.0,-193.0,-222.0,-65.0,2.0,-20.0,0
57.0,-195.0,-216.0,-70.0,7.0,-25.0,0
61.0,-193.0,-223.0,-77.0,12.0,-30.0,0
59.0,-193.0,-228.0,-82.0,15.0,-36.0,0
56.0,-194.0,-221.0,-86.0,15.0,-41.0,0
58.0,-193.0,-221.0,-90.0,13.0,-45.0,0
55.0,-192.0,-218.0,-94.0,7.0,-50.0,0
52.0,-191.0,-220.0,-95.0,-2.0,-52.0,0
46.0,-189.0,-220.0,-99.0,-10.0,-52.0,0
55.0,-191.0,-216.0,-104.0,-17.0,-51.0,0
55.0,-191.0,-219.0,-107.0,-22.0,-52.0,0
49.0,-187.0,-212.0,-112.0,-25.0,-52.0,0
47.0,-185.0,-217.0,-117.0,-27.0,-49.0,0
51.0,-185.0,-211.0,-117.0,-26.0,-49.0,0
49.0,-184.0,-213.0,-115.0,-25.0,-49.0,0
44.0,-185.0,-212.0,-116.0,-21.0,-47.0,0
48.0,-181.0,-210.0,-115.0,-16.0,-47.0,0
49.0,-176.0,-210.0,-115.0,-11.0,-46.0,0
45.0,-183.0,-207.0,-116.0,-9.0,-41.0,0
51.0,-184.0,-204.0,-118.0,-6.0,-40.0,0
48.0,-179.0,-204.0,-118.0,-4.0,-36.0,0
51.0,-180.0,-209.0,-116.0,-4.0,-34.0,0
48.0,-177.0,-205.0,-115.0,-3.0,-32.0,0
47.0,-174.0,-203.0,-112.0,-3.0,-30.0,0
47.0,-177.0,-207.0,-113.0,-4.0,-28.0,0
49.0,-180.0,-208.0,-109.0,-5.0,-26.0,0
47.0,-177.0,-208.0,-107.0,-6.0,-25.0,0
44.0,-176.0,-206.0,-107.0,-7.0,-24.0,0
48.0,-176.0,-210.0,-106.0,-11.0,-24.0,0
45.0,-177.0,-216.0,-108.0,-13.0,-26.0,0
45.0,-175.0,-213.0,-108.0,-14.0,-27.0,0
46.0,-177.0,-210.0,-113.0,-17.0,-26.0,0
46.0,-176.0,-215.0,-118.0,-16.0,-26.0,0
47.0,-176.0,-216.0,-125.0,-15.0,-25.0,0
47.0,-177.0,-217.0,-131.0,-14.0,-25.0,0
46.0,-173.0,-219.0,-138.0,-12.0,-26.0,0
51.0,-179.0,-217.0,-141.0,-8.0,-29.0,0
49.0,-177.0,-222.0,-146.0,-6.0,-30.0,0
48.0,-178.0,-221.0,-150.0,-5.0,-30.0,0
58.0,-178.0,-219.0,-154.0,-6.0,-30.0,0
67.0,-180.0,-222.0,-154.0,-9.0,-40.0,0
48.0,-181.0,-222.0,-150.0,-9.0,-51.0,0
43.0,-180.0,-224.0,-154.0,-2.0,-44.0,0
40.0,-177.0,-224.0,-161.0,-2.0,-33.0,0
49.0,-181.0,-223.0,-164.0,-14.0,-14.0,0
55.0,-184.0,-228.0,-166.0,-19.0,-7.0,0
51.0,-186.0,-226.0,-178.0,-7.0,-16.0,0
49.0,-180.0,-228.0,-191.0,0.0,-24.0,0
47.0,-178.0,-222.0,-204.0,1.0,-28.0,0
47.0,-179.0,-221.0,-211.0,0.0,-31.0,0
72.0,-181.0,-212.0,-215.0,1.0,-31.0,0
39.0,-178.0,-218.0,-211.0,1.0,-49.0,0
47.0,-184.0,-222.0,-207.0,10.0,-37.0,0
47.0,-180.0,-222.0,-207.0,15.0,-30.0,0
37.0,-174.0,-214.0,-209.0,18.0,-24.0,0
45.0,-178.0,-214.0,-199.0,16.0,-11.0,0
48.0,-179.0,-221.0,-192.0,21.0,-10.0,0
48.0,-177.0,-216.0,-192.0,36.0,-17.0,0
48.0,-176.0,-218.0,-190.0,46.0,-23.0,0
65.0,-177.0,-213.0,-189.0,48.0,-31.0,0
38.0,-177.0,-215.0,-177.0,46.0,-56.0,0
47.0,-176.0,-218.0,-179.0,46.0,-39.0,0
46.0,-173.0,-224.0,-187.0,43.0,-28.0,0
43.0,-169.0,-217.0,-197.0,41.0,-24.0,0
42.0,-173.0,-214.0,-197.0,30.0,-10.0,0
55.0,-177.0,-225.0,-197.0,24.0,-7.0,0
47.0,-177.0,-222.0,-194.0,34.0,-18.0,0
46.0,-178.0,-229.0,-191.0,47.0,-30.0,0
62.0,-179.0,-226.0,-185.0,55.0,-39.0,0
33.0,-179.0,-227.0,-176.0,56.0,-69.0,0
40.0,-180.0,-229.0,-170.0,66.0,-54.0,0
39.0,-176.0,-229.0,-170.0,68.0,-49.0,0
35.0,-177.0,-231.0,-175.0,63.0,-38.0,0
47.0,-183.0,-232.0,-172.0,49.0,-27.0,0
56.0,-184.0,-229.0,-175.0,41.0,-30.0,0
33.0,-184.0,-231.0,-175.0,31.0,-50.0,0
39.0,-181.0,-233.0,-173.0,27.0,-51.0,0
43.0,-180.0,-234.0,-180.0,21.0,-39.0,0
43.0,-182.0,-233.0,-188.0,10.0,-32.0,0
55.0,-182.0,-232.0,-192.0,-1.0,-31.0,0
36.0,-179.0,-234.0,-192.0,-8.0,-44.0,0
40.0,-179.0,-234.0,-195.0,-8.0,-27.0,0
46.0,-179.0,-236.0,-202.0,-11.0,-12.0,0
46.0,-179.0,-231.0,-206.0,-15.0,-1.0,0
52.0,-181.0,-233.0,-205.0,-19.0,4.0,0
48.0,-180.0,-234.0,-204.0,-12.0,3.0,0
51.0,-184.0,-231.0,-206.0,-4.0,-3.0,0
51.0,-182.0,-227.0,-205.0,4.0,-9.0,0
46.0,-180.0,-229.0,-198.0,8.0,-22.0,0
45.0,-184.0,-234.0,-178.0,11.0,-36.0,0
46.0,-182.0,-233.0,-176.0,17.0,-21.0,0
45.0,-177.0,-233.0,-178.0,14.0,-8.0,0
46.0,-179.0,-231.0,-178.0,6.0,5.0,0
55.0,-185.0,-231.0,-175.0,-6.0,11.0,0
52.0,-181.0,-233.0,-174.0,-10.0,8.0,0
54.0,-183.0,-219.0,-176.0,-7.0,1.0,0
47.0,-178.0,-234.0,-173.0,-8.0,-2.0,0
49.0,-180.0,-234.0,-172.0,-10.0,-4.0,0
49.0,-180.0,-235.0,-169.0,-12.0,-3.0,0
56.0,-179.0,-231.0,-163.0,-16.0,-11.0,0
42.0,-186.0,-237.0,-148.0,-22.0,-26.0,0
46.0,-182.0,-233.0,-152.0,-17.0,-9.0,0
45.0,-181.0,-235.0,-157.0,-14.0,0.0,0
47.0,-179.0,-238.0,-159.0,-13.0,6.0,0
48.0,-179.0,-233.0,-161.0,-10.0,8.0,0
46.0,-180.0,-234.0,-163.0,-7.0,7.0,0
49.0,-179.0,-236.0,-162.0,-5.0,7.0,0
50.0,-183.0,-233.0,-156.0,-2.0,6.0,0
49.0,-178.0,-232.0,-151.0,3.0,8.0,0
47.0,-175.0,-236.0,-146.0,3.0,7.0,0
51.0,-175.0,-234.0,-143.0,1.0,9.0,0
52.0,-174.0,-237.0,-142.0,2.0,9.0,0
49.0,-176.0,-232.0,-139.0,3.0,9.0,0
50.0,-174.0,-227.0,-140.0,2.0,8.0,0
48.0,-177.0,-231.0,-135.0,3.0,10.0,0
46.0,-172.0,-231.0,-132.0,0.0,8.0,0
41.0,-173.0,-230.0,-129.0,1.0,10.0,0
49.0,-172.0,-231.0,-127.0,0.0,11.0,0
44.0,-176.0,-229.0,-125.0,-1.0,11.0,0
44.0,-174.0,-228.0,-121.0,-2.0,12.0,0
45.0,-174.0,-231.0,-117.0,-1.0,13.0,0
43.0,-172.0,-233.0,-111.0,-5.0,15.0,0
42.0,-170.0,-231.0,-105.0,-6.0,17.0,0
42.0,-168.0,-229.0,-98.0,-6.0,16.0,0
42.0,-167.0,-232.0,-95.0,-7.0,18.0,0
43.0,-170.0,-231.0,-93.0,-9.0,19.0,0
44.0,-171.0,-233.0,-86.0,-12.0,20.0,0
48.0,-172.0,-230.0,-84.0,-15.0,22.0,0
42.0,-169.0,-233.0,-81.0,-16.0,24.0,0
44.0,-166.0,-231.0,-79.0,-19.0,24.0,0
47.0,-168.0,-232.0,-80.0,-20.0,25.0,0
49.0,-166.0,-230.0,-83.0,-22.0,24.0,0
47.0,-165.0,-231.0,-86.0,-22.0,24.0,0
47.0,-167.0,-233.0,-91.0,-25.0,25.0,0
48.0,-170.0,-232.0,-96.0,-24.0,25.0,0
43.0,-163.0,-233.0,-97.0,-24.0,26.0,0
48.0,-168.0,-233.0,-97.0,-24.0,26.0,0
46.0,-164.0,-227.0,-98.0,-23.0,26.0,0
52.0,-168.0,-231.0,-95.0,-24.0,25.0,0
50.0,-169.0,-230.0,-90.0,-22.0,26.0,0
50.0,-168.0,-237.0,-86.0,-21.0,24.0,0
49.0,-168.0,-236.0,-82.0,-19.0,22.0,0
51.0,-169.0,-233.0,-81.0,-16.0,22.0,0
49.0,-167.0,-234.0,-80.0,-12.0,22.0,0
48.0,-167.0,-231.0,-79.0,-9.0,21.0,0
51.0,-168.0,-237.0,-74.0,-4.0,20.0,0
47.0,-163.0,-232.0,-76.0,1.0,22.0,0
44.0,-159.0,-236.0,-77.0,6.0,23.0,0
44.0,-163.0,-229.0,-79.0,10.0,26.0,0
47.0,-170.0,-230.0,-76.0,11.0,29.0,0
49.0,-173.0,-234.0,-75.0,8.0,30.0,0
47.0,-173.0,-230.0,-76.0,4.0,30.0,0
43.0,-170.0,-230.0,-79.0,0.0,28.0,0
47.0,-171.0,-233.0,-82.0,-3.0,24.0,0
45.0,-168.0,-238.0,-84.0,-3.0,19.0,0
47.0,-170.0,-235.0,-87.0,-1.0,12.0,0
42.0,-166.0,-237.0,-88.0,1.0,8.0,0
44.0,-170.0,-237.0,-89.0,4.0,6.0,0
42.0,-167.0,-236.0,-87.0,7.0,7.0,0
41.0,-170.0,-233.0,-87.0,11.0,10.0,0
42.0,-170.0,-238.0,-90.0,9.0,14.0,0
45.0,-170.0,-237.0,-93.0,6.0,18.0,0
45.0,-169.0,-232.0,-98.0,3.0,21.0,0
47.0,-171.0,-230.0,-100.0,-2.0,22.0,0
44.0,-172.0,-234.0,-102.0,-3.0,20.0,0
42.0,-173.0,-230.0,-103.0,-6.0,17.0,0
44.0,-170.0,-229.0,-101.0,-4.0,13.0,0
43.0,-171.0,-230.0,-101.0,0.0,10.0,0
43.0,-166.0,-235.0,-100.0,5.0,6.0,0
43.0,-166.0,-230.0,-99.0,11.0,2.0,0
47.0,-170.0,-224.0,-99.0,17.0,-1.0,0
46.0,-167.0,-234.0,-102.0,22.0,-3.0,0
46.0,-172.0,-231.0,-104.0,27.0,-5.0,0
47.0,-171.0,-236.0,-103.0,31.0,-7.0,0
46.0,-169.0,-234.0,-97.0,34.0,-9.0,0
46.0,-173.0,-233.0,-92.0,35.0,-9.0,0
49.0,-173.0,-236.0,-83.0,32.0,-6.0,0
47.0,-171.0,-237.0,-81.0,30.0,-5.0,0
45.0,-168.0,-235.0,-80.0,27.0,-3.0,0
43.0,-168.0,-237.0,-78.0,22.0,-2.0,0
46.0,-168.0,-239.0,-75.0,17.0,-1.0,0
44.0,-169.0,-238.0,-76.0,17.0,1.0,0
43.0,-172.0,-236.0,-74.0,15.0,3.0,0
45.0,-172.0,-236.0,-73.0,14.0,5.0,0
45.0,-167.0,-236.0,-71.0,13.0,7.0,0
45.0,-169.0,-234.0,-67.0,11.0,9.0,0
43.0,-164.0,-237.0,-66.0,11.0,12.0,0
46.0,-164.0,-236.0,-65.0,11.0,12.0,0
43.0,-161.0,-235.0,-66.0,9.0,12.0,0
42.0,-161.0,-239.0,-70.0,6.0,12.0,0
44.0,-161.0,-233.0,-76.0,3.0,12.0,0
43.0,-158.0,-237.0,-82.0,-2.0,13.0,0
41.0,-156.0,-244.0,-87.0,-8.0,12.0,0
40.0,-160.0,-239.0,-90.0,-14.0,12.0,0
45.0,-164.0,-238.0,-90.0,-20.0,12.0,0
43.0,-162.0,-239.0,-88.0,-28.0,11.0,0
43.0,-164.0,-241.0,-84.0,-34.0,12.0,0
47.0,-163.0,-241.0,-77.0,-37.0,11.0,0
45.0,-162.0,-239.0,-71.0,-38.0,10.0,0
45.0,-163.0,-239.0,-68.0,-36.0,10.0,0
48.0,-166.0,-238.0,-66.0,-31.0,10.0,0
49.0,-166.0,-237.0,-65.0,-27.0,7.0,0
44.0,-163.0,-240.0,-65.0,-20.0,7.0,0
48.0,-166.0,-240.0,-64.0,-14.0,5.0,0
45.0,-167.0,-241.0,-65.0,-10.0,2.0,0
48.0,-168.0,-240.0,-64.0,-5.0,-3.0,0
44.0,-166.0,-232.0,-63.0,-1.0,-4.0,0
45.0,-166.0,-233.0,-63.0,-2.0,-7.0,0
45.0,-163.0,-231.0,-62.0,-1.0,-11.0,0
45.0,-162.0,-232.0,-64.0,-3.0,-16.0,0
45.0,-163.0,-231.0,-65.0,-3.0,-17.0,0
45.0,-161.0,-236.0,-66.0,-6.0,-21.0,0
45.0,-164.0,-236.0,-66.0,-9.0,-21.0,0
45.0,-162.0,-235.0,-67.0,-8.0,-20.0,0
46.0,-158.0,-235.0,-66.0,-8.0,-21.0,0
45.0,-161.0,-238.0,-68.0,-7.0,-21.0,0
45.0,-160.0,-236.0,-75.0,-6.0,-21.0,0
44.0,-157.0,-233.0,-81.0,-4.0,-20.0,0
46.0,-158.0,-235.0,-88.0,-2.0,-20.0,0
41.0,-157.0,-235.0,-93.0,-1.0,-19.0,0
42.0,-159.0,-236.0,-94.0,1.0,-19.0,0
43.0,-158.0,-233.0,-98.0,2.0,-20.0,0
42.0,-157.0,-233.0,-104.0,5.0,-21.0,0
42.0,-157.0,-231.0,-109.0,7.0,-22.0,0
45.0,-161.0,-237.0,-109.0,10.0,-23.0,0
40.0,-161.0,-244.0,-114.0,14.0,-24.0,0
41.0,-157.0,-242.0,-117.0,20.0,-25.0,0
45.0,-156.0,-238.0,-122.0,26.0,-23.0,0
46.0,-162.0,-242.0,-125.0,30.0,-21.0,0
47.0,-161.0,-242.0,-125.0,35.0,-17.0,0
50.0,-161.0,-240.0,-127.0,38.0,-14.0,0
49.0,-160.0,-245.0,-129.0,40.0,-12.0,0
47.0,-161.0,-242.0,-133.0,42.0,-9.0,0
46.0,-160.0,-248.0,-135.0,43.0,-7.0,0
51.0,-162.0,-243.0,-137.0,40.0,-5.0,0
47.0,-157.0,-242.0,-142.0,40.0,-4.0,0
46.0,-159.0,-250.0,-148.0,39.0,-3.0,0
45.0,-161.0,-242.0,-156.0,36.0,-2.0,0
43.0,-156.0,-244.0,-164.0,34.0,-2.0,0
48.0,-160.0,-245.0,-172.0,34.0,-5.0,0
42.0,-157.0,-243.0,-180.0,34.0,-7.0,0
44.0,-159.0,-240.0,-187.0,33.0,-8.0,0
41.0,-158.0,-239.0,-190.0,34.0,-8.0,0
40.0,-156.0,-235.0,-190.0,36.0,-9.0,0
43.0,-158.0,-240.0,-189.0,40.0,-9.0,0
40.0,-155.0,-242.0,-187.0,43.0,-8.0,0
42.0,-156.0,-237.0,-182.0,46.0,-5.0,0
46.0,-159.0,-233.0,-179.0,48.0,-2.0,0
37.0,-158.0,-232.0,-174.0,49.0,1.0,0
41.0,-156.0,-234.0,-168.0,49.0,6.0,0
39.0,-154.0,-233.0,-163.0,50.0,10.0,0
42.0,-156.0,-233.0,-157.0,52.0,11.0,0
45.0,-155.0,-235.0,-149.0,55.0,13.0,0
40.0,-156.0,-235.0,-142.0,58.0,13.0,0
41.0,-153.0,-234.0,-136.0,61.0,16.0,0
43.0,-156.0,-238.0,-128.0,65.0,16.0,0
42.0,-157.0,-238.0,-127.0,68.0,17.0,0
42.0,-155.0,-238.0,-124.0,72.0,17.0,0
51.0,-154.0,-241.0,-122.0,75.0,18.0,0
45.0,-156.0,-238.0,-122.0,78.0,19.0,0
45.0,-156.0,-237.0,-122.0,78.0,23.0,0
46.0,-157.0,-236.0,-120.0,77.0,26.0,0
41.0,-152.0,-238.0,-121.0,73.0,28.0,0
46.0,-155.0,-236.0,-115.0,68.0,30.0,0
42.0,-154.0,-239.0,-109.0,61.0,27.0,0
56.0,-155.0,-234.0,-100.0,57.0,25.0,0
40.0,-155.0,-238.0,-86.0,50.0,9.0,0
39.0,-158.0,-244.0,-86.0,55.0,18.0,0
42.0,-156.0,-241.0,-95.0,59.0,26.0,0
45.0,-158.0,-233.0,-101.0,63.0,29.0,0
43.0,-158.0,-236.0,-105.0,69.0,26.0,0
44.0,-159.0,-242.0,-103.0,74.0,24.0,0
47.0,-162.0,-241.0,-96.0,78.0,23.0,0
45.0,-161.0,-243.0,-83.0,74.0,14.0,0
39.0,-163.0,-245.0,-63.0,72.0,10.0,0
43.0,-164.0,-247.0,-53.0,72.0,23.0,0
41.0,-161.0,-246.0,-47.0,68.0,32.0,0
43.0,-163.0,-250.0,-43.0,59.0,41.0,0
45.0,-163.0,-249.0,-39.0,51.0,40.0,0
43.0,-163.0,-250.0,-39.0,43.0,38.0,0
62.0,-170.0,-246.0,-35.0,34.0,32.0,0
34.0,-167.0,-254.0,-26.0,25.0,9.0,0
39.0,-164.0,-255.0,-28.0,26.0,22.0,0
39.0,-168.0,-255.0,-39.0,31.0,26.0,0
41.0,-162.0,-255.0,-53.0,28.0,33.0,0
45.0,-167.0,-257.0,-64.0,26.0,39.0,0
47.0,-169.0,-254.0,-75.0,26.0,42.0,0
44.0,-166.0,-253.0,-80.0,28.0,45.0,0
50.0,-168.0,-250.0,-82.0,29.0,48.0,0
44.0,-163.0,-250.0,-80.0,30.0,49.0,0
47.0,-166.0,-247.0,-79.0,30.0,49.0,0
48.0,-162.0,-250.0,-73.0,29.0,49.0,0
48.0,-164.0,-243.0,-68.0,31.0,47.0,0
49.0,-163.0,-239.0,-64.0,30.0,43.0,0
48.0,-162.0,-241.0,-61.0,34.0,39.0,0
48.0,-162.0,-239.0,-59.0,35.0,37.0,0
49.0,-156.0,-238.0,-53.0,38.0,33.0,0
49.0,-165.0,-238.0,-47.0,44.0,30.0,0
44.0,-166.0,-235.0,-40.0,49.0,28.0,0
45.0,-164.0,-236.0,-31.0,55.0,26.0,0
49.0,-166.0,-237.0,-22.0,61.0,27.0,0
45.0,-164.0,-236.0,-11.0,62.0,28.0,0
37.0,-161.0,-231.0,-2.0,63.0,29.0,0
44.0,-162.0,-229.0,10.0,61.0,30.0,0
42.0,-165.0,-233.0,26.0,58.0,32.0,0
43.0,-167.0,-236.0,38.0,53.0,32.0,0
41.0,-161.0,-236.0,50.0,49.0,32.0,0
41.0,-164.0,-238.0,61.0,41.0,33.0,0
40.0,-163.0,-237.0,68.0,37.0,32.0,0
40.0,-160.0,-240.0,74.0,34.0,31.0,0
42.0,-162.0,-235.0,77.0,30.0,28.0,0
42.0,-161.0,-240.0,78.0,24.0,25.0,0
43.0,-159.0,-232.0,77.0,22.0,22.0,0
42.0,-161.0,-239.0,77.0,18.0,20.0,0
44.0,-160.0,-240.0,77.0,16.0,17.0,0
42.0,-160.0,-244.0,78.0,16.0,14.0,0
45.0,-162.0,-240.0,79.0,15.0,15.0,0
44.0,-164.0,-240.0,79.0,15.0,13.0,0
49.0,-165.0,-243.0,84.0,14.0,13.0,0
48.0,-164.0,-241.0,87.0,14.0,10.0,0
51.0,-166.0,-243.0,92.0,15.0,8.0,0
48.0,-164.0,-245.0,93.0,16.0,7.0,0
52.0,-170.0,-249.0,95.0,16.0,6.0,0
53.0,-173.0,-247.0,92.0,19.0,5.0,0
49.0,-171.0,-250.0,92.0,23.0,5.0,0
49.0,-170.0,-250.0,89.0,28.0,7.0,0
47.0,-173.0,-252.0,89.0,35.0,7.0,0
48.0,-172.0,-249.0,87.0,37.0,7.0,0
48.0,-169.0,-252.0,85.0,39.0,10.0,0
47.0,-171.0,-249.0,85.0,40.0,8.0,0
47.0,-176.0,-245.0,87.0,38.0,8.0,0
45.0,-174.0,-246.0,90.0,36.0,8.0,0
42.0,-174.0,-243.0,91.0,33.0,7.0,0
41.0,-170.0,-240.0,93.0,31.0,8.0,0
44.0,-163.0,-230.0,94.0,32.0,11.0,0
39.0,-169.0,-234.0,101.0,31.0,14.0,0
40.0,-168.0,-233.0,107.0,32.0,15.0,0
40.0,-167.0,-231.0,112.0,32.0,18.0,0
38.0,-166.0,-235.0,113.0,33.0,20.0,0
37.0,-161.0,-232.0,114.0,33.0,21.0,0
39.0,-160.0,-230.0,115.0,32.0,23.0,0
36.0,-157.0,-225.0,113.0,31.0,23.0,0
39.0,-163.0,-222.0,113.0,32.0,25.0,0
42.0,-163.0,-228.0,113.0,33.0,25.0,0
39.0,-163.0,-224.0,115.0,33.0,25.0,0
34.0,-158.0,-223.0,114.0,33.0,26.0,0
39.0,-164.0,-226.0,117.0,32.0,27.0,0
42.0,-163.0,-226.0,119.0,32.0,28.0,0
40.0,-161.0,-227.0,119.0,34.0,29.0,0
41.0,-166.0,-230.0,123.0,38.0,28.0,0
42.0,-166.0,-232.0,122.0,42.0,27.0,0
41.0,-166.0,-238.0,123.0,45.0,27.0,0
41.0,-165.0,-236.0,120.0,48.0,25.0,0
41.0,-163.0,-235.0,116.0,51.0,24.0,0
40.0,-163.0,-237.0,111.0,54.0,22.0,0
39.0,-163.0,-231.0,103.0,56.0,23.0,0
41.0,-161.0,-233.0,94.0,56.0,23.0,0
40.0,-163.0,-239.0,82.0,56.0,24.0,0
41.0,-166.0,-237.0,66.0,52.0,27.0,0
38.0,-161.0,-238.0,51.0,48.0,31.0,0
39.0,-163.0,-241.0,39.0,44.0,36.0,0
39.0,-164.0,-237.0,26.0,38.0,40.0,0
37.0,-165.0,-234.0,17.0,34.0,42.0,0
39.0,-165.0,-231.0,9.0,28.0,42.0,0
40.0,-165.0,-233.0,3.0,26.0,42.0,0
39.0,-167.0,-232.0,-2.0,26.0,43.0,0
38.0,-165.0,-228.0,-7.0,22.0,43.0,0
37.0,-160.0,-229.0,-12.0,20.0,42.0,0
41.0,-170.0,-234.0,-14.0,19.0,43.0,0
42.0,-168.0,-233.0,-15.0,19.0,44.0,0
45.0,-168.0,-231.0,-15.0,19.0,43.0,0
42.0,-166.0,-231.0,-16.0,21.0,44.0,0
42.0,-169.0,-228.0,-20.0,23.0,48.0,0
44.0,-166.0,-225.0,-25.0,28.0,50.0,0
42.0,-165.0,-231.0,-29.0,31.0,51.0,0
45.0,-166.0,-229.0,-35.0,33.0,50.0,0
46.0,-166.0,-230.0,-40.0,38.0,51.0,0
42.0,-169.0,-226.0,-46.0,42.0,52.0,0
53.0,-164.0,-223.0,-50.0,47.0,51.0,0
44.0,-167.0,-231.0,-57.0,51.0,50.0,0
43.0,-168.0,-227.0,-60.0,52.0,49.0,0
48.0,-169.0,-226.0,-61.0,55.0,46.0,0
44.0,-172.0,-227.0,-62.0,56.0,43.0,0
44.0,-170.0,-226.0,-63.0,58.0,41.0,0
48.0,-169.0,-226.0,-62.0,60.0,39.0,0
45.0,-169.0,-225.0,-60.0,63.0,37.0,0
48.0,-171.0,-227.0,-57.0,65.0,33.0,0
42.0,-168.0,-230.0,-56.0,68.0,30.0,0
39.0,-169.0,-230.0,-52.0,71.0,29.0,0
44.0,-171.0,-219.0,-53.0,72.0,25.0,0
43.0,-169.0,-231.0,-55.0,75.0,22.0,0
45.0,-170.0,-227.0,-57.0,75.0,20.0,0
44.0,-170.0,-231.0,-61.0,74.0,20.0,0
44.0,-169.0,-235.0,-63.0,73.0,18.0,0
42.0,-171.0,-234.0,-63.0,71.0,15.0,0
43.0,-173.0,-235.0,-63.0,68.0,12.0,0
40.0,-168.0,-237.0,-62.0,63.0,11.0,0
41.0,-169.0,-239.0,-62.0,57.0,9.0,0
42.0,-169.0,-239.0,-64.0,50.0,9.0,0
42.0,-170.0,-238.0,-68.0,45.0,7.0,0
44.0,-168.0,-231.0,-72.0,40.0,7.0,0
41.0,-170.0,-238.0,-76.0,36.0,7.0,0
39.0,-169.0,-234.0,-82.0,31.0,7.0,0
40.0,-168.0,-237.0,-89.0,27.0,7.0,0
43.0,-167.0,-236.0,-97.0,23.0,8.0,0
42.0,-169.0,-234.0,-103.0,18.0,6.0,0
46.0,-173.0,-235.0,-110.0,13.0,6.0,0
41.0,-174.0,-229.0,-114.0,10.0,5.0,0
42.0,-171.0,-233.0,-116.0,11.0,7.0,0
41.0,-170.0,-229.0,-115.0,13.0,7.0,0
42.0,-171.0,-229.0,-114.0,19.0,5.0,0
48.0,-171.0,-224.0,-115.0,22.0,7.0,0
46.0,-170.0,-224.0,-111.0,28.0,9.0,0
51.0,-177.0,-232.0,-111.0,31.0,7.0,0
49.0,-173.0,-227.0,-110.0,35.0,4.0,0
48.0,-172.0,-228.0,-111.0,37.0,2.0,0
52.0,-170.0,-230.0,-112.0,40.0,1.0,0
49.0,-174.0,-229.0,-113.0,43.0,0.0,0
48.0,-171.0,-233.0,-109.0,45.0,-1.0,0
48.0,-173.0,-234.0,-105.0,46.0,-1.0,0
46.0,-169.0,-231.0,-99.0,46.0,0.0,0
49.0,-172.0,-231.0,-92.0,46.0,-1.0,0
52.0,-173.0,-236.0,-86.0,46.0,0.0,0
46.0,-172.0,-234.0,-78.0,47.0,0.0,0
46.0,-171.0,-234.0,-74.0,46.0,1.0,0
46.0,-171.0,-232.0,-72.0,44.0,0.0,0
47.0,-175.0,-236.0,-70.0,43.0,-1.0,0
43.0,-173.0,-236.0,-69.0,42.0,-5.0,0
46.0,-172.0,-239.0,-67.0,42.0,-9.0,0
42.0,-173.0,-237.0,-66.0,42.0,-11.0,0
44.0,-171.0,-241.0,-69.0,44.0,-15.0,0
43.0,-172.0,-240.0,-69.0,43.0,-16.0,0
46.0,-170.0,-243.0,-71.0,43.0,-18.0,0
42.0,-172.0,-237.0,-73.0,43.0,-20.0,0
47.0,-173.0,-232.0,-73.0,42.0,-20.0,0
41.0,-172.0,-234.0,-73.0,38.0,-19.0,0
45.0,-173.0,-235.0,-69.0,36.0,-18.0,0
44.0,-173.0,-231.0,-66.0,30.0,-15.0,0
45.0,-172.0,-237.0,-64.0,25.0,-14.0,0
45.0,-170.0,-240.0,-59.0,18.0,-10.0,0
46.0,-172.0,-235.0,-56.0,9.0,-7.0,0
44.0,-172.0,-236.0,-54.0,1.0,-4.0,0
46.0,-172.0,-240.0,-51.0,-6.0,-2.0,0
44.0,-179.0,-236.0,-50.0,-13.0,-1.0,0
44.0,-168.0,-237.0,-47.0,-18.0,-1.0,0
45.0,-172.0,-239.0,-45.0,-22.0,-2.0,0
45.0,-172.0,-232.0,-40.0,-23.0,-5.0,0
45.0,-174.0,-238.0,-36.0,-22.0,-10.0,0
46.0,-174.0,-234.0,-30.0,-19.0,-13.0,0
49.0,-175.0,-237.0,-25.0,-14.0,-16.0,0
49.0,-173.0,-238.0,-21.0,-8.0,-20.0,0
45.0,-178.0,-243.0,-16.0,-4.0,-22.0,0
49.0,-175.0,-240.0,-9.0,-2.0,-24.0,0
46.0,-174.0,-243.0,-3.0,-2.0,-25.0,0
51.0,-171.0,-241.0,5.0,-3.0,-25.0,0
50.0,-178.0,-235.0,13.0,-5.0,-27.0,0
49.0,-174.0,-240.0,17.0,-7.0,-28.0,0
49.0,-176.0,-240.0,22.0,-7.0,-29.0,0
47.0,-175.0,-241.0,28.0,-9.0,-30.0,0
48.0,-178.0,-241.0,34.0,-9.0,-31.0,0
50.0,-178.0,-240.0,42.0,-8.0,-33.0,0
50.0,-178.0,-238.0,47.0,-5.0,-33.0,0
48.0,-176.0,-243.0,51.0,-3.0,-35.0,0
49.0,-181.0,-247.0,54.0,3.0,-36.0,0
49.0,-177.0,-241.0,58.0,7.0,-37.0,0
50.0,-182.0,-241.0,59.0,10.0,-39.0,0
45.0,-179.0,-239.0,64.0,13.0,-39.0,0
48.0,-180.0,-240.0,73.0,16.0,-38.0,0
45.0,-180.0,-237.0,82.0,22.0,-37.0,0
47.0,-182.0,-237.0,93.0,27.0,-36.0,0
47.0,-183.0,-237.0,105.0,29.0,-34.0,0
47.0,-182.0,-239.0,116.0,27.0,-33.0,0
40.0,-184.0,-235.0,128.0,26.0,-32.0,0
45.0,-184.0,-241.0,136.0,25.0,-30.0,0
45.0,-182.0,-237.0,143.0,24.0,-29.0,0
43.0,-183.0,-242.0,151.0,21.0,-30.0,0
49.0,-182.0,-238.0,154.0,19.0,-31.0,0
43.0,-179.0,-243.0,158.0,15.0,-30.0,0
41.0,-177.0,-239.0,162.0,12.0,-29.0,0
41.0,-178.0,-238.0,162.0,9.0,-28.0,0
43.0,-178.0,-237.0,159.0,5.0,-25.0,0
41.0,-179.0,-235.0,158.0,1.0,-25.0,0
40.0,-178.0,-235.0,158.0,-3.0,-22.0,0
40.0,-178.0,-234.0,162.0,-6.0,-20.0,0
42.0,-181.0,-231.0,162.0,-9.0,-18.0,0
41.0,-179.0,-230.0,164.0,-11.0,-15.0,0
45.0,-173.0,-236.0,166.0,-10.0,-14.0,0
43.0,-178.0,-229.0,169.0,-6.0,-12.0,0
45.0,-179.0,-229.0,169.0,-2.0,-13.0,0
46.0,-180.0,-229.0,170.0,7.0,-15.0,0
45.0,-180.0,-230.0,175.0,16.0,-16.0,0
46.0,-180.0,-230.0,182.0,25.0,-18.0,0
45.0,-180.0,-227.0,189.0,33.0,-24.0,0
43.0,-180.0,-231.0,198.0,44.0,-31.0,0
46.0,-182.0,-230.0,205.0,53.0,-37.0,0
48.0,-185.0,-231.0,211.0,60.0,-41.0,0
47.0,-185.0,-234.0,221.0,68.0,-46.0,0
48.0,-185.0,-232.0,229.0,74.0,-51.0,0
41.0,-187.0,-231.0,238.0,78.0,-54.0,0
46.0,-189.0,-234.0,242.0,82.0,-56.0,0
50.0,-189.0,-235.0,248.0,85.0,-58.0,0
43.0,-184.0,-224.0,252.0,84.0,-56.0,0
49.0,-198.0,-230.0,254.0,83.0,-55.0,0
48.0,-187.0,-228.0,258.0,77.0,-53.0,0
52.0,-186.0,-229.0,261.0,73.0,-51.0,0
53.0,-178.0,-226.0,268.0,68.0,-49.0,0
41.0,-190.0,-234.0,272.0,62.0,-48.0,0
45.0,-189.0,-228.0,280.0,55.0,-46.0,0
38.0,-191.0,-218.0,287.0,46.0,-42.0,0
52.0,-193.0,-215.0,293.0,35.0,-38.0,0
44.0,-185.0,-225.0,296.0,25.0,-36.0,0
47.0,-192.0,-220.0,299.0,14.0,-33.0,0
42.0,-197.0,-213.0,300.0,6.0,-31.0,0
49.0,-190.0,-225.0,302.0,-2.0,-31.0,0
54.0,-191.0,-211.0,302.0,-5.0,-29.0,0
47.0,-191.0,-216.0,305.0,-7.0,-28.0,0
45.0,-188.0,-225.0,304.0,-4.0,-27.0,0
50.0,-197.0,-217.0,305.0,-2.0,-27.0,0
49.0,-197.0,-219.0,305.0,2.0,-28.0,0
41.0,-193.0,-220.0,306.0,7.0,-28.0,0
38.0,-189.0,-225.0,304.0,11.0,-31.0,0
37.0,-187.0,-221.0,303.0,17.0,-33.0,0
45.0,-195.0,-212.0,301.0,19.0,-34.0,0
43.0,-191.0,-212.0,304.0,20.0,-38.0,0
42.0,-197.0,-220.0,305.0,21.0,-42.0,0
47.0,-191.0,-212.0,307.0,22.0,-47.0,0
46.0,-189.0,-211.0,312.0,23.0,-52.0,0
44.0,-194.0,-215.0,316.0,24.0,-54.0,0
45.0,-194.0,-213.0,322.0,25.0,-57.0,0
47.0,-193.0,-213.0,329.0,29.0,-59.0,0
48.0,-193.0,-210.0,336.0,31.0,-59.0,0
42.0,-185.0,-211.0,339.0,33.0,-59.0,0
44.0,-191.0,-209.0,342.0,36.0,-59.0,0
47.0,-194.0,-208.0,346.0,39.0,-58.0,0
49.0,-193.0,-207.0,348.0,41.0,-56.0,0
49.0,-191.0,-208.0,352.0,45.0,-56.0,0
48.0,-193.0,-198.0,353.0,50.0,-57.0,0
52.0,-191.0,-203.0,351.0,54.0,-56.0,0
44.0,-189.0,-209.0,352.0,57.0,-55.0,0
49.0,-187.0,-209.0,347.0,58.0,-55.0,0
49.0,-190.0,-212.0,345.0,59.0,-52.0,0
52.0,-190.0,-203.0,342.0,58.0,-51.0,0
53.0,-190.0,-209.0,338.0,57.0,-51.0,0
56.0,-188.0,-206.0,336.0,53.0,-50.0,0
53.0,-185.0,-211.0,329.0,49.0,-49.0,0
56.0,-189.0,-199.0,326.0,45.0,-46.0,0
56.0,-186.0,-208.0,326.0,44.0,-48.0,0
56.0,-190.0,-208.0,325.0,43.0,-51.0,0
56.0,-187.0,-205.0,325.0,44.0,-52.0,0
55.0,-190.0,-203.0,325.0,45.0,-54.0,0
57.0,-190.0,-202.0,321.0,47.0,-57.0,0
53.0,-186.0,-201.0,318.0,50.0,-59.0,0
54.0,-191.0,-205.0,313.0,54.0,-60.0,0
59.0,-190.0,-205.0,304.0,57.0,-63.0,0
54.0,-191.0,-201.0,295.0,60.0,-63.0,0
53.0,-191.0,-201.0,289.0,62.0,-63.0,0
52.0,-189.0,-199.0,280.0,62.0,-63.0,0
50.0,-187.0,-199.0,271.0,60.0,-60.0,0
49.0,-191.0,-196.0,262.0,54.0,-58.0,0
53.0,-192.0,-197.0,255.0,50.0,-54.0,0
50.0,-190.0,-198.0,245.0,45.0,-48.0,0
48.0,-189.0,-192.0,242.0,39.0,-46.0,0
48.0,-193.0,-193.0,230.0,34.0,-43.0,0
47.0,-192.0,-195.0,220.0,30.0,-39.0,0
49.0,-193.0,-194.0,207.0,29.0,-36.0,0
45.0,-192.0,-196.0,198.0,29.0,-34.0,0
45.0,-194.0,-197.0,189.0,30.0,-35.0,0
48.0,-197.0,-197.0,179.0,35.0,-36.0,0
44.0,-193.0,-195.0,173.0,39.0,-37.0,0
41.0,-196.0,-196.0,163.0,43.0,-41.0,0
47.0,-200.0,-189.0,159.0,43.0,-45.0,0
41.0,-200.0,-195.0,160.0,44.0,-51.0,0
46.0,-203.0,-198.0,161.0,45.0,-55.0,0
46.0,-206.0,-199.0,168.0,45.0,-59.0,0
40.0,-206.0,-201.0,176.0,45.0,-60.0,0
42.0,-206.0,-199.0,183.0,42.0,-63.0,0
44.0,-206.0,-198.0,188.0,38.0,-63.0,0
45.0,-207.0,-195.0,192.0,32.0,-63.0,0
43.0,-205.0,-196.0,195.0,25.0,-62.0,0
43.0,-207.0,-196.0,199.0,16.0,-60.0,0
47.0,-213.0,-195.0,204.0,7.0,-56.0,0
47.0,-212.0,-193.0,212.0,-4.0,-52.0,0
44.0,-212.0,-193.0,220.0,-14.0,-48.0,0
49.0,-215.0,-199.0,228.0,-23.0,-48.0,0
46.0,-214.0,-193.0,234.0,-28.0,-47.0,0
51.0,-214.0,-188.0,239.0,-33.0,-46.0,0
46.0,-213.0,-193.0,244.0,-36.0,-45.0,0
45.0,-212.0,-192.0,247.0,-36.0,-45.0,0
46.0,-212.0,-192.0,250.0,-36.0,-46.0,0
48.0,-215.0,-188.0,253.0,-36.0,-46.0,0
49.0,-212.0,-191.0,251.0,-36.0,-48.0,0
49.0,-212.0,-189.0,247.0,-37.0,-49.0,0
50.0,-209.0,-188.0,244.0,-36.0,-49.0,0
51.0,-209.0,-187.0,238.0,-37.0,-50.0,0
48.0,-204.0,-186.0,234.0,-38.0,-53.0,0
52.0,-203.0,-188.0,232.0,-39.0,-56.0,0
57.0,-207.0,-183.0,229.0,-41.0,-57.0,0
55.0,-203.0,-188.0,228.0,-40.0,-58.0,0
56.0,-200.0,-189.0,226.0,-40.0,-61.0,0
59.0,-201.0,-186.0,224.0,-38.0,-62.0,0
56.0,-200.0,-185.0,224.0,-36.0,-63.0,0
57.0,-202.0,-187.0,221.0,-31.0,-63.0,0
56.0,-198.0,-188.0,219.0,-29.0,-65.0,0
59.0,-198.0,-187.0,213.0,-26.0,-65.0,0
56.0,-195.0,-183.0,209.0,-22.0,-66.0,0
60.0,-195.0,-186.0,202.0,-20.0,-67.0,0
60.0,-199.0,-189.0,195.0,-17.0,-69.0,0
59.0,-204.0,-188.0,189.0,-11.0,-71.0,0
60.0,-201.0,-188.0,185.0,-5.0,-75.0,0
58.0,-199.0,-186.0,185.0,4.0,-78.0,0
62.0,-202.0,-188.0,185.0,11.0,-81.0,0
61.0,-207.0,-189.0,183.0,20.0,-85.0,0
59.0,-203.0,-190.0,179.0,29.0,-86.0,0
58.0,-205.0,-189.0,175.0,36.0,-88.0,0
58.0,-209.0,-191.0,170.0,43.0,-91.0,0
60.0,-209.0,-185.0,165.0,50.0,-92.0,0
59.0,-213.0,-187.0,161.0,54.0,-92.0,0
61.0,-211.0,-186.0,157.0,58.0,-94.0,0
56.0,-212.0,-179.0,152.0,61.0,-93.0,0
57.0,-213.0,-182.0,152.0,62.0,-93.0,0
58.0,-214.0,-183.0,151.0,61.0,-92.0,0
57.0,-216.0,-181.0,152.0,60.0,-91.0,0
56.0,-217.0,-183.0,152.0,60.0,-91.0,0
56.0,-217.0,-182.0,155.0,59.0,-90.0,0
58.0,-216.0,-180.0,155.0,57.0,-89.0,0
56.0,-217.0,-178.0,153.0,57.0,-86.0,0
56.0,-215.0,-178.0,156.0,55.0,-84.0,0
54.0,-217.0,-177.0,156.0,53.0,-82.0,0
50.0,-212.0,-177.0,156.0,51.0,-81.0,0
54.0,-218.0,-179.0,157.0,49.0,-78.0,0
53.0,-219.0,-181.0,158.0,48.0,-77.0,0
53.0,-219.0,-183.0,153.0,47.0,-76.0,0
51.0,-215.0,-176.0,157.0,47.0,-77.0,0
50.0,-215.0,-182.0,154.0,48.0,-78.0,0
49.0,-219.0,-177.0,152.0,49.0,-81.0,0
54.0,-217.0,-179.0,151.0,50.0,-83.0,0
49.0,-222.0,-184.0,149.0,50.0,-85.0,0
51.0,-222.0,-183.0,148.0,50.0,-88.0,0
45.0,-220.0,-180.0,146.0,48.0,-88.0,0
48.0,-219.0,-177.0,146.0,47.0,-91.0,0
51.0,-222.0,-180.0,148.0,47.0,-94.0,0
50.0,-222.0,-180.0,150.0,47.0,-94.0,0
46.0,-221.0,-178.0,152.0,45.0,-92.0,0
48.0,-222.0,-176.0,153.0,42.0,-91.0,0
52.0,-225.0,-182.0,157.0,37.0,-89.0,0
49.0,-224.0,-178.0,166.0,34.0,-86.0,0
53.0,-225.0,-176.0,175.0,35.0,-83.0,0
49.0,-225.0,-171.0,186.0,34.0,-80.0,0
56.0,-225.0,-170.0,203.0,34.0,-76.0,0
58.0,-223.0,-169.0,218.0,35.0,-71.0,0
60.0,-228.0,-159.0,234.0,37.0,-69.0,0
57.0,-223.0,-170.0,249.0,36.0,-66.0,0
61.0,-223.0,-171.0,261.0,34.0,-64.0,0
62.0,-216.0,-172.0,272.0,30.0,-61.0,0
62.0,-217.0,-169.0,280.0,29.0,-61.0,0
64.0,-218.0,-166.0,287.0,26.0,-61.0,0
63.0,-213.0,-173.0,291.0,24.0,-63.0,0
64.0,-215.0,-171.0,288.0,21.0,-64.0,0
65.0,-217.0,-170.0,283.0,16.0,-65.0,0
66.0,-217.0,-176.0,273.0,11.0,-67.0,0
64.0,-219.0,-168.0,262.0,4.0,-69.0,0
68.0,-220.0,-169.0,252.0,-4.0,-71.0,0
62.0,-219.0,-174.0,240.0,-10.0,-73.0,0
63.0,-221.0,-169.0,229.0,-16.0,-74.0,0
62.0,-221.0,-171.0,218.0,-20.0,-77.0,0
63.0,-222.0,-170.0,214.0,-24.0,-77.0,0
60.0,-225.0,-173.0,209.0,-25.0,-79.0,0
60.0,-226.0,-170.0,209.0,-27.0,-78.0,0
58.0,-224.0,-165.0,208.0,-29.0,-77.0,0
57.0,-225.0,-170.0,211.0,-30.0,-75.0,0
58.0,-229.0,-162.0,218.0,-29.0,-74.0,0
55.0,-226.0,-160.0,225.0,-29.0,-72.0,0
51.0,-233.0,-159.0,232.0,-25.0,-69.0,0
56.0,-229.0,-163.0,240.0,-21.0,-68.0,0
55.0,-225.0,-161.0,247.0,-19.0,-65.0,0
54.0,-224.0,-157.0,253.0,-15.0,-64.0,0
55.0,-225.0,-161.0,259.0,-9.0,-64.0,0
53.0,-223.0,-157.0,262.0,-3.0,-64.0,0
55.0,-223.0,-160.0,262.0,1.0,-66.0,0
57.0,-224.0,-164.0,258.0,5.0,-65.0,0
53.0,-217.0,-161.0,252.0,6.0,-67.0,0
60.0,-219.0,-162.0,243.0,4.0,-67.0,0
55.0,-218.0,-163.0,235.0,0.0,-66.0,0
54.0,-218.0,-163.0,223.0,-7.0,-65.0,0
55.0,-214.0,-162.0,216.0,-17.0,-65.0,0
60.0,-218.0,-161.0,206.0,-27.0,-63.0,0
60.0,-217.0,-162.0,201.0,-39.0,-60.0,0
62.0,-220.0,-158.0,194.0,-51.0,-58.0,0
62.0,-219.0,-159.0,186.0,-63.0,-56.0,0
59.0,-221.0,-162.0,178.0,-73.0,-52.0,0
60.0,-220.0,-160.0,171.0,-83.0,-54.0,0
58.0,-221.0,-161.0,164.0,-91.0,-53.0,0
61.0,-227.0,-160.0,158.0,-97.0,-55.0,0
61.0,-227.0,-156.0,152.0,-101.0,-57.0,0
58.0,-223.0,-151.0,150.0,-103.0,-61.0,0
56.0,-228.0,-162.0,148.0,-104.0,-64.0,0
57.0,-230.0,-160.0,148.0,-103.0,-69.0,0
57.0,-231.0,-160.0,154.0,-102.0,-75.0,0
55.0,-232.0,-164.0,161.0,-103.0,-79.0,0
58.0,-231.0,-162.0,169.0,-101.0,-85.0,0
56.0,-236.0,-161.0,177.0,-100.0,-89.0,0
55.0,-232.0,-164.0,185.0,-98.0,-95.0,0
55.0,-232.0,-161.0,192.0,-96.0,-98.0,0
57.0,-230.0,-164.0,200.0,-92.0,-100.0,0
56.0,-235.0,-153.0,205.0,-90.0,-102.0,0
59.0,-234.0,-158.0,208.0,-88.0,-101.0,0
56.0,-237.0,-158.0,209.0,-86.0,-101.0,0
55.0,-235.0,-154.0,207.0,-87.0,-102.0,0
55.0,-236.0,-159.0,203.0,-86.0,-101.0,0
56.0,-236.0,-154.0,198.0,-87.0,-99.0,0
57.0,-232.0,-153.0,192.0,-88.0,-96.0,0
59.0,-233.0,-147.0,184.0,-89.0,-92.0,0
60.0,-233.0,-151.0,176.0,-92.0,-86.0,0
60.0,-232.0,-145.0,172.0,-96.0,-81.0,0
63.0,-233.0,-145.0,170.0,-103.0,-75.0,0
62.0,-235.0,-143.0,171.0,-112.0,-69.0,0
64.0,-235.0,-147.0,175.0,-123.0,-63.0,0
66.0,-236.0,-146.0,181.0,-135.0,-55.0,0
66.0,-236.0,-145.0,187.0,-149.0,-49.0,0
70.0,-240.0,-145.0,192.0,-164.0,-41.0,0
67.0,-241.0,-150.0,195.0,-178.0,-33.0,0
70.0,-241.0,-147.0,194.0,-188.0,-28.0,0
66.0,-243.0,-150.0,194.0,-194.0,-20.0,0
71.0,-245.0,-151.0,193.0,-195.0,-15.0,0
70.0,-248.0,-146.0,194.0,-192.0,-9.0,0
63.0,-251.0,-151.0,196.0,-185.0,-5.0,0
68.0,-253.0,-145.0,203.0,-175.0,0.0,0
66.0,-254.0,-150.0,216.0,-161.0,2.0,0
64.0,-256.0,-145.0,228.0,-146.0,6.0,0
65.0,-258.0,-144.0,246.0,-131.0,7.0,0
66.0,-260.0,-146.0,267.0,-115.0,8.0,0
65.0,-261.0,-142.0,284.0,-102.0,7.0,0
63.0,-261.0,-143.0,304.0,-90.0,5.0,0
63.0,-259.0,-149.0,325.0,-80.0,2.0,0
63.0,-260.0,-144.0,345.0,-73.0,-2.0,0
63.0,-258.0,-144.0,364.0,-65.0,-8.0,0
62.0,-257.0,-142.0,383.0,-58.0,-13.0,0
60.0,-263.0,-138.0,399.0,-50.0,-20.0,0
63.0,-256.0,-142.0,415.0,-44.0,-23.0,0
60.0,-255.0,-142.0,431.0,-37.0,-30.0,0
60.0,-254.0,-138.0,445.0,-34.0,-33.0,0
60.0,-256.0,-140.0,460.0,-28.0,-36.0,0
61.0,-255.0,-141.0,473.0,-24.0,-38.0,0
63.0,-256.0,-142.0,487.0,-19.0,-37.0,0
62.0,-253.0,-139.0,494.0,-16.0,-37.0,0
62.0,-255.0,-138.0,501.0,-14.0,-35.0,0
62.0,-254.0,-135.0,506.0,-9.0,-32.0,0
61.0,-253.0,-137.0,514.0,-7.0,-26.0,0
63.0,-250.0,-138.0,519.0,-6.0,-22.0,0
62.0,-253.0,-134.0,527.0,-6.0,-17.0,0
61.0,-253.0,-130.0,534.0,-8.0,-11.0,0
62.0,-251.0,-131.0,538.0,-10.0,-4.0,0
65.0,-251.0,-130.0,541.0,-12.0,3.0,0
61.0,-250.0,-128.0,547.0,-12.0,11.0,0
62.0,-249.0,-127.0,551.0,-11.0,16.0,0
63.0,-248.0,-127.0,554.0,-12.0,21.0,0
62.0,-249.0,-128.0,553.0,-12.0,26.0,0
63.0,-245.0,-128.0,551.0,-12.0,30.0,0
62.0,-250.0,-126.0,547.0,-11.0,32.0,0
68.0,-253.0,-129.0,545.0,-10.0,34.0,0
62.0,-253.0,-126.0,545.0,-7.0,37.0,0
59.0,-250.0,-128.0,547.0,-4.0,39.0,0
57.0,-252.0,-126.0,550.0,-1.0,39.0,0
58.0,-253.0,-122.0,555.0,0.0,37.0,0
59.0,-256.0,-127.0,561.0,1.0,38.0,0
59.0,-257.0,-125.0,565.0,5.0,40.0,0
62.0,-257.0,-124.0,571.0,8.0,42.0,0
56.0,-256.0,-122.0,579.0,13.0,45.0,0
56.0,-259.0,-122.0,590.0,19.0,50.0,0
57.0,-257.0,-123.0,602.0,24.0,56.0,0
54.0,-252.0,-123.0,610.0,28.0,62.0,0
57.0,-256.0,-119.0,618.0,34.0,68.0,0
56.0,-252.0,-120.0,630.0,36.0,74.0,0
54.0,-255.0,-115.0,640.0,39.0,80.0,0
56.0,-251.0,-110.0,647.0,40.0,87.0,0
59.0,-248.0,-113.0,651.0,44.0,91.0,0
57.0,-248.0,-111.0,651.0,45.0,95.0,0
56.0,-246.0,-108.0,650.0,47.0,99.0,0
55.0,-240.0,-109.0,646.0,47.0,101.0,0
56.0,-240.0,-108.0,641.0,48.0,103.0,0
55.0,-240.0,-107.0,638.0,49.0,106.0,0
55.0,-240.0,-115.0,635.0,50.0,106.0,0
54.0,-236.0,-107.0,627.0,49.0,106.0,0
55.0,-234.0,-109.0,618.0,51.0,106.0,0
55.0,-234.0,-105.0,610.0,49.0,103.0,0
52.0,-235.0,-108.0,601.0,47.0,105.0,0
51.0,-236.0,-104.0,594.0,42.0,105.0,0
52.0,-235.0,-108.0,587.0,35.0,103.0,0
55.0,-238.0,-104.0,581.0,27.0,103.0,0
52.0,-241.0,-105.0,574.0,22.0,103.0,0
50.0,-239.0,-98.0,571.0,15.0,104.0,0
48.0,-242.0,-97.0,570.0,8.0,104.0,0
53.0,-243.0,-99.0,572.0,4.0,106.0,0
53.0,-247.0,-96.0,572.0,2.0,107.0,0
50.0,-251.0,-96.0,571.0,0.0,105.0,0
52.0,-252.0,-94.0,568.0,1.0,103.0,0
48.0,-253.0,-91.0,567.0,1.0,102.0,0
50.0,-255.0,-94.0,563.0,-1.0,101.0,0
51.0,-255.0,-91.0,560.0,-1.0,101.0,0
47.0,-252.0,-88.0,557.0,-1.0,101.0,0
50.0,-257.0,-91.0,554.0,-1.0,101.0,0
50.0,-256.0,-90.0,547.0,-2.0,101.0,0
48.0,-257.0,-89.0,540.0,-3.0,101.0,0
51.0,-251.0,-94.0,532.0,-6.0,102.0,0
50.0,-257.0,-86.0,528.0,-9.0,102.0,0
49.0,-257.0,-84.0,525.0,-12.0,103.0,0
49.0,-258.0,-86.0,525.0,-15.0,104.0,0
49.0,-260.0,-81.0,523.0,-19.0,104.0,0
48.0,-256.0,-83.0,521.0,-20.0,105.0,0
49.0,-260.0,-81.0,523.0,-22.0,104.0,0
47.0,-257.0,-78.0,521.0,-25.0,106.0,0
46.0,-256.0,-79.0,517.0,-24.0,108.0,0
47.0,-258.0,-76.0,512.0,-23.0,107.0,0
43.0,-255.0,-77.0,504.0,-23.0,104.0,0
47.0,-254.0,-76.0,495.0,-21.0,107.0,0
46.0,-254.0,-74.0,486.0,-20.0,107.0,0
45.0,-254.0,-69.0,481.0,-20.0,107.0,0
45.0,-254.0,-69.0,479.0,-21.0,106.0,0
46.0,-255.0,-70.0,475.0,-23.0,107.0,0
45.0,-254.0,-71.0,470.0,-24.0,109.0,0
42.0,-254.0,-68.0,463.0,-27.0,108.0,0
45.0,-254.0,-67.0,458.0,-29.0,107.0,0
40.0,-252.0,-69.0,455.0,-32.0,105.0,0
42.0,-252.0,-68.0,448.0,-33.0,106.0,0
45.0,-253.0,-62.0,441.0,-35.0,106.0,0
42.0,-250.0,-67.0,434.0,-36.0,104.0,0
46.0,-255.0,-67.0,428.0,-37.0,105.0,0
43.0,-254.0,-68.0,422.0,-41.0,104.0,0
43.0,-255.0,-66.0,413.0,-44.0,105.0,0
43.0,-253.0,-64.0,407.0,-47.0,106.0,0
43.0,-255.0,-65.0,402.0,-47.0,107.0,0
45.0,-256.0,-64.0,397.0,-49.0,107.0,0
44.0,-260.0,-61.0,393.0,-47.0,107.0,0
45.0,-255.0,-60.0,391.0,-46.0,106.0,0
48.0,-259.0,-67.0,389.0,-44.0,104.0,0
45.0,-259.0,-62.0,388.0,-41.0,101.0,0
47.0,-259.0,-60.0,387.0,-34.0,101.0,0
48.0,-260.0,-55.0,386.0,-31.0,99.0,0
47.0,-261.0,-57.0,383.0,-28.0,97.0,0
46.0,-262.0,-56.0,377.0,-24.0,95.0,0
46.0,-259.0,-57.0,374.0,-20.0,95.0,0
46.0,-263.0,-61.0,374.0,-17.0,91.0,0
49.0,-261.0,-55.0,374.0,-15.0,90.0,0
46.0,-265.0,-56.0,372.0,-13.0,86.0,0
47.0,-260.0,-57.0,369.0,-10.0,83.0,0
46.0,-258.0,-49.0,368.0,-11.0,85.0,0
46.0,-264.0,-54.0,365.0,-11.0,93.0,0
48.0,-262.0,-52.0,363.0,-14.0,96.0,0
46.0,-260.0,-53.0,361.0,-13.0,98.0,0
46.0,-259.0,-51.0,357.0,-11.0,96.0,0
49.0,-258.0,-52.0,353.0,-4.0,97.0,0
48.0,-261.0,-50.0,347.0,3.0,98.0,0
48.0,-259.0,-51.0,341.0,11.0,95.0,0
47.0,-257.0,-50.0,331.0,20.0,93.0,0
47.0,-255.0,-47.0,326.0,26.0,98.0,0
48.0,-256.0,-42.0,322.0,32.0,100.0,0
44.0,-256.0,-48.0,319.0,38.0,99.0,0
47.0,-255.0,-51.0,315.0,45.0,99.0,0
48.0,-255.0,-49.0,314.0,52.0,97.0,0
48.0,-257.0,-48.0,315.0,58.0,96.0,0
46.0,-256.0,-46.0,316.0,66.0,96.0,0
42.0,-254.0,-47.0,316.0,72.0,94.0,0
46.0,-258.0,-43.0,318.0,77.0,91.0,0
44.0,-257.0,-45.0,321.0,79.0,87.0,0
42.0,-255.0,-43.0,326.0,79.0,88.0,0
43.0,-257.0,-46.0,331.0,78.0,90.0,0
43.0,-258.0,-38.0,336.0,76.0,94.0,0
43.0,-257.0,-37.0,340.0,75.0,94.0,0
39.0,-259.0,-35.0,345.0,73.0,96.0,0
41.0,-259.0,-46.0,349.0,72.0,97.0,0
41.0,-261.0,-40.0,351.0,73.0,99.0,0
43.0,-258.0,-40.0,350.0,72.0,104.0,0
40.0,-259.0,-39.0,351.0,72.0,108.0,0
37.0,-258.0,-39.0,353.0,70.0,112.0,0
40.0,-259.0,-38.0,353.0,70.0,115.0,0
36.0,-262.0,-38.0,353.0,67.0,119.0,0
38.0,-259.0,-36.0,353.0,65.0,120.0,0
36.0,-257.0,-38.0,349.0,60.0,121.0,0
35.0,-255.0,-42.0,341.0,58.0,123.0,0
35.0,-259.0,-49.0,329.0,55.0,119.0,0
36.0,-256.0,-43.0,316.0,52.0,120.0,0
36.0,-260.0,-42.0,304.0,47.0,125.0,0
35.0,-259.0,-42.0,295.0,41.0,130.0,0
35.0,-256.0,-41.0,289.0,36.0,135.0,0
38.0,-256.0,-41.0,279.0,29.0,134.0,0
36.0,-254.0,-42.0,270.0,23.0,135.0,0
37.0,-254.0,-46.0,260.0,20.0,134.0,0
39.0,-255.0,-36.0,248.0,17.0,132.0,0
39.0,-253.0,-40.0,237.0,15.0,130.0,0
39.0,-254.0,-36.0,227.0,15.0,128.0,0
42.0,-251.0,-39.0,217.0,15.0,126.0,0
43.0,-255.0,-42.0,209.0,16.0,119.0,0
40.0,-255.0,-39.0,202.0,20.0,110.0,0
37.0,-251.0,-39.0,196.0,26.0,102.0,0
40.0,-248.0,-35.0,192.0,32.0,99.0,0
38.0,-250.0,-41.0,188.0,35.0,97.0,0
37.0,-250.0,-35.0,186.0,36.0,93.0,0
44.0,-255.0,-38.0,185.0,37.0,90.0,0
41.0,-255.0,-35.0,186.0,35.0,89.0,0
41.0,-251.0,-37.0,187.0,29.0,90.0,0
43.0,-253.0,-33.0,192.0,23.0,87.0,0
38.0,-253.0,-34.0,194.0,15.0,84.0,0
39.0,-251.0,-30.0,189.0,12.0,85.0,0
40.0,-254.0,-30.0,185.0,5.0,84.0,0
37.0,-253.0,-31.0,178.0,-2.0,84.0,0
38.0,-252.0,-31.0,169.0,-3.0,82.0,0
37.0,-250.0,-31.0,159.0,-6.0,83.0,0
36.0,-250.0,-35.0,146.0,-10.0,83.0,0
37.0,-252.0,-35.0,134.0,-12.0,84.0,0
33.0,-250.0,-38.0,123.0,-14.0,84.0,0
38.0,-251.0,-34.0,112.0,-14.0,84.0,0
33.0,-252.0,-28.0,97.0,-11.0,82.0,0
35.0,-253.0,-31.0,86.0,-9.0,82.0,0
35.0,-255.0,-31.0,72.0,-9.0,86.0,0
34.0,-255.0,-29.0,60.0,-7.0,88.0,0
31.0,-254.0,-28.0,51.0,-8.0,88.0,0
33.0,-254.0,-25.0,42.0,-6.0,89.0,0
35.0,-257.0,-25.0,36.0,-7.0,87.0,0
32.0,-255.0,-25.0,29.0,-7.0,85.0,0
33.0,-256.0,-23.0,25.0,-7.0,82.0,0
29.0,-258.0,-19.0,21.0,-7.0,82.0,0
30.0,-260.0,-19.0,18.0,-9.0,81.0,0
42.0,-258.0,-22.0,14.0,-10.0,83.0,0
35.0,-258.0,-28.0,12.0,-10.0,78.0,0
31.0,-258.0,-22.0,8.0,-12.0,74.0,0
33.0,-259.0,-25.0,0.0,-13.0,72.0,0
33.0,-261.0,-23.0,-5.0,-12.0,67.0,0
33.0,-258.0,-21.0,-11.0,-13.0,66.0,0
32.0,-260.0,-22.0,-12.0,-13.0,66.0,0
35.0,-256.0,-24.0,-12.0,-16.0,68.0,0
37.0,-258.0,-24.0,-11.0,-21.0,69.0,0
32.0,-257.0,-24.0,-12.0,-23.0,68.0,0
34.0,-257.0,-24.0,-12.0,-24.0,68.0,0
35.0,-258.0,-31.0,-17.0,-25.0,64.0,0
35.0,-257.0,-26.0,-21.0,-26.0,62.0,0
36.0,-256.0,-29.0,-26.0,-23.0,59.0,0
38.0,-256.0,-29.0,-31.0,-20.0,55.0,0
38.0,-257.0,-30.0,-38.0,-15.0,50.0,0
37.0,-255.0,-25.0,-46.0,-11.0,50.0,0
36.0,-255.0,-30.0,-52.0,-6.0,52.0,0
35.0,-251.0,-28.0,-61.0,-1.0,54.0,0
39.0,-255.0,-33.0,-75.0,6.0,54.0,0
39.0,-254.0,-29.0,-87.0,11.0,49.0,0
37.0,-254.0,-31.0,-101.0,18.0,49.0,0
37.0,-259.0,-27.0,-112.0,22.0,46.0,0
38.0,-256.0,-27.0,-120.0,23.0,45.0,0
36.0,-258.0,-27.0,-126.0,26.0,41.0,0
34.0,-257.0,-29.0,-131.0,29.0,38.0,0
38.0,-259.0,-29.0,-132.0,34.0,34.0,0
38.0,-258.0,-24.0,-131.0,36.0,32.0,0
33.0,-260.0,-23.0,-127.0,41.0,29.0,0
34.0,-259.0,-21.0,-120.0,46.0,25.0,0
32.0,-260.0,-25.0,-120.0,49.0,23.0,0
30.0,-261.0,-23.0,-119.0,51.0,20.0,0
31.0,-261.0,-26.0,-119.0,53.0,18.0,0
36.0,-264.0,-23.0,-120.0,55.0,14.0,0
32.0,-260.0,-23.0,-118.0,54.0,10.0,0
34.0,-265.0,-23.0,-112.0,51.0,8.0,0
32.0,-263.0,-27.0,-106.0,48.0,8.0,0
35.0,-264.0,-27.0,-100.0,46.0,8.0,0
32.0,-263.0,-26.0,-95.0,44.0,8.0,0
33.0,-263.0,-24.0,-89.0,45.0,6.0,0
31.0,-262.0,-29.0,-81.0,43.0,8.0,0
33.0,-266.0,-27.0,-73.0,43.0,7.0,0
36.0,-260.0,-24.0,-64.0,42.0,7.0,0
35.0,-263.0,-25.0,-55.0,41.0,7.0,0
35.0,-262.0,-26.0,-45.0,42.0,6.0,0
34.0,-258.0,-21.0,-39.0,40.0,4.0,0
32.0,-264.0,-26.0,-31.0,41.0,2.0,0
32.0,-261.0,-26.0,-27.0,40.0,-1.0,0
33.0,-260.0,-22.0,-22.0,40.0,-4.0,0
30.0,-259.0,-26.0,-19.0,40.0,-7.0,0
29.0,-261.0,-25.0,-15.0,40.0,-9.0,0
29.0,-259.0,-25.0,-12.0,40.0,-10.0,0
28.0,-261.0,-25.0,-10.0,40.0,-13.0,0
31.0,-264.0,-25.0,-5.0,37.0,-14.0,0
27.0,-260.0,-21.0,-2.0,36.0,-15.0,0
27.0,-262.0,-15.0,3.0,38.0,-16.0,0
26.0,-262.0,-24.0,7.0,39.0,-20.0,0
21.0,-263.0,-28.0,12.0,42.0,-19.0,0
25.0,-264.0,-23.0,16.0,39.0,-15.0,0
25.0,-263.0,-23.0,20.0,42.0,-18.0,0
26.0,-265.0,-23.0,21.0,46.0,-17.0,0
26.0,-266.0,-28.0,24.0,48.0,-14.0,0
26.0,-266.0,-23.0,26.0,46.0,-11.0,0
22.0,-266.0,-22.0,26.0,44.0,-5.0,0
25.0,-262.0,-23.0,24.0,40.0,2.0,0
25.0,-264.0,-26.0,24.0,32.0,9.0,0
31.0,-265.0,-21.0,25.0,24.0,17.0,0
26.0,-264.0,-23.0,25.0,19.0,24.0,0
27.0,-263.0,-24.0,30.0,13.0,31.0,0
32.0,-264.0,-26.0,38.0,8.0,38.0,0
30.0,-262.0,-26.0,43.0,3.0,45.0,0
31.0,-263.0,-27.0,49.0,-2.0,50.0,0
35.0,-264.0,-29.0,53.0,-4.0,55.0,0
36.0,-259.0,-31.0,55.0,-4.0,59.0,0
32.0,-258.0,-32.0,55.0,-2.0,63.0,0
33.0,-259.0,-31.0,55.0,1.0,66.0,0
35.0,-266.0,-28.0,54.0,8.0,68.0,0
35.0,-258.0,-32.0,49.0,15.0,65.0,0
38.0,-256.0,-35.0,45.0,25.0,63.0,0
38.0,-258.0,-34.0,37.0,39.0,60.0,0
34.0,-257.0,-34.0,29.0,52.0,55.0,0
39.0,-261.0,-34.0,23.0,67.0,50.0,0
39.0,-261.0,-31.0,16.0,84.0,43.0,0
41.0,-264.0,-29.0,12.0,98.0,36.0,0
37.0,-266.0,-30.0,7.0,114.0,27.0,0
37.0,-267.0,-29.0,3.0,129.0,21.0,0
32.0,-260.0,-25.0,1.0,142.0,12.0,0
42.0,-270.0,-27.0,-1.0,153.0,3.0,0
38.0,-268.0,-22.0,-1.0,166.0,-7.0,0
37.0,-267.0,-27.0,3.0,174.0,-15.0,0
36.0,-265.0,-22.0,5.0,187.0,-21.0,0
35.0,-268.0,-24.0,10.0,197.0,-27.0,0
38.0,-269.0,-22.0,14.0,206.0,-33.0,0
35.0,-265.0,-22.0,20.0,217.0,-38.0,0
33.0,-265.0,-19.0,26.0,226.0,-45.0,0
30.0,-265.0,-17.0,29.0,233.0,-51.0,0
26.0,-261.0,-19.0,32.0,239.0,-54.0,0
25.0,-260.0,-18.0,33.0,243.0,-57.0,0
27.0,-262.0,-19.0,33.0,244.0,-58.0,0
26.0,-262.0,-12.0,30.0,246.0,-59.0,0
22.0,-259.0,-17.0,26.0,246.0,-57.0,0
24.0,-260.0,-16.0,23.0,246.0,-55.0,0
22.0,-257.0,-17.0,21.0,244.0,-53.0,0
18.0,-258.0,-19.0,18.0,243.0,-50.0,0
15.0,-257.0,-21.0,18.0,239.0,-44.0,0
18.0,-254.0,-18.0,18.0,235.0,-39.0,0
17.0,-257.0,-17.0,19.0,233.0,-35.0,0
19.0,-258.0,-18.0,18.0,231.0,-32.0,0
22.0,-255.0,-22.0,18.0,229.0,-27.0,0
19.0,-261.0,-18.0,18.0,226.0,-24.0,0
23.0,-260.0,-16.0,16.0,223.0,-18.0,0
19.0,-260.0,-15.0,18.0,217.0,-12.0,0
22.0,-263.0,-20.0,21.0,212.0,-9.0,0
20.0,-261.0,-19.0,28.0,208.0,-6.0,0
26.0,-266.0,-17.0,28.0,202.0,-3.0,0
21.0,-265.0,-21.0,34.0,198.0,-2.0,0
22.0,-268.0,-18.0,40.0,193.0,1.0,0
25.0,-268.0,-16.0,44.0,188.0,4.0,0
23.0,-269.0,-18.0,50.0,185.0,8.0,0
27.0,-262.0,-19.0,57.0,183.0,7.0,0
24.0,-265.0,-18.0,61.0,183.0,4.0,0
22.0,-264.0,-17.0,64.0,183.0,1.0,0
24.0,-265.0,-18.0,63.0,183.0,-1.0,0
26.0,-267.0,-19.0,66.0,184.0,-2.0,0
23.0,-264.0,-20.0,67.0,187.0,-5.0,0
24.0,-266.0,-19.0,66.0,188.0,-7.0,0
22.0,-263.0,-21.0,64.0,190.0,-10.0,0
23.0,-261.0,-17.0,62.0,191.0,-15.0,0
21.0,-268.0,-19.0,62.0,191.0,-17.0,0
21.0,-265.0,-19.0,63.0,191.0,-19.0,0
19.0,-267.0,-19.0,66.0,191.0,-18.0,0
24.0,-269.0,-19.0,74.0,190.0,-21.0,0
18.0,-269.0,-19.0,83.0,187.0,-18.0,0
19.0,-267.0,-15.0,95.0,184.0,-19.0,0
18.0,-266.0,-17.0,104.0,180.0,-18.0,0
18.0,-264.0,-23.0,112.0,175.0,-17.0,0
20.0,-264.0,-19.0,124.0,171.0,-18.0,0
22.0,-266.0,-11.0,132.0,168.0,-16.0,0
22.0,-265.0,-18.0,141.0,163.0,-14.0,0
22.0,-264.0,-12.0,149.0,159.0,-13.0,0
22.0,-263.0,-16.0,154.0,153.0,-11.0,0
22.0,-265.0,-13.0,161.0,151.0,-12.0,0
23.0,-266.0,-12.0,164.0,147.0,-14.0,0
21.0,-268.0,-12.0,164.0,144.0,-21.0,0
20.0,-264.0,-10.0,167.0,140.0,-18.0,0
24.0,-266.0,-12.0,174.0,136.0,-11.0,0
26.0,-269.0,-8.0,181.0,128.0,-5.0,0
24.0,-265.0,-5.0,188.0,120.0,-1.0,0
27.0,-267.0,-12.0,201.0,114.0,-2.0,0
25.0,-267.0,-12.0,212.0,110.0,-3.0,0
23.0,-266.0,-6.0,224.0,107.0,-4.0,0
28.0,-270.0,-10.0,234.0,104.0,-5.0,0
24.0,-267.0,-11.0,244.0,100.0,-5.0,0
21.0,-266.0,-13.0,255.0,99.0,-7.0,0
23.0,-260.0,-9.0,263.0,99.0,-5.0,0
23.0,-262.0,-11.0,269.0,99.0,-5.0,0
20.0,-258.0,-8.0,275.0,98.0,-5.0,0
19.0,-258.0,-7.0,281.0,97.0,-4.0,0
18.0,-257.0,-4.0,284.0,96.0,-6.0,0
20.0,-257.0,-4.0,284.0,95.0,-7.0,0
18.0,-255.0,-4.0,283.0,91.0,-7.0,0
16.0,-255.0,-4.0,281.0,88.0,-9.0,0
13.0,-253.0,5.0,283.0,84.0,-9.0,0
17.0,-254.0,-4.0,279.0,79.0,-8.0,0
18.0,-256.0,-4.0,276.0,76.0,-6.0,0
19.0,-256.0,-6.0,269.0,73.0,-7.0,0
17.0,-254.0,-6.0,263.0,69.0,-5.0,0
19.0,-254.0,0.0,255.0,65.0,-1.0,0
20.0,-254.0,-1.0,248.0,59.0,1.0,0
18.0,-255.0,-3.0,239.0,53.0,3.0,0
22.0,-255.0,-1.0,233.0,50.0,6.0,0
23.0,-256.0,0.0,225.0,48.0,7.0,0
22.0,-255.0,-3.0,216.0,47.0,5.0,0
28.0,-257.0,-1.0,208.0,47.0,2.0,0
24.0,-258.0,0.0,202.0,49.0,1.0,0
25.0,-257.0,0.0,203.0,46.0,6.0,0
27.0,-258.0,0.0,206.0,45.0,8.0,0
26.0,-257.0,2.0,206.0,43.0,7.0,0
28.0,-257.0,1.0,207.0,44.0,6.0,0
28.0,-260.0,1.0,209.0,48.0,4.0,0
28.0,-257.0,1.0,210.0,48.0,-1.0,0
27.0,-257.0,0.0,210.0,50.0,-6.0,0
30.0,-257.0,6.0,210.0,53.0,-9.0,0
27.0,-256.0,2.0,211.0,56.0,-14.0,0
34.0,-253.0,3.0,211.0,58.0,-18.0,0
30.0,-255.0,1.0,207.0,60.0,-23.0,0
25.0,-255.0,0.0,201.0,62.0,-25.0,0
24.0,-254.0,3.0,193.0,68.0,-27.0,0
27.0,-253.0,-1.0,182.0,70.0,-27.0,0
28.0,-255.0,3.0,172.0,72.0,-28.0,0
24.0,-255.0,2.0,163.0,72.0,-27.0,0
25.0,-253.0,8.0,158.0,73.0,-27.0,0
25.0,-254.0,8.0,154.0,74.0,-24.0,0
23.0,-252.0,5.0,156.0,74.0,-23.0,0
27.0,-253.0,5.0,157.0,76.0,-21.0,0
22.0,-251.0,4.0,157.0,79.0,-21.0,0
26.0,-254.0,5.0,152.0,80.0,-22.0,0
25.0,-253.0,6.0,145.0,81.0,-21.0,0
26.0,-250.0,6.0,133.0,81.0,-19.0,0
28.0,-249.0,7.0,123.0,81.0,-20.0,0
25.0,-252.0,7.0,108.0,77.0,-18.0,0
23.0,-250.0,10.0,94.0,75.0,-16.0,0
25.0,-251.0,9.0,83.0,69.0,-14.0,0
24.0,-251.0,12.0,76.0,61.0,-13.0,0
23.0,-247.0,8.0,70.0,55.0,-11.0,0
24.0,-250.0,7.0,68.0,47.0,-9.0,0
24.0,-255.0,10.0,66.0,42.0,-5.0,0
21.0,-254.0,11.0,63.0,35.0,-5.0,0
23.0,-255.0,7.0,62.0,29.0,-4.0,0
22.0,-253.0,9.0,62.0,26.0,-4.0,0
21.0,-255.0,6.0,61.0,25.0,-4.0,0
23.0,-255.0,12.0,59.0,26.0,-5.0,0
17.0,-254.0,14.0,57.0,26.0,-7.0,0
20.0,-256.0,11.0,56.0,27.0,-9.0,0
22.0,-256.0,13.0,52.0,28.0,-10.0,0
24.0,-252.0,14.0,50.0,31.0,-13.0,0
25.0,-257.0,13.0,50.0,33.0,-13.0,0
23.0,-256.0,15.0,51.0,37.0,-16.0,0
22.0,-257.0,12.0,51.0,39.0,-18.0,0
24.0,-254.0,13.0,52.0,43.0,-18.0,0
27.0,-256.0,15.0,53.0,47.0,-21.0,0
25.0,-255.0,18.0,54.0,52.0,-22.0,0
28.0,-254.0,17.0,55.0,56.0,-24.0,0
23.0,-254.0,20.0,55.0,59.0,-26.0,0
30.0,-255.0,25.0,53.0,61.0,-27.0,0
29.0,-253.0,19.0,47.0,62.0,-27.0,0
27.0,-252.0,17.0,38.0,64.0,-26.0,0
29.0,-252.0,27.0,30.0,66.0,-25.0,0
27.0,-253.0,23.0,18.0,67.0,-25.0,0
23.0,-251.0,24.0,10.0,68.0,-23.0,0
25.0,-252.0,22.0,2.0,70.0,-22.0,0
22.0,-251.0,23.0,-6.0,71.0,-21.0,0
25.0,-252.0,22.0,-11.0,70.0,-20.0,0
22.0,-249.0,20.0,-15.0,71.0,-17.0,0
18.0,-251.0,22.0,-19.0,68.0,-16.0,0
20.0,-251.0,21.0,-24.0,66.0,-14.0,0
23.0,-251.0,22.0,-27.0,62.0,-12.0,0
22.0,-252.0,20.0,-31.0,59.0,-10.0,0
19.0,-249.0,16.0,-32.0,55.0,-11.0,0
21.0,-252.0,20.0,-37.0,52.0,-9.0,0
18.0,-251.0,19.0,-42.0,47.0,-7.0,0
17.0,-250.0,18.0,-44.0,42.0,-7.0,0
18.0,-251.0,17.0,-46.0,38.0,-7.0,0
19.0,-253.0,15.0,-48.0,34.0,-7.0,0
20.0,-255.0,21.0,-51.0,30.0,-5.0,0
16.0,-253.0,16.0,-51.0,28.0,-6.0,0
18.0,-254.0,21.0,-52.0,25.0,-8.0,0
19.0,-255.0,18.0,-51.0,22.0,-9.0,0
19.0,-257.0,22.0,-50.0,21.0,-9.0,0
18.0,-257.0,11.0,-47.0,20.0,-11.0,0
22.0,-257.0,19.0,-42.0,20.0,-13.0,0
21.0,-260.0,18.0,-35.0,19.0,-15.0,0
19.0,-256.0,15.0,-28.0,17.0,-16.0,0
19.0,-256.0,18.0,-20.0,14.0,-16.0,0
22.0,-259.0,20.0,-12.0,11.0,-17.0,0
19.0,-256.0,19.0,-4.0,8.0,-19.0,0
21.0,-257.0,23.0,4.0,4.0,-20.0,0
22.0,-258.0,15.0,11.0,2.0,-20.0,0
25.0,-256.0,17.0,15.0,0.0,-20.0,0
25.0,-254.0,14.0,13.0,-1.0,-18.0,0
23.0,-251.0,15.0,8.0,-4.0,-16.0,0
26.0,-254.0,19.0,2.0,-5.0,-13.0,0
26.0,-251.0,21.0,-3.0,-6.0,-10.0,0
25.0,-251.0,18.0,-9.0,-8.0,-8.0,0
26.0,-252.0,20.0,-17.0,-8.0,-5.0,0
25.0,-252.0,19.0,-28.0,-11.0,-4.0,0
27.0,-251.0,15.0,-35.0,-12.0,-2.0,0
29.0,-255.0,18.0,-41.0,-15.0,1.0,0
23.0,-255.0,13.0,-45.0,-17.0,2.0,0
26.0,-253.0,16.0,-47.0,-19.0,4.0,0
23.0,-254.0,15.0,-47.0,-20.0,5.0,0
27.0,-258.0,16.0,-44.0,-23.0,5.0,0
22.0,-257.0,17.0,-36.0,-25.0,6.0,0
23.0,-256.0,18.0,-28.0,-28.0,6.0,0
25.0,-255.0,18.0,-19.0,-30.0,6.0,0
23.0,-253.0,17.0,-17.0,-33.0,7.0,0
24.0,-257.0,17.0,-15.0,-35.0,8.0,0
25.0,-254.0,15.0,-17.0,-36.0,8.0,0
24.0,-255.0,12.0,-22.0,-37.0,9.0,0
22.0,-253.0,19.0,-27.0,-38.0,8.0,0
24.0,-255.0,16.0,-34.0,-39.0,8.0,0
23.0,-253.0,24.0,-38.0,-39.0,9.0,0
22.0,-251.0,18.0,-41.0,-37.0,8.0,0
27.0,-254.0,21.0,-43.0,-38.0,7.0,0
29.0,-256.0,19.0,-43.0,-39.0,8.0,0
26.0,-255.0,18.0,-40.0,-39.0,8.0,0
28.0,-257.0,17.0,-36.0,-41.0,8.0,0
27.0,-254.0,20.0,-32.0,-43.0,8.0,0
28.0,-254.0,19.0,-27.0,-43.0,8.0,0
27.0,-254.0,16.0,-23.0,-45.0,8.0,0
24.0,-254.0,15.0,-19.0,-47.0,10.0,0
29.0,-254.0,19.0,-17.0,-48.0,10.0,0
22.0,-250.0,18.0,-14.0,-50.0,12.0,0
32.0,-255.0,17.0,-10.0,-50.0,12.0,0
27.0,-252.0,21.0,-7.0,-51.0,12.0,0
28.0,-251.0,19.0,-7.0,-49.0,12.0,0
26.0,-251.0,17.0,-7.0,-50.0,11.0,0
26.0,-251.0,22.0,-8.0,-49.0,9.0,0
27.0,-252.0,18.0,-11.0,-49.0,9.0,0
27.0,-249.0,20.0,-15.0,-49.0,9.0,0
25.0,-250.0,19.0,-23.0,-50.0,7.0,0
28.0,-252.0,17.0,-33.0,-49.0,7.0,0
27.0,-251.0,17.0,-42.0,-48.0,6.0,0
29.0,-252.0,19.0,-47.0,-48.0,6.0,0
24.0,-251.0,14.0,-52.0,-48.0,5.0,0
27.0,-253.0,19.0,-55.0,-46.0,3.0,0
28.0,-255.0,16.0,-58.0,-44.0,3.0,0
28.0,-254.0,16.0,-58.0,-43.0,3.0,0
28.0,-255.0,17.0,-59.0,-41.0,2.0,0
29.0,-255.0,20.0,-57.0,-38.0,1.0,0
28.0,-253.0,20.0,-53.0,-35.0,1.0,0
30.0,-258.0,18.0,-51.0,-30.0,-2.0,0
28.0,-253.0,21.0,-51.0,-25.0,-3.0,0
32.0,-256.0,18.0,-48.0,-22.0,-5.0,0
25.0,-255.0,26.0,-48.0,-19.0,-6.0,0
29.0,-255.0,19.0,-48.0,-15.0,-9.0,0
28.0,-255.0,14.0,-49.0,-13.0,-8.0,0
28.0,-255.0,22.0,-48.0,-12.0,-8.0,0
28.0,-256.0,18.0,-46.0,-12.0,-10.0,0
26.0,-254.0,18.0,-43.0,-10.0,-10.0,0
28.0,-255.0,21.0,-40.0,-10.0,-10.0,0
32.0,-257.0,21.0,-39.0,-8.0,-10.0,0
28.0,-256.0,13.0,-38.0,-6.0,-9.0,0
31.0,-257.0,18.0,-38.0,-4.0,-7.0,0
25.0,-251.0,18.0,-37.0,-2.0,-7.0,0
29.0,-256.0,19.0,-34.0,2.0,-6.0,0
31.0,-255.0,21.0,-36.0,7.0,-8.0,0
32.0,-254.0,21.0,-39.0,9.0,-9.0,0
32.0,-255.0,23.0,-38.0,14.0,-9.0,0
30.0,-256.0,22.0,-42.0,18.0,-8.0,0
29.0,-255.0,17.0,-44.0,20.0,-9.0,0
28.0,-253.0,19.0,-46.0,22.0,-9.0,0
29.0,-257.0,19.0,-46.0,23.0,-10.0,0
31.0,-256.0,20.0,-46.0,23.0,-10.0,0
26.0,-252.0,20.0,-43.0,24.0,-11.0,0
29.0,-253.0,18.0,-45.0,24.0,-12.0,0
30.0,-255.0,22.0,-44.0,24.0,-14.0,0
29.0,-253.0,18.0,-44.0,27.0,-15.0,0
31.0,-255.0,19.0,-45.0,29.0,-17.0,0
28.0,-254.0,22.0,-43.0,32.0,-18.0,0
26.0,-255.0,15.0,-45.0,35.0,-19.0,0
28.0,-255.0,22.0,-43.0,37.0,-20.0,0
30.0,-254.0,25.0,-45.0,42.0,-21.0,0
28.0,-253.0,22.0,-45.0,46.0,-22.0,0
28.0,-253.0,16.0,-45.0,48.0,-22.0,0
28.0,-251.0,20.0,-48.0,51.0,-23.0,0
28.0,-255.0,23.0,-52.0,54.0,-24.0,0
26.0,-258.0,17.0,-58.0,56.0,-24.0,0
29.0,-252.0,26.0,-62.0,57.0,-24.0,0
24.0,-251.0,21.0,-68.0,60.0,-24.0,0
26.0,-254.0,22.0,-69.0,62.0,-25.0,0
26.0,-253.0,21.0,-72.0,62.0,-25.0,0
26.0,-256.0,24.0,-72.0,63.0,-24.0,0
27.0,-254.0,16.0,-68.0,63.0,-25.0,0
28.0,-256.0,20.0,-63.0,62.0,-25.0,0
28.0,-257.0,20.0,-60.0,60.0,-25.0,0
25.0,-255.0,21.0,-56.0,59.0,-26.0,0
26.0,-255.0,25.0,-52.0,58.0,-26.0,0
26.0,-257.0,16.0,-50.0,58.0,-26.0,0
26.0,-255.0,22.0,-48.0,58.0,-27.0,0
26.0,-257.0,22.0,-47.0,57.0,-28.0,0
27.0,-256.0,22.0,-46.0,56.0,-27.0,0
25.0,-255.0,20.0,-44.0,55.0,-26.0,0
26.0,-256.0,19.0,-43.0,54.0,-24.0,0
26.0,-254.0,19.0,-41.0,52.0,-24.0,0
26.0,-257.0,14.0,-41.0,50.0,-24.0,0
23.0,-252.0,16.0,-42.0,47.0,-23.0,0
23.0,-256.0,15.0,-42.0,47.0,-20.0,0
26.0,-257.0,15.0,-42.0,44.0,-19.0,0
23.0,-256.0,20.0,-44.0,43.0,-20.0,0
27.0,-253.0,19.0,-43.0,40.0,-19.0,0
26.0,-252.0,19.0,-42.0,40.0,-17.0,0
26.0,-253.0,18.0,-43.0,41.0,-18.0,0
27.0,-253.0,16.0,-43.0,42.0,-17.0,0
29.0,-256.0,19.0,-43.0,44.0,-17.0,0
30.0,-253.0,17.0,-43.0,47.0,-18.0,0
27.0,-253.0,17.0,-45.0,49.0,-19.0,0
31.0,-253.0,19.0,-46.0,48.0,-19.0,0
24.0,-253.0,15.0,-49.0,49.0,-19.0,0
30.0,-255.0,15.0,-50.0,48.0,-21.0,0
27.0,-250.0,21.0,-52.0,48.0,-20.0,0
30.0,-256.0,19.0,-53.0,49.0,-21.0,0
30.0,-256.0,17.0,-55.0,50.0,-23.0,0
27.0,-256.0,15.0,-55.0,50.0,-21.0,0
25.0,-253.0,20.0,-56.0,50.0,-21.0,0
30.0,-255.0,18.0,-60.0,50.0,-21.0,0
26.0,-254.0,17.0,-63.0,50.0,-23.0,0
31.0,-256.0,22.0,-64.0,50.0,-21.0,0
31.0,-258.0,16.0,-66.0,50.0,-21.0,0
28.0,-256.0,15.0,-64.0,50.0,-22.0,0
27.0,-256.0,19.0,-61.0,49.0,-21.0,0
32.0,-255.0,15.0,-57.0,49.0,-22.0,0
28.0,-256.0,16.0,-52.0,50.0,-22.0,0
28.0,-256.0,15.0,-50.0,52.0,-21.0,0
28.0,-256.0,17.0,-48.0,54.0,-20.0,0
28.0,-255.0,16.0,-45.0,54.0,-21.0,0
27.0,-253.0,19.0,-42.0,54.0,-21.0,0
28.0,-255.0,17.0,-40.0,55.0,-23.0,0
28.0,-254.0,18.0,-38.0,54.0,-22.0,0
29.0,-256.0,17.0,-36.0,53.0,-21.0,0
28.0,-256.0,18.0,-35.0,51.0,-22.0,0
27.0,-255.0,20.0,-34.0,51.0,-21.0,0
29.0,-251.0,25.0,-36.0,50.0,-21.0,0
24.0,-253.0,18.0,-39.0,48.0,-22.0,0
26.0,-251.0,22.0,-43.0,47.0,-23.0,0
27.0,-255.0,22.0,-45.0,48.0,-24.0,0
27.0,-253.0,19.0,-48.0,48.0,-25.0,0
27.0,-254.0,15.0,-51.0,47.0,-23.0,0
25.0,-256.0,17.0,-53.0,46.0,-22.0,0
23.0,-253.0,17.0,-57.0,45.0,-22.0,0
24.0,-255.0,20.0,-57.0,43.0,-21.0,0
24.0,-254.0,19.0,-59.0,42.0,-20.0,0
25.0,-256.0,21.0,-57.0,42.0,-18.0,0
25.0,-255.0,21.0,-55.0,40.0,-19.0,0
26.0,-255.0,18.0,-55.0,37.0,-18.0,0
27.0,-253.0,22.0,-55.0,37.0,-18.0,0
25.0,-253.0,20.0,-55.0,33.0,-17.0,0
25.0,-256.0,21.0,-56.0,32.0,-17.0,0
25.0,-255.0,21.0,-58.0,31.0,-16.0,0
25.0,-252.0,16.0,-60.0,30.0,-15.0,0
30.0,-257.0,21.0,-61.0,29.0,-14.0,0
26.0,-257.0,19.0,-62.0,28.0,-13.0,0
28.0,-256.0,16.0,-59.0,27.0,-12.0,0
25.0,-257.0,18.0,-57.0,27.0,-12.0,0
30.0,-256.0,17.0,-54.0,26.0,-12.0,0
27.0,-255.0,20.0,-53.0,25.0,-11.0,0
26.0,-255.0,19.0,-51.0,24.0,-10.0,0
27.0,-254.0,21.0,-47.0,23.0,-10.0,0
26.0,-256.0,21.0,-45.0,21.0,-8.0,0
26.0,-254.0,20.0,-44.0,18.0,-8.0,0
25.0,-251.0,19.0,-44.0,16.0,-7.0,0
29.0,-255.0,17.0,-48.0,12.0,-6.0,0
25.0,-251.0,17.0,-53.0,10.0,-5.0,0
25.0,-251.0,16.0,-56.0,6.0,-4.0,0
27.0,-255.0,16.0,-61.0,3.0,-3.0,0
26.0,-251.0,21.0,-65.0,1.0,-3.0,0
28.0,-253.0,17.0,-66.0,0.0,-3.0,0
26.0,-255.0,16.0,-66.0,2.0,-2.0,0
29.0,-255.0,14.0,-64.0,4.0,-1.0,0
26.0,-256.0,17.0,-62.0,6.0,0.0,0
28.0,-256.0,15.0,-60.0,8.0,0.0,0
27.0,-255.0,20.0,-58.0,12.0,0.0,0
30.0,-255.0,21.0,-57.0,13.0,-1.0,0
27.0,-256.0,16.0,-54.0,15.0,-2.0,0
31.0,-256.0,17.0,-54.0,19.0,-5.0,0
28.0,-253.0,22.0,-53.0,21.0,-6.0,0
25.0,-255.0,17.0,-51.0,24.0,-8.0,0
28.0,-254.0,14.0,-49.0,25.0,-9.0,0
26.0,-256.0,23.0,-47.0,26.0,-11.0,0
25.0,-255.0,21.0,-45.0,25.0,-12.0,0
28.0,-254.0,16.0,-46.0,25.0,-12.0,0
25.0,-253.0,20.0,-44.0,24.0,-11.0,0
28.0,-255.0,19.0,-44.0,22.0,-12.0,0
25.0,-255.0,19.0,-45.0,21.0,-11.0,0
26.0,-252.0,16.0,-47.0,20.0,-10.0,0
28.0,-255.0,15.0,-53.0,20.0,-8.0,0
20.0,-252.0,17.0,-55.0,20.0,-8.0,0
26.0,-255.0,14.0,-56.0,19.0,-5.0,0
27.0,-255.0,19.0,-56.0,20.0,-4.0,0
27.0,-258.0,18.0,-58.0,19.0,-4.0,0
26.0,-254.0,15.0,-59.0,22.0,-4.0,0
24.0,-256.0,16.0,-58.0,21.0,-4.0,0
25.0,-256.0,18.0,-57.0,20.0,-4.0,0
30.0,-256.0,16.0,-53.0,20.0,-3.0,0
29.0,-256.0,15.0,-52.0,20.0,-2.0,0
27.0,-257.0,17.0,-50.0,20.0,-3.0,0
27.0,-257.0,16.0,-47.0,20.0,-3.0,0
27.0,-254.0,19.0,-42.0,19.0,-3.0,0
27.0,-256.0,19.0,-36.0,17.0,-3.0,0
27.0,-256.0,18.0,-31.0,16.0,-3.0,0
30.0,-257.0,13.0,-29.0,16.0,-2.0,0
29.0,-255.0,18.0,-29.0,16.0,-1.0,0
28.0,-254.0,18.0,-28.0,15.0,-2.0,0
28.0,-252.0,18.0,-30.0,17.0,-3.0,0
29.0,-252.0,13.0,-34.0,17.0,-2.0,0
29.0,-253.0,19.0,-40.0,20.0,-3.0,0
28.0,-255.0,16.0,-40.0,19.0,-4.0,0
30.0,-254.0,17.0,-44.0,19.0,-3.0,0
27.0,-253.0,17.0,-48.0,20.0,-5.0,0
29.0,-254.0,16.0,-52.0,20.0,-5.0,0
27.0,-251.0,16.0,-54.0,22.0,-6.0,0
30.0,-254.0,15.0,-56.0,24.0,-7.0,0
29.0,-254.0,18.0,-57.0,24.0,-7.0,0
28.0,-254.0,17.0,-56.0,25.0,-7.0,0
28.0,-256.0,22.0,-57.0,24.0,-10.0,0
28.0,-253.0,19.0,-54.0,24.0,-9.0,0
28.0,-255.0,16.0,-55.0,23.0,-9.0,0
31.0,-258.0,21.0,-54.0,22.0,-9.0,0
26.0,-254.0,15.0,-53.0,20.0,-8.0,0
26.0,-257.0,16.0,-54.0,19.0,-10.0,0
28.0,-254.0,18.0,-52.0,21.0,-11.0,0
28.0,-255.0,18.0,-56.0,21.0,-11.0,0
28.0,-256.0,17.0,-59.0,21.0,-12.0,0
28.0,-256.0,14.0,-60.0,21.0,-11.0,0
29.0,-256.0,13.0,-58.0,22.0,-12.0,0
27.0,-256.0,19.0,-59.0,23.0,-12.0,0
27.0,-257.0,17.0,-58.0,25.0,-11.0,0
29.0,-256.0,16.0,-56.0,24.0,-12.0,0
26.0,-256.0,18.0,-52.0,25.0,-12.0,0
30.0,-255.0,17.0,-48.0,26.0,-13.0,0
32.0,-250.0,18.0,-45.0,24.0,-12.0,0
31.0,-256.0,19.0,-42.0,23.0,-11.0,0
30.0,-255.0,16.0,-40.0,22.0,-10.0,0
30.0,-254.0,13.0,-37.0,22.0,-9.0,0
29.0,-255.0,14.0,-38.0,23.0,-10.0,0
30.0,-254.0,16.0,-39.0,23.0,-10.0,0
27.0,-253.0,14.0,-42.0,24.0,-10.0,0
29.0,-254.0,17.0,-44.0,24.0,-10.0,0
31.0,-256.0,17.0,-47.0,25.0,-9.0,0
24.0,-251.0,15.0,-50.0,25.0,-8.0,0
25.0,-249.0,19.0,-56.0,27.0,-8.0,0
30.0,-254.0,17.0,-60.0,29.0,-9.0,0
30.0,-255.0,15.0,-67.0,30.0,-11.0,0
29.0,-256.0,13.0,-67.0,32.0,-12.0,0
30.0,-255.0,15.0,-71.0,33.0,-12.0,0
27.0,-255.0,14.0,-70.0,35.0,-12.0,0
28.0,-256.0,19.0,-72.0,37.0,-12.0,0
29.0,-258.0,14.0,-70.0,38.0,-15.0,0
28.0,-257.0,21.0,-68.0,40.0,-15.0,0
29.0,-256.0,17.0,-68.0,40.0,-16.0,0
26.0,-255.0,16.0,-68.0,38.0,-17.0,0
29.0,-255.0,13.0,-65.0,38.0,-17.0,0
28.0,-255.0,13.0,-61.0,37.0,-18.0,0
27.0,-258.0,13.0,-59.0,37.0,-19.0,0
30.0,-259.0,14.0,-58.0,37.0,-18.0,0
28.0,-258.0,17.0,-56.0,36.0,-19.0,0
27.0,-259.0,18.0,-54.0,36.0,-19.0,0
25.0,-254.0,13.0,-54.0,37.0,-19.0,0
24.0,-256.0,13.0,-53.0,35.0,-19.0,0
27.0,-256.0,16.0,-49.0,36.0,-19.0,0
25.0,-256.0,14.0,-46.0,36.0,-19.0,0
25.0,-255.0,17.0,-44.0,36.0,-15.0,0
31.0,-253.0,18.0,-41.0,37.0,-16.0,0
28.0,-257.0,18.0,-40.0,35.0,-15.0,0
27.0,-256.0,17.0,-37.0,35.0,-14.0,0
24.0,-254.0,20.0,-38.0,33.0,-14.0,0
28.0,-255.0,16.0,-39.0,31.0,-13.0,0
25.0,-251.0,17.0,-41.0,31.0,-12.0,0
25.0,-251.0,12.0,-44.0,29.0,-10.0,0
27.0,-252.0,16.0,-50.0,28.0,-10.0,0
29.0,-253.0,16.0,-54.0,28.0,-9.0,0
26.0,-255.0,10.0,-61.0,27.0,-7.0,0
24.0,-251.0,17.0,-66.0,26.0,-8.0,0
24.0,-256.0,17.0,-72.0,25.0,-7.0,0
26.0,-257.0,18.0,-75.0,25.0,-7.0,0
25.0,-255.0,14.0,-75.0,23.0,-8.0,0
27.0,-257.0,14.0,-76.0,22.0,-7.0,0
25.0,-256.0,11.0,-75.0,20.0,-9.0,0
24.0,-257.0,17.0,-71.0,19.0,-9.0,0
26.0,-256.0,14.0,-64.0,18.0,-10.0,0
25.0,-257.0,14.0,-58.0,18.0,-9.0,0
26.0,-257.0,16.0,-52.0,17.0,-10.0,0
26.0,-256.0,17.0,-47.0,16.0,-11.0,0
21.0,-256.0,19.0,-42.0,17.0,-12.0,0
27.0,-259.0,18.0,-38.0,17.0,-13.0,0
25.0,-257.0,15.0,-37.0,15.0,-12.0,0
25.0,-258.0,16.0,-35.0,15.0,-11.0,0
26.0,-256.0,15.0,-32.0,15.0,-10.0,0
26.0,-257.0,14.0,-29.0,15.0,-9.0,0
28.0,-256.0,15.0,-25.0,16.0,-7.0,0
27.0,-256.0,17.0,-22.0,16.0,-6.0,0
24.0,-255.0,16.0,-19.0,16.0,-5.0,0
22.0,-254.0,12.0,-15.0,16.0,-6.0,0
29.0,-257.0,14.0,-14.0,17.0,-4.0,0
30.0,-256.0,16.0,-15.0,16.0,-4.0,0
22.0,-256.0,18.0,-18.0,17.0,-2.0,0
25.0,-252.0,13.0,-22.0,15.0,-1.0,0
29.0,-256.0,14.0,-29.0,16.0,-1.0,0
26.0,-255.0,14.0,-33.0,14.0,0.0,0
29.0,-256.0,13.0,-39.0,13.0,0.0,0
29.0,-254.0,15.0,-42.0,11.0,0.0,0
29.0,-256.0,13.0,-43.0,12.0,-1.0,0
29.0,-256.0,12.0,-43.0,12.0,0.0,0
31.0,-256.0,19.0,-44.0,13.0,0.0,0
27.0,-254.0,14.0,-41.0,15.0,-2.0,0
28.0,-255.0,12.0,-38.0,17.0,-1.0,0
29.0,-262.0,15.0,-37.0,17.0,-4.0,0
27.0,-256.0,13.0,-35.0,19.0,-4.0,0
28.0,-257.0,18.0,-33.0,21.0,-7.0,0
29.0,-256.0,15.0,-33.0,23.0,-8.0,0
25.0,-255.0,11.0,-33.0,24.0,-10.0,0
30.0,-258.0,15.0,-35.0,24.0,-11.0,0
26.0,-257.0,15.0,-35.0,24.0,-11.0,0
25.0,-255.0,14.0,-35.0,25.0,-11.0,0
26.0,-258.0,13.0,-34.0,25.0,-11.0,0
26.0,-258.0,20.0,-33.0,24.0,-11.0,0
26.0,-253.0,14.0,-33.0,24.0,-10.0,0
24.0,-253.0,14.0,-31.0,21.0,-9.0,0
25.0,-255.0,18.0,-30.0,18.0,-7.0,0
29.0,-255.0,17.0,-30.0,17.0,-6.0,0
26.0,-256.0,16.0,-29.0,15.0,-4.0,0
26.0,-254.0,14.0,-30.0,13.0,-4.0,0
27.0,-256.0,13.0,-32.0,13.0,-2.0,0
27.0,-254.0,13.0,-32.0,12.0,-1.0,0
24.0,-255.0,9.0,-32.0,13.0,1.0,0
27.0,-255.0,13.0,-33.0,13.0,3.0,0
25.0,-255.0,15.0,-33.0,11.0,3.0,0
29.0,-256.0,16.0,-33.0,9.0,4.0,0
25.0,-253.0,15.0,-35.0,9.0,4.0,0
30.0,-257.0,17.0,-34.0,8.0,4.0,0
26.0,-257.0,15.0,-35.0,6.0,3.0,0
25.0,-252.0,18.0,-36.0,4.0,3.0,0
27.0,-256.0,15.0,-35.0,2.0,4.0,0
30.0,-256.0,16.0,-34.0,0.0,2.0,0
26.0,-255.0,16.0,-31.0,1.0,3.0,0
23.0,-256.0,13.0,-28.0,-1.0,1.0,0
25.0,-254.0,14.0,-24.0,0.0,1.0,0
27.0,-254.0,18.0,-21.0,-1.0,0.0,0
25.0,-257.0,14.0,-18.0,-2.0,1.0,0
31.0,-258.0,17.0,-17.0,-2.0,1.0,0
27.0,-255.0,14.0,-17.0,-4.0,2.0,0
30.0,-256.0,15.0,-15.0,-4.0,1.0,0
30.0,-257.0,16.0,-16.0,-2.0,1.0,0
26.0,-253.0,21.0,-19.0,0.0,2.0,0
29.0,-254.0,16.0,-20.0,0.0,1.0,0
25.0,-253.0,18.0,-22.0,3.0,0.0,0
27.0,-253.0,15.0,-24.0,4.0,1.0,0
33.0,-258.0,12.0,-23.0,4.0,0.0,0
30.0,-255.0,7.0,-24.0,6.0,-1.0,0
30.0,-254.0,18.0,-24.0,7.0,-3.0,0
30.0,-255.0,17.0,-22.0,7.0,-5.0,0
28.0,-254.0,16.0,-23.0,6.0,-4.0,0
30.0,-256.0,20.0,-22.0,7.0,-6.0,0
27.0,-253.0,19.0,-22.0,7.0,-5.0,0
26.0,-254.0,21.0,-22.0,7.0,-7.0,0
29.0,-253.0,22.0,-22.0,7.0,-5.0,0
29.0,-255.0,16.0,-23.0,8.0,-8.0,0
29.0,-255.0,19.0,-24.0,8.0,-8.0,0
27.0,-254.0,18.0,-24.0,9.0,-8.0,0
30.0,-254.0,17.0,-23.0,9.0,-8.0,0
28.0,-253.0,19.0,-25.0,9.0,-9.0,0
28.0,-255.0,18.0,-24.0,11.0,-9.0,0
28.0,-254.0,14.0,-23.0,12.0,-9.0,0
28.0,-254.0,15.0,-23.0,14.0,-11.0,0
29.0,-256.0,17.0,-23.0,15.0,-11.0,0
28.0,-256.0,13.0,-22.0,16.0,-11.0,0
27.0,-256.0,17.0,-20.0,17.0,-11.0,0
27.0,-255.0,15.0,-21.0,18.0,-11.0,0
28.0,-256.0,19.0,-22.0,19.0,-10.0,0
27.0,-255.0,16.0,-23.0,18.0,-9.0,0
30.0,-256.0,17.0,-24.0,17.0,-10.0,0
26.0,-254.0,13.0,-25.0,16.0,-9.0,0
25.0,-255.0,20.0,-26.0,13.0,-8.0,0
