ax,ay,az,gx,gy,gz,label
14.0,-247.0,6.0,-5.0,60.0,-2.0,0
15.0,-247.0,6.0,-5.0,59.0,1.0,0
14.0,-250.0,6.0,-6.0,58.0,0.0,0
14.0,-255.0,4.0,-6.0,59.0,4.0,0
11.0,-251.0,7.0,-4.0,59.0,2.0,0
22.0,-251.0,6.0,-1.0,58.0,5.0,0
15.0,-251.0,7.0,4.0,59.0,4.0,0
11.0,-250.0,10.0,7.0,58.0,7.0,0
15.0,-249.0,6.0,9.0,55.0,5.0,0
16.0,-248.0,7.0,8.0,53.0,8.0,0
13.0,-248.0,10.0,3.0,51.0,6.0,0
13.0,-250.0,9.0,-2.0,50.0,8.0,0
11.0,-250.0,6.0,-7.0,51.0,5.0,0
11.0,-249.0,7.0,-9.0,50.0,8.0,0
11.0,-248.0,2.0,-8.0,49.0,5.0,0
11.0,-236.0,6.0,-3.0,45.0,8.0,0
22.0,-252.0,16.0,2.0,40.0,8.0,0
11.0,-250.0,5.0,7.0,38.0,11.0,0
14.0,-250.0,8.0,6.0,33.0,8.0,0
11.0,-249.0,6.0,8.0,30.0,10.0,0
11.0,-251.0,7.0,8.0,24.0,7.0,0
10.0,-248.0,9.0,7.0,19.0,11.0,0
10.0,-251.0,8.0,7.0,18.0,10.0,0
13.0,-251.0,12.0,10.0,18.0,12.0,0
11.0,-251.0,12.0,12.0,19.0,10.0,0
10.0,-251.0,9.0,18.0,24.0,13.0,0
-3.0,-234.0,5.0,24.0,30.0,10.0,0
12.0,-249.0,9.0,30.0,36.0,14.0,0
13.0,-248.0,10.0,36.0,38.0,7.0,0
13.0,-246.0,10.0,39.0,38.0,10.0,0
12.0,-248.0,10.0,42.0,35.0,7.0,0
11.0,-247.0,6.0,37.0,33.0,9.0,0
11.0,-246.0,11.0,31.0,30.0,3.0,0
12.0,-249.0,10.0,27.0,26.0,2.0,0
12.0,-252.0,10.0,23.0,24.0,0.0,0
14.0,-248.0,7.0,21.0,20.0,3.0,0
8.0,-253.0,6.0,18.0,21.0,3.0,0
10.0,-253.0,12.0,22.0,17.0,6.0,0
6.0,-254.0,7.0,27.0,13.0,7.0,0
11.0,-254.0,8.0,32.0,6.0,12.0,0
6.0,-250.0,11.0,38.0,4.0,12.0,0
6.0,-251.0,7.0,44.0,2.0,20.0,0
6.0,-251.0,10.0,53.0,-2.0,21.0,0
5.0,-250.0,12.0,58.0,-7.0,25.0,0
9.0,-251.0,12.0,59.0,-13.0,26.0,0
9.0,-248.0,13.0,56.0,-19.0,28.0,0
7.0,-245.0,14.0,48.0,-27.0,27.0,0
12.0,-248.0,11.0,40.0,-29.0,30.0,0
-9.0,-246.0,11.0,32.0,-28.0,28.0,0
10.0,-250.0,13.0,23.0,-25.0,30.0,0
10.0,-253.0,6.0,16.0,-23.0,27.0,0
10.0,-250.0,12.0,8.0,-18.0,29.0,0
8.0,-249.0,9.0,1.0,-15.0,27.0,0
9.0,-248.0,10.0,-5.0,-14.0,30.0,0
7.0,-250.0,7.0,-12.0,-15.0,28.0,0
6.0,-251.0,7.0,-16.0,-16.0,30.0,0
7.0,-251.0,6.0,-16.0,-19.0,28.0,0
8.0,-255.0,16.0,-11.0,-22.0,31.0,0
6.0,-253.0,7.0,-3.0,-23.0,33.0,0
-5.0,-248.0,19.0,3.0,-29.0,38.0,0
3.0,-248.0,10.0,6.0,-36.0,40.0,0
-1.0,-251.0,9.0,3.0,-42.0,48.0,0
-4.0,-248.0,13.0,-7.0,-45.0,51.0,0
-1.0,-251.0,10.0,-18.0,-51.0,60.0,0
-3.0,-250.0,11.0,-30.0,-59.0,60.0,0
-2.0,-254.0,9.0,-37.0,-62.0,62.0,0
-6.0,-252.0,10.0,-40.0,-63.0,57.0,0
-7.0,-252.0,12.0,-33.0,-60.0,52.0,0
-1.0,-255.0,12.0,-22.0,-54.0,40.0,0
-2.0,-254.0,16.0,-9.0,-49.0,31.0,0
9.0,-257.0,21.0,3.0,-43.0,17.0,0
2.0,-250.0,12.0,13.0,-42.0,11.0,0
0.0,-247.0,13.0,20.0,-42.0,2.0,0
1.0,-249.0,7.0,22.0,-43.0,0.0,0
4.0,-245.0,11.0,26.0,-42.0,-5.0,0
4.0,-250.0,11.0,28.0,-43.0,-5.0,0
4.0,-244.0,9.0,36.0,-44.0,-8.0,0
9.0,-246.0,13.0,44.0,-41.0,-10.0,0
4.0,-243.0,10.0,49.0,-35.0,-19.0,0
0.0,-240.0,19.0,51.0,-30.0,-19.0,0
-4.0,-244.0,9.0,50.0,-33.0,-26.0,0
-3.0,-248.0,18.0,41.0,-34.0,-22.0,0
-3.0,-242.0,11.0,31.0,-37.0,-23.0,0
-3.0,-245.0,14.0,25.0,-39.0,-20.0,0
-6.0,-244.0,12.0,23.0,-44.0,-21.0,0
-5.0,-246.0,16.0,21.0,-48.0,-19.0,0
-4.0,-250.0,14.0,21.0,-50.0,-20.0,0
-5.0,-251.0,19.0,21.0,-51.0,-22.0,0
-12.0,-252.0,21.0,20.0,-55.0,-26.0,0
-9.0,-249.0,19.0,20.0,-61.0,-28.0,0
-8.0,-253.0,19.0,22.0,-66.0,-35.0,0
-4.0,-255.0,21.0,25.0,-69.0,-40.0,0
-10.0,-241.0,12.0,27.0,-73.0,-50.0,0
-8.0,-252.0,16.0,30.0,-75.0,-54.0,0
-5.0,-255.0,15.0,35.0,-76.0,-62.0,0
-5.0,-251.0,13.0,41.0,-77.0,-67.0,0
-2.0,-251.0,11.0,47.0,-77.0,-71.0,0
0.0,-251.0,11.0,53.0,-79.0,-74.0,0
-1.0,-246.0,10.0,58.0,-76.0,-77.0,0
1.0,-249.0,13.0,61.0,-75.0,-77.0,0
7.0,-250.0,11.0,62.0,-74.0,-80.0,0
-1.0,-247.0,10.0,63.0,-77.0,-76.0,0
6.0,-246.0,8.0,64.0,-81.0,-76.0,0
1.0,-241.0,0.0,65.0,-86.0,-69.0,0
6.0,-247.0,13.0,68.0,-91.0,-66.0,0
5.0,-245.0,10.0,71.0,-94.0,-61.0,0
9.0,-247.0,10.0,72.0,-98.0,-57.0,0
7.0,-243.0,13.0,70.0,-99.0,-54.0,0
7.0,-243.0,10.0,67.0,-96.0,-56.0,0
7.0,-243.0,6.0,60.0,-90.0,-58.0,0
10.0,-246.0,12.0,54.0,-77.0,-62.0,0
5.0,-243.0,6.0,48.0,-68.0,-65.0,0
6.0,-245.0,7.0,40.0,-63.0,-68.0,0
13.0,-252.0,13.0,29.0,-65.0,-65.0,0
9.0,-249.0,2.0,17.0,-65.0,-66.0,0
11.0,-249.0,3.0,9.0,-65.0,-63.0,0
8.0,-247.0,2.0,4.0,-66.0,-64.0,0
8.0,-248.0,2.0,1.0,-67.0,-60.0,0
9.0,-246.0,1.0,-1.0,-68.0,-57.0,0
12.0,-250.0,3.0,-4.0,-74.0,-53.0,0
14.0,-249.0,-4.0,-8.0,-77.0,-52.0,0
15.0,-250.0,1.0,-9.0,-72.0,-50.0,0
22.0,-250.0,-2.0,-7.0,-67.0,-54.0,0
14.0,-244.0,2.0,-3.0,-62.0,-53.0,0
20.0,-222.0,-17.0,-2.0,-56.0,-55.0,0
26.0,-239.0,-1.0,-9.0,-48.0,-56.0,0
26.0,-237.0,-1.0,-15.0,-33.0,-59.0,0
27.0,-232.0,2.0,-20.0,-15.0,-61.0,0
31.0,-231.0,-2.0,-24.0,4.0,-62.0,0
34.0,-233.0,0.0,-31.0,20.0,-60.0,0
38.0,-231.0,0.0,-45.0,32.0,-58.0,0
39.0,-230.0,2.0,-66.0,44.0,-51.0,0
43.0,-233.0,4.0,-81.0,52.0,-44.0,0
41.0,-230.0,9.0,-92.0,58.0,-34.0,0
45.0,-234.0,8.0,-103.0,64.0,-29.0,0
60.0,-232.0,7.0,-119.0,76.0,-23.0,0
45.0,-242.0,10.0,-136.0,89.0,-22.0,0
44.0,-246.0,13.0,-156.0,98.0,-21.0,0
42.0,-250.0,12.0,-170.0,102.0,-20.0,0
39.0,-249.0,12.0,-178.0,99.0,-12.0,0
38.0,-250.0,16.0,-178.0,84.0,-4.0,0
35.0,-255.0,24.0,-170.0,54.0,10.0,0
27.0,-254.0,24.0,-145.0,24.0,21.0,0
22.0,-253.0,32.0,-124.0,-12.0,39.0,0
18.0,-254.0,29.0,-106.0,-51.0,57.0,0
14.0,-246.0,22.0,-87.0,-83.0,78.0,0
18.0,-245.0,37.0,-68.0,-106.0,87.0,0
8.0,-245.0,29.0,-59.0,-124.0,94.0,0
4.0,-252.0,31.0,-66.0,-143.0,92.0,0
4.0,-249.0,32.0,-81.0,-165.0,92.0,0
1.0,-249.0,33.0,-92.0,-195.0,95.0,0
-2.0,-250.0,30.0,-104.0,-234.0,98.0,0
1.0,-253.0,26.0,-124.0,-277.0,87.0,0
3.0,-251.0,23.0,-154.0,-304.0,80.0,0
8.0,-252.0,19.0,-176.0,-330.0,65.0,0
9.0,-255.0,20.0,-192.0,-356.0,53.0,0
11.0,-254.0,17.0,-199.0,-377.0,37.0,0
11.0,-253.0,10.0,-203.0,-397.0,33.0,0
17.0,-255.0,5.0,-204.0,-416.0,21.0,0
20.0,-255.0,13.0,-204.0,-430.0,15.0,0
20.0,-253.0,6.0,-200.0,-443.0,6.0,0
22.0,-253.0,15.0,-190.0,-455.0,4.0,0
23.0,-248.0,7.0,-172.0,-467.0,1.0,0
29.0,-250.0,10.0,-150.0,-479.0,4.0,0
27.0,-244.0,12.0,-143.0,-490.0,4.0,0
25.0,-241.0,9.0,-139.0,-500.0,10.0,0
25.0,-243.0,12.0,-138.0,-511.0,16.0,0
23.0,-238.0,6.0,-144.0,-522.0,24.0,0
19.0,-234.0,2.0,-151.0,-537.0,31.0,0
23.0,-241.0,8.0,-160.0,-554.0,41.0,0
21.0,-238.0,11.0,-168.0,-571.0,46.0,0
19.0,-239.0,11.0,-176.0,-584.0,54.0,0
17.0,-238.0,9.0,-183.0,-593.0,60.0,0
22.0,-243.0,9.0,-187.0,-601.0,65.0,0
20.0,-245.0,6.0,-194.0,-610.0,66.0,0
25.0,-247.0,8.0,-202.0,-623.0,70.0,0
15.0,-250.0,11.0,-208.0,-641.0,71.0,0
14.0,-252.0,10.0,-217.0,-659.0,75.0,0
15.0,-251.0,6.0,-224.0,-677.0,74.0,0
24.0,-253.0,16.0,-228.0,-689.0,75.0,0
18.0,-254.0,11.0,-227.0,-700.0,77.0,0
20.0,-254.0,12.0,-218.0,-708.0,80.0,0
22.0,-256.0,7.0,-207.0,-711.0,80.0,0
22.0,-254.0,12.0,-191.0,-706.0,81.0,0
27.0,-255.0,12.0,-173.0,-695.0,81.0,0
27.0,-254.0,11.0,-155.0,-688.0,85.0,0
30.0,-252.0,13.0,-139.0,-682.0,86.0,0
32.0,-251.0,14.0,-127.0,-674.0,93.0,0
32.0,-251.0,11.0,-109.0,-663.0,98.0,0
34.0,-252.0,14.0,-92.0,-652.0,106.0,0
39.0,-245.0,13.0,-77.0,-642.0,112.0,0
33.0,-250.0,15.0,-67.0,-632.0,121.0,0
35.0,-253.0,20.0,-53.0,-623.0,127.0,0
36.0,-250.0,20.0,-41.0,-616.0,139.0,0
32.0,-251.0,21.0,-32.0,-609.0,146.0,0
34.0,-254.0,18.0,-21.0,-602.0,155.0,0
31.0,-251.0,19.0,-12.0,-593.0,159.0,0
29.0,-251.0,20.0,0.0,-579.0,168.0,0
28.0,-250.0,18.0,12.0,-565.0,174.0,0
28.0,-250.0,20.0,24.0,-550.0,181.0,0
28.0,-245.0,10.0,35.0,-535.0,182.0,0
36.0,-251.0,19.0,44.0,-520.0,188.0,0
25.0,-242.0,5.0,49.0,-506.0,190.0,0
23.0,-241.0,9.0,48.0,-497.0,193.0,0
23.0,-239.0,7.0,43.0,-496.0,196.0,0
25.0,-237.0,8.0,41.0,-496.0,200.0,0
20.0,-238.0,11.0,37.0,-500.0,204.0,0
19.0,-240.0,15.0,32.0,-508.0,212.0,0
20.0,-241.0,17.0,26.0,-514.0,216.0,0
12.0,-243.0,19.0,16.0,-524.0,221.0,0
13.0,-245.0,12.0,7.0,-529.0,222.0,0
34.0,-245.0,8.0,-3.0,-529.0,223.0,0
19.0,-254.0,13.0,-12.0,-522.0,220.0,0
27.0,-256.0,8.0,-18.0,-506.0,215.0,0
25.0,-260.0,6.0,-27.0,-482.0,204.0,0
29.0,-262.0,3.0,-31.0,-453.0,189.0,0
30.0,-265.0,0.0,-33.0,-420.0,175.0,0
32.0,-266.0,-1.0,-33.0,-396.0,164.0,0
37.0,-267.0,-3.0,-32.0,-377.0,148.0,0
40.0,-265.0,-9.0,-31.0,-356.0,138.0,0
42.0,-266.0,-16.0,-34.0,-335.0,125.0,0
49.0,-265.0,-19.0,-33.0,-302.0,123.0,0
29.0,-259.0,-17.0,-26.0,-266.0,123.0,0
44.0,-256.0,-19.0,-13.0,-238.0,122.0,0
38.0,-256.0,-21.0,-3.0,-218.0,120.0,0
39.0,-253.0,-20.0,-3.0,-206.0,118.0,0
35.0,-254.0,-23.0,-15.0,-196.0,115.0,0
34.0,-254.0,-25.0,-32.0,-188.0,111.0,0
29.0,-251.0,-22.0,-45.0,-176.0,103.0,0
30.0,-250.0,-21.0,-54.0,-166.0,96.0,0
25.0,-250.0,-14.0,-61.0,-155.0,86.0,0
24.0,-253.0,-17.0,-65.0,-149.0,76.0,0
18.0,-249.0,-18.0,-66.0,-149.0,68.0,0
36.0,-249.0,-21.0,-63.0,-152.0,59.0,0
16.0,-253.0,-13.0,-56.0,-158.0,53.0,0
10.0,-248.0,-10.0,-46.0,-165.0,50.0,0
6.0,-246.0,-17.0,-36.0,-172.0,53.0,0
6.0,-246.0,-15.0,-29.0,-179.0,57.0,0
0.0,-245.0,-12.0,-26.0,-182.0,64.0,0
-3.0,-242.0,-16.0,-27.0,-186.0,72.0,0
-3.0,-238.0,-20.0,-30.0,-188.0,78.0,0
-3.0,-237.0,-14.0,-35.0,-189.0,82.0,0
-5.0,-234.0,-21.0,-42.0,-194.0,84.0,0
-3.0,-232.0,-19.0,-54.0,-198.0,85.0,0
-5.0,-224.0,-40.0,-66.0,-205.0,80.0,0
0.0,-235.0,-23.0,-80.0,-208.0,72.0,0
-1.0,-236.0,-27.0,-92.0,-205.0,62.0,0
2.0,-239.0,-24.0,-99.0,-191.0,46.0,0
5.0,-240.0,-22.0,-98.0,-174.0,29.0,0
9.0,-242.0,-22.0,-93.0,-152.0,13.0,0
6.0,-242.0,-21.0,-88.0,-129.0,-4.0,0
9.0,-248.0,-22.0,-85.0,-110.0,-18.0,0
10.0,-249.0,-24.0,-87.0,-97.0,-28.0,0
6.0,-248.0,-26.0,-94.0,-89.0,-33.0,0
7.0,-253.0,-28.0,-105.0,-81.0,-35.0,0
-4.0,-252.0,-35.0,-114.0,-75.0,-35.0,0
12.0,-255.0,-29.0,-119.0,-67.0,-34.0,0
15.0,-256.0,-28.0,-119.0,-53.0,-36.0,0
14.0,-256.0,-27.0,-116.0,-34.0,-39.0,0
17.0,-258.0,-24.0,-105.0,-18.0,-41.0,0
16.0,-261.0,-30.0,-92.0,2.0,-45.0,0
19.0,-259.0,-24.0,-78.0,23.0,-51.0,0
17.0,-258.0,-19.0,-65.0,38.0,-56.0,0
16.0,-257.0,-23.0,-57.0,51.0,-62.0,0
15.0,-257.0,-23.0,-53.0,59.0,-66.0,0
17.0,-258.0,-25.0,-55.0,65.0,-66.0,0
11.0,-266.0,-10.0,-56.0,70.0,-63.0,0
15.0,-259.0,-21.0,-53.0,75.0,-58.0,0
12.0,-257.0,-23.0,-52.0,79.0,-51.0,0
13.0,-257.0,-19.0,-49.0,82.0,-39.0,0
12.0,-256.0,-24.0,-47.0,86.0,-29.0,0
11.0,-253.0,-25.0,-47.0,88.0,-17.0,0
7.0,-253.0,-29.0,-52.0,94.0,-10.0,0
8.0,-248.0,-30.0,-58.0,100.0,-1.0,0
6.0,-250.0,-35.0,-71.0,102.0,5.0,0
1.0,-250.0,-30.0,-83.0,106.0,9.0,0
-2.0,-249.0,-29.0,-95.0,111.0,10.0,0
-12.0,-253.0,-22.0,-101.0,117.0,11.0,0
0.0,-247.0,-29.0,-101.0,126.0,8.0,0
-1.0,-247.0,-29.0,-97.0,137.0,4.0,0
-2.0,-248.0,-25.0,-87.0,147.0,-5.0,0
-4.0,-248.0,-25.0,-76.0,154.0,-10.0,0
-4.0,-247.0,-23.0,-66.0,161.0,-20.0,0
-5.0,-242.0,-21.0,-58.0,161.0,-28.0,0
-4.0,-244.0,-21.0,-55.0,160.0,-35.0,0
1.0,-247.0,-20.0,-52.0,150.0,-43.0,0
0.0,-242.0,-18.0,-53.0,142.0,-49.0,0
2.0,-241.0,-22.0,-53.0,135.0,-54.0,0
-2.0,-251.0,-10.0,-54.0,127.0,-61.0,0
5.0,-243.0,-16.0,-57.0,124.0,-69.0,0
5.0,-242.0,-17.0,-61.0,121.0,-76.0,0
6.0,-245.0,-14.0,-59.0,124.0,-83.0,0
5.0,-243.0,-18.0,-58.0,128.0,-87.0,0
9.0,-248.0,-15.0,-61.0,130.0,-93.0,0
11.0,-249.0,-14.0,-63.0,132.0,-99.0,0
14.0,-247.0,-9.0,-65.0,133.0,-106.0,0
13.0,-253.0,-19.0,-69.0,138.0,-112.0,0
22.0,-248.0,-18.0,-73.0,143.0,-117.0,0
25.0,-262.0,-12.0,-78.0,147.0,-119.0,0
15.0,-256.0,-13.0,-85.0,148.0,-121.0,0
14.0,-258.0,-17.0,-89.0,146.0,-121.0,0
12.0,-260.0,-16.0,-93.0,137.0,-116.0,0
13.0,-258.0,-17.0,-91.0,124.0,-110.0,0
13.0,-258.0,-16.0,-85.0,111.0,-101.0,0
11.0,-259.0,-13.0,-73.0,100.0,-90.0,0
10.0,-261.0,-13.0,-63.0,90.0,-86.0,0
12.0,-257.0,-18.0,-55.0,85.0,-82.0,0
11.0,-256.0,-15.0,-45.0,86.0,-80.0,0
14.0,-255.0,-19.0,-35.0,93.0,-79.0,0
9.0,-265.0,-11.0,-24.0,104.0,-81.0,0
14.0,-254.0,-12.0,-15.0,114.0,-80.0,0
15.0,-254.0,-12.0,-7.0,119.0,-82.0,0
16.0,-253.0,-17.0,-4.0,124.0,-85.0,0
16.0,-253.0,-16.0,-2.0,128.0,-86.0,0
13.0,-250.0,-13.0,-3.0,130.0,-87.0,0
13.0,-249.0,-16.0,-7.0,128.0,-85.0,0
10.0,-250.0,-16.0,-16.0,122.0,-80.0,0
9.0,-249.0,-14.0,-25.0,117.0,-75.0,0
9.0,-252.0,-18.0,-36.0,112.0,-67.0,0
10.0,-252.0,-19.0,-45.0,107.0,-64.0,0
14.0,-249.0,-19.0,-51.0,104.0,-56.0,0
7.0,-252.0,-17.0,-56.0,100.0,-51.0,0
6.0,-255.0,-13.0,-58.0,98.0,-50.0,0
7.0,-254.0,-16.0,-58.0,96.0,-47.0,0
7.0,-254.0,-14.0,-57.0,93.0,-45.0,0
7.0,-250.0,-14.0,-54.0,86.0,-43.0,0
8.0,-254.0,-13.0,-47.0,80.0,-42.0,0
14.0,-253.0,-17.0,-42.0,73.0,-42.0,0
13.0,-249.0,-16.0,-36.0,68.0,-42.0,0
7.0,-250.0,-13.0,-30.0,63.0,-44.0,0
12.0,-250.0,-9.0,-25.0,60.0,-44.0,0
13.0,-256.0,-5.0,-20.0,61.0,-45.0,0
14.0,-250.0,-10.0,-16.0,63.0,-45.0,0
15.0,-247.0,-13.0,-12.0,66.0,-45.0,0
15.0,-246.0,-12.0,-11.0,68.0,-44.0,0
17.0,-248.0,-10.0,-10.0,71.0,-44.0,0
20.0,-249.0,-13.0,-14.0,76.0,-42.0,0
17.0,-249.0,-7.0,-17.0,80.0,-39.0,0
21.0,-250.0,-9.0,-20.0,85.0,-37.0,0
17.0,-249.0,-8.0,-23.0,92.0,-36.0,0
22.0,-255.0,-8.0,-27.0,94.0,-33.0,0
23.0,-252.0,-9.0,-29.0,95.0,-31.0,0
30.0,-271.0,-1.0,-28.0,99.0,-29.0,0
23.0,-255.0,-13.0,-23.0,102.0,-25.0,0
20.0,-256.0,-10.0,-21.0,104.0,-22.0,0
20.0,-256.0,-11.0,-19.0,104.0,-20.0,0
18.0,-255.0,-11.0,-19.0,100.0,-17.0,0
20.0,-255.0,-12.0,-19.0,98.0,-14.0,0
20.0,-256.0,-11.0,-14.0,94.0,-10.0,0
17.0,-255.0,-7.0,-8.0,91.0,-6.0,0
15.0,-253.0,-12.0,-2.0,87.0,-1.0,0
15.0,-255.0,-9.0,2.0,83.0,0.0,0
17.0,-252.0,-11.0,9.0,82.0,1.0,0
12.0,-249.0,-21.0,15.0,81.0,1.0,0
14.0,-249.0,-11.0,20.0,83.0,0.0,0
18.0,-250.0,-8.0,24.0,85.0,0.0,0
17.0,-247.0,-11.0,24.0,85.0,-2.0,0
15.0,-249.0,-8.0,22.0,86.0,-4.0,0
16.0,-247.0,-12.0,19.0,84.0,-5.0,0
14.0,-247.0,-8.0,14.0,83.0,-9.0,0
15.0,-246.0,-8.0,8.0,80.0,-10.0,0
16.0,-247.0,-8.0,2.0,76.0,-12.0,0
17.0,-246.0,-10.0,0.0,74.0,-12.0,0
17.0,-245.0,-8.0,1.0,73.0,-13.0,0
18.0,-250.0,-7.0,2.0,76.0,-14.0,0
20.0,-253.0,-2.0,0.0,79.0,-14.0,0
19.0,-252.0,-6.0,-1.0,82.0,-13.0,0
19.0,-254.0,-9.0,-3.0,84.0,-13.0,0
20.0,-251.0,-7.0,-2.0,87.0,-11.0,0
19.0,-253.0,-5.0,3.0,88.0,-9.0,0
20.0,-253.0,-2.0,8.0,87.0,-6.0,0
17.0,-253.0,-11.0,15.0,86.0,-6.0,0
17.0,-250.0,-8.0,19.0,85.0,-3.0,0
14.0,-249.0,-11.0,22.0,81.0,-1.0,0
16.0,-251.0,-12.0,21.0,80.0,-1.0,0
15.0,-249.0,0.0,17.0,78.0,-1.0,0
16.0,-252.0,-14.0,12.0,75.0,-3.0,0
15.0,-248.0,-10.0,6.0,72.0,-3.0,0
13.0,-247.0,-9.0,1.0,71.0,-5.0,0
15.0,-248.0,-9.0,-1.0,69.0,-5.0,0
14.0,-248.0,-11.0,-4.0,70.0,-6.0,0
17.0,-246.0,-11.0,-4.0,71.0,-9.0,0
15.0,-247.0,-16.0,-8.0,73.0,-9.0,0
15.0,-248.0,-6.0,-9.0,77.0,-12.0,0
15.0,-249.0,-17.0,-13.0,77.0,-13.0,0
18.0,-253.0,-10.0,-17.0,78.0,-14.0,0
12.0,-248.0,-17.0,-20.0,81.0,-13.0,0
19.0,-252.0,-16.0,-21.0,82.0,-14.0,0
15.0,-251.0,-13.0,-22.0,83.0,-16.0,0
16.0,-252.0,-13.0,-24.0,82.0,-16.0,0
16.0,-252.0,-12.0,-23.0,80.0,-13.0,0
16.0,-249.0,-14.0,-20.0,79.0,-12.0,0
15.0,-249.0,-12.0,-18.0,80.0,-9.0,0
15.0,-251.0,-15.0,-17.0,80.0,-8.0,0
18.0,-251.0,-14.0,-15.0,79.0,-6.0,0
17.0,-253.0,-11.0,-14.0,80.0,-6.0,0
18.0,-257.0,4.0,-11.0,80.0,-6.0,0
13.0,-251.0,-15.0,-12.0,79.0,-5.0,0
19.0,-252.0,-13.0,-15.0,78.0,-5.0,0
15.0,-253.0,-11.0,-15.0,79.0,-8.0,0
17.0,-252.0,-13.0,-15.0,79.0,-9.0,0
14.0,-252.0,-9.0,-16.0,77.0,-12.0,0
14.0,-249.0,-6.0,-17.0,81.0,-15.0,0
17.0,-254.0,-7.0,-15.0,82.0,-19.0,0
15.0,-252.0,-11.0,-14.0,86.0,-22.0,0
12.0,-251.0,-6.0,-12.0,90.0,-24.0,0
16.0,-250.0,-11.0,-7.0,92.0,-25.0,0
26.0,-252.0,-15.0,-2.0,91.0,-23.0,0
19.0,-255.0,-8.0,0.0,92.0,-23.0,0
22.0,-253.0,-9.0,1.0,96.0,-25.0,0
22.0,-251.0,-9.0,1.0,99.0,-24.0,0
20.0,-253.0,-12.0,-1.0,102.0,-25.0,0
21.0,-254.0,-12.0,-3.0,104.0,-23.0,0
21.0,-253.0,-10.0,-5.0,106.0,-24.0,0
17.0,-251.0,-10.0,-6.0,105.0,-24.0,0
20.0,-251.0,-10.0,-3.0,103.0,-22.0,0
17.0,-251.0,-10.0,-1.0,102.0,-20.0,0
23.0,-241.0,-11.0,3.0,103.0,-20.0,0
25.0,-250.0,-4.0,7.0,106.0,-21.0,0
16.0,-249.0,-9.0,10.0,106.0,-19.0,0
15.0,-248.0,-10.0,9.0,103.0,-16.0,0
15.0,-247.0,-10.0,5.0,101.0,-16.0,0
13.0,-247.0,-10.0,-2.0,94.0,-13.0,0
13.0,-249.0,-9.0,-9.0,91.0,-13.0,0
14.0,-253.0,-7.0,-13.0,85.0,-10.0,0
15.0,-251.0,-11.0,-17.0,79.0,-9.0,0
9.0,-251.0,-12.0,-19.0,73.0,-8.0,0
14.0,-253.0,-11.0,-17.0,65.0,-7.0,0
14.0,-251.0,-10.0,-16.0,60.0,-6.0,0
15.0,-260.0,9.0,-14.0,56.0,-7.0,0
16.0,-253.0,-6.0,-10.0,55.0,-8.0,0
18.0,-253.0,-7.0,-6.0,52.0,-10.0,0
16.0,-252.0,-10.0,-3.0,50.0,-11.0,0
16.0,-252.0,-12.0,2.0,50.0,-10.0,0
20.0,-251.0,-11.0,5.0,49.0,-9.0,0
17.0,-252.0,-12.0,6.0,48.0,-9.0,0
17.0,-248.0,-12.0,7.0,49.0,-8.0,0
21.0,-248.0,-14.0,5.0,50.0,-7.0,0
14.0,-247.0,-12.0,3.0,47.0,-7.0,0
16.0,-250.0,-13.0,3.0,46.0,-6.0,0
23.0,-244.0,-28.0,1.0,43.0,-6.0,0
17.0,-247.0,-11.0,-1.0,43.0,-6.0,0
17.0,-245.0,-16.0,-5.0,42.0,-6.0,0
21.0,-249.0,-13.0,-10.0,43.0,-8.0,0
22.0,-251.0,-11.0,-15.0,44.0,-8.0,0
16.0,-247.0,-13.0,-19.0,47.0,-7.0,0
19.0,-248.0,-11.0,-21.0,51.0,-9.0,0
20.0,-246.0,-11.0,-22.0,55.0,-11.0,0
14.0,-249.0,-12.0,-21.0,57.0,-11.0,0
20.0,-247.0,-7.0,-19.0,57.0,-12.0,0
19.0,-251.0,-4.0,-17.0,59.0,-11.0,0
22.0,-252.0,5.0,-15.0,58.0,-9.0,0
16.0,-248.0,-10.0,-14.0,57.0,-6.0,0
14.0,-247.0,-11.0,-15.0,55.0,-6.0,0
15.0,-250.0,-9.0,-16.0,55.0,-3.0,0
15.0,-249.0,-9.0,-17.0,54.0,-4.0,0
16.0,-250.0,-8.0,-16.0,53.0,-2.0,0
16.0,-247.0,-8.0,-17.0,54.0,-3.0,0
16.0,-251.0,-9.0,-18.0,56.0,-2.0,0
16.0,-254.0,-7.0,-19.0,61.0,-4.0,0
14.0,-249.0,-12.0,-18.0,64.0,-6.0,0
16.0,-252.0,-12.0,-18.0,66.0,-6.0,0
26.0,-246.0,-29.0,-21.0,62.0,-7.0,0
17.0,-250.0,-10.0,-22.0,63.0,-9.0,0
13.0,-251.0,-11.0,-23.0,59.0,-10.0,0
15.0,-250.0,-12.0,-24.0,57.0,-13.0,0
15.0,-253.0,-11.0,-24.0,56.0,-12.0,0
16.0,-252.0,-11.0,-22.0,53.0,-13.0,0
14.0,-249.0,-12.0,-21.0,50.0,-13.0,0
19.0,-250.0,-10.0,-20.0,49.0,-12.0,0
20.0,-252.0,-9.0,-21.0,50.0,-9.0,0
16.0,-252.0,-10.0,-19.0,51.0,-9.0,0
16.0,-250.0,-8.0,-20.0,52.0,-6.0,0
14.0,-251.0,-2.0,-20.0,55.0,-8.0,0
9.0,-263.0,-5.0,-20.0,56.0,-6.0,0
19.0,-251.0,12.0,-19.0,58.0,-7.0,0
19.0,-255.0,-10.0,-16.0,60.0,-7.0,0
18.0,-254.0,-6.0,-15.0,63.0,-9.0,0
19.0,-254.0,-10.0,-9.0,66.0,-9.0,0
20.0,-255.0,-10.0,-2.0,69.0,-10.0,0
21.0,-250.0,-6.0,2.0,72.0,-10.0,0
20.0,-249.0,-12.0,6.0,73.0,-11.0,0
18.0,-250.0,-7.0,7.0,75.0,-10.0,0
17.0,-247.0,-15.0,5.0,78.0,-12.0,0
23.0,-253.0,7.0,3.0,79.0,-10.0,0
17.0,-249.0,-4.0,1.0,79.0,-10.0,0
19.0,-245.0,-11.0,-2.0,77.0,-7.0,0
17.0,-247.0,-8.0,-6.0,76.0,-8.0,0
15.0,-244.0,-9.0,-16.0,79.0,-6.0,0
17.0,-248.0,-11.0,-24.0,78.0,-7.0,0
13.0,-249.0,-9.0,-31.0,80.0,-6.0,0
15.0,-254.0,-9.0,-35.0,81.0,-8.0,0
17.0,-254.0,-13.0,-36.0,78.0,-6.0,0
10.0,-254.0,-8.0,-33.0,77.0,-7.0,0
13.0,-240.0,-13.0,-29.0,73.0,-3.0,0
17.0,-251.0,-11.0,-25.0,70.0,-4.0,0
17.0,-257.0,-8.0,-18.0,68.0,-2.0,0
17.0,-256.0,-7.0,-13.0,67.0,-2.0,0
17.0,-254.0,-9.0,-6.0,69.0,-1.0,0
20.0,-249.0,-7.0,-4.0,71.0,-3.0,0
19.0,-251.0,-9.0,-1.0,73.0,-3.0,0
18.0,-249.0,-9.0,0.0,75.0,-5.0,0
16.0,-245.0,-9.0,-1.0,76.0,-5.0,0
17.0,-247.0,-12.0,-2.0,79.0,-8.0,0
18.0,-247.0,-8.0,-3.0,78.0,-9.0,0
8.0,-249.0,-6.0,-4.0,80.0,-13.0,0
18.0,-251.0,-13.0,-5.0,80.0,-13.0,0
19.0,-251.0,-14.0,-6.0,80.0,-16.0,0
18.0,-249.0,-15.0,-7.0,81.0,-18.0,0
16.0,-250.0,-9.0,-12.0,82.0,-18.0,0
17.0,-251.0,-11.0,-16.0,83.0,-18.0,0
17.0,-247.0,-10.0,-22.0,83.0,-19.0,0
16.0,-249.0,-8.0,-26.0,82.0,-15.0,0
16.0,-250.0,-8.0,-29.0,81.0,-15.0,0
17.0,-249.0,-9.0,-30.0,79.0,-10.0,0
13.0,-252.0,-6.0,-27.0,77.0,-10.0,0
11.0,-259.0,8.0,-21.0,77.0,-8.0,0
16.0,-251.0,-9.0,-18.0,76.0,-9.0,0
18.0,-250.0,-8.0,-14.0,78.0,-7.0,0
18.0,-253.0,-11.0,-10.0,78.0,-6.0,0
19.0,-250.0,-8.0,-12.0,78.0,-6.0,0
18.0,-252.0,-6.0,-14.0,78.0,-7.0,0
18.0,-251.0,-6.0,-17.0,78.0,-7.0,0
17.0,-248.0,-11.0,-15.0,78.0,-8.0,0
15.0,-248.0,-10.0,-15.0,77.0,-8.0,0
17.0,-248.0,-4.0,-11.0,76.0,-10.0,0
15.0,-252.0,-13.0,-7.0,75.0,-9.0,0
32.0,-245.0,-22.0,-3.0,74.0,-11.0,0
18.0,-249.0,-2.0,-1.0,74.0,-11.0,0
18.0,-248.0,-9.0,-1.0,74.0,-10.0,0
16.0,-249.0,-9.0,-2.0,75.0,-11.0,0
16.0,-248.0,-10.0,-6.0,77.0,-10.0,0
16.0,-248.0,-9.0,-11.0,79.0,-12.0,0
15.0,-248.0,-11.0,-17.0,80.0,-11.0,0
16.0,-249.0,-9.0,-20.0,79.0,-11.0,0
16.0,-253.0,-13.0,-23.0,79.0,-11.0,0
20.0,-253.0,-8.0,-23.0,80.0,-9.0,0
15.0,-248.0,-9.0,-23.0,78.0,-10.0,0
18.0,-247.0,-26.0,-23.0,79.0,-7.0,0
18.0,-252.0,-11.0,-20.0,80.0,-10.0,0
16.0,-254.0,-13.0,-16.0,82.0,-10.0,0
19.0,-253.0,-12.0,-14.0,83.0,-10.0,0
21.0,-254.0,-7.0,-11.0,85.0,-11.0,0
17.0,-252.0,-8.0,-9.0,86.0,-11.0,0
21.0,-253.0,-13.0,-6.0,88.0,-12.0,0
19.0,-253.0,-10.0,-5.0,87.0,-13.0,0
20.0,-251.0,-13.0,-3.0,88.0,-12.0,0
17.0,-250.0,-12.0,-1.0,91.0,-13.0,0
20.0,-253.0,-10.0,0.0,91.0,-12.0,0
16.0,-252.0,-7.0,0.0,91.0,-13.0,0
17.0,-249.0,-12.0,-2.0,93.0,-11.0,0
16.0,-250.0,-9.0,-6.0,91.0,-11.0,0
16.0,-250.0,-13.0,-9.0,90.0,-10.0,0
15.0,-250.0,-11.0,-11.0,89.0,-11.0,0
16.0,-250.0,-12.0,-8.0,85.0,-10.0,0
16.0,-250.0,-9.0,-6.0,83.0,-11.0,0
16.0,-251.0,-11.0,-3.0,81.0,-9.0,0
16.0,-253.0,-10.0,2.0,79.0,-9.0,0
17.0,-250.0,-5.0,4.0,77.0,-6.0,0
17.0,-250.0,-8.0,4.0,77.0,-7.0,0
11.0,-245.0,-7.0,4.0,79.0,-7.0,0
16.0,-249.0,-6.0,3.0,79.0,-10.0,0
16.0,-250.0,-3.0,3.0,79.0,-11.0,0
17.0,-250.0,-7.0,1.0,79.0,-13.0,0
18.0,-252.0,-9.0,-1.0,79.0,-11.0,0
18.0,-250.0,-10.0,0.0,80.0,-12.0,0
17.0,-249.0,-8.0,0.0,81.0,-12.0,0
18.0,-250.0,-7.0,4.0,80.0,-12.0,0
18.0,-249.0,-7.0,4.0,79.0,-10.0,0
19.0,-249.0,-9.0,3.0,78.0,-10.0,0
18.0,-253.0,-14.0,2.0,77.0,-8.0,0
21.0,-256.0,-5.0,2.0,76.0,-8.0,0
19.0,-248.0,-10.0,-2.0,75.0,-7.0,0
19.0,-249.0,-8.0,-6.0,71.0,-7.0,0
18.0,-248.0,-8.0,-9.0,70.0,-5.0,0
17.0,-249.0,-13.0,-12.0,68.0,-6.0,0
17.0,-249.0,-7.0,-16.0,65.0,-5.0,0
16.0,-249.0,-12.0,-21.0,64.0,-6.0,0
17.0,-247.0,-14.0,-23.0,64.0,-6.0,0
15.0,-247.0,-7.0,-28.0,62.0,-9.0,0
15.0,-252.0,-16.0,-30.0,62.0,-8.0,0
18.0,-247.0,-10.0,-30.0,64.0,-10.0,0
20.0,-249.0,-9.0,-32.0,66.0,-9.0,0
19.0,-253.0,-10.0,-32.0,68.0,-10.0,0
17.0,-250.0,-9.0,-31.0,71.0,-11.0,0
17.0,-253.0,-11.0,-29.0,71.0,-11.0,0
16.0,-252.0,-13.0,-26.0,72.0,-9.0,0
19.0,-249.0,-13.0,-24.0,71.0,-9.0,0
18.0,-250.0,-11.0,-21.0,71.0,-7.0,0
18.0,-251.0,-10.0,-22.0,69.0,-8.0,0
17.0,-253.0,-15.0,-22.0,69.0,-5.0,0
17.0,-252.0,-9.0,-22.0,68.0,-8.0,0
18.0,-252.0,-12.0,-19.0,67.0,-6.0,0
17.0,-253.0,-9.0,-18.0,64.0,-5.0,0
19.0,-252.0,-11.0,-17.0,65.0,-4.0,0
15.0,-252.0,-13.0,-15.0,63.0,-5.0,0
16.0,-250.0,-12.0,-17.0,64.0,-5.0,0
17.0,-252.0,-10.0,-16.0,64.0,-6.0,0
18.0,-251.0,-6.0,-18.0,65.0,-5.0,0
17.0,-251.0,-10.0,-20.0,64.0,-5.0,0
16.0,-250.0,-4.0,-21.0,66.0,-4.0,0
16.0,-250.0,-11.0,-21.0,65.0,-5.0,0
18.0,-250.0,-9.0,-23.0,65.0,-5.0,0
13.0,-253.0,-4.0,-22.0,67.0,-4.0,0
19.0,-254.0,-8.0,-20.0,68.0,-4.0,0
17.0,-253.0,-7.0,-19.0,68.0,-5.0,0
19.0,-250.0,-8.0,-19.0,68.0,-4.0,0
17.0,-252.0,-9.0,-17.0,69.0,-4.0,0
17.0,-250.0,-7.0,-17.0,68.0,-5.0,0
18.0,-249.0,-10.0,-19.0,69.0,-6.0,0
17.0,-249.0,-9.0,-19.0,70.0,-5.0,0
15.0,-248.0,-5.0,-22.0,72.0,-5.0,0
16.0,-250.0,-9.0,-21.0,73.0,-7.0,0
16.0,-251.0,-10.0,-21.0,69.0,-8.0,0
8.0,-250.0,-10.0,-20.0,67.0,-7.0,0
17.0,-250.0,-5.0,-18.0,67.0,-8.0,0
18.0,-250.0,-10.0,-17.0,65.0,-7.0,0
16.0,-250.0,-10.0,-16.0,61.0,-7.0,0
19.0,-251.0,-8.0,-17.0,62.0,-5.0,0
17.0,-250.0,-9.0,-17.0,61.0,-7.0,0
15.0,-249.0,-6.0,-19.0,58.0,-6.0,0
15.0,-253.0,-7.0,-21.0,57.0,-7.0,0
19.0,-252.0,-10.0,-22.0,58.0,-7.0,0
17.0,-252.0,-11.0,-21.0,58.0,-7.0,0
16.0,-251.0,-2.0,-17.0,58.0,-7.0,0
18.0,-246.0,-32.0,-16.0,58.0,-7.0,0
16.0,-250.0,-5.0,-15.0,56.0,-5.0,0
16.0,-252.0,-5.0,-14.0,57.0,-5.0,0
19.0,-252.0,-10.0,-16.0,57.0,-4.0,0
15.0,-254.0,-10.0,-16.0,57.0,-6.0,0
16.0,-255.0,-11.0,-15.0,57.0,-6.0,0
19.0,-252.0,-11.0,-13.0,57.0,-10.0,0
18.0,-251.0,-11.0,-12.0,56.0,-9.0,0
16.0,-247.0,-11.0,-12.0,57.0,-11.0,0
17.0,-251.0,-5.0,-12.0,61.0,-10.0,0
20.0,-249.0,-9.0,-16.0,67.0,-13.0,0
14.0,-235.0,-21.0,-19.0,71.0,-12.0,0
16.0,-249.0,-10.0,-23.0,73.0,-14.0,0
16.0,-251.0,-7.0,-24.0,74.0,-11.0,0
17.0,-251.0,-9.0,-23.0,73.0,-13.0,0
17.0,-248.0,-12.0,-22.0,74.0,-11.0,0
18.0,-249.0,-10.0,-17.0,74.0,-12.0,0
17.0,-250.0,-11.0,-15.0,74.0,-12.0,0
19.0,-250.0,-14.0,-15.0,76.0,-12.0,0
20.0,-252.0,-16.0,-18.0,79.0,-12.0,0
17.0,-248.0,-10.0,-20.0,80.0,-14.0,0
16.0,-250.0,-11.0,-22.0,83.0,-13.0,0
27.0,-236.0,-33.0,-22.0,83.0,-14.0,0
17.0,-249.0,-7.0,-22.0,83.0,-13.0,0
17.0,-251.0,-12.0,-19.0,81.0,-12.0,0
17.0,-251.0,-8.0,-14.0,78.0,-8.0,0
14.0,-251.0,-6.0,-12.0,76.0,-9.0,0
14.0,-250.0,-10.0,-11.0,74.0,-6.0,0
13.0,-250.0,-7.0,-9.0,72.0,-5.0,0
14.0,-249.0,-10.0,-9.0,71.0,-4.0,0
17.0,-252.0,-10.0,-12.0,72.0,-7.0,0
13.0,-252.0,-7.0,-15.0,73.0,-7.0,0
19.0,-250.0,-10.0,-18.0,75.0,-10.0,0
19.0,-262.0,-6.0,-20.0,75.0,-10.0,0
16.0,-253.0,-10.0,-21.0,76.0,-13.0,0
16.0,-253.0,-9.0,-20.0,77.0,-14.0,0
16.0,-252.0,-11.0,-18.0,78.0,-15.0,0
16.0,-253.0,-10.0,-14.0,77.0,-12.0,0
15.0,-254.0,-6.0,-11.0,77.0,-13.0,0
17.0,-250.0,-8.0,-6.0,77.0,-12.0,0
15.0,-254.0,-14.0,-3.0,75.0,-12.0,0
13.0,-248.0,-7.0,-4.0,73.0,-10.0,0
16.0,-250.0,-6.0,-7.0,70.0,-10.0,0
16.0,-252.0,-12.0,-10.0,68.0,-9.0,0
8.0,-249.0,-18.0,-12.0,65.0,-9.0,0
15.0,-249.0,-11.0,-12.0,61.0,-6.0,0
15.0,-254.0,-8.0,-10.0,57.0,-8.0,0
14.0,-250.0,-8.0,-7.0,53.0,-5.0,0
14.0,-252.0,-7.0,-3.0,48.0,-5.0,0
15.0,-251.0,-9.0,3.0,46.0,-5.0,0
15.0,-250.0,-9.0,7.0,42.0,-6.0,0
18.0,-251.0,-10.0,7.0,42.0,-5.0,0
17.0,-254.0,-7.0,5.0,41.0,-7.0,0
17.0,-254.0,-13.0,3.0,41.0,-5.0,0
14.0,-251.0,-10.0,1.0,38.0,-7.0,0
16.0,-240.0,-21.0,1.0,34.0,-6.0,0
16.0,-249.0,-11.0,1.0,32.0,-9.0,0
15.0,-250.0,-11.0,3.0,31.0,-8.0,0
18.0,-252.0,-8.0,9.0,30.0,-10.0,0
17.0,-250.0,-6.0,14.0,32.0,-9.0,0
17.0,-254.0,-7.0,21.0,32.0,-10.0,0
17.0,-252.0,-9.0,25.0,34.0,-9.0,0
19.0,-252.0,-6.0,30.0,37.0,-9.0,0
16.0,-250.0,-9.0,31.0,39.0,-8.0,0
15.0,-248.0,-9.0,29.0,40.0,-10.0,0
18.0,-242.0,-13.0,23.0,39.0,-8.0,0
20.0,-252.0,1.0,16.0,35.0,-10.0,0
18.0,-251.0,-11.0,8.0,34.0,-9.0,0
16.0,-251.0,-12.0,1.0,31.0,-11.0,0
19.0,-250.0,-12.0,-4.0,25.0,-11.0,0
17.0,-251.0,-9.0,-9.0,24.0,-13.0,0
18.0,-252.0,-7.0,-10.0,24.0,-14.0,0
19.0,-250.0,-10.0,-7.0,22.0,-15.0,0
17.0,-251.0,-8.0,-2.0,21.0,-13.0,0
20.0,-253.0,-6.0,4.0,21.0,-15.0,0
17.0,-254.0,-4.0,11.0,22.0,-13.0,0
21.0,-251.0,-15.0,19.0,21.0,-13.0,0
14.0,-250.0,-4.0,28.0,22.0,-10.0,0
14.0,-253.0,-4.0,37.0,21.0,-10.0,0
16.0,-253.0,-6.0,47.0,19.0,-7.0,0
18.0,-252.0,-1.0,62.0,17.0,-6.0,0
18.0,-254.0,-4.0,75.0,11.0,-5.0,0
16.0,-253.0,-4.0,87.0,7.0,-6.0,0
14.0,-250.0,-3.0,100.0,6.0,-6.0,0
17.0,-251.0,-4.0,111.0,5.0,-8.0,0
16.0,-252.0,-6.0,119.0,2.0,-6.0,0
16.0,-251.0,-4.0,126.0,0.0,-9.0,0
21.0,-254.0,4.0,130.0,0.0,-7.0,0
7.0,-253.0,-1.0,128.0,-2.0,-7.0,0
17.0,-245.0,-8.0,122.0,-7.0,-5.0,0
19.0,-249.0,-8.0,109.0,-13.0,-3.0,0
16.0,-248.0,-9.0,94.0,-19.0,0.0,0
17.0,-250.0,-5.0,78.0,-22.0,2.0,0
18.0,-253.0,-9.0,67.0,-25.0,4.0,0
19.0,-257.0,-3.0,68.0,-24.0,3.0,0
18.0,-258.0,2.0,81.0,-19.0,3.0,0
13.0,-256.0,2.0,102.0,-10.0,-1.0,0
19.0,-255.0,-1.0,125.0,-2.0,-1.0,0
23.0,-260.0,7.0,140.0,5.0,-7.0,0
21.0,-251.0,-4.0,146.0,8.0,-8.0,0
23.0,-247.0,-5.0,141.0,8.0,-12.0,0
22.0,-247.0,-3.0,126.0,7.0,-12.0,0
22.0,-246.0,-5.0,112.0,7.0,-14.0,0
26.0,-247.0,-8.0,102.0,6.0,-12.0,0
26.0,-247.0,-4.0,97.0,5.0,-12.0,0
25.0,-246.0,-3.0,99.0,6.0,-11.0,0
23.0,-249.0,-4.0,104.0,10.0,-11.0,0
23.0,-247.0,-8.0,107.0,15.0,-9.0,0
22.0,-247.0,-11.0,106.0,21.0,-11.0,0
34.0,-247.0,-9.0,93.0,25.0,-10.0,0
21.0,-245.0,-9.0,76.0,30.0,-11.0,0
21.0,-247.0,-6.0,56.0,38.0,-10.0,0
21.0,-252.0,-5.0,45.0,43.0,-10.0,0
18.0,-251.0,-1.0,42.0,46.0,-10.0,0
20.0,-252.0,0.0,44.0,49.0,-12.0,0
18.0,-252.0,2.0,47.0,52.0,-12.0,0
17.0,-251.0,0.0,48.0,55.0,-15.0,0
17.0,-251.0,1.0,51.0,56.0,-12.0,0
17.0,-251.0,1.0,48.0,53.0,-14.0,0
17.0,-246.0,3.0,45.0,51.0,-12.0,0
8.0,-251.0,19.0,39.0,47.0,-13.0,0
16.0,-247.0,1.0,28.0,40.0,-7.0,0
16.0,-244.0,-1.0,15.0,36.0,-6.0,0
14.0,-247.0,2.0,0.0,28.0,-3.0,0
14.0,-246.0,-3.0,-13.0,24.0,1.0,0
17.0,-251.0,0.0,-22.0,18.0,8.0,0
14.0,-250.0,0.0,-28.0,11.0,11.0,0
12.0,-247.0,-1.0,-30.0,3.0,16.0,0
11.0,-251.0,2.0,-32.0,-6.0,19.0,0
13.0,-249.0,-4.0,-34.0,-15.0,24.0,0
8.0,-250.0,-3.0,-37.0,-23.0,25.0,0
-2.0,-249.0,3.0,-44.0,-35.0,31.0,0
12.0,-246.0,-2.0,-51.0,-44.0,32.0,0
12.0,-247.0,-8.0,-60.0,-49.0,34.0,0
8.0,-243.0,-6.0,-73.0,-56.0,33.0,0
10.0,-246.0,-7.0,-84.0,-60.0,32.0,0
12.0,-247.0,-2.0,-96.0,-63.0,28.0,0
14.0,-251.0,-8.0,-105.0,-67.0,25.0,0
14.0,-247.0,-3.0,-113.0,-69.0,20.0,0
14.0,-253.0,-2.0,-115.0,-72.0,20.0,0
19.0,-249.0,-7.0,-115.0,-72.0,15.0,0
16.0,-249.0,-12.0,-116.0,-75.0,15.0,0
25.0,-258.0,-1.0,-121.0,-78.0,15.0,0
21.0,-251.0,-9.0,-125.0,-81.0,20.0,0
22.0,-249.0,-10.0,-130.0,-85.0,22.0,0
21.0,-251.0,-13.0,-133.0,-88.0,29.0,0
24.0,-252.0,-5.0,-134.0,-90.0,32.0,0
24.0,-255.0,-7.0,-132.0,-89.0,37.0,0
25.0,-254.0,-9.0,-132.0,-91.0,38.0,0
19.0,-254.0,-7.0,-131.0,-95.0,41.0,0
22.0,-252.0,-11.0,-130.0,-103.0,41.0,0
18.0,-248.0,-5.0,-130.0,-109.0,45.0,0
17.0,-251.0,-6.0,-130.0,-116.0,46.0,0
8.0,-247.0,-18.0,-134.0,-120.0,48.0,0
16.0,-252.0,-3.0,-137.0,-125.0,50.0,0
15.0,-251.0,-4.0,-139.0,-132.0,57.0,0
14.0,-251.0,-3.0,-141.0,-140.0,61.0,0
14.0,-252.0,-1.0,-142.0,-148.0,69.0,0
14.0,-253.0,-3.0,-141.0,-159.0,75.0,0
13.0,-251.0,-3.0,-140.0,-164.0,82.0,0
15.0,-255.0,1.0,-139.0,-171.0,87.0,0
16.0,-253.0,-3.0,-135.0,-176.0,93.0,0
14.0,-254.0,2.0,-128.0,-183.0,97.0,0
11.0,-251.0,0.0,-123.0,-189.0,103.0,0
-1.0,-258.0,1.0,-115.0,-195.0,107.0,0
13.0,-254.0,2.0,-105.0,-205.0,115.0,0
12.0,-255.0,1.0,-93.0,-217.0,122.0,0
10.0,-253.0,3.0,-84.0,-229.0,131.0,0
8.0,-253.0,1.0,-72.0,-244.0,138.0,0
10.0,-252.0,-2.0,-61.0,-258.0,149.0,0
8.0,-253.0,-1.0,-52.0,-274.0,154.0,0
8.0,-254.0,5.0,-48.0,-287.0,163.0,0
15.0,-253.0,2.0,-47.0,-302.0,171.0,0
9.0,-251.0,0.0,-45.0,-314.0,179.0,0
6.0,-251.0,2.0,-47.0,-328.0,184.0,0
6.0,-240.0,1.0,-52.0,-339.0,191.0,0
8.0,-251.0,-2.0,-57.0,-351.0,196.0,0
11.0,-247.0,3.0,-60.0,-362.0,201.0,0
10.0,-247.0,0.0,-62.0,-372.0,202.0,0
10.0,-246.0,0.0,-62.0,-381.0,204.0,0
11.0,-249.0,-3.0,-60.0,-392.0,202.0,0
11.0,-248.0,-1.0,-58.0,-400.0,204.0,0
7.0,-248.0,-4.0,-53.0,-406.0,202.0,0
11.0,-249.0,-3.0,-52.0,-416.0,205.0,0
10.0,-248.0,-6.0,-51.0,-426.0,205.0,0
14.0,-255.0,-10.0,-54.0,-438.0,210.0,0
10.0,-249.0,-13.0,-58.0,-451.0,212.0,0
7.0,-249.0,-15.0,-64.0,-465.0,219.0,0
8.0,-253.0,-13.0,-70.0,-478.0,224.0,0
7.0,-249.0,-13.0,-73.0,-492.0,233.0,0
9.0,-252.0,-16.0,-74.0,-505.0,240.0,0
6.0,-249.0,-17.0,-75.0,-517.0,250.0,0
9.0,-251.0,-9.0,-74.0,-530.0,261.0,0
8.0,-253.0,-14.0,-70.0,-543.0,274.0,0
9.0,-255.0,-17.0,-66.0,-554.0,286.0,0
14.0,-254.0,-10.0,-58.0,-564.0,298.0,0
7.0,-244.0,-23.0,-48.0,-574.0,308.0,0
13.0,-254.0,-15.0,-39.0,-578.0,318.0,0
12.0,-256.0,-14.0,-32.0,-580.0,325.0,0
11.0,-258.0,-14.0,-26.0,-585.0,336.0,0
13.0,-259.0,-13.0,-20.0,-591.0,341.0,0
8.0,-262.0,-16.0,-14.0,-600.0,350.0,0
6.0,-256.0,-16.0,-6.0,-611.0,355.0,0
6.0,-256.0,-17.0,3.0,-628.0,365.0,0
6.0,-260.0,-15.0,9.0,-644.0,375.0,0
1.0,-258.0,-27.0,14.0,-663.0,385.0,0
4.0,-266.0,-23.0,15.0,-680.0,393.0,0
-5.0,-261.0,-13.0,15.0,-703.0,403.0,0
-7.0,-259.0,-26.0,14.0,-729.0,410.0,0
-9.0,-259.0,-30.0,17.0,-758.0,423.0,0
-13.0,-258.0,-29.0,21.0,-787.0,430.0,0
-13.0,-254.0,-31.0,21.0,-816.0,438.0,0
-15.0,-255.0,-28.0,15.0,-840.0,450.0,0
-15.0,-253.0,-37.0,-1.0,-863.0,479.0,0
-17.0,-249.0,-36.0,-20.0,-881.0,488.0,0
-13.0,-246.0,-33.0,-32.0,-893.0,484.0,0
-13.0,-242.0,-35.0,-33.0,-896.0,468.0,0
-14.0,-238.0,-34.0,-27.0,-889.0,440.0,0
1.0,-228.0,-35.0,-13.0,-871.0,400.0,0
-7.0,-227.0,-31.0,2.0,-846.0,365.0,0
-4.0,-228.0,-22.0,3.0,-827.0,339.0,0
4.0,-229.0,-19.0,-2.0,-817.0,316.0,0
10.0,-230.0,-21.0,-7.0,-807.0,289.0,0
14.0,-223.0,-11.0,-12.0,-790.0,256.0,0
14.0,-226.0,-10.0,-13.0,-754.0,235.0,0
20.0,-229.0,-10.0,-23.0,-714.0,223.0,0
23.0,-243.0,-3.0,-42.0,-672.0,212.0,0
20.0,-245.0,-5.0,-57.0,-632.0,202.0,0
11.0,-247.0,-9.0,-64.0,-585.0,199.0,0
12.0,-261.0,-21.0,-83.0,-540.0,212.0,0
2.0,-269.0,-5.0,-128.0,-503.0,233.0,0
2.0,-273.0,-1.0,-171.0,-475.0,254.0,0
-7.0,-277.0,0.0,-185.0,-453.0,269.0,0
-14.0,-280.0,1.0,-191.0,-431.0,292.0,0
-21.0,-282.0,0.0,-186.0,-416.0,309.0,0
-25.0,-285.0,-6.0,-170.0,-413.0,328.0,0
-31.0,-279.0,-10.0,-148.0,-416.0,336.0,0
-27.0,-280.0,-12.0,-122.0,-411.0,338.0,0
-30.0,-278.0,-9.0,-103.0,-393.0,334.0,0
-28.0,-271.0,-2.0,-75.0,-367.0,327.0,0
-26.0,-282.0,-15.0,-30.0,-345.0,310.0,0
-20.0,-274.0,-6.0,7.0,-319.0,297.0,0
-16.0,-273.0,-11.0,40.0,-306.0,277.0,0
-19.0,-269.0,-12.0,63.0,-301.0,261.0,0
-21.0,-263.0,-12.0,87.0,-304.0,249.0,0
-23.0,-258.0,-15.0,117.0,-315.0,247.0,0
-20.0,-255.0,-21.0,133.0,-325.0,245.0,0
-21.0,-254.0,-18.0,127.0,-337.0,251.0,0
-23.0,-249.0,-16.0,118.0,-346.0,262.0,0
-31.0,-251.0,-16.0,118.0,-352.0,273.0,0
-26.0,-239.0,-29.0,123.0,-363.0,281.0,0
-31.0,-248.0,-7.0,138.0,-368.0,287.0,0
-28.0,-251.0,-1.0,157.0,-364.0,298.0,0
-31.0,-247.0,6.0,180.0,-359.0,313.0,0
-30.0,-249.0,2.0,207.0,-351.0,326.0,0
-30.0,-248.0,3.0,234.0,-341.0,340.0,0
-29.0,-249.0,8.0,238.0,-339.0,354.0,0
-33.0,-252.0,1.0,232.0,-327.0,370.0,0
-31.0,-249.0,8.0,212.0,-311.0,376.0,0
-37.0,-242.0,8.0,199.0,-293.0,386.0,0
-32.0,-248.0,11.0,204.0,-280.0,395.0,0
-39.0,-242.0,7.0,203.0,-270.0,403.0,0
-44.0,-239.0,15.0,207.0,-265.0,407.0,0
-45.0,-241.0,16.0,219.0,-262.0,411.0,0
-47.0,-240.0,19.0,229.0,-262.0,412.0,0
-48.0,-242.0,21.0,236.0,-271.0,410.0,0
-47.0,-243.0,14.0,239.0,-279.0,408.0,0
-49.0,-240.0,16.0,235.0,-285.0,416.0,0
-48.0,-240.0,16.0,238.0,-291.0,420.0,0
-47.0,-241.0,8.0,233.0,-296.0,423.0,0
-50.0,-244.0,12.0,220.0,-304.0,416.0,0
-51.0,-240.0,10.0,205.0,-306.0,408.0,0
-59.0,-243.0,22.0,196.0,-307.0,400.0,0
-47.0,-245.0,14.0,189.0,-311.0,397.0,0
-53.0,-247.0,14.0,194.0,-311.0,395.0,0
-47.0,-251.0,17.0,199.0,-314.0,405.0,0
-48.0,-252.0,16.0,201.0,-318.0,403.0,0
-45.0,-255.0,22.0,204.0,-322.0,405.0,0
-48.0,-252.0,21.0,204.0,-319.0,405.0,0
-41.0,-255.0,21.0,217.0,-318.0,415.0,0
-41.0,-252.0,20.0,234.0,-320.0,427.0,0
-35.0,-254.0,18.0,245.0,-314.0,444.0,0
-38.0,-253.0,19.0,250.0,-311.0,450.0,0
-42.0,-245.0,12.0,255.0,-304.0,455.0,0
-46.0,-244.0,17.0,251.0,-304.0,449.0,0
-40.0,-243.0,20.0,249.0,-305.0,440.0,0
-40.0,-239.0,18.0,251.0,-304.0,429.0,0
-38.0,-238.0,18.0,259.0,-299.0,419.0,0
-37.0,-234.0,14.0,275.0,-292.0,403.0,0
-33.0,-227.0,18.0,292.0,-286.0,384.0,0
-36.0,-223.0,16.0,318.0,-281.0,360.0,0
-34.0,-221.0,14.0,333.0,-275.0,339.0,0
-41.0,-216.0,17.0,337.0,-269.0,316.0,0
-41.0,-214.0,15.0,351.0,-264.0,299.0,0
-48.0,-204.0,23.0,353.0,-260.0,280.0,0
-48.0,-206.0,13.0,352.0,-254.0,262.0,0
-54.0,-204.0,15.0,338.0,-248.0,251.0,0
-51.0,-205.0,11.0,317.0,-245.0,239.0,0
-57.0,-209.0,20.0,291.0,-246.0,226.0,0
-63.0,-211.0,20.0,260.0,-250.0,212.0,0
-63.0,-212.0,23.0,230.0,-260.0,198.0,0
-65.0,-217.0,27.0,204.0,-270.0,191.0,0
-65.0,-222.0,30.0,180.0,-283.0,183.0,0
-58.0,-228.0,33.0,160.0,-292.0,174.0,0
-45.0,-233.0,36.0,143.0,-292.0,152.0,0
-35.0,-248.0,49.0,129.0,-282.0,112.0,0
-17.0,-238.0,40.0,125.0,-250.0,62.0,0
-14.0,-234.0,41.0,139.0,-199.0,10.0,0
-6.0,-224.0,38.0,167.0,-140.0,-54.0,0
-4.0,-214.0,30.0,201.0,-79.0,-117.0,0
-4.0,-203.0,24.0,221.0,-9.0,-174.0,0
-7.0,-189.0,23.0,214.0,62.0,-216.0,0
-10.0,-188.0,19.0,176.0,131.0,-248.0,0
-15.0,-185.0,20.0,112.0,200.0,-265.0,0
-15.0,-191.0,18.0,22.0,264.0,-273.0,0
-20.0,-198.0,22.0,-82.0,318.0,-266.0,0
-21.0,-203.0,22.0,-191.0,359.0,-246.0,0
-47.0,-217.0,36.0,-314.0,360.0,-211.0,0
-57.0,-229.0,36.0,-394.0,325.0,-164.0,0
-69.0,-235.0,37.0,-444.0,259.0,-101.0,0
-85.0,-239.0,35.0,-461.0,169.0,-32.0,0
-98.0,-240.0,27.0,-456.0,65.0,49.0,0
-103.0,-243.0,18.0,-442.0,-50.0,121.0,0
-104.0,-241.0,14.0,-439.0,-153.0,177.0,0
-102.0,-240.0,0.0,-461.0,-223.0,206.0,0
-83.0,-247.0,-1.0,-513.0,-264.0,219.0,0
-71.0,-255.0,1.0,-588.0,-271.0,214.0,0
-35.0,-285.0,3.0,-675.0,-238.0,202.0,0
-30.0,-283.0,4.0,-725.0,-175.0,181.0,0
-20.0,-296.0,0.0,-750.0,-94.0,150.0,0
-10.0,-304.0,3.0,-749.0,-10.0,107.0,0
-12.0,-308.0,4.0,-725.0,71.0,66.0,0
-9.0,-312.0,-1.0,-682.0,146.0,24.0,0
-13.0,-312.0,1.0,-629.0,213.0,-1.0,0
-15.0,-305.0,-2.0,-584.0,276.0,-18.0,0
-23.0,-301.0,1.0,-551.0,352.0,-8.0,0
-27.0,-299.0,1.0,-536.0,441.0,6.0,0
-26.0,-288.0,-7.0,-531.0,557.0,27.0,0
-17.0,-288.0,-4.0,-517.0,660.0,53.0,0
-25.0,-284.0,-18.0,-482.0,750.0,94.0,0
-27.0,-279.0,-51.0,-445.0,793.0,144.0,0
-35.0,-267.0,-83.0,-428.0,788.0,212.0,0
-41.0,-248.0,-102.0,-436.0,744.0,285.0,0
-37.0,-232.0,-114.0,-451.0,697.0,352.0,0
-33.0,-219.0,-119.0,-454.0,685.0,408.0,0
-38.0,-214.0,-113.0,-431.0,714.0,455.0,0
-51.0,-218.0,-108.0,-394.0,759.0,486.0,0
-61.0,-215.0,-102.0,-362.0,794.0,504.0,0
-74.0,-233.0,-91.0,-358.0,794.0,518.0,0
-88.0,-236.0,-84.0,-355.0,784.0,534.0,0
-104.0,-255.0,-70.0,-321.0,768.0,545.0,0
-117.0,-269.0,-59.0,-243.0,749.0,555.0,0
-124.0,-288.0,-54.0,-126.0,739.0,549.0,0
-125.0,-295.0,-45.0,17.0,743.0,530.0,0
-133.0,-304.0,-38.0,173.0,762.0,491.0,0
-144.0,-300.0,-40.0,317.0,782.0,439.0,0
-153.0,-291.0,-46.0,424.0,779.0,374.0,0
-166.0,-277.0,-53.0,484.0,721.0,298.0,0
-160.0,-257.0,-56.0,491.0,646.0,248.0,0
-159.0,-230.0,-59.0,455.0,558.0,210.0,0
-153.0,-222.0,-48.0,405.0,466.0,178.0,0
-136.0,-203.0,-42.0,361.0,383.0,160.0,0
-116.0,-188.0,-31.0,327.0,313.0,147.0,0
-90.0,-176.0,-17.0,297.0,255.0,144.0,0
-73.0,-166.0,-7.0,267.0,205.0,143.0,0
-53.0,-157.0,-2.0,229.0,159.0,157.0,0
-36.0,-152.0,4.0,176.0,116.0,175.0,0
-28.0,-152.0,5.0,114.0,75.0,211.0,0
-21.0,-145.0,4.0,25.0,40.0,241.0,0
-16.0,-149.0,10.0,-57.0,26.0,278.0,0
-12.0,-156.0,10.0,-130.0,24.0,307.0,0
-26.0,-148.0,5.0,-184.0,23.0,336.0,0
-39.0,-148.0,2.0,-226.0,13.0,365.0,0
-50.0,-143.0,1.0,-254.0,-3.0,400.0,0
-59.0,-139.0,3.0,-267.0,-8.0,431.0,0
-70.0,-140.0,1.0,-261.0,1.0,458.0,0
-79.0,-132.0,9.0,-234.0,16.0,472.0,0
-85.0,-127.0,13.0,-181.0,31.0,465.0,0
-85.0,-127.0,19.0,-94.0,53.0,440.0,0
-87.0,-125.0,30.0,-16.0,72.0,400.0,0
-91.0,-128.0,33.0,49.0,91.0,349.0,0
-107.0,-144.0,54.0,85.0,111.0,296.0,0
-118.0,-145.0,59.0,96.0,127.0,233.0,0
-134.0,-153.0,66.0,79.0,125.0,168.0,0
-147.0,-165.0,66.0,44.0,109.0,114.0,0
-173.0,-172.0,65.0,-1.0,81.0,77.0,0
-193.0,-178.0,54.0,-52.0,36.0,53.0,0
-220.0,-181.0,42.0,-103.0,-21.0,47.0,0
-244.0,-188.0,28.0,-159.0,-104.0,61.0,0
-263.0,-197.0,5.0,-227.0,-177.0,97.0,0
-271.0,-208.0,-4.0,-292.0,-248.0,146.0,0
-280.0,-223.0,-32.0,-372.0,-304.0,205.0,0
-240.0,-243.0,-52.0,-476.0,-326.0,257.0,0
-193.0,-258.0,-69.0,-622.0,-292.0,286.0,0
-125.0,-276.0,-79.0,-812.0,-195.0,264.0,0
-57.0,-292.0,-62.0,-1013.0,-57.0,173.0,0
-14.0,-298.0,-38.0,-1164.0,85.0,43.0,0
10.0,-311.0,2.0,-1190.0,186.0,-74.0,0
13.0,-307.0,26.0,-1070.0,217.0,-163.0,0
10.0,-305.0,58.0,-755.0,196.0,-180.0,0
-2.0,-296.0,67.0,-402.0,166.0,-154.0,0
-8.0,-272.0,67.0,-29.0,155.0,-72.0,0
-16.0,-250.0,45.0,289.0,170.0,36.0,0
-36.0,-222.0,25.0,485.0,216.0,163.0,0
-50.0,-200.0,4.0,555.0,279.0,277.0,0
-63.0,-184.0,-5.0,515.0,349.0,386.0,0
-70.0,-181.0,-11.0,400.0,424.0,480.0,0
-80.0,-181.0,-13.0,255.0,490.0,554.0,0
-92.0,-184.0,-14.0,110.0,542.0,611.0,0
-103.0,-188.0,-13.0,-45.0,589.0,639.0,0
-115.0,-196.0,-10.0,-138.0,614.0,656.0,0
-130.0,-200.0,-15.0,-199.0,622.0,660.0,0
-150.0,-204.0,-30.0,-231.0,619.0,658.0,0
-146.0,-200.0,-44.0,-245.0,617.0,654.0,0
-149.0,-204.0,-39.0,-259.0,615.0,648.0,0
-144.0,-210.0,-48.0,-279.0,609.0,649.0,0
-140.0,-218.0,-40.0,-302.0,612.0,650.0,0
-129.0,-228.0,-41.0,-314.0,635.0,640.0,0
-121.0,-239.0,-32.0,-320.0,665.0,621.0,0
-114.0,-248.0,-29.0,-298.0,700.0,597.0,0
-103.0,-255.0,-26.0,-248.0,723.0,581.0,0
-98.0,-255.0,-26.0,-198.0,744.0,572.0,0
-83.0,-257.0,-23.0,-146.0,764.0,578.0,0
-84.0,-249.0,-30.0,-88.0,788.0,589.0,0
-86.0,-245.0,-29.0,-45.0,811.0,602.0,0
-85.0,-235.0,-32.0,-25.0,824.0,618.0,0
-88.0,-236.0,-36.0,-23.0,835.0,640.0,0
-96.0,-233.0,-42.0,-46.0,840.0,666.0,0
-101.0,-233.0,-39.0,-85.0,840.0,689.0,0
-102.0,-231.0,-39.0,-127.0,835.0,718.0,0
-100.0,-238.0,-47.0,-178.0,839.0,739.0,0
-91.0,-236.0,-51.0,-223.0,864.0,739.0,0
-85.0,-240.0,-58.0,-256.0,911.0,714.0,0
-82.0,-237.0,-57.0,-282.0,968.0,676.0,0
-71.0,-237.0,-63.0,-302.0,1020.0,629.0,0
-71.0,-232.0,-72.0,-319.0,1066.0,571.0,0
-62.0,-246.0,-57.0,-323.0,1107.0,507.0,0
-60.0,-242.0,-67.0,-321.0,1138.0,448.0,0
-61.0,-243.0,-67.0,-324.0,1165.0,397.0,0
-55.0,-249.0,-72.0,-334.0,1191.0,348.0,0
-58.0,-241.0,-61.0,-352.0,1220.0,321.0,0
-58.0,-255.0,-75.0,-334.0,1238.0,320.0,0
-56.0,-267.0,-68.0,-364.0,1255.0,325.0,0
-64.0,-266.0,-68.0,-390.0,1270.0,311.0,0
-75.0,-267.0,-66.0,-380.0,1281.0,293.0,0
-80.0,-258.0,-58.0,-331.0,1277.0,296.0,0
-98.0,-263.0,-84.0,-243.0,1263.0,309.0,0
-101.0,-267.0,-72.0,-191.0,1252.0,335.0,0
-109.0,-263.0,-67.0,-160.0,1236.0,347.0,0
-121.0,-261.0,-64.0,-108.0,1212.0,348.0,0
-125.0,-258.0,-68.0,-28.0,1180.0,344.0,0
-125.0,-254.0,-68.0,47.0,1163.0,339.0,0
-126.0,-246.0,-66.0,111.0,1159.0,328.0,0
-121.0,-240.0,-58.0,172.0,1158.0,313.0,0
-130.0,-234.0,-70.0,237.0,1149.0,293.0,0
-119.0,-242.0,-64.0,253.0,1145.0,281.0,0
-107.0,-239.0,-61.0,235.0,1149.0,247.0,0
-109.0,-231.0,-55.0,222.0,1151.0,199.0,0
-105.0,-227.0,-59.0,206.0,1142.0,154.0,0
-92.0,-213.0,-60.0,183.0,1138.0,128.0,0
-95.0,-217.0,-67.0,162.0,1133.0,98.0,0
-88.0,-222.0,-75.0,85.0,1150.0,90.0,0
-79.0,-225.0,-68.0,10.0,1174.0,75.0,0
-81.0,-228.0,-65.0,-59.0,1198.0,64.0,0
-70.0,-219.0,-60.0,-119.0,1213.0,55.0,0
-82.0,-229.0,-77.0,-137.0,1203.0,44.0,0
-84.0,-245.0,-73.0,-173.0,1190.0,52.0,0
-86.0,-239.0,-65.0,-229.0,1174.0,81.0,0
-87.0,-250.0,-60.0,-253.0,1133.0,105.0,0
-91.0,-255.0,-63.0,-234.0,1081.0,118.0,0
-94.0,-251.0,-61.0,-194.0,1026.0,135.0,0
-97.0,-252.0,-59.0,-115.0,999.0,150.0,0
-100.0,-246.0,-58.0,-36.0,986.0,154.0,0
-86.0,-234.0,-53.0,62.0,983.0,152.0,0
-105.0,-244.0,-67.0,161.0,989.0,136.0,0
-112.0,-246.0,-69.0,202.0,1028.0,136.0,0
-103.0,-239.0,-65.0,223.0,1058.0,100.0,0
-106.0,-235.0,-65.0,253.0,1078.0,43.0,0
-105.0,-224.0,-71.0,286.0,1086.0,-12.0,0
-112.0,-229.0,-70.0,300.0,1095.0,-51.0,0
-100.0,-224.0,-84.0,291.0,1099.0,-96.0,0
-107.0,-228.0,-79.0,252.0,1088.0,-132.0,0
-113.0,-229.0,-78.0,218.0,1066.0,-158.0,0
-106.0,-219.0,-70.0,188.0,1036.0,-173.0,0
-117.0,-228.0,-92.0,184.0,986.0,-204.0,0
-119.0,-243.0,-94.0,146.0,952.0,-214.0,0
-117.0,-241.0,-86.0,104.0,925.0,-232.0,0
-114.0,-240.0,-91.0,94.0,885.0,-265.0,0
-108.0,-239.0,-93.0,108.0,845.0,-296.0,0
-120.0,-250.0,-89.0,135.0,812.0,-319.0,0
-95.0,-239.0,-100.0,160.0,786.0,-347.0,0
-88.0,-241.0,-97.0,195.0,780.0,-366.0,0
-79.0,-236.0,-96.0,232.0,784.0,-387.0,0
-67.0,-236.0,-93.0,279.0,796.0,-398.0,0
-64.0,-232.0,-89.0,331.0,805.0,-411.0,0
-60.0,-228.0,-96.0,381.0,814.0,-419.0,0
-60.0,-220.0,-87.0,415.0,827.0,-422.0,0
-56.0,-210.0,-92.0,442.0,840.0,-422.0,0
-52.0,-199.0,-95.0,454.0,849.0,-426.0,0
-60.0,-193.0,-98.0,453.0,856.0,-430.0,0
-51.0,-194.0,-84.0,431.0,864.0,-454.0,0
-56.0,-188.0,-102.0,375.0,861.0,-471.0,0
-57.0,-190.0,-109.0,323.0,870.0,-471.0,0
-59.0,-192.0,-110.0,263.0,879.0,-471.0,0
-59.0,-193.0,-108.0,202.0,888.0,-489.0,0
-67.0,-202.0,-113.0,138.0,889.0,-506.0,0
-67.0,-216.0,-113.0,79.0,885.0,-512.0,0
-60.0,-221.0,-117.0,34.0,851.0,-517.0,0
-40.0,-204.0,-107.0,15.0,824.0,-526.0,0
-58.0,-238.0,-135.0,58.0,783.0,-543.0,0
-58.0,-242.0,-142.0,45.0,769.0,-512.0,0
-58.0,-253.0,-120.0,12.0,737.0,-469.0,0
-44.0,-249.0,-127.0,29.0,676.0,-439.0,0
-43.0,-249.0,-123.0,67.0,614.0,-420.0,0
-35.0,-245.0,-124.0,122.0,560.0,-407.0,0
-34.0,-241.0,-120.0,179.0,518.0,-394.0,0
-35.0,-237.0,-114.0,233.0,482.0,-386.0,0
-40.0,-231.0,-115.0,269.0,454.0,-376.0,0
-47.0,-231.0,-109.0,282.0,423.0,-376.0,0
-38.0,-223.0,-103.0,275.0,392.0,-351.0,0
-60.0,-220.0,-103.0,262.0,357.0,-363.0,0
-62.0,-222.0,-98.0,256.0,312.0,-380.0,0
-64.0,-216.0,-100.0,235.0,268.0,-389.0,0
-57.0,-217.0,-103.0,219.0,227.0,-419.0,0
-73.0,-223.0,-106.0,188.0,204.0,-428.0,0
-65.0,-225.0,-107.0,140.0,188.0,-401.0,0
-58.0,-232.0,-105.0,97.0,154.0,-382.0,0
-53.0,-236.0,-101.0,68.0,133.0,-381.0,0
-47.0,-238.0,-100.0,56.0,106.0,-385.0,0
-40.0,-245.0,-95.0,63.0,72.0,-390.0,0
-38.0,-251.0,-105.0,84.0,38.0,-405.0,0
-28.0,-252.0,-87.0,111.0,2.0,-438.0,0
-31.0,-252.0,-83.0,169.0,-27.0,-484.0,0
-33.0,-249.0,-97.0,224.0,-46.0,-513.0,0
-30.0,-256.0,-85.0,272.0,-57.0,-514.0,0
-28.0,-251.0,-79.0,317.0,-68.0,-519.0,0
-22.0,-253.0,-73.0,358.0,-71.0,-530.0,0
-22.0,-253.0,-60.0,394.0,-74.0,-549.0,0
-19.0,-256.0,-51.0,430.0,-81.0,-571.0,0
-17.0,-257.0,-43.0,466.0,-85.0,-592.0,0
-6.0,-261.0,-39.0,497.0,-98.0,-625.0,0
-18.0,-264.0,-36.0,515.0,-119.0,-696.0,0
-21.0,-262.0,-33.0,488.0,-121.0,-718.0,0
-13.0,-272.0,-33.0,464.0,-114.0,-707.0,0
-8.0,-269.0,-25.0,444.0,-100.0,-707.0,0
-7.0,-272.0,-26.0,440.0,-72.0,-716.0,0
1.0,-276.0,-22.0,447.0,-56.0,-735.0,0
-11.0,-278.0,-25.0,461.0,-61.0,-764.0,0
-7.0,-282.0,-24.0,461.0,-67.0,-775.0,0
-9.0,-275.0,-21.0,442.0,-71.0,-763.0,0
0.0,-276.0,-22.0,447.0,-69.0,-782.0,0
-23.0,-275.0,-34.0,459.0,-76.0,-819.0,0
-24.0,-277.0,-28.0,462.0,-52.0,-791.0,0
-24.0,-280.0,-18.0,482.0,-26.0,-762.0,0
-35.0,-279.0,-14.0,526.0,-18.0,-784.0,0
-54.0,-284.0,-12.0,563.0,-29.0,-800.0,0
-37.0,-295.0,-11.0,571.0,-27.0,-758.0,0
-35.0,-298.0,-14.0,581.0,16.0,-706.0,0
-31.0,-304.0,-20.0,587.0,63.0,-692.0,0
-55.0,-302.0,-23.0,573.0,107.0,-677.0,0
-62.0,-313.0,-25.0,567.0,133.0,-652.0,0
-58.0,-323.0,-27.0,563.0,135.0,-611.0,0
-62.0,-329.0,-34.0,569.0,124.0,-602.0,0
-64.0,-337.0,-42.0,593.0,111.0,-601.0,0
-80.0,-340.0,-54.0,627.0,91.0,-601.0,0
-68.0,-352.0,-51.0,659.0,68.0,-567.0,0
-56.0,-357.0,-50.0,703.0,36.0,-540.0,0
-58.0,-358.0,-48.0,769.0,-2.0,-536.0,0
-52.0,-351.0,-49.0,837.0,-37.0,-533.0,0
-48.0,-345.0,-45.0,896.0,-67.0,-526.0,0
-45.0,-333.0,-42.0,944.0,-101.0,-521.0,0
-35.0,-326.0,-44.0,979.0,-136.0,-508.0,0
-37.0,-323.0,-23.0,1008.0,-157.0,-486.0,0
-36.0,-319.0,-26.0,1040.0,-180.0,-470.0,0
-20.0,-302.0,-37.0,1072.0,-184.0,-457.0,0
-22.0,-300.0,-20.0,1092.0,-184.0,-447.0,0
-11.0,-277.0,-35.0,1103.0,-189.0,-446.0,0
-16.0,-285.0,-9.0,1109.0,-198.0,-429.0,0
-13.0,-279.0,-11.0,1135.0,-217.0,-442.0,0
-16.0,-273.0,-13.0,1176.0,-230.0,-452.0,0
-23.0,-275.0,-8.0,1200.0,-243.0,-454.0,0
-7.0,-260.0,-16.0,1200.0,-251.0,-459.0,0
-13.0,-258.0,-2.0,1184.0,-255.0,-467.0,0
-14.0,-248.0,-3.0,1163.0,-250.0,-474.0,0
1.0,-236.0,-4.0,1130.0,-243.0,-484.0,0
-10.0,-229.0,-12.0,1095.0,-233.0,-498.0,0
-13.0,-224.0,-14.0,1069.0,-229.0,-510.0,0
-3.0,-233.0,2.0,1043.0,-229.0,-517.0,0
-14.0,-235.0,4.0,1029.0,-236.0,-529.0,0
-6.0,-236.0,3.0,1029.0,-243.0,-532.0,0
-7.0,-232.0,2.0,1035.0,-234.0,-541.0,0
-5.0,-235.0,-1.0,1049.0,-222.0,-542.0,0
3.0,-235.0,-5.0,1056.0,-210.0,-546.0,0
-3.0,-230.0,5.0,1057.0,-196.0,-549.0,0
-2.0,-234.0,2.0,1055.0,-184.0,-549.0,0
-10.0,-238.0,0.0,1053.0,-175.0,-551.0,0
-6.0,-244.0,3.0,1047.0,-172.0,-550.0,0
-7.0,-248.0,7.0,1045.0,-167.0,-551.0,0
-3.0,-247.0,7.0,1048.0,-165.0,-553.0,0
-10.0,-251.0,8.0,1054.0,-154.0,-555.0,0
-11.0,-249.0,11.0,1061.0,-141.0,-562.0,0
-19.0,-246.0,16.0,1070.0,-127.0,-567.0,0
-16.0,-247.0,15.0,1081.0,-111.0,-570.0,0
-15.0,-245.0,19.0,1089.0,-106.0,-565.0,0
-13.0,-243.0,20.0,1095.0,-104.0,-562.0,0
-11.0,-240.0,26.0,1100.0,-101.0,-558.0,0
-7.0,-238.0,26.0,1092.0,-97.0,-554.0,0
-5.0,-236.0,25.0,1078.0,-91.0,-545.0,0
-5.0,-235.0,35.0,1063.0,-84.0,-539.0,0
1.0,-232.0,32.0,1048.0,-78.0,-525.0,0
-6.0,-225.0,30.0,1026.0,-79.0,-513.0,0
-4.0,-224.0,32.0,997.0,-81.0,-496.0,0
2.0,-223.0,35.0,969.0,-90.0,-481.0,0
-2.0,-227.0,32.0,938.0,-95.0,-466.0,0
5.0,-229.0,36.0,899.0,-90.0,-453.0,0
6.0,-233.0,35.0,870.0,-85.0,-441.0,0
4.0,-238.0,41.0,847.0,-71.0,-426.0,0
10.0,-240.0,38.0,826.0,-51.0,-407.0,0
3.0,-245.0,39.0,804.0,-36.0,-394.0,0
8.0,-252.0,49.0,780.0,-23.0,-380.0,0
12.0,-256.0,48.0,764.0,-12.0,-371.0,0
11.0,-260.0,48.0,757.0,-1.0,-358.0,0
10.0,-260.0,52.0,757.0,1.0,-348.0,0
15.0,-259.0,47.0,767.0,2.0,-338.0,0
14.0,-258.0,44.0,788.0,13.0,-336.0,0
17.0,-256.0,47.0,796.0,27.0,-336.0,0
21.0,-249.0,42.0,798.0,43.0,-338.0,0
20.0,-247.0,46.0,796.0,63.0,-339.0,0
22.0,-237.0,49.0,797.0,75.0,-342.0,0
21.0,-233.0,53.0,793.0,82.0,-338.0,0
29.0,-228.0,59.0,782.0,89.0,-334.0,0
34.0,-223.0,60.0,762.0,90.0,-328.0,0
33.0,-219.0,63.0,738.0,87.0,-322.0,0
37.0,-216.0,64.0,711.0,83.0,-315.0,0
34.0,-211.0,66.0,675.0,75.0,-303.0,0
36.0,-208.0,69.0,643.0,63.0,-291.0,0
41.0,-211.0,74.0,610.0,54.0,-277.0,0
43.0,-214.0,74.0,575.0,48.0,-259.0,0
39.0,-214.0,85.0,530.0,44.0,-240.0,0
36.0,-219.0,79.0,484.0,43.0,-220.0,0
35.0,-219.0,79.0,437.0,39.0,-200.0,0
25.0,-231.0,81.0,390.0,36.0,-179.0,0
32.0,-226.0,75.0,347.0,38.0,-161.0,0
30.0,-228.0,79.0,304.0,38.0,-142.0,0
35.0,-227.0,81.0,264.0,44.0,-132.0,0
33.0,-229.0,84.0,245.0,48.0,-121.0,0
32.0,-229.0,85.0,233.0,42.0,-108.0,0
35.0,-228.0,90.0,222.0,29.0,-94.0,0
42.0,-225.0,90.0,214.0,19.0,-84.0,0
39.0,-223.0,85.0,204.0,4.0,-72.0,0
40.0,-224.0,82.0,194.0,-14.0,-57.0,0
40.0,-222.0,88.0,184.0,-31.0,-40.0,0
42.0,-209.0,68.0,177.0,-43.0,-22.0,0
35.0,-213.0,76.0,169.0,-44.0,-1.0,0
39.0,-209.0,72.0,154.0,-31.0,16.0,0
38.0,-206.0,73.0,139.0,-9.0,31.0,0
32.0,-208.0,74.0,113.0,14.0,42.0,0
30.0,-212.0,73.0,79.0,28.0,48.0,0
35.0,-211.0,80.0,39.0,25.0,45.0,0
25.0,-213.0,70.0,-10.0,21.0,40.0,0
20.0,-220.0,78.0,-54.0,15.0,47.0,0
19.0,-221.0,66.0,-92.0,7.0,54.0,0
35.0,-225.0,72.0,-125.0,-2.0,53.0,0
24.0,-226.0,72.0,-151.0,-8.0,47.0,0
21.0,-225.0,69.0,-167.0,-6.0,43.0,0
21.0,-224.0,65.0,-170.0,-1.0,41.0,0
21.0,-224.0,67.0,-163.0,8.0,36.0,0
24.0,-223.0,65.0,-151.0,15.0,25.0,0
17.0,-225.0,66.0,-141.0,17.0,13.0,0
14.0,-226.0,70.0,-127.0,10.0,10.0,0
12.0,-230.0,63.0,-112.0,-7.0,1.0,0
2.0,-233.0,65.0,-88.0,-26.0,-10.0,0
8.0,-240.0,60.0,-52.0,-43.0,-29.0,0
16.0,-238.0,53.0,-8.0,-55.0,-60.0,0
17.0,-242.0,54.0,43.0,-58.0,-106.0,0
19.0,-240.0,48.0,115.0,-55.0,-149.0,0
24.0,-242.0,45.0,173.0,-55.0,-190.0,0
22.0,-243.0,45.0,226.0,-67.0,-228.0,0
23.0,-245.0,46.0,266.0,-95.0,-263.0,0
22.0,-250.0,48.0,287.0,-133.0,-283.0,0
18.0,-253.0,46.0,293.0,-173.0,-295.0,0
20.0,-249.0,50.0,290.0,-199.0,-293.0,0
18.0,-252.0,52.0,288.0,-209.0,-291.0,0
16.0,-247.0,62.0,280.0,-218.0,-289.0,0
13.0,-242.0,50.0,281.0,-209.0,-284.0,0
13.0,-244.0,61.0,291.0,-196.0,-282.0,0
12.0,-245.0,65.0,301.0,-187.0,-276.0,0
12.0,-242.0,65.0,322.0,-184.0,-280.0,0
10.0,-236.0,69.0,342.0,-191.0,-285.0,0
7.0,-240.0,69.0,361.0,-199.0,-282.0,0
7.0,-238.0,66.0,385.0,-215.0,-279.0,0
7.0,-236.0,61.0,409.0,-236.0,-280.0,0
11.0,-240.0,59.0,425.0,-254.0,-278.0,0
12.0,-243.0,59.0,434.0,-271.0,-275.0,0
13.0,-243.0,52.0,436.0,-287.0,-271.0,0
3.0,-246.0,66.0,428.0,-295.0,-266.0,0
18.0,-241.0,51.0,413.0,-304.0,-264.0,0
19.0,-234.0,58.0,396.0,-311.0,-268.0,0
24.0,-235.0,59.0,384.0,-311.0,-269.0,0
32.0,-233.0,64.0,374.0,-299.0,-265.0,0
36.0,-234.0,65.0,359.0,-274.0,-265.0,0
39.0,-236.0,67.0,347.0,-242.0,-260.0,0
38.0,-232.0,69.0,340.0,-206.0,-259.0,0
45.0,-228.0,74.0,330.0,-170.0,-256.0,0
46.0,-229.0,75.0,322.0,-133.0,-246.0,0
48.0,-227.0,78.0,316.0,-105.0,-234.0,0
43.0,-231.0,82.0,307.0,-79.0,-226.0,0
48.0,-223.0,74.0,306.0,-53.0,-211.0,0
47.0,-221.0,72.0,308.0,-31.0,-192.0,0
51.0,-221.0,75.0,306.0,-12.0,-178.0,0
56.0,-221.0,76.0,309.0,4.0,-167.0,0
53.0,-218.0,83.0,314.0,17.0,-158.0,0
60.0,-226.0,82.0,328.0,25.0,-145.0,0
53.0,-225.0,88.0,326.0,31.0,-136.0,0
53.0,-227.0,92.0,325.0,26.0,-126.0,0
51.0,-226.0,85.0,317.0,17.0,-113.0,0
47.0,-227.0,92.0,312.0,4.0,-102.0,0
50.0,-240.0,106.0,314.0,-11.0,-85.0,0
50.0,-231.0,92.0,318.0,-24.0,-70.0,0
54.0,-233.0,97.0,312.0,-26.0,-64.0,0
52.0,-228.0,95.0,316.0,-24.0,-56.0,0
56.0,-228.0,89.0,329.0,-14.0,-39.0,0
60.0,-222.0,88.0,341.0,0.0,-25.0,0
54.0,-212.0,84.0,349.0,17.0,-6.0,0
55.0,-208.0,92.0,357.0,28.0,20.0,0
55.0,-210.0,99.0,367.0,26.0,41.0,0
57.0,-209.0,107.0,376.0,17.0,54.0,0
54.0,-202.0,115.0,392.0,5.0,60.0,0
66.0,-202.0,123.0,412.0,-4.0,71.0,0
66.0,-200.0,122.0,422.0,-17.0,70.0,0
65.0,-196.0,117.0,418.0,-28.0,64.0,0
63.0,-195.0,124.0,396.0,-40.0,60.0,0
61.0,-195.0,121.0,353.0,-53.0,58.0,0
57.0,-187.0,115.0,301.0,-64.0,60.0,0
50.0,-194.0,116.0,245.0,-65.0,86.0,0
50.0,-194.0,109.0,153.0,-74.0,88.0,0
51.0,-196.0,106.0,71.0,-83.0,84.0,0
48.0,-199.0,104.0,8.0,-94.0,76.0,0
53.0,-202.0,102.0,-38.0,-95.0,70.0,0
51.0,-203.0,98.0,-59.0,-84.0,65.0,0
59.0,-200.0,90.0,-55.0,-67.0,59.0,0
58.0,-197.0,93.0,-29.0,-47.0,62.0,0
58.0,-199.0,89.0,9.0,-31.0,70.0,0
53.0,-198.0,86.0,48.0,-27.0,82.0,0
51.0,-195.0,90.0,80.0,-26.0,100.0,0
50.0,-199.0,89.0,107.0,-30.0,121.0,0
46.0,-199.0,91.0,124.0,-33.0,144.0,0
44.0,-202.0,92.0,135.0,-34.0,171.0,0
38.0,-203.0,91.0,147.0,-31.0,195.0,0
33.0,-201.0,99.0,162.0,-29.0,214.0,0
31.0,-205.0,92.0,170.0,-26.0,237.0,0
33.0,-215.0,101.0,168.0,-32.0,248.0,0
39.0,-223.0,99.0,175.0,-30.0,254.0,0
39.0,-222.0,93.0,182.0,-27.0,263.0,0
44.0,-226.0,94.0,184.0,-18.0,264.0,0
45.0,-222.0,95.0,190.0,-5.0,261.0,0
49.0,-225.0,91.0,203.0,8.0,262.0,0
48.0,-223.0,97.0,203.0,10.0,253.0,0
47.0,-218.0,101.0,207.0,2.0,234.0,0
49.0,-208.0,101.0,220.0,-13.0,218.0,0
40.0,-199.0,96.0,233.0,-30.0,205.0,0
50.0,-198.0,104.0,245.0,-39.0,194.0,0
48.0,-193.0,104.0,249.0,-42.0,181.0,0
47.0,-189.0,105.0,238.0,-40.0,171.0,0
44.0,-188.0,103.0,211.0,-33.0,160.0,0
46.0,-189.0,110.0,167.0,-24.0,152.0,0
48.0,-191.0,110.0,128.0,-15.0,151.0,0
43.0,-194.0,110.0,86.0,-7.0,149.0,0
45.0,-195.0,106.0,45.0,-2.0,149.0,0
46.0,-203.0,107.0,0.0,-2.0,153.0,0
40.0,-205.0,109.0,-36.0,-6.0,162.0,0
45.0,-214.0,99.0,-62.0,-10.0,174.0,0
38.0,-214.0,100.0,-76.0,-8.0,186.0,0
37.0,-222.0,103.0,-84.0,-2.0,202.0,0
35.0,-224.0,101.0,-85.0,7.0,216.0,0
30.0,-224.0,105.0,-83.0,15.0,235.0,0
28.0,-230.0,106.0,-76.0,15.0,246.0,0
28.0,-227.0,103.0,-67.0,9.0,255.0,0
21.0,-230.0,97.0,-54.0,3.0,261.0,0
25.0,-229.0,109.0,-39.0,0.0,262.0,0
26.0,-229.0,106.0,-23.0,-3.0,257.0,0
24.0,-228.0,103.0,-9.0,-3.0,250.0,0
25.0,-225.0,102.0,-1.0,1.0,239.0,0
25.0,-225.0,106.0,0.0,3.0,226.0,0
27.0,-221.0,99.0,-5.0,6.0,207.0,0
27.0,-222.0,103.0,-14.0,10.0,188.0,0
32.0,-221.0,102.0,-25.0,14.0,172.0,0
33.0,-220.0,101.0,-35.0,24.0,154.0,0
34.0,-217.0,100.0,-45.0,36.0,137.0,0
36.0,-216.0,101.0,-59.0,48.0,125.0,0
32.0,-216.0,101.0,-68.0,57.0,115.0,0
34.0,-216.0,101.0,-75.0,61.0,111.0,0
34.0,-214.0,98.0,-78.0,66.0,109.0,0
33.0,-204.0,80.0,-78.0,71.0,111.0,0
33.0,-215.0,95.0,-81.0,74.0,112.0,0
34.0,-217.0,96.0,-85.0,74.0,116.0,0
33.0,-214.0,98.0,-89.0,73.0,122.0,0
34.0,-220.0,94.0,-97.0,75.0,124.0,0
32.0,-217.0,93.0,-104.0,77.0,127.0,0
34.0,-221.0,84.0,-108.0,80.0,128.0,0
33.0,-224.0,91.0,-112.0,86.0,130.0,0
35.0,-219.0,91.0,-111.0,100.0,130.0,0
35.0,-223.0,85.0,-112.0,115.0,126.0,0
35.0,-224.0,93.0,-112.0,127.0,123.0,0
39.0,-214.0,89.0,-110.0,132.0,119.0,0
31.0,-224.0,91.0,-101.0,130.0,116.0,0
31.0,-222.0,90.0,-79.0,125.0,118.0,0
26.0,-218.0,95.0,-59.0,120.0,119.0,0
25.0,-216.0,91.0,-42.0,116.0,121.0,0
30.0,-217.0,91.0,-34.0,113.0,122.0,0
29.0,-211.0,89.0,-33.0,112.0,119.0,0
27.0,-206.0,91.0,-38.0,114.0,119.0,0
24.0,-209.0,88.0,-45.0,110.0,117.0,0
23.0,-206.0,86.0,-59.0,104.0,114.0,0
18.0,-209.0,93.0,-73.0,96.0,109.0,0
27.0,-208.0,108.0,-84.0,77.0,106.0,0
19.0,-217.0,92.0,-83.0,61.0,104.0,0
19.0,-219.0,94.0,-70.0,54.0,100.0,0
19.0,-220.0,96.0,-50.0,55.0,95.0,0
17.0,-219.0,89.0,-25.0,57.0,88.0,0
19.0,-219.0,87.0,-3.0,55.0,80.0,0
18.0,-218.0,85.0,16.0,45.0,71.0,0
16.0,-224.0,91.0,30.0,27.0,61.0,0
15.0,-219.0,85.0,41.0,7.0,51.0,0
16.0,-226.0,83.0,47.0,-14.0,38.0,0
16.0,-229.0,83.0,53.0,-36.0,22.0,0
25.0,-227.0,77.0,62.0,-47.0,9.0,0
23.0,-241.0,87.0,71.0,-47.0,-7.0,0
19.0,-245.0,83.0,84.0,-42.0,-24.0,0
13.0,-245.0,90.0,101.0,-36.0,-43.0,0
12.0,-243.0,93.0,127.0,-36.0,-62.0,0
16.0,-244.0,97.0,162.0,-36.0,-77.0,0
13.0,-241.0,99.0,199.0,-31.0,-93.0,0
11.0,-234.0,109.0,243.0,-24.0,-102.0,0
15.0,-223.0,109.0,295.0,-23.0,-109.0,0
14.0,-215.0,114.0,346.0,-26.0,-108.0,0
18.0,-198.0,120.0,395.0,-30.0,-101.0,0
16.0,-211.0,130.0,416.0,-37.0,-91.0,0
19.0,-192.0,120.0,418.0,-45.0,-78.0,0
19.0,-185.0,123.0,406.0,-53.0,-68.0,0
23.0,-185.0,124.0,382.0,-56.0,-61.0,0
25.0,-187.0,129.0,352.0,-57.0,-60.0,0
23.0,-189.0,128.0,316.0,-55.0,-63.0,0
27.0,-192.0,127.0,279.0,-55.0,-70.0,0
31.0,-193.0,127.0,239.0,-61.0,-83.0,0
33.0,-207.0,124.0,202.0,-74.0,-100.0,0
38.0,-208.0,118.0,155.0,-77.0,-118.0,0
37.0,-219.0,118.0,120.0,-74.0,-137.0,0
41.0,-218.0,95.0,91.0,-65.0,-158.0,0
42.0,-232.0,103.0,73.0,-46.0,-183.0,0
45.0,-235.0,103.0,67.0,-17.0,-209.0,0
44.0,-244.0,98.0,78.0,20.0,-234.0,0
44.0,-246.0,91.0,102.0,64.0,-254.0,0
37.0,-243.0,93.0,137.0,103.0,-265.0,0
34.0,-239.0,95.0,180.0,134.0,-268.0,0
34.0,-236.0,94.0,224.0,152.0,-260.0,0
26.0,-225.0,88.0,266.0,158.0,-245.0,0
28.0,-214.0,88.0,291.0,157.0,-225.0,0
23.0,-202.0,95.0,303.0,148.0,-199.0,0
40.0,-221.0,107.0,298.0,131.0,-171.0,0
29.0,-196.0,98.0,280.0,111.0,-141.0,0
27.0,-191.0,99.0,251.0,83.0,-116.0,0
30.0,-189.0,100.0,215.0,56.0,-93.0,0
31.0,-192.0,103.0,184.0,35.0,-75.0,0
33.0,-191.0,103.0,156.0,14.0,-60.0,0
36.0,-191.0,103.0,128.0,0.0,-47.0,0
39.0,-193.0,105.0,97.0,-6.0,-40.0,0
40.0,-196.0,101.0,77.0,-7.0,-37.0,0
46.0,-198.0,101.0,58.0,-5.0,-36.0,0
41.0,-212.0,103.0,43.0,-2.0,-39.0,0
44.0,-195.0,96.0,33.0,1.0,-44.0,0
44.0,-201.0,102.0,27.0,7.0,-48.0,0
50.0,-201.0,100.0,26.0,12.0,-58.0,0
48.0,-208.0,95.0,30.0,18.0,-70.0,0
50.0,-209.0,97.0,33.0,25.0,-84.0,0
51.0,-210.0,98.0,35.0,35.0,-99.0,0
52.0,-212.0,95.0,33.0,45.0,-108.0,0
48.0,-216.0,99.0,29.0,53.0,-118.0,0
45.0,-216.0,104.0,27.0,61.0,-125.0,0
42.0,-214.0,98.0,28.0,69.0,-129.0,0
47.0,-212.0,85.0,30.0,73.0,-128.0,0
42.0,-215.0,103.0,41.0,75.0,-124.0,0
40.0,-211.0,100.0,54.0,77.0,-117.0,0
43.0,-210.0,106.0,74.0,81.0,-103.0,0
38.0,-204.0,110.0,94.0,83.0,-90.0,0
40.0,-200.0,107.0,109.0,86.0,-77.0,0
39.0,-199.0,112.0,123.0,90.0,-56.0,0
43.0,-198.0,114.0,129.0,91.0,-35.0,0
39.0,-194.0,116.0,127.0,88.0,-21.0,0
39.0,-191.0,120.0,120.0,84.0,-16.0,0
42.0,-194.0,118.0,107.0,84.0,-9.0,0
39.0,-192.0,120.0,87.0,84.0,-1.0,0
36.0,-194.0,118.0,66.0,84.0,-1.0,0
34.0,-197.0,123.0,45.0,86.0,1.0,0
30.0,-198.0,125.0,27.0,87.0,3.0,0
37.0,-206.0,124.0,12.0,84.0,4.0,0
35.0,-207.0,126.0,2.0,84.0,2.0,0
35.0,-210.0,121.0,-4.0,87.0,-3.0,0
41.0,-210.0,119.0,-4.0,90.0,-6.0,0
40.0,-212.0,121.0,3.0,95.0,-9.0,0
43.0,-215.0,120.0,9.0,99.0,-17.0,0
39.0,-213.0,121.0,19.0,101.0,-22.0,0
35.0,-208.0,118.0,32.0,103.0,-25.0,0
39.0,-209.0,114.0,43.0,104.0,-26.0,0
43.0,-210.0,113.0,52.0,105.0,-26.0,0
41.0,-209.0,115.0,58.0,106.0,-28.0,0
46.0,-205.0,109.0,61.0,106.0,-30.0,0
45.0,-206.0,111.0,61.0,108.0,-28.0,0
47.0,-206.0,108.0,52.0,111.0,-25.0,0
47.0,-204.0,108.0,41.0,114.0,-24.0,0
44.0,-201.0,111.0,25.0,113.0,-24.0,0
46.0,-200.0,107.0,15.0,111.0,-23.0,0
46.0,-200.0,112.0,5.0,106.0,-20.0,0
55.0,-204.0,106.0,-6.0,101.0,-17.0,0
41.0,-204.0,111.0,-12.0,97.0,-14.0,0
40.0,-204.0,112.0,-18.0,92.0,-12.0,0
36.0,-206.0,110.0,-23.0,90.0,-10.0,0
36.0,-210.0,112.0,-26.0,90.0,-10.0,0
37.0,-209.0,113.0,-26.0,89.0,-9.0,0
30.0,-208.0,113.0,-27.0,87.0,-10.0,0
30.0,-208.0,110.0,-24.0,88.0,-11.0,0
28.0,-208.0,112.0,-24.0,83.0,-14.0,0
24.0,-205.0,109.0,-23.0,83.0,-16.0,0
29.0,-206.0,109.0,-20.0,80.0,-18.0,0
32.0,-199.0,109.0,-20.0,77.0,-20.0,0
27.0,-206.0,110.0,-19.0,78.0,-22.0,0
25.0,-209.0,107.0,-16.0,76.0,-22.0,0
28.0,-210.0,110.0,-12.0,74.0,-22.0,0
29.0,-209.0,109.0,-9.0,73.0,-22.0,0
29.0,-207.0,107.0,-4.0,76.0,-23.0,0
29.0,-208.0,111.0,0.0,74.0,-21.0,0
31.0,-207.0,111.0,3.0,74.0,-22.0,0
33.0,-205.0,109.0,5.0,75.0,-21.0,0
34.0,-208.0,109.0,7.0,77.0,-21.0,0
32.0,-209.0,115.0,8.0,80.0,-22.0,0
36.0,-200.0,97.0,6.0,84.0,-23.0,0
36.0,-206.0,110.0,5.0,87.0,-23.0,0
38.0,-206.0,109.0,3.0,89.0,-26.0,0
33.0,-205.0,108.0,1.0,88.0,-26.0,0
34.0,-203.0,111.0,1.0,86.0,-27.0,0
36.0,-202.0,113.0,-2.0,82.0,-27.0,0
34.0,-204.0,111.0,-3.0,75.0,-28.0,0
31.0,-201.0,114.0,0.0,72.0,-27.0,0
36.0,-204.0,106.0,3.0,67.0,-27.0,0
32.0,-204.0,110.0,8.0,63.0,-26.0,0
33.0,-206.0,106.0,13.0,56.0,-26.0,0
36.0,-221.0,117.0,22.0,50.0,-25.0,0
31.0,-204.0,110.0,30.0,45.0,-23.0,0
32.0,-203.0,110.0,33.0,43.0,-21.0,0
33.0,-205.0,114.0,34.0,39.0,-22.0,0
36.0,-206.0,111.0,34.0,35.0,-21.0,0
31.0,-204.0,114.0,31.0,33.0,-19.0,0
34.0,-206.0,111.0,28.0,30.0,-21.0,0
36.0,-205.0,114.0,25.0,30.0,-23.0,0
34.0,-206.0,113.0,22.0,29.0,-24.0,0
34.0,-205.0,114.0,19.0,28.0,-27.0,0
39.0,-208.0,116.0,21.0,28.0,-28.0,0
39.0,-198.0,103.0,23.0,31.0,-30.0,0
38.0,-206.0,113.0,26.0,33.0,-34.0,0
40.0,-207.0,116.0,33.0,35.0,-36.0,0
38.0,-207.0,113.0,32.0,36.0,-33.0,0
41.0,-205.0,116.0,24.0,39.0,-32.0,0
39.0,-199.0,116.0,19.0,42.0,-30.0,0
35.0,-203.0,118.0,14.0,43.0,-32.0,0
41.0,-199.0,113.0,10.0,42.0,-29.0,0
38.0,-201.0,122.0,7.0,40.0,-28.0,0
38.0,-199.0,118.0,4.0,41.0,-26.0,0
38.0,-207.0,119.0,2.0,42.0,-24.0,0
35.0,-204.0,116.0,1.0,44.0,-25.0,0
36.0,-206.0,117.0,-2.0,43.0,-24.0,0
39.0,-204.0,113.0,-5.0,46.0,-21.0,0
37.0,-204.0,117.0,-6.0,47.0,-17.0,0
40.0,-207.0,115.0,-7.0,49.0,-14.0,0
40.0,-208.0,115.0,-9.0,49.0,-11.0,0
37.0,-206.0,112.0,-11.0,52.0,-7.0,0
37.0,-208.0,118.0,-12.0,56.0,-6.0,0
41.0,-210.0,109.0,-11.0,58.0,-1.0,0
38.0,-210.0,116.0,-9.0,57.0,0.0,0
34.0,-205.0,102.0,-6.0,57.0,2.0,0
41.0,-209.0,109.0,1.0,56.0,1.0,0
41.0,-206.0,113.0,7.0,54.0,2.0,0
39.0,-206.0,111.0,14.0,51.0,1.0,0
41.0,-201.0,110.0,17.0,45.0,0.0,0
37.0,-204.0,114.0,16.0,41.0,0.0,0
38.0,-202.0,115.0,15.0,37.0,-2.0,0
38.0,-203.0,112.0,8.0,35.0,-2.0,0
39.0,-204.0,111.0,2.0,35.0,-1.0,0
35.0,-200.0,114.0,-5.0,39.0,-3.0,0
36.0,-203.0,108.0,-9.0,41.0,-2.0,0
35.0,-203.0,113.0,-12.0,45.0,-2.0,0
36.0,-206.0,114.0,-14.0,50.0,0.0,0
36.0,-205.0,113.0,-14.0,53.0,-2.0,0
37.0,-204.0,110.0,-12.0,55.0,-1.0,0
38.0,-205.0,113.0,-8.0,58.0,-2.0,0
40.0,-203.0,116.0,-3.0,61.0,-2.0,0
40.0,-206.0,117.0,0.0,60.0,-2.0,0
44.0,-203.0,111.0,4.0,60.0,-1.0,0
41.0,-202.0,115.0,7.0,61.0,-2.0,0
37.0,-200.0,113.0,8.0,58.0,-2.0,0
39.0,-206.0,114.0,9.0,56.0,-3.0,0
33.0,-210.0,129.0,12.0,53.0,-6.0,0
38.0,-201.0,111.0,13.0,51.0,-6.0,0
41.0,-200.0,111.0,10.0,47.0,-7.0,0
40.0,-201.0,115.0,8.0,45.0,-8.0,0
39.0,-201.0,112.0,3.0,44.0,-8.0,0
39.0,-203.0,115.0,0.0,43.0,-11.0,0
36.0,-203.0,119.0,-6.0,45.0,-10.0,0
36.0,-200.0,117.0,-9.0,46.0,-11.0,0
37.0,-205.0,119.0,-11.0,48.0,-9.0,0
37.0,-207.0,116.0,-14.0,51.0,-11.0,0
40.0,-201.0,114.0,-14.0,53.0,-9.0,0
31.0,-194.0,116.0,-14.0,57.0,-9.0,0
33.0,-203.0,114.0,-13.0,59.0,-7.0,0
38.0,-203.0,119.0,-13.0,60.0,-7.0,0
37.0,-203.0,115.0,-10.0,63.0,-6.0,0
40.0,-206.0,114.0,-8.0,67.0,-6.0,0
39.0,-203.0,116.0,-8.0,68.0,-5.0,0
39.0,-206.0,113.0,-6.0,71.0,-8.0,0
39.0,-202.0,115.0,-8.0,73.0,-8.0,0
37.0,-206.0,110.0,-7.0,74.0,-9.0,0
38.0,-201.0,116.0,-9.0,73.0,-10.0,0
36.0,-202.0,111.0,-11.0,71.0,-10.0,0
35.0,-214.0,120.0,-14.0,69.0,-8.0,0
37.0,-203.0,113.0,-16.0,66.0,-8.0,0
38.0,-205.0,119.0,-15.0,63.0,-6.0,0
37.0,-204.0,115.0,-14.0,59.0,-7.0,0
40.0,-204.0,114.0,-14.0,58.0,-4.0,0
38.0,-207.0,113.0,-12.0,58.0,-5.0,0
35.0,-205.0,114.0,-10.0,59.0,-5.0,0
34.0,-201.0,115.0,-11.0,58.0,-6.0,0
37.0,-202.0,112.0,-13.0,57.0,-5.0,0
33.0,-204.0,113.0,-14.0,56.0,-5.0,0
38.0,-212.0,116.0,-15.0,58.0,-6.0,0
30.0,-200.0,104.0,-15.0,58.0,-5.0,0
36.0,-204.0,115.0,-14.0,59.0,-6.0,0
36.0,-206.0,113.0,-14.0,62.0,-9.0,0
37.0,-207.0,114.0,-13.0,62.0,-8.0,0
33.0,-204.0,112.0,-10.0,62.0,-8.0,0
36.0,-204.0,109.0,-10.0,63.0,-8.0,0
35.0,-203.0,112.0,-7.0,62.0,-10.0,0
36.0,-207.0,113.0,-6.0,62.0,-9.0,0
36.0,-207.0,115.0,-5.0,60.0,-10.0,0
36.0,-201.0,116.0,-5.0,57.0,-9.0,0
35.0,-204.0,117.0,-6.0,54.0,-8.0,0
27.0,-198.0,111.0,-6.0,49.0,-7.0,0
34.0,-205.0,114.0,-4.0,45.0,-8.0,0
34.0,-203.0,118.0,-3.0,43.0,-8.0,0
37.0,-204.0,114.0,-2.0,43.0,-10.0,0
36.0,-204.0,110.0,-1.0,44.0,-8.0,0
40.0,-203.0,119.0,-1.0,47.0,-9.0,0
37.0,-201.0,117.0,0.0,46.0,-10.0,0
37.0,-204.0,115.0,-2.0,45.0,-9.0,0
37.0,-203.0,117.0,-4.0,46.0,-7.0,0
37.0,-202.0,118.0,-7.0,47.0,-9.0,0
39.0,-204.0,116.0,-8.0,48.0,-7.0,0
33.0,-213.0,128.0,-10.0,51.0,-10.0,0
39.0,-205.0,113.0,-13.0,51.0,-9.0,0
36.0,-200.0,111.0,-16.0,52.0,-10.0,0
41.0,-204.0,111.0,-14.0,52.0,-6.0,0
39.0,-204.0,115.0,-15.0,51.0,-6.0,0
41.0,-205.0,114.0,-14.0,50.0,-3.0,0
40.0,-205.0,119.0,-13.0,49.0,-4.0,0
36.0,-206.0,118.0,-11.0,48.0,-3.0,0
37.0,-206.0,119.0,-9.0,47.0,-2.0,0
40.0,-204.0,119.0,-9.0,46.0,-2.0,0
44.0,-219.0,122.0,-9.0,46.0,-3.0,0
42.0,-205.0,115.0,-9.0,46.0,-1.0,0
41.0,-204.0,117.0,-13.0,46.0,-3.0,0
39.0,-201.0,118.0,-14.0,50.0,-2.0,0
40.0,-205.0,113.0,-16.0,51.0,-4.0,0
42.0,-203.0,112.0,-17.0,53.0,-5.0,0
40.0,-204.0,114.0,-17.0,55.0,-6.0,0
38.0,-205.0,113.0,-16.0,55.0,-6.0,0
37.0,-202.0,117.0,-18.0,55.0,-6.0,0
39.0,-204.0,117.0,-15.0,56.0,-6.0,0
36.0,-204.0,115.0,-15.0,55.0,-7.0,0
36.0,-215.0,125.0,-14.0,57.0,-6.0,0
39.0,-206.0,114.0,-10.0,60.0,-10.0,0
38.0,-207.0,116.0,-5.0,60.0,-9.0,0
37.0,-205.0,113.0,1.0,61.0,-9.0,0
39.0,-204.0,116.0,6.0,60.0,-9.0,0
37.0,-201.0,113.0,9.0,58.0,-8.0,0
36.0,-202.0,112.0,12.0,56.0,-8.0,0
38.0,-202.0,111.0,12.0,53.0,-9.0,0
36.0,-202.0,116.0,9.0,49.0,-10.0,0
39.0,-196.0,113.0,5.0,49.0,-13.0,0
37.0,-200.0,112.0,1.0,50.0,-13.0,0
30.0,-203.0,126.0,-2.0,52.0,-17.0,0
35.0,-202.0,119.0,-7.0,51.0,-15.0,0
36.0,-203.0,117.0,-10.0,52.0,-17.0,0
37.0,-203.0,116.0,-14.0,54.0,-15.0,0
35.0,-205.0,112.0,-17.0,56.0,-15.0,0
38.0,-206.0,118.0,-20.0,59.0,-11.0,0
36.0,-207.0,116.0,-21.0,60.0,-10.0,0
35.0,-206.0,113.0,-21.0,63.0,-8.0,0
37.0,-207.0,112.0,-17.0,66.0,-7.0,0
37.0,-205.0,109.0,-11.0,68.0,-4.0,0
38.0,-208.0,114.0,-1.0,65.0,-6.0,0
39.0,-210.0,114.0,6.0,64.0,-4.0,0
38.0,-206.0,112.0,13.0,63.0,-7.0,0
37.0,-203.0,116.0,19.0,61.0,-8.0,0
38.0,-202.0,116.0,20.0,57.0,-8.0,0
37.0,-199.0,115.0,17.0,53.0,-8.0,0
36.0,-202.0,116.0,14.0,51.0,-8.0,0
38.0,-203.0,113.0,7.0,49.0,-6.0,0
37.0,-202.0,113.0,-1.0,49.0,-6.0,0
38.0,-200.0,117.0,-6.0,52.0,-4.0,0
37.0,-201.0,113.0,-11.0,53.0,-6.0,0
30.0,-201.0,108.0,-14.0,54.0,-3.0,0
36.0,-206.0,120.0,-17.0,57.0,-4.0,0
45.0,-212.0,123.0,-14.0,62.0,-3.0,0
33.0,-200.0,107.0,-11.0,65.0,-4.0,0
39.0,-204.0,112.0,-9.0,65.0,-4.0,0
42.0,-204.0,117.0,-8.0,67.0,-6.0,0
37.0,-200.0,116.0,-6.0,68.0,-6.0,0
39.0,-201.0,112.0,-5.0,66.0,-6.0,0
39.0,-201.0,115.0,-6.0,63.0,-3.0,0
36.0,-202.0,111.0,-7.0,60.0,-3.0,0
40.0,-206.0,112.0,-7.0,57.0,-1.0,0
41.0,-206.0,116.0,-8.0,53.0,-2.0,0
41.0,-200.0,110.0,-7.0,49.0,1.0,0
35.0,-202.0,115.0,-8.0,46.0,-1.0,0
38.0,-203.0,114.0,-6.0,46.0,1.0,0
40.0,-205.0,116.0,-6.0,46.0,-1.0,0
35.0,-202.0,111.0,-7.0,47.0,-1.0,0
40.0,-203.0,115.0,-11.0,49.0,-3.0,0
37.0,-206.0,115.0,-11.0,52.0,-3.0,0
35.0,-203.0,121.0,-11.0,53.0,-5.0,0
35.0,-204.0,113.0,-12.0,55.0,-3.0,0
37.0,-203.0,118.0,-14.0,57.0,-5.0,0
37.0,-202.0,113.0,-14.0,58.0,-2.0,0
35.0,-206.0,122.0,-14.0,60.0,-2.0,0
35.0,-195.0,114.0,-13.0,60.0,-1.0,0
38.0,-201.0,117.0,-13.0,59.0,-1.0,0
36.0,-201.0,113.0,-14.0,59.0,1.0,0
37.0,-203.0,116.0,-14.0,62.0,0.0,0
38.0,-203.0,116.0,-14.0,60.0,3.0,0
37.0,-204.0,116.0,-15.0,61.0,0.0,0
33.0,-206.0,112.0,-16.0,61.0,1.0,0
36.0,-200.0,115.0,-15.0,60.0,-1.0,0
37.0,-201.0,115.0,-17.0,58.0,0.0,0
41.0,-204.0,113.0,-16.0,58.0,-2.0,0
51.0,-203.0,111.0,-15.0,58.0,-3.0,0
37.0,-205.0,116.0,-16.0,58.0,-3.0,0
37.0,-204.0,116.0,-15.0,58.0,-3.0,0
37.0,-206.0,115.0,-14.0,59.0,-6.0,0
35.0,-202.0,116.0,-15.0,60.0,-3.0,0
40.0,-204.0,118.0,-14.0,60.0,-6.0,0
37.0,-202.0,116.0,-17.0,59.0,-4.0,0
36.0,-201.0,116.0,-20.0,60.0,-8.0,0
43.0,-203.0,115.0,-21.0,61.0,-8.0,0
37.0,-203.0,115.0,-21.0,61.0,-9.0,0
36.0,-207.0,115.0,-20.0,60.0,-7.0,0
35.0,-210.0,138.0,-21.0,61.0,-10.0,0
38.0,-203.0,114.0,-20.0,64.0,-9.0,0
39.0,-204.0,113.0,-18.0,67.0,-11.0,0
33.0,-203.0,115.0,-11.0,69.0,-6.0,0
39.0,-205.0,114.0,-8.0,70.0,-9.0,0
37.0,-205.0,115.0,-3.0,69.0,-8.0,0
35.0,-203.0,114.0,-2.0,68.0,-12.0,0
38.0,-206.0,112.0,-1.0,67.0,-8.0,0
41.0,-201.0,115.0,-1.0,68.0,-10.0,0
39.0,-207.0,113.0,-1.0,67.0,-8.0,0
38.0,-206.0,116.0,-3.0,65.0,-10.0,0
35.0,-210.0,128.0,-4.0,62.0,-8.0,0
38.0,-204.0,118.0,-4.0,59.0,-11.0,0
37.0,-204.0,115.0,-5.0,58.0,-9.0,0
40.0,-205.0,118.0,-7.0,58.0,-11.0,0
38.0,-201.0,114.0,-8.0,59.0,-9.0,0
38.0,-203.0,118.0,-10.0,55.0,-11.0,0
39.0,-203.0,114.0,-11.0,54.0,-9.0,0
39.0,-199.0,114.0,-13.0,55.0,-10.0,0
39.0,-202.0,114.0,-13.0,54.0,-9.0,0
42.0,-204.0,116.0,-14.0,54.0,-11.0,0
32.0,-214.0,126.0,-15.0,53.0,-7.0,0
40.0,-202.0,113.0,-17.0,54.0,-10.0,0
36.0,-203.0,116.0,-17.0,56.0,-9.0,0
37.0,-203.0,117.0,-15.0,56.0,-9.0,0
38.0,-205.0,113.0,-16.0,56.0,-6.0,0
38.0,-204.0,116.0,-15.0,55.0,-9.0,0
37.0,-204.0,116.0,-13.0,56.0,-7.0,0
37.0,-204.0,119.0,-13.0,56.0,-8.0,0
36.0,-204.0,115.0,-13.0,57.0,-7.0,0
37.0,-201.0,114.0,-10.0,55.0,-8.0,0
46.0,-211.0,117.0,-10.0,56.0,-7.0,0
33.0,-218.0,125.0,-9.0,55.0,-8.0,0
37.0,-204.0,116.0,-11.0,54.0,-5.0,0
39.0,-202.0,116.0,-12.0,53.0,-7.0,0
40.0,-198.0,116.0,-12.0,51.0,-4.0,0
37.0,-201.0,116.0,-14.0,51.0,-5.0,0
37.0,-203.0,113.0,-17.0,52.0,-2.0,0
37.0,-199.0,115.0,-20.0,52.0,-3.0,0
43.0,-204.0,110.0,-20.0,52.0,-1.0,0
38.0,-204.0,122.0,-22.0,53.0,-3.0,0
40.0,-206.0,117.0,-23.0,53.0,-2.0,0
34.0,-208.0,116.0,-24.0,55.0,-5.0,0
30.0,-219.0,127.0,-23.0,56.0,-4.0,0
39.0,-207.0,116.0,-23.0,58.0,-6.0,0
39.0,-204.0,115.0,-22.0,58.0,-3.0,0
40.0,-203.0,119.0,-19.0,61.0,-6.0,0
38.0,-202.0,115.0,-20.0,61.0,-4.0,0
40.0,-203.0,113.0,-21.0,61.0,-6.0,0
39.0,-202.0,114.0,-20.0,61.0,-4.0,0
33.0,-203.0,117.0,-22.0,59.0,-5.0,0
39.0,-207.0,120.0,-23.0,57.0,-6.0,0
36.0,-199.0,116.0,-25.0,57.0,-9.0,0
44.0,-197.0,120.0,-25.0,58.0,-9.0,0
51.0,-197.0,105.0,-25.0,58.0,-12.0,0
38.0,-207.0,118.0,-26.0,58.0,-9.0,0
40.0,-204.0,114.0,-26.0,58.0,-12.0,0
39.0,-205.0,113.0,-29.0,60.0,-11.0,0
40.0,-206.0,116.0,-30.0,62.0,-11.0,0
38.0,-207.0,118.0,-34.0,62.0,-8.0,0
37.0,-205.0,116.0,-34.0,61.0,-7.0,0
38.0,-208.0,112.0,-33.0,61.0,-4.0,0
39.0,-210.0,115.0,-26.0,58.0,-3.0,0
39.0,-206.0,115.0,-16.0,57.0,0.0,0
35.0,-208.0,113.0,-5.0,56.0,-3.0,0
35.0,-212.0,115.0,4.0,55.0,-2.0,0
37.0,-203.0,118.0,9.0,51.0,-6.0,0
37.0,-204.0,116.0,11.0,49.0,-5.0,0
37.0,-202.0,114.0,11.0,45.0,-9.0,0
39.0,-200.0,115.0,10.0,47.0,-8.0,0
36.0,-201.0,115.0,6.0,47.0,-11.0,0
35.0,-202.0,117.0,2.0,49.0,-9.0,0
36.0,-204.0,118.0,-1.0,55.0,-11.0,0
35.0,-201.0,115.0,-5.0,61.0,-10.0,0
37.0,-203.0,114.0,-6.0,65.0,-11.0,0
38.0,-204.0,113.0,-7.0,67.0,-8.0,0
38.0,-215.0,123.0,-5.0,69.0,-9.0,0
39.0,-202.0,117.0,-3.0,70.0,-6.0,0
36.0,-200.0,114.0,-1.0,69.0,-7.0,0
38.0,-206.0,113.0,-2.0,68.0,-3.0,0
38.0,-203.0,116.0,2.0,66.0,-6.0,0
40.0,-206.0,116.0,2.0,65.0,-4.0,0
42.0,-204.0,117.0,0.0,64.0,-5.0,0
34.0,-201.0,119.0,0.0,61.0,-1.0,0
42.0,-201.0,113.0,0.0,60.0,-4.0,0
37.0,-202.0,112.0,0.0,55.0,-2.0,0
39.0,-200.0,118.0,0.0,53.0,-4.0,0
41.0,-212.0,121.0,-2.0,50.0,0.0,0
36.0,-200.0,116.0,-3.0,48.0,1.0,0
37.0,-202.0,116.0,-5.0,46.0,2.0,0
37.0,-201.0,114.0,-8.0,45.0,-1.0,0
39.0,-203.0,117.0,-8.0,48.0,1.0,0
37.0,-203.0,113.0,-10.0,49.0,-2.0,0
37.0,-202.0,113.0,-12.0,50.0,0.0,0
40.0,-199.0,117.0,-17.0,53.0,-3.0,0
37.0,-202.0,115.0,-21.0,53.0,1.0,0
36.0,-201.0,115.0,-27.0,53.0,-3.0,0
39.0,-202.0,116.0,-33.0,54.0,2.0,0
29.0,-211.0,114.0,-32.0,54.0,0.0,0
40.0,-202.0,114.0,-31.0,57.0,2.0,0
38.0,-203.0,112.0,-35.0,60.0,-1.0,0
38.0,-201.0,119.0,-37.0,60.0,0.0,0
38.0,-201.0,115.0,-42.0,63.0,-3.0,0
38.0,-202.0,116.0,-50.0,64.0,-1.0,0
38.0,-206.0,114.0,-56.0,65.0,-4.0,0
38.0,-206.0,115.0,-64.0,65.0,-2.0,0
35.0,-204.0,113.0,-71.0,64.0,-4.0,0
39.0,-202.0,115.0,-78.0,61.0,-1.0,0
36.0,-201.0,112.0,-84.0,61.0,-5.0,0
33.0,-207.0,108.0,-88.0,61.0,-3.0,0
39.0,-201.0,116.0,-91.0,59.0,-4.0,0
36.0,-203.0,115.0,-96.0,57.0,-2.0,0
37.0,-202.0,114.0,-100.0,57.0,-4.0,0
36.0,-203.0,115.0,-105.0,54.0,0.0,0
37.0,-203.0,111.0,-110.0,55.0,-3.0,0
38.0,-203.0,116.0,-114.0,54.0,-1.0,0
36.0,-201.0,114.0,-118.0,53.0,-4.0,0
33.0,-204.0,107.0,-121.0,53.0,-3.0,0
38.0,-204.0,109.0,-123.0,53.0,-4.0,0
36.0,-191.0,98.0,-126.0,53.0,-2.0,0
37.0,-206.0,114.0,-124.0,54.0,-4.0,0
35.0,-203.0,113.0,-124.0,54.0,-3.0,0
36.0,-205.0,114.0,-122.0,56.0,-6.0,0
39.0,-206.0,113.0,-119.0,57.0,-5.0,0
33.0,-206.0,112.0,-119.0,57.0,-7.0,0
39.0,-204.0,113.0,-118.0,58.0,-6.0,0
38.0,-206.0,108.0,-116.0,60.0,-10.0,0
36.0,-204.0,111.0,-116.0,60.0,-7.0,0
37.0,-206.0,114.0,-116.0,59.0,-7.0,0
39.0,-205.0,109.0,-116.0,58.0,-5.0,0
38.0,-207.0,123.0,-116.0,57.0,-8.0,0
38.0,-206.0,110.0,-116.0,56.0,-5.0,0
37.0,-207.0,112.0,-116.0,56.0,-6.0,0
38.0,-206.0,109.0,-114.0,54.0,-4.0,0
39.0,-202.0,109.0,-114.0,52.0,-6.0,0
35.0,-205.0,110.0,-116.0,50.0,-2.0,0
35.0,-204.0,113.0,-120.0,48.0,-5.0,0
40.0,-203.0,111.0,-124.0,47.0,-2.0,0
38.0,-204.0,111.0,-127.0,44.0,-3.0,0
37.0,-204.0,110.0,-130.0,43.0,-1.0,0
37.0,-203.0,109.0,-135.0,41.0,-2.0,0
39.0,-204.0,114.0,-139.0,40.0,0.0,0
37.0,-203.0,111.0,-142.0,41.0,1.0,0
38.0,-203.0,109.0,-147.0,40.0,4.0,0
39.0,-204.0,111.0,-151.0,40.0,3.0,0
38.0,-205.0,108.0,-154.0,39.0,5.0,0
39.0,-207.0,104.0,-159.0,38.0,3.0,0
38.0,-207.0,106.0,-159.0,39.0,6.0,0
40.0,-209.0,110.0,-161.0,41.0,3.0,0
37.0,-212.0,106.0,-160.0,39.0,7.0,0
34.0,-206.0,103.0,-156.0,41.0,4.0,0
38.0,-206.0,103.0,-151.0,41.0,4.0,0
35.0,-209.0,114.0,-147.0,41.0,2.0,0
38.0,-208.0,105.0,-137.0,41.0,5.0,0
39.0,-212.0,108.0,-130.0,42.0,2.0,0
38.0,-209.0,107.0,-122.0,42.0,4.0,0
38.0,-210.0,108.0,-113.0,44.0,1.0,0
38.0,-211.0,107.0,-105.0,45.0,4.0,0
38.0,-211.0,106.0,-98.0,44.0,2.0,0
36.0,-211.0,107.0,-91.0,45.0,3.0,0
39.0,-212.0,109.0,-86.0,45.0,0.0,0
40.0,-209.0,109.0,-82.0,44.0,2.0,0
32.0,-210.0,103.0,-77.0,44.0,0.0,0
37.0,-200.0,93.0,-73.0,44.0,2.0,0
39.0,-211.0,104.0,-70.0,44.0,-1.0,0
36.0,-211.0,107.0,-67.0,44.0,1.0,0
37.0,-209.0,106.0,-65.0,44.0,-2.0,0
37.0,-210.0,104.0,-61.0,43.0,1.0,0
35.0,-210.0,108.0,-59.0,43.0,-1.0,0
40.0,-209.0,108.0,-57.0,43.0,1.0,0
41.0,-210.0,107.0,-57.0,46.0,-1.0,0
40.0,-214.0,108.0,-55.0,48.0,-1.0,0
40.0,-210.0,108.0,-51.0,51.0,-3.0,0
36.0,-210.0,106.0,-44.0,53.0,-4.0,0
24.0,-215.0,108.0,-38.0,54.0,-8.0,0
35.0,-213.0,106.0,-34.0,54.0,-5.0,0
39.0,-215.0,107.0,-30.0,55.0,-9.0,0
39.0,-215.0,106.0,-27.0,54.0,-5.0,0
38.0,-214.0,108.0,-25.0,53.0,-8.0,0
37.0,-211.0,105.0,-24.0,54.0,-5.0,0
40.0,-212.0,107.0,-20.0,53.0,-6.0,0
38.0,-213.0,104.0,-18.0,52.0,-3.0,0
40.0,-211.0,104.0,-14.0,52.0,-5.0,0
36.0,-212.0,109.0,-7.0,51.0,-1.0,0
39.0,-210.0,105.0,-2.0,48.0,-3.0,0
32.0,-224.0,121.0,0.0,46.0,-1.0,0
39.0,-207.0,103.0,3.0,41.0,-3.0,0
37.0,-207.0,101.0,3.0,38.0,-1.0,0
37.0,-207.0,102.0,1.0,35.0,-5.0,0
37.0,-206.0,102.0,-1.0,32.0,-3.0,0
38.0,-209.0,107.0,-3.0,33.0,-6.0,0
38.0,-209.0,103.0,-6.0,35.0,-4.0,0
38.0,-210.0,103.0,-12.0,40.0,-5.0,0
38.0,-211.0,106.0,-16.0,42.0,-3.0,0
39.0,-207.0,103.0,-18.0,47.0,-6.0,0
42.0,-211.0,108.0,-23.0,48.0,-5.0,0
35.0,-200.0,92.0,-27.0,52.0,-7.0,0
38.0,-208.0,107.0,-28.0,56.0,-5.0,0
39.0,-207.0,105.0,-29.0,56.0,-8.0,0
37.0,-204.0,105.0,-29.0,56.0,-5.0,0
41.0,-208.0,110.0,-28.0,56.0,-7.0,0
39.0,-210.0,106.0,-26.0,56.0,-4.0,0
40.0,-211.0,105.0,-27.0,56.0,-6.0,0
41.0,-204.0,107.0,-26.0,55.0,-3.0,0
39.0,-208.0,108.0,-27.0,54.0,-3.0,0
39.0,-210.0,108.0,-26.0,55.0,0.0,0
42.0,-211.0,108.0,-24.0,54.0,-1.0,0
42.0,-218.0,114.0,-22.0,52.0,2.0,0
37.0,-209.0,101.0,-21.0,50.0,1.0,0
38.0,-212.0,105.0,-20.0,49.0,3.0,0
38.0,-211.0,104.0,-18.0,47.0,1.0,0
38.0,-208.0,108.0,-16.0,45.0,4.0,0
38.0,-211.0,108.0,-19.0,45.0,1.0,0
37.0,-213.0,105.0,-22.0,44.0,4.0,0
38.0,-209.0,103.0,-23.0,41.0,0.0,0
40.0,-207.0,108.0,-24.0,41.0,2.0,0
39.0,-214.0,102.0,-26.0,42.0,-1.0,0
38.0,-207.0,109.0,-29.0,42.0,3.0,0
41.0,-206.0,99.0,-31.0,41.0,0.0,0
37.0,-206.0,107.0,-33.0,43.0,1.0,0
37.0,-207.0,105.0,-36.0,43.0,1.0,0
38.0,-209.0,101.0,-39.0,47.0,1.0,0
37.0,-209.0,104.0,-40.0,52.0,-1.0,0
38.0,-210.0,106.0,-42.0,56.0,-2.0,0
38.0,-211.0,108.0,-45.0,59.0,-5.0,0
37.0,-211.0,106.0,-47.0,60.0,-2.0,0
35.0,-207.0,107.0,-48.0,60.0,-6.0,0
32.0,-215.0,98.0,-49.0,61.0,-3.0,0
31.0,-208.0,91.0,-49.0,62.0,-3.0,0
39.0,-210.0,104.0,-47.0,61.0,0.0,0
38.0,-213.0,105.0,-48.0,61.0,-3.0,0
38.0,-211.0,106.0,-48.0,61.0,-1.0,0
37.0,-210.0,103.0,-45.0,58.0,-4.0,0
36.0,-209.0,103.0,-43.0,57.0,-1.0,0
38.0,-208.0,107.0,-43.0,54.0,-1.0,0
41.0,-212.0,103.0,-41.0,53.0,0.0,0
35.0,-206.0,105.0,-40.0,50.0,-4.0,0
38.0,-209.0,105.0,-39.0,51.0,-1.0,0
38.0,-210.0,103.0,-37.0,50.0,-4.0,0
34.0,-206.0,87.0,-35.0,52.0,-2.0,0
37.0,-209.0,103.0,-33.0,52.0,-5.0,0
40.0,-212.0,103.0,-34.0,53.0,-2.0,0
38.0,-208.0,104.0,-33.0,53.0,-5.0,0
39.0,-210.0,105.0,-31.0,55.0,-4.0,0
40.0,-210.0,105.0,-29.0,55.0,-5.0,0
37.0,-210.0,105.0,-27.0,55.0,-4.0,0
33.0,-208.0,102.0,-24.0,56.0,-7.0,0
40.0,-210.0,98.0,-23.0,56.0,-3.0,0
38.0,-208.0,106.0,-23.0,55.0,-5.0,0
40.0,-211.0,105.0,-22.0,55.0,-2.0,0
46.0,-209.0,95.0,-21.0,53.0,-5.0,0
39.0,-211.0,105.0,-22.0,53.0,-3.0,0
37.0,-209.0,100.0,-22.0,53.0,-6.0,0
36.0,-209.0,103.0,-22.0,53.0,-3.0,0
39.0,-209.0,104.0,-24.0,51.0,-5.0,0
36.0,-208.0,102.0,-26.0,52.0,-3.0,0
37.0,-212.0,102.0,-26.0,53.0,-4.0,0
40.0,-213.0,102.0,-26.0,52.0,-3.0,0
37.0,-208.0,100.0,-29.0,51.0,-5.0,0
36.0,-210.0,102.0,-31.0,53.0,-4.0,0
42.0,-211.0,105.0,-31.0,57.0,-5.0,0
37.0,-195.0,94.0,-34.0,58.0,-3.0,0
36.0,-211.0,105.0,-34.0,60.0,-5.0,0
39.0,-209.0,107.0,-36.0,60.0,-3.0,0
37.0,-209.0,104.0,-35.0,62.0,-6.0,0
38.0,-211.0,107.0,-32.0,62.0,-3.0,0
41.0,-211.0,107.0,-31.0,63.0,-5.0,0
39.0,-209.0,101.0,-26.0,66.0,-2.0,0
38.0,-212.0,106.0,-24.0,64.0,-5.0,0
37.0,-208.0,104.0,-20.0,64.0,-2.0,0
37.0,-215.0,100.0,-13.0,63.0,-2.0,0
38.0,-213.0,104.0,-10.0,59.0,1.0,0
32.0,-201.0,89.0,-2.0,57.0,1.0,0
36.0,-210.0,102.0,2.0,56.0,2.0,0
37.0,-211.0,101.0,7.0,53.0,3.0,0
37.0,-210.0,104.0,15.0,51.0,8.0,0
41.0,-212.0,103.0,19.0,49.0,6.0,0
37.0,-212.0,104.0,23.0,48.0,9.0,0
39.0,-210.0,101.0,23.0,47.0,8.0,0
41.0,-211.0,101.0,24.0,45.0,9.0,0
39.0,-209.0,104.0,24.0,42.0,6.0,0
35.0,-210.0,105.0,22.0,41.0,6.0,0
42.0,-209.0,108.0,22.0,41.0,3.0,0
30.0,-222.0,117.0,20.0,41.0,3.0,0
38.0,-207.0,105.0,16.0,39.0,1.0,0
38.0,-207.0,105.0,13.0,39.0,3.0,0
36.0,-206.0,104.0,9.0,40.0,-2.0,0
36.0,-205.0,108.0,1.0,41.0,0.0,0
38.0,-209.0,101.0,-6.0,43.0,-2.0,0
36.0,-210.0,105.0,-10.0,46.0,-1.0,0
37.0,-213.0,112.0,-14.0,49.0,-5.0,0
38.0,-211.0,108.0,-14.0,53.0,-3.0,0
39.0,-212.0,106.0,-11.0,57.0,-6.0,0
37.0,-214.0,105.0,-8.0,59.0,-3.0,0
43.0,-214.0,105.0,-6.0,61.0,-5.0,0
38.0,-217.0,108.0,-4.0,65.0,-2.0,0
36.0,-212.0,104.0,1.0,69.0,-2.0,0
39.0,-214.0,106.0,3.0,70.0,3.0,0
40.0,-214.0,104.0,5.0,71.0,2.0,0
37.0,-213.0,105.0,9.0,70.0,6.0,0
38.0,-213.0,104.0,16.0,69.0,6.0,0
39.0,-208.0,102.0,24.0,64.0,8.0,0
37.0,-209.0,105.0,34.0,57.0,6.0,0
38.0,-210.0,107.0,44.0,50.0,9.0,0
40.0,-214.0,104.0,51.0,44.0,5.0,0
31.0,-206.0,102.0,57.0,37.0,6.0,0
39.0,-209.0,103.0,59.0,31.0,2.0,0
35.0,-205.0,103.0,57.0,27.0,1.0,0
35.0,-209.0,106.0,56.0,26.0,-1.0,0
35.0,-208.0,106.0,52.0,30.0,-1.0,0
35.0,-212.0,109.0,48.0,34.0,-6.0,0
39.0,-208.0,106.0,45.0,42.0,-7.0,0
34.0,-210.0,106.0,40.0,48.0,-8.0,0
38.0,-211.0,109.0,36.0,53.0,-8.0,0
37.0,-207.0,112.0,34.0,59.0,-10.0,0
37.0,-209.0,110.0,33.0,64.0,-7.0,0
37.0,-210.0,109.0,32.0,68.0,-9.0,0
35.0,-206.0,110.0,33.0,70.0,-6.0,0
38.0,-213.0,108.0,32.0,72.0,-8.0,0
37.0,-209.0,110.0,31.0,74.0,-5.0,0
40.0,-210.0,108.0,30.0,74.0,-7.0,0
36.0,-209.0,106.0,30.0,72.0,-4.0,0
38.0,-208.0,105.0,28.0,70.0,-5.0,0
44.0,-205.0,106.0,28.0,65.0,-3.0,0
38.0,-211.0,107.0,27.0,63.0,-4.0,0
36.0,-210.0,107.0,30.0,57.0,-2.0,0
33.0,-204.0,103.0,30.0,52.0,-2.0,0
34.0,-225.0,118.0,33.0,47.0,0.0,0
38.0,-207.0,101.0,32.0,43.0,-2.0,0
36.0,-209.0,108.0,30.0,40.0,0.0,0
36.0,-205.0,108.0,28.0,37.0,-3.0,0
37.0,-208.0,106.0,26.0,36.0,0.0,0
37.0,-209.0,107.0,22.0,36.0,-4.0,0
41.0,-207.0,105.0,19.0,38.0,-3.0,0
42.0,-203.0,107.0,16.0,40.0,-5.0,0
36.0,-206.0,109.0,14.0,43.0,-2.0,0
34.0,-206.0,108.0,11.0,46.0,-5.0,0
35.0,-205.0,118.0,11.0,49.0,-2.0,0
38.0,-209.0,108.0,9.0,53.0,-5.0,0
39.0,-209.0,109.0,9.0,56.0,-2.0,0
37.0,-212.0,111.0,10.0,60.0,-6.0,0
36.0,-211.0,107.0,9.0,64.0,-5.0,0
34.0,-208.0,109.0,9.0,66.0,-8.0,0
40.0,-209.0,109.0,9.0,66.0,-5.0,0
39.0,-210.0,108.0,8.0,67.0,-7.0,0
39.0,-206.0,101.0,7.0,66.0,-6.0,0
36.0,-209.0,110.0,9.0,64.0,-7.0,0
39.0,-209.0,110.0,9.0,64.0,-6.0,0
31.0,-217.0,110.0,10.0,65.0,-7.0,0
37.0,-208.0,107.0,11.0,62.0,-6.0,0
34.0,-208.0,106.0,13.0,60.0,-7.0,0
38.0,-207.0,105.0,13.0,58.0,-4.0,0
33.0,-206.0,110.0,12.0,54.0,-6.0,0
36.0,-207.0,105.0,14.0,52.0,-4.0,0
37.0,-208.0,108.0,14.0,51.0,-7.0,0
38.0,-209.0,109.0,15.0,51.0,-6.0,0
37.0,-210.0,108.0,16.0,51.0,-8.0,0
37.0,-206.0,106.0,17.0,52.0,-6.0,0
39.0,-210.0,102.0,19.0,52.0,-9.0,0
37.0,-208.0,117.0,19.0,51.0,-8.0,0
37.0,-206.0,107.0,20.0,53.0,-10.0,0
38.0,-208.0,105.0,20.0,50.0,-8.0,0
37.0,-208.0,107.0,19.0,52.0,-10.0,0
38.0,-209.0,107.0,18.0,54.0,-7.0,0
37.0,-208.0,109.0,17.0,54.0,-9.0,0
39.0,-208.0,113.0,15.0,54.0,-6.0,0
39.0,-207.0,111.0,15.0,54.0,-10.0,0
39.0,-206.0,110.0,12.0,55.0,-7.0,0
37.0,-204.0,107.0,10.0,57.0,-10.0,0
37.0,-211.0,108.0,10.0,56.0,-7.0,0
43.0,-221.0,114.0,9.0,57.0,-9.0,0
40.0,-211.0,104.0,10.0,58.0,-7.0,0
41.0,-210.0,109.0,11.0,59.0,-10.0,0
38.0,-209.0,111.0,11.0,59.0,-9.0,0
38.0,-210.0,108.0,12.0,58.0,-11.0,0
38.0,-208.0,109.0,15.0,58.0,-10.0,0
37.0,-207.0,109.0,17.0,58.0,-11.0,0
38.0,-208.0,109.0,20.0,59.0,-9.0,0
40.0,-208.0,107.0,23.0,62.0,-12.0,0
38.0,-208.0,110.0,22.0,63.0,-11.0,0
39.0,-207.0,109.0,22.0,64.0,-14.0,0
33.0,-208.0,113.0,17.0,66.0,-12.0,0
40.0,-209.0,108.0,15.0,64.0,-14.0,0
39.0,-208.0,111.0,11.0,62.0,-12.0,0
41.0,-208.0,110.0,9.0,61.0,-13.0,0
39.0,-209.0,111.0,7.0,57.0,-12.0,0
41.0,-206.0,111.0,5.0,56.0,-16.0,0
38.0,-207.0,108.0,7.0,53.0,-13.0,0
41.0,-210.0,110.0,9.0,53.0,-16.0,0
39.0,-209.0,109.0,9.0,51.0,-13.0,0
35.0,-209.0,111.0,13.0,49.0,-13.0,0
40.0,-209.0,110.0,16.0,51.0,-11.0,0
45.0,-207.0,96.0,19.0,52.0,-12.0,0
39.0,-207.0,111.0,20.0,53.0,-11.0,0
39.0,-208.0,113.0,24.0,57.0,-13.0,0
38.0,-208.0,110.0,25.0,59.0,-11.0,0
39.0,-206.0,107.0,28.0,58.0,-13.0,0
36.0,-207.0,110.0,29.0,56.0,-11.0,0
37.0,-207.0,109.0,30.0,55.0,-14.0,0
37.0,-209.0,109.0,33.0,53.0,-13.0,0
37.0,-206.0,107.0,35.0,53.0,-14.0,0
38.0,-208.0,113.0,37.0,54.0,-14.0,0
33.0,-208.0,114.0,38.0,56.0,-17.0,0
31.0,-209.0,117.0,40.0,58.0,-16.0,0
36.0,-208.0,110.0,39.0,59.0,-19.0,0
35.0,-206.0,108.0,41.0,60.0,-17.0,0
35.0,-201.0,108.0,40.0,63.0,-18.0,0
33.0,-203.0,108.0,38.0,65.0,-17.0,0
34.0,-203.0,112.0,31.0,63.0,-18.0,0
36.0,-203.0,112.0,23.0,61.0,-16.0,0
36.0,-206.0,107.0,13.0,61.0,-18.0,0
35.0,-207.0,116.0,5.0,62.0,-17.0,0
35.0,-206.0,110.0,0.0,64.0,-19.0,0
37.0,-213.0,113.0,-3.0,62.0,-17.0,0
35.0,-203.0,85.0,0.0,59.0,-17.0,0
39.0,-209.0,109.0,5.0,54.0,-13.0,0
39.0,-208.0,115.0,12.0,51.0,-12.0,0
37.0,-208.0,113.0,22.0,48.0,-6.0,0
40.0,-210.0,112.0,31.0,47.0,-6.0,0
39.0,-211.0,110.0,39.0,49.0,-2.0,0
39.0,-208.0,108.0,47.0,53.0,-4.0,0
41.0,-207.0,108.0,53.0,58.0,-1.0,0
38.0,-208.0,104.0,57.0,62.0,-4.0,0
44.0,-212.0,108.0,56.0,65.0,-5.0,0
30.0,-214.0,118.0,50.0,66.0,-9.0,0
39.0,-202.0,105.0,39.0,66.0,-10.0,0
39.0,-204.0,105.0,27.0,64.0,-12.0,0
39.0,-207.0,112.0,17.0,63.0,-11.0,0
37.0,-204.0,112.0,15.0,63.0,-13.0,0
41.0,-207.0,113.0,18.0,59.0,-12.0,0
39.0,-203.0,114.0,19.0,55.0,-12.0,0
36.0,-199.0,117.0,24.0,49.0,-11.0,0
39.0,-200.0,118.0,24.0,45.0,-10.0,0
39.0,-202.0,116.0,20.0,41.0,-8.0,0
40.0,-199.0,118.0,14.0,39.0,-8.0,0
53.0,-200.0,117.0,10.0,41.0,-5.0,0
41.0,-203.0,114.0,1.0,42.0,-6.0,0
42.0,-200.0,114.0,-5.0,46.0,-3.0,0
38.0,-202.0,109.0,-12.0,50.0,-5.0,0
42.0,-203.0,108.0,-17.0,52.0,-3.0,0
40.0,-207.0,109.0,-21.0,52.0,-5.0,0
36.0,-204.0,112.0,-25.0,54.0,-3.0,0
37.0,-209.0,105.0,-26.0,55.0,-5.0,0
40.0,-205.0,115.0,-27.0,56.0,-3.0,0
36.0,-204.0,110.0,-27.0,55.0,-4.0,0
40.0,-203.0,114.0,-30.0,55.0,-2.0,0
46.0,-193.0,97.0,-34.0,57.0,-4.0,0
39.0,-205.0,116.0,-42.0,62.0,-6.0,0
37.0,-200.0,115.0,-53.0,66.0,-9.0,0
39.0,-199.0,112.0,-70.0,71.0,-7.0,0
40.0,-200.0,114.0,-93.0,78.0,-11.0,0
36.0,-198.0,111.0,-123.0,80.0,-10.0,0
37.0,-197.0,110.0,-146.0,83.0,-11.0,0
39.0,-199.0,109.0,-166.0,81.0,-8.0,0
38.0,-201.0,107.0,-177.0,76.0,-7.0,0
41.0,-204.0,112.0,-178.0,69.0,-2.0,0
35.0,-207.0,110.0,-169.0,65.0,-1.0,0
39.0,-214.0,116.0,-152.0,62.0,4.0,0
39.0,-212.0,108.0,-130.0,59.0,5.0,0
35.0,-213.0,102.0,-105.0,59.0,8.0,0
37.0,-212.0,108.0,-80.0,61.0,6.0,0
36.0,-210.0,108.0,-56.0,66.0,6.0,0
39.0,-211.0,107.0,-41.0,66.0,2.0,0
38.0,-213.0,107.0,-31.0,68.0,0.0,0
36.0,-206.0,104.0,-22.0,69.0,-4.0,0
36.0,-207.0,109.0,-17.0,69.0,-5.0,0
36.0,-210.0,108.0,-12.0,69.0,-9.0,0
33.0,-205.0,109.0,-8.0,69.0,-9.0,0
47.0,-223.0,116.0,-5.0,68.0,-12.0,0
38.0,-206.0,107.0,-3.0,67.0,-11.0,0
37.0,-203.0,108.0,-4.0,67.0,-12.0,0
35.0,-203.0,108.0,-8.0,67.0,-9.0,0
37.0,-205.0,105.0,-13.0,65.0,-7.0,0
38.0,-204.0,110.0,-19.0,63.0,-6.0,0
38.0,-209.0,107.0,-25.0,62.0,-5.0,0
37.0,-208.0,109.0,-29.0,63.0,-4.0,0
36.0,-209.0,110.0,-32.0,62.0,-5.0,0
38.0,-209.0,108.0,-33.0,59.0,-2.0,0
40.0,-211.0,107.0,-33.0,58.0,-1.0,0
32.0,-219.0,110.0,-30.0,58.0,2.0,0
38.0,-211.0,110.0,-25.0,57.0,0.0,0
38.0,-209.0,107.0,-16.0,56.0,1.0,0
37.0,-206.0,109.0,-10.0,56.0,1.0,0
41.0,-212.0,109.0,-3.0,58.0,1.0,0
40.0,-209.0,111.0,4.0,57.0,-2.0,0
36.0,-209.0,109.0,9.0,57.0,0.0,0
39.0,-209.0,111.0,14.0,57.0,-1.0,0
38.0,-207.0,108.0,19.0,57.0,1.0,0
44.0,-207.0,111.0,21.0,58.0,-3.0,0
42.0,-208.0,105.0,22.0,57.0,-2.0,0
37.0,-215.0,124.0,21.0,58.0,-3.0,0
39.0,-205.0,107.0,19.0,57.0,-2.0,0
40.0,-204.0,111.0,16.0,58.0,-4.0,0
39.0,-204.0,109.0,12.0,55.0,-2.0,0
39.0,-204.0,112.0,7.0,55.0,-2.0,0
38.0,-205.0,113.0,0.0,56.0,0.0,0
39.0,-208.0,111.0,-9.0,54.0,-1.0,0
38.0,-204.0,108.0,-15.0,55.0,2.0,0
40.0,-208.0,111.0,-22.0,53.0,1.0,0
39.0,-209.0,113.0,-25.0,52.0,1.0,0
40.0,-200.0,106.0,-27.0,50.0,-1.0,0
36.0,-212.0,123.0,-26.0,48.0,-1.0,0
35.0,-208.0,107.0,-24.0,46.0,-2.0,0
37.0,-210.0,108.0,-22.0,44.0,0.0,0
36.0,-209.0,108.0,-18.0,43.0,-2.0,0
35.0,-209.0,111.0,-14.0,42.0,0.0,0
35.0,-205.0,111.0,-8.0,44.0,-3.0,0
35.0,-206.0,111.0,-6.0,45.0,-2.0,0
31.0,-201.0,112.0,-3.0,47.0,-5.0,0
45.0,-210.0,112.0,6.0,57.0,6.0,0
40.0,-208.0,111.0,7.0,56.0,-5.0,0
37.0,-203.0,113.0,10.0,59.0,-8.0,0
44.0,-205.0,115.0,9.0,64.0,-8.0,0
37.0,-204.0,111.0,8.0,64.0,-6.0,0
41.0,-207.0,109.0,4.0,65.0,-7.0,0
38.0,-205.0,113.0,2.0,66.0,-5.0,0
39.0,-206.0,111.0,-2.0,67.0,-6.0,0
40.0,-205.0,114.0,-5.0,65.0,-5.0,0
38.0,-207.0,109.0,-10.0,62.0,-4.0,0
38.0,-208.0,108.0,-10.0,58.0,-2.0,0
38.0,-204.0,105.0,-12.0,57.0,-5.0,0
39.0,-210.0,110.0,-8.0,55.0,-2.0,0
37.0,-212.0,112.0,-5.0,55.0,-3.0,0
22.0,-202.0,103.0,-2.0,53.0,-5.0,0
36.0,-211.0,107.0,0.0,55.0,-6.0,0
38.0,-210.0,110.0,3.0,54.0,-7.0,0
39.0,-211.0,111.0,5.0,54.0,-9.0,0
38.0,-208.0,112.0,7.0,53.0,-7.0,0
40.0,-207.0,108.0,9.0,52.0,-8.0,0
38.0,-204.0,110.0,10.0,49.0,-6.0,0
37.0,-204.0,110.0,11.0,49.0,-7.0,0
34.0,-205.0,109.0,11.0,48.0,-6.0,0
35.0,-204.0,112.0,12.0,48.0,-8.0,0
33.0,-217.0,121.0,12.0,49.0,-10.0,0
36.0,-204.0,111.0,11.0,52.0,-12.0,0
38.0,-209.0,109.0,12.0,54.0,-11.0,0
40.0,-209.0,110.0,10.0,56.0,-13.0,0
39.0,-205.0,108.0,9.0,56.0,-13.0,0
37.0,-211.0,110.0,10.0,60.0,-15.0,0
38.0,-209.0,111.0,9.0,62.0,-13.0,0
36.0,-208.0,113.0,6.0,62.0,-13.0,0
38.0,-210.0,111.0,5.0,63.0,-9.0,0
36.0,-207.0,106.0,10.0,63.0,-8.0,0
37.0,-210.0,104.0,16.0,60.0,-6.0,0
47.0,-211.0,104.0,23.0,59.0,-6.0,0
38.0,-207.0,113.0,29.0,56.0,-5.0,0
37.0,-208.0,111.0,34.0,51.0,-6.0,0
37.0,-206.0,109.0,36.0,45.0,-5.0,0
37.0,-204.0,110.0,38.0,41.0,-6.0,0
36.0,-205.0,112.0,35.0,37.0,-6.0,0
36.0,-203.0,114.0,32.0,35.0,-7.0,0
35.0,-204.0,114.0,30.0,38.0,-6.0,0
40.0,-204.0,109.0,27.0,42.0,-7.0,0
35.0,-207.0,108.0,24.0,45.0,-7.0,0
38.0,-208.0,110.0,22.0,50.0,-8.0,0
40.0,-213.0,117.0,23.0,54.0,-8.0,0
35.0,-207.0,111.0,23.0,57.0,-8.0,0
41.0,-206.0,110.0,23.0,58.0,-6.0,0
38.0,-202.0,111.0,24.0,58.0,-8.0,0
30.0,-203.0,107.0,25.0,59.0,-7.0,0
43.0,-207.0,110.0,22.0,59.0,-5.0,0
39.0,-204.0,110.0,21.0,57.0,-7.0,0
39.0,-206.0,108.0,15.0,56.0,-9.0,0
39.0,-205.0,109.0,13.0,55.0,-8.0,0
41.0,-210.0,111.0,8.0,53.0,-7.0,0
40.0,-205.0,112.0,6.0,49.0,-5.0,0
43.0,-205.0,102.0,4.0,45.0,-5.0,0
38.0,-207.0,113.0,3.0,44.0,-2.0,0
38.0,-206.0,113.0,5.0,43.0,-2.0,0
40.0,-209.0,114.0,6.0,44.0,-1.0,0
39.0,-206.0,109.0,7.0,45.0,-2.0,0
40.0,-208.0,113.0,10.0,46.0,-4.0,0
38.0,-205.0,116.0,11.0,48.0,-6.0,0
42.0,-208.0,107.0,13.0,51.0,-7.0,0
41.0,-204.0,113.0,11.0,53.0,-8.0,0
38.0,-208.0,114.0,10.0,55.0,-7.0,0
43.0,-203.0,113.0,7.0,55.0,-7.0,0
39.0,-207.0,101.0,4.0,53.0,-5.0,0
38.0,-208.0,112.0,3.0,55.0,-7.0,0
40.0,-207.0,112.0,2.0,53.0,-5.0,0
37.0,-204.0,112.0,1.0,53.0,-6.0,0
36.0,-206.0,109.0,1.0,54.0,-4.0,0
40.0,-206.0,114.0,0.0,57.0,-4.0,0
37.0,-203.0,113.0,1.0,57.0,-5.0,0
38.0,-206.0,114.0,3.0,56.0,-6.0,0
37.0,-208.0,112.0,2.0,55.0,-6.0,0
36.0,-209.0,111.0,1.0,55.0,-6.0,0
39.0,-208.0,110.0,1.0,56.0,-5.0,0
37.0,-205.0,111.0,2.0,54.0,-8.0,0
31.0,-205.0,111.0,1.0,55.0,-7.0,0
49.0,-198.0,103.0,2.0,54.0,-9.0,0
37.0,-203.0,112.0,3.0,55.0,-7.0,0
36.0,-204.0,115.0,2.0,53.0,-7.0,0
38.0,-203.0,112.0,2.0,53.0,-8.0,0
39.0,-205.0,114.0,-1.0,53.0,-9.0,0
34.0,-206.0,113.0,-2.0,52.0,-9.0,0
35.0,-203.0,109.0,-6.0,52.0,-9.0,0
40.0,-204.0,113.0,-9.0,54.0,-8.0,0
40.0,-201.0,120.0,-12.0,55.0,-9.0,0
30.0,-203.0,121.0,-12.0,56.0,-8.0,0
38.0,-206.0,110.0,-14.0,57.0,-9.0,0
37.0,-205.0,114.0,-13.0,57.0,-7.0,0
37.0,-207.0,113.0,-13.0,58.0,-6.0,0
38.0,-205.0,113.0,-13.0,57.0,-7.0,0
40.0,-208.0,113.0,-12.0,58.0,-7.0,0
39.0,-205.0,115.0,-10.0,57.0,-6.0,0
41.0,-210.0,114.0,-7.0,57.0,-7.0,0
38.0,-203.0,117.0,-7.0,55.0,-7.0,0
36.0,-204.0,109.0,-3.0,56.0,-9.0,0
36.0,-205.0,111.0,-2.0,57.0,-9.0,0
37.0,-196.0,98.0,0.0,54.0,-9.0,0
38.0,-205.0,110.0,0.0,55.0,-9.0,0
42.0,-204.0,112.0,-1.0,55.0,-9.0,0
38.0,-202.0,110.0,-1.0,54.0,-9.0,0
40.0,-204.0,113.0,-3.0,55.0,-9.0,0
39.0,-203.0,110.0,-5.0,55.0,-7.0,0
39.0,-202.0,112.0,-8.0,54.0,-7.0,0
38.0,-206.0,112.0,-10.0,55.0,-6.0,0
37.0,-205.0,113.0,-12.0,55.0,-7.0,0
39.0,-203.0,114.0,-13.0,55.0,-6.0,0
43.0,-200.0,114.0,-14.0,53.0,-6.0,0
32.0,-205.0,112.0,-14.0,54.0,-6.0,0
37.0,-203.0,113.0,-13.0,54.0,-6.0,0
39.0,-208.0,112.0,-13.0,53.0,-6.0,0
39.0,-206.0,111.0,-12.0,51.0,-7.0,0
36.0,-207.0,111.0,-10.0,53.0,-6.0,0
36.0,-207.0,115.0,-7.0,53.0,-6.0,0
35.0,-209.0,113.0,-5.0,52.0,-7.0,0
37.0,-208.0,110.0,-1.0,52.0,-6.0,0
38.0,-208.0,111.0,1.0,52.0,-6.0,0
40.0,-209.0,114.0,2.0,53.0,-6.0,0
44.0,-206.0,107.0,4.0,53.0,-8.0,0
38.0,-205.0,115.0,5.0,56.0,-8.0,0
40.0,-205.0,112.0,3.0,55.0,-7.0,0
38.0,-201.0,111.0,3.0,53.0,-6.0,0
40.0,-205.0,114.0,0.0,54.0,-5.0,0
39.0,-205.0,113.0,-3.0,54.0,-4.0,0
39.0,-205.0,114.0,-7.0,54.0,-4.0,0
43.0,-203.0,116.0,-8.0,54.0,-4.0,0
40.0,-206.0,113.0,-11.0,54.0,-4.0,0
39.0,-205.0,114.0,-12.0,55.0,-5.0,0
39.0,-206.0,112.0,-13.0,55.0,-5.0,0
31.0,-204.0,113.0,-12.0,55.0,-4.0,0
43.0,-208.0,113.0,-12.0,56.0,-7.0,0
40.0,-207.0,115.0,-12.0,55.0,-6.0,0
38.0,-204.0,109.0,-13.0,56.0,-7.0,0
40.0,-205.0,112.0,-13.0,59.0,-8.0,0
39.0,-203.0,113.0,-14.0,60.0,-8.0,0
36.0,-202.0,113.0,-15.0,60.0,-7.0,0
37.0,-202.0,113.0,-15.0,59.0,-6.0,0
35.0,-200.0,114.0,-17.0,58.0,-6.0,0
39.0,-202.0,114.0,-18.0,57.0,-5.0,0
38.0,-202.0,113.0,-19.0,58.0,-4.0,0
46.0,-204.0,106.0,-21.0,60.0,-6.0,0
38.0,-208.0,111.0,-22.0,61.0,-5.0,0
36.0,-206.0,112.0,-23.0,64.0,-7.0,0
40.0,-206.0,115.0,-25.0,66.0,-7.0,0
39.0,-208.0,114.0,-25.0,66.0,-7.0,0
40.0,-207.0,111.0,-24.0,68.0,-7.0,0
40.0,-207.0,113.0,-23.0,69.0,-6.0,0
37.0,-212.0,115.0,-21.0,69.0,-4.0,0
44.0,-208.0,113.0,-19.0,68.0,-3.0,0
42.0,-211.0,110.0,-12.0,64.0,0.0,0
36.0,-209.0,112.0,-3.0,60.0,-1.0,0
36.0,-207.0,110.0,6.0,59.0,1.0,0
38.0,-207.0,108.0,14.0,57.0,-2.0,0
37.0,-202.0,110.0,17.0,57.0,-4.0,0
38.0,-205.0,114.0,19.0,56.0,-6.0,0
39.0,-205.0,110.0,16.0,55.0,-5.0,0
38.0,-205.0,117.0,11.0,54.0,-7.0,0
38.0,-202.0,114.0,5.0,54.0,-6.0,0
36.0,-202.0,111.0,-1.0,55.0,-6.0,0
38.0,-207.0,117.0,-7.0,56.0,-5.0,0
38.0,-205.0,113.0,-8.0,59.0,-6.0,0
39.0,-208.0,112.0,-9.0,60.0,-4.0,0
27.0,-209.0,122.0,-9.0,62.0,-5.0,0
36.0,-220.0,120.0,-8.0,66.0,-5.0,0
39.0,-207.0,114.0,-5.0,67.0,-7.0,0
36.0,-204.0,114.0,-5.0,68.0,-7.0,0
40.0,-205.0,111.0,-3.0,67.0,-9.0,0
38.0,-204.0,112.0,0.0,65.0,-8.0,0
39.0,-205.0,111.0,-2.0,63.0,-9.0,0
38.0,-202.0,112.0,-2.0,61.0,-6.0,0
40.0,-203.0,111.0,-3.0,59.0,-8.0,0
40.0,-208.0,114.0,-3.0,57.0,-7.0,0
37.0,-207.0,109.0,-2.0,55.0,-7.0,0
32.0,-199.0,112.0,-2.0,51.0,-5.0,0
38.0,-204.0,113.0,0.0,47.0,-5.0,0
35.0,-202.0,113.0,0.0,43.0,-4.0,0
38.0,-202.0,113.0,2.0,43.0,-3.0,0
37.0,-207.0,114.0,3.0,41.0,-3.0,0
38.0,-202.0,113.0,4.0,42.0,-5.0,0
41.0,-207.0,116.0,4.0,43.0,-4.0,0
36.0,-201.0,113.0,3.0,44.0,-6.0,0
36.0,-203.0,109.0,1.0,47.0,-4.0,0
38.0,-205.0,114.0,-2.0,50.0,-4.0,0
40.0,-203.0,109.0,-5.0,52.0,-3.0,0
37.0,-188.0,105.0,-7.0,54.0,-4.0,0
36.0,-204.0,115.0,-9.0,54.0,-5.0,0
39.0,-207.0,110.0,-10.0,56.0,-5.0,0
36.0,-203.0,112.0,-12.0,57.0,-6.0,0
39.0,-203.0,111.0,-13.0,58.0,-8.0,0
38.0,-204.0,116.0,-12.0,59.0,-9.0,0
39.0,-207.0,114.0,-12.0,59.0,-10.0,0
35.0,-203.0,110.0,-13.0,61.0,-9.0,0
39.0,-204.0,113.0,-13.0,59.0,-8.0,0
38.0,-205.0,117.0,-12.0,57.0,-8.0,0
37.0,-204.0,113.0,-11.0,56.0,-7.0,0
39.0,-212.0,115.0,-10.0,53.0,-7.0,0
41.0,-206.0,109.0,-8.0,54.0,-7.0,0
38.0,-207.0,111.0,-8.0,52.0,-6.0,0
39.0,-205.0,112.0,-6.0,53.0,-7.0,0
37.0,-203.0,110.0,-6.0,54.0,-5.0,0
35.0,-202.0,114.0,-6.0,55.0,-5.0,0
35.0,-202.0,109.0,-7.0,56.0,-6.0,0
40.0,-204.0,114.0,-7.0,56.0,-5.0,0
35.0,-202.0,113.0,-7.0,58.0,-5.0,0
39.0,-206.0,109.0,-7.0,57.0,-6.0,0
40.0,-206.0,120.0,-7.0,58.0,-6.0,0
50.0,-194.0,90.0,-6.0,57.0,-6.0,0
39.0,-204.0,113.0,-7.0,58.0,-6.0,0
38.0,-206.0,111.0,-9.0,58.0,-9.0,0
38.0,-204.0,114.0,-8.0,60.0,-9.0,0
38.0,-204.0,116.0,-11.0,60.0,-10.0,0
39.0,-207.0,116.0,-9.0,58.0,-10.0,0
38.0,-206.0,112.0,-10.0,58.0,-11.0,0
39.0,-205.0,112.0,-10.0,57.0,-11.0,0
37.0,-206.0,111.0,-10.0,56.0,-11.0,0
36.0,-207.0,112.0,-8.0,55.0,-10.0,0
37.0,-207.0,109.0,-8.0,55.0,-9.0,0
34.0,-201.0,107.0,-8.0,56.0,-6.0,0
37.0,-203.0,114.0,-8.0,54.0,-8.0,0
39.0,-204.0,112.0,-8.0,54.0,-5.0,0
39.0,-205.0,117.0,-8.0,55.0,-7.0,0
38.0,-207.0,111.0,-8.0,55.0,-4.0,0
40.0,-202.0,112.0,-10.0,56.0,-5.0,0
41.0,-206.0,112.0,-10.0,56.0,-5.0,0
37.0,-207.0,113.0,-11.0,55.0,-6.0,0
38.0,-203.0,112.0,-12.0,56.0,-6.0,0
38.0,-205.0,118.0,-13.0,55.0,-8.0,0
39.0,-214.0,129.0,-12.0,56.0,-7.0,0
38.0,-203.0,114.0,-13.0,57.0,-9.0,0
39.0,-203.0,114.0,-13.0,57.0,-6.0,0
39.0,-205.0,113.0,-15.0,56.0,-7.0,0
37.0,-204.0,116.0,-15.0,57.0,-7.0,0
39.0,-207.0,118.0,-17.0,57.0,-7.0,0
39.0,-206.0,112.0,-16.0,58.0,-6.0,0
36.0,-206.0,112.0,-17.0,58.0,-6.0,0
36.0,-205.0,115.0,-17.0,59.0,-5.0,0
37.0,-204.0,110.0,-16.0,59.0,-7.0,0
36.0,-206.0,114.0,-14.0,58.0,-5.0,0
35.0,-206.0,111.0,-13.0,58.0,-5.0,0
39.0,-207.0,109.0,-10.0,58.0,-6.0,0
40.0,-205.0,112.0,-7.0,60.0,-6.0,0
39.0,-205.0,111.0,-7.0,60.0,-4.0,0
38.0,-203.0,114.0,-6.0,61.0,-6.0,0
38.0,-202.0,111.0,-5.0,60.0,-5.0,0
39.0,-202.0,112.0,-5.0,60.0,-6.0,0
40.0,-205.0,113.0,-6.0,61.0,-6.0,0
39.0,-202.0,116.0,-8.0,59.0,-6.0,0
39.0,-203.0,114.0,-10.0,58.0,-6.0,0
39.0,-202.0,113.0,-14.0,57.0,-8.0,0
39.0,-213.0,132.0,-15.0,54.0,-5.0,0
36.0,-204.0,112.0,-17.0,53.0,-6.0,0
42.0,-203.0,111.0,-17.0,53.0,-5.0,0
38.0,-207.0,116.0,-19.0,54.0,-8.0,0
43.0,-208.0,111.0,-19.0,56.0,-6.0,0
40.0,-205.0,112.0,-18.0,57.0,-8.0,0
37.0,-201.0,116.0,-18.0,59.0,-6.0,0
40.0,-206.0,112.0,-16.0,60.0,-6.0,0
38.0,-203.0,112.0,-15.0,60.0,-6.0,0
38.0,-204.0,112.0,-16.0,59.0,-7.0,0
40.0,-206.0,114.0,-15.0,58.0,-5.0,0
39.0,-200.0,114.0,-16.0,59.0,-7.0,0
37.0,-204.0,113.0,-14.0,60.0,-7.0,0
37.0,-205.0,114.0,-15.0,60.0,-9.0,0
38.0,-203.0,116.0,-12.0,61.0,-9.0,0
38.0,-206.0,112.0,-12.0,61.0,-9.0,0
40.0,-207.0,112.0,-12.0,62.0,-8.0,0
39.0,-207.0,114.0,-12.0,64.0,-8.0,0
37.0,-206.0,110.0,-13.0,65.0,-5.0,0
36.0,-209.0,115.0,-14.0,62.0,-4.0,0
41.0,-207.0,116.0,-11.0,61.0,-2.0,0
35.0,-208.0,117.0,-8.0,58.0,-3.0,0
34.0,-200.0,98.0,-4.0,57.0,-2.0,0
39.0,-204.0,115.0,-1.0,55.0,-3.0,0
39.0,-203.0,110.0,2.0,54.0,-3.0,0
40.0,-201.0,111.0,2.0,51.0,-6.0,0
38.0,-201.0,113.0,0.0,50.0,-7.0,0
38.0,-202.0,114.0,-5.0,49.0,-9.0,0
39.0,-205.0,109.0,-11.0,49.0,-6.0,0
40.0,-202.0,118.0,-17.0,49.0,-8.0,0
37.0,-208.0,112.0,-20.0,48.0,-7.0,0
38.0,-206.0,115.0,-22.0,52.0,-7.0,0
44.0,-208.0,117.0,-22.0,54.0,-4.0,0
39.0,-211.0,118.0,-19.0,57.0,-6.0,0
39.0,-206.0,113.0,-15.0,60.0,-5.0,0
39.0,-206.0,112.0,-11.0,61.0,-7.0,0
39.0,-203.0,117.0,-7.0,63.0,-5.0,0
37.0,-202.0,114.0,-3.0,66.0,-9.0,0
39.0,-204.0,115.0,-1.0,65.0,-7.0,0
39.0,-204.0,113.0,-1.0,64.0,-10.0,0
43.0,-204.0,113.0,-2.0,62.0,-6.0,0
39.0,-202.0,111.0,-4.0,62.0,-8.0,0
39.0,-201.0,111.0,-7.0,59.0,-5.0,0
38.0,-202.0,107.0,-10.0,56.0,-4.0,0
40.0,-203.0,112.0,-12.0,53.0,-2.0,0
41.0,-203.0,109.0,-14.0,50.0,-3.0,0
37.0,-204.0,115.0,-16.0,48.0,-1.0,0
38.0,-202.0,112.0,-16.0,47.0,-1.0,0
40.0,-206.0,111.0,-19.0,47.0,1.0,0
37.0,-204.0,110.0,-20.0,49.0,-3.0,0
38.0,-202.0,112.0,-22.0,50.0,0.0,0
38.0,-204.0,112.0,-23.0,50.0,-3.0,0
39.0,-207.0,112.0,-24.0,53.0,-2.0,0
40.0,-204.0,111.0,-25.0,55.0,-4.0,0
38.0,-203.0,111.0,-25.0,57.0,-3.0,0
37.0,-216.0,124.0,-24.0,59.0,-5.0,0
37.0,-203.0,115.0,-24.0,61.0,-3.0,0
38.0,-206.0,112.0,-22.0,64.0,-6.0,0
41.0,-205.0,111.0,-21.0,65.0,-4.0,0
38.0,-203.0,115.0,-20.0,66.0,-6.0,0
38.0,-207.0,112.0,-20.0,67.0,-5.0,0
39.0,-208.0,115.0,-19.0,66.0,-7.0,0
39.0,-205.0,115.0,-19.0,66.0,-5.0,0
37.0,-205.0,112.0,-20.0,63.0,-7.0,0
36.0,-208.0,115.0,-21.0,60.0,-4.0,0
38.0,-207.0,112.0,-22.0,59.0,-3.0,0
42.0,-223.0,125.0,-25.0,54.0,2.0,0
41.0,-208.0,115.0,-28.0,47.0,0.0,0
42.0,-209.0,110.0,-29.0,42.0,4.0,0
41.0,-205.0,111.0,-28.0,37.0,1.0,0
40.0,-205.0,115.0,-27.0,33.0,0.0,0
39.0,-204.0,113.0,-22.0,27.0,-2.0,0
35.0,-201.0,112.0,-20.0,21.0,-2.0,0
41.0,-202.0,111.0,-20.0,16.0,-7.0,0
43.0,-199.0,104.0,-22.0,15.0,-8.0,0
43.0,-199.0,107.0,-30.0,20.0,-17.0,0
44.0,-187.0,105.0,-40.0,30.0,-23.0,0
41.0,-193.0,108.0,-52.0,45.0,-31.0,0
42.0,-191.0,104.0,-65.0,58.0,-32.0,0
46.0,-193.0,101.0,-80.0,65.0,-34.0,0
42.0,-190.0,105.0,-95.0,72.0,-28.0,0
45.0,-191.0,104.0,-110.0,72.0,-23.0,0
41.0,-191.0,117.0,-125.0,65.0,-13.0,0
43.0,-193.0,120.0,-139.0,54.0,-4.0,0
40.0,-195.0,115.0,-152.0,39.0,10.0,0
39.0,-193.0,114.0,-169.0,22.0,21.0,0
40.0,-196.0,115.0,-189.0,9.0,39.0,0
41.0,-191.0,109.0,-215.0,1.0,46.0,0
40.0,-200.0,115.0,-237.0,7.0,58.0,0
39.0,-202.0,115.0,-251.0,16.0,63.0,0
39.0,-205.0,118.0,-258.0,26.0,71.0,0
39.0,-205.0,115.0,-260.0,39.0,76.0,0
35.0,-209.0,113.0,-263.0,52.0,83.0,0
35.0,-210.0,110.0,-264.0,63.0,89.0,0
33.0,-206.0,111.0,-267.0,77.0,101.0,0
37.0,-212.0,106.0,-275.0,87.0,107.0,0
31.0,-209.0,106.0,-286.0,100.0,120.0,0
35.0,-210.0,100.0,-299.0,116.0,124.0,0
41.0,-223.0,108.0,-312.0,131.0,128.0,0
42.0,-216.0,100.0,-322.0,144.0,124.0,0
44.0,-218.0,100.0,-328.0,156.0,124.0,0
45.0,-219.0,96.0,-329.0,165.0,118.0,0
43.0,-218.0,102.0,-328.0,169.0,116.0,0
46.0,-224.0,103.0,-322.0,166.0,115.0,0
44.0,-224.0,104.0,-311.0,157.0,112.0,0
44.0,-226.0,102.0,-299.0,145.0,105.0,0
42.0,-223.0,98.0,-286.0,132.0,103.0,0
39.0,-224.0,104.0,-267.0,116.0,96.0,0
38.0,-226.0,105.0,-249.0,108.0,94.0,0
36.0,-216.0,100.0,-226.0,107.0,85.0,0
38.0,-222.0,109.0,-200.0,105.0,79.0,0
35.0,-220.0,108.0,-169.0,109.0,68.0,0
37.0,-215.0,109.0,-137.0,116.0,63.0,0
36.0,-212.0,104.0,-109.0,122.0,53.0,0
35.0,-211.0,109.0,-89.0,129.0,48.0,0
37.0,-209.0,105.0,-77.0,135.0,37.0,0
41.0,-208.0,106.0,-72.0,141.0,31.0,0
38.0,-208.0,103.0,-76.0,148.0,19.0,0
35.0,-207.0,109.0,-87.0,153.0,15.0,0
42.0,-211.0,109.0,-98.0,161.0,7.0,0
49.0,-222.0,120.0,-106.0,168.0,6.0,0
37.0,-214.0,105.0,-106.0,183.0,-4.0,0
47.0,-219.0,112.0,-100.0,200.0,-7.0,0
46.0,-221.0,113.0,-91.0,208.0,-21.0,0
45.0,-220.0,112.0,-74.0,217.0,-31.0,0
47.0,-222.0,111.0,-53.0,226.0,-44.0,0
48.0,-222.0,110.0,-32.0,239.0,-53.0,0
47.0,-221.0,108.0,-7.0,249.0,-69.0,0
47.0,-223.0,110.0,22.0,259.0,-80.0,0
47.0,-218.0,107.0,45.0,265.0,-95.0,0
56.0,-222.0,116.0,64.0,268.0,-104.0,0
41.0,-212.0,100.0,82.0,269.0,-118.0,0
45.0,-216.0,105.0,96.0,270.0,-126.0,0
42.0,-215.0,109.0,107.0,269.0,-138.0,0
40.0,-215.0,106.0,111.0,265.0,-142.0,0
41.0,-216.0,103.0,110.0,260.0,-148.0,0
34.0,-211.0,98.0,104.0,253.0,-149.0,0
34.0,-212.0,96.0,91.0,246.0,-150.0,0
33.0,-210.0,94.0,74.0,241.0,-142.0,0
27.0,-209.0,95.0,56.0,236.0,-137.0,0
25.0,-205.0,93.0,36.0,231.0,-123.0,0
16.0,-210.0,96.0,14.0,227.0,-110.0,0
8.0,-203.0,90.0,-6.0,220.0,-92.0,0
17.0,-207.0,90.0,-26.0,215.0,-78.0,0
11.0,-206.0,85.0,-47.0,211.0,-60.0,0
13.0,-209.0,90.0,-70.0,205.0,-44.0,0
10.0,-210.0,89.0,-92.0,200.0,-30.0,0
11.0,-214.0,92.0,-111.0,200.0,-19.0,0
10.0,-220.0,90.0,-134.0,205.0,-14.0,0
8.0,-224.0,93.0,-147.0,215.0,-17.0,0
12.0,-225.0,94.0,-156.0,226.0,-21.0,0
14.0,-228.0,91.0,-156.0,240.0,-34.0,0
16.0,-233.0,88.0,-154.0,257.0,-48.0,0
1.0,-239.0,108.0,-147.0,278.0,-67.0,0
15.0,-229.0,92.0,-142.0,294.0,-77.0,0
14.0,-224.0,86.0,-135.0,300.0,-91.0,0
17.0,-223.0,90.0,-124.0,302.0,-96.0,0
17.0,-218.0,91.0,-114.0,305.0,-106.0,0
18.0,-215.0,91.0,-99.0,301.0,-106.0,0
22.0,-211.0,94.0,-86.0,295.0,-106.0,0
26.0,-207.0,94.0,-79.0,286.0,-104.0,0
27.0,-205.0,102.0,-79.0,275.0,-103.0,0
26.0,-201.0,102.0,-83.0,260.0,-93.0,0
31.0,-198.0,102.0,-89.0,241.0,-91.0,0
11.0,-202.0,112.0,-108.0,231.0,-86.0,0
31.0,-196.0,105.0,-128.0,228.0,-87.0,0
33.0,-197.0,110.0,-149.0,228.0,-84.0,0
33.0,-199.0,106.0,-167.0,228.0,-86.0,0
37.0,-199.0,114.0,-181.0,229.0,-82.0,0
35.0,-198.0,111.0,-193.0,234.0,-92.0,0
36.0,-199.0,118.0,-201.0,242.0,-95.0,0
34.0,-204.0,116.0,-207.0,248.0,-98.0,0
37.0,-198.0,115.0,-213.0,257.0,-101.0,0
39.0,-204.0,119.0,-217.0,265.0,-106.0,0
54.0,-207.0,116.0,-217.0,276.0,-110.0,0
44.0,-207.0,118.0,-210.0,291.0,-122.0,0
44.0,-209.0,121.0,-199.0,309.0,-131.0,0
40.0,-209.0,124.0,-186.0,330.0,-146.0,0
41.0,-208.0,118.0,-168.0,341.0,-155.0,0
40.0,-206.0,124.0,-152.0,354.0,-169.0,0
42.0,-205.0,116.0,-142.0,368.0,-181.0,0
42.0,-207.0,119.0,-138.0,382.0,-191.0,0
36.0,-206.0,117.0,-141.0,391.0,-192.0,0
35.0,-205.0,116.0,-142.0,396.0,-196.0,0
37.0,-203.0,110.0,-148.0,397.0,-196.0,0
29.0,-204.0,111.0,-156.0,393.0,-199.0,0
38.0,-203.0,112.0,-168.0,388.0,-196.0,0
40.0,-204.0,110.0,-181.0,385.0,-187.0,0
38.0,-200.0,107.0,-207.0,384.0,-176.0,0
31.0,-200.0,107.0,-233.0,381.0,-168.0,0
28.0,-202.0,103.0,-263.0,374.0,-152.0,0
23.0,-204.0,99.0,-290.0,366.0,-137.0,0
19.0,-202.0,98.0,-314.0,349.0,-114.0,0
18.0,-208.0,92.0,-342.0,328.0,-91.0,0
16.0,-208.0,94.0,-369.0,306.0,-70.0,0
19.0,-213.0,86.0,-397.0,287.0,-54.0,0
16.0,-219.0,87.0,-420.0,275.0,-35.0,0
17.0,-220.0,88.0,-442.0,259.0,-25.0,0
19.0,-225.0,85.0,-449.0,242.0,-7.0,0
21.0,-233.0,82.0,-444.0,223.0,5.0,0
21.0,-234.0,77.0,-429.0,205.0,19.0,0
22.0,-234.0,77.0,-406.0,190.0,26.0,0
24.0,-232.0,75.0,-380.0,172.0,37.0,0
28.0,-230.0,74.0,-354.0,155.0,43.0,0
29.0,-228.0,80.0,-327.0,140.0,55.0,0
28.0,-221.0,81.0,-299.0,126.0,64.0,0
29.0,-220.0,80.0,-277.0,110.0,76.0,0
23.0,-218.0,83.0,-269.0,93.0,82.0,0
24.0,-214.0,79.0,-276.0,73.0,92.0,0
17.0,-209.0,79.0,-296.0,56.0,103.0,0
15.0,-202.0,80.0,-324.0,40.0,118.0,0
11.0,-201.0,75.0,-363.0,27.0,129.0,0
13.0,-203.0,74.0,-411.0,18.0,141.0,0
11.0,-203.0,75.0,-466.0,18.0,148.0,0
15.0,-202.0,71.0,-523.0,23.0,157.0,0
17.0,-209.0,74.0,-579.0,29.0,163.0,0
22.0,-216.0,75.0,-630.0,36.0,178.0,0
25.0,-219.0,74.0,-682.0,42.0,185.0,0
23.0,-229.0,81.0,-716.0,48.0,198.0,0
30.0,-229.0,70.0,-741.0,58.0,207.0,0
30.0,-226.0,66.0,-759.0,74.0,221.0,0
30.0,-229.0,66.0,-769.0,96.0,234.0,0
34.0,-232.0,64.0,-773.0,127.0,251.0,0
36.0,-233.0,68.0,-771.0,164.0,257.0,0
39.0,-236.0,70.0,-749.0,200.0,264.0,0
40.0,-239.0,76.0,-708.0,216.0,263.0,0
37.0,-242.0,77.0,-657.0,195.0,268.0,0
32.0,-244.0,73.0,-600.0,109.0,278.0,0
37.0,-252.0,67.0,-553.0,22.0,297.0,0
27.0,-255.0,75.0,-501.0,-53.0,318.0,0
26.0,-248.0,68.0,-450.0,-106.0,341.0,0
20.0,-251.0,69.0,-397.0,-125.0,356.0,0
12.0,-250.0,72.0,-351.0,-121.0,375.0,0
8.0,-249.0,74.0,-325.0,-103.0,391.0,0
8.0,-249.0,79.0,-321.0,-77.0,411.0,0
7.0,-246.0,82.0,-330.0,-41.0,421.0,0
14.0,-246.0,85.0,-348.0,1.0,434.0,0
19.0,-242.0,85.0,-379.0,53.0,443.0,0
32.0,-241.0,83.0,-408.0,90.0,451.0,0
40.0,-232.0,80.0,-432.0,134.0,450.0,0
47.0,-221.0,69.0,-455.0,165.0,454.0,0
46.0,-232.0,83.0,-472.0,191.0,454.0,0
44.0,-231.0,85.0,-486.0,206.0,476.0,0
46.0,-231.0,87.0,-484.0,221.0,475.0,0
52.0,-236.0,86.0,-467.0,225.0,482.0,0
50.0,-236.0,84.0,-437.0,226.0,485.0,0
47.0,-237.0,82.0,-403.0,228.0,495.0,0
46.0,-236.0,73.0,-365.0,223.0,496.0,0
39.0,-234.0,71.0,-345.0,224.0,502.0,0
43.0,-236.0,70.0,-337.0,225.0,506.0,0
44.0,-240.0,68.0,-337.0,236.0,505.0,0
46.0,-240.0,67.0,-336.0,250.0,492.0,0
41.0,-237.0,76.0,-342.0,272.0,484.0,0
46.0,-241.0,69.0,-355.0,297.0,476.0,0
45.0,-241.0,78.0,-372.0,324.0,471.0,0
39.0,-243.0,78.0,-392.0,348.0,461.0,0
39.0,-240.0,75.0,-413.0,378.0,454.0,0
33.0,-244.0,75.0,-418.0,407.0,434.0,0
26.0,-243.0,75.0,-415.0,439.0,426.0,0
21.0,-241.0,73.0,-400.0,466.0,423.0,0
24.0,-240.0,71.0,-376.0,485.0,425.0,0
16.0,-244.0,72.0,-344.0,507.0,417.0,0
7.0,-248.0,69.0,-310.0,522.0,412.0,0
11.0,-251.0,69.0,-281.0,527.0,402.0,0
11.0,-245.0,59.0,-264.0,518.0,398.0,0
11.0,-242.0,58.0,-254.0,517.0,392.0,0
4.0,-243.0,57.0,-259.0,512.0,389.0,0
1.0,-238.0,59.0,-275.0,514.0,384.0,0
2.0,-242.0,61.0,-290.0,529.0,385.0,0
5.0,-242.0,60.0,-308.0,549.0,382.0,0
3.0,-238.0,69.0,-319.0,580.0,386.0,0
-6.0,-238.0,68.0,-325.0,613.0,388.0,0
-5.0,-232.0,62.0,-328.0,633.0,398.0,0
-20.0,-225.0,73.0,-320.0,655.0,398.0,0
-16.0,-225.0,51.0,-303.0,667.0,402.0,0
-13.0,-227.0,50.0,-285.0,680.0,404.0,0
-20.0,-222.0,48.0,-263.0,714.0,423.0,0
-23.0,-220.0,40.0,-237.0,757.0,436.0,0
-32.0,-218.0,31.0,-227.0,808.0,458.0,0
-25.0,-221.0,30.0,-233.0,850.0,475.0,0
-27.0,-215.0,28.0,-241.0,897.0,490.0,0
-27.0,-215.0,27.0,-247.0,945.0,507.0,0
-24.0,-223.0,33.0,-249.0,977.0,525.0,0
-33.0,-235.0,48.0,-252.0,995.0,533.0,0
-12.0,-225.0,43.0,-256.0,1012.0,542.0,0
-9.0,-234.0,49.0,-248.0,1033.0,540.0,0
-4.0,-235.0,48.0,-245.0,1048.0,526.0,0
-7.0,-238.0,45.0,-252.0,1065.0,516.0,0
-2.0,-240.0,51.0,-267.0,1077.0,506.0,0
-7.0,-243.0,50.0,-290.0,1091.0,488.0,0
-4.0,-248.0,49.0,-302.0,1109.0,474.0,0
-2.0,-253.0,50.0,-305.0,1142.0,459.0,0
-6.0,-255.0,55.0,-305.0,1193.0,452.0,0
-4.0,-259.0,52.0,-289.0,1250.0,442.0,0
-7.0,-274.0,59.0,-263.0,1310.0,430.0,0
-19.0,-269.0,58.0,-229.0,1362.0,419.0,0
-36.0,-270.0,56.0,-184.0,1388.0,400.0,0
-46.0,-269.0,55.0,-129.0,1393.0,372.0,0
-58.0,-264.0,52.0,-83.0,1393.0,349.0,0
-60.0,-261.0,49.0,-49.0,1389.0,327.0,0
-63.0,-257.0,42.0,-29.0,1388.0,309.0,0
-65.0,-251.0,45.0,-17.0,1397.0,286.0,0
-62.0,-242.0,46.0,-13.0,1404.0,263.0,0
-63.0,-236.0,38.0,-12.0,1410.0,233.0,0
-55.0,-227.0,37.0,-15.0,1417.0,213.0,0
-44.0,-211.0,27.0,-30.0,1413.0,193.0,0
-51.0,-222.0,33.0,-53.0,1414.0,180.0,0
-48.0,-218.0,29.0,-91.0,1418.0,170.0,0
-46.0,-216.0,28.0,-123.0,1427.0,173.0,0
-41.0,-214.0,28.0,-147.0,1442.0,177.0,0
-40.0,-217.0,25.0,-170.0,1462.0,190.0,0
-39.0,-218.0,21.0,-193.0,1483.0,199.0,0
-38.0,-222.0,17.0,-221.0,1503.0,209.0,0
-54.0,-227.0,19.0,-246.0,1523.0,211.0,0
-52.0,-228.0,15.0,-268.0,1531.0,210.0,0
-60.0,-230.0,12.0,-286.0,1531.0,201.0,0
-71.0,-242.0,20.0,-306.0,1527.0,194.0,0
-69.0,-236.0,10.0,-326.0,1526.0,183.0,0
-73.0,-239.0,7.0,-332.0,1524.0,174.0,0
-76.0,-241.0,10.0,-338.0,1518.0,158.0,0
-78.0,-244.0,15.0,-337.0,1505.0,144.0,0
-78.0,-241.0,12.0,-333.0,1483.0,126.0,0
-76.0,-238.0,16.0,-325.0,1458.0,108.0,0
-75.0,-232.0,16.0,-314.0,1432.0,90.0,0
-71.0,-230.0,19.0,-304.0,1415.0,82.0,0
-66.0,-226.0,18.0,-297.0,1404.0,72.0,0
-57.0,-222.0,12.0,-306.0,1397.0,72.0,0
-47.0,-216.0,15.0,-339.0,1387.0,71.0,0
-51.0,-221.0,9.0,-374.0,1375.0,78.0,0
-51.0,-220.0,10.0,-412.0,1354.0,82.0,0
-49.0,-225.0,5.0,-442.0,1327.0,92.0,0
-48.0,-228.0,2.0,-467.0,1302.0,97.0,0
-51.0,-233.0,0.0,-481.0,1282.0,111.0,0
-49.0,-239.0,-1.0,-488.0,1267.0,131.0,0
-50.0,-238.0,-4.0,-488.0,1257.0,156.0,0
-55.0,-246.0,-4.0,-488.0,1243.0,176.0,0
-61.0,-244.0,-4.0,-497.0,1225.0,194.0,0
-69.0,-250.0,-4.0,-515.0,1202.0,201.0,0
-69.0,-258.0,-1.0,-534.0,1176.0,208.0,0
-80.0,-255.0,-8.0,-546.0,1143.0,202.0,0
-89.0,-259.0,-3.0,-557.0,1112.0,202.0,0
-87.0,-261.0,0.0,-564.0,1081.0,197.0,0
-97.0,-261.0,-5.0,-564.0,1047.0,194.0,0
-97.0,-260.0,3.0,-559.0,1012.0,192.0,0
-97.0,-257.0,1.0,-549.0,979.0,189.0,0
-100.0,-258.0,1.0,-541.0,949.0,183.0,0
-98.0,-255.0,3.0,-532.0,911.0,180.0,0
-94.0,-254.0,2.0,-523.0,882.0,174.0,0
-98.0,-248.0,6.0,-517.0,858.0,173.0,0
-98.0,-234.0,11.0,-519.0,830.0,169.0,0
-89.0,-241.0,7.0,-529.0,800.0,166.0,0
-88.0,-236.0,9.0,-546.0,764.0,160.0,0
-82.0,-235.0,8.0,-564.0,726.0,162.0,0
-80.0,-238.0,11.0,-580.0,688.0,158.0,0
-79.0,-242.0,8.0,-597.0,656.0,160.0,0
-73.0,-245.0,9.0,-613.0,625.0,157.0,0
-67.0,-249.0,8.0,-628.0,592.0,157.0,0
-66.0,-249.0,6.0,-646.0,567.0,143.0,0
-62.0,-253.0,12.0,-660.0,544.0,127.0,0
-62.0,-250.0,8.0,-671.0,523.0,112.0,0
-54.0,-260.0,17.0,-686.0,508.0,103.0,0
-65.0,-256.0,-1.0,-703.0,497.0,94.0,0
-67.0,-257.0,0.0,-730.0,484.0,96.0,0
-74.0,-257.0,-6.0,-758.0,462.0,101.0,0
-78.0,-262.0,-6.0,-782.0,433.0,118.0,0
-83.0,-267.0,-3.0,-806.0,388.0,142.0,0
-86.0,-273.0,-5.0,-817.0,338.0,186.0,0
-87.0,-272.0,-6.0,-814.0,304.0,218.0,0
-88.0,-280.0,-5.0,-804.0,279.0,244.0,0
-95.0,-286.0,-6.0,-793.0,252.0,262.0,0
-101.0,-281.0,-18.0,-785.0,208.0,276.0,0
-104.0,-292.0,-13.0,-779.0,158.0,284.0,0
-112.0,-294.0,-18.0,-779.0,116.0,301.0,0
-110.0,-300.0,-20.0,-780.0,78.0,317.0,0
-115.0,-305.0,-30.0,-784.0,47.0,337.0,0
-121.0,-304.0,-40.0,-796.0,23.0,358.0,0
-118.0,-310.0,-47.0,-815.0,-9.0,391.0,0
-119.0,-312.0,-48.0,-844.0,-27.0,412.0,0
-111.0,-319.0,-57.0,-869.0,-35.0,432.0,0
-104.0,-319.0,-58.0,-889.0,-39.0,450.0,0
-92.0,-320.0,-56.0,-897.0,-42.0,464.0,0
-85.0,-318.0,-62.0,-887.0,-32.0,472.0,0
-72.0,-323.0,-50.0,-864.0,-21.0,480.0,0
-62.0,-320.0,-50.0,-837.0,-4.0,481.0,0
-57.0,-319.0,-47.0,-801.0,25.0,489.0,0
-49.0,-314.0,-47.0,-745.0,61.0,499.0,0
-39.0,-313.0,-48.0,-657.0,96.0,514.0,0
-46.0,-304.0,-50.0,-571.0,125.0,515.0,0
-49.0,-305.0,-48.0,-480.0,158.0,518.0,0
-44.0,-300.0,-48.0,-399.0,182.0,501.0,0
-60.0,-296.0,-45.0,-332.0,207.0,473.0,0
-72.0,-291.0,-53.0,-276.0,241.0,444.0,0
-79.0,-296.0,-47.0,-234.0,282.0,414.0,0
-96.0,-292.0,-46.0,-200.0,329.0,378.0,0
-106.0,-290.0,-45.0,-162.0,376.0,344.0,0
-114.0,-288.0,-53.0,-125.0,423.0,308.0,0
-122.0,-283.0,-48.0,-94.0,471.0,278.0,0
-124.0,-278.0,-52.0,-79.0,492.0,258.0,0
-128.0,-276.0,-60.0,-76.0,496.0,246.0,0
-122.0,-270.0,-64.0,-79.0,486.0,239.0,0
-123.0,-266.0,-65.0,-94.0,464.0,233.0,0
-115.0,-264.0,-65.0,-110.0,428.0,227.0,0
-112.0,-244.0,-81.0,-129.0,392.0,220.0,0
-102.0,-257.0,-70.0,-140.0,360.0,216.0,0
-93.0,-257.0,-70.0,-142.0,336.0,216.0,0
-86.0,-260.0,-77.0,-137.0,325.0,213.0,0
-82.0,-263.0,-75.0,-119.0,322.0,208.0,0
-81.0,-259.0,-72.0,-93.0,322.0,204.0,0
-82.0,-262.0,-67.0,-65.0,321.0,207.0,0
-84.0,-263.0,-73.0,-41.0,316.0,211.0,0
-81.0,-260.0,-75.0,-26.0,312.0,218.0,0
-87.0,-260.0,-72.0,-18.0,305.0,225.0,0
-87.0,-259.0,-72.0,-10.0,301.0,239.0,0
-84.0,-259.0,-73.0,-5.0,296.0,244.0,0
-92.0,-261.0,-70.0,1.0,293.0,249.0,0
-91.0,-262.0,-74.0,13.0,293.0,243.0,0
-94.0,-256.0,-77.0,29.0,294.0,232.0,0
-88.0,-258.0,-79.0,41.0,299.0,215.0,0
-85.0,-257.0,-75.0,51.0,309.0,202.0,0
-81.0,-255.0,-82.0,58.0,314.0,185.0,0
-79.0,-251.0,-84.0,54.0,321.0,167.0,0
-76.0,-251.0,-82.0,42.0,328.0,152.0,0
-72.0,-253.0,-78.0,30.0,332.0,141.0,0
-71.0,-255.0,-78.0,24.0,330.0,133.0,0
-73.0,-255.0,-79.0,23.0,328.0,135.0,0
-62.0,-256.0,-79.0,28.0,326.0,134.0,0
-65.0,-256.0,-79.0,41.0,326.0,138.0,0
-63.0,-256.0,-81.0,63.0,327.0,144.0,0
-66.0,-251.0,-81.0,89.0,327.0,152.0,0
-61.0,-252.0,-80.0,120.0,328.0,155.0,0
-60.0,-250.0,-77.0,155.0,335.0,162.0,0
-60.0,-245.0,-74.0,192.0,346.0,168.0,0
-58.0,-244.0,-76.0,231.0,360.0,177.0,0
-63.0,-244.0,-74.0,268.0,383.0,184.0,0
-59.0,-238.0,-78.0,294.0,403.0,193.0,0
-58.0,-240.0,-62.0,302.0,424.0,200.0,0
-59.0,-230.0,-80.0,287.0,449.0,202.0,0
-57.0,-228.0,-80.0,262.0,467.0,201.0,0
-62.0,-231.0,-79.0,229.0,483.0,202.0,0
-66.0,-227.0,-75.0,203.0,494.0,202.0,0
-69.0,-229.0,-71.0,188.0,496.0,208.0,0
-71.0,-231.0,-66.0,181.0,497.0,216.0,0
-74.0,-232.0,-63.0,185.0,490.0,230.0,0
-79.0,-237.0,-66.0,190.0,478.0,241.0,0
-84.0,-236.0,-66.0,207.0,459.0,257.0,0
-88.0,-237.0,-61.0,232.0,441.0,282.0,0
-94.0,-239.0,-68.0,276.0,422.0,304.0,0
-93.0,-234.0,-60.0,322.0,409.0,318.0,0
-94.0,-236.0,-58.0,370.0,405.0,331.0,0
-93.0,-233.0,-58.0,423.0,413.0,336.0,0
-93.0,-233.0,-55.0,474.0,433.0,333.0,0
-90.0,-227.0,-57.0,517.0,457.0,326.0,0
-88.0,-227.0,-59.0,550.0,488.0,317.0,0
-82.0,-223.0,-59.0,566.0,525.0,303.0,0
-77.0,-217.0,-61.0,568.0,568.0,285.0,0
-72.0,-215.0,-64.0,559.0,628.0,260.0,0
-73.0,-208.0,-67.0,531.0,711.0,238.0,0
-62.0,-205.0,-74.0,500.0,782.0,220.0,0
-61.0,-205.0,-71.0,455.0,848.0,208.0,0
-41.0,-204.0,-68.0,407.0,908.0,199.0,0
-51.0,-192.0,-77.0,360.0,955.0,198.0,0
-48.0,-193.0,-79.0,319.0,994.0,201.0,0
-51.0,-195.0,-77.0,284.0,1022.0,213.0,0
-52.0,-201.0,-82.0,252.0,1044.0,230.0,0
-59.0,-194.0,-85.0,217.0,1047.0,257.0,0
-68.0,-192.0,-95.0,192.0,1040.0,303.0,0
-69.0,-193.0,-107.0,167.0,1034.0,352.0,0
-75.0,-192.0,-113.0,146.0,1034.0,406.0,0
-81.0,-181.0,-114.0,146.0,1056.0,459.0,0
-74.0,-189.0,-110.0,164.0,1085.0,488.0,0
-72.0,-184.0,-111.0,205.0,1108.0,492.0,0
-78.0,-185.0,-113.0,259.0,1117.0,487.0,0
-84.0,-178.0,-114.0,309.0,1127.0,487.0,0
-94.0,-172.0,-113.0,349.0,1127.0,486.0,0
-97.0,-172.0,-109.0,375.0,1109.0,480.0,0
-105.0,-167.0,-111.0,391.0,1076.0,439.0,0
-112.0,-165.0,-111.0,388.0,1043.0,397.0,0
-131.0,-168.0,-106.0,379.0,1025.0,349.0,0
-137.0,-153.0,-99.0,375.0,1013.0,307.0,0
-148.0,-154.0,-103.0,370.0,997.0,267.0,0
-157.0,-155.0,-100.0,359.0,977.0,229.0,0
-163.0,-154.0,-94.0,349.0,961.0,196.0,0
-164.0,-152.0,-98.0,341.0,958.0,164.0,0
-174.0,-146.0,-87.0,332.0,969.0,131.0,0
-168.0,-150.0,-88.0,327.0,983.0,111.0,0
-163.0,-148.0,-89.0,316.0,1001.0,87.0,0
-157.0,-149.0,-90.0,294.0,1033.0,67.0,0
-150.0,-149.0,-89.0,268.0,1062.0,47.0,0
-138.0,-151.0,-83.0,239.0,1096.0,27.0,0
-118.0,-174.0,-83.0,211.0,1134.0,12.0,0
-103.0,-168.0,-91.0,181.0,1178.0,1.0,0
-87.0,-168.0,-93.0,153.0,1228.0,-14.0,0
-76.0,-175.0,-99.0,133.0,1277.0,-26.0,0
-67.0,-175.0,-99.0,122.0,1309.0,-45.0,0
-60.0,-179.0,-109.0,120.0,1336.0,-58.0,0
-52.0,-182.0,-113.0,120.0,1352.0,-69.0,0
-50.0,-179.0,-117.0,130.0,1363.0,-79.0,0
-50.0,-182.0,-118.0,144.0,1372.0,-85.0,0
-48.0,-183.0,-119.0,163.0,1389.0,-93.0,0
-54.0,-185.0,-119.0,190.0,1405.0,-103.0,0
-63.0,-191.0,-104.0,228.0,1418.0,-107.0,0
-72.0,-186.0,-111.0,273.0,1426.0,-116.0,0
-78.0,-186.0,-116.0,318.0,1440.0,-118.0,0
-88.0,-183.0,-110.0,364.0,1459.0,-120.0,0
-97.0,-184.0,-107.0,411.0,1480.0,-120.0,0
-107.0,-187.0,-105.0,453.0,1496.0,-125.0,0
-117.0,-189.0,-101.0,501.0,1500.0,-131.0,0
-122.0,-192.0,-99.0,538.0,1504.0,-135.0,0
-123.0,-188.0,-91.0,574.0,1503.0,-140.0,0
-132.0,-193.0,-97.0,611.0,1497.0,-145.0,0
-137.0,-192.0,-99.0,640.0,1484.0,-145.0,0
-143.0,-205.0,-78.0,660.0,1465.0,-147.0,0
-135.0,-202.0,-91.0,671.0,1444.0,-152.0,0
-135.0,-207.0,-90.0,683.0,1421.0,-158.0,0
-126.0,-209.0,-94.0,690.0,1397.0,-167.0,0
-122.0,-219.0,-93.0,692.0,1377.0,-181.0,0
-118.0,-224.0,-100.0,693.0,1361.0,-195.0,0
-116.0,-228.0,-96.0,697.0,1342.0,-208.0,0
-119.0,-228.0,-96.0,708.0,1323.0,-219.0,0
-126.0,-231.0,-99.0,729.0,1307.0,-223.0,0
-131.0,-230.0,-98.0,758.0,1283.0,-223.0,0
-134.0,-226.0,-93.0,788.0,1250.0,-223.0,0
-119.0,-221.0,-97.0,824.0,1213.0,-220.0,0
-130.0,-224.0,-91.0,866.0,1184.0,-217.0,0
-126.0,-218.0,-93.0,913.0,1168.0,-219.0,0
-130.0,-216.0,-83.0,962.0,1157.0,-229.0,0
-125.0,-215.0,-81.0,1017.0,1154.0,-240.0,0
-120.0,-213.0,-78.0,1054.0,1151.0,-253.0,0
-116.0,-215.0,-80.0,1078.0,1164.0,-268.0,0
-104.0,-213.0,-78.0,1081.0,1189.0,-283.0,0
-104.0,-216.0,-78.0,1063.0,1222.0,-302.0,0
-104.0,-213.0,-67.0,1026.0,1251.0,-324.0,0
-93.0,-215.0,-73.0,983.0,1264.0,-335.0,0
-101.0,-218.0,-66.0,926.0,1254.0,-342.0,0
-92.0,-224.0,-72.0,871.0,1227.0,-342.0,0
-90.0,-227.0,-74.0,807.0,1183.0,-340.0,0
-89.0,-233.0,-77.0,761.0,1133.0,-340.0,0
-91.0,-237.0,-77.0,716.0,1083.0,-334.0,0
-93.0,-242.0,-86.0,682.0,1036.0,-325.0,0
-97.0,-244.0,-78.0,659.0,979.0,-311.0,0
-105.0,-246.0,-71.0,647.0,923.0,-299.0,0
-113.0,-249.0,-70.0,650.0,866.0,-285.0,0
-114.0,-255.0,-68.0,665.0,816.0,-270.0,0
-116.0,-258.0,-70.0,686.0,781.0,-265.0,0
-113.0,-257.0,-48.0,713.0,757.0,-259.0,0
-123.0,-255.0,-61.0,744.0,735.0,-259.0,0
-128.0,-255.0,-62.0,763.0,716.0,-263.0,0
-134.0,-250.0,-61.0,770.0,691.0,-269.0,0
-137.0,-249.0,-57.0,764.0,660.0,-279.0,0
-137.0,-249.0,-60.0,743.0,623.0,-291.0,0
-136.0,-242.0,-60.0,711.0,583.0,-306.0,0
-133.0,-237.0,-59.0,681.0,533.0,-326.0,0
-127.0,-237.0,-64.0,652.0,477.0,-351.0,0
-130.0,-229.0,-59.0,630.0,422.0,-373.0,0
-123.0,-225.0,-63.0,607.0,367.0,-392.0,0
-106.0,-219.0,-68.0,576.0,301.0,-403.0,0
-107.0,-216.0,-60.0,552.0,252.0,-414.0,0
-104.0,-209.0,-64.0,529.0,207.0,-422.0,0
-101.0,-205.0,-57.0,503.0,171.0,-428.0,0
-96.0,-205.0,-57.0,475.0,138.0,-432.0,0
-92.0,-202.0,-60.0,446.0,111.0,-440.0,0
-92.0,-200.0,-52.0,414.0,82.0,-444.0,0
-94.0,-199.0,-54.0,386.0,51.0,-444.0,0
-90.0,-192.0,-62.0,351.0,19.0,-435.0,0
-95.0,-193.0,-55.0,309.0,-17.0,-422.0,0
-93.0,-191.0,-62.0,248.0,-54.0,-409.0,0
-84.0,-190.0,-63.0,197.0,-78.0,-400.0,0
-84.0,-193.0,-57.0,148.0,-98.0,-391.0,0
-80.0,-195.0,-58.0,108.0,-111.0,-386.0,0
-78.0,-195.0,-57.0,74.0,-117.0,-385.0,0
-72.0,-202.0,-60.0,45.0,-120.0,-388.0,0
-67.0,-203.0,-53.0,23.0,-121.0,-398.0,0
-64.0,-206.0,-53.0,6.0,-123.0,-408.0,0
-66.0,-214.0,-58.0,-9.0,-131.0,-412.0,0
-70.0,-217.0,-56.0,-34.0,-149.0,-417.0,0
-73.0,-218.0,-68.0,-68.0,-183.0,-416.0,0
-77.0,-229.0,-46.0,-87.0,-215.0,-414.0,0
-80.0,-227.0,-53.0,-95.0,-244.0,-406.0,0
-83.0,-232.0,-51.0,-99.0,-273.0,-394.0,0
-82.0,-239.0,-51.0,-92.0,-298.0,-379.0,0
-84.0,-242.0,-52.0,-76.0,-313.0,-365.0,0
-80.0,-245.0,-48.0,-53.0,-317.0,-351.0,0
-77.0,-244.0,-47.0,-28.0,-316.0,-345.0,0
-76.0,-250.0,-49.0,-7.0,-308.0,-341.0,0
-74.0,-253.0,-49.0,5.0,-303.0,-342.0,0
-75.0,-255.0,-52.0,11.0,-294.0,-342.0,0
-72.0,-255.0,-48.0,19.0,-288.0,-346.0,0
-74.0,-264.0,-30.0,32.0,-283.0,-344.0,0
-69.0,-260.0,-50.0,56.0,-279.0,-344.0,0
-59.0,-262.0,-43.0,83.0,-274.0,-346.0,0
-51.0,-260.0,-41.0,117.0,-260.0,-350.0,0
-42.0,-258.0,-37.0,156.0,-231.0,-355.0,0
-29.0,-259.0,-30.0,204.0,-184.0,-362.0,0
-15.0,-256.0,-32.0,257.0,-120.0,-380.0,0
-6.0,-259.0,-26.0,311.0,-23.0,-409.0,0
1.0,-255.0,-24.0,366.0,63.0,-438.0,0
1.0,-255.0,-16.0,403.0,146.0,-470.0,0
3.0,-254.0,-15.0,432.0,225.0,-497.0,0
-1.0,-256.0,-13.0,454.0,285.0,-524.0,0
-8.0,-254.0,-3.0,474.0,317.0,-539.0,0
-13.0,-252.0,-7.0,495.0,329.0,-545.0,0
-17.0,-252.0,0.0,515.0,326.0,-537.0,0
-28.0,-247.0,1.0,533.0,316.0,-527.0,0
-38.0,-247.0,0.0,556.0,303.0,-508.0,0
-47.0,-243.0,0.0,577.0,305.0,-481.0,0
-52.0,-238.0,-1.0,598.0,320.0,-467.0,0
-63.0,-232.0,-1.0,605.0,342.0,-461.0,0
-70.0,-231.0,-7.0,598.0,366.0,-458.0,0
-79.0,-220.0,-6.0,577.0,395.0,-463.0,0
-82.0,-213.0,-12.0,556.0,418.0,-470.0,0
-84.0,-221.0,16.0,533.0,432.0,-473.0,0
-79.0,-211.0,-1.0,500.0,438.0,-475.0,0
-80.0,-209.0,-4.0,464.0,441.0,-490.0,0
-88.0,-206.0,-13.0,420.0,438.0,-502.0,0
-76.0,-202.0,-4.0,358.0,430.0,-502.0,0
-73.0,-199.0,-12.0,309.0,405.0,-512.0,0
-78.0,-195.0,-21.0,248.0,366.0,-532.0,0
-67.0,-193.0,-21.0,180.0,338.0,-540.0,0
-75.0,-192.0,-30.0,116.0,322.0,-553.0,0
-77.0,-192.0,-31.0,54.0,315.0,-553.0,0
-66.0,-184.0,-45.0,-17.0,319.0,-546.0,0
-67.0,-200.0,-33.0,-85.0,319.0,-537.0,0
-67.0,-206.0,-28.0,-140.0,323.0,-533.0,0
-61.0,-217.0,-31.0,-180.0,334.0,-528.0,0
-58.0,-230.0,-32.0,-230.0,350.0,-521.0,0
-57.0,-237.0,-32.0,-259.0,366.0,-511.0,0
-58.0,-245.0,-33.0,-273.0,374.0,-508.0,0
-60.0,-252.0,-38.0,-277.0,380.0,-506.0,0
-63.0,-256.0,-29.0,-284.0,376.0,-505.0,0
-68.0,-265.0,-28.0,-285.0,352.0,-492.0,0
-67.0,-272.0,-34.0,-276.0,316.0,-479.0,0
-77.0,-278.0,-28.0,-254.0,275.0,-463.0,0
-73.0,-278.0,-29.0,-219.0,235.0,-446.0,0
-67.0,-280.0,-34.0,-171.0,211.0,-437.0,0
-63.0,-281.0,-41.0,-128.0,206.0,-438.0,0
-59.0,-278.0,-40.0,-109.0,221.0,-439.0,0
-57.0,-273.0,-41.0,-88.0,245.0,-456.0,0
-59.0,-265.0,-46.0,-79.0,265.0,-463.0,0
-51.0,-260.0,-48.0,-59.0,285.0,-480.0,0
-47.0,-253.0,-48.0,-39.0,291.0,-499.0,0
-51.0,-251.0,-48.0,-31.0,290.0,-511.0,0
-47.0,-247.0,-43.0,-30.0,288.0,-507.0,0
-33.0,-220.0,-49.0,-17.0,283.0,-499.0,0
-30.0,-229.0,-43.0,14.0,272.0,-523.0,0
-28.0,-230.0,-46.0,42.0,272.0,-540.0,0
-16.0,-230.0,-52.0,20.0,281.0,-532.0,0
-15.0,-230.0,-52.0,-29.0,296.0,-521.0,0
-10.0,-231.0,-58.0,-80.0,314.0,-504.0,0
-15.0,-234.0,-63.0,-149.0,320.0,-485.0,0
-18.0,-247.0,-61.0,-234.0,307.0,-456.0,0
-27.0,-247.0,-53.0,-306.0,275.0,-430.0,0
-36.0,-255.0,-61.0,-343.0,224.0,-411.0,0
-40.0,-258.0,-58.0,-366.0,156.0,-388.0,0
-46.0,-249.0,-66.0,-366.0,62.0,-360.0,0
-48.0,-257.0,-52.0,-333.0,-14.0,-349.0,0
-52.0,-258.0,-52.0,-281.0,-82.0,-337.0,0
-55.0,-251.0,-52.0,-228.0,-148.0,-326.0,0
-58.0,-249.0,-51.0,-183.0,-214.0,-317.0,0
-64.0,-242.0,-54.0,-143.0,-275.0,-322.0,0
-67.0,-234.0,-57.0,-120.0,-328.0,-321.0,0
-74.0,-230.0,-59.0,-139.0,-375.0,-315.0,0
-59.0,-219.0,-53.0,-171.0,-404.0,-283.0,0
-42.0,-206.0,-60.0,-161.0,-425.0,-292.0,0
-40.0,-203.0,-70.0,-159.0,-419.0,-343.0,0
-30.0,-206.0,-65.0,-191.0,-395.0,-362.0,0
-14.0,-209.0,-72.0,-244.0,-363.0,-369.0,0
-1.0,-213.0,-78.0,-322.0,-330.0,-380.0,0
11.0,-218.0,-84.0,-407.0,-303.0,-379.0,0
24.0,-221.0,-91.0,-490.0,-280.0,-374.0,0
36.0,-224.0,-100.0,-569.0,-261.0,-357.0,0
49.0,-232.0,-106.0,-642.0,-246.0,-330.0,0
60.0,-244.0,-110.0,-705.0,-230.0,-292.0,0
62.0,-253.0,-115.0,-748.0,-213.0,-250.0,0
65.0,-262.0,-115.0,-769.0,-195.0,-206.0,0
79.0,-260.0,-119.0,-767.0,-180.0,-160.0,0
71.0,-276.0,-109.0,-750.0,-179.0,-114.0,0
72.0,-287.0,-102.0,-722.0,-185.0,-75.0,0
66.0,-293.0,-88.0,-679.0,-194.0,-28.0,0
69.0,-301.0,-76.0,-614.0,-205.0,15.0,0
65.0,-308.0,-63.0,-528.0,-212.0,58.0,0
67.0,-308.0,-55.0,-427.0,-209.0,90.0,0
72.0,-313.0,-44.0,-317.0,-193.0,114.0,0
71.0,-310.0,-36.0,-199.0,-164.0,127.0,0
75.0,-305.0,-33.0,-62.0,-107.0,131.0,0
80.0,-300.0,-31.0,31.0,-43.0,122.0,0
71.0,-289.0,-48.0,94.0,37.0,106.0,0
76.0,-282.0,-45.0,129.0,131.0,79.0,0
70.0,-278.0,-45.0,134.0,224.0,46.0,0
63.0,-270.0,-47.0,118.0,321.0,4.0,0
58.0,-268.0,-49.0,93.0,414.0,-36.0,0
52.0,-265.0,-38.0,68.0,493.0,-84.0,0
42.0,-263.0,-35.0,53.0,558.0,-128.0,0
36.0,-266.0,-30.0,53.0,604.0,-178.0,0
25.0,-259.0,-29.0,62.0,638.0,-205.0,0
19.0,-252.0,-24.0,67.0,653.0,-228.0,0
13.0,-252.0,-25.0,66.0,655.0,-240.0,0
5.0,-251.0,-19.0,55.0,651.0,-243.0,0
-3.0,-246.0,-16.0,33.0,635.0,-241.0,0
-6.0,-249.0,-14.0,3.0,614.0,-235.0,0
-11.0,-251.0,-7.0,-34.0,586.0,-218.0,0
-13.0,-247.0,-6.0,-71.0,547.0,-201.0,0
-15.0,-248.0,-5.0,-103.0,502.0,-180.0,0
-12.0,-250.0,-3.0,-127.0,451.0,-158.0,0
-8.0,-251.0,-1.0,-150.0,405.0,-141.0,0
-6.0,-248.0,-11.0,-164.0,363.0,-131.0,0
-1.0,-250.0,-8.0,-174.0,321.0,-122.0,0
5.0,-253.0,-14.0,-184.0,279.0,-121.0,0
16.0,-253.0,-14.0,-191.0,238.0,-120.0,0
18.0,-251.0,-24.0,-193.0,201.0,-123.0,0
29.0,-253.0,-27.0,-189.0,170.0,-127.0,0
