ax,ay,az,gx,gy,gz,label
7.0,-250.0,-45.0,-22.0,85.0,-6.0,0
7.0,-252.0,-47.0,-26.0,81.0,-7.0,0
5.0,-253.0,-46.0,-28.0,79.0,-7.0,0
5.0,-255.0,-47.0,-28.0,79.0,-9.0,0
1.0,-252.0,-41.0,-26.0,77.0,-7.0,0
-1.0,-248.0,-45.0,-27.0,75.0,-10.0,0
3.0,-252.0,-48.0,-30.0,72.0,-8.0,0
5.0,-256.0,-47.0,-33.0,72.0,-10.0,0
2.0,-252.0,-46.0,-34.0,70.0,-9.0,0
3.0,-256.0,-44.0,-37.0,68.0,-11.0,0
4.0,-254.0,-45.0,-38.0,67.0,-11.0,0
2.0,-254.0,-46.0,-34.0,66.0,-10.0,0
0.0,-251.0,-48.0,-27.0,64.0,-11.0,0
2.0,-255.0,-48.0,-22.0,60.0,-11.0,0
4.0,-253.0,-49.0,-17.0,57.0,-9.0,0
1.0,-254.0,-46.0,-11.0,53.0,-11.0,0
1.0,-252.0,-46.0,-8.0,50.0,-10.0,0
2.0,-253.0,-44.0,-8.0,49.0,-13.0,0
0.0,-252.0,-48.0,-7.0,44.0,-10.0,0
3.0,-252.0,-43.0,-7.0,41.0,-11.0,0
0.0,-252.0,-43.0,-6.0,35.0,-9.0,0
5.0,-251.0,-44.0,-4.0,33.0,-10.0,0
0.0,-251.0,-47.0,-6.0,28.0,-10.0,0
8.0,-240.0,-39.0,-9.0,23.0,-11.0,0
4.0,-256.0,-52.0,-13.0,20.0,-11.0,0
5.0,-251.0,-44.0,-16.0,18.0,-13.0,0
-1.0,-250.0,-47.0,-22.0,17.0,-12.0,0
6.0,-242.0,-41.0,-27.0,16.0,-15.0,0
-1.0,-250.0,-48.0,-29.0,16.0,-13.0,0
-3.0,-251.0,-43.0,-31.0,18.0,-16.0,0
11.0,-242.0,-30.0,-32.0,17.0,-15.0,0
4.0,-245.0,-49.0,-33.0,17.0,-16.0,0
4.0,-245.0,-40.0,-35.0,18.0,-16.0,0
10.0,-243.0,-46.0,-37.0,17.0,-18.0,0
3.0,-255.0,-45.0,-40.0,16.0,-18.0,0
12.0,-251.0,-40.0,-40.0,15.0,-22.0,0
1.0,-260.0,-49.0,-38.0,14.0,-20.0,0
7.0,-244.0,-46.0,-34.0,12.0,-22.0,0
2.0,-258.0,-49.0,-31.0,12.0,-20.0,0
6.0,-256.0,-35.0,-29.0,12.0,-21.0,0
5.0,-254.0,-49.0,-26.0,13.0,-21.0,0
3.0,-252.0,-49.0,-23.0,12.0,-22.0,0
9.0,-252.0,-46.0,-19.0,14.0,-22.0,0
3.0,-252.0,-47.0,-14.0,14.0,-22.0,0
5.0,-247.0,-48.0,-7.0,16.0,-22.0,0
4.0,-254.0,-46.0,0.0,18.0,-26.0,0
6.0,-252.0,-50.0,6.0,20.0,-24.0,0
5.0,-250.0,-45.0,12.0,21.0,-28.0,0
2.0,-252.0,-45.0,15.0,24.0,-28.0,0
3.0,-256.0,-49.0,18.0,26.0,-32.0,0
4.0,-249.0,-48.0,17.0,27.0,-29.0,0
3.0,-251.0,-48.0,16.0,29.0,-33.0,0
8.0,-252.0,-49.0,13.0,32.0,-29.0,0
6.0,-249.0,-47.0,5.0,36.0,-28.0,0
8.0,-252.0,-47.0,-2.0,37.0,-25.0,0
6.0,-253.0,-47.0,-8.0,38.0,-25.0,0
10.0,-255.0,-45.0,-15.0,39.0,-21.0,0
6.0,-256.0,-46.0,-19.0,42.0,-21.0,0
6.0,-255.0,-41.0,-21.0,47.0,-18.0,0
7.0,-260.0,-44.0,-21.0,46.0,-19.0,0
7.0,-257.0,-46.0,-17.0,47.0,-15.0,0
7.0,-255.0,-50.0,-10.0,47.0,-19.0,0
8.0,-260.0,-47.0,-5.0,49.0,-18.0,0
5.0,-256.0,-51.0,1.0,51.0,-22.0,0
6.0,-254.0,-49.0,9.0,53.0,-21.0,0
5.0,-254.0,-48.0,12.0,53.0,-24.0,0
4.0,-252.0,-49.0,16.0,53.0,-23.0,0
8.0,-252.0,-51.0,17.0,53.0,-26.0,0
7.0,-250.0,-49.0,16.0,56.0,-27.0,0
6.0,-251.0,-45.0,15.0,58.0,-29.0,0
8.0,-252.0,-48.0,15.0,57.0,-29.0,0
7.0,-251.0,-48.0,13.0,59.0,-32.0,0
9.0,-248.0,-51.0,10.0,59.0,-32.0,0
9.0,-249.0,-46.0,8.0,62.0,-35.0,0
8.0,-246.0,-48.0,2.0,64.0,-33.0,0
11.0,-250.0,-50.0,-6.0,65.0,-36.0,0
8.0,-249.0,-49.0,-11.0,68.0,-34.0,0
8.0,-248.0,-49.0,-17.0,69.0,-37.0,0
12.0,-252.0,-46.0,-23.0,72.0,-35.0,0
9.0,-245.0,-47.0,-25.0,73.0,-37.0,0
14.0,-248.0,-48.0,-28.0,73.0,-33.0,0
12.0,-246.0,-51.0,-29.0,77.0,-32.0,0
13.0,-247.0,-45.0,-30.0,81.0,-28.0,0
17.0,-248.0,-50.0,-33.0,85.0,-29.0,0
14.0,-249.0,-48.0,-37.0,88.0,-26.0,0
12.0,-249.0,-47.0,-41.0,91.0,-26.0,0
16.0,-251.0,-48.0,-46.0,94.0,-23.0,0
14.0,-255.0,-46.0,-50.0,97.0,-24.0,0
17.0,-255.0,-49.0,-58.0,102.0,-23.0,0
15.0,-255.0,-50.0,-66.0,106.0,-26.0,0
18.0,-257.0,-51.0,-70.0,109.0,-25.0,0
17.0,-259.0,-50.0,-72.0,112.0,-29.0,0
15.0,-258.0,-45.0,-65.0,114.0,-27.0,0
12.0,-259.0,-52.0,-52.0,115.0,-29.0,0
17.0,-259.0,-47.0,-35.0,115.0,-28.0,0
15.0,-257.0,-42.0,-17.0,116.0,-31.0,0
14.0,-258.0,-46.0,3.0,114.0,-29.0,0
15.0,-256.0,-49.0,16.0,115.0,-31.0,0
13.0,-257.0,-43.0,23.0,115.0,-27.0,0
13.0,-254.0,-46.0,25.0,111.0,-29.0,0
9.0,-254.0,-48.0,25.0,107.0,-27.0,0
8.0,-250.0,-47.0,22.0,105.0,-27.0,0
13.0,-252.0,-48.0,18.0,104.0,-22.0,0
11.0,-248.0,-46.0,14.0,103.0,-24.0,0
10.0,-251.0,-49.0,10.0,101.0,-20.0,0
9.0,-247.0,-47.0,7.0,102.0,-21.0,0
11.0,-249.0,-50.0,4.0,103.0,-16.0,0
10.0,-248.0,-52.0,1.0,101.0,-19.0,0
12.0,-247.0,-46.0,-3.0,105.0,-16.0,0
10.0,-247.0,-47.0,-10.0,107.0,-18.0,0
13.0,-246.0,-48.0,-18.0,108.0,-17.0,0
11.0,-251.0,-47.0,-28.0,108.0,-20.0,0
10.0,-249.0,-52.0,-35.0,110.0,-18.0,0
12.0,-251.0,-49.0,-43.0,113.0,-18.0,0
11.0,-249.0,-45.0,-48.0,113.0,-15.0,0
11.0,-248.0,-49.0,-53.0,113.0,-17.0,0
12.0,-251.0,-45.0,-59.0,113.0,-13.0,0
12.0,-250.0,-42.0,-61.0,112.0,-14.0,0
12.0,-253.0,-46.0,-62.0,110.0,-10.0,0
14.0,-253.0,-44.0,-62.0,110.0,-12.0,0
14.0,-256.0,-43.0,-60.0,110.0,-9.0,0
15.0,-253.0,-46.0,-59.0,109.0,-10.0,0
14.0,-254.0,-45.0,-58.0,107.0,-5.0,0
12.0,-254.0,-43.0,-57.0,107.0,-7.0,0
13.0,-258.0,-42.0,-55.0,107.0,-4.0,0
17.0,-254.0,-45.0,-52.0,106.0,-6.0,0
11.0,-255.0,-49.0,-49.0,106.0,-4.0,0
11.0,-255.0,-47.0,-42.0,107.0,-7.0,0
13.0,-256.0,-48.0,-36.0,106.0,-6.0,0
15.0,-257.0,-47.0,-31.0,104.0,-8.0,0
13.0,-256.0,-51.0,-26.0,104.0,-7.0,0
12.0,-257.0,-51.0,-22.0,103.0,-9.0,0
10.0,-256.0,-50.0,-17.0,102.0,-9.0,0
8.0,-252.0,-50.0,-12.0,99.0,-11.0,0
13.0,-254.0,-49.0,-4.0,100.0,-10.0,0
12.0,-250.0,-45.0,1.0,99.0,-12.0,0
8.0,-251.0,-47.0,6.0,99.0,-10.0,0
10.0,-248.0,-47.0,9.0,98.0,-11.0,0
12.0,-249.0,-49.0,9.0,97.0,-7.0,0
7.0,-252.0,-45.0,6.0,96.0,-10.0,0
11.0,-249.0,-47.0,1.0,96.0,-6.0,0
10.0,-252.0,-44.0,-6.0,93.0,-7.0,0
8.0,-251.0,-50.0,-15.0,90.0,-3.0,0
11.0,-249.0,-46.0,-22.0,88.0,-4.0,0
11.0,-252.0,-48.0,-29.0,88.0,-1.0,0
10.0,-253.0,-48.0,-34.0,86.0,-3.0,0
11.0,-255.0,-44.0,-37.0,86.0,1.0,0
8.0,-253.0,-47.0,-37.0,81.0,-2.0,0
7.0,-253.0,-46.0,-37.0,80.0,0.0,0
10.0,-252.0,-43.0,-36.0,79.0,-3.0,0
7.0,-257.0,-47.0,-32.0,76.0,-1.0,0
10.0,-254.0,-46.0,-31.0,75.0,-3.0,0
6.0,-255.0,-47.0,-31.0,71.0,-3.0,0
7.0,-252.0,-46.0,-30.0,70.0,-5.0,0
10.0,-255.0,-44.0,-31.0,67.0,-4.0,0
10.0,-252.0,-46.0,-30.0,65.0,-5.0,0
11.0,-253.0,-49.0,-29.0,63.0,-2.0,0
11.0,-252.0,-47.0,-28.0,62.0,-3.0,0
12.0,-253.0,-48.0,-27.0,60.0,0.0,0
11.0,-253.0,-44.0,-27.0,58.0,-1.0,0
11.0,-250.0,-44.0,-25.0,56.0,3.0,0
11.0,-252.0,-46.0,-25.0,54.0,1.0,0
10.0,-252.0,-45.0,-25.0,52.0,4.0,0
9.0,-249.0,-52.0,-26.0,51.0,2.0,0
11.0,-251.0,-50.0,-26.0,48.0,5.0,0
13.0,-249.0,-49.0,-28.0,47.0,3.0,0
14.0,-250.0,-48.0,-30.0,47.0,3.0,0
10.0,-250.0,-48.0,-33.0,45.0,1.0,0
9.0,-253.0,-47.0,-36.0,43.0,3.0,0
13.0,-249.0,-48.0,-38.0,44.0,0.0,0
9.0,-250.0,-45.0,-41.0,41.0,1.0,0
11.0,-253.0,-47.0,-45.0,40.0,-2.0,0
10.0,-252.0,-49.0,-48.0,38.0,0.0,0
9.0,-249.0,-51.0,-50.0,37.0,-2.0,0
8.0,-250.0,-45.0,-51.0,33.0,0.0,0
10.0,-254.0,-50.0,-50.0,31.0,-2.0,0
9.0,-251.0,-46.0,-50.0,29.0,1.0,0
11.0,-254.0,-44.0,-50.0,27.0,-1.0,0
10.0,-253.0,-45.0,-50.0,29.0,2.0,0
10.0,-252.0,-51.0,-50.0,28.0,0.0,0
14.0,-254.0,-45.0,-49.0,28.0,3.0,0
11.0,-250.0,-43.0,-45.0,28.0,3.0,0
11.0,-255.0,-45.0,-43.0,28.0,6.0,0
12.0,-254.0,-48.0,-40.0,27.0,4.0,0
14.0,-255.0,-46.0,-37.0,27.0,7.0,0
11.0,-254.0,-49.0,-36.0,27.0,5.0,0
13.0,-252.0,-49.0,-35.0,27.0,7.0,0
8.0,-253.0,-43.0,-33.0,25.0,5.0,0
12.0,-252.0,-49.0,-35.0,24.0,6.0,0
10.0,-253.0,-50.0,-35.0,21.0,5.0,0
9.0,-255.0,-49.0,-34.0,20.0,5.0,0
12.0,-255.0,-49.0,-34.0,18.0,2.0,0
11.0,-252.0,-46.0,-36.0,16.0,4.0,0
10.0,-249.0,-51.0,-36.0,17.0,2.0,0
11.0,-251.0,-49.0,-40.0,15.0,4.0,0
9.0,-249.0,-48.0,-42.0,17.0,0.0,0
12.0,-254.0,-49.0,-45.0,16.0,4.0,0
12.0,-252.0,-49.0,-51.0,18.0,1.0,0
12.0,-252.0,-50.0,-51.0,19.0,4.0,0
13.0,-252.0,-49.0,-52.0,20.0,3.0,0
8.0,-253.0,-49.0,-51.0,22.0,5.0,0
8.0,-251.0,-51.0,-52.0,26.0,2.0,0
9.0,-250.0,-46.0,-50.0,26.0,4.0,0
15.0,-255.0,-49.0,-47.0,28.0,2.0,0
10.0,-250.0,-49.0,-44.0,32.0,5.0,0
9.0,-252.0,-49.0,-41.0,36.0,1.0,0
11.0,-251.0,-46.0,-41.0,38.0,5.0,0
13.0,-255.0,-45.0,-39.0,39.0,2.0,0
11.0,-253.0,-48.0,-38.0,41.0,4.0,0
12.0,-253.0,-47.0,-36.0,44.0,2.0,0
13.0,-251.0,-51.0,-35.0,47.0,6.0,0
12.0,-253.0,-50.0,-32.0,47.0,5.0,0
13.0,-253.0,-46.0,-30.0,50.0,6.0,0
13.0,-252.0,-50.0,-27.0,52.0,5.0,0
11.0,-254.0,-53.0,-26.0,54.0,8.0,0
13.0,-253.0,-50.0,-24.0,58.0,8.0,0
13.0,-253.0,-48.0,-22.0,61.0,10.0,0
13.0,-250.0,-49.0,-21.0,64.0,8.0,0
9.0,-253.0,-53.0,-22.0,67.0,10.0,0
10.0,-253.0,-50.0,-20.0,69.0,8.0,0
10.0,-250.0,-48.0,-20.0,72.0,10.0,0
10.0,-252.0,-52.0,-22.0,74.0,8.0,0
11.0,-253.0,-52.0,-23.0,73.0,9.0,0
11.0,-251.0,-46.0,-22.0,72.0,8.0,0
11.0,-250.0,-50.0,-25.0,74.0,8.0,0
8.0,-253.0,-50.0,-26.0,71.0,6.0,0
9.0,-254.0,-51.0,-27.0,70.0,7.0,0
8.0,-251.0,-52.0,-29.0,69.0,6.0,0
7.0,-251.0,-52.0,-28.0,67.0,7.0,0
9.0,-254.0,-49.0,-27.0,67.0,4.0,0
8.0,-252.0,-49.0,-25.0,67.0,6.0,0
7.0,-253.0,-49.0,-24.0,65.0,6.0,0
10.0,-255.0,-47.0,-23.0,66.0,7.0,0
7.0,-253.0,-51.0,-20.0,65.0,8.0,0
8.0,-252.0,-48.0,-17.0,67.0,11.0,0
9.0,-252.0,-52.0,-16.0,67.0,9.0,0
10.0,-253.0,-51.0,-15.0,64.0,12.0,0
9.0,-252.0,-50.0,-14.0,67.0,11.0,0
6.0,-254.0,-52.0,-13.0,70.0,14.0,0
8.0,-252.0,-52.0,-13.0,72.0,14.0,0
6.0,-248.0,-48.0,-14.0,73.0,16.0,0
9.0,-251.0,-49.0,-16.0,75.0,15.0,0
8.0,-252.0,-49.0,-19.0,78.0,16.0,0
9.0,-254.0,-50.0,-20.0,77.0,14.0,0
8.0,-252.0,-50.0,-24.0,78.0,13.0,0
7.0,-252.0,-51.0,-25.0,80.0,11.0,0
7.0,-253.0,-52.0,-30.0,81.0,13.0,0
8.0,-254.0,-51.0,-33.0,82.0,11.0,0
6.0,-250.0,-51.0,-34.0,85.0,9.0,0
7.0,-251.0,-48.0,-36.0,85.0,8.0,0
8.0,-251.0,-49.0,-37.0,87.0,7.0,0
6.0,-250.0,-48.0,-37.0,88.0,7.0,0
7.0,-250.0,-53.0,-37.0,89.0,6.0,0
9.0,-253.0,-51.0,-36.0,89.0,5.0,0
5.0,-253.0,-54.0,-37.0,89.0,5.0,0
7.0,-254.0,-52.0,-36.0,89.0,4.0,0
6.0,-253.0,-49.0,-35.0,88.0,2.0,0
7.0,-253.0,-52.0,-33.0,87.0,-2.0,0
5.0,-250.0,-54.0,-35.0,85.0,-2.0,0
4.0,-250.0,-52.0,-34.0,85.0,-7.0,0
5.0,-249.0,-52.0,-34.0,85.0,-7.0,0
7.0,-251.0,-49.0,-36.0,84.0,-9.0,0
4.0,-248.0,-54.0,-38.0,84.0,-11.0,0
5.0,-250.0,-55.0,-41.0,84.0,-14.0,0
4.0,-248.0,-54.0,-42.0,81.0,-16.0,0
5.0,-251.0,-52.0,-48.0,84.0,-18.0,0
5.0,-249.0,-49.0,-53.0,85.0,-21.0,0
3.0,-246.0,-52.0,-57.0,87.0,-26.0,0
8.0,-251.0,-50.0,-60.0,88.0,-25.0,0
5.0,-250.0,-55.0,-64.0,87.0,-28.0,0
5.0,-247.0,-52.0,-63.0,87.0,-29.0,0
5.0,-249.0,-50.0,-66.0,87.0,-31.0,0
5.0,-251.0,-52.0,-66.0,87.0,-33.0,0
6.0,-250.0,-52.0,-68.0,86.0,-34.0,0
5.0,-250.0,-53.0,-70.0,89.0,-34.0,0
4.0,-248.0,-53.0,-74.0,92.0,-35.0,0
4.0,-250.0,-54.0,-76.0,95.0,-37.0,0
6.0,-251.0,-52.0,-79.0,97.0,-37.0,0
6.0,-254.0,-53.0,-82.0,98.0,-37.0,0
9.0,-254.0,-54.0,-83.0,100.0,-41.0,0
6.0,-252.0,-50.0,-84.0,102.0,-42.0,0
8.0,-253.0,-51.0,-86.0,102.0,-43.0,0
7.0,-254.0,-47.0,-87.0,101.0,-44.0,0
9.0,-255.0,-51.0,-86.0,104.0,-45.0,0
6.0,-252.0,-54.0,-86.0,105.0,-45.0,0
6.0,-253.0,-51.0,-82.0,106.0,-45.0,0
9.0,-253.0,-53.0,-78.0,106.0,-44.0,0
8.0,-253.0,-56.0,-73.0,106.0,-45.0,0
7.0,-254.0,-54.0,-66.0,108.0,-45.0,0
8.0,-253.0,-52.0,-55.0,111.0,-45.0,0
9.0,-254.0,-49.0,-48.0,113.0,-43.0,0
8.0,-248.0,-55.0,-41.0,117.0,-44.0,0
10.0,-249.0,-52.0,-34.0,117.0,-44.0,0
6.0,-254.0,-56.0,-32.0,120.0,-45.0,0
9.0,-249.0,-53.0,-31.0,124.0,-46.0,0
9.0,-248.0,-55.0,-30.0,124.0,-49.0,0
6.0,-250.0,-54.0,-32.0,125.0,-50.0,0
6.0,-249.0,-57.0,-33.0,123.0,-52.0,0
7.0,-250.0,-56.0,-35.0,124.0,-56.0,0
7.0,-247.0,-57.0,-35.0,125.0,-61.0,0
8.0,-250.0,-59.0,-37.0,127.0,-65.0,0
8.0,-247.0,-60.0,-38.0,130.0,-70.0,0
7.0,-247.0,-54.0,-41.0,132.0,-72.0,0
7.0,-244.0,-61.0,-43.0,134.0,-74.0,0
7.0,-247.0,-55.0,-49.0,137.0,-74.0,0
4.0,-243.0,-56.0,-52.0,138.0,-75.0,0
10.0,-248.0,-54.0,-57.0,140.0,-74.0,0
6.0,-246.0,-56.0,-63.0,141.0,-75.0,0
8.0,-247.0,-60.0,-69.0,142.0,-74.0,0
10.0,-248.0,-60.0,-74.0,140.0,-73.0,0
9.0,-247.0,-59.0,-80.0,138.0,-69.0,0
12.0,-247.0,-60.0,-84.0,136.0,-67.0,0
11.0,-244.0,-57.0,-87.0,137.0,-65.0,0
13.0,-244.0,-60.0,-88.0,136.0,-63.0,0
16.0,-245.0,-58.0,-91.0,139.0,-60.0,0
16.0,-243.0,-58.0,-89.0,144.0,-59.0,0
17.0,-241.0,-58.0,-88.0,148.0,-59.0,0
14.0,-243.0,-60.0,-89.0,153.0,-57.0,0
16.0,-240.0,-62.0,-100.0,161.0,-60.0,0
16.0,-238.0,-63.0,-110.0,168.0,-62.0,0
18.0,-237.0,-63.0,-124.0,178.0,-64.0,0
23.0,-236.0,-71.0,-140.0,189.0,-68.0,0
21.0,-235.0,-72.0,-159.0,199.0,-73.0,0
25.0,-236.0,-73.0,-177.0,209.0,-76.0,0
27.0,-233.0,-78.0,-199.0,222.0,-81.0,0
26.0,-230.0,-77.0,-219.0,238.0,-87.0,0
26.0,-232.0,-78.0,-245.0,254.0,-94.0,0
29.0,-235.0,-77.0,-275.0,272.0,-102.0,0
26.0,-230.0,-77.0,-301.0,289.0,-110.0,0
32.0,-234.0,-71.0,-324.0,304.0,-114.0,0
35.0,-235.0,-73.0,-341.0,320.0,-120.0,0
33.0,-239.0,-69.0,-352.0,331.0,-124.0,0
35.0,-239.0,-65.0,-354.0,337.0,-124.0,0
34.0,-238.0,-55.0,-350.0,335.0,-121.0,0
36.0,-245.0,-52.0,-336.0,330.0,-114.0,0
38.0,-244.0,-53.0,-314.0,320.0,-103.0,0
41.0,-246.0,-52.0,-295.0,310.0,-96.0,0
36.0,-248.0,-49.0,-267.0,299.0,-84.0,0
35.0,-252.0,-50.0,-238.0,282.0,-67.0,0
35.0,-252.0,-54.0,-229.0,266.0,-57.0,0
36.0,-256.0,-56.0,-244.0,255.0,-54.0,0
31.0,-259.0,-59.0,-284.0,244.0,-57.0,0
36.0,-262.0,-59.0,-321.0,238.0,-52.0,0
26.0,-271.0,-59.0,-353.0,231.0,-49.0,0
26.0,-274.0,-52.0,-377.0,223.0,-45.0,0
24.0,-278.0,-52.0,-383.0,212.0,-44.0,0
20.0,-284.0,-50.0,-361.0,205.0,-46.0,0
18.0,-286.0,-50.0,-317.0,198.0,-44.0,0
20.0,-286.0,-47.0,-262.0,188.0,-44.0,0
21.0,-287.0,-53.0,-199.0,174.0,-44.0,0
21.0,-283.0,-58.0,-140.0,159.0,-43.0,0
18.0,-277.0,-55.0,-87.0,144.0,-41.0,0
18.0,-272.0,-56.0,-33.0,133.0,-37.0,0
16.0,-270.0,-52.0,8.0,123.0,-30.0,0
16.0,-267.0,-51.0,47.0,109.0,-23.0,0
18.0,-263.0,-50.0,86.0,92.0,-16.0,0
16.0,-257.0,-49.0,118.0,73.0,-12.0,0
19.0,-251.0,-49.0,141.0,51.0,-6.0,0
16.0,-240.0,-49.0,151.0,26.0,-3.0,0
19.0,-238.0,-47.0,149.0,1.0,4.0,0
21.0,-235.0,-48.0,134.0,-23.0,11.0,0
20.0,-230.0,-44.0,115.0,-49.0,21.0,0
24.0,-232.0,-42.0,88.0,-84.0,28.0,0
20.0,-227.0,-43.0,68.0,-105.0,40.0,0
20.0,-228.0,-49.0,43.0,-120.0,49.0,0
17.0,-228.0,-51.0,13.0,-139.0,55.0,0
14.0,-227.0,-53.0,-24.0,-162.0,57.0,0
21.0,-232.0,-53.0,-68.0,-185.0,61.0,0
21.0,-238.0,-57.0,-121.0,-208.0,68.0,0
23.0,-245.0,-60.0,-170.0,-225.0,79.0,0
24.0,-251.0,-63.0,-209.0,-231.0,89.0,0
25.0,-257.0,-60.0,-229.0,-225.0,101.0,0
23.0,-260.0,-55.0,-227.0,-210.0,109.0,0
21.0,-267.0,-58.0,-202.0,-195.0,111.0,0
22.0,-266.0,-59.0,-166.0,-182.0,110.0,0
23.0,-272.0,-67.0,-133.0,-175.0,106.0,0
23.0,-272.0,-74.0,-110.0,-169.0,98.0,0
21.0,-272.0,-80.0,-102.0,-156.0,91.0,0
23.0,-272.0,-88.0,-102.0,-139.0,86.0,0
29.0,-273.0,-90.0,-102.0,-122.0,83.0,0
29.0,-274.0,-91.0,-93.0,-104.0,79.0,0
39.0,-265.0,-70.0,-65.0,-82.0,79.0,0
33.0,-275.0,-79.0,-19.0,-57.0,76.0,0
35.0,-265.0,-75.0,58.0,-44.0,73.0,0
34.0,-263.0,-68.0,128.0,-38.0,69.0,0
31.0,-256.0,-66.0,193.0,-36.0,71.0,0
34.0,-252.0,-63.0,243.0,-41.0,72.0,0
35.0,-245.0,-60.0,275.0,-50.0,74.0,0
32.0,-238.0,-61.0,283.0,-60.0,73.0,0
28.0,-236.0,-61.0,268.0,-69.0,75.0,0
23.0,-229.0,-66.0,238.0,-80.0,71.0,0
21.0,-231.0,-57.0,197.0,-91.0,71.0,0
16.0,-226.0,-61.0,151.0,-99.0,64.0,0
14.0,-229.0,-61.0,99.0,-108.0,58.0,0
7.0,-228.0,-63.0,60.0,-114.0,51.0,0
5.0,-231.0,-58.0,27.0,-119.0,45.0,0
1.0,-231.0,-57.0,4.0,-118.0,39.0,0
-1.0,-234.0,-60.0,-12.0,-115.0,34.0,0
-2.0,-237.0,-62.0,-21.0,-110.0,24.0,0
-2.0,-239.0,-63.0,-28.0,-104.0,17.0,0
-4.0,-239.0,-63.0,-27.0,-98.0,6.0,0
-3.0,-239.0,-65.0,-25.0,-91.0,0.0,0
-4.0,-243.0,-65.0,-19.0,-85.0,-8.0,0
-2.0,-244.0,-64.0,-11.0,-81.0,-11.0,0
-1.0,-246.0,-61.0,-3.0,-77.0,-15.0,0
-1.0,-247.0,-63.0,2.0,-74.0,-19.0,0
0.0,-248.0,-63.0,11.0,-76.0,-21.0,0
-1.0,-247.0,-61.0,20.0,-80.0,-16.0,0
4.0,-249.0,-62.0,27.0,-86.0,-14.0,0
4.0,-247.0,-63.0,34.0,-93.0,-8.0,0
2.0,-248.0,-66.0,36.0,-100.0,-6.0,0
3.0,-251.0,-62.0,38.0,-109.0,-1.0,0
4.0,-251.0,-62.0,42.0,-121.0,4.0,0
6.0,-253.0,-63.0,42.0,-132.0,11.0,0
4.0,-251.0,-69.0,43.0,-145.0,18.0,0
6.0,-252.0,-64.0,44.0,-152.0,27.0,0
7.0,-252.0,-65.0,44.0,-157.0,33.0,0
9.0,-250.0,-65.0,41.0,-159.0,39.0,0
7.0,-252.0,-63.0,38.0,-159.0,43.0,0
8.0,-253.0,-60.0,36.0,-156.0,49.0,0
10.0,-252.0,-61.0,36.0,-152.0,49.0,0
7.0,-250.0,-63.0,39.0,-147.0,51.0,0
10.0,-255.0,-62.0,44.0,-139.0,50.0,0
12.0,-252.0,-61.0,50.0,-130.0,51.0,0
9.0,-251.0,-56.0,55.0,-122.0,46.0,0
10.0,-250.0,-60.0,60.0,-115.0,44.0,0
13.0,-253.0,-58.0,66.0,-109.0,38.0,0
15.0,-251.0,-57.0,72.0,-103.0,37.0,0
12.0,-248.0,-57.0,77.0,-96.0,34.0,0
13.0,-251.0,-56.0,82.0,-90.0,34.0,0
12.0,-252.0,-56.0,84.0,-86.0,30.0,0
14.0,-249.0,-58.0,83.0,-83.0,30.0,0
11.0,-249.0,-59.0,79.0,-81.0,28.0,0
9.0,-248.0,-57.0,74.0,-81.0,28.0,0
8.0,-248.0,-61.0,68.0,-80.0,26.0,0
7.0,-249.0,-55.0,59.0,-79.0,27.0,0
6.0,-250.0,-57.0,54.0,-79.0,26.0,0
6.0,-249.0,-58.0,51.0,-78.0,27.0,0
6.0,-250.0,-55.0,52.0,-75.0,23.0,0
6.0,-248.0,-59.0,53.0,-73.0,26.0,0
7.0,-250.0,-55.0,56.0,-68.0,23.0,0
3.0,-252.0,-55.0,64.0,-67.0,25.0,0
4.0,-255.0,-55.0,68.0,-64.0,24.0,0
6.0,-252.0,-54.0,74.0,-63.0,27.0,0
3.0,-251.0,-56.0,79.0,-60.0,26.0,0
5.0,-250.0,-51.0,83.0,-58.0,28.0,0
4.0,-254.0,-53.0,87.0,-56.0,29.0,0
3.0,-254.0,-59.0,88.0,-55.0,32.0,0
2.0,-249.0,-58.0,88.0,-54.0,34.0,0
5.0,-251.0,-56.0,83.0,-54.0,38.0,0
1.0,-249.0,-57.0,78.0,-54.0,37.0,0
2.0,-250.0,-56.0,71.0,-53.0,40.0,0
1.0,-251.0,-64.0,68.0,-53.0,39.0,0
-1.0,-249.0,-58.0,64.0,-52.0,41.0,0
2.0,-249.0,-54.0,60.0,-52.0,39.0,0
1.0,-249.0,-61.0,61.0,-51.0,38.0,0
1.0,-250.0,-54.0,61.0,-50.0,36.0,0
2.0,-251.0,-58.0,63.0,-48.0,38.0,0
2.0,-251.0,-55.0,63.0,-47.0,35.0,0
3.0,-250.0,-53.0,66.0,-47.0,36.0,0
2.0,-250.0,-57.0,67.0,-45.0,33.0,0
4.0,-251.0,-54.0,67.0,-45.0,34.0,0
5.0,-253.0,-53.0,68.0,-44.0,31.0,0
1.0,-250.0,-54.0,67.0,-44.0,33.0,0
3.0,-250.0,-53.0,67.0,-44.0,31.0,0
3.0,-251.0,-55.0,69.0,-43.0,32.0,0
3.0,-247.0,-54.0,72.0,-43.0,30.0,0
4.0,-251.0,-54.0,76.0,-41.0,30.0,0
4.0,-251.0,-58.0,78.0,-39.0,28.0,0
5.0,-250.0,-54.0,78.0,-34.0,29.0,0
5.0,-248.0,-60.0,78.0,-32.0,26.0,0
3.0,-248.0,-56.0,76.0,-30.0,26.0,0
5.0,-247.0,-56.0,74.0,-26.0,23.0,0
2.0,-249.0,-53.0,70.0,-24.0,24.0,0
9.0,-251.0,-59.0,68.0,-19.0,21.0,0
4.0,-251.0,-60.0,67.0,-17.0,21.0,0
5.0,-249.0,-57.0,68.0,-14.0,19.0,0
6.0,-248.0,-60.0,69.0,-13.0,19.0,0
4.0,-248.0,-53.0,69.0,-9.0,16.0,0
6.0,-252.0,-57.0,70.0,-8.0,17.0,0
4.0,-249.0,-56.0,70.0,-8.0,13.0,0
5.0,-249.0,-52.0,68.0,-6.0,15.0,0
3.0,-248.0,-52.0,67.0,-3.0,13.0,0
6.0,-250.0,-55.0,61.0,-3.0,15.0,0
5.0,-250.0,-54.0,57.0,-1.0,11.0,0
3.0,-247.0,-54.0,52.0,0.0,13.0,0
4.0,-252.0,-54.0,44.0,3.0,12.0,0
4.0,-252.0,-57.0,39.0,3.0,15.0,0
3.0,-252.0,-54.0,34.0,4.0,14.0,0
3.0,-255.0,-53.0,34.0,5.0,17.0,0
0.0,-254.0,-57.0,33.0,7.0,17.0,0
5.0,-256.0,-53.0,37.0,4.0,20.0,0
5.0,-253.0,-54.0,41.0,2.0,18.0,0
0.0,-254.0,-54.0,46.0,3.0,20.0,0
4.0,-253.0,-52.0,53.0,2.0,16.0,0
4.0,-255.0,-52.0,59.0,1.0,18.0,0
1.0,-252.0,-52.0,65.0,4.0,14.0,0
5.0,-254.0,-56.0,68.0,4.0,14.0,0
4.0,-255.0,-55.0,68.0,3.0,11.0,0
4.0,-252.0,-53.0,66.0,6.0,11.0,0
2.0,-251.0,-53.0,66.0,8.0,7.0,0
4.0,-251.0,-52.0,65.0,8.0,9.0,0
2.0,-256.0,-53.0,66.0,9.0,8.0,0
1.0,-253.0,-53.0,68.0,9.0,8.0,0
2.0,-253.0,-52.0,70.0,9.0,6.0,0
4.0,-251.0,-53.0,73.0,8.0,9.0,0
5.0,-248.0,-52.0,73.0,7.0,8.0,0
2.0,-250.0,-49.0,70.0,7.0,11.0,0
2.0,-251.0,-53.0,68.0,5.0,12.0,0
2.0,-251.0,-54.0,65.0,2.0,14.0,0
5.0,-253.0,-52.0,63.0,2.0,14.0,0
6.0,-248.0,-55.0,62.0,1.0,16.0,0
3.0,-249.0,-52.0,60.0,0.0,14.0,0
4.0,-250.0,-52.0,60.0,0.0,17.0,0
5.0,-251.0,-51.0,58.0,0.0,15.0,0
1.0,-247.0,-51.0,55.0,1.0,17.0,0
6.0,-246.0,-49.0,49.0,1.0,13.0,0
4.0,-247.0,-50.0,41.0,4.0,14.0,0
3.0,-248.0,-51.0,38.0,7.0,11.0,0
4.0,-251.0,-54.0,34.0,8.0,11.0,0
6.0,-251.0,-52.0,28.0,9.0,9.0,0
3.0,-252.0,-52.0,24.0,9.0,8.0,0
3.0,-254.0,-53.0,23.0,10.0,5.0,0
5.0,-253.0,-51.0,23.0,11.0,6.0,0
4.0,-253.0,-54.0,23.0,11.0,1.0,0
4.0,-250.0,-50.0,22.0,12.0,2.0,0
6.0,-251.0,-51.0,23.0,12.0,0.0,0
3.0,-249.0,-53.0,27.0,12.0,0.0,0
6.0,-249.0,-52.0,30.0,12.0,-1.0,0
4.0,-249.0,-53.0,29.0,14.0,1.0,0
3.0,-249.0,-52.0,29.0,14.0,-2.0,0
2.0,-249.0,-50.0,29.0,15.0,0.0,0
2.0,-251.0,-49.0,29.0,16.0,-3.0,0
4.0,-251.0,-50.0,27.0,19.0,-1.0,0
4.0,-251.0,-49.0,25.0,18.0,-4.0,0
2.0,-248.0,-52.0,24.0,20.0,0.0,0
3.0,-252.0,-51.0,23.0,20.0,0.0,0
2.0,-253.0,-50.0,22.0,22.0,2.0,0
6.0,-252.0,-52.0,22.0,22.0,0.0,0
1.0,-253.0,-53.0,21.0,24.0,3.0,0
3.0,-251.0,-53.0,20.0,24.0,1.0,0
3.0,-251.0,-50.0,16.0,25.0,4.0,0
2.0,-248.0,-52.0,12.0,25.0,2.0,0
3.0,-250.0,-53.0,9.0,25.0,5.0,0
3.0,-252.0,-54.0,7.0,26.0,1.0,0
5.0,-252.0,-53.0,4.0,29.0,1.0,0
2.0,-252.0,-51.0,0.0,29.0,-1.0,0
2.0,-252.0,-49.0,-3.0,31.0,0.0,0
0.0,-251.0,-53.0,-5.0,31.0,-3.0,0
1.0,-253.0,-52.0,-6.0,30.0,-3.0,0
0.0,-255.0,-50.0,-8.0,31.0,-6.0,0
1.0,-252.0,-52.0,-7.0,30.0,-5.0,0
2.0,-250.0,-49.0,-7.0,30.0,-7.0,0
2.0,-252.0,-51.0,-6.0,29.0,-4.0,0
2.0,-254.0,-51.0,-4.0,29.0,-6.0,0
2.0,-253.0,-51.0,-2.0,28.0,-3.0,0
3.0,-253.0,-49.0,-2.0,26.0,-5.0,0
4.0,-250.0,-51.0,-3.0,27.0,-2.0,0
5.0,-255.0,-48.0,-3.0,26.0,-3.0,0
4.0,-254.0,-51.0,-5.0,28.0,1.0,0
3.0,-253.0,-48.0,-7.0,27.0,-1.0,0
3.0,-254.0,-49.0,-6.0,29.0,2.0,0
2.0,-254.0,-50.0,-6.0,28.0,-1.0,0
4.0,-257.0,-50.0,-3.0,28.0,3.0,0
1.0,-254.0,-52.0,1.0,26.0,1.0,0
2.0,-253.0,-52.0,5.0,26.0,4.0,0
2.0,-252.0,-52.0,9.0,26.0,0.0,0
3.0,-255.0,-49.0,14.0,27.0,2.0,0
2.0,-251.0,-51.0,15.0,29.0,1.0,0
1.0,-250.0,-51.0,17.0,28.0,2.0,0
1.0,-252.0,-51.0,19.0,28.0,-2.0,0
2.0,-252.0,-48.0,18.0,28.0,-1.0,0
1.0,-251.0,-50.0,19.0,28.0,-3.0,0
4.0,-252.0,-51.0,19.0,27.0,-2.0,0
-1.0,-251.0,-48.0,18.0,25.0,-6.0,0
1.0,-252.0,-51.0,17.0,24.0,-4.0,0
1.0,-250.0,-52.0,18.0,23.0,-6.0,0
0.0,-249.0,-52.0,14.0,22.0,-3.0,0
3.0,-248.0,-54.0,11.0,20.0,-5.0,0
2.0,-251.0,-52.0,8.0,20.0,-3.0,0
0.0,-251.0,-51.0,2.0,21.0,-5.0,0
3.0,-253.0,-52.0,1.0,21.0,-2.0,0
2.0,-249.0,-52.0,1.0,21.0,-5.0,0
3.0,-251.0,-49.0,0.0,21.0,-2.0,0
3.0,-254.0,-48.0,-2.0,22.0,-5.0,0
3.0,-251.0,-52.0,-5.0,23.0,-3.0,0
2.0,-251.0,-49.0,-8.0,27.0,-5.0,0
3.0,-253.0,-50.0,-16.0,27.0,-6.0,0
4.0,-255.0,-50.0,-22.0,29.0,-9.0,0
1.0,-252.0,-51.0,-28.0,32.0,-8.0,0
4.0,-255.0,-49.0,-32.0,36.0,-12.0,0
4.0,-254.0,-49.0,-33.0,36.0,-9.0,0
5.0,-255.0,-51.0,-31.0,35.0,-13.0,0
0.0,-253.0,-50.0,-28.0,36.0,-10.0,0
3.0,-254.0,-48.0,-21.0,37.0,-13.0,0
5.0,-254.0,-46.0,-15.0,37.0,-9.0,0
3.0,-253.0,-49.0,-10.0,36.0,-9.0,0
2.0,-256.0,-50.0,-5.0,37.0,-5.0,0
3.0,-252.0,-50.0,-4.0,38.0,-6.0,0
2.0,-255.0,-50.0,-5.0,38.0,-4.0,0
3.0,-252.0,-51.0,-6.0,39.0,-7.0,0
5.0,-254.0,-52.0,-9.0,40.0,-4.0,0
3.0,-254.0,-50.0,-8.0,42.0,-5.0,0
4.0,-252.0,-51.0,-8.0,43.0,-2.0,0
0.0,-252.0,-49.0,-7.0,44.0,-6.0,0
2.0,-253.0,-52.0,-5.0,45.0,-3.0,0
1.0,-254.0,-48.0,-5.0,47.0,-6.0,0
3.0,-255.0,-48.0,-4.0,46.0,-6.0,0
3.0,-251.0,-53.0,-1.0,46.0,-11.0,0
2.0,-253.0,-50.0,-2.0,46.0,-10.0,0
5.0,-254.0,-47.0,-1.0,46.0,-14.0,0
5.0,-251.0,-47.0,-2.0,47.0,-12.0,0
7.0,-252.0,-48.0,-3.0,47.0,-14.0,0
5.0,-250.0,-50.0,-5.0,47.0,-12.0,0
4.0,-249.0,-50.0,-6.0,46.0,-15.0,0
4.0,-253.0,-47.0,-9.0,44.0,-13.0,0
2.0,-250.0,-47.0,-12.0,44.0,-16.0,0
1.0,-251.0,-48.0,-14.0,45.0,-13.0,0
-1.0,-248.0,-49.0,-15.0,44.0,-16.0,0
3.0,-251.0,-49.0,-17.0,41.0,-13.0,0
1.0,-249.0,-51.0,-18.0,41.0,-15.0,0
-1.0,-248.0,-49.0,-23.0,40.0,-12.0,0
1.0,-252.0,-47.0,-24.0,41.0,-14.0,0
3.0,-250.0,-51.0,-25.0,42.0,-12.0,0
4.0,-254.0,-45.0,-25.0,43.0,-14.0,0
5.0,-256.0,-51.0,-26.0,45.0,-12.0,0
7.0,-253.0,-52.0,-24.0,45.0,-15.0,0
4.0,-255.0,-49.0,-24.0,45.0,-13.0,0
6.0,-257.0,-52.0,-23.0,45.0,-14.0,0
4.0,-257.0,-49.0,-22.0,46.0,-11.0,0
5.0,-254.0,-49.0,-19.0,46.0,-11.0,0
5.0,-256.0,-50.0,-18.0,46.0,-8.0,0
7.0,-255.0,-48.0,-12.0,44.0,-9.0,0
7.0,-256.0,-50.0,-7.0,44.0,-6.0,0
4.0,-256.0,-48.0,-3.0,43.0,-8.0,0
5.0,-256.0,-49.0,3.0,45.0,-5.0,0
6.0,-255.0,-47.0,10.0,45.0,-7.0,0
5.0,-256.0,-49.0,16.0,45.0,-4.0,0
3.0,-255.0,-50.0,23.0,43.0,-7.0,0
4.0,-255.0,-49.0,29.0,42.0,-4.0,0
5.0,-255.0,-48.0,34.0,42.0,-5.0,0
3.0,-250.0,-50.0,38.0,43.0,-2.0,0
4.0,-250.0,-49.0,39.0,42.0,-4.0,0
4.0,-251.0,-49.0,40.0,43.0,-1.0,0
4.0,-251.0,-50.0,42.0,44.0,-5.0,0
2.0,-250.0,-49.0,41.0,43.0,-3.0,0
0.0,-250.0,-48.0,39.0,43.0,-5.0,0
-1.0,-250.0,-51.0,35.0,42.0,-4.0,0
1.0,-248.0,-48.0,31.0,43.0,-7.0,0
4.0,-249.0,-48.0,26.0,43.0,-4.0,0
3.0,-251.0,-49.0,22.0,41.0,-8.0,0
4.0,-251.0,-49.0,17.0,42.0,-5.0,0
4.0,-251.0,-48.0,12.0,42.0,-7.0,0
6.0,-250.0,-48.0,7.0,41.0,-4.0,0
4.0,-248.0,-46.0,2.0,39.0,-5.0,0
4.0,-254.0,-50.0,-3.0,38.0,-4.0,0
5.0,-252.0,-50.0,-5.0,38.0,-6.0,0
4.0,-251.0,-51.0,-9.0,37.0,-4.0,0
5.0,-253.0,-46.0,-11.0,36.0,-7.0,0
3.0,-251.0,-48.0,-11.0,35.0,-4.0,0
1.0,-251.0,-49.0,-12.0,36.0,-7.0,0
2.0,-252.0,-49.0,-12.0,36.0,-6.0,0
6.0,-252.0,-53.0,-13.0,34.0,-9.0,0
3.0,-251.0,-51.0,-9.0,34.0,-7.0,0
2.0,-252.0,-51.0,-7.0,34.0,-11.0,0
5.0,-253.0,-46.0,-4.0,34.0,-8.0,0
5.0,-252.0,-49.0,-3.0,33.0,-10.0,0
6.0,-253.0,-51.0,-2.0,35.0,-9.0,0
4.0,-252.0,-48.0,-1.0,33.0,-12.0,0
3.0,-249.0,-51.0,-2.0,34.0,-10.0,0
5.0,-249.0,-48.0,-2.0,33.0,-12.0,0
4.0,-251.0,-51.0,-3.0,32.0,-9.0,0
4.0,-251.0,-52.0,-4.0,32.0,-13.0,0
5.0,-256.0,-44.0,-8.0,32.0,-11.0,0
5.0,-251.0,-51.0,-12.0,32.0,-14.0,0
3.0,-251.0,-49.0,-14.0,33.0,-11.0,0
3.0,-251.0,-51.0,-17.0,33.0,-14.0,0
5.0,-248.0,-48.0,-19.0,31.0,-11.0,0
5.0,-253.0,-50.0,-19.0,32.0,-15.0,0
5.0,-252.0,-50.0,-18.0,33.0,-14.0,0
3.0,-248.0,-51.0,-18.0,34.0,-14.0,0
6.0,-249.0,-49.0,-17.0,35.0,-12.0,0
3.0,-252.0,-48.0,-17.0,36.0,-14.0,0
6.0,-256.0,-51.0,-18.0,39.0,-12.0,0
5.0,-253.0,-51.0,-18.0,37.0,-14.0,0
6.0,-252.0,-49.0,-17.0,37.0,-11.0,0
4.0,-254.0,-46.0,-16.0,34.0,-15.0,0
9.0,-252.0,-49.0,-12.0,36.0,-11.0,0
3.0,-251.0,-49.0,-12.0,35.0,-14.0,0
6.0,-252.0,-50.0,-8.0,35.0,-12.0,0
5.0,-253.0,-47.0,-7.0,34.0,-15.0,0
4.0,-250.0,-50.0,-6.0,36.0,-12.0,0
4.0,-253.0,-50.0,-6.0,35.0,-14.0,0
4.0,-252.0,-48.0,-8.0,34.0,-12.0,0
4.0,-253.0,-49.0,-9.0,32.0,-15.0,0
6.0,-253.0,-49.0,-12.0,33.0,-13.0,0
7.0,-254.0,-44.0,-14.0,34.0,-16.0,0
4.0,-253.0,-49.0,-17.0,36.0,-12.0,0
5.0,-252.0,-48.0,-17.0,38.0,-13.0,0
4.0,-256.0,-45.0,-17.0,37.0,-11.0,0
6.0,-255.0,-48.0,-17.0,38.0,-12.0,0
5.0,-255.0,-48.0,-15.0,38.0,-7.0,0
7.0,-255.0,-47.0,-16.0,38.0,-8.0,0
4.0,-257.0,-48.0,-10.0,36.0,-4.0,0
8.0,-253.0,-48.0,-6.0,34.0,-6.0,0
6.0,-257.0,-51.0,-4.0,31.0,-3.0,0
7.0,-254.0,-47.0,-3.0,30.0,-4.0,0
7.0,-256.0,-47.0,-4.0,31.0,-1.0,0
7.0,-250.0,-47.0,-5.0,30.0,-3.0,0
4.0,-253.0,-49.0,-4.0,28.0,0.0,0
7.0,-251.0,-49.0,-5.0,27.0,-2.0,0
4.0,-252.0,-47.0,-6.0,26.0,-2.0,0
6.0,-251.0,-49.0,-8.0,26.0,-5.0,0
3.0,-248.0,-51.0,-11.0,24.0,-6.0,0
4.0,-250.0,-49.0,-14.0,23.0,-8.0,0
1.0,-248.0,-45.0,-18.0,24.0,-6.0,0
4.0,-249.0,-51.0,-22.0,24.0,-10.0,0
5.0,-247.0,-47.0,-27.0,23.0,-9.0,0
5.0,-251.0,-49.0,-34.0,26.0,-11.0,0
3.0,-247.0,-51.0,-42.0,26.0,-8.0,0
5.0,-251.0,-51.0,-47.0,29.0,-11.0,0
7.0,-249.0,-49.0,-53.0,28.0,-8.0,0
5.0,-248.0,-49.0,-58.0,29.0,-9.0,0
4.0,-249.0,-48.0,-62.0,30.0,-6.0,0
4.0,-252.0,-51.0,-65.0,30.0,-8.0,0
4.0,-252.0,-50.0,-67.0,30.0,-6.0,0
8.0,-255.0,-50.0,-68.0,31.0,-6.0,0
3.0,-253.0,-51.0,-67.0,30.0,-4.0,0
4.0,-255.0,-47.0,-64.0,29.0,-4.0,0
5.0,-256.0,-48.0,-61.0,30.0,-2.0,0
5.0,-256.0,-49.0,-53.0,32.0,-3.0,0
4.0,-257.0,-47.0,-49.0,31.0,0.0,0
4.0,-255.0,-50.0,-40.0,33.0,-3.0,0
4.0,-253.0,-50.0,-34.0,34.0,1.0,0
8.0,-256.0,-50.0,-28.0,33.0,-1.0,0
6.0,-257.0,-47.0,-24.0,33.0,0.0,0
4.0,-254.0,-50.0,-21.0,32.0,0.0,0
7.0,-256.0,-50.0,-16.0,33.0,4.0,0
5.0,-252.0,-51.0,-13.0,34.0,1.0,0
6.0,-251.0,-49.0,-8.0,35.0,3.0,0
16.0,-243.0,-51.0,-4.0,38.0,1.0,0
8.0,-254.0,-47.0,-2.0,37.0,2.0,0
6.0,-258.0,-49.0,0.0,36.0,0.0,0
8.0,-252.0,-52.0,-2.0,36.0,2.0,0
8.0,-250.0,-50.0,-1.0,36.0,-2.0,0
7.0,-253.0,-50.0,-4.0,36.0,1.0,0
6.0,-251.0,-49.0,-5.0,35.0,-3.0,0
5.0,-252.0,-49.0,-8.0,35.0,-1.0,0
7.0,-251.0,-46.0,-13.0,37.0,-3.0,0
1.0,-249.0,-50.0,-20.0,37.0,-1.0,0
5.0,-250.0,-47.0,-24.0,37.0,-2.0,0
4.0,-253.0,-49.0,-28.0,36.0,0.0,0
6.0,-250.0,-48.0,-27.0,36.0,-2.0,0
6.0,-253.0,-49.0,-27.0,38.0,0.0,0
5.0,-252.0,-49.0,-24.0,39.0,-2.0,0
7.0,-255.0,-48.0,-22.0,41.0,1.0,0
7.0,-251.0,-48.0,-21.0,42.0,0.0,0
6.0,-251.0,-49.0,-22.0,40.0,1.0,0
2.0,-252.0,-51.0,-24.0,41.0,0.0,0
4.0,-254.0,-50.0,-27.0,42.0,4.0,0
3.0,-252.0,-51.0,-30.0,46.0,-1.0,0
5.0,-253.0,-50.0,-32.0,47.0,1.0,0
5.0,-254.0,-48.0,-34.0,47.0,-1.0,0
3.0,-253.0,-49.0,-34.0,49.0,1.0,0
5.0,-254.0,-50.0,-33.0,51.0,-2.0,0
5.0,-251.0,-47.0,-30.0,50.0,0.0,0
2.0,-253.0,-49.0,-30.0,51.0,-2.0,0
5.0,-252.0,-51.0,-29.0,50.0,1.0,0
6.0,-251.0,-50.0,-27.0,49.0,-2.0,0
5.0,-253.0,-52.0,-27.0,49.0,1.0,0
5.0,-252.0,-48.0,-30.0,49.0,-1.0,0
7.0,-252.0,-49.0,-29.0,49.0,2.0,0
7.0,-249.0,-52.0,-30.0,47.0,0.0,0
7.0,-251.0,-51.0,-32.0,48.0,1.0,0
6.0,-251.0,-50.0,-32.0,47.0,-3.0,0
4.0,-252.0,-50.0,-31.0,46.0,-1.0,0
5.0,-254.0,-52.0,-31.0,45.0,-3.0,0
4.0,-252.0,-49.0,-31.0,44.0,-3.0,0
3.0,-251.0,-50.0,-30.0,45.0,-4.0,0
6.0,-254.0,-50.0,-26.0,45.0,-1.0,0
4.0,-252.0,-48.0,-26.0,45.0,-4.0,0
10.0,-254.0,-48.0,-26.0,47.0,-1.0,0
7.0,-254.0,-48.0,-27.0,46.0,-3.0,0
6.0,-252.0,-50.0,-30.0,48.0,-1.0,0
6.0,-250.0,-52.0,-33.0,50.0,-3.0,0
8.0,-252.0,-54.0,-36.0,53.0,0.0,0
5.0,-251.0,-51.0,-37.0,56.0,0.0,0
5.0,-251.0,-51.0,-38.0,56.0,1.0,0
8.0,-250.0,-50.0,-39.0,59.0,-1.0,0
7.0,-250.0,-50.0,-38.0,62.0,1.0,0
7.0,-252.0,-53.0,-38.0,63.0,-1.0,0
5.0,-252.0,-50.0,-40.0,64.0,0.0,0
8.0,-250.0,-50.0,-42.0,64.0,-1.0,0
6.0,-252.0,-52.0,-45.0,65.0,1.0,0
6.0,-254.0,-51.0,-47.0,67.0,-1.0,0
4.0,-252.0,-47.0,-48.0,67.0,2.0,0
7.0,-253.0,-47.0,-49.0,65.0,0.0,0
6.0,-254.0,-50.0,-48.0,64.0,3.0,0
6.0,-252.0,-50.0,-47.0,61.0,1.0,0
4.0,-251.0,-49.0,-47.0,58.0,3.0,0
3.0,-251.0,-51.0,-46.0,56.0,3.0,0
5.0,-251.0,-50.0,-46.0,54.0,5.0,0
6.0,-251.0,-51.0,-46.0,53.0,3.0,0
2.0,-252.0,-49.0,-49.0,52.0,5.0,0
2.0,-248.0,-52.0,-52.0,54.0,4.0,0
2.0,-249.0,-50.0,-53.0,54.0,7.0,0
2.0,-249.0,-52.0,-53.0,55.0,5.0,0
3.0,-249.0,-51.0,-52.0,56.0,7.0,0
3.0,-249.0,-52.0,-50.0,57.0,6.0,0
3.0,-250.0,-52.0,-49.0,58.0,9.0,0
3.0,-247.0,-52.0,-47.0,59.0,7.0,0
3.0,-252.0,-49.0,-50.0,57.0,9.0,0
1.0,-249.0,-53.0,-52.0,56.0,7.0,0
4.0,-251.0,-55.0,-56.0,56.0,10.0,0
4.0,-251.0,-53.0,-63.0,55.0,8.0,0
3.0,-249.0,-52.0,-67.0,51.0,10.0,0
6.0,-251.0,-52.0,-71.0,48.0,8.0,0
5.0,-253.0,-55.0,-74.0,48.0,9.0,0
6.0,-252.0,-53.0,-74.0,48.0,8.0,0
5.0,-251.0,-52.0,-73.0,49.0,10.0,0
6.0,-252.0,-51.0,-69.0,49.0,7.0,0
4.0,-253.0,-54.0,-64.0,50.0,8.0,0
6.0,-253.0,-51.0,-60.0,52.0,7.0,0
6.0,-254.0,-51.0,-56.0,53.0,8.0,0
4.0,-252.0,-51.0,-54.0,53.0,5.0,0
5.0,-252.0,-51.0,-54.0,53.0,7.0,0
5.0,-253.0,-52.0,-55.0,50.0,5.0,0
5.0,-252.0,-50.0,-56.0,48.0,8.0,0
5.0,-254.0,-52.0,-60.0,47.0,5.0,0
2.0,-253.0,-52.0,-62.0,45.0,7.0,0
7.0,-257.0,-52.0,-65.0,45.0,4.0,0
2.0,-254.0,-53.0,-67.0,44.0,5.0,0
5.0,-251.0,-57.0,-67.0,43.0,2.0,0
4.0,-252.0,-55.0,-67.0,43.0,2.0,0
1.0,-251.0,-54.0,-63.0,44.0,0.0,0
1.0,-250.0,-55.0,-61.0,43.0,3.0,0
4.0,-253.0,-53.0,-57.0,43.0,1.0,0
2.0,-253.0,-52.0,-53.0,42.0,2.0,0
3.0,-250.0,-49.0,-50.0,41.0,1.0,0
3.0,-252.0,-52.0,-48.0,41.0,4.0,0
3.0,-250.0,-50.0,-46.0,39.0,1.0,0
1.0,-253.0,-48.0,-47.0,36.0,3.0,0
3.0,-252.0,-50.0,-49.0,34.0,2.0,0
5.0,-250.0,-49.0,-49.0,32.0,5.0,0
0.0,-251.0,-51.0,-50.0,32.0,5.0,0
3.0,-251.0,-53.0,-52.0,30.0,8.0,0
4.0,-253.0,-51.0,-52.0,27.0,6.0,0
2.0,-250.0,-54.0,-50.0,28.0,6.0,0
3.0,-254.0,-52.0,-50.0,28.0,3.0,0
5.0,-253.0,-54.0,-49.0,32.0,4.0,0
5.0,-249.0,-52.0,-48.0,33.0,0.0,0
3.0,-252.0,-52.0,-46.0,37.0,1.0,0
4.0,-252.0,-56.0,-43.0,41.0,-3.0,0
2.0,-252.0,-52.0,-42.0,43.0,-1.0,0
5.0,-253.0,-47.0,-39.0,45.0,-3.0,0
3.0,-252.0,-51.0,-38.0,48.0,0.0,0
4.0,-253.0,-52.0,-36.0,48.0,1.0,0
5.0,-252.0,-47.0,-38.0,46.0,5.0,0
4.0,-254.0,-52.0,-40.0,44.0,5.0,0
5.0,-255.0,-52.0,-43.0,40.0,9.0,0
7.0,-254.0,-53.0,-46.0,37.0,9.0,0
5.0,-254.0,-51.0,-47.0,35.0,12.0,0
6.0,-256.0,-51.0,-45.0,33.0,9.0,0
6.0,-253.0,-53.0,-43.0,32.0,9.0,0
2.0,-253.0,-51.0,-40.0,32.0,7.0,0
3.0,-252.0,-54.0,-39.0,33.0,6.0,0
6.0,-256.0,-56.0,-41.0,31.0,3.0,0
4.0,-253.0,-56.0,-46.0,30.0,-1.0,0
5.0,-250.0,-60.0,-54.0,25.0,-6.0,0
4.0,-248.0,-69.0,-69.0,19.0,-8.0,0
4.0,-248.0,-67.0,-89.0,15.0,-12.0,0
4.0,-247.0,-69.0,-111.0,7.0,-14.0,0
6.0,-246.0,-74.0,-137.0,-3.0,-20.0,0
6.0,-245.0,-77.0,-163.0,-12.0,-25.0,0
4.0,-245.0,-82.0,-188.0,-24.0,-32.0,0
5.0,-244.0,-84.0,-210.0,-32.0,-37.0,0
3.0,-241.0,-85.0,-233.0,-42.0,-41.0,0
6.0,-244.0,-84.0,-250.0,-53.0,-46.0,0
3.0,-243.0,-86.0,-265.0,-61.0,-56.0,0
-1.0,-238.0,-85.0,-271.0,-69.0,-61.0,0
2.0,-239.0,-85.0,-275.0,-80.0,-72.0,0
-3.0,-238.0,-83.0,-275.0,-91.0,-80.0,0
-4.0,-238.0,-84.0,-270.0,-103.0,-90.0,0
-6.0,-239.0,-83.0,-263.0,-119.0,-98.0,0
-7.0,-237.0,-85.0,-257.0,-137.0,-106.0,0
-12.0,-234.0,-83.0,-249.0,-154.0,-113.0,0
-15.0,-232.0,-82.0,-239.0,-173.0,-119.0,0
-16.0,-231.0,-75.0,-225.0,-194.0,-119.0,0
-18.0,-231.0,-85.0,-204.0,-220.0,-118.0,0
-22.0,-227.0,-86.0,-190.0,-244.0,-110.0,0
-22.0,-223.0,-89.0,-182.0,-269.0,-102.0,0
-27.0,-222.0,-88.0,-188.0,-295.0,-94.0,0
-28.0,-224.0,-91.0,-201.0,-320.0,-85.0,0
-29.0,-228.0,-92.0,-215.0,-345.0,-75.0,0
-30.0,-227.0,-91.0,-231.0,-373.0,-68.0,0
-32.0,-228.0,-86.0,-243.0,-401.0,-56.0,0
-35.0,-230.0,-88.0,-248.0,-432.0,-50.0,0
-32.0,-232.0,-85.0,-258.0,-464.0,-35.0,0
-29.0,-232.0,-88.0,-272.0,-502.0,-24.0,0
-29.0,-231.0,-94.0,-283.0,-531.0,-9.0,0
-27.0,-234.0,-98.0,-297.0,-563.0,3.0,0
-26.0,-236.0,-99.0,-312.0,-595.0,14.0,0
-24.0,-237.0,-102.0,-329.0,-628.0,18.0,0
-23.0,-239.0,-104.0,-342.0,-664.0,24.0,0
-23.0,-234.0,-107.0,-351.0,-700.0,20.0,0
-22.0,-236.0,-114.0,-362.0,-737.0,11.0,0
-23.0,-230.0,-116.0,-368.0,-771.0,-2.0,0
-21.0,-226.0,-113.0,-372.0,-803.0,-16.0,0
-24.0,-224.0,-111.0,-374.0,-837.0,-44.0,0
-25.0,-223.0,-104.0,-380.0,-867.0,-65.0,0
-28.0,-222.0,-96.0,-389.0,-893.0,-85.0,0
-34.0,-221.0,-87.0,-398.0,-918.0,-98.0,0
-36.0,-224.0,-83.0,-401.0,-940.0,-112.0,0
-39.0,-225.0,-74.0,-403.0,-961.0,-119.0,0
-42.0,-229.0,-65.0,-401.0,-986.0,-126.0,0
-36.0,-232.0,-56.0,-395.0,-998.0,-126.0,0
-40.0,-236.0,-46.0,-389.0,-1011.0,-130.0,0
-28.0,-241.0,-52.0,-370.0,-1006.0,-119.0,0
-14.0,-248.0,-56.0,-362.0,-995.0,-94.0,0
-11.0,-256.0,-58.0,-371.0,-976.0,-65.0,0
-2.0,-259.0,-61.0,-390.0,-955.0,-32.0,0
7.0,-267.0,-66.0,-423.0,-949.0,1.0,0
14.0,-275.0,-73.0,-464.0,-936.0,30.0,0
13.0,-283.0,-78.0,-509.0,-928.0,69.0,0
13.0,-293.0,-84.0,-551.0,-920.0,104.0,0
11.0,-297.0,-85.0,-588.0,-926.0,134.0,0
12.0,-306.0,-88.0,-615.0,-938.0,154.0,0
21.0,-311.0,-85.0,-627.0,-955.0,181.0,0
32.0,-317.0,-84.0,-616.0,-967.0,200.0,0
39.0,-322.0,-80.0,-580.0,-961.0,201.0,0
33.0,-324.0,-80.0,-523.0,-940.0,205.0,0
27.0,-323.0,-77.0,-433.0,-916.0,216.0,0
20.0,-319.0,-77.0,-321.0,-894.0,214.0,0
24.0,-312.0,-78.0,-218.0,-884.0,206.0,0
21.0,-309.0,-79.0,-137.0,-863.0,182.0,0
17.0,-309.0,-72.0,-70.0,-828.0,148.0,0
9.0,-301.0,-63.0,-5.0,-794.0,109.0,0
3.0,-290.0,-63.0,65.0,-763.0,71.0,0
-2.0,-286.0,-63.0,138.0,-739.0,34.0,0
-2.0,-281.0,-57.0,203.0,-709.0,10.0,0
-12.0,-274.0,-57.0,278.0,-687.0,-17.0,0
-16.0,-265.0,-58.0,321.0,-668.0,-32.0,0
-15.0,-260.0,-58.0,355.0,-658.0,-35.0,0
-19.0,-256.0,-60.0,380.0,-648.0,-30.0,0
-16.0,-249.0,-60.0,398.0,-628.0,-27.0,0
-16.0,-237.0,-66.0,404.0,-614.0,-18.0,0
-12.0,-239.0,-64.0,408.0,-591.0,-11.0,0
-14.0,-235.0,-67.0,403.0,-576.0,17.0,0
-20.0,-233.0,-66.0,386.0,-569.0,45.0,0
-20.0,-226.0,-64.0,364.0,-573.0,94.0,0
-21.0,-223.0,-63.0,343.0,-575.0,122.0,0
-16.0,-221.0,-65.0,326.0,-572.0,136.0,0
-16.0,-221.0,-63.0,308.0,-567.0,154.0,0
-16.0,-224.0,-67.0,304.0,-557.0,185.0,0
-16.0,-226.0,-64.0,273.0,-536.0,193.0,0
-15.0,-229.0,-59.0,234.0,-523.0,199.0,0
-16.0,-234.0,-65.0,198.0,-514.0,206.0,0
-16.0,-238.0,-68.0,164.0,-511.0,215.0,0
-21.0,-239.0,-65.0,133.0,-511.0,220.0,0
-21.0,-246.0,-63.0,108.0,-518.0,218.0,0
-22.0,-242.0,-70.0,98.0,-533.0,202.0,0
-32.0,-244.0,-69.0,100.0,-545.0,197.0,0
-33.0,-244.0,-73.0,112.0,-553.0,197.0,0
-32.0,-243.0,-65.0,134.0,-558.0,193.0,0
-39.0,-246.0,-71.0,167.0,-569.0,187.0,0
-39.0,-244.0,-65.0,194.0,-572.0,189.0,0
-36.0,-247.0,-60.0,215.0,-573.0,195.0,0
-36.0,-248.0,-54.0,223.0,-575.0,201.0,0
-36.0,-251.0,-53.0,231.0,-571.0,216.0,0
-30.0,-251.0,-53.0,234.0,-566.0,235.0,0
-27.0,-251.0,-53.0,236.0,-564.0,252.0,0
-29.0,-256.0,-54.0,230.0,-558.0,264.0,0
-32.0,-254.0,-53.0,214.0,-557.0,289.0,0
-30.0,-255.0,-55.0,192.0,-562.0,313.0,0
-36.0,-254.0,-59.0,174.0,-564.0,324.0,0
-40.0,-257.0,-59.0,157.0,-566.0,341.0,0
-39.0,-257.0,-64.0,141.0,-559.0,350.0,0
-47.0,-253.0,-69.0,129.0,-546.0,350.0,0
-45.0,-253.0,-67.0,118.0,-526.0,355.0,0
-41.0,-253.0,-65.0,110.0,-512.0,361.0,0
-41.0,-254.0,-64.0,110.0,-487.0,353.0,0
-43.0,-252.0,-69.0,108.0,-466.0,356.0,0
-40.0,-253.0,-64.0,107.0,-449.0,370.0,0
-45.0,-251.0,-64.0,118.0,-423.0,375.0,0
-39.0,-251.0,-65.0,127.0,-401.0,379.0,0
-37.0,-251.0,-67.0,136.0,-388.0,385.0,0
-35.0,-249.0,-60.0,144.0,-374.0,395.0,0
-39.0,-246.0,-63.0,152.0,-344.0,392.0,0
-42.0,-244.0,-62.0,160.0,-320.0,395.0,0
-41.0,-240.0,-63.0,178.0,-301.0,408.0,0
-37.0,-235.0,-63.0,195.0,-277.0,414.0,0
-40.0,-233.0,-63.0,206.0,-258.0,416.0,0
-39.0,-229.0,-65.0,194.0,-241.0,415.0,0
-43.0,-227.0,-66.0,168.0,-220.0,421.0,0
-52.0,-224.0,-68.0,136.0,-200.0,435.0,0
-48.0,-218.0,-66.0,93.0,-185.0,442.0,0
-46.0,-219.0,-65.0,54.0,-177.0,434.0,0
-49.0,-221.0,-61.0,14.0,-163.0,428.0,0
-48.0,-218.0,-59.0,-23.0,-147.0,427.0,0
-48.0,-219.0,-64.0,-54.0,-124.0,424.0,0
-48.0,-218.0,-59.0,-81.0,-100.0,424.0,0
-50.0,-213.0,-63.0,-111.0,-70.0,428.0,0
-47.0,-213.0,-64.0,-135.0,-47.0,433.0,0
-52.0,-214.0,-62.0,-158.0,-28.0,443.0,0
-52.0,-209.0,-59.0,-180.0,-12.0,457.0,0
-55.0,-206.0,-60.0,-196.0,9.0,460.0,0
-50.0,-205.0,-61.0,-213.0,26.0,462.0,0
-55.0,-202.0,-64.0,-233.0,40.0,466.0,0
-59.0,-205.0,-56.0,-260.0,48.0,471.0,0
-61.0,-205.0,-53.0,-294.0,52.0,474.0,0
-66.0,-208.0,-49.0,-322.0,54.0,474.0,0
-65.0,-210.0,-52.0,-349.0,56.0,475.0,0
-69.0,-210.0,-47.0,-365.0,55.0,470.0,0
-70.0,-210.0,-43.0,-376.0,57.0,467.0,0
-73.0,-215.0,-42.0,-377.0,62.0,462.0,0
-77.0,-215.0,-38.0,-371.0,72.0,459.0,0
-80.0,-213.0,-43.0,-363.0,83.0,450.0,0
-80.0,-220.0,-43.0,-356.0,97.0,442.0,0
-81.0,-217.0,-47.0,-350.0,113.0,435.0,0
-83.0,-216.0,-47.0,-344.0,131.0,432.0,0
-80.0,-220.0,-52.0,-338.0,153.0,433.0,0
-79.0,-219.0,-52.0,-334.0,181.0,438.0,0
-78.0,-219.0,-62.0,-335.0,214.0,438.0,0
-78.0,-215.0,-72.0,-342.0,253.0,442.0,0
-80.0,-209.0,-79.0,-355.0,301.0,446.0,0
-79.0,-213.0,-86.0,-376.0,347.0,454.0,0
-85.0,-213.0,-84.0,-411.0,388.0,454.0,0
-84.0,-216.0,-81.0,-450.0,416.0,451.0,0
-82.0,-221.0,-83.0,-486.0,436.0,442.0,0
-86.0,-224.0,-79.0,-511.0,453.0,433.0,0
-85.0,-226.0,-78.0,-520.0,459.0,419.0,0
-83.0,-230.0,-77.0,-513.0,457.0,404.0,0
-80.0,-232.0,-77.0,-478.0,457.0,387.0,0
-79.0,-228.0,-76.0,-436.0,462.0,373.0,0
-76.0,-228.0,-77.0,-387.0,475.0,360.0,0
-80.0,-226.0,-78.0,-344.0,484.0,349.0,0
-81.0,-226.0,-76.0,-310.0,489.0,340.0,0
-83.0,-223.0,-77.0,-284.0,487.0,332.0,0
-86.0,-220.0,-80.0,-264.0,481.0,322.0,0
-89.0,-220.0,-81.0,-244.0,486.0,317.0,0
-90.0,-215.0,-82.0,-223.0,498.0,312.0,0
-97.0,-215.0,-83.0,-207.0,513.0,307.0,0
-97.0,-209.0,-91.0,-201.0,531.0,301.0,0
-100.0,-205.0,-86.0,-212.0,546.0,290.0,0
-99.0,-203.0,-91.0,-232.0,558.0,275.0,0
-98.0,-200.0,-88.0,-258.0,566.0,263.0,0
-94.0,-201.0,-94.0,-286.0,568.0,253.0,0
-85.0,-201.0,-84.0,-316.0,561.0,246.0,0
-79.0,-207.0,-86.0,-344.0,549.0,235.0,0
-75.0,-207.0,-82.0,-370.0,538.0,226.0,0
-72.0,-209.0,-78.0,-388.0,538.0,216.0,0
-75.0,-207.0,-81.0,-406.0,548.0,206.0,0
-79.0,-205.0,-81.0,-429.0,569.0,190.0,0
-82.0,-210.0,-87.0,-452.0,583.0,169.0,0
-88.0,-210.0,-87.0,-475.0,592.0,140.0,0
-98.0,-210.0,-91.0,-490.0,591.0,113.0,0
-108.0,-210.0,-88.0,-497.0,579.0,86.0,0
-109.0,-214.0,-97.0,-489.0,561.0,59.0,0
-114.0,-208.0,-99.0,-472.0,537.0,36.0,0
-122.0,-208.0,-102.0,-451.0,515.0,18.0,0
-124.0,-206.0,-105.0,-426.0,493.0,2.0,0
-126.0,-203.0,-109.0,-397.0,471.0,-7.0,0
-123.0,-199.0,-114.0,-377.0,452.0,-14.0,0
-124.0,-193.0,-113.0,-365.0,435.0,-15.0,0
-121.0,-188.0,-114.0,-368.0,413.0,-14.0,0
-123.0,-185.0,-115.0,-376.0,389.0,-4.0,0
-114.0,-183.0,-117.0,-390.0,363.0,9.0,0
-112.0,-182.0,-117.0,-410.0,336.0,27.0,0
-114.0,-179.0,-122.0,-437.0,316.0,51.0,0
-107.0,-179.0,-122.0,-470.0,296.0,79.0,0
-107.0,-173.0,-130.0,-509.0,280.0,106.0,0
-107.0,-168.0,-136.0,-550.0,268.0,131.0,0
-101.0,-168.0,-137.0,-584.0,261.0,156.0,0
-100.0,-167.0,-141.0,-611.0,258.0,171.0,0
-95.0,-167.0,-145.0,-616.0,257.0,182.0,0
-89.0,-168.0,-138.0,-621.0,254.0,192.0,0
-80.0,-168.0,-131.0,-624.0,247.0,207.0,0
-77.0,-165.0,-131.0,-635.0,241.0,225.0,0
-72.0,-167.0,-127.0,-654.0,234.0,243.0,0
-66.0,-168.0,-128.0,-690.0,227.0,264.0,0
-64.0,-171.0,-131.0,-747.0,220.0,284.0,0
-66.0,-180.0,-127.0,-823.0,207.0,303.0,0
-66.0,-190.0,-127.0,-898.0,188.0,326.0,0
-68.0,-192.0,-128.0,-974.0,167.0,340.0,0
-74.0,-202.0,-127.0,-1046.0,155.0,345.0,0
-80.0,-214.0,-128.0,-1104.0,136.0,364.0,0
-73.0,-235.0,-113.0,-1122.0,125.0,394.0,0
-77.0,-230.0,-133.0,-1069.0,112.0,417.0,0
-78.0,-233.0,-139.0,-1027.0,123.0,416.0,0
-79.0,-229.0,-145.0,-1014.0,142.0,414.0,0
-69.0,-238.0,-147.0,-1014.0,165.0,397.0,0
-75.0,-237.0,-137.0,-1004.0,208.0,373.0,0
-78.0,-245.0,-142.0,-961.0,231.0,361.0,0
-82.0,-243.0,-144.0,-899.0,258.0,339.0,0
-91.0,-236.0,-148.0,-867.0,279.0,316.0,0
-112.0,-231.0,-146.0,-856.0,283.0,306.0,0
-110.0,-231.0,-140.0,-860.0,261.0,305.0,0
-117.0,-229.0,-148.0,-856.0,242.0,284.0,0
-120.0,-212.0,-151.0,-850.0,220.0,248.0,0
-117.0,-221.0,-152.0,-836.0,209.0,192.0,0
-115.0,-214.0,-158.0,-814.0,215.0,130.0,0
-117.0,-206.0,-159.0,-791.0,235.0,74.0,0
-115.0,-197.0,-158.0,-775.0,257.0,30.0,0
-121.0,-189.0,-159.0,-766.0,265.0,-11.0,0
-109.0,-184.0,-167.0,-771.0,249.0,-32.0,0
-116.0,-179.0,-168.0,-787.0,218.0,-48.0,0
-109.0,-173.0,-169.0,-822.0,172.0,-61.0,0
-112.0,-174.0,-168.0,-873.0,114.0,-78.0,0
-98.0,-180.0,-163.0,-921.0,20.0,-89.0,0
-92.0,-177.0,-167.0,-957.0,-62.0,-107.0,0
-83.0,-182.0,-170.0,-992.0,-121.0,-124.0,0
-77.0,-180.0,-169.0,-1022.0,-177.0,-136.0,0
-67.0,-185.0,-173.0,-1042.0,-231.0,-149.0,0
-63.0,-190.0,-173.0,-1045.0,-283.0,-162.0,0
-60.0,-191.0,-173.0,-1037.0,-311.0,-170.0,0
-54.0,-195.0,-171.0,-1019.0,-328.0,-169.0,0
-48.0,-203.0,-172.0,-999.0,-338.0,-164.0,0
-41.0,-198.0,-169.0,-982.0,-335.0,-164.0,0
-47.0,-198.0,-166.0,-962.0,-316.0,-165.0,0
-42.0,-200.0,-167.0,-949.0,-305.0,-148.0,0
-46.0,-202.0,-168.0,-945.0,-280.0,-140.0,0
-46.0,-200.0,-170.0,-945.0,-247.0,-128.0,0
-47.0,-200.0,-170.0,-956.0,-213.0,-117.0,0
-44.0,-199.0,-176.0,-961.0,-179.0,-105.0,0
-55.0,-200.0,-177.0,-965.0,-144.0,-108.0,0
-50.0,-193.0,-179.0,-975.0,-135.0,-107.0,0
-61.0,-191.0,-182.0,-991.0,-126.0,-121.0,0
-59.0,-190.0,-181.0,-1007.0,-124.0,-137.0,0
-53.0,-186.0,-179.0,-1019.0,-128.0,-136.0,0
-64.0,-181.0,-174.0,-1021.0,-116.0,-162.0,0
-58.0,-173.0,-176.0,-1022.0,-116.0,-202.0,0
-65.0,-165.0,-178.0,-1022.0,-115.0,-233.0,0
-95.0,-150.0,-164.0,-1027.0,-117.0,-234.0,0
-95.0,-154.0,-170.0,-1026.0,-145.0,-253.0,0
-90.0,-155.0,-167.0,-992.0,-193.0,-276.0,0
-81.0,-157.0,-170.0,-942.0,-220.0,-304.0,0
-70.0,-150.0,-160.0,-901.0,-232.0,-316.0,0
-80.0,-146.0,-161.0,-880.0,-228.0,-348.0,0
-66.0,-147.0,-161.0,-895.0,-233.0,-391.0,0
-57.0,-143.0,-162.0,-927.0,-230.0,-425.0,0
-48.0,-145.0,-175.0,-967.0,-221.0,-420.0,0
-43.0,-138.0,-175.0,-1012.0,-189.0,-423.0,0
-44.0,-139.0,-173.0,-1057.0,-169.0,-425.0,0
-15.0,-147.0,-182.0,-1089.0,-170.0,-399.0,0
-44.0,-148.0,-177.0,-1101.0,-169.0,-382.0,0
-41.0,-155.0,-180.0,-1068.0,-211.0,-393.0,0
-29.0,-176.0,-186.0,-1007.0,-265.0,-384.0,0
-50.0,-162.0,-180.0,-947.0,-316.0,-338.0,0
-66.0,-169.0,-183.0,-886.0,-351.0,-356.0,0
-66.0,-139.0,-174.0,-819.0,-387.0,-373.0,0
-55.0,-184.0,-179.0,-754.0,-398.0,-355.0,0
-72.0,-159.0,-192.0,-685.0,-380.0,-351.0,0
-62.0,-165.0,-186.0,-640.0,-355.0,-376.0,0
-54.0,-158.0,-183.0,-611.0,-325.0,-394.0,0
-25.0,-159.0,-180.0,-600.0,-287.0,-374.0,0
-48.0,-166.0,-184.0,-591.0,-235.0,-371.0,0
-27.0,-172.0,-186.0,-595.0,-193.0,-395.0,0
-28.0,-169.0,-191.0,-611.0,-151.0,-403.0,0
-25.0,-188.0,-192.0,-641.0,-116.0,-427.0,0
-30.0,-181.0,-193.0,-638.0,-82.0,-407.0,0
-28.0,-181.0,-202.0,-621.0,-45.0,-460.0,0
-27.0,-191.0,-203.0,-611.0,-22.0,-511.0,0
-27.0,-196.0,-209.0,-584.0,0.0,-542.0,0
-34.0,-197.0,-207.0,-551.0,19.0,-577.0,0
-35.0,-184.0,-200.0,-540.0,15.0,-583.0,0
-47.0,-182.0,-199.0,-525.0,25.0,-627.0,0
-34.0,-185.0,-203.0,-515.0,14.0,-699.0,0
-36.0,-184.0,-201.0,-497.0,1.0,-736.0,0
-42.0,-189.0,-208.0,-463.0,-3.0,-758.0,0
-55.0,-179.0,-201.0,-431.0,-6.0,-770.0,0
-70.0,-172.0,-199.0,-397.0,-22.0,-736.0,0
-68.0,-175.0,-197.0,-362.0,-12.0,-763.0,0
-62.0,-177.0,-200.0,-333.0,-6.0,-804.0,0
-64.0,-180.0,-199.0,-308.0,-7.0,-828.0,0
-59.0,-178.0,-206.0,-286.0,-10.0,-840.0,0
-65.0,-178.0,-204.0,-277.0,-15.0,-853.0,0
-40.0,-194.0,-205.0,-276.0,-25.0,-858.0,0
-83.0,-172.0,-208.0,-284.0,-45.0,-832.0,0
-63.0,-183.0,-211.0,-290.0,-49.0,-882.0,0
-54.0,-190.0,-218.0,-294.0,-66.0,-902.0,0
-69.0,-186.0,-225.0,-293.0,-95.0,-917.0,0
-63.0,-193.0,-228.0,-281.0,-97.0,-924.0,0
-58.0,-196.0,-230.0,-257.0,-102.0,-941.0,0
-23.0,-241.0,-239.0,-228.0,-101.0,-947.0,0
-78.0,-182.0,-223.0,-191.0,-137.0,-886.0,0
-44.0,-189.0,-239.0,-142.0,-87.0,-969.0,0
-46.0,-197.0,-235.0,-99.0,-72.0,-993.0,0
-45.0,-196.0,-229.0,-59.0,-63.0,-1001.0,0
-41.0,-204.0,-230.0,-22.0,-54.0,-1015.0,0
-46.0,-195.0,-222.0,2.0,-43.0,-1034.0,0
-43.0,-191.0,-223.0,27.0,-17.0,-1050.0,0
-43.0,-185.0,-219.0,50.0,12.0,-1069.0,0
-41.0,-178.0,-212.0,73.0,35.0,-1088.0,0
-34.0,-179.0,-210.0,89.0,51.0,-1105.0,0
-29.0,-175.0,-217.0,94.0,64.0,-1117.0,0
-21.0,-174.0,-215.0,109.0,95.0,-1140.0,0
-16.0,-173.0,-208.0,126.0,113.0,-1159.0,0
-16.0,-173.0,-209.0,137.0,123.0,-1178.0,0
-16.0,-177.0,-202.0,153.0,128.0,-1202.0,0
-33.0,-176.0,-205.0,177.0,133.0,-1232.0,0
-13.0,-169.0,-211.0,211.0,128.0,-1265.0,0
-19.0,-176.0,-205.0,244.0,142.0,-1282.0,0
-17.0,-176.0,-208.0,276.0,150.0,-1292.0,0
-15.0,-170.0,-211.0,320.0,154.0,-1305.0,0
-21.0,-179.0,-199.0,361.0,162.0,-1306.0,0
-17.0,-177.0,-200.0,413.0,158.0,-1327.0,0
-15.0,-173.0,-200.0,474.0,148.0,-1340.0,0
-9.0,-174.0,-205.0,524.0,146.0,-1354.0,0
-11.0,-165.0,-193.0,556.0,147.0,-1352.0,0
-11.0,-170.0,-193.0,575.0,155.0,-1339.0,0
-18.0,-169.0,-187.0,587.0,160.0,-1315.0,0
-32.0,-175.0,-180.0,610.0,160.0,-1308.0,0
-21.0,-186.0,-178.0,650.0,143.0,-1314.0,0
-16.0,-173.0,-171.0,687.0,154.0,-1312.0,0
-11.0,-179.0,-170.0,698.0,157.0,-1291.0,0
-17.0,-184.0,-170.0,720.0,143.0,-1272.0,0
-2.0,-189.0,-163.0,759.0,142.0,-1280.0,0
-8.0,-196.0,-156.0,778.0,138.0,-1274.0,0
-6.0,-198.0,-158.0,801.0,123.0,-1263.0,0
-8.0,-203.0,-156.0,833.0,118.0,-1251.0,0
-4.0,-201.0,-155.0,861.0,111.0,-1237.0,0
-12.0,-217.0,-160.0,895.0,90.0,-1212.0,0
-4.0,-204.0,-158.0,949.0,81.0,-1227.0,0
-6.0,-213.0,-165.0,972.0,82.0,-1221.0,0
-15.0,-219.0,-170.0,981.0,77.0,-1200.0,0
-4.0,-214.0,-169.0,1002.0,60.0,-1183.0,0
-13.0,-220.0,-161.0,1005.0,97.0,-1172.0,0
-10.0,-221.0,-175.0,1015.0,105.0,-1156.0,0
-12.0,-228.0,-169.0,1034.0,107.0,-1128.0,0
-24.0,-223.0,-172.0,1068.0,109.0,-1081.0,0
-15.0,-227.0,-173.0,1098.0,125.0,-1073.0,0
-14.0,-227.0,-176.0,1126.0,129.0,-1047.0,0
-16.0,-234.0,-174.0,1155.0,133.0,-1017.0,0
-21.0,-228.0,-173.0,1182.0,129.0,-969.0,0
-17.0,-231.0,-173.0,1196.0,142.0,-956.0,0
-23.0,-231.0,-177.0,1211.0,145.0,-925.0,0
-24.0,-232.0,-172.0,1217.0,148.0,-888.0,0
-33.0,-235.0,-173.0,1220.0,139.0,-847.0,0
-25.0,-231.0,-169.0,1205.0,147.0,-832.0,0
-28.0,-235.0,-173.0,1189.0,141.0,-810.0,0
-31.0,-231.0,-171.0,1167.0,134.0,-781.0,0
-30.0,-230.0,-174.0,1138.0,130.0,-754.0,0
-30.0,-235.0,-173.0,1103.0,129.0,-729.0,0
-27.0,-238.0,-176.0,1070.0,128.0,-709.0,0
-28.0,-237.0,-170.0,1043.0,132.0,-687.0,0
-25.0,-239.0,-168.0,1016.0,139.0,-684.0,0
-22.0,-237.0,-170.0,991.0,146.0,-673.0,0
-22.0,-237.0,-164.0,973.0,151.0,-666.0,0
-19.0,-236.0,-162.0,951.0,146.0,-663.0,0
-16.0,-231.0,-158.0,931.0,146.0,-665.0,0
-9.0,-228.0,-159.0,910.0,151.0,-666.0,0
-11.0,-225.0,-156.0,896.0,155.0,-666.0,0
-9.0,-222.0,-155.0,889.0,159.0,-656.0,0
-3.0,-226.0,-156.0,893.0,162.0,-642.0,0
4.0,-226.0,-154.0,909.0,160.0,-628.0,0
13.0,-226.0,-154.0,933.0,160.0,-617.0,0
12.0,-219.0,-155.0,958.0,164.0,-603.0,0
14.0,-220.0,-149.0,988.0,157.0,-583.0,0
17.0,-219.0,-145.0,1028.0,152.0,-570.0,0
20.0,-215.0,-146.0,1053.0,143.0,-558.0,0
19.0,-209.0,-143.0,1068.0,132.0,-546.0,0
17.0,-212.0,-137.0,1077.0,118.0,-528.0,0
31.0,-205.0,-145.0,1079.0,111.0,-522.0,0
32.0,-202.0,-139.0,1068.0,112.0,-519.0,0
36.0,-203.0,-137.0,1056.0,113.0,-510.0,0
39.0,-199.0,-131.0,1042.0,114.0,-504.0,0
43.0,-199.0,-128.0,1020.0,120.0,-501.0,0
49.0,-198.0,-125.0,987.0,116.0,-500.0,0
48.0,-200.0,-124.0,952.0,117.0,-498.0,0
52.0,-200.0,-125.0,927.0,116.0,-500.0,0
50.0,-200.0,-123.0,906.0,120.0,-499.0,0
56.0,-205.0,-117.0,892.0,123.0,-499.0,0
57.0,-203.0,-120.0,883.0,126.0,-499.0,0
62.0,-206.0,-117.0,882.0,131.0,-490.0,0
61.0,-208.0,-120.0,891.0,137.0,-478.0,0
61.0,-209.0,-114.0,905.0,140.0,-460.0,0
58.0,-208.0,-113.0,925.0,143.0,-441.0,0
68.0,-209.0,-110.0,936.0,147.0,-418.0,0
70.0,-207.0,-109.0,937.0,155.0,-398.0,0
68.0,-211.0,-99.0,932.0,166.0,-382.0,0
72.0,-215.0,-103.0,926.0,168.0,-369.0,0
75.0,-219.0,-100.0,913.0,174.0,-365.0,0
71.0,-221.0,-99.0,907.0,179.0,-364.0,0
69.0,-222.0,-90.0,905.0,186.0,-366.0,0
75.0,-224.0,-91.0,902.0,194.0,-365.0,0
85.0,-230.0,-89.0,902.0,206.0,-365.0,0
82.0,-233.0,-91.0,901.0,223.0,-372.0,0
80.0,-231.0,-81.0,902.0,242.0,-379.0,0
84.0,-241.0,-84.0,918.0,256.0,-389.0,0
85.0,-242.0,-80.0,953.0,265.0,-396.0,0
81.0,-247.0,-77.0,985.0,277.0,-399.0,0
78.0,-253.0,-74.0,1018.0,289.0,-405.0,0
75.0,-252.0,-69.0,1051.0,297.0,-411.0,0
78.0,-258.0,-72.0,1089.0,305.0,-413.0,0
80.0,-260.0,-67.0,1118.0,314.0,-414.0,0
73.0,-260.0,-65.0,1145.0,321.0,-413.0,0
71.0,-263.0,-64.0,1175.0,330.0,-411.0,0
70.0,-265.0,-56.0,1206.0,337.0,-410.0,0
72.0,-268.0,-52.0,1231.0,340.0,-398.0,0
71.0,-269.0,-52.0,1258.0,350.0,-385.0,0
68.0,-267.0,-43.0,1267.0,357.0,-372.0,0
71.0,-270.0,-42.0,1267.0,364.0,-356.0,0
72.0,-263.0,-37.0,1263.0,372.0,-341.0,0
77.0,-264.0,-28.0,1262.0,390.0,-329.0,0
76.0,-264.0,-26.0,1251.0,408.0,-311.0,0
78.0,-262.0,-22.0,1240.0,425.0,-293.0,0
85.0,-266.0,-18.0,1230.0,434.0,-262.0,0
99.0,-266.0,-17.0,1230.0,440.0,-235.0,0
107.0,-265.0,-14.0,1241.0,441.0,-207.0,0
108.0,-263.0,-17.0,1263.0,446.0,-180.0,0
112.0,-260.0,-8.0,1277.0,449.0,-162.0,0
112.0,-259.0,-13.0,1281.0,447.0,-149.0,0
110.0,-258.0,-12.0,1272.0,440.0,-135.0,0
117.0,-258.0,-14.0,1251.0,429.0,-124.0,0
110.0,-247.0,-8.0,1219.0,421.0,-119.0,0
113.0,-241.0,-6.0,1189.0,417.0,-108.0,0
109.0,-242.0,-9.0,1159.0,404.0,-99.0,0
103.0,-243.0,-7.0,1126.0,394.0,-91.0,0
103.0,-240.0,-11.0,1099.0,380.0,-79.0,0
97.0,-240.0,-14.0,1076.0,359.0,-75.0,0
98.0,-242.0,-10.0,1057.0,337.0,-73.0,0
84.0,-243.0,-7.0,1040.0,328.0,-67.0,0
90.0,-240.0,-5.0,1030.0,316.0,-62.0,0
85.0,-242.0,-6.0,1016.0,304.0,-59.0,0
80.0,-231.0,-3.0,997.0,297.0,-62.0,0
67.0,-235.0,1.0,986.0,272.0,-46.0,0
63.0,-238.0,-1.0,983.0,244.0,-32.0,0
63.0,-228.0,1.0,978.0,214.0,-40.0,0
65.0,-227.0,-1.0,963.0,185.0,-27.0,0
60.0,-226.0,-2.0,932.0,169.0,-12.0,0
64.0,-223.0,4.0,892.0,154.0,-8.0,0
60.0,-220.0,-2.0,850.0,135.0,10.0,0
58.0,-225.0,-2.0,797.0,122.0,28.0,0
59.0,-223.0,-5.0,741.0,107.0,45.0,0
54.0,-223.0,-9.0,688.0,92.0,61.0,0
51.0,-222.0,-11.0,638.0,79.0,77.0,0
60.0,-217.0,-13.0,589.0,64.0,98.0,0
55.0,-218.0,-16.0,533.0,53.0,131.0,0
58.0,-216.0,-20.0,483.0,44.0,161.0,0
60.0,-220.0,-23.0,431.0,37.0,184.0,0
58.0,-220.0,-22.0,375.0,30.0,205.0,0
62.0,-221.0,-27.0,340.0,30.0,224.0,0
54.0,-223.0,-28.0,315.0,29.0,245.0,0
59.0,-220.0,-29.0,296.0,28.0,262.0,0
58.0,-223.0,-34.0,292.0,21.0,281.0,0
60.0,-223.0,-28.0,299.0,11.0,298.0,0
58.0,-225.0,-24.0,312.0,-7.0,312.0,0
58.0,-224.0,-24.0,327.0,-33.0,316.0,0
54.0,-226.0,-18.0,345.0,-61.0,316.0,0
60.0,-231.0,-13.0,360.0,-96.0,309.0,0
56.0,-229.0,-2.0,382.0,-140.0,303.0,0
56.0,-228.0,0.0,416.0,-178.0,298.0,0
59.0,-229.0,-1.0,451.0,-217.0,293.0,0
61.0,-226.0,8.0,487.0,-249.0,289.0,0
63.0,-219.0,13.0,522.0,-279.0,289.0,0
60.0,-219.0,14.0,552.0,-299.0,284.0,0
65.0,-220.0,17.0,574.0,-312.0,283.0,0
66.0,-219.0,17.0,593.0,-325.0,280.0,0
66.0,-220.0,16.0,609.0,-334.0,272.0,0
68.0,-223.0,20.0,623.0,-337.0,263.0,0
66.0,-222.0,23.0,641.0,-336.0,254.0,0
70.0,-225.0,25.0,665.0,-334.0,244.0,0
67.0,-229.0,28.0,691.0,-325.0,234.0,0
73.0,-233.0,29.0,727.0,-320.0,226.0,0
74.0,-236.0,28.0,769.0,-315.0,219.0,0
74.0,-235.0,31.0,816.0,-308.0,216.0,0
73.0,-237.0,30.0,861.0,-296.0,222.0,0
72.0,-238.0,30.0,910.0,-286.0,229.0,0
74.0,-243.0,31.0,953.0,-275.0,240.0,0
70.0,-244.0,30.0,986.0,-262.0,249.0,0
73.0,-246.0,35.0,1018.0,-251.0,271.0,0
73.0,-248.0,38.0,1045.0,-233.0,287.0,0
71.0,-251.0,41.0,1060.0,-224.0,306.0,0
68.0,-251.0,42.0,1073.0,-217.0,328.0,0
67.0,-255.0,41.0,1077.0,-209.0,351.0,0
65.0,-258.0,40.0,1072.0,-194.0,367.0,0
63.0,-258.0,45.0,1059.0,-178.0,377.0,0
61.0,-258.0,46.0,1042.0,-164.0,385.0,0
61.0,-260.0,45.0,1023.0,-151.0,390.0,0
53.0,-258.0,41.0,1004.0,-137.0,396.0,0
51.0,-263.0,36.0,985.0,-125.0,413.0,0
54.0,-265.0,35.0,969.0,-114.0,426.0,0
47.0,-268.0,38.0,953.0,-110.0,437.0,0
49.0,-273.0,33.0,939.0,-112.0,439.0,0
46.0,-279.0,33.0,918.0,-105.0,433.0,0
43.0,-281.0,31.0,894.0,-96.0,419.0,0
46.0,-283.0,31.0,868.0,-85.0,401.0,0
48.0,-282.0,30.0,836.0,-70.0,371.0,0
47.0,-284.0,32.0,802.0,-53.0,336.0,0
47.0,-280.0,34.0,761.0,-34.0,295.0,0
53.0,-281.0,34.0,716.0,-12.0,256.0,0
49.0,-276.0,33.0,665.0,15.0,203.0,0
52.0,-273.0,30.0,598.0,42.0,161.0,0
43.0,-269.0,35.0,534.0,74.0,124.0,0
45.0,-265.0,32.0,469.0,107.0,95.0,0
38.0,-258.0,35.0,405.0,137.0,71.0,0
37.0,-257.0,45.0,343.0,160.0,58.0,0
36.0,-253.0,47.0,285.0,170.0,48.0,0
38.0,-258.0,58.0,228.0,168.0,43.0,0
34.0,-260.0,68.0,179.0,160.0,36.0,0
31.0,-269.0,76.0,140.0,149.0,35.0,0
27.0,-272.0,83.0,114.0,129.0,45.0,0
26.0,-278.0,85.0,95.0,112.0,63.0,0
14.0,-283.0,91.0,82.0,101.0,81.0,0
7.0,-280.0,92.0,69.0,92.0,103.0,0
-4.0,-287.0,96.0,50.0,92.0,122.0,0
4.0,-287.0,93.0,28.0,94.0,134.0,0
10.0,-293.0,92.0,3.0,99.0,133.0,0
12.0,-286.0,81.0,-5.0,99.0,129.0,0
16.0,-278.0,75.0,-18.0,87.0,124.0,0
28.0,-273.0,65.0,-55.0,84.0,128.0,0
31.0,-274.0,62.0,-95.0,73.0,139.0,0
31.0,-271.0,55.0,-145.0,66.0,160.0,0
48.0,-272.0,52.0,-177.0,50.0,191.0,0
51.0,-270.0,46.0,-201.0,28.0,220.0,0
55.0,-270.0,44.0,-221.0,1.0,249.0,0
51.0,-268.0,39.0,-231.0,-34.0,282.0,0
52.0,-268.0,35.0,-224.0,-73.0,315.0,0
47.0,-267.0,37.0,-199.0,-120.0,349.0,0
43.0,-266.0,36.0,-146.0,-167.0,380.0,0
40.0,-264.0,36.0,-65.0,-214.0,418.0,0
40.0,-262.0,34.0,33.0,-262.0,451.0,0
38.0,-259.0,33.0,165.0,-331.0,463.0,0
33.0,-249.0,31.0,285.0,-378.0,475.0,0
31.0,-244.0,32.0,409.0,-414.0,494.0,0
35.0,-236.0,24.0,525.0,-449.0,514.0,0
29.0,-224.0,23.0,618.0,-474.0,535.0,0
38.0,-215.0,19.0,686.0,-479.0,560.0,0
26.0,-210.0,28.0,730.0,-464.0,594.0,0
27.0,-197.0,26.0,760.0,-425.0,627.0,0
27.0,-193.0,37.0,764.0,-376.0,653.0,0
38.0,-191.0,43.0,748.0,-332.0,676.0,0
34.0,-184.0,47.0,715.0,-242.0,709.0,0
28.0,-183.0,52.0,672.0,-135.0,760.0,0
12.0,-177.0,57.0,609.0,-26.0,822.0,0
0.0,-178.0,69.0,527.0,78.0,901.0,0
-7.0,-180.0,72.0,436.0,162.0,974.0,0
-18.0,-179.0,78.0,352.0,228.0,1031.0,0
-22.0,-180.0,80.0,289.0,287.0,1081.0,0
-24.0,-180.0,77.0,242.0,343.0,1113.0,0
-26.0,-175.0,73.0,220.0,394.0,1132.0,0
-25.0,-169.0,76.0,223.0,443.0,1135.0,0
-24.0,-169.0,73.0,252.0,496.0,1129.0,0
-22.0,-159.0,65.0,291.0,536.0,1115.0,0
-11.0,-157.0,63.0,334.0,572.0,1100.0,0
-10.0,-153.0,57.0,369.0,607.0,1077.0,0
-11.0,-145.0,54.0,395.0,646.0,1042.0,0
-8.0,-146.0,52.0,412.0,680.0,1001.0,0
-5.0,-141.0,51.0,416.0,710.0,949.0,0
0.0,-144.0,45.0,409.0,729.0,885.0,0
3.0,-144.0,51.0,393.0,747.0,815.0,0
9.0,-148.0,48.0,360.0,763.0,742.0,0
6.0,-149.0,47.0,295.0,777.0,642.0,0
13.0,-151.0,48.0,227.0,776.0,541.0,0
22.0,-154.0,43.0,140.0,756.0,442.0,0
29.0,-134.0,65.0,44.0,726.0,334.0,0
41.0,-161.0,44.0,-58.0,688.0,226.0,0
57.0,-165.0,45.0,-160.0,650.0,105.0,0
72.0,-171.0,42.0,-259.0,613.0,-12.0,0
83.0,-183.0,37.0,-347.0,595.0,-134.0,0
86.0,-199.0,38.0,-420.0,589.0,-243.0,0
81.0,-214.0,25.0,-473.0,573.0,-343.0,0
83.0,-237.0,21.0,-503.0,546.0,-447.0,0
74.0,-253.0,18.0,-521.0,518.0,-521.0,0
73.0,-272.0,13.0,-521.0,487.0,-589.0,0
61.0,-289.0,10.0,-496.0,448.0,-652.0,0
58.0,-307.0,7.0,-448.0,404.0,-696.0,0
45.0,-319.0,9.0,-377.0,355.0,-728.0,0
36.0,-331.0,9.0,-286.0,302.0,-748.0,0
28.0,-347.0,13.0,-193.0,243.0,-757.0,0
22.0,-355.0,19.0,-97.0,179.0,-762.0,0
12.0,-354.0,21.0,1.0,116.0,-760.0,0
11.0,-360.0,27.0,107.0,37.0,-727.0,0
4.0,-360.0,33.0,239.0,-25.0,-686.0,0
4.0,-355.0,35.0,345.0,-87.0,-630.0,0
-9.0,-342.0,55.0,433.0,-137.0,-560.0,0
-14.0,-334.0,55.0,495.0,-182.0,-478.0,0
-16.0,-320.0,69.0,517.0,-209.0,-386.0,0
-16.0,-306.0,73.0,485.0,-220.0,-278.0,0
-13.0,-287.0,83.0,401.0,-220.0,-165.0,0
-17.0,-272.0,92.0,262.0,-207.0,-51.0,0
-27.0,-258.0,106.0,91.0,-189.0,57.0,0
-37.0,-246.0,107.0,-59.0,-162.0,138.0,0
-42.0,-233.0,114.0,-184.0,-123.0,170.0,0
-42.0,-233.0,126.0,-272.0,-62.0,186.0,0
-46.0,-229.0,132.0,-354.0,13.0,201.0,0
-40.0,-233.0,139.0,-411.0,83.0,208.0,0
-34.0,-235.0,142.0,-429.0,145.0,192.0,0
-24.0,-241.0,138.0,-414.0,185.0,174.0,0
-28.0,-236.0,133.0,-374.0,204.0,141.0,0
-18.0,-235.0,121.0,-328.0,203.0,101.0,0
-16.0,-240.0,122.0,-289.0,202.0,62.0,0
-11.0,-240.0,117.0,-264.0,200.0,29.0,0
-8.0,-240.0,109.0,-252.0,196.0,9.0,0
-3.0,-241.0,104.0,-255.0,190.0,-3.0,0
-7.0,-241.0,92.0,-272.0,183.0,-10.0,0
-3.0,-244.0,85.0,-297.0,167.0,-3.0,0
-8.0,-242.0,81.0,-334.0,150.0,5.0,0
-18.0,-245.0,76.0,-377.0,122.0,21.0,0
-14.0,-244.0,74.0,-423.0,89.0,46.0,0
-15.0,-246.0,67.0,-476.0,52.0,70.0,0
-16.0,-251.0,62.0,-527.0,15.0,95.0,0
-23.0,-253.0,60.0,-572.0,-25.0,121.0,0
-17.0,-255.0,60.0,-617.0,-73.0,133.0,0
-16.0,-259.0,56.0,-642.0,-109.0,141.0,0
-16.0,-258.0,52.0,-651.0,-139.0,141.0,0
-20.0,-257.0,51.0,-647.0,-162.0,138.0,0
-19.0,-258.0,45.0,-631.0,-180.0,130.0,0
-18.0,-256.0,42.0,-604.0,-194.0,122.0,0
-17.0,-258.0,42.0,-567.0,-199.0,108.0,0
-16.0,-252.0,40.0,-519.0,-205.0,92.0,0
-23.0,-252.0,38.0,-466.0,-206.0,75.0,0
-22.0,-245.0,39.0,-412.0,-207.0,55.0,0
-21.0,-245.0,37.0,-344.0,-206.0,36.0,0
-23.0,-239.0,34.0,-292.0,-199.0,19.0,0
-23.0,-237.0,37.0,-242.0,-187.0,5.0,0
-19.0,-237.0,39.0,-192.0,-172.0,-2.0,0
-15.0,-235.0,34.0,-138.0,-155.0,-9.0,0
-14.0,-233.0,40.0,-86.0,-127.0,-14.0,0
-11.0,-235.0,36.0,-41.0,-90.0,-22.0,0
-4.0,-236.0,38.0,-5.0,-56.0,-26.0,0
6.0,-240.0,41.0,23.0,-22.0,-37.0,0
9.0,-242.0,44.0,38.0,8.0,-51.0,0
6.0,-239.0,43.0,42.0,45.0,-77.0,0
3.0,-244.0,47.0,36.0,67.0,-101.0,0
11.0,-241.0,46.0,25.0,83.0,-129.0,0
20.0,-247.0,45.0,11.0,108.0,-151.0,0
32.0,-249.0,49.0,2.0,130.0,-178.0,0
41.0,-251.0,52.0,-3.0,160.0,-195.0,0
48.0,-252.0,53.0,-6.0,191.0,-215.0,0
52.0,-258.0,51.0,-8.0,229.0,-225.0,0
52.0,-260.0,57.0,-7.0,269.0,-239.0,0
56.0,-265.0,54.0,-11.0,301.0,-250.0,0
46.0,-268.0,50.0,-23.0,327.0,-261.0,0
43.0,-265.0,50.0,-39.0,335.0,-253.0,0
39.0,-265.0,47.0,-64.0,336.0,-255.0,0
42.0,-264.0,47.0,-81.0,337.0,-254.0,0
50.0,-267.0,44.0,-94.0,324.0,-248.0,0
45.0,-268.0,47.0,-98.0,310.0,-248.0,0
48.0,-265.0,53.0,-91.0,298.0,-249.0,0
43.0,-266.0,59.0,-68.0,290.0,-258.0,0
38.0,-264.0,66.0,-40.0,288.0,-271.0,0
35.0,-262.0,64.0,-13.0,293.0,-278.0,0
29.0,-261.0,65.0,5.0,298.0,-289.0,0
19.0,-260.0,65.0,17.0,299.0,-292.0,0
6.0,-261.0,64.0,23.0,293.0,-292.0,0
-4.0,-260.0,66.0,30.0,282.0,-283.0,0
-6.0,-259.0,63.0,42.0,265.0,-274.0,0
-14.0,-256.0,67.0,55.0,244.0,-257.0,0
-15.0,-255.0,63.0,74.0,221.0,-240.0,0
-19.0,-248.0,66.0,96.0,196.0,-217.0,0
-18.0,-248.0,62.0,119.0,170.0,-195.0,0
-22.0,-241.0,61.0,144.0,145.0,-168.0,0
-19.0,-243.0,60.0,162.0,121.0,-139.0,0
-17.0,-240.0,55.0,183.0,95.0,-108.0,0
-16.0,-236.0,52.0,190.0,79.0,-81.0,0
-12.0,-230.0,54.0,191.0,67.0,-54.0,0
-11.0,-229.0,52.0,194.0,65.0,-31.0,0
-13.0,-230.0,52.0,195.0,68.0,-5.0,0
-10.0,-230.0,55.0,195.0,68.0,14.0,0
-8.0,-230.0,51.0,193.0,67.0,31.0,0
-4.0,-226.0,51.0,188.0,72.0,41.0,0
0.0,-226.0,48.0,178.0,79.0,57.0,0
5.0,-229.0,49.0,174.0,81.0,66.0,0
10.0,-229.0,46.0,179.0,85.0,80.0,0
15.0,-230.0,44.0,177.0,86.0,88.0,0
19.0,-235.0,46.0,170.0,81.0,95.0,0
26.0,-237.0,41.0,160.0,68.0,99.0,0
32.0,-241.0,36.0,152.0,57.0,96.0,0
40.0,-246.0,33.0,153.0,42.0,86.0,0
46.0,-246.0,32.0,155.0,23.0,66.0,0
36.0,-248.0,31.0,161.0,3.0,30.0,0
39.0,-240.0,34.0,167.0,-13.0,-8.0,0
35.0,-240.0,37.0,169.0,-19.0,-59.0,0
33.0,-243.0,47.0,174.0,-7.0,-113.0,0
28.0,-243.0,47.0,178.0,9.0,-151.0,0
30.0,-251.0,53.0,178.0,23.0,-169.0,0
28.0,-254.0,56.0,175.0,41.0,-176.0,0
25.0,-255.0,56.0,170.0,60.0,-171.0,0
21.0,-256.0,65.0,167.0,74.0,-163.0,0
19.0,-260.0,71.0,179.0,85.0,-155.0,0
13.0,-261.0,71.0,197.0,92.0,-147.0,0
9.0,-261.0,68.0,223.0,95.0,-141.0,0
8.0,-263.0,73.0,252.0,94.0,-137.0,0
5.0,-266.0,75.0,281.0,89.0,-127.0,0
-1.0,-262.0,75.0,319.0,84.0,-119.0,0
0.0,-265.0,73.0,339.0,79.0,-107.0,0
-3.0,-265.0,76.0,352.0,75.0,-98.0,0
-3.0,-262.0,73.0,358.0,70.0,-82.0,0
-3.0,-261.0,72.0,353.0,63.0,-67.0,0
-3.0,-260.0,71.0,342.0,56.0,-50.0,0
-3.0,-258.0,73.0,323.0,50.0,-37.0,0
-5.0,-253.0,67.0,307.0,43.0,-26.0,0
-4.0,-252.0,62.0,288.0,41.0,-22.0,0
-5.0,-248.0,66.0,276.0,36.0,-18.0,0
-4.0,-246.0,58.0,268.0,34.0,-20.0,0
-3.0,-245.0,64.0,262.0,31.0,-19.0,0
-2.0,-237.0,56.0,260.0,29.0,-23.0,0
1.0,-239.0,64.0,261.0,27.0,-25.0,0
4.0,-233.0,61.0,267.0,27.0,-31.0,0
3.0,-229.0,63.0,271.0,26.0,-33.0,0
2.0,-230.0,60.0,271.0,25.0,-38.0,0
6.0,-231.0,58.0,270.0,22.0,-40.0,0
1.0,-228.0,56.0,273.0,18.0,-42.0,0
1.0,-227.0,58.0,269.0,16.0,-39.0,0
5.0,-228.0,60.0,259.0,14.0,-34.0,0
5.0,-225.0,60.0,249.0,12.0,-25.0,0
8.0,-223.0,60.0,234.0,11.0,-18.0,0
6.0,-223.0,60.0,213.0,12.0,-5.0,0
5.0,-220.0,60.0,191.0,15.0,5.0,0
9.0,-222.0,60.0,164.0,20.0,17.0,0
10.0,-222.0,64.0,136.0,25.0,24.0,0
9.0,-226.0,65.0,107.0,30.0,34.0,0
13.0,-232.0,63.0,81.0,34.0,34.0,0
11.0,-231.0,63.0,59.0,38.0,32.0,0
14.0,-232.0,68.0,33.0,38.0,20.0,0
11.0,-235.0,67.0,16.0,38.0,13.0,0
13.0,-236.0,73.0,1.0,34.0,4.0,0
14.0,-243.0,69.0,-10.0,29.0,1.0,0
10.0,-245.0,73.0,-21.0,28.0,-5.0,0
11.0,-245.0,69.0,-30.0,25.0,-11.0,0
13.0,-249.0,69.0,-40.0,22.0,-17.0,0
14.0,-253.0,71.0,-46.0,23.0,-19.0,0
16.0,-255.0,70.0,-49.0,25.0,-25.0,0
18.0,-253.0,71.0,-49.0,27.0,-28.0,0
14.0,-254.0,69.0,-47.0,29.0,-33.0,0
12.0,-251.0,68.0,-42.0,31.0,-34.0,0
17.0,-255.0,71.0,-37.0,34.0,-42.0,0
15.0,-253.0,72.0,-32.0,33.0,-43.0,0
16.0,-251.0,73.0,-27.0,32.0,-48.0,0
15.0,-251.0,75.0,-21.0,29.0,-50.0,0
14.0,-246.0,74.0,-11.0,28.0,-53.0,0
14.0,-245.0,74.0,5.0,25.0,-55.0,0
19.0,-249.0,73.0,23.0,22.0,-57.0,0
19.0,-250.0,74.0,43.0,24.0,-56.0,0
14.0,-247.0,79.0,68.0,26.0,-55.0,0
15.0,-248.0,72.0,96.0,31.0,-52.0,0
12.0,-247.0,77.0,117.0,34.0,-49.0,0
14.0,-244.0,74.0,145.0,37.0,-46.0,0
12.0,-244.0,73.0,170.0,41.0,-47.0,0
13.0,-242.0,73.0,191.0,48.0,-44.0,0
14.0,-245.0,76.0,202.0,52.0,-44.0,0
15.0,-244.0,74.0,209.0,58.0,-43.0,0
14.0,-241.0,71.0,209.0,62.0,-44.0,0
13.0,-237.0,72.0,201.0,70.0,-45.0,0
16.0,-232.0,72.0,186.0,78.0,-47.0,0
16.0,-229.0,71.0,160.0,86.0,-47.0,0
18.0,-228.0,73.0,134.0,91.0,-49.0,0
17.0,-224.0,72.0,106.0,97.0,-49.0,0
16.0,-226.0,76.0,79.0,104.0,-49.0,0
19.0,-223.0,75.0,57.0,111.0,-49.0,0
21.0,-224.0,78.0,36.0,116.0,-51.0,0
23.0,-222.0,78.0,19.0,124.0,-50.0,0
22.0,-223.0,75.0,8.0,129.0,-52.0,0
22.0,-222.0,76.0,4.0,133.0,-49.0,0
20.0,-219.0,80.0,4.0,134.0,-50.0,0
18.0,-220.0,81.0,12.0,135.0,-48.0,0
20.0,-222.0,78.0,24.0,132.0,-46.0,0
15.0,-227.0,78.0,37.0,129.0,-40.0,0
16.0,-228.0,77.0,50.0,119.0,-38.0,0
16.0,-229.0,79.0,62.0,109.0,-32.0,0
17.0,-230.0,78.0,71.0,97.0,-28.0,0
16.0,-230.0,76.0,78.0,85.0,-23.0,0
12.0,-231.0,80.0,81.0,73.0,-20.0,0
14.0,-231.0,76.0,78.0,61.0,-16.0,0
15.0,-234.0,81.0,76.0,50.0,-15.0,0
13.0,-233.0,79.0,68.0,42.0,-13.0,0
18.0,-238.0,78.0,62.0,36.0,-12.0,0
17.0,-240.0,82.0,55.0,33.0,-11.0,0
20.0,-240.0,81.0,50.0,31.0,-12.0,0
22.0,-240.0,76.0,44.0,34.0,-11.0,0
19.0,-242.0,82.0,38.0,38.0,-13.0,0
19.0,-242.0,80.0,34.0,45.0,-10.0,0
23.0,-244.0,81.0,24.0,52.0,-15.0,0
23.0,-243.0,81.0,14.0,60.0,-16.0,0
23.0,-242.0,80.0,2.0,69.0,-22.0,0
24.0,-243.0,80.0,-13.0,80.0,-25.0,0
24.0,-242.0,80.0,-27.0,89.0,-30.0,0
24.0,-242.0,79.0,-38.0,97.0,-34.0,0
23.0,-239.0,76.0,-51.0,104.0,-38.0,0
23.0,-244.0,76.0,-62.0,109.0,-39.0,0
17.0,-244.0,77.0,-70.0,113.0,-41.0,0
18.0,-244.0,78.0,-76.0,110.0,-41.0,0
15.0,-244.0,78.0,-78.0,108.0,-43.0,0
13.0,-241.0,77.0,-79.0,102.0,-39.0,0
17.0,-244.0,74.0,-79.0,95.0,-40.0,0
14.0,-241.0,75.0,-79.0,86.0,-32.0,0
16.0,-240.0,75.0,-78.0,75.0,-29.0,0
13.0,-239.0,74.0,-75.0,67.0,-24.0,0
11.0,-238.0,73.0,-70.0,59.0,-20.0,0
16.0,-241.0,73.0,-67.0,52.0,-13.0,0
19.0,-241.0,74.0,-60.0,45.0,-9.0,0
18.0,-238.0,71.0,-50.0,42.0,-3.0,0
19.0,-239.0,73.0,-40.0,42.0,-1.0,0
22.0,-238.0,75.0,-33.0,43.0,3.0,0
23.0,-237.0,76.0,-23.0,46.0,2.0,0
20.0,-238.0,74.0,-14.0,53.0,4.0,0
21.0,-239.0,75.0,-6.0,58.0,0.0,0
23.0,-239.0,75.0,2.0,63.0,-2.0,0
21.0,-240.0,74.0,8.0,68.0,-6.0,0
19.0,-238.0,72.0,9.0,75.0,-9.0,0
20.0,-238.0,69.0,11.0,81.0,-12.0,0
19.0,-242.0,74.0,11.0,85.0,-11.0,0
17.0,-241.0,68.0,11.0,90.0,-15.0,0
14.0,-240.0,73.0,8.0,93.0,-12.0,0
18.0,-239.0,73.0,5.0,97.0,-15.0,0
17.0,-239.0,75.0,-1.0,97.0,-14.0,0
11.0,-239.0,74.0,-7.0,97.0,-14.0,0
15.0,-241.0,73.0,-11.0,95.0,-13.0,0
12.0,-238.0,73.0,-13.0,92.0,-13.0,0
14.0,-240.0,79.0,-11.0,88.0,-12.0,0
13.0,-242.0,72.0,-8.0,84.0,-12.0,0
11.0,-240.0,78.0,-3.0,80.0,-11.0,0
10.0,-239.0,77.0,4.0,76.0,-11.0,0
11.0,-239.0,79.0,13.0,71.0,-10.0,0
15.0,-241.0,76.0,20.0,69.0,-11.0,0
11.0,-240.0,76.0,25.0,65.0,-8.0,0
15.0,-236.0,75.0,29.0,61.0,-9.0,0
14.0,-239.0,76.0,29.0,59.0,-8.0,0
12.0,-235.0,78.0,28.0,58.0,-10.0,0
13.0,-236.0,80.0,24.0,53.0,-9.0,0
15.0,-237.0,79.0,17.0,52.0,-12.0,0
13.0,-237.0,78.0,12.0,50.0,-10.0,0
14.0,-237.0,82.0,5.0,51.0,-11.0,0
14.0,-240.0,77.0,0.0,51.0,-8.0,0
16.0,-237.0,81.0,-6.0,52.0,-7.0,0
17.0,-235.0,77.0,-12.0,52.0,-3.0,0
17.0,-239.0,76.0,-18.0,54.0,-2.0,0
19.0,-240.0,78.0,-22.0,53.0,0.0,0
20.0,-234.0,78.0,-26.0,55.0,0.0,0
17.0,-239.0,77.0,-29.0,56.0,2.0,0
17.0,-239.0,79.0,-31.0,57.0,2.0,0
15.0,-237.0,76.0,-33.0,58.0,4.0,0
18.0,-238.0,77.0,-33.0,58.0,2.0,0
19.0,-239.0,78.0,-36.0,59.0,2.0,0
19.0,-237.0,74.0,-38.0,61.0,2.0,0
19.0,-239.0,78.0,-39.0,62.0,3.0,0
18.0,-237.0,76.0,-37.0,64.0,2.0,0
18.0,-240.0,74.0,-36.0,66.0,4.0,0
17.0,-239.0,75.0,-35.0,68.0,4.0,0
17.0,-239.0,75.0,-33.0,69.0,7.0,0
18.0,-240.0,75.0,-31.0,70.0,4.0,0
19.0,-241.0,76.0,-28.0,70.0,4.0,0
18.0,-239.0,76.0,-26.0,70.0,1.0,0
19.0,-239.0,74.0,-23.0,70.0,2.0,0
19.0,-240.0,75.0,-20.0,68.0,-1.0,0
16.0,-239.0,78.0,-20.0,68.0,0.0,0
20.0,-240.0,75.0,-16.0,66.0,-4.0,0
17.0,-238.0,76.0,-14.0,67.0,-2.0,0
17.0,-237.0,76.0,-13.0,66.0,-6.0,0
19.0,-241.0,74.0,-10.0,65.0,-5.0,0
19.0,-239.0,75.0,-10.0,66.0,-7.0,0
19.0,-235.0,80.0,-10.0,65.0,-7.0,0
16.0,-239.0,79.0,-9.0,64.0,-8.0,0
18.0,-238.0,77.0,-9.0,64.0,-8.0,0
17.0,-238.0,79.0,-8.0,64.0,-10.0,0
17.0,-237.0,75.0,-9.0,63.0,-10.0,0
17.0,-236.0,76.0,-11.0,63.0,-12.0,0
19.0,-241.0,76.0,-13.0,59.0,-11.0,0
15.0,-235.0,79.0,-17.0,58.0,-14.0,0
14.0,-237.0,77.0,-20.0,58.0,-13.0,0
15.0,-241.0,73.0,-24.0,56.0,-14.0,0
14.0,-235.0,75.0,-28.0,55.0,-12.0,0
14.0,-237.0,76.0,-29.0,55.0,-13.0,0
18.0,-239.0,75.0,-31.0,55.0,-10.0,0
15.0,-239.0,74.0,-31.0,54.0,-11.0,0
16.0,-239.0,76.0,-32.0,54.0,-7.0,0
17.0,-238.0,73.0,-31.0,55.0,-8.0,0
15.0,-236.0,76.0,-27.0,55.0,-7.0,0
17.0,-240.0,77.0,-24.0,55.0,-8.0,0
17.0,-238.0,74.0,-19.0,56.0,-7.0,0
16.0,-238.0,77.0,-17.0,55.0,-8.0,0
18.0,-240.0,76.0,-14.0,57.0,-7.0,0
16.0,-239.0,74.0,-14.0,57.0,-9.0,0
16.0,-237.0,73.0,-14.0,57.0,-6.0,0
18.0,-239.0,75.0,-14.0,57.0,-8.0,0
16.0,-237.0,77.0,-15.0,59.0,-7.0,0
20.0,-239.0,77.0,-18.0,58.0,-8.0,0
15.0,-238.0,76.0,-19.0,58.0,-7.0,0
15.0,-240.0,78.0,-19.0,59.0,-9.0,0
18.0,-239.0,76.0,-20.0,59.0,-7.0,0
16.0,-239.0,77.0,-17.0,60.0,-8.0,0
16.0,-237.0,79.0,-12.0,60.0,-5.0,0
18.0,-241.0,76.0,-8.0,61.0,-5.0,0
21.0,-239.0,79.0,-6.0,60.0,-3.0,0
18.0,-242.0,75.0,-2.0,62.0,-5.0,0
19.0,-242.0,78.0,1.0,62.0,-3.0,0
18.0,-238.0,75.0,3.0,61.0,-4.0,0
20.0,-241.0,80.0,5.0,60.0,-5.0,0
18.0,-238.0,79.0,5.0,61.0,-5.0,0
20.0,-240.0,75.0,2.0,62.0,-3.0,0
16.0,-234.0,77.0,0.0,64.0,-5.0,0
18.0,-238.0,76.0,-4.0,66.0,-4.0,0
18.0,-240.0,75.0,-8.0,66.0,-6.0,0
18.0,-240.0,77.0,-11.0,69.0,-5.0,0
18.0,-238.0,76.0,-14.0,71.0,-6.0,0
16.0,-240.0,77.0,-16.0,69.0,-5.0,0
18.0,-237.0,75.0,-17.0,70.0,-7.0,0
19.0,-239.0,76.0,-17.0,71.0,-6.0,0
15.0,-237.0,73.0,-16.0,71.0,-6.0,0
18.0,-238.0,74.0,-17.0,72.0,-6.0,0
17.0,-235.0,76.0,-17.0,72.0,-7.0,0
18.0,-237.0,73.0,-19.0,72.0,-5.0,0
18.0,-233.0,73.0,-20.0,70.0,-5.0,0
18.0,-235.0,75.0,-22.0,71.0,-4.0,0
20.0,-239.0,75.0,-23.0,68.0,-6.0,0
16.0,-241.0,79.0,-25.0,68.0,-4.0,0
15.0,-236.0,75.0,-27.0,68.0,-5.0,0
15.0,-235.0,76.0,-28.0,67.0,-5.0,0
18.0,-238.0,74.0,-27.0,66.0,-5.0,0
17.0,-237.0,77.0,-27.0,67.0,-4.0,0
18.0,-239.0,76.0,-24.0,67.0,-5.0,0
18.0,-240.0,80.0,-19.0,69.0,-3.0,0
8.0,-238.0,77.0,-13.0,68.0,-4.0,0
16.0,-238.0,78.0,-8.0,70.0,-2.0,0
14.0,-240.0,78.0,-5.0,68.0,-5.0,0
17.0,-238.0,78.0,0.0,68.0,-4.0,0
13.0,-236.0,76.0,1.0,67.0,-5.0,0
16.0,-239.0,77.0,0.0,65.0,-4.0,0
16.0,-240.0,79.0,-1.0,62.0,-5.0,0
14.0,-241.0,77.0,-2.0,60.0,-4.0,0
17.0,-238.0,76.0,-6.0,59.0,-4.0,0
15.0,-241.0,77.0,-11.0,57.0,-3.0,0
16.0,-239.0,76.0,-13.0,56.0,-4.0,0
19.0,-240.0,78.0,-14.0,57.0,-3.0,0
17.0,-239.0,78.0,-15.0,56.0,-6.0,0
20.0,-242.0,79.0,-14.0,56.0,-4.0,0
18.0,-237.0,72.0,-13.0,58.0,-5.0,0
16.0,-238.0,75.0,-12.0,61.0,-5.0,0
14.0,-242.0,76.0,-11.0,64.0,-5.0,0
17.0,-239.0,76.0,-9.0,65.0,-7.0,0
18.0,-240.0,76.0,-5.0,65.0,-9.0,0
15.0,-239.0,73.0,0.0,68.0,-8.0,0
15.0,-238.0,73.0,5.0,68.0,-10.0,0
15.0,-241.0,72.0,9.0,67.0,-8.0,0
18.0,-244.0,76.0,12.0,68.0,-11.0,0
18.0,-239.0,75.0,17.0,70.0,-9.0,0
16.0,-240.0,75.0,19.0,69.0,-10.0,0
16.0,-240.0,73.0,25.0,67.0,-8.0,0
15.0,-241.0,75.0,31.0,66.0,-9.0,0
14.0,-240.0,75.0,36.0,66.0,-7.0,0
18.0,-240.0,74.0,43.0,63.0,-8.0,0
14.0,-237.0,76.0,48.0,61.0,-6.0,0
15.0,-239.0,75.0,52.0,60.0,-6.0,0
14.0,-237.0,76.0,54.0,58.0,-6.0,0
17.0,-236.0,77.0,55.0,56.0,-8.0,0
16.0,-236.0,75.0,55.0,55.0,-5.0,0
18.0,-234.0,79.0,51.0,56.0,-8.0,0
17.0,-234.0,78.0,45.0,54.0,-9.0,0
15.0,-235.0,80.0,39.0,56.0,-12.0,0
18.0,-235.0,77.0,31.0,58.0,-12.0,0
17.0,-234.0,79.0,22.0,60.0,-13.0,0
22.0,-237.0,82.0,13.0,61.0,-11.0,0
17.0,-232.0,79.0,6.0,62.0,-13.0,0
21.0,-233.0,76.0,-2.0,65.0,-11.0,0
20.0,-234.0,79.0,-8.0,66.0,-12.0,0
19.0,-237.0,80.0,-14.0,68.0,-11.0,0
16.0,-236.0,81.0,-16.0,70.0,-12.0,0
17.0,-236.0,77.0,-19.0,70.0,-10.0,0
19.0,-237.0,80.0,-19.0,71.0,-10.0,0
17.0,-238.0,77.0,-18.0,70.0,-8.0,0
19.0,-236.0,76.0,-17.0,69.0,-10.0,0
17.0,-241.0,75.0,-17.0,69.0,-9.0,0
17.0,-235.0,74.0,-17.0,68.0,-11.0,0
18.0,-237.0,76.0,-15.0,66.0,-9.0,0
20.0,-237.0,76.0,-14.0,62.0,-9.0,0
18.0,-241.0,79.0,-15.0,62.0,-6.0,0
17.0,-240.0,77.0,-15.0,59.0,-7.0,0
17.0,-241.0,76.0,-15.0,58.0,-4.0,0
16.0,-237.0,75.0,-17.0,55.0,-5.0,0
17.0,-240.0,77.0,-19.0,54.0,-3.0,0
15.0,-239.0,74.0,-21.0,54.0,-3.0,0
17.0,-235.0,77.0,-24.0,55.0,-1.0,0
17.0,-237.0,75.0,-22.0,53.0,-5.0,0
17.0,-239.0,79.0,-22.0,55.0,-4.0,0
17.0,-237.0,77.0,-20.0,57.0,-7.0,0
20.0,-239.0,75.0,-19.0,57.0,-6.0,0
19.0,-237.0,76.0,-16.0,59.0,-8.0,0
17.0,-238.0,79.0,-15.0,61.0,-8.0,0
20.0,-237.0,76.0,-10.0,62.0,-10.0,0
17.0,-239.0,77.0,-9.0,63.0,-7.0,0
19.0,-239.0,76.0,-8.0,64.0,-9.0,0
17.0,-238.0,74.0,-7.0,66.0,-8.0,0
19.0,-238.0,78.0,-6.0,66.0,-9.0,0
18.0,-238.0,76.0,-6.0,67.0,-6.0,0
19.0,-237.0,74.0,-7.0,68.0,-8.0,0
18.0,-238.0,78.0,-8.0,67.0,-4.0,0
16.0,-235.0,78.0,-10.0,67.0,-4.0,0
17.0,-235.0,77.0,-12.0,67.0,-3.0,0
12.0,-235.0,76.0,-17.0,64.0,-2.0,0
19.0,-239.0,79.0,-18.0,63.0,1.0,0
18.0,-236.0,77.0,-20.0,61.0,0.0,0
17.0,-237.0,78.0,-21.0,61.0,1.0,0
18.0,-235.0,78.0,-24.0,60.0,-1.0,0
18.0,-236.0,76.0,-26.0,60.0,-2.0,0
18.0,-238.0,76.0,-27.0,61.0,-5.0,0
20.0,-236.0,80.0,-29.0,61.0,-2.0,0
18.0,-236.0,77.0,-31.0,62.0,-4.0,0
20.0,-238.0,74.0,-30.0,63.0,-4.0,0
15.0,-238.0,78.0,-31.0,61.0,-5.0,0
16.0,-237.0,76.0,-32.0,61.0,-4.0,0
13.0,-236.0,78.0,-32.0,61.0,-5.0,0
18.0,-238.0,77.0,-29.0,61.0,-5.0,0
19.0,-239.0,80.0,-27.0,62.0,-7.0,0
17.0,-236.0,78.0,-26.0,63.0,-6.0,0
17.0,-238.0,75.0,-25.0,63.0,-6.0,0
18.0,-237.0,75.0,-24.0,65.0,-4.0,0
17.0,-237.0,75.0,-22.0,64.0,-6.0,0
17.0,-239.0,76.0,-21.0,65.0,-5.0,0
17.0,-235.0,77.0,-20.0,64.0,-6.0,0
18.0,-237.0,76.0,-22.0,63.0,-4.0,0
16.0,-238.0,77.0,-22.0,62.0,-5.0,0
15.0,-237.0,77.0,-22.0,61.0,-3.0,0
17.0,-240.0,77.0,-24.0,61.0,-5.0,0
20.0,-239.0,77.0,-24.0,62.0,-2.0,0
18.0,-239.0,75.0,-22.0,61.0,-5.0,0
18.0,-240.0,77.0,-22.0,61.0,-2.0,0
17.0,-238.0,75.0,-21.0,60.0,-3.0,0
16.0,-238.0,72.0,-21.0,59.0,-2.0,0
16.0,-237.0,76.0,-16.0,59.0,-3.0,0
18.0,-240.0,78.0,-13.0,57.0,-2.0,0
16.0,-239.0,77.0,-11.0,56.0,-3.0,0
18.0,-238.0,76.0,-9.0,55.0,-1.0,0
14.0,-238.0,81.0,-7.0,55.0,-2.0,0
19.0,-238.0,80.0,-6.0,54.0,0.0,0
18.0,-238.0,77.0,-5.0,54.0,-1.0,0
17.0,-237.0,77.0,-5.0,55.0,0.0,0
21.0,-235.0,77.0,-5.0,57.0,-2.0,0
16.0,-238.0,78.0,-6.0,56.0,0.0,0
18.0,-239.0,80.0,-9.0,56.0,0.0,0
20.0,-236.0,79.0,-11.0,56.0,-1.0,0
19.0,-237.0,78.0,-15.0,57.0,-3.0,0
20.0,-239.0,76.0,-20.0,58.0,-3.0,0
18.0,-235.0,76.0,-21.0,58.0,-5.0,0
20.0,-239.0,78.0,-23.0,58.0,-3.0,0
20.0,-238.0,76.0,-24.0,58.0,-5.0,0
17.0,-239.0,77.0,-24.0,59.0,-3.0,0
19.0,-238.0,76.0,-23.0,59.0,-2.0,0
19.0,-238.0,78.0,-22.0,59.0,-1.0,0
20.0,-238.0,77.0,-22.0,60.0,-3.0,0
18.0,-241.0,78.0,-18.0,61.0,0.0,0
20.0,-241.0,76.0,-15.0,60.0,-2.0,0
17.0,-240.0,76.0,-12.0,61.0,-1.0,0
19.0,-238.0,80.0,-7.0,61.0,-1.0,0
17.0,-237.0,80.0,-4.0,60.0,1.0,0
20.0,-238.0,79.0,-3.0,60.0,0.0,0
17.0,-238.0,76.0,-2.0,60.0,0.0,0
17.0,-239.0,77.0,-3.0,58.0,-2.0,0
17.0,-235.0,78.0,-6.0,60.0,-1.0,0
19.0,-238.0,78.0,-10.0,62.0,-4.0,0
19.0,-241.0,77.0,-15.0,61.0,-2.0,0
15.0,-242.0,75.0,-19.0,62.0,-7.0,0
15.0,-236.0,77.0,-22.0,62.0,-6.0,0
18.0,-237.0,76.0,-23.0,62.0,-8.0,0
19.0,-238.0,76.0,-26.0,64.0,-6.0,0
19.0,-240.0,77.0,-26.0,63.0,-8.0,0
17.0,-238.0,74.0,-28.0,62.0,-7.0,0
16.0,-240.0,76.0,-28.0,61.0,-9.0,0
19.0,-237.0,81.0,-29.0,58.0,-7.0,0
16.0,-239.0,79.0,-27.0,60.0,-9.0,0
17.0,-236.0,75.0,-27.0,59.0,-7.0,0
16.0,-238.0,75.0,-26.0,60.0,-7.0,0
16.0,-241.0,78.0,-25.0,60.0,-5.0,0
17.0,-239.0,77.0,-24.0,60.0,-5.0,0
17.0,-239.0,77.0,-25.0,60.0,-5.0,0
18.0,-236.0,76.0,-26.0,59.0,-4.0,0
19.0,-238.0,76.0,-26.0,58.0,-3.0,0
17.0,-236.0,76.0,-26.0,59.0,-5.0,0
17.0,-238.0,78.0,-26.0,60.0,-2.0,0
15.0,-239.0,75.0,-24.0,60.0,1.0,0
20.0,-239.0,76.0,-24.0,62.0,1.0,0
21.0,-240.0,76.0,-26.0,62.0,-2.0,0
18.0,-239.0,77.0,-27.0,60.0,-1.0,0
20.0,-236.0,72.0,-28.0,59.0,-4.0,0
17.0,-238.0,76.0,-30.0,59.0,-4.0,0
19.0,-240.0,78.0,-33.0,58.0,-5.0,0
18.0,-239.0,78.0,-35.0,58.0,-3.0,0
19.0,-238.0,73.0,-38.0,55.0,-5.0,0
17.0,-236.0,79.0,-39.0,56.0,-3.0,0
22.0,-237.0,78.0,-41.0,56.0,-6.0,0
15.0,-238.0,77.0,-41.0,57.0,-4.0,0
17.0,-239.0,75.0,-42.0,56.0,-5.0,0
16.0,-239.0,76.0,-41.0,57.0,-3.0,0
17.0,-239.0,77.0,-41.0,58.0,-3.0,0
19.0,-238.0,77.0,-39.0,60.0,-2.0,0
17.0,-240.0,79.0,-36.0,59.0,-3.0,0
18.0,-237.0,77.0,-35.0,59.0,0.0,0
22.0,-238.0,75.0,-32.0,59.0,-1.0,0
18.0,-241.0,80.0,-27.0,61.0,3.0,0
19.0,-237.0,75.0,-25.0,59.0,-2.0,0
18.0,-239.0,75.0,-24.0,58.0,-1.0,0
19.0,-242.0,77.0,-23.0,56.0,-5.0,0
18.0,-240.0,76.0,-21.0,56.0,-4.0,0
18.0,-238.0,78.0,-19.0,56.0,-5.0,0
19.0,-239.0,77.0,-21.0,56.0,-5.0,0
18.0,-240.0,78.0,-21.0,54.0,-9.0,0
20.0,-236.0,75.0,-22.0,55.0,-5.0,0
18.0,-239.0,75.0,-21.0,57.0,-9.0,0
19.0,-238.0,76.0,-23.0,57.0,-7.0,0
19.0,-237.0,75.0,-23.0,58.0,-8.0,0
16.0,-237.0,76.0,-21.0,58.0,-7.0,0
18.0,-239.0,79.0,-24.0,59.0,-9.0,0
20.0,-237.0,76.0,-23.0,60.0,-7.0,0
16.0,-239.0,74.0,-24.0,59.0,-10.0,0
18.0,-241.0,80.0,-22.0,57.0,-8.0,0
16.0,-239.0,77.0,-23.0,57.0,-8.0,0
17.0,-241.0,77.0,-22.0,58.0,-7.0,0
18.0,-242.0,77.0,-18.0,59.0,-9.0,0
20.0,-238.0,78.0,-18.0,60.0,-7.0,0
18.0,-237.0,76.0,-17.0,60.0,-9.0,0
17.0,-239.0,77.0,-16.0,61.0,-7.0,0
19.0,-238.0,78.0,-16.0,61.0,-8.0,0
22.0,-240.0,75.0,-17.0,62.0,-6.0,0
18.0,-236.0,78.0,-17.0,63.0,-7.0,0
20.0,-240.0,74.0,-18.0,61.0,-5.0,0
20.0,-239.0,76.0,-19.0,62.0,-6.0,0
20.0,-237.0,76.0,-20.0,62.0,-4.0,0
17.0,-240.0,74.0,-20.0,62.0,-5.0,0
16.0,-239.0,75.0,-21.0,62.0,-4.0,0
19.0,-236.0,77.0,-23.0,61.0,-5.0,0
19.0,-236.0,73.0,-24.0,63.0,-1.0,0
17.0,-234.0,76.0,-25.0,63.0,-3.0,0
20.0,-238.0,77.0,-25.0,64.0,-1.0,0
16.0,-234.0,76.0,-25.0,63.0,-1.0,0
17.0,-235.0,74.0,-24.0,63.0,-1.0,0
18.0,-237.0,77.0,-26.0,63.0,-2.0,0
17.0,-236.0,76.0,-27.0,63.0,0.0,0
17.0,-239.0,76.0,-29.0,60.0,-1.0,0
19.0,-241.0,76.0,-30.0,60.0,2.0,0
18.0,-239.0,77.0,-31.0,59.0,0.0,0
15.0,-238.0,75.0,-34.0,56.0,4.0,0
18.0,-238.0,78.0,-37.0,54.0,3.0,0
14.0,-239.0,77.0,-39.0,53.0,5.0,0
15.0,-238.0,79.0,-40.0,50.0,4.0,0
15.0,-238.0,76.0,-43.0,49.0,5.0,0
17.0,-236.0,77.0,-45.0,48.0,4.0,0
17.0,-239.0,76.0,-46.0,46.0,6.0,0
17.0,-239.0,77.0,-49.0,45.0,4.0,0
18.0,-238.0,75.0,-49.0,44.0,6.0,0
19.0,-245.0,79.0,-50.0,43.0,4.0,0
15.0,-242.0,73.0,-46.0,47.0,11.0,0
17.0,-241.0,75.0,-49.0,47.0,9.0,0
17.0,-240.0,75.0,-50.0,47.0,7.0,0
16.0,-241.0,75.0,-51.0,47.0,5.0,0
18.0,-241.0,74.0,-48.0,49.0,6.0,0
18.0,-240.0,73.0,-47.0,51.0,2.0,0
18.0,-240.0,73.0,-46.0,52.0,4.0,0
17.0,-238.0,75.0,-42.0,52.0,2.0,0
19.0,-242.0,73.0,-41.0,53.0,2.0,0
18.0,-237.0,71.0,-39.0,55.0,0.0,0
20.0,-239.0,79.0,-39.0,55.0,1.0,0
15.0,-237.0,76.0,-36.0,56.0,-1.0,0
20.0,-235.0,73.0,-37.0,57.0,2.0,0
14.0,-235.0,75.0,-36.0,57.0,0.0,0
18.0,-238.0,74.0,-37.0,59.0,0.0,0
16.0,-236.0,76.0,-33.0,59.0,2.0,0
19.0,-236.0,73.0,-34.0,65.0,3.0,0
19.0,-239.0,74.0,-34.0,64.0,0.0,0
19.0,-237.0,75.0,-35.0,66.0,0.0,0
19.0,-236.0,69.0,-37.0,68.0,-4.0,0
18.0,-235.0,75.0,-38.0,71.0,-3.0,0
20.0,-236.0,77.0,-41.0,74.0,-5.0,0
17.0,-236.0,75.0,-42.0,77.0,-3.0,0
21.0,-239.0,76.0,-43.0,75.0,-6.0,0
18.0,-235.0,74.0,-43.0,78.0,-3.0,0
19.0,-236.0,77.0,-45.0,81.0,-9.0,0
21.0,-239.0,73.0,-46.0,81.0,-9.0,0
20.0,-236.0,72.0,-47.0,83.0,-13.0,0
22.0,-240.0,76.0,-50.0,82.0,-13.0,0
18.0,-237.0,74.0,-50.0,82.0,-15.0,0
20.0,-239.0,73.0,-49.0,84.0,-15.0,0
20.0,-239.0,78.0,-51.0,85.0,-18.0,0
20.0,-237.0,77.0,-52.0,83.0,-18.0,0
19.0,-238.0,74.0,-52.0,83.0,-22.0,0
17.0,-238.0,77.0,-53.0,82.0,-21.0,0
17.0,-241.0,75.0,-53.0,79.0,-24.0,0
17.0,-238.0,77.0,-52.0,79.0,-23.0,0
17.0,-237.0,78.0,-53.0,78.0,-26.0,0
18.0,-238.0,74.0,-52.0,79.0,-23.0,0
18.0,-241.0,77.0,-48.0,79.0,-26.0,0
18.0,-241.0,77.0,-47.0,79.0,-24.0,0
17.0,-240.0,74.0,-43.0,79.0,-25.0,0
19.0,-239.0,75.0,-40.0,79.0,-22.0,0
19.0,-237.0,75.0,-35.0,80.0,-23.0,0
17.0,-240.0,74.0,-35.0,82.0,-22.0,0
17.0,-239.0,72.0,-33.0,82.0,-23.0,0
17.0,-240.0,75.0,-33.0,84.0,-21.0,0
17.0,-240.0,75.0,-33.0,84.0,-23.0,0
17.0,-240.0,74.0,-36.0,86.0,-20.0,0
18.0,-239.0,76.0,-36.0,87.0,-20.0,0
17.0,-240.0,76.0,-39.0,87.0,-15.0,0
16.0,-240.0,74.0,-39.0,86.0,-15.0,0
17.0,-242.0,76.0,-41.0,85.0,-12.0,0
19.0,-241.0,72.0,-43.0,85.0,-12.0,0
20.0,-242.0,73.0,-44.0,84.0,-9.0,0
17.0,-238.0,70.0,-45.0,82.0,-8.0,0
19.0,-243.0,75.0,-48.0,82.0,-4.0,0
17.0,-241.0,72.0,-48.0,76.0,-6.0,0
17.0,-241.0,72.0,-48.0,75.0,-3.0,0
18.0,-241.0,73.0,-49.0,74.0,-3.0,0
19.0,-240.0,71.0,-48.0,72.0,-2.0,0
21.0,-240.0,74.0,-47.0,72.0,-2.0,0
19.0,-240.0,73.0,-45.0,68.0,1.0,0
18.0,-240.0,74.0,-43.0,66.0,0.0,0
17.0,-237.0,70.0,-40.0,65.0,2.0,0
19.0,-240.0,72.0,-38.0,63.0,-1.0,0
17.0,-240.0,70.0,-34.0,63.0,1.0,0
17.0,-239.0,71.0,-30.0,62.0,-3.0,0
19.0,-239.0,72.0,-25.0,62.0,-2.0,0
18.0,-240.0,69.0,-20.0,60.0,-6.0,0
18.0,-237.0,71.0,-14.0,59.0,-4.0,0
15.0,-238.0,72.0,-7.0,59.0,-9.0,0
16.0,-240.0,73.0,-3.0,58.0,-6.0,0
17.0,-242.0,70.0,1.0,58.0,-10.0,0
16.0,-239.0,71.0,2.0,60.0,-9.0,0
16.0,-242.0,71.0,3.0,58.0,-11.0,0
16.0,-241.0,71.0,6.0,59.0,-9.0,0
15.0,-237.0,71.0,5.0,57.0,-11.0,0
16.0,-239.0,72.0,5.0,58.0,-9.0,0
18.0,-236.0,74.0,2.0,57.0,-11.0,0
16.0,-237.0,75.0,-3.0,56.0,-7.0,0
18.0,-238.0,75.0,-7.0,56.0,-7.0,0
18.0,-237.0,68.0,-10.0,57.0,-5.0,0
17.0,-240.0,74.0,-13.0,55.0,-5.0,0
19.0,-239.0,73.0,-14.0,55.0,-4.0,0
17.0,-241.0,75.0,-15.0,55.0,-5.0,0
21.0,-240.0,75.0,-14.0,55.0,-2.0,0
19.0,-242.0,70.0,-13.0,55.0,-2.0,0
17.0,-242.0,73.0,-11.0,56.0,0.0,0
16.0,-240.0,72.0,-4.0,55.0,-1.0,0
17.0,-243.0,73.0,1.0,55.0,0.0,0
16.0,-240.0,74.0,6.0,55.0,0.0,0
18.0,-240.0,73.0,13.0,54.0,2.0,0
17.0,-239.0,73.0,18.0,53.0,0.0,0
21.0,-241.0,74.0,23.0,55.0,1.0,0
20.0,-242.0,74.0,28.0,53.0,-1.0,0
18.0,-240.0,73.0,32.0,52.0,0.0,0
21.0,-241.0,74.0,36.0,51.0,-5.0,0
21.0,-242.0,70.0,39.0,50.0,-4.0,0
19.0,-241.0,74.0,40.0,51.0,-7.0,0
20.0,-241.0,70.0,38.0,51.0,-4.0,0
18.0,-240.0,74.0,38.0,51.0,-7.0,0
20.0,-238.0,76.0,38.0,51.0,-7.0,0
19.0,-241.0,72.0,35.0,52.0,-8.0,0
17.0,-240.0,74.0,34.0,52.0,-6.0,0
20.0,-239.0,74.0,31.0,52.0,-8.0,0
19.0,-240.0,75.0,28.0,54.0,-6.0,0
18.0,-239.0,75.0,24.0,55.0,-7.0,0
18.0,-240.0,78.0,22.0,56.0,-5.0,0
18.0,-240.0,76.0,20.0,57.0,-7.0,0
18.0,-239.0,76.0,19.0,58.0,-4.0,0
18.0,-237.0,75.0,17.0,60.0,-7.0,0
17.0,-240.0,75.0,15.0,62.0,-5.0,0
21.0,-240.0,77.0,13.0,62.0,-7.0,0
18.0,-237.0,76.0,12.0,62.0,-5.0,0
20.0,-243.0,75.0,11.0,63.0,-8.0,0
22.0,-240.0,74.0,14.0,64.0,-4.0,0
20.0,-238.0,76.0,13.0,64.0,-8.0,0
22.0,-242.0,74.0,16.0,63.0,-5.0,0
21.0,-241.0,72.0,17.0,64.0,-8.0,0
21.0,-239.0,77.0,18.0,64.0,-6.0,0
20.0,-239.0,76.0,18.0,63.0,-8.0,0
18.0,-237.0,75.0,19.0,63.0,-6.0,0
19.0,-241.0,74.0,18.0,63.0,-8.0,0
18.0,-239.0,75.0,18.0,61.0,-6.0,0
18.0,-240.0,77.0,20.0,62.0,-9.0,0
18.0,-238.0,71.0,19.0,61.0,-7.0,0
17.0,-237.0,75.0,20.0,62.0,-8.0,0
21.0,-237.0,76.0,21.0,61.0,-6.0,0
16.0,-238.0,73.0,21.0,62.0,-8.0,0
17.0,-235.0,75.0,21.0,62.0,-5.0,0
18.0,-239.0,76.0,21.0,61.0,-7.0,0
19.0,-240.0,77.0,19.0,61.0,-5.0,0
24.0,-236.0,74.0,17.0,60.0,-6.0,0
19.0,-239.0,75.0,15.0,60.0,-4.0,0
21.0,-238.0,77.0,14.0,59.0,-6.0,0
17.0,-237.0,77.0,13.0,59.0,-4.0,0
19.0,-238.0,76.0,10.0,59.0,-6.0,0
17.0,-236.0,76.0,9.0,57.0,-4.0,0
19.0,-238.0,78.0,7.0,59.0,-6.0,0
17.0,-235.0,78.0,5.0,58.0,-4.0,0
19.0,-239.0,75.0,2.0,57.0,-4.0,0
19.0,-238.0,78.0,1.0,58.0,-2.0,0
18.0,-241.0,74.0,-1.0,57.0,-2.0,0
19.0,-239.0,75.0,-5.0,57.0,0.0,0
19.0,-239.0,74.0,-6.0,57.0,-2.0,0
17.0,-240.0,78.0,-9.0,57.0,1.0,0
18.0,-238.0,77.0,-10.0,58.0,-1.0,0
19.0,-239.0,75.0,-11.0,58.0,1.0,0
20.0,-242.0,78.0,-11.0,59.0,0.0,0
16.0,-241.0,77.0,-9.0,59.0,3.0,0
19.0,-239.0,76.0,-6.0,61.0,0.0,0
19.0,-241.0,76.0,-5.0,62.0,1.0,0
17.0,-239.0,74.0,-3.0,63.0,-1.0,0
18.0,-239.0,76.0,0.0,63.0,0.0,0
18.0,-241.0,76.0,4.0,63.0,-1.0,0
21.0,-240.0,75.0,6.0,64.0,0.0,0
18.0,-238.0,74.0,8.0,63.0,-2.0,0
18.0,-237.0,76.0,11.0,64.0,-3.0,0
19.0,-236.0,74.0,13.0,62.0,-4.0,0
15.0,-237.0,74.0,16.0,62.0,-1.0,0
21.0,-242.0,75.0,18.0,62.0,-3.0,0
18.0,-237.0,74.0,20.0,62.0,-2.0,0
15.0,-235.0,75.0,23.0,60.0,-4.0,0
17.0,-238.0,76.0,22.0,63.0,-3.0,0
16.0,-237.0,76.0,23.0,60.0,-5.0,0
18.0,-235.0,73.0,21.0,60.0,-4.0,0
19.0,-240.0,74.0,19.0,58.0,-5.0,0
19.0,-240.0,78.0,20.0,59.0,-4.0,0
16.0,-235.0,76.0,18.0,57.0,-4.0,0
20.0,-239.0,75.0,17.0,58.0,0.0,0
18.0,-240.0,78.0,17.0,58.0,-3.0,0
18.0,-236.0,77.0,19.0,56.0,0.0,0
18.0,-238.0,76.0,19.0,55.0,-1.0,0
21.0,-237.0,78.0,19.0,55.0,0.0,0
18.0,-238.0,76.0,20.0,54.0,-2.0,0
20.0,-237.0,79.0,20.0,56.0,0.0,0
20.0,-237.0,76.0,22.0,57.0,-3.0,0
19.0,-241.0,75.0,25.0,59.0,0.0,0
19.0,-236.0,77.0,25.0,59.0,-2.0,0
19.0,-238.0,77.0,25.0,61.0,-1.0,0
18.0,-237.0,76.0,26.0,63.0,-4.0,0
20.0,-239.0,75.0,25.0,63.0,-2.0,0
16.0,-238.0,77.0,24.0,61.0,-3.0,0
18.0,-236.0,76.0,22.0,64.0,0.0,0
17.0,-235.0,78.0,20.0,64.0,0.0,0
19.0,-237.0,77.0,16.0,64.0,2.0,0
20.0,-238.0,80.0,11.0,65.0,1.0,0
18.0,-238.0,77.0,7.0,65.0,1.0,0
20.0,-239.0,76.0,1.0,66.0,0.0,0
21.0,-238.0,75.0,-3.0,66.0,4.0,0
20.0,-239.0,77.0,-6.0,67.0,2.0,0
18.0,-237.0,74.0,-8.0,68.0,5.0,0
20.0,-239.0,75.0,-10.0,67.0,4.0,0
20.0,-236.0,73.0,-10.0,67.0,6.0,0
21.0,-241.0,77.0,-10.0,67.0,3.0,0
17.0,-240.0,76.0,-8.0,68.0,5.0,0
20.0,-238.0,77.0,-7.0,66.0,2.0,0
20.0,-239.0,78.0,-6.0,65.0,3.0,0
16.0,-236.0,74.0,-4.0,65.0,0.0,0
19.0,-238.0,80.0,-4.0,62.0,0.0,0
18.0,-236.0,78.0,-4.0,61.0,-4.0,0
17.0,-236.0,77.0,-4.0,58.0,-3.0,0
16.0,-234.0,78.0,-2.0,55.0,-5.0,0
17.0,-238.0,75.0,-3.0,53.0,-4.0,0
16.0,-237.0,74.0,-3.0,51.0,-8.0,0
19.0,-236.0,76.0,-2.0,50.0,-6.0,0
17.0,-236.0,77.0,-2.0,49.0,-10.0,0
21.0,-236.0,75.0,-6.0,49.0,-8.0,0
17.0,-235.0,77.0,-6.0,48.0,-11.0,0
17.0,-236.0,77.0,-7.0,47.0,-9.0,0
17.0,-234.0,76.0,-8.0,48.0,-13.0,0
17.0,-236.0,76.0,-7.0,50.0,-10.0,0
21.0,-239.0,78.0,-8.0,49.0,-12.0,0
17.0,-234.0,78.0,-8.0,51.0,-12.0,0
18.0,-234.0,77.0,-9.0,53.0,-12.0,0
16.0,-237.0,76.0,-10.0,53.0,-9.0,0
19.0,-238.0,78.0,-11.0,55.0,-12.0,0
20.0,-239.0,79.0,-13.0,57.0,-10.0,0
15.0,-239.0,81.0,-15.0,57.0,-12.0,0
17.0,-237.0,79.0,-16.0,57.0,-9.0,0
18.0,-239.0,76.0,-18.0,58.0,-12.0,0
17.0,-237.0,77.0,-17.0,58.0,-10.0,0
18.0,-240.0,76.0,-17.0,58.0,-13.0,0
15.0,-240.0,77.0,-17.0,58.0,-11.0,0
19.0,-237.0,76.0,-16.0,58.0,-11.0,0
15.0,-239.0,79.0,-16.0,58.0,-10.0,0
19.0,-238.0,77.0,-16.0,57.0,-12.0,0
18.0,-239.0,77.0,-12.0,56.0,-11.0,0
15.0,-239.0,77.0,-12.0,56.0,-12.0,0
17.0,-239.0,76.0,-11.0,55.0,-11.0,0
20.0,-237.0,76.0,-8.0,54.0,-14.0,0
20.0,-238.0,76.0,-7.0,54.0,-13.0,0
14.0,-238.0,76.0,-6.0,53.0,-14.0,0
19.0,-240.0,79.0,-6.0,54.0,-12.0,0
19.0,-240.0,76.0,-5.0,53.0,-13.0,0
17.0,-237.0,76.0,-6.0,55.0,-11.0,0
19.0,-237.0,75.0,-5.0,56.0,-12.0,0
20.0,-239.0,76.0,-5.0,55.0,-8.0,0
17.0,-238.0,78.0,-3.0,57.0,-10.0,0
19.0,-239.0,73.0,-3.0,57.0,-7.0,0
18.0,-237.0,77.0,-2.0,58.0,-10.0,0
19.0,-239.0,73.0,-1.0,58.0,-6.0,0
18.0,-238.0,79.0,1.0,58.0,-7.0,0
18.0,-239.0,74.0,4.0,59.0,-4.0,0
21.0,-242.0,76.0,5.0,58.0,-5.0,0
20.0,-238.0,77.0,6.0,59.0,-3.0,0
20.0,-239.0,78.0,8.0,58.0,-5.0,0
18.0,-239.0,75.0,12.0,58.0,-3.0,0
20.0,-240.0,76.0,14.0,56.0,-6.0,0
19.0,-239.0,75.0,17.0,56.0,-4.0,0
18.0,-239.0,77.0,20.0,58.0,-6.0,0
19.0,-237.0,75.0,25.0,58.0,-3.0,0
18.0,-236.0,77.0,26.0,58.0,-4.0,0
18.0,-234.0,78.0,26.0,58.0,-1.0,0
18.0,-235.0,78.0,25.0,59.0,-3.0,0
21.0,-236.0,81.0,24.0,60.0,-1.0,0
21.0,-238.0,80.0,21.0,59.0,-2.0,0
20.0,-236.0,76.0,20.0,59.0,1.0,0
22.0,-237.0,84.0,14.0,60.0,-1.0,0
21.0,-236.0,79.0,11.0,59.0,1.0,0
21.0,-236.0,80.0,8.0,59.0,0.0,0
24.0,-237.0,77.0,4.0,59.0,1.0,0
16.0,-235.0,77.0,-1.0,56.0,0.0,0
22.0,-235.0,78.0,-5.0,57.0,1.0,0
18.0,-235.0,78.0,-9.0,57.0,0.0,0
17.0,-234.0,81.0,-13.0,58.0,2.0,0
20.0,-237.0,78.0,-15.0,56.0,-1.0,0
21.0,-239.0,78.0,-18.0,56.0,0.0,0
21.0,-238.0,75.0,-21.0,56.0,-5.0,0
18.0,-235.0,76.0,-21.0,55.0,-2.0,0
24.0,-240.0,78.0,-23.0,55.0,-5.0,0
17.0,-236.0,80.0,-22.0,56.0,-2.0,0
16.0,-235.0,78.0,-21.0,57.0,-5.0,0
18.0,-239.0,76.0,-19.0,57.0,-3.0,0
16.0,-236.0,77.0,-17.0,58.0,-5.0,0
17.0,-237.0,80.0,-14.0,56.0,-3.0,0
18.0,-239.0,79.0,-12.0,57.0,-5.0,0
19.0,-236.0,77.0,-9.0,58.0,-3.0,0
17.0,-240.0,75.0,-7.0,58.0,-4.0,0
16.0,-240.0,78.0,-5.0,58.0,-1.0,0
18.0,-237.0,79.0,-4.0,58.0,-4.0,0
21.0,-239.0,77.0,-2.0,57.0,-2.0,0
18.0,-238.0,79.0,-2.0,56.0,-3.0,0
19.0,-238.0,76.0,0.0,58.0,-2.0,0
21.0,-239.0,79.0,0.0,57.0,-3.0,0
17.0,-238.0,80.0,-1.0,57.0,-4.0,0
18.0,-237.0,76.0,-1.0,58.0,-7.0,0
18.0,-239.0,77.0,-4.0,59.0,-4.0,0
15.0,-233.0,79.0,-5.0,57.0,-6.0,0
18.0,-238.0,77.0,-7.0,59.0,-4.0,0
18.0,-236.0,77.0,-9.0,58.0,-6.0,0
19.0,-236.0,79.0,-10.0,59.0,-3.0,0
17.0,-235.0,78.0,-12.0,59.0,-6.0,0
17.0,-238.0,79.0,-16.0,60.0,-4.0,0
19.0,-237.0,81.0,-16.0,61.0,-5.0,0
19.0,-236.0,78.0,-17.0,60.0,-3.0,0
20.0,-237.0,76.0,-15.0,58.0,-5.0,0
18.0,-238.0,78.0,-16.0,58.0,-3.0,0
19.0,-238.0,79.0,-16.0,59.0,-6.0,0
18.0,-235.0,77.0,-16.0,59.0,-2.0,0
21.0,-239.0,81.0,-15.0,58.0,-5.0,0
20.0,-238.0,77.0,-17.0,59.0,-3.0,0
18.0,-237.0,79.0,-17.0,58.0,-5.0,0
18.0,-240.0,76.0,-17.0,57.0,-3.0,0
16.0,-239.0,79.0,-15.0,58.0,-4.0,0
20.0,-239.0,75.0,-17.0,58.0,-4.0,0
20.0,-236.0,78.0,-19.0,57.0,-4.0,0
22.0,-236.0,78.0,-18.0,57.0,-3.0,0
20.0,-237.0,73.0,-19.0,57.0,-3.0,0
23.0,-240.0,81.0,-19.0,57.0,-1.0,0
19.0,-235.0,78.0,-19.0,57.0,-3.0,0
18.0,-237.0,79.0,-18.0,56.0,0.0,0
22.0,-236.0,77.0,-15.0,57.0,-1.0,0
22.0,-238.0,79.0,-16.0,56.0,0.0,0
21.0,-234.0,78.0,-16.0,54.0,-1.0,0
21.0,-240.0,78.0,-15.0,54.0,0.0,0
18.0,-237.0,79.0,-15.0,52.0,-3.0,0
21.0,-238.0,79.0,-16.0,54.0,-1.0,0
16.0,-235.0,77.0,-17.0,52.0,-4.0,0
20.0,-238.0,80.0,-16.0,52.0,-2.0,0
20.0,-235.0,78.0,-18.0,53.0,-5.0,0
21.0,-237.0,77.0,-19.0,54.0,-3.0,0
19.0,-236.0,82.0,-19.0,55.0,-6.0,0
21.0,-235.0,77.0,-19.0,55.0,-2.0,0
20.0,-236.0,79.0,-21.0,55.0,-3.0,0
22.0,-237.0,80.0,-21.0,56.0,-2.0,0
20.0,-235.0,79.0,-20.0,56.0,-3.0,0
19.0,-239.0,79.0,-21.0,57.0,-2.0,0
20.0,-239.0,80.0,-20.0,56.0,-3.0,0
18.0,-236.0,82.0,-20.0,57.0,0.0,0
19.0,-237.0,78.0,-21.0,57.0,-2.0,0
18.0,-238.0,78.0,-22.0,57.0,1.0,0
16.0,-240.0,80.0,-20.0,59.0,0.0,0
20.0,-236.0,76.0,-18.0,58.0,2.0,0
18.0,-234.0,79.0,-19.0,58.0,-1.0,0
18.0,-238.0,76.0,-19.0,58.0,1.0,0
18.0,-237.0,75.0,-19.0,59.0,0.0,0
20.0,-236.0,79.0,-19.0,59.0,0.0,0
22.0,-239.0,77.0,-19.0,59.0,-2.0,0
19.0,-235.0,77.0,-19.0,60.0,1.0,0
20.0,-236.0,77.0,-19.0,61.0,-3.0,0
21.0,-235.0,76.0,-19.0,62.0,-1.0,0
17.0,-238.0,75.0,-18.0,63.0,-4.0,0
17.0,-236.0,78.0,-18.0,63.0,-4.0,0
22.0,-240.0,75.0,-19.0,63.0,-4.0,0
19.0,-237.0,78.0,-19.0,62.0,-2.0,0
18.0,-236.0,77.0,-21.0,63.0,-4.0,0
19.0,-238.0,77.0,-22.0,64.0,-4.0,0
21.0,-237.0,75.0,-22.0,64.0,-6.0,0
21.0,-239.0,77.0,-24.0,63.0,-2.0,0
19.0,-237.0,77.0,-23.0,64.0,-4.0,0
15.0,-234.0,76.0,-25.0,62.0,-1.0,0
20.0,-239.0,80.0,-25.0,62.0,-2.0,0
19.0,-235.0,79.0,-23.0,62.0,-1.0,0
18.0,-238.0,75.0,-24.0,62.0,-2.0,0
19.0,-235.0,77.0,-24.0,62.0,-1.0,0
17.0,-236.0,81.0,-25.0,61.0,-3.0,0
18.0,-236.0,78.0,-24.0,61.0,-2.0,0
19.0,-238.0,79.0,-24.0,60.0,-4.0,0
15.0,-235.0,79.0,-25.0,62.0,0.0,0
22.0,-235.0,78.0,-26.0,63.0,-3.0,0
20.0,-238.0,80.0,-27.0,62.0,-2.0,0
18.0,-238.0,81.0,-29.0,62.0,-5.0,0
18.0,-239.0,80.0,-30.0,60.0,-2.0,0
17.0,-235.0,80.0,-33.0,61.0,-4.0,0
17.0,-234.0,77.0,-35.0,61.0,-2.0,0
18.0,-238.0,77.0,-37.0,60.0,-2.0,0
15.0,-237.0,80.0,-35.0,60.0,-2.0,0
17.0,-239.0,81.0,-38.0,61.0,-3.0,0
20.0,-238.0,79.0,-37.0,61.0,-1.0,0
18.0,-239.0,79.0,-38.0,59.0,-3.0,0
18.0,-238.0,77.0,-38.0,59.0,-2.0,0
19.0,-241.0,77.0,-37.0,59.0,-4.0,0
19.0,-237.0,79.0,-37.0,58.0,-2.0,0
18.0,-238.0,76.0,-36.0,59.0,-3.0,0
21.0,-239.0,76.0,-32.0,59.0,-1.0,0
21.0,-238.0,77.0,-31.0,58.0,-3.0,0
22.0,-239.0,76.0,-30.0,58.0,-2.0,0
18.0,-235.0,78.0,-31.0,58.0,-5.0,0
21.0,-237.0,80.0,-33.0,59.0,-3.0,0
20.0,-236.0,76.0,-31.0,60.0,-5.0,0
19.0,-238.0,78.0,-33.0,58.0,-3.0,0
18.0,-237.0,78.0,-35.0,59.0,-5.0,0
17.0,-234.0,78.0,-38.0,58.0,-2.0,0
20.0,-239.0,77.0,-41.0,59.0,-3.0,0
22.0,-241.0,79.0,-44.0,58.0,-1.0,0
19.0,-237.0,77.0,-46.0,59.0,-4.0,0
20.0,-239.0,79.0,-49.0,59.0,-3.0,0
15.0,-237.0,77.0,-50.0,58.0,-5.0,0
20.0,-238.0,77.0,-51.0,57.0,-3.0,0
19.0,-240.0,77.0,-49.0,60.0,-5.0,0
19.0,-238.0,77.0,-48.0,60.0,-3.0,0
19.0,-237.0,75.0,-44.0,60.0,-6.0,0
21.0,-242.0,76.0,-40.0,60.0,-5.0,0
17.0,-238.0,75.0,-34.0,59.0,-6.0,0
20.0,-241.0,74.0,-28.0,59.0,-4.0,0
19.0,-238.0,76.0,-24.0,59.0,-7.0,0
22.0,-241.0,77.0,-19.0,60.0,-5.0,0
20.0,-239.0,77.0,-13.0,58.0,-8.0,0
21.0,-240.0,75.0,-9.0,59.0,-7.0,0
19.0,-239.0,78.0,-7.0,59.0,-10.0,0
19.0,-240.0,77.0,-5.0,59.0,-7.0,0
17.0,-238.0,77.0,-5.0,59.0,-9.0,0
21.0,-237.0,74.0,-3.0,60.0,-8.0,0
22.0,-239.0,77.0,-3.0,59.0,-9.0,0
20.0,-239.0,74.0,-4.0,60.0,-6.0,0
19.0,-236.0,76.0,-5.0,59.0,-5.0,0
22.0,-237.0,75.0,-9.0,58.0,-3.0,0
19.0,-239.0,74.0,-10.0,58.0,-2.0,0
20.0,-235.0,76.0,-14.0,59.0,1.0,0
20.0,-238.0,77.0,-15.0,58.0,-2.0,0
21.0,-239.0,76.0,-19.0,58.0,1.0,0
20.0,-239.0,75.0,-22.0,59.0,-2.0,0
19.0,-236.0,77.0,-24.0,58.0,1.0,0
15.0,-232.0,78.0,-26.0,59.0,-1.0,0
19.0,-237.0,77.0,-27.0,59.0,0.0,0
17.0,-236.0,79.0,-27.0,60.0,-2.0,0
19.0,-238.0,76.0,-26.0,60.0,0.0,0
19.0,-238.0,79.0,-25.0,61.0,-3.0,0
21.0,-237.0,75.0,-26.0,63.0,-1.0,0
19.0,-234.0,76.0,-26.0,62.0,-2.0,0
20.0,-239.0,75.0,-26.0,62.0,0.0,0
21.0,-240.0,76.0,-28.0,61.0,-3.0,0
19.0,-237.0,77.0,-30.0,61.0,-1.0,0
17.0,-239.0,75.0,-29.0,64.0,-2.0,0
18.0,-235.0,75.0,-29.0,64.0,0.0,0
19.0,-235.0,78.0,-30.0,63.0,-3.0,0
21.0,-238.0,77.0,-31.0,63.0,0.0,0
19.0,-236.0,78.0,-30.0,64.0,-3.0,0
18.0,-238.0,75.0,-30.0,66.0,0.0,0
18.0,-239.0,77.0,-28.0,64.0,-1.0,0
17.0,-237.0,74.0,-28.0,63.0,1.0,0
18.0,-240.0,77.0,-27.0,64.0,-1.0,0
18.0,-238.0,78.0,-26.0,62.0,0.0,0
19.0,-240.0,77.0,-26.0,61.0,-2.0,0
17.0,-238.0,79.0,-27.0,60.0,-3.0,0
19.0,-236.0,77.0,-28.0,59.0,-4.0,0
18.0,-237.0,77.0,-29.0,60.0,-2.0,0
19.0,-237.0,72.0,-30.0,59.0,-3.0,0
16.0,-238.0,75.0,-33.0,59.0,-3.0,0
16.0,-237.0,77.0,-32.0,60.0,-4.0,0
16.0,-239.0,77.0,-33.0,61.0,-2.0,0
20.0,-236.0,76.0,-34.0,62.0,-4.0,0
18.0,-240.0,79.0,-37.0,63.0,0.0,0
21.0,-238.0,80.0,-37.0,62.0,-2.0,0
16.0,-238.0,79.0,-39.0,62.0,-1.0,0
21.0,-238.0,77.0,-41.0,62.0,0.0,0
20.0,-238.0,76.0,-42.0,63.0,-1.0,0
21.0,-239.0,76.0,-42.0,65.0,-3.0,0
21.0,-237.0,75.0,-45.0,63.0,0.0,0
19.0,-236.0,74.0,-46.0,63.0,-2.0,0
19.0,-240.0,78.0,-48.0,63.0,-1.0,0
19.0,-240.0,74.0,-48.0,64.0,-2.0,0
19.0,-239.0,76.0,-48.0,63.0,2.0,0
20.0,-239.0,76.0,-48.0,64.0,-1.0,0
19.0,-239.0,76.0,-49.0,61.0,1.0,0
23.0,-236.0,78.0,-48.0,61.0,-2.0,0
21.0,-242.0,75.0,-47.0,61.0,0.0,0
18.0,-242.0,76.0,-44.0,60.0,-3.0,0
17.0,-236.0,77.0,-43.0,59.0,-1.0,0
21.0,-239.0,77.0,-41.0,58.0,-4.0,0
16.0,-242.0,78.0,-41.0,59.0,-2.0,0
17.0,-238.0,75.0,-39.0,58.0,-4.0,0
19.0,-238.0,75.0,-38.0,58.0,-1.0,0
17.0,-237.0,75.0,-40.0,57.0,-3.0,0
19.0,-238.0,75.0,-41.0,58.0,-3.0,0
19.0,-239.0,72.0,-43.0,59.0,-4.0,0
21.0,-237.0,76.0,-45.0,60.0,-2.0,0
18.0,-239.0,75.0,-45.0,59.0,-4.0,0
19.0,-239.0,74.0,-46.0,61.0,-1.0,0
18.0,-237.0,77.0,-45.0,60.0,-4.0,0
21.0,-239.0,75.0,-45.0,60.0,-3.0,0
19.0,-239.0,75.0,-45.0,60.0,-3.0,0
22.0,-239.0,75.0,-43.0,59.0,-1.0,0
20.0,-238.0,75.0,-40.0,60.0,-1.0,0
18.0,-237.0,74.0,-39.0,60.0,0.0,0
17.0,-239.0,74.0,-37.0,59.0,-1.0,0
20.0,-239.0,74.0,-36.0,61.0,3.0,0
20.0,-242.0,75.0,-35.0,60.0,0.0,0
21.0,-238.0,73.0,-34.0,61.0,2.0,0
19.0,-241.0,76.0,-32.0,62.0,-1.0,0
19.0,-243.0,75.0,-31.0,62.0,2.0,0
19.0,-238.0,77.0,-30.0,63.0,0.0,0
22.0,-238.0,73.0,-30.0,63.0,1.0,0
20.0,-240.0,72.0,-30.0,63.0,-2.0,0
18.0,-238.0,72.0,-30.0,63.0,-2.0,0
18.0,-238.0,74.0,-31.0,65.0,-5.0,0
17.0,-240.0,76.0,-34.0,64.0,-4.0,0
19.0,-237.0,76.0,-36.0,63.0,-8.0,0
19.0,-238.0,77.0,-37.0,65.0,-7.0,0
15.0,-239.0,74.0,-37.0,65.0,-11.0,0
19.0,-240.0,74.0,-39.0,65.0,-10.0,0
18.0,-240.0,76.0,-39.0,65.0,-12.0,0
16.0,-236.0,72.0,-38.0,64.0,-11.0,0
16.0,-237.0,74.0,-39.0,65.0,-12.0,0
18.0,-238.0,71.0,-36.0,64.0,-10.0,0
18.0,-237.0,74.0,-36.0,62.0,-11.0,0
19.0,-241.0,71.0,-36.0,61.0,-9.0,0
20.0,-239.0,73.0,-37.0,61.0,-10.0,0
18.0,-238.0,72.0,-35.0,59.0,-8.0,0
21.0,-238.0,73.0,-34.0,58.0,-9.0,0
19.0,-239.0,70.0,-31.0,57.0,-5.0,0
20.0,-224.0,88.0,-32.0,58.0,-7.0,0
19.0,-240.0,72.0,-29.0,57.0,-5.0,0
23.0,-240.0,75.0,-30.0,58.0,-5.0,0
18.0,-239.0,73.0,-27.0,60.0,-4.0,0
19.0,-240.0,72.0,-24.0,59.0,-5.0,0
19.0,-236.0,76.0,-24.0,61.0,-3.0,0
20.0,-239.0,72.0,-23.0,63.0,-4.0,0
18.0,-240.0,74.0,-22.0,62.0,-4.0,0
18.0,-240.0,75.0,-20.0,64.0,-5.0,0
21.0,-241.0,74.0,-20.0,66.0,-4.0,0
19.0,-238.0,74.0,-20.0,66.0,-6.0,0
20.0,-241.0,72.0,-18.0,67.0,-4.0,0
20.0,-241.0,70.0,-13.0,67.0,-5.0,0
19.0,-238.0,73.0,-12.0,68.0,-3.0,0
19.0,-239.0,71.0,-11.0,68.0,-4.0,0
20.0,-239.0,75.0,-8.0,68.0,-2.0,0
23.0,-241.0,71.0,-5.0,68.0,-4.0,0
17.0,-241.0,73.0,-3.0,65.0,-1.0,0
19.0,-238.0,74.0,0.0,67.0,-1.0,0
20.0,-240.0,74.0,4.0,65.0,1.0,0
20.0,-239.0,73.0,6.0,64.0,0.0,0
21.0,-240.0,76.0,10.0,63.0,3.0,0
20.0,-239.0,76.0,11.0,62.0,2.0,0
21.0,-241.0,74.0,14.0,62.0,3.0,0
20.0,-238.0,76.0,16.0,62.0,1.0,0
16.0,-237.0,74.0,16.0,61.0,3.0,0
21.0,-244.0,75.0,17.0,61.0,2.0,0
17.0,-238.0,72.0,17.0,59.0,2.0,0
16.0,-236.0,73.0,16.0,58.0,0.0,0
19.0,-238.0,77.0,15.0,58.0,1.0,0
19.0,-239.0,74.0,14.0,56.0,-3.0,0
20.0,-239.0,73.0,11.0,58.0,-1.0,0
19.0,-235.0,75.0,7.0,56.0,-3.0,0
20.0,-236.0,77.0,3.0,56.0,-2.0,0
19.0,-236.0,78.0,-2.0,56.0,-3.0,0
18.0,-239.0,75.0,-7.0,55.0,0.0,0
17.0,-236.0,74.0,-9.0,57.0,-2.0,0
17.0,-239.0,78.0,-13.0,57.0,0.0,0
16.0,-237.0,72.0,-15.0,58.0,-2.0,0
19.0,-239.0,75.0,-16.0,59.0,0.0,0
22.0,-239.0,75.0,-14.0,62.0,0.0,0
20.0,-241.0,74.0,-10.0,68.0,2.0,0
21.0,-243.0,76.0,-2.0,72.0,-1.0,0
22.0,-238.0,74.0,8.0,77.0,0.0,0
18.0,-240.0,76.0,20.0,80.0,-2.0,0
22.0,-238.0,75.0,29.0,85.0,-1.0,0
20.0,-239.0,74.0,35.0,90.0,-4.0,0
20.0,-239.0,77.0,38.0,96.0,-2.0,0
19.0,-237.0,78.0,37.0,103.0,2.0,0
22.0,-239.0,78.0,30.0,109.0,12.0,0
19.0,-237.0,80.0,17.0,115.0,24.0,0
23.0,-239.0,77.0,-5.0,118.0,43.0,0
21.0,-240.0,83.0,-34.0,118.0,60.0,0
23.0,-240.0,82.0,-66.0,112.0,87.0,0
23.0,-241.0,78.0,-104.0,99.0,103.0,0
23.0,-242.0,76.0,-126.0,84.0,122.0,0
23.0,-240.0,70.0,-148.0,68.0,128.0,0
25.0,-243.0,66.0,-170.0,49.0,124.0,0
25.0,-242.0,66.0,-186.0,29.0,116.0,0
23.0,-239.0,64.0,-202.0,15.0,111.0,0
22.0,-240.0,68.0,-217.0,7.0,105.0,0
26.0,-242.0,71.0,-231.0,2.0,108.0,0
27.0,-244.0,71.0,-242.0,-1.0,106.0,0
27.0,-246.0,70.0,-246.0,-3.0,107.0,0
24.0,-243.0,70.0,-237.0,-8.0,99.0,0
24.0,-247.0,70.0,-224.0,-11.0,89.0,0
23.0,-247.0,69.0,-207.0,-11.0,68.0,0
25.0,-245.0,65.0,-189.0,-11.0,48.0,0
20.0,-248.0,70.0,-175.0,-7.0,22.0,0
21.0,-247.0,70.0,-163.0,1.0,1.0,0
19.0,-245.0,69.0,-159.0,14.0,-22.0,0
22.0,-237.0,68.0,-160.0,32.0,-35.0,0
26.0,-233.0,61.0,-163.0,55.0,-46.0,0
33.0,-230.0,61.0,-173.0,80.0,-58.0,0
31.0,-231.0,62.0,-208.0,106.0,-89.0,0
23.0,-229.0,68.0,-292.0,120.0,-118.0,0
20.0,-227.0,68.0,-378.0,129.0,-137.0,0
25.0,-227.0,66.0,-450.0,152.0,-131.0,0
26.0,-235.0,63.0,-496.0,189.0,-116.0,0
20.0,-241.0,76.0,-525.0,221.0,-93.0,0
32.0,-257.0,68.0,-543.0,222.0,-73.0,0
34.0,-260.0,66.0,-551.0,224.0,-70.0,0
30.0,-262.0,73.0,-527.0,230.0,-71.0,0
22.0,-268.0,70.0,-471.0,224.0,-49.0,0
24.0,-263.0,62.0,-404.0,215.0,-12.0,0
21.0,-264.0,62.0,-323.0,224.0,35.0,0
16.0,-266.0,56.0,-267.0,237.0,81.0,0
15.0,-269.0,60.0,-219.0,240.0,115.0,0
11.0,-270.0,63.0,-177.0,232.0,133.0,0
16.0,-268.0,60.0,-135.0,228.0,146.0,0
17.0,-267.0,60.0,-97.0,233.0,142.0,0
21.0,-262.0,55.0,-72.0,242.0,139.0,0
26.0,-261.0,52.0,-64.0,259.0,128.0,0
30.0,-259.0,56.0,-69.0,282.0,118.0,0
29.0,-257.0,56.0,-79.0,309.0,93.0,0
34.0,-253.0,62.0,-91.0,337.0,72.0,0
40.0,-254.0,65.0,-97.0,363.0,41.0,0
41.0,-246.0,57.0,-94.0,400.0,10.0,0
43.0,-252.0,68.0,-92.0,426.0,-22.0,0
50.0,-248.0,71.0,-87.0,452.0,-49.0,0
50.0,-251.0,70.0,-85.0,476.0,-80.0,0
51.0,-248.0,74.0,-81.0,498.0,-100.0,0
48.0,-247.0,75.0,-81.0,524.0,-128.0,0
48.0,-247.0,74.0,-84.0,543.0,-143.0,0
42.0,-244.0,71.0,-88.0,560.0,-167.0,0
36.0,-245.0,69.0,-106.0,576.0,-175.0,0
39.0,-244.0,67.0,-127.0,593.0,-184.0,0
30.0,-244.0,66.0,-153.0,606.0,-195.0,0
23.0,-244.0,69.0,-188.0,618.0,-197.0,0
37.0,-244.0,63.0,-227.0,622.0,-199.0,0
26.0,-240.0,64.0,-275.0,650.0,-207.0,0
25.0,-247.0,61.0,-329.0,679.0,-203.0,0
19.0,-245.0,58.0,-378.0,712.0,-211.0,0
16.0,-248.0,62.0,-416.0,740.0,-218.0,0
19.0,-253.0,64.0,-435.0,764.0,-232.0,0
22.0,-259.0,63.0,-432.0,791.0,-238.0,0
27.0,-260.0,60.0,-415.0,808.0,-245.0,0
27.0,-262.0,60.0,-387.0,825.0,-252.0,0
28.0,-265.0,67.0,-348.0,847.0,-253.0,0
27.0,-270.0,59.0,-298.0,874.0,-253.0,0
37.0,-266.0,60.0,-238.0,887.0,-251.0,0
23.0,-264.0,62.0,-180.0,906.0,-248.0,0
42.0,-270.0,57.0,-123.0,923.0,-244.0,0
35.0,-270.0,54.0,-69.0,945.0,-242.0,0
35.0,-266.0,55.0,-24.0,970.0,-266.0,0
41.0,-268.0,52.0,17.0,1004.0,-280.0,0
48.0,-264.0,53.0,74.0,1023.0,-276.0,0
37.0,-259.0,56.0,117.0,1063.0,-281.0,0
34.0,-262.0,53.0,149.0,1093.0,-288.0,0
29.0,-262.0,46.0,172.0,1124.0,-287.0,0
30.0,-254.0,52.0,188.0,1149.0,-281.0,0
57.0,-259.0,53.0,195.0,1169.0,-286.0,0
49.0,-247.0,46.0,205.0,1211.0,-317.0,0
50.0,-253.0,56.0,202.0,1239.0,-302.0,0
48.0,-244.0,51.0,202.0,1281.0,-317.0,0
39.0,-237.0,40.0,184.0,1310.0,-307.0,0
31.0,-236.0,59.0,166.0,1321.0,-281.0,0
35.0,-230.0,42.0,131.0,1353.0,-277.0,0
30.0,-224.0,46.0,84.0,1379.0,-271.0,0
26.0,-217.0,45.0,32.0,1423.0,-247.0,0
28.0,-209.0,55.0,-18.0,1446.0,-189.0,0
-1.0,-209.0,71.0,-59.0,1488.0,-155.0,0
-7.0,-212.0,75.0,-72.0,1487.0,-92.0,0
10.0,-209.0,73.0,-65.0,1485.0,-37.0,0
-11.0,-207.0,78.0,-63.0,1519.0,5.0,0
-20.0,-204.0,69.0,-73.0,1529.0,54.0,0
-24.0,-209.0,76.0,-79.0,1513.0,87.0,0
-12.0,-208.0,90.0,-84.0,1500.0,106.0,0
-19.0,-201.0,79.0,-88.0,1498.0,125.0,0
-25.0,-198.0,89.0,-77.0,1505.0,173.0,0
-17.0,-202.0,81.0,-71.0,1516.0,207.0,0
-15.0,-209.0,90.0,-76.0,1530.0,219.0,0
-23.0,-216.0,97.0,-75.0,1544.0,233.0,0
-13.0,-212.0,93.0,-70.0,1546.0,278.0,0
-14.0,-214.0,86.0,-66.0,1582.0,277.0,0
-7.0,-217.0,85.0,-64.0,1618.0,283.0,0
-8.0,-219.0,85.0,-58.0,1647.0,302.0,0
-15.0,-216.0,92.0,-57.0,1680.0,294.0,0
-20.0,-217.0,88.0,-67.0,1705.0,272.0,0
-18.0,-219.0,87.0,-72.0,1710.0,272.0,0
-9.0,-223.0,90.0,-55.0,1704.0,277.0,0
-10.0,-224.0,88.0,-25.0,1706.0,265.0,0
-2.0,-228.0,88.0,3.0,1705.0,236.0,0
5.0,-229.0,87.0,28.0,1701.0,212.0,0
0.0,-230.0,88.0,48.0,1673.0,183.0,0
-4.0,-228.0,87.0,68.0,1643.0,166.0,0
1.0,-229.0,84.0,82.0,1583.0,127.0,0
7.0,-234.0,88.0,92.0,1520.0,112.0,0
2.0,-228.0,86.0,88.0,1465.0,95.0,0
5.0,-227.0,73.0,58.0,1396.0,71.0,0
-8.0,-218.0,75.0,13.0,1325.0,64.0,0
8.0,-217.0,65.0,-37.0,1252.0,66.0,0
4.0,-216.0,67.0,-105.0,1199.0,53.0,0
-8.0,-212.0,61.0,-190.0,1141.0,61.0,0
-1.0,-208.0,54.0,-276.0,1071.0,73.0,0
0.0,-209.0,38.0,-367.0,1009.0,84.0,0
-17.0,-199.0,35.0,-483.0,928.0,112.0,0
12.0,-207.0,13.0,-601.0,852.0,155.0,0
-15.0,-200.0,12.0,-696.0,815.0,163.0,0
-25.0,-197.0,11.0,-795.0,779.0,198.0,0
-12.0,-194.0,-1.0,-873.0,713.0,237.0,0
-16.0,-189.0,-19.0,-922.0,673.0,259.0,0
-31.0,-179.0,-16.0,-953.0,677.0,278.0,0
-54.0,-176.0,-17.0,-982.0,670.0,318.0,0
-54.0,-180.0,-17.0,-1001.0,623.0,369.0,0
-62.0,-182.0,-15.0,-1006.0,556.0,411.0,0
-82.0,-190.0,-7.0,-1001.0,503.0,435.0,0
-84.0,-195.0,-7.0,-981.0,424.0,459.0,0
-89.0,-201.0,-8.0,-954.0,358.0,459.0,0
-93.0,-200.0,-10.0,-918.0,312.0,435.0,0
-96.0,-199.0,-14.0,-874.0,263.0,397.0,0
-94.0,-198.0,-30.0,-827.0,201.0,353.0,0
-82.0,-201.0,-34.0,-784.0,139.0,310.0,0
-81.0,-204.0,-37.0,-742.0,89.0,267.0,0
-68.0,-210.0,-32.0,-698.0,41.0,228.0,0
-61.0,-218.0,-25.0,-649.0,-6.0,194.0,0
-52.0,-226.0,-26.0,-598.0,-42.0,154.0,0
-48.0,-234.0,-17.0,-554.0,-75.0,128.0,0
-50.0,-245.0,-11.0,-543.0,-98.0,107.0,0
-51.0,-262.0,-10.0,-539.0,-123.0,101.0,0
-51.0,-275.0,-7.0,-552.0,-147.0,86.0,0
-59.0,-279.0,-4.0,-572.0,-185.0,65.0,0
-60.0,-288.0,2.0,-590.0,-223.0,46.0,0
-61.0,-296.0,3.0,-609.0,-271.0,29.0,0
-69.0,-299.0,8.0,-628.0,-324.0,3.0,0
-73.0,-301.0,10.0,-656.0,-376.0,-23.0,0
-74.0,-304.0,9.0,-686.0,-425.0,-62.0,0
-80.0,-306.0,1.0,-722.0,-463.0,-103.0,0
-83.0,-304.0,4.0,-752.0,-475.0,-135.0,0
-85.0,-302.0,0.0,-776.0,-476.0,-153.0,0
-84.0,-296.0,7.0,-791.0,-474.0,-165.0,0
-86.0,-296.0,7.0,-797.0,-466.0,-164.0,0
-86.0,-296.0,2.0,-795.0,-454.0,-154.0,0
-89.0,-292.0,5.0,-795.0,-439.0,-129.0,0
-87.0,-286.0,6.0,-795.0,-420.0,-102.0,0
-83.0,-284.0,14.0,-799.0,-406.0,-60.0,0
-81.0,-274.0,12.0,-804.0,-395.0,-18.0,0
-75.0,-267.0,13.0,-816.0,-376.0,38.0,0
-72.0,-259.0,16.0,-840.0,-359.0,83.0,0
-66.0,-253.0,16.0,-861.0,-352.0,131.0,0
-64.0,-247.0,15.0,-883.0,-352.0,175.0,0
-56.0,-239.0,18.0,-903.0,-357.0,215.0,0
-56.0,-236.0,17.0,-924.0,-350.0,239.0,0
-46.0,-233.0,22.0,-941.0,-346.0,260.0,0
-42.0,-231.0,19.0,-953.0,-346.0,271.0,0
-37.0,-234.0,21.0,-974.0,-349.0,277.0,0
-33.0,-233.0,19.0,-993.0,-351.0,273.0,0
-33.0,-237.0,15.0,-1008.0,-349.0,264.0,0
-23.0,-243.0,15.0,-1022.0,-358.0,259.0,0
-27.0,-249.0,11.0,-1023.0,-360.0,254.0,0
-28.0,-251.0,5.0,-1019.0,-366.0,243.0,0
-28.0,-257.0,3.0,-1016.0,-366.0,239.0,0
-28.0,-258.0,-4.0,-1008.0,-379.0,238.0,0
-26.0,-259.0,-7.0,-998.0,-396.0,247.0,0
-33.0,-260.0,-8.0,-985.0,-419.0,253.0,0
-37.0,-259.0,-8.0,-973.0,-431.0,266.0,0
-43.0,-261.0,-5.0,-962.0,-452.0,277.0,0
-34.0,-262.0,-9.0,-963.0,-481.0,293.0,0
-29.0,-264.0,-16.0,-971.0,-486.0,302.0,0
-24.0,-262.0,-24.0,-970.0,-489.0,308.0,0
-26.0,-269.0,-21.0,-964.0,-490.0,315.0,0
-20.0,-271.0,-15.0,-945.0,-488.0,325.0,0
-14.0,-277.0,-17.0,-916.0,-469.0,329.0,0
-10.0,-278.0,-21.0,-881.0,-460.0,343.0,0
-3.0,-280.0,-24.0,-853.0,-460.0,344.0,0
-8.0,-276.0,-24.0,-828.0,-450.0,335.0,0
-1.0,-269.0,-28.0,-814.0,-429.0,317.0,0
-9.0,-271.0,-24.0,-801.0,-404.0,295.0,0
-6.0,-270.0,-29.0,-780.0,-392.0,275.0,0
-13.0,-274.0,-22.0,-762.0,-375.0,261.0,0
12.0,-270.0,-30.0,-737.0,-396.0,258.0,0
2.0,-267.0,-26.0,-717.0,-385.0,231.0,0
-4.0,-266.0,-23.0,-699.0,-364.0,213.0,0
3.0,-275.0,-32.0,-679.0,-347.0,203.0,0
2.0,-267.0,-25.0,-669.0,-348.0,195.0,0
-14.0,-263.0,-19.0,-666.0,-342.0,195.0,0
-6.0,-261.0,-31.0,-672.0,-340.0,191.0,0
8.0,-266.0,-26.0,-693.0,-301.0,193.0,0
-7.0,-269.0,-24.0,-709.0,-268.0,199.0,0
-8.0,-275.0,-32.0,-711.0,-255.0,205.0,0
7.0,-268.0,-31.0,-712.0,-245.0,217.0,0
0.0,-270.0,-40.0,-713.0,-185.0,210.0,0
-18.0,-273.0,-37.0,-709.0,-152.0,216.0,0
-14.0,-268.0,-34.0,-707.0,-144.0,231.0,0
-24.0,-272.0,-36.0,-709.0,-120.0,234.0,0
-14.0,-277.0,-42.0,-708.0,-83.0,240.0,0
-14.0,-273.0,-49.0,-704.0,-46.0,232.0,0
-22.0,-271.0,-42.0,-711.0,-18.0,235.0,0
-21.0,-270.0,-45.0,-731.0,-3.0,246.0,0
-24.0,-268.0,-50.0,-771.0,28.0,250.0,0
-30.0,-267.0,-50.0,-808.0,59.0,250.0,0
-28.0,-265.0,-49.0,-841.0,89.0,246.0,0
-21.0,-261.0,-48.0,-872.0,128.0,237.0,0
-34.0,-261.0,-45.0,-900.0,165.0,230.0,0
-35.0,-259.0,-52.0,-920.0,189.0,223.0,0
-47.0,-249.0,-52.0,-937.0,218.0,215.0,0
-40.0,-245.0,-50.0,-950.0,242.0,212.0,0
-45.0,-245.0,-51.0,-952.0,256.0,213.0,0
-49.0,-239.0,-51.0,-945.0,279.0,212.0,0
-53.0,-242.0,-54.0,-926.0,298.0,217.0,0
-57.0,-239.0,-51.0,-906.0,310.0,220.0,0
-60.0,-237.0,-54.0,-884.0,320.0,230.0,0
-58.0,-241.0,-56.0,-863.0,323.0,240.0,0
-65.0,-236.0,-58.0,-843.0,323.0,255.0,0
-68.0,-236.0,-59.0,-824.0,321.0,266.0,0
-69.0,-233.0,-57.0,-811.0,314.0,283.0,0
-64.0,-235.0,-63.0,-803.0,304.0,294.0,0
-68.0,-238.0,-63.0,-798.0,297.0,308.0,0
-67.0,-237.0,-69.0,-795.0,290.0,321.0,0
-66.0,-237.0,-75.0,-796.0,284.0,331.0,0
-66.0,-238.0,-75.0,-797.0,283.0,338.0,0
-62.0,-237.0,-81.0,-803.0,277.0,343.0,0
-60.0,-238.0,-85.0,-814.0,281.0,345.0,0
-50.0,-238.0,-84.0,-822.0,287.0,348.0,0
-54.0,-235.0,-91.0,-828.0,294.0,349.0,0
-47.0,-237.0,-86.0,-834.0,302.0,349.0,0
-42.0,-238.0,-86.0,-836.0,314.0,349.0,0
-41.0,-238.0,-93.0,-834.0,327.0,352.0,0
-43.0,-235.0,-96.0,-832.0,339.0,355.0,0
-45.0,-235.0,-99.0,-831.0,349.0,359.0,0
-39.0,-233.0,-104.0,-831.0,358.0,360.0,0
-42.0,-230.0,-106.0,-825.0,367.0,363.0,0
-41.0,-230.0,-110.0,-814.0,376.0,361.0,0
-42.0,-227.0,-109.0,-802.0,388.0,360.0,0
-47.0,-225.0,-114.0,-787.0,398.0,359.0,0
-47.0,-225.0,-114.0,-769.0,409.0,357.0,0
-46.0,-223.0,-114.0,-752.0,422.0,346.0,0
-47.0,-224.0,-114.0,-736.0,437.0,346.0,0
-50.0,-219.0,-109.0,-722.0,452.0,343.0,0
-57.0,-217.0,-115.0,-713.0,468.0,345.0,0
-57.0,-213.0,-112.0,-708.0,483.0,347.0,0
-59.0,-214.0,-112.0,-711.0,499.0,354.0,0
-61.0,-211.0,-113.0,-716.0,515.0,359.0,0
-65.0,-217.0,-111.0,-724.0,529.0,369.0,0
-65.0,-216.0,-113.0,-732.0,542.0,376.0,0
-69.0,-218.0,-112.0,-734.0,554.0,387.0,0
-68.0,-217.0,-113.0,-732.0,563.0,392.0,0
-64.0,-220.0,-115.0,-729.0,573.0,399.0,0
-67.0,-222.0,-116.0,-724.0,581.0,401.0,0
-65.0,-221.0,-117.0,-722.0,594.0,402.0,0
-68.0,-223.0,-127.0,-720.0,605.0,399.0,0
-64.0,-222.0,-126.0,-720.0,614.0,399.0,0
-62.0,-224.0,-128.0,-716.0,627.0,393.0,0
-60.0,-224.0,-127.0,-711.0,636.0,391.0,0
-57.0,-224.0,-133.0,-699.0,647.0,385.0,0
-62.0,-224.0,-127.0,-692.0,657.0,382.0,0
-58.0,-228.0,-129.0,-687.0,669.0,376.0,0
-52.0,-227.0,-132.0,-684.0,681.0,377.0,0
-51.0,-223.0,-136.0,-690.0,692.0,371.0,0
-51.0,-218.0,-135.0,-701.0,707.0,372.0,0
-54.0,-219.0,-128.0,-721.0,719.0,368.0,0
-56.0,-218.0,-131.0,-738.0,733.0,366.0,0
-51.0,-221.0,-133.0,-751.0,749.0,363.0,0
-55.0,-222.0,-133.0,-758.0,766.0,361.0,0
-62.0,-223.0,-139.0,-753.0,770.0,358.0,0
-55.0,-219.0,-146.0,-744.0,774.0,356.0,0
-54.0,-216.0,-145.0,-733.0,777.0,352.0,0
-59.0,-214.0,-150.0,-724.0,777.0,351.0,0
-62.0,-211.0,-148.0,-717.0,773.0,348.0,0
-72.0,-207.0,-149.0,-709.0,766.0,353.0,0
-72.0,-205.0,-150.0,-706.0,760.0,354.0,0
-77.0,-201.0,-147.0,-709.0,753.0,362.0,0
-83.0,-200.0,-147.0,-713.0,745.0,365.0,0
-82.0,-198.0,-149.0,-717.0,732.0,370.0,0
-85.0,-195.0,-147.0,-720.0,721.0,371.0,0
-88.0,-196.0,-150.0,-718.0,708.0,372.0,0
-93.0,-196.0,-146.0,-712.0,691.0,373.0,0
-94.0,-197.0,-144.0,-701.0,668.0,378.0,0
-98.0,-196.0,-148.0,-686.0,645.0,381.0,0
-96.0,-195.0,-149.0,-671.0,615.0,394.0,0
-99.0,-197.0,-146.0,-657.0,589.0,405.0,0
-96.0,-197.0,-149.0,-651.0,562.0,418.0,0
-97.0,-195.0,-148.0,-652.0,533.0,427.0,0
-99.0,-200.0,-151.0,-657.0,508.0,437.0,0
-93.0,-202.0,-148.0,-658.0,479.0,439.0,0
-99.0,-200.0,-148.0,-652.0,454.0,447.0,0
-94.0,-201.0,-151.0,-641.0,426.0,447.0,0
-95.0,-199.0,-151.0,-622.0,402.0,453.0,0
-93.0,-198.0,-149.0,-600.0,372.0,447.0,0
-94.0,-201.0,-155.0,-574.0,343.0,446.0,0
-94.0,-198.0,-154.0,-544.0,317.0,443.0,0
-90.0,-196.0,-159.0,-521.0,287.0,438.0,0
-80.0,-195.0,-159.0,-497.0,257.0,428.0,0
-86.0,-194.0,-158.0,-476.0,234.0,425.0,0
-84.0,-191.0,-160.0,-463.0,206.0,413.0,0
-84.0,-190.0,-158.0,-457.0,182.0,405.0,0
-82.0,-190.0,-156.0,-452.0,158.0,392.0,0
-78.0,-185.0,-158.0,-447.0,138.0,386.0,0
-78.0,-185.0,-159.0,-447.0,122.0,376.0,0
-77.0,-189.0,-151.0,-442.0,108.0,379.0,0
-72.0,-186.0,-147.0,-434.0,99.0,381.0,0
-72.0,-184.0,-146.0,-434.0,98.0,384.0,0
-65.0,-185.0,-148.0,-442.0,99.0,384.0,0
-73.0,-179.0,-145.0,-453.0,110.0,400.0,0
-70.0,-182.0,-149.0,-473.0,110.0,408.0,0
-72.0,-183.0,-143.0,-500.0,110.0,418.0,0
-72.0,-186.0,-146.0,-521.0,107.0,423.0,0
-75.0,-186.0,-151.0,-536.0,103.0,430.0,0
-77.0,-187.0,-148.0,-546.0,91.0,429.0,0
-76.0,-190.0,-149.0,-550.0,76.0,421.0,0
-78.0,-192.0,-145.0,-544.0,61.0,412.0,0
-71.0,-197.0,-153.0,-529.0,48.0,408.0,0
-78.0,-199.0,-147.0,-511.0,41.0,403.0,0
-76.0,-199.0,-154.0,-503.0,26.0,392.0,0
-76.0,-203.0,-161.0,-502.0,19.0,377.0,0
-79.0,-207.0,-163.0,-508.0,17.0,362.0,0
-79.0,-211.0,-172.0,-518.0,20.0,337.0,0
-80.0,-213.0,-178.0,-529.0,30.0,320.0,0
-85.0,-212.0,-181.0,-537.0,43.0,294.0,0
-83.0,-213.0,-182.0,-543.0,52.0,272.0,0
-84.0,-210.0,-185.0,-538.0,66.0,254.0,0
-84.0,-207.0,-186.0,-525.0,77.0,248.0,0
-79.0,-208.0,-184.0,-504.0,81.0,243.0,0
-81.0,-205.0,-188.0,-475.0,87.0,242.0,0
-79.0,-206.0,-188.0,-447.0,85.0,246.0,0
-80.0,-206.0,-185.0,-417.0,88.0,256.0,0
-79.0,-205.0,-187.0,-380.0,89.0,269.0,0
-68.0,-209.0,-183.0,-342.0,95.0,286.0,0
-64.0,-210.0,-185.0,-295.0,107.0,300.0,0
-56.0,-210.0,-185.0,-250.0,119.0,317.0,0
-48.0,-212.0,-182.0,-200.0,140.0,338.0,0
-46.0,-215.0,-180.0,-167.0,156.0,357.0,0
-44.0,-210.0,-173.0,-141.0,166.0,367.0,0
-49.0,-205.0,-177.0,-118.0,183.0,374.0,0
-55.0,-205.0,-168.0,-107.0,196.0,375.0,0
-54.0,-200.0,-167.0,-105.0,201.0,376.0,0
-68.0,-193.0,-168.0,-115.0,205.0,370.0,0
-75.0,-194.0,-179.0,-127.0,204.0,362.0,0
-77.0,-194.0,-177.0,-146.0,209.0,341.0,0
-115.0,-193.0,-180.0,-176.0,212.0,300.0,0
-123.0,-194.0,-203.0,-221.0,176.0,285.0,0
-128.0,-186.0,-202.0,-261.0,162.0,257.0,0
-134.0,-180.0,-206.0,-284.0,149.0,224.0,0
-132.0,-175.0,-209.0,-304.0,135.0,192.0,0
-135.0,-169.0,-215.0,-319.0,127.0,177.0,0
-128.0,-171.0,-220.0,-336.0,124.0,176.0,0
-122.0,-177.0,-223.0,-355.0,119.0,178.0,0
-108.0,-173.0,-218.0,-391.0,116.0,183.0,0
-99.0,-173.0,-226.0,-428.0,136.0,195.0,0
-93.0,-167.0,-216.0,-478.0,161.0,193.0,0
-92.0,-173.0,-215.0,-529.0,182.0,197.0,0
-82.0,-179.0,-217.0,-569.0,198.0,193.0,0
-79.0,-179.0,-219.0,-600.0,217.0,182.0,0
-71.0,-185.0,-217.0,-609.0,247.0,187.0,0
-73.0,-185.0,-221.0,-595.0,272.0,195.0,0
-83.0,-185.0,-214.0,-573.0,300.0,200.0,0
-71.0,-190.0,-226.0,-528.0,313.0,212.0,0
-76.0,-197.0,-232.0,-467.0,338.0,244.0,0
-75.0,-197.0,-228.0,-401.0,346.0,262.0,0
-77.0,-194.0,-232.0,-333.0,335.0,271.0,0
-85.0,-197.0,-236.0,-236.0,331.0,283.0,0
-73.0,-197.0,-226.0,-167.0,308.0,267.0,0
-67.0,-199.0,-242.0,-87.0,322.0,273.0,0
-73.0,-201.0,-239.0,-1.0,344.0,295.0,0
-54.0,-196.0,-247.0,76.0,333.0,296.0,0
-84.0,-192.0,-240.0,149.0,352.0,299.0,0
-92.0,-194.0,-239.0,224.0,348.0,297.0,0
-79.0,-190.0,-235.0,298.0,330.0,300.0,0
-64.0,-183.0,-239.0,375.0,329.0,299.0,0
-85.0,-170.0,-233.0,447.0,344.0,308.0,0
-62.0,-180.0,-216.0,500.0,320.0,306.0,0
-76.0,-171.0,-228.0,561.0,357.0,315.0,0
-82.0,-169.0,-216.0,591.0,379.0,334.0,0
-44.0,-176.0,-222.0,587.0,383.0,335.0,0
-66.0,-173.0,-214.0,576.0,406.0,338.0,0
-39.0,-182.0,-211.0,570.0,395.0,345.0,0
-30.0,-172.0,-209.0,568.0,404.0,340.0,0
-33.0,-175.0,-195.0,565.0,419.0,355.0,0
-46.0,-170.0,-177.0,560.0,426.0,366.0,0
-30.0,-177.0,-174.0,562.0,425.0,382.0,0
-51.0,-171.0,-185.0,578.0,415.0,387.0,0
-63.0,-170.0,-186.0,597.0,424.0,397.0,0
-60.0,-174.0,-191.0,617.0,401.0,422.0,0
-47.0,-172.0,-190.0,640.0,395.0,433.0,0
-56.0,-175.0,-186.0,669.0,410.0,434.0,0
-58.0,-164.0,-190.0,692.0,434.0,446.0,0
-57.0,-164.0,-189.0,711.0,444.0,450.0,0
-66.0,-165.0,-180.0,729.0,462.0,454.0,0
-56.0,-163.0,-185.0,744.0,470.0,451.0,0
-58.0,-157.0,-194.0,741.0,459.0,439.0,0
-68.0,-159.0,-188.0,745.0,463.0,423.0,0
-64.0,-157.0,-197.0,754.0,464.0,413.0,0
-76.0,-152.0,-193.0,753.0,456.0,393.0,0
-74.0,-150.0,-194.0,749.0,442.0,388.0,0
-70.0,-149.0,-198.0,736.0,430.0,374.0,0
-78.0,-151.0,-191.0,712.0,421.0,359.0,0
-82.0,-155.0,-186.0,680.0,413.0,343.0,0
-82.0,-157.0,-198.0,642.0,400.0,343.0,0
-82.0,-157.0,-189.0,602.0,386.0,345.0,0
-88.0,-155.0,-192.0,563.0,382.0,350.0,0
-88.0,-152.0,-198.0,524.0,380.0,367.0,0
-87.0,-150.0,-191.0,474.0,373.0,384.0,0
-88.0,-155.0,-194.0,435.0,367.0,407.0,0
-94.0,-156.0,-189.0,406.0,361.0,421.0,0
-95.0,-157.0,-183.0,385.0,347.0,426.0,0
-94.0,-157.0,-186.0,370.0,331.0,437.0,0
-87.0,-164.0,-184.0,361.0,310.0,447.0,0
-82.0,-163.0,-182.0,362.0,292.0,456.0,0
-83.0,-163.0,-180.0,374.0,281.0,458.0,0
-82.0,-167.0,-180.0,396.0,277.0,469.0,0
-82.0,-162.0,-178.0,424.0,280.0,477.0,0
-82.0,-158.0,-181.0,453.0,285.0,482.0,0
-81.0,-157.0,-182.0,469.0,287.0,485.0,0
-79.0,-153.0,-179.0,475.0,293.0,479.0,0
-81.0,-151.0,-183.0,477.0,292.0,467.0,0
-80.0,-148.0,-186.0,475.0,289.0,461.0,0
-80.0,-143.0,-187.0,471.0,280.0,447.0,0
-82.0,-144.0,-184.0,476.0,265.0,428.0,0
-86.0,-139.0,-183.0,487.0,252.0,407.0,0
-90.0,-133.0,-183.0,500.0,237.0,395.0,0
-91.0,-130.0,-188.0,509.0,221.0,370.0,0
-98.0,-128.0,-188.0,508.0,205.0,352.0,0
-92.0,-125.0,-191.0,509.0,189.0,336.0,0
-82.0,-126.0,-183.0,515.0,168.0,320.0,0
-75.0,-130.0,-181.0,526.0,152.0,309.0,0
-75.0,-127.0,-179.0,550.0,152.0,308.0,0
-81.0,-128.0,-179.0,567.0,177.0,324.0,0
-84.0,-131.0,-181.0,565.0,215.0,373.0,0
-84.0,-128.0,-179.0,546.0,252.0,426.0,0
-82.0,-132.0,-178.0,524.0,285.0,478.0,0
-86.0,-133.0,-175.0,501.0,328.0,529.0,0
-86.0,-136.0,-172.0,492.0,367.0,569.0,0
-84.0,-141.0,-168.0,496.0,406.0,603.0,0
-81.0,-144.0,-158.0,510.0,451.0,636.0,0
-80.0,-148.0,-153.0,528.0,496.0,653.0,0
-78.0,-149.0,-153.0,541.0,542.0,661.0,0
-75.0,-148.0,-152.0,551.0,595.0,664.0,0
-78.0,-149.0,-157.0,557.0,643.0,664.0,0
-78.0,-147.0,-153.0,554.0,688.0,655.0,0
-79.0,-147.0,-156.0,543.0,732.0,643.0,0
-87.0,-147.0,-154.0,522.0,767.0,618.0,0
-90.0,-144.0,-154.0,490.0,789.0,588.0,0
-96.0,-145.0,-151.0,460.0,796.0,547.0,0
-103.0,-143.0,-153.0,432.0,796.0,505.0,0
-108.0,-142.0,-156.0,409.0,790.0,458.0,0
-108.0,-142.0,-159.0,393.0,779.0,411.0,0
-108.0,-143.0,-155.0,384.0,772.0,364.0,0
-113.0,-142.0,-153.0,378.0,763.0,322.0,0
-116.0,-142.0,-151.0,374.0,751.0,279.0,0
-120.0,-143.0,-156.0,377.0,734.0,240.0,0
-121.0,-143.0,-157.0,382.0,711.0,196.0,0
-120.0,-147.0,-159.0,396.0,683.0,171.0,0
-123.0,-147.0,-160.0,408.0,658.0,150.0,0
-123.0,-148.0,-165.0,414.0,636.0,143.0,0
-118.0,-149.0,-167.0,415.0,617.0,134.0,0
-114.0,-147.0,-171.0,408.0,603.0,133.0,0
-113.0,-152.0,-172.0,399.0,591.0,141.0,0
-111.0,-150.0,-175.0,387.0,580.0,151.0,0
-103.0,-155.0,-173.0,370.0,571.0,158.0,0
-100.0,-155.0,-172.0,351.0,568.0,174.0,0
-94.0,-156.0,-169.0,334.0,568.0,198.0,0
-90.0,-158.0,-167.0,315.0,564.0,226.0,0
-85.0,-163.0,-167.0,307.0,560.0,266.0,0
-79.0,-163.0,-172.0,301.0,558.0,310.0,0
-77.0,-168.0,-174.0,280.0,556.0,350.0,0
-71.0,-172.0,-165.0,255.0,552.0,390.0,0
-64.0,-178.0,-171.0,227.0,542.0,417.0,0
-65.0,-187.0,-167.0,214.0,532.0,446.0,0
-63.0,-185.0,-169.0,223.0,525.0,469.0,0
-62.0,-191.0,-174.0,244.0,520.0,490.0,0
-66.0,-195.0,-180.0,272.0,520.0,509.0,0
-63.0,-197.0,-178.0,309.0,522.0,541.0,0
-67.0,-195.0,-181.0,377.0,528.0,559.0,0
-68.0,-199.0,-186.0,436.0,535.0,572.0,0
-65.0,-196.0,-186.0,493.0,548.0,578.0,0
-71.0,-195.0,-187.0,552.0,567.0,576.0,0
-79.0,-193.0,-184.0,610.0,584.0,565.0,0
-83.0,-191.0,-184.0,662.0,595.0,554.0,0
-82.0,-187.0,-187.0,707.0,596.0,543.0,0
-80.0,-187.0,-190.0,743.0,598.0,528.0,0
-82.0,-186.0,-188.0,766.0,608.0,502.0,0
-89.0,-188.0,-181.0,776.0,622.0,482.0,0
-94.0,-194.0,-180.0,774.0,625.0,475.0,0
-95.0,-195.0,-179.0,771.0,628.0,467.0,0
-92.0,-193.0,-177.0,771.0,635.0,452.0,0
-94.0,-197.0,-175.0,778.0,643.0,439.0,0
-95.0,-194.0,-166.0,792.0,653.0,426.0,0
-100.0,-195.0,-170.0,813.0,660.0,420.0,0
-94.0,-193.0,-170.0,832.0,668.0,406.0,0
-90.0,-190.0,-163.0,848.0,674.0,393.0,0
-94.0,-187.0,-159.0,859.0,693.0,367.0,0
-88.0,-183.0,-162.0,860.0,720.0,339.0,0
-99.0,-175.0,-165.0,855.0,736.0,310.0,0
-99.0,-169.0,-161.0,844.0,747.0,290.0,0
-102.0,-166.0,-157.0,842.0,759.0,268.0,0
-101.0,-164.0,-156.0,837.0,773.0,237.0,0
-104.0,-161.0,-154.0,836.0,785.0,205.0,0
-110.0,-158.0,-142.0,831.0,800.0,173.0,0
-113.0,-152.0,-141.0,815.0,811.0,135.0,0
-114.0,-148.0,-141.0,787.0,814.0,108.0,0
-116.0,-147.0,-139.0,749.0,819.0,81.0,0
-118.0,-145.0,-134.0,705.0,814.0,49.0,0
-114.0,-148.0,-131.0,651.0,800.0,36.0,0
-115.0,-151.0,-134.0,602.0,789.0,32.0,0
-112.0,-154.0,-139.0,559.0,773.0,31.0,0
-109.0,-159.0,-134.0,527.0,758.0,38.0,0
-107.0,-165.0,-129.0,509.0,741.0,36.0,0
-101.0,-166.0,-136.0,509.0,717.0,42.0,0
-103.0,-170.0,-138.0,515.0,702.0,32.0,0
-100.0,-174.0,-138.0,527.0,680.0,17.0,0
-98.0,-171.0,-134.0,537.0,656.0,-4.0,0
-96.0,-174.0,-133.0,541.0,643.0,-39.0,0
-92.0,-179.0,-127.0,538.0,630.0,-74.0,0
-91.0,-176.0,-121.0,533.0,624.0,-108.0,0
-90.0,-180.0,-120.0,525.0,625.0,-146.0,0
-91.0,-183.0,-121.0,511.0,630.0,-181.0,0
-91.0,-185.0,-116.0,498.0,634.0,-226.0,0
-92.0,-182.0,-118.0,487.0,643.0,-272.0,0
-96.0,-183.0,-116.0,476.0,655.0,-320.0,0
-95.0,-187.0,-114.0,469.0,666.0,-362.0,0
-92.0,-188.0,-112.0,466.0,679.0,-398.0,0
-90.0,-187.0,-113.0,469.0,700.0,-428.0,0
-95.0,-185.0,-110.0,471.0,727.0,-450.0,0
-90.0,-187.0,-102.0,465.0,744.0,-460.0,0
-91.0,-191.0,-108.0,460.0,761.0,-472.0,0
-90.0,-191.0,-104.0,459.0,779.0,-483.0,0
-87.0,-196.0,-102.0,456.0,794.0,-495.0,0
-89.0,-197.0,-106.0,448.0,807.0,-503.0,0
-85.0,-202.0,-98.0,437.0,814.0,-507.0,0
-83.0,-205.0,-104.0,426.0,818.0,-507.0,0
-83.0,-205.0,-110.0,413.0,816.0,-505.0,0
-77.0,-211.0,-99.0,397.0,812.0,-499.0,0
-72.0,-218.0,-107.0,370.0,798.0,-492.0,0
-71.0,-215.0,-102.0,348.0,794.0,-481.0,0
-72.0,-217.0,-111.0,320.0,777.0,-460.0,0
-68.0,-222.0,-126.0,290.0,760.0,-438.0,0
-67.0,-229.0,-117.0,265.0,745.0,-417.0,0
-64.0,-235.0,-122.0,246.0,737.0,-386.0,0
-60.0,-239.0,-123.0,232.0,733.0,-352.0,0
-53.0,-248.0,-128.0,217.0,715.0,-315.0,0
-46.0,-250.0,-133.0,208.0,696.0,-278.0,0
-42.0,-257.0,-134.0,207.0,681.0,-244.0,0
-40.0,-258.0,-130.0,222.0,670.0,-224.0,0
-40.0,-261.0,-129.0,263.0,659.0,-204.0,0
-33.0,-266.0,-136.0,314.0,643.0,-192.0,0
-30.0,-262.0,-130.0,369.0,635.0,-190.0,0
-33.0,-264.0,-134.0,431.0,640.0,-195.0,0
-33.0,-262.0,-134.0,498.0,655.0,-198.0,0
-36.0,-260.0,-137.0,565.0,669.0,-209.0,0
-37.0,-261.0,-135.0,629.0,685.0,-223.0,0
-39.0,-259.0,-130.0,690.0,695.0,-245.0,0
-40.0,-254.0,-131.0,742.0,695.0,-269.0,0
-42.0,-249.0,-130.0,791.0,689.0,-309.0,0
-50.0,-244.0,-125.0,845.0,681.0,-361.0,0
-51.0,-241.0,-127.0,869.0,654.0,-386.0,0
-51.0,-235.0,-127.0,884.0,633.0,-413.0,0
-51.0,-230.0,-126.0,891.0,614.0,-444.0,0
-60.0,-224.0,-132.0,892.0,592.0,-472.0,0
-63.0,-218.0,-132.0,894.0,567.0,-498.0,0
-70.0,-213.0,-132.0,896.0,539.0,-518.0,0
-73.0,-204.0,-136.0,897.0,512.0,-536.0,0
-72.0,-199.0,-141.0,887.0,486.0,-544.0,0
-72.0,-194.0,-143.0,868.0,454.0,-555.0,0
-74.0,-194.0,-139.0,835.0,428.0,-561.0,0
-75.0,-189.0,-139.0,804.0,402.0,-556.0,0
-79.0,-185.0,-135.0,763.0,375.0,-547.0,0
-73.0,-183.0,-135.0,705.0,352.0,-533.0,0
-69.0,-182.0,-133.0,643.0,324.0,-519.0,0
-66.0,-181.0,-131.0,578.0,295.0,-505.0,0
-65.0,-179.0,-131.0,516.0,274.0,-477.0,0
-59.0,-182.0,-129.0,449.0,256.0,-449.0,0
-56.0,-183.0,-126.0,374.0,237.0,-423.0,0
-52.0,-185.0,-121.0,292.0,217.0,-392.0,0
-48.0,-187.0,-120.0,205.0,197.0,-377.0,0
-47.0,-188.0,-117.0,149.0,180.0,-360.0,0
-38.0,-194.0,-116.0,109.0,157.0,-336.0,0
-35.0,-194.0,-116.0,85.0,136.0,-311.0,0
-33.0,-195.0,-116.0,67.0,118.0,-280.0,0
-29.0,-197.0,-113.0,38.0,99.0,-247.0,0
-27.0,-199.0,-115.0,-3.0,78.0,-226.0,0
-24.0,-205.0,-118.0,-51.0,56.0,-216.0,0
-23.0,-211.0,-119.0,-97.0,40.0,-205.0,0
-22.0,-216.0,-119.0,-130.0,27.0,-195.0,0
-22.0,-219.0,-126.0,-153.0,14.0,-194.0,0
-23.0,-222.0,-123.0,-162.0,-1.0,-199.0,0
-28.0,-224.0,-131.0,-165.0,-13.0,-202.0,0
-28.0,-226.0,-134.0,-166.0,-25.0,-203.0,0
-28.0,-229.0,-133.0,-163.0,-38.0,-206.0,0
-25.0,-233.0,-135.0,-150.0,-43.0,-207.0,0
-21.0,-236.0,-138.0,-130.0,-46.0,-206.0,0
-20.0,-235.0,-139.0,-105.0,-46.0,-212.0,0
-20.0,-237.0,-141.0,-76.0,-42.0,-217.0,0
-26.0,-238.0,-141.0,-45.0,-39.0,-223.0,0
-29.0,-241.0,-136.0,-4.0,-40.0,-221.0,0
-31.0,-244.0,-137.0,32.0,-45.0,-219.0,0
-28.0,-243.0,-136.0,69.0,-51.0,-217.0,0
-28.0,-244.0,-134.0,105.0,-57.0,-215.0,0
-28.0,-241.0,-140.0,134.0,-65.0,-203.0,0
-33.0,-241.0,-140.0,157.0,-64.0,-187.0,0
-33.0,-242.0,-137.0,177.0,-64.0,-171.0,0
-32.0,-240.0,-139.0,191.0,-67.0,-158.0,0
-35.0,-238.0,-137.0,202.0,-68.0,-149.0,0
-36.0,-233.0,-130.0,206.0,-66.0,-143.0,0
-32.0,-236.0,-127.0,206.0,-61.0,-136.0,0
-26.0,-231.0,-124.0,206.0,-53.0,-135.0,0
-25.0,-228.0,-119.0,204.0,-42.0,-133.0,0
-25.0,-223.0,-115.0,198.0,-25.0,-133.0,0
-25.0,-225.0,-113.0,187.0,-6.0,-136.0,0
-16.0,-223.0,-104.0,174.0,17.0,-141.0,0
-19.0,-219.0,-105.0,165.0,37.0,-151.0,0
-15.0,-214.0,-104.0,156.0,51.0,-165.0,0
-9.0,-214.0,-99.0,150.0,69.0,-182.0,0
-5.0,-210.0,-98.0,142.0,88.0,-207.0,0
-4.0,-210.0,-96.0,128.0,109.0,-227.0,0
3.0,-204.0,-90.0,110.0,132.0,-247.0,0
7.0,-205.0,-92.0,104.0,152.0,-265.0,0
12.0,-201.0,-86.0,102.0,171.0,-279.0,0
11.0,-200.0,-91.0,102.0,190.0,-295.0,0
15.0,-197.0,-85.0,97.0,205.0,-300.0,0
12.0,-200.0,-102.0,97.0,223.0,-308.0,0
17.0,-198.0,-88.0,95.0,238.0,-305.0,0
21.0,-201.0,-88.0,92.0,256.0,-286.0,0
26.0,-199.0,-91.0,96.0,273.0,-274.0,0
8.0,-201.0,-99.0,85.0,295.0,-268.0,0
10.0,-200.0,-99.0,51.0,304.0,-239.0,0
14.0,-204.0,-107.0,26.0,291.0,-211.0,0
23.0,-212.0,-114.0,-3.0,275.0,-177.0,0
28.0,-214.0,-124.0,-49.0,266.0,-148.0,0
35.0,-219.0,-127.0,-110.0,264.0,-124.0,0
28.0,-223.0,-132.0,-176.0,265.0,-96.0,0
28.0,-226.0,-134.0,-247.0,268.0,-68.0,0
34.0,-236.0,-133.0,-317.0,269.0,-41.0,0
33.0,-238.0,-139.0,-376.0,280.0,-16.0,0
35.0,-250.0,-137.0,-427.0,303.0,3.0,0
