ax,ay,az,gx,gy,gz,label
-2.0,-256.0,-27.0,49.0,11.0,16.0,0
-5.0,-257.0,-29.0,50.0,7.0,15.0,0
-3.0,-252.0,-30.0,47.0,4.0,14.0,0
-4.0,-254.0,-29.0,45.0,4.0,12.0,0
0.0,-253.0,-32.0,43.0,3.0,11.0,0
-7.0,-256.0,-30.0,44.0,4.0,10.0,0
-2.0,-253.0,-30.0,42.0,6.0,10.0,0
-7.0,-250.0,-28.0,42.0,8.0,8.0,0
-4.0,-253.0,-26.0,45.0,8.0,5.0,0
-1.0,-251.0,-26.0,46.0,6.0,1.0,0
-3.0,-250.0,-26.0,44.0,0.0,-3.0,0
-5.0,-248.0,-25.0,35.0,-6.0,-6.0,0
-3.0,-250.0,-24.0,23.0,-11.0,-9.0,0
-3.0,-249.0,-23.0,7.0,-17.0,-12.0,0
-3.0,-249.0,-20.0,-10.0,-22.0,-13.0,0
-4.0,-249.0,-24.0,-25.0,-26.0,-15.0,0
-3.0,-250.0,-24.0,-35.0,-31.0,-14.0,0
-7.0,-249.0,-28.0,-44.0,-33.0,-14.0,0
-5.0,-249.0,-26.0,-55.0,-38.0,-12.0,0
-5.0,-252.0,-28.0,-64.0,-42.0,-13.0,0
-7.0,-252.0,-26.0,-75.0,-42.0,-10.0,0
-4.0,-249.0,-28.0,-87.0,-42.0,-11.0,0
-10.0,-244.0,-30.0,-99.0,-39.0,-9.0,0
-10.0,-248.0,-30.0,-108.0,-39.0,-11.0,0
-7.0,-248.0,-34.0,-114.0,-38.0,-8.0,0
-6.0,-248.0,-34.0,-122.0,-36.0,-7.0,0
-8.0,-249.0,-37.0,-130.0,-39.0,-5.0,0
-5.0,-250.0,-34.0,-141.0,-43.0,-6.0,0
-5.0,-253.0,-35.0,-154.0,-47.0,-6.0,0
-4.0,-252.0,-38.0,-171.0,-49.0,-8.0,0
-5.0,-253.0,-35.0,-189.0,-50.0,-7.0,0
-4.0,-257.0,-39.0,-202.0,-48.0,-10.0,0
-6.0,-259.0,-36.0,-207.0,-42.0,-9.0,0
-5.0,-260.0,-38.0,-204.0,-34.0,-10.0,0
-10.0,-260.0,-35.0,-192.0,-28.0,-9.0,0
-7.0,-261.0,-33.0,-176.0,-22.0,-10.0,0
-8.0,-261.0,-38.0,-157.0,-15.0,-8.0,0
-8.0,-261.0,-34.0,-140.0,-10.0,-9.0,0
-8.0,-260.0,-28.0,-125.0,-11.0,-8.0,0
-6.0,-259.0,-27.0,-116.0,-17.0,-11.0,0
-5.0,-259.0,-33.0,-113.0,-23.0,-11.0,0
-8.0,-258.0,-31.0,-117.0,-28.0,-16.0,0
-5.0,-255.0,-33.0,-127.0,-32.0,-17.0,0
-8.0,-254.0,-33.0,-143.0,-34.0,-23.0,0
-9.0,-255.0,-32.0,-154.0,-34.0,-26.0,0
-11.0,-255.0,-33.0,-160.0,-32.0,-33.0,0
-10.0,-256.0,-30.0,-159.0,-31.0,-34.0,0
-9.0,-258.0,-28.0,-157.0,-29.0,-40.0,0
-10.0,-255.0,-29.0,-152.0,-31.0,-39.0,0
-9.0,-259.0,-33.0,-148.0,-30.0,-41.0,0
-11.0,-260.0,-29.0,-141.0,-32.0,-36.0,0
-9.0,-260.0,-26.0,-132.0,-31.0,-37.0,0
-12.0,-259.0,-30.0,-125.0,-32.0,-34.0,0
-12.0,-258.0,-28.0,-119.0,-34.0,-36.0,0
-11.0,-259.0,-29.0,-119.0,-33.0,-35.0,0
-10.0,-258.0,-27.0,-120.0,-35.0,-40.0,0
-11.0,-255.0,-27.0,-122.0,-37.0,-40.0,0
-11.0,-255.0,-27.0,-125.0,-33.0,-47.0,0
-11.0,-256.0,-27.0,-129.0,-30.0,-49.0,0
-10.0,-254.0,-32.0,-134.0,-28.0,-56.0,0
-8.0,-253.0,-32.0,-140.0,-27.0,-58.0,0
-7.0,-259.0,-28.0,-145.0,-27.0,-65.0,0
-10.0,-257.0,-27.0,-145.0,-30.0,-65.0,0
-8.0,-261.0,-21.0,-141.0,-36.0,-70.0,0
-7.0,-261.0,-24.0,-130.0,-42.0,-68.0,0
-7.0,-264.0,-24.0,-121.0,-45.0,-72.0,0
-10.0,-260.0,-29.0,-116.0,-43.0,-70.0,0
-8.0,-262.0,-28.0,-113.0,-36.0,-75.0,0
-6.0,-259.0,-34.0,-118.0,-31.0,-77.0,0
-6.0,-259.0,-34.0,-126.0,-22.0,-86.0,0
-6.0,-260.0,-34.0,-127.0,-18.0,-90.0,0
-7.0,-260.0,-33.0,-121.0,-15.0,-99.0,0
-7.0,-256.0,-31.0,-106.0,-15.0,-99.0,0
-8.0,-258.0,-34.0,-85.0,-19.0,-103.0,0
-7.0,-258.0,-34.0,-66.0,-26.0,-99.0,0
-6.0,-259.0,-36.0,-48.0,-34.0,-97.0,0
-9.0,-257.0,-31.0,-36.0,-42.0,-93.0,0
-7.0,-257.0,-32.0,-27.0,-49.0,-92.0,0
-5.0,-260.0,-32.0,-18.0,-57.0,-87.0,0
-4.0,-259.0,-32.0,-13.0,-60.0,-87.0,0
-3.0,-260.0,-35.0,-10.0,-62.0,-80.0,0
-5.0,-254.0,-38.0,-9.0,-61.0,-78.0,0
-1.0,-252.0,-40.0,-8.0,-62.0,-72.0,0
0.0,-248.0,-40.0,-8.0,-63.0,-68.0,0
4.0,-246.0,-41.0,-9.0,-63.0,-59.0,0
-1.0,-247.0,-40.0,-13.0,-60.0,-53.0,0
1.0,-241.0,-45.0,-21.0,-54.0,-40.0,0
7.0,-241.0,-43.0,-32.0,-44.0,-34.0,0
6.0,-236.0,-49.0,-45.0,-33.0,-21.0,0
10.0,-237.0,-46.0,-59.0,-17.0,-12.0,0
15.0,-234.0,-46.0,-71.0,3.0,0.0,0
19.0,-232.0,-41.0,-80.0,28.0,8.0,0
26.0,-232.0,-42.0,-85.0,60.0,15.0,0
30.0,-234.0,-36.0,-81.0,93.0,17.0,0
33.0,-233.0,-39.0,-70.0,127.0,19.0,0
30.0,-235.0,-40.0,-57.0,156.0,20.0,0
23.0,-233.0,-38.0,-49.0,175.0,27.0,0
22.0,-238.0,-36.0,-48.0,195.0,31.0,0
19.0,-244.0,-30.0,-47.0,211.0,39.0,0
15.0,-252.0,-28.0,-40.0,222.0,43.0,0
12.0,-259.0,-23.0,-29.0,229.0,49.0,0
9.0,-262.0,-20.0,-18.0,232.0,49.0,0
4.0,-269.0,-16.0,-4.0,231.0,49.0,0
6.0,-273.0,-17.0,10.0,232.0,45.0,0
4.0,-275.0,-18.0,21.0,235.0,37.0,0
4.0,-273.0,-19.0,33.0,237.0,20.0,0
3.0,-267.0,-19.0,34.0,246.0,3.0,0
6.0,-262.0,-28.0,22.0,254.0,-20.0,0
5.0,-258.0,-32.0,2.0,265.0,-36.0,0
4.0,-253.0,-32.0,-19.0,271.0,-50.0,0
4.0,-252.0,-29.0,-36.0,273.0,-56.0,0
-1.0,-250.0,-21.0,-44.0,270.0,-56.0,0
-6.0,-253.0,-20.0,-49.0,264.0,-54.0,0
-11.0,-252.0,-17.0,-52.0,254.0,-52.0,0
-12.0,-256.0,-16.0,-59.0,244.0,-52.0,0
-12.0,-259.0,-11.0,-65.0,228.0,-54.0,0
-16.0,-260.0,-10.0,-72.0,203.0,-62.0,0
-14.0,-264.0,-10.0,-75.0,174.0,-74.0,0
-17.0,-267.0,-8.0,-76.0,137.0,-86.0,0
-14.0,-270.0,-11.0,-74.0,94.0,-98.0,0
-11.0,-275.0,-11.0,-68.0,49.0,-108.0,0
-12.0,-274.0,-13.0,-63.0,5.0,-120.0,0
-3.0,-274.0,-18.0,-58.0,-35.0,-131.0,0
2.0,-275.0,-17.0,-54.0,-67.0,-141.0,0
4.0,-270.0,-24.0,-49.0,-92.0,-152.0,0
11.0,-270.0,-25.0,-41.0,-108.0,-160.0,0
10.0,-267.0,-26.0,-33.0,-115.0,-170.0,0
18.0,-265.0,-33.0,-24.0,-117.0,-179.0,0
20.0,-261.0,-28.0,-17.0,-112.0,-186.0,0
23.0,-259.0,-26.0,-7.0,-104.0,-191.0,0
23.0,-256.0,-26.0,1.0,-99.0,-194.0,0
21.0,-254.0,-22.0,10.0,-97.0,-197.0,0
21.0,-251.0,-21.0,19.0,-91.0,-200.0,0
21.0,-249.0,-21.0,26.0,-86.0,-199.0,0
21.0,-244.0,-23.0,28.0,-80.0,-199.0,0
20.0,-247.0,-23.0,24.0,-76.0,-200.0,0
18.0,-245.0,-21.0,15.0,-74.0,-197.0,0
16.0,-245.0,-22.0,5.0,-72.0,-191.0,0
17.0,-245.0,-22.0,-7.0,-71.0,-184.0,0
14.0,-242.0,-21.0,-13.0,-71.0,-178.0,0
16.0,-245.0,-16.0,-16.0,-68.0,-173.0,0
17.0,-249.0,-15.0,-13.0,-64.0,-168.0,0
18.0,-249.0,-14.0,-8.0,-59.0,-163.0,0
16.0,-248.0,-13.0,1.0,-54.0,-154.0,0
15.0,-246.0,-11.0,7.0,-47.0,-150.0,0
17.0,-246.0,-12.0,11.0,-40.0,-141.0,0
16.0,-248.0,-13.0,11.0,-36.0,-135.0,0
16.0,-248.0,-4.0,9.0,-29.0,-129.0,0
20.0,-249.0,-14.0,6.0,-19.0,-125.0,0
16.0,-248.0,-7.0,3.0,-10.0,-120.0,0
17.0,-246.0,-4.0,5.0,0.0,-115.0,0
15.0,-249.0,-8.0,8.0,7.0,-109.0,0
15.0,-244.0,-5.0,12.0,12.0,-106.0,0
14.0,-242.0,-7.0,17.0,17.0,-97.0,0
14.0,-239.0,-4.0,18.0,18.0,-90.0,0
16.0,-238.0,-2.0,17.0,17.0,-79.0,0
12.0,-240.0,-6.0,13.0,18.0,-73.0,0
12.0,-239.0,-4.0,6.0,16.0,-62.0,0
15.0,-241.0,-7.0,-2.0,16.0,-57.0,0
13.0,-242.0,-7.0,-13.0,13.0,-49.0,0
15.0,-242.0,-2.0,-23.0,7.0,-45.0,0
14.0,-245.0,-1.0,-31.0,-1.0,-37.0,0
14.0,-245.0,-2.0,-40.0,-9.0,-32.0,0
10.0,-246.0,-2.0,-49.0,-19.0,-24.0,0
7.0,-247.0,-2.0,-55.0,-32.0,-16.0,0
10.0,-249.0,5.0,-61.0,-42.0,-4.0,0
4.0,-248.0,0.0,-61.0,-51.0,3.0,0
3.0,-250.0,-2.0,-58.0,-62.0,16.0,0
3.0,-252.0,-3.0,-50.0,-73.0,21.0,0
2.0,-253.0,2.0,-44.0,-87.0,34.0,0
4.0,-253.0,1.0,-33.0,-100.0,42.0,0
2.0,-254.0,4.0,-25.0,-109.0,52.0,0
3.0,-252.0,6.0,-17.0,-118.0,58.0,0
6.0,-253.0,5.0,-7.0,-125.0,67.0,0
4.0,-253.0,9.0,6.0,-133.0,74.0,0
5.0,-249.0,8.0,13.0,-141.0,84.0,0
7.0,-250.0,9.0,18.0,-150.0,87.0,0
7.0,-245.0,8.0,20.0,-157.0,96.0,0
6.0,-247.0,7.0,20.0,-165.0,99.0,0
11.0,-245.0,4.0,14.0,-174.0,107.0,0
11.0,-246.0,8.0,4.0,-180.0,110.0,0
11.0,-248.0,6.0,-10.0,-186.0,117.0,0
13.0,-247.0,6.0,-27.0,-192.0,118.0,0
12.0,-252.0,3.0,-45.0,-197.0,126.0,0
15.0,-255.0,2.0,-62.0,-200.0,128.0,0
16.0,-260.0,2.0,-72.0,-203.0,137.0,0
12.0,-263.0,0.0,-75.0,-204.0,139.0,0
15.0,-265.0,0.0,-70.0,-203.0,145.0,0
14.0,-269.0,2.0,-54.0,-197.0,145.0,0
16.0,-271.0,1.0,-35.0,-192.0,151.0,0
12.0,-269.0,-1.0,-7.0,-184.0,151.0,0
15.0,-271.0,-2.0,19.0,-177.0,154.0,0
13.0,-271.0,5.0,47.0,-172.0,150.0,0
9.0,-270.0,4.0,78.0,-171.0,149.0,0
8.0,-268.0,8.0,107.0,-175.0,142.0,0
6.0,-265.0,10.0,139.0,-184.0,140.0,0
3.0,-265.0,15.0,167.0,-196.0,135.0,0
6.0,-264.0,15.0,192.0,-208.0,133.0,0
4.0,-263.0,12.0,213.0,-219.0,125.0,0
2.0,-263.0,14.0,223.0,-227.0,120.0,0
3.0,-260.0,12.0,224.0,-243.0,109.0,0
5.0,-261.0,10.0,214.0,-258.0,103.0,0
2.0,-261.0,12.0,197.0,-276.0,92.0,0
7.0,-262.0,13.0,178.0,-295.0,86.0,0
11.0,-267.0,9.0,156.0,-311.0,71.0,0
10.0,-276.0,8.0,127.0,-325.0,57.0,0
12.0,-288.0,6.0,93.0,-339.0,34.0,0
11.0,-298.0,7.0,55.0,-349.0,12.0,0
11.0,-311.0,-5.0,16.0,-357.0,-19.0,0
15.0,-325.0,-10.0,-19.0,-362.0,-46.0,0
12.0,-328.0,-16.0,-50.0,-365.0,-83.0,0
13.0,-336.0,-24.0,-76.0,-366.0,-113.0,0
14.0,-345.0,-30.0,-87.0,-365.0,-147.0,0
21.0,-359.0,-43.0,-84.0,-359.0,-177.0,0
25.0,-358.0,-52.0,-73.0,-337.0,-219.0,0
32.0,-362.0,-61.0,-59.0,-292.0,-264.0,0
33.0,-359.0,-68.0,-47.0,-226.0,-322.0,0
31.0,-346.0,-69.0,-31.0,-141.0,-373.0,0
26.0,-336.0,-67.0,10.0,-48.0,-415.0,0
20.0,-315.0,-62.0,84.0,39.0,-439.0,0
18.0,-289.0,-55.0,178.0,114.0,-453.0,0
18.0,-268.0,-52.0,271.0,197.0,-450.0,0
17.0,-246.0,-53.0,347.0,259.0,-440.0,0
18.0,-222.0,-50.0,369.0,308.0,-415.0,0
14.0,-202.0,-54.0,351.0,348.0,-390.0,0
14.0,-192.0,-52.0,300.0,375.0,-358.0,0
13.0,-182.0,-52.0,221.0,391.0,-326.0,0
12.0,-178.0,-54.0,125.0,396.0,-289.0,0
12.0,-176.0,-52.0,22.0,390.0,-255.0,0
12.0,-181.0,-45.0,-80.0,370.0,-214.0,0
10.0,-184.0,-50.0,-172.0,334.0,-173.0,0
11.0,-190.0,-50.0,-248.0,280.0,-121.0,0
11.0,-196.0,-56.0,-317.0,197.0,-81.0,0
14.0,-203.0,-60.0,-356.0,121.0,-38.0,0
14.0,-208.0,-60.0,-378.0,48.0,2.0,0
12.0,-210.0,-61.0,-383.0,-15.0,42.0,0
10.0,-217.0,-68.0,-374.0,-69.0,76.0,0
10.0,-223.0,-71.0,-353.0,-114.0,109.0,0
8.0,-229.0,-76.0,-322.0,-150.0,137.0,0
5.0,-230.0,-77.0,-288.0,-176.0,158.0,0
4.0,-238.0,-82.0,-257.0,-188.0,165.0,0
2.0,-246.0,-84.0,-228.0,-187.0,163.0,0
1.0,-248.0,-86.0,-203.0,-170.0,151.0,0
-4.0,-249.0,-93.0,-169.0,-146.0,134.0,0
-7.0,-250.0,-95.0,-135.0,-118.0,112.0,0
-9.0,-253.0,-97.0,-93.0,-91.0,92.0,0
-12.0,-254.0,-97.0,-43.0,-63.0,73.0,0
-12.0,-253.0,-99.0,7.0,-36.0,55.0,0
-14.0,-254.0,-92.0,56.0,-7.0,41.0,0
-15.0,-255.0,-93.0,102.0,24.0,28.0,0
-15.0,-256.0,-88.0,141.0,54.0,19.0,0
-12.0,-258.0,-84.0,178.0,83.0,11.0,0
-12.0,-261.0,-75.0,209.0,107.0,7.0,0
-10.0,-262.0,-73.0,247.0,129.0,12.0,0
-12.0,-264.0,-72.0,274.0,142.0,19.0,0
-9.0,-263.0,-66.0,300.0,150.0,31.0,0
-6.0,-265.0,-65.0,320.0,154.0,46.0,0
-7.0,-261.0,-58.0,328.0,158.0,64.0,0
-5.0,-259.0,-59.0,328.0,159.0,87.0,0
-4.0,-256.0,-55.0,318.0,160.0,110.0,0
-2.0,-258.0,-53.0,296.0,161.0,136.0,0
2.0,-252.0,-47.0,265.0,164.0,162.0,0
4.0,-255.0,-42.0,228.0,167.0,189.0,0
5.0,-259.0,-42.0,188.0,176.0,223.0,0
10.0,-262.0,-38.0,137.0,185.0,248.0,0
13.0,-266.0,-40.0,98.0,199.0,270.0,0
14.0,-269.0,-36.0,66.0,213.0,288.0,0
19.0,-274.0,-35.0,40.0,225.0,303.0,0
18.0,-271.0,-33.0,26.0,238.0,315.0,0
23.0,-271.0,-36.0,21.0,252.0,324.0,0
24.0,-267.0,-37.0,19.0,267.0,332.0,0
24.0,-262.0,-41.0,17.0,282.0,337.0,0
24.0,-256.0,-36.0,15.0,297.0,345.0,0
19.0,-249.0,-44.0,8.0,310.0,352.0,0
20.0,-237.0,-41.0,-2.0,327.0,359.0,0
15.0,-231.0,-40.0,-14.0,340.0,362.0,0
12.0,-222.0,-41.0,-31.0,353.0,366.0,0
5.0,-212.0,-35.0,-52.0,365.0,368.0,0
1.0,-209.0,-43.0,-79.0,377.0,369.0,0
-2.0,-209.0,-34.0,-111.0,388.0,364.0,0
-6.0,-208.0,-37.0,-147.0,399.0,361.0,0
-11.0,-212.0,-31.0,-183.0,407.0,353.0,0
-13.0,-209.0,-31.0,-217.0,414.0,345.0,0
-12.0,-218.0,-28.0,-248.0,418.0,332.0,0
-17.0,-220.0,-25.0,-272.0,422.0,317.0,0
-21.0,-225.0,-28.0,-295.0,423.0,301.0,0
-20.0,-231.0,-29.0,-307.0,421.0,289.0,0
-21.0,-236.0,-29.0,-312.0,416.0,277.0,0
-21.0,-240.0,-28.0,-313.0,409.0,270.0,0
-17.0,-244.0,-30.0,-303.0,404.0,262.0,0
-15.0,-251.0,-29.0,-288.0,399.0,257.0,0
-20.0,-251.0,-33.0,-269.0,395.0,249.0,0
-20.0,-254.0,-30.0,-243.0,387.0,240.0,0
-16.0,-255.0,-29.0,-206.0,378.0,225.0,0
-21.0,-250.0,-26.0,-166.0,368.0,215.0,0
-24.0,-247.0,-30.0,-114.0,357.0,207.0,0
-24.0,-245.0,-25.0,-74.0,348.0,202.0,0
-23.0,-243.0,-27.0,-48.0,339.0,188.0,0
-25.0,-240.0,-24.0,-34.0,331.0,179.0,0
-25.0,-242.0,-22.0,-27.0,321.0,167.0,0
-25.0,-240.0,-23.0,-24.0,308.0,157.0,0
-29.0,-243.0,-20.0,-24.0,297.0,144.0,0
-25.0,-245.0,-18.0,-28.0,286.0,134.0,0
-28.0,-247.0,-14.0,-36.0,279.0,121.0,0
-25.0,-249.0,-17.0,-42.0,274.0,111.0,0
-27.0,-250.0,-18.0,-44.0,272.0,98.0,0
-28.0,-253.0,-12.0,-42.0,271.0,89.0,0
-27.0,-253.0,-5.0,-33.0,272.0,76.0,0
-27.0,-253.0,-3.0,-23.0,273.0,70.0,0
-25.0,-249.0,-2.0,-13.0,274.0,58.0,0
-26.0,-248.0,1.0,-8.0,278.0,50.0,0
-24.0,-244.0,6.0,-1.0,280.0,39.0,0
-21.0,-244.0,1.0,2.0,281.0,31.0,0
-23.0,-241.0,5.0,2.0,281.0,18.0,0
-22.0,-235.0,3.0,-5.0,281.0,11.0,0
-24.0,-234.0,7.0,-13.0,278.0,-3.0,0
-19.0,-231.0,5.0,-31.0,278.0,-9.0,0
-22.0,-229.0,3.0,-49.0,278.0,-20.0,0
-22.0,-227.0,1.0,-70.0,280.0,-23.0,0
-20.0,-229.0,1.0,-92.0,284.0,-33.0,0
-20.0,-231.0,1.0,-115.0,292.0,-39.0,0
-20.0,-231.0,4.0,-136.0,300.0,-49.0,0
-19.0,-233.0,7.0,-154.0,306.0,-53.0,0
-18.0,-234.0,-1.0,-165.0,312.0,-64.0,0
-16.0,-238.0,-2.0,-176.0,317.0,-68.0,0
-18.0,-242.0,-5.0,-188.0,323.0,-73.0,0
-17.0,-246.0,-6.0,-198.0,330.0,-75.0,0
-12.0,-250.0,-7.0,-208.0,337.0,-79.0,0
-12.0,-258.0,-7.0,-206.0,343.0,-80.0,0
-26.0,-260.0,-20.0,-195.0,350.0,-84.0,0
-31.0,-265.0,-14.0,-171.0,352.0,-78.0,0
-19.0,-265.0,-9.0,-143.0,353.0,-76.0,0
-24.0,-284.0,-14.0,-109.0,353.0,-67.0,0
-21.0,-272.0,-1.0,-72.0,348.0,-67.0,0
-28.0,-274.0,-7.0,-29.0,339.0,-64.0,0
-28.0,-281.0,-2.0,19.0,322.0,-68.0,0
-32.0,-295.0,-11.0,73.0,292.0,-66.0,0
-32.0,-284.0,-4.0,138.0,264.0,-66.0,0
-41.0,-272.0,-8.0,183.0,238.0,-60.0,0
-43.0,-283.0,-8.0,219.0,216.0,-58.0,0
-45.0,-284.0,-12.0,244.0,200.0,-54.0,0
-47.0,-285.0,-11.0,263.0,189.0,-52.0,0
-43.0,-288.0,-2.0,280.0,184.0,-47.0,0
-42.0,-292.0,-3.0,300.0,182.0,-46.0,0
-39.0,-292.0,8.0,327.0,182.0,-38.0,0
-42.0,-295.0,10.0,364.0,184.0,-32.0,0
-39.0,-298.0,15.0,406.0,186.0,-15.0,0
-36.0,-298.0,18.0,457.0,188.0,-3.0,0
-35.0,-296.0,18.0,494.0,190.0,16.0,0
-35.0,-294.0,11.0,518.0,192.0,27.0,0
-31.0,-290.0,9.0,526.0,195.0,43.0,0
-29.0,-285.0,9.0,509.0,201.0,54.0,0
-27.0,-291.0,1.0,463.0,210.0,72.0,0
-20.0,-297.0,-9.0,382.0,224.0,88.0,0
-14.0,-303.0,-21.0,265.0,236.0,110.0,0
-12.0,-315.0,-30.0,123.0,244.0,128.0,0
-14.0,-326.0,-35.0,-27.0,238.0,151.0,0
-19.0,-337.0,-36.0,-162.0,199.0,181.0,0
-19.0,-345.0,-42.0,-278.0,147.0,218.0,0
-25.0,-349.0,-44.0,-318.0,90.0,269.0,0
-32.0,-354.0,-45.0,-305.0,26.0,335.0,0
-33.0,-353.0,-51.0,-261.0,-36.0,396.0,0
-25.0,-347.0,-55.0,-213.0,-91.0,454.0,0
-17.0,-340.0,-46.0,-173.0,-129.0,492.0,0
-11.0,-328.0,-41.0,-130.0,-140.0,515.0,0
-3.0,-319.0,-34.0,-71.0,-124.0,511.0,0
0.0,-307.0,-33.0,15.0,-87.0,489.0,0
7.0,-295.0,-34.0,121.0,-32.0,446.0,0
15.0,-272.0,-43.0,252.0,47.0,374.0,0
21.0,-253.0,-54.0,345.0,122.0,304.0,0
32.0,-231.0,-64.0,401.0,210.0,239.0,0
37.0,-213.0,-74.0,417.0,306.0,177.0,0
42.0,-198.0,-84.0,393.0,410.0,120.0,0
42.0,-188.0,-86.0,344.0,522.0,69.0,0
44.0,-184.0,-88.0,279.0,646.0,31.0,0
41.0,-182.0,-91.0,216.0,769.0,5.0,0
36.0,-181.0,-87.0,161.0,883.0,-12.0,0
34.0,-184.0,-85.0,124.0,973.0,-22.0,0
27.0,-191.0,-82.0,101.0,1043.0,-22.0,0
20.0,-195.0,-79.0,87.0,1065.0,-18.0,0
10.0,-199.0,-73.0,79.0,1054.0,-6.0,0
7.0,-206.0,-73.0,74.0,1014.0,6.0,0
4.0,-213.0,-69.0,72.0,961.0,17.0,0
-1.0,-213.0,-70.0,72.0,907.0,19.0,0
-1.0,-218.0,-74.0,71.0,852.0,20.0,0
-2.0,-223.0,-74.0,72.0,798.0,15.0,0
-6.0,-219.0,-73.0,71.0,741.0,12.0,0
-6.0,-217.0,-78.0,65.0,679.0,9.0,0
-6.0,-220.0,-77.0,56.0,617.0,10.0,0
-8.0,-215.0,-84.0,40.0,546.0,8.0,0
-3.0,-219.0,-78.0,18.0,491.0,7.0,0
-4.0,-224.0,-77.0,-5.0,446.0,3.0,0
-3.0,-224.0,-75.0,-28.0,413.0,-3.0,0
-4.0,-228.0,-68.0,-48.0,386.0,-14.0,0
-8.0,-237.0,-67.0,-61.0,367.0,-29.0,0
-7.0,-248.0,-62.0,-64.0,354.0,-47.0,0
-10.0,-254.0,-59.0,-56.0,342.0,-68.0,0
-14.0,-260.0,-58.0,-36.0,329.0,-92.0,0
-14.0,-262.0,-58.0,-15.0,311.0,-120.0,0
-19.0,-266.0,-56.0,10.0,281.0,-152.0,0
-21.0,-271.0,-60.0,36.0,251.0,-177.0,0
-20.0,-271.0,-56.0,54.0,220.0,-201.0,0
-20.0,-271.0,-60.0,65.0,190.0,-227.0,0
-17.0,-267.0,-66.0,69.0,165.0,-249.0,0
-14.0,-263.0,-66.0,66.0,143.0,-269.0,0
-14.0,-261.0,-66.0,56.0,124.0,-282.0,0
-11.0,-257.0,-70.0,43.0,108.0,-294.0,0
-12.0,-255.0,-66.0,30.0,93.0,-298.0,0
-11.0,-250.0,-65.0,18.0,79.0,-299.0,0
-8.0,-246.0,-56.0,9.0,58.0,-298.0,0
-6.0,-244.0,-50.0,-2.0,41.0,-299.0,0
-4.0,-237.0,-46.0,-14.0,26.0,-301.0,0
-1.0,-240.0,-40.0,-27.0,18.0,-307.0,0
2.0,-236.0,-40.0,-43.0,15.0,-311.0,0
6.0,-236.0,-33.0,-60.0,20.0,-316.0,0
14.0,-236.0,-36.0,-76.0,26.0,-322.0,0
15.0,-237.0,-38.0,-92.0,32.0,-328.0,0
19.0,-239.0,-31.0,-107.0,39.0,-330.0,0
20.0,-237.0,-34.0,-123.0,45.0,-333.0,0
23.0,-240.0,-34.0,-135.0,50.0,-329.0,0
24.0,-238.0,-36.0,-146.0,56.0,-324.0,0
25.0,-243.0,-30.0,-149.0,63.0,-318.0,0
22.0,-243.0,-30.0,-147.0,68.0,-311.0,0
17.0,-242.0,-29.0,-141.0,68.0,-301.0,0
13.0,-243.0,-25.0,-128.0,63.0,-292.0,0
13.0,-242.0,-25.0,-114.0,57.0,-282.0,0
8.0,-238.0,-27.0,-102.0,50.0,-273.0,0
2.0,-231.0,-26.0,-93.0,44.0,-262.0,0
-4.0,-227.0,-24.0,-89.0,38.0,-257.0,0
-2.0,-230.0,-20.0,-92.0,28.0,-249.0,0
-5.0,-226.0,-27.0,-109.0,13.0,-246.0,0
-8.0,-225.0,-23.0,-131.0,-8.0,-238.0,0
-11.0,-222.0,-27.0,-148.0,-32.0,-233.0,0
-8.0,-225.0,-20.0,-161.0,-56.0,-222.0,0
-10.0,-224.0,-21.0,-170.0,-82.0,-212.0,0
-9.0,-228.0,-21.0,-177.0,-110.0,-196.0,0
-11.0,-227.0,-22.0,-181.0,-142.0,-180.0,0
-9.0,-230.0,-21.0,-185.0,-174.0,-161.0,0
-7.0,-238.0,-21.0,-192.0,-208.0,-148.0,0
-7.0,-239.0,-17.0,-200.0,-238.0,-132.0,0
-5.0,-242.0,-20.0,-208.0,-272.0,-121.0,0
-5.0,-247.0,-17.0,-206.0,-298.0,-108.0,0
-3.0,-249.0,-15.0,-193.0,-323.0,-99.0,0
1.0,-249.0,-12.0,-173.0,-343.0,-87.0,0
2.0,-251.0,-12.0,-145.0,-364.0,-78.0,0
2.0,-251.0,-11.0,-116.0,-384.0,-67.0,0
0.0,-247.0,-16.0,-87.0,-402.0,-59.0,0
4.0,-249.0,-8.0,-64.0,-423.0,-49.0,0
4.0,-246.0,-6.0,-45.0,-443.0,-41.0,0
5.0,-245.0,-5.0,-31.0,-466.0,-29.0,0
6.0,-245.0,-6.0,-21.0,-487.0,-21.0,0
3.0,-242.0,-2.0,-15.0,-506.0,-9.0,0
3.0,-243.0,1.0,-10.0,-517.0,-2.0,0
3.0,-244.0,2.0,-6.0,-525.0,10.0,0
4.0,-245.0,4.0,-3.0,-529.0,18.0,0
2.0,-241.0,0.0,-2.0,-532.0,28.0,0
8.0,-244.0,1.0,2.0,-536.0,35.0,0
7.0,-247.0,9.0,5.0,-540.0,45.0,0
8.0,-245.0,9.0,10.0,-545.0,53.0,0
9.0,-251.0,10.0,16.0,-551.0,64.0,0
12.0,-250.0,10.0,22.0,-559.0,71.0,0
14.0,-249.0,11.0,31.0,-564.0,85.0,0
14.0,-251.0,10.0,42.0,-565.0,93.0,0
18.0,-254.0,15.0,49.0,-564.0,104.0,0
21.0,-254.0,12.0,52.0,-563.0,110.0,0
21.0,-257.0,10.0,53.0,-561.0,120.0,0
22.0,-255.0,10.0,51.0,-557.0,124.0,0
24.0,-259.0,6.0,46.0,-551.0,136.0,0
29.0,-258.0,7.0,39.0,-537.0,141.0,0
32.0,-261.0,6.0,32.0,-520.0,149.0,0
37.0,-266.0,0.0,28.0,-499.0,150.0,0
36.0,-267.0,-4.0,22.0,-478.0,150.0,0
36.0,-271.0,-6.0,12.0,-453.0,144.0,0
37.0,-274.0,-8.0,0.0,-435.0,138.0,0
30.0,-275.0,-5.0,-8.0,-422.0,125.0,0
27.0,-284.0,3.0,-10.0,-415.0,118.0,0
22.0,-285.0,8.0,5.0,-413.0,107.0,0
16.0,-292.0,12.0,39.0,-410.0,102.0,0
10.0,-292.0,19.0,91.0,-410.0,91.0,0
6.0,-295.0,26.0,154.0,-408.0,83.0,0
6.0,-296.0,22.0,217.0,-406.0,65.0,0
15.0,-289.0,27.0,275.0,-404.0,45.0,0
2.0,-286.0,29.0,331.0,-403.0,23.0,0
1.0,-279.0,32.0,364.0,-406.0,8.0,0
5.0,-274.0,37.0,387.0,-415.0,-9.0,0
6.0,-270.0,36.0,399.0,-430.0,-15.0,0
3.0,-260.0,43.0,404.0,-450.0,-21.0,0
-1.0,-255.0,49.0,401.0,-474.0,-15.0,0
2.0,-253.0,55.0,385.0,-505.0,-7.0,0
5.0,-250.0,58.0,364.0,-537.0,8.0,0
7.0,-256.0,54.0,329.0,-559.0,14.0,0
10.0,-260.0,49.0,277.0,-567.0,14.0,0
10.0,-269.0,46.0,202.0,-564.0,3.0,0
11.0,-279.0,42.0,96.0,-560.0,-5.0,0
6.0,-293.0,43.0,7.0,-557.0,-22.0,0
5.0,-313.0,40.0,-67.0,-564.0,-42.0,0
-3.0,-328.0,29.0,-120.0,-578.0,-68.0,0
-5.0,-340.0,19.0,-149.0,-601.0,-87.0,0
-6.0,-349.0,2.0,-158.0,-627.0,-109.0,0
-6.0,-354.0,-12.0,-151.0,-646.0,-127.0,0
2.0,-361.0,-36.0,-138.0,-651.0,-151.0,0
15.0,-369.0,-59.0,-133.0,-627.0,-186.0,0
36.0,-375.0,-91.0,-147.0,-564.0,-255.0,0
50.0,-373.0,-120.0,-202.0,-422.0,-343.0,0
61.0,-371.0,-135.0,-264.0,-253.0,-456.0,0
65.0,-361.0,-137.0,-296.0,-64.0,-565.0,0
63.0,-350.0,-128.0,-265.0,109.0,-660.0,0
56.0,-335.0,-122.0,-165.0,238.0,-728.0,0
52.0,-315.0,-114.0,-28.0,323.0,-772.0,0
42.0,-291.0,-107.0,112.0,372.0,-783.0,0
25.0,-263.0,-100.0,224.0,383.0,-774.0,0
10.0,-242.0,-90.0,297.0,355.0,-734.0,0
-5.0,-222.0,-85.0,330.0,294.0,-655.0,0
-12.0,-201.0,-73.0,331.0,190.0,-568.0,0
-25.0,-200.0,-72.0,310.0,92.0,-475.0,0
-40.0,-191.0,-68.0,279.0,-18.0,-373.0,0
-48.0,-189.0,-71.0,246.0,-130.0,-268.0,0
-53.0,-186.0,-74.0,214.0,-248.0,-165.0,0
-59.0,-185.0,-81.0,184.0,-361.0,-72.0,0
-58.0,-188.0,-82.0,160.0,-463.0,16.0,0
-56.0,-197.0,-81.0,143.0,-542.0,90.0,0
-45.0,-206.0,-83.0,140.0,-595.0,151.0,0
-32.0,-215.0,-83.0,141.0,-625.0,194.0,0
-21.0,-229.0,-78.0,148.0,-634.0,227.0,0
-11.0,-239.0,-73.0,166.0,-617.0,235.0,0
1.0,-246.0,-66.0,189.0,-580.0,231.0,0
14.0,-254.0,-66.0,223.0,-528.0,215.0,0
26.0,-256.0,-62.0,272.0,-463.0,191.0,0
40.0,-257.0,-62.0,328.0,-385.0,158.0,0
42.0,-245.0,-59.0,383.0,-295.0,123.0,0
45.0,-238.0,-65.0,431.0,-203.0,86.0,0
49.0,-225.0,-63.0,463.0,-110.0,54.0,0
46.0,-213.0,-67.0,471.0,-17.0,29.0,0
46.0,-206.0,-65.0,453.0,72.0,11.0,0
43.0,-199.0,-68.0,401.0,171.0,10.0,0
38.0,-195.0,-63.0,340.0,241.0,23.0,0
34.0,-198.0,-59.0,265.0,300.0,47.0,0
30.0,-210.0,-57.0,183.0,348.0,76.0,0
27.0,-217.0,-55.0,103.0,388.0,108.0,0
24.0,-230.0,-50.0,29.0,417.0,136.0,0
15.0,-240.0,-51.0,-30.0,433.0,165.0,0
10.0,-250.0,-49.0,-67.0,441.0,190.0,0
6.0,-258.0,-50.0,-83.0,440.0,215.0,0
-3.0,-263.0,-48.0,-80.0,436.0,233.0,0
-4.0,-268.0,-49.0,-63.0,436.0,255.0,0
-9.0,-269.0,-46.0,-30.0,437.0,271.0,0
-13.0,-268.0,-46.0,3.0,444.0,281.0,0
-12.0,-267.0,-41.0,36.0,454.0,287.0,0
-14.0,-263.0,-38.0,67.0,467.0,289.0,0
-15.0,-265.0,-35.0,91.0,479.0,285.0,0
-15.0,-259.0,-31.0,110.0,482.0,279.0,0
-12.0,-257.0,-30.0,126.0,479.0,270.0,0
-12.0,-249.0,-27.0,131.0,471.0,263.0,0
-11.0,-245.0,-29.0,126.0,459.0,253.0,0
-9.0,-241.0,-31.0,112.0,448.0,244.0,0
-12.0,-233.0,-31.0,89.0,437.0,234.0,0
-12.0,-230.0,-33.0,66.0,431.0,229.0,0
-12.0,-228.0,-35.0,34.0,431.0,227.0,0
-13.0,-228.0,-33.0,0.0,439.0,233.0,0
-17.0,-228.0,-30.0,-36.0,450.0,242.0,0
-17.0,-227.0,-34.0,-75.0,457.0,255.0,0
-21.0,-230.0,-26.0,-109.0,454.0,266.0,0
-23.0,-234.0,-29.0,-143.0,448.0,278.0,0
-28.0,-236.0,-26.0,-166.0,433.0,288.0,0
-29.0,-240.0,-27.0,-181.0,414.0,298.0,0
-36.0,-240.0,-22.0,-183.0,391.0,300.0,0
-37.0,-242.0,-28.0,-176.0,379.0,298.0,0
-40.0,-239.0,-27.0,-169.0,369.0,290.0,0
-40.0,-241.0,-25.0,-167.0,353.0,285.0,0
-40.0,-239.0,-24.0,-165.0,337.0,267.0,0
-36.0,-241.0,-23.0,-162.0,325.0,247.0,0
-35.0,-239.0,-21.0,-159.0,314.0,222.0,0
-29.0,-239.0,-16.0,-157.0,306.0,199.0,0
-25.0,-245.0,-15.0,-148.0,304.0,175.0,0
-18.0,-245.0,-13.0,-143.0,306.0,153.0,0
-13.0,-249.0,-10.0,-135.0,310.0,127.0,0
-11.0,-250.0,-14.0,-121.0,313.0,112.0,0
-12.0,-251.0,-13.0,-105.0,318.0,93.0,0
-13.0,-250.0,-10.0,-82.0,326.0,82.0,0
-12.0,-253.0,-9.0,-53.0,337.0,71.0,0
-11.0,-253.0,-7.0,-25.0,349.0,66.0,0
-11.0,-250.0,-4.0,4.0,359.0,59.0,0
-12.0,-246.0,2.0,34.0,367.0,54.0,0
-9.0,-245.0,0.0,59.0,369.0,45.0,0
-11.0,-246.0,9.0,81.0,371.0,39.0,0
-12.0,-241.0,7.0,103.0,368.0,29.0,0
-12.0,-239.0,9.0,125.0,365.0,22.0,0
-12.0,-231.0,14.0,141.0,360.0,13.0,0
-12.0,-228.0,14.0,147.0,354.0,7.0,0
-14.0,-227.0,21.0,147.0,348.0,-5.0,0
-14.0,-220.0,21.0,140.0,342.0,-14.0,0
-12.0,-218.0,21.0,126.0,336.0,-28.0,0
-11.0,-218.0,25.0,105.0,332.0,-36.0,0
-10.0,-216.0,28.0,78.0,328.0,-50.0,0
-12.0,-218.0,27.0,50.0,326.0,-59.0,0
-8.0,-220.0,28.0,24.0,323.0,-71.0,0
-8.0,-223.0,27.0,-3.0,325.0,-79.0,0
-10.0,-226.0,26.0,-21.0,332.0,-93.0,0
-8.0,-230.0,28.0,-36.0,343.0,-103.0,0
-7.0,-235.0,32.0,-45.0,356.0,-119.0,0
-11.0,-238.0,29.0,-53.0,368.0,-129.0,0
-12.0,-243.0,26.0,-55.0,375.0,-144.0,0
-17.0,-247.0,30.0,-56.0,376.0,-152.0,0
-22.0,-247.0,28.0,-55.0,371.0,-162.0,0
-27.0,-251.0,23.0,-50.0,360.0,-163.0,0
-30.0,-253.0,18.0,-44.0,350.0,-164.0,0
-29.0,-256.0,13.0,-43.0,346.0,-151.0,0
-33.0,-258.0,13.0,-49.0,353.0,-144.0,0
-33.0,-260.0,16.0,-51.0,365.0,-135.0,0
-32.0,-264.0,20.0,-45.0,379.0,-133.0,0
-32.0,-268.0,25.0,-27.0,386.0,-126.0,0
-32.0,-272.0,31.0,4.0,385.0,-123.0,0
-23.0,-278.0,37.0,46.0,376.0,-112.0,0
-21.0,-281.0,41.0,95.0,363.0,-101.0,0
-21.0,-285.0,44.0,143.0,345.0,-83.0,0
-16.0,-284.0,51.0,193.0,325.0,-66.0,0
-18.0,-284.0,52.0,243.0,305.0,-39.0,0
-15.0,-280.0,54.0,304.0,280.0,-20.0,0
-16.0,-278.0,60.0,353.0,262.0,1.0,0
-14.0,-268.0,61.0,390.0,251.0,15.0,0
-15.0,-262.0,69.0,417.0,248.0,28.0,0
-16.0,-258.0,72.0,430.0,257.0,33.0,0
-16.0,-250.0,71.0,428.0,271.0,38.0,0
-11.0,-242.0,71.0,412.0,298.0,31.0,0
-9.0,-240.0,77.0,380.0,334.0,23.0,0
-7.0,-237.0,76.0,331.0,384.0,7.0,0
-4.0,-240.0,76.0,264.0,445.0,-3.0,0
-1.0,-249.0,68.0,153.0,529.0,-11.0,0
3.0,-258.0,62.0,42.0,603.0,-9.0,0
6.0,-273.0,56.0,-79.0,672.0,-9.0,0
8.0,-296.0,40.0,-198.0,737.0,-1.0,0
5.0,-321.0,22.0,-304.0,790.0,7.0,0
-3.0,-331.0,1.0,-392.0,826.0,22.0,0
-12.0,-345.0,-31.0,-466.0,831.0,42.0,0
-18.0,-355.0,-60.0,-535.0,781.0,81.0,0
-24.0,-358.0,-95.0,-606.0,692.0,130.0,0
-27.0,-362.0,-119.0,-668.0,584.0,209.0,0
-37.0,-361.0,-131.0,-702.0,456.0,341.0,0
-42.0,-359.0,-135.0,-674.0,348.0,485.0,0
-41.0,-350.0,-129.0,-588.0,243.0,622.0,0
-43.0,-335.0,-130.0,-475.0,147.0,731.0,0
-43.0,-324.0,-122.0,-358.0,68.0,803.0,0
-46.0,-305.0,-118.0,-246.0,5.0,845.0,0
-42.0,-289.0,-121.0,-149.0,-38.0,848.0,0
-35.0,-275.0,-122.0,-77.0,-53.0,819.0,0
-25.0,-264.0,-126.0,-32.0,-34.0,752.0,0
-13.0,-258.0,-129.0,-6.0,13.0,662.0,0
-6.0,-254.0,-125.0,6.0,98.0,526.0,0
4.0,-250.0,-120.0,16.0,186.0,411.0,0
12.0,-253.0,-119.0,29.0,278.0,292.0,0
25.0,-254.0,-108.0,49.0,363.0,187.0,0
26.0,-258.0,-100.0,74.0,438.0,86.0,0
28.0,-258.0,-87.0,105.0,499.0,0.0,0
28.0,-259.0,-79.0,137.0,542.0,-80.0,0
26.0,-260.0,-75.0,171.0,567.0,-151.0,0
20.0,-259.0,-66.0,199.0,582.0,-219.0,0
8.0,-255.0,-64.0,211.0,582.0,-274.0,0
-5.0,-254.0,-59.0,213.0,569.0,-324.0,0
-21.0,-252.0,-53.0,191.0,536.0,-349.0,0
-35.0,-250.0,-51.0,159.0,498.0,-369.0,0
-51.0,-244.0,-49.0,119.0,453.0,-378.0,0
-59.0,-242.0,-47.0,81.0,403.0,-375.0,0
-67.0,-233.0,-40.0,44.0,347.0,-362.0,0
-73.0,-225.0,-47.0,14.0,285.0,-346.0,0
-72.0,-221.0,-40.0,-8.0,217.0,-328.0,0
-72.0,-210.0,-41.0,-26.0,144.0,-312.0,0
-71.0,-198.0,-45.0,-39.0,67.0,-297.0,0
-63.0,-189.0,-44.0,-49.0,-11.0,-289.0,0
-56.0,-181.0,-43.0,-67.0,-107.0,-281.0,0
-50.0,-179.0,-42.0,-90.0,-188.0,-281.0,0
-39.0,-181.0,-48.0,-121.0,-267.0,-279.0,0
-32.0,-185.0,-45.0,-162.0,-340.0,-282.0,0
-26.0,-195.0,-42.0,-204.0,-399.0,-284.0,0
-19.0,-200.0,-40.0,-248.0,-446.0,-287.0,0
-16.0,-210.0,-35.0,-287.0,-484.0,-284.0,0
-11.0,-225.0,-34.0,-322.0,-513.0,-279.0,0
-8.0,-235.0,-29.0,-349.0,-533.0,-271.0,0
1.0,-243.0,-34.0,-364.0,-545.0,-266.0,0
5.0,-247.0,-32.0,-363.0,-548.0,-264.0,0
6.0,-255.0,-33.0,-347.0,-550.0,-260.0,0
9.0,-256.0,-33.0,-329.0,-550.0,-253.0,0
5.0,-258.0,-32.0,-307.0,-552.0,-243.0,0
10.0,-260.0,-34.0,-285.0,-552.0,-237.0,0
11.0,-259.0,-41.0,-266.0,-545.0,-239.0,0
11.0,-256.0,-41.0,-256.0,-524.0,-244.0,0
11.0,-253.0,-39.0,-250.0,-499.0,-250.0,0
13.0,-252.0,-44.0,-256.0,-472.0,-265.0,0
15.0,-249.0,-43.0,-270.0,-443.0,-284.0,0
11.0,-245.0,-44.0,-287.0,-419.0,-301.0,0
18.0,-246.0,-39.0,-294.0,-405.0,-311.0,0
11.0,-241.0,-36.0,-287.0,-398.0,-313.0,0
17.0,-242.0,-34.0,-272.0,-397.0,-314.0,0
20.0,-240.0,-30.0,-254.0,-399.0,-311.0,0
21.0,-236.0,-33.0,-239.0,-400.0,-306.0,0
24.0,-234.0,-39.0,-232.0,-397.0,-298.0,0
24.0,-232.0,-37.0,-232.0,-389.0,-290.0,0
28.0,-232.0,-40.0,-243.0,-379.0,-282.0,0
32.0,-233.0,-36.0,-261.0,-368.0,-271.0,0
32.0,-235.0,-38.0,-278.0,-358.0,-258.0,0
26.0,-237.0,-36.0,-297.0,-346.0,-242.0,0
24.0,-238.0,-32.0,-324.0,-336.0,-225.0,0
26.0,-245.0,-36.0,-343.0,-321.0,-206.0,0
22.0,-248.0,-34.0,-356.0,-302.0,-191.0,0
17.0,-250.0,-27.0,-364.0,-286.0,-174.0,0
12.0,-251.0,-35.0,-365.0,-279.0,-157.0,0
12.0,-255.0,-26.0,-363.0,-275.0,-147.0,0
9.0,-258.0,-27.0,-355.0,-271.0,-146.0,0
-2.0,-261.0,-24.0,-335.0,-267.0,-141.0,0
-12.0,-260.0,-20.0,-299.0,-272.0,-133.0,0
-14.0,-260.0,-21.0,-250.0,-288.0,-111.0,0
-15.0,-264.0,-17.0,-183.0,-298.0,-94.0,0
-12.0,-260.0,-17.0,-127.0,-306.0,-77.0,0
-11.0,-260.0,-13.0,-74.0,-309.0,-63.0,0
-5.0,-258.0,-15.0,-29.0,-306.0,-50.0,0
4.0,-257.0,-9.0,10.0,-300.0,-43.0,0
8.0,-253.0,-2.0,42.0,-290.0,-35.0,0
15.0,-250.0,-6.0,69.0,-280.0,-33.0,0
19.0,-246.0,0.0,89.0,-274.0,-27.0,0
22.0,-240.0,4.0,101.0,-276.0,-23.0,0
22.0,-238.0,8.0,107.0,-284.0,-10.0,0
21.0,-234.0,11.0,111.0,-296.0,0.0,0
26.0,-231.0,17.0,115.0,-304.0,12.0,0
19.0,-233.0,17.0,116.0,-308.0,23.0,0
15.0,-240.0,28.0,116.0,-309.0,36.0,0
18.0,-222.0,10.0,115.0,-302.0,46.0,0
2.0,-254.0,30.0,109.0,-292.0,57.0,0
5.0,-233.0,25.0,99.0,-277.0,64.0,0
12.0,-223.0,5.0,81.0,-261.0,74.0,0
9.0,-228.0,26.0,57.0,-250.0,75.0,0
6.0,-227.0,20.0,24.0,-244.0,78.0,0
-1.0,-224.0,31.0,-20.0,-247.0,79.0,0
7.0,-217.0,35.0,-57.0,-257.0,83.0,0
1.0,-225.0,15.0,-91.0,-269.0,87.0,0
12.0,-219.0,3.0,-122.0,-278.0,96.0,0
7.0,-233.0,11.0,-154.0,-282.0,100.0,0
6.0,-236.0,10.0,-186.0,-283.0,107.0,0
9.0,-235.0,-6.0,-220.0,-285.0,108.0,0
17.0,-245.0,9.0,-249.0,-292.0,116.0,0
-2.0,-257.0,8.0,-264.0,-298.0,119.0,0
27.0,-254.0,-6.0,-264.0,-305.0,124.0,0
5.0,-267.0,26.0,-243.0,-314.0,121.0,0
2.0,-266.0,13.0,-194.0,-323.0,122.0,0
-11.0,-271.0,14.0,-142.0,-333.0,117.0,0
-12.0,-273.0,28.0,-84.0,-345.0,116.0,0
-5.0,-269.0,32.0,-24.0,-360.0,111.0,0
-17.0,-276.0,23.0,36.0,-372.0,107.0,0
-13.0,-275.0,31.0,95.0,-386.0,97.0,0
-12.0,-271.0,33.0,151.0,-400.0,85.0,0
-15.0,-264.0,30.0,199.0,-418.0,70.0,0
-14.0,-249.0,32.0,235.0,-442.0,58.0,0
-23.0,-256.0,23.0,252.0,-483.0,44.0,0
-17.0,-257.0,33.0,248.0,-521.0,37.0,0
-19.0,-259.0,37.0,223.0,-561.0,26.0,0
-21.0,-253.0,36.0,181.0,-601.0,22.0,0
-35.0,-252.0,29.0,121.0,-648.0,15.0,0
-41.0,-269.0,29.0,46.0,-705.0,16.0,0
-36.0,-278.0,21.0,-38.0,-763.0,11.0,0
-27.0,-309.0,9.0,-126.0,-817.0,6.0,0
-46.0,-345.0,10.0,-216.0,-867.0,-13.0,0
-37.0,-353.0,-34.0,-310.0,-901.0,-33.0,0
-15.0,-383.0,-60.0,-398.0,-906.0,-67.0,0
21.0,-396.0,-100.0,-492.0,-846.0,-106.0,0
43.0,-402.0,-135.0,-552.0,-725.0,-175.0,0
77.0,-412.0,-172.0,-583.0,-538.0,-265.0,0
104.0,-418.0,-182.0,-589.0,-301.0,-389.0,0
123.0,-414.0,-197.0,-560.0,-47.0,-523.0,0
123.0,-405.0,-164.0,-489.0,186.0,-652.0,0
122.0,-380.0,-166.0,-372.0,366.0,-750.0,0
103.0,-342.0,-157.0,-210.0,497.0,-805.0,0
99.0,-305.0,-140.0,-15.0,592.0,-799.0,0
78.0,-279.0,-119.0,173.0,653.0,-745.0,0
52.0,-244.0,-126.0,339.0,674.0,-678.0,0
28.0,-221.0,-105.0,405.0,650.0,-610.0,0
14.0,-215.0,-88.0,405.0,590.0,-525.0,0
-5.0,-195.0,-88.0,362.0,503.0,-434.0,0
-29.0,-189.0,-87.0,289.0,395.0,-333.0,0
-41.0,-188.0,-86.0,207.0,277.0,-233.0,0
-55.0,-194.0,-86.0,128.0,159.0,-130.0,0
-60.0,-205.0,-84.0,75.0,49.0,-42.0,0
-67.0,-213.0,-87.0,51.0,-47.0,36.0,0
-77.0,-230.0,-72.0,51.0,-126.0,113.0,0
-52.0,-232.0,-75.0,76.0,-201.0,173.0,0
-54.0,-247.0,-82.0,114.0,-248.0,220.0,0
-38.0,-249.0,-74.0,155.0,-274.0,257.0,0
-24.0,-245.0,-64.0,190.0,-278.0,274.0,0
1.0,-252.0,-66.0,215.0,-265.0,279.0,0
6.0,-256.0,-54.0,229.0,-238.0,266.0,0
25.0,-250.0,-46.0,233.0,-204.0,246.0,0
36.0,-241.0,-50.0,236.0,-163.0,215.0,0
41.0,-229.0,-53.0,235.0,-119.0,187.0,0
45.0,-229.0,-62.0,230.0,-68.0,159.0,0
58.0,-214.0,-54.0,221.0,5.0,139.0,0
56.0,-206.0,-61.0,200.0,78.0,125.0,0
60.0,-201.0,-67.0,169.0,157.0,124.0,0
40.0,-201.0,-60.0,125.0,243.0,124.0,0
40.0,-199.0,-60.0,71.0,318.0,135.0,0
35.0,-194.0,-79.0,11.0,380.0,148.0,0
41.0,-209.0,-61.0,-47.0,423.0,171.0,0
18.0,-222.0,-59.0,-98.0,450.0,193.0,0
15.0,-233.0,-63.0,-135.0,466.0,213.0,0
20.0,-233.0,-61.0,-157.0,475.0,231.0,0
4.0,-242.0,-57.0,-163.0,480.0,258.0,0
2.0,-254.0,-54.0,-147.0,488.0,275.0,0
0.0,-251.0,-66.0,-115.0,494.0,297.0,0
-4.0,-257.0,-54.0,-72.0,500.0,314.0,0
-7.0,-259.0,-55.0,-24.0,507.0,329.0,0
-9.0,-255.0,-43.0,24.0,519.0,333.0,0
-5.0,-259.0,-53.0,68.0,531.0,335.0,0
4.0,-258.0,-60.0,103.0,540.0,330.0,0
-5.0,-254.0,-49.0,131.0,550.0,325.0,0
1.0,-255.0,-48.0,146.0,555.0,314.0,0
-2.0,-249.0,-49.0,154.0,561.0,300.0,0
-5.0,-245.0,-44.0,155.0,565.0,288.0,0
-7.0,-240.0,-44.0,151.0,572.0,279.0,0
0.0,-230.0,-49.0,144.0,581.0,274.0,0
-12.0,-245.0,-35.0,123.0,593.0,277.0,0
-14.0,-239.0,-33.0,93.0,605.0,281.0,0
-24.0,-254.0,-41.0,62.0,609.0,281.0,0
-28.0,-240.0,-41.0,33.0,612.0,280.0,0
-25.0,-245.0,-39.0,8.0,614.0,277.0,0
-30.0,-231.0,-45.0,-14.0,615.0,272.0,0
-32.0,-241.0,-40.0,-29.0,609.0,270.0,0
-35.0,-239.0,-38.0,-37.0,586.0,270.0,0
-47.0,-241.0,-31.0,-40.0,560.0,273.0,0
-39.0,-242.0,-30.0,-43.0,534.0,271.0,0
-44.0,-235.0,-34.0,-51.0,510.0,264.0,0
-55.0,-234.0,-30.0,-63.0,482.0,253.0,0
-50.0,-233.0,-37.0,-75.0,448.0,242.0,0
-44.0,-228.0,-35.0,-82.0,409.0,228.0,0
-44.0,-245.0,-32.0,-83.0,364.0,214.0,0
-36.0,-231.0,-29.0,-79.0,322.0,203.0,0
-34.0,-225.0,-34.0,-71.0,283.0,192.0,0
-37.0,-235.0,-35.0,-64.0,247.0,182.0,0
-31.0,-243.0,-27.0,-51.0,231.0,175.0,0
-23.0,-232.0,-43.0,-39.0,228.0,167.0,0
-17.0,-243.0,-26.0,-27.0,237.0,157.0,0
-22.0,-252.0,-31.0,-12.0,250.0,144.0,0
-23.0,-249.0,-26.0,13.0,268.0,131.0,0
-22.0,-246.0,-24.0,41.0,283.0,118.0,0
-14.0,-248.0,-11.0,67.0,297.0,100.0,0
-11.0,-241.0,-28.0,82.0,306.0,81.0,0
-11.0,-241.0,-18.0,84.0,310.0,57.0,0
-13.0,-239.0,-17.0,73.0,302.0,33.0,0
-13.0,-236.0,-14.0,53.0,288.0,14.0,0
-12.0,-237.0,-14.0,37.0,268.0,0.0,0
-14.0,-237.0,-13.0,30.0,240.0,-10.0,0
-19.0,-245.0,-7.0,34.0,218.0,-13.0,0
-12.0,-243.0,-7.0,45.0,201.0,-17.0,0
-11.0,-244.0,-6.0,66.0,191.0,-18.0,0
-23.0,-233.0,-10.0,88.0,189.0,-23.0,0
-9.0,-231.0,-7.0,111.0,192.0,-29.0,0
-21.0,-233.0,7.0,127.0,194.0,-37.0,0
-18.0,-230.0,9.0,138.0,193.0,-44.0,0
-23.0,-233.0,6.0,143.0,187.0,-51.0,0
-23.0,-225.0,10.0,145.0,179.0,-53.0,0
-32.0,-237.0,23.0,142.0,169.0,-53.0,0
-29.0,-235.0,10.0,132.0,160.0,-51.0,0
-34.0,-227.0,11.0,119.0,161.0,-54.0,0
-29.0,-233.0,17.0,108.0,169.0,-58.0,0
-10.0,-254.0,18.0,101.0,182.0,-69.0,0
-16.0,-237.0,41.0,103.0,194.0,-76.0,0
-18.0,-245.0,23.0,104.0,208.0,-88.0,0
-18.0,-248.0,11.0,107.0,214.0,-96.0,0
-25.0,-243.0,15.0,106.0,212.0,-104.0,0
-19.0,-245.0,9.0,98.0,210.0,-106.0,0
-20.0,-253.0,21.0,89.0,206.0,-106.0,0
-16.0,-247.0,7.0,73.0,209.0,-99.0,0
-24.0,-254.0,3.0,58.0,215.0,-93.0,0
-31.0,-256.0,20.0,43.0,224.0,-86.0,0
-21.0,-262.0,13.0,37.0,230.0,-79.0,0
-19.0,-262.0,18.0,42.0,229.0,-70.0,0
-13.0,-271.0,18.0,56.0,221.0,-64.0,0
-18.0,-276.0,30.0,81.0,212.0,-51.0,0
-10.0,-284.0,13.0,113.0,204.0,-42.0,0
-11.0,-280.0,25.0,155.0,194.0,-31.0,0
-12.0,-281.0,27.0,191.0,182.0,-21.0,0
-14.0,-279.0,31.0,226.0,165.0,-4.0,0
-15.0,-273.0,24.0,262.0,146.0,9.0,0
-17.0,-288.0,40.0,304.0,132.0,26.0,0
-15.0,-270.0,37.0,345.0,130.0,35.0,0
-7.0,-254.0,35.0,386.0,140.0,44.0,0
-15.0,-260.0,41.0,417.0,158.0,47.0,0
4.0,-254.0,37.0,428.0,176.0,55.0,0
-13.0,-254.0,30.0,417.0,192.0,61.0,0
-18.0,-255.0,30.0,374.0,213.0,67.0,0
-11.0,-262.0,36.0,318.0,237.0,66.0,0
-7.0,-274.0,34.0,247.0,271.0,72.0,0
-9.0,-288.0,19.0,165.0,318.0,78.0,0
-7.0,-303.0,10.0,72.0,375.0,98.0,0
0.0,-318.0,-16.0,-29.0,434.0,116.0,0
-22.0,-333.0,-10.0,-139.0,485.0,136.0,0
-14.0,-351.0,-38.0,-247.0,519.0,154.0,0
-26.0,-352.0,-47.0,-334.0,526.0,183.0,0
-40.0,-362.0,-63.0,-385.0,504.0,215.0,0
-51.0,-357.0,-83.0,-395.0,434.0,279.0,0
-71.0,-366.0,-80.0,-354.0,348.0,347.0,0
-75.0,-358.0,-76.0,-301.0,231.0,428.0,0
-70.0,-344.0,-87.0,-250.0,90.0,506.0,0
-69.0,-348.0,-81.0,-190.0,-50.0,576.0,0
-69.0,-315.0,-75.0,-110.0,-174.0,614.0,0
-30.0,-296.0,-73.0,-1.0,-270.0,632.0,0
-36.0,-275.0,-70.0,127.0,-339.0,623.0,0
-25.0,-252.0,-78.0,253.0,-384.0,594.0,0
-10.0,-245.0,-74.0,349.0,-414.0,532.0,0
-2.0,-231.0,-90.0,403.0,-421.0,439.0,0
5.0,-224.0,-97.0,399.0,-389.0,344.0,0
19.0,-217.0,-105.0,344.0,-313.0,251.0,0
36.0,-228.0,-115.0,159.0,-34.0,82.0,0
46.0,-224.0,-107.0,83.0,121.0,12.0,0
47.0,-228.0,-98.0,37.0,265.0,-39.0,0
45.0,-238.0,-90.0,20.0,383.0,-78.0,0
45.0,-243.0,-79.0,24.0,473.0,-99.0,0
43.0,-252.0,-74.0,37.0,541.0,-117.0,0
33.0,-254.0,-66.0,46.0,591.0,-125.0,0
29.0,-258.0,-64.0,45.0,630.0,-129.0,0
15.0,-258.0,-60.0,36.0,646.0,-128.0,0
-1.0,-263.0,-52.0,28.0,645.0,-128.0,0
-8.0,-260.0,-49.0,25.0,625.0,-121.0,0
-13.0,-259.0,-45.0,27.0,589.0,-118.0,0
-15.0,-256.0,-44.0,38.0,542.0,-114.0,0
-22.0,-251.0,-42.0,50.0,483.0,-117.0,0
-24.0,-245.0,-24.0,57.0,414.0,-118.0,0
-29.0,-238.0,-38.0,53.0,344.0,-126.0,0
-30.0,-236.0,-38.0,40.0,275.0,-131.0,0
-30.0,-237.0,-37.0,15.0,206.0,-143.0,0
-34.0,-237.0,-36.0,-15.0,161.0,-153.0,0
-32.0,-240.0,-36.0,-42.0,129.0,-171.0,0
-32.0,-240.0,-34.0,-62.0,108.0,-188.0,0
-32.0,-243.0,-34.0,-74.0,96.0,-210.0,0
-35.0,-240.0,-32.0,-79.0,88.0,-228.0,0
-30.0,-239.0,-38.0,-73.0,88.0,-253.0,0
-21.0,-237.0,-37.0,-70.0,97.0,-275.0,0
-18.0,-233.0,-37.0,-69.0,114.0,-302.0,0
-14.0,-228.0,-32.0,-72.0,132.0,-325.0,0
-11.0,-225.0,-30.0,-77.0,147.0,-353.0,0
-7.0,-224.0,-31.0,-89.0,154.0,-365.0,0
-6.0,-221.0,-31.0,-108.0,156.0,-378.0,0
-2.0,-218.0,-28.0,-138.0,153.0,-383.0,0
2.0,-220.0,-29.0,-178.0,147.0,-384.0,0
2.0,-219.0,-29.0,-220.0,137.0,-380.0,0
13.0,-221.0,-12.0,-264.0,127.0,-376.0,0
4.0,-221.0,-27.0,-305.0,116.0,-364.0,0
6.0,-225.0,-25.0,-344.0,107.0,-354.0,0
1.0,-225.0,-22.0,-378.0,96.0,-339.0,0
1.0,-230.0,-19.0,-405.0,85.0,-327.0,0
-2.0,-232.0,-11.0,-426.0,67.0,-313.0,0
-1.0,-236.0,-11.0,-429.0,53.0,-307.0,0
-2.0,-236.0,-9.0,-422.0,36.0,-296.0,0
0.0,-237.0,-13.0,-409.0,18.0,-295.0,0
1.0,-240.0,-17.0,-394.0,2.0,-297.0,0
2.0,-237.0,-19.0,-384.0,-4.0,-307.0,0
2.0,-234.0,-19.0,-376.0,-9.0,-318.0,0
3.0,-234.0,-20.0,-372.0,-9.0,-330.0,0
5.0,-233.0,-22.0,-370.0,-3.0,-338.0,0
5.0,-234.0,-21.0,-372.0,3.0,-349.0,0
4.0,-232.0,-24.0,-381.0,10.0,-357.0,0
5.0,-228.0,-25.0,-391.0,13.0,-361.0,0
3.0,-231.0,-20.0,-399.0,9.0,-361.0,0
3.0,-231.0,-18.0,-394.0,2.0,-360.0,0
3.0,-232.0,-28.0,-383.0,-11.0,-345.0,0
1.0,-236.0,-18.0,-361.0,-29.0,-328.0,0
-4.0,-241.0,-18.0,-339.0,-47.0,-303.0,0
-5.0,-238.0,-22.0,-315.0,-68.0,-279.0,0
-9.0,-239.0,-21.0,-294.0,-94.0,-254.0,0
-9.0,-241.0,-24.0,-276.0,-124.0,-231.0,0
-10.0,-245.0,-23.0,-262.0,-156.0,-203.0,0
-8.0,-242.0,-24.0,-244.0,-178.0,-186.0,0
-8.0,-246.0,-26.0,-233.0,-195.0,-171.0,0
-5.0,-246.0,-22.0,-226.0,-204.0,-163.0,0
1.0,-254.0,-26.0,-215.0,-208.0,-157.0,0
0.0,-250.0,-18.0,-199.0,-212.0,-156.0,0
7.0,-256.0,-12.0,-177.0,-215.0,-157.0,0
7.0,-261.0,-14.0,-146.0,-214.0,-158.0,0
9.0,-260.0,-8.0,-111.0,-211.0,-159.0,0
10.0,-260.0,-5.0,-72.0,-206.0,-158.0,0
12.0,-253.0,-19.0,-34.0,-197.0,-154.0,0
14.0,-255.0,-12.0,0.0,-192.0,-150.0,0
16.0,-251.0,-10.0,18.0,-187.0,-142.0,0
16.0,-247.0,-12.0,31.0,-181.0,-137.0,0
17.0,-246.0,-4.0,35.0,-174.0,-131.0,0
13.0,-244.0,-5.0,31.0,-170.0,-125.0,0
12.0,-241.0,-1.0,18.0,-162.0,-122.0,0
11.0,-243.0,1.0,3.0,-154.0,-120.0,0
9.0,-243.0,4.0,-18.0,-144.0,-122.0,0
8.0,-248.0,8.0,-37.0,-135.0,-122.0,0
5.0,-250.0,2.0,-57.0,-127.0,-124.0,0
0.0,-251.0,-1.0,-78.0,-123.0,-124.0,0
-1.0,-253.0,6.0,-92.0,-126.0,-122.0,0
0.0,-260.0,7.0,-98.0,-139.0,-118.0,0
-1.0,-260.0,3.0,-93.0,-156.0,-109.0,0
-2.0,-266.0,9.0,-82.0,-181.0,-94.0,0
-7.0,-268.0,9.0,-66.0,-210.0,-76.0,0
-7.0,-267.0,8.0,-49.0,-244.0,-52.0,0
-10.0,-272.0,10.0,-38.0,-277.0,-26.0,0
-11.0,-273.0,9.0,-35.0,-308.0,0.0,0
-19.0,-273.0,9.0,-33.0,-336.0,29.0,0
-20.0,-273.0,16.0,-29.0,-361.0,50.0,0
-22.0,-270.0,10.0,-23.0,-373.0,68.0,0
-24.0,-275.0,13.0,-15.0,-377.0,81.0,0
-25.0,-270.0,16.0,-12.0,-378.0,87.0,0
-21.0,-274.0,19.0,-13.0,-372.0,87.0,0
-18.0,-269.0,25.0,-14.0,-370.0,78.0,0
-12.0,-268.0,27.0,-13.0,-368.0,66.0,0
-23.0,-277.0,33.0,-4.0,-366.0,45.0,0
-6.0,-261.0,29.0,13.0,-362.0,31.0,0
-2.0,-261.0,32.0,34.0,-355.0,14.0,0
6.0,-258.0,25.0,57.0,-334.0,-7.0,0
10.0,-252.0,23.0,69.0,-306.0,-26.0,0
13.0,-247.0,14.0,59.0,-278.0,-37.0,0
8.0,-243.0,17.0,34.0,-249.0,-46.0,0
2.0,-241.0,9.0,-13.0,-222.0,-44.0,0
2.0,-242.0,0.0,-72.0,-196.0,-43.0,0
4.0,-252.0,-10.0,-144.0,-167.0,-42.0,0
9.0,-259.0,-14.0,-225.0,-133.0,-49.0,0
9.0,-275.0,-24.0,-313.0,-101.0,-62.0,0
17.0,-297.0,-36.0,-394.0,-81.0,-82.0,0
22.0,-322.0,-49.0,-466.0,-78.0,-101.0,0
28.0,-341.0,-56.0,-523.0,-97.0,-121.0,0
35.0,-361.0,-77.0,-553.0,-133.0,-148.0,0
44.0,-380.0,-95.0,-572.0,-179.0,-194.0,0
50.0,-392.0,-117.0,-584.0,-233.0,-244.0,0
50.0,-395.0,-131.0,-592.0,-288.0,-300.0,0
45.0,-387.0,-150.0,-589.0,-328.0,-345.0,0
34.0,-371.0,-155.0,-555.0,-317.0,-373.0,0
27.0,-353.0,-146.0,-473.0,-258.0,-385.0,0
15.0,-327.0,-135.0,-335.0,-172.0,-390.0,0
15.0,-299.0,-128.0,-165.0,-76.0,-393.0,0
15.0,-270.0,-118.0,42.0,49.0,-396.0,0
23.0,-246.0,-111.0,186.0,150.0,-392.0,0
25.0,-223.0,-100.0,289.0,231.0,-386.0,0
28.0,-198.0,-93.0,344.0,287.0,-368.0,0
33.0,-181.0,-78.0,345.0,311.0,-346.0,0
30.0,-171.0,-66.0,309.0,303.0,-308.0,0
27.0,-165.0,-59.0,248.0,267.0,-260.0,0
27.0,-163.0,-56.0,177.0,210.0,-192.0,0
23.0,-166.0,-48.0,96.0,140.0,-114.0,0
23.0,-176.0,-47.0,10.0,66.0,-3.0,0
24.0,-188.0,-45.0,-94.0,-23.0,91.0,0
25.0,-206.0,-39.0,-176.0,-88.0,184.0,0
24.0,-224.0,-38.0,-251.0,-139.0,266.0,0
23.0,-246.0,-40.0,-302.0,-177.0,343.0,0
23.0,-265.0,-36.0,-317.0,-197.0,408.0,0
27.0,-280.0,-38.0,-296.0,-202.0,464.0,0
27.0,-290.0,-41.0,-238.0,-197.0,501.0,0
29.0,-292.0,-43.0,-157.0,-182.0,525.0,0
34.0,-290.0,-43.0,-73.0,-155.0,530.0,0
34.0,-279.0,-50.0,-2.0,-127.0,520.0,0
33.0,-263.0,-46.0,49.0,-90.0,487.0,0
27.0,-250.0,-48.0,89.0,-63.0,455.0,0
28.0,-227.0,-51.0,109.0,-42.0,425.0,0
20.0,-214.0,-52.0,115.0,-26.0,404.0,0
17.0,-199.0,-57.0,106.0,-3.0,376.0,0
12.0,-190.0,-63.0,79.0,28.0,359.0,0
5.0,-185.0,-63.0,31.0,69.0,339.0,0
2.0,-189.0,-62.0,-39.0,111.0,325.0,0
-7.0,-196.0,-62.0,-117.0,154.0,306.0,0
-10.0,-203.0,-55.0,-190.0,187.0,293.0,0
-12.0,-219.0,-53.0,-251.0,208.0,273.0,0
-9.0,-232.0,-49.0,-296.0,223.0,261.0,0
-8.0,-245.0,-46.0,-306.0,235.0,241.0,0
-5.0,-255.0,-50.0,-292.0,254.0,224.0,0
-5.0,-262.0,-50.0,-255.0,279.0,200.0,0
1.0,-268.0,-44.0,-198.0,305.0,186.0,0
-1.0,-272.0,-39.0,-130.0,329.0,175.0,0
7.0,-271.0,-40.0,-59.0,346.0,175.0,0
9.0,-271.0,-43.0,8.0,364.0,174.0,0
6.0,-264.0,-41.0,63.0,385.0,177.0,0
13.0,-264.0,-38.0,103.0,410.0,172.0,0
12.0,-259.0,-37.0,134.0,445.0,170.0,0
13.0,-255.0,-31.0,147.0,477.0,162.0,0
11.0,-252.0,-27.0,151.0,509.0,160.0,0
2.0,-243.0,-22.0,151.0,535.0,153.0,0
-4.0,-237.0,-21.0,146.0,551.0,154.0,0
-5.0,-231.0,-27.0,130.0,552.0,152.0,0
-21.0,-221.0,-30.0,95.0,545.0,153.0,0
-35.0,-213.0,-28.0,39.0,531.0,152.0,0
-35.0,-221.0,-24.0,-39.0,514.0,165.0,0
-22.0,-228.0,-19.0,-134.0,504.0,181.0,0
1.0,-246.0,-11.0,-228.0,541.0,174.0,0
16.0,-259.0,-9.0,-299.0,622.0,119.0,0
16.0,-262.0,0.0,-309.0,716.0,45.0,0
22.0,-260.0,2.0,-282.0,778.0,-26.0,0
27.0,-243.0,-2.0,-239.0,785.0,-74.0,0
26.0,-229.0,-12.0,-204.0,752.0,-107.0,0
20.0,-208.0,-24.0,-205.0,710.0,-105.0,0
8.0,-195.0,-29.0,-259.0,685.0,-71.0,0
-10.0,-182.0,-23.0,-344.0,673.0,-17.0,0
-27.0,-176.0,-14.0,-428.0,680.0,46.0,0
-36.0,-189.0,2.0,-481.0,691.0,137.0,0
-50.0,-199.0,10.0,-504.0,698.0,214.0,0
-57.0,-216.0,7.0,-523.0,681.0,285.0,0
-59.0,-228.0,0.0,-587.0,637.0,330.0,0
-46.0,-243.0,-32.0,-713.0,581.0,343.0,0
-23.0,-253.0,-54.0,-871.0,524.0,305.0,0
-4.0,-256.0,-78.0,-1021.0,486.0,222.0,0
11.0,-254.0,-91.0,-1129.0,473.0,107.0,0
15.0,-249.0,-104.0,-1181.0,467.0,-14.0,0
18.0,-244.0,-121.0,-1190.0,435.0,-126.0,0
11.0,-235.0,-141.0,-1168.0,377.0,-234.0,0
7.0,-233.0,-146.0,-1099.0,341.0,-301.0,0
1.0,-232.0,-139.0,-995.0,375.0,-344.0,0
-10.0,-230.0,-115.0,-845.0,443.0,-376.0,0
-25.0,-227.0,-80.0,-657.0,489.0,-390.0,0
-41.0,-215.0,-52.0,-460.0,477.0,-390.0,0
-57.0,-202.0,-34.0,-303.0,405.0,-369.0,0
-70.0,-188.0,-33.0,-230.0,299.0,-336.0,0
-67.0,-168.0,-43.0,-251.0,190.0,-294.0,0
-70.0,-163.0,-51.0,-339.0,108.0,-244.0,0
-66.0,-166.0,-59.0,-464.0,50.0,-181.0,0
-65.0,-176.0,-73.0,-634.0,-17.0,-108.0,0
-62.0,-195.0,-97.0,-776.0,-97.0,-53.0,0
-49.0,-216.0,-116.0,-895.0,-225.0,-10.0,0
-24.0,-240.0,-140.0,-963.0,-372.0,22.0,0
-6.0,-259.0,-146.0,-947.0,-466.0,42.0,0
19.0,-268.0,-146.0,-838.0,-451.0,62.0,0
40.0,-272.0,-134.0,-659.0,-333.0,77.0,0
59.0,-258.0,-128.0,-462.0,-162.0,72.0,0
64.0,-246.0,-116.0,-311.0,-1.0,39.0,0
73.0,-225.0,-85.0,-227.0,99.0,-7.0,0
92.0,-204.0,-73.0,-205.0,147.0,-54.0,0
106.0,-174.0,-90.0,-230.0,143.0,-99.0,0
91.0,-155.0,-105.0,-270.0,93.0,-133.0,0
45.0,-142.0,-118.0,-337.0,43.0,-112.0,0
15.0,-149.0,-134.0,-463.0,60.0,-35.0,0
6.0,-167.0,-139.0,-631.0,152.0,44.0,0
13.0,-198.0,-123.0,-805.0,253.0,96.0,0
14.0,-225.0,-105.0,-955.0,279.0,124.0,0
24.0,-252.0,-93.0,-1052.0,219.0,148.0,0
31.0,-270.0,-102.0,-1085.0,154.0,161.0,0
34.0,-284.0,-97.0,-1085.0,174.0,171.0,0
31.0,-291.0,-80.0,-1084.0,249.0,179.0,0
30.0,-301.0,-56.0,-1082.0,313.0,182.0,0
21.0,-302.0,-41.0,-1073.0,337.0,191.0,0
5.0,-296.0,-47.0,-1056.0,336.0,209.0,0
-8.0,-290.0,-49.0,-1035.0,348.0,236.0,0
-12.0,-277.0,-29.0,-1013.0,385.0,276.0,0
-15.0,-259.0,3.0,-982.0,402.0,320.0,0
-15.0,-233.0,47.0,-952.0,356.0,362.0,0
-11.0,-213.0,71.0,-937.0,250.0,380.0,0
-3.0,-176.0,86.0,-949.0,126.0,370.0,0
1.0,-136.0,96.0,-996.0,31.0,348.0,0
0.0,-98.0,105.0,-1050.0,31.0,335.0,0
-1.0,-67.0,106.0,-1098.0,81.0,339.0,0
-11.0,-46.0,99.0,-1136.0,132.0,365.0,0
-29.0,-38.0,97.0,-1181.0,140.0,408.0,0
-46.0,-43.0,89.0,-1251.0,87.0,464.0,0
-59.0,-60.0,76.0,-1345.0,-5.0,507.0,0
-65.0,-88.0,64.0,-1460.0,-102.0,529.0,0
-66.0,-123.0,57.0,-1573.0,-186.0,535.0,0
-62.0,-162.0,48.0,-1662.0,-258.0,533.0,0
-51.0,-198.0,36.0,-1703.0,-312.0,517.0,0
-36.0,-222.0,32.0,-1640.0,-304.0,478.0,0
-13.0,-236.0,33.0,-1417.0,-252.0,416.0,0
6.0,-237.0,24.0,-1028.0,-180.0,348.0,0
25.0,-213.0,-21.0,-549.0,-131.0,254.0,0
-1.0,-154.0,-109.0,-106.0,-162.0,65.0,0
-175.0,-76.0,-167.0,224.0,-367.0,-271.0,0
-292.0,3.0,-225.0,419.0,-805.0,-563.0,0
-333.0,32.0,-418.0,453.0,-1261.0,-583.0,0
-266.0,-5.0,-652.0,115.0,-1447.0,-331.0,0
-177.0,-94.0,-690.0,-709.0,-1036.0,-48.0,0
-131.0,-203.0,-526.0,-1991.0,-362.0,-160.0,0
-79.0,-313.0,-267.0,-2710.0,256.0,-473.0,0
-39.0,-442.0,-79.0,-2647.0,437.0,-603.0,0
-22.0,-556.0,-99.0,-1988.0,-182.0,-436.0,0
-4.0,-633.0,-219.0,-1200.0,-1151.0,-65.0,0
29.0,-680.0,-264.0,-517.0,-1681.0,394.0,0
63.0,-681.0,-257.0,115.0,-1605.0,789.0,0
83.0,-597.0,-233.0,691.0,-1220.0,990.0,0
113.0,-515.0,-252.0,1198.0,-815.0,1027.0,0
117.0,-418.0,-296.0,1440.0,-403.0,978.0,0
90.0,-354.0,-333.0,1280.0,-180.0,885.0,0
63.0,-324.0,-359.0,892.0,-78.0,742.0,0
35.0,-335.0,-353.0,362.0,-40.0,551.0,0
-2.0,-367.0,-319.0,-195.0,-26.0,306.0,0
-33.0,-403.0,-278.0,-609.0,-10.0,49.0,0
-63.0,-436.0,-242.0,-760.0,37.0,-176.0,0
-88.0,-447.0,-226.0,-660.0,120.0,-331.0,0
-133.0,-451.0,-222.0,-406.0,223.0,-421.0,0
-173.0,-448.0,-225.0,-118.0,315.0,-456.0,0
-193.0,-438.0,-231.0,114.0,351.0,-452.0,0
-188.0,-431.0,-234.0,261.0,303.0,-410.0,0
-160.0,-419.0,-239.0,293.0,209.0,-358.0,0
-123.0,-407.0,-241.0,299.0,110.0,-304.0,0
-82.0,-392.0,-241.0,338.0,39.0,-265.0,0
-63.0,-385.0,-239.0,423.0,6.0,-229.0,0
-36.0,-371.0,-236.0,529.0,5.0,-201.0,0
-16.0,-355.0,-222.0,609.0,22.0,-181.0,0
1.0,-345.0,-205.0,634.0,49.0,-184.0,0
11.0,-334.0,-187.0,597.0,79.0,-200.0,0
19.0,-332.0,-170.0,518.0,116.0,-250.0,0
15.0,-325.0,-154.0,401.0,141.0,-306.0,0
9.0,-324.0,-144.0,313.0,158.0,-380.0,0
3.0,-322.0,-137.0,252.0,164.0,-457.0,0
-9.0,-318.0,-128.0,222.0,164.0,-537.0,0
-12.0,-314.0,-121.0,223.0,162.0,-601.0,0
-17.0,-310.0,-117.0,248.0,162.0,-667.0,0
-15.0,-302.0,-108.0,281.0,157.0,-721.0,0
-10.0,-297.0,-102.0,324.0,146.0,-773.0,0
-11.0,-287.0,-92.0,377.0,131.0,-809.0,0
-11.0,-275.0,-80.0,434.0,108.0,-846.0,0
-7.0,-271.0,-79.0,491.0,86.0,-847.0,0
-3.0,-262.0,-68.0,528.0,59.0,-831.0,0
-3.0,-257.0,-56.0,551.0,32.0,-798.0,0
-6.0,-247.0,-55.0,563.0,2.0,-761.0,0
-1.0,-240.0,-46.0,568.0,-29.0,-723.0,0
-1.0,-230.0,-47.0,571.0,-54.0,-698.0,0
-1.0,-221.0,-47.0,575.0,-69.0,-675.0,0
-5.0,-214.0,-46.0,574.0,-66.0,-669.0,0
-11.0,-204.0,-41.0,562.0,-49.0,-663.0,0
-19.0,-197.0,-38.0,551.0,-31.0,-670.0,0
-10.0,-196.0,-37.0,553.0,-12.0,-676.0,0
-11.0,-188.0,-37.0,560.0,9.0,-707.0,0
-7.0,-177.0,-32.0,586.0,40.0,-730.0,0
-1.0,-169.0,-27.0,625.0,73.0,-743.0,0
5.0,-158.0,-24.0,668.0,102.0,-742.0,0
8.0,-149.0,-24.0,706.0,120.0,-746.0,0
11.0,-140.0,-21.0,722.0,128.0,-742.0,0
12.0,-128.0,-21.0,706.0,131.0,-736.0,0
16.0,-115.0,-25.0,651.0,121.0,-719.0,0
19.0,-110.0,-27.0,564.0,99.0,-695.0,0
27.0,-108.0,-27.0,440.0,58.0,-672.0,0
29.0,-107.0,-24.0,340.0,29.0,-654.0,0
34.0,-108.0,-21.0,262.0,4.0,-623.0,0
36.0,-107.0,-19.0,225.0,-13.0,-593.0,0
33.0,-107.0,-11.0,237.0,-17.0,-554.0,0
30.0,-103.0,-11.0,293.0,-9.0,-519.0,0
19.0,-93.0,-6.0,386.0,7.0,-488.0,0
14.0,-80.0,-11.0,496.0,31.0,-463.0,0
13.0,-69.0,-16.0,596.0,65.0,-445.0,0
9.0,-56.0,-26.0,659.0,108.0,-435.0,0
0.0,-46.0,-39.0,660.0,157.0,-428.0,0
-3.0,-47.0,-44.0,585.0,184.0,-413.0,0
-11.0,-46.0,-43.0,446.0,200.0,-379.0,0
-12.0,-56.0,-36.0,275.0,207.0,-333.0,0
-14.0,-73.0,-22.0,114.0,195.0,-271.0,0
-18.0,-92.0,-13.0,3.0,178.0,-202.0,0
-13.0,-115.0,1.0,-32.0,146.0,-116.0,0
-9.0,-133.0,16.0,25.0,101.0,-31.0,0
4.0,-149.0,29.0,187.0,50.0,40.0,0
12.0,-154.0,39.0,448.0,10.0,74.0,0
18.0,-151.0,35.0,783.0,-12.0,85.0,0
24.0,-135.0,27.0,1254.0,-20.0,83.0,0
26.0,-115.0,12.0,1650.0,-35.0,85.0,0
28.0,-85.0,-2.0,2007.0,-65.0,86.0,0
27.0,-58.0,-27.0,2293.0,-114.0,96.0,0
25.0,-17.0,-74.0,2487.0,-181.0,119.0,0
33.0,31.0,-156.0,2557.0,-253.0,180.0,0
68.0,60.0,-213.0,2502.0,-272.0,297.0,0
161.0,74.0,-288.0,2344.0,-154.0,414.0,0
237.0,72.0,-369.0,2053.0,121.0,424.0,0
247.0,61.0,-440.0,1498.0,395.0,314.0,0
190.0,23.0,-425.0,301.0,325.0,242.0,0
85.0,-79.0,-286.0,-1058.0,-174.0,270.0,0
-12.0,-246.0,-152.0,-2293.0,-1033.0,393.0,0
-58.0,-401.0,-52.0,-2943.0,-1950.0,566.0,0
-82.0,-607.0,-14.0,-2707.0,-2470.0,669.0,0
-84.0,-758.0,-112.0,-1737.0,-2091.0,637.0,0
-73.0,-843.0,-211.0,-545.0,-900.0,510.0,0
-98.0,-842.0,-285.0,400.0,369.0,216.0,0
-142.0,-782.0,-319.0,795.0,982.0,-315.0,0
-183.0,-664.0,-296.0,658.0,702.0,-1045.0,0
-146.0,-554.0,-290.0,483.0,115.0,-1387.0,0
-95.0,-496.0,-300.0,625.0,-318.0,-1402.0,0
-20.0,-444.0,-302.0,915.0,-447.0,-1244.0,0
44.0,-405.0,-292.0,1171.0,-329.0,-1034.0,0
90.0,-373.0,-272.0,1282.0,-134.0,-810.0,0
124.0,-348.0,-241.0,1262.0,-9.0,-562.0,0
157.0,-327.0,-212.0,1143.0,25.0,-282.0,0
180.0,-330.0,-187.0,950.0,9.0,0.0,0
196.0,-339.0,-178.0,711.0,-18.0,226.0,0
198.0,-353.0,-175.0,464.0,-25.0,381.0,0
185.0,-370.0,-176.0,191.0,-17.0,431.0,0
160.0,-388.0,-182.0,7.0,-12.0,429.0,0
114.0,-408.0,-176.0,-104.0,1.0,399.0,0
64.0,-419.0,-170.0,-121.0,36.0,370.0,0
21.0,-427.0,-158.0,-40.0,93.0,342.0,0
-4.0,-427.0,-140.0,100.0,157.0,302.0,0
-24.0,-418.0,-129.0,244.0,209.0,259.0,0
-28.0,-412.0,-122.0,346.0,245.0,226.0,0
-37.0,-394.0,-110.0,395.0,272.0,200.0,0
-38.0,-380.0,-104.0,404.0,290.0,180.0,0
-38.0,-356.0,-90.0,381.0,310.0,182.0,0
-26.0,-335.0,-88.0,354.0,327.0,197.0,0
-12.0,-314.0,-77.0,341.0,353.0,224.0,0
4.0,-290.0,-65.0,349.0,385.0,268.0,0
19.0,-261.0,-60.0,385.0,419.0,331.0,0
30.0,-243.0,-58.0,442.0,453.0,405.0,0
38.0,-213.0,-47.0,506.0,482.0,493.0,0
37.0,-191.0,-39.0,562.0,507.0,574.0,0
39.0,-167.0,-36.0,600.0,522.0,644.0,0
27.0,-148.0,-34.0,612.0,535.0,706.0,0
19.0,-131.0,-29.0,588.0,544.0,746.0,0
11.0,-120.0,-28.0,539.0,549.0,776.0,0
3.0,-109.0,-28.0,472.0,561.0,793.0,0
-5.0,-101.0,-28.0,390.0,582.0,797.0,0
-3.0,-98.0,-29.0,305.0,607.0,802.0,0
-7.0,-88.0,-30.0,233.0,633.0,791.0,0
-10.0,-85.0,-28.0,170.0,660.0,761.0,0
-12.0,-85.0,-29.0,106.0,685.0,717.0,0
-12.0,-85.0,-24.0,46.0,703.0,674.0,0
-13.0,-84.0,-18.0,5.0,708.0,632.0,0
-11.0,-90.0,-18.0,-14.0,703.0,605.0,0
-11.0,-94.0,-11.0,-7.0,688.0,566.0,0
-13.0,-100.0,-6.0,18.0,664.0,522.0,0
-16.0,-103.0,-2.0,53.0,642.0,488.0,0
-19.0,-109.0,8.0,105.0,627.0,458.0,0
-26.0,-108.0,8.0,179.0,618.0,424.0,0
-24.0,-107.0,7.0,261.0,610.0,389.0,0
-29.0,-105.0,5.0,346.0,601.0,356.0,0
-29.0,-103.0,8.0,426.0,585.0,338.0,0
-33.0,-105.0,8.0,491.0,557.0,327.0,0
-39.0,-103.0,5.0,547.0,510.0,328.0,0
-42.0,-103.0,7.0,575.0,464.0,327.0,0
-45.0,-100.0,3.0,581.0,415.0,325.0,0
-50.0,-98.0,-3.0,571.0,371.0,316.0,0
-50.0,-97.0,-6.0,558.0,339.0,306.0,0
-52.0,-94.0,-12.0,546.0,320.0,280.0,0
-52.0,-99.0,-15.0,535.0,317.0,250.0,0
-52.0,-103.0,-8.0,530.0,327.0,207.0,0
-51.0,-105.0,-2.0,536.0,341.0,166.0,0
-56.0,-114.0,5.0,559.0,352.0,119.0,0
-57.0,-122.0,14.0,593.0,337.0,73.0,0
-59.0,-132.0,22.0,642.0,300.0,35.0,0
-64.0,-144.0,32.0,685.0,241.0,10.0,0
-57.0,-156.0,36.0,726.0,175.0,-12.0,0
-60.0,-168.0,38.0,766.0,125.0,-20.0,0
-54.0,-181.0,40.0,802.0,97.0,-21.0,0
-45.0,-191.0,39.0,835.0,96.0,-9.0,0
-37.0,-202.0,48.0,867.0,117.0,6.0,0
-35.0,-215.0,53.0,904.0,141.0,35.0,0
-41.0,-225.0,54.0,958.0,147.0,69.0,0
-57.0,-232.0,39.0,1038.0,93.0,134.0,0
-79.0,-239.0,14.0,1138.0,-12.0,187.0,0
-99.0,-247.0,-2.0,1185.0,-175.0,235.0,0
-108.0,-274.0,-37.0,1175.0,-387.0,237.0,0
-105.0,-294.0,-123.0,1066.0,-615.0,191.0,0
-128.0,-283.0,-294.0,732.0,-868.0,200.0,0
-85.0,-274.0,-475.0,1.0,-1102.0,404.0,0
36.0,-331.0,-559.0,-1166.0,-1067.0,775.0,0
88.0,-429.0,-457.0,-2443.0,-540.0,1188.0,0
78.0,-518.0,-297.0,-3252.0,213.0,1450.0,0
61.0,-621.0,-121.0,-3223.0,641.0,1511.0,0
72.0,-694.0,-69.0,-2328.0,529.0,1471.0,0
111.0,-712.0,-107.0,-1349.0,153.0,1403.0,0
143.0,-685.0,-176.0,-486.0,-231.0,1239.0,0
144.0,-613.0,-231.0,186.0,-451.0,988.0,0
128.0,-533.0,-250.0,705.0,-399.0,715.0,0
102.0,-467.0,-238.0,1086.0,-109.0,470.0,0
69.0,-420.0,-220.0,1313.0,270.0,245.0,0
22.0,-365.0,-188.0,1384.0,616.0,55.0,0
-19.0,-324.0,-166.0,1313.0,881.0,-105.0,0
-56.0,-291.0,-148.0,1126.0,1060.0,-251.0,0
-84.0,-268.0,-137.0,817.0,1180.0,-344.0,0
-109.0,-254.0,-131.0,561.0,1207.0,-401.0,0
-123.0,-248.0,-125.0,343.0,1182.0,-430.0,0
-129.0,-249.0,-110.0,178.0,1119.0,-431.0,0
-124.0,-251.0,-99.0,77.0,1021.0,-428.0,0
-119.0,-260.0,-85.0,30.0,911.0,-422.0,0
-111.0,-263.0,-75.0,21.0,797.0,-430.0,0
-97.0,-276.0,-65.0,22.0,688.0,-433.0,0
-83.0,-284.0,-62.0,19.0,590.0,-437.0,0
-63.0,-287.0,-53.0,8.0,506.0,-433.0,0
-44.0,-281.0,-54.0,-9.0,414.0,-440.0,0
-28.0,-268.0,-55.0,-14.0,335.0,-454.0,0
-17.0,-260.0,-58.0,-12.0,250.0,-482.0,0
-4.0,-243.0,-58.0,-19.0,170.0,-517.0,0
8.0,-224.0,-59.0,-34.0,96.0,-546.0,0
21.0,-207.0,-60.0,-54.0,32.0,-538.0,0
25.0,-191.0,-56.0,-77.0,-23.0,-519.0,0
21.0,-176.0,-60.0,-99.0,-67.0,-490.0,0
22.0,-167.0,-54.0,-122.0,-104.0,-460.0,0
22.0,-160.0,-49.0,-145.0,-127.0,-423.0,0
12.0,-154.0,-54.0,-167.0,-144.0,-384.0,0
5.0,-154.0,-52.0,-191.0,-151.0,-355.0,0
-5.0,-150.0,-51.0,-210.0,-159.0,-339.0,0
-13.0,-142.0,-49.0,-227.0,-172.0,-326.0,0
-22.0,-146.0,-52.0,-239.0,-197.0,-319.0,0
-27.0,-149.0,-56.0,-264.0,-234.0,-329.0,0
-32.0,-152.0,-56.0,-309.0,-271.0,-352.0,0
-36.0,-156.0,-52.0,-360.0,-311.0,-368.0,0
-37.0,-162.0,-45.0,-400.0,-356.0,-382.0,0
-41.0,-170.0,-44.0,-423.0,-407.0,-384.0,0
-39.0,-180.0,-40.0,-427.0,-465.0,-386.0,0
-35.0,-188.0,-33.0,-411.0,-509.0,-385.0,0
-27.0,-195.0,-36.0,-384.0,-545.0,-390.0,0
-20.0,-196.0,-33.0,-348.0,-571.0,-383.0,0
-11.0,-197.0,-33.0,-312.0,-592.0,-378.0,0
-5.0,-198.0,-34.0,-273.0,-606.0,-368.0,0
3.0,-197.0,-33.0,-237.0,-612.0,-358.0,0
8.0,-196.0,-36.0,-200.0,-615.0,-342.0,0
20.0,-196.0,-37.0,-173.0,-615.0,-324.0,0
27.0,-197.0,-39.0,-154.0,-606.0,-310.0,0
35.0,-195.0,-34.0,-142.0,-584.0,-286.0,0
44.0,-195.0,-29.0,-132.0,-548.0,-258.0,0
51.0,-197.0,-25.0,-128.0,-513.0,-238.0,0
52.0,-196.0,-22.0,-126.0,-475.0,-214.0,0
58.0,-200.0,-12.0,-131.0,-438.0,-193.0,0
60.0,-208.0,-10.0,-139.0,-397.0,-169.0,0
60.0,-213.0,-6.0,-148.0,-357.0,-150.0,0
53.0,-216.0,1.0,-155.0,-319.0,-134.0,0
49.0,-220.0,1.0,-162.0,-286.0,-123.0,0
48.0,-228.0,8.0,-168.0,-259.0,-113.0,0
37.0,-230.0,8.0,-170.0,-244.0,-107.0,0
32.0,-236.0,6.0,-173.0,-238.0,-98.0,0
26.0,-235.0,7.0,-175.0,-245.0,-87.0,0
18.0,-238.0,7.0,-175.0,-254.0,-69.0,0
6.0,-242.0,2.0,-174.0,-263.0,-52.0,0
3.0,-241.0,0.0,-174.0,-270.0,-29.0,0
-1.0,-245.0,0.0,-173.0,-276.0,-6.0,0
-8.0,-245.0,-1.0,-171.0,-281.0,15.0,0
-7.0,-247.0,-8.0,-177.0,-284.0,38.0,0
-5.0,-246.0,-7.0,-183.0,-282.0,56.0,0
-2.0,-248.0,-10.0,-191.0,-271.0,72.0,0
0.0,-250.0,-9.0,-200.0,-257.0,85.0,0
3.0,-255.0,-5.0,-209.0,-246.0,90.0,0
4.0,-257.0,-2.0,-208.0,-240.0,96.0,0
13.0,-256.0,-5.0,-197.0,-239.0,96.0,0
14.0,-254.0,-6.0,-183.0,-240.0,99.0,0
19.0,-259.0,-11.0,-165.0,-241.0,101.0,0
23.0,-257.0,-10.0,-146.0,-234.0,104.0,0
28.0,-258.0,-18.0,-133.0,-214.0,107.0,0
37.0,-260.0,-20.0,-122.0,-187.0,106.0,0
36.0,-262.0,-26.0,-118.0,-153.0,106.0,0
44.0,-268.0,-25.0,-110.0,-110.0,104.0,0
47.0,-275.0,-27.0,-90.0,-70.0,99.0,0
49.0,-278.0,-21.0,-60.0,-27.0,94.0,0
52.0,-288.0,-26.0,-15.0,23.0,80.0,0
52.0,-287.0,-15.0,44.0,73.0,65.0,0
47.0,-289.0,-7.0,123.0,118.0,51.0,0
49.0,-287.0,-1.0,213.0,157.0,35.0,0
44.0,-287.0,6.0,307.0,188.0,16.0,0
40.0,-284.0,10.0,397.0,216.0,-7.0,0
36.0,-283.0,15.0,478.0,243.0,-34.0,0
33.0,-274.0,19.0,549.0,261.0,-69.0,0
25.0,-273.0,29.0,620.0,275.0,-101.0,0
18.0,-266.0,40.0,670.0,274.0,-130.0,0
6.0,-262.0,54.0,711.0,268.0,-152.0,0
-7.0,-250.0,59.0,744.0,251.0,-167.0,0
-13.0,-241.0,67.0,767.0,223.0,-175.0,0
-23.0,-230.0,69.0,777.0,186.0,-181.0,0
-27.0,-225.0,74.0,768.0,145.0,-181.0,0
-35.0,-217.0,67.0,743.0,111.0,-187.0,0
-35.0,-215.0,56.0,697.0,86.0,-190.0,0
-45.0,-214.0,44.0,614.0,63.0,-191.0,0
-50.0,-228.0,24.0,465.0,23.0,-186.0,0
-42.0,-251.0,-5.0,308.0,-20.0,-182.0,0
-30.0,-284.0,-35.0,134.0,-69.0,-197.0,0
-7.0,-332.0,-87.0,-66.0,-116.0,-246.0,0
37.0,-372.0,-172.0,-324.0,-140.0,-341.0,0
83.0,-407.0,-271.0,-660.0,-89.0,-507.0,0
105.0,-436.0,-314.0,-1040.0,80.0,-743.0,0
94.0,-456.0,-328.0,-1349.0,338.0,-1006.0,0
69.0,-477.0,-278.0,-1430.0,577.0,-1189.0,0
41.0,-485.0,-221.0,-1218.0,674.0,-1259.0,0
15.0,-476.0,-183.0,-780.0,648.0,-1196.0,0
-5.0,-452.0,-166.0,-116.0,626.0,-1078.0,0
-23.0,-403.0,-151.0,412.0,646.0,-951.0,0
-38.0,-345.0,-142.0,823.0,683.0,-814.0,0
-47.0,-302.0,-139.0,1083.0,696.0,-671.0,0
-57.0,-246.0,-134.0,1188.0,657.0,-538.0,0
-64.0,-195.0,-122.0,1167.0,581.0,-409.0,0
-67.0,-159.0,-113.0,1062.0,474.0,-287.0,0
-65.0,-144.0,-98.0,922.0,347.0,-165.0,0
-56.0,-139.0,-83.0,776.0,215.0,-53.0,0
-50.0,-151.0,-73.0,649.0,75.0,66.0,0
-43.0,-165.0,-56.0,535.0,-96.0,147.0,0
-38.0,-179.0,-49.0,475.0,-236.0,219.0,0
-30.0,-196.0,-42.0,437.0,-369.0,279.0,0
-21.0,-210.0,-42.0,416.0,-478.0,333.0,0
-11.0,-226.0,-44.0,398.0,-557.0,375.0,0
-5.0,-234.0,-47.0,370.0,-600.0,404.0,0
4.0,-240.0,-51.0,330.0,-601.0,411.0,0
12.0,-246.0,-48.0,280.0,-570.0,404.0,0
14.0,-253.0,-52.0,228.0,-512.0,377.0,0
22.0,-257.0,-49.0,179.0,-441.0,340.0,0
24.0,-262.0,-46.0,139.0,-345.0,298.0,0
32.0,-267.0,-42.0,125.0,-265.0,256.0,0
34.0,-269.0,-42.0,127.0,-188.0,211.0,0
38.0,-264.0,-52.0,139.0,-117.0,178.0,0
35.0,-260.0,-56.0,158.0,-53.0,151.0,0
34.0,-243.0,-62.0,177.0,7.0,140.0,0
39.0,-242.0,-64.0,194.0,65.0,137.0,0
36.0,-228.0,-73.0,200.0,128.0,150.0,0
33.0,-216.0,-70.0,195.0,192.0,167.0,0
27.0,-211.0,-61.0,180.0,255.0,194.0,0
21.0,-204.0,-51.0,166.0,318.0,215.0,0
14.0,-201.0,-51.0,144.0,356.0,230.0,0
13.0,-204.0,-46.0,115.0,385.0,240.0,0
11.0,-205.0,-41.0,76.0,407.0,250.0,0
9.0,-207.0,-45.0,28.0,425.0,253.0,0
7.0,-212.0,-37.0,-23.0,438.0,260.0,0
10.0,-214.0,-38.0,-66.0,449.0,261.0,0
9.0,-220.0,-34.0,-97.0,458.0,270.0,0
13.0,-225.0,-34.0,-118.0,471.0,280.0,0
17.0,-230.0,-28.0,-133.0,482.0,299.0,0
19.0,-233.0,-26.0,-142.0,498.0,320.0,0
19.0,-241.0,-25.0,-153.0,517.0,347.0,0
24.0,-245.0,-26.0,-161.0,536.0,371.0,0
13.0,-247.0,-25.0,-166.0,561.0,397.0,0
14.0,-252.0,-29.0,-170.0,575.0,420.0,0
7.0,-252.0,-31.0,-160.0,583.0,430.0,0
1.0,-245.0,-39.0,-152.0,595.0,423.0,0
-3.0,-240.0,-43.0,-152.0,604.0,418.0,0
-6.0,-235.0,-44.0,-162.0,613.0,414.0,0
-12.0,-231.0,-44.0,-179.0,622.0,418.0,0
-19.0,-226.0,-42.0,-198.0,624.0,407.0,0
-26.0,-225.0,-41.0,-212.0,625.0,392.0,0
-32.0,-223.0,-40.0,-215.0,626.0,371.0,0
-38.0,-220.0,-32.0,-203.0,627.0,354.0,0
-47.0,-214.0,-32.0,-185.0,629.0,329.0,0
-50.0,-213.0,-26.0,-174.0,621.0,307.0,0
-54.0,-210.0,-20.0,-177.0,605.0,276.0,0
-61.0,-208.0,-25.0,-198.0,588.0,249.0,0
-59.0,-205.0,-20.0,-230.0,568.0,221.0,0
-56.0,-206.0,-21.0,-263.0,539.0,193.0,0
-53.0,-212.0,-22.0,-290.0,502.0,163.0,0
-47.0,-215.0,-18.0,-312.0,457.0,135.0,0
-41.0,-223.0,-17.0,-322.0,423.0,108.0,0
-35.0,-231.0,-13.0,-323.0,394.0,88.0,0
-29.0,-243.0,-11.0,-313.0,366.0,66.0,0
-29.0,-248.0,-14.0,-295.0,334.0,50.0,0
-24.0,-256.0,-13.0,-266.0,296.0,32.0,0
-22.0,-260.0,-8.0,-227.0,258.0,22.0,0
-19.0,-262.0,-7.0,-171.0,225.0,11.0,0
-22.0,-263.0,-1.0,-100.0,209.0,4.0,0
-21.0,-265.0,-1.0,-15.0,199.0,-6.0,0
-19.0,-260.0,2.0,68.0,197.0,-11.0,0
-21.0,-256.0,-1.0,156.0,199.0,-21.0,0
-23.0,-249.0,-1.0,214.0,197.0,-26.0,0
-28.0,-243.0,4.0,258.0,189.0,-31.0,0
-28.0,-236.0,-3.0,284.0,169.0,-29.0,0
-32.0,-235.0,-1.0,292.0,142.0,-29.0,0
-37.0,-237.0,-2.0,281.0,110.0,-26.0,0
-42.0,-238.0,-1.0,255.0,79.0,-28.0,0
-44.0,-245.0,6.0,226.0,51.0,-26.0,0
-52.0,-246.0,8.0,201.0,22.0,-28.0,0
-50.0,-254.0,10.0,192.0,-8.0,-27.0,0
-50.0,-260.0,11.0,210.0,-47.0,-32.0,0
-40.0,-254.0,25.0,246.0,-83.0,-35.0,0
-51.0,-260.0,14.0,292.0,-119.0,-43.0,0
-52.0,-258.0,13.0,338.0,-151.0,-49.0,0
-49.0,-259.0,12.0,376.0,-178.0,-55.0,0
-41.0,-252.0,10.0,403.0,-191.0,-51.0,0
-35.0,-252.0,14.0,415.0,-190.0,-46.0,0
-22.0,-253.0,15.0,411.0,-168.0,-34.0,0
-12.0,-250.0,20.0,400.0,-133.0,-30.0,0
1.0,-253.0,28.0,381.0,-98.0,-31.0,0
14.0,-255.0,46.0,366.0,-60.0,-37.0,0
25.0,-260.0,52.0,361.0,-35.0,-36.0,0
36.0,-267.0,68.0,361.0,-13.0,-32.0,0
42.0,-274.0,72.0,369.0,4.0,-15.0,0
42.0,-280.0,69.0,378.0,17.0,6.0,0
43.0,-282.0,68.0,385.0,24.0,38.0,0
35.0,-291.0,54.0,395.0,28.0,66.0,0
18.0,-309.0,41.0,407.0,31.0,96.0,0
-16.0,-330.0,15.0,409.0,38.0,128.0,0
-44.0,-359.0,-14.0,373.0,66.0,177.0,0
-55.0,-388.0,-60.0,248.0,159.0,246.0,0
-54.0,-418.0,-102.0,-48.0,268.0,292.0,0
-40.0,-437.0,-124.0,-396.0,346.0,329.0,0
-12.0,-459.0,-138.0,-741.0,347.0,397.0,0
1.0,-481.0,-126.0,-950.0,294.0,511.0,0
-7.0,-492.0,-98.0,-916.0,219.0,666.0,0
-12.0,-485.0,-72.0,-652.0,114.0,813.0,0
-12.0,-458.0,-69.0,-247.0,-25.0,912.0,0
-4.0,-412.0,-77.0,182.0,-147.0,967.0,0
4.0,-358.0,-91.0,546.0,-216.0,967.0,0
11.0,-311.0,-105.0,805.0,-203.0,882.0,0
18.0,-249.0,-119.0,972.0,-130.0,748.0,0
31.0,-195.0,-133.0,1002.0,-16.0,570.0,0
38.0,-147.0,-143.0,951.0,136.0,384.0,0
40.0,-116.0,-152.0,828.0,311.0,211.0,0
39.0,-102.0,-148.0,648.0,493.0,65.0,0
30.0,-104.0,-146.0,415.0,663.0,-62.0,0
20.0,-122.0,-136.0,145.0,809.0,-166.0,0
16.0,-136.0,-123.0,-134.0,929.0,-242.0,0
2.0,-163.0,-106.0,-369.0,1019.0,-292.0,0
-12.0,-189.0,-84.0,-527.0,1074.0,-324.0,0
-25.0,-215.0,-68.0,-588.0,1072.0,-333.0,0
-39.0,-230.0,-63.0,-556.0,1032.0,-329.0,0
-49.0,-245.0,-63.0,-474.0,961.0,-312.0,0
-62.0,-254.0,-59.0,-378.0,874.0,-291.0,0
-69.0,-256.0,-59.0,-283.0,783.0,-267.0,0
-76.0,-255.0,-57.0,-196.0,688.0,-237.0,0
-81.0,-259.0,-60.0,-109.0,593.0,-208.0,0
-81.0,-258.0,-54.0,-20.0,493.0,-180.0,0
-79.0,-252.0,-53.0,74.0,393.0,-157.0,0
-77.0,-244.0,-49.0,178.0,297.0,-139.0,0
-75.0,-227.0,-48.0,308.0,186.0,-138.0,0
-68.0,-213.0,-51.0,404.0,99.0,-147.0,0
-63.0,-196.0,-49.0,472.0,15.0,-164.0,0
-57.0,-189.0,-47.0,505.0,-64.0,-188.0,0
-54.0,-176.0,-44.0,494.0,-142.0,-215.0,0
-48.0,-169.0,-45.0,444.0,-218.0,-234.0,0
-45.0,-166.0,-42.0,353.0,-296.0,-248.0,0
-46.0,-172.0,-46.0,222.0,-372.0,-264.0,0
-39.0,-184.0,-45.0,72.0,-441.0,-278.0,0
-33.0,-196.0,-42.0,-78.0,-503.0,-266.0,0
-21.0,-210.0,-40.0,-244.0,-560.0,-249.0,0
-13.0,-225.0,-40.0,-358.0,-591.0,-235.0,0
-5.0,-242.0,-39.0,-448.0,-605.0,-224.0,0
-1.0,-256.0,-41.0,-504.0,-604.0,-212.0,0
7.0,-267.0,-36.0,-531.0,-598.0,-202.0,0
10.0,-277.0,-38.0,-532.0,-589.0,-184.0,0
14.0,-284.0,-40.0,-508.0,-578.0,-169.0,0
12.0,-287.0,-39.0,-466.0,-565.0,-151.0,0
14.0,-289.0,-37.0,-405.0,-553.0,-137.0,0
13.0,-287.0,-41.0,-339.0,-538.0,-123.0,0
14.0,-282.0,-39.0,-261.0,-516.0,-121.0,0
14.0,-280.0,-39.0,-211.0,-495.0,-119.0,0
10.0,-272.0,-40.0,-177.0,-475.0,-131.0,0
11.0,-264.0,-36.0,-159.0,-451.0,-149.0,0
15.0,-261.0,-31.0,-153.0,-422.0,-178.0,0
14.0,-259.0,-30.0,-156.0,-394.0,-205.0,0
19.0,-254.0,-31.0,-164.0,-368.0,-232.0,0
21.0,-248.0,-30.0,-174.0,-346.0,-258.0,0
24.0,-246.0,-31.0,-187.0,-327.0,-288.0,0
29.0,-244.0,-28.0,-209.0,-308.0,-306.0,0
29.0,-240.0,-30.0,-236.0,-289.0,-321.0,0
33.0,-240.0,-31.0,-264.0,-273.0,-323.0,0
36.0,-240.0,-32.0,-295.0,-255.0,-320.0,0
33.0,-238.0,-32.0,-324.0,-234.0,-309.0,0
32.0,-234.0,-35.0,-351.0,-211.0,-299.0,0
30.0,-234.0,-32.0,-373.0,-185.0,-282.0,0
25.0,-235.0,-33.0,-391.0,-164.0,-266.0,0
22.0,-235.0,-35.0,-405.0,-146.0,-244.0,0
20.0,-233.0,-33.0,-413.0,-131.0,-229.0,0
12.0,-235.0,-35.0,-416.0,-124.0,-208.0,0
6.0,-234.0,-33.0,-417.0,-120.0,-187.0,0
4.0,-234.0,-28.0,-414.0,-125.0,-166.0,0
2.0,-235.0,-26.0,-406.0,-131.0,-150.0,0
-4.0,-234.0,-27.0,-397.0,-143.0,-129.0,0
-5.0,-235.0,-24.0,-386.0,-157.0,-113.0,0
-5.0,-238.0,-22.0,-374.0,-170.0,-96.0,0
-5.0,-241.0,-20.0,-365.0,-184.0,-82.0,0
-6.0,-240.0,-19.0,-352.0,-196.0,-65.0,0
-2.0,-240.0,-15.0,-338.0,-207.0,-53.0,0
-5.0,-246.0,-19.0,-322.0,-215.0,-39.0,0
-3.0,-246.0,-19.0,-306.0,-222.0,-26.0,0
2.0,-245.0,-20.0,-287.0,-226.0,-13.0,0
8.0,-245.0,-15.0,-267.0,-226.0,-8.0,0
8.0,-245.0,-15.0,-244.0,-221.0,0.0,0
12.0,-244.0,-13.0,-223.0,-216.0,3.0,0
14.0,-241.0,-14.0,-207.0,-209.0,12.0,0
16.0,-241.0,-13.0,-194.0,-198.0,16.0,0
15.0,-243.0,-12.0,-187.0,-184.0,22.0,0
18.0,-245.0,-9.0,-181.0,-168.0,25.0,0
17.0,-247.0,-11.0,-175.0,-151.0,31.0,0
17.0,-247.0,-7.0,-167.0,-129.0,36.0,0
20.0,-247.0,-8.0,-152.0,-112.0,43.0,0
20.0,-251.0,-3.0,-135.0,-94.0,47.0,0
21.0,-252.0,-5.0,-111.0,-75.0,56.0,0
22.0,-253.0,-6.0,-83.0,-51.0,60.0,0
23.0,-251.0,-8.0,-56.0,-28.0,70.0,0
25.0,-250.0,-4.0,-33.0,-9.0,75.0,0
26.0,-247.0,-6.0,-16.0,5.0,85.0,0
26.0,-250.0,-6.0,-7.0,14.0,89.0,0
27.0,-250.0,-2.0,-3.0,12.0,99.0,0
23.0,-254.0,-4.0,-6.0,4.0,106.0,0
24.0,-258.0,-5.0,-16.0,-6.0,117.0,0
21.0,-259.0,0.0,-29.0,-15.0,123.0,0
18.0,-259.0,2.0,-37.0,-21.0,133.0,0
15.0,-262.0,8.0,-36.0,-26.0,135.0,0
14.0,-266.0,8.0,-27.0,-31.0,140.0,0
7.0,-265.0,8.0,-5.0,-38.0,138.0,0
6.0,-267.0,11.0,24.0,-50.0,137.0,0
1.0,-267.0,11.0,56.0,-68.0,128.0,0
-2.0,-264.0,14.0,85.0,-84.0,123.0,0
-6.0,-260.0,17.0,110.0,-106.0,115.0,0
-10.0,-260.0,16.0,132.0,-122.0,110.0,0
-11.0,-257.0,13.0,137.0,-132.0,99.0,0
-12.0,-255.0,18.0,136.0,-141.0,93.0,0
-12.0,-255.0,19.0,128.0,-151.0,80.0,0
-14.0,-253.0,23.0,121.0,-167.0,73.0,0
-13.0,-257.0,26.0,115.0,-185.0,65.0,0
-16.0,-260.0,27.0,117.0,-208.0,64.0,0
-12.0,-261.0,30.0,125.0,-231.0,60.0,0
-14.0,-260.0,25.0,136.0,-251.0,61.0,0
-16.0,-261.0,29.0,144.0,-277.0,59.0,0
-14.0,-263.0,27.0,141.0,-307.0,66.0,0
-18.0,-265.0,22.0,132.0,-348.0,68.0,0
-23.0,-273.0,20.0,114.0,-398.0,77.0,0
-24.0,-284.0,17.0,86.0,-458.0,82.0,0
-25.0,-299.0,7.0,46.0,-516.0,90.0,0
-19.0,-318.0,-24.0,-19.0,-563.0,84.0,0
-14.0,-331.0,-46.0,-119.0,-584.0,64.0,0
-5.0,-351.0,-74.0,-264.0,-558.0,12.0,0
5.0,-371.0,-108.0,-447.0,-482.0,-72.0,0
17.0,-389.0,-120.0,-632.0,-352.0,-219.0,0
22.0,-406.0,-126.0,-783.0,-150.0,-358.0,0
25.0,-419.0,-117.0,-798.0,29.0,-501.0,0
24.0,-417.0,-107.0,-704.0,186.0,-624.0,0
23.0,-397.0,-104.0,-528.0,303.0,-728.0,0
20.0,-381.0,-99.0,-317.0,383.0,-791.0,0
18.0,-352.0,-95.0,-113.0,439.0,-813.0,0
11.0,-324.0,-88.0,71.0,481.0,-798.0,0
6.0,-294.0,-82.0,226.0,505.0,-760.0,0
3.0,-268.0,-77.0,347.0,506.0,-697.0,0
-3.0,-239.0,-75.0,439.0,482.0,-608.0,0
-10.0,-217.0,-74.0,511.0,421.0,-519.0,0
-12.0,-198.0,-77.0,547.0,351.0,-437.0,0
-17.0,-182.0,-79.0,558.0,269.0,-355.0,0
-22.0,-166.0,-83.0,546.0,180.0,-282.0,0
-27.0,-149.0,-83.0,513.0,82.0,-214.0,0
-29.0,-142.0,-82.0,462.0,-21.0,-158.0,0
-32.0,-137.0,-89.0,393.0,-123.0,-104.0,0
-30.0,-135.0,-87.0,315.0,-220.0,-55.0,0
-24.0,-142.0,-84.0,230.0,-308.0,-15.0,0
-26.0,-147.0,-86.0,142.0,-376.0,16.0,0
-18.0,-158.0,-82.0,58.0,-433.0,41.0,0
-12.0,-169.0,-80.0,-27.0,-467.0,49.0,0
-11.0,-180.0,-80.0,-89.0,-487.0,52.0,0
-7.0,-193.0,-84.0,-140.0,-493.0,45.0,0
-6.0,-202.0,-85.0,-181.0,-487.0,36.0,0
-3.0,-216.0,-80.0,-207.0,-473.0,22.0,0
-4.0,-227.0,-81.0,-216.0,-453.0,9.0,0
-5.0,-233.0,-82.0,-210.0,-426.0,-4.0,0
-5.0,-244.0,-82.0,-188.0,-398.0,-15.0,0
-2.0,-253.0,-79.0,-148.0,-359.0,-24.0,0
0.0,-259.0,-82.0,-102.0,-304.0,-32.0,0
8.0,-262.0,-86.0,-43.0,-246.0,-36.0,0
11.0,-264.0,-84.0,7.0,-177.0,-36.0,0
15.0,-264.0,-82.0,53.0,-103.0,-34.0,0
18.0,-262.0,-82.0,90.0,-35.0,-26.0,0
20.0,-265.0,-81.0,116.0,28.0,-16.0,0
18.0,-264.0,-75.0,133.0,85.0,-2.0,0
14.0,-267.0,-71.0,143.0,136.0,17.0,0
18.0,-272.0,-65.0,147.0,181.0,35.0,0
13.0,-277.0,-60.0,149.0,215.0,54.0,0
12.0,-283.0,-56.0,146.0,244.0,74.0,0
7.0,-285.0,-56.0,140.0,259.0,92.0,0
5.0,-292.0,-51.0,133.0,271.0,115.0,0
4.0,-293.0,-48.0,131.0,278.0,138.0,0
-2.0,-296.0,-51.0,139.0,281.0,159.0,0
-9.0,-293.0,-51.0,155.0,281.0,183.0,0
-12.0,-288.0,-50.0,178.0,278.0,208.0,0
-14.0,-280.0,-51.0,200.0,268.0,228.0,0
-18.0,-272.0,-52.0,218.0,257.0,241.0,0
-19.0,-264.0,-53.0,222.0,242.0,255.0,0
-24.0,-255.0,-50.0,214.0,224.0,268.0,0
-25.0,-253.0,-49.0,190.0,201.0,279.0,0
-23.0,-247.0,-45.0,168.0,183.0,284.0,0
-27.0,-236.0,-45.0,144.0,167.0,285.0,0
-29.0,-235.0,-43.0,120.0,148.0,282.0,0
-25.0,-233.0,-37.0,92.0,127.0,277.0,0
-25.0,-226.0,-33.0,61.0,108.0,267.0,0
-21.0,-225.0,-33.0,30.0,93.0,258.0,0
-19.0,-222.0,-33.0,-2.0,82.0,246.0,0
-17.0,-222.0,-36.0,-33.0,77.0,237.0,0
-13.0,-221.0,-34.0,-63.0,76.0,227.0,0
-12.0,-221.0,-36.0,-99.0,81.0,222.0,0
-12.0,-221.0,-37.0,-129.0,93.0,216.0,0
-14.0,-217.0,-42.0,-162.0,109.0,212.0,0
-13.0,-220.0,-39.0,-198.0,130.0,208.0,0
-12.0,-218.0,-40.0,-233.0,153.0,209.0,0
-13.0,-223.0,-37.0,-268.0,172.0,213.0,0
-13.0,-227.0,-41.0,-287.0,186.0,211.0,0
-18.0,-230.0,-40.0,-293.0,194.0,203.0,0
-12.0,-231.0,-45.0,-290.0,201.0,198.0,0
-12.0,-231.0,-46.0,-284.0,207.0,189.0,0
-12.0,-235.0,-43.0,-273.0,218.0,180.0,0
-11.0,-235.0,-42.0,-264.0,224.0,167.0,0
-7.0,-239.0,-39.0,-254.0,233.0,155.0,0
-6.0,-240.0,-39.0,-237.0,243.0,139.0,0
-9.0,-242.0,-31.0,-218.0,249.0,128.0,0
-6.0,-241.0,-28.0,-192.0,252.0,116.0,0
-4.0,-246.0,-26.0,-164.0,257.0,108.0,0
1.0,-246.0,-25.0,-137.0,258.0,93.0,0
-1.0,-247.0,-20.0,-114.0,260.0,84.0,0
-3.0,-241.0,-23.0,-93.0,263.0,71.0,0
0.0,-246.0,-24.0,-78.0,270.0,64.0,0
0.0,-245.0,-23.0,-72.0,276.0,56.0,0
-3.0,-244.0,-23.0,-68.0,286.0,53.0,0
-1.0,-249.0,-18.0,-70.0,295.0,47.0,0
-5.0,-246.0,-21.0,-71.0,306.0,46.0,0
-5.0,-248.0,-17.0,-68.0,314.0,43.0,0
-4.0,-251.0,-13.0,-63.0,322.0,44.0,0
-6.0,-250.0,-7.0,-50.0,327.0,38.0,0
-10.0,-254.0,-6.0,-31.0,327.0,37.0,0
-8.0,-250.0,-9.0,-12.0,322.0,34.0,0
-10.0,-249.0,-3.0,15.0,311.0,33.0,0
-11.0,-249.0,-4.0,32.0,303.0,29.0,0
-12.0,-246.0,0.0,46.0,293.0,25.0,0
-13.0,-245.0,1.0,52.0,285.0,18.0,0
-13.0,-243.0,-2.0,51.0,279.0,13.0,0
-12.0,-240.0,-2.0,44.0,276.0,1.0,0
-12.0,-242.0,5.0,33.0,276.0,-6.0,0
-14.0,-237.0,6.0,20.0,277.0,-18.0,0
-12.0,-241.0,2.0,7.0,282.0,-27.0,0
-12.0,-239.0,3.0,-7.0,286.0,-42.0,0
-11.0,-242.0,9.0,-19.0,290.0,-56.0,0
-12.0,-242.0,5.0,-37.0,294.0,-68.0,0
-12.0,-244.0,4.0,-53.0,292.0,-80.0,0
-15.0,-247.0,6.0,-70.0,289.0,-97.0,0
-13.0,-252.0,0.0,-88.0,288.0,-108.0,0
-16.0,-251.0,6.0,-102.0,285.0,-121.0,0
-19.0,-257.0,0.0,-112.0,286.0,-127.0,0
-23.0,-256.0,-1.0,-116.0,287.0,-135.0,0
-25.0,-258.0,1.0,-114.0,285.0,-134.0,0
-30.0,-259.0,0.0,-101.0,281.0,-133.0,0
-33.0,-262.0,2.0,-83.0,273.0,-122.0,0
-31.0,-266.0,8.0,-50.0,264.0,-113.0,0
-36.0,-266.0,8.0,-15.0,251.0,-99.0,0
-34.0,-266.0,9.0,26.0,230.0,-92.0,0
-34.0,-270.0,8.0,66.0,206.0,-82.0,0
-36.0,-272.0,8.0,105.0,176.0,-78.0,0
-33.0,-270.0,8.0,141.0,145.0,-72.0,0
-23.0,-271.0,7.0,174.0,112.0,-68.0,0
-39.0,-272.0,14.0,201.0,81.0,-58.0,0
-24.0,-264.0,0.0,221.0,52.0,-49.0,0
-22.0,-271.0,8.0,237.0,26.0,-32.0,0
-14.0,-270.0,13.0,264.0,18.0,-21.0,0
-12.0,-271.0,10.0,289.0,18.0,-9.0,0
-6.0,-267.0,18.0,321.0,29.0,-4.0,0
0.0,-274.0,20.0,357.0,46.0,2.0,0
5.0,-267.0,25.0,395.0,64.0,3.0,0
7.0,-264.0,30.0,428.0,83.0,7.0,0
17.0,-261.0,34.0,453.0,104.0,7.0,0
21.0,-260.0,32.0,464.0,129.0,13.0,0
26.0,-261.0,31.0,458.0,162.0,15.0,0
22.0,-263.0,31.0,428.0,200.0,27.0,0
22.0,-277.0,26.0,364.0,228.0,37.0,0
14.0,-295.0,24.0,296.0,256.0,60.0,0
10.0,-323.0,12.0,224.0,292.0,91.0,0
3.0,-347.0,-11.0,147.0,339.0,131.0,0
0.0,-366.0,-33.0,67.0,403.0,157.0,0
2.0,-380.0,-52.0,-18.0,467.0,180.0,0
1.0,-387.0,-70.0,-110.0,501.0,197.0,0
5.0,-389.0,-87.0,-195.0,491.0,227.0,0
-2.0,-387.0,-94.0,-241.0,457.0,286.0,0
-9.0,-387.0,-82.0,-212.0,413.0,403.0,0
-11.0,-377.0,-82.0,-84.0,345.0,499.0,0
-7.0,-355.0,-82.0,48.0,280.0,571.0,0
-7.0,-333.0,-86.0,167.0,235.0,602.0,0
-9.0,-312.0,-91.0,272.0,219.0,599.0,0
-12.0,-284.0,-86.0,363.0,228.0,560.0,0
-19.0,-256.0,-90.0,445.0,249.0,498.0,0
-24.0,-234.0,-94.0,514.0,281.0,411.0,0
-34.0,-210.0,-103.0,550.0,321.0,316.0,0
-37.0,-191.0,-108.0,550.0,369.0,218.0,0
-41.0,-179.0,-111.0,505.0,423.0,119.0,0
-42.0,-177.0,-112.0,393.0,482.0,42.0,0
-41.0,-182.0,-114.0,267.0,524.0,-15.0,0
-41.0,-191.0,-96.0,138.0,556.0,-60.0,0
-38.0,-200.0,-87.0,43.0,575.0,-86.0,0
-35.0,-211.0,-83.0,-6.0,587.0,-103.0,0
-29.0,-222.0,-81.0,-16.0,596.0,-116.0,0
-29.0,-224.0,-81.0,0.0,598.0,-130.0,0
-25.0,-226.0,-74.0,22.0,594.0,-139.0,0
-26.0,-227.0,-71.0,40.0,574.0,-146.0,0
-23.0,-226.0,-69.0,51.0,540.0,-141.0,0
-20.0,-225.0,-65.0,54.0,489.0,-136.0,0
-13.0,-229.0,-62.0,52.0,440.0,-128.0,0
-12.0,-229.0,-60.0,45.0,395.0,-123.0,0
-12.0,-227.0,-60.0,35.0,357.0,-116.0,0
-12.0,-228.0,-58.0,23.0,322.0,-114.0,0
-14.0,-226.0,-54.0,8.0,291.0,-110.0,0
-14.0,-225.0,-56.0,-4.0,260.0,-109.0,0
-12.0,-224.0,-55.0,-13.0,224.0,-103.0,0
-12.0,-224.0,-52.0,-23.0,192.0,-102.0,0
-14.0,-222.0,-55.0,-35.0,158.0,-103.0,0
-12.0,-226.0,-46.0,-50.0,119.0,-110.0,0
-17.0,-228.0,-47.0,-70.0,88.0,-120.0,0
-16.0,-234.0,-44.0,-85.0,61.0,-137.0,0
-20.0,-238.0,-34.0,-97.0,31.0,-148.0,0
-21.0,-250.0,-33.0,-106.0,4.0,-160.0,0
-23.0,-255.0,-33.0,-112.0,-19.0,-173.0,0
-19.0,-261.0,-33.0,-110.0,-37.0,-191.0,0
-20.0,-265.0,-34.0,-103.0,-46.0,-210.0,0
-15.0,-264.0,-42.0,-92.0,-54.0,-229.0,0
-13.0,-264.0,-48.0,-83.0,-62.0,-248.0,0
-12.0,-259.0,-52.0,-83.0,-71.0,-270.0,0
-8.0,-258.0,-51.0,-98.0,-73.0,-286.0,0
-8.0,-253.0,-51.0,-119.0,-77.0,-299.0,0
-7.0,-249.0,-52.0,-143.0,-85.0,-310.0,0
-6.0,-247.0,-49.0,-165.0,-95.0,-317.0,0
-6.0,-246.0,-48.0,-189.0,-106.0,-316.0,0
-4.0,-246.0,-46.0,-214.0,-116.0,-313.0,0
-3.0,-246.0,-46.0,-238.0,-124.0,-314.0,0
-2.0,-254.0,-41.0,-261.0,-129.0,-317.0,0
-1.0,-252.0,-40.0,-281.0,-130.0,-320.0,0
2.0,-258.0,-34.0,-292.0,-130.0,-324.0,0
-1.0,-259.0,-33.0,-288.0,-132.0,-326.0,0
0.0,-261.0,-27.0,-268.0,-135.0,-331.0,0
2.0,-261.0,-24.0,-238.0,-144.0,-334.0,0
3.0,-261.0,-21.0,-205.0,-156.0,-338.0,0
3.0,-259.0,-21.0,-170.0,-172.0,-339.0,0
14.0,-259.0,-25.0,-142.0,-187.0,-336.0,0
14.0,-256.0,-28.0,-130.0,-184.0,-347.0,0
17.0,-254.0,-28.0,-125.0,-163.0,-355.0,0
12.0,-246.0,-29.0,-120.0,-145.0,-359.0,0
14.0,-240.0,-30.0,-113.0,-136.0,-354.0,0
13.0,-234.0,-27.0,-109.0,-129.0,-345.0,0
5.0,-225.0,-22.0,-113.0,-130.0,-334.0,0
5.0,-223.0,-22.0,-125.0,-135.0,-321.0,0
4.0,-223.0,-21.0,-142.0,-143.0,-309.0,0
2.0,-222.0,-21.0,-163.0,-152.0,-297.0,0
3.0,-224.0,-19.0,-186.0,-163.0,-281.0,0
3.0,-224.0,-18.0,-205.0,-171.0,-267.0,0
5.0,-225.0,-13.0,-214.0,-180.0,-249.0,0
4.0,-230.0,-10.0,-210.0,-192.0,-231.0,0
5.0,-236.0,-10.0,-197.0,-205.0,-205.0,0
6.0,-237.0,-7.0,-172.0,-224.0,-180.0,0
6.0,-240.0,-9.0,-145.0,-237.0,-157.0,0
6.0,-243.0,-6.0,-121.0,-245.0,-137.0,0
9.0,-243.0,-7.0,-98.0,-249.0,-117.0,0
12.0,-242.0,-6.0,-81.0,-253.0,-103.0,0
12.0,-244.0,-1.0,-66.0,-252.0,-86.0,0
12.0,-242.0,0.0,-53.0,-252.0,-74.0,0
15.0,-242.0,2.0,-40.0,-250.0,-62.0,0
15.0,-244.0,7.0,-27.0,-250.0,-52.0,0
14.0,-240.0,6.0,-16.0,-249.0,-39.0,0
15.0,-240.0,7.0,-6.0,-246.0,-24.0,0
15.0,-237.0,4.0,4.0,-242.0,-10.0,0
16.0,-235.0,5.0,9.0,-234.0,4.0,0
16.0,-232.0,4.0,12.0,-228.0,19.0,0
14.0,-230.0,8.0,12.0,-221.0,32.0,0
15.0,-229.0,7.0,11.0,-216.0,50.0,0
13.0,-231.0,8.0,10.0,-215.0,63.0,0
12.0,-230.0,9.0,9.0,-213.0,81.0,0
10.0,-233.0,8.0,8.0,-212.0,94.0,0
9.0,-232.0,8.0,7.0,-209.0,107.0,0
9.0,-230.0,10.0,5.0,-209.0,119.0,0
6.0,-232.0,9.0,5.0,-208.0,128.0,0
8.0,-237.0,9.0,3.0,-209.0,131.0,0
10.0,-241.0,6.0,-3.0,-209.0,137.0,0
11.0,-243.0,5.0,-13.0,-211.0,136.0,0
15.0,-249.0,6.0,-26.0,-218.0,137.0,0
13.0,-248.0,2.0,-38.0,-226.0,135.0,0
13.0,-256.0,5.0,-44.0,-236.0,137.0,0
16.0,-259.0,7.0,-41.0,-248.0,136.0,0
14.0,-261.0,2.0,-26.0,-254.0,142.0,0
15.0,-264.0,5.0,0.0,-260.0,142.0,0
17.0,-266.0,5.0,38.0,-269.0,147.0,0
15.0,-269.0,-2.0,74.0,-282.0,148.0,0
13.0,-268.0,1.0,111.0,-302.0,156.0,0
9.0,-270.0,1.0,153.0,-329.0,159.0,0
4.0,-264.0,3.0,196.0,-366.0,172.0,0
-4.0,-264.0,8.0,240.0,-404.0,181.0,0
-10.0,-265.0,13.0,280.0,-440.0,194.0,0
-12.0,-269.0,15.0,311.0,-471.0,202.0,0
-14.0,-271.0,23.0,329.0,-499.0,209.0,0
-20.0,-269.0,25.0,333.0,-516.0,208.0,0
-21.0,-273.0,25.0,318.0,-529.0,202.0,0
-22.0,-273.0,28.0,293.0,-533.0,184.0,0
-16.0,-278.0,26.0,262.0,-529.0,165.0,0
-15.0,-279.0,29.0,226.0,-523.0,137.0,0
-12.0,-278.0,28.0,195.0,-515.0,110.0,0
-11.0,-278.0,32.0,175.0,-510.0,78.0,0
-7.0,-283.0,35.0,165.0,-508.0,52.0,0
-8.0,-282.0,38.0,162.0,-515.0,25.0,0
-5.0,-279.0,39.0,164.0,-524.0,6.0,0
-6.0,-285.0,39.0,160.0,-540.0,-16.0,0
-3.0,-288.0,37.0,138.0,-570.0,-24.0,0
-5.0,-293.0,31.0,98.0,-607.0,-37.0,0
-2.0,-306.0,23.0,37.0,-653.0,-45.0,0
-4.0,-319.0,19.0,-46.0,-703.0,-62.0,0
-5.0,-332.0,8.0,-145.0,-751.0,-77.0,0
-4.0,-349.0,-7.0,-248.0,-791.0,-104.0,0
3.0,-368.0,-26.0,-340.0,-819.0,-133.0,0
4.0,-375.0,-42.0,-415.0,-822.0,-178.0,0
19.0,-387.0,-57.0,-464.0,-788.0,-229.0,0
33.0,-389.0,-81.0,-485.0,-714.0,-297.0,0
48.0,-385.0,-92.0,-474.0,-571.0,-387.0,0
61.0,-377.0,-97.0,-414.0,-415.0,-470.0,0
69.0,-365.0,-93.0,-320.0,-252.0,-544.0,0
74.0,-341.0,-85.0,-200.0,-103.0,-615.0,0
81.0,-328.0,-75.0,-74.0,33.0,-664.0,0
75.0,-304.0,-71.0,48.0,151.0,-704.0,0
69.0,-274.0,-70.0,155.0,249.0,-707.0,0
65.0,-249.0,-71.0,239.0,328.0,-680.0,0
51.0,-224.0,-69.0,292.0,381.0,-619.0,0
41.0,-199.0,-70.0,319.0,403.0,-546.0,0
23.0,-181.0,-76.0,316.0,390.0,-442.0,0
9.0,-167.0,-74.0,276.0,351.0,-358.0,0
-3.0,-154.0,-79.0,213.0,296.0,-272.0,0
-12.0,-147.0,-87.0,133.0,234.0,-197.0,0
-20.0,-143.0,-87.0,39.0,171.0,-123.0,0
-30.0,-149.0,-87.0,-57.0,106.0,-60.0,0
-35.0,-154.0,-90.0,-151.0,37.0,-1.0,0
-38.0,-161.0,-89.0,-230.0,-31.0,42.0,0
-38.0,-174.0,-91.0,-284.0,-100.0,80.0,0
-33.0,-188.0,-91.0,-307.0,-161.0,108.0,0
-26.0,-196.0,-91.0,-303.0,-218.0,132.0,0
-16.0,-213.0,-85.0,-280.0,-246.0,136.0,0
-11.0,-229.0,-85.0,-251.0,-259.0,137.0,0
-1.0,-243.0,-83.0,-214.0,-261.0,128.0,0
8.0,-258.0,-77.0,-171.0,-256.0,123.0,0
17.0,-271.0,-73.0,-120.0,-246.0,112.0,0
25.0,-278.0,-66.0,-57.0,-233.0,105.0,0
31.0,-284.0,-64.0,23.0,-207.0,90.0,0
36.0,-284.0,-67.0,120.0,-167.0,79.0,0
40.0,-283.0,-59.0,225.0,-116.0,65.0,0
38.0,-272.0,-63.0,326.0,-46.0,54.0,0
33.0,-260.0,-67.0,424.0,47.0,45.0,0
31.0,-246.0,-72.0,465.0,132.0,43.0,0
30.0,-233.0,-80.0,462.0,217.0,39.0,0
26.0,-221.0,-80.0,410.0,297.0,45.0,0
22.0,-216.0,-80.0,322.0,367.0,50.0,0
18.0,-217.0,-70.0,214.0,426.0,65.0,0
13.0,-223.0,-62.0,108.0,464.0,82.0,0
7.0,-237.0,-56.0,23.0,484.0,110.0,0
2.0,-250.0,-47.0,-35.0,489.0,143.0,0
-2.0,-261.0,-42.0,-66.0,481.0,191.0,0
-7.0,-273.0,-37.0,-74.0,462.0,221.0,0
-5.0,-283.0,-41.0,-68.0,443.0,256.0,0
-8.0,-289.0,-40.0,-56.0,423.0,284.0,0
-12.0,-294.0,-37.0,-36.0,405.0,312.0,0
-12.0,-294.0,-43.0,-13.0,394.0,331.0,0
-12.0,-291.0,-36.0,13.0,386.0,349.0,0
-14.0,-286.0,-37.0,39.0,382.0,357.0,0
-14.0,-279.0,-36.0,63.0,379.0,366.0,0
-12.0,-277.0,-38.0,82.0,377.0,369.0,0
-12.0,-263.0,-33.0,102.0,379.0,373.0,0
-11.0,-256.0,-31.0,123.0,384.0,368.0,0
-8.0,-251.0,-34.0,136.0,392.0,364.0,0
-7.0,-242.0,-28.0,139.0,402.0,351.0,0
-6.0,-231.0,-29.0,131.0,409.0,341.0,0
-7.0,-221.0,-34.0,106.0,414.0,335.0,0
-2.0,-215.0,-30.0,73.0,417.0,331.0,0
-5.0,-202.0,-30.0,34.0,419.0,321.0,0
-3.0,-199.0,-28.0,-7.0,423.0,308.0,0
-3.0,-196.0,-27.0,-58.0,432.0,299.0,0
1.0,-198.0,-30.0,-118.0,442.0,296.0,0
-3.0,-199.0,-31.0,-187.0,456.0,297.0,0
-3.0,-206.0,-29.0,-265.0,464.0,295.0,0
-7.0,-211.0,-27.0,-315.0,467.0,286.0,0
-9.0,-218.0,-29.0,-349.0,468.0,279.0,0
-11.0,-223.0,-30.0,-367.0,467.0,269.0,0
-12.0,-229.0,-28.0,-373.0,461.0,259.0,0
-16.0,-232.0,-29.0,-369.0,456.0,244.0,0
-19.0,-237.0,-37.0,-356.0,447.0,228.0,0
-24.0,-238.0,-29.0,-339.0,435.0,211.0,0
-26.0,-240.0,-30.0,-320.0,426.0,195.0,0
-27.0,-241.0,-30.0,-298.0,415.0,175.0,0
-27.0,-246.0,-31.0,-266.0,407.0,161.0,0
-30.0,-247.0,-25.0,-231.0,403.0,145.0,0
-31.0,-250.0,-28.0,-191.0,395.0,130.0,0
-29.0,-254.0,-25.0,-153.0,387.0,117.0,0
-31.0,-253.0,-24.0,-114.0,375.0,104.0,0
-29.0,-256.0,-22.0,-77.0,360.0,93.0,0
-30.0,-254.0,-22.0,-46.0,343.0,83.0,0
-29.0,-253.0,-22.0,-20.0,329.0,73.0,0
-31.0,-252.0,-16.0,0.0,313.0,62.0,0
-29.0,-251.0,-15.0,12.0,297.0,52.0,0
-28.0,-252.0,-18.0,17.0,284.0,44.0,0
-28.0,-249.0,-12.0,15.0,270.0,38.0,0
-29.0,-248.0,-12.0,9.0,257.0,32.0,0
-27.0,-248.0,-10.0,4.0,248.0,26.0,0
-25.0,-246.0,-5.0,-5.0,240.0,19.0,0
-22.0,-245.0,-8.0,-11.0,234.0,16.0,0
-16.0,-243.0,-1.0,-18.0,231.0,11.0,0
-15.0,-245.0,3.0,-27.0,227.0,7.0,0
-13.0,-245.0,0.0,-34.0,227.0,1.0,0
-12.0,-245.0,8.0,-43.0,227.0,-2.0,0
-10.0,-242.0,7.0,-51.0,229.0,-5.0,0
-9.0,-245.0,8.0,-57.0,231.0,-9.0,0
-8.0,-246.0,9.0,-64.0,234.0,-14.0,0
-9.0,-246.0,8.0,-68.0,239.0,-17.0,0
-8.0,-244.0,9.0,-74.0,244.0,-23.0,0
-8.0,-248.0,10.0,-79.0,251.0,-25.0,0
-11.0,-244.0,9.0,-86.0,258.0,-31.0,0
-12.0,-246.0,8.0,-94.0,268.0,-33.0,0
-12.0,-242.0,8.0,-102.0,275.0,-39.0,0
-12.0,-247.0,4.0,-113.0,283.0,-42.0,0
-12.0,-248.0,0.0,-129.0,290.0,-45.0,0
-15.0,-248.0,-3.0,-147.0,297.0,-45.0,0
-18.0,-249.0,-3.0,-168.0,299.0,-46.0,0
-23.0,-255.0,-7.0,-186.0,300.0,-46.0,0
-25.0,-259.0,-8.0,-192.0,302.0,-49.0,0
-29.0,-263.0,-3.0,-188.0,301.0,-49.0,0
-32.0,-265.0,-7.0,-173.0,297.0,-49.0,0
-36.0,-272.0,-7.0,-148.0,284.0,-47.0,0
-38.0,-277.0,-5.0,-110.0,266.0,-50.0,0
-40.0,-276.0,-6.0,-66.0,239.0,-51.0,0
-46.0,-274.0,-9.0,-4.0,204.0,-53.0,0
-45.0,-280.0,-8.0,54.0,176.0,-52.0,0
-48.0,-277.0,-9.0,111.0,154.0,-51.0,0
-51.0,-278.0,-7.0,169.0,135.0,-46.0,0
-50.0,-276.0,-10.0,223.0,121.0,-44.0,0
-44.0,-275.0,1.0,275.0,109.0,-38.0,0
-42.0,-274.0,3.0,322.0,96.0,-35.0,0
-38.0,-271.0,8.0,370.0,79.0,-28.0,0
-35.0,-272.0,13.0,414.0,66.0,-22.0,0
-30.0,-271.0,24.0,457.0,53.0,-10.0,0
-24.0,-270.0,27.0,502.0,40.0,1.0,0
-17.0,-268.0,29.0,530.0,35.0,11.0,0
-14.0,-263.0,32.0,547.0,36.0,19.0,0
-10.0,-260.0,31.0,549.0,42.0,32.0,0
-12.0,-252.0,34.0,533.0,53.0,40.0,0
-6.0,-251.0,32.0,501.0,70.0,50.0,0
1.0,-252.0,28.0,455.0,94.0,56.0,0
0.0,-258.0,19.0,394.0,123.0,70.0,0
4.0,-268.0,13.0,315.0,160.0,81.0,0
2.0,-284.0,-1.0,218.0,205.0,101.0,0
-3.0,-301.0,-12.0,96.0,255.0,125.0,0
0.0,-319.0,-32.0,-84.0,278.0,150.0,0
-1.0,-334.0,-49.0,-253.0,273.0,172.0,0
-2.0,-344.0,-61.0,-410.0,248.0,203.0,0
-10.0,-359.0,-66.0,-511.0,204.0,248.0,0
-19.0,-370.0,-69.0,-527.0,150.0,322.0,0
-27.0,-377.0,-69.0,-456.0,96.0,412.0,0
-28.0,-376.0,-67.0,-333.0,38.0,509.0,0
-23.0,-365.0,-65.0,-203.0,-25.0,581.0,0
-20.0,-349.0,-60.0,-83.0,-80.0,628.0,0
-12.0,-331.0,-53.0,26.0,-125.0,635.0,0
-8.0,-312.0,-48.0,155.0,-141.0,611.0,0
0.0,-288.0,-52.0,262.0,-137.0,554.0,0
10.0,-266.0,-49.0,357.0,-109.0,480.0,0
17.0,-254.0,-59.0,424.0,-67.0,386.0,0
25.0,-228.0,-69.0,450.0,-13.0,294.0,0
25.0,-208.0,-78.0,433.0,50.0,199.0,0
28.0,-192.0,-91.0,379.0,124.0,121.0,0
28.0,-184.0,-102.0,292.0,216.0,54.0,0
29.0,-179.0,-105.0,181.0,322.0,12.0,0
25.0,-178.0,-102.0,66.0,455.0,-22.0,0
20.0,-186.0,-99.0,-58.0,556.0,-31.0,0
13.0,-188.0,-96.0,-132.0,641.0,-34.0,0
9.0,-195.0,-94.0,-176.0,709.0,-23.0,0
7.0,-201.0,-92.0,-196.0,759.0,-16.0,0
5.0,-206.0,-93.0,-194.0,791.0,-4.0,0
2.0,-206.0,-91.0,-182.0,805.0,-2.0,0
1.0,-210.0,-87.0,-164.0,802.0,3.0,0
-2.0,-211.0,-88.0,-147.0,779.0,2.0,0
-7.0,-218.0,-85.0,-135.0,742.0,3.0,0
-7.0,-215.0,-87.0,-127.0,699.0,0.0,0
-12.0,-216.0,-79.0,-126.0,641.0,0.0,0
-11.0,-221.0,-75.0,-130.0,593.0,-4.0,0
-12.0,-225.0,-75.0,-139.0,543.0,-7.0,0
-12.0,-231.0,-69.0,-148.0,491.0,-17.0,0
-14.0,-235.0,-65.0,-154.0,438.0,-21.0,0
-12.0,-243.0,-57.0,-158.0,378.0,-30.0,0
-13.0,-243.0,-60.0,-156.0,317.0,-31.0,0
-13.0,-253.0,-56.0,-150.0,256.0,-37.0,0
-11.0,-258.0,-50.0,-140.0,200.0,-39.0,0
-11.0,-261.0,-52.0,-121.0,150.0,-50.0,0
-12.0,-263.0,-55.0,-93.0,103.0,-59.0,0
-12.0,-265.0,-52.0,-70.0,66.0,-75.0,0
-12.0,-270.0,-48.0,-50.0,35.0,-90.0,0
-16.0,-274.0,-51.0,-30.0,9.0,-110.0,0
-18.0,-272.0,-49.0,-10.0,-10.0,-126.0,0
-14.0,-280.0,-52.0,6.0,-21.0,-150.0,0
-12.0,-278.0,-53.0,19.0,-25.0,-173.0,0
-14.0,-280.0,-54.0,25.0,-24.0,-198.0,0
-12.0,-277.0,-57.0,26.0,-17.0,-216.0,0
-10.0,-278.0,-56.0,26.0,-10.0,-240.0,0
-7.0,-274.0,-59.0,26.0,3.0,-252.0,0
-9.0,-265.0,-53.0,26.0,11.0,-268.0,0
-7.0,-261.0,-51.0,28.0,15.0,-274.0,0
-7.0,-259.0,-46.0,32.0,14.0,-286.0,0
-9.0,-249.0,-43.0,32.0,11.0,-293.0,0
-5.0,-246.0,-38.0,29.0,10.0,-300.0,0
-2.0,-239.0,-33.0,18.0,8.0,-304.0,0
-3.0,-234.0,-31.0,1.0,7.0,-311.0,0
1.0,-226.0,-27.0,-26.0,13.0,-317.0,0
5.0,-225.0,-26.0,-60.0,21.0,-326.0,0
6.0,-227.0,-25.0,-101.0,35.0,-334.0,0
12.0,-228.0,-23.0,-155.0,45.0,-344.0,0
12.0,-227.0,-27.0,-200.0,56.0,-348.0,0
13.0,-229.0,-26.0,-242.0,66.0,-353.0,0
16.0,-237.0,-27.0,-274.0,72.0,-353.0,0
17.0,-236.0,-24.0,-294.0,76.0,-353.0,0
20.0,-238.0,-25.0,-306.0,88.0,-347.0,0
17.0,-244.0,-25.0,-310.0,99.0,-341.0,0
12.0,-243.0,-22.0,-303.0,107.0,-332.0,0
11.0,-246.0,-23.0,-286.0,104.0,-321.0,0
8.0,-246.0,-19.0,-262.0,95.0,-306.0,0
7.0,-244.0,-20.0,-227.0,81.0,-299.0,0
6.0,-244.0,-26.0,-200.0,67.0,-289.0,0
4.0,-243.0,-23.0,-174.0,54.0,-282.0,0
4.0,-241.0,-23.0,-152.0,45.0,-274.0,0
3.0,-238.0,-22.0,-137.0,38.0,-267.0,0
4.0,-233.0,-23.0,-123.0,32.0,-258.0,0
2.0,-235.0,-23.0,-116.0,25.0,-245.0,0
5.0,-233.0,-21.0,-111.0,16.0,-232.0,0
4.0,-231.0,-18.0,-109.0,2.0,-219.0,0
5.0,-235.0,-19.0,-106.0,-18.0,-198.0,0
6.0,-237.0,-16.0,-103.0,-34.0,-183.0,0
5.0,-241.0,-12.0,-98.0,-55.0,-166.0,0
5.0,-245.0,-17.0,-90.0,-77.0,-149.0,0
7.0,-248.0,-15.0,-78.0,-100.0,-131.0,0
8.0,-251.0,-12.0,-64.0,-120.0,-115.0,0
9.0,-256.0,-9.0,-50.0,-138.0,-100.0,0
8.0,-253.0,-13.0,-36.0,-153.0,-88.0,0
8.0,-255.0,-12.0,-20.0,-168.0,-77.0,0
8.0,-255.0,-8.0,-6.0,-183.0,-67.0,0
6.0,-252.0,-7.0,9.0,-199.0,-56.0,0
8.0,-251.0,-8.0,22.0,-218.0,-48.0,0
6.0,-248.0,-7.0,31.0,-237.0,-38.0,0
5.0,-247.0,-2.0,36.0,-257.0,-30.0,0
5.0,-244.0,-2.0,40.0,-276.0,-21.0,0
1.0,-243.0,-1.0,42.0,-294.0,-13.0,0
0.0,-243.0,3.0,39.0,-311.0,-4.0,0
3.0,-245.0,4.0,38.0,-324.0,5.0,0
1.0,-244.0,-1.0,33.0,-334.0,13.0,0
4.0,-245.0,4.0,29.0,-342.0,21.0,0
4.0,-244.0,3.0,23.0,-344.0,29.0,0
9.0,-245.0,3.0,19.0,-345.0,33.0,0
7.0,-244.0,4.0,13.0,-342.0,39.0,0
11.0,-245.0,2.0,7.0,-342.0,44.0,0
9.0,-243.0,6.0,-1.0,-341.0,47.0,0
12.0,-245.0,5.0,-6.0,-343.0,52.0,0
14.0,-246.0,2.0,-12.0,-344.0,58.0,0
16.0,-249.0,0.0,-17.0,-348.0,65.0,0
17.0,-249.0,0.0,-21.0,-356.0,71.0,0
15.0,-249.0,3.0,-22.0,-363.0,81.0,0
15.0,-248.0,0.0,-20.0,-373.0,89.0,0
16.0,-248.0,5.0,-11.0,-383.0,96.0,0
19.0,-247.0,-1.0,-1.0,-387.0,104.0,0
19.0,-246.0,-3.0,10.0,-389.0,112.0,0
20.0,-245.0,-6.0,19.0,-384.0,117.0,0
24.0,-248.0,-7.0,20.0,-375.0,122.0,0
24.0,-252.0,-13.0,13.0,-365.0,122.0,0
24.0,-249.0,-16.0,-4.0,-355.0,120.0,0
28.0,-256.0,-21.0,-26.0,-347.0,112.0,0
27.0,-259.0,-14.0,-50.0,-342.0,104.0,0
28.0,-266.0,-12.0,-68.0,-337.0,91.0,0
29.0,-272.0,-10.0,-72.0,-333.0,82.0,0
27.0,-282.0,-3.0,-54.0,-331.0,74.0,0
25.0,-284.0,-4.0,-17.0,-327.0,69.0,0
24.0,-285.0,4.0,37.0,-323.0,63.0,0
26.0,-293.0,3.0,102.0,-322.0,62.0,0
22.0,-289.0,6.0,171.0,-320.0,56.0,0
26.0,-287.0,5.0,241.0,-318.0,54.0,0
24.0,-286.0,9.0,309.0,-319.0,51.0,0
19.0,-273.0,12.0,368.0,-325.0,56.0,0
16.0,-270.0,17.0,419.0,-338.0,59.0,0
17.0,-267.0,19.0,463.0,-362.0,69.0,0
19.0,-264.0,22.0,486.0,-385.0,76.0,0
14.0,-266.0,22.0,489.0,-406.0,82.0,0
14.0,-264.0,15.0,471.0,-422.0,86.0,0
13.0,-264.0,17.0,430.0,-437.0,89.0,0
9.0,-268.0,14.0,371.0,-455.0,86.0,0
4.0,-276.0,15.0,303.0,-473.0,86.0,0
1.0,-289.0,11.0,229.0,-494.0,77.0,0
-2.0,-297.0,-1.0,150.0,-512.0,67.0,0
-4.0,-311.0,-10.0,66.0,-523.0,43.0,0
-7.0,-317.0,-23.0,-42.0,-525.0,13.0,0
-5.0,-325.0,-32.0,-128.0,-518.0,-17.0,0
-2.0,-335.0,-45.0,-197.0,-500.0,-49.0,0
7.0,-350.0,-58.0,-237.0,-465.0,-89.0,0
19.0,-358.0,-65.0,-245.0,-402.0,-133.0,0
31.0,-364.0,-81.0,-224.0,-306.0,-196.0,0
41.0,-367.0,-90.0,-188.0,-179.0,-270.0,0
50.0,-364.0,-92.0,-136.0,-35.0,-353.0,0
47.0,-356.0,-88.0,-67.0,103.0,-425.0,0
42.0,-340.0,-77.0,23.0,214.0,-486.0,0
42.0,-324.0,-68.0,128.0,305.0,-523.0,0
36.0,-303.0,-60.0,262.0,357.0,-529.0,0
32.0,-285.0,-57.0,362.0,394.0,-512.0,0
26.0,-271.0,-49.0,435.0,410.0,-482.0,0
21.0,-257.0,-49.0,478.0,408.0,-440.0,0
13.0,-235.0,-50.0,487.0,380.0,-396.0,0
-2.0,-218.0,-46.0,470.0,326.0,-343.0,0
-11.0,-200.0,-40.0,436.0,250.0,-281.0,0
-15.0,-191.0,-40.0,391.0,153.0,-211.0,0
-25.0,-181.0,-42.0,342.0,36.0,-149.0,0
-24.0,-177.0,-45.0,286.0,-104.0,-73.0,0
-35.0,-175.0,-50.0,214.0,-215.0,-23.0,0
-39.0,-170.0,-54.0,154.0,-315.0,21.0,0
-43.0,-170.0,-60.0,92.0,-410.0,49.0,0
-43.0,-168.0,-64.0,25.0,-495.0,71.0,0
-42.0,-170.0,-67.0,-40.0,-564.0,80.0,0
-48.0,-180.0,-73.0,-101.0,-610.0,84.0,0
-51.0,-186.0,-74.0,-156.0,-631.0,79.0,0
-49.0,-200.0,-77.0,-200.0,-629.0,68.0,0
-46.0,-212.0,-75.0,-231.0,-607.0,48.0,0
-42.0,-232.0,-75.0,-244.0,-561.0,24.0,0
-37.0,-245.0,-69.0,-230.0,-516.0,3.0,0
-35.0,-257.0,-68.0,-192.0,-466.0,-6.0,0
-22.0,-271.0,-65.0,-132.0,-418.0,-14.0,0
-15.0,-282.0,-64.0,-51.0,-369.0,-14.0,0
-10.0,-282.0,-60.0,45.0,-319.0,-17.0,0
-3.0,-284.0,-59.0,149.0,-263.0,-10.0,0
3.0,-280.0,-59.0,248.0,-203.0,-7.0,0
7.0,-272.0,-61.0,326.0,-145.0,1.0,0
16.0,-263.0,-67.0,378.0,-86.0,6.0,0
17.0,-256.0,-68.0,398.0,-32.0,17.0,0
22.0,-247.0,-66.0,380.0,25.0,26.0,0
24.0,-241.0,-66.0,343.0,67.0,39.0,0
23.0,-239.0,-61.0,296.0,103.0,53.0,0
26.0,-243.0,-58.0,250.0,138.0,72.0,0
27.0,-244.0,-53.0,208.0,171.0,90.0,0
29.0,-252.0,-48.0,175.0,204.0,115.0,0
27.0,-260.0,-43.0,146.0,236.0,136.0,0
25.0,-266.0,-38.0,125.0,269.0,162.0,0
24.0,-274.0,-35.0,112.0,299.0,184.0,0
21.0,-280.0,-32.0,105.0,328.0,207.0,0
14.0,-283.0,-39.0,108.0,361.0,212.0,0
6.0,-283.0,-39.0,115.0,388.0,220.0,0
4.0,-278.0,-39.0,124.0,410.0,221.0,0
-1.0,-279.0,-37.0,132.0,425.0,226.0,0
-10.0,-273.0,-39.0,141.0,432.0,229.0,0
-11.0,-267.0,-35.0,145.0,432.0,237.0,0
-13.0,-260.0,-34.0,146.0,428.0,238.0,0
-16.0,-255.0,-28.0,143.0,423.0,244.0,0
-22.0,-248.0,-25.0,132.0,414.0,245.0,0
-25.0,-244.0,-25.0,122.0,402.0,250.0,0
-25.0,-238.0,-20.0,108.0,384.0,251.0,0
-28.0,-236.0,-17.0,96.0,368.0,258.0,0
-32.0,-230.0,-18.0,82.0,350.0,258.0,0
-33.0,-225.0,-17.0,70.0,332.0,262.0,0
-30.0,-228.0,-17.0,63.0,315.0,259.0,0
-30.0,-225.0,-18.0,57.0,302.0,260.0,0
-32.0,-222.0,-20.0,48.0,294.0,257.0,0
-32.0,-224.0,-17.0,32.0,288.0,255.0,0
-32.0,-226.0,-20.0,14.0,289.0,249.0,0
-30.0,-227.0,-22.0,-6.0,295.0,241.0,0
-27.0,-229.0,-23.0,-29.0,306.0,222.0,0
-25.0,-231.0,-24.0,-60.0,318.0,209.0,0
-26.0,-233.0,-27.0,-78.0,328.0,192.0,0
-22.0,-231.0,-26.0,-89.0,336.0,179.0,0
-21.0,-235.0,-32.0,-97.0,345.0,161.0,0
-24.0,-237.0,-27.0,-97.0,352.0,147.0,0
-24.0,-235.0,-30.0,-98.0,358.0,128.0,0
-19.0,-235.0,-29.0,-98.0,367.0,112.0,0
-20.0,-237.0,-27.0,-102.0,376.0,94.0,0
-20.0,-237.0,-26.0,-105.0,385.0,79.0,0
-21.0,-237.0,-26.0,-109.0,395.0,62.0,0
-14.0,-241.0,-24.0,-115.0,402.0,56.0,0
-12.0,-244.0,-25.0,-117.0,407.0,46.0,0
-12.0,-247.0,-24.0,-118.0,412.0,41.0,0
-9.0,-248.0,-24.0,-116.0,415.0,35.0,0
-8.0,-253.0,-18.0,-114.0,420.0,36.0,0
-3.0,-254.0,-15.0,-112.0,426.0,35.0,0
-6.0,-256.0,-21.0,-109.0,433.0,35.0,0
-5.0,-258.0,-20.0,-104.0,437.0,34.0,0
-8.0,-260.0,-18.0,-94.0,443.0,37.0,0
-4.0,-261.0,-14.0,-82.0,449.0,38.0,0
-7.0,-263.0,-16.0,-65.0,454.0,41.0,0
-10.0,-262.0,-11.0,-50.0,458.0,42.0,0
-11.0,-264.0,-10.0,-36.0,462.0,44.0,0
-10.0,-261.0,-9.0,-22.0,468.0,42.0,0
-11.0,-263.0,-9.0,-6.0,473.0,42.0,0
-13.0,-260.0,-1.0,9.0,478.0,40.0,0
-14.0,-259.0,2.0,25.0,481.0,38.0,0
-14.0,-260.0,-2.0,38.0,486.0,35.0,0
-18.0,-257.0,5.0,50.0,485.0,31.0,0
-16.0,-254.0,-1.0,60.0,482.0,24.0,0
-16.0,-251.0,6.0,71.0,477.0,22.0,0
-18.0,-246.0,6.0,77.0,470.0,18.0,0
-17.0,-246.0,5.0,81.0,462.0,15.0,0
-15.0,-242.0,8.0,79.0,454.0,10.0,0
-13.0,-240.0,4.0,77.0,446.0,8.0,0
-17.0,-240.0,10.0,74.0,440.0,5.0,0
-13.0,-241.0,7.0,70.0,436.0,-1.0,0
-16.0,-237.0,8.0,66.0,431.0,-8.0,0
-15.0,-235.0,8.0,61.0,431.0,-16.0,0
-18.0,-235.0,8.0,55.0,431.0,-26.0,0
-19.0,-233.0,9.0,41.0,427.0,-32.0,0
-20.0,-231.0,11.0,26.0,423.0,-38.0,0
-20.0,-235.0,8.0,6.0,422.0,-46.0,0
-21.0,-232.0,10.0,-16.0,423.0,-56.0,0
-23.0,-234.0,9.0,-38.0,424.0,-63.0,0
-21.0,-234.0,10.0,-60.0,428.0,-70.0,0
-24.0,-235.0,10.0,-79.0,429.0,-77.0,0
-23.0,-237.0,11.0,-95.0,428.0,-83.0,0
-22.0,-241.0,6.0,-106.0,424.0,-90.0,0
-24.0,-241.0,9.0,-113.0,420.0,-95.0,0
-21.0,-245.0,9.0,-118.0,411.0,-101.0,0
-22.0,-244.0,11.0,-115.0,403.0,-108.0,0
-21.0,-245.0,11.0,-112.0,391.0,-112.0,0
-23.0,-249.0,8.0,-106.0,376.0,-117.0,0
-22.0,-247.0,7.0,-101.0,360.0,-121.0,0
-18.0,-252.0,8.0,-98.0,347.0,-122.0,0
-19.0,-251.0,2.0,-100.0,337.0,-124.0,0
-21.0,-251.0,2.0,-100.0,333.0,-123.0,0
-18.0,-255.0,4.0,-101.0,334.0,-126.0,0
-13.0,-258.0,5.0,-104.0,338.0,-125.0,0
-15.0,-260.0,1.0,-102.0,340.0,-126.0,0
-15.0,-262.0,2.0,-94.0,338.0,-124.0,0
-12.0,-262.0,8.0,-83.0,334.0,-121.0,0
-12.0,-267.0,11.0,-67.0,328.0,-117.0,0
-11.0,-268.0,9.0,-45.0,320.0,-113.0,0
-9.0,-271.0,12.0,-14.0,311.0,-109.0,0
-10.0,-273.0,15.0,23.0,302.0,-106.0,0
-8.0,-272.0,17.0,67.0,294.0,-100.0,0
-8.0,-271.0,18.0,112.0,286.0,-99.0,0
-9.0,-268.0,22.0,157.0,278.0,-94.0,0
-7.0,-267.0,25.0,196.0,273.0,-92.0,0
-8.0,-261.0,28.0,235.0,271.0,-88.0,0
-4.0,-271.0,23.0,261.0,272.0,-88.0,0
-5.0,-258.0,32.0,282.0,275.0,-85.0,0
-7.0,-249.0,34.0,298.0,284.0,-87.0,0
-6.0,-248.0,38.0,308.0,295.0,-87.0,0
-5.0,-250.0,40.0,314.0,308.0,-89.0,0
-4.0,-247.0,41.0,314.0,324.0,-89.0,0
-4.0,-248.0,49.0,309.0,340.0,-92.0,0
-10.0,-250.0,47.0,292.0,351.0,-87.0,0
-6.0,-252.0,43.0,265.0,361.0,-81.0,0
-10.0,-258.0,37.0,213.0,366.0,-68.0,0
-10.0,-258.0,32.0,162.0,373.0,-58.0,0
-9.0,-264.0,33.0,112.0,385.0,-45.0,0
-10.0,-270.0,34.0,71.0,399.0,-32.0,0
-10.0,-277.0,31.0,43.0,416.0,-15.0,0
-11.0,-284.0,30.0,26.0,432.0,3.0,0
-12.0,-290.0,34.0,17.0,447.0,26.0,0
-13.0,-296.0,26.0,11.0,458.0,44.0,0
