ax,ay,az,gx,gy,gz,label
-14.0,-248.0,46.0,-31.0,116.0,-20.0,0
-17.0,-248.0,47.0,-31.0,119.0,-21.0,0
-17.0,-248.0,50.0,-32.0,122.0,-20.0,0
-14.0,-246.0,48.0,-32.0,126.0,-22.0,0
-17.0,-247.0,49.0,-33.0,131.0,-23.0,0
-14.0,-250.0,48.0,-34.0,134.0,-23.0,0
-19.0,-250.0,46.0,-36.0,135.0,-25.0,0
-18.0,-248.0,49.0,-40.0,135.0,-23.0,0
-17.0,-249.0,47.0,-40.0,137.0,-21.0,0
-14.0,-250.0,51.0,-41.0,139.0,-20.0,0
-19.0,-248.0,52.0,-43.0,140.0,-19.0,0
-18.0,-249.0,51.0,-45.0,140.0,-17.0,0
-21.0,-249.0,50.0,-47.0,140.0,-17.0,0
-18.0,-248.0,50.0,-49.0,141.0,-16.0,0
-19.0,-249.0,50.0,-50.0,139.0,-14.0,0
-20.0,-253.0,65.0,-51.0,138.0,-14.0,0
-22.0,-249.0,48.0,-48.0,140.0,-15.0,0
-18.0,-251.0,50.0,-44.0,141.0,-14.0,0
-22.0,-250.0,54.0,-39.0,139.0,-14.0,0
-21.0,-247.0,49.0,-36.0,134.0,-14.0,0
-20.0,-248.0,52.0,-32.0,133.0,-14.0,0
-18.0,-252.0,52.0,-29.0,130.0,-14.0,0
-17.0,-249.0,53.0,-29.0,129.0,-15.0,0
-21.0,-248.0,53.0,-30.0,129.0,-15.0,0
-16.0,-249.0,54.0,-29.0,126.0,-17.0,0
-19.0,-248.0,51.0,-28.0,124.0,-19.0,0
-19.0,-248.0,50.0,-26.0,122.0,-18.0,0
-18.0,-251.0,53.0,-27.0,119.0,-18.0,0
-23.0,-249.0,52.0,-29.0,115.0,-19.0,0
-19.0,-249.0,50.0,-33.0,116.0,-18.0,0
-22.0,-249.0,48.0,-35.0,112.0,-15.0,0
-23.0,-250.0,51.0,-35.0,107.0,-13.0,0
-19.0,-250.0,51.0,-35.0,101.0,-13.0,0
-18.0,-250.0,48.0,-33.0,95.0,-12.0,0
-19.0,-250.0,48.0,-31.0,92.0,-11.0,0
-19.0,-250.0,47.0,-29.0,90.0,-9.0,0
-19.0,-249.0,49.0,-25.0,88.0,-9.0,0
-24.0,-243.0,49.0,-20.0,84.0,-9.0,0
-18.0,-248.0,46.0,-16.0,77.0,-8.0,0
-18.0,-248.0,45.0,-14.0,76.0,-7.0,0
-16.0,-245.0,46.0,-19.0,74.0,-6.0,0
-17.0,-247.0,48.0,-28.0,73.0,-6.0,0
-19.0,-249.0,47.0,-36.0,71.0,-6.0,0
-19.0,-248.0,47.0,-41.0,71.0,-6.0,0
-20.0,-251.0,49.0,-43.0,70.0,-7.0,0
-17.0,-251.0,48.0,-39.0,69.0,-8.0,0
-17.0,-253.0,47.0,-33.0,69.0,-7.0,0
-19.0,-250.0,44.0,-28.0,71.0,-7.0,0
-15.0,-250.0,44.0,-23.0,71.0,-8.0,0
-16.0,-250.0,45.0,-22.0,71.0,-10.0,0
-14.0,-247.0,48.0,-26.0,71.0,-9.0,0
-17.0,-247.0,47.0,-31.0,71.0,-9.0,0
-13.0,-249.0,47.0,-38.0,73.0,-8.0,0
-16.0,-249.0,46.0,-43.0,74.0,-11.0,0
-14.0,-251.0,46.0,-49.0,77.0,-12.0,0
-15.0,-250.0,46.0,-50.0,80.0,-14.0,0
-16.0,-253.0,45.0,-52.0,86.0,-14.0,0
-12.0,-255.0,46.0,-48.0,91.0,-16.0,0
-14.0,-253.0,45.0,-47.0,94.0,-18.0,0
-7.0,-253.0,45.0,-44.0,98.0,-19.0,0
-13.0,-251.0,45.0,-46.0,103.0,-23.0,0
-12.0,-250.0,44.0,-48.0,108.0,-25.0,0
-16.0,-247.0,43.0,-50.0,111.0,-28.0,0
-16.0,-248.0,44.0,-53.0,114.0,-30.0,0
-13.0,-249.0,45.0,-61.0,117.0,-35.0,0
-16.0,-246.0,42.0,-65.0,121.0,-37.0,0
-17.0,-248.0,43.0,-70.0,121.0,-41.0,0
-15.0,-250.0,41.0,-77.0,123.0,-42.0,0
-13.0,-252.0,41.0,-81.0,133.0,-44.0,0
-23.0,-249.0,44.0,-76.0,141.0,-43.0,0
-22.0,-250.0,43.0,-70.0,141.0,-43.0,0
-22.0,-247.0,44.0,-65.0,134.0,-41.0,0
-22.0,-248.0,44.0,-65.0,129.0,-42.0,0
-23.0,-249.0,44.0,-70.0,132.0,-43.0,0
-24.0,-249.0,45.0,-80.0,134.0,-42.0,0
-27.0,-249.0,44.0,-89.0,134.0,-43.0,0
-26.0,-250.0,46.0,-94.0,130.0,-40.0,0
-26.0,-252.0,47.0,-96.0,122.0,-37.0,0
-25.0,-252.0,47.0,-94.0,115.0,-37.0,0
-25.0,-253.0,50.0,-92.0,112.0,-34.0,0
-23.0,-255.0,54.0,-87.0,115.0,-30.0,0
-31.0,-251.0,49.0,-78.0,116.0,-28.0,0
-23.0,-252.0,53.0,-69.0,118.0,-27.0,0
-23.0,-247.0,51.0,-63.0,121.0,-25.0,0
-21.0,-249.0,54.0,-60.0,120.0,-23.0,0
-21.0,-247.0,55.0,-57.0,119.0,-21.0,0
-23.0,-249.0,53.0,-56.0,118.0,-22.0,0
-21.0,-247.0,53.0,-58.0,116.0,-23.0,0
-21.0,-248.0,51.0,-62.0,114.0,-27.0,0
-25.0,-249.0,49.0,-65.0,113.0,-31.0,0
-22.0,-248.0,47.0,-68.0,117.0,-35.0,0
-23.0,-248.0,46.0,-74.0,122.0,-35.0,0
-22.0,-248.0,47.0,-79.0,126.0,-34.0,0
-18.0,-248.0,44.0,-81.0,131.0,-34.0,0
-16.0,-250.0,47.0,-75.0,138.0,-37.0,0
-18.0,-252.0,48.0,-67.0,141.0,-39.0,0
-19.0,-248.0,44.0,-58.0,143.0,-38.0,0
-18.0,-248.0,46.0,-54.0,147.0,-36.0,0
-21.0,-245.0,49.0,-52.0,148.0,-38.0,0
-20.0,-247.0,51.0,-58.0,147.0,-36.0,0
-18.0,-246.0,51.0,-64.0,143.0,-33.0,0
-23.0,-248.0,50.0,-80.0,150.0,-27.0,0
-20.0,-249.0,45.0,-86.0,149.0,-25.0,0
-21.0,-252.0,44.0,-84.0,136.0,-22.0,0
-18.0,-254.0,45.0,-74.0,125.0,-20.0,0
-17.0,-252.0,43.0,-69.0,137.0,-19.0,0
-22.0,-251.0,45.0,-66.0,151.0,-21.0,0
-21.0,-256.0,50.0,-57.0,153.0,-20.0,0
-21.0,-253.0,46.0,-44.0,148.0,-20.0,0
-22.0,-249.0,44.0,-29.0,146.0,-23.0,0
-21.0,-250.0,41.0,-35.0,137.0,-24.0,0
-17.0,-249.0,40.0,-40.0,138.0,-22.0,0
-23.0,-245.0,43.0,-55.0,146.0,-22.0,0
-22.0,-251.0,42.0,-69.0,152.0,-23.0,0
-22.0,-253.0,39.0,-65.0,139.0,-24.0,0
-22.0,-255.0,40.0,-57.0,129.0,-26.0,0
-23.0,-255.0,38.0,-49.0,129.0,-27.0,0
-25.0,-256.0,41.0,-45.0,134.0,-28.0,0
-30.0,-250.0,43.0,-32.0,125.0,-27.0,0
-27.0,-250.0,39.0,-28.0,113.0,-25.0,0
-30.0,-246.0,43.0,-35.0,105.0,-25.0,0
-27.0,-248.0,43.0,-54.0,102.0,-23.0,0
-29.0,-250.0,36.0,-65.0,109.0,-26.0,0
-24.0,-249.0,43.0,-75.0,114.0,-26.0,0
-28.0,-253.0,42.0,-76.0,118.0,-27.0,0
-24.0,-256.0,45.0,-60.0,116.0,-26.0,0
-24.0,-253.0,43.0,-25.0,118.0,-24.0,0
-32.0,-249.0,45.0,-8.0,120.0,-25.0,0
-30.0,-247.0,43.0,-25.0,96.0,-27.0,0
-22.0,-246.0,35.0,-58.0,63.0,-29.0,0
-18.0,-250.0,37.0,-80.0,68.0,-28.0,0
-17.0,-253.0,39.0,-87.0,90.0,-21.0,0
-27.0,-246.0,43.0,-79.0,119.0,-26.0,0
-37.0,-242.0,51.0,-77.0,134.0,-41.0,0
-25.0,-247.0,45.0,-84.0,104.0,-36.0,0
-31.0,-259.0,50.0,-93.0,68.0,-38.0,0
-29.0,-249.0,45.0,-99.0,3.0,-32.0,0
-4.0,-247.0,44.0,-116.0,-23.0,-23.0,0
-2.0,-243.0,33.0,-126.0,39.0,-36.0,0
-14.0,-252.0,35.0,-151.0,131.0,-37.0,0
-24.0,-259.0,41.0,-168.0,144.0,-47.0,0
-18.0,-255.0,42.0,-155.0,105.0,-52.0,0
-12.0,-247.0,36.0,-119.0,80.0,-46.0,0
-17.0,-246.0,39.0,-108.0,101.0,-50.0,0
-21.0,-243.0,41.0,-107.0,117.0,-48.0,0
-20.0,-236.0,39.0,-122.0,108.0,-49.0,0
-7.0,-234.0,35.0,-156.0,89.0,-48.0,0
-15.0,-246.0,37.0,-191.0,89.0,-47.0,0
-19.0,-248.0,41.0,-213.0,99.0,-46.0,0
-23.0,-248.0,42.0,-218.0,109.0,-44.0,0
-32.0,-249.0,44.0,-211.0,106.0,-42.0,0
-31.0,-249.0,41.0,-200.0,92.0,-44.0,0
-30.0,-247.0,40.0,-191.0,80.0,-40.0,0
-29.0,-246.0,43.0,-186.0,77.0,-38.0,0
-29.0,-248.0,33.0,-186.0,81.0,-34.0,0
-29.0,-249.0,40.0,-198.0,94.0,-30.0,0
-28.0,-250.0,41.0,-212.0,108.0,-29.0,0
-26.0,-250.0,43.0,-214.0,111.0,-28.0,0
-25.0,-252.0,43.0,-208.0,113.0,-31.0,0
-22.0,-253.0,48.0,-206.0,127.0,-36.0,0
-24.0,-252.0,49.0,-202.0,144.0,-40.0,0
-21.0,-253.0,52.0,-191.0,156.0,-46.0,0
-21.0,-255.0,51.0,-173.0,158.0,-50.0,0
-24.0,-250.0,51.0,-158.0,164.0,-54.0,0
-22.0,-249.0,49.0,-152.0,165.0,-56.0,0
-24.0,-249.0,55.0,-150.0,163.0,-58.0,0
-19.0,-255.0,57.0,-143.0,167.0,-58.0,0
-18.0,-259.0,54.0,-121.0,177.0,-63.0,0
-15.0,-257.0,55.0,-86.0,190.0,-72.0,0
-18.0,-254.0,51.0,-59.0,203.0,-75.0,0
-20.0,-255.0,48.0,-36.0,212.0,-76.0,0
-18.0,-252.0,49.0,-21.0,222.0,-79.0,0
-19.0,-251.0,47.0,-13.0,233.0,-82.0,0
-17.0,-254.0,50.0,-3.0,245.0,-83.0,0
-18.0,-254.0,47.0,8.0,254.0,-83.0,0
-25.0,-251.0,52.0,14.0,266.0,-84.0,0
-23.0,-256.0,48.0,18.0,266.0,-82.0,0
-26.0,-251.0,48.0,29.0,251.0,-80.0,0
-23.0,-248.0,45.0,39.0,243.0,-76.0,0
-23.0,-247.0,44.0,43.0,242.0,-75.0,0
-26.0,-245.0,45.0,41.0,247.0,-72.0,0
-26.0,-248.0,44.0,39.0,252.0,-70.0,0
-28.0,-247.0,42.0,36.0,254.0,-66.0,0
-28.0,-250.0,40.0,34.0,259.0,-64.0,0
-29.0,-248.0,39.0,31.0,258.0,-62.0,0
-27.0,-247.0,38.0,30.0,259.0,-63.0,0
-25.0,-249.0,38.0,33.0,260.0,-62.0,0
-25.0,-247.0,36.0,38.0,260.0,-62.0,0
-25.0,-247.0,33.0,41.0,263.0,-63.0,0
-19.0,-247.0,34.0,39.0,269.0,-66.0,0
-15.0,-244.0,50.0,37.0,276.0,-70.0,0
-18.0,-245.0,35.0,39.0,284.0,-75.0,0
-16.0,-248.0,37.0,41.0,294.0,-83.0,0
-10.0,-250.0,42.0,47.0,306.0,-85.0,0
-7.0,-249.0,44.0,52.0,312.0,-88.0,0
-10.0,-249.0,44.0,58.0,314.0,-88.0,0
-3.0,-248.0,42.0,60.0,318.0,-92.0,0
-1.0,-248.0,38.0,52.0,324.0,-95.0,0
3.0,-250.0,40.0,37.0,332.0,-100.0,0
3.0,-252.0,42.0,13.0,341.0,-105.0,0
5.0,-253.0,36.0,-7.0,354.0,-114.0,0
6.0,-258.0,36.0,-25.0,373.0,-127.0,0
3.0,-262.0,41.0,-40.0,389.0,-140.0,0
5.0,-261.0,44.0,-45.0,403.0,-155.0,0
4.0,-266.0,43.0,-43.0,410.0,-166.0,0
3.0,-266.0,44.0,-34.0,408.0,-176.0,0
2.0,-267.0,43.0,-27.0,402.0,-190.0,0
0.0,-265.0,44.0,-23.0,391.0,-206.0,0
1.0,-264.0,45.0,-22.0,379.0,-225.0,0
0.0,-264.0,47.0,-19.0,366.0,-243.0,0
-6.0,-258.0,53.0,-12.0,345.0,-250.0,0
-22.0,-243.0,53.0,-6.0,317.0,-253.0,0
-9.0,-240.0,57.0,-5.0,287.0,-250.0,0
-11.0,-238.0,61.0,-13.0,272.0,-251.0,0
-14.0,-233.0,61.0,-33.0,272.0,-253.0,0
-13.0,-234.0,59.0,-59.0,277.0,-252.0,0
-16.0,-237.0,63.0,-94.0,279.0,-253.0,0
-17.0,-240.0,64.0,-129.0,271.0,-259.0,0
-19.0,-239.0,66.0,-148.0,254.0,-260.0,0
-17.0,-241.0,61.0,-148.0,234.0,-259.0,0
-19.0,-244.0,61.0,-152.0,213.0,-261.0,0
-20.0,-242.0,59.0,-159.0,190.0,-263.0,0
-16.0,-246.0,53.0,-172.0,170.0,-261.0,0
-16.0,-248.0,55.0,-211.0,149.0,-261.0,0
-14.0,-249.0,53.0,-239.0,123.0,-265.0,0
-13.0,-253.0,52.0,-252.0,99.0,-265.0,0
-7.0,-250.0,50.0,-261.0,80.0,-265.0,0
1.0,-252.0,52.0,-263.0,63.0,-267.0,0
6.0,-248.0,51.0,-247.0,50.0,-274.0,0
7.0,-246.0,48.0,-229.0,44.0,-281.0,0
11.0,-245.0,52.0,-218.0,46.0,-287.0,0
13.0,-245.0,48.0,-215.0,51.0,-292.0,0
16.0,-247.0,53.0,-218.0,55.0,-293.0,0
21.0,-245.0,60.0,-221.0,58.0,-292.0,0
12.0,-248.0,48.0,-217.0,60.0,-288.0,0
14.0,-247.0,51.0,-214.0,58.0,-287.0,0
16.0,-248.0,52.0,-213.0,57.0,-289.0,0
15.0,-246.0,47.0,-207.0,53.0,-290.0,0
10.0,-245.0,47.0,-194.0,50.0,-286.0,0
10.0,-238.0,47.0,-183.0,46.0,-280.0,0
8.0,-242.0,48.0,-173.0,40.0,-273.0,0
5.0,-241.0,52.0,-165.0,30.0,-265.0,0
4.0,-238.0,47.0,-162.0,15.0,-258.0,0
6.0,-236.0,47.0,-164.0,-1.0,-252.0,0
3.0,-231.0,45.0,-173.0,-11.0,-246.0,0
5.0,-235.0,46.0,-180.0,-14.0,-242.0,0
8.0,-233.0,45.0,-184.0,-9.0,-234.0,0
9.0,-233.0,44.0,-190.0,2.0,-228.0,0
7.0,-236.0,45.0,-193.0,9.0,-223.0,0
7.0,-238.0,54.0,-192.0,9.0,-218.0,0
6.0,-239.0,48.0,-193.0,2.0,-211.0,0
7.0,-239.0,48.0,-203.0,-12.0,-207.0,0
2.0,-238.0,47.0,-199.0,-25.0,-200.0,0
2.0,-240.0,45.0,-186.0,-37.0,-190.0,0
1.0,-241.0,43.0,-182.0,-47.0,-184.0,0
10.0,-244.0,40.0,-184.0,-59.0,-173.0,0
2.0,-244.0,40.0,-186.0,-74.0,-161.0,0
-1.0,-243.0,44.0,-186.0,-88.0,-151.0,0
-2.0,-244.0,47.0,-182.0,-101.0,-147.0,0
0.0,-246.0,48.0,-176.0,-116.0,-137.0,0
-3.0,-247.0,50.0,-168.0,-130.0,-123.0,0
-2.0,-247.0,46.0,-162.0,-143.0,-111.0,0
-6.0,-247.0,48.0,-156.0,-154.0,-101.0,0
-2.0,-245.0,52.0,-147.0,-165.0,-91.0,0
-7.0,-248.0,57.0,-138.0,-179.0,-82.0,0
0.0,-247.0,56.0,-127.0,-192.0,-71.0,0
-1.0,-247.0,57.0,-114.0,-208.0,-63.0,0
-3.0,-247.0,58.0,-95.0,-224.0,-55.0,0
0.0,-245.0,57.0,-76.0,-237.0,-47.0,0
2.0,-240.0,59.0,-57.0,-248.0,-40.0,0
1.0,-239.0,55.0,-38.0,-257.0,-29.0,0
6.0,-238.0,52.0,-30.0,-263.0,-20.0,0
9.0,-235.0,56.0,-25.0,-264.0,-9.0,0
10.0,-234.0,54.0,-33.0,-267.0,1.0,0
8.0,-234.0,55.0,-45.0,-271.0,10.0,0
6.0,-237.0,57.0,-54.0,-281.0,18.0,0
7.0,-238.0,60.0,-53.0,-296.0,28.0,0
7.0,-238.0,68.0,-43.0,-313.0,38.0,0
2.0,-237.0,61.0,-33.0,-335.0,51.0,0
1.0,-232.0,65.0,-18.0,-363.0,66.0,0
1.0,-231.0,60.0,-3.0,-387.0,91.0,0
6.0,-234.0,55.0,1.0,-407.0,118.0,0
5.0,-238.0,60.0,-39.0,-418.0,117.0,0
1.0,-235.0,59.0,-72.0,-417.0,106.0,0
-2.0,-236.0,57.0,-79.0,-413.0,112.0,0
-1.0,-235.0,56.0,-80.0,-418.0,126.0,0
-3.0,-235.0,55.0,-77.0,-431.0,139.0,0
-2.0,-238.0,51.0,-79.0,-447.0,150.0,0
0.0,-238.0,48.0,-89.0,-458.0,154.0,0
0.0,-234.0,50.0,-102.0,-464.0,158.0,0
0.0,-236.0,51.0,-118.0,-469.0,161.0,0
1.0,-242.0,55.0,-133.0,-480.0,165.0,0
3.0,-241.0,54.0,-149.0,-490.0,161.0,0
4.0,-245.0,56.0,-166.0,-506.0,159.0,0
8.0,-250.0,60.0,-177.0,-522.0,166.0,0
10.0,-250.0,57.0,-190.0,-535.0,169.0,0
14.0,-254.0,62.0,-205.0,-546.0,166.0,0
19.0,-263.0,63.0,-213.0,-550.0,159.0,0
6.0,-257.0,55.0,-217.0,-555.0,123.0,0
15.0,-263.0,64.0,-210.0,-561.0,142.0,0
17.0,-268.0,63.0,-197.0,-557.0,152.0,0
19.0,-279.0,62.0,-186.0,-549.0,144.0,0
16.0,-269.0,67.0,-175.0,-542.0,111.0,0
23.0,-274.0,71.0,-154.0,-548.0,128.0,0
27.0,-276.0,68.0,-127.0,-545.0,144.0,0
30.0,-275.0,71.0,-104.0,-537.0,144.0,0
26.0,-279.0,73.0,-96.0,-532.0,118.0,0
27.0,-274.0,75.0,-108.0,-540.0,122.0,0
36.0,-278.0,82.0,-120.0,-541.0,148.0,0
34.0,-282.0,90.0,-128.0,-537.0,157.0,0
32.0,-276.0,91.0,-130.0,-529.0,134.0,0
35.0,-277.0,94.0,-129.0,-532.0,148.0,0
37.0,-276.0,89.0,-126.0,-523.0,181.0,0
38.0,-277.0,95.0,-128.0,-507.0,184.0,0
30.0,-270.0,95.0,-134.0,-495.0,157.0,0
35.0,-276.0,95.0,-143.0,-495.0,176.0,0
41.0,-279.0,88.0,-154.0,-484.0,175.0,0
44.0,-283.0,81.0,-172.0,-468.0,151.0,0
53.0,-293.0,64.0,-201.0,-444.0,132.0,0
55.0,-305.0,41.0,-248.0,-412.0,89.0,0
64.0,-322.0,14.0,-313.0,-365.0,37.0,0
71.0,-333.0,-5.0,-398.0,-317.0,-18.0,0
87.0,-353.0,-4.0,-500.0,-274.0,-88.0,0
106.0,-371.0,16.0,-580.0,-234.0,-171.0,0
120.0,-378.0,43.0,-595.0,-175.0,-257.0,0
113.0,-377.0,71.0,-507.0,-75.0,-323.0,0
93.0,-363.0,92.0,-346.0,63.0,-355.0,0
66.0,-339.0,107.0,-152.0,188.0,-380.0,0
50.0,-310.0,111.0,-2.0,251.0,-423.0,0
36.0,-284.0,103.0,57.0,236.0,-473.0,0
34.0,-267.0,89.0,34.0,185.0,-513.0,0
33.0,-264.0,72.0,-30.0,152.0,-533.0,0
20.0,-259.0,69.0,-90.0,158.0,-535.0,0
3.0,-258.0,61.0,-124.0,169.0,-515.0,0
-4.0,-261.0,51.0,-127.0,148.0,-464.0,0
0.0,-266.0,34.0,-101.0,92.0,-388.0,0
9.0,-268.0,9.0,-56.0,24.0,-294.0,0
26.0,-271.0,-23.0,-10.0,-23.0,-190.0,0
39.0,-277.0,-51.0,21.0,-30.0,-103.0,0
48.0,-274.0,-71.0,28.0,3.0,-42.0,0
52.0,-287.0,-72.0,26.0,56.0,3.0,0
56.0,-298.0,-70.0,28.0,111.0,33.0,0
60.0,-305.0,-58.0,42.0,155.0,52.0,0
61.0,-309.0,-54.0,74.0,186.0,64.0,0
58.0,-313.0,-49.0,118.0,208.0,72.0,0
53.0,-312.0,-47.0,152.0,225.0,67.0,0
49.0,-313.0,-38.0,176.0,244.0,44.0,0
33.0,-308.0,-31.0,202.0,277.0,3.0,0
10.0,-296.0,-27.0,229.0,314.0,-42.0,0
-16.0,-285.0,-21.0,247.0,338.0,-80.0,0
-34.0,-274.0,-27.0,252.0,322.0,-104.0,0
-45.0,-263.0,-34.0,236.0,264.0,-114.0,0
-50.0,-260.0,-41.0,207.0,192.0,-113.0,0
-44.0,-250.0,-43.0,185.0,134.0,-100.0,0
-45.0,-244.0,-47.0,171.0,110.0,-82.0,0
-40.0,-245.0,-52.0,156.0,114.0,-67.0,0
-40.0,-239.0,-42.0,125.0,126.0,-42.0,0
-43.0,-237.0,-31.0,89.0,126.0,-13.0,0
-43.0,-240.0,-18.0,59.0,112.0,22.0,0
-44.0,-242.0,-12.0,42.0,83.0,50.0,0
-44.0,-242.0,-8.0,21.0,50.0,70.0,0
-34.0,-247.0,-7.0,-9.0,19.0,81.0,0
-25.0,-258.0,-3.0,-47.0,-9.0,101.0,0
-20.0,-268.0,-5.0,-88.0,-20.0,142.0,0
-5.0,-278.0,12.0,-100.0,8.0,208.0,0
-2.0,-280.0,12.0,-64.0,70.0,268.0,0
0.0,-285.0,17.0,8.0,134.0,306.0,0
4.0,-276.0,13.0,94.0,170.0,337.0,0
15.0,-268.0,6.0,156.0,178.0,369.0,0
18.0,-252.0,-1.0,172.0,181.0,402.0,0
31.0,-247.0,-7.0,161.0,198.0,438.0,0
38.0,-241.0,-10.0,128.0,226.0,466.0,0
34.0,-232.0,-10.0,87.0,256.0,485.0,0
33.0,-230.0,-8.0,49.0,280.0,496.0,0
29.0,-231.0,-1.0,20.0,295.0,510.0,0
28.0,-229.0,3.0,9.0,304.0,519.0,0
25.0,-228.0,-2.0,12.0,306.0,516.0,0
21.0,-220.0,-6.0,19.0,304.0,507.0,0
16.0,-215.0,-8.0,16.0,303.0,498.0,0
10.0,-207.0,-8.0,-3.0,306.0,477.0,0
3.0,-203.0,-9.0,-21.0,302.0,459.0,0
4.0,-203.0,-6.0,-28.0,309.0,444.0,0
-3.0,-202.0,-13.0,-36.0,324.0,406.0,0
-9.0,-204.0,-2.0,-50.0,332.0,393.0,0
-18.0,-200.0,-5.0,-62.0,342.0,373.0,0
-23.0,-200.0,-4.0,-82.0,330.0,338.0,0
-26.0,-213.0,-2.0,-119.0,312.0,335.0,0
-35.0,-217.0,1.0,-157.0,308.0,314.0,0
-35.0,-217.0,2.0,-180.0,302.0,312.0,0
-41.0,-220.0,6.0,-184.0,305.0,326.0,0
-45.0,-214.0,9.0,-162.0,312.0,324.0,0
-40.0,-219.0,4.0,-116.0,303.0,363.0,0
-47.0,-216.0,1.0,-80.0,298.0,383.0,0
-44.0,-217.0,-5.0,-63.0,290.0,399.0,0
-45.0,-214.0,-8.0,-78.0,291.0,395.0,0
-44.0,-214.0,-4.0,-122.0,287.0,411.0,0
-41.0,-219.0,3.0,-180.0,291.0,435.0,0
-41.0,-224.0,9.0,-224.0,291.0,438.0,0
-41.0,-224.0,17.0,-220.0,292.0,435.0,0
-38.0,-228.0,14.0,-185.0,288.0,422.0,0
-32.0,-233.0,15.0,-145.0,277.0,436.0,0
-33.0,-230.0,14.0,-104.0,279.0,439.0,0
-34.0,-224.0,12.0,-64.0,285.0,447.0,0
-32.0,-227.0,11.0,-35.0,286.0,480.0,0
-32.0,-218.0,4.0,-27.0,284.0,478.0,0
-30.0,-217.0,8.0,-41.0,272.0,468.0,0
-34.0,-217.0,3.0,-60.0,269.0,451.0,0
-40.0,-215.0,12.0,-79.0,272.0,422.0,0
-38.0,-220.0,11.0,-95.0,280.0,420.0,0
-38.0,-221.0,15.0,-106.0,285.0,398.0,0
-39.0,-226.0,22.0,-116.0,281.0,365.0,0
-30.0,-230.0,23.0,-110.0,272.0,351.0,0
-30.0,-223.0,27.0,-80.0,272.0,331.0,0
-27.0,-225.0,19.0,-40.0,283.0,318.0,0
-28.0,-223.0,16.0,-16.0,305.0,314.0,0
-29.0,-216.0,21.0,-10.0,327.0,319.0,0
-32.0,-215.0,14.0,-15.0,340.0,317.0,0
-30.0,-212.0,17.0,-28.0,343.0,324.0,0
-16.0,-211.0,15.0,-44.0,346.0,312.0,0
-14.0,-206.0,15.0,-68.0,343.0,279.0,0
-9.0,-204.0,20.0,-92.0,352.0,250.0,0
-5.0,-204.0,26.0,-96.0,381.0,235.0,0
-6.0,-201.0,29.0,-86.0,420.0,228.0,0
-6.0,-201.0,29.0,-89.0,454.0,217.0,0
-10.0,-201.0,28.0,-109.0,479.0,188.0,0
-2.0,-202.0,32.0,-136.0,483.0,144.0,0
-18.0,-199.0,25.0,-169.0,485.0,94.0,0
-13.0,-219.0,24.0,-217.0,526.0,91.0,0
-13.0,-244.0,42.0,-279.0,600.0,106.0,0
-13.0,-259.0,63.0,-280.0,672.0,99.0,0
-21.0,-262.0,71.0,-188.0,709.0,61.0,0
-27.0,-268.0,74.0,-54.0,706.0,28.0,0
-23.0,-273.0,69.0,72.0,689.0,7.0,0
-30.0,-278.0,65.0,184.0,689.0,-6.0,0
-34.0,-279.0,67.0,284.0,718.0,-11.0,0
-47.0,-281.0,65.0,371.0,744.0,-6.0,0
-62.0,-272.0,58.0,445.0,761.0,-20.0,0
-66.0,-267.0,51.0,487.0,743.0,-14.0,0
-63.0,-263.0,45.0,499.0,716.0,-14.0,0
-58.0,-257.0,37.0,481.0,687.0,-40.0,0
-52.0,-251.0,36.0,443.0,666.0,-60.0,0
-46.0,-247.0,35.0,395.0,656.0,-73.0,0
-43.0,-246.0,34.0,334.0,653.0,-87.0,0
-47.0,-247.0,37.0,261.0,656.0,-93.0,0
-49.0,-249.0,51.0,186.0,663.0,-87.0,0
-62.0,-255.0,59.0,102.0,669.0,-81.0,0
-64.0,-264.0,76.0,46.0,667.0,-62.0,0
-73.0,-271.0,90.0,9.0,661.0,-36.0,0
-80.0,-276.0,100.0,-8.0,647.0,-1.0,0
-82.0,-272.0,111.0,2.0,623.0,43.0,0
-88.0,-280.0,119.0,40.0,587.0,89.0,0
-99.0,-274.0,122.0,95.0,541.0,115.0,0
-101.0,-267.0,114.0,149.0,491.0,142.0,0
-105.0,-259.0,117.0,188.0,445.0,164.0,0
-101.0,-255.0,113.0,198.0,417.0,179.0,0
-95.0,-259.0,110.0,184.0,406.0,191.0,0
-84.0,-265.0,107.0,150.0,409.0,192.0,0
-75.0,-267.0,101.0,118.0,430.0,186.0,0
-73.0,-272.0,102.0,91.0,464.0,182.0,0
-73.0,-286.0,82.0,71.0,482.0,190.0,0
-82.0,-319.0,51.0,65.0,471.0,207.0,0
-101.0,-346.0,-3.0,80.0,450.0,203.0,0
-105.0,-358.0,-59.0,61.0,427.0,215.0,0
-114.0,-362.0,-107.0,-86.0,390.0,266.0,0
-133.0,-361.0,-120.0,-347.0,306.0,341.0,0
-143.0,-370.0,-60.0,-540.0,165.0,428.0,0
-143.0,-390.0,12.0,-474.0,23.0,516.0,0
-144.0,-398.0,35.0,-205.0,-47.0,599.0,0
-136.0,-383.0,9.0,81.0,-49.0,665.0,0
-114.0,-365.0,-19.0,224.0,-45.0,711.0,0
-93.0,-344.0,-45.0,247.0,-53.0,762.0,0
-69.0,-327.0,-53.0,248.0,-41.0,803.0,0
-44.0,-311.0,-54.0,306.0,-19.0,813.0,0
-14.0,-286.0,-64.0,418.0,2.0,793.0,0
17.0,-270.0,-64.0,510.0,41.0,742.0,0
50.0,-251.0,-68.0,541.0,115.0,654.0,0
71.0,-242.0,-68.0,536.0,209.0,551.0,0
82.0,-235.0,-80.0,501.0,312.0,460.0,0
89.0,-236.0,-96.0,406.0,414.0,385.0,0
85.0,-246.0,-93.0,242.0,501.0,302.0,0
78.0,-262.0,-83.0,42.0,547.0,210.0,0
63.0,-289.0,-64.0,-136.0,567.0,138.0,0
45.0,-314.0,-42.0,-241.0,568.0,87.0,0
30.0,-347.0,-24.0,-265.0,554.0,44.0,0
11.0,-367.0,-8.0,-229.0,528.0,-13.0,0
-6.0,-377.0,-2.0,-153.0,510.0,-73.0,0
-22.0,-386.0,1.0,-67.0,517.0,-118.0,0
-40.0,-392.0,9.0,10.0,547.0,-150.0,0
-57.0,-388.0,20.0,79.0,572.0,-187.0,0
-68.0,-377.0,25.0,158.0,567.0,-219.0,0
-80.0,-358.0,37.0,267.0,531.0,-237.0,0
-83.0,-335.0,29.0,404.0,467.0,-247.0,0
-71.0,-310.0,23.0,518.0,377.0,-267.0,0
-63.0,-285.0,1.0,567.0,294.0,-315.0,0
-52.0,-261.0,-15.0,548.0,241.0,-383.0,0
-38.0,-248.0,-22.0,474.0,230.0,-458.0,0
-34.0,-237.0,-30.0,371.0,251.0,-530.0,0
-27.0,-231.0,-27.0,250.0,288.0,-594.0,0
-21.0,-230.0,-21.0,131.0,333.0,-650.0,0
-23.0,-233.0,-17.0,37.0,372.0,-697.0,0
-28.0,-231.0,-10.0,-31.0,401.0,-734.0,0
-33.0,-228.0,0.0,-70.0,409.0,-754.0,0
-37.0,-229.0,7.0,-86.0,394.0,-759.0,0
-38.0,-224.0,16.0,-79.0,364.0,-749.0,0
-38.0,-220.0,19.0,-55.0,333.0,-725.0,0
-37.0,-223.0,17.0,-28.0,309.0,-682.0,0
-35.0,-222.0,19.0,-11.0,289.0,-635.0,0
-38.0,-222.0,30.0,40.0,259.0,-597.0,0
-30.0,-213.0,22.0,123.0,227.0,-558.0,0
-27.0,-201.0,17.0,189.0,195.0,-532.0,0
-31.0,-192.0,10.0,235.0,157.0,-513.0,0
-39.0,-183.0,7.0,233.0,121.0,-504.0,0
-36.0,-178.0,1.0,187.0,94.0,-507.0,0
-33.0,-179.0,6.0,129.0,68.0,-516.0,0
-25.0,-175.0,6.0,60.0,34.0,-527.0,0
-26.0,-183.0,7.0,-18.0,-7.0,-544.0,0
-25.0,-183.0,14.0,-65.0,-43.0,-562.0,0
-20.0,-187.0,17.0,-74.0,-76.0,-565.0,0
-16.0,-186.0,21.0,-54.0,-107.0,-562.0,0
-7.0,-189.0,20.0,-23.0,-150.0,-556.0,0
0.0,-186.0,18.0,14.0,-187.0,-553.0,0
1.0,-186.0,14.0,43.0,-215.0,-557.0,0
5.0,-183.0,14.0,60.0,-233.0,-544.0,0
11.0,-186.0,14.0,68.0,-245.0,-513.0,0
15.0,-190.0,13.0,65.0,-252.0,-489.0,0
8.0,-189.0,13.0,54.0,-253.0,-472.0,0
6.0,-195.0,21.0,50.0,-255.0,-460.0,0
1.0,-194.0,21.0,73.0,-270.0,-441.0,0
3.0,-194.0,19.0,100.0,-299.0,-421.0,0
0.0,-190.0,17.0,119.0,-321.0,-395.0,0
-1.0,-192.0,15.0,140.0,-335.0,-363.0,0
0.0,-188.0,15.0,168.0,-350.0,-344.0,0
0.0,-180.0,9.0,189.0,-366.0,-336.0,0
-1.0,-169.0,9.0,179.0,-372.0,-315.0,0
2.0,-167.0,13.0,149.0,-370.0,-285.0,0
1.0,-172.0,17.0,120.0,-359.0,-255.0,0
0.0,-166.0,18.0,98.0,-335.0,-221.0,0
5.0,-173.0,17.0,80.0,-313.0,-190.0,0
9.0,-176.0,22.0,55.0,-301.0,-178.0,0
9.0,-171.0,29.0,27.0,-302.0,-184.0,0
21.0,-178.0,34.0,11.0,-307.0,-155.0,0
28.0,-182.0,42.0,6.0,-304.0,-139.0,0
25.0,-182.0,45.0,9.0,-288.0,-135.0,0
14.0,-186.0,48.0,10.0,-268.0,-120.0,0
4.0,-193.0,61.0,2.0,-258.0,-115.0,0
1.0,-207.0,75.0,11.0,-277.0,-70.0,0
-2.0,-213.0,70.0,45.0,-303.0,-25.0,0
-14.0,-220.0,68.0,73.0,-323.0,5.0,0
-21.0,-223.0,64.0,81.0,-350.0,30.0,0
-36.0,-221.0,64.0,91.0,-380.0,56.0,0
-32.0,-226.0,64.0,112.0,-408.0,83.0,0
-41.0,-217.0,54.0,134.0,-444.0,78.0,0
-37.0,-215.0,45.0,144.0,-483.0,119.0,0
-33.0,-214.0,38.0,138.0,-503.0,147.0,0
-38.0,-216.0,27.0,105.0,-522.0,150.0,0
-26.0,-218.0,23.0,60.0,-536.0,150.0,0
-22.0,-219.0,18.0,-5.0,-558.0,145.0,0
-15.0,-229.0,22.0,-87.0,-580.0,160.0,0
0.0,-237.0,26.0,-186.0,-601.0,182.0,0
8.0,-243.0,32.0,-273.0,-602.0,191.0,0
11.0,-251.0,34.0,-350.0,-607.0,198.0,0
22.0,-265.0,46.0,-391.0,-596.0,206.0,0
29.0,-276.0,48.0,-418.0,-589.0,196.0,0
32.0,-289.0,53.0,-439.0,-575.0,199.0,0
35.0,-309.0,56.0,-459.0,-542.0,161.0,0
36.0,-322.0,62.0,-490.0,-505.0,123.0,0
40.0,-337.0,71.0,-513.0,-472.0,88.0,0
31.0,-347.0,83.0,-522.0,-455.0,29.0,0
39.0,-359.0,93.0,-474.0,-443.0,-18.0,0
32.0,-356.0,92.0,-388.0,-436.0,-68.0,0
34.0,-343.0,89.0,-286.0,-428.0,-113.0,0
39.0,-331.0,85.0,-206.0,-431.0,-141.0,0
36.0,-320.0,80.0,-160.0,-436.0,-166.0,0
38.0,-308.0,81.0,-150.0,-435.0,-186.0,0
37.0,-305.0,83.0,-170.0,-438.0,-178.0,0
32.0,-299.0,92.0,-200.0,-433.0,-187.0,0
20.0,-300.0,99.0,-230.0,-427.0,-174.0,0
16.0,-294.0,104.0,-246.0,-425.0,-158.0,0
6.0,-289.0,108.0,-241.0,-438.0,-150.0,0
-3.0,-283.0,106.0,-224.0,-458.0,-147.0,0
-5.0,-280.0,97.0,-202.0,-478.0,-147.0,0
-2.0,-281.0,80.0,-194.0,-489.0,-152.0,0
0.0,-294.0,44.0,-203.0,-495.0,-155.0,0
10.0,-321.0,-15.0,-236.0,-484.0,-167.0,0
3.0,-339.0,-55.0,-308.0,-434.0,-226.0,0
-8.0,-357.0,-102.0,-430.0,-369.0,-298.0,0
7.0,-377.0,-137.0,-680.0,-355.0,-388.0,0
72.0,-412.0,-95.0,-1002.0,-435.0,-532.0,0
133.0,-448.0,-12.0,-1072.0,-447.0,-728.0,0
152.0,-470.0,68.0,-736.0,-182.0,-938.0,0
145.0,-444.0,89.0,-168.0,247.0,-1082.0,0
147.0,-405.0,54.0,306.0,468.0,-1114.0,0
151.0,-365.0,-16.0,527.0,382.0,-1065.0,0
155.0,-332.0,-61.0,557.0,276.0,-1003.0,0
122.0,-300.0,-55.0,531.0,373.0,-974.0,0
73.0,-275.0,-12.0,560.0,566.0,-930.0,0
13.0,-250.0,19.0,663.0,653.0,-842.0,0
-32.0,-228.0,10.0,773.0,548.0,-707.0,0
-59.0,-208.0,-31.0,790.0,315.0,-560.0,0
-60.0,-202.0,-86.0,660.0,79.0,-424.0,0
-44.0,-220.0,-127.0,424.0,-69.0,-296.0,0
-32.0,-247.0,-164.0,182.0,-120.0,-197.0,0
-32.0,-267.0,-176.0,16.0,-114.0,-126.0,0
-38.0,-286.0,-173.0,-50.0,-85.0,-82.0,0
-40.0,-306.0,-140.0,-49.0,-48.0,-46.0,0
-42.0,-320.0,-95.0,-28.0,-9.0,-30.0,0
-60.0,-323.0,-47.0,-9.0,5.0,-34.0,0
-68.0,-334.0,-6.0,-11.0,-45.0,-48.0,0
-78.0,-342.0,28.0,-35.0,-175.0,-65.0,0
-67.0,-350.0,49.0,-43.0,-340.0,-81.0,0
-46.0,-356.0,40.0,-22.0,-462.0,-113.0,0
-45.0,-356.0,21.0,11.0,-489.0,-157.0,0
-42.0,-351.0,2.0,25.0,-425.0,-171.0,0
-51.0,-341.0,-7.0,41.0,-333.0,-128.0,0
-57.0,-328.0,-17.0,102.0,-259.0,-49.0,0
-59.0,-311.0,-22.0,202.0,-226.0,42.0,0
-59.0,-291.0,-29.0,291.0,-216.0,136.0,0
-46.0,-268.0,-31.0,332.0,-215.0,224.0,0
-34.0,-249.0,-23.0,310.0,-219.0,298.0,0
-16.0,-238.0,-20.0,245.0,-223.0,359.0,0
0.0,-230.0,-17.0,171.0,-221.0,406.0,0
12.0,-221.0,-12.0,110.0,-211.0,443.0,0
28.0,-224.0,-14.0,47.0,-201.0,483.0,0
39.0,-215.0,-5.0,-3.0,-185.0,526.0,0
47.0,-211.0,-4.0,-15.0,-155.0,560.0,0
52.0,-204.0,-7.0,-3.0,-123.0,597.0,0
55.0,-203.0,-10.0,20.0,-99.0,618.0,0
63.0,-199.0,-14.0,34.0,-84.0,624.0,0
63.0,-195.0,-16.0,23.0,-72.0,616.0,0
65.0,-188.0,-17.0,-15.0,-57.0,597.0,0
69.0,-188.0,-18.0,-66.0,-42.0,571.0,0
69.0,-181.0,-14.0,-117.0,-19.0,536.0,0
65.0,-183.0,-11.0,-156.0,18.0,512.0,0
53.0,-181.0,-11.0,-180.0,66.0,493.0,0
41.0,-186.0,-10.0,-214.0,124.0,489.0,0
24.0,-191.0,6.0,-264.0,172.0,480.0,0
16.0,-199.0,11.0,-280.0,196.0,467.0,0
8.0,-210.0,14.0,-263.0,204.0,464.0,0
-1.0,-209.0,14.0,-246.0,221.0,456.0,0
-9.0,-208.0,16.0,-228.0,238.0,447.0,0
-20.0,-196.0,16.0,-206.0,246.0,439.0,0
-24.0,-191.0,13.0,-177.0,238.0,443.0,0
-28.0,-180.0,11.0,-140.0,237.0,443.0,0
-32.0,-159.0,5.0,-128.0,246.0,436.0,0
-30.0,-166.0,6.0,-148.0,265.0,457.0,0
-38.0,-156.0,7.0,-145.0,295.0,447.0,0
-34.0,-163.0,-1.0,-153.0,319.0,450.0,0
-35.0,-158.0,1.0,-197.0,340.0,423.0,0
-33.0,-170.0,0.0,-225.0,360.0,417.0,0
-42.0,-174.0,4.0,-238.0,377.0,393.0,0
-40.0,-185.0,7.0,-260.0,380.0,382.0,0
-43.0,-190.0,16.0,-287.0,372.0,337.0,0
-36.0,-203.0,18.0,-304.0,362.0,312.0,0
-34.0,-213.0,24.0,-309.0,347.0,277.0,0
-32.0,-218.0,27.0,-307.0,335.0,263.0,0
-36.0,-219.0,27.0,-290.0,326.0,269.0,0
-35.0,-223.0,34.0,-253.0,329.0,261.0,0
-40.0,-225.0,38.0,-213.0,316.0,235.0,0
-42.0,-220.0,37.0,-167.0,291.0,217.0,0
-40.0,-214.0,39.0,-124.0,266.0,202.0,0
-42.0,-212.0,33.0,-85.0,246.0,195.0,0
-43.0,-205.0,34.0,-56.0,232.0,201.0,0
-41.0,-205.0,26.0,-44.0,220.0,199.0,0
-42.0,-195.0,21.0,-50.0,193.0,197.0,0
-40.0,-197.0,20.0,-72.0,160.0,198.0,0
-33.0,-187.0,21.0,-100.0,134.0,192.0,0
-36.0,-192.0,24.0,-125.0,120.0,183.0,0
-32.0,-194.0,33.0,-130.0,115.0,164.0,0
-32.0,-191.0,25.0,-106.0,119.0,137.0,0
-42.0,-187.0,24.0,-107.0,131.0,129.0,0
-36.0,-187.0,27.0,-148.0,137.0,149.0,0
-32.0,-193.0,32.0,-200.0,143.0,161.0,0
-31.0,-196.0,36.0,-224.0,158.0,133.0,0
-32.0,-204.0,41.0,-230.0,178.0,116.0,0
-15.0,-208.0,44.0,-217.0,202.0,148.0,0
-15.0,-216.0,43.0,-180.0,225.0,152.0,0
-8.0,-222.0,42.0,-131.0,230.0,110.0,0
-3.0,-220.0,39.0,-86.0,216.0,67.0,0
0.0,-224.0,37.0,-55.0,215.0,44.0,0
0.0,-230.0,36.0,-35.0,255.0,39.0,0
3.0,-238.0,33.0,-20.0,301.0,48.0,0
-1.0,-240.0,30.0,-9.0,343.0,46.0,0
-2.0,-247.0,27.0,5.0,385.0,56.0,0
-8.0,-253.0,30.0,29.0,429.0,73.0,0
-4.0,-260.0,26.0,56.0,468.0,94.0,0
-14.0,-265.0,36.0,82.0,495.0,92.0,0
-18.0,-268.0,33.0,110.0,502.0,90.0,0
-25.0,-271.0,30.0,126.0,493.0,92.0,0
-28.0,-280.0,27.0,109.0,480.0,93.0,0
-39.0,-281.0,30.0,71.0,468.0,99.0,0
-45.0,-293.0,41.0,33.0,467.0,109.0,0
-47.0,-294.0,47.0,13.0,465.0,120.0,0
-50.0,-295.0,55.0,5.0,477.0,127.0,0
-59.0,-294.0,71.0,0.0,495.0,138.0,0
-62.0,-289.0,78.0,3.0,515.0,157.0,0
-68.0,-294.0,86.0,7.0,525.0,180.0,0
-69.0,-293.0,94.0,4.0,531.0,201.0,0
-81.0,-295.0,107.0,-5.0,523.0,219.0,0
-80.0,-303.0,112.0,-15.0,501.0,237.0,0
-70.0,-310.0,114.0,-32.0,472.0,235.0,0
-65.0,-307.0,113.0,-54.0,461.0,228.0,0
-58.0,-312.0,113.0,-78.0,472.0,230.0,0
-50.0,-313.0,117.0,-92.0,506.0,231.0,0
-56.0,-314.0,115.0,-85.0,552.0,234.0,0
-66.0,-324.0,108.0,-68.0,592.0,234.0,0
-86.0,-339.0,83.0,-52.0,603.0,225.0,0
-122.0,-364.0,21.0,-27.0,561.0,225.0,0
-152.0,-396.0,-55.0,-8.0,489.0,226.0,0
-154.0,-422.0,-123.0,-65.0,401.0,235.0,0
-144.0,-425.0,-167.0,-277.0,310.0,263.0,0
-159.0,-429.0,-126.0,-564.0,234.0,319.0,0
-163.0,-440.0,-19.0,-619.0,132.0,409.0,0
-159.0,-451.0,56.0,-302.0,8.0,521.0,0
-174.0,-437.0,43.0,167.0,-62.0,621.0,0
-170.0,-401.0,12.0,502.0,-59.0,685.0,0
-146.0,-361.0,-8.0,585.0,-105.0,705.0,0
-126.0,-323.0,-22.0,523.0,-203.0,722.0,0
-95.0,-305.0,-28.0,443.0,-271.0,747.0,0
-65.0,-282.0,-41.0,422.0,-293.0,743.0,0
-28.0,-268.0,-63.0,454.0,-280.0,689.0,0
5.0,-245.0,-86.0,494.0,-239.0,599.0,0
31.0,-223.0,-105.0,507.0,-179.0,504.0,0
50.0,-212.0,-123.0,483.0,-105.0,416.0,0
63.0,-206.0,-147.0,400.0,-33.0,350.0,0
64.0,-212.0,-148.0,214.0,35.0,294.0,0
55.0,-227.0,-137.0,-65.0,92.0,226.0,0
42.0,-250.0,-110.0,-386.0,134.0,151.0,0
16.0,-277.0,-72.0,-669.0,153.0,85.0,0
-6.0,-309.0,-31.0,-810.0,142.0,46.0,0
-23.0,-344.0,-7.0,-794.0,113.0,34.0,0
-32.0,-368.0,-2.0,-696.0,77.0,18.0,0
-39.0,-398.0,6.0,-571.0,62.0,-14.0,0
-51.0,-407.0,7.0,-434.0,72.0,-49.0,0
-65.0,-399.0,6.0,-297.0,88.0,-70.0,0
-66.0,-383.0,8.0,-174.0,77.0,-74.0,0
-63.0,-370.0,12.0,-83.0,14.0,-75.0,0
-51.0,-347.0,6.0,-14.0,-85.0,-90.0,0
-39.0,-319.0,-9.0,47.0,-181.0,-123.0,0
-19.0,-306.0,-25.0,86.0,-239.0,-176.0,0
-2.0,-284.0,-41.0,92.0,-258.0,-248.0,0
3.0,-261.0,-52.0,69.0,-247.0,-332.0,0
10.0,-247.0,-54.0,28.0,-216.0,-417.0,0
12.0,-230.0,-54.0,-29.0,-170.0,-504.0,0
8.0,-217.0,-47.0,-95.0,-127.0,-587.0,0
1.0,-204.0,-40.0,-163.0,-100.0,-656.0,0
-8.0,-195.0,-32.0,-233.0,-88.0,-716.0,0
-21.0,-194.0,-22.0,-292.0,-96.0,-769.0,0
-33.0,-185.0,-23.0,-355.0,-122.0,-807.0,0
-48.0,-185.0,-14.0,-434.0,-151.0,-821.0,0
-60.0,-186.0,2.0,-480.0,-175.0,-803.0,0
-63.0,-190.0,5.0,-453.0,-193.0,-761.0,0
-66.0,-183.0,14.0,-380.0,-217.0,-711.0,0
-70.0,-189.0,6.0,-289.0,-248.0,-650.0,0
-72.0,-180.0,-4.0,-214.0,-294.0,-587.0,0
-66.0,-170.0,-5.0,-176.0,-351.0,-534.0,0
-64.0,-166.0,-3.0,-177.0,-415.0,-494.0,0
-63.0,-160.0,-10.0,-187.0,-484.0,-471.0,0
-53.0,-160.0,-12.0,-202.0,-549.0,-451.0,0
-45.0,-160.0,-10.0,-241.0,-602.0,-438.0,0
-34.0,-159.0,-7.0,-287.0,-644.0,-428.0,0
-14.0,-168.0,0.0,-306.0,-678.0,-418.0,0
-9.0,-167.0,2.0,-291.0,-707.0,-420.0,0
-6.0,-176.0,8.0,-261.0,-723.0,-429.0,0
-9.0,-170.0,12.0,-239.0,-727.0,-429.0,0
-1.0,-166.0,11.0,-220.0,-733.0,-408.0,0
2.0,-164.0,9.0,-205.0,-746.0,-379.0,0
6.0,-156.0,8.0,-205.0,-765.0,-340.0,0
19.0,-152.0,11.0,-207.0,-771.0,-294.0,0
24.0,-152.0,10.0,-207.0,-754.0,-255.0,0
28.0,-148.0,8.0,-197.0,-727.0,-210.0,0
34.0,-151.0,4.0,-191.0,-697.0,-170.0,0
37.0,-151.0,0.0,-192.0,-668.0,-142.0,0
37.0,-157.0,-7.0,-197.0,-634.0,-109.0,0
50.0,-161.0,4.0,-208.0,-591.0,-68.0,0
52.0,-170.0,5.0,-227.0,-536.0,-21.0,0
56.0,-177.0,4.0,-220.0,-471.0,29.0,0
52.0,-184.0,17.0,-195.0,-397.0,64.0,0
46.0,-191.0,18.0,-156.0,-328.0,97.0,0
43.0,-200.0,23.0,-121.0,-266.0,132.0,0
35.0,-202.0,24.0,-93.0,-213.0,164.0,0
27.0,-204.0,32.0,-53.0,-171.0,191.0,0
20.0,-211.0,34.0,7.0,-140.0,218.0,0
11.0,-210.0,35.0,88.0,-120.0,240.0,0
6.0,-208.0,32.0,174.0,-120.0,264.0,0
6.0,-206.0,39.0,252.0,-140.0,281.0,0
2.0,-199.0,28.0,326.0,-176.0,282.0,0
-2.0,-184.0,27.0,374.0,-208.0,285.0,0
-7.0,-177.0,24.0,385.0,-224.0,304.0,0
-8.0,-167.0,11.0,346.0,-233.0,311.0,0
-13.0,-155.0,3.0,256.0,-234.0,298.0,0
-14.0,-159.0,0.0,152.0,-226.0,295.0,0
-22.0,-162.0,5.0,73.0,-208.0,300.0,0
-24.0,-176.0,1.0,10.0,-185.0,299.0,0
-24.0,-191.0,1.0,-51.0,-162.0,292.0,0
-32.0,-211.0,3.0,-110.0,-151.0,284.0,0
-42.0,-234.0,14.0,-155.0,-151.0,270.0,0
-39.0,-251.0,24.0,-165.0,-180.0,270.0,0
-40.0,-262.0,37.0,-136.0,-230.0,268.0,0
-39.0,-264.0,41.0,-83.0,-294.0,268.0,0
-32.0,-266.0,48.0,-37.0,-356.0,251.0,0
-33.0,-263.0,44.0,-15.0,-406.0,225.0,0
-33.0,-258.0,45.0,-33.0,-436.0,188.0,0
-29.0,-258.0,36.0,-86.0,-442.0,166.0,0
-29.0,-259.0,45.0,-152.0,-420.0,130.0,0
-32.0,-265.0,54.0,-201.0,-398.0,99.0,0
-28.0,-269.0,64.0,-228.0,-379.0,53.0,0
-32.0,-279.0,68.0,-238.0,-384.0,16.0,0
-17.0,-286.0,74.0,-248.0,-395.0,-27.0,0
-4.0,-302.0,73.0,-281.0,-411.0,-59.0,0
-5.0,-310.0,70.0,-346.0,-432.0,-88.0,0
2.0,-319.0,65.0,-422.0,-465.0,-111.0,0
3.0,-331.0,56.0,-499.0,-511.0,-115.0,0
8.0,-344.0,47.0,-570.0,-552.0,-107.0,0
8.0,-353.0,35.0,-630.0,-580.0,-94.0,0
8.0,-367.0,33.0,-669.0,-579.0,-87.0,0
-1.0,-374.0,33.0,-681.0,-559.0,-82.0,0
-26.0,-377.0,31.0,-674.0,-549.0,-55.0,0
-31.0,-384.0,46.0,-649.0,-557.0,-21.0,0
-41.0,-380.0,61.0,-615.0,-597.0,-7.0,0
-39.0,-376.0,72.0,-585.0,-659.0,-17.0,0
-38.0,-360.0,91.0,-565.0,-729.0,-36.0,0
-18.0,-359.0,101.0,-539.0,-767.0,-20.0,0
-8.0,-346.0,109.0,-505.0,-744.0,-45.0,0
-1.0,-329.0,106.0,-473.0,-693.0,-89.0,0
-1.0,-315.0,107.0,-436.0,-647.0,-127.0,0
7.0,-297.0,100.0,-412.0,-615.0,-184.0,0
19.0,-284.0,86.0,-403.0,-582.0,-207.0,0
26.0,-275.0,63.0,-425.0,-537.0,-236.0,0
31.0,-269.0,26.0,-473.0,-481.0,-272.0,0
38.0,-276.0,-48.0,-541.0,-412.0,-300.0,0
59.0,-285.0,-153.0,-634.0,-331.0,-314.0,0
75.0,-289.0,-262.0,-782.0,-216.0,-324.0,0
115.0,-308.0,-311.0,-1037.0,-62.0,-341.0,0
173.0,-338.0,-255.0,-1315.0,102.0,-402.0,0
248.0,-377.0,-134.0,-1358.0,251.0,-531.0,0
296.0,-414.0,-41.0,-1080.0,436.0,-693.0,0
323.0,-422.0,-11.0,-681.0,718.0,-808.0,0
314.0,-398.0,-32.0,-382.0,1064.0,-833.0,0
250.0,-378.0,-59.0,-258.0,1425.0,-817.0,0
146.0,-365.0,-63.0,-237.0,1782.0,-847.0,0
49.0,-347.0,-47.0,-215.0,2072.0,-927.0,0
-19.0,-340.0,-37.0,-129.0,2162.0,-983.0,0
-59.0,-331.0,-58.0,-36.0,2030.0,-976.0,0
-84.0,-318.0,-83.0,-6.0,1838.0,-937.0,0
-98.0,-311.0,-102.0,-22.0,1749.0,-895.0,0
-115.0,-305.0,-106.0,-45.0,1778.0,-860.0,0
-126.0,-295.0,-91.0,-43.0,1799.0,-807.0,0
-131.0,-270.0,-79.0,23.0,1727.0,-703.0,0
-119.0,-246.0,-64.0,127.0,1551.0,-541.0,0
-76.0,-228.0,-57.0,209.0,1315.0,-349.0,0
-30.0,-218.0,-56.0,219.0,1092.0,-178.0,0
3.0,-215.0,-57.0,161.0,982.0,-56.0,0
20.0,-218.0,-50.0,58.0,1014.0,21.0,0
28.0,-223.0,-47.0,-45.0,1121.0,85.0,0
31.0,-239.0,-40.0,-141.0,1196.0,151.0,0
27.0,-256.0,-36.0,-232.0,1206.0,199.0,0
24.0,-277.0,-35.0,-317.0,1178.0,218.0,0
21.0,-294.0,-23.0,-382.0,1155.0,204.0,0
14.0,-298.0,-7.0,-391.0,1155.0,175.0,0
9.0,-298.0,-5.0,-348.0,1172.0,150.0,0
-3.0,-282.0,-12.0,-292.0,1202.0,140.0,0
-12.0,-265.0,-18.0,-235.0,1238.0,154.0,0
-22.0,-245.0,-25.0,-148.0,1262.0,187.0,0
-30.0,-224.0,-42.0,-56.0,1250.0,222.0,0
-37.0,-207.0,-58.0,0.0,1206.0,245.0,0
-44.0,-188.0,-64.0,14.0,1145.0,251.0,0
-56.0,-172.0,-66.0,5.0,1078.0,247.0,0
-61.0,-161.0,-66.0,-10.0,1012.0,247.0,0
-62.0,-154.0,-58.0,-28.0,951.0,261.0,0
-64.0,-161.0,-59.0,-62.0,898.0,284.0,0
-42.0,-156.0,-30.0,-124.0,858.0,315.0,0
-39.0,-167.0,-39.0,-131.0,813.0,327.0,0
-35.0,-174.0,-41.0,-138.0,791.0,335.0,0
-38.0,-175.0,-42.0,-147.0,780.0,345.0,0
-35.0,-180.0,-48.0,-152.0,768.0,343.0,0
-29.0,-186.0,-50.0,-170.0,746.0,331.0,0
-18.0,-196.0,-56.0,-190.0,711.0,311.0,0
-17.0,-203.0,-64.0,-189.0,690.0,289.0,0
-12.0,-210.0,-77.0,-163.0,692.0,266.0,0
0.0,-218.0,-85.0,-148.0,687.0,244.0,0
11.0,-222.0,-76.0,-140.0,653.0,211.0,0
11.0,-222.0,-86.0,-102.0,624.0,181.0,0
6.0,-214.0,-88.0,-40.0,660.0,174.0,0
1.0,-207.0,-84.0,15.0,755.0,175.0,0
4.0,-195.0,-77.0,43.0,858.0,174.0,0
30.0,-192.0,-75.0,46.0,928.0,169.0,0
59.0,-192.0,-80.0,40.0,978.0,147.0,0
86.0,-200.0,-74.0,55.0,1060.0,118.0,0
94.0,-202.0,-73.0,105.0,1198.0,103.0,0
37.0,-213.0,-84.0,161.0,1387.0,122.0,0
-16.0,-219.0,-42.0,164.0,1600.0,159.0,0
-2.0,-197.0,18.0,188.0,1732.0,199.0,0
21.0,-155.0,17.0,256.0,1729.0,225.0,0
59.0,-156.0,15.0,118.0,1633.0,238.0,0
109.0,-184.0,50.0,-70.0,1632.0,234.0,0
128.0,-229.0,89.0,-48.0,1806.0,246.0,0
120.0,-264.0,100.0,113.0,2044.0,296.0,0
87.0,-276.0,58.0,172.0,2152.0,327.0,0
37.0,-280.0,0.0,-15.0,2030.0,338.0,0
4.0,-306.0,-18.0,-348.0,1772.0,380.0,0
23.0,-345.0,-9.0,-559.0,1529.0,443.0,0
48.0,-366.0,2.0,-533.0,1406.0,482.0,0
29.0,-361.0,18.0,-431.0,1423.0,475.0,0
-57.0,-343.0,57.0,-392.0,1512.0,471.0,0
-151.0,-329.0,72.0,-413.0,1553.0,524.0,0
-230.0,-324.0,46.0,-488.0,1453.0,618.0,0
-281.0,-344.0,5.0,-632.0,1240.0,734.0,0
-320.0,-376.0,-29.0,-819.0,938.0,850.0,0
-325.0,-423.0,-33.0,-1001.0,562.0,941.0,0
-281.0,-479.0,-18.0,-1178.0,203.0,977.0,0
-206.0,-544.0,43.0,-1405.0,-35.0,935.0,0
-123.0,-620.0,122.0,-1639.0,-99.0,863.0,0
-98.0,-676.0,167.0,-1767.0,-59.0,766.0,0
-99.0,-722.0,158.0,-1790.0,2.0,745.0,0
-87.0,-755.0,148.0,-1828.0,-5.0,875.0,0
-81.0,-779.0,130.0,-1804.0,-94.0,1010.0,0
-96.0,-799.0,117.0,-1533.0,-208.0,1040.0,0
-105.0,-789.0,100.0,-990.0,-254.0,1013.0,0
-102.0,-738.0,87.0,-304.0,-267.0,984.0,0
-90.0,-663.0,99.0,377.0,-332.0,947.0,0
-83.0,-582.0,109.0,1076.0,-425.0,891.0,0
-86.0,-479.0,96.0,1745.0,-489.0,852.0,0
-95.0,-405.0,67.0,2292.0,-496.0,853.0,0
-94.0,-312.0,38.0,2655.0,-412.0,859.0,0
-110.0,-226.0,-11.0,2708.0,-269.0,833.0,0
-109.0,-157.0,-45.0,2517.0,-314.0,818.0,0
-75.0,-114.0,-74.0,2256.0,-460.0,847.0,0
-23.0,-83.0,-92.0,2022.0,-605.0,899.0,0
36.0,-57.0,-105.0,1904.0,-645.0,926.0,0
99.0,-30.0,-115.0,1854.0,-562.0,905.0,0
147.0,-24.0,-125.0,1820.0,-412.0,835.0,0
155.0,7.0,-137.0,1759.0,-289.0,729.0,0
152.0,23.0,-148.0,1674.0,-216.0,633.0,0
133.0,48.0,-169.0,1517.0,-186.0,554.0,0
116.0,48.0,-181.0,1261.0,-197.0,482.0,0
91.0,62.0,-167.0,902.0,-235.0,371.0,0
40.0,63.0,-136.0,509.0,-257.0,196.0,0
-23.0,39.0,-97.0,133.0,-230.0,-24.0,0
-71.0,-1.0,-50.0,-203.0,-195.0,-185.0,0
-86.0,-37.0,28.0,-377.0,-205.0,-233.0,0
-102.0,-83.0,47.0,-226.0,-247.0,-199.0,0
-106.0,-93.0,37.0,114.0,-273.0,-119.0,0
-102.0,-77.0,4.0,491.0,-251.0,-22.0,0
-104.0,-42.0,-16.0,823.0,-186.0,80.0,0
-101.0,-3.0,-36.0,1089.0,-121.0,195.0,0
-98.0,37.0,-42.0,1306.0,-84.0,317.0,0
-93.0,72.0,-67.0,1462.0,-71.0,419.0,0
-84.0,112.0,-81.0,1525.0,-92.0,482.0,0
-65.0,141.0,-96.0,1475.0,-174.0,529.0,0
-31.0,151.0,-112.0,1335.0,-313.0,544.0,0
7.0,140.0,-128.0,1113.0,-477.0,456.0,0
18.0,123.0,-131.0,833.0,-620.0,260.0,0
11.0,87.0,-118.0,562.0,-667.0,63.0,0
14.0,50.0,-88.0,381.0,-637.0,-63.0,0
16.0,19.0,-63.0,345.0,-610.0,-131.0,0
18.0,-10.0,-56.0,430.0,-636.0,-177.0,0
22.0,-25.0,-62.0,588.0,-727.0,-222.0,0
18.0,-26.0,-77.0,764.0,-854.0,-267.0,0
14.0,-19.0,-94.0,899.0,-973.0,-290.0,0
11.0,-9.0,-103.0,977.0,-1057.0,-297.0,0
10.0,1.0,-107.0,1048.0,-1095.0,-290.0,0
11.0,3.0,-118.0,1143.0,-1096.0,-274.0,0
-4.0,-9.0,-141.0,1237.0,-1067.0,-268.0,0
-88.0,-63.0,-249.0,1295.0,-1040.0,-263.0,0
-174.0,-108.0,-350.0,1265.0,-1091.0,-274.0,0
-254.0,-71.0,-274.0,1053.0,-1384.0,-280.0,0
-197.0,-124.0,-320.0,431.0,-1861.0,75.0,0
-71.0,-282.0,-535.0,-587.0,-2298.0,550.0,0
-124.0,-416.0,-624.0,-1419.0,-2344.0,714.0,0
-162.0,-454.0,-266.0,-2199.0,-1658.0,852.0,0
-102.0,-547.0,608.0,-2596.0,-257.0,1050.0,0
-180.0,-659.0,606.0,-1754.0,922.0,1348.0,0
-307.0,-763.0,496.0,-1100.0,519.0,1463.0,0
-284.0,-817.0,278.0,-906.0,-388.0,1452.0,0
-72.0,-786.0,-99.0,-1041.0,-937.0,1374.0,0
168.0,-771.0,-300.0,-1215.0,-1238.0,933.0,0
364.0,-758.0,-339.0,-890.0,-1069.0,283.0,0
490.0,-721.0,-264.0,-21.0,-402.0,-286.0,0
595.0,-677.0,-114.0,1147.0,347.0,-504.0,0
451.0,-574.0,-33.0,2369.0,875.0,-367.0,0
286.0,-466.0,14.0,3103.0,1464.0,-122.0,0
106.0,-404.0,42.0,2761.0,2217.0,-200.0,0
-132.0,-383.0,8.0,1492.0,2399.0,-522.0,0
-277.0,-429.0,-54.0,38.0,1795.0,-675.0,0
-285.0,-510.0,-77.0,-1118.0,889.0,-583.0,0
-210.0,-599.0,-93.0,-1730.0,350.0,-465.0,0
-172.0,-659.0,-95.0,-1843.0,461.0,-469.0,0
-210.0,-673.0,-68.0,-1605.0,973.0,-503.0,0
-265.0,-670.0,-1.0,-1126.0,1315.0,-416.0,0
-294.0,-652.0,53.0,-525.0,1199.0,-240.0,0
-292.0,-611.0,67.0,60.0,784.0,-119.0,0
-260.0,-565.0,51.0,530.0,361.0,-114.0,0
-211.0,-515.0,27.0,845.0,109.0,-228.0,0
-168.0,-447.0,4.0,992.0,62.0,-418.0,0
-142.0,-386.0,-27.0,982.0,123.0,-570.0,0
-126.0,-342.0,-34.0,811.0,177.0,-618.0,0
-111.0,-317.0,-26.0,533.0,158.0,-597.0,0
-91.0,-306.0,-12.0,237.0,74.0,-571.0,0
-62.0,-304.0,13.0,5.0,-38.0,-597.0,0
-33.0,-304.0,33.0,-112.0,-154.0,-688.0,0
-18.0,-296.0,45.0,-146.0,-252.0,-799.0,0
-9.0,-285.0,43.0,-156.0,-312.0,-851.0,0
-2.0,-276.0,32.0,-176.0,-329.0,-833.0,0
-3.0,-262.0,21.0,-212.0,-350.0,-778.0,0
-9.0,-255.0,9.0,-239.0,-415.0,-720.0,0
-12.0,-252.0,1.0,-239.0,-516.0,-677.0,0
-10.0,-242.0,-4.0,-216.0,-613.0,-656.0,0
-8.0,-218.0,-1.0,-175.0,-688.0,-654.0,0
-6.0,-217.0,18.0,-140.0,-744.0,-659.0,0
-5.0,-204.0,17.0,-68.0,-770.0,-666.0,0
-9.0,-199.0,27.0,-2.0,-784.0,-670.0,0
-7.0,-193.0,31.0,46.0,-804.0,-682.0,0
-21.0,-202.0,13.0,83.0,-841.0,-703.0,0
-30.0,-149.0,41.0,77.0,-905.0,-717.0,0
-37.0,-132.0,19.0,142.0,-976.0,-726.0,0
-41.0,-104.0,6.0,171.0,-1062.0,-723.0,0
-40.0,-79.0,-14.0,178.0,-1155.0,-705.0,0
-37.0,-56.0,-39.0,190.0,-1226.0,-675.0,0
-39.0,-23.0,-46.0,158.0,-1269.0,-625.0,0
-39.0,-9.0,-68.0,213.0,-1270.0,-576.0,0
-40.0,12.0,-83.0,265.0,-1231.0,-527.0,0
-30.0,25.0,-91.0,196.0,-1181.0,-455.0,0
-18.0,23.0,-83.0,34.0,-1135.0,-376.0,0
2.0,14.0,-74.0,-181.0,-1080.0,-310.0,0
20.0,-2.0,-46.0,-400.0,-998.0,-263.0,0
40.0,-26.0,-15.0,-583.0,-869.0,-232.0,0
52.0,-60.0,16.0,-686.0,-714.0,-222.0,0
48.0,-98.0,46.0,-699.0,-555.0,-207.0,0
46.0,-134.0,74.0,-614.0,-416.0,-185.0,0
40.0,-160.0,94.0,-426.0,-306.0,-161.0,0
35.0,-188.0,87.0,-182.0,-221.0,-140.0,0
46.0,-191.0,100.0,35.0,-176.0,-116.0,0
62.0,-200.0,79.0,227.0,-188.0,-103.0,0
69.0,-197.0,53.0,401.0,-221.0,-125.0,0
77.0,-188.0,22.0,564.0,-227.0,-169.0,0
77.0,-174.0,-11.0,686.0,-211.0,-213.0,0
72.0,-148.0,-42.0,743.0,-203.0,-223.0,0
69.0,-117.0,-60.0,721.0,-184.0,-186.0,0
64.0,-89.0,-69.0,608.0,-129.0,-137.0,0
51.0,-61.0,-66.0,422.0,-42.0,-104.0,0
37.0,-51.0,-57.0,168.0,50.0,-88.0,0
21.0,-49.0,-60.0,-116.0,123.0,-77.0,0
18.0,-76.0,-52.0,-410.0,178.0,-62.0,0
14.0,-119.0,-26.0,-694.0,229.0,-66.0,0
-5.0,-159.0,4.0,-918.0,280.0,-122.0,0
-30.0,-200.0,33.0,-1032.0,307.0,-213.0,0
-53.0,-237.0,51.0,-1038.0,289.0,-297.0,0
-65.0,-271.0,66.0,-962.0,207.0,-337.0,0
-77.0,-300.0,79.0,-851.0,78.0,-348.0,0
-81.0,-315.0,87.0,-717.0,-53.0,-350.0,0
-80.0,-314.0,98.0,-550.0,-148.0,-353.0,0
-83.0,-312.0,101.0,-358.0,-208.0,-351.0,0
-103.0,-296.0,102.0,-205.0,-239.0,-310.0,0
-111.0,-269.0,116.0,-106.0,-256.0,-231.0,0
-124.0,-252.0,112.0,-27.0,-283.0,-145.0,0
-115.0,-249.0,82.0,19.0,-336.0,-68.0,0
-52.0,-282.0,10.0,-22.0,-411.0,-22.0,0
18.0,-332.0,-61.0,-179.0,-494.0,-42.0,0
42.0,-374.0,-127.0,-450.0,-524.0,-119.0,0
15.0,-414.0,-223.0,-862.0,-471.0,-235.0,0
24.0,-487.0,-195.0,-1494.0,-354.0,-360.0,0
89.0,-606.0,-49.0,-1959.0,-187.0,-483.0,0
139.0,-699.0,126.0,-1814.0,12.0,-692.0,0
132.0,-681.0,184.0,-970.0,211.0,-948.0,0
123.0,-650.0,103.0,193.0,318.0,-1048.0,0
82.0,-559.0,52.0,969.0,283.0,-907.0,0
68.0,-478.0,23.0,1376.0,272.0,-770.0,0
58.0,-390.0,-17.0,1513.0,297.0,-746.0,0
52.0,-323.0,-73.0,1442.0,250.0,-717.0,0
61.0,-276.0,-126.0,1217.0,112.0,-648.0,0
82.0,-253.0,-168.0,912.0,-23.0,-562.0,0
107.0,-250.0,-173.0,602.0,-51.0,-473.0,0
107.0,-258.0,-155.0,347.0,10.0,-374.0,0
78.0,-272.0,-129.0,175.0,80.0,-261.0,0
41.0,-300.0,-98.0,63.0,100.0,-174.0,0
-1.0,-320.0,-71.0,-10.0,59.0,-126.0,0
-39.0,-341.0,-57.0,-70.0,-10.0,-116.0,0
-69.0,-357.0,-49.0,-120.0,-83.0,-138.0,0
-96.0,-373.0,-46.0,-167.0,-148.0,-166.0,0
-109.0,-376.0,-36.0,-201.0,-217.0,-191.0,0
-101.0,-382.0,-18.0,-210.0,-304.0,-214.0,0
-88.0,-383.0,-4.0,-180.0,-397.0,-227.0,0
-71.0,-375.0,-5.0,-118.0,-454.0,-229.0,0
-44.0,-360.0,-9.0,-48.0,-458.0,-214.0,0
-27.0,-337.0,-24.0,9.0,-411.0,-192.0,0
-14.0,-310.0,-35.0,23.0,-329.0,-172.0,0
-11.0,-292.0,-47.0,-9.0,-256.0,-130.0,0
-4.0,-267.0,-39.0,-74.0,-193.0,-86.0,0
2.0,-254.0,-37.0,-129.0,-139.0,-22.0,0
1.0,-237.0,-28.0,-163.0,-77.0,37.0,0
0.0,-223.0,-27.0,-194.0,-19.0,100.0,0
10.0,-210.0,-21.0,-235.0,22.0,169.0,0
21.0,-200.0,-18.0,-291.0,8.0,236.0,0
41.0,-194.0,-18.0,-335.0,-31.0,318.0,0
57.0,-190.0,-21.0,-355.0,-47.0,393.0,0
65.0,-192.0,-21.0,-341.0,-17.0,475.0,0
66.0,-201.0,-35.0,-301.0,51.0,571.0,0
86.0,-191.0,-23.0,-260.0,136.0,662.0,0
84.0,-192.0,-24.0,-192.0,211.0,703.0,0
89.0,-194.0,-29.0,-166.0,288.0,699.0,0
82.0,-195.0,-30.0,-181.0,355.0,682.0,0
70.0,-193.0,-24.0,-212.0,418.0,656.0,0
63.0,-193.0,-19.0,-235.0,469.0,628.0,0
54.0,-192.0,-8.0,-243.0,503.0,591.0,0
42.0,-199.0,-6.0,-217.0,521.0,544.0,0
28.0,-201.0,-2.0,-177.0,525.0,481.0,0
24.0,-210.0,-4.0,-156.0,517.0,468.0,0
22.0,-218.0,2.0,-154.0,529.0,450.0,0
20.0,-220.0,11.0,-142.0,556.0,415.0,0
9.0,-218.0,3.0,-103.0,594.0,388.0,0
0.0,-216.0,2.0,-83.0,637.0,366.0,0
-7.0,-211.0,5.0,-76.0,668.0,371.0,0
-15.0,-204.0,3.0,-62.0,691.0,387.0,0
-26.0,-195.0,-8.0,-36.0,703.0,417.0,0
-24.0,-192.0,-17.0,-14.0,709.0,458.0,0
-34.0,-184.0,-22.0,-10.0,704.0,473.0,0
-37.0,-181.0,-30.0,-26.0,693.0,471.0,0
-42.0,-171.0,-38.0,-47.0,675.0,452.0,0
-37.0,-181.0,-29.0,-81.0,664.0,434.0,0
-43.0,-178.0,-20.0,-91.0,658.0,408.0,0
-39.0,-179.0,-15.0,-71.0,654.0,402.0,0
-35.0,-177.0,-21.0,-55.0,650.0,420.0,0
-28.0,-182.0,-20.0,-72.0,657.0,414.0,0
-29.0,-184.0,-17.0,-134.0,667.0,399.0,0
-34.0,-189.0,-15.0,-204.0,673.0,402.0,0
-32.0,-196.0,-10.0,-257.0,684.0,396.0,0
-39.0,-200.0,-8.0,-302.0,687.0,367.0,0
-30.0,-213.0,0.0,-322.0,673.0,359.0,0
-33.0,-220.0,-1.0,-320.0,640.0,320.0,0
-33.0,-222.0,2.0,-297.0,603.0,301.0,0
-29.0,-231.0,1.0,-243.0,586.0,317.0,0
-31.0,-234.0,4.0,-180.0,598.0,309.0,0
-35.0,-232.0,20.0,-136.0,612.0,288.0,0
-32.0,-243.0,27.0,-105.0,615.0,269.0,0
-41.0,-240.0,38.0,-77.0,614.0,223.0,0
-45.0,-241.0,45.0,-47.0,592.0,195.0,0
-48.0,-236.0,44.0,-8.0,560.0,195.0,0
-40.0,-237.0,44.0,34.0,526.0,217.0,0
-34.0,-227.0,36.0,69.0,499.0,223.0,0
-38.0,-228.0,32.0,84.0,475.0,236.0,0
-33.0,-230.0,33.0,76.0,457.0,251.0,0
-29.0,-233.0,38.0,52.0,440.0,243.0,0
-23.0,-229.0,44.0,37.0,421.0,221.0,0
-22.0,-232.0,49.0,34.0,402.0,190.0,0
-12.0,-226.0,54.0,48.0,390.0,163.0,0
-10.0,-220.0,55.0,77.0,390.0,142.0,0
-8.0,-216.0,60.0,102.0,404.0,132.0,0
-3.0,-218.0,77.0,126.0,425.0,111.0,0
-11.0,-217.0,80.0,194.0,444.0,70.0,0
-15.0,-211.0,71.0,268.0,459.0,39.0,0
-23.0,-204.0,70.0,292.0,459.0,34.0,0
-23.0,-200.0,67.0,299.0,458.0,40.0,0
-24.0,-200.0,73.0,300.0,452.0,41.0,0
-23.0,-204.0,79.0,316.0,445.0,29.0,0
-31.0,-203.0,68.0,357.0,430.0,1.0,0
-34.0,-204.0,59.0,397.0,421.0,-19.0,0
-49.0,-209.0,47.0,411.0,421.0,-41.0,0
-63.0,-213.0,43.0,392.0,432.0,-34.0,0
-75.0,-220.0,43.0,363.0,437.0,-25.0,0
-76.0,-227.0,45.0,331.0,419.0,1.0,0
-73.0,-236.0,51.0,310.0,379.0,30.0,0
-51.0,-228.0,51.0,299.0,331.0,75.0,0
-30.0,-231.0,50.0,275.0,299.0,101.0,0
-21.0,-227.0,46.0,214.0,286.0,104.0,0
-20.0,-228.0,46.0,122.0,288.0,114.0,0
-29.0,-236.0,55.0,22.0,288.0,141.0,0
-32.0,-252.0,68.0,-49.0,285.0,201.0,0
-35.0,-265.0,76.0,-80.0,261.0,257.0,0
-37.0,-277.0,89.0,-81.0,223.0,299.0,0
-28.0,-283.0,93.0,-48.0,185.0,333.0,0
-18.0,-281.0,98.0,13.0,166.0,374.0,0
-7.0,-278.0,96.0,88.0,185.0,397.0,0
0.0,-272.0,98.0,167.0,220.0,391.0,0
7.0,-263.0,92.0,241.0,260.0,381.0,0
8.0,-249.0,83.0,286.0,306.0,344.0,0
-7.0,-246.0,73.0,282.0,347.0,304.0,0
-56.0,-264.0,44.0,264.0,382.0,302.0,0
-124.0,-311.0,-3.0,269.0,385.0,355.0,0
-186.0,-350.0,-59.0,289.0,328.0,430.0,0
-183.0,-384.0,-125.0,212.0,218.0,554.0,0
-167.0,-407.0,-197.0,-99.0,77.0,713.0,0
-167.0,-418.0,-157.0,-555.0,-79.0,852.0,0
-169.0,-430.0,-43.0,-748.0,-186.0,950.0,0
-174.0,-443.0,25.0,-393.0,-180.0,1085.0,0
-165.0,-432.0,13.0,237.0,-86.0,1232.0,0
-138.0,-379.0,-7.0,742.0,13.0,1261.0,0
-109.0,-317.0,-4.0,946.0,80.0,1188.0,0
-87.0,-278.0,-4.0,921.0,125.0,1122.0,0
-68.0,-266.0,3.0,786.0,134.0,1087.0,0
-49.0,-280.0,-22.0,648.0,80.0,1012.0,0
-22.0,-290.0,-67.0,555.0,-20.0,879.0,0
-13.0,-308.0,-115.0,495.0,-108.0,728.0,0
-14.0,-318.0,-158.0,424.0,-132.0,613.0,0
-31.0,-342.0,-186.0,297.0,-101.0,532.0,0
-42.0,-372.0,-167.0,101.0,-42.0,426.0,0
-54.0,-392.0,-115.0,-101.0,59.0,307.0,0
-66.0,-420.0,-51.0,-245.0,174.0,210.0,0
-71.0,-445.0,-2.0,-292.0,260.0,137.0,0
-75.0,-465.0,27.0,-271.0,287.0,68.0,0
-69.0,-473.0,45.0,-221.0,267.0,5.0,0
-66.0,-472.0,50.0,-157.0,221.0,-46.0,0
-74.0,-468.0,45.0,-73.0,178.0,-79.0,0
-79.0,-460.0,40.0,38.0,139.0,-96.0,0
-85.0,-439.0,30.0,176.0,88.0,-105.0,0
-62.0,-412.0,14.0,340.0,14.0,-117.0,0
-36.0,-369.0,0.0,477.0,-57.0,-153.0,0
-23.0,-330.0,-9.0,568.0,-113.0,-244.0,0
-18.0,-292.0,-19.0,644.0,-163.0,-358.0,0
-13.0,-264.0,-33.0,669.0,-196.0,-471.0,0
-4.0,-244.0,-37.0,599.0,-202.0,-568.0,0
-2.0,-225.0,-35.0,442.0,-187.0,-662.0,0
-2.0,-210.0,-31.0,257.0,-145.0,-731.0,0
-4.0,-200.0,-21.0,87.0,-95.0,-791.0,0
-11.0,-194.0,-22.0,-41.0,-51.0,-841.0,0
-19.0,-187.0,-16.0,-121.0,-26.0,-889.0,0
-28.0,-178.0,-20.0,-173.0,-24.0,-931.0,0
-38.0,-172.0,-17.0,-210.0,-31.0,-962.0,0
-47.0,-162.0,-10.0,-233.0,-39.0,-984.0,0
-61.0,-156.0,-5.0,-209.0,-59.0,-996.0,0
-62.0,-148.0,-4.0,-157.0,-94.0,-987.0,0
-63.0,-146.0,-2.0,-87.0,-144.0,-963.0,0
-56.0,-136.0,3.0,-25.0,-202.0,-919.0,0
-49.0,-140.0,-10.0,36.0,-245.0,-877.0,0
-41.0,-135.0,-22.0,59.0,-254.0,-838.0,0
-33.0,-136.0,-27.0,12.0,-242.0,-812.0,0
-34.0,-139.0,-16.0,-76.0,-241.0,-813.0,0
-30.0,-133.0,-15.0,-159.0,-267.0,-829.0,0
-27.0,-129.0,-3.0,-208.0,-334.0,-835.0,0
-29.0,-126.0,-1.0,-211.0,-417.0,-809.0,0
-29.0,-129.0,-5.0,-177.0,-481.0,-755.0,0
-27.0,-128.0,-9.0,-154.0,-525.0,-694.0,0
-26.0,-135.0,-12.0,-174.0,-566.0,-639.0,0
-24.0,-138.0,-8.0,-242.0,-611.0,-588.0,0
-18.0,-147.0,-1.0,-309.0,-658.0,-555.0,0
-16.0,-161.0,5.0,-354.0,-705.0,-529.0,0
-25.0,-169.0,24.0,-349.0,-738.0,-499.0,0
-7.0,-179.0,31.0,-218.0,-766.0,-469.0,0
0.0,-177.0,9.0,-86.0,-783.0,-451.0,0
-9.0,-177.0,-2.0,-39.0,-768.0,-437.0,0
-5.0,-179.0,3.0,-41.0,-734.0,-415.0,0
-6.0,-182.0,9.0,-50.0,-721.0,-409.0,0
-3.0,-182.0,0.0,-38.0,-731.0,-379.0,0
-7.0,-185.0,-1.0,-32.0,-736.0,-321.0,0
4.0,-187.0,0.0,-23.0,-712.0,-259.0,0
15.0,-187.0,-6.0,-5.0,-692.0,-217.0,0
11.0,-185.0,-23.0,6.0,-671.0,-204.0,0
20.0,-179.0,-39.0,-31.0,-639.0,-198.0,0
11.0,-174.0,-18.0,-121.0,-594.0,-183.0,0
13.0,-178.0,-4.0,-193.0,-570.0,-148.0,0
14.0,-177.0,4.0,-229.0,-564.0,-101.0,0
20.0,-187.0,18.0,-256.0,-567.0,-39.0,0
29.0,-199.0,25.0,-280.0,-556.0,17.0,0
40.0,-208.0,38.0,-293.0,-520.0,53.0,0
45.0,-226.0,45.0,-304.0,-473.0,72.0,0
50.0,-233.0,58.0,-322.0,-418.0,58.0,0
50.0,-246.0,70.0,-315.0,-375.0,41.0,0
53.0,-248.0,70.0,-270.0,-336.0,16.0,0
51.0,-251.0,66.0,-210.0,-312.0,-11.0,0
42.0,-247.0,62.0,-158.0,-288.0,-32.0,0
39.0,-252.0,56.0,-132.0,-261.0,-28.0,0
25.0,-255.0,53.0,-125.0,-235.0,-8.0,0
16.0,-265.0,56.0,-126.0,-200.0,35.0,0
5.0,-276.0,58.0,-125.0,-172.0,71.0,0
-3.0,-287.0,61.0,-104.0,-162.0,81.0,0
-15.0,-293.0,61.0,-72.0,-178.0,53.0,0
-13.0,-299.0,57.0,-46.0,-222.0,46.0,0
-17.0,-302.0,55.0,-22.0,-264.0,44.0,0
-14.0,-308.0,48.0,1.0,-280.0,48.0,0
-23.0,-308.0,47.0,14.0,-273.0,34.0,0
-18.0,-312.0,43.0,24.0,-260.0,28.0,0
-12.0,-310.0,47.0,52.0,-252.0,8.0,0
0.0,-309.0,50.0,87.0,-255.0,6.0,0
14.0,-309.0,53.0,124.0,-251.0,4.0,0
25.0,-309.0,64.0,141.0,-233.0,13.0,0
35.0,-313.0,71.0,140.0,-198.0,5.0,0
35.0,-311.0,78.0,122.0,-156.0,-23.0,0
39.0,-311.0,81.0,94.0,-122.0,-63.0,0
40.0,-310.0,84.0,56.0,-95.0,-112.0,0
45.0,-305.0,82.0,17.0,-72.0,-158.0,0
48.0,-303.0,80.0,-7.0,-59.0,-197.0,0
48.0,-295.0,75.0,-24.0,-47.0,-230.0,0
51.0,-287.0,70.0,-44.0,-40.0,-268.0,0
42.0,-275.0,70.0,-66.0,-50.0,-286.0,0
39.0,-266.0,74.0,-75.0,-65.0,-270.0,0
29.0,-251.0,75.0,-66.0,-86.0,-258.0,0
17.0,-244.0,85.0,-56.0,-114.0,-245.0,0
3.0,-233.0,89.0,-58.0,-158.0,-218.0,0
0.0,-229.0,86.0,-74.0,-213.0,-185.0,0
2.0,-249.0,61.0,-96.0,-265.0,-149.0,0
-2.0,-290.0,-3.0,-132.0,-291.0,-121.0,0
-30.0,-337.0,-46.0,-193.0,-249.0,-116.0,0
-65.0,-376.0,-81.0,-282.0,-112.0,-157.0,0
-97.0,-411.0,-126.0,-442.0,3.0,-254.0,0
-88.0,-448.0,-125.0,-700.0,-24.0,-399.0,0
-50.0,-482.0,-48.0,-829.0,-131.0,-583.0,0
6.0,-487.0,28.0,-527.0,-158.0,-785.0,0
65.0,-459.0,34.0,121.0,-48.0,-908.0,0
94.0,-411.0,1.0,683.0,51.0,-927.0,0
90.0,-357.0,-18.0,893.0,34.0,-913.0,0
72.0,-303.0,-28.0,891.0,-18.0,-896.0,0
63.0,-249.0,-44.0,844.0,-85.0,-868.0,0
51.0,-215.0,-58.0,776.0,-214.0,-805.0,0
46.0,-206.0,-70.0,673.0,-398.0,-721.0,0
33.0,-213.0,-81.0,580.0,-559.0,-655.0,0
17.0,-219.0,-106.0,537.0,-626.0,-616.0,0
-4.0,-219.0,-126.0,497.0,-604.0,-583.0,0
-23.0,-223.0,-155.0,412.0,-560.0,-535.0,0
-40.0,-236.0,-176.0,264.0,-560.0,-477.0,0
-58.0,-251.0,-168.0,75.0,-613.0,-415.0,0
-71.0,-283.0,-142.0,-87.0,-675.0,-359.0,0
-87.0,-313.0,-107.0,-176.0,-705.0,-322.0,0
-92.0,-336.0,-75.0,-196.0,-706.0,-302.0,0
-112.0,-351.0,-42.0,-179.0,-719.0,-276.0,0
-116.0,-363.0,-10.0,-141.0,-784.0,-228.0,0
-105.0,-363.0,0.0,-77.0,-883.0,-163.0,0
-84.0,-358.0,5.0,-6.0,-973.0,-83.0,0
-67.0,-351.0,14.0,52.0,-982.0,17.0,0
-57.0,-347.0,17.0,118.0,-888.0,117.0,0
-57.0,-336.0,15.0,196.0,-759.0,196.0,0
-58.0,-319.0,8.0,263.0,-671.0,263.0,0
-47.0,-302.0,-5.0,294.0,-644.0,334.0,0
-28.0,-284.0,-19.0,304.0,-642.0,390.0,0
-5.0,-264.0,-32.0,307.0,-617.0,429.0,0
15.0,-250.0,-43.0,296.0,-555.0,468.0,0
35.0,-241.0,-42.0,248.0,-464.0,515.0,0
50.0,-231.0,-43.0,155.0,-373.0,554.0,0
65.0,-224.0,-36.0,34.0,-296.0,588.0,0
75.0,-220.0,-24.0,-86.0,-227.0,616.0,0
94.0,-222.0,-17.0,-166.0,-165.0,631.0,0
109.0,-222.0,-17.0,-176.0,-102.0,638.0,0
118.0,-212.0,-22.0,-145.0,-27.0,633.0,0
120.0,-205.0,-23.0,-114.0,70.0,635.0,0
119.0,-201.0,-23.0,-102.0,178.0,631.0,0
116.0,-200.0,-18.0,-99.0,291.0,611.0,0
105.0,-195.0,-18.0,-93.0,383.0,595.0,0
100.0,-194.0,-19.0,-88.0,467.0,591.0,0
90.0,-189.0,-15.0,-80.0,556.0,581.0,0
78.0,-197.0,-18.0,-83.0,655.0,568.0,0
65.0,-200.0,-15.0,-92.0,744.0,552.0,0
54.0,-203.0,-18.0,-97.0,818.0,524.0,0
44.0,-204.0,-24.0,-105.0,875.0,490.0,0
28.0,-208.0,-17.0,-146.0,922.0,460.0,0
21.0,-203.0,-11.0,-180.0,976.0,424.0,0
15.0,-208.0,-12.0,-175.0,1019.0,403.0,0
11.0,-205.0,-8.0,-168.0,1056.0,373.0,0
2.0,-195.0,-3.0,-162.0,1089.0,350.0,0
-1.0,-195.0,-8.0,-149.0,1120.0,345.0,0
-15.0,-185.0,0.0,-144.0,1162.0,319.0,0
-25.0,-180.0,-5.0,-123.0,1193.0,312.0,0
-38.0,-174.0,-7.0,-84.0,1200.0,333.0,0
-50.0,-161.0,-7.0,-54.0,1208.0,331.0,0
-62.0,-149.0,-8.0,-64.0,1205.0,310.0,0
-63.0,-154.0,3.0,-104.0,1194.0,311.0,0
-79.0,-148.0,3.0,-155.0,1177.0,265.0,0
-82.0,-151.0,2.0,-216.0,1150.0,258.0,0
-92.0,-163.0,8.0,-275.0,1119.0,227.0,0
-100.0,-178.0,7.0,-324.0,1068.0,238.0,0
-96.0,-187.0,17.0,-356.0,1024.0,235.0,0
-105.0,-204.0,14.0,-370.0,969.0,238.0,0
-105.0,-221.0,14.0,-380.0,910.0,206.0,0
-116.0,-227.0,14.0,-391.0,830.0,179.0,0
-104.0,-248.0,20.0,-409.0,750.0,194.0,0
-102.0,-260.0,37.0,-400.0,676.0,165.0,0
-96.0,-260.0,38.0,-328.0,600.0,149.0,0
-83.0,-258.0,37.0,-238.0,525.0,156.0,0
-74.0,-258.0,39.0,-168.0,451.0,174.0,0
-66.0,-248.0,40.0,-122.0,394.0,163.0,0
-67.0,-241.0,41.0,-100.0,350.0,147.0,0
-65.0,-232.0,40.0,-81.0,311.0,139.0,0
-67.0,-224.0,35.0,-66.0,266.0,137.0,0
-67.0,-218.0,32.0,-73.0,212.0,141.0,0
-64.0,-203.0,25.0,-99.0,160.0,146.0,0
-58.0,-199.0,28.0,-130.0,106.0,144.0,0
-51.0,-198.0,30.0,-160.0,58.0,136.0,0
-44.0,-195.0,35.0,-195.0,21.0,133.0,0
-33.0,-197.0,34.0,-229.0,3.0,130.0,0
-24.0,-207.0,38.0,-253.0,8.0,127.0,0
-22.0,-223.0,48.0,-258.0,24.0,122.0,0
-12.0,-237.0,62.0,-232.0,37.0,111.0,0
-10.0,-249.0,73.0,-172.0,55.0,89.0,0
-3.0,-267.0,80.0,-75.0,85.0,63.0,0
0.0,-275.0,88.0,65.0,124.0,37.0,0
0.0,-279.0,95.0,229.0,152.0,19.0,0
5.0,-278.0,85.0,391.0,170.0,3.0,0
-2.0,-275.0,72.0,527.0,189.0,-5.0,0
-9.0,-271.0,62.0,617.0,212.0,-3.0,0
-16.0,-260.0,47.0,650.0,230.0,16.0,0
-29.0,-251.0,34.0,622.0,237.0,31.0,0
-28.0,-245.0,19.0,559.0,208.0,45.0,0
-23.0,-238.0,7.0,470.0,156.0,64.0,0
-14.0,-240.0,-4.0,367.0,106.0,72.0,0
-21.0,-239.0,-7.0,278.0,87.0,52.0,0
-32.0,-243.0,1.0,220.0,108.0,23.0,0
-44.0,-250.0,10.0,191.0,142.0,-1.0,0
-56.0,-255.0,29.0,175.0,175.0,-13.0,0
-68.0,-267.0,51.0,154.0,192.0,-13.0,0
-82.0,-273.0,68.0,119.0,193.0,8.0,0
-92.0,-281.0,91.0,78.0,171.0,66.0,0
-95.0,-289.0,115.0,59.0,129.0,153.0,0
-86.0,-295.0,108.0,73.0,74.0,240.0,0
-74.0,-289.0,105.0,109.0,21.0,308.0,0
-64.0,-276.0,93.0,150.0,-23.0,359.0,0
-55.0,-260.0,81.0,178.0,-49.0,401.0,0
-45.0,-246.0,70.0,184.0,-50.0,420.0,0
-33.0,-239.0,65.0,144.0,-44.0,398.0,0
-27.0,-231.0,60.0,72.0,-28.0,365.0,0
-26.0,-237.0,55.0,-20.0,5.0,343.0,0
-28.0,-256.0,48.0,-126.0,51.0,344.0,0
-46.0,-296.0,44.0,-214.0,113.0,374.0,0
-63.0,-344.0,40.0,-237.0,171.0,430.0,0
-74.0,-379.0,43.0,-196.0,229.0,489.0,0
-81.0,-387.0,32.0,-156.0,263.0,567.0,0
-75.0,-389.0,24.0,-203.0,243.0,658.0,0
-74.0,-394.0,47.0,-269.0,176.0,760.0,0
-91.0,-402.0,65.0,-172.0,124.0,855.0,0
-117.0,-390.0,54.0,100.0,128.0,914.0,0
-124.0,-371.0,30.0,385.0,147.0,944.0,0
-106.0,-332.0,19.0,583.0,153.0,943.0,0
-62.0,-294.0,-1.0,700.0,147.0,909.0,0
-22.0,-248.0,-28.0,772.0,151.0,833.0,0
-23.0,-232.0,-75.0,787.0,216.0,748.0,0
-22.0,-225.0,-100.0,713.0,341.0,672.0,0
-22.0,-229.0,-105.0,575.0,439.0,604.0,0
-9.0,-233.0,-94.0,454.0,462.0,541.0,0
5.0,-240.0,-103.0,391.0,433.0,488.0,0
30.0,-250.0,-109.0,356.0,403.0,443.0,0
38.0,-264.0,-114.0,306.0,428.0,376.0,0
41.0,-278.0,-98.0,233.0,519.0,314.0,0
34.0,-296.0,-80.0,150.0,632.0,266.0,0
24.0,-319.0,-49.0,43.0,715.0,220.0,0
8.0,-339.0,-30.0,-59.0,735.0,169.0,0
1.0,-366.0,-22.0,-148.0,720.0,141.0,0
-3.0,-390.0,-9.0,-216.0,702.0,102.0,0
-12.0,-406.0,12.0,-207.0,710.0,42.0,0
-28.0,-402.0,38.0,-99.0,746.0,-23.0,0
-41.0,-390.0,49.0,83.0,774.0,-74.0,0
-54.0,-373.0,50.0,270.0,751.0,-110.0,0
-57.0,-351.0,45.0,403.0,677.0,-143.0,0
-57.0,-330.0,31.0,463.0,581.0,-191.0,0
-54.0,-314.0,20.0,479.0,499.0,-257.0,0
-64.0,-298.0,5.0,495.0,442.0,-341.0,0
-62.0,-265.0,-21.0,498.0,404.0,-410.0,0
-70.0,-251.0,-30.0,445.0,360.0,-470.0,0
-71.0,-243.0,-31.0,367.0,305.0,-539.0,0
-68.0,-234.0,-29.0,286.0,259.0,-615.0,0
-70.0,-223.0,-32.0,179.0,227.0,-684.0,0
-69.0,-223.0,-35.0,38.0,215.0,-732.0,0
-72.0,-222.0,-25.0,-111.0,212.0,-751.0,0
-72.0,-228.0,-15.0,-216.0,209.0,-765.0,0
-73.0,-234.0,-8.0,-274.0,205.0,-779.0,0
-78.0,-241.0,2.0,-302.0,203.0,-777.0,0
-74.0,-247.0,18.0,-280.0,176.0,-748.0,0
-66.0,-250.0,23.0,-206.0,117.0,-717.0,0
-64.0,-248.0,20.0,-101.0,37.0,-696.0,0
-58.0,-239.0,9.0,-3.0,-49.0,-674.0,0
-48.0,-225.0,2.0,65.0,-121.0,-659.0,0
-48.0,-213.0,-2.0,111.0,-176.0,-652.0,0
-44.0,-205.0,-7.0,150.0,-213.0,-643.0,0
-39.0,-188.0,-15.0,171.0,-249.0,-637.0,0
-39.0,-181.0,-22.0,153.0,-278.0,-631.0,0
-32.0,-169.0,-19.0,105.0,-306.0,-615.0,0
-26.0,-165.0,-17.0,50.0,-329.0,-590.0,0
-21.0,-166.0,-5.0,-17.0,-346.0,-560.0,0
-17.0,-167.0,-8.0,-81.0,-376.0,-546.0,0
-18.0,-166.0,-9.0,-128.0,-422.0,-541.0,0
-14.0,-171.0,-13.0,-172.0,-480.0,-539.0,0
-13.0,-173.0,-11.0,-227.0,-538.0,-542.0,0
-12.0,-180.0,-6.0,-275.0,-582.0,-531.0,0
1.0,-185.0,2.0,-295.0,-616.0,-504.0,0
8.0,-189.0,10.0,-286.0,-640.0,-467.0,0
4.0,-199.0,27.0,-234.0,-653.0,-441.0,0
8.0,-197.0,17.0,-116.0,-654.0,-403.0,0
10.0,-193.0,2.0,-9.0,-653.0,-367.0,0
3.0,-185.0,2.0,4.0,-653.0,-350.0,0
8.0,-187.0,7.0,-22.0,-650.0,-327.0,0
5.0,-184.0,6.0,-37.0,-644.0,-296.0,0
10.0,-184.0,4.0,-40.0,-639.0,-273.0,0
8.0,-184.0,-1.0,-45.0,-642.0,-262.0,0
4.0,-183.0,-10.0,-71.0,-640.0,-252.0,0
1.0,-189.0,-10.0,-127.0,-622.0,-229.0,0
4.0,-192.0,-7.0,-192.0,-597.0,-190.0,0
10.0,-197.0,0.0,-238.0,-581.0,-161.0,0
7.0,-198.0,4.0,-259.0,-566.0,-132.0,0
4.0,-194.0,8.0,-262.0,-542.0,-102.0,0
11.0,-205.0,13.0,-244.0,-506.0,-70.0,0
12.0,-192.0,16.0,-217.0,-473.0,-44.0,0
15.0,-191.0,18.0,-207.0,-445.0,-19.0,0
16.0,-195.0,23.0,-239.0,-416.0,6.0,0
12.0,-200.0,37.0,-289.0,-386.0,12.0,0
7.0,-204.0,44.0,-324.0,-370.0,33.0,0
5.0,-216.0,50.0,-328.0,-359.0,63.0,0
1.0,-225.0,53.0,-308.0,-356.0,74.0,0
0.0,-236.0,53.0,-280.0,-359.0,80.0,0
-10.0,-244.0,57.0,-259.0,-370.0,90.0,0
-9.0,-253.0,67.0,-236.0,-388.0,82.0,0
-13.0,-259.0,74.0,-189.0,-411.0,102.0,0
-6.0,-271.0,67.0,-110.0,-423.0,126.0,0
-8.0,-274.0,60.0,-35.0,-433.0,127.0,0
-16.0,-265.0,53.0,22.0,-458.0,107.0,0
-8.0,-269.0,48.0,67.0,-488.0,127.0,0
-10.0,-262.0,43.0,101.0,-503.0,145.0,0
-4.0,-262.0,34.0,111.0,-499.0,167.0,0
-8.0,-262.0,27.0,95.0,-476.0,179.0,0
-4.0,-264.0,30.0,55.0,-449.0,174.0,0
-4.0,-259.0,32.0,3.0,-431.0,151.0,0
-4.0,-264.0,37.0,-42.0,-430.0,159.0,0
-4.0,-263.0,44.0,-62.0,-432.0,174.0,0
2.0,-278.0,50.0,-68.0,-426.0,165.0,0
0.0,-282.0,64.0,-74.0,-410.0,138.0,0
2.0,-290.0,76.0,-85.0,-398.0,113.0,0
1.0,-299.0,96.0,-96.0,-391.0,87.0,0
5.0,-303.0,114.0,-94.0,-391.0,37.0,0
8.0,-310.0,119.0,-76.0,-386.0,9.0,0
17.0,-313.0,114.0,-44.0,-361.0,-34.0,0
14.0,-307.0,103.0,-13.0,-331.0,-81.0,0
15.0,-302.0,97.0,10.0,-305.0,-134.0,0
22.0,-293.0,80.0,25.0,-301.0,-165.0,0
20.0,-281.0,74.0,27.0,-305.0,-186.0,0
29.0,-267.0,64.0,24.0,-302.0,-197.0,0
33.0,-264.0,64.0,7.0,-296.0,-185.0,0
31.0,-254.0,64.0,-21.0,-271.0,-174.0,0
19.0,-248.0,72.0,-64.0,-243.0,-160.0,0
11.0,-246.0,77.0,-113.0,-222.0,-145.0,0
0.0,-248.0,87.0,-161.0,-225.0,-139.0,0
0.0,-260.0,84.0,-201.0,-259.0,-131.0,0
5.0,-294.0,56.0,-234.0,-300.0,-131.0,0
3.0,-325.0,18.0,-275.0,-312.0,-151.0,0
-31.0,-359.0,-1.0,-319.0,-296.0,-178.0,0
-47.0,-395.0,-47.0,-405.0,-258.0,-240.0,0
-46.0,-422.0,-76.0,-621.0,-274.0,-391.0,0
-24.0,-453.0,-44.0,-871.0,-347.0,-602.0,0
23.0,-478.0,22.0,-857.0,-358.0,-779.0,0
56.0,-478.0,60.0,-453.0,-224.0,-889.0,0
75.0,-443.0,53.0,121.0,-26.0,-944.0,0
83.0,-392.0,34.0,556.0,57.0,-955.0,0
57.0,-339.0,1.0,787.0,35.0,-947.0,0
56.0,-284.0,-35.0,838.0,14.0,-919.0,0
65.0,-251.0,-39.0,750.0,-39.0,-865.0,0
71.0,-229.0,-53.0,618.0,-145.0,-785.0,0
65.0,-213.0,-76.0,513.0,-245.0,-698.0,0
53.0,-210.0,-102.0,443.0,-282.0,-616.0,0
37.0,-213.0,-115.0,366.0,-286.0,-556.0,0
18.0,-217.0,-139.0,261.0,-312.0,-517.0,0
8.0,-228.0,-146.0,149.0,-358.0,-472.0,0
-2.0,-247.0,-144.0,38.0,-387.0,-431.0,0
-21.0,-257.0,-118.0,-53.0,-373.0,-413.0,0
-50.0,-271.0,-90.0,-110.0,-347.0,-415.0,0
-77.0,-288.0,-65.0,-150.0,-357.0,-403.0,0
-101.0,-302.0,-37.0,-205.0,-439.0,-364.0,0
-103.0,-314.0,-13.0,-247.0,-582.0,-312.0,0
-108.0,-317.0,8.0,-224.0,-744.0,-260.0,0
-94.0,-321.0,13.0,-124.0,-874.0,-207.0,0
-77.0,-317.0,10.0,2.0,-932.0,-134.0,0
-66.0,-319.0,12.0,112.0,-917.0,-57.0,0
-62.0,-317.0,16.0,208.0,-859.0,1.0,0
-56.0,-316.0,15.0,278.0,-799.0,56.0,0
-54.0,-313.0,4.0,321.0,-747.0,111.0,0
-40.0,-310.0,-7.0,331.0,-700.0,166.0,0
-27.0,-304.0,-11.0,323.0,-647.0,211.0,0
-14.0,-288.0,-23.0,318.0,-590.0,246.0,0
-1.0,-272.0,-29.0,316.0,-535.0,281.0,0
8.0,-250.0,-35.0,296.0,-492.0,317.0,0
27.0,-233.0,-30.0,265.0,-462.0,359.0,0
44.0,-220.0,-34.0,227.0,-433.0,397.0,0
65.0,-211.0,-32.0,167.0,-399.0,436.0,0
81.0,-204.0,-33.0,95.0,-354.0,458.0,0
91.0,-198.0,-25.0,27.0,-297.0,470.0,0
102.0,-193.0,-28.0,-22.0,-227.0,484.0,0
106.0,-193.0,-31.0,-48.0,-147.0,510.0,0
108.0,-191.0,-32.0,-61.0,-60.0,533.0,0
110.0,-201.0,-33.0,-69.0,29.0,544.0,0
94.0,-193.0,-32.0,-74.0,120.0,541.0,0
83.0,-195.0,-27.0,-90.0,208.0,539.0,0
72.0,-201.0,-22.0,-131.0,292.0,531.0,0
63.0,-209.0,-19.0,-194.0,368.0,510.0,0
47.0,-225.0,-11.0,-243.0,428.0,487.0,0
32.0,-237.0,-6.0,-248.0,480.0,474.0,0
17.0,-245.0,-3.0,-218.0,520.0,463.0,0
12.0,-248.0,-7.0,-171.0,550.0,455.0,0
6.0,-247.0,-13.0,-125.0,577.0,442.0,0
1.0,-245.0,-16.0,-82.0,602.0,432.0,0
-2.0,-237.0,-17.0,-25.0,632.0,422.0,0
-7.0,-222.0,-19.0,31.0,650.0,398.0,0
-10.0,-209.0,-13.0,65.0,660.0,388.0,0
-19.0,-197.0,-13.0,91.0,674.0,377.0,0
-23.0,-185.0,-10.0,99.0,695.0,378.0,0
-36.0,-177.0,-8.0,76.0,720.0,370.0,0
-41.0,-175.0,-1.0,22.0,737.0,363.0,0
-41.0,-174.0,-1.0,-37.0,744.0,358.0,0
-43.0,-184.0,-4.0,-86.0,741.0,376.0,0
-52.0,-189.0,0.0,-127.0,755.0,373.0,0
-55.0,-191.0,2.0,-182.0,760.0,368.0,0
-52.0,-219.0,4.0,-228.0,753.0,400.0,0
-58.0,-215.0,17.0,-248.0,744.0,392.0,0
-51.0,-230.0,18.0,-246.0,724.0,386.0,0
-47.0,-227.0,25.0,-231.0,698.0,352.0,0
-51.0,-243.0,19.0,-214.0,662.0,349.0,0
-50.0,-247.0,20.0,-207.0,643.0,332.0,0
-54.0,-248.0,18.0,-217.0,628.0,304.0,0
-51.0,-252.0,19.0,-226.0,607.0,304.0,0
-49.0,-254.0,23.0,-218.0,581.0,279.0,0
-50.0,-255.0,27.0,-184.0,547.0,260.0,0
-44.0,-249.0,29.0,-133.0,512.0,253.0,0
-44.0,-242.0,29.0,-82.0,476.0,248.0,0
-48.0,-237.0,35.0,-49.0,443.0,251.0,0
-45.0,-234.0,32.0,-30.0,427.0,246.0,0
-45.0,-227.0,37.0,-28.0,414.0,222.0,0
-45.0,-227.0,37.0,-37.0,402.0,213.0,0
-46.0,-221.0,42.0,-50.0,383.0,205.0,0
-46.0,-219.0,44.0,-54.0,358.0,192.0,0
-45.0,-217.0,39.0,-60.0,335.0,181.0,0
-38.0,-218.0,37.0,-81.0,313.0,172.0,0
-36.0,-221.0,37.0,-110.0,289.0,178.0,0
-34.0,-217.0,38.0,-135.0,271.0,154.0,0
-38.0,-218.0,31.0,-149.0,263.0,132.0,0
-25.0,-223.0,49.0,-154.0,265.0,118.0,0
-17.0,-225.0,58.0,-139.0,274.0,107.0,0
-6.0,-232.0,61.0,-95.0,289.0,92.0,0
-3.0,-237.0,66.0,-40.0,309.0,80.0,0
4.0,-241.0,76.0,17.0,333.0,67.0,0
11.0,-248.0,84.0,97.0,367.0,57.0,0
12.0,-247.0,87.0,204.0,395.0,44.0,0
9.0,-241.0,75.0,305.0,409.0,30.0,0
2.0,-237.0,58.0,367.0,408.0,27.0,0
-7.0,-231.0,45.0,376.0,400.0,40.0,0
-20.0,-229.0,41.0,356.0,394.0,60.0,0
-32.0,-225.0,33.0,311.0,387.0,56.0,0
-38.0,-225.0,30.0,268.0,369.0,50.0,0
-37.0,-227.0,26.0,235.0,348.0,38.0,0
-36.0,-230.0,15.0,208.0,341.0,-1.0,0
-39.0,-235.0,6.0,174.0,345.0,-48.0,0
-39.0,-240.0,2.0,128.0,370.0,-82.0,0
-43.0,-247.0,4.0,74.0,414.0,-98.0,0
-56.0,-253.0,21.0,21.0,466.0,-86.0,0
-68.0,-261.0,34.0,-18.0,506.0,-83.0,0
-81.0,-260.0,57.0,-36.0,488.0,-74.0,0
-78.0,-272.0,69.0,-39.0,425.0,-40.0,0
-69.0,-278.0,76.0,-36.0,346.0,15.0,0
-61.0,-282.0,73.0,-29.0,283.0,84.0,0
-55.0,-285.0,71.0,-22.0,248.0,160.0,0
-50.0,-288.0,63.0,-12.0,225.0,233.0,0
-40.0,-283.0,62.0,2.0,223.0,286.0,0
-48.0,-275.0,60.0,17.0,226.0,290.0,0
-54.0,-271.0,53.0,18.0,233.0,295.0,0
-56.0,-276.0,49.0,-14.0,239.0,303.0,0
-68.0,-297.0,37.0,-79.0,247.0,294.0,0
-67.0,-330.0,25.0,-147.0,261.0,309.0,0
-58.0,-357.0,23.0,-174.0,279.0,327.0,0
-39.0,-371.0,6.0,-189.0,302.0,371.0,0
-36.0,-369.0,-14.0,-269.0,319.0,445.0,0
-51.0,-386.0,3.0,-392.0,313.0,548.0,0
-67.0,-408.0,47.0,-398.0,290.0,668.0,0
-81.0,-426.0,75.0,-211.0,262.0,776.0,0
-94.0,-417.0,65.0,52.0,215.0,844.0,0
-96.0,-390.0,48.0,258.0,155.0,892.0,0
-81.0,-360.0,44.0,380.0,120.0,916.0,0
-66.0,-328.0,46.0,470.0,121.0,904.0,0
-37.0,-279.0,12.0,561.0,150.0,851.0,0
-48.0,-269.0,30.0,623.0,207.0,780.0,0
-50.0,-254.0,16.0,631.0,294.0,698.0,0
-52.0,-246.0,0.0,613.0,368.0,607.0,0
-44.0,-240.0,-25.0,590.0,391.0,512.0,0
-32.0,-229.0,-54.0,574.0,381.0,429.0,0
-14.0,-224.0,-83.0,557.0,395.0,360.0,0
4.0,-216.0,-108.0,511.0,446.0,300.0,0
11.0,-210.0,-125.0,435.0,532.0,234.0,0
23.0,-213.0,-121.0,310.0,650.0,196.0,0
23.0,-220.0,-104.0,163.0,782.0,197.0,0
13.0,-233.0,-81.0,37.0,887.0,209.0,0
5.0,-257.0,-64.0,-43.0,918.0,222.0,0
7.0,-282.0,-51.0,-92.0,866.0,234.0,0
14.0,-308.0,-41.0,-121.0,776.0,243.0,0
25.0,-326.0,-28.0,-126.0,717.0,238.0,0
17.0,-339.0,-13.0,-105.0,725.0,215.0,0
5.0,-349.0,10.0,-60.0,768.0,176.0,0
-14.0,-349.0,25.0,12.0,786.0,133.0,0
-28.0,-353.0,40.0,102.0,749.0,92.0,0
-36.0,-349.0,32.0,201.0,671.0,44.0,0
-40.0,-339.0,34.0,295.0,588.0,-14.0,0
-45.0,-318.0,20.0,383.0,521.0,-70.0,0
-49.0,-301.0,12.0,469.0,465.0,-134.0,0
-58.0,-274.0,-4.0,525.0,401.0,-211.0,0
-59.0,-251.0,-13.0,525.0,325.0,-296.0,0
-62.0,-230.0,-28.0,461.0,257.0,-389.0,0
-71.0,-213.0,-30.0,352.0,209.0,-483.0,0
-74.0,-206.0,-34.0,225.0,187.0,-559.0,0
-82.0,-208.0,-27.0,98.0,176.0,-621.0,0
-86.0,-216.0,-19.0,-20.0,191.0,-672.0,0
-96.0,-228.0,-9.0,-107.0,215.0,-713.0,0
-92.0,-243.0,2.0,-154.0,227.0,-732.0,0
-88.0,-251.0,11.0,-165.0,221.0,-739.0,0
-88.0,-260.0,23.0,-141.0,206.0,-730.0,0
-82.0,-268.0,22.0,-82.0,173.0,-708.0,0
-73.0,-270.0,20.0,3.0,116.0,-684.0,0
-61.0,-265.0,16.0,82.0,47.0,-663.0,0
-48.0,-253.0,10.0,151.0,-20.0,-646.0,0
-33.0,-242.0,2.0,209.0,-78.0,-634.0,0
-19.0,-222.0,-4.0,245.0,-112.0,-618.0,0
-11.0,-208.0,-9.0,256.0,-130.0,-595.0,0
-3.0,-200.0,-7.0,243.0,-142.0,-566.0,0
-2.0,-195.0,1.0,205.0,-148.0,-538.0,0
0.0,-194.0,-1.0,158.0,-142.0,-503.0,0
0.0,-200.0,8.0,100.0,-130.0,-469.0,0
2.0,-205.0,17.0,53.0,-129.0,-451.0,0
-2.0,-205.0,16.0,33.0,-140.0,-443.0,0
-4.0,-215.0,18.0,6.0,-151.0,-442.0,0
-11.0,-221.0,22.0,-32.0,-165.0,-445.0,0
-16.0,-219.0,26.0,-52.0,-189.0,-453.0,0
-14.0,-221.0,28.0,-48.0,-222.0,-457.0,0
-11.0,-222.0,30.0,-29.0,-249.0,-449.0,0
-8.0,-222.0,32.0,-9.0,-261.0,-439.0,0
-2.0,-221.0,33.0,11.0,-259.0,-427.0,0
-3.0,-213.0,37.0,43.0,-252.0,-417.0,0
-1.0,-208.0,24.0,83.0,-247.0,-409.0,0
2.0,-200.0,19.0,90.0,-247.0,-411.0,0
2.0,-195.0,15.0,59.0,-252.0,-412.0,0
1.0,-197.0,21.0,1.0,-254.0,-403.0,0
0.0,-200.0,25.0,-51.0,-256.0,-374.0,0
1.0,-200.0,22.0,-74.0,-265.0,-339.0,0
5.0,-204.0,18.0,-91.0,-271.0,-314.0,0
13.0,-208.0,24.0,-115.0,-266.0,-292.0,0
10.0,-212.0,28.0,-131.0,-254.0,-266.0,0
10.0,-219.0,26.0,-132.0,-239.0,-242.0,0
12.0,-218.0,30.0,-126.0,-231.0,-218.0,0
13.0,-216.0,28.0,-118.0,-224.0,-200.0,0
10.0,-214.0,31.0,-109.0,-215.0,-182.0,0
11.0,-212.0,28.0,-110.0,-199.0,-161.0,0
12.0,-207.0,32.0,-116.0,-182.0,-142.0,0
13.0,-205.0,33.0,-120.0,-170.0,-121.0,0
19.0,-200.0,29.0,-126.0,-161.0,-104.0,0
16.0,-195.0,34.0,-136.0,-151.0,-90.0,0
18.0,-193.0,40.0,-139.0,-136.0,-71.0,0
17.0,-193.0,44.0,-134.0,-127.0,-49.0,0
8.0,-198.0,44.0,-131.0,-122.0,-28.0,0
6.0,-201.0,46.0,-136.0,-121.0,-13.0,0
1.0,-200.0,42.0,-151.0,-121.0,-3.0,0
0.0,-207.0,40.0,-176.0,-122.0,8.0,0
-9.0,-212.0,39.0,-197.0,-120.0,20.0,0
-8.0,-216.0,35.0,-210.0,-121.0,39.0,0
-11.0,-219.0,34.0,-211.0,-127.0,64.0,0
-12.0,-230.0,33.0,-204.0,-132.0,101.0,0
-14.0,-235.0,34.0,-199.0,-137.0,126.0,0
-5.0,-247.0,34.0,-200.0,-139.0,145.0,0
-23.0,-256.0,27.0,-199.0,-139.0,156.0,0
-12.0,-267.0,29.0,-195.0,-134.0,161.0,0
-8.0,-278.0,36.0,-194.0,-139.0,160.0,0
-4.0,-283.0,38.0,-194.0,-153.0,154.0,0
-2.0,-290.0,42.0,-181.0,-170.0,148.0,0
-2.0,-293.0,47.0,-156.0,-187.0,138.0,0
3.0,-300.0,53.0,-119.0,-207.0,122.0,0
1.0,-297.0,51.0,-92.0,-229.0,100.0,0
12.0,-303.0,51.0,-65.0,-239.0,72.0,0
6.0,-295.0,45.0,-47.0,-237.0,10.0,0
10.0,-297.0,51.0,-43.0,-229.0,0.0,0
17.0,-300.0,51.0,-53.0,-209.0,-10.0,0
18.0,-296.0,58.0,-66.0,-191.0,-47.0,0
22.0,-295.0,61.0,-65.0,-178.0,-94.0,0
10.0,-282.0,63.0,-54.0,-177.0,-135.0,0
17.0,-280.0,59.0,-27.0,-176.0,-114.0,0
21.0,-270.0,53.0,-2.0,-165.0,-98.0,0
23.0,-268.0,48.0,1.0,-141.0,-101.0,0
15.0,-256.0,56.0,-21.0,-117.0,-132.0,0
21.0,-255.0,56.0,-54.0,-108.0,-109.0,0
22.0,-255.0,62.0,-90.0,-98.0,-75.0,0
19.0,-255.0,72.0,-132.0,-87.0,-61.0,0
18.0,-261.0,81.0,-175.0,-78.0,-66.0,0
7.0,-253.0,87.0,-217.0,-91.0,-64.0,0
8.0,-255.0,91.0,-244.0,-109.0,-30.0,0
7.0,-259.0,86.0,-260.0,-119.0,-14.0,0
15.0,-263.0,87.0,-282.0,-114.0,-32.0,0
2.0,-273.0,77.0,-314.0,-115.0,-57.0,0
4.0,-296.0,58.0,-335.0,-118.0,-46.0,0
-9.0,-316.0,33.0,-370.0,-107.0,-70.0,0
-23.0,-339.0,11.0,-428.0,-92.0,-158.0,0
-29.0,-358.0,-5.0,-525.0,-122.0,-240.0,0
-12.0,-376.0,-15.0,-662.0,-185.0,-348.0,0
4.0,-394.0,4.0,-764.0,-246.0,-496.0,0
26.0,-406.0,39.0,-707.0,-229.0,-634.0,0
34.0,-408.0,59.0,-468.0,-104.0,-721.0,0
24.0,-395.0,66.0,-130.0,58.0,-761.0,0
18.0,-362.0,64.0,164.0,129.0,-797.0,0
11.0,-318.0,54.0,340.0,81.0,-806.0,0
12.0,-281.0,44.0,402.0,-8.0,-781.0,0
13.0,-258.0,35.0,398.0,-64.0,-736.0,0
10.0,-246.0,21.0,358.0,-99.0,-678.0,0
9.0,-240.0,1.0,306.0,-135.0,-598.0,0
2.0,-233.0,-19.0,271.0,-165.0,-496.0,0
-2.0,-239.0,-35.0,273.0,-176.0,-384.0,0
-10.0,-247.0,-47.0,289.0,-173.0,-282.0,0
-4.0,-251.0,-60.0,282.0,-193.0,-208.0,0
3.0,-259.0,-78.0,226.0,-254.0,-149.0,0
16.0,-273.0,-82.0,141.0,-322.0,-96.0,0
22.0,-294.0,-80.0,69.0,-348.0,-61.0,0
15.0,-304.0,-80.0,28.0,-337.0,-57.0,0
1.0,-310.0,-69.0,15.0,-335.0,-75.0,0
-11.0,-311.0,-64.0,32.0,-366.0,-105.0,0
-22.0,-311.0,-50.0,89.0,-410.0,-142.0,0
-36.0,-300.0,-46.0,172.0,-449.0,-177.0,0
-53.0,-288.0,-46.0,258.0,-482.0,-205.0,0
-72.0,-272.0,-40.0,326.0,-523.0,-218.0,0
-82.0,-262.0,-39.0,361.0,-584.0,-216.0,0
-90.0,-255.0,-32.0,358.0,-645.0,-203.0,0
-96.0,-249.0,-30.0,334.0,-682.0,-190.0,0
-95.0,-246.0,-31.0,315.0,-688.0,-175.0,0
-94.0,-245.0,-36.0,300.0,-675.0,-147.0,0
-88.0,-246.0,-51.0,268.0,-657.0,-106.0,0
-84.0,-250.0,-52.0,207.0,-638.0,-66.0,0
-68.0,-252.0,-50.0,142.0,-623.0,-33.0,0
-57.0,-252.0,-47.0,94.0,-621.0,-4.0,0
-41.0,-242.0,-43.0,80.0,-636.0,19.0,0
-20.0,-242.0,-46.0,73.0,-660.0,36.0,0
6.0,-234.0,-45.0,37.0,-671.0,66.0,0
29.0,-236.0,-34.0,-23.0,-657.0,112.0,0
45.0,-236.0,-19.0,-72.0,-618.0,158.0,0
62.0,-236.0,-7.0,-83.0,-567.0,191.0,0
68.0,-234.0,2.0,-58.0,-517.0,218.0,0
77.0,-234.0,1.0,-13.0,-462.0,240.0,0
87.0,-233.0,-2.0,17.0,-403.0,266.0,0
87.0,-232.0,-2.0,17.0,-335.0,303.0,0
82.0,-243.0,-3.0,-15.0,-258.0,339.0,0
76.0,-246.0,4.0,-65.0,-196.0,366.0,0
67.0,-258.0,9.0,-102.0,-146.0,389.0,0
56.0,-263.0,4.0,-114.0,-103.0,415.0,0
44.0,-266.0,9.0,-112.0,-64.0,441.0,0
32.0,-267.0,8.0,-97.0,-23.0,461.0,0
18.0,-265.0,2.0,-73.0,19.0,478.0,0
14.0,-260.0,-10.0,-50.0,52.0,489.0,0
9.0,-253.0,-6.0,-47.0,94.0,489.0,0
-1.0,-252.0,-7.0,-39.0,141.0,480.0,0
-9.0,-243.0,-3.0,-8.0,172.0,469.0,0
-10.0,-242.0,0.0,44.0,192.0,449.0,0
-14.0,-225.0,-1.0,104.0,206.0,431.0,0
-10.0,-214.0,-5.0,155.0,218.0,415.0,0
-13.0,-201.0,-8.0,170.0,242.0,395.0,0
-10.0,-193.0,-6.0,140.0,271.0,374.0,0
-15.0,-185.0,-6.0,71.0,303.0,351.0,0
-14.0,-184.0,0.0,-26.0,340.0,327.0,0
-9.0,-187.0,7.0,-130.0,376.0,305.0,0
0.0,-188.0,17.0,-220.0,430.0,280.0,0
-3.0,-197.0,31.0,-279.0,517.0,258.0,0
1.0,-212.0,37.0,-301.0,602.0,251.0,0
7.0,-229.0,43.0,-303.0,679.0,238.0,0
11.0,-244.0,37.0,-263.0,763.0,232.0,0
16.0,-259.0,25.0,-178.0,830.0,246.0,0
11.0,-265.0,10.0,-72.0,858.0,276.0,0
15.0,-266.0,-3.0,16.0,834.0,318.0,0
11.0,-264.0,-14.0,67.0,771.0,349.0,0
5.0,-255.0,-25.0,73.0,693.0,370.0,0
4.0,-248.0,-31.0,48.0,621.0,389.0,0
-1.0,-244.0,-34.0,16.0,584.0,408.0,0
-16.0,-235.0,-19.0,-31.0,602.0,405.0,0
-25.0,-241.0,-14.0,-85.0,643.0,409.0,0
-50.0,-227.0,1.0,-136.0,695.0,377.0,0
-56.0,-243.0,23.0,-178.0,733.0,354.0,0
-73.0,-241.0,30.0,-211.0,734.0,315.0,0
-77.0,-246.0,46.0,-218.0,705.0,287.0,0
-86.0,-246.0,58.0,-197.0,640.0,263.0,0
-77.0,-249.0,58.0,-139.0,572.0,249.0,0
-82.0,-247.0,61.0,-72.0,505.0,212.0,0
-88.0,-240.0,57.0,-15.0,446.0,200.0,0
-84.0,-231.0,53.0,21.0,397.0,196.0,0
-79.0,-225.0,48.0,16.0,337.0,173.0,0
-81.0,-218.0,49.0,-9.0,298.0,166.0,0
-69.0,-218.0,43.0,-14.0,262.0,181.0,0
-64.0,-212.0,41.0,-8.0,233.0,172.0,0
-64.0,-205.0,38.0,-10.0,221.0,158.0,0
-61.0,-207.0,42.0,-13.0,211.0,156.0,0
-58.0,-202.0,41.0,-22.0,183.0,164.0,0
-48.0,-198.0,46.0,-39.0,156.0,173.0,0
-38.0,-191.0,46.0,-64.0,137.0,162.0,0
-35.0,-189.0,46.0,-103.0,146.0,159.0,0
-37.0,-194.0,46.0,-166.0,155.0,160.0,0
-27.0,-198.0,53.0,-234.0,143.0,156.0,0
-17.0,-207.0,63.0,-279.0,125.0,150.0,0
-6.0,-215.0,67.0,-292.0,133.0,148.0,0
1.0,-226.0,68.0,-273.0,169.0,147.0,0
0.0,-229.0,74.0,-237.0,219.0,142.0,0
0.0,-241.0,77.0,-178.0,255.0,139.0,0
4.0,-248.0,80.0,-100.0,274.0,136.0,0
4.0,-247.0,70.0,-15.0,273.0,118.0,0
5.0,-244.0,60.0,56.0,284.0,106.0,0
0.0,-240.0,48.0,98.0,320.0,97.0,0
-10.0,-238.0,51.0,114.0,362.0,94.0,0
-15.0,-236.0,47.0,125.0,389.0,95.0,0
-24.0,-237.0,50.0,136.0,384.0,113.0,0
-26.0,-239.0,39.0,152.0,361.0,100.0,0
-23.0,-235.0,29.0,165.0,335.0,74.0,0
-29.0,-233.0,11.0,176.0,317.0,54.0,0
-31.0,-235.0,-2.0,173.0,318.0,33.0,0
-43.0,-237.0,-7.0,147.0,327.0,19.0,0
-49.0,-246.0,-3.0,104.0,328.0,25.0,0
-48.0,-251.0,0.0,56.0,338.0,15.0,0
-53.0,-261.0,24.0,8.0,365.0,25.0,0
-52.0,-271.0,43.0,-18.0,389.0,59.0,0
-42.0,-278.0,59.0,-21.0,398.0,100.0,0
-41.0,-275.0,62.0,-4.0,407.0,140.0,0
-47.0,-284.0,77.0,39.0,402.0,207.0,0
-49.0,-280.0,75.0,86.0,387.0,211.0,0
-52.0,-274.0,77.0,124.0,361.0,194.0,0
-52.0,-268.0,65.0,151.0,347.0,209.0,0
-53.0,-266.0,63.0,146.0,356.0,199.0,0
-65.0,-254.0,66.0,109.0,372.0,182.0,0
-64.0,-255.0,67.0,47.0,393.0,178.0,0
-64.0,-262.0,68.0,-27.0,410.0,148.0,0
-66.0,-278.0,69.0,-96.0,433.0,126.0,0
-73.0,-308.0,67.0,-140.0,463.0,115.0,0
-65.0,-337.0,48.0,-152.0,492.0,112.0,0
-56.0,-359.0,33.0,-172.0,515.0,96.0,0
-48.0,-363.0,12.0,-222.0,531.0,100.0,0
-59.0,-366.0,-1.0,-307.0,538.0,151.0,0
-67.0,-372.0,14.0,-383.0,514.0,216.0,0
-85.0,-383.0,39.0,-365.0,454.0,292.0,0
-103.0,-385.0,55.0,-227.0,371.0,352.0,0
-119.0,-379.0,51.0,-38.0,299.0,392.0,0
-125.0,-356.0,47.0,119.0,252.0,424.0,0
-125.0,-341.0,47.0,190.0,203.0,454.0,0
-115.0,-313.0,43.0,227.0,151.0,464.0,0
-95.0,-292.0,33.0,261.0,103.0,449.0,0
-82.0,-282.0,27.0,259.0,81.0,430.0,0
-72.0,-276.0,15.0,247.0,107.0,399.0,0
-65.0,-276.0,2.0,244.0,162.0,352.0,0
-51.0,-274.0,-10.0,250.0,227.0,294.0,0
-40.0,-266.0,-26.0,250.0,280.0,240.0,0
-29.0,-257.0,-46.0,228.0,319.0,193.0,0
-16.0,-250.0,-59.0,173.0,349.0,145.0,0
-8.0,-249.0,-78.0,97.0,373.0,108.0,0
-4.0,-247.0,-88.0,14.0,407.0,89.0,0
-1.0,-247.0,-93.0,-65.0,457.0,92.0,0
-1.0,-245.0,-86.0,-121.0,513.0,115.0,0
3.0,-248.0,-80.0,-164.0,559.0,145.0,0
7.0,-258.0,-68.0,-196.0,582.0,172.0,0
21.0,-262.0,-53.0,-211.0,595.0,186.0,0
28.0,-266.0,-41.0,-202.0,607.0,187.0,0
34.0,-275.0,-29.0,-178.0,623.0,178.0,0
38.0,-283.0,-15.0,-151.0,637.0,161.0,0
32.0,-291.0,9.0,-117.0,635.0,135.0,0
24.0,-303.0,22.0,-70.0,610.0,98.0,0
19.0,-310.0,32.0,-9.0,555.0,54.0,0
3.0,-312.0,23.0,71.0,474.0,9.0,0
1.0,-313.0,17.0,147.0,394.0,-31.0,0
-11.0,-312.0,0.0,198.0,339.0,-73.0,0
-28.0,-305.0,-14.0,220.0,306.0,-118.0,0
-40.0,-298.0,-17.0,238.0,281.0,-168.0,0
-49.0,-295.0,-14.0,249.0,250.0,-228.0,0
-56.0,-286.0,-15.0,242.0,214.0,-305.0,0
-68.0,-276.0,-11.0,222.0,190.0,-391.0,0
-73.0,-268.0,1.0,215.0,176.0,-466.0,0
-71.0,-256.0,0.0,239.0,163.0,-521.0,0
-76.0,-246.0,-4.0,263.0,158.0,-551.0,0
-75.0,-242.0,-13.0,268.0,164.0,-567.0,0
-74.0,-238.0,-15.0,225.0,170.0,-582.0,0
-73.0,-240.0,-14.0,156.0,172.0,-590.0,0
-69.0,-243.0,-11.0,99.0,168.0,-589.0,0
-61.0,-246.0,-10.0,65.0,148.0,-583.0,0
-51.0,-251.0,-6.0,52.0,124.0,-568.0,0
-35.0,-251.0,-10.0,61.0,103.0,-550.0,0
-27.0,-245.0,-10.0,82.0,86.0,-534.0,0
-12.0,-241.0,-8.0,105.0,79.0,-515.0,0
0.0,-231.0,-10.0,133.0,77.0,-494.0,0
-2.0,-218.0,-8.0,154.0,72.0,-473.0,0
6.0,-213.0,5.0,169.0,67.0,-452.0,0
10.0,-210.0,5.0,165.0,63.0,-431.0,0
11.0,-211.0,11.0,149.0,58.0,-416.0,0
8.0,-209.0,8.0,135.0,53.0,-401.0,0
5.0,-210.0,8.0,113.0,61.0,-388.0,0
3.0,-209.0,10.0,81.0,73.0,-374.0,0
1.0,-208.0,14.0,49.0,82.0,-359.0,0
0.0,-208.0,15.0,22.0,79.0,-357.0,0
-4.0,-210.0,15.0,13.0,64.0,-365.0,0
-4.0,-207.0,13.0,10.0,50.0,-369.0,0
-4.0,-211.0,13.0,3.0,53.0,-366.0,0
-7.0,-209.0,6.0,-7.0,69.0,-364.0,0
-9.0,-211.0,13.0,-8.0,79.0,-365.0,0
-8.0,-213.0,7.0,-6.0,72.0,-368.0,0
0.0,-220.0,11.0,-34.0,54.0,-380.0,0
0.0,-227.0,15.0,-70.0,45.0,-393.0,0
1.0,-232.0,17.0,-82.0,38.0,-400.0,0
1.0,-231.0,16.0,-71.0,36.0,-400.0,0
2.0,-228.0,18.0,-54.0,32.0,-393.0,0
7.0,-227.0,17.0,-57.0,26.0,-378.0,0
3.0,-229.0,31.0,-51.0,30.0,-357.0,0
4.0,-222.0,21.0,9.0,35.0,-334.0,0
8.0,-225.0,27.0,45.0,30.0,-319.0,0
9.0,-225.0,24.0,74.0,20.0,-306.0,0
2.0,-220.0,20.0,92.0,12.0,-293.0,0
1.0,-217.0,20.0,75.0,15.0,-283.0,0
3.0,-217.0,21.0,39.0,19.0,-270.0,0
1.0,-215.0,34.0,14.0,25.0,-259.0,0
3.0,-218.0,31.0,14.0,5.0,-236.0,0
6.0,-214.0,31.0,20.0,1.0,-217.0,0
7.0,-215.0,31.0,27.0,20.0,-202.0,0
3.0,-216.0,30.0,40.0,45.0,-186.0,0
2.0,-209.0,35.0,53.0,66.0,-173.0,0
2.0,-204.0,32.0,58.0,84.0,-155.0,0
4.0,-198.0,32.0,52.0,91.0,-141.0,0
2.0,-199.0,30.0,42.0,100.0,-129.0,0
5.0,-197.0,33.0,30.0,111.0,-117.0,0
6.0,-198.0,38.0,17.0,117.0,-101.0,0
0.0,-200.0,43.0,3.0,115.0,-84.0,0
1.0,-201.0,45.0,-12.0,103.0,-68.0,0
0.0,-202.0,46.0,-20.0,86.0,-45.0,0
-2.0,-207.0,47.0,-36.0,70.0,-17.0,0
-5.0,-215.0,51.0,-49.0,58.0,11.0,0
-18.0,-222.0,49.0,-50.0,52.0,34.0,0
-13.0,-225.0,50.0,-33.0,51.0,58.0,0
-14.0,-231.0,48.0,-1.0,43.0,81.0,0
-19.0,-234.0,49.0,33.0,31.0,103.0,0
-17.0,-238.0,48.0,61.0,13.0,129.0,0
-9.0,-246.0,43.0,87.0,-5.0,152.0,0
0.0,-253.0,41.0,107.0,-9.0,158.0,0
5.0,-258.0,34.0,121.0,-7.0,157.0,0
6.0,-266.0,39.0,121.0,-3.0,146.0,0
7.0,-267.0,38.0,114.0,0.0,138.0,0
15.0,-278.0,44.0,102.0,2.0,123.0,0
2.0,-263.0,51.0,107.0,-17.0,86.0,0
5.0,-264.0,53.0,135.0,-50.0,120.0,0
6.0,-265.0,58.0,154.0,-76.0,144.0,0
3.0,-265.0,50.0,158.0,-90.0,145.0,0
1.0,-265.0,43.0,145.0,-86.0,140.0,0
0.0,-273.0,41.0,115.0,-76.0,133.0,0
-3.0,-287.0,49.0,76.0,-70.0,120.0,0
-7.0,-297.0,52.0,29.0,-77.0,86.0,0
-3.0,-307.0,64.0,-24.0,-85.0,35.0,0
-9.0,-318.0,75.0,-63.0,-89.0,-22.0,0
1.0,-342.0,90.0,-72.0,-91.0,-80.0,0
-19.0,-322.0,85.0,-43.0,-101.0,-174.0,0
-9.0,-319.0,86.0,23.0,-125.0,-192.0,0
-6.0,-307.0,80.0,105.0,-154.0,-168.0,0
7.0,-302.0,72.0,179.0,-164.0,-139.0,0
-1.0,-278.0,70.0,220.0,-165.0,-165.0,0
-3.0,-269.0,70.0,216.0,-177.0,-140.0,0
4.0,-251.0,75.0,175.0,-194.0,-117.0,0
4.0,-247.0,74.0,106.0,-215.0,-91.0,0
5.0,-250.0,73.0,24.0,-217.0,-57.0,0
8.0,-264.0,76.0,-63.0,-213.0,-45.0,0
8.0,-268.0,83.0,-135.0,-213.0,-66.0,0
20.0,-297.0,68.0,-178.0,-228.0,-48.0,0
16.0,-324.0,48.0,-209.0,-220.0,-59.0,0
-6.0,-337.0,47.0,-250.0,-201.0,-123.0,0
-8.0,-360.0,39.0,-302.0,-219.0,-143.0,0
2.0,-373.0,37.0,-365.0,-275.0,-191.0,0
15.0,-379.0,48.0,-395.0,-334.0,-284.0,0
43.0,-390.0,55.0,-345.0,-335.0,-347.0,0
40.0,-385.0,68.0,-207.0,-246.0,-412.0,0
35.0,-369.0,75.0,-17.0,-118.0,-465.0,0
31.0,-340.0,75.0,164.0,-48.0,-510.0,0
46.0,-323.0,64.0,291.0,-56.0,-532.0,0
61.0,-290.0,46.0,346.0,-85.0,-530.0,0
68.0,-271.0,29.0,352.0,-70.0,-513.0,0
63.0,-257.0,15.0,330.0,-24.0,-479.0,0
56.0,-249.0,0.0,291.0,7.0,-431.0,0
58.0,-252.0,-7.0,247.0,0.0,-378.0,0
55.0,-261.0,-17.0,207.0,-19.0,-327.0,0
50.0,-266.0,-17.0,178.0,-14.0,-284.0,0
39.0,-277.0,-25.0,158.0,6.0,-251.0,0
30.0,-285.0,-25.0,123.0,8.0,-232.0,0
25.0,-293.0,-44.0,73.0,-26.0,-224.0,0
13.0,-297.0,-47.0,25.0,-73.0,-226.0,0
4.0,-301.0,-51.0,-1.0,-104.0,-242.0,0
-9.0,-298.0,-50.0,0.0,-126.0,-263.0,0
-24.0,-296.0,-48.0,24.0,-161.0,-281.0,0
-39.0,-283.0,-47.0,64.0,-229.0,-293.0,0
-55.0,-265.0,-48.0,105.0,-312.0,-295.0,0
-64.0,-259.0,-50.0,134.0,-381.0,-287.0,0
-74.0,-246.0,-41.0,155.0,-420.0,-275.0,0
-83.0,-231.0,-46.0,177.0,-440.0,-265.0,0
-86.0,-223.0,-52.0,188.0,-457.0,-252.0,0
-88.0,-224.0,-51.0,154.0,-477.0,-218.0,0
-77.0,-231.0,-56.0,69.0,-495.0,-178.0,0
-74.0,-236.0,-57.0,-36.0,-500.0,-149.0,0
-63.0,-242.0,-46.0,-125.0,-484.0,-128.0,0
-55.0,-247.0,-42.0,-177.0,-461.0,-119.0,0
-45.0,-245.0,-38.0,-190.0,-445.0,-104.0,0
-32.0,-246.0,-35.0,-190.0,-442.0,-72.0,0
-9.0,-247.0,-36.0,-195.0,-441.0,-32.0,0
2.0,-246.0,-32.0,-207.0,-432.0,12.0,0
23.0,-247.0,-26.0,-221.0,-411.0,61.0,0
41.0,-245.0,-21.0,-216.0,-380.0,100.0,0
53.0,-237.0,-17.0,-181.0,-343.0,138.0,0
64.0,-231.0,-20.0,-146.0,-299.0,176.0,0
69.0,-232.0,-18.0,-139.0,-258.0,208.0,0
72.0,-238.0,-17.0,-146.0,-211.0,237.0,0
75.0,-248.0,-10.0,-166.0,-150.0,261.0,0
73.0,-255.0,3.0,-187.0,-79.0,285.0,0
67.0,-267.0,11.0,-179.0,-5.0,303.0,0
60.0,-274.0,17.0,-133.0,70.0,320.0,0
45.0,-282.0,19.0,-77.0,140.0,337.0,0
33.0,-283.0,19.0,-21.0,198.0,356.0,0
20.0,-276.0,16.0,35.0,240.0,370.0,0
21.0,-273.0,12.0,92.0,272.0,384.0,0
7.0,-266.0,9.0,134.0,301.0,393.0,0
8.0,-255.0,8.0,156.0,333.0,400.0,0
4.0,-249.0,1.0,167.0,369.0,401.0,0
3.0,-243.0,-4.0,171.0,401.0,403.0,0
2.0,-234.0,-12.0,164.0,421.0,403.0,0
4.0,-219.0,-9.0,157.0,430.0,400.0,0
6.0,-210.0,-13.0,144.0,434.0,389.0,0
9.0,-202.0,-19.0,120.0,443.0,373.0,0
11.0,-197.0,-11.0,80.0,462.0,356.0,0
7.0,-198.0,-7.0,39.0,485.0,340.0,0
3.0,-198.0,-12.0,0.0,508.0,317.0,0
-1.0,-198.0,-6.0,-45.0,528.0,301.0,0
-2.0,-200.0,1.0,-88.0,539.0,292.0,0
-15.0,-205.0,3.0,-125.0,540.0,276.0,0
-15.0,-215.0,12.0,-170.0,540.0,267.0,0
-21.0,-224.0,17.0,-190.0,543.0,258.0,0
-26.0,-230.0,23.0,-184.0,537.0,255.0,0
-26.0,-233.0,27.0,-174.0,518.0,258.0,0
-29.0,-236.0,29.0,-160.0,505.0,260.0,0
-33.0,-242.0,30.0,-144.0,496.0,262.0,0
-33.0,-249.0,34.0,-132.0,493.0,265.0,0
-34.0,-246.0,32.0,-118.0,495.0,265.0,0
-35.0,-248.0,37.0,-102.0,500.0,262.0,0
-34.0,-252.0,36.0,-96.0,503.0,253.0,0
-39.0,-250.0,41.0,-90.0,505.0,236.0,0
-40.0,-249.0,40.0,-54.0,506.0,234.0,0
-40.0,-245.0,36.0,-19.0,499.0,236.0,0
-39.0,-241.0,38.0,-6.0,485.0,240.0,0
-36.0,-240.0,33.0,-2.0,467.0,246.0,0
-40.0,-236.0,32.0,-15.0,449.0,245.0,0
-39.0,-235.0,34.0,-38.0,426.0,238.0,0
-36.0,-234.0,31.0,-52.0,403.0,229.0,0
-34.0,-231.0,36.0,-49.0,381.0,218.0,0
-31.0,-229.0,33.0,-41.0,364.0,209.0,0
-29.0,-229.0,34.0,-40.0,352.0,202.0,0
-32.0,-227.0,38.0,-53.0,338.0,192.0,0
-31.0,-221.0,42.0,-62.0,318.0,183.0,0
-26.0,-225.0,43.0,-60.0,300.0,175.0,0
-32.0,-219.0,41.0,-66.0,284.0,167.0,0
-28.0,-220.0,50.0,-83.0,266.0,152.0,0
-31.0,-217.0,60.0,-93.0,247.0,133.0,0
-28.0,-213.0,53.0,-67.0,231.0,122.0,0
-30.0,-214.0,48.0,-54.0,218.0,117.0,0
-28.0,-211.0,56.0,-60.0,213.0,103.0,0
-30.0,-208.0,60.0,-64.0,213.0,86.0,0
-30.0,-208.0,60.0,-69.0,216.0,70.0,0
-30.0,-208.0,63.0,-77.0,216.0,58.0,0
-28.0,-214.0,59.0,-90.0,216.0,50.0,0
-30.0,-213.0,58.0,-113.0,208.0,44.0,0
-24.0,-215.0,54.0,-142.0,198.0,38.0,0
-23.0,-220.0,51.0,-169.0,196.0,35.0,0
-15.0,-230.0,51.0,-182.0,206.0,30.0,0
-12.0,-233.0,55.0,-175.0,227.0,17.0,0
-6.0,-245.0,58.0,-146.0,245.0,-4.0,0
-4.0,-244.0,54.0,-105.0,265.0,-25.0,0
-5.0,-247.0,56.0,-67.0,296.0,-37.0,0
-8.0,-248.0,58.0,-24.0,329.0,-43.0,0
-13.0,-252.0,61.0,28.0,342.0,-44.0,0
-19.0,-250.0,56.0,80.0,335.0,-46.0,0
-25.0,-250.0,55.0,119.0,320.0,-43.0,0
-35.0,-254.0,43.0,143.0,309.0,-40.0,0
-40.0,-254.0,40.0,164.0,297.0,-35.0,0
-42.0,-253.0,32.0,179.0,284.0,-36.0,0
-49.0,-252.0,25.0,182.0,279.0,-38.0,0
-54.0,-257.0,22.0,175.0,278.0,-41.0,0
-55.0,-255.0,19.0,151.0,274.0,-40.0,0
-53.0,-261.0,18.0,114.0,268.0,-21.0,0
-55.0,-268.0,22.0,71.0,254.0,-10.0,0
-47.0,-278.0,27.0,26.0,235.0,15.0,0
-49.0,-283.0,38.0,-2.0,223.0,58.0,0
-52.0,-285.0,43.0,-10.0,217.0,98.0,0
-53.0,-289.0,53.0,10.0,211.0,138.0,0
-47.0,-283.0,57.0,52.0,199.0,185.0,0
-43.0,-273.0,57.0,103.0,190.0,207.0,0
-43.0,-262.0,59.0,144.0,184.0,216.0,0
-36.0,-254.0,66.0,162.0,191.0,225.0,0
-31.0,-245.0,67.0,150.0,206.0,222.0,0
-23.0,-240.0,67.0,112.0,226.0,212.0,0
-17.0,-234.0,71.0,60.0,250.0,198.0,0
-12.0,-235.0,73.0,8.0,278.0,183.0,0
-6.0,-232.0,83.0,-43.0,323.0,168.0,0
-2.0,-232.0,86.0,-79.0,375.0,152.0,0
-8.0,-236.0,96.0,-104.0,433.0,138.0,0
-5.0,-236.0,100.0,-121.0,499.0,125.0,0
-11.0,-246.0,106.0,-139.0,566.0,112.0,0
-22.0,-257.0,110.0,-134.0,610.0,104.0,0
-34.0,-264.0,103.0,-122.0,633.0,107.0,0
-46.0,-285.0,103.0,-123.0,642.0,119.0,0
-55.0,-309.0,89.0,-130.0,652.0,135.0,0
-54.0,-333.0,75.0,-128.0,662.0,151.0,0
-48.0,-337.0,51.0,-127.0,683.0,175.0,0
-57.0,-335.0,31.0,-147.0,725.0,197.0,0
-67.0,-333.0,23.0,-211.0,746.0,225.0,0
-78.0,-331.0,32.0,-265.0,732.0,246.0,0
-88.0,-335.0,55.0,-237.0,679.0,262.0,0
-100.0,-330.0,55.0,-102.0,611.0,271.0,0
-111.0,-319.0,49.0,56.0,543.0,265.0,0
-115.0,-314.0,40.0,182.0,494.0,250.0,0
-116.0,-311.0,33.0,259.0,472.0,242.0,0
-108.0,-304.0,26.0,301.0,454.0,237.0,0
-101.0,-296.0,6.0,332.0,416.0,235.0,0
-94.0,-288.0,-28.0,332.0,370.0,233.0,0
-86.0,-293.0,-46.0,282.0,325.0,237.0,0
-75.0,-301.0,-52.0,218.0,292.0,238.0,0
-58.0,-296.0,-55.0,197.0,280.0,236.0,0
-41.0,-297.0,-45.0,223.0,302.0,236.0,0
-22.0,-297.0,-48.0,261.0,356.0,238.0,0
-5.0,-294.0,-55.0,279.0,421.0,241.0,0
12.0,-285.0,-52.0,285.0,479.0,230.0,0
28.0,-273.0,-51.0,297.0,540.0,227.0,0
36.0,-263.0,-51.0,327.0,604.0,235.0,0
42.0,-252.0,-54.0,352.0,663.0,246.0,0
44.0,-248.0,-51.0,364.0,707.0,252.0,0
48.0,-243.0,-47.0,351.0,731.0,254.0,0
44.0,-240.0,-38.0,319.0,738.0,248.0,0
49.0,-234.0,-29.0,266.0,732.0,230.0,0
42.0,-242.0,-20.0,200.0,725.0,202.0,0
31.0,-244.0,-10.0,146.0,701.0,151.0,0
16.0,-248.0,-1.0,108.0,657.0,103.0,0
6.0,-257.0,5.0,81.0,611.0,64.0,0
-6.0,-269.0,13.0,59.0,577.0,20.0,0
-23.0,-275.0,14.0,54.0,551.0,-19.0,0
-32.0,-289.0,13.0,73.0,532.0,-59.0,0
-41.0,-299.0,14.0,97.0,524.0,-109.0,0
-50.0,-308.0,18.0,124.0,516.0,-169.0,0
-63.0,-310.0,26.0,161.0,493.0,-237.0,0
-66.0,-311.0,21.0,225.0,448.0,-307.0,0
-79.0,-306.0,19.0,283.0,381.0,-382.0,0
-75.0,-286.0,4.0,310.0,306.0,-456.0,0
-80.0,-282.0,16.0,303.0,239.0,-518.0,0
-81.0,-269.0,16.0,283.0,174.0,-565.0,0
-72.0,-253.0,13.0,268.0,118.0,-589.0,0
-67.0,-246.0,18.0,249.0,75.0,-599.0,0
-66.0,-238.0,14.0,236.0,39.0,-603.0,0
-61.0,-235.0,10.0,223.0,11.0,-601.0,0
-56.0,-232.0,5.0,205.0,-12.0,-594.0,0
-50.0,-233.0,0.0,178.0,-39.0,-586.0,0
-38.0,-235.0,-4.0,143.0,-68.0,-579.0,0
-25.0,-235.0,-7.0,102.0,-90.0,-576.0,0
-15.0,-234.0,-2.0,75.0,-96.0,-574.0,0
-8.0,-233.0,0.0,65.0,-86.0,-565.0,0
-4.0,-225.0,10.0,63.0,-71.0,-545.0,0
0.0,-226.0,9.0,75.0,-68.0,-524.0,0
3.0,-222.0,15.0,89.0,-77.0,-503.0,0
6.0,-216.0,20.0,98.0,-91.0,-485.0,0
6.0,-213.0,21.0,97.0,-100.0,-467.0,0
9.0,-208.0,22.0,88.0,-107.0,-458.0,0
4.0,-205.0,17.0,76.0,-113.0,-451.0,0
-1.0,-197.0,18.0,58.0,-113.0,-432.0,0
1.0,-195.0,13.0,48.0,-110.0,-404.0,0
2.0,-195.0,3.0,33.0,-112.0,-388.0,0
1.0,-192.0,17.0,-11.0,-126.0,-386.0,0
-1.0,-190.0,12.0,-62.0,-144.0,-402.0,0
1.0,-196.0,13.0,-113.0,-154.0,-420.0,0
0.0,-201.0,15.0,-166.0,-150.0,-437.0,0
1.0,-205.0,18.0,-214.0,-148.0,-448.0,0
1.0,-214.0,22.0,-240.0,-157.0,-440.0,0
5.0,-219.0,23.0,-246.0,-167.0,-428.0,0
14.0,-226.0,26.0,-237.0,-171.0,-415.0,0
16.0,-224.0,26.0,-221.0,-167.0,-405.0,0
11.0,-224.0,27.0,-207.0,-164.0,-398.0,0
9.0,-225.0,26.0,-200.0,-163.0,-386.0,0
5.0,-228.0,30.0,-195.0,-173.0,-363.0,0
3.0,-227.0,27.0,-189.0,-190.0,-339.0,0
3.0,-229.0,29.0,-188.0,-214.0,-315.0,0
7.0,-229.0,31.0,-198.0,-231.0,-292.0,0
2.0,-227.0,31.0,-208.0,-236.0,-271.0,0
1.0,-230.0,30.0,-215.0,-231.0,-251.0,0
-1.0,-226.0,34.0,-207.0,-222.0,-228.0,0
0.0,-227.0,28.0,-194.0,-219.0,-208.0,0
2.0,-219.0,29.0,-187.0,-221.0,-191.0,0
0.0,-215.0,26.0,-193.0,-218.0,-174.0,0
2.0,-201.0,31.0,-214.0,-211.0,-157.0,0
1.0,-205.0,27.0,-234.0,-206.0,-138.0,0
0.0,-205.0,29.0,-256.0,-203.0,-115.0,0
0.0,-205.0,32.0,-277.0,-201.0,-88.0,0
3.0,-205.0,34.0,-296.0,-201.0,-65.0,0
1.0,-208.0,39.0,-312.0,-197.0,-45.0,0
0.0,-217.0,39.0,-323.0,-192.0,-30.0,0
4.0,-221.0,43.0,-329.0,-192.0,-17.0,0
0.0,-223.0,55.0,-319.0,-200.0,2.0,0
4.0,-227.0,58.0,-289.0,-210.0,17.0,0
1.0,-234.0,61.0,-248.0,-212.0,31.0,0
0.0,-235.0,65.0,-212.0,-210.0,42.0,0
-1.0,-240.0,66.0,-180.0,-208.0,50.0,0
-5.0,-240.0,71.0,-148.0,-211.0,57.0,0
-5.0,-246.0,61.0,-110.0,-216.0,76.0,0
-6.0,-246.0,61.0,-77.0,-222.0,94.0,0
-7.0,-243.0,57.0,-54.0,-229.0,108.0,0
-4.0,-248.0,51.0,-36.0,-235.0,123.0,0
-5.0,-247.0,42.0,-18.0,-240.0,138.0,0
-3.0,-248.0,44.0,-3.0,-238.0,152.0,0
0.0,-246.0,38.0,11.0,-236.0,162.0,0
0.0,-246.0,41.0,19.0,-235.0,172.0,0
3.0,-251.0,32.0,5.0,-244.0,182.0,0
3.0,-243.0,37.0,-27.0,-253.0,188.0,0
6.0,-242.0,38.0,-67.0,-261.0,188.0,0
2.0,-243.0,36.0,-109.0,-264.0,194.0,0
9.0,-247.0,37.0,-153.0,-260.0,199.0,0
-2.0,-247.0,44.0,-196.0,-257.0,194.0,0
-5.0,-260.0,49.0,-231.0,-260.0,212.0,0
-16.0,-274.0,62.0,-255.0,-265.0,213.0,0
-26.0,-284.0,72.0,-268.0,-281.0,194.0,0
-34.0,-303.0,81.0,-266.0,-302.0,167.0,0
-34.0,-314.0,88.0,-239.0,-323.0,142.0,0
-38.0,-315.0,94.0,-191.0,-339.0,112.0,0
-31.0,-317.0,92.0,-131.0,-359.0,84.0,0
-21.0,-317.0,87.0,-75.0,-376.0,58.0,0
-24.0,-303.0,79.0,-25.0,-391.0,14.0,0
-9.0,-300.0,73.0,12.0,-385.0,21.0,0
-7.0,-291.0,71.0,35.0,-372.0,26.0,0
0.0,-282.0,72.0,50.0,-366.0,7.0,0
-1.0,-264.0,77.0,45.0,-384.0,-7.0,0
1.0,-255.0,74.0,35.0,-409.0,15.0,0
1.0,-248.0,72.0,12.0,-429.0,25.0,0
-7.0,-247.0,63.0,-32.0,-439.0,26.0,0
-7.0,-237.0,74.0,-91.0,-449.0,29.0,0
-11.0,-240.0,75.0,-147.0,-470.0,34.0,0
-14.0,-243.0,80.0,-192.0,-490.0,41.0,0
-21.0,-253.0,87.0,-219.0,-504.0,45.0,0
-21.0,-265.0,84.0,-232.0,-524.0,45.0,0
-15.0,-283.0,73.0,-237.0,-556.0,41.0,0
-2.0,-312.0,51.0,-240.0,-587.0,31.0,0
-9.0,-327.0,27.0,-255.0,-616.0,-5.0,0
-9.0,-357.0,-3.0,-302.0,-657.0,-20.0,0
-21.0,-373.0,-28.0,-424.0,-708.0,-59.0,0
-16.0,-380.0,-16.0,-601.0,-752.0,-157.0,0
14.0,-410.0,11.0,-693.0,-755.0,-264.0,0
53.0,-427.0,47.0,-577.0,-677.0,-372.0,0
67.0,-418.0,48.0,-296.0,-544.0,-468.0,0
84.0,-400.0,24.0,2.0,-439.0,-496.0,0
85.0,-372.0,1.0,208.0,-372.0,-517.0,0
86.0,-346.0,-19.0,311.0,-310.0,-529.0,0
86.0,-318.0,-28.0,337.0,-236.0,-534.0,0
86.0,-304.0,-22.0,318.0,-179.0,-522.0,0
89.0,-294.0,-14.0,302.0,-153.0,-488.0,0
71.0,-280.0,-10.0,311.0,-149.0,-447.0,0
52.0,-270.0,-8.0,340.0,-170.0,-392.0,0
30.0,-259.0,-20.0,366.0,-220.0,-332.0,0
9.0,-245.0,-34.0,381.0,-290.0,-280.0,0
-2.0,-233.0,-47.0,373.0,-366.0,-236.0,0
-14.0,-232.0,-62.0,339.0,-448.0,-198.0,0
-26.0,-231.0,-78.0,268.0,-517.0,-173.0,0
-38.0,-232.0,-83.0,168.0,-563.0,-158.0,0
-58.0,-237.0,-79.0,68.0,-594.0,-156.0,0
-70.0,-242.0,-72.0,1.0,-625.0,-156.0,0
-83.0,-243.0,-71.0,-15.0,-670.0,-148.0,0
-93.0,-244.0,-61.0,18.0,-725.0,-137.0,0
-101.0,-243.0,-53.0,63.0,-791.0,-128.0,0
-101.0,-239.0,-37.0,78.0,-862.0,-114.0,0
-96.0,-244.0,-26.0,53.0,-926.0,-96.0,0
-80.0,-253.0,-11.0,10.0,-968.0,-80.0,0
-66.0,-265.0,-8.0,-29.0,-974.0,-71.0,0
-56.0,-278.0,-10.0,-49.0,-941.0,-57.0,0
-46.0,-284.0,-13.0,-63.0,-893.0,-22.0,0
-33.0,-287.0,-20.0,-54.0,-846.0,20.0,0
-20.0,-287.0,-25.0,-19.0,-807.0,69.0,0
-10.0,-279.0,-28.0,23.0,-770.0,117.0,0
6.0,-266.0,-33.0,61.0,-737.0,165.0,0
25.0,-256.0,-27.0,90.0,-711.0,205.0,0
41.0,-240.0,-29.0,100.0,-684.0,246.0,0
59.0,-234.0,-29.0,81.0,-652.0,286.0,0
75.0,-229.0,-25.0,38.0,-607.0,325.0,0
89.0,-231.0,-20.0,-17.0,-542.0,360.0,0
97.0,-231.0,-9.0,-73.0,-464.0,379.0,0
100.0,-239.0,-4.0,-109.0,-373.0,384.0,0
96.0,-250.0,7.0,-110.0,-273.0,394.0,0
82.0,-252.0,6.0,-91.0,-180.0,415.0,0
75.0,-256.0,7.0,-70.0,-101.0,443.0,0
62.0,-258.0,12.0,-44.0,-43.0,464.0,0
52.0,-258.0,10.0,-9.0,3.0,471.0,0
37.0,-254.0,5.0,32.0,44.0,470.0,0
27.0,-251.0,1.0,70.0,81.0,463.0,0
22.0,-249.0,-3.0,94.0,121.0,457.0,0
15.0,-246.0,-7.0,94.0,164.0,448.0,0
13.0,-247.0,-8.0,78.0,213.0,429.0,0
10.0,-243.0,-8.0,49.0,264.0,411.0,0
7.0,-244.0,-9.0,10.0,301.0,392.0,0
4.0,-247.0,-4.0,-14.0,324.0,375.0,0
4.0,-240.0,-5.0,-14.0,335.0,353.0,0
-1.0,-237.0,6.0,19.0,347.0,332.0,0
-4.0,-228.0,-5.0,62.0,366.0,309.0,0
-15.0,-214.0,0.0,93.0,381.0,292.0,0
-17.0,-207.0,-6.0,110.0,380.0,284.0,0
-21.0,-207.0,-5.0,103.0,363.0,280.0,0
-24.0,-199.0,0.0,70.0,363.0,271.0,0
-28.0,-199.0,4.0,36.0,385.0,268.0,0
-34.0,-200.0,10.0,10.0,409.0,269.0,0
-38.0,-204.0,13.0,-16.0,420.0,279.0,0
-43.0,-207.0,9.0,-34.0,423.0,289.0,0
-46.0,-211.0,9.0,-56.0,416.0,293.0,0
-49.0,-217.0,10.0,-81.0,400.0,299.0,0
-50.0,-221.0,11.0,-111.0,378.0,311.0,0
-47.0,-225.0,11.0,-149.0,361.0,311.0,0
-46.0,-227.0,11.0,-182.0,346.0,311.0,0
-43.0,-236.0,17.0,-200.0,335.0,316.0,0
-44.0,-242.0,23.0,-189.0,327.0,317.0,0
-42.0,-251.0,22.0,-160.0,311.0,313.0,0
-44.0,-249.0,26.0,-121.0,292.0,295.0,0
-46.0,-247.0,23.0,-86.0,273.0,281.0,0
-43.0,-248.0,27.0,-55.0,259.0,274.0,0
-44.0,-246.0,26.0,-37.0,250.0,262.0,0
-40.0,-247.0,25.0,-29.0,248.0,250.0,0
-42.0,-244.0,23.0,-28.0,247.0,239.0,0
-41.0,-242.0,24.0,-31.0,244.0,224.0,0
-38.0,-239.0,21.0,-33.0,237.0,205.0,0
-41.0,-237.0,23.0,-32.0,225.0,187.0,0
-36.0,-232.0,18.0,-30.0,215.0,166.0,0
-37.0,-230.0,22.0,-30.0,205.0,144.0,0
-35.0,-227.0,21.0,-38.0,195.0,125.0,0
