ax,ay,az,gx,gy,gz,label
13.0,-247.0,-48.0,-1.0,142.0,-33.0,0
12.0,-250.0,-50.0,-4.0,138.0,-30.0,0
9.0,-245.0,-49.0,-9.0,132.0,-31.0,0
11.0,-249.0,-47.0,-14.0,127.0,-29.0,0
10.0,-245.0,-46.0,-18.0,122.0,-30.0,0
15.0,-237.0,-45.0,-22.0,115.0,-26.0,0
3.0,-253.0,-43.0,-26.0,110.0,-29.0,0
11.0,-246.0,-47.0,-26.0,109.0,-26.0,0
6.0,-242.0,-59.0,-28.0,107.0,-29.0,0
12.0,-253.0,-45.0,-28.0,106.0,-26.0,0
11.0,-251.0,-47.0,-29.0,104.0,-28.0,0
9.0,-247.0,-41.0,-29.0,103.0,-27.0,0
4.0,-269.0,-45.0,-30.0,105.0,-30.0,0
8.0,-247.0,-51.0,-30.0,104.0,-30.0,0
9.0,-253.0,-46.0,-31.0,100.0,-33.0,0
10.0,-253.0,-46.0,-34.0,97.0,-32.0,0
13.0,-256.0,-47.0,-35.0,93.0,-35.0,0
10.0,-257.0,-47.0,-37.0,89.0,-32.0,0
12.0,-255.0,-49.0,-37.0,84.0,-35.0,0
12.0,-256.0,-52.0,-35.0,79.0,-32.0,0
8.0,-256.0,-46.0,-34.0,74.0,-34.0,0
10.0,-258.0,-48.0,-26.0,70.0,-30.0,0
13.0,-258.0,-50.0,-20.0,65.0,-31.0,0
6.0,-248.0,-61.0,-13.0,61.0,-28.0,0
19.0,-260.0,-49.0,-6.0,56.0,-29.0,0
8.0,-254.0,-52.0,-4.0,52.0,-26.0,0
15.0,-257.0,-52.0,-2.0,48.0,-28.0,0
10.0,-259.0,-57.0,-4.0,47.0,-24.0,0
22.0,-250.0,-50.0,-5.0,45.0,-27.0,0
11.0,-251.0,-50.0,-8.0,45.0,-24.0,0
24.0,-260.0,-40.0,-10.0,45.0,-27.0,0
15.0,-252.0,-57.0,-12.0,46.0,-24.0,0
14.0,-253.0,-46.0,-11.0,47.0,-28.0,0
13.0,-253.0,-49.0,-11.0,48.0,-28.0,0
13.0,-252.0,-46.0,-7.0,49.0,-32.0,0
12.0,-251.0,-46.0,-3.0,49.0,-31.0,0
13.0,-252.0,-45.0,0.0,49.0,-35.0,0
14.0,-252.0,-47.0,4.0,50.0,-33.0,0
13.0,-253.0,-46.0,5.0,49.0,-36.0,0
14.0,-251.0,-45.0,5.0,50.0,-36.0,0
13.0,-247.0,-47.0,5.0,51.0,-40.0,0
13.0,-248.0,-53.0,2.0,50.0,-39.0,0
16.0,-250.0,-50.0,-2.0,50.0,-43.0,0
18.0,-252.0,-52.0,-11.0,49.0,-42.0,0
19.0,-253.0,-50.0,-20.0,47.0,-45.0,0
17.0,-251.0,-48.0,-31.0,45.0,-45.0,0
16.0,-252.0,-54.0,-39.0,46.0,-49.0,0
21.0,-250.0,-56.0,-45.0,48.0,-47.0,0
16.0,-252.0,-50.0,-48.0,51.0,-49.0,0
18.0,-253.0,-50.0,-50.0,53.0,-47.0,0
18.0,-254.0,-50.0,-48.0,57.0,-47.0,0
17.0,-254.0,-50.0,-42.0,60.0,-43.0,0
17.0,-251.0,-47.0,-36.0,62.0,-43.0,0
16.0,-251.0,-45.0,-27.0,64.0,-40.0,0
16.0,-252.0,-49.0,-19.0,64.0,-39.0,0
15.0,-248.0,-51.0,-11.0,63.0,-35.0,0
14.0,-249.0,-49.0,-6.0,65.0,-37.0,0
13.0,-250.0,-45.0,-3.0,65.0,-32.0,0
17.0,-250.0,-45.0,-4.0,64.0,-33.0,0
16.0,-249.0,-49.0,-6.0,63.0,-28.0,0
17.0,-254.0,-45.0,-9.0,62.0,-28.0,0
13.0,-251.0,-44.0,-13.0,62.0,-25.0,0
14.0,-251.0,-45.0,-16.0,62.0,-27.0,0
14.0,-250.0,-46.0,-18.0,62.0,-24.0,0
17.0,-251.0,-51.0,-20.0,61.0,-26.0,0
15.0,-250.0,-49.0,-21.0,62.0,-23.0,0
16.0,-254.0,-49.0,-21.0,63.0,-24.0,0
18.0,-249.0,-48.0,-19.0,66.0,-21.0,0
17.0,-251.0,-48.0,-19.0,68.0,-22.0,0
16.0,-252.0,-49.0,-20.0,72.0,-20.0,0
19.0,-253.0,-44.0,-22.0,76.0,-21.0,0
17.0,-247.0,-49.0,-23.0,81.0,-19.0,0
18.0,-247.0,-46.0,-26.0,86.0,-22.0,0
18.0,-251.0,-49.0,-27.0,89.0,-19.0,0
17.0,-247.0,-47.0,-29.0,91.0,-22.0,0
17.0,-249.0,-46.0,-32.0,92.0,-18.0,0
18.0,-248.0,-45.0,-36.0,91.0,-19.0,0
17.0,-248.0,-48.0,-43.0,92.0,-16.0,0
16.0,-251.0,-45.0,-48.0,91.0,-18.0,0
15.0,-247.0,-45.0,-52.0,91.0,-13.0,0
17.0,-253.0,-46.0,-56.0,90.0,-14.0,0
15.0,-250.0,-45.0,-62.0,88.0,-11.0,0
16.0,-253.0,-50.0,-65.0,88.0,-10.0,0
15.0,-252.0,-49.0,-67.0,85.0,-7.0,0
15.0,-253.0,-50.0,-67.0,84.0,-8.0,0
15.0,-251.0,-47.0,-67.0,81.0,-4.0,0
14.0,-253.0,-52.0,-67.0,78.0,-8.0,0
16.0,-253.0,-53.0,-69.0,77.0,-5.0,0
13.0,-252.0,-50.0,-68.0,78.0,-8.0,0
14.0,-249.0,-51.0,-66.0,78.0,-7.0,0
11.0,-251.0,-53.0,-67.0,78.0,-12.0,0
16.0,-253.0,-52.0,-64.0,77.0,-12.0,0
15.0,-248.0,-50.0,-65.0,78.0,-16.0,0
18.0,-252.0,-51.0,-65.0,77.0,-17.0,0
16.0,-252.0,-49.0,-67.0,77.0,-21.0,0
16.0,-252.0,-50.0,-68.0,78.0,-22.0,0
14.0,-251.0,-51.0,-71.0,75.0,-26.0,0
13.0,-251.0,-51.0,-74.0,74.0,-27.0,0
16.0,-254.0,-52.0,-77.0,70.0,-31.0,0
16.0,-257.0,-53.0,-79.0,69.0,-32.0,0
13.0,-256.0,-48.0,-82.0,68.0,-38.0,0
12.0,-256.0,-49.0,-83.0,64.0,-39.0,0
15.0,-257.0,-48.0,-82.0,62.0,-47.0,0
15.0,-259.0,-46.0,-79.0,60.0,-48.0,0
12.0,-261.0,-51.0,-72.0,58.0,-54.0,0
14.0,-259.0,-43.0,-60.0,56.0,-55.0,0
14.0,-259.0,-45.0,-49.0,56.0,-62.0,0
12.0,-260.0,-49.0,-35.0,54.0,-63.0,0
15.0,-260.0,-46.0,-23.0,55.0,-67.0,0
15.0,-258.0,-49.0,-9.0,55.0,-69.0,0
14.0,-259.0,-45.0,7.0,55.0,-75.0,0
11.0,-259.0,-50.0,19.0,55.0,-77.0,0
12.0,-258.0,-51.0,29.0,54.0,-84.0,0
10.0,-258.0,-50.0,37.0,50.0,-86.0,0
12.0,-259.0,-47.0,38.0,45.0,-92.0,0
11.0,-257.0,-49.0,35.0,42.0,-90.0,0
11.0,-257.0,-53.0,21.0,38.0,-94.0,0
12.0,-259.0,-53.0,6.0,35.0,-93.0,0
7.0,-258.0,-55.0,-6.0,31.0,-97.0,0
11.0,-259.0,-51.0,-12.0,29.0,-95.0,0
11.0,-257.0,-55.0,-16.0,30.0,-99.0,0
11.0,-260.0,-54.0,-16.0,28.0,-97.0,0
12.0,-260.0,-53.0,-12.0,29.0,-100.0,0
8.0,-259.0,-52.0,-2.0,25.0,-100.0,0
10.0,-258.0,-51.0,10.0,21.0,-100.0,0
9.0,-255.0,-43.0,25.0,16.0,-97.0,0
9.0,-255.0,-52.0,41.0,16.0,-98.0,0
8.0,-252.0,-45.0,60.0,18.0,-96.0,0
14.0,-254.0,-52.0,74.0,22.0,-97.0,0
13.0,-253.0,-47.0,83.0,28.0,-93.0,0
13.0,-250.0,-47.0,84.0,38.0,-93.0,0
11.0,-247.0,-49.0,79.0,47.0,-87.0,0
19.0,-246.0,-50.0,69.0,55.0,-86.0,0
18.0,-248.0,-49.0,54.0,61.0,-79.0,0
22.0,-242.0,-52.0,38.0,65.0,-77.0,0
20.0,-245.0,-52.0,24.0,68.0,-69.0,0
18.0,-243.0,-53.0,7.0,72.0,-64.0,0
20.0,-240.0,-54.0,-8.0,77.0,-54.0,0
21.0,-239.0,-53.0,-23.0,81.0,-50.0,0
25.0,-239.0,-51.0,-34.0,88.0,-39.0,0
21.0,-237.0,-51.0,-41.0,96.0,-33.0,0
23.0,-238.0,-48.0,-48.0,104.0,-20.0,0
20.0,-239.0,-50.0,-51.0,113.0,-13.0,0
20.0,-239.0,-52.0,-52.0,122.0,1.0,0
21.0,-239.0,-45.0,-54.0,130.0,9.0,0
21.0,-240.0,-50.0,-51.0,137.0,24.0,0
18.0,-237.0,-46.0,-48.0,143.0,34.0,0
19.0,-240.0,-48.0,-47.0,147.0,49.0,0
20.0,-242.0,-50.0,-44.0,149.0,57.0,0
20.0,-241.0,-48.0,-43.0,151.0,68.0,0
22.0,-248.0,-48.0,-43.0,155.0,73.0,0
18.0,-245.0,-47.0,-43.0,154.0,82.0,0
18.0,-244.0,-46.0,-45.0,153.0,84.0,0
21.0,-249.0,-46.0,-48.0,152.0,90.0,0
20.0,-256.0,-45.0,-52.0,149.0,89.0,0
18.0,-257.0,-45.0,-52.0,145.0,94.0,0
16.0,-256.0,-43.0,-51.0,142.0,91.0,0
13.0,-260.0,-45.0,-46.0,139.0,93.0,0
14.0,-261.0,-46.0,-38.0,137.0,87.0,0
14.0,-262.0,-44.0,-27.0,138.0,86.0,0
16.0,-263.0,-47.0,-14.0,144.0,76.0,0
16.0,-264.0,-49.0,0.0,157.0,72.0,0
18.0,-268.0,-49.0,17.0,173.0,61.0,0
20.0,-265.0,-49.0,35.0,191.0,55.0,0
20.0,-261.0,-52.0,52.0,208.0,45.0,0
21.0,-261.0,-54.0,71.0,226.0,39.0,0
21.0,-258.0,-54.0,88.0,245.0,28.0,0
23.0,-260.0,-52.0,103.0,260.0,24.0,0
26.0,-259.0,-52.0,116.0,278.0,16.0,0
26.0,-256.0,-57.0,126.0,296.0,14.0,0
26.0,-253.0,-57.0,132.0,319.0,10.0,0
26.0,-251.0,-55.0,132.0,337.0,9.0,0
22.0,-246.0,-53.0,128.0,353.0,7.0,0
27.0,-246.0,-54.0,120.0,367.0,13.0,0
30.0,-244.0,-50.0,112.0,383.0,12.0,0
28.0,-241.0,-51.0,104.0,395.0,17.0,0
28.0,-237.0,-50.0,95.0,404.0,18.0,0
25.0,-239.0,-41.0,84.0,412.0,25.0,0
25.0,-234.0,-46.0,70.0,419.0,27.0,0
30.0,-233.0,-42.0,53.0,421.0,34.0,0
29.0,-232.0,-46.0,30.0,424.0,38.0,0
27.0,-235.0,-40.0,-4.0,428.0,45.0,0
27.0,-235.0,-45.0,-38.0,435.0,44.0,0
24.0,-237.0,-42.0,-75.0,444.0,48.0,0
24.0,-239.0,-43.0,-110.0,449.0,44.0,0
24.0,-245.0,-43.0,-146.0,450.0,44.0,0
22.0,-250.0,-40.0,-176.0,446.0,42.0,0
22.0,-252.0,-38.0,-201.0,434.0,40.0,0
20.0,-253.0,-40.0,-223.0,418.0,38.0,0
21.0,-256.0,-37.0,-239.0,400.0,39.0,0
20.0,-260.0,-44.0,-255.0,378.0,34.0,0
16.0,-260.0,-39.0,-266.0,350.0,33.0,0
14.0,-260.0,-40.0,-276.0,326.0,27.0,0
13.0,-264.0,-38.0,-279.0,300.0,26.0,0
8.0,-262.0,-38.0,-276.0,276.0,17.0,0
8.0,-266.0,-34.0,-268.0,254.0,14.0,0
4.0,-272.0,-36.0,-257.0,236.0,5.0,0
1.0,-265.0,-31.0,-244.0,217.0,-2.0,0
-1.0,-272.0,-33.0,-226.0,197.0,-18.0,0
-2.0,-276.0,-29.0,-210.0,175.0,-23.0,0
-3.0,-274.0,-27.0,-191.0,151.0,-38.0,0
-3.0,-281.0,-29.0,-170.0,126.0,-48.0,0
-2.0,-277.0,-26.0,-142.0,98.0,-68.0,0
0.0,-279.0,-25.0,-100.0,78.0,-78.0,0
4.0,-275.0,-28.0,-62.0,62.0,-96.0,0
6.0,-274.0,-27.0,-24.0,48.0,-111.0,0
10.0,-272.0,-30.0,13.0,41.0,-131.0,0
14.0,-267.0,-32.0,45.0,39.0,-145.0,0
22.0,-266.0,-32.0,70.0,40.0,-163.0,0
25.0,-261.0,-33.0,83.0,44.0,-173.0,0
30.0,-259.0,-35.0,86.0,49.0,-190.0,0
31.0,-253.0,-32.0,84.0,56.0,-200.0,0
39.0,-250.0,-31.0,74.0,65.0,-213.0,0
40.0,-244.0,-28.0,50.0,70.0,-221.0,0
43.0,-246.0,-27.0,29.0,76.0,-230.0,0
47.0,-242.0,-24.0,10.0,83.0,-231.0,0
49.0,-240.0,-26.0,-6.0,95.0,-237.0,0
51.0,-237.0,-26.0,-20.0,109.0,-237.0,0
54.0,-233.0,-26.0,-34.0,124.0,-240.0,0
53.0,-236.0,-26.0,-44.0,144.0,-237.0,0
57.0,-232.0,-25.0,-59.0,166.0,-238.0,0
53.0,-233.0,-29.0,-70.0,187.0,-236.0,0
57.0,-233.0,-27.0,-84.0,208.0,-235.0,0
54.0,-234.0,-27.0,-101.0,228.0,-226.0,0
56.0,-232.0,-31.0,-124.0,249.0,-224.0,0
54.0,-233.0,-33.0,-146.0,267.0,-216.0,0
53.0,-232.0,-31.0,-168.0,285.0,-212.0,0
52.0,-234.0,-34.0,-194.0,302.0,-203.0,0
51.0,-237.0,-32.0,-218.0,317.0,-198.0,0
49.0,-237.0,-30.0,-244.0,329.0,-189.0,0
45.0,-236.0,-34.0,-265.0,340.0,-183.0,0
41.0,-238.0,-28.0,-281.0,345.0,-173.0,0
43.0,-242.0,-32.0,-293.0,348.0,-168.0,0
38.0,-240.0,-27.0,-299.0,347.0,-159.0,0
37.0,-244.0,-27.0,-302.0,340.0,-150.0,0
36.0,-243.0,-21.0,-300.0,330.0,-141.0,0
31.0,-240.0,-23.0,-297.0,319.0,-136.0,0
28.0,-242.0,-24.0,-292.0,306.0,-126.0,0
28.0,-245.0,-21.0,-288.0,293.0,-120.0,0
26.0,-242.0,-25.0,-285.0,280.0,-111.0,0
25.0,-243.0,-25.0,-283.0,266.0,-108.0,0
22.0,-244.0,-27.0,-282.0,251.0,-99.0,0
21.0,-246.0,-28.0,-283.0,235.0,-97.0,0
20.0,-246.0,-25.0,-282.0,220.0,-91.0,0
21.0,-248.0,-29.0,-279.0,204.0,-87.0,0
21.0,-249.0,-28.0,-276.0,186.0,-81.0,0
20.0,-251.0,-23.0,-273.0,170.0,-80.0,0
24.0,-252.0,-29.0,-265.0,153.0,-76.0,0
25.0,-255.0,-25.0,-259.0,137.0,-75.0,0
22.0,-252.0,-25.0,-249.0,118.0,-68.0,0
26.0,-252.0,-23.0,-238.0,98.0,-67.0,0
28.0,-254.0,-23.0,-226.0,81.0,-60.0,0
30.0,-254.0,-22.0,-212.0,65.0,-59.0,0
29.0,-253.0,-23.0,-197.0,51.0,-54.0,0
29.0,-253.0,-23.0,-182.0,37.0,-54.0,0
31.0,-247.0,-26.0,-168.0,27.0,-47.0,0
34.0,-250.0,-27.0,-152.0,15.0,-48.0,0
36.0,-252.0,-22.0,-139.0,7.0,-44.0,0
36.0,-250.0,-27.0,-129.0,-3.0,-43.0,0
39.0,-251.0,-24.0,-118.0,-12.0,-39.0,0
38.0,-251.0,-27.0,-108.0,-20.0,-40.0,0
36.0,-251.0,-27.0,-100.0,-29.0,-36.0,0
38.0,-252.0,-26.0,-91.0,-39.0,-37.0,0
36.0,-249.0,-24.0,-85.0,-48.0,-31.0,0
37.0,-251.0,-25.0,-77.0,-54.0,-31.0,0
38.0,-248.0,-26.0,-69.0,-57.0,-26.0,0
36.0,-248.0,-28.0,-63.0,-58.0,-21.0,0
38.0,-246.0,-34.0,-60.0,-53.0,-15.0,0
39.0,-248.0,-35.0,-64.0,-43.0,-17.0,0
41.0,-249.0,-33.0,-71.0,-26.0,-15.0,0
43.0,-248.0,-31.0,-78.0,-6.0,-20.0,0
46.0,-246.0,-32.0,-88.0,12.0,-25.0,0
49.0,-249.0,-31.0,-97.0,31.0,-35.0,0
52.0,-248.0,-27.0,-106.0,50.0,-43.0,0
53.0,-251.0,-25.0,-114.0,64.0,-57.0,0
55.0,-254.0,-24.0,-120.0,75.0,-66.0,0
52.0,-255.0,-21.0,-128.0,83.0,-80.0,0
56.0,-258.0,-21.0,-133.0,85.0,-93.0,0
54.0,-260.0,-17.0,-134.0,85.0,-106.0,0
52.0,-257.0,-13.0,-130.0,84.0,-113.0,0
53.0,-260.0,-23.0,-125.0,79.0,-126.0,0
50.0,-260.0,-22.0,-116.0,75.0,-134.0,0
52.0,-263.0,-23.0,-106.0,67.0,-148.0,0
47.0,-260.0,-26.0,-101.0,58.0,-157.0,0
47.0,-261.0,-31.0,-102.0,46.0,-170.0,0
44.0,-264.0,-38.0,-111.0,38.0,-177.0,0
44.0,-262.0,-41.0,-129.0,33.0,-189.0,0
40.0,-261.0,-50.0,-158.0,34.0,-194.0,0
37.0,-263.0,-46.0,-189.0,43.0,-207.0,0
38.0,-263.0,-51.0,-221.0,62.0,-215.0,0
36.0,-262.0,-46.0,-237.0,85.0,-229.0,0
38.0,-265.0,-45.0,-236.0,110.0,-242.0,0
40.0,-265.0,-41.0,-221.0,133.0,-260.0,0
42.0,-264.0,-42.0,-196.0,152.0,-275.0,0
46.0,-266.0,-41.0,-166.0,168.0,-295.0,0
51.0,-268.0,-40.0,-134.0,180.0,-310.0,0
53.0,-266.0,-43.0,-105.0,189.0,-327.0,0
54.0,-263.0,-38.0,-79.0,195.0,-338.0,0
54.0,-266.0,-45.0,-60.0,194.0,-354.0,0
57.0,-263.0,-47.0,-49.0,185.0,-360.0,0
56.0,-266.0,-45.0,-50.0,175.0,-365.0,0
58.0,-269.0,-46.0,-55.0,163.0,-363.0,0
54.0,-270.0,-44.0,-64.0,149.0,-359.0,0
55.0,-271.0,-45.0,-71.0,137.0,-348.0,0
53.0,-274.0,-43.0,-73.0,127.0,-335.0,0
58.0,-278.0,-51.0,-72.0,119.0,-312.0,0
57.0,-279.0,-47.0,-67.0,111.0,-290.0,0
61.0,-283.0,-51.0,-55.0,109.0,-259.0,0
60.0,-285.0,-53.0,-38.0,111.0,-232.0,0
63.0,-283.0,-58.0,-14.0,117.0,-193.0,0
65.0,-285.0,-68.0,23.0,130.0,-165.0,0
65.0,-280.0,-63.0,54.0,140.0,-130.0,0
61.0,-276.0,-67.0,88.0,150.0,-100.0,0
62.0,-273.0,-66.0,118.0,155.0,-62.0,0
58.0,-268.0,-71.0,146.0,151.0,-28.0,0
54.0,-265.0,-72.0,169.0,139.0,11.0,0
52.0,-261.0,-70.0,190.0,119.0,49.0,0
51.0,-260.0,-67.0,208.0,95.0,89.0,0
50.0,-258.0,-70.0,225.0,69.0,122.0,0
50.0,-253.0,-70.0,239.0,43.0,157.0,0
47.0,-249.0,-72.0,249.0,21.0,189.0,0
44.0,-253.0,-73.0,255.0,-2.0,215.0,0
44.0,-252.0,-73.0,257.0,-20.0,237.0,0
41.0,-251.0,-73.0,254.0,-38.0,260.0,0
37.0,-248.0,-80.0,243.0,-55.0,277.0,0
34.0,-251.0,-81.0,230.0,-74.0,294.0,0
33.0,-251.0,-85.0,212.0,-88.0,305.0,0
35.0,-251.0,-93.0,190.0,-97.0,317.0,0
34.0,-252.0,-94.0,161.0,-102.0,319.0,0
29.0,-249.0,-104.0,136.0,-102.0,322.0,0
29.0,-246.0,-106.0,112.0,-104.0,315.0,0
27.0,-244.0,-105.0,92.0,-105.0,305.0,0
22.0,-241.0,-110.0,73.0,-106.0,291.0,0
18.0,-234.0,-105.0,64.0,-108.0,278.0,0
15.0,-231.0,-105.0,59.0,-113.0,258.0,0
13.0,-229.0,-102.0,66.0,-123.0,241.0,0
12.0,-222.0,-97.0,81.0,-135.0,218.0,0
10.0,-218.0,-95.0,100.0,-151.0,198.0,0
4.0,-214.0,-89.0,125.0,-167.0,176.0,0
5.0,-211.0,-78.0,146.0,-183.0,159.0,0
3.0,-209.0,-81.0,160.0,-197.0,142.0,0
-1.0,-204.0,-77.0,170.0,-209.0,133.0,0
-2.0,-200.0,-72.0,175.0,-218.0,123.0,0
1.0,-205.0,-67.0,164.0,-228.0,119.0,0
0.0,-208.0,-68.0,141.0,-242.0,112.0,0
1.0,-210.0,-69.0,101.0,-258.0,108.0,0
-1.0,-212.0,-69.0,47.0,-282.0,103.0,0
-3.0,-222.0,-69.0,-17.0,-309.0,107.0,0
-1.0,-225.0,-76.0,-89.0,-340.0,113.0,0
-3.0,-228.0,-76.0,-169.0,-371.0,126.0,0
3.0,-241.0,-80.0,-250.0,-401.0,137.0,0
4.0,-245.0,-83.0,-330.0,-426.0,155.0,0
13.0,-253.0,-86.0,-403.0,-445.0,167.0,0
15.0,-259.0,-94.0,-464.0,-465.0,187.0,0
16.0,-260.0,-91.0,-513.0,-479.0,197.0,0
22.0,-268.0,-90.0,-534.0,-488.0,207.0,0
25.0,-271.0,-92.0,-529.0,-496.0,211.0,0
28.0,-272.0,-91.0,-498.0,-501.0,215.0,0
23.0,-279.0,-89.0,-448.0,-505.0,212.0,0
25.0,-283.0,-84.0,-383.0,-503.0,226.0,0
24.0,-282.0,-84.0,-300.0,-499.0,230.0,0
34.0,-277.0,-74.0,-211.0,-493.0,231.0,0
28.0,-285.0,-80.0,-117.0,-483.0,221.0,0
30.0,-281.0,-84.0,-37.0,-466.0,228.0,0
34.0,-281.0,-83.0,47.0,-441.0,224.0,0
31.0,-281.0,-86.0,106.0,-421.0,223.0,0
31.0,-276.0,-89.0,148.0,-402.0,218.0,0
32.0,-268.0,-82.0,175.0,-384.0,217.0,0
30.0,-264.0,-86.0,191.0,-367.0,212.0,0
29.0,-262.0,-83.0,196.0,-352.0,210.0,0
30.0,-260.0,-80.0,193.0,-342.0,206.0,0
30.0,-255.0,-81.0,185.0,-333.0,205.0,0
26.0,-256.0,-77.0,177.0,-327.0,203.0,0
27.0,-251.0,-71.0,173.0,-324.0,204.0,0
27.0,-245.0,-68.0,170.0,-324.0,202.0,0
27.0,-247.0,-65.0,172.0,-324.0,204.0,0
24.0,-242.0,-63.0,177.0,-326.0,204.0,0
21.0,-237.0,-56.0,182.0,-326.0,210.0,0
18.0,-235.0,-57.0,189.0,-328.0,213.0,0
17.0,-230.0,-56.0,196.0,-325.0,220.0,0
18.0,-229.0,-55.0,200.0,-324.0,225.0,0
13.0,-222.0,-54.0,203.0,-323.0,234.0,0
13.0,-219.0,-50.0,200.0,-322.0,239.0,0
11.0,-214.0,-54.0,188.0,-318.0,251.0,0
9.0,-214.0,-55.0,171.0,-314.0,253.0,0
6.0,-212.0,-54.0,143.0,-308.0,260.0,0
6.0,-208.0,-56.0,102.0,-302.0,263.0,0
4.0,-211.0,-59.0,57.0,-294.0,267.0,0
1.0,-208.0,-54.0,10.0,-285.0,267.0,0
2.0,-211.0,-57.0,-37.0,-275.0,273.0,0
2.0,-218.0,-55.0,-83.0,-264.0,268.0,0
-1.0,-214.0,-56.0,-126.0,-251.0,264.0,0
-3.0,-220.0,-56.0,-160.0,-236.0,258.0,0
0.0,-223.0,-53.0,-186.0,-218.0,254.0,0
0.0,-230.0,-55.0,-202.0,-198.0,246.0,0
-1.0,-231.0,-56.0,-213.0,-177.0,239.0,0
-1.0,-235.0,-57.0,-218.0,-149.0,226.0,0
-4.0,-239.0,-56.0,-215.0,-125.0,219.0,0
-3.0,-238.0,-57.0,-207.0,-98.0,207.0,0
1.0,-240.0,-53.0,-198.0,-69.0,197.0,0
1.0,-244.0,-57.0,-185.0,-41.0,187.0,0
1.0,-242.0,-57.0,-167.0,-15.0,177.0,0
3.0,-244.0,-53.0,-149.0,15.0,163.0,0
2.0,-242.0,-55.0,-127.0,43.0,154.0,0
6.0,-244.0,-51.0,-103.0,74.0,139.0,0
5.0,-242.0,-46.0,-80.0,106.0,127.0,0
6.0,-243.0,-46.0,-53.0,135.0,110.0,0
4.0,-243.0,-42.0,-28.0,168.0,92.0,0
5.0,-241.0,-38.0,4.0,193.0,75.0,0
4.0,-242.0,-37.0,33.0,216.0,64.0,0
6.0,-235.0,-35.0,59.0,235.0,48.0,0
7.0,-237.0,-36.0,83.0,252.0,37.0,0
4.0,-238.0,-35.0,103.0,270.0,23.0,0
5.0,-235.0,-34.0,118.0,288.0,14.0,0
3.0,-233.0,-37.0,125.0,306.0,-1.0,0
5.0,-237.0,-34.0,129.0,329.0,-8.0,0
7.0,-230.0,-33.0,127.0,352.0,-22.0,0
6.0,-236.0,-29.0,123.0,379.0,-35.0,0
8.0,-234.0,-29.0,116.0,412.0,-49.0,0
8.0,-236.0,-27.0,117.0,439.0,-64.0,0
7.0,-236.0,-29.0,119.0,464.0,-81.0,0
11.0,-240.0,-26.0,123.0,487.0,-97.0,0
12.0,-242.0,-29.0,129.0,508.0,-115.0,0
13.0,-242.0,-26.0,136.0,523.0,-133.0,0
11.0,-242.0,-31.0,142.0,529.0,-153.0,0
14.0,-245.0,-29.0,144.0,526.0,-169.0,0
17.0,-242.0,-33.0,142.0,513.0,-186.0,0
5.0,-240.0,-24.0,133.0,490.0,-196.0,0
17.0,-228.0,-37.0,120.0,457.0,-205.0,0
12.0,-245.0,-40.0,96.0,408.0,-205.0,0
9.0,-237.0,-24.0,75.0,366.0,-203.0,0
0.0,-245.0,-29.0,53.0,322.0,-189.0,0
-5.0,-248.0,-23.0,32.0,277.0,-173.0,0
-10.0,-252.0,-35.0,11.0,230.0,-146.0,0
-10.0,-250.0,-39.0,-11.0,184.0,-116.0,0
-9.0,-246.0,-44.0,-34.0,135.0,-77.0,0
-16.0,-245.0,-23.0,-62.0,86.0,-38.0,0
-24.0,-247.0,-36.0,-96.0,41.0,8.0,0
-27.0,-246.0,-47.0,-133.0,1.0,49.0,0
-26.0,-248.0,-46.0,-176.0,-32.0,100.0,0
-27.0,-251.0,-51.0,-233.0,-50.0,137.0,0
-30.0,-271.0,-40.0,-279.0,-56.0,172.0,0
-25.0,-257.0,-44.0,-319.0,-53.0,202.0,0
-21.0,-261.0,-40.0,-349.0,-46.0,232.0,0
-16.0,-267.0,-40.0,-369.0,-29.0,256.0,0
-12.0,-270.0,-28.0,-376.0,-6.0,277.0,0
-7.0,-277.0,-29.0,-370.0,29.0,290.0,0
2.0,-281.0,-26.0,-348.0,72.0,300.0,0
5.0,-284.0,-22.0,-317.0,121.0,302.0,0
7.0,-281.0,-23.0,-274.0,173.0,303.0,0
11.0,-283.0,-19.0,-222.0,233.0,299.0,0
13.0,-284.0,-21.0,-158.0,273.0,296.0,0
17.0,-282.0,-21.0,-110.0,305.0,288.0,0
14.0,-279.0,-26.0,-73.0,326.0,283.0,0
14.0,-272.0,-39.0,-53.0,338.0,273.0,0
13.0,-271.0,-45.0,-60.0,343.0,271.0,0
13.0,-264.0,-54.0,-94.0,343.0,264.0,0
9.0,-260.0,-56.0,-155.0,348.0,263.0,0
6.0,-263.0,-57.0,-230.0,361.0,263.0,0
3.0,-261.0,-48.0,-304.0,382.0,270.0,0
-1.0,-266.0,-38.0,-359.0,403.0,278.0,0
-8.0,-271.0,-31.0,-380.0,415.0,286.0,0
-10.0,-282.0,-17.0,-354.0,416.0,290.0,0
-11.0,-288.0,-15.0,-294.0,407.0,297.0,0
-13.0,-296.0,-21.0,-218.0,396.0,298.0,0
-14.0,-297.0,-32.0,-150.0,386.0,296.0,0
-18.0,-293.0,-42.0,-104.0,382.0,289.0,0
-18.0,-292.0,-49.0,-89.0,380.0,288.0,0
-23.0,-291.0,-57.0,-100.0,377.0,287.0,0
-27.0,-290.0,-63.0,-126.0,366.0,291.0,0
-30.0,-289.0,-66.0,-160.0,347.0,295.0,0
-32.0,-288.0,-66.0,-189.0,312.0,308.0,0
-32.0,-286.0,-62.0,-206.0,276.0,318.0,0
-35.0,-287.0,-63.0,-207.0,236.0,332.0,0
-32.0,-293.0,-59.0,-189.0,195.0,344.0,0
-31.0,-295.0,-61.0,-154.0,155.0,358.0,0
-30.0,-296.0,-57.0,-104.0,117.0,369.0,0
-26.0,-302.0,-59.0,-43.0,82.0,382.0,0
-25.0,-303.0,-59.0,28.0,49.0,393.0,0
-20.0,-301.0,-60.0,104.0,23.0,403.0,0
-18.0,-297.0,-60.0,182.0,3.0,404.0,0
-25.0,-298.0,-66.0,259.0,-5.0,405.0,0
-11.0,-297.0,-64.0,348.0,8.0,410.0,0
-11.0,-292.0,-70.0,421.0,28.0,394.0,0
-5.0,-287.0,-75.0,487.0,62.0,368.0,0
-13.0,-276.0,-84.0,540.0,114.0,339.0,0
-3.0,-273.0,-94.0,576.0,183.0,319.0,0
1.0,-263.0,-106.0,594.0,248.0,281.0,0
-6.0,-258.0,-120.0,583.0,305.0,225.0,0
-7.0,-247.0,-129.0,540.0,357.0,178.0,0
-9.0,-243.0,-136.0,471.0,408.0,136.0,0
-8.0,-238.0,-143.0,380.0,442.0,97.0,0
-9.0,-229.0,-146.0,281.0,457.0,57.0,0
0.0,-225.0,-148.0,175.0,462.0,29.0,0
5.0,-225.0,-140.0,105.0,455.0,5.0,0
3.0,-221.0,-131.0,58.0,451.0,-7.0,0
8.0,-220.0,-125.0,33.0,447.0,-15.0,0
8.0,-214.0,-122.0,29.0,441.0,-17.0,0
4.0,-216.0,-115.0,41.0,434.0,-13.0,0
14.0,-216.0,-113.0,57.0,426.0,6.0,0
12.0,-209.0,-114.0,76.0,410.0,13.0,0
15.0,-208.0,-113.0,96.0,388.0,25.0,0
12.0,-204.0,-109.0,109.0,363.0,36.0,0
25.0,-207.0,-109.0,112.0,333.0,55.0,0
26.0,-206.0,-100.0,109.0,302.0,58.0,0
25.0,-208.0,-100.0,94.0,275.0,62.0,0
28.0,-212.0,-101.0,79.0,254.0,68.0,0
29.0,-216.0,-98.0,60.0,239.0,70.0,0
33.0,-224.0,-97.0,39.0,223.0,68.0,0
32.0,-227.0,-94.0,11.0,209.0,61.0,0
31.0,-235.0,-92.0,-24.0,200.0,46.0,0
28.0,-244.0,-95.0,-64.0,199.0,31.0,0
23.0,-252.0,-92.0,-108.0,199.0,10.0,0
18.0,-260.0,-90.0,-146.0,199.0,-16.0,0
20.0,-268.0,-86.0,-174.0,200.0,-37.0,0
16.0,-275.0,-91.0,-183.0,206.0,-64.0,0
10.0,-285.0,-89.0,-182.0,209.0,-91.0,0
7.0,-292.0,-89.0,-168.0,212.0,-118.0,0
1.0,-296.0,-87.0,-142.0,217.0,-144.0,0
0.0,-295.0,-86.0,-104.0,219.0,-169.0,0
-1.0,-293.0,-87.0,-58.0,221.0,-195.0,0
-6.0,-290.0,-85.0,2.0,220.0,-215.0,0
-6.0,-290.0,-87.0,73.0,214.0,-234.0,0
-9.0,-285.0,-89.0,153.0,205.0,-248.0,0
-8.0,-281.0,-79.0,239.0,190.0,-264.0,0
-9.0,-271.0,-85.0,342.0,171.0,-275.0,0
-8.0,-262.0,-81.0,415.0,147.0,-283.0,0
-9.0,-258.0,-79.0,475.0,122.0,-288.0,0
-10.0,-253.0,-77.0,515.0,93.0,-292.0,0
-10.0,-243.0,-74.0,533.0,67.0,-295.0,0
-9.0,-239.0,-74.0,531.0,48.0,-300.0,0
-11.0,-232.0,-70.0,514.0,33.0,-305.0,0
-11.0,-229.0,-69.0,483.0,23.0,-310.0,0
-9.0,-223.0,-65.0,442.0,17.0,-312.0,0
-11.0,-217.0,-62.0,393.0,10.0,-319.0,0
-8.0,-215.0,-58.0,341.0,-2.0,-324.0,0
-4.0,-214.0,-58.0,276.0,-14.0,-330.0,0
-4.0,-209.0,-57.0,222.0,-29.0,-336.0,0
-1.0,-209.0,-56.0,172.0,-39.0,-345.0,0
9.0,-211.0,-53.0,123.0,-47.0,-353.0,0
10.0,-206.0,-57.0,78.0,-54.0,-366.0,0
15.0,-206.0,-52.0,35.0,-59.0,-378.0,0
17.0,-206.0,-56.0,-6.0,-66.0,-396.0,0
20.0,-206.0,-55.0,-46.0,-74.0,-410.0,0
27.0,-210.0,-54.0,-84.0,-82.0,-428.0,0
29.0,-211.0,-51.0,-119.0,-89.0,-444.0,0
31.0,-213.0,-48.0,-156.0,-97.0,-458.0,0
32.0,-216.0,-51.0,-180.0,-102.0,-470.0,0
33.0,-218.0,-51.0,-197.0,-106.0,-480.0,0
31.0,-218.0,-50.0,-209.0,-102.0,-488.0,0
30.0,-222.0,-49.0,-214.0,-98.0,-495.0,0
29.0,-225.0,-49.0,-209.0,-90.0,-501.0,0
29.0,-229.0,-48.0,-202.0,-83.0,-503.0,0
26.0,-232.0,-52.0,-193.0,-79.0,-507.0,0
26.0,-233.0,-49.0,-179.0,-79.0,-508.0,0
25.0,-233.0,-45.0,-163.0,-86.0,-507.0,0
26.0,-237.0,-49.0,-147.0,-100.0,-507.0,0
23.0,-241.0,-48.0,-125.0,-118.0,-503.0,0
21.0,-239.0,-45.0,-109.0,-140.0,-498.0,0
24.0,-242.0,-40.0,-91.0,-166.0,-491.0,0
23.0,-246.0,-40.0,-73.0,-192.0,-481.0,0
21.0,-245.0,-40.0,-53.0,-218.0,-471.0,0
22.0,-243.0,-37.0,-32.0,-242.0,-460.0,0
20.0,-245.0,-37.0,-11.0,-263.0,-450.0,0
18.0,-247.0,-37.0,13.0,-284.0,-442.0,0
19.0,-245.0,-34.0,37.0,-300.0,-434.0,0
16.0,-245.0,-29.0,63.0,-321.0,-426.0,0
14.0,-244.0,-34.0,88.0,-344.0,-414.0,0
12.0,-242.0,-31.0,116.0,-361.0,-403.0,0
12.0,-243.0,-31.0,137.0,-379.0,-394.0,0
13.0,-238.0,-25.0,157.0,-396.0,-382.0,0
15.0,-235.0,-29.0,172.0,-412.0,-370.0,0
16.0,-233.0,-24.0,189.0,-428.0,-357.0,0
15.0,-228.0,-27.0,198.0,-443.0,-343.0,0
16.0,-226.0,-25.0,204.0,-460.0,-327.0,0
18.0,-225.0,-21.0,205.0,-480.0,-313.0,0
14.0,-221.0,-23.0,200.0,-503.0,-298.0,0
13.0,-221.0,-20.0,187.0,-530.0,-279.0,0
14.0,-220.0,-23.0,168.0,-565.0,-263.0,0
11.0,-216.0,-17.0,148.0,-597.0,-249.0,0
13.0,-219.0,-12.0,131.0,-628.0,-235.0,0
11.0,-221.0,-9.0,119.0,-656.0,-223.0,0
14.0,-224.0,-9.0,109.0,-678.0,-205.0,0
12.0,-219.0,-10.0,103.0,-695.0,-187.0,0
14.0,-223.0,-15.0,93.0,-705.0,-166.0,0
15.0,-223.0,-20.0,80.0,-711.0,-144.0,0
18.0,-222.0,-22.0,66.0,-711.0,-126.0,0
19.0,-226.0,-31.0,44.0,-705.0,-111.0,0
24.0,-226.0,-33.0,21.0,-688.0,-90.0,0
29.0,-229.0,-36.0,-16.0,-666.0,-70.0,0
32.0,-235.0,-42.0,-53.0,-646.0,-54.0,0
36.0,-237.0,-47.0,-93.0,-625.0,-42.0,0
44.0,-244.0,-43.0,-134.0,-606.0,-32.0,0
49.0,-248.0,-44.0,-173.0,-588.0,-28.0,0
56.0,-253.0,-44.0,-208.0,-565.0,-35.0,0
64.0,-255.0,-43.0,-239.0,-536.0,-50.0,0
69.0,-260.0,-40.0,-261.0,-501.0,-71.0,0
76.0,-260.0,-37.0,-275.0,-462.0,-96.0,0
81.0,-260.0,-38.0,-277.0,-419.0,-121.0,0
89.0,-262.0,-35.0,-270.0,-361.0,-151.0,0
95.0,-266.0,-28.0,-253.0,-305.0,-175.0,0
101.0,-269.0,-25.0,-236.0,-245.0,-202.0,0
103.0,-269.0,-24.0,-219.0,-185.0,-221.0,0
101.0,-270.0,-19.0,-204.0,-129.0,-237.0,0
99.0,-274.0,-12.0,-186.0,-88.0,-246.0,0
90.0,-272.0,-10.0,-163.0,-60.0,-249.0,0
80.0,-272.0,5.0,-132.0,-54.0,-255.0,0
71.0,-268.0,4.0,-88.0,-56.0,-245.0,0
66.0,-269.0,10.0,-42.0,-62.0,-224.0,0
58.0,-264.0,13.0,3.0,-74.0,-190.0,0
53.0,-263.0,16.0,52.0,-100.0,-173.0,0
46.0,-260.0,16.0,85.0,-122.0,-148.0,0
38.0,-256.0,15.0,112.0,-136.0,-116.0,0
36.0,-256.0,10.0,131.0,-138.0,-87.0,0
32.0,-253.0,-8.0,144.0,-126.0,-58.0,0
29.0,-253.0,-26.0,134.0,-97.0,-30.0,0
25.0,-248.0,-52.0,83.0,-68.0,-4.0,0
25.0,-249.0,-63.0,-33.0,-59.0,12.0,0
28.0,-249.0,-74.0,-214.0,-78.0,18.0,0
32.0,-255.0,-70.0,-435.0,-115.0,16.0,0
47.0,-269.0,-59.0,-647.0,-145.0,4.0,0
55.0,-285.0,-44.0,-821.0,-130.0,-16.0,0
59.0,-301.0,-35.0,-876.0,-77.0,-45.0,0
68.0,-315.0,-28.0,-857.0,-12.0,-81.0,0
71.0,-323.0,-35.0,-786.0,51.0,-118.0,0
84.0,-324.0,-45.0,-699.0,102.0,-155.0,0
96.0,-323.0,-67.0,-623.0,148.0,-190.0,0
107.0,-318.0,-81.0,-570.0,202.0,-228.0,0
111.0,-309.0,-94.0,-539.0,263.0,-264.0,0
111.0,-302.0,-97.0,-517.0,319.0,-296.0,0
107.0,-298.0,-99.0,-490.0,365.0,-309.0,0
100.0,-294.0,-97.0,-439.0,406.0,-310.0,0
92.0,-296.0,-102.0,-360.0,422.0,-309.0,0
85.0,-293.0,-99.0,-290.0,429.0,-312.0,0
79.0,-295.0,-102.0,-219.0,433.0,-312.0,0
68.0,-298.0,-103.0,-153.0,438.0,-306.0,0
59.0,-296.0,-101.0,-94.0,445.0,-289.0,0
49.0,-295.0,-109.0,-43.0,454.0,-266.0,0
41.0,-294.0,-111.0,0.0,469.0,-239.0,0
34.0,-291.0,-111.0,36.0,489.0,-208.0,0
28.0,-287.0,-113.0,68.0,511.0,-176.0,0
22.0,-280.0,-113.0,99.0,525.0,-142.0,0
17.0,-274.0,-114.0,129.0,526.0,-113.0,0
12.0,-267.0,-116.0,146.0,511.0,-87.0,0
10.0,-256.0,-121.0,152.0,481.0,-66.0,0
5.0,-249.0,-123.0,149.0,436.0,-53.0,0
6.0,-236.0,-121.0,140.0,379.0,-38.0,0
2.0,-226.0,-123.0,129.0,310.0,-29.0,0
0.0,-218.0,-126.0,117.0,229.0,-21.0,0
-6.0,-206.0,-132.0,103.0,139.0,-16.0,0
-10.0,-199.0,-125.0,92.0,47.0,-10.0,0
-11.0,-187.0,-130.0,80.0,-42.0,-4.0,0
-17.0,-177.0,-126.0,77.0,-138.0,5.0,0
-18.0,-173.0,-127.0,76.0,-204.0,11.0,0
-21.0,-170.0,-124.0,74.0,-257.0,23.0,0
-25.0,-167.0,-127.0,64.0,-296.0,34.0,0
-24.0,-169.0,-120.0,41.0,-327.0,51.0,0
-22.0,-174.0,-121.0,0.0,-352.0,65.0,0
-15.0,-181.0,-120.0,-58.0,-371.0,77.0,0
-8.0,-190.0,-118.0,-134.0,-381.0,82.0,0
0.0,-197.0,-113.0,-220.0,-378.0,88.0,0
5.0,-212.0,-109.0,-304.0,-359.0,96.0,0
7.0,-220.0,-109.0,-376.0,-330.0,118.0,0
12.0,-235.0,-107.0,-439.0,-296.0,132.0,0
17.0,-246.0,-104.0,-476.0,-279.0,146.0,0
23.0,-257.0,-105.0,-505.0,-274.0,157.0,0
27.0,-265.0,-111.0,-532.0,-284.0,169.0,0
31.0,-271.0,-117.0,-560.0,-303.0,177.0,0
39.0,-274.0,-117.0,-586.0,-327.0,185.0,0
46.0,-282.0,-123.0,-601.0,-348.0,186.0,0
45.0,-284.0,-122.0,-602.0,-362.0,189.0,0
47.0,-282.0,-121.0,-577.0,-362.0,188.0,0
44.0,-280.0,-114.0,-517.0,-348.0,182.0,0
43.0,-278.0,-106.0,-429.0,-314.0,193.0,0
42.0,-279.0,-101.0,-288.0,-278.0,196.0,0
43.0,-277.0,-96.0,-153.0,-237.0,192.0,0
43.0,-278.0,-85.0,-11.0,-189.0,186.0,0
50.0,-274.0,-83.0,118.0,-138.0,184.0,0
46.0,-268.0,-82.0,233.0,-90.0,186.0,0
50.0,-263.0,-83.0,326.0,-48.0,185.0,0
50.0,-260.0,-83.0,390.0,-17.0,190.0,0
51.0,-252.0,-82.0,428.0,7.0,196.0,0
51.0,-242.0,-81.0,446.0,22.0,204.0,0
52.0,-236.0,-79.0,440.0,31.0,216.0,0
50.0,-230.0,-73.0,417.0,32.0,227.0,0
46.0,-223.0,-71.0,388.0,32.0,234.0,0
45.0,-218.0,-69.0,355.0,28.0,245.0,0
43.0,-216.0,-67.0,320.0,21.0,252.0,0
38.0,-209.0,-66.0,281.0,16.0,260.0,0
36.0,-210.0,-63.0,243.0,14.0,270.0,0
34.0,-202.0,-65.0,203.0,17.0,279.0,0
29.0,-198.0,-63.0,158.0,23.0,289.0,0
23.0,-198.0,-64.0,109.0,33.0,304.0,0
20.0,-197.0,-64.0,58.0,48.0,317.0,0
19.0,-194.0,-60.0,2.0,71.0,333.0,0
17.0,-196.0,-61.0,-63.0,93.0,345.0,0
9.0,-195.0,-64.0,-116.0,118.0,357.0,0
7.0,-195.0,-64.0,-164.0,140.0,368.0,0
6.0,-197.0,-65.0,-212.0,161.0,372.0,0
1.0,-197.0,-63.0,-256.0,178.0,374.0,0
-2.0,-199.0,-61.0,-298.0,192.0,377.0,0
-2.0,-204.0,-63.0,-338.0,200.0,377.0,0
-5.0,-208.0,-65.0,-373.0,200.0,378.0,0
-4.0,-212.0,-67.0,-406.0,197.0,373.0,0
-4.0,-220.0,-69.0,-437.0,191.0,365.0,0
-3.0,-226.0,-67.0,-462.0,186.0,353.0,0
-4.0,-231.0,-65.0,-487.0,183.0,344.0,0
1.0,-241.0,-68.0,-497.0,182.0,326.0,0
2.0,-246.0,-67.0,-495.0,187.0,314.0,0
2.0,-254.0,-64.0,-481.0,193.0,297.0,0
7.0,-256.0,-66.0,-456.0,201.0,281.0,0
7.0,-260.0,-66.0,-416.0,214.0,266.0,0
4.0,-260.0,-62.0,-367.0,231.0,255.0,0
8.0,-262.0,-65.0,-309.0,251.0,241.0,0
11.0,-261.0,-62.0,-240.0,273.0,229.0,0
11.0,-258.0,-61.0,-167.0,296.0,211.0,0
17.0,-256.0,-58.0,-79.0,321.0,198.0,0
17.0,-251.0,-56.0,-4.0,338.0,184.0,0
16.0,-244.0,-58.0,69.0,354.0,172.0,0
12.0,-240.0,-52.0,138.0,369.0,157.0,0
15.0,-239.0,-51.0,203.0,382.0,149.0,0
17.0,-232.0,-49.0,265.0,396.0,140.0,0
13.0,-226.0,-46.0,320.0,406.0,136.0,0
13.0,-223.0,-42.0,365.0,415.0,128.0,0
13.0,-217.0,-42.0,396.0,424.0,120.0,0
15.0,-218.0,-42.0,413.0,435.0,109.0,0
12.0,-212.0,-39.0,413.0,446.0,99.0,0
13.0,-212.0,-32.0,401.0,454.0,85.0,0
14.0,-209.0,-32.0,380.0,459.0,71.0,0
14.0,-208.0,-28.0,352.0,463.0,53.0,0
12.0,-209.0,-25.0,321.0,467.0,34.0,0
14.0,-209.0,-26.0,292.0,471.0,9.0,0
13.0,-215.0,-22.0,264.0,469.0,-16.0,0
9.0,-218.0,-27.0,236.0,466.0,-45.0,0
7.0,-220.0,-27.0,209.0,462.0,-71.0,0
6.0,-221.0,-38.0,179.0,456.0,-96.0,0
2.0,-224.0,-42.0,142.0,441.0,-114.0,0
-5.0,-221.0,-47.0,86.0,411.0,-133.0,0
-9.0,-224.0,-53.0,33.0,377.0,-137.0,0
-8.0,-223.0,-55.0,-21.0,338.0,-139.0,0
-9.0,-225.0,-60.0,-71.0,304.0,-134.0,0
-8.0,-230.0,-62.0,-115.0,275.0,-129.0,0
-10.0,-233.0,-68.0,-155.0,248.0,-119.0,0
-12.0,-238.0,-67.0,-194.0,221.0,-109.0,0
-10.0,-242.0,-73.0,-238.0,196.0,-93.0,0
-9.0,-246.0,-80.0,-296.0,173.0,-68.0,0
-8.0,-247.0,-82.0,-370.0,159.0,-34.0,0
1.0,-254.0,-83.0,-457.0,150.0,5.0,0
9.0,-263.0,-77.0,-556.0,153.0,36.0,0
13.0,-273.0,-63.0,-622.0,165.0,60.0,0
18.0,-282.0,-49.0,-655.0,183.0,89.0,0
23.0,-290.0,-42.0,-652.0,203.0,113.0,0
27.0,-301.0,-29.0,-615.0,219.0,145.0,0
33.0,-307.0,-26.0,-547.0,230.0,171.0,0
38.0,-316.0,-22.0,-460.0,239.0,201.0,0
46.0,-321.0,-22.0,-362.0,248.0,225.0,0
51.0,-322.0,-24.0,-260.0,261.0,248.0,0
54.0,-321.0,-31.0,-162.0,275.0,260.0,0
58.0,-321.0,-41.0,-79.0,289.0,272.0,0
67.0,-318.0,-59.0,-16.0,293.0,270.0,0
75.0,-306.0,-72.0,-12.0,287.0,267.0,0
80.0,-299.0,-90.0,-58.0,277.0,255.0,0
76.0,-297.0,-95.0,-145.0,270.0,251.0,0
69.0,-299.0,-96.0,-248.0,267.0,261.0,0
56.0,-301.0,-88.0,-335.0,261.0,279.0,0
44.0,-307.0,-80.0,-383.0,249.0,293.0,0
30.0,-310.0,-82.0,-383.0,240.0,321.0,0
20.0,-317.0,-76.0,-353.0,236.0,348.0,0
1.0,-317.0,-78.0,-314.0,225.0,385.0,0
-11.0,-317.0,-87.0,-272.0,207.0,417.0,0
-20.0,-319.0,-84.0,-251.0,188.0,460.0,0
-32.0,-316.0,-93.0,-240.0,165.0,503.0,0
-44.0,-314.0,-93.0,-233.0,137.0,551.0,0
-51.0,-314.0,-96.0,-227.0,113.0,592.0,0
-55.0,-309.0,-102.0,-215.0,88.0,632.0,0
-60.0,-308.0,-105.0,-202.0,66.0,663.0,0
-60.0,-300.0,-105.0,-187.0,43.0,689.0,0
-70.0,-297.0,-103.0,-160.0,20.0,701.0,0
-64.0,-290.0,-108.0,-115.0,-1.0,715.0,0
-64.0,-283.0,-111.0,-51.0,-27.0,695.0,0
-59.0,-277.0,-112.0,41.0,-49.0,675.0,0
-49.0,-271.0,-122.0,127.0,-54.0,643.0,0
-39.0,-263.0,-125.0,201.0,-45.0,606.0,0
-31.0,-256.0,-140.0,259.0,-18.0,552.0,0
-19.0,-243.0,-148.0,286.0,27.0,497.0,0
-9.0,-228.0,-164.0,283.0,95.0,433.0,0
4.0,-213.0,-169.0,254.0,185.0,367.0,0
16.0,-199.0,-171.0,200.0,292.0,296.0,0
30.0,-187.0,-172.0,133.0,404.0,226.0,0
44.0,-175.0,-171.0,63.0,520.0,148.0,0
53.0,-166.0,-167.0,-4.0,648.0,66.0,0
64.0,-154.0,-155.0,-71.0,745.0,-5.0,0
77.0,-151.0,-156.0,-112.0,826.0,-67.0,0
79.0,-144.0,-149.0,-144.0,888.0,-130.0,0
82.0,-148.0,-134.0,-171.0,924.0,-177.0,0
69.0,-154.0,-127.0,-192.0,939.0,-208.0,0
58.0,-167.0,-117.0,-215.0,938.0,-213.0,0
50.0,-184.0,-113.0,-238.0,921.0,-207.0,0
37.0,-196.0,-104.0,-260.0,886.0,-190.0,0
28.0,-209.0,-100.0,-278.0,830.0,-172.0,0
23.0,-223.0,-89.0,-287.0,755.0,-145.0,0
16.0,-237.0,-91.0,-284.0,669.0,-109.0,0
14.0,-253.0,-92.0,-267.0,610.0,-71.0,0
7.0,-260.0,-98.0,-248.0,570.0,-36.0,0
-3.0,-270.0,-100.0,-228.0,548.0,-1.0,0
-12.0,-275.0,-107.0,-210.0,536.0,23.0,0
-19.0,-270.0,-92.0,-193.0,528.0,45.0,0
-30.0,-283.0,-125.0,-176.0,514.0,57.0,0
-35.0,-276.0,-130.0,-156.0,497.0,65.0,0
-39.0,-277.0,-134.0,-128.0,474.0,59.0,0
-46.0,-272.0,-127.0,-88.0,447.0,48.0,0
-45.0,-274.0,-129.0,-37.0,420.0,21.0,0
-45.0,-273.0,-121.0,47.0,389.0,-5.0,0
-46.0,-267.0,-119.0,134.0,363.0,-42.0,0
-44.0,-270.0,-110.0,231.0,339.0,-80.0,0
-39.0,-267.0,-104.0,331.0,315.0,-129.0,0
-42.0,-264.0,-100.0,427.0,294.0,-175.0,0
-37.0,-262.0,-93.0,511.0,276.0,-226.0,0
-37.0,-253.0,-93.0,577.0,255.0,-270.0,0
-34.0,-247.0,-89.0,617.0,232.0,-320.0,0
-25.0,-238.0,-90.0,632.0,205.0,-361.0,0
-35.0,-225.0,-83.0,615.0,173.0,-401.0,0
-5.0,-222.0,-88.0,572.0,127.0,-436.0,0
-16.0,-214.0,-88.0,497.0,89.0,-464.0,0
-6.0,-211.0,-86.0,416.0,50.0,-481.0,0
-1.0,-201.0,-105.0,329.0,16.0,-497.0,0
6.0,-199.0,-92.0,244.0,-15.0,-503.0,0
0.0,-201.0,-81.0,164.0,-38.0,-510.0,0
7.0,-188.0,-81.0,93.0,-59.0,-510.0,0
9.0,-190.0,-88.0,32.0,-79.0,-513.0,0
17.0,-186.0,-88.0,-19.0,-101.0,-508.0,0
12.0,-196.0,-82.0,-59.0,-128.0,-509.0,0
17.0,-193.0,-78.0,-92.0,-160.0,-501.0,0
7.0,-201.0,-83.0,-121.0,-193.0,-495.0,0
24.0,-196.0,-79.0,-140.0,-220.0,-483.0,0
22.0,-207.0,-79.0,-158.0,-242.0,-477.0,0
17.0,-200.0,-90.0,-173.0,-257.0,-467.0,0
16.0,-201.0,-90.0,-190.0,-268.0,-462.0,0
25.0,-210.0,-86.0,-204.0,-277.0,-458.0,0
20.0,-205.0,-88.0,-217.0,-284.0,-462.0,0
31.0,-204.0,-83.0,-227.0,-291.0,-462.0,0
36.0,-211.0,-84.0,-235.0,-298.0,-472.0,0
33.0,-209.0,-88.0,-240.0,-309.0,-476.0,0
33.0,-220.0,-81.0,-239.0,-320.0,-490.0,0
36.0,-218.0,-77.0,-235.0,-329.0,-497.0,0
34.0,-212.0,-76.0,-227.0,-338.0,-508.0,0
36.0,-216.0,-68.0,-215.0,-346.0,-511.0,0
41.0,-220.0,-66.0,-201.0,-352.0,-515.0,0
35.0,-224.0,-69.0,-184.0,-354.0,-510.0,0
30.0,-234.0,-62.0,-166.0,-356.0,-506.0,0
32.0,-226.0,-76.0,-149.0,-354.0,-495.0,0
29.0,-233.0,-71.0,-132.0,-351.0,-487.0,0
24.0,-231.0,-64.0,-115.0,-348.0,-473.0,0
25.0,-234.0,-67.0,-97.0,-348.0,-462.0,0
21.0,-237.0,-66.0,-77.0,-353.0,-441.0,0
24.0,-238.0,-64.0,-47.0,-359.0,-427.0,0
19.0,-235.0,-60.0,-20.0,-368.0,-407.0,0
26.0,-235.0,-63.0,15.0,-382.0,-389.0,0
30.0,-222.0,-56.0,55.0,-396.0,-365.0,0
12.0,-233.0,-64.0,96.0,-414.0,-347.0,0
6.0,-232.0,-48.0,139.0,-431.0,-322.0,0
6.0,-226.0,-55.0,175.0,-445.0,-303.0,0
21.0,-224.0,-47.0,209.0,-460.0,-280.0,0
18.0,-233.0,-43.0,231.0,-473.0,-262.0,0
21.0,-227.0,-51.0,249.0,-495.0,-244.0,0
16.0,-227.0,-45.0,257.0,-520.0,-228.0,0
27.0,-227.0,-45.0,256.0,-540.0,-205.0,0
20.0,-220.0,-47.0,252.0,-564.0,-190.0,0
20.0,-220.0,-46.0,245.0,-591.0,-169.0,0
18.0,-224.0,-53.0,237.0,-619.0,-161.0,0
25.0,-233.0,-38.0,230.0,-637.0,-136.0,0
25.0,-230.0,-44.0,221.0,-652.0,-117.0,0
22.0,-222.0,-40.0,214.0,-664.0,-106.0,0
22.0,-226.0,-39.0,209.0,-670.0,-92.0,0
18.0,-228.0,-45.0,208.0,-677.0,-75.0,0
11.0,-225.0,-36.0,204.0,-684.0,-58.0,0
11.0,-236.0,-33.0,201.0,-697.0,-42.0,0
12.0,-236.0,-35.0,198.0,-713.0,-28.0,0
11.0,-220.0,-41.0,192.0,-726.0,-11.0,0
5.0,-234.0,-28.0,191.0,-737.0,-3.0,0
9.0,-225.0,-45.0,188.0,-743.0,10.0,0
6.0,-231.0,-29.0,184.0,-741.0,19.0,0
11.0,-227.0,-45.0,175.0,-736.0,31.0,0
13.0,-237.0,-42.0,165.0,-728.0,31.0,0
14.0,-242.0,-45.0,149.0,-721.0,34.0,0
17.0,-243.0,-43.0,130.0,-715.0,30.0,0
16.0,-247.0,-46.0,101.0,-711.0,29.0,0
25.0,-255.0,-39.0,75.0,-711.0,18.0,0
29.0,-249.0,-47.0,46.0,-713.0,16.0,0
21.0,-269.0,-46.0,19.0,-714.0,8.0,0
20.0,-272.0,-43.0,-4.0,-705.0,7.0,0
29.0,-273.0,-40.0,-22.0,-685.0,-3.0,0
25.0,-272.0,-49.0,-33.0,-658.0,-15.0,0
32.0,-278.0,-49.0,-40.0,-623.0,-35.0,0
34.0,-276.0,-52.0,-42.0,-581.0,-50.0,0
36.0,-273.0,-53.0,-42.0,-534.0,-75.0,0
32.0,-284.0,-32.0,-43.0,-472.0,-99.0,0
31.0,-277.0,-42.0,-45.0,-416.0,-120.0,0
29.0,-277.0,-29.0,-43.0,-364.0,-142.0,0
39.0,-276.0,-13.0,-39.0,-317.0,-177.0,0
49.0,-271.0,-6.0,-29.0,-276.0,-208.0,0
41.0,-270.0,-4.0,-16.0,-243.0,-240.0,0
49.0,-277.0,11.0,-1.0,-219.0,-268.0,0
49.0,-271.0,28.0,13.0,-204.0,-306.0,0
33.0,-267.0,21.0,26.0,-198.0,-332.0,0
49.0,-261.0,21.0,38.0,-198.0,-359.0,0
47.0,-263.0,13.0,52.0,-197.0,-383.0,0
46.0,-258.0,-6.0,75.0,-170.0,-385.0,0
34.0,-254.0,-37.0,93.0,-114.0,-363.0,0
46.0,-253.0,-59.0,84.0,-27.0,-342.0,0
72.0,-251.0,-115.0,-5.0,65.0,-345.0,0
72.0,-245.0,-150.0,-216.0,136.0,-393.0,0
87.0,-253.0,-151.0,-537.0,186.0,-459.0,0
93.0,-257.0,-141.0,-895.0,251.0,-527.0,0
95.0,-293.0,-128.0,-1205.0,361.0,-569.0,0
94.0,-324.0,-113.0,-1415.0,503.0,-609.0,0
94.0,-345.0,-112.0,-1517.0,640.0,-651.0,0
96.0,-358.0,-115.0,-1525.0,766.0,-710.0,0
104.0,-369.0,-128.0,-1477.0,850.0,-751.0,0
121.0,-387.0,-130.0,-1411.0,937.0,-790.0,0
122.0,-386.0,-145.0,-1336.0,1027.0,-818.0,0
115.0,-386.0,-159.0,-1248.0,1107.0,-842.0,0
129.0,-390.0,-151.0,-1137.0,1172.0,-838.0,0
120.0,-369.0,-155.0,-991.0,1221.0,-812.0,0
104.0,-373.0,-168.0,-813.0,1245.0,-762.0,0
95.0,-367.0,-172.0,-611.0,1225.0,-713.0,0
92.0,-341.0,-211.0,-408.0,1158.0,-657.0,0
92.0,-335.0,-185.0,-221.0,1058.0,-595.0,0
81.0,-302.0,-217.0,-40.0,943.0,-530.0,0
68.0,-286.0,-202.0,92.0,874.0,-445.0,0
69.0,-271.0,-205.0,205.0,821.0,-357.0,0
59.0,-251.0,-193.0,300.0,769.0,-278.0,0
51.0,-232.0,-192.0,379.0,704.0,-201.0,0
33.0,-223.0,-179.0,450.0,624.0,-134.0,0
28.0,-199.0,-163.0,508.0,530.0,-73.0,0
22.0,-201.0,-130.0,557.0,425.0,-22.0,0
17.0,-193.0,-147.0,593.0,310.0,27.0,0
11.0,-207.0,-114.0,605.0,199.0,71.0,0
34.0,-186.0,-130.0,593.0,77.0,130.0,0
24.0,-192.0,-120.0,549.0,-9.0,177.0,0
19.0,-202.0,-101.0,495.0,-80.0,224.0,0
37.0,-187.0,-108.0,433.0,-125.0,263.0,0
44.0,-189.0,-95.0,376.0,-143.0,302.0,0
52.0,-194.0,-81.0,329.0,-138.0,333.0,0
60.0,-189.0,-109.0,288.0,-112.0,361.0,0
58.0,-194.0,-96.0,250.0,-74.0,380.0,0
57.0,-197.0,-98.0,213.0,-32.0,400.0,0
63.0,-198.0,-97.0,173.0,11.0,413.0,0
62.0,-197.0,-95.0,133.0,50.0,433.0,0
69.0,-203.0,-97.0,92.0,90.0,445.0,0
73.0,-186.0,-88.0,59.0,114.0,459.0,0
41.0,-192.0,-97.0,34.0,134.0,464.0,0
55.0,-187.0,-91.0,14.0,154.0,475.0,0
51.0,-190.0,-85.0,-3.0,172.0,480.0,0
59.0,-174.0,-86.0,-21.0,187.0,491.0,0
55.0,-183.0,-79.0,-42.0,198.0,500.0,0
58.0,-183.0,-83.0,-68.0,205.0,517.0,0
58.0,-190.0,-75.0,-98.0,214.0,532.0,0
71.0,-174.0,-84.0,-129.0,219.0,549.0,0
57.0,-181.0,-76.0,-156.0,224.0,565.0,0
53.0,-175.0,-83.0,-185.0,223.0,581.0,0
54.0,-173.0,-80.0,-206.0,219.0,592.0,0
57.0,-180.0,-86.0,-221.0,214.0,605.0,0
43.0,-181.0,-90.0,-234.0,208.0,612.0,0
56.0,-189.0,-86.0,-245.0,202.0,619.0,0
53.0,-187.0,-81.0,-259.0,198.0,616.0,0
52.0,-186.0,-89.0,-273.0,203.0,614.0,0
47.0,-193.0,-98.0,-283.0,215.0,606.0,0
44.0,-199.0,-85.0,-287.0,232.0,599.0,0
34.0,-204.0,-76.0,-283.0,248.0,586.0,0
36.0,-208.0,-84.0,-258.0,267.0,580.0,0
34.0,-211.0,-96.0,-218.0,281.0,569.0,0
23.0,-211.0,-75.0,-164.0,299.0,561.0,0
34.0,-209.0,-73.0,-99.0,323.0,550.0,0
26.0,-211.0,-56.0,-24.0,352.0,544.0,0
27.0,-210.0,-61.0,55.0,387.0,535.0,0
16.0,-204.0,-58.0,130.0,423.0,535.0,0
15.0,-196.0,-57.0,197.0,457.0,530.0,0
8.0,-191.0,-48.0,245.0,484.0,529.0,0
6.0,-186.0,-42.0,276.0,501.0,522.0,0
7.0,-184.0,-34.0,293.0,505.0,516.0,0
11.0,-182.0,-34.0,304.0,493.0,501.0,0
7.0,-173.0,-44.0,303.0,473.0,489.0,0
-8.0,-181.0,-27.0,288.0,449.0,484.0,0
3.0,-175.0,-26.0,259.0,420.0,489.0,0
-9.0,-180.0,-23.0,213.0,388.0,503.0,0
-5.0,-192.0,-25.0,134.0,363.0,529.0,0
3.0,-204.0,-45.0,5.0,366.0,541.0,0
11.0,-207.0,-44.0,-168.0,414.0,525.0,0
-5.0,-234.0,-31.0,-353.0,497.0,478.0,0
-13.0,-233.0,-21.0,-507.0,581.0,436.0,0
-13.0,-250.0,-2.0,-597.0,632.0,439.0,0
-21.0,-255.0,17.0,-580.0,615.0,478.0,0
-26.0,-264.0,3.0,-504.0,557.0,530.0,0
-25.0,-251.0,-26.0,-399.0,488.0,590.0,0
-14.0,-245.0,-63.0,-297.0,431.0,646.0,0
0.0,-233.0,-102.0,-225.0,382.0,691.0,0
-6.0,-218.0,-130.0,-200.0,315.0,715.0,0
-9.0,-194.0,-184.0,-216.0,227.0,747.0,0
6.0,-187.0,-213.0,-251.0,162.0,810.0,0
21.0,-181.0,-212.0,-271.0,163.0,899.0,0
26.0,-172.0,-200.0,-265.0,281.0,964.0,0
27.0,-168.0,-199.0,-228.0,447.0,1016.0,0
36.0,-178.0,-166.0,-152.0,622.0,1041.0,0
44.0,-200.0,-134.0,-39.0,771.0,1038.0,0
41.0,-223.0,-70.0,53.0,300.0,489.0,0
46.0,-219.0,-67.0,-50.0,173.0,429.0,0
41.0,-218.0,-75.0,-125.0,108.0,358.0,0
36.0,-218.0,-89.0,-215.0,105.0,283.0,0
25.0,-220.0,-100.0,-345.0,170.0,217.0,0
16.0,-224.0,-112.0,-520.0,300.0,164.0,0
7.0,-243.0,-97.0,-718.0,493.0,118.0,0
-4.0,-258.0,-76.0,-901.0,719.0,83.0,0
-7.0,-272.0,-53.0,-1045.0,938.0,47.0,0
-11.0,-298.0,-24.0,-1141.0,1108.0,17.0,0
-22.0,-315.0,1.0,-1196.0,1201.0,-9.0,0
-20.0,-352.0,14.0,-1249.0,1215.0,-13.0,0
-31.0,-368.0,28.0,-1280.0,1161.0,-12.0,0
-45.0,-390.0,32.0,-1285.0,1066.0,3.0,0
-65.0,-409.0,24.0,-1296.0,943.0,36.0,0
-84.0,-424.0,10.0,-1329.0,804.0,89.0,0
-95.0,-431.0,-14.0,-1381.0,677.0,156.0,0
-103.0,-444.0,-37.0,-1458.0,577.0,227.0,0
-111.0,-454.0,-36.0,-1527.0,481.0,288.0,0
-120.0,-468.0,-34.0,-1535.0,348.0,342.0,0
-126.0,-480.0,-26.0,-1461.0,159.0,383.0,0
-123.0,-478.0,-24.0,-1293.0,-125.0,425.0,0
-118.0,-465.0,-27.0,-967.0,-380.0,452.0,0
-112.0,-437.0,-36.0,-615.0,-612.0,479.0,0
-115.0,-409.0,-53.0,-228.0,-794.0,502.0,0
-111.0,-364.0,-75.0,148.0,-899.0,526.0,0
-104.0,-321.0,-100.0,459.0,-920.0,555.0,0
-97.0,-269.0,-119.0,681.0,-882.0,602.0,0
-85.0,-222.0,-132.0,797.0,-807.0,653.0,0
-80.0,-185.0,-148.0,820.0,-722.0,696.0,0
-69.0,-146.0,-171.0,768.0,-641.0,711.0,0
-62.0,-108.0,-181.0,660.0,-561.0,702.0,0
-50.0,-86.0,-181.0,507.0,-455.0,694.0,0
-29.0,-60.0,-184.0,407.0,-349.0,686.0,0
-7.0,-38.0,-164.0,362.0,-231.0,666.0,0
20.0,-17.0,-132.0,394.0,-114.0,615.0,0
36.0,-2.0,-99.0,499.0,-13.0,517.0,0
63.0,20.0,-63.0,697.0,75.0,427.0,0
71.0,31.0,-55.0,972.0,146.0,388.0,0
78.0,48.0,-11.0,1265.0,221.0,389.0,0
67.0,59.0,7.0,1580.0,272.0,408.0,0
54.0,78.0,54.0,1907.0,341.0,407.0,0
57.0,75.0,71.0,2241.0,399.0,346.0,0
78.0,62.0,-57.0,2398.0,387.0,242.0,0
143.0,54.0,-134.0,2325.0,209.0,132.0,0
189.0,60.0,-62.0,2061.0,-61.0,-112.0,0
142.0,82.0,-97.0,1883.0,-301.0,-561.0,0
14.0,85.0,-45.0,1613.0,-524.0,-1064.0,0
-68.0,30.0,-40.0,1289.0,-816.0,-1463.0,0
-120.0,-13.0,-56.0,1031.0,-1195.0,-1606.0,0
-144.0,-78.0,-101.0,768.0,-1500.0,-1561.0,0
-143.0,-130.0,-191.0,389.0,-1657.0,-1446.0,0
-182.0,-181.0,-264.0,-89.0,-1658.0,-1347.0,0
-282.0,-235.0,-359.0,-687.0,-1515.0,-1257.0,0
-409.0,-306.0,-431.0,-1276.0,-1328.0,-1079.0,0
-500.0,-403.0,-469.0,-1968.0,-1076.0,-745.0,0
-494.0,-497.0,-458.0,-2724.0,-826.0,-273.0,0
-385.0,-612.0,-399.0,-3454.0,-766.0,141.0,0
-306.0,-721.0,-345.0,-3970.0,-1009.0,324.0,0
-241.0,-802.0,-305.0,-4117.0,-1525.0,306.0,0
-147.0,-859.0,-288.0,-3847.0,-2207.0,264.0,0
12.0,-885.0,-299.0,-3201.0,-2804.0,339.0,0
184.0,-886.0,-339.0,-2248.0,-3092.0,545.0,0
307.0,-855.0,-355.0,-881.0,-2851.0,664.0,0
372.0,-816.0,-342.0,252.0,-2237.0,663.0,0
418.0,-725.0,-283.0,1293.0,-1544.0,481.0,0
404.0,-615.0,-217.0,2239.0,-1031.0,180.0,0
339.0,-510.0,-154.0,3055.0,-737.0,-101.0,0
274.0,-416.0,-102.0,3665.0,-579.0,-252.0,0
219.0,-320.0,-45.0,4022.0,-499.0,-278.0,0
175.0,-229.0,-17.0,4168.0,-469.0,-266.0,0
149.0,-173.0,-24.0,4100.0,-438.0,-311.0,0
121.0,-106.0,-28.0,3750.0,-369.0,-459.0,0
80.0,-57.0,-54.0,3142.0,-235.0,-728.0,0
42.0,-33.0,-71.0,2153.0,-113.0,-913.0,0
14.0,-44.0,-89.0,1226.0,2.0,-1003.0,0
3.0,-94.0,-90.0,262.0,96.0,-997.0,0
-6.0,-145.0,-96.0,-674.0,151.0,-939.0,0
1.0,-213.0,-94.0,-1525.0,165.0,-874.0,0
10.0,-267.0,-93.0,-2244.0,151.0,-830.0,0
13.0,-330.0,-84.0,-2803.0,133.0,-824.0,0
18.0,-391.0,-87.0,-3149.0,133.0,-850.0,0
25.0,-438.0,-78.0,-3270.0,161.0,-902.0,0
37.0,-480.0,-82.0,-3192.0,231.0,-961.0,0
57.0,-515.0,-87.0,-2910.0,300.0,-994.0,0
71.0,-546.0,-90.0,-2574.0,366.0,-1016.0,0
74.0,-567.0,-92.0,-2160.0,424.0,-1027.0,0
73.0,-578.0,-99.0,-1686.0,476.0,-1008.0,0
69.0,-581.0,-97.0,-1163.0,524.0,-946.0,0
62.0,-580.0,-107.0,-601.0,566.0,-869.0,0
54.0,-564.0,-117.0,-45.0,607.0,-782.0,0
38.0,-531.0,-122.0,474.0,644.0,-699.0,0
19.0,-493.0,-126.0,907.0,673.0,-635.0,0
2.0,-451.0,-129.0,1236.0,679.0,-581.0,0
-13.0,-404.0,-117.0,1506.0,657.0,-548.0,0
-27.0,-366.0,-105.0,1671.0,628.0,-533.0,0
-35.0,-315.0,-87.0,1817.0,594.0,-535.0,0
-30.0,-268.0,-78.0,1956.0,565.0,-569.0,0
-27.0,-214.0,-73.0,2089.0,535.0,-661.0,0
-26.0,-164.0,-68.0,2221.0,520.0,-812.0,0
-29.0,-116.0,-44.0,2317.0,523.0,-961.0,0
-37.0,-90.0,-59.0,2335.0,539.0,-1051.0,0
-33.0,-63.0,-45.0,2259.0,556.0,-1082.0,0
-30.0,-47.0,-34.0,2100.0,569.0,-1079.0,0
-25.0,-22.0,-19.0,1894.0,574.0,-1075.0,0
-22.0,-2.0,8.0,1625.0,571.0,-1083.0,0
-18.0,16.0,24.0,1422.0,565.0,-1116.0,0
-21.0,34.0,39.0,1271.0,557.0,-1181.0,0
-30.0,59.0,41.0,1159.0,540.0,-1246.0,0
-40.0,76.0,39.0,1054.0,516.0,-1286.0,0
-52.0,98.0,36.0,942.0,479.0,-1289.0,0
-62.0,112.0,34.0,826.0,426.0,-1264.0,0
-72.0,124.0,20.0,709.0,360.0,-1211.0,0
-89.0,138.0,13.0,592.0,283.0,-1137.0,0
-97.0,149.0,5.0,484.0,192.0,-996.0,0
-101.0,152.0,2.0,368.0,118.0,-841.0,0
-105.0,145.0,5.0,277.0,52.0,-652.0,0
-98.0,130.0,9.0,195.0,-6.0,-438.0,0
-86.0,105.0,13.0,123.0,-62.0,-214.0,0
-74.0,82.0,22.0,53.0,-120.0,4.0,0
-55.0,46.0,31.0,-17.0,-197.0,214.0,0
-32.0,12.0,40.0,-77.0,-291.0,396.0,0
-13.0,-19.0,48.0,-105.0,-401.0,545.0,0
2.0,-49.0,52.0,-98.0,-525.0,659.0,0
23.0,-80.0,49.0,-54.0,-664.0,749.0,0
51.0,-100.0,35.0,46.0,-844.0,766.0,0
66.0,-115.0,13.0,162.0,-994.0,743.0,0
70.0,-112.0,-6.0,311.0,-1128.0,704.0,0
79.0,-102.0,-46.0,491.0,-1232.0,694.0,0
80.0,-88.0,-99.0,687.0,-1297.0,700.0,0
77.0,-61.0,-154.0,853.0,-1322.0,723.0,0
72.0,-33.0,-217.0,957.0,-1296.0,770.0,0
79.0,-12.0,-281.0,983.0,-1215.0,859.0,0
105.0,6.0,-371.0,917.0,-1069.0,973.0,0
137.0,18.0,-438.0,736.0,-850.0,1073.0,0
173.0,15.0,-482.0,428.0,-488.0,1139.0,0
230.0,-11.0,-514.0,-87.0,-115.0,1129.0,0
302.0,-74.0,-506.0,-632.0,316.0,1026.0,0
394.0,-181.0,-435.0,-1284.0,750.0,784.0,0
480.0,-337.0,-327.0,-1969.0,1051.0,335.0,0
496.0,-534.0,-166.0,-2603.0,1033.0,-402.0,0
417.0,-721.0,-50.0,-2987.0,574.0,-1365.0,0
322.0,-830.0,-52.0,-2987.0,-145.0,-2253.0,0
215.0,-935.0,-187.0,-2713.0,-693.0,-2777.0,0
128.0,-990.0,-374.0,-2480.0,-659.0,-2882.0,0
14.0,-968.0,-506.0,-2375.0,278.0,-2662.0,0
-143.0,-885.0,-564.0,-2083.0,1483.0,-2275.0,0
-304.0,-795.0,-543.0,-1408.0,2507.0,-1758.0,0
-430.0,-708.0,-506.0,-298.0,2893.0,-1229.0,0
-484.0,-623.0,-479.0,1024.0,2616.0,-791.0,0
-458.0,-561.0,-445.0,2273.0,1967.0,-428.0,0
-391.0,-493.0,-380.0,3263.0,1225.0,-96.0,0
-327.0,-434.0,-312.0,3960.0,502.0,201.0,0
-270.0,-368.0,-249.0,4379.0,-155.0,427.0,0
-218.0,-294.0,-205.0,4554.0,-695.0,578.0,0
-155.0,-205.0,-170.0,4525.0,-1071.0,664.0,0
-71.0,-123.0,-140.0,4291.0,-1299.0,663.0,0
27.0,-49.0,-130.0,3969.0,-1358.0,599.0,0
91.0,-13.0,-139.0,3483.0,-1373.0,510.0,0
141.0,8.0,-145.0,2796.0,-1368.0,410.0,0
162.0,15.0,-165.0,1918.0,-1349.0,329.0,0
166.0,-3.0,-167.0,871.0,-1325.0,281.0,0
174.0,-38.0,-160.0,-258.0,-1323.0,248.0,0
176.0,-79.0,-146.0,-1355.0,-1345.0,195.0,0
176.0,-136.0,-134.0,-2310.0,-1353.0,121.0,0
179.0,-198.0,-121.0,-3046.0,-1292.0,48.0,0
184.0,-250.0,-106.0,-3512.0,-1115.0,-7.0,0
196.0,-310.0,-85.0,-3697.0,-904.0,-37.0,0
198.0,-363.0,-71.0,-3557.0,-668.0,-50.0,0
201.0,-404.0,-54.0,-3207.0,-429.0,-41.0,0
201.0,-440.0,-49.0,-2741.0,-211.0,16.0,0
192.0,-463.0,-50.0,-2241.0,-22.0,112.0,0
180.0,-481.0,-55.0,-1771.0,132.0,240.0,0
167.0,-490.0,-55.0,-1355.0,254.0,384.0,0
148.0,-489.0,-59.0,-988.0,349.0,532.0,0
133.0,-486.0,-61.0,-653.0,428.0,668.0,0
112.0,-476.0,-76.0,-339.0,504.0,797.0,0
94.0,-461.0,-88.0,22.0,551.0,863.0,0
78.0,-445.0,-100.0,318.0,588.0,895.0,0
64.0,-421.0,-110.0,606.0,625.0,889.0,0
48.0,-391.0,-117.0,871.0,668.0,863.0,0
33.0,-357.0,-115.0,1110.0,721.0,827.0,0
27.0,-333.0,-119.0,1321.0,778.0,793.0,0
18.0,-297.0,-116.0,1506.0,843.0,759.0,0
0.0,-258.0,-109.0,1666.0,911.0,737.0,0
-5.0,-219.0,-92.0,1801.0,983.0,740.0,0
-7.0,-182.0,-72.0,1916.0,1052.0,755.0,0
-10.0,-145.0,-58.0,2022.0,1130.0,763.0,0
-11.0,-111.0,-33.0,2088.0,1190.0,776.0,0
-12.0,-71.0,0.0,2154.0,1240.0,782.0,0
-8.0,-49.0,9.0,2238.0,1271.0,799.0,0
-7.0,-20.0,21.0,2297.0,1275.0,816.0,0
-2.0,-5.0,30.0,2281.0,1261.0,843.0,0
1.0,7.0,37.0,2182.0,1230.0,862.0,0
3.0,15.0,34.0,2000.0,1184.0,864.0,0
1.0,21.0,37.0,1748.0,1129.0,830.0,0
6.0,23.0,35.0,1445.0,1072.0,758.0,0
6.0,24.0,25.0,1045.0,1014.0,668.0,0
12.0,23.0,19.0,708.0,980.0,564.0,0
16.0,19.0,13.0,382.0,974.0,444.0,0
27.0,11.0,-2.0,81.0,996.0,319.0,0
35.0,0.0,-18.0,-183.0,1041.0,185.0,0
41.0,-20.0,-32.0,-409.0,1108.0,57.0,0
34.0,-39.0,-35.0,-592.0,1182.0,-54.0,0
29.0,-66.0,-46.0,-740.0,1253.0,-135.0,0
19.0,-85.0,-49.0,-844.0,1310.0,-197.0,0
11.0,-105.0,-45.0,-898.0,1344.0,-239.0,0
-2.0,-130.0,-37.0,-901.0,1348.0,-281.0,0
-12.0,-159.0,-26.0,-840.0,1319.0,-301.0,0
-27.0,-183.0,-12.0,-734.0,1265.0,-313.0,0
-43.0,-204.0,-1.0,-581.0,1177.0,-308.0,0
-56.0,-226.0,11.0,-386.0,1062.0,-298.0,0
-65.0,-239.0,16.0,-161.0,930.0,-274.0,0
-75.0,-248.0,16.0,83.0,796.0,-242.0,0
-80.0,-250.0,10.0,330.0,680.0,-186.0,0
-91.0,-251.0,1.0,557.0,596.0,-118.0,0
-99.0,-244.0,-12.0,750.0,544.0,-35.0,0
-110.0,-235.0,-28.0,892.0,511.0,70.0,0
-122.0,-222.0,-53.0,966.0,475.0,166.0,0
-137.0,-211.0,-106.0,914.0,431.0,262.0,0
-152.0,-204.0,-174.0,694.0,331.0,368.0,0
-159.0,-204.0,-225.0,263.0,137.0,474.0,0
-156.0,-218.0,-270.0,-346.0,-160.0,587.0,0
-130.0,-267.0,-294.0,-1048.0,-511.0,707.0,0
-80.0,-329.0,-276.0,-1721.0,-804.0,830.0,0
-6.0,-408.0,-236.0,-2239.0,-946.0,921.0,0
65.0,-473.0,-175.0,-2476.0,-917.0,959.0,0
101.0,-529.0,-117.0,-2354.0,-762.0,947.0,0
101.0,-556.0,-82.0,-1876.0,-493.0,928.0,0
101.0,-555.0,-70.0,-1004.0,-274.0,922.0,0
102.0,-534.0,-81.0,-217.0,-120.0,917.0,0
108.0,-491.0,-103.0,467.0,-54.0,888.0,0
118.0,-447.0,-115.0,984.0,-62.0,836.0,0
136.0,-401.0,-117.0,1345.0,-105.0,744.0,0
152.0,-356.0,-120.0,1579.0,-146.0,616.0,0
166.0,-315.0,-119.0,1707.0,-151.0,450.0,0
177.0,-276.0,-118.0,1739.0,-108.0,279.0,0
174.0,-255.0,-114.0,1687.0,-13.0,115.0,0
173.0,-223.0,-99.0,1563.0,132.0,-42.0,0
154.0,-202.0,-93.0,1332.0,334.0,-147.0,0
127.0,-186.0,-81.0,1085.0,504.0,-219.0,0
95.0,-172.0,-73.0,808.0,657.0,-271.0,0
66.0,-164.0,-63.0,523.0,777.0,-294.0,0
44.0,-163.0,-56.0,256.0,848.0,-313.0,0
29.0,-167.0,-51.0,18.0,871.0,-330.0,0
18.0,-170.0,-50.0,-189.0,849.0,-349.0,0
8.0,-175.0,-53.0,-373.0,802.0,-349.0,0
4.0,-185.0,-55.0,-539.0,746.0,-337.0,0
-3.0,-196.0,-58.0,-687.0,691.0,-291.0,0
-12.0,-203.0,-61.0,-845.0,636.0,-241.0,0
-21.0,-220.0,-66.0,-959.0,598.0,-176.0,0
-31.0,-235.0,-69.0,-1061.0,562.0,-113.0,0
-40.0,-245.0,-75.0,-1149.0,526.0,-50.0,0
-45.0,-256.0,-77.0,-1218.0,487.0,1.0,0
-53.0,-266.0,-79.0,-1263.0,446.0,41.0,0
-55.0,-269.0,-79.0,-1272.0,399.0,60.0,0
-54.0,-278.0,-83.0,-1238.0,340.0,67.0,0
-55.0,-281.0,-81.0,-1160.0,266.0,62.0,0
-52.0,-281.0,-81.0,-1036.0,180.0,57.0,0
-52.0,-275.0,-86.0,-876.0,66.0,43.0,0
-53.0,-271.0,-90.0,-646.0,-31.0,32.0,0
-52.0,-268.0,-92.0,-444.0,-123.0,18.0,0
-45.0,-263.0,-93.0,-245.0,-209.0,12.0,0
-43.0,-251.0,-87.0,-50.0,-282.0,9.0,0
-42.0,-242.0,-82.0,129.0,-339.0,16.0,0
-39.0,-229.0,-81.0,283.0,-379.0,21.0,0
-37.0,-216.0,-82.0,407.0,-402.0,32.0,0
-36.0,-204.0,-85.0,484.0,-413.0,40.0,0
-31.0,-196.0,-77.0,515.0,-414.0,48.0,0
-27.0,-189.0,-73.0,497.0,-410.0,46.0,0
-24.0,-181.0,-68.0,417.0,-400.0,43.0,0
-18.0,-177.0,-77.0,311.0,-390.0,31.0,0
-18.0,-177.0,-73.0,181.0,-379.0,21.0,0
-17.0,-174.0,-71.0,35.0,-368.0,4.0,0
-18.0,-180.0,-69.0,-115.0,-357.0,-7.0,0
-15.0,-188.0,-70.0,-255.0,-349.0,-19.0,0
-14.0,-196.0,-65.0,-380.0,-348.0,-22.0,0
-12.0,-206.0,-54.0,-480.0,-356.0,-22.0,0
-9.0,-221.0,-53.0,-548.0,-370.0,-10.0,0
-5.0,-231.0,-51.0,-582.0,-388.0,2.0,0
-1.0,-249.0,-47.0,-580.0,-413.0,30.0,0
-4.0,-257.0,-50.0,-545.0,-439.0,49.0,0
-1.0,-266.0,-50.0,-488.0,-474.0,79.0,0
-1.0,-269.0,-53.0,-418.0,-513.0,108.0,0
1.0,-272.0,-57.0,-336.0,-553.0,147.0,0
1.0,-274.0,-57.0,-247.0,-594.0,186.0,0
4.0,-275.0,-59.0,-155.0,-631.0,231.0,0
6.0,-278.0,-62.0,-64.0,-663.0,269.0,0
3.0,-278.0,-58.0,26.0,-691.0,308.0,0
6.0,-279.0,-58.0,113.0,-711.0,336.0,0
8.0,-280.0,-61.0,192.0,-719.0,368.0,0
7.0,-283.0,-61.0,273.0,-712.0,377.0,0
7.0,-283.0,-58.0,323.0,-698.0,381.0,0
2.0,-281.0,-57.0,356.0,-678.0,375.0,0
-3.0,-278.0,-56.0,376.0,-654.0,369.0,0
0.0,-275.0,-53.0,388.0,-624.0,350.0,0
2.0,-269.0,-48.0,398.0,-589.0,323.0,0
3.0,-261.0,-41.0,405.0,-543.0,284.0,0
5.0,-254.0,-40.0,412.0,-503.0,245.0,0
4.0,-241.0,-36.0,413.0,-468.0,202.0,0
0.0,-238.0,-40.0,400.0,-441.0,158.0,0
-3.0,-221.0,-43.0,353.0,-419.0,119.0,0
2.0,-213.0,-51.0,278.0,-407.0,88.0,0
1.0,-206.0,-53.0,167.0,-402.0,50.0,0
0.0,-197.0,-56.0,28.0,-398.0,20.0,0
-6.0,-195.0,-62.0,-133.0,-400.0,-10.0,0
-10.0,-194.0,-58.0,-304.0,-414.0,-31.0,0
-12.0,-197.0,-60.0,-470.0,-435.0,-57.0,0
-18.0,-199.0,-57.0,-628.0,-464.0,-76.0,0
-22.0,-208.0,-51.0,-773.0,-491.0,-100.0,0
-23.0,-215.0,-54.0,-899.0,-514.0,-121.0,0
-31.0,-226.0,-49.0,-999.0,-534.0,-148.0,0
-32.0,-239.0,-45.0,-1083.0,-537.0,-166.0,0
-38.0,-249.0,-40.0,-1118.0,-523.0,-188.0,0
-32.0,-262.0,-38.0,-1118.0,-489.0,-197.0,0
-31.0,-276.0,-37.0,-1086.0,-444.0,-213.0,0
-31.0,-282.0,-34.0,-1032.0,-389.0,-219.0,0
-28.0,-289.0,-41.0,-956.0,-336.0,-227.0,0
-27.0,-297.0,-48.0,-864.0,-290.0,-224.0,0
-25.0,-304.0,-49.0,-768.0,-253.0,-216.0,0
-21.0,-306.0,-50.0,-661.0,-232.0,-198.0,0
-17.0,-303.0,-51.0,-551.0,-226.0,-175.0,0
-12.0,-298.0,-54.0,-403.0,-237.0,-151.0,0
-6.0,-295.0,-53.0,-277.0,-257.0,-129.0,0
-6.0,-290.0,-56.0,-151.0,-280.0,-104.0,0
-2.0,-283.0,-54.0,-31.0,-298.0,-87.0,0
5.0,-277.0,-51.0,72.0,-308.0,-69.0,0
7.0,-268.0,-53.0,150.0,-312.0,-58.0,0
9.0,-261.0,-56.0,193.0,-308.0,-46.0,0
16.0,-256.0,-56.0,207.0,-299.0,-40.0,0
21.0,-247.0,-54.0,195.0,-286.0,-37.0,0
26.0,-242.0,-56.0,162.0,-262.0,-44.0,0
26.0,-241.0,-56.0,103.0,-226.0,-49.0,0
30.0,-237.0,-58.0,39.0,-190.0,-63.0,0
35.0,-236.0,-57.0,-33.0,-154.0,-75.0,0
34.0,-239.0,-61.0,-112.0,-119.0,-92.0,0
40.0,-237.0,-61.0,-188.0,-86.0,-104.0,0
39.0,-242.0,-62.0,-261.0,-51.0,-122.0,0
43.0,-247.0,-66.0,-324.0,-14.0,-132.0,0
41.0,-248.0,-67.0,-377.0,23.0,-142.0,0
39.0,-251.0,-73.0,-416.0,66.0,-145.0,0
37.0,-251.0,-79.0,-442.0,118.0,-150.0,0
32.0,-250.0,-88.0,-456.0,191.0,-146.0,0
29.0,-249.0,-103.0,-461.0,261.0,-140.0,0
25.0,-245.0,-109.0,-466.0,332.0,-129.0,0
24.0,-240.0,-118.0,-473.0,405.0,-122.0,0
21.0,-236.0,-121.0,-483.0,479.0,-103.0,0
22.0,-233.0,-121.0,-493.0,555.0,-83.0,0
23.0,-229.0,-121.0,-498.0,632.0,-55.0,0
27.0,-225.0,-123.0,-497.0,711.0,-25.0,0
32.0,-221.0,-119.0,-489.0,787.0,12.0,0
39.0,-216.0,-109.0,-472.0,860.0,39.0,0
44.0,-211.0,-99.0,-442.0,929.0,72.0,0
47.0,-209.0,-85.0,-395.0,1010.0,95.0,0
51.0,-209.0,-79.0,-349.0,1067.0,120.0,0
54.0,-211.0,-64.0,-303.0,1109.0,135.0,0
55.0,-215.0,-56.0,-266.0,1131.0,152.0,0
57.0,-221.0,-53.0,-234.0,1133.0,166.0,0
53.0,-225.0,-40.0,-213.0,1131.0,185.0,0
50.0,-237.0,-39.0,-204.0,1127.0,200.0,0
45.0,-248.0,-36.0,-204.0,1117.0,214.0,0
36.0,-253.0,-37.0,-217.0,1095.0,218.0,0
30.0,-263.0,-39.0,-242.0,1064.0,226.0,0
18.0,-270.0,-41.0,-281.0,1016.0,227.0,0
11.0,-280.0,-47.0,-320.0,967.0,233.0,0
-3.0,-287.0,-43.0,-356.0,916.0,233.0,0
1.0,-294.0,-39.0,-383.0,861.0,235.0,0
-16.0,-303.0,-42.0,-393.0,804.0,218.0,0
-24.0,-311.0,-42.0,-384.0,752.0,205.0,0
-33.0,-313.0,-39.0,-358.0,701.0,188.0,0
-42.0,-318.0,-39.0,-317.0,656.0,173.0,0
-49.0,-321.0,-39.0,-264.0,612.0,145.0,0
-57.0,-317.0,-40.0,-202.0,576.0,118.0,0
-59.0,-318.0,-35.0,-136.0,536.0,72.0,0
-62.0,-309.0,-34.0,-57.0,509.0,30.0,0
-64.0,-305.0,-37.0,3.0,488.0,-19.0,0
-54.0,-297.0,-42.0,54.0,467.0,-66.0,0
-52.0,-285.0,-42.0,87.0,448.0,-118.0,0
-48.0,-276.0,-44.0,102.0,433.0,-163.0,0
-43.0,-273.0,-54.0,101.0,417.0,-212.0,0
-39.0,-264.0,-53.0,86.0,401.0,-260.0,0
-33.0,-261.0,-52.0,64.0,383.0,-311.0,0
-30.0,-262.0,-54.0,48.0,366.0,-355.0,0
-27.0,-259.0,-52.0,36.0,347.0,-406.0,0
-24.0,-257.0,-46.0,42.0,325.0,-441.0,0
-22.0,-251.0,-43.0,63.0,305.0,-473.0,0
-13.0,-252.0,-39.0,95.0,289.0,-493.0,0
-11.0,-251.0,-46.0,138.0,278.0,-508.0,0
-10.0,-245.0,-41.0,186.0,273.0,-513.0,0
-2.0,-241.0,-44.0,232.0,273.0,-517.0,0
3.0,-238.0,-41.0,269.0,277.0,-517.0,0
6.0,-228.0,-42.0,292.0,285.0,-518.0,0
11.0,-229.0,-47.0,296.0,293.0,-513.0,0
13.0,-223.0,-42.0,285.0,299.0,-512.0,0
18.0,-218.0,-45.0,263.0,301.0,-506.0,0
15.0,-216.0,-39.0,220.0,295.0,-504.0,0
21.0,-216.0,-38.0,180.0,282.0,-499.0,0
19.0,-211.0,-29.0,137.0,264.0,-499.0,0
23.0,-212.0,-28.0,89.0,238.0,-495.0,0
23.0,-213.0,-24.0,43.0,207.0,-492.0,0
22.0,-213.0,-23.0,-3.0,172.0,-484.0,0
26.0,-213.0,-19.0,-46.0,135.0,-481.0,0
27.0,-217.0,-17.0,-84.0,101.0,-476.0,0
24.0,-220.0,-19.0,-116.0,75.0,-475.0,0
27.0,-223.0,-13.0,-141.0,54.0,-466.0,0
26.0,-228.0,-11.0,-160.0,30.0,-459.0,0
26.0,-232.0,-8.0,-165.0,14.0,-448.0,0
26.0,-237.0,-11.0,-163.0,-2.0,-437.0,0
28.0,-241.0,-8.0,-155.0,-13.0,-419.0,0
26.0,-248.0,-13.0,-140.0,-23.0,-401.0,0
30.0,-249.0,-13.0,-117.0,-31.0,-380.0,0
34.0,-250.0,-11.0,-84.0,-39.0,-368.0,0
28.0,-255.0,-13.0,-41.0,-56.0,-361.0,0
26.0,-260.0,-17.0,8.0,-67.0,-341.0,0
29.0,-260.0,-15.0,64.0,-83.0,-312.0,0
28.0,-263.0,-11.0,125.0,-115.0,-288.0,0
26.0,-262.0,-16.0,207.0,-152.0,-272.0,0
23.0,-260.0,-17.0,282.0,-190.0,-257.0,0
20.0,-260.0,-13.0,368.0,-229.0,-235.0,0
11.0,-258.0,-14.0,460.0,-268.0,-207.0,0
10.0,-254.0,-9.0,559.0,-300.0,-172.0,0
14.0,-251.0,-8.0,657.0,-326.0,-137.0,0
9.0,-246.0,-15.0,744.0,-343.0,-99.0,0
7.0,-237.0,-11.0,820.0,-348.0,-63.0,0
14.0,-232.0,-19.0,877.0,-340.0,-20.0,0
10.0,-224.0,-24.0,913.0,-327.0,20.0,0
12.0,-213.0,-30.0,914.0,-306.0,56.0,0
14.0,-206.0,-36.0,877.0,-284.0,90.0,0
14.0,-203.0,-36.0,816.0,-264.0,121.0,0
22.0,-199.0,-39.0,733.0,-241.0,145.0,0
23.0,-197.0,-40.0,637.0,-218.0,167.0,0
29.0,-204.0,-35.0,540.0,-191.0,175.0,0
38.0,-209.0,-29.0,445.0,-157.0,176.0,0
45.0,-216.0,-28.0,355.0,-119.0,165.0,0
51.0,-223.0,-18.0,273.0,-75.0,146.0,0
51.0,-233.0,-11.0,188.0,-32.0,98.0,0
57.0,-242.0,-8.0,85.0,16.0,46.0,0
62.0,-251.0,-5.0,1.0,50.0,-17.0,0
66.0,-260.0,2.0,-73.0,71.0,-77.0,0
65.0,-264.0,7.0,-136.0,79.0,-138.0,0
65.0,-270.0,10.0,-179.0,80.0,-187.0,0
64.0,-274.0,17.0,-199.0,78.0,-230.0,0
60.0,-277.0,16.0,-196.0,82.0,-259.0,0
52.0,-281.0,25.0,-172.0,89.0,-278.0,0
45.0,-288.0,25.0,-125.0,97.0,-282.0,0
34.0,-292.0,31.0,-54.0,103.0,-280.0,0
23.0,-297.0,22.0,35.0,100.0,-258.0,0
16.0,-303.0,21.0,165.0,95.0,-232.0,0
15.0,-307.0,3.0,267.0,91.0,-202.0,0
18.0,-307.0,-17.0,326.0,85.0,-182.0,0
20.0,-306.0,-40.0,309.0,75.0,-174.0,0
21.0,-304.0,-51.0,208.0,60.0,-181.0,0
18.0,-309.0,-55.0,43.0,32.0,-194.0,0
13.0,-317.0,-39.0,-139.0,3.0,-208.0,0
13.0,-328.0,-23.0,-287.0,-13.0,-221.0,0
18.0,-341.0,-8.0,-366.0,-7.0,-249.0,0
18.0,-357.0,1.0,-372.0,22.0,-296.0,0
22.0,-363.0,-3.0,-317.0,66.0,-344.0,0
26.0,-369.0,-14.0,-257.0,97.0,-392.0,0
35.0,-364.0,-30.0,-215.0,124.0,-436.0,0
50.0,-360.0,-50.0,-201.0,148.0,-475.0,0
60.0,-354.0,-59.0,-209.0,173.0,-510.0,0
71.0,-346.0,-72.0,-225.0,203.0,-538.0,0
75.0,-343.0,-73.0,-232.0,234.0,-556.0,0
76.0,-342.0,-74.0,-221.0,256.0,-559.0,0
73.0,-345.0,-69.0,-183.0,267.0,-558.0,0
64.0,-335.0,-75.0,-124.0,259.0,-544.0,0
59.0,-331.0,-72.0,-42.0,228.0,-519.0,0
52.0,-325.0,-73.0,69.0,190.0,-489.0,0
51.0,-321.0,-81.0,164.0,151.0,-455.0,0
48.0,-312.0,-87.0,252.0,121.0,-419.0,0
56.0,-306.0,-99.0,325.0,100.0,-383.0,0
40.0,-292.0,-99.0,379.0,82.0,-365.0,0
31.0,-276.0,-104.0,420.0,71.0,-348.0,0
24.0,-265.0,-107.0,452.0,59.0,-309.0,0
18.0,-251.0,-112.0,477.0,31.0,-264.0,0
19.0,-235.0,-117.0,488.0,-16.0,-217.0,0
19.0,-217.0,-123.0,481.0,-73.0,-164.0,0
25.0,-204.0,-131.0,447.0,-140.0,-119.0,0
29.0,-191.0,-141.0,391.0,-188.0,-83.0,0
34.0,-182.0,-140.0,318.0,-233.0,-53.0,0
31.0,-169.0,-130.0,234.0,-281.0,-28.0,0
26.0,-163.0,-124.0,159.0,-342.0,-3.0,0
20.0,-158.0,-116.0,110.0,-416.0,13.0,0
16.0,-151.0,-109.0,91.0,-493.0,25.0,0
10.0,-154.0,-93.0,99.0,-569.0,32.0,0
5.0,-156.0,-93.0,128.0,-629.0,43.0,0
3.0,-167.0,-92.0,158.0,-680.0,56.0,0
10.0,-176.0,-101.0,171.0,-736.0,62.0,0
16.0,-179.0,-106.0,148.0,-773.0,59.0,0
23.0,-187.0,-108.0,95.0,-784.0,60.0,0
27.0,-198.0,-114.0,25.0,-762.0,72.0,0
30.0,-210.0,-117.0,-52.0,-715.0,86.0,0
36.0,-217.0,-118.0,-128.0,-659.0,98.0,0
44.0,-227.0,-115.0,-197.0,-603.0,109.0,0
48.0,-239.0,-110.0,-252.0,-551.0,118.0,0
53.0,-251.0,-108.0,-286.0,-507.0,130.0,0
58.0,-258.0,-104.0,-303.0,-471.0,145.0,0
64.0,-266.0,-98.0,-303.0,-437.0,167.0,0
68.0,-275.0,-97.0,-278.0,-414.0,191.0,0
71.0,-284.0,-92.0,-242.0,-388.0,215.0,0
73.0,-289.0,-88.0,-193.0,-360.0,237.0,0
71.0,-286.0,-83.0,-133.0,-331.0,255.0,0
72.0,-282.0,-82.0,-59.0,-300.0,268.0,0
61.0,-277.0,-80.0,30.0,-276.0,274.0,0
58.0,-275.0,-79.0,123.0,-255.0,291.0,0
51.0,-269.0,-70.0,221.0,-242.0,307.0,0
46.0,-264.0,-72.0,317.0,-235.0,315.0,0
36.0,-255.0,-71.0,393.0,-233.0,327.0,0
34.0,-252.0,-75.0,456.0,-227.0,344.0,0
29.0,-245.0,-79.0,479.0,-221.0,354.0,0
27.0,-239.0,-81.0,474.0,-210.0,364.0,0
25.0,-233.0,-80.0,443.0,-193.0,372.0,0
26.0,-229.0,-80.0,395.0,-172.0,381.0,0
23.0,-227.0,-76.0,335.0,-149.0,390.0,0
25.0,-226.0,-73.0,268.0,-125.0,395.0,0
27.0,-223.0,-66.0,205.0,-99.0,403.0,0
30.0,-222.0,-62.0,143.0,-77.0,404.0,0
27.0,-222.0,-61.0,89.0,-58.0,403.0,0
34.0,-225.0,-56.0,41.0,-39.0,398.0,0
35.0,-222.0,-52.0,-12.0,-32.0,395.0,0
38.0,-223.0,-49.0,-49.0,-30.0,391.0,0
38.0,-227.0,-47.0,-80.0,-36.0,386.0,0
41.0,-228.0,-44.0,-101.0,-47.0,387.0,0
40.0,-225.0,-40.0,-119.0,-58.0,390.0,0
40.0,-226.0,-42.0,-129.0,-65.0,391.0,0
36.0,-224.0,-43.0,-140.0,-65.0,400.0,0
32.0,-225.0,-44.0,-146.0,-60.0,409.0,0
27.0,-228.0,-43.0,-155.0,-47.0,421.0,0
21.0,-228.0,-40.0,-162.0,-32.0,436.0,0
17.0,-230.0,-46.0,-173.0,-10.0,452.0,0
10.0,-230.0,-45.0,-183.0,8.0,467.0,0
8.0,-234.0,-46.0,-190.0,28.0,479.0,0
2.0,-236.0,-45.0,-195.0,50.0,488.0,0
-3.0,-236.0,-45.0,-196.0,74.0,497.0,0
-1.0,-241.0,-47.0,-194.0,104.0,505.0,0
-4.0,-240.0,-45.0,-187.0,135.0,509.0,0
-8.0,-241.0,-44.0,-177.0,166.0,506.0,0
-7.0,-241.0,-43.0,-159.0,195.0,500.0,0
-6.0,-241.0,-42.0,-137.0,223.0,491.0,0
-2.0,-242.0,-37.0,-107.0,251.0,477.0,0
2.0,-238.0,-37.0,-77.0,270.0,463.0,0
4.0,-235.0,-30.0,-51.0,290.0,451.0,0
8.0,-230.0,-33.0,-25.0,305.0,423.0,0
13.0,-228.0,-29.0,-2.0,313.0,388.0,0
12.0,-229.0,-25.0,22.0,326.0,356.0,0
12.0,-222.0,-24.0,44.0,334.0,324.0,0
15.0,-217.0,-22.0,64.0,340.0,294.0,0
11.0,-210.0,-18.0,80.0,340.0,253.0,0
9.0,-209.0,-19.0,93.0,338.0,214.0,0
8.0,-202.0,-15.0,99.0,335.0,174.0,0
3.0,-202.0,-14.0,99.0,335.0,142.0,0
0.0,-201.0,-18.0,89.0,335.0,112.0,0
-6.0,-197.0,-16.0,72.0,340.0,83.0,0
-5.0,-198.0,-16.0,48.0,350.0,55.0,0
-7.0,-200.0,-17.0,21.0,368.0,27.0,0
-11.0,-201.0,-18.0,-4.0,388.0,0.0,0
-11.0,-203.0,-17.0,-29.0,409.0,-25.0,0
-12.0,-207.0,-22.0,-51.0,434.0,-49.0,0
-11.0,-214.0,-25.0,-72.0,458.0,-71.0,0
-12.0,-219.0,-23.0,-95.0,482.0,-100.0,0
-11.0,-224.0,-21.0,-121.0,507.0,-120.0,0
-11.0,-231.0,-19.0,-135.0,519.0,-141.0,0
-11.0,-239.0,-9.0,-139.0,522.0,-158.0,0
-11.0,-243.0,-8.0,-134.0,514.0,-175.0,0
-12.0,-245.0,1.0,-113.0,493.0,-185.0,0
-15.0,-245.0,-2.0,-74.0,454.0,-188.0,0
-16.0,-243.0,1.0,-19.0,405.0,-184.0,0
-14.0,-244.0,-2.0,52.0,342.0,-175.0,0
-17.0,-242.0,-6.0,125.0,281.0,-162.0,0
-14.0,-240.0,-12.0,189.0,227.0,-149.0,0
-12.0,-238.0,-21.0,242.0,175.0,-135.0,0
-11.0,-236.0,-28.0,258.0,144.0,-123.0,0
-11.0,-238.0,-33.0,247.0,125.0,-111.0,0
-10.0,-240.0,-39.0,205.0,111.0,-99.0,0
-6.0,-243.0,-47.0,135.0,99.0,-84.0,0
-4.0,-243.0,-46.0,45.0,88.0,-73.0,0
0.0,-249.0,-47.0,-62.0,80.0,-58.0,0
3.0,-255.0,-46.0,-170.0,74.0,-42.0,0
1.0,-260.0,-37.0,-267.0,70.0,-21.0,0
6.0,-268.0,-30.0,-340.0,70.0,3.0,0
4.0,-276.0,-12.0,-378.0,70.0,34.0,0
6.0,-286.0,5.0,-371.0,69.0,59.0,0
11.0,-290.0,13.0,-326.0,68.0,84.0,0
12.0,-295.0,17.0,-255.0,70.0,106.0,0
17.0,-294.0,26.0,-166.0,69.0,134.0,0
21.0,-293.0,26.0,-75.0,61.0,152.0,0
20.0,-288.0,24.0,12.0,46.0,168.0,0
20.0,-282.0,17.0,83.0,28.0,183.0,0
19.0,-277.0,5.0,134.0,8.0,200.0,0
20.0,-272.0,-7.0,157.0,-11.0,213.0,0
18.0,-267.0,-23.0,138.0,-31.0,231.0,0
17.0,-261.0,-43.0,55.0,-34.0,242.0,0
15.0,-267.0,-56.0,-68.0,-25.0,253.0,0
12.0,-269.0,-64.0,-232.0,-7.0,259.0,0
10.0,-283.0,-64.0,-411.0,11.0,264.0,0
3.0,-301.0,-50.0,-563.0,23.0,266.0,0
-11.0,-318.0,-43.0,-659.0,22.0,278.0,0
-23.0,-332.0,-39.0,-688.0,5.0,298.0,0
-37.0,-342.0,-49.0,-669.0,-24.0,330.0,0
-48.0,-351.0,-57.0,-625.0,-64.0,368.0,0
-57.0,-355.0,-68.0,-573.0,-105.0,422.0,0
-59.0,-361.0,-82.0,-518.0,-140.0,470.0,0
-59.0,-361.0,-94.0,-483.0,-152.0,527.0,0
-52.0,-364.0,-98.0,-454.0,-145.0,583.0,0
-38.0,-366.0,-101.0,-425.0,-129.0,637.0,0
-26.0,-360.0,-108.0,-389.0,-106.0,679.0,0
-27.0,-354.0,-111.0,-342.0,-67.0,717.0,0
-19.0,-357.0,-113.0,-278.0,-22.0,748.0,0
-11.0,-356.0,-119.0,-204.0,8.0,769.0,0
-7.0,-349.0,-121.0,-113.0,16.0,757.0,0
2.0,-342.0,-128.0,-4.0,14.0,723.0,0
13.0,-332.0,-140.0,118.0,23.0,665.0,0
31.0,-320.0,-150.0,260.0,40.0,609.0,0
45.0,-301.0,-163.0,354.0,72.0,538.0,0
55.0,-280.0,-175.0,423.0,123.0,460.0,0
61.0,-264.0,-176.0,467.0,194.0,377.0,0
69.0,-246.0,-174.0,492.0,282.0,297.0,0
66.0,-224.0,-168.0,507.0,381.0,219.0,0
62.0,-205.0,-162.0,520.0,484.0,152.0,0
52.0,-192.0,-150.0,539.0,583.0,100.0,0
46.0,-174.0,-140.0,560.0,668.0,67.0,0
37.0,-162.0,-131.0,578.0,734.0,46.0,0
27.0,-154.0,-120.0,593.0,792.0,47.0,0
20.0,-149.0,-119.0,589.0,822.0,54.0,0
15.0,-145.0,-109.0,565.0,838.0,72.0,0
8.0,-144.0,-105.0,513.0,836.0,87.0,0
3.0,-152.0,-93.0,431.0,822.0,109.0,0
0.0,-158.0,-92.0,329.0,797.0,122.0,0
-5.0,-169.0,-86.0,209.0,764.0,139.0,0
-11.0,-185.0,-83.0,90.0,723.0,150.0,0
-14.0,-196.0,-79.0,-23.0,672.0,158.0,0
-17.0,-210.0,-77.0,-128.0,612.0,157.0,0
-26.0,-221.0,-76.0,-243.0,536.0,153.0,0
-29.0,-238.0,-80.0,-326.0,472.0,135.0,0
-33.0,-252.0,-87.0,-399.0,410.0,114.0,0
-37.0,-263.0,-95.0,-460.0,355.0,82.0,0
-41.0,-272.0,-98.0,-509.0,308.0,46.0,0
-44.0,-282.0,-103.0,-541.0,268.0,2.0,0
-46.0,-289.0,-100.0,-550.0,234.0,-38.0,0
-49.0,-293.0,-96.0,-535.0,204.0,-82.0,0
-44.0,-295.0,-96.0,-490.0,179.0,-114.0,0
-45.0,-299.0,-94.0,-414.0,162.0,-146.0,0
-44.0,-301.0,-83.0,-301.0,149.0,-173.0,0
-38.0,-302.0,-81.0,-125.0,145.0,-194.0,0
-35.0,-300.0,-78.0,39.0,144.0,-211.0,0
-30.0,-294.0,-81.0,203.0,138.0,-232.0,0
-26.0,-287.0,-82.0,347.0,130.0,-250.0,0
-19.0,-284.0,-84.0,464.0,117.0,-271.0,0
-13.0,-274.0,-88.0,549.0,97.0,-288.0,0
-9.0,-267.0,-90.0,606.0,76.0,-306.0,0
-2.0,-259.0,-87.0,641.0,56.0,-319.0,0
2.0,-254.0,-87.0,655.0,34.0,-329.0,0
5.0,-245.0,-86.0,650.0,12.0,-334.0,0
9.0,-236.0,-83.0,624.0,-12.0,-337.0,0
10.0,-235.0,-82.0,588.0,-26.0,-333.0,0
11.0,-233.0,-78.0,545.0,-34.0,-330.0,0
11.0,-227.0,-73.0,497.0,-36.0,-323.0,0
13.0,-225.0,-66.0,448.0,-35.0,-318.0,0
10.0,-224.0,-64.0,400.0,-33.0,-309.0,0
8.0,-221.0,-58.0,353.0,-32.0,-305.0,0
3.0,-221.0,-51.0,313.0,-33.0,-295.0,0
5.0,-219.0,-50.0,279.0,-34.0,-292.0,0
2.0,-215.0,-49.0,249.0,-37.0,-286.0,0
2.0,-210.0,-47.0,224.0,-40.0,-285.0,0
2.0,-204.0,-39.0,199.0,-44.0,-282.0,0
4.0,-208.0,-43.0,178.0,-49.0,-288.0,0
5.0,-202.0,-41.0,157.0,-52.0,-294.0,0
6.0,-200.0,-38.0,133.0,-58.0,-306.0,0
11.0,-200.0,-36.0,101.0,-67.0,-317.0,0
12.0,-198.0,-35.0,63.0,-77.0,-334.0,0
15.0,-200.0,-36.0,24.0,-85.0,-344.0,0
19.0,-205.0,-29.0,-19.0,-93.0,-356.0,0
23.0,-207.0,-34.0,-64.0,-95.0,-365.0,0
25.0,-214.0,-32.0,-105.0,-99.0,-375.0,0
26.0,-217.0,-29.0,-149.0,-96.0,-377.0,0
24.0,-224.0,-26.0,-173.0,-94.0,-380.0,0
26.0,-228.0,-22.0,-189.0,-93.0,-380.0,0
25.0,-229.0,-29.0,-193.0,-94.0,-379.0,0
24.0,-231.0,-22.0,-184.0,-98.0,-374.0,0
21.0,-236.0,-25.0,-164.0,-107.0,-370.0,0
20.0,-237.0,-17.0,-137.0,-117.0,-358.0,0
14.0,-232.0,-22.0,-100.0,-129.0,-350.0,0
12.0,-232.0,-18.0,-63.0,-144.0,-331.0,0
11.0,-228.0,-20.0,-21.0,-158.0,-314.0,0
11.0,-226.0,-18.0,24.0,-179.0,-287.0,0
1.0,-220.0,-17.0,55.0,-203.0,-279.0,0
1.0,-218.0,-14.0,75.0,-223.0,-252.0,0
-1.0,-213.0,-15.0,86.0,-237.0,-218.0,0
0.0,-211.0,-12.0,90.0,-256.0,-190.0,0
-5.0,-204.0,-17.0,86.0,-278.0,-176.0,0
-5.0,-205.0,-11.0,77.0,-296.0,-154.0,0
-11.0,-203.0,-8.0,64.0,-315.0,-136.0,0
-11.0,-199.0,-8.0,51.0,-339.0,-117.0,0
-12.0,-198.0,-8.0,41.0,-364.0,-101.0,0
-13.0,-197.0,-5.0,32.0,-398.0,-78.0,0
-12.0,-201.0,-4.0,22.0,-428.0,-63.0,0
-12.0,-203.0,-9.0,13.0,-461.0,-44.0,0
-14.0,-210.0,-8.0,3.0,-492.0,-26.0,0
-14.0,-215.0,-8.0,-13.0,-525.0,0.0,0
-14.0,-228.0,-13.0,-31.0,-557.0,20.0,0
-11.0,-234.0,-7.0,-48.0,-588.0,42.0,0
-11.0,-241.0,-11.0,-61.0,-613.0,52.0,0
-10.0,-246.0,-15.0,-68.0,-628.0,63.0,0
-9.0,-251.0,-19.0,-61.0,-636.0,64.0,0
-12.0,-249.0,-28.0,-47.0,-646.0,65.0,0
-12.0,-248.0,-42.0,-34.0,-669.0,60.0,0
-11.0,-244.0,-55.0,-41.0,-690.0,61.0,0
-5.0,-244.0,-60.0,-67.0,-700.0,61.0,0
5.0,-246.0,-63.0,-108.0,-689.0,63.0,0
13.0,-247.0,-63.0,-157.0,-655.0,52.0,0
15.0,-249.0,-63.0,-208.0,-601.0,38.0,0
24.0,-256.0,-52.0,-249.0,-537.0,13.0,0
30.0,-265.0,-45.0,-278.0,-474.0,-6.0,0
33.0,-274.0,-38.0,-296.0,-417.0,-32.0,0
44.0,-283.0,-32.0,-309.0,-367.0,-54.0,0
50.0,-291.0,-23.0,-317.0,-308.0,-91.0,0
52.0,-297.0,-21.0,-312.0,-257.0,-120.0,0
63.0,-301.0,-18.0,-290.0,-208.0,-157.0,0
64.0,-304.0,-17.0,-256.0,-159.0,-192.0,0
69.0,-307.0,-13.0,-215.0,-116.0,-233.0,0
70.0,-310.0,-13.0,-172.0,-84.0,-273.0,0
63.0,-306.0,-14.0,-123.0,-63.0,-312.0,0
57.0,-306.0,-20.0,-69.0,-51.0,-332.0,0
51.0,-298.0,-36.0,-20.0,-50.0,-352.0,0
49.0,-290.0,-44.0,15.0,-50.0,-364.0,0
48.0,-288.0,-52.0,31.0,-39.0,-378.0,0
45.0,-284.0,-54.0,27.0,-8.0,-384.0,0
43.0,-283.0,-53.0,17.0,34.0,-393.0,0
40.0,-280.0,-44.0,14.0,88.0,-404.0,0
36.0,-286.0,-36.0,22.0,150.0,-427.0,0
35.0,-282.0,-30.0,43.0,205.0,-446.0,0
36.0,-286.0,-29.0,67.0,250.0,-466.0,0
39.0,-288.0,-25.0,83.0,283.0,-478.0,0
42.0,-288.0,-28.0,80.0,310.0,-492.0,0
50.0,-291.0,-30.0,55.0,332.0,-493.0,0
56.0,-294.0,-34.0,10.0,355.0,-496.0,0
62.0,-297.0,-31.0,-49.0,372.0,-495.0,0
68.0,-304.0,-31.0,-117.0,376.0,-501.0,0
70.0,-308.0,-25.0,-164.0,373.0,-503.0,0
74.0,-312.0,-22.0,-194.0,362.0,-509.0,0
74.0,-311.0,-26.0,-202.0,345.0,-508.0,0
72.0,-313.0,-27.0,-191.0,324.0,-507.0,0
67.0,-312.0,-30.0,-158.0,306.0,-491.0,0
58.0,-305.0,-41.0,-106.0,294.0,-468.0,0
50.0,-297.0,-48.0,-39.0,293.0,-426.0,0
45.0,-291.0,-55.0,34.0,297.0,-378.0,0
40.0,-280.0,-63.0,109.0,306.0,-312.0,0
35.0,-272.0,-71.0,187.0,309.0,-263.0,0
34.0,-263.0,-79.0,234.0,305.0,-216.0,0
24.0,-253.0,-87.0,266.0,295.0,-183.0,0
21.0,-247.0,-94.0,280.0,293.0,-120.0,0
20.0,-240.0,-97.0,271.0,283.0,-60.0,0
19.0,-239.0,-96.0,236.0,260.0,-8.0,0
23.0,-244.0,-97.0,178.0,226.0,25.0,0
19.0,-243.0,-101.0,108.0,192.0,58.0,0
24.0,-248.0,-99.0,46.0,166.0,83.0,0
24.0,-254.0,-94.0,-5.0,150.0,103.0,0
28.0,-258.0,-92.0,-40.0,150.0,105.0,0
33.0,-259.0,-95.0,-47.0,163.0,103.0,0
38.0,-260.0,-96.0,-42.0,181.0,86.0,0
40.0,-259.0,-101.0,-22.0,197.0,64.0,0
41.0,-256.0,-100.0,7.0,206.0,30.0,0
38.0,-243.0,-103.0,45.0,209.0,-4.0,0
38.0,-236.0,-109.0,96.0,208.0,-50.0,0
36.0,-222.0,-113.0,150.0,196.0,-97.0,0
33.0,-215.0,-114.0,210.0,181.0,-147.0,0
27.0,-197.0,-116.0,269.0,161.0,-189.0,0
21.0,-186.0,-116.0,331.0,143.0,-235.0,0
15.0,-175.0,-120.0,372.0,133.0,-260.0,0
4.0,-163.0,-115.0,396.0,129.0,-279.0,0
3.0,-163.0,-114.0,391.0,129.0,-280.0,0
2.0,-162.0,-111.0,354.0,129.0,-276.0,0
6.0,-167.0,-110.0,282.0,127.0,-268.0,0
7.0,-173.0,-100.0,180.0,124.0,-271.0,0
9.0,-186.0,-92.0,66.0,125.0,-259.0,0
8.0,-203.0,-81.0,-46.0,128.0,-241.0,0
12.0,-218.0,-74.0,-157.0,137.0,-209.0,0
16.0,-236.0,-67.0,-257.0,141.0,-169.0,0
18.0,-256.0,-58.0,-354.0,142.0,-123.0,0
21.0,-270.0,-57.0,-409.0,143.0,-74.0,0
24.0,-284.0,-54.0,-440.0,142.0,-17.0,0
27.0,-294.0,-57.0,-446.0,142.0,41.0,0
32.0,-304.0,-60.0,-435.0,140.0,100.0,0
35.0,-310.0,-62.0,-408.0,133.0,152.0,0
40.0,-310.0,-64.0,-367.0,126.0,207.0,0
40.0,-307.0,-78.0,-311.0,120.0,255.0,0
41.0,-303.0,-76.0,-243.0,114.0,304.0,0
35.0,-294.0,-85.0,-161.0,107.0,347.0,0
34.0,-285.0,-82.0,-53.0,107.0,393.0,0
35.0,-281.0,-84.0,44.0,110.0,434.0,0
34.0,-274.0,-81.0,143.0,112.0,464.0,0
34.0,-269.0,-78.0,236.0,113.0,482.0,0
38.0,-262.0,-75.0,316.0,118.0,497.0,0
36.0,-258.0,-71.0,379.0,123.0,506.0,0
38.0,-253.0,-61.0,424.0,138.0,515.0,0
37.0,-248.0,-57.0,454.0,154.0,516.0,0
37.0,-246.0,-53.0,470.0,168.0,516.0,0
35.0,-243.0,-50.0,477.0,178.0,508.0,0
31.0,-240.0,-50.0,470.0,181.0,500.0,0
27.0,-236.0,-47.0,448.0,178.0,488.0,0
24.0,-234.0,-44.0,414.0,175.0,479.0,0
20.0,-232.0,-43.0,365.0,166.0,468.0,0
14.0,-230.0,-47.0,308.0,157.0,461.0,0
12.0,-229.0,-47.0,243.0,149.0,452.0,0
10.0,-228.0,-45.0,175.0,145.0,448.0,0
10.0,-229.0,-43.0,109.0,146.0,442.0,0
5.0,-228.0,-43.0,49.0,154.0,438.0,0
1.0,-225.0,-39.0,-3.0,165.0,430.0,0
0.0,-224.0,-38.0,-48.0,181.0,425.0,0
1.0,-226.0,-33.0,-86.0,194.0,417.0,0
-5.0,-223.0,-34.0,-107.0,205.0,412.0,0
-4.0,-222.0,-35.0,-122.0,214.0,404.0,0
-5.0,-224.0,-31.0,-130.0,219.0,398.0,0
-8.0,-223.0,-33.0,-135.0,221.0,389.0,0
-6.0,-224.0,-32.0,-139.0,219.0,383.0,0
-7.0,-219.0,-36.0,-146.0,211.0,369.0,0
-11.0,-220.0,-33.0,-156.0,202.0,356.0,0
-8.0,-221.0,-37.0,-171.0,190.0,343.0,0
-7.0,-223.0,-35.0,-192.0,179.0,333.0,0
-10.0,-222.0,-40.0,-227.0,168.0,322.0,0
-8.0,-225.0,-37.0,-265.0,165.0,315.0,0
-10.0,-228.0,-42.0,-304.0,162.0,300.0,0
-11.0,-227.0,-39.0,-341.0,165.0,288.0,0
-12.0,-235.0,-41.0,-366.0,174.0,274.0,0
-10.0,-237.0,-39.0,-378.0,184.0,263.0,0
-11.0,-241.0,-38.0,-376.0,196.0,245.0,0
-10.0,-243.0,-37.0,-360.0,208.0,229.0,0
-11.0,-245.0,-37.0,-328.0,219.0,207.0,0
-12.0,-247.0,-36.0,-285.0,232.0,187.0,0
-17.0,-243.0,-28.0,-221.0,247.0,157.0,0
-9.0,-251.0,-32.0,-163.0,256.0,135.0,0
-9.0,-251.0,-28.0,-103.0,261.0,108.0,0
-11.0,-245.0,-27.0,-45.0,265.0,85.0,0
-11.0,-247.0,-27.0,10.0,267.0,65.0,0
-9.0,-244.0,-31.0,57.0,269.0,49.0,0
-7.0,-239.0,-23.0,98.0,272.0,31.0,0
-8.0,-240.0,-23.0,131.0,276.0,16.0,0
-7.0,-237.0,-20.0,157.0,282.0,-2.0,0
-7.0,-235.0,-19.0,181.0,287.0,-14.0,0
-6.0,-232.0,-15.0,200.0,296.0,-34.0,0
-3.0,-227.0,-15.0,220.0,302.0,-48.0,0
-1.0,-227.0,-13.0,232.0,310.0,-69.0,0
2.0,-227.0,-8.0,246.0,316.0,-88.0,0
3.0,-232.0,-9.0,253.0,323.0,-114.0,0
4.0,-228.0,-11.0,259.0,328.0,-137.0,0
7.0,-230.0,-11.0,257.0,331.0,-162.0,0
4.0,-227.0,-18.0,251.0,329.0,-186.0,0
5.0,-226.0,-26.0,232.0,323.0,-210.0,0
1.0,-230.0,-24.0,201.0,304.0,-226.0,0
1.0,-230.0,-25.0,162.0,273.0,-244.0,0
-2.0,-230.0,-26.0,115.0,219.0,-250.0,0
-8.0,-233.0,-25.0,79.0,164.0,-251.0,0
-10.0,-231.0,-25.0,54.0,105.0,-244.0,0
-10.0,-237.0,-23.0,38.0,46.0,-236.0,0
-12.0,-234.0,-30.0,23.0,-13.0,-223.0,0
-13.0,-237.0,-31.0,9.0,-60.0,-205.0,0
-12.0,-235.0,-32.0,-15.0,-96.0,-175.0,0
-14.0,-236.0,-32.0,-50.0,-119.0,-138.0,0
-20.0,-241.0,-29.0,-89.0,-131.0,-94.0,0
-13.0,-244.0,-29.0,-128.0,-135.0,-46.0,0
-14.0,-246.0,-25.0,-168.0,-135.0,-8.0,0
-9.0,-250.0,-27.0,-195.0,-132.0,22.0,0
-7.0,-258.0,-21.0,-218.0,-132.0,50.0,0
-2.0,-259.0,-16.0,-238.0,-134.0,72.0,0
-3.0,-263.0,-14.0,-255.0,-144.0,94.0,0
2.0,-266.0,-15.0,-268.0,-157.0,110.0,0
6.0,-273.0,-12.0,-276.0,-167.0,128.0,0
8.0,-273.0,-11.0,-278.0,-171.0,142.0,0
14.0,-274.0,-14.0,-273.0,-163.0,154.0,0
20.0,-274.0,-14.0,-262.0,-148.0,162.0,0
22.0,-276.0,-14.0,-248.0,-113.0,174.0,0
28.0,-276.0,-14.0,-234.0,-74.0,184.0,0
31.0,-280.0,-24.0,-230.0,-30.0,195.0,0
41.0,-284.0,-28.0,-243.0,19.0,202.0,0
39.0,-283.0,-33.0,-272.0,67.0,209.0,0
41.0,-289.0,-28.0,-315.0,105.0,212.0,0
40.0,-293.0,-42.0,-366.0,137.0,222.0,0
37.0,-299.0,-48.0,-419.0,155.0,233.0,0
31.0,-306.0,-54.0,-470.0,168.0,250.0,0
18.0,-309.0,-60.0,-519.0,176.0,263.0,0
11.0,-313.0,-65.0,-566.0,188.0,283.0,0
0.0,-319.0,-71.0,-609.0,202.0,297.0,0
-9.0,-319.0,-70.0,-625.0,217.0,313.0,0
-12.0,-323.0,-63.0,-611.0,230.0,328.0,0
-15.0,-325.0,-57.0,-561.0,240.0,348.0,0
-18.0,-328.0,-48.0,-476.0,250.0,370.0,0
-24.0,-328.0,-39.0,-363.0,256.0,397.0,0
-24.0,-327.0,-31.0,-230.0,258.0,421.0,0
-30.0,-324.0,-25.0,-91.0,252.0,447.0,0
-30.0,-319.0,-28.0,42.0,239.0,465.0,0
-31.0,-309.0,-27.0,159.0,220.0,480.0,0
-28.0,-301.0,-36.0,266.0,200.0,479.0,0
-27.0,-290.0,-41.0,325.0,186.0,469.0,0
-29.0,-281.0,-52.0,355.0,179.0,455.0,0
-12.0,-268.0,-59.0,355.0,178.0,444.0,0
-4.0,-258.0,-64.0,328.0,178.0,414.0,0
0.0,-248.0,-78.0,275.0,182.0,375.0,0
5.0,-244.0,-77.0,203.0,194.0,333.0,0
12.0,-239.0,-80.0,122.0,213.0,293.0,0
11.0,-236.0,-80.0,39.0,234.0,249.0,0
15.0,-236.0,-83.0,-39.0,253.0,203.0,0
13.0,-233.0,-84.0,-119.0,282.0,165.0,0
7.0,-237.0,-84.0,-173.0,310.0,137.0,0
5.0,-240.0,-85.0,-217.0,340.0,116.0,0
0.0,-246.0,-88.0,-249.0,368.0,106.0,0
2.0,-248.0,-91.0,-268.0,394.0,99.0,0
3.0,-251.0,-96.0,-274.0,420.0,99.0,0
1.0,-254.0,-103.0,-273.0,441.0,105.0,0
4.0,-253.0,-107.0,-268.0,460.0,118.0,0
4.0,-253.0,-107.0,-257.0,475.0,134.0,0
6.0,-254.0,-108.0,-241.0,491.0,159.0,0
6.0,-247.0,-115.0,-220.0,504.0,191.0,0
8.0,-247.0,-112.0,-183.0,508.0,212.0,0
8.0,-242.0,-113.0,-143.0,507.0,234.0,0
6.0,-236.0,-113.0,-94.0,507.0,258.0,0
8.0,-232.0,-114.0,-38.0,499.0,281.0,0
6.0,-227.0,-119.0,15.0,486.0,301.0,0
3.0,-219.0,-119.0,65.0,471.0,320.0,0
3.0,-209.0,-119.0,103.0,451.0,336.0,0
2.0,-202.0,-115.0,130.0,434.0,346.0,0
4.0,-198.0,-113.0,150.0,419.0,356.0,0
2.0,-193.0,-111.0,159.0,407.0,362.0,0
2.0,-192.0,-111.0,150.0,398.0,365.0,0
1.0,-189.0,-104.0,125.0,394.0,366.0,0
2.0,-192.0,-107.0,83.0,391.0,362.0,0
3.0,-195.0,-101.0,26.0,392.0,353.0,0
-1.0,-199.0,-98.0,-43.0,393.0,340.0,0
-2.0,-208.0,-91.0,-114.0,392.0,322.0,0
-1.0,-216.0,-84.0,-188.0,393.0,302.0,0
-4.0,-229.0,-80.0,-261.0,392.0,277.0,0
-7.0,-238.0,-77.0,-322.0,389.0,248.0,0
-8.0,-253.0,-72.0,-372.0,383.0,208.0,0
-10.0,-262.0,-72.0,-414.0,370.0,173.0,0
-9.0,-275.0,-68.0,-433.0,356.0,137.0,0
-11.0,-287.0,-70.0,-437.0,343.0,100.0,0
-12.0,-295.0,-66.0,-430.0,327.0,64.0,0
-12.0,-297.0,-73.0,-408.0,313.0,30.0,0
-12.0,-299.0,-74.0,-378.0,302.0,-5.0,0
-12.0,-298.0,-76.0,-337.0,293.0,-36.0,0
-14.0,-294.0,-79.0,-287.0,287.0,-68.0,0
-12.0,-291.0,-81.0,-226.0,280.0,-95.0,0
-14.0,-287.0,-79.0,-151.0,272.0,-121.0,0
-11.0,-282.0,-84.0,-67.0,263.0,-153.0,0
-12.0,-277.0,-81.0,32.0,253.0,-178.0,0
-17.0,-270.0,-78.0,112.0,244.0,-200.0,0
-19.0,-267.0,-73.0,181.0,232.0,-219.0,0
-22.0,-262.0,-70.0,236.0,216.0,-236.0,0
-24.0,-258.0,-67.0,275.0,197.0,-252.0,0
-27.0,-252.0,-58.0,292.0,174.0,-266.0,0
-30.0,-247.0,-58.0,292.0,152.0,-276.0,0
-32.0,-240.0,-57.0,276.0,129.0,-285.0,0
-31.0,-236.0,-61.0,246.0,112.0,-291.0,0
-24.0,-233.0,-58.0,205.0,100.0,-297.0,0
-23.0,-227.0,-59.0,140.0,102.0,-301.0,0
-15.0,-224.0,-63.0,68.0,113.0,-305.0,0
-13.0,-220.0,-66.0,-19.0,125.0,-304.0,0
-10.0,-217.0,-67.0,-117.0,144.0,-305.0,0
-4.0,-216.0,-62.0,-223.0,157.0,-305.0,0
2.0,-214.0,-64.0,-330.0,165.0,-309.0,0
7.0,-218.0,-62.0,-429.0,168.0,-313.0,0
13.0,-224.0,-57.0,-511.0,164.0,-322.0,0
13.0,-228.0,-55.0,-568.0,154.0,-334.0,0
16.0,-231.0,-55.0,-600.0,137.0,-354.0,0
17.0,-234.0,-54.0,-609.0,114.0,-372.0,0
16.0,-240.0,-50.0,-597.0,95.0,-393.0,0
16.0,-239.0,-50.0,-576.0,74.0,-412.0,0
14.0,-245.0,-55.0,-555.0,55.0,-436.0,0
12.0,-243.0,-54.0,-532.0,34.0,-454.0,0
10.0,-244.0,-53.0,-508.0,14.0,-474.0,0
2.0,-245.0,-55.0,-482.0,-6.0,-491.0,0
-3.0,-245.0,-52.0,-451.0,-28.0,-505.0,0
-5.0,-249.0,-55.0,-416.0,-48.0,-517.0,0
-12.0,-248.0,-53.0,-371.0,-71.0,-528.0,0
-14.0,-251.0,-51.0,-319.0,-100.0,-534.0,0
-22.0,-251.0,-52.0,-251.0,-125.0,-538.0,0
-23.0,-251.0,-52.0,-195.0,-149.0,-534.0,0
-23.0,-251.0,-60.0,-140.0,-176.0,-531.0,0
-29.0,-247.0,-63.0,-94.0,-204.0,-523.0,0
-28.0,-245.0,-64.0,-54.0,-231.0,-511.0,0
-29.0,-242.0,-61.0,-23.0,-267.0,-490.0,0
-27.0,-239.0,-60.0,5.0,-310.0,-467.0,0
-24.0,-237.0,-60.0,38.0,-347.0,-445.0,0
-20.0,-234.0,-57.0,75.0,-373.0,-428.0,0
-17.0,-229.0,-53.0,115.0,-400.0,-410.0,0
-13.0,-227.0,-51.0,165.0,-428.0,-394.0,0
-12.0,-222.0,-44.0,204.0,-463.0,-370.0,0
-12.0,-219.0,-37.0,235.0,-499.0,-346.0,0
-11.0,-219.0,-40.0,257.0,-533.0,-318.0,0
-10.0,-216.0,-39.0,273.0,-564.0,-291.0,0
-8.0,-213.0,-34.0,277.0,-587.0,-264.0,0
-8.0,-210.0,-33.0,273.0,-609.0,-239.0,0
-4.0,-207.0,-31.0,256.0,-625.0,-212.0,0
-4.0,-206.0,-27.0,231.0,-639.0,-186.0,0
1.0,-206.0,-31.0,200.0,-648.0,-153.0,0
0.0,-205.0,-27.0,166.0,-652.0,-127.0,0
3.0,-207.0,-25.0,144.0,-653.0,-100.0,0
4.0,-207.0,-21.0,132.0,-653.0,-75.0,0
10.0,-213.0,-25.0,127.0,-650.0,-49.0,0
12.0,-215.0,-25.0,126.0,-649.0,-26.0,0
19.0,-222.0,-21.0,131.0,-651.0,-2.0,0
18.0,-226.0,-16.0,140.0,-653.0,20.0,0
24.0,-229.0,-25.0,150.0,-658.0,43.0,0
28.0,-237.0,-22.0,165.0,-664.0,62.0,0
30.0,-243.0,-27.0,181.0,-667.0,79.0,0
35.0,-250.0,-32.0,194.0,-662.0,89.0,0
40.0,-254.0,-35.0,207.0,-646.0,88.0,0
39.0,-254.0,-45.0,218.0,-622.0,76.0,0
42.0,-257.0,-41.0,229.0,-590.0,60.0,0
42.0,-255.0,-48.0,241.0,-552.0,34.0,0
41.0,-257.0,-46.0,252.0,-511.0,4.0,0
42.0,-257.0,-48.0,264.0,-467.0,-33.0,0
42.0,-258.0,-44.0,269.0,-425.0,-66.0,0
42.0,-261.0,-46.0,269.0,-380.0,-103.0,0
39.0,-262.0,-45.0,260.0,-336.0,-140.0,0
34.0,-263.0,-32.0,244.0,-299.0,-187.0,0
30.0,-265.0,-33.0,222.0,-269.0,-220.0,0
24.0,-265.0,-27.0,206.0,-255.0,-255.0,0
23.0,-266.0,-22.0,194.0,-249.0,-275.0,0
22.0,-268.0,-25.0,188.0,-243.0,-289.0,0
21.0,-267.0,-23.0,182.0,-239.0,-305.0,0
24.0,-266.0,-20.0,179.0,-223.0,-320.0,0
22.0,-267.0,-18.0,169.0,-200.0,-322.0,0
24.0,-270.0,-16.0,155.0,-174.0,-331.0,0
27.0,-266.0,-11.0,138.0,-151.0,-342.0,0
20.0,-263.0,-9.0,120.0,-139.0,-364.0,0
16.0,-262.0,-10.0,103.0,-126.0,-366.0,0
21.0,-262.0,-14.0,91.0,-119.0,-371.0,0
22.0,-265.0,-15.0,85.0,-119.0,-378.0,0
22.0,-263.0,-23.0,78.0,-118.0,-398.0,0
25.0,-263.0,-33.0,67.0,-112.0,-412.0,0
24.0,-264.0,-42.0,40.0,-97.0,-422.0,0
32.0,-267.0,-51.0,-4.0,-86.0,-429.0,0
22.0,-266.0,-56.0,-60.0,-83.0,-440.0,0
30.0,-275.0,-55.0,-114.0,-75.0,-435.0,0
38.0,-283.0,-60.0,-165.0,-49.0,-427.0,0
51.0,-290.0,-67.0,-206.0,5.0,-430.0,0
64.0,-299.0,-74.0,-249.0,65.0,-449.0,0
80.0,-306.0,-77.0,-287.0,126.0,-472.0,0
90.0,-314.0,-79.0,-329.0,180.0,-504.0,0
103.0,-322.0,-80.0,-372.0,226.0,-531.0,0
110.0,-328.0,-72.0,-406.0,266.0,-559.0,0
115.0,-338.0,-76.0,-423.0,302.0,-584.0,0
114.0,-340.0,-69.0,-420.0,337.0,-615.0,0
108.0,-347.0,-60.0,-392.0,369.0,-639.0,0
99.0,-351.0,-54.0,-333.0,394.0,-665.0,0
97.0,-356.0,-49.0,-243.0,412.0,-685.0,0
64.0,-350.0,-46.0,-102.0,416.0,-709.0,0
52.0,-349.0,-51.0,40.0,418.0,-695.0,0
41.0,-342.0,-60.0,185.0,414.0,-664.0,0
25.0,-329.0,-70.0,319.0,405.0,-622.0,0
14.0,-323.0,-81.0,429.0,394.0,-578.0,0
-3.0,-305.0,-95.0,508.0,375.0,-523.0,0
-11.0,-286.0,-101.0,553.0,350.0,-455.0,0
-20.0,-272.0,-112.0,566.0,324.0,-371.0,0
-26.0,-257.0,-119.0,552.0,292.0,-292.0,0
-31.0,-241.0,-121.0,520.0,252.0,-211.0,0
-32.0,-232.0,-120.0,470.0,191.0,-128.0,0
-28.0,-224.0,-115.0,421.0,130.0,-63.0,0
-21.0,-217.0,-115.0,367.0,65.0,-18.0,0
-13.0,-208.0,-110.0,309.0,-2.0,16.0,0
2.0,-211.0,-109.0,245.0,-69.0,28.0,0
15.0,-210.0,-108.0,178.0,-128.0,28.0,0
25.0,-207.0,-108.0,109.0,-175.0,13.0,0
34.0,-206.0,-104.0,50.0,-212.0,-11.0,0
44.0,-208.0,-103.0,4.0,-243.0,-44.0,0
49.0,-206.0,-102.0,-28.0,-272.0,-79.0,0
54.0,-206.0,-106.0,-45.0,-304.0,-128.0,0
57.0,-207.0,-109.0,-54.0,-317.0,-169.0,0
57.0,-205.0,-115.0,-64.0,-319.0,-211.0,0
57.0,-201.0,-120.0,-75.0,-310.0,-244.0,0
56.0,-197.0,-126.0,-89.0,-288.0,-276.0,0
56.0,-191.0,-126.0,-97.0,-256.0,-295.0,0
52.0,-190.0,-126.0,-98.0,-217.0,-306.0,0
51.0,-184.0,-131.0,-85.0,-170.0,-303.0,0
46.0,-182.0,-125.0,-64.0,-127.0,-296.0,0
42.0,-183.0,-117.0,-44.0,-91.0,-277.0,0
41.0,-186.0,-120.0,-31.0,-68.0,-249.0,0
40.0,-190.0,-120.0,-37.0,-62.0,-219.0,0
40.0,-200.0,-112.0,-59.0,-63.0,-192.0,0
40.0,-208.0,-105.0,-87.0,-66.0,-154.0,0
41.0,-213.0,-99.0,-113.0,-70.0,-114.0,0
39.0,-225.0,-93.0,-142.0,-71.0,-64.0,0
41.0,-239.0,-88.0,-168.0,-69.0,-13.0,0
42.0,-256.0,-80.0,-186.0,-64.0,50.0,0
39.0,-263.0,-86.0,-200.0,-54.0,111.0,0
40.0,-277.0,-81.0,-214.0,-40.0,179.0,0
36.0,-284.0,-84.0,-227.0,-27.0,256.0,0
36.0,-289.0,-88.0,-237.0,-12.0,323.0,0
32.0,-294.0,-90.0,-236.0,2.0,379.0,0
24.0,-286.0,-93.0,-222.0,18.0,434.0,0
20.0,-288.0,-90.0,-185.0,35.0,467.0,0
21.0,-288.0,-90.0,-134.0,56.0,508.0,0
18.0,-287.0,-88.0,-65.0,77.0,533.0,0
24.0,-277.0,-85.0,17.0,95.0,547.0,0
25.0,-274.0,-90.0,107.0,118.0,544.0,0
30.0,-268.0,-91.0,187.0,142.0,549.0,0
33.0,-263.0,-88.0,255.0,165.0,536.0,0
33.0,-256.0,-88.0,314.0,186.0,520.0,0
32.0,-253.0,-84.0,350.0,192.0,495.0,0
31.0,-246.0,-79.0,373.0,188.0,469.0,0
33.0,-244.0,-74.0,388.0,178.0,432.0,0
27.0,-235.0,-74.0,392.0,160.0,399.0,0
27.0,-231.0,-68.0,393.0,134.0,356.0,0
21.0,-232.0,-65.0,392.0,106.0,319.0,0
16.0,-228.0,-60.0,387.0,80.0,278.0,0
15.0,-227.0,-59.0,382.0,55.0,248.0,0
9.0,-224.0,-57.0,374.0,31.0,217.0,0
9.0,-220.0,-57.0,363.0,7.0,193.0,0
1.0,-219.0,-61.0,338.0,-8.0,172.0,0
-7.0,-214.0,-57.0,313.0,-23.0,156.0,0
-11.0,-213.0,-57.0,283.0,-31.0,141.0,0
-11.0,-210.0,-49.0,256.0,-34.0,137.0,0
-15.0,-209.0,-51.0,228.0,-33.0,124.0,0
-20.0,-207.0,-45.0,206.0,-34.0,122.0,0
-23.0,-202.0,-41.0,186.0,-35.0,116.0,0
-29.0,-203.0,-37.0,169.0,-40.0,115.0,0
-31.0,-202.0,-34.0,152.0,-50.0,111.0,0
-31.0,-205.0,-35.0,130.0,-66.0,113.0,0
-29.0,-204.0,-33.0,96.0,-94.0,107.0,0
-28.0,-203.0,-27.0,56.0,-126.0,103.0,0
-21.0,-210.0,-34.0,8.0,-160.0,93.0,0
-20.0,-211.0,-33.0,-50.0,-191.0,87.0,0
-13.0,-219.0,-38.0,-108.0,-215.0,75.0,0
-11.0,-218.0,-36.0,-166.0,-236.0,67.0,0
-11.0,-225.0,-35.0,-222.0,-252.0,52.0,0
-2.0,-233.0,-37.0,-274.0,-263.0,39.0,0
-4.0,-241.0,-34.0,-318.0,-268.0,16.0,0
-2.0,-248.0,-33.0,-356.0,-269.0,4.0,0
1.0,-255.0,-32.0,-387.0,-267.0,-10.0,0
7.0,-260.0,-33.0,-394.0,-259.0,-25.0,0
14.0,-269.0,-31.0,-382.0,-247.0,-44.0,0
10.0,-268.0,-29.0,-348.0,-231.0,-63.0,0
17.0,-271.0,-27.0,-300.0,-211.0,-75.0,0
18.0,-276.0,-25.0,-236.0,-187.0,-85.0,0
21.0,-281.0,-23.0,-157.0,-167.0,-101.0,0
21.0,-273.0,-19.0,-71.0,-148.0,-110.0,0
22.0,-273.0,-20.0,19.0,-132.0,-123.0,0
25.0,-268.0,-20.0,105.0,-121.0,-131.0,0
24.0,-265.0,-14.0,178.0,-113.0,-145.0,0
22.0,-258.0,-15.0,247.0,-111.0,-151.0,0
22.0,-253.0,-17.0,291.0,-115.0,-161.0,0
24.0,-248.0,-14.0,324.0,-122.0,-168.0,0
19.0,-242.0,-17.0,346.0,-129.0,-174.0,0
20.0,-239.0,-15.0,355.0,-135.0,-173.0,0
19.0,-232.0,-19.0,353.0,-137.0,-176.0,0
25.0,-232.0,-14.0,346.0,-133.0,-171.0,0
26.0,-232.0,-16.0,328.0,-123.0,-168.0,0
24.0,-242.0,-37.0,306.0,-109.0,-159.0,0
16.0,-235.0,-27.0,279.0,-98.0,-153.0,0
18.0,-236.0,-27.0,243.0,-86.0,-143.0,0
12.0,-235.0,-33.0,209.0,-82.0,-134.0,0
9.0,-235.0,-36.0,172.0,-84.0,-119.0,0
7.0,-238.0,-38.0,132.0,-101.0,-103.0,0
4.0,-234.0,-29.0,92.0,-126.0,-79.0,0
4.0,-237.0,-32.0,52.0,-161.0,-57.0,0
3.0,-238.0,-27.0,23.0,-197.0,-28.0,0
4.0,-239.0,-21.0,11.0,-231.0,-1.0,0
5.0,-242.0,-17.0,17.0,-258.0,37.0,0
3.0,-241.0,-14.0,38.0,-276.0,74.0,0
8.0,-245.0,-13.0,68.0,-286.0,125.0,0
7.0,-248.0,-12.0,101.0,-283.0,166.0,0
9.0,-246.0,-17.0,118.0,-275.0,213.0,0
6.0,-243.0,-20.0,117.0,-262.0,253.0,0
13.0,-246.0,-26.0,97.0,-244.0,296.0,0
13.0,-247.0,-38.0,56.0,-218.0,337.0,0
18.0,-249.0,-47.0,-4.0,-186.0,382.0,0
24.0,-249.0,-52.0,-76.0,-142.0,414.0,0
29.0,-254.0,-51.0,-147.0,-94.0,446.0,0
30.0,-258.0,-53.0,-210.0,-45.0,466.0,0
33.0,-261.0,-51.0,-259.0,18.0,494.0,0
38.0,-267.0,-53.0,-296.0,74.0,509.0,0
33.0,-272.0,-51.0,-305.0,134.0,529.0,0
45.0,-282.0,-51.0,-300.0,195.0,557.0,0
48.0,-290.0,-50.0,-287.0,243.0,575.0,0
52.0,-299.0,-51.0,-269.0,281.0,584.0,0
56.0,-306.0,-53.0,-246.0,320.0,600.0,0
59.0,-307.0,-54.0,-225.0,362.0,614.0,0
61.0,-316.0,-53.0,-208.0,408.0,632.0,0
62.0,-322.0,-56.0,-193.0,453.0,646.0,0
60.0,-327.0,-58.0,-174.0,498.0,664.0,0
61.0,-335.0,-63.0,-142.0,547.0,669.0,0
53.0,-342.0,-68.0,-104.0,586.0,671.0,0
50.0,-352.0,-67.0,-56.0,618.0,663.0,0
37.0,-351.0,-75.0,1.0,647.0,657.0,0
23.0,-356.0,-74.0,67.0,673.0,649.0,0
12.0,-352.0,-88.0,142.0,692.0,644.0,0
0.0,-354.0,-90.0,228.0,704.0,630.0,0
-11.0,-344.0,-98.0,323.0,711.0,615.0,0
-13.0,-338.0,-103.0,420.0,710.0,593.0,0
-21.0,-327.0,-110.0,512.0,707.0,573.0,0
-27.0,-324.0,-111.0,611.0,701.0,554.0,0
-22.0,-315.0,-112.0,680.0,696.0,540.0,0
-21.0,-307.0,-109.0,734.0,694.0,522.0,0
-18.0,-300.0,-106.0,772.0,696.0,507.0,0
-13.0,-290.0,-103.0,797.0,699.0,490.0,0
-15.0,-283.0,-95.0,806.0,703.0,480.0,0
-12.0,-275.0,-91.0,811.0,704.0,469.0,0
-7.0,-269.0,-84.0,808.0,694.0,462.0,0
-6.0,-260.0,-86.0,810.0,682.0,450.0,0
-21.0,-249.0,-80.0,814.0,665.0,440.0,0
-3.0,-237.0,-85.0,814.0,658.0,448.0,0
-3.0,-226.0,-88.0,820.0,644.0,432.0,0
-2.0,-211.0,-90.0,814.0,632.0,394.0,0
1.0,-200.0,-100.0,790.0,627.0,358.0,0
-1.0,-191.0,-104.0,750.0,631.0,322.0,0
2.0,-182.0,-110.0,690.0,634.0,286.0,0
0.0,-176.0,-105.0,613.0,638.0,244.0,0
2.0,-172.0,-105.0,519.0,637.0,201.0,0
0.0,-172.0,-104.0,413.0,638.0,153.0,0
-4.0,-172.0,-95.0,307.0,637.0,119.0,0
-2.0,-175.0,-84.0,212.0,638.0,88.0,0
-1.0,-186.0,-73.0,131.0,635.0,71.0,0
2.0,-190.0,-63.0,92.0,629.0,57.0,0
8.0,-199.0,-56.0,78.0,623.0,48.0,0
9.0,-204.0,-52.0,80.0,611.0,37.0,0
11.0,-210.0,-47.0,93.0,595.0,27.0,0
10.0,-219.0,-44.0,109.0,575.0,15.0,0
8.0,-224.0,-44.0,123.0,552.0,5.0,0
8.0,-234.0,-49.0,130.0,517.0,-10.0,0
5.0,-239.0,-45.0,130.0,476.0,-25.0,0
7.0,-250.0,-55.0,121.0,427.0,-53.0,0
4.0,-254.0,-58.0,97.0,372.0,-76.0,0
10.0,-261.0,-61.0,68.0,330.0,-101.0,0
7.0,-268.0,-67.0,34.0,294.0,-123.0,0
5.0,-275.0,-66.0,2.0,263.0,-146.0,0
4.0,-283.0,-71.0,-20.0,243.0,-165.0,0
4.0,-292.0,-69.0,-23.0,230.0,-185.0,0
0.0,-299.0,-63.0,4.0,222.0,-199.0,0
-4.0,-306.0,-63.0,56.0,218.0,-213.0,0
-5.0,-310.0,-55.0,135.0,214.0,-220.0,0
-8.0,-313.0,-54.0,238.0,209.0,-226.0,0
-9.0,-311.0,-46.0,395.0,201.0,-225.0,0
-10.0,-309.0,-42.0,540.0,191.0,-226.0,0
-8.0,-304.0,-42.0,687.0,179.0,-220.0,0
-5.0,-298.0,-39.0,825.0,163.0,-217.0,0
-1.0,-290.0,-41.0,936.0,143.0,-214.0,0
0.0,-277.0,-46.0,1017.0,121.0,-212.0,0
1.0,-266.0,-51.0,1067.0,98.0,-214.0,0
5.0,-260.0,-49.0,1086.0,79.0,-219.0,0
4.0,-252.0,-47.0,1083.0,66.0,-222.0,0
7.0,-244.0,-48.0,1062.0,59.0,-229.0,0
9.0,-242.0,-46.0,1030.0,58.0,-235.0,0
11.0,-232.0,-44.0,986.0,63.0,-241.0,0
14.0,-229.0,-37.0,951.0,74.0,-245.0,0
15.0,-226.0,-28.0,914.0,90.0,-251.0,0
20.0,-224.0,-26.0,878.0,113.0,-253.0,0
23.0,-222.0,-22.0,840.0,139.0,-256.0,0
23.0,-218.0,-14.0,809.0,168.0,-256.0,0
28.0,-215.0,-10.0,778.0,193.0,-260.0,0
31.0,-211.0,-6.0,743.0,217.0,-259.0,0
33.0,-209.0,-8.0,703.0,237.0,-261.0,0
36.0,-208.0,-9.0,655.0,257.0,-259.0,0
38.0,-206.0,-10.0,589.0,265.0,-257.0,0
42.0,-203.0,-13.0,528.0,267.0,-250.0,0
39.0,-205.0,-11.0,468.0,266.0,-252.0,0
41.0,-206.0,-12.0,410.0,261.0,-249.0,0
42.0,-212.0,-9.0,350.0,252.0,-247.0,0
39.0,-214.0,-4.0,296.0,243.0,-243.0,0
36.0,-222.0,-6.0,250.0,232.0,-244.0,0
31.0,-223.0,4.0,210.0,217.0,-244.0,0
27.0,-233.0,4.0,182.0,196.0,-249.0,0
25.0,-237.0,7.0,161.0,171.0,-251.0,0
13.0,-240.0,9.0,144.0,133.0,-253.0,0
8.0,-244.0,8.0,135.0,99.0,-253.0,0
1.0,-247.0,9.0,132.0,67.0,-256.0,0
-8.0,-246.0,8.0,134.0,36.0,-257.0,0
-11.0,-247.0,8.0,136.0,6.0,-260.0,0
-12.0,-247.0,6.0,132.0,-24.0,-263.0,0
-16.0,-247.0,8.0,124.0,-51.0,-270.0,0
-19.0,-244.0,11.0,113.0,-74.0,-262.0,0
-19.0,-246.0,8.0,97.0,-98.0,-260.0,0
-19.0,-246.0,12.0,78.0,-124.0,-260.0,0
-20.0,-247.0,16.0,53.0,-157.0,-264.0,0
-19.0,-247.0,18.0,34.0,-182.0,-269.0,0
-15.0,-247.0,30.0,19.0,-209.0,-273.0,0
-16.0,-241.0,31.0,12.0,-236.0,-275.0,0
-14.0,-245.0,35.0,16.0,-267.0,-279.0,0
-11.0,-242.0,37.0,28.0,-298.0,-278.0,0
-7.0,-236.0,37.0,44.0,-325.0,-276.0,0
-1.0,-232.0,36.0,57.0,-347.0,-271.0,0
2.0,-228.0,33.0,57.0,-363.0,-264.0,0
6.0,-225.0,33.0,40.0,-376.0,-250.0,0
11.0,-216.0,28.0,-6.0,-387.0,-234.0,0
14.0,-221.0,27.0,-64.0,-391.0,-217.0,0
16.0,-221.0,28.0,-131.0,-396.0,-199.0,0
19.0,-224.0,27.0,-205.0,-404.0,-181.0,0
23.0,-226.0,27.0,-272.0,-411.0,-164.0,0
25.0,-228.0,30.0,-332.0,-417.0,-147.0,0
26.0,-232.0,21.0,-379.0,-422.0,-134.0,0
32.0,-237.0,31.0,-411.0,-422.0,-119.0,0
35.0,-242.0,28.0,-426.0,-418.0,-107.0,0
39.0,-246.0,28.0,-427.0,-409.0,-93.0,0
42.0,-248.0,27.0,-406.0,-392.0,-82.0,0
46.0,-251.0,32.0,-378.0,-374.0,-70.0,0
43.0,-252.0,28.0,-347.0,-354.0,-61.0,0
46.0,-256.0,31.0,-309.0,-332.0,-52.0,0
48.0,-258.0,31.0,-272.0,-311.0,-41.0,0
43.0,-258.0,28.0,-237.0,-295.0,-29.0,0
45.0,-255.0,23.0,-205.0,-281.0,-17.0,0
42.0,-260.0,25.0,-174.0,-267.0,-4.0,0
41.0,-258.0,23.0,-147.0,-257.0,9.0,0
43.0,-261.0,24.0,-122.0,-253.0,23.0,0
37.0,-261.0,21.0,-98.0,-251.0,39.0,0
37.0,-262.0,25.0,-71.0,-251.0,52.0,0
32.0,-256.0,24.0,-47.0,-254.0,65.0,0
32.0,-258.0,24.0,-21.0,-255.0,77.0,0
28.0,-254.0,20.0,5.0,-253.0,86.0,0
26.0,-248.0,20.0,31.0,-244.0,91.0,0
27.0,-249.0,22.0,52.0,-230.0,92.0,0
26.0,-248.0,22.0,66.0,-212.0,91.0,0
30.0,-244.0,19.0,71.0,-192.0,86.0,0
31.0,-240.0,22.0,69.0,-172.0,81.0,0
32.0,-237.0,23.0,58.0,-151.0,71.0,0
32.0,-238.0,22.0,33.0,-135.0,59.0,0
34.0,-235.0,20.0,5.0,-119.0,50.0,0
37.0,-235.0,20.0,-28.0,-105.0,38.0,0
34.0,-232.0,19.0,-69.0,-92.0,27.0,0
39.0,-234.0,17.0,-111.0,-82.0,17.0,0
37.0,-231.0,15.0,-152.0,-76.0,10.0,0
40.0,-236.0,17.0,-190.0,-70.0,2.0,0
41.0,-237.0,17.0,-226.0,-65.0,-3.0,0
40.0,-239.0,16.0,-252.0,-61.0,-6.0,0
39.0,-245.0,18.0,-273.0,-61.0,-8.0,0
38.0,-247.0,21.0,-288.0,-69.0,-8.0,0
36.0,-247.0,20.0,-294.0,-78.0,-6.0,0
36.0,-249.0,19.0,-297.0,-91.0,-5.0,0
35.0,-253.0,17.0,-301.0,-105.0,-4.0,0
34.0,-256.0,13.0,-310.0,-120.0,-4.0,0
28.0,-258.0,8.0,-323.0,-137.0,-5.0,0
23.0,-260.0,4.0,-338.0,-154.0,-15.0,0
19.0,-265.0,3.0,-352.0,-163.0,-18.0,0
22.0,-270.0,3.0,-364.0,-166.0,-17.0,0
19.0,-273.0,1.0,-371.0,-168.0,-27.0,0
16.0,-275.0,2.0,-372.0,-171.0,-42.0,0
10.0,-273.0,6.0,-361.0,-170.0,-55.0,0
12.0,-272.0,7.0,-339.0,-165.0,-66.0,0
15.0,-270.0,11.0,-309.0,-158.0,-79.0,0
19.0,-266.0,12.0,-268.0,-148.0,-93.0,0
25.0,-263.0,16.0,-217.0,-134.0,-102.0,0
33.0,-259.0,17.0,-154.0,-121.0,-105.0,0
36.0,-254.0,20.0,-92.0,-107.0,-105.0,0
40.0,-248.0,18.0,-43.0,-94.0,-105.0,0
39.0,-242.0,13.0,-18.0,-88.0,-103.0,0
44.0,-240.0,8.0,-29.0,-85.0,-102.0,0
51.0,-233.0,5.0,-77.0,-90.0,-102.0,0
49.0,-233.0,-3.0,-147.0,-96.0,-105.0,0
51.0,-235.0,-3.0,-242.0,-104.0,-112.0,0
52.0,-241.0,-7.0,-341.0,-109.0,-126.0,0
52.0,-243.0,-4.0,-436.0,-108.0,-134.0,0
52.0,-252.0,-6.0,-517.0,-104.0,-146.0,0
57.0,-258.0,-2.0,-580.0,-93.0,-157.0,0
57.0,-263.0,-3.0,-618.0,-77.0,-167.0,0
57.0,-268.0,-1.0,-628.0,-54.0,-174.0,0
60.0,-272.0,3.0,-607.0,-19.0,-182.0,0
59.0,-279.0,6.0,-568.0,10.0,-185.0,0
61.0,-282.0,-1.0,-522.0,37.0,-192.0,0
60.0,-285.0,1.0,-474.0,59.0,-194.0,0
62.0,-286.0,-6.0,-432.0,75.0,-199.0,0
60.0,-284.0,-7.0,-396.0,85.0,-204.0,0
70.0,-285.0,-6.0,-365.0,91.0,-210.0,0
53.0,-287.0,-6.0,-332.0,85.0,-228.0,0
52.0,-287.0,-1.0,-297.0,82.0,-227.0,0
47.0,-285.0,7.0,-255.0,77.0,-215.0,0
39.0,-282.0,7.0,-193.0,59.0,-208.0,0
31.0,-278.0,8.0,-135.0,38.0,-196.0,0
28.0,-275.0,14.0,-72.0,19.0,-174.0,0
22.0,-270.0,16.0,-9.0,1.0,-151.0,0
19.0,-264.0,16.0,51.0,-13.0,-130.0,0
17.0,-259.0,19.0,100.0,-21.0,-105.0,0
16.0,-252.0,18.0,135.0,-22.0,-85.0,0
15.0,-246.0,18.0,155.0,-13.0,-60.0,0
12.0,-240.0,15.0,163.0,-3.0,-40.0,0
12.0,-235.0,17.0,157.0,6.0,-22.0,0
8.0,-231.0,13.0,140.0,14.0,-3.0,0
7.0,-224.0,10.0,106.0,15.0,13.0,0
10.0,-221.0,7.0,62.0,15.0,24.0,0
8.0,-218.0,-4.0,2.0,12.0,34.0,0
13.0,-219.0,-11.0,-75.0,6.0,39.0,0
13.0,-217.0,-25.0,-172.0,-4.0,44.0,0
13.0,-222.0,-32.0,-287.0,-21.0,46.0,0
19.0,-226.0,-41.0,-419.0,-44.0,48.0,0
21.0,-234.0,-46.0,-562.0,-73.0,46.0,0
21.0,-243.0,-58.0,-695.0,-101.0,43.0,0
29.0,-249.0,-63.0,-809.0,-132.0,39.0,0
27.0,-257.0,-67.0,-901.0,-150.0,35.0,0
20.0,-261.0,-67.0,-937.0,-158.0,33.0,0
22.0,-268.0,-69.0,-937.0,-160.0,37.0,0
18.0,-274.0,-69.0,-901.0,-157.0,38.0,0
