ax,ay,az,gx,gy,gz,label
1.0,-292.0,-51.0,168.0,459.0,107.0,0
-5.0,-295.0,-46.0,209.0,463.0,98.0,0
-7.0,-296.0,-40.0,256.0,467.0,86.0,0
-16.0,-304.0,-44.0,312.0,465.0,76.0,0
-24.0,-306.0,-42.0,363.0,456.0,67.0,0
-28.0,-306.0,-44.0,406.0,437.0,60.0,0
-32.0,-304.0,-44.0,453.0,407.0,47.0,0
-34.0,-300.0,-46.0,502.0,376.0,35.0,0
-35.0,-302.0,-41.0,554.0,344.0,22.0,0
-40.0,-291.0,-46.0,604.0,308.0,1.0,0
-44.0,-282.0,-41.0,637.0,277.0,-20.0,0
-45.0,-274.0,-43.0,655.0,245.0,-42.0,0
-39.0,-269.0,-41.0,660.0,211.0,-67.0,0
-37.0,-264.0,-42.0,648.0,182.0,-90.0,0
-37.0,-255.0,-42.0,625.0,158.0,-119.0,0
-37.0,-250.0,-44.0,595.0,134.0,-144.0,0
-36.0,-245.0,-33.0,559.0,107.0,-167.0,0
-36.0,-234.0,-37.0,522.0,75.0,-188.0,0
-31.0,-231.0,-39.0,486.0,37.0,-207.0,0
-25.0,-227.0,-45.0,446.0,6.0,-228.0,0
-27.0,-224.0,-49.0,406.0,-23.0,-236.0,0
-22.0,-224.0,-45.0,358.0,-48.0,-233.0,0
-17.0,-220.0,-47.0,317.0,-73.0,-243.0,0
-13.0,-218.0,-47.0,285.0,-92.0,-250.0,0
-12.0,-219.0,-51.0,255.0,-101.0,-250.0,0
-2.0,-222.0,-48.0,228.0,-99.0,-245.0,0
4.0,-223.0,-47.0,205.0,-92.0,-242.0,0
1.0,-222.0,-49.0,185.0,-81.0,-236.0,0
3.0,-219.0,-43.0,169.0,-66.0,-228.0,0
12.0,-223.0,-38.0,152.0,-53.0,-222.0,0
13.0,-225.0,-33.0,137.0,-39.0,-215.0,0
13.0,-227.0,-28.0,121.0,-30.0,-212.0,0
14.0,-229.0,-29.0,105.0,-27.0,-209.0,0
8.0,-230.0,-28.0,90.0,-28.0,-207.0,0
6.0,-233.0,-21.0,75.0,-34.0,-204.0,0
5.0,-240.0,-25.0,59.0,-41.0,-201.0,0
5.0,-244.0,-26.0,44.0,-47.0,-201.0,0
-3.0,-246.0,-30.0,33.0,-52.0,-200.0,0
1.0,-255.0,-19.0,22.0,-52.0,-202.0,0
2.0,-254.0,-14.0,12.0,-47.0,-208.0,0
4.0,-259.0,-12.0,9.0,-40.0,-216.0,0
4.0,-262.0,-6.0,12.0,-26.0,-227.0,0
4.0,-266.0,-6.0,18.0,-10.0,-235.0,0
7.0,-270.0,5.0,29.0,-1.0,-244.0,0
1.0,-269.0,1.0,43.0,4.0,-249.0,0
-1.0,-272.0,1.0,65.0,7.0,-250.0,0
0.0,-267.0,4.0,95.0,8.0,-250.0,0
0.0,-267.0,-1.0,122.0,6.0,-247.0,0
1.0,-263.0,-3.0,142.0,2.0,-246.0,0
-1.0,-260.0,-6.0,157.0,-4.0,-243.0,0
-5.0,-253.0,-6.0,162.0,-11.0,-239.0,0
-7.0,-252.0,-4.0,159.0,-17.0,-235.0,0
-9.0,-245.0,-8.0,150.0,-22.0,-227.0,0
-13.0,-240.0,-8.0,140.0,-24.0,-218.0,0
-14.0,-240.0,-3.0,121.0,-28.0,-212.0,0
-16.0,-236.0,-7.0,106.0,-35.0,-207.0,0
-16.0,-234.0,-5.0,92.0,-43.0,-207.0,0
-16.0,-231.0,2.0,79.0,-51.0,-207.0,0
-20.0,-237.0,-5.0,64.0,-57.0,-203.0,0
-20.0,-226.0,3.0,45.0,-66.0,-204.0,0
-16.0,-226.0,-3.0,27.0,-72.0,-202.0,0
-18.0,-226.0,4.0,12.0,-78.0,-200.0,0
-18.0,-226.0,6.0,-4.0,-85.0,-197.0,0
-17.0,-226.0,4.0,-23.0,-95.0,-191.0,0
-16.0,-227.0,7.0,-40.0,-104.0,-187.0,0
-19.0,-227.0,7.0,-55.0,-118.0,-181.0,0
-17.0,-228.0,13.0,-72.0,-136.0,-170.0,0
-17.0,-238.0,11.0,-84.0,-160.0,-160.0,0
-20.0,-238.0,10.0,-95.0,-191.0,-150.0,0
-22.0,-243.0,27.0,-102.0,-227.0,-137.0,0
-27.0,-253.0,19.0,-104.0,-266.0,-124.0,0
-26.0,-256.0,20.0,-101.0,-309.0,-110.0,0
-27.0,-260.0,20.0,-94.0,-352.0,-97.0,0
-31.0,-259.0,21.0,-83.0,-393.0,-86.0,0
-28.0,-263.0,18.0,-71.0,-430.0,-71.0,0
-26.0,-265.0,19.0,-58.0,-462.0,-54.0,0
-23.0,-264.0,20.0,-47.0,-487.0,-42.0,0
-19.0,-264.0,14.0,-39.0,-500.0,-29.0,0
-13.0,-269.0,13.0,-33.0,-506.0,-13.0,0
-9.0,-273.0,14.0,-28.0,-506.0,2.0,0
-2.0,-271.0,9.0,-25.0,-505.0,10.0,0
1.0,-274.0,7.0,-26.0,-502.0,16.0,0
7.0,-275.0,3.0,-21.0,-501.0,16.0,0
9.0,-274.0,7.0,-14.0,-506.0,13.0,0
16.0,-276.0,9.0,-5.0,-514.0,6.0,0
20.0,-276.0,10.0,13.0,-523.0,-4.0,0
22.0,-275.0,10.0,34.0,-533.0,-16.0,0
30.0,-274.0,5.0,57.0,-538.0,-30.0,0
30.0,-272.0,9.0,74.0,-539.0,-52.0,0
28.0,-274.0,8.0,89.0,-530.0,-70.0,0
32.0,-267.0,-6.0,100.0,-511.0,-84.0,0
34.0,-265.0,4.0,104.0,-496.0,-105.0,0
30.0,-259.0,1.0,95.0,-479.0,-128.0,0
37.0,-258.0,3.0,85.0,-455.0,-153.0,0
32.0,-252.0,1.0,76.0,-432.0,-194.0,0
29.0,-249.0,2.0,60.0,-421.0,-212.0,0
31.0,-241.0,5.0,41.0,-412.0,-230.0,0
26.0,-238.0,7.0,17.0,-415.0,-249.0,0
25.0,-235.0,11.0,-8.0,-418.0,-256.0,0
26.0,-238.0,15.0,-37.0,-421.0,-256.0,0
30.0,-238.0,15.0,-68.0,-427.0,-251.0,0
22.0,-249.0,23.0,-98.0,-430.0,-247.0,0
21.0,-256.0,19.0,-131.0,-441.0,-232.0,0
28.0,-268.0,13.0,-168.0,-450.0,-218.0,0
21.0,-280.0,15.0,-206.0,-453.0,-208.0,0
16.0,-286.0,16.0,-226.0,-462.0,-204.0,0
17.0,-300.0,11.0,-224.0,-473.0,-207.0,0
12.0,-307.0,5.0,-225.0,-481.0,-212.0,0
12.0,-314.0,-1.0,-235.0,-480.0,-221.0,0
17.0,-316.0,-2.0,-247.0,-474.0,-238.0,0
15.0,-316.0,-8.0,-254.0,-458.0,-267.0,0
25.0,-318.0,-11.0,-257.0,-430.0,-296.0,0
23.0,-312.0,-23.0,-257.0,-389.0,-333.0,0
35.0,-314.0,-27.0,-264.0,-343.0,-377.0,0
38.0,-308.0,-28.0,-276.0,-302.0,-422.0,0
37.0,-303.0,-28.0,-287.0,-265.0,-469.0,0
40.0,-295.0,-30.0,-304.0,-239.0,-507.0,0
38.0,-287.0,-28.0,-317.0,-227.0,-542.0,0
40.0,-279.0,-21.0,-325.0,-226.0,-574.0,0
36.0,-273.0,-17.0,-328.0,-235.0,-598.0,0
33.0,-273.0,-11.0,-329.0,-246.0,-617.0,0
33.0,-270.0,-6.0,-329.0,-252.0,-627.0,0
32.0,-273.0,-1.0,-328.0,-252.0,-625.0,0
29.0,-272.0,-6.0,-321.0,-249.0,-617.0,0
31.0,-276.0,1.0,-303.0,-243.0,-594.0,0
37.0,-278.0,-3.0,-280.0,-236.0,-559.0,0
30.0,-280.0,-1.0,-255.0,-234.0,-535.0,0
27.0,-279.0,-7.0,-228.0,-236.0,-509.0,0
28.0,-274.0,-10.0,-201.0,-245.0,-477.0,0
29.0,-272.0,-15.0,-179.0,-251.0,-432.0,0
32.0,-269.0,-19.0,-164.0,-252.0,-382.0,0
34.0,-265.0,-21.0,-152.0,-251.0,-336.0,0
34.0,-260.0,-22.0,-146.0,-251.0,-290.0,0
37.0,-263.0,-29.0,-149.0,-248.0,-250.0,0
42.0,-259.0,-26.0,-151.0,-250.0,-219.0,0
45.0,-262.0,-32.0,-146.0,-251.0,-195.0,0
43.0,-258.0,-31.0,-139.0,-249.0,-174.0,0
45.0,-261.0,-36.0,-133.0,-247.0,-157.0,0
42.0,-258.0,-36.0,-134.0,-243.0,-143.0,0
43.0,-266.0,-37.0,-143.0,-239.0,-133.0,0
36.0,-267.0,-43.0,-154.0,-240.0,-125.0,0
31.0,-270.0,-41.0,-163.0,-244.0,-119.0,0
31.0,-272.0,-43.0,-160.0,-248.0,-115.0,0
24.0,-277.0,-43.0,-148.0,-251.0,-114.0,0
17.0,-279.0,-46.0,-129.0,-256.0,-112.0,0
12.0,-273.0,-49.0,-104.0,-267.0,-111.0,0
10.0,-268.0,-51.0,-73.0,-283.0,-110.0,0
5.0,-266.0,-56.0,-38.0,-297.0,-107.0,0
2.0,-266.0,-65.0,-5.0,-308.0,-103.0,0
-2.0,-262.0,-68.0,25.0,-318.0,-101.0,0
-5.0,-258.0,-70.0,44.0,-327.0,-98.0,0
-3.0,-250.0,-76.0,58.0,-334.0,-96.0,0
-3.0,-248.0,-80.0,70.0,-340.0,-96.0,0
-1.0,-246.0,-86.0,65.0,-345.0,-97.0,0
4.0,-235.0,-85.0,55.0,-344.0,-97.0,0
3.0,-242.0,-87.0,42.0,-338.0,-99.0,0
8.0,-232.0,-84.0,24.0,-334.0,-102.0,0
8.0,-234.0,-84.0,6.0,-336.0,-109.0,0
7.0,-231.0,-84.0,-11.0,-349.0,-112.0,0
4.0,-230.0,-83.0,-30.0,-375.0,-112.0,0
4.0,-235.0,-80.0,-47.0,-407.0,-110.0,0
4.0,-234.0,-73.0,-59.0,-442.0,-107.0,0
0.0,-239.0,-73.0,-62.0,-475.0,-100.0,0
7.0,-247.0,-61.0,-54.0,-498.0,-87.0,0
4.0,-247.0,-56.0,-35.0,-509.0,-81.0,0
0.0,-256.0,-54.0,-15.0,-511.0,-70.0,0
11.0,-268.0,-42.0,9.0,-504.0,-49.0,0
3.0,-273.0,-46.0,32.0,-484.0,-28.0,0
1.0,-285.0,-42.0,56.0,-459.0,-5.0,0
3.0,-292.0,-38.0,80.0,-435.0,24.0,0
7.0,-297.0,-36.0,109.0,-412.0,59.0,0
7.0,-301.0,-35.0,147.0,-386.0,95.0,0
10.0,-307.0,-31.0,192.0,-360.0,129.0,0
11.0,-306.0,-32.0,242.0,-338.0,167.0,0
17.0,-306.0,-32.0,283.0,-315.0,204.0,0
17.0,-303.0,-34.0,324.0,-295.0,239.0,0
25.0,-296.0,-27.0,358.0,-274.0,269.0,0
29.0,-285.0,-35.0,384.0,-253.0,290.0,0
31.0,-282.0,-28.0,397.0,-232.0,306.0,0
32.0,-274.0,-28.0,392.0,-216.0,327.0,0
38.0,-270.0,-27.0,364.0,-195.0,348.0,0
35.0,-267.0,-32.0,325.0,-172.0,367.0,0
39.0,-261.0,-28.0,285.0,-150.0,380.0,0
38.0,-257.0,-28.0,249.0,-137.0,387.0,0
32.0,-255.0,-27.0,215.0,-126.0,391.0,0
33.0,-252.0,-32.0,183.0,-116.0,400.0,0
32.0,-251.0,-29.0,158.0,-110.0,409.0,0
36.0,-255.0,-28.0,141.0,-104.0,413.0,0
30.0,-253.0,-33.0,136.0,-96.0,412.0,0
25.0,-250.0,-33.0,138.0,-91.0,411.0,0
20.0,-248.0,-40.0,143.0,-85.0,406.0,0
19.0,-248.0,-40.0,148.0,-81.0,397.0,0
11.0,-245.0,-36.0,152.0,-75.0,392.0,0
12.0,-245.0,-40.0,155.0,-65.0,391.0,0
8.0,-242.0,-35.0,151.0,-58.0,386.0,0
4.0,-241.0,-27.0,144.0,-45.0,376.0,0
0.0,-237.0,-24.0,138.0,-28.0,366.0,0
-2.0,-240.0,-19.0,133.0,-6.0,360.0,0
-5.0,-241.0,-24.0,127.0,12.0,356.0,0
-6.0,-238.0,-16.0,119.0,29.0,360.0,0
-6.0,-241.0,-14.0,106.0,47.0,361.0,0
-3.0,-243.0,-15.0,90.0,67.0,360.0,0
-6.0,-243.0,-12.0,74.0,85.0,361.0,0
-5.0,-244.0,-9.0,63.0,108.0,358.0,0
-2.0,-242.0,-9.0,49.0,125.0,361.0,0
-1.0,-244.0,-12.0,36.0,143.0,367.0,0
5.0,-249.0,-6.0,23.0,163.0,373.0,0
6.0,-246.0,-5.0,12.0,178.0,372.0,0
7.0,-247.0,-3.0,6.0,192.0,367.0,0
5.0,-244.0,1.0,2.0,206.0,360.0,0
9.0,-248.0,-2.0,2.0,222.0,361.0,0
12.0,-247.0,-2.0,-1.0,242.0,363.0,0
12.0,-250.0,2.0,-1.0,260.0,351.0,0
12.0,-248.0,-1.0,-2.0,277.0,340.0,0
9.0,-247.0,4.0,2.0,295.0,328.0,0
11.0,-246.0,-2.0,7.0,315.0,321.0,0
9.0,-240.0,-2.0,7.0,336.0,311.0,0
7.0,-238.0,1.0,1.0,355.0,298.0,0
7.0,-235.0,3.0,-14.0,368.0,282.0,0
8.0,-241.0,0.0,-35.0,379.0,270.0,0
5.0,-236.0,-3.0,-60.0,387.0,259.0,0
3.0,-233.0,1.0,-82.0,393.0,247.0,0
6.0,-240.0,1.0,-104.0,393.0,233.0,0
2.0,-228.0,-3.0,-121.0,395.0,220.0,0
3.0,-235.0,9.0,-140.0,397.0,209.0,0
3.0,-231.0,2.0,-153.0,395.0,198.0,0
-3.0,-237.0,11.0,-167.0,395.0,183.0,0
4.0,-234.0,10.0,-175.0,397.0,172.0,0
-10.0,-231.0,12.0,-179.0,398.0,163.0,0
-12.0,-239.0,4.0,-181.0,405.0,156.0,0
-6.0,-229.0,20.0,-185.0,414.0,144.0,0
-8.0,-236.0,24.0,-186.0,418.0,137.0,0
-15.0,-231.0,20.0,-185.0,421.0,129.0,0
-15.0,-238.0,25.0,-179.0,424.0,122.0,0
-13.0,-233.0,31.0,-169.0,426.0,113.0,0
-12.0,-240.0,19.0,-163.0,431.0,98.0,0
-15.0,-241.0,26.0,-163.0,439.0,76.0,0
-19.0,-245.0,29.0,-166.0,449.0,61.0,0
-16.0,-245.0,30.0,-167.0,457.0,53.0,0
-15.0,-251.0,26.0,-163.0,464.0,47.0,0
-12.0,-255.0,23.0,-155.0,471.0,34.0,0
-16.0,-249.0,22.0,-148.0,480.0,20.0,0
-13.0,-253.0,19.0,-144.0,489.0,10.0,0
-16.0,-257.0,13.0,-141.0,497.0,2.0,0
-4.0,-247.0,17.0,-139.0,501.0,5.0,0
-11.0,-250.0,16.0,-131.0,503.0,10.0,0
-12.0,-247.0,15.0,-129.0,501.0,11.0,0
-11.0,-256.0,2.0,-138.0,490.0,1.0,0
-19.0,-252.0,6.0,-158.0,475.0,-14.0,0
-16.0,-266.0,-8.0,-184.0,452.0,-26.0,0
-19.0,-266.0,-15.0,-203.0,430.0,-32.0,0
-18.0,-271.0,-11.0,-222.0,413.0,-33.0,0
-17.0,-276.0,-21.0,-235.0,406.0,-34.0,0
-13.0,-281.0,-7.0,-242.0,409.0,-34.0,0
-16.0,-285.0,4.0,-235.0,422.0,-31.0,0
-14.0,-288.0,10.0,-209.0,440.0,-26.0,0
-11.0,-284.0,16.0,-169.0,459.0,-18.0,0
-14.0,-279.0,29.0,-120.0,477.0,-15.0,0
-10.0,-270.0,37.0,-74.0,487.0,-9.0,0
-10.0,-268.0,33.0,-36.0,489.0,-3.0,0
-7.0,-261.0,37.0,-12.0,488.0,7.0,0
-13.0,-251.0,31.0,-6.0,485.0,19.0,0
3.0,-256.0,28.0,-15.0,485.0,53.0,0
1.0,-253.0,29.0,-35.0,495.0,67.0,0
-5.0,-249.0,33.0,-65.0,507.0,42.0,0
-5.0,-255.0,27.0,-102.0,522.0,23.0,0
-8.0,-263.0,27.0,-136.0,536.0,16.0,0
-11.0,-277.0,32.0,-174.0,550.0,17.0,0
-19.0,-290.0,19.0,-207.0,566.0,26.0,0
-29.0,-306.0,16.0,-242.0,585.0,48.0,0
-34.0,-319.0,0.0,-272.0,609.0,69.0,0
-39.0,-330.0,-18.0,-303.0,632.0,84.0,0
-38.0,-344.0,-27.0,-335.0,643.0,108.0,0
-38.0,-352.0,-32.0,-375.0,626.0,144.0,0
-33.0,-358.0,-34.0,-408.0,585.0,189.0,0
-32.0,-358.0,-33.0,-418.0,531.0,243.0,0
-31.0,-350.0,-25.0,-404.0,475.0,297.0,0
-35.0,-333.0,-15.0,-364.0,415.0,347.0,0
-38.0,-320.0,-11.0,-312.0,345.0,390.0,0
-38.0,-304.0,-11.0,-261.0,273.0,423.0,0
-32.0,-292.0,-13.0,-217.0,214.0,451.0,0
-24.0,-287.0,-4.0,-187.0,178.0,478.0,0
-21.0,-274.0,-9.0,-172.0,178.0,476.0,0
-10.0,-276.0,-2.0,-165.0,206.0,471.0,0
-5.0,-277.0,5.0,-162.0,253.0,450.0,0
-7.0,-281.0,1.0,-157.0,308.0,418.0,0
-5.0,-287.0,0.0,-149.0,362.0,388.0,0
-11.0,-289.0,-6.0,-130.0,405.0,352.0,0
-13.0,-292.0,-18.0,-102.0,433.0,327.0,0
-9.0,-289.0,-29.0,-65.0,455.0,297.0,0
-11.0,-285.0,-46.0,-36.0,468.0,262.0,0
-13.0,-283.0,-53.0,-15.0,475.0,231.0,0
-15.0,-276.0,-59.0,-10.0,475.0,204.0,0
-23.0,-266.0,-70.0,-15.0,473.0,175.0,0
-30.0,-268.0,-73.0,-27.0,467.0,148.0,0
-30.0,-260.0,-69.0,-37.0,465.0,128.0,0
-37.0,-264.0,-66.0,-35.0,471.0,113.0,0
-39.0,-261.0,-65.0,-23.0,480.0,101.0,0
-44.0,-257.0,-61.0,6.0,491.0,89.0,0
-46.0,-253.0,-64.0,39.0,495.0,79.0,0
-47.0,-245.0,-72.0,72.0,490.0,76.0,0
-46.0,-238.0,-79.0,99.0,476.0,79.0,0
-42.0,-229.0,-89.0,108.0,462.0,86.0,0
-32.0,-224.0,-87.0,94.0,454.0,95.0,0
-17.0,-224.0,-94.0,58.0,455.0,109.0,0
-6.0,-221.0,-85.0,12.0,458.0,124.0,0
4.0,-221.0,-77.0,-24.0,456.0,132.0,0
15.0,-227.0,-70.0,-46.0,446.0,134.0,0
14.0,-225.0,-65.0,-53.0,433.0,136.0,0
20.0,-237.0,-63.0,-51.0,428.0,165.0,0
37.0,-247.0,-54.0,-45.0,422.0,200.0,0
34.0,-248.0,-47.0,-26.0,385.0,173.0,0
30.0,-256.0,-49.0,-1.0,332.0,142.0,0
29.0,-263.0,-48.0,31.0,287.0,129.0,0
22.0,-273.0,-52.0,56.0,254.0,119.0,0
13.0,-274.0,-49.0,80.0,223.0,96.0,0
6.0,-279.0,-48.0,107.0,202.0,73.0,0
1.0,-287.0,-55.0,144.0,204.0,51.0,0
-10.0,-285.0,-49.0,190.0,213.0,24.0,0
-21.0,-291.0,-49.0,235.0,216.0,-11.0,0
-33.0,-289.0,-46.0,262.0,213.0,-42.0,0
-38.0,-289.0,-42.0,286.0,206.0,-67.0,0
-49.0,-283.0,-35.0,317.0,203.0,-83.0,0
-56.0,-286.0,-39.0,346.0,195.0,-101.0,0
-58.0,-297.0,-33.0,341.0,182.0,-102.0,0
-57.0,-293.0,-31.0,331.0,162.0,-111.0,0
-60.0,-292.0,-28.0,351.0,138.0,-132.0,0
-58.0,-289.0,-27.0,375.0,118.0,-141.0,0
-50.0,-283.0,-24.0,396.0,101.0,-149.0,0
-49.0,-282.0,-26.0,419.0,82.0,-159.0,0
-50.0,-274.0,-29.0,436.0,59.0,-169.0,0
-42.0,-269.0,-31.0,443.0,32.0,-180.0,0
-40.0,-261.0,-28.0,440.0,3.0,-194.0,0
-33.0,-258.0,-34.0,429.0,-33.0,-214.0,0
-33.0,-254.0,-32.0,413.0,-70.0,-233.0,0
-25.0,-250.0,-37.0,388.0,-107.0,-248.0,0
-23.0,-242.0,-35.0,360.0,-145.0,-263.0,0
-27.0,-235.0,-38.0,331.0,-181.0,-273.0,0
-31.0,-228.0,-43.0,299.0,-206.0,-271.0,0
-10.0,-232.0,-40.0,255.0,-215.0,-260.0,0
-8.0,-226.0,-38.0,204.0,-235.0,-284.0,0
-3.0,-225.0,-40.0,164.0,-247.0,-291.0,0
5.0,-225.0,-39.0,131.0,-239.0,-293.0,0
6.0,-224.0,-32.0,104.0,-229.0,-304.0,0
11.0,-225.0,-33.0,81.0,-220.0,-304.0,0
21.0,-228.0,-36.0,60.0,-203.0,-307.0,0
24.0,-229.0,-29.0,47.0,-186.0,-315.0,0
27.0,-232.0,-27.0,33.0,-176.0,-319.0,0
24.0,-238.0,-28.0,23.0,-166.0,-323.0,0
27.0,-239.0,-26.0,15.0,-154.0,-327.0,0
21.0,-239.0,-28.0,9.0,-143.0,-328.0,0
23.0,-244.0,-15.0,2.0,-134.0,-329.0,0
18.0,-244.0,-18.0,-7.0,-131.0,-329.0,0
16.0,-249.0,-19.0,-17.0,-131.0,-324.0,0
14.0,-253.0,-18.0,-25.0,-130.0,-315.0,0
11.0,-252.0,-15.0,-31.0,-130.0,-311.0,0
10.0,-254.0,-15.0,-30.0,-128.0,-301.0,0
8.0,-258.0,-9.0,-27.0,-125.0,-293.0,0
4.0,-259.0,-9.0,-21.0,-127.0,-284.0,0
2.0,-258.0,-6.0,-11.0,-134.0,-275.0,0
0.0,-256.0,-4.0,3.0,-140.0,-271.0,0
2.0,-259.0,-6.0,24.0,-132.0,-267.0,0
0.0,-250.0,2.0,57.0,-100.0,-272.0,0
1.0,-247.0,1.0,78.0,-101.0,-237.0,0
3.0,-244.0,-4.0,73.0,-124.0,-212.0,0
5.0,-242.0,1.0,61.0,-117.0,-199.0,0
4.0,-237.0,-2.0,53.0,-99.0,-192.0,0
4.0,-232.0,-1.0,42.0,-87.0,-181.0,0
4.0,-226.0,2.0,28.0,-78.0,-175.0,0
1.0,-226.0,-4.0,14.0,-70.0,-167.0,0
0.0,-227.0,-1.0,-8.0,-66.0,-161.0,0
3.0,-225.0,-1.0,-35.0,-65.0,-155.0,0
1.0,-227.0,2.0,-59.0,-63.0,-151.0,0
-3.0,-228.0,3.0,-81.0,-61.0,-145.0,0
2.0,-228.0,4.0,-93.0,-57.0,-141.0,0
-1.0,-223.0,6.0,-108.0,-54.0,-138.0,0
0.0,-226.0,5.0,-124.0,-51.0,-130.0,0
0.0,-223.0,9.0,-145.0,-46.0,-121.0,0
6.0,-225.0,16.0,-166.0,-39.0,-111.0,0
5.0,-223.0,15.0,-190.0,-35.0,-100.0,0
6.0,-226.0,21.0,-213.0,-31.0,-88.0,0
7.0,-230.0,20.0,-222.0,-26.0,-79.0,0
7.0,-229.0,20.0,-219.0,-23.0,-67.0,0
9.0,-236.0,29.0,-211.0,-24.0,-53.0,0
11.0,-242.0,25.0,-198.0,-30.0,-34.0,0
10.0,-246.0,30.0,-183.0,-38.0,-19.0,0
8.0,-252.0,30.0,-164.0,-51.0,-8.0,0
6.0,-253.0,30.0,-141.0,-68.0,1.0,0
4.0,-256.0,33.0,-120.0,-86.0,10.0,0
0.0,-256.0,31.0,-95.0,-102.0,15.0,0
-1.0,-259.0,28.0,-72.0,-116.0,16.0,0
3.0,-256.0,23.0,-48.0,-125.0,17.0,0
0.0,-256.0,23.0,-28.0,-126.0,17.0,0
7.0,-244.0,13.0,-11.0,-117.0,16.0,0
1.0,-248.0,13.0,-7.0,-101.0,21.0,0
5.0,-245.0,6.0,-16.0,-91.0,24.0,0
1.0,-247.0,-3.0,-39.0,-86.0,24.0,0
7.0,-251.0,-1.0,-73.0,-89.0,22.0,0
8.0,-253.0,-2.0,-113.0,-100.0,22.0,0
7.0,-257.0,-1.0,-149.0,-114.0,24.0,0
4.0,-265.0,5.0,-178.0,-132.0,26.0,0
-1.0,-274.0,3.0,-197.0,-157.0,31.0,0
2.0,-284.0,14.0,-200.0,-185.0,37.0,0
-1.0,-289.0,17.0,-188.0,-214.0,40.0,0
9.0,-296.0,25.0,-167.0,-236.0,40.0,0
1.0,-297.0,25.0,-139.0,-254.0,15.0,0
4.0,-299.0,32.0,-106.0,-253.0,-3.0,0
11.0,-301.0,30.0,-78.0,-236.0,-15.0,0
12.0,-297.0,33.0,-58.0,-227.0,-41.0,0
22.0,-297.0,31.0,-48.0,-219.0,-75.0,0
22.0,-298.0,27.0,-49.0,-209.0,-111.0,0
29.0,-297.0,25.0,-52.0,-202.0,-145.0,0
25.0,-300.0,22.0,-64.0,-206.0,-180.0,0
22.0,-301.0,13.0,-79.0,-223.0,-213.0,0
13.0,-303.0,5.0,-93.0,-250.0,-244.0,0
0.0,-304.0,4.0,-103.0,-289.0,-269.0,0
-2.0,-313.0,-7.0,-119.0,-323.0,-286.0,0
-5.0,-317.0,-8.0,-138.0,-342.0,-298.0,0
-1.0,-322.0,-4.0,-157.0,-337.0,-315.0,0
5.0,-321.0,-5.0,-166.0,-316.0,-340.0,0
10.0,-320.0,-7.0,-165.0,-289.0,-372.0,0
13.0,-313.0,-9.0,-172.0,-261.0,-408.0,0
16.0,-313.0,-14.0,-194.0,-231.0,-444.0,0
29.0,-308.0,-16.0,-226.0,-197.0,-487.0,0
32.0,-302.0,-20.0,-270.0,-169.0,-518.0,0
43.0,-297.0,-17.0,-315.0,-141.0,-542.0,0
40.0,-293.0,-15.0,-343.0,-115.0,-564.0,0
37.0,-284.0,-12.0,-355.0,-102.0,-580.0,0
37.0,-283.0,-4.0,-356.0,-105.0,-586.0,0
35.0,-278.0,-3.0,-353.0,-120.0,-581.0,0
27.0,-275.0,3.0,-345.0,-143.0,-573.0,0
29.0,-273.0,8.0,-339.0,-169.0,-557.0,0
27.0,-274.0,6.0,-325.0,-182.0,-530.0,0
26.0,-276.0,12.0,-310.0,-188.0,-503.0,0
26.0,-278.0,8.0,-293.0,-193.0,-475.0,0
21.0,-279.0,8.0,-271.0,-203.0,-445.0,0
17.0,-279.0,5.0,-250.0,-219.0,-414.0,0
21.0,-283.0,-3.0,-223.0,-238.0,-377.0,0
23.0,-282.0,-12.0,-199.0,-256.0,-339.0,0
25.0,-276.0,-17.0,-171.0,-268.0,-303.0,0
25.0,-271.0,-23.0,-151.0,-277.0,-272.0,0
26.0,-267.0,-31.0,-136.0,-290.0,-247.0,0
25.0,-265.0,-39.0,-128.0,-309.0,-223.0,0
23.0,-263.0,-40.0,-124.0,-330.0,-201.0,0
26.0,-261.0,-46.0,-121.0,-352.0,-181.0,0
20.0,-260.0,-47.0,-116.0,-377.0,-163.0,0
16.0,-255.0,-54.0,-111.0,-404.0,-144.0,0
16.0,-249.0,-54.0,-106.0,-430.0,-127.0,0
11.0,-251.0,-68.0,-108.0,-452.0,-116.0,0
6.0,-242.0,-71.0,-116.0,-473.0,-111.0,0
0.0,-239.0,-73.0,-127.0,-497.0,-109.0,0
0.0,-234.0,-73.0,-135.0,-522.0,-118.0,0
-3.0,-227.0,-76.0,-144.0,-545.0,-128.0,0
-3.0,-222.0,-77.0,-155.0,-564.0,-144.0,0
-7.0,-215.0,-77.0,-157.0,-574.0,-163.0,0
-12.0,-216.0,-81.0,-169.0,-582.0,-183.0,0
-10.0,-211.0,-83.0,-188.0,-586.0,-205.0,0
-12.0,-209.0,-95.0,-204.0,-586.0,-225.0,0
-12.0,-207.0,-88.0,-225.0,-582.0,-242.0,0
-12.0,-209.0,-86.0,-243.0,-574.0,-256.0,0
-9.0,-209.0,-88.0,-264.0,-561.0,-265.0,0
-6.0,-218.0,-83.0,-278.0,-539.0,-269.0,0
-7.0,-223.0,-84.0,-297.0,-511.0,-270.0,0
2.0,-233.0,-83.0,-317.0,-477.0,-263.0,0
7.0,-252.0,-82.0,-332.0,-437.0,-250.0,0
7.0,-263.0,-69.0,-343.0,-399.0,-230.0,0
14.0,-275.0,-64.0,-344.0,-360.0,-203.0,0
23.0,-287.0,-58.0,-321.0,-323.0,-175.0,0
27.0,-299.0,-61.0,-283.0,-288.0,-140.0,0
39.0,-315.0,-47.0,-231.0,-248.0,-104.0,0
44.0,-320.0,-46.0,-166.0,-210.0,-63.0,0
46.0,-323.0,-40.0,-96.0,-175.0,-21.0,0
48.0,-324.0,-31.0,-12.0,-143.0,14.0,0
49.0,-320.0,-33.0,83.0,-117.0,47.0,0
52.0,-319.0,-34.0,172.0,-92.0,80.0,0
54.0,-315.0,-36.0,255.0,-68.0,109.0,0
54.0,-310.0,-30.0,323.0,-38.0,138.0,0
56.0,-299.0,-32.0,380.0,-3.0,165.0,0
56.0,-290.0,-32.0,413.0,33.0,192.0,0
54.0,-283.0,-30.0,428.0,65.0,218.0,0
51.0,-269.0,-34.0,427.0,90.0,245.0,0
51.0,-261.0,-39.0,397.0,106.0,277.0,0
46.0,-255.0,-42.0,353.0,117.0,308.0,0
41.0,-254.0,-41.0,309.0,131.0,330.0,0
37.0,-250.0,-42.0,271.0,147.0,347.0,0
32.0,-248.0,-40.0,236.0,159.0,363.0,0
28.0,-245.0,-39.0,204.0,174.0,377.0,0
19.0,-249.0,-37.0,183.0,183.0,388.0,0
13.0,-248.0,-36.0,174.0,192.0,399.0,0
9.0,-247.0,-37.0,165.0,202.0,404.0,0
-1.0,-241.0,-40.0,157.0,214.0,397.0,0
-1.0,-242.0,-46.0,154.0,229.0,386.0,0
-9.0,-242.0,-42.0,144.0,241.0,374.0,0
-13.0,-240.0,-41.0,132.0,249.0,361.0,0
-15.0,-236.0,-45.0,116.0,250.0,344.0,0
-23.0,-235.0,-46.0,93.0,249.0,331.0,0
-23.0,-231.0,-46.0,70.0,246.0,319.0,0
-25.0,-231.0,-43.0,44.0,239.0,307.0,0
-29.0,-227.0,-39.0,18.0,229.0,300.0,0
-28.0,-222.0,-38.0,-9.0,217.0,295.0,0
-23.0,-222.0,-34.0,-34.0,204.0,293.0,0
-27.0,-220.0,-31.0,-56.0,192.0,293.0,0
-24.0,-225.0,-27.0,-76.0,183.0,291.0,0
-24.0,-227.0,-23.0,-95.0,176.0,290.0,0
-23.0,-227.0,-19.0,-114.0,170.0,293.0,0
-16.0,-227.0,-14.0,-129.0,169.0,295.0,0
-16.0,-234.0,-13.0,-147.0,170.0,297.0,0
-17.0,-233.0,-15.0,-161.0,174.0,294.0,0
-16.0,-236.0,-9.0,-175.0,181.0,294.0,0
-9.0,-244.0,-8.0,-190.0,188.0,291.0,0
-9.0,-245.0,-7.0,-202.0,197.0,286.0,0
-5.0,-243.0,-1.0,-210.0,204.0,280.0,0
-5.0,-250.0,-7.0,-214.0,215.0,274.0,0
-3.0,-251.0,-3.0,-208.0,222.0,266.0,0
-8.0,-250.0,-3.0,-197.0,227.0,261.0,0
-4.0,-253.0,-8.0,-189.0,235.0,261.0,0
3.0,-255.0,-2.0,-184.0,237.0,253.0,0
3.0,-251.0,-5.0,-171.0,240.0,239.0,0
5.0,-250.0,-2.0,-161.0,250.0,235.0,0
7.0,-250.0,-1.0,-157.0,258.0,231.0,0
8.0,-249.0,-5.0,-154.0,265.0,225.0,0
10.0,-246.0,-4.0,-151.0,270.0,216.0,0
14.0,-243.0,-3.0,-150.0,276.0,209.0,0
11.0,-241.0,-2.0,-150.0,277.0,201.0,0
8.0,-235.0,-7.0,-151.0,280.0,199.0,0
17.0,-240.0,-5.0,-158.0,282.0,196.0,0
8.0,-234.0,-2.0,-164.0,279.0,176.0,0
8.0,-231.0,-2.0,-172.0,277.0,161.0,0
7.0,-233.0,1.0,-180.0,279.0,152.0,0
5.0,-229.0,5.0,-187.0,283.0,141.0,0
1.0,-226.0,11.0,-193.0,289.0,130.0,0
6.0,-233.0,10.0,-197.0,302.0,126.0,0
6.0,-232.0,17.0,-202.0,318.0,113.0,0
11.0,-241.0,20.0,-201.0,332.0,94.0,0
6.0,-237.0,22.0,-196.0,353.0,74.0,0
7.0,-239.0,20.0,-187.0,378.0,58.0,0
9.0,-244.0,25.0,-174.0,401.0,41.0,0
10.0,-252.0,26.0,-164.0,426.0,18.0,0
13.0,-255.0,29.0,-152.0,455.0,-3.0,0
15.0,-264.0,27.0,-133.0,487.0,-21.0,0
6.0,-264.0,29.0,-108.0,518.0,-35.0,0
6.0,-270.0,31.0,-77.0,550.0,-42.0,0
0.0,-273.0,27.0,-43.0,578.0,-45.0,0
-6.0,-277.0,23.0,-8.0,599.0,-47.0,0
-12.0,-277.0,26.0,21.0,610.0,-46.0,0
-16.0,-270.0,13.0,41.0,612.0,-40.0,0
-25.0,-271.0,14.0,46.0,601.0,-30.0,0
-31.0,-267.0,4.0,36.0,579.0,-24.0,0
-36.0,-270.0,-3.0,16.0,544.0,-17.0,0
-44.0,-268.0,-11.0,-12.0,506.0,-5.0,0
-50.0,-267.0,-14.0,-44.0,462.0,9.0,0
-54.0,-268.0,-9.0,-75.0,419.0,24.0,0
-54.0,-271.0,-4.0,-90.0,380.0,40.0,0
-50.0,-276.0,1.0,-88.0,349.0,58.0,0
-51.0,-274.0,14.0,-70.0,329.0,76.0,0
-53.0,-281.0,20.0,-40.0,323.0,97.0,0
-54.0,-274.0,30.0,3.0,320.0,129.0,0
-45.0,-271.0,35.0,53.0,316.0,175.0,0
-38.0,-266.0,35.0,96.0,301.0,191.0,0
-37.0,-259.0,36.0,126.0,286.0,201.0,0
-29.0,-255.0,36.0,139.0,276.0,207.0,0
-23.0,-248.0,38.0,141.0,268.0,212.0,0
-20.0,-241.0,37.0,128.0,261.0,217.0,0
-16.0,-235.0,34.0,103.0,253.0,214.0,0
-12.0,-235.0,28.0,73.0,245.0,198.0,0
-13.0,-243.0,30.0,26.0,246.0,172.0,0
-16.0,-249.0,28.0,-48.0,257.0,157.0,0
-18.0,-262.0,21.0,-119.0,279.0,157.0,0
-28.0,-280.0,14.0,-176.0,305.0,165.0,0
-38.0,-294.0,-3.0,-241.0,332.0,179.0,0
-45.0,-311.0,-22.0,-316.0,362.0,186.0,0
-49.0,-320.0,-34.0,-394.0,375.0,196.0,0
-57.0,-334.0,-44.0,-472.0,355.0,220.0,0
-52.0,-343.0,-51.0,-542.0,296.0,257.0,0
-57.0,-352.0,-46.0,-585.0,207.0,305.0,0
-53.0,-351.0,-40.0,-583.0,101.0,358.0,0
-65.0,-342.0,-30.0,-546.0,-4.0,412.0,0
-50.0,-324.0,-23.0,-486.0,-100.0,465.0,0
-44.0,-314.0,-13.0,-417.0,-176.0,508.0,0
-35.0,-298.0,-10.0,-357.0,-226.0,543.0,0
-25.0,-288.0,-2.0,-307.0,-236.0,566.0,0
-14.0,-286.0,-1.0,-278.0,-202.0,584.0,0
1.0,-287.0,2.0,-263.0,-135.0,589.0,0
12.0,-288.0,-1.0,-249.0,-47.0,575.0,0
14.0,-299.0,0.0,-242.0,42.0,546.0,0
13.0,-309.0,-10.0,-234.0,124.0,516.0,0
13.0,-316.0,-21.0,-217.0,185.0,486.0,0
0.0,-316.0,-43.0,-191.0,223.0,462.0,0
2.0,-316.0,-58.0,-155.0,247.0,443.0,0
-2.0,-310.0,-80.0,-131.0,258.0,427.0,0
-5.0,-307.0,-95.0,-118.0,267.0,414.0,0
-8.0,-300.0,-104.0,-116.0,280.0,398.0,0
-12.0,-295.0,-109.0,-130.0,295.0,379.0,0
-14.0,-286.0,-107.0,-150.0,318.0,363.0,0
-16.0,-285.0,-108.0,-161.0,349.0,349.0,0
-18.0,-279.0,-103.0,-150.0,381.0,336.0,0
-12.0,-273.0,-100.0,-111.0,404.0,320.0,0
-13.0,-262.0,-103.0,-64.0,414.0,290.0,0
-14.0,-253.0,-110.0,-16.0,417.0,263.0,0
-16.0,-242.0,-108.0,19.0,427.0,248.0,0
-7.0,-239.0,-114.0,37.0,447.0,242.0,0
-4.0,-230.0,-109.0,44.0,476.0,236.0,0
-13.0,-226.0,-108.0,41.0,516.0,238.0,0
15.0,-231.0,-107.0,29.0,575.0,272.0,0
25.0,-237.0,-95.0,18.0,612.0,271.0,0
24.0,-234.0,-86.0,6.0,621.0,249.0,0
32.0,-244.0,-79.0,5.0,629.0,239.0,0
42.0,-256.0,-65.0,16.0,647.0,248.0,0
44.0,-262.0,-66.0,36.0,655.0,245.0,0
42.0,-266.0,-61.0,60.0,641.0,218.0,0
37.0,-276.0,-59.0,93.0,614.0,187.0,0
39.0,-289.0,-62.0,134.0,590.0,158.0,0
23.0,-295.0,-56.0,187.0,567.0,127.0,0
12.0,-302.0,-50.0,243.0,543.0,103.0,0
9.0,-305.0,-54.0,307.0,508.0,83.0,0
-1.0,-303.0,-56.0,380.0,478.0,55.0,0
-8.0,-299.0,-61.0,439.0,469.0,29.0,0
-15.0,-292.0,-57.0,488.0,475.0,2.0,0
-25.0,-286.0,-51.0,529.0,486.0,-29.0,0
-34.0,-279.0,-50.0,553.0,483.0,-63.0,0
-46.0,-278.0,-49.0,551.0,458.0,-99.0,0
-46.0,-271.0,-47.0,531.0,435.0,-130.0,0
-51.0,-280.0,-50.0,514.0,423.0,-161.0,0
-52.0,-280.0,-40.0,469.0,405.0,-190.0,0
-55.0,-266.0,-47.0,454.0,392.0,-221.0,0
-55.0,-259.0,-45.0,459.0,393.0,-245.0,0
-54.0,-259.0,-51.0,454.0,397.0,-251.0,0
-52.0,-253.0,-54.0,444.0,400.0,-255.0,0
-54.0,-250.0,-51.0,423.0,400.0,-257.0,0
-53.0,-246.0,-48.0,393.0,393.0,-249.0,0
-49.0,-241.0,-49.0,369.0,369.0,-249.0,0
-46.0,-234.0,-43.0,353.0,330.0,-252.0,0
-49.0,-232.0,-41.0,340.0,289.0,-261.0,0
-46.0,-226.0,-37.0,323.0,236.0,-266.0,0
-43.0,-228.0,-37.0,298.0,177.0,-273.0,0
-42.0,-221.0,-33.0,269.0,116.0,-282.0,0
-36.0,-222.0,-40.0,235.0,61.0,-291.0,0
-35.0,-221.0,-41.0,199.0,20.0,-301.0,0
-27.0,-223.0,-39.0,157.0,-12.0,-314.0,0
-24.0,-227.0,-45.0,123.0,-31.0,-326.0,0
-18.0,-231.0,-44.0,93.0,-45.0,-340.0,0
-10.0,-229.0,-43.0,72.0,-62.0,-352.0,0
-10.0,-233.0,-41.0,52.0,-74.0,-366.0,0
-2.0,-232.0,-39.0,32.0,-74.0,-381.0,0
-7.0,-232.0,-45.0,15.0,-63.0,-393.0,0
4.0,-232.0,-43.0,7.0,-37.0,-409.0,0
7.0,-238.0,-32.0,-17.0,-50.0,-407.0,0
9.0,-239.0,-29.0,-44.0,-110.0,-413.0,0
12.0,-240.0,-27.0,-57.0,-152.0,-425.0,0
10.0,-244.0,-24.0,-48.0,-155.0,-437.0,0
10.0,-244.0,-24.0,-33.0,-143.0,-435.0,0
2.0,-247.0,-22.0,-19.0,-135.0,-439.0,0
2.0,-246.0,-25.0,1.0,-112.0,-454.0,0
9.0,-245.0,-12.0,31.0,-89.0,-446.0,0
1.0,-248.0,-11.0,38.0,-164.0,-428.0,0
2.0,-247.0,-17.0,32.0,-248.0,-411.0,0
-4.0,-248.0,-17.0,39.0,-268.0,-394.0,0
-10.0,-251.0,-15.0,46.0,-265.0,-376.0,0
-10.0,-255.0,-14.0,56.0,-277.0,-352.0,0
-11.0,-251.0,-13.0,74.0,-291.0,-324.0,0
-15.0,-251.0,-19.0,101.0,-307.0,-298.0,0
-14.0,-253.0,-8.0,122.0,-320.0,-269.0,0
-14.0,-249.0,-17.0,147.0,-331.0,-240.0,0
-10.0,-247.0,-12.0,173.0,-339.0,-214.0,0
-16.0,-246.0,-12.0,192.0,-347.0,-187.0,0
-14.0,-239.0,-14.0,205.0,-352.0,-165.0,0
-17.0,-237.0,-10.0,213.0,-361.0,-145.0,0
-16.0,-235.0,-11.0,213.0,-366.0,-126.0,0
-16.0,-227.0,-11.0,206.0,-372.0,-105.0,0
-19.0,-223.0,-7.0,195.0,-374.0,-88.0,0
-22.0,-224.0,-12.0,178.0,-379.0,-70.0,0
-17.0,-224.0,-9.0,156.0,-382.0,-55.0,0
-18.0,-218.0,-7.0,133.0,-386.0,-43.0,0
-22.0,-218.0,-2.0,109.0,-388.0,-31.0,0
-28.0,-221.0,-3.0,82.0,-393.0,-21.0,0
-21.0,-219.0,3.0,58.0,-401.0,-8.0,0
-20.0,-222.0,4.0,39.0,-414.0,2.0,0
-16.0,-224.0,10.0,27.0,-425.0,12.0,0
-16.0,-228.0,15.0,20.0,-438.0,20.0,0
-13.0,-234.0,14.0,18.0,-457.0,29.0,0
-15.0,-238.0,17.0,19.0,-479.0,32.0,0
-10.0,-246.0,17.0,25.0,-503.0,38.0,0
-10.0,-254.0,22.0,36.0,-529.0,43.0,0
-4.0,-256.0,27.0,50.0,-554.0,39.0,0
-5.0,-260.0,26.0,71.0,-580.0,42.0,0
-2.0,-263.0,25.0,92.0,-603.0,51.0,0
5.0,-269.0,26.0,115.0,-621.0,49.0,0
3.0,-265.0,25.0,133.0,-638.0,43.0,0
8.0,-268.0,21.0,150.0,-650.0,37.0,0
4.0,-263.0,18.0,158.0,-659.0,32.0,0
8.0,-262.0,16.0,157.0,-667.0,35.0,0
5.0,-257.0,17.0,149.0,-675.0,33.0,0
14.0,-256.0,14.0,128.0,-678.0,34.0,0
13.0,-252.0,0.0,102.0,-669.0,48.0,0
9.0,-252.0,-7.0,70.0,-645.0,57.0,0
9.0,-248.0,-13.0,23.0,-622.0,66.0,0
7.0,-248.0,-23.0,-28.0,-608.0,74.0,0
12.0,-250.0,-18.0,-86.0,-607.0,82.0,0
12.0,-248.0,-13.0,-138.0,-612.0,80.0,0
13.0,-254.0,-6.0,-186.0,-619.0,72.0,0
15.0,-256.0,3.0,-220.0,-621.0,66.0,0
15.0,-266.0,10.0,-240.0,-611.0,63.0,0
14.0,-271.0,19.0,-254.0,-594.0,61.0,0
8.0,-272.0,20.0,-260.0,-570.0,57.0,0
4.0,-277.0,27.0,-262.0,-545.0,51.0,0
7.0,-279.0,24.0,-265.0,-520.0,42.0,0
12.0,-285.0,31.0,-276.0,-510.0,6.0,0
0.0,-275.0,22.0,-299.0,-510.0,-48.0,0
-1.0,-277.0,24.0,-329.0,-501.0,-69.0,0
5.0,-274.0,19.0,-362.0,-504.0,-94.0,0
12.0,-275.0,14.0,-407.0,-514.0,-123.0,0
13.0,-282.0,10.0,-457.0,-514.0,-154.0,0
23.0,-284.0,10.0,-495.0,-505.0,-197.0,0
18.0,-289.0,4.0,-524.0,-505.0,-221.0,0
15.0,-300.0,-2.0,-546.0,-497.0,-241.0,0
15.0,-314.0,2.0,-561.0,-491.0,-270.0,0
27.0,-322.0,-2.0,-569.0,-484.0,-313.0,0
24.0,-333.0,8.0,-562.0,-468.0,-361.0,0
25.0,-334.0,7.0,-541.0,-441.0,-410.0,0
35.0,-337.0,16.0,-508.0,-419.0,-473.0,0
18.0,-328.0,9.0,-472.0,-407.0,-549.0,0
23.0,-328.0,3.0,-441.0,-370.0,-584.0,0
23.0,-328.0,1.0,-425.0,-329.0,-628.0,0
19.0,-321.0,-1.0,-419.0,-302.0,-676.0,0
22.0,-315.0,-2.0,-415.0,-276.0,-710.0,0
21.0,-307.0,-1.0,-411.0,-242.0,-733.0,0
23.0,-299.0,-3.0,-409.0,-223.0,-745.0,0
35.0,-286.0,3.0,-400.0,-213.0,-749.0,0
31.0,-276.0,2.0,-382.0,-206.0,-747.0,0
27.0,-268.0,6.0,-365.0,-199.0,-739.0,0
29.0,-262.0,7.0,-352.0,-198.0,-720.0,0
29.0,-259.0,9.0,-347.0,-203.0,-695.0,0
25.0,-253.0,14.0,-348.0,-211.0,-662.0,0
25.0,-254.0,18.0,-348.0,-222.0,-617.0,0
22.0,-249.0,12.0,-345.0,-235.0,-562.0,0
25.0,-255.0,17.0,-335.0,-258.0,-505.0,0
25.0,-255.0,20.0,-318.0,-278.0,-446.0,0
28.0,-255.0,18.0,-290.0,-286.0,-377.0,0
40.0,-259.0,12.0,-262.0,-283.0,-296.0,0
46.0,-255.0,-2.0,-246.0,-268.0,-219.0,0
50.0,-253.0,-11.0,-240.0,-249.0,-161.0,0
57.0,-254.0,-24.0,-237.0,-234.0,-116.0,0
59.0,-260.0,-31.0,-235.0,-228.0,-83.0,0
65.0,-259.0,-39.0,-236.0,-227.0,-60.0,0
64.0,-263.0,-45.0,-239.0,-228.0,-46.0,0
66.0,-266.0,-47.0,-243.0,-230.0,-41.0,0
63.0,-265.0,-47.0,-249.0,-236.0,-41.0,0
56.0,-267.0,-56.0,-257.0,-241.0,-49.0,0
51.0,-267.0,-59.0,-266.0,-247.0,-64.0,0
47.0,-264.0,-69.0,-276.0,-254.0,-88.0,0
34.0,-267.0,-67.0,-284.0,-268.0,-113.0,0
21.0,-265.0,-77.0,-293.0,-292.0,-143.0,0
5.0,-265.0,-75.0,-302.0,-324.0,-177.0,0
-9.0,-262.0,-70.0,-300.0,-367.0,-211.0,0
-20.0,-252.0,-74.0,-279.0,-413.0,-244.0,0
-26.0,-249.0,-77.0,-247.0,-455.0,-268.0,0
-29.0,-247.0,-85.0,-215.0,-487.0,-289.0,0
-36.0,-238.0,-80.0,-192.0,-509.0,-305.0,0
-39.0,-232.0,-88.0,-177.0,-517.0,-315.0,0
-41.0,-235.0,-97.0,-172.0,-519.0,-320.0,0
-43.0,-229.0,-93.0,-170.0,-516.0,-319.0,0
-41.0,-225.0,-94.0,-173.0,-507.0,-317.0,0
-36.0,-232.0,-95.0,-184.0,-501.0,-311.0,0
-28.0,-241.0,-90.0,-193.0,-494.0,-299.0,0
-19.0,-243.0,-88.0,-193.0,-480.0,-276.0,0
-5.0,-252.0,-89.0,-182.0,-459.0,-246.0,0
11.0,-256.0,-81.0,-166.0,-435.0,-211.0,0
18.0,-266.0,-78.0,-148.0,-403.0,-177.0,0
34.0,-275.0,-76.0,-133.0,-371.0,-143.0,0
42.0,-290.0,-65.0,-116.0,-337.0,-109.0,0
51.0,-302.0,-48.0,-89.0,-307.0,-73.0,0
58.0,-310.0,-52.0,-46.0,-282.0,-38.0,0
62.0,-317.0,-49.0,13.0,-261.0,-7.0,0
67.0,-319.0,-54.0,80.0,-247.0,19.0,0
68.0,-320.0,-46.0,157.0,-237.0,41.0,0
67.0,-322.0,-46.0,238.0,-223.0,70.0,0
67.0,-318.0,-43.0,315.0,-199.0,102.0,0
66.0,-313.0,-42.0,396.0,-159.0,134.0,0
64.0,-304.0,-39.0,472.0,-114.0,165.0,0
63.0,-294.0,-45.0,538.0,-67.0,196.0,0
66.0,-279.0,-45.0,574.0,-12.0,224.0,0
55.0,-270.0,-44.0,586.0,44.0,255.0,0
56.0,-258.0,-44.0,568.0,95.0,284.0,0
55.0,-255.0,-45.0,526.0,142.0,310.0,0
49.0,-248.0,-43.0,462.0,183.0,335.0,0
47.0,-249.0,-40.0,387.0,217.0,361.0,0
43.0,-246.0,-39.0,321.0,241.0,389.0,0
40.0,-246.0,-41.0,268.0,260.0,410.0,0
34.0,-242.0,-46.0,221.0,274.0,424.0,0
32.0,-245.0,-47.0,175.0,287.0,437.0,0
30.0,-247.0,-48.0,131.0,304.0,449.0,0
29.0,-246.0,-57.0,91.0,320.0,454.0,0
24.0,-243.0,-47.0,66.0,340.0,452.0,0
19.0,-244.0,-55.0,52.0,360.0,446.0,0
15.0,-244.0,-50.0,48.0,380.0,440.0,0
10.0,-244.0,-54.0,53.0,398.0,431.0,0
3.0,-242.0,-52.0,53.0,413.0,423.0,0
-1.0,-240.0,-52.0,53.0,426.0,416.0,0
-4.0,-238.0,-48.0,49.0,436.0,411.0,0
-11.0,-236.0,-42.0,43.0,443.0,406.0,0
-11.0,-232.0,-41.0,36.0,446.0,400.0,0
-16.0,-232.0,-42.0,24.0,449.0,396.0,0
-20.0,-226.0,-38.0,6.0,446.0,392.0,0
-18.0,-232.0,-30.0,-18.0,442.0,389.0,0
-21.0,-229.0,-32.0,-46.0,439.0,384.0,0
-21.0,-228.0,-29.0,-77.0,440.0,384.0,0
-20.0,-233.0,-29.0,-110.0,440.0,386.0,0
-23.0,-232.0,-25.0,-131.0,439.0,377.0,0
-18.0,-237.0,-31.0,-144.0,433.0,371.0,0
-18.0,-237.0,-27.0,-158.0,430.0,367.0,0
-18.0,-239.0,-31.0,-168.0,427.0,362.0,0
-17.0,-239.0,-21.0,-176.0,426.0,358.0,0
-17.0,-239.0,-17.0,-183.0,427.0,352.0,0
-15.0,-243.0,-21.0,-180.0,429.0,346.0,0
-13.0,-245.0,-28.0,-171.0,434.0,346.0,0
-12.0,-252.0,-17.0,-172.0,432.0,333.0,0
-7.0,-250.0,-14.0,-159.0,434.0,320.0,0
-5.0,-251.0,-12.0,-136.0,442.0,305.0,0
-9.0,-248.0,-10.0,-115.0,448.0,294.0,0
-7.0,-251.0,-12.0,-95.0,452.0,282.0,0
-5.0,-253.0,-12.0,-79.0,450.0,273.0,0
2.0,-250.0,-4.0,-58.0,449.0,259.0,0
3.0,-246.0,-9.0,-36.0,447.0,242.0,0
8.0,-246.0,-8.0,-21.0,446.0,228.0,0
1.0,-250.0,-8.0,-17.0,446.0,214.0,0
5.0,-242.0,-4.0,-14.0,448.0,204.0,0
5.0,-244.0,-4.0,-8.0,445.0,194.0,0
5.0,-239.0,-10.0,-4.0,442.0,184.0,0
6.0,-236.0,-5.0,-2.0,439.0,172.0,0
6.0,-233.0,-7.0,-5.0,434.0,161.0,0
1.0,-233.0,-9.0,-11.0,425.0,150.0,0
0.0,-228.0,3.0,-20.0,415.0,142.0,0
-1.0,-225.0,-1.0,-27.0,409.0,129.0,0
-5.0,-226.0,-3.0,-34.0,402.0,119.0,0
-2.0,-223.0,2.0,-41.0,396.0,103.0,0
-8.0,-225.0,-4.0,-45.0,391.0,88.0,0
-8.0,-219.0,-3.0,-54.0,390.0,75.0,0
-5.0,-221.0,4.0,-62.0,393.0,64.0,0
-3.0,-218.0,3.0,-68.0,399.0,45.0,0
-1.0,-221.0,5.0,-70.0,412.0,25.0,0
3.0,-224.0,7.0,-71.0,422.0,9.0,0
3.0,-228.0,13.0,-70.0,434.0,-9.0,0
1.0,-231.0,15.0,-65.0,450.0,-32.0,0
4.0,-238.0,19.0,-61.0,465.0,-52.0,0
0.0,-242.0,24.0,-55.0,478.0,-73.0,0
-2.0,-251.0,18.0,-44.0,487.0,-95.0,0
-10.0,-257.0,20.0,-33.0,493.0,-113.0,0
-13.0,-262.0,19.0,-20.0,498.0,-124.0,0
-17.0,-265.0,19.0,-9.0,495.0,-129.0,0
-25.0,-268.0,14.0,0.0,491.0,-134.0,0
-32.0,-270.0,7.0,4.0,480.0,-134.0,0
-40.0,-270.0,6.0,-3.0,462.0,-128.0,0
-43.0,-272.0,3.0,-18.0,442.0,-111.0,0
-51.0,-273.0,-7.0,-40.0,423.0,-93.0,0
-48.0,-274.0,-1.0,-66.0,404.0,-71.0,0
-47.0,-276.0,-2.0,-92.0,393.0,-47.0,0
-51.0,-274.0,-1.0,-117.0,382.0,-22.0,0
-49.0,-276.0,-4.0,-137.0,369.0,4.0,0
-44.0,-282.0,7.0,-147.0,354.0,35.0,0
-41.0,-284.0,13.0,-151.0,335.0,61.0,0
-40.0,-287.0,17.0,-144.0,317.0,74.0,0
-37.0,-285.0,20.0,-130.0,300.0,89.0,0
-30.0,-284.0,22.0,-110.0,277.0,106.0,0
-27.0,-285.0,21.0,-92.0,259.0,128.0,0
-22.0,-280.0,26.0,-85.0,251.0,143.0,0
-17.0,-272.0,22.0,-80.0,253.0,141.0,0
-18.0,-280.0,16.0,-88.0,252.0,134.0,0
-20.0,-270.0,25.0,-115.0,251.0,135.0,0
-15.0,-283.0,25.0,-145.0,246.0,139.0,0
-15.0,-279.0,16.0,-176.0,243.0,142.0,0
-16.0,-289.0,11.0,-213.0,240.0,146.0,0
-24.0,-297.0,1.0,-255.0,242.0,163.0,0
-35.0,-308.0,-10.0,-307.0,253.0,185.0,0
-45.0,-318.0,-23.0,-363.0,264.0,204.0,0
-50.0,-325.0,-39.0,-417.0,258.0,227.0,0
-54.0,-337.0,-42.0,-463.0,218.0,256.0,0
-57.0,-344.0,-46.0,-491.0,146.0,296.0,0
-57.0,-348.0,-40.0,-494.0,56.0,344.0,0
-67.0,-349.0,-37.0,-470.0,-38.0,402.0,0
-55.0,-340.0,-19.0,-429.0,-127.0,459.0,0
-58.0,-330.0,-9.0,-379.0,-212.0,516.0,0
-56.0,-319.0,1.0,-328.0,-289.0,564.0,0
-56.0,-308.0,8.0,-284.0,-353.0,605.0,0
-50.0,-296.0,12.0,-249.0,-392.0,634.0,0
-42.0,-289.0,17.0,-223.0,-395.0,657.0,0
-28.0,-291.0,17.0,-203.0,-363.0,666.0,0
-19.0,-289.0,16.0,-188.0,-309.0,657.0,0
-10.0,-293.0,11.0,-174.0,-237.0,642.0,0
-6.0,-303.0,8.0,-152.0,-162.0,620.0,0
-10.0,-304.0,-9.0,-130.0,-101.0,593.0,0
-11.0,-300.0,-20.0,-108.0,-65.0,565.0,0
-10.0,-297.0,-42.0,-94.0,-52.0,536.0,0
-13.0,-291.0,-63.0,-85.0,-56.0,506.0,0
-17.0,-279.0,-79.0,-85.0,-68.0,479.0,0
-21.0,-275.0,-98.0,-94.0,-74.0,454.0,0
-24.0,-263.0,-106.0,-109.0,-71.0,431.0,0
-22.0,-263.0,-111.0,-132.0,-54.0,410.0,0
-24.0,-254.0,-109.0,-159.0,-15.0,393.0,0
-21.0,-247.0,-110.0,-184.0,38.0,376.0,0
-16.0,-241.0,-109.0,-203.0,94.0,353.0,0
-16.0,-240.0,-109.0,-216.0,140.0,319.0,0
-16.0,-233.0,-111.0,-217.0,172.0,296.0,0
-15.0,-229.0,-115.0,-209.0,197.0,288.0,0
-1.0,-231.0,-117.0,-211.0,228.0,298.0,0
12.0,-234.0,-114.0,-216.0,258.0,302.0,0
17.0,-239.0,-107.0,-221.0,280.0,296.0,0
22.0,-244.0,-100.0,-216.0,306.0,305.0,0
36.0,-251.0,-91.0,-198.0,329.0,330.0,0
42.0,-261.0,-93.0,-175.0,339.0,336.0,0
43.0,-267.0,-85.0,-157.0,330.0,329.0,0
43.0,-276.0,-77.0,-138.0,303.0,322.0,0
42.0,-279.0,-69.0,-104.0,269.0,318.0,0
38.0,-290.0,-74.0,-47.0,229.0,307.0,0
35.0,-294.0,-69.0,20.0,192.0,291.0,0
26.0,-295.0,-69.0,82.0,160.0,274.0,0
20.0,-295.0,-67.0,147.0,132.0,249.0,0
3.0,-287.0,-70.0,212.0,113.0,217.0,0
-9.0,-279.0,-67.0,263.0,105.0,193.0,0
-21.0,-276.0,-65.0,293.0,110.0,173.0,0
-35.0,-267.0,-73.0,300.0,120.0,149.0,0
-50.0,-257.0,-64.0,293.0,141.0,115.0,0
-59.0,-258.0,-64.0,277.0,151.0,76.0,0
-67.0,-253.0,-66.0,249.0,148.0,20.0,0
-72.0,-251.0,-60.0,210.0,145.0,-31.0,0
-69.0,-252.0,-59.0,167.0,134.0,-73.0,0
-73.0,-254.0,-62.0,130.0,121.0,-111.0,0
-76.0,-267.0,-73.0,79.0,116.0,-145.0,0
-72.0,-275.0,-64.0,-3.0,113.0,-154.0,0
-71.0,-273.0,-55.0,-8.0,110.0,-176.0,0
-62.0,-275.0,-54.0,37.0,107.0,-194.0,0
-58.0,-272.0,-56.0,96.0,106.0,-211.0,0
-54.0,-265.0,-54.0,146.0,103.0,-229.0,0
-49.0,-259.0,-53.0,171.0,89.0,-245.0,0
-39.0,-251.0,-53.0,179.0,60.0,-265.0,0
-37.0,-239.0,-48.0,169.0,12.0,-294.0,0
-35.0,-230.0,-53.0,145.0,-33.0,-304.0,0
-26.0,-222.0,-50.0,103.0,-64.0,-318.0,0
-31.0,-216.0,-56.0,53.0,-94.0,-352.0,0
-16.0,-207.0,-47.0,2.0,-124.0,-356.0,0
-9.0,-206.0,-47.0,-60.0,-197.0,-365.0,0
-10.0,-203.0,-47.0,-126.0,-279.0,-378.0,0
-8.0,-207.0,-48.0,-183.0,-321.0,-388.0,0
-12.0,-216.0,-49.0,-219.0,-318.0,-394.0,0
2.0,-221.0,-46.0,-237.0,-269.0,-405.0,0
2.0,-222.0,-33.0,-242.0,-247.0,-410.0,0
6.0,-233.0,-31.0,-249.0,-305.0,-408.0,0
3.0,-242.0,-31.0,-265.0,-365.0,-412.0,0
-1.0,-248.0,-34.0,-267.0,-375.0,-418.0,0
0.0,-256.0,-31.0,-247.0,-344.0,-415.0,0
-8.0,-261.0,-34.0,-214.0,-297.0,-421.0,0
6.0,-262.0,-20.0,-164.0,-229.0,-435.0,0
15.0,-260.0,-19.0,-117.0,-230.0,-430.0,0
7.0,-254.0,-21.0,-88.0,-282.0,-440.0,0
5.0,-260.0,-29.0,-69.0,-299.0,-451.0,0
2.0,-259.0,-22.0,-59.0,-276.0,-459.0,0
1.0,-262.0,-23.0,-55.0,-250.0,-464.0,0
-3.0,-259.0,-21.0,-50.0,-243.0,-464.0,0
-1.0,-261.0,-18.0,-33.0,-240.0,-462.0,0
1.0,-260.0,-16.0,-8.0,-244.0,-457.0,0
-1.0,-257.0,-15.0,25.0,-246.0,-451.0,0
-1.0,-254.0,-15.0,52.0,-253.0,-441.0,0
0.0,-248.0,-11.0,77.0,-260.0,-428.0,0
-3.0,-243.0,-13.0,99.0,-268.0,-413.0,0
-8.0,-244.0,-16.0,111.0,-275.0,-396.0,0
-6.0,-229.0,-12.0,128.0,-284.0,-377.0,0
-9.0,-226.0,-10.0,144.0,-293.0,-359.0,0
-12.0,-219.0,-11.0,155.0,-299.0,-334.0,0
-13.0,-216.0,-15.0,165.0,-309.0,-311.0,0
-15.0,-213.0,-11.0,164.0,-316.0,-287.0,0
-15.0,-210.0,-14.0,156.0,-322.0,-263.0,0
-16.0,-213.0,-10.0,151.0,-325.0,-241.0,0
-15.0,-216.0,-8.0,146.0,-325.0,-221.0,0
-20.0,-214.0,-6.0,141.0,-322.0,-202.0,0
-15.0,-218.0,-1.0,137.0,-322.0,-183.0,0
-16.0,-221.0,-2.0,128.0,-321.0,-167.0,0
-18.0,-219.0,-2.0,119.0,-319.0,-152.0,0
-16.0,-221.0,-2.0,113.0,-317.0,-142.0,0
-15.0,-225.0,-8.0,109.0,-318.0,-131.0,0
-15.0,-226.0,-3.0,105.0,-317.0,-120.0,0
-14.0,-226.0,-2.0,99.0,-317.0,-109.0,0
-11.0,-229.0,0.0,98.0,-318.0,-95.0,0
-9.0,-228.0,2.0,98.0,-320.0,-82.0,0
-11.0,-234.0,2.0,100.0,-318.0,-68.0,0
-5.0,-233.0,10.0,101.0,-316.0,-51.0,0
-9.0,-236.0,2.0,100.0,-313.0,-33.0,0
0.0,-239.0,5.0,101.0,-307.0,-16.0,0
1.0,-242.0,12.0,101.0,-299.0,0.0,0
6.0,-238.0,8.0,94.0,-292.0,18.0,0
16.0,-241.0,3.0,84.0,-281.0,34.0,0
16.0,-242.0,-1.0,70.0,-269.0,47.0,0
19.0,-245.0,-7.0,54.0,-258.0,57.0,0
24.0,-247.0,-7.0,38.0,-253.0,65.0,0
28.0,-249.0,-15.0,17.0,-250.0,66.0,0
27.0,-249.0,-11.0,-6.0,-249.0,66.0,0
32.0,-250.0,-22.0,-28.0,-249.0,64.0,0
28.0,-252.0,-22.0,-53.0,-246.0,60.0,0
24.0,-254.0,-26.0,-79.0,-238.0,55.0,0
27.0,-257.0,-25.0,-108.0,-225.0,51.0,0
18.0,-263.0,-27.0,-135.0,-200.0,47.0,0
17.0,-272.0,-26.0,-161.0,-166.0,43.0,0
16.0,-278.0,-28.0,-185.0,-122.0,45.0,0
14.0,-285.0,-31.0,-205.0,-72.0,46.0,0
14.0,-293.0,-29.0,-220.0,-22.0,45.0,0
14.0,-298.0,-31.0,-237.0,27.0,41.0,0
19.0,-304.0,-30.0,-251.0,69.0,37.0,0
22.0,-311.0,-17.0,-258.0,103.0,26.0,0
24.0,-311.0,-4.0,-251.0,121.0,10.0,0
22.0,-319.0,5.0,-233.0,129.0,-9.0,0
32.0,-321.0,17.0,-200.0,124.0,-40.0,0
8.0,-322.0,20.0,-160.0,108.0,-93.0,0
6.0,-323.0,23.0,-126.0,104.0,-101.0,0
1.0,-321.0,23.0,-88.0,90.0,-122.0,0
-9.0,-314.0,21.0,-63.0,66.0,-147.0,0
-16.0,-306.0,25.0,-51.0,40.0,-172.0,0
-20.0,-304.0,23.0,-49.0,14.0,-195.0,0
-33.0,-291.0,22.0,-53.0,-10.0,-219.0,0
-39.0,-281.0,27.0,-61.0,-29.0,-242.0,0
-41.0,-272.0,33.0,-76.0,-50.0,-274.0,0
-37.0,-268.0,39.0,-99.0,-78.0,-292.0,0
-42.0,-267.0,41.0,-134.0,-99.0,-294.0,0
-38.0,-264.0,32.0,-181.0,-105.0,-294.0,0
-29.0,-270.0,20.0,-251.0,-106.0,-293.0,0
-13.0,-278.0,10.0,-337.0,-113.0,-295.0,0
2.0,-288.0,4.0,-424.0,-122.0,-303.0,0
16.0,-296.0,-10.0,-491.0,-140.0,-334.0,0
27.0,-300.0,-18.0,-532.0,-162.0,-373.0,0
39.0,-314.0,-28.0,-551.0,-175.0,-419.0,0
49.0,-321.0,-27.0,-571.0,-178.0,-471.0,0
52.0,-311.0,-21.0,-597.0,-163.0,-537.0,0
68.0,-310.0,-18.0,-636.0,-134.0,-582.0,0
71.0,-296.0,-18.0,-681.0,-83.0,-625.0,0
73.0,-287.0,-11.0,-726.0,-20.0,-656.0,0
67.0,-286.0,-17.0,-762.0,39.0,-678.0,0
59.0,-287.0,-22.0,-788.0,85.0,-695.0,0
51.0,-290.0,-24.0,-805.0,110.0,-709.0,0
45.0,-299.0,-27.0,-819.0,112.0,-718.0,0
41.0,-309.0,-35.0,-831.0,99.0,-721.0,0
38.0,-315.0,-41.0,-837.0,76.0,-718.0,0
29.0,-317.0,-45.0,-824.0,48.0,-703.0,0
18.0,-322.0,-47.0,-783.0,24.0,-681.0,0
7.0,-323.0,-49.0,-719.0,-2.0,-650.0,0
-4.0,-324.0,-57.0,-648.0,-37.0,-610.0,0
-15.0,-320.0,-70.0,-593.0,-79.0,-568.0,0
-15.0,-319.0,-82.0,-557.0,-121.0,-528.0,0
-16.0,-318.0,-93.0,-536.0,-164.0,-495.0,0
-11.0,-310.0,-107.0,-502.0,-194.0,-489.0,0
-23.0,-291.0,-113.0,-448.0,-225.0,-476.0,0
-27.0,-270.0,-129.0,-404.0,-302.0,-428.0,0
-27.0,-250.0,-141.0,-371.0,-393.0,-385.0,0
-15.0,-218.0,-156.0,-332.0,-442.0,-372.0,0
-16.0,-183.0,-156.0,-301.0,-462.0,-374.0,0
-6.0,-158.0,-154.0,-337.0,-513.0,-325.0,0
6.0,-138.0,-145.0,-417.0,-550.0,-274.0,0
16.0,-130.0,-140.0,-519.0,-536.0,-255.0,0
20.0,-131.0,-132.0,-635.0,-481.0,-250.0,0
24.0,-150.0,-114.0,-754.0,-413.0,-235.0,0
24.0,-172.0,-109.0,-847.0,-341.0,-209.0,0
27.0,-194.0,-102.0,-909.0,-272.0,-170.0,0
39.0,-219.0,-90.0,-944.0,-208.0,-136.0,0
46.0,-253.0,-86.0,-954.0,-154.0,-112.0,0
35.0,-265.0,-78.0,-944.0,-116.0,-95.0,0
44.0,-300.0,-74.0,-894.0,-74.0,-64.0,0
38.0,-318.0,-72.0,-842.0,-58.0,-70.0,0
32.0,-333.0,-73.0,-782.0,-75.0,-83.0,0
24.0,-345.0,-71.0,-711.0,-98.0,-97.0,0
8.0,-351.0,-70.0,-608.0,-118.0,-112.0,0
-8.0,-357.0,-70.0,-482.0,-147.0,-100.0,0
-14.0,-355.0,-70.0,-343.0,-175.0,-68.0,0
-14.0,-347.0,-75.0,-196.0,-203.0,-24.0,0
-11.0,-330.0,-80.0,-47.0,-228.0,26.0,0
-9.0,-312.0,-87.0,86.0,-243.0,76.0,0
-6.0,-291.0,-102.0,186.0,-245.0,129.0,0
-5.0,-267.0,-114.0,235.0,-245.0,182.0,0
-6.0,-247.0,-123.0,213.0,-258.0,232.0,0
-5.0,-226.0,-128.0,132.0,-282.0,275.0,0
-1.0,-210.0,-133.0,11.0,-314.0,312.0,0
-1.0,-200.0,-127.0,-130.0,-350.0,344.0,0
14.0,-201.0,-124.0,-269.0,-381.0,377.0,0
9.0,-194.0,-112.0,-394.0,-396.0,400.0,0
14.0,-196.0,-109.0,-488.0,-412.0,406.0,0
17.0,-197.0,-90.0,-543.0,-415.0,402.0,0
19.0,-198.0,-88.0,-563.0,-408.0,381.0,0
20.0,-201.0,-90.0,-561.0,-393.0,354.0,0
23.0,-208.0,-85.0,-549.0,-368.0,322.0,0
21.0,-213.0,-82.0,-535.0,-333.0,282.0,0
20.0,-214.0,-83.0,-519.0,-287.0,253.0,0
19.0,-218.0,-79.0,-505.0,-235.0,222.0,0
17.0,-222.0,-79.0,-490.0,-180.0,200.0,0
25.0,-220.0,-79.0,-476.0,-121.0,174.0,0
25.0,-219.0,-74.0,-464.0,-53.0,155.0,0
23.0,-213.0,-76.0,-456.0,12.0,142.0,0
23.0,-211.0,-78.0,-452.0,75.0,134.0,0
24.0,-209.0,-80.0,-456.0,132.0,132.0,0
19.0,-200.0,-79.0,-465.0,181.0,128.0,0
23.0,-206.0,-78.0,-478.0,230.0,129.0,0
11.0,-207.0,-94.0,-501.0,281.0,148.0,0
6.0,-203.0,-98.0,-515.0,323.0,183.0,0
9.0,-201.0,-110.0,-531.0,355.0,219.0,0
8.0,-204.0,-113.0,-574.0,401.0,263.0,0
12.0,-202.0,-113.0,-645.0,454.0,297.0,0
14.0,-195.0,-110.0,-716.0,492.0,319.0,0
21.0,-196.0,-108.0,-757.0,516.0,339.0,0
22.0,-196.0,-104.0,-777.0,529.0,355.0,0
26.0,-194.0,-102.0,-786.0,536.0,372.0,0
29.0,-195.0,-99.0,-789.0,540.0,385.0,0
28.0,-203.0,-102.0,-800.0,545.0,394.0,0
22.0,-203.0,-91.0,-818.0,540.0,405.0,0
9.0,-204.0,-86.0,-840.0,507.0,413.0,0
-1.0,-211.0,-84.0,-861.0,443.0,423.0,0
-15.0,-210.0,-77.0,-872.0,362.0,438.0,0
-29.0,-210.0,-69.0,-868.0,270.0,454.0,0
-35.0,-213.0,-62.0,-855.0,182.0,472.0,0
-42.0,-212.0,-57.0,-831.0,112.0,488.0,0
-43.0,-217.0,-59.0,-798.0,67.0,497.0,0
-43.0,-211.0,-55.0,-759.0,51.0,501.0,0
-36.0,-214.0,-52.0,-721.0,62.0,499.0,0
-35.0,-211.0,-52.0,-684.0,95.0,496.0,0
-25.0,-212.0,-61.0,-649.0,148.0,488.0,0
-23.0,-213.0,-69.0,-618.0,217.0,472.0,0
-16.0,-216.0,-81.0,-593.0,296.0,452.0,0
-10.0,-219.0,-100.0,-576.0,375.0,427.0,0
3.0,-223.0,-107.0,-574.0,454.0,386.0,0
10.0,-221.0,-119.0,-587.0,534.0,330.0,0
17.0,-235.0,-123.0,-613.0,609.0,280.0,0
19.0,-250.0,-122.0,-648.0,693.0,220.0,0
19.0,-258.0,-123.0,-664.0,749.0,163.0,0
17.0,-273.0,-127.0,-654.0,769.0,123.0,0
11.0,-294.0,-120.0,-612.0,771.0,99.0,0
12.0,-312.0,-116.0,-539.0,757.0,94.0,0
14.0,-322.0,-120.0,-439.0,741.0,95.0,0
15.0,-332.0,-119.0,-331.0,738.0,96.0,0
18.0,-333.0,-115.0,-239.0,766.0,104.0,0
16.0,-333.0,-114.0,-156.0,815.0,125.0,0
16.0,-340.0,-113.0,-88.0,879.0,164.0,0
14.0,-344.0,-113.0,-31.0,918.0,214.0,0
22.0,-357.0,-114.0,17.0,915.0,258.0,0
30.0,-358.0,-115.0,62.0,876.0,296.0,0
39.0,-370.0,-117.0,113.0,829.0,333.0,0
44.0,-367.0,-111.0,182.0,765.0,366.0,0
48.0,-363.0,-107.0,263.0,704.0,403.0,0
54.0,-363.0,-103.0,327.0,641.0,443.0,0
62.0,-362.0,-102.0,364.0,589.0,490.0,0
63.0,-365.0,-100.0,374.0,563.0,537.0,0
60.0,-365.0,-98.0,360.0,565.0,572.0,0
45.0,-364.0,-102.0,323.0,573.0,606.0,0
35.0,-368.0,-99.0,269.0,576.0,651.0,0
37.0,-383.0,-97.0,196.0,577.0,699.0,0
32.0,-398.0,-89.0,123.0,588.0,746.0,0
28.0,-410.0,-79.0,60.0,608.0,786.0,0
26.0,-430.0,-77.0,12.0,622.0,820.0,0
24.0,-445.0,-78.0,-27.0,632.0,853.0,0
18.0,-459.0,-81.0,-67.0,648.0,890.0,0
17.0,-472.0,-83.0,-105.0,664.0,922.0,0
13.0,-483.0,-90.0,-127.0,676.0,941.0,0
10.0,-499.0,-90.0,-145.0,691.0,950.0,0
4.0,-505.0,-94.0,-163.0,698.0,951.0,0
-1.0,-508.0,-90.0,-183.0,689.0,943.0,0
2.0,-512.0,-93.0,-200.0,672.0,936.0,0
-1.0,-509.0,-93.0,-204.0,662.0,934.0,0
6.0,-498.0,-92.0,-202.0,664.0,952.0,0
16.0,-493.0,-93.0,-174.0,675.0,980.0,0
17.0,-475.0,-88.0,-183.0,685.0,982.0,0
19.0,-449.0,-89.0,-183.0,694.0,975.0,0
21.0,-419.0,-96.0,-177.0,713.0,980.0,0
26.0,-395.0,-88.0,-198.0,744.0,984.0,0
28.0,-370.0,-85.0,-227.0,780.0,973.0,0
30.0,-339.0,-81.0,-285.0,819.0,948.0,0
25.0,-318.0,-72.0,-353.0,855.0,913.0,0
24.0,-297.0,-60.0,-417.0,880.0,866.0,0
18.0,-270.0,-46.0,-481.0,872.0,803.0,0
15.0,-249.0,-31.0,-552.0,817.0,728.0,0
3.0,-213.0,-10.0,-610.0,739.0,657.0,0
-5.0,-175.0,9.0,-634.0,640.0,600.0,0
-8.0,-130.0,15.0,-617.0,531.0,560.0,0
-22.0,-89.0,15.0,-582.0,442.0,531.0,0
-45.0,-53.0,20.0,-555.0,380.0,508.0,0
-60.0,-33.0,25.0,-532.0,332.0,474.0,0
-72.0,-18.0,31.0,-541.0,280.0,399.0,0
-81.0,-1.0,50.0,-567.0,210.0,296.0,0
-77.0,5.0,51.0,-559.0,129.0,212.0,0
-71.0,15.0,52.0,-545.0,59.0,128.0,0
-51.0,7.0,29.0,-546.0,41.0,28.0,0
-47.0,14.0,19.0,-573.0,96.0,-89.0,0
-37.0,14.0,16.0,-600.0,203.0,-185.0,0
-39.0,7.0,20.0,-624.0,340.0,-263.0,0
-41.0,-15.0,28.0,-651.0,469.0,-333.0,0
-44.0,-29.0,33.0,-664.0,561.0,-408.0,0
-52.0,-38.0,48.0,-630.0,621.0,-481.0,0
-54.0,-50.0,59.0,-515.0,652.0,-530.0,0
-49.0,-61.0,59.0,-349.0,663.0,-551.0,0
-49.0,-62.0,68.0,-165.0,665.0,-580.0,0
-47.0,-68.0,53.0,29.0,664.0,-604.0,0
-38.0,-67.0,53.0,219.0,674.0,-627.0,0
-30.0,-64.0,57.0,400.0,701.0,-654.0,0
-24.0,-60.0,58.0,589.0,737.0,-671.0,0
-27.0,-57.0,66.0,798.0,767.0,-679.0,0
-19.0,-61.0,64.0,1016.0,791.0,-688.0,0
-18.0,-57.0,78.0,1241.0,812.0,-701.0,0
-17.0,-53.0,94.0,1485.0,821.0,-716.0,0
-24.0,-57.0,100.0,1741.0,811.0,-716.0,0
-20.0,-50.0,115.0,1992.0,781.0,-708.0,0
-36.0,-60.0,115.0,2248.0,741.0,-713.0,0
-45.0,-53.0,119.0,2487.0,700.0,-720.0,0
-52.0,-61.0,121.0,2713.0,653.0,-718.0,0
-60.0,-63.0,108.0,2882.0,632.0,-701.0,0
-68.0,-64.0,84.0,2987.0,682.0,-687.0,0
-69.0,-64.0,53.0,3020.0,817.0,-671.0,0
-76.0,-58.0,1.0,3003.0,993.0,-652.0,0
-76.0,-47.0,-72.0,2921.0,1137.0,-639.0,0
-78.0,-32.0,-145.0,2715.0,1193.0,-651.0,0
20.0,-43.0,-266.0,2349.0,1177.0,-686.0,0
205.0,-163.0,-512.0,1852.0,1088.0,-751.0,0
88.0,-127.0,-639.0,1149.0,808.0,-964.0,0
-103.0,-67.0,-915.0,-119.0,246.0,-1226.0,0
-245.0,-33.0,-975.0,-1928.0,-1080.0,-1406.0,0
-324.0,-98.0,-1045.0,-3003.0,-2741.0,-1524.0,0
-575.0,-334.0,-1015.0,-2959.0,-3486.0,-1451.0,0
-974.0,-756.0,-821.0,-2634.0,-2543.0,-705.0,0
-535.0,-1051.0,-235.0,-2859.0,-370.0,630.0,0
36.0,-1192.0,518.0,-2584.0,1139.0,1627.0,0
175.0,-1020.0,441.0,-1287.0,1026.0,1538.0,0
250.0,-797.0,221.0,-139.0,859.0,1187.0,0
393.0,-643.0,-17.0,603.0,1078.0,1157.0,0
453.0,-654.0,-17.0,1182.0,1117.0,1413.0,0
438.0,-684.0,-204.0,2175.0,622.0,1613.0,0
454.0,-574.0,-523.0,3030.0,-421.0,1549.0,0
497.0,-429.0,-691.0,3112.0,-1335.0,1305.0,0
444.0,-359.0,-689.0,2420.0,-1304.0,966.0,0
325.0,-320.0,-534.0,1238.0,-587.0,555.0,0
196.0,-273.0,-362.0,77.0,123.0,138.0,0
75.0,-253.0,-226.0,-740.0,468.0,-130.0,0
-5.0,-254.0,-135.0,-1144.0,542.0,-246.0,0
-76.0,-276.0,-101.0,-1205.0,600.0,-307.0,0
-148.0,-287.0,-69.0,-1069.0,726.0,-370.0,0
-207.0,-300.0,-52.0,-823.0,798.0,-429.0,0
-257.0,-297.0,-41.0,-572.0,681.0,-471.0,0
-311.0,-281.0,-27.0,-397.0,363.0,-463.0,0
-330.0,-265.0,-12.0,-258.0,19.0,-398.0,0
-293.0,-263.0,-5.0,-79.0,-285.0,-305.0,0
-256.0,-263.0,-31.0,84.0,-614.0,-272.0,0
-239.0,-258.0,-90.0,139.0,-917.0,-275.0,0
-209.0,-271.0,-127.0,39.0,-1054.0,-245.0,0
-179.0,-303.0,-149.0,-187.0,-1026.0,-214.0,0
-151.0,-337.0,-138.0,-498.0,-965.0,-154.0,0
-129.0,-376.0,-124.0,-753.0,-949.0,-89.0,0
-122.0,-395.0,-109.0,-917.0,-1000.0,-49.0,0
-102.0,-432.0,-111.0,-1009.0,-1073.0,-11.0,0
-54.0,-444.0,-102.0,-1043.0,-1134.0,10.0,0
-26.0,-441.0,-98.0,-975.0,-1169.0,-31.0,0
22.0,-422.0,-76.0,-848.0,-1161.0,-169.0,0
55.0,-393.0,-63.0,-727.0,-1256.0,-259.0,0
70.0,-369.0,-50.0,-621.0,-1471.0,-367.0,0
71.0,-342.0,-51.0,-475.0,-1695.0,-520.0,0
76.0,-320.0,-54.0,-299.0,-1858.0,-654.0,0
88.0,-303.0,-57.0,-150.0,-1958.0,-764.0,0
82.0,-271.0,-56.0,-42.0,-2014.0,-863.0,0
83.0,-247.0,-58.0,28.0,-2010.0,-932.0,0
75.0,-216.0,-52.0,60.0,-1967.0,-995.0,0
62.0,-193.0,-61.0,46.0,-1922.0,-1057.0,0
46.0,-161.0,-68.0,-19.0,-1889.0,-1114.0,0
28.0,-143.0,-72.0,-110.0,-1852.0,-1131.0,0
19.0,-136.0,-81.0,-216.0,-1780.0,-1118.0,0
18.0,-131.0,-75.0,-333.0,-1693.0,-1073.0,0
21.0,-132.0,-73.0,-482.0,-1706.0,-972.0,0
31.0,-136.0,-84.0,-646.0,-1730.0,-882.0,0
27.0,-150.0,-88.0,-804.0,-1688.0,-816.0,0
39.0,-148.0,-79.0,-935.0,-1579.0,-747.0,0
45.0,-157.0,-76.0,-1031.0,-1464.0,-686.0,0
60.0,-162.0,-65.0,-1084.0,-1353.0,-654.0,0
95.0,-157.0,-38.0,-1083.0,-1277.0,-642.0,0
114.0,-149.0,-22.0,-1053.0,-1301.0,-627.0,0
136.0,-147.0,-8.0,-1027.0,-1379.0,-637.0,0
127.0,-148.0,2.0,-991.0,-1426.0,-673.0,0
121.0,-149.0,11.0,-936.0,-1393.0,-735.0,0
110.0,-151.0,23.0,-837.0,-1308.0,-800.0,0
99.0,-160.0,38.0,-704.0,-1231.0,-851.0,0
86.0,-168.0,47.0,-554.0,-1184.0,-891.0,0
66.0,-182.0,52.0,-392.0,-1137.0,-917.0,0
49.0,-194.0,56.0,-229.0,-1072.0,-924.0,0
43.0,-199.0,61.0,-31.0,-1007.0,-911.0,0
27.0,-203.0,63.0,183.0,-947.0,-896.0,0
16.0,-202.0,64.0,394.0,-882.0,-870.0,0
18.0,-202.0,64.0,587.0,-817.0,-820.0,0
24.0,-200.0,69.0,767.0,-746.0,-761.0,0
32.0,-188.0,69.0,932.0,-650.0,-688.0,0
45.0,-171.0,66.0,1085.0,-519.0,-636.0,0
50.0,-157.0,66.0,1218.0,-352.0,-598.0,0
65.0,-132.0,56.0,1316.0,-189.0,-560.0,0
68.0,-116.0,28.0,1379.0,-66.0,-499.0,0
70.0,-96.0,12.0,1391.0,23.0,-426.0,0
68.0,-79.0,-11.0,1368.0,82.0,-345.0,0
62.0,-73.0,-29.0,1333.0,106.0,-259.0,0
50.0,-72.0,-38.0,1275.0,96.0,-178.0,0
42.0,-76.0,-41.0,1227.0,51.0,-74.0,0
36.0,-93.0,-47.0,1210.0,-24.0,50.0,0
33.0,-110.0,-51.0,1224.0,-106.0,180.0,0
31.0,-159.0,-101.0,1253.0,-161.0,314.0,0
94.0,-221.0,-183.0,1240.0,-151.0,471.0,0
179.0,-220.0,-256.0,1248.0,71.0,633.0,0
201.0,-189.0,-339.0,1311.0,454.0,724.0,0
200.0,-153.0,-459.0,1263.0,682.0,749.0,0
201.0,-142.0,-581.0,1010.0,767.0,714.0,0
355.0,-212.0,-632.0,616.0,842.0,682.0,0
407.0,-386.0,-554.0,318.0,1029.0,616.0,0
262.0,-563.0,-353.0,113.0,1242.0,299.0,0
107.0,-623.0,-127.0,-127.0,1072.0,-334.0,0
94.0,-634.0,80.0,-213.0,542.0,-783.0,0
90.0,-637.0,193.0,-42.0,89.0,-866.0,0
39.0,-606.0,140.0,175.0,-72.0,-960.0,0
-153.0,-566.0,-3.0,280.0,59.0,-1214.0,0
-345.0,-539.0,-204.0,281.0,200.0,-1526.0,0
-500.0,-530.0,-355.0,285.0,159.0,-1720.0,0
-545.0,-524.0,-426.0,464.0,41.0,-1712.0,0
-442.0,-481.0,-414.0,897.0,-19.0,-1440.0,0
-275.0,-422.0,-362.0,1291.0,-220.0,-991.0,0
-175.0,-331.0,-329.0,1415.0,-645.0,-790.0,0
-116.0,-268.0,-309.0,1284.0,-1058.0,-691.0,0
-54.0,-224.0,-283.0,944.0,-1257.0,-538.0,0
-8.0,-201.0,-254.0,493.0,-1296.0,-352.0,0
38.0,-203.0,-223.0,46.0,-1293.0,-184.0,0
80.0,-214.0,-200.0,-308.0,-1273.0,-50.0,0
134.0,-237.0,-175.0,-530.0,-1173.0,51.0,0
168.0,-253.0,-142.0,-620.0,-979.0,71.0,0
185.0,-270.0,-121.0,-615.0,-747.0,5.0,0
179.0,-297.0,-116.0,-564.0,-541.0,-100.0,0
159.0,-322.0,-118.0,-490.0,-374.0,-197.0,0
147.0,-346.0,-128.0,-385.0,-248.0,-245.0,0
138.0,-358.0,-148.0,-237.0,-163.0,-253.0,0
142.0,-381.0,-165.0,-96.0,-113.0,-236.0,0
153.0,-394.0,-167.0,-33.0,-89.0,-203.0,0
129.0,-401.0,-152.0,-3.0,-80.0,-193.0,0
116.0,-418.0,-134.0,27.0,-70.0,-167.0,0
96.0,-423.0,-112.0,80.0,-52.0,-121.0,0
71.0,-434.0,-95.0,161.0,-47.0,-58.0,0
73.0,-434.0,-94.0,271.0,-28.0,41.0,0
59.0,-421.0,-102.0,348.0,-30.0,134.0,0
57.0,-390.0,-98.0,377.0,-29.0,235.0,0
60.0,-351.0,-103.0,400.0,9.0,315.0,0
51.0,-325.0,-94.0,399.0,66.0,380.0,0
33.0,-301.0,-85.0,392.0,136.0,436.0,0
24.0,-274.0,-72.0,412.0,214.0,486.0,0
16.0,-259.0,-66.0,459.0,284.0,534.0,0
2.0,-242.0,-61.0,515.0,334.0,576.0,0
-8.0,-231.0,-58.0,563.0,373.0,610.0,0
-16.0,-213.0,-53.0,595.0,402.0,646.0,0
-22.0,-196.0,-54.0,607.0,421.0,682.0,0
-18.0,-179.0,-54.0,591.0,434.0,717.0,0
-8.0,-169.0,-51.0,552.0,449.0,743.0,0
-9.0,-147.0,-48.0,490.0,477.0,765.0,0
-5.0,-132.0,-42.0,410.0,524.0,788.0,0
-2.0,-122.0,-42.0,316.0,581.0,807.0,0
-3.0,-120.0,-39.0,212.0,640.0,822.0,0
1.0,-121.0,-37.0,114.0,701.0,834.0,0
0.0,-121.0,-23.0,34.0,759.0,843.0,0
-1.0,-121.0,-22.0,-23.0,807.0,846.0,0
-3.0,-123.0,-8.0,-65.0,842.0,842.0,0
2.0,-125.0,-11.0,-92.0,863.0,830.0,0
0.0,-129.0,-5.0,-108.0,877.0,816.0,0
-1.0,-133.0,-5.0,-118.0,895.0,803.0,0
-4.0,-143.0,-7.0,-128.0,913.0,784.0,0
-6.0,-146.0,-3.0,-124.0,926.0,763.0,0
-4.0,-157.0,0.0,-93.0,940.0,745.0,0
-8.0,-165.0,-4.0,-42.0,963.0,725.0,0
-7.0,-172.0,3.0,24.0,985.0,704.0,0
-4.0,-178.0,6.0,106.0,1006.0,679.0,0
2.0,-181.0,9.0,202.0,1031.0,653.0,0
5.0,-189.0,14.0,308.0,1057.0,624.0,0
10.0,-190.0,28.0,415.0,1089.0,592.0,0
17.0,-193.0,29.0,520.0,1120.0,558.0,0
12.0,-193.0,38.0,621.0,1145.0,521.0,0
13.0,-187.0,43.0,712.0,1167.0,486.0,0
12.0,-183.0,45.0,793.0,1178.0,447.0,0
16.0,-173.0,44.0,857.0,1177.0,411.0,0
2.0,-170.0,47.0,898.0,1161.0,376.0,0
-6.0,-157.0,40.0,927.0,1130.0,350.0,0
-15.0,-146.0,41.0,934.0,1092.0,333.0,0
-25.0,-137.0,42.0,922.0,1039.0,320.0,0
-30.0,-129.0,39.0,899.0,971.0,313.0,0
-39.0,-127.0,36.0,869.0,893.0,303.0,0
-48.0,-117.0,33.0,830.0,812.0,289.0,0
-56.0,-116.0,22.0,779.0,731.0,281.0,0
-64.0,-111.0,24.0,724.0,655.0,272.0,0
-74.0,-111.0,19.0,676.0,584.0,264.0,0
-75.0,-108.0,24.0,640.0,524.0,253.0,0
-82.0,-106.0,16.0,626.0,482.0,241.0,0
-88.0,-112.0,14.0,604.0,453.0,231.0,0
-86.0,-122.0,12.0,566.0,438.0,221.0,0
-80.0,-128.0,7.0,516.0,424.0,205.0,0
-78.0,-136.0,9.0,459.0,409.0,172.0,0
-78.0,-141.0,6.0,395.0,394.0,138.0,0
-68.0,-158.0,7.0,335.0,381.0,134.0,0
-53.0,-161.0,13.0,283.0,384.0,80.0,0
-36.0,-173.0,16.0,243.0,378.0,6.0,0
-30.0,-178.0,22.0,205.0,380.0,-68.0,0
-15.0,-212.0,23.0,165.0,404.0,-137.0,0
-5.0,-259.0,-4.0,115.0,438.0,-195.0,0
-17.0,-334.0,-16.0,33.0,470.0,-210.0,0
-66.0,-352.0,-52.0,-34.0,464.0,-195.0,0
-89.0,-368.0,-116.0,-95.0,447.0,-111.0,0
-128.0,-402.0,-170.0,-244.0,481.0,-1.0,0
-175.0,-457.0,-233.0,-533.0,450.0,67.0,0
-260.0,-518.0,-275.0,-904.0,180.0,132.0,0
-307.0,-591.0,-306.0,-1190.0,-276.0,352.0,0
-277.0,-656.0,-256.0,-1272.0,-701.0,760.0,0
-73.0,-644.0,-164.0,-1089.0,-897.0,1098.0,0
26.0,-572.0,-84.0,-716.0,-919.0,1208.0,0
69.0,-501.0,-20.0,-269.0,-687.0,1230.0,0
113.0,-456.0,2.0,122.0,-353.0,1244.0,0
181.0,-433.0,-19.0,369.0,-87.0,1273.0,0
229.0,-410.0,-71.0,499.0,51.0,1256.0,0
253.0,-392.0,-136.0,568.0,114.0,1194.0,0
262.0,-377.0,-201.0,549.0,142.0,1135.0,0
253.0,-363.0,-247.0,390.0,109.0,1118.0,0
224.0,-354.0,-260.0,122.0,41.0,1081.0,0
184.0,-352.0,-236.0,-147.0,3.0,1039.0,0
156.0,-351.0,-195.0,-336.0,38.0,974.0,0
113.0,-354.0,-169.0,-437.0,147.0,897.0,0
89.0,-377.0,-146.0,-499.0,307.0,855.0,0
60.0,-394.0,-128.0,-539.0,471.0,820.0,0
43.0,-415.0,-110.0,-516.0,588.0,769.0,0
33.0,-433.0,-100.0,-395.0,662.0,703.0,0
16.0,-439.0,-100.0,-190.0,722.0,616.0,0
-4.0,-436.0,-94.0,47.0,766.0,525.0,0
-22.0,-419.0,-74.0,291.0,784.0,425.0,0
-48.0,-398.0,-81.0,527.0,754.0,325.0,0
-68.0,-369.0,-84.0,738.0,674.0,227.0,0
-75.0,-334.0,-75.0,904.0,553.0,136.0,0
-103.0,-304.0,-86.0,1016.0,418.0,40.0,0
-122.0,-276.0,-102.0,1045.0,272.0,-61.0,0
-136.0,-256.0,-114.0,978.0,118.0,-156.0,0
-130.0,-243.0,-126.0,802.0,-21.0,-226.0,0
-113.0,-237.0,-120.0,558.0,-116.0,-278.0,0
-104.0,-238.0,-108.0,313.0,-168.0,-324.0,0
-84.0,-233.0,-96.0,113.0,-187.0,-373.0,0
-79.0,-233.0,-87.0,-18.0,-187.0,-418.0,0
-68.0,-229.0,-77.0,-84.0,-165.0,-457.0,0
-63.0,-223.0,-70.0,-100.0,-133.0,-491.0,0
-56.0,-214.0,-63.0,-98.0,-114.0,-520.0,0
-49.0,-205.0,-56.0,-98.0,-128.0,-553.0,0
-35.0,-194.0,-51.0,-103.0,-164.0,-597.0,0
-23.0,-187.0,-52.0,-106.0,-211.0,-636.0,0
-18.0,-178.0,-50.0,-125.0,-263.0,-672.0,0
-18.0,-173.0,-46.0,-140.0,-317.0,-701.0,0
-16.0,-171.0,-51.0,-151.0,-366.0,-719.0,0
-15.0,-171.0,-54.0,-158.0,-414.0,-725.0,0
-15.0,-167.0,-56.0,-155.0,-462.0,-722.0,0
-17.0,-167.0,-49.0,-138.0,-503.0,-698.0,0
-22.0,-174.0,-42.0,-115.0,-544.0,-675.0,0
-28.0,-180.0,-46.0,-85.0,-584.0,-647.0,0
-29.0,-178.0,-45.0,-46.0,-620.0,-618.0,0
-21.0,-181.0,-47.0,-11.0,-657.0,-578.0,0
-19.0,-185.0,-44.0,12.0,-684.0,-519.0,0
-19.0,-191.0,-39.0,19.0,-700.0,-466.0,0
-16.0,-192.0,-44.0,22.0,-722.0,-411.0,0
-24.0,-196.0,-44.0,15.0,-745.0,-357.0,0
-24.0,-195.0,-48.0,4.0,-762.0,-300.0,0
-14.0,-205.0,-49.0,-7.0,-773.0,-243.0,0
-11.0,-200.0,-46.0,-14.0,-785.0,-202.0,0
-9.0,-203.0,-52.0,-16.0,-804.0,-179.0,0
-6.0,-198.0,-47.0,-10.0,-818.0,-158.0,0
1.0,-199.0,-48.0,-4.0,-818.0,-139.0,0
16.0,-205.0,-38.0,5.0,-805.0,-120.0,0
24.0,-211.0,-32.0,19.0,-783.0,-114.0,0
30.0,-212.0,-27.0,45.0,-758.0,-120.0,0
38.0,-217.0,-21.0,86.0,-730.0,-119.0,0
42.0,-222.0,-9.0,140.0,-701.0,-114.0,0
43.0,-233.0,-9.0,211.0,-673.0,-113.0,0
45.0,-238.0,0.0,291.0,-647.0,-108.0,0
41.0,-242.0,0.0,381.0,-631.0,-101.0,0
42.0,-248.0,5.0,473.0,-625.0,-93.0,0
31.0,-245.0,-5.0,565.0,-626.0,-81.0,0
30.0,-245.0,-8.0,652.0,-633.0,-66.0,0
27.0,-242.0,-13.0,726.0,-640.0,-44.0,0
22.0,-239.0,-16.0,782.0,-646.0,-20.0,0
16.0,-229.0,-21.0,829.0,-650.0,-3.0,0
11.0,-227.0,-20.0,852.0,-651.0,17.0,0
6.0,-222.0,-20.0,854.0,-650.0,37.0,0
1.0,-216.0,-21.0,836.0,-650.0,58.0,0
-8.0,-214.0,-18.0,797.0,-642.0,77.0,0
-12.0,-209.0,-14.0,735.0,-627.0,95.0,0
-15.0,-206.0,-12.0,665.0,-606.0,113.0,0
-17.0,-205.0,-3.0,594.0,-585.0,126.0,0
-16.0,-207.0,1.0,524.0,-566.0,136.0,0
-19.0,-209.0,10.0,455.0,-543.0,141.0,0
-21.0,-213.0,18.0,393.0,-526.0,142.0,0
-24.0,-217.0,34.0,349.0,-523.0,143.0,0
-25.0,-225.0,34.0,314.0,-533.0,142.0,0
-23.0,-230.0,45.0,292.0,-548.0,143.0,0
-25.0,-238.0,33.0,268.0,-567.0,144.0,0
-26.0,-239.0,41.0,234.0,-591.0,144.0,0
-21.0,-244.0,31.0,195.0,-619.0,135.0,0
-22.0,-248.0,28.0,146.0,-650.0,126.0,0
-29.0,-248.0,19.0,78.0,-680.0,117.0,0
-30.0,-246.0,16.0,-4.0,-703.0,112.0,0
-30.0,-253.0,7.0,-92.0,-720.0,109.0,0
-20.0,-256.0,6.0,-186.0,-725.0,104.0,0
-2.0,-258.0,-6.0,-267.0,-699.0,114.0,0
11.0,-266.0,-4.0,-335.0,-641.0,113.0,0
18.0,-270.0,-4.0,-399.0,-583.0,98.0,0
32.0,-272.0,9.0,-458.0,-540.0,74.0,0
44.0,-282.0,15.0,-501.0,-511.0,48.0,0
45.0,-285.0,22.0,-515.0,-490.0,22.0,0
52.0,-282.0,30.0,-507.0,-479.0,2.0,0
57.0,-288.0,38.0,-485.0,-471.0,-13.0,0
56.0,-289.0,43.0,-452.0,-461.0,-25.0,0
56.0,-288.0,47.0,-423.0,-441.0,-35.0,0
71.0,-288.0,59.0,-396.0,-417.0,-51.0,0
47.0,-281.0,54.0,-377.0,-420.0,-116.0,0
46.0,-293.0,57.0,-365.0,-402.0,-149.0,0
43.0,-289.0,52.0,-357.0,-358.0,-170.0,0
31.0,-287.0,51.0,-364.0,-332.0,-196.0,0
33.0,-287.0,41.0,-378.0,-313.0,-214.0,0
36.0,-293.0,36.0,-394.0,-292.0,-237.0,0
25.0,-290.0,32.0,-423.0,-270.0,-264.0,0
15.0,-292.0,24.0,-455.0,-254.0,-284.0,0
6.0,-293.0,18.0,-486.0,-252.0,-294.0,0
-3.0,-298.0,6.0,-511.0,-268.0,-299.0,0
-5.0,-303.0,-5.0,-534.0,-281.0,-297.0,0
-1.0,-311.0,-12.0,-566.0,-265.0,-294.0,0
7.0,-315.0,-23.0,-597.0,-218.0,-305.0,0
11.0,-321.0,-32.0,-626.0,-159.0,-331.0,0
12.0,-326.0,-39.0,-652.0,-101.0,-373.0,0
13.0,-333.0,-36.0,-676.0,-42.0,-427.0,0
15.0,-336.0,-38.0,-692.0,13.0,-492.0,0
27.0,-331.0,-43.0,-708.0,68.0,-568.0,0
35.0,-327.0,-46.0,-716.0,118.0,-651.0,0
43.0,-319.0,-46.0,-727.0,170.0,-734.0,0
46.0,-307.0,-49.0,-741.0,219.0,-818.0,0
51.0,-300.0,-48.0,-756.0,269.0,-888.0,0
49.0,-280.0,-57.0,-758.0,328.0,-972.0,0
62.0,-275.0,-66.0,-769.0,379.0,-984.0,0
64.0,-266.0,-68.0,-790.0,441.0,-993.0,0
65.0,-257.0,-74.0,-800.0,501.0,-1004.0,0
64.0,-254.0,-79.0,-804.0,539.0,-990.0,0
57.0,-255.0,-89.0,-801.0,553.0,-965.0,0
52.0,-250.0,-85.0,-775.0,545.0,-936.0,0
48.0,-246.0,-89.0,-731.0,506.0,-882.0,0
45.0,-246.0,-89.0,-678.0,448.0,-817.0,0
42.0,-242.0,-90.0,-621.0,384.0,-745.0,0
35.0,-240.0,-95.0,-557.0,318.0,-670.0,0
28.0,-239.0,-104.0,-497.0,256.0,-590.0,0
21.0,-240.0,-105.0,-445.0,200.0,-509.0,0
11.0,-238.0,-108.0,-394.0,153.0,-439.0,0
-2.0,-240.0,-111.0,-345.0,117.0,-374.0,0
-2.0,-247.0,-111.0,-297.0,95.0,-317.0,0
-9.0,-262.0,-105.0,-242.0,87.0,-269.0,0
-7.0,-260.0,-95.0,-180.0,98.0,-231.0,0
-12.0,-272.0,-94.0,-109.0,123.0,-197.0,0
-15.0,-283.0,-93.0,-35.0,148.0,-169.0,0
-16.0,-290.0,-88.0,44.0,168.0,-147.0,0
-16.0,-294.0,-90.0,124.0,188.0,-130.0,0
-22.0,-295.0,-87.0,191.0,205.0,-118.0,0
-22.0,-290.0,-94.0,238.0,219.0,-111.0,0
-22.0,-290.0,-90.0,264.0,229.0,-110.0,0
-16.0,-290.0,-90.0,273.0,237.0,-112.0,0
-15.0,-285.0,-87.0,272.0,243.0,-112.0,0
-16.0,-284.0,-83.0,268.0,248.0,-111.0,0
-15.0,-282.0,-73.0,259.0,247.0,-109.0,0
-13.0,-282.0,-65.0,252.0,244.0,-100.0,0
-12.0,-279.0,-57.0,253.0,238.0,-84.0,0
-5.0,-278.0,-56.0,266.0,225.0,-56.0,0
-3.0,-271.0,-50.0,293.0,214.0,-44.0,0
0.0,-266.0,-51.0,323.0,205.0,-30.0,0
5.0,-259.0,-47.0,345.0,200.0,-10.0,0
13.0,-257.0,-52.0,354.0,206.0,13.0,0
22.0,-254.0,-54.0,350.0,222.0,30.0,0
32.0,-254.0,-55.0,333.0,242.0,49.0,0
37.0,-251.0,-57.0,300.0,261.0,75.0,0
43.0,-254.0,-60.0,261.0,284.0,105.0,0
48.0,-252.0,-58.0,227.0,308.0,131.0,0
50.0,-256.0,-59.0,195.0,328.0,154.0,0
53.0,-261.0,-60.0,172.0,341.0,183.0,0
56.0,-258.0,-60.0,163.0,353.0,215.0,0
53.0,-264.0,-61.0,165.0,362.0,250.0,0
51.0,-267.0,-58.0,162.0,373.0,289.0,0
51.0,-264.0,-52.0,164.0,387.0,326.0,0
49.0,-267.0,-52.0,172.0,403.0,352.0,0
57.0,-268.0,-43.0,180.0,420.0,370.0,0
46.0,-266.0,-50.0,189.0,438.0,379.0,0
38.0,-260.0,-49.0,194.0,457.0,384.0,0
32.0,-256.0,-51.0,197.0,476.0,390.0,0
30.0,-255.0,-49.0,200.0,489.0,398.0,0
24.0,-248.0,-49.0,199.0,499.0,399.0,0
18.0,-246.0,-48.0,192.0,511.0,396.0,0
14.0,-241.0,-50.0,179.0,528.0,394.0,0
10.0,-235.0,-42.0,165.0,552.0,390.0,0
1.0,-235.0,-46.0,152.0,576.0,381.0,0
-6.0,-233.0,-47.0,143.0,594.0,375.0,0
-10.0,-238.0,-45.0,135.0,611.0,370.0,0
-14.0,-234.0,-39.0,125.0,624.0,361.0,0
-15.0,-236.0,-32.0,115.0,636.0,355.0,0
-17.0,-236.0,-25.0,105.0,646.0,346.0,0
-18.0,-239.0,-26.0,97.0,654.0,337.0,0
-18.0,-242.0,-23.0,83.0,661.0,329.0,0
-21.0,-241.0,-17.0,71.0,670.0,322.0,0
-21.0,-247.0,-23.0,57.0,679.0,316.0,0
-18.0,-242.0,-18.0,44.0,687.0,309.0,0
-17.0,-247.0,-13.0,31.0,692.0,301.0,0
-11.0,-244.0,-14.0,23.0,695.0,290.0,0
-16.0,-245.0,-15.0,5.0,698.0,279.0,0
-18.0,-243.0,-11.0,-13.0,693.0,274.0,0
-15.0,-246.0,-13.0,-36.0,685.0,278.0,0
-12.0,-243.0,-8.0,-43.0,695.0,262.0,0
-6.0,-244.0,-11.0,-49.0,687.0,258.0,0
-6.0,-243.0,-11.0,-57.0,675.0,243.0,0
-7.0,-246.0,-11.0,-59.0,672.0,225.0,0
-9.0,-240.0,-10.0,-57.0,671.0,213.0,0
-3.0,-242.0,-5.0,-59.0,666.0,206.0,0
-7.0,-233.0,-12.0,-58.0,662.0,196.0,0
-6.0,-234.0,-13.0,-62.0,660.0,185.0,0
-8.0,-234.0,-9.0,-68.0,657.0,172.0,0
-6.0,-236.0,-9.0,-73.0,651.0,158.0,0
-4.0,-232.0,-4.0,-78.0,646.0,144.0,0
-8.0,-237.0,-4.0,-85.0,640.0,129.0,0
-5.0,-235.0,-2.0,-93.0,635.0,119.0,0
-2.0,-235.0,-1.0,-101.0,632.0,107.0,0
-6.0,-232.0,-2.0,-109.0,628.0,96.0,0
-2.0,-234.0,5.0,-112.0,627.0,88.0,0
-3.0,-237.0,7.0,-114.0,625.0,76.0,0
-3.0,-241.0,9.0,-120.0,618.0,61.0,0
-3.0,-237.0,8.0,-126.0,611.0,45.0,0
-1.0,-238.0,12.0,-133.0,604.0,29.0,0
-2.0,-239.0,15.0,-141.0,594.0,12.0,0
-4.0,-239.0,10.0,-149.0,585.0,-2.0,0
-8.0,-236.0,11.0,-159.0,576.0,-14.0,0
-5.0,-243.0,11.0,-166.0,570.0,-25.0,0
-10.0,-241.0,16.0,-170.0,562.0,-36.0,0
-9.0,-245.0,16.0,-168.0,553.0,-52.0,0
-13.0,-250.0,16.0,-166.0,547.0,-65.0,0
-14.0,-247.0,19.0,-159.0,543.0,-78.0,0
-16.0,-252.0,19.0,-145.0,538.0,-84.0,0
-17.0,-257.0,19.0,-126.0,535.0,-88.0,0
-15.0,-259.0,18.0,-103.0,533.0,-90.0,0
-16.0,-257.0,17.0,-76.0,526.0,-99.0,0
-22.0,-256.0,21.0,-52.0,516.0,-109.0,0
-23.0,-256.0,17.0,-22.0,506.0,-116.0,0
-25.0,-256.0,17.0,7.0,495.0,-115.0,0
-28.0,-256.0,18.0,30.0,474.0,-98.0,0
-18.0,-255.0,16.0,50.0,449.0,-76.0,0
-32.0,-256.0,16.0,66.0,425.0,-109.0,0
-37.0,-256.0,3.0,70.0,378.0,-135.0,0
-43.0,-255.0,-7.0,66.0,314.0,-136.0,0
-51.0,-257.0,-15.0,46.0,248.0,-113.0,0
-47.0,-253.0,-26.0,16.0,193.0,-100.0,0
-42.0,-251.0,-28.0,-19.0,149.0,-99.0,0
-42.0,-249.0,-21.0,-53.0,123.0,-93.0,0
-33.0,-252.0,-7.0,-72.0,109.0,-82.0,0
-24.0,-251.0,8.0,-73.0,100.0,-68.0,0
-17.0,-250.0,21.0,-50.0,97.0,-56.0,0
-13.0,-245.0,27.0,-21.0,96.0,-43.0,0
-3.0,-239.0,31.0,9.0,89.0,-27.0,0
5.0,-231.0,34.0,19.0,73.0,3.0,0
15.0,-221.0,33.0,11.0,65.0,13.0,0
13.0,-219.0,40.0,-13.0,58.0,33.0,0
9.0,-205.0,31.0,-51.0,56.0,53.0,0
28.0,-209.0,34.0,-100.0,68.0,95.0,0
28.0,-205.0,31.0,-160.0,75.0,101.0,0
27.0,-205.0,30.0,-223.0,86.0,85.0,0
22.0,-208.0,27.0,-287.0,100.0,85.0,0
23.0,-214.0,29.0,-346.0,116.0,101.0,0
24.0,-232.0,21.0,-398.0,134.0,116.0,0
14.0,-256.0,11.0,-454.0,158.0,127.0,0
-3.0,-275.0,0.0,-523.0,200.0,149.0,0
-21.0,-295.0,-21.0,-606.0,256.0,189.0,0
-39.0,-319.0,-50.0,-702.0,320.0,243.0,0
-50.0,-340.0,-61.0,-798.0,363.0,298.0,0
-53.0,-367.0,-74.0,-878.0,362.0,358.0,0
-49.0,-392.0,-73.0,-936.0,308.0,431.0,0
-39.0,-404.0,-60.0,-970.0,224.0,518.0,0
-28.0,-402.0,-43.0,-959.0,150.0,610.0,0
-26.0,-390.0,-25.0,-897.0,86.0,697.0,0
-28.0,-369.0,-10.0,-785.0,19.0,769.0,0
-32.0,-347.0,-9.0,-657.0,-55.0,824.0,0
-25.0,-326.0,-16.0,-549.0,-123.0,873.0,0
-28.0,-316.0,-21.0,-481.0,-172.0,905.0,0
-20.0,-305.0,-26.0,-457.0,-192.0,923.0,0
-20.0,-305.0,-34.0,-454.0,-178.0,925.0,0
-21.0,-313.0,-40.0,-463.0,-139.0,914.0,0
-16.0,-319.0,-46.0,-469.0,-91.0,888.0,0
-17.0,-331.0,-52.0,-444.0,-36.0,843.0,0
-21.0,-332.0,-62.0,-417.0,16.0,795.0,0
-17.0,-332.0,-73.0,-385.0,59.0,746.0,0
-8.0,-322.0,-80.0,-350.0,87.0,690.0,0
-1.0,-319.0,-97.0,-326.0,113.0,626.0,0
1.0,-310.0,-101.0,-328.0,145.0,562.0,0
-4.0,-305.0,-98.0,-346.0,184.0,493.0,0
-7.0,-292.0,-99.0,-368.0,216.0,417.0,0
-7.0,-290.0,-107.0,-375.0,237.0,337.0,0
-12.0,-286.0,-105.0,-362.0,251.0,265.0,0
-13.0,-282.0,-111.0,-326.0,262.0,202.0,0
-12.0,-273.0,-109.0,-270.0,275.0,152.0,0
-16.0,-262.0,-112.0,-211.0,287.0,94.0,0
-25.0,-251.0,-114.0,-165.0,302.0,34.0,0
-28.0,-247.0,-111.0,-133.0,319.0,-13.0,0
-32.0,-237.0,-109.0,-116.0,333.0,-50.0,0
-37.0,-234.0,-103.0,-107.0,333.0,-72.0,0
-41.0,-232.0,-97.0,-108.0,322.0,-84.0,0
-39.0,-227.0,-92.0,-114.0,295.0,-82.0,0
-38.0,-229.0,-90.0,-117.0,258.0,-68.0,0
-33.0,-228.0,-88.0,-117.0,214.0,-46.0,0
-34.0,-224.0,-86.0,-112.0,169.0,-24.0,0
-31.0,-223.0,-92.0,-104.0,121.0,3.0,0
-25.0,-227.0,-96.0,-112.0,75.0,29.0,0
-27.0,-224.0,-100.0,-129.0,24.0,42.0,0
-25.0,-228.0,-98.0,-147.0,-16.0,46.0,0
-21.0,-224.0,-88.0,-147.0,-54.0,45.0,0
-15.0,-232.0,-91.0,-138.0,-86.0,25.0,0
-16.0,-239.0,-85.0,-122.0,-111.0,-2.0,0
-31.0,-240.0,-71.0,-99.0,-125.0,-37.0,0
-29.0,-243.0,-62.0,-52.0,-126.0,-58.0,0
-31.0,-253.0,-56.0,8.0,-124.0,-75.0,0
-31.0,-255.0,-52.0,61.0,-123.0,-92.0,0
-37.0,-261.0,-51.0,114.0,-122.0,-118.0,0
-45.0,-264.0,-55.0,157.0,-122.0,-137.0,0
-45.0,-272.0,-60.0,181.0,-127.0,-138.0,0
-49.0,-283.0,-62.0,189.0,-144.0,-140.0,0
-46.0,-289.0,-71.0,180.0,-168.0,-137.0,0
-40.0,-293.0,-60.0,184.0,-193.0,-131.0,0
-39.0,-299.0,-67.0,222.0,-215.0,-130.0,0
-41.0,-306.0,-63.0,265.0,-243.0,-126.0,0
-41.0,-303.0,-64.0,311.0,-273.0,-122.0,0
-34.0,-305.0,-62.0,366.0,-300.0,-115.0,0
-32.0,-297.0,-60.0,412.0,-332.0,-118.0,0
-33.0,-285.0,-61.0,458.0,-367.0,-125.0,0
-28.0,-277.0,-60.0,487.0,-404.0,-136.0,0
-30.0,-270.0,-58.0,495.0,-441.0,-146.0,0
-27.0,-262.0,-61.0,485.0,-474.0,-158.0,0
-29.0,-256.0,-61.0,459.0,-505.0,-173.0,0
-25.0,-254.0,-60.0,429.0,-530.0,-192.0,0
-20.0,-250.0,-63.0,393.0,-547.0,-209.0,0
-16.0,-245.0,-63.0,354.0,-550.0,-226.0,0
-10.0,-249.0,-62.0,315.0,-545.0,-243.0,0
-9.0,-245.0,-62.0,281.0,-540.0,-269.0,0
-1.0,-244.0,-64.0,254.0,-520.0,-296.0,0
-5.0,-245.0,-66.0,239.0,-483.0,-335.0,0
15.0,-244.0,-57.0,242.0,-427.0,-345.0,0
20.0,-242.0,-54.0,232.0,-402.0,-361.0,0
19.0,-240.0,-61.0,225.0,-390.0,-416.0,0
25.0,-240.0,-62.0,217.0,-371.0,-441.0,0
29.0,-245.0,-62.0,204.0,-351.0,-459.0,0
34.0,-238.0,-59.0,191.0,-335.0,-479.0,0
36.0,-235.0,-63.0,180.0,-323.0,-500.0,0
38.0,-233.0,-66.0,169.0,-313.0,-511.0,0
37.0,-233.0,-63.0,155.0,-302.0,-520.0,0
28.0,-233.0,-61.0,140.0,-287.0,-528.0,0
29.0,-231.0,-61.0,120.0,-272.0,-520.0,0
25.0,-226.0,-60.0,101.0,-255.0,-508.0,0
18.0,-235.0,-62.0,91.0,-228.0,-493.0,0
9.0,-238.0,-47.0,68.0,-207.0,-475.0,0
1.0,-244.0,-48.0,51.0,-215.0,-464.0,0
-9.0,-253.0,-43.0,49.0,-231.0,-444.0,0
-8.0,-252.0,-38.0,66.0,-250.0,-429.0,0
-10.0,-251.0,-39.0,89.0,-260.0,-408.0,0
-14.0,-250.0,-38.0,115.0,-263.0,-379.0,0
-17.0,-249.0,-38.0,124.0,-268.0,-348.0,0
-22.0,-250.0,-37.0,121.0,-273.0,-319.0,0
-22.0,-253.0,-38.0,120.0,-281.0,-291.0,0
-24.0,-247.0,-32.0,125.0,-286.0,-265.0,0
-23.0,-254.0,-29.0,137.0,-293.0,-240.0,0
-24.0,-253.0,-28.0,145.0,-303.0,-215.0,0
-26.0,-250.0,-31.0,151.0,-316.0,-190.0,0
-22.0,-249.0,-30.0,152.0,-331.0,-166.0,0
-21.0,-249.0,-26.0,152.0,-345.0,-145.0,0
-21.0,-245.0,-26.0,148.0,-362.0,-126.0,0
-21.0,-247.0,-23.0,144.0,-378.0,-105.0,0
-21.0,-243.0,-21.0,135.0,-395.0,-88.0,0
-16.0,-244.0,-22.0,123.0,-413.0,-72.0,0
-17.0,-242.0,-22.0,110.0,-428.0,-56.0,0
-15.0,-241.0,-19.0,97.0,-438.0,-42.0,0
-16.0,-233.0,-15.0,80.0,-444.0,-30.0,0
-13.0,-239.0,-15.0,63.0,-450.0,-20.0,0
-14.0,-238.0,-6.0,45.0,-452.0,-9.0,0
-9.0,-241.0,-5.0,33.0,-452.0,0.0,0
-5.0,-242.0,-7.0,21.0,-451.0,7.0,0
-4.0,-237.0,-2.0,9.0,-448.0,15.0,0
1.0,-242.0,0.0,-1.0,-447.0,23.0,0
1.0,-245.0,-1.0,-4.0,-447.0,30.0,0
2.0,-245.0,0.0,-7.0,-448.0,40.0,0
5.0,-250.0,2.0,-9.0,-456.0,52.0,0
9.0,-247.0,3.0,-8.0,-465.0,60.0,0
10.0,-250.0,5.0,1.0,-481.0,62.0,0
12.0,-251.0,10.0,9.0,-499.0,66.0,0
6.0,-252.0,14.0,27.0,-517.0,65.0,0
8.0,-257.0,11.0,39.0,-536.0,64.0,0
11.0,-259.0,15.0,49.0,-558.0,64.0,0
8.0,-260.0,16.0,61.0,-578.0,65.0,0
4.0,-261.0,18.0,81.0,-594.0,61.0,0
9.0,-263.0,19.0,110.0,-606.0,61.0,0
5.0,-262.0,19.0,140.0,-613.0,63.0,0
4.0,-258.0,17.0,167.0,-621.0,65.0,0
5.0,-254.0,12.0,188.0,-622.0,73.0,0
1.0,-254.0,1.0,195.0,-609.0,87.0,0
4.0,-244.0,-7.0,183.0,-582.0,102.0,0
8.0,-243.0,-17.0,154.0,-562.0,125.0,0
12.0,-238.0,-17.0,108.0,-550.0,136.0,0
16.0,-238.0,-19.0,48.0,-547.0,140.0,0
13.0,-239.0,-10.0,-15.0,-550.0,145.0,0
19.0,-242.0,-9.0,-74.0,-554.0,154.0,0
18.0,-248.0,-2.0,-121.0,-554.0,163.0,0
21.0,-258.0,3.0,-151.0,-551.0,169.0,0
24.0,-265.0,14.0,-163.0,-539.0,169.0,0
31.0,-273.0,14.0,-163.0,-518.0,164.0,0
33.0,-273.0,16.0,-155.0,-493.0,141.0,0
28.0,-274.0,17.0,-143.0,-470.0,105.0,0
36.0,-279.0,20.0,-126.0,-432.0,75.0,0
46.0,-283.0,27.0,-105.0,-392.0,35.0,0
46.0,-287.0,27.0,-87.0,-358.0,-15.0,0
44.0,-287.0,32.0,-75.0,-322.0,-68.0,0
46.0,-289.0,37.0,-68.0,-291.0,-123.0,0
38.0,-292.0,37.0,-66.0,-270.0,-183.0,0
32.0,-291.0,41.0,-69.0,-258.0,-240.0,0
16.0,-294.0,37.0,-72.0,-261.0,-287.0,0
6.0,-293.0,32.0,-83.0,-284.0,-326.0,0
-3.0,-296.0,21.0,-95.0,-314.0,-353.0,0
-10.0,-295.0,18.0,-115.0,-344.0,-367.0,0
-12.0,-296.0,10.0,-138.0,-363.0,-370.0,0
-4.0,-300.0,-1.0,-165.0,-360.0,-371.0,0
5.0,-301.0,-7.0,-191.0,-332.0,-372.0,0
6.0,-306.0,-15.0,-219.0,-286.0,-385.0,0
6.0,-310.0,-24.0,-245.0,-236.0,-406.0,0
9.0,-314.0,-22.0,-273.0,-191.0,-437.0,0
11.0,-320.0,-31.0,-304.0,-151.0,-479.0,0
16.0,-328.0,-29.0,-336.0,-123.0,-527.0,0
21.0,-327.0,-30.0,-363.0,-107.0,-585.0,0
23.0,-329.0,-29.0,-380.0,-104.0,-648.0,0
23.0,-325.0,-25.0,-392.0,-108.0,-703.0,0
19.0,-321.0,-19.0,-395.0,-110.0,-755.0,0
25.0,-313.0,-30.0,-396.0,-115.0,-802.0,0
21.0,-301.0,-35.0,-397.0,-114.0,-840.0,0
24.0,-293.0,-40.0,-404.0,-97.0,-870.0,0
26.0,-281.0,-39.0,-403.0,-59.0,-902.0,0
35.0,-275.0,-43.0,-416.0,-40.0,-893.0,0
32.0,-267.0,-37.0,-435.0,-32.0,-890.0,0
33.0,-260.0,-35.0,-437.0,-29.0,-878.0,0
33.0,-258.0,-35.0,-423.0,-35.0,-855.0,0
33.0,-251.0,-35.0,-397.0,-54.0,-822.0,0
37.0,-246.0,-41.0,-369.0,-88.0,-774.0,0
29.0,-240.0,-37.0,-337.0,-121.0,-718.0,0
31.0,-234.0,-44.0,-306.0,-146.0,-646.0,0
29.0,-231.0,-45.0,-281.0,-164.0,-545.0,0
24.0,-229.0,-48.0,-260.0,-181.0,-467.0,0
25.0,-232.0,-50.0,-245.0,-199.0,-395.0,0
19.0,-235.0,-57.0,-231.0,-218.0,-330.0,0
16.0,-237.0,-66.0,-214.0,-237.0,-271.0,0
9.0,-238.0,-69.0,-195.0,-259.0,-220.0,0
7.0,-239.0,-75.0,-171.0,-281.0,-179.0,0
3.0,-239.0,-80.0,-149.0,-301.0,-144.0,0
-3.0,-248.0,-86.0,-131.0,-313.0,-116.0,0
1.0,-242.0,-96.0,-113.0,-317.0,-99.0,0
1.0,-241.0,-98.0,-97.0,-315.0,-90.0,0
-5.0,-242.0,-103.0,-85.0,-306.0,-86.0,0
-5.0,-245.0,-98.0,-74.0,-291.0,-91.0,0
-2.0,-249.0,-97.0,-62.0,-274.0,-103.0,0
-1.0,-248.0,-100.0,-49.0,-251.0,-122.0,0
-2.0,-254.0,-98.0,-37.0,-221.0,-145.0,0
-2.0,-256.0,-94.0,-25.0,-194.0,-168.0,0
-2.0,-259.0,-94.0,-14.0,-177.0,-189.0,0
-5.0,-266.0,-88.0,-6.0,-172.0,-208.0,0
-7.0,-269.0,-83.0,-2.0,-174.0,-225.0,0
-12.0,-270.0,-74.0,6.0,-185.0,-235.0,0
-12.0,-273.0,-66.0,17.0,-197.0,-241.0,0
-13.0,-274.0,-64.0,39.0,-210.0,-241.0,0
-10.0,-276.0,-59.0,63.0,-216.0,-233.0,0
-8.0,-283.0,-55.0,85.0,-212.0,-220.0,0
-5.0,-282.0,-54.0,105.0,-201.0,-204.0,0
0.0,-286.0,-55.0,126.0,-192.0,-184.0,0
6.0,-293.0,-58.0,146.0,-181.0,-154.0,0
12.0,-295.0,-50.0,171.0,-167.0,-132.0,0
16.0,-297.0,-48.0,205.0,-151.0,-104.0,0
29.0,-303.0,-46.0,246.0,-135.0,-74.0,0
30.0,-295.0,-48.0,297.0,-113.0,-40.0,0
37.0,-290.0,-42.0,350.0,-91.0,-3.0,0
41.0,-281.0,-41.0,395.0,-64.0,35.0,0
46.0,-280.0,-43.0,432.0,-34.0,72.0,0
50.0,-274.0,-44.0,454.0,-12.0,115.0,0
54.0,-267.0,-46.0,457.0,6.0,161.0,0
56.0,-266.0,-48.0,446.0,17.0,201.0,0
57.0,-259.0,-49.0,420.0,24.0,237.0,0
60.0,-256.0,-49.0,391.0,38.0,268.0,0
61.0,-252.0,-52.0,361.0,50.0,294.0,0
58.0,-249.0,-49.0,333.0,67.0,314.0,0
53.0,-247.0,-50.0,302.0,86.0,329.0,0
51.0,-246.0,-46.0,263.0,105.0,342.0,0
49.0,-250.0,-47.0,221.0,122.0,352.0,0
45.0,-246.0,-49.0,189.0,142.0,357.0,0
35.0,-246.0,-48.0,162.0,161.0,359.0,0
32.0,-246.0,-48.0,138.0,178.0,359.0,0
23.0,-247.0,-53.0,119.0,193.0,358.0,0
19.0,-249.0,-48.0,98.0,205.0,356.0,0
10.0,-245.0,-45.0,76.0,211.0,354.0,0
2.0,-245.0,-49.0,54.0,216.0,351.0,0
-4.0,-247.0,-45.0,35.0,219.0,350.0,0
-12.0,-245.0,-43.0,18.0,218.0,348.0,0
-16.0,-246.0,-36.0,1.0,212.0,345.0,0
-18.0,-240.0,-35.0,-17.0,202.0,343.0,0
-27.0,-237.0,-36.0,-34.0,189.0,343.0,0
-27.0,-239.0,-32.0,-51.0,180.0,345.0,0
-26.0,-238.0,-22.0,-69.0,173.0,345.0,0
-28.0,-238.0,-24.0,-82.0,170.0,345.0,0
-25.0,-238.0,-24.0,-95.0,168.0,345.0,0
-24.0,-238.0,-13.0,-102.0,168.0,342.0,0
-22.0,-242.0,-22.0,-112.0,169.0,340.0,0
-15.0,-243.0,-17.0,-123.0,169.0,338.0,0
-14.0,-242.0,-19.0,-132.0,167.0,337.0,0
-10.0,-244.0,-15.0,-138.0,166.0,338.0,0
-6.0,-245.0,-15.0,-147.0,163.0,337.0,0
-7.0,-247.0,-15.0,-154.0,154.0,366.0,0
9.0,-251.0,-10.0,-163.0,155.0,365.0,0
6.0,-247.0,-2.0,-162.0,158.0,335.0,0
6.0,-253.0,-12.0,-155.0,154.0,323.0,0
9.0,-251.0,-2.0,-145.0,160.0,322.0,0
4.0,-253.0,-3.0,-127.0,172.0,327.0,0
12.0,-259.0,-4.0,-115.0,191.0,325.0,0
11.0,-255.0,-5.0,-104.0,193.0,311.0,0
11.0,-254.0,-5.0,-81.0,201.0,300.0,0
7.0,-251.0,-4.0,-61.0,215.0,299.0,0
14.0,-252.0,-6.0,-52.0,221.0,290.0,0
9.0,-248.0,-9.0,-49.0,225.0,274.0,0
14.0,-249.0,-5.0,-49.0,228.0,260.0,0
7.0,-242.0,-5.0,-50.0,237.0,249.0,0
15.0,-243.0,-1.0,-53.0,247.0,238.0,0
13.0,-236.0,-4.0,-59.0,254.0,225.0,0
14.0,-237.0,-1.0,-67.0,260.0,217.0,0
11.0,-237.0,-5.0,-77.0,267.0,209.0,0
16.0,-241.0,3.0,-87.0,271.0,195.0,0
14.0,-240.0,-3.0,-101.0,274.0,181.0,0
14.0,-238.0,1.0,-112.0,277.0,164.0,0
13.0,-239.0,3.0,-122.0,285.0,146.0,0
16.0,-239.0,7.0,-132.0,294.0,142.0,0
18.0,-240.0,14.0,-134.0,307.0,135.0,0
14.0,-238.0,10.0,-132.0,322.0,105.0,0
13.0,-238.0,18.0,-127.0,344.0,77.0,0
16.0,-239.0,18.0,-119.0,370.0,54.0,0
10.0,-237.0,31.0,-107.0,396.0,45.0,0
15.0,-243.0,33.0,-92.0,421.0,36.0,0
11.0,-243.0,31.0,-71.0,444.0,10.0,0
9.0,-244.0,32.0,-52.0,470.0,-14.0,0
7.0,-245.0,33.0,-41.0,492.0,-27.0,0
5.0,-245.0,31.0,-29.0,514.0,-34.0,0
2.0,-248.0,27.0,-20.0,533.0,-39.0,0
-3.0,-246.0,21.0,-17.0,550.0,-46.0,0
-9.0,-245.0,21.0,-19.0,561.0,-58.0,0
-14.0,-244.0,16.0,-29.0,561.0,-66.0,0
-21.0,-244.0,15.0,-45.0,543.0,-70.0,0
-28.0,-241.0,7.0,-63.0,502.0,-70.0,0
-38.0,-244.0,-8.0,-86.0,441.0,-66.0,0
-46.0,-249.0,-17.0,-116.0,370.0,-53.0,0
-53.0,-249.0,-25.0,-155.0,305.0,-36.0,0
-58.0,-249.0,-32.0,-201.0,253.0,-17.0,0
-59.0,-258.0,-31.0,-246.0,217.0,3.0,0
-63.0,-263.0,-21.0,-276.0,195.0,21.0,0
-63.0,-271.0,-15.0,-285.0,178.0,41.0,0
-66.0,-274.0,0.0,-268.0,163.0,59.0,0
-68.0,-275.0,9.0,-231.0,149.0,76.0,0
-67.0,-277.0,18.0,-183.0,138.0,91.0,0
-67.0,-276.0,19.0,-131.0,123.0,105.0,0
-65.0,-269.0,27.0,-81.0,108.0,117.0,0
-50.0,-268.0,30.0,-35.0,98.0,127.0,0
-55.0,-262.0,25.0,5.0,100.0,146.0,0
-37.0,-263.0,28.0,43.0,108.0,231.0,0
-13.0,-264.0,28.0,68.0,117.0,280.0,0
-11.0,-257.0,26.0,80.0,125.0,238.0,0
-10.0,-254.0,29.0,82.0,142.0,204.0,0
-4.0,-255.0,27.0,77.0,172.0,216.0,0
-1.0,-261.0,23.0,67.0,197.0,226.0,0
-3.0,-274.0,13.0,24.0,221.0,219.0,0
-8.0,-282.0,2.0,-49.0,261.0,215.0,0
-7.0,-300.0,-19.0,-127.0,304.0,230.0,0
-8.0,-312.0,-39.0,-217.0,330.0,257.0,0
-7.0,-323.0,-57.0,-315.0,331.0,279.0,0
-6.0,-334.0,-62.0,-407.0,298.0,302.0,0
-11.0,-343.0,-70.0,-485.0,232.0,338.0,0
-14.0,-345.0,-61.0,-526.0,141.0,383.0,0
-21.0,-340.0,-58.0,-523.0,47.0,431.0,0
-22.0,-329.0,-55.0,-496.0,-43.0,478.0,0
-33.0,-307.0,-46.0,-465.0,-128.0,521.0,0
-39.0,-293.0,-33.0,-448.0,-209.0,563.0,0
-30.0,-283.0,-21.0,-442.0,-271.0,603.0,0
-28.0,-270.0,-18.0,-442.0,-296.0,620.0,0
-18.0,-266.0,-13.0,-447.0,-269.0,628.0,0
-10.0,-266.0,-7.0,-458.0,-196.0,621.0,0
1.0,-279.0,-5.0,-469.0,-103.0,597.0,0
10.0,-294.0,-10.0,-477.0,-2.0,559.0,0
10.0,-307.0,-15.0,-477.0,94.0,509.0,0
12.0,-325.0,-22.0,-454.0,172.0,460.0,0
7.0,-331.0,-34.0,-409.0,230.0,418.0,0
12.0,-336.0,-49.0,-348.0,265.0,388.0,0
5.0,-337.0,-68.0,-281.0,281.0,371.0,0
7.0,-333.0,-63.0,-217.0,286.0,369.0,0
8.0,-320.0,-81.0,-155.0,288.0,368.0,0
5.0,-312.0,-86.0,-115.0,296.0,369.0,0
7.0,-303.0,-82.0,-113.0,309.0,362.0,0
0.0,-291.0,-82.0,-128.0,312.0,336.0,0
-7.0,-286.0,-80.0,-139.0,313.0,296.0,0
-16.0,-281.0,-81.0,-135.0,320.0,253.0,0
-23.0,-276.0,-74.0,-106.0,327.0,213.0,0
-24.0,-272.0,-82.0,-57.0,327.0,179.0,0
-26.0,-268.0,-88.0,-6.0,327.0,147.0,0
-26.0,-260.0,-98.0,32.0,334.0,122.0,0
-27.0,-257.0,-99.0,54.0,353.0,101.0,0
-25.0,-256.0,-94.0,64.0,377.0,84.0,0
-20.0,-255.0,-94.0,69.0,400.0,72.0,0
-18.0,-252.0,-90.0,71.0,410.0,63.0,0
-12.0,-251.0,-85.0,70.0,403.0,59.0,0
-4.0,-247.0,-86.0,66.0,381.0,57.0,0
1.0,-243.0,-81.0,60.0,351.0,54.0,0
5.0,-237.0,-79.0,61.0,317.0,49.0,0
0.0,-232.0,-77.0,72.0,292.0,67.0,0
8.0,-229.0,-75.0,86.0,266.0,100.0,0
5.0,-227.0,-80.0,104.0,233.0,99.0,0
6.0,-220.0,-87.0,115.0,202.0,99.0,0
7.0,-221.0,-85.0,111.0,178.0,103.0,0
1.0,-221.0,-85.0,92.0,160.0,100.0,0
-5.0,-224.0,-84.0,65.0,143.0,98.0,0
-4.0,-225.0,-72.0,41.0,129.0,88.0,0
-12.0,-230.0,-67.0,40.0,122.0,75.0,0
-13.0,-238.0,-66.0,52.0,124.0,58.0,0
-17.0,-245.0,-52.0,68.0,128.0,32.0,0
-16.0,-256.0,-57.0,95.0,130.0,6.0,0
-23.0,-261.0,-50.0,125.0,140.0,-18.0,0
-26.0,-267.0,-46.0,162.0,153.0,-38.0,0
-22.0,-282.0,-48.0,193.0,164.0,-51.0,0
-23.0,-287.0,-46.0,226.0,175.0,-66.0,0
-22.0,-291.0,-40.0,274.0,190.0,-82.0,0
-18.0,-296.0,-46.0,336.0,197.0,-94.0,0
-17.0,-302.0,-47.0,380.0,205.0,-99.0,0
-15.0,-303.0,-45.0,419.0,207.0,-108.0,0
-15.0,-304.0,-46.0,457.0,198.0,-117.0,0
-14.0,-300.0,-47.0,488.0,177.0,-126.0,0
-16.0,-298.0,-49.0,514.0,148.0,-137.0,0
-16.0,-294.0,-45.0,530.0,108.0,-149.0,0
-17.0,-287.0,-46.0,534.0,64.0,-164.0,0
-22.0,-280.0,-50.0,531.0,15.0,-179.0,0
-22.0,-273.0,-46.0,512.0,-34.0,-194.0,0
-18.0,-267.0,-43.0,492.0,-78.0,-204.0,0
-20.0,-261.0,-44.0,470.0,-119.0,-219.0,0
-21.0,-253.0,-43.0,444.0,-149.0,-235.0,0
-16.0,-249.0,-45.0,413.0,-166.0,-249.0,0
-16.0,-246.0,-46.0,374.0,-173.0,-262.0,0
-15.0,-238.0,-44.0,334.0,-175.0,-274.0,0
-15.0,-235.0,-48.0,304.0,-173.0,-286.0,0
-5.0,-231.0,-48.0,274.0,-162.0,-297.0,0
-4.0,-227.0,-46.0,243.0,-148.0,-306.0,0
0.0,-225.0,-51.0,208.0,-133.0,-316.0,0
6.0,-226.0,-56.0,174.0,-115.0,-329.0,0
7.0,-227.0,-52.0,148.0,-87.0,-357.0,0
13.0,-228.0,-49.0,144.0,-55.0,-364.0,0
14.0,-228.0,-49.0,128.0,-45.0,-353.0,0
16.0,-235.0,-50.0,116.0,-28.0,-349.0,0
22.0,-239.0,-46.0,118.0,9.0,-340.0,0
30.0,-238.0,-45.0,128.0,40.0,-331.0,0
30.0,-240.0,-38.0,130.0,37.0,-323.0,0
33.0,-242.0,-42.0,128.0,27.0,-320.0,0
29.0,-243.0,-38.0,133.0,32.0,-321.0,0
21.0,-245.0,-33.0,133.0,36.0,-317.0,0
21.0,-250.0,-35.0,132.0,34.0,-311.0,0
18.0,-248.0,-33.0,126.0,29.0,-308.0,0
15.0,-248.0,-31.0,121.0,23.0,-301.0,0
10.0,-248.0,-30.0,119.0,21.0,-291.0,0
4.0,-249.0,-25.0,115.0,23.0,-283.0,0
4.0,-253.0,-18.0,112.0,22.0,-280.0,0
-3.0,-256.0,-24.0,117.0,14.0,-280.0,0
-9.0,-254.0,-15.0,130.0,7.0,-273.0,0
-11.0,-253.0,-12.0,148.0,5.0,-270.0,0
-11.0,-255.0,-10.0,175.0,7.0,-259.0,0
-9.0,-254.0,-11.0,200.0,8.0,-244.0,0
-12.0,-254.0,-14.0,218.0,4.0,-227.0,0
-16.0,-251.0,-11.0,226.0,-5.0,-208.0,0
-14.0,-250.0,-12.0,221.0,-18.0,-190.0,0
-15.0,-245.0,-14.0,223.0,-32.0,-175.0,0
-18.0,-246.0,-8.0,228.0,-48.0,-161.0,0
-16.0,-244.0,-11.0,224.0,-67.0,-146.0,0
-20.0,-238.0,-8.0,217.0,-91.0,-132.0,0
-23.0,-237.0,-16.0,210.0,-113.0,-121.0,0
-23.0,-235.0,-12.0,193.0,-137.0,-107.0,0
-26.0,-232.0,-15.0,175.0,-160.0,-95.0,0
-24.0,-231.0,-18.0,156.0,-183.0,-87.0,0
-23.0,-229.0,-10.0,131.0,-204.0,-77.0,0
-27.0,-225.0,-11.0,107.0,-221.0,-68.0,0
-21.0,-223.0,-6.0,78.0,-237.0,-61.0,0
-18.0,-224.0,-7.0,48.0,-249.0,-53.0,0
-17.0,-224.0,-6.0,19.0,-261.0,-46.0,0
-16.0,-221.0,-2.0,-13.0,-271.0,-38.0,0
-15.0,-219.0,0.0,-38.0,-281.0,-31.0,0
-11.0,-223.0,5.0,-63.0,-289.0,-23.0,0
-10.0,-231.0,8.0,-88.0,-300.0,-13.0,0
-4.0,-235.0,5.0,-110.0,-312.0,-1.0,0
-2.0,-238.0,5.0,-132.0,-324.0,11.0,0
3.0,-243.0,12.0,-147.0,-339.0,23.0,0
1.0,-242.0,17.0,-155.0,-356.0,33.0,0
4.0,-251.0,19.0,-157.0,-374.0,45.0,0
6.0,-258.0,21.0,-156.0,-393.0,52.0,0
5.0,-253.0,22.0,-145.0,-404.0,34.0,0
4.0,-257.0,27.0,-141.0,-427.0,52.0,0
6.0,-261.0,25.0,-134.0,-446.0,73.0,0
9.0,-263.0,23.0,-125.0,-460.0,81.0,0
5.0,-272.0,29.0,-115.0,-468.0,79.0,0
5.0,-273.0,30.0,-104.0,-470.0,80.0,0
5.0,-271.0,28.0,-85.0,-471.0,87.0,0
10.0,-273.0,28.0,-73.0,-469.0,93.0,0
9.0,-274.0,26.0,-61.0,-462.0,94.0,0
8.0,-278.0,20.0,-55.0,-453.0,100.0,0
11.0,-281.0,17.0,-50.0,-438.0,113.0,0
11.0,-276.0,17.0,-46.0,-419.0,122.0,0
14.0,-273.0,11.0,-49.0,-403.0,128.0,0
16.0,-278.0,2.0,-55.0,-393.0,134.0,0
9.0,-274.0,4.0,-64.0,-393.0,136.0,0
19.0,-269.0,6.0,-75.0,-395.0,141.0,0
18.0,-264.0,7.0,-84.0,-395.0,143.0,0
18.0,-265.0,4.0,-94.0,-399.0,142.0,0
21.0,-267.0,7.0,-105.0,-403.0,137.0,0
15.0,-267.0,5.0,-118.0,-403.0,131.0,0
13.0,-265.0,6.0,-130.0,-394.0,122.0,0
10.0,-268.0,12.0,-145.0,-380.0,103.0,0
9.0,-267.0,14.0,-158.0,-356.0,86.0,0
13.0,-271.0,7.0,-170.0,-327.0,65.0,0
15.0,-271.0,15.0,-184.0,-300.0,37.0,0
15.0,-269.0,15.0,-198.0,-278.0,3.0,0
19.0,-272.0,18.0,-211.0,-250.0,-34.0,0
20.0,-275.0,18.0,-226.0,-222.0,-70.0,0
23.0,-280.0,19.0,-245.0,-203.0,-107.0,0
20.0,-278.0,17.0,-262.0,-198.0,-142.0,0
20.0,-283.0,16.0,-284.0,-205.0,-177.0,0
17.0,-290.0,17.0,-306.0,-219.0,-211.0,0
9.0,-289.0,16.0,-326.0,-231.0,-237.0,0
10.0,-293.0,13.0,-341.0,-243.0,-265.0,0
15.0,-297.0,13.0,-346.0,-252.0,-297.0,0
4.0,-291.0,17.0,-339.0,-252.0,-339.0,0
9.0,-294.0,14.0,-341.0,-260.0,-330.0,0
15.0,-294.0,16.0,-336.0,-248.0,-326.0,0
17.0,-293.0,15.0,-329.0,-223.0,-327.0,0
18.0,-293.0,3.0,-327.0,-197.0,-328.0,0
23.0,-298.0,-4.0,-329.0,-174.0,-338.0,0
25.0,-302.0,-13.0,-346.0,-158.0,-359.0,0
21.0,-306.0,-17.0,-365.0,-152.0,-388.0,0
23.0,-314.0,-20.0,-385.0,-156.0,-419.0,0
20.0,-313.0,-17.0,-394.0,-164.0,-454.0,0
21.0,-313.0,-12.0,-391.0,-167.0,-487.0,0
25.0,-307.0,-15.0,-370.0,-152.0,-547.0,0
23.0,-306.0,-18.0,-350.0,-148.0,-570.0,0
27.0,-302.0,-17.0,-337.0,-141.0,-589.0,0
28.0,-295.0,-21.0,-328.0,-120.0,-614.0,0
21.0,-292.0,-20.0,-322.0,-105.0,-634.0,0
22.0,-288.0,-22.0,-317.0,-98.0,-643.0,0
21.0,-283.0,-20.0,-307.0,-95.0,-651.0,0
23.0,-280.0,-21.0,-291.0,-99.0,-645.0,0
20.0,-266.0,-16.0,-263.0,-107.0,-640.0,0
22.0,-262.0,-18.0,-230.0,-114.0,-626.0,0
17.0,-254.0,-24.0,-202.0,-124.0,-612.0,0
17.0,-248.0,-38.0,-184.0,-133.0,-577.0,0
22.0,-247.0,-43.0,-185.0,-136.0,-537.0,0
20.0,-239.0,-49.0,-198.0,-138.0,-497.0,0
19.0,-237.0,-49.0,-216.0,-145.0,-454.0,0
19.0,-237.0,-48.0,-232.0,-160.0,-416.0,0
16.0,-237.0,-49.0,-235.0,-183.0,-380.0,0
18.0,-240.0,-52.0,-224.0,-212.0,-345.0,0
21.0,-240.0,-52.0,-205.0,-240.0,-309.0,0
20.0,-240.0,-50.0,-177.0,-261.0,-278.0,0
22.0,-238.0,-53.0,-140.0,-271.0,-249.0,0
23.0,-237.0,-66.0,-106.0,-275.0,-225.0,0
14.0,-234.0,-69.0,-83.0,-273.0,-205.0,0
23.0,-230.0,-77.0,-74.0,-268.0,-191.0,0
24.0,-234.0,-80.0,-72.0,-260.0,-182.0,0
24.0,-233.0,-78.0,-78.0,-250.0,-180.0,0
22.0,-236.0,-81.0,-86.0,-236.0,-181.0,0
22.0,-237.0,-86.0,-89.0,-221.0,-188.0,0
20.0,-241.0,-87.0,-95.0,-207.0,-194.0,0
21.0,-243.0,-91.0,-101.0,-193.0,-202.0,0
22.0,-249.0,-89.0,-111.0,-182.0,-209.0,0
17.0,-255.0,-90.0,-116.0,-174.0,-217.0,0
21.0,-258.0,-85.0,-119.0,-165.0,-228.0,0
20.0,-261.0,-87.0,-117.0,-155.0,-236.0,0
20.0,-261.0,-79.0,-111.0,-138.0,-241.0,0
21.0,-270.0,-70.0,-100.0,-113.0,-244.0,0
16.0,-275.0,-64.0,-83.0,-80.0,-239.0,0
18.0,-286.0,-63.0,-64.0,-44.0,-228.0,0
18.0,-288.0,-58.0,-39.0,-11.0,-212.0,0
16.0,-295.0,-55.0,-7.0,18.0,-191.0,0
18.0,-296.0,-51.0,19.0,42.0,-164.0,0
19.0,-299.0,-50.0,54.0,66.0,-133.0,0
21.0,-305.0,-47.0,89.0,83.0,-88.0,0
28.0,-303.0,-46.0,136.0,105.0,-56.0,0
34.0,-302.0,-42.0,188.0,126.0,-21.0,0
33.0,-300.0,-48.0,240.0,149.0,12.0,0
37.0,-298.0,-40.0,288.0,173.0,43.0,0
39.0,-293.0,-45.0,324.0,196.0,78.0,0
41.0,-287.0,-37.0,348.0,216.0,108.0,0
43.0,-282.0,-44.0,356.0,230.0,136.0,0
45.0,-277.0,-43.0,352.0,240.0,167.0,0
46.0,-273.0,-47.0,342.0,249.0,191.0,0
48.0,-267.0,-40.0,329.0,255.0,211.0,0
50.0,-263.0,-41.0,308.0,263.0,238.0,0
52.0,-263.0,-42.0,290.0,271.0,264.0,0
48.0,-260.0,-44.0,277.0,282.0,278.0,0
50.0,-257.0,-44.0,265.0,296.0,291.0,0
46.0,-257.0,-44.0,254.0,310.0,312.0,0
46.0,-256.0,-47.0,240.0,321.0,336.0,0
43.0,-259.0,-49.0,223.0,335.0,353.0,0
36.0,-256.0,-49.0,210.0,345.0,358.0,0
31.0,-256.0,-50.0,197.0,352.0,356.0,0
21.0,-251.0,-49.0,183.0,351.0,358.0,0
14.0,-248.0,-51.0,168.0,345.0,364.0,0
9.0,-245.0,-52.0,151.0,335.0,366.0,0
5.0,-243.0,-45.0,136.0,326.0,365.0,0
-5.0,-240.0,-45.0,120.0,318.0,361.0,0
-12.0,-237.0,-43.0,101.0,311.0,360.0,0
-16.0,-236.0,-41.0,81.0,304.0,356.0,0
-20.0,-236.0,-33.0,62.0,297.0,353.0,0
-23.0,-238.0,-30.0,46.0,292.0,348.0,0
-25.0,-238.0,-28.0,33.0,290.0,347.0,0
-28.0,-241.0,-24.0,30.0,286.0,345.0,0
-27.0,-238.0,-23.0,32.0,278.0,343.0,0
-31.0,-242.0,-26.0,30.0,271.0,342.0,0
-33.0,-241.0,-22.0,24.0,265.0,340.0,0
-26.0,-248.0,-26.0,20.0,255.0,337.0,0
-25.0,-243.0,-19.0,13.0,243.0,334.0,0
-22.0,-245.0,-16.0,5.0,232.0,333.0,0
-15.0,-248.0,-16.0,-3.0,223.0,339.0,0
-13.0,-247.0,-16.0,-6.0,213.0,334.0,0
-12.0,-248.0,-11.0,-9.0,204.0,326.0,0
-10.0,-245.0,-4.0,-8.0,194.0,328.0,0
0.0,-253.0,-15.0,-5.0,189.0,336.0,0
5.0,-249.0,-4.0,8.0,199.0,307.0,0
0.0,-246.0,-4.0,26.0,199.0,282.0,0
8.0,-244.0,-11.0,42.0,205.0,272.0,0
8.0,-245.0,-6.0,46.0,208.0,255.0,0
12.0,-243.0,-4.0,51.0,215.0,235.0,0
10.0,-241.0,-4.0,56.0,222.0,215.0,0
9.0,-240.0,-4.0,55.0,222.0,207.0,0
8.0,-240.0,0.0,50.0,223.0,199.0,0
10.0,-238.0,-2.0,45.0,224.0,181.0,0
11.0,-242.0,2.0,38.0,224.0,159.0,0
12.0,-241.0,-1.0,32.0,224.0,143.0,0
11.0,-242.0,7.0,25.0,227.0,133.0,0
13.0,-240.0,9.0,16.0,229.0,125.0,0
6.0,-242.0,10.0,7.0,230.0,115.0,0
8.0,-240.0,9.0,1.0,232.0,102.0,0
11.0,-241.0,14.0,-6.0,232.0,87.0,0
7.0,-236.0,19.0,-11.0,233.0,71.0,0
6.0,-238.0,19.0,-14.0,233.0,57.0,0
7.0,-235.0,20.0,-15.0,233.0,50.0,0
6.0,-238.0,21.0,-17.0,236.0,38.0,0
9.0,-232.0,21.0,-16.0,240.0,23.0,0
7.0,-234.0,22.0,-17.0,250.0,9.0,0
10.0,-235.0,33.0,-17.0,263.0,9.0,0
10.0,-240.0,33.0,-13.0,278.0,-3.0,0
9.0,-237.0,32.0,-4.0,296.0,-27.0,0
11.0,-239.0,40.0,8.0,316.0,-44.0,0
7.0,-244.0,44.0,26.0,333.0,-56.0,0
7.0,-244.0,46.0,46.0,348.0,-68.0,0
4.0,-251.0,44.0,73.0,356.0,-78.0,0
-5.0,-248.0,43.0,101.0,354.0,-89.0,0
-9.0,-247.0,34.0,121.0,342.0,-94.0,0
-14.0,-249.0,24.0,130.0,325.0,-98.0,0
-13.0,-249.0,17.0,129.0,307.0,-95.0,0
-14.0,-252.0,16.0,126.0,290.0,-92.0,0
-21.0,-250.0,13.0,113.0,275.0,-89.0,0
-24.0,-250.0,9.0,91.0,260.0,-71.0,0
-25.0,-255.0,2.0,63.0,251.0,-61.0,0
-26.0,-258.0,0.0,45.0,253.0,-72.0,0
-30.0,-257.0,-5.0,25.0,245.0,-80.0,0
-30.0,-260.0,1.0,11.0,231.0,-79.0,0
-33.0,-260.0,-1.0,-3.0,208.0,-71.0,0
-32.0,-262.0,1.0,-12.0,176.0,-61.0,0
-29.0,-265.0,8.0,-14.0,144.0,-53.0,0
-35.0,-266.0,7.0,-14.0,109.0,-38.0,0
-43.0,-259.0,12.0,-11.0,75.0,-21.0,0
-57.0,-258.0,16.0,-8.0,44.0,0.0,0
-38.0,-255.0,14.0,-5.0,29.0,40.0,0
-42.0,-253.0,19.0,-1.0,21.0,59.0,0
-40.0,-248.0,17.0,-1.0,20.0,61.0,0
-36.0,-243.0,18.0,-8.0,32.0,79.0,0
-27.0,-241.0,20.0,-23.0,57.0,102.0,0
-19.0,-236.0,21.0,-47.0,85.0,118.0,0
-13.0,-238.0,25.0,-72.0,113.0,117.0,0
-9.0,-234.0,27.0,-94.0,142.0,112.0,0
-3.0,-235.0,30.0,-115.0,170.0,110.0,0
6.0,-243.0,31.0,-141.0,199.0,105.0,0
9.0,-247.0,29.0,-175.0,232.0,90.0,0
4.0,-261.0,25.0,-219.0,273.0,87.0,0
15.0,-273.0,15.0,-278.0,325.0,100.0,0
8.0,-285.0,-1.0,-347.0,386.0,122.0,0
3.0,-295.0,-12.0,-417.0,433.0,152.0,0
1.0,-311.0,-32.0,-480.0,460.0,190.0,0
-1.0,-328.0,-34.0,-533.0,455.0,231.0,0
-6.0,-339.0,-39.0,-572.0,403.0,285.0,0
-12.0,-343.0,-35.0,-588.0,322.0,348.0,0
-15.0,-341.0,-35.0,-584.0,231.0,414.0,0
-21.0,-329.0,-30.0,-561.0,153.0,477.0,0
-26.0,-312.0,-30.0,-527.0,86.0,534.0,0
-38.0,-293.0,-33.0,-503.0,19.0,582.0,0
-45.0,-283.0,-33.0,-502.0,-44.0,615.0,0
-49.0,-271.0,-28.0,-532.0,-102.0,634.0,0
-50.0,-264.0,-21.0,-576.0,-140.0,632.0,0
-50.0,-267.0,-16.0,-614.0,-146.0,618.0,0
-43.0,-272.0,-6.0,-639.0,-119.0,596.0,0
-33.0,-284.0,2.0,-639.0,-75.0,553.0,0
-31.0,-290.0,-1.0,-619.0,-15.0,508.0,0
-24.0,-300.0,0.0,-577.0,51.0,462.0,0
-16.0,-305.0,-8.0,-525.0,112.0,417.0,0
-10.0,-312.0,-11.0,-468.0,158.0,368.0,0
-2.0,-308.0,-12.0,-406.0,192.0,326.0,0
-4.0,-316.0,-19.0,-349.0,211.0,287.0,0
-4.0,-314.0,-27.0,-297.0,218.0,255.0,0
-10.0,-311.0,-42.0,-257.0,211.0,230.0,0
-12.0,-305.0,-48.0,-230.0,197.0,217.0,0
-16.0,-303.0,-57.0,-222.0,175.0,210.0,0
-18.0,-298.0,-61.0,-228.0,148.0,204.0,0
-24.0,-297.0,-58.0,-237.0,122.0,198.0,0
-23.0,-292.0,-61.0,-243.0,105.0,191.0,0
-31.0,-289.0,-61.0,-234.0,95.0,183.0,0
-42.0,-288.0,-56.0,-215.0,90.0,176.0,0
-33.0,-285.0,-57.0,-190.0,89.0,168.0,0
-29.0,-282.0,-59.0,-163.0,85.0,162.0,0
-27.0,-281.0,-63.0,-144.0,79.0,155.0,0
-23.0,-275.0,-63.0,-131.0,76.0,148.0,0
-17.0,-270.0,-68.0,-121.0,71.0,142.0,0
-12.0,-270.0,-69.0,-113.0,67.0,136.0,0
-1.0,-270.0,-69.0,-109.0,62.0,130.0,0
10.0,-267.0,-71.0,-100.0,56.0,123.0,0
14.0,-262.0,-70.0,-92.0,49.0,116.0,0
18.0,-259.0,-67.0,-82.0,39.0,107.0,0
24.0,-258.0,-68.0,-65.0,30.0,96.0,0
25.0,-249.0,-74.0,-47.0,24.0,102.0,0
38.0,-250.0,-70.0,-30.0,20.0,116.0,0
37.0,-248.0,-68.0,-14.0,10.0,77.0,0
27.0,-240.0,-67.0,2.0,2.0,46.0,0
24.0,-239.0,-69.0,16.0,4.0,58.0,0
31.0,-241.0,-72.0,25.0,10.0,73.0,0
25.0,-237.0,-73.0,30.0,9.0,48.0,0
15.0,-236.0,-73.0,29.0,12.0,28.0,0
4.0,-238.0,-78.0,20.0,23.0,31.0,0
6.0,-246.0,-75.0,10.0,43.0,46.0,0
10.0,-248.0,-65.0,1.0,54.0,35.0,0
0.0,-246.0,-61.0,-3.0,59.0,14.0,0
-6.0,-249.0,-59.0,2.0,71.0,2.0,0
-9.0,-255.0,-53.0,13.0,85.0,-2.0,0
-9.0,-259.0,-47.0,32.0,97.0,-1.0,0
-10.0,-267.0,-46.0,57.0,103.0,-1.0,0
-10.0,-275.0,-41.0,87.0,108.0,-2.0,0
-10.0,-280.0,-36.0,121.0,111.0,-5.0,0
-5.0,-284.0,-34.0,157.0,110.0,-6.0,0
-2.0,-287.0,-34.0,199.0,105.0,-12.0,0
-3.0,-286.0,-34.0,242.0,93.0,-17.0,0
-8.0,-278.0,-38.0,281.0,77.0,-25.0,0
-4.0,-283.0,-37.0,314.0,58.0,-34.0,0
-9.0,-283.0,-39.0,338.0,39.0,-45.0,0
-8.0,-280.0,-36.0,355.0,17.0,-60.0,0
-8.0,-275.0,-34.0,361.0,-3.0,-74.0,0
-11.0,-271.0,-39.0,358.0,-20.0,-90.0,0
-10.0,-270.0,-38.0,346.0,-34.0,-100.0,0
-9.0,-267.0,-36.0,327.0,-44.0,-117.0,0
-9.0,-262.0,-36.0,309.0,-54.0,-137.0,0
-3.0,-261.0,-36.0,290.0,-63.0,-155.0,0
-4.0,-263.0,-33.0,267.0,-69.0,-169.0,0
-1.0,-256.0,-36.0,250.0,-69.0,-181.0,0
-1.0,-250.0,-36.0,233.0,-67.0,-194.0,0
5.0,-253.0,-39.0,216.0,-66.0,-202.0,0
6.0,-250.0,-38.0,196.0,-62.0,-211.0,0
1.0,-242.0,-43.0,177.0,-55.0,-218.0,0
6.0,-236.0,-47.0,175.0,-32.0,-245.0,0
7.0,-233.0,-44.0,173.0,-12.0,-231.0,0
16.0,-226.0,-47.0,155.0,-3.0,-223.0,0
19.0,-220.0,-48.0,135.0,11.0,-230.0,0
27.0,-222.0,-46.0,114.0,45.0,-235.0,0
17.0,-215.0,-39.0,98.0,92.0,-246.0,0
27.0,-214.0,-36.0,80.0,136.0,-246.0,0
35.0,-217.0,-29.0,61.0,170.0,-248.0,0
39.0,-219.0,-29.0,45.0,202.0,-258.0,0
37.0,-217.0,-24.0,38.0,244.0,-271.0,0
38.0,-220.0,-21.0,31.0,287.0,-277.0,0
38.0,-223.0,-19.0,24.0,322.0,-284.0,0
39.0,-233.0,-13.0,13.0,347.0,-295.0,0
35.0,-231.0,-14.0,3.0,370.0,-299.0,0
32.0,-238.0,-14.0,-8.0,391.0,-304.0,0
29.0,-246.0,-16.0,-19.0,407.0,-307.0,0
28.0,-250.0,-11.0,-30.0,423.0,-308.0,0
24.0,-255.0,-9.0,-39.0,434.0,-306.0,0
21.0,-268.0,-8.0,-42.0,445.0,-295.0,0
15.0,-265.0,-8.0,-41.0,452.0,-290.0,0
17.0,-273.0,-13.0,-34.0,446.0,-287.0,0
10.0,-276.0,2.0,-20.0,438.0,-280.0,0
6.0,-277.0,-6.0,3.0,431.0,-267.0,0
20.0,-279.0,-12.0,26.0,422.0,-251.0,0
2.0,-277.0,-10.0,52.0,408.0,-239.0,0
-3.0,-274.0,-19.0,75.0,389.0,-226.0,0
-1.0,-262.0,-13.0,94.0,370.0,-212.0,0
-5.0,-263.0,-7.0,105.0,350.0,-200.0,0
-10.0,-258.0,-11.0,114.0,330.0,-187.0,0
-13.0,-248.0,0.0,121.0,313.0,-177.0,0
-16.0,-247.0,0.0,120.0,295.0,-167.0,0
-14.0,-248.0,3.0,118.0,278.0,-156.0,0
-22.0,-240.0,1.0,112.0,270.0,-144.0,0
-24.0,-241.0,3.0,108.0,263.0,-133.0,0
-17.0,-241.0,11.0,105.0,256.0,-125.0,0
-17.0,-236.0,15.0,100.0,248.0,-122.0,0
-16.0,-233.0,15.0,101.0,243.0,-120.0,0
-20.0,-239.0,14.0,104.0,235.0,-120.0,0
-18.0,-238.0,17.0,101.0,225.0,-119.0,0
-16.0,-237.0,11.0,96.0,215.0,-115.0,0
