ax,ay,az,gx,gy,gz,label
18.0,-255.0,-5.0,-70.0,18.0,3.0,0
28.0,-260.0,-5.0,-62.0,18.0,10.0,0
19.0,-258.0,-6.0,-44.0,31.0,9.0,0
15.0,-255.0,-9.0,-41.0,38.0,6.0,0
17.0,-253.0,-8.0,-43.0,32.0,9.0,0
12.0,-255.0,-3.0,-55.0,23.0,7.0,0
18.0,-255.0,-9.0,-65.0,14.0,9.0,0
20.0,-257.0,-10.0,-72.0,10.0,7.0,0
16.0,-255.0,-8.0,-76.0,7.0,8.0,0
19.0,-258.0,-13.0,-79.0,7.0,7.0,0
14.0,-255.0,-12.0,-76.0,10.0,8.0,0
11.0,-253.0,-12.0,-72.0,12.0,7.0,0
17.0,-254.0,-12.0,-72.0,13.0,9.0,0
14.0,-254.0,-12.0,-76.0,12.0,5.0,0
14.0,-255.0,-8.0,-82.0,11.0,6.0,0
15.0,-254.0,-9.0,-87.0,12.0,4.0,0
21.0,-256.0,-11.0,-92.0,14.0,5.0,0
16.0,-254.0,-9.0,-95.0,16.0,1.0,0
19.0,-255.0,-8.0,-94.0,20.0,3.0,0
17.0,-253.0,-8.0,-88.0,21.0,-4.0,0
15.0,-252.0,-8.0,-78.0,20.0,-5.0,0
16.0,-252.0,-8.0,-71.0,20.0,-11.0,0
17.0,-249.0,-8.0,-66.0,21.0,-13.0,0
18.0,-251.0,-9.0,-62.0,24.0,-21.0,0
20.0,-251.0,-12.0,-60.0,23.0,-24.0,0
16.0,-252.0,-8.0,-58.0,22.0,-31.0,0
17.0,-252.0,-11.0,-56.0,21.0,-33.0,0
16.0,-254.0,-12.0,-54.0,23.0,-38.0,0
16.0,-254.0,-12.0,-53.0,22.0,-37.0,0
13.0,-253.0,-12.0,-51.0,21.0,-41.0,0
18.0,-256.0,-17.0,-50.0,20.0,-38.0,0
14.0,-254.0,-14.0,-52.0,22.0,-39.0,0
11.0,-253.0,-17.0,-56.0,24.0,-36.0,0
13.0,-256.0,-14.0,-58.0,25.0,-35.0,0
14.0,-255.0,-18.0,-59.0,24.0,-31.0,0
14.0,-257.0,-14.0,-60.0,24.0,-31.0,0
14.0,-255.0,-13.0,-60.0,24.0,-26.0,0
16.0,-256.0,-14.0,-59.0,24.0,-27.0,0
15.0,-257.0,-17.0,-59.0,24.0,-25.0,0
12.0,-257.0,-16.0,-58.0,25.0,-25.0,0
14.0,-257.0,-12.0,-55.0,23.0,-24.0,0
14.0,-254.0,-13.0,-54.0,21.0,-24.0,0
15.0,-256.0,-15.0,-49.0,20.0,-21.0,0
15.0,-255.0,-15.0,-47.0,20.0,-19.0,0
14.0,-252.0,-13.0,-41.0,17.0,-16.0,0
15.0,-254.0,-17.0,-41.0,15.0,-17.0,0
14.0,-256.0,-17.0,-41.0,14.0,-14.0,0
16.0,-255.0,-18.0,-39.0,12.0,-15.0,0
14.0,-257.0,-15.0,-39.0,10.0,-15.0,0
17.0,-257.0,-14.0,-34.0,9.0,-14.0,0
15.0,-256.0,-14.0,-30.0,9.0,-11.0,0
20.0,-257.0,-16.0,-27.0,8.0,-12.0,0
17.0,-253.0,-14.0,-24.0,8.0,-10.0,0
18.0,-254.0,-18.0,-21.0,9.0,-11.0,0
17.0,-253.0,-17.0,-19.0,9.0,-11.0,0
18.0,-253.0,-18.0,-18.0,10.0,-11.0,0
16.0,-250.0,-19.0,-16.0,10.0,-8.0,0
19.0,-255.0,-17.0,-13.0,10.0,-7.0,0
15.0,-254.0,-18.0,-10.0,11.0,-8.0,0
17.0,-253.0,-15.0,-10.0,13.0,-7.0,0
19.0,-255.0,-14.0,-8.0,15.0,-7.0,0
18.0,-254.0,-11.0,-8.0,17.0,-7.0,0
16.0,-252.0,-18.0,-8.0,19.0,-9.0,0
18.0,-254.0,-14.0,-12.0,23.0,-9.0,0
19.0,-252.0,-12.0,-13.0,27.0,-12.0,0
19.0,-250.0,-20.0,-17.0,30.0,-12.0,0
20.0,-253.0,-19.0,-21.0,33.0,-13.0,0
18.0,-253.0,-17.0,-23.0,37.0,-14.0,0
19.0,-253.0,-14.0,-22.0,39.0,-16.0,0
21.0,-253.0,-16.0,-21.0,45.0,-15.0,0
21.0,-253.0,-18.0,-18.0,51.0,-16.0,0
21.0,-255.0,-14.0,-18.0,55.0,-14.0,0
21.0,-254.0,-14.0,-18.0,57.0,-16.0,0
21.0,-254.0,-21.0,-21.0,61.0,-15.0,0
21.0,-252.0,-20.0,-23.0,68.0,-17.0,0
24.0,-252.0,-19.0,-27.0,70.0,-14.0,0
23.0,-257.0,-15.0,-28.0,74.0,-15.0,0
25.0,-256.0,-16.0,-29.0,78.0,-12.0,0
24.0,-256.0,-15.0,-31.0,83.0,-15.0,0
24.0,-257.0,-16.0,-30.0,89.0,-15.0,0
25.0,-256.0,-14.0,-31.0,95.0,-18.0,0
24.0,-258.0,-15.0,-30.0,101.0,-17.0,0
26.0,-257.0,-16.0,-26.0,107.0,-20.0,0
21.0,-258.0,-14.0,-22.0,111.0,-18.0,0
25.0,-257.0,-20.0,-18.0,116.0,-21.0,0
26.0,-256.0,-20.0,-15.0,122.0,-19.0,0
21.0,-255.0,-22.0,-14.0,127.0,-20.0,0
25.0,-256.0,-18.0,-12.0,133.0,-18.0,0
24.0,-256.0,-18.0,-12.0,139.0,-20.0,0
25.0,-255.0,-19.0,-14.0,144.0,-17.0,0
22.0,-251.0,-18.0,-19.0,149.0,-19.0,0
20.0,-253.0,-16.0,-26.0,152.0,-18.0,0
19.0,-252.0,-15.0,-31.0,153.0,-20.0,0
22.0,-252.0,-21.0,-35.0,157.0,-17.0,0
21.0,-255.0,-24.0,-40.0,159.0,-20.0,0
18.0,-253.0,-19.0,-42.0,161.0,-17.0,0
20.0,-253.0,-17.0,-41.0,161.0,-20.0,0
20.0,-253.0,-16.0,-39.0,161.0,-19.0,0
18.0,-254.0,-22.0,-38.0,163.0,-21.0,0
17.0,-251.0,-18.0,-36.0,162.0,-20.0,0
18.0,-254.0,-22.0,-35.0,161.0,-23.0,0
17.0,-253.0,-23.0,-37.0,161.0,-19.0,0
19.0,-256.0,-20.0,-37.0,160.0,-23.0,0
17.0,-255.0,-21.0,-39.0,159.0,-22.0,0
15.0,-255.0,-21.0,-41.0,158.0,-23.0,0
17.0,-257.0,-22.0,-42.0,155.0,-21.0,0
14.0,-257.0,-22.0,-45.0,153.0,-24.0,0
13.0,-259.0,-22.0,-47.0,149.0,-24.0,0
12.0,-256.0,-22.0,-49.0,147.0,-26.0,0
14.0,-255.0,-22.0,-50.0,143.0,-24.0,0
13.0,-257.0,-22.0,-50.0,140.0,-27.0,0
11.0,-256.0,-21.0,-46.0,139.0,-26.0,0
10.0,-257.0,-24.0,-43.0,138.0,-26.0,0
10.0,-253.0,-19.0,-40.0,137.0,-26.0,0
12.0,-254.0,-22.0,-34.0,133.0,-25.0,0
10.0,-256.0,-20.0,-33.0,131.0,-25.0,0
9.0,-253.0,-19.0,-30.0,126.0,-24.0,0
10.0,-254.0,-21.0,-29.0,121.0,-22.0,0
10.0,-254.0,-22.0,-30.0,112.0,-22.0,0
9.0,-258.0,-18.0,-30.0,106.0,-19.0,0
9.0,-256.0,-25.0,-32.0,102.0,-20.0,0
12.0,-257.0,-19.0,-33.0,97.0,-20.0,0
9.0,-257.0,-20.0,-36.0,91.0,-20.0,0
10.0,-257.0,-22.0,-36.0,85.0,-18.0,0
11.0,-256.0,-24.0,-36.0,78.0,-18.0,0
11.0,-257.0,-23.0,-34.0,69.0,-14.0,0
10.0,-257.0,-18.0,-31.0,62.0,-13.0,0
12.0,-256.0,-22.0,-28.0,54.0,-12.0,0
13.0,-257.0,-20.0,-25.0,47.0,-8.0,0
12.0,-258.0,-24.0,-21.0,40.0,-5.0,0
14.0,-258.0,-23.0,-20.0,33.0,-3.0,0
12.0,-256.0,-20.0,-20.0,29.0,0.0,0
11.0,-254.0,-23.0,-19.0,24.0,2.0,0
14.0,-256.0,-24.0,-18.0,19.0,4.0,0
17.0,-255.0,-21.0,-15.0,16.0,6.0,0
14.0,-259.0,-20.0,-11.0,12.0,6.0,0
14.0,-259.0,-20.0,-9.0,8.0,9.0,0
15.0,-256.0,-21.0,-5.0,4.0,9.0,0
12.0,-257.0,-22.0,-3.0,-2.0,10.0,0
12.0,-257.0,-23.0,1.0,-9.0,9.0,0
12.0,-259.0,-25.0,7.0,-14.0,13.0,0
13.0,-258.0,-24.0,12.0,-20.0,11.0,0
11.0,-255.0,-24.0,16.0,-24.0,14.0,0
15.0,-257.0,-25.0,18.0,-28.0,14.0,0
17.0,-256.0,-26.0,20.0,-31.0,17.0,0
15.0,-253.0,-21.0,21.0,-33.0,18.0,0
19.0,-255.0,-24.0,23.0,-34.0,21.0,0
15.0,-255.0,-21.0,23.0,-36.0,21.0,0
20.0,-255.0,-23.0,25.0,-39.0,23.0,0
19.0,-254.0,-22.0,29.0,-41.0,23.0,0
24.0,-256.0,-24.0,31.0,-41.0,25.0,0
23.0,-257.0,-22.0,35.0,-39.0,22.0,0
21.0,-250.0,-22.0,36.0,-37.0,25.0,0
21.0,-251.0,-22.0,36.0,-36.0,22.0,0
24.0,-255.0,-20.0,36.0,-33.0,25.0,0
25.0,-254.0,-20.0,38.0,-30.0,22.0,0
28.0,-257.0,-24.0,39.0,-30.0,24.0,0
27.0,-257.0,-22.0,41.0,-26.0,21.0,0
26.0,-256.0,-23.0,42.0,-26.0,22.0,0
27.0,-254.0,-21.0,42.0,-28.0,18.0,0
27.0,-255.0,-21.0,43.0,-30.0,18.0,0
24.0,-254.0,-21.0,39.0,-30.0,15.0,0
28.0,-248.0,-21.0,35.0,-26.0,15.0,0
26.0,-255.0,-21.0,33.0,-26.0,11.0,0
26.0,-252.0,-20.0,32.0,-21.0,13.0,0
30.0,-254.0,-18.0,30.0,-16.0,11.0,0
27.0,-252.0,-19.0,29.0,-10.0,12.0,0
29.0,-253.0,-20.0,28.0,-3.0,10.0,0
27.0,-255.0,-22.0,25.0,3.0,12.0,0
31.0,-254.0,-20.0,23.0,10.0,9.0,0
32.0,-255.0,-21.0,24.0,17.0,11.0,0
30.0,-255.0,-19.0,26.0,23.0,9.0,0
31.0,-255.0,-16.0,26.0,30.0,10.0,0
32.0,-257.0,-20.0,27.0,34.0,7.0,0
29.0,-254.0,-20.0,26.0,38.0,6.0,0
30.0,-256.0,-17.0,25.0,42.0,2.0,0
28.0,-255.0,-20.0,23.0,44.0,2.0,0
30.0,-255.0,-19.0,20.0,46.0,-2.0,0
30.0,-254.0,-16.0,13.0,50.0,-2.0,0
27.0,-254.0,-19.0,8.0,53.0,-5.0,0
27.0,-254.0,-19.0,4.0,55.0,-6.0,0
26.0,-256.0,-18.0,1.0,60.0,-8.0,0
26.0,-257.0,-19.0,0.0,65.0,-7.0,0
25.0,-252.0,-19.0,0.0,69.0,-9.0,0
28.0,-253.0,-15.0,2.0,74.0,-8.0,0
28.0,-257.0,-21.0,6.0,79.0,-9.0,0
22.0,-252.0,-18.0,7.0,81.0,-12.0,0
25.0,-252.0,-20.0,6.0,88.0,-12.0,0
20.0,-253.0,-22.0,7.0,93.0,-13.0,0
24.0,-253.0,-15.0,4.0,95.0,-15.0,0
22.0,-254.0,-21.0,3.0,98.0,-14.0,0
20.0,-256.0,-16.0,-1.0,100.0,-15.0,0
23.0,-254.0,-14.0,-3.0,103.0,-16.0,0
22.0,-252.0,-21.0,-4.0,105.0,-15.0,0
24.0,-258.0,-19.0,-3.0,110.0,-15.0,0
22.0,-257.0,-16.0,-1.0,113.0,-15.0,0
20.0,-256.0,-16.0,1.0,115.0,-17.0,0
20.0,-256.0,-18.0,5.0,118.0,-17.0,0
23.0,-256.0,-13.0,8.0,120.0,-17.0,0
19.0,-257.0,-19.0,10.0,121.0,-16.0,0
20.0,-256.0,-19.0,13.0,123.0,-17.0,0
21.0,-258.0,-16.0,14.0,123.0,-18.0,0
20.0,-255.0,-15.0,16.0,127.0,-19.0,0
22.0,-255.0,-17.0,16.0,128.0,-19.0,0
19.0,-256.0,-16.0,13.0,128.0,-22.0,0
19.0,-253.0,-12.0,11.0,130.0,-21.0,0
20.0,-253.0,-17.0,11.0,131.0,-21.0,0
19.0,-253.0,-14.0,9.0,133.0,-21.0,0
21.0,-255.0,-14.0,11.0,133.0,-21.0,0
19.0,-255.0,-15.0,12.0,134.0,-21.0,0
17.0,-251.0,-17.0,13.0,134.0,-22.0,0
18.0,-252.0,-17.0,13.0,135.0,-18.0,0
19.0,-254.0,-16.0,12.0,137.0,-20.0,0
20.0,-256.0,-12.0,11.0,137.0,-17.0,0
21.0,-251.0,-13.0,7.0,137.0,-19.0,0
16.0,-254.0,-11.0,2.0,139.0,-17.0,0
18.0,-252.0,-12.0,-2.0,142.0,-17.0,0
17.0,-256.0,-14.0,-4.0,143.0,-16.0,0
19.0,-256.0,-11.0,-5.0,144.0,-18.0,0
20.0,-255.0,-9.0,-2.0,146.0,-15.0,0
18.0,-255.0,-10.0,-2.0,148.0,-16.0,0
18.0,-257.0,-13.0,0.0,147.0,-14.0,0
15.0,-256.0,-11.0,3.0,149.0,-17.0,0
22.0,-256.0,-12.0,4.0,148.0,-13.0,0
16.0,-255.0,-9.0,4.0,149.0,-17.0,0
17.0,-255.0,-13.0,3.0,151.0,-15.0,0
20.0,-255.0,-10.0,2.0,149.0,-16.0,0
16.0,-253.0,-14.0,-2.0,149.0,-13.0,0
19.0,-255.0,-13.0,-2.0,149.0,-14.0,0
17.0,-256.0,-13.0,-2.0,147.0,-11.0,0
20.0,-255.0,-11.0,-1.0,150.0,-13.0,0
21.0,-251.0,-12.0,1.0,152.0,-10.0,0
19.0,-253.0,-9.0,-1.0,153.0,-13.0,0
17.0,-253.0,-11.0,-1.0,154.0,-11.0,0
18.0,-254.0,-12.0,-3.0,155.0,-13.0,0
20.0,-254.0,-13.0,-6.0,157.0,-11.0,0
18.0,-255.0,-15.0,-9.0,157.0,-12.0,0
18.0,-256.0,-9.0,-9.0,155.0,-8.0,0
18.0,-255.0,-9.0,-8.0,156.0,-12.0,0
19.0,-257.0,-11.0,-6.0,156.0,-9.0,0
19.0,-257.0,-13.0,-8.0,156.0,-12.0,0
19.0,-253.0,-13.0,-9.0,156.0,-10.0,0
19.0,-255.0,-10.0,-7.0,158.0,-11.0,0
18.0,-258.0,-10.0,-7.0,160.0,-9.0,0
18.0,-256.0,-7.0,-5.0,160.0,-10.0,0
16.0,-256.0,-12.0,-4.0,162.0,-9.0,0
20.0,-254.0,-11.0,-3.0,164.0,-11.0,0
20.0,-253.0,-9.0,-2.0,163.0,-8.0,0
17.0,-255.0,-14.0,-1.0,164.0,-10.0,0
18.0,-252.0,-11.0,-4.0,164.0,-9.0,0
18.0,-254.0,-12.0,-5.0,164.0,-8.0,0
16.0,-255.0,-6.0,-6.0,164.0,-6.0,0
18.0,-251.0,-13.0,-9.0,162.0,-7.0,0
18.0,-253.0,-12.0,-7.0,160.0,-6.0,0
17.0,-256.0,-11.0,-5.0,158.0,-8.0,0
16.0,-255.0,-11.0,-4.0,158.0,-7.0,0
17.0,-255.0,-10.0,-3.0,156.0,-9.0,0
17.0,-256.0,-13.0,-2.0,154.0,-8.0,0
21.0,-255.0,-13.0,0.0,152.0,-10.0,0
18.0,-255.0,-15.0,-1.0,154.0,-8.0,0
19.0,-254.0,-13.0,-2.0,156.0,-10.0,0
18.0,-256.0,-14.0,-6.0,156.0,-11.0,0
18.0,-256.0,-14.0,-8.0,157.0,-11.0,0
19.0,-255.0,-13.0,-10.0,157.0,-11.0,0
17.0,-256.0,-11.0,-14.0,158.0,-10.0,0
16.0,-252.0,-12.0,-12.0,157.0,-10.0,0
17.0,-258.0,-12.0,-10.0,154.0,-12.0,0
17.0,-253.0,-12.0,-5.0,153.0,-12.0,0
20.0,-256.0,-8.0,-3.0,150.0,-12.0,0
21.0,-255.0,-10.0,-1.0,147.0,-12.0,0
19.0,-254.0,-10.0,1.0,143.0,-13.0,0
16.0,-254.0,-11.0,2.0,140.0,-13.0,0
17.0,-255.0,-10.0,0.0,139.0,-11.0,0
16.0,-250.0,-12.0,-2.0,137.0,-13.0,0
17.0,-251.0,-11.0,-4.0,135.0,-13.0,0
17.0,-252.0,-12.0,-10.0,132.0,-13.0,0
17.0,-254.0,-14.0,-12.0,130.0,-13.0,0
15.0,-255.0,-12.0,-16.0,129.0,-13.0,0
17.0,-254.0,-8.0,-16.0,125.0,-13.0,0
15.0,-257.0,-10.0,-17.0,122.0,-14.0,0
18.0,-255.0,-11.0,-17.0,118.0,-12.0,0
15.0,-254.0,-9.0,-16.0,114.0,-14.0,0
18.0,-255.0,-10.0,-15.0,109.0,-12.0,0
19.0,-255.0,-12.0,-15.0,105.0,-13.0,0
16.0,-258.0,-8.0,-16.0,103.0,-11.0,0
15.0,-255.0,-14.0,-16.0,99.0,-11.0,0
18.0,-257.0,-12.0,-14.0,98.0,-10.0,0
15.0,-253.0,-9.0,-15.0,94.0,-11.0,0
16.0,-256.0,-12.0,-14.0,92.0,-7.0,0
15.0,-255.0,-10.0,-14.0,89.0,-10.0,0
16.0,-256.0,-7.0,-14.0,87.0,-8.0,0
12.0,-255.0,-14.0,-16.0,83.0,-10.0,0
14.0,-254.0,-11.0,-18.0,81.0,-7.0,0
13.0,-254.0,-17.0,-20.0,77.0,-9.0,0
15.0,-256.0,-13.0,-22.0,75.0,-4.0,0
14.0,-256.0,-10.0,-22.0,71.0,-6.0,0
17.0,-256.0,-10.0,-23.0,66.0,-1.0,0
16.0,-255.0,-9.0,-22.0,63.0,-3.0,0
16.0,-257.0,-10.0,-21.0,62.0,1.0,0
18.0,-256.0,-10.0,-19.0,61.0,0.0,0
16.0,-251.0,-12.0,-20.0,59.0,3.0,0
17.0,-257.0,-14.0,-22.0,59.0,1.0,0
16.0,-254.0,-9.0,-25.0,59.0,4.0,0
17.0,-256.0,-15.0,-27.0,58.0,1.0,0
18.0,-255.0,-13.0,-29.0,56.0,3.0,0
17.0,-254.0,-11.0,-30.0,54.0,1.0,0
20.0,-253.0,-13.0,-32.0,53.0,3.0,0
20.0,-256.0,-11.0,-34.0,51.0,1.0,0
18.0,-255.0,-13.0,-34.0,48.0,2.0,0
19.0,-254.0,-14.0,-35.0,47.0,0.0,0
18.0,-254.0,-15.0,-37.0,42.0,3.0,0
19.0,-254.0,-11.0,-40.0,42.0,3.0,0
20.0,-253.0,-14.0,-42.0,41.0,3.0,0
20.0,-255.0,-12.0,-43.0,41.0,2.0,0
16.0,-253.0,-12.0,-44.0,39.0,5.0,0
20.0,-258.0,-12.0,-47.0,40.0,4.0,0
19.0,-252.0,-14.0,-49.0,41.0,6.0,0
16.0,-256.0,-11.0,-51.0,38.0,5.0,0
17.0,-256.0,-13.0,-50.0,40.0,6.0,0
19.0,-256.0,-14.0,-50.0,38.0,6.0,0
19.0,-257.0,-11.0,-48.0,39.0,8.0,0
18.0,-256.0,-12.0,-45.0,39.0,6.0,0
17.0,-254.0,-11.0,-42.0,38.0,8.0,0
19.0,-255.0,-15.0,-40.0,37.0,7.0,0
19.0,-256.0,-14.0,-35.0,36.0,10.0,0
16.0,-251.0,-12.0,-36.0,35.0,9.0,0
19.0,-253.0,-19.0,-37.0,35.0,11.0,0
18.0,-254.0,-15.0,-38.0,35.0,9.0,0
18.0,-256.0,-19.0,-41.0,34.0,10.0,0
21.0,-257.0,-15.0,-44.0,35.0,9.0,0
18.0,-254.0,-10.0,-45.0,35.0,9.0,0
19.0,-256.0,-16.0,-43.0,36.0,9.0,0
21.0,-258.0,-10.0,-43.0,36.0,9.0,0
21.0,-258.0,-10.0,-42.0,35.0,9.0,0
20.0,-254.0,-12.0,-44.0,35.0,9.0,0
21.0,-256.0,-11.0,-44.0,35.0,9.0,0
20.0,-255.0,-14.0,-45.0,33.0,9.0,0
22.0,-256.0,-9.0,-45.0,33.0,9.0,0
20.0,-257.0,-12.0,-45.0,31.0,8.0,0
19.0,-255.0,-10.0,-44.0,32.0,9.0,0
22.0,-256.0,-10.0,-44.0,33.0,8.0,0
21.0,-254.0,-11.0,-43.0,33.0,9.0,0
21.0,-256.0,-15.0,-43.0,35.0,10.0,0
20.0,-253.0,-13.0,-43.0,36.0,11.0,0
21.0,-254.0,-13.0,-44.0,34.0,12.0,0
20.0,-253.0,-15.0,-46.0,33.0,14.0,0
19.0,-254.0,-16.0,-47.0,35.0,14.0,0
21.0,-254.0,-15.0,-48.0,34.0,17.0,0
19.0,-255.0,-17.0,-49.0,32.0,16.0,0
19.0,-255.0,-15.0,-49.0,32.0,16.0,0
20.0,-254.0,-14.0,-51.0,32.0,16.0,0
18.0,-255.0,-18.0,-51.0,31.0,17.0,0
21.0,-255.0,-15.0,-50.0,32.0,15.0,0
20.0,-255.0,-14.0,-48.0,32.0,14.0,0
21.0,-255.0,-16.0,-47.0,31.0,13.0,0
19.0,-255.0,-15.0,-45.0,32.0,13.0,0
21.0,-257.0,-11.0,-41.0,34.0,11.0,0
20.0,-255.0,-13.0,-36.0,37.0,12.0,0
20.0,-256.0,-10.0,-36.0,40.0,9.0,0
23.0,-256.0,-15.0,-34.0,45.0,10.0,0
26.0,-256.0,-16.0,-32.0,49.0,6.0,0
23.0,-257.0,-14.0,-30.0,51.0,7.0,0
23.0,-253.0,-11.0,-29.0,55.0,5.0,0
22.0,-253.0,-16.0,-26.0,58.0,4.0,0
23.0,-251.0,-16.0,-24.0,60.0,1.0,0
23.0,-253.0,-16.0,-22.0,63.0,3.0,0
23.0,-251.0,-15.0,-25.0,66.0,0.0,0
24.0,-254.0,-14.0,-28.0,71.0,1.0,0
27.0,-255.0,-14.0,-31.0,75.0,-3.0,0
25.0,-255.0,-15.0,-33.0,80.0,-2.0,0
24.0,-254.0,-13.0,-34.0,84.0,-4.0,0
23.0,-255.0,-15.0,-36.0,88.0,-3.0,0
26.0,-254.0,-14.0,-34.0,93.0,-8.0,0
26.0,-255.0,-16.0,-34.0,99.0,-7.0,0
26.0,-253.0,-15.0,-35.0,104.0,-9.0,0
27.0,-256.0,-14.0,-34.0,108.0,-7.0,0
25.0,-256.0,-16.0,-33.0,110.0,-10.0,0
25.0,-256.0,-15.0,-34.0,114.0,-10.0,0
24.0,-254.0,-18.0,-35.0,118.0,-12.0,0
24.0,-252.0,-18.0,-37.0,119.0,-12.0,0
25.0,-256.0,-17.0,-41.0,122.0,-15.0,0
26.0,-255.0,-14.0,-44.0,124.0,-14.0,0
27.0,-256.0,-16.0,-47.0,128.0,-19.0,0
20.0,-255.0,-15.0,-48.0,132.0,-19.0,0
23.0,-254.0,-13.0,-49.0,136.0,-22.0,0
23.0,-258.0,-11.0,-49.0,140.0,-20.0,0
22.0,-254.0,-14.0,-49.0,144.0,-22.0,0
21.0,-255.0,-16.0,-51.0,149.0,-21.0,0
24.0,-255.0,-13.0,-54.0,151.0,-25.0,0
22.0,-256.0,-14.0,-56.0,155.0,-23.0,0
24.0,-254.0,-17.0,-56.0,158.0,-24.0,0
21.0,-253.0,-13.0,-57.0,160.0,-22.0,0
23.0,-256.0,-14.0,-55.0,159.0,-24.0,0
24.0,-258.0,-15.0,-52.0,157.0,-22.0,0
23.0,-256.0,-17.0,-49.0,160.0,-24.0,0
25.0,-254.0,-13.0,-46.0,160.0,-24.0,0
23.0,-254.0,-14.0,-45.0,161.0,-26.0,0
28.0,-258.0,-18.0,-42.0,162.0,-24.0,0
23.0,-255.0,-12.0,-41.0,161.0,-24.0,0
24.0,-255.0,-11.0,-38.0,163.0,-24.0,0
24.0,-258.0,-13.0,-37.0,164.0,-24.0,0
22.0,-256.0,-17.0,-33.0,166.0,-22.0,0
23.0,-255.0,-14.0,-31.0,168.0,-23.0,0
23.0,-253.0,-14.0,-32.0,169.0,-21.0,0
23.0,-258.0,-12.0,-33.0,170.0,-24.0,0
25.0,-256.0,-17.0,-34.0,170.0,-22.0,0
26.0,-254.0,-17.0,-33.0,169.0,-24.0,0
21.0,-255.0,-14.0,-32.0,170.0,-24.0,0
22.0,-255.0,-12.0,-31.0,170.0,-24.0,0
27.0,-255.0,-15.0,-29.0,171.0,-24.0,0
24.0,-253.0,-16.0,-28.0,172.0,-25.0,0
20.0,-254.0,-15.0,-26.0,173.0,-23.0,0
22.0,-255.0,-17.0,-27.0,175.0,-25.0,0
24.0,-254.0,-20.0,-31.0,174.0,-26.0,0
23.0,-255.0,-15.0,-37.0,174.0,-24.0,0
21.0,-254.0,-20.0,-40.0,173.0,-24.0,0
21.0,-256.0,-21.0,-40.0,173.0,-23.0,0
20.0,-256.0,-16.0,-41.0,175.0,-24.0,0
24.0,-260.0,-17.0,-38.0,176.0,-22.0,0
22.0,-258.0,-19.0,-34.0,179.0,-22.0,0
26.0,-259.0,-19.0,-31.0,180.0,-23.0,0
24.0,-257.0,-16.0,-26.0,183.0,-24.0,0
24.0,-259.0,-17.0,-23.0,186.0,-24.0,0
26.0,-258.0,-18.0,-17.0,189.0,-26.0,0
23.0,-257.0,-18.0,-10.0,191.0,-27.0,0
21.0,-256.0,-17.0,-3.0,191.0,-28.0,0
22.0,-254.0,-16.0,2.0,192.0,-29.0,0
20.0,-254.0,-21.0,5.0,194.0,-30.0,0
25.0,-253.0,-19.0,6.0,196.0,-29.0,0
20.0,-250.0,-19.0,5.0,197.0,-32.0,0
24.0,-253.0,-20.0,4.0,199.0,-30.0,0
21.0,-254.0,-19.0,5.0,202.0,-31.0,0
23.0,-252.0,-20.0,3.0,204.0,-28.0,0
24.0,-256.0,-20.0,2.0,209.0,-30.0,0
20.0,-251.0,-16.0,-1.0,209.0,-27.0,0
21.0,-255.0,-23.0,-3.0,211.0,-28.0,0
19.0,-251.0,-18.0,-5.0,213.0,-24.0,0
22.0,-253.0,-20.0,-8.0,212.0,-27.0,0
20.0,-254.0,-18.0,-10.0,211.0,-23.0,0
20.0,-255.0,-19.0,-14.0,211.0,-24.0,0
17.0,-252.0,-20.0,-19.0,211.0,-22.0,0
18.0,-254.0,-18.0,-20.0,210.0,-25.0,0
20.0,-251.0,-18.0,-23.0,209.0,-22.0,0
19.0,-255.0,-22.0,-25.0,206.0,-24.0,0
22.0,-252.0,-19.0,-25.0,207.0,-20.0,0
20.0,-253.0,-22.0,-24.0,207.0,-21.0,0
16.0,-251.0,-19.0,-21.0,209.0,-17.0,0
18.0,-250.0,-22.0,-17.0,211.0,-17.0,0
18.0,-251.0,-21.0,-16.0,211.0,-11.0,0
20.0,-250.0,-21.0,-17.0,211.0,-9.0,0
24.0,-250.0,-21.0,-17.0,212.0,-2.0,0
24.0,-251.0,-19.0,-17.0,216.0,0.0,0
26.0,-247.0,-20.0,-17.0,222.0,5.0,0
27.0,-247.0,-20.0,-18.0,229.0,8.0,0
23.0,-244.0,-24.0,-17.0,235.0,12.0,0
27.0,-246.0,-21.0,-19.0,236.0,14.0,0
28.0,-245.0,-24.0,-18.0,240.0,19.0,0
30.0,-241.0,-21.0,-16.0,245.0,21.0,0
32.0,-242.0,-19.0,-12.0,250.0,27.0,0
32.0,-245.0,-20.0,-5.0,255.0,32.0,0
34.0,-244.0,-15.0,-4.0,260.0,40.0,0
36.0,-244.0,-17.0,-7.0,267.0,41.0,0
36.0,-243.0,-12.0,-14.0,274.0,46.0,0
35.0,-244.0,-16.0,-19.0,283.0,49.0,0
36.0,-248.0,-13.0,-21.0,293.0,53.0,0
39.0,-246.0,-4.0,-21.0,305.0,55.0,0
38.0,-247.0,-9.0,-17.0,313.0,62.0,0
40.0,-248.0,-6.0,-16.0,325.0,68.0,0
41.0,-245.0,0.0,-15.0,336.0,75.0,0
41.0,-248.0,2.0,-12.0,344.0,79.0,0
43.0,-244.0,5.0,-9.0,354.0,85.0,0
44.0,-246.0,2.0,-6.0,358.0,87.0,0
45.0,-248.0,6.0,-4.0,362.0,88.0,0
48.0,-247.0,4.0,-2.0,365.0,89.0,0
45.0,-247.0,9.0,0.0,363.0,90.0,0
45.0,-247.0,9.0,2.0,360.0,93.0,0
46.0,-244.0,9.0,3.0,349.0,96.0,0
48.0,-249.0,13.0,3.0,333.0,102.0,0
46.0,-250.0,17.0,4.0,319.0,109.0,0
43.0,-251.0,16.0,3.0,301.0,114.0,0
41.0,-254.0,18.0,-1.0,280.0,122.0,0
35.0,-254.0,22.0,-6.0,256.0,125.0,0
37.0,-258.0,26.0,-17.0,229.0,128.0,0
32.0,-259.0,22.0,-31.0,198.0,127.0,0
30.0,-261.0,24.0,-45.0,164.0,124.0,0
29.0,-263.0,23.0,-59.0,130.0,118.0,0
24.0,-264.0,20.0,-76.0,87.0,110.0,0
22.0,-269.0,23.0,-95.0,53.0,103.0,0
21.0,-273.0,24.0,-108.0,15.0,97.0,0
19.0,-274.0,26.0,-118.0,-23.0,91.0,0
18.0,-279.0,29.0,-124.0,-56.0,82.0,0
19.0,-281.0,24.0,-120.0,-83.0,78.0,0
19.0,-280.0,22.0,-114.0,-108.0,71.0,0
18.0,-280.0,23.0,-106.0,-131.0,65.0,0
18.0,-277.0,19.0,-100.0,-160.0,57.0,0
23.0,-279.0,18.0,-96.0,-191.0,45.0,0
25.0,-277.0,18.0,-84.0,-224.0,35.0,0
26.0,-272.0,14.0,-71.0,-250.0,28.0,0
30.0,-269.0,9.0,-59.0,-269.0,19.0,0
32.0,-265.0,6.0,-61.0,-293.0,13.0,0
37.0,-262.0,8.0,-76.0,-320.0,3.0,0
42.0,-264.0,7.0,-98.0,-344.0,-6.0,0
43.0,-262.0,0.0,-118.0,-363.0,-15.0,0
49.0,-261.0,0.0,-134.0,-379.0,-22.0,0
48.0,-264.0,-5.0,-148.0,-395.0,-34.0,0
50.0,-265.0,-10.0,-162.0,-409.0,-43.0,0
51.0,-260.0,-9.0,-184.0,-429.0,-54.0,0
47.0,-261.0,-11.0,-201.0,-445.0,-64.0,0
48.0,-261.0,-15.0,-217.0,-459.0,-75.0,0
49.0,-259.0,-17.0,-235.0,-473.0,-79.0,0
51.0,-260.0,-22.0,-250.0,-485.0,-87.0,0
50.0,-259.0,-23.0,-264.0,-492.0,-91.0,0
51.0,-260.0,-25.0,-284.0,-497.0,-97.0,0
52.0,-261.0,-31.0,-301.0,-498.0,-96.0,0
50.0,-265.0,-30.0,-317.0,-493.0,-99.0,0
48.0,-268.0,-27.0,-335.0,-490.0,-103.0,0
46.0,-289.0,-28.0,-360.0,-493.0,-115.0,0
22.0,-267.0,-35.0,-384.0,-497.0,-124.0,0
41.0,-278.0,-28.0,-399.0,-506.0,-137.0,0
40.0,-283.0,-27.0,-405.0,-517.0,-143.0,0
37.0,-286.0,-24.0,-404.0,-529.0,-153.0,0
33.0,-292.0,-22.0,-399.0,-543.0,-157.0,0
26.0,-295.0,-19.0,-383.0,-554.0,-163.0,0
24.0,-301.0,-27.0,-358.0,-563.0,-162.0,0
22.0,-300.0,-25.0,-326.0,-571.0,-159.0,0
15.0,-298.0,-23.0,-284.0,-580.0,-150.0,0
9.0,-293.0,-22.0,-251.0,-586.0,-142.0,0
2.0,-288.0,-29.0,-220.0,-588.0,-125.0,0
-5.0,-281.0,-30.0,-195.0,-588.0,-109.0,0
-11.0,-275.0,-37.0,-178.0,-586.0,-85.0,0
-12.0,-266.0,-45.0,-176.0,-590.0,-64.0,0
-19.0,-260.0,-48.0,-188.0,-594.0,-42.0,0
-21.0,-258.0,-55.0,-215.0,-599.0,-21.0,0
-21.0,-257.0,-54.0,-257.0,-603.0,4.0,0
-24.0,-256.0,-54.0,-306.0,-599.0,30.0,0
-23.0,-254.0,-55.0,-342.0,-592.0,55.0,0
-22.0,-253.0,-56.0,-373.0,-581.0,78.0,0
-24.0,-250.0,-56.0,-399.0,-571.0,106.0,0
-21.0,-248.0,-54.0,-418.0,-557.0,125.0,0
-18.0,-248.0,-56.0,-436.0,-544.0,147.0,0
-18.0,-246.0,-50.0,-449.0,-530.0,163.0,0
-14.0,-243.0,-46.0,-455.0,-518.0,173.0,0
-13.0,-243.0,-43.0,-446.0,-513.0,178.0,0
-8.0,-240.0,-39.0,-428.0,-512.0,180.0,0
-9.0,-235.0,-40.0,-395.0,-510.0,172.0,0
-1.0,-231.0,-43.0,-366.0,-504.0,166.0,0
-1.0,-227.0,-49.0,-338.0,-495.0,149.0,0
-2.0,-226.0,-59.0,-331.0,-483.0,130.0,0
1.0,-228.0,-55.0,-322.0,-449.0,115.0,0
7.0,-231.0,-57.0,-342.0,-419.0,110.0,0
7.0,-232.0,-59.0,-375.0,-399.0,78.0,0
6.0,-235.0,-64.0,-388.0,-380.0,53.0,0
4.0,-234.0,-57.0,-384.0,-335.0,37.0,0
9.0,-230.0,-54.0,-370.0,-282.0,14.0,0
4.0,-223.0,-45.0,-351.0,-249.0,-2.0,0
-2.0,-214.0,-46.0,-324.0,-216.0,-16.0,0
-1.0,-213.0,-46.0,-300.0,-185.0,-18.0,0
-8.0,-211.0,-45.0,-289.0,-155.0,-18.0,0
-4.0,-212.0,-43.0,-282.0,-119.0,-12.0,0
-3.0,-212.0,-41.0,-273.0,-87.0,-17.0,0
-2.0,-213.0,-43.0,-260.0,-59.0,-15.0,0
-5.0,-211.0,-44.0,-247.0,-35.0,-15.0,0
-4.0,-212.0,-47.0,-224.0,-4.0,-5.0,0
-1.0,-212.0,-52.0,-218.0,40.0,6.0,0
-4.0,-214.0,-51.0,-223.0,72.0,20.0,0
1.0,-226.0,-55.0,-232.0,102.0,31.0,0
2.0,-228.0,-56.0,-259.0,124.0,35.0,0
2.0,-228.0,-53.0,-269.0,147.0,32.0,0
0.0,-233.0,-55.0,-276.0,165.0,39.0,0
3.0,-239.0,-57.0,-273.0,186.0,50.0,0
-1.0,-246.0,-64.0,-272.0,204.0,42.0,0
-1.0,-254.0,-62.0,-259.0,223.0,32.0,0
1.0,-258.0,-64.0,-251.0,224.0,26.0,0
-11.0,-258.0,-58.0,-253.0,211.0,4.0,0
-8.0,-258.0,-62.0,-254.0,189.0,-6.0,0
-13.0,-260.0,-61.0,-245.0,169.0,-17.0,0
-12.0,-263.0,-58.0,-237.0,157.0,-20.0,0
-17.0,-260.0,-61.0,-220.0,148.0,-28.0,0
-15.0,-258.0,-57.0,-200.0,134.0,-32.0,0
-25.0,-256.0,-59.0,-164.0,115.0,-47.0,0
-33.0,-252.0,-60.0,-136.0,91.0,-51.0,0
-30.0,-253.0,-60.0,-116.0,66.0,-44.0,0
-35.0,-253.0,-63.0,-96.0,39.0,-50.0,0
-37.0,-254.0,-63.0,-80.0,16.0,-57.0,0
-39.0,-253.0,-60.0,-65.0,-5.0,-54.0,0
-38.0,-253.0,-65.0,-51.0,-27.0,-54.0,0
-31.0,-255.0,-65.0,-38.0,-41.0,-56.0,0
-35.0,-247.0,-66.0,-17.0,-48.0,-65.0,0
-31.0,-242.0,-65.0,12.0,-45.0,-68.0,0
-29.0,-234.0,-71.0,39.0,-44.0,-72.0,0
-23.0,-230.0,-76.0,61.0,-43.0,-69.0,0
-21.0,-219.0,-82.0,66.0,-45.0,-72.0,0
-17.0,-213.0,-89.0,55.0,-38.0,-66.0,0
-11.0,-210.0,-93.0,32.0,-29.0,-67.0,0
-10.0,-201.0,-99.0,5.0,-24.0,-60.0,0
-10.0,-196.0,-98.0,-24.0,-17.0,-56.0,0
-2.0,-191.0,-92.0,-54.0,-14.0,-43.0,0
6.0,-186.0,-95.0,-83.0,-18.0,-47.0,0
11.0,-177.0,-83.0,-112.0,-22.0,-45.0,0
14.0,-169.0,-78.0,-132.0,-26.0,-51.0,0
20.0,-162.0,-61.0,-146.0,-31.0,-52.0,0
17.0,-162.0,-60.0,-151.0,-41.0,-57.0,0
23.0,-153.0,-52.0,-147.0,-51.0,-60.0,0
18.0,-147.0,-45.0,-135.0,-65.0,-73.0,0
19.0,-141.0,-38.0,-116.0,-76.0,-83.0,0
13.0,-138.0,-39.0,-86.0,-90.0,-94.0,0
9.0,-133.0,-37.0,-60.0,-106.0,-92.0,0
6.0,-138.0,-50.0,-39.0,-126.0,-101.0,0
5.0,-138.0,-49.0,-53.0,-137.0,-97.0,0
3.0,-146.0,-56.0,-73.0,-140.0,-97.0,0
12.0,-147.0,-56.0,-108.0,-136.0,-102.0,0
8.0,-157.0,-60.0,-136.0,-121.0,-117.0,0
2.0,-155.0,-57.0,-164.0,-102.0,-125.0,0
-3.0,-164.0,-54.0,-174.0,-91.0,-135.0,0
-6.0,-164.0,-49.0,-170.0,-89.0,-137.0,0
1.0,-173.0,-51.0,-163.0,-91.0,-139.0,0
-7.0,-176.0,-53.0,-157.0,-95.0,-141.0,0
-4.0,-181.0,-48.0,-155.0,-102.0,-145.0,0
0.0,-192.0,-38.0,-147.0,-114.0,-155.0,0
-5.0,-192.0,-26.0,-123.0,-128.0,-165.0,0
-8.0,-194.0,-16.0,-71.0,-150.0,-162.0,0
-5.0,-194.0,-12.0,-13.0,-176.0,-158.0,0
2.0,-202.0,-16.0,39.0,-207.0,-150.0,0
3.0,-210.0,-17.0,77.0,-236.0,-156.0,0
3.0,-217.0,-20.0,111.0,-255.0,-155.0,0
5.0,-231.0,-17.0,146.0,-271.0,-145.0,0
5.0,-246.0,-24.0,183.0,-276.0,-133.0,0
19.0,-263.0,-26.0,207.0,-276.0,-118.0,0
27.0,-281.0,-33.0,220.0,-268.0,-111.0,0
35.0,-302.0,-38.0,242.0,-247.0,-102.0,0
43.0,-316.0,-40.0,267.0,-213.0,-92.0,0
54.0,-328.0,-36.0,297.0,-173.0,-79.0,0
67.0,-343.0,-33.0,334.0,-147.0,-59.0,0
73.0,-349.0,-36.0,370.0,-130.0,-36.0,0
86.0,-361.0,-34.0,399.0,-114.0,-6.0,0
93.0,-365.0,-37.0,415.0,-102.0,22.0,0
109.0,-371.0,-48.0,429.0,-96.0,33.0,0
112.0,-371.0,-52.0,426.0,-90.0,30.0,0
113.0,-378.0,-52.0,401.0,-79.0,11.0,0
105.0,-381.0,-57.0,356.0,-71.0,-7.0,0
98.0,-385.0,-59.0,312.0,-68.0,-23.0,0
91.0,-387.0,-61.0,261.0,-75.0,-39.0,0
87.0,-389.0,-57.0,199.0,-80.0,-62.0,0
84.0,-394.0,-66.0,132.0,-74.0,-91.0,0
79.0,-399.0,-62.0,71.0,-54.0,-129.0,0
79.0,-406.0,-59.0,28.0,-25.0,-165.0,0
74.0,-412.0,-59.0,-2.0,9.0,-200.0,0
68.0,-422.0,-55.0,-22.0,40.0,-228.0,0
65.0,-429.0,-50.0,-41.0,57.0,-255.0,0
65.0,-436.0,-47.0,-56.0,51.0,-270.0,0
70.0,-439.0,-37.0,-72.0,38.0,-275.0,0
76.0,-439.0,-31.0,-83.0,25.0,-267.0,0
81.0,-444.0,-30.0,-87.0,14.0,-260.0,0
81.0,-446.0,-24.0,-77.0,4.0,-256.0,0
87.0,-449.0,-10.0,-59.0,-2.0,-252.0,0
92.0,-450.0,-10.0,-50.0,4.0,-235.0,0
93.0,-455.0,3.0,-58.0,24.0,-220.0,0
92.0,-467.0,23.0,-82.0,63.0,-183.0,0
94.0,-480.0,13.0,-110.0,85.0,-141.0,0
99.0,-495.0,9.0,-173.0,95.0,-83.0,0
107.0,-519.0,-10.0,-205.0,135.0,-38.0,0
110.0,-551.0,-22.0,-224.0,208.0,31.0,0
109.0,-585.0,-9.0,-338.0,248.0,97.0,0
97.0,-606.0,-20.0,-495.0,224.0,113.0,0
98.0,-638.0,-21.0,-601.0,204.0,148.0,0
96.0,-684.0,-29.0,-667.0,166.0,205.0,0
95.0,-703.0,-19.0,-706.0,110.0,247.0,0
83.0,-716.0,-21.0,-650.0,74.0,274.0,0
74.0,-736.0,-24.0,-532.0,94.0,295.0,0
61.0,-767.0,-50.0,-396.0,119.0,289.0,0
47.0,-768.0,-34.0,-336.0,91.0,277.0,0
36.0,-759.0,-59.0,-304.0,6.0,243.0,0
20.0,-737.0,-100.0,-224.0,-75.0,147.0,0
6.0,-658.0,-110.0,-157.0,-131.0,50.0,0
-11.0,-523.0,-90.0,-128.0,-220.0,-33.0,0
-23.0,-405.0,-129.0,-84.0,-374.0,-60.0,0
-38.0,-307.0,-162.0,-140.0,-479.0,-112.0,0
-36.0,-262.0,-194.0,-347.0,-447.0,-117.0,0
-31.0,-221.0,-196.0,-581.0,-336.0,-80.0,0
-17.0,-176.0,-161.0,-783.0,-270.0,-34.0,0
-14.0,-142.0,-160.0,-915.0,-320.0,-57.0,0
-8.0,-134.0,-185.0,-957.0,-451.0,-136.0,0
-12.0,-104.0,-209.0,-1005.0,-600.0,-247.0,0
-4.0,-101.0,-234.0,-1028.0,-697.0,-317.0,0
-10.0,-74.0,-230.0,-996.0,-726.0,-402.0,0
-27.0,-51.0,-222.0,-885.0,-730.0,-477.0,0
-64.0,-11.0,-186.0,-653.0,-705.0,-559.0,0
-99.0,14.0,-181.0,-448.0,-676.0,-571.0,0
-135.0,42.0,-165.0,-340.0,-645.0,-555.0,0
-160.0,79.0,-128.0,-309.0,-619.0,-521.0,0
-178.0,123.0,-96.0,-288.0,-623.0,-446.0,0
-170.0,158.0,-52.0,-315.0,-655.0,-327.0,0
-146.0,172.0,-4.0,-414.0,-714.0,-183.0,0
-85.0,180.0,103.0,-554.0,-759.0,-20.0,0
-13.0,167.0,195.0,-667.0,-743.0,126.0,0
70.0,140.0,269.0,-724.0,-610.0,268.0,0
129.0,126.0,288.0,-678.0,-463.0,342.0,0
160.0,124.0,252.0,-542.0,-388.0,321.0,0
170.0,118.0,179.0,-382.0,-407.0,221.0,0
184.0,108.0,98.0,-284.0,-434.0,108.0,0
194.0,82.0,29.0,-299.0,-393.0,-22.0,0
185.0,69.0,2.0,-419.0,-267.0,-175.0,0
150.0,60.0,-29.0,-525.0,-108.0,-345.0,0
118.0,62.0,-40.0,-585.0,27.0,-511.0,0
67.0,56.0,-63.0,-601.0,120.0,-689.0,0
18.0,49.0,-79.0,-625.0,182.0,-798.0,0
-31.0,41.0,-90.0,-658.0,211.0,-870.0,0
-69.0,38.0,-90.0,-708.0,212.0,-892.0,0
-98.0,36.0,-84.0,-775.0,175.0,-883.0,0
-104.0,26.0,-71.0,-854.0,103.0,-845.0,0
-95.0,18.0,-66.0,-929.0,2.0,-810.0,0
-90.0,16.0,-58.0,-981.0,-104.0,-806.0,0
-86.0,15.0,-54.0,-1023.0,-178.0,-804.0,0
-82.0,16.0,-35.0,-1075.0,-211.0,-793.0,0
-83.0,20.0,-24.0,-1114.0,-232.0,-741.0,0
-83.0,11.0,-31.0,-1102.0,-240.0,-668.0,0
-79.0,2.0,-29.0,-1106.0,-255.0,-584.0,0
-72.0,-4.0,-34.0,-1114.0,-264.0,-506.0,0
-69.0,-13.0,-49.0,-1110.0,-264.0,-420.0,0
-58.0,-23.0,-64.0,-1066.0,-254.0,-334.0,0
-56.0,-32.0,-73.0,-1007.0,-252.0,-257.0,0
-54.0,-35.0,-89.0,-938.0,-277.0,-198.0,0
-56.0,-32.0,-87.0,-825.0,-340.0,-154.0,0
-57.0,-24.0,-96.0,-670.0,-435.0,-114.0,0
-66.0,-4.0,-106.0,-470.0,-566.0,-91.0,0
-63.0,10.0,-109.0,-333.0,-680.0,-54.0,0
-56.0,28.0,-108.0,-239.0,-791.0,-4.0,0
-37.0,39.0,-116.0,-202.0,-881.0,37.0,0
-16.0,53.0,-114.0,-215.0,-945.0,65.0,0
-5.0,64.0,-106.0,-256.0,-990.0,61.0,0
5.0,67.0,-104.0,-315.0,-1014.0,47.0,0
8.0,67.0,-100.0,-385.0,-1028.0,6.0,0
20.0,59.0,-93.0,-467.0,-1033.0,-23.0,0
25.0,52.0,-71.0,-529.0,-1027.0,-95.0,0
22.0,40.0,-60.0,-576.0,-1018.0,-157.0,0
34.0,7.0,-35.0,-581.0,-1001.0,-217.0,0
13.0,-15.0,13.0,-542.0,-973.0,-287.0,0
9.0,-59.0,65.0,-397.0,-915.0,-335.0,0
31.0,-97.0,89.0,-114.0,-812.0,-323.0,0
66.0,-136.0,80.0,276.0,-673.0,-261.0,0
88.0,-155.0,70.0,721.0,-480.0,-193.0,0
110.0,-182.0,40.0,1187.0,-269.0,-150.0,0
108.0,-199.0,19.0,1607.0,-121.0,-129.0,0
116.0,-222.0,0.0,2054.0,-100.0,-133.0,0
130.0,-247.0,-45.0,2340.0,-180.0,-140.0,0
148.0,-262.0,-134.0,2496.0,-276.0,-109.0,0
162.0,-299.0,-242.0,2491.0,-322.0,12.0,0
179.0,-371.0,-316.0,2427.0,-328.0,153.0,0
167.0,-426.0,-347.0,2387.0,-357.0,234.0,0
175.0,-521.0,-402.0,2301.0,-417.0,288.0,0
179.0,-679.0,-488.0,1938.0,-474.0,334.0,0
167.0,-918.0,-487.0,1249.0,-432.0,325.0,0
80.0,-1139.0,-437.0,274.0,-265.0,129.0,0
4.0,-1233.0,-214.0,-711.0,-68.0,-32.0,0
-66.0,-1157.0,-48.0,-1339.0,-88.0,71.0,0
-40.0,-1214.0,-128.0,-1161.0,-431.0,378.0,0
-1.0,-1217.0,-188.0,-728.0,-757.0,414.0,0
-26.0,-1129.0,-220.0,-72.0,-851.0,254.0,0
-48.0,-1023.0,-110.0,453.0,-719.0,142.0,0
-82.0,-875.0,-21.0,888.0,-565.0,43.0,0
-92.0,-748.0,-34.0,1405.0,-509.0,33.0,0
-95.0,-616.0,-48.0,1884.0,-473.0,71.0,0
-86.0,-520.0,-82.0,2261.0,-412.0,145.0,0
-68.0,-418.0,-91.0,2353.0,-255.0,237.0,0
-44.0,-332.0,-92.0,2318.0,-71.0,333.0,0
-26.0,-259.0,-96.0,2205.0,36.0,404.0,0
10.0,-204.0,-105.0,2041.0,30.0,443.0,0
37.0,-160.0,-117.0,1829.0,-49.0,440.0,0
64.0,-140.0,-136.0,1542.0,-152.0,432.0,0
90.0,-135.0,-146.0,1160.0,-217.0,425.0,0
110.0,-146.0,-148.0,712.0,-224.0,419.0,0
131.0,-170.0,-153.0,145.0,-186.0,394.0,0
140.0,-182.0,-124.0,-292.0,-116.0,336.0,0
125.0,-189.0,-91.0,-610.0,-33.0,242.0,0
95.0,-186.0,-70.0,-799.0,38.0,147.0,0
65.0,-187.0,-48.0,-884.0,88.0,67.0,0
47.0,-183.0,-40.0,-896.0,116.0,2.0,0
40.0,-181.0,-39.0,-847.0,127.0,-58.0,0
37.0,-175.0,-40.0,-762.0,139.0,-111.0,0
33.0,-175.0,-45.0,-661.0,170.0,-157.0,0
23.0,-175.0,-59.0,-569.0,224.0,-192.0,0
6.0,-173.0,-65.0,-465.0,270.0,-217.0,0
-11.0,-168.0,-68.0,-396.0,312.0,-218.0,0
-24.0,-166.0,-79.0,-339.0,351.0,-200.0,0
-37.0,-160.0,-83.0,-303.0,385.0,-157.0,0
-42.0,-161.0,-79.0,-273.0,421.0,-96.0,0
-45.0,-156.0,-76.0,-257.0,457.0,-30.0,0
-44.0,-159.0,-75.0,-245.0,490.0,33.0,0
-37.0,-163.0,-70.0,-238.0,516.0,88.0,0
-35.0,-169.0,-66.0,-234.0,541.0,129.0,0
-31.0,-171.0,-55.0,-214.0,568.0,145.0,0
-27.0,-178.0,-45.0,-174.0,587.0,146.0,0
-22.0,-178.0,-47.0,-117.0,601.0,135.0,0
-20.0,-179.0,-51.0,-57.0,612.0,117.0,0
-21.0,-179.0,-51.0,-5.0,619.0,94.0,0
-27.0,-179.0,-56.0,32.0,624.0,70.0,0
-30.0,-175.0,-56.0,61.0,618.0,48.0,0
-24.0,-175.0,-57.0,89.0,594.0,35.0,0
-19.0,-176.0,-61.0,120.0,570.0,28.0,0
-13.0,-172.0,-65.0,154.0,558.0,34.0,0
-8.0,-177.0,-66.0,179.0,572.0,43.0,0
0.0,-185.0,-61.0,193.0,597.0,56.0,0
9.0,-198.0,-59.0,203.0,624.0,66.0,0
17.0,-212.0,-58.0,207.0,640.0,71.0,0
22.0,-228.0,-52.0,202.0,640.0,70.0,0
29.0,-244.0,-52.0,185.0,632.0,71.0,0
37.0,-256.0,-51.0,169.0,617.0,66.0,0
39.0,-263.0,-48.0,160.0,598.0,61.0,0
44.0,-270.0,-49.0,169.0,579.0,44.0,0
48.0,-273.0,-58.0,196.0,567.0,23.0,0
46.0,-278.0,-65.0,210.0,557.0,-4.0,0
39.0,-285.0,-73.0,213.0,545.0,-33.0,0
29.0,-284.0,-79.0,209.0,528.0,-65.0,0
17.0,-283.0,-83.0,198.0,504.0,-94.0,0
12.0,-280.0,-91.0,188.0,477.0,-118.0,0
-1.0,-277.0,-89.0,177.0,444.0,-130.0,0
-10.0,-268.0,-89.0,171.0,409.0,-135.0,0
-14.0,-260.0,-86.0,173.0,372.0,-123.0,0
-21.0,-257.0,-81.0,177.0,328.0,-116.0,0
-30.0,-252.0,-69.0,177.0,289.0,-103.0,0
-31.0,-248.0,-64.0,167.0,252.0,-87.0,0
-38.0,-248.0,-54.0,151.0,216.0,-64.0,0
-35.0,-253.0,-47.0,137.0,179.0,-39.0,0
-33.0,-251.0,-39.0,123.0,143.0,-13.0,0
-29.0,-256.0,-37.0,117.0,112.0,6.0,0
-24.0,-258.0,-32.0,129.0,84.0,33.0,0
-14.0,-260.0,-37.0,155.0,59.0,50.0,0
-10.0,-260.0,-36.0,191.0,38.0,73.0,0
1.0,-262.0,-39.0,232.0,29.0,82.0,0
11.0,-263.0,-37.0,260.0,29.0,92.0,0
21.0,-262.0,-47.0,278.0,33.0,92.0,0
33.0,-264.0,-52.0,289.0,38.0,93.0,0
42.0,-265.0,-54.0,295.0,45.0,85.0,0
46.0,-263.0,-56.0,295.0,51.0,82.0,0
53.0,-264.0,-56.0,290.0,57.0,75.0,0
64.0,-260.0,-58.0,290.0,64.0,69.0,0
70.0,-257.0,-63.0,290.0,77.0,57.0,0
78.0,-251.0,-64.0,288.0,98.0,47.0,0
85.0,-247.0,-68.0,283.0,126.0,28.0,0
87.0,-243.0,-75.0,277.0,157.0,11.0,0
87.0,-237.0,-77.0,267.0,182.0,-16.0,0
86.0,-232.0,-80.0,250.0,210.0,-36.0,0
82.0,-225.0,-82.0,227.0,239.0,-54.0,0
75.0,-223.0,-81.0,206.0,265.0,-65.0,0
73.0,-219.0,-79.0,184.0,283.0,-74.0,0
70.0,-221.0,-79.0,165.0,295.0,-77.0,0
61.0,-221.0,-81.0,135.0,305.0,-79.0,0
59.0,-226.0,-80.0,108.0,310.0,-76.0,0
52.0,-232.0,-78.0,88.0,310.0,-74.0,0
46.0,-238.0,-75.0,75.0,310.0,-67.0,0
39.0,-243.0,-70.0,72.0,310.0,-61.0,0
38.0,-245.0,-75.0,73.0,312.0,-53.0,0
33.0,-251.0,-74.0,79.0,317.0,-47.0,0
30.0,-255.0,-72.0,85.0,326.0,-39.0,0
31.0,-260.0,-74.0,84.0,339.0,-34.0,0
27.0,-263.0,-68.0,77.0,358.0,-33.0,0
32.0,-267.0,-67.0,78.0,368.0,-37.0,0
26.0,-267.0,-66.0,89.0,373.0,-40.0,0
26.0,-264.0,-65.0,110.0,373.0,-47.0,0
23.0,-261.0,-66.0,133.0,373.0,-53.0,0
24.0,-260.0,-71.0,153.0,368.0,-60.0,0
29.0,-256.0,-69.0,168.0,364.0,-65.0,0
26.0,-254.0,-72.0,177.0,358.0,-68.0,0
32.0,-254.0,-73.0,174.0,353.0,-68.0,0
30.0,-252.0,-71.0,167.0,349.0,-62.0,0
31.0,-255.0,-65.0,153.0,347.0,-53.0,0
33.0,-251.0,-63.0,142.0,344.0,-38.0,0
33.0,-249.0,-60.0,138.0,341.0,-21.0,0
35.0,-249.0,-56.0,140.0,333.0,-4.0,0
38.0,-254.0,-51.0,143.0,325.0,14.0,0
39.0,-250.0,-54.0,145.0,315.0,28.0,0
41.0,-251.0,-53.0,143.0,305.0,40.0,0
43.0,-250.0,-55.0,137.0,297.0,49.0,0
44.0,-253.0,-54.0,129.0,290.0,53.0,0
43.0,-249.0,-56.0,116.0,285.0,55.0,0
41.0,-247.0,-56.0,106.0,284.0,52.0,0
41.0,-250.0,-59.0,99.0,285.0,45.0,0
37.0,-249.0,-59.0,87.0,287.0,37.0,0
31.0,-251.0,-60.0,74.0,285.0,30.0,0
32.0,-250.0,-62.0,65.0,287.0,22.0,0
29.0,-251.0,-58.0,62.0,287.0,18.0,0
27.0,-252.0,-60.0,63.0,290.0,11.0,0
27.0,-252.0,-59.0,67.0,291.0,8.0,0
25.0,-254.0,-61.0,71.0,293.0,2.0,0
23.0,-251.0,-59.0,71.0,293.0,1.0,0
25.0,-250.0,-58.0,71.0,293.0,-3.0,0
24.0,-251.0,-56.0,72.0,291.0,-3.0,0
24.0,-253.0,-55.0,75.0,287.0,-4.0,0
24.0,-251.0,-56.0,77.0,284.0,1.0,0
26.0,-248.0,-57.0,79.0,281.0,1.0,0
27.0,-249.0,-55.0,81.0,277.0,7.0,0
31.0,-250.0,-56.0,86.0,273.0,9.0,0
34.0,-249.0,-57.0,85.0,268.0,15.0,0
33.0,-245.0,-57.0,78.0,260.0,16.0,0
34.0,-248.0,-57.0,69.0,257.0,19.0,0
38.0,-246.0,-55.0,58.0,250.0,18.0,0
34.0,-249.0,-55.0,46.0,243.0,19.0,0
35.0,-248.0,-56.0,35.0,236.0,13.0,0
36.0,-251.0,-54.0,27.0,230.0,11.0,0
34.0,-251.0,-55.0,20.0,227.0,4.0,0
36.0,-251.0,-56.0,19.0,225.0,-1.0,0
32.0,-251.0,-55.0,20.0,222.0,-10.0,0
31.0,-250.0,-53.0,29.0,220.0,-15.0,0
31.0,-250.0,-51.0,38.0,222.0,-23.0,0
30.0,-250.0,-51.0,48.0,223.0,-27.0,0
29.0,-253.0,-51.0,60.0,225.0,-32.0,0
27.0,-251.0,-51.0,70.0,227.0,-32.0,0
30.0,-253.0,-51.0,80.0,231.0,-34.0,0
28.0,-250.0,-54.0,91.0,234.0,-32.0,0
34.0,-253.0,-52.0,100.0,240.0,-31.0,0
33.0,-254.0,-50.0,109.0,244.0,-26.0,0
32.0,-254.0,-52.0,118.0,250.0,-23.0,0
34.0,-254.0,-53.0,124.0,254.0,-14.0,0
34.0,-256.0,-51.0,129.0,261.0,-10.0,0
35.0,-255.0,-53.0,131.0,267.0,-3.0,0
37.0,-254.0,-52.0,133.0,273.0,0.0,0
34.0,-252.0,-52.0,136.0,279.0,5.0,0
37.0,-255.0,-50.0,136.0,283.0,4.0,0
37.0,-250.0,-53.0,135.0,285.0,5.0,0
38.0,-249.0,-54.0,133.0,286.0,2.0,0
36.0,-246.0,-54.0,125.0,286.0,3.0,0
36.0,-243.0,-51.0,112.0,284.0,-1.0,0
36.0,-245.0,-52.0,98.0,282.0,-1.0,0
35.0,-241.0,-51.0,81.0,281.0,-6.0,0
33.0,-242.0,-48.0,64.0,279.0,-7.0,0
30.0,-244.0,-50.0,48.0,276.0,-11.0,0
33.0,-243.0,-47.0,35.0,275.0,-12.0,0
29.0,-245.0,-50.0,25.0,274.0,-16.0,0
30.0,-243.0,-47.0,19.0,275.0,-18.0,0
25.0,-244.0,-50.0,9.0,280.0,-20.0,0
26.0,-247.0,-48.0,0.0,284.0,-20.0,0
26.0,-249.0,-51.0,-8.0,284.0,-24.0,0
25.0,-249.0,-48.0,-15.0,283.0,-27.0,0
25.0,-251.0,-53.0,-22.0,283.0,-30.0,0
24.0,-253.0,-50.0,-27.0,282.0,-33.0,0
21.0,-254.0,-48.0,-31.0,280.0,-36.0,0
23.0,-251.0,-46.0,-30.0,279.0,-38.0,0
23.0,-258.0,-51.0,-26.0,277.0,-40.0,0
26.0,-258.0,-49.0,-24.0,275.0,-43.0,0
26.0,-259.0,-47.0,-19.0,272.0,-44.0,0
29.0,-258.0,-49.0,-18.0,271.0,-45.0,0
29.0,-258.0,-42.0,-14.0,271.0,-46.0,0
30.0,-258.0,-48.0,-8.0,267.0,-44.0,0
30.0,-255.0,-46.0,-2.0,264.0,-42.0,0
30.0,-256.0,-48.0,0.0,260.0,-43.0,0
29.0,-259.0,-49.0,-2.0,259.0,-40.0,0
29.0,-257.0,-47.0,1.0,255.0,-40.0,0
27.0,-256.0,-46.0,6.0,254.0,-38.0,0
28.0,-256.0,-50.0,11.0,251.0,-35.0,0
27.0,-254.0,-52.0,12.0,249.0,-33.0,0
25.0,-253.0,-49.0,11.0,248.0,-30.0,0
27.0,-254.0,-46.0,8.0,247.0,-27.0,0
28.0,-254.0,-49.0,5.0,242.0,-26.0,0
27.0,-255.0,-48.0,0.0,240.0,-26.0,0
25.0,-252.0,-51.0,-2.0,238.0,-25.0,0
29.0,-253.0,-46.0,-4.0,234.0,-22.0,0
27.0,-256.0,-44.0,-6.0,233.0,-21.0,0
27.0,-251.0,-44.0,-5.0,232.0,-21.0,0
28.0,-255.0,-44.0,-3.0,231.0,-23.0,0
28.0,-252.0,-43.0,-1.0,229.0,-21.0,0
30.0,-254.0,-46.0,-1.0,226.0,-22.0,0
28.0,-249.0,-42.0,-2.0,224.0,-22.0,0
27.0,-251.0,-48.0,-3.0,224.0,-23.0,0
29.0,-252.0,-41.0,-7.0,223.0,-22.0,0
29.0,-250.0,-39.0,-10.0,223.0,-23.0,0
30.0,-249.0,-42.0,-13.0,223.0,-21.0,0
27.0,-249.0,-44.0,-17.0,224.0,-22.0,0
29.0,-249.0,-42.0,-20.0,224.0,-20.0,0
28.0,-251.0,-38.0,-23.0,223.0,-21.0,0
26.0,-248.0,-41.0,-24.0,219.0,-19.0,0
26.0,-249.0,-38.0,-25.0,215.0,-20.0,0
26.0,-249.0,-39.0,-26.0,210.0,-17.0,0
26.0,-249.0,-36.0,-28.0,206.0,-17.0,0
27.0,-253.0,-40.0,-28.0,202.0,-14.0,0
28.0,-248.0,-38.0,-30.0,197.0,-15.0,0
24.0,-249.0,-38.0,-34.0,196.0,-11.0,0
24.0,-248.0,-35.0,-38.0,195.0,-11.0,0
22.0,-248.0,-37.0,-46.0,194.0,-10.0,0
25.0,-249.0,-39.0,-51.0,191.0,-11.0,0
27.0,-250.0,-34.0,-57.0,189.0,-8.0,0
25.0,-251.0,-39.0,-64.0,187.0,-10.0,0
29.0,-252.0,-37.0,-70.0,186.0,-8.0,0
29.0,-252.0,-35.0,-73.0,184.0,-10.0,0
26.0,-255.0,-38.0,-78.0,181.0,-7.0,0
28.0,-253.0,-37.0,-84.0,177.0,-10.0,0
30.0,-254.0,-36.0,-88.0,176.0,-7.0,0
29.0,-253.0,-39.0,-92.0,174.0,-8.0,0
27.0,-250.0,-34.0,-94.0,173.0,-4.0,0
30.0,-253.0,-41.0,-96.0,171.0,-6.0,0
31.0,-252.0,-38.0,-95.0,172.0,-3.0,0
33.0,-256.0,-36.0,-92.0,173.0,-5.0,0
32.0,-255.0,-39.0,-90.0,174.0,-1.0,0
32.0,-256.0,-36.0,-90.0,176.0,-3.0,0
29.0,-257.0,-35.0,-88.0,177.0,-1.0,0
32.0,-259.0,-41.0,-80.0,177.0,-4.0,0
31.0,-256.0,-36.0,-73.0,176.0,-1.0,0
28.0,-256.0,-35.0,-68.0,178.0,-3.0,0
28.0,-255.0,-33.0,-63.0,178.0,1.0,0
30.0,-252.0,-34.0,-58.0,175.0,-2.0,0
29.0,-256.0,-36.0,-55.0,174.0,0.0,0
28.0,-255.0,-37.0,-53.0,169.0,-2.0,0
28.0,-253.0,-36.0,-51.0,167.0,-2.0,0
27.0,-252.0,-35.0,-51.0,163.0,-5.0,0
29.0,-253.0,-34.0,-48.0,161.0,-4.0,0
27.0,-253.0,-35.0,-44.0,159.0,-8.0,0
28.0,-253.0,-35.0,-38.0,159.0,-6.0,0
25.0,-250.0,-41.0,-35.0,158.0,-8.0,0
26.0,-251.0,-34.0,-33.0,157.0,-7.0,0
27.0,-252.0,-37.0,-33.0,160.0,-7.0,0
27.0,-251.0,-34.0,-33.0,159.0,-2.0,0
24.0,-249.0,-33.0,-33.0,160.0,-3.0,0
28.0,-251.0,-34.0,-32.0,160.0,1.0,0
27.0,-252.0,-35.0,-34.0,157.0,3.0,0
25.0,-251.0,-35.0,-36.0,153.0,5.0,0
25.0,-252.0,-34.0,-42.0,148.0,6.0,0
24.0,-252.0,-36.0,-47.0,143.0,7.0,0
24.0,-253.0,-35.0,-53.0,139.0,6.0,0
24.0,-251.0,-36.0,-59.0,135.0,8.0,0
24.0,-254.0,-34.0,-62.0,133.0,7.0,0
25.0,-252.0,-33.0,-62.0,131.0,9.0,0
21.0,-254.0,-33.0,-61.0,131.0,10.0,0
23.0,-254.0,-33.0,-59.0,130.0,10.0,0
26.0,-255.0,-34.0,-56.0,131.0,10.0,0
24.0,-252.0,-34.0,-51.0,133.0,11.0,0
25.0,-251.0,-36.0,-50.0,133.0,11.0,0
24.0,-250.0,-34.0,-53.0,132.0,12.0,0
26.0,-251.0,-38.0,-55.0,129.0,12.0,0
29.0,-252.0,-38.0,-59.0,126.0,11.0,0
26.0,-251.0,-33.0,-62.0,123.0,9.0,0
25.0,-249.0,-35.0,-66.0,122.0,8.0,0
27.0,-251.0,-33.0,-70.0,120.0,7.0,0
25.0,-251.0,-37.0,-69.0,119.0,5.0,0
25.0,-248.0,-38.0,-71.0,118.0,3.0,0
26.0,-249.0,-38.0,-73.0,114.0,2.0,0
25.0,-250.0,-35.0,-75.0,113.0,0.0,0
26.0,-249.0,-39.0,-79.0,112.0,-1.0,0
24.0,-247.0,-39.0,-82.0,114.0,-1.0,0
26.0,-250.0,-38.0,-85.0,114.0,-1.0,0
25.0,-248.0,-38.0,-92.0,114.0,1.0,0
27.0,-251.0,-40.0,-99.0,116.0,1.0,0
27.0,-249.0,-40.0,-106.0,117.0,4.0,0
26.0,-247.0,-40.0,-112.0,120.0,3.0,0
30.0,-251.0,-37.0,-117.0,121.0,6.0,0
27.0,-252.0,-40.0,-117.0,123.0,4.0,0
28.0,-254.0,-42.0,-118.0,125.0,3.0,0
27.0,-254.0,-41.0,-117.0,128.0,1.0,0
32.0,-252.0,-40.0,-116.0,129.0,3.0,0
29.0,-255.0,-41.0,-111.0,134.0,1.0,0
31.0,-255.0,-44.0,-107.0,140.0,3.0,0
32.0,-250.0,-39.0,-106.0,144.0,0.0,0
31.0,-255.0,-41.0,-106.0,147.0,5.0,0
32.0,-251.0,-44.0,-108.0,153.0,5.0,0
32.0,-252.0,-45.0,-110.0,160.0,10.0,0
37.0,-254.0,-43.0,-109.0,163.0,11.0,0
35.0,-251.0,-46.0,-108.0,165.0,15.0,0
34.0,-253.0,-42.0,-104.0,167.0,15.0,0
33.0,-252.0,-42.0,-102.0,165.0,17.0,0
31.0,-249.0,-45.0,-100.0,162.0,16.0,0
30.0,-251.0,-43.0,-101.0,157.0,20.0,0
31.0,-249.0,-47.0,-106.0,155.0,19.0,0
30.0,-249.0,-47.0,-115.0,155.0,24.0,0
35.0,-248.0,-52.0,-128.0,156.0,25.0,0
30.0,-247.0,-49.0,-140.0,161.0,30.0,0
30.0,-246.0,-50.0,-145.0,163.0,31.0,0
27.0,-245.0,-50.0,-147.0,166.0,36.0,0
27.0,-248.0,-47.0,-147.0,166.0,36.0,0
28.0,-244.0,-51.0,-142.0,166.0,42.0,0
31.0,-249.0,-45.0,-135.0,166.0,42.0,0
33.0,-245.0,-50.0,-131.0,167.0,47.0,0
35.0,-246.0,-52.0,-127.0,170.0,45.0,0
37.0,-248.0,-50.0,-126.0,176.0,50.0,0
33.0,-244.0,-50.0,-126.0,183.0,49.0,0
36.0,-244.0,-48.0,-129.0,191.0,54.0,0
40.0,-248.0,-53.0,-135.0,197.0,51.0,0
38.0,-245.0,-50.0,-139.0,204.0,55.0,0
40.0,-248.0,-52.0,-144.0,210.0,55.0,0
40.0,-246.0,-54.0,-150.0,215.0,57.0,0
40.0,-247.0,-52.0,-155.0,221.0,56.0,0
42.0,-247.0,-56.0,-163.0,223.0,58.0,0
41.0,-247.0,-56.0,-169.0,228.0,56.0,0
41.0,-248.0,-55.0,-178.0,232.0,59.0,0
39.0,-248.0,-50.0,-183.0,235.0,57.0,0
41.0,-247.0,-53.0,-185.0,240.0,58.0,0
38.0,-251.0,-52.0,-180.0,244.0,55.0,0
39.0,-252.0,-53.0,-167.0,247.0,57.0,0
38.0,-254.0,-53.0,-153.0,251.0,55.0,0
40.0,-252.0,-52.0,-137.0,256.0,56.0,0
41.0,-250.0,-55.0,-123.0,266.0,55.0,0
40.0,-253.0,-58.0,-117.0,280.0,57.0,0
44.0,-251.0,-55.0,-120.0,295.0,55.0,0
41.0,-247.0,-59.0,-128.0,310.0,56.0,0
45.0,-248.0,-55.0,-138.0,324.0,55.0,0
49.0,-250.0,-54.0,-148.0,339.0,56.0,0
47.0,-248.0,-45.0,-151.0,351.0,56.0,0
45.0,-248.0,-48.0,-145.0,361.0,58.0,0
43.0,-249.0,-49.0,-136.0,368.0,59.0,0
41.0,-245.0,-47.0,-125.0,371.0,58.0,0
44.0,-246.0,-51.0,-118.0,371.0,59.0,0
44.0,-242.0,-53.0,-113.0,373.0,61.0,0
40.0,-245.0,-54.0,-111.0,375.0,63.0,0
42.0,-243.0,-54.0,-111.0,380.0,68.0,0
40.0,-241.0,-54.0,-115.0,385.0,72.0,0
39.0,-238.0,-56.0,-120.0,389.0,77.0,0
39.0,-239.0,-55.0,-129.0,393.0,82.0,0
36.0,-239.0,-55.0,-136.0,393.0,87.0,0
37.0,-239.0,-56.0,-145.0,392.0,94.0,0
35.0,-240.0,-56.0,-149.0,387.0,98.0,0
32.0,-238.0,-54.0,-153.0,378.0,106.0,0
32.0,-238.0,-49.0,-155.0,368.0,112.0,0
32.0,-240.0,-50.0,-153.0,357.0,116.0,0
32.0,-241.0,-44.0,-150.0,346.0,119.0,0
29.0,-238.0,-43.0,-146.0,333.0,123.0,0
27.0,-237.0,-38.0,-142.0,319.0,124.0,0
24.0,-236.0,-32.0,-143.0,300.0,125.0,0
20.0,-234.0,-28.0,-143.0,283.0,123.0,0
19.0,-234.0,-26.0,-141.0,264.0,124.0,0
22.0,-237.0,-28.0,-139.0,245.0,123.0,0
21.0,-236.0,-30.0,-135.0,223.0,127.0,0
21.0,-235.0,-26.0,-134.0,203.0,129.0,0
18.0,-232.0,-27.0,-134.0,182.0,134.0,0
20.0,-234.0,-27.0,-139.0,156.0,139.0,0
19.0,-231.0,-33.0,-145.0,128.0,146.0,0
21.0,-232.0,-37.0,-156.0,95.0,152.0,0
14.0,-230.0,-41.0,-170.0,58.0,160.0,0
10.0,-231.0,-43.0,-189.0,15.0,161.0,0
6.0,-231.0,-48.0,-211.0,-29.0,164.0,0
8.0,-236.0,-47.0,-234.0,-81.0,161.0,0
7.0,-232.0,-52.0,-257.0,-123.0,160.0,0
9.0,-233.0,-56.0,-281.0,-158.0,153.0,0
8.0,-234.0,-57.0,-310.0,-186.0,146.0,0
5.0,-232.0,-54.0,-345.0,-215.0,134.0,0
4.0,-232.0,-51.0,-375.0,-245.0,127.0,0
2.0,-228.0,-52.0,-405.0,-278.0,115.0,0
1.0,-228.0,-48.0,-434.0,-310.0,111.0,0
8.0,-231.0,-50.0,-457.0,-337.0,101.0,0
14.0,-230.0,-50.0,-473.0,-368.0,94.0,0
12.0,-229.0,-54.0,-488.0,-389.0,83.0,0
19.0,-234.0,-58.0,-505.0,-403.0,75.0,0
22.0,-230.0,-58.0,-516.0,-415.0,61.0,0
20.0,-230.0,-63.0,-516.0,-429.0,53.0,0
20.0,-227.0,-67.0,-513.0,-454.0,40.0,0
18.0,-228.0,-62.0,-525.0,-488.0,35.0,0
17.0,-225.0,-66.0,-527.0,-530.0,24.0,0
11.0,-215.0,-66.0,-523.0,-576.0,15.0,0
10.0,-215.0,-63.0,-525.0,-633.0,-2.0,0
5.0,-213.0,-63.0,-535.0,-709.0,-15.0,0
6.0,-214.0,-62.0,-539.0,-775.0,-38.0,0
5.0,-218.0,-60.0,-536.0,-840.0,-59.0,0
4.0,-220.0,-59.0,-525.0,-895.0,-83.0,0
2.0,-221.0,-61.0,-508.0,-935.0,-100.0,0
1.0,-226.0,-57.0,-485.0,-958.0,-123.0,0
-4.0,-232.0,-57.0,-461.0,-973.0,-134.0,0
-6.0,-240.0,-50.0,-416.0,-982.0,-149.0,0
-5.0,-243.0,-48.0,-337.0,-985.0,-163.0,0
-10.0,-246.0,-42.0,-242.0,-975.0,-182.0,0
-10.0,-244.0,-42.0,-138.0,-966.0,-182.0,0
-7.0,-246.0,-38.0,-65.0,-960.0,-179.0,0
5.0,-250.0,-36.0,-14.0,-963.0,-159.0,0
5.0,-256.0,-40.0,30.0,-967.0,-143.0,0
7.0,-257.0,-39.0,76.0,-968.0,-127.0,0
2.0,-257.0,-49.0,134.0,-979.0,-115.0,0
7.0,-259.0,-49.0,205.0,-1002.0,-90.0,0
10.0,-258.0,-51.0,277.0,-1030.0,-74.0,0
11.0,-255.0,-56.0,344.0,-1057.0,-61.0,0
16.0,-256.0,-56.0,409.0,-1067.0,-44.0,0
25.0,-258.0,-56.0,442.0,-1066.0,-30.0,0
32.0,-258.0,-62.0,460.0,-1051.0,-31.0,0
39.0,-260.0,-66.0,459.0,-1023.0,-26.0,0
51.0,-266.0,-66.0,436.0,-985.0,-20.0,0
58.0,-268.0,-70.0,397.0,-942.0,-19.0,0
62.0,-272.0,-73.0,345.0,-896.0,-26.0,0
70.0,-275.0,-78.0,280.0,-850.0,-4.0,0
76.0,-286.0,-73.0,204.0,-782.0,0.0,0
79.0,-292.0,-66.0,113.0,-687.0,-29.0,0
78.0,-301.0,-61.0,51.0,-632.0,-44.0,0
81.0,-310.0,-57.0,9.0,-583.0,-46.0,0
84.0,-321.0,-58.0,-15.0,-529.0,-45.0,0
86.0,-329.0,-54.0,-25.0,-481.0,-20.0,0
86.0,-340.0,-52.0,-23.0,-400.0,-24.0,0
83.0,-350.0,-52.0,-12.0,-321.0,-55.0,0
85.0,-365.0,-54.0,8.0,-261.0,-70.0,0
81.0,-372.0,-57.0,29.0,-220.0,-80.0,0
78.0,-384.0,-57.0,45.0,-177.0,-89.0,0
73.0,-387.0,-60.0,40.0,-144.0,-93.0,0
64.0,-392.0,-63.0,29.0,-117.0,-96.0,0
54.0,-402.0,-63.0,16.0,-95.0,-94.0,0
50.0,-414.0,-58.0,-1.0,-62.0,-86.0,0
45.0,-433.0,-66.0,-20.0,-21.0,-78.0,0
43.0,-447.0,-67.0,-42.0,25.0,-68.0,0
41.0,-471.0,-66.0,-62.0,73.0,-60.0,0
41.0,-496.0,-64.0,-76.0,120.0,-46.0,0
44.0,-517.0,-56.0,-89.0,179.0,-24.0,0
51.0,-555.0,-52.0,-121.0,232.0,2.0,0
52.0,-590.0,-48.0,-165.0,276.0,36.0,0
56.0,-635.0,-51.0,-224.0,307.0,79.0,0
63.0,-681.0,-50.0,-302.0,324.0,125.0,0
56.0,-720.0,-50.0,-384.0,319.0,175.0,0
55.0,-761.0,-48.0,-446.0,300.0,225.0,0
50.0,-776.0,-53.0,-482.0,282.0,264.0,0
48.0,-798.0,-57.0,-454.0,283.0,292.0,0
47.0,-804.0,-63.0,-355.0,317.0,279.0,0
31.0,-788.0,-73.0,-156.0,381.0,204.0,0
1.0,-757.0,-87.0,41.0,432.0,110.0,0
-19.0,-716.0,-109.0,229.0,452.0,42.0,0
-33.0,-680.0,-140.0,292.0,431.0,8.0,0
-36.0,-620.0,-159.0,228.0,391.0,-38.0,0
-40.0,-581.0,-189.0,133.0,344.0,-71.0,0
-45.0,-511.0,-201.0,-1.0,279.0,-72.0,0
-45.0,-451.0,-220.0,-160.0,191.0,-38.0,0
-42.0,-369.0,-191.0,-280.0,144.0,-30.0,0
-19.0,-317.0,-184.0,-296.0,141.0,-10.0,0
-4.0,-265.0,-174.0,-302.0,173.0,-5.0,0
13.0,-224.0,-165.0,-291.0,204.0,0.0,0
31.0,-201.0,-164.0,-259.0,234.0,-13.0,0
44.0,-161.0,-138.0,-211.0,242.0,-31.0,0
55.0,-123.0,-134.0,-98.0,209.0,-57.0,0
62.0,-84.0,-135.0,54.0,151.0,-95.0,0
73.0,-54.0,-169.0,194.0,98.0,-154.0,0
69.0,-28.0,-211.0,277.0,91.0,-212.0,0
53.0,12.0,-234.0,240.0,149.0,-300.0,0
40.0,36.0,-247.0,83.0,234.0,-353.0,0
25.0,67.0,-263.0,-51.0,323.0,-370.0,0
17.0,90.0,-276.0,-153.0,396.0,-356.0,0
-1.0,119.0,-255.0,-241.0,445.0,-372.0,0
-22.0,151.0,-222.0,-291.0,449.0,-404.0,0
-47.0,178.0,-200.0,-297.0,409.0,-434.0,0
-72.0,211.0,-166.0,-342.0,325.0,-419.0,0
-78.0,233.0,-127.0,-450.0,210.0,-363.0,0
-75.0,240.0,-67.0,-617.0,49.0,-252.0,0
-52.0,227.0,17.0,-795.0,-45.0,-176.0,0
-17.0,172.0,134.0,-882.0,-86.0,-120.0,0
10.0,86.0,253.0,-831.0,-154.0,-110.0,0
21.0,19.0,273.0,-554.0,-236.0,-133.0,0
26.0,12.0,168.0,-170.0,-241.0,-160.0,0
17.0,23.0,96.0,61.0,-132.0,-153.0,0
1.0,32.0,77.0,174.0,8.0,-142.0,0
-22.0,52.0,40.0,241.0,73.0,-142.0,0
-33.0,69.0,-11.0,251.0,83.0,-155.0,0
-43.0,88.0,-56.0,202.0,100.0,-163.0,0
-37.0,89.0,-97.0,123.0,124.0,-165.0,0
-31.0,81.0,-116.0,-20.0,154.0,-164.0,0
-21.0,69.0,-113.0,-190.0,174.0,-164.0,0
-7.0,63.0,-106.0,-337.0,185.0,-168.0,0
-14.0,48.0,-103.0,-436.0,189.0,-185.0,0
-22.0,38.0,-93.0,-489.0,192.0,-199.0,0
-26.0,32.0,-84.0,-508.0,194.0,-200.0,0
-23.0,25.0,-79.0,-509.0,185.0,-185.0,0
-23.0,28.0,-65.0,-508.0,145.0,-197.0,0
-24.0,39.0,-59.0,-517.0,99.0,-199.0,0
-29.0,34.0,-63.0,-562.0,48.0,-195.0,0
-26.0,31.0,-58.0,-630.0,-18.0,-150.0,0
-22.0,25.0,-55.0,-711.0,-82.0,-112.0,0
-19.0,17.0,-56.0,-797.0,-137.0,-80.0,0
-15.0,13.0,-52.0,-862.0,-181.0,-55.0,0
-12.0,9.0,-53.0,-905.0,-210.0,-28.0,0
2.0,-6.0,-55.0,-949.0,-227.0,-3.0,0
-7.0,2.0,-42.0,-1005.0,-239.0,-22.0,0
-5.0,-4.0,-41.0,-990.0,-250.0,0.0,0
0.0,-6.0,-35.0,-930.0,-252.0,29.0,0
9.0,-9.0,-38.0,-862.0,-256.0,48.0,0
10.0,-8.0,-38.0,-778.0,-251.0,57.0,0
29.0,-12.0,-34.0,-674.0,-237.0,79.0,0
26.0,-14.0,-24.0,-555.0,-221.0,65.0,0
30.0,-13.0,-16.0,-425.0,-201.0,48.0,0
31.0,-20.0,-10.0,-291.0,-182.0,32.0,0
32.0,-21.0,-3.0,-149.0,-165.0,11.0,0
29.0,-21.0,6.0,34.0,-150.0,-8.0,0
26.0,-30.0,22.0,190.0,-142.0,-29.0,0
25.0,-38.0,42.0,347.0,-148.0,-53.0,0
22.0,-54.0,67.0,501.0,-172.0,-75.0,0
2.0,-79.0,99.0,665.0,-217.0,-109.0,0
-20.0,-116.0,125.0,873.0,-278.0,-147.0,0
-28.0,-146.0,146.0,1159.0,-354.0,-177.0,0
-28.0,-178.0,153.0,1484.0,-427.0,-183.0,0
-20.0,-196.0,130.0,1793.0,-456.0,-128.0,0
-11.0,-203.0,79.0,2043.0,-371.0,-52.0,0
-15.0,-209.0,36.0,2126.0,-262.0,2.0,0
-37.0,-251.0,2.0,2177.0,-195.0,15.0,0
-65.0,-298.0,-48.0,2276.0,-153.0,-24.0,0
-97.0,-318.0,-107.0,2356.0,-77.0,-90.0,0
-130.0,-346.0,-187.0,2298.0,42.0,-121.0,0
-128.0,-385.0,-243.0,2171.0,95.0,-31.0,0
-61.0,-461.0,-290.0,2119.0,-51.0,298.0,0
79.0,-642.0,-330.0,2101.0,-350.0,843.0,0
203.0,-851.0,-350.0,1905.0,-559.0,1320.0,0
267.0,-1000.0,-335.0,1519.0,-475.0,1315.0,0
267.0,-1009.0,-250.0,1218.0,-384.0,954.0,0
185.0,-833.0,-193.0,745.0,-488.0,359.0,0
87.0,-761.0,-243.0,-104.0,-666.0,-158.0,0
-7.0,-901.0,-283.0,-1115.0,-686.0,-482.0,0
-101.0,-1055.0,-244.0,-1720.0,-547.0,-605.0,0
-139.0,-1110.0,-162.0,-1853.0,-364.0,-484.0,0
-95.0,-1068.0,-69.0,-1587.0,-262.0,-191.0,0
-27.0,-971.0,-44.0,-946.0,-286.0,105.0,0
-7.0,-885.0,-31.0,46.0,-380.0,231.0,0
-9.0,-767.0,-12.0,819.0,-419.0,304.0,0
-6.0,-639.0,21.0,1453.0,-358.0,385.0,0
-3.0,-509.0,33.0,1968.0,-247.0,469.0,0
0.0,-394.0,9.0,2375.0,-139.0,496.0,0
12.0,-291.0,-25.0,2603.0,-60.0,454.0,0
31.0,-227.0,-93.0,2603.0,-21.0,363.0,0
36.0,-188.0,-125.0,2311.0,14.0,279.0,0
54.0,-150.0,-143.0,1779.0,48.0,219.0,0
75.0,-133.0,-146.0,1077.0,56.0,182.0,0
103.0,-143.0,-137.0,551.0,72.0,160.0,0
125.0,-157.0,-117.0,129.0,110.0,134.0,0
133.0,-173.0,-106.0,-177.0,159.0,77.0,0
127.0,-173.0,-94.0,-414.0,193.0,2.0,0
112.0,-165.0,-84.0,-602.0,171.0,-84.0,0
101.0,-162.0,-83.0,-731.0,103.0,-163.0,0
89.0,-160.0,-82.0,-831.0,49.0,-246.0,0
82.0,-165.0,-71.0,-890.0,57.0,-298.0,0
79.0,-159.0,-53.0,-893.0,150.0,-336.0,0
71.0,-156.0,-47.0,-802.0,265.0,-349.0,0
59.0,-151.0,-45.0,-687.0,382.0,-354.0,0
55.0,-142.0,-36.0,-569.0,478.0,-344.0,0
50.0,-144.0,-43.0,-467.0,550.0,-337.0,0
40.0,-142.0,-48.0,-395.0,607.0,-323.0,0
27.0,-141.0,-49.0,-330.0,650.0,-301.0,0
15.0,-144.0,-63.0,-278.0,677.0,-264.0,0
9.0,-155.0,-77.0,-243.0,695.0,-230.0,0
-5.0,-164.0,-89.0,-243.0,704.0,-194.0,0
-12.0,-176.0,-91.0,-271.0,704.0,-162.0,0
-12.0,-183.0,-89.0,-294.0,701.0,-116.0,0
-4.0,-195.0,-85.0,-307.0,695.0,-83.0,0
-1.0,-201.0,-83.0,-318.0,685.0,-70.0,0
-3.0,-199.0,-78.0,-318.0,673.0,-74.0,0
1.0,-197.0,-73.0,-309.0,648.0,-77.0,0
0.0,-196.0,-82.0,-305.0,606.0,-86.0,0
-3.0,-196.0,-79.0,-318.0,553.0,-90.0,0
-10.0,-196.0,-82.0,-342.0,488.0,-97.0,0
-11.0,-199.0,-82.0,-373.0,404.0,-100.0,0
-12.0,-204.0,-82.0,-409.0,333.0,-110.0,0
-12.0,-212.0,-79.0,-442.0,270.0,-118.0,0
-12.0,-225.0,-84.0,-478.0,229.0,-129.0,0
-19.0,-234.0,-83.0,-516.0,209.0,-138.0,0
-23.0,-244.0,-77.0,-540.0,202.0,-137.0,0
-20.0,-246.0,-81.0,-542.0,204.0,-128.0,0
-23.0,-249.0,-83.0,-535.0,214.0,-118.0,0
-14.0,-249.0,-86.0,-527.0,221.0,-102.0,0
-26.0,-244.0,-100.0,-523.0,221.0,-84.0,0
-11.0,-249.0,-91.0,-511.0,202.0,-69.0,0
-5.0,-246.0,-94.0,-502.0,171.0,-57.0,0
3.0,-247.0,-95.0,-498.0,132.0,-46.0,0
10.0,-252.0,-96.0,-493.0,91.0,-39.0,0
9.0,-254.0,-95.0,-480.0,51.0,-43.0,0
8.0,-258.0,-96.0,-463.0,14.0,-46.0,0
10.0,-257.0,-95.0,-441.0,-24.0,-55.0,0
4.0,-262.0,-94.0,-418.0,-56.0,-70.0,0
2.0,-260.0,-95.0,-396.0,-85.0,-93.0,0
2.0,-262.0,-90.0,-369.0,-102.0,-110.0,0
1.0,-263.0,-91.0,-347.0,-112.0,-124.0,0
-2.0,-264.0,-87.0,-328.0,-117.0,-137.0,0
-1.0,-262.0,-84.0,-306.0,-123.0,-151.0,0
2.0,-264.0,-81.0,-283.0,-132.0,-165.0,0
6.0,-261.0,-83.0,-263.0,-150.0,-186.0,0
6.0,-260.0,-79.0,-249.0,-175.0,-203.0,0
8.0,-259.0,-74.0,-234.0,-205.0,-219.0,0
10.0,-260.0,-76.0,-218.0,-235.0,-224.0,0
4.0,-258.0,-74.0,-196.0,-266.0,-227.0,0
3.0,-255.0,-71.0,-176.0,-286.0,-221.0,0
5.0,-250.0,-74.0,-164.0,-301.0,-212.0,0
4.0,-242.0,-70.0,-155.0,-312.0,-195.0,0
8.0,-235.0,-73.0,-151.0,-317.0,-180.0,0
14.0,-230.0,-74.0,-150.0,-315.0,-159.0,0
18.0,-226.0,-71.0,-154.0,-305.0,-143.0,0
21.0,-223.0,-69.0,-157.0,-290.0,-124.0,0
23.0,-218.0,-71.0,-158.0,-270.0,-108.0,0
28.0,-219.0,-66.0,-152.0,-247.0,-90.0,0
30.0,-216.0,-68.0,-143.0,-229.0,-79.0,0
32.0,-212.0,-69.0,-127.0,-213.0,-68.0,0
37.0,-213.0,-66.0,-104.0,-197.0,-62.0,0
42.0,-214.0,-72.0,-79.0,-186.0,-50.0,0
42.0,-210.0,-71.0,-53.0,-174.0,-44.0,0
45.0,-212.0,-64.0,-31.0,-158.0,-34.0,0
43.0,-215.0,-67.0,-13.0,-139.0,-30.0,0
45.0,-218.0,-69.0,-1.0,-118.0,-21.0,0
45.0,-224.0,-69.0,5.0,-88.0,-18.0,0
46.0,-230.0,-75.0,8.0,-62.0,-14.0,0
47.0,-239.0,-72.0,11.0,-34.0,-15.0,0
44.0,-242.0,-71.0,16.0,-12.0,-14.0,0
44.0,-250.0,-72.0,23.0,13.0,-16.0,0
46.0,-255.0,-77.0,37.0,39.0,-19.0,0
43.0,-261.0,-74.0,54.0,65.0,-24.0,0
45.0,-262.0,-76.0,75.0,90.0,-25.0,0
39.0,-262.0,-73.0,96.0,111.0,-29.0,0
44.0,-265.0,-72.0,116.0,131.0,-27.0,0
43.0,-264.0,-72.0,138.0,144.0,-28.0,0
39.0,-260.0,-78.0,153.0,154.0,-22.0,0
35.0,-254.0,-73.0,165.0,160.0,-19.0,0
35.0,-251.0,-77.0,170.0,166.0,-8.0,0
30.0,-246.0,-79.0,172.0,166.0,-1.0,0
28.0,-241.0,-83.0,165.0,163.0,13.0,0
27.0,-237.0,-84.0,153.0,162.0,20.0,0
28.0,-236.0,-88.0,136.0,162.0,31.0,0
30.0,-236.0,-90.0,112.0,164.0,36.0,0
30.0,-236.0,-84.0,89.0,167.0,42.0,0
28.0,-238.0,-84.0,72.0,172.0,42.0,0
33.0,-241.0,-83.0,63.0,179.0,45.0,0
31.0,-237.0,-79.0,57.0,185.0,43.0,0
29.0,-238.0,-80.0,51.0,190.0,42.0,0
31.0,-239.0,-76.0,48.0,196.0,35.0,0
33.0,-242.0,-77.0,46.0,202.0,32.0,0
34.0,-240.0,-81.0,47.0,207.0,27.0,0
35.0,-241.0,-81.0,54.0,213.0,23.0,0
35.0,-242.0,-81.0,65.0,217.0,16.0,0
31.0,-244.0,-83.0,77.0,217.0,15.0,0
31.0,-242.0,-83.0,84.0,217.0,8.0,0
34.0,-249.0,-84.0,89.0,216.0,7.0,0
31.0,-247.0,-87.0,91.0,213.0,3.0,0
32.0,-251.0,-83.0,93.0,210.0,5.0,0
32.0,-252.0,-85.0,95.0,208.0,5.0,0
32.0,-252.0,-82.0,97.0,208.0,9.0,0
29.0,-253.0,-85.0,106.0,212.0,14.0,0
31.0,-253.0,-79.0,118.0,214.0,20.0,0
30.0,-249.0,-83.0,136.0,218.0,25.0,0
30.0,-251.0,-80.0,156.0,224.0,32.0,0
29.0,-249.0,-81.0,174.0,232.0,34.0,0
32.0,-250.0,-77.0,192.0,239.0,36.0,0
32.0,-248.0,-78.0,209.0,246.0,36.0,0
32.0,-245.0,-81.0,221.0,253.0,36.0,0
35.0,-247.0,-84.0,232.0,260.0,35.0,0
34.0,-244.0,-83.0,239.0,265.0,30.0,0
32.0,-239.0,-85.0,244.0,268.0,21.0,0
31.0,-242.0,-84.0,243.0,272.0,17.0,0
29.0,-238.0,-85.0,241.0,270.0,9.0,0
33.0,-242.0,-85.0,235.0,267.0,5.0,0
30.0,-239.0,-83.0,228.0,267.0,0.0,0
28.0,-237.0,-82.0,222.0,267.0,-5.0,0
30.0,-244.0,-81.0,214.0,271.0,-7.0,0
32.0,-240.0,-80.0,206.0,273.0,-10.0,0
26.0,-242.0,-75.0,196.0,276.0,-10.0,0
36.0,-247.0,-78.0,184.0,279.0,-11.0,0
31.0,-248.0,-75.0,171.0,283.0,-11.0,0
35.0,-250.0,-74.0,161.0,285.0,-12.0,0
39.0,-253.0,-75.0,150.0,286.0,-12.0,0
38.0,-256.0,-74.0,139.0,288.0,-13.0,0
39.0,-258.0,-73.0,130.0,290.0,-12.0,0
35.0,-259.0,-78.0,123.0,286.0,-14.0,0
37.0,-262.0,-78.0,120.0,284.0,-13.0,0
33.0,-260.0,-77.0,118.0,279.0,-13.0,0
34.0,-263.0,-73.0,121.0,274.0,-12.0,0
30.0,-265.0,-76.0,126.0,266.0,-10.0,0
31.0,-265.0,-70.0,135.0,262.0,-6.0,0
30.0,-267.0,-73.0,145.0,255.0,-4.0,0
31.0,-265.0,-75.0,157.0,251.0,-1.0,0
29.0,-262.0,-76.0,168.0,248.0,0.0,0
30.0,-262.0,-77.0,177.0,246.0,4.0,0
29.0,-259.0,-76.0,179.0,245.0,2.0,0
28.0,-260.0,-80.0,182.0,248.0,3.0,0
27.0,-260.0,-81.0,183.0,246.0,-3.0,0
26.0,-258.0,-78.0,180.0,245.0,-6.0,0
23.0,-256.0,-74.0,178.0,237.0,-10.0,0
26.0,-256.0,-73.0,176.0,231.0,-11.0,0
21.0,-250.0,-75.0,173.0,222.0,-17.0,0
19.0,-249.0,-71.0,171.0,214.0,-18.0,0
20.0,-248.0,-67.0,171.0,203.0,-23.0,0
16.0,-244.0,-69.0,170.0,193.0,-24.0,0
20.0,-245.0,-68.0,170.0,183.0,-30.0,0
21.0,-241.0,-67.0,170.0,175.0,-30.0,0
21.0,-243.0,-67.0,165.0,169.0,-30.0,0
19.0,-241.0,-69.0,153.0,160.0,-28.0,0
22.0,-243.0,-68.0,141.0,154.0,-31.0,0
24.0,-243.0,-67.0,126.0,149.0,-28.0,0
26.0,-241.0,-64.0,115.0,143.0,-29.0,0
26.0,-242.0,-58.0,107.0,137.0,-26.0,0
28.0,-243.0,-60.0,100.0,131.0,-26.0,0
29.0,-243.0,-55.0,97.0,126.0,-24.0,0
29.0,-244.0,-57.0,98.0,118.0,-26.0,0
28.0,-245.0,-56.0,100.0,110.0,-24.0,0
29.0,-245.0,-57.0,105.0,102.0,-29.0,0
26.0,-244.0,-57.0,110.0,97.0,-28.0,0
26.0,-244.0,-54.0,112.0,92.0,-30.0,0
28.0,-244.0,-58.0,113.0,88.0,-30.0,0
28.0,-248.0,-59.0,111.0,86.0,-34.0,0
27.0,-248.0,-57.0,107.0,86.0,-34.0,0
21.0,-245.0,-56.0,106.0,85.0,-36.0,0
25.0,-246.0,-56.0,104.0,82.0,-34.0,0
26.0,-242.0,-55.0,101.0,81.0,-32.0,0
22.0,-245.0,-57.0,101.0,77.0,-27.0,0
24.0,-241.0,-55.0,102.0,76.0,-25.0,0
22.0,-242.0,-57.0,104.0,74.0,-19.0,0
25.0,-241.0,-56.0,104.0,72.0,-15.0,0
26.0,-244.0,-59.0,102.0,74.0,-6.0,0
27.0,-241.0,-58.0,97.0,77.0,-2.0,0
30.0,-244.0,-60.0,88.0,79.0,8.0,0
29.0,-243.0,-59.0,79.0,80.0,13.0,0
33.0,-247.0,-57.0,68.0,83.0,25.0,0
37.0,-248.0,-57.0,60.0,82.0,35.0,0
37.0,-249.0,-58.0,48.0,80.0,45.0,0
34.0,-252.0,-54.0,41.0,80.0,51.0,0
34.0,-254.0,-57.0,34.0,76.0,56.0,0
36.0,-256.0,-55.0,26.0,73.0,56.0,0
32.0,-261.0,-56.0,16.0,66.0,55.0,0
32.0,-264.0,-55.0,6.0,60.0,49.0,0
29.0,-267.0,-57.0,-2.0,53.0,44.0,0
31.0,-269.0,-60.0,-7.0,48.0,35.0,0
26.0,-275.0,-59.0,-7.0,46.0,28.0,0
26.0,-277.0,-56.0,-6.0,43.0,12.0,0
19.0,-274.0,-59.0,-1.0,44.0,2.0,0
24.0,-281.0,-57.0,5.0,47.0,-4.0,0
19.0,-275.0,-61.0,16.0,47.0,-6.0,0
20.0,-275.0,-57.0,28.0,49.0,-12.0,0
18.0,-267.0,-59.0,43.0,53.0,-13.0,0
20.0,-266.0,-58.0,58.0,58.0,-14.0,0
23.0,-260.0,-59.0,68.0,64.0,-13.0,0
21.0,-258.0,-59.0,73.0,67.0,-11.0,0
25.0,-257.0,-57.0,75.0,70.0,-9.0,0
26.0,-251.0,-57.0,72.0,72.0,-10.0,0
28.0,-246.0,-56.0,66.0,69.0,-7.0,0
27.0,-247.0,-57.0,58.0,65.0,-5.0,0
28.0,-244.0,-54.0,48.0,60.0,-3.0,0
29.0,-241.0,-47.0,41.0,55.0,-1.0,0
30.0,-241.0,-49.0,34.0,49.0,1.0,0
29.0,-241.0,-47.0,31.0,44.0,3.0,0
26.0,-239.0,-45.0,30.0,39.0,1.0,0
25.0,-242.0,-43.0,30.0,33.0,3.0,0
23.0,-241.0,-48.0,35.0,28.0,4.0,0
24.0,-243.0,-47.0,37.0,24.0,6.0,0
21.0,-240.0,-42.0,40.0,21.0,8.0,0
21.0,-241.0,-48.0,38.0,20.0,12.0,0
25.0,-243.0,-47.0,38.0,19.0,13.0,0
21.0,-240.0,-43.0,34.0,17.0,16.0,0
20.0,-244.0,-49.0,29.0,17.0,15.0,0
20.0,-246.0,-47.0,22.0,16.0,17.0,0
19.0,-249.0,-51.0,17.0,13.0,15.0,0
19.0,-248.0,-48.0,12.0,12.0,13.0,0
18.0,-251.0,-47.0,9.0,9.0,9.0,0
19.0,-250.0,-51.0,8.0,6.0,8.0,0
16.0,-252.0,-49.0,9.0,5.0,4.0,0
17.0,-255.0,-50.0,10.0,5.0,5.0,0
16.0,-256.0,-45.0,11.0,0.0,2.0,0
14.0,-256.0,-46.0,11.0,-5.0,4.0,0
17.0,-257.0,-49.0,10.0,-8.0,0.0,0
16.0,-257.0,-49.0,11.0,-11.0,1.0,0
18.0,-257.0,-51.0,11.0,-16.0,-1.0,0
20.0,-258.0,-52.0,12.0,-20.0,1.0,0
21.0,-258.0,-46.0,13.0,-25.0,1.0,0
23.0,-259.0,-50.0,16.0,-30.0,4.0,0
22.0,-259.0,-51.0,18.0,-36.0,1.0,0
24.0,-259.0,-53.0,20.0,-41.0,4.0,0
23.0,-259.0,-52.0,23.0,-48.0,0.0,0
22.0,-257.0,-51.0,25.0,-53.0,3.0,0
23.0,-256.0,-55.0,27.0,-57.0,-1.0,0
23.0,-258.0,-55.0,26.0,-59.0,4.0,0
22.0,-252.0,-54.0,24.0,-64.0,4.0,0
19.0,-250.0,-53.0,22.0,-68.0,8.0,0
23.0,-247.0,-50.0,20.0,-73.0,6.0,0
25.0,-250.0,-55.0,18.0,-74.0,11.0,0
23.0,-246.0,-51.0,14.0,-73.0,8.0,0
24.0,-244.0,-50.0,10.0,-74.0,10.0,0
25.0,-244.0,-48.0,5.0,-76.0,7.0,0
24.0,-243.0,-52.0,1.0,-79.0,9.0,0
22.0,-242.0,-50.0,-3.0,-81.0,7.0,0
23.0,-242.0,-51.0,-12.0,-84.0,10.0,0
25.0,-244.0,-52.0,-17.0,-85.0,5.0,0
25.0,-243.0,-49.0,-21.0,-85.0,4.0,0
27.0,-247.0,-50.0,-22.0,-86.0,1.0,0
28.0,-245.0,-50.0,-24.0,-85.0,1.0,0
29.0,-248.0,-50.0,-26.0,-82.0,-4.0,0
27.0,-248.0,-52.0,-25.0,-76.0,-4.0,0
26.0,-247.0,-52.0,-26.0,-72.0,-8.0,0
30.0,-247.0,-54.0,-28.0,-64.0,-8.0,0
28.0,-247.0,-55.0,-34.0,-59.0,-13.0,0
29.0,-248.0,-59.0,-43.0,-51.0,-13.0,0
30.0,-251.0,-59.0,-53.0,-46.0,-17.0,0
29.0,-249.0,-56.0,-63.0,-41.0,-15.0,0
32.0,-249.0,-56.0,-70.0,-36.0,-16.0,0
32.0,-251.0,-55.0,-76.0,-32.0,-13.0,0
34.0,-257.0,-56.0,-81.0,-27.0,-13.0,0
33.0,-254.0,-55.0,-83.0,-23.0,-9.0,0
31.0,-254.0,-57.0,-82.0,-18.0,-8.0,0
30.0,-252.0,-55.0,-75.0,-14.0,-4.0,0
33.0,-251.0,-57.0,-68.0,-8.0,-4.0,0
35.0,-254.0,-53.0,-62.0,-6.0,1.0,0
34.0,-255.0,-56.0,-60.0,-1.0,1.0,0
32.0,-250.0,-56.0,-60.0,3.0,4.0,0
32.0,-252.0,-55.0,-59.0,6.0,5.0,0
36.0,-253.0,-58.0,-59.0,7.0,7.0,0
32.0,-254.0,-52.0,-57.0,10.0,8.0,0
29.0,-252.0,-57.0,-55.0,11.0,10.0,0
31.0,-251.0,-55.0,-53.0,14.0,11.0,0
26.0,-251.0,-56.0,-54.0,14.0,14.0,0
28.0,-250.0,-57.0,-55.0,16.0,15.0,0
25.0,-249.0,-56.0,-57.0,20.0,18.0,0
25.0,-251.0,-53.0,-58.0,23.0,21.0,0
26.0,-251.0,-56.0,-59.0,26.0,23.0,0
27.0,-251.0,-55.0,-60.0,33.0,28.0,0
25.0,-250.0,-53.0,-58.0,39.0,30.0,0
26.0,-253.0,-56.0,-58.0,47.0,34.0,0
24.0,-252.0,-52.0,-56.0,53.0,36.0,0
28.0,-255.0,-53.0,-53.0,60.0,41.0,0
28.0,-251.0,-56.0,-50.0,66.0,43.0,0
29.0,-253.0,-56.0,-49.0,73.0,43.0,0
30.0,-248.0,-54.0,-48.0,80.0,43.0,0
28.0,-247.0,-56.0,-46.0,87.0,45.0,0
29.0,-248.0,-55.0,-45.0,93.0,43.0,0
30.0,-246.0,-55.0,-48.0,98.0,43.0,0
33.0,-246.0,-54.0,-51.0,101.0,40.0,0
32.0,-244.0,-56.0,-56.0,106.0,41.0,0
33.0,-247.0,-56.0,-63.0,110.0,37.0,0
34.0,-244.0,-59.0,-69.0,115.0,35.0,0
33.0,-244.0,-58.0,-75.0,121.0,32.0,0
34.0,-246.0,-54.0,-80.0,124.0,29.0,0
36.0,-248.0,-59.0,-83.0,129.0,25.0,0
31.0,-246.0,-60.0,-87.0,134.0,26.0,0
36.0,-247.0,-60.0,-93.0,142.0,23.0,0
29.0,-248.0,-55.0,-97.0,151.0,25.0,0
33.0,-249.0,-55.0,-99.0,159.0,24.0,0
30.0,-248.0,-54.0,-100.0,165.0,26.0,0
31.0,-251.0,-55.0,-96.0,173.0,25.0,0
30.0,-252.0,-57.0,-88.0,180.0,28.0,0
32.0,-251.0,-55.0,-83.0,188.0,29.0,0
32.0,-254.0,-56.0,-77.0,193.0,31.0,0
32.0,-250.0,-56.0,-71.0,199.0,29.0,0
33.0,-252.0,-59.0,-70.0,202.0,30.0,0
30.0,-251.0,-58.0,-71.0,204.0,27.0,0
34.0,-254.0,-56.0,-71.0,206.0,27.0,0
35.0,-256.0,-55.0,-70.0,207.0,24.0,0
33.0,-252.0,-56.0,-70.0,208.0,22.0,0
31.0,-251.0,-58.0,-68.0,207.0,17.0,0
32.0,-250.0,-57.0,-67.0,207.0,18.0,0
31.0,-252.0,-56.0,-68.0,206.0,15.0,0
29.0,-251.0,-56.0,-68.0,206.0,17.0,0
30.0,-251.0,-54.0,-69.0,206.0,14.0,0
27.0,-249.0,-55.0,-70.0,206.0,17.0,0
29.0,-252.0,-56.0,-68.0,204.0,14.0,0
28.0,-251.0,-55.0,-66.0,201.0,17.0,0
28.0,-249.0,-53.0,-60.0,199.0,14.0,0
29.0,-250.0,-56.0,-53.0,195.0,17.0,0
26.0,-251.0,-53.0,-48.0,192.0,15.0,0
24.0,-247.0,-54.0,-43.0,190.0,16.0,0
23.0,-251.0,-57.0,-38.0,185.0,14.0,0
25.0,-249.0,-59.0,-35.0,182.0,17.0,0
22.0,-249.0,-58.0,-33.0,177.0,14.0,0
24.0,-251.0,-56.0,-32.0,175.0,17.0,0
23.0,-250.0,-54.0,-29.0,172.0,15.0,0
26.0,-250.0,-57.0,-26.0,168.0,17.0,0
25.0,-251.0,-55.0,-19.0,164.0,14.0,0
25.0,-251.0,-57.0,-14.0,162.0,16.0,0
25.0,-251.0,-57.0,-7.0,160.0,11.0,0
24.0,-250.0,-56.0,-3.0,157.0,14.0,0
26.0,-251.0,-54.0,2.0,154.0,11.0,0
28.0,-249.0,-54.0,6.0,149.0,12.0,0
26.0,-254.0,-57.0,8.0,146.0,9.0,0
27.0,-254.0,-58.0,9.0,142.0,10.0,0
27.0,-253.0,-53.0,12.0,138.0,8.0,0
30.0,-253.0,-52.0,15.0,134.0,10.0,0
26.0,-254.0,-55.0,18.0,133.0,9.0,0
28.0,-252.0,-58.0,20.0,131.0,9.0,0
32.0,-255.0,-54.0,23.0,131.0,6.0,0
30.0,-253.0,-53.0,26.0,131.0,8.0,0
28.0,-254.0,-55.0,28.0,131.0,8.0,0
29.0,-254.0,-56.0,31.0,131.0,7.0,0
29.0,-253.0,-56.0,35.0,131.0,5.0,0
29.0,-255.0,-51.0,40.0,129.0,8.0,0
31.0,-251.0,-54.0,42.0,127.0,6.0,0
31.0,-251.0,-53.0,44.0,123.0,8.0,0
29.0,-249.0,-54.0,47.0,118.0,6.0,0
28.0,-254.0,-53.0,49.0,114.0,7.0,0
29.0,-254.0,-55.0,51.0,109.0,7.0,0
29.0,-252.0,-54.0,51.0,105.0,6.0,0
26.0,-253.0,-52.0,52.0,102.0,7.0,0
29.0,-254.0,-53.0,54.0,101.0,7.0,0
29.0,-253.0,-54.0,57.0,98.0,6.0,0
27.0,-253.0,-53.0,58.0,98.0,8.0,0
30.0,-251.0,-53.0,57.0,95.0,5.0,0
26.0,-250.0,-54.0,55.0,94.0,5.0,0
29.0,-251.0,-53.0,55.0,89.0,4.0,0
26.0,-249.0,-56.0,55.0,88.0,3.0,0
25.0,-245.0,-52.0,53.0,86.0,2.0,0
26.0,-247.0,-56.0,50.0,83.0,1.0,0
26.0,-248.0,-53.0,48.0,80.0,0.0,0
28.0,-249.0,-53.0,46.0,78.0,-2.0,0
27.0,-251.0,-54.0,46.0,77.0,-2.0,0
26.0,-246.0,-51.0,48.0,78.0,-3.0,0
26.0,-248.0,-55.0,47.0,75.0,-3.0,0
29.0,-250.0,-56.0,47.0,74.0,-1.0,0
32.0,-253.0,-54.0,49.0,73.0,-2.0,0
29.0,-251.0,-55.0,48.0,73.0,-4.0,0
34.0,-254.0,-52.0,49.0,73.0,-2.0,0
29.0,-253.0,-53.0,51.0,71.0,-2.0,0
30.0,-255.0,-52.0,55.0,72.0,-2.0,0
30.0,-253.0,-55.0,59.0,73.0,-4.0,0
32.0,-251.0,-55.0,64.0,72.0,-2.0,0
31.0,-252.0,-51.0,69.0,73.0,-4.0,0
30.0,-250.0,-53.0,72.0,71.0,-2.0,0
30.0,-251.0,-55.0,74.0,71.0,-3.0,0
30.0,-252.0,-52.0,75.0,70.0,-3.0,0
31.0,-248.0,-58.0,73.0,70.0,-4.0,0
29.0,-251.0,-55.0,72.0,68.0,-2.0,0
30.0,-251.0,-55.0,72.0,66.0,-4.0,0
32.0,-252.0,-54.0,71.0,64.0,-5.0,0
30.0,-250.0,-52.0,72.0,65.0,-5.0,0
30.0,-249.0,-52.0,72.0,64.0,-5.0,0
30.0,-252.0,-54.0,73.0,64.0,-6.0,0
30.0,-248.0,-54.0,71.0,64.0,-4.0,0
25.0,-247.0,-49.0,72.0,63.0,-5.0,0
27.0,-249.0,-53.0,72.0,63.0,-2.0,0
27.0,-249.0,-55.0,70.0,63.0,-1.0,0
30.0,-247.0,-55.0,68.0,63.0,2.0,0
29.0,-249.0,-55.0,68.0,64.0,0.0,0
27.0,-247.0,-49.0,67.0,63.0,3.0,0
29.0,-251.0,-56.0,66.0,63.0,1.0,0
29.0,-252.0,-53.0,66.0,60.0,3.0,0
27.0,-250.0,-55.0,63.0,60.0,0.0,0
26.0,-250.0,-52.0,60.0,61.0,2.0,0
27.0,-249.0,-56.0,53.0,63.0,0.0,0
28.0,-251.0,-53.0,47.0,65.0,3.0,0
27.0,-249.0,-53.0,41.0,65.0,1.0,0
29.0,-250.0,-52.0,33.0,67.0,3.0,0
27.0,-250.0,-54.0,30.0,69.0,0.0,0
26.0,-249.0,-50.0,26.0,68.0,2.0,0
26.0,-252.0,-52.0,23.0,68.0,-3.0,0
25.0,-251.0,-52.0,23.0,66.0,-1.0,0
28.0,-250.0,-52.0,24.0,65.0,-7.0,0
28.0,-252.0,-53.0,23.0,64.0,-6.0,0
28.0,-251.0,-55.0,23.0,64.0,-9.0,0
28.0,-251.0,-52.0,20.0,64.0,-7.0,0
28.0,-250.0,-54.0,18.0,67.0,-11.0,0
29.0,-252.0,-53.0,16.0,69.0,-10.0,0
29.0,-251.0,-48.0,15.0,70.0,-12.0,0
29.0,-252.0,-50.0,13.0,70.0,-11.0,0
30.0,-251.0,-51.0,13.0,72.0,-13.0,0
29.0,-251.0,-50.0,12.0,74.0,-12.0,0
30.0,-250.0,-51.0,11.0,75.0,-14.0,0
31.0,-253.0,-49.0,11.0,75.0,-12.0,0
29.0,-252.0,-53.0,11.0,75.0,-16.0,0
28.0,-251.0,-50.0,10.0,76.0,-14.0,0
31.0,-253.0,-51.0,11.0,77.0,-16.0,0
32.0,-252.0,-54.0,11.0,78.0,-16.0,0
30.0,-250.0,-51.0,9.0,78.0,-18.0,0
32.0,-248.0,-51.0,8.0,81.0,-18.0,0
31.0,-252.0,-51.0,9.0,82.0,-22.0,0
32.0,-252.0,-51.0,8.0,85.0,-18.0,0
31.0,-250.0,-49.0,7.0,89.0,-22.0,0
32.0,-249.0,-51.0,6.0,90.0,-20.0,0
30.0,-251.0,-50.0,2.0,95.0,-21.0,0
31.0,-253.0,-53.0,2.0,97.0,-21.0,0
30.0,-251.0,-51.0,3.0,98.0,-21.0,0
30.0,-250.0,-50.0,2.0,99.0,-20.0,0
29.0,-252.0,-50.0,1.0,101.0,-22.0,0
29.0,-252.0,-49.0,1.0,104.0,-19.0,0
29.0,-250.0,-51.0,1.0,105.0,-21.0,0
30.0,-251.0,-51.0,2.0,106.0,-19.0,0
31.0,-250.0,-54.0,2.0,107.0,-19.0,0
32.0,-253.0,-49.0,2.0,110.0,-18.0,0
31.0,-251.0,-54.0,4.0,112.0,-19.0,0
33.0,-253.0,-49.0,6.0,116.0,-20.0,0
30.0,-250.0,-49.0,8.0,120.0,-20.0,0
32.0,-253.0,-53.0,10.0,123.0,-19.0,0
31.0,-253.0,-51.0,8.0,124.0,-21.0,0
29.0,-251.0,-52.0,6.0,124.0,-22.0,0
33.0,-252.0,-51.0,5.0,126.0,-24.0,0
29.0,-253.0,-51.0,6.0,126.0,-22.0,0
29.0,-252.0,-50.0,7.0,124.0,-22.0,0
29.0,-252.0,-49.0,8.0,124.0,-23.0,0
29.0,-252.0,-50.0,10.0,123.0,-22.0,0
29.0,-252.0,-50.0,8.0,121.0,-23.0,0
27.0,-249.0,-50.0,7.0,119.0,-24.0,0
26.0,-248.0,-48.0,4.0,118.0,-22.0,0
31.0,-249.0,-54.0,0.0,118.0,-22.0,0
25.0,-247.0,-53.0,-4.0,117.0,-20.0,0
30.0,-251.0,-52.0,-7.0,116.0,-18.0,0
27.0,-250.0,-49.0,-11.0,116.0,-18.0,0
25.0,-249.0,-52.0,-13.0,117.0,-16.0,0
28.0,-252.0,-49.0,-12.0,117.0,-17.0,0
26.0,-250.0,-47.0,-11.0,115.0,-15.0,0
25.0,-254.0,-48.0,-10.0,114.0,-14.0,0
26.0,-251.0,-50.0,-10.0,114.0,-14.0,0
24.0,-252.0,-45.0,-6.0,115.0,-14.0,0
24.0,-253.0,-46.0,-8.0,115.0,-15.0,0
27.0,-250.0,-48.0,-8.0,116.0,-17.0,0
26.0,-253.0,-51.0,-10.0,114.0,-17.0,0
28.0,-249.0,-50.0,-13.0,114.0,-20.0,0
28.0,-249.0,-52.0,-16.0,112.0,-18.0,0
27.0,-246.0,-54.0,-20.0,110.0,-17.0,0
26.0,-250.0,-49.0,-22.0,107.0,-18.0,0
29.0,-251.0,-48.0,-23.0,104.0,-19.0,0
30.0,-251.0,-50.0,-27.0,102.0,-17.0,0
27.0,-250.0,-49.0,-26.0,100.0,-19.0,0
28.0,-251.0,-49.0,-26.0,98.0,-17.0,0
29.0,-252.0,-50.0,-28.0,98.0,-19.0,0
28.0,-251.0,-49.0,-30.0,98.0,-15.0,0
27.0,-251.0,-46.0,-31.0,99.0,-16.0,0
27.0,-251.0,-46.0,-30.0,102.0,-14.0,0
27.0,-254.0,-50.0,-29.0,105.0,-15.0,0
27.0,-255.0,-45.0,-28.0,106.0,-12.0,0
28.0,-250.0,-45.0,-28.0,108.0,-12.0,0
28.0,-249.0,-50.0,-29.0,110.0,-10.0,0
29.0,-249.0,-49.0,-31.0,110.0,-10.0,0
27.0,-251.0,-48.0,-33.0,107.0,-7.0,0
29.0,-252.0,-47.0,-33.0,108.0,-8.0,0
28.0,-249.0,-47.0,-36.0,106.0,-3.0,0
31.0,-252.0,-47.0,-36.0,106.0,-5.0,0
28.0,-249.0,-48.0,-37.0,105.0,-2.0,0
28.0,-253.0,-50.0,-38.0,107.0,-5.0,0
30.0,-251.0,-50.0,-37.0,107.0,-4.0,0
28.0,-249.0,-46.0,-39.0,106.0,-6.0,0
29.0,-251.0,-50.0,-37.0,105.0,-3.0,0
26.0,-250.0,-50.0,-35.0,104.0,-7.0,0
26.0,-253.0,-50.0,-34.0,102.0,-6.0,0
29.0,-256.0,-43.0,-31.0,100.0,-9.0,0
26.0,-253.0,-52.0,-27.0,97.0,-6.0,0
26.0,-252.0,-50.0,-26.0,94.0,-9.0,0
26.0,-254.0,-47.0,-24.0,91.0,-7.0,0
25.0,-252.0,-50.0,-23.0,87.0,-10.0,0
24.0,-254.0,-49.0,-21.0,83.0,-8.0,0
27.0,-256.0,-48.0,-20.0,77.0,-12.0,0
27.0,-256.0,-46.0,-16.0,71.0,-10.0,0
22.0,-255.0,-50.0,-12.0,67.0,-14.0,0
23.0,-257.0,-45.0,-8.0,61.0,-11.0,0
25.0,-252.0,-47.0,-2.0,54.0,-13.0,0
24.0,-254.0,-46.0,1.0,47.0,-12.0,0
24.0,-252.0,-48.0,4.0,40.0,-14.0,0
23.0,-253.0,-45.0,4.0,33.0,-12.0,0
26.0,-252.0,-45.0,5.0,27.0,-14.0,0
24.0,-253.0,-47.0,4.0,21.0,-10.0,0
24.0,-248.0,-47.0,3.0,17.0,-13.0,0
24.0,-249.0,-47.0,2.0,13.0,-13.0,0
24.0,-248.0,-50.0,0.0,9.0,-13.0,0
23.0,-251.0,-44.0,-3.0,7.0,-12.0,0
20.0,-251.0,-47.0,-5.0,4.0,-15.0,0
24.0,-247.0,-50.0,-8.0,0.0,-15.0,0
27.0,-252.0,-51.0,-10.0,-3.0,-19.0,0
24.0,-249.0,-51.0,-12.0,-7.0,-17.0,0
26.0,-251.0,-48.0,-14.0,-11.0,-20.0,0
27.0,-250.0,-45.0,-15.0,-13.0,-19.0,0
26.0,-251.0,-47.0,-14.0,-17.0,-21.0,0
30.0,-250.0,-48.0,-13.0,-20.0,-21.0,0
29.0,-250.0,-49.0,-11.0,-22.0,-24.0,0
27.0,-250.0,-49.0,-12.0,-25.0,-25.0,0
28.0,-250.0,-51.0,-11.0,-27.0,-26.0,0
28.0,-249.0,-49.0,-12.0,-32.0,-27.0,0
25.0,-250.0,-53.0,-15.0,-35.0,-28.0,0
30.0,-252.0,-51.0,-15.0,-37.0,-27.0,0
26.0,-251.0,-53.0,-15.0,-40.0,-28.0,0
28.0,-250.0,-48.0,-13.0,-41.0,-29.0,0
29.0,-253.0,-50.0,-12.0,-42.0,-28.0,0
28.0,-250.0,-49.0,-11.0,-43.0,-27.0,0
30.0,-253.0,-49.0,-8.0,-43.0,-27.0,0
30.0,-253.0,-50.0,-6.0,-43.0,-24.0,0
28.0,-254.0,-49.0,-4.0,-41.0,-24.0,0
27.0,-251.0,-48.0,-1.0,-40.0,-22.0,0
28.0,-254.0,-50.0,4.0,-40.0,-20.0,0
29.0,-253.0,-47.0,7.0,-38.0,-18.0,0
31.0,-255.0,-49.0,11.0,-36.0,-16.0,0
29.0,-253.0,-47.0,14.0,-34.0,-15.0,0
30.0,-254.0,-53.0,18.0,-34.0,-13.0,0
31.0,-251.0,-48.0,20.0,-31.0,-12.0,0
29.0,-251.0,-53.0,21.0,-29.0,-9.0,0
31.0,-251.0,-50.0,22.0,-26.0,-10.0,0
31.0,-250.0,-52.0,20.0,-23.0,-8.0,0
32.0,-250.0,-51.0,15.0,-19.0,-8.0,0
34.0,-253.0,-48.0,11.0,-15.0,-8.0,0
31.0,-251.0,-50.0,10.0,-14.0,-10.0,0
32.0,-252.0,-50.0,8.0,-10.0,-8.0,0
29.0,-249.0,-48.0,8.0,-6.0,-12.0,0
30.0,-251.0,-49.0,8.0,-3.0,-11.0,0
34.0,-249.0,-49.0,11.0,-1.0,-14.0,0
32.0,-250.0,-46.0,11.0,1.0,-12.0,0
30.0,-250.0,-50.0,12.0,3.0,-15.0,0
33.0,-250.0,-48.0,11.0,5.0,-14.0,0
33.0,-250.0,-49.0,9.0,9.0,-15.0,0
33.0,-251.0,-48.0,6.0,11.0,-13.0,0
31.0,-249.0,-52.0,3.0,13.0,-15.0,0
30.0,-250.0,-52.0,1.0,17.0,-12.0,0
29.0,-250.0,-46.0,-1.0,18.0,-14.0,0
30.0,-248.0,-50.0,-4.0,20.0,-11.0,0
29.0,-250.0,-50.0,-6.0,20.0,-13.0,0
27.0,-249.0,-48.0,-8.0,21.0,-10.0,0
26.0,-249.0,-50.0,-12.0,22.0,-10.0,0
28.0,-250.0,-49.0,-16.0,23.0,-8.0,0
30.0,-250.0,-47.0,-20.0,24.0,-10.0,0
28.0,-251.0,-49.0,-21.0,26.0,-6.0,0
29.0,-252.0,-50.0,-22.0,26.0,-9.0,0
31.0,-251.0,-52.0,-19.0,27.0,-5.0,0
29.0,-248.0,-51.0,-16.0,28.0,-7.0,0
30.0,-251.0,-51.0,-16.0,28.0,-5.0,0
29.0,-251.0,-46.0,-17.0,30.0,-6.0,0
28.0,-252.0,-48.0,-16.0,34.0,-2.0,0
32.0,-254.0,-48.0,-16.0,36.0,-5.0,0
34.0,-254.0,-51.0,-18.0,38.0,-1.0,0
30.0,-255.0,-49.0,-17.0,40.0,-4.0,0
31.0,-253.0,-49.0,-17.0,43.0,-1.0,0
31.0,-254.0,-51.0,-13.0,46.0,-4.0,0
29.0,-251.0,-43.0,-10.0,46.0,-2.0,0
31.0,-253.0,-44.0,-9.0,48.0,-4.0,0
32.0,-253.0,-50.0,-8.0,49.0,-3.0,0
29.0,-251.0,-49.0,-7.0,52.0,-6.0,0
31.0,-251.0,-49.0,-6.0,52.0,-4.0,0
29.0,-249.0,-48.0,-7.0,56.0,-6.0,0
31.0,-249.0,-49.0,-8.0,57.0,-4.0,0
32.0,-254.0,-44.0,-7.0,60.0,-5.0,0
31.0,-250.0,-47.0,-8.0,60.0,-2.0,0
32.0,-252.0,-43.0,-7.0,62.0,-3.0,0
28.0,-250.0,-46.0,-7.0,63.0,-2.0,0
28.0,-251.0,-48.0,-8.0,62.0,-3.0,0
29.0,-251.0,-49.0,-11.0,63.0,0.0,0
28.0,-249.0,-50.0,-15.0,62.0,-4.0,0
29.0,-248.0,-50.0,-21.0,59.0,-2.0,0
30.0,-248.0,-52.0,-27.0,59.0,-3.0,0
31.0,-250.0,-48.0,-31.0,60.0,-1.0,0
29.0,-253.0,-52.0,-34.0,65.0,-1.0,0
30.0,-251.0,-48.0,-33.0,68.0,2.0,0
30.0,-252.0,-52.0,-34.0,72.0,1.0,0
29.0,-254.0,-48.0,-35.0,75.0,1.0,0
30.0,-251.0,-52.0,-31.0,76.0,1.0,0
30.0,-251.0,-48.0,-28.0,77.0,1.0,0
29.0,-252.0,-53.0,-27.0,77.0,-1.0,0
27.0,-252.0,-50.0,-26.0,77.0,-2.0,0
29.0,-253.0,-50.0,-26.0,76.0,-3.0,0
29.0,-253.0,-49.0,-27.0,76.0,-4.0,0
27.0,-250.0,-47.0,-28.0,76.0,-2.0,0
28.0,-250.0,-53.0,-28.0,76.0,-3.0,0
29.0,-248.0,-50.0,-28.0,77.0,-3.0,0
29.0,-252.0,-50.0,-28.0,78.0,-2.0,0
32.0,-255.0,-49.0,-28.0,80.0,-2.0,0
31.0,-253.0,-49.0,-28.0,78.0,-1.0,0
30.0,-252.0,-50.0,-26.0,79.0,-1.0,0
31.0,-250.0,-46.0,-23.0,80.0,-1.0,0
27.0,-249.0,-50.0,-21.0,78.0,0.0,0
32.0,-253.0,-49.0,-21.0,77.0,0.0,0
29.0,-251.0,-50.0,-24.0,75.0,0.0,0
29.0,-251.0,-51.0,-24.0,74.0,-1.0,0
30.0,-251.0,-47.0,-25.0,72.0,0.0,0
28.0,-252.0,-52.0,-25.0,72.0,0.0,0
31.0,-252.0,-49.0,-26.0,72.0,1.0,0
29.0,-253.0,-51.0,-25.0,73.0,1.0,0
29.0,-252.0,-51.0,-22.0,73.0,1.0,0
30.0,-249.0,-51.0,-23.0,72.0,0.0,0
26.0,-249.0,-53.0,-24.0,73.0,0.0,0
29.0,-251.0,-50.0,-26.0,72.0,-2.0,0
30.0,-251.0,-51.0,-29.0,70.0,-1.0,0
27.0,-250.0,-52.0,-30.0,69.0,-2.0,0
31.0,-252.0,-51.0,-34.0,70.0,-1.0,0
28.0,-250.0,-51.0,-34.0,69.0,-1.0,0
28.0,-249.0,-48.0,-34.0,71.0,-2.0,0
27.0,-250.0,-51.0,-32.0,71.0,-2.0,0
26.0,-254.0,-54.0,-31.0,75.0,-1.0,0
29.0,-251.0,-53.0,-31.0,75.0,-3.0,0
30.0,-249.0,-54.0,-31.0,76.0,-2.0,0
27.0,-249.0,-52.0,-30.0,74.0,-3.0,0
29.0,-251.0,-52.0,-31.0,75.0,-2.0,0
30.0,-253.0,-55.0,-30.0,73.0,-4.0,0
29.0,-250.0,-52.0,-31.0,74.0,-3.0,0
29.0,-250.0,-50.0,-31.0,74.0,-2.0,0
29.0,-249.0,-51.0,-33.0,75.0,1.0,0
27.0,-251.0,-53.0,-34.0,75.0,-1.0,0
27.0,-252.0,-48.0,-36.0,77.0,2.0,0
28.0,-250.0,-52.0,-34.0,80.0,-1.0,0
29.0,-252.0,-51.0,-35.0,80.0,3.0,0
30.0,-250.0,-49.0,-34.0,80.0,2.0,0
25.0,-251.0,-52.0,-33.0,79.0,4.0,0
31.0,-252.0,-52.0,-32.0,77.0,0.0,0
27.0,-249.0,-51.0,-31.0,77.0,3.0,0
30.0,-251.0,-51.0,-32.0,78.0,1.0,0
32.0,-253.0,-54.0,-30.0,77.0,4.0,0
30.0,-252.0,-50.0,-32.0,77.0,1.0,0
30.0,-252.0,-52.0,-33.0,77.0,5.0,0
29.0,-251.0,-49.0,-36.0,80.0,4.0,0
29.0,-251.0,-49.0,-36.0,82.0,6.0,0
28.0,-252.0,-52.0,-36.0,84.0,4.0,0
30.0,-249.0,-51.0,-39.0,86.0,7.0,0
29.0,-251.0,-53.0,-39.0,86.0,6.0,0
30.0,-251.0,-54.0,-39.0,88.0,8.0,0
32.0,-252.0,-51.0,-39.0,89.0,6.0,0
30.0,-249.0,-53.0,-40.0,88.0,8.0,0
30.0,-251.0,-50.0,-39.0,88.0,6.0,0
28.0,-249.0,-54.0,-40.0,87.0,9.0,0
29.0,-250.0,-52.0,-40.0,86.0,7.0,0
29.0,-251.0,-51.0,-38.0,84.0,8.0,0
30.0,-248.0,-52.0,-37.0,82.0,6.0,0
30.0,-250.0,-53.0,-35.0,82.0,8.0,0
28.0,-253.0,-54.0,-35.0,82.0,5.0,0
28.0,-250.0,-51.0,-32.0,80.0,6.0,0
28.0,-250.0,-54.0,-32.0,81.0,5.0,0
29.0,-249.0,-53.0,-35.0,81.0,6.0,0
29.0,-249.0,-50.0,-35.0,78.0,6.0,0
27.0,-251.0,-52.0,-38.0,80.0,7.0,0
30.0,-252.0,-49.0,-39.0,79.0,6.0,0
29.0,-254.0,-54.0,-41.0,78.0,8.0,0
31.0,-251.0,-55.0,-40.0,78.0,8.0,0
32.0,-250.0,-53.0,-41.0,79.0,9.0,0
29.0,-252.0,-53.0,-41.0,79.0,6.0,0
28.0,-249.0,-49.0,-40.0,79.0,9.0,0
29.0,-248.0,-54.0,-39.0,79.0,6.0,0
26.0,-250.0,-52.0,-39.0,78.0,9.0,0
34.0,-252.0,-49.0,-38.0,75.0,8.0,0
28.0,-249.0,-52.0,-40.0,73.0,9.0,0
28.0,-251.0,-51.0,-38.0,70.0,7.0,0
33.0,-251.0,-51.0,-37.0,70.0,7.0,0
31.0,-254.0,-53.0,-36.0,69.0,5.0,0
33.0,-254.0,-50.0,-34.0,68.0,5.0,0
32.0,-250.0,-50.0,-36.0,68.0,4.0,0
31.0,-250.0,-52.0,-36.0,67.0,5.0,0
32.0,-249.0,-50.0,-35.0,67.0,3.0,0
31.0,-250.0,-49.0,-37.0,67.0,4.0,0
32.0,-253.0,-51.0,-38.0,67.0,2.0,0
32.0,-251.0,-53.0,-36.0,65.0,3.0,0
30.0,-251.0,-55.0,-36.0,65.0,1.0,0
32.0,-252.0,-54.0,-33.0,63.0,1.0,0
30.0,-250.0,-55.0,-30.0,63.0,0.0,0
31.0,-251.0,-55.0,-32.0,61.0,0.0,0
29.0,-248.0,-54.0,-31.0,59.0,1.0,0
31.0,-253.0,-51.0,-30.0,57.0,1.0,0
31.0,-251.0,-54.0,-31.0,57.0,1.0,0
29.0,-247.0,-52.0,-33.0,57.0,0.0,0
30.0,-251.0,-54.0,-33.0,55.0,1.0,0
30.0,-250.0,-54.0,-32.0,56.0,1.0,0
34.0,-252.0,-52.0,-29.0,56.0,3.0,0
31.0,-250.0,-53.0,-28.0,56.0,3.0,0
33.0,-252.0,-53.0,-27.0,53.0,2.0,0
31.0,-250.0,-50.0,-26.0,53.0,0.0,0
29.0,-250.0,-52.0,-24.0,53.0,1.0,0
29.0,-251.0,-49.0,-23.0,51.0,-1.0,0
31.0,-253.0,-55.0,-22.0,53.0,0.0,0
32.0,-251.0,-53.0,-20.0,52.0,-2.0,0
28.0,-251.0,-55.0,-20.0,53.0,-2.0,0
29.0,-249.0,-52.0,-20.0,53.0,-4.0,0
31.0,-250.0,-50.0,-22.0,54.0,-1.0,0
31.0,-250.0,-54.0,-21.0,55.0,-3.0,0
31.0,-254.0,-52.0,-22.0,56.0,-1.0,0
31.0,-251.0,-53.0,-24.0,57.0,-4.0,0
29.0,-251.0,-53.0,-24.0,56.0,-3.0,0
27.0,-249.0,-52.0,-23.0,55.0,-5.0,0
32.0,-251.0,-51.0,-23.0,54.0,-3.0,0
32.0,-249.0,-53.0,-23.0,53.0,-5.0,0
31.0,-250.0,-52.0,-22.0,53.0,-2.0,0
28.0,-248.0,-53.0,-20.0,52.0,-4.0,0
30.0,-251.0,-53.0,-18.0,52.0,-2.0,0
31.0,-251.0,-52.0,-18.0,52.0,-4.0,0
32.0,-251.0,-53.0,-18.0,52.0,-2.0,0
28.0,-248.0,-54.0,-15.0,53.0,-3.0,0
27.0,-251.0,-50.0,-16.0,52.0,-1.0,0
30.0,-250.0,-53.0,-16.0,52.0,-4.0,0
30.0,-252.0,-51.0,-17.0,50.0,-1.0,0
30.0,-250.0,-53.0,-16.0,49.0,-1.0,0
30.0,-255.0,-50.0,-18.0,51.0,0.0,0
32.0,-252.0,-54.0,-18.0,48.0,-3.0,0
29.0,-249.0,-56.0,-20.0,49.0,0.0,0
32.0,-252.0,-50.0,-20.0,50.0,-3.0,0
32.0,-251.0,-53.0,-21.0,49.0,-2.0,0
31.0,-250.0,-50.0,-20.0,48.0,-6.0,0
31.0,-253.0,-49.0,-18.0,47.0,-4.0,0
32.0,-254.0,-50.0,-17.0,47.0,-6.0,0
30.0,-250.0,-53.0,-15.0,47.0,-4.0,0
34.0,-251.0,-53.0,-14.0,50.0,-5.0,0
33.0,-252.0,-53.0,-11.0,49.0,-3.0,0
32.0,-252.0,-53.0,-9.0,50.0,-6.0,0
30.0,-250.0,-52.0,-8.0,50.0,-3.0,0
33.0,-251.0,-51.0,-8.0,52.0,-5.0,0
32.0,-251.0,-52.0,-7.0,53.0,-3.0,0
31.0,-249.0,-54.0,-7.0,55.0,-7.0,0
34.0,-252.0,-53.0,-6.0,58.0,-5.0,0
30.0,-249.0,-53.0,-6.0,59.0,-9.0,0
34.0,-252.0,-54.0,-6.0,60.0,-5.0,0
29.0,-252.0,-50.0,-6.0,61.0,-8.0,0
32.0,-255.0,-54.0,-4.0,61.0,-6.0,0
33.0,-251.0,-51.0,-2.0,62.0,-8.0,0
31.0,-252.0,-49.0,-2.0,59.0,-5.0,0
30.0,-252.0,-48.0,1.0,58.0,-5.0,0
31.0,-251.0,-49.0,1.0,56.0,-3.0,0
31.0,-250.0,-50.0,2.0,55.0,-6.0,0
33.0,-254.0,-53.0,3.0,53.0,-5.0,0
32.0,-250.0,-51.0,2.0,52.0,-6.0,0
30.0,-250.0,-53.0,1.0,52.0,-4.0,0
28.0,-247.0,-50.0,0.0,53.0,-5.0,0
28.0,-252.0,-53.0,-5.0,53.0,-3.0,0
29.0,-249.0,-51.0,-8.0,54.0,-4.0,0
28.0,-249.0,-53.0,-10.0,54.0,-2.0,0
30.0,-249.0,-52.0,-15.0,56.0,-4.0,0
30.0,-252.0,-53.0,-15.0,56.0,-3.0,0
31.0,-251.0,-54.0,-13.0,58.0,-4.0,0
30.0,-253.0,-51.0,-12.0,59.0,-4.0,0
33.0,-250.0,-54.0,-10.0,59.0,-5.0,0
29.0,-251.0,-54.0,-10.0,59.0,-2.0,0
32.0,-252.0,-53.0,-8.0,59.0,-4.0,0
31.0,-253.0,-54.0,-8.0,57.0,-4.0,0
30.0,-251.0,-54.0,-6.0,56.0,-4.0,0
29.0,-251.0,-54.0,-6.0,57.0,-4.0,0
31.0,-250.0,-53.0,-6.0,55.0,-4.0,0
30.0,-250.0,-52.0,-6.0,55.0,-5.0,0
32.0,-252.0,-51.0,-9.0,54.0,-4.0,0
30.0,-249.0,-49.0,-9.0,54.0,-3.0,0
32.0,-251.0,-53.0,-12.0,53.0,-4.0,0
30.0,-249.0,-53.0,-12.0,54.0,-3.0,0
30.0,-253.0,-55.0,-12.0,56.0,-4.0,0
29.0,-250.0,-51.0,-10.0,58.0,-4.0,0
32.0,-252.0,-56.0,-7.0,58.0,-4.0,0
32.0,-251.0,-52.0,-6.0,58.0,-4.0,0
30.0,-251.0,-50.0,-4.0,57.0,-4.0,0
29.0,-249.0,-51.0,-2.0,57.0,-4.0,0
30.0,-253.0,-54.0,0.0,57.0,-4.0,0
30.0,-250.0,-55.0,1.0,55.0,-4.0,0
27.0,-250.0,-49.0,2.0,55.0,-4.0,0
29.0,-251.0,-55.0,1.0,55.0,-4.0,0
28.0,-251.0,-55.0,-1.0,56.0,-3.0,0
29.0,-253.0,-52.0,-2.0,55.0,-5.0,0
28.0,-249.0,-53.0,-4.0,55.0,-4.0,0
30.0,-254.0,-54.0,-5.0,55.0,-5.0,0
30.0,-252.0,-55.0,-7.0,56.0,-5.0,0
28.0,-251.0,-55.0,-8.0,57.0,-7.0,0
32.0,-252.0,-53.0,-8.0,57.0,-5.0,0
29.0,-250.0,-52.0,-7.0,57.0,-6.0,0
32.0,-250.0,-54.0,-11.0,59.0,-4.0,0
33.0,-250.0,-53.0,-11.0,58.0,-6.0,0
32.0,-251.0,-55.0,-13.0,61.0,-4.0,0
28.0,-247.0,-53.0,-13.0,61.0,-4.0,0
31.0,-249.0,-54.0,-15.0,62.0,-3.0,0
31.0,-247.0,-54.0,-17.0,63.0,-4.0,0
32.0,-250.0,-55.0,-18.0,64.0,-1.0,0
31.0,-249.0,-51.0,-20.0,65.0,-2.0,0
32.0,-251.0,-54.0,-20.0,65.0,0.0,0
29.0,-253.0,-52.0,-18.0,66.0,-3.0,0
31.0,-250.0,-54.0,-17.0,67.0,-2.0,0
30.0,-250.0,-51.0,-17.0,68.0,-4.0,0
34.0,-252.0,-52.0,-17.0,69.0,-3.0,0
31.0,-250.0,-56.0,-18.0,69.0,-4.0,0
29.0,-250.0,-54.0,-19.0,70.0,-3.0,0
31.0,-255.0,-52.0,-18.0,69.0,-6.0,0
30.0,-251.0,-55.0,-19.0,72.0,-2.0,0
31.0,-253.0,-54.0,-17.0,70.0,-6.0,0
29.0,-253.0,-54.0,-16.0,71.0,-2.0,0
30.0,-252.0,-56.0,-15.0,71.0,-5.0,0
29.0,-252.0,-54.0,-12.0,71.0,-2.0,0
30.0,-253.0,-54.0,-12.0,73.0,-4.0,0
31.0,-253.0,-55.0,-12.0,72.0,0.0,0
30.0,-252.0,-54.0,-11.0,71.0,-3.0,0
30.0,-249.0,-54.0,-9.0,72.0,2.0,0
28.0,-248.0,-51.0,-10.0,72.0,-3.0,0
31.0,-251.0,-52.0,-11.0,70.0,-1.0,0
29.0,-253.0,-52.0,-13.0,69.0,-3.0,0
29.0,-249.0,-52.0,-13.0,69.0,-1.0,0
33.0,-251.0,-52.0,-14.0,69.0,-3.0,0
30.0,-251.0,-54.0,-15.0,68.0,1.0,0
27.0,-247.0,-51.0,-15.0,67.0,-2.0,0
27.0,-249.0,-51.0,-15.0,67.0,-1.0,0
30.0,-251.0,-55.0,-14.0,66.0,-4.0,0
30.0,-251.0,-51.0,-15.0,67.0,-3.0,0
29.0,-251.0,-53.0,-17.0,66.0,-5.0,0
31.0,-254.0,-54.0,-17.0,67.0,-4.0,0
32.0,-252.0,-55.0,-18.0,67.0,-6.0,0
18.0,-252.0,-64.0,-19.0,69.0,-3.0,0
30.0,-250.0,-53.0,-18.0,70.0,-5.0,0
27.0,-260.0,-47.0,-16.0,69.0,-3.0,0
31.0,-253.0,-48.0,-16.0,67.0,-4.0,0
28.0,-251.0,-52.0,-16.0,67.0,-3.0,0
31.0,-252.0,-52.0,-15.0,65.0,-3.0,0
29.0,-252.0,-52.0,-14.0,64.0,0.0,0
30.0,-253.0,-52.0,-11.0,64.0,0.0,0
29.0,-249.0,-56.0,-9.0,64.0,2.0,0
29.0,-249.0,-56.0,-7.0,66.0,0.0,0
30.0,-247.0,-58.0,-5.0,68.0,3.0,0
30.0,-250.0,-56.0,-7.0,70.0,3.0,0
30.0,-247.0,-55.0,-10.0,67.0,4.0,0
31.0,-250.0,-55.0,-11.0,68.0,4.0,0
29.0,-251.0,-53.0,-13.0,66.0,6.0,0
30.0,-251.0,-51.0,-15.0,66.0,2.0,0
30.0,-250.0,-51.0,-14.0,65.0,3.0,0
30.0,-250.0,-52.0,-12.0,65.0,1.0,0
28.0,-249.0,-53.0,-10.0,64.0,0.0,0
28.0,-249.0,-53.0,-9.0,64.0,-2.0,0
31.0,-252.0,-50.0,-7.0,66.0,-3.0,0
30.0,-249.0,-58.0,-7.0,67.0,-4.0,0
29.0,-249.0,-53.0,-5.0,69.0,-4.0,0
29.0,-250.0,-53.0,-5.0,71.0,-4.0,0
29.0,-251.0,-49.0,-4.0,71.0,-4.0,0
30.0,-252.0,-52.0,-2.0,69.0,-3.0,0
29.0,-252.0,-52.0,-1.0,69.0,-2.0,0
31.0,-255.0,-53.0,-4.0,70.0,-2.0,0
28.0,-251.0,-54.0,-5.0,70.0,-1.0,0
30.0,-255.0,-50.0,-6.0,70.0,1.0,0
29.0,-254.0,-52.0,-10.0,70.0,2.0,0
29.0,-249.0,-54.0,-11.0,69.0,4.0,0
30.0,-253.0,-55.0,-14.0,69.0,3.0,0
31.0,-250.0,-55.0,-15.0,69.0,4.0,0
31.0,-252.0,-53.0,-17.0,72.0,4.0,0
29.0,-252.0,-54.0,-16.0,68.0,3.0,0
27.0,-251.0,-57.0,-16.0,67.0,2.0,0
28.0,-250.0,-53.0,-16.0,66.0,1.0,0
29.0,-251.0,-55.0,-16.0,65.0,-2.0,0
28.0,-248.0,-53.0,-15.0,65.0,-2.0,0
28.0,-250.0,-56.0,-13.0,63.0,-3.0,0
26.0,-249.0,-54.0,-11.0,63.0,-4.0,0
30.0,-249.0,-53.0,-10.0,62.0,-5.0,0
32.0,-251.0,-53.0,-10.0,61.0,-4.0,0
29.0,-250.0,-55.0,-10.0,62.0,-4.0,0
30.0,-250.0,-52.0,-11.0,61.0,-3.0,0
27.0,-251.0,-56.0,-11.0,61.0,-3.0,0
29.0,-250.0,-53.0,-11.0,62.0,-1.0,0
26.0,-252.0,-53.0,-14.0,61.0,-2.0,0
27.0,-250.0,-53.0,-13.0,61.0,0.0,0
27.0,-248.0,-52.0,-14.0,59.0,-1.0,0
31.0,-253.0,-49.0,-12.0,60.0,3.0,0
28.0,-250.0,-53.0,-12.0,59.0,0.0,0
30.0,-252.0,-54.0,-11.0,56.0,3.0,0
30.0,-252.0,-55.0,-8.0,57.0,1.0,0
30.0,-252.0,-51.0,-8.0,55.0,2.0,0
28.0,-250.0,-56.0,-7.0,54.0,0.0,0
30.0,-253.0,-54.0,-8.0,52.0,1.0,0
29.0,-252.0,-52.0,-7.0,51.0,-2.0,0
30.0,-251.0,-54.0,-7.0,50.0,0.0,0
30.0,-253.0,-57.0,-6.0,51.0,-3.0,0
28.0,-250.0,-55.0,-5.0,52.0,-1.0,0
28.0,-251.0,-53.0,-4.0,52.0,-4.0,0
32.0,-251.0,-50.0,-2.0,53.0,-1.0,0
29.0,-251.0,-51.0,-1.0,54.0,-4.0,0
30.0,-250.0,-51.0,-1.0,56.0,-3.0,0
30.0,-250.0,-53.0,0.0,54.0,-4.0,0
30.0,-250.0,-51.0,-1.0,56.0,-2.0,0
31.0,-249.0,-52.0,-3.0,55.0,-3.0,0
30.0,-251.0,-52.0,-3.0,55.0,0.0,0
31.0,-250.0,-52.0,-4.0,56.0,-3.0,0
31.0,-250.0,-54.0,-4.0,57.0,-1.0,0
31.0,-251.0,-54.0,-6.0,58.0,-2.0,0
32.0,-246.0,-55.0,-8.0,58.0,1.0,0
33.0,-251.0,-52.0,-7.0,58.0,-1.0,0
32.0,-253.0,-54.0,-6.0,58.0,0.0,0
29.0,-252.0,-52.0,-6.0,57.0,-3.0,0
31.0,-253.0,-52.0,-8.0,56.0,0.0,0
31.0,-248.0,-54.0,-10.0,56.0,-2.0,0
31.0,-249.0,-51.0,-8.0,53.0,1.0,0
27.0,-251.0,-52.0,-7.0,54.0,-1.0,0
31.0,-250.0,-49.0,-6.0,55.0,0.0,0
31.0,-250.0,-54.0,-4.0,57.0,-2.0,0
29.0,-253.0,-49.0,-3.0,58.0,0.0,0
30.0,-253.0,-54.0,-2.0,59.0,-2.0,0
31.0,-251.0,-55.0,-3.0,60.0,0.0,0
33.0,-251.0,-54.0,-4.0,60.0,-2.0,0
30.0,-250.0,-52.0,-6.0,59.0,-3.0,0
31.0,-250.0,-53.0,-6.0,59.0,-4.0,0
31.0,-253.0,-55.0,-7.0,60.0,-4.0,0
33.0,-253.0,-54.0,-7.0,59.0,-5.0,0
30.0,-251.0,-56.0,-6.0,61.0,-4.0,0
32.0,-254.0,-54.0,-7.0,64.0,-6.0,0
30.0,-255.0,-55.0,-8.0,65.0,-4.0,0
31.0,-252.0,-52.0,-7.0,67.0,-5.0,0
28.0,-249.0,-51.0,-9.0,68.0,-3.0,0
30.0,-250.0,-53.0,-8.0,68.0,-3.0,0
30.0,-249.0,-54.0,-9.0,69.0,-2.0,0
29.0,-253.0,-51.0,-10.0,70.0,-1.0,0
30.0,-252.0,-54.0,-9.0,68.0,0.0,0
31.0,-250.0,-51.0,-9.0,68.0,0.0,0
30.0,-251.0,-51.0,-8.0,67.0,0.0,0
29.0,-250.0,-54.0,-6.0,67.0,0.0,0
29.0,-250.0,-52.0,-6.0,67.0,1.0,0
28.0,-249.0,-53.0,-6.0,67.0,1.0,0
28.0,-250.0,-52.0,-6.0,67.0,1.0,0
31.0,-251.0,-52.0,-5.0,66.0,0.0,0
29.0,-250.0,-55.0,-5.0,67.0,0.0,0
28.0,-248.0,-55.0,-6.0,68.0,0.0,0
29.0,-250.0,-54.0,-8.0,67.0,1.0,0
33.0,-253.0,-53.0,-7.0,67.0,0.0,0
29.0,-251.0,-52.0,-8.0,68.0,0.0,0
32.0,-254.0,-49.0,-9.0,68.0,1.0,0
31.0,-249.0,-51.0,-8.0,70.0,1.0,0
31.0,-252.0,-53.0,-9.0,71.0,1.0,0
35.0,-252.0,-55.0,-8.0,72.0,0.0,0
32.0,-251.0,-52.0,-6.0,73.0,0.0,0
32.0,-249.0,-52.0,-3.0,74.0,1.0,0
31.0,-247.0,-51.0,-3.0,73.0,3.0,0
30.0,-248.0,-54.0,-3.0,71.0,1.0,0
32.0,-250.0,-53.0,-2.0,69.0,1.0,0
28.0,-251.0,-57.0,-1.0,69.0,-2.0,0
31.0,-253.0,-54.0,-1.0,67.0,-1.0,0
30.0,-251.0,-52.0,0.0,65.0,-4.0,0
31.0,-251.0,-52.0,-1.0,64.0,-3.0,0
29.0,-249.0,-52.0,-4.0,63.0,-4.0,0
31.0,-250.0,-52.0,-4.0,63.0,-3.0,0
32.0,-249.0,-50.0,-6.0,65.0,-5.0,0
30.0,-251.0,-53.0,-6.0,65.0,-3.0,0
28.0,-249.0,-54.0,-6.0,65.0,-4.0,0
26.0,-252.0,-52.0,-7.0,64.0,-3.0,0
30.0,-251.0,-50.0,-6.0,63.0,-4.0,0
30.0,-252.0,-49.0,-4.0,61.0,-3.0,0
32.0,-254.0,-49.0,-6.0,60.0,-6.0,0
29.0,-251.0,-49.0,-8.0,59.0,-3.0,0
29.0,-251.0,-52.0,-8.0,58.0,-5.0,0
29.0,-250.0,-52.0,-8.0,58.0,-1.0,0
31.0,-254.0,-49.0,-9.0,56.0,-3.0,0
30.0,-253.0,-53.0,-10.0,55.0,-2.0,0
30.0,-248.0,-53.0,-10.0,54.0,-3.0,0
28.0,-252.0,-55.0,-12.0,54.0,-2.0,0
28.0,-249.0,-55.0,-14.0,52.0,-5.0,0
31.0,-250.0,-50.0,-15.0,50.0,-2.0,0
30.0,-251.0,-49.0,-14.0,49.0,-5.0,0
29.0,-251.0,-51.0,-12.0,48.0,-3.0,0
29.0,-252.0,-53.0,-12.0,46.0,-5.0,0
30.0,-251.0,-52.0,-10.0,45.0,-3.0,0
30.0,-253.0,-51.0,-10.0,45.0,-5.0,0
29.0,-251.0,-50.0,-8.0,43.0,-1.0,0
26.0,-248.0,-53.0,-10.0,44.0,-5.0,0
30.0,-252.0,-50.0,-7.0,44.0,-1.0,0
29.0,-249.0,-51.0,-6.0,44.0,-5.0,0
29.0,-251.0,-47.0,-5.0,43.0,-3.0,0
29.0,-251.0,-46.0,-4.0,44.0,-6.0,0
32.0,-251.0,-50.0,-5.0,44.0,-3.0,0
28.0,-249.0,-50.0,-5.0,45.0,-4.0,0
29.0,-251.0,-50.0,-7.0,46.0,-2.0,0
33.0,-251.0,-51.0,-7.0,45.0,-5.0,0
30.0,-250.0,-51.0,-8.0,44.0,-3.0,0
31.0,-251.0,-50.0,-8.0,44.0,-4.0,0
31.0,-252.0,-52.0,-7.0,46.0,-2.0,0
32.0,-249.0,-49.0,-6.0,45.0,-4.0,0
27.0,-250.0,-48.0,-5.0,45.0,-2.0,0
32.0,-251.0,-50.0,-7.0,45.0,-3.0,0
30.0,-254.0,-52.0,-6.0,45.0,-1.0,0
33.0,-252.0,-50.0,-9.0,45.0,-2.0,0
31.0,-254.0,-52.0,-10.0,47.0,0.0,0
29.0,-249.0,-51.0,-11.0,47.0,-3.0,0
29.0,-252.0,-53.0,-9.0,50.0,0.0,0
32.0,-253.0,-53.0,-9.0,52.0,-2.0,0
33.0,-252.0,-53.0,-7.0,56.0,-1.0,0
31.0,-250.0,-55.0,-10.0,57.0,-4.0,0
31.0,-252.0,-54.0,-9.0,58.0,-2.0,0
31.0,-249.0,-52.0,-10.0,58.0,-4.0,0
31.0,-250.0,-52.0,-11.0,60.0,-2.0,0
32.0,-251.0,-52.0,-11.0,61.0,-5.0,0
31.0,-253.0,-49.0,-11.0,62.0,-2.0,0
28.0,-251.0,-51.0,-10.0,61.0,-4.0,0
29.0,-251.0,-54.0,-10.0,60.0,-3.0,0
29.0,-247.0,-52.0,-10.0,60.0,-3.0,0
31.0,-250.0,-55.0,-13.0,61.0,-2.0,0
30.0,-251.0,-52.0,-14.0,61.0,-1.0,0
29.0,-249.0,-50.0,-15.0,60.0,-2.0,0
30.0,-252.0,-49.0,-17.0,60.0,-3.0,0
30.0,-252.0,-50.0,-17.0,60.0,1.0,0
31.0,-252.0,-48.0,-16.0,60.0,-1.0,0
27.0,-252.0,-50.0,-16.0,60.0,0.0,0
28.0,-252.0,-47.0,-17.0,59.0,0.0,0
27.0,-250.0,-55.0,-15.0,58.0,1.0,0
25.0,-252.0,-53.0,-15.0,57.0,2.0,0
31.0,-255.0,-51.0,-15.0,57.0,3.0,0
28.0,-251.0,-55.0,-17.0,58.0,2.0,0
31.0,-251.0,-49.0,-17.0,59.0,3.0,0
30.0,-253.0,-52.0,-17.0,60.0,2.0,0
31.0,-250.0,-49.0,-16.0,59.0,1.0,0
31.0,-250.0,-49.0,-15.0,61.0,2.0,0
32.0,-251.0,-50.0,-14.0,61.0,2.0,0
29.0,-253.0,-52.0,-13.0,63.0,1.0,0
31.0,-251.0,-51.0,-11.0,62.0,0.0,0
29.0,-250.0,-53.0,-11.0,62.0,0.0,0
32.0,-251.0,-49.0,-13.0,64.0,0.0,0
33.0,-250.0,-55.0,-14.0,64.0,-1.0,0
30.0,-249.0,-51.0,-13.0,63.0,0.0,0
32.0,-250.0,-52.0,-14.0,63.0,0.0,0
31.0,-252.0,-50.0,-14.0,61.0,-1.0,0
28.0,-249.0,-53.0,-14.0,60.0,0.0,0
29.0,-252.0,-51.0,-13.0,58.0,-1.0,0
31.0,-248.0,-55.0,-14.0,55.0,-1.0,0
29.0,-249.0,-53.0,-15.0,55.0,-1.0,0
29.0,-250.0,-50.0,-18.0,57.0,0.0,0
28.0,-249.0,-56.0,-18.0,56.0,-2.0,0
30.0,-248.0,-51.0,-19.0,56.0,0.0,0
29.0,-252.0,-51.0,-21.0,56.0,-1.0,0
28.0,-251.0,-52.0,-21.0,55.0,-1.0,0
28.0,-252.0,-52.0,-22.0,54.0,-2.0,0
27.0,-249.0,-52.0,-22.0,52.0,0.0,0
28.0,-251.0,-50.0,-23.0,51.0,-1.0,0
31.0,-251.0,-51.0,-22.0,51.0,1.0,0
28.0,-254.0,-48.0,-23.0,50.0,-1.0,0
30.0,-250.0,-54.0,-22.0,51.0,1.0,0
31.0,-252.0,-52.0,-20.0,50.0,-2.0,0
28.0,-250.0,-54.0,-20.0,51.0,1.0,0
28.0,-249.0,-52.0,-20.0,50.0,-2.0,0
29.0,-249.0,-54.0,-23.0,51.0,0.0,0
30.0,-250.0,-54.0,-26.0,52.0,-3.0,0
31.0,-252.0,-50.0,-28.0,53.0,0.0,0
29.0,-247.0,-53.0,-29.0,54.0,-2.0,0
27.0,-251.0,-55.0,-31.0,54.0,-1.0,0
28.0,-249.0,-52.0,-30.0,55.0,-4.0,0
31.0,-250.0,-53.0,-30.0,56.0,-2.0,0
31.0,-252.0,-50.0,-31.0,55.0,-4.0,0
29.0,-249.0,-47.0,-31.0,55.0,-2.0,0
30.0,-251.0,-51.0,-29.0,56.0,-5.0,0
29.0,-250.0,-51.0,-29.0,56.0,-2.0,0
30.0,-251.0,-51.0,-25.0,56.0,-5.0,0
30.0,-255.0,-54.0,-24.0,56.0,-3.0,0
32.0,-251.0,-53.0,-24.0,56.0,-6.0,0
29.0,-252.0,-53.0,-23.0,55.0,-4.0,0
25.0,-253.0,-54.0,-21.0,55.0,-3.0,0
27.0,-252.0,-53.0,-21.0,55.0,0.0,0
26.0,-250.0,-53.0,-21.0,54.0,-2.0,0
31.0,-253.0,-54.0,-23.0,54.0,2.0,0
30.0,-248.0,-52.0,-23.0,51.0,2.0,0
27.0,-251.0,-50.0,-26.0,52.0,5.0,0
28.0,-252.0,-47.0,-28.0,51.0,2.0,0
31.0,-251.0,-51.0,-30.0,49.0,6.0,0
28.0,-252.0,-54.0,-32.0,47.0,5.0,0
28.0,-251.0,-50.0,-32.0,48.0,7.0,0
31.0,-252.0,-52.0,-30.0,48.0,4.0,0
30.0,-252.0,-52.0,-28.0,49.0,5.0,0
28.0,-252.0,-51.0,-26.0,48.0,3.0,0
28.0,-251.0,-49.0,-24.0,47.0,6.0,0
28.0,-250.0,-55.0,-24.0,44.0,4.0,0
30.0,-253.0,-53.0,-24.0,42.0,5.0,0
26.0,-249.0,-56.0,-25.0,43.0,1.0,0
29.0,-248.0,-52.0,-27.0,42.0,2.0,0
28.0,-251.0,-53.0,-26.0,42.0,-1.0,0
