ax,ay,az,gx,gy,gz,label
3.0,-246.0,-69.0,-28.0,77.0,-4.0,0
1.0,-247.0,-69.0,-31.0,77.0,-4.0,0
0.0,-248.0,-70.0,-33.0,77.0,-3.0,0
2.0,-250.0,-66.0,-32.0,74.0,-4.0,0
0.0,-248.0,-69.0,-30.0,74.0,-3.0,0
1.0,-251.0,-66.0,-27.0,73.0,-3.0,0
1.0,-249.0,-67.0,-22.0,72.0,-4.0,0
0.0,-248.0,-67.0,-17.0,72.0,-4.0,0
2.0,-251.0,-70.0,-12.0,70.0,-3.0,0
1.0,-251.0,-66.0,-9.0,69.0,-4.0,0
2.0,-249.0,-67.0,-7.0,68.0,-4.0,0
0.0,-247.0,-66.0,-6.0,67.0,-4.0,0
3.0,-249.0,-68.0,-6.0,67.0,-5.0,0
2.0,-248.0,-71.0,-8.0,66.0,-5.0,0
1.0,-249.0,-68.0,-9.0,68.0,-5.0,0
-1.0,-249.0,-69.0,-13.0,68.0,-5.0,0
4.0,-249.0,-71.0,-18.0,68.0,-6.0,0
2.0,-249.0,-70.0,-23.0,69.0,-6.0,0
1.0,-247.0,-72.0,-29.0,68.0,-8.0,0
0.0,-247.0,-73.0,-32.0,67.0,-6.0,0
0.0,-248.0,-69.0,-36.0,68.0,-7.0,0
-2.0,-249.0,-70.0,-36.0,67.0,-6.0,0
-2.0,-250.0,-68.0,-35.0,67.0,-5.0,0
1.0,-248.0,-68.0,-33.0,65.0,-6.0,0
0.0,-252.0,-69.0,-31.0,64.0,-6.0,0
1.0,-251.0,-66.0,-25.0,63.0,-6.0,0
2.0,-251.0,-70.0,-19.0,62.0,-7.0,0
2.0,-251.0,-73.0,-14.0,59.0,-8.0,0
1.0,-250.0,-73.0,-8.0,58.0,-8.0,0
3.0,-249.0,-69.0,-5.0,59.0,-7.0,0
3.0,-250.0,-70.0,-1.0,59.0,-8.0,0
1.0,-249.0,-70.0,-1.0,59.0,-8.0,0
-1.0,-249.0,-68.0,0.0,57.0,-9.0,0
-1.0,-246.0,-72.0,0.0,57.0,-8.0,0
2.0,-250.0,-68.0,-2.0,59.0,-9.0,0
4.0,-250.0,-71.0,-3.0,61.0,-9.0,0
0.0,-248.0,-72.0,-7.0,62.0,-10.0,0
1.0,-246.0,-68.0,-13.0,63.0,-10.0,0
0.0,-246.0,-72.0,-18.0,64.0,-11.0,0
2.0,-247.0,-68.0,-24.0,64.0,-10.0,0
1.0,-249.0,-69.0,-30.0,65.0,-11.0,0
3.0,-247.0,-70.0,-35.0,64.0,-9.0,0
0.0,-245.0,-69.0,-40.0,64.0,-9.0,0
2.0,-246.0,-69.0,-43.0,65.0,-8.0,0
3.0,-247.0,-67.0,-46.0,66.0,-8.0,0
2.0,-249.0,-69.0,-49.0,67.0,-8.0,0
1.0,-248.0,-70.0,-53.0,67.0,-8.0,0
1.0,-248.0,-66.0,-54.0,69.0,-6.0,0
2.0,-248.0,-71.0,-54.0,67.0,-7.0,0
1.0,-250.0,-66.0,-53.0,66.0,-7.0,0
2.0,-250.0,-69.0,-51.0,66.0,-7.0,0
2.0,-249.0,-68.0,-48.0,66.0,-7.0,0
2.0,-250.0,-70.0,-46.0,66.0,-7.0,0
2.0,-251.0,-71.0,-41.0,67.0,-7.0,0
1.0,-248.0,-71.0,-38.0,67.0,-7.0,0
0.0,-249.0,-72.0,-34.0,68.0,-8.0,0
3.0,-248.0,-69.0,-30.0,69.0,-8.0,0
1.0,-250.0,-69.0,-27.0,69.0,-8.0,0
2.0,-249.0,-71.0,-24.0,68.0,-9.0,0
0.0,-247.0,-68.0,-19.0,68.0,-9.0,0
2.0,-251.0,-71.0,-15.0,66.0,-10.0,0
0.0,-247.0,-69.0,-12.0,64.0,-8.0,0
-2.0,-246.0,-72.0,-10.0,64.0,-8.0,0
0.0,-246.0,-72.0,-8.0,63.0,-7.0,0
2.0,-250.0,-72.0,-8.0,62.0,-9.0,0
2.0,-247.0,-67.0,-11.0,62.0,-6.0,0
0.0,-248.0,-72.0,-11.0,62.0,-7.0,0
0.0,-249.0,-72.0,-13.0,62.0,-5.0,0
1.0,-247.0,-68.0,-14.0,63.0,-6.0,0
2.0,-246.0,-71.0,-14.0,62.0,-6.0,0
0.0,-248.0,-68.0,-18.0,61.0,-6.0,0
-1.0,-247.0,-69.0,-19.0,60.0,-5.0,0
2.0,-250.0,-65.0,-19.0,60.0,-4.0,0
2.0,-248.0,-66.0,-20.0,58.0,-4.0,0
1.0,-251.0,-72.0,-19.0,56.0,-4.0,0
1.0,-249.0,-70.0,-16.0,55.0,-4.0,0
3.0,-249.0,-66.0,-12.0,52.0,-4.0,0
2.0,-248.0,-69.0,-11.0,49.0,-3.0,0
-1.0,-250.0,-69.0,-9.0,49.0,-3.0,0
2.0,-248.0,-71.0,-7.0,48.0,-4.0,0
1.0,-249.0,-71.0,-4.0,45.0,-4.0,0
-2.0,-248.0,-68.0,-2.0,42.0,-5.0,0
4.0,-250.0,-69.0,1.0,42.0,-7.0,0
1.0,-250.0,-68.0,4.0,39.0,-6.0,0
2.0,-249.0,-66.0,6.0,39.0,-7.0,0
2.0,-248.0,-64.0,7.0,39.0,-7.0,0
5.0,-250.0,-67.0,8.0,38.0,-8.0,0
2.0,-248.0,-68.0,8.0,38.0,-9.0,0
3.0,-248.0,-67.0,8.0,36.0,-10.0,0
1.0,-250.0,-68.0,8.0,36.0,-8.0,0
4.0,-249.0,-68.0,4.0,36.0,-9.0,0
3.0,-247.0,-73.0,2.0,36.0,-8.0,0
3.0,-249.0,-66.0,-2.0,36.0,-8.0,0
2.0,-250.0,-67.0,-7.0,36.0,-7.0,0
3.0,-250.0,-73.0,-9.0,37.0,-9.0,0
2.0,-249.0,-70.0,-13.0,36.0,-9.0,0
3.0,-249.0,-68.0,-16.0,34.0,-9.0,0
-1.0,-246.0,-64.0,-16.0,33.0,-8.0,0
2.0,-250.0,-67.0,-16.0,34.0,-8.0,0
1.0,-251.0,-69.0,-15.0,31.0,-8.0,0
2.0,-252.0,-69.0,-14.0,30.0,-8.0,0
2.0,-251.0,-66.0,-12.0,31.0,-8.0,0
3.0,-250.0,-69.0,-10.0,31.0,-8.0,0
3.0,-251.0,-70.0,-8.0,30.0,-8.0,0
-3.0,-248.0,-67.0,-7.0,29.0,-7.0,0
2.0,-246.0,-64.0,-3.0,29.0,-7.0,0
1.0,-249.0,-68.0,-3.0,28.0,-9.0,0
1.0,-252.0,-70.0,-3.0,28.0,-7.0,0
2.0,-249.0,-69.0,-5.0,26.0,-8.0,0
2.0,-250.0,-66.0,-7.0,28.0,-8.0,0
3.0,-250.0,-65.0,-8.0,27.0,-9.0,0
3.0,-251.0,-69.0,-10.0,26.0,-8.0,0
3.0,-252.0,-67.0,-12.0,24.0,-8.0,0
1.0,-248.0,-69.0,-14.0,23.0,-9.0,0
3.0,-248.0,-66.0,-15.0,23.0,-7.0,0
0.0,-249.0,-68.0,-16.0,24.0,-6.0,0
0.0,-249.0,-69.0,-17.0,23.0,-8.0,0
1.0,-250.0,-65.0,-19.0,23.0,-6.0,0
1.0,-249.0,-67.0,-18.0,23.0,-6.0,0
5.0,-253.0,-70.0,-17.0,24.0,-6.0,0
3.0,-248.0,-66.0,-16.0,25.0,-6.0,0
0.0,-250.0,-69.0,-14.0,26.0,-6.0,0
0.0,-250.0,-69.0,-12.0,27.0,-8.0,0
2.0,-253.0,-66.0,-8.0,28.0,-8.0,0
1.0,-250.0,-67.0,-5.0,28.0,-8.0,0
-1.0,-249.0,-69.0,-2.0,30.0,-9.0,0
1.0,-246.0,-69.0,3.0,29.0,-10.0,0
3.0,-248.0,-70.0,5.0,28.0,-10.0,0
0.0,-247.0,-68.0,5.0,28.0,-10.0,0
1.0,-248.0,-70.0,5.0,28.0,-9.0,0
2.0,-249.0,-66.0,3.0,28.0,-10.0,0
2.0,-250.0,-69.0,1.0,26.0,-9.0,0
-1.0,-246.0,-71.0,-1.0,27.0,-10.0,0
1.0,-245.0,-70.0,-6.0,25.0,-9.0,0
0.0,-247.0,-71.0,-10.0,24.0,-10.0,0
-1.0,-247.0,-67.0,-15.0,25.0,-8.0,0
1.0,-248.0,-70.0,-19.0,26.0,-7.0,0
-1.0,-247.0,-74.0,-22.0,25.0,-8.0,0
-1.0,-250.0,-70.0,-24.0,25.0,-8.0,0
-1.0,-248.0,-68.0,-27.0,26.0,-7.0,0
-1.0,-245.0,-70.0,-26.0,26.0,-7.0,0
0.0,-249.0,-70.0,-23.0,26.0,-7.0,0
1.0,-251.0,-67.0,-19.0,26.0,-8.0,0
0.0,-251.0,-65.0,-16.0,27.0,-6.0,0
-1.0,-254.0,-69.0,-13.0,28.0,-5.0,0
1.0,-251.0,-68.0,-9.0,30.0,-6.0,0
-1.0,-252.0,-66.0,-4.0,30.0,-5.0,0
1.0,-251.0,-72.0,0.0,30.0,-5.0,0
2.0,-251.0,-69.0,4.0,33.0,-6.0,0
2.0,-251.0,-70.0,8.0,34.0,-5.0,0
2.0,-251.0,-70.0,12.0,36.0,-5.0,0
1.0,-247.0,-67.0,16.0,38.0,-5.0,0
4.0,-249.0,-69.0,15.0,38.0,-5.0,0
1.0,-248.0,-69.0,15.0,41.0,-5.0,0
4.0,-249.0,-71.0,11.0,44.0,-5.0,0
6.0,-249.0,-71.0,8.0,45.0,-3.0,0
5.0,-247.0,-66.0,3.0,43.0,-3.0,0
4.0,-245.0,-71.0,-2.0,45.0,-2.0,0
4.0,-249.0,-66.0,-8.0,47.0,-2.0,0
5.0,-248.0,-69.0,-14.0,49.0,1.0,0
2.0,-248.0,-68.0,-21.0,52.0,-1.0,0
4.0,-249.0,-67.0,-25.0,53.0,0.0,0
0.0,-249.0,-67.0,-27.0,54.0,-1.0,0
2.0,-247.0,-66.0,-30.0,59.0,0.0,0
2.0,-249.0,-64.0,-29.0,58.0,-1.0,0
2.0,-250.0,-69.0,-24.0,61.0,0.0,0
1.0,-249.0,-68.0,-20.0,66.0,0.0,0
3.0,-250.0,-67.0,-17.0,68.0,0.0,0
0.0,-250.0,-68.0,-13.0,72.0,-1.0,0
2.0,-247.0,-70.0,-12.0,75.0,0.0,0
1.0,-249.0,-71.0,-9.0,77.0,-3.0,0
3.0,-248.0,-70.0,-9.0,77.0,-1.0,0
-1.0,-247.0,-69.0,-9.0,77.0,-2.0,0
3.0,-252.0,-68.0,-10.0,75.0,-2.0,0
2.0,-248.0,-67.0,-11.0,75.0,-2.0,0
1.0,-248.0,-70.0,-13.0,75.0,-1.0,0
-1.0,-249.0,-66.0,-15.0,74.0,-1.0,0
1.0,-247.0,-70.0,-16.0,73.0,-1.0,0
-1.0,-247.0,-69.0,-18.0,71.0,0.0,0
2.0,-248.0,-70.0,-22.0,73.0,1.0,0
0.0,-248.0,-65.0,-27.0,72.0,1.0,0
0.0,-247.0,-70.0,-33.0,75.0,2.0,0
1.0,-248.0,-70.0,-39.0,76.0,0.0,0
1.0,-247.0,-70.0,-44.0,75.0,1.0,0
0.0,-245.0,-71.0,-49.0,76.0,2.0,0
1.0,-248.0,-70.0,-53.0,77.0,2.0,0
1.0,-250.0,-68.0,-57.0,77.0,0.0,0
1.0,-249.0,-71.0,-57.0,77.0,1.0,0
1.0,-249.0,-71.0,-59.0,79.0,0.0,0
4.0,-250.0,-70.0,-58.0,77.0,-1.0,0
1.0,-250.0,-69.0,-57.0,77.0,0.0,0
0.0,-252.0,-68.0,-55.0,75.0,-1.0,0
2.0,-250.0,-68.0,-53.0,72.0,-3.0,0
1.0,-250.0,-74.0,-50.0,69.0,-2.0,0
-1.0,-251.0,-70.0,-48.0,68.0,-3.0,0
1.0,-250.0,-69.0,-44.0,66.0,-1.0,0
-1.0,-248.0,-70.0,-38.0,65.0,1.0,0
2.0,-249.0,-67.0,-32.0,63.0,1.0,0
-3.0,-250.0,-72.0,-22.0,61.0,0.0,0
2.0,-251.0,-72.0,-15.0,62.0,2.0,0
2.0,-248.0,-72.0,-10.0,61.0,2.0,0
0.0,-245.0,-71.0,-7.0,61.0,2.0,0
2.0,-248.0,-74.0,-5.0,61.0,1.0,0
1.0,-246.0,-70.0,-4.0,61.0,3.0,0
0.0,-245.0,-73.0,-6.0,62.0,2.0,0
2.0,-245.0,-68.0,-8.0,63.0,2.0,0
4.0,-248.0,-72.0,-11.0,64.0,2.0,0
3.0,-247.0,-68.0,-14.0,64.0,0.0,0
1.0,-247.0,-68.0,-20.0,65.0,-1.0,0
3.0,-249.0,-72.0,-25.0,66.0,-2.0,0
4.0,-249.0,-71.0,-29.0,66.0,-3.0,0
5.0,-249.0,-68.0,-33.0,64.0,-4.0,0
2.0,-250.0,-71.0,-35.0,65.0,-4.0,0
2.0,-247.0,-71.0,-37.0,64.0,-2.0,0
2.0,-251.0,-73.0,-36.0,65.0,-2.0,0
3.0,-251.0,-73.0,-36.0,65.0,-1.0,0
3.0,-248.0,-72.0,-34.0,64.0,-1.0,0
2.0,-252.0,-70.0,-33.0,64.0,-2.0,0
1.0,-251.0,-69.0,-27.0,66.0,-2.0,0
1.0,-253.0,-73.0,-20.0,64.0,0.0,0
1.0,-250.0,-73.0,-10.0,65.0,0.0,0
-1.0,-249.0,-73.0,0.0,65.0,0.0,0
3.0,-250.0,-72.0,13.0,66.0,0.0,0
-1.0,-250.0,-69.0,28.0,66.0,1.0,0
1.0,-253.0,-72.0,43.0,67.0,-1.0,0
2.0,-249.0,-70.0,53.0,66.0,0.0,0
3.0,-250.0,-70.0,62.0,68.0,0.0,0
2.0,-250.0,-68.0,68.0,69.0,1.0,0
1.0,-248.0,-69.0,70.0,71.0,0.0,0
1.0,-246.0,-73.0,67.0,73.0,0.0,0
2.0,-245.0,-73.0,61.0,74.0,-2.0,0
2.0,-247.0,-69.0,50.0,75.0,-1.0,0
0.0,-243.0,-70.0,40.0,76.0,-2.0,0
0.0,-244.0,-71.0,26.0,77.0,-4.0,0
4.0,-248.0,-65.0,13.0,76.0,-3.0,0
2.0,-246.0,-69.0,-1.0,77.0,-2.0,0
5.0,-248.0,-66.0,-10.0,79.0,-3.0,0
3.0,-251.0,-72.0,-19.0,79.0,-2.0,0
3.0,-252.0,-68.0,-22.0,81.0,-3.0,0
3.0,-247.0,-67.0,-25.0,80.0,-3.0,0
7.0,-251.0,-67.0,-24.0,81.0,-3.0,0
4.0,-250.0,-71.0,-19.0,84.0,-2.0,0
4.0,-248.0,-72.0,-14.0,85.0,-3.0,0
1.0,-248.0,-66.0,-7.0,87.0,-2.0,0
4.0,-252.0,-71.0,-2.0,87.0,-2.0,0
5.0,-250.0,-68.0,3.0,90.0,-1.0,0
1.0,-247.0,-72.0,8.0,91.0,-3.0,0
2.0,-250.0,-74.0,9.0,92.0,-1.0,0
4.0,-248.0,-74.0,10.0,92.0,-1.0,0
2.0,-248.0,-71.0,10.0,96.0,0.0,0
0.0,-250.0,-68.0,10.0,96.0,-1.0,0
1.0,-246.0,-68.0,8.0,97.0,0.0,0
2.0,-246.0,-67.0,4.0,99.0,1.0,0
2.0,-247.0,-73.0,2.0,102.0,1.0,0
1.0,-246.0,-68.0,-1.0,104.0,0.0,0
0.0,-246.0,-68.0,-2.0,105.0,0.0,0
2.0,-249.0,-69.0,-3.0,107.0,-3.0,0
4.0,-248.0,-67.0,-4.0,105.0,-2.0,0
1.0,-250.0,-67.0,-5.0,105.0,-3.0,0
1.0,-251.0,-68.0,-4.0,105.0,-2.0,0
0.0,-251.0,-70.0,-5.0,103.0,-3.0,0
0.0,-250.0,-69.0,-6.0,103.0,-3.0,0
2.0,-249.0,-69.0,-9.0,103.0,-4.0,0
1.0,-249.0,-74.0,-11.0,103.0,-4.0,0
1.0,-249.0,-68.0,-14.0,103.0,-4.0,0
0.0,-248.0,-69.0,-16.0,103.0,-4.0,0
-3.0,-254.0,-62.0,-17.0,103.0,-5.0,0
11.0,-252.0,-78.0,-19.0,103.0,-3.0,0
5.0,-250.0,-71.0,-18.0,104.0,-4.0,0
1.0,-249.0,-73.0,-15.0,104.0,-1.0,0
6.0,-246.0,-69.0,-13.0,106.0,-2.0,0
7.0,-255.0,-79.0,-11.0,108.0,0.0,0
2.0,-246.0,-85.0,-9.0,109.0,-2.0,0
-4.0,-246.0,-81.0,-8.0,109.0,0.0,0
9.0,-248.0,-64.0,-5.0,109.0,0.0,0
-2.0,-247.0,-79.0,-6.0,109.0,2.0,0
2.0,-247.0,-67.0,-7.0,106.0,2.0,0
2.0,-247.0,-70.0,-10.0,104.0,1.0,0
1.0,-247.0,-70.0,-14.0,103.0,-1.0,0
15.0,-245.0,-67.0,-17.0,101.0,0.0,0
0.0,-248.0,-65.0,-24.0,100.0,-3.0,0
0.0,-247.0,-70.0,-31.0,97.0,-2.0,0
0.0,-246.0,-71.0,-37.0,98.0,-4.0,0
0.0,-247.0,-68.0,-41.0,96.0,-4.0,0
0.0,-249.0,-71.0,-46.0,97.0,-4.0,0
-1.0,-247.0,-69.0,-51.0,99.0,-3.0,0
3.0,-247.0,-71.0,-54.0,99.0,-4.0,0
2.0,-248.0,-68.0,-56.0,101.0,-4.0,0
2.0,-249.0,-70.0,-60.0,103.0,-6.0,0
1.0,-251.0,-69.0,-60.0,104.0,-5.0,0
1.0,-249.0,-66.0,-61.0,104.0,-7.0,0
1.0,-249.0,-68.0,-58.0,106.0,-6.0,0
2.0,-248.0,-69.0,-54.0,102.0,-6.0,0
1.0,-251.0,-67.0,-51.0,102.0,-5.0,0
3.0,-250.0,-74.0,-46.0,98.0,-6.0,0
0.0,-247.0,-68.0,-43.0,96.0,-5.0,0
2.0,-249.0,-73.0,-36.0,94.0,-5.0,0
2.0,-250.0,-69.0,-33.0,92.0,-3.0,0
2.0,-247.0,-68.0,-29.0,92.0,-4.0,0
3.0,-248.0,-73.0,-26.0,88.0,-2.0,0
3.0,-248.0,-68.0,-24.0,88.0,-3.0,0
2.0,-251.0,-72.0,-23.0,87.0,-1.0,0
1.0,-249.0,-72.0,-23.0,86.0,-4.0,0
0.0,-249.0,-69.0,-20.0,84.0,-4.0,0
2.0,-249.0,-70.0,-18.0,82.0,-5.0,0
1.0,-250.0,-68.0,-16.0,78.0,-4.0,0
2.0,-250.0,-65.0,-13.0,74.0,-5.0,0
0.0,-249.0,-72.0,-11.0,68.0,-4.0,0
1.0,-251.0,-66.0,-8.0,65.0,-4.0,0
-4.0,-246.0,-70.0,-5.0,64.0,-4.0,0
-1.0,-249.0,-72.0,-3.0,61.0,-6.0,0
2.0,-250.0,-70.0,-1.0,61.0,-4.0,0
-1.0,-248.0,-69.0,-1.0,63.0,-6.0,0
1.0,-247.0,-67.0,-2.0,62.0,-5.0,0
-1.0,-248.0,-69.0,-5.0,61.0,-6.0,0
-2.0,-249.0,-70.0,-8.0,62.0,-6.0,0
1.0,-248.0,-69.0,-13.0,60.0,-8.0,0
0.0,-246.0,-67.0,-17.0,58.0,-8.0,0
-1.0,-247.0,-68.0,-19.0,56.0,-9.0,0
1.0,-249.0,-74.0,-22.0,53.0,-8.0,0
1.0,-248.0,-62.0,-24.0,52.0,-11.0,0
-1.0,-248.0,-64.0,-24.0,50.0,-9.0,0
2.0,-249.0,-67.0,-23.0,48.0,-11.0,0
1.0,-248.0,-67.0,-22.0,48.0,-9.0,0
1.0,-247.0,-71.0,-20.0,47.0,-11.0,0
1.0,-249.0,-67.0,-17.0,46.0,-9.0,0
-1.0,-251.0,-68.0,-14.0,44.0,-10.0,0
0.0,-251.0,-69.0,-13.0,43.0,-7.0,0
3.0,-250.0,-68.0,-9.0,41.0,-9.0,0
-1.0,-251.0,-69.0,-8.0,41.0,-7.0,0
4.0,-253.0,-70.0,-6.0,42.0,-7.0,0
2.0,-248.0,-68.0,-5.0,42.0,-6.0,0
1.0,-249.0,-72.0,-5.0,44.0,-9.0,0
2.0,-249.0,-65.0,-5.0,45.0,-7.0,0
5.0,-250.0,-71.0,-4.0,43.0,-8.0,0
-1.0,-247.0,-68.0,-6.0,43.0,-7.0,0
2.0,-245.0,-67.0,-8.0,43.0,-8.0,0
0.0,-249.0,-67.0,-8.0,42.0,-8.0,0
0.0,-246.0,-72.0,-9.0,42.0,-10.0,0
4.0,-249.0,-69.0,-10.0,42.0,-8.0,0
1.0,-249.0,-67.0,-13.0,41.0,-9.0,0
3.0,-246.0,-71.0,-16.0,44.0,-9.0,0
2.0,-250.0,-66.0,-17.0,43.0,-11.0,0
4.0,-250.0,-71.0,-19.0,45.0,-10.0,0
3.0,-252.0,-70.0,-22.0,46.0,-11.0,0
2.0,-249.0,-67.0,-22.0,44.0,-10.0,0
2.0,-249.0,-69.0,-23.0,43.0,-12.0,0
0.0,-252.0,-69.0,-22.0,43.0,-10.0,0
2.0,-252.0,-68.0,-20.0,41.0,-10.0,0
3.0,-248.0,-68.0,-19.0,40.0,-10.0,0
2.0,-251.0,-71.0,-18.0,40.0,-11.0,0
2.0,-249.0,-67.0,-18.0,38.0,-9.0,0
0.0,-247.0,-69.0,-18.0,39.0,-10.0,0
4.0,-250.0,-67.0,-17.0,38.0,-7.0,0
2.0,-247.0,-66.0,-17.0,39.0,-10.0,0
0.0,-250.0,-66.0,-18.0,39.0,-6.0,0
3.0,-249.0,-69.0,-18.0,40.0,-8.0,0
2.0,-250.0,-70.0,-19.0,41.0,-8.0,0
2.0,-249.0,-71.0,-19.0,42.0,-7.0,0
2.0,-248.0,-72.0,-18.0,43.0,-6.0,0
3.0,-248.0,-72.0,-16.0,43.0,-7.0,0
-1.0,-248.0,-72.0,-16.0,44.0,-5.0,0
2.0,-248.0,-69.0,-14.0,43.0,-6.0,0
2.0,-251.0,-71.0,-13.0,44.0,-3.0,0
3.0,-250.0,-68.0,-11.0,44.0,-6.0,0
2.0,-250.0,-68.0,-10.0,44.0,-3.0,0
1.0,-249.0,-71.0,-11.0,44.0,-5.0,0
3.0,-251.0,-69.0,-10.0,43.0,-3.0,0
0.0,-248.0,-72.0,-10.0,42.0,-5.0,0
1.0,-249.0,-69.0,-9.0,40.0,-4.0,0
2.0,-249.0,-70.0,-8.0,39.0,-6.0,0
2.0,-249.0,-70.0,-6.0,40.0,-4.0,0
-2.0,-249.0,-70.0,-7.0,37.0,-7.0,0
1.0,-250.0,-72.0,-4.0,37.0,-5.0,0
3.0,-250.0,-67.0,-1.0,37.0,-6.0,0
-1.0,-250.0,-75.0,2.0,36.0,-4.0,0
1.0,-248.0,-71.0,4.0,35.0,-6.0,0
4.0,-249.0,-67.0,5.0,34.0,-5.0,0
1.0,-247.0,-72.0,5.0,36.0,-6.0,0
1.0,-249.0,-66.0,6.0,37.0,-6.0,0
2.0,-248.0,-67.0,5.0,37.0,-5.0,0
2.0,-249.0,-71.0,1.0,39.0,-5.0,0
1.0,-250.0,-68.0,0.0,41.0,-5.0,0
0.0,-248.0,-71.0,-2.0,43.0,-3.0,0
2.0,-247.0,-69.0,-5.0,42.0,-5.0,0
4.0,-249.0,-69.0,-7.0,45.0,-3.0,0
1.0,-247.0,-70.0,-10.0,48.0,-5.0,0
2.0,-247.0,-72.0,-13.0,49.0,-3.0,0
4.0,-246.0,-69.0,-17.0,49.0,-4.0,0
5.0,-249.0,-66.0,-20.0,50.0,-3.0,0
4.0,-247.0,-69.0,-23.0,51.0,-5.0,0
3.0,-247.0,-66.0,-25.0,50.0,-3.0,0
2.0,-249.0,-65.0,-28.0,48.0,-6.0,0
1.0,-247.0,-67.0,-28.0,46.0,-4.0,0
0.0,-248.0,-67.0,-28.0,46.0,-5.0,0
1.0,-248.0,-70.0,-27.0,48.0,-4.0,0
1.0,-249.0,-67.0,-25.0,48.0,-6.0,0
2.0,-248.0,-68.0,-23.0,47.0,-3.0,0
3.0,-250.0,-67.0,-17.0,50.0,-6.0,0
2.0,-251.0,-67.0,-15.0,50.0,-4.0,0
3.0,-247.0,-69.0,-13.0,52.0,-6.0,0
2.0,-248.0,-72.0,-11.0,54.0,-4.0,0
2.0,-248.0,-69.0,-13.0,58.0,-6.0,0
2.0,-249.0,-69.0,-13.0,62.0,-5.0,0
2.0,-248.0,-71.0,-16.0,62.0,-5.0,0
-1.0,-246.0,-70.0,-21.0,64.0,-5.0,0
3.0,-247.0,-72.0,-24.0,66.0,-5.0,0
4.0,-251.0,-69.0,-31.0,67.0,-3.0,0
1.0,-249.0,-70.0,-33.0,68.0,-4.0,0
2.0,-249.0,-67.0,-34.0,70.0,-3.0,0
3.0,-250.0,-67.0,-35.0,72.0,-4.0,0
3.0,-251.0,-70.0,-33.0,70.0,-2.0,0
2.0,-247.0,-67.0,-33.0,68.0,-4.0,0
-2.0,-249.0,-67.0,-30.0,68.0,-2.0,0
1.0,-248.0,-68.0,-27.0,69.0,-2.0,0
4.0,-251.0,-68.0,-27.0,67.0,-1.0,0
0.0,-248.0,-68.0,-27.0,67.0,-5.0,0
4.0,-249.0,-69.0,-27.0,66.0,-6.0,0
3.0,-251.0,-67.0,-29.0,68.0,-9.0,0
3.0,-250.0,-69.0,-30.0,68.0,-8.0,0
2.0,-249.0,-67.0,-29.0,70.0,-11.0,0
2.0,-248.0,-70.0,-29.0,70.0,-10.0,0
2.0,-248.0,-71.0,-30.0,74.0,-12.0,0
1.0,-248.0,-73.0,-30.0,75.0,-11.0,0
2.0,-246.0,-69.0,-30.0,76.0,-13.0,0
3.0,-249.0,-69.0,-29.0,80.0,-13.0,0
3.0,-248.0,-72.0,-31.0,82.0,-15.0,0
3.0,-245.0,-77.0,-32.0,83.0,-14.0,0
3.0,-248.0,-72.0,-36.0,87.0,-15.0,0
2.0,-245.0,-71.0,-41.0,91.0,-13.0,0
2.0,-243.0,-71.0,-48.0,93.0,-15.0,0
1.0,-247.0,-70.0,-58.0,95.0,-11.0,0
3.0,-245.0,-69.0,-65.0,96.0,-12.0,0
1.0,-244.0,-71.0,-72.0,97.0,-10.0,0
5.0,-247.0,-70.0,-80.0,96.0,-10.0,0
0.0,-249.0,-73.0,-85.0,96.0,-8.0,0
1.0,-245.0,-70.0,-89.0,95.0,-10.0,0
3.0,-246.0,-70.0,-92.0,94.0,-8.0,0
2.0,-248.0,-66.0,-94.0,93.0,-10.0,0
4.0,-248.0,-68.0,-99.0,93.0,-8.0,0
5.0,-248.0,-73.0,-104.0,92.0,-8.0,0
2.0,-247.0,-71.0,-109.0,92.0,-6.0,0
6.0,-250.0,-69.0,-114.0,90.0,-10.0,0
2.0,-247.0,-71.0,-117.0,90.0,-9.0,0
6.0,-248.0,-71.0,-119.0,90.0,-13.0,0
4.0,-247.0,-69.0,-124.0,90.0,-11.0,0
4.0,-249.0,-69.0,-125.0,93.0,-15.0,0
6.0,-251.0,-72.0,-127.0,95.0,-14.0,0
3.0,-250.0,-71.0,-127.0,96.0,-17.0,0
4.0,-251.0,-73.0,-126.0,97.0,-17.0,0
4.0,-254.0,-72.0,-123.0,98.0,-20.0,0
4.0,-251.0,-70.0,-117.0,97.0,-18.0,0
3.0,-253.0,-75.0,-111.0,97.0,-20.0,0
6.0,-254.0,-73.0,-104.0,98.0,-17.0,0
2.0,-252.0,-70.0,-97.0,100.0,-18.0,0
1.0,-251.0,-72.0,-89.0,103.0,-16.0,0
2.0,-247.0,-75.0,-84.0,102.0,-17.0,0
2.0,-248.0,-77.0,-78.0,101.0,-14.0,0
1.0,-246.0,-78.0,-79.0,102.0,-15.0,0
2.0,-245.0,-77.0,-78.0,103.0,-15.0,0
2.0,-245.0,-77.0,-84.0,103.0,-15.0,0
0.0,-247.0,-74.0,-90.0,101.0,-12.0,0
2.0,-246.0,-79.0,-100.0,101.0,-15.0,0
0.0,-242.0,-68.0,-110.0,98.0,-12.0,0
5.0,-248.0,-77.0,-121.0,98.0,-15.0,0
6.0,-248.0,-77.0,-130.0,100.0,-15.0,0
7.0,-249.0,-77.0,-140.0,99.0,-18.0,0
7.0,-244.0,-74.0,-148.0,100.0,-18.0,0
6.0,-250.0,-77.0,-155.0,101.0,-20.0,0
8.0,-250.0,-81.0,-160.0,101.0,-19.0,0
10.0,-246.0,-76.0,-164.0,103.0,-25.0,0
8.0,-246.0,-78.0,-169.0,105.0,-26.0,0
9.0,-245.0,-82.0,-174.0,105.0,-30.0,0
8.0,-248.0,-80.0,-178.0,108.0,-32.0,0
11.0,-248.0,-85.0,-187.0,110.0,-36.0,0
9.0,-248.0,-84.0,-196.0,115.0,-36.0,0
14.0,-254.0,-84.0,-207.0,120.0,-40.0,0
15.0,-251.0,-82.0,-217.0,125.0,-39.0,0
13.0,-251.0,-88.0,-229.0,131.0,-41.0,0
11.0,-252.0,-90.0,-244.0,136.0,-36.0,0
12.0,-256.0,-99.0,-259.0,142.0,-37.0,0
11.0,-256.0,-94.0,-275.0,146.0,-35.0,0
11.0,-259.0,-94.0,-296.0,153.0,-37.0,0
12.0,-259.0,-100.0,-309.0,159.0,-34.0,0
11.0,-260.0,-100.0,-322.0,167.0,-35.0,0
15.0,-260.0,-103.0,-329.0,177.0,-34.0,0
13.0,-257.0,-106.0,-331.0,188.0,-37.0,0
14.0,-255.0,-106.0,-327.0,201.0,-35.0,0
14.0,-251.0,-110.0,-318.0,214.0,-40.0,0
15.0,-249.0,-109.0,-304.0,227.0,-42.0,0
18.0,-240.0,-109.0,-287.0,238.0,-48.0,0
15.0,-236.0,-113.0,-273.0,249.0,-54.0,0
19.0,-229.0,-113.0,-264.0,258.0,-67.0,0
22.0,-221.0,-113.0,-264.0,263.0,-75.0,0
20.0,-211.0,-112.0,-276.0,269.0,-89.0,0
23.0,-204.0,-110.0,-296.0,272.0,-101.0,0
23.0,-197.0,-106.0,-318.0,280.0,-117.0,0
25.0,-184.0,-108.0,-343.0,291.0,-128.0,0
28.0,-171.0,-108.0,-368.0,311.0,-143.0,0
26.0,-153.0,-110.0,-394.0,340.0,-149.0,0
29.0,-135.0,-107.0,-419.0,380.0,-160.0,0
29.0,-117.0,-105.0,-445.0,436.0,-163.0,0
30.0,-103.0,-98.0,-470.0,504.0,-170.0,0
35.0,-84.0,-94.0,-490.0,594.0,-165.0,0
34.0,-66.0,-81.0,-503.0,668.0,-160.0,0
40.0,-44.0,-65.0,-506.0,728.0,-149.0,0
45.0,-28.0,-50.0,-503.0,769.0,-148.0,0
47.0,-11.0,-38.0,-494.0,790.0,-148.0,0
44.0,-1.0,-18.0,-481.0,781.0,-160.0,0
43.0,4.0,-5.0,-466.0,743.0,-168.0,0
37.0,8.0,9.0,-450.0,675.0,-179.0,0
25.0,14.0,17.0,-437.0,591.0,-180.0,0
21.0,16.0,21.0,-434.0,497.0,-169.0,0
18.0,7.0,23.0,-440.0,401.0,-138.0,0
13.0,-3.0,27.0,-466.0,297.0,-104.0,0
10.0,-24.0,20.0,-506.0,226.0,-65.0,0
4.0,-48.0,19.0,-564.0,179.0,-35.0,0
-6.0,-75.0,14.0,-634.0,165.0,13.0,0
-14.0,-97.0,15.0,-699.0,174.0,63.0,0
-23.0,-125.0,12.0,-740.0,190.0,110.0,0
-31.0,-155.0,9.0,-745.0,217.0,143.0,0
-32.0,-180.0,-3.0,-714.0,259.0,187.0,0
-37.0,-211.0,-20.0,-663.0,316.0,232.0,0
-38.0,-241.0,-44.0,-613.0,384.0,283.0,0
-39.0,-267.0,-80.0,-572.0,467.0,335.0,0
-38.0,-290.0,-129.0,-561.0,504.0,368.0,0
-39.0,-303.0,-166.0,-647.0,487.0,368.0,0
-35.0,-319.0,-212.0,-834.0,402.0,345.0,0
-26.0,-340.0,-246.0,-1126.0,279.0,306.0,0
-9.0,-360.0,-265.0,-1507.0,157.0,295.0,0
34.0,-385.0,-261.0,-1929.0,76.0,296.0,0
63.0,-414.0,-243.0,-2331.0,54.0,296.0,0
80.0,-452.0,-201.0,-2619.0,81.0,276.0,0
73.0,-496.0,-159.0,-2682.0,144.0,254.0,0
63.0,-538.0,-126.0,-2447.0,236.0,258.0,0
48.0,-600.0,-103.0,-1784.0,358.0,288.0,0
27.0,-654.0,-107.0,-1011.0,447.0,301.0,0
10.0,-690.0,-134.0,-179.0,510.0,284.0,0
-1.0,-702.0,-168.0,599.0,543.0,233.0,0
-10.0,-695.0,-200.0,1255.0,553.0,164.0,0
-12.0,-678.0,-234.0,1748.0,544.0,75.0,0
-23.0,-656.0,-258.0,2060.0,522.0,-4.0,0
-32.0,-640.0,-277.0,2187.0,490.0,-62.0,0
-35.0,-618.0,-294.0,2130.0,457.0,-82.0,0
-45.0,-600.0,-304.0,1906.0,435.0,-82.0,0
-41.0,-593.0,-296.0,1549.0,427.0,-55.0,0
-39.0,-604.0,-272.0,1015.0,436.0,-27.0,0
-22.0,-621.0,-247.0,545.0,442.0,7.0,0
-8.0,-643.0,-223.0,101.0,431.0,32.0,0
14.0,-667.0,-200.0,-275.0,385.0,56.0,0
21.0,-677.0,-194.0,-552.0,303.0,45.0,0
17.0,-677.0,-194.0,-701.0,201.0,27.0,0
6.0,-668.0,-201.0,-717.0,97.0,9.0,0
3.0,-652.0,-214.0,-627.0,-4.0,-4.0,0
-4.0,-631.0,-226.0,-474.0,-92.0,-32.0,0
-6.0,-600.0,-234.0,-290.0,-158.0,-71.0,0
-7.0,-573.0,-237.0,-62.0,-189.0,-107.0,0
-7.0,-539.0,-237.0,124.0,-176.0,-130.0,0
-11.0,-515.0,-239.0,304.0,-135.0,-145.0,0
-10.0,-478.0,-236.0,475.0,-80.0,-145.0,0
-9.0,-441.0,-239.0,633.0,-18.0,-143.0,0
-6.0,-390.0,-231.0,780.0,39.0,-129.0,0
0.0,-341.0,-225.0,926.0,79.0,-114.0,0
6.0,-291.0,-211.0,1073.0,92.0,-97.0,0
7.0,-236.0,-195.0,1221.0,69.0,-90.0,0
8.0,-182.0,-173.0,1361.0,8.0,-80.0,0
11.0,-142.0,-161.0,1488.0,-116.0,-61.0,0
14.0,-87.0,-141.0,1634.0,-238.0,-35.0,0
23.0,-32.0,-109.0,1767.0,-355.0,-10.0,0
31.0,42.0,-58.0,1974.0,-435.0,6.0,0
31.0,105.0,-47.0,2341.0,-456.0,-32.0,0
25.0,154.0,-80.0,2690.0,-463.0,-42.0,0
21.0,189.0,-111.0,2770.0,-471.0,9.0,0
23.0,209.0,-124.0,2525.0,-467.0,114.0,0
24.0,222.0,-128.0,2018.0,-453.0,217.0,0
26.0,233.0,-120.0,1368.0,-433.0,304.0,0
32.0,238.0,-111.0,671.0,-397.0,357.0,0
35.0,230.0,-88.0,-124.0,-318.0,370.0,0
33.0,216.0,-74.0,-687.0,-221.0,347.0,0
29.0,191.0,-63.0,-1145.0,-98.0,322.0,0
26.0,167.0,-55.0,-1490.0,31.0,297.0,0
22.0,135.0,-51.0,-1709.0,146.0,278.0,0
20.0,115.0,-45.0,-1813.0,239.0,258.0,0
18.0,88.0,-43.0,-1840.0,308.0,251.0,0
23.0,60.0,-39.0,-1812.0,340.0,250.0,0
33.0,38.0,-36.0,-1739.0,333.0,258.0,0
34.0,18.0,-33.0,-1637.0,304.0,257.0,0
37.0,3.0,-32.0,-1527.0,264.0,258.0,0
38.0,-6.0,-20.0,-1399.0,229.0,258.0,0
40.0,-17.0,-15.0,-1294.0,193.0,270.0,0
44.0,-31.0,-3.0,-1194.0,158.0,284.0,0
41.0,-42.0,9.0,-1099.0,129.0,307.0,0
43.0,-52.0,13.0,-994.0,107.0,328.0,0
43.0,-63.0,22.0,-880.0,90.0,353.0,0
38.0,-68.0,27.0,-755.0,75.0,379.0,0
28.0,-71.0,24.0,-630.0,64.0,421.0,0
26.0,-78.0,26.0,-503.0,60.0,475.0,0
28.0,-85.0,22.0,-384.0,67.0,536.0,0
35.0,-93.0,19.0,-285.0,89.0,572.0,0
36.0,-100.0,14.0,-202.0,126.0,577.0,0
34.0,-99.0,11.0,-148.0,186.0,555.0,0
34.0,-96.0,5.0,-99.0,268.0,526.0,0
33.0,-94.0,-1.0,-54.0,373.0,494.0,0
30.0,-82.0,-8.0,-5.0,496.0,469.0,0
25.0,-76.0,-15.0,46.0,625.0,435.0,0
11.0,-68.0,-20.0,92.0,750.0,402.0,0
-3.0,-59.0,-28.0,124.0,859.0,357.0,0
-22.0,-50.0,-33.0,131.0,950.0,309.0,0
-39.0,-42.0,-41.0,110.0,1017.0,236.0,0
-59.0,-36.0,-42.0,59.0,1043.0,171.0,0
-74.0,-30.0,-37.0,-3.0,1006.0,92.0,0
-90.0,-23.0,-25.0,-71.0,906.0,17.0,0
-99.0,-19.0,-13.0,-127.0,746.0,-60.0,0
-107.0,-19.0,-2.0,-157.0,542.0,-123.0,0
-113.0,-16.0,13.0,-155.0,322.0,-173.0,0
-113.0,-12.0,10.0,-114.0,109.0,-198.0,0
-109.0,-15.0,8.0,-48.0,-79.0,-210.0,0
-90.0,-21.0,-15.0,41.0,-244.0,-205.0,0
-75.0,-33.0,-59.0,116.0,-394.0,-212.0,0
-73.0,-42.0,-99.0,136.0,-549.0,-228.0,0
-72.0,-48.0,-135.0,123.0,-636.0,-238.0,0
-68.0,-62.0,-169.0,110.0,-676.0,-235.0,0
-74.0,-80.0,-222.0,54.0,-654.0,-232.0,0
-77.0,-106.0,-272.0,-78.0,-579.0,-212.0,0
-94.0,-140.0,-321.0,-324.0,-453.0,-189.0,0
-127.0,-180.0,-374.0,-732.0,-319.0,-149.0,0
-152.0,-244.0,-391.0,-1305.0,-241.0,-107.0,0
-134.0,-347.0,-389.0,-1940.0,-245.0,-90.0,0
-32.0,-505.0,-420.0,-2562.0,-335.0,-149.0,0
80.0,-651.0,-516.0,-3258.0,-529.0,-412.0,0
231.0,-882.0,-717.0,-4570.0,-789.0,-835.0,0
368.0,-1113.0,-824.0,-6196.0,-852.0,-1356.0,0
385.0,-1232.0,-661.0,-7794.0,-655.0,-1807.0,0
274.0,-1290.0,-426.0,-8160.0,-96.0,-1898.0,0
169.0,-1347.0,-244.0,-6715.0,745.0,-1488.0,0
110.0,-1348.0,-157.0,-3851.0,1418.0,-767.0,0
47.0,-1212.0,-210.0,-312.0,1467.0,-98.0,0
6.0,-1065.0,-304.0,3168.0,941.0,361.0,0
-15.0,-882.0,-409.0,5951.0,262.0,581.0,0
-33.0,-713.0,-438.0,7707.0,-236.0,592.0,0
-49.0,-538.0,-391.0,8367.0,-500.0,423.0,0
-76.0,-369.0,-302.0,8073.0,-601.0,263.0,0
-89.0,-219.0,-226.0,7391.0,-744.0,207.0,0
-66.0,-108.0,-176.0,6629.0,-845.0,270.0,0
-27.0,-21.0,-144.0,5915.0,-751.0,336.0,0
-12.0,22.0,-123.0,5258.0,-497.0,338.0,0
-2.0,60.0,-106.0,4623.0,-209.0,273.0,0
-9.0,75.0,-88.0,3957.0,42.0,182.0,0
-25.0,81.0,-86.0,3223.0,238.0,97.0,0
-24.0,80.0,-64.0,2421.0,390.0,50.0,0
-12.0,91.0,-28.0,1624.0,509.0,-41.0,0
-9.0,90.0,-19.0,869.0,653.0,-232.0,0
-28.0,70.0,-41.0,330.0,749.0,-484.0,0
-46.0,50.0,-48.0,-315.0,795.0,-637.0,0
-49.0,8.0,-38.0,-1066.0,803.0,-628.0,0
-43.0,-47.0,-24.0,-1816.0,781.0,-511.0,0
-28.0,-99.0,4.0,-2451.0,748.0,-377.0,0
-14.0,-150.0,25.0,-2889.0,726.0,-262.0,0
-10.0,-192.0,39.0,-3094.0,732.0,-191.0,0
7.0,-225.0,40.0,-3058.0,769.0,-165.0,0
14.0,-252.0,10.0,-2856.0,816.0,-193.0,0
17.0,-259.0,-17.0,-2581.0,845.0,-236.0,0
22.0,-264.0,-56.0,-2241.0,829.0,-273.0,0
30.0,-266.0,-97.0,-1975.0,781.0,-305.0,0
33.0,-256.0,-126.0,-1716.0,706.0,-345.0,0
37.0,-240.0,-148.0,-1441.0,604.0,-382.0,0
41.0,-225.0,-172.0,-1151.0,487.0,-416.0,0
44.0,-209.0,-181.0,-857.0,365.0,-432.0,0
44.0,-197.0,-184.0,-569.0,249.0,-442.0,0
45.0,-192.0,-179.0,-297.0,151.0,-433.0,0
40.0,-181.0,-171.0,-41.0,72.0,-417.0,0
36.0,-180.0,-150.0,205.0,5.0,-376.0,0
24.0,-176.0,-134.0,487.0,-56.0,-335.0,0
13.0,-179.0,-116.0,716.0,-97.0,-277.0,0
-8.0,-181.0,-98.0,932.0,-131.0,-220.0,0
-14.0,-185.0,-79.0,1124.0,-161.0,-158.0,0
-19.0,-194.0,-70.0,1271.0,-192.0,-114.0,0
-21.0,-198.0,-62.0,1354.0,-237.0,-90.0,0
-25.0,-199.0,-54.0,1382.0,-291.0,-73.0,0
-27.0,-201.0,-54.0,1376.0,-339.0,-44.0,0
-25.0,-205.0,-51.0,1354.0,-377.0,-12.0,0
-18.0,-211.0,-48.0,1319.0,-407.0,30.0,0
-19.0,-215.0,-57.0,1271.0,-433.0,84.0,0
-12.0,-220.0,-65.0,1180.0,-451.0,133.0,0
-5.0,-220.0,-74.0,1073.0,-463.0,173.0,0
1.0,-225.0,-89.0,934.0,-468.0,211.0,0
6.0,-228.0,-100.0,763.0,-466.0,240.0,0
8.0,-236.0,-114.0,563.0,-459.0,263.0,0
15.0,-240.0,-122.0,335.0,-447.0,272.0,0
18.0,-246.0,-131.0,92.0,-434.0,280.0,0
20.0,-256.0,-136.0,-155.0,-423.0,275.0,0
21.0,-260.0,-133.0,-383.0,-411.0,270.0,0
29.0,-265.0,-126.0,-570.0,-403.0,252.0,0
27.0,-271.0,-119.0,-716.0,-393.0,241.0,0
25.0,-274.0,-113.0,-759.0,-385.0,225.0,0
28.0,-284.0,-107.0,-724.0,-376.0,211.0,0
30.0,-288.0,-102.0,-620.0,-364.0,186.0,0
24.0,-293.0,-99.0,-459.0,-350.0,162.0,0
20.0,-296.0,-95.0,-257.0,-337.0,128.0,0
19.0,-298.0,-94.0,-36.0,-329.0,93.0,0
14.0,-296.0,-94.0,194.0,-326.0,44.0,0
15.0,-292.0,-92.0,419.0,-327.0,-7.0,0
10.0,-287.0,-87.0,626.0,-326.0,-62.0,0
9.0,-281.0,-82.0,809.0,-323.0,-122.0,0
7.0,-271.0,-77.0,997.0,-323.0,-172.0,0
7.0,-262.0,-73.0,1125.0,-325.0,-210.0,0
6.0,-257.0,-69.0,1227.0,-327.0,-240.0,0
4.0,-253.0,-66.0,1292.0,-331.0,-254.0,0
8.0,-241.0,-64.0,1320.0,-336.0,-257.0,0
2.0,-237.0,-60.0,1307.0,-341.0,-245.0,0
6.0,-231.0,-60.0,1257.0,-345.0,-230.0,0
-1.0,-223.0,-56.0,1172.0,-357.0,-204.0,0
3.0,-227.0,-45.0,1060.0,-371.0,-178.0,0
3.0,-211.0,-48.0,927.0,-389.0,-140.0,0
0.0,-220.0,-48.0,742.0,-417.0,-114.0,0
4.0,-217.0,-48.0,575.0,-442.0,-82.0,0
4.0,-202.0,-50.0,400.0,-474.0,-55.0,0
8.0,-215.0,-63.0,221.0,-505.0,-31.0,0
10.0,-215.0,-57.0,43.0,-538.0,-11.0,0
17.0,-212.0,-61.0,-125.0,-571.0,9.0,0
16.0,-216.0,-65.0,-277.0,-601.0,23.0,0
20.0,-219.0,-67.0,-412.0,-624.0,41.0,0
23.0,-224.0,-64.0,-525.0,-644.0,51.0,0
33.0,-234.0,-68.0,-610.0,-659.0,58.0,0
34.0,-237.0,-70.0,-667.0,-673.0,57.0,0
48.0,-241.0,-69.0,-697.0,-672.0,54.0,0
80.0,-257.0,-72.0,-696.0,-667.0,38.0,0
162.0,-270.0,-95.0,-692.0,-643.0,-25.0,0
187.0,-267.0,-106.0,-682.0,-550.0,-131.0,0
238.0,-280.0,-146.0,-642.0,-353.0,-208.0,0
224.0,-315.0,-176.0,-615.0,-95.0,-350.0,0
8.0,-307.0,-163.0,-694.0,196.0,-598.0,0
-119.0,-285.0,-154.0,-839.0,502.0,-708.0,0
-190.0,-264.0,-131.0,-904.0,694.0,-567.0,0
-172.0,-259.0,-104.0,-845.0,699.0,-344.0,0
-155.0,-235.0,-88.0,-626.0,557.0,-239.0,0
-135.0,-205.0,-73.0,-365.0,450.0,-141.0,0
-84.0,-187.0,-58.0,-51.0,375.0,4.0,0
-32.0,-169.0,-63.0,281.0,299.0,153.0,0
-5.0,-162.0,-76.0,571.0,223.0,267.0,0
9.0,-156.0,-92.0,748.0,157.0,336.0,0
2.0,-153.0,-102.0,786.0,90.0,383.0,0
-10.0,-152.0,-102.0,717.0,-7.0,413.0,0
-12.0,-155.0,-95.0,579.0,-139.0,441.0,0
-7.0,-167.0,-82.0,403.0,-301.0,444.0,0
8.0,-184.0,-61.0,220.0,-492.0,403.0,0
32.0,-204.0,-55.0,13.0,-717.0,323.0,0
44.0,-218.0,-50.0,-149.0,-850.0,229.0,0
57.0,-243.0,-45.0,-302.0,-903.0,144.0,0
68.0,-264.0,-42.0,-437.0,-879.0,82.0,0
80.0,-286.0,-49.0,-554.0,-790.0,33.0,0
84.0,-294.0,-58.0,-666.0,-657.0,-3.0,0
96.0,-302.0,-82.0,-781.0,-485.0,-28.0,0
102.0,-301.0,-105.0,-897.0,-281.0,-40.0,0
101.0,-292.0,-118.0,-1004.0,-59.0,-50.0,0
98.0,-286.0,-123.0,-1085.0,163.0,-52.0,0
86.0,-278.0,-130.0,-1113.0,398.0,-46.0,0
70.0,-268.0,-127.0,-1061.0,544.0,-31.0,0
57.0,-260.0,-123.0,-953.0,632.0,-18.0,0
49.0,-259.0,-120.0,-805.0,663.0,-6.0,0
44.0,-260.0,-110.0,-637.0,642.0,-6.0,0
32.0,-262.0,-98.0,-462.0,590.0,-8.0,0
21.0,-260.0,-88.0,-291.0,515.0,-19.0,0
20.0,-260.0,-75.0,-132.0,432.0,-31.0,0
14.0,-262.0,-67.0,21.0,348.0,-51.0,0
10.0,-262.0,-60.0,169.0,285.0,-60.0,0
4.0,-261.0,-58.0,308.0,240.0,-65.0,0
2.0,-262.0,-59.0,460.0,210.0,-55.0,0
5.0,-260.0,-68.0,565.0,201.0,-42.0,0
-2.0,-251.0,-75.0,644.0,203.0,-20.0,0
0.0,-246.0,-79.0,698.0,218.0,3.0,0
-3.0,-238.0,-85.0,725.0,240.0,34.0,0
-3.0,-228.0,-95.0,724.0,258.0,64.0,0
-6.0,-223.0,-103.0,696.0,272.0,94.0,0
-10.0,-222.0,-105.0,641.0,277.0,117.0,0
-9.0,-216.0,-103.0,562.0,272.0,137.0,0
-6.0,-214.0,-102.0,462.0,259.0,145.0,0
-1.0,-217.0,-96.0,355.0,240.0,151.0,0
0.0,-217.0,-87.0,224.0,218.0,150.0,0
3.0,-222.0,-87.0,130.0,204.0,149.0,0
6.0,-223.0,-84.0,51.0,194.0,142.0,0
12.0,-230.0,-79.0,-12.0,188.0,137.0,0
15.0,-235.0,-78.0,-54.0,188.0,126.0,0
20.0,-236.0,-76.0,-78.0,196.0,119.0,0
27.0,-242.0,-76.0,-83.0,210.0,107.0,0
32.0,-249.0,-74.0,-75.0,231.0,96.0,0
33.0,-254.0,-80.0,-59.0,257.0,81.0,0
33.0,-258.0,-77.0,-35.0,286.0,68.0,0
34.0,-262.0,-81.0,-9.0,325.0,50.0,0
31.0,-265.0,-86.0,20.0,358.0,37.0,0
32.0,-269.0,-84.0,40.0,389.0,24.0,0
33.0,-272.0,-91.0,54.0,419.0,12.0,0
32.0,-273.0,-91.0,59.0,446.0,0.0,0
28.0,-273.0,-93.0,58.0,468.0,-8.0,0
29.0,-269.0,-96.0,47.0,490.0,-17.0,0
25.0,-270.0,-97.0,33.0,505.0,-21.0,0
20.0,-268.0,-99.0,20.0,518.0,-23.0,0
15.0,-263.0,-98.0,14.0,528.0,-18.0,0
13.0,-262.0,-99.0,18.0,535.0,-12.0,0
7.0,-261.0,-92.0,40.0,536.0,-1.0,0
5.0,-256.0,-92.0,72.0,533.0,7.0,0
4.0,-258.0,-91.0,114.0,532.0,19.0,0
-2.0,-258.0,-87.0,166.0,527.0,32.0,0
-1.0,-252.0,-83.0,226.0,523.0,49.0,0
-6.0,-250.0,-86.0,288.0,520.0,62.0,0
-7.0,-249.0,-79.0,349.0,513.0,75.0,0
-10.0,-250.0,-78.0,405.0,505.0,82.0,0
-12.0,-242.0,-79.0,457.0,493.0,89.0,0
-14.0,-240.0,-76.0,494.0,476.0,88.0,0
-12.0,-239.0,-75.0,520.0,458.0,85.0,0
-12.0,-236.0,-77.0,531.0,436.0,78.0,0
-10.0,-236.0,-73.0,528.0,416.0,67.0,0
-12.0,-233.0,-75.0,512.0,398.0,53.0,0
-11.0,-235.0,-68.0,489.0,383.0,43.0,0
-7.0,-237.0,-66.0,460.0,369.0,31.0,0
-7.0,-236.0,-63.0,429.0,357.0,21.0,0
-4.0,-240.0,-66.0,396.0,345.0,9.0,0
-4.0,-242.0,-60.0,358.0,331.0,2.0,0
-2.0,-240.0,-63.0,320.0,315.0,-7.0,0
-1.0,-244.0,-64.0,284.0,297.0,-10.0,0
2.0,-243.0,-64.0,246.0,274.0,-14.0,0
1.0,-240.0,-62.0,209.0,254.0,-14.0,0
1.0,-238.0,-66.0,185.0,233.0,-14.0,0
1.0,-238.0,-62.0,162.0,216.0,-6.0,0
1.0,-239.0,-68.0,148.0,198.0,-1.0,0
1.0,-237.0,-67.0,136.0,186.0,9.0,0
1.0,-236.0,-71.0,123.0,173.0,14.0,0
3.0,-236.0,-71.0,112.0,161.0,22.0,0
1.0,-237.0,-72.0,95.0,150.0,25.0,0
5.0,-238.0,-73.0,80.0,140.0,32.0,0
6.0,-242.0,-68.0,65.0,132.0,35.0,0
1.0,-244.0,-72.0,49.0,121.0,36.0,0
1.0,-247.0,-72.0,40.0,111.0,37.0,0
1.0,-252.0,-72.0,33.0,100.0,38.0,0
-2.0,-254.0,-72.0,30.0,89.0,36.0,0
-2.0,-255.0,-75.0,31.0,74.0,33.0,0
-3.0,-255.0,-73.0,37.0,61.0,28.0,0
-3.0,-259.0,-71.0,49.0,46.0,24.0,0
-4.0,-260.0,-75.0,66.0,35.0,15.0,0
-6.0,-258.0,-78.0,89.0,22.0,8.0,0
-2.0,-257.0,-73.0,112.0,9.0,-3.0,0
-6.0,-252.0,-74.0,135.0,-6.0,-14.0,0
-1.0,-253.0,-73.0,162.0,-20.0,-24.0,0
-3.0,-249.0,-71.0,178.0,-32.0,-33.0,0
-1.0,-247.0,-74.0,189.0,-46.0,-42.0,0
-2.0,-247.0,-74.0,193.0,-59.0,-48.0,0
2.0,-242.0,-78.0,187.0,-72.0,-56.0,0
2.0,-240.0,-73.0,177.0,-84.0,-58.0,0
6.0,-241.0,-72.0,159.0,-99.0,-60.0,0
7.0,-240.0,-73.0,137.0,-113.0,-59.0,0
10.0,-245.0,-71.0,115.0,-126.0,-60.0,0
9.0,-243.0,-73.0,91.0,-137.0,-56.0,0
12.0,-245.0,-70.0,68.0,-147.0,-50.0,0
13.0,-246.0,-74.0,49.0,-155.0,-45.0,0
11.0,-246.0,-72.0,37.0,-157.0,-40.0,0
12.0,-251.0,-74.0,28.0,-158.0,-35.0,0
13.0,-250.0,-72.0,21.0,-158.0,-33.0,0
12.0,-252.0,-73.0,19.0,-158.0,-27.0,0
12.0,-250.0,-72.0,19.0,-161.0,-26.0,0
10.0,-246.0,-76.0,23.0,-162.0,-21.0,0
11.0,-249.0,-70.0,27.0,-165.0,-20.0,0
10.0,-247.0,-74.0,34.0,-169.0,-15.0,0
12.0,-249.0,-72.0,38.0,-173.0,-12.0,0
8.0,-245.0,-70.0,42.0,-183.0,-10.0,0
9.0,-248.0,-68.0,45.0,-190.0,-8.0,0
9.0,-245.0,-70.0,42.0,-197.0,-7.0,0
9.0,-245.0,-71.0,38.0,-206.0,-4.0,0
7.0,-243.0,-71.0,31.0,-215.0,-2.0,0
9.0,-244.0,-69.0,21.0,-220.0,-1.0,0
8.0,-243.0,-70.0,11.0,-224.0,3.0,0
6.0,-241.0,-71.0,1.0,-223.0,1.0,0
10.0,-245.0,-72.0,-11.0,-220.0,3.0,0
8.0,-243.0,-65.0,-18.0,-214.0,1.0,0
9.0,-242.0,-67.0,-26.0,-204.0,0.0,0
10.0,-242.0,-70.0,-32.0,-192.0,-3.0,0
13.0,-242.0,-69.0,-40.0,-179.0,-5.0,0
14.0,-242.0,-72.0,-46.0,-162.0,-9.0,0
14.0,-239.0,-70.0,-56.0,-142.0,-12.0,0
17.0,-240.0,-68.0,-68.0,-124.0,-16.0,0
18.0,-245.0,-71.0,-84.0,-104.0,-20.0,0
18.0,-241.0,-68.0,-99.0,-87.0,-26.0,0
22.0,-246.0,-72.0,-113.0,-72.0,-30.0,0
22.0,-248.0,-72.0,-123.0,-56.0,-34.0,0
23.0,-244.0,-69.0,-127.0,-42.0,-37.0,0
27.0,-251.0,-67.0,-127.0,-26.0,-39.0,0
29.0,-253.0,-74.0,-118.0,-14.0,-39.0,0
31.0,-256.0,-69.0,-106.0,0.0,-41.0,0
34.0,-252.0,-70.0,-90.0,13.0,-40.0,0
32.0,-252.0,-73.0,-74.0,25.0,-40.0,0
33.0,-253.0,-72.0,-58.0,40.0,-36.0,0
35.0,-252.0,-70.0,-43.0,56.0,-34.0,0
35.0,-252.0,-76.0,-33.0,72.0,-28.0,0
28.0,-249.0,-72.0,-27.0,88.0,-26.0,0
30.0,-247.0,-77.0,-27.0,101.0,-23.0,0
30.0,-250.0,-73.0,-31.0,116.0,-20.0,0
22.0,-247.0,-71.0,-38.0,127.0,-18.0,0
24.0,-249.0,-72.0,-45.0,138.0,-14.0,0
23.0,-251.0,-69.0,-52.0,147.0,-12.0,0
16.0,-251.0,-71.0,-58.0,158.0,-10.0,0
18.0,-250.0,-73.0,-62.0,168.0,-9.0,0
13.0,-252.0,-73.0,-66.0,177.0,-9.0,0
12.0,-253.0,-72.0,-69.0,187.0,-7.0,0
8.0,-256.0,-73.0,-69.0,195.0,-5.0,0
8.0,-255.0,-72.0,-67.0,203.0,-3.0,0
8.0,-254.0,-69.0,-65.0,209.0,-3.0,0
5.0,-257.0,-70.0,-55.0,216.0,-2.0,0
5.0,-256.0,-72.0,-47.0,221.0,-1.0,0
5.0,-256.0,-74.0,-37.0,226.0,0.0,0
2.0,-254.0,-74.0,-28.0,228.0,0.0,0
2.0,-256.0,-75.0,-18.0,228.0,4.0,0
1.0,-257.0,-70.0,-7.0,224.0,5.0,0
-1.0,-255.0,-73.0,2.0,217.0,9.0,0
0.0,-255.0,-75.0,13.0,210.0,13.0,0
-2.0,-257.0,-73.0,24.0,199.0,17.0,0
-1.0,-253.0,-70.0,36.0,186.0,20.0,0
0.0,-253.0,-70.0,48.0,170.0,26.0,0
0.0,-253.0,-69.0,65.0,158.0,31.0,0
1.0,-254.0,-68.0,77.0,144.0,36.0,0
-2.0,-248.0,-68.0,90.0,133.0,41.0,0
-1.0,-249.0,-64.0,98.0,123.0,45.0,0
-1.0,-248.0,-63.0,104.0,113.0,48.0,0
-1.0,-246.0,-66.0,107.0,104.0,50.0,0
3.0,-248.0,-64.0,105.0,97.0,53.0,0
7.0,-246.0,-63.0,98.0,91.0,54.0,0
9.0,-246.0,-63.0,88.0,89.0,52.0,0
10.0,-245.0,-65.0,74.0,92.0,51.0,0
8.0,-244.0,-63.0,55.0,94.0,49.0,0
10.0,-245.0,-63.0,39.0,97.0,46.0,0
12.0,-244.0,-63.0,23.0,100.0,45.0,0
13.0,-246.0,-64.0,8.0,105.0,40.0,0
11.0,-246.0,-62.0,-4.0,112.0,38.0,0
12.0,-244.0,-64.0,-16.0,119.0,39.0,0
12.0,-247.0,-67.0,-27.0,128.0,40.0,0
11.0,-245.0,-68.0,-38.0,136.0,39.0,0
11.0,-245.0,-68.0,-50.0,145.0,38.0,0
10.0,-244.0,-70.0,-63.0,155.0,37.0,0
12.0,-246.0,-68.0,-75.0,161.0,37.0,0
12.0,-245.0,-67.0,-90.0,167.0,36.0,0
10.0,-247.0,-66.0,-99.0,171.0,35.0,0
10.0,-246.0,-68.0,-107.0,171.0,32.0,0
9.0,-245.0,-66.0,-115.0,169.0,31.0,0
8.0,-250.0,-68.0,-119.0,167.0,29.0,0
9.0,-250.0,-65.0,-123.0,164.0,26.0,0
7.0,-252.0,-68.0,-124.0,158.0,23.0,0
5.0,-252.0,-67.0,-121.0,155.0,20.0,0
5.0,-255.0,-69.0,-117.0,152.0,17.0,0
0.0,-253.0,-71.0,-111.0,151.0,12.0,0
2.0,-252.0,-70.0,-103.0,147.0,9.0,0
3.0,-255.0,-69.0,-89.0,142.0,8.0,0
2.0,-254.0,-72.0,-73.0,135.0,6.0,0
-2.0,-252.0,-68.0,-55.0,128.0,5.0,0
-1.0,-255.0,-64.0,-34.0,118.0,6.0,0
-2.0,-252.0,-70.0,-13.0,106.0,6.0,0
-5.0,-254.0,-71.0,8.0,93.0,7.0,0
-4.0,-252.0,-69.0,24.0,81.0,9.0,0
-4.0,-251.0,-68.0,38.0,67.0,11.0,0
-9.0,-245.0,-70.0,46.0,56.0,11.0,0
-7.0,-245.0,-66.0,49.0,44.0,12.0,0
-7.0,-245.0,-75.0,48.0,32.0,14.0,0
-8.0,-241.0,-68.0,41.0,22.0,16.0,0
-8.0,-241.0,-65.0,32.0,12.0,18.0,0
-4.0,-241.0,-68.0,19.0,3.0,18.0,0
-5.0,-238.0,-70.0,4.0,-7.0,17.0,0
-4.0,-239.0,-66.0,-12.0,-15.0,15.0,0
-7.0,-240.0,-59.0,-29.0,-23.0,13.0,0
-5.0,-242.0,-62.0,-44.0,-31.0,11.0,0
-6.0,-242.0,-59.0,-58.0,-39.0,8.0,0
-3.0,-242.0,-59.0,-71.0,-48.0,7.0,0
-7.0,-246.0,-56.0,-82.0,-58.0,4.0,0
-5.0,-244.0,-58.0,-95.0,-70.0,1.0,0
-2.0,-243.0,-57.0,-104.0,-83.0,-2.0,0
-5.0,-246.0,-56.0,-113.0,-97.0,-6.0,0
-5.0,-245.0,-57.0,-121.0,-111.0,-10.0,0
-7.0,-246.0,-54.0,-130.0,-125.0,-12.0,0
-6.0,-240.0,-59.0,-134.0,-136.0,-13.0,0
-8.0,-243.0,-58.0,-139.0,-150.0,-15.0,0
-7.0,-241.0,-56.0,-144.0,-158.0,-15.0,0
-7.0,-243.0,-58.0,-148.0,-165.0,-15.0,0
-7.0,-239.0,-58.0,-158.0,-168.0,-15.0,0
-6.0,-243.0,-58.0,-173.0,-171.0,-16.0,0
-7.0,-239.0,-61.0,-194.0,-172.0,-16.0,0
-8.0,-240.0,-60.0,-216.0,-174.0,-18.0,0
-6.0,-242.0,-59.0,-240.0,-174.0,-19.0,0
-3.0,-243.0,-64.0,-266.0,-176.0,-23.0,0
-2.0,-243.0,-62.0,-291.0,-178.0,-27.0,0
-7.0,-245.0,-64.0,-313.0,-183.0,-31.0,0
-5.0,-248.0,-61.0,-332.0,-189.0,-36.0,0
-3.0,-246.0,-66.0,-347.0,-195.0,-42.0,0
-4.0,-247.0,-67.0,-358.0,-205.0,-49.0,0
-5.0,-248.0,-69.0,-366.0,-215.0,-57.0,0
-5.0,-247.0,-71.0,-372.0,-228.0,-60.0,0
-5.0,-249.0,-74.0,-377.0,-240.0,-65.0,0
-2.0,-248.0,-77.0,-382.0,-251.0,-68.0,0
-4.0,-247.0,-81.0,-385.0,-260.0,-72.0,0
-3.0,-252.0,-83.0,-391.0,-268.0,-70.0,0
-1.0,-252.0,-82.0,-394.0,-272.0,-72.0,0
0.0,-253.0,-83.0,-398.0,-275.0,-69.0,0
1.0,-259.0,-89.0,-403.0,-274.0,-68.0,0
-1.0,-256.0,-88.0,-402.0,-276.0,-67.0,0
4.0,-259.0,-87.0,-396.0,-274.0,-66.0,0
3.0,-259.0,-84.0,-386.0,-274.0,-65.0,0
6.0,-260.0,-89.0,-363.0,-274.0,-66.0,0
5.0,-263.0,-93.0,-334.0,-273.0,-69.0,0
7.0,-262.0,-90.0,-298.0,-274.0,-74.0,0
11.0,-265.0,-89.0,-257.0,-272.0,-77.0,0
7.0,-263.0,-87.0,-213.0,-267.0,-83.0,0
10.0,-262.0,-92.0,-165.0,-263.0,-89.0,0
15.0,-264.0,-95.0,-118.0,-255.0,-97.0,0
11.0,-261.0,-99.0,-70.0,-251.0,-103.0,0
14.0,-258.0,-100.0,-27.0,-246.0,-111.0,0
15.0,-256.0,-97.0,12.0,-246.0,-117.0,0
14.0,-255.0,-97.0,52.0,-246.0,-123.0,0
11.0,-250.0,-102.0,77.0,-248.0,-125.0,0
16.0,-246.0,-93.0,97.0,-253.0,-125.0,0
16.0,-248.0,-92.0,113.0,-259.0,-120.0,0
13.0,-244.0,-87.0,120.0,-265.0,-117.0,0
16.0,-243.0,-89.0,120.0,-266.0,-109.0,0
17.0,-246.0,-87.0,112.0,-263.0,-101.0,0
15.0,-242.0,-83.0,98.0,-255.0,-92.0,0
16.0,-244.0,-79.0,79.0,-244.0,-86.0,0
17.0,-245.0,-75.0,60.0,-231.0,-79.0,0
16.0,-247.0,-74.0,35.0,-211.0,-77.0,0
20.0,-247.0,-70.0,13.0,-194.0,-76.0,0
19.0,-247.0,-61.0,-5.0,-173.0,-83.0,0
18.0,-242.0,-64.0,-19.0,-152.0,-89.0,0
21.0,-245.0,-62.0,-29.0,-131.0,-98.0,0
20.0,-245.0,-61.0,-35.0,-111.0,-105.0,0
23.0,-242.0,-58.0,-42.0,-91.0,-115.0,0
22.0,-243.0,-57.0,-47.0,-73.0,-122.0,0
19.0,-238.0,-62.0,-56.0,-57.0,-127.0,0
27.0,-238.0,-58.0,-69.0,-42.0,-129.0,0
23.0,-237.0,-62.0,-85.0,-23.0,-136.0,0
25.0,-237.0,-65.0,-103.0,-6.0,-134.0,0
27.0,-238.0,-59.0,-118.0,11.0,-134.0,0
27.0,-237.0,-62.0,-131.0,26.0,-128.0,0
25.0,-238.0,-67.0,-141.0,38.0,-124.0,0
26.0,-241.0,-63.0,-148.0,44.0,-116.0,0
23.0,-242.0,-66.0,-147.0,44.0,-106.0,0
20.0,-242.0,-73.0,-145.0,37.0,-91.0,0
17.0,-243.0,-73.0,-138.0,26.0,-77.0,0
17.0,-244.0,-74.0,-130.0,12.0,-60.0,0
17.0,-243.0,-77.0,-118.0,-2.0,-42.0,0
15.0,-244.0,-74.0,-102.0,-16.0,-19.0,0
13.0,-247.0,-75.0,-88.0,-26.0,-4.0,0
14.0,-246.0,-82.0,-73.0,-33.0,14.0,0
13.0,-246.0,-86.0,-60.0,-36.0,26.0,0
15.0,-248.0,-83.0,-46.0,-36.0,38.0,0
16.0,-247.0,-83.0,-33.0,-32.0,49.0,0
13.0,-246.0,-81.0,-21.0,-25.0,60.0,0
17.0,-243.0,-82.0,-6.0,-15.0,69.0,0
19.0,-246.0,-82.0,4.0,-1.0,77.0,0
21.0,-242.0,-79.0,17.0,12.0,86.0,0
22.0,-240.0,-81.0,33.0,27.0,97.0,0
27.0,-239.0,-82.0,52.0,49.0,100.0,0
28.0,-238.0,-80.0,71.0,68.0,106.0,0
29.0,-240.0,-80.0,92.0,89.0,107.0,0
29.0,-243.0,-78.0,109.0,106.0,109.0,0
31.0,-244.0,-80.0,124.0,116.0,107.0,0
33.0,-244.0,-78.0,132.0,120.0,105.0,0
31.0,-248.0,-79.0,138.0,125.0,102.0,0
30.0,-246.0,-79.0,142.0,125.0,102.0,0
26.0,-251.0,-81.0,147.0,125.0,98.0,0
26.0,-253.0,-81.0,152.0,127.0,94.0,0
24.0,-256.0,-80.0,157.0,128.0,89.0,0
21.0,-258.0,-88.0,165.0,134.0,89.0,0
17.0,-256.0,-84.0,170.0,139.0,90.0,0
16.0,-255.0,-85.0,173.0,148.0,94.0,0
14.0,-255.0,-87.0,176.0,162.0,96.0,0
10.0,-256.0,-86.0,180.0,179.0,100.0,0
10.0,-256.0,-86.0,186.0,196.0,103.0,0
7.0,-251.0,-82.0,195.0,213.0,107.0,0
9.0,-253.0,-81.0,207.0,232.0,106.0,0
6.0,-248.0,-81.0,220.0,249.0,105.0,0
8.0,-245.0,-77.0,236.0,265.0,101.0,0
9.0,-242.0,-73.0,258.0,275.0,99.0,0
10.0,-242.0,-75.0,272.0,281.0,94.0,0
6.0,-238.0,-70.0,283.0,279.0,90.0,0
4.0,-238.0,-65.0,289.0,277.0,81.0,0
4.0,-238.0,-66.0,287.0,270.0,76.0,0
8.0,-235.0,-64.0,281.0,262.0,68.0,0
3.0,-235.0,-67.0,269.0,256.0,64.0,0
3.0,-231.0,-65.0,250.0,248.0,58.0,0
2.0,-233.0,-71.0,221.0,241.0,57.0,0
3.0,-231.0,-71.0,186.0,236.0,55.0,0
4.0,-231.0,-74.0,135.0,230.0,58.0,0
6.0,-235.0,-83.0,89.0,229.0,58.0,0
7.0,-235.0,-82.0,40.0,231.0,61.0,0
9.0,-238.0,-84.0,-9.0,236.0,59.0,0
9.0,-238.0,-86.0,-61.0,242.0,57.0,0
11.0,-246.0,-88.0,-114.0,249.0,50.0,0
12.0,-245.0,-91.0,-164.0,258.0,46.0,0
15.0,-251.0,-93.0,-214.0,267.0,38.0,0
12.0,-251.0,-91.0,-251.0,274.0,34.0,0
14.0,-253.0,-95.0,-275.0,278.0,27.0,0
12.0,-253.0,-92.0,-285.0,280.0,26.0,0
12.0,-257.0,-93.0,-282.0,282.0,20.0,0
10.0,-256.0,-87.0,-272.0,279.0,20.0,0
13.0,-260.0,-89.0,-256.0,276.0,13.0,0
13.0,-260.0,-90.0,-233.0,273.0,12.0,0
13.0,-262.0,-81.0,-204.0,271.0,8.0,0
10.0,-260.0,-81.0,-170.0,270.0,8.0,0
9.0,-261.0,-79.0,-131.0,269.0,6.0,0
5.0,-259.0,-77.0,-87.0,271.0,6.0,0
8.0,-261.0,-80.0,-43.0,271.0,1.0,0
4.0,-260.0,-81.0,3.0,271.0,-1.0,0
2.0,-258.0,-82.0,54.0,271.0,-4.0,0
1.0,-257.0,-77.0,96.0,271.0,-3.0,0
-1.0,-250.0,-75.0,136.0,266.0,-6.0,0
-4.0,-246.0,-75.0,173.0,258.0,-2.0,0
-3.0,-244.0,-69.0,200.0,247.0,-1.0,0
-2.0,-242.0,-73.0,216.0,235.0,2.0,0
-4.0,-240.0,-65.0,222.0,220.0,2.0,0
-5.0,-239.0,-69.0,217.0,203.0,5.0,0
-8.0,-234.0,-63.0,205.0,186.0,6.0,0
-4.0,-231.0,-66.0,183.0,170.0,11.0,0
-6.0,-233.0,-64.0,154.0,152.0,13.0,0
-6.0,-236.0,-64.0,110.0,138.0,19.0,0
-6.0,-234.0,-64.0,66.0,124.0,19.0,0
-5.0,-236.0,-62.0,22.0,113.0,22.0,0
-5.0,-238.0,-62.0,-21.0,101.0,20.0,0
-5.0,-241.0,-64.0,-58.0,91.0,21.0,0
-3.0,-240.0,-59.0,-87.0,82.0,18.0,0
-2.0,-244.0,-64.0,-110.0,73.0,17.0,0
-4.0,-245.0,-61.0,-122.0,66.0,13.0,0
-2.0,-247.0,-62.0,-127.0,61.0,13.0,0
-2.0,-246.0,-65.0,-127.0,56.0,7.0,0
1.0,-248.0,-67.0,-119.0,56.0,8.0,0
1.0,-249.0,-67.0,-108.0,57.0,6.0,0
2.0,-245.0,-68.0,-100.0,61.0,5.0,0
3.0,-250.0,-74.0,-91.0,64.0,-1.0,0
2.0,-249.0,-77.0,-85.0,71.0,-4.0,0
7.0,-248.0,-78.0,-82.0,76.0,-11.0,0
4.0,-250.0,-78.0,-80.0,79.0,-13.0,0
2.0,-245.0,-80.0,-79.0,81.0,-18.0,0
7.0,-250.0,-79.0,-78.0,83.0,-20.0,0
7.0,-248.0,-79.0,-77.0,83.0,-26.0,0
5.0,-250.0,-79.0,-73.0,81.0,-28.0,0
4.0,-251.0,-74.0,-69.0,78.0,-34.0,0
4.0,-252.0,-77.0,-63.0,75.0,-31.0,0
4.0,-249.0,-75.0,-56.0,72.0,-35.0,0
6.0,-252.0,-80.0,-49.0,68.0,-32.0,0
1.0,-251.0,-72.0,-41.0,65.0,-34.0,0
4.0,-249.0,-77.0,-39.0,58.0,-31.0,0
3.0,-251.0,-75.0,-34.0,53.0,-31.0,0
2.0,-247.0,-84.0,-33.0,48.0,-26.0,0
8.0,-245.0,-75.0,-32.0,42.0,-25.0,0
0.0,-258.0,-75.0,-30.0,36.0,-19.0,0
-4.0,-254.0,-79.0,-26.0,32.0,-17.0,0
-2.0,-248.0,-74.0,-23.0,30.0,-15.0,0
-3.0,-244.0,-90.0,-20.0,26.0,-13.0,0
2.0,-238.0,-92.0,-17.0,23.0,-10.0,0
3.0,-253.0,-79.0,-13.0,17.0,-12.0,0
5.0,-242.0,-76.0,-7.0,11.0,-9.0,0
2.0,-250.0,-79.0,-2.0,7.0,-10.0,0
2.0,-248.0,-75.0,2.0,2.0,-9.0,0
1.0,-244.0,-78.0,3.0,-1.0,-11.0,0
2.0,-247.0,-74.0,3.0,-5.0,-10.0,0
0.0,-247.0,-73.0,1.0,-9.0,-14.0,0
-3.0,-246.0,-77.0,-2.0,-12.0,-14.0,0
-2.0,-250.0,-73.0,-6.0,-15.0,-17.0,0
-2.0,-247.0,-73.0,-11.0,-20.0,-16.0,0
-3.0,-248.0,-73.0,-15.0,-23.0,-19.0,0
-5.0,-249.0,-73.0,-19.0,-28.0,-15.0,0
-3.0,-250.0,-78.0,-22.0,-30.0,-16.0,0
-4.0,-251.0,-75.0,-26.0,-35.0,-14.0,0
-5.0,-250.0,-77.0,-27.0,-38.0,-17.0,0
-2.0,-252.0,-74.0,-24.0,-41.0,-14.0,0
-4.0,-248.0,-76.0,-21.0,-45.0,-15.0,0
-3.0,-250.0,-79.0,-12.0,-45.0,-12.0,0
-4.0,-248.0,-79.0,-2.0,-46.0,-15.0,0
-3.0,-248.0,-76.0,9.0,-48.0,-13.0,0
-3.0,-245.0,-77.0,18.0,-47.0,-15.0,0
0.0,-247.0,-82.0,27.0,-47.0,-13.0,0
-3.0,-246.0,-80.0,34.0,-48.0,-17.0,0
1.0,-248.0,-77.0,38.0,-50.0,-14.0,0
1.0,-247.0,-79.0,42.0,-55.0,-15.0,0
2.0,-249.0,-77.0,46.0,-60.0,-10.0,0
1.0,-248.0,-76.0,47.0,-67.0,-11.0,0
4.0,-247.0,-76.0,50.0,-73.0,-6.0,0
7.0,-250.0,-76.0,54.0,-74.0,-6.0,0
2.0,-249.0,-73.0,56.0,-75.0,-1.0,0
4.0,-253.0,-75.0,60.0,-75.0,-4.0,0
6.0,-251.0,-77.0,65.0,-74.0,1.0,0
4.0,-249.0,-75.0,69.0,-72.0,0.0,0
5.0,-249.0,-72.0,74.0,-71.0,3.0,0
5.0,-247.0,-76.0,79.0,-69.0,1.0,0
7.0,-246.0,-77.0,83.0,-66.0,4.0,0
9.0,-249.0,-77.0,86.0,-65.0,3.0,0
8.0,-242.0,-76.0,87.0,-62.0,6.0,0
9.0,-247.0,-72.0,86.0,-58.0,5.0,0
7.0,-243.0,-77.0,82.0,-54.0,9.0,0
10.0,-244.0,-74.0,77.0,-49.0,5.0,0
9.0,-244.0,-73.0,71.0,-43.0,9.0,0
7.0,-243.0,-73.0,65.0,-38.0,7.0,0
7.0,-245.0,-78.0,56.0,-33.0,10.0,0
9.0,-245.0,-72.0,49.0,-26.0,7.0,0
9.0,-249.0,-73.0,43.0,-19.0,8.0,0
10.0,-251.0,-75.0,37.0,-12.0,5.0,0
9.0,-248.0,-74.0,32.0,-6.0,6.0,0
6.0,-244.0,-80.0,30.0,2.0,4.0,0
7.0,-245.0,-78.0,24.0,12.0,6.0,0
5.0,-247.0,-80.0,14.0,25.0,2.0,0
11.0,-245.0,-84.0,0.0,40.0,4.0,0
9.0,-241.0,-84.0,-21.0,56.0,1.0,0
12.0,-243.0,-87.0,-45.0,72.0,3.0,0
9.0,-239.0,-84.0,-69.0,85.0,-1.0,0
10.0,-242.0,-82.0,-92.0,94.0,0.0,0
10.0,-244.0,-81.0,-116.0,101.0,-5.0,0
9.0,-240.0,-83.0,-136.0,102.0,-4.0,0
11.0,-238.0,-80.0,-158.0,97.0,-11.0,0
6.0,-235.0,-78.0,-182.0,84.0,-10.0,0
9.0,-236.0,-77.0,-204.0,71.0,-14.0,0
8.0,-234.0,-77.0,-226.0,61.0,-12.0,0
7.0,-234.0,-80.0,-252.0,51.0,-16.0,0
6.0,-236.0,-83.0,-280.0,48.0,-15.0,0
5.0,-234.0,-85.0,-312.0,48.0,-17.0,0
10.0,-238.0,-82.0,-347.0,50.0,-17.0,0
5.0,-234.0,-84.0,-383.0,56.0,-19.0,0
7.0,-239.0,-83.0,-415.0,63.0,-17.0,0
10.0,-241.0,-79.0,-445.0,71.0,-20.0,0
10.0,-244.0,-79.0,-468.0,79.0,-17.0,0
9.0,-249.0,-76.0,-487.0,87.0,-20.0,0
7.0,-253.0,-75.0,-495.0,93.0,-17.0,0
11.0,-257.0,-72.0,-491.0,98.0,-18.0,0
11.0,-262.0,-75.0,-474.0,100.0,-14.0,0
9.0,-263.0,-79.0,-446.0,103.0,-15.0,0
10.0,-266.0,-74.0,-405.0,105.0,-10.0,0
11.0,-268.0,-81.0,-355.0,106.0,-11.0,0
13.0,-267.0,-80.0,-297.0,107.0,-5.0,0
12.0,-265.0,-81.0,-237.0,109.0,-2.0,0
11.0,-261.0,-88.0,-170.0,113.0,4.0,0
12.0,-261.0,-85.0,-93.0,116.0,5.0,0
13.0,-258.0,-90.0,-30.0,118.0,8.0,0
11.0,-254.0,-91.0,28.0,120.0,8.0,0
13.0,-255.0,-93.0,77.0,122.0,8.0,0
11.0,-247.0,-95.0,111.0,122.0,2.0,0
13.0,-247.0,-95.0,133.0,120.0,0.0,0
13.0,-243.0,-96.0,137.0,120.0,-6.0,0
13.0,-238.0,-90.0,131.0,119.0,-6.0,0
14.0,-238.0,-94.0,111.0,120.0,-13.0,0
14.0,-233.0,-89.0,83.0,124.0,-17.0,0
14.0,-233.0,-91.0,42.0,130.0,-22.0,0
11.0,-228.0,-92.0,6.0,132.0,-24.0,0
12.0,-231.0,-89.0,-31.0,137.0,-29.0,0
9.0,-226.0,-96.0,-69.0,142.0,-32.0,0
14.0,-226.0,-89.0,-104.0,147.0,-38.0,0
12.0,-222.0,-89.0,-138.0,155.0,-38.0,0
11.0,-221.0,-91.0,-167.0,164.0,-43.0,0
13.0,-219.0,-87.0,-196.0,173.0,-42.0,0
13.0,-218.0,-89.0,-218.0,184.0,-45.0,0
16.0,-217.0,-86.0,-234.0,196.0,-43.0,0
13.0,-213.0,-93.0,-241.0,213.0,-43.0,0
13.0,-212.0,-85.0,-243.0,231.0,-37.0,0
20.0,-208.0,-89.0,-239.0,251.0,-35.0,0
21.0,-205.0,-89.0,-236.0,270.0,-29.0,0
16.0,-198.0,-91.0,-231.0,289.0,-26.0,0
22.0,-194.0,-93.0,-229.0,308.0,-16.0,0
25.0,-189.0,-97.0,-232.0,329.0,-9.0,0
22.0,-176.0,-101.0,-236.0,351.0,5.0,0
25.0,-165.0,-99.0,-247.0,372.0,15.0,0
29.0,-157.0,-108.0,-265.0,393.0,34.0,0
29.0,-150.0,-109.0,-289.0,413.0,51.0,0
30.0,-134.0,-105.0,-324.0,433.0,71.0,0
31.0,-125.0,-110.0,-359.0,449.0,88.0,0
32.0,-105.0,-109.0,-396.0,467.0,111.0,0
34.0,-95.0,-109.0,-440.0,481.0,127.0,0
34.0,-82.0,-103.0,-484.0,495.0,146.0,0
35.0,-69.0,-96.0,-527.0,512.0,157.0,0
36.0,-57.0,-89.0,-569.0,528.0,170.0,0
33.0,-51.0,-82.0,-604.0,543.0,173.0,0
33.0,-47.0,-67.0,-635.0,561.0,176.0,0
29.0,-38.0,-58.0,-661.0,573.0,169.0,0
27.0,-35.0,-48.0,-681.0,571.0,154.0,0
20.0,-38.0,-34.0,-694.0,553.0,130.0,0
10.0,-31.0,-25.0,-697.0,520.0,102.0,0
5.0,-39.0,-15.0,-692.0,475.0,64.0,0
-2.0,-43.0,-11.0,-682.0,419.0,32.0,0
-11.0,-51.0,-3.0,-666.0,358.0,1.0,0
-12.0,-64.0,-6.0,-654.0,299.0,-12.0,0
-17.0,-79.0,-6.0,-652.0,250.0,-18.0,0
-21.0,-97.0,-9.0,-669.0,204.0,-14.0,0
-20.0,-113.0,-18.0,-695.0,164.0,-10.0,0
-22.0,-134.0,-24.0,-717.0,127.0,-5.0,0
-27.0,-149.0,-33.0,-723.0,88.0,-10.0,0
-26.0,-164.0,-37.0,-725.0,55.0,-13.0,0
-33.0,-189.0,-47.0,-726.0,28.0,-17.0,0
-41.0,-205.0,-67.0,-732.0,5.0,-11.0,0
-45.0,-240.0,-74.0,-747.0,-11.0,-2.0,0
-51.0,-272.0,-100.0,-767.0,-18.0,17.0,0
-54.0,-306.0,-121.0,-818.0,-25.0,40.0,0
-46.0,-343.0,-144.0,-908.0,-31.0,73.0,0
-32.0,-385.0,-167.0,-1041.0,-34.0,96.0,0
-13.0,-413.0,-185.0,-1239.0,-15.0,115.0,0
19.0,-456.0,-207.0,-1569.0,55.0,118.0,0
49.0,-497.0,-226.0,-1902.0,150.0,105.0,0
64.0,-544.0,-239.0,-2248.0,265.0,83.0,0
71.0,-592.0,-244.0,-2551.0,393.0,73.0,0
67.0,-651.0,-250.0,-2738.0,508.0,82.0,0
59.0,-706.0,-262.0,-2767.0,585.0,101.0,0
52.0,-753.0,-283.0,-2618.0,599.0,112.0,0
49.0,-786.0,-309.0,-2302.0,554.0,128.0,0
35.0,-821.0,-339.0,-1850.0,459.0,134.0,0
23.0,-839.0,-372.0,-1298.0,343.0,143.0,0
5.0,-842.0,-395.0,-683.0,234.0,173.0,0
0.0,-837.0,-403.0,88.0,160.0,229.0,0
-3.0,-813.0,-404.0,702.0,155.0,275.0,0
-7.0,-786.0,-393.0,1228.0,201.0,313.0,0
-11.0,-758.0,-371.0,1618.0,284.0,336.0,0
-14.0,-727.0,-350.0,1855.0,375.0,347.0,0
-17.0,-693.0,-321.0,1952.0,441.0,328.0,0
-23.0,-651.0,-285.0,1944.0,469.0,289.0,0
-26.0,-608.0,-252.0,1861.0,460.0,227.0,0
-25.0,-569.0,-229.0,1738.0,420.0,161.0,0
-21.0,-527.0,-211.0,1607.0,369.0,90.0,0
-16.0,-489.0,-199.0,1490.0,317.0,9.0,0
-10.0,-454.0,-193.0,1389.0,298.0,-59.0,0
-7.0,-421.0,-193.0,1330.0,306.0,-120.0,0
2.0,-384.0,-197.0,1280.0,342.0,-175.0,0
8.0,-343.0,-197.0,1231.0,397.0,-218.0,0
12.0,-305.0,-195.0,1178.0,458.0,-251.0,0
14.0,-263.0,-191.0,1127.0,514.0,-271.0,0
18.0,-223.0,-184.0,1092.0,551.0,-287.0,0
14.0,-185.0,-175.0,1086.0,559.0,-294.0,0
21.0,-148.0,-160.0,1112.0,539.0,-300.0,0
22.0,-124.0,-151.0,1171.0,487.0,-300.0,0
20.0,-86.0,-135.0,1289.0,403.0,-297.0,0
22.0,-50.0,-117.0,1422.0,336.0,-285.0,0
26.0,-16.0,-97.0,1574.0,283.0,-286.0,0
21.0,28.0,-72.0,1766.0,262.0,-309.0,0
16.0,54.0,-63.0,1985.0,258.0,-343.0,0
12.0,66.0,-64.0,2127.0,237.0,-321.0,0
2.0,78.0,-66.0,2120.0,193.0,-247.0,0
0.0,81.0,-56.0,1964.0,130.0,-139.0,0
-6.0,85.0,-44.0,1706.0,52.0,-31.0,0
-10.0,79.0,-27.0,1395.0,-30.0,72.0,0
-9.0,71.0,-15.0,1069.0,-120.0,165.0,0
-12.0,63.0,2.0,694.0,-175.0,230.0,0
-12.0,55.0,4.0,409.0,-201.0,282.0,0
-11.0,46.0,6.0,153.0,-203.0,322.0,0
-11.0,40.0,1.0,-64.0,-191.0,342.0,0
-12.0,39.0,-9.0,-210.0,-175.0,354.0,0
-12.0,43.0,-18.0,-294.0,-158.0,353.0,0
-9.0,46.0,-35.0,-336.0,-141.0,345.0,0
-2.0,54.0,-47.0,-345.0,-123.0,325.0,0
3.0,61.0,-56.0,-329.0,-100.0,307.0,0
12.0,77.0,-65.0,-300.0,-72.0,276.0,0
10.0,90.0,-73.0,-264.0,-38.0,249.0,0
14.0,99.0,-77.0,-257.0,-19.0,222.0,0
8.0,103.0,-83.0,-294.0,-13.0,194.0,0
7.0,103.0,-79.0,-387.0,-17.0,163.0,0
2.0,93.0,-78.0,-533.0,-33.0,143.0,0
-1.0,76.0,-73.0,-712.0,-57.0,124.0,0
-6.0,59.0,-59.0,-899.0,-88.0,112.0,0
-10.0,36.0,-49.0,-1062.0,-122.0,103.0,0
-14.0,11.0,-42.0,-1180.0,-161.0,100.0,0
-14.0,-7.0,-33.0,-1240.0,-202.0,100.0,0
-14.0,-33.0,-23.0,-1241.0,-253.0,113.0,0
-21.0,-54.0,-18.0,-1189.0,-293.0,126.0,0
-21.0,-73.0,-11.0,-1086.0,-329.0,145.0,0
-16.0,-92.0,-7.0,-935.0,-358.0,160.0,0
-13.0,-101.0,-9.0,-744.0,-376.0,175.0,0
-10.0,-111.0,-10.0,-516.0,-387.0,178.0,0
-8.0,-109.0,-14.0,-262.0,-389.0,177.0,0
-4.0,-109.0,-21.0,5.0,-384.0,163.0,0
1.0,-94.0,-25.0,272.0,-372.0,148.0,0
4.0,-83.0,-32.0,529.0,-361.0,124.0,0
4.0,-64.0,-37.0,765.0,-346.0,102.0,0
10.0,-46.0,-48.0,997.0,-330.0,86.0,0
10.0,-35.0,-50.0,1126.0,-314.0,71.0,0
7.0,-21.0,-57.0,1189.0,-299.0,54.0,0
5.0,-10.0,-65.0,1188.0,-288.0,44.0,0
9.0,-5.0,-69.0,1130.0,-283.0,32.0,0
12.0,-9.0,-73.0,1019.0,-287.0,13.0,0
10.0,-14.0,-76.0,863.0,-302.0,-16.0,0
4.0,-24.0,-78.0,683.0,-327.0,-37.0,0
4.0,-41.0,-74.0,496.0,-363.0,-51.0,0
-9.0,-59.0,-73.0,315.0,-401.0,-52.0,0
-17.0,-91.0,-68.0,102.0,-430.0,-35.0,0
-32.0,-122.0,-77.0,-66.0,-420.0,3.0,0
-40.0,-157.0,-83.0,-234.0,-369.0,58.0,0
-50.0,-198.0,-117.0,-431.0,-286.0,126.0,0
-51.0,-243.0,-157.0,-706.0,-177.0,194.0,0
-35.0,-299.0,-205.0,-1135.0,-77.0,258.0,0
5.0,-358.0,-210.0,-1742.0,-9.0,292.0,0
50.0,-429.0,-184.0,-2407.0,34.0,279.0,0
78.0,-540.0,-161.0,-2996.0,119.0,194.0,0
88.0,-702.0,-121.0,-3429.0,287.0,92.0,0
113.0,-876.0,-118.0,-3553.0,576.0,25.0,0
176.0,-1080.0,-374.0,-3442.0,696.0,-21.0,0
227.0,-1172.0,-710.0,-4007.0,552.0,-186.0,0
251.0,-1214.0,-810.0,-5298.0,248.0,-430.0,0
228.0,-1188.0,-681.0,-6216.0,47.0,-617.0,0
183.0,-1194.0,-542.0,-5530.0,218.0,-561.0,0
123.0,-1247.0,-413.0,-3214.0,757.0,-221.0,0
63.0,-1206.0,-320.0,2.0,1325.0,215.0,0
22.0,-1117.0,-290.0,3286.0,1549.0,557.0,0
-27.0,-960.0,-272.0,5915.0,1399.0,732.0,0
-69.0,-773.0,-242.0,7498.0,1091.0,713.0,0
-116.0,-576.0,-172.0,8010.0,691.0,581.0,0
-165.0,-386.0,-112.0,7684.0,227.0,465.0,0
-182.0,-222.0,-76.0,7161.0,-261.0,433.0,0
-169.0,-96.0,-50.0,6715.0,-538.0,433.0,0
-141.0,15.0,-17.0,6437.0,-533.0,427.0,0
-118.0,126.0,83.0,6386.0,-345.0,379.0,0
-95.0,257.0,75.0,6877.0,-63.0,207.0,0
-94.0,358.0,-59.0,7324.0,114.0,-24.0,0
-105.0,420.0,-134.0,7001.0,199.0,-138.0,0
-108.0,450.0,-184.0,5843.0,223.0,-95.0,0
-100.0,459.0,-219.0,4048.0,154.0,42.0,0
-98.0,441.0,-230.0,1432.0,29.0,88.0,0
-93.0,385.0,-217.0,-814.0,-104.0,42.0,0
-85.0,323.0,-189.0,-2902.0,-210.0,-62.0,0
-68.0,221.0,-104.0,-4672.0,-274.0,-194.0,0
-45.0,93.0,22.0,-5833.0,-316.0,-347.0,0
-9.0,-28.0,76.0,-6278.0,-350.0,-489.0,0
32.0,-135.0,90.0,-6174.0,-321.0,-616.0,0
68.0,-213.0,78.0,-5745.0,-207.0,-703.0,0
101.0,-269.0,58.0,-5189.0,-15.0,-745.0,0
118.0,-305.0,26.0,-4597.0,223.0,-734.0,0
122.0,-316.0,2.0,-3890.0,527.0,-681.0,0
120.0,-317.0,-33.0,-3327.0,759.0,-599.0,0
106.0,-304.0,-58.0,-2784.0,937.0,-511.0,0
96.0,-286.0,-89.0,-2260.0,1038.0,-437.0,0
84.0,-263.0,-119.0,-1761.0,1055.0,-401.0,0
76.0,-246.0,-141.0,-1313.0,999.0,-388.0,0
67.0,-227.0,-163.0,-935.0,874.0,-381.0,0
56.0,-216.0,-185.0,-636.0,703.0,-361.0,0
53.0,-214.0,-189.0,-420.0,485.0,-325.0,0
47.0,-219.0,-202.0,-268.0,240.0,-264.0,0
40.0,-236.0,-207.0,-169.0,-55.0,-170.0,0
31.0,-254.0,-209.0,-101.0,-272.0,-77.0,0
20.0,-273.0,-201.0,-65.0,-442.0,21.0,0
14.0,-303.0,-203.0,-29.0,-555.0,120.0,0
4.0,-340.0,-196.0,5.0,-604.0,215.0,0
-7.0,-371.0,-186.0,25.0,-594.0,297.0,0
-15.0,-398.0,-188.0,30.0,-535.0,346.0,0
-36.0,-423.0,-178.0,24.0,-449.0,362.0,0
-47.0,-449.0,-171.0,28.0,-350.0,348.0,0
-58.0,-458.0,-166.0,53.0,-256.0,309.0,0
-63.0,-454.0,-155.0,131.0,-164.0,248.0,0
-66.0,-440.0,-144.0,330.0,-112.0,200.0,0
-67.0,-406.0,-132.0,593.0,-74.0,173.0,0
-49.0,-385.0,-123.0,936.0,-46.0,168.0,0
-31.0,-346.0,-107.0,1332.0,-41.0,152.0,0
-25.0,-303.0,-87.0,1739.0,-39.0,133.0,0
-23.0,-257.0,-75.0,2128.0,-44.0,122.0,0
-24.0,-211.0,-67.0,2452.0,-67.0,128.0,0
-23.0,-164.0,-56.0,2651.0,-119.0,153.0,0
-19.0,-126.0,-56.0,2697.0,-183.0,196.0,0
-10.0,-92.0,-54.0,2588.0,-252.0,246.0,0
-3.0,-70.0,-54.0,2270.0,-320.0,279.0,0
7.0,-54.0,-55.0,1886.0,-357.0,301.0,0
21.0,-46.0,-57.0,1428.0,-375.0,311.0,0
29.0,-49.0,-59.0,925.0,-375.0,305.0,0
39.0,-63.0,-65.0,408.0,-362.0,286.0,0
50.0,-96.0,-70.0,-102.0,-341.0,235.0,0
54.0,-132.0,-73.0,-593.0,-308.0,153.0,0
51.0,-169.0,-76.0,-1044.0,-267.0,51.0,0
50.0,-195.0,-69.0,-1424.0,-218.0,-34.0,0
51.0,-227.0,-70.0,-1708.0,-163.0,-96.0,0
51.0,-256.0,-73.0,-1887.0,-98.0,-154.0,0
51.0,-283.0,-83.0,-1970.0,-41.0,-195.0,0
47.0,-308.0,-88.0,-1942.0,23.0,-236.0,0
44.0,-322.0,-99.0,-1843.0,93.0,-273.0,0
38.0,-327.0,-115.0,-1690.0,167.0,-305.0,0
30.0,-330.0,-121.0,-1491.0,243.0,-334.0,0
26.0,-330.0,-127.0,-1270.0,316.0,-355.0,0
18.0,-326.0,-126.0,-1029.0,381.0,-366.0,0
9.0,-324.0,-125.0,-777.0,432.0,-364.0,0
-1.0,-318.0,-121.0,-525.0,466.0,-347.0,0
-7.0,-310.0,-118.0,-286.0,474.0,-301.0,0
-12.0,-306.0,-111.0,-27.0,442.0,-249.0,0
-16.0,-295.0,-101.0,169.0,388.0,-189.0,0
-22.0,-282.0,-90.0,349.0,314.0,-124.0,0
-27.0,-274.0,-86.0,512.0,229.0,-60.0,0
-28.0,-264.0,-83.0,658.0,143.0,2.0,0
-27.0,-258.0,-79.0,780.0,59.0,64.0,0
-28.0,-243.0,-80.0,871.0,-19.0,122.0,0
-28.0,-232.0,-77.0,929.0,-85.0,173.0,0
-29.0,-223.0,-77.0,947.0,-140.0,214.0,0
-28.0,-214.0,-77.0,922.0,-182.0,239.0,0
-29.0,-211.0,-77.0,854.0,-221.0,249.0,0
-31.0,-204.0,-69.0,722.0,-248.0,246.0,0
-27.0,-203.0,-67.0,581.0,-271.0,233.0,0
-26.0,-205.0,-61.0,425.0,-290.0,212.0,0
-21.0,-206.0,-56.0,271.0,-304.0,186.0,0
-18.0,-214.0,-56.0,129.0,-309.0,157.0,0
-17.0,-217.0,-52.0,10.0,-309.0,128.0,0
-15.0,-225.0,-52.0,-83.0,-309.0,95.0,0
-13.0,-232.0,-58.0,-148.0,-311.0,64.0,0
-13.0,-236.0,-57.0,-187.0,-314.0,34.0,0
-10.0,-240.0,-61.0,-202.0,-317.0,0.0,0
-10.0,-245.0,-66.0,-195.0,-324.0,-24.0,0
-12.0,-245.0,-68.0,-168.0,-329.0,-44.0,0
-7.0,-248.0,-75.0,-131.0,-333.0,-61.0,0
-8.0,-251.0,-79.0,-86.0,-330.0,-73.0,0
-5.0,-249.0,-82.0,-46.0,-324.0,-82.0,0
-5.0,-247.0,-86.0,-13.0,-315.0,-88.0,0
-1.0,-250.0,-91.0,9.0,-302.0,-90.0,0
2.0,-252.0,-91.0,16.0,-292.0,-89.0,0
1.0,-254.0,-91.0,11.0,-281.0,-88.0,0
7.0,-255.0,-92.0,-1.0,-270.0,-83.0,0
8.0,-258.0,-95.0,-13.0,-260.0,-78.0,0
10.0,-259.0,-92.0,-31.0,-252.0,-70.0,0
12.0,-259.0,-88.0,-38.0,-243.0,-66.0,0
12.0,-261.0,-83.0,-36.0,-236.0,-62.0,0
16.0,-263.0,-82.0,-25.0,-228.0,-60.0,0
16.0,-260.0,-84.0,0.0,-219.0,-58.0,0
17.0,-261.0,-81.0,35.0,-211.0,-59.0,0
22.0,-261.0,-81.0,81.0,-207.0,-58.0,0
20.0,-260.0,-82.0,135.0,-207.0,-57.0,0
21.0,-259.0,-78.0,190.0,-208.0,-55.0,0
22.0,-257.0,-77.0,248.0,-209.0,-52.0,0
24.0,-257.0,-77.0,313.0,-211.0,-46.0,0
25.0,-254.0,-78.0,361.0,-213.0,-41.0,0
25.0,-248.0,-77.0,402.0,-212.0,-36.0,0
24.0,-245.0,-77.0,435.0,-212.0,-32.0,0
22.0,-243.0,-78.0,454.0,-207.0,-29.0,0
22.0,-239.0,-73.0,463.0,-200.0,-25.0,0
23.0,-235.0,-71.0,458.0,-192.0,-23.0,0
19.0,-233.0,-78.0,439.0,-179.0,-21.0,0
18.0,-231.0,-70.0,407.0,-162.0,-20.0,0
15.0,-226.0,-72.0,363.0,-143.0,-19.0,0
11.0,-228.0,-72.0,296.0,-120.0,-19.0,0
11.0,-230.0,-70.0,233.0,-100.0,-21.0,0
8.0,-229.0,-72.0,164.0,-82.0,-25.0,0
6.0,-229.0,-77.0,95.0,-65.0,-29.0,0
3.0,-233.0,-75.0,29.0,-52.0,-34.0,0
-1.0,-236.0,-76.0,-33.0,-43.0,-38.0,0
-2.0,-238.0,-80.0,-85.0,-37.0,-40.0,0
-2.0,-240.0,-75.0,-124.0,-33.0,-45.0,0
-4.0,-242.0,-80.0,-153.0,-29.0,-49.0,0
-5.0,-243.0,-80.0,-165.0,-29.0,-52.0,0
-1.0,-250.0,-81.0,-167.0,-30.0,-54.0,0
-5.0,-249.0,-77.0,-159.0,-30.0,-58.0,0
-2.0,-252.0,-75.0,-140.0,-32.0,-58.0,0
-5.0,-251.0,-80.0,-118.0,-34.0,-59.0,0
-2.0,-252.0,-77.0,-94.0,-35.0,-57.0,0
-3.0,-252.0,-77.0,-65.0,-37.0,-56.0,0
-1.0,-254.0,-78.0,-38.0,-36.0,-53.0,0
-1.0,-252.0,-80.0,-12.0,-36.0,-50.0,0
0.0,-253.0,-80.0,11.0,-32.0,-44.0,0
4.0,-253.0,-82.0,30.0,-28.0,-40.0,0
3.0,-249.0,-82.0,45.0,-22.0,-32.0,0
3.0,-252.0,-77.0,61.0,-13.0,-27.0,0
4.0,-248.0,-81.0,71.0,-6.0,-19.0,0
7.0,-247.0,-81.0,78.0,1.0,-13.0,0
8.0,-249.0,-74.0,85.0,8.0,-5.0,0
11.0,-248.0,-77.0,93.0,18.0,1.0,0
15.0,-246.0,-76.0,100.0,30.0,9.0,0
15.0,-247.0,-80.0,104.0,42.0,14.0,0
15.0,-245.0,-79.0,105.0,54.0,23.0,0
15.0,-246.0,-78.0,104.0,67.0,29.0,0
15.0,-244.0,-77.0,97.0,80.0,35.0,0
18.0,-242.0,-69.0,91.0,94.0,41.0,0
25.0,-243.0,-84.0,80.0,106.0,48.0,0
18.0,-239.0,-72.0,67.0,117.0,51.0,0
14.0,-248.0,-78.0,54.0,127.0,56.0,0
12.0,-234.0,-76.0,40.0,139.0,57.0,0
3.0,-252.0,-73.0,27.0,151.0,61.0,0
19.0,-256.0,-74.0,15.0,161.0,63.0,0
10.0,-251.0,-75.0,5.0,171.0,66.0,0
11.0,-245.0,-94.0,1.0,182.0,65.0,0
9.0,-255.0,-76.0,-1.0,192.0,65.0,0
13.0,-255.0,-79.0,2.0,201.0,63.0,0
12.0,-255.0,-74.0,7.0,214.0,63.0,0
13.0,-254.0,-76.0,15.0,224.0,59.0,0
10.0,-257.0,-75.0,26.0,235.0,55.0,0
13.0,-240.0,-75.0,38.0,245.0,51.0,0
11.0,-256.0,-74.0,49.0,257.0,47.0,0
11.0,-254.0,-79.0,60.0,270.0,40.0,0
14.0,-255.0,-78.0,71.0,283.0,35.0,0
12.0,-252.0,-76.0,80.0,297.0,28.0,0
13.0,-254.0,-73.0,86.0,310.0,24.0,0
13.0,-252.0,-77.0,89.0,324.0,17.0,0
13.0,-251.0,-75.0,89.0,340.0,15.0,0
12.0,-248.0,-74.0,88.0,352.0,8.0,0
9.0,-249.0,-71.0,87.0,363.0,6.0,0
14.0,-246.0,-70.0,90.0,374.0,4.0,0
10.0,-247.0,-69.0,92.0,387.0,6.0,0
12.0,-247.0,-66.0,96.0,398.0,4.0,0
11.0,-246.0,-63.0,99.0,409.0,5.0,0
9.0,-248.0,-64.0,102.0,418.0,3.0,0
12.0,-249.0,-65.0,107.0,425.0,6.0,0
7.0,-249.0,-62.0,111.0,429.0,7.0,0
8.0,-248.0,-67.0,117.0,432.0,9.0,0
9.0,-247.0,-65.0,119.0,434.0,9.0,0
6.0,-243.0,-67.0,120.0,435.0,13.0,0
4.0,-245.0,-62.0,120.0,435.0,11.0,0
8.0,-246.0,-65.0,116.0,433.0,13.0,0
6.0,-245.0,-65.0,110.0,431.0,11.0,0
7.0,-245.0,-68.0,103.0,427.0,14.0,0
5.0,-246.0,-68.0,96.0,421.0,12.0,0
0.0,-246.0,-67.0,89.0,416.0,13.0,0
0.0,-245.0,-71.0,83.0,407.0,14.0,0
2.0,-246.0,-72.0,77.0,396.0,15.0,0
1.0,-244.0,-69.0,72.0,379.0,13.0,0
-1.0,-247.0,-70.0,65.0,367.0,15.0,0
-4.0,-246.0,-69.0,60.0,354.0,12.0,0
-3.0,-246.0,-68.0,56.0,342.0,12.0,0
-3.0,-246.0,-66.0,52.0,330.0,9.0,0
-1.0,-248.0,-73.0,47.0,319.0,9.0,0
-1.0,-247.0,-70.0,43.0,311.0,4.0,0
-5.0,-244.0,-68.0,34.0,304.0,2.0,0
-1.0,-246.0,-70.0,25.0,298.0,-2.0,0
-1.0,-246.0,-65.0,13.0,292.0,-3.0,0
-2.0,-244.0,-68.0,0.0,288.0,-8.0,0
0.0,-245.0,-68.0,-19.0,283.0,-9.0,0
1.0,-244.0,-67.0,-33.0,278.0,-15.0,0
-2.0,-248.0,-66.0,-48.0,273.0,-18.0,0
1.0,-247.0,-63.0,-62.0,267.0,-25.0,0
1.0,-249.0,-64.0,-72.0,261.0,-27.0,0
-2.0,-246.0,-62.0,-83.0,255.0,-32.0,0
-1.0,-246.0,-64.0,-90.0,244.0,-34.0,0
1.0,-248.0,-60.0,-93.0,232.0,-37.0,0
-3.0,-245.0,-63.0,-94.0,220.0,-37.0,0
-2.0,-250.0,-59.0,-92.0,206.0,-41.0,0
-4.0,-251.0,-62.0,-89.0,187.0,-40.0,0
-4.0,-251.0,-60.0,-85.0,170.0,-41.0,0
-4.0,-250.0,-65.0,-80.0,153.0,-37.0,0
-2.0,-250.0,-64.0,-74.0,137.0,-38.0,0
-5.0,-251.0,-62.0,-68.0,122.0,-34.0,0
-2.0,-253.0,-65.0,-63.0,108.0,-33.0,0
-6.0,-250.0,-64.0,-57.0,94.0,-27.0,0
-5.0,-250.0,-66.0,-52.0,84.0,-27.0,0
-7.0,-246.0,-68.0,-48.0,75.0,-24.0,0
-3.0,-252.0,-68.0,-43.0,67.0,-25.0,0
2.0,-251.0,-68.0,-39.0,61.0,-21.0,0
-1.0,-247.0,-69.0,-40.0,54.0,-21.0,0
0.0,-249.0,-71.0,-41.0,49.0,-19.0,0
0.0,-247.0,-68.0,-43.0,43.0,-20.0,0
0.0,-248.0,-68.0,-46.0,36.0,-18.0,0
-1.0,-247.0,-69.0,-50.0,28.0,-20.0,0
-3.0,-243.0,-63.0,-53.0,21.0,-18.0,0
1.0,-248.0,-66.0,-55.0,12.0,-19.0,0
-1.0,-247.0,-64.0,-55.0,4.0,-14.0,0
1.0,-250.0,-65.0,-57.0,-4.0,-16.0,0
3.0,-253.0,-66.0,-58.0,-8.0,-13.0,0
-1.0,-251.0,-65.0,-59.0,-18.0,-16.0,0
0.0,-251.0,-65.0,-56.0,-23.0,-12.0,0
-1.0,-249.0,-62.0,-53.0,-29.0,-13.0,0
4.0,-253.0,-65.0,-47.0,-34.0,-10.0,0
2.0,-254.0,-65.0,-37.0,-39.0,-14.0,0
3.0,-255.0,-62.0,-25.0,-45.0,-11.0,0
5.0,-253.0,-67.0,-13.0,-47.0,-14.0,0
6.0,-254.0,-62.0,3.0,-48.0,-13.0,0
4.0,-254.0,-66.0,14.0,-48.0,-15.0,0
8.0,-250.0,-67.0,24.0,-46.0,-16.0,0
8.0,-250.0,-70.0,29.0,-40.0,-19.0,0
10.0,-251.0,-72.0,30.0,-33.0,-18.0,0
10.0,-248.0,-67.0,28.0,-26.0,-23.0,0
10.0,-247.0,-68.0,21.0,-17.0,-20.0,0
7.0,-245.0,-69.0,17.0,-9.0,-25.0,0
9.0,-247.0,-66.0,13.0,-2.0,-23.0,0
10.0,-249.0,-64.0,5.0,3.0,-26.0,0
8.0,-246.0,-62.0,2.0,8.0,-24.0,0
8.0,-248.0,-67.0,-4.0,11.0,-25.0,0
8.0,-245.0,-70.0,-13.0,18.0,-25.0,0
9.0,-245.0,-66.0,-24.0,24.0,-25.0,0
11.0,-249.0,-70.0,-38.0,31.0,-23.0,0
9.0,-245.0,-70.0,-53.0,39.0,-24.0,0
11.0,-246.0,-68.0,-67.0,42.0,-20.0,0
6.0,-247.0,-68.0,-77.0,44.0,-22.0,0
8.0,-251.0,-68.0,-82.0,45.0,-19.0,0
7.0,-249.0,-67.0,-82.0,42.0,-20.0,0
8.0,-252.0,-67.0,-75.0,37.0,-19.0,0
9.0,-251.0,-70.0,-66.0,31.0,-22.0,0
8.0,-249.0,-70.0,-55.0,25.0,-21.0,0
6.0,-250.0,-70.0,-44.0,19.0,-26.0,0
7.0,-250.0,-69.0,-32.0,11.0,-26.0,0
6.0,-247.0,-72.0,-28.0,5.0,-30.0,0
6.0,-249.0,-74.0,-24.0,0.0,-28.0,0
7.0,-247.0,-75.0,-22.0,-6.0,-31.0,0
6.0,-248.0,-77.0,-25.0,-8.0,-29.0,0
3.0,-245.0,-74.0,-32.0,-8.0,-32.0,0
4.0,-245.0,-78.0,-44.0,-5.0,-30.0,0
2.0,-244.0,-80.0,-63.0,-1.0,-33.0,0
6.0,-245.0,-78.0,-82.0,4.0,-32.0,0
5.0,-248.0,-79.0,-101.0,7.0,-35.0,0
6.0,-251.0,-79.0,-115.0,8.0,-31.0,0
8.0,-249.0,-77.0,-121.0,9.0,-31.0,0
4.0,-247.0,-75.0,-117.0,12.0,-27.0,0
6.0,-252.0,-72.0,-106.0,13.0,-28.0,0
4.0,-251.0,-74.0,-89.0,14.0,-24.0,0
6.0,-252.0,-71.0,-66.0,14.0,-25.0,0
4.0,-252.0,-75.0,-42.0,17.0,-22.0,0
6.0,-252.0,-73.0,-19.0,17.0,-21.0,0
4.0,-249.0,-76.0,0.0,17.0,-16.0,0
7.0,-248.0,-74.0,15.0,16.0,-17.0,0
9.0,-249.0,-72.0,24.0,14.0,-12.0,0
7.0,-246.0,-75.0,26.0,13.0,-12.0,0
7.0,-244.0,-78.0,23.0,10.0,-8.0,0
10.0,-246.0,-74.0,16.0,8.0,-9.0,0
8.0,-248.0,-78.0,7.0,7.0,-6.0,0
7.0,-249.0,-76.0,-2.0,6.0,-7.0,0
8.0,-246.0,-77.0,-10.0,3.0,-4.0,0
8.0,-247.0,-74.0,-19.0,1.0,-7.0,0
8.0,-247.0,-72.0,-23.0,0.0,-4.0,0
8.0,-249.0,-77.0,-25.0,-5.0,-6.0,0
7.0,-250.0,-73.0,-25.0,-7.0,-6.0,0
8.0,-250.0,-71.0,-19.0,-15.0,-9.0,0
8.0,-249.0,-73.0,-11.0,-20.0,-6.0,0
7.0,-250.0,-72.0,-4.0,-26.0,-8.0,0
11.0,-252.0,-69.0,6.0,-33.0,-5.0,0
9.0,-251.0,-71.0,15.0,-36.0,-7.0,0
8.0,-249.0,-73.0,24.0,-39.0,-3.0,0
9.0,-249.0,-68.0,29.0,-42.0,-4.0,0
11.0,-249.0,-69.0,34.0,-43.0,-2.0,0
6.0,-249.0,-71.0,39.0,-44.0,-4.0,0
10.0,-247.0,-71.0,39.0,-41.0,-2.0,0
8.0,-250.0,-70.0,37.0,-39.0,-5.0,0
6.0,-246.0,-69.0,32.0,-36.0,-2.0,0
7.0,-245.0,-70.0,27.0,-31.0,-4.0,0
5.0,-246.0,-72.0,22.0,-26.0,-4.0,0
7.0,-247.0,-68.0,18.0,-20.0,-7.0,0
8.0,-246.0,-64.0,14.0,-13.0,-5.0,0
6.0,-248.0,-73.0,10.0,-7.0,-8.0,0
7.0,-245.0,-69.0,10.0,-2.0,-7.0,0
5.0,-247.0,-68.0,11.0,1.0,-11.0,0
8.0,-247.0,-65.0,14.0,7.0,-12.0,0
8.0,-249.0,-66.0,20.0,9.0,-16.0,0
5.0,-248.0,-64.0,26.0,12.0,-16.0,0
8.0,-247.0,-66.0,34.0,14.0,-20.0,0
7.0,-251.0,-68.0,39.0,15.0,-19.0,0
7.0,-248.0,-63.0,44.0,17.0,-25.0,0
6.0,-250.0,-65.0,47.0,21.0,-23.0,0
4.0,-246.0,-65.0,46.0,23.0,-29.0,0
6.0,-249.0,-68.0,46.0,28.0,-28.0,0
8.0,-249.0,-66.0,45.0,31.0,-34.0,0
7.0,-248.0,-66.0,42.0,36.0,-32.0,0
5.0,-246.0,-65.0,41.0,38.0,-37.0,0
6.0,-250.0,-65.0,39.0,41.0,-35.0,0
6.0,-246.0,-66.0,38.0,42.0,-36.0,0
9.0,-249.0,-66.0,36.0,43.0,-33.0,0
4.0,-250.0,-68.0,36.0,42.0,-35.0,0
10.0,-250.0,-66.0,39.0,43.0,-29.0,0
7.0,-252.0,-60.0,42.0,42.0,-31.0,0
9.0,-253.0,-63.0,44.0,40.0,-27.0,0
5.0,-253.0,-63.0,50.0,38.0,-28.0,0
3.0,-249.0,-65.0,56.0,36.0,-24.0,0
4.0,-252.0,-64.0,63.0,34.0,-26.0,0
4.0,-250.0,-59.0,68.0,33.0,-23.0,0
5.0,-250.0,-64.0,76.0,30.0,-23.0,0
1.0,-252.0,-64.0,81.0,28.0,-22.0,0
3.0,-250.0,-65.0,84.0,26.0,-23.0,0
2.0,-250.0,-63.0,87.0,22.0,-20.0,0
0.0,-249.0,-64.0,87.0,20.0,-23.0,0
1.0,-248.0,-65.0,88.0,16.0,-20.0,0
2.0,-251.0,-66.0,87.0,14.0,-23.0,0
2.0,-252.0,-65.0,86.0,11.0,-20.0,0
1.0,-252.0,-65.0,85.0,7.0,-21.0,0
-1.0,-251.0,-62.0,85.0,4.0,-19.0,0
-5.0,-249.0,-63.0,85.0,-2.0,-21.0,0
-1.0,-248.0,-64.0,84.0,-4.0,-18.0,0
-3.0,-251.0,-62.0,84.0,-10.0,-21.0,0
1.0,-251.0,-61.0,84.0,-14.0,-18.0,0
-2.0,-250.0,-64.0,84.0,-19.0,-20.0,0
-2.0,-251.0,-65.0,83.0,-21.0,-17.0,0
4.0,-251.0,-62.0,83.0,-24.0,-18.0,0
1.0,-254.0,-62.0,84.0,-29.0,-14.0,0
0.0,-247.0,-58.0,83.0,-37.0,-17.0,0
1.0,-253.0,-62.0,80.0,-43.0,-14.0,0
1.0,-250.0,-64.0,77.0,-51.0,-13.0,0
-1.0,-248.0,-63.0,73.0,-59.0,-9.0,0
2.0,-249.0,-63.0,68.0,-65.0,-9.0,0
4.0,-250.0,-66.0,62.0,-71.0,-3.0,0
2.0,-249.0,-64.0,57.0,-78.0,-4.0,0
4.0,-251.0,-65.0,54.0,-81.0,2.0,0
6.0,-248.0,-67.0,49.0,-81.0,3.0,0
7.0,-253.0,-66.0,45.0,-80.0,8.0,0
5.0,-254.0,-65.0,43.0,-78.0,8.0,0
6.0,-253.0,-65.0,41.0,-76.0,12.0,0
9.0,-254.0,-64.0,45.0,-73.0,12.0,0
9.0,-254.0,-60.0,53.0,-69.0,16.0,0
9.0,-252.0,-64.0,61.0,-65.0,15.0,0
12.0,-253.0,-59.0,72.0,-62.0,18.0,0
11.0,-253.0,-58.0,83.0,-56.0,15.0,0
11.0,-253.0,-61.0,94.0,-49.0,15.0,0
9.0,-254.0,-59.0,104.0,-44.0,10.0,0
14.0,-251.0,-62.0,111.0,-39.0,10.0,0
8.0,-248.0,-59.0,115.0,-33.0,6.0,0
12.0,-251.0,-59.0,119.0,-27.0,5.0,0
10.0,-247.0,-61.0,117.0,-21.0,0.0,0
16.0,-248.0,-58.0,110.0,-12.0,-2.0,0
10.0,-249.0,-59.0,101.0,-3.0,-5.0,0
11.0,-246.0,-60.0,89.0,5.0,-7.0,0
12.0,-246.0,-58.0,78.0,12.0,-11.0,0
10.0,-247.0,-57.0,65.0,22.0,-11.0,0
13.0,-249.0,-57.0,54.0,31.0,-13.0,0
12.0,-250.0,-58.0,45.0,39.0,-11.0,0
12.0,-252.0,-61.0,39.0,46.0,-14.0,0
9.0,-248.0,-57.0,36.0,53.0,-10.0,0
9.0,-253.0,-61.0,38.0,60.0,-11.0,0
13.0,-251.0,-62.0,42.0,67.0,-8.0,0
11.0,-249.0,-62.0,49.0,76.0,-9.0,0
6.0,-251.0,-59.0,53.0,82.0,-5.0,0
7.0,-248.0,-61.0,56.0,87.0,-7.0,0
6.0,-247.0,-57.0,57.0,89.0,-5.0,0
7.0,-247.0,-55.0,58.0,90.0,-4.0,0
5.0,-246.0,-57.0,58.0,90.0,-1.0,0
6.0,-248.0,-58.0,55.0,89.0,-2.0,0
4.0,-243.0,-58.0,52.0,88.0,1.0,0
7.0,-246.0,-61.0,47.0,86.0,1.0,0
6.0,-248.0,-60.0,42.0,83.0,3.0,0
4.0,-245.0,-57.0,33.0,82.0,0.0,0
6.0,-248.0,-60.0,19.0,78.0,1.0,0
4.0,-247.0,-60.0,6.0,75.0,-1.0,0
2.0,-245.0,-59.0,-7.0,72.0,1.0,0
5.0,-246.0,-58.0,-19.0,71.0,-1.0,0
2.0,-250.0,-60.0,-30.0,70.0,0.0,0
3.0,-250.0,-59.0,-39.0,69.0,-1.0,0
2.0,-250.0,-60.0,-47.0,69.0,-1.0,0
1.0,-249.0,-59.0,-50.0,72.0,-5.0,0
6.0,-250.0,-60.0,-53.0,73.0,-4.0,0
4.0,-255.0,-58.0,-54.0,74.0,-6.0,0
3.0,-252.0,-61.0,-51.0,74.0,-6.0,0
6.0,-254.0,-62.0,-47.0,72.0,-7.0,0
5.0,-255.0,-60.0,-40.0,73.0,-4.0,0
5.0,-257.0,-62.0,-34.0,68.0,-6.0,0
5.0,-255.0,-61.0,-25.0,66.0,-4.0,0
5.0,-255.0,-61.0,-16.0,63.0,-7.0,0
5.0,-256.0,-62.0,-5.0,63.0,-5.0,0
7.0,-255.0,-62.0,4.0,64.0,-8.0,0
5.0,-254.0,-60.0,14.0,66.0,-6.0,0
6.0,-254.0,-65.0,24.0,69.0,-8.0,0
6.0,-255.0,-64.0,31.0,75.0,-8.0,0
8.0,-255.0,-63.0,38.0,80.0,-11.0,0
5.0,-251.0,-63.0,43.0,84.0,-10.0,0
6.0,-248.0,-60.0,46.0,87.0,-13.0,0
8.0,-250.0,-60.0,46.0,87.0,-13.0,0
7.0,-249.0,-59.0,45.0,88.0,-16.0,0
7.0,-249.0,-60.0,41.0,85.0,-16.0,0
7.0,-246.0,-61.0,34.0,83.0,-19.0,0
3.0,-246.0,-58.0,26.0,81.0,-19.0,0
8.0,-246.0,-63.0,12.0,82.0,-20.0,0
8.0,-249.0,-65.0,-3.0,82.0,-19.0,0
4.0,-248.0,-60.0,-22.0,83.0,-20.0,0
5.0,-249.0,-63.0,-33.0,84.0,-16.0,0
5.0,-253.0,-59.0,-40.0,88.0,-17.0,0
2.0,-249.0,-60.0,-46.0,90.0,-16.0,0
4.0,-250.0,-57.0,-46.0,90.0,-16.0,0
7.0,-253.0,-57.0,-41.0,90.0,-12.0,0
4.0,-253.0,-60.0,-31.0,90.0,-12.0,0
4.0,-251.0,-60.0,-21.0,90.0,-10.0,0
5.0,-251.0,-58.0,-12.0,89.0,-11.0,0
4.0,-250.0,-61.0,-7.0,89.0,-9.0,0
6.0,-247.0,-60.0,-2.0,89.0,-11.0,0
4.0,-247.0,-60.0,-4.0,91.0,-11.0,0
8.0,-247.0,-62.0,-7.0,91.0,-15.0,0
7.0,-248.0,-61.0,-15.0,89.0,-13.0,0
5.0,-244.0,-62.0,-21.0,87.0,-16.0,0
5.0,-245.0,-67.0,-29.0,86.0,-13.0,0
3.0,-245.0,-60.0,-39.0,86.0,-16.0,0
4.0,-246.0,-63.0,-49.0,90.0,-14.0,0
5.0,-245.0,-59.0,-62.0,93.0,-14.0,0
6.0,-246.0,-62.0,-72.0,97.0,-11.0,0
6.0,-249.0,-62.0,-85.0,104.0,-12.0,0
4.0,-248.0,-59.0,-96.0,106.0,-12.0,0
2.0,-249.0,-59.0,-102.0,109.0,-11.0,0
5.0,-252.0,-61.0,-103.0,109.0,-9.0,0
6.0,-255.0,-62.0,-101.0,107.0,-9.0,0
7.0,-253.0,-61.0,-93.0,105.0,-6.0,0
6.0,-255.0,-57.0,-81.0,99.0,-7.0,0
6.0,-255.0,-61.0,-66.0,92.0,-4.0,0
5.0,-254.0,-59.0,-49.0,85.0,-5.0,0
4.0,-255.0,-58.0,-30.0,78.0,-2.0,0
6.0,-255.0,-63.0,-11.0,68.0,-2.0,0
8.0,-254.0,-58.0,9.0,60.0,1.0,0
7.0,-255.0,-60.0,24.0,54.0,0.0,0
4.0,-252.0,-62.0,32.0,47.0,2.0,0
5.0,-249.0,-64.0,39.0,41.0,1.0,0
5.0,-250.0,-63.0,40.0,36.0,5.0,0
6.0,-249.0,-55.0,40.0,31.0,3.0,0
6.0,-251.0,-59.0,38.0,27.0,6.0,0
7.0,-249.0,-58.0,35.0,26.0,3.0,0
5.0,-248.0,-60.0,32.0,26.0,7.0,0
3.0,-247.0,-58.0,28.0,27.0,5.0,0
5.0,-252.0,-60.0,25.0,27.0,5.0,0
5.0,-249.0,-55.0,20.0,28.0,4.0,0
6.0,-249.0,-55.0,18.0,30.0,5.0,0
4.0,-250.0,-57.0,11.0,30.0,3.0,0
5.0,-253.0,-55.0,8.0,32.0,3.0,0
0.0,-251.0,-58.0,4.0,34.0,0.0,0
0.0,-252.0,-57.0,3.0,35.0,2.0,0
3.0,-251.0,-61.0,1.0,35.0,-2.0,0
3.0,-251.0,-59.0,-1.0,36.0,-1.0,0
5.0,-255.0,-59.0,0.0,37.0,-3.0,0
4.0,-252.0,-58.0,1.0,40.0,-4.0,0
6.0,-253.0,-58.0,3.0,41.0,-6.0,0
5.0,-253.0,-59.0,6.0,41.0,-7.0,0
6.0,-253.0,-64.0,9.0,43.0,-8.0,0
2.0,-251.0,-58.0,14.0,44.0,-8.0,0
4.0,-255.0,-62.0,18.0,45.0,-11.0,0
3.0,-252.0,-61.0,21.0,45.0,-10.0,0
6.0,-251.0,-60.0,22.0,46.0,-12.0,0
6.0,-251.0,-62.0,24.0,48.0,-12.0,0
5.0,-251.0,-59.0,23.0,52.0,-13.0,0
6.0,-252.0,-60.0,20.0,58.0,-12.0,0
7.0,-247.0,-59.0,14.0,66.0,-12.0,0
6.0,-249.0,-60.0,6.0,74.0,-12.0,0
7.0,-251.0,-64.0,-6.0,80.0,-15.0,0
8.0,-249.0,-62.0,-18.0,90.0,-11.0,0
9.0,-250.0,-60.0,-32.0,98.0,-13.0,0
8.0,-247.0,-59.0,-44.0,107.0,-10.0,0
6.0,-249.0,-58.0,-54.0,111.0,-9.0,0
6.0,-246.0,-57.0,-61.0,116.0,-6.0,0
8.0,-250.0,-57.0,-66.0,117.0,-6.0,0
9.0,-250.0,-58.0,-68.0,116.0,-3.0,0
7.0,-250.0,-53.0,-67.0,114.0,-1.0,0
7.0,-251.0,-58.0,-64.0,112.0,0.0,0
8.0,-249.0,-55.0,-64.0,109.0,0.0,0
7.0,-245.0,-57.0,-62.0,107.0,1.0,0
7.0,-248.0,-60.0,-62.0,105.0,0.0,0
11.0,-251.0,-59.0,-62.0,106.0,0.0,0
8.0,-249.0,-62.0,-64.0,107.0,-2.0,0
7.0,-251.0,-60.0,-66.0,108.0,-1.0,0
12.0,-252.0,-62.0,-65.0,109.0,-4.0,0
9.0,-255.0,-60.0,-64.0,113.0,-5.0,0
11.0,-254.0,-61.0,-56.0,114.0,-3.0,0
8.0,-252.0,-62.0,-48.0,115.0,-4.0,0
11.0,-258.0,-61.0,-36.0,115.0,-4.0,0
8.0,-256.0,-60.0,-26.0,116.0,-3.0,0
5.0,-256.0,-59.0,-14.0,115.0,-3.0,0
6.0,-254.0,-59.0,0.0,114.0,-2.0,0
6.0,-253.0,-64.0,9.0,115.0,-1.0,0
8.0,-254.0,-63.0,19.0,111.0,2.0,0
5.0,-251.0,-60.0,27.0,109.0,3.0,0
5.0,-248.0,-60.0,31.0,108.0,4.0,0
7.0,-250.0,-59.0,31.0,106.0,4.0,0
5.0,-251.0,-62.0,29.0,104.0,5.0,0
4.0,-249.0,-59.0,24.0,103.0,5.0,0
3.0,-250.0,-57.0,18.0,101.0,6.0,0
4.0,-252.0,-57.0,13.0,98.0,6.0,0
3.0,-248.0,-59.0,11.0,97.0,7.0,0
7.0,-250.0,-60.0,10.0,95.0,4.0,0
4.0,-252.0,-56.0,9.0,93.0,5.0,0
4.0,-251.0,-57.0,9.0,90.0,1.0,0
4.0,-251.0,-58.0,11.0,89.0,0.0,0
4.0,-249.0,-59.0,12.0,87.0,-3.0,0
4.0,-250.0,-58.0,12.0,84.0,-5.0,0
3.0,-252.0,-61.0,12.0,83.0,-5.0,0
5.0,-252.0,-59.0,13.0,82.0,-6.0,0
2.0,-249.0,-57.0,12.0,80.0,-7.0,0
6.0,-250.0,-60.0,9.0,80.0,-8.0,0
5.0,-251.0,-61.0,7.0,77.0,-9.0,0
5.0,-248.0,-60.0,4.0,76.0,-8.0,0
2.0,-248.0,-56.0,2.0,73.0,-8.0,0
2.0,-251.0,-59.0,-1.0,71.0,-7.0,0
3.0,-252.0,-59.0,-5.0,69.0,-5.0,0
2.0,-252.0,-58.0,-9.0,69.0,-5.0,0
4.0,-251.0,-58.0,-10.0,68.0,-5.0,0
5.0,-251.0,-64.0,-12.0,67.0,-5.0,0
3.0,-250.0,-59.0,-12.0,68.0,-3.0,0
5.0,-251.0,-60.0,-13.0,67.0,-2.0,0
3.0,-250.0,-57.0,-15.0,69.0,-2.0,0
5.0,-252.0,-60.0,-17.0,69.0,-1.0,0
6.0,-252.0,-65.0,-19.0,70.0,-1.0,0
14.0,-253.0,-57.0,-20.0,73.0,0.0,0
5.0,-255.0,-64.0,-19.0,75.0,-2.0,0
8.0,-249.0,-58.0,-17.0,79.0,-2.0,0
15.0,-252.0,-56.0,-14.0,84.0,0.0,0
7.0,-241.0,-56.0,-10.0,89.0,-2.0,0
1.0,-255.0,-59.0,-8.0,95.0,-2.0,0
1.0,-246.0,-63.0,-5.0,100.0,-3.0,0
6.0,-250.0,-69.0,-5.0,106.0,-4.0,0
12.0,-238.0,-77.0,-7.0,113.0,-4.0,0
10.0,-247.0,-65.0,-8.0,117.0,-5.0,0
23.0,-251.0,-57.0,-12.0,120.0,-6.0,0
10.0,-251.0,-60.0,-16.0,123.0,-6.0,0
11.0,-251.0,-62.0,-19.0,124.0,-7.0,0
9.0,-251.0,-59.0,-22.0,120.0,-7.0,0
9.0,-250.0,-55.0,-23.0,116.0,-9.0,0
12.0,-253.0,-57.0,-23.0,111.0,-10.0,0
11.0,-253.0,-58.0,-18.0,106.0,-11.0,0
10.0,-254.0,-58.0,-13.0,101.0,-10.0,0
13.0,-254.0,-55.0,-5.0,98.0,-10.0,0
10.0,-256.0,-57.0,5.0,98.0,-9.0,0
12.0,-252.0,-58.0,16.0,99.0,-8.0,0
12.0,-255.0,-57.0,25.0,101.0,-6.0,0
9.0,-251.0,-57.0,34.0,102.0,-3.0,0
8.0,-250.0,-59.0,40.0,106.0,0.0,0
10.0,-252.0,-58.0,41.0,111.0,1.0,0
10.0,-251.0,-59.0,40.0,114.0,3.0,0
10.0,-249.0,-59.0,35.0,116.0,3.0,0
8.0,-250.0,-57.0,30.0,121.0,4.0,0
7.0,-250.0,-58.0,24.0,124.0,3.0,0
10.0,-247.0,-64.0,17.0,129.0,4.0,0
9.0,-248.0,-59.0,9.0,135.0,2.0,0
11.0,-249.0,-60.0,0.0,142.0,-1.0,0
7.0,-250.0,-58.0,-7.0,149.0,-4.0,0
9.0,-249.0,-58.0,-11.0,158.0,-6.0,0
9.0,-251.0,-59.0,-15.0,163.0,-9.0,0
8.0,-249.0,-56.0,-19.0,167.0,-9.0,0
9.0,-249.0,-61.0,-21.0,171.0,-12.0,0
4.0,-247.0,-56.0,-22.0,171.0,-13.0,0
4.0,-250.0,-57.0,-24.0,169.0,-14.0,0
5.0,-250.0,-54.0,-24.0,165.0,-15.0,0
3.0,-253.0,-56.0,-23.0,162.0,-17.0,0
4.0,-252.0,-56.0,-23.0,155.0,-16.0,0
1.0,-250.0,-55.0,-23.0,149.0,-15.0,0
1.0,-251.0,-55.0,-22.0,142.0,-15.0,0
2.0,-250.0,-56.0,-18.0,132.0,-16.0,0
3.0,-252.0,-54.0,-18.0,126.0,-15.0,0
1.0,-254.0,-57.0,-16.0,121.0,-14.0,0
2.0,-255.0,-55.0,-16.0,116.0,-11.0,0
2.0,-252.0,-59.0,-18.0,114.0,-12.0,0
1.0,-251.0,-60.0,-19.0,110.0,-9.0,0
2.0,-250.0,-59.0,-24.0,108.0,-11.0,0
3.0,-249.0,-59.0,-29.0,108.0,-10.0,0
4.0,-252.0,-60.0,-35.0,107.0,-10.0,0
4.0,-249.0,-58.0,-41.0,103.0,-9.0,0
2.0,-250.0,-60.0,-44.0,102.0,-9.0,0
5.0,-252.0,-59.0,-46.0,100.0,-8.0,0
4.0,-250.0,-59.0,-43.0,96.0,-8.0,0
7.0,-252.0,-59.0,-40.0,96.0,-6.0,0
5.0,-252.0,-60.0,-37.0,91.0,-7.0,0
5.0,-249.0,-60.0,-33.0,88.0,-4.0,0
5.0,-252.0,-59.0,-29.0,81.0,-4.0,0
3.0,-250.0,-58.0,-27.0,74.0,-2.0,0
2.0,-248.0,-60.0,-26.0,69.0,-1.0,0
3.0,-247.0,-57.0,-28.0,66.0,-1.0,0
2.0,-250.0,-60.0,-32.0,64.0,-3.0,0
2.0,-250.0,-58.0,-39.0,64.0,-4.0,0
1.0,-247.0,-59.0,-45.0,64.0,-7.0,0
4.0,-249.0,-58.0,-49.0,61.0,-6.0,0
3.0,-251.0,-58.0,-56.0,59.0,-9.0,0
3.0,-251.0,-54.0,-58.0,53.0,-10.0,0
2.0,-249.0,-58.0,-58.0,48.0,-10.0,0
3.0,-250.0,-58.0,-58.0,41.0,-9.0,0
1.0,-255.0,-58.0,-55.0,34.0,-11.0,0
4.0,-251.0,-56.0,-51.0,29.0,-10.0,0
4.0,-252.0,-56.0,-46.0,24.0,-11.0,0
8.0,-253.0,-56.0,-39.0,17.0,-8.0,0
7.0,-250.0,-56.0,-33.0,13.0,-9.0,0
6.0,-252.0,-57.0,-27.0,10.0,-9.0,0
8.0,-252.0,-62.0,-24.0,10.0,-10.0,0
8.0,-250.0,-62.0,-21.0,9.0,-9.0,0
10.0,-251.0,-58.0,-20.0,9.0,-11.0,0
5.0,-249.0,-57.0,-19.0,9.0,-11.0,0
8.0,-252.0,-55.0,-19.0,8.0,-12.0,0
10.0,-251.0,-56.0,-19.0,9.0,-13.0,0
7.0,-248.0,-58.0,-22.0,11.0,-13.0,0
7.0,-248.0,-59.0,-24.0,12.0,-11.0,0
7.0,-252.0,-56.0,-27.0,12.0,-14.0,0
11.0,-251.0,-57.0,-29.0,13.0,-13.0,0
7.0,-249.0,-55.0,-30.0,13.0,-16.0,0
8.0,-250.0,-55.0,-33.0,12.0,-15.0,0
9.0,-250.0,-57.0,-35.0,11.0,-16.0,0
9.0,-252.0,-55.0,-41.0,11.0,-15.0,0
9.0,-251.0,-56.0,-45.0,12.0,-15.0,0
10.0,-253.0,-57.0,-50.0,12.0,-12.0,0
8.0,-252.0,-55.0,-55.0,15.0,-13.0,0
9.0,-253.0,-59.0,-60.0,18.0,-11.0,0
11.0,-251.0,-58.0,-66.0,19.0,-13.0,0
7.0,-250.0,-56.0,-72.0,18.0,-11.0,0
7.0,-252.0,-60.0,-75.0,15.0,-13.0,0
5.0,-251.0,-61.0,-77.0,11.0,-12.0,0
9.0,-252.0,-59.0,-80.0,5.0,-14.0,0
8.0,-253.0,-59.0,-81.0,-2.0,-13.0,0
9.0,-252.0,-60.0,-78.0,-8.0,-14.0,0
7.0,-251.0,-58.0,-74.0,-12.0,-14.0,0
7.0,-253.0,-57.0,-71.0,-11.0,-16.0,0
11.0,-255.0,-60.0,-66.0,-11.0,-15.0,0
8.0,-254.0,-59.0,-58.0,-7.0,-15.0,0
8.0,-254.0,-57.0,-47.0,-3.0,-11.0,0
5.0,-256.0,-59.0,-35.0,2.0,-14.0,0
11.0,-254.0,-57.0,-24.0,7.0,-10.0,0
10.0,-255.0,-60.0,-12.0,12.0,-12.0,0
7.0,-253.0,-58.0,0.0,15.0,-10.0,0
11.0,-255.0,-60.0,10.0,21.0,-10.0,0
8.0,-253.0,-59.0,21.0,26.0,-8.0,0
6.0,-253.0,-58.0,27.0,30.0,-10.0,0
10.0,-252.0,-58.0,31.0,35.0,-9.0,0
8.0,-251.0,-57.0,32.0,38.0,-11.0,0
9.0,-252.0,-58.0,31.0,43.0,-10.0,0
11.0,-249.0,-56.0,25.0,47.0,-12.0,0
7.0,-251.0,-58.0,23.0,51.0,-9.0,0
7.0,-248.0,-59.0,20.0,53.0,-13.0,0
11.0,-252.0,-58.0,15.0,55.0,-10.0,0
9.0,-251.0,-63.0,13.0,56.0,-13.0,0
9.0,-249.0,-60.0,9.0,57.0,-11.0,0
10.0,-250.0,-63.0,8.0,59.0,-12.0,0
7.0,-253.0,-58.0,7.0,60.0,-9.0,0
8.0,-250.0,-59.0,5.0,61.0,-11.0,0
9.0,-251.0,-62.0,4.0,62.0,-7.0,0
8.0,-249.0,-63.0,4.0,61.0,-10.0,0
8.0,-249.0,-65.0,2.0,62.0,-9.0,0
10.0,-252.0,-62.0,2.0,63.0,-9.0,0
10.0,-250.0,-64.0,2.0,64.0,-8.0,0
9.0,-250.0,-62.0,3.0,64.0,-9.0,0
9.0,-248.0,-56.0,4.0,63.0,-6.0,0
8.0,-252.0,-62.0,5.0,62.0,-8.0,0
9.0,-253.0,-61.0,7.0,63.0,-6.0,0
8.0,-248.0,-60.0,10.0,65.0,-6.0,0
7.0,-247.0,-60.0,12.0,67.0,-6.0,0
7.0,-247.0,-62.0,13.0,68.0,-7.0,0
10.0,-247.0,-59.0,15.0,72.0,-5.0,0
7.0,-250.0,-59.0,17.0,73.0,-7.0,0
8.0,-252.0,-61.0,17.0,72.0,-4.0,0
8.0,-247.0,-61.0,15.0,74.0,-5.0,0
8.0,-248.0,-61.0,14.0,77.0,-4.0,0
7.0,-248.0,-60.0,11.0,78.0,-5.0,0
6.0,-249.0,-57.0,9.0,79.0,-2.0,0
7.0,-251.0,-61.0,8.0,80.0,-4.0,0
5.0,-252.0,-63.0,5.0,79.0,-2.0,0
7.0,-252.0,-61.0,5.0,80.0,-4.0,0
8.0,-252.0,-60.0,9.0,80.0,-2.0,0
7.0,-256.0,-58.0,14.0,79.0,-4.0,0
2.0,-252.0,-59.0,22.0,80.0,-5.0,0
11.0,-252.0,-61.0,29.0,81.0,-7.0,0
5.0,-249.0,-66.0,38.0,84.0,-6.0,0
6.0,-250.0,-61.0,44.0,83.0,-10.0,0
11.0,-252.0,-57.0,50.0,85.0,-8.0,0
9.0,-253.0,-62.0,54.0,86.0,-11.0,0
8.0,-253.0,-59.0,58.0,86.0,-11.0,0
8.0,-251.0,-62.0,61.0,87.0,-13.0,0
8.0,-250.0,-62.0,59.0,88.0,-11.0,0
9.0,-250.0,-64.0,54.0,87.0,-14.0,0
11.0,-250.0,-60.0,50.0,87.0,-11.0,0
7.0,-249.0,-62.0,43.0,88.0,-12.0,0
6.0,-247.0,-58.0,35.0,83.0,-10.0,0
8.0,-250.0,-60.0,30.0,80.0,-11.0,0
9.0,-250.0,-59.0,26.0,80.0,-8.0,0
8.0,-250.0,-63.0,22.0,79.0,-9.0,0
9.0,-250.0,-57.0,19.0,80.0,-4.0,0
6.0,-248.0,-60.0,16.0,82.0,-4.0,0
8.0,-249.0,-58.0,15.0,84.0,0.0,0
7.0,-250.0,-57.0,14.0,83.0,-2.0,0
10.0,-251.0,-59.0,14.0,84.0,0.0,0
7.0,-251.0,-59.0,13.0,85.0,-4.0,0
8.0,-251.0,-59.0,14.0,85.0,-1.0,0
11.0,-251.0,-59.0,15.0,85.0,-3.0,0
9.0,-248.0,-57.0,17.0,85.0,-1.0,0
10.0,-251.0,-57.0,18.0,83.0,-4.0,0
8.0,-252.0,-59.0,18.0,83.0,-1.0,0
9.0,-251.0,-62.0,17.0,85.0,-3.0,0
9.0,-255.0,-59.0,17.0,84.0,-2.0,0
9.0,-252.0,-63.0,17.0,85.0,-5.0,0
14.0,-253.0,-58.0,17.0,85.0,-4.0,0
12.0,-251.0,-60.0,15.0,86.0,-4.0,0
7.0,-252.0,-57.0,16.0,85.0,-2.0,0
9.0,-253.0,-56.0,15.0,83.0,-4.0,0
9.0,-254.0,-60.0,12.0,85.0,-2.0,0
9.0,-249.0,-58.0,11.0,84.0,-3.0,0
8.0,-250.0,-58.0,9.0,82.0,0.0,0
8.0,-248.0,-57.0,7.0,83.0,0.0,0
9.0,-249.0,-59.0,7.0,84.0,3.0,0
8.0,-253.0,-58.0,4.0,83.0,3.0,0
10.0,-252.0,-56.0,2.0,85.0,5.0,0
7.0,-247.0,-57.0,0.0,86.0,4.0,0
8.0,-249.0,-56.0,-3.0,88.0,7.0,0
8.0,-248.0,-58.0,-9.0,87.0,4.0,0
6.0,-249.0,-53.0,-16.0,88.0,7.0,0
9.0,-248.0,-55.0,-21.0,88.0,6.0,0
6.0,-247.0,-57.0,-25.0,88.0,9.0,0
7.0,-249.0,-55.0,-30.0,87.0,5.0,0
7.0,-253.0,-56.0,-33.0,87.0,8.0,0
6.0,-251.0,-54.0,-34.0,86.0,5.0,0
10.0,-253.0,-57.0,-35.0,85.0,9.0,0
6.0,-251.0,-53.0,-34.0,85.0,6.0,0
10.0,-255.0,-58.0,-30.0,84.0,8.0,0
11.0,-256.0,-56.0,-26.0,86.0,5.0,0
11.0,-255.0,-56.0,-23.0,85.0,8.0,0
10.0,-254.0,-58.0,-14.0,85.0,4.0,0
9.0,-255.0,-57.0,-7.0,86.0,6.0,0
11.0,-256.0,-56.0,2.0,89.0,3.0,0
10.0,-251.0,-55.0,12.0,92.0,4.0,0
9.0,-252.0,-57.0,20.0,95.0,2.0,0
10.0,-252.0,-57.0,29.0,98.0,4.0,0
8.0,-254.0,-57.0,33.0,99.0,2.0,0
8.0,-253.0,-55.0,36.0,100.0,4.0,0
7.0,-252.0,-59.0,37.0,101.0,2.0,0
7.0,-251.0,-58.0,39.0,102.0,6.0,0
7.0,-249.0,-59.0,38.0,102.0,3.0,0
8.0,-249.0,-56.0,35.0,105.0,5.0,0
6.0,-250.0,-56.0,32.0,107.0,2.0,0
10.0,-252.0,-56.0,28.0,104.0,4.0,0
7.0,-249.0,-54.0,24.0,106.0,1.0,0
7.0,-249.0,-52.0,20.0,104.0,3.0,0
7.0,-249.0,-56.0,17.0,103.0,0.0,0
8.0,-251.0,-53.0,14.0,101.0,1.0,0
7.0,-252.0,-53.0,10.0,100.0,-4.0,0
6.0,-252.0,-54.0,7.0,99.0,-2.0,0
9.0,-250.0,-55.0,5.0,98.0,-7.0,0
8.0,-253.0,-55.0,5.0,98.0,-6.0,0
6.0,-252.0,-55.0,4.0,97.0,-9.0,0
7.0,-252.0,-54.0,0.0,97.0,-8.0,0
8.0,-252.0,-55.0,-1.0,98.0,-11.0,0
8.0,-252.0,-56.0,-3.0,98.0,-11.0,0
5.0,-253.0,-53.0,-7.0,101.0,-15.0,0
11.0,-251.0,-53.0,-8.0,101.0,-13.0,0
9.0,-250.0,-53.0,-9.0,102.0,-15.0,0
8.0,-251.0,-57.0,-11.0,101.0,-13.0,0
10.0,-251.0,-52.0,-11.0,100.0,-15.0,0
10.0,-253.0,-55.0,-12.0,99.0,-13.0,0
7.0,-252.0,-58.0,-12.0,96.0,-15.0,0
8.0,-250.0,-56.0,-12.0,95.0,-10.0,0
10.0,-251.0,-54.0,-12.0,92.0,-14.0,0
9.0,-253.0,-55.0,-13.0,90.0,-10.0,0
14.0,-254.0,-54.0,-12.0,89.0,-10.0,0
7.0,-249.0,-57.0,-9.0,87.0,-7.0,0
10.0,-251.0,-56.0,-8.0,86.0,-9.0,0
8.0,-252.0,-54.0,-6.0,86.0,-5.0,0
9.0,-252.0,-54.0,-5.0,83.0,-6.0,0
7.0,-254.0,-55.0,-3.0,80.0,-3.0,0
5.0,-251.0,-55.0,0.0,78.0,-4.0,0
6.0,-251.0,-54.0,3.0,76.0,-2.0,0
7.0,-251.0,-56.0,6.0,74.0,-2.0,0
9.0,-253.0,-55.0,7.0,71.0,3.0,0
7.0,-252.0,-57.0,9.0,69.0,1.0,0
7.0,-254.0,-54.0,13.0,68.0,3.0,0
9.0,-251.0,-51.0,15.0,67.0,2.0,0
7.0,-253.0,-55.0,18.0,68.0,4.0,0
8.0,-254.0,-54.0,21.0,65.0,2.0,0
10.0,-252.0,-54.0,23.0,65.0,5.0,0
9.0,-253.0,-53.0,27.0,63.0,3.0,0
11.0,-253.0,-53.0,29.0,61.0,5.0,0
9.0,-252.0,-53.0,32.0,60.0,3.0,0
8.0,-252.0,-56.0,36.0,58.0,5.0,0
8.0,-252.0,-56.0,40.0,55.0,3.0,0
10.0,-255.0,-54.0,43.0,55.0,4.0,0
8.0,-254.0,-52.0,46.0,56.0,2.0,0
10.0,-253.0,-57.0,49.0,56.0,3.0,0
8.0,-254.0,-57.0,49.0,59.0,1.0,0
8.0,-252.0,-57.0,49.0,62.0,2.0,0
11.0,-253.0,-56.0,49.0,67.0,-2.0,0
9.0,-251.0,-55.0,47.0,71.0,1.0,0
8.0,-251.0,-54.0,45.0,76.0,-3.0,0
10.0,-253.0,-54.0,44.0,80.0,-2.0,0
9.0,-251.0,-56.0,42.0,83.0,-4.0,0
9.0,-250.0,-54.0,41.0,88.0,-3.0,0
7.0,-251.0,-56.0,41.0,91.0,-6.0,0
10.0,-253.0,-54.0,40.0,97.0,-4.0,0
4.0,-250.0,-58.0,37.0,99.0,-6.0,0
7.0,-253.0,-50.0,32.0,101.0,-5.0,0
8.0,-249.0,-56.0,27.0,102.0,-6.0,0
6.0,-253.0,-55.0,23.0,101.0,-5.0,0
6.0,-251.0,-54.0,20.0,97.0,-7.0,0
3.0,-250.0,-54.0,18.0,95.0,-5.0,0
5.0,-253.0,-55.0,14.0,92.0,-8.0,0
6.0,-250.0,-53.0,13.0,89.0,-6.0,0
5.0,-252.0,-52.0,7.0,87.0,-7.0,0
5.0,-251.0,-55.0,4.0,85.0,-5.0,0
8.0,-249.0,-56.0,1.0,84.0,-8.0,0
4.0,-251.0,-55.0,-2.0,84.0,-6.0,0
7.0,-252.0,-56.0,-5.0,82.0,-9.0,0
7.0,-252.0,-53.0,-9.0,82.0,-6.0,0
4.0,-251.0,-56.0,-11.0,83.0,-10.0,0
8.0,-251.0,-54.0,-14.0,83.0,-6.0,0
4.0,-253.0,-53.0,-15.0,82.0,-8.0,0
8.0,-254.0,-50.0,-17.0,81.0,-4.0,0
9.0,-252.0,-51.0,-18.0,80.0,-6.0,0
6.0,-252.0,-54.0,-20.0,82.0,-3.0,0
8.0,-250.0,-51.0,-24.0,81.0,-6.0,0
7.0,-250.0,-55.0,-26.0,80.0,-3.0,0
8.0,-253.0,-55.0,-27.0,82.0,-5.0,0
6.0,-252.0,-54.0,-26.0,83.0,-2.0,0
8.0,-251.0,-55.0,-27.0,85.0,-4.0,0
7.0,-252.0,-57.0,-26.0,84.0,-4.0,0
7.0,-251.0,-54.0,-26.0,83.0,-6.0,0
8.0,-250.0,-55.0,-24.0,82.0,-4.0,0
7.0,-250.0,-52.0,-22.0,80.0,-6.0,0
6.0,-251.0,-55.0,-22.0,78.0,-3.0,0
9.0,-254.0,-56.0,-20.0,76.0,-6.0,0
10.0,-250.0,-55.0,-21.0,75.0,-5.0,0
8.0,-252.0,-53.0,-19.0,74.0,-6.0,0
8.0,-253.0,-53.0,-20.0,73.0,-2.0,0
8.0,-252.0,-55.0,-21.0,72.0,-3.0,0
8.0,-254.0,-55.0,-24.0,71.0,-2.0,0
7.0,-252.0,-54.0,-26.0,70.0,-3.0,0
6.0,-251.0,-55.0,-28.0,68.0,-1.0,0
7.0,-251.0,-55.0,-33.0,68.0,-3.0,0
9.0,-251.0,-56.0,-35.0,66.0,-2.0,0
7.0,-247.0,-55.0,-34.0,62.0,-4.0,0
8.0,-250.0,-53.0,-32.0,59.0,-1.0,0
8.0,-253.0,-54.0,-29.0,56.0,-4.0,0
8.0,-252.0,-51.0,-24.0,53.0,-2.0,0
10.0,-254.0,-57.0,-20.0,48.0,-5.0,0
8.0,-252.0,-52.0,-16.0,48.0,-3.0,0
10.0,-252.0,-54.0,-12.0,47.0,-5.0,0
7.0,-252.0,-55.0,-7.0,45.0,-3.0,0
12.0,-251.0,-54.0,-5.0,45.0,-5.0,0
9.0,-249.0,-54.0,-6.0,49.0,-3.0,0
11.0,-248.0,-56.0,-9.0,49.0,-4.0,0
10.0,-251.0,-55.0,-12.0,51.0,-2.0,0
10.0,-253.0,-55.0,-15.0,54.0,-2.0,0
12.0,-250.0,-57.0,-18.0,58.0,-1.0,0
8.0,-251.0,-56.0,-20.0,62.0,-2.0,0
9.0,-252.0,-55.0,-20.0,63.0,-2.0,0
9.0,-253.0,-55.0,-19.0,66.0,-3.0,0
10.0,-254.0,-55.0,-19.0,67.0,-2.0,0
10.0,-254.0,-53.0,-16.0,65.0,-4.0,0
12.0,-252.0,-55.0,-12.0,66.0,-1.0,0
6.0,-249.0,-54.0,-6.0,65.0,-3.0,0
9.0,-253.0,-56.0,-1.0,64.0,-2.0,0
8.0,-251.0,-54.0,2.0,65.0,-4.0,0
6.0,-250.0,-54.0,7.0,66.0,-2.0,0
10.0,-252.0,-55.0,11.0,66.0,-4.0,0
8.0,-251.0,-56.0,11.0,67.0,-3.0,0
7.0,-251.0,-55.0,11.0,68.0,-5.0,0
7.0,-249.0,-55.0,9.0,70.0,-3.0,0
9.0,-253.0,-53.0,6.0,71.0,-5.0,0
8.0,-252.0,-52.0,3.0,70.0,-5.0,0
5.0,-249.0,-52.0,-2.0,71.0,-6.0,0
3.0,-250.0,-55.0,-10.0,71.0,-5.0,0
5.0,-252.0,-56.0,-14.0,69.0,-8.0,0
6.0,-253.0,-52.0,-19.0,67.0,-7.0,0
8.0,-254.0,-52.0,-20.0,67.0,-8.0,0
6.0,-252.0,-53.0,-23.0,65.0,-7.0,0
6.0,-253.0,-55.0,-22.0,63.0,-8.0,0
9.0,-253.0,-56.0,-19.0,63.0,-5.0,0
6.0,-253.0,-55.0,-16.0,62.0,-8.0,0
5.0,-250.0,-52.0,-11.0,59.0,-5.0,0
4.0,-250.0,-54.0,-8.0,58.0,-5.0,0
8.0,-252.0,-55.0,-4.0,56.0,-4.0,0
8.0,-252.0,-55.0,-2.0,56.0,-3.0,0
7.0,-251.0,-56.0,-4.0,55.0,-1.0,0
8.0,-251.0,-54.0,-4.0,55.0,-2.0,0
7.0,-248.0,-55.0,-6.0,55.0,0.0,0
6.0,-250.0,-53.0,-9.0,54.0,0.0,0
4.0,-248.0,-55.0,-14.0,52.0,3.0,0
7.0,-253.0,-59.0,-18.0,52.0,1.0,0
6.0,-253.0,-55.0,-22.0,53.0,3.0,0
6.0,-252.0,-54.0,-25.0,52.0,2.0,0
4.0,-255.0,-57.0,-24.0,49.0,1.0,0
7.0,-253.0,-51.0,-21.0,49.0,-1.0,0
7.0,-251.0,-53.0,-19.0,47.0,-1.0,0
8.0,-255.0,-51.0,-16.0,45.0,-3.0,0
3.0,-252.0,-53.0,-9.0,43.0,-3.0,0
9.0,-252.0,-53.0,-4.0,41.0,-3.0,0
6.0,-253.0,-55.0,3.0,38.0,-4.0,0
4.0,-252.0,-54.0,7.0,36.0,-5.0,0
7.0,-250.0,-56.0,11.0,35.0,-4.0,0
5.0,-252.0,-53.0,10.0,34.0,-5.0,0
8.0,-252.0,-53.0,9.0,34.0,-5.0,0
7.0,-249.0,-56.0,3.0,34.0,-6.0,0
8.0,-254.0,-53.0,-4.0,35.0,-4.0,0
8.0,-253.0,-55.0,-7.0,37.0,-4.0,0
10.0,-251.0,-53.0,-12.0,38.0,-2.0,0
8.0,-251.0,-50.0,-15.0,38.0,-2.0,0
6.0,-250.0,-54.0,-18.0,40.0,-1.0,0
9.0,-253.0,-56.0,-21.0,43.0,-2.0,0
5.0,-250.0,-53.0,-21.0,41.0,0.0,0
6.0,-250.0,-52.0,-24.0,39.0,-1.0,0
7.0,-252.0,-53.0,-26.0,38.0,0.0,0
7.0,-250.0,-52.0,-25.0,33.0,1.0,0
7.0,-252.0,-55.0,-24.0,31.0,0.0,0
6.0,-252.0,-53.0,-21.0,29.0,0.0,0
9.0,-251.0,-55.0,-18.0,30.0,2.0,0
-1.0,-245.0,-49.0,-17.0,30.0,1.0,0
5.0,-250.0,-54.0,-17.0,30.0,1.0,0
7.0,-251.0,-56.0,-15.0,30.0,0.0,0
10.0,-264.0,-52.0,-16.0,30.0,0.0,0
9.0,-251.0,-56.0,-19.0,32.0,-3.0,0
15.0,-254.0,-47.0,-18.0,32.0,-1.0,0
15.0,-259.0,-57.0,-18.0,33.0,-3.0,0
1.0,-250.0,-56.0,-17.0,33.0,-4.0,0
12.0,-251.0,-60.0,-16.0,34.0,-4.0,0
9.0,-251.0,-52.0,-16.0,36.0,-3.0,0
7.0,-257.0,-51.0,-14.0,36.0,-3.0,0
15.0,-251.0,-59.0,-12.0,37.0,-1.0,0
24.0,-252.0,-63.0,-9.0,38.0,-3.0,0
15.0,-250.0,-56.0,-7.0,40.0,-1.0,0
15.0,-244.0,-57.0,-5.0,40.0,-2.0,0
13.0,-254.0,-51.0,-3.0,41.0,0.0,0
10.0,-247.0,-55.0,-2.0,41.0,0.0,0
3.0,-251.0,-56.0,-1.0,42.0,3.0,0
10.0,-247.0,-48.0,1.0,44.0,4.0,0
7.0,-252.0,-51.0,-1.0,46.0,4.0,0
14.0,-252.0,-49.0,0.0,49.0,2.0,0
8.0,-261.0,-49.0,0.0,50.0,3.0,0
10.0,-247.0,-51.0,-1.0,53.0,3.0,0
6.0,-251.0,-42.0,-1.0,55.0,4.0,0
10.0,-252.0,-52.0,-1.0,57.0,3.0,0
8.0,-251.0,-51.0,-3.0,61.0,4.0,0
13.0,-248.0,-54.0,-4.0,62.0,1.0,0
11.0,-253.0,-53.0,-7.0,62.0,3.0,0
12.0,-251.0,-53.0,-8.0,65.0,0.0,0
9.0,-251.0,-52.0,-8.0,66.0,3.0,0
9.0,-254.0,-52.0,-7.0,64.0,2.0,0
12.0,-254.0,-48.0,-5.0,63.0,3.0,0
8.0,-249.0,-47.0,-4.0,62.0,3.0,0
8.0,-256.0,-48.0,-1.0,59.0,2.0,0
10.0,-251.0,-50.0,3.0,58.0,2.0,0
11.0,-255.0,-44.0,5.0,54.0,4.0,0
-1.0,-254.0,-63.0,10.0,52.0,3.0,0
10.0,-250.0,-53.0,13.0,49.0,4.0,0
6.0,-253.0,-55.0,13.0,51.0,2.0,0
9.0,-246.0,-65.0,15.0,50.0,2.0,0
10.0,-249.0,-54.0,14.0,52.0,1.0,0
14.0,-246.0,-57.0,10.0,52.0,0.0,0
3.0,-241.0,-49.0,3.0,51.0,-2.0,0
8.0,-247.0,-61.0,-7.0,50.0,-2.0,0
12.0,-240.0,-63.0,-21.0,49.0,-4.0,0
1.0,-245.0,-74.0,-33.0,48.0,-3.0,0
0.0,-244.0,-53.0,-49.0,46.0,-5.0,0
7.0,-252.0,-50.0,-65.0,44.0,-3.0,0
8.0,-246.0,-61.0,-83.0,41.0,-4.0,0
7.0,-251.0,-51.0,-98.0,40.0,-4.0,0
7.0,-240.0,-61.0,-117.0,35.0,-4.0,0
