ax,ay,az,gx,gy,gz,label
-12.0,-255.0,25.0,15.0,22.0,9.0,0
-9.0,-256.0,23.0,17.0,23.0,13.0,0
-8.0,-258.0,26.0,18.0,23.0,15.0,0
-7.0,-256.0,22.0,22.0,27.0,14.0,0
-10.0,-257.0,24.0,27.0,30.0,14.0,0
-6.0,-257.0,25.0,32.0,33.0,15.0,0
-11.0,-255.0,27.0,36.0,35.0,16.0,0
-9.0,-254.0,25.0,40.0,34.0,16.0,0
-6.0,-256.0,24.0,41.0,36.0,19.0,0
-6.0,-255.0,25.0,41.0,38.0,18.0,0
-3.0,-259.0,25.0,40.0,40.0,19.0,0
-4.0,-256.0,24.0,38.0,39.0,19.0,0
-2.0,-253.0,29.0,36.0,40.0,19.0,0
-7.0,-253.0,28.0,32.0,41.0,18.0,0
-8.0,-251.0,30.0,27.0,42.0,17.0,0
-5.0,-253.0,19.0,19.0,42.0,16.0,0
-6.0,-248.0,33.0,11.0,44.0,13.0,0
-9.0,-248.0,32.0,6.0,45.0,12.0,0
-8.0,-250.0,32.0,-4.0,47.0,12.0,0
-9.0,-249.0,34.0,-11.0,47.0,11.0,0
-6.0,-253.0,35.0,-17.0,45.0,12.0,0
-8.0,-249.0,31.0,-21.0,46.0,11.0,0
-10.0,-255.0,31.0,-22.0,46.0,11.0,0
-9.0,-255.0,29.0,-20.0,47.0,9.0,0
-13.0,-253.0,30.0,-19.0,46.0,7.0,0
-3.0,-254.0,31.0,-18.0,43.0,6.0,0
-11.0,-251.0,30.0,-19.0,42.0,5.0,0
-9.0,-253.0,28.0,-20.0,40.0,4.0,0
-12.0,-250.0,31.0,-23.0,39.0,2.0,0
-8.0,-253.0,25.0,-27.0,41.0,1.0,0
-10.0,-254.0,32.0,-29.0,40.0,2.0,0
-11.0,-251.0,31.0,-31.0,39.0,3.0,0
-5.0,-254.0,29.0,-30.0,39.0,3.0,0
-9.0,-252.0,28.0,-29.0,42.0,3.0,0
-8.0,-250.0,28.0,-29.0,45.0,2.0,0
-7.0,-252.0,26.0,-30.0,48.0,0.0,0
-7.0,-254.0,27.0,-37.0,48.0,-2.0,0
-6.0,-248.0,26.0,-46.0,50.0,-2.0,0
-4.0,-254.0,28.0,-52.0,54.0,-5.0,0
-7.0,-252.0,26.0,-53.0,56.0,-6.0,0
-8.0,-250.0,36.0,-55.0,58.0,-7.0,0
-9.0,-254.0,30.0,-56.0,60.0,-10.0,0
-5.0,-252.0,30.0,-53.0,63.0,-12.0,0
-4.0,-256.0,28.0,-50.0,69.0,-16.0,0
-6.0,-251.0,29.0,-47.0,75.0,-17.0,0
-9.0,-249.0,28.0,-44.0,78.0,-18.0,0
-8.0,-251.0,28.0,-45.0,79.0,-20.0,0
-7.0,-252.0,32.0,-44.0,82.0,-20.0,0
-3.0,-264.0,23.0,-45.0,85.0,-17.0,0
-3.0,-254.0,29.0,-43.0,90.0,-18.0,0
-5.0,-253.0,32.0,-41.0,95.0,-19.0,0
-5.0,-254.0,33.0,-38.0,100.0,-20.0,0
-9.0,-251.0,33.0,-38.0,105.0,-23.0,0
-7.0,-253.0,35.0,-38.0,109.0,-24.0,0
-8.0,-250.0,38.0,-39.0,112.0,-24.0,0
-6.0,-251.0,33.0,-39.0,113.0,-25.0,0
-5.0,-252.0,35.0,-41.0,119.0,-28.0,0
-7.0,-250.0,32.0,-42.0,127.0,-30.0,0
-6.0,-251.0,31.0,-42.0,135.0,-32.0,0
-6.0,-257.0,20.0,-42.0,138.0,-34.0,0
-1.0,-253.0,33.0,-41.0,140.0,-36.0,0
-3.0,-249.0,38.0,-39.0,146.0,-36.0,0
-8.0,-259.0,33.0,-39.0,150.0,-36.0,0
-2.0,-265.0,15.0,-38.0,152.0,-36.0,0
-17.0,-256.0,16.0,-35.0,153.0,-37.0,0
-6.0,-247.0,27.0,-33.0,153.0,-37.0,0
-2.0,-247.0,57.0,-32.0,152.0,-37.0,0
-8.0,-257.0,22.0,-31.0,152.0,-38.0,0
-2.0,-250.0,38.0,-30.0,154.0,-41.0,0
-16.0,-263.0,16.0,-28.0,156.0,-41.0,0
-12.0,-251.0,28.0,-26.0,155.0,-41.0,0
-12.0,-253.0,27.0,-22.0,156.0,-42.0,0
-9.0,-252.0,26.0,-20.0,157.0,-39.0,0
-10.0,-255.0,25.0,-20.0,155.0,-36.0,0
-9.0,-254.0,34.0,-20.0,156.0,-35.0,0
-15.0,-255.0,21.0,-19.0,156.0,-34.0,0
-20.0,-264.0,44.0,-18.0,152.0,-34.0,0
-17.0,-254.0,18.0,-15.0,150.0,-33.0,0
-3.0,-251.0,11.0,-12.0,147.0,-33.0,0
-15.0,-271.0,36.0,-10.0,142.0,-31.0,0
-19.0,-261.0,27.0,-9.0,141.0,-29.0,0
-11.0,-242.0,21.0,-9.0,139.0,-30.0,0
-12.0,-260.0,27.0,-7.0,137.0,-31.0,0
-13.0,-248.0,31.0,-5.0,137.0,-30.0,0
-17.0,-248.0,24.0,-3.0,136.0,-32.0,0
-14.0,-253.0,31.0,-1.0,133.0,-32.0,0
-15.0,-254.0,25.0,1.0,129.0,-31.0,0
-16.0,-251.0,32.0,0.0,124.0,-31.0,0
-13.0,-252.0,33.0,-2.0,122.0,-29.0,0
-24.0,-258.0,26.0,-3.0,116.0,-28.0,0
-18.0,-258.0,30.0,-5.0,111.0,-26.0,0
-12.0,-252.0,29.0,-5.0,107.0,-24.0,0
-13.0,-251.0,24.0,-2.0,101.0,-22.0,0
-22.0,-255.0,32.0,1.0,95.0,-20.0,0
-21.0,-256.0,25.0,2.0,89.0,-16.0,0
-14.0,-260.0,29.0,3.0,84.0,-16.0,0
-13.0,-259.0,34.0,4.0,81.0,-15.0,0
-17.0,-252.0,28.0,3.0,75.0,-13.0,0
-23.0,-254.0,29.0,0.0,68.0,-11.0,0
-21.0,-250.0,25.0,-2.0,61.0,-8.0,0
-19.0,-252.0,30.0,-1.0,56.0,-4.0,0
-16.0,-252.0,27.0,1.0,51.0,-3.0,0
-18.0,-254.0,27.0,4.0,44.0,-1.0,0
-17.0,-250.0,29.0,6.0,37.0,1.0,0
-15.0,-258.0,20.0,7.0,33.0,3.0,0
-12.0,-251.0,34.0,7.0,27.0,5.0,0
-10.0,-251.0,34.0,4.0,22.0,8.0,0
-8.0,-260.0,31.0,2.0,17.0,10.0,0
-10.0,-249.0,25.0,4.0,13.0,11.0,0
-13.0,-251.0,28.0,4.0,9.0,13.0,0
-11.0,-256.0,21.0,6.0,5.0,13.0,0
-15.0,-253.0,19.0,6.0,1.0,14.0,0
-19.0,-254.0,35.0,7.0,0.0,13.0,0
-14.0,-252.0,27.0,6.0,0.0,13.0,0
-15.0,-256.0,30.0,5.0,1.0,14.0,0
-10.0,-251.0,26.0,3.0,-2.0,15.0,0
-9.0,-253.0,30.0,1.0,-5.0,16.0,0
-9.0,-255.0,27.0,0.0,-6.0,15.0,0
-9.0,-253.0,28.0,2.0,-4.0,17.0,0
-11.0,-241.0,26.0,2.0,-2.0,16.0,0
-12.0,-250.0,24.0,2.0,-2.0,17.0,0
-10.0,-253.0,26.0,2.0,-3.0,18.0,0
-7.0,-249.0,31.0,-1.0,-4.0,17.0,0
-7.0,-253.0,24.0,-4.0,-3.0,16.0,0
-4.0,-247.0,25.0,-5.0,1.0,13.0,0
-8.0,-256.0,25.0,-9.0,4.0,12.0,0
-12.0,-251.0,24.0,-13.0,7.0,11.0,0
-6.0,-252.0,33.0,-17.0,13.0,11.0,0
-9.0,-246.0,31.0,-17.0,16.0,9.0,0
-8.0,-256.0,40.0,-17.0,19.0,9.0,0
-2.0,-253.0,33.0,-15.0,21.0,9.0,0
-5.0,-254.0,25.0,-15.0,23.0,9.0,0
-7.0,-254.0,27.0,-17.0,27.0,8.0,0
-8.0,-253.0,29.0,-17.0,29.0,7.0,0
-9.0,-252.0,27.0,-17.0,33.0,7.0,0
-7.0,-263.0,24.0,-17.0,35.0,5.0,0
-5.0,-252.0,32.0,-18.0,38.0,3.0,0
-9.0,-251.0,27.0,-18.0,43.0,1.0,0
-3.0,-249.0,29.0,-20.0,45.0,0.0,0
-6.0,-256.0,23.0,-23.0,48.0,-1.0,0
-3.0,-251.0,29.0,-24.0,51.0,-1.0,0
-11.0,-254.0,34.0,-22.0,54.0,0.0,0
-11.0,-252.0,24.0,-21.0,54.0,-2.0,0
-7.0,-251.0,23.0,-21.0,55.0,-2.0,0
-12.0,-252.0,32.0,-23.0,57.0,-2.0,0
-7.0,-239.0,15.0,-26.0,58.0,-2.0,0
-10.0,-253.0,28.0,-29.0,61.0,-2.0,0
-9.0,-254.0,25.0,-33.0,61.0,-3.0,0
-9.0,-255.0,31.0,-34.0,60.0,-2.0,0
-7.0,-256.0,33.0,-32.0,63.0,-3.0,0
-4.0,-256.0,34.0,-28.0,62.0,-6.0,0
-10.0,-260.0,34.0,-24.0,63.0,-6.0,0
-18.0,-255.0,32.0,-21.0,60.0,-6.0,0
-10.0,-258.0,23.0,-24.0,59.0,-6.0,0
-11.0,-256.0,26.0,-25.0,62.0,-5.0,0
-15.0,-253.0,30.0,-29.0,61.0,-5.0,0
-13.0,-251.0,27.0,-29.0,59.0,-5.0,0
-9.0,-255.0,23.0,-28.0,56.0,-4.0,0
-7.0,-257.0,34.0,-28.0,57.0,-3.0,0
-10.0,-258.0,25.0,-27.0,57.0,-2.0,0
-12.0,-252.0,23.0,-27.0,57.0,-1.0,0
-8.0,-254.0,22.0,-26.0,56.0,1.0,0
-9.0,-255.0,24.0,-23.0,56.0,0.0,0
-18.0,-271.0,42.0,-19.0,57.0,1.0,0
-9.0,-256.0,29.0,-18.0,55.0,1.0,0
-5.0,-257.0,29.0,-17.0,54.0,1.0,0
-10.0,-255.0,24.0,-17.0,53.0,3.0,0
-9.0,-257.0,28.0,-14.0,54.0,2.0,0
-12.0,-253.0,28.0,-9.0,52.0,3.0,0
-12.0,-253.0,25.0,-5.0,50.0,3.0,0
-12.0,-250.0,33.0,-4.0,47.0,4.0,0
-10.0,-249.0,25.0,-8.0,45.0,4.0,0
-9.0,-254.0,24.0,-14.0,43.0,5.0,0
-8.0,-249.0,24.0,-20.0,45.0,5.0,0
-11.0,-254.0,28.0,-24.0,45.0,3.0,0
-10.0,-256.0,27.0,-28.0,45.0,4.0,0
-12.0,-254.0,25.0,-28.0,46.0,3.0,0
-8.0,-252.0,26.0,-25.0,47.0,4.0,0
-7.0,-256.0,28.0,-22.0,50.0,4.0,0
-7.0,-253.0,27.0,-19.0,52.0,4.0,0
-8.0,-254.0,24.0,-20.0,54.0,5.0,0
-7.0,-254.0,27.0,-25.0,58.0,4.0,0
-9.0,-254.0,28.0,-29.0,58.0,5.0,0
-10.0,-254.0,23.0,-30.0,59.0,4.0,0
-8.0,-255.0,28.0,-29.0,59.0,2.0,0
-7.0,-256.0,29.0,-29.0,57.0,1.0,0
-8.0,-255.0,28.0,-27.0,57.0,-1.0,0
-9.0,-253.0,27.0,-28.0,57.0,-2.0,0
-9.0,-254.0,27.0,-28.0,59.0,-2.0,0
-8.0,-254.0,25.0,-25.0,61.0,-1.0,0
-18.0,-258.0,18.0,-23.0,63.0,1.0,0
-8.0,-253.0,23.0,-24.0,64.0,-1.0,0
-9.0,-250.0,25.0,-25.0,64.0,1.0,0
-3.0,-253.0,23.0,-28.0,65.0,1.0,0
-10.0,-255.0,24.0,-30.0,66.0,0.0,0
-7.0,-255.0,31.0,-33.0,67.0,1.0,0
-9.0,-255.0,26.0,-36.0,69.0,0.0,0
-9.0,-255.0,29.0,-36.0,70.0,0.0,0
-7.0,-258.0,29.0,-32.0,71.0,-1.0,0
-14.0,-253.0,28.0,-29.0,68.0,-2.0,0
-6.0,-254.0,26.0,-25.0,67.0,-5.0,0
-8.0,-251.0,27.0,-24.0,67.0,-5.0,0
-11.0,-252.0,24.0,-24.0,69.0,-4.0,0
-10.0,-251.0,27.0,-25.0,68.0,-4.0,0
-10.0,-253.0,28.0,-30.0,69.0,-3.0,0
-9.0,-255.0,32.0,-34.0,73.0,-1.0,0
-11.0,-253.0,28.0,-31.0,74.0,1.0,0
-9.0,-256.0,25.0,-30.0,75.0,1.0,0
-7.0,-253.0,23.0,-27.0,77.0,-1.0,0
-9.0,-256.0,31.0,-24.0,74.0,-1.0,0
-10.0,-255.0,28.0,-23.0,75.0,-2.0,0
-7.0,-256.0,26.0,-22.0,76.0,-2.0,0
-7.0,-254.0,27.0,-21.0,74.0,-2.0,0
-8.0,-255.0,26.0,-20.0,73.0,-2.0,0
-13.0,-250.0,26.0,-17.0,72.0,-3.0,0
-11.0,-253.0,24.0,-17.0,72.0,-1.0,0
-10.0,-254.0,29.0,-18.0,72.0,0.0,0
-10.0,-252.0,28.0,-19.0,69.0,1.0,0
-10.0,-253.0,30.0,-22.0,70.0,2.0,0
-12.0,-256.0,28.0,-23.0,71.0,1.0,0
-11.0,-253.0,28.0,-24.0,69.0,1.0,0
-12.0,-254.0,31.0,-26.0,70.0,0.0,0
-7.0,-252.0,32.0,-26.0,70.0,1.0,0
-8.0,-255.0,28.0,-28.0,70.0,0.0,0
-11.0,-252.0,28.0,-26.0,71.0,1.0,0
-8.0,-256.0,28.0,-26.0,69.0,1.0,0
-9.0,-252.0,28.0,-27.0,66.0,1.0,0
-6.0,-252.0,29.0,-29.0,64.0,1.0,0
-9.0,-252.0,29.0,-33.0,62.0,1.0,0
-10.0,-248.0,28.0,-34.0,61.0,0.0,0
-10.0,-251.0,29.0,-35.0,62.0,-1.0,0
-13.0,-251.0,27.0,-35.0,59.0,0.0,0
-9.0,-254.0,30.0,-35.0,58.0,0.0,0
-8.0,-252.0,26.0,-35.0,60.0,1.0,0
-12.0,-253.0,24.0,-36.0,60.0,1.0,0
-11.0,-252.0,26.0,-37.0,61.0,2.0,0
-9.0,-255.0,29.0,-38.0,60.0,3.0,0
-11.0,-252.0,24.0,-39.0,58.0,2.0,0
-11.0,-253.0,26.0,-40.0,58.0,3.0,0
-8.0,-256.0,23.0,-41.0,59.0,3.0,0
-11.0,-258.0,29.0,-42.0,61.0,1.0,0
-12.0,-252.0,29.0,-40.0,59.0,1.0,0
-9.0,-255.0,30.0,-38.0,56.0,0.0,0
-11.0,-253.0,26.0,-39.0,52.0,-3.0,0
-10.0,-257.0,29.0,-43.0,50.0,-2.0,0
-11.0,-256.0,27.0,-43.0,49.0,-1.0,0
-11.0,-256.0,28.0,-41.0,48.0,0.0,0
-16.0,-251.0,29.0,-37.0,45.0,3.0,0
-12.0,-252.0,28.0,-35.0,42.0,5.0,0
-11.0,-253.0,29.0,-36.0,39.0,6.0,0
-12.0,-256.0,28.0,-37.0,39.0,9.0,0
-11.0,-250.0,29.0,-40.0,39.0,10.0,0
-8.0,-252.0,31.0,-42.0,40.0,11.0,0
-10.0,-255.0,28.0,-44.0,40.0,11.0,0
-10.0,-254.0,27.0,-45.0,40.0,10.0,0
-5.0,-250.0,26.0,-44.0,42.0,10.0,0
-8.0,-255.0,28.0,-41.0,44.0,9.0,0
-10.0,-256.0,25.0,-36.0,46.0,7.0,0
-10.0,-254.0,25.0,-32.0,46.0,6.0,0
-11.0,-255.0,26.0,-30.0,44.0,5.0,0
-12.0,-255.0,24.0,-30.0,45.0,5.0,0
-7.0,-255.0,26.0,-30.0,47.0,5.0,0
-14.0,-252.0,22.0,-31.0,47.0,6.0,0
-6.0,-256.0,28.0,-32.0,47.0,6.0,0
-10.0,-254.0,24.0,-31.0,47.0,6.0,0
-12.0,-253.0,27.0,-31.0,48.0,7.0,0
-7.0,-255.0,27.0,-29.0,50.0,7.0,0
-9.0,-258.0,27.0,-25.0,53.0,5.0,0
-13.0,-253.0,22.0,-23.0,54.0,4.0,0
-12.0,-254.0,22.0,-23.0,56.0,4.0,0
-11.0,-252.0,27.0,-24.0,57.0,4.0,0
-10.0,-253.0,21.0,-24.0,55.0,4.0,0
-11.0,-254.0,24.0,-26.0,53.0,4.0,0
-9.0,-256.0,26.0,-28.0,52.0,4.0,0
-9.0,-256.0,23.0,-27.0,54.0,4.0,0
-12.0,-254.0,27.0,-28.0,55.0,4.0,0
-10.0,-255.0,24.0,-25.0,55.0,4.0,0
-6.0,-252.0,21.0,-24.0,54.0,4.0,0
-11.0,-252.0,24.0,-22.0,54.0,4.0,0
-12.0,-256.0,28.0,-23.0,54.0,3.0,0
-12.0,-253.0,23.0,-20.0,53.0,3.0,0
-12.0,-258.0,25.0,-19.0,52.0,4.0,0
-11.0,-252.0,24.0,-19.0,50.0,6.0,0
-12.0,-254.0,27.0,-20.0,50.0,6.0,0
-9.0,-254.0,25.0,-20.0,47.0,8.0,0
-11.0,-257.0,29.0,-19.0,45.0,7.0,0
-11.0,-254.0,24.0,-19.0,44.0,8.0,0
-11.0,-254.0,23.0,-19.0,43.0,9.0,0
-11.0,-253.0,23.0,-19.0,44.0,11.0,0
-11.0,-254.0,25.0,-22.0,47.0,10.0,0
-10.0,-258.0,27.0,-24.0,47.0,8.0,0
-12.0,-255.0,22.0,-23.0,48.0,7.0,0
-10.0,-256.0,25.0,-23.0,48.0,6.0,0
-8.0,-253.0,23.0,-20.0,50.0,6.0,0
-10.0,-256.0,24.0,-17.0,52.0,6.0,0
-9.0,-253.0,27.0,-12.0,55.0,6.0,0
-12.0,-251.0,25.0,-10.0,56.0,5.0,0
-9.0,-254.0,25.0,-10.0,54.0,4.0,0
-8.0,-250.0,27.0,-13.0,51.0,3.0,0
-8.0,-260.0,38.0,-19.0,51.0,3.0,0
-9.0,-251.0,25.0,-26.0,50.0,2.0,0
-12.0,-253.0,24.0,-34.0,50.0,3.0,0
-14.0,-250.0,23.0,-37.0,49.0,4.0,0
-11.0,-252.0,23.0,-37.0,50.0,4.0,0
-10.0,-251.0,25.0,-34.0,51.0,5.0,0
-7.0,-256.0,26.0,-33.0,52.0,5.0,0
-12.0,-255.0,26.0,-30.0,57.0,4.0,0
-8.0,-255.0,25.0,-31.0,59.0,3.0,0
-11.0,-251.0,28.0,-32.0,62.0,0.0,0
-12.0,-254.0,25.0,-38.0,63.0,-2.0,0
-8.0,-251.0,27.0,-40.0,64.0,-4.0,0
-6.0,-252.0,22.0,-42.0,66.0,-5.0,0
-9.0,-253.0,27.0,-40.0,69.0,-5.0,0
-11.0,-253.0,23.0,-38.0,66.0,-5.0,0
-10.0,-256.0,24.0,-39.0,65.0,-4.0,0
-13.0,-252.0,22.0,-39.0,63.0,-6.0,0
-10.0,-254.0,25.0,-39.0,63.0,-6.0,0
-9.0,-255.0,21.0,-36.0,62.0,-6.0,0
-8.0,-253.0,23.0,-34.0,64.0,-5.0,0
-12.0,-258.0,20.0,-30.0,65.0,-5.0,0
-7.0,-254.0,30.0,-29.0,65.0,-4.0,0
-14.0,-251.0,24.0,-27.0,66.0,-2.0,0
-11.0,-255.0,22.0,-28.0,69.0,-4.0,0
-12.0,-252.0,25.0,-28.0,69.0,-2.0,0
-10.0,-256.0,27.0,-28.0,67.0,-1.0,0
-11.0,-255.0,24.0,-26.0,67.0,-1.0,0
-10.0,-252.0,24.0,-24.0,66.0,-3.0,0
-12.0,-254.0,23.0,-22.0,68.0,-4.0,0
-8.0,-253.0,21.0,-25.0,68.0,-4.0,0
-9.0,-255.0,28.0,-28.0,69.0,-4.0,0
-9.0,-253.0,23.0,-30.0,71.0,-4.0,0
-7.0,-256.0,27.0,-31.0,71.0,-5.0,0
-7.0,-254.0,25.0,-27.0,73.0,-5.0,0
-11.0,-256.0,23.0,-22.0,74.0,-7.0,0
-10.0,-256.0,25.0,-19.0,75.0,-6.0,0
-10.0,-255.0,23.0,-21.0,77.0,-5.0,0
-9.0,-255.0,22.0,-22.0,80.0,-6.0,0
-7.0,-255.0,24.0,-25.0,84.0,-7.0,0
-12.0,-251.0,26.0,-26.0,84.0,-6.0,0
-6.0,-254.0,21.0,-26.0,86.0,-4.0,0
-7.0,-253.0,21.0,-25.0,86.0,-4.0,0
-9.0,-253.0,19.0,-23.0,85.0,-3.0,0
-11.0,-253.0,18.0,-23.0,85.0,-1.0,0
-9.0,-256.0,24.0,-21.0,84.0,-2.0,0
-10.0,-258.0,27.0,-21.0,86.0,-3.0,0
-12.0,-255.0,22.0,-22.0,87.0,-5.0,0
-10.0,-257.0,23.0,-20.0,85.0,-6.0,0
-12.0,-253.0,24.0,-17.0,82.0,-7.0,0
-13.0,-251.0,25.0,-15.0,84.0,-7.0,0
-11.0,-256.0,24.0,-14.0,82.0,-8.0,0
-13.0,-254.0,26.0,-14.0,85.0,-9.0,0
-16.0,-252.0,22.0,-16.0,85.0,-8.0,0
-16.0,-254.0,24.0,-16.0,84.0,-8.0,0
-17.0,-252.0,25.0,-20.0,83.0,-6.0,0
-9.0,-256.0,23.0,-20.0,81.0,-3.0,0
-13.0,-254.0,24.0,-20.0,77.0,-2.0,0
-8.0,-254.0,24.0,-21.0,75.0,-1.0,0
-14.0,-255.0,23.0,-22.0,71.0,-1.0,0
-15.0,-253.0,23.0,-21.0,67.0,2.0,0
-15.0,-255.0,25.0,-22.0,63.0,2.0,0
-12.0,-255.0,22.0,-24.0,59.0,3.0,0
-14.0,-252.0,24.0,-25.0,54.0,6.0,0
-13.0,-253.0,24.0,-28.0,49.0,6.0,0
-12.0,-258.0,23.0,-29.0,45.0,8.0,0
-9.0,-256.0,27.0,-31.0,41.0,10.0,0
-13.0,-257.0,22.0,-33.0,38.0,14.0,0
-15.0,-254.0,21.0,-31.0,33.0,14.0,0
-17.0,-254.0,22.0,-30.0,28.0,14.0,0
-12.0,-255.0,20.0,-31.0,21.0,15.0,0
-15.0,-255.0,19.0,-32.0,14.0,16.0,0
-16.0,-257.0,23.0,-32.0,7.0,18.0,0
-16.0,-252.0,14.0,-33.0,1.0,20.0,0
-15.0,-258.0,21.0,-33.0,-6.0,23.0,0
-18.0,-252.0,25.0,-33.0,-13.0,27.0,0
-18.0,-253.0,25.0,-37.0,-21.0,31.0,0
-18.0,-251.0,22.0,-38.0,-28.0,35.0,0
-13.0,-254.0,19.0,-42.0,-31.0,37.0,0
-14.0,-255.0,16.0,-45.0,-35.0,39.0,0
-14.0,-255.0,20.0,-46.0,-37.0,40.0,0
-14.0,-254.0,21.0,-47.0,-36.0,40.0,0
-14.0,-256.0,21.0,-47.0,-37.0,38.0,0
-10.0,-258.0,21.0,-47.0,-38.0,37.0,0
-15.0,-254.0,18.0,-46.0,-43.0,38.0,0
-13.0,-254.0,20.0,-47.0,-48.0,38.0,0
-15.0,-253.0,19.0,-47.0,-52.0,40.0,0
-14.0,-251.0,23.0,-48.0,-55.0,43.0,0
-12.0,-252.0,26.0,-47.0,-60.0,42.0,0
-12.0,-252.0,20.0,-46.0,-66.0,42.0,0
-14.0,-254.0,22.0,-46.0,-69.0,43.0,0
-17.0,-253.0,23.0,-45.0,-71.0,43.0,0
-15.0,-254.0,22.0,-46.0,-72.0,43.0,0
-16.0,-255.0,19.0,-47.0,-74.0,42.0,0
-16.0,-257.0,20.0,-49.0,-75.0,41.0,0
-14.0,-253.0,23.0,-51.0,-75.0,41.0,0
-16.0,-253.0,20.0,-52.0,-73.0,41.0,0
-13.0,-255.0,20.0,-54.0,-72.0,43.0,0
-13.0,-256.0,20.0,-57.0,-72.0,43.0,0
-12.0,-255.0,20.0,-59.0,-71.0,44.0,0
-12.0,-254.0,24.0,-60.0,-71.0,47.0,0
-12.0,-253.0,21.0,-58.0,-73.0,48.0,0
-12.0,-259.0,21.0,-54.0,-74.0,49.0,0
-10.0,-255.0,21.0,-52.0,-76.0,50.0,0
-7.0,-255.0,19.0,-54.0,-76.0,50.0,0
-9.0,-256.0,21.0,-60.0,-74.0,49.0,0
-12.0,-256.0,17.0,-66.0,-69.0,49.0,0
-14.0,-253.0,17.0,-68.0,-68.0,46.0,0
-13.0,-250.0,18.0,-67.0,-68.0,48.0,0
-11.0,-253.0,16.0,-67.0,-69.0,48.0,0
-14.0,-259.0,8.0,-69.0,-67.0,48.0,0
-6.0,-253.0,11.0,-76.0,-65.0,48.0,0
-10.0,-250.0,13.0,-88.0,-62.0,46.0,0
-9.0,-251.0,16.0,-99.0,-57.0,44.0,0
-10.0,-253.0,14.0,-108.0,-56.0,43.0,0
-12.0,-256.0,19.0,-114.0,-56.0,41.0,0
-11.0,-256.0,17.0,-117.0,-58.0,41.0,0
-13.0,-257.0,18.0,-115.0,-60.0,39.0,0
-12.0,-257.0,20.0,-110.0,-60.0,38.0,0
-13.0,-256.0,22.0,-101.0,-58.0,36.0,0
-14.0,-254.0,17.0,-95.0,-58.0,35.0,0
-14.0,-252.0,15.0,-94.0,-62.0,34.0,0
-13.0,-253.0,16.0,-94.0,-69.0,36.0,0
-16.0,-250.0,20.0,-97.0,-75.0,38.0,0
-17.0,-250.0,16.0,-104.0,-81.0,40.0,0
-18.0,-251.0,17.0,-113.0,-84.0,43.0,0
-17.0,-255.0,19.0,-120.0,-89.0,46.0,0
-18.0,-252.0,14.0,-124.0,-97.0,49.0,0
-24.0,-251.0,13.0,-127.0,-101.0,52.0,0
-22.0,-252.0,17.0,-130.0,-107.0,54.0,0
-24.0,-251.0,14.0,-134.0,-114.0,58.0,0
-17.0,-255.0,21.0,-136.0,-121.0,59.0,0
-21.0,-254.0,16.0,-136.0,-129.0,59.0,0
-20.0,-251.0,19.0,-134.0,-136.0,58.0,0
-23.0,-250.0,18.0,-132.0,-143.0,57.0,0
-19.0,-252.0,20.0,-132.0,-148.0,56.0,0
-20.0,-253.0,21.0,-134.0,-155.0,57.0,0
-24.0,-251.0,20.0,-139.0,-162.0,59.0,0
-20.0,-253.0,21.0,-142.0,-169.0,58.0,0
-20.0,-255.0,20.0,-139.0,-171.0,59.0,0
-19.0,-254.0,23.0,-134.0,-173.0,58.0,0
-20.0,-253.0,18.0,-127.0,-173.0,56.0,0
-18.0,-258.0,22.0,-125.0,-174.0,56.0,0
-17.0,-258.0,21.0,-125.0,-175.0,57.0,0
-15.0,-258.0,23.0,-124.0,-174.0,57.0,0
-17.0,-262.0,23.0,-118.0,-173.0,57.0,0
-15.0,-260.0,21.0,-105.0,-170.0,56.0,0
-16.0,-261.0,23.0,-93.0,-167.0,54.0,0
-14.0,-259.0,19.0,-82.0,-167.0,55.0,0
-12.0,-256.0,18.0,-74.0,-166.0,56.0,0
-15.0,-252.0,14.0,-73.0,-169.0,59.0,0
-15.0,-251.0,18.0,-76.0,-171.0,62.0,0
-12.0,-250.0,12.0,-83.0,-172.0,64.0,0
-14.0,-252.0,8.0,-93.0,-173.0,68.0,0
-14.0,-250.0,10.0,-106.0,-176.0,69.0,0
-13.0,-255.0,12.0,-114.0,-173.0,66.0,0
-7.0,-252.0,13.0,-116.0,-163.0,61.0,0
-11.0,-251.0,14.0,-111.0,-147.0,56.0,0
-10.0,-252.0,11.0,-108.0,-132.0,53.0,0
-10.0,-250.0,12.0,-113.0,-125.0,50.0,0
-13.0,-248.0,10.0,-126.0,-122.0,49.0,0
-14.0,-249.0,7.0,-145.0,-118.0,47.0,0
-16.0,-249.0,4.0,-162.0,-111.0,51.0,0
-14.0,-248.0,5.0,-179.0,-105.0,54.0,0
-16.0,-250.0,2.0,-191.0,-94.0,51.0,0
-14.0,-248.0,3.0,-200.0,-82.0,49.0,0
-13.0,-251.0,0.0,-206.0,-69.0,50.0,0
-16.0,-248.0,1.0,-215.0,-55.0,50.0,0
-18.0,-247.0,2.0,-225.0,-44.0,51.0,0
-20.0,-247.0,0.0,-234.0,-35.0,51.0,0
-18.0,-247.0,-6.0,-247.0,-31.0,55.0,0
-21.0,-247.0,-3.0,-263.0,-31.0,58.0,0
-19.0,-246.0,-3.0,-277.0,-29.0,65.0,0
-20.0,-246.0,-2.0,-288.0,-26.0,66.0,0
-16.0,-246.0,-7.0,-297.0,-19.0,66.0,0
-16.0,-244.0,-8.0,-305.0,-8.0,65.0,0
-19.0,-245.0,-13.0,-313.0,3.0,61.0,0
-20.0,-238.0,-11.0,-325.0,13.0,54.0,0
-20.0,-239.0,-14.0,-340.0,17.0,48.0,0
-17.0,-234.0,-15.0,-354.0,19.0,42.0,0
-18.0,-230.0,-22.0,-369.0,19.0,36.0,0
-19.0,-230.0,-21.0,-392.0,20.0,30.0,0
-19.0,-221.0,-24.0,-423.0,22.0,19.0,0
-16.0,-216.0,-21.0,-458.0,24.0,10.0,0
-15.0,-210.0,-25.0,-495.0,24.0,2.0,0
-17.0,-207.0,-24.0,-530.0,24.0,-5.0,0
-17.0,-199.0,-26.0,-569.0,23.0,-13.0,0
-21.0,-192.0,-30.0,-610.0,24.0,-23.0,0
-18.0,-184.0,-29.0,-649.0,22.0,-36.0,0
-19.0,-176.0,-39.0,-687.0,16.0,-48.0,0
-16.0,-175.0,-46.0,-726.0,8.0,-64.0,0
-19.0,-153.0,-47.0,-775.0,-5.0,-94.0,0
-17.0,-145.0,-58.0,-806.0,-14.0,-123.0,0
-11.0,-132.0,-57.0,-845.0,-19.0,-153.0,0
-2.0,-120.0,-63.0,-885.0,-19.0,-187.0,0
0.0,-114.0,-61.0,-917.0,-5.0,-222.0,0
9.0,-101.0,-59.0,-927.0,27.0,-260.0,0
15.0,-92.0,-37.0,-920.0,73.0,-288.0,0
22.0,-79.0,-47.0,-878.0,116.0,-310.0,0
24.0,-69.0,-45.0,-842.0,163.0,-325.0,0
27.0,-59.0,-33.0,-827.0,221.0,-340.0,0
33.0,-55.0,-19.0,-808.0,277.0,-349.0,0
46.0,-54.0,-11.0,-772.0,329.0,-347.0,0
51.0,-45.0,0.0,-745.0,383.0,-331.0,0
47.0,-53.0,4.0,-728.0,439.0,-284.0,0
46.0,-47.0,34.0,-728.0,495.0,-212.0,0
36.0,-56.0,44.0,-687.0,524.0,-123.0,0
18.0,-64.0,52.0,-653.0,528.0,-10.0,0
-3.0,-74.0,56.0,-651.0,507.0,113.0,0
-7.0,-89.0,60.0,-691.0,468.0,229.0,0
-18.0,-105.0,60.0,-743.0,409.0,311.0,0
-26.0,-119.0,52.0,-792.0,356.0,352.0,0
-23.0,-126.0,47.0,-823.0,334.0,380.0,0
-24.0,-135.0,39.0,-826.0,346.0,399.0,0
-23.0,-144.0,27.0,-800.0,386.0,390.0,0
-26.0,-148.0,11.0,-755.0,440.0,349.0,0
-27.0,-161.0,-9.0,-722.0,501.0,296.0,0
-29.0,-178.0,-20.0,-714.0,560.0,237.0,0
-32.0,-197.0,-28.0,-723.0,601.0,182.0,0
-35.0,-235.0,-38.0,-725.0,608.0,133.0,0
-31.0,-274.0,-16.0,-671.0,575.0,89.0,0
-9.0,-315.0,10.0,-520.0,522.0,42.0,0
16.0,-337.0,21.0,-304.0,473.0,-17.0,0
45.0,-347.0,-2.0,-130.0,447.0,-82.0,0
67.0,-350.0,-29.0,-106.0,442.0,-149.0,0
75.0,-347.0,-54.0,-231.0,455.0,-199.0,0
75.0,-347.0,-61.0,-389.0,509.0,-221.0,0
66.0,-343.0,-50.0,-470.0,593.0,-226.0,0
51.0,-329.0,-40.0,-449.0,680.0,-244.0,0
42.0,-316.0,-42.0,-373.0,743.0,-273.0,0
37.0,-306.0,-48.0,-308.0,777.0,-321.0,0
39.0,-304.0,-56.0,-285.0,809.0,-368.0,0
35.0,-320.0,-53.0,-293.0,866.0,-400.0,0
33.0,-352.0,-48.0,-302.0,938.0,-412.0,0
11.0,-389.0,-55.0,-311.0,993.0,-394.0,0
-12.0,-428.0,-46.0,-332.0,1023.0,-358.0,0
-41.0,-473.0,-36.0,-357.0,1029.0,-327.0,0
-54.0,-515.0,-20.0,-379.0,1019.0,-296.0,0
-66.0,-545.0,-9.0,-414.0,992.0,-262.0,0
-75.0,-570.0,-9.0,-448.0,945.0,-206.0,0
-71.0,-592.0,-2.0,-457.0,880.0,-140.0,0
-92.0,-584.0,-20.0,-414.0,804.0,-76.0,0
-79.0,-601.0,-32.0,-364.0,743.0,-10.0,0
-65.0,-609.0,-44.0,-301.0,688.0,10.0,0
-56.0,-612.0,-60.0,-238.0,638.0,-1.0,0
-48.0,-622.0,-74.0,-201.0,597.0,-20.0,0
-41.0,-632.0,-83.0,-187.0,560.0,-42.0,0
-38.0,-653.0,-73.0,-143.0,540.0,-53.0,0
-28.0,-687.0,-80.0,-16.0,537.0,-38.0,0
-34.0,-709.0,-56.0,85.0,555.0,-23.0,0
-41.0,-736.0,-56.0,186.0,550.0,-12.0,0
-55.0,-769.0,-45.0,243.0,497.0,-6.0,0
-74.0,-784.0,-8.0,280.0,414.0,-10.0,0
-76.0,-854.0,-2.0,454.0,327.0,8.0,0
-104.0,-867.0,54.0,516.0,251.0,10.0,0
-126.0,-887.0,65.0,699.0,173.0,-3.0,0
-127.0,-910.0,52.0,944.0,74.0,-15.0,0
-119.0,-919.0,44.0,1204.0,-5.0,-56.0,0
-107.0,-910.0,47.0,1459.0,-29.0,-115.0,0
-94.0,-885.0,59.0,1684.0,-42.0,-151.0,0
-75.0,-844.0,68.0,1842.0,-102.0,-138.0,0
-61.0,-804.0,56.0,1886.0,-214.0,-95.0,0
-33.0,-768.0,41.0,1799.0,-321.0,-57.0,0
-1.0,-749.0,31.0,1653.0,-362.0,-59.0,0
22.0,-725.0,21.0,1519.0,-328.0,-100.0,0
36.0,-698.0,17.0,1407.0,-256.0,-160.0,0
53.0,-671.0,-5.0,1300.0,-195.0,-214.0,0
64.0,-636.0,-15.0,1198.0,-155.0,-246.0,0
78.0,-599.0,-19.0,1149.0,-127.0,-259.0,0
85.0,-557.0,-39.0,1179.0,-83.0,-273.0,0
92.0,-503.0,-63.0,1224.0,-37.0,-286.0,0
103.0,-440.0,-103.0,1207.0,-11.0,-295.0,0
116.0,-379.0,-136.0,1126.0,10.0,-294.0,0
125.0,-319.0,-180.0,1016.0,68.0,-308.0,0
122.0,-276.0,-174.0,928.0,157.0,-348.0,0
83.0,-231.0,-151.0,985.0,204.0,-406.0,0
54.0,-206.0,-132.0,1161.0,176.0,-446.0,0
27.0,-130.0,-181.0,1272.0,78.0,-486.0,0
20.0,-139.0,-127.0,1060.0,51.0,-417.0,0
-5.0,-187.0,-67.0,942.0,29.0,-435.0,0
-65.0,-154.0,-50.0,1134.0,-13.0,-511.0,0
-88.0,-125.0,-76.0,1464.0,-105.0,-529.0,0
-73.0,-79.0,-79.0,1735.0,-205.0,-507.0,0
-81.0,-36.0,-140.0,1955.0,-261.0,-489.0,0
-76.0,9.0,-195.0,1985.0,-285.0,-472.0,0
-86.0,41.0,-241.0,1776.0,-300.0,-401.0,0
-65.0,68.0,-259.0,1349.0,-296.0,-282.0,0
-24.0,76.0,-265.0,843.0,-283.0,-199.0,0
11.0,94.0,-271.0,398.0,-254.0,-191.0,0
51.0,108.0,-287.0,86.0,-147.0,-214.0,0
69.0,133.0,-285.0,-119.0,22.0,-250.0,0
57.0,148.0,-275.0,-314.0,157.0,-332.0,0
27.0,145.0,-244.0,-571.0,207.0,-435.0,0
-6.0,109.0,-210.0,-871.0,179.0,-493.0,0
-31.0,48.0,-177.0,-1127.0,122.0,-481.0,0
-48.0,-24.0,-147.0,-1220.0,72.0,-417.0,0
-63.0,-88.0,-103.0,-1127.0,46.0,-325.0,0
-67.0,-133.0,-58.0,-906.0,28.0,-217.0,0
-65.0,-146.0,-17.0,-654.0,-15.0,-108.0,0
-51.0,-124.0,20.0,-405.0,-92.0,-22.0,0
-33.0,-73.0,27.0,-146.0,-181.0,37.0,0
-31.0,-6.0,18.0,69.0,-246.0,73.0,0
-16.0,58.0,15.0,153.0,-293.0,114.0,0
-2.0,105.0,12.0,100.0,-348.0,154.0,0
23.0,133.0,10.0,-52.0,-407.0,176.0,0
37.0,140.0,14.0,-236.0,-438.0,180.0,0
48.0,132.0,20.0,-408.0,-423.0,151.0,0
49.0,110.0,41.0,-538.0,-360.0,85.0,0
41.0,86.0,60.0,-624.0,-264.0,26.0,0
36.0,66.0,80.0,-661.0,-154.0,-8.0,0
34.0,39.0,83.0,-651.0,-41.0,-20.0,0
32.0,14.0,82.0,-614.0,86.0,-15.0,0
32.0,3.0,73.0,-562.0,233.0,1.0,0
29.0,-7.0,58.0,-514.0,382.0,17.0,0
34.0,-11.0,51.0,-487.0,518.0,41.0,0
37.0,-10.0,44.0,-474.0,630.0,73.0,0
47.0,-9.0,41.0,-475.0,719.0,116.0,0
53.0,-8.0,41.0,-492.0,785.0,154.0,0
50.0,-2.0,39.0,-519.0,824.0,184.0,0
51.0,0.0,36.0,-557.0,841.0,202.0,0
45.0,2.0,28.0,-599.0,837.0,208.0,0
42.0,1.0,22.0,-639.0,825.0,210.0,0
33.0,1.0,15.0,-675.0,810.0,209.0,0
27.0,-2.0,11.0,-695.0,799.0,210.0,0
22.0,-8.0,4.0,-705.0,792.0,217.0,0
12.0,-10.0,-5.0,-706.0,788.0,221.0,0
0.0,-16.0,-2.0,-704.0,784.0,228.0,0
-1.0,-13.0,-6.0,-695.0,778.0,234.0,0
-12.0,-11.0,-4.0,-679.0,767.0,236.0,0
-15.0,-9.0,4.0,-659.0,755.0,238.0,0
-21.0,-6.0,1.0,-637.0,743.0,235.0,0
-27.0,-6.0,3.0,-616.0,735.0,234.0,0
-34.0,-3.0,7.0,-596.0,722.0,232.0,0
-40.0,1.0,5.0,-574.0,704.0,237.0,0
-40.0,0.0,3.0,-555.0,679.0,246.0,0
-39.0,7.0,1.0,-534.0,652.0,259.0,0
-37.0,11.0,-4.0,-512.0,630.0,274.0,0
-31.0,11.0,-9.0,-495.0,621.0,290.0,0
-26.0,17.0,-19.0,-484.0,618.0,305.0,0
-20.0,13.0,-20.0,-488.0,616.0,316.0,0
-17.0,13.0,-30.0,-503.0,619.0,326.0,0
-12.0,10.0,-37.0,-525.0,627.0,328.0,0
-13.0,6.0,-38.0,-547.0,641.0,327.0,0
-13.0,0.0,-38.0,-564.0,654.0,323.0,0
-10.0,-7.0,-35.0,-572.0,662.0,320.0,0
-8.0,-13.0,-29.0,-568.0,659.0,317.0,0
-5.0,-22.0,-27.0,-548.0,642.0,312.0,0
-4.0,-28.0,-28.0,-514.0,613.0,303.0,0
0.0,-41.0,-29.0,-471.0,578.0,297.0,0
1.0,-44.0,-33.0,-418.0,541.0,297.0,0
-2.0,-48.0,-42.0,-362.0,503.0,291.0,0
0.0,-55.0,-43.0,-298.0,470.0,275.0,0
3.0,-65.0,-41.0,-215.0,438.0,242.0,0
5.0,-69.0,-48.0,-101.0,405.0,200.0,0
8.0,-73.0,-37.0,46.0,375.0,161.0,0
15.0,-79.0,-19.0,242.0,352.0,119.0,0
31.0,-80.0,-17.0,497.0,335.0,69.0,0
41.0,-71.0,-12.0,776.0,324.0,11.0,0
64.0,-65.0,16.0,1046.0,350.0,-22.0,0
100.0,-77.0,-62.0,1303.0,411.0,-12.0,0
67.0,-106.0,-66.0,1388.0,452.0,22.0,0
90.0,-175.0,50.0,1440.0,507.0,150.0,0
11.0,-196.0,-23.0,1839.0,353.0,350.0,0
-22.0,-229.0,-109.0,2178.0,-170.0,547.0,0
-20.0,-270.0,-179.0,2096.0,-762.0,600.0,0
-31.0,-287.0,-302.0,1681.0,-1018.0,567.0,0
-60.0,-314.0,-466.0,897.0,-762.0,548.0,0
-119.0,-397.0,-502.0,-186.0,-292.0,559.0,0
-180.0,-522.0,-270.0,-1217.0,141.0,592.0,0
-146.0,-685.0,92.0,-1530.0,509.0,586.0,0
-91.0,-798.0,190.0,-787.0,692.0,427.0,0
-66.0,-870.0,128.0,33.0,418.0,150.0,0
-34.0,-921.0,-20.0,112.0,-324.0,-100.0,0
-4.0,-986.0,-194.0,-607.0,-1163.0,-235.0,0
79.0,-1075.0,-311.0,-1974.0,-1516.0,-253.0,0
181.0,-1189.0,-214.0,-3065.0,-1082.0,-246.0,0
167.0,-1201.0,311.0,-3333.0,-65.0,-261.0,0
118.0,-1217.0,604.0,-1488.0,950.0,-219.0,0
-7.0,-1124.0,502.0,1264.0,1279.0,-61.0,0
-98.0,-977.0,323.0,2975.0,1082.0,153.0,0
-139.0,-824.0,178.0,2904.0,764.0,183.0,0
-176.0,-714.0,25.0,1748.0,182.0,43.0,0
-157.0,-659.0,13.0,435.0,-393.0,-18.0,0
-142.0,-681.0,25.0,-289.0,-602.0,38.0,0
-81.0,-685.0,2.0,-228.0,-446.0,109.0,0
-87.0,-644.0,-32.0,218.0,-249.0,122.0,0
-97.0,-589.0,-25.0,642.0,-154.0,144.0,0
-94.0,-570.0,-38.0,753.0,-195.0,154.0,0
-92.0,-472.0,23.0,414.0,-407.0,107.0,0
-35.0,-434.0,0.0,95.0,-656.0,21.0,0
10.0,-415.0,-41.0,-239.0,-868.0,-35.0,0
39.0,-403.0,-41.0,-484.0,-915.0,-29.0,0
31.0,-404.0,-24.0,-493.0,-786.0,45.0,0
4.0,-393.0,-12.0,-372.0,-623.0,110.0,0
-8.0,-383.0,6.0,-300.0,-572.0,151.0,0
3.0,-377.0,20.0,-397.0,-641.0,181.0,0
33.0,-344.0,38.0,-434.0,-759.0,152.0,0
52.0,-347.0,-8.0,-303.0,-793.0,84.0,0
65.0,-327.0,-8.0,-258.0,-703.0,17.0,0
67.0,-314.0,1.0,-308.0,-543.0,-26.0,0
45.0,-270.0,36.0,-332.0,-419.0,-68.0,0
26.0,-249.0,39.0,-201.0,-365.0,-84.0,0
5.0,-232.0,23.0,-85.0,-371.0,-74.0,0
3.0,-200.0,31.0,-108.0,-403.0,-43.0,0
0.0,-153.0,36.0,-93.0,-440.0,-23.0,0
10.0,-132.0,13.0,20.0,-452.0,-9.0,0
12.0,-101.0,1.0,98.0,-460.0,16.0,0
9.0,-68.0,-12.0,135.0,-459.0,59.0,0
11.0,-56.0,-30.0,148.0,-473.0,103.0,0
12.0,-30.0,-32.0,105.0,-483.0,136.0,0
7.0,-27.0,-40.0,63.0,-455.0,144.0,0
-8.0,-18.0,-38.0,0.0,-418.0,145.0,0
-18.0,-22.0,-30.0,-62.0,-378.0,149.0,0
-11.0,-28.0,-34.0,-112.0,-340.0,150.0,0
0.0,-51.0,-25.0,-168.0,-310.0,147.0,0
-2.0,-63.0,-20.0,-229.0,-306.0,126.0,0
2.0,-84.0,-9.0,-275.0,-315.0,107.0,0
5.0,-102.0,-5.0,-295.0,-318.0,105.0,0
18.0,-118.0,2.0,-289.0,-319.0,113.0,0
23.0,-128.0,5.0,-257.0,-319.0,120.0,0
33.0,-133.0,5.0,-205.0,-313.0,119.0,0
34.0,-141.0,7.0,-144.0,-298.0,125.0,0
45.0,-150.0,8.0,-76.0,-274.0,129.0,0
42.0,-153.0,8.0,0.0,-231.0,126.0,0
42.0,-152.0,0.0,64.0,-183.0,133.0,0
37.0,-160.0,-3.0,105.0,-133.0,142.0,0
39.0,-161.0,-18.0,109.0,-98.0,154.0,0
33.0,-163.0,-31.0,86.0,-65.0,163.0,0
30.0,-171.0,-41.0,59.0,-24.0,165.0,0
23.0,-182.0,-49.0,41.0,29.0,162.0,0
11.0,-202.0,-56.0,34.0,86.0,158.0,0
0.0,-225.0,-62.0,20.0,146.0,141.0,0
-8.0,-250.0,-58.0,-22.0,198.0,106.0,0
-20.0,-281.0,-53.0,-105.0,242.0,56.0,0
-20.0,-320.0,-39.0,-226.0,273.0,-12.0,0
-27.0,-363.0,-39.0,-352.0,297.0,-90.0,0
-24.0,-404.0,-23.0,-433.0,304.0,-169.0,0
-19.0,-436.0,-16.0,-421.0,280.0,-239.0,0
-7.0,-445.0,-11.0,-301.0,230.0,-291.0,0
1.0,-430.0,-14.0,-100.0,175.0,-316.0,0
15.0,-395.0,-19.0,139.0,145.0,-308.0,0
12.0,-346.0,-26.0,365.0,151.0,-265.0,0
1.0,-293.0,-35.0,530.0,189.0,-211.0,0
-16.0,-251.0,-35.0,581.0,218.0,-170.0,0
-30.0,-218.0,-23.0,505.0,209.0,-129.0,0
-34.0,-200.0,-20.0,354.0,174.0,-73.0,0
-31.0,-195.0,-16.0,194.0,131.0,-15.0,0
-26.0,-200.0,-12.0,69.0,104.0,33.0,0
-20.0,-211.0,-12.0,12.0,96.0,74.0,0
-21.0,-219.0,-10.0,11.0,94.0,114.0,0
-29.0,-229.0,-3.0,41.0,85.0,146.0,0
-32.0,-236.0,-3.0,77.0,70.0,163.0,0
-33.0,-243.0,3.0,103.0,45.0,161.0,0
-36.0,-247.0,7.0,121.0,15.0,148.0,0
-38.0,-256.0,11.0,124.0,-18.0,126.0,0
-31.0,-267.0,23.0,120.0,-40.0,103.0,0
-29.0,-272.0,21.0,118.0,-52.0,77.0,0
-22.0,-273.0,18.0,128.0,-58.0,61.0,0
-24.0,-273.0,21.0,151.0,-58.0,42.0,0
-19.0,-275.0,18.0,190.0,-60.0,12.0,0
-20.0,-269.0,10.0,221.0,-58.0,-17.0,0
-25.0,-265.0,4.0,230.0,-45.0,-40.0,0
-35.0,-259.0,-2.0,216.0,-35.0,-54.0,0
-40.0,-254.0,-1.0,194.0,-37.0,-60.0,0
-42.0,-253.0,-10.0,171.0,-50.0,-61.0,0
-40.0,-251.0,-20.0,154.0,-55.0,-62.0,0
-45.0,-250.0,-21.0,145.0,-60.0,-60.0,0
-43.0,-247.0,-19.0,147.0,-73.0,-58.0,0
-42.0,-246.0,-19.0,154.0,-89.0,-54.0,0
-44.0,-245.0,-16.0,167.0,-112.0,-45.0,0
-41.0,-245.0,-20.0,182.0,-135.0,-38.0,0
-39.0,-245.0,-18.0,200.0,-162.0,-36.0,0
-32.0,-243.0,-19.0,216.0,-181.0,-38.0,0
-23.0,-242.0,-13.0,225.0,-199.0,-41.0,0
-17.0,-241.0,-17.0,226.0,-217.0,-46.0,0
-11.0,-243.0,-15.0,220.0,-232.0,-52.0,0
-4.0,-246.0,-14.0,210.0,-243.0,-56.0,0
6.0,-249.0,-13.0,194.0,-253.0,-54.0,0
1.0,-255.0,-14.0,172.0,-265.0,-49.0,0
0.0,-259.0,-11.0,150.0,-272.0,-44.0,0
0.0,-264.0,-12.0,141.0,-272.0,-39.0,0
0.0,-269.0,-15.0,144.0,-274.0,-32.0,0
-4.0,-268.0,-19.0,155.0,-279.0,-26.0,0
-6.0,-268.0,-19.0,166.0,-284.0,-22.0,0
-6.0,-266.0,-19.0,174.0,-281.0,-18.0,0
-10.0,-263.0,-19.0,176.0,-279.0,-13.0,0
-8.0,-265.0,-21.0,180.0,-277.0,-7.0,0
-15.0,-256.0,-19.0,187.0,-279.0,0.0,0
-18.0,-253.0,-18.0,196.0,-279.0,7.0,0
-20.0,-250.0,-14.0,208.0,-277.0,13.0,0
-18.0,-249.0,-12.0,218.0,-277.0,17.0,0
-20.0,-252.0,-13.0,226.0,-272.0,20.0,0
-17.0,-250.0,-9.0,232.0,-265.0,20.0,0
-21.0,-251.0,-10.0,237.0,-255.0,20.0,0
-24.0,-253.0,-7.0,242.0,-248.0,22.0,0
-21.0,-254.0,-5.0,251.0,-243.0,24.0,0
-26.0,-253.0,-2.0,258.0,-242.0,32.0,0
-20.0,-255.0,-1.0,270.0,-242.0,33.0,0
-15.0,-253.0,-5.0,282.0,-239.0,34.0,0
-16.0,-260.0,-1.0,291.0,-233.0,39.0,0
-15.0,-261.0,0.0,293.0,-226.0,43.0,0
-19.0,-262.0,-1.0,287.0,-228.0,47.0,0
-20.0,-263.0,-1.0,282.0,-234.0,48.0,0
-20.0,-266.0,-2.0,279.0,-245.0,47.0,0
-19.0,-265.0,-10.0,283.0,-259.0,46.0,0
-24.0,-264.0,-8.0,293.0,-273.0,49.0,0
-31.0,-260.0,-6.0,308.0,-287.0,51.0,0
-32.0,-260.0,-11.0,329.0,-295.0,52.0,0
-36.0,-257.0,-14.0,344.0,-312.0,49.0,0
-40.0,-251.0,-13.0,346.0,-337.0,44.0,0
-38.0,-250.0,-16.0,334.0,-366.0,43.0,0
-43.0,-245.0,-17.0,314.0,-393.0,50.0,0
-42.0,-245.0,-16.0,292.0,-425.0,60.0,0
-45.0,-245.0,-15.0,271.0,-460.0,71.0,0
-47.0,-247.0,-19.0,260.0,-496.0,82.0,0
-50.0,-253.0,-21.0,264.0,-524.0,92.0,0
-55.0,-258.0,-23.0,282.0,-549.0,104.0,0
-54.0,-265.0,-22.0,308.0,-570.0,115.0,0
-57.0,-269.0,-19.0,333.0,-579.0,122.0,0
-56.0,-275.0,-20.0,359.0,-587.0,135.0,0
-59.0,-267.0,-21.0,379.0,-601.0,145.0,0
-59.0,-281.0,-17.0,393.0,-615.0,161.0,0
-56.0,-288.0,-13.0,403.0,-625.0,180.0,0
-58.0,-290.0,-4.0,406.0,-640.0,199.0,0
-52.0,-287.0,-3.0,427.0,-669.0,218.0,0
-43.0,-279.0,2.0,451.0,-704.0,238.0,0
-33.0,-266.0,5.0,474.0,-731.0,249.0,0
-19.0,-254.0,3.0,486.0,-746.0,250.0,0
-9.0,-240.0,8.0,484.0,-748.0,242.0,0
0.0,-227.0,4.0,455.0,-734.0,234.0,0
6.0,-222.0,0.0,397.0,-702.0,227.0,0
8.0,-214.0,1.0,317.0,-656.0,217.0,0
8.0,-214.0,7.0,228.0,-614.0,208.0,0
3.0,-212.0,7.0,143.0,-584.0,197.0,0
-2.0,-214.0,2.0,65.0,-568.0,185.0,0
-6.0,-214.0,8.0,-3.0,-561.0,174.0,0
-10.0,-215.0,11.0,-68.0,-557.0,161.0,0
-8.0,-222.0,10.0,-129.0,-550.0,147.0,0
-12.0,-229.0,10.0,-190.0,-537.0,135.0,0
-12.0,-236.0,13.0,-244.0,-513.0,124.0,0
-9.0,-241.0,14.0,-283.0,-486.0,110.0,0
2.0,-243.0,6.0,-303.0,-457.0,97.0,0
-3.0,-256.0,23.0,-304.0,-430.0,88.0,0
1.0,-257.0,21.0,-288.0,-406.0,80.0,0
5.0,-259.0,29.0,-271.0,-384.0,72.0,0
12.0,-259.0,29.0,-258.0,-357.0,66.0,0
13.0,-252.0,32.0,-251.0,-329.0,59.0,0
16.0,-253.0,34.0,-246.0,-298.0,51.0,0
19.0,-252.0,34.0,-243.0,-270.0,45.0,0
16.0,-249.0,35.0,-244.0,-247.0,38.0,0
16.0,-249.0,35.0,-245.0,-225.0,28.0,0
21.0,-250.0,33.0,-244.0,-202.0,19.0,0
15.0,-249.0,34.0,-240.0,-180.0,7.0,0
16.0,-251.0,37.0,-236.0,-153.0,3.0,0
13.0,-256.0,34.0,-219.0,-133.0,5.0,0
7.0,-254.0,37.0,-202.0,-116.0,2.0,0
0.0,-259.0,37.0,-185.0,-103.0,0.0,0
0.0,-262.0,38.0,-167.0,-90.0,-4.0,0
-3.0,-265.0,41.0,-143.0,-78.0,-10.0,0
-5.0,-265.0,41.0,-118.0,-64.0,-16.0,0
-10.0,-263.0,38.0,-90.0,-45.0,-20.0,0
-10.0,-263.0,34.0,-57.0,-26.0,-24.0,0
-10.0,-261.0,38.0,-29.0,-9.0,-27.0,0
-12.0,-259.0,35.0,-3.0,3.0,-28.0,0
-12.0,-257.0,29.0,15.0,15.0,-30.0,0
-9.0,-257.0,27.0,26.0,29.0,-28.0,0
-8.0,-259.0,30.0,34.0,48.0,-29.0,0
-8.0,-259.0,24.0,41.0,69.0,-31.0,0
-8.0,-260.0,25.0,50.0,89.0,-34.0,0
-8.0,-262.0,20.0,57.0,107.0,-38.0,0
-9.0,-264.0,23.0,64.0,121.0,-40.0,0
-7.0,-264.0,23.0,72.0,130.0,-45.0,0
-5.0,-263.0,17.0,80.0,140.0,-48.0,0
-11.0,-263.0,20.0,87.0,150.0,-57.0,0
-14.0,-261.0,22.0,96.0,160.0,-56.0,0
-12.0,-263.0,20.0,108.0,168.0,-57.0,0
-18.0,-258.0,21.0,119.0,174.0,-62.0,0
-18.0,-259.0,22.0,128.0,183.0,-62.0,0
-21.0,-259.0,19.0,134.0,191.0,-63.0,0
-21.0,-260.0,18.0,141.0,199.0,-59.0,0
-16.0,-263.0,18.0,146.0,203.0,-55.0,0
-13.0,-265.0,19.0,152.0,210.0,-51.0,0
-10.0,-264.0,16.0,163.0,219.0,-48.0,0
-12.0,-265.0,15.0,176.0,233.0,-45.0,0
-13.0,-262.0,15.0,190.0,245.0,-43.0,0
-14.0,-258.0,15.0,200.0,251.0,-41.0,0
-17.0,-260.0,17.0,211.0,248.0,-40.0,0
-16.0,-260.0,21.0,223.0,242.0,-42.0,0
-19.0,-258.0,24.0,237.0,240.0,-44.0,0
-16.0,-257.0,22.0,248.0,241.0,-42.0,0
-19.0,-255.0,19.0,252.0,244.0,-42.0,0
-16.0,-252.0,19.0,245.0,249.0,-41.0,0
-16.0,-251.0,23.0,232.0,251.0,-41.0,0
-16.0,-248.0,21.0,219.0,256.0,-40.0,0
-11.0,-247.0,21.0,205.0,264.0,-38.0,0
-13.0,-251.0,21.0,190.0,274.0,-40.0,0
-14.0,-250.0,20.0,177.0,284.0,-40.0,0
-14.0,-250.0,26.0,166.0,292.0,-40.0,0
-14.0,-253.0,23.0,157.0,291.0,-41.0,0
-15.0,-255.0,26.0,157.0,287.0,-43.0,0
-15.0,-252.0,27.0,164.0,279.0,-45.0,0
-15.0,-248.0,26.0,174.0,275.0,-46.0,0
-14.0,-248.0,26.0,176.0,271.0,-46.0,0
-13.0,-245.0,23.0,171.0,272.0,-45.0,0
-15.0,-245.0,23.0,161.0,276.0,-44.0,0
-17.0,-241.0,18.0,148.0,281.0,-44.0,0
-28.0,-249.0,21.0,134.0,283.0,-45.0,0
-18.0,-246.0,17.0,120.0,284.0,-44.0,0
-18.0,-246.0,22.0,103.0,286.0,-44.0,0
-17.0,-248.0,25.0,82.0,285.0,-44.0,0
-18.0,-250.0,24.0,66.0,280.0,-44.0,0
-22.0,-250.0,27.0,58.0,273.0,-44.0,0
-22.0,-250.0,29.0,56.0,264.0,-44.0,0
-21.0,-254.0,28.0,57.0,253.0,-45.0,0
-19.0,-253.0,25.0,56.0,242.0,-43.0,0
-21.0,-256.0,28.0,51.0,232.0,-42.0,0
-22.0,-254.0,24.0,45.0,227.0,-38.0,0
-23.0,-254.0,28.0,43.0,223.0,-34.0,0
-22.0,-253.0,34.0,44.0,216.0,-29.0,0
-20.0,-252.0,26.0,45.0,209.0,-26.0,0
-18.0,-248.0,27.0,42.0,204.0,-21.0,0
-16.0,-250.0,29.0,34.0,197.0,-14.0,0
-16.0,-254.0,22.0,26.0,193.0,-10.0,0
-15.0,-252.0,26.0,23.0,190.0,-7.0,0
-15.0,-250.0,22.0,24.0,185.0,-5.0,0
-17.0,-252.0,23.0,25.0,182.0,-5.0,0
-13.0,-250.0,22.0,25.0,177.0,-7.0,0
-12.0,-250.0,23.0,22.0,173.0,-8.0,0
-11.0,-251.0,26.0,14.0,169.0,-13.0,0
-15.0,-254.0,20.0,8.0,167.0,-15.0,0
-15.0,-255.0,23.0,9.0,162.0,-18.0,0
-16.0,-254.0,25.0,13.0,155.0,-21.0,0
-18.0,-253.0,23.0,16.0,147.0,-21.0,0
-21.0,-257.0,24.0,18.0,139.0,-19.0,0
-20.0,-256.0,23.0,15.0,131.0,-15.0,0
-19.0,-257.0,20.0,12.0,125.0,-12.0,0
-19.0,-257.0,16.0,12.0,121.0,-10.0,0
-22.0,-254.0,25.0,14.0,118.0,-6.0,0
-19.0,-258.0,22.0,15.0,114.0,-3.0,0
-20.0,-255.0,24.0,11.0,110.0,2.0,0
-17.0,-258.0,27.0,8.0,106.0,5.0,0
-16.0,-256.0,25.0,9.0,107.0,8.0,0
-15.0,-258.0,22.0,13.0,105.0,7.0,0
-14.0,-254.0,23.0,20.0,105.0,5.0,0
-9.0,-258.0,26.0,28.0,105.0,4.0,0
-7.0,-257.0,23.0,35.0,103.0,2.0,0
-9.0,-253.0,23.0,37.0,104.0,1.0,0
-12.0,-254.0,24.0,36.0,106.0,0.0,0
-10.0,-255.0,24.0,35.0,103.0,0.0,0
-12.0,-257.0,24.0,38.0,103.0,-2.0,0
-12.0,-254.0,23.0,44.0,99.0,-6.0,0
-8.0,-255.0,25.0,50.0,96.0,-12.0,0
-3.0,-255.0,21.0,59.0,93.0,-21.0,0
-6.0,-251.0,20.0,64.0,96.0,-26.0,0
-3.0,-251.0,25.0,60.0,103.0,-23.0,0
-10.0,-249.0,25.0,52.0,112.0,-22.0,0
-16.0,-250.0,23.0,39.0,115.0,-22.0,0
-15.0,-251.0,25.0,23.0,112.0,-21.0,0
-14.0,-249.0,24.0,12.0,110.0,-20.0,0
-15.0,-256.0,23.0,9.0,105.0,-20.0,0
-12.0,-259.0,28.0,13.0,101.0,-17.0,0
-11.0,-260.0,24.0,27.0,100.0,-9.0,0
-13.0,-259.0,29.0,51.0,101.0,-1.0,0
-11.0,-263.0,23.0,88.0,99.0,4.0,0
-11.0,-264.0,25.0,126.0,89.0,8.0,0
-10.0,-262.0,22.0,161.0,76.0,10.0,0
-9.0,-255.0,21.0,184.0,66.0,9.0,0
-12.0,-252.0,18.0,193.0,60.0,8.0,0
-6.0,-252.0,18.0,184.0,63.0,5.0,0
-13.0,-247.0,19.0,162.0,69.0,0.0,0
-12.0,-248.0,20.0,134.0,73.0,-3.0,0
-16.0,-243.0,29.0,104.0,73.0,-4.0,0
-14.0,-251.0,24.0,73.0,75.0,-3.0,0
-13.0,-251.0,26.0,50.0,79.0,-1.0,0
-15.0,-252.0,28.0,37.0,81.0,1.0,0
-19.0,-251.0,28.0,31.0,83.0,2.0,0
-19.0,-250.0,29.0,27.0,82.0,3.0,0
-17.0,-252.0,28.0,25.0,84.0,3.0,0
-16.0,-249.0,29.0,22.0,87.0,0.0,0
-14.0,-249.0,28.0,17.0,92.0,-2.0,0
-15.0,-249.0,30.0,10.0,95.0,-6.0,0
-16.0,-247.0,28.0,-1.0,91.0,-7.0,0
-15.0,-249.0,28.0,-13.0,88.0,-10.0,0
-12.0,-250.0,28.0,-25.0,88.0,-12.0,0
-15.0,-252.0,29.0,-31.0,89.0,-12.0,0
-17.0,-251.0,29.0,-33.0,84.0,-14.0,0
-17.0,-250.0,30.0,-34.0,78.0,-13.0,0
-16.0,-250.0,30.0,-38.0,72.0,-11.0,0
-14.0,-255.0,29.0,-47.0,69.0,-9.0,0
-16.0,-253.0,30.0,-58.0,71.0,-9.0,0
-18.0,-249.0,27.0,-65.0,75.0,-9.0,0
-21.0,-252.0,30.0,-70.0,78.0,-8.0,0
-18.0,-258.0,29.0,-74.0,77.0,-8.0,0
-20.0,-256.0,26.0,-77.0,74.0,-10.0,0
-20.0,-257.0,27.0,-80.0,71.0,-8.0,0
-19.0,-255.0,29.0,-79.0,65.0,-6.0,0
-17.0,-254.0,26.0,-79.0,64.0,-6.0,0
-15.0,-253.0,28.0,-78.0,62.0,-6.0,0
-15.0,-254.0,28.0,-77.0,62.0,-6.0,0
-13.0,-255.0,33.0,-76.0,59.0,-6.0,0
-11.0,-253.0,34.0,-76.0,61.0,-5.0,0
-11.0,-253.0,35.0,-74.0,62.0,-6.0,0
-12.0,-255.0,31.0,-68.0,65.0,-7.0,0
-14.0,-254.0,36.0,-62.0,67.0,-8.0,0
-13.0,-253.0,34.0,-55.0,67.0,-9.0,0
-16.0,-255.0,33.0,-54.0,65.0,-8.0,0
-17.0,-255.0,31.0,-53.0,64.0,-6.0,0
-12.0,-253.0,33.0,-49.0,64.0,-5.0,0
-9.0,-252.0,33.0,-44.0,62.0,-2.0,0
-14.0,-251.0,32.0,-39.0,63.0,-1.0,0
-11.0,-253.0,34.0,-39.0,65.0,0.0,0
-12.0,-250.0,32.0,-42.0,68.0,-1.0,0
-10.0,-250.0,32.0,-47.0,68.0,-2.0,0
-13.0,-254.0,30.0,-51.0,74.0,-5.0,0
-10.0,-252.0,30.0,-50.0,80.0,-9.0,0
-15.0,-251.0,21.0,-46.0,85.0,-13.0,0
-15.0,-249.0,29.0,-40.0,88.0,-16.0,0
-12.0,-252.0,31.0,-34.0,91.0,-17.0,0
-13.0,-255.0,32.0,-30.0,90.0,-17.0,0
-15.0,-251.0,29.0,-29.0,90.0,-17.0,0
-13.0,-252.0,33.0,-27.0,88.0,-18.0,0
-13.0,-252.0,29.0,-25.0,89.0,-20.0,0
-16.0,-254.0,32.0,-25.0,93.0,-23.0,0
-16.0,-254.0,29.0,-26.0,95.0,-22.0,0
-15.0,-254.0,32.0,-26.0,96.0,-20.0,0
-18.0,-253.0,30.0,-28.0,98.0,-18.0,0
-16.0,-258.0,32.0,-28.0,100.0,-16.0,0
-15.0,-255.0,30.0,-26.0,100.0,-15.0,0
-15.0,-253.0,32.0,-23.0,99.0,-13.0,0
-16.0,-253.0,29.0,-22.0,102.0,-14.0,0
-18.0,-252.0,29.0,-24.0,103.0,-14.0,0
-13.0,-252.0,31.0,-25.0,104.0,-15.0,0
-16.0,-253.0,29.0,-25.0,104.0,-17.0,0
-15.0,-254.0,31.0,-23.0,105.0,-19.0,0
-16.0,-252.0,26.0,-17.0,106.0,-19.0,0
-16.0,-253.0,31.0,-16.0,105.0,-20.0,0
-18.0,-254.0,26.0,-16.0,104.0,-21.0,0
-17.0,-253.0,27.0,-16.0,105.0,-22.0,0
-16.0,-256.0,28.0,-17.0,106.0,-20.0,0
-18.0,-251.0,29.0,-13.0,107.0,-19.0,0
-18.0,-255.0,30.0,-11.0,106.0,-18.0,0
-19.0,-253.0,32.0,-12.0,104.0,-16.0,0
-18.0,-251.0,28.0,-14.0,100.0,-13.0,0
-17.0,-251.0,28.0,-15.0,99.0,-13.0,0
-16.0,-254.0,29.0,-17.0,98.0,-11.0,0
-16.0,-253.0,26.0,-15.0,99.0,-10.0,0
-17.0,-253.0,26.0,-14.0,100.0,-7.0,0
-20.0,-256.0,25.0,-14.0,101.0,-5.0,0
-14.0,-256.0,26.0,-12.0,96.0,-3.0,0
-14.0,-257.0,26.0,-12.0,94.0,-2.0,0
-15.0,-256.0,27.0,-10.0,96.0,-2.0,0
-14.0,-253.0,30.0,-5.0,95.0,-3.0,0
-14.0,-252.0,32.0,-2.0,92.0,-6.0,0
-17.0,-255.0,29.0,-2.0,89.0,-5.0,0
-15.0,-254.0,29.0,-7.0,85.0,-5.0,0
-17.0,-252.0,28.0,-10.0,87.0,-4.0,0
-16.0,-254.0,31.0,-9.0,88.0,-7.0,0
-17.0,-255.0,30.0,-6.0,87.0,-6.0,0
-21.0,-254.0,24.0,-5.0,83.0,-5.0,0
-17.0,-252.0,29.0,-6.0,83.0,-2.0,0
-17.0,-253.0,30.0,-6.0,83.0,-2.0,0
-16.0,-253.0,30.0,-4.0,83.0,0.0,0
-13.0,-254.0,25.0,-1.0,85.0,2.0,0
-15.0,-251.0,28.0,-1.0,87.0,5.0,0
-13.0,-253.0,27.0,2.0,86.0,4.0,0
-11.0,-253.0,20.0,3.0,88.0,3.0,0
-13.0,-249.0,24.0,-1.0,90.0,1.0,0
-12.0,-254.0,24.0,-3.0,93.0,-1.0,0
-13.0,-255.0,26.0,-5.0,92.0,-3.0,0
-11.0,-254.0,27.0,-10.0,91.0,-5.0,0
-12.0,-254.0,22.0,-18.0,93.0,-6.0,0
-13.0,-256.0,29.0,-23.0,97.0,-7.0,0
-13.0,-255.0,26.0,-23.0,98.0,-7.0,0
-13.0,-254.0,27.0,-19.0,94.0,-8.0,0
-14.0,-255.0,27.0,-11.0,93.0,-9.0,0
-16.0,-254.0,28.0,-6.0,92.0,-9.0,0
-17.0,-250.0,26.0,-3.0,92.0,-10.0,0
-15.0,-252.0,26.0,-5.0,90.0,-8.0,0
-16.0,-253.0,31.0,-11.0,89.0,-5.0,0
-15.0,-254.0,27.0,-16.0,89.0,-4.0,0
-8.0,-254.0,31.0,-22.0,88.0,0.0,0
-13.0,-254.0,28.0,-23.0,90.0,1.0,0
-12.0,-251.0,25.0,-21.0,92.0,3.0,0
-12.0,-253.0,21.0,-25.0,97.0,2.0,0
-15.0,-252.0,26.0,-27.0,100.0,5.0,0
-14.0,-254.0,28.0,-31.0,98.0,7.0,0
-14.0,-255.0,26.0,-29.0,94.0,7.0,0
-14.0,-254.0,26.0,-26.0,93.0,6.0,0
-14.0,-256.0,25.0,-22.0,92.0,2.0,0
-14.0,-252.0,26.0,-18.0,90.0,0.0,0
-15.0,-251.0,24.0,-19.0,89.0,-2.0,0
-13.0,-251.0,23.0,-22.0,89.0,-4.0,0
-12.0,-252.0,26.0,-25.0,89.0,-4.0,0
-13.0,-253.0,25.0,-26.0,92.0,-6.0,0
-15.0,-254.0,28.0,-24.0,91.0,-6.0,0
-12.0,-255.0,26.0,-21.0,90.0,-7.0,0
-15.0,-255.0,24.0,-18.0,90.0,-8.0,0
-13.0,-255.0,27.0,-12.0,89.0,-7.0,0
-13.0,-256.0,25.0,-8.0,89.0,-8.0,0
-12.0,-255.0,27.0,-10.0,91.0,-7.0,0
-9.0,-255.0,27.0,-14.0,90.0,-6.0,0
-17.0,-254.0,21.0,-17.0,90.0,-2.0,0
-6.0,-254.0,21.0,-20.0,91.0,0.0,0
-13.0,-254.0,28.0,-19.0,91.0,0.0,0
-15.0,-254.0,26.0,-18.0,92.0,-1.0,0
-13.0,-251.0,25.0,-16.0,90.0,-4.0,0
-12.0,-254.0,24.0,-17.0,91.0,-4.0,0
-12.0,-251.0,27.0,-23.0,92.0,-5.0,0
-13.0,-251.0,26.0,-26.0,93.0,-6.0,0
-8.0,-252.0,24.0,-29.0,95.0,-8.0,0
-14.0,-251.0,27.0,-31.0,95.0,-10.0,0
-13.0,-256.0,26.0,-33.0,100.0,-9.0,0
-16.0,-252.0,26.0,-33.0,99.0,-10.0,0
-14.0,-253.0,29.0,-32.0,98.0,-11.0,0
-14.0,-254.0,24.0,-34.0,97.0,-10.0,0
-12.0,-255.0,22.0,-38.0,97.0,-11.0,0
-12.0,-253.0,23.0,-41.0,101.0,-13.0,0
-13.0,-257.0,26.0,-42.0,101.0,-14.0,0
-15.0,-252.0,25.0,-41.0,101.0,-15.0,0
-12.0,-257.0,23.0,-41.0,100.0,-16.0,0
-15.0,-255.0,25.0,-41.0,99.0,-17.0,0
-13.0,-254.0,22.0,-43.0,98.0,-16.0,0
-16.0,-254.0,25.0,-42.0,99.0,-15.0,0
-16.0,-253.0,22.0,-38.0,99.0,-13.0,0
-13.0,-254.0,18.0,-35.0,100.0,-12.0,0
-16.0,-251.0,24.0,-34.0,98.0,-11.0,0
-16.0,-252.0,26.0,-34.0,97.0,-10.0,0
-17.0,-251.0,24.0,-37.0,98.0,-10.0,0
-15.0,-253.0,25.0,-41.0,98.0,-10.0,0
-14.0,-253.0,25.0,-48.0,98.0,-10.0,0
-17.0,-253.0,25.0,-54.0,97.0,-9.0,0
-14.0,-255.0,24.0,-55.0,96.0,-12.0,0
-15.0,-257.0,24.0,-51.0,95.0,-12.0,0
-16.0,-251.0,24.0,-46.0,94.0,-13.0,0
-14.0,-256.0,22.0,-43.0,93.0,-12.0,0
-14.0,-254.0,21.0,-45.0,93.0,-12.0,0
-15.0,-253.0,26.0,-50.0,93.0,-12.0,0
-15.0,-254.0,28.0,-55.0,93.0,-13.0,0
-15.0,-255.0,28.0,-58.0,92.0,-12.0,0
-16.0,-252.0,26.0,-56.0,89.0,-13.0,0
-16.0,-257.0,28.0,-52.0,89.0,-12.0,0
-15.0,-256.0,26.0,-49.0,89.0,-11.0,0
-17.0,-255.0,23.0,-49.0,90.0,-12.0,0
-17.0,-257.0,28.0,-48.0,90.0,-11.0,0
-15.0,-259.0,25.0,-45.0,91.0,-11.0,0
-16.0,-253.0,26.0,-39.0,90.0,-10.0,0
-15.0,-252.0,26.0,-34.0,89.0,-8.0,0
-17.0,-255.0,23.0,-33.0,90.0,-6.0,0
-13.0,-252.0,28.0,-34.0,86.0,-4.0,0
-17.0,-253.0,22.0,-37.0,86.0,-2.0,0
-16.0,-253.0,22.0,-40.0,89.0,-4.0,0
-15.0,-252.0,25.0,-41.0,88.0,-5.0,0
-14.0,-255.0,25.0,-41.0,88.0,-5.0,0
-15.0,-251.0,27.0,-40.0,86.0,-6.0,0
-13.0,-254.0,23.0,-36.0,86.0,-8.0,0
-13.0,-253.0,30.0,-33.0,85.0,-9.0,0
-16.0,-252.0,24.0,-29.0,86.0,-10.0,0
-14.0,-251.0,25.0,-27.0,87.0,-11.0,0
-12.0,-253.0,24.0,-33.0,91.0,-12.0,0
-12.0,-257.0,22.0,-39.0,93.0,-12.0,0
-19.0,-252.0,27.0,-42.0,95.0,-11.0,0
-17.0,-255.0,25.0,-44.0,98.0,-11.0,0
-17.0,-253.0,31.0,-42.0,98.0,-11.0,0
-16.0,-254.0,27.0,-41.0,98.0,-11.0,0
-14.0,-258.0,26.0,-39.0,96.0,-11.0,0
-16.0,-254.0,25.0,-36.0,94.0,-11.0,0
-14.0,-252.0,27.0,-35.0,94.0,-11.0,0
-15.0,-253.0,20.0,-32.0,97.0,-11.0,0
-17.0,-250.0,23.0,-30.0,97.0,-10.0,0
-14.0,-253.0,23.0,-35.0,99.0,-11.0,0
-15.0,-254.0,29.0,-40.0,97.0,-11.0,0
-18.0,-253.0,28.0,-42.0,97.0,-11.0,0
-16.0,-254.0,25.0,-41.0,97.0,-8.0,0
-13.0,-255.0,25.0,-38.0,96.0,-8.0,0
-17.0,-253.0,23.0,-34.0,96.0,-7.0,0
-13.0,-253.0,23.0,-32.0,96.0,-7.0,0
-14.0,-252.0,24.0,-29.0,93.0,-6.0,0
-15.0,-252.0,27.0,-27.0,92.0,-6.0,0
-10.0,-251.0,27.0,-30.0,93.0,-7.0,0
-15.0,-253.0,26.0,-31.0,93.0,-9.0,0
-17.0,-254.0,25.0,-38.0,93.0,-8.0,0
-16.0,-254.0,26.0,-43.0,92.0,-8.0,0
-15.0,-254.0,25.0,-51.0,92.0,-6.0,0
-12.0,-256.0,23.0,-53.0,90.0,-7.0,0
-16.0,-254.0,23.0,-50.0,91.0,-7.0,0
-14.0,-255.0,26.0,-44.0,91.0,-5.0,0
-14.0,-256.0,19.0,-41.0,92.0,-6.0,0
-14.0,-254.0,23.0,-40.0,92.0,-7.0,0
-14.0,-254.0,23.0,-38.0,89.0,-7.0,0
-14.0,-253.0,29.0,-37.0,89.0,-8.0,0
-19.0,-252.0,27.0,-37.0,89.0,-9.0,0
-16.0,-252.0,25.0,-36.0,90.0,-9.0,0
-17.0,-254.0,23.0,-38.0,89.0,-7.0,0
-15.0,-256.0,21.0,-36.0,87.0,-7.0,0
-13.0,-256.0,20.0,-32.0,87.0,-9.0,0
-15.0,-254.0,23.0,-28.0,89.0,-9.0,0
-12.0,-253.0,20.0,-25.0,90.0,-9.0,0
-16.0,-252.0,25.0,-28.0,89.0,-7.0,0
-17.0,-250.0,21.0,-36.0,88.0,-7.0,0
-11.0,-253.0,22.0,-46.0,88.0,-6.0,0
-13.0,-252.0,22.0,-53.0,88.0,-4.0,0
-13.0,-252.0,24.0,-54.0,87.0,-5.0,0
-14.0,-254.0,26.0,-52.0,87.0,-5.0,0
-13.0,-255.0,24.0,-50.0,90.0,-5.0,0
-12.0,-254.0,27.0,-48.0,89.0,-6.0,0
-14.0,-252.0,24.0,-44.0,87.0,-7.0,0
-10.0,-253.0,20.0,-41.0,90.0,-7.0,0
-12.0,-251.0,21.0,-42.0,92.0,-9.0,0
-14.0,-253.0,24.0,-47.0,96.0,-9.0,0
-13.0,-253.0,20.0,-50.0,99.0,-10.0,0
-15.0,-258.0,25.0,-54.0,102.0,-9.0,0
-15.0,-261.0,25.0,-54.0,104.0,-9.0,0
-13.0,-255.0,23.0,-53.0,104.0,-10.0,0
-13.0,-258.0,22.0,-52.0,103.0,-9.0,0
-12.0,-258.0,24.0,-52.0,100.0,-9.0,0
-15.0,-255.0,24.0,-51.0,99.0,-8.0,0
-14.0,-254.0,23.0,-48.0,96.0,-9.0,0
-16.0,-253.0,21.0,-44.0,97.0,-9.0,0
-17.0,-253.0,21.0,-45.0,97.0,-9.0,0
-16.0,-253.0,18.0,-46.0,101.0,-7.0,0
-14.0,-254.0,25.0,-51.0,102.0,-6.0,0
-15.0,-256.0,22.0,-54.0,103.0,-6.0,0
-15.0,-255.0,23.0,-54.0,102.0,-5.0,0
-15.0,-255.0,25.0,-53.0,99.0,-4.0,0
-16.0,-253.0,22.0,-52.0,99.0,-4.0,0
-14.0,-256.0,22.0,-50.0,97.0,-7.0,0
-14.0,-257.0,21.0,-48.0,95.0,-6.0,0
-15.0,-254.0,23.0,-47.0,93.0,-8.0,0
-17.0,-252.0,20.0,-46.0,92.0,-7.0,0
-16.0,-256.0,22.0,-45.0,89.0,-6.0,0
-16.0,-256.0,23.0,-46.0,85.0,-6.0,0
-18.0,-257.0,19.0,-45.0,82.0,-5.0,0
-18.0,-254.0,21.0,-45.0,77.0,-2.0,0
-15.0,-256.0,21.0,-42.0,73.0,1.0,0
-20.0,-249.0,24.0,-39.0,72.0,4.0,0
-15.0,-256.0,23.0,-36.0,70.0,6.0,0
-16.0,-257.0,22.0,-34.0,69.0,8.0,0
-19.0,-255.0,20.0,-35.0,67.0,11.0,0
-18.0,-253.0,19.0,-38.0,66.0,10.0,0
-13.0,-257.0,20.0,-41.0,66.0,11.0,0
-13.0,-254.0,17.0,-42.0,64.0,12.0,0
-13.0,-256.0,20.0,-42.0,64.0,11.0,0
-13.0,-253.0,19.0,-41.0,62.0,10.0,0
-17.0,-252.0,21.0,-39.0,59.0,9.0,0
-14.0,-254.0,21.0,-39.0,57.0,7.0,0
-14.0,-254.0,18.0,-37.0,56.0,6.0,0
-17.0,-253.0,20.0,-36.0,53.0,6.0,0
-16.0,-253.0,22.0,-35.0,52.0,4.0,0
-16.0,-255.0,25.0,-35.0,54.0,3.0,0
-15.0,-252.0,20.0,-38.0,54.0,4.0,0
-14.0,-253.0,23.0,-39.0,55.0,5.0,0
-14.0,-256.0,22.0,-39.0,55.0,7.0,0
-14.0,-256.0,21.0,-37.0,57.0,8.0,0
-15.0,-253.0,20.0,-35.0,60.0,9.0,0
-13.0,-254.0,25.0,-34.0,61.0,10.0,0
-9.0,-254.0,19.0,-34.0,63.0,10.0,0
-11.0,-256.0,18.0,-38.0,66.0,8.0,0
-13.0,-254.0,20.0,-39.0,67.0,5.0,0
-12.0,-251.0,18.0,-37.0,65.0,4.0,0
-10.0,-252.0,23.0,-37.0,65.0,2.0,0
-14.0,-252.0,22.0,-34.0,65.0,-1.0,0
-13.0,-251.0,20.0,-37.0,63.0,-4.0,0
-10.0,-251.0,25.0,-40.0,63.0,-6.0,0
-12.0,-252.0,20.0,-42.0,65.0,-7.0,0
-14.0,-251.0,21.0,-44.0,67.0,-7.0,0
-16.0,-255.0,25.0,-48.0,65.0,-6.0,0
-15.0,-256.0,19.0,-46.0,61.0,-3.0,0
-15.0,-256.0,19.0,-47.0,62.0,-3.0,0
-18.0,-254.0,17.0,-46.0,60.0,-1.0,0
-14.0,-259.0,17.0,-44.0,61.0,1.0,0
-14.0,-258.0,19.0,-42.0,62.0,2.0,0
-13.0,-257.0,19.0,-42.0,62.0,2.0,0
-16.0,-254.0,21.0,-41.0,64.0,3.0,0
-15.0,-254.0,21.0,-41.0,65.0,3.0,0
-12.0,-256.0,17.0,-42.0,63.0,3.0,0
-13.0,-260.0,18.0,-43.0,59.0,3.0,0
-21.0,-258.0,17.0,-44.0,56.0,4.0,0
-15.0,-256.0,17.0,-40.0,56.0,4.0,0
-14.0,-255.0,23.0,-34.0,57.0,2.0,0
-13.0,-257.0,19.0,-29.0,59.0,-1.0,0
-13.0,-252.0,18.0,-26.0,60.0,-2.0,0
-14.0,-252.0,15.0,-29.0,61.0,-3.0,0
-10.0,-253.0,18.0,-31.0,64.0,-2.0,0
-10.0,-255.0,17.0,-37.0,67.0,-3.0,0
-12.0,-255.0,15.0,-39.0,69.0,-3.0,0
-12.0,-258.0,15.0,-40.0,72.0,-1.0,0
-10.0,-255.0,12.0,-40.0,74.0,-1.0,0
-11.0,-256.0,16.0,-40.0,73.0,-2.0,0
-14.0,-255.0,15.0,-43.0,74.0,-1.0,0
-12.0,-256.0,14.0,-42.0,76.0,-3.0,0
-12.0,-257.0,19.0,-42.0,80.0,-2.0,0
-14.0,-256.0,14.0,-36.0,83.0,-3.0,0
-12.0,-252.0,15.0,-35.0,86.0,-3.0,0
-13.0,-254.0,19.0,-37.0,85.0,-5.0,0
-15.0,-251.0,17.0,-41.0,89.0,-5.0,0
-12.0,-252.0,12.0,-45.0,91.0,-6.0,0
-12.0,-251.0,15.0,-46.0,93.0,-7.0,0
-16.0,-254.0,17.0,-48.0,92.0,-9.0,0
-17.0,-256.0,8.0,-51.0,94.0,-9.0,0
-12.0,-252.0,10.0,-54.0,101.0,-12.0,0
-17.0,-254.0,14.0,-56.0,106.0,-11.0,0
-14.0,-255.0,11.0,-59.0,102.0,-12.0,0
-16.0,-254.0,11.0,-60.0,98.0,-13.0,0
-12.0,-257.0,9.0,-59.0,101.0,-14.0,0
-14.0,-253.0,5.0,-54.0,109.0,-14.0,0
-14.0,-255.0,5.0,-53.0,114.0,-12.0,0
-14.0,-255.0,6.0,-56.0,113.0,-8.0,0
-14.0,-255.0,3.0,-64.0,111.0,-4.0,0
-14.0,-257.0,4.0,-73.0,110.0,0.0,0
-22.0,-253.0,-1.0,-80.0,109.0,1.0,0
-23.0,-252.0,0.0,-87.0,102.0,1.0,0
-23.0,-250.0,-3.0,-91.0,94.0,-1.0,0
-22.0,-246.0,-4.0,-92.0,90.0,-4.0,0
-19.0,-251.0,-4.0,-94.0,87.0,-7.0,0
-22.0,-248.0,-2.0,-94.0,91.0,-11.0,0
-23.0,-247.0,-6.0,-96.0,94.0,-10.0,0
-21.0,-246.0,-4.0,-103.0,87.0,-2.0,0
-25.0,-246.0,-14.0,-119.0,74.0,8.0,0
-26.0,-245.0,-17.0,-146.0,66.0,14.0,0
-28.0,-245.0,-20.0,-175.0,66.0,17.0,0
-33.0,-249.0,-26.0,-198.0,60.0,21.0,0
-32.0,-244.0,-19.0,-216.0,39.0,26.0,0
-30.0,-246.0,-20.0,-229.0,12.0,31.0,0
-30.0,-247.0,-20.0,-244.0,-12.0,29.0,0
-30.0,-248.0,-20.0,-258.0,-24.0,27.0,0
-31.0,-246.0,-26.0,-270.0,-29.0,26.0,0
-32.0,-242.0,-30.0,-277.0,-34.0,24.0,0
-32.0,-236.0,-32.0,-285.0,-40.0,19.0,0
-33.0,-227.0,-39.0,-292.0,-50.0,10.0,0
-33.0,-217.0,-45.0,-310.0,-62.0,-5.0,0
-30.0,-211.0,-50.0,-334.0,-73.0,-28.0,0
-30.0,-199.0,-59.0,-363.0,-84.0,-53.0,0
-27.0,-185.0,-64.0,-400.0,-95.0,-78.0,0
-21.0,-175.0,-74.0,-447.0,-107.0,-104.0,0
-21.0,-153.0,-85.0,-506.0,-118.0,-134.0,0
-14.0,-139.0,-98.0,-582.0,-124.0,-161.0,0
-7.0,-117.0,-103.0,-674.0,-127.0,-189.0,0
6.0,-105.0,-107.0,-771.0,-125.0,-221.0,0
1.0,-79.0,-112.0,-868.0,-118.0,-270.0,0
0.0,-65.0,-120.0,-951.0,-89.0,-300.0,0
14.0,-34.0,-99.0,-1038.0,-57.0,-320.0,0
10.0,-23.0,-108.0,-1085.0,-35.0,-342.0,0
29.0,8.0,-76.0,-1150.0,9.0,-362.0,0
35.0,24.0,-73.0,-1175.0,43.0,-387.0,0
40.0,21.0,-77.0,-1201.0,54.0,-382.0,0
52.0,54.0,-34.0,-1243.0,45.0,-355.0,0
50.0,62.0,-34.0,-1189.0,39.0,-323.0,0
53.0,66.0,-30.0,-1102.0,90.0,-273.0,0
40.0,69.0,-14.0,-1043.0,150.0,-205.0,0
34.0,66.0,16.0,-1022.0,196.0,-132.0,0
18.0,47.0,29.0,-1037.0,212.0,-62.0,0
10.0,22.0,37.0,-1105.0,186.0,12.0,0
20.0,-9.0,47.0,-1205.0,149.0,107.0,0
34.0,-48.0,59.0,-1313.0,135.0,193.0,0
42.0,-85.0,76.0,-1417.0,149.0,251.0,0
38.0,-127.0,109.0,-1469.0,178.0,263.0,0
27.0,-176.0,121.0,-1378.0,208.0,234.0,0
27.0,-213.0,110.0,-1163.0,224.0,166.0,0
4.0,-247.0,73.0,-866.0,224.0,61.0,0
-1.0,-302.0,45.0,-555.0,252.0,-25.0,0
-13.0,-366.0,39.0,-188.0,309.0,-126.0,0
-10.0,-414.0,35.0,285.0,412.0,-262.0,0
3.0,-433.0,36.0,706.0,503.0,-379.0,0
40.0,-433.0,28.0,879.0,487.0,-456.0,0
53.0,-428.0,29.0,766.0,384.0,-567.0,0
47.0,-429.0,46.0,511.0,276.0,-692.0,0
35.0,-453.0,110.0,343.0,283.0,-742.0,0
21.0,-491.0,197.0,447.0,402.0,-689.0,0
5.0,-560.0,184.0,848.0,522.0,-526.0,0
-7.0,-602.0,139.0,1228.0,516.0,-310.0,0
15.0,-655.0,39.0,1280.0,365.0,-76.0,0
32.0,-739.0,9.0,782.0,199.0,123.0,0
26.0,-859.0,109.0,142.0,232.0,275.0,0
-10.0,-982.0,230.0,-95.0,420.0,342.0,0
-74.0,-1079.0,261.0,140.0,578.0,327.0,0
-129.0,-1159.0,245.0,438.0,615.0,291.0,0
-171.0,-1231.0,226.0,463.0,578.0,265.0,0
-188.0,-1297.0,202.0,194.0,524.0,242.0,0
-181.0,-1293.0,196.0,-233.0,466.0,190.0,0
-152.0,-1275.0,144.0,-479.0,383.0,124.0,0
-116.0,-1238.0,89.0,-341.0,300.0,58.0,0
-66.0,-1190.0,64.0,144.0,254.0,-5.0,0
-5.0,-1138.0,54.0,897.0,263.0,-67.0,0
31.0,-1050.0,59.0,1715.0,291.0,-94.0,0
31.0,-961.0,53.0,2462.0,315.0,-98.0,0
56.0,-844.0,43.0,2985.0,330.0,-119.0,0
79.0,-700.0,32.0,3038.0,456.0,-194.0,0
56.0,-568.0,10.0,2499.0,594.0,-309.0,0
25.0,-478.0,-9.0,1552.0,527.0,-366.0,0
25.0,-461.0,-42.0,535.0,315.0,-334.0,0
29.0,-428.0,-61.0,-132.0,128.0,-288.0,0
11.0,-419.0,-123.0,-286.0,54.0,-241.0,0
-11.0,-406.0,-172.0,-333.0,94.0,-163.0,0
-52.0,-431.0,-231.0,-501.0,165.0,-80.0,0
-89.0,-373.0,-181.0,-864.0,190.0,22.0,0
-123.0,-335.0,-174.0,-964.0,124.0,99.0,0
-140.0,-334.0,-201.0,-860.0,-23.0,179.0,0
-150.0,-298.0,-235.0,-766.0,-230.0,227.0,0
-141.0,-277.0,-207.0,-854.0,-428.0,288.0,0
-127.0,-267.0,-94.0,-932.0,-584.0,366.0,0
-88.0,-249.0,55.0,-707.0,-672.0,411.0,0
-52.0,-249.0,157.0,-74.0,-723.0,373.0,0
-29.0,-182.0,107.0,765.0,-736.0,297.0,0
19.0,-114.0,33.0,1438.0,-726.0,252.0,0
44.0,-30.0,-45.0,1786.0,-685.0,205.0,0
51.0,51.0,-126.0,1830.0,-578.0,144.0,0
35.0,91.0,-229.0,1620.0,-428.0,78.0,0
-11.0,100.0,-320.0,1124.0,-238.0,56.0,0
27.0,148.0,-353.0,333.0,-62.0,66.0,0
42.0,204.0,-340.0,-404.0,88.0,-40.0,0
55.0,248.0,-319.0,-820.0,222.0,-263.0,0
61.0,279.0,-292.0,-986.0,291.0,-511.0,0
24.0,265.0,-276.0,-1092.0,266.0,-626.0,0
61.0,141.0,-226.0,-1374.0,217.0,-444.0,0
73.0,26.0,-163.0,-1822.0,140.0,-280.0,0
52.0,-91.0,-84.0,-2183.0,69.0,-315.0,0
23.0,-196.0,-2.0,-2283.0,67.0,-406.0,0
-8.0,-272.0,62.0,-2081.0,87.0,-446.0,0
-42.0,-336.0,85.0,-1625.0,85.0,-390.0,0
-54.0,-348.0,91.0,-1077.0,46.0,-252.0,0
-53.0,-315.0,88.0,-465.0,-36.0,-147.0,0
-48.0,-240.0,83.0,137.0,-119.0,-107.0,0
-41.0,-137.0,66.0,610.0,-170.0,-87.0,0
-30.0,-26.0,35.0,824.0,-203.0,-83.0,0
-20.0,67.0,4.0,764.0,-217.0,-87.0,0
-10.0,136.0,-19.0,546.0,-197.0,-96.0,0
0.0,186.0,-24.0,290.0,-136.0,-92.0,0
8.0,210.0,-14.0,68.0,-66.0,-73.0,0
16.0,204.0,-15.0,-111.0,-8.0,-70.0,0
15.0,182.0,-5.0,-275.0,43.0,-119.0,0
22.0,155.0,11.0,-446.0,85.0,-186.0,0
21.0,120.0,21.0,-594.0,118.0,-227.0,0
22.0,79.0,34.0,-700.0,151.0,-226.0,0
19.0,49.0,44.0,-747.0,187.0,-181.0,0
16.0,14.0,37.0,-726.0,220.0,-118.0,0
16.0,-8.0,31.0,-663.0,242.0,-62.0,0
14.0,-25.0,19.0,-587.0,254.0,-26.0,0
15.0,-29.0,3.0,-522.0,263.0,-9.0,0
19.0,-27.0,-2.0,-482.0,278.0,-11.0,0
22.0,-17.0,-12.0,-465.0,301.0,-24.0,0
26.0,-10.0,-21.0,-466.0,335.0,-36.0,0
27.0,-5.0,-23.0,-480.0,378.0,-50.0,0
22.0,1.0,-26.0,-498.0,423.0,-66.0,0
19.0,-2.0,-28.0,-508.0,468.0,-79.0,0
13.0,-1.0,-29.0,-506.0,505.0,-84.0,0
6.0,1.0,-27.0,-499.0,524.0,-85.0,0
2.0,-5.0,-20.0,-498.0,525.0,-85.0,0
-8.0,-3.0,-19.0,-501.0,510.0,-78.0,0
-6.0,-7.0,-18.0,-511.0,484.0,-60.0,0
-9.0,-7.0,-6.0,-521.0,450.0,-36.0,0
-10.0,-7.0,1.0,-528.0,415.0,-8.0,0
-12.0,-9.0,3.0,-528.0,382.0,25.0,0
-16.0,-10.0,4.0,-524.0,349.0,63.0,0
-14.0,-14.0,7.0,-520.0,318.0,100.0,0
-15.0,-10.0,6.0,-519.0,284.0,136.0,0
-17.0,-8.0,4.0,-523.0,252.0,167.0,0
-15.0,-7.0,4.0,-528.0,227.0,195.0,0
-16.0,-4.0,3.0,-530.0,208.0,216.0,0
-9.0,-2.0,-3.0,-534.0,200.0,229.0,0
-5.0,2.0,-8.0,-540.0,204.0,241.0,0
0.0,5.0,-14.0,-546.0,219.0,252.0,0
0.0,8.0,-17.0,-551.0,247.0,258.0,0
4.0,6.0,-22.0,-560.0,283.0,260.0,0
5.0,7.0,-25.0,-570.0,325.0,259.0,0
9.0,1.0,-31.0,-578.0,370.0,257.0,0
11.0,-6.0,-35.0,-588.0,413.0,252.0,0
13.0,-15.0,-32.0,-599.0,451.0,240.0,0
14.0,-26.0,-35.0,-609.0,483.0,222.0,0
11.0,-35.0,-32.0,-600.0,510.0,198.0,0
7.0,-45.0,-29.0,-568.0,530.0,173.0,0
9.0,-49.0,-37.0,-515.0,547.0,150.0,0
14.0,-60.0,-23.0,-448.0,563.0,125.0,0
14.0,-59.0,-23.0,-367.0,580.0,96.0,0
21.0,-63.0,-16.0,-270.0,604.0,60.0,0
30.0,-64.0,-16.0,-166.0,635.0,17.0,0
38.0,-57.0,-10.0,-57.0,665.0,-25.0,0
44.0,-53.0,-9.0,60.0,700.0,-69.0,0
54.0,-44.0,-5.0,189.0,729.0,-111.0,0
62.0,-45.0,-3.0,342.0,756.0,-152.0,0
70.0,-45.0,9.0,542.0,788.0,-194.0,0
95.0,-49.0,11.0,795.0,831.0,-241.0,0
109.0,-63.0,-13.0,1080.0,877.0,-297.0,0
100.0,-84.0,3.0,1383.0,928.0,-348.0,0
143.0,-121.0,-24.0,1772.0,1007.0,-356.0,0
90.0,-162.0,-67.0,2216.0,995.0,-355.0,0
16.0,-242.0,81.0,2598.0,922.0,-253.0,0
-64.0,-270.0,100.0,3170.0,644.0,112.0,0
-129.0,-262.0,-35.0,3636.0,-236.0,471.0,0
-120.0,-308.0,-214.0,3483.0,-1257.0,661.0,0
-81.0,-343.0,-388.0,2775.0,-1547.0,730.0,0
-43.0,-386.0,-563.0,1500.0,-709.0,702.0,0
-73.0,-438.0,-620.0,-160.0,559.0,579.0,0
-234.0,-534.0,-397.0,-1771.0,1373.0,441.0,0
-322.0,-802.0,45.0,-2743.0,1388.0,469.0,0
-271.0,-931.0,307.0,-2534.0,899.0,749.0,0
-183.0,-980.0,128.0,-1402.0,199.0,1060.0,0
-69.0,-1017.0,-188.0,-537.0,-430.0,1172.0,0
66.0,-1039.0,-464.0,-682.0,-693.0,1065.0,0
165.0,-1045.0,-484.0,-1830.0,-507.0,753.0,0
294.0,-1227.0,-22.0,-3022.0,182.0,356.0,0
274.0,-1204.0,699.0,-2746.0,1079.0,-61.0,0
122.0,-1147.0,714.0,195.0,1618.0,-201.0,0
10.0,-1044.0,497.0,3364.0,1757.0,163.0,0
-117.0,-855.0,388.0,4273.0,1809.0,527.0,0
-217.0,-767.0,82.0,3069.0,1489.0,508.0,0
-248.0,-715.0,-5.0,1112.0,941.0,283.0,0
-243.0,-723.0,78.0,-421.0,502.0,127.0,0
-191.0,-754.0,179.0,-727.0,325.0,82.0,0
-167.0,-708.0,172.0,150.0,292.0,33.0,0
-148.0,-596.0,139.0,1342.0,318.0,-55.0,0
-135.0,-508.0,85.0,1964.0,261.0,-156.0,0
-101.0,-370.0,85.0,1824.0,66.0,-236.0,0
-64.0,-287.0,-2.0,1423.0,-165.0,-294.0,0
-50.0,-257.0,-75.0,862.0,-347.0,-299.0,0
-34.0,-228.0,-88.0,251.0,-447.0,-221.0,0
-27.0,-247.0,-96.0,-159.0,-484.0,-85.0,0
-10.0,-268.0,-85.0,-380.0,-512.0,77.0,0
-1.0,-297.0,-62.0,-501.0,-552.0,192.0,0
25.0,-319.0,-45.0,-576.0,-565.0,250.0,0
60.0,-341.0,-29.0,-619.0,-543.0,255.0,0
80.0,-353.0,-33.0,-620.0,-502.0,239.0,0
97.0,-362.0,-41.0,-595.0,-438.0,229.0,0
97.0,-371.0,-50.0,-564.0,-363.0,219.0,0
93.0,-384.0,-39.0,-573.0,-263.0,195.0,0
75.0,-394.0,-37.0,-612.0,-168.0,128.0,0
72.0,-363.0,22.0,-645.0,-99.0,47.0,0
63.0,-353.0,16.0,-484.0,-115.0,-3.0,0
68.0,-328.0,7.0,-278.0,-139.0,-5.0,0
67.0,-286.0,15.0,-131.0,-149.0,-27.0,0
71.0,-253.0,5.0,18.0,-141.0,-50.0,0
71.0,-208.0,5.0,101.0,-104.0,-59.0,0
66.0,-158.0,0.0,150.0,-48.0,-59.0,0
61.0,-111.0,-5.0,176.0,22.0,-61.0,0
47.0,-75.0,-17.0,160.0,85.0,-66.0,0
38.0,-46.0,-23.0,99.0,142.0,-67.0,0
24.0,-36.0,-32.0,14.0,183.0,-70.0,0
19.0,-38.0,-38.0,-111.0,201.0,-71.0,0
19.0,-50.0,-26.0,-252.0,216.0,-71.0,0
19.0,-64.0,-15.0,-346.0,236.0,-74.0,0
19.0,-82.0,-3.0,-366.0,233.0,-89.0,0
20.0,-94.0,1.0,-334.0,212.0,-121.0,0
16.0,-104.0,5.0,-291.0,195.0,-149.0,0
14.0,-114.0,-1.0,-256.0,206.0,-152.0,0
13.0,-123.0,5.0,-235.0,224.0,-137.0,0
6.0,-127.0,-1.0,-204.0,237.0,-129.0,0
7.0,-134.0,1.0,-159.0,242.0,-113.0,0
0.0,-141.0,-2.0,-97.0,235.0,-90.0,0
9.0,-150.0,-3.0,-36.0,218.0,-62.0,0
13.0,-157.0,-10.0,21.0,213.0,-43.0,0
18.0,-167.0,-5.0,77.0,231.0,-22.0,0
13.0,-171.0,-7.0,128.0,269.0,-14.0,0
11.0,-177.0,-8.0,182.0,322.0,-9.0,0
10.0,-184.0,-10.0,237.0,381.0,-3.0,0
5.0,-194.0,-13.0,276.0,437.0,-1.0,0
0.0,-200.0,-13.0,299.0,482.0,-4.0,0
-3.0,-209.0,-20.0,306.0,512.0,-9.0,0
-15.0,-213.0,-29.0,303.0,523.0,-21.0,0
-21.0,-216.0,-42.0,296.0,517.0,-40.0,0
-24.0,-218.0,-53.0,287.0,498.0,-62.0,0
-26.0,-219.0,-71.0,274.0,474.0,-85.0,0
-36.0,-225.0,-84.0,253.0,453.0,-99.0,0
-45.0,-231.0,-88.0,234.0,436.0,-73.0,0
-39.0,-240.0,-86.0,217.0,414.0,-72.0,0
-57.0,-242.0,-87.0,233.0,365.0,-125.0,0
-57.0,-255.0,-81.0,232.0,318.0,-118.0,0
-35.0,-272.0,-55.0,168.0,253.0,-65.0,0
-32.0,-282.0,-43.0,96.0,174.0,-33.0,0
-29.0,-283.0,-35.0,59.0,141.0,-28.0,0
-34.0,-283.0,-36.0,57.0,134.0,-46.0,0
-34.0,-290.0,-28.0,68.0,141.0,-14.0,0
-34.0,-298.0,-18.0,80.0,143.0,38.0,0
-35.0,-298.0,-17.0,116.0,127.0,62.0,0
-36.0,-287.0,-15.0,173.0,102.0,69.0,0
-36.0,-280.0,-20.0,226.0,75.0,80.0,0
-34.0,-272.0,-23.0,242.0,45.0,91.0,0
-38.0,-268.0,-22.0,211.0,16.0,109.0,0
-47.0,-265.0,-23.0,150.0,-18.0,141.0,0
-54.0,-274.0,-21.0,81.0,-57.0,186.0,0
-64.0,-289.0,-18.0,22.0,-102.0,230.0,0
-66.0,-293.0,-19.0,-14.0,-157.0,256.0,0
-69.0,-304.0,-20.0,-24.0,-225.0,262.0,0
-68.0,-308.0,-14.0,-21.0,-296.0,251.0,0
-71.0,-310.0,-14.0,-10.0,-359.0,240.0,0
-68.0,-308.0,-22.0,3.0,-406.0,226.0,0
-67.0,-299.0,-19.0,16.0,-444.0,209.0,0
-59.0,-292.0,-24.0,15.0,-474.0,183.0,0
-55.0,-286.0,-26.0,-7.0,-498.0,160.0,0
-45.0,-280.0,-20.0,-39.0,-520.0,138.0,0
-34.0,-282.0,-24.0,-64.0,-547.0,126.0,0
-30.0,-276.0,-20.0,-78.0,-577.0,114.0,0
-21.0,-273.0,-19.0,-81.0,-603.0,100.0,0
-17.0,-266.0,-19.0,-76.0,-621.0,90.0,0
-13.0,-265.0,-20.0,-72.0,-632.0,84.0,0
-10.0,-258.0,-18.0,-67.0,-639.0,82.0,0
-5.0,-254.0,-18.0,-62.0,-641.0,83.0,0
-4.0,-249.0,-19.0,-47.0,-640.0,84.0,0
-6.0,-248.0,-18.0,-27.0,-635.0,88.0,0
-1.0,-248.0,-22.0,-3.0,-626.0,93.0,0
4.0,-248.0,-21.0,20.0,-614.0,99.0,0
6.0,-236.0,-28.0,41.0,-605.0,106.0,0
2.0,-241.0,-18.0,61.0,-596.0,112.0,0
-2.0,-238.0,-15.0,85.0,-594.0,117.0,0
0.0,-231.0,-16.0,107.0,-598.0,120.0,0
-2.0,-229.0,-20.0,122.0,-601.0,118.0,0
-4.0,-226.0,-17.0,130.0,-595.0,114.0,0
1.0,-225.0,-18.0,134.0,-579.0,111.0,0
-2.0,-225.0,-17.0,133.0,-554.0,104.0,0
-2.0,-226.0,-12.0,128.0,-531.0,97.0,0
-6.0,-229.0,-14.0,117.0,-511.0,92.0,0
-4.0,-236.0,-18.0,105.0,-495.0,86.0,0
-11.0,-236.0,-13.0,98.0,-482.0,86.0,0
-12.0,-237.0,-10.0,98.0,-475.0,87.0,0
-11.0,-244.0,-7.0,102.0,-475.0,88.0,0
-13.0,-245.0,-3.0,116.0,-480.0,89.0,0
-15.0,-246.0,-8.0,132.0,-480.0,96.0,0
-13.0,-244.0,-5.0,140.0,-473.0,103.0,0
-16.0,-245.0,-7.0,147.0,-458.0,106.0,0
-19.0,-243.0,0.0,153.0,-445.0,107.0,0
-18.0,-244.0,-6.0,161.0,-435.0,109.0,0
-19.0,-242.0,-3.0,173.0,-430.0,113.0,0
-17.0,-242.0,-1.0,184.0,-431.0,117.0,0
-20.0,-235.0,-7.0,195.0,-433.0,118.0,0
-16.0,-244.0,-5.0,201.0,-433.0,116.0,0
-16.0,-245.0,-6.0,196.0,-430.0,113.0,0
-16.0,-251.0,-8.0,186.0,-429.0,108.0,0
-18.0,-255.0,-10.0,175.0,-430.0,94.0,0
-20.0,-261.0,-7.0,169.0,-429.0,79.0,0
-20.0,-266.0,-8.0,168.0,-423.0,63.0,0
-20.0,-274.0,-5.0,172.0,-414.0,48.0,0
-22.0,-276.0,-11.0,183.0,-402.0,30.0,0
-25.0,-275.0,-8.0,198.0,-387.0,14.0,0
-25.0,-280.0,-7.0,213.0,-372.0,3.0,0
-26.0,-282.0,-7.0,223.0,-354.0,2.0,0
-25.0,-280.0,-5.0,234.0,-339.0,3.0,0
-24.0,-282.0,0.0,246.0,-332.0,11.0,0
-22.0,-280.0,0.0,257.0,-330.0,24.0,0
-19.0,-281.0,-6.0,259.0,-331.0,45.0,0
-14.0,-280.0,-6.0,255.0,-331.0,69.0,0
-15.0,-279.0,-11.0,248.0,-332.0,95.0,0
-17.0,-276.0,-12.0,241.0,-331.0,123.0,0
-18.0,-270.0,-19.0,230.0,-333.0,145.0,0
-16.0,-264.0,-20.0,215.0,-336.0,163.0,0
-10.0,-266.0,-22.0,193.0,-339.0,172.0,0
-9.0,-256.0,-19.0,170.0,-335.0,178.0,0
-4.0,-253.0,-19.0,150.0,-317.0,179.0,0
-3.0,-253.0,-12.0,133.0,-291.0,175.0,0
-8.0,-251.0,-6.0,125.0,-265.0,165.0,0
-10.0,-250.0,-6.0,122.0,-243.0,155.0,0
-9.0,-250.0,-2.0,121.0,-225.0,143.0,0
-7.0,-251.0,-5.0,116.0,-214.0,128.0,0
-9.0,-249.0,-6.0,114.0,-205.0,113.0,0
-6.0,-249.0,-3.0,116.0,-199.0,99.0,0
-7.0,-248.0,-4.0,119.0,-190.0,86.0,0
-12.0,-249.0,-7.0,117.0,-181.0,76.0,0
-12.0,-247.0,-3.0,111.0,-171.0,68.0,0
-15.0,-247.0,-3.0,106.0,-163.0,64.0,0
-16.0,-249.0,-2.0,103.0,-150.0,61.0,0
-15.0,-249.0,6.0,97.0,-137.0,56.0,0
-15.0,-248.0,5.0,105.0,-133.0,57.0,0
-11.0,-249.0,1.0,121.0,-129.0,57.0,0
-15.0,-247.0,2.0,124.0,-118.0,57.0,0
-13.0,-248.0,2.0,114.0,-105.0,59.0,0
-13.0,-249.0,0.0,106.0,-96.0,61.0,0
-16.0,-252.0,1.0,100.0,-96.0,65.0,0
-18.0,-258.0,12.0,96.0,-97.0,66.0,0
-17.0,-256.0,7.0,93.0,-95.0,62.0,0
-18.0,-260.0,11.0,91.0,-92.0,56.0,0
-21.0,-261.0,11.0,95.0,-87.0,49.0,0
-16.0,-260.0,22.0,108.0,-85.0,38.0,0
-20.0,-263.0,18.0,129.0,-83.0,25.0,0
-20.0,-261.0,22.0,151.0,-80.0,12.0,0
-18.0,-263.0,17.0,168.0,-75.0,-1.0,0
-20.0,-263.0,21.0,176.0,-70.0,-12.0,0
-16.0,-264.0,16.0,182.0,-68.0,-21.0,0
-13.0,-265.0,12.0,191.0,-69.0,-31.0,0
-13.0,-259.0,12.0,201.0,-71.0,-35.0,0
-11.0,-257.0,15.0,204.0,-72.0,-39.0,0
-16.0,-252.0,13.0,201.0,-68.0,-39.0,0
-20.0,-251.0,16.0,188.0,-61.0,-39.0,0
-21.0,-252.0,13.0,172.0,-56.0,-35.0,0
-20.0,-252.0,14.0,161.0,-54.0,-31.0,0
-16.0,-252.0,13.0,156.0,-49.0,-28.0,0
-15.0,-252.0,9.0,155.0,-40.0,-24.0,0
-16.0,-251.0,10.0,156.0,-30.0,-20.0,0
-16.0,-253.0,10.0,153.0,-26.0,-17.0,0
-15.0,-252.0,9.0,148.0,-23.0,-14.0,0
-19.0,-253.0,6.0,139.0,-21.0,-9.0,0
-16.0,-252.0,13.0,131.0,-17.0,-9.0,0
-19.0,-248.0,15.0,125.0,-17.0,-11.0,0
-18.0,-253.0,19.0,118.0,-19.0,-13.0,0
-18.0,-250.0,12.0,110.0,-19.0,-17.0,0
-18.0,-251.0,16.0,105.0,-15.0,-22.0,0
-16.0,-253.0,14.0,102.0,-9.0,-29.0,0
-16.0,-250.0,14.0,99.0,-2.0,-33.0,0
-18.0,-253.0,11.0,96.0,9.0,-36.0,0
-17.0,-251.0,13.0,90.0,21.0,-40.0,0
-18.0,-250.0,10.0,81.0,30.0,-41.0,0
-18.0,-252.0,15.0,73.0,34.0,-44.0,0
-19.0,-255.0,15.0,69.0,36.0,-46.0,0
-22.0,-251.0,16.0,67.0,38.0,-47.0,0
-21.0,-251.0,16.0,62.0,44.0,-52.0,0
-22.0,-252.0,17.0,54.0,50.0,-53.0,0
-23.0,-254.0,19.0,47.0,54.0,-53.0,0
-19.0,-254.0,15.0,45.0,54.0,-53.0,0
-21.0,-253.0,21.0,47.0,54.0,-52.0,0
-22.0,-252.0,16.0,49.0,54.0,-51.0,0
-22.0,-250.0,17.0,53.0,57.0,-47.0,0
-22.0,-250.0,14.0,52.0,59.0,-44.0,0
-24.0,-251.0,18.0,51.0,60.0,-45.0,0
-23.0,-250.0,19.0,50.0,61.0,-44.0,0
-28.0,-251.0,20.0,49.0,60.0,-42.0,0
-28.0,-254.0,22.0,45.0,58.0,-45.0,0
-30.0,-254.0,22.0,40.0,58.0,-48.0,0
-28.0,-257.0,22.0,35.0,57.0,-53.0,0
-27.0,-254.0,21.0,27.0,57.0,-60.0,0
-22.0,-257.0,21.0,20.0,60.0,-67.0,0
-22.0,-259.0,22.0,15.0,69.0,-73.0,0
-19.0,-261.0,21.0,12.0,79.0,-73.0,0
-19.0,-260.0,21.0,13.0,87.0,-73.0,0
-23.0,-257.0,23.0,20.0,88.0,-69.0,0
-24.0,-252.0,23.0,26.0,86.0,-65.0,0
-25.0,-250.0,20.0,28.0,83.0,-57.0,0
-22.0,-252.0,21.0,24.0,80.0,-48.0,0
-24.0,-249.0,21.0,14.0,77.0,-38.0,0
-27.0,-253.0,20.0,2.0,76.0,-31.0,0
-26.0,-255.0,24.0,-2.0,75.0,-24.0,0
-25.0,-254.0,20.0,1.0,72.0,-19.0,0
-27.0,-252.0,17.0,5.0,71.0,-15.0,0
-25.0,-256.0,20.0,8.0,73.0,-11.0,0
-13.0,-253.0,25.0,8.0,74.0,-9.0,0
-22.0,-254.0,18.0,9.0,75.0,-9.0,0
-20.0,-252.0,17.0,7.0,77.0,-9.0,0
-19.0,-251.0,21.0,2.0,83.0,-12.0,0
-22.0,-252.0,16.0,-3.0,89.0,-15.0,0
-21.0,-251.0,15.0,-10.0,94.0,-18.0,0
-24.0,-252.0,19.0,-16.0,96.0,-21.0,0
-26.0,-255.0,24.0,-21.0,94.0,-23.0,0
-24.0,-253.0,20.0,-23.0,91.0,-28.0,0
-22.0,-252.0,19.0,-24.0,87.0,-31.0,0
-23.0,-253.0,20.0,-24.0,85.0,-36.0,0
-23.0,-250.0,18.0,-27.0,85.0,-38.0,0
-24.0,-250.0,17.0,-31.0,87.0,-40.0,0
-24.0,-252.0,22.0,-36.0,89.0,-42.0,0
-20.0,-249.0,17.0,-40.0,90.0,-41.0,0
-23.0,-251.0,17.0,-40.0,87.0,-39.0,0
-26.0,-252.0,19.0,-40.0,87.0,-38.0,0
-26.0,-252.0,16.0,-43.0,86.0,-35.0,0
-28.0,-253.0,17.0,-43.0,85.0,-34.0,0
-29.0,-253.0,16.0,-41.0,76.0,-34.0,0
-29.0,-256.0,15.0,-47.0,67.0,-28.0,0
-29.0,-249.0,14.0,-48.0,60.0,-28.0,0
-39.0,-248.0,1.0,-32.0,55.0,-46.0,0
-29.0,-246.0,11.0,-22.0,45.0,-64.0,0
-25.0,-255.0,11.0,-30.0,38.0,-55.0,0
-22.0,-265.0,19.0,-61.0,35.0,-34.0,0
-24.0,-271.0,19.0,-84.0,42.0,-9.0,0
-28.0,-270.0,19.0,-87.0,42.0,3.0,0
-24.0,-273.0,19.0,-75.0,30.0,11.0,0
-23.0,-268.0,18.0,-55.0,13.0,15.0,0
-19.0,-261.0,13.0,-29.0,4.0,14.0,0
-21.0,-250.0,11.0,-4.0,-1.0,5.0,0
-18.0,-249.0,15.0,4.0,-5.0,-4.0,0
-19.0,-243.0,9.0,-9.0,-4.0,-12.0,0
-21.0,-246.0,14.0,-37.0,2.0,-14.0,0
-22.0,-248.0,14.0,-68.0,9.0,-12.0,0
-21.0,-251.0,21.0,-95.0,14.0,-12.0,0
-22.0,-256.0,19.0,-106.0,8.0,-16.0,0
-22.0,-257.0,20.0,-100.0,2.0,-15.0,0
-27.0,-256.0,20.0,-89.0,-1.0,-11.0,0
-26.0,-255.0,14.0,-76.0,1.0,-6.0,0
-25.0,-254.0,18.0,-69.0,-3.0,-6.0,0
-21.0,-250.0,16.0,-61.0,-10.0,-4.0,0
-23.0,-253.0,13.0,-61.0,-12.0,-4.0,0
-21.0,-249.0,16.0,-73.0,-3.0,-8.0,0
-19.0,-251.0,17.0,-86.0,9.0,-11.0,0
-24.0,-249.0,19.0,-99.0,13.0,-12.0,0
-21.0,-252.0,19.0,-108.0,10.0,-14.0,0
-18.0,-256.0,20.0,-109.0,4.0,-17.0,0
-20.0,-253.0,17.0,-106.0,-3.0,-17.0,0
-21.0,-251.0,16.0,-101.0,-15.0,-18.0,0
-21.0,-255.0,13.0,-99.0,-19.0,-19.0,0
-25.0,-255.0,13.0,-95.0,-22.0,-17.0,0
-24.0,-256.0,13.0,-93.0,-29.0,-17.0,0
-21.0,-255.0,11.0,-93.0,-35.0,-14.0,0
-28.0,-254.0,15.0,-91.0,-39.0,-12.0,0
-29.0,-255.0,16.0,-90.0,-43.0,-9.0,0
-30.0,-251.0,13.0,-91.0,-46.0,-5.0,0
-28.0,-256.0,16.0,-92.0,-50.0,2.0,0
-26.0,-255.0,15.0,-91.0,-53.0,6.0,0
-21.0,-256.0,12.0,-86.0,-54.0,10.0,0
-18.0,-259.0,14.0,-82.0,-54.0,16.0,0
-23.0,-255.0,14.0,-78.0,-56.0,20.0,0
-21.0,-253.0,10.0,-75.0,-59.0,21.0,0
-24.0,-252.0,17.0,-82.0,-65.0,24.0,0
-26.0,-248.0,5.0,-90.0,-75.0,24.0,0
-21.0,-253.0,17.0,-98.0,-89.0,20.0,0
-23.0,-253.0,19.0,-102.0,-94.0,16.0,0
-25.0,-254.0,17.0,-104.0,-95.0,14.0,0
-22.0,-255.0,12.0,-104.0,-91.0,12.0,0
-21.0,-251.0,15.0,-100.0,-88.0,12.0,0
-21.0,-255.0,11.0,-96.0,-88.0,13.0,0
-18.0,-254.0,13.0,-93.0,-91.0,14.0,0
-18.0,-253.0,13.0,-94.0,-90.0,17.0,0
-20.0,-250.0,8.0,-101.0,-91.0,18.0,0
-14.0,-252.0,14.0,-111.0,-86.0,19.0,0
-19.0,-253.0,15.0,-121.0,-81.0,20.0,0
-19.0,-253.0,14.0,-127.0,-76.0,19.0,0
-16.0,-254.0,16.0,-127.0,-69.0,19.0,0
-18.0,-257.0,15.0,-123.0,-63.0,19.0,0
-15.0,-261.0,17.0,-113.0,-59.0,18.0,0
-16.0,-257.0,14.0,-103.0,-59.0,18.0,0
-11.0,-260.0,15.0,-98.0,-58.0,19.0,0
-9.0,-260.0,15.0,-92.0,-58.0,20.0,0
-11.0,-258.0,15.0,-86.0,-58.0,18.0,0
-10.0,-254.0,15.0,-82.0,-58.0,15.0,0
-11.0,-257.0,17.0,-80.0,-56.0,12.0,0
-13.0,-254.0,16.0,-82.0,-53.0,11.0,0
-16.0,-258.0,14.0,-86.0,-54.0,9.0,0
-16.0,-258.0,17.0,-86.0,-56.0,8.0,0
-14.0,-258.0,17.0,-81.0,-61.0,8.0,0
-13.0,-257.0,20.0,-69.0,-64.0,11.0,0
-16.0,-253.0,17.0,-57.0,-62.0,12.0,0
-14.0,-254.0,17.0,-45.0,-60.0,12.0,0
-12.0,-250.0,18.0,-40.0,-55.0,16.0,0
-12.0,-254.0,17.0,-37.0,-50.0,17.0,0
-11.0,-253.0,17.0,-34.0,-45.0,17.0,0
-9.0,-253.0,19.0,-29.0,-38.0,16.0,0
-13.0,-256.0,18.0,-23.0,-28.0,12.0,0
-13.0,-257.0,19.0,-15.0,-24.0,9.0,0
-13.0,-254.0,19.0,-9.0,-23.0,4.0,0
-12.0,-254.0,18.0,-5.0,-20.0,2.0,0
-14.0,-255.0,17.0,-4.0,-16.0,-1.0,0
-16.0,-255.0,15.0,-2.0,-9.0,-2.0,0
-17.0,-252.0,15.0,-1.0,-4.0,-3.0,0
-13.0,-255.0,16.0,0.0,1.0,-2.0,0
-13.0,-255.0,15.0,3.0,8.0,-1.0,0
-14.0,-255.0,17.0,4.0,11.0,-1.0,0
-13.0,-254.0,17.0,7.0,16.0,0.0,0
-7.0,-263.0,18.0,7.0,21.0,-1.0,0
-13.0,-253.0,12.0,4.0,30.0,2.0,0
-14.0,-255.0,16.0,1.0,38.0,2.0,0
-13.0,-258.0,15.0,-1.0,46.0,2.0,0
-11.0,-257.0,17.0,4.0,50.0,2.0,0
-12.0,-256.0,17.0,10.0,55.0,1.0,0
-10.0,-259.0,15.0,15.0,60.0,0.0,0
-14.0,-258.0,15.0,16.0,66.0,0.0,0
-13.0,-255.0,20.0,14.0,72.0,-1.0,0
-13.0,-257.0,21.0,11.0,76.0,0.0,0
-11.0,-260.0,22.0,9.0,80.0,-1.0,0
-10.0,-260.0,19.0,14.0,84.0,-3.0,0
-14.0,-254.0,20.0,23.0,90.0,-4.0,0
-10.0,-260.0,21.0,33.0,94.0,-8.0,0
-12.0,-252.0,20.0,41.0,100.0,-11.0,0
-10.0,-253.0,17.0,45.0,109.0,-13.0,0
-11.0,-250.0,19.0,44.0,115.0,-12.0,0
-14.0,-251.0,15.0,40.0,121.0,-9.0,0
-9.0,-249.0,12.0,32.0,123.0,-11.0,0
-11.0,-249.0,16.0,22.0,126.0,-10.0,0
-12.0,-253.0,16.0,15.0,131.0,-9.0,0
-14.0,-257.0,27.0,12.0,137.0,-8.0,0
-12.0,-255.0,18.0,11.0,141.0,-11.0,0
-16.0,-258.0,22.0,14.0,145.0,-12.0,0
-17.0,-257.0,22.0,20.0,147.0,-12.0,0
-19.0,-258.0,21.0,24.0,148.0,-12.0,0
-21.0,-255.0,19.0,29.0,148.0,-12.0,0
-17.0,-255.0,23.0,32.0,147.0,-11.0,0
-19.0,-252.0,14.0,36.0,146.0,-10.0,0
-17.0,-251.0,18.0,35.0,147.0,-8.0,0
-16.0,-252.0,13.0,29.0,149.0,-8.0,0
-15.0,-252.0,15.0,21.0,150.0,-6.0,0
-18.0,-251.0,15.0,14.0,149.0,-5.0,0
-14.0,-254.0,17.0,10.0,148.0,-5.0,0
-17.0,-253.0,15.0,7.0,149.0,-5.0,0
-17.0,-255.0,17.0,7.0,151.0,-7.0,0
-15.0,-255.0,18.0,9.0,149.0,-10.0,0
-17.0,-257.0,22.0,13.0,148.0,-14.0,0
-17.0,-254.0,18.0,21.0,148.0,-16.0,0
-16.0,-254.0,19.0,29.0,147.0,-18.0,0
-15.0,-255.0,18.0,34.0,148.0,-20.0,0
-19.0,-252.0,15.0,33.0,147.0,-19.0,0
-14.0,-255.0,15.0,30.0,147.0,-18.0,0
-22.0,-250.0,16.0,26.0,145.0,-17.0,0
-19.0,-256.0,17.0,21.0,141.0,-15.0,0
-16.0,-250.0,17.0,19.0,136.0,-13.0,0
-16.0,-253.0,18.0,19.0,133.0,-13.0,0
-16.0,-255.0,17.0,20.0,131.0,-13.0,0
-16.0,-254.0,15.0,22.0,131.0,-13.0,0
-16.0,-254.0,14.0,27.0,129.0,-14.0,0
-17.0,-255.0,16.0,31.0,127.0,-14.0,0
-18.0,-253.0,11.0,33.0,125.0,-14.0,0
-20.0,-251.0,13.0,32.0,123.0,-14.0,0
-20.0,-255.0,13.0,24.0,122.0,-11.0,0
-17.0,-255.0,13.0,15.0,118.0,-11.0,0
-17.0,-252.0,14.0,10.0,115.0,-11.0,0
-13.0,-254.0,16.0,8.0,120.0,-11.0,0
-15.0,-256.0,18.0,11.0,122.0,-11.0,0
-12.0,-258.0,14.0,13.0,122.0,-9.0,0
-14.0,-255.0,19.0,15.0,118.0,-8.0,0
-15.0,-256.0,18.0,16.0,113.0,-7.0,0
-17.0,-256.0,20.0,14.0,110.0,-7.0,0
-19.0,-256.0,16.0,10.0,112.0,-5.0,0
-17.0,-254.0,17.0,10.0,112.0,-5.0,0
-17.0,-254.0,18.0,10.0,113.0,-5.0,0
-17.0,-259.0,17.0,12.0,112.0,-8.0,0
-17.0,-255.0,16.0,16.0,112.0,-9.0,0
-19.0,-253.0,14.0,17.0,111.0,-9.0,0
-20.0,-250.0,16.0,14.0,110.0,-9.0,0
-19.0,-257.0,17.0,11.0,111.0,-10.0,0
-17.0,-252.0,14.0,12.0,111.0,-10.0,0
-20.0,-253.0,15.0,17.0,111.0,-12.0,0
-18.0,-254.0,16.0,22.0,110.0,-11.0,0
-16.0,-256.0,16.0,23.0,110.0,-10.0,0
-15.0,-252.0,13.0,20.0,105.0,-10.0,0
-16.0,-251.0,14.0,16.0,103.0,-10.0,0
-18.0,-255.0,16.0,12.0,102.0,-11.0,0
-18.0,-254.0,16.0,9.0,102.0,-13.0,0
-18.0,-258.0,24.0,8.0,99.0,-12.0,0
-20.0,-256.0,19.0,8.0,100.0,-14.0,0
-18.0,-254.0,14.0,7.0,99.0,-14.0,0
-21.0,-256.0,19.0,9.0,100.0,-10.0,0
-17.0,-257.0,21.0,14.0,99.0,-8.0,0
-18.0,-254.0,20.0,20.0,99.0,-6.0,0
-22.0,-252.0,21.0,23.0,97.0,-1.0,0
-19.0,-253.0,15.0,24.0,95.0,2.0,0
-17.0,-253.0,13.0,21.0,95.0,5.0,0
-17.0,-253.0,13.0,16.0,96.0,8.0,0
-15.0,-254.0,15.0,8.0,98.0,10.0,0
-17.0,-252.0,15.0,0.0,100.0,9.0,0
-16.0,-252.0,19.0,-6.0,100.0,6.0,0
-17.0,-257.0,15.0,-6.0,102.0,2.0,0
-14.0,-253.0,19.0,-4.0,102.0,-1.0,0
-16.0,-254.0,18.0,-5.0,100.0,-7.0,0
-19.0,-252.0,12.0,-10.0,99.0,-10.0,0
-18.0,-253.0,16.0,-14.0,98.0,-12.0,0
-18.0,-251.0,18.0,-15.0,99.0,-14.0,0
-17.0,-254.0,19.0,-13.0,98.0,-14.0,0
-18.0,-251.0,16.0,-11.0,97.0,-14.0,0
-20.0,-250.0,14.0,-10.0,97.0,-15.0,0
-19.0,-252.0,13.0,-15.0,98.0,-15.0,0
-20.0,-251.0,12.0,-21.0,98.0,-14.0,0
-17.0,-252.0,13.0,-28.0,100.0,-14.0,0
-19.0,-256.0,15.0,-31.0,103.0,-14.0,0
-16.0,-256.0,10.0,-30.0,107.0,-12.0,0
-17.0,-257.0,15.0,-26.0,107.0,-12.0,0
-22.0,-255.0,18.0,-22.0,102.0,-13.0,0
-19.0,-255.0,14.0,-21.0,98.0,-15.0,0
-12.0,-246.0,14.0,-22.0,94.0,-15.0,0
-21.0,-254.0,11.0,-25.0,93.0,-13.0,0
-19.0,-256.0,13.0,-27.0,93.0,-13.0,0
-19.0,-252.0,9.0,-28.0,91.0,-14.0,0
-21.0,-256.0,10.0,-30.0,87.0,-10.0,0
-22.0,-254.0,16.0,-32.0,82.0,-8.0,0
-21.0,-258.0,16.0,-31.0,79.0,-9.0,0
-19.0,-258.0,15.0,-29.0,78.0,-8.0,0
-21.0,-254.0,12.0,-27.0,78.0,-6.0,0
-21.0,-253.0,12.0,-24.0,77.0,-5.0,0
-21.0,-255.0,8.0,-21.0,74.0,-5.0,0
-18.0,-257.0,13.0,-20.0,67.0,-4.0,0
-22.0,-254.0,14.0,-20.0,62.0,-2.0,0
-21.0,-253.0,11.0,-17.0,55.0,-1.0,0
-20.0,-254.0,14.0,-17.0,52.0,-3.0,0
-17.0,-254.0,12.0,-20.0,50.0,-3.0,0
-18.0,-257.0,13.0,-22.0,50.0,-3.0,0
-18.0,-258.0,12.0,-22.0,50.0,-4.0,0
-20.0,-258.0,15.0,-20.0,46.0,-3.0,0
-18.0,-256.0,14.0,-15.0,44.0,-3.0,0
-17.0,-255.0,12.0,-12.0,42.0,-3.0,0
-15.0,-257.0,15.0,-12.0,39.0,-1.0,0
-20.0,-261.0,19.0,-12.0,37.0,-1.0,0
-21.0,-256.0,18.0,-15.0,40.0,1.0,0
-22.0,-257.0,15.0,-16.0,35.0,5.0,0
-16.0,-258.0,15.0,-11.0,28.0,4.0,0
-19.0,-254.0,13.0,-6.0,25.0,2.0,0
-19.0,-252.0,14.0,-2.0,23.0,4.0,0
-18.0,-252.0,12.0,-4.0,22.0,5.0,0
-16.0,-255.0,13.0,-11.0,23.0,6.0,0
-17.0,-255.0,14.0,-15.0,25.0,6.0,0
-13.0,-258.0,16.0,-15.0,25.0,7.0,0
-15.0,-257.0,13.0,-12.0,24.0,4.0,0
-18.0,-255.0,13.0,-9.0,23.0,4.0,0
-15.0,-257.0,13.0,-5.0,24.0,3.0,0
-19.0,-256.0,16.0,-4.0,27.0,1.0,0
-16.0,-255.0,15.0,-5.0,29.0,2.0,0
-20.0,-256.0,12.0,-5.0,30.0,2.0,0
-17.0,-258.0,16.0,-7.0,33.0,1.0,0
-17.0,-257.0,13.0,-9.0,31.0,2.0,0
-18.0,-257.0,16.0,-11.0,27.0,3.0,0
-18.0,-257.0,16.0,-12.0,26.0,3.0,0
-17.0,-255.0,17.0,-9.0,25.0,1.0,0
-16.0,-257.0,15.0,-7.0,25.0,3.0,0
-7.0,-262.0,10.0,-4.0,29.0,5.0,0
-17.0,-255.0,15.0,-4.0,31.0,3.0,0
-16.0,-253.0,15.0,-5.0,32.0,2.0,0
-16.0,-254.0,11.0,-8.0,31.0,2.0,0
-14.0,-255.0,13.0,-12.0,32.0,5.0,0
-17.0,-255.0,14.0,-16.0,36.0,2.0,0
-16.0,-252.0,19.0,-17.0,38.0,2.0,0
-17.0,-254.0,17.0,-14.0,37.0,0.0,0
-22.0,-254.0,15.0,-12.0,34.0,-4.0,0
-18.0,-254.0,15.0,-9.0,33.0,-4.0,0
-21.0,-253.0,16.0,-10.0,33.0,-5.0,0
-19.0,-256.0,18.0,-9.0,33.0,-5.0,0
-17.0,-256.0,19.0,-10.0,35.0,-4.0,0
-15.0,-254.0,13.0,-8.0,34.0,-2.0,0
-18.0,-255.0,13.0,-7.0,35.0,1.0,0
-18.0,-255.0,14.0,-8.0,36.0,3.0,0
-15.0,-256.0,16.0,-11.0,37.0,4.0,0
-16.0,-255.0,17.0,-9.0,39.0,6.0,0
-19.0,-257.0,13.0,-6.0,38.0,3.0,0
-19.0,-252.0,16.0,-4.0,38.0,3.0,0
-15.0,-255.0,17.0,-3.0,38.0,1.0,0
-19.0,-258.0,16.0,-2.0,38.0,1.0,0
-17.0,-251.0,12.0,-3.0,40.0,0.0,0
-16.0,-252.0,15.0,-5.0,42.0,-1.0,0
-17.0,-252.0,16.0,-4.0,45.0,-2.0,0
-14.0,-252.0,21.0,-4.0,44.0,0.0,0
-16.0,-256.0,17.0,-6.0,43.0,-3.0,0
-18.0,-254.0,17.0,-6.0,46.0,-4.0,0
-16.0,-256.0,18.0,-6.0,47.0,-5.0,0
-17.0,-257.0,15.0,-5.0,48.0,-6.0,0
-18.0,-254.0,20.0,-1.0,51.0,-6.0,0
-16.0,-258.0,18.0,4.0,53.0,-6.0,0
-17.0,-258.0,17.0,8.0,55.0,-6.0,0
-16.0,-257.0,20.0,13.0,59.0,-6.0,0
-17.0,-254.0,20.0,15.0,64.0,-7.0,0
-16.0,-253.0,23.0,16.0,69.0,-7.0,0
-15.0,-253.0,21.0,19.0,72.0,-8.0,0
-12.0,-257.0,26.0,24.0,74.0,-8.0,0
-13.0,-254.0,21.0,29.0,77.0,-9.0,0
-15.0,-254.0,23.0,36.0,82.0,-9.0,0
-16.0,-255.0,18.0,43.0,85.0,-10.0,0
-15.0,-250.0,18.0,45.0,86.0,-11.0,0
-16.0,-250.0,21.0,39.0,87.0,-12.0,0
-13.0,-249.0,20.0,30.0,89.0,-12.0,0
-12.0,-252.0,21.0,21.0,95.0,-11.0,0
-16.0,-255.0,20.0,17.0,104.0,-11.0,0
-12.0,-258.0,25.0,16.0,108.0,-11.0,0
-17.0,-259.0,20.0,20.0,112.0,-13.0,0
-15.0,-260.0,22.0,28.0,117.0,-13.0,0
-11.0,-261.0,20.0,37.0,121.0,-13.0,0
-15.0,-256.0,19.0,46.0,125.0,-14.0,0
-15.0,-255.0,21.0,51.0,125.0,-14.0,0
-15.0,-254.0,15.0,52.0,125.0,-14.0,0
-12.0,-256.0,16.0,48.0,122.0,-14.0,0
-15.0,-257.0,17.0,43.0,123.0,-15.0,0
-12.0,-255.0,13.0,44.0,121.0,-15.0,0
-16.0,-254.0,14.0,46.0,122.0,-16.0,0
-14.0,-254.0,17.0,49.0,125.0,-16.0,0
-12.0,-258.0,16.0,56.0,127.0,-18.0,0
-13.0,-258.0,15.0,64.0,126.0,-20.0,0
-17.0,-254.0,14.0,71.0,128.0,-23.0,0
-13.0,-256.0,14.0,76.0,129.0,-27.0,0
-15.0,-255.0,15.0,81.0,131.0,-30.0,0
-17.0,-251.0,13.0,84.0,135.0,-33.0,0
-14.0,-252.0,17.0,82.0,141.0,-37.0,0
-17.0,-248.0,17.0,79.0,146.0,-40.0,0
-19.0,-253.0,16.0,78.0,152.0,-42.0,0
-17.0,-255.0,11.0,81.0,153.0,-44.0,0
-17.0,-256.0,14.0,83.0,153.0,-43.0,0
-17.0,-256.0,15.0,83.0,158.0,-43.0,0
-18.0,-256.0,14.0,86.0,163.0,-42.0,0
-16.0,-254.0,17.0,88.0,171.0,-42.0,0
-17.0,-255.0,17.0,85.0,178.0,-42.0,0
-15.0,-254.0,17.0,81.0,183.0,-41.0,0
-20.0,-253.0,16.0,78.0,184.0,-41.0,0
-20.0,-259.0,13.0,77.0,182.0,-40.0,0
-22.0,-255.0,18.0,78.0,177.0,-40.0,0
-15.0,-256.0,18.0,78.0,172.0,-41.0,0
-16.0,-255.0,15.0,78.0,175.0,-40.0,0
-15.0,-255.0,17.0,78.0,181.0,-42.0,0
-18.0,-250.0,22.0,74.0,187.0,-41.0,0
-17.0,-249.0,17.0,69.0,191.0,-43.0,0
-17.0,-249.0,15.0,62.0,197.0,-44.0,0
-18.0,-247.0,21.0,55.0,200.0,-45.0,0
-17.0,-253.0,17.0,50.0,199.0,-46.0,0
-18.0,-252.0,17.0,45.0,201.0,-46.0,0
-19.0,-252.0,20.0,37.0,206.0,-48.0,0
-18.0,-255.0,19.0,34.0,206.0,-49.0,0
-16.0,-254.0,15.0,33.0,200.0,-50.0,0
-19.0,-255.0,22.0,29.0,197.0,-56.0,0
-22.0,-253.0,22.0,22.0,202.0,-59.0,0
-25.0,-254.0,22.0,19.0,199.0,-50.0,0
-24.0,-252.0,20.0,16.0,191.0,-48.0,0
-24.0,-252.0,18.0,12.0,184.0,-46.0,0
-23.0,-250.0,21.0,12.0,180.0,-44.0,0
-24.0,-253.0,18.0,11.0,176.0,-39.0,0
-23.0,-254.0,18.0,6.0,174.0,-36.0,0
-25.0,-253.0,17.0,1.0,169.0,-32.0,0
-21.0,-252.0,19.0,-5.0,163.0,-28.0,0
-19.0,-250.0,21.0,-10.0,158.0,-24.0,0
-20.0,-255.0,23.0,-14.0,157.0,-25.0,0
-22.0,-250.0,21.0,-15.0,157.0,-25.0,0
-16.0,-254.0,22.0,-18.0,157.0,-26.0,0
-20.0,-252.0,21.0,-21.0,155.0,-27.0,0
-17.0,-254.0,17.0,-21.0,155.0,-30.0,0
-19.0,-254.0,20.0,-22.0,152.0,-30.0,0
-19.0,-252.0,20.0,-20.0,154.0,-31.0,0
-22.0,-255.0,21.0,-17.0,149.0,-32.0,0
-9.0,-255.0,26.0,-12.0,143.0,-31.0,0
-18.0,-255.0,20.0,-9.0,139.0,-31.0,0
-20.0,-256.0,18.0,-8.0,134.0,-30.0,0
-18.0,-256.0,17.0,-7.0,131.0,-28.0,0
-20.0,-253.0,18.0,-7.0,131.0,-27.0,0
-20.0,-256.0,16.0,-7.0,129.0,-25.0,0
-19.0,-251.0,22.0,-9.0,128.0,-23.0,0
-19.0,-253.0,17.0,-9.0,124.0,-21.0,0
-18.0,-258.0,20.0,-7.0,121.0,-20.0,0
-17.0,-257.0,23.0,-6.0,118.0,-19.0,0
-19.0,-253.0,22.0,-6.0,115.0,-20.0,0
-15.0,-254.0,20.0,-3.0,115.0,-20.0,0
-19.0,-254.0,19.0,1.0,113.0,-20.0,0
-18.0,-255.0,23.0,6.0,108.0,-20.0,0
-17.0,-252.0,20.0,7.0,104.0,-20.0,0
-20.0,-254.0,23.0,7.0,102.0,-21.0,0
-20.0,-252.0,22.0,3.0,98.0,-21.0,0
-18.0,-252.0,19.0,-4.0,94.0,-22.0,0
-19.0,-255.0,19.0,-7.0,93.0,-20.0,0
-20.0,-254.0,21.0,-8.0,91.0,-21.0,0
-19.0,-255.0,19.0,-6.0,88.0,-19.0,0
-17.0,-254.0,22.0,-6.0,85.0,-17.0,0
-22.0,-251.0,20.0,-5.0,83.0,-14.0,0
-19.0,-258.0,23.0,-5.0,80.0,-13.0,0
-21.0,-255.0,20.0,-4.0,76.0,-13.0,0
-20.0,-255.0,20.0,-1.0,73.0,-11.0,0
-21.0,-254.0,22.0,1.0,70.0,-10.0,0
-19.0,-256.0,18.0,0.0,67.0,-8.0,0
-19.0,-253.0,21.0,4.0,64.0,-8.0,0
-21.0,-255.0,24.0,2.0,62.0,-6.0,0
-21.0,-255.0,20.0,2.0,58.0,-3.0,0
-14.0,-256.0,23.0,1.0,55.0,-1.0,0
-16.0,-257.0,17.0,0.0,53.0,0.0,0
-18.0,-255.0,18.0,0.0,50.0,0.0,0
-20.0,-255.0,18.0,0.0,48.0,0.0,0
-18.0,-255.0,19.0,-1.0,46.0,0.0,0
-18.0,-253.0,22.0,2.0,42.0,-1.0,0
-20.0,-256.0,17.0,0.0,39.0,2.0,0
-19.0,-253.0,17.0,-2.0,36.0,3.0,0
-18.0,-252.0,23.0,-4.0,33.0,4.0,0
-17.0,-255.0,18.0,-5.0,33.0,7.0,0
-16.0,-254.0,17.0,-5.0,31.0,8.0,0
-18.0,-253.0,24.0,-7.0,32.0,10.0,0
-18.0,-256.0,20.0,-9.0,34.0,13.0,0
-15.0,-257.0,25.0,-12.0,38.0,15.0,0
-17.0,-258.0,20.0,-14.0,39.0,17.0,0
-16.0,-260.0,19.0,-14.0,37.0,19.0,0
-16.0,-256.0,19.0,-15.0,34.0,20.0,0
-14.0,-258.0,15.0,-14.0,34.0,20.0,0
-13.0,-254.0,15.0,-11.0,38.0,18.0,0
-14.0,-256.0,19.0,-8.0,39.0,16.0,0
-9.0,-257.0,20.0,-6.0,40.0,14.0,0
-9.0,-254.0,19.0,-6.0,41.0,11.0,0
-13.0,-257.0,19.0,-1.0,45.0,10.0,0
-10.0,-258.0,23.0,5.0,48.0,9.0,0
-12.0,-254.0,23.0,7.0,49.0,7.0,0
-9.0,-256.0,19.0,5.0,50.0,6.0,0
-11.0,-253.0,18.0,0.0,49.0,5.0,0
-9.0,-255.0,18.0,-6.0,52.0,2.0,0
-10.0,-252.0,19.0,-10.0,59.0,0.0,0
-10.0,-254.0,17.0,-14.0,69.0,-1.0,0
-13.0,-252.0,17.0,-15.0,74.0,-2.0,0
-12.0,-251.0,20.0,-16.0,81.0,-3.0,0
-13.0,-254.0,18.0,-14.0,85.0,-4.0,0
-9.0,-252.0,18.0,-13.0,89.0,-4.0,0
-10.0,-253.0,26.0,-12.0,95.0,-5.0,0
-10.0,-250.0,25.0,-10.0,99.0,-7.0,0
-10.0,-254.0,19.0,-14.0,101.0,-7.0,0
-10.0,-253.0,18.0,-19.0,102.0,-12.0,0
-9.0,-252.0,19.0,-26.0,103.0,-13.0,0
-9.0,-254.0,21.0,-35.0,106.0,-15.0,0
-10.0,-255.0,20.0,-41.0,109.0,-17.0,0
-11.0,-255.0,20.0,-42.0,113.0,-19.0,0
-13.0,-254.0,20.0,-42.0,114.0,-20.0,0
-10.0,-253.0,19.0,-42.0,114.0,-21.0,0
-11.0,-254.0,20.0,-43.0,118.0,-23.0,0
-11.0,-257.0,21.0,-43.0,121.0,-25.0,0
-14.0,-257.0,23.0,-43.0,123.0,-26.0,0
-12.0,-252.0,23.0,-43.0,123.0,-24.0,0
-10.0,-254.0,19.0,-44.0,121.0,-21.0,0
-9.0,-253.0,21.0,-44.0,120.0,-21.0,0
-12.0,-254.0,19.0,-43.0,125.0,-21.0,0
-11.0,-254.0,20.0,-44.0,129.0,-21.0,0
-10.0,-252.0,23.0,-43.0,132.0,-20.0,0
-7.0,-253.0,21.0,-42.0,135.0,-21.0,0
-12.0,-253.0,18.0,-43.0,136.0,-23.0,0
-9.0,-253.0,19.0,-43.0,138.0,-25.0,0
-11.0,-254.0,23.0,-45.0,141.0,-26.0,0
-12.0,-255.0,20.0,-46.0,145.0,-29.0,0
-11.0,-256.0,23.0,-46.0,146.0,-31.0,0
-13.0,-253.0,26.0,-41.0,144.0,-33.0,0
-9.0,-255.0,22.0,-37.0,144.0,-34.0,0
-11.0,-255.0,22.0,-31.0,143.0,-34.0,0
-13.0,-256.0,21.0,-28.0,140.0,-32.0,0
-6.0,-255.0,17.0,-30.0,142.0,-31.0,0
-12.0,-255.0,17.0,-31.0,143.0,-30.0,0
-13.0,-252.0,20.0,-31.0,143.0,-27.0,0
-12.0,-255.0,20.0,-28.0,147.0,-23.0,0
-12.0,-253.0,17.0,-28.0,149.0,-21.0,0
-9.0,-255.0,17.0,-28.0,150.0,-20.0,0
-10.0,-259.0,20.0,-28.0,150.0,-21.0,0
-12.0,-253.0,20.0,-27.0,151.0,-21.0,0
-11.0,-255.0,21.0,-24.0,151.0,-22.0,0
-13.0,-255.0,23.0,-21.0,153.0,-24.0,0
-9.0,-255.0,22.0,-19.0,153.0,-24.0,0
-12.0,-255.0,22.0,-17.0,154.0,-24.0,0
-8.0,-255.0,23.0,-17.0,155.0,-24.0,0
-14.0,-253.0,25.0,-16.0,154.0,-24.0,0
-13.0,-256.0,20.0,-16.0,153.0,-23.0,0
-6.0,-253.0,22.0,-18.0,151.0,-24.0,0
-13.0,-256.0,22.0,-18.0,150.0,-24.0,0
-12.0,-253.0,24.0,-16.0,148.0,-24.0,0
-13.0,-252.0,23.0,-17.0,148.0,-25.0,0
-13.0,-251.0,17.0,-18.0,147.0,-26.0,0
-11.0,-252.0,23.0,-21.0,148.0,-26.0,0
-14.0,-251.0,20.0,-25.0,146.0,-24.0,0
-18.0,-249.0,20.0,-29.0,144.0,-23.0,0
-14.0,-250.0,23.0,-32.0,144.0,-22.0,0
-17.0,-253.0,18.0,-35.0,144.0,-21.0,0
-16.0,-251.0,18.0,-39.0,145.0,-21.0,0
-14.0,-254.0,21.0,-40.0,145.0,-22.0,0
-18.0,-255.0,19.0,-41.0,144.0,-21.0,0
-16.0,-255.0,19.0,-41.0,146.0,-20.0,0
-14.0,-256.0,20.0,-40.0,146.0,-20.0,0
-16.0,-257.0,22.0,-38.0,143.0,-21.0,0
-17.0,-255.0,17.0,-37.0,141.0,-22.0,0
-15.0,-256.0,19.0,-32.0,138.0,-24.0,0
-14.0,-257.0,23.0,-31.0,135.0,-23.0,0
-14.0,-255.0,20.0,-27.0,134.0,-26.0,0
-17.0,-254.0,21.0,-23.0,132.0,-26.0,0
-15.0,-256.0,20.0,-21.0,129.0,-26.0,0
-10.0,-258.0,24.0,-22.0,126.0,-26.0,0
-19.0,-248.0,21.0,-25.0,125.0,-28.0,0
-17.0,-252.0,18.0,-26.0,124.0,-27.0,0
-17.0,-255.0,19.0,-31.0,123.0,-24.0,0
-17.0,-255.0,17.0,-37.0,122.0,-19.0,0
-13.0,-255.0,21.0,-39.0,124.0,-20.0,0
-13.0,-254.0,19.0,-41.0,125.0,-18.0,0
-15.0,-256.0,19.0,-42.0,125.0,-19.0,0
-13.0,-254.0,19.0,-42.0,124.0,-20.0,0
-15.0,-255.0,16.0,-43.0,120.0,-20.0,0
-15.0,-255.0,22.0,-45.0,118.0,-20.0,0
-14.0,-253.0,19.0,-48.0,118.0,-22.0,0
-13.0,-252.0,17.0,-49.0,118.0,-23.0,0
-15.0,-256.0,20.0,-48.0,116.0,-22.0,0
-16.0,-255.0,20.0,-45.0,115.0,-22.0,0
-17.0,-253.0,16.0,-40.0,113.0,-21.0,0
-16.0,-257.0,21.0,-38.0,115.0,-20.0,0
-18.0,-255.0,15.0,-37.0,114.0,-22.0,0
-20.0,-256.0,20.0,-35.0,116.0,-23.0,0
-18.0,-257.0,21.0,-33.0,116.0,-22.0,0
-18.0,-252.0,17.0,-31.0,116.0,-20.0,0
-19.0,-253.0,20.0,-30.0,112.0,-20.0,0
-23.0,-254.0,4.0,-27.0,110.0,-19.0,0
-16.0,-261.0,21.0,-23.0,106.0,-20.0,0
-16.0,-256.0,17.0,-19.0,104.0,-17.0,0
-18.0,-259.0,20.0,-17.0,102.0,-15.0,0
-19.0,-255.0,23.0,-15.0,102.0,-15.0,0
-20.0,-253.0,25.0,-17.0,100.0,-14.0,0
-18.0,-256.0,20.0,-18.0,96.0,-13.0,0
-18.0,-253.0,20.0,-25.0,92.0,-10.0,0
-19.0,-253.0,19.0,-30.0,91.0,-9.0,0
-16.0,-255.0,25.0,-32.0,86.0,-8.0,0
-15.0,-255.0,23.0,-29.0,83.0,-7.0,0
-15.0,-253.0,23.0,-22.0,84.0,-8.0,0
-17.0,-252.0,22.0,-15.0,81.0,-8.0,0
-14.0,-256.0,20.0,-12.0,82.0,-7.0,0
-16.0,-255.0,20.0,-11.0,81.0,-7.0,0
-19.0,-253.0,25.0,-13.0,79.0,-4.0,0
-18.0,-254.0,24.0,-13.0,75.0,-4.0,0
-17.0,-255.0,25.0,-12.0,72.0,-1.0,0
-15.0,-256.0,23.0,-11.0,71.0,0.0,0
-13.0,-254.0,26.0,-9.0,72.0,-1.0,0
-14.0,-256.0,26.0,-4.0,75.0,-1.0,0
-14.0,-255.0,25.0,1.0,78.0,-3.0,0
-11.0,-255.0,20.0,4.0,78.0,-3.0,0
-15.0,-254.0,21.0,5.0,78.0,-4.0,0
-13.0,-254.0,22.0,3.0,77.0,-4.0,0
-14.0,-255.0,26.0,0.0,78.0,-4.0,0
-15.0,-253.0,23.0,-1.0,74.0,-5.0,0
-16.0,-253.0,23.0,-1.0,71.0,-4.0,0
-16.0,-252.0,23.0,0.0,71.0,-2.0,0
-13.0,-255.0,23.0,2.0,71.0,-2.0,0
-12.0,-253.0,21.0,3.0,72.0,-1.0,0
-11.0,-253.0,24.0,8.0,73.0,-1.0,0
-13.0,-253.0,19.0,11.0,78.0,0.0,0
-13.0,-252.0,21.0,12.0,82.0,2.0,0
-11.0,-252.0,20.0,10.0,84.0,1.0,0
-10.0,-255.0,20.0,3.0,86.0,-1.0,0
-12.0,-254.0,16.0,-3.0,89.0,0.0,0
-13.0,-251.0,22.0,-8.0,92.0,-1.0,0
-10.0,-257.0,20.0,-11.0,96.0,-2.0,0
-13.0,-253.0,20.0,-12.0,97.0,-2.0,0
-12.0,-255.0,21.0,-13.0,98.0,-3.0,0
-13.0,-255.0,24.0,-13.0,97.0,-4.0,0
-14.0,-250.0,19.0,-9.0,96.0,-5.0,0
-13.0,-259.0,18.0,-7.0,96.0,-5.0,0
-14.0,-254.0,19.0,-4.0,97.0,-6.0,0
-17.0,-254.0,17.0,-3.0,98.0,-6.0,0
-13.0,-254.0,17.0,-2.0,99.0,-7.0,0
-14.0,-253.0,21.0,-5.0,98.0,-8.0,0
-14.0,-253.0,20.0,-7.0,99.0,-7.0,0
-13.0,-255.0,22.0,-7.0,100.0,-4.0,0
-14.0,-257.0,18.0,-9.0,99.0,-5.0,0
-14.0,-253.0,20.0,-11.0,100.0,-3.0,0
-13.0,-251.0,23.0,-12.0,102.0,-2.0,0
-13.0,-254.0,20.0,-12.0,103.0,-2.0,0
-15.0,-253.0,19.0,-12.0,104.0,-2.0,0
-14.0,-253.0,21.0,-13.0,104.0,-1.0,0
-14.0,-254.0,20.0,-14.0,104.0,-1.0,0
-17.0,-254.0,20.0,-13.0,104.0,-2.0,0
-14.0,-253.0,22.0,-13.0,101.0,-1.0,0
-15.0,-254.0,23.0,-9.0,99.0,-3.0,0
-12.0,-256.0,23.0,-7.0,97.0,-2.0,0
-15.0,-257.0,20.0,-6.0,95.0,-3.0,0
-12.0,-254.0,18.0,-6.0,93.0,-3.0,0
-14.0,-255.0,19.0,-4.0,93.0,-5.0,0
-14.0,-255.0,16.0,-3.0,95.0,-6.0,0
-17.0,-246.0,11.0,-5.0,96.0,-7.0,0
-14.0,-254.0,17.0,-8.0,98.0,-6.0,0
-11.0,-254.0,20.0,-10.0,100.0,-5.0,0
-15.0,-259.0,17.0,-10.0,100.0,-5.0,0
-13.0,-258.0,19.0,-9.0,102.0,-5.0,0
-12.0,-258.0,19.0,-7.0,102.0,-3.0,0
-10.0,-256.0,19.0,-2.0,105.0,-5.0,0
-12.0,-256.0,18.0,1.0,109.0,-4.0,0
-11.0,-253.0,19.0,4.0,110.0,-7.0,0
-10.0,-253.0,18.0,6.0,111.0,-7.0,0
-10.0,-254.0,14.0,3.0,111.0,-8.0,0
-12.0,-254.0,16.0,-2.0,111.0,-8.0,0
-11.0,-253.0,14.0,-9.0,112.0,-8.0,0
-9.0,-257.0,17.0,-9.0,113.0,-9.0,0
-9.0,-254.0,21.0,-8.0,114.0,-11.0,0
-8.0,-252.0,18.0,-4.0,116.0,-13.0,0
-10.0,-258.0,18.0,-3.0,117.0,-15.0,0
-13.0,-254.0,21.0,-3.0,119.0,-16.0,0
-11.0,-254.0,21.0,-5.0,121.0,-18.0,0
-12.0,-257.0,15.0,-8.0,123.0,-17.0,0
-9.0,-254.0,16.0,-7.0,127.0,-18.0,0
-8.0,-256.0,18.0,-6.0,128.0,-17.0,0
-7.0,-253.0,16.0,-1.0,131.0,-18.0,0
-13.0,-254.0,16.0,1.0,134.0,-19.0,0
-7.0,-251.0,19.0,3.0,138.0,-19.0,0
-8.0,-256.0,20.0,3.0,140.0,-19.0,0
-10.0,-257.0,19.0,0.0,146.0,-20.0,0
-4.0,-257.0,18.0,-3.0,150.0,-20.0,0
-8.0,-258.0,17.0,-5.0,153.0,-21.0,0
-9.0,-254.0,21.0,-1.0,159.0,-23.0,0
-9.0,-255.0,18.0,1.0,159.0,-23.0,0
-7.0,-254.0,17.0,2.0,159.0,-25.0,0
-8.0,-252.0,19.0,1.0,162.0,-27.0,0
-10.0,-257.0,19.0,-2.0,165.0,-29.0,0
-11.0,-255.0,18.0,-4.0,166.0,-30.0,0
-11.0,-253.0,20.0,-7.0,167.0,-31.0,0
-15.0,-254.0,11.0,-8.0,166.0,-31.0,0
-10.0,-257.0,17.0,-11.0,171.0,-30.0,0
-12.0,-256.0,21.0,-10.0,174.0,-31.0,0
-9.0,-256.0,19.0,-5.0,175.0,-33.0,0
-12.0,-252.0,18.0,1.0,174.0,-34.0,0
-10.0,-255.0,18.0,6.0,174.0,-33.0,0
-13.0,-253.0,17.0,8.0,177.0,-34.0,0
-14.0,-257.0,17.0,9.0,179.0,-36.0,0
-12.0,-255.0,31.0,7.0,179.0,-36.0,0
-13.0,-254.0,20.0,5.0,182.0,-33.0,0
-12.0,-255.0,23.0,6.0,183.0,-33.0,0
-9.0,-254.0,18.0,6.0,184.0,-34.0,0
-10.0,-257.0,20.0,7.0,181.0,-33.0,0
-13.0,-257.0,16.0,7.0,185.0,-33.0,0
-9.0,-256.0,19.0,4.0,188.0,-32.0,0
-12.0,-254.0,19.0,2.0,189.0,-32.0,0
-12.0,-254.0,17.0,2.0,191.0,-31.0,0
-12.0,-253.0,17.0,6.0,192.0,-31.0,0
-12.0,-253.0,22.0,8.0,191.0,-31.0,0
-14.0,-253.0,19.0,6.0,192.0,-30.0,0
-13.0,-256.0,18.0,2.0,192.0,-28.0,0
-15.0,-252.0,21.0,-2.0,191.0,-29.0,0
-15.0,-254.0,20.0,-3.0,192.0,-32.0,0
-10.0,-253.0,20.0,0.0,189.0,-32.0,0
-10.0,-253.0,21.0,3.0,189.0,-34.0,0
-12.0,-253.0,18.0,4.0,188.0,-35.0,0
-11.0,-254.0,18.0,3.0,190.0,-35.0,0
-13.0,-254.0,13.0,0.0,188.0,-36.0,0
-12.0,-257.0,19.0,-2.0,187.0,-36.0,0
-12.0,-259.0,15.0,-4.0,183.0,-36.0,0
-13.0,-255.0,17.0,-7.0,183.0,-36.0,0
-11.0,-258.0,18.0,-7.0,184.0,-36.0,0
-12.0,-254.0,16.0,-9.0,185.0,-36.0,0
-16.0,-257.0,18.0,-8.0,185.0,-33.0,0
-14.0,-256.0,23.0,-7.0,187.0,-32.0,0
-11.0,-259.0,21.0,-3.0,187.0,-30.0,0
-13.0,-255.0,17.0,2.0,189.0,-28.0,0
-12.0,-258.0,15.0,5.0,191.0,-28.0,0
-12.0,-254.0,20.0,7.0,188.0,-27.0,0
-10.0,-255.0,17.0,6.0,186.0,-27.0,0
-11.0,-253.0,18.0,4.0,182.0,-26.0,0
-13.0,-252.0,19.0,0.0,181.0,-27.0,0
-11.0,-256.0,18.0,-4.0,177.0,-27.0,0
-13.0,-253.0,14.0,-7.0,177.0,-27.0,0
-13.0,-257.0,18.0,-7.0,176.0,-26.0,0
-14.0,-255.0,20.0,-5.0,174.0,-26.0,0
-14.0,-256.0,18.0,-2.0,172.0,-24.0,0
-15.0,-256.0,20.0,3.0,168.0,-23.0,0
-13.0,-252.0,19.0,3.0,168.0,-23.0,0
-14.0,-254.0,15.0,3.0,167.0,-22.0,0
