ax,ay,az,gx,gy,gz,label
4.0,-255.0,-14.0,27.0,102.0,-10.0,0
8.0,-255.0,-9.0,27.0,106.0,-10.0,0
6.0,-257.0,-10.0,30.0,111.0,-13.0,0
0.0,-252.0,-11.0,31.0,113.0,-12.0,0
4.0,-254.0,-12.0,27.0,107.0,-15.0,0
-3.0,-245.0,-14.0,19.0,97.0,-13.0,0
5.0,-256.0,-13.0,10.0,87.0,-18.0,0
8.0,-256.0,-12.0,3.0,81.0,-16.0,0
9.0,-257.0,-13.0,1.0,86.0,-19.0,0
10.0,-256.0,-13.0,2.0,95.0,-18.0,0
6.0,-255.0,-11.0,5.0,106.0,-23.0,0
6.0,-253.0,-11.0,7.0,112.0,-22.0,0
6.0,-254.0,-18.0,6.0,112.0,-26.0,0
6.0,-252.0,-12.0,4.0,110.0,-24.0,0
6.0,-254.0,-11.0,0.0,109.0,-27.0,0
1.0,-256.0,-19.0,-2.0,112.0,-24.0,0
4.0,-255.0,-12.0,-1.0,113.0,-27.0,0
5.0,-254.0,-10.0,3.0,112.0,-22.0,0
5.0,-254.0,-17.0,4.0,112.0,-24.0,0
5.0,-256.0,-16.0,7.0,110.0,-21.0,0
4.0,-253.0,-12.0,7.0,110.0,-24.0,0
2.0,-254.0,-14.0,7.0,108.0,-22.0,0
3.0,-254.0,-14.0,8.0,107.0,-26.0,0
5.0,-255.0,-11.0,9.0,105.0,-24.0,0
2.0,-252.0,-14.0,10.0,104.0,-27.0,0
4.0,-253.0,-14.0,13.0,104.0,-25.0,0
3.0,-251.0,-18.0,12.0,103.0,-25.0,0
5.0,-250.0,-13.0,11.0,102.0,-25.0,0
3.0,-252.0,-10.0,7.0,101.0,-26.0,0
4.0,-255.0,-13.0,1.0,97.0,-24.0,0
4.0,-253.0,-14.0,-4.0,93.0,-25.0,0
4.0,-254.0,-11.0,-9.0,91.0,-24.0,0
1.0,-253.0,-16.0,-13.0,90.0,-23.0,0
3.0,-251.0,-13.0,-16.0,88.0,-22.0,0
3.0,-254.0,-16.0,-18.0,83.0,-21.0,0
1.0,-253.0,-12.0,-21.0,80.0,-20.0,0
5.0,-256.0,-13.0,-24.0,79.0,-18.0,0
4.0,-252.0,-20.0,-27.0,80.0,-20.0,0
4.0,-254.0,-13.0,-30.0,76.0,-17.0,0
5.0,-256.0,-12.0,-35.0,70.0,-18.0,0
3.0,-253.0,-13.0,-37.0,66.0,-16.0,0
6.0,-256.0,-15.0,-35.0,65.0,-18.0,0
4.0,-254.0,-17.0,-36.0,64.0,-15.0,0
2.0,-256.0,-15.0,-35.0,64.0,-16.0,0
4.0,-255.0,-15.0,-33.0,63.0,-13.0,0
6.0,-259.0,-13.0,-33.0,60.0,-15.0,0
5.0,-256.0,-13.0,-32.0,53.0,-12.0,0
5.0,-254.0,-16.0,-32.0,51.0,-13.0,0
3.0,-257.0,-15.0,-32.0,55.0,-11.0,0
4.0,-255.0,-15.0,-32.0,56.0,-13.0,0
7.0,-257.0,-15.0,-31.0,54.0,-11.0,0
5.0,-259.0,-10.0,-29.0,53.0,-12.0,0
7.0,-256.0,-12.0,-28.0,49.0,-9.0,0
5.0,-256.0,-10.0,-26.0,49.0,-13.0,0
3.0,-257.0,-9.0,-23.0,48.0,-10.0,0
5.0,-251.0,-11.0,-20.0,46.0,-13.0,0
6.0,-254.0,-10.0,-16.0,43.0,-9.0,0
9.0,-254.0,-12.0,-14.0,45.0,-12.0,0
7.0,-254.0,-8.0,-13.0,49.0,-11.0,0
9.0,-256.0,-10.0,-12.0,51.0,-12.0,0
7.0,-253.0,-8.0,-15.0,53.0,-11.0,0
7.0,-257.0,-12.0,-15.0,52.0,-11.0,0
6.0,-254.0,-8.0,-17.0,49.0,-10.0,0
6.0,-258.0,-8.0,-16.0,48.0,-12.0,0
6.0,-255.0,-9.0,-13.0,47.0,-12.0,0
6.0,-256.0,-8.0,-12.0,45.0,-11.0,0
9.0,-256.0,-12.0,-10.0,46.0,-13.0,0
4.0,-256.0,-12.0,-10.0,43.0,-13.0,0
5.0,-256.0,-10.0,-9.0,43.0,-14.0,0
5.0,-253.0,-9.0,-8.0,42.0,-15.0,0
6.0,-254.0,-12.0,-8.0,40.0,-14.0,0
8.0,-255.0,-11.0,-7.0,38.0,-14.0,0
3.0,-254.0,-8.0,-4.0,37.0,-14.0,0
7.0,-251.0,-12.0,-5.0,37.0,-14.0,0
8.0,-254.0,-13.0,-7.0,39.0,-16.0,0
6.0,-254.0,-8.0,-9.0,37.0,-14.0,0
5.0,-256.0,-10.0,-11.0,36.0,-16.0,0
5.0,-251.0,-14.0,-13.0,32.0,-14.0,0
2.0,-253.0,-8.0,-12.0,29.0,-16.0,0
5.0,-251.0,-13.0,-13.0,26.0,-15.0,0
0.0,-251.0,-9.0,-13.0,26.0,-17.0,0
-1.0,-249.0,-13.0,-12.0,24.0,-15.0,0
2.0,-250.0,-11.0,-14.0,24.0,-18.0,0
5.0,-249.0,-8.0,-16.0,24.0,-16.0,0
5.0,-252.0,-12.0,-19.0,24.0,-20.0,0
5.0,-254.0,-12.0,-21.0,25.0,-16.0,0
2.0,-250.0,-16.0,-25.0,24.0,-18.0,0
5.0,-250.0,-9.0,-29.0,24.0,-16.0,0
4.0,-251.0,-14.0,-34.0,22.0,-18.0,0
7.0,-253.0,-13.0,-40.0,19.0,-15.0,0
5.0,-251.0,-15.0,-46.0,19.0,-15.0,0
4.0,-252.0,-13.0,-52.0,18.0,-14.0,0
5.0,-252.0,-15.0,-56.0,17.0,-14.0,0
5.0,-251.0,-16.0,-61.0,13.0,-11.0,0
7.0,-256.0,-18.0,-66.0,10.0,-12.0,0
6.0,-254.0,-17.0,-72.0,3.0,-10.0,0
6.0,-254.0,-18.0,-80.0,2.0,-10.0,0
7.0,-255.0,-19.0,-84.0,-1.0,-9.0,0
6.0,-256.0,-17.0,-86.0,-3.0,-8.0,0
4.0,-256.0,-20.0,-88.0,-2.0,-5.0,0
8.0,-257.0,-17.0,-90.0,-4.0,-3.0,0
6.0,-258.0,-22.0,-91.0,-5.0,-1.0,0
11.0,-260.0,-18.0,-89.0,-7.0,3.0,0
8.0,-263.0,-20.0,-89.0,-10.0,4.0,0
5.0,-260.0,-23.0,-87.0,-12.0,9.0,0
6.0,-259.0,-21.0,-82.0,-14.0,12.0,0
9.0,-262.0,-23.0,-80.0,-16.0,15.0,0
9.0,-261.0,-23.0,-74.0,-18.0,17.0,0
6.0,-260.0,-19.0,-70.0,-17.0,19.0,0
10.0,-261.0,-20.0,-63.0,-16.0,19.0,0
8.0,-260.0,-22.0,-57.0,-14.0,20.0,0
9.0,-260.0,-18.0,-50.0,-9.0,18.0,0
12.0,-260.0,-21.0,-45.0,-5.0,21.0,0
10.0,-259.0,-21.0,-37.0,0.0,17.0,0
12.0,-258.0,-18.0,-32.0,3.0,18.0,0
12.0,-259.0,-18.0,-28.0,10.0,13.0,0
10.0,-256.0,-18.0,-26.0,13.0,14.0,0
9.0,-259.0,-16.0,-26.0,18.0,7.0,0
9.0,-257.0,-16.0,-24.0,22.0,7.0,0
9.0,-256.0,-18.0,-24.0,26.0,1.0,0
10.0,-256.0,-15.0,-21.0,31.0,0.0,0
10.0,-259.0,-18.0,-20.0,33.0,-6.0,0
10.0,-257.0,-16.0,-19.0,38.0,-7.0,0
9.0,-254.0,-15.0,-20.0,38.0,-12.0,0
13.0,-254.0,-15.0,-22.0,39.0,-12.0,0
11.0,-253.0,-18.0,-22.0,43.0,-16.0,0
8.0,-254.0,-17.0,-24.0,46.0,-15.0,0
6.0,-254.0,-18.0,-26.0,49.0,-16.0,0
8.0,-254.0,-21.0,-28.0,52.0,-15.0,0
5.0,-255.0,-16.0,-29.0,52.0,-18.0,0
6.0,-251.0,-18.0,-30.0,55.0,-16.0,0
9.0,-253.0,-17.0,-30.0,58.0,-16.0,0
5.0,-254.0,-18.0,-30.0,59.0,-15.0,0
6.0,-253.0,-19.0,-32.0,59.0,-13.0,0
6.0,-256.0,-15.0,-34.0,58.0,-12.0,0
7.0,-254.0,-17.0,-36.0,58.0,-11.0,0
7.0,-256.0,-17.0,-38.0,57.0,-10.0,0
6.0,-254.0,-18.0,-42.0,55.0,-8.0,0
5.0,-253.0,-12.0,-47.0,55.0,-9.0,0
6.0,-253.0,-17.0,-49.0,56.0,-6.0,0
5.0,-253.0,-21.0,-49.0,57.0,-8.0,0
10.0,-254.0,-16.0,-50.0,56.0,-5.0,0
7.0,-255.0,-17.0,-50.0,57.0,-6.0,0
5.0,-257.0,-16.0,-53.0,58.0,-4.0,0
6.0,-258.0,-15.0,-55.0,58.0,-5.0,0
12.0,-259.0,-25.0,-55.0,59.0,-3.0,0
8.0,-253.0,-11.0,-53.0,58.0,-4.0,0
10.0,-255.0,-21.0,-51.0,57.0,-1.0,0
7.0,-254.0,-21.0,-51.0,56.0,-5.0,0
7.0,-253.0,-18.0,-52.0,53.0,-2.0,0
7.0,-254.0,-15.0,-54.0,54.0,-6.0,0
12.0,-255.0,-18.0,-57.0,56.0,-5.0,0
11.0,-256.0,-19.0,-56.0,59.0,-8.0,0
7.0,-255.0,-20.0,-57.0,62.0,-6.0,0
6.0,-254.0,-21.0,-57.0,63.0,-10.0,0
10.0,-258.0,-18.0,-55.0,64.0,-8.0,0
9.0,-258.0,-20.0,-53.0,66.0,-11.0,0
6.0,-257.0,-19.0,-51.0,69.0,-10.0,0
9.0,-258.0,-19.0,-49.0,69.0,-11.0,0
8.0,-255.0,-19.0,-49.0,65.0,-9.0,0
8.0,-257.0,-17.0,-50.0,69.0,-8.0,0
7.0,-255.0,-16.0,-47.0,77.0,-7.0,0
5.0,-255.0,-16.0,-45.0,75.0,-9.0,0
4.0,-253.0,-19.0,-45.0,71.0,-8.0,0
5.0,-254.0,-16.0,-46.0,72.0,-8.0,0
5.0,-253.0,-21.0,-48.0,73.0,-8.0,0
4.0,-256.0,-17.0,-50.0,73.0,-8.0,0
5.0,-254.0,-17.0,-50.0,74.0,-8.0,0
7.0,-255.0,-18.0,-52.0,72.0,-8.0,0
3.0,-254.0,-20.0,-51.0,72.0,-8.0,0
7.0,-255.0,-18.0,-50.0,71.0,-8.0,0
7.0,-257.0,-19.0,-48.0,72.0,-7.0,0
4.0,-254.0,-18.0,-47.0,73.0,-7.0,0
6.0,-257.0,-17.0,-47.0,73.0,-7.0,0
5.0,-255.0,-20.0,-46.0,72.0,-6.0,0
9.0,-255.0,-16.0,-45.0,72.0,-4.0,0
4.0,-252.0,-16.0,-43.0,71.0,-1.0,0
6.0,-253.0,-17.0,-45.0,71.0,-4.0,0
5.0,-251.0,-18.0,-46.0,70.0,-1.0,0
8.0,-253.0,-17.0,-47.0,71.0,-5.0,0
8.0,-253.0,-18.0,-51.0,72.0,-4.0,0
8.0,-253.0,-21.0,-54.0,71.0,-4.0,0
7.0,-253.0,-17.0,-56.0,72.0,-5.0,0
5.0,-254.0,-21.0,-57.0,72.0,-6.0,0
5.0,-253.0,-19.0,-57.0,70.0,-4.0,0
7.0,-255.0,-21.0,-56.0,72.0,-5.0,0
7.0,-258.0,-19.0,-56.0,71.0,-2.0,0
5.0,-255.0,-21.0,-54.0,73.0,-2.0,0
6.0,-254.0,-19.0,-53.0,75.0,3.0,0
7.0,-250.0,-23.0,-53.0,76.0,3.0,0
3.0,-254.0,-22.0,-52.0,75.0,5.0,0
4.0,-253.0,-23.0,-52.0,77.0,3.0,0
5.0,-255.0,-22.0,-55.0,79.0,6.0,0
3.0,-252.0,-19.0,-60.0,81.0,4.0,0
5.0,-253.0,-26.0,-67.0,83.0,7.0,0
7.0,-255.0,-20.0,-73.0,82.0,6.0,0
4.0,-255.0,-23.0,-75.0,82.0,9.0,0
6.0,-256.0,-23.0,-74.0,83.0,7.0,0
7.0,-258.0,-21.0,-73.0,85.0,9.0,0
5.0,-257.0,-27.0,-71.0,89.0,9.0,0
5.0,-259.0,-24.0,-68.0,91.0,10.0,0
7.0,-257.0,-25.0,-67.0,93.0,10.0,0
5.0,-257.0,-27.0,-66.0,92.0,11.0,0
5.0,-258.0,-27.0,-67.0,94.0,12.0,0
7.0,-257.0,-27.0,-67.0,98.0,11.0,0
6.0,-257.0,-24.0,-64.0,100.0,11.0,0
5.0,-258.0,-21.0,-62.0,102.0,10.0,0
6.0,-257.0,-29.0,-61.0,103.0,7.0,0
7.0,-260.0,-26.0,-61.0,104.0,4.0,0
3.0,-259.0,-22.0,-59.0,103.0,1.0,0
7.0,-260.0,-25.0,-57.0,106.0,-1.0,0
4.0,-260.0,-25.0,-53.0,106.0,-2.0,0
6.0,-259.0,-23.0,-48.0,108.0,-5.0,0
5.0,-259.0,-23.0,-43.0,110.0,-3.0,0
4.0,-259.0,-25.0,-38.0,110.0,-8.0,0
4.0,-260.0,-24.0,-33.0,108.0,-7.0,0
3.0,-255.0,-26.0,-28.0,106.0,-10.0,0
3.0,-256.0,-22.0,-22.0,103.0,-6.0,0
3.0,-257.0,-25.0,-18.0,102.0,-10.0,0
5.0,-259.0,-21.0,-14.0,100.0,-6.0,0
4.0,-256.0,-20.0,-12.0,96.0,-9.0,0
4.0,-255.0,-19.0,-12.0,92.0,-6.0,0
3.0,-253.0,-24.0,-14.0,89.0,-8.0,0
5.0,-256.0,-20.0,-13.0,87.0,-5.0,0
3.0,-254.0,-19.0,-13.0,84.0,-7.0,0
4.0,-254.0,-21.0,-12.0,83.0,-4.0,0
3.0,-254.0,-24.0,-12.0,77.0,-6.0,0
2.0,-254.0,-21.0,-11.0,74.0,-3.0,0
3.0,-255.0,-22.0,-14.0,70.0,-4.0,0
2.0,-253.0,-17.0,-15.0,66.0,0.0,0
3.0,-253.0,-22.0,-18.0,62.0,-1.0,0
7.0,-258.0,-23.0,-19.0,58.0,1.0,0
2.0,-256.0,-23.0,-19.0,54.0,0.0,0
3.0,-254.0,-30.0,-18.0,50.0,3.0,0
3.0,-255.0,-20.0,-18.0,47.0,2.0,0
4.0,-253.0,-21.0,-18.0,46.0,3.0,0
6.0,-253.0,-21.0,-19.0,44.0,2.0,0
7.0,-255.0,-22.0,-18.0,43.0,1.0,0
8.0,-255.0,-22.0,-19.0,42.0,2.0,0
9.0,-256.0,-21.0,-21.0,39.0,0.0,0
5.0,-257.0,-19.0,-22.0,38.0,1.0,0
4.0,-255.0,-20.0,-22.0,37.0,0.0,0
5.0,-254.0,-21.0,-22.0,36.0,1.0,0
7.0,-254.0,-19.0,-23.0,34.0,-2.0,0
6.0,-256.0,-23.0,-24.0,35.0,-1.0,0
6.0,-254.0,-19.0,-23.0,35.0,-2.0,0
7.0,-256.0,-23.0,-23.0,36.0,-3.0,0
6.0,-254.0,-24.0,-23.0,37.0,-4.0,0
4.0,-256.0,-19.0,-22.0,38.0,-2.0,0
3.0,-256.0,-19.0,-22.0,37.0,-4.0,0
6.0,-254.0,-23.0,-22.0,37.0,-3.0,0
4.0,-255.0,-20.0,-20.0,37.0,-4.0,0
4.0,-255.0,-22.0,-20.0,37.0,-3.0,0
6.0,-255.0,-22.0,-20.0,37.0,-6.0,0
5.0,-258.0,-28.0,-19.0,37.0,-2.0,0
5.0,-255.0,-23.0,-21.0,37.0,-4.0,0
5.0,-257.0,-22.0,-21.0,37.0,-1.0,0
6.0,-255.0,-22.0,-20.0,38.0,-1.0,0
10.0,-257.0,-25.0,-18.0,39.0,1.0,0
5.0,-255.0,-25.0,-17.0,40.0,0.0,0
7.0,-256.0,-20.0,-14.0,44.0,2.0,0
5.0,-255.0,-23.0,-14.0,44.0,0.0,0
8.0,-257.0,-25.0,-14.0,47.0,3.0,0
6.0,-256.0,-21.0,-14.0,47.0,0.0,0
4.0,-254.0,-23.0,-13.0,49.0,2.0,0
4.0,-255.0,-25.0,-13.0,52.0,1.0,0
6.0,-255.0,-23.0,-13.0,55.0,1.0,0
4.0,-251.0,-22.0,-14.0,56.0,-1.0,0
5.0,-255.0,-16.0,-17.0,55.0,0.0,0
5.0,-256.0,-19.0,-20.0,56.0,-1.0,0
5.0,-257.0,-20.0,-22.0,57.0,-1.0,0
4.0,-254.0,-22.0,-24.0,60.0,-2.0,0
5.0,-255.0,-20.0,-26.0,62.0,-1.0,0
5.0,-256.0,-22.0,-27.0,63.0,-2.0,0
6.0,-257.0,-23.0,-28.0,64.0,-4.0,0
7.0,-253.0,-22.0,-30.0,65.0,-2.0,0
10.0,-256.0,-17.0,-31.0,68.0,-3.0,0
4.0,-254.0,-23.0,-33.0,70.0,-1.0,0
5.0,-255.0,-22.0,-33.0,72.0,-3.0,0
7.0,-256.0,-26.0,-34.0,74.0,-2.0,0
3.0,-253.0,-24.0,-34.0,75.0,-3.0,0
2.0,-253.0,-23.0,-38.0,76.0,-1.0,0
6.0,-254.0,-23.0,-41.0,75.0,-2.0,0
5.0,-253.0,-25.0,-43.0,77.0,1.0,0
4.0,-255.0,-24.0,-46.0,78.0,-3.0,0
4.0,-254.0,-22.0,-46.0,80.0,-1.0,0
4.0,-254.0,-25.0,-45.0,80.0,-3.0,0
4.0,-254.0,-22.0,-44.0,82.0,1.0,0
6.0,-252.0,-20.0,-42.0,84.0,-2.0,0
5.0,-255.0,-21.0,-42.0,85.0,2.0,0
4.0,-254.0,-22.0,-43.0,86.0,-1.0,0
5.0,-254.0,-22.0,-44.0,89.0,2.0,0
3.0,-253.0,-25.0,-44.0,89.0,0.0,0
5.0,-254.0,-23.0,-44.0,90.0,3.0,0
6.0,-254.0,-24.0,-45.0,90.0,1.0,0
3.0,-253.0,-28.0,-46.0,91.0,4.0,0
4.0,-254.0,-25.0,-47.0,92.0,1.0,0
6.0,-255.0,-24.0,-48.0,92.0,4.0,0
8.0,-256.0,-21.0,-50.0,93.0,1.0,0
4.0,-256.0,-26.0,-52.0,96.0,3.0,0
4.0,-257.0,-29.0,-54.0,97.0,0.0,0
6.0,-259.0,-24.0,-54.0,100.0,0.0,0
3.0,-256.0,-23.0,-52.0,100.0,-2.0,0
2.0,-256.0,-25.0,-50.0,101.0,-2.0,0
4.0,-257.0,-26.0,-48.0,103.0,-4.0,0
5.0,-257.0,-26.0,-47.0,104.0,-5.0,0
6.0,-259.0,-26.0,-45.0,103.0,-6.0,0
4.0,-257.0,-25.0,-44.0,102.0,-7.0,0
0.0,-258.0,-22.0,-44.0,101.0,-8.0,0
2.0,-254.0,-25.0,-43.0,103.0,-9.0,0
4.0,-258.0,-23.0,-43.0,101.0,-10.0,0
2.0,-259.0,-25.0,-40.0,100.0,-11.0,0
-1.0,-257.0,-24.0,-35.0,97.0,-11.0,0
2.0,-257.0,-24.0,-31.0,97.0,-13.0,0
3.0,-257.0,-22.0,-27.0,96.0,-11.0,0
2.0,-258.0,-21.0,-23.0,94.0,-14.0,0
-2.0,-256.0,-28.0,-20.0,90.0,-12.0,0
0.0,-256.0,-28.0,-17.0,88.0,-13.0,0
1.0,-255.0,-23.0,-10.0,86.0,-12.0,0
-1.0,-255.0,-27.0,-4.0,84.0,-13.0,0
0.0,-255.0,-27.0,2.0,81.0,-10.0,0
2.0,-256.0,-23.0,2.0,79.0,-12.0,0
2.0,-256.0,-26.0,2.0,76.0,-9.0,0
-1.0,-254.0,-22.0,0.0,71.0,-10.0,0
1.0,-253.0,-20.0,-2.0,66.0,-6.0,0
2.0,-254.0,-22.0,0.0,63.0,-6.0,0
4.0,-255.0,-25.0,0.0,57.0,-3.0,0
2.0,-253.0,-25.0,-2.0,54.0,-5.0,0
3.0,-251.0,-19.0,-6.0,51.0,-2.0,0
3.0,-252.0,-20.0,-10.0,51.0,-5.0,0
1.0,-251.0,-17.0,-13.0,49.0,-3.0,0
3.0,-254.0,-22.0,-15.0,47.0,-4.0,0
4.0,-254.0,-25.0,-19.0,46.0,-3.0,0
1.0,-254.0,-22.0,-22.0,45.0,-3.0,0
5.0,-255.0,-23.0,-24.0,44.0,-1.0,0
4.0,-257.0,-22.0,-26.0,42.0,-3.0,0
1.0,-252.0,-27.0,-26.0,39.0,-2.0,0
1.0,-253.0,-29.0,-23.0,39.0,-3.0,0
4.0,-256.0,-25.0,-20.0,39.0,-3.0,0
5.0,-257.0,-26.0,-20.0,38.0,-3.0,0
6.0,-257.0,-22.0,-19.0,38.0,-3.0,0
6.0,-256.0,-22.0,-18.0,39.0,-3.0,0
6.0,-255.0,-20.0,-18.0,41.0,-4.0,0
5.0,-257.0,-23.0,-17.0,40.0,-5.0,0
6.0,-254.0,-23.0,-16.0,42.0,-5.0,0
8.0,-255.0,-26.0,-14.0,45.0,-5.0,0
4.0,-257.0,-24.0,-11.0,44.0,-6.0,0
4.0,-257.0,-23.0,-10.0,47.0,-4.0,0
5.0,-256.0,-25.0,-8.0,51.0,-7.0,0
8.0,-258.0,-21.0,-10.0,52.0,-5.0,0
5.0,-254.0,-24.0,-9.0,53.0,-7.0,0
6.0,-258.0,-23.0,-11.0,54.0,-5.0,0
7.0,-258.0,-24.0,-9.0,54.0,-9.0,0
3.0,-255.0,-25.0,-7.0,56.0,-6.0,0
4.0,-255.0,-27.0,-3.0,56.0,-9.0,0
4.0,-255.0,-23.0,0.0,57.0,-6.0,0
8.0,-254.0,-25.0,3.0,58.0,-8.0,0
6.0,-256.0,-24.0,4.0,59.0,-6.0,0
3.0,-255.0,-26.0,4.0,60.0,-8.0,0
9.0,-257.0,-21.0,4.0,61.0,-6.0,0
2.0,-253.0,-28.0,4.0,63.0,-9.0,0
3.0,-257.0,-21.0,4.0,62.0,-8.0,0
3.0,-254.0,-22.0,3.0,63.0,-8.0,0
1.0,-255.0,-25.0,2.0,62.0,-5.0,0
6.0,-256.0,-24.0,-2.0,62.0,-7.0,0
5.0,-253.0,-26.0,-2.0,64.0,-6.0,0
5.0,-255.0,-26.0,-3.0,65.0,-6.0,0
4.0,-256.0,-25.0,-4.0,66.0,-5.0,0
4.0,-254.0,-21.0,-4.0,64.0,-7.0,0
5.0,-254.0,-24.0,-5.0,65.0,-7.0,0
6.0,-253.0,-22.0,-6.0,64.0,-8.0,0
8.0,-256.0,-20.0,-7.0,66.0,-7.0,0
1.0,-255.0,-25.0,-10.0,66.0,-7.0,0
5.0,-256.0,-21.0,-9.0,65.0,-8.0,0
4.0,-254.0,-22.0,-11.0,66.0,-6.0,0
5.0,-253.0,-24.0,-11.0,67.0,-8.0,0
6.0,-255.0,-22.0,-12.0,66.0,-7.0,0
4.0,-254.0,-23.0,-14.0,65.0,-8.0,0
5.0,-255.0,-21.0,-15.0,62.0,-7.0,0
3.0,-253.0,-22.0,-15.0,60.0,-6.0,0
3.0,-255.0,-24.0,-16.0,60.0,-5.0,0
3.0,-253.0,-24.0,-17.0,60.0,-6.0,0
6.0,-254.0,-20.0,-18.0,60.0,-6.0,0
5.0,-255.0,-25.0,-18.0,61.0,-7.0,0
4.0,-257.0,-23.0,-20.0,61.0,-5.0,0
5.0,-254.0,-25.0,-18.0,60.0,-6.0,0
6.0,-255.0,-22.0,-16.0,60.0,-4.0,0
3.0,-256.0,-20.0,-17.0,61.0,-7.0,0
5.0,-256.0,-22.0,-17.0,60.0,-5.0,0
5.0,-254.0,-25.0,-17.0,60.0,-8.0,0
6.0,-256.0,-22.0,-18.0,60.0,-5.0,0
5.0,-257.0,-26.0,-16.0,60.0,-8.0,0
5.0,-257.0,-22.0,-16.0,60.0,-6.0,0
7.0,-256.0,-22.0,-15.0,61.0,-8.0,0
5.0,-255.0,-24.0,-14.0,60.0,-7.0,0
2.0,-255.0,-25.0,-13.0,60.0,-9.0,0
3.0,-254.0,-21.0,-13.0,61.0,-7.0,0
6.0,-254.0,-24.0,-13.0,59.0,-9.0,0
2.0,-253.0,-25.0,-13.0,61.0,-7.0,0
5.0,-254.0,-21.0,-11.0,60.0,-8.0,0
6.0,-257.0,-20.0,-12.0,60.0,-7.0,0
6.0,-254.0,-24.0,-11.0,59.0,-8.0,0
6.0,-254.0,-26.0,-11.0,60.0,-6.0,0
5.0,-256.0,-21.0,-12.0,59.0,-8.0,0
3.0,-255.0,-25.0,-12.0,62.0,-8.0,0
6.0,-256.0,-21.0,-9.0,64.0,-8.0,0
14.0,-255.0,-21.0,-8.0,63.0,-7.0,0
2.0,-248.0,-18.0,-7.0,64.0,-8.0,0
5.0,-255.0,-25.0,-5.0,62.0,-7.0,0
4.0,-256.0,-19.0,-6.0,63.0,-6.0,0
4.0,-255.0,-23.0,-8.0,65.0,-8.0,0
5.0,-255.0,-23.0,-8.0,66.0,-6.0,0
3.0,-258.0,-18.0,-9.0,65.0,-6.0,0
3.0,-255.0,-23.0,-11.0,63.0,-5.0,0
6.0,-254.0,-23.0,-8.0,63.0,-7.0,0
7.0,-253.0,-27.0,-8.0,64.0,-6.0,0
6.0,-256.0,-20.0,-8.0,65.0,-7.0,0
5.0,-254.0,-23.0,-8.0,67.0,-7.0,0
8.0,-256.0,-25.0,-12.0,66.0,-9.0,0
7.0,-254.0,-26.0,-13.0,66.0,-8.0,0
8.0,-256.0,-23.0,-14.0,68.0,-9.0,0
6.0,-256.0,-27.0,-15.0,69.0,-7.0,0
6.0,-256.0,-22.0,-15.0,71.0,-9.0,0
5.0,-256.0,-22.0,-14.0,73.0,-6.0,0
6.0,-254.0,-22.0,-12.0,74.0,-10.0,0
6.0,-253.0,-23.0,-13.0,75.0,-5.0,0
7.0,-253.0,-20.0,-14.0,77.0,-8.0,0
9.0,-256.0,-22.0,-14.0,76.0,-7.0,0
4.0,-255.0,-23.0,-15.0,78.0,-10.0,0
5.0,-253.0,-23.0,-14.0,77.0,-7.0,0
4.0,-258.0,-23.0,-14.0,79.0,-9.0,0
5.0,-255.0,-22.0,-15.0,80.0,-9.0,0
5.0,-255.0,-26.0,-14.0,81.0,-11.0,0
5.0,-254.0,-22.0,-13.0,80.0,-9.0,0
6.0,-254.0,-24.0,-14.0,82.0,-11.0,0
5.0,-254.0,-19.0,-13.0,82.0,-9.0,0
5.0,-254.0,-20.0,-11.0,83.0,-9.0,0
6.0,-257.0,-25.0,-9.0,83.0,-10.0,0
8.0,-255.0,-19.0,-8.0,81.0,-9.0,0
6.0,-254.0,-22.0,-8.0,81.0,-8.0,0
5.0,-254.0,-22.0,-9.0,80.0,-9.0,0
2.0,-254.0,-21.0,-13.0,79.0,-8.0,0
5.0,-256.0,-22.0,-15.0,80.0,-9.0,0
4.0,-256.0,-19.0,-15.0,78.0,-9.0,0
6.0,-254.0,-22.0,-16.0,79.0,-7.0,0
4.0,-257.0,-25.0,-15.0,79.0,-9.0,0
7.0,-257.0,-23.0,-14.0,80.0,-8.0,0
6.0,-254.0,-20.0,-13.0,80.0,-10.0,0
5.0,-254.0,-24.0,-13.0,82.0,-8.0,0
4.0,-253.0,-23.0,-11.0,81.0,-9.0,0
3.0,-252.0,-23.0,-12.0,81.0,-7.0,0
2.0,-251.0,-24.0,-9.0,81.0,-10.0,0
3.0,-254.0,-23.0,-8.0,81.0,-7.0,0
5.0,-254.0,-19.0,-9.0,81.0,-8.0,0
4.0,-253.0,-19.0,-13.0,80.0,-8.0,0
1.0,-253.0,-22.0,-17.0,78.0,-9.0,0
5.0,-254.0,-23.0,-21.0,77.0,-5.0,0
5.0,-257.0,-21.0,-21.0,75.0,-7.0,0
6.0,-253.0,-21.0,-19.0,75.0,-5.0,0
8.0,-258.0,-20.0,-17.0,76.0,-7.0,0
4.0,-255.0,-18.0,-17.0,76.0,-4.0,0
6.0,-255.0,-21.0,-18.0,76.0,-6.0,0
4.0,-253.0,-19.0,-19.0,75.0,-4.0,0
3.0,-253.0,-24.0,-21.0,76.0,-6.0,0
7.0,-257.0,-26.0,-25.0,75.0,-5.0,0
1.0,-255.0,-21.0,-29.0,74.0,-7.0,0
6.0,-257.0,-22.0,-31.0,73.0,-5.0,0
3.0,-257.0,-23.0,-33.0,73.0,-7.0,0
4.0,-257.0,-25.0,-33.0,73.0,-5.0,0
3.0,-256.0,-24.0,-31.0,71.0,-8.0,0
6.0,-259.0,-25.0,-28.0,73.0,-8.0,0
4.0,-256.0,-22.0,-23.0,75.0,-9.0,0
4.0,-256.0,-22.0,-21.0,77.0,-9.0,0
6.0,-258.0,-24.0,-21.0,77.0,-10.0,0
5.0,-256.0,-22.0,-20.0,75.0,-9.0,0
4.0,-253.0,-26.0,-20.0,75.0,-9.0,0
3.0,-254.0,-21.0,-19.0,75.0,-9.0,0
5.0,-256.0,-25.0,-18.0,74.0,-9.0,0
4.0,-256.0,-23.0,-16.0,73.0,-10.0,0
2.0,-255.0,-22.0,-17.0,74.0,-8.0,0
5.0,-255.0,-20.0,-12.0,74.0,-10.0,0
7.0,-255.0,-21.0,-11.0,74.0,-9.0,0
6.0,-257.0,-16.0,-10.0,72.0,-11.0,0
4.0,-253.0,-24.0,-12.0,71.0,-8.0,0
6.0,-255.0,-24.0,-13.0,70.0,-10.0,0
7.0,-255.0,-25.0,-13.0,69.0,-8.0,0
3.0,-254.0,-20.0,-12.0,71.0,-10.0,0
5.0,-253.0,-22.0,-10.0,70.0,-8.0,0
7.0,-254.0,-23.0,-10.0,71.0,-11.0,0
5.0,-254.0,-23.0,-11.0,69.0,-7.0,0
4.0,-257.0,-23.0,-13.0,67.0,-9.0,0
3.0,-254.0,-21.0,-15.0,66.0,-6.0,0
6.0,-256.0,-24.0,-17.0,64.0,-8.0,0
5.0,-256.0,-23.0,-16.0,65.0,-7.0,0
10.0,-248.0,-26.0,-15.0,65.0,-7.0,0
3.0,-256.0,-23.0,-13.0,64.0,-4.0,0
6.0,-256.0,-24.0,-12.0,63.0,-7.0,0
6.0,-256.0,-22.0,-10.0,63.0,-5.0,0
5.0,-254.0,-26.0,-9.0,64.0,-8.0,0
5.0,-256.0,-21.0,-9.0,62.0,-6.0,0
4.0,-256.0,-22.0,-10.0,61.0,-8.0,0
4.0,-257.0,-22.0,-10.0,61.0,-6.0,0
3.0,-257.0,-22.0,-11.0,59.0,-8.0,0
6.0,-256.0,-22.0,-10.0,57.0,-6.0,0
5.0,-257.0,-22.0,-10.0,57.0,-8.0,0
6.0,-255.0,-22.0,-11.0,56.0,-7.0,0
3.0,-257.0,-23.0,-13.0,55.0,-7.0,0
3.0,-256.0,-21.0,-14.0,52.0,-7.0,0
5.0,-256.0,-23.0,-12.0,51.0,-7.0,0
3.0,-254.0,-24.0,-13.0,48.0,-8.0,0
4.0,-259.0,-26.0,-11.0,47.0,-6.0,0
5.0,-258.0,-23.0,-9.0,47.0,-7.0,0
5.0,-255.0,-24.0,-5.0,44.0,-6.0,0
2.0,-256.0,-23.0,-4.0,42.0,-8.0,0
4.0,-255.0,-23.0,-4.0,41.0,-5.0,0
2.0,-254.0,-22.0,-2.0,39.0,-6.0,0
2.0,-254.0,-24.0,-4.0,37.0,-4.0,0
4.0,-256.0,-27.0,-7.0,34.0,-6.0,0
7.0,-258.0,-21.0,-13.0,28.0,-4.0,0
6.0,-258.0,-21.0,-12.0,30.0,-5.0,0
3.0,-258.0,-21.0,-6.0,37.0,-1.0,0
8.0,-261.0,-22.0,3.0,42.0,-2.0,0
-3.0,-257.0,-24.0,3.0,37.0,0.0,0
2.0,-257.0,-23.0,4.0,24.0,-4.0,0
3.0,-257.0,-24.0,2.0,14.0,-2.0,0
9.0,-261.0,-19.0,2.0,16.0,-3.0,0
6.0,-260.0,-21.0,5.0,25.0,-1.0,0
4.0,-258.0,-16.0,11.0,35.0,-3.0,0
4.0,-258.0,-19.0,14.0,34.0,0.0,0
2.0,-258.0,-19.0,15.0,25.0,0.0,0
6.0,-259.0,-15.0,10.0,11.0,3.0,0
5.0,-257.0,-21.0,6.0,2.0,4.0,0
6.0,-256.0,-20.0,5.0,1.0,9.0,0
7.0,-257.0,-21.0,8.0,3.0,9.0,0
8.0,-255.0,-23.0,10.0,5.0,12.0,0
9.0,-252.0,-25.0,6.0,7.0,12.0,0
12.0,-252.0,-20.0,-4.0,6.0,10.0,0
2.0,-251.0,-27.0,-16.0,6.0,9.0,0
10.0,-252.0,-19.0,-30.0,6.0,12.0,0
8.0,-255.0,-18.0,-39.0,5.0,14.0,0
3.0,-256.0,-17.0,-41.0,3.0,14.0,0
8.0,-256.0,-19.0,-40.0,1.0,16.0,0
6.0,-259.0,-18.0,-37.0,-2.0,17.0,0
9.0,-256.0,-18.0,-35.0,4.0,19.0,0
12.0,-259.0,-14.0,-33.0,13.0,20.0,0
10.0,-258.0,-12.0,-28.0,25.0,19.0,0
8.0,-253.0,-9.0,-21.0,35.0,16.0,0
7.0,-256.0,-8.0,-13.0,38.0,16.0,0
10.0,-257.0,-9.0,-4.0,38.0,12.0,0
5.0,-249.0,-16.0,2.0,38.0,12.0,0
8.0,-249.0,-16.0,4.0,39.0,8.0,0
4.0,-245.0,-15.0,-1.0,42.0,8.0,0
6.0,-245.0,-16.0,-9.0,43.0,4.0,0
6.0,-247.0,-19.0,-17.0,45.0,2.0,0
9.0,-248.0,-11.0,-24.0,46.0,-2.0,0
6.0,-249.0,-17.0,-28.0,50.0,0.0,0
6.0,-252.0,-11.0,-32.0,51.0,-4.0,0
8.0,-254.0,-11.0,-35.0,51.0,-4.0,0
12.0,-255.0,-11.0,-41.0,53.0,-9.0,0
7.0,-259.0,-6.0,-45.0,53.0,-9.0,0
10.0,-257.0,-13.0,-48.0,54.0,-14.0,0
11.0,-259.0,-10.0,-49.0,55.0,-15.0,0
11.0,-259.0,-14.0,-50.0,53.0,-19.0,0
10.0,-259.0,-12.0,-50.0,53.0,-18.0,0
7.0,-259.0,-13.0,-47.0,55.0,-20.0,0
7.0,-256.0,-15.0,-42.0,59.0,-19.0,0
6.0,-258.0,-11.0,-36.0,60.0,-21.0,0
6.0,-255.0,-7.0,-33.0,62.0,-19.0,0
5.0,-255.0,-14.0,-28.0,58.0,-20.0,0
5.0,-254.0,-11.0,-27.0,57.0,-18.0,0
6.0,-257.0,-14.0,-27.0,56.0,-17.0,0
5.0,-258.0,-10.0,-31.0,55.0,-18.0,0
3.0,-259.0,-9.0,-29.0,55.0,-18.0,0
0.0,-258.0,-9.0,-24.0,55.0,-20.0,0
1.0,-258.0,-13.0,-14.0,50.0,-20.0,0
3.0,-260.0,-12.0,-1.0,46.0,-21.0,0
2.0,-259.0,-13.0,11.0,44.0,-22.0,0
5.0,-258.0,-8.0,22.0,41.0,-23.0,0
2.0,-259.0,-9.0,32.0,36.0,-21.0,0
2.0,-258.0,-14.0,38.0,31.0,-22.0,0
1.0,-258.0,-7.0,35.0,23.0,-21.0,0
5.0,-259.0,-10.0,29.0,15.0,-24.0,0
3.0,-260.0,-13.0,23.0,9.0,-25.0,0
4.0,-261.0,-13.0,19.0,5.0,-29.0,0
6.0,-262.0,-17.0,19.0,3.0,-31.0,0
9.0,-266.0,-12.0,27.0,2.0,-34.0,0
5.0,-261.0,-14.0,39.0,1.0,-33.0,0
5.0,-262.0,-12.0,55.0,3.0,-33.0,0
5.0,-263.0,-16.0,71.0,7.0,-31.0,0
3.0,-261.0,-11.0,86.0,10.0,-33.0,0
5.0,-263.0,-11.0,109.0,10.0,-29.0,0
5.0,-261.0,-10.0,124.0,9.0,-32.0,0
4.0,-260.0,-7.0,136.0,9.0,-32.0,0
8.0,-262.0,-8.0,145.0,13.0,-35.0,0
7.0,-261.0,-10.0,154.0,17.0,-35.0,0
6.0,-259.0,-10.0,161.0,14.0,-40.0,0
7.0,-260.0,-10.0,169.0,12.0,-39.0,0
11.0,-259.0,-11.0,178.0,12.0,-42.0,0
12.0,-258.0,-14.0,189.0,19.0,-42.0,0
12.0,-257.0,-11.0,200.0,27.0,-47.0,0
12.0,-257.0,-13.0,211.0,33.0,-46.0,0
8.0,-252.0,-19.0,219.0,36.0,-48.0,0
11.0,-256.0,-11.0,225.0,35.0,-47.0,0
7.0,-251.0,-20.0,228.0,34.0,-46.0,0
15.0,-252.0,-27.0,236.0,37.0,-40.0,0
13.0,-247.0,-25.0,241.0,41.0,-33.0,0
14.0,-243.0,-27.0,252.0,55.0,-24.0,0
16.0,-238.0,-27.0,268.0,72.0,-17.0,0
15.0,-229.0,-20.0,289.0,90.0,-9.0,0
11.0,-224.0,-20.0,316.0,113.0,2.0,0
6.0,-217.0,-15.0,341.0,130.0,7.0,0
2.0,-207.0,-22.0,360.0,129.0,13.0,0
7.0,-196.0,-29.0,362.0,106.0,17.0,0
11.0,-189.0,-36.0,340.0,71.0,18.0,0
15.0,-176.0,-43.0,287.0,55.0,15.0,0
17.0,-168.0,-42.0,229.0,56.0,12.0,0
17.0,-163.0,-46.0,172.0,58.0,9.0,0
22.0,-159.0,-45.0,117.0,56.0,6.0,0
25.0,-152.0,-47.0,71.0,54.0,2.0,0
24.0,-147.0,-46.0,34.0,58.0,-2.0,0
25.0,-138.0,-53.0,1.0,71.0,-13.0,0
25.0,-128.0,-51.0,-29.0,94.0,-23.0,0
24.0,-120.0,-46.0,-56.0,126.0,-38.0,0
16.0,-114.0,-34.0,-79.0,167.0,-53.0,0
5.0,-103.0,-17.0,-78.0,222.0,-69.0,0
-11.0,-104.0,6.0,-43.0,299.0,-74.0,0
-26.0,-108.0,32.0,48.0,352.0,-80.0,0
-38.0,-112.0,48.0,138.0,369.0,-76.0,0
-46.0,-114.0,65.0,210.0,339.0,-78.0,0
-47.0,-111.0,64.0,233.0,263.0,-78.0,0
-45.0,-107.0,44.0,182.0,166.0,-79.0,0
-36.0,-109.0,9.0,60.0,82.0,-64.0,0
-27.0,-121.0,-34.0,-126.0,24.0,-41.0,0
-9.0,-136.0,-73.0,-353.0,-8.0,-12.0,0
10.0,-165.0,-102.0,-592.0,-25.0,6.0,0
28.0,-198.0,-116.0,-802.0,-30.0,27.0,0
40.0,-228.0,-118.0,-930.0,-13.0,47.0,0
48.0,-260.0,-104.0,-919.0,57.0,68.0,0
41.0,-283.0,-95.0,-723.0,143.0,87.0,0
31.0,-280.0,-84.0,-463.0,226.0,108.0,0
22.0,-262.0,-80.0,-207.0,281.0,132.0,0
10.0,-242.0,-67.0,-31.0,303.0,154.0,0
-2.0,-228.0,-57.0,43.0,305.0,176.0,0
-24.0,-215.0,-22.0,41.0,302.0,206.0,0
-3.0,-254.0,19.0,30.0,309.0,284.0,0
1.0,-288.0,110.0,-39.0,276.0,304.0,0
7.0,-331.0,181.0,24.0,233.0,329.0,0
22.0,-375.0,237.0,187.0,212.0,384.0,0
22.0,-409.0,260.0,390.0,181.0,432.0,0
13.0,-432.0,219.0,556.0,77.0,458.0,0
12.0,-444.0,132.0,605.0,-71.0,446.0,0
11.0,-452.0,37.0,491.0,-214.0,381.0,0
19.0,-458.0,-25.0,325.0,-275.0,271.0,0
23.0,-451.0,-69.0,251.0,-212.0,123.0,0
16.0,-429.0,-77.0,348.0,-49.0,9.0,0
-8.0,-404.0,-65.0,573.0,158.0,-38.0,0
-41.0,-375.0,-37.0,777.0,325.0,-55.0,0
-68.0,-342.0,-5.0,843.0,358.0,-90.0,0
-70.0,-312.0,14.0,735.0,266.0,-127.0,0
-53.0,-298.0,20.0,471.0,134.0,-156.0,0
-27.0,-310.0,14.0,103.0,42.0,-163.0,0
-11.0,-336.0,11.0,-322.0,-15.0,-165.0,0
10.0,-409.0,9.0,-814.0,-57.0,-155.0,0
14.0,-502.0,1.0,-1137.0,-80.0,-139.0,0
12.0,-595.0,-19.0,-1334.0,-56.0,-112.0,0
8.0,-694.0,-31.0,-1419.0,-2.0,-98.0,0
7.0,-783.0,-37.0,-1418.0,35.0,-96.0,0
9.0,-861.0,-33.0,-1337.0,20.0,-112.0,0
11.0,-824.0,75.0,-1176.0,-39.0,-133.0,0
19.0,-871.0,-23.0,-759.0,-106.0,-138.0,0
37.0,-927.0,-40.0,-452.0,-112.0,-134.0,0
51.0,-965.0,-20.0,-406.0,-82.0,-142.0,0
56.0,-916.0,31.0,-383.0,-46.0,-153.0,0
58.0,-863.0,21.0,-121.0,3.0,-181.0,0
62.0,-814.0,13.0,240.0,31.0,-221.0,0
53.0,-758.0,-2.0,482.0,29.0,-273.0,0
43.0,-704.0,-19.0,662.0,1.0,-335.0,0
20.0,-640.0,-44.0,792.0,-28.0,-394.0,0
6.0,-599.0,-47.0,881.0,-31.0,-442.0,0
-8.0,-540.0,-68.0,943.0,-14.0,-476.0,0
-37.0,-476.0,-87.0,984.0,-9.0,-488.0,0
-60.0,-416.0,-102.0,1038.0,6.0,-448.0,0
-59.0,-358.0,-110.0,1098.0,37.0,-376.0,0
-38.0,-324.0,-187.0,1143.0,48.0,-300.0,0
-38.0,-221.0,-115.0,1084.0,15.0,-216.0,0
-8.0,-167.0,-139.0,1151.0,-10.0,-108.0,0
9.0,-158.0,-190.0,1055.0,29.0,-26.0,0
33.0,-105.0,-86.0,795.0,101.0,-16.0,0
40.0,-26.0,-44.0,751.0,166.0,-39.0,0
49.0,18.0,-49.0,859.0,227.0,-2.0,0
53.0,32.0,-53.0,854.0,292.0,59.0,0
40.0,45.0,-33.0,692.0,334.0,68.0,0
22.0,50.0,-9.0,507.0,321.0,37.0,0
-5.0,58.0,-9.0,379.0,244.0,1.0,0
-12.0,63.0,-17.0,320.0,138.0,-15.0,0
-16.0,67.0,-32.0,295.0,40.0,-14.0,0
-4.0,54.0,-72.0,265.0,-27.0,-24.0,0
-9.0,64.0,-64.0,79.0,-81.0,-67.0,0
-21.0,87.0,-76.0,-20.0,-91.0,-115.0,0
-39.0,92.0,-92.0,-97.0,-52.0,-99.0,0
-43.0,88.0,-91.0,-190.0,9.0,-32.0,0
-29.0,40.0,-95.0,-304.0,68.0,37.0,0
-26.0,-19.0,-67.0,-479.0,92.0,42.0,0
-20.0,-55.0,-50.0,-619.0,84.0,11.0,0
-3.0,-90.0,-36.0,-640.0,60.0,-22.0,0
12.0,-112.0,-33.0,-545.0,50.0,-45.0,0
28.0,-101.0,-38.0,-363.0,85.0,-75.0,0
34.0,-67.0,-45.0,-141.0,164.0,-103.0,0
42.0,-28.0,-45.0,59.0,250.0,-123.0,0
36.0,5.0,-34.0,186.0,315.0,-133.0,0
30.0,28.0,-18.0,224.0,323.0,-141.0,0
25.0,29.0,1.0,183.0,304.0,-147.0,0
21.0,31.0,4.0,123.0,278.0,-148.0,0
15.0,30.0,12.0,61.0,252.0,-148.0,0
11.0,25.0,18.0,9.0,227.0,-144.0,0
10.0,18.0,13.0,-31.0,203.0,-139.0,0
3.0,14.0,8.0,-61.0,180.0,-126.0,0
-1.0,7.0,7.0,-74.0,159.0,-114.0,0
-8.0,0.0,3.0,-70.0,146.0,-94.0,0
-15.0,2.0,3.0,-54.0,141.0,-75.0,0
-27.0,1.0,0.0,-38.0,138.0,-43.0,0
-38.0,5.0,3.0,-30.0,126.0,-16.0,0
-43.0,10.0,4.0,-41.0,111.0,13.0,0
-49.0,11.0,-1.0,-65.0,96.0,40.0,0
-53.0,12.0,-4.0,-98.0,89.0,78.0,0
-51.0,10.0,-1.0,-128.0,87.0,108.0,0
-50.0,13.0,2.0,-145.0,84.0,140.0,0
-40.0,12.0,-1.0,-148.0,72.0,166.0,0
-30.0,13.0,-5.0,-146.0,50.0,192.0,0
-18.0,16.0,-11.0,-153.0,12.0,209.0,0
-5.0,17.0,-17.0,-174.0,-33.0,221.0,0
11.0,11.0,-25.0,-209.0,-73.0,222.0,0
20.0,5.0,-31.0,-241.0,-93.0,224.0,0
30.0,0.0,-25.0,-253.0,-93.0,219.0,0
35.0,-3.0,-24.0,-233.0,-83.0,218.0,0
32.0,-4.0,-25.0,-195.0,-75.0,216.0,0
30.0,-4.0,-31.0,-150.0,-78.0,213.0,0
32.0,-4.0,-32.0,-113.0,-93.0,209.0,0
23.0,-4.0,-39.0,-85.0,-114.0,200.0,0
16.0,-4.0,-45.0,-55.0,-140.0,190.0,0
10.0,-5.0,-43.0,-22.0,-167.0,179.0,0
7.0,-10.0,-39.0,21.0,-190.0,169.0,0
1.0,-20.0,-33.0,80.0,-212.0,161.0,0
-1.0,-37.0,-25.0,146.0,-242.0,148.0,0
-7.0,-56.0,-9.0,197.0,-291.0,121.0,0
-18.0,-77.0,4.0,227.0,-349.0,80.0,0
-29.0,-108.0,25.0,241.0,-380.0,54.0,0
-42.0,-153.0,50.0,253.0,-400.0,46.0,0
-40.0,-178.0,56.0,193.0,-403.0,30.0,0
-36.0,-196.0,-14.0,-157.0,-397.0,1.0,0
-26.0,-260.0,-157.0,-919.0,-488.0,-52.0,0
-13.0,-408.0,-257.0,-1902.0,-691.0,-148.0,0
2.0,-606.0,-282.0,-2645.0,-748.0,-350.0,0
13.0,-755.0,-200.0,-2785.0,-501.0,-610.0,0
34.0,-868.0,-167.0,-2198.0,-120.0,-809.0,0
34.0,-992.0,-38.0,-1278.0,113.0,-873.0,0
47.0,-1089.0,53.0,-389.0,-35.0,-673.0,0
69.0,-1085.0,154.0,241.0,-583.0,-79.0,0
50.0,-819.0,166.0,1414.0,-894.0,420.0,0
59.0,-564.0,160.0,2881.0,-679.0,603.0,0
46.0,-342.0,281.0,3864.0,-77.0,578.0,0
72.0,-166.0,399.0,3887.0,435.0,727.0,0
9.0,-279.0,-116.0,2408.0,344.0,970.0,0
9.0,-667.0,-480.0,-1086.0,-206.0,1084.0,0
50.0,-1075.0,-369.0,-4628.0,-522.0,704.0,0
35.0,-1223.0,-104.0,-5690.0,-473.0,182.0,0
-1.0,-1311.0,-39.0,-3920.0,-277.0,-37.0,0
-41.0,-1381.0,64.0,-1060.0,-112.0,7.0,0
-69.0,-958.0,317.0,1725.0,-95.0,164.0,0
-88.0,-600.0,245.0,4836.0,-197.0,398.0,0
-59.0,-261.0,87.0,6661.0,-224.0,600.0,0
-61.0,-86.0,-56.0,5950.0,-18.0,569.0,0
-77.0,80.0,-124.0,3875.0,-14.0,390.0,0
-78.0,208.0,-42.0,1701.0,-271.0,191.0,0
-34.0,304.0,62.0,374.0,-507.0,-65.0,0
-22.0,417.0,74.0,29.0,-590.0,-317.0,0
7.0,168.0,-83.0,107.0,-558.0,-210.0,0
57.0,-50.0,-16.0,-598.0,-460.0,95.0,0
34.0,-204.0,8.0,-1270.0,-389.0,63.0,0
34.0,-341.0,-9.0,-1572.0,-353.0,-29.0,0
43.0,-403.0,-14.0,-1501.0,-364.0,-38.0,0
83.0,-466.0,-34.0,-1165.0,-358.0,-6.0,0
111.0,-470.0,-10.0,-764.0,-326.0,1.0,0
103.0,-424.0,2.0,-388.0,-244.0,-27.0,0
92.0,-341.0,-5.0,-56.0,-115.0,-40.0,0
66.0,-254.0,1.0,126.0,10.0,-45.0,0
38.0,-171.0,6.0,128.0,108.0,-51.0,0
10.0,-113.0,12.0,11.0,174.0,-71.0,0
-4.0,-84.0,10.0,-156.0,204.0,-82.0,0
-8.0,-72.0,0.0,-341.0,189.0,-95.0,0
-12.0,-69.0,-13.0,-534.0,158.0,-88.0,0
-9.0,-78.0,-35.0,-713.0,135.0,-63.0,0
-6.0,-85.0,-48.0,-867.0,132.0,5.0,0
-7.0,-99.0,-57.0,-1016.0,143.0,61.0,0
-10.0,-111.0,-61.0,-1114.0,155.0,104.0,0
-9.0,-138.0,-60.0,-1177.0,163.0,135.0,0
-4.0,-164.0,-43.0,-1225.0,162.0,138.0,0
6.0,-187.0,-36.0,-1226.0,131.0,121.0,0
12.0,-222.0,-31.0,-1189.0,81.0,104.0,0
16.0,-258.0,-12.0,-1121.0,57.0,79.0,0
20.0,-288.0,0.0,-1005.0,69.0,61.0,0
17.0,-293.0,8.0,-829.0,98.0,45.0,0
18.0,-291.0,11.0,-609.0,105.0,30.0,0
16.0,-277.0,12.0,-406.0,92.0,13.0,0
17.0,-269.0,8.0,-284.0,79.0,-18.0,0
18.0,-278.0,5.0,-264.0,78.0,-50.0,0
15.0,-290.0,7.0,-318.0,88.0,-86.0,0
10.0,-313.0,-5.0,-386.0,96.0,-119.0,0
7.0,-329.0,-16.0,-446.0,96.0,-155.0,0
5.0,-354.0,-29.0,-482.0,91.0,-183.0,0
10.0,-372.0,-37.0,-486.0,90.0,-201.0,0
17.0,-385.0,-37.0,-435.0,104.0,-203.0,0
19.0,-382.0,-34.0,-312.0,136.0,-188.0,0
21.0,-361.0,-18.0,-121.0,193.0,-159.0,0
20.0,-337.0,-8.0,119.0,261.0,-124.0,0
10.0,-290.0,-3.0,344.0,328.0,-91.0,0
-7.0,-239.0,8.0,497.0,382.0,-67.0,0
-15.0,-202.0,16.0,539.0,411.0,-55.0,0
-24.0,-181.0,18.0,458.0,395.0,-42.0,0
-24.0,-182.0,21.0,307.0,351.0,-35.0,0
-21.0,-195.0,18.0,125.0,297.0,-40.0,0
-12.0,-215.0,12.0,-17.0,244.0,-20.0,0
-6.0,-239.0,8.0,-96.0,213.0,2.0,0
-5.0,-258.0,-1.0,-127.0,210.0,19.0,0
-4.0,-267.0,-11.0,-109.0,218.0,25.0,0
-8.0,-269.0,-17.0,-59.0,224.0,30.0,0
-9.0,-260.0,-25.0,0.0,224.0,23.0,0
-9.0,-254.0,-27.0,50.0,222.0,20.0,0
-7.0,-248.0,-27.0,87.0,223.0,9.0,0
-6.0,-243.0,-23.0,111.0,229.0,3.0,0
-5.0,-235.0,-22.0,110.0,228.0,-6.0,0
-5.0,-230.0,-19.0,93.0,222.0,-10.0,0
1.0,-234.0,-11.0,61.0,216.0,-15.0,0
0.0,-239.0,-9.0,16.0,221.0,-16.0,0
-3.0,-244.0,0.0,-36.0,232.0,-19.0,0
-3.0,-255.0,8.0,-76.0,237.0,-18.0,0
-3.0,-256.0,10.0,-96.0,226.0,-20.0,0
1.0,-266.0,9.0,-86.0,210.0,-9.0,0
5.0,-261.0,12.0,-64.0,223.0,-16.0,0
-1.0,-258.0,10.0,-21.0,231.0,-8.0,0
0.0,-255.0,11.0,28.0,242.0,-2.0,0
-1.0,-249.0,10.0,49.0,243.0,-2.0,0
1.0,-249.0,13.0,46.0,226.0,2.0,0
2.0,-251.0,10.0,40.0,200.0,3.0,0
7.0,-252.0,8.0,31.0,181.0,7.0,0
10.0,-252.0,6.0,21.0,180.0,8.0,0
13.0,-254.0,8.0,12.0,194.0,7.0,0
13.0,-254.0,2.0,3.0,213.0,3.0,0
12.0,-254.0,7.0,-6.0,232.0,3.0,0
11.0,-253.0,4.0,-11.0,238.0,2.0,0
8.0,-250.0,1.0,-21.0,246.0,2.0,0
7.0,-253.0,0.0,-36.0,249.0,-3.0,0
4.0,-253.0,-7.0,-55.0,249.0,-7.0,0
5.0,-255.0,-12.0,-77.0,253.0,-15.0,0
1.0,-256.0,-17.0,-87.0,252.0,-14.0,0
7.0,-258.0,-14.0,-92.0,263.0,-22.0,0
7.0,-259.0,-19.0,-87.0,270.0,-24.0,0
11.0,-263.0,-26.0,-72.0,281.0,-29.0,0
13.0,-268.0,-17.0,-55.0,299.0,-32.0,0
10.0,-267.0,-15.0,-37.0,315.0,-38.0,0
13.0,-270.0,-6.0,-19.0,328.0,-37.0,0
13.0,-268.0,-12.0,-5.0,338.0,-46.0,0
15.0,-263.0,-12.0,9.0,345.0,-45.0,0
11.0,-260.0,-12.0,20.0,359.0,-53.0,0
9.0,-259.0,-10.0,28.0,379.0,-58.0,0
2.0,-257.0,-11.0,35.0,387.0,-61.0,0
1.0,-255.0,-12.0,33.0,392.0,-66.0,0
-3.0,-252.0,-12.0,28.0,393.0,-72.0,0
-5.0,-251.0,-10.0,23.0,392.0,-73.0,0
-6.0,-251.0,-9.0,22.0,387.0,-76.0,0
-5.0,-251.0,-8.0,20.0,386.0,-74.0,0
-8.0,-248.0,-6.0,19.0,385.0,-73.0,0
-7.0,-245.0,-3.0,15.0,375.0,-75.0,0
-7.0,-244.0,-6.0,5.0,363.0,-74.0,0
-3.0,-244.0,-7.0,-10.0,349.0,-75.0,0
-3.0,-245.0,-3.0,-30.0,337.0,-76.0,0
1.0,-246.0,-4.0,-47.0,324.0,-76.0,0
-1.0,-246.0,-3.0,-53.0,314.0,-73.0,0
0.0,-245.0,-7.0,-56.0,298.0,-72.0,0
-2.0,-244.0,-13.0,-62.0,280.0,-68.0,0
0.0,-247.0,-13.0,-75.0,260.0,-67.0,0
0.0,-247.0,-13.0,-89.0,242.0,-60.0,0
-3.0,-254.0,-14.0,-102.0,230.0,-58.0,0
2.0,-254.0,-8.0,-109.0,225.0,-54.0,0
4.0,-257.0,-7.0,-109.0,224.0,-54.0,0
-1.0,-257.0,-6.0,-104.0,224.0,-49.0,0
-2.0,-258.0,-7.0,-97.0,218.0,-48.0,0
-2.0,-260.0,-8.0,-88.0,208.0,-42.0,0
1.0,-259.0,-15.0,-79.0,195.0,-41.0,0
-7.0,-257.0,-13.0,-71.0,184.0,-34.0,0
-8.0,-257.0,-12.0,-63.0,166.0,-30.0,0
-5.0,-254.0,-15.0,-61.0,146.0,-23.0,0
-5.0,-255.0,-20.0,-62.0,129.0,-22.0,0
-4.0,-256.0,-13.0,-64.0,119.0,-16.0,0
-2.0,-255.0,-15.0,-63.0,112.0,-16.0,0
0.0,-257.0,-14.0,-61.0,107.0,-13.0,0
2.0,-259.0,-17.0,-58.0,100.0,-13.0,0
2.0,-258.0,-14.0,-54.0,96.0,-11.0,0
2.0,-257.0,-19.0,-52.0,89.0,-11.0,0
3.0,-257.0,-16.0,-48.0,83.0,-7.0,0
4.0,-257.0,-16.0,-47.0,74.0,-6.0,0
5.0,-257.0,-17.0,-49.0,67.0,-3.0,0
4.0,-255.0,-19.0,-49.0,57.0,1.0,0
9.0,-257.0,-19.0,-48.0,48.0,5.0,0
10.0,-257.0,-14.0,-47.0,42.0,9.0,0
6.0,-254.0,-15.0,-47.0,39.0,9.0,0
8.0,-253.0,-9.0,-45.0,36.0,12.0,0
9.0,-257.0,-13.0,-43.0,34.0,14.0,0
4.0,-251.0,-16.0,-41.0,31.0,16.0,0
7.0,-253.0,-14.0,-39.0,32.0,14.0,0
5.0,-256.0,-13.0,-39.0,29.0,13.0,0
9.0,-257.0,-14.0,-35.0,26.0,11.0,0
8.0,-257.0,-16.0,-28.0,19.0,12.0,0
8.0,-257.0,-13.0,-23.0,14.0,11.0,0
1.0,-252.0,-12.0,-20.0,12.0,12.0,0
1.0,-253.0,-14.0,-20.0,9.0,8.0,0
4.0,-255.0,-14.0,-23.0,6.0,9.0,0
6.0,-255.0,-12.0,-27.0,0.0,5.0,0
4.0,-251.0,-16.0,-28.0,-6.0,7.0,0
7.0,-248.0,-12.0,-30.0,-8.0,2.0,0
6.0,-258.0,-13.0,-24.0,-8.0,13.0,0
2.0,-255.0,-13.0,-34.0,6.0,-2.0,0
4.0,-258.0,-15.0,-36.0,4.0,5.0,0
3.0,-256.0,-17.0,-37.0,1.0,-2.0,0
3.0,-257.0,-16.0,-36.0,-4.0,-2.0,0
3.0,-256.0,-15.0,-33.0,-5.0,-1.0,0
5.0,-259.0,-21.0,-28.0,-5.0,1.0,0
3.0,-256.0,-19.0,-29.0,-8.0,2.0,0
2.0,-258.0,-20.0,-29.0,-14.0,3.0,0
2.0,-256.0,-13.0,-30.0,-22.0,3.0,0
3.0,-259.0,-17.0,-27.0,-28.0,5.0,0
3.0,-257.0,-17.0,-26.0,-34.0,3.0,0
7.0,-259.0,-14.0,-22.0,-39.0,6.0,0
3.0,-257.0,-18.0,-23.0,-43.0,4.0,0
3.0,-257.0,-20.0,-21.0,-48.0,7.0,0
5.0,-258.0,-18.0,-22.0,-50.0,6.0,0
3.0,-255.0,-16.0,-18.0,-50.0,7.0,0
3.0,-255.0,-17.0,-16.0,-53.0,7.0,0
2.0,-255.0,-20.0,-14.0,-56.0,8.0,0
3.0,-255.0,-21.0,-14.0,-60.0,10.0,0
7.0,-256.0,-16.0,-13.0,-64.0,11.0,0
4.0,-253.0,-19.0,-10.0,-68.0,13.0,0
8.0,-253.0,-15.0,-10.0,-72.0,15.0,0
6.0,-250.0,-14.0,-11.0,-73.0,17.0,0
7.0,-252.0,-18.0,-13.0,-72.0,15.0,0
9.0,-253.0,-15.0,-17.0,-72.0,14.0,0
8.0,-252.0,-17.0,-24.0,-72.0,11.0,0
8.0,-256.0,-14.0,-28.0,-72.0,12.0,0
8.0,-255.0,-16.0,-30.0,-73.0,9.0,0
10.0,-254.0,-18.0,-29.0,-71.0,10.0,0
10.0,-257.0,-16.0,-29.0,-71.0,7.0,0
10.0,-254.0,-19.0,-29.0,-72.0,9.0,0
12.0,-254.0,-19.0,-31.0,-75.0,3.0,0
12.0,-256.0,-19.0,-36.0,-75.0,5.0,0
11.0,-252.0,-20.0,-42.0,-73.0,2.0,0
11.0,-255.0,-18.0,-50.0,-70.0,3.0,0
14.0,-252.0,-18.0,-58.0,-67.0,0.0,0
13.0,-257.0,-18.0,-65.0,-65.0,3.0,0
14.0,-258.0,-19.0,-68.0,-62.0,0.0,0
11.0,-258.0,-24.0,-69.0,-58.0,4.0,0
13.0,-259.0,-23.0,-65.0,-50.0,4.0,0
14.0,-258.0,-21.0,-59.0,-43.0,6.0,0
17.0,-260.0,-21.0,-56.0,-36.0,6.0,0
14.0,-260.0,-25.0,-53.0,-28.0,9.0,0
13.0,-257.0,-18.0,-52.0,-19.0,8.0,0
18.0,-256.0,-23.0,-46.0,-12.0,12.0,0
12.0,-259.0,-24.0,-38.0,-2.0,14.0,0
15.0,-257.0,-20.0,-33.0,11.0,10.0,0
17.0,-256.0,-25.0,-26.0,18.0,12.0,0
16.0,-258.0,-17.0,-23.0,23.0,9.0,0
19.0,-257.0,-20.0,-25.0,34.0,8.0,0
20.0,-258.0,-17.0,-26.0,51.0,8.0,0
19.0,-259.0,-18.0,-23.0,63.0,9.0,0
19.0,-258.0,-18.0,-21.0,74.0,8.0,0
18.0,-258.0,-17.0,-20.0,85.0,9.0,0
18.0,-256.0,-21.0,-17.0,93.0,9.0,0
20.0,-256.0,-17.0,-14.0,99.0,9.0,0
18.0,-256.0,-17.0,-11.0,108.0,5.0,0
18.0,-255.0,-16.0,-6.0,116.0,4.0,0
15.0,-256.0,-16.0,-3.0,125.0,-2.0,0
17.0,-255.0,-15.0,0.0,133.0,-5.0,0
13.0,-256.0,-17.0,5.0,139.0,-9.0,0
10.0,-255.0,-15.0,7.0,145.0,-11.0,0
11.0,-257.0,-16.0,11.0,151.0,-15.0,0
11.0,-256.0,-17.0,17.0,158.0,-16.0,0
9.0,-255.0,-15.0,20.0,166.0,-19.0,0
7.0,-253.0,-13.0,23.0,171.0,-18.0,0
7.0,-256.0,-16.0,26.0,176.0,-19.0,0
6.0,-254.0,-15.0,25.0,178.0,-17.0,0
5.0,-254.0,-16.0,22.0,184.0,-19.0,0
7.0,-254.0,-18.0,22.0,187.0,-16.0,0
3.0,-247.0,-12.0,17.0,190.0,-18.0,0
3.0,-256.0,-15.0,13.0,190.0,-16.0,0
3.0,-256.0,-19.0,12.0,192.0,-18.0,0
4.0,-254.0,-13.0,13.0,193.0,-15.0,0
2.0,-253.0,-17.0,14.0,193.0,-18.0,0
2.0,-258.0,-12.0,16.0,191.0,-17.0,0
3.0,-255.0,-15.0,18.0,189.0,-17.0,0
1.0,-254.0,-18.0,18.0,187.0,-16.0,0
1.0,-254.0,-15.0,18.0,184.0,-16.0,0
3.0,-256.0,-15.0,18.0,183.0,-15.0,0
-3.0,-253.0,-20.0,20.0,180.0,-16.0,0
1.0,-254.0,-16.0,19.0,177.0,-14.0,0
-1.0,-255.0,-14.0,15.0,175.0,-17.0,0
3.0,-256.0,-14.0,14.0,172.0,-16.0,0
-2.0,-258.0,-17.0,13.0,168.0,-16.0,0
-1.0,-256.0,-12.0,7.0,170.0,-19.0,0
2.0,-253.0,-14.0,9.0,163.0,-17.0,0
3.0,-254.0,-12.0,9.0,154.0,-18.0,0
6.0,-252.0,-12.0,10.0,149.0,-16.0,0
2.0,-251.0,-17.0,10.0,148.0,-13.0,0
0.0,-253.0,-16.0,7.0,147.0,-9.0,0
-1.0,-254.0,-12.0,-6.0,147.0,-14.0,0
0.0,-253.0,-11.0,-14.0,138.0,-14.0,0
3.0,-255.0,-15.0,-20.0,128.0,-16.0,0
3.0,-254.0,-13.0,-20.0,126.0,-15.0,0
2.0,-255.0,-17.0,-13.0,126.0,-15.0,0
3.0,-252.0,-11.0,-9.0,127.0,-14.0,0
2.0,-257.0,-15.0,-8.0,125.0,-18.0,0
-1.0,-252.0,-14.0,-9.0,125.0,-18.0,0
1.0,-257.0,-13.0,-10.0,124.0,-21.0,0
-1.0,-256.0,-11.0,-8.0,122.0,-19.0,0
0.0,-252.0,-13.0,-7.0,119.0,-22.0,0
1.0,-254.0,-11.0,-6.0,115.0,-21.0,0
2.0,-255.0,-10.0,-6.0,110.0,-23.0,0
0.0,-253.0,-13.0,-6.0,106.0,-21.0,0
1.0,-254.0,-15.0,-10.0,103.0,-24.0,0
2.0,-252.0,-10.0,-13.0,101.0,-23.0,0
2.0,-253.0,-10.0,-15.0,100.0,-27.0,0
1.0,-253.0,-10.0,-17.0,99.0,-26.0,0
3.0,-256.0,-6.0,-20.0,98.0,-28.0,0
2.0,-254.0,-9.0,-23.0,95.0,-27.0,0
-1.0,-252.0,-11.0,-26.0,93.0,-29.0,0
-4.0,-252.0,-11.0,-31.0,89.0,-29.0,0
-3.0,-254.0,-15.0,-32.0,86.0,-30.0,0
-4.0,-259.0,-16.0,-35.0,83.0,-30.0,0
0.0,-258.0,-14.0,-38.0,76.0,-29.0,0
-2.0,-257.0,-15.0,-40.0,68.0,-28.0,0
-1.0,-256.0,-15.0,-41.0,61.0,-26.0,0
1.0,-257.0,-15.0,-39.0,59.0,-27.0,0
2.0,-258.0,-16.0,-34.0,57.0,-25.0,0
2.0,-255.0,-20.0,-31.0,53.0,-25.0,0
2.0,-256.0,-15.0,-27.0,46.0,-22.0,0
2.0,-257.0,-14.0,-24.0,40.0,-22.0,0
5.0,-256.0,-15.0,-20.0,36.0,-20.0,0
5.0,-256.0,-18.0,-20.0,33.0,-20.0,0
1.0,-254.0,-14.0,-20.0,31.0,-16.0,0
2.0,-253.0,-13.0,-21.0,29.0,-17.0,0
4.0,-257.0,-13.0,-22.0,27.0,-14.0,0
2.0,-253.0,-11.0,-26.0,24.0,-15.0,0
6.0,-257.0,-14.0,-30.0,20.0,-11.0,0
0.0,-256.0,-15.0,-33.0,19.0,-12.0,0
2.0,-257.0,-15.0,-38.0,18.0,-9.0,0
5.0,-254.0,-14.0,-39.0,15.0,-10.0,0
7.0,-258.0,-17.0,-37.0,11.0,-5.0,0
9.0,-258.0,-18.0,-32.0,11.0,-6.0,0
5.0,-259.0,-10.0,-28.0,14.0,-2.0,0
2.0,-256.0,-17.0,-25.0,16.0,-4.0,0
6.0,-255.0,-15.0,-24.0,16.0,-1.0,0
3.0,-254.0,-10.0,-23.0,15.0,-4.0,0
9.0,-258.0,-9.0,-22.0,15.0,-3.0,0
7.0,-256.0,-16.0,-16.0,16.0,-5.0,0
6.0,-255.0,-12.0,-16.0,20.0,-3.0,0
7.0,-255.0,-12.0,-14.0,22.0,-7.0,0
9.0,-257.0,-17.0,-13.0,23.0,-5.0,0
10.0,-257.0,-15.0,-12.0,24.0,-8.0,0
8.0,-260.0,-14.0,-12.0,25.0,-5.0,0
9.0,-256.0,-13.0,-7.0,25.0,-5.0,0
6.0,-254.0,-11.0,-3.0,26.0,-5.0,0
8.0,-255.0,-15.0,1.0,28.0,-4.0,0
6.0,-254.0,-11.0,2.0,27.0,-5.0,0
9.0,-255.0,-13.0,-1.0,25.0,-2.0,0
8.0,-251.0,-10.0,-6.0,30.0,-7.0,0
6.0,-257.0,-10.0,-9.0,33.0,-6.0,0
5.0,-254.0,-12.0,-10.0,34.0,-8.0,0
5.0,-254.0,-13.0,-9.0,36.0,-7.0,0
3.0,-252.0,-12.0,-8.0,38.0,-7.0,0
7.0,-253.0,-14.0,-9.0,41.0,-7.0,0
6.0,-253.0,-13.0,-13.0,38.0,-5.0,0
5.0,-254.0,-10.0,-21.0,39.0,-5.0,0
6.0,-255.0,-7.0,-21.0,33.0,-4.0,0
8.0,-258.0,-11.0,-21.0,31.0,-2.0,0
8.0,-258.0,-16.0,-18.0,31.0,-3.0,0
7.0,-254.0,-15.0,-15.0,32.0,0.0,0
7.0,-257.0,-20.0,-18.0,32.0,-2.0,0
5.0,-256.0,-15.0,-21.0,32.0,0.0,0
5.0,-257.0,-18.0,-22.0,33.0,-4.0,0
6.0,-259.0,-16.0,-17.0,29.0,0.0,0
3.0,-255.0,-15.0,-12.0,27.0,-1.0,0
4.0,-255.0,-15.0,-10.0,31.0,1.0,0
5.0,-256.0,-12.0,-7.0,31.0,-1.0,0
3.0,-253.0,-13.0,-4.0,29.0,0.0,0
4.0,-255.0,-12.0,-1.0,28.0,-1.0,0
5.0,-254.0,-8.0,3.0,28.0,1.0,0
5.0,-254.0,-13.0,2.0,28.0,0.0,0
6.0,-251.0,-12.0,-3.0,25.0,1.0,0
8.0,-253.0,-14.0,-7.0,22.0,1.0,0
7.0,-252.0,-13.0,-13.0,19.0,2.0,0
7.0,-255.0,-12.0,-17.0,17.0,2.0,0
10.0,-256.0,-11.0,-22.0,17.0,2.0,0
6.0,-257.0,-17.0,-23.0,18.0,2.0,0
13.0,-254.0,-14.0,-21.0,20.0,2.0,0
13.0,-252.0,-1.0,-21.0,21.0,1.0,0
6.0,-249.0,-11.0,-26.0,22.0,0.0,0
7.0,-255.0,-19.0,-29.0,24.0,-1.0,0
3.0,-247.0,-9.0,-32.0,26.0,-2.0,0
6.0,-255.0,-19.0,-35.0,29.0,0.0,0
6.0,-252.0,-30.0,-34.0,30.0,-3.0,0
12.0,-255.0,-14.0,-33.0,36.0,-2.0,0
7.0,-256.0,-14.0,-33.0,40.0,-4.0,0
7.0,-255.0,-12.0,-31.0,40.0,-1.0,0
6.0,-254.0,-17.0,-32.0,41.0,-3.0,0
11.0,-257.0,-15.0,-32.0,48.0,-1.0,0
8.0,-255.0,-19.0,-30.0,53.0,-3.0,0
9.0,-255.0,-17.0,-30.0,55.0,-1.0,0
8.0,-259.0,-19.0,-29.0,60.0,-4.0,0
10.0,-253.0,-7.0,-28.0,66.0,-1.0,0
5.0,-260.0,-11.0,-28.0,72.0,-5.0,0
10.0,-251.0,-9.0,-27.0,77.0,-4.0,0
5.0,-262.0,-25.0,-27.0,82.0,-7.0,0
15.0,-257.0,-9.0,-26.0,85.0,-5.0,0
9.0,-251.0,-4.0,-26.0,91.0,-9.0,0
0.0,-254.0,-8.0,-25.0,97.0,-7.0,0
18.0,-253.0,-18.0,-25.0,101.0,-10.0,0
10.0,-251.0,-31.0,-24.0,106.0,-8.0,0
13.0,-254.0,-12.0,-24.0,111.0,-12.0,0
10.0,-254.0,-17.0,-24.0,117.0,-11.0,0
7.0,-252.0,-19.0,-24.0,123.0,-13.0,0
10.0,-255.0,-16.0,-27.0,127.0,-12.0,0
10.0,-256.0,-16.0,-29.0,131.0,-13.0,0
5.0,-258.0,-16.0,-33.0,133.0,-13.0,0
5.0,-257.0,-16.0,-36.0,136.0,-14.0,0
13.0,-252.0,-13.0,-39.0,142.0,-13.0,0
7.0,-255.0,-28.0,-38.0,144.0,-14.0,0
-5.0,-257.0,-25.0,-36.0,150.0,-14.0,0
9.0,-256.0,-21.0,-33.0,154.0,-14.0,0
3.0,-259.0,-15.0,-33.0,156.0,-14.0,0
13.0,-252.0,-14.0,-33.0,157.0,-13.0,0
12.0,-257.0,-14.0,-34.0,159.0,-14.0,0
8.0,-263.0,-26.0,-31.0,160.0,-11.0,0
14.0,-253.0,-16.0,-29.0,161.0,-12.0,0
6.0,-255.0,-17.0,-28.0,162.0,-10.0,0
3.0,-259.0,-15.0,-28.0,160.0,-13.0,0
4.0,-257.0,-14.0,-27.0,159.0,-12.0,0
6.0,-254.0,-18.0,-27.0,158.0,-14.0,0
15.0,-248.0,-10.0,-27.0,158.0,-12.0,0
6.0,-257.0,-11.0,-27.0,160.0,-13.0,0
8.0,-256.0,-18.0,-30.0,161.0,-12.0,0
20.0,-249.0,-20.0,-31.0,160.0,-16.0,0
-2.0,-245.0,-21.0,-31.0,159.0,-14.0,0
6.0,-253.0,-18.0,-30.0,157.0,-16.0,0
4.0,-255.0,-17.0,-30.0,157.0,-13.0,0
3.0,-252.0,-23.0,-32.0,158.0,-14.0,0
9.0,-246.0,-17.0,-35.0,157.0,-10.0,0
5.0,-252.0,-11.0,-42.0,153.0,-11.0,0
-4.0,-249.0,-27.0,-44.0,147.0,-9.0,0
1.0,-260.0,-17.0,-44.0,142.0,-8.0,0
1.0,-258.0,-20.0,-41.0,140.0,-6.0,0
0.0,-258.0,-18.0,-35.0,136.0,-6.0,0
2.0,-258.0,-24.0,-33.0,130.0,-1.0,0
-9.0,-254.0,-18.0,-34.0,122.0,0.0,0
-1.0,-264.0,-10.0,-39.0,114.0,4.0,0
20.0,-255.0,-28.0,-42.0,110.0,6.0,0
10.0,-258.0,3.0,-39.0,109.0,9.0,0
6.0,-245.0,-14.0,-33.0,109.0,14.0,0
11.0,-245.0,-20.0,-29.0,105.0,16.0,0
0.0,-249.0,-2.0,-25.0,100.0,17.0,0
6.0,-251.0,-26.0,-27.0,102.0,16.0,0
13.0,-239.0,-18.0,-32.0,106.0,17.0,0
24.0,-257.0,-18.0,-37.0,109.0,16.0,0
-2.0,-253.0,0.0,-42.0,107.0,16.0,0
8.0,-249.0,-13.0,-48.0,105.0,12.0,0
4.0,-252.0,-15.0,-48.0,103.0,12.0,0
7.0,-255.0,-13.0,-46.0,105.0,10.0,0
3.0,-255.0,-18.0,-43.0,105.0,10.0,0
0.0,-255.0,-17.0,-41.0,102.0,7.0,0
2.0,-260.0,-11.0,-41.0,94.0,9.0,0
7.0,-246.0,-13.0,-41.0,90.0,7.0,0
11.0,-249.0,-29.0,-41.0,89.0,7.0,0
1.0,-256.0,-2.0,-40.0,92.0,5.0,0
8.0,-259.0,-3.0,-42.0,94.0,7.0,0
16.0,-242.0,-12.0,-47.0,93.0,2.0,0
12.0,-248.0,-17.0,-56.0,91.0,2.0,0
5.0,-249.0,-12.0,-69.0,92.0,0.0,0
6.0,-250.0,-14.0,-78.0,95.0,0.0,0
7.0,-254.0,-13.0,-88.0,95.0,-5.0,0
4.0,-246.0,-10.0,-92.0,96.0,-5.0,0
11.0,-257.0,-13.0,-91.0,97.0,-5.0,0
7.0,-255.0,-13.0,-86.0,101.0,-2.0,0
7.0,-255.0,-14.0,-82.0,105.0,-3.0,0
3.0,-256.0,-15.0,-79.0,105.0,-1.0,0
-2.0,-259.0,-9.0,-78.0,102.0,-2.0,0
7.0,-253.0,-12.0,-78.0,102.0,0.0,0
12.0,-251.0,-15.0,-79.0,102.0,-2.0,0
13.0,-251.0,-14.0,-83.0,99.0,-2.0,0
6.0,-254.0,-12.0,-89.0,94.0,-6.0,0
5.0,-252.0,-11.0,-94.0,92.0,-6.0,0
6.0,-252.0,-11.0,-93.0,91.0,-7.0,0
9.0,-255.0,-13.0,-90.0,88.0,-10.0,0
1.0,-251.0,-16.0,-86.0,83.0,-9.0,0
6.0,-256.0,-10.0,-82.0,79.0,-9.0,0
6.0,-255.0,-14.0,-80.0,77.0,-8.0,0
3.0,-251.0,-17.0,-80.0,74.0,-8.0,0
2.0,-254.0,-17.0,-82.0,70.0,-6.0,0
1.0,-257.0,-13.0,-88.0,65.0,-7.0,0
2.0,-254.0,-16.0,-95.0,57.0,-6.0,0
5.0,-251.0,-18.0,-101.0,50.0,-10.0,0
4.0,-253.0,-13.0,-109.0,48.0,-8.0,0
2.0,-252.0,-13.0,-115.0,46.0,-11.0,0
5.0,-256.0,-11.0,-119.0,43.0,-10.0,0
2.0,-255.0,-15.0,-120.0,37.0,-11.0,0
2.0,-256.0,-14.0,-117.0,34.0,-8.0,0
3.0,-255.0,-15.0,-110.0,31.0,-10.0,0
4.0,-259.0,-22.0,-101.0,28.0,-4.0,0
1.0,-257.0,-14.0,-94.0,28.0,-4.0,0
2.0,-256.0,-17.0,-91.0,27.0,0.0,0
1.0,-255.0,-13.0,-91.0,22.0,0.0,0
-3.0,-258.0,-14.0,-93.0,14.0,5.0,0
0.0,-255.0,-15.0,-96.0,3.0,4.0,0
1.0,-260.0,-9.0,-100.0,-8.0,9.0,0
0.0,-258.0,-13.0,-102.0,-16.0,7.0,0
0.0,-259.0,-12.0,-101.0,-22.0,10.0,0
0.0,-261.0,-16.0,-101.0,-27.0,9.0,0
4.0,-263.0,-19.0,-101.0,-35.0,11.0,0
5.0,-269.0,-16.0,-101.0,-44.0,10.0,0
5.0,-269.0,-16.0,-104.0,-54.0,13.0,0
6.0,-271.0,-17.0,-101.0,-58.0,11.0,0
6.0,-275.0,-18.0,-95.0,-61.0,12.0,0
7.0,-275.0,-19.0,-83.0,-62.0,9.0,0
11.0,-277.0,-18.0,-71.0,-66.0,4.0,0
12.0,-280.0,-11.0,-57.0,-65.0,-2.0,0
9.0,-282.0,-25.0,-36.0,-60.0,-8.0,0
8.0,-282.0,-21.0,-14.0,-57.0,-17.0,0
9.0,-282.0,-26.0,14.0,-59.0,-26.0,0
9.0,-281.0,-21.0,56.0,-62.0,-33.0,0
13.0,-279.0,-24.0,96.0,-61.0,-43.0,0
11.0,-277.0,-32.0,134.0,-53.0,-51.0,0
11.0,-273.0,-30.0,170.0,-42.0,-60.0,0
9.0,-269.0,-36.0,201.0,-41.0,-67.0,0
14.0,-263.0,-37.0,224.0,-47.0,-76.0,0
16.0,-258.0,-39.0,246.0,-53.0,-82.0,0
18.0,-249.0,-40.0,270.0,-47.0,-90.0,0
20.0,-238.0,-37.0,300.0,-16.0,-94.0,0
16.0,-225.0,-26.0,334.0,34.0,-105.0,0
12.0,-213.0,-23.0,368.0,84.0,-113.0,0
7.0,-198.0,-29.0,385.0,120.0,-128.0,0
3.0,-188.0,-26.0,374.0,139.0,-134.0,0
1.0,-179.0,-36.0,338.0,143.0,-141.0,0
-1.0,-170.0,-36.0,284.0,144.0,-139.0,0
2.0,-164.0,-34.0,226.0,145.0,-134.0,0
3.0,-160.0,-37.0,172.0,153.0,-119.0,0
7.0,-158.0,-40.0,134.0,167.0,-105.0,0
12.0,-148.0,-29.0,116.0,189.0,-86.0,0
7.0,-142.0,-28.0,120.0,218.0,-69.0,0
10.0,-134.0,-19.0,142.0,245.0,-42.0,0
4.0,-124.0,-19.0,179.0,263.0,-17.0,0
-3.0,-107.0,-10.0,220.0,268.0,17.0,0
-7.0,-93.0,-15.0,249.0,258.0,55.0,0
-7.0,-72.0,-9.0,253.0,228.0,85.0,0
-11.0,-56.0,4.0,236.0,204.0,110.0,0
-17.0,-44.0,18.0,214.0,199.0,135.0,0
-26.0,-40.0,38.0,221.0,207.0,159.0,0
-35.0,-44.0,50.0,266.0,211.0,192.0,0
-36.0,-54.0,64.0,315.0,183.0,223.0,0
-36.0,-66.0,71.0,336.0,111.0,240.0,0
-28.0,-80.0,65.0,302.0,4.0,238.0,0
-13.0,-93.0,46.0,206.0,-101.0,230.0,0
-9.0,-97.0,37.0,65.0,-156.0,232.0,0
13.0,-139.0,-11.0,-80.0,-144.0,246.0,0
9.0,-167.0,-31.0,-345.0,-81.0,226.0,0
11.0,-194.0,-62.0,-602.0,1.0,200.0,0
20.0,-224.0,-74.0,-810.0,95.0,200.0,0
29.0,-267.0,-79.0,-973.0,166.0,173.0,0
36.0,-310.0,-91.0,-1037.0,214.0,151.0,0
37.0,-342.0,-94.0,-991.0,246.0,129.0,0
49.0,-370.0,-92.0,-834.0,276.0,120.0,0
53.0,-385.0,-88.0,-607.0,315.0,113.0,0
47.0,-380.0,-79.0,-343.0,379.0,105.0,0
41.0,-374.0,-59.0,-75.0,458.0,90.0,0
31.0,-368.0,-23.0,161.0,528.0,77.0,0
26.0,-360.0,4.0,365.0,569.0,63.0,0
35.0,-357.0,38.0,531.0,581.0,66.0,0
25.0,-331.0,122.0,678.0,562.0,61.0,0
51.0,-368.0,97.0,769.0,530.0,83.0,0
30.0,-377.0,132.0,725.0,455.0,40.0,0
13.0,-383.0,131.0,732.0,365.0,10.0,0
3.0,-398.0,108.0,725.0,269.0,-3.0,0
-10.0,-403.0,76.0,649.0,176.0,-29.0,0
-18.0,-409.0,60.0,522.0,120.0,-84.0,0
-33.0,-418.0,50.0,372.0,115.0,-143.0,0
-41.0,-418.0,38.0,230.0,141.0,-191.0,0
-53.0,-415.0,29.0,103.0,164.0,-204.0,0
-58.0,-409.0,10.0,-23.0,151.0,-188.0,0
-54.0,-418.0,-3.0,-169.0,93.0,-141.0,0
-45.0,-441.0,-18.0,-393.0,22.0,-97.0,0
-28.0,-478.0,-32.0,-619.0,-64.0,-40.0,0
-14.0,-526.0,-34.0,-861.0,-127.0,30.0,0
-4.0,-575.0,-28.0,-1070.0,-139.0,104.0,0
12.0,-638.0,-22.0,-1211.0,-108.0,180.0,0
24.0,-707.0,-20.0,-1283.0,-58.0,243.0,0
31.0,-772.0,-29.0,-1285.0,-13.0,289.0,0
31.0,-753.0,33.0,-1226.0,16.0,304.0,0
44.0,-803.0,-34.0,-908.0,45.0,311.0,0
69.0,-880.0,-42.0,-644.0,115.0,281.0,0
96.0,-928.0,-25.0,-595.0,146.0,175.0,0
103.0,-959.0,-14.0,-633.0,130.0,-67.0,0
89.0,-964.0,-29.0,-592.0,110.0,-268.0,0
57.0,-916.0,-15.0,-405.0,138.0,-391.0,0
33.0,-842.0,-44.0,15.0,219.0,-412.0,0
-8.0,-750.0,-60.0,500.0,302.0,-419.0,0
-50.0,-653.0,-77.0,902.0,320.0,-428.0,0
-80.0,-567.0,-95.0,1160.0,243.0,-448.0,0
-96.0,-478.0,-106.0,1262.0,84.0,-482.0,0
-88.0,-407.0,-121.0,1234.0,-103.0,-509.0,0
-74.0,-352.0,-122.0,1120.0,-264.0,-489.0,0
-23.0,-317.0,-125.0,943.0,-365.0,-467.0,0
-39.0,-244.0,-133.0,837.0,-384.0,-479.0,0
-3.0,-212.0,-154.0,808.0,-265.0,-346.0,0
22.0,-182.0,-142.0,736.0,-143.0,-218.0,0
26.0,-150.0,-113.0,712.0,-51.0,-154.0,0
29.0,-131.0,-90.0,726.0,16.0,-105.0,0
43.0,-155.0,-83.0,739.0,70.0,-58.0,0
33.0,-105.0,-28.0,658.0,109.0,-75.0,0
21.0,-39.0,-16.0,741.0,137.0,-108.0,0
17.0,17.0,-6.0,902.0,158.0,-92.0,0
16.0,55.0,-17.0,1053.0,160.0,-59.0,0
16.0,113.0,-14.0,1117.0,148.0,-50.0,0
9.0,159.0,-13.0,1102.0,116.0,-60.0,0
7.0,181.0,-44.0,978.0,80.0,-73.0,0
10.0,179.0,-62.0,713.0,18.0,-73.0,0
13.0,164.0,-75.0,227.0,-44.0,-93.0,0
10.0,147.0,-61.0,-202.0,-89.0,-135.0,0
-7.0,129.0,-53.0,-525.0,-117.0,-168.0,0
-7.0,89.0,-54.0,-730.0,-107.0,-145.0,0
2.0,42.0,-53.0,-840.0,-79.0,-106.0,0
19.0,-23.0,-54.0,-867.0,-45.0,-79.0,0
18.0,-66.0,-44.0,-839.0,-18.0,-91.0,0
20.0,-88.0,-43.0,-719.0,1.0,-98.0,0
26.0,-93.0,-47.0,-521.0,22.0,-104.0,0
29.0,-83.0,-51.0,-299.0,57.0,-112.0,0
31.0,-66.0,-49.0,-102.0,114.0,-130.0,0
30.0,-48.0,-39.0,38.0,203.0,-142.0,0
21.0,-35.0,-26.0,116.0,276.0,-144.0,0
10.0,-28.0,-14.0,131.0,328.0,-133.0,0
2.0,-27.0,-2.0,120.0,354.0,-126.0,0
-6.0,-25.0,9.0,100.0,357.0,-117.0,0
-10.0,-30.0,12.0,86.0,347.0,-113.0,0
-12.0,-29.0,20.0,86.0,337.0,-100.0,0
-12.0,-22.0,23.0,100.0,324.0,-91.0,0
-13.0,-19.0,21.0,130.0,305.0,-74.0,0
-12.0,-8.0,22.0,161.0,285.0,-63.0,0
-12.0,3.0,14.0,186.0,265.0,-54.0,0
-12.0,20.0,11.0,198.0,256.0,-51.0,0
-13.0,36.0,7.0,194.0,265.0,-43.0,0
-15.0,44.0,4.0,166.0,290.0,-37.0,0
-22.0,54.0,6.0,126.0,322.0,-29.0,0
-28.0,57.0,14.0,69.0,358.0,-21.0,0
-33.0,52.0,15.0,-4.0,385.0,-13.0,0
-37.0,45.0,18.0,-81.0,394.0,-4.0,0
-34.0,38.0,15.0,-154.0,378.0,6.0,0
-36.0,29.0,8.0,-223.0,346.0,15.0,0
-21.0,25.0,1.0,-284.0,313.0,24.0,0
-17.0,18.0,-8.0,-332.0,286.0,33.0,0
-12.0,10.0,-12.0,-360.0,263.0,39.0,0
-5.0,3.0,-15.0,-368.0,247.0,43.0,0
-5.0,0.0,-21.0,-352.0,221.0,46.0,0
2.0,-1.0,-26.0,-313.0,194.0,53.0,0
3.0,-1.0,-33.0,-279.0,158.0,60.0,0
4.0,-3.0,-36.0,-252.0,118.0,67.0,0
7.0,-1.0,-48.0,-238.0,82.0,72.0,0
7.0,-1.0,-55.0,-232.0,51.0,78.0,0
7.0,1.0,-61.0,-227.0,29.0,80.0,0
6.0,-3.0,-64.0,-218.0,17.0,84.0,0
7.0,-3.0,-68.0,-200.0,11.0,88.0,0
9.0,-4.0,-66.0,-180.0,13.0,97.0,0
12.0,-15.0,-63.0,-153.0,12.0,105.0,0
22.0,-34.0,-59.0,-126.0,10.0,114.0,0
32.0,-45.0,-55.0,-119.0,17.0,109.0,0
34.0,-62.0,-49.0,-142.0,38.0,106.0,0
33.0,-84.0,-37.0,-187.0,64.0,106.0,0
33.0,-121.0,-26.0,-242.0,49.0,119.0,0
34.0,-146.0,-33.0,-326.0,6.0,133.0,0
22.0,-161.0,-72.0,-571.0,-34.0,143.0,0
7.0,-211.0,-139.0,-1072.0,-79.0,169.0,0
9.0,-318.0,-179.0,-1677.0,-155.0,202.0,0
4.0,-458.0,-199.0,-2133.0,-230.0,198.0,0
7.0,-596.0,-199.0,-2285.0,-211.0,198.0,0
22.0,-712.0,-133.0,-2074.0,-54.0,239.0,0
23.0,-849.0,-79.0,-1484.0,149.0,335.0,0
3.0,-1028.0,7.0,-1002.0,284.0,414.0,0
-3.0,-1098.0,89.0,-829.0,251.0,433.0,0
9.0,-1146.0,134.0,-578.0,101.0,359.0,0
-14.0,-857.0,215.0,168.0,-80.0,88.0,0
-11.0,-629.0,111.0,1702.0,-146.0,-108.0,0
20.0,-450.0,44.0,2803.0,-57.0,-93.0,0
8.0,-352.0,-26.0,2992.0,164.0,-86.0,0
-60.0,-240.0,43.0,2319.0,324.0,-177.0,0
-138.0,-273.0,9.0,1330.0,279.0,-282.0,0
-126.0,-356.0,35.0,207.0,84.0,-350.0,0
-138.0,-461.0,-55.0,-716.0,-194.0,-425.0,0
-69.0,-621.0,-200.0,-1583.0,-405.0,-445.0,0
-18.0,-814.0,-311.0,-2550.0,-581.0,-451.0,0
53.0,-986.0,-193.0,-2950.0,-558.0,-352.0,0
50.0,-1088.0,-67.0,-2345.0,-404.0,-202.0,0
74.0,-1143.0,91.0,-890.0,-177.0,7.0,0
95.0,-973.0,292.0,758.0,-45.0,215.0,0
96.0,-702.0,218.0,2553.0,41.0,323.0,0
91.0,-493.0,177.0,3719.0,301.0,350.0,0
46.0,-299.0,70.0,4004.0,562.0,346.0,0
13.0,-140.0,-5.0,3507.0,571.0,410.0,0
15.0,-32.0,-50.0,2611.0,351.0,449.0,0
42.0,31.0,-55.0,1656.0,58.0,411.0,0
66.0,82.0,-33.0,1007.0,-139.0,209.0,0
55.0,96.0,-36.0,619.0,-159.0,25.0,0
56.0,-40.0,-38.0,262.0,-22.0,40.0,0
40.0,-107.0,-6.0,-180.0,130.0,84.0,0
0.0,-177.0,23.0,-438.0,199.0,56.0,0
-18.0,-233.0,33.0,-484.0,183.0,50.0,0
-23.0,-274.0,32.0,-379.0,139.0,36.0,0
-32.0,-286.0,12.0,-207.0,109.0,18.0,0
-39.0,-282.0,3.0,-36.0,85.0,-1.0,0
-41.0,-265.0,-18.0,88.0,58.0,-7.0,0
-34.0,-243.0,-29.0,149.0,32.0,-9.0,0
-29.0,-211.0,-30.0,131.0,19.0,-11.0,0
-36.0,-185.0,-28.0,56.0,24.0,-20.0,0
-13.0,-161.0,-37.0,-60.0,37.0,-24.0,0
-10.0,-140.0,-45.0,-154.0,29.0,-29.0,0
-1.0,-128.0,-58.0,-240.0,-3.0,-25.0,0
6.0,-118.0,-66.0,-312.0,-40.0,-7.0,0
7.0,-111.0,-74.0,-373.0,-58.0,11.0,0
12.0,-107.0,-77.0,-426.0,-56.0,20.0,0
12.0,-108.0,-74.0,-478.0,-40.0,21.0,0
12.0,-115.0,-67.0,-524.0,-25.0,23.0,0
9.0,-125.0,-61.0,-566.0,-14.0,19.0,0
11.0,-139.0,-52.0,-594.0,-12.0,15.0,0
4.0,-155.0,-42.0,-603.0,-22.0,12.0,0
-1.0,-174.0,-33.0,-596.0,-56.0,17.0,0
-10.0,-193.0,-19.0,-576.0,-94.0,18.0,0
-12.0,-210.0,-15.0,-551.0,-143.0,24.0,0
-14.0,-228.0,-12.0,-511.0,-204.0,23.0,0
-12.0,-237.0,-3.0,-461.0,-263.0,25.0,0
-6.0,-247.0,0.0,-415.0,-310.0,23.0,0
-5.0,-260.0,7.0,-379.0,-338.0,29.0,0
-1.0,-279.0,9.0,-368.0,-348.0,26.0,0
1.0,-301.0,9.0,-381.0,-342.0,23.0,0
2.0,-330.0,11.0,-412.0,-334.0,12.0,0
0.0,-367.0,9.0,-451.0,-327.0,-1.0,0
7.0,-397.0,8.0,-473.0,-319.0,-21.0,0
10.0,-422.0,0.0,-445.0,-317.0,-36.0,0
13.0,-430.0,5.0,-328.0,-317.0,-43.0,0
19.0,-420.0,4.0,-153.0,-315.0,-40.0,0
24.0,-390.0,-6.0,89.0,-309.0,-24.0,0
21.0,-335.0,-8.0,342.0,-280.0,-4.0,0
20.0,-279.0,-9.0,549.0,-222.0,0.0,0
17.0,-224.0,-7.0,673.0,-167.0,0.0,0
13.0,-193.0,-6.0,689.0,-137.0,2.0,0
8.0,-184.0,0.0,599.0,-137.0,1.0,0
8.0,-193.0,8.0,453.0,-163.0,-5.0,0
8.0,-203.0,6.0,309.0,-197.0,-7.0,0
10.0,-219.0,5.0,207.0,-224.0,-2.0,0
10.0,-232.0,3.0,148.0,-244.0,4.0,0
6.0,-237.0,-3.0,139.0,-248.0,14.0,0
6.0,-237.0,-9.0,142.0,-242.0,18.0,0
11.0,-236.0,-10.0,146.0,-234.0,24.0,0
11.0,-229.0,-14.0,144.0,-229.0,23.0,0
9.0,-219.0,-16.0,131.0,-225.0,27.0,0
13.0,-217.0,-13.0,107.0,-223.0,27.0,0
4.0,-209.0,-16.0,73.0,-216.0,28.0,0
15.0,-210.0,-10.0,30.0,-209.0,26.0,0
16.0,-213.0,-6.0,-19.0,-201.0,26.0,0
14.0,-220.0,-6.0,-72.0,-195.0,24.0,0
16.0,-230.0,1.0,-121.0,-188.0,26.0,0
12.0,-239.0,-2.0,-164.0,-179.0,25.0,0
15.0,-250.0,5.0,-187.0,-173.0,30.0,0
14.0,-255.0,4.0,-192.0,-168.0,30.0,0
15.0,-260.0,6.0,-187.0,-162.0,34.0,0
13.0,-260.0,8.0,-179.0,-150.0,34.0,0
11.0,-260.0,10.0,-176.0,-137.0,35.0,0
8.0,-261.0,15.0,-178.0,-128.0,30.0,0
5.0,-261.0,16.0,-179.0,-119.0,29.0,0
8.0,-257.0,16.0,-185.0,-111.0,22.0,0
4.0,-257.0,15.0,-192.0,-102.0,22.0,0
5.0,-257.0,14.0,-202.0,-98.0,16.0,0
9.0,-257.0,12.0,-211.0,-97.0,11.0,0
6.0,-251.0,10.0,-217.0,-96.0,6.0,0
11.0,-251.0,7.0,-217.0,-91.0,2.0,0
10.0,-245.0,0.0,-214.0,-85.0,-2.0,0
9.0,-240.0,0.0,-216.0,-81.0,-3.0,0
12.0,-242.0,-10.0,-219.0,-74.0,-5.0,0
8.0,-240.0,-6.0,-228.0,-72.0,-6.0,0
8.0,-243.0,-13.0,-239.0,-75.0,-7.0,0
8.0,-244.0,-17.0,-245.0,-77.0,-10.0,0
7.0,-245.0,-19.0,-245.0,-78.0,-8.0,0
8.0,-252.0,-21.0,-240.0,-80.0,-9.0,0
8.0,-251.0,-22.0,-232.0,-86.0,-6.0,0
8.0,-251.0,-22.0,-223.0,-90.0,-6.0,0
6.0,-256.0,-21.0,-214.0,-95.0,-2.0,0
6.0,-255.0,-15.0,-208.0,-98.0,-3.0,0
2.0,-255.0,-18.0,-200.0,-101.0,1.0,0
-4.0,-258.0,-12.0,-193.0,-104.0,1.0,0
2.0,-260.0,-15.0,-187.0,-107.0,4.0,0
-1.0,-262.0,-12.0,-185.0,-109.0,6.0,0
-3.0,-262.0,-9.0,-183.0,-113.0,10.0,0
-1.0,-262.0,-15.0,-178.0,-112.0,10.0,0
0.0,-267.0,-11.0,-171.0,-111.0,11.0,0
0.0,-266.0,-15.0,-161.0,-112.0,9.0,0
0.0,-264.0,-15.0,-153.0,-111.0,12.0,0
1.0,-262.0,-17.0,-144.0,-112.0,14.0,0
4.0,-262.0,-21.0,-139.0,-114.0,19.0,0
8.0,-261.0,-20.0,-135.0,-118.0,22.0,0
6.0,-258.0,-20.0,-135.0,-120.0,29.0,0
7.0,-258.0,-17.0,-137.0,-123.0,31.0,0
5.0,-256.0,-23.0,-141.0,-124.0,37.0,0
6.0,-255.0,-19.0,-144.0,-124.0,39.0,0
2.0,-253.0,-20.0,-147.0,-126.0,43.0,0
3.0,-253.0,-21.0,-152.0,-130.0,44.0,0
3.0,-250.0,-26.0,-157.0,-133.0,48.0,0
5.0,-253.0,-25.0,-158.0,-133.0,45.0,0
5.0,-253.0,-25.0,-156.0,-132.0,46.0,0
9.0,-256.0,-22.0,-146.0,-127.0,45.0,0
9.0,-256.0,-22.0,-136.0,-122.0,45.0,0
9.0,-252.0,-18.0,-126.0,-116.0,43.0,0
14.0,-253.0,-22.0,-118.0,-110.0,42.0,0
14.0,-253.0,-16.0,-111.0,-103.0,42.0,0
16.0,-252.0,-16.0,-105.0,-94.0,41.0,0
16.0,-252.0,-18.0,-102.0,-89.0,40.0,0
14.0,-255.0,-16.0,-102.0,-84.0,40.0,0
15.0,-255.0,-13.0,-100.0,-80.0,38.0,0
14.0,-254.0,-19.0,-100.0,-75.0,36.0,0
9.0,-253.0,-18.0,-102.0,-71.0,37.0,0
10.0,-254.0,-20.0,-105.0,-68.0,35.0,0
13.0,-252.0,-19.0,-110.0,-65.0,37.0,0
8.0,-251.0,-20.0,-117.0,-61.0,33.0,0
9.0,-253.0,-22.0,-122.0,-53.0,35.0,0
8.0,-252.0,-22.0,-127.0,-45.0,33.0,0
7.0,-250.0,-23.0,-129.0,-39.0,35.0,0
7.0,-250.0,-25.0,-133.0,-33.0,32.0,0
8.0,-253.0,-24.0,-137.0,-26.0,33.0,0
4.0,-249.0,-28.0,-145.0,-17.0,31.0,0
4.0,-253.0,-23.0,-155.0,-9.0,32.0,0
3.0,-249.0,-27.0,-163.0,-6.0,27.0,0
4.0,-248.0,-30.0,-165.0,-13.0,29.0,0
1.0,-259.0,-34.0,-170.0,-13.0,27.0,0
-2.0,-256.0,-28.0,-193.0,4.0,7.0,0
-1.0,-255.0,-36.0,-191.0,3.0,7.0,0
13.0,-251.0,-33.0,-190.0,-4.0,-2.0,0
8.0,-249.0,-38.0,-192.0,-26.0,-3.0,0
10.0,-259.0,-39.0,-189.0,-6.0,5.0,0
-3.0,-259.0,-37.0,-198.0,30.0,3.0,0
-12.0,-264.0,-28.0,-201.0,57.0,0.0,0
3.0,-270.0,-14.0,-208.0,68.0,-10.0,0
-10.0,-261.0,-32.0,-194.0,33.0,-19.0,0
3.0,-261.0,-27.0,-181.0,11.0,-17.0,0
7.0,-268.0,-32.0,-165.0,27.0,-9.0,0
1.0,-259.0,-26.0,-149.0,67.0,-18.0,0
5.0,-261.0,-28.0,-137.0,71.0,-15.0,0
3.0,-261.0,-27.0,-131.0,63.0,-10.0,0
6.0,-266.0,-27.0,-124.0,60.0,-6.0,0
8.0,-267.0,-29.0,-111.0,64.0,1.0,0
4.0,-267.0,-28.0,-93.0,69.0,4.0,0
7.0,-264.0,-27.0,-73.0,73.0,7.0,0
13.0,-262.0,-33.0,-53.0,73.0,8.0,0
12.0,-259.0,-30.0,-38.0,79.0,7.0,0
14.0,-259.0,-28.0,-27.0,96.0,4.0,0
10.0,-257.0,-34.0,-23.0,115.0,0.0,0
3.0,-253.0,-27.0,-18.0,127.0,-8.0,0
0.0,-253.0,-30.0,-12.0,132.0,-12.0,0
5.0,-252.0,-29.0,-7.0,124.0,-20.0,0
4.0,-253.0,-30.0,-5.0,115.0,-21.0,0
5.0,-252.0,-32.0,-8.0,113.0,-28.0,0
5.0,-255.0,-30.0,-13.0,116.0,-27.0,0
5.0,-258.0,-31.0,-18.0,123.0,-32.0,0
5.0,-258.0,-27.0,-20.0,129.0,-31.0,0
4.0,-260.0,-30.0,-19.0,130.0,-34.0,0
2.0,-258.0,-28.0,-14.0,129.0,-33.0,0
0.0,-255.0,-25.0,-8.0,127.0,-37.0,0
4.0,-250.0,-43.0,-1.0,129.0,-35.0,0
-3.0,-253.0,-29.0,7.0,134.0,-38.0,0
-3.0,-254.0,-31.0,14.0,134.0,-36.0,0
-3.0,-255.0,-29.0,17.0,131.0,-37.0,0
-1.0,-254.0,-33.0,19.0,127.0,-35.0,0
-1.0,-250.0,-33.0,21.0,124.0,-34.0,0
0.0,-250.0,-29.0,25.0,119.0,-30.0,0
-4.0,-254.0,-32.0,26.0,114.0,-26.0,0
-5.0,-257.0,-32.0,18.0,121.0,-27.0,0
1.0,-257.0,-27.0,4.0,124.0,-34.0,0
-2.0,-254.0,-30.0,6.0,102.0,-33.0,0
1.0,-256.0,-33.0,9.0,87.0,-28.0,0
2.0,-257.0,-28.0,10.0,96.0,-30.0,0
-2.0,-254.0,-34.0,12.0,104.0,-26.0,0
0.0,-254.0,-27.0,6.0,110.0,-23.0,0
4.0,-250.0,-27.0,5.0,100.0,-22.0,0
5.0,-252.0,-35.0,-1.0,77.0,-26.0,0
5.0,-254.0,-35.0,-13.0,79.0,-20.0,0
5.0,-257.0,-31.0,-18.0,97.0,-18.0,0
2.0,-257.0,-32.0,-11.0,105.0,-10.0,0
6.0,-257.0,-31.0,-7.0,105.0,-12.0,0
7.0,-256.0,-33.0,-5.0,99.0,-6.0,0
9.0,-257.0,-30.0,-8.0,99.0,-5.0,0
9.0,-256.0,-31.0,-13.0,104.0,0.0,0
8.0,-254.0,-34.0,-14.0,107.0,2.0,0
14.0,-257.0,-32.0,-7.0,105.0,10.0,0
10.0,-256.0,-26.0,-4.0,106.0,6.0,0
10.0,-255.0,-30.0,-3.0,112.0,7.0,0
11.0,-255.0,-28.0,3.0,124.0,7.0,0
11.0,-258.0,-29.0,8.0,137.0,7.0,0
9.0,-256.0,-25.0,9.0,146.0,2.0,0
9.0,-251.0,-31.0,9.0,150.0,2.0,0
8.0,-253.0,-30.0,10.0,160.0,-3.0,0
8.0,-255.0,-27.0,11.0,167.0,-6.0,0
6.0,-256.0,-30.0,15.0,171.0,-12.0,0
10.0,-255.0,-24.0,19.0,177.0,-12.0,0
6.0,-255.0,-26.0,22.0,182.0,-16.0,0
7.0,-254.0,-29.0,26.0,185.0,-18.0,0
3.0,-251.0,-24.0,26.0,188.0,-21.0,0
4.0,-252.0,-24.0,24.0,192.0,-21.0,0
7.0,-256.0,-25.0,20.0,193.0,-22.0,0
6.0,-254.0,-24.0,17.0,196.0,-23.0,0
4.0,-257.0,-26.0,12.0,197.0,-24.0,0
6.0,-247.0,-21.0,9.0,201.0,-25.0,0
6.0,-256.0,-25.0,14.0,203.0,-23.0,0
2.0,-253.0,-27.0,11.0,204.0,-32.0,0
6.0,-257.0,-23.0,14.0,201.0,-28.0,0
1.0,-252.0,-22.0,17.0,202.0,-32.0,0
2.0,-255.0,-24.0,21.0,203.0,-30.0,0
0.0,-256.0,-20.0,21.0,201.0,-35.0,0
-1.0,-253.0,-22.0,20.0,195.0,-33.0,0
1.0,-255.0,-21.0,21.0,185.0,-35.0,0
-2.0,-254.0,-19.0,21.0,179.0,-32.0,0
-1.0,-252.0,-21.0,22.0,171.0,-31.0,0
-1.0,-253.0,-21.0,24.0,167.0,-28.0,0
-4.0,-254.0,-21.0,18.0,162.0,-32.0,0
-2.0,-254.0,-23.0,16.0,154.0,-29.0,0
-3.0,-251.0,-23.0,17.0,150.0,-29.0,0
0.0,-254.0,-22.0,16.0,145.0,-25.0,0
3.0,-255.0,-22.0,15.0,140.0,-26.0,0
3.0,-255.0,-22.0,15.0,135.0,-18.0,0
16.0,-259.0,-19.0,11.0,129.0,-19.0,0
12.0,-260.0,-19.0,-4.0,123.0,-7.0,0
4.0,-256.0,-20.0,-3.0,149.0,-3.0,0
17.0,-258.0,-20.0,4.0,160.0,-5.0,0
4.0,-248.0,-22.0,-1.0,129.0,-9.0,0
-1.0,-255.0,-21.0,-2.0,146.0,-2.0,0
1.0,-254.0,-21.0,11.0,154.0,-21.0,0
2.0,-255.0,-22.0,10.0,123.0,-18.0,0
4.0,-257.0,-22.0,8.0,105.0,-23.0,0
7.0,-260.0,-25.0,11.0,102.0,-17.0,0
9.0,-258.0,-26.0,11.0,109.0,-10.0,0
9.0,-257.0,-22.0,11.0,117.0,-8.0,0
9.0,-254.0,-26.0,13.0,120.0,-7.0,0
10.0,-255.0,-24.0,13.0,127.0,-6.0,0
8.0,-255.0,-20.0,11.0,137.0,-7.0,0
10.0,-256.0,-23.0,8.0,146.0,-13.0,0
8.0,-253.0,-22.0,12.0,146.0,-14.0,0
6.0,-253.0,-18.0,11.0,149.0,-15.0,0
4.0,-253.0,-22.0,9.0,150.0,-14.0,0
7.0,-255.0,-20.0,6.0,146.0,-16.0,0
7.0,-252.0,-22.0,4.0,137.0,-13.0,0
6.0,-257.0,-22.0,1.0,140.0,-13.0,0
12.0,-256.0,-21.0,-1.0,146.0,-12.0,0
5.0,-254.0,-21.0,3.0,146.0,-11.0,0
5.0,-254.0,-21.0,3.0,153.0,-9.0,0
5.0,-253.0,-23.0,3.0,155.0,-11.0,0
2.0,-251.0,-22.0,3.0,152.0,-7.0,0
6.0,-252.0,-22.0,1.0,151.0,-8.0,0
7.0,-252.0,-19.0,-2.0,151.0,-5.0,0
4.0,-255.0,-19.0,-6.0,153.0,-6.0,0
7.0,-254.0,-21.0,-13.0,156.0,-6.0,0
7.0,-256.0,-24.0,-15.0,155.0,-8.0,0
4.0,-255.0,-24.0,-15.0,153.0,-4.0,0
7.0,-256.0,-20.0,-14.0,153.0,-7.0,0
3.0,-251.0,-22.0,-13.0,154.0,-5.0,0
7.0,-255.0,-18.0,-14.0,156.0,-6.0,0
3.0,-255.0,-23.0,-17.0,157.0,-5.0,0
3.0,-253.0,-25.0,-18.0,157.0,-7.0,0
5.0,-255.0,-22.0,-18.0,157.0,-6.0,0
2.0,-255.0,-24.0,-20.0,155.0,-6.0,0
4.0,-257.0,-24.0,-20.0,155.0,-5.0,0
4.0,-255.0,-23.0,-20.0,152.0,-6.0,0
5.0,-257.0,-24.0,-23.0,151.0,-3.0,0
5.0,-256.0,-23.0,-25.0,147.0,-5.0,0
2.0,-257.0,-27.0,-23.0,143.0,-3.0,0
0.0,-257.0,-26.0,-22.0,141.0,-3.0,0
1.0,-255.0,-26.0,-19.0,137.0,-3.0,0
-2.0,-255.0,-27.0,-14.0,133.0,-2.0,0
2.0,-259.0,-25.0,-10.0,130.0,-3.0,0
-2.0,-253.0,-21.0,-9.0,128.0,-1.0,0
1.0,-253.0,-24.0,-7.0,127.0,-2.0,0
1.0,-254.0,-22.0,-6.0,123.0,0.0,0
2.0,-256.0,-22.0,-8.0,120.0,0.0,0
1.0,-253.0,-25.0,-9.0,117.0,1.0,0
3.0,-254.0,-22.0,-13.0,113.0,0.0,0
5.0,-258.0,-28.0,-13.0,110.0,0.0,0
0.0,-252.0,-26.0,-18.0,107.0,-3.0,0
3.0,-255.0,-27.0,-17.0,104.0,1.0,0
4.0,-255.0,-27.0,-16.0,103.0,-2.0,0
1.0,-253.0,-26.0,-16.0,98.0,1.0,0
1.0,-255.0,-28.0,-15.0,95.0,0.0,0
3.0,-256.0,-25.0,-14.0,94.0,2.0,0
3.0,-256.0,-25.0,-15.0,92.0,0.0,0
1.0,-252.0,-24.0,-16.0,90.0,2.0,0
5.0,-253.0,-25.0,-19.0,87.0,0.0,0
4.0,-254.0,-29.0,-22.0,85.0,2.0,0
4.0,-257.0,-24.0,-26.0,81.0,1.0,0
2.0,-252.0,-25.0,-29.0,81.0,3.0,0
4.0,-252.0,-26.0,-33.0,80.0,1.0,0
8.0,-249.0,-27.0,-35.0,80.0,4.0,0
8.0,-256.0,-28.0,-37.0,79.0,2.0,0
6.0,-253.0,-26.0,-37.0,80.0,3.0,0
6.0,-257.0,-25.0,-37.0,80.0,2.0,0
5.0,-254.0,-27.0,-40.0,81.0,3.0,0
5.0,-255.0,-24.0,-42.0,81.0,2.0,0
6.0,-254.0,-26.0,-41.0,81.0,4.0,0
8.0,-256.0,-28.0,-44.0,81.0,3.0,0
8.0,-253.0,-25.0,-44.0,79.0,4.0,0
8.0,-255.0,-28.0,-45.0,80.0,4.0,0
8.0,-251.0,-28.0,-44.0,81.0,3.0,0
9.0,-256.0,-24.0,-43.0,83.0,3.0,0
6.0,-255.0,-25.0,-43.0,83.0,4.0,0
6.0,-256.0,-29.0,-42.0,82.0,6.0,0
5.0,-256.0,-28.0,-43.0,82.0,3.0,0
8.0,-256.0,-24.0,-48.0,82.0,5.0,0
9.0,-255.0,-26.0,-50.0,83.0,4.0,0
8.0,-255.0,-26.0,-51.0,84.0,6.0,0
8.0,-256.0,-26.0,-51.0,88.0,3.0,0
7.0,-257.0,-29.0,-50.0,91.0,6.0,0
5.0,-254.0,-28.0,-48.0,94.0,4.0,0
7.0,-256.0,-20.0,-48.0,94.0,5.0,0
3.0,-256.0,-29.0,-47.0,97.0,3.0,0
7.0,-257.0,-28.0,-46.0,100.0,5.0,0
7.0,-255.0,-27.0,-47.0,102.0,2.0,0
5.0,-255.0,-25.0,-46.0,103.0,5.0,0
3.0,-256.0,-28.0,-43.0,103.0,3.0,0
4.0,-256.0,-28.0,-43.0,103.0,4.0,0
4.0,-254.0,-29.0,-40.0,104.0,0.0,0
2.0,-254.0,-27.0,-36.0,104.0,4.0,0
2.0,-254.0,-28.0,-35.0,103.0,2.0,0
-1.0,-254.0,-27.0,-36.0,100.0,3.0,0
3.0,-254.0,-26.0,-38.0,96.0,1.0,0
1.0,-253.0,-26.0,-40.0,94.0,2.0,0
-2.0,-256.0,-24.0,-39.0,91.0,-1.0,0
1.0,-256.0,-27.0,-38.0,90.0,-1.0,0
-3.0,-256.0,-28.0,-36.0,89.0,-2.0,0
0.0,-256.0,-28.0,-32.0,85.0,-3.0,0
1.0,-258.0,-31.0,-35.0,80.0,-3.0,0
1.0,-257.0,-31.0,-36.0,76.0,-1.0,0
-1.0,-258.0,-28.0,-38.0,74.0,0.0,0
-3.0,-254.0,-28.0,-36.0,70.0,1.0,0
-1.0,-254.0,-27.0,-35.0,64.0,1.0,0
1.0,-253.0,-33.0,-35.0,51.0,1.0,0
-6.0,-257.0,-36.0,-40.0,40.0,4.0,0
-1.0,-254.0,-30.0,-40.0,40.0,3.0,0
0.0,-254.0,-29.0,-41.0,35.0,4.0,0
1.0,-254.0,-31.0,-42.0,28.0,3.0,0
3.0,-255.0,-26.0,-41.0,28.0,5.0,0
-3.0,-253.0,-32.0,-39.0,29.0,2.0,0
-1.0,-257.0,-27.0,-38.0,29.0,3.0,0
-2.0,-255.0,-31.0,-37.0,25.0,1.0,0
1.0,-258.0,-27.0,-38.0,20.0,3.0,0
-1.0,-258.0,-32.0,-34.0,15.0,0.0,0
0.0,-256.0,-29.0,-29.0,11.0,1.0,0
-3.0,-256.0,-31.0,-24.0,7.0,-1.0,0
-1.0,-257.0,-31.0,-18.0,2.0,1.0,0
1.0,-258.0,-28.0,-15.0,-3.0,-3.0,0
-1.0,-255.0,-28.0,-12.0,-7.0,1.0,0
4.0,-255.0,-31.0,-9.0,-8.0,-2.0,0
3.0,-256.0,-36.0,-6.0,-11.0,0.0,0
0.0,-255.0,-27.0,-6.0,-11.0,-2.0,0
1.0,-257.0,-35.0,-4.0,-12.0,0.0,0
0.0,-253.0,-34.0,-2.0,-13.0,-4.0,0
0.0,-257.0,-31.0,-1.0,-14.0,-1.0,0
3.0,-255.0,-23.0,-2.0,-16.0,-3.0,0
-1.0,-254.0,-32.0,-2.0,-19.0,-1.0,0
0.0,-257.0,-29.0,-2.0,-21.0,-2.0,0
2.0,-256.0,-30.0,-1.0,-22.0,-2.0,0
1.0,-256.0,-27.0,1.0,-25.0,-2.0,0
1.0,-253.0,-32.0,0.0,-26.0,-1.0,0
1.0,-253.0,-30.0,2.0,-24.0,-2.0,0
2.0,-256.0,-29.0,2.0,-26.0,-2.0,0
-3.0,-255.0,-29.0,2.0,-24.0,-4.0,0
0.0,-256.0,-30.0,3.0,-23.0,-3.0,0
2.0,-254.0,-31.0,4.0,-23.0,-2.0,0
4.0,-257.0,-36.0,5.0,-21.0,-3.0,0
2.0,-253.0,-33.0,5.0,-20.0,-4.0,0
2.0,-259.0,-31.0,7.0,-19.0,-6.0,0
2.0,-259.0,-32.0,10.0,-18.0,-4.0,0
2.0,-256.0,-32.0,14.0,-14.0,-4.0,0
5.0,-257.0,-30.0,17.0,-15.0,-3.0,0
3.0,-258.0,-34.0,22.0,-15.0,-5.0,0
2.0,-256.0,-35.0,26.0,-14.0,-3.0,0
5.0,-258.0,-29.0,27.0,-12.0,-7.0,0
4.0,-255.0,-29.0,29.0,-11.0,-4.0,0
3.0,-255.0,-30.0,30.0,-9.0,-7.0,0
4.0,-258.0,-26.0,30.0,-9.0,-5.0,0
2.0,-254.0,-31.0,32.0,-7.0,-9.0,0
2.0,-257.0,-26.0,32.0,-5.0,-7.0,0
3.0,-256.0,-27.0,33.0,-4.0,-11.0,0
5.0,-257.0,-27.0,35.0,0.0,-9.0,0
6.0,-258.0,-25.0,37.0,5.0,-13.0,0
3.0,-258.0,-30.0,40.0,8.0,-10.0,0
7.0,-260.0,-21.0,46.0,13.0,-14.0,0
6.0,-258.0,-27.0,50.0,17.0,-12.0,0
7.0,-255.0,-26.0,55.0,26.0,-14.0,0
7.0,-259.0,-26.0,59.0,35.0,-11.0,0
4.0,-258.0,-25.0,61.0,42.0,-12.0,0
2.0,-256.0,-27.0,61.0,46.0,-11.0,0
4.0,-256.0,-21.0,62.0,47.0,-13.0,0
2.0,-255.0,-25.0,63.0,47.0,-12.0,0
0.0,-256.0,-25.0,65.0,50.0,-14.0,0
2.0,-255.0,-26.0,65.0,53.0,-13.0,0
3.0,-257.0,-28.0,66.0,52.0,-15.0,0
2.0,-255.0,-23.0,69.0,54.0,-16.0,0
3.0,-253.0,-24.0,68.0,56.0,-14.0,0
3.0,-253.0,-25.0,65.0,56.0,-15.0,0
7.0,-254.0,-26.0,64.0,57.0,-14.0,0
-2.0,-255.0,-22.0,59.0,53.0,-15.0,0
6.0,-253.0,-24.0,56.0,51.0,-15.0,0
4.0,-255.0,-24.0,51.0,53.0,-16.0,0
5.0,-254.0,-24.0,46.0,56.0,-14.0,0
5.0,-252.0,-20.0,41.0,60.0,-15.0,0
5.0,-253.0,-21.0,37.0,62.0,-14.0,0
3.0,-253.0,-25.0,34.0,62.0,-15.0,0
4.0,-254.0,-21.0,30.0,62.0,-13.0,0
4.0,-251.0,-23.0,27.0,63.0,-15.0,0
4.0,-252.0,-24.0,25.0,63.0,-11.0,0
3.0,-256.0,-22.0,23.0,63.0,-11.0,0
2.0,-252.0,-23.0,21.0,61.0,-9.0,0
7.0,-253.0,-20.0,19.0,62.0,-10.0,0
6.0,-253.0,-21.0,16.0,61.0,-7.0,0
5.0,-253.0,-23.0,14.0,62.0,-8.0,0
4.0,-254.0,-27.0,12.0,60.0,-6.0,0
5.0,-254.0,-24.0,9.0,62.0,-9.0,0
3.0,-252.0,-24.0,7.0,62.0,-6.0,0
3.0,-253.0,-21.0,6.0,64.0,-8.0,0
2.0,-252.0,-22.0,3.0,65.0,-9.0,0
2.0,-254.0,-25.0,-1.0,65.0,-12.0,0
1.0,-256.0,-20.0,-4.0,65.0,-12.0,0
3.0,-254.0,-20.0,-5.0,61.0,-12.0,0
2.0,-256.0,-22.0,-5.0,58.0,-12.0,0
-1.0,-257.0,-21.0,-6.0,56.0,-13.0,0
4.0,-253.0,-26.0,-6.0,54.0,-12.0,0
6.0,-258.0,-23.0,-5.0,52.0,-11.0,0
1.0,-253.0,-18.0,-6.0,52.0,-10.0,0
1.0,-254.0,-20.0,-8.0,53.0,-10.0,0
3.0,-256.0,-20.0,-9.0,52.0,-9.0,0
3.0,-252.0,-20.0,-11.0,49.0,-10.0,0
2.0,-253.0,-25.0,-16.0,46.0,-9.0,0
5.0,-255.0,-15.0,-23.0,45.0,-8.0,0
4.0,-254.0,-20.0,-27.0,44.0,-8.0,0
4.0,-254.0,-21.0,-30.0,44.0,-4.0,0
6.0,-259.0,-22.0,-28.0,44.0,-7.0,0
5.0,-255.0,-21.0,-26.0,42.0,-6.0,0
6.0,-257.0,-21.0,-24.0,43.0,-7.0,0
2.0,-254.0,-21.0,-23.0,42.0,-5.0,0
4.0,-253.0,-23.0,-23.0,43.0,-8.0,0
3.0,-253.0,-23.0,-24.0,43.0,-6.0,0
4.0,-252.0,-21.0,-26.0,42.0,-8.0,0
3.0,-256.0,-22.0,-26.0,39.0,-5.0,0
5.0,-255.0,-21.0,-26.0,38.0,-8.0,0
1.0,-256.0,-21.0,-27.0,37.0,-6.0,0
2.0,-255.0,-20.0,-28.0,36.0,-9.0,0
5.0,-254.0,-20.0,-31.0,37.0,-6.0,0
6.0,-258.0,-21.0,-30.0,38.0,-8.0,0
5.0,-255.0,-21.0,-30.0,40.0,-7.0,0
5.0,-255.0,-20.0,-28.0,41.0,-9.0,0
6.0,-255.0,-20.0,-26.0,43.0,-7.0,0
4.0,-256.0,-21.0,-25.0,41.0,-9.0,0
6.0,-255.0,-19.0,-25.0,43.0,-6.0,0
4.0,-252.0,-18.0,-27.0,43.0,-8.0,0
5.0,-253.0,-20.0,-28.0,44.0,-7.0,0
6.0,-251.0,-24.0,-31.0,45.0,-7.0,0
3.0,-254.0,-24.0,-34.0,46.0,-7.0,0
5.0,-258.0,-24.0,-37.0,46.0,-7.0,0
7.0,-257.0,-23.0,-38.0,48.0,-8.0,0
8.0,-258.0,-24.0,-38.0,49.0,-6.0,0
7.0,-256.0,-23.0,-37.0,52.0,-6.0,0
4.0,-254.0,-22.0,-36.0,54.0,-5.0,0
6.0,-255.0,-19.0,-35.0,58.0,-5.0,0
6.0,-258.0,-22.0,-33.0,59.0,-6.0,0
4.0,-254.0,-20.0,-35.0,61.0,-6.0,0
5.0,-255.0,-23.0,-35.0,60.0,-5.0,0
6.0,-254.0,-23.0,-37.0,61.0,-6.0,0
5.0,-254.0,-28.0,-35.0,63.0,-5.0,0
4.0,-252.0,-24.0,-32.0,66.0,-8.0,0
6.0,-252.0,-19.0,-29.0,69.0,-4.0,0
6.0,-254.0,-22.0,-30.0,69.0,-7.0,0
6.0,-253.0,-21.0,-34.0,67.0,-5.0,0
6.0,-257.0,-19.0,-39.0,66.0,-6.0,0
6.0,-254.0,-23.0,-42.0,62.0,-4.0,0
4.0,-254.0,-21.0,-41.0,61.0,-5.0,0
4.0,-253.0,-15.0,-40.0,61.0,-2.0,0
7.0,-254.0,-19.0,-40.0,61.0,-5.0,0
4.0,-256.0,-23.0,-40.0,61.0,-1.0,0
8.0,-252.0,-21.0,-42.0,62.0,-3.0,0
5.0,-254.0,-19.0,-48.0,62.0,-2.0,0
3.0,-252.0,-19.0,-50.0,61.0,-3.0,0
5.0,-255.0,-21.0,-54.0,61.0,-1.0,0
7.0,-252.0,-26.0,-53.0,60.0,-3.0,0
3.0,-254.0,-21.0,-52.0,60.0,-1.0,0
5.0,-255.0,-26.0,-50.0,59.0,-1.0,0
6.0,-256.0,-22.0,-50.0,60.0,0.0,0
5.0,-257.0,-25.0,-49.0,59.0,-1.0,0
6.0,-257.0,-17.0,-47.0,57.0,1.0,0
4.0,-255.0,-20.0,-46.0,58.0,0.0,0
5.0,-253.0,-22.0,-45.0,58.0,2.0,0
5.0,-253.0,-22.0,-46.0,59.0,2.0,0
4.0,-256.0,-26.0,-49.0,60.0,1.0,0
4.0,-254.0,-25.0,-47.0,59.0,3.0,0
8.0,-257.0,-22.0,-46.0,60.0,2.0,0
5.0,-255.0,-24.0,-45.0,60.0,1.0,0
3.0,-253.0,-27.0,-42.0,59.0,0.0,0
8.0,-255.0,-26.0,-39.0,59.0,0.0,0
4.0,-258.0,-26.0,-37.0,60.0,0.0,0
8.0,-257.0,-24.0,-35.0,61.0,0.0,0
5.0,-254.0,-20.0,-34.0,61.0,-2.0,0
6.0,-258.0,-22.0,-32.0,63.0,0.0,0
5.0,-255.0,-21.0,-31.0,64.0,-2.0,0
7.0,-253.0,-27.0,-31.0,62.0,2.0,0
6.0,-254.0,-23.0,-33.0,60.0,-1.0,0
6.0,-253.0,-25.0,-35.0,59.0,3.0,0
5.0,-253.0,-27.0,-36.0,59.0,2.0,0
4.0,-254.0,-23.0,-36.0,59.0,4.0,0
3.0,-253.0,-20.0,-37.0,60.0,2.0,0
6.0,-252.0,-24.0,-36.0,60.0,5.0,0
6.0,-251.0,-22.0,-37.0,58.0,4.0,0
6.0,-257.0,-25.0,-38.0,55.0,6.0,0
0.0,-256.0,-28.0,-36.0,53.0,4.0,0
4.0,-257.0,-25.0,-33.0,53.0,6.0,0
4.0,-256.0,-29.0,-32.0,55.0,4.0,0
4.0,-253.0,-28.0,-29.0,56.0,7.0,0
5.0,-257.0,-27.0,-29.0,56.0,6.0,0
1.0,-253.0,-26.0,-29.0,54.0,7.0,0
6.0,-254.0,-27.0,-29.0,55.0,6.0,0
1.0,-254.0,-24.0,-31.0,54.0,7.0,0
4.0,-256.0,-26.0,-34.0,56.0,5.0,0
4.0,-256.0,-27.0,-33.0,54.0,6.0,0
5.0,-257.0,-29.0,-32.0,56.0,6.0,0
5.0,-255.0,-29.0,-32.0,57.0,5.0,0
5.0,-259.0,-27.0,-31.0,59.0,3.0,0
4.0,-255.0,-28.0,-30.0,63.0,2.0,0
4.0,-253.0,-29.0,-31.0,64.0,2.0,0
4.0,-258.0,-25.0,-31.0,65.0,1.0,0
4.0,-255.0,-27.0,-32.0,65.0,3.0,0
2.0,-255.0,-28.0,-32.0,64.0,2.0,0
5.0,-255.0,-28.0,-32.0,64.0,3.0,0
3.0,-253.0,-25.0,-34.0,65.0,0.0,0
1.0,-254.0,-29.0,-34.0,68.0,3.0,0
3.0,-255.0,-27.0,-34.0,69.0,1.0,0
3.0,-253.0,-24.0,-36.0,69.0,3.0,0
3.0,-256.0,-29.0,-35.0,70.0,2.0,0
1.0,-251.0,-29.0,-36.0,72.0,3.0,0
2.0,-253.0,-26.0,-35.0,75.0,1.0,0
2.0,-255.0,-28.0,-35.0,78.0,2.0,0
1.0,-254.0,-29.0,-35.0,78.0,0.0,0
2.0,-256.0,-27.0,-35.0,81.0,3.0,0
2.0,-254.0,-29.0,-33.0,82.0,0.0,0
2.0,-254.0,-28.0,-32.0,83.0,3.0,0
3.0,-255.0,-28.0,-30.0,86.0,-2.0,0
2.0,-255.0,-28.0,-31.0,86.0,0.0,0
0.0,-257.0,-28.0,-30.0,89.0,-2.0,0
1.0,-253.0,-27.0,-28.0,91.0,1.0,0
2.0,-254.0,-25.0,-28.0,91.0,-2.0,0
3.0,-253.0,-27.0,-28.0,94.0,-2.0,0
2.0,-257.0,-29.0,-27.0,96.0,-3.0,0
2.0,-259.0,-31.0,-28.0,98.0,-3.0,0
4.0,-255.0,-26.0,-26.0,100.0,-5.0,0
3.0,-257.0,-29.0,-23.0,100.0,-6.0,0
3.0,-256.0,-27.0,-21.0,103.0,-5.0,0
-4.0,-256.0,-30.0,-20.0,105.0,-5.0,0
2.0,-254.0,-29.0,-19.0,105.0,-6.0,0
4.0,-255.0,-23.0,-17.0,108.0,-6.0,0
4.0,-255.0,-26.0,-17.0,109.0,-6.0,0
3.0,-256.0,-31.0,-17.0,111.0,-6.0,0
2.0,-256.0,-30.0,-16.0,113.0,-6.0,0
5.0,-258.0,-26.0,-16.0,113.0,-7.0,0
3.0,-253.0,-31.0,-14.0,115.0,-6.0,0
3.0,-257.0,-29.0,-14.0,118.0,-7.0,0
4.0,-256.0,-27.0,-14.0,119.0,-6.0,0
3.0,-253.0,-27.0,-15.0,121.0,-9.0,0
3.0,-254.0,-28.0,-15.0,122.0,-5.0,0
0.0,-255.0,-27.0,-15.0,123.0,-8.0,0
1.0,-255.0,-26.0,-14.0,123.0,-7.0,0
0.0,-255.0,-25.0,-13.0,124.0,-10.0,0
2.0,-255.0,-27.0,-14.0,125.0,-8.0,0
4.0,-254.0,-30.0,-15.0,125.0,-10.0,0
2.0,-254.0,-30.0,-17.0,126.0,-9.0,0
4.0,-257.0,-28.0,-17.0,126.0,-12.0,0
2.0,-255.0,-25.0,-15.0,126.0,-9.0,0
3.0,-258.0,-24.0,-14.0,126.0,-13.0,0
5.0,-256.0,-33.0,-15.0,127.0,-10.0,0
2.0,-255.0,-26.0,-13.0,126.0,-12.0,0
3.0,-258.0,-24.0,-14.0,125.0,-9.0,0
3.0,-256.0,-29.0,-16.0,125.0,-11.0,0
0.0,-254.0,-23.0,-16.0,125.0,-9.0,0
2.0,-254.0,-30.0,-15.0,125.0,-12.0,0
0.0,-253.0,-24.0,-14.0,125.0,-9.0,0
-2.0,-253.0,-27.0,-13.0,124.0,-9.0,0
4.0,-256.0,-27.0,-13.0,123.0,-8.0,0
3.0,-254.0,-28.0,-14.0,123.0,-10.0,0
-1.0,-249.0,-26.0,-14.0,124.0,-9.0,0
2.0,-253.0,-27.0,-13.0,123.0,-10.0,0
3.0,-255.0,-22.0,-14.0,123.0,-10.0,0
2.0,-255.0,-23.0,-15.0,123.0,-11.0,0
2.0,-255.0,-27.0,-15.0,123.0,-10.0,0
2.0,-256.0,-26.0,-15.0,121.0,-12.0,0
3.0,-255.0,-26.0,-15.0,119.0,-12.0,0
2.0,-256.0,-31.0,-13.0,118.0,-11.0,0
4.0,-257.0,-24.0,-14.0,117.0,-12.0,0
3.0,-257.0,-30.0,-14.0,116.0,-11.0,0
1.0,-255.0,-28.0,-15.0,114.0,-13.0,0
3.0,-256.0,-22.0,-16.0,111.0,-11.0,0
5.0,-256.0,-30.0,-15.0,111.0,-13.0,0
2.0,-254.0,-26.0,-14.0,109.0,-11.0,0
0.0,-257.0,-27.0,-14.0,108.0,-13.0,0
4.0,-255.0,-25.0,-13.0,107.0,-13.0,0
4.0,-254.0,-24.0,-16.0,104.0,-12.0,0
3.0,-256.0,-29.0,-16.0,102.0,-11.0,0
3.0,-256.0,-26.0,-16.0,98.0,-12.0,0
1.0,-257.0,-30.0,-16.0,97.0,-9.0,0
1.0,-256.0,-26.0,-15.0,95.0,-12.0,0
3.0,-255.0,-24.0,-13.0,92.0,-8.0,0
3.0,-258.0,-25.0,-14.0,91.0,-11.0,0
4.0,-256.0,-25.0,-12.0,87.0,-8.0,0
1.0,-255.0,-28.0,-12.0,86.0,-9.0,0
0.0,-253.0,-26.0,-10.0,85.0,-8.0,0
2.0,-255.0,-23.0,-7.0,83.0,-10.0,0
1.0,-254.0,-28.0,-5.0,80.0,-9.0,0
1.0,-252.0,-31.0,-1.0,79.0,-10.0,0
-1.0,-254.0,-25.0,3.0,78.0,-8.0,0
2.0,-251.0,-27.0,2.0,78.0,-10.0,0
5.0,-255.0,-21.0,-4.0,74.0,-8.0,0
4.0,-255.0,-24.0,-7.0,70.0,-9.0,0
4.0,-257.0,-26.0,-8.0,67.0,-8.0,0
5.0,-256.0,-24.0,-7.0,64.0,-7.0,0
3.0,-252.0,-26.0,-8.0,61.0,-8.0,0
0.0,-251.0,-22.0,-8.0,57.0,-6.0,0
2.0,-255.0,-24.0,-8.0,54.0,-8.0,0
1.0,-254.0,-26.0,-8.0,52.0,-6.0,0
2.0,-255.0,-25.0,-9.0,50.0,-7.0,0
1.0,-254.0,-26.0,-9.0,46.0,-5.0,0
4.0,-253.0,-25.0,-12.0,45.0,-7.0,0
3.0,-253.0,-23.0,-15.0,43.0,-5.0,0
0.0,-256.0,-22.0,-17.0,40.0,-6.0,0
4.0,-255.0,-25.0,-18.0,37.0,-5.0,0
4.0,-257.0,-25.0,-17.0,34.0,-7.0,0
2.0,-254.0,-22.0,-16.0,34.0,-3.0,0
5.0,-256.0,-26.0,-14.0,33.0,-7.0,0
4.0,-258.0,-25.0,-11.0,32.0,-3.0,0
2.0,-257.0,-23.0,-9.0,31.0,-5.0,0
2.0,-255.0,-22.0,-8.0,31.0,-3.0,0
6.0,-255.0,-26.0,-7.0,29.0,-6.0,0
5.0,-258.0,-20.0,-8.0,29.0,-2.0,0
5.0,-258.0,-23.0,-7.0,28.0,-5.0,0
4.0,-253.0,-24.0,-6.0,27.0,-3.0,0
4.0,-255.0,-23.0,-7.0,27.0,-5.0,0
4.0,-257.0,-30.0,-7.0,27.0,-3.0,0
6.0,-257.0,-24.0,-4.0,26.0,-6.0,0
2.0,-254.0,-23.0,-3.0,26.0,-4.0,0
2.0,-254.0,-24.0,-3.0,23.0,-5.0,0
4.0,-255.0,-24.0,-3.0,22.0,-5.0,0
5.0,-254.0,-27.0,-5.0,22.0,-5.0,0
6.0,-254.0,-22.0,-6.0,21.0,-5.0,0
4.0,-252.0,-26.0,-8.0,22.0,-5.0,0
2.0,-253.0,-23.0,-11.0,22.0,-4.0,0
4.0,-256.0,-22.0,-12.0,21.0,-5.0,0
7.0,-254.0,-25.0,-13.0,19.0,-3.0,0
2.0,-253.0,-25.0,-15.0,20.0,-4.0,0
5.0,-253.0,-26.0,-17.0,19.0,-4.0,0
3.0,-255.0,-22.0,-19.0,18.0,-2.0,0
3.0,-253.0,-22.0,-19.0,18.0,-3.0,0
3.0,-254.0,-24.0,-19.0,19.0,-1.0,0
2.0,-255.0,-26.0,-17.0,19.0,-2.0,0
4.0,-253.0,-27.0,-16.0,19.0,0.0,0
4.0,-254.0,-29.0,-16.0,18.0,-1.0,0
6.0,-257.0,-26.0,-17.0,18.0,1.0,0
7.0,-255.0,-21.0,-18.0,18.0,-2.0,0
3.0,-253.0,-24.0,-21.0,18.0,-1.0,0
3.0,-253.0,-25.0,-21.0,20.0,-3.0,0
3.0,-258.0,-23.0,-19.0,21.0,-1.0,0
5.0,-253.0,-24.0,-20.0,21.0,-4.0,0
5.0,-256.0,-26.0,-18.0,21.0,-1.0,0
6.0,-257.0,-25.0,-20.0,23.0,-4.0,0
5.0,-256.0,-24.0,-21.0,23.0,-2.0,0
1.0,-254.0,-24.0,-20.0,23.0,-4.0,0
5.0,-256.0,-24.0,-20.0,23.0,-2.0,0
3.0,-251.0,-25.0,-21.0,23.0,-3.0,0
7.0,-255.0,-25.0,-20.0,22.0,-2.0,0
4.0,-256.0,-25.0,-21.0,22.0,-3.0,0
4.0,-254.0,-29.0,-23.0,23.0,-1.0,0
3.0,-256.0,-27.0,-22.0,23.0,-3.0,0
5.0,-257.0,-28.0,-22.0,24.0,-2.0,0
5.0,-255.0,-30.0,-23.0,25.0,-3.0,0
4.0,-256.0,-30.0,-22.0,26.0,0.0,0
6.0,-256.0,-28.0,-21.0,28.0,-1.0,0
2.0,-255.0,-29.0,-20.0,30.0,-2.0,0
3.0,-253.0,-27.0,-21.0,30.0,-1.0,0
4.0,-253.0,-27.0,-21.0,28.0,0.0,0
5.0,-255.0,-25.0,-19.0,30.0,-1.0,0
8.0,-251.0,-25.0,-19.0,30.0,-1.0,0
4.0,-255.0,-26.0,-16.0,30.0,-1.0,0
5.0,-259.0,-25.0,-12.0,29.0,0.0,0
7.0,-257.0,-27.0,-8.0,32.0,0.0,0
5.0,-258.0,-25.0,-3.0,36.0,-1.0,0
2.0,-255.0,-25.0,2.0,38.0,1.0,0
4.0,-257.0,-29.0,6.0,38.0,-2.0,0
4.0,-257.0,-27.0,12.0,41.0,1.0,0
6.0,-256.0,-30.0,18.0,45.0,-1.0,0
5.0,-256.0,-26.0,22.0,48.0,1.0,0
5.0,-255.0,-25.0,24.0,52.0,-1.0,0
4.0,-253.0,-25.0,24.0,55.0,1.0,0
3.0,-256.0,-23.0,25.0,57.0,-1.0,0
5.0,-256.0,-23.0,26.0,59.0,2.0,0
5.0,-257.0,-23.0,31.0,62.0,0.0,0
6.0,-258.0,-22.0,34.0,63.0,2.0,0
4.0,-256.0,-22.0,41.0,64.0,-1.0,0
5.0,-258.0,-25.0,46.0,66.0,0.0,0
4.0,-256.0,-25.0,48.0,69.0,-2.0,0
6.0,-258.0,-23.0,48.0,72.0,0.0,0
7.0,-254.0,-27.0,48.0,75.0,-4.0,0
3.0,-254.0,-26.0,48.0,75.0,-1.0,0
6.0,-252.0,-19.0,47.0,76.0,-3.0,0
4.0,-255.0,-24.0,44.0,74.0,-2.0,0
5.0,-254.0,-18.0,43.0,75.0,-4.0,0
6.0,-252.0,-25.0,40.0,75.0,-1.0,0
4.0,-253.0,-25.0,36.0,76.0,-3.0,0
7.0,-255.0,-24.0,33.0,75.0,-3.0,0
4.0,-253.0,-24.0,29.0,76.0,-4.0,0
3.0,-256.0,-24.0,27.0,78.0,-3.0,0
3.0,-255.0,-24.0,23.0,81.0,-3.0,0
2.0,-255.0,-27.0,20.0,84.0,-4.0,0
7.0,-257.0,-24.0,20.0,84.0,-4.0,0
4.0,-253.0,-22.0,19.0,85.0,-5.0,0
4.0,-257.0,-24.0,18.0,84.0,-5.0,0
3.0,-255.0,-21.0,16.0,86.0,-5.0,0
2.0,-252.0,-23.0,14.0,88.0,-4.0,0
4.0,-254.0,-24.0,10.0,87.0,-5.0,0
5.0,-255.0,-26.0,5.0,87.0,-6.0,0
5.0,-255.0,-24.0,1.0,87.0,-8.0,0
5.0,-252.0,-23.0,0.0,87.0,-5.0,0
5.0,-253.0,-24.0,-4.0,87.0,-6.0,0
3.0,-253.0,-21.0,-4.0,87.0,-5.0,0
3.0,-254.0,-25.0,-6.0,90.0,-7.0,0
3.0,-254.0,-21.0,-9.0,92.0,-4.0,0
6.0,-254.0,-21.0,-12.0,94.0,-8.0,0
3.0,-254.0,-23.0,-13.0,93.0,-5.0,0
5.0,-257.0,-22.0,-13.0,94.0,-8.0,0
3.0,-254.0,-22.0,-14.0,95.0,-6.0,0
5.0,-252.0,-26.0,-15.0,94.0,-8.0,0
3.0,-255.0,-27.0,-16.0,96.0,-6.0,0
5.0,-256.0,-22.0,-20.0,95.0,-7.0,0
6.0,-255.0,-22.0,-22.0,96.0,-6.0,0
4.0,-255.0,-23.0,-24.0,98.0,-8.0,0
3.0,-257.0,-25.0,-26.0,100.0,-6.0,0
8.0,-256.0,-23.0,-26.0,101.0,-7.0,0
8.0,-258.0,-26.0,-26.0,102.0,-6.0,0
6.0,-256.0,-26.0,-26.0,101.0,-7.0,0
6.0,-258.0,-24.0,-24.0,102.0,-5.0,0
5.0,-255.0,-25.0,-23.0,103.0,-7.0,0
2.0,-254.0,-27.0,-22.0,102.0,-5.0,0
4.0,-253.0,-24.0,-21.0,104.0,-6.0,0
3.0,-257.0,-25.0,-22.0,105.0,-6.0,0
5.0,-258.0,-25.0,-22.0,104.0,-6.0,0
2.0,-255.0,-23.0,-24.0,105.0,-7.0,0
6.0,-259.0,-29.0,-25.0,107.0,-7.0,0
4.0,-257.0,-25.0,-26.0,108.0,-8.0,0
6.0,-258.0,-24.0,-24.0,111.0,-7.0,0
6.0,-258.0,-25.0,-23.0,109.0,-8.0,0
3.0,-254.0,-23.0,-24.0,111.0,-7.0,0
1.0,-254.0,-22.0,-23.0,111.0,-9.0,0
1.0,-254.0,-24.0,-24.0,109.0,-8.0,0
6.0,-255.0,-25.0,-25.0,109.0,-9.0,0
5.0,-255.0,-24.0,-22.0,110.0,-7.0,0
8.0,-255.0,-23.0,-16.0,107.0,-9.0,0
4.0,-253.0,-25.0,-11.0,108.0,-7.0,0
4.0,-254.0,-21.0,-10.0,110.0,-10.0,0
3.0,-252.0,-22.0,-13.0,108.0,-8.0,0
7.0,-254.0,-24.0,-17.0,107.0,-10.0,0
5.0,-256.0,-25.0,-20.0,106.0,-7.0,0
3.0,-256.0,-23.0,-18.0,105.0,-10.0,0
4.0,-259.0,-21.0,-17.0,104.0,-7.0,0
2.0,-254.0,-26.0,-14.0,104.0,-9.0,0
-1.0,-255.0,-23.0,-12.0,104.0,-6.0,0
5.0,-254.0,-24.0,-13.0,102.0,-7.0,0
1.0,-254.0,-26.0,-16.0,101.0,-4.0,0
2.0,-252.0,-23.0,-19.0,98.0,-5.0,0
1.0,-253.0,-25.0,-22.0,97.0,-4.0,0
3.0,-253.0,-25.0,-26.0,95.0,-5.0,0
1.0,-255.0,-23.0,-27.0,95.0,-3.0,0
3.0,-257.0,-21.0,-26.0,92.0,-6.0,0
2.0,-258.0,-22.0,-23.0,92.0,-3.0,0
2.0,-257.0,-23.0,-21.0,90.0,-5.0,0
1.0,-254.0,-25.0,-17.0,89.0,-3.0,0
1.0,-255.0,-26.0,-17.0,88.0,-3.0,0
1.0,-256.0,-20.0,-19.0,87.0,-2.0,0
0.0,-258.0,-21.0,-23.0,83.0,-3.0,0
1.0,-256.0,-24.0,-25.0,80.0,-3.0,0
0.0,-255.0,-25.0,-25.0,78.0,-1.0,0
2.0,-258.0,-24.0,-23.0,77.0,-3.0,0
1.0,-258.0,-23.0,-21.0,76.0,-2.0,0
1.0,-255.0,-27.0,-20.0,75.0,-2.0,0
4.0,-257.0,-23.0,-18.0,75.0,-2.0,0
1.0,-256.0,-21.0,-16.0,73.0,-3.0,0
4.0,-255.0,-26.0,-15.0,71.0,-2.0,0
1.0,-253.0,-27.0,-11.0,72.0,-4.0,0
4.0,-255.0,-22.0,-10.0,71.0,0.0,0
-1.0,-254.0,-23.0,-13.0,70.0,-2.0,0
2.0,-255.0,-23.0,-13.0,67.0,-1.0,0
3.0,-255.0,-22.0,-13.0,65.0,-2.0,0
0.0,-253.0,-22.0,-14.0,64.0,0.0,0
4.0,-256.0,-27.0,-16.0,60.0,-2.0,0
1.0,-254.0,-23.0,-18.0,61.0,0.0,0
1.0,-254.0,-25.0,-19.0,61.0,-2.0,0
3.0,-256.0,-19.0,-19.0,59.0,1.0,0
1.0,-255.0,-22.0,-18.0,58.0,-1.0,0
1.0,-255.0,-23.0,-16.0,56.0,1.0,0
-1.0,-257.0,-27.0,-15.0,52.0,-2.0,0
2.0,-254.0,-24.0,-15.0,52.0,1.0,0
-1.0,-253.0,-26.0,-14.0,52.0,-2.0,0
3.0,-254.0,-23.0,-14.0,52.0,-1.0,0
1.0,-255.0,-23.0,-14.0,50.0,-1.0,0
4.0,-256.0,-24.0,-13.0,50.0,0.0,0
2.0,-256.0,-23.0,-15.0,51.0,0.0,0
0.0,-254.0,-23.0,-15.0,49.0,1.0,0
2.0,-258.0,-23.0,-15.0,49.0,1.0,0
0.0,-255.0,-20.0,-16.0,49.0,1.0,0
3.0,-256.0,-23.0,-17.0,46.0,1.0,0
1.0,-256.0,-23.0,-18.0,45.0,0.0,0
2.0,-253.0,-21.0,-18.0,44.0,-1.0,0
2.0,-251.0,-19.0,-19.0,44.0,0.0,0
8.0,-253.0,-14.0,-19.0,45.0,2.0,0
2.0,-253.0,-22.0,-19.0,45.0,0.0,0
3.0,-253.0,-24.0,-20.0,45.0,1.0,0
1.0,-252.0,-25.0,-22.0,45.0,0.0,0
5.0,-255.0,-20.0,-23.0,45.0,1.0,0
1.0,-254.0,-26.0,-23.0,44.0,0.0,0
6.0,-254.0,-21.0,-22.0,45.0,1.0,0
3.0,-254.0,-24.0,-22.0,45.0,-1.0,0
0.0,-256.0,-24.0,-21.0,46.0,1.0,0
3.0,-252.0,-26.0,-22.0,46.0,0.0,0
1.0,-257.0,-17.0,-19.0,46.0,3.0,0
-1.0,-257.0,-23.0,-22.0,45.0,-1.0,0
5.0,-256.0,-22.0,-22.0,46.0,1.0,0
1.0,-255.0,-24.0,-22.0,47.0,0.0,0
3.0,-254.0,-25.0,-21.0,47.0,2.0,0
4.0,-256.0,-24.0,-22.0,48.0,-1.0,0
6.0,-258.0,-27.0,-22.0,48.0,2.0,0
1.0,-255.0,-21.0,-22.0,47.0,0.0,0
5.0,-254.0,-22.0,-22.0,47.0,1.0,0
3.0,-257.0,-25.0,-22.0,48.0,0.0,0
3.0,-256.0,-24.0,-21.0,48.0,1.0,0
3.0,-258.0,-26.0,-21.0,49.0,-1.0,0
3.0,-254.0,-22.0,-20.0,49.0,0.0,0
1.0,-257.0,-23.0,-21.0,50.0,-1.0,0
4.0,-256.0,-25.0,-20.0,51.0,0.0,0
4.0,-256.0,-27.0,-19.0,51.0,-1.0,0
2.0,-254.0,-20.0,-18.0,51.0,-1.0,0
1.0,-254.0,-21.0,-19.0,52.0,0.0,0
5.0,-256.0,-26.0,-18.0,50.0,-1.0,0
2.0,-256.0,-25.0,-16.0,51.0,-1.0,0
3.0,-256.0,-25.0,-17.0,52.0,-2.0,0
3.0,-253.0,-25.0,-17.0,52.0,-2.0,0
2.0,-253.0,-28.0,-16.0,53.0,-2.0,0
2.0,-254.0,-25.0,-17.0,52.0,-1.0,0
4.0,-254.0,-23.0,-16.0,52.0,-3.0,0
5.0,-256.0,-20.0,-17.0,53.0,-1.0,0
4.0,-257.0,-22.0,-17.0,54.0,-3.0,0
3.0,-256.0,-25.0,-16.0,55.0,-1.0,0
2.0,-255.0,-27.0,-16.0,56.0,-2.0,0
5.0,-257.0,-22.0,-18.0,56.0,0.0,0
3.0,-255.0,-20.0,-18.0,56.0,-3.0,0
3.0,-257.0,-24.0,-17.0,58.0,-2.0,0
3.0,-258.0,-26.0,-17.0,58.0,-3.0,0
5.0,-256.0,-24.0,-17.0,59.0,-2.0,0
2.0,-256.0,-23.0,-17.0,60.0,-4.0,0
3.0,-253.0,-26.0,-18.0,60.0,-2.0,0
5.0,-258.0,-23.0,-18.0,60.0,-3.0,0
2.0,-255.0,-25.0,-18.0,62.0,-2.0,0
4.0,-258.0,-25.0,-17.0,63.0,-4.0,0
3.0,-253.0,-26.0,-16.0,63.0,-4.0,0
2.0,-255.0,-25.0,-15.0,64.0,-4.0,0
4.0,-256.0,-29.0,-15.0,65.0,-4.0,0
4.0,-257.0,-25.0,-15.0,65.0,-6.0,0
3.0,-253.0,-21.0,-15.0,67.0,-5.0,0
3.0,-257.0,-25.0,-15.0,68.0,-6.0,0
3.0,-253.0,-24.0,-15.0,68.0,-4.0,0
1.0,-256.0,-24.0,-15.0,69.0,-6.0,0
6.0,-257.0,-24.0,-15.0,69.0,-5.0,0
3.0,-258.0,-23.0,-14.0,70.0,-5.0,0
5.0,-256.0,-24.0,-14.0,72.0,-6.0,0
2.0,-255.0,-24.0,-13.0,74.0,-4.0,0
3.0,-253.0,-24.0,-13.0,75.0,-5.0,0
3.0,-254.0,-25.0,-13.0,75.0,-5.0,0
4.0,-257.0,-23.0,-11.0,76.0,-5.0,0
3.0,-254.0,-25.0,-12.0,77.0,-5.0,0
5.0,-258.0,-30.0,-11.0,79.0,-7.0,0
3.0,-253.0,-24.0,-12.0,79.0,-7.0,0
4.0,-255.0,-22.0,-10.0,80.0,-8.0,0
3.0,-256.0,-24.0,-10.0,81.0,-7.0,0
1.0,-254.0,-24.0,-9.0,81.0,-9.0,0
3.0,-254.0,-25.0,-9.0,82.0,-6.0,0
3.0,-256.0,-25.0,-8.0,83.0,-7.0,0
2.0,-254.0,-20.0,-10.0,83.0,-6.0,0
3.0,-253.0,-20.0,-10.0,84.0,-9.0,0
3.0,-255.0,-20.0,-11.0,83.0,-7.0,0
5.0,-255.0,-22.0,-12.0,83.0,-10.0,0
4.0,-256.0,-27.0,-13.0,85.0,-7.0,0
0.0,-255.0,-23.0,-10.0,85.0,-10.0,0
3.0,-255.0,-21.0,-11.0,85.0,-8.0,0
2.0,-250.0,-23.0,-12.0,86.0,-10.0,0
3.0,-255.0,-22.0,-13.0,86.0,-8.0,0
4.0,-253.0,-25.0,-13.0,86.0,-10.0,0
0.0,-252.0,-24.0,-15.0,85.0,-8.0,0
4.0,-255.0,-22.0,-16.0,86.0,-9.0,0
2.0,-255.0,-23.0,-18.0,87.0,-8.0,0
3.0,-255.0,-23.0,-17.0,87.0,-9.0,0
3.0,-257.0,-26.0,-18.0,89.0,-8.0,0
6.0,-252.0,-23.0,-17.0,91.0,-10.0,0
2.0,-255.0,-26.0,-18.0,90.0,-10.0,0
2.0,-258.0,-26.0,-18.0,92.0,-10.0,0
0.0,-254.0,-21.0,-17.0,90.0,-9.0,0
-2.0,-254.0,-24.0,-17.0,91.0,-9.0,0
2.0,-253.0,-23.0,-17.0,91.0,-10.0,0
1.0,-257.0,-23.0,-15.0,91.0,-9.0,0
3.0,-252.0,-25.0,-13.0,92.0,-11.0,0
3.0,-256.0,-26.0,-8.0,91.0,-10.0,0
2.0,-254.0,-24.0,-4.0,92.0,-11.0,0
4.0,-256.0,-22.0,-5.0,93.0,-10.0,0
1.0,-251.0,-18.0,-7.0,92.0,-11.0,0
3.0,-254.0,-23.0,-11.0,92.0,-10.0,0
0.0,-251.0,-22.0,-15.0,89.0,-11.0,0
2.0,-258.0,-21.0,-15.0,87.0,-10.0,0
2.0,-256.0,-23.0,-15.0,87.0,-11.0,0
3.0,-254.0,-19.0,-15.0,88.0,-9.0,0
1.0,-253.0,-24.0,-12.0,88.0,-10.0,0
4.0,-255.0,-28.0,-15.0,87.0,-8.0,0
1.0,-256.0,-24.0,-18.0,87.0,-11.0,0
4.0,-253.0,-24.0,-23.0,84.0,-8.0,0
4.0,-257.0,-20.0,-27.0,84.0,-9.0,0
6.0,-255.0,-23.0,-30.0,84.0,-7.0,0
0.0,-254.0,-23.0,-31.0,83.0,-9.0,0
2.0,-257.0,-26.0,-29.0,82.0,-6.0,0
4.0,-258.0,-25.0,-28.0,82.0,-10.0,0
3.0,-257.0,-25.0,-26.0,81.0,-8.0,0
3.0,-256.0,-26.0,-23.0,80.0,-8.0,0
4.0,-257.0,-25.0,-22.0,80.0,-8.0,0
1.0,-258.0,-22.0,-21.0,83.0,-8.0,0
1.0,-254.0,-22.0,-20.0,82.0,-7.0,0
2.0,-257.0,-27.0,-18.0,82.0,-9.0,0
0.0,-253.0,-25.0,-18.0,83.0,-9.0,0
4.0,-255.0,-21.0,-16.0,84.0,-9.0,0
3.0,-256.0,-22.0,-17.0,82.0,-9.0,0
3.0,-256.0,-24.0,-16.0,82.0,-9.0,0
2.0,-256.0,-21.0,-14.0,82.0,-10.0,0
3.0,-253.0,-26.0,-14.0,81.0,-9.0,0
2.0,-255.0,-23.0,-15.0,81.0,-9.0,0
2.0,-256.0,-29.0,-15.0,79.0,-9.0,0
3.0,-254.0,-24.0,-16.0,78.0,-8.0,0
2.0,-255.0,-23.0,-17.0,79.0,-6.0,0
3.0,-254.0,-23.0,-17.0,78.0,-9.0,0
0.0,-253.0,-24.0,-17.0,78.0,-7.0,0
4.0,-253.0,-25.0,-16.0,78.0,-9.0,0
1.0,-257.0,-26.0,-17.0,78.0,-7.0,0
2.0,-254.0,-24.0,-16.0,78.0,-9.0,0
5.0,-257.0,-24.0,-19.0,77.0,-7.0,0
1.0,-255.0,-23.0,-19.0,77.0,-8.0,0
3.0,-253.0,-23.0,-21.0,75.0,-5.0,0
3.0,-255.0,-24.0,-21.0,74.0,-8.0,0
4.0,-254.0,-25.0,-23.0,74.0,-6.0,0
3.0,-256.0,-21.0,-24.0,73.0,-8.0,0
5.0,-254.0,-24.0,-23.0,73.0,-6.0,0
4.0,-254.0,-26.0,-22.0,74.0,-8.0,0
2.0,-254.0,-27.0,-23.0,73.0,-5.0,0
4.0,-255.0,-19.0,-24.0,72.0,-8.0,0
3.0,-256.0,-22.0,-24.0,71.0,-7.0,0
3.0,-253.0,-23.0,-25.0,71.0,-9.0,0
3.0,-255.0,-23.0,-25.0,69.0,-6.0,0
7.0,-256.0,-26.0,-25.0,70.0,-8.0,0
5.0,-257.0,-25.0,-25.0,71.0,-7.0,0
2.0,-256.0,-21.0,-26.0,70.0,-9.0,0
4.0,-255.0,-21.0,-26.0,69.0,-8.0,0
2.0,-255.0,-23.0,-27.0,68.0,-9.0,0
4.0,-255.0,-25.0,-26.0,69.0,-7.0,0
11.0,-250.0,-18.0,-26.0,70.0,-7.0,0
2.0,-255.0,-22.0,-25.0,70.0,-7.0,0
2.0,-255.0,-24.0,-27.0,67.0,-7.0,0
3.0,-256.0,-24.0,-28.0,67.0,-6.0,0
4.0,-257.0,-26.0,-27.0,68.0,-7.0,0
4.0,-256.0,-25.0,-26.0,67.0,-7.0,0
3.0,-257.0,-26.0,-24.0,66.0,-7.0,0
4.0,-255.0,-24.0,-23.0,66.0,-8.0,0
2.0,-257.0,-24.0,-21.0,66.0,-6.0,0
3.0,-258.0,-25.0,-19.0,67.0,-7.0,0
5.0,-254.0,-26.0,-16.0,66.0,-6.0,0
5.0,-254.0,-25.0,-16.0,67.0,-9.0,0
1.0,-255.0,-24.0,-16.0,66.0,-7.0,0
3.0,-256.0,-27.0,-18.0,66.0,-8.0,0
0.0,-254.0,-24.0,-15.0,64.0,-5.0,0
3.0,-255.0,-26.0,-12.0,63.0,-8.0,0
2.0,-253.0,-26.0,-11.0,64.0,-6.0,0
2.0,-252.0,-22.0,-10.0,65.0,-7.0,0
