ax,ay,az,gx,gy,gz,label
47.0,-218.0,-66.0,-169.0,212.0,-116.0,1
50.0,-209.0,-61.0,-136.0,204.0,-68.0,1
51.0,-211.0,-61.0,-107.0,160.0,-45.0,1
56.0,-226.0,-61.0,-83.0,104.0,-45.0,1
41.0,-242.0,-60.0,-71.0,54.0,-50.0,1
29.0,-254.0,-54.0,-62.0,16.0,-54.0,1
23.0,-255.0,-55.0,-54.0,-6.0,-60.0,1
26.0,-260.0,-51.0,-50.0,-21.0,-65.0,1
33.0,-255.0,-54.0,-41.0,-23.0,-68.0,1
32.0,-252.0,-56.0,-35.0,-9.0,-72.0,1
21.0,-243.0,-58.0,-35.0,11.0,-76.0,1
13.0,-238.0,-57.0,-35.0,29.0,-71.0,1
7.0,-231.0,-62.0,-37.0,51.0,-61.0,1
-1.0,-230.0,-58.0,-43.0,74.0,-52.0,1
1.0,-215.0,-57.0,-40.0,98.0,-40.0,1
-14.0,-209.0,-57.0,-29.0,118.0,-11.0,1
-22.0,-209.0,-55.0,-25.0,123.0,18.0,1
-33.0,-212.0,-54.0,-30.0,102.0,46.0,1
-36.0,-219.0,-48.0,-57.0,61.0,61.0,1
-29.0,-229.0,-48.0,-105.0,12.0,64.0,1
-16.0,-239.0,-49.0,-161.0,-41.0,57.0,1
-1.0,-248.0,-51.0,-216.0,-83.0,42.0,1
8.0,-258.0,-54.0,-273.0,-114.0,23.0,1
17.0,-263.0,-54.0,-319.0,-133.0,-2.0,1
23.0,-265.0,-58.0,-357.0,-139.0,-27.0,1
33.0,-263.0,-58.0,-384.0,-133.0,-43.0,1
42.0,-259.0,-60.0,-404.0,-113.0,-55.0,1
42.0,-254.0,-59.0,-412.0,-81.0,-61.0,1
48.0,-258.0,-61.0,-407.0,-44.0,-60.0,1
54.0,-260.0,-56.0,-398.0,-7.0,-52.0,1
67.0,-263.0,-52.0,-382.0,35.0,-43.0,1
65.0,-262.0,-52.0,-349.0,83.0,-44.0,1
68.0,-267.0,-48.0,-313.0,129.0,-43.0,1
61.0,-266.0,-45.0,-278.0,172.0,-38.0,1
60.0,-270.0,-47.0,-255.0,214.0,-33.0,1
55.0,-276.0,-45.0,-243.0,251.0,-28.0,1
48.0,-280.0,-42.0,-237.0,280.0,-20.0,1
34.0,-284.0,-50.0,-237.0,297.0,-11.0,1
38.0,-283.0,-57.0,-246.0,304.0,8.0,1
22.0,-283.0,-56.0,-264.0,313.0,23.0,1
6.0,-283.0,-58.0,-268.0,291.0,51.0,1
4.0,-285.0,-68.0,-268.0,237.0,78.0,1
21.0,-279.0,-63.0,-267.0,187.0,89.0,1
16.0,-273.0,-57.0,-248.0,152.0,81.0,1
7.0,-261.0,-56.0,-199.0,111.0,81.0,1
0.0,-256.0,-61.0,-158.0,64.0,95.0,1
-8.0,-259.0,-55.0,-156.0,35.0,100.0,1
4.0,-263.0,-34.0,-150.0,22.0,113.0,1
21.0,-266.0,-37.0,-94.0,3.0,138.0,1
1.0,-247.0,-33.0,-29.0,-24.0,129.0,1
-11.0,-225.0,-38.0,7.0,-61.0,102.0,1
7.0,-222.0,-46.0,14.0,-99.0,88.0,1
15.0,-220.0,-49.0,27.0,-116.0,70.0,1
13.0,-212.0,-52.0,16.0,-138.0,60.0,1
7.0,-212.0,-54.0,-28.0,-170.0,34.0,1
19.0,-224.0,-52.0,-72.0,-189.0,24.0,1
26.0,-243.0,-56.0,-92.0,-212.0,39.0,1
32.0,-248.0,-62.0,-91.0,-249.0,47.0,1
33.0,-248.0,-59.0,-98.0,-272.0,30.0,1
40.0,-254.0,-55.0,-108.0,-274.0,16.0,1
45.0,-261.0,-53.0,-110.0,-268.0,15.0,1
52.0,-270.0,-53.0,-112.0,-262.0,17.0,1
52.0,-269.0,-53.0,-119.0,-249.0,8.0,1
53.0,-265.0,-53.0,-133.0,-220.0,-4.0,1
52.0,-262.0,-52.0,-143.0,-188.0,-9.0,1
46.0,-259.0,-46.0,-152.0,-166.0,5.0,1
38.0,-254.0,-41.0,-157.0,-149.0,14.0,1
46.0,-260.0,-45.0,-157.0,-142.0,22.0,1
48.0,-254.0,-49.0,-152.0,-136.0,17.0,1
59.0,-253.0,-50.0,-152.0,-128.0,14.0,1
69.0,-249.0,-58.0,-161.0,-114.0,1.0,1
71.0,-246.0,-57.0,-182.0,-98.0,-12.0,1
74.0,-243.0,-57.0,-204.0,-81.0,-23.0,1
77.0,-245.0,-58.0,-228.0,-62.0,-36.0,1
73.0,-242.0,-53.0,-246.0,-40.0,-48.0,1
72.0,-242.0,-48.0,-262.0,-23.0,-53.0,1
75.0,-246.0,-50.0,-268.0,-4.0,-55.0,1
66.0,-242.0,-47.0,-265.0,18.0,-55.0,1
58.0,-240.0,-48.0,-252.0,40.0,-47.0,1
53.0,-237.0,-44.0,-238.0,66.0,-41.0,1
50.0,-237.0,-43.0,-223.0,91.0,-33.0,1
49.0,-236.0,-46.0,-205.0,119.0,-25.0,1
40.0,-234.0,-45.0,-195.0,149.0,-19.0,1
35.0,-236.0,-44.0,-188.0,165.0,-14.0,1
34.0,-240.0,-41.0,-184.0,171.0,-15.0,1
37.0,-242.0,-41.0,-184.0,176.0,-24.0,1
38.0,-244.0,-39.0,-186.0,184.0,-26.0,1
41.0,-244.0,-40.0,-187.0,195.0,-23.0,1
36.0,-243.0,-39.0,-195.0,201.0,-20.0,1
43.0,-250.0,-43.0,-206.0,204.0,-11.0,1
48.0,-256.0,-42.0,-214.0,212.0,-15.0,1
55.0,-258.0,-45.0,-222.0,224.0,-20.0,1
53.0,-260.0,-41.0,-226.0,240.0,-22.0,1
58.0,-262.0,-45.0,-217.0,258.0,-17.0,1
57.0,-265.0,-44.0,-212.0,276.0,-20.0,1
59.0,-265.0,-45.0,-206.0,297.0,-20.0,1
63.0,-264.0,-51.0,-204.0,320.0,-19.0,1
62.0,-266.0,-48.0,-202.0,346.0,-14.0,1
60.0,-265.0,-48.0,-204.0,377.0,-11.0,1
59.0,-266.0,-50.0,-205.0,407.0,-7.0,1
56.0,-264.0,-49.0,-209.0,438.0,-4.0,1
54.0,-262.0,-53.0,-209.0,467.0,0.0,1
50.0,-264.0,-50.0,-212.0,487.0,4.0,1
50.0,-264.0,-49.0,-211.0,508.0,9.0,1
48.0,-261.0,-52.0,-206.0,524.0,19.0,1
44.0,-257.0,-53.0,-195.0,537.0,26.0,1
43.0,-254.0,-55.0,-180.0,547.0,36.0,1
39.0,-248.0,-50.0,-163.0,557.0,45.0,1
37.0,-246.0,-50.0,-151.0,565.0,49.0,1
37.0,-244.0,-52.0,-144.0,569.0,55.0,1
36.0,-243.0,-56.0,-149.0,575.0,58.0,1
33.0,-242.0,-54.0,-161.0,578.0,57.0,1
29.0,-242.0,-60.0,-175.0,578.0,58.0,1
25.0,-239.0,-63.0,-190.0,575.0,57.0,1
21.0,-237.0,-65.0,-211.0,568.0,55.0,1
17.0,-238.0,-67.0,-236.0,551.0,50.0,1
7.0,-234.0,-71.0,-264.0,529.0,44.0,1
4.0,-232.0,-76.0,-293.0,502.0,36.0,1
-6.0,-230.0,-78.0,-322.0,469.0,29.0,1
-13.0,-230.0,-76.0,-347.0,434.0,20.0,1
-18.0,-230.0,-79.0,-363.0,394.0,12.0,1
-24.0,-233.0,-76.0,-371.0,361.0,1.0,1
-24.0,-233.0,-75.0,-367.0,330.0,-6.0,1
-29.0,-239.0,-74.0,-351.0,306.0,-15.0,1
-32.0,-245.0,-69.0,-327.0,292.0,-21.0,1
-30.0,-251.0,-70.0,-295.0,294.0,-22.0,1
-29.0,-255.0,-69.0,-265.0,312.0,-25.0,1
-25.0,-264.0,-60.0,-236.0,345.0,-25.0,1
-20.0,-269.0,-61.0,-215.0,391.0,-24.0,1
-15.0,-280.0,-56.0,-200.0,444.0,-18.0,1
-8.0,-289.0,-51.0,-196.0,506.0,-8.0,1
-4.0,-294.0,-51.0,-203.0,576.0,4.0,1
0.0,-302.0,-54.0,-217.0,640.0,16.0,1
-4.0,-304.0,-49.0,-237.0,696.0,30.0,1
2.0,-305.0,-48.0,-263.0,743.0,42.0,1
5.0,-305.0,-52.0,-284.0,770.0,52.0,1
3.0,-299.0,-55.0,-297.0,778.0,64.0,1
9.0,-294.0,-56.0,-296.0,772.0,68.0,1
9.0,-287.0,-55.0,-277.0,760.0,69.0,1
6.0,-280.0,-52.0,-244.0,751.0,71.0,1
3.0,-266.0,-44.0,-196.0,742.0,76.0,1
-2.0,-259.0,-38.0,-128.0,730.0,84.0,1
-12.0,-249.0,-40.0,-60.0,715.0,93.0,1
-19.0,-247.0,-37.0,-3.0,705.0,117.0,1
-25.0,-230.0,-42.0,33.0,703.0,142.0,1
-28.0,-235.0,-30.0,47.0,712.0,162.0,1
-30.0,-233.0,-36.0,39.0,727.0,186.0,1
-34.0,-235.0,-31.0,9.0,741.0,200.0,1
-31.0,-237.0,-36.0,-35.0,757.0,209.0,1
-35.0,-236.0,-43.0,-89.0,773.0,219.0,1
-37.0,-240.0,-41.0,-153.0,787.0,222.0,1
-38.0,-242.0,-46.0,-222.0,796.0,223.0,1
-34.0,-248.0,-47.0,-293.0,790.0,220.0,1
-36.0,-255.0,-53.0,-358.0,773.0,215.0,1
-42.0,-257.0,-52.0,-408.0,746.0,211.0,1
-40.0,-261.0,-55.0,-441.0,707.0,207.0,1
-42.0,-261.0,-57.0,-454.0,664.0,202.0,1
-43.0,-264.0,-58.0,-447.0,618.0,201.0,1
-41.0,-266.0,-62.0,-426.0,572.0,193.0,1
-41.0,-261.0,-58.0,-388.0,536.0,182.0,1
-37.0,-267.0,-56.0,-341.0,509.0,175.0,1
-27.0,-268.0,-57.0,-289.0,495.0,165.0,1
-25.0,-267.0,-56.0,-234.0,488.0,155.0,1
-16.0,-267.0,-50.0,-182.0,490.0,146.0,1
-8.0,-266.0,-49.0,-135.0,495.0,137.0,1
-4.0,-264.0,-44.0,-99.0,504.0,130.0,1
1.0,-264.0,-40.0,-70.0,520.0,123.0,1
5.0,-260.0,-38.0,-51.0,533.0,113.0,1
10.0,-260.0,-37.0,-38.0,543.0,109.0,1
10.0,-252.0,-37.0,-37.0,549.0,110.0,1
8.0,-249.0,-34.0,-37.0,553.0,100.0,1
8.0,-244.0,-31.0,-39.0,558.0,87.0,1
7.0,-243.0,-28.0,-36.0,565.0,84.0,1
5.0,-235.0,-27.0,-32.0,578.0,81.0,1
6.0,-230.0,-27.0,-29.0,588.0,76.0,1
5.0,-227.0,-28.0,-29.0,602.0,74.0,1
5.0,-222.0,-29.0,-34.0,619.0,67.0,1
11.0,-222.0,-27.0,-43.0,633.0,53.0,1
6.0,-222.0,-26.0,-56.0,646.0,38.0,1
14.0,-223.0,-25.0,-71.0,654.0,25.0,1
12.0,-223.0,-20.0,-89.0,655.0,12.0,1
9.0,-228.0,-22.0,-110.0,651.0,1.0,1
13.0,-232.0,-27.0,-133.0,646.0,-14.0,1
18.0,-235.0,-17.0,-157.0,646.0,-27.0,1
16.0,-239.0,-25.0,-173.0,653.0,-40.0,1
22.0,-246.0,-20.0,-181.0,665.0,-54.0,1
20.0,-253.0,-15.0,-181.0,678.0,-69.0,1
23.0,-264.0,-17.0,-170.0,694.0,-79.0,1
24.0,-273.0,-15.0,-153.0,715.0,-91.0,1
29.0,-276.0,-11.0,-130.0,740.0,-109.0,1
28.0,-280.0,-13.0,-101.0,770.0,-126.0,1
30.0,-286.0,-12.0,-72.0,801.0,-138.0,1
29.0,-290.0,-11.0,-46.0,830.0,-148.0,1
29.0,-288.0,-8.0,-13.0,856.0,-158.0,1
27.0,-290.0,-7.0,22.0,875.0,-162.0,1
28.0,-287.0,0.0,63.0,881.0,-170.0,1
26.0,-286.0,1.0,104.0,866.0,-182.0,1
20.0,-282.0,-5.0,144.0,843.0,-184.0,1
14.0,-276.0,-5.0,175.0,813.0,-171.0,1
4.0,-278.0,-11.0,200.0,776.0,-150.0,1
-6.0,-269.0,-14.0,215.0,734.0,-137.0,1
-10.0,-269.0,-22.0,221.0,693.0,-116.0,1
-11.0,-265.0,-29.0,217.0,659.0,-90.0,1
-18.0,-269.0,-36.0,191.0,623.0,-50.0,1
-28.0,-273.0,-35.0,157.0,590.0,-16.0,1
-26.0,-273.0,-42.0,120.0,570.0,-4.0,1
-26.0,-275.0,-42.0,86.0,559.0,14.0,1
-23.0,-281.0,-38.0,63.0,558.0,34.0,1
-18.0,-288.0,-39.0,61.0,568.0,44.0,1
-14.0,-295.0,-37.0,75.0,589.0,56.0,1
-7.0,-306.0,-44.0,89.0,611.0,73.0,1
2.0,-310.0,-45.0,90.0,635.0,79.0,1
9.0,-314.0,-53.0,69.0,654.0,79.0,1
19.0,-320.0,-58.0,35.0,662.0,82.0,1
23.0,-320.0,-65.0,-3.0,681.0,76.0,1
28.0,-322.0,-65.0,-39.0,704.0,65.0,1
31.0,-321.0,-68.0,-61.0,736.0,46.0,1
33.0,-326.0,-74.0,-75.0,776.0,26.0,1
33.0,-323.0,-68.0,-63.0,817.0,9.0,1
27.0,-321.0,-84.0,-33.0,845.0,0.0,1
24.0,-315.0,-90.0,-1.0,859.0,2.0,1
28.0,-309.0,-107.0,11.0,860.0,15.0,1
33.0,-299.0,-119.0,4.0,866.0,30.0,1
32.0,-289.0,-131.0,-3.0,888.0,45.0,1
34.0,-276.0,-143.0,-12.0,923.0,64.0,1
38.0,-264.0,-152.0,-20.0,963.0,80.0,1
39.0,-255.0,-148.0,-19.0,993.0,95.0,1
39.0,-249.0,-154.0,-8.0,1010.0,104.0,1
41.0,-241.0,-153.0,4.0,1005.0,110.0,1
35.0,-234.0,-148.0,10.0,976.0,118.0,1
36.0,-224.0,-144.0,12.0,936.0,123.0,1
33.0,-228.0,-135.0,13.0,900.0,123.0,1
33.0,-232.0,-130.0,15.0,865.0,121.0,1
30.0,-233.0,-120.0,20.0,829.0,114.0,1
31.0,-241.0,-115.0,29.0,789.0,106.0,1
28.0,-243.0,-107.0,38.0,735.0,98.0,1
26.0,-247.0,-103.0,45.0,672.0,85.0,1
24.0,-248.0,-104.0,49.0,601.0,76.0,1
19.0,-249.0,-103.0,46.0,528.0,66.0,1
18.0,-249.0,-107.0,25.0,456.0,57.0,1
11.0,-246.0,-107.0,-11.0,391.0,50.0,1
9.0,-246.0,-105.0,-50.0,335.0,45.0,1
9.0,-242.0,-98.0,-80.0,284.0,41.0,1
1.0,-239.0,-99.0,-99.0,237.0,42.0,1
-1.0,-236.0,-98.0,-117.0,190.0,40.0,1
-7.0,-236.0,-101.0,-130.0,144.0,33.0,1
-10.0,-235.0,-98.0,-146.0,103.0,27.0,1
-10.0,-233.0,-94.0,-158.0,68.0,20.0,1
-12.0,-231.0,-97.0,-173.0,49.0,16.0,1
-11.0,-230.0,-101.0,-192.0,40.0,16.0,1
-6.0,-232.0,-101.0,-208.0,33.0,16.0,1
1.0,-229.0,-99.0,-223.0,24.0,8.0,1
6.0,-233.0,-99.0,-231.0,17.0,-5.0,1
10.0,-238.0,-102.0,-232.0,6.0,-16.0,1
23.0,-232.0,-101.0,-227.0,-4.0,-29.0,1
26.0,-232.0,-98.0,-220.0,-18.0,-41.0,1
33.0,-228.0,-99.0,-211.0,-37.0,-50.0,1
34.0,-226.0,-101.0,-196.0,-62.0,-61.0,1
39.0,-220.0,-104.0,-184.0,-95.0,-74.0,1
44.0,-218.0,-98.0,-168.0,-137.0,-89.0,1
46.0,-210.0,-98.0,-149.0,-185.0,-104.0,1
45.0,-206.0,-100.0,-129.0,-228.0,-116.0,1
40.0,-206.0,-93.0,-109.0,-267.0,-121.0,1
37.0,-201.0,-88.0,-97.0,-305.0,-122.0,1
28.0,-200.0,-94.0,-96.0,-339.0,-122.0,1
22.0,-193.0,-87.0,-95.0,-369.0,-123.0,1
16.0,-188.0,-83.0,-100.0,-395.0,-121.0,1
8.0,-192.0,-85.0,-99.0,-422.0,-123.0,1
3.0,-187.0,-81.0,-106.0,-451.0,-124.0,1
2.0,-191.0,-82.0,-123.0,-477.0,-124.0,1
-1.0,-191.0,-80.0,-151.0,-503.0,-128.0,1
0.0,-197.0,-80.0,-188.0,-530.0,-135.0,1
-2.0,-203.0,-78.0,-224.0,-554.0,-147.0,1
-8.0,-211.0,-89.0,-258.0,-574.0,-163.0,1
-2.0,-209.0,-77.0,-290.0,-588.0,-177.0,1
3.0,-216.0,-74.0,-320.0,-601.0,-172.0,1
5.0,-218.0,-79.0,-340.0,-609.0,-171.0,1
12.0,-214.0,-73.0,-355.0,-615.0,-167.0,1
13.0,-221.0,-71.0,-359.0,-621.0,-167.0,1
14.0,-225.0,-73.0,-359.0,-630.0,-168.0,1
20.0,-231.0,-73.0,-364.0,-642.0,-170.0,1
21.0,-236.0,-75.0,-374.0,-657.0,-175.0,1
21.0,-234.0,-71.0,-381.0,-670.0,-186.0,1
30.0,-235.0,-73.0,-368.0,-678.0,-199.0,1
28.0,-234.0,-59.0,-353.0,-679.0,-212.0,1
30.0,-240.0,-74.0,-325.0,-673.0,-221.0,1
33.0,-245.0,-69.0,-295.0,-665.0,-219.0,1
34.0,-248.0,-66.0,-268.0,-661.0,-211.0,1
37.0,-248.0,-70.0,-241.0,-660.0,-207.0,1
35.0,-250.0,-62.0,-216.0,-657.0,-202.0,1
37.0,-246.0,-56.0,-187.0,-659.0,-197.0,1
38.0,-244.0,-60.0,-155.0,-655.0,-196.0,1
40.0,-243.0,-56.0,-130.0,-648.0,-191.0,1
38.0,-243.0,-52.0,-112.0,-642.0,-185.0,1
38.0,-241.0,-52.0,-102.0,-636.0,-179.0,1
37.0,-240.0,-47.0,-96.0,-632.0,-176.0,1
35.0,-238.0,-42.0,-83.0,-627.0,-176.0,1
31.0,-240.0,-37.0,-74.0,-629.0,-169.0,1
31.0,-241.0,-34.0,-65.0,-632.0,-161.0,1
29.0,-242.0,-26.0,-56.0,-633.0,-152.0,1
26.0,-244.0,-22.0,-44.0,-636.0,-145.0,1
26.0,-244.0,-20.0,-34.0,-638.0,-136.0,1
28.0,-245.0,-21.0,-27.0,-643.0,-125.0,1
20.0,-242.0,-21.0,-24.0,-650.0,-118.0,1
19.0,-244.0,-22.0,-29.0,-655.0,-107.0,1
17.0,-238.0,-20.0,-38.0,-659.0,-98.0,1
16.0,-245.0,-24.0,-51.0,-662.0,-88.0,1
12.0,-243.0,-26.0,-63.0,-666.0,-78.0,1
8.0,-247.0,-24.0,-78.0,-673.0,-68.0,1
11.0,-250.0,-22.0,-89.0,-679.0,-57.0,1
15.0,-257.0,-28.0,-96.0,-689.0,-47.0,1
17.0,-261.0,-28.0,-98.0,-692.0,-38.0,1
17.0,-268.0,-33.0,-97.0,-686.0,-34.0,1
20.0,-273.0,-40.0,-94.0,-671.0,-29.0,1
25.0,-280.0,-38.0,-83.0,-640.0,-27.0,1
31.0,-283.0,-40.0,-66.0,-603.0,-27.0,1
35.0,-282.0,-41.0,-42.0,-567.0,-30.0,1
42.0,-284.0,-35.0,-11.0,-533.0,-34.0,1
45.0,-284.0,-39.0,27.0,-509.0,-33.0,1
47.0,-281.0,-36.0,72.0,-493.0,-32.0,1
52.0,-282.0,-34.0,124.0,-479.0,-29.0,1
55.0,-283.0,-36.0,184.0,-460.0,-26.0,1
62.0,-281.0,-31.0,253.0,-438.0,-25.0,1
59.0,-279.0,-30.0,322.0,-414.0,-25.0,1
62.0,-282.0,-30.0,392.0,-389.0,-24.0,1
64.0,-276.0,-24.0,459.0,-366.0,-21.0,1
58.0,-275.0,-15.0,527.0,-344.0,-20.0,1
51.0,-272.0,-10.0,590.0,-328.0,-14.0,1
46.0,-270.0,-4.0,652.0,-321.0,-2.0,1
42.0,-270.0,5.0,708.0,-323.0,14.0,1
37.0,-266.0,9.0,760.0,-331.0,26.0,1
36.0,-263.0,7.0,808.0,-343.0,41.0,1
33.0,-264.0,9.0,839.0,-358.0,49.0,1
30.0,-272.0,1.0,845.0,-380.0,47.0,1
31.0,-286.0,-9.0,820.0,-409.0,35.0,1
38.0,-303.0,-21.0,762.0,-439.0,17.0,1
45.0,-322.0,-43.0,665.0,-467.0,-6.0,1
52.0,-343.0,-65.0,525.0,-489.0,-36.0,1
55.0,-361.0,-89.0,342.0,-519.0,-71.0,1
59.0,-369.0,-114.0,139.0,-566.0,-106.0,1
60.0,-376.0,-138.0,-70.0,-631.0,-142.0,1
65.0,-377.0,-162.0,-254.0,-695.0,-167.0,1
57.0,-382.0,-185.0,-406.0,-739.0,-181.0,1
57.0,-382.0,-192.0,-483.0,-719.0,-204.0,1
52.0,-383.0,-207.0,-475.0,-639.0,-226.0,1
46.0,-372.0,-209.0,-389.0,-529.0,-245.0,1
32.0,-344.0,-202.0,-263.0,-435.0,-257.0,1
16.0,-319.0,-194.0,-96.0,-376.0,-257.0,1
5.0,-297.0,-176.0,100.0,-364.0,-257.0,1
-12.0,-278.0,-168.0,281.0,-395.0,-259.0,1
-27.0,-267.0,-155.0,434.0,-460.0,-254.0,1
-36.0,-259.0,-138.0,565.0,-551.0,-245.0,1
-46.0,-253.0,-128.0,686.0,-657.0,-239.0,1
-56.0,-242.0,-126.0,790.0,-759.0,-238.0,1
-51.0,-236.0,-121.0,860.0,-850.0,-244.0,1
-50.0,-235.0,-119.0,892.0,-916.0,-249.0,1
-42.0,-230.0,-120.0,897.0,-949.0,-259.0,1
-29.0,-227.0,-117.0,879.0,-954.0,-271.0,1
-16.0,-224.0,-115.0,851.0,-948.0,-281.0,1
3.0,-219.0,-119.0,811.0,-937.0,-290.0,1
18.0,-212.0,-118.0,764.0,-914.0,-295.0,1
31.0,-210.0,-112.0,701.0,-880.0,-287.0,1
47.0,-209.0,-116.0,630.0,-832.0,-272.0,1
55.0,-206.0,-110.0,552.0,-771.0,-255.0,1
65.0,-215.0,-108.0,482.0,-697.0,-236.0,1
66.0,-213.0,-97.0,422.0,-622.0,-216.0,1
84.0,-217.0,-98.0,362.0,-558.0,-191.0,1
87.0,-219.0,-88.0,310.0,-494.0,-165.0,1
93.0,-222.0,-83.0,264.0,-436.0,-142.0,1
96.0,-225.0,-79.0,221.0,-380.0,-127.0,1
92.0,-226.0,-78.0,190.0,-329.0,-113.0,1
100.0,-224.0,-81.0,161.0,-283.0,-96.0,1
89.0,-229.0,-77.0,145.0,-227.0,-75.0,1
86.0,-228.0,-79.0,148.0,-171.0,-50.0,1
76.0,-225.0,-80.0,152.0,-124.0,-24.0,1
69.0,-223.0,-78.0,152.0,-86.0,-5.0,1
60.0,-220.0,-78.0,151.0,-49.0,7.0,1
55.0,-216.0,-83.0,146.0,-16.0,20.0,1
45.0,-208.0,-87.0,134.0,12.0,40.0,1
40.0,-206.0,-84.0,115.0,41.0,52.0,1
32.0,-200.0,-89.0,92.0,67.0,65.0,1
29.0,-197.0,-86.0,68.0,92.0,79.0,1
22.0,-189.0,-87.0,47.0,110.0,96.0,1
18.0,-192.0,-84.0,25.0,127.0,109.0,1
13.0,-188.0,-85.0,2.0,139.0,118.0,1
5.0,-186.0,-84.0,-15.0,150.0,130.0,1
7.0,-190.0,-83.0,-26.0,164.0,147.0,1
2.0,-193.0,-86.0,-35.0,182.0,161.0,1
0.0,-194.0,-82.0,-40.0,204.0,173.0,1
2.0,-195.0,-78.0,-46.0,229.0,191.0,1
3.0,-205.0,-75.0,-57.0,256.0,213.0,1
-1.0,-207.0,-66.0,-73.0,275.0,219.0,1
2.0,-211.0,-66.0,-88.0,294.0,223.0,1
5.0,-221.0,-59.0,-105.0,313.0,227.0,1
7.0,-221.0,-53.0,-130.0,328.0,217.0,1
9.0,-220.0,-56.0,-159.0,338.0,213.0,1
10.0,-216.0,-55.0,-183.0,351.0,218.0,1
4.0,-218.0,-49.0,-200.0,359.0,216.0,1
12.0,-221.0,-45.0,-216.0,363.0,213.0,1
11.0,-224.0,-50.0,-230.0,370.0,211.0,1
3.0,-224.0,-44.0,-244.0,378.0,212.0,1
10.0,-227.0,-48.0,-265.0,384.0,212.0,1
11.0,-226.0,-40.0,-284.0,390.0,204.0,1
13.0,-234.0,-40.0,-291.0,396.0,200.0,1
12.0,-236.0,-42.0,-296.0,398.0,192.0,1
17.0,-244.0,-40.0,-305.0,398.0,182.0,1
15.0,-247.0,-45.0,-315.0,398.0,179.0,1
18.0,-248.0,-40.0,-323.0,398.0,177.0,1
18.0,-254.0,-39.0,-325.0,403.0,177.0,1
19.0,-262.0,-35.0,-317.0,410.0,167.0,1
16.0,-257.0,-39.0,-300.0,421.0,153.0,1
26.0,-256.0,-32.0,-279.0,434.0,149.0,1
26.0,-249.0,-35.0,-254.0,452.0,149.0,1
26.0,-245.0,-30.0,-228.0,469.0,150.0,1
28.0,-247.0,-22.0,-206.0,484.0,150.0,1
29.0,-237.0,-24.0,-191.0,497.0,148.0,1
29.0,-234.0,-25.0,-178.0,509.0,141.0,1
32.0,-228.0,-22.0,-169.0,522.0,132.0,1
33.0,-227.0,-24.0,-170.0,531.0,121.0,1
32.0,-224.0,-20.0,-173.0,536.0,107.0,1
30.0,-223.0,-21.0,-181.0,541.0,88.0,1
26.0,-224.0,-27.0,-188.0,540.0,69.0,1
24.0,-229.0,-18.0,-195.0,547.0,55.0,1
27.0,-231.0,-20.0,-199.0,557.0,39.0,1
31.0,-239.0,-15.0,-199.0,572.0,26.0,1
30.0,-243.0,-17.0,-197.0,594.0,17.0,1
33.0,-250.0,-4.0,-190.0,621.0,4.0,1
26.0,-257.0,-2.0,-177.0,645.0,-7.0,1
27.0,-263.0,-9.0,-159.0,659.0,-21.0,1
19.0,-270.0,-3.0,-146.0,653.0,-29.0,1
18.0,-270.0,-6.0,-139.0,614.0,-35.0,1
2.0,-268.0,-10.0,-131.0,555.0,-44.0,1
-6.0,-264.0,-11.0,-126.0,483.0,-43.0,1
-13.0,-262.0,-16.0,-130.0,420.0,-40.0,1
-16.0,-255.0,-23.0,-137.0,378.0,-34.0,1
-16.0,-256.0,-25.0,-142.0,355.0,-21.0,1
-15.0,-258.0,-23.0,-137.0,352.0,-11.0,1
-7.0,-262.0,-19.0,-118.0,371.0,-6.0,1
1.0,-269.0,-18.0,-87.0,413.0,-7.0,1
4.0,-276.0,-16.0,-45.0,475.0,-11.0,1
12.0,-277.0,-16.0,-2.0,548.0,-17.0,1
18.0,-280.0,-11.0,35.0,634.0,-23.0,1
29.0,-279.0,-6.0,71.0,723.0,-37.0,1
34.0,-281.0,0.0,110.0,803.0,-52.0,1
45.0,-281.0,1.0,153.0,871.0,-67.0,1
51.0,-277.0,7.0,196.0,924.0,-86.0,1
66.0,-274.0,2.0,234.0,962.0,-105.0,1
69.0,-269.0,-4.0,258.0,988.0,-122.0,1
74.0,-268.0,-8.0,257.0,1006.0,-138.0,1
76.0,-270.0,-10.0,234.0,1022.0,-143.0,1
70.0,-277.0,-15.0,200.0,1037.0,-134.0,1
62.0,-287.0,-26.0,160.0,1039.0,-124.0,1
53.0,-296.0,-40.0,104.0,1044.0,-108.0,1
35.0,-313.0,-64.0,14.0,1044.0,-65.0,1
19.0,-319.0,-82.0,-133.0,1025.0,-27.0,1
4.0,-336.0,-103.0,-325.0,996.0,7.0,1
-11.0,-348.0,-122.0,-537.0,963.0,44.0,1
-35.0,-366.0,-128.0,-749.0,911.0,80.0,1
-39.0,-380.0,-132.0,-918.0,824.0,120.0,1
-42.0,-389.0,-139.0,-1000.0,724.0,156.0,1
-55.0,-396.0,-144.0,-1002.0,602.0,209.0,1
-57.0,-404.0,-147.0,-924.0,465.0,266.0,1
-51.0,-397.0,-143.0,-771.0,318.0,305.0,1
-27.0,-381.0,-141.0,-554.0,212.0,320.0,1
-5.0,-361.0,-128.0,-275.0,191.0,301.0,1
19.0,-334.0,-119.0,24.0,244.0,277.0,1
34.0,-304.0,-116.0,287.0,322.0,257.0,1
46.0,-270.0,-122.0,499.0,393.0,230.0,1
58.0,-243.0,-131.0,661.0,463.0,204.0,1
71.0,-217.0,-138.0,771.0,551.0,185.0,1
77.0,-196.0,-146.0,824.0,665.0,174.0,1
84.0,-184.0,-151.0,820.0,803.0,167.0,1
92.0,-175.0,-147.0,766.0,943.0,168.0,1
90.0,-167.0,-135.0,677.0,1056.0,173.0,1
84.0,-170.0,-123.0,570.0,1122.0,178.0,1
69.0,-184.0,-114.0,446.0,1142.0,181.0,1
48.0,-196.0,-109.0,294.0,1127.0,187.0,1
39.0,-217.0,-101.0,126.0,1082.0,189.0,1
28.0,-236.0,-93.0,-39.0,1008.0,181.0,1
16.0,-247.0,-95.0,-190.0,908.0,169.0,1
7.0,-254.0,-82.0,-321.0,788.0,150.0,1
-6.0,-265.0,-76.0,-424.0,651.0,124.0,1
-10.0,-269.0,-73.0,-503.0,499.0,103.0,1
-18.0,-267.0,-67.0,-556.0,332.0,78.0,1
-33.0,-271.0,-65.0,-580.0,164.0,50.0,1
-35.0,-267.0,-72.0,-576.0,11.0,20.0,1
-43.0,-269.0,-68.0,-555.0,-118.0,-3.0,1
-43.0,-269.0,-72.0,-511.0,-225.0,-25.0,1
-44.0,-265.0,-74.0,-456.0,-304.0,-45.0,1
-49.0,-266.0,-78.0,-390.0,-361.0,-59.0,1
-46.0,-263.0,-84.0,-328.0,-389.0,-60.0,1
-41.0,-252.0,-82.0,-277.0,-395.0,-49.0,1
-39.0,-241.0,-87.0,-230.0,-390.0,-43.0,1
-35.0,-234.0,-89.0,-188.0,-377.0,-44.0,1
-18.0,-220.0,-93.0,-150.0,-361.0,-56.0,1
-13.0,-209.0,-92.0,-116.0,-334.0,-63.0,1
-5.0,-196.0,-93.0,-95.0,-300.0,-70.0,1
11.0,-188.0,-99.0,-96.0,-266.0,-82.0,1
17.0,-182.0,-98.0,-115.0,-229.0,-92.0,1
19.0,-180.0,-97.0,-139.0,-196.0,-111.0,1
28.0,-176.0,-100.0,-154.0,-167.0,-140.0,1
31.0,-174.0,-93.0,-170.0,-139.0,-167.0,1
35.0,-173.0,-91.0,-187.0,-117.0,-181.0,1
42.0,-175.0,-87.0,-210.0,-110.0,-187.0,1
45.0,-179.0,-86.0,-237.0,-118.0,-195.0,1
45.0,-178.0,-83.0,-261.0,-136.0,-203.0,1
39.0,-178.0,-75.0,-279.0,-167.0,-208.0,1
38.0,-180.0,-68.0,-293.0,-209.0,-207.0,1
35.0,-183.0,-65.0,-308.0,-261.0,-202.0,1
32.0,-188.0,-66.0,-325.0,-316.0,-202.0,1
27.0,-189.0,-65.0,-352.0,-368.0,-200.0,1
20.0,-198.0,-56.0,-381.0,-422.0,-200.0,1
20.0,-201.0,-61.0,-415.0,-473.0,-201.0,1
16.0,-205.0,-57.0,-457.0,-517.0,-198.0,1
17.0,-216.0,-52.0,-490.0,-560.0,-195.0,1
18.0,-218.0,-55.0,-511.0,-592.0,-201.0,1
17.0,-224.0,-56.0,-526.0,-610.0,-199.0,1
19.0,-230.0,-54.0,-532.0,-622.0,-198.0,1
18.0,-233.0,-56.0,-525.0,-632.0,-195.0,1
19.0,-238.0,-56.0,-504.0,-639.0,-190.0,1
20.0,-242.0,-53.0,-475.0,-641.0,-186.0,1
22.0,-244.0,-57.0,-439.0,-631.0,-182.0,1
23.0,-250.0,-60.0,-404.0,-612.0,-174.0,1
29.0,-256.0,-64.0,-373.0,-585.0,-160.0,1
34.0,-258.0,-62.0,-342.0,-550.0,-148.0,1
37.0,-258.0,-63.0,-310.0,-514.0,-134.0,1
38.0,-254.0,-61.0,-273.0,-484.0,-126.0,1
40.0,-250.0,-57.0,-234.0,-457.0,-119.0,1
36.0,-249.0,-58.0,-201.0,-433.0,-116.0,1
38.0,-245.0,-53.0,-173.0,-415.0,-111.0,1
36.0,-236.0,-61.0,-150.0,-404.0,-110.0,1
40.0,-242.0,-46.0,-132.0,-399.0,-106.0,1
31.0,-242.0,-45.0,-119.0,-398.0,-100.0,1
28.0,-239.0,-44.0,-112.0,-404.0,-93.0,1
27.0,-242.0,-38.0,-102.0,-416.0,-83.0,1
22.0,-239.0,-33.0,-92.0,-433.0,-76.0,1
22.0,-239.0,-31.0,-79.0,-456.0,-66.0,1
20.0,-238.0,-24.0,-64.0,-479.0,-58.0,1
17.0,-237.0,-23.0,-48.0,-504.0,-51.0,1
13.0,-236.0,-27.0,-37.0,-528.0,-42.0,1
11.0,-238.0,-23.0,-35.0,-554.0,-37.0,1
14.0,-241.0,-19.0,-38.0,-582.0,-33.0,1
14.0,-249.0,-14.0,-48.0,-607.0,-35.0,1
20.0,-253.0,-13.0,-60.0,-627.0,-40.0,1
20.0,-265.0,-15.0,-76.0,-643.0,-50.0,1
13.0,-271.0,-13.0,-93.0,-655.0,-53.0,1
6.0,-263.0,-14.0,-104.0,-661.0,-57.0,1
4.0,-260.0,-20.0,-111.0,-664.0,-61.0,1
6.0,-256.0,-31.0,-115.0,-660.0,-65.0,1
10.0,-253.0,-34.0,-121.0,-648.0,-63.0,1
12.0,-251.0,-39.0,-123.0,-631.0,-57.0,1
13.0,-253.0,-50.0,-127.0,-607.0,-51.0,1
23.0,-251.0,-54.0,-124.0,-579.0,-41.0,1
28.0,-251.0,-60.0,-115.0,-540.0,-30.0,1
38.0,-249.0,-64.0,-103.0,-496.0,-22.0,1
61.0,-259.0,-63.0,-91.0,-438.0,-20.0,1
62.0,-259.0,-59.0,-80.0,-385.0,-24.0,1
74.0,-266.0,-56.0,-68.0,-338.0,-37.0,1
82.0,-274.0,-49.0,-60.0,-303.0,-57.0,1
86.0,-284.0,-41.0,-55.0,-287.0,-81.0,1
83.0,-295.0,-31.0,-48.0,-288.0,-109.0,1
74.0,-300.0,-24.0,-25.0,-309.0,-129.0,1
65.0,-305.0,-12.0,19.0,-347.0,-139.0,1
53.0,-306.0,-12.0,82.0,-394.0,-133.0,1
40.0,-306.0,-4.0,159.0,-441.0,-122.0,1
27.0,-301.0,-22.0,239.0,-486.0,-106.0,1
21.0,-304.0,-6.0,314.0,-531.0,-87.0,1
13.0,-303.0,-6.0,379.0,-573.0,-75.0,1
11.0,-306.0,-8.0,430.0,-612.0,-71.0,1
12.0,-318.0,-13.0,472.0,-645.0,-82.0,1
14.0,-337.0,-28.0,497.0,-664.0,-103.0,1
10.0,-352.0,-48.0,487.0,-668.0,-121.0,1
19.0,-366.0,-71.0,422.0,-663.0,-143.0,1
27.0,-369.0,-94.0,284.0,-657.0,-166.0,1
34.0,-370.0,-119.0,76.0,-653.0,-191.0,1
32.0,-370.0,-127.0,-156.0,-659.0,-215.0,1
42.0,-362.0,-144.0,-374.0,-702.0,-223.0,1
47.0,-367.0,-152.0,-546.0,-728.0,-228.0,1
58.0,-365.0,-163.0,-629.0,-710.0,-218.0,1
59.0,-356.0,-165.0,-610.0,-651.0,-210.0,1
52.0,-344.0,-165.0,-501.0,-551.0,-207.0,1
46.0,-328.0,-172.0,-310.0,-433.0,-195.0,1
30.0,-302.0,-165.0,-85.0,-329.0,-186.0,1
19.0,-275.0,-167.0,112.0,-268.0,-178.0,1
18.0,-253.0,-158.0,251.0,-262.0,-183.0,1
5.0,-236.0,-155.0,322.0,-302.0,-195.0,1
-4.0,-224.0,-145.0,352.0,-388.0,-202.0,1
-13.0,-217.0,-141.0,365.0,-511.0,-213.0,1
-19.0,-216.0,-130.0,383.0,-652.0,-219.0,1
-24.0,-211.0,-126.0,420.0,-792.0,-220.0,1
-33.0,-212.0,-124.0,457.0,-916.0,-222.0,1
-32.0,-214.0,-124.0,485.0,-1021.0,-225.0,1
-34.0,-216.0,-125.0,499.0,-1093.0,-230.0,1
-29.0,-221.0,-117.0,502.0,-1128.0,-235.0,1
-17.0,-227.0,-110.0,489.0,-1118.0,-242.0,1
-10.0,-232.0,-109.0,473.0,-1086.0,-247.0,1
2.0,-235.0,-106.0,448.0,-1035.0,-248.0,1
14.0,-238.0,-112.0,408.0,-975.0,-247.0,1
19.0,-238.0,-116.0,347.0,-904.0,-243.0,1
30.0,-237.0,-111.0,263.0,-826.0,-234.0,1
33.0,-240.0,-114.0,170.0,-736.0,-227.0,1
40.0,-244.0,-110.0,85.0,-632.0,-217.0,1
48.0,-248.0,-104.0,19.0,-521.0,-206.0,1
49.0,-251.0,-102.0,-15.0,-410.0,-194.0,1
57.0,-247.0,-98.0,-26.0,-304.0,-186.0,1
60.0,-247.0,-96.0,-12.0,-209.0,-174.0,1
62.0,-246.0,-95.0,5.0,-133.0,-154.0,1
69.0,-242.0,-93.0,22.0,-78.0,-136.0,1
71.0,-239.0,-96.0,31.0,-43.0,-120.0,1
61.0,-233.0,-105.0,30.0,-18.0,-104.0,1
66.0,-226.0,-110.0,17.0,-9.0,-95.0,1
62.0,-223.0,-108.0,0.0,-10.0,-88.0,1
52.0,-212.0,-107.0,-11.0,-12.0,-71.0,1
53.0,-205.0,-105.0,-16.0,-21.0,-53.0,1
51.0,-202.0,-105.0,-13.0,-38.0,-37.0,1
44.0,-193.0,-106.0,-8.0,-52.0,-23.0,1
41.0,-190.0,-105.0,-5.0,-69.0,-7.0,1
35.0,-186.0,-107.0,1.0,-83.0,8.0,1
34.0,-180.0,-104.0,4.0,-90.0,24.0,1
30.0,-178.0,-104.0,-1.0,-90.0,43.0,1
26.0,-178.0,-101.0,-13.0,-87.0,64.0,1
25.0,-178.0,-96.0,-28.0,-78.0,82.0,1
19.0,-179.0,-95.0,-40.0,-61.0,97.0,1
20.0,-178.0,-92.0,-51.0,-37.0,118.0,1
19.0,-181.0,-94.0,-65.0,-6.0,133.0,1
20.0,-185.0,-87.0,-81.0,34.0,145.0,1
16.0,-188.0,-84.0,-104.0,82.0,156.0,1
18.0,-191.0,-81.0,-134.0,128.0,167.0,1
19.0,-194.0,-82.0,-172.0,174.0,179.0,1
19.0,-198.0,-81.0,-215.0,222.0,189.0,1
14.0,-199.0,-80.0,-261.0,268.0,195.0,1
17.0,-203.0,-78.0,-310.0,313.0,199.0,1
15.0,-207.0,-76.0,-353.0,355.0,206.0,1
18.0,-211.0,-69.0,-399.0,389.0,213.0,1
16.0,-215.0,-70.0,-437.0,417.0,217.0,1
14.0,-220.0,-66.0,-462.0,441.0,217.0,1
11.0,-224.0,-68.0,-475.0,461.0,223.0,1
13.0,-231.0,-66.0,-472.0,477.0,228.0,1
7.0,-235.0,-63.0,-459.0,491.0,225.0,1
7.0,-240.0,-60.0,-439.0,503.0,224.0,1
4.0,-243.0,-62.0,-415.0,512.0,218.0,1
1.0,-246.0,-64.0,-382.0,521.0,209.0,1
5.0,-245.0,-61.0,-353.0,526.0,201.0,1
8.0,-247.0,-58.0,-327.0,531.0,187.0,1
9.0,-250.0,-54.0,-296.0,534.0,177.0,1
5.0,-253.0,-52.0,-263.0,539.0,168.0,1
7.0,-255.0,-49.0,-233.0,542.0,159.0,1
6.0,-253.0,-48.0,-199.0,539.0,151.0,1
6.0,-252.0,-46.0,-167.0,534.0,141.0,1
2.0,-248.0,-44.0,-137.0,524.0,136.0,1
7.0,-246.0,-40.0,-111.0,511.0,133.0,1
1.0,-239.0,-41.0,-88.0,497.0,133.0,1
2.0,-242.0,-41.0,-66.0,482.0,137.0,1
2.0,-237.0,-40.0,-52.0,467.0,139.0,1
-2.0,-233.0,-37.0,-46.0,452.0,142.0,1
3.0,-234.0,-40.0,-46.0,436.0,144.0,1
2.0,-229.0,-36.0,-54.0,417.0,144.0,1
5.0,-233.0,-36.0,-60.0,405.0,139.0,1
0.0,-234.0,-38.0,-70.0,395.0,136.0,1
2.0,-236.0,-32.0,-73.0,391.0,127.0,1
8.0,-242.0,-33.0,-76.0,392.0,122.0,1
9.0,-244.0,-33.0,-79.0,399.0,112.0,1
15.0,-247.0,-29.0,-79.0,410.0,102.0,1
17.0,-255.0,-30.0,-76.0,423.0,91.0,1
20.0,-263.0,-26.0,-75.0,436.0,73.0,1
21.0,-271.0,-26.0,-72.0,444.0,60.0,1
19.0,-274.0,-27.0,-72.0,434.0,50.0,1
16.0,-276.0,-26.0,-76.0,410.0,43.0,1
12.0,-271.0,-28.0,-82.0,377.0,37.0,1
8.0,-269.0,-29.0,-92.0,339.0,36.0,1
5.0,-265.0,-32.0,-101.0,307.0,38.0,1
7.0,-259.0,-30.0,-103.0,288.0,42.0,1
9.0,-261.0,-29.0,-92.0,282.0,48.0,1
13.0,-265.0,-23.0,-61.0,293.0,52.0,1
17.0,-263.0,-16.0,-11.0,315.0,49.0,1
21.0,-263.0,-13.0,56.0,350.0,46.0,1
22.0,-264.0,-12.0,130.0,395.0,43.0,1
26.0,-267.0,-14.0,205.0,449.0,40.0,1
29.0,-267.0,-11.0,267.0,515.0,39.0,1
38.0,-270.0,-16.0,308.0,586.0,35.0,1
42.0,-270.0,-21.0,328.0,663.0,31.0,1
48.0,-273.0,-20.0,334.0,741.0,24.0,1
58.0,-271.0,-23.0,327.0,820.0,20.0,1
66.0,-278.0,-23.0,315.0,894.0,21.0,1
72.0,-279.0,-34.0,298.0,953.0,23.0,1
71.0,-286.0,-35.0,272.0,992.0,28.0,1
65.0,-295.0,-48.0,240.0,1018.0,36.0,1
57.0,-306.0,-58.0,200.0,1032.0,47.0,1
52.0,-312.0,-79.0,130.0,1033.0,52.0,1
39.0,-322.0,-94.0,25.0,1029.0,71.0,1
20.0,-329.0,-115.0,-125.0,1011.0,97.0,1
6.0,-348.0,-131.0,-301.0,984.0,127.0,1
-18.0,-371.0,-151.0,-491.0,960.0,159.0,1
-37.0,-383.0,-165.0,-693.0,892.0,208.0,1
-51.0,-392.0,-188.0,-889.0,782.0,249.0,1
-70.0,-389.0,-198.0,-1053.0,626.0,296.0,1
-65.0,-389.0,-214.0,-1173.0,439.0,360.0,1
-45.0,-390.0,-205.0,-1204.0,243.0,407.0,1
-15.0,-388.0,-180.0,-1075.0,93.0,427.0,1
7.0,-381.0,-161.0,-752.0,48.0,414.0,1
20.0,-359.0,-137.0,-317.0,86.0,391.0,1
31.0,-329.0,-126.0,129.0,150.0,367.0,1
45.0,-293.0,-130.0,515.0,210.0,340.0,1
61.0,-256.0,-138.0,814.0,277.0,319.0,1
71.0,-226.0,-151.0,1007.0,362.0,307.0,1
75.0,-204.0,-160.0,1098.0,473.0,304.0,1
83.0,-186.0,-155.0,1094.0,618.0,305.0,1
85.0,-183.0,-160.0,1027.0,781.0,306.0,1
83.0,-183.0,-153.0,914.0,941.0,309.0,1
84.0,-187.0,-144.0,771.0,1080.0,310.0,1
76.0,-200.0,-140.0,611.0,1183.0,300.0,1
69.0,-214.0,-123.0,441.0,1244.0,282.0,1
58.0,-224.0,-117.0,278.0,1257.0,257.0,1
44.0,-238.0,-111.0,129.0,1234.0,234.0,1
41.0,-252.0,-94.0,6.0,1174.0,206.0,1
35.0,-260.0,-88.0,-87.0,1079.0,181.0,1
27.0,-266.0,-83.0,-151.0,955.0,154.0,1
19.0,-267.0,-80.0,-191.0,809.0,128.0,1
13.0,-264.0,-84.0,-211.0,652.0,96.0,1
5.0,-260.0,-88.0,-217.0,496.0,61.0,1
0.0,-255.0,-91.0,-224.0,356.0,29.0,1
-11.0,-248.0,-95.0,-234.0,237.0,0.0,1
-16.0,-245.0,-101.0,-243.0,140.0,-24.0,1
-20.0,-233.0,-100.0,-240.0,65.0,-51.0,1
-28.0,-222.0,-95.0,-235.0,14.0,-65.0,1
-33.0,-207.0,-96.0,-225.0,-23.0,-71.0,1
-30.0,-199.0,-97.0,-208.0,-46.0,-71.0,1
-29.0,-193.0,-104.0,-193.0,-46.0,-63.0,1
-26.0,-182.0,-100.0,-181.0,-32.0,-62.0,1
-21.0,-177.0,-106.0,-187.0,-8.0,-62.0,1
-16.0,-171.0,-110.0,-196.0,20.0,-68.0,1
-12.0,-165.0,-114.0,-208.0,53.0,-79.0,1
-2.0,-160.0,-114.0,-226.0,93.0,-90.0,1
1.0,-162.0,-109.0,-247.0,127.0,-104.0,1
15.0,-167.0,-103.0,-266.0,150.0,-123.0,1
17.0,-171.0,-101.0,-288.0,165.0,-135.0,1
23.0,-177.0,-98.0,-309.0,169.0,-143.0,1
24.0,-185.0,-93.0,-321.0,160.0,-153.0,1
25.0,-194.0,-86.0,-323.0,138.0,-162.0,1
20.0,-201.0,-78.0,-321.0,106.0,-170.0,1
21.0,-207.0,-75.0,-308.0,60.0,-178.0,1
20.0,-208.0,-69.0,-288.0,8.0,-187.0,1
19.0,-214.0,-70.0,-269.0,-51.0,-185.0,1
17.0,-217.0,-63.0,-256.0,-110.0,-177.0,1
16.0,-225.0,-65.0,-249.0,-172.0,-174.0,1
13.0,-223.0,-60.0,-243.0,-235.0,-177.0,1
13.0,-221.0,-63.0,-248.0,-296.0,-180.0,1
10.0,-222.0,-63.0,-254.0,-346.0,-177.0,1
11.0,-215.0,-60.0,-253.0,-392.0,-174.0,1
14.0,-216.0,-58.0,-259.0,-433.0,-176.0,1
16.0,-213.0,-60.0,-259.0,-463.0,-179.0,1
17.0,-208.0,-59.0,-262.0,-484.0,-182.0,1
26.0,-210.0,-63.0,-268.0,-492.0,-187.0,1
30.0,-209.0,-65.0,-278.0,-490.0,-185.0,1
32.0,-212.0,-61.0,-286.0,-484.0,-190.0,1
34.0,-213.0,-61.0,-291.0,-474.0,-200.0,1
43.0,-222.0,-56.0,-300.0,-456.0,-202.0,1
42.0,-230.0,-53.0,-311.0,-433.0,-199.0,1
43.0,-235.0,-57.0,-308.0,-408.0,-196.0,1
46.0,-239.0,-54.0,-297.0,-383.0,-197.0,1
47.0,-242.0,-50.0,-277.0,-354.0,-195.0,1
46.0,-241.0,-49.0,-250.0,-326.0,-193.0,1
42.0,-240.0,-49.0,-225.0,-305.0,-192.0,1
37.0,-239.0,-49.0,-201.0,-290.0,-191.0,1
33.0,-238.0,-49.0,-181.0,-280.0,-185.0,1
28.0,-235.0,-45.0,-165.0,-277.0,-181.0,1
24.0,-237.0,-45.0,-153.0,-278.0,-173.0,1
23.0,-235.0,-42.0,-148.0,-283.0,-166.0,1
24.0,-238.0,-47.0,-144.0,-294.0,-156.0,1
21.0,-234.0,-46.0,-139.0,-309.0,-146.0,1
23.0,-236.0,-39.0,-133.0,-329.0,-140.0,1
17.0,-241.0,-40.0,-124.0,-352.0,-133.0,1
17.0,-248.0,-37.0,-114.0,-380.0,-123.0,1
21.0,-253.0,-33.0,-104.0,-413.0,-117.0,1
22.0,-259.0,-25.0,-103.0,-451.0,-112.0,1
21.0,-263.0,-24.0,-102.0,-495.0,-102.0,1
22.0,-263.0,-22.0,-100.0,-539.0,-91.0,1
25.0,-263.0,-21.0,-88.0,-575.0,-82.0,1
27.0,-266.0,-20.0,-71.0,-600.0,-72.0,1
23.0,-259.0,-24.0,-47.0,-610.0,-61.0,1
29.0,-255.0,-32.0,-26.0,-607.0,-50.0,1
26.0,-246.0,-36.0,-11.0,-593.0,-40.0,1
31.0,-247.0,-36.0,-9.0,-576.0,-30.0,1
35.0,-242.0,-41.0,-8.0,-553.0,-21.0,1
38.0,-239.0,-43.0,-7.0,-531.0,-9.0,1
43.0,-245.0,-45.0,-6.0,-508.0,9.0,1
44.0,-248.0,-45.0,-4.0,-468.0,23.0,1
55.0,-255.0,-49.0,5.0,-417.0,29.0,1
66.0,-264.0,-41.0,20.0,-351.0,27.0,1
75.0,-268.0,-41.0,37.0,-282.0,16.0,1
83.0,-273.0,-37.0,52.0,-220.0,-7.0,1
82.0,-282.0,-34.0,60.0,-172.0,-39.0,1
77.0,-285.0,-30.0,66.0,-150.0,-72.0,1
74.0,-293.0,-20.0,83.0,-146.0,-101.0,1
70.0,-293.0,-15.0,117.0,-159.0,-119.0,1
60.0,-290.0,-8.0,168.0,-178.0,-129.0,1
55.0,-295.0,-8.0,234.0,-203.0,-130.0,1
51.0,-299.0,-6.0,304.0,-224.0,-124.0,1
44.0,-304.0,1.0,377.0,-242.0,-129.0,1
47.0,-315.0,1.0,452.0,-260.0,-142.0,1
48.0,-329.0,-17.0,520.0,-279.0,-165.0,1
47.0,-353.0,-33.0,564.0,-287.0,-192.0,1
55.0,-367.0,-59.0,541.0,-288.0,-218.0,1
51.0,-375.0,-94.0,435.0,-278.0,-246.0,1
63.0,-378.0,-125.0,247.0,-274.0,-271.0,1
68.0,-366.0,-161.0,-27.0,-283.0,-289.0,1
62.0,-378.0,-186.0,-376.0,-320.0,-289.0,1
87.0,-367.0,-207.0,-729.0,-360.0,-290.0,1
72.0,-368.0,-218.0,-1026.0,-332.0,-295.0,1
56.0,-375.0,-224.0,-1184.0,-250.0,-291.0,1
39.0,-374.0,-227.0,-1190.0,-145.0,-291.0,1
26.0,-363.0,-217.0,-1047.0,-37.0,-297.0,1
12.0,-338.0,-193.0,-783.0,44.0,-299.0,1
3.0,-315.0,-170.0,-445.0,59.0,-294.0,1
-13.0,-286.0,-157.0,-114.0,17.0,-285.0,1
-30.0,-269.0,-141.0,168.0,-65.0,-277.0,1
-54.0,-252.0,-126.0,418.0,-168.0,-258.0,1
-63.0,-243.0,-121.0,662.0,-282.0,-235.0,1
-73.0,-226.0,-117.0,871.0,-395.0,-218.0,1
-73.0,-220.0,-125.0,1019.0,-509.0,-204.0,1
-67.0,-212.0,-126.0,1099.0,-608.0,-191.0,1
-56.0,-205.0,-125.0,1119.0,-679.0,-183.0,1
-42.0,-211.0,-127.0,1095.0,-715.0,-181.0,1
-24.0,-217.0,-126.0,1040.0,-734.0,-185.0,1
-9.0,-219.0,-129.0,962.0,-745.0,-193.0,1
2.0,-222.0,-135.0,853.0,-741.0,-198.0,1
9.0,-222.0,-132.0,716.0,-727.0,-201.0,1
16.0,-224.0,-136.0,555.0,-700.0,-197.0,1
33.0,-233.0,-127.0,386.0,-647.0,-181.0,1
43.0,-236.0,-113.0,231.0,-573.0,-160.0,1
52.0,-241.0,-107.0,97.0,-485.0,-129.0,1
61.0,-245.0,-95.0,3.0,-382.0,-103.0,1
65.0,-245.0,-92.0,-60.0,-281.0,-79.0,1
72.0,-249.0,-85.0,-100.0,-191.0,-52.0,1
74.0,-245.0,-87.0,-121.0,-94.0,-37.0,1
90.0,-231.0,-91.0,-142.0,-20.0,-27.0,1
78.0,-234.0,-84.0,-173.0,34.0,-17.0,1
85.0,-230.0,-82.0,-205.0,79.0,-10.0,1
72.0,-224.0,-89.0,-224.0,115.0,-3.0,1
73.0,-218.0,-88.0,-233.0,135.0,-1.0,1
67.0,-212.0,-92.0,-231.0,149.0,0.0,1
56.0,-205.0,-98.0,-218.0,151.0,15.0,1
49.0,-197.0,-101.0,-207.0,146.0,37.0,1
45.0,-188.0,-102.0,-190.0,137.0,54.0,1
41.0,-186.0,-107.0,-175.0,126.0,77.0,1
30.0,-183.0,-109.0,-160.0,119.0,100.0,1
36.0,-180.0,-111.0,-143.0,119.0,120.0,1
23.0,-182.0,-105.0,-125.0,121.0,135.0,1
19.0,-182.0,-110.0,-104.0,129.0,150.0,1
15.0,-185.0,-108.0,-76.0,144.0,162.0,1
12.0,-182.0,-105.0,-53.0,165.0,171.0,1
15.0,-183.0,-96.0,-32.0,189.0,179.0,1
11.0,-187.0,-93.0,-24.0,214.0,190.0,1
10.0,-189.0,-92.0,-24.0,243.0,193.0,1
6.0,-196.0,-87.0,-39.0,279.0,197.0,1
8.0,-206.0,-85.0,-65.0,311.0,204.0,1
9.0,-211.0,-81.0,-89.0,340.0,211.0,1
12.0,-217.0,-73.0,-119.0,366.0,208.0,1
12.0,-225.0,-72.0,-151.0,390.0,202.0,1
14.0,-224.0,-75.0,-183.0,413.0,195.0,1
15.0,-224.0,-68.0,-210.0,436.0,183.0,1
12.0,-224.0,-65.0,-229.0,456.0,172.0,1
13.0,-223.0,-60.0,-245.0,472.0,166.0,1
8.0,-219.0,-59.0,-256.0,485.0,163.0,1
9.0,-220.0,-58.0,-264.0,501.0,162.0,1
4.0,-219.0,-56.0,-273.0,517.0,165.0,1
8.0,-220.0,-57.0,-282.0,531.0,169.0,1
12.0,-220.0,-57.0,-291.0,545.0,178.0,1
11.0,-221.0,-60.0,-303.0,556.0,184.0,1
13.0,-221.0,-60.0,-316.0,563.0,192.0,1
10.0,-222.0,-65.0,-326.0,560.0,192.0,1
13.0,-230.0,-61.0,-334.0,549.0,194.0,1
8.0,-234.0,-56.0,-339.0,527.0,191.0,1
8.0,-239.0,-57.0,-339.0,499.0,183.0,1
9.0,-238.0,-57.0,-333.0,471.0,169.0,1
13.0,-240.0,-55.0,-316.0,445.0,159.0,1
5.0,-234.0,-53.0,-291.0,428.0,150.0,1
11.0,-232.0,-50.0,-265.0,415.0,141.0,1
12.0,-234.0,-48.0,-238.0,406.0,127.0,1
11.0,-229.0,-49.0,-219.0,404.0,112.0,1
14.0,-223.0,-42.0,-206.0,401.0,98.0,1
16.0,-223.0,-40.0,-194.0,403.0,87.0,1
18.0,-225.0,-37.0,-179.0,407.0,77.0,1
17.0,-225.0,-28.0,-161.0,411.0,67.0,1
18.0,-229.0,-26.0,-150.0,416.0,56.0,1
17.0,-236.0,-25.0,-142.0,419.0,46.0,1
14.0,-244.0,-21.0,-135.0,420.0,31.0,1
15.0,-251.0,-19.0,-132.0,419.0,17.0,1
14.0,-256.0,-17.0,-133.0,409.0,3.0,1
7.0,-262.0,-12.0,-135.0,391.0,-9.0,1
3.0,-265.0,-17.0,-134.0,370.0,-18.0,1
1.0,-266.0,-18.0,-128.0,348.0,-24.0,1
0.0,-264.0,-20.0,-117.0,328.0,-26.0,1
-1.0,-265.0,-22.0,-98.0,309.0,-25.0,1
2.0,-265.0,-26.0,-73.0,291.0,-23.0,1
1.0,-261.0,-24.0,-45.0,272.0,-19.0,1
6.0,-262.0,-26.0,-18.0,256.0,-13.0,1
7.0,-260.0,-29.0,14.0,246.0,-6.0,1
10.0,-260.0,-32.0,40.0,245.0,-2.0,1
12.0,-258.0,-29.0,69.0,256.0,0.0,1
13.0,-259.0,-26.0,95.0,278.0,2.0,1
19.0,-262.0,-29.0,119.0,309.0,4.0,1
22.0,-262.0,-27.0,136.0,345.0,6.0,1
26.0,-264.0,-25.0,153.0,384.0,8.0,1
30.0,-266.0,-26.0,173.0,423.0,9.0,1
34.0,-264.0,-18.0,198.0,461.0,8.0,1
41.0,-266.0,-18.0,228.0,498.0,2.0,1
48.0,-264.0,-12.0,268.0,534.0,-4.0,1
58.0,-266.0,-14.0,316.0,575.0,-18.0,1
72.0,-264.0,-12.0,365.0,620.0,-34.0,1
82.0,-266.0,-15.0,411.0,672.0,-53.0,1
84.0,-265.0,-13.0,450.0,724.0,-70.0,1
87.0,-276.0,-22.0,474.0,780.0,-76.0,1
85.0,-285.0,-29.0,486.0,835.0,-74.0,1
76.0,-299.0,-40.0,487.0,877.0,-60.0,1
50.0,-313.0,-62.0,447.0,893.0,-35.0,1
32.0,-318.0,-92.0,333.0,876.0,10.0,1
0.0,-330.0,-128.0,131.0,842.0,69.0,1
-35.0,-332.0,-171.0,-160.0,769.0,149.0,1
-59.0,-336.0,-221.0,-516.0,653.0,237.0,1
-76.0,-327.0,-258.0,-915.0,532.0,314.0,1
-108.0,-322.0,-292.0,-1286.0,406.0,389.0,1
-105.0,-322.0,-307.0,-1574.0,213.0,484.0,1
-73.0,-317.0,-308.0,-1691.0,45.0,541.0,1
-30.0,-320.0,-282.0,-1555.0,18.0,551.0,1
10.0,-326.0,-248.0,-1183.0,139.0,508.0,1
59.0,-316.0,-218.0,-674.0,350.0,465.0,1
91.0,-306.0,-186.0,-140.0,571.0,429.0,1
126.0,-284.0,-159.0,326.0,763.0,380.0,1
155.0,-271.0,-140.0,690.0,913.0,334.0,1
177.0,-260.0,-121.0,906.0,1017.0,289.0,1
195.0,-257.0,-102.0,1082.0,1066.0,245.0,1
202.0,-257.0,-91.0,1149.0,1069.0,197.0,1
194.0,-251.0,-86.0,1117.0,1038.0,153.0,1
170.0,-258.0,-82.0,986.0,980.0,121.0,1
138.0,-264.0,-79.0,775.0,896.0,115.0,1
96.0,-276.0,-82.0,528.0,811.0,127.0,1
63.0,-280.0,-82.0,294.0,733.0,145.0,1
33.0,-284.0,-89.0,83.0,667.0,157.0,1
3.0,-286.0,-89.0,-91.0,600.0,164.0,1
-20.0,-290.0,-87.0,-225.0,527.0,160.0,1
-49.0,-291.0,-87.0,-324.0,447.0,149.0,1
-74.0,-285.0,-88.0,-385.0,357.0,134.0,1
-86.0,-278.0,-91.0,-423.0,265.0,122.0,1
-95.0,-269.0,-96.0,-443.0,173.0,109.0,1
-100.0,-261.0,-98.0,-449.0,89.0,97.0,1
-95.0,-253.0,-104.0,-445.0,13.0,75.0,1
-91.0,-235.0,-108.0,-432.0,-39.0,48.0,1
-81.0,-226.0,-110.0,-411.0,-93.0,25.0,1
-68.0,-211.0,-112.0,-392.0,-135.0,2.0,1
-54.0,-207.0,-110.0,-372.0,-162.0,-25.0,1
-40.0,-200.0,-111.0,-358.0,-175.0,-50.0,1
-35.0,-190.0,-114.0,-351.0,-180.0,-71.0,1
-20.0,-184.0,-113.0,-345.0,-176.0,-82.0,1
-12.0,-185.0,-107.0,-337.0,-165.0,-91.0,1
-1.0,-183.0,-108.0,-328.0,-150.0,-106.0,1
1.0,-179.0,-105.0,-315.0,-135.0,-131.0,1
10.0,-173.0,-100.0,-301.0,-120.0,-147.0,1
23.0,-175.0,-92.0,-281.0,-96.0,-166.0,1
26.0,-176.0,-87.0,-257.0,-76.0,-187.0,1
25.0,-183.0,-84.0,-236.0,-72.0,-210.0,1
29.0,-181.0,-77.0,-216.0,-84.0,-228.0,1
27.0,-188.0,-74.0,-207.0,-99.0,-246.0,1
33.0,-191.0,-70.0,-202.0,-126.0,-265.0,1
31.0,-191.0,-72.0,-201.0,-162.0,-277.0,1
34.0,-191.0,-70.0,-209.0,-207.0,-282.0,1
37.0,-192.0,-66.0,-221.0,-256.0,-288.0,1
37.0,-192.0,-66.0,-237.0,-304.0,-293.0,1
40.0,-195.0,-72.0,-254.0,-343.0,-303.0,1
42.0,-200.0,-70.0,-278.0,-377.0,-314.0,1
41.0,-206.0,-70.0,-306.0,-400.0,-320.0,1
40.0,-210.0,-67.0,-336.0,-420.0,-328.0,1
40.0,-214.0,-68.0,-353.0,-431.0,-337.0,1
43.0,-219.0,-67.0,-356.0,-438.0,-346.0,1
43.0,-220.0,-66.0,-341.0,-439.0,-349.0,1
37.0,-231.0,-67.0,-318.0,-435.0,-352.0,1
44.0,-233.0,-82.0,-292.0,-429.0,-349.0,1
38.0,-242.0,-64.0,-273.0,-418.0,-339.0,1
40.0,-242.0,-67.0,-253.0,-409.0,-333.0,1
40.0,-239.0,-69.0,-230.0,-400.0,-333.0,1
39.0,-232.0,-69.0,-206.0,-395.0,-334.0,1
35.0,-224.0,-68.0,-183.0,-395.0,-333.0,1
37.0,-218.0,-70.0,-171.0,-395.0,-328.0,1
34.0,-215.0,-65.0,-168.0,-394.0,-322.0,1
31.0,-210.0,-66.0,-169.0,-396.0,-314.0,1
31.0,-207.0,-64.0,-174.0,-399.0,-302.0,1
30.0,-207.0,-69.0,-181.0,-405.0,-288.0,1
36.0,-206.0,-59.0,-202.0,-415.0,-269.0,1
25.0,-206.0,-75.0,-236.0,-426.0,-254.0,1
18.0,-211.0,-71.0,-280.0,-447.0,-237.0,1
14.0,-220.0,-75.0,-327.0,-475.0,-222.0,1
14.0,-233.0,-74.0,-377.0,-503.0,-211.0,1
14.0,-243.0,-76.0,-425.0,-524.0,-200.0,1
12.0,-254.0,-70.0,-469.0,-541.0,-188.0,1
9.0,-261.0,-76.0,-496.0,-553.0,-180.0,1
10.0,-267.0,-73.0,-509.0,-560.0,-171.0,1
8.0,-267.0,-72.0,-507.0,-555.0,-159.0,1
14.0,-268.0,-71.0,-496.0,-532.0,-149.0,1
20.0,-265.0,-84.0,-483.0,-492.0,-139.0,1
34.0,-266.0,-95.0,-473.0,-441.0,-132.0,1
46.0,-264.0,-96.0,-461.0,-381.0,-133.0,1
54.0,-268.0,-94.0,-448.0,-318.0,-140.0,1
65.0,-275.0,-89.0,-429.0,-264.0,-154.0,1
67.0,-275.0,-87.0,-400.0,-224.0,-171.0,1
74.0,-281.0,-78.0,-354.0,-205.0,-182.0,1
73.0,-282.0,-72.0,-290.0,-204.0,-192.0,1
74.0,-288.0,-63.0,-223.0,-212.0,-199.0,1
76.0,-291.0,-65.0,-154.0,-228.0,-199.0,1
77.0,-293.0,-62.0,-99.0,-243.0,-204.0,1
82.0,-298.0,-60.0,-64.0,-251.0,-207.0,1
83.0,-303.0,-60.0,-53.0,-251.0,-207.0,1
91.0,-314.0,-54.0,-57.0,-248.0,-210.0,1
88.0,-318.0,-53.0,-68.0,-244.0,-210.0,1
86.0,-323.0,-48.0,-83.0,-245.0,-208.0,1
80.0,-329.0,-45.0,-97.0,-255.0,-203.0,1
62.0,-323.0,-47.0,-107.0,-278.0,-196.0,1
47.0,-325.0,-43.0,-117.0,-314.0,-183.0,1
34.0,-318.0,-51.0,-128.0,-358.0,-170.0,1
7.0,-313.0,-58.0,-134.0,-405.0,-154.0,1
-13.0,-293.0,-71.0,-133.0,-463.0,-125.0,1
-25.0,-274.0,-94.0,-131.0,-527.0,-86.0,1
-33.0,-253.0,-124.0,-139.0,-587.0,-38.0,1
-38.0,-232.0,-154.0,-166.0,-631.0,9.0,1
-34.0,-222.0,-185.0,-207.0,-674.0,45.0,1
-41.0,-206.0,-206.0,-275.0,-710.0,62.0,1
-32.0,-199.0,-224.0,-360.0,-735.0,65.0,1
-19.0,-198.0,-234.0,-434.0,-752.0,58.0,1
-9.0,-184.0,-242.0,-479.0,-758.0,28.0,1
12.0,-175.0,-234.0,-512.0,-743.0,-15.0,1
31.0,-172.0,-229.0,-533.0,-724.0,-64.0,1
50.0,-166.0,-226.0,-549.0,-704.0,-122.0,1
57.0,-158.0,-214.0,-573.0,-684.0,-183.0,1
64.0,-154.0,-200.0,-596.0,-657.0,-238.0,1
68.0,-163.0,-185.0,-605.0,-622.0,-287.0,1
67.0,-178.0,-172.0,-593.0,-579.0,-328.0,1
62.0,-195.0,-152.0,-558.0,-522.0,-359.0,1
52.0,-222.0,-137.0,-498.0,-441.0,-380.0,1
43.0,-245.0,-124.0,-413.0,-332.0,-384.0,1
31.0,-274.0,-116.0,-322.0,-202.0,-367.0,1
25.0,-301.0,-116.0,-236.0,-60.0,-338.0,1
9.0,-321.0,-120.0,-161.0,76.0,-308.0,1
4.0,-334.0,-126.0,-114.0,189.0,-284.0,1
3.0,-338.0,-131.0,-102.0,275.0,-269.0,1
4.0,-334.0,-135.0,-116.0,328.0,-264.0,1
3.0,-327.0,-145.0,-156.0,345.0,-275.0,1
6.0,-317.0,-146.0,-213.0,326.0,-287.0,1
10.0,-303.0,-142.0,-273.0,274.0,-293.0,1
15.0,-289.0,-141.0,-313.0,193.0,-298.0,1
17.0,-268.0,-142.0,-331.0,97.0,-298.0,1
15.0,-249.0,-131.0,-336.0,-5.0,-298.0,1
16.0,-231.0,-134.0,-336.0,-107.0,-306.0,1
22.0,-211.0,-138.0,-334.0,-203.0,-316.0,1
18.0,-201.0,-131.0,-344.0,-288.0,-315.0,1
21.0,-194.0,-123.0,-353.0,-365.0,-316.0,1
20.0,-192.0,-119.0,-351.0,-439.0,-319.0,1
15.0,-194.0,-113.0,-342.0,-505.0,-314.0,1
20.0,-211.0,-113.0,-325.0,-562.0,-300.0,1
13.0,-216.0,-113.0,-307.0,-613.0,-286.0,1
14.0,-221.0,-114.0,-289.0,-665.0,-270.0,1
15.0,-228.0,-106.0,-271.0,-709.0,-246.0,1
16.0,-233.0,-112.0,-245.0,-738.0,-215.0,1
20.0,-241.0,-107.0,-213.0,-745.0,-185.0,1
19.0,-249.0,-102.0,-173.0,-734.0,-148.0,1
20.0,-251.0,-98.0,-126.0,-708.0,-112.0,1
22.0,-248.0,-92.0,-77.0,-673.0,-84.0,1
25.0,-248.0,-86.0,-24.0,-632.0,-56.0,1
26.0,-242.0,-85.0,37.0,-585.0,-32.0,1
24.0,-235.0,-77.0,100.0,-532.0,-13.0,1
24.0,-222.0,-77.0,158.0,-488.0,9.0,1
19.0,-214.0,-72.0,205.0,-453.0,33.0,1
22.0,-201.0,-71.0,266.0,-411.0,62.0,1
22.0,-188.0,-67.0,303.0,-389.0,84.0,1
25.0,-176.0,-63.0,326.0,-368.0,94.0,1
29.0,-164.0,-72.0,326.0,-343.0,98.0,1
30.0,-149.0,-73.0,305.0,-326.0,104.0,1
25.0,-134.0,-72.0,261.0,-325.0,109.0,1
24.0,-118.0,-79.0,209.0,-343.0,118.0,1
14.0,-106.0,-80.0,146.0,-376.0,132.0,1
9.0,-97.0,-77.0,74.0,-414.0,149.0,1
8.0,-92.0,-78.0,2.0,-442.0,170.0,1
4.0,-96.0,-90.0,-68.0,-449.0,184.0,1
7.0,-97.0,-87.0,-141.0,-434.0,197.0,1
13.0,-102.0,-87.0,-219.0,-397.0,194.0,1
17.0,-111.0,-79.0,-291.0,-354.0,183.0,1
26.0,-119.0,-71.0,-351.0,-308.0,167.0,1
21.0,-126.0,-66.0,-389.0,-247.0,149.0,1
20.0,-136.0,-56.0,-403.0,-166.0,137.0,1
24.0,-153.0,-54.0,-391.0,-69.0,128.0,1
31.0,-156.0,-41.0,-354.0,44.0,124.0,1
43.0,-165.0,-36.0,-300.0,174.0,126.0,1
58.0,-169.0,-17.0,-218.0,317.0,130.0,1
77.0,-177.0,-4.0,-98.0,462.0,138.0,1
90.0,-180.0,9.0,48.0,591.0,144.0,1
107.0,-186.0,18.0,205.0,698.0,153.0,1
114.0,-186.0,27.0,358.0,762.0,149.0,1
120.0,-181.0,28.0,489.0,775.0,152.0,1
123.0,-177.0,23.0,582.0,755.0,162.0,1
125.0,-166.0,19.0,624.0,714.0,184.0,1
129.0,-149.0,8.0,614.0,675.0,220.0,1
132.0,-129.0,-10.0,554.0,640.0,261.0,1
124.0,-102.0,-23.0,457.0,600.0,285.0,1
109.0,-77.0,-32.0,341.0,552.0,294.0,1
94.0,-61.0,-44.0,227.0,490.0,295.0,1
79.0,-56.0,-56.0,125.0,412.0,301.0,1
58.0,-53.0,-72.0,9.0,293.0,307.0,1
36.0,-60.0,-87.0,-130.0,142.0,310.0,1
11.0,-65.0,-100.0,-286.0,-26.0,300.0,1
-12.0,-81.0,-119.0,-463.0,-196.0,279.0,1
-38.0,-90.0,-133.0,-649.0,-361.0,250.0,1
-57.0,-103.0,-141.0,-805.0,-524.0,223.0,1
-77.0,-120.0,-154.0,-901.0,-670.0,204.0,1
-90.0,-151.0,-153.0,-918.0,-775.0,183.0,1
-103.0,-179.0,-142.0,-862.0,-825.0,155.0,1
-120.0,-206.0,-126.0,-744.0,-818.0,118.0,1
-122.0,-242.0,-103.0,-557.0,-788.0,79.0,1
-103.0,-275.0,-77.0,-303.0,-743.0,64.0,1
-67.0,-312.0,-32.0,-9.0,-683.0,65.0,1
-49.0,-320.0,-9.0,298.0,-624.0,76.0,1
-20.0,-330.0,4.0,604.0,-569.0,91.0,1
13.0,-339.0,14.0,877.0,-509.0,100.0,1
47.0,-334.0,13.0,1092.0,-440.0,107.0,1
76.0,-319.0,17.0,1246.0,-352.0,116.0,1
84.0,-288.0,16.0,1340.0,-245.0,137.0,1
70.0,-246.0,1.0,1374.0,-139.0,176.0,1
44.0,-192.0,-22.0,1340.0,-62.0,234.0,1
54.0,-145.0,-48.0,1235.0,-32.0,282.0,1
44.0,-103.0,-63.0,1058.0,-32.0,275.0,1
35.0,-72.0,-74.0,809.0,-127.0,203.0,1
36.0,-44.0,-95.0,464.0,-324.0,111.0,1
42.0,-41.0,-93.0,76.0,-530.0,17.0,1
27.0,-53.0,-99.0,-258.0,-724.0,-91.0,1
15.0,-74.0,-104.0,-476.0,-909.0,-190.0,1
9.0,-105.0,-105.0,-552.0,-1034.0,-262.0,1
10.0,-133.0,-109.0,-479.0,-1043.0,-305.0,1
12.0,-153.0,-108.0,-294.0,-952.0,-320.0,1
25.0,-154.0,-112.0,-62.0,-805.0,-310.0,1
22.0,-159.0,-96.0,133.0,-629.0,-272.0,1
32.0,-157.0,-89.0,267.0,-501.0,-255.0,1
44.0,-165.0,-85.0,325.0,-428.0,-248.0,1
46.0,-170.0,-48.0,291.0,-390.0,-236.0,1
49.0,-187.0,-18.0,192.0,-401.0,-219.0,1
57.0,-206.0,-1.0,81.0,-450.0,-208.0,1
71.0,-223.0,-2.0,10.0,-513.0,-199.0,1
81.0,-243.0,-2.0,-20.0,-544.0,-181.0,1
89.0,-251.0,-1.0,-13.0,-533.0,-154.0,1
97.0,-256.0,-6.0,10.0,-505.0,-112.0,1
99.0,-257.0,-5.0,21.0,-471.0,-69.0,1
94.0,-249.0,-3.0,19.0,-447.0,-32.0,1
74.0,-236.0,-2.0,13.0,-445.0,-13.0,1
49.0,-217.0,-8.0,1.0,-475.0,-8.0,1
27.0,-189.0,-6.0,-28.0,-531.0,-17.0,1
0.0,-165.0,-2.0,-72.0,-618.0,-38.0,1
-31.0,-134.0,-8.0,-121.0,-717.0,-70.0,1
-59.0,-109.0,-1.0,-160.0,-817.0,-101.0,1
-85.0,-84.0,-5.0,-192.0,-894.0,-118.0,1
-92.0,-62.0,-9.0,-232.0,-944.0,-124.0,1
-92.0,-48.0,-2.0,-296.0,-963.0,-128.0,1
-75.0,-50.0,13.0,-380.0,-968.0,-117.0,1
-38.0,-71.0,31.0,-474.0,-1001.0,-105.0,1
6.0,-105.0,35.0,-575.0,-1069.0,-117.0,1
43.0,-140.0,43.0,-673.0,-1165.0,-162.0,1
31.0,-199.0,45.0,-768.0,-1284.0,-221.0,1
145.0,-256.0,-62.0,-912.0,-1446.0,-256.0,1
257.0,-332.0,-192.0,-1204.0,-1449.0,-308.0,1
333.0,-475.0,-363.0,-1688.0,-1313.0,-418.0,1
331.0,-572.0,-567.0,-2428.0,-1309.0,-510.0,1
201.0,-799.0,-636.0,-3253.0,-1312.0,-559.0,1
102.0,-1093.0,-599.0,-3778.0,-1298.0,-568.0,1
-85.0,-1382.0,-541.0,-3721.0,-1082.0,-631.0,1
-169.0,-1537.0,-453.0,-3267.0,-1015.0,-692.0,1
-120.0,-1503.0,-359.0,-2575.0,-997.0,-624.0,1
-111.0,-1222.0,-302.0,-1635.0,-959.0,-473.0,1
-157.0,-853.0,-272.0,-752.0,-970.0,-297.0,1
-216.0,-549.0,-265.0,-112.0,-1066.0,-123.0,1
-204.0,-317.0,-239.0,145.0,-1151.0,28.0,1
-247.0,-106.0,-202.0,134.0,-1170.0,121.0,1
-233.0,54.0,-179.0,-25.0,-1204.0,251.0,1
-167.0,151.0,-163.0,-323.0,-1284.0,367.0,1
-88.0,201.0,-142.0,-756.0,-1430.0,375.0,1
-26.0,218.0,-104.0,-1245.0,-1673.0,332.0,1
21.0,238.0,-103.0,-1678.0,-2038.0,304.0,1
55.0,229.0,-103.0,-1988.0,-2434.0,358.0,1
90.0,177.0,-152.0,-2084.0,-2727.0,475.0,1
108.0,118.0,-181.0,-2016.0,-2813.0,656.0,1
76.0,105.0,-202.0,-1820.0,-2723.0,753.0,1
40.0,118.0,-201.0,-1595.0,-2499.0,758.0,1
18.0,125.0,-193.0,-1457.0,-2190.0,772.0,1
0.0,115.0,-177.0,-1448.0,-1864.0,778.0,1
-35.0,84.0,-165.0,-1541.0,-1523.0,746.0,1
-50.0,50.0,-152.0,-1679.0,-1176.0,725.0,1
-38.0,13.0,-137.0,-1810.0,-867.0,720.0,1
-13.0,-12.0,-133.0,-1935.0,-642.0,711.0,1
8.0,-28.0,-131.0,-2053.0,-498.0,711.0,1
23.0,-39.0,-125.0,-2156.0,-415.0,737.0,1
39.0,-52.0,-107.0,-2227.0,-366.0,784.0,1
47.0,-59.0,-68.0,-2250.0,-335.0,844.0,1
40.0,-73.0,-17.0,-2242.0,-313.0,907.0,1
36.0,-96.0,38.0,-2230.0,-283.0,986.0,1
34.0,-112.0,73.0,-2239.0,-222.0,1071.0,1
23.0,-125.0,104.0,-2284.0,-135.0,1160.0,1
22.0,-134.0,111.0,-2297.0,-116.0,1238.0,1
24.0,-124.0,95.0,-2201.0,-251.0,1278.0,1
-1.0,-91.0,72.0,-2035.0,-469.0,1266.0,1
-37.0,-49.0,27.0,-1837.0,-635.0,1254.0,1
-74.0,-23.0,-29.0,-1589.0,-682.0,1252.0,1
-106.0,-2.0,-95.0,-1300.0,-652.0,1252.0,1
-139.0,18.0,-125.0,-1053.0,-602.0,1272.0,1
-155.0,48.0,-115.0,-906.0,-578.0,1302.0,1
-168.0,74.0,-88.0,-852.0,-612.0,1320.0,1
-156.0,82.0,-71.0,-863.0,-689.0,1330.0,1
-140.0,97.0,-79.0,-935.0,-759.0,1335.0,1
-118.0,103.0,-93.0,-1083.0,-800.0,1372.0,1
-89.0,95.0,-128.0,-1237.0,-817.0,1420.0,1
-57.0,81.0,-163.0,-1314.0,-778.0,1491.0,1
-28.0,87.0,-180.0,-1384.0,-728.0,1557.0,1
7.0,98.0,-192.0,-1449.0,-669.0,1607.0,1
37.0,104.0,-187.0,-1525.0,-614.0,1638.0,1
52.0,105.0,-188.0,-1586.0,-576.0,1656.0,1
28.0,93.0,-192.0,-1629.0,-525.0,1669.0,1
-28.0,70.0,-198.0,-1641.0,-421.0,1698.0,1
-108.0,48.0,-200.0,-1660.0,-301.0,1727.0,1
-196.0,17.0,-199.0,-1682.0,-173.0,1721.0,1
-278.0,0.0,-212.0,-1642.0,-100.0,1691.0,1
-344.0,-21.0,-244.0,-1576.0,-149.0,1622.0,1
-426.0,-23.0,-275.0,-1529.0,-270.0,1510.0,1
-528.0,-15.0,-324.0,-1447.0,-409.0,1383.0,1
-582.0,-10.0,-379.0,-1346.0,-564.0,1323.0,1
-361.0,166.0,-909.0,-1389.0,-748.0,1309.0,1
-2431.0,-981.0,-2200.0,-5388.0,3806.0,1585.0,1
707.0,756.0,327.0,-7648.0,10646.0,1937.0,1
1248.0,1356.0,-889.0,-3646.0,9481.0,2200.0,1
-409.0,121.0,-1113.0,-1208.0,5265.0,243.0,1
-342.0,-140.0,-1484.0,112.0,3099.0,-109.0,1
-211.0,-243.0,-1475.0,175.0,2437.0,-175.0,1
-196.0,-243.0,-1241.0,51.0,1639.0,-126.0,1
-249.0,-327.0,-1165.0,45.0,1049.0,-85.0,1
-181.0,-293.0,-901.0,-342.0,658.0,-53.0,1
-123.0,-311.0,-868.0,-573.0,446.0,30.0,1
-169.0,-332.0,-934.0,-654.0,190.0,99.0,1
-172.0,-315.0,-887.0,-692.0,-49.0,153.0,1
-192.0,-297.0,-727.0,-777.0,-202.0,179.0,1
-160.0,-217.0,-560.0,-836.0,-227.0,177.0,1
-118.0,-147.0,-444.0,-919.0,-234.0,183.0,1
-74.0,-101.0,-382.0,-1068.0,-255.0,190.0,1
-86.0,-76.0,-318.0,-1271.0,-294.0,192.0,1
-89.0,-65.0,-250.0,-1419.0,-295.0,167.0,1
-66.0,-134.0,-230.0,-1437.0,-258.0,125.0,1
-79.0,-63.0,-239.0,-1428.0,-221.0,89.0,1
-120.0,-276.0,-276.0,-1398.0,-171.0,51.0,1
-96.0,-167.0,-274.0,-1490.0,-81.0,79.0,1
-37.0,-96.0,-294.0,-1552.0,7.0,134.0,1
-24.0,-104.0,-314.0,-1644.0,35.0,194.0,1
-31.0,-38.0,-320.0,-1749.0,32.0,261.0,1
-19.0,-27.0,-285.0,-1806.0,2.0,322.0,1
-32.0,-64.0,-288.0,-1816.0,-40.0,359.0,1
-51.0,-91.0,-319.0,-1818.0,-104.0,387.0,1
-59.0,-102.0,-335.0,-1863.0,-188.0,436.0,1
-73.0,-103.0,-325.0,-1985.0,-292.0,556.0,1
-166.0,-116.0,-299.0,-2077.0,-416.0,770.0,1
-135.0,-102.0,-290.0,-2063.0,-578.0,1208.0,1
-62.0,-55.0,-281.0,-2091.0,-739.0,1622.0,1
-44.0,-47.0,-297.0,-2128.0,-889.0,1892.0,1
-37.0,-55.0,-313.0,-2210.0,-1033.0,2065.0,1
-41.0,-38.0,-334.0,-2343.0,-1173.0,2151.0,1
-29.0,-34.0,-330.0,-2516.0,-1309.0,2173.0,1
-17.0,-8.0,-340.0,-2706.0,-1440.0,2127.0,1
0.0,11.0,-319.0,-2932.0,-1533.0,1983.0,1
-4.0,1.0,-268.0,-3136.0,-1589.0,1777.0,1
-39.0,-11.0,-228.0,-3252.0,-1580.0,1560.0,1
-43.0,-18.0,-210.0,-3287.0,-1530.0,1423.0,1
-42.0,-11.0,-205.0,-3297.0,-1485.0,1328.0,1
-36.0,-5.0,-218.0,-3256.0,-1491.0,1271.0,1
-30.0,6.0,-227.0,-3189.0,-1514.0,1208.0,1
-35.0,6.0,-212.0,-3176.0,-1482.0,1118.0,1
-47.0,17.0,-190.0,-3213.0,-1370.0,1004.0,1
-85.0,-4.0,-140.0,-3210.0,-1236.0,895.0,1
-20.0,45.0,-191.0,-3048.0,-1131.0,858.0,1
-13.0,66.0,-213.0,-2942.0,-1026.0,726.0,1
-35.0,73.0,-216.0,-2854.0,-942.0,519.0,1
-48.0,62.0,-217.0,-2758.0,-901.0,320.0,1
-69.0,58.0,-206.0,-2671.0,-869.0,166.0,1
-82.0,56.0,-187.0,-2593.0,-820.0,73.0,1
-79.0,60.0,-185.0,-2485.0,-762.0,34.0,1
-104.0,64.0,-195.0,-2366.0,-701.0,5.0,1
-114.0,65.0,-214.0,-2223.0,-656.0,21.0,1
-98.0,71.0,-228.0,-2098.0,-613.0,67.0,1
-101.0,76.0,-234.0,-2024.0,-557.0,87.0,1
-89.0,80.0,-229.0,-1997.0,-492.0,80.0,1
-89.0,76.0,-216.0,-1992.0,-425.0,54.0,1
-87.0,84.0,-210.0,-1969.0,-382.0,39.0,1
-95.0,92.0,-211.0,-1902.0,-371.0,37.0,1
-99.0,107.0,-218.0,-1805.0,-388.0,49.0,1
-100.0,113.0,-220.0,-1703.0,-395.0,63.0,1
-95.0,123.0,-214.0,-1631.0,-377.0,42.0,1
-82.0,119.0,-206.0,-1577.0,-315.0,5.0,1
-87.0,123.0,-221.0,-1527.0,-239.0,-77.0,1
-99.0,109.0,-228.0,-1503.0,-180.0,-169.0,1
-114.0,122.0,-235.0,-1464.0,-141.0,-233.0,1
-135.0,125.0,-224.0,-1441.0,-107.0,-213.0,1
-126.0,113.0,-212.0,-1409.0,-63.0,-144.0,1
-129.0,118.0,-198.0,-1312.0,-19.0,-34.0,1
-338.0,137.0,-172.0,-1236.0,59.0,33.0,1
50.0,47.0,-189.0,-963.0,135.0,261.0,1
-40.0,147.0,-265.0,-847.0,85.0,258.0,1
-153.0,154.0,-247.0,-959.0,20.0,40.0,1
-151.0,116.0,-223.0,-994.0,28.0,-26.0,1
-138.0,112.0,-218.0,-967.0,48.0,0.0,1
-129.0,126.0,-215.0,-936.0,91.0,42.0,1
-106.0,131.0,-227.0,-889.0,123.0,93.0,1
-115.0,116.0,-221.0,-856.0,137.0,110.0,1
-125.0,117.0,-217.0,-806.0,120.0,109.0,1
-125.0,117.0,-212.0,-751.0,122.0,120.0,1
-119.0,122.0,-210.0,-697.0,142.0,132.0,1
-114.0,127.0,-211.0,-644.0,173.0,127.0,1
-121.0,123.0,-203.0,-614.0,235.0,132.0,1
-116.0,122.0,-203.0,-565.0,288.0,133.0,1
-114.0,124.0,-195.0,-511.0,346.0,127.0,1
-116.0,124.0,-191.0,-460.0,428.0,121.0,1
-107.0,120.0,-194.0,-405.0,510.0,127.0,1
-108.0,118.0,-196.0,-354.0,585.0,131.0,1
-106.0,124.0,-193.0,-308.0,641.0,142.0,1
-98.0,128.0,-192.0,-249.0,682.0,141.0,1
-106.0,128.0,-191.0,-161.0,713.0,132.0,1
-105.0,130.0,-195.0,-65.0,734.0,131.0,1
-101.0,124.0,-204.0,20.0,751.0,134.0,1
-102.0,124.0,-206.0,86.0,769.0,128.0,1
-104.0,133.0,-219.0,144.0,775.0,133.0,1
-95.0,117.0,-220.0,181.0,776.0,141.0,1
-98.0,121.0,-213.0,214.0,793.0,147.0,1
-88.0,127.0,-221.0,256.0,806.0,165.0,1
-94.0,136.0,-216.0,304.0,815.0,166.0,1
-86.0,121.0,-206.0,341.0,823.0,169.0,1
-78.0,120.0,-216.0,411.0,834.0,162.0,1
-112.0,133.0,-220.0,449.0,834.0,156.0,1
-68.0,120.0,-229.0,509.0,838.0,175.0,1
-97.0,130.0,-225.0,534.0,853.0,153.0,1
-60.0,116.0,-229.0,583.0,869.0,162.0,1
-85.0,131.0,-235.0,608.0,872.0,128.0,1
-98.0,163.0,-227.0,654.0,883.0,121.0,1
-45.0,99.0,-238.0,717.0,881.0,100.0,1
-104.0,132.0,-227.0,682.0,907.0,52.0,1
-78.0,121.0,-239.0,786.0,915.0,82.0,1
-56.0,78.0,-234.0,876.0,929.0,102.0,1
-233.0,185.0,-188.0,914.0,958.0,135.0,1
8.0,33.0,-223.0,1163.0,1023.0,344.0,1
26.0,102.0,-265.0,1185.0,1027.0,363.0,1
-67.0,142.0,-275.0,1114.0,938.0,203.0,1
-35.0,83.0,-279.0,1126.0,834.0,102.0,1
-83.0,116.0,-249.0,1057.0,766.0,53.0,1
-68.0,116.0,-251.0,1083.0,703.0,38.0,1
-18.0,55.0,-257.0,1135.0,669.0,49.0,1
-86.0,112.0,-251.0,1137.0,652.0,33.0,1
-51.0,65.0,-242.0,1226.0,651.0,81.0,1
-111.0,152.0,-230.0,1286.0,659.0,99.0,1
-72.0,110.0,-241.0,1402.0,664.0,144.0,1
-1.0,85.0,-271.0,1487.0,621.0,134.0,1
-43.0,75.0,-275.0,1484.0,556.0,41.0,1
-104.0,134.0,-262.0,1465.0,514.0,-9.0,1
-5.0,61.0,-255.0,1495.0,486.0,-9.0,1
-67.0,96.0,-247.0,1469.0,453.0,-47.0,1
-83.0,108.0,-261.0,1501.0,419.0,-66.0,1
-24.0,61.0,-271.0,1565.0,415.0,-64.0,1
-79.0,86.0,-284.0,1540.0,418.0,-62.0,1
-64.0,83.0,-291.0,1512.0,412.0,-62.0,1
-68.0,84.0,-291.0,1470.0,395.0,-70.0,1
-13.0,34.0,-279.0,1486.0,382.0,-65.0,1
-96.0,98.0,-284.0,1447.0,357.0,-91.0,1
-28.0,35.0,-296.0,1491.0,357.0,-77.0,1
-95.0,63.0,-285.0,1461.0,362.0,-51.0,1
36.0,57.0,-280.0,1487.0,380.0,-14.0,1
-93.0,60.0,-310.0,1476.0,300.0,-87.0,1
-56.0,49.0,-314.0,1398.0,261.0,-82.0,1
-89.0,72.0,-295.0,1239.0,244.0,-83.0,1
-27.0,49.0,-303.0,1165.0,234.0,-90.0,1
-115.0,91.0,-304.0,1082.0,192.0,-113.0,1
-33.0,23.0,-279.0,1082.0,206.0,-85.0,1
-54.0,49.0,-284.0,1054.0,180.0,-110.0,1
-42.0,77.0,-277.0,1027.0,159.0,-127.0,1
-64.0,59.0,-259.0,1049.0,171.0,-104.0,1
-32.0,31.0,-278.0,1099.0,180.0,-101.0,1
-62.0,35.0,-277.0,1067.0,154.0,-140.0,1
-68.0,49.0,-261.0,1043.0,167.0,-139.0,1
-40.0,47.0,-226.0,1119.0,208.0,-98.0,1
-33.0,28.0,-269.0,1197.0,216.0,-114.0,1
-52.0,15.0,-280.0,1225.0,211.0,-162.0,1
-35.0,34.0,-276.0,1232.0,245.0,-156.0,1
-39.0,23.0,-281.0,1266.0,262.0,-157.0,1
-39.0,30.0,-279.0,1264.0,249.0,-190.0,1
-75.0,62.0,-242.0,1298.0,267.0,-183.0,1
-60.0,22.0,-287.0,1348.0,257.0,-169.0,1
-87.0,72.0,-292.0,1272.0,242.0,-182.0,1
-33.0,-11.0,-297.0,1280.0,252.0,-176.0,1
-52.0,12.0,-311.0,1180.0,225.0,-172.0,1
-20.0,58.0,-302.0,1070.0,192.0,-177.0,1
-72.0,-4.0,-296.0,1047.0,156.0,-215.0,1
-52.0,16.0,-297.0,975.0,156.0,-198.0,1
-10.0,56.0,-254.0,948.0,159.0,-177.0,1
-59.0,-13.0,-279.0,1036.0,141.0,-220.0,1
-53.0,4.0,-297.0,1007.0,146.0,-223.0,1
-27.0,17.0,-280.0,1017.0,137.0,-229.0,1
-58.0,-7.0,-277.0,1031.0,135.0,-249.0,1
-22.0,39.0,-272.0,1034.0,144.0,-237.0,1
-75.0,-19.0,-283.0,1067.0,146.0,-260.0,1
-48.0,11.0,-284.0,1051.0,162.0,-239.0,1
-51.0,2.0,-242.0,1074.0,216.0,-203.0,1
-34.0,34.0,-243.0,1053.0,194.0,-197.0,1
-49.0,-25.0,-279.0,1127.0,155.0,-240.0,1
-55.0,-13.0,-283.0,1092.0,143.0,-241.0,1
-36.0,3.0,-274.0,1058.0,144.0,-229.0,1
-61.0,-32.0,-280.0,1086.0,152.0,-243.0,1
-46.0,-9.0,-282.0,1015.0,202.0,-218.0,1
-37.0,32.0,-275.0,986.0,245.0,-206.0,1
-72.0,-41.0,-290.0,1101.0,263.0,-234.0,1
-57.0,-15.0,-296.0,1043.0,301.0,-221.0,1
-39.0,36.0,-301.0,1021.0,306.0,-199.0,1
-49.0,-33.0,-299.0,1077.0,288.0,-212.0,1
-37.0,-4.0,-248.0,954.0,245.0,-196.0,1
-30.0,51.0,-248.0,944.0,214.0,-184.0,1
-42.0,-8.0,-255.0,1095.0,177.0,-214.0,1
-42.0,-4.0,-226.0,1100.0,152.0,-218.0,1
-15.0,-5.0,-233.0,1175.0,196.0,-217.0,1
-41.0,16.0,-198.0,1198.0,191.0,-234.0,1
-25.0,8.0,-215.0,1245.0,164.0,-235.0,1
-72.0,-94.0,-277.0,1307.0,192.0,-248.0,1
-65.0,-118.0,-342.0,1322.0,174.0,-252.0,1
-47.0,-82.0,-358.0,1191.0,140.0,-239.0,1
-58.0,-68.0,-324.0,1023.0,131.0,-215.0,1
-60.0,-98.0,-382.0,924.0,168.0,-181.0,1
-60.0,-98.0,-432.0,786.0,158.0,-133.0,1
-63.0,-70.0,-422.0,542.0,98.0,-74.0,1
-49.0,-62.0,-416.0,375.0,48.0,-37.0,1
-49.0,-100.0,-392.0,273.0,32.0,-53.0,1
-55.0,-60.0,-358.0,162.0,36.0,-68.0,1
-55.0,-51.0,-348.0,130.0,49.0,-92.0,1
-39.0,-27.0,-338.0,187.0,62.0,-162.0,1
-20.0,1.0,-316.0,293.0,62.0,-275.0,1
-18.0,15.0,-292.0,420.0,32.0,-432.0,1
-18.0,73.0,-291.0,548.0,-7.0,-605.0,1
-17.0,69.0,-265.0,624.0,-96.0,-830.0,1
-15.0,139.0,-283.0,688.0,-234.0,-1071.0,1
-6.0,121.0,-288.0,667.0,-397.0,-1377.0,1
-32.0,201.0,-316.0,573.0,-630.0,-1656.0,1
-12.0,150.0,-286.0,371.0,-905.0,-1997.0,1
-26.0,35.0,-250.0,199.0,-1077.0,-2159.0,1
-41.0,-2.0,-249.0,107.0,-1186.0,-2163.0,1
-97.0,86.0,-311.0,23.0,-1247.0,-2028.0,1
-11.0,-20.0,-192.0,-185.0,-1344.0,-1889.0,1
-96.0,61.0,-271.0,-131.0,-1387.0,-1837.0,1
-75.0,-126.0,-187.0,-148.0,-1366.0,-1514.0,1
32.0,-123.0,-223.0,-117.0,-1297.0,-1203.0,1
48.0,-199.0,-167.0,-318.0,-1205.0,-1105.0,1
-33.0,-240.0,-210.0,-309.0,-1065.0,-1115.0,1
-62.0,-201.0,-198.0,-320.0,-943.0,-1012.0,1
60.0,-211.0,-218.0,-401.0,-854.0,-635.0,1
-1.0,-223.0,-223.0,-339.0,-781.0,-561.0,1
-44.0,-170.0,-247.0,-220.0,-775.0,-576.0,1
-70.0,-136.0,-219.0,-243.0,-762.0,-441.0,1
-5.0,-195.0,-205.0,-253.0,-734.0,-225.0,1
-68.0,-173.0,-199.0,-106.0,-655.0,-239.0,1
-57.0,-145.0,-199.0,30.0,-505.0,-206.0,1
-58.0,-125.0,-211.0,178.0,-313.0,-177.0,1
-46.0,-98.0,-209.0,309.0,-118.0,-200.0,1
-50.0,-88.0,-223.0,405.0,53.0,-222.0,1
-57.0,-89.0,-232.0,455.0,212.0,-240.0,1
-50.0,-89.0,-266.0,497.0,339.0,-241.0,1
-42.0,-94.0,-261.0,462.0,427.0,-257.0,1
-55.0,-104.0,-281.0,420.0,471.0,-256.0,1
-67.0,-111.0,-300.0,370.0,514.0,-240.0,1
-55.0,-103.0,-308.0,325.0,559.0,-207.0,1
-70.0,-98.0,-317.0,288.0,564.0,-183.0,1
-68.0,-102.0,-329.0,251.0,539.0,-157.0,1
-86.0,-98.0,-334.0,194.0,490.0,-126.0,1
-65.0,-116.0,-335.0,128.0,437.0,-97.0,1
-67.0,-106.0,-339.0,49.0,370.0,-60.0,1
-66.0,-105.0,-331.0,-34.0,319.0,-24.0,1
-64.0,-97.0,-324.0,-118.0,275.0,6.0,1
-59.0,-94.0,-317.0,-199.0,241.0,33.0,1
-54.0,-90.0,-308.0,-273.0,213.0,56.0,1
-51.0,-83.0,-303.0,-331.0,186.0,77.0,1
-52.0,-76.0,-291.0,-377.0,160.0,96.0,1
-50.0,-70.0,-286.0,-411.0,143.0,111.0,1
-49.0,-66.0,-275.0,-432.0,127.0,123.0,1
-49.0,-60.0,-271.0,-442.0,112.0,135.0,1
-48.0,-59.0,-264.0,-447.0,97.0,143.0,1
-49.0,-54.0,-260.0,-444.0,85.0,150.0,1
-49.0,-51.0,-258.0,-429.0,77.0,151.0,1
-49.0,-55.0,-257.0,-409.0,77.0,147.0,1
-47.0,-49.0,-260.0,-382.0,78.0,146.0,1
-46.0,-47.0,-259.0,-358.0,80.0,142.0,1
-47.0,-51.0,-259.0,-331.0,78.0,140.0,1
-49.0,-50.0,-259.0,-311.0,71.0,134.0,1
-44.0,-53.0,-259.0,-290.0,65.0,133.0,1
-45.0,-55.0,-258.0,-278.0,62.0,134.0,1
-48.0,-50.0,-255.0,-267.0,64.0,137.0,1
-52.0,-54.0,-256.0,-248.0,75.0,129.0,1
-47.0,-56.0,-260.0,-231.0,94.0,125.0,1
-48.0,-50.0,-258.0,-223.0,117.0,128.0,1
-36.0,-51.0,-256.0,-207.0,133.0,127.0,1
-41.0,-55.0,-261.0,-182.0,147.0,115.0,1
-48.0,-60.0,-267.0,-168.0,162.0,108.0,1
-49.0,-56.0,-268.0,-164.0,182.0,108.0,1
-53.0,-57.0,-267.0,-152.0,207.0,103.0,1
-44.0,-57.0,-269.0,-138.0,230.0,98.0,1
-45.0,-61.0,-274.0,-118.0,239.0,87.0,1
-44.0,-57.0,-278.0,-113.0,243.0,89.0,1
-41.0,-57.0,-279.0,-113.0,245.0,92.0,1
-43.0,-58.0,-274.0,-111.0,242.0,91.0,1
-43.0,-51.0,-275.0,-103.0,237.0,86.0,1
-45.0,-56.0,-280.0,-93.0,227.0,80.0,1
-46.0,-53.0,-278.0,-101.0,218.0,78.0,1
-39.0,-54.0,-277.0,-100.0,209.0,76.0,1
-41.0,-53.0,-284.0,-99.0,196.0,70.0,1
-41.0,-48.0,-276.0,-95.0,185.0,60.0,1
-50.0,-56.0,-281.0,-87.0,180.0,49.0,1
-43.0,-57.0,-276.0,-85.0,170.0,44.0,1
-40.0,-55.0,-275.0,-89.0,157.0,43.0,1
-43.0,-49.0,-275.0,-89.0,149.0,40.0,1
-44.0,-50.0,-271.0,-83.0,142.0,33.0,1
-38.0,-51.0,-268.0,-75.0,136.0,26.0,1
-41.0,-55.0,-269.0,-68.0,134.0,19.0,1
-40.0,-52.0,-266.0,-61.0,135.0,14.0,1
-41.0,-54.0,-271.0,-52.0,140.0,9.0,1
-39.0,-54.0,-269.0,-45.0,147.0,3.0,1
-41.0,-52.0,-268.0,-37.0,156.0,0.0,1
-42.0,-53.0,-269.0,-33.0,164.0,-3.0,1
-38.0,-55.0,-270.0,-28.0,175.0,-7.0,1
-38.0,-53.0,-272.0,-22.0,191.0,-9.0,1
-39.0,-56.0,-278.0,-17.0,207.0,-15.0,1
-35.0,-59.0,-277.0,-15.0,214.0,-17.0,1
-37.0,-57.0,-268.0,-11.0,217.0,-20.0,1
-39.0,-55.0,-273.0,-5.0,218.0,-21.0,1
-35.0,-56.0,-276.0,4.0,218.0,-24.0,1
-35.0,-57.0,-273.0,10.0,215.0,-26.0,1
-51.0,-45.0,-284.0,18.0,210.0,-27.0,1
-40.0,-54.0,-280.0,25.0,203.0,-32.0,1
-37.0,-55.0,-280.0,30.0,187.0,-31.0,1
-36.0,-57.0,-279.0,35.0,175.0,-30.0,1
-31.0,-65.0,-283.0,36.0,163.0,-31.0,1
-35.0,-58.0,-282.0,28.0,141.0,-29.0,1
-34.0,-53.0,-279.0,19.0,121.0,-29.0,1
-35.0,-55.0,-280.0,13.0,105.0,-29.0,1
-36.0,-57.0,-276.0,7.0,91.0,-28.0,1
-33.0,-55.0,-276.0,5.0,83.0,-29.0,1
-34.0,-54.0,-273.0,13.0,84.0,-30.0,1
-36.0,-57.0,-272.0,19.0,86.0,-32.0,1
-38.0,-56.0,-275.0,22.0,86.0,-33.0,1
-33.0,-57.0,-278.0,20.0,85.0,-31.0,1
-42.0,-47.0,-278.0,19.0,85.0,-32.0,1
-37.0,-58.0,-281.0,15.0,77.0,-31.0,1
-31.0,-58.0,-277.0,13.0,65.0,-30.0,1
-33.0,-59.0,-283.0,10.0,49.0,-28.0,1
-35.0,-62.0,-280.0,6.0,36.0,-25.0,1
-36.0,-56.0,-276.0,0.0,26.0,-24.0,1
-36.0,-60.0,-276.0,-4.0,20.0,-21.0,1
-38.0,-58.0,-275.0,-9.0,17.0,-18.0,1
-35.0,-59.0,-275.0,-11.0,18.0,-17.0,1
-34.0,-60.0,-270.0,-13.0,21.0,-16.0,1
-34.0,-60.0,-275.0,-15.0,25.0,-14.0,1
-32.0,-60.0,-273.0,-18.0,30.0,-13.0,1
-34.0,-57.0,-274.0,-20.0,33.0,-12.0,1
-34.0,-60.0,-280.0,-25.0,36.0,-11.0,1
-31.0,-58.0,-281.0,-27.0,36.0,-10.0,1
-32.0,-57.0,-273.0,-31.0,36.0,-9.0,1
-29.0,-61.0,-278.0,-33.0,37.0,-8.0,1
-34.0,-57.0,-275.0,-36.0,36.0,-7.0,1
-38.0,-60.0,-275.0,-40.0,37.0,-8.0,1
-36.0,-74.0,-270.0,-43.0,39.0,-5.0,1
-35.0,-59.0,-279.0,-47.0,40.0,-6.0,1
-33.0,-57.0,-275.0,-49.0,39.0,-5.0,1
-31.0,-58.0,-275.0,-49.0,38.0,-4.0,1
-36.0,-58.0,-278.0,-51.0,38.0,-5.0,1
-34.0,-57.0,-279.0,-53.0,36.0,-3.0,1
-34.0,-59.0,-272.0,-52.0,37.0,-3.0,1
-27.0,-56.0,-271.0,-50.0,38.0,-4.0,1
-34.0,-58.0,-275.0,-47.0,40.0,-5.0,1
-36.0,-59.0,-275.0,-47.0,41.0,-5.0,1
-33.0,-55.0,-276.0,-50.0,42.0,-4.0,1
-28.0,-58.0,-280.0,-49.0,41.0,-4.0,1
-33.0,-59.0,-277.0,-47.0,41.0,-6.0,1
-36.0,-57.0,-277.0,-48.0,40.0,-7.0,1
-33.0,-55.0,-281.0,-50.0,39.0,-6.0,1
-33.0,-56.0,-282.0,-57.0,38.0,-2.0,1
-25.0,-61.0,-284.0,-62.0,36.0,-2.0,1
-43.0,-61.0,-274.0,-65.0,33.0,-5.0,1
-40.0,-60.0,-277.0,-64.0,25.0,-3.0,1
-32.0,-59.0,-274.0,-63.0,21.0,-3.0,1
-35.0,-55.0,-269.0,-60.0,15.0,-2.0,1
-33.0,-56.0,-270.0,-50.0,12.0,-3.0,1
-32.0,-57.0,-263.0,-34.0,13.0,-7.0,1
-37.0,-58.0,-272.0,-20.0,12.0,-9.0,1
-35.0,-59.0,-277.0,-15.0,18.0,-11.0,1
-35.0,-57.0,-277.0,-15.0,28.0,-11.0,1
-33.0,-59.0,-279.0,-18.0,36.0,-12.0,1
-31.0,-62.0,-281.0,-23.0,38.0,-12.0,1
-34.0,-55.0,-278.0,-30.0,35.0,-11.0,1
-30.0,-57.0,-280.0,-38.0,29.0,-9.0,1
-31.0,-56.0,-275.0,-38.0,24.0,-9.0,1
-29.0,-56.0,-271.0,-32.0,21.0,-8.0,1
-33.0,-57.0,-273.0,-29.0,13.0,-9.0,1
-33.0,-57.0,-269.0,-23.0,7.0,-9.0,1
-37.0,-55.0,-265.0,-18.0,5.0,-10.0,1
-34.0,-59.0,-275.0,-11.0,2.0,-11.0,1
-35.0,-56.0,-270.0,-8.0,1.0,-13.0,1
-34.0,-56.0,-273.0,-3.0,2.0,-13.0,1
-35.0,-57.0,-277.0,-2.0,3.0,-14.0,1
-35.0,-59.0,-276.0,-1.0,2.0,-15.0,1
-35.0,-57.0,-277.0,-1.0,5.0,-15.0,1
-35.0,-58.0,-278.0,-4.0,5.0,-13.0,1
-34.0,-60.0,-277.0,-9.0,6.0,-12.0,1
-35.0,-56.0,-274.0,-13.0,6.0,-12.0,1
-38.0,-65.0,-278.0,-17.0,7.0,-11.0,1
-33.0,-63.0,-277.0,-12.0,20.0,-11.0,1
-35.0,-62.0,-275.0,-22.0,15.0,-10.0,1
-34.0,-60.0,-278.0,-22.0,16.0,-8.0,1
-37.0,-58.0,-277.0,-27.0,18.0,-7.0,1
-36.0,-57.0,-273.0,-30.0,18.0,-4.0,1
-34.0,-61.0,-273.0,-35.0,17.0,-5.0,1
-34.0,-58.0,-273.0,-37.0,20.0,-5.0,1
-33.0,-60.0,-273.0,-40.0,22.0,-5.0,1
-34.0,-58.0,-272.0,-42.0,26.0,-6.0,1
-32.0,-58.0,-275.0,-41.0,27.0,-5.0,1
-32.0,-59.0,-274.0,-41.0,27.0,-6.0,1
-32.0,-64.0,-275.0,-41.0,29.0,-6.0,1
-31.0,-61.0,-272.0,-38.0,30.0,-8.0,1
-34.0,-59.0,-272.0,-37.0,30.0,-5.0,1
-34.0,-63.0,-272.0,-36.0,32.0,-6.0,1
-32.0,-63.0,-275.0,-33.0,33.0,-7.0,1
-31.0,-63.0,-276.0,-32.0,34.0,-9.0,1
-31.0,-62.0,-272.0,-34.0,35.0,-7.0,1
-35.0,-60.0,-275.0,-33.0,36.0,-6.0,1
-32.0,-61.0,-273.0,-35.0,38.0,-5.0,1
-35.0,-59.0,-276.0,-35.0,40.0,-5.0,1
-32.0,-58.0,-274.0,-33.0,42.0,-8.0,1
-33.0,-58.0,-269.0,-31.0,44.0,-7.0,1
-35.0,-59.0,-272.0,-31.0,46.0,-7.0,1
-33.0,-60.0,-277.0,-28.0,48.0,-8.0,1
-35.0,-57.0,-270.0,-28.0,49.0,-8.0,1
-33.0,-59.0,-270.0,-28.0,51.0,-8.0,1
-33.0,-57.0,-271.0,-25.0,52.0,-9.0,1
-31.0,-59.0,-273.0,-23.0,54.0,-9.0,1
-33.0,-57.0,-270.0,-21.0,57.0,-9.0,1
-34.0,-57.0,-276.0,-18.0,59.0,-10.0,1
-31.0,-58.0,-275.0,-16.0,62.0,-11.0,1
-30.0,-61.0,-273.0,-15.0,62.0,-10.0,1
-32.0,-58.0,-277.0,-15.0,60.0,-11.0,1
-36.0,-61.0,-281.0,-16.0,58.0,-12.0,1
-33.0,-61.0,-277.0,-19.0,58.0,-10.0,1
-31.0,-61.0,-273.0,-24.0,56.0,-9.0,1
-32.0,-62.0,-276.0,-27.0,55.0,-11.0,1
-33.0,-60.0,-278.0,-30.0,54.0,-10.0,1
-34.0,-61.0,-281.0,-35.0,50.0,-9.0,1
-32.0,-60.0,-277.0,-36.0,47.0,-7.0,1
-31.0,-57.0,-278.0,-38.0,44.0,-8.0,1
-31.0,-59.0,-276.0,-38.0,40.0,-10.0,1
-34.0,-60.0,-275.0,-38.0,36.0,-9.0,1
-33.0,-57.0,-280.0,-38.0,34.0,-8.0,1
-34.0,-60.0,-276.0,-39.0,34.0,-7.0,1
-33.0,-55.0,-277.0,-41.0,32.0,-8.0,1
-29.0,-61.0,-279.0,-39.0,30.0,-8.0,1
-30.0,-59.0,-277.0,-41.0,29.0,-7.0,1
-34.0,-60.0,-275.0,-41.0,27.0,-7.0,1
-29.0,-60.0,-277.0,-43.0,24.0,-6.0,1
-30.0,-58.0,-274.0,-45.0,21.0,-7.0,1
-31.0,-58.0,-273.0,-46.0,20.0,-7.0,1
-32.0,-62.0,-277.0,-48.0,19.0,-5.0,1
-35.0,-61.0,-277.0,-48.0,18.0,-5.0,1
-36.0,-58.0,-272.0,-49.0,18.0,-5.0,1
-33.0,-58.0,-275.0,-48.0,18.0,-5.0,1
-32.0,-59.0,-276.0,-48.0,19.0,-5.0,1
-32.0,-59.0,-271.0,-50.0,19.0,-6.0,1
-33.0,-58.0,-276.0,-48.0,20.0,-4.0,1
-32.0,-58.0,-273.0,-46.0,19.0,-4.0,1
-31.0,-59.0,-277.0,-46.0,17.0,-4.0,1
-31.0,-57.0,-276.0,-44.0,16.0,-5.0,1
-32.0,-59.0,-277.0,-45.0,14.0,-5.0,1
-29.0,-59.0,-274.0,-44.0,14.0,-5.0,1
-31.0,-60.0,-276.0,-44.0,12.0,-5.0,1
-29.0,-61.0,-276.0,-42.0,10.0,-5.0,1
-32.0,-59.0,-279.0,-42.0,8.0,-5.0,1
-31.0,-59.0,-274.0,-40.0,8.0,-6.0,1
-29.0,-59.0,-275.0,-38.0,6.0,-6.0,1
-32.0,-61.0,-271.0,-39.0,4.0,-6.0,1
-30.0,-60.0,-270.0,-42.0,2.0,-5.0,1
-37.0,-58.0,-273.0,-41.0,3.0,-5.0,1
-32.0,-61.0,-272.0,-40.0,3.0,-4.0,1
-32.0,-59.0,-273.0,-40.0,5.0,-5.0,1
-33.0,-60.0,-270.0,-41.0,5.0,-5.0,1
-30.0,-62.0,-272.0,-42.0,8.0,-7.0,1
-35.0,-61.0,-271.0,-39.0,9.0,-7.0,1
-34.0,-58.0,-276.0,-37.0,10.0,-6.0,1
-28.0,-63.0,-274.0,-36.0,14.0,-7.0,1
-32.0,-60.0,-274.0,-36.0,18.0,-6.0,1
-34.0,-60.0,-274.0,-35.0,19.0,-6.0,1
-31.0,-58.0,-277.0,-36.0,21.0,-5.0,1
-32.0,-61.0,-272.0,-35.0,22.0,-6.0,1
-32.0,-61.0,-277.0,-35.0,22.0,-6.0,1
-31.0,-63.0,-279.0,-37.0,24.0,-6.0,1
-30.0,-60.0,-275.0,-37.0,23.0,-7.0,1
-32.0,-59.0,-275.0,-36.0,23.0,-6.0,1
-31.0,-56.0,-276.0,-37.0,22.0,-5.0,1
-30.0,-60.0,-276.0,-35.0,21.0,-6.0,1
-35.0,-59.0,-279.0,-37.0,20.0,-5.0,1
-34.0,-57.0,-275.0,-37.0,18.0,-5.0,1
-32.0,-62.0,-273.0,-37.0,17.0,-6.0,1
-33.0,-61.0,-271.0,-40.0,15.0,-6.0,1
-33.0,-61.0,-274.0,-40.0,13.0,-5.0,1
-31.0,-58.0,-272.0,-41.0,10.0,-5.0,1
-34.0,-57.0,-274.0,-43.0,11.0,-5.0,1
-32.0,-58.0,-273.0,-46.0,9.0,-5.0,1
-31.0,-59.0,-271.0,-46.0,10.0,-4.0,1
-33.0,-64.0,-269.0,-44.0,13.0,-5.0,1
-33.0,-60.0,-274.0,-42.0,16.0,-5.0,1
-31.0,-60.0,-275.0,-41.0,17.0,-6.0,1
-34.0,-62.0,-278.0,-43.0,18.0,-6.0,1
-31.0,-59.0,-273.0,-43.0,18.0,-6.0,1
-30.0,-60.0,-275.0,-44.0,19.0,-7.0,1
-31.0,-61.0,-273.0,-43.0,19.0,-7.0,1
-30.0,-62.0,-271.0,-43.0,21.0,-6.0,1
-29.0,-60.0,-272.0,-45.0,21.0,-6.0,1
-31.0,-57.0,-277.0,-48.0,21.0,-5.0,1
-31.0,-59.0,-271.0,-49.0,22.0,-5.0,1
-30.0,-61.0,-271.0,-50.0,22.0,-3.0,1
-30.0,-58.0,-276.0,-47.0,24.0,-4.0,1
-31.0,-60.0,-275.0,-44.0,25.0,-6.0,1
-33.0,-59.0,-276.0,-39.0,28.0,-7.0,1
-32.0,-58.0,-278.0,-40.0,27.0,-6.0,1
-32.0,-62.0,-273.0,-44.0,29.0,-5.0,1
-32.0,-62.0,-275.0,-48.0,30.0,-4.0,1
-33.0,-61.0,-276.0,-49.0,30.0,-4.0,1
-29.0,-63.0,-278.0,-50.0,32.0,-4.0,1
-32.0,-70.0,-274.0,-50.0,30.0,-5.0,1
-29.0,-62.0,-275.0,-50.0,29.0,-5.0,1
-28.0,-62.0,-277.0,-50.0,27.0,-5.0,1
-31.0,-59.0,-272.0,-50.0,26.0,-4.0,1
-32.0,-59.0,-276.0,-51.0,24.0,-5.0,1
-32.0,-62.0,-280.0,-51.0,21.0,-4.0,1
-34.0,-58.0,-274.0,-54.0,18.0,-5.0,1
-33.0,-59.0,-275.0,-53.0,16.0,-3.0,1
-30.0,-60.0,-271.0,-54.0,16.0,-3.0,1
-34.0,-58.0,-273.0,-56.0,14.0,-4.0,1
-32.0,-58.0,-275.0,-56.0,14.0,-4.0,1
-31.0,-60.0,-276.0,-56.0,14.0,-3.0,1
-32.0,-59.0,-272.0,-55.0,13.0,-2.0,1
-34.0,-57.0,-275.0,-56.0,13.0,-4.0,1
-30.0,-57.0,-276.0,-54.0,13.0,-4.0,1
-33.0,-58.0,-274.0,-54.0,12.0,-3.0,1
-30.0,-60.0,-272.0,-52.0,13.0,-3.0,1
-35.0,-57.0,-275.0,-53.0,12.0,-3.0,1
-34.0,-60.0,-278.0,-53.0,10.0,-2.0,1
-33.0,-58.0,-274.0,-53.0,13.0,-3.0,1
-31.0,-60.0,-275.0,-51.0,12.0,-3.0,1
-33.0,-59.0,-278.0,-50.0,14.0,-5.0,1
-31.0,-59.0,-274.0,-50.0,13.0,-4.0,1
-31.0,-63.0,-278.0,-50.0,14.0,-4.0,1
-29.0,-58.0,-274.0,-50.0,13.0,-4.0,1
-30.0,-63.0,-277.0,-49.0,13.0,-4.0,1
-33.0,-62.0,-276.0,-51.0,12.0,-4.0,1
-31.0,-61.0,-276.0,-50.0,13.0,-3.0,1
-32.0,-58.0,-276.0,-49.0,13.0,-4.0,1
-32.0,-57.0,-270.0,-51.0,13.0,-3.0,1
-29.0,-63.0,-273.0,-52.0,14.0,-4.0,1
-32.0,-60.0,-273.0,-51.0,14.0,-3.0,1
-33.0,-60.0,-271.0,-50.0,15.0,-3.0,1
-28.0,-59.0,-273.0,-49.0,16.0,-3.0,1
-31.0,-60.0,-274.0,-49.0,16.0,-5.0,1
-32.0,-57.0,-272.0,-49.0,16.0,-5.0,1
-32.0,-59.0,-272.0,-48.0,17.0,-4.0,1
-30.0,-60.0,-275.0,-46.0,17.0,-5.0,1
-31.0,-61.0,-276.0,-46.0,18.0,-5.0,1
-31.0,-59.0,-273.0,-46.0,19.0,-5.0,1
-32.0,-62.0,-274.0,-46.0,18.0,-5.0,1
-32.0,-60.0,-273.0,-45.0,19.0,-5.0,1
-32.0,-59.0,-275.0,-46.0,18.0,-4.0,1
-30.0,-60.0,-275.0,-45.0,19.0,-4.0,1
-32.0,-61.0,-272.0,-46.0,17.0,-5.0,1
-31.0,-61.0,-275.0,-49.0,15.0,-5.0,1
-28.0,-65.0,-275.0,-50.0,14.0,-4.0,1
-27.0,-60.0,-277.0,-52.0,14.0,-5.0,1
-31.0,-60.0,-275.0,-51.0,15.0,-4.0,1
-31.0,-63.0,-274.0,-49.0,15.0,-5.0,1
-34.0,-58.0,-274.0,-50.0,15.0,-4.0,1
-32.0,-60.0,-271.0,-50.0,14.0,-4.0,1
-33.0,-59.0,-274.0,-51.0,15.0,-4.0,1
-30.0,-59.0,-276.0,-49.0,15.0,-5.0,1
-31.0,-64.0,-275.0,-50.0,15.0,-4.0,1
-33.0,-58.0,-274.0,-50.0,16.0,-4.0,1
-31.0,-59.0,-279.0,-49.0,17.0,-4.0,1
-31.0,-59.0,-278.0,-51.0,17.0,-5.0,1
-34.0,-57.0,-274.0,-49.0,18.0,-5.0,1
-30.0,-61.0,-274.0,-49.0,16.0,-5.0,1
-33.0,-59.0,-276.0,-48.0,17.0,-5.0,1
-30.0,-61.0,-275.0,-49.0,17.0,-4.0,1
-33.0,-59.0,-275.0,-50.0,17.0,-4.0,1
-32.0,-59.0,-276.0,-49.0,17.0,-3.0,1
-33.0,-59.0,-278.0,-49.0,16.0,-4.0,1
-34.0,-61.0,-277.0,-51.0,14.0,-3.0,1
-31.0,-59.0,-275.0,-52.0,14.0,-3.0,1
-33.0,-58.0,-275.0,-54.0,15.0,-4.0,1
-30.0,-60.0,-275.0,-54.0,16.0,-3.0,1
-33.0,-59.0,-276.0,-54.0,16.0,-4.0,1
-32.0,-61.0,-274.0,-52.0,16.0,-3.0,1
-32.0,-61.0,-276.0,-52.0,16.0,-3.0,1
-31.0,-59.0,-271.0,-53.0,17.0,-3.0,1
-34.0,-63.0,-273.0,-52.0,18.0,-3.0,1
-31.0,-59.0,-271.0,-50.0,19.0,-5.0,1
-30.0,-58.0,-269.0,-49.0,20.0,-4.0,1
-34.0,-59.0,-277.0,-48.0,18.0,-6.0,1
-32.0,-58.0,-274.0,-49.0,21.0,-5.0,1
-31.0,-59.0,-275.0,-49.0,20.0,-5.0,1
-31.0,-57.0,-276.0,-48.0,20.0,-5.0,1
-33.0,-55.0,-273.0,-48.0,20.0,-4.0,1
-34.0,-57.0,-275.0,-47.0,19.0,-5.0,1
-31.0,-57.0,-270.0,-48.0,20.0,-5.0,1
-32.0,-59.0,-277.0,-45.0,19.0,-4.0,1
-32.0,-59.0,-272.0,-45.0,19.0,-4.0,1
-31.0,-59.0,-276.0,-43.0,20.0,-4.0,1
-32.0,-59.0,-273.0,-44.0,21.0,-5.0,1
-30.0,-59.0,-279.0,-43.0,20.0,-5.0,1
-31.0,-61.0,-272.0,-44.0,20.0,-4.0,1
-31.0,-61.0,-275.0,-45.0,20.0,-5.0,1
-28.0,-63.0,-275.0,-45.0,20.0,-4.0,1
-32.0,-60.0,-274.0,-45.0,20.0,-5.0,1
-31.0,-62.0,-273.0,-45.0,21.0,-5.0,1
-32.0,-61.0,-273.0,-45.0,20.0,-5.0,1
-34.0,-57.0,-272.0,-45.0,19.0,-4.0,1
-33.0,-60.0,-277.0,-44.0,19.0,-3.0,1
-31.0,-61.0,-275.0,-44.0,17.0,-4.0,1
-32.0,-60.0,-273.0,-43.0,18.0,-4.0,1
-32.0,-61.0,-278.0,-46.0,18.0,-5.0,1
-32.0,-62.0,-277.0,-46.0,19.0,-4.0,1
-30.0,-60.0,-273.0,-46.0,19.0,-4.0,1
-31.0,-60.0,-274.0,-44.0,18.0,-4.0,1
-34.0,-57.0,-276.0,-43.0,19.0,-4.0,1
-31.0,-63.0,-273.0,-43.0,19.0,-4.0,1
-29.0,-61.0,-275.0,-45.0,19.0,-5.0,1
-33.0,-58.0,-274.0,-46.0,19.0,-5.0,1
-33.0,-60.0,-274.0,-46.0,19.0,-4.0,1
-31.0,-57.0,-278.0,-48.0,19.0,-3.0,1
-33.0,-57.0,-279.0,-47.0,20.0,-4.0,1
-34.0,-58.0,-274.0,-45.0,20.0,-5.0,1
-34.0,-56.0,-276.0,-45.0,21.0,-4.0,1
-32.0,-59.0,-277.0,-44.0,21.0,-4.0,1
-32.0,-62.0,-272.0,-45.0,20.0,-4.0,1
-30.0,-61.0,-276.0,-45.0,19.0,-5.0,1
-33.0,-58.0,-276.0,-45.0,17.0,-3.0,1
-30.0,-57.0,-275.0,-46.0,16.0,-4.0,1
-32.0,-58.0,-276.0,-43.0,16.0,-4.0,1
-31.0,-58.0,-279.0,-45.0,16.0,-5.0,1
-31.0,-59.0,-274.0,-45.0,16.0,-5.0,1
-33.0,-58.0,-278.0,-45.0,15.0,-4.0,1
-30.0,-58.0,-272.0,-46.0,15.0,-5.0,1
-34.0,-57.0,-274.0,-46.0,14.0,-4.0,1
-33.0,-57.0,-276.0,-47.0,16.0,-5.0,1
-31.0,-58.0,-276.0,-44.0,15.0,-5.0,1
-32.0,-61.0,-274.0,-44.0,18.0,-5.0,1
-31.0,-60.0,-277.0,-43.0,17.0,-4.0,1
-32.0,-62.0,-272.0,-41.0,18.0,-4.0,1
-32.0,-58.0,-278.0,-41.0,19.0,-6.0,1
-30.0,-61.0,-277.0,-41.0,17.0,-6.0,1
-33.0,-58.0,-273.0,-41.0,17.0,-5.0,1
-30.0,-62.0,-274.0,-44.0,17.0,-4.0,1
-29.0,-63.0,-272.0,-43.0,18.0,-5.0,1
-30.0,-61.0,-274.0,-44.0,18.0,-6.0,1
-32.0,-62.0,-280.0,-41.0,18.0,-6.0,1
-32.0,-61.0,-275.0,-41.0,19.0,-5.0,1
-31.0,-59.0,-273.0,-42.0,20.0,-5.0,1
-29.0,-62.0,-275.0,-42.0,20.0,-6.0,1
-32.0,-59.0,-276.0,-40.0,21.0,-6.0,1
-28.0,-58.0,-277.0,-39.0,21.0,-6.0,1
-32.0,-59.0,-274.0,-41.0,22.0,-7.0,1
-32.0,-61.0,-278.0,-39.0,22.0,-5.0,1
-30.0,-53.0,-268.0,-40.0,21.0,-7.0,1
-32.0,-60.0,-271.0,-40.0,21.0,-6.0,1
-32.0,-56.0,-271.0,-41.0,22.0,-5.0,1
-34.0,-61.0,-275.0,-42.0,23.0,-4.0,1
-31.0,-58.0,-277.0,-41.0,22.0,-5.0,1
-31.0,-58.0,-274.0,-40.0,23.0,-6.0,1
-33.0,-58.0,-274.0,-40.0,23.0,-6.0,1
-32.0,-60.0,-275.0,-40.0,23.0,-5.0,1
-30.0,-61.0,-277.0,-40.0,22.0,-7.0,1
-32.0,-59.0,-280.0,-40.0,21.0,-6.0,1
-33.0,-58.0,-278.0,-41.0,22.0,-7.0,1
-28.0,-60.0,-283.0,-41.0,22.0,-6.0,1
-29.0,-60.0,-276.0,-41.0,21.0,-6.0,1
-30.0,-59.0,-275.0,-43.0,19.0,-5.0,1
-30.0,-62.0,-275.0,-44.0,17.0,-5.0,1
-30.0,-62.0,-278.0,-42.0,19.0,-5.0,1
-32.0,-62.0,-278.0,-40.0,19.0,-5.0,1
-31.0,-59.0,-278.0,-39.0,18.0,-6.0,1
-31.0,-61.0,-270.0,-39.0,18.0,-6.0,1
-31.0,-63.0,-278.0,-42.0,17.0,-7.0,1
-31.0,-62.0,-273.0,-41.0,18.0,-6.0,1
-29.0,-62.0,-274.0,-41.0,17.0,-5.0,1
-29.0,-69.0,-270.0,-41.0,17.0,-6.0,1
-32.0,-59.0,-275.0,-43.0,17.0,-6.0,1
-31.0,-58.0,-273.0,-46.0,14.0,-7.0,1
-29.0,-60.0,-272.0,-47.0,17.0,-6.0,1
-32.0,-58.0,-273.0,-45.0,17.0,-5.0,1
-34.0,-59.0,-271.0,-42.0,20.0,-7.0,1
-33.0,-59.0,-275.0,-39.0,24.0,-6.0,1
-35.0,-59.0,-275.0,-35.0,25.0,-7.0,1
-32.0,-61.0,-279.0,-33.0,26.0,-6.0,1
-31.0,-61.0,-276.0,-33.0,27.0,-7.0,1
-30.0,-60.0,-276.0,-37.0,27.0,-7.0,1
-29.0,-60.0,-279.0,-38.0,27.0,-6.0,1
-30.0,-61.0,-275.0,-38.0,27.0,-7.0,1
-33.0,-59.0,-280.0,-41.0,26.0,-6.0,1
-31.0,-61.0,-275.0,-41.0,26.0,-6.0,1
-30.0,-60.0,-275.0,-41.0,23.0,-5.0,1
-32.0,-60.0,-275.0,-43.0,20.0,-6.0,1
-31.0,-60.0,-277.0,-42.0,20.0,-5.0,1
-30.0,-62.0,-278.0,-42.0,18.0,-4.0,1
-40.0,-59.0,-277.0,-43.0,18.0,-5.0,1
-44.0,-61.0,-288.0,-44.0,18.0,-5.0,1
-32.0,-60.0,-278.0,-45.0,18.0,-5.0,1
-31.0,-60.0,-274.0,-44.0,18.0,-6.0,1
-31.0,-57.0,-273.0,-45.0,19.0,-6.0,1
-35.0,-59.0,-277.0,-45.0,19.0,-5.0,1
-31.0,-61.0,-275.0,-44.0,20.0,-4.0,1
-30.0,-60.0,-275.0,-46.0,20.0,-5.0,1
-33.0,-60.0,-274.0,-45.0,20.0,-5.0,1
-31.0,-60.0,-276.0,-46.0,19.0,-6.0,1
-30.0,-59.0,-276.0,-45.0,18.0,-6.0,1
-33.0,-59.0,-273.0,-44.0,19.0,-6.0,1
-29.0,-61.0,-273.0,-43.0,18.0,-5.0,1
-31.0,-61.0,-272.0,-44.0,19.0,-5.0,1
-33.0,-56.0,-279.0,-43.0,19.0,-5.0,1
-31.0,-59.0,-274.0,-43.0,20.0,-6.0,1
-31.0,-62.0,-274.0,-44.0,19.0,-6.0,1
-30.0,-60.0,-274.0,-43.0,19.0,-5.0,1
-36.0,-57.0,-275.0,-41.0,19.0,-6.0,1
-31.0,-62.0,-275.0,-42.0,18.0,-6.0,1
-31.0,-60.0,-276.0,-42.0,19.0,-5.0,1
-32.0,-62.0,-271.0,-42.0,19.0,-4.0,1
-33.0,-61.0,-278.0,-42.0,18.0,-5.0,1
-29.0,-61.0,-274.0,-44.0,18.0,-5.0,1
-31.0,-61.0,-274.0,-42.0,19.0,-5.0,1
-33.0,-59.0,-273.0,-40.0,19.0,-6.0,1
-33.0,-56.0,-276.0,-42.0,18.0,-5.0,1
-31.0,-60.0,-276.0,-42.0,18.0,-6.0,1
-31.0,-62.0,-275.0,-40.0,19.0,-6.0,1
-31.0,-61.0,-274.0,-41.0,18.0,-5.0,1
-30.0,-61.0,-275.0,-41.0,17.0,-6.0,1
-30.0,-59.0,-275.0,-42.0,16.0,-6.0,1
-31.0,-60.0,-276.0,-42.0,16.0,-7.0,1
-30.0,-60.0,-273.0,-40.0,19.0,-7.0,1
-29.0,-60.0,-274.0,-41.0,19.0,-6.0,1
-32.0,-59.0,-272.0,-41.0,20.0,-5.0,1
-29.0,-59.0,-274.0,-43.0,20.0,-4.0,1
-32.0,-63.0,-279.0,-45.0,18.0,-4.0,1
-31.0,-61.0,-274.0,-45.0,17.0,-5.0,1
-28.0,-63.0,-272.0,-47.0,18.0,-4.0,1
-29.0,-61.0,-272.0,-50.0,17.0,-5.0,1
-31.0,-61.0,-276.0,-50.0,17.0,-4.0,1
-32.0,-59.0,-272.0,-49.0,17.0,-4.0,1
-30.0,-63.0,-271.0,-47.0,18.0,-5.0,1
-34.0,-59.0,-271.0,-47.0,20.0,-5.0,1
-32.0,-59.0,-275.0,-45.0,19.0,-5.0,1
-30.0,-61.0,-275.0,-45.0,20.0,-6.0,1
-31.0,-62.0,-275.0,-44.0,20.0,-5.0,1
-32.0,-59.0,-275.0,-42.0,20.0,-5.0,1
-32.0,-61.0,-276.0,-41.0,21.0,-6.0,1
-30.0,-59.0,-279.0,-43.0,21.0,-6.0,1
-29.0,-59.0,-278.0,-41.0,22.0,-7.0,1
-32.0,-61.0,-275.0,-42.0,20.0,-7.0,1
-29.0,-61.0,-279.0,-40.0,20.0,-7.0,1
-32.0,-60.0,-278.0,-42.0,19.0,-7.0,1
-33.0,-58.0,-275.0,-41.0,18.0,-6.0,1
-29.0,-59.0,-277.0,-42.0,17.0,-7.0,1
-32.0,-60.0,-274.0,-43.0,17.0,-6.0,1
-29.0,-61.0,-276.0,-43.0,17.0,-5.0,1
-32.0,-61.0,-276.0,-45.0,18.0,-5.0,1
-30.0,-58.0,-276.0,-44.0,18.0,-6.0,1
-28.0,-62.0,-275.0,-44.0,19.0,-6.0,1
-30.0,-61.0,-271.0,-44.0,19.0,-6.0,1
-31.0,-60.0,-277.0,-43.0,18.0,-5.0,1
-29.0,-65.0,-273.0,-45.0,18.0,-5.0,1
-30.0,-60.0,-277.0,-43.0,19.0,-6.0,1
-30.0,-59.0,-276.0,-42.0,19.0,-5.0,1
-30.0,-58.0,-273.0,-41.0,21.0,-7.0,1
-30.0,-58.0,-275.0,-40.0,22.0,-7.0,1
-29.0,-63.0,-273.0,-39.0,21.0,-7.0,1
-31.0,-59.0,-273.0,-41.0,19.0,-6.0,1
-31.0,-59.0,-275.0,-38.0,21.0,-5.0,1
-31.0,-63.0,-274.0,-40.0,21.0,-5.0,1
-29.0,-60.0,-275.0,-41.0,21.0,-6.0,1
-32.0,-57.0,-276.0,-41.0,19.0,-6.0,1
-31.0,-60.0,-273.0,-38.0,19.0,-6.0,1
-30.0,-62.0,-277.0,-37.0,20.0,-6.0,1
-31.0,-61.0,-275.0,-37.0,20.0,-6.0,1
-31.0,-60.0,-276.0,-39.0,19.0,-6.0,1
-30.0,-60.0,-274.0,-38.0,18.0,-6.0,1
-30.0,-61.0,-277.0,-39.0,18.0,-7.0,1
-34.0,-59.0,-273.0,-39.0,17.0,-5.0,1
-29.0,-58.0,-275.0,-41.0,16.0,-5.0,1
-29.0,-61.0,-274.0,-42.0,15.0,-4.0,1
-32.0,-60.0,-275.0,-43.0,15.0,-6.0,1
-33.0,-60.0,-274.0,-42.0,14.0,-6.0,1
-31.0,-60.0,-274.0,-43.0,15.0,-6.0,1
-32.0,-62.0,-278.0,-43.0,15.0,-6.0,1
-29.0,-63.0,-278.0,-43.0,15.0,-5.0,1
-31.0,-60.0,-275.0,-44.0,11.0,-6.0,1
-36.0,-59.0,-273.0,-44.0,11.0,-6.0,1
-32.0,-57.0,-273.0,-45.0,11.0,-5.0,1
-32.0,-62.0,-274.0,-46.0,9.0,-5.0,1
-31.0,-59.0,-271.0,-45.0,11.0,-4.0,1
-30.0,-58.0,-272.0,-45.0,11.0,-5.0,1
-34.0,-63.0,-275.0,-47.0,12.0,-4.0,1
-32.0,-61.0,-274.0,-46.0,13.0,-5.0,1
-33.0,-59.0,-272.0,-45.0,13.0,-6.0,1
-31.0,-61.0,-272.0,-45.0,13.0,-5.0,1
-30.0,-59.0,-273.0,-45.0,16.0,-5.0,1
-31.0,-59.0,-272.0,-43.0,17.0,-5.0,1
-33.0,-60.0,-277.0,-43.0,17.0,-6.0,1
-31.0,-56.0,-272.0,-43.0,20.0,-6.0,1
-29.0,-61.0,-272.0,-43.0,20.0,-6.0,1
-36.0,-57.0,-275.0,-41.0,22.0,-7.0,1
-30.0,-60.0,-276.0,-40.0,22.0,-6.0,1
-33.0,-60.0,-280.0,-38.0,24.0,-6.0,1
-31.0,-62.0,-273.0,-38.0,24.0,-7.0,1
-31.0,-60.0,-276.0,-39.0,24.0,-6.0,1
-29.0,-62.0,-276.0,-38.0,23.0,-6.0,1
-31.0,-65.0,-277.0,-38.0,21.0,-6.0,1
-28.0,-59.0,-276.0,-39.0,20.0,-6.0,1
-38.0,-62.0,-284.0,-40.0,20.0,-6.0,1
-30.0,-60.0,-274.0,-43.0,19.0,-5.0,1
-29.0,-63.0,-275.0,-42.0,17.0,-5.0,1
-31.0,-60.0,-275.0,-43.0,16.0,-5.0,1
-30.0,-63.0,-275.0,-41.0,15.0,-5.0,1
-30.0,-62.0,-273.0,-44.0,14.0,-6.0,1
-32.0,-64.0,-276.0,-42.0,14.0,-6.0,1
-31.0,-61.0,-274.0,-44.0,13.0,-5.0,1
-28.0,-61.0,-275.0,-46.0,13.0,-5.0,1
-28.0,-60.0,-272.0,-47.0,13.0,-6.0,1
-32.0,-59.0,-275.0,-48.0,14.0,-5.0,1
-34.0,-63.0,-267.0,-46.0,13.0,-6.0,1
-30.0,-61.0,-273.0,-47.0,14.0,-3.0,1
-34.0,-59.0,-272.0,-47.0,14.0,-5.0,1
-31.0,-61.0,-273.0,-45.0,15.0,-6.0,1
-30.0,-59.0,-276.0,-46.0,15.0,-5.0,1
-32.0,-58.0,-272.0,-46.0,18.0,-5.0,1
-31.0,-62.0,-278.0,-45.0,19.0,-5.0,1
-34.0,-61.0,-278.0,-46.0,19.0,-5.0,1
-33.0,-57.0,-277.0,-44.0,18.0,-5.0,1
-30.0,-59.0,-275.0,-44.0,18.0,-6.0,1
-33.0,-57.0,-270.0,-44.0,16.0,-6.0,1
-31.0,-64.0,-275.0,-45.0,16.0,-5.0,1
-29.0,-61.0,-274.0,-45.0,16.0,-5.0,1
-28.0,-62.0,-273.0,-45.0,16.0,-5.0,1
-32.0,-62.0,-274.0,-42.0,17.0,-4.0,1
-32.0,-59.0,-277.0,-41.0,18.0,-5.0,1
-32.0,-65.0,-278.0,-42.0,17.0,-5.0,1
-30.0,-60.0,-274.0,-41.0,17.0,-5.0,1
-30.0,-60.0,-276.0,-41.0,17.0,-6.0,1
-30.0,-59.0,-272.0,-43.0,16.0,-5.0,1
-32.0,-61.0,-274.0,-44.0,16.0,-5.0,1
-30.0,-60.0,-273.0,-45.0,16.0,-4.0,1
-30.0,-60.0,-271.0,-46.0,17.0,-5.0,1
-31.0,-63.0,-268.0,-45.0,17.0,-5.0,1
-28.0,-62.0,-272.0,-44.0,17.0,-7.0,1
-32.0,-61.0,-278.0,-45.0,16.0,-7.0,1
-29.0,-61.0,-276.0,-43.0,16.0,-6.0,1
-32.0,-61.0,-276.0,-44.0,16.0,-6.0,1
-32.0,-59.0,-278.0,-44.0,17.0,-7.0,1
-31.0,-60.0,-274.0,-44.0,17.0,-5.0,1
-32.0,-59.0,-272.0,-44.0,17.0,-5.0,1
-29.0,-60.0,-275.0,-44.0,15.0,-6.0,1
-31.0,-59.0,-273.0,-49.0,15.0,-4.0,1
-31.0,-61.0,-273.0,-50.0,13.0,-5.0,1
-30.0,-58.0,-270.0,-50.0,13.0,-5.0,1
-31.0,-62.0,-268.0,-50.0,16.0,-3.0,1
-32.0,-62.0,-278.0,-46.0,17.0,-4.0,1
-35.0,-59.0,-277.0,-41.0,18.0,-5.0,1
-34.0,-61.0,-280.0,-36.0,20.0,-6.0,1
-31.0,-60.0,-272.0,-37.0,20.0,-6.0,1
-31.0,-60.0,-275.0,-40.0,19.0,-6.0,1
-31.0,-62.0,-276.0,-41.0,20.0,-6.0,1
-33.0,-61.0,-276.0,-43.0,20.0,-6.0,1
-33.0,-61.0,-276.0,-44.0,20.0,-6.0,1
-32.0,-60.0,-274.0,-47.0,21.0,-6.0,1
-30.0,-62.0,-276.0,-45.0,19.0,-5.0,1
-30.0,-61.0,-271.0,-44.0,18.0,-6.0,1
-30.0,-63.0,-276.0,-45.0,18.0,-5.0,1
-29.0,-61.0,-275.0,-44.0,18.0,-5.0,1
-32.0,-61.0,-276.0,-45.0,16.0,-4.0,1
-30.0,-60.0,-276.0,-46.0,16.0,-5.0,1
-33.0,-60.0,-275.0,-47.0,18.0,-5.0,1
-29.0,-61.0,-274.0,-47.0,18.0,-5.0,1
-31.0,-59.0,-274.0,-48.0,18.0,-5.0,1
-30.0,-60.0,-273.0,-47.0,18.0,-4.0,1
-28.0,-63.0,-272.0,-47.0,21.0,-5.0,1
-33.0,-60.0,-276.0,-47.0,20.0,-5.0,1
-32.0,-60.0,-277.0,-47.0,20.0,-5.0,1
-30.0,-58.0,-276.0,-48.0,19.0,-5.0,1
-29.0,-61.0,-276.0,-46.0,19.0,-4.0,1
-30.0,-61.0,-276.0,-47.0,17.0,-4.0,1
-30.0,-60.0,-276.0,-47.0,17.0,-3.0,1
-31.0,-62.0,-274.0,-47.0,18.0,-5.0,1
-32.0,-61.0,-275.0,-46.0,18.0,-4.0,1
-31.0,-61.0,-273.0,-48.0,17.0,-5.0,1
-28.0,-61.0,-277.0,-48.0,17.0,-5.0,1
-29.0,-61.0,-274.0,-50.0,17.0,-5.0,1
-31.0,-60.0,-271.0,-49.0,16.0,-4.0,1
-29.0,-61.0,-275.0,-49.0,15.0,-2.0,1
-31.0,-62.0,-276.0,-50.0,14.0,-4.0,1
-30.0,-60.0,-272.0,-51.0,14.0,-3.0,1
-27.0,-61.0,-275.0,-49.0,14.0,-4.0,1
-31.0,-61.0,-282.0,-50.0,15.0,-4.0,1
-30.0,-63.0,-271.0,-50.0,14.0,-4.0,1
-33.0,-59.0,-273.0,-51.0,13.0,-5.0,1
-30.0,-62.0,-279.0,-50.0,14.0,-4.0,1
-30.0,-59.0,-274.0,-50.0,14.0,-5.0,1
-31.0,-61.0,-277.0,-50.0,15.0,-4.0,1
-31.0,-64.0,-275.0,-51.0,15.0,-4.0,1
-33.0,-59.0,-278.0,-50.0,14.0,-4.0,1
-30.0,-63.0,-274.0,-49.0,15.0,-5.0,1
-32.0,-61.0,-274.0,-49.0,15.0,-4.0,1
-31.0,-59.0,-272.0,-47.0,14.0,-4.0,1
-30.0,-60.0,-273.0,-48.0,14.0,-3.0,1
-30.0,-61.0,-275.0,-49.0,15.0,-4.0,1
-32.0,-61.0,-274.0,-48.0,16.0,-4.0,1
-32.0,-58.0,-275.0,-47.0,17.0,-5.0,1
-31.0,-61.0,-273.0,-46.0,16.0,-5.0,1
-30.0,-63.0,-275.0,-50.0,17.0,-5.0,1
-34.0,-59.0,-272.0,-50.0,18.0,-3.0,1
-30.0,-60.0,-274.0,-49.0,17.0,-5.0,1
-30.0,-63.0,-279.0,-48.0,16.0,-4.0,1
-31.0,-62.0,-277.0,-47.0,16.0,-5.0,1
-27.0,-61.0,-278.0,-47.0,16.0,-5.0,1
-30.0,-61.0,-273.0,-46.0,18.0,-4.0,1
-28.0,-63.0,-278.0,-47.0,17.0,-4.0,1
-30.0,-61.0,-273.0,-47.0,17.0,-4.0,1
-32.0,-60.0,-276.0,-50.0,18.0,-6.0,1
-29.0,-61.0,-275.0,-48.0,16.0,-4.0,1
-31.0,-63.0,-272.0,-50.0,17.0,-4.0,1
-31.0,-57.0,-273.0,-48.0,18.0,-5.0,1
-31.0,-62.0,-273.0,-49.0,17.0,-3.0,1
-32.0,-61.0,-275.0,-50.0,17.0,-3.0,1
-31.0,-60.0,-275.0,-49.0,17.0,-4.0,1
-30.0,-62.0,-275.0,-50.0,17.0,-5.0,1
-31.0,-59.0,-275.0,-49.0,16.0,-5.0,1
-31.0,-59.0,-278.0,-50.0,15.0,-3.0,1
-31.0,-59.0,-275.0,-50.0,14.0,-3.0,1
-33.0,-58.0,-271.0,-50.0,14.0,-2.0,1
-28.0,-61.0,-277.0,-52.0,14.0,-3.0,1
-30.0,-61.0,-276.0,-54.0,14.0,-2.0,1
-32.0,-61.0,-274.0,-54.0,15.0,-2.0,1
-31.0,-61.0,-274.0,-53.0,16.0,-3.0,1
-32.0,-58.0,-273.0,-51.0,16.0,-5.0,1
-28.0,-65.0,-279.0,-51.0,17.0,-3.0,1
-32.0,-61.0,-273.0,-50.0,17.0,-5.0,1
-33.0,-61.0,-274.0,-49.0,18.0,-5.0,1
-33.0,-63.0,-276.0,-48.0,17.0,-5.0,1
-28.0,-62.0,-277.0,-50.0,16.0,-4.0,1
-29.0,-61.0,-274.0,-49.0,17.0,-5.0,1
-32.0,-62.0,-274.0,-47.0,18.0,-6.0,1
-30.0,-59.0,-277.0,-48.0,18.0,-3.0,1
-33.0,-59.0,-272.0,-49.0,19.0,-4.0,1
-32.0,-60.0,-274.0,-48.0,18.0,-5.0,1
-31.0,-60.0,-277.0,-49.0,19.0,-4.0,1
-31.0,-62.0,-277.0,-47.0,18.0,-4.0,1
-32.0,-60.0,-272.0,-48.0,18.0,-4.0,1
-33.0,-60.0,-277.0,-48.0,18.0,-4.0,1
-31.0,-63.0,-275.0,-47.0,19.0,-5.0,1
-30.0,-63.0,-279.0,-47.0,19.0,-3.0,1
-29.0,-61.0,-269.0,-45.0,19.0,-3.0,1
-30.0,-59.0,-274.0,-47.0,17.0,-4.0,1
-28.0,-65.0,-275.0,-46.0,15.0,-5.0,1
-28.0,-58.0,-275.0,-48.0,15.0,-4.0,1
-32.0,-60.0,-270.0,-47.0,16.0,-3.0,1
-33.0,-59.0,-274.0,-46.0,16.0,-5.0,1
-28.0,-60.0,-278.0,-46.0,16.0,-5.0,1
-29.0,-60.0,-276.0,-47.0,15.0,-4.0,1
-30.0,-61.0,-276.0,-48.0,15.0,-4.0,1
-31.0,-60.0,-278.0,-46.0,16.0,-5.0,1
-31.0,-61.0,-276.0,-47.0,15.0,-4.0,1
-29.0,-60.0,-275.0,-47.0,16.0,-6.0,1
-25.0,-60.0,-277.0,-49.0,16.0,-3.0,1
-30.0,-59.0,-276.0,-47.0,15.0,-5.0,1
-31.0,-59.0,-276.0,-48.0,16.0,-4.0,1
-30.0,-61.0,-275.0,-50.0,16.0,-5.0,1
-30.0,-61.0,-275.0,-48.0,16.0,-5.0,1
-29.0,-60.0,-271.0,-49.0,17.0,-4.0,1
-30.0,-63.0,-275.0,-50.0,17.0,-5.0,1
-30.0,-65.0,-277.0,-49.0,16.0,-3.0,1
-31.0,-61.0,-272.0,-47.0,16.0,-3.0,1
-28.0,-60.0,-276.0,-47.0,16.0,-4.0,1
-24.0,-64.0,-268.0,-49.0,15.0,-4.0,1
-29.0,-59.0,-276.0,-46.0,15.0,-5.0,1
-31.0,-60.0,-275.0,-48.0,14.0,-3.0,1
-31.0,-59.0,-277.0,-49.0,15.0,-4.0,1
-30.0,-60.0,-274.0,-49.0,16.0,-5.0,1
-31.0,-58.0,-268.0,-48.0,15.0,-3.0,1
-34.0,-59.0,-276.0,-47.0,16.0,-4.0,1
-32.0,-59.0,-277.0,-47.0,16.0,-6.0,1
-30.0,-59.0,-277.0,-49.0,16.0,-4.0,1
-32.0,-61.0,-277.0,-48.0,16.0,-6.0,1
-29.0,-58.0,-275.0,-49.0,16.0,-6.0,1
-43.0,-65.0,-266.0,-49.0,16.0,-5.0,1
-28.0,-63.0,-280.0,-47.0,17.0,-4.0,1
-29.0,-62.0,-273.0,-48.0,17.0,-4.0,1
-32.0,-58.0,-280.0,-48.0,16.0,-5.0,1
-30.0,-60.0,-276.0,-47.0,18.0,-5.0,1
-28.0,-58.0,-274.0,-47.0,19.0,-4.0,1
-30.0,-61.0,-279.0,-46.0,18.0,-4.0,1
-29.0,-59.0,-273.0,-48.0,18.0,-5.0,1
-28.0,-60.0,-279.0,-49.0,17.0,-5.0,1
-30.0,-61.0,-277.0,-48.0,17.0,-4.0,1
-31.0,-60.0,-273.0,-47.0,17.0,-4.0,1
-29.0,-61.0,-271.0,-47.0,17.0,-4.0,1
-30.0,-61.0,-276.0,-47.0,16.0,-4.0,1
-30.0,-60.0,-271.0,-48.0,16.0,-6.0,1
-30.0,-62.0,-274.0,-46.0,16.0,-5.0,1
-33.0,-58.0,-277.0,-48.0,17.0,-5.0,1
-33.0,-62.0,-276.0,-48.0,18.0,-4.0,1
-31.0,-59.0,-272.0,-47.0,19.0,-5.0,1
-30.0,-61.0,-275.0,-46.0,20.0,-5.0,1
-28.0,-61.0,-277.0,-44.0,20.0,-3.0,1
-31.0,-63.0,-275.0,-44.0,20.0,-4.0,1
-32.0,-62.0,-276.0,-46.0,20.0,-3.0,1
-30.0,-61.0,-271.0,-46.0,21.0,-3.0,1
-30.0,-59.0,-274.0,-46.0,21.0,-4.0,1
-30.0,-61.0,-275.0,-44.0,19.0,-4.0,1
-31.0,-60.0,-271.0,-43.0,19.0,-4.0,1
-27.0,-60.0,-277.0,-43.0,18.0,-4.0,1
-31.0,-60.0,-274.0,-43.0,20.0,-5.0,1
-30.0,-61.0,-279.0,-43.0,20.0,-5.0,1
-33.0,-59.0,-276.0,-44.0,20.0,-5.0,1
-32.0,-57.0,-274.0,-44.0,18.0,-4.0,1
-34.0,-60.0,-272.0,-45.0,18.0,-4.0,1
-30.0,-62.0,-274.0,-44.0,18.0,-4.0,1
-28.0,-64.0,-274.0,-45.0,18.0,-4.0,1
-27.0,-63.0,-276.0,-46.0,18.0,-6.0,1
-29.0,-60.0,-280.0,-45.0,18.0,-5.0,1
-29.0,-61.0,-275.0,-44.0,19.0,-5.0,1
-30.0,-59.0,-270.0,-44.0,18.0,-5.0,1
-29.0,-59.0,-274.0,-43.0,18.0,-4.0,1
-29.0,-59.0,-274.0,-44.0,18.0,-5.0,1
-31.0,-58.0,-274.0,-44.0,19.0,-5.0,1
-32.0,-60.0,-276.0,-44.0,17.0,-5.0,1
-28.0,-62.0,-275.0,-45.0,16.0,-4.0,1
-28.0,-60.0,-275.0,-46.0,16.0,-4.0,1
-31.0,-61.0,-273.0,-49.0,15.0,-5.0,1
-28.0,-59.0,-272.0,-50.0,16.0,-4.0,1
-32.0,-58.0,-271.0,-49.0,17.0,-4.0,1
-29.0,-61.0,-276.0,-48.0,20.0,-4.0,1
-30.0,-59.0,-274.0,-44.0,22.0,-5.0,1
-28.0,-59.0,-277.0,-39.0,24.0,-4.0,1
-30.0,-59.0,-283.0,-36.0,26.0,-6.0,1
-30.0,-62.0,-275.0,-35.0,27.0,-6.0,1
-32.0,-58.0,-277.0,-39.0,25.0,-6.0,1
-33.0,-61.0,-275.0,-43.0,26.0,-7.0,1
-33.0,-62.0,-278.0,-45.0,26.0,-6.0,1
-32.0,-60.0,-275.0,-44.0,24.0,-4.0,1
-32.0,-61.0,-275.0,-45.0,24.0,-5.0,1
-34.0,-61.0,-275.0,-45.0,21.0,-6.0,1
-29.0,-59.0,-279.0,-46.0,19.0,-6.0,1
-33.0,-60.0,-277.0,-47.0,17.0,-6.0,1
-33.0,-59.0,-276.0,-45.0,17.0,-5.0,1
-32.0,-60.0,-280.0,-45.0,17.0,-5.0,1
-32.0,-59.0,-278.0,-46.0,18.0,-6.0,1
-31.0,-60.0,-271.0,-46.0,18.0,-5.0,1
-28.0,-61.0,-278.0,-46.0,17.0,-5.0,1
-28.0,-60.0,-271.0,-45.0,18.0,-5.0,1
-31.0,-58.0,-272.0,-45.0,19.0,-4.0,1
-30.0,-57.0,-271.0,-45.0,19.0,-5.0,1
-31.0,-59.0,-274.0,-44.0,19.0,-4.0,1
-33.0,-62.0,-275.0,-46.0,18.0,-5.0,1
-31.0,-58.0,-275.0,-45.0,18.0,-5.0,1
-33.0,-60.0,-275.0,-45.0,16.0,-5.0,1
-32.0,-64.0,-274.0,-45.0,17.0,-5.0,1
-31.0,-59.0,-275.0,-44.0,17.0,-4.0,1
-30.0,-60.0,-273.0,-44.0,16.0,-4.0,1
-30.0,-63.0,-279.0,-45.0,17.0,-5.0,1
-33.0,-58.0,-275.0,-44.0,17.0,-5.0,1
-32.0,-63.0,-274.0,-41.0,18.0,-5.0,1
-28.0,-63.0,-273.0,-42.0,17.0,-5.0,1
-30.0,-61.0,-277.0,-42.0,18.0,-5.0,1
-31.0,-58.0,-273.0,-41.0,18.0,-5.0,1
-31.0,-59.0,-273.0,-41.0,19.0,-4.0,1
-32.0,-59.0,-277.0,-40.0,17.0,-6.0,1
-27.0,-61.0,-276.0,-42.0,17.0,-6.0,1
-32.0,-60.0,-280.0,-43.0,16.0,-5.0,1
-33.0,-59.0,-275.0,-43.0,15.0,-5.0,1
-32.0,-60.0,-272.0,-43.0,15.0,-6.0,1
-31.0,-61.0,-273.0,-44.0,15.0,-6.0,1
-30.0,-63.0,-275.0,-43.0,15.0,-5.0,1
-28.0,-61.0,-276.0,-43.0,17.0,-5.0,1
-29.0,-62.0,-275.0,-43.0,16.0,-6.0,1
-29.0,-60.0,-274.0,-42.0,16.0,-5.0,1
-30.0,-60.0,-275.0,-44.0,16.0,-4.0,1
-30.0,-58.0,-275.0,-44.0,17.0,-4.0,1
-31.0,-60.0,-275.0,-44.0,16.0,-6.0,1
-28.0,-60.0,-273.0,-44.0,16.0,-6.0,1
-31.0,-62.0,-277.0,-42.0,16.0,-5.0,1
-30.0,-58.0,-278.0,-41.0,17.0,-5.0,1
-29.0,-61.0,-278.0,-43.0,17.0,-6.0,1
-35.0,-59.0,-274.0,-41.0,17.0,-4.0,1
-31.0,-60.0,-275.0,-43.0,16.0,-5.0,1
-31.0,-62.0,-271.0,-46.0,16.0,-4.0,1
-30.0,-59.0,-277.0,-46.0,16.0,-4.0,1
-33.0,-59.0,-275.0,-44.0,16.0,-5.0,1
-29.0,-60.0,-275.0,-44.0,17.0,-5.0,1
-31.0,-62.0,-277.0,-44.0,17.0,-5.0,1
-30.0,-61.0,-274.0,-46.0,16.0,-5.0,1
-30.0,-64.0,-273.0,-45.0,18.0,-5.0,1
-27.0,-64.0,-275.0,-45.0,18.0,-6.0,1
-30.0,-62.0,-275.0,-45.0,19.0,-4.0,1
-32.0,-63.0,-276.0,-45.0,19.0,-4.0,1
-29.0,-61.0,-275.0,-47.0,18.0,-3.0,1
-32.0,-57.0,-275.0,-45.0,17.0,-4.0,1
-31.0,-60.0,-275.0,-47.0,17.0,-4.0,1
-27.0,-61.0,-274.0,-46.0,16.0,-5.0,1
-29.0,-61.0,-281.0,-47.0,16.0,-4.0,1
-29.0,-60.0,-276.0,-46.0,17.0,-4.0,1
-31.0,-61.0,-278.0,-45.0,17.0,-5.0,1
-30.0,-59.0,-272.0,-45.0,16.0,-4.0,1
-31.0,-60.0,-275.0,-46.0,15.0,-4.0,1
-31.0,-60.0,-272.0,-47.0,17.0,-5.0,1
-32.0,-62.0,-270.0,-46.0,17.0,-6.0,1
-30.0,-60.0,-270.0,-47.0,17.0,-5.0,1
-31.0,-57.0,-272.0,-48.0,18.0,-4.0,1
-33.0,-60.0,-276.0,-46.0,18.0,-4.0,1
-31.0,-58.0,-274.0,-46.0,18.0,-5.0,1
-32.0,-60.0,-273.0,-46.0,17.0,-4.0,1
-31.0,-59.0,-275.0,-45.0,18.0,-5.0,1
-31.0,-61.0,-274.0,-44.0,17.0,-5.0,1
-30.0,-59.0,-277.0,-44.0,18.0,-6.0,1
-31.0,-63.0,-276.0,-43.0,19.0,-6.0,1
-31.0,-59.0,-273.0,-43.0,18.0,-6.0,1
-31.0,-61.0,-276.0,-42.0,19.0,-6.0,1
-29.0,-61.0,-271.0,-42.0,19.0,-6.0,1
-30.0,-60.0,-272.0,-42.0,18.0,-6.0,1
-28.0,-61.0,-273.0,-43.0,17.0,-6.0,1
-35.0,-59.0,-277.0,-43.0,18.0,-7.0,1
-30.0,-60.0,-274.0,-43.0,18.0,-6.0,1
-29.0,-63.0,-275.0,-44.0,20.0,-6.0,1
-27.0,-63.0,-274.0,-44.0,18.0,-5.0,1
-31.0,-61.0,-273.0,-44.0,18.0,-6.0,1
-30.0,-60.0,-275.0,-44.0,17.0,-5.0,1
-21.0,-53.0,-298.0,-43.0,17.0,-5.0,1
-29.0,-60.0,-276.0,-45.0,17.0,-6.0,1
-28.0,-61.0,-275.0,-43.0,18.0,-7.0,1
-30.0,-58.0,-270.0,-43.0,18.0,-5.0,1
-32.0,-59.0,-276.0,-43.0,17.0,-7.0,1
-29.0,-62.0,-273.0,-44.0,15.0,-6.0,1
-29.0,-57.0,-278.0,-44.0,15.0,-6.0,1
-32.0,-61.0,-280.0,-44.0,15.0,-5.0,1
-29.0,-64.0,-278.0,-45.0,15.0,-5.0,1
-29.0,-61.0,-273.0,-44.0,15.0,-6.0,1
-30.0,-64.0,-277.0,-43.0,13.0,-5.0,1
-40.0,-52.0,-277.0,-44.0,12.0,-5.0,1
-33.0,-59.0,-273.0,-45.0,13.0,-6.0,1
-31.0,-59.0,-277.0,-46.0,12.0,-5.0,1
-28.0,-61.0,-277.0,-46.0,12.0,-6.0,1
-30.0,-60.0,-272.0,-45.0,13.0,-4.0,1
-33.0,-60.0,-274.0,-44.0,12.0,-5.0,1
-31.0,-61.0,-275.0,-45.0,13.0,-5.0,1
-31.0,-61.0,-275.0,-46.0,14.0,-6.0,1
-32.0,-61.0,-271.0,-46.0,13.0,-6.0,1
-33.0,-60.0,-277.0,-44.0,13.0,-5.0,1
-28.0,-63.0,-275.0,-45.0,14.0,-4.0,1
-29.0,-58.0,-265.0,-44.0,14.0,-6.0,1
-34.0,-60.0,-275.0,-45.0,15.0,-5.0,1
-29.0,-59.0,-275.0,-46.0,15.0,-4.0,1
-32.0,-60.0,-272.0,-46.0,15.0,-5.0,1
-30.0,-60.0,-272.0,-47.0,16.0,-5.0,1
-31.0,-60.0,-273.0,-45.0,17.0,-6.0,1
-33.0,-60.0,-276.0,-45.0,17.0,-4.0,1
-32.0,-61.0,-273.0,-42.0,17.0,-5.0,1
-34.0,-63.0,-278.0,-43.0,17.0,-6.0,1
-31.0,-59.0,-274.0,-43.0,17.0,-6.0,1
-33.0,-59.0,-277.0,-43.0,17.0,-5.0,1
-29.0,-61.0,-273.0,-42.0,18.0,-6.0,1
-30.0,-59.0,-280.0,-43.0,16.0,-4.0,1
-30.0,-60.0,-274.0,-44.0,16.0,-4.0,1
-31.0,-58.0,-277.0,-44.0,16.0,-5.0,1
-33.0,-58.0,-279.0,-43.0,17.0,-6.0,1
-30.0,-61.0,-274.0,-43.0,16.0,-5.0,1
-32.0,-61.0,-279.0,-43.0,17.0,-5.0,1
-32.0,-59.0,-276.0,-46.0,17.0,-5.0,1
-30.0,-62.0,-275.0,-46.0,17.0,-6.0,1
-30.0,-65.0,-277.0,-45.0,18.0,-4.0,1
-30.0,-61.0,-273.0,-44.0,18.0,-6.0,1
-31.0,-58.0,-274.0,-46.0,18.0,-4.0,1
-31.0,-60.0,-270.0,-46.0,19.0,-5.0,1
-30.0,-58.0,-276.0,-46.0,18.0,-5.0,1
-29.0,-61.0,-274.0,-41.0,15.0,-5.0,1
-30.0,-61.0,-273.0,-42.0,15.0,-4.0,1
-33.0,-59.0,-273.0,-43.0,20.0,-5.0,1
-29.0,-61.0,-273.0,-44.0,25.0,-5.0,1
-29.0,-63.0,-277.0,-41.0,29.0,-7.0,1
-31.0,-61.0,-275.0,-39.0,27.0,-6.0,1
-32.0,-60.0,-277.0,-39.0,21.0,-6.0,1
-32.0,-59.0,-277.0,-37.0,19.0,-5.0,1
-29.0,-60.0,-276.0,-36.0,16.0,-7.0,1
-29.0,-61.0,-273.0,-39.0,14.0,-6.0,1
-30.0,-59.0,-275.0,-43.0,13.0,-6.0,1
-29.0,-60.0,-276.0,-44.0,13.0,-7.0,1
-35.0,-58.0,-274.0,-45.0,14.0,-7.0,1
-32.0,-61.0,-276.0,-45.0,15.0,-6.0,1
-30.0,-61.0,-276.0,-46.0,15.0,-7.0,1
-26.0,-63.0,-271.0,-46.0,16.0,-7.0,1
-31.0,-58.0,-277.0,-44.0,13.0,-6.0,1
-30.0,-61.0,-275.0,-45.0,15.0,-4.0,1
-28.0,-63.0,-275.0,-45.0,14.0,-6.0,1
-29.0,-62.0,-275.0,-45.0,15.0,-5.0,1
-29.0,-61.0,-272.0,-46.0,15.0,-6.0,1
-29.0,-63.0,-270.0,-47.0,15.0,-6.0,1
-32.0,-59.0,-271.0,-49.0,14.0,-6.0,1
-32.0,-59.0,-270.0,-49.0,15.0,-4.0,1
-32.0,-60.0,-277.0,-49.0,16.0,-4.0,1
-27.0,-60.0,-273.0,-46.0,18.0,-6.0,1
-30.0,-60.0,-275.0,-43.0,19.0,-6.0,1
-32.0,-58.0,-278.0,-40.0,20.0,-6.0,1
-32.0,-57.0,-278.0,-39.0,20.0,-6.0,1
-32.0,-60.0,-277.0,-39.0,21.0,-5.0,1
-29.0,-59.0,-273.0,-40.0,21.0,-5.0,1
-29.0,-60.0,-277.0,-42.0,21.0,-5.0,1
-31.0,-59.0,-272.0,-43.0,21.0,-5.0,1
-29.0,-59.0,-273.0,-44.0,20.0,-5.0,1
-32.0,-63.0,-275.0,-42.0,18.0,-6.0,1
-32.0,-61.0,-278.0,-43.0,14.0,-6.0,1
-25.0,-60.0,-276.0,-43.0,15.0,-5.0,1
-29.0,-60.0,-277.0,-45.0,15.0,-5.0,1
-28.0,-61.0,-279.0,-45.0,15.0,-7.0,1
-31.0,-61.0,-275.0,-46.0,14.0,-5.0,1
-29.0,-62.0,-276.0,-47.0,15.0,-4.0,1
-30.0,-60.0,-276.0,-47.0,15.0,-5.0,1
-31.0,-63.0,-279.0,-46.0,17.0,-6.0,1
-29.0,-62.0,-274.0,-46.0,17.0,-7.0,1
-31.0,-59.0,-273.0,-46.0,16.0,-6.0,1
-31.0,-60.0,-275.0,-46.0,17.0,-4.0,1
-32.0,-62.0,-278.0,-46.0,17.0,-6.0,1
-31.0,-61.0,-276.0,-44.0,17.0,-6.0,1
-30.0,-61.0,-276.0,-43.0,14.0,-5.0,1
-29.0,-60.0,-275.0,-44.0,12.0,-5.0,1
-30.0,-59.0,-278.0,-43.0,12.0,-6.0,1
-31.0,-59.0,-271.0,-43.0,13.0,-6.0,1
-32.0,-61.0,-275.0,-42.0,12.0,-5.0,1
-27.0,-64.0,-277.0,-41.0,12.0,-5.0,1
-33.0,-61.0,-275.0,-41.0,12.0,-5.0,1
-31.0,-60.0,-272.0,-41.0,12.0,-6.0,1
-30.0,-60.0,-274.0,-42.0,11.0,-6.0,1
-32.0,-59.0,-276.0,-42.0,13.0,-6.0,1
-30.0,-59.0,-274.0,-41.0,12.0,-6.0,1
-31.0,-61.0,-274.0,-42.0,13.0,-5.0,1
-30.0,-60.0,-279.0,-41.0,13.0,-5.0,1
-30.0,-58.0,-277.0,-42.0,14.0,-6.0,1
-33.0,-63.0,-276.0,-41.0,13.0,-5.0,1
-29.0,-63.0,-276.0,-45.0,14.0,-5.0,1
-32.0,-58.0,-277.0,-44.0,12.0,-5.0,1
-28.0,-60.0,-269.0,-44.0,11.0,-5.0,1
-29.0,-60.0,-274.0,-44.0,12.0,-4.0,1
-28.0,-63.0,-274.0,-45.0,12.0,-6.0,1
-35.0,-59.0,-271.0,-45.0,10.0,-4.0,1
-30.0,-60.0,-277.0,-45.0,11.0,-5.0,1
-29.0,-60.0,-273.0,-46.0,11.0,-5.0,1
-30.0,-59.0,-271.0,-46.0,13.0,-5.0,1
-30.0,-63.0,-274.0,-45.0,13.0,-5.0,1
-30.0,-61.0,-273.0,-46.0,13.0,-5.0,1
-30.0,-63.0,-274.0,-44.0,13.0,-5.0,1
-31.0,-61.0,-276.0,-45.0,13.0,-7.0,1
-28.0,-62.0,-277.0,-45.0,14.0,-8.0,1
-30.0,-59.0,-273.0,-47.0,13.0,-6.0,1
-32.0,-60.0,-272.0,-49.0,14.0,-6.0,1
-30.0,-59.0,-277.0,-49.0,12.0,-6.0,1
-31.0,-61.0,-277.0,-47.0,14.0,-4.0,1
-29.0,-62.0,-276.0,-47.0,12.0,-5.0,1
-30.0,-61.0,-271.0,-46.0,13.0,-5.0,1
-30.0,-60.0,-275.0,-45.0,13.0,-5.0,1
-32.0,-59.0,-273.0,-47.0,14.0,-6.0,1
-29.0,-61.0,-273.0,-46.0,13.0,-5.0,1
-33.0,-60.0,-271.0,-45.0,13.0,-5.0,1
-32.0,-60.0,-275.0,-45.0,13.0,-5.0,1
-31.0,-60.0,-275.0,-47.0,13.0,-5.0,1
-33.0,-59.0,-274.0,-47.0,14.0,-6.0,1
-29.0,-63.0,-272.0,-46.0,15.0,-5.0,1
-30.0,-58.0,-276.0,-44.0,15.0,-4.0,1
-33.0,-58.0,-279.0,-46.0,18.0,-3.0,1
-33.0,-55.0,-271.0,-42.0,15.0,-2.0,1
-19.0,-56.0,-264.0,-28.0,9.0,-1.0,1
-30.0,-69.0,-271.0,-14.0,5.0,-4.0,1
-37.0,-67.0,-268.0,-25.0,-3.0,-5.0,1
-37.0,-72.0,-276.0,-29.0,5.0,-7.0,1
-31.0,-63.0,-283.0,-33.0,24.0,-9.0,1
-26.0,-68.0,-277.0,-34.0,32.0,-9.0,1
-33.0,-63.0,-282.0,-40.0,31.0,-8.0,1
-30.0,-59.0,-279.0,-49.0,30.0,-8.0,1
-26.0,-61.0,-278.0,-54.0,28.0,-7.0,1
-28.0,-60.0,-272.0,-59.0,24.0,-7.0,1
-28.0,-59.0,-276.0,-59.0,22.0,-6.0,1
-32.0,-58.0,-278.0,-59.0,19.0,-6.0,1
-33.0,-57.0,-272.0,-58.0,16.0,-5.0,1
-29.0,-57.0,-271.0,-59.0,14.0,-2.0,1
-31.0,-55.0,-273.0,-57.0,13.0,0.0,1
-28.0,-59.0,-271.0,-53.0,11.0,-1.0,1
-30.0,-59.0,-270.0,-46.0,7.0,-2.0,1
-31.0,-60.0,-271.0,-43.0,7.0,-3.0,1
-35.0,-59.0,-273.0,-43.0,10.0,-5.0,1
-33.0,-65.0,-272.0,-42.0,13.0,-6.0,1
-30.0,-62.0,-275.0,-42.0,17.0,-6.0,1
-32.0,-61.0,-273.0,-43.0,20.0,-6.0,1
-24.0,-56.0,-278.0,-43.0,23.0,-6.0,1
-31.0,-60.0,-275.0,-42.0,24.0,-7.0,1
-31.0,-61.0,-279.0,-46.0,24.0,-6.0,1
-32.0,-59.0,-277.0,-48.0,23.0,-6.0,1
-29.0,-61.0,-278.0,-48.0,19.0,-4.0,1
-31.0,-58.0,-275.0,-49.0,18.0,-4.0,1
-31.0,-61.0,-273.0,-50.0,18.0,-3.0,1
-31.0,-60.0,-272.0,-50.0,16.0,-4.0,1
-31.0,-60.0,-274.0,-48.0,16.0,-4.0,1
-33.0,-61.0,-275.0,-50.0,15.0,-5.0,1
-31.0,-60.0,-272.0,-49.0,16.0,-4.0,1
-24.0,-63.0,-266.0,-48.0,16.0,-4.0,1
-33.0,-59.0,-274.0,-46.0,18.0,-5.0,1
-32.0,-62.0,-271.0,-46.0,17.0,-4.0,1
-30.0,-61.0,-276.0,-46.0,19.0,-5.0,1
-33.0,-60.0,-274.0,-45.0,18.0,-6.0,1
-31.0,-60.0,-281.0,-47.0,19.0,-7.0,1
-30.0,-61.0,-280.0,-47.0,19.0,-6.0,1
-31.0,-59.0,-276.0,-48.0,21.0,-4.0,1
-29.0,-62.0,-276.0,-47.0,21.0,-5.0,1
-31.0,-61.0,-273.0,-48.0,21.0,-4.0,1
-31.0,-61.0,-279.0,-48.0,20.0,-4.0,1
-28.0,-42.0,-271.0,-48.0,19.0,-4.0,1
-33.0,-58.0,-278.0,-47.0,17.0,-4.0,1
-30.0,-63.0,-275.0,-48.0,15.0,-5.0,1
-32.0,-59.0,-276.0,-49.0,14.0,-5.0,1
-30.0,-60.0,-277.0,-48.0,14.0,-4.0,1
-31.0,-62.0,-278.0,-48.0,12.0,-5.0,1
-28.0,-61.0,-274.0,-48.0,12.0,-5.0,1
-29.0,-60.0,-275.0,-49.0,13.0,-4.0,1
-31.0,-62.0,-276.0,-50.0,12.0,-4.0,1
-30.0,-61.0,-274.0,-51.0,11.0,-5.0,1
-32.0,-59.0,-275.0,-50.0,11.0,-6.0,1
-31.0,-57.0,-269.0,-52.0,11.0,-3.0,1
-33.0,-59.0,-273.0,-51.0,12.0,-4.0,1
-31.0,-62.0,-273.0,-50.0,12.0,-4.0,1
-31.0,-61.0,-274.0,-50.0,14.0,-3.0,1
-33.0,-60.0,-273.0,-48.0,14.0,-4.0,1
-33.0,-60.0,-278.0,-48.0,14.0,-5.0,1
-32.0,-59.0,-275.0,-48.0,15.0,-2.0,1
-31.0,-61.0,-275.0,-48.0,15.0,-4.0,1
-30.0,-62.0,-277.0,-48.0,15.0,-3.0,1
-33.0,-61.0,-276.0,-49.0,16.0,-4.0,1
-31.0,-61.0,-272.0,-49.0,16.0,-5.0,1
-28.0,-60.0,-270.0,-49.0,18.0,-5.0,1
-30.0,-61.0,-273.0,-50.0,17.0,-5.0,1
-33.0,-61.0,-277.0,-50.0,16.0,-4.0,1
-33.0,-60.0,-275.0,-50.0,16.0,-4.0,1
-33.0,-60.0,-275.0,-50.0,17.0,-4.0,1
-30.0,-60.0,-276.0,-48.0,18.0,-4.0,1
-32.0,-61.0,-276.0,-50.0,19.0,-4.0,1
-32.0,-59.0,-277.0,-48.0,19.0,-5.0,1
-27.0,-62.0,-274.0,-48.0,18.0,-4.0,1
-29.0,-59.0,-273.0,-50.0,19.0,-4.0,1
-30.0,-63.0,-276.0,-48.0,20.0,-6.0,1
-31.0,-62.0,-275.0,-49.0,22.0,-4.0,1
-33.0,-61.0,-275.0,-49.0,21.0,-4.0,1
-28.0,-57.0,-273.0,-50.0,21.0,-4.0,1
-29.0,-59.0,-274.0,-48.0,20.0,-4.0,1
-30.0,-62.0,-278.0,-48.0,19.0,-3.0,1
-28.0,-62.0,-279.0,-47.0,20.0,-5.0,1
-32.0,-58.0,-275.0,-45.0,21.0,-4.0,1
-33.0,-61.0,-272.0,-44.0,21.0,-5.0,1
-33.0,-59.0,-275.0,-47.0,21.0,-5.0,1
-32.0,-59.0,-274.0,-46.0,19.0,-4.0,1
-30.0,-62.0,-276.0,-48.0,18.0,-4.0,1
-30.0,-58.0,-274.0,-47.0,19.0,-5.0,1
-30.0,-60.0,-277.0,-48.0,17.0,-6.0,1
-31.0,-59.0,-278.0,-49.0,17.0,-5.0,1
-28.0,-61.0,-277.0,-50.0,15.0,-4.0,1
-30.0,-64.0,-274.0,-49.0,14.0,-4.0,1
-31.0,-60.0,-279.0,-49.0,15.0,-5.0,1
-31.0,-61.0,-275.0,-50.0,15.0,-5.0,1
-29.0,-62.0,-273.0,-50.0,16.0,-5.0,1
-31.0,-59.0,-270.0,-50.0,16.0,-5.0,1
-30.0,-62.0,-277.0,-50.0,16.0,-4.0,1
-30.0,-61.0,-273.0,-52.0,16.0,-5.0,1
-29.0,-58.0,-271.0,-51.0,15.0,-4.0,1
-31.0,-59.0,-275.0,-53.0,16.0,-4.0,1
-33.0,-59.0,-274.0,-55.0,18.0,-4.0,1
-30.0,-60.0,-271.0,-54.0,19.0,-2.0,1
-31.0,-59.0,-272.0,-49.0,23.0,-4.0,1
-30.0,-62.0,-277.0,-44.0,25.0,-4.0,1
-30.0,-61.0,-275.0,-38.0,28.0,-6.0,1
-30.0,-62.0,-278.0,-38.0,28.0,-5.0,1
-32.0,-59.0,-277.0,-41.0,30.0,-5.0,1
-30.0,-62.0,-278.0,-43.0,28.0,-5.0,1
-33.0,-58.0,-276.0,-43.0,28.0,-6.0,1
-30.0,-60.0,-277.0,-44.0,28.0,-5.0,1
-33.0,-61.0,-275.0,-46.0,26.0,-6.0,1
-33.0,-61.0,-279.0,-45.0,23.0,-5.0,1
-30.0,-59.0,-278.0,-46.0,22.0,-5.0,1
-29.0,-59.0,-278.0,-47.0,22.0,-4.0,1
-30.0,-63.0,-276.0,-46.0,21.0,-5.0,1
-28.0,-62.0,-272.0,-47.0,21.0,-3.0,1
-33.0,-59.0,-275.0,-48.0,20.0,-5.0,1
-31.0,-61.0,-275.0,-47.0,20.0,-3.0,1
-28.0,-64.0,-277.0,-50.0,19.0,-3.0,1
-27.0,-61.0,-276.0,-51.0,19.0,-3.0,1
-27.0,-61.0,-271.0,-51.0,20.0,-3.0,1
-30.0,-60.0,-274.0,-51.0,19.0,-4.0,1
-29.0,-59.0,-275.0,-51.0,19.0,-5.0,1
-30.0,-62.0,-271.0,-51.0,19.0,-4.0,1
-31.0,-59.0,-274.0,-49.0,18.0,-3.0,1
-31.0,-60.0,-275.0,-47.0,19.0,-4.0,1
-30.0,-61.0,-274.0,-48.0,19.0,-4.0,1
-30.0,-60.0,-270.0,-48.0,19.0,-3.0,1
-31.0,-58.0,-274.0,-47.0,18.0,-4.0,1
-31.0,-61.0,-272.0,-47.0,18.0,-4.0,1
-33.0,-59.0,-274.0,-47.0,18.0,-5.0,1
-31.0,-61.0,-278.0,-48.0,18.0,-5.0,1
-30.0,-62.0,-277.0,-48.0,19.0,-4.0,1
-28.0,-59.0,-274.0,-48.0,19.0,-5.0,1
-28.0,-62.0,-276.0,-46.0,19.0,-6.0,1
-28.0,-61.0,-276.0,-46.0,18.0,-6.0,1
-31.0,-59.0,-277.0,-47.0,19.0,-6.0,1
-33.0,-63.0,-275.0,-45.0,17.0,-4.0,1
-31.0,-58.0,-273.0,-45.0,17.0,-5.0,1
-30.0,-60.0,-279.0,-47.0,17.0,-5.0,1
-28.0,-62.0,-278.0,-47.0,17.0,-5.0,1
-30.0,-62.0,-276.0,-48.0,17.0,-5.0,1
-29.0,-59.0,-273.0,-45.0,18.0,-4.0,1
-32.0,-57.0,-275.0,-46.0,19.0,-4.0,1
-35.0,-57.0,-272.0,-48.0,18.0,-4.0,1
-31.0,-61.0,-272.0,-46.0,17.0,-5.0,1
-33.0,-57.0,-272.0,-46.0,17.0,-3.0,1
-32.0,-60.0,-274.0,-48.0,16.0,-4.0,1
-31.0,-61.0,-270.0,-46.0,18.0,-3.0,1
-32.0,-59.0,-273.0,-45.0,18.0,-5.0,1
-30.0,-62.0,-278.0,-44.0,17.0,-5.0,1
-31.0,-62.0,-279.0,-44.0,18.0,-5.0,1
-32.0,-59.0,-276.0,-45.0,17.0,-5.0,1
-31.0,-60.0,-279.0,-45.0,17.0,-5.0,1
-30.0,-60.0,-276.0,-46.0,16.0,-4.0,1
-31.0,-59.0,-270.0,-48.0,15.0,-4.0,1
-30.0,-61.0,-274.0,-48.0,15.0,-4.0,1
-33.0,-60.0,-272.0,-48.0,14.0,-3.0,1
-29.0,-62.0,-275.0,-48.0,16.0,-5.0,1
-34.0,-59.0,-277.0,-46.0,16.0,-5.0,1
-29.0,-61.0,-278.0,-47.0,16.0,-5.0,1
-33.0,-59.0,-276.0,-48.0,17.0,-5.0,1
-31.0,-59.0,-277.0,-48.0,17.0,-5.0,1
-31.0,-59.0,-276.0,-46.0,17.0,-3.0,1
-30.0,-61.0,-275.0,-47.0,18.0,-3.0,1
-32.0,-58.0,-276.0,-47.0,18.0,-4.0,1
-29.0,-62.0,-273.0,-48.0,16.0,-5.0,1
-29.0,-62.0,-270.0,-49.0,19.0,-4.0,1
-30.0,-61.0,-275.0,-47.0,19.0,-4.0,1
-32.0,-62.0,-272.0,-47.0,19.0,-4.0,1
-27.0,-61.0,-276.0,-46.0,19.0,-5.0,1
-34.0,-60.0,-276.0,-48.0,17.0,-5.0,1
-30.0,-60.0,-271.0,-47.0,18.0,-4.0,1
-29.0,-63.0,-274.0,-47.0,18.0,-5.0,1
-29.0,-61.0,-278.0,-48.0,19.0,-4.0,1
-31.0,-61.0,-273.0,-49.0,19.0,-4.0,1
-32.0,-58.0,-275.0,-48.0,19.0,-4.0,1
-28.0,-61.0,-280.0,-48.0,18.0,-5.0,1
-31.0,-58.0,-277.0,-47.0,19.0,-5.0,1
-30.0,-60.0,-272.0,-48.0,19.0,-5.0,1
-28.0,-59.0,-275.0,-48.0,19.0,-6.0,1
-28.0,-60.0,-275.0,-48.0,18.0,-5.0,1
-31.0,-60.0,-273.0,-48.0,18.0,-4.0,1
-27.0,-61.0,-271.0,-46.0,18.0,-4.0,1
-30.0,-61.0,-270.0,-49.0,18.0,-4.0,1
-27.0,-55.0,-267.0,-48.0,18.0,-3.0,1
-30.0,-59.0,-271.0,-48.0,17.0,-4.0,1
-31.0,-60.0,-272.0,-48.0,18.0,-4.0,1
-30.0,-58.0,-273.0,-45.0,18.0,-5.0,1
-30.0,-57.0,-277.0,-46.0,18.0,-3.0,1
-29.0,-61.0,-277.0,-46.0,19.0,-4.0,1
-30.0,-61.0,-275.0,-46.0,18.0,-4.0,1
-35.0,-58.0,-277.0,-47.0,19.0,-5.0,1
-29.0,-59.0,-271.0,-46.0,19.0,-3.0,1
-28.0,-63.0,-278.0,-44.0,19.0,-5.0,1
-28.0,-61.0,-277.0,-44.0,17.0,-6.0,1
-22.0,-59.0,-267.0,-45.0,17.0,-4.0,1
-32.0,-58.0,-272.0,-44.0,18.0,-4.0,1
-27.0,-61.0,-277.0,-45.0,19.0,-4.0,1
-31.0,-60.0,-277.0,-46.0,19.0,-5.0,1
-32.0,-58.0,-272.0,-46.0,19.0,-4.0,1
-29.0,-62.0,-270.0,-48.0,18.0,-4.0,1
-30.0,-57.0,-276.0,-46.0,19.0,-5.0,1
-29.0,-62.0,-273.0,-46.0,19.0,-6.0,1
-27.0,-61.0,-273.0,-43.0,19.0,-5.0,1
-29.0,-62.0,-276.0,-45.0,18.0,-4.0,1
-27.0,-60.0,-272.0,-46.0,17.0,-4.0,1
-32.0,-60.0,-277.0,-45.0,16.0,-5.0,1
-31.0,-60.0,-276.0,-46.0,17.0,-5.0,1
-28.0,-61.0,-273.0,-46.0,19.0,-5.0,1
-31.0,-58.0,-278.0,-46.0,16.0,-6.0,1
-30.0,-61.0,-277.0,-46.0,17.0,-6.0,1
-35.0,-62.0,-275.0,-48.0,17.0,-4.0,1
-30.0,-61.0,-275.0,-47.0,17.0,-5.0,1
-29.0,-63.0,-279.0,-48.0,16.0,-5.0,1
-30.0,-61.0,-276.0,-46.0,17.0,-5.0,1
-33.0,-60.0,-274.0,-47.0,17.0,-5.0,1
-32.0,-59.0,-275.0,-47.0,16.0,-5.0,1
-31.0,-61.0,-274.0,-46.0,16.0,-4.0,1
-28.0,-60.0,-275.0,-45.0,15.0,-5.0,1
-32.0,-58.0,-273.0,-47.0,16.0,-4.0,1
-28.0,-59.0,-276.0,-46.0,16.0,-6.0,1
-30.0,-59.0,-276.0,-45.0,16.0,-6.0,1
-31.0,-59.0,-276.0,-44.0,17.0,-5.0,1
-35.0,-58.0,-272.0,-44.0,16.0,-5.0,1
-32.0,-57.0,-277.0,-44.0,17.0,-5.0,1
-29.0,-61.0,-280.0,-46.0,17.0,-4.0,1
-27.0,-60.0,-274.0,-44.0,16.0,-4.0,1
-30.0,-60.0,-276.0,-44.0,15.0,-4.0,1
-29.0,-60.0,-274.0,-44.0,15.0,-5.0,1
-32.0,-60.0,-275.0,-44.0,16.0,-4.0,1
-28.0,-62.0,-280.0,-44.0,17.0,-3.0,1
-31.0,-60.0,-276.0,-47.0,17.0,-4.0,1
-32.0,-59.0,-274.0,-44.0,16.0,-5.0,1
-29.0,-61.0,-271.0,-44.0,17.0,-6.0,1
-28.0,-60.0,-273.0,-44.0,18.0,-3.0,1
-31.0,-58.0,-275.0,-44.0,18.0,-5.0,1
-28.0,-61.0,-275.0,-44.0,19.0,-5.0,1
-31.0,-62.0,-278.0,-43.0,19.0,-4.0,1
-32.0,-63.0,-276.0,-42.0,19.0,-4.0,1
-30.0,-61.0,-276.0,-42.0,19.0,-5.0,1
-31.0,-60.0,-277.0,-41.0,19.0,-5.0,1
-27.0,-60.0,-274.0,-42.0,18.0,-6.0,1
-30.0,-58.0,-275.0,-41.0,19.0,-6.0,1
-32.0,-61.0,-272.0,-42.0,18.0,-6.0,1
-31.0,-58.0,-275.0,-43.0,18.0,-5.0,1
-31.0,-62.0,-273.0,-43.0,19.0,-6.0,1
-33.0,-61.0,-274.0,-41.0,20.0,-6.0,1
-29.0,-60.0,-276.0,-40.0,20.0,-6.0,1
-30.0,-60.0,-274.0,-39.0,20.0,-6.0,1
-29.0,-62.0,-276.0,-40.0,19.0,-6.0,1
-31.0,-61.0,-278.0,-43.0,19.0,-6.0,1
-33.0,-61.0,-276.0,-41.0,18.0,-5.0,1
-28.0,-59.0,-274.0,-44.0,17.0,-4.0,1
-31.0,-59.0,-276.0,-46.0,16.0,-4.0,1
-30.0,-61.0,-272.0,-45.0,16.0,-5.0,1
-32.0,-60.0,-278.0,-43.0,18.0,-6.0,1
-32.0,-63.0,-272.0,-43.0,19.0,-6.0,1
-31.0,-57.0,-277.0,-43.0,18.0,-5.0,1
-32.0,-59.0,-278.0,-43.0,18.0,-6.0,1
-33.0,-59.0,-270.0,-44.0,18.0,-6.0,1
-30.0,-60.0,-274.0,-44.0,18.0,-6.0,1
-33.0,-63.0,-274.0,-44.0,18.0,-6.0,1
-33.0,-59.0,-275.0,-43.0,18.0,-5.0,1
-30.0,-61.0,-275.0,-45.0,18.0,-6.0,1
-29.0,-67.0,-272.0,-45.0,19.0,-6.0,1
-28.0,-60.0,-271.0,-48.0,20.0,-4.0,1
-30.0,-61.0,-274.0,-46.0,20.0,-5.0,1
-30.0,-60.0,-273.0,-45.0,22.0,-4.0,1
-27.0,-60.0,-277.0,-43.0,24.0,-5.0,1
-28.0,-60.0,-276.0,-39.0,25.0,-6.0,1
-30.0,-59.0,-277.0,-36.0,29.0,-5.0,1
-32.0,-60.0,-277.0,-34.0,29.0,-6.0,1
-30.0,-59.0,-277.0,-35.0,29.0,-7.0,1
-31.0,-60.0,-277.0,-38.0,26.0,-7.0,1
-29.0,-66.0,-274.0,-38.0,26.0,-7.0,1
-29.0,-60.0,-276.0,-41.0,25.0,-5.0,1
-28.0,-62.0,-280.0,-41.0,23.0,-6.0,1
-29.0,-58.0,-276.0,-42.0,22.0,-5.0,1
-28.0,-62.0,-277.0,-42.0,19.0,-5.0,1
-30.0,-59.0,-276.0,-43.0,18.0,-5.0,1
-31.0,-59.0,-276.0,-43.0,17.0,-5.0,1
-30.0,-59.0,-274.0,-44.0,17.0,-5.0,1
-28.0,-63.0,-274.0,-44.0,16.0,-5.0,1
-30.0,-58.0,-277.0,-45.0,17.0,-5.0,1
-27.0,-58.0,-276.0,-45.0,15.0,-5.0,1
-32.0,-61.0,-275.0,-46.0,17.0,-5.0,1
-30.0,-62.0,-275.0,-45.0,17.0,-4.0,1
-31.0,-57.0,-273.0,-44.0,16.0,-4.0,1
-24.0,-62.0,-275.0,-44.0,18.0,-5.0,1
-29.0,-60.0,-272.0,-42.0,18.0,-5.0,1
-31.0,-61.0,-277.0,-43.0,17.0,-5.0,1
-31.0,-58.0,-274.0,-41.0,17.0,-6.0,1
-30.0,-59.0,-273.0,-41.0,17.0,-5.0,1
-32.0,-58.0,-276.0,-41.0,16.0,-6.0,1
-32.0,-62.0,-279.0,-40.0,18.0,-7.0,1
-29.0,-60.0,-276.0,-40.0,18.0,-6.0,1
-29.0,-61.0,-271.0,-39.0,18.0,-6.0,1
-34.0,-59.0,-277.0,-39.0,18.0,-7.0,1
-33.0,-62.0,-278.0,-40.0,19.0,-5.0,1
-31.0,-62.0,-274.0,-40.0,19.0,-7.0,1
-29.0,-60.0,-277.0,-40.0,17.0,-6.0,1
-32.0,-60.0,-275.0,-40.0,17.0,-5.0,1
-30.0,-58.0,-276.0,-40.0,18.0,-7.0,1
-29.0,-59.0,-272.0,-42.0,17.0,-6.0,1
-33.0,-57.0,-277.0,-43.0,16.0,-5.0,1
-29.0,-60.0,-276.0,-43.0,16.0,-5.0,1
-29.0,-62.0,-273.0,-42.0,16.0,-5.0,1
-31.0,-62.0,-273.0,-42.0,16.0,-6.0,1
-32.0,-59.0,-275.0,-43.0,16.0,-6.0,1
-29.0,-63.0,-273.0,-43.0,15.0,-5.0,1
-29.0,-61.0,-272.0,-42.0,16.0,-5.0,1
-28.0,-60.0,-280.0,-42.0,16.0,-5.0,1
-30.0,-62.0,-273.0,-44.0,16.0,-5.0,1
-29.0,-60.0,-271.0,-44.0,15.0,-6.0,1
-29.0,-60.0,-278.0,-43.0,16.0,-5.0,1
-30.0,-60.0,-277.0,-43.0,14.0,-6.0,1
-28.0,-62.0,-278.0,-44.0,14.0,-6.0,1
-28.0,-59.0,-275.0,-45.0,15.0,-6.0,1
-29.0,-59.0,-277.0,-45.0,15.0,-5.0,1
-28.0,-61.0,-274.0,-45.0,15.0,-4.0,1
-29.0,-61.0,-272.0,-45.0,14.0,-6.0,1
-26.0,-60.0,-273.0,-45.0,14.0,-5.0,1
-29.0,-59.0,-271.0,-46.0,15.0,-6.0,1
-29.0,-61.0,-276.0,-45.0,15.0,-5.0,1
-30.0,-63.0,-272.0,-45.0,15.0,-6.0,1
-26.0,-62.0,-272.0,-44.0,15.0,-6.0,1
-30.0,-61.0,-274.0,-45.0,16.0,-3.0,1
-28.0,-62.0,-275.0,-43.0,16.0,-4.0,1
-30.0,-61.0,-272.0,-44.0,17.0,-5.0,1
-30.0,-61.0,-271.0,-41.0,19.0,-6.0,1
-29.0,-60.0,-271.0,-42.0,20.0,-5.0,1
-28.0,-64.0,-276.0,-41.0,19.0,-5.0,1
-25.0,-62.0,-276.0,-39.0,19.0,-6.0,1
-28.0,-59.0,-274.0,-40.0,18.0,-6.0,1
-30.0,-62.0,-275.0,-39.0,18.0,-7.0,1
-27.0,-61.0,-272.0,-40.0,18.0,-6.0,1
-29.0,-62.0,-275.0,-40.0,18.0,-6.0,1
-32.0,-62.0,-273.0,-39.0,17.0,-6.0,1
-30.0,-62.0,-277.0,-40.0,17.0,-5.0,1
-33.0,-60.0,-276.0,-42.0,18.0,-6.0,1
-31.0,-62.0,-273.0,-43.0,18.0,-6.0,1
-29.0,-61.0,-281.0,-43.0,17.0,-5.0,1
-30.0,-65.0,-277.0,-45.0,16.0,-6.0,1
-30.0,-61.0,-278.0,-43.0,14.0,-7.0,1
-28.0,-60.0,-276.0,-45.0,15.0,-6.0,1
-29.0,-61.0,-275.0,-44.0,15.0,-6.0,1
-30.0,-63.0,-275.0,-44.0,15.0,-7.0,1
-44.0,-70.0,-273.0,-45.0,14.0,-5.0,1
-29.0,-62.0,-274.0,-45.0,14.0,-5.0,1
-31.0,-62.0,-275.0,-43.0,14.0,-4.0,1
-30.0,-61.0,-279.0,-43.0,13.0,-5.0,1
-29.0,-62.0,-276.0,-44.0,14.0,-6.0,1
-32.0,-61.0,-272.0,-43.0,14.0,-6.0,1
-28.0,-60.0,-273.0,-44.0,14.0,-5.0,1
-29.0,-59.0,-276.0,-43.0,13.0,-5.0,1
-29.0,-61.0,-276.0,-42.0,13.0,-4.0,1
-30.0,-60.0,-277.0,-42.0,13.0,-5.0,1
-32.0,-59.0,-276.0,-43.0,14.0,-4.0,1
-22.0,-68.0,-273.0,-43.0,14.0,-5.0,1
-32.0,-60.0,-276.0,-44.0,14.0,-5.0,1
-29.0,-61.0,-274.0,-43.0,15.0,-5.0,1
-31.0,-60.0,-273.0,-43.0,14.0,-4.0,1
-30.0,-62.0,-277.0,-42.0,15.0,-5.0,1
-32.0,-60.0,-273.0,-43.0,14.0,-5.0,1
-30.0,-61.0,-275.0,-43.0,16.0,-5.0,1
-30.0,-61.0,-277.0,-42.0,16.0,-6.0,1
-32.0,-62.0,-272.0,-43.0,15.0,-5.0,1
-29.0,-64.0,-272.0,-43.0,14.0,-5.0,1
-27.0,-59.0,-275.0,-41.0,14.0,-5.0,1
-31.0,-53.0,-280.0,-42.0,14.0,-5.0,1
-31.0,-60.0,-277.0,-42.0,15.0,-5.0,1
-29.0,-62.0,-273.0,-44.0,13.0,-7.0,1
-27.0,-59.0,-274.0,-44.0,13.0,-4.0,1
-30.0,-62.0,-272.0,-42.0,14.0,-5.0,1
-34.0,-58.0,-274.0,-42.0,14.0,-5.0,1
-28.0,-63.0,-275.0,-42.0,15.0,-5.0,1
-32.0,-64.0,-274.0,-42.0,15.0,-6.0,1
-31.0,-59.0,-274.0,-42.0,14.0,-4.0,1
-29.0,-63.0,-274.0,-42.0,16.0,-5.0,1
-29.0,-62.0,-275.0,-43.0,15.0,-6.0,1
-27.0,-61.0,-279.0,-41.0,15.0,-5.0,1
-30.0,-61.0,-273.0,-42.0,16.0,-6.0,1
-31.0,-61.0,-277.0,-42.0,16.0,-6.0,1
-33.0,-58.0,-276.0,-43.0,15.0,-5.0,1
-27.0,-62.0,-268.0,-43.0,15.0,-6.0,1
-33.0,-62.0,-273.0,-43.0,14.0,-5.0,1
-34.0,-60.0,-275.0,-44.0,14.0,-5.0,1
-28.0,-64.0,-274.0,-45.0,14.0,-5.0,1
-32.0,-62.0,-275.0,-44.0,14.0,-5.0,1
-32.0,-61.0,-277.0,-45.0,14.0,-4.0,1
-30.0,-59.0,-275.0,-46.0,13.0,-5.0,1
-30.0,-59.0,-274.0,-46.0,14.0,-5.0,1
-30.0,-60.0,-270.0,-46.0,14.0,-6.0,1
-31.0,-64.0,-271.0,-45.0,14.0,-5.0,1
-31.0,-60.0,-274.0,-44.0,14.0,-4.0,1
-32.0,-61.0,-272.0,-45.0,14.0,-4.0,1
-29.0,-64.0,-275.0,-46.0,13.0,-4.0,1
-29.0,-64.0,-278.0,-47.0,14.0,-5.0,1
-30.0,-63.0,-275.0,-46.0,12.0,-4.0,1
-29.0,-59.0,-271.0,-45.0,14.0,-5.0,1
-28.0,-58.0,-275.0,-45.0,14.0,-6.0,1
-31.0,-61.0,-275.0,-44.0,14.0,-5.0,1
-30.0,-62.0,-273.0,-46.0,14.0,-5.0,1
-31.0,-59.0,-275.0,-44.0,14.0,-6.0,1
-31.0,-61.0,-274.0,-44.0,15.0,-5.0,1
-30.0,-60.0,-275.0,-43.0,14.0,-5.0,1
-30.0,-61.0,-275.0,-42.0,15.0,-6.0,1
-29.0,-61.0,-275.0,-41.0,14.0,-5.0,1
-31.0,-62.0,-276.0,-40.0,16.0,-5.0,1
-30.0,-62.0,-275.0,-39.0,15.0,-4.0,1
-32.0,-62.0,-280.0,-41.0,13.0,-5.0,1
-29.0,-62.0,-275.0,-43.0,13.0,-5.0,1
-29.0,-59.0,-275.0,-43.0,14.0,-4.0,1
-32.0,-57.0,-276.0,-43.0,15.0,-5.0,1
-33.0,-64.0,-273.0,-43.0,15.0,-5.0,1
-34.0,-60.0,-275.0,-41.0,15.0,-4.0,1
-31.0,-61.0,-279.0,-39.0,17.0,-6.0,1
-31.0,-60.0,-278.0,-38.0,18.0,-6.0,1
-31.0,-58.0,-272.0,-39.0,16.0,-7.0,1
-30.0,-61.0,-277.0,-40.0,16.0,-6.0,1
-32.0,-62.0,-277.0,-42.0,16.0,-4.0,1
-31.0,-60.0,-278.0,-44.0,15.0,-5.0,1
-31.0,-62.0,-272.0,-44.0,15.0,-6.0,1
-29.0,-61.0,-276.0,-44.0,13.0,-5.0,1
-30.0,-58.0,-274.0,-42.0,14.0,-5.0,1
-29.0,-64.0,-275.0,-41.0,14.0,-7.0,1
-29.0,-60.0,-275.0,-41.0,13.0,-6.0,1
-28.0,-62.0,-273.0,-43.0,12.0,-6.0,1
-31.0,-61.0,-273.0,-45.0,12.0,-5.0,1
-29.0,-62.0,-274.0,-45.0,11.0,-6.0,1
-28.0,-65.0,-277.0,-44.0,11.0,-6.0,1
-32.0,-61.0,-274.0,-45.0,12.0,-5.0,1
-30.0,-62.0,-275.0,-49.0,12.0,-6.0,1
-30.0,-60.0,-272.0,-49.0,13.0,-6.0,1
-30.0,-60.0,-272.0,-50.0,12.0,-5.0,1
-33.0,-60.0,-270.0,-49.0,14.0,-4.0,1
-30.0,-60.0,-267.0,-47.0,17.0,-3.0,1
-31.0,-60.0,-275.0,-45.0,17.0,-4.0,1
-32.0,-59.0,-275.0,-40.0,18.0,-5.0,1
-30.0,-61.0,-273.0,-36.0,20.0,-7.0,1
-29.0,-63.0,-274.0,-36.0,21.0,-5.0,1
-32.0,-61.0,-278.0,-39.0,20.0,-5.0,1
-30.0,-60.0,-278.0,-40.0,19.0,-7.0,1
-31.0,-60.0,-275.0,-41.0,20.0,-7.0,1
-27.0,-63.0,-275.0,-40.0,19.0,-6.0,1
-27.0,-61.0,-276.0,-42.0,19.0,-5.0,1
-30.0,-63.0,-276.0,-41.0,17.0,-6.0,1
-29.0,-67.0,-279.0,-40.0,15.0,-5.0,1
-29.0,-61.0,-275.0,-39.0,13.0,-5.0,1
-28.0,-63.0,-276.0,-42.0,13.0,-5.0,1
-29.0,-62.0,-271.0,-41.0,11.0,-5.0,1
-27.0,-62.0,-273.0,-41.0,9.0,-5.0,1
-30.0,-63.0,-270.0,-45.0,9.0,-4.0,1
-31.0,-59.0,-275.0,-45.0,9.0,-4.0,1
-30.0,-61.0,-270.0,-46.0,9.0,-4.0,1
-29.0,-63.0,-271.0,-46.0,9.0,-4.0,1
-29.0,-59.0,-274.0,-47.0,9.0,-3.0,1
-28.0,-64.0,-275.0,-48.0,9.0,-4.0,1
-32.0,-61.0,-278.0,-48.0,10.0,-4.0,1
-29.0,-61.0,-273.0,-46.0,9.0,-5.0,1
-32.0,-61.0,-275.0,-46.0,9.0,-5.0,1
-31.0,-60.0,-274.0,-47.0,9.0,-4.0,1
-32.0,-62.0,-276.0,-47.0,11.0,-4.0,1
-33.0,-62.0,-271.0,-45.0,11.0,-4.0,1
-31.0,-60.0,-275.0,-44.0,13.0,-4.0,1
-29.0,-61.0,-274.0,-43.0,14.0,-5.0,1
-32.0,-61.0,-275.0,-43.0,13.0,-5.0,1
-31.0,-65.0,-275.0,-43.0,13.0,-5.0,1
-31.0,-62.0,-271.0,-44.0,14.0,-5.0,1
-32.0,-63.0,-275.0,-45.0,13.0,-5.0,1
-31.0,-63.0,-275.0,-45.0,13.0,-5.0,1
-32.0,-61.0,-279.0,-44.0,11.0,-5.0,1
-29.0,-60.0,-273.0,-44.0,12.0,-4.0,1
-30.0,-62.0,-280.0,-44.0,11.0,-5.0,1
-28.0,-64.0,-277.0,-45.0,12.0,-5.0,1
-29.0,-62.0,-269.0,-44.0,11.0,-5.0,1
-29.0,-59.0,-274.0,-44.0,11.0,-5.0,1
-31.0,-62.0,-271.0,-44.0,12.0,-4.0,1
-32.0,-61.0,-275.0,-45.0,12.0,-4.0,1
-34.0,-61.0,-273.0,-44.0,11.0,-5.0,1
-29.0,-58.0,-272.0,-44.0,10.0,-4.0,1
-30.0,-62.0,-273.0,-45.0,12.0,-4.0,1
-29.0,-59.0,-272.0,-46.0,12.0,-4.0,1
-29.0,-61.0,-272.0,-46.0,13.0,-5.0,1
-30.0,-62.0,-274.0,-44.0,13.0,-5.0,1
-28.0,-62.0,-275.0,-43.0,13.0,-4.0,1
-30.0,-62.0,-277.0,-44.0,14.0,-5.0,1
-30.0,-63.0,-274.0,-45.0,15.0,-4.0,1
-33.0,-63.0,-277.0,-45.0,15.0,-6.0,1
-33.0,-59.0,-273.0,-46.0,11.0,-6.0,1
-31.0,-64.0,-272.0,-46.0,12.0,-4.0,1
-29.0,-60.0,-273.0,-48.0,12.0,-4.0,1
-32.0,-61.0,-279.0,-48.0,12.0,-5.0,1
-30.0,-61.0,-272.0,-46.0,13.0,-4.0,1
-30.0,-64.0,-272.0,-46.0,13.0,-3.0,1
-31.0,-61.0,-279.0,-47.0,12.0,-3.0,1
-29.0,-62.0,-276.0,-47.0,12.0,-4.0,1
-29.0,-60.0,-277.0,-48.0,13.0,-4.0,1
-34.0,-61.0,-278.0,-48.0,15.0,-5.0,1
-32.0,-61.0,-273.0,-48.0,15.0,-4.0,1
-31.0,-63.0,-273.0,-49.0,16.0,-4.0,1
-32.0,-60.0,-279.0,-48.0,17.0,-4.0,1
-32.0,-56.0,-273.0,-49.0,16.0,-4.0,1
-27.0,-61.0,-275.0,-49.0,16.0,-5.0,1
-30.0,-63.0,-273.0,-49.0,17.0,-4.0,1
-30.0,-63.0,-273.0,-48.0,16.0,-5.0,1
-33.0,-60.0,-276.0,-49.0,17.0,-4.0,1
-31.0,-58.0,-274.0,-49.0,17.0,-3.0,1
-32.0,-61.0,-278.0,-48.0,18.0,-4.0,1
-31.0,-58.0,-272.0,-49.0,19.0,-4.0,1
-27.0,-66.0,-264.0,-50.0,18.0,-4.0,1
-29.0,-59.0,-275.0,-51.0,18.0,-3.0,1
-28.0,-65.0,-274.0,-53.0,18.0,-4.0,1
-30.0,-60.0,-280.0,-50.0,17.0,-3.0,1
-31.0,-60.0,-277.0,-50.0,17.0,-5.0,1
-31.0,-63.0,-278.0,-52.0,16.0,-5.0,1
-29.0,-61.0,-271.0,-51.0,16.0,-5.0,1
