ax,ay,az,gx,gy,gz,label
1.0,-260.0,-57.0,-44.0,10.0,-9.0,1
3.0,-260.0,-57.0,-44.0,11.0,-10.0,1
3.0,-259.0,-58.0,-44.0,12.0,-9.0,1
4.0,-259.0,-62.0,-42.0,13.0,-9.0,1
5.0,-261.0,-57.0,-43.0,13.0,-10.0,1
3.0,-258.0,-56.0,-40.0,15.0,-10.0,1
4.0,-259.0,-58.0,-38.0,15.0,-9.0,1
6.0,-258.0,-60.0,-38.0,16.0,-8.0,1
6.0,-260.0,-56.0,-38.0,17.0,-8.0,1
3.0,-258.0,-59.0,-37.0,17.0,-9.0,1
3.0,-259.0,-58.0,-37.0,19.0,-9.0,1
5.0,-257.0,-59.0,-37.0,21.0,-9.0,1
3.0,-257.0,-57.0,-40.0,20.0,-9.0,1
2.0,-256.0,-61.0,-41.0,21.0,-9.0,1
2.0,-255.0,-59.0,-44.0,21.0,-6.0,1
0.0,-254.0,-54.0,-46.0,20.0,-4.0,1
1.0,-255.0,-63.0,-47.0,20.0,0.0,1
3.0,-256.0,-56.0,-50.0,18.0,5.0,1
-1.0,-254.0,-59.0,-52.0,15.0,11.0,1
-5.0,-254.0,-57.0,-55.0,13.0,19.0,1
3.0,-253.0,-55.0,-57.0,11.0,25.0,1
1.0,-255.0,-57.0,-62.0,6.0,32.0,1
0.0,-257.0,-62.0,-67.0,1.0,39.0,1
-1.0,-254.0,-58.0,-71.0,-4.0,46.0,1
1.0,-250.0,-61.0,-76.0,-9.0,51.0,1
4.0,-249.0,-60.0,-81.0,-12.0,57.0,1
-2.0,-249.0,-64.0,-85.0,-12.0,62.0,1
6.0,-249.0,-55.0,-88.0,-14.0,66.0,1
5.0,-246.0,-59.0,-93.0,-16.0,69.0,1
6.0,-246.0,-61.0,-97.0,-16.0,72.0,1
6.0,-244.0,-60.0,-103.0,-18.0,73.0,1
1.0,-244.0,-62.0,-109.0,-20.0,74.0,1
3.0,-243.0,-62.0,-115.0,-26.0,75.0,1
1.0,-247.0,-60.0,-121.0,-34.0,74.0,1
-1.0,-246.0,-60.0,-130.0,-44.0,73.0,1
1.0,-248.0,-63.0,-139.0,-55.0,70.0,1
0.0,-254.0,-60.0,-153.0,-66.0,67.0,1
-7.0,-260.0,-60.0,-165.0,-78.0,63.0,1
-9.0,-256.0,-59.0,-177.0,-89.0,57.0,1
-10.0,-261.0,-57.0,-190.0,-100.0,51.0,1
-14.0,-261.0,-60.0,-198.0,-109.0,46.0,1
-13.0,-265.0,-59.0,-205.0,-116.0,40.0,1
-16.0,-264.0,-58.0,-211.0,-122.0,37.0,1
-16.0,-269.0,-57.0,-217.0,-126.0,33.0,1
-16.0,-269.0,-60.0,-216.0,-128.0,29.0,1
-16.0,-269.0,-55.0,-214.0,-129.0,24.0,1
-18.0,-270.0,-52.0,-210.0,-130.0,19.0,1
-16.0,-273.0,-51.0,-204.0,-131.0,14.0,1
-16.0,-272.0,-52.0,-196.0,-134.0,6.0,1
-16.0,-268.0,-53.0,-188.0,-135.0,-1.0,1
-16.0,-271.0,-50.0,-180.0,-138.0,-9.0,1
-12.0,-268.0,-49.0,-175.0,-143.0,-19.0,1
-11.0,-265.0,-50.0,-169.0,-146.0,-28.0,1
-13.0,-258.0,-48.0,-167.0,-151.0,-37.0,1
-10.0,-260.0,-49.0,-164.0,-155.0,-44.0,1
-10.0,-256.0,-48.0,-162.0,-160.0,-51.0,1
-12.0,-254.0,-48.0,-164.0,-165.0,-57.0,1
-13.0,-254.0,-49.0,-169.0,-172.0,-62.0,1
-7.0,-253.0,-44.0,-177.0,-179.0,-67.0,1
-12.0,-245.0,-46.0,-185.0,-187.0,-71.0,1
-12.0,-245.0,-45.0,-191.0,-198.0,-72.0,1
-13.0,-246.0,-45.0,-201.0,-207.0,-73.0,1
-16.0,-244.0,-38.0,-208.0,-217.0,-72.0,1
-19.0,-245.0,-35.0,-213.0,-229.0,-70.0,1
-16.0,-247.0,-37.0,-218.0,-240.0,-70.0,1
-16.0,-247.0,-36.0,-227.0,-249.0,-67.0,1
-15.0,-251.0,-34.0,-232.0,-256.0,-65.0,1
-17.0,-251.0,-39.0,-238.0,-262.0,-63.0,1
-20.0,-254.0,-35.0,-245.0,-267.0,-62.0,1
-17.0,-257.0,-38.0,-250.0,-271.0,-61.0,1
-23.0,-259.0,-35.0,-255.0,-274.0,-60.0,1
-25.0,-259.0,-33.0,-259.0,-277.0,-57.0,1
-26.0,-260.0,-31.0,-261.0,-280.0,-54.0,1
-27.0,-265.0,-33.0,-261.0,-282.0,-53.0,1
-31.0,-268.0,-30.0,-258.0,-283.0,-52.0,1
-32.0,-271.0,-32.0,-253.0,-282.0,-51.0,1
-32.0,-274.0,-29.0,-247.0,-279.0,-49.0,1
-33.0,-275.0,-29.0,-238.0,-275.0,-50.0,1
-33.0,-276.0,-35.0,-232.0,-271.0,-50.0,1
-32.0,-279.0,-33.0,-226.0,-264.0,-52.0,1
-33.0,-281.0,-24.0,-220.0,-258.0,-54.0,1
-31.0,-280.0,-31.0,-215.0,-251.0,-56.0,1
-34.0,-278.0,-32.0,-210.0,-243.0,-54.0,1
-33.0,-276.0,-31.0,-204.0,-237.0,-53.0,1
-31.0,-273.0,-29.0,-197.0,-232.0,-52.0,1
-31.0,-275.0,-32.0,-192.0,-226.0,-46.0,1
-31.0,-268.0,-38.0,-191.0,-219.0,-42.0,1
-26.0,-267.0,-34.0,-189.0,-215.0,-36.0,1
-27.0,-268.0,-37.0,-187.0,-209.0,-30.0,1
-28.0,-260.0,-40.0,-187.0,-203.0,-24.0,1
-28.0,-253.0,-39.0,-189.0,-194.0,-20.0,1
-24.0,-255.0,-45.0,-194.0,-187.0,-16.0,1
-24.0,-256.0,-44.0,-198.0,-177.0,-11.0,1
-21.0,-256.0,-47.0,-205.0,-166.0,-8.0,1
-24.0,-254.0,-47.0,-211.0,-155.0,-7.0,1
-23.0,-256.0,-50.0,-219.0,-143.0,-4.0,1
-22.0,-256.0,-50.0,-226.0,-131.0,-4.0,1
-21.0,-256.0,-53.0,-230.0,-117.0,-5.0,1
-20.0,-258.0,-52.0,-240.0,-103.0,-6.0,1
-17.0,-256.0,-52.0,-245.0,-90.0,-9.0,1
-21.0,-261.0,-54.0,-252.0,-78.0,-13.0,1
-24.0,-261.0,-49.0,-256.0,-67.0,-17.0,1
-19.0,-264.0,-56.0,-261.0,-58.0,-19.0,1
-26.0,-264.0,-58.0,-263.0,-51.0,-21.0,1
-26.0,-266.0,-54.0,-266.0,-44.0,-22.0,1
-31.0,-266.0,-57.0,-269.0,-42.0,-23.0,1
-29.0,-267.0,-56.0,-270.0,-39.0,-21.0,1
-27.0,-270.0,-63.0,-272.0,-26.0,-12.0,1
-34.0,-268.0,-61.0,-281.0,-7.0,3.0,1
-35.0,-271.0,-60.0,-277.0,-9.0,5.0,1
-33.0,-273.0,-63.0,-269.0,-15.0,5.0,1
-28.0,-272.0,-64.0,-261.0,-17.0,5.0,1
-31.0,-271.0,-65.0,-255.0,-17.0,6.0,1
-27.0,-275.0,-65.0,-249.0,-15.0,10.0,1
-26.0,-274.0,-68.0,-243.0,-10.0,14.0,1
-24.0,-274.0,-70.0,-241.0,-5.0,18.0,1
-19.0,-273.0,-72.0,-240.0,1.0,21.0,1
-16.0,-272.0,-73.0,-244.0,5.0,19.0,1
-16.0,-275.0,-74.0,-247.0,5.0,14.0,1
-12.0,-275.0,-76.0,-251.0,5.0,8.0,1
-9.0,-270.0,-82.0,-255.0,6.0,-2.0,1
1.0,-272.0,-84.0,-265.0,10.0,-15.0,1
-7.0,-274.0,-96.0,-275.0,17.0,-33.0,1
6.0,-271.0,-86.0,-289.0,24.0,-51.0,1
11.0,-273.0,-87.0,-301.0,32.0,-74.0,1
17.0,-274.0,-91.0,-317.0,44.0,-95.0,1
25.0,-270.0,-94.0,-331.0,57.0,-116.0,1
27.0,-273.0,-92.0,-342.0,67.0,-138.0,1
37.0,-269.0,-99.0,-351.0,77.0,-160.0,1
41.0,-272.0,-96.0,-359.0,83.0,-184.0,1
45.0,-269.0,-97.0,-365.0,88.0,-205.0,1
45.0,-268.0,-95.0,-367.0,94.0,-225.0,1
45.0,-264.0,-99.0,-366.0,98.0,-242.0,1
53.0,-261.0,-100.0,-365.0,101.0,-255.0,1
43.0,-261.0,-93.0,-362.0,94.0,-264.0,1
42.0,-262.0,-90.0,-357.0,80.0,-267.0,1
40.0,-259.0,-84.0,-346.0,59.0,-267.0,1
40.0,-258.0,-84.0,-330.0,34.0,-264.0,1
37.0,-257.0,-78.0,-306.0,6.0,-254.0,1
32.0,-259.0,-74.0,-277.0,-20.0,-242.0,1
30.0,-257.0,-74.0,-247.0,-45.0,-231.0,1
25.0,-259.0,-65.0,-220.0,-69.0,-218.0,1
27.0,-262.0,-67.0,-197.0,-93.0,-205.0,1
22.0,-266.0,-63.0,-182.0,-117.0,-195.0,1
18.0,-261.0,-59.0,-168.0,-143.0,-191.0,1
20.0,-266.0,-62.0,-163.0,-170.0,-189.0,1
16.0,-265.0,-68.0,-160.0,-196.0,-192.0,1
20.0,-267.0,-64.0,-161.0,-219.0,-199.0,1
19.0,-271.0,-69.0,-164.0,-238.0,-208.0,1
22.0,-273.0,-68.0,-173.0,-256.0,-223.0,1
26.0,-276.0,-74.0,-183.0,-266.0,-241.0,1
26.0,-273.0,-72.0,-191.0,-272.0,-259.0,1
29.0,-273.0,-72.0,-200.0,-275.0,-278.0,1
32.0,-274.0,-69.0,-205.0,-276.0,-299.0,1
38.0,-282.0,-71.0,-204.0,-274.0,-317.0,1
38.0,-272.0,-71.0,-202.0,-273.0,-332.0,1
41.0,-271.0,-68.0,-191.0,-271.0,-346.0,1
45.0,-267.0,-69.0,-173.0,-269.0,-352.0,1
44.0,-264.0,-68.0,-149.0,-264.0,-353.0,1
46.0,-262.0,-70.0,-123.0,-259.0,-349.0,1
47.0,-255.0,-71.0,-95.0,-251.0,-337.0,1
49.0,-252.0,-74.0,-69.0,-246.0,-324.0,1
48.0,-247.0,-79.0,-46.0,-240.0,-307.0,1
50.0,-242.0,-77.0,-26.0,-235.0,-288.0,1
49.0,-235.0,-79.0,-14.0,-233.0,-269.0,1
49.0,-230.0,-82.0,-6.0,-232.0,-251.0,1
53.0,-227.0,-77.0,-6.0,-229.0,-232.0,1
51.0,-226.0,-80.0,-11.0,-227.0,-214.0,1
53.0,-225.0,-78.0,-20.0,-227.0,-197.0,1
53.0,-225.0,-75.0,-31.0,-227.0,-181.0,1
56.0,-227.0,-71.0,-47.0,-224.0,-169.0,1
56.0,-225.0,-75.0,-63.0,-222.0,-160.0,1
50.0,-225.0,-74.0,-82.0,-217.0,-153.0,1
50.0,-226.0,-74.0,-102.0,-214.0,-148.0,1
47.0,-229.0,-70.0,-124.0,-208.0,-148.0,1
47.0,-228.0,-69.0,-142.0,-201.0,-152.0,1
43.0,-234.0,-67.0,-160.0,-196.0,-158.0,1
41.0,-231.0,-72.0,-176.0,-193.0,-166.0,1
37.0,-233.0,-66.0,-187.0,-190.0,-177.0,1
34.0,-239.0,-68.0,-196.0,-187.0,-185.0,1
36.0,-244.0,-71.0,-198.0,-186.0,-196.0,1
31.0,-244.0,-64.0,-203.0,-180.0,-203.0,1
29.0,-244.0,-66.0,-205.0,-173.0,-205.0,1
28.0,-246.0,-70.0,-203.0,-168.0,-204.0,1
24.0,-246.0,-68.0,-198.0,-167.0,-203.0,1
27.0,-252.0,-66.0,-192.0,-166.0,-202.0,1
24.0,-251.0,-67.0,-185.0,-167.0,-197.0,1
25.0,-256.0,-71.0,-179.0,-171.0,-190.0,1
25.0,-256.0,-69.0,-171.0,-178.0,-182.0,1
26.0,-256.0,-63.0,-163.0,-189.0,-174.0,1
24.0,-254.0,-62.0,-156.0,-203.0,-163.0,1
28.0,-259.0,-61.0,-150.0,-217.0,-152.0,1
29.0,-259.0,-63.0,-148.0,-234.0,-139.0,1
31.0,-257.0,-59.0,-148.0,-255.0,-125.0,1
32.0,-256.0,-61.0,-145.0,-276.0,-111.0,1
34.0,-256.0,-60.0,-141.0,-297.0,-96.0,1
32.0,-255.0,-57.0,-137.0,-317.0,-83.0,1
31.0,-255.0,-55.0,-135.0,-336.0,-71.0,1
33.0,-259.0,-48.0,-131.0,-352.0,-58.0,1
35.0,-257.0,-49.0,-125.0,-365.0,-44.0,1
34.0,-257.0,-49.0,-119.0,-378.0,-33.0,1
33.0,-258.0,-47.0,-110.0,-390.0,-22.0,1
33.0,-257.0,-53.0,-102.0,-396.0,-11.0,1
32.0,-259.0,-54.0,-98.0,-402.0,-2.0,1
32.0,-263.0,-52.0,-95.0,-404.0,7.0,1
35.0,-263.0,-55.0,-96.0,-407.0,14.0,1
35.0,-268.0,-53.0,-96.0,-404.0,21.0,1
37.0,-268.0,-53.0,-99.0,-397.0,27.0,1
49.0,-275.0,-52.0,-96.0,-385.0,33.0,1
45.0,-278.0,-53.0,-92.0,-371.0,37.0,1
45.0,-282.0,-50.0,-84.0,-354.0,39.0,1
49.0,-282.0,-53.0,-72.0,-336.0,39.0,1
47.0,-286.0,-55.0,-55.0,-319.0,38.0,1
47.0,-285.0,-52.0,-37.0,-301.0,37.0,1
44.0,-287.0,-51.0,-17.0,-282.0,38.0,1
57.0,-297.0,-56.0,10.0,-264.0,45.0,1
49.0,-293.0,-50.0,32.0,-249.0,35.0,1
48.0,-290.0,-50.0,54.0,-236.0,34.0,1
47.0,-288.0,-50.0,75.0,-222.0,34.0,1
52.0,-298.0,-60.0,105.0,-209.0,40.0,1
51.0,-294.0,-56.0,124.0,-198.0,33.0,1
58.0,-297.0,-58.0,141.0,-186.0,31.0,1
60.0,-298.0,-60.0,147.0,-177.0,27.0,1
58.0,-297.0,-66.0,148.0,-165.0,13.0,1
62.0,-306.0,-75.0,139.0,-154.0,-1.0,1
58.0,-306.0,-80.0,116.0,-143.0,-23.0,1
63.0,-314.0,-80.0,82.0,-134.0,-45.0,1
57.0,-318.0,-81.0,44.0,-130.0,-71.0,1
55.0,-324.0,-83.0,2.0,-133.0,-96.0,1
53.0,-331.0,-81.0,-35.0,-147.0,-121.0,1
47.0,-340.0,-83.0,-61.0,-163.0,-145.0,1
43.0,-339.0,-80.0,-69.0,-184.0,-166.0,1
33.0,-339.0,-87.0,-52.0,-204.0,-180.0,1
23.0,-334.0,-88.0,-17.0,-221.0,-186.0,1
7.0,-324.0,-100.0,34.0,-237.0,-186.0,1
-11.0,-315.0,-113.0,92.0,-254.0,-181.0,1
-16.0,-303.0,-126.0,142.0,-283.0,-173.0,1
-34.0,-283.0,-138.0,197.0,-285.0,-146.0,1
-38.0,-264.0,-153.0,238.0,-284.0,-115.0,1
-40.0,-248.0,-162.0,263.0,-287.0,-87.0,1
-45.0,-236.0,-165.0,272.0,-294.0,-69.0,1
-44.0,-220.0,-165.0,273.0,-312.0,-57.0,1
-39.0,-207.0,-162.0,272.0,-341.0,-56.0,1
-37.0,-200.0,-155.0,271.0,-376.0,-59.0,1
-36.0,-195.0,-141.0,268.0,-419.0,-67.0,1
-34.0,-193.0,-132.0,267.0,-466.0,-78.0,1
-30.0,-194.0,-127.0,268.0,-510.0,-90.0,1
-30.0,-197.0,-129.0,265.0,-544.0,-100.0,1
-32.0,-195.0,-121.0,255.0,-564.0,-108.0,1
-30.0,-202.0,-121.0,237.0,-565.0,-111.0,1
-26.0,-210.0,-117.0,209.0,-548.0,-114.0,1
-20.0,-210.0,-110.0,174.0,-517.0,-116.0,1
-17.0,-219.0,-116.0,129.0,-471.0,-120.0,1
-12.0,-224.0,-109.0,79.0,-418.0,-125.0,1
-6.0,-233.0,-111.0,28.0,-360.0,-131.0,1
4.0,-240.0,-103.0,-15.0,-302.0,-136.0,1
14.0,-245.0,-103.0,-50.0,-249.0,-141.0,1
21.0,-248.0,-101.0,-74.0,-200.0,-144.0,1
26.0,-250.0,-100.0,-88.0,-155.0,-143.0,1
33.0,-253.0,-103.0,-96.0,-116.0,-137.0,1
40.0,-255.0,-101.0,-100.0,-85.0,-124.0,1
44.0,-256.0,-101.0,-99.0,-62.0,-103.0,1
46.0,-253.0,-97.0,-95.0,-44.0,-71.0,1
47.0,-260.0,-99.0,-94.0,-44.0,-32.0,1
45.0,-261.0,-98.0,-90.0,-57.0,7.0,1
46.0,-263.0,-106.0,-79.0,-73.0,50.0,1
46.0,-269.0,-101.0,-71.0,-85.0,105.0,1
44.0,-271.0,-103.0,-57.0,-103.0,158.0,1
37.0,-274.0,-97.0,-34.0,-116.0,213.0,1
35.0,-278.0,-93.0,-5.0,-129.0,259.0,1
27.0,-273.0,-90.0,28.0,-128.0,305.0,1
22.0,-274.0,-94.0,57.0,-121.0,348.0,1
22.0,-272.0,-95.0,84.0,-113.0,382.0,1
18.0,-262.0,-89.0,108.0,-94.0,407.0,1
10.0,-260.0,-92.0,127.0,-81.0,416.0,1
4.0,-250.0,-92.0,140.0,-61.0,417.0,1
0.0,-248.0,-89.0,152.0,-38.0,408.0,1
-4.0,-243.0,-88.0,167.0,-10.0,393.0,1
-9.0,-235.0,-88.0,176.0,24.0,380.0,1
-11.0,-228.0,-88.0,181.0,62.0,367.0,1
-14.0,-228.0,-87.0,183.0,104.0,350.0,1
-16.0,-224.0,-85.0,180.0,145.0,333.0,1
-16.0,-219.0,-82.0,176.0,185.0,320.0,1
-16.0,-218.0,-80.0,170.0,223.0,305.0,1
-13.0,-213.0,-74.0,160.0,262.0,290.0,1
-15.0,-215.0,-74.0,147.0,294.0,281.0,1
-18.0,-217.0,-75.0,134.0,326.0,271.0,1
-14.0,-210.0,-70.0,122.0,353.0,262.0,1
-14.0,-211.0,-65.0,111.0,373.0,256.0,1
-12.0,-211.0,-66.0,100.0,390.0,249.0,1
-13.0,-216.0,-64.0,89.0,405.0,246.0,1
-9.0,-215.0,-65.0,78.0,417.0,242.0,1
-6.0,-217.0,-57.0,65.0,427.0,236.0,1
-5.0,-217.0,-56.0,55.0,434.0,227.0,1
-1.0,-223.0,-53.0,42.0,439.0,217.0,1
4.0,-228.0,-49.0,31.0,444.0,202.0,1
4.0,-226.0,-50.0,20.0,450.0,190.0,1
2.0,-230.0,-46.0,7.0,460.0,180.0,1
1.0,-231.0,-51.0,-3.0,469.0,167.0,1
1.0,-235.0,-45.0,-10.0,479.0,153.0,1
5.0,-238.0,-39.0,-13.0,490.0,140.0,1
4.0,-237.0,-40.0,-9.0,503.0,125.0,1
4.0,-236.0,-39.0,-2.0,526.0,114.0,1
7.0,-244.0,-34.0,8.0,554.0,104.0,1
18.0,-244.0,-35.0,26.0,580.0,92.0,1
12.0,-247.0,-33.0,48.0,614.0,78.0,1
14.0,-247.0,-35.0,70.0,643.0,57.0,1
21.0,-249.0,-36.0,88.0,669.0,36.0,1
22.0,-251.0,-35.0,101.0,695.0,12.0,1
23.0,-250.0,-36.0,110.0,719.0,-13.0,1
24.0,-251.0,-41.0,116.0,738.0,-38.0,1
29.0,-254.0,-41.0,113.0,757.0,-63.0,1
28.0,-254.0,-44.0,102.0,774.0,-83.0,1
25.0,-255.0,-49.0,96.0,784.0,-101.0,1
19.0,-255.0,-47.0,90.0,784.0,-120.0,1
17.0,-254.0,-52.0,88.0,778.0,-139.0,1
12.0,-254.0,-54.0,80.0,771.0,-152.0,1
7.0,-255.0,-57.0,69.0,759.0,-163.0,1
-5.0,-256.0,-56.0,58.0,744.0,-171.0,1
-12.0,-258.0,-58.0,49.0,728.0,-175.0,1
-18.0,-260.0,-56.0,41.0,708.0,-173.0,1
-29.0,-264.0,-53.0,34.0,689.0,-170.0,1
-37.0,-266.0,-54.0,29.0,667.0,-159.0,1
-46.0,-271.0,-41.0,30.0,649.0,-145.0,1
-48.0,-280.0,-37.0,42.0,634.0,-128.0,1
-53.0,-287.0,-25.0,68.0,620.0,-108.0,1
-53.0,-294.0,-20.0,100.0,605.0,-88.0,1
-53.0,-301.0,-15.0,141.0,591.0,-66.0,1
-52.0,-306.0,-11.0,185.0,575.0,-42.0,1
-46.0,-309.0,-12.0,224.0,556.0,-20.0,1
-42.0,-315.0,-18.0,250.0,537.0,-1.0,1
-32.0,-317.0,-32.0,251.0,523.0,18.0,1
-28.0,-320.0,-51.0,225.0,516.0,38.0,1
-26.0,-323.0,-67.0,168.0,515.0,57.0,1
-30.0,-332.0,-87.0,83.0,517.0,74.0,1
-32.0,-345.0,-107.0,-21.0,512.0,80.0,1
-33.0,-358.0,-118.0,-138.0,491.0,81.0,1
-44.0,-368.0,-128.0,-256.0,462.0,80.0,1
-54.0,-380.0,-128.0,-355.0,424.0,85.0,1
-60.0,-385.0,-124.0,-415.0,375.0,103.0,1
-58.0,-386.0,-120.0,-419.0,319.0,133.0,1
-54.0,-386.0,-117.0,-372.0,256.0,178.0,1
-49.0,-376.0,-118.0,-303.0,195.0,233.0,1
-43.0,-360.0,-121.0,-228.0,138.0,288.0,1
-34.0,-343.0,-128.0,-149.0,87.0,337.0,1
-23.0,-320.0,-137.0,-66.0,46.0,376.0,1
-9.0,-302.0,-142.0,20.0,11.0,409.0,1
1.0,-277.0,-153.0,97.0,-15.0,431.0,1
20.0,-259.0,-153.0,165.0,-27.0,446.0,1
40.0,-236.0,-157.0,225.0,-27.0,445.0,1
49.0,-214.0,-152.0,273.0,-10.0,429.0,1
64.0,-202.0,-152.0,313.0,20.0,401.0,1
78.0,-187.0,-144.0,339.0,62.0,362.0,1
90.0,-181.0,-136.0,351.0,110.0,313.0,1
102.0,-181.0,-133.0,340.0,165.0,249.0,1
108.0,-183.0,-126.0,311.0,221.0,177.0,1
109.0,-188.0,-118.0,260.0,276.0,103.0,1
98.0,-192.0,-105.0,201.0,325.0,25.0,1
91.0,-201.0,-95.0,138.0,359.0,-47.0,1
76.0,-207.0,-97.0,70.0,372.0,-114.0,1
58.0,-221.0,-85.0,1.0,365.0,-170.0,1
38.0,-228.0,-76.0,-69.0,338.0,-212.0,1
16.0,-241.0,-64.0,-133.0,290.0,-242.0,1
-3.0,-250.0,-58.0,-191.0,228.0,-254.0,1
-17.0,-260.0,-55.0,-233.0,157.0,-246.0,1
-32.0,-269.0,-56.0,-263.0,77.0,-227.0,1
-36.0,-279.0,-59.0,-276.0,-13.0,-205.0,1
-41.0,-286.0,-69.0,-277.0,-92.0,-174.0,1
-36.0,-288.0,-78.0,-269.0,-162.0,-139.0,1
-47.0,-289.0,-90.0,-257.0,-226.0,-106.0,1
-41.0,-285.0,-101.0,-252.0,-303.0,-90.0,1
-39.0,-283.0,-108.0,-249.0,-362.0,-75.0,1
-34.0,-279.0,-121.0,-235.0,-394.0,-61.0,1
-26.0,-275.0,-125.0,-220.0,-402.0,-48.0,1
-17.0,-270.0,-122.0,-194.0,-396.0,-55.0,1
-12.0,-268.0,-118.0,-148.0,-380.0,-76.0,1
-10.0,-260.0,-119.0,-81.0,-356.0,-105.0,1
-1.0,-259.0,-110.0,-12.0,-327.0,-147.0,1
0.0,-252.0,-105.0,57.0,-297.0,-190.0,1
5.0,-244.0,-100.0,112.0,-277.0,-239.0,1
9.0,-238.0,-97.0,150.0,-273.0,-300.0,1
14.0,-229.0,-90.0,170.0,-284.0,-363.0,1
23.0,-223.0,-83.0,180.0,-290.0,-412.0,1
33.0,-215.0,-79.0,193.0,-288.0,-442.0,1
36.0,-207.0,-71.0,194.0,-291.0,-462.0,1
43.0,-198.0,-66.0,191.0,-303.0,-477.0,1
43.0,-191.0,-62.0,190.0,-321.0,-480.0,1
51.0,-187.0,-59.0,191.0,-350.0,-477.0,1
53.0,-183.0,-58.0,188.0,-391.0,-468.0,1
53.0,-179.0,-54.0,182.0,-440.0,-449.0,1
58.0,-178.0,-55.0,163.0,-489.0,-420.0,1
57.0,-172.0,-55.0,130.0,-539.0,-384.0,1
61.0,-178.0,-57.0,83.0,-585.0,-342.0,1
54.0,-178.0,-56.0,26.0,-626.0,-299.0,1
50.0,-179.0,-62.0,-35.0,-659.0,-255.0,1
45.0,-184.0,-64.0,-98.0,-684.0,-215.0,1
40.0,-190.0,-63.0,-154.0,-700.0,-177.0,1
35.0,-198.0,-63.0,-205.0,-705.0,-143.0,1
29.0,-203.0,-57.0,-251.0,-703.0,-110.0,1
26.0,-211.0,-57.0,-287.0,-695.0,-80.0,1
23.0,-223.0,-55.0,-308.0,-680.0,-55.0,1
22.0,-232.0,-55.0,-317.0,-665.0,-33.0,1
22.0,-243.0,-53.0,-311.0,-650.0,-16.0,1
16.0,-247.0,-47.0,-290.0,-637.0,-1.0,1
17.0,-256.0,-41.0,-260.0,-624.0,11.0,1
16.0,-261.0,-36.0,-221.0,-616.0,20.0,1
14.0,-264.0,-38.0,-176.0,-612.0,27.0,1
14.0,-271.0,-36.0,-128.0,-612.0,35.0,1
13.0,-271.0,-37.0,-84.0,-616.0,41.0,1
13.0,-273.0,-34.0,-44.0,-627.0,46.0,1
9.0,-272.0,-33.0,-8.0,-640.0,52.0,1
12.0,-274.0,-39.0,23.0,-653.0,58.0,1
13.0,-275.0,-44.0,46.0,-659.0,67.0,1
11.0,-275.0,-50.0,64.0,-661.0,77.0,1
15.0,-269.0,-48.0,72.0,-661.0,87.0,1
20.0,-261.0,-53.0,75.0,-656.0,97.0,1
23.0,-260.0,-56.0,75.0,-645.0,106.0,1
30.0,-255.0,-62.0,70.0,-632.0,115.0,1
32.0,-253.0,-61.0,64.0,-614.0,123.0,1
38.0,-248.0,-59.0,55.0,-596.0,131.0,1
45.0,-246.0,-57.0,48.0,-580.0,138.0,1
46.0,-244.0,-58.0,42.0,-563.0,146.0,1
50.0,-244.0,-55.0,36.0,-548.0,151.0,1
57.0,-242.0,-51.0,32.0,-534.0,155.0,1
59.0,-249.0,-44.0,27.0,-518.0,154.0,1
65.0,-255.0,-41.0,25.0,-501.0,152.0,1
66.0,-260.0,-35.0,29.0,-486.0,142.0,1
71.0,-262.0,-23.0,36.0,-469.0,126.0,1
68.0,-266.0,-16.0,48.0,-453.0,109.0,1
68.0,-275.0,-10.0,68.0,-438.0,87.0,1
63.0,-274.0,-2.0,89.0,-430.0,64.0,1
74.0,-281.0,-4.0,100.0,-441.0,27.0,1
69.0,-289.0,-1.0,106.0,-442.0,-7.0,1
79.0,-299.0,-14.0,135.0,-417.0,-17.0,1
77.0,-302.0,-30.0,149.0,-392.0,-37.0,1
70.0,-309.0,-44.0,133.0,-357.0,-54.0,1
63.0,-318.0,-68.0,80.0,-314.0,-73.0,1
52.0,-329.0,-86.0,-9.0,-266.0,-99.0,1
47.0,-342.0,-112.0,-132.0,-222.0,-126.0,1
43.0,-359.0,-126.0,-276.0,-180.0,-162.0,1
39.0,-378.0,-132.0,-416.0,-145.0,-202.0,1
39.0,-399.0,-140.0,-532.0,-120.0,-241.0,1
39.0,-421.0,-140.0,-600.0,-109.0,-285.0,1
40.0,-435.0,-131.0,-599.0,-106.0,-332.0,1
47.0,-446.0,-125.0,-527.0,-107.0,-380.0,1
44.0,-441.0,-120.0,-407.0,-102.0,-418.0,1
36.0,-430.0,-127.0,-262.0,-89.0,-445.0,1
25.0,-409.0,-141.0,-107.0,-72.0,-461.0,1
15.0,-381.0,-153.0,49.0,-48.0,-470.0,1
6.0,-348.0,-164.0,191.0,-21.0,-473.0,1
-8.0,-314.0,-172.0,308.0,0.0,-471.0,1
-14.0,-276.0,-173.0,401.0,10.0,-463.0,1
-28.0,-247.0,-172.0,467.0,6.0,-449.0,1
-34.0,-214.0,-168.0,509.0,-11.0,-427.0,1
-47.0,-185.0,-162.0,528.0,-37.0,-402.0,1
-48.0,-163.0,-153.0,528.0,-68.0,-373.0,1
-52.0,-146.0,-139.0,518.0,-101.0,-342.0,1
-58.0,-135.0,-123.0,497.0,-131.0,-310.0,1
-59.0,-136.0,-113.0,465.0,-159.0,-273.0,1
-65.0,-139.0,-100.0,427.0,-181.0,-224.0,1
-66.0,-149.0,-90.0,377.0,-199.0,-166.0,1
-62.0,-157.0,-86.0,322.0,-216.0,-102.0,1
-54.0,-175.0,-74.0,264.0,-228.0,-41.0,1
-43.0,-186.0,-72.0,204.0,-233.0,9.0,1
-30.0,-201.0,-75.0,135.0,-228.0,49.0,1
-13.0,-215.0,-71.0,56.0,-215.0,72.0,1
5.0,-235.0,-67.0,-29.0,-189.0,81.0,1
22.0,-251.0,-73.0,-108.0,-151.0,79.0,1
36.0,-256.0,-73.0,-181.0,-102.0,65.0,1
48.0,-263.0,-77.0,-247.0,-38.0,50.0,1
57.0,-274.0,-82.0,-298.0,34.0,35.0,1
61.0,-280.0,-89.0,-335.0,103.0,16.0,1
67.0,-288.0,-95.0,-354.0,159.0,-5.0,1
69.0,-292.0,-104.0,-352.0,210.0,-21.0,1
66.0,-297.0,-103.0,-329.0,256.0,-27.0,1
64.0,-294.0,-106.0,-289.0,299.0,-18.0,1
64.0,-293.0,-108.0,-237.0,335.0,7.0,1
53.0,-295.0,-97.0,-194.0,383.0,59.0,1
51.0,-292.0,-95.0,-124.0,363.0,85.0,1
39.0,-286.0,-97.0,-21.0,324.0,108.0,1
35.0,-280.0,-91.0,91.0,295.0,134.0,1
31.0,-275.0,-93.0,187.0,281.0,174.0,1
26.0,-264.0,-87.0,266.0,276.0,217.0,1
15.0,-256.0,-90.0,317.0,274.0,259.0,1
9.0,-243.0,-85.0,343.0,276.0,300.0,1
1.0,-233.0,-88.0,345.0,284.0,335.0,1
-4.0,-223.0,-80.0,325.0,295.0,366.0,1
-11.0,-217.0,-80.0,295.0,313.0,395.0,1
-16.0,-209.0,-66.0,256.0,337.0,413.0,1
-21.0,-203.0,-64.0,220.0,369.0,429.0,1
-24.0,-199.0,-61.0,188.0,404.0,436.0,1
-29.0,-193.0,-57.0,155.0,441.0,437.0,1
-31.0,-191.0,-58.0,126.0,481.0,432.0,1
-33.0,-192.0,-59.0,97.0,523.0,425.0,1
-34.0,-192.0,-58.0,68.0,559.0,411.0,1
-38.0,-189.0,-59.0,41.0,590.0,399.0,1
-35.0,-192.0,-57.0,10.0,616.0,382.0,1
-39.0,-190.0,-57.0,-20.0,632.0,364.0,1
-36.0,-193.0,-55.0,-53.0,638.0,338.0,1
-41.0,-199.0,-59.0,-87.0,640.0,312.0,1
-32.0,-204.0,-55.0,-111.0,626.0,279.0,1
-34.0,-211.0,-56.0,-135.0,615.0,247.0,1
-27.0,-217.0,-54.0,-155.0,599.0,213.0,1
-22.0,-226.0,-49.0,-160.0,579.0,174.0,1
-19.0,-230.0,-53.0,-162.0,565.0,136.0,1
-17.0,-232.0,-47.0,-164.0,560.0,102.0,1
-15.0,-239.0,-47.0,-163.0,561.0,72.0,1
-14.0,-244.0,-43.0,-159.0,563.0,46.0,1
-12.0,-247.0,-40.0,-148.0,568.0,21.0,1
-8.0,-252.0,-37.0,-137.0,572.0,-1.0,1
-6.0,-252.0,-34.0,-119.0,575.0,-19.0,1
-6.0,-256.0,-28.0,-98.0,580.0,-34.0,1
0.0,-256.0,-28.0,-77.0,585.0,-46.0,1
5.0,-258.0,-30.0,-56.0,591.0,-52.0,1
7.0,-259.0,-27.0,-39.0,598.0,-58.0,1
10.0,-261.0,-30.0,-24.0,604.0,-61.0,1
8.0,-260.0,-30.0,-10.0,608.0,-62.0,1
9.0,-260.0,-32.0,-2.0,608.0,-61.0,1
11.0,-263.0,-29.0,3.0,611.0,-56.0,1
10.0,-259.0,-26.0,6.0,613.0,-52.0,1
8.0,-263.0,-36.0,11.0,612.0,-45.0,1
11.0,-262.0,-41.0,12.0,607.0,-40.0,1
1.0,-259.0,-40.0,12.0,594.0,-38.0,1
-3.0,-256.0,-43.0,14.0,578.0,-35.0,1
-3.0,-254.0,-42.0,18.0,563.0,-34.0,1
-10.0,-241.0,-48.0,8.0,557.0,-32.0,1
-25.0,-257.0,-39.0,-40.0,580.0,-22.0,1
-26.0,-251.0,-46.0,-7.0,527.0,-40.0,1
-32.0,-249.0,-48.0,37.0,478.0,-60.0,1
-32.0,-249.0,-47.0,62.0,448.0,-73.0,1
-42.0,-254.0,-50.0,82.0,424.0,-81.0,1
-42.0,-256.0,-44.0,99.0,403.0,-82.0,1
-49.0,-260.0,-43.0,113.0,388.0,-77.0,1
-49.0,-259.0,-34.0,123.0,378.0,-68.0,1
-46.0,-267.0,-26.0,138.0,374.0,-59.0,1
-46.0,-270.0,-16.0,162.0,377.0,-50.0,1
-41.0,-272.0,-8.0,190.0,383.0,-45.0,1
-35.0,-272.0,-4.0,218.0,394.0,-41.0,1
-26.0,-275.0,8.0,250.0,406.0,-38.0,1
-12.0,-283.0,4.0,275.0,422.0,-37.0,1
-2.0,-282.0,0.0,290.0,450.0,-41.0,1
9.0,-281.0,-9.0,283.0,479.0,-50.0,1
20.0,-281.0,-34.0,247.0,511.0,-61.0,1
27.0,-283.0,-57.0,177.0,543.0,-78.0,1
26.0,-290.0,-79.0,72.0,564.0,-94.0,1
28.0,-301.0,-107.0,-66.0,571.0,-106.0,1
19.0,-314.0,-124.0,-226.0,560.0,-107.0,1
22.0,-331.0,-137.0,-388.0,534.0,-96.0,1
-1.0,-340.0,-146.0,-530.0,500.0,-67.0,1
-15.0,-359.0,-147.0,-627.0,460.0,-13.0,1
-31.0,-366.0,-143.0,-666.0,411.0,65.0,1
-36.0,-370.0,-137.0,-650.0,357.0,164.0,1
-34.0,-373.0,-143.0,-600.0,303.0,277.0,1
-22.0,-363.0,-154.0,-538.0,251.0,391.0,1
-15.0,-348.0,-150.0,-465.0,205.0,497.0,1
0.0,-333.0,-157.0,-379.0,162.0,584.0,1
19.0,-322.0,-156.0,-285.0,116.0,651.0,1
34.0,-303.0,-162.0,-183.0,74.0,697.0,1
49.0,-290.0,-165.0,-85.0,37.0,717.0,1
66.0,-274.0,-159.0,7.0,11.0,713.0,1
79.0,-262.0,-158.0,89.0,0.0,688.0,1
92.0,-252.0,-152.0,162.0,10.0,637.0,1
101.0,-247.0,-146.0,217.0,34.0,569.0,1
105.0,-241.0,-139.0,243.0,73.0,485.0,1
109.0,-236.0,-131.0,242.0,119.0,389.0,1
107.0,-238.0,-124.0,214.0,173.0,284.0,1
105.0,-240.0,-119.0,166.0,226.0,177.0,1
93.0,-241.0,-112.0,105.0,279.0,73.0,1
77.0,-245.0,-101.0,35.0,326.0,-26.0,1
62.0,-253.0,-101.0,-35.0,363.0,-113.0,1
42.0,-258.0,-85.0,-104.0,387.0,-187.0,1
22.0,-263.0,-80.0,-161.0,397.0,-247.0,1
1.0,-266.0,-72.0,-209.0,394.0,-289.0,1
-14.0,-267.0,-65.0,-243.0,377.0,-317.0,1
-25.0,-274.0,-64.0,-262.0,350.0,-330.0,1
-35.0,-269.0,-66.0,-265.0,317.0,-327.0,1
-40.0,-275.0,-69.0,-261.0,280.0,-313.0,1
-40.0,-272.0,-71.0,-252.0,234.0,-287.0,1
-48.0,-268.0,-77.0,-237.0,176.0,-261.0,1
-44.0,-262.0,-89.0,-224.0,112.0,-224.0,1
-56.0,-260.0,-95.0,-209.0,48.0,-186.0,1
-49.0,-253.0,-102.0,-200.0,-22.0,-156.0,1
-54.0,-248.0,-108.0,-194.0,-79.0,-122.0,1
-41.0,-247.0,-112.0,-187.0,-139.0,-108.0,1
-31.0,-241.0,-111.0,-175.0,-181.0,-92.0,1
-33.0,-240.0,-111.0,-155.0,-202.0,-78.0,1
-19.0,-234.0,-104.0,-136.0,-222.0,-81.0,1
-16.0,-227.0,-99.0,-115.0,-246.0,-99.0,1
-10.0,-228.0,-92.0,-97.0,-274.0,-131.0,1
-7.0,-221.0,-87.0,-73.0,-288.0,-154.0,1
-1.0,-216.0,-87.0,-58.0,-304.0,-182.0,1
6.0,-213.0,-75.0,-52.0,-325.0,-213.0,1
15.0,-213.0,-72.0,-51.0,-349.0,-245.0,1
23.0,-212.0,-71.0,-54.0,-377.0,-277.0,1
30.0,-209.0,-68.0,-56.0,-410.0,-313.0,1
33.0,-205.0,-62.0,-61.0,-444.0,-343.0,1
44.0,-204.0,-65.0,-66.0,-475.0,-361.0,1
45.0,-205.0,-62.0,-71.0,-492.0,-364.0,1
50.0,-200.0,-57.0,-74.0,-512.0,-360.0,1
56.0,-199.0,-61.0,-80.0,-530.0,-350.0,1
55.0,-199.0,-62.0,-95.0,-545.0,-335.0,1
57.0,-200.0,-60.0,-112.0,-558.0,-317.0,1
56.0,-201.0,-64.0,-132.0,-568.0,-297.0,1
54.0,-205.0,-60.0,-154.0,-575.0,-274.0,1
53.0,-205.0,-66.0,-175.0,-577.0,-250.0,1
48.0,-211.0,-65.0,-196.0,-579.0,-223.0,1
46.0,-211.0,-69.0,-218.0,-578.0,-197.0,1
45.0,-222.0,-76.0,-240.0,-574.0,-168.0,1
38.0,-224.0,-67.0,-260.0,-568.0,-141.0,1
36.0,-228.0,-66.0,-275.0,-561.0,-112.0,1
34.0,-229.0,-59.0,-285.0,-551.0,-84.0,1
31.0,-236.0,-58.0,-291.0,-538.0,-54.0,1
31.0,-241.0,-58.0,-292.0,-525.0,-27.0,1
27.0,-244.0,-57.0,-287.0,-513.0,-3.0,1
30.0,-249.0,-51.0,-279.0,-500.0,17.0,1
33.0,-249.0,-54.0,-267.0,-489.0,34.0,1
29.0,-251.0,-54.0,-254.0,-480.0,47.0,1
27.0,-252.0,-52.0,-240.0,-471.0,58.0,1
33.0,-253.0,-40.0,-224.0,-466.0,66.0,1
29.0,-254.0,-50.0,-212.0,-464.0,71.0,1
29.0,-252.0,-48.0,-201.0,-462.0,73.0,1
30.0,-254.0,-46.0,-191.0,-460.0,75.0,1
35.0,-255.0,-50.0,-182.0,-460.0,75.0,1
30.0,-252.0,-55.0,-176.0,-456.0,75.0,1
29.0,-252.0,-54.0,-172.0,-450.0,75.0,1
33.0,-249.0,-56.0,-171.0,-439.0,74.0,1
35.0,-251.0,-57.0,-172.0,-427.0,73.0,1
38.0,-244.0,-59.0,-174.0,-414.0,76.0,1
38.0,-251.0,-63.0,-174.0,-398.0,80.0,1
33.0,-249.0,-60.0,-176.0,-385.0,84.0,1
42.0,-251.0,-61.0,-177.0,-370.0,90.0,1
44.0,-251.0,-56.0,-177.0,-357.0,99.0,1
42.0,-253.0,-60.0,-171.0,-340.0,109.0,1
46.0,-258.0,-55.0,-162.0,-327.0,119.0,1
45.0,-259.0,-58.0,-153.0,-311.0,131.0,1
46.0,-260.0,-57.0,-143.0,-298.0,141.0,1
48.0,-260.0,-60.0,-136.0,-281.0,151.0,1
49.0,-265.0,-55.0,-133.0,-264.0,157.0,1
54.0,-272.0,-56.0,-132.0,-248.0,162.0,1
54.0,-275.0,-56.0,-129.0,-232.0,159.0,1
49.0,-277.0,-49.0,-122.0,-218.0,152.0,1
54.0,-286.0,-42.0,-108.0,-207.0,139.0,1
52.0,-289.0,-36.0,-92.0,-202.0,121.0,1
50.0,-293.0,-29.0,-71.0,-201.0,100.0,1
49.0,-298.0,-24.0,-46.0,-204.0,75.0,1
41.0,-299.0,-16.0,-21.0,-209.0,49.0,1
36.0,-304.0,-11.0,9.0,-214.0,24.0,1
36.0,-301.0,-17.0,37.0,-214.0,2.0,1
36.0,-305.0,-20.0,62.0,-199.0,-12.0,1
33.0,-304.0,-26.0,82.0,-187.0,-29.0,1
19.0,-298.0,-42.0,91.0,-171.0,-43.0,1
12.0,-296.0,-48.0,85.0,-162.0,-61.0,1
16.0,-288.0,-65.0,54.0,-151.0,-75.0,1
14.0,-291.0,-79.0,-7.0,-132.0,-86.0,1
10.0,-288.0,-97.0,-76.0,-103.0,-87.0,1
16.0,-300.0,-110.0,-155.0,-80.0,-96.0,1
17.0,-309.0,-114.0,-240.0,-72.0,-117.0,1
22.0,-325.0,-120.0,-322.0,-67.0,-145.0,1
30.0,-339.0,-119.0,-383.0,-69.0,-180.0,1
35.0,-357.0,-114.0,-415.0,-72.0,-219.0,1
38.0,-368.0,-115.0,-407.0,-69.0,-261.0,1
44.0,-373.0,-113.0,-369.0,-62.0,-305.0,1
47.0,-380.0,-111.0,-305.0,-46.0,-347.0,1
43.0,-376.0,-118.0,-226.0,-23.0,-383.0,1
36.0,-362.0,-123.0,-140.0,6.0,-413.0,1
33.0,-349.0,-135.0,-51.0,38.0,-436.0,1
22.0,-329.0,-140.0,33.0,67.0,-452.0,1
13.0,-312.0,-149.0,112.0,89.0,-462.0,1
6.0,-287.0,-154.0,181.0,104.0,-460.0,1
-6.0,-262.0,-157.0,235.0,106.0,-449.0,1
-19.0,-234.0,-153.0,278.0,96.0,-432.0,1
-25.0,-208.0,-150.0,311.0,73.0,-408.0,1
-41.0,-191.0,-145.0,336.0,35.0,-380.0,1
-43.0,-172.0,-137.0,350.0,-13.0,-348.0,1
-54.0,-160.0,-129.0,353.0,-67.0,-317.0,1
-63.0,-147.0,-121.0,342.0,-130.0,-284.0,1
-64.0,-143.0,-115.0,321.0,-191.0,-251.0,1
-71.0,-144.0,-108.0,293.0,-245.0,-215.0,1
-72.0,-148.0,-101.0,256.0,-291.0,-177.0,1
-75.0,-157.0,-92.0,206.0,-327.0,-142.0,1
-71.0,-166.0,-89.0,145.0,-359.0,-111.0,1
-66.0,-178.0,-84.0,75.0,-382.0,-83.0,1
-56.0,-189.0,-82.0,-3.0,-398.0,-62.0,1
-43.0,-204.0,-82.0,-82.0,-400.0,-47.0,1
-31.0,-220.0,-82.0,-162.0,-389.0,-42.0,1
-18.0,-231.0,-82.0,-240.0,-358.0,-44.0,1
-9.0,-244.0,-91.0,-311.0,-322.0,-52.0,1
4.0,-254.0,-99.0,-377.0,-277.0,-63.0,1
20.0,-262.0,-104.0,-433.0,-227.0,-79.0,1
28.0,-271.0,-109.0,-475.0,-169.0,-91.0,1
36.0,-286.0,-109.0,-500.0,-100.0,-96.0,1
48.0,-295.0,-112.0,-507.0,-48.0,-107.0,1
54.0,-307.0,-110.0,-496.0,-4.0,-115.0,1
60.0,-317.0,-112.0,-469.0,32.0,-114.0,1
66.0,-319.0,-105.0,-422.0,63.0,-103.0,1
77.0,-319.0,-106.0,-354.0,88.0,-74.0,1
61.0,-324.0,-92.0,-288.0,121.0,-30.0,1
60.0,-322.0,-88.0,-201.0,103.0,-2.0,1
55.0,-315.0,-86.0,-87.0,75.0,29.0,1
49.0,-309.0,-87.0,21.0,57.0,65.0,1
45.0,-301.0,-82.0,114.0,41.0,108.0,1
37.0,-289.0,-80.0,188.0,31.0,153.0,1
30.0,-278.0,-79.0,234.0,26.0,198.0,1
22.0,-268.0,-76.0,259.0,27.0,244.0,1
15.0,-259.0,-72.0,261.0,31.0,280.0,1
5.0,-248.0,-71.0,251.0,40.0,311.0,1
-2.0,-242.0,-69.0,230.0,53.0,334.0,1
-8.0,-238.0,-68.0,203.0,69.0,351.0,1
-16.0,-232.0,-63.0,173.0,88.0,361.0,1
-21.0,-225.0,-61.0,147.0,113.0,365.0,1
-28.0,-222.0,-57.0,124.0,140.0,361.0,1
-32.0,-219.0,-55.0,103.0,170.0,355.0,1
-36.0,-216.0,-59.0,85.0,196.0,342.0,1
-41.0,-212.0,-58.0,70.0,225.0,328.0,1
-40.0,-208.0,-56.0,58.0,251.0,312.0,1
-46.0,-207.0,-56.0,48.0,271.0,294.0,1
-47.0,-204.0,-59.0,40.0,289.0,275.0,1
-43.0,-202.0,-60.0,36.0,299.0,252.0,1
-44.0,-206.0,-58.0,32.0,301.0,225.0,1
-43.0,-204.0,-57.0,29.0,300.0,197.0,1
-34.0,-210.0,-61.0,27.0,297.0,172.0,1
-31.0,-209.0,-63.0,23.0,289.0,151.0,1
-32.0,-213.0,-60.0,12.0,286.0,130.0,1
-21.0,-216.0,-59.0,1.0,282.0,113.0,1
-22.0,-221.0,-64.0,-12.0,279.0,97.0,1
-12.0,-227.0,-64.0,-25.0,277.0,83.0,1
-12.0,-227.0,-59.0,-40.0,280.0,75.0,1
-8.0,-234.0,-56.0,-54.0,279.0,64.0,1
-6.0,-236.0,-55.0,-61.0,285.0,57.0,1
-2.0,-245.0,-49.0,-65.0,292.0,55.0,1
1.0,-249.0,-46.0,-66.0,302.0,54.0,1
4.0,-250.0,-46.0,-62.0,314.0,56.0,1
3.0,-255.0,-38.0,-53.0,325.0,60.0,1
6.0,-257.0,-39.0,-33.0,322.0,54.0,1
7.0,-257.0,-36.0,-12.0,321.0,47.0,1
10.0,-257.0,-37.0,9.0,324.0,39.0,1
3.0,-256.0,-40.0,30.0,322.0,29.0,1
2.0,-254.0,-38.0,47.0,316.0,16.0,1
5.0,-253.0,-43.0,57.0,313.0,4.0,1
2.0,-247.0,-44.0,67.0,312.0,-8.0,1
1.0,-247.0,-47.0,70.0,306.0,-19.0,1
-3.0,-245.0,-46.0,68.0,301.0,-30.0,1
-10.0,-236.0,-50.0,61.0,295.0,-40.0,1
-13.0,-237.0,-44.0,50.0,286.0,-49.0,1
-18.0,-241.0,-43.0,39.0,278.0,-58.0,1
-23.0,-243.0,-45.0,26.0,274.0,-66.0,1
-25.0,-241.0,-43.0,13.0,270.0,-74.0,1
-30.0,-247.0,-45.0,-2.0,271.0,-80.0,1
-37.0,-244.0,-49.0,-18.0,270.0,-91.0,1
-32.0,-255.0,-46.0,-37.0,270.0,-100.0,1
-36.0,-256.0,-48.0,-54.0,268.0,-110.0,1
-38.0,-261.0,-51.0,-72.0,261.0,-120.0,1
-42.0,-264.0,-48.0,-85.0,248.0,-126.0,1
-45.0,-273.0,-56.0,-97.0,233.0,-126.0,1
-49.0,-279.0,-53.0,-103.0,217.0,-122.0,1
-55.0,-283.0,-47.0,-100.0,201.0,-113.0,1
-55.0,-290.0,-40.0,-86.0,192.0,-98.0,1
-55.0,-297.0,-31.0,-62.0,186.0,-82.0,1
-49.0,-308.0,-26.0,-28.0,182.0,-62.0,1
-44.0,-307.0,-18.0,12.0,180.0,-42.0,1
-37.0,-314.0,-8.0,59.0,178.0,-23.0,1
-29.0,-316.0,-6.0,106.0,173.0,-3.0,1
-14.0,-319.0,-7.0,153.0,168.0,16.0,1
-3.0,-322.0,-16.0,186.0,163.0,31.0,1
10.0,-320.0,-28.0,200.0,164.0,44.0,1
19.0,-321.0,-47.0,183.0,170.0,56.0,1
15.0,-318.0,-65.0,133.0,174.0,64.0,1
17.0,-320.0,-77.0,53.0,180.0,70.0,1
15.0,-324.0,-97.0,-48.0,184.0,72.0,1
7.0,-321.0,-103.0,-158.0,184.0,76.0,1
1.0,-340.0,-114.0,-265.0,175.0,85.0,1
-9.0,-350.0,-121.0,-351.0,161.0,94.0,1
-16.0,-359.0,-110.0,-405.0,144.0,113.0,1
-26.0,-370.0,-111.0,-411.0,125.0,139.0,1
-33.0,-373.0,-105.0,-376.0,98.0,177.0,1
-33.0,-376.0,-102.0,-316.0,67.0,226.0,1
-30.0,-368.0,-109.0,-250.0,26.0,280.0,1
-25.0,-358.0,-114.0,-178.0,-19.0,332.0,1
-16.0,-344.0,-128.0,-103.0,-66.0,378.0,1
-11.0,-327.0,-137.0,-28.0,-110.0,415.0,1
-1.0,-310.0,-144.0,41.0,-144.0,440.0,1
13.0,-295.0,-155.0,100.0,-165.0,452.0,1
27.0,-278.0,-157.0,146.0,-170.0,452.0,1
43.0,-260.0,-159.0,191.0,-159.0,439.0,1
58.0,-245.0,-157.0,231.0,-132.0,411.0,1
71.0,-228.0,-154.0,269.0,-89.0,375.0,1
88.0,-219.0,-145.0,302.0,-36.0,328.0,1
101.0,-207.0,-141.0,322.0,26.0,275.0,1
109.0,-201.0,-136.0,327.0,95.0,213.0,1
112.0,-195.0,-133.0,309.0,163.0,143.0,1
108.0,-197.0,-124.0,274.0,231.0,69.0,1
110.0,-197.0,-121.0,221.0,296.0,-6.0,1
107.0,-200.0,-121.0,160.0,353.0,-77.0,1
95.0,-202.0,-111.0,95.0,401.0,-141.0,1
80.0,-210.0,-104.0,30.0,437.0,-195.0,1
69.0,-215.0,-94.0,-28.0,456.0,-236.0,1
54.0,-224.0,-84.0,-79.0,457.0,-263.0,1
39.0,-230.0,-76.0,-115.0,439.0,-272.0,1
25.0,-236.0,-70.0,-147.0,405.0,-267.0,1
16.0,-241.0,-66.0,-170.0,353.0,-251.0,1
1.0,-248.0,-72.0,-187.0,291.0,-225.0,1
-4.0,-254.0,-70.0,-205.0,223.0,-191.0,1
-15.0,-259.0,-81.0,-224.0,150.0,-154.0,1
-17.0,-262.0,-86.0,-242.0,74.0,-119.0,1
-30.0,-264.0,-91.0,-257.0,-1.0,-83.0,1
-36.0,-269.0,-101.0,-271.0,-73.0,-54.0,1
-40.0,-270.0,-105.0,-283.0,-139.0,-32.0,1
-41.0,-272.0,-114.0,-285.0,-195.0,-14.0,1
-37.0,-272.0,-117.0,-276.0,-238.0,-8.0,1
-37.0,-273.0,-113.0,-254.0,-275.0,-17.0,1
-27.0,-269.0,-113.0,-213.0,-281.0,-25.0,1
-23.0,-265.0,-106.0,-155.0,-262.0,-41.0,1
-13.0,-261.0,-109.0,-90.0,-244.0,-71.0,1
-10.0,-256.0,-108.0,-22.0,-217.0,-102.0,1
-4.0,-250.0,-107.0,38.0,-193.0,-140.0,1
5.0,-243.0,-101.0,81.0,-173.0,-177.0,1
15.0,-240.0,-103.0,113.0,-161.0,-218.0,1
23.0,-233.0,-96.0,133.0,-157.0,-256.0,1
30.0,-226.0,-89.0,145.0,-161.0,-296.0,1
41.0,-218.0,-86.0,150.0,-173.0,-332.0,1
46.0,-217.0,-79.0,156.0,-185.0,-360.0,1
55.0,-212.0,-78.0,156.0,-198.0,-377.0,1
62.0,-208.0,-70.0,144.0,-208.0,-378.0,1
65.0,-207.0,-68.0,128.0,-221.0,-369.0,1
65.0,-205.0,-66.0,108.0,-243.0,-354.0,1
72.0,-202.0,-69.0,80.0,-270.0,-333.0,1
74.0,-203.0,-67.0,53.0,-297.0,-304.0,1
74.0,-203.0,-64.0,17.0,-324.0,-273.0,1
72.0,-206.0,-68.0,-22.0,-353.0,-240.0,1
66.0,-207.0,-70.0,-61.0,-381.0,-208.0,1
62.0,-210.0,-69.0,-100.0,-402.0,-175.0,1
56.0,-211.0,-73.0,-138.0,-420.0,-143.0,1
49.0,-217.0,-74.0,-175.0,-434.0,-111.0,1
43.0,-221.0,-71.0,-210.0,-442.0,-79.0,1
40.0,-223.0,-71.0,-237.0,-453.0,-53.0,1
35.0,-233.0,-70.0,-257.0,-460.0,-30.0,1
28.0,-233.0,-69.0,-270.0,-456.0,-8.0,1
23.0,-237.0,-64.0,-269.0,-448.0,9.0,1
22.0,-243.0,-60.0,-257.0,-439.0,25.0,1
19.0,-249.0,-58.0,-241.0,-433.0,31.0,1
15.0,-248.0,-55.0,-222.0,-426.0,37.0,1
7.0,-252.0,-50.0,-200.0,-425.0,36.0,1
7.0,-254.0,-52.0,-177.0,-427.0,32.0,1
8.0,-256.0,-51.0,-153.0,-424.0,30.0,1
9.0,-255.0,-48.0,-130.0,-425.0,27.0,1
4.0,-256.0,-45.0,-105.0,-428.0,24.0,1
3.0,-253.0,-48.0,-84.0,-431.0,24.0,1
5.0,-250.0,-52.0,-64.0,-442.0,21.0,1
4.0,-253.0,-40.0,-42.0,-460.0,18.0,1
8.0,-247.0,-42.0,-20.0,-482.0,16.0,1
13.0,-247.0,-41.0,-11.0,-493.0,23.0,1
13.0,-243.0,-40.0,-3.0,-506.0,32.0,1
13.0,-245.0,-40.0,6.0,-521.0,47.0,1
15.0,-241.0,-42.0,13.0,-535.0,61.0,1
12.0,-237.0,-43.0,17.0,-549.0,77.0,1
14.0,-235.0,-42.0,19.0,-560.0,96.0,1
17.0,-230.0,-49.0,23.0,-568.0,118.0,1
18.0,-234.0,-38.0,25.0,-570.0,142.0,1
26.0,-234.0,-44.0,26.0,-568.0,168.0,1
26.0,-235.0,-46.0,30.0,-562.0,192.0,1
32.0,-234.0,-46.0,30.0,-550.0,217.0,1
39.0,-235.0,-50.0,30.0,-533.0,237.0,1
41.0,-239.0,-49.0,30.0,-516.0,258.0,1
44.0,-241.0,-51.0,25.0,-496.0,272.0,1
49.0,-246.0,-51.0,22.0,-477.0,281.0,1
50.0,-249.0,-48.0,15.0,-455.0,284.0,1
57.0,-251.0,-48.0,8.0,-436.0,280.0,1
61.0,-256.0,-45.0,-1.0,-420.0,267.0,1
66.0,-257.0,-41.0,-7.0,-406.0,247.0,1
71.0,-262.0,-40.0,-5.0,-391.0,220.0,1
72.0,-267.0,-31.0,-3.0,-371.0,194.0,1
71.0,-269.0,-26.0,3.0,-351.0,167.0,1
71.0,-275.0,-23.0,13.0,-332.0,141.0,1
69.0,-276.0,-17.0,25.0,-314.0,111.0,1
67.0,-280.0,-12.0,39.0,-299.0,82.0,1
59.0,-276.0,-9.0,57.0,-282.0,55.0,1
63.0,-286.0,-15.0,87.0,-261.0,37.0,1
60.0,-283.0,-16.0,109.0,-243.0,9.0,1
55.0,-285.0,-29.0,127.0,-221.0,-4.0,1
56.0,-289.0,-39.0,134.0,-198.0,-12.0,1
54.0,-289.0,-52.0,116.0,-179.0,-27.0,1
55.0,-298.0,-73.0,71.0,-155.0,-40.0,1
49.0,-305.0,-90.0,-4.0,-127.0,-55.0,1
49.0,-316.0,-110.0,-101.0,-94.0,-75.0,1
42.0,-330.0,-121.0,-217.0,-59.0,-99.0,1
41.0,-350.0,-134.0,-340.0,-26.0,-130.0,1
43.0,-368.0,-133.0,-452.0,2.0,-169.0,1
44.0,-388.0,-137.0,-529.0,22.0,-213.0,1
45.0,-404.0,-136.0,-558.0,30.0,-265.0,1
40.0,-413.0,-123.0,-528.0,35.0,-321.0,1
39.0,-418.0,-122.0,-454.0,35.0,-374.0,1
34.0,-408.0,-122.0,-352.0,38.0,-419.0,1
25.0,-395.0,-136.0,-233.0,51.0,-455.0,1
10.0,-376.0,-140.0,-98.0,73.0,-480.0,1
-1.0,-347.0,-151.0,35.0,105.0,-496.0,1
-14.0,-319.0,-162.0,160.0,145.0,-499.0,1
-26.0,-291.0,-168.0,262.0,180.0,-495.0,1
-32.0,-261.0,-174.0,341.0,208.0,-480.0,1
-38.0,-232.0,-173.0,394.0,225.0,-456.0,1
-48.0,-206.0,-172.0,424.0,227.0,-427.0,1
-52.0,-191.0,-157.0,435.0,214.0,-393.0,1
-54.0,-174.0,-149.0,432.0,189.0,-354.0,1
-57.0,-166.0,-143.0,416.0,157.0,-313.0,1
-55.0,-165.0,-135.0,387.0,120.0,-270.0,1
-58.0,-166.0,-119.0,345.0,81.0,-223.0,1
-56.0,-170.0,-112.0,297.0,45.0,-168.0,1
-50.0,-182.0,-100.0,241.0,11.0,-111.0,1
-41.0,-193.0,-98.0,180.0,-20.0,-58.0,1
-33.0,-201.0,-85.0,116.0,-43.0,-8.0,1
-18.0,-218.0,-83.0,52.0,-57.0,35.0,1
-4.0,-230.0,-77.0,-10.0,-54.0,67.0,1
12.0,-239.0,-76.0,-67.0,-38.0,90.0,1
26.0,-255.0,-71.0,-122.0,0.0,101.0,1
41.0,-261.0,-76.0,-165.0,53.0,101.0,1
47.0,-265.0,-80.0,-203.0,119.0,95.0,1
58.0,-271.0,-81.0,-236.0,193.0,83.0,1
65.0,-272.0,-90.0,-265.0,274.0,72.0,1
70.0,-275.0,-96.0,-284.0,355.0,63.0,1
75.0,-281.0,-104.0,-295.0,432.0,58.0,1
79.0,-279.0,-102.0,-293.0,490.0,51.0,1
84.0,-283.0,-106.0,-272.0,538.0,56.0,1
71.0,-280.0,-102.0,-241.0,585.0,73.0,1
64.0,-282.0,-96.0,-208.0,627.0,102.0,1
57.0,-286.0,-99.0,-145.0,628.0,118.0,1
50.0,-283.0,-102.0,-56.0,616.0,135.0,1
44.0,-281.0,-98.0,35.0,611.0,162.0,1
35.0,-276.0,-96.0,118.0,610.0,196.0,1
29.0,-267.0,-94.0,187.0,609.0,232.0,1
24.0,-257.0,-90.0,236.0,613.0,270.0,1
16.0,-250.0,-93.0,263.0,621.0,303.0,1
9.0,-239.0,-88.0,273.0,633.0,342.0,1
-3.0,-230.0,-85.0,268.0,650.0,372.0,1
-4.0,-225.0,-81.0,251.0,671.0,395.0,1
-9.0,-218.0,-77.0,228.0,697.0,408.0,1
-14.0,-213.0,-75.0,202.0,727.0,414.0,1
-17.0,-208.0,-71.0,172.0,760.0,408.0,1
-22.0,-206.0,-69.0,141.0,792.0,397.0,1
-28.0,-208.0,-64.0,108.0,825.0,380.0,1
-32.0,-201.0,-68.0,73.0,852.0,359.0,1
-38.0,-198.0,-65.0,39.0,874.0,334.0,1
-39.0,-203.0,-65.0,8.0,892.0,308.0,1
-43.0,-198.0,-61.0,-22.0,901.0,282.0,1
-42.0,-204.0,-68.0,-47.0,903.0,255.0,1
-42.0,-207.0,-62.0,-71.0,901.0,229.0,1
-42.0,-212.0,-62.0,-91.0,891.0,203.0,1
-41.0,-215.0,-65.0,-107.0,882.0,178.0,1
-41.0,-220.0,-59.0,-119.0,869.0,154.0,1
-35.0,-224.0,-62.0,-126.0,857.0,132.0,1
-29.0,-230.0,-60.0,-129.0,845.0,111.0,1
-26.0,-232.0,-60.0,-131.0,835.0,88.0,1
-21.0,-241.0,-57.0,-128.0,828.0,73.0,1
-17.0,-247.0,-57.0,-120.0,818.0,56.0,1
-15.0,-248.0,-56.0,-113.0,811.0,41.0,1
-8.0,-246.0,-58.0,-106.0,802.0,29.0,1
-9.0,-252.0,-54.0,-96.0,794.0,21.0,1
-5.0,-254.0,-53.0,-86.0,783.0,16.0,1
-9.0,-255.0,-49.0,-75.0,777.0,16.0,1
-6.0,-255.0,-49.0,-63.0,761.0,11.0,1
-3.0,-253.0,-49.0,-48.0,741.0,5.0,1
-2.0,-251.0,-39.0,-39.0,725.0,7.0,1
1.0,-251.0,-42.0,-34.0,714.0,8.0,1
-1.0,-252.0,-44.0,-33.0,707.0,9.0,1
-2.0,-246.0,-38.0,-32.0,702.0,12.0,1
-3.0,-244.0,-41.0,-31.0,697.0,11.0,1
3.0,-252.0,-39.0,-30.0,695.0,12.0,1
0.0,-242.0,-37.0,-30.0,694.0,8.0,1
0.0,-241.0,-38.0,-29.0,687.0,2.0,1
-1.0,-238.0,-35.0,-28.0,686.0,-6.0,1
2.0,-241.0,-34.0,-32.0,684.0,-14.0,1
3.0,-241.0,-32.0,-33.0,683.0,-25.0,1
1.0,-240.0,-32.0,-40.0,680.0,-35.0,1
-2.0,-243.0,-34.0,-48.0,681.0,-49.0,1
0.0,-241.0,-33.0,-59.0,674.0,-64.0,1
-4.0,-244.0,-36.0,-71.0,662.0,-82.0,1
0.0,-250.0,-38.0,-81.0,648.0,-97.0,1
-12.0,-247.0,-36.0,-88.0,634.0,-109.0,1
-16.0,-250.0,-35.0,-96.0,625.0,-120.0,1
-16.0,-253.0,-42.0,-104.0,618.0,-127.0,1
-15.0,-256.0,-48.0,-112.0,611.0,-134.0,1
-14.0,-262.0,-47.0,-123.0,604.0,-136.0,1
-19.0,-263.0,-48.0,-132.0,598.0,-138.0,1
-24.0,-269.0,-46.0,-140.0,589.0,-138.0,1
-18.0,-272.0,-41.0,-147.0,577.0,-134.0,1
-22.0,-278.0,-42.0,-155.0,559.0,-128.0,1
-21.0,-281.0,-41.0,-154.0,541.0,-121.0,1
-22.0,-286.0,-40.0,-145.0,518.0,-110.0,1
-29.0,-291.0,-33.0,-130.0,496.0,-97.0,1
-28.0,-292.0,-29.0,-111.0,474.0,-82.0,1
-29.0,-296.0,-28.0,-88.0,452.0,-64.0,1
-25.0,-302.0,-26.0,-66.0,434.0,-47.0,1
-17.0,-302.0,-26.0,-47.0,418.0,-31.0,1
-17.0,-307.0,-34.0,-41.0,406.0,-18.0,1
-10.0,-307.0,-38.0,-50.0,404.0,-3.0,1
-9.0,-309.0,-50.0,-81.0,411.0,9.0,1
-5.0,-318.0,-58.0,-131.0,422.0,24.0,1
0.0,-325.0,-72.0,-199.0,435.0,37.0,1
3.0,-333.0,-81.0,-273.0,445.0,46.0,1
4.0,-348.0,-91.0,-348.0,452.0,54.0,1
1.0,-359.0,-98.0,-416.0,453.0,66.0,1
-6.0,-368.0,-99.0,-467.0,435.0,76.0,1
-15.0,-375.0,-100.0,-492.0,396.0,91.0,1
-28.0,-381.0,-98.0,-480.0,344.0,118.0,1
-34.0,-382.0,-91.0,-434.0,282.0,163.0,1
-38.0,-378.0,-90.0,-366.0,215.0,219.0,1
-34.0,-371.0,-91.0,-293.0,148.0,282.0,1
-25.0,-360.0,-96.0,-220.0,90.0,341.0,1
-21.0,-349.0,-109.0,-148.0,43.0,390.0,1
-15.0,-332.0,-117.0,-83.0,11.0,426.0,1
-6.0,-316.0,-129.0,-22.0,-2.0,447.0,1
6.0,-299.0,-137.0,29.0,0.0,456.0,1
15.0,-273.0,-139.0,68.0,18.0,450.0,1
31.0,-255.0,-147.0,102.0,50.0,435.0,1
49.0,-232.0,-143.0,132.0,94.0,406.0,1
66.0,-209.0,-146.0,159.0,151.0,369.0,1
79.0,-193.0,-143.0,181.0,225.0,321.0,1
92.0,-178.0,-140.0,197.0,307.0,269.0,1
106.0,-163.0,-135.0,200.0,396.0,210.0,1
114.0,-157.0,-137.0,187.0,486.0,141.0,1
120.0,-153.0,-126.0,154.0,572.0,64.0,1
123.0,-153.0,-125.0,105.0,649.0,-13.0,1
114.0,-159.0,-118.0,45.0,718.0,-88.0,1
106.0,-166.0,-113.0,-24.0,773.0,-157.0,1
85.0,-176.0,-105.0,-95.0,807.0,-213.0,1
64.0,-190.0,-90.0,-173.0,813.0,-248.0,1
46.0,-202.0,-83.0,-256.0,787.0,-266.0,1
27.0,-217.0,-75.0,-334.0,730.0,-266.0,1
1.0,-228.0,-63.0,-404.0,641.0,-252.0,1
-13.0,-239.0,-60.0,-460.0,529.0,-222.0,1
-28.0,-250.0,-62.0,-507.0,402.0,-181.0,1
-43.0,-258.0,-60.0,-538.0,269.0,-128.0,1
-48.0,-266.0,-70.0,-557.0,132.0,-76.0,1
-51.0,-275.0,-74.0,-566.0,5.0,-19.0,1
-50.0,-289.0,-90.0,-563.0,-106.0,34.0,1
-56.0,-294.0,-99.0,-556.0,-203.0,80.0,1
-58.0,-296.0,-111.0,-547.0,-293.0,107.0,1
-57.0,-301.0,-119.0,-542.0,-358.0,126.0,1
-46.0,-296.0,-122.0,-531.0,-387.0,139.0,1
-44.0,-294.0,-125.0,-499.0,-375.0,139.0,1
-30.0,-295.0,-123.0,-437.0,-340.0,122.0,1
-19.0,-293.0,-113.0,-346.0,-289.0,80.0,1
-12.0,-294.0,-107.0,-235.0,-231.0,18.0,1
-5.0,-288.0,-98.0,-124.0,-173.0,-58.0,1
2.0,-280.0,-103.0,-34.0,-123.0,-145.0,1
14.0,-272.0,-98.0,29.0,-83.0,-228.0,1
17.0,-258.0,-98.0,70.0,-58.0,-309.0,1
25.0,-251.0,-93.0,91.0,-54.0,-383.0,1
37.0,-239.0,-88.0,90.0,-50.0,-436.0,1
43.0,-235.0,-83.0,81.0,-45.0,-468.0,1
49.0,-222.0,-76.0,68.0,-52.0,-488.0,1
57.0,-215.0,-69.0,57.0,-77.0,-505.0,1
60.0,-207.0,-71.0,52.0,-117.0,-517.0,1
65.0,-195.0,-63.0,47.0,-164.0,-517.0,1
69.0,-193.0,-64.0,35.0,-202.0,-496.0,1
75.0,-193.0,-61.0,15.0,-241.0,-457.0,1
76.0,-190.0,-63.0,-15.0,-284.0,-410.0,1
79.0,-190.0,-61.0,-49.0,-324.0,-357.0,1
72.0,-192.0,-67.0,-93.0,-364.0,-303.0,1
70.0,-195.0,-71.0,-143.0,-398.0,-252.0,1
65.0,-195.0,-72.0,-193.0,-428.0,-205.0,1
61.0,-197.0,-78.0,-241.0,-456.0,-164.0,1
52.0,-203.0,-79.0,-288.0,-477.0,-128.0,1
48.0,-214.0,-77.0,-330.0,-493.0,-97.0,1
43.0,-222.0,-75.0,-369.0,-502.0,-70.0,1
38.0,-226.0,-77.0,-398.0,-507.0,-50.0,1
29.0,-239.0,-74.0,-417.0,-508.0,-36.0,1
31.0,-243.0,-67.0,-426.0,-505.0,-28.0,1
24.0,-253.0,-63.0,-423.0,-504.0,-24.0,1
19.0,-257.0,-60.0,-410.0,-499.0,-25.0,1
14.0,-261.0,-55.0,-387.0,-494.0,-31.0,1
13.0,-267.0,-53.0,-358.0,-489.0,-39.0,1
8.0,-267.0,-51.0,-329.0,-488.0,-48.0,1
5.0,-270.0,-58.0,-297.0,-489.0,-61.0,1
5.0,-266.0,-52.0,-267.0,-490.0,-74.0,1
4.0,-267.0,-55.0,-241.0,-491.0,-84.0,1
1.0,-264.0,-52.0,-216.0,-495.0,-93.0,1
-1.0,-268.0,-56.0,-198.0,-502.0,-99.0,1
-4.0,-259.0,-51.0,-179.0,-509.0,-107.0,1
-2.0,-261.0,-54.0,-163.0,-520.0,-106.0,1
9.0,-260.0,-59.0,-153.0,-536.0,-120.0,1
12.0,-256.0,-58.0,-147.0,-536.0,-114.0,1
13.0,-257.0,-54.0,-148.0,-537.0,-100.0,1
16.0,-256.0,-50.0,-149.0,-543.0,-87.0,1
28.0,-256.0,-57.0,-151.0,-551.0,-75.0,1
28.0,-254.0,-53.0,-151.0,-562.0,-65.0,1
31.0,-256.0,-53.0,-151.0,-575.0,-54.0,1
27.0,-258.0,-55.0,-154.0,-588.0,-42.0,1
39.0,-261.0,-57.0,-157.0,-606.0,-36.0,1
43.0,-260.0,-54.0,-152.0,-605.0,-22.0,1
45.0,-263.0,-57.0,-147.0,-599.0,-6.0,1
43.0,-273.0,-55.0,-141.0,-592.0,8.0,1
43.0,-271.0,-54.0,-133.0,-584.0,18.0,1
43.0,-272.0,-53.0,-124.0,-575.0,28.0,1
45.0,-276.0,-46.0,-109.0,-569.0,33.0,1
43.0,-284.0,-44.0,-93.0,-559.0,37.0,1
47.0,-285.0,-45.0,-75.0,-547.0,38.0,1
48.0,-286.0,-44.0,-56.0,-535.0,37.0,1
46.0,-288.0,-42.0,-35.0,-525.0,34.0,1
53.0,-297.0,-45.0,-13.0,-511.0,35.0,1
46.0,-293.0,-47.0,2.0,-495.0,28.0,1
50.0,-298.0,-48.0,15.0,-479.0,23.0,1
49.0,-294.0,-53.0,26.0,-460.0,21.0,1
52.0,-299.0,-56.0,34.0,-439.0,21.0,1
49.0,-291.0,-57.0,35.0,-414.0,23.0,1
57.0,-304.0,-61.0,32.0,-380.0,28.0,1
59.0,-299.0,-73.0,19.0,-344.0,22.0,1
64.0,-301.0,-77.0,-3.0,-301.0,18.0,1
56.0,-297.0,-79.0,-34.0,-260.0,11.0,1
75.0,-307.0,-86.0,-65.0,-222.0,-2.0,1
72.0,-306.0,-83.0,-101.0,-188.0,-27.0,1
74.0,-311.0,-83.0,-137.0,-155.0,-56.0,1
78.0,-317.0,-85.0,-164.0,-128.0,-83.0,1
77.0,-318.0,-86.0,-179.0,-99.0,-108.0,1
75.0,-320.0,-89.0,-182.0,-74.0,-129.0,1
70.0,-319.0,-95.0,-179.0,-46.0,-144.0,1
65.0,-317.0,-102.0,-167.0,-24.0,-155.0,1
52.0,-318.0,-104.0,-148.0,-3.0,-161.0,1
48.0,-316.0,-110.0,-120.0,15.0,-162.0,1
34.0,-305.0,-131.0,-90.0,30.0,-161.0,1
27.0,-297.0,-137.0,-60.0,38.0,-162.0,1
10.0,-281.0,-150.0,-34.0,35.0,-161.0,1
-2.0,-273.0,-166.0,-15.0,25.0,-154.0,1
-10.0,-256.0,-177.0,-3.0,8.0,-148.0,1
-16.0,-246.0,-180.0,1.0,-18.0,-144.0,1
-21.0,-233.0,-186.0,-1.0,-45.0,-140.0,1
-31.0,-219.0,-188.0,-4.0,-79.0,-140.0,1
-38.0,-205.0,-196.0,-9.0,-115.0,-144.0,1
-40.0,-196.0,-186.0,-12.0,-149.0,-151.0,1
-47.0,-194.0,-185.0,-16.0,-180.0,-158.0,1
-45.0,-186.0,-179.0,-20.0,-205.0,-166.0,1
-46.0,-183.0,-179.0,-27.0,-220.0,-173.0,1
-52.0,-188.0,-172.0,-38.0,-230.0,-178.0,1
-51.0,-182.0,-166.0,-57.0,-232.0,-184.0,1
-47.0,-185.0,-167.0,-83.0,-225.0,-187.0,1
-45.0,-188.0,-168.0,-122.0,-210.0,-189.0,1
-38.0,-194.0,-166.0,-166.0,-190.0,-192.0,1
-31.0,-200.0,-160.0,-213.0,-162.0,-191.0,1
-27.0,-209.0,-160.0,-263.0,-129.0,-188.0,1
-15.0,-212.0,-158.0,-311.0,-93.0,-184.0,1
-4.0,-222.0,-158.0,-354.0,-58.0,-181.0,1
6.0,-227.0,-152.0,-395.0,-25.0,-177.0,1
14.0,-237.0,-154.0,-430.0,5.0,-174.0,1
26.0,-244.0,-155.0,-459.0,28.0,-169.0,1
31.0,-250.0,-150.0,-479.0,48.0,-162.0,1
41.0,-258.0,-147.0,-485.0,61.0,-155.0,1
45.0,-263.0,-147.0,-485.0,67.0,-148.0,1
47.0,-269.0,-142.0,-469.0,71.0,-135.0,1
48.0,-272.0,-136.0,-449.0,78.0,-112.0,1
52.0,-278.0,-124.0,-418.0,83.0,-80.0,1
49.0,-285.0,-132.0,-386.0,90.0,-41.0,1
47.0,-285.0,-128.0,-347.0,94.0,3.0,1
43.0,-289.0,-123.0,-307.0,105.0,54.0,1
39.0,-291.0,-120.0,-265.0,108.0,104.0,1
36.0,-287.0,-116.0,-222.0,102.0,149.0,1
34.0,-285.0,-112.0,-186.0,94.0,190.0,1
25.0,-282.0,-112.0,-157.0,92.0,226.0,1
20.0,-274.0,-107.0,-132.0,91.0,254.0,1
16.0,-265.0,-109.0,-114.0,94.0,279.0,1
6.0,-256.0,-97.0,-106.0,109.0,305.0,1
-3.0,-253.0,-100.0,-102.0,113.0,314.0,1
-12.0,-246.0,-108.0,-97.0,120.0,320.0,1
-13.0,-239.0,-103.0,-102.0,132.0,322.0,1
-16.0,-233.0,-106.0,-108.0,144.0,322.0,1
-24.0,-228.0,-106.0,-114.0,155.0,315.0,1
-28.0,-223.0,-109.0,-128.0,172.0,310.0,1
-32.0,-221.0,-103.0,-140.0,194.0,305.0,1
-35.0,-218.0,-106.0,-153.0,216.0,301.0,1
-34.0,-215.0,-112.0,-170.0,237.0,298.0,1
-36.0,-214.0,-108.0,-184.0,259.0,294.0,1
-40.0,-221.0,-108.0,-198.0,276.0,289.0,1
-36.0,-215.0,-105.0,-209.0,294.0,291.0,1
-33.0,-217.0,-106.0,-217.0,308.0,291.0,1
-32.0,-222.0,-101.0,-226.0,314.0,285.0,1
-31.0,-221.0,-100.0,-234.0,315.0,278.0,1
-29.0,-225.0,-92.0,-241.0,318.0,274.0,1
-26.0,-229.0,-97.0,-247.0,316.0,275.0,1
-24.0,-225.0,-90.0,-254.0,316.0,275.0,1
-20.0,-232.0,-92.0,-260.0,311.0,273.0,1
-16.0,-234.0,-89.0,-263.0,306.0,273.0,1
-10.0,-236.0,-88.0,-268.0,305.0,272.0,1
-8.0,-237.0,-84.0,-272.0,304.0,269.0,1
-1.0,-242.0,-83.0,-269.0,305.0,268.0,1
1.0,-238.0,-83.0,-271.0,326.0,274.0,1
5.0,-241.0,-78.0,-274.0,329.0,266.0,1
10.0,-245.0,-82.0,-270.0,326.0,254.0,1
13.0,-239.0,-80.0,-269.0,328.0,243.0,1
19.0,-241.0,-83.0,-267.0,338.0,234.0,1
21.0,-240.0,-83.0,-265.0,354.0,228.0,1
25.0,-239.0,-80.0,-265.0,369.0,225.0,1
25.0,-236.0,-82.0,-266.0,389.0,220.0,1
29.0,-233.0,-82.0,-262.0,412.0,218.0,1
28.0,-232.0,-81.0,-264.0,443.0,220.0,1
24.0,-234.0,-80.0,-264.0,461.0,212.0,1
22.0,-230.0,-78.0,-259.0,468.0,194.0,1
20.0,-231.0,-77.0,-252.0,472.0,175.0,1
21.0,-226.0,-78.0,-250.0,485.0,156.0,1
23.0,-225.0,-77.0,-247.0,503.0,152.0,1
16.0,-227.0,-75.0,-242.0,522.0,147.0,1
15.0,-226.0,-75.0,-240.0,538.0,142.0,1
15.0,-227.0,-75.0,-236.0,553.0,137.0,1
8.0,-229.0,-75.0,-232.0,567.0,128.0,1
8.0,-229.0,-74.0,-230.0,576.0,121.0,1
-3.0,-230.0,-78.0,-227.0,586.0,114.0,1
-4.0,-234.0,-71.0,-223.0,592.0,106.0,1
-1.0,-239.0,-74.0,-220.0,597.0,98.0,1
-5.0,-242.0,-72.0,-217.0,600.0,91.0,1
-5.0,-247.0,-69.0,-215.0,602.0,83.0,1
-8.0,-253.0,-69.0,-211.0,601.0,76.0,1
-7.0,-257.0,-67.0,-205.0,601.0,73.0,1
-10.0,-262.0,-66.0,-195.0,602.0,71.0,1
-13.0,-264.0,-71.0,-182.0,602.0,68.0,1
-7.0,-273.0,-67.0,-166.0,602.0,67.0,1
-13.0,-276.0,-67.0,-142.0,604.0,68.0,1
-12.0,-275.0,-62.0,-119.0,604.0,67.0,1
-13.0,-279.0,-73.0,-91.0,603.0,67.0,1
-15.0,-279.0,-80.0,-65.0,600.0,68.0,1
-18.0,-275.0,-91.0,-45.0,596.0,70.0,1
-16.0,-273.0,-97.0,-36.0,591.0,72.0,1
-16.0,-269.0,-107.0,-40.0,586.0,72.0,1
-18.0,-263.0,-117.0,-54.0,581.0,77.0,1
-18.0,-266.0,-128.0,-81.0,582.0,81.0,1
-16.0,-262.0,-144.0,-125.0,589.0,82.0,1
-13.0,-263.0,-154.0,-182.0,607.0,86.0,1
-6.0,-261.0,-164.0,-246.0,634.0,83.0,1
-3.0,-266.0,-175.0,-313.0,666.0,80.0,1
3.0,-270.0,-180.0,-381.0,697.0,71.0,1
6.0,-272.0,-188.0,-444.0,721.0,61.0,1
10.0,-272.0,-188.0,-493.0,734.0,53.0,1
8.0,-274.0,-188.0,-527.0,734.0,48.0,1
10.0,-271.0,-187.0,-546.0,723.0,52.0,1
10.0,-268.0,-187.0,-548.0,700.0,66.0,1
12.0,-266.0,-185.0,-534.0,671.0,87.0,1
12.0,-265.0,-178.0,-506.0,643.0,115.0,1
15.0,-261.0,-177.0,-467.0,613.0,146.0,1
19.0,-256.0,-173.0,-418.0,585.0,176.0,1
22.0,-252.0,-171.0,-363.0,558.0,207.0,1
24.0,-248.0,-165.0,-313.0,531.0,233.0,1
25.0,-239.0,-165.0,-264.0,507.0,256.0,1
22.0,-229.0,-164.0,-219.0,484.0,276.0,1
27.0,-222.0,-157.0,-180.0,458.0,293.0,1
28.0,-212.0,-154.0,-148.0,431.0,304.0,1
27.0,-208.0,-147.0,-125.0,405.0,309.0,1
26.0,-203.0,-138.0,-111.0,380.0,308.0,1
30.0,-203.0,-137.0,-110.0,363.0,297.0,1
22.0,-200.0,-136.0,-121.0,351.0,281.0,1
19.0,-197.0,-140.0,-153.0,344.0,255.0,1
18.0,-195.0,-140.0,-202.0,338.0,225.0,1
10.0,-202.0,-140.0,-268.0,334.0,192.0,1
10.0,-208.0,-142.0,-347.0,329.0,156.0,1
5.0,-216.0,-141.0,-434.0,322.0,118.0,1
0.0,-225.0,-136.0,-517.0,311.0,76.0,1
-4.0,-237.0,-131.0,-592.0,296.0,35.0,1
-5.0,-250.0,-126.0,-648.0,277.0,-4.0,1
-4.0,-260.0,-120.0,-685.0,254.0,-40.0,1
-1.0,-267.0,-121.0,-698.0,232.0,-69.0,1
4.0,-277.0,-123.0,-692.0,212.0,-89.0,1
10.0,-285.0,-120.0,-669.0,195.0,-101.0,1
15.0,-283.0,-122.0,-634.0,179.0,-112.0,1
19.0,-282.0,-128.0,-586.0,167.0,-118.0,1
29.0,-280.0,-133.0,-533.0,160.0,-122.0,1
26.0,-273.0,-139.0,-474.0,158.0,-127.0,1
30.0,-268.0,-140.0,-413.0,157.0,-134.0,1
36.0,-258.0,-145.0,-354.0,158.0,-144.0,1
38.0,-256.0,-146.0,-297.0,159.0,-156.0,1
41.0,-250.0,-147.0,-248.0,161.0,-168.0,1
35.0,-241.0,-142.0,-205.0,160.0,-180.0,1
40.0,-240.0,-135.0,-168.0,155.0,-190.0,1
42.0,-238.0,-133.0,-135.0,144.0,-200.0,1
44.0,-233.0,-128.0,-113.0,132.0,-206.0,1
44.0,-230.0,-119.0,-98.0,114.0,-215.0,1
41.0,-229.0,-118.0,-89.0,86.0,-228.0,1
40.0,-228.0,-111.0,-91.0,59.0,-236.0,1
41.0,-223.0,-105.0,-104.0,33.0,-243.0,1
41.0,-219.0,-112.0,-122.0,5.0,-247.0,1
38.0,-215.0,-101.0,-147.0,-20.0,-246.0,1
39.0,-211.0,-98.0,-173.0,-37.0,-241.0,1
35.0,-211.0,-97.0,-197.0,-58.0,-236.0,1
32.0,-202.0,-101.0,-221.0,-75.0,-231.0,1
30.0,-202.0,-98.0,-246.0,-87.0,-223.0,1
20.0,-197.0,-97.0,-266.0,-105.0,-220.0,1
20.0,-197.0,-100.0,-286.0,-122.0,-214.0,1
11.0,-194.0,-98.0,-299.0,-140.0,-206.0,1
13.0,-195.0,-92.0,-308.0,-160.0,-201.0,1
8.0,-194.0,-95.0,-314.0,-179.0,-194.0,1
8.0,-198.0,-96.0,-317.0,-200.0,-187.0,1
1.0,-197.0,-87.0,-312.0,-225.0,-183.0,1
3.0,-201.0,-88.0,-306.0,-249.0,-179.0,1
-2.0,-205.0,-77.0,-298.0,-271.0,-173.0,1
-9.0,-204.0,-61.0,-287.0,-304.0,-170.0,1
-1.0,-218.0,-71.0,-271.0,-338.0,-171.0,1
0.0,-219.0,-74.0,-251.0,-374.0,-168.0,1
-1.0,-219.0,-78.0,-228.0,-409.0,-162.0,1
0.0,-219.0,-85.0,-203.0,-442.0,-153.0,1
-4.0,-216.0,-97.0,-186.0,-472.0,-141.0,1
-9.0,-213.0,-107.0,-177.0,-501.0,-129.0,1
-4.0,-212.0,-115.0,-185.0,-527.0,-119.0,1
-3.0,-205.0,-125.0,-210.0,-543.0,-107.0,1
7.0,-203.0,-130.0,-248.0,-557.0,-100.0,1
11.0,-201.0,-130.0,-296.0,-566.0,-97.0,1
17.0,-203.0,-136.0,-356.0,-573.0,-97.0,1
26.0,-210.0,-127.0,-417.0,-581.0,-100.0,1
34.0,-216.0,-126.0,-471.0,-592.0,-109.0,1
35.0,-220.0,-125.0,-514.0,-606.0,-120.0,1
39.0,-222.0,-119.0,-547.0,-619.0,-130.0,1
40.0,-225.0,-119.0,-572.0,-629.0,-140.0,1
43.0,-226.0,-127.0,-588.0,-625.0,-148.0,1
38.0,-223.0,-125.0,-607.0,-612.0,-150.0,1
34.0,-216.0,-125.0,-622.0,-589.0,-153.0,1
35.0,-207.0,-122.0,-633.0,-565.0,-151.0,1
43.0,-202.0,-120.0,-634.0,-544.0,-149.0,1
48.0,-198.0,-122.0,-628.0,-530.0,-150.0,1
57.0,-195.0,-121.0,-617.0,-523.0,-155.0,1
63.0,-192.0,-121.0,-610.0,-514.0,-159.0,1
72.0,-192.0,-126.0,-605.0,-507.0,-164.0,1
81.0,-191.0,-130.0,-608.0,-478.0,-161.0,1
81.0,-192.0,-130.0,-614.0,-433.0,-151.0,1
79.0,-193.0,-129.0,-616.0,-389.0,-142.0,1
73.0,-201.0,-128.0,-623.0,-344.0,-128.0,1
61.0,-203.0,-122.0,-626.0,-323.0,-113.0,1
58.0,-208.0,-120.0,-624.0,-329.0,-104.0,1
46.0,-209.0,-120.0,-623.0,-354.0,-101.0,1
35.0,-209.0,-111.0,-628.0,-381.0,-95.0,1
26.0,-218.0,-107.0,-633.0,-421.0,-88.0,1
13.0,-215.0,-106.0,-640.0,-465.0,-97.0,1
4.0,-214.0,-102.0,-643.0,-514.0,-105.0,1
-6.0,-216.0,-93.0,-647.0,-555.0,-107.0,1
-14.0,-222.0,-94.0,-643.0,-601.0,-106.0,1
-19.0,-219.0,-92.0,-621.0,-661.0,-116.0,1
-17.0,-219.0,-96.0,-599.0,-713.0,-129.0,1
-25.0,-211.0,-99.0,-582.0,-730.0,-115.0,1
-34.0,-207.0,-104.0,-571.0,-742.0,-95.0,1
-35.0,-200.0,-104.0,-566.0,-757.0,-78.0,1
-35.0,-198.0,-106.0,-570.0,-780.0,-66.0,1
-31.0,-189.0,-110.0,-583.0,-809.0,-61.0,1
-31.0,-186.0,-109.0,-617.0,-825.0,-58.0,1
-25.0,-184.0,-109.0,-664.0,-831.0,-55.0,1
-20.0,-184.0,-108.0,-708.0,-834.0,-61.0,1
-18.0,-186.0,-109.0,-745.0,-837.0,-73.0,1
-16.0,-190.0,-107.0,-774.0,-837.0,-86.0,1
-14.0,-193.0,-103.0,-795.0,-834.0,-95.0,1
-12.0,-199.0,-109.0,-805.0,-834.0,-104.0,1
-13.0,-199.0,-107.0,-803.0,-836.0,-109.0,1
-11.0,-200.0,-107.0,-793.0,-841.0,-107.0,1
-10.0,-200.0,-108.0,-779.0,-853.0,-100.0,1
-5.0,-195.0,-115.0,-762.0,-870.0,-84.0,1
-1.0,-192.0,-118.0,-747.0,-893.0,-63.0,1
4.0,-191.0,-115.0,-733.0,-915.0,-39.0,1
12.0,-188.0,-116.0,-725.0,-939.0,-14.0,1
15.0,-180.0,-119.0,-720.0,-961.0,11.0,1
20.0,-177.0,-124.0,-722.0,-982.0,36.0,1
27.0,-169.0,-126.0,-725.0,-1003.0,58.0,1
29.0,-166.0,-125.0,-735.0,-1022.0,77.0,1
35.0,-164.0,-131.0,-746.0,-1036.0,95.0,1
38.0,-153.0,-133.0,-757.0,-1043.0,110.0,1
32.0,-156.0,-134.0,-768.0,-1042.0,129.0,1
29.0,-154.0,-136.0,-774.0,-1034.0,142.0,1
28.0,-150.0,-139.0,-775.0,-1017.0,154.0,1
28.0,-152.0,-139.0,-775.0,-993.0,164.0,1
25.0,-149.0,-134.0,-777.0,-961.0,174.0,1
21.0,-151.0,-138.0,-783.0,-922.0,183.0,1
18.0,-146.0,-141.0,-794.0,-878.0,192.0,1
16.0,-150.0,-144.0,-809.0,-829.0,199.0,1
13.0,-146.0,-139.0,-824.0,-787.0,202.0,1
7.0,-145.0,-144.0,-841.0,-749.0,206.0,1
4.0,-150.0,-142.0,-859.0,-710.0,208.0,1
4.0,-147.0,-147.0,-877.0,-676.0,208.0,1
-3.0,-145.0,-146.0,-900.0,-644.0,209.0,1
-5.0,-145.0,-154.0,-927.0,-611.0,210.0,1
-6.0,-145.0,-155.0,-955.0,-588.0,214.0,1
-13.0,-142.0,-156.0,-986.0,-570.0,217.0,1
-11.0,-146.0,-162.0,-1022.0,-559.0,220.0,1
-15.0,-143.0,-166.0,-1058.0,-553.0,220.0,1
-18.0,-141.0,-163.0,-1094.0,-551.0,219.0,1
-23.0,-140.0,-162.0,-1125.0,-552.0,218.0,1
-28.0,-142.0,-162.0,-1153.0,-556.0,216.0,1
-38.0,-138.0,-159.0,-1178.0,-564.0,212.0,1
-34.0,-143.0,-158.0,-1195.0,-577.0,206.0,1
-40.0,-146.0,-158.0,-1201.0,-596.0,198.0,1
-46.0,-146.0,-153.0,-1199.0,-618.0,190.0,1
-50.0,-147.0,-152.0,-1189.0,-654.0,172.0,1
-54.0,-152.0,-152.0,-1176.0,-690.0,164.0,1
-57.0,-151.0,-154.0,-1153.0,-720.0,166.0,1
-57.0,-154.0,-159.0,-1128.0,-753.0,171.0,1
-65.0,-146.0,-159.0,-1111.0,-786.0,181.0,1
-80.0,-157.0,-159.0,-1105.0,-818.0,200.0,1
-63.0,-143.0,-164.0,-1104.0,-882.0,196.0,1
-61.0,-144.0,-167.0,-1111.0,-913.0,230.0,1
-64.0,-146.0,-162.0,-1127.0,-930.0,272.0,1
-58.0,-146.0,-161.0,-1139.0,-954.0,311.0,1
-59.0,-147.0,-158.0,-1136.0,-973.0,357.0,1
-52.0,-150.0,-151.0,-1137.0,-992.0,392.0,1
-47.0,-158.0,-150.0,-1129.0,-1009.0,426.0,1
-42.0,-159.0,-148.0,-1114.0,-1028.0,448.0,1
-30.0,-163.0,-141.0,-1093.0,-1049.0,461.0,1
-32.0,-161.0,-139.0,-1055.0,-1061.0,469.0,1
-18.0,-167.0,-133.0,-1018.0,-1063.0,489.0,1
-11.0,-172.0,-132.0,-984.0,-1033.0,528.0,1
-12.0,-161.0,-121.0,-959.0,-1003.0,557.0,1
-6.0,-161.0,-118.0,-934.0,-989.0,575.0,1
-11.0,-158.0,-112.0,-908.0,-978.0,600.0,1
-6.0,-157.0,-107.0,-891.0,-983.0,610.0,1
-6.0,-152.0,-105.0,-878.0,-992.0,620.0,1
-8.0,-144.0,-95.0,-862.0,-993.0,631.0,1
-16.0,-138.0,-99.0,-854.0,-1015.0,622.0,1
-24.0,-125.0,-112.0,-873.0,-1067.0,611.0,1
-32.0,-108.0,-132.0,-892.0,-1109.0,622.0,1
-46.0,-87.0,-172.0,-916.0,-1102.0,693.0,1
-56.0,-60.0,-236.0,-970.0,-1038.0,805.0,1
-68.0,-19.0,-331.0,-1100.0,-976.0,918.0,1
-58.0,7.0,-445.0,-1362.0,-919.0,1025.0,1
-30.0,68.0,-551.0,-1783.0,-841.0,1153.0,1
35.0,89.0,-650.0,-2280.0,-681.0,1301.0,1
111.0,77.0,-731.0,-2824.0,-407.0,1401.0,1
171.0,11.0,-776.0,-3332.0,0.0,1404.0,1
212.0,-84.0,-792.0,-3730.0,507.0,1290.0,1
203.0,-187.0,-784.0,-4033.0,1019.0,1061.0,1
175.0,-237.0,-735.0,-4311.0,1395.0,771.0,1
243.0,-280.0,-676.0,-4554.0,1602.0,536.0,1
250.0,-324.0,-625.0,-4728.0,1720.0,353.0,1
155.0,-378.0,-548.0,-4786.0,1814.0,193.0,1
39.0,-407.0,-491.0,-4655.0,1875.0,140.0,1
-73.0,-363.0,-451.0,-4389.0,1945.0,200.0,1
-124.0,-278.0,-425.0,-4035.0,2016.0,381.0,1
-115.0,-256.0,-389.0,-3610.0,2073.0,595.0,1
-101.0,-282.0,-343.0,-3180.0,2061.0,733.0,1
-94.0,-338.0,-288.0,-2732.0,1954.0,808.0,1
-144.0,-356.0,-246.0,-2248.0,1825.0,849.0,1
-195.0,-336.0,-210.0,-1776.0,1720.0,985.0,1
-241.0,-296.0,-135.0,-1434.0,1564.0,1204.0,1
-261.0,-270.0,-22.0,-1309.0,1249.0,1426.0,1
-276.0,-257.0,93.0,-1311.0,788.0,1596.0,1
-287.0,-239.0,211.0,-1355.0,246.0,1694.0,1
-275.0,-226.0,313.0,-1383.0,-298.0,1771.0,1
-266.0,-203.0,393.0,-1326.0,-831.0,1819.0,1
-252.0,-165.0,453.0,-1189.0,-1368.0,1843.0,1
-279.0,-98.0,451.0,-1026.0,-1856.0,1853.0,1
-322.0,-60.0,383.0,-887.0,-2168.0,1926.0,1
-401.0,-39.0,264.0,-944.0,-2360.0,1927.0,1
-432.0,-51.0,133.0,-1248.0,-2474.0,1900.0,1
-416.0,-154.0,35.0,-1653.0,-2490.0,1867.0,1
-399.0,-84.0,-65.0,-1950.0,-2471.0,1768.0,1
-358.0,45.0,-169.0,-2049.0,-2392.0,1579.0,1
-314.0,222.0,-269.0,-2076.0,-2295.0,1347.0,1
-206.0,345.0,-385.0,-2090.0,-2187.0,1183.0,1
-94.0,432.0,-502.0,-2190.0,-2041.0,953.0,1
-59.0,504.0,-581.0,-2478.0,-1836.0,645.0,1
-87.0,529.0,-594.0,-2753.0,-1553.0,307.0,1
-155.0,591.0,-581.0,-2694.0,-1362.0,-55.0,1
-313.0,687.0,-680.0,-2097.0,-1381.0,-357.0,1
-542.0,910.0,-986.0,-1106.0,-1241.0,-258.0,1
-1165.0,1528.0,-1445.0,-254.0,607.0,878.0,1
60.0,630.0,-765.0,-248.0,2170.0,2362.0,1
-34.0,665.0,-644.0,-794.0,1694.0,2180.0,1
-108.0,527.0,-570.0,-880.0,1459.0,1865.0,1
-112.0,362.0,-477.0,-1215.0,1142.0,1313.0,1
-18.0,143.0,-406.0,-1605.0,747.0,836.0,1
-200.0,249.0,-399.0,-1751.0,379.0,425.0,1
-155.0,488.0,-435.0,-1855.0,-16.0,575.0,1
-234.0,702.0,-521.0,-1966.0,-180.0,1093.0,1
-155.0,623.0,-475.0,-1986.0,138.0,1779.0,1
-56.0,489.0,-371.0,-1937.0,457.0,2121.0,1
-9.0,386.0,-301.0,-1739.0,432.0,1957.0,1
-52.0,259.0,-212.0,-1417.0,64.0,1671.0,1
-140.0,194.0,-228.0,-925.0,-471.0,1318.0,1
-185.0,131.0,-396.0,-481.0,-664.0,1040.0,1
-133.0,132.0,-597.0,-351.0,-579.0,753.0,1
-44.0,25.0,-653.0,-713.0,-516.0,467.0,1
2.0,-68.0,-561.0,-1320.0,-533.0,116.0,1
125.0,-187.0,-454.0,-1756.0,-628.0,-248.0,1
151.0,-190.0,-423.0,-1916.0,-764.0,-604.0,1
153.0,-162.0,-403.0,-1903.0,-804.0,-898.0,1
135.0,-101.0,-345.0,-1838.0,-754.0,-1050.0,1
143.0,-101.0,-307.0,-1724.0,-697.0,-1168.0,1
117.0,-86.0,-263.0,-1398.0,-420.0,-1214.0,1
179.0,-97.0,-200.0,-902.0,-74.0,-1221.0,1
57.0,-36.0,-186.0,-396.0,312.0,-1203.0,1
-8.0,42.0,-231.0,-40.0,609.0,-1227.0,1
-19.0,67.0,-246.0,132.0,953.0,-1242.0,1
-25.0,84.0,-218.0,239.0,1261.0,-1239.0,1
-41.0,95.0,-187.0,353.0,1460.0,-1231.0,1
-142.0,162.0,-179.0,495.0,1546.0,-1248.0,1
-307.0,271.0,-199.0,517.0,1513.0,-1231.0,1
-213.0,185.0,-201.0,293.0,1357.0,-1160.0,1
112.0,-74.0,-122.0,259.0,1570.0,-1196.0,1
-346.0,289.0,-137.0,509.0,2013.0,-1288.0,1
-175.0,112.0,-79.0,215.0,1763.0,-1081.0,1
-298.0,182.0,-126.0,157.0,1563.0,-992.0,1
-328.0,204.0,-131.0,-26.0,1438.0,-802.0,1
-368.0,233.0,-127.0,-245.0,1387.0,-570.0,1
-326.0,225.0,-124.0,-508.0,1315.0,-311.0,1
-330.0,239.0,-110.0,-716.0,1311.0,-92.0,1
-332.0,253.0,-98.0,-876.0,1293.0,77.0,1
-292.0,226.0,-84.0,-948.0,1229.0,174.0,1
-267.0,199.0,-74.0,-886.0,1152.0,246.0,1
-242.0,180.0,-78.0,-727.0,1056.0,320.0,1
-203.0,164.0,-107.0,-480.0,957.0,395.0,1
-180.0,122.0,-127.0,-250.0,854.0,489.0,1
-165.0,91.0,-150.0,4.0,792.0,585.0,1
-159.0,107.0,-182.0,244.0,753.0,667.0,1
-133.0,87.0,-193.0,440.0,734.0,772.0,1
-107.0,99.0,-229.0,627.0,743.0,865.0,1
-86.0,91.0,-236.0,747.0,761.0,927.0,1
-62.0,108.0,-235.0,786.0,702.0,914.0,1
-32.0,78.0,-242.0,782.0,636.0,922.0,1
-16.0,117.0,-262.0,721.0,576.0,888.0,1
9.0,131.0,-261.0,561.0,535.0,838.0,1
28.0,170.0,-289.0,395.0,480.0,743.0,1
68.0,179.0,-318.0,148.0,472.0,679.0,1
73.0,219.0,-324.0,-167.0,492.0,619.0,1
68.0,245.0,-345.0,-530.0,458.0,579.0,1
82.0,226.0,-347.0,-894.0,353.0,512.0,1
12.0,170.0,-316.0,-1184.0,153.0,390.0,1
-55.0,136.0,-323.0,-1302.0,-82.0,277.0,1
-89.0,107.0,-335.0,-1302.0,-250.0,237.0,1
-42.0,134.0,-362.0,-1268.0,-344.0,233.0,1
-62.0,114.0,-344.0,-1268.0,-393.0,206.0,1
-72.0,117.0,-342.0,-1214.0,-454.0,206.0,1
-72.0,140.0,-352.0,-1123.0,-500.0,215.0,1
-62.0,152.0,-336.0,-1025.0,-542.0,207.0,1
-60.0,153.0,-324.0,-879.0,-583.0,177.0,1
-79.0,152.0,-312.0,-733.0,-605.0,129.0,1
-71.0,136.0,-304.0,-592.0,-613.0,95.0,1
-83.0,124.0,-301.0,-467.0,-613.0,54.0,1
-78.0,126.0,-299.0,-339.0,-606.0,10.0,1
-72.0,127.0,-298.0,-234.0,-599.0,-27.0,1
-64.0,117.0,-291.0,-153.0,-600.0,-64.0,1
-56.0,113.0,-277.0,-118.0,-615.0,-98.0,1
-53.0,108.0,-265.0,-108.0,-637.0,-131.0,1
-54.0,104.0,-248.0,-89.0,-658.0,-165.0,1
-48.0,107.0,-252.0,-47.0,-682.0,-196.0,1
-54.0,99.0,-250.0,-12.0,-702.0,-221.0,1
-46.0,99.0,-240.0,10.0,-717.0,-245.0,1
-55.0,97.0,-232.0,30.0,-726.0,-264.0,1
-63.0,92.0,-232.0,60.0,-728.0,-280.0,1
-63.0,91.0,-229.0,104.0,-726.0,-291.0,1
-76.0,89.0,-230.0,147.0,-718.0,-301.0,1
-79.0,85.0,-234.0,185.0,-704.0,-302.0,1
-87.0,81.0,-247.0,224.0,-687.0,-301.0,1
-75.0,79.0,-247.0,265.0,-653.0,-295.0,1
-73.0,78.0,-234.0,253.0,-630.0,-279.0,1
-75.0,75.0,-229.0,205.0,-637.0,-265.0,1
-82.0,79.0,-232.0,171.0,-641.0,-251.0,1
-90.0,80.0,-232.0,149.0,-632.0,-251.0,1
-90.0,79.0,-233.0,140.0,-617.0,-251.0,1
-86.0,76.0,-237.0,138.0,-599.0,-252.0,1
-89.0,80.0,-238.0,138.0,-581.0,-254.0,1
-93.0,81.0,-237.0,133.0,-561.0,-259.0,1
-91.0,83.0,-236.0,128.0,-541.0,-264.0,1
-99.0,77.0,-240.0,125.0,-516.0,-268.0,1
-96.0,91.0,-239.0,114.0,-488.0,-266.0,1
-93.0,91.0,-255.0,106.0,-448.0,-253.0,1
-96.0,84.0,-249.0,86.0,-403.0,-253.0,1
-98.0,84.0,-245.0,50.0,-364.0,-261.0,1
-101.0,84.0,-247.0,20.0,-327.0,-260.0,1
-106.0,91.0,-248.0,4.0,-283.0,-257.0,1
-107.0,86.0,-260.0,-2.0,-237.0,-250.0,1
-116.0,91.0,-263.0,-4.0,-190.0,-244.0,1
-118.0,91.0,-265.0,-9.0,-143.0,-235.0,1
-114.0,92.0,-272.0,-15.0,-100.0,-220.0,1
-113.0,90.0,-272.0,-24.0,-65.0,-206.0,1
-116.0,95.0,-276.0,-32.0,-42.0,-196.0,1
-116.0,94.0,-275.0,-34.0,-28.0,-188.0,1
-112.0,96.0,-280.0,-36.0,-25.0,-184.0,1
-118.0,104.0,-273.0,-28.0,-31.0,-181.0,1
-118.0,110.0,-278.0,-15.0,-46.0,-182.0,1
-115.0,108.0,-276.0,6.0,-66.0,-187.0,1
-108.0,104.0,-271.0,26.0,-91.0,-207.0,1
-102.0,95.0,-273.0,54.0,-121.0,-242.0,1
-88.0,91.0,-276.0,80.0,-137.0,-282.0,1
-111.0,103.0,-270.0,97.0,-136.0,-321.0,1
-113.0,95.0,-260.0,106.0,-151.0,-338.0,1
-110.0,93.0,-256.0,131.0,-172.0,-366.0,1
-103.0,78.0,-254.0,153.0,-179.0,-412.0,1
-99.0,81.0,-255.0,169.0,-167.0,-460.0,1
-101.0,78.0,-248.0,175.0,-123.0,-488.0,1
-101.0,73.0,-248.0,192.0,-80.0,-496.0,1
-96.0,67.0,-238.0,209.0,-32.0,-500.0,1
-103.0,60.0,-230.0,225.0,8.0,-493.0,1
-112.0,65.0,-228.0,237.0,51.0,-474.0,1
-109.0,63.0,-227.0,250.0,114.0,-443.0,1
-113.0,67.0,-226.0,239.0,190.0,-400.0,1
-112.0,64.0,-223.0,223.0,273.0,-333.0,1
-100.0,62.0,-217.0,206.0,354.0,-257.0,1
-97.0,67.0,-225.0,173.0,425.0,-185.0,1
-96.0,65.0,-229.0,116.0,499.0,-120.0,1
-93.0,64.0,-228.0,49.0,578.0,-70.0,1
-91.0,65.0,-229.0,-9.0,645.0,-36.0,1
-95.0,65.0,-229.0,-42.0,697.0,-18.0,1
-94.0,62.0,-236.0,-57.0,739.0,-10.0,1
-92.0,65.0,-242.0,-65.0,764.0,-7.0,1
-89.0,57.0,-243.0,-80.0,777.0,5.0,1
-86.0,59.0,-247.0,-92.0,790.0,8.0,1
-87.0,61.0,-252.0,-107.0,801.0,10.0,1
-84.0,61.0,-249.0,-122.0,811.0,11.0,1
-84.0,63.0,-248.0,-131.0,819.0,16.0,1
-83.0,61.0,-248.0,-132.0,828.0,14.0,1
-81.0,60.0,-255.0,-131.0,844.0,13.0,1
-82.0,60.0,-251.0,-133.0,861.0,13.0,1
-80.0,59.0,-254.0,-127.0,875.0,13.0,1
-80.0,66.0,-251.0,-121.0,890.0,13.0,1
-80.0,64.0,-249.0,-112.0,905.0,14.0,1
-80.0,66.0,-254.0,-103.0,919.0,17.0,1
-77.0,71.0,-251.0,-99.0,927.0,24.0,1
-79.0,72.0,-256.0,-96.0,930.0,30.0,1
-77.0,71.0,-258.0,-99.0,927.0,36.0,1
-78.0,76.0,-260.0,-112.0,923.0,43.0,1
-72.0,71.0,-260.0,-125.0,915.0,49.0,1
-67.0,75.0,-268.0,-141.0,898.0,55.0,1
-64.0,75.0,-273.0,-153.0,868.0,61.0,1
-64.0,75.0,-282.0,-161.0,801.0,61.0,1
-67.0,75.0,-289.0,-176.0,717.0,62.0,1
-60.0,73.0,-290.0,-204.0,636.0,64.0,1
-63.0,75.0,-286.0,-238.0,563.0,67.0,1
-63.0,83.0,-289.0,-259.0,502.0,70.0,1
-66.0,81.0,-286.0,-275.0,445.0,71.0,1
-63.0,84.0,-290.0,-283.0,394.0,71.0,1
-65.0,83.0,-287.0,-285.0,352.0,71.0,1
-63.0,84.0,-284.0,-285.0,306.0,69.0,1
-62.0,83.0,-282.0,-278.0,262.0,65.0,1
-64.0,82.0,-283.0,-271.0,219.0,60.0,1
-54.0,79.0,-285.0,-265.0,179.0,57.0,1
-61.0,80.0,-277.0,-258.0,144.0,55.0,1
-62.0,85.0,-274.0,-251.0,112.0,50.0,1
-62.0,83.0,-279.0,-242.0,86.0,48.0,1
-62.0,85.0,-278.0,-237.0,65.0,47.0,1
-63.0,86.0,-275.0,-230.0,47.0,47.0,1
-62.0,87.0,-276.0,-226.0,33.0,46.0,1
-57.0,82.0,-275.0,-223.0,18.0,48.0,1
-59.0,88.0,-277.0,-219.0,2.0,50.0,1
-64.0,87.0,-277.0,-214.0,-12.0,53.0,1
-63.0,86.0,-276.0,-210.0,-26.0,54.0,1
-63.0,93.0,-275.0,-208.0,-40.0,57.0,1
-60.0,88.0,-275.0,-204.0,-57.0,61.0,1
-62.0,87.0,-271.0,-199.0,-72.0,63.0,1
-62.0,85.0,-266.0,-194.0,-86.0,65.0,1
-62.0,86.0,-273.0,-190.0,-99.0,67.0,1
-60.0,84.0,-264.0,-181.0,-110.0,68.0,1
-62.0,85.0,-263.0,-175.0,-118.0,70.0,1
-62.0,88.0,-263.0,-166.0,-126.0,72.0,1
-61.0,88.0,-261.0,-160.0,-132.0,71.0,1
-61.0,86.0,-259.0,-152.0,-137.0,71.0,1
-64.0,85.0,-259.0,-141.0,-138.0,72.0,1
-61.0,83.0,-252.0,-132.0,-138.0,70.0,1
-64.0,87.0,-257.0,-122.0,-136.0,68.0,1
-64.0,88.0,-253.0,-113.0,-132.0,64.0,1
-63.0,85.0,-252.0,-104.0,-127.0,61.0,1
-61.0,86.0,-251.0,-95.0,-120.0,55.0,1
-60.0,87.0,-255.0,-85.0,-112.0,50.0,1
-62.0,88.0,-256.0,-77.0,-104.0,44.0,1
-64.0,89.0,-251.0,-66.0,-96.0,37.0,1
-66.0,87.0,-256.0,-59.0,-88.0,32.0,1
-66.0,86.0,-253.0,-54.0,-82.0,29.0,1
-65.0,86.0,-254.0,-48.0,-75.0,25.0,1
-66.0,85.0,-252.0,-45.0,-69.0,21.0,1
-64.0,85.0,-255.0,-42.0,-62.0,17.0,1
-67.0,87.0,-254.0,-41.0,-55.0,14.0,1
-66.0,85.0,-255.0,-39.0,-51.0,11.0,1
-66.0,88.0,-258.0,-37.0,-46.0,9.0,1
-70.0,90.0,-256.0,-37.0,-41.0,6.0,1
-67.0,90.0,-265.0,-35.0,-35.0,4.0,1
-66.0,87.0,-262.0,-34.0,-31.0,1.0,1
-67.0,90.0,-257.0,-33.0,-27.0,-1.0,1
-67.0,91.0,-258.0,-35.0,-23.0,-1.0,1
-69.0,89.0,-259.0,-33.0,-20.0,-5.0,1
-66.0,88.0,-259.0,-35.0,-18.0,-5.0,1
-68.0,89.0,-257.0,-35.0,-17.0,-7.0,1
-65.0,86.0,-266.0,-33.0,-15.0,-8.0,1
-68.0,90.0,-262.0,-31.0,-16.0,-9.0,1
-66.0,89.0,-267.0,-30.0,-13.0,-9.0,1
-68.0,87.0,-262.0,-29.0,-13.0,-10.0,1
-69.0,88.0,-263.0,-25.0,-12.0,-10.0,1
-67.0,86.0,-257.0,-22.0,-11.0,-11.0,1
-67.0,88.0,-260.0,-18.0,-10.0,-12.0,1
-70.0,87.0,-260.0,-17.0,-7.0,-11.0,1
-72.0,89.0,-265.0,-14.0,-6.0,-13.0,1
-68.0,86.0,-262.0,-12.0,-3.0,-14.0,1
-70.0,87.0,-261.0,-8.0,1.0,-16.0,1
-68.0,88.0,-262.0,-7.0,5.0,-15.0,1
-69.0,88.0,-262.0,-5.0,10.0,-15.0,1
-71.0,88.0,-263.0,-2.0,18.0,-15.0,1
-69.0,87.0,-263.0,0.0,24.0,-15.0,1
-71.0,86.0,-263.0,3.0,29.0,-18.0,1
-68.0,87.0,-263.0,5.0,36.0,-18.0,1
-69.0,86.0,-257.0,6.0,41.0,-18.0,1
-67.0,86.0,-258.0,8.0,46.0,-19.0,1
-69.0,81.0,-264.0,9.0,49.0,-19.0,1
-66.0,84.0,-266.0,9.0,53.0,-21.0,1
-68.0,85.0,-258.0,10.0,57.0,-19.0,1
-68.0,82.0,-259.0,8.0,61.0,-19.0,1
-68.0,84.0,-260.0,6.0,63.0,-21.0,1
-65.0,83.0,-259.0,4.0,66.0,-21.0,1
-71.0,84.0,-260.0,3.0,69.0,-19.0,1
-68.0,83.0,-262.0,0.0,71.0,-19.0,1
-68.0,82.0,-259.0,-1.0,74.0,-19.0,1
-67.0,83.0,-266.0,-1.0,76.0,-17.0,1
-69.0,83.0,-265.0,-4.0,77.0,-17.0,1
-64.0,82.0,-260.0,-9.0,75.0,-14.0,1
-66.0,81.0,-263.0,-14.0,75.0,-13.0,1
-66.0,81.0,-258.0,-19.0,74.0,-12.0,1
-67.0,83.0,-260.0,-25.0,72.0,-10.0,1
-66.0,84.0,-262.0,-29.0,69.0,-8.0,1
-66.0,82.0,-261.0,-35.0,66.0,-7.0,1
-67.0,82.0,-260.0,-40.0,62.0,-5.0,1
-65.0,84.0,-264.0,-45.0,58.0,-4.0,1
-63.0,82.0,-263.0,-51.0,54.0,-3.0,1
-63.0,82.0,-267.0,-55.0,50.0,-2.0,1
-62.0,83.0,-263.0,-60.0,47.0,-1.0,1
-67.0,81.0,-260.0,-62.0,43.0,1.0,1
-68.0,86.0,-265.0,-64.0,40.0,2.0,1
-63.0,81.0,-265.0,-67.0,39.0,3.0,1
-67.0,84.0,-265.0,-70.0,36.0,3.0,1
-67.0,86.0,-263.0,-71.0,34.0,3.0,1
-65.0,85.0,-265.0,-74.0,33.0,3.0,1
-67.0,83.0,-260.0,-73.0,30.0,4.0,1
-69.0,87.0,-265.0,-74.0,29.0,4.0,1
-66.0,84.0,-263.0,-75.0,28.0,4.0,1
-67.0,83.0,-265.0,-75.0,26.0,4.0,1
-64.0,84.0,-264.0,-74.0,25.0,4.0,1
-65.0,85.0,-261.0,-76.0,23.0,4.0,1
-65.0,85.0,-262.0,-76.0,21.0,4.0,1
-64.0,84.0,-261.0,-76.0,21.0,5.0,1
-68.0,87.0,-264.0,-77.0,19.0,5.0,1
-63.0,84.0,-262.0,-76.0,17.0,5.0,1
-66.0,85.0,-259.0,-75.0,16.0,5.0,1
-65.0,88.0,-260.0,-76.0,15.0,4.0,1
-65.0,85.0,-259.0,-76.0,12.0,4.0,1
-66.0,85.0,-259.0,-75.0,15.0,5.0,1
-67.0,85.0,-262.0,-74.0,15.0,6.0,1
-63.0,81.0,-259.0,-73.0,16.0,5.0,1
-65.0,84.0,-263.0,-74.0,17.0,5.0,1
-66.0,88.0,-262.0,-70.0,19.0,4.0,1
-63.0,86.0,-260.0,-69.0,22.0,4.0,1
-66.0,86.0,-262.0,-69.0,21.0,3.0,1
-66.0,85.0,-258.0,-68.0,23.0,3.0,1
-68.0,90.0,-261.0,-70.0,24.0,2.0,1
-63.0,85.0,-261.0,-70.0,25.0,3.0,1
-66.0,84.0,-258.0,-69.0,27.0,3.0,1
-65.0,86.0,-255.0,-65.0,28.0,4.0,1
-63.0,88.0,-261.0,-63.0,29.0,3.0,1
-64.0,89.0,-263.0,-62.0,29.0,2.0,1
-66.0,88.0,-258.0,-61.0,30.0,2.0,1
-71.0,88.0,-262.0,-62.0,30.0,1.0,1
-66.0,87.0,-265.0,-60.0,31.0,2.0,1
-66.0,88.0,-258.0,-59.0,31.0,1.0,1
-68.0,90.0,-264.0,-57.0,31.0,1.0,1
-67.0,87.0,-261.0,-56.0,30.0,-1.0,1
-66.0,91.0,-260.0,-56.0,28.0,0.0,1
-68.0,85.0,-265.0,-54.0,28.0,-1.0,1
-62.0,88.0,-259.0,-53.0,28.0,-1.0,1
-64.0,87.0,-263.0,-51.0,26.0,-3.0,1
-65.0,85.0,-263.0,-48.0,27.0,-2.0,1
-64.0,87.0,-261.0,-47.0,26.0,-3.0,1
-66.0,88.0,-266.0,-43.0,24.0,-4.0,1
-67.0,87.0,-262.0,-42.0,24.0,-7.0,1
-68.0,89.0,-261.0,-39.0,23.0,-7.0,1
-66.0,86.0,-261.0,-39.0,22.0,-6.0,1
-65.0,86.0,-262.0,-37.0,21.0,-7.0,1
-69.0,90.0,-263.0,-36.0,19.0,-7.0,1
-66.0,86.0,-263.0,-33.0,19.0,-9.0,1
-65.0,89.0,-260.0,-32.0,20.0,-8.0,1
-66.0,85.0,-259.0,-30.0,19.0,-8.0,1
-65.0,87.0,-265.0,-28.0,18.0,-8.0,1
-62.0,86.0,-259.0,-26.0,16.0,-8.0,1
-66.0,88.0,-262.0,-26.0,17.0,-10.0,1
-66.0,87.0,-262.0,-26.0,17.0,-8.0,1
-66.0,87.0,-261.0,-24.0,17.0,-9.0,1
-66.0,88.0,-265.0,-27.0,17.0,-9.0,1
-62.0,86.0,-259.0,-24.0,17.0,-9.0,1
-65.0,85.0,-258.0,-25.0,17.0,-10.0,1
-67.0,85.0,-259.0,-24.0,19.0,-10.0,1
-65.0,83.0,-261.0,-23.0,19.0,-10.0,1
-65.0,86.0,-258.0,-24.0,20.0,-9.0,1
-66.0,87.0,-267.0,-26.0,21.0,-11.0,1
-60.0,90.0,-260.0,-27.0,21.0,-9.0,1
-65.0,84.0,-262.0,-28.0,22.0,-9.0,1
-64.0,84.0,-262.0,-28.0,22.0,-8.0,1
-64.0,84.0,-264.0,-30.0,21.0,-8.0,1
-66.0,85.0,-264.0,-32.0,22.0,-7.0,1
-65.0,84.0,-263.0,-34.0,22.0,-6.0,1
-65.0,87.0,-260.0,-34.0,22.0,-8.0,1
-63.0,86.0,-262.0,-36.0,22.0,-7.0,1
-65.0,84.0,-261.0,-38.0,22.0,-5.0,1
-67.0,84.0,-263.0,-40.0,22.0,-5.0,1
-67.0,85.0,-264.0,-40.0,21.0,-5.0,1
-64.0,83.0,-259.0,-41.0,22.0,-5.0,1
-63.0,85.0,-265.0,-42.0,21.0,-4.0,1
-66.0,85.0,-262.0,-43.0,18.0,-6.0,1
-64.0,85.0,-260.0,-43.0,18.0,-6.0,1
-66.0,89.0,-264.0,-43.0,18.0,-5.0,1
-68.0,88.0,-263.0,-44.0,18.0,-5.0,1
-67.0,85.0,-263.0,-44.0,17.0,-5.0,1
-65.0,84.0,-262.0,-45.0,18.0,-7.0,1
-65.0,85.0,-261.0,-44.0,18.0,-5.0,1
-64.0,84.0,-264.0,-44.0,18.0,-6.0,1
-66.0,86.0,-261.0,-43.0,20.0,-5.0,1
-63.0,83.0,-263.0,-43.0,19.0,-6.0,1
-64.0,86.0,-264.0,-43.0,19.0,-5.0,1
-67.0,84.0,-263.0,-44.0,17.0,-5.0,1
-66.0,85.0,-261.0,-42.0,19.0,-5.0,1
-67.0,84.0,-264.0,-42.0,19.0,-6.0,1
-63.0,83.0,-263.0,-43.0,17.0,-5.0,1
-65.0,86.0,-262.0,-45.0,17.0,-5.0,1
-64.0,85.0,-258.0,-48.0,16.0,-5.0,1
-64.0,83.0,-262.0,-48.0,17.0,-3.0,1
-61.0,84.0,-260.0,-52.0,16.0,-5.0,1
-63.0,81.0,-260.0,-54.0,16.0,-3.0,1
-62.0,82.0,-258.0,-54.0,16.0,-2.0,1
-66.0,85.0,-260.0,-53.0,17.0,-2.0,1
-67.0,86.0,-262.0,-53.0,19.0,-3.0,1
-64.0,84.0,-264.0,-54.0,19.0,-3.0,1
-66.0,87.0,-263.0,-57.0,19.0,-2.0,1
-66.0,86.0,-265.0,-55.0,21.0,-2.0,1
-64.0,85.0,-262.0,-58.0,22.0,-2.0,1
-67.0,86.0,-264.0,-58.0,23.0,-3.0,1
-66.0,86.0,-265.0,-58.0,24.0,-2.0,1
-65.0,87.0,-265.0,-55.0,25.0,-2.0,1
-62.0,89.0,-265.0,-55.0,26.0,-1.0,1
-66.0,89.0,-262.0,-54.0,26.0,-2.0,1
-64.0,86.0,-266.0,-54.0,28.0,-1.0,1
-62.0,84.0,-265.0,-53.0,27.0,0.0,1
-64.0,86.0,-261.0,-53.0,27.0,-1.0,1
-66.0,87.0,-262.0,-52.0,27.0,-2.0,1
-64.0,84.0,-262.0,-51.0,26.0,-1.0,1
-63.0,86.0,-261.0,-50.0,26.0,-2.0,1
-67.0,86.0,-268.0,-50.0,25.0,-1.0,1
-66.0,84.0,-262.0,-49.0,26.0,-2.0,1
-63.0,84.0,-264.0,-48.0,25.0,-3.0,1
-65.0,84.0,-263.0,-49.0,25.0,-2.0,1
-62.0,85.0,-263.0,-48.0,24.0,-3.0,1
-64.0,85.0,-263.0,-49.0,23.0,-3.0,1
-62.0,87.0,-261.0,-49.0,23.0,-2.0,1
-66.0,85.0,-262.0,-48.0,22.0,-2.0,1
-64.0,88.0,-262.0,-49.0,22.0,-2.0,1
-65.0,88.0,-261.0,-47.0,22.0,-3.0,1
-66.0,87.0,-262.0,-46.0,21.0,-4.0,1
-65.0,86.0,-267.0,-46.0,22.0,-3.0,1
-65.0,88.0,-263.0,-45.0,22.0,-3.0,1
-64.0,86.0,-260.0,-44.0,21.0,-4.0,1
-70.0,82.0,-260.0,-44.0,20.0,-5.0,1
-64.0,86.0,-263.0,-43.0,20.0,-3.0,1
-67.0,86.0,-265.0,-44.0,21.0,-4.0,1
-63.0,88.0,-260.0,-44.0,19.0,-4.0,1
-64.0,85.0,-261.0,-42.0,18.0,-4.0,1
-64.0,83.0,-264.0,-43.0,19.0,-4.0,1
-63.0,84.0,-265.0,-42.0,19.0,-5.0,1
-63.0,85.0,-263.0,-40.0,19.0,-5.0,1
-65.0,83.0,-261.0,-41.0,18.0,-5.0,1
-64.0,85.0,-266.0,-41.0,18.0,-4.0,1
-65.0,83.0,-265.0,-43.0,18.0,-6.0,1
-66.0,84.0,-268.0,-42.0,18.0,-7.0,1
-66.0,86.0,-260.0,-43.0,17.0,-7.0,1
-64.0,85.0,-261.0,-39.0,15.0,-5.0,1
-66.0,84.0,-262.0,-41.0,15.0,-6.0,1
-64.0,83.0,-264.0,-39.0,16.0,-6.0,1
-64.0,86.0,-263.0,-39.0,15.0,-6.0,1
-62.0,85.0,-263.0,-41.0,16.0,-6.0,1
-64.0,86.0,-262.0,-43.0,15.0,-5.0,1
-63.0,83.0,-263.0,-42.0,14.0,-6.0,1
-65.0,86.0,-260.0,-43.0,13.0,-6.0,1
-64.0,87.0,-262.0,-42.0,12.0,-7.0,1
-55.0,81.0,-264.0,-42.0,12.0,-6.0,1
-65.0,88.0,-262.0,-42.0,11.0,-6.0,1
-59.0,83.0,-261.0,-43.0,12.0,-6.0,1
-64.0,84.0,-262.0,-43.0,10.0,-5.0,1
-66.0,83.0,-260.0,-44.0,11.0,-5.0,1
-65.0,86.0,-263.0,-45.0,11.0,-5.0,1
-65.0,85.0,-265.0,-45.0,11.0,-5.0,1
-62.0,86.0,-260.0,-45.0,11.0,-4.0,1
-66.0,87.0,-268.0,-45.0,11.0,-5.0,1
-64.0,88.0,-263.0,-45.0,12.0,-5.0,1
-64.0,84.0,-261.0,-45.0,12.0,-4.0,1
-64.0,88.0,-267.0,-45.0,12.0,-4.0,1
-64.0,84.0,-257.0,-45.0,12.0,-5.0,1
-65.0,87.0,-260.0,-46.0,13.0,-7.0,1
-67.0,88.0,-261.0,-46.0,13.0,-5.0,1
-67.0,88.0,-260.0,-45.0,13.0,-5.0,1
-63.0,86.0,-264.0,-45.0,14.0,-5.0,1
-65.0,84.0,-263.0,-44.0,14.0,-5.0,1
-65.0,86.0,-263.0,-45.0,11.0,-7.0,1
-67.0,87.0,-260.0,-45.0,11.0,-6.0,1
-67.0,84.0,-265.0,-45.0,13.0,-4.0,1
-66.0,88.0,-263.0,-46.0,14.0,-5.0,1
-63.0,87.0,-263.0,-47.0,12.0,-5.0,1
-65.0,83.0,-260.0,-48.0,13.0,-5.0,1
-67.0,85.0,-261.0,-48.0,13.0,-4.0,1
-64.0,86.0,-262.0,-46.0,14.0,-4.0,1
-66.0,87.0,-262.0,-46.0,14.0,-5.0,1
-64.0,87.0,-264.0,-46.0,17.0,-5.0,1
-66.0,86.0,-262.0,-45.0,16.0,-4.0,1
-65.0,84.0,-260.0,-47.0,18.0,-3.0,1
-66.0,88.0,-259.0,-46.0,18.0,-3.0,1
-67.0,86.0,-260.0,-47.0,20.0,-4.0,1
-65.0,83.0,-264.0,-49.0,20.0,-5.0,1
-64.0,89.0,-264.0,-49.0,21.0,-3.0,1
-64.0,84.0,-257.0,-48.0,19.0,-3.0,1
-66.0,87.0,-263.0,-48.0,20.0,-4.0,1
-63.0,82.0,-259.0,-48.0,20.0,-4.0,1
-62.0,86.0,-260.0,-47.0,22.0,-5.0,1
-65.0,87.0,-262.0,-47.0,23.0,-4.0,1
-64.0,84.0,-261.0,-47.0,22.0,-4.0,1
-66.0,87.0,-260.0,-46.0,22.0,-3.0,1
-67.0,84.0,-260.0,-45.0,22.0,-3.0,1
-66.0,87.0,-260.0,-48.0,22.0,-3.0,1
-65.0,83.0,-262.0,-46.0,20.0,-3.0,1
-70.0,89.0,-264.0,-46.0,21.0,-3.0,1
-65.0,86.0,-261.0,-47.0,21.0,-3.0,1
-67.0,86.0,-264.0,-48.0,21.0,-4.0,1
-65.0,87.0,-262.0,-47.0,23.0,-4.0,1
-65.0,86.0,-262.0,-46.0,23.0,-3.0,1
-67.0,89.0,-265.0,-46.0,23.0,-3.0,1
-65.0,86.0,-263.0,-46.0,23.0,-4.0,1
-65.0,89.0,-264.0,-43.0,23.0,-4.0,1
-64.0,86.0,-258.0,-44.0,22.0,-3.0,1
-65.0,85.0,-262.0,-43.0,21.0,-4.0,1
-64.0,84.0,-260.0,-43.0,21.0,-4.0,1
-65.0,86.0,-260.0,-43.0,21.0,-4.0,1
-66.0,86.0,-262.0,-45.0,20.0,-4.0,1
-66.0,86.0,-265.0,-45.0,21.0,-3.0,1
-62.0,82.0,-262.0,-46.0,20.0,-3.0,1
-66.0,88.0,-261.0,-49.0,19.0,-2.0,1
-61.0,86.0,-260.0,-49.0,19.0,-3.0,1
-62.0,85.0,-262.0,-49.0,19.0,-2.0,1
-63.0,84.0,-263.0,-49.0,21.0,-4.0,1
-60.0,85.0,-264.0,-48.0,22.0,-4.0,1
-64.0,83.0,-266.0,-46.0,22.0,-3.0,1
-56.0,89.0,-260.0,-46.0,22.0,-4.0,1
-65.0,87.0,-263.0,-49.0,23.0,-3.0,1
-64.0,85.0,-259.0,-47.0,24.0,-5.0,1
-63.0,86.0,-265.0,-46.0,23.0,-6.0,1
-64.0,86.0,-264.0,-45.0,23.0,-4.0,1
-63.0,85.0,-264.0,-44.0,22.0,-4.0,1
-64.0,87.0,-260.0,-47.0,23.0,-5.0,1
-66.0,84.0,-265.0,-47.0,22.0,-3.0,1
-64.0,86.0,-264.0,-46.0,22.0,-3.0,1
-64.0,85.0,-261.0,-48.0,20.0,-6.0,1
-65.0,86.0,-256.0,-47.0,19.0,-2.0,1
-62.0,86.0,-256.0,-48.0,19.0,-3.0,1
-64.0,87.0,-259.0,-46.0,19.0,-4.0,1
-66.0,87.0,-260.0,-47.0,18.0,-3.0,1
-66.0,88.0,-262.0,-45.0,17.0,-5.0,1
-63.0,87.0,-262.0,-46.0,16.0,-4.0,1
-66.0,86.0,-262.0,-45.0,16.0,-3.0,1
-65.0,87.0,-266.0,-46.0,15.0,-3.0,1
-65.0,86.0,-262.0,-47.0,15.0,-4.0,1
-65.0,87.0,-264.0,-48.0,14.0,-3.0,1
-64.0,87.0,-265.0,-49.0,15.0,-3.0,1
-63.0,87.0,-262.0,-48.0,15.0,-4.0,1
-61.0,87.0,-263.0,-48.0,16.0,-5.0,1
-62.0,85.0,-263.0,-47.0,16.0,-4.0,1
-63.0,87.0,-258.0,-47.0,17.0,-3.0,1
-60.0,92.0,-264.0,-48.0,15.0,-3.0,1
-68.0,89.0,-265.0,-47.0,17.0,-4.0,1
-62.0,88.0,-263.0,-47.0,17.0,-4.0,1
-63.0,84.0,-264.0,-47.0,17.0,-4.0,1
-64.0,90.0,-261.0,-47.0,16.0,-4.0,1
-66.0,102.0,-267.0,-46.0,16.0,-3.0,1
-67.0,86.0,-262.0,-45.0,17.0,-5.0,1
-65.0,91.0,-261.0,-47.0,16.0,-5.0,1
-66.0,87.0,-263.0,-46.0,18.0,-4.0,1
-67.0,87.0,-264.0,-46.0,18.0,-5.0,1
-65.0,83.0,-272.0,-46.0,18.0,-5.0,1
-66.0,98.0,-264.0,-46.0,19.0,-6.0,1
-62.0,82.0,-260.0,-46.0,18.0,-5.0,1
-64.0,85.0,-266.0,-48.0,18.0,-4.0,1
-67.0,86.0,-262.0,-48.0,18.0,-4.0,1
-65.0,80.0,-265.0,-48.0,18.0,-4.0,1
-62.0,87.0,-261.0,-48.0,18.0,-3.0,1
-65.0,79.0,-264.0,-47.0,18.0,-4.0,1
-64.0,95.0,-257.0,-46.0,19.0,-5.0,1
-66.0,88.0,-265.0,-47.0,20.0,-4.0,1
-67.0,87.0,-271.0,-47.0,19.0,-5.0,1
-58.0,80.0,-266.0,-46.0,20.0,-5.0,1
-64.0,85.0,-262.0,-46.0,20.0,-4.0,1
-63.0,87.0,-253.0,-46.0,17.0,-5.0,1
-65.0,88.0,-265.0,-47.0,17.0,-6.0,1
-65.0,85.0,-263.0,-47.0,18.0,-3.0,1
-63.0,85.0,-262.0,-47.0,18.0,-5.0,1
-63.0,87.0,-267.0,-49.0,17.0,-4.0,1
-65.0,86.0,-262.0,-48.0,18.0,-4.0,1
-64.0,87.0,-262.0,-50.0,19.0,-4.0,1
-66.0,80.0,-259.0,-50.0,18.0,-5.0,1
-66.0,86.0,-267.0,-50.0,17.0,-5.0,1
-66.0,86.0,-264.0,-52.0,19.0,-4.0,1
-62.0,82.0,-264.0,-53.0,19.0,-3.0,1
-66.0,85.0,-265.0,-52.0,17.0,-3.0,1
-64.0,82.0,-261.0,-53.0,17.0,-2.0,1
-61.0,86.0,-257.0,-52.0,17.0,-3.0,1
-64.0,86.0,-262.0,-52.0,16.0,-4.0,1
-63.0,85.0,-264.0,-52.0,15.0,-3.0,1
-74.0,92.0,-260.0,-52.0,16.0,-3.0,1
-66.0,88.0,-262.0,-52.0,15.0,-3.0,1
-64.0,88.0,-262.0,-52.0,15.0,-3.0,1
-67.0,88.0,-263.0,-51.0,15.0,-3.0,1
-63.0,85.0,-266.0,-49.0,16.0,-3.0,1
-72.0,81.0,-258.0,-49.0,16.0,-4.0,1
-63.0,87.0,-258.0,-49.0,15.0,-3.0,1
-65.0,85.0,-261.0,-49.0,15.0,-3.0,1
-63.0,83.0,-263.0,-50.0,15.0,-3.0,1
-64.0,89.0,-259.0,-50.0,15.0,-4.0,1
-65.0,88.0,-261.0,-49.0,17.0,-4.0,1
-66.0,84.0,-264.0,-51.0,17.0,-4.0,1
-65.0,88.0,-261.0,-48.0,15.0,-5.0,1
-61.0,79.0,-260.0,-49.0,17.0,-4.0,1
-65.0,87.0,-258.0,-49.0,18.0,-4.0,1
-62.0,85.0,-265.0,-48.0,18.0,-4.0,1
-62.0,86.0,-259.0,-47.0,19.0,-3.0,1
-63.0,88.0,-262.0,-49.0,19.0,-4.0,1
-65.0,85.0,-264.0,-48.0,20.0,-4.0,1
-66.0,86.0,-262.0,-50.0,20.0,-3.0,1
-64.0,85.0,-263.0,-49.0,19.0,-3.0,1
-63.0,88.0,-259.0,-49.0,19.0,-4.0,1
-64.0,88.0,-262.0,-48.0,19.0,-4.0,1
-67.0,90.0,-263.0,-46.0,19.0,-4.0,1
-67.0,86.0,-258.0,-46.0,17.0,-4.0,1
-64.0,84.0,-261.0,-48.0,18.0,-5.0,1
-66.0,88.0,-262.0,-48.0,17.0,-4.0,1
-62.0,85.0,-266.0,-48.0,18.0,-5.0,1
-64.0,86.0,-264.0,-46.0,18.0,-5.0,1
-63.0,85.0,-261.0,-47.0,18.0,-5.0,1
-62.0,87.0,-262.0,-47.0,17.0,-4.0,1
-63.0,86.0,-261.0,-46.0,17.0,-3.0,1
-64.0,86.0,-262.0,-46.0,15.0,-3.0,1
-66.0,86.0,-268.0,-49.0,16.0,-4.0,1
-65.0,87.0,-267.0,-50.0,15.0,-4.0,1
-65.0,87.0,-265.0,-49.0,18.0,-5.0,1
-66.0,87.0,-262.0,-47.0,18.0,-4.0,1
-64.0,85.0,-257.0,-45.0,19.0,-5.0,1
-62.0,83.0,-263.0,-44.0,18.0,-5.0,1
-65.0,85.0,-263.0,-43.0,18.0,-6.0,1
-63.0,85.0,-260.0,-44.0,19.0,-7.0,1
-63.0,83.0,-260.0,-43.0,19.0,-6.0,1
-61.0,87.0,-261.0,-42.0,18.0,-5.0,1
-63.0,91.0,-261.0,-43.0,18.0,-6.0,1
-66.0,85.0,-260.0,-45.0,17.0,-5.0,1
-70.0,86.0,-263.0,-48.0,17.0,-4.0,1
-64.0,87.0,-264.0,-49.0,17.0,-4.0,1
-63.0,82.0,-261.0,-52.0,17.0,-4.0,1
-63.0,85.0,-267.0,-51.0,17.0,-3.0,1
-64.0,87.0,-260.0,-50.0,18.0,-4.0,1
-63.0,84.0,-263.0,-51.0,18.0,-4.0,1
-64.0,86.0,-261.0,-50.0,18.0,-3.0,1
-65.0,85.0,-263.0,-51.0,19.0,-3.0,1
-63.0,86.0,-266.0,-51.0,20.0,-3.0,1
-64.0,85.0,-260.0,-50.0,20.0,-3.0,1
-63.0,87.0,-258.0,-49.0,21.0,-4.0,1
-68.0,85.0,-272.0,-50.0,21.0,-4.0,1
-65.0,87.0,-262.0,-49.0,21.0,-3.0,1
-64.0,87.0,-263.0,-49.0,21.0,-3.0,1
-63.0,87.0,-266.0,-49.0,21.0,-3.0,1
-66.0,86.0,-263.0,-48.0,21.0,-4.0,1
-64.0,88.0,-262.0,-48.0,22.0,-3.0,1
-65.0,88.0,-260.0,-50.0,21.0,-2.0,1
-65.0,88.0,-263.0,-50.0,21.0,-3.0,1
-63.0,84.0,-264.0,-50.0,20.0,-3.0,1
-64.0,87.0,-262.0,-48.0,19.0,-3.0,1
-64.0,89.0,-264.0,-47.0,18.0,-3.0,1
-63.0,87.0,-270.0,-48.0,17.0,-3.0,1
-65.0,87.0,-263.0,-48.0,17.0,-3.0,1
-63.0,85.0,-264.0,-49.0,18.0,-5.0,1
-67.0,89.0,-260.0,-48.0,17.0,-4.0,1
-65.0,88.0,-264.0,-48.0,16.0,-3.0,1
-66.0,89.0,-259.0,-50.0,16.0,-4.0,1
-62.0,84.0,-260.0,-50.0,16.0,-3.0,1
-64.0,87.0,-258.0,-51.0,17.0,-3.0,1
-68.0,86.0,-265.0,-50.0,17.0,-4.0,1
-67.0,85.0,-263.0,-49.0,18.0,-4.0,1
-64.0,84.0,-261.0,-50.0,18.0,-3.0,1
-64.0,82.0,-264.0,-50.0,16.0,-4.0,1
-65.0,87.0,-261.0,-51.0,16.0,-4.0,1
-65.0,86.0,-261.0,-50.0,16.0,-4.0,1
-65.0,86.0,-264.0,-49.0,17.0,-5.0,1
-65.0,88.0,-262.0,-49.0,18.0,-5.0,1
-64.0,84.0,-265.0,-49.0,18.0,-4.0,1
-61.0,90.0,-261.0,-49.0,18.0,-4.0,1
-61.0,83.0,-261.0,-48.0,18.0,-4.0,1
-62.0,85.0,-260.0,-48.0,18.0,-4.0,1
-65.0,83.0,-259.0,-47.0,18.0,-5.0,1
-63.0,85.0,-263.0,-48.0,19.0,-3.0,1
-64.0,89.0,-261.0,-47.0,17.0,-3.0,1
-65.0,87.0,-260.0,-46.0,19.0,-4.0,1
-63.0,88.0,-255.0,-45.0,18.0,-3.0,1
-68.0,91.0,-261.0,-47.0,18.0,-5.0,1
-62.0,83.0,-260.0,-47.0,19.0,-5.0,1
-66.0,88.0,-260.0,-48.0,17.0,-4.0,1
-67.0,89.0,-259.0,-46.0,17.0,-4.0,1
-64.0,86.0,-264.0,-46.0,18.0,-4.0,1
-66.0,91.0,-261.0,-46.0,18.0,-4.0,1
-66.0,86.0,-261.0,-46.0,18.0,-5.0,1
-59.0,85.0,-263.0,-45.0,17.0,-4.0,1
-62.0,90.0,-260.0,-46.0,17.0,-5.0,1
-59.0,86.0,-263.0,-47.0,16.0,-5.0,1
-64.0,84.0,-266.0,-45.0,16.0,-5.0,1
-63.0,87.0,-264.0,-46.0,15.0,-5.0,1
-64.0,84.0,-265.0,-47.0,15.0,-5.0,1
-65.0,86.0,-263.0,-47.0,15.0,-5.0,1
-67.0,87.0,-265.0,-49.0,14.0,-5.0,1
-63.0,82.0,-264.0,-49.0,15.0,-5.0,1
-65.0,87.0,-263.0,-49.0,16.0,-6.0,1
-67.0,91.0,-260.0,-50.0,16.0,-4.0,1
-66.0,87.0,-264.0,-49.0,16.0,-4.0,1
-66.0,85.0,-251.0,-49.0,16.0,-3.0,1
-63.0,87.0,-263.0,-50.0,15.0,-4.0,1
-66.0,87.0,-257.0,-48.0,17.0,-3.0,1
-63.0,85.0,-261.0,-49.0,15.0,-4.0,1
-63.0,88.0,-264.0,-50.0,16.0,-4.0,1
-63.0,85.0,-265.0,-51.0,15.0,-4.0,1
-67.0,87.0,-260.0,-48.0,15.0,-3.0,1
-66.0,88.0,-261.0,-50.0,15.0,-4.0,1
-66.0,84.0,-258.0,-50.0,16.0,-3.0,1
-66.0,92.0,-262.0,-49.0,15.0,-3.0,1
-65.0,86.0,-261.0,-48.0,14.0,-4.0,1
-56.0,94.0,-264.0,-50.0,13.0,-4.0,1
-63.0,85.0,-263.0,-48.0,13.0,-3.0,1
-66.0,88.0,-260.0,-49.0,14.0,-3.0,1
-64.0,88.0,-264.0,-48.0,14.0,-3.0,1
-62.0,86.0,-259.0,-49.0,15.0,-4.0,1
-65.0,86.0,-261.0,-49.0,15.0,-3.0,1
-65.0,87.0,-263.0,-49.0,16.0,-4.0,1
-67.0,88.0,-265.0,-51.0,15.0,-4.0,1
-66.0,88.0,-262.0,-51.0,16.0,-4.0,1
-64.0,86.0,-262.0,-51.0,14.0,-5.0,1
-70.0,85.0,-267.0,-49.0,15.0,-3.0,1
-65.0,87.0,-263.0,-50.0,15.0,-3.0,1
-63.0,86.0,-265.0,-50.0,16.0,-4.0,1
-62.0,87.0,-263.0,-49.0,18.0,-3.0,1
-61.0,85.0,-262.0,-47.0,19.0,-3.0,1
-64.0,88.0,-259.0,-47.0,17.0,-3.0,1
-64.0,87.0,-258.0,-48.0,17.0,-3.0,1
-64.0,88.0,-264.0,-46.0,18.0,-3.0,1
-68.0,89.0,-260.0,-48.0,17.0,-3.0,1
-63.0,87.0,-260.0,-48.0,17.0,-4.0,1
-64.0,87.0,-263.0,-47.0,18.0,-5.0,1
-61.0,82.0,-259.0,-48.0,18.0,-4.0,1
-61.0,84.0,-262.0,-48.0,17.0,-4.0,1
-65.0,88.0,-264.0,-47.0,18.0,-4.0,1
-66.0,84.0,-259.0,-48.0,18.0,-5.0,1
-64.0,88.0,-262.0,-46.0,17.0,-5.0,1
-66.0,87.0,-260.0,-45.0,17.0,-5.0,1
-65.0,84.0,-265.0,-48.0,17.0,-4.0,1
-62.0,88.0,-263.0,-49.0,17.0,-4.0,1
-62.0,86.0,-264.0,-49.0,17.0,-3.0,1
-65.0,87.0,-263.0,-49.0,16.0,-2.0,1
-65.0,86.0,-261.0,-49.0,17.0,-5.0,1
-63.0,82.0,-264.0,-49.0,15.0,-3.0,1
-64.0,86.0,-259.0,-50.0,15.0,-4.0,1
-65.0,86.0,-262.0,-50.0,16.0,-5.0,1
-63.0,88.0,-262.0,-49.0,15.0,-5.0,1
-65.0,89.0,-262.0,-52.0,14.0,-4.0,1
-65.0,87.0,-264.0,-51.0,15.0,-5.0,1
-64.0,87.0,-266.0,-51.0,17.0,-4.0,1
-64.0,88.0,-263.0,-50.0,16.0,-5.0,1
-61.0,88.0,-258.0,-49.0,17.0,-5.0,1
-65.0,92.0,-261.0,-47.0,16.0,-4.0,1
-68.0,86.0,-265.0,-45.0,17.0,-4.0,1
-63.0,81.0,-258.0,-45.0,16.0,-6.0,1
-67.0,88.0,-267.0,-43.0,18.0,-5.0,1
-62.0,84.0,-266.0,-42.0,16.0,-4.0,1
-64.0,85.0,-263.0,-44.0,15.0,-3.0,1
-65.0,88.0,-263.0,-46.0,15.0,-4.0,1
-64.0,84.0,-260.0,-49.0,15.0,-4.0,1
-63.0,84.0,-262.0,-50.0,15.0,-3.0,1
-63.0,85.0,-262.0,-53.0,15.0,-2.0,1
-62.0,83.0,-266.0,-51.0,14.0,-3.0,1
-64.0,86.0,-257.0,-53.0,15.0,-4.0,1
-61.0,85.0,-264.0,-51.0,16.0,-4.0,1
-64.0,85.0,-265.0,-50.0,16.0,-4.0,1
-69.0,86.0,-256.0,-50.0,17.0,-2.0,1
-65.0,86.0,-261.0,-51.0,17.0,-3.0,1
-64.0,87.0,-263.0,-51.0,18.0,-3.0,1
-64.0,87.0,-260.0,-50.0,17.0,-3.0,1
-66.0,85.0,-260.0,-52.0,18.0,-2.0,1
-63.0,88.0,-261.0,-51.0,17.0,-4.0,1
-65.0,88.0,-257.0,-50.0,18.0,-5.0,1
-66.0,88.0,-263.0,-51.0,18.0,-3.0,1
-64.0,86.0,-263.0,-50.0,18.0,-2.0,1
-63.0,89.0,-260.0,-51.0,18.0,-4.0,1
-62.0,88.0,-259.0,-52.0,17.0,-3.0,1
-65.0,86.0,-261.0,-49.0,18.0,-4.0,1
-66.0,90.0,-260.0,-50.0,17.0,-4.0,1
-61.0,86.0,-262.0,-49.0,17.0,-4.0,1
-67.0,87.0,-266.0,-47.0,17.0,-5.0,1
-65.0,88.0,-261.0,-49.0,17.0,-5.0,1
-66.0,87.0,-263.0,-49.0,16.0,-3.0,1
-65.0,83.0,-265.0,-49.0,15.0,-4.0,1
-64.0,87.0,-262.0,-49.0,15.0,-4.0,1
-65.0,88.0,-263.0,-50.0,16.0,-4.0,1
-63.0,86.0,-258.0,-49.0,16.0,-4.0,1
-59.0,85.0,-265.0,-50.0,15.0,-2.0,1
-66.0,85.0,-261.0,-49.0,15.0,-4.0,1
-65.0,87.0,-264.0,-49.0,14.0,-4.0,1
-65.0,89.0,-262.0,-49.0,15.0,-4.0,1
-65.0,86.0,-263.0,-49.0,14.0,-3.0,1
-65.0,88.0,-261.0,-48.0,14.0,-3.0,1
-65.0,87.0,-262.0,-46.0,14.0,-4.0,1
-66.0,87.0,-262.0,-49.0,15.0,-2.0,1
-64.0,87.0,-262.0,-48.0,14.0,-4.0,1
-61.0,87.0,-259.0,-47.0,14.0,-3.0,1
-62.0,84.0,-263.0,-49.0,16.0,-3.0,1
-62.0,88.0,-266.0,-48.0,16.0,-3.0,1
-63.0,86.0,-261.0,-47.0,16.0,-4.0,1
-64.0,87.0,-261.0,-45.0,16.0,-5.0,1
-64.0,88.0,-262.0,-47.0,15.0,-4.0,1
-64.0,89.0,-260.0,-46.0,16.0,-6.0,1
-61.0,85.0,-260.0,-48.0,16.0,-5.0,1
-66.0,89.0,-261.0,-46.0,15.0,-5.0,1
-62.0,86.0,-264.0,-47.0,15.0,-4.0,1
-63.0,87.0,-262.0,-49.0,15.0,-4.0,1
-63.0,87.0,-263.0,-49.0,15.0,-5.0,1
-66.0,87.0,-264.0,-49.0,13.0,-4.0,1
-59.0,92.0,-259.0,-49.0,14.0,-3.0,1
-65.0,87.0,-263.0,-48.0,16.0,-4.0,1
-66.0,87.0,-262.0,-48.0,15.0,-4.0,1
-65.0,87.0,-264.0,-47.0,14.0,-4.0,1
-63.0,86.0,-262.0,-48.0,16.0,-4.0,1
-63.0,88.0,-265.0,-45.0,15.0,-5.0,1
-67.0,90.0,-257.0,-46.0,16.0,-5.0,1
-66.0,85.0,-262.0,-46.0,14.0,-5.0,1
-64.0,88.0,-262.0,-46.0,14.0,-5.0,1
-65.0,88.0,-260.0,-45.0,13.0,-6.0,1
-61.0,86.0,-262.0,-46.0,13.0,-5.0,1
-65.0,87.0,-265.0,-47.0,13.0,-4.0,1
-62.0,89.0,-267.0,-47.0,13.0,-3.0,1
-65.0,90.0,-262.0,-48.0,14.0,-4.0,1
-64.0,88.0,-257.0,-49.0,12.0,-5.0,1
-65.0,86.0,-264.0,-48.0,14.0,-5.0,1
-65.0,88.0,-261.0,-48.0,13.0,-3.0,1
-65.0,89.0,-265.0,-50.0,14.0,-4.0,1
-63.0,88.0,-258.0,-51.0,15.0,-4.0,1
-63.0,92.0,-261.0,-50.0,14.0,-3.0,1
-62.0,88.0,-264.0,-49.0,14.0,-4.0,1
-59.0,88.0,-256.0,-51.0,14.0,-4.0,1
-64.0,88.0,-265.0,-51.0,13.0,-4.0,1
-64.0,86.0,-262.0,-51.0,12.0,-4.0,1
-64.0,86.0,-263.0,-50.0,13.0,-4.0,1
-63.0,89.0,-259.0,-50.0,13.0,-4.0,1
-65.0,89.0,-261.0,-50.0,12.0,-4.0,1
-65.0,85.0,-261.0,-49.0,12.0,-3.0,1
-65.0,88.0,-263.0,-48.0,14.0,-4.0,1
-68.0,91.0,-262.0,-49.0,14.0,-4.0,1
-62.0,86.0,-265.0,-48.0,14.0,-4.0,1
-62.0,87.0,-264.0,-48.0,14.0,-5.0,1
-62.0,85.0,-257.0,-49.0,15.0,-4.0,1
-65.0,88.0,-257.0,-48.0,15.0,-3.0,1
-63.0,86.0,-257.0,-47.0,15.0,-4.0,1
-65.0,88.0,-262.0,-47.0,14.0,-4.0,1
-64.0,85.0,-261.0,-48.0,13.0,-5.0,1
-65.0,87.0,-266.0,-49.0,14.0,-5.0,1
-65.0,89.0,-264.0,-48.0,16.0,-3.0,1
-63.0,87.0,-259.0,-50.0,16.0,-3.0,1
-64.0,86.0,-264.0,-49.0,16.0,-4.0,1
-63.0,86.0,-263.0,-51.0,15.0,-4.0,1
-64.0,90.0,-263.0,-49.0,15.0,-4.0,1
-71.0,89.0,-263.0,-49.0,15.0,-4.0,1
-65.0,87.0,-262.0,-50.0,16.0,-4.0,1
-64.0,86.0,-260.0,-48.0,16.0,-3.0,1
-66.0,89.0,-265.0,-48.0,15.0,-3.0,1
-63.0,84.0,-264.0,-48.0,15.0,-4.0,1
-63.0,89.0,-260.0,-48.0,15.0,-5.0,1
-65.0,85.0,-262.0,-49.0,15.0,-4.0,1
-66.0,87.0,-261.0,-48.0,15.0,-4.0,1
-63.0,90.0,-264.0,-48.0,14.0,-4.0,1
-66.0,88.0,-261.0,-48.0,14.0,-4.0,1
-64.0,86.0,-265.0,-48.0,13.0,-5.0,1
-66.0,88.0,-268.0,-48.0,14.0,-4.0,1
-66.0,86.0,-258.0,-47.0,13.0,-5.0,1
-64.0,88.0,-264.0,-47.0,14.0,-5.0,1
-63.0,86.0,-260.0,-47.0,13.0,-4.0,1
-65.0,88.0,-260.0,-47.0,13.0,-4.0,1
-66.0,88.0,-263.0,-46.0,14.0,-5.0,1
-66.0,89.0,-260.0,-47.0,14.0,-3.0,1
-64.0,86.0,-259.0,-47.0,14.0,-4.0,1
-66.0,87.0,-263.0,-46.0,14.0,-5.0,1
-64.0,87.0,-262.0,-46.0,14.0,-4.0,1
-63.0,88.0,-261.0,-47.0,14.0,-4.0,1
-63.0,83.0,-262.0,-47.0,13.0,-4.0,1
-64.0,89.0,-257.0,-48.0,14.0,-4.0,1
-67.0,88.0,-261.0,-49.0,15.0,-4.0,1
-67.0,89.0,-262.0,-49.0,14.0,-3.0,1
-65.0,86.0,-262.0,-49.0,14.0,-3.0,1
-66.0,90.0,-263.0,-49.0,15.0,-4.0,1
-63.0,86.0,-260.0,-49.0,13.0,-4.0,1
-64.0,86.0,-262.0,-48.0,13.0,-4.0,1
-63.0,87.0,-264.0,-49.0,13.0,-4.0,1
-65.0,88.0,-262.0,-50.0,14.0,-4.0,1
-63.0,88.0,-261.0,-51.0,14.0,-4.0,1
-67.0,87.0,-262.0,-49.0,16.0,-5.0,1
-66.0,88.0,-261.0,-48.0,14.0,-5.0,1
-66.0,91.0,-261.0,-46.0,14.0,-4.0,1
-64.0,90.0,-264.0,-47.0,14.0,-5.0,1
-62.0,86.0,-261.0,-46.0,14.0,-5.0,1
-65.0,89.0,-263.0,-44.0,14.0,-4.0,1
-64.0,87.0,-261.0,-43.0,14.0,-4.0,1
-64.0,86.0,-265.0,-42.0,14.0,-5.0,1
-64.0,86.0,-263.0,-44.0,14.0,-6.0,1
-66.0,86.0,-260.0,-43.0,14.0,-5.0,1
-65.0,82.0,-257.0,-46.0,14.0,-4.0,1
-65.0,85.0,-262.0,-50.0,14.0,-4.0,1
-63.0,84.0,-261.0,-50.0,14.0,-4.0,1
-64.0,87.0,-257.0,-50.0,15.0,-4.0,1
-65.0,86.0,-262.0,-51.0,15.0,-3.0,1
-64.0,85.0,-262.0,-50.0,16.0,-4.0,1
-64.0,87.0,-260.0,-50.0,15.0,-3.0,1
-66.0,87.0,-266.0,-48.0,15.0,-4.0,1
-63.0,88.0,-261.0,-48.0,15.0,-4.0,1
-65.0,92.0,-260.0,-51.0,17.0,-4.0,1
-65.0,88.0,-263.0,-52.0,18.0,-3.0,1
-64.0,93.0,-262.0,-51.0,17.0,-3.0,1
-64.0,87.0,-259.0,-51.0,17.0,-3.0,1
-65.0,87.0,-262.0,-49.0,17.0,-4.0,1
-65.0,90.0,-261.0,-51.0,18.0,-4.0,1
-66.0,88.0,-261.0,-50.0,17.0,-3.0,1
-64.0,89.0,-267.0,-49.0,17.0,-4.0,1
-64.0,88.0,-258.0,-48.0,16.0,-4.0,1
-63.0,87.0,-263.0,-46.0,17.0,-3.0,1
-64.0,89.0,-265.0,-46.0,16.0,-5.0,1
-66.0,89.0,-262.0,-48.0,16.0,-3.0,1
-66.0,88.0,-265.0,-47.0,15.0,-4.0,1
-66.0,88.0,-263.0,-47.0,15.0,-4.0,1
-69.0,87.0,-262.0,-47.0,15.0,-5.0,1
-63.0,90.0,-262.0,-47.0,14.0,-4.0,1
-65.0,87.0,-263.0,-47.0,13.0,-3.0,1
-64.0,87.0,-263.0,-47.0,13.0,-4.0,1
-65.0,88.0,-262.0,-48.0,13.0,-3.0,1
-63.0,88.0,-263.0,-48.0,14.0,-4.0,1
-62.0,87.0,-263.0,-49.0,13.0,-3.0,1
-65.0,89.0,-263.0,-47.0,14.0,-4.0,1
-64.0,86.0,-260.0,-50.0,12.0,-4.0,1
-65.0,89.0,-260.0,-50.0,13.0,-3.0,1
-70.0,85.0,-255.0,-48.0,12.0,-3.0,1
-65.0,90.0,-262.0,-49.0,13.0,-4.0,1
-67.0,90.0,-261.0,-50.0,12.0,-3.0,1
-65.0,88.0,-257.0,-49.0,12.0,-3.0,1
-64.0,89.0,-259.0,-49.0,12.0,-4.0,1
-63.0,86.0,-263.0,-49.0,12.0,-4.0,1
-66.0,88.0,-261.0,-49.0,13.0,-3.0,1
-65.0,90.0,-261.0,-47.0,13.0,-4.0,1
-65.0,89.0,-263.0,-46.0,12.0,-3.0,1
-65.0,84.0,-264.0,-47.0,13.0,-4.0,1
-64.0,87.0,-266.0,-49.0,13.0,-4.0,1
-68.0,87.0,-261.0,-47.0,13.0,-4.0,1
-65.0,87.0,-263.0,-46.0,14.0,-4.0,1
-62.0,86.0,-264.0,-47.0,14.0,-4.0,1
-62.0,88.0,-260.0,-48.0,13.0,-5.0,1
-65.0,88.0,-261.0,-48.0,13.0,-4.0,1
-65.0,89.0,-262.0,-49.0,14.0,-5.0,1
-68.0,86.0,-264.0,-47.0,14.0,-5.0,1
-64.0,87.0,-261.0,-46.0,14.0,-4.0,1
-63.0,86.0,-263.0,-46.0,14.0,-5.0,1
-67.0,87.0,-261.0,-45.0,15.0,-6.0,1
-66.0,88.0,-264.0,-45.0,14.0,-5.0,1
-71.0,90.0,-266.0,-46.0,15.0,-5.0,1
-64.0,87.0,-261.0,-45.0,16.0,-5.0,1
-68.0,88.0,-260.0,-45.0,14.0,-5.0,1
-64.0,86.0,-261.0,-46.0,15.0,-4.0,1
-64.0,86.0,-262.0,-46.0,15.0,-5.0,1
-64.0,86.0,-259.0,-46.0,14.0,-6.0,1
-64.0,88.0,-260.0,-46.0,14.0,-6.0,1
-65.0,86.0,-260.0,-47.0,14.0,-5.0,1
-64.0,88.0,-261.0,-47.0,15.0,-4.0,1
-64.0,88.0,-261.0,-48.0,14.0,-5.0,1
-67.0,89.0,-257.0,-48.0,14.0,-4.0,1
-59.0,92.0,-260.0,-48.0,14.0,-5.0,1
-66.0,86.0,-262.0,-49.0,15.0,-4.0,1
-64.0,88.0,-264.0,-49.0,14.0,-4.0,1
-63.0,84.0,-264.0,-49.0,14.0,-4.0,1
-63.0,89.0,-261.0,-49.0,15.0,-5.0,1
-64.0,87.0,-258.0,-49.0,14.0,-4.0,1
-65.0,91.0,-261.0,-49.0,15.0,-4.0,1
-64.0,87.0,-265.0,-47.0,15.0,-3.0,1
-65.0,85.0,-263.0,-49.0,15.0,-4.0,1
-63.0,84.0,-262.0,-47.0,15.0,-4.0,1
-67.0,88.0,-260.0,-45.0,14.0,-3.0,1
-63.0,91.0,-263.0,-47.0,15.0,-4.0,1
-68.0,88.0,-266.0,-48.0,15.0,-5.0,1
-69.0,91.0,-261.0,-47.0,16.0,-4.0,1
-64.0,89.0,-262.0,-45.0,16.0,-6.0,1
-62.0,87.0,-264.0,-45.0,16.0,-5.0,1
-66.0,86.0,-260.0,-44.0,16.0,-4.0,1
-66.0,90.0,-260.0,-44.0,17.0,-5.0,1
-65.0,88.0,-259.0,-44.0,17.0,-5.0,1
-62.0,88.0,-263.0,-45.0,17.0,-4.0,1
-64.0,88.0,-264.0,-43.0,16.0,-6.0,1
-61.0,88.0,-260.0,-44.0,16.0,-5.0,1
-60.0,89.0,-261.0,-44.0,18.0,-5.0,1
-66.0,89.0,-265.0,-42.0,18.0,-4.0,1
-62.0,87.0,-257.0,-43.0,18.0,-5.0,1
-63.0,87.0,-260.0,-43.0,17.0,-6.0,1
-64.0,86.0,-265.0,-44.0,17.0,-6.0,1
-63.0,89.0,-265.0,-44.0,19.0,-4.0,1
-64.0,89.0,-264.0,-42.0,18.0,-4.0,1
-65.0,89.0,-262.0,-43.0,19.0,-4.0,1
-64.0,88.0,-264.0,-44.0,19.0,-3.0,1
-66.0,90.0,-258.0,-43.0,20.0,-5.0,1
-65.0,87.0,-262.0,-42.0,18.0,-5.0,1
-62.0,89.0,-260.0,-41.0,19.0,-6.0,1
-64.0,86.0,-262.0,-41.0,20.0,-5.0,1
-66.0,92.0,-260.0,-43.0,18.0,-5.0,1
-65.0,89.0,-260.0,-41.0,18.0,-5.0,1
-64.0,84.0,-262.0,-40.0,17.0,-6.0,1
-63.0,89.0,-262.0,-41.0,15.0,-6.0,1
-64.0,86.0,-262.0,-42.0,16.0,-5.0,1
-65.0,88.0,-262.0,-41.0,16.0,-5.0,1
-64.0,85.0,-263.0,-41.0,15.0,-6.0,1
-63.0,86.0,-264.0,-40.0,16.0,-5.0,1
-66.0,91.0,-261.0,-41.0,17.0,-5.0,1
-61.0,93.0,-268.0,-42.0,16.0,-6.0,1
-65.0,91.0,-262.0,-41.0,17.0,-6.0,1
-63.0,84.0,-258.0,-42.0,16.0,-5.0,1
-64.0,83.0,-258.0,-41.0,16.0,-6.0,1
-63.0,90.0,-260.0,-41.0,15.0,-5.0,1
-64.0,88.0,-265.0,-42.0,15.0,-5.0,1
-64.0,89.0,-261.0,-42.0,15.0,-5.0,1
-65.0,88.0,-260.0,-41.0,14.0,-5.0,1
-67.0,87.0,-263.0,-43.0,15.0,-5.0,1
-63.0,85.0,-261.0,-43.0,15.0,-5.0,1
-65.0,87.0,-263.0,-42.0,14.0,-7.0,1
-70.0,89.0,-265.0,-42.0,14.0,-7.0,1
-64.0,88.0,-261.0,-43.0,15.0,-6.0,1
-63.0,86.0,-261.0,-42.0,16.0,-4.0,1
-65.0,86.0,-261.0,-44.0,16.0,-6.0,1
-63.0,88.0,-264.0,-45.0,16.0,-5.0,1
-64.0,87.0,-260.0,-45.0,15.0,-5.0,1
-66.0,87.0,-262.0,-43.0,14.0,-6.0,1
-66.0,87.0,-265.0,-42.0,14.0,-5.0,1
-64.0,90.0,-262.0,-43.0,14.0,-4.0,1
-68.0,87.0,-260.0,-43.0,15.0,-5.0,1
-64.0,88.0,-260.0,-44.0,17.0,-5.0,1
-68.0,88.0,-261.0,-42.0,17.0,-6.0,1
-63.0,89.0,-264.0,-42.0,16.0,-4.0,1
-68.0,86.0,-260.0,-39.0,17.0,-5.0,1
-64.0,88.0,-262.0,-40.0,17.0,-4.0,1
-63.0,85.0,-258.0,-39.0,17.0,-5.0,1
-66.0,91.0,-262.0,-39.0,17.0,-6.0,1
-65.0,88.0,-266.0,-38.0,18.0,-4.0,1
-65.0,87.0,-261.0,-38.0,16.0,-5.0,1
-66.0,90.0,-263.0,-39.0,18.0,-3.0,1
-64.0,88.0,-261.0,-43.0,17.0,-5.0,1
-64.0,88.0,-253.0,-45.0,16.0,-4.0,1
-61.0,85.0,-263.0,-47.0,15.0,-4.0,1
-65.0,87.0,-260.0,-46.0,16.0,-4.0,1
-62.0,88.0,-263.0,-48.0,18.0,-5.0,1
-63.0,87.0,-266.0,-47.0,18.0,-4.0,1
-63.0,87.0,-269.0,-46.0,19.0,-3.0,1
-67.0,90.0,-260.0,-48.0,19.0,-4.0,1
-63.0,87.0,-262.0,-47.0,19.0,-5.0,1
-62.0,88.0,-264.0,-48.0,20.0,-4.0,1
-65.0,86.0,-261.0,-48.0,19.0,-3.0,1
-65.0,86.0,-259.0,-48.0,20.0,-4.0,1
-62.0,89.0,-256.0,-46.0,20.0,-3.0,1
-64.0,89.0,-261.0,-47.0,22.0,-3.0,1
-67.0,88.0,-266.0,-45.0,21.0,-5.0,1
-64.0,87.0,-260.0,-45.0,21.0,-4.0,1
-65.0,88.0,-265.0,-44.0,22.0,-3.0,1
-62.0,89.0,-260.0,-43.0,22.0,-4.0,1
-67.0,89.0,-262.0,-43.0,21.0,-4.0,1
-64.0,86.0,-261.0,-43.0,21.0,-6.0,1
-63.0,86.0,-263.0,-42.0,20.0,-5.0,1
-67.0,87.0,-267.0,-43.0,21.0,-4.0,1
-68.0,92.0,-262.0,-43.0,20.0,-4.0,1
-61.0,95.0,-255.0,-41.0,20.0,-4.0,1
-64.0,87.0,-264.0,-44.0,20.0,-5.0,1
-63.0,87.0,-264.0,-44.0,20.0,-5.0,1
-64.0,88.0,-263.0,-44.0,19.0,-5.0,1
-65.0,90.0,-263.0,-42.0,17.0,-5.0,1
-63.0,85.0,-262.0,-44.0,16.0,-5.0,1
-67.0,84.0,-259.0,-45.0,17.0,-3.0,1
-66.0,87.0,-262.0,-44.0,17.0,-4.0,1
-65.0,87.0,-263.0,-43.0,18.0,-5.0,1
-65.0,90.0,-260.0,-43.0,17.0,-4.0,1
-65.0,87.0,-261.0,-45.0,16.0,-4.0,1
-65.0,84.0,-261.0,-44.0,16.0,-5.0,1
-65.0,86.0,-263.0,-44.0,17.0,-4.0,1
-66.0,90.0,-265.0,-43.0,17.0,-4.0,1
-64.0,87.0,-259.0,-42.0,15.0,-5.0,1
-66.0,88.0,-262.0,-43.0,16.0,-5.0,1
-65.0,89.0,-261.0,-43.0,17.0,-4.0,1
-65.0,88.0,-264.0,-41.0,17.0,-4.0,1
-66.0,86.0,-265.0,-42.0,16.0,-5.0,1
-64.0,88.0,-265.0,-41.0,17.0,-4.0,1
-65.0,89.0,-261.0,-42.0,16.0,-5.0,1
-65.0,85.0,-262.0,-40.0,17.0,-5.0,1
-62.0,92.0,-254.0,-40.0,17.0,-6.0,1
-65.0,88.0,-261.0,-40.0,17.0,-5.0,1
-65.0,88.0,-258.0,-41.0,17.0,-6.0,1
-65.0,88.0,-260.0,-42.0,16.0,-6.0,1
-65.0,89.0,-266.0,-42.0,16.0,-6.0,1
-66.0,85.0,-262.0,-43.0,16.0,-4.0,1
-65.0,87.0,-260.0,-43.0,15.0,-5.0,1
-65.0,89.0,-263.0,-43.0,15.0,-7.0,1
-67.0,91.0,-260.0,-41.0,16.0,-5.0,1
-66.0,88.0,-263.0,-42.0,16.0,-5.0,1
-64.0,89.0,-257.0,-42.0,15.0,-6.0,1
-65.0,90.0,-263.0,-41.0,16.0,-6.0,1
-64.0,87.0,-262.0,-43.0,15.0,-5.0,1
-64.0,86.0,-262.0,-43.0,14.0,-6.0,1
-64.0,87.0,-261.0,-43.0,13.0,-6.0,1
-64.0,88.0,-262.0,-42.0,13.0,-6.0,1
-65.0,86.0,-260.0,-42.0,14.0,-5.0,1
-65.0,88.0,-264.0,-43.0,14.0,-4.0,1
-66.0,87.0,-262.0,-43.0,14.0,-4.0,1
-64.0,86.0,-263.0,-45.0,15.0,-4.0,1
-67.0,88.0,-264.0,-44.0,14.0,-4.0,1
-59.0,89.0,-260.0,-43.0,15.0,-4.0,1
-62.0,91.0,-259.0,-44.0,16.0,-4.0,1
-62.0,85.0,-261.0,-44.0,16.0,-5.0,1
-65.0,86.0,-260.0,-45.0,17.0,-5.0,1
-66.0,86.0,-263.0,-44.0,16.0,-5.0,1
-65.0,88.0,-261.0,-44.0,16.0,-4.0,1
-67.0,89.0,-263.0,-45.0,16.0,-3.0,1
-66.0,88.0,-267.0,-44.0,16.0,-4.0,1
-64.0,89.0,-265.0,-44.0,16.0,-4.0,1
-63.0,91.0,-260.0,-45.0,17.0,-5.0,1
-67.0,90.0,-263.0,-45.0,17.0,-5.0,1
-66.0,86.0,-267.0,-45.0,18.0,-4.0,1
-63.0,83.0,-264.0,-45.0,17.0,-5.0,1
-64.0,85.0,-264.0,-44.0,17.0,-5.0,1
-63.0,87.0,-262.0,-44.0,18.0,-4.0,1
-66.0,90.0,-260.0,-45.0,17.0,-5.0,1
-63.0,85.0,-263.0,-44.0,18.0,-4.0,1
-65.0,85.0,-263.0,-44.0,18.0,-5.0,1
-65.0,88.0,-262.0,-44.0,18.0,-6.0,1
-65.0,85.0,-261.0,-44.0,18.0,-5.0,1
-64.0,88.0,-261.0,-44.0,20.0,-5.0,1
-66.0,87.0,-265.0,-44.0,19.0,-4.0,1
-65.0,88.0,-259.0,-46.0,20.0,-4.0,1
-65.0,82.0,-261.0,-45.0,19.0,-4.0,1
-64.0,86.0,-262.0,-45.0,19.0,-5.0,1
-64.0,86.0,-259.0,-44.0,21.0,-4.0,1
-65.0,86.0,-261.0,-44.0,20.0,-4.0,1
-66.0,88.0,-265.0,-45.0,19.0,-4.0,1
-64.0,86.0,-267.0,-44.0,19.0,-4.0,1
-66.0,88.0,-264.0,-44.0,20.0,-4.0,1
-61.0,87.0,-261.0,-44.0,18.0,-4.0,1
-63.0,84.0,-259.0,-44.0,19.0,-4.0,1
-63.0,87.0,-262.0,-42.0,18.0,-5.0,1
-62.0,87.0,-258.0,-43.0,17.0,-6.0,1
-66.0,87.0,-262.0,-44.0,18.0,-5.0,1
-66.0,87.0,-264.0,-43.0,17.0,-5.0,1
-65.0,89.0,-260.0,-43.0,18.0,-6.0,1
-65.0,86.0,-265.0,-41.0,18.0,-5.0,1
-63.0,88.0,-261.0,-43.0,18.0,-6.0,1
-67.0,86.0,-262.0,-43.0,18.0,-5.0,1
-61.0,85.0,-263.0,-41.0,18.0,-5.0,1
-65.0,87.0,-256.0,-42.0,17.0,-6.0,1
-62.0,82.0,-262.0,-43.0,17.0,-4.0,1
-65.0,83.0,-266.0,-43.0,17.0,-6.0,1
-67.0,93.0,-261.0,-42.0,16.0,-5.0,1
-64.0,88.0,-264.0,-43.0,18.0,-4.0,1
-67.0,87.0,-260.0,-44.0,18.0,-4.0,1
-62.0,83.0,-262.0,-44.0,17.0,-5.0,1
-65.0,85.0,-260.0,-45.0,17.0,-5.0,1
-65.0,88.0,-260.0,-45.0,18.0,-5.0,1
-66.0,88.0,-261.0,-44.0,17.0,-5.0,1
-66.0,88.0,-263.0,-46.0,17.0,-6.0,1
-66.0,88.0,-262.0,-46.0,16.0,-5.0,1
-63.0,90.0,-260.0,-45.0,16.0,-5.0,1
-63.0,87.0,-261.0,-46.0,16.0,-5.0,1
-66.0,92.0,-262.0,-45.0,16.0,-5.0,1
-68.0,90.0,-264.0,-44.0,16.0,-4.0,1
-64.0,87.0,-263.0,-45.0,16.0,-4.0,1
-64.0,88.0,-262.0,-43.0,16.0,-3.0,1
-66.0,87.0,-262.0,-42.0,16.0,-5.0,1
-65.0,88.0,-261.0,-43.0,17.0,-6.0,1
-64.0,88.0,-261.0,-42.0,18.0,-5.0,1
-65.0,86.0,-261.0,-42.0,18.0,-5.0,1
-61.0,87.0,-263.0,-42.0,18.0,-6.0,1
-65.0,91.0,-266.0,-41.0,19.0,-5.0,1
-67.0,87.0,-260.0,-43.0,17.0,-5.0,1
-62.0,85.0,-264.0,-43.0,18.0,-6.0,1
-66.0,87.0,-266.0,-43.0,18.0,-6.0,1
-65.0,90.0,-255.0,-44.0,17.0,-5.0,1
-62.0,85.0,-262.0,-48.0,18.0,-5.0,1
-63.0,89.0,-259.0,-50.0,18.0,-4.0,1
-67.0,87.0,-265.0,-50.0,19.0,-5.0,1
-65.0,86.0,-261.0,-50.0,19.0,-4.0,1
-62.0,84.0,-264.0,-49.0,21.0,-4.0,1
-69.0,86.0,-260.0,-48.0,21.0,-4.0,1
-62.0,84.0,-261.0,-46.0,23.0,-4.0,1
-66.0,88.0,-264.0,-46.0,23.0,-4.0,1
-66.0,86.0,-268.0,-46.0,25.0,-4.0,1
-65.0,87.0,-265.0,-46.0,26.0,-5.0,1
-67.0,87.0,-264.0,-47.0,26.0,-3.0,1
-66.0,92.0,-260.0,-45.0,25.0,-3.0,1
-65.0,85.0,-264.0,-46.0,25.0,-3.0,1
-66.0,87.0,-261.0,-47.0,25.0,-4.0,1
-67.0,87.0,-263.0,-46.0,24.0,-3.0,1
-65.0,88.0,-261.0,-47.0,24.0,-2.0,1
-65.0,85.0,-265.0,-47.0,25.0,-3.0,1
-65.0,88.0,-264.0,-47.0,24.0,-3.0,1
-64.0,88.0,-262.0,-45.0,23.0,-3.0,1
-62.0,84.0,-262.0,-45.0,21.0,-3.0,1
-63.0,87.0,-260.0,-46.0,21.0,-4.0,1
-64.0,87.0,-263.0,-47.0,22.0,-2.0,1
-65.0,89.0,-262.0,-45.0,20.0,-3.0,1
-64.0,86.0,-262.0,-47.0,18.0,-3.0,1
-64.0,85.0,-259.0,-47.0,18.0,-3.0,1
-66.0,90.0,-260.0,-48.0,18.0,-3.0,1
-64.0,89.0,-261.0,-46.0,17.0,-3.0,1
-65.0,88.0,-262.0,-46.0,17.0,-3.0,1
-64.0,86.0,-263.0,-48.0,16.0,-3.0,1
-62.0,89.0,-259.0,-49.0,17.0,-5.0,1
-62.0,86.0,-261.0,-47.0,18.0,-4.0,1
-64.0,87.0,-263.0,-47.0,17.0,-4.0,1
-63.0,88.0,-264.0,-47.0,17.0,-4.0,1
-66.0,86.0,-263.0,-46.0,16.0,-3.0,1
-66.0,88.0,-263.0,-45.0,18.0,-4.0,1
-64.0,89.0,-262.0,-45.0,18.0,-5.0,1
-66.0,87.0,-260.0,-44.0,18.0,-6.0,1
-64.0,87.0,-259.0,-45.0,18.0,-5.0,1
-68.0,91.0,-265.0,-46.0,16.0,-4.0,1
-61.0,85.0,-259.0,-45.0,16.0,-5.0,1
-65.0,88.0,-265.0,-45.0,17.0,-4.0,1
-63.0,91.0,-263.0,-45.0,17.0,-4.0,1
-67.0,87.0,-262.0,-45.0,18.0,-4.0,1
-63.0,88.0,-265.0,-45.0,18.0,-5.0,1
-65.0,88.0,-265.0,-45.0,18.0,-4.0,1
-63.0,88.0,-259.0,-44.0,18.0,-5.0,1
-62.0,85.0,-261.0,-44.0,19.0,-5.0,1
-63.0,87.0,-264.0,-45.0,19.0,-3.0,1
-63.0,89.0,-260.0,-45.0,18.0,-4.0,1
-66.0,89.0,-261.0,-46.0,18.0,-5.0,1
-66.0,88.0,-264.0,-45.0,17.0,-7.0,1
-64.0,86.0,-260.0,-44.0,17.0,-6.0,1
-62.0,89.0,-253.0,-44.0,16.0,-5.0,1
-63.0,89.0,-264.0,-43.0,16.0,-5.0,1
-65.0,90.0,-257.0,-45.0,16.0,-5.0,1
-63.0,86.0,-259.0,-45.0,16.0,-5.0,1
-62.0,84.0,-261.0,-47.0,16.0,-5.0,1
-64.0,86.0,-260.0,-47.0,15.0,-4.0,1
-63.0,86.0,-262.0,-48.0,14.0,-6.0,1
-63.0,90.0,-264.0,-47.0,15.0,-3.0,1
-63.0,88.0,-264.0,-48.0,14.0,-3.0,1
-66.0,87.0,-263.0,-48.0,14.0,-4.0,1
-67.0,85.0,-264.0,-49.0,15.0,-4.0,1
-64.0,86.0,-264.0,-49.0,15.0,-5.0,1
-65.0,87.0,-265.0,-49.0,15.0,-5.0,1
-67.0,87.0,-258.0,-49.0,14.0,-5.0,1
-65.0,89.0,-264.0,-50.0,14.0,-5.0,1
-65.0,85.0,-261.0,-49.0,15.0,-4.0,1
-62.0,87.0,-264.0,-48.0,14.0,-4.0,1
-65.0,87.0,-263.0,-50.0,15.0,-4.0,1
-65.0,88.0,-268.0,-50.0,16.0,-4.0,1
-64.0,85.0,-260.0,-50.0,15.0,-4.0,1
-62.0,86.0,-260.0,-50.0,16.0,-4.0,1
-65.0,85.0,-261.0,-49.0,16.0,-5.0,1
-62.0,86.0,-262.0,-48.0,16.0,-5.0,1
-62.0,88.0,-262.0,-49.0,17.0,-5.0,1
-65.0,89.0,-265.0,-49.0,16.0,-4.0,1
-66.0,87.0,-258.0,-48.0,16.0,-3.0,1
-65.0,90.0,-259.0,-47.0,17.0,-3.0,1
-64.0,88.0,-258.0,-46.0,17.0,-4.0,1
-65.0,87.0,-262.0,-48.0,16.0,-4.0,1
-64.0,86.0,-262.0,-47.0,17.0,-3.0,1
-65.0,89.0,-256.0,-47.0,18.0,-3.0,1
-64.0,88.0,-256.0,-48.0,17.0,-5.0,1
-66.0,84.0,-263.0,-48.0,16.0,-3.0,1
-63.0,87.0,-263.0,-48.0,18.0,-4.0,1
-67.0,88.0,-263.0,-49.0,18.0,-4.0,1
-65.0,89.0,-264.0,-48.0,20.0,-3.0,1
-65.0,87.0,-258.0,-46.0,19.0,-3.0,1
-64.0,89.0,-262.0,-46.0,18.0,-3.0,1
-65.0,88.0,-260.0,-47.0,18.0,-2.0,1
-64.0,86.0,-263.0,-48.0,20.0,-3.0,1
-65.0,88.0,-262.0,-49.0,19.0,-4.0,1
-64.0,91.0,-261.0,-48.0,19.0,-3.0,1
-66.0,88.0,-264.0,-47.0,19.0,-4.0,1
-65.0,91.0,-266.0,-46.0,17.0,-4.0,1
-63.0,89.0,-262.0,-46.0,19.0,-5.0,1
-62.0,87.0,-259.0,-45.0,18.0,-4.0,1
-64.0,86.0,-260.0,-46.0,18.0,-3.0,1
-67.0,89.0,-260.0,-43.0,17.0,-4.0,1
-66.0,87.0,-261.0,-44.0,18.0,-5.0,1
-64.0,86.0,-260.0,-43.0,18.0,-5.0,1
-64.0,90.0,-261.0,-44.0,17.0,-5.0,1
-61.0,88.0,-260.0,-44.0,17.0,-5.0,1
-65.0,90.0,-260.0,-45.0,18.0,-5.0,1
-65.0,90.0,-261.0,-46.0,18.0,-4.0,1
-64.0,89.0,-262.0,-48.0,19.0,-5.0,1
-63.0,86.0,-260.0,-47.0,18.0,-6.0,1
-62.0,85.0,-260.0,-47.0,18.0,-5.0,1
-64.0,87.0,-262.0,-44.0,19.0,-5.0,1
-64.0,87.0,-265.0,-45.0,18.0,-3.0,1
-65.0,88.0,-263.0,-46.0,18.0,-4.0,1
-67.0,87.0,-266.0,-47.0,18.0,-4.0,1
-66.0,88.0,-266.0,-46.0,18.0,-5.0,1
-63.0,88.0,-264.0,-47.0,18.0,-4.0,1
-64.0,88.0,-260.0,-47.0,17.0,-3.0,1
-64.0,87.0,-261.0,-49.0,16.0,-4.0,1
-61.0,88.0,-262.0,-48.0,16.0,-5.0,1
-65.0,90.0,-265.0,-47.0,15.0,-5.0,1
-66.0,87.0,-262.0,-47.0,13.0,-4.0,1
-65.0,88.0,-260.0,-48.0,15.0,-5.0,1
-66.0,88.0,-263.0,-48.0,15.0,-3.0,1
-66.0,86.0,-262.0,-49.0,16.0,-4.0,1
-65.0,86.0,-259.0,-46.0,16.0,-5.0,1
-62.0,88.0,-260.0,-45.0,16.0,-5.0,1
-63.0,89.0,-266.0,-45.0,16.0,-6.0,1
-66.0,86.0,-261.0,-45.0,15.0,-4.0,1
-63.0,87.0,-269.0,-44.0,14.0,-5.0,1
-65.0,90.0,-260.0,-44.0,15.0,-5.0,1
-65.0,87.0,-263.0,-44.0,15.0,-5.0,1
-68.0,88.0,-261.0,-44.0,16.0,-5.0,1
-65.0,89.0,-260.0,-45.0,16.0,-4.0,1
-65.0,87.0,-260.0,-46.0,16.0,-5.0,1
-67.0,89.0,-256.0,-48.0,16.0,-3.0,1
-65.0,86.0,-254.0,-50.0,16.0,-5.0,1
-66.0,89.0,-259.0,-51.0,14.0,-5.0,1
-64.0,88.0,-263.0,-51.0,16.0,-4.0,1
-64.0,87.0,-259.0,-52.0,16.0,-4.0,1
-61.0,86.0,-264.0,-50.0,16.0,-4.0,1
-64.0,84.0,-262.0,-49.0,17.0,-3.0,1
-64.0,87.0,-265.0,-48.0,18.0,-3.0,1
-62.0,86.0,-260.0,-48.0,20.0,-3.0,1
-65.0,84.0,-266.0,-49.0,21.0,-2.0,1
-64.0,88.0,-262.0,-49.0,22.0,-4.0,1
-64.0,85.0,-262.0,-48.0,21.0,-3.0,1
-62.0,87.0,-261.0,-47.0,22.0,-3.0,1
-65.0,87.0,-267.0,-47.0,23.0,-3.0,1
-66.0,87.0,-261.0,-47.0,23.0,-3.0,1
-66.0,88.0,-265.0,-47.0,22.0,-4.0,1
-62.0,85.0,-259.0,-47.0,22.0,-3.0,1
-64.0,86.0,-263.0,-46.0,22.0,-5.0,1
-63.0,87.0,-261.0,-47.0,22.0,-4.0,1
-68.0,87.0,-261.0,-45.0,20.0,-3.0,1
-64.0,87.0,-262.0,-46.0,20.0,-4.0,1
-64.0,87.0,-261.0,-47.0,19.0,-4.0,1
-63.0,89.0,-263.0,-46.0,17.0,-4.0,1
-65.0,88.0,-263.0,-47.0,17.0,-4.0,1
-66.0,89.0,-262.0,-45.0,16.0,-4.0,1
-63.0,88.0,-267.0,-46.0,18.0,-4.0,1
-65.0,87.0,-262.0,-47.0,17.0,-4.0,1
-67.0,90.0,-261.0,-47.0,17.0,-3.0,1
-66.0,87.0,-262.0,-47.0,16.0,-4.0,1
-65.0,86.0,-260.0,-48.0,17.0,-4.0,1
-65.0,89.0,-264.0,-47.0,16.0,-3.0,1
-67.0,88.0,-264.0,-47.0,16.0,-4.0,1
-64.0,89.0,-258.0,-47.0,16.0,-4.0,1
-65.0,87.0,-261.0,-46.0,18.0,-3.0,1
-63.0,86.0,-258.0,-47.0,18.0,-4.0,1
-64.0,88.0,-261.0,-46.0,18.0,-4.0,1
-63.0,87.0,-265.0,-46.0,17.0,-6.0,1
-62.0,89.0,-258.0,-45.0,18.0,-4.0,1
-65.0,86.0,-264.0,-45.0,18.0,-5.0,1
-65.0,89.0,-265.0,-46.0,17.0,-5.0,1
-68.0,90.0,-259.0,-45.0,16.0,-4.0,1
-65.0,89.0,-261.0,-43.0,17.0,-4.0,1
-64.0,88.0,-258.0,-45.0,18.0,-5.0,1
-64.0,89.0,-262.0,-45.0,18.0,-5.0,1
-63.0,89.0,-263.0,-46.0,18.0,-4.0,1
-63.0,86.0,-262.0,-43.0,18.0,-4.0,1
-64.0,85.0,-261.0,-44.0,18.0,-5.0,1
-65.0,87.0,-264.0,-44.0,18.0,-4.0,1
-64.0,90.0,-263.0,-46.0,16.0,-5.0,1
-65.0,88.0,-262.0,-47.0,16.0,-4.0,1
-64.0,86.0,-261.0,-46.0,17.0,-4.0,1
-66.0,89.0,-261.0,-45.0,17.0,-4.0,1
-65.0,86.0,-265.0,-44.0,16.0,-5.0,1
-64.0,85.0,-263.0,-43.0,16.0,-5.0,1
-64.0,88.0,-262.0,-45.0,16.0,-5.0,1
-62.0,86.0,-265.0,-44.0,16.0,-4.0,1
-63.0,88.0,-260.0,-44.0,14.0,-6.0,1
-65.0,88.0,-264.0,-46.0,15.0,-5.0,1
-63.0,90.0,-262.0,-46.0,14.0,-4.0,1
-66.0,87.0,-258.0,-46.0,15.0,-5.0,1
-66.0,82.0,-263.0,-47.0,13.0,-5.0,1
-64.0,89.0,-261.0,-47.0,14.0,-6.0,1
-64.0,89.0,-260.0,-47.0,13.0,-4.0,1
-64.0,84.0,-262.0,-49.0,14.0,-4.0,1
-65.0,88.0,-259.0,-48.0,14.0,-4.0,1
-65.0,88.0,-261.0,-49.0,14.0,-3.0,1
-64.0,87.0,-264.0,-48.0,13.0,-3.0,1
-63.0,88.0,-260.0,-48.0,13.0,-4.0,1
-61.0,87.0,-261.0,-50.0,14.0,-4.0,1
-63.0,89.0,-264.0,-49.0,14.0,-4.0,1
-64.0,86.0,-261.0,-50.0,12.0,-3.0,1
-62.0,86.0,-263.0,-51.0,14.0,-4.0,1
-63.0,86.0,-262.0,-50.0,15.0,-3.0,1
-66.0,89.0,-260.0,-49.0,15.0,-3.0,1
-64.0,88.0,-263.0,-50.0,15.0,-3.0,1
-65.0,87.0,-258.0,-50.0,16.0,-3.0,1
-62.0,89.0,-265.0,-49.0,16.0,-3.0,1
-65.0,87.0,-258.0,-47.0,17.0,-4.0,1
-60.0,85.0,-260.0,-46.0,18.0,-4.0,1
-61.0,88.0,-263.0,-48.0,18.0,-4.0,1
-61.0,86.0,-260.0,-47.0,17.0,-4.0,1
-65.0,94.0,-261.0,-47.0,18.0,-4.0,1
-65.0,83.0,-265.0,-48.0,19.0,-3.0,1
-65.0,88.0,-262.0,-48.0,18.0,-4.0,1
-64.0,87.0,-256.0,-47.0,20.0,-3.0,1
-67.0,91.0,-264.0,-45.0,19.0,-3.0,1
-64.0,88.0,-261.0,-47.0,18.0,-4.0,1
-65.0,88.0,-263.0,-47.0,18.0,-3.0,1
-65.0,87.0,-263.0,-48.0,18.0,-4.0,1
-65.0,86.0,-261.0,-47.0,18.0,-5.0,1
-62.0,86.0,-267.0,-47.0,19.0,-5.0,1
-62.0,87.0,-260.0,-47.0,18.0,-5.0,1
-66.0,90.0,-264.0,-48.0,18.0,-6.0,1
-64.0,87.0,-269.0,-47.0,18.0,-5.0,1
-67.0,88.0,-260.0,-46.0,18.0,-4.0,1
-65.0,85.0,-265.0,-47.0,17.0,-4.0,1
-65.0,85.0,-264.0,-46.0,17.0,-4.0,1
-66.0,88.0,-263.0,-46.0,18.0,-4.0,1
-62.0,88.0,-262.0,-46.0,18.0,-4.0,1
-63.0,90.0,-267.0,-47.0,17.0,-5.0,1
-65.0,89.0,-259.0,-46.0,17.0,-5.0,1
-65.0,88.0,-261.0,-48.0,16.0,-6.0,1
-64.0,89.0,-262.0,-47.0,15.0,-5.0,1
-63.0,88.0,-264.0,-46.0,17.0,-6.0,1
-63.0,92.0,-267.0,-46.0,16.0,-5.0,1
-64.0,88.0,-265.0,-46.0,16.0,-3.0,1
-64.0,89.0,-262.0,-46.0,16.0,-4.0,1
-64.0,86.0,-259.0,-46.0,16.0,-4.0,1
-66.0,89.0,-261.0,-46.0,16.0,-5.0,1
-65.0,86.0,-257.0,-46.0,15.0,-4.0,1
-65.0,86.0,-262.0,-47.0,15.0,-3.0,1
-64.0,92.0,-258.0,-46.0,16.0,-4.0,1
-64.0,86.0,-262.0,-46.0,16.0,-4.0,1
-61.0,88.0,-261.0,-46.0,15.0,-5.0,1
-65.0,88.0,-263.0,-47.0,16.0,-5.0,1
-66.0,88.0,-262.0,-46.0,15.0,-5.0,1
-63.0,87.0,-260.0,-47.0,15.0,-5.0,1
-64.0,88.0,-263.0,-45.0,15.0,-3.0,1
-65.0,89.0,-262.0,-47.0,15.0,-5.0,1
-64.0,89.0,-263.0,-46.0,17.0,-4.0,1
-63.0,90.0,-265.0,-46.0,16.0,-4.0,1
-63.0,89.0,-260.0,-46.0,17.0,-6.0,1
-64.0,86.0,-262.0,-47.0,16.0,-5.0,1
-65.0,87.0,-258.0,-45.0,14.0,-5.0,1
-64.0,85.0,-262.0,-46.0,15.0,-4.0,1
-65.0,88.0,-260.0,-47.0,14.0,-6.0,1
-65.0,86.0,-259.0,-46.0,15.0,-5.0,1
-65.0,88.0,-257.0,-47.0,14.0,-4.0,1
-62.0,88.0,-260.0,-47.0,16.0,-5.0,1
-66.0,88.0,-260.0,-47.0,15.0,-5.0,1
-67.0,88.0,-258.0,-47.0,14.0,-5.0,1
-66.0,88.0,-260.0,-47.0,16.0,-4.0,1
-62.0,85.0,-263.0,-47.0,16.0,-4.0,1
-64.0,90.0,-259.0,-47.0,15.0,-5.0,1
-61.0,89.0,-260.0,-47.0,16.0,-6.0,1
-65.0,87.0,-261.0,-48.0,16.0,-5.0,1
-61.0,89.0,-260.0,-47.0,16.0,-4.0,1
-65.0,89.0,-261.0,-46.0,15.0,-5.0,1
-65.0,85.0,-263.0,-48.0,16.0,-4.0,1
-63.0,88.0,-261.0,-49.0,16.0,-4.0,1
-65.0,89.0,-263.0,-48.0,17.0,-5.0,1
-65.0,88.0,-261.0,-49.0,17.0,-5.0,1
-66.0,89.0,-259.0,-49.0,17.0,-4.0,1
-67.0,86.0,-262.0,-49.0,17.0,-4.0,1
-63.0,85.0,-260.0,-49.0,16.0,-5.0,1
-66.0,89.0,-263.0,-48.0,17.0,-6.0,1
-66.0,87.0,-263.0,-46.0,17.0,-5.0,1
-65.0,86.0,-262.0,-47.0,18.0,-4.0,1
-63.0,87.0,-262.0,-46.0,19.0,-5.0,1
-66.0,88.0,-262.0,-45.0,19.0,-5.0,1
-64.0,90.0,-262.0,-44.0,18.0,-5.0,1
-67.0,87.0,-262.0,-45.0,19.0,-5.0,1
-66.0,89.0,-261.0,-44.0,21.0,-5.0,1
-63.0,87.0,-263.0,-44.0,22.0,-4.0,1
-63.0,86.0,-264.0,-42.0,19.0,-4.0,1
-62.0,88.0,-259.0,-41.0,20.0,-4.0,1
-65.0,89.0,-260.0,-44.0,19.0,-4.0,1
-64.0,88.0,-258.0,-45.0,20.0,-4.0,1
-60.0,89.0,-255.0,-47.0,19.0,-3.0,1
-63.0,88.0,-263.0,-48.0,18.0,-2.0,1
-64.0,86.0,-259.0,-49.0,17.0,-3.0,1
-65.0,89.0,-258.0,-51.0,17.0,-2.0,1
-64.0,88.0,-258.0,-50.0,18.0,-2.0,1
-62.0,87.0,-261.0,-51.0,17.0,-3.0,1
-66.0,87.0,-260.0,-50.0,17.0,-3.0,1
-66.0,85.0,-263.0,-50.0,19.0,-4.0,1
-66.0,89.0,-264.0,-49.0,19.0,-4.0,1
-64.0,89.0,-265.0,-50.0,19.0,-3.0,1
-62.0,89.0,-264.0,-51.0,20.0,-3.0,1
-65.0,85.0,-267.0,-49.0,20.0,-4.0,1
-64.0,87.0,-263.0,-49.0,21.0,-4.0,1
-65.0,90.0,-261.0,-47.0,20.0,-4.0,1
-66.0,89.0,-265.0,-48.0,20.0,-5.0,1
-67.0,92.0,-263.0,-48.0,18.0,-4.0,1
-65.0,88.0,-260.0,-49.0,20.0,-4.0,1
-66.0,87.0,-265.0,-48.0,20.0,-4.0,1
-61.0,87.0,-264.0,-47.0,19.0,-4.0,1
-65.0,87.0,-265.0,-46.0,18.0,-5.0,1
-66.0,89.0,-259.0,-45.0,16.0,-4.0,1
-62.0,92.0,-267.0,-46.0,16.0,-4.0,1
-68.0,85.0,-258.0,-46.0,15.0,-6.0,1
-62.0,87.0,-262.0,-46.0,15.0,-5.0,1
-66.0,87.0,-259.0,-46.0,16.0,-4.0,1
-67.0,86.0,-265.0,-47.0,16.0,-4.0,1
-65.0,87.0,-262.0,-48.0,16.0,-4.0,1
-66.0,89.0,-259.0,-47.0,15.0,-4.0,1
-64.0,88.0,-260.0,-47.0,15.0,-4.0,1
-64.0,88.0,-259.0,-48.0,16.0,-4.0,1
-63.0,86.0,-261.0,-48.0,16.0,-5.0,1
-67.0,87.0,-262.0,-48.0,17.0,-4.0,1
-66.0,88.0,-259.0,-48.0,16.0,-4.0,1
-65.0,89.0,-253.0,-47.0,17.0,-4.0,1
-64.0,89.0,-260.0,-46.0,16.0,-4.0,1
-62.0,88.0,-259.0,-45.0,16.0,-4.0,1
-65.0,88.0,-257.0,-43.0,17.0,-5.0,1
-67.0,89.0,-260.0,-45.0,18.0,-4.0,1
-65.0,87.0,-263.0,-44.0,17.0,-5.0,1
-63.0,89.0,-261.0,-45.0,16.0,-5.0,1
-65.0,89.0,-260.0,-44.0,17.0,-5.0,1
-63.0,88.0,-261.0,-43.0,18.0,-5.0,1
-65.0,87.0,-264.0,-45.0,18.0,-5.0,1
-62.0,89.0,-260.0,-45.0,18.0,-5.0,1
-65.0,87.0,-256.0,-45.0,17.0,-3.0,1
-63.0,86.0,-263.0,-46.0,19.0,-4.0,1
-64.0,91.0,-263.0,-44.0,18.0,-7.0,1
-62.0,84.0,-264.0,-44.0,18.0,-5.0,1
-63.0,90.0,-264.0,-44.0,18.0,-5.0,1
-65.0,88.0,-259.0,-45.0,18.0,-6.0,1
-63.0,86.0,-259.0,-47.0,17.0,-4.0,1
-63.0,87.0,-260.0,-47.0,18.0,-5.0,1
-62.0,89.0,-264.0,-47.0,18.0,-5.0,1
-62.0,87.0,-261.0,-46.0,17.0,-6.0,1
-65.0,86.0,-265.0,-44.0,17.0,-6.0,1
-67.0,86.0,-260.0,-45.0,16.0,-5.0,1
-64.0,87.0,-264.0,-45.0,15.0,-4.0,1
-61.0,90.0,-261.0,-45.0,15.0,-4.0,1
-68.0,88.0,-261.0,-44.0,15.0,-4.0,1
-65.0,89.0,-260.0,-46.0,13.0,-4.0,1
-63.0,90.0,-261.0,-47.0,12.0,-5.0,1
-63.0,86.0,-260.0,-47.0,12.0,-5.0,1
-68.0,86.0,-267.0,-48.0,11.0,-4.0,1
-63.0,84.0,-265.0,-48.0,12.0,-6.0,1
-66.0,89.0,-261.0,-47.0,13.0,-6.0,1
-62.0,83.0,-259.0,-49.0,14.0,-5.0,1
-70.0,93.0,-260.0,-50.0,12.0,-4.0,1
-64.0,89.0,-264.0,-50.0,13.0,-4.0,1
-61.0,87.0,-261.0,-50.0,13.0,-5.0,1
-65.0,88.0,-259.0,-52.0,12.0,-4.0,1
-63.0,86.0,-262.0,-49.0,13.0,-2.0,1
-63.0,86.0,-262.0,-50.0,14.0,-3.0,1
-65.0,86.0,-263.0,-50.0,14.0,-4.0,1
-64.0,86.0,-262.0,-49.0,15.0,-4.0,1
-64.0,87.0,-266.0,-49.0,15.0,-3.0,1
-65.0,86.0,-260.0,-48.0,15.0,-4.0,1
-63.0,91.0,-262.0,-47.0,15.0,-4.0,1
-64.0,88.0,-262.0,-48.0,15.0,-3.0,1
-63.0,89.0,-264.0,-47.0,16.0,-5.0,1
-66.0,88.0,-260.0,-46.0,17.0,-5.0,1
-63.0,87.0,-261.0,-48.0,17.0,-4.0,1
-64.0,85.0,-263.0,-49.0,17.0,-4.0,1
-66.0,90.0,-259.0,-47.0,16.0,-5.0,1
-66.0,87.0,-261.0,-47.0,17.0,-5.0,1
-66.0,87.0,-259.0,-47.0,17.0,-5.0,1
-65.0,88.0,-259.0,-47.0,18.0,-4.0,1
-65.0,88.0,-261.0,-47.0,18.0,-3.0,1
-62.0,83.0,-263.0,-48.0,19.0,-3.0,1
-61.0,89.0,-261.0,-47.0,18.0,-4.0,1
-64.0,90.0,-263.0,-47.0,18.0,-4.0,1
-65.0,90.0,-262.0,-47.0,18.0,-3.0,1
-64.0,89.0,-264.0,-48.0,18.0,-5.0,1
-65.0,91.0,-259.0,-47.0,19.0,-5.0,1
-65.0,87.0,-264.0,-46.0,18.0,-4.0,1
-65.0,90.0,-263.0,-46.0,19.0,-3.0,1
-63.0,89.0,-259.0,-47.0,18.0,-5.0,1
-65.0,88.0,-260.0,-47.0,17.0,-4.0,1
-65.0,85.0,-261.0,-46.0,16.0,-5.0,1
-63.0,86.0,-265.0,-46.0,17.0,-4.0,1
-63.0,87.0,-259.0,-46.0,16.0,-4.0,1
-67.0,89.0,-264.0,-46.0,17.0,-4.0,1
-64.0,88.0,-258.0,-46.0,17.0,-4.0,1
-66.0,89.0,-260.0,-46.0,15.0,-5.0,1
-64.0,85.0,-263.0,-46.0,16.0,-4.0,1
-63.0,87.0,-263.0,-46.0,16.0,-4.0,1
-67.0,87.0,-263.0,-46.0,16.0,-4.0,1
-63.0,90.0,-263.0,-45.0,15.0,-5.0,1
-65.0,88.0,-261.0,-46.0,15.0,-5.0,1
-62.0,87.0,-263.0,-45.0,15.0,-5.0,1
-71.0,93.0,-261.0,-47.0,15.0,-5.0,1
-64.0,88.0,-262.0,-46.0,15.0,-6.0,1
-64.0,86.0,-261.0,-47.0,14.0,-5.0,1
-62.0,84.0,-262.0,-48.0,15.0,-5.0,1
-63.0,89.0,-265.0,-45.0,15.0,-5.0,1
-66.0,89.0,-261.0,-45.0,15.0,-4.0,1
-62.0,87.0,-259.0,-48.0,13.0,-5.0,1
-64.0,86.0,-262.0,-47.0,14.0,-4.0,1
-64.0,89.0,-261.0,-46.0,14.0,-5.0,1
-61.0,86.0,-262.0,-47.0,14.0,-5.0,1
-66.0,89.0,-259.0,-46.0,15.0,-5.0,1
-67.0,80.0,-257.0,-47.0,15.0,-4.0,1
-66.0,88.0,-264.0,-47.0,15.0,-4.0,1
-65.0,91.0,-267.0,-47.0,14.0,-5.0,1
-66.0,92.0,-263.0,-46.0,15.0,-5.0,1
-65.0,87.0,-262.0,-48.0,16.0,-6.0,1
-67.0,89.0,-263.0,-47.0,14.0,-4.0,1
-63.0,86.0,-261.0,-48.0,14.0,-4.0,1
-64.0,89.0,-260.0,-47.0,13.0,-5.0,1
-64.0,87.0,-259.0,-46.0,15.0,-5.0,1
-63.0,86.0,-260.0,-47.0,14.0,-5.0,1
-63.0,87.0,-262.0,-48.0,14.0,-3.0,1
-64.0,91.0,-266.0,-46.0,16.0,-3.0,1
-66.0,87.0,-265.0,-48.0,17.0,-4.0,1
-66.0,88.0,-263.0,-47.0,16.0,-5.0,1
-64.0,88.0,-262.0,-47.0,17.0,-3.0,1
-65.0,90.0,-259.0,-48.0,17.0,-4.0,1
-65.0,91.0,-262.0,-47.0,17.0,-4.0,1
-66.0,88.0,-261.0,-48.0,18.0,-4.0,1
-66.0,92.0,-266.0,-47.0,17.0,-4.0,1
