ax,ay,az,gx,gy,gz,label
5.0,-252.0,8.0,-51.0,18.0,-12.0,1
7.0,-251.0,5.0,-48.0,15.0,-13.0,1
4.0,-251.0,9.0,-46.0,14.0,-13.0,1
5.0,-249.0,8.0,-45.0,15.0,-14.0,1
4.0,-249.0,9.0,-43.0,15.0,-14.0,1
3.0,-251.0,8.0,-41.0,16.0,-15.0,1
1.0,-249.0,10.0,-41.0,16.0,-15.0,1
1.0,-248.0,10.0,-40.0,18.0,-15.0,1
9.0,-248.0,10.0,-39.0,17.0,-14.0,1
5.0,-248.0,11.0,-41.0,17.0,-13.0,1
4.0,-245.0,13.0,-42.0,18.0,-11.0,1
6.0,-249.0,8.0,-44.0,17.0,-11.0,1
4.0,-248.0,8.0,-45.0,16.0,-11.0,1
3.0,-250.0,11.0,-47.0,16.0,-11.0,1
4.0,-249.0,9.0,-47.0,15.0,-10.0,1
0.0,-257.0,12.0,-48.0,15.0,-9.0,1
7.0,-249.0,9.0,-48.0,14.0,-8.0,1
4.0,-249.0,7.0,-46.0,13.0,-8.0,1
4.0,-251.0,9.0,-45.0,13.0,-9.0,1
6.0,-250.0,10.0,-44.0,14.0,-8.0,1
6.0,-252.0,10.0,-44.0,10.0,-8.0,1
3.0,-250.0,9.0,-43.0,8.0,-8.0,1
2.0,-251.0,8.0,-41.0,8.0,-7.0,1
5.0,-252.0,10.0,-43.0,7.0,-6.0,1
3.0,-252.0,8.0,-44.0,6.0,-6.0,1
4.0,-250.0,8.0,-46.0,7.0,-5.0,1
3.0,-250.0,11.0,-46.0,6.0,-6.0,1
3.0,-249.0,9.0,-47.0,8.0,-6.0,1
6.0,-249.0,8.0,-49.0,8.0,-7.0,1
5.0,-250.0,8.0,-52.0,10.0,-6.0,1
6.0,-252.0,9.0,-54.0,9.0,-5.0,1
5.0,-249.0,10.0,-57.0,9.0,-6.0,1
8.0,-250.0,8.0,-59.0,10.0,-5.0,1
6.0,-250.0,9.0,-59.0,9.0,-6.0,1
4.0,-249.0,10.0,-63.0,8.0,-5.0,1
5.0,-248.0,11.0,-67.0,7.0,-6.0,1
5.0,-248.0,10.0,-74.0,8.0,-6.0,1
5.0,-252.0,8.0,-80.0,11.0,-8.0,1
5.0,-252.0,9.0,-86.0,17.0,-11.0,1
3.0,-253.0,7.0,-89.0,24.0,-11.0,1
4.0,-256.0,6.0,-94.0,32.0,-13.0,1
6.0,-255.0,8.0,-95.0,38.0,-13.0,1
8.0,-255.0,9.0,-95.0,40.0,-12.0,1
7.0,-253.0,10.0,-93.0,40.0,-12.0,1
6.0,-256.0,7.0,-91.0,35.0,-10.0,1
8.0,-254.0,8.0,-91.0,31.0,-10.0,1
8.0,-250.0,10.0,-89.0,25.0,-9.0,1
8.0,-250.0,8.0,-87.0,23.0,-11.0,1
10.0,-251.0,10.0,-84.0,22.0,-13.0,1
10.0,-250.0,11.0,-83.0,26.0,-14.0,1
10.0,-251.0,11.0,-82.0,28.0,-15.0,1
10.0,-248.0,12.0,-79.0,30.0,-16.0,1
10.0,-248.0,10.0,-78.0,33.0,-17.0,1
11.0,-248.0,11.0,-76.0,34.0,-19.0,1
11.0,-247.0,10.0,-76.0,35.0,-19.0,1
11.0,-246.0,10.0,-81.0,37.0,-20.0,1
13.0,-246.0,10.0,-87.0,39.0,-20.0,1
12.0,-246.0,11.0,-94.0,41.0,-22.0,1
13.0,-247.0,10.0,-100.0,42.0,-25.0,1
4.0,-245.0,8.0,-105.0,44.0,-27.0,1
12.0,-246.0,15.0,-107.0,46.0,-32.0,1
10.0,-247.0,15.0,-109.0,48.0,-33.0,1
12.0,-249.0,13.0,-108.0,47.0,-35.0,1
9.0,-248.0,12.0,-108.0,46.0,-36.0,1
8.0,-248.0,12.0,-110.0,44.0,-37.0,1
8.0,-250.0,13.0,-112.0,44.0,-38.0,1
8.0,-249.0,9.0,-114.0,43.0,-43.0,1
7.0,-250.0,13.0,-118.0,45.0,-44.0,1
10.0,-249.0,12.0,-124.0,48.0,-47.0,1
11.0,-249.0,8.0,-130.0,52.0,-49.0,1
10.0,-250.0,7.0,-135.0,56.0,-51.0,1
14.0,-250.0,10.0,-137.0,58.0,-53.0,1
14.0,-249.0,10.0,-137.0,66.0,-56.0,1
14.0,-249.0,8.0,-134.0,70.0,-56.0,1
13.0,-248.0,9.0,-130.0,72.0,-56.0,1
13.0,-248.0,4.0,-127.0,75.0,-55.0,1
15.0,-250.0,8.0,-126.0,75.0,-53.0,1
16.0,-250.0,10.0,-127.0,73.0,-53.0,1
18.0,-248.0,7.0,-129.0,69.0,-54.0,1
17.0,-251.0,10.0,-131.0,66.0,-55.0,1
14.0,-254.0,15.0,-140.0,62.0,-59.0,1
15.0,-251.0,10.0,-149.0,57.0,-63.0,1
14.0,-253.0,11.0,-158.0,53.0,-66.0,1
12.0,-252.0,12.0,-165.0,49.0,-72.0,1
14.0,-252.0,10.0,-172.0,47.0,-79.0,1
11.0,-251.0,10.0,-177.0,45.0,-85.0,1
16.0,-254.0,6.0,-181.0,44.0,-88.0,1
17.0,-251.0,10.0,-187.0,49.0,-93.0,1
16.0,-253.0,8.0,-193.0,56.0,-95.0,1
18.0,-252.0,3.0,-197.0,67.0,-98.0,1
17.0,-249.0,0.0,-202.0,80.0,-99.0,1
17.0,-250.0,3.0,-208.0,96.0,-99.0,1
19.0,-247.0,-4.0,-212.0,111.0,-99.0,1
19.0,-243.0,-6.0,-217.0,124.0,-94.0,1
16.0,-245.0,-1.0,-218.0,138.0,-90.0,1
21.0,-240.0,0.0,-217.0,149.0,-83.0,1
19.0,-241.0,5.0,-212.0,157.0,-74.0,1
19.0,-237.0,9.0,-203.0,162.0,-63.0,1
20.0,-237.0,11.0,-194.0,163.0,-50.0,1
19.0,-234.0,19.0,-185.0,157.0,-34.0,1
14.0,-234.0,20.0,-174.0,147.0,-19.0,1
12.0,-234.0,28.0,-164.0,134.0,2.0,1
11.0,-234.0,27.0,-159.0,119.0,20.0,1
6.0,-231.0,31.0,-160.0,104.0,43.0,1
6.0,-231.0,25.0,-160.0,90.0,63.0,1
5.0,-234.0,23.0,-163.0,77.0,81.0,1
2.0,-233.0,25.0,-167.0,66.0,98.0,1
4.0,-235.0,25.0,-176.0,59.0,113.0,1
-2.0,-235.0,25.0,-183.0,54.0,127.0,1
-1.0,-237.0,25.0,-190.0,48.0,140.0,1
-2.0,-237.0,26.0,-194.0,38.0,154.0,1
-5.0,-236.0,24.0,-197.0,28.0,165.0,1
-10.0,-237.0,24.0,-200.0,17.0,176.0,1
-11.0,-241.0,22.0,-208.0,5.0,189.0,1
-6.0,-243.0,17.0,-216.0,-4.0,199.0,1
-5.0,-246.0,10.0,-228.0,-13.0,206.0,1
-5.0,-248.0,11.0,-244.0,-14.0,212.0,1
-3.0,-250.0,4.0,-259.0,-12.0,217.0,1
2.0,-250.0,8.0,-275.0,-7.0,218.0,1
2.0,-254.0,-2.0,-285.0,-2.0,220.0,1
5.0,-254.0,-4.0,-293.0,5.0,220.0,1
5.0,-257.0,-2.0,-302.0,9.0,221.0,1
5.0,-258.0,0.0,-310.0,9.0,224.0,1
4.0,-258.0,0.0,-318.0,7.0,225.0,1
5.0,-260.0,-4.0,-325.0,3.0,227.0,1
3.0,-259.0,1.0,-327.0,-1.0,229.0,1
4.0,-261.0,-1.0,-328.0,-3.0,233.0,1
2.0,-260.0,1.0,-326.0,-9.0,235.0,1
0.0,-260.0,0.0,-324.0,-19.0,238.0,1
-3.0,-262.0,-5.0,-319.0,-28.0,243.0,1
-9.0,-260.0,-6.0,-315.0,-43.0,252.0,1
-13.0,-259.0,-5.0,-315.0,-61.0,263.0,1
-16.0,-258.0,-10.0,-319.0,-83.0,274.0,1
-23.0,-253.0,-10.0,-322.0,-110.0,289.0,1
-27.0,-251.0,-14.0,-327.0,-139.0,304.0,1
-33.0,-247.0,-18.0,-332.0,-173.0,320.0,1
-34.0,-245.0,-24.0,-333.0,-212.0,333.0,1
-37.0,-241.0,-28.0,-336.0,-256.0,347.0,1
-37.0,-235.0,-29.0,-335.0,-305.0,355.0,1
-39.0,-229.0,-31.0,-331.0,-360.0,360.0,1
-46.0,-224.0,-33.0,-327.0,-421.0,361.0,1
-50.0,-219.0,-29.0,-319.0,-485.0,357.0,1
-51.0,-217.0,-25.0,-307.0,-551.0,346.0,1
-56.0,-211.0,-24.0,-294.0,-616.0,333.0,1
-60.0,-206.0,-18.0,-280.0,-675.0,317.0,1
-59.0,-201.0,-5.0,-263.0,-731.0,295.0,1
-57.0,-194.0,1.0,-235.0,-780.0,265.0,1
-51.0,-198.0,10.0,-210.0,-820.0,234.0,1
-52.0,-196.0,18.0,-185.0,-848.0,195.0,1
-42.0,-197.0,23.0,-163.0,-862.0,154.0,1
-43.0,-202.0,20.0,-142.0,-863.0,112.0,1
-36.0,-206.0,29.0,-128.0,-852.0,74.0,1
-33.0,-213.0,25.0,-121.0,-830.0,38.0,1
-22.0,-223.0,30.0,-122.0,-798.0,0.0,1
-16.0,-231.0,25.0,-134.0,-764.0,-37.0,1
-15.0,-239.0,21.0,-160.0,-725.0,-67.0,1
-10.0,-247.0,17.0,-200.0,-687.0,-95.0,1
-3.0,-253.0,8.0,-252.0,-648.0,-113.0,1
5.0,-267.0,8.0,-315.0,-603.0,-116.0,1
12.0,-274.0,9.0,-382.0,-561.0,-107.0,1
15.0,-284.0,10.0,-435.0,-526.0,-98.0,1
20.0,-295.0,15.0,-465.0,-499.0,-83.0,1
24.0,-303.0,17.0,-479.0,-476.0,-57.0,1
30.0,-307.0,21.0,-484.0,-454.0,-24.0,1
31.0,-309.0,31.0,-475.0,-436.0,11.0,1
38.0,-313.0,30.0,-451.0,-418.0,43.0,1
34.0,-314.0,35.0,-416.0,-407.0,79.0,1
32.0,-313.0,41.0,-377.0,-396.0,114.0,1
33.0,-307.0,44.0,-335.0,-390.0,144.0,1
20.0,-310.0,39.0,-292.0,-386.0,165.0,1
14.0,-299.0,39.0,-249.0,-381.0,186.0,1
8.0,-291.0,37.0,-209.0,-374.0,202.0,1
4.0,-282.0,30.0,-172.0,-366.0,215.0,1
-4.0,-274.0,24.0,-143.0,-358.0,227.0,1
-16.0,-260.0,24.0,-115.0,-348.0,238.0,1
-18.0,-256.0,20.0,-98.0,-340.0,245.0,1
-27.0,-243.0,19.0,-92.0,-332.0,252.0,1
-35.0,-236.0,16.0,-91.0,-326.0,255.0,1
-39.0,-230.0,11.0,-100.0,-320.0,254.0,1
-47.0,-217.0,13.0,-112.0,-312.0,254.0,1
-50.0,-215.0,12.0,-126.0,-307.0,257.0,1
-50.0,-213.0,8.0,-144.0,-303.0,257.0,1
-54.0,-210.0,6.0,-160.0,-300.0,253.0,1
-57.0,-204.0,8.0,-178.0,-296.0,248.0,1
-59.0,-206.0,9.0,-200.0,-291.0,241.0,1
-56.0,-203.0,5.0,-221.0,-284.0,236.0,1
-52.0,-206.0,7.0,-239.0,-273.0,230.0,1
-43.0,-211.0,10.0,-258.0,-259.0,220.0,1
-34.0,-213.0,8.0,-270.0,-244.0,208.0,1
-30.0,-224.0,14.0,-280.0,-224.0,190.0,1
-26.0,-222.0,12.0,-286.0,-202.0,171.0,1
-19.0,-224.0,13.0,-285.0,-181.0,150.0,1
-18.0,-228.0,11.0,-284.0,-161.0,123.0,1
-16.0,-231.0,9.0,-276.0,-146.0,103.0,1
-15.0,-237.0,11.0,-268.0,-133.0,87.0,1
-14.0,-241.0,9.0,-258.0,-120.0,75.0,1
-13.0,-248.0,6.0,-248.0,-111.0,64.0,1
-9.0,-249.0,8.0,-241.0,-103.0,54.0,1
-14.0,-249.0,9.0,-238.0,-92.0,50.0,1
-12.0,-251.0,11.0,-229.0,-79.0,49.0,1
-11.0,-250.0,8.0,-220.0,-70.0,48.0,1
-14.0,-249.0,11.0,-214.0,-62.0,42.0,1
-10.0,-251.0,9.0,-209.0,-50.0,40.0,1
-10.0,-249.0,14.0,-204.0,-40.0,37.0,1
-14.0,-248.0,18.0,-196.0,-29.0,31.0,1
-13.0,-249.0,20.0,-187.0,-20.0,26.0,1
-15.0,-248.0,23.0,-169.0,-13.0,17.0,1
-19.0,-247.0,28.0,-150.0,-8.0,2.0,1
-24.0,-246.0,28.0,-128.0,-3.0,-14.0,1
-32.0,-239.0,31.0,-108.0,2.0,-30.0,1
-35.0,-240.0,33.0,-90.0,11.0,-43.0,1
-41.0,-234.0,31.0,-77.0,23.0,-58.0,1
-53.0,-233.0,25.0,-71.0,43.0,-68.0,1
-52.0,-235.0,26.0,-71.0,69.0,-76.0,1
-57.0,-233.0,25.0,-84.0,93.0,-81.0,1
-61.0,-230.0,25.0,-98.0,110.0,-81.0,1
-62.0,-231.0,21.0,-114.0,122.0,-81.0,1
-65.0,-228.0,25.0,-131.0,125.0,-74.0,1
-58.0,-233.0,26.0,-142.0,122.0,-65.0,1
-60.0,-235.0,28.0,-148.0,112.0,-54.0,1
-55.0,-238.0,26.0,-147.0,102.0,-41.0,1
-54.0,-242.0,32.0,-142.0,89.0,-29.0,1
-55.0,-242.0,37.0,-133.0,75.0,-23.0,1
-57.0,-246.0,41.0,-124.0,60.0,-23.0,1
-61.0,-249.0,45.0,-111.0,43.0,-26.0,1
-63.0,-252.0,47.0,-99.0,21.0,-30.0,1
-62.0,-254.0,51.0,-92.0,-2.0,-38.0,1
-63.0,-258.0,47.0,-89.0,-27.0,-49.0,1
-63.0,-262.0,43.0,-90.0,-53.0,-58.0,1
-66.0,-267.0,44.0,-98.0,-78.0,-68.0,1
-63.0,-270.0,36.0,-105.0,-97.0,-76.0,1
-58.0,-278.0,33.0,-110.0,-115.0,-80.0,1
-60.0,-278.0,22.0,-119.0,-136.0,-78.0,1
-58.0,-283.0,21.0,-129.0,-161.0,-73.0,1
-53.0,-288.0,10.0,-140.0,-192.0,-64.0,1
-53.0,-300.0,9.0,-152.0,-219.0,-54.0,1
-55.0,-309.0,2.0,-157.0,-240.0,-39.0,1
-59.0,-313.0,0.0,-159.0,-260.0,-24.0,1
-58.0,-325.0,-5.0,-156.0,-278.0,-6.0,1
-59.0,-338.0,-7.0,-147.0,-294.0,15.0,1
-58.0,-348.0,-7.0,-126.0,-304.0,40.0,1
-59.0,-359.0,-9.0,-99.0,-307.0,63.0,1
-57.0,-370.0,-3.0,-60.0,-302.0,85.0,1
-56.0,-378.0,3.0,-8.0,-286.0,107.0,1
-60.0,-382.0,8.0,54.0,-266.0,134.0,1
-60.0,-386.0,10.0,125.0,-246.0,163.0,1
-63.0,-390.0,14.0,203.0,-229.0,195.0,1
-56.0,-384.0,8.0,289.0,-230.0,220.0,1
-49.0,-374.0,-9.0,374.0,-242.0,236.0,1
-36.0,-359.0,-21.0,444.0,-251.0,244.0,1
-20.0,-345.0,-41.0,496.0,-256.0,228.0,1
-11.0,-325.0,-64.0,534.0,-257.0,187.0,1
-4.0,-306.0,-81.0,535.0,-247.0,126.0,1
6.0,-282.0,-111.0,496.0,-235.0,57.0,1
10.0,-264.0,-124.0,403.0,-217.0,-21.0,1
10.0,-256.0,-120.0,282.0,-195.0,-92.0,1
13.0,-251.0,-110.0,175.0,-167.0,-141.0,1
18.0,-248.0,-100.0,103.0,-130.0,-176.0,1
22.0,-243.0,-92.0,62.0,-87.0,-206.0,1
23.0,-234.0,-81.0,46.0,-48.0,-230.0,1
23.0,-225.0,-73.0,50.0,-16.0,-243.0,1
14.0,-225.0,-55.0,68.0,1.0,-248.0,1
15.0,-221.0,-44.0,124.0,-19.0,-236.0,1
22.0,-216.0,-44.0,198.0,-54.0,-211.0,1
25.0,-211.0,-43.0,256.0,-86.0,-188.0,1
17.0,-215.0,-42.0,287.0,-115.0,-162.0,1
17.0,-227.0,-31.0,294.0,-142.0,-132.0,1
14.0,-235.0,-28.0,289.0,-171.0,-94.0,1
11.0,-245.0,-25.0,272.0,-206.0,-51.0,1
3.0,-250.0,-22.0,250.0,-240.0,-11.0,1
-7.0,-261.0,-21.0,225.0,-274.0,24.0,1
-12.0,-266.0,-16.0,205.0,-309.0,49.0,1
-15.0,-280.0,-20.0,193.0,-348.0,64.0,1
-21.0,-288.0,-18.0,192.0,-389.0,68.0,1
-21.0,-299.0,-21.0,199.0,-426.0,62.0,1
-29.0,-307.0,-25.0,212.0,-456.0,43.0,1
-19.0,-310.0,-34.0,228.0,-479.0,16.0,1
-21.0,-318.0,-23.0,244.0,-492.0,-24.0,1
-15.0,-316.0,-27.0,273.0,-494.0,-73.0,1
-15.0,-311.0,-35.0,302.0,-480.0,-137.0,1
-18.0,-301.0,-41.0,313.0,-458.0,-192.0,1
-6.0,-292.0,-44.0,296.0,-437.0,-222.0,1
1.0,-285.0,-42.0,264.0,-410.0,-262.0,1
23.0,-282.0,-28.0,243.0,-362.0,-309.0,1
15.0,-273.0,-18.0,278.0,-277.0,-350.0,1
13.0,-272.0,-15.0,349.0,-193.0,-370.0,1
-10.0,-266.0,-12.0,429.0,-127.0,-352.0,1
4.0,-262.0,-10.0,480.0,-92.0,-333.0,1
12.0,-242.0,-36.0,502.0,-88.0,-322.0,1
25.0,-221.0,-36.0,450.0,-132.0,-322.0,1
18.0,-197.0,-39.0,394.0,-134.0,-331.0,1
17.0,-198.0,-34.0,324.0,-151.0,-315.0,1
20.0,-192.0,-30.0,278.0,-175.0,-282.0,1
19.0,-185.0,-27.0,248.0,-200.0,-260.0,1
18.0,-179.0,-23.0,221.0,-226.0,-252.0,1
19.0,-179.0,-18.0,201.0,-248.0,-248.0,1
18.0,-175.0,-16.0,188.0,-264.0,-241.0,1
23.0,-179.0,-19.0,176.0,-274.0,-236.0,1
14.0,-174.0,-14.0,164.0,-283.0,-229.0,1
14.0,-171.0,-10.0,156.0,-292.0,-226.0,1
12.0,-173.0,-6.0,146.0,-298.0,-230.0,1
7.0,-174.0,-7.0,132.0,-306.0,-233.0,1
7.0,-179.0,-9.0,120.0,-318.0,-233.0,1
3.0,-182.0,-10.0,103.0,-327.0,-234.0,1
3.0,-186.0,-4.0,79.0,-333.0,-236.0,1
2.0,-193.0,0.0,63.0,-337.0,-237.0,1
0.0,-198.0,-2.0,50.0,-338.0,-239.0,1
1.0,-202.0,5.0,44.0,-335.0,-248.0,1
3.0,-206.0,3.0,41.0,-335.0,-258.0,1
12.0,-210.0,0.0,41.0,-336.0,-273.0,1
8.0,-210.0,5.0,44.0,-336.0,-293.0,1
11.0,-212.0,2.0,47.0,-336.0,-304.0,1
13.0,-214.0,1.0,48.0,-335.0,-309.0,1
16.0,-216.0,6.0,52.0,-340.0,-308.0,1
18.0,-215.0,8.0,56.0,-350.0,-302.0,1
22.0,-219.0,12.0,65.0,-360.0,-290.0,1
22.0,-217.0,17.0,74.0,-376.0,-273.0,1
26.0,-217.0,22.0,86.0,-392.0,-249.0,1
23.0,-217.0,28.0,102.0,-408.0,-218.0,1
29.0,-208.0,35.0,119.0,-429.0,-181.0,1
19.0,-210.0,40.0,136.0,-450.0,-136.0,1
18.0,-207.0,43.0,155.0,-469.0,-89.0,1
18.0,-200.0,47.0,173.0,-491.0,-39.0,1
19.0,-202.0,52.0,190.0,-512.0,11.0,1
18.0,-201.0,53.0,205.0,-529.0,55.0,1
16.0,-202.0,54.0,217.0,-544.0,97.0,1
17.0,-203.0,57.0,225.0,-554.0,135.0,1
17.0,-204.0,58.0,229.0,-562.0,168.0,1
24.0,-212.0,64.0,233.0,-567.0,195.0,1
26.0,-215.0,54.0,236.0,-558.0,213.0,1
33.0,-221.0,60.0,240.0,-532.0,225.0,1
24.0,-223.0,56.0,246.0,-502.0,237.0,1
24.0,-230.0,53.0,252.0,-485.0,249.0,1
19.0,-231.0,42.0,251.0,-479.0,254.0,1
17.0,-231.0,41.0,244.0,-480.0,259.0,1
12.0,-226.0,39.0,227.0,-479.0,264.0,1
9.0,-228.0,43.0,210.0,-470.0,264.0,1
7.0,-233.0,44.0,183.0,-455.0,256.0,1
8.0,-242.0,44.0,158.0,-439.0,243.0,1
10.0,-249.0,51.0,125.0,-416.0,222.0,1
10.0,-252.0,58.0,88.0,-383.0,190.0,1
17.0,-270.0,61.0,45.0,-337.0,147.0,1
27.0,-283.0,70.0,10.0,-286.0,97.0,1
35.0,-292.0,78.0,-11.0,-238.0,38.0,1
44.0,-301.0,91.0,-13.0,-197.0,-26.0,1
48.0,-305.0,103.0,0.0,-170.0,-87.0,1
48.0,-306.0,109.0,24.0,-158.0,-147.0,1
49.0,-302.0,121.0,58.0,-160.0,-199.0,1
47.0,-298.0,121.0,107.0,-172.0,-240.0,1
46.0,-293.0,119.0,167.0,-193.0,-262.0,1
46.0,-289.0,108.0,234.0,-213.0,-282.0,1
38.0,-286.0,98.0,294.0,-235.0,-288.0,1
37.0,-294.0,81.0,334.0,-257.0,-286.0,1
18.0,-296.0,67.0,351.0,-265.0,-289.0,1
10.0,-299.0,46.0,345.0,-265.0,-292.0,1
7.0,-309.0,22.0,308.0,-260.0,-291.0,1
1.0,-319.0,4.0,235.0,-254.0,-287.0,1
20.0,-346.0,-12.0,135.0,-250.0,-279.0,1
9.0,-369.0,-16.0,25.0,-240.0,-280.0,1
13.0,-390.0,-17.0,-67.0,-220.0,-272.0,1
22.0,-403.0,-14.0,-119.0,-199.0,-251.0,1
24.0,-410.0,-15.0,-131.0,-186.0,-240.0,1
35.0,-405.0,-13.0,-98.0,-179.0,-235.0,1
34.0,-405.0,-4.0,-19.0,-176.0,-216.0,1
43.0,-391.0,-17.0,122.0,-177.0,-181.0,1
49.0,-367.0,-44.0,266.0,-162.0,-151.0,1
53.0,-343.0,-65.0,353.0,-133.0,-114.0,1
49.0,-318.0,-78.0,381.0,-110.0,-82.0,1
47.0,-302.0,-87.0,378.0,-110.0,-58.0,1
44.0,-280.0,-94.0,353.0,-128.0,-38.0,1
41.0,-265.0,-95.0,315.0,-160.0,-21.0,1
33.0,-246.0,-93.0,265.0,-194.0,-10.0,1
34.0,-229.0,-92.0,214.0,-228.0,-4.0,1
29.0,-205.0,-85.0,166.0,-256.0,-6.0,1
29.0,-185.0,-78.0,126.0,-271.0,-15.0,1
28.0,-175.0,-74.0,93.0,-276.0,-24.0,1
19.0,-163.0,-66.0,59.0,-267.0,-37.0,1
18.0,-158.0,-57.0,26.0,-251.0,-50.0,1
10.0,-160.0,-47.0,-4.0,-230.0,-61.0,1
4.0,-166.0,-38.0,-31.0,-199.0,-67.0,1
0.0,-178.0,-34.0,-53.0,-163.0,-69.0,1
-3.0,-188.0,-22.0,-69.0,-122.0,-69.0,1
-5.0,-200.0,-18.0,-91.0,-81.0,-68.0,1
-11.0,-209.0,-16.0,-119.0,-40.0,-61.0,1
-14.0,-222.0,-15.0,-150.0,1.0,-49.0,1
-14.0,-233.0,-17.0,-183.0,44.0,-29.0,1
-12.0,-246.0,-15.0,-220.0,92.0,-3.0,1
-13.0,-250.0,-16.0,-257.0,142.0,29.0,1
-10.0,-261.0,-19.0,-292.0,198.0,64.0,1
-8.0,-268.0,-17.0,-322.0,249.0,100.0,1
-4.0,-277.0,-16.0,-344.0,293.0,140.0,1
1.0,-286.0,-17.0,-356.0,330.0,182.0,1
6.0,-292.0,-11.0,-358.0,360.0,225.0,1
7.0,-293.0,-9.0,-351.0,379.0,269.0,1
11.0,-295.0,-2.0,-336.0,390.0,300.0,1
11.0,-290.0,-2.0,-306.0,392.0,324.0,1
15.0,-283.0,-7.0,-271.0,387.0,346.0,1
16.0,-282.0,-2.0,-230.0,379.0,361.0,1
14.0,-270.0,-2.0,-189.0,366.0,367.0,1
10.0,-263.0,-3.0,-154.0,353.0,366.0,1
12.0,-251.0,-10.0,-124.0,338.0,363.0,1
9.0,-239.0,-12.0,-106.0,327.0,354.0,1
7.0,-224.0,-13.0,-106.0,319.0,349.0,1
6.0,-215.0,-15.0,-117.0,314.0,338.0,1
-3.0,-205.0,-13.0,-132.0,305.0,328.0,1
0.0,-191.0,-17.0,-152.0,290.0,338.0,1
19.0,-189.0,-11.0,-182.0,272.0,343.0,1
0.0,-175.0,-10.0,-208.0,269.0,308.0,1
-3.0,-163.0,-10.0,-218.0,266.0,304.0,1
-6.0,-153.0,-14.0,-233.0,261.0,316.0,1
-2.0,-152.0,-7.0,-258.0,253.0,321.0,1
-5.0,-152.0,-9.0,-279.0,256.0,310.0,1
-8.0,-157.0,-8.0,-287.0,268.0,297.0,1
-11.0,-158.0,-4.0,-288.0,279.0,284.0,1
-10.0,-165.0,-4.0,-286.0,290.0,272.0,1
-12.0,-172.0,1.0,-286.0,302.0,256.0,1
-11.0,-181.0,5.0,-287.0,314.0,236.0,1
-12.0,-187.0,3.0,-282.0,336.0,213.0,1
-13.0,-198.0,9.0,-274.0,367.0,186.0,1
-11.0,-208.0,11.0,-260.0,403.0,161.0,1
-11.0,-216.0,16.0,-248.0,449.0,135.0,1
-11.0,-224.0,22.0,-234.0,495.0,114.0,1
-8.0,-232.0,31.0,-218.0,543.0,93.0,1
-10.0,-240.0,27.0,-194.0,591.0,77.0,1
-4.0,-245.0,36.0,-167.0,637.0,61.0,1
-3.0,-246.0,43.0,-139.0,682.0,45.0,1
-1.0,-247.0,50.0,-111.0,724.0,31.0,1
7.0,-245.0,52.0,-83.0,761.0,18.0,1
8.0,-244.0,54.0,-52.0,790.0,4.0,1
10.0,-243.0,57.0,-22.0,815.0,-15.0,1
17.0,-239.0,63.0,11.0,838.0,-35.0,1
20.0,-236.0,66.0,42.0,866.0,-63.0,1
25.0,-232.0,65.0,72.0,894.0,-95.0,1
23.0,-227.0,66.0,98.0,919.0,-134.0,1
20.0,-225.0,69.0,111.0,934.0,-173.0,1
20.0,-222.0,70.0,109.0,935.0,-210.0,1
19.0,-219.0,65.0,97.0,923.0,-243.0,1
12.0,-219.0,61.0,77.0,905.0,-273.0,1
11.0,-220.0,56.0,51.0,884.0,-300.0,1
3.0,-220.0,50.0,16.0,861.0,-320.0,1
-6.0,-220.0,48.0,-28.0,837.0,-336.0,1
-13.0,-228.0,45.0,-73.0,806.0,-348.0,1
-20.0,-232.0,38.0,-110.0,767.0,-352.0,1
-22.0,-239.0,35.0,-147.0,728.0,-349.0,1
-28.0,-246.0,36.0,-167.0,688.0,-344.0,1
-37.0,-246.0,33.0,-174.0,649.0,-334.0,1
-42.0,-255.0,41.0,-171.0,608.0,-323.0,1
-47.0,-262.0,46.0,-152.0,561.0,-304.0,1
-59.0,-265.0,47.0,-116.0,514.0,-278.0,1
-68.0,-269.0,47.0,-76.0,470.0,-241.0,1
-65.0,-278.0,56.0,-39.0,434.0,-198.0,1
-71.0,-279.0,61.0,1.0,405.0,-146.0,1
-71.0,-284.0,67.0,35.0,381.0,-94.0,1
-72.0,-276.0,66.0,69.0,366.0,-45.0,1
-69.0,-284.0,69.0,80.0,360.0,9.0,1
-65.0,-290.0,77.0,92.0,354.0,49.0,1
-59.0,-289.0,81.0,119.0,349.0,81.0,1
-48.0,-286.0,83.0,146.0,350.0,112.0,1
-33.0,-279.0,92.0,163.0,352.0,132.0,1
-21.0,-272.0,92.0,177.0,361.0,138.0,1
-11.0,-262.0,96.0,191.0,372.0,135.0,1
-1.0,-255.0,100.0,187.0,397.0,136.0,1
13.0,-262.0,95.0,187.0,417.0,129.0,1
22.0,-265.0,81.0,213.0,423.0,110.0,1
31.0,-273.0,58.0,233.0,437.0,95.0,1
30.0,-289.0,25.0,219.0,463.0,82.0,1
19.0,-307.0,5.0,159.0,491.0,69.0,1
11.0,-332.0,-20.0,62.0,506.0,52.0,1
8.0,-362.0,-29.0,-50.0,505.0,38.0,1
7.0,-380.0,-34.0,-141.0,485.0,29.0,1
-5.0,-401.0,-44.0,-187.0,448.0,30.0,1
-13.0,-407.0,-46.0,-179.0,395.0,43.0,1
-19.0,-401.0,-51.0,-140.0,341.0,70.0,1
-29.0,-393.0,-54.0,-81.0,294.0,106.0,1
-32.0,-376.0,-58.0,-16.0,253.0,145.0,1
-37.0,-358.0,-72.0,41.0,219.0,183.0,1
-35.0,-342.0,-79.0,84.0,192.0,222.0,1
-37.0,-321.0,-94.0,123.0,169.0,251.0,1
-33.0,-304.0,-100.0,162.0,159.0,277.0,1
-19.0,-283.0,-107.0,203.0,162.0,297.0,1
-14.0,-261.0,-110.0,236.0,178.0,314.0,1
-2.0,-246.0,-102.0,260.0,200.0,323.0,1
5.0,-224.0,-97.0,272.0,221.0,331.0,1
14.0,-208.0,-85.0,268.0,236.0,337.0,1
24.0,-197.0,-71.0,251.0,245.0,344.0,1
30.0,-181.0,-57.0,220.0,247.0,345.0,1
40.0,-178.0,-48.0,183.0,241.0,347.0,1
43.0,-178.0,-32.0,140.0,223.0,346.0,1
45.0,-184.0,-21.0,87.0,202.0,332.0,1
40.0,-194.0,-7.0,27.0,180.0,306.0,1
37.0,-206.0,1.0,-31.0,159.0,271.0,1
37.0,-227.0,12.0,-84.0,142.0,229.0,1
33.0,-242.0,10.0,-134.0,122.0,181.0,1
25.0,-256.0,13.0,-181.0,87.0,128.0,1
20.0,-267.0,7.0,-227.0,40.0,74.0,1
13.0,-280.0,9.0,-260.0,-18.0,19.0,1
8.0,-292.0,-1.0,-283.0,-79.0,-36.0,1
-3.0,-298.0,-8.0,-296.0,-142.0,-91.0,1
-10.0,-302.0,-10.0,-306.0,-195.0,-150.0,1
-15.0,-304.0,-14.0,-306.0,-235.0,-203.0,1
-23.0,-302.0,-16.0,-299.0,-257.0,-247.0,1
-29.0,-297.0,-12.0,-274.0,-266.0,-278.0,1
-36.0,-289.0,-14.0,-236.0,-269.0,-294.0,1
-41.0,-284.0,-14.0,-189.0,-260.0,-296.0,1
-38.0,-282.0,-15.0,-134.0,-242.0,-288.0,1
-43.0,-271.0,-11.0,-77.0,-219.0,-279.0,1
-45.0,-265.0,-13.0,-25.0,-191.0,-264.0,1
-41.0,-252.0,-10.0,13.0,-171.0,-248.0,1
-38.0,-243.0,-21.0,35.0,-160.0,-231.0,1
-32.0,-233.0,-18.0,35.0,-157.0,-217.0,1
-26.0,-221.0,-20.0,17.0,-159.0,-205.0,1
-16.0,-214.0,-15.0,-20.0,-161.0,-202.0,1
-10.0,-202.0,-14.0,-60.0,-167.0,-203.0,1
-1.0,-194.0,-7.0,-100.0,-169.0,-207.0,1
4.0,-190.0,-8.0,-130.0,-167.0,-214.0,1
16.0,-183.0,-5.0,-151.0,-162.0,-223.0,1
21.0,-176.0,-2.0,-166.0,-154.0,-233.0,1
26.0,-173.0,2.0,-176.0,-151.0,-242.0,1
28.0,-172.0,1.0,-182.0,-150.0,-250.0,1
32.0,-169.0,7.0,-182.0,-153.0,-258.0,1
38.0,-171.0,11.0,-175.0,-161.0,-267.0,1
37.0,-171.0,8.0,-164.0,-177.0,-280.0,1
35.0,-172.0,7.0,-147.0,-195.0,-291.0,1
37.0,-179.0,9.0,-135.0,-221.0,-292.0,1
32.0,-179.0,9.0,-126.0,-253.0,-289.0,1
33.0,-181.0,13.0,-124.0,-290.0,-280.0,1
28.0,-182.0,10.0,-130.0,-331.0,-265.0,1
27.0,-187.0,10.0,-146.0,-370.0,-248.0,1
28.0,-192.0,15.0,-164.0,-406.0,-235.0,1
25.0,-204.0,17.0,-175.0,-441.0,-229.0,1
24.0,-205.0,17.0,-179.0,-477.0,-228.0,1
21.0,-207.0,25.0,-182.0,-511.0,-225.0,1
17.0,-213.0,23.0,-185.0,-536.0,-220.0,1
14.0,-215.0,27.0,-184.0,-557.0,-213.0,1
12.0,-220.0,32.0,-178.0,-571.0,-208.0,1
9.0,-216.0,41.0,-167.0,-579.0,-195.0,1
4.0,-218.0,37.0,-150.0,-581.0,-175.0,1
2.0,-222.0,37.0,-129.0,-575.0,-150.0,1
-1.0,-220.0,43.0,-101.0,-566.0,-120.0,1
1.0,-224.0,45.0,-65.0,-557.0,-82.0,1
-8.0,-218.0,49.0,-19.0,-547.0,-39.0,1
-9.0,-219.0,53.0,28.0,-541.0,9.0,1
-8.0,-220.0,50.0,78.0,-535.0,58.0,1
-6.0,-222.0,51.0,123.0,-528.0,106.0,1
-7.0,-221.0,53.0,164.0,-524.0,157.0,1
-5.0,-222.0,51.0,188.0,-529.0,207.0,1
-6.0,-221.0,44.0,197.0,-540.0,256.0,1
-4.0,-224.0,38.0,190.0,-552.0,306.0,1
-7.0,-224.0,33.0,171.0,-568.0,350.0,1
-3.0,-229.0,30.0,137.0,-591.0,389.0,1
1.0,-231.0,20.0,92.0,-609.0,419.0,1
2.0,-229.0,18.0,47.0,-617.0,437.0,1
5.0,-226.0,9.0,-1.0,-607.0,442.0,1
7.0,-224.0,6.0,-56.0,-584.0,434.0,1
14.0,-225.0,9.0,-111.0,-548.0,414.0,1
20.0,-232.0,12.0,-158.0,-507.0,381.0,1
28.0,-239.0,24.0,-186.0,-456.0,332.0,1
43.0,-259.0,40.0,-190.0,-401.0,274.0,1
47.0,-267.0,50.0,-177.0,-345.0,204.0,1
58.0,-287.0,68.0,-150.0,-288.0,117.0,1
66.0,-299.0,81.0,-111.0,-231.0,11.0,1
79.0,-313.0,91.0,-64.0,-179.0,-101.0,1
86.0,-319.0,100.0,-13.0,-134.0,-213.0,1
89.0,-320.0,105.0,38.0,-98.0,-312.0,1
96.0,-321.0,102.0,81.0,-69.0,-401.0,1
94.0,-312.0,106.0,123.0,-50.0,-476.0,1
92.0,-304.0,103.0,164.0,-45.0,-524.0,1
94.0,-300.0,94.0,212.0,-45.0,-549.0,1
87.0,-293.0,92.0,255.0,-47.0,-561.0,1
79.0,-288.0,76.0,291.0,-45.0,-566.0,1
58.0,-288.0,67.0,304.0,-41.0,-573.0,1
40.0,-288.0,56.0,293.0,-40.0,-579.0,1
25.0,-292.0,39.0,248.0,-43.0,-574.0,1
21.0,-304.0,31.0,176.0,-46.0,-562.0,1
28.0,-318.0,17.0,86.0,-50.0,-533.0,1
17.0,-341.0,6.0,-4.0,-34.0,-517.0,1
7.0,-361.0,8.0,-82.0,-19.0,-475.0,1
9.0,-382.0,1.0,-138.0,-13.0,-407.0,1
5.0,-399.0,8.0,-155.0,-6.0,-345.0,1
11.0,-406.0,-1.0,-133.0,-8.0,-291.0,1
11.0,-404.0,-2.0,-86.0,-14.0,-245.0,1
7.0,-394.0,-13.0,-25.0,-23.0,-200.0,1
7.0,-380.0,-30.0,29.0,-33.0,-154.0,1
6.0,-362.0,-51.0,59.0,-40.0,-113.0,1
6.0,-343.0,-64.0,65.0,-57.0,-80.0,1
1.0,-322.0,-78.0,67.0,-86.0,-50.0,1
-6.0,-306.0,-90.0,69.0,-128.0,-27.0,1
-2.0,-288.0,-90.0,72.0,-177.0,-13.0,1
-11.0,-263.0,-95.0,74.0,-224.0,-11.0,1
-10.0,-244.0,-97.0,78.0,-265.0,-19.0,1
-13.0,-230.0,-93.0,92.0,-295.0,-34.0,1
-15.0,-213.0,-90.0,103.0,-312.0,-56.0,1
-13.0,-198.0,-80.0,110.0,-309.0,-83.0,1
-18.0,-188.0,-73.0,103.0,-290.0,-110.0,1
-16.0,-185.0,-65.0,85.0,-260.0,-141.0,1
-17.0,-185.0,-52.0,55.0,-221.0,-171.0,1
-16.0,-190.0,-49.0,16.0,-174.0,-201.0,1
-16.0,-199.0,-37.0,-35.0,-125.0,-228.0,1
-23.0,-205.0,-30.0,-94.0,-83.0,-245.0,1
-17.0,-217.0,-24.0,-153.0,-54.0,-249.0,1
-16.0,-226.0,-17.0,-203.0,-29.0,-239.0,1
-16.0,-232.0,-12.0,-248.0,-6.0,-216.0,1
-13.0,-242.0,-13.0,-291.0,26.0,-179.0,1
-9.0,-250.0,-11.0,-325.0,63.0,-132.0,1
-4.0,-261.0,-16.0,-356.0,105.0,-77.0,1
0.0,-266.0,-15.0,-386.0,147.0,-20.0,1
3.0,-275.0,-18.0,-412.0,186.0,40.0,1
10.0,-282.0,-15.0,-430.0,218.0,105.0,1
13.0,-286.0,-12.0,-437.0,242.0,172.0,1
16.0,-289.0,-13.0,-433.0,257.0,240.0,1
19.0,-290.0,-8.0,-407.0,265.0,300.0,1
20.0,-291.0,-6.0,-366.0,264.0,352.0,1
20.0,-287.0,-9.0,-314.0,254.0,394.0,1
19.0,-280.0,-10.0,-262.0,238.0,422.0,1
21.0,-273.0,-9.0,-213.0,218.0,436.0,1
22.0,-262.0,-9.0,-167.0,205.0,439.0,1
15.0,-248.0,-12.0,-134.0,195.0,434.0,1
14.0,-238.0,-13.0,-113.0,183.0,425.0,1
13.0,-217.0,-12.0,-104.0,172.0,416.0,1
1.0,-203.0,-15.0,-105.0,159.0,402.0,1
5.0,-198.0,-12.0,-125.0,144.0,404.0,1
7.0,-188.0,-16.0,-145.0,128.0,395.0,1
6.0,-179.0,-19.0,-172.0,116.0,367.0,1
0.0,-168.0,-17.0,-207.0,116.0,334.0,1
-1.0,-159.0,-18.0,-232.0,120.0,308.0,1
2.0,-158.0,-16.0,-252.0,131.0,279.0,1
-11.0,-152.0,-17.0,-274.0,133.0,260.0,1
-8.0,-151.0,-12.0,-289.0,133.0,247.0,1
-14.0,-151.0,-11.0,-299.0,140.0,224.0,1
-13.0,-153.0,-6.0,-304.0,154.0,208.0,1
-16.0,-156.0,-7.0,-302.0,167.0,192.0,1
-22.0,-162.0,0.0,-303.0,186.0,181.0,1
-18.0,-170.0,-1.0,-307.0,204.0,174.0,1
-22.0,-178.0,6.0,-315.0,226.0,160.0,1
-22.0,-184.0,8.0,-317.0,254.0,151.0,1
-23.0,-196.0,8.0,-319.0,282.0,140.0,1
-16.0,-201.0,10.0,-318.0,317.0,128.0,1
-17.0,-212.0,14.0,-315.0,354.0,116.0,1
-17.0,-218.0,17.0,-311.0,389.0,104.0,1
-17.0,-226.0,21.0,-302.0,428.0,98.0,1
-14.0,-231.0,27.0,-289.0,468.0,92.0,1
-14.0,-236.0,35.0,-268.0,505.0,85.0,1
-13.0,-239.0,35.0,-241.0,543.0,77.0,1
-12.0,-234.0,39.0,-208.0,581.0,70.0,1
-2.0,-239.0,46.0,-173.0,621.0,58.0,1
2.0,-240.0,53.0,-141.0,656.0,41.0,1
7.0,-233.0,51.0,-112.0,686.0,19.0,1
11.0,-227.0,51.0,-89.0,712.0,-8.0,1
19.0,-222.0,50.0,-70.0,732.0,-38.0,1
22.0,-222.0,53.0,-56.0,744.0,-73.0,1
29.0,-220.0,50.0,-51.0,744.0,-107.0,1
26.0,-219.0,51.0,-53.0,740.0,-142.0,1
30.0,-225.0,53.0,-60.0,730.0,-176.0,1
30.0,-233.0,54.0,-69.0,723.0,-210.0,1
26.0,-237.0,54.0,-72.0,717.0,-244.0,1
19.0,-243.0,51.0,-70.0,706.0,-273.0,1
14.0,-248.0,53.0,-65.0,684.0,-296.0,1
7.0,-250.0,53.0,-59.0,650.0,-310.0,1
3.0,-258.0,49.0,-45.0,606.0,-320.0,1
-10.0,-260.0,42.0,-35.0,552.0,-321.0,1
-16.0,-263.0,41.0,-25.0,492.0,-315.0,1
-34.0,-263.0,39.0,-15.0,428.0,-300.0,1
-43.0,-263.0,38.0,2.0,365.0,-280.0,1
-57.0,-265.0,39.0,31.0,307.0,-250.0,1
-71.0,-272.0,46.0,69.0,259.0,-213.0,1
-86.0,-274.0,48.0,113.0,220.0,-166.0,1
-90.0,-283.0,53.0,160.0,193.0,-114.0,1
-97.0,-282.0,65.0,206.0,172.0,-60.0,1
-106.0,-283.0,70.0,249.0,154.0,-7.0,1
-109.0,-282.0,73.0,291.0,139.0,44.0,1
-107.0,-283.0,74.0,330.0,125.0,93.0,1
-105.0,-279.0,75.0,363.0,116.0,135.0,1
-91.0,-275.0,77.0,388.0,114.0,173.0,1
-79.0,-270.0,71.0,399.0,116.0,204.0,1
-66.0,-269.0,63.0,408.0,121.0,224.0,1
-38.0,-267.0,61.0,410.0,124.0,236.0,1
-15.0,-268.0,45.0,403.0,132.0,235.0,1
2.0,-265.0,34.0,379.0,141.0,232.0,1
16.0,-275.0,9.0,336.0,152.0,227.0,1
20.0,-287.0,-10.0,270.0,166.0,216.0,1
13.0,-304.0,-31.0,170.0,172.0,201.0,1
11.0,-323.0,-51.0,28.0,164.0,191.0,1
9.0,-349.0,-55.0,-131.0,147.0,192.0,1
9.0,-378.0,-56.0,-264.0,127.0,205.0,1
8.0,-396.0,-55.0,-338.0,105.0,220.0,1
-3.0,-404.0,-55.0,-344.0,87.0,239.0,1
-11.0,-408.0,-46.0,-298.0,62.0,269.0,1
-11.0,-404.0,-49.0,-219.0,43.0,307.0,1
-10.0,-395.0,-47.0,-135.0,34.0,345.0,1
1.0,-381.0,-48.0,-47.0,42.0,377.0,1
6.0,-365.0,-53.0,47.0,58.0,393.0,1
18.0,-347.0,-56.0,148.0,79.0,400.0,1
30.0,-324.0,-62.0,253.0,96.0,406.0,1
41.0,-304.0,-67.0,354.0,117.0,403.0,1
47.0,-281.0,-74.0,448.0,152.0,391.0,1
54.0,-256.0,-76.0,522.0,194.0,371.0,1
52.0,-236.0,-77.0,563.0,234.0,352.0,1
64.0,-215.0,-80.0,567.0,269.0,333.0,1
65.0,-199.0,-73.0,529.0,303.0,313.0,1
66.0,-191.0,-65.0,462.0,327.0,297.0,1
64.0,-188.0,-54.0,380.0,341.0,284.0,1
61.0,-188.0,-46.0,295.0,353.0,266.0,1
54.0,-193.0,-29.0,210.0,366.0,247.0,1
49.0,-205.0,-20.0,126.0,386.0,221.0,1
48.0,-221.0,-6.0,41.0,400.0,190.0,1
42.0,-233.0,0.0,-37.0,406.0,153.0,1
34.0,-246.0,4.0,-114.0,395.0,117.0,1
15.0,-262.0,6.0,-182.0,372.0,77.0,1
17.0,-275.0,8.0,-236.0,336.0,35.0,1
6.0,-290.0,8.0,-272.0,289.0,-5.0,1
-1.0,-307.0,7.0,-285.0,232.0,-45.0,1
-6.0,-314.0,0.0,-285.0,172.0,-92.0,1
-16.0,-321.0,-5.0,-266.0,116.0,-136.0,1
-20.0,-327.0,-10.0,-241.0,64.0,-184.0,1
-29.0,-323.0,-19.0,-206.0,25.0,-229.0,1
-36.0,-318.0,-19.0,-175.0,2.0,-262.0,1
-41.0,-309.0,-20.0,-132.0,-13.0,-279.0,1
-45.0,-306.0,-14.0,-85.0,-23.0,-281.0,1
-51.0,-291.0,-15.0,-22.0,-31.0,-282.0,1
-55.0,-282.0,-19.0,41.0,-38.0,-274.0,1
-54.0,-267.0,-21.0,90.0,-43.0,-264.0,1
-50.0,-257.0,-26.0,124.0,-47.0,-252.0,1
-49.0,-241.0,-25.0,142.0,-51.0,-235.0,1
-45.0,-228.0,-29.0,143.0,-55.0,-217.0,1
-36.0,-215.0,-29.0,130.0,-63.0,-205.0,1
-25.0,-203.0,-31.0,98.0,-64.0,-196.0,1
-17.0,-195.0,-26.0,54.0,-60.0,-188.0,1
-12.0,-185.0,-22.0,11.0,-59.0,-184.0,1
-3.0,-176.0,-17.0,-23.0,-62.0,-187.0,1
1.0,-166.0,-21.0,-54.0,-70.0,-192.0,1
7.0,-163.0,-15.0,-84.0,-82.0,-197.0,1
11.0,-155.0,-15.0,-108.0,-98.0,-207.0,1
16.0,-153.0,-12.0,-119.0,-116.0,-219.0,1
20.0,-152.0,-8.0,-123.0,-133.0,-229.0,1
23.0,-151.0,-4.0,-120.0,-147.0,-239.0,1
27.0,-157.0,-2.0,-117.0,-158.0,-250.0,1
28.0,-161.0,4.0,-116.0,-173.0,-266.0,1
27.0,-167.0,5.0,-105.0,-191.0,-278.0,1
29.0,-172.0,8.0,-96.0,-211.0,-283.0,1
25.0,-174.0,3.0,-93.0,-235.0,-277.0,1
26.0,-179.0,8.0,-100.0,-263.0,-266.0,1
26.0,-186.0,8.0,-114.0,-290.0,-247.0,1
28.0,-196.0,13.0,-125.0,-316.0,-228.0,1
29.0,-201.0,13.0,-130.0,-341.0,-214.0,1
23.0,-203.0,17.0,-131.0,-366.0,-201.0,1
23.0,-208.0,16.0,-132.0,-391.0,-183.0,1
25.0,-216.0,23.0,-138.0,-413.0,-164.0,1
22.0,-217.0,27.0,-136.0,-436.0,-150.0,1
21.0,-219.0,28.0,-139.0,-459.0,-135.0,1
19.0,-220.0,33.0,-144.0,-478.0,-113.0,1
19.0,-222.0,35.0,-149.0,-495.0,-91.0,1
17.0,-224.0,35.0,-154.0,-508.0,-68.0,1
15.0,-222.0,37.0,-149.0,-518.0,-43.0,1
14.0,-222.0,43.0,-146.0,-527.0,-9.0,1
13.0,-221.0,46.0,-140.0,-536.0,30.0,1
8.0,-222.0,54.0,-127.0,-549.0,69.0,1
6.0,-221.0,54.0,-103.0,-561.0,108.0,1
1.0,-222.0,61.0,-74.0,-573.0,148.0,1
-4.0,-218.0,58.0,-41.0,-586.0,188.0,1
-10.0,-220.0,59.0,-12.0,-601.0,228.0,1
-11.0,-219.0,56.0,7.0,-617.0,268.0,1
-16.0,-221.0,50.0,17.0,-635.0,311.0,1
-15.0,-223.0,47.0,14.0,-651.0,354.0,1
-18.0,-218.0,41.0,7.0,-668.0,394.0,1
-15.0,-225.0,33.0,-7.0,-677.0,433.0,1
-16.0,-225.0,24.0,-25.0,-673.0,467.0,1
-10.0,-229.0,20.0,-48.0,-653.0,492.0,1
-5.0,-232.0,13.0,-70.0,-618.0,500.0,1
3.0,-234.0,6.0,-91.0,-571.0,495.0,1
7.0,-239.0,11.0,-107.0,-513.0,472.0,1
15.0,-246.0,19.0,-113.0,-452.0,435.0,1
25.0,-252.0,26.0,-106.0,-394.0,384.0,1
37.0,-266.0,35.0,-88.0,-343.0,322.0,1
47.0,-278.0,48.0,-65.0,-297.0,250.0,1
57.0,-293.0,65.0,-42.0,-257.0,165.0,1
63.0,-304.0,74.0,-23.0,-222.0,66.0,1
69.0,-312.0,87.0,4.0,-192.0,-37.0,1
79.0,-315.0,96.0,36.0,-175.0,-134.0,1
77.0,-312.0,102.0,68.0,-163.0,-227.0,1
82.0,-311.0,108.0,97.0,-158.0,-303.0,1
83.0,-306.0,109.0,127.0,-160.0,-362.0,1
78.0,-296.0,103.0,156.0,-171.0,-401.0,1
72.0,-291.0,95.0,193.0,-185.0,-416.0,1
68.0,-291.0,85.0,234.0,-200.0,-414.0,1
49.0,-289.0,74.0,272.0,-216.0,-406.0,1
28.0,-286.0,66.0,298.0,-227.0,-393.0,1
14.0,-286.0,53.0,301.0,-231.0,-385.0,1
6.0,-293.0,35.0,269.0,-236.0,-372.0,1
0.0,-304.0,17.0,200.0,-237.0,-356.0,1
1.0,-319.0,7.0,102.0,-226.0,-325.0,1
5.0,-338.0,-9.0,-12.0,-200.0,-297.0,1
7.0,-358.0,-16.0,-128.0,-154.0,-281.0,1
20.0,-373.0,-22.0,-226.0,-99.0,-274.0,1
19.0,-388.0,-23.0,-288.0,-44.0,-279.0,1
22.0,-394.0,-24.0,-310.0,-6.0,-283.0,1
10.0,-401.0,-23.0,-289.0,8.0,-287.0,1
14.0,-395.0,-29.0,-229.0,-17.0,-269.0,1
19.0,-378.0,-43.0,-160.0,-64.0,-248.0,1
16.0,-356.0,-61.0,-96.0,-111.0,-222.0,1
12.0,-334.0,-75.0,-52.0,-152.0,-194.0,1
3.0,-310.0,-80.0,-14.0,-195.0,-169.0,1
-1.0,-286.0,-85.0,18.0,-241.0,-150.0,1
-5.0,-263.0,-89.0,47.0,-283.0,-140.0,1
-9.0,-241.0,-88.0,74.0,-317.0,-140.0,1
-13.0,-222.0,-79.0,99.0,-340.0,-145.0,1
-13.0,-205.0,-76.0,123.0,-349.0,-155.0,1
-14.0,-196.0,-74.0,142.0,-341.0,-167.0,1
-16.0,-191.0,-71.0,151.0,-320.0,-177.0,1
-22.0,-189.0,-64.0,139.0,-290.0,-186.0,1
-24.0,-188.0,-57.0,105.0,-257.0,-194.0,1
-20.0,-194.0,-48.0,48.0,-221.0,-201.0,1
-21.0,-199.0,-41.0,-22.0,-185.0,-203.0,1
-20.0,-211.0,-34.0,-98.0,-152.0,-201.0,1
-21.0,-220.0,-18.0,-170.0,-124.0,-192.0,1
-16.0,-232.0,-10.0,-231.0,-96.0,-176.0,1
-14.0,-239.0,-7.0,-286.0,-68.0,-150.0,1
-11.0,-249.0,-7.0,-333.0,-38.0,-122.0,1
-10.0,-254.0,-5.0,-366.0,-1.0,-88.0,1
-7.0,-262.0,-4.0,-387.0,43.0,-45.0,1
-4.0,-272.0,-6.0,-401.0,90.0,-1.0,1
3.0,-280.0,-12.0,-405.0,137.0,51.0,1
5.0,-285.0,-15.0,-394.0,176.0,103.0,1
7.0,-291.0,-15.0,-375.0,212.0,153.0,1
13.0,-293.0,-17.0,-347.0,237.0,202.0,1
16.0,-294.0,-17.0,-319.0,254.0,249.0,1
18.0,-291.0,-19.0,-289.0,264.0,286.0,1
17.0,-286.0,-19.0,-262.0,274.0,316.0,1
19.0,-281.0,-21.0,-238.0,276.0,334.0,1
21.0,-275.0,-19.0,-210.0,276.0,339.0,1
17.0,-267.0,-21.0,-180.0,273.0,333.0,1
16.0,-257.0,-22.0,-156.0,267.0,327.0,1
12.0,-246.0,-25.0,-141.0,257.0,305.0,1
16.0,-235.0,-26.0,-141.0,244.0,283.0,1
11.0,-220.0,-25.0,-148.0,232.0,258.0,1
1.0,-200.0,-25.0,-172.0,223.0,240.0,1
6.0,-196.0,-24.0,-221.0,216.0,237.0,1
6.0,-195.0,-18.0,-266.0,205.0,219.0,1
6.0,-195.0,-21.0,-294.0,189.0,195.0,1
6.0,-185.0,-13.0,-300.0,185.0,160.0,1
-4.0,-179.0,-13.0,-296.0,193.0,132.0,1
1.0,-179.0,-14.0,-294.0,200.0,115.0,1
-4.0,-172.0,-12.0,-280.0,208.0,91.0,1
-9.0,-170.0,-13.0,-267.0,214.0,76.0,1
-15.0,-164.0,-11.0,-260.0,220.0,66.0,1
-14.0,-167.0,-5.0,-259.0,227.0,65.0,1
-15.0,-169.0,-10.0,-258.0,238.0,66.0,1
-19.0,-178.0,-2.0,-261.0,253.0,66.0,1
-19.0,-181.0,1.0,-263.0,269.0,63.0,1
-19.0,-184.0,2.0,-256.0,291.0,54.0,1
-22.0,-189.0,7.0,-248.0,320.0,48.0,1
-22.0,-191.0,8.0,-245.0,353.0,44.0,1
-21.0,-200.0,14.0,-247.0,387.0,43.0,1
-25.0,-209.0,16.0,-243.0,423.0,37.0,1
-23.0,-213.0,18.0,-231.0,458.0,34.0,1
-25.0,-217.0,21.0,-220.0,494.0,32.0,1
-20.0,-218.0,26.0,-203.0,528.0,28.0,1
-19.0,-220.0,30.0,-190.0,560.0,25.0,1
-14.0,-225.0,36.0,-176.0,588.0,21.0,1
-10.0,-220.0,30.0,-159.0,613.0,14.0,1
-3.0,-223.0,32.0,-141.0,632.0,5.0,1
0.0,-221.0,42.0,-117.0,647.0,-9.0,1
6.0,-217.0,40.0,-93.0,660.0,-26.0,1
12.0,-222.0,44.0,-62.0,671.0,-49.0,1
18.0,-218.0,44.0,-29.0,679.0,-76.0,1
22.0,-220.0,44.0,3.0,685.0,-105.0,1
24.0,-217.0,41.0,28.0,687.0,-140.0,1
29.0,-219.0,38.0,47.0,684.0,-175.0,1
27.0,-216.0,41.0,55.0,675.0,-212.0,1
24.0,-224.0,38.0,50.0,659.0,-246.0,1
19.0,-224.0,37.0,42.0,638.0,-274.0,1
15.0,-229.0,33.0,28.0,609.0,-301.0,1
9.0,-237.0,37.0,15.0,575.0,-323.0,1
1.0,-239.0,30.0,7.0,538.0,-339.0,1
-7.0,-242.0,27.0,1.0,495.0,-347.0,1
-13.0,-245.0,22.0,-7.0,445.0,-350.0,1
-22.0,-247.0,23.0,-13.0,392.0,-348.0,1
-30.0,-250.0,23.0,-19.0,343.0,-337.0,1
-39.0,-255.0,22.0,-17.0,294.0,-318.0,1
-47.0,-259.0,26.0,-6.0,250.0,-283.0,1
-54.0,-265.0,29.0,6.0,211.0,-243.0,1
-65.0,-274.0,33.0,22.0,180.0,-193.0,1
-73.0,-278.0,39.0,44.0,155.0,-145.0,1
-78.0,-282.0,48.0,71.0,137.0,-93.0,1
-80.0,-286.0,50.0,96.0,124.0,-41.0,1
-79.0,-290.0,55.0,119.0,114.0,10.0,1
-76.0,-294.0,60.0,131.0,104.0,60.0,1
-70.0,-295.0,63.0,135.0,93.0,108.0,1
-64.0,-293.0,71.0,138.0,87.0,146.0,1
-47.0,-291.0,78.0,152.0,87.0,171.0,1
-38.0,-282.0,86.0,172.0,95.0,187.0,1
-28.0,-272.0,85.0,193.0,116.0,195.0,1
-13.0,-267.0,87.0,207.0,148.0,198.0,1
3.0,-270.0,99.0,227.0,186.0,188.0,1
19.0,-262.0,92.0,266.0,215.0,165.0,1
32.0,-264.0,79.0,312.0,239.0,138.0,1
38.0,-263.0,61.0,338.0,265.0,115.0,1
49.0,-268.0,41.0,327.0,292.0,100.0,1
47.0,-283.0,11.0,284.0,320.0,86.0,1
33.0,-301.0,-7.0,202.0,342.0,76.0,1
25.0,-325.0,-30.0,79.0,359.0,70.0,1
16.0,-353.0,-37.0,-64.0,368.0,62.0,1
12.0,-377.0,-48.0,-203.0,365.0,55.0,1
-4.0,-393.0,-53.0,-315.0,343.0,64.0,1
-14.0,-404.0,-58.0,-383.0,307.0,89.0,1
-25.0,-408.0,-59.0,-402.0,269.0,134.0,1
-30.0,-405.0,-69.0,-378.0,235.0,192.0,1
-36.0,-390.0,-72.0,-322.0,208.0,252.0,1
-32.0,-377.0,-77.0,-242.0,181.0,310.0,1
-29.0,-359.0,-84.0,-138.0,157.0,358.0,1
-19.0,-341.0,-89.0,-26.0,139.0,388.0,1
-14.0,-324.0,-96.0,100.0,141.0,406.0,1
-2.0,-307.0,-95.0,224.0,161.0,409.0,1
3.0,-282.0,-92.0,324.0,197.0,401.0,1
11.0,-258.0,-86.0,400.0,236.0,384.0,1
16.0,-240.0,-77.0,449.0,266.0,364.0,1
29.0,-221.0,-77.0,466.0,288.0,345.0,1
35.0,-207.0,-64.0,458.0,300.0,326.0,1
42.0,-195.0,-57.0,429.0,305.0,305.0,1
47.0,-195.0,-50.0,382.0,307.0,283.0,1
45.0,-197.0,-44.0,318.0,309.0,259.0,1
43.0,-204.0,-34.0,241.0,317.0,232.0,1
41.0,-212.0,-27.0,151.0,325.0,203.0,1
34.0,-226.0,-20.0,52.0,333.0,173.0,1
31.0,-231.0,-9.0,-48.0,334.0,140.0,1
22.0,-250.0,1.0,-145.0,324.0,103.0,1
17.0,-262.0,3.0,-228.0,298.0,68.0,1
9.0,-274.0,1.0,-292.0,253.0,30.0,1
0.0,-287.0,-6.0,-328.0,197.0,-7.0,1
-7.0,-296.0,-8.0,-344.0,132.0,-41.0,1
-13.0,-301.0,-14.0,-337.0,65.0,-76.0,1
-16.0,-309.0,-19.0,-313.0,1.0,-111.0,1
-19.0,-310.0,-23.0,-278.0,-55.0,-149.0,1
-26.0,-305.0,-25.0,-238.0,-93.0,-185.0,1
-32.0,-302.0,-28.0,-197.0,-121.0,-211.0,1
-35.0,-296.0,-29.0,-149.0,-134.0,-229.0,1
-41.0,-286.0,-32.0,-97.0,-143.0,-236.0,1
-42.0,-274.0,-29.0,-54.0,-148.0,-235.0,1
-47.0,-264.0,-31.0,-16.0,-153.0,-230.0,1
-45.0,-252.0,-33.0,8.0,-161.0,-220.0,1
-47.0,-242.0,-32.0,18.0,-173.0,-206.0,1
-44.0,-233.0,-30.0,15.0,-190.0,-192.0,1
-40.0,-219.0,-32.0,-4.0,-206.0,-184.0,1
-36.0,-210.0,-32.0,-35.0,-219.0,-175.0,1
-29.0,-202.0,-26.0,-68.0,-225.0,-172.0,1
-19.0,-197.0,-26.0,-96.0,-230.0,-173.0,1
-13.0,-183.0,-26.0,-104.0,-237.0,-184.0,1
-4.0,-182.0,-24.0,-111.0,-239.0,-192.0,1
1.0,-176.0,-24.0,-119.0,-239.0,-199.0,1
7.0,-168.0,-25.0,-128.0,-246.0,-211.0,1
11.0,-163.0,-20.0,-127.0,-253.0,-219.0,1
20.0,-157.0,-19.0,-120.0,-264.0,-226.0,1
26.0,-160.0,-17.0,-113.0,-273.0,-227.0,1
27.0,-161.0,-10.0,-101.0,-289.0,-230.0,1
33.0,-165.0,-11.0,-83.0,-311.0,-233.0,1
33.0,-166.0,-10.0,-65.0,-336.0,-236.0,1
33.0,-170.0,-7.0,-51.0,-359.0,-232.0,1
31.0,-178.0,-5.0,-47.0,-381.0,-220.0,1
29.0,-181.0,2.0,-47.0,-408.0,-204.0,1
31.0,-189.0,3.0,-53.0,-435.0,-182.0,1
33.0,-195.0,6.0,-57.0,-466.0,-160.0,1
27.0,-202.0,5.0,-60.0,-495.0,-139.0,1
28.0,-208.0,9.0,-68.0,-525.0,-118.0,1
32.0,-216.0,9.0,-73.0,-550.0,-98.0,1
28.0,-220.0,10.0,-70.0,-576.0,-84.0,1
24.0,-224.0,11.0,-71.0,-600.0,-61.0,1
20.0,-230.0,11.0,-73.0,-621.0,-37.0,1
18.0,-233.0,17.0,-71.0,-639.0,-9.0,1
12.0,-227.0,10.0,-63.0,-650.0,23.0,1
11.0,-235.0,25.0,-51.0,-657.0,64.0,1
4.0,-230.0,28.0,-33.0,-657.0,108.0,1
0.0,-226.0,34.0,-11.0,-653.0,158.0,1
-5.0,-223.0,47.0,16.0,-651.0,211.0,1
-11.0,-221.0,53.0,48.0,-652.0,268.0,1
-15.0,-218.0,60.0,89.0,-657.0,322.0,1
-16.0,-214.0,61.0,134.0,-658.0,370.0,1
-16.0,-211.0,67.0,176.0,-656.0,413.0,1
-14.0,-207.0,66.0,210.0,-646.0,450.0,1
-17.0,-200.0,52.0,227.0,-631.0,479.0,1
-13.0,-200.0,51.0,226.0,-612.0,497.0,1
-9.0,-199.0,47.0,209.0,-588.0,499.0,1
-5.0,-203.0,36.0,177.0,-553.0,493.0,1
-2.0,-202.0,30.0,128.0,-518.0,477.0,1
0.0,-205.0,23.0,71.0,-481.0,454.0,1
2.0,-206.0,15.0,4.0,-447.0,422.0,1
10.0,-214.0,16.0,-58.0,-416.0,386.0,1
22.0,-224.0,14.0,-107.0,-377.0,348.0,1
22.0,-228.0,20.0,-139.0,-326.0,307.0,1
30.0,-244.0,26.0,-155.0,-269.0,256.0,1
35.0,-257.0,34.0,-157.0,-212.0,195.0,1
36.0,-275.0,49.0,-154.0,-160.0,130.0,1
42.0,-291.0,63.0,-141.0,-115.0,64.0,1
47.0,-309.0,75.0,-115.0,-80.0,-1.0,1
50.0,-322.0,82.0,-82.0,-53.0,-68.0,1
53.0,-334.0,85.0,-48.0,-33.0,-140.0,1
52.0,-340.0,89.0,-10.0,-17.0,-211.0,1
51.0,-339.0,95.0,34.0,-7.0,-275.0,1
50.0,-334.0,91.0,87.0,5.0,-325.0,1
49.0,-321.0,89.0,135.0,17.0,-354.0,1
45.0,-309.0,89.0,184.0,21.0,-363.0,1
41.0,-292.0,86.0,230.0,17.0,-348.0,1
39.0,-276.0,79.0,259.0,3.0,-322.0,1
32.0,-263.0,72.0,270.0,-21.0,-284.0,1
30.0,-251.0,63.0,255.0,-48.0,-244.0,1
17.0,-248.0,49.0,213.0,-67.0,-207.0,1
8.0,-247.0,40.0,142.0,-65.0,-178.0,1
3.0,-253.0,28.0,40.0,-48.0,-162.0,1
-4.0,-259.0,21.0,-84.0,-21.0,-163.0,1
-7.0,-274.0,15.0,-219.0,8.0,-171.0,1
-10.0,-289.0,7.0,-350.0,33.0,-183.0,1
-2.0,-306.0,-1.0,-466.0,54.0,-197.0,1
5.0,-323.0,-1.0,-566.0,79.0,-214.0,1
10.0,-342.0,-8.0,-629.0,102.0,-226.0,1
8.0,-354.0,-7.0,-666.0,122.0,-239.0,1
17.0,-368.0,-6.0,-657.0,138.0,-243.0,1
16.0,-372.0,-9.0,-604.0,153.0,-241.0,1
19.0,-371.0,-13.0,-523.0,168.0,-227.0,1
21.0,-370.0,-13.0,-423.0,176.0,-204.0,1
27.0,-365.0,-32.0,-315.0,173.0,-177.0,1
28.0,-356.0,-44.0,-222.0,161.0,-143.0,1
30.0,-349.0,-59.0,-152.0,133.0,-102.0,1
25.0,-328.0,-69.0,-95.0,86.0,-54.0,1
19.0,-315.0,-82.0,-51.0,22.0,-9.0,1
9.0,-299.0,-88.0,-14.0,-57.0,36.0,1
-2.0,-282.0,-98.0,16.0,-141.0,73.0,1
-12.0,-259.0,-106.0,37.0,-219.0,103.0,1
-18.0,-243.0,-108.0,51.0,-289.0,126.0,1
-22.0,-224.0,-105.0,53.0,-331.0,140.0,1
-32.0,-208.0,-102.0,45.0,-368.0,140.0,1
-36.0,-201.0,-99.0,20.0,-392.0,131.0,1
-41.0,-190.0,-86.0,-23.0,-408.0,111.0,1
-44.0,-187.0,-75.0,-77.0,-419.0,89.0,1
-52.0,-189.0,-73.0,-135.0,-424.0,66.0,1
-46.0,-194.0,-57.0,-200.0,-421.0,43.0,1
-42.0,-202.0,-48.0,-259.0,-409.0,24.0,1
-39.0,-213.0,-41.0,-307.0,-383.0,4.0,1
-37.0,-217.0,-36.0,-343.0,-350.0,-14.0,1
-33.0,-231.0,-33.0,-372.0,-306.0,-26.0,1
-29.0,-235.0,-29.0,-397.0,-258.0,-34.0,1
-25.0,-243.0,-31.0,-416.0,-205.0,-40.0,1
-17.0,-249.0,-38.0,-438.0,-151.0,-37.0,1
-15.0,-255.0,-36.0,-457.0,-97.0,-29.0,1
-12.0,-263.0,-36.0,-472.0,-48.0,-11.0,1
-6.0,-270.0,-33.0,-482.0,-7.0,13.0,1
-1.0,-278.0,-32.0,-486.0,28.0,43.0,1
2.0,-283.0,-29.0,-480.0,52.0,79.0,1
12.0,-293.0,-25.0,-467.0,67.0,118.0,1
16.0,-293.0,-24.0,-440.0,76.0,160.0,1
17.0,-297.0,-15.0,-403.0,80.0,196.0,1
17.0,-298.0,-12.0,-354.0,78.0,236.0,1
21.0,-297.0,-14.0,-298.0,69.0,278.0,1
24.0,-289.0,-14.0,-242.0,56.0,315.0,1
20.0,-280.0,-14.0,-191.0,40.0,350.0,1
14.0,-270.0,-20.0,-146.0,22.0,379.0,1
14.0,-262.0,-21.0,-111.0,3.0,408.0,1
8.0,-253.0,-24.0,-91.0,-14.0,430.0,1
6.0,-240.0,-22.0,-86.0,-29.0,451.0,1
-5.0,-231.0,-23.0,-95.0,-37.0,466.0,1
-5.0,-221.0,-20.0,-104.0,-45.0,494.0,1
4.0,-215.0,-26.0,-112.0,-50.0,509.0,1
-2.0,-207.0,-23.0,-121.0,-33.0,493.0,1
0.0,-198.0,-25.0,-129.0,-2.0,474.0,1
-9.0,-190.0,-18.0,-138.0,38.0,448.0,1
-7.0,-189.0,-19.0,-145.0,76.0,428.0,1
-8.0,-185.0,-21.0,-154.0,113.0,406.0,1
-7.0,-184.0,-24.0,-168.0,149.0,378.0,1
-11.0,-186.0,-23.0,-185.0,182.0,347.0,1
-11.0,-190.0,-18.0,-202.0,210.0,319.0,1
-10.0,-192.0,-14.0,-209.0,240.0,290.0,1
-9.0,-195.0,-10.0,-214.0,269.0,255.0,1
-14.0,-200.0,-7.0,-213.0,297.0,222.0,1
-14.0,-206.0,0.0,-206.0,321.0,196.0,1
-13.0,-210.0,1.0,-196.0,349.0,180.0,1
-13.0,-217.0,4.0,-185.0,381.0,158.0,1
-10.0,-223.0,7.0,-172.0,422.0,137.0,1
-15.0,-226.0,7.0,-158.0,468.0,120.0,1
-11.0,-233.0,5.0,-144.0,517.0,112.0,1
-14.0,-234.0,6.0,-136.0,559.0,108.0,1
-16.0,-235.0,4.0,-139.0,593.0,100.0,1
-18.0,-240.0,6.0,-149.0,611.0,96.0,1
-15.0,-241.0,8.0,-154.0,619.0,102.0,1
-18.0,-237.0,13.0,-161.0,614.0,108.0,1
-16.0,-239.0,12.0,-170.0,601.0,114.0,1
-16.0,-238.0,14.0,-176.0,585.0,121.0,1
-16.0,-237.0,19.0,-177.0,575.0,128.0,1
-16.0,-235.0,25.0,-176.0,567.0,132.0,1
-17.0,-234.0,25.0,-168.0,567.0,131.0,1
-14.0,-231.0,30.0,-156.0,573.0,123.0,1
-14.0,-229.0,32.0,-144.0,583.0,105.0,1
-14.0,-228.0,38.0,-126.0,598.0,83.0,1
-10.0,-231.0,43.0,-105.0,612.0,58.0,1
-11.0,-233.0,50.0,-81.0,629.0,32.0,1
-11.0,-236.0,55.0,-57.0,645.0,3.0,1
-15.0,-238.0,63.0,-30.0,659.0,-28.0,1
-16.0,-239.0,61.0,-2.0,676.0,-61.0,1
-16.0,-243.0,63.0,26.0,696.0,-93.0,1
-19.0,-246.0,63.0,58.0,718.0,-126.0,1
-20.0,-248.0,58.0,95.0,736.0,-155.0,1
-24.0,-248.0,56.0,130.0,745.0,-179.0,1
-30.0,-245.0,56.0,162.0,739.0,-198.0,1
-29.0,-246.0,54.0,189.0,726.0,-209.0,1
-32.0,-241.0,45.0,213.0,708.0,-215.0,1
-34.0,-241.0,44.0,240.0,692.0,-216.0,1
-28.0,-239.0,41.0,261.0,678.0,-216.0,1
-30.0,-235.0,42.0,280.0,664.0,-216.0,1
-26.0,-232.0,43.0,289.0,650.0,-217.0,1
-25.0,-231.0,39.0,288.0,638.0,-219.0,1
-26.0,-231.0,49.0,279.0,624.0,-224.0,1
-25.0,-229.0,46.0,266.0,614.0,-234.0,1
-27.0,-230.0,51.0,254.0,600.0,-245.0,1
-27.0,-229.0,53.0,244.0,578.0,-255.0,1
-28.0,-232.0,56.0,231.0,546.0,-263.0,1
-35.0,-234.0,60.0,217.0,506.0,-264.0,1
-36.0,-240.0,54.0,203.0,459.0,-257.0,1
-40.0,-242.0,49.0,187.0,405.0,-245.0,1
-41.0,-247.0,34.0,164.0,345.0,-223.0,1
-48.0,-249.0,17.0,119.0,280.0,-198.0,1
-52.0,-255.0,6.0,54.0,217.0,-169.0,1
-60.0,-260.0,-9.0,-18.0,162.0,-136.0,1
-66.0,-275.0,-25.0,-87.0,114.0,-101.0,1
-68.0,-288.0,-27.0,-142.0,76.0,-64.0,1
-71.0,-300.0,-34.0,-178.0,52.0,-29.0,1
-70.0,-322.0,-34.0,-193.0,38.0,8.0,1
-76.0,-334.0,-34.0,-191.0,29.0,45.0,1
-75.0,-358.0,-25.0,-176.0,22.0,89.0,1
-77.0,-374.0,-15.0,-156.0,16.0,135.0,1
-70.0,-387.0,-10.0,-129.0,5.0,184.0,1
-62.0,-396.0,-5.0,-87.0,-9.0,231.0,1
-60.0,-406.0,-4.0,-32.0,-24.0,275.0,1
-51.0,-409.0,-15.0,34.0,-44.0,318.0,1
-45.0,-402.0,-31.0,111.0,-71.0,353.0,1
-30.0,-390.0,-58.0,185.0,-99.0,367.0,1
-17.0,-375.0,-90.0,237.0,-133.0,354.0,1
0.0,-364.0,-122.0,252.0,-166.0,315.0,1
11.0,-344.0,-151.0,220.0,-183.0,252.0,1
25.0,-325.0,-165.0,145.0,-171.0,189.0,1
29.0,-310.0,-167.0,48.0,-120.0,124.0,1
38.0,-300.0,-159.0,-43.0,-47.0,71.0,1
46.0,-281.0,-145.0,-105.0,40.0,28.0,1
54.0,-270.0,-128.0,-134.0,126.0,-6.0,1
56.0,-260.0,-115.0,-134.0,201.0,-34.0,1
59.0,-247.0,-94.0,-111.0,260.0,-56.0,1
62.0,-242.0,-82.0,-65.0,301.0,-72.0,1
62.0,-234.0,-67.0,-1.0,320.0,-86.0,1
62.0,-233.0,-60.0,66.0,319.0,-100.0,1
54.0,-234.0,-56.0,118.0,300.0,-109.0,1
49.0,-240.0,-50.0,146.0,269.0,-112.0,1
38.0,-243.0,-53.0,150.0,225.0,-110.0,1
29.0,-251.0,-48.0,136.0,176.0,-102.0,1
15.0,-259.0,-52.0,108.0,123.0,-93.0,1
4.0,-265.0,-49.0,72.0,73.0,-82.0,1
-8.0,-272.0,-51.0,35.0,24.0,-71.0,1
-18.0,-274.0,-51.0,1.0,-24.0,-62.0,1
-28.0,-278.0,-48.0,-29.0,-71.0,-48.0,1
-38.0,-284.0,-49.0,-59.0,-117.0,-35.0,1
-42.0,-291.0,-45.0,-84.0,-155.0,-24.0,1
-43.0,-299.0,-50.0,-89.0,-187.0,-24.0,1
-46.0,-299.0,-44.0,-81.0,-201.0,-25.0,1
-45.0,-304.0,-35.0,-56.0,-198.0,-32.0,1
-43.0,-302.0,-32.0,-16.0,-185.0,-44.0,1
-39.0,-302.0,-24.0,38.0,-169.0,-56.0,1
-33.0,-302.0,-16.0,96.0,-153.0,-77.0,1
-29.0,-292.0,-13.0,162.0,-141.0,-99.0,1
-18.0,-282.0,-16.0,216.0,-129.0,-117.0,1
-16.0,-269.0,-15.0,241.0,-114.0,-142.0,1
-13.0,-264.0,-12.0,245.0,-98.0,-166.0,1
-6.0,-253.0,-18.0,240.0,-83.0,-192.0,1
-6.0,-245.0,-14.0,228.0,-65.0,-219.0,1
-1.0,-232.0,-20.0,211.0,-44.0,-242.0,1
1.0,-221.0,-23.0,187.0,-17.0,-268.0,1
9.0,-213.0,-28.0,158.0,9.0,-286.0,1
13.0,-200.0,-28.0,117.0,34.0,-303.0,1
18.0,-193.0,-29.0,73.0,56.0,-321.0,1
21.0,-188.0,-27.0,39.0,75.0,-340.0,1
30.0,-189.0,-26.0,15.0,91.0,-357.0,1
34.0,-187.0,-21.0,1.0,101.0,-375.0,1
37.0,-186.0,-18.0,-4.0,105.0,-390.0,1
37.0,-185.0,-14.0,0.0,100.0,-409.0,1
41.0,-188.0,-17.0,5.0,91.0,-422.0,1
44.0,-191.0,-12.0,7.0,77.0,-433.0,1
42.0,-191.0,-8.0,6.0,56.0,-441.0,1
40.0,-194.0,-8.0,1.0,28.0,-441.0,1
35.0,-200.0,-5.0,-4.0,-5.0,-436.0,1
33.0,-209.0,-5.0,-13.0,-44.0,-422.0,1
24.0,-215.0,-4.0,-27.0,-84.0,-405.0,1
19.0,-221.0,-4.0,-42.0,-126.0,-385.0,1
14.0,-226.0,-2.0,-61.0,-166.0,-366.0,1
9.0,-232.0,-3.0,-82.0,-202.0,-352.0,1
9.0,-235.0,-1.0,-97.0,-230.0,-340.0,1
3.0,-240.0,0.0,-104.0,-250.0,-333.0,1
-2.0,-241.0,-2.0,-102.0,-266.0,-331.0,1
-4.0,-242.0,-3.0,-90.0,-274.0,-332.0,1
-9.0,-242.0,-4.0,-75.0,-277.0,-334.0,1
-16.0,-240.0,-2.0,-54.0,-280.0,-338.0,1
-16.0,-240.0,-5.0,-32.0,-289.0,-331.0,1
-19.0,-238.0,8.0,-13.0,-298.0,-318.0,1
-19.0,-231.0,7.0,7.0,-316.0,-309.0,1
-18.0,-232.0,10.0,18.0,-338.0,-298.0,1
-20.0,-224.0,11.0,19.0,-357.0,-282.0,1
-16.0,-223.0,15.0,7.0,-372.0,-262.0,1
-13.0,-220.0,14.0,-9.0,-380.0,-244.0,1
-12.0,-215.0,12.0,-26.0,-380.0,-229.0,1
-11.0,-214.0,14.0,-41.0,-380.0,-214.0,1
0.0,-215.0,13.0,-58.0,-383.0,-200.0,1
3.0,-207.0,13.0,-76.0,-390.0,-185.0,1
7.0,-203.0,18.0,-95.0,-399.0,-172.0,1
7.0,-204.0,15.0,-112.0,-416.0,-157.0,1
15.0,-205.0,15.0,-130.0,-437.0,-138.0,1
20.0,-207.0,19.0,-144.0,-454.0,-122.0,1
23.0,-203.0,20.0,-154.0,-469.0,-105.0,1
26.0,-208.0,22.0,-158.0,-480.0,-91.0,1
28.0,-209.0,21.0,-154.0,-485.0,-77.0,1
30.0,-212.0,27.0,-150.0,-490.0,-59.0,1
32.0,-212.0,28.0,-141.0,-494.0,-43.0,1
32.0,-215.0,28.0,-133.0,-502.0,-25.0,1
29.0,-218.0,31.0,-129.0,-512.0,-7.0,1
32.0,-222.0,33.0,-129.0,-529.0,12.0,1
31.0,-225.0,40.0,-125.0,-548.0,34.0,1
33.0,-225.0,35.0,-120.0,-562.0,54.0,1
34.0,-226.0,39.0,-117.0,-565.0,74.0,1
34.0,-226.0,35.0,-114.0,-554.0,92.0,1
36.0,-228.0,34.0,-115.0,-533.0,105.0,1
40.0,-228.0,35.0,-110.0,-508.0,114.0,1
41.0,-229.0,39.0,-101.0,-480.0,120.0,1
42.0,-230.0,37.0,-92.0,-457.0,121.0,1
44.0,-230.0,42.0,-81.0,-440.0,122.0,1
43.0,-231.0,43.0,-68.0,-431.0,118.0,1
45.0,-232.0,44.0,-61.0,-427.0,115.0,1
43.0,-233.0,51.0,-58.0,-426.0,107.0,1
45.0,-242.0,58.0,-58.0,-425.0,104.0,1
42.0,-250.0,57.0,-52.0,-433.0,102.0,1
37.0,-251.0,63.0,-48.0,-444.0,100.0,1
41.0,-255.0,63.0,-35.0,-455.0,107.0,1
41.0,-258.0,60.0,-23.0,-463.0,107.0,1
33.0,-258.0,68.0,-23.0,-466.0,104.0,1
32.0,-262.0,68.0,-24.0,-463.0,103.0,1
28.0,-267.0,71.0,-20.0,-453.0,101.0,1
25.0,-260.0,70.0,-8.0,-445.0,106.0,1
26.0,-260.0,70.0,7.0,-436.0,105.0,1
22.0,-258.0,71.0,19.0,-424.0,95.0,1
22.0,-252.0,70.0,25.0,-407.0,88.0,1
21.0,-252.0,66.0,33.0,-387.0,80.0,1
19.0,-247.0,61.0,38.0,-369.0,72.0,1
23.0,-247.0,53.0,49.0,-345.0,71.0,1
30.0,-247.0,51.0,51.0,-319.0,69.0,1
28.0,-241.0,43.0,50.0,-291.0,68.0,1
33.0,-242.0,26.0,45.0,-256.0,68.0,1
37.0,-239.0,9.0,14.0,-209.0,69.0,1
43.0,-236.0,-9.0,-41.0,-153.0,68.0,1
52.0,-243.0,-20.0,-127.0,-84.0,64.0,1
54.0,-244.0,-37.0,-228.0,-6.0,57.0,1
62.0,-246.0,-52.0,-348.0,72.0,42.0,1
72.0,-257.0,-56.0,-478.0,150.0,24.0,1
82.0,-270.0,-58.0,-602.0,220.0,-5.0,1
91.0,-281.0,-58.0,-705.0,276.0,-43.0,1
97.0,-304.0,-50.0,-800.0,318.0,-80.0,1
103.0,-313.0,-43.0,-866.0,345.0,-124.0,1
107.0,-335.0,-29.0,-909.0,360.0,-168.0,1
104.0,-350.0,-17.0,-919.0,354.0,-211.0,1
103.0,-366.0,-8.0,-889.0,327.0,-258.0,1
97.0,-377.0,-4.0,-819.0,292.0,-286.0,1
87.0,-386.0,-3.0,-727.0,251.0,-311.0,1
71.0,-395.0,-4.0,-612.0,200.0,-336.0,1
53.0,-391.0,-25.0,-486.0,154.0,-354.0,1
27.0,-390.0,-33.0,-371.0,126.0,-362.0,1
-1.0,-375.0,-53.0,-255.0,108.0,-338.0,1
-26.0,-374.0,-65.0,-157.0,101.0,-280.0,1
-46.0,-360.0,-76.0,-58.0,82.0,-208.0,1
-63.0,-336.0,-96.0,37.0,52.0,-122.0,1
-79.0,-309.0,-118.0,104.0,22.0,-29.0,1
-87.0,-290.0,-124.0,123.0,-13.0,73.0,1
-86.0,-268.0,-123.0,100.0,-52.0,165.0,1
-85.0,-251.0,-124.0,58.0,-101.0,235.0,1
-86.0,-235.0,-118.0,12.0,-151.0,285.0,1
-85.0,-216.0,-111.0,-31.0,-198.0,312.0,1
-85.0,-204.0,-107.0,-81.0,-242.0,328.0,1
-83.0,-192.0,-96.0,-138.0,-274.0,337.0,1
-78.0,-190.0,-89.0,-196.0,-299.0,339.0,1
-77.0,-186.0,-79.0,-252.0,-311.0,334.0,1
-78.0,-175.0,-81.0,-310.0,-318.0,324.0,1
-66.0,-182.0,-68.0,-387.0,-315.0,325.0,1
-60.0,-188.0,-66.0,-461.0,-301.0,317.0,1
-44.0,-203.0,-55.0,-516.0,-278.0,295.0,1
-29.0,-218.0,-51.0,-532.0,-238.0,258.0,1
-21.0,-229.0,-47.0,-513.0,-180.0,209.0,1
-10.0,-235.0,-49.0,-471.0,-108.0,160.0,1
-2.0,-239.0,-51.0,-423.0,-22.0,113.0,1
8.0,-242.0,-53.0,-380.0,63.0,77.0,1
15.0,-251.0,-48.0,-353.0,138.0,50.0,1
27.0,-259.0,-46.0,-333.0,188.0,25.0,1
33.0,-269.0,-44.0,-312.0,220.0,5.0,1
38.0,-280.0,-45.0,-296.0,234.0,-1.0,1
47.0,-288.0,-36.0,-290.0,232.0,6.0,1
51.0,-295.0,-33.0,-293.0,227.0,15.0,1
51.0,-301.0,-28.0,-293.0,220.0,31.0,1
48.0,-298.0,-22.0,-288.0,210.0,54.0,1
48.0,-302.0,-17.0,-279.0,196.0,80.0,1
44.0,-295.0,-18.0,-258.0,179.0,107.0,1
35.0,-289.0,-13.0,-237.0,166.0,140.0,1
30.0,-285.0,-9.0,-209.0,157.0,171.0,1
22.0,-274.0,-13.0,-170.0,151.0,200.0,1
17.0,-271.0,-14.0,-140.0,146.0,229.0,1
9.0,-261.0,-12.0,-115.0,145.0,251.0,1
1.0,-243.0,-25.0,-86.0,144.0,264.0,1
1.0,-240.0,-28.0,-77.0,146.0,280.0,1
-9.0,-227.0,-34.0,-82.0,155.0,288.0,1
-14.0,-223.0,-35.0,-94.0,166.0,295.0,1
-16.0,-216.0,-34.0,-107.0,179.0,295.0,1
-20.0,-210.0,-39.0,-117.0,194.0,293.0,1
-27.0,-207.0,-40.0,-127.0,210.0,287.0,1
-23.0,-207.0,-32.0,-137.0,226.0,277.0,1
-28.0,-201.0,-34.0,-135.0,243.0,257.0,1
-30.0,-197.0,-29.0,-130.0,257.0,236.0,1
-34.0,-193.0,-33.0,-127.0,271.0,217.0,1
-29.0,-195.0,-26.0,-136.0,281.0,203.0,1
-32.0,-195.0,-27.0,-140.0,290.0,185.0,1
-38.0,-191.0,-25.0,-148.0,299.0,173.0,1
-33.0,-204.0,-16.0,-164.0,299.0,165.0,1
-35.0,-200.0,-24.0,-159.0,285.0,151.0,1
-31.0,-210.0,-15.0,-157.0,269.0,143.0,1
-30.0,-212.0,-24.0,-136.0,248.0,124.0,1
-27.0,-218.0,-21.0,-108.0,228.0,109.0,1
-32.0,-215.0,-25.0,-88.0,209.0,103.0,1
-25.0,-216.0,-29.0,-108.0,192.0,111.0,1
-29.0,-215.0,-28.0,-139.0,176.0,111.0,1
-25.0,-224.0,-26.0,-178.0,165.0,118.0,1
-24.0,-226.0,-24.0,-216.0,154.0,119.0,1
-25.0,-233.0,-19.0,-234.0,145.0,113.0,1
-25.0,-235.0,-23.0,-246.0,141.0,115.0,1
-21.0,-239.0,-15.0,-253.0,144.0,116.0,1
-23.0,-239.0,-12.0,-242.0,146.0,116.0,1
-21.0,-241.0,-5.0,-218.0,155.0,119.0,1
-18.0,-241.0,-10.0,-177.0,162.0,116.0,1
-17.0,-240.0,-13.0,-144.0,164.0,111.0,1
-17.0,-239.0,-7.0,-116.0,162.0,106.0,1
-14.0,-235.0,-6.0,-95.0,158.0,103.0,1
-16.0,-230.0,-9.0,-79.0,151.0,96.0,1
-18.0,-230.0,-7.0,-75.0,144.0,94.0,1
-19.0,-228.0,-8.0,-73.0,139.0,93.0,1
-17.0,-227.0,-12.0,-74.0,135.0,90.0,1
-19.0,-224.0,-9.0,-74.0,134.0,83.0,1
-19.0,-221.0,-7.0,-77.0,136.0,75.0,1
-18.0,-221.0,-9.0,-88.0,138.0,69.0,1
-24.0,-218.0,-7.0,-103.0,137.0,53.0,1
-17.0,-216.0,-6.0,-124.0,129.0,41.0,1
-19.0,-213.0,-12.0,-153.0,117.0,23.0,1
-14.0,-216.0,-6.0,-190.0,99.0,-1.0,1
-16.0,-215.0,-2.0,-224.0,79.0,-26.0,1
-18.0,-215.0,0.0,-237.0,58.0,-43.0,1
-19.0,-214.0,4.0,-233.0,27.0,-55.0,1
-23.0,-212.0,2.0,-215.0,-7.0,-71.0,1
-25.0,-206.0,-1.0,-192.0,-41.0,-77.0,1
-24.0,-207.0,-5.0,-182.0,-66.0,-78.0,1
-30.0,-207.0,6.0,-175.0,-84.0,-72.0,1
-29.0,-213.0,7.0,-166.0,-97.0,-68.0,1
-36.0,-217.0,8.0,-156.0,-106.0,-63.0,1
-32.0,-219.0,10.0,-149.0,-115.0,-60.0,1
-35.0,-224.0,9.0,-144.0,-120.0,-60.0,1
-29.0,-226.0,10.0,-148.0,-128.0,-61.0,1
-28.0,-231.0,15.0,-152.0,-136.0,-62.0,1
-28.0,-229.0,13.0,-157.0,-149.0,-65.0,1
-25.0,-229.0,12.0,-161.0,-163.0,-65.0,1
-20.0,-230.0,13.0,-172.0,-178.0,-60.0,1
-16.0,-233.0,12.0,-177.0,-191.0,-56.0,1
-12.0,-232.0,16.0,-172.0,-202.0,-49.0,1
-12.0,-229.0,14.0,-169.0,-207.0,-40.0,1
-10.0,-234.0,12.0,-172.0,-207.0,-27.0,1
-3.0,-236.0,18.0,-176.0,-201.0,-13.0,1
-12.0,-229.0,18.0,-171.0,-196.0,-4.0,1
-5.0,-236.0,19.0,-171.0,-185.0,9.0,1
-6.0,-232.0,15.0,-174.0,-172.0,17.0,1
-1.0,-240.0,21.0,-189.0,-158.0,26.0,1
0.0,-241.0,21.0,-199.0,-140.0,29.0,1
3.0,-239.0,18.0,-203.0,-117.0,28.0,1
3.0,-232.0,13.0,-224.0,-91.0,30.0,1
-2.0,-236.0,16.0,-264.0,-70.0,22.0,1
3.0,-231.0,14.0,-288.0,-54.0,6.0,1
5.0,-224.0,10.0,-305.0,-32.0,-8.0,1
4.0,-218.0,15.0,-299.0,-13.0,-27.0,1
9.0,-213.0,12.0,-297.0,-1.0,-44.0,1
7.0,-205.0,10.0,-304.0,5.0,-57.0,1
7.0,-207.0,9.0,-311.0,4.0,-65.0,1
8.0,-194.0,9.0,-318.0,2.0,-68.0,1
7.0,-201.0,10.0,-356.0,8.0,-67.0,1
4.0,-197.0,3.0,-394.0,17.0,-68.0,1
-4.0,-203.0,8.0,-440.0,38.0,-64.0,1
-7.0,-205.0,8.0,-478.0,59.0,-71.0,1
-11.0,-204.0,-1.0,-507.0,83.0,-67.0,1
-13.0,-208.0,-13.0,-548.0,111.0,-59.0,1
-15.0,-208.0,-25.0,-607.0,136.0,-54.0,1
-16.0,-214.0,-33.0,-660.0,159.0,-48.0,1
-11.0,-212.0,-45.0,-699.0,172.0,-49.0,1
-10.0,-208.0,-55.0,-740.0,179.0,-63.0,1
-11.0,-204.0,-64.0,-782.0,181.0,-66.0,1
-8.0,-203.0,-73.0,-837.0,181.0,-68.0,1
-11.0,-185.0,-95.0,-900.0,177.0,-75.0,1
-14.0,-167.0,-122.0,-1030.0,173.0,-72.0,1
-10.0,-182.0,-129.0,-1237.0,168.0,-70.0,1
-19.0,-211.0,-127.0,-1424.0,144.0,-112.0,1
-34.0,-211.0,-145.0,-1496.0,109.0,-151.0,1
-28.0,-235.0,-147.0,-1509.0,98.0,-143.0,1
-36.0,-211.0,-169.0,-1468.0,86.0,-174.0,1
-47.0,-236.0,-155.0,-1414.0,82.0,-202.0,1
-42.0,-215.0,-174.0,-1279.0,88.0,-208.0,1
-39.0,-204.0,-177.0,-1159.0,107.0,-195.0,1
-30.0,-193.0,-179.0,-1088.0,129.0,-185.0,1
-28.0,-182.0,-183.0,-1055.0,141.0,-181.0,1
-21.0,-170.0,-186.0,-1051.0,148.0,-176.0,1
-12.0,-161.0,-190.0,-1075.0,148.0,-167.0,1
-4.0,-154.0,-196.0,-1116.0,143.0,-157.0,1
5.0,-145.0,-198.0,-1170.0,130.0,-141.0,1
8.0,-140.0,-199.0,-1242.0,110.0,-127.0,1
15.0,-135.0,-201.0,-1321.0,85.0,-111.0,1
18.0,-133.0,-194.0,-1399.0,61.0,-92.0,1
23.0,-134.0,-193.0,-1473.0,41.0,-68.0,1
21.0,-133.0,-193.0,-1542.0,30.0,-43.0,1
20.0,-133.0,-193.0,-1615.0,29.0,-18.0,1
25.0,-136.0,-197.0,-1685.0,30.0,7.0,1
25.0,-141.0,-195.0,-1755.0,39.0,34.0,1
27.0,-144.0,-186.0,-1821.0,52.0,59.0,1
23.0,-151.0,-189.0,-1879.0,66.0,82.0,1
25.0,-154.0,-182.0,-1935.0,80.0,99.0,1
24.0,-163.0,-179.0,-1986.0,90.0,110.0,1
22.0,-166.0,-173.0,-2026.0,98.0,120.0,1
16.0,-169.0,-169.0,-2050.0,98.0,135.0,1
12.0,-175.0,-167.0,-2060.0,98.0,157.0,1
7.0,-169.0,-167.0,-2064.0,93.0,170.0,1
1.0,-171.0,-159.0,-2064.0,91.0,178.0,1
1.0,-175.0,-158.0,-2054.0,86.0,179.0,1
-1.0,-182.0,-152.0,-2044.0,87.0,172.0,1
-1.0,-186.0,-151.0,-2028.0,100.0,170.0,1
-2.0,-193.0,-141.0,-1998.0,124.0,167.0,1
2.0,-206.0,-136.0,-1938.0,160.0,166.0,1
6.0,-210.0,-133.0,-1864.0,213.0,170.0,1
0.0,-219.0,-133.0,-1793.0,285.0,163.0,1
6.0,-228.0,-127.0,-1738.0,357.0,159.0,1
-1.0,-233.0,-125.0,-1723.0,428.0,143.0,1
-2.0,-236.0,-129.0,-1710.0,486.0,121.0,1
-4.0,-238.0,-121.0,-1704.0,525.0,110.0,1
-6.0,-240.0,-120.0,-1717.0,551.0,111.0,1
3.0,-246.0,-107.0,-1766.0,561.0,100.0,1
-4.0,-253.0,-86.0,-1812.0,549.0,77.0,1
7.0,-258.0,-78.0,-1814.0,518.0,81.0,1
4.0,-260.0,-66.0,-1789.0,481.0,82.0,1
-3.0,-248.0,-58.0,-1750.0,434.0,93.0,1
-8.0,-264.0,-44.0,-1713.0,371.0,109.0,1
-13.0,-266.0,-41.0,-1652.0,307.0,138.0,1
-5.0,-279.0,-33.0,-1598.0,270.0,166.0,1
-19.0,-285.0,-33.0,-1536.0,261.0,198.0,1
-10.0,-283.0,-50.0,-1493.0,261.0,220.0,1
-16.0,-291.0,-60.0,-1502.0,288.0,232.0,1
-9.0,-290.0,-79.0,-1556.0,326.0,231.0,1
-4.0,-292.0,-90.0,-1648.0,372.0,203.0,1
-6.0,-294.0,-105.0,-1765.0,408.0,170.0,1
5.0,-289.0,-116.0,-1887.0,409.0,105.0,1
11.0,-283.0,-120.0,-2002.0,396.0,21.0,1
20.0,-287.0,-115.0,-2078.0,384.0,-68.0,1
29.0,-285.0,-102.0,-2098.0,379.0,-151.0,1
34.0,-284.0,-94.0,-2059.0,388.0,-225.0,1
43.0,-283.0,-88.0,-1980.0,413.0,-278.0,1
46.0,-276.0,-84.0,-1889.0,447.0,-329.0,1
49.0,-274.0,-79.0,-1801.0,496.0,-365.0,1
51.0,-266.0,-71.0,-1727.0,541.0,-392.0,1
50.0,-258.0,-68.0,-1675.0,587.0,-414.0,1
54.0,-247.0,-71.0,-1645.0,637.0,-440.0,1
48.0,-251.0,-70.0,-1640.0,690.0,-473.0,1
49.0,-252.0,-70.0,-1646.0,749.0,-511.0,1
44.0,-248.0,-69.0,-1655.0,813.0,-546.0,1
40.0,-239.0,-73.0,-1665.0,868.0,-579.0,1
42.0,-238.0,-79.0,-1682.0,907.0,-607.0,1
44.0,-237.0,-87.0,-1711.0,939.0,-631.0,1
46.0,-234.0,-88.0,-1745.0,968.0,-650.0,1
49.0,-226.0,-86.0,-1776.0,993.0,-663.0,1
52.0,-223.0,-81.0,-1801.0,1014.0,-670.0,1
55.0,-214.0,-82.0,-1834.0,1036.0,-686.0,1
61.0,-214.0,-76.0,-1869.0,1064.0,-708.0,1
51.0,-208.0,-65.0,-1895.0,1089.0,-733.0,1
56.0,-206.0,-56.0,-1902.0,1107.0,-756.0,1
59.0,-209.0,-46.0,-1894.0,1138.0,-791.0,1
55.0,-212.0,-39.0,-1865.0,1182.0,-833.0,1
48.0,-207.0,-35.0,-1825.0,1225.0,-876.0,1
46.0,-200.0,-33.0,-1798.0,1243.0,-911.0,1
53.0,-191.0,-51.0,-1787.0,1225.0,-943.0,1
45.0,-179.0,-59.0,-1805.0,1188.0,-983.0,1
54.0,-176.0,-73.0,-1843.0,1128.0,-1024.0,1
54.0,-169.0,-92.0,-1882.0,1059.0,-1071.0,1
46.0,-161.0,-119.0,-1958.0,999.0,-1086.0,1
50.0,-174.0,-148.0,-2057.0,939.0,-1088.0,1
40.0,-181.0,-191.0,-2145.0,881.0,-1121.0,1
29.0,-199.0,-226.0,-2220.0,806.0,-1149.0,1
22.0,-204.0,-248.0,-2271.0,722.0,-1182.0,1
7.0,-219.0,-261.0,-2291.0,618.0,-1186.0,1
4.0,-211.0,-272.0,-2292.0,470.0,-1159.0,1
-3.0,-219.0,-264.0,-2287.0,294.0,-1123.0,1
-16.0,-229.0,-251.0,-2246.0,101.0,-1094.0,1
-43.0,-225.0,-231.0,-2148.0,-83.0,-1102.0,1
-58.0,-191.0,-223.0,-2016.0,-245.0,-1122.0,1
-67.0,-176.0,-202.0,-1948.0,-360.0,-1123.0,1
-87.0,-149.0,-154.0,-1922.0,-478.0,-1114.0,1
-72.0,-133.0,-126.0,-1848.0,-662.0,-1064.0,1
-54.0,-113.0,-115.0,-1712.0,-904.0,-966.0,1
-39.0,-110.0,-126.0,-1532.0,-1196.0,-820.0,1
-32.0,-80.0,-167.0,-1313.0,-1504.0,-700.0,1
-36.0,-44.0,-188.0,-1111.0,-1766.0,-626.0,1
-32.0,-48.0,-189.0,-939.0,-1939.0,-572.0,1
-54.0,3.0,-205.0,-729.0,-2062.0,-586.0,1
-50.0,42.0,-250.0,-542.0,-2149.0,-588.0,1
-56.0,79.0,-297.0,-445.0,-2184.0,-577.0,1
-75.0,119.0,-337.0,-430.0,-2195.0,-589.0,1
-78.0,152.0,-380.0,-501.0,-2173.0,-600.0,1
-87.0,173.0,-399.0,-660.0,-2077.0,-592.0,1
-93.0,193.0,-424.0,-850.0,-1936.0,-588.0,1
-90.0,190.0,-434.0,-1008.0,-1810.0,-560.0,1
-77.0,155.0,-435.0,-1141.0,-1687.0,-504.0,1
-58.0,135.0,-433.0,-1127.0,-1566.0,-384.0,1
-12.0,140.0,-443.0,-985.0,-1468.0,-199.0,1
25.0,146.0,-438.0,-864.0,-1409.0,6.0,1
40.0,139.0,-403.0,-847.0,-1414.0,199.0,1
85.0,110.0,-373.0,-849.0,-1475.0,424.0,1
124.0,86.0,-351.0,-820.0,-1503.0,590.0,1
143.0,68.0,-312.0,-774.0,-1447.0,704.0,1
164.0,47.0,-273.0,-685.0,-1334.0,808.0,1
194.0,33.0,-252.0,-551.0,-1205.0,856.0,1
215.0,-4.0,-225.0,-415.0,-1032.0,850.0,1
239.0,-36.0,-210.0,-258.0,-864.0,821.0,1
266.0,-59.0,-207.0,-43.0,-738.0,796.0,1
286.0,-91.0,-232.0,162.0,-640.0,713.0,1
260.0,-84.0,-243.0,322.0,-503.0,609.0,1
239.0,-75.0,-222.0,396.0,-369.0,550.0,1
238.0,-43.0,-219.0,446.0,-290.0,521.0,1
227.0,-2.0,-222.0,448.0,-259.0,496.0,1
210.0,38.0,-267.0,372.0,-247.0,499.0,1
-1072.0,794.0,-3695.0,-1563.0,1539.0,1086.0,1
222.0,142.0,-323.0,-13902.0,4878.0,3015.0,1
29.0,1366.0,-263.0,-13986.0,5739.0,2015.0,1
58.0,864.0,533.0,-5517.0,1440.0,681.0,1
-44.0,399.0,635.0,-2471.0,-1628.0,920.0,1
95.0,-130.0,138.0,-1565.0,-1686.0,699.0,1
-158.0,261.0,-266.0,-686.0,-1656.0,295.0,1
-89.0,419.0,-146.0,-621.0,-1506.0,253.0,1
-104.0,415.0,-593.0,-265.0,-1362.0,330.0,1
-42.0,405.0,-763.0,-468.0,-1295.0,415.0,1
22.0,308.0,-794.0,-842.0,-1262.0,340.0,1
54.0,127.0,-889.0,-1024.0,-1090.0,206.0,1
161.0,-109.0,-879.0,-1113.0,-872.0,170.0,1
124.0,-231.0,-976.0,-982.0,-867.0,277.0,1
63.0,-314.0,-950.0,-885.0,-699.0,488.0,1
100.0,-413.0,-925.0,-794.0,-461.0,624.0,1
225.0,-413.0,-880.0,-563.0,-149.0,596.0,1
59.0,-270.0,-691.0,-377.0,203.0,483.0,1
-49.0,10.0,-666.0,-167.0,478.0,344.0,1
-55.0,6.0,-560.0,-56.0,586.0,227.0,1
-109.0,85.0,-516.0,57.0,674.0,96.0,1
-71.0,93.0,-501.0,42.0,709.0,37.0,1
-24.0,125.0,-413.0,-31.0,757.0,-75.0,1
-11.0,142.0,-422.0,-57.0,768.0,-157.0,1
32.0,46.0,-373.0,-98.0,710.0,-197.0,1
-23.0,110.0,-358.0,-141.0,725.0,-277.0,1
-13.0,31.0,-315.0,-269.0,730.0,-306.0,1
19.0,6.0,-287.0,-264.0,737.0,-350.0,1
-1.0,18.0,-309.0,-236.0,760.0,-400.0,1
33.0,-46.0,-280.0,-226.0,815.0,-411.0,1
-8.0,-1.0,-258.0,-231.0,856.0,-403.0,1
-46.0,27.0,-233.0,-305.0,852.0,-384.0,1
-26.0,4.0,-205.0,-353.0,874.0,-382.0,1
-79.0,60.0,-226.0,-346.0,882.0,-363.0,1
-75.0,85.0,-220.0,-423.0,813.0,-416.0,1
-87.0,89.0,-202.0,-471.0,730.0,-437.0,1
-58.0,122.0,-189.0,-477.0,742.0,-367.0,1
-58.0,108.0,-200.0,-386.0,720.0,-309.0,1
-62.0,118.0,-218.0,-322.0,655.0,-303.0,1
-62.0,129.0,-225.0,-283.0,573.0,-248.0,1
-12.0,122.0,-230.0,-324.0,512.0,-230.0,1
-44.0,69.0,-203.0,-355.0,474.0,-242.0,1
-73.0,71.0,-198.0,-318.0,462.0,-233.0,1
-55.0,117.0,-236.0,-265.0,465.0,-202.0,1
-36.0,131.0,-252.0,-303.0,467.0,-248.0,1
-32.0,102.0,-248.0,-308.0,434.0,-304.0,1
-41.0,91.0,-232.0,-260.0,420.0,-308.0,1
-47.0,63.0,-225.0,-224.0,413.0,-315.0,1
-67.0,17.0,-195.0,-237.0,403.0,-340.0,1
-27.0,44.0,-232.0,-235.0,406.0,-374.0,1
15.0,77.0,-255.0,-245.0,420.0,-420.0,1
-27.0,59.0,-234.0,-283.0,418.0,-475.0,1
-13.0,103.0,-270.0,-339.0,400.0,-579.0,1
-83.0,56.0,-255.0,-329.0,374.0,-597.0,1
-31.0,60.0,-231.0,-273.0,370.0,-514.0,1
0.0,62.0,-243.0,-183.0,401.0,-521.0,1
-30.0,65.0,-241.0,-109.0,440.0,-576.0,1
11.0,87.0,-287.0,-59.0,489.0,-634.0,1
5.0,85.0,-286.0,-50.0,496.0,-687.0,1
-7.0,-22.0,-255.0,-59.0,505.0,-744.0,1
36.0,38.0,-294.0,-4.0,519.0,-787.0,1
46.0,-9.0,-268.0,5.0,552.0,-894.0,1
47.0,90.0,-311.0,40.0,577.0,-1054.0,1
22.0,25.0,-304.0,97.0,567.0,-1093.0,1
16.0,13.0,-311.0,92.0,547.0,-1104.0,1
58.0,40.0,-328.0,48.0,520.0,-1059.0,1
9.0,49.0,-322.0,36.0,494.0,-987.0,1
50.0,83.0,-365.0,37.0,461.0,-868.0,1
-6.0,64.0,-347.0,54.0,430.0,-719.0,1
-5.0,55.0,-338.0,-2.0,397.0,-614.0,1
15.0,99.0,-350.0,-58.0,383.0,-525.0,1
-3.0,64.0,-303.0,-70.0,398.0,-471.0,1
63.0,123.0,-345.0,-20.0,407.0,-430.0,1
2.0,84.0,-317.0,84.0,415.0,-388.0,1
-5.0,76.0,-293.0,143.0,414.0,-363.0,1
24.0,76.0,-313.0,191.0,412.0,-328.0,1
19.0,84.0,-322.0,205.0,408.0,-293.0,1
2.0,96.0,-304.0,198.0,409.0,-257.0,1
18.0,91.0,-311.0,176.0,416.0,-230.0,1
8.0,83.0,-274.0,134.0,393.0,-215.0,1
75.0,107.0,-295.0,138.0,362.0,-191.0,1
40.0,124.0,-317.0,139.0,350.0,-217.0,1
22.0,127.0,-298.0,104.0,346.0,-197.0,1
12.0,112.0,-271.0,83.0,319.0,-158.0,1
43.0,142.0,-310.0,89.0,276.0,-114.0,1
15.0,120.0,-275.0,27.0,255.0,-91.0,1
28.0,111.0,-266.0,22.0,268.0,-15.0,1
4.0,101.0,-263.0,16.0,253.0,29.0,1
42.0,114.0,-253.0,26.0,255.0,94.0,1
70.0,98.0,-265.0,34.0,235.0,107.0,1
35.0,92.0,-243.0,45.0,219.0,136.0,1
51.0,77.0,-258.0,78.0,204.0,150.0,1
71.0,90.0,-261.0,106.0,174.0,159.0,1
31.0,69.0,-252.0,130.0,164.0,97.0,1
66.0,69.0,-248.0,169.0,135.0,94.0,1
43.0,85.0,-267.0,235.0,111.0,18.0,1
142.0,104.0,-277.0,303.0,84.0,40.0,1
114.0,102.0,-262.0,211.0,134.0,81.0,1
102.0,88.0,-259.0,193.0,156.0,94.0,1
120.0,109.0,-264.0,172.0,167.0,104.0,1
152.0,140.0,-262.0,127.0,189.0,95.0,1
109.0,99.0,-245.0,66.0,234.0,84.0,1
85.0,44.0,-247.0,66.0,272.0,83.0,1
80.0,40.0,-252.0,99.0,260.0,82.0,1
69.0,35.0,-252.0,107.0,237.0,79.0,1
65.0,30.0,-248.0,111.0,209.0,73.0,1
68.0,28.0,-248.0,111.0,182.0,67.0,1
65.0,25.0,-249.0,111.0,161.0,60.0,1
62.0,23.0,-254.0,109.0,140.0,53.0,1
64.0,23.0,-262.0,111.0,129.0,50.0,1
64.0,18.0,-263.0,111.0,114.0,44.0,1
64.0,16.0,-266.0,105.0,101.0,41.0,1
62.0,20.0,-271.0,98.0,86.0,40.0,1
59.0,15.0,-272.0,95.0,73.0,38.0,1
57.0,17.0,-275.0,90.0,53.0,37.0,1
58.0,14.0,-274.0,81.0,31.0,35.0,1
60.0,13.0,-281.0,75.0,13.0,31.0,1
55.0,22.0,-278.0,63.0,-11.0,29.0,1
57.0,20.0,-278.0,63.0,-29.0,29.0,1
54.0,19.0,-284.0,64.0,-49.0,30.0,1
60.0,19.0,-280.0,50.0,-68.0,28.0,1
63.0,14.0,-285.0,50.0,-84.0,28.0,1
58.0,15.0,-283.0,40.0,-103.0,25.0,1
59.0,15.0,-285.0,42.0,-116.0,24.0,1
56.0,19.0,-279.0,34.0,-130.0,20.0,1
62.0,14.0,-286.0,38.0,-145.0,21.0,1
62.0,8.0,-290.0,41.0,-155.0,19.0,1
61.0,18.0,-284.0,32.0,-165.0,16.0,1
56.0,16.0,-286.0,33.0,-174.0,15.0,1
56.0,22.0,-288.0,38.0,-178.0,15.0,1
54.0,14.0,-293.0,34.0,-185.0,13.0,1
51.0,26.0,-281.0,24.0,-190.0,11.0,1
52.0,10.0,-285.0,34.0,-191.0,12.0,1
54.0,20.0,-286.0,32.0,-190.0,12.0,1
52.0,3.0,-287.0,31.0,-188.0,11.0,1
51.0,20.0,-285.0,26.0,-184.0,8.0,1
47.0,10.0,-283.0,32.0,-180.0,8.0,1
49.0,16.0,-289.0,26.0,-177.0,6.0,1
46.0,14.0,-284.0,23.0,-174.0,4.0,1
49.0,13.0,-283.0,22.0,-170.0,2.0,1
46.0,12.0,-284.0,15.0,-169.0,-1.0,1
47.0,13.0,-282.0,12.0,-167.0,-1.0,1
49.0,10.0,-281.0,7.0,-167.0,-2.0,1
49.0,10.0,-283.0,5.0,-170.0,-5.0,1
45.0,10.0,-287.0,2.0,-171.0,-6.0,1
47.0,10.0,-283.0,0.0,-170.0,-7.0,1
49.0,10.0,-284.0,-8.0,-169.0,-10.0,1
46.0,9.0,-278.0,-11.0,-166.0,-11.0,1
48.0,9.0,-280.0,-13.0,-168.0,-16.0,1
47.0,15.0,-282.0,-18.0,-173.0,-24.0,1
44.0,22.0,-283.0,-24.0,-173.0,-27.0,1
45.0,15.0,-280.0,-30.0,-169.0,-25.0,1
44.0,17.0,-285.0,-35.0,-162.0,-21.0,1
43.0,15.0,-282.0,-42.0,-155.0,-16.0,1
43.0,16.0,-282.0,-50.0,-149.0,-15.0,1
41.0,14.0,-284.0,-58.0,-146.0,-15.0,1
41.0,12.0,-285.0,-65.0,-141.0,-15.0,1
38.0,17.0,-287.0,-72.0,-139.0,-17.0,1
41.0,14.0,-288.0,-80.0,-132.0,-18.0,1
40.0,15.0,-285.0,-86.0,-125.0,-19.0,1
40.0,16.0,-287.0,-94.0,-115.0,-19.0,1
37.0,19.0,-290.0,-96.0,-107.0,-18.0,1
41.0,17.0,-285.0,-98.0,-97.0,-18.0,1
42.0,18.0,-288.0,-100.0,-89.0,-18.0,1
42.0,18.0,-285.0,-100.0,-79.0,-18.0,1
40.0,18.0,-287.0,-100.0,-74.0,-18.0,1
43.0,19.0,-290.0,-100.0,-66.0,-16.0,1
47.0,15.0,-288.0,-95.0,-60.0,-14.0,1
38.0,20.0,-282.0,-96.0,-55.0,-13.0,1
43.0,20.0,-284.0,-94.0,-50.0,-12.0,1
43.0,20.0,-287.0,-90.0,-45.0,-12.0,1
42.0,20.0,-284.0,-89.0,-41.0,-11.0,1
40.0,22.0,-284.0,-87.0,-38.0,-11.0,1
40.0,19.0,-284.0,-83.0,-34.0,-10.0,1
41.0,18.0,-283.0,-78.0,-28.0,-7.0,1
38.0,22.0,-289.0,-76.0,-25.0,-6.0,1
38.0,22.0,-286.0,-72.0,-20.0,-7.0,1
39.0,21.0,-285.0,-69.0,-14.0,-4.0,1
41.0,19.0,-288.0,-69.0,-8.0,-4.0,1
38.0,20.0,-289.0,-65.0,-1.0,-4.0,1
41.0,19.0,-285.0,-65.0,5.0,-3.0,1
37.0,19.0,-282.0,-64.0,10.0,-3.0,1
39.0,19.0,-285.0,-62.0,12.0,-2.0,1
39.0,19.0,-283.0,-62.0,16.0,-4.0,1
40.0,20.0,-285.0,-62.0,21.0,-4.0,1
39.0,19.0,-282.0,-62.0,25.0,-5.0,1
38.0,21.0,-286.0,-61.0,28.0,-5.0,1
39.0,20.0,-284.0,-62.0,32.0,-4.0,1
39.0,19.0,-281.0,-59.0,37.0,-2.0,1
46.0,20.0,-284.0,-60.0,42.0,-2.0,1
39.0,21.0,-284.0,-59.0,45.0,-2.0,1
40.0,22.0,-287.0,-57.0,50.0,-2.0,1
38.0,19.0,-286.0,-56.0,55.0,-2.0,1
42.0,19.0,-282.0,-54.0,60.0,-1.0,1
41.0,21.0,-285.0,-53.0,64.0,-2.0,1
41.0,20.0,-283.0,-53.0,68.0,-1.0,1
43.0,20.0,-279.0,-52.0,72.0,-2.0,1
43.0,20.0,-281.0,-52.0,75.0,-2.0,1
41.0,22.0,-281.0,-51.0,79.0,-3.0,1
44.0,18.0,-282.0,-48.0,80.0,-2.0,1
45.0,18.0,-278.0,-50.0,82.0,-4.0,1
43.0,20.0,-279.0,-48.0,83.0,-4.0,1
42.0,19.0,-281.0,-47.0,85.0,-3.0,1
43.0,21.0,-278.0,-48.0,82.0,-3.0,1
42.0,18.0,-283.0,-47.0,82.0,-3.0,1
44.0,19.0,-281.0,-48.0,82.0,-3.0,1
44.0,20.0,-284.0,-46.0,82.0,-2.0,1
44.0,18.0,-282.0,-44.0,80.0,-2.0,1
46.0,15.0,-282.0,-42.0,78.0,-2.0,1
44.0,18.0,-286.0,-42.0,77.0,-2.0,1
52.0,23.0,-292.0,-40.0,77.0,-2.0,1
46.0,19.0,-281.0,-39.0,76.0,-3.0,1
46.0,17.0,-283.0,-40.0,76.0,-3.0,1
47.0,17.0,-283.0,-39.0,75.0,-4.0,1
46.0,21.0,-282.0,-39.0,73.0,-2.0,1
47.0,19.0,-283.0,-37.0,72.0,-3.0,1
45.0,18.0,-278.0,-38.0,70.0,-3.0,1
49.0,19.0,-280.0,-38.0,69.0,-3.0,1
46.0,20.0,-283.0,-38.0,66.0,-3.0,1
48.0,18.0,-283.0,-39.0,62.0,-3.0,1
50.0,20.0,-289.0,-40.0,59.0,-3.0,1
47.0,18.0,-283.0,-42.0,56.0,-4.0,1
47.0,19.0,-283.0,-44.0,54.0,-5.0,1
46.0,18.0,-286.0,-42.0,52.0,-4.0,1
49.0,18.0,-280.0,-43.0,51.0,-4.0,1
47.0,20.0,-281.0,-44.0,49.0,-4.0,1
48.0,15.0,-285.0,-43.0,46.0,-5.0,1
46.0,17.0,-283.0,-43.0,43.0,-4.0,1
48.0,18.0,-282.0,-43.0,41.0,-4.0,1
48.0,17.0,-282.0,-45.0,40.0,-4.0,1
47.0,18.0,-282.0,-45.0,39.0,-5.0,1
49.0,15.0,-282.0,-45.0,39.0,-5.0,1
46.0,22.0,-284.0,-45.0,36.0,-6.0,1
48.0,18.0,-283.0,-45.0,35.0,-5.0,1
49.0,18.0,-282.0,-45.0,31.0,-4.0,1
46.0,21.0,-282.0,-43.0,29.0,-6.0,1
46.0,19.0,-283.0,-44.0,25.0,-6.0,1
46.0,19.0,-282.0,-42.0,21.0,-4.0,1
47.0,21.0,-284.0,-42.0,16.0,-4.0,1
49.0,20.0,-282.0,-43.0,14.0,-5.0,1
48.0,17.0,-281.0,-45.0,9.0,-4.0,1
46.0,20.0,-287.0,-46.0,6.0,-7.0,1
47.0,18.0,-282.0,-47.0,4.0,-5.0,1
47.0,22.0,-281.0,-44.0,3.0,-4.0,1
47.0,21.0,-283.0,-44.0,3.0,-4.0,1
47.0,18.0,-281.0,-45.0,2.0,-3.0,1
43.0,17.0,-283.0,-45.0,0.0,-3.0,1
44.0,16.0,-281.0,-44.0,-3.0,-5.0,1
44.0,18.0,-283.0,-47.0,-3.0,-5.0,1
43.0,17.0,-283.0,-46.0,-2.0,-6.0,1
45.0,19.0,-282.0,-47.0,-2.0,-6.0,1
46.0,17.0,-282.0,-46.0,-5.0,-5.0,1
46.0,18.0,-279.0,-46.0,-7.0,-4.0,1
48.0,17.0,-277.0,-46.0,-9.0,-5.0,1
48.0,19.0,-282.0,-47.0,-10.0,-6.0,1
45.0,17.0,-280.0,-47.0,-12.0,-5.0,1
45.0,19.0,-282.0,-47.0,-14.0,-5.0,1
46.0,16.0,-283.0,-48.0,-15.0,-6.0,1
46.0,21.0,-284.0,-46.0,-16.0,-7.0,1
45.0,18.0,-283.0,-47.0,-17.0,-6.0,1
46.0,17.0,-283.0,-46.0,-17.0,-6.0,1
45.0,17.0,-284.0,-46.0,-18.0,-5.0,1
44.0,19.0,-283.0,-46.0,-17.0,-5.0,1
43.0,21.0,-283.0,-46.0,-16.0,-7.0,1
43.0,21.0,-286.0,-45.0,-15.0,-6.0,1
44.0,16.0,-285.0,-45.0,-15.0,-6.0,1
47.0,17.0,-283.0,-45.0,-13.0,-4.0,1
44.0,17.0,-286.0,-47.0,-11.0,-5.0,1
45.0,19.0,-285.0,-45.0,-11.0,-6.0,1
46.0,21.0,-281.0,-45.0,-10.0,-5.0,1
44.0,20.0,-285.0,-45.0,-8.0,-4.0,1
45.0,18.0,-288.0,-42.0,-6.0,-5.0,1
42.0,20.0,-284.0,-42.0,-5.0,-4.0,1
42.0,19.0,-284.0,-43.0,-4.0,-5.0,1
43.0,19.0,-285.0,-44.0,-5.0,-4.0,1
42.0,20.0,-282.0,-46.0,-1.0,-5.0,1
46.0,19.0,-284.0,-47.0,-1.0,-4.0,1
43.0,21.0,-280.0,-45.0,-1.0,-5.0,1
43.0,19.0,-281.0,-45.0,-2.0,-7.0,1
42.0,20.0,-285.0,-46.0,0.0,-5.0,1
43.0,19.0,-283.0,-46.0,3.0,-5.0,1
44.0,19.0,-283.0,-47.0,3.0,-5.0,1
43.0,17.0,-284.0,-47.0,2.0,-4.0,1
44.0,18.0,-282.0,-46.0,3.0,-5.0,1
45.0,19.0,-288.0,-47.0,5.0,-6.0,1
43.0,22.0,-286.0,-46.0,6.0,-6.0,1
44.0,18.0,-283.0,-45.0,8.0,-6.0,1
44.0,18.0,-283.0,-45.0,8.0,-5.0,1
44.0,19.0,-287.0,-45.0,9.0,-5.0,1
44.0,18.0,-282.0,-43.0,11.0,-6.0,1
45.0,16.0,-286.0,-43.0,10.0,-5.0,1
45.0,20.0,-284.0,-43.0,11.0,-6.0,1
43.0,18.0,-281.0,-44.0,14.0,-5.0,1
43.0,18.0,-284.0,-46.0,14.0,-5.0,1
45.0,18.0,-282.0,-45.0,14.0,-5.0,1
44.0,19.0,-284.0,-44.0,16.0,-5.0,1
45.0,17.0,-283.0,-44.0,16.0,-5.0,1
45.0,17.0,-283.0,-44.0,18.0,-5.0,1
44.0,18.0,-283.0,-45.0,19.0,-5.0,1
45.0,18.0,-279.0,-46.0,21.0,-5.0,1
44.0,19.0,-281.0,-45.0,21.0,-5.0,1
45.0,18.0,-283.0,-46.0,22.0,-5.0,1
42.0,18.0,-287.0,-44.0,24.0,-5.0,1
42.0,21.0,-279.0,-46.0,25.0,-5.0,1
45.0,17.0,-281.0,-46.0,26.0,-6.0,1
43.0,16.0,-282.0,-46.0,27.0,-4.0,1
42.0,18.0,-281.0,-47.0,26.0,-3.0,1
44.0,20.0,-284.0,-47.0,27.0,-4.0,1
44.0,21.0,-282.0,-47.0,27.0,-4.0,1
42.0,18.0,-284.0,-47.0,26.0,-3.0,1
43.0,19.0,-281.0,-48.0,27.0,-4.0,1
45.0,18.0,-281.0,-46.0,28.0,-5.0,1
45.0,18.0,-283.0,-47.0,28.0,-6.0,1
46.0,17.0,-285.0,-47.0,28.0,-4.0,1
43.0,22.0,-284.0,-47.0,28.0,-5.0,1
46.0,18.0,-284.0,-46.0,28.0,-5.0,1
42.0,21.0,-283.0,-46.0,27.0,-5.0,1
46.0,13.0,-295.0,-46.0,27.0,-6.0,1
44.0,20.0,-285.0,-48.0,28.0,-5.0,1
45.0,18.0,-281.0,-49.0,28.0,-4.0,1
44.0,19.0,-284.0,-49.0,28.0,-5.0,1
44.0,18.0,-284.0,-50.0,28.0,-5.0,1
47.0,21.0,-281.0,-49.0,27.0,-5.0,1
44.0,20.0,-280.0,-48.0,26.0,-5.0,1
44.0,18.0,-280.0,-49.0,26.0,-5.0,1
47.0,19.0,-284.0,-48.0,27.0,-4.0,1
45.0,21.0,-284.0,-47.0,24.0,-4.0,1
45.0,20.0,-284.0,-47.0,25.0,-3.0,1
42.0,22.0,-283.0,-49.0,24.0,-3.0,1
44.0,20.0,-287.0,-49.0,24.0,-4.0,1
46.0,19.0,-286.0,-49.0,22.0,-5.0,1
47.0,18.0,-283.0,-47.0,20.0,-3.0,1
45.0,17.0,-282.0,-47.0,19.0,-5.0,1
45.0,21.0,-282.0,-47.0,20.0,-4.0,1
42.0,20.0,-283.0,-47.0,19.0,-4.0,1
46.0,19.0,-287.0,-45.0,20.0,-4.0,1
44.0,18.0,-283.0,-44.0,21.0,-3.0,1
47.0,17.0,-282.0,-42.0,20.0,-4.0,1
50.0,22.0,-287.0,-42.0,18.0,-3.0,1
43.0,21.0,-283.0,-43.0,18.0,-3.0,1
44.0,20.0,-283.0,-41.0,15.0,-4.0,1
47.0,15.0,-282.0,-42.0,14.0,-5.0,1
43.0,21.0,-283.0,-45.0,14.0,-4.0,1
44.0,20.0,-283.0,-46.0,14.0,-5.0,1
44.0,17.0,-281.0,-48.0,13.0,-5.0,1
45.0,17.0,-279.0,-47.0,14.0,-5.0,1
42.0,21.0,-286.0,-45.0,15.0,-5.0,1
45.0,22.0,-283.0,-43.0,12.0,-5.0,1
51.0,16.0,-285.0,-44.0,13.0,-7.0,1
45.0,18.0,-287.0,-43.0,13.0,-4.0,1
43.0,18.0,-281.0,-45.0,14.0,-5.0,1
45.0,21.0,-281.0,-44.0,15.0,-4.0,1
46.0,18.0,-279.0,-44.0,15.0,-5.0,1
43.0,20.0,-281.0,-42.0,14.0,-5.0,1
41.0,20.0,-284.0,-41.0,11.0,-3.0,1
47.0,19.0,-283.0,-40.0,9.0,-3.0,1
41.0,21.0,-283.0,-40.0,9.0,-3.0,1
47.0,15.0,-282.0,-38.0,8.0,-3.0,1
44.0,19.0,-281.0,-39.0,8.0,-4.0,1
45.0,15.0,-282.0,-36.0,7.0,-5.0,1
44.0,20.0,-282.0,-37.0,6.0,-4.0,1
44.0,19.0,-284.0,-38.0,6.0,-4.0,1
43.0,18.0,-286.0,-40.0,6.0,-4.0,1
43.0,20.0,-285.0,-40.0,6.0,-5.0,1
45.0,18.0,-281.0,-41.0,6.0,-4.0,1
41.0,20.0,-283.0,-40.0,6.0,-3.0,1
43.0,24.0,-283.0,-40.0,6.0,-5.0,1
46.0,20.0,-285.0,-42.0,7.0,-3.0,1
44.0,19.0,-284.0,-43.0,8.0,-5.0,1
46.0,19.0,-285.0,-45.0,8.0,-4.0,1
42.0,17.0,-286.0,-42.0,8.0,-3.0,1
42.0,19.0,-285.0,-43.0,9.0,-3.0,1
46.0,20.0,-284.0,-45.0,9.0,-4.0,1
45.0,21.0,-281.0,-46.0,10.0,-4.0,1
45.0,18.0,-284.0,-46.0,11.0,-4.0,1
44.0,18.0,-282.0,-46.0,11.0,-6.0,1
46.0,18.0,-284.0,-47.0,10.0,-5.0,1
41.0,19.0,-284.0,-47.0,10.0,-5.0,1
43.0,21.0,-282.0,-47.0,12.0,-6.0,1
42.0,20.0,-279.0,-47.0,14.0,-4.0,1
43.0,17.0,-283.0,-48.0,11.0,-3.0,1
40.0,18.0,-285.0,-48.0,14.0,-4.0,1
44.0,19.0,-282.0,-48.0,16.0,-5.0,1
41.0,21.0,-281.0,-48.0,15.0,-4.0,1
44.0,18.0,-283.0,-46.0,15.0,-5.0,1
43.0,19.0,-287.0,-47.0,15.0,-4.0,1
45.0,21.0,-281.0,-46.0,16.0,-4.0,1
43.0,20.0,-283.0,-45.0,16.0,-4.0,1
41.0,19.0,-283.0,-47.0,16.0,-4.0,1
43.0,21.0,-282.0,-47.0,16.0,-5.0,1
45.0,19.0,-281.0,-46.0,17.0,-5.0,1
45.0,18.0,-283.0,-46.0,16.0,-6.0,1
45.0,16.0,-284.0,-47.0,17.0,-6.0,1
42.0,22.0,-284.0,-47.0,17.0,-5.0,1
46.0,19.0,-286.0,-47.0,18.0,-5.0,1
44.0,19.0,-281.0,-46.0,19.0,-5.0,1
47.0,17.0,-285.0,-45.0,19.0,-4.0,1
44.0,16.0,-281.0,-46.0,19.0,-4.0,1
45.0,20.0,-281.0,-46.0,19.0,-4.0,1
45.0,19.0,-283.0,-46.0,19.0,-5.0,1
41.0,20.0,-282.0,-46.0,20.0,-5.0,1
46.0,19.0,-282.0,-45.0,19.0,-4.0,1
44.0,15.0,-288.0,-45.0,20.0,-5.0,1
43.0,19.0,-288.0,-46.0,19.0,-6.0,1
43.0,20.0,-280.0,-48.0,21.0,-6.0,1
46.0,16.0,-284.0,-49.0,20.0,-5.0,1
43.0,19.0,-281.0,-49.0,20.0,-5.0,1
45.0,22.0,-285.0,-48.0,19.0,-5.0,1
46.0,17.0,-283.0,-49.0,20.0,-4.0,1
45.0,19.0,-283.0,-49.0,21.0,-5.0,1
46.0,18.0,-282.0,-50.0,21.0,-5.0,1
43.0,20.0,-282.0,-50.0,21.0,-5.0,1
42.0,21.0,-283.0,-50.0,20.0,-5.0,1
45.0,16.0,-285.0,-50.0,21.0,-6.0,1
46.0,17.0,-282.0,-49.0,22.0,-6.0,1
45.0,19.0,-282.0,-49.0,19.0,-6.0,1
46.0,19.0,-282.0,-50.0,20.0,-6.0,1
46.0,17.0,-283.0,-50.0,20.0,-5.0,1
45.0,18.0,-282.0,-48.0,21.0,-5.0,1
45.0,19.0,-283.0,-50.0,22.0,-6.0,1
44.0,20.0,-281.0,-48.0,21.0,-6.0,1
45.0,18.0,-284.0,-49.0,22.0,-6.0,1
44.0,21.0,-280.0,-49.0,22.0,-5.0,1
45.0,19.0,-281.0,-49.0,22.0,-5.0,1
46.0,25.0,-283.0,-49.0,20.0,-6.0,1
47.0,16.0,-285.0,-48.0,20.0,-5.0,1
44.0,18.0,-280.0,-48.0,20.0,-6.0,1
43.0,20.0,-282.0,-49.0,18.0,-6.0,1
46.0,16.0,-281.0,-49.0,17.0,-5.0,1
45.0,18.0,-285.0,-48.0,16.0,-5.0,1
45.0,18.0,-286.0,-49.0,17.0,-5.0,1
44.0,18.0,-281.0,-49.0,16.0,-6.0,1
44.0,19.0,-280.0,-49.0,16.0,-5.0,1
43.0,17.0,-284.0,-49.0,15.0,-6.0,1
46.0,20.0,-285.0,-52.0,15.0,-5.0,1
47.0,18.0,-282.0,-51.0,14.0,-6.0,1
43.0,21.0,-280.0,-52.0,15.0,-4.0,1
46.0,21.0,-282.0,-52.0,15.0,-4.0,1
45.0,20.0,-280.0,-51.0,16.0,-5.0,1
46.0,17.0,-285.0,-51.0,16.0,-6.0,1
45.0,18.0,-283.0,-49.0,16.0,-5.0,1
46.0,21.0,-283.0,-48.0,16.0,-5.0,1
45.0,18.0,-283.0,-47.0,16.0,-5.0,1
44.0,20.0,-283.0,-46.0,15.0,-5.0,1
44.0,21.0,-281.0,-46.0,13.0,-6.0,1
38.0,18.0,-282.0,-47.0,14.0,-5.0,1
45.0,15.0,-283.0,-49.0,13.0,-5.0,1
45.0,19.0,-280.0,-50.0,13.0,-5.0,1
43.0,18.0,-280.0,-51.0,15.0,-5.0,1
42.0,20.0,-279.0,-54.0,13.0,-5.0,1
45.0,18.0,-279.0,-53.0,13.0,-5.0,1
45.0,18.0,-282.0,-52.0,13.0,-4.0,1
42.0,20.0,-283.0,-51.0,14.0,-6.0,1
47.0,18.0,-283.0,-52.0,14.0,-4.0,1
44.0,19.0,-282.0,-55.0,13.0,-7.0,1
46.0,23.0,-281.0,-57.0,13.0,-6.0,1
46.0,18.0,-283.0,-56.0,15.0,-7.0,1
44.0,19.0,-282.0,-57.0,14.0,-6.0,1
46.0,19.0,-281.0,-56.0,14.0,-6.0,1
47.0,20.0,-281.0,-56.0,12.0,-7.0,1
44.0,18.0,-285.0,-56.0,13.0,-7.0,1
46.0,19.0,-284.0,-55.0,11.0,-6.0,1
47.0,20.0,-288.0,-54.0,12.0,-6.0,1
46.0,18.0,-282.0,-53.0,12.0,-6.0,1
45.0,21.0,-280.0,-52.0,12.0,-4.0,1
43.0,21.0,-282.0,-53.0,12.0,-6.0,1
46.0,19.0,-279.0,-53.0,13.0,-5.0,1
47.0,27.0,-288.0,-53.0,11.0,-5.0,1
42.0,20.0,-284.0,-53.0,12.0,-5.0,1
44.0,19.0,-283.0,-51.0,11.0,-5.0,1
44.0,19.0,-285.0,-51.0,12.0,-4.0,1
45.0,18.0,-276.0,-52.0,12.0,-6.0,1
45.0,19.0,-281.0,-53.0,12.0,-5.0,1
46.0,20.0,-284.0,-55.0,12.0,-6.0,1
44.0,19.0,-287.0,-53.0,12.0,-6.0,1
46.0,20.0,-281.0,-51.0,10.0,-5.0,1
46.0,19.0,-283.0,-49.0,10.0,-5.0,1
45.0,19.0,-286.0,-48.0,10.0,-5.0,1
45.0,21.0,-286.0,-47.0,9.0,-5.0,1
42.0,20.0,-283.0,-46.0,11.0,-5.0,1
45.0,19.0,-281.0,-45.0,12.0,-4.0,1
45.0,18.0,-286.0,-46.0,13.0,-5.0,1
45.0,23.0,-283.0,-45.0,12.0,-5.0,1
44.0,18.0,-284.0,-46.0,13.0,-3.0,1
42.0,19.0,-281.0,-46.0,14.0,-4.0,1
43.0,21.0,-282.0,-46.0,14.0,-4.0,1
41.0,21.0,-282.0,-46.0,15.0,-5.0,1
43.0,17.0,-285.0,-48.0,16.0,-5.0,1
45.0,19.0,-282.0,-47.0,17.0,-4.0,1
44.0,20.0,-284.0,-45.0,17.0,-5.0,1
43.0,19.0,-279.0,-44.0,17.0,-6.0,1
44.0,19.0,-279.0,-45.0,17.0,-5.0,1
45.0,22.0,-282.0,-44.0,17.0,-5.0,1
42.0,19.0,-287.0,-44.0,17.0,-3.0,1
44.0,19.0,-284.0,-45.0,17.0,-4.0,1
44.0,15.0,-284.0,-44.0,17.0,-5.0,1
42.0,19.0,-282.0,-44.0,18.0,-6.0,1
43.0,19.0,-284.0,-45.0,17.0,-5.0,1
47.0,19.0,-283.0,-44.0,19.0,-5.0,1
43.0,20.0,-284.0,-46.0,17.0,-3.0,1
44.0,19.0,-279.0,-45.0,18.0,-4.0,1
44.0,18.0,-282.0,-44.0,19.0,-5.0,1
45.0,20.0,-286.0,-46.0,19.0,-4.0,1
45.0,20.0,-285.0,-44.0,19.0,-5.0,1
44.0,19.0,-281.0,-44.0,18.0,-6.0,1
47.0,18.0,-283.0,-44.0,18.0,-4.0,1
43.0,19.0,-284.0,-44.0,17.0,-5.0,1
47.0,21.0,-283.0,-46.0,18.0,-5.0,1
43.0,20.0,-285.0,-46.0,17.0,-6.0,1
44.0,17.0,-282.0,-46.0,18.0,-4.0,1
45.0,19.0,-284.0,-46.0,18.0,-5.0,1
44.0,17.0,-282.0,-46.0,17.0,-5.0,1
43.0,21.0,-284.0,-46.0,16.0,-4.0,1
46.0,21.0,-281.0,-46.0,15.0,-4.0,1
47.0,19.0,-282.0,-47.0,16.0,-4.0,1
45.0,18.0,-283.0,-47.0,17.0,-4.0,1
43.0,20.0,-281.0,-48.0,17.0,-5.0,1
46.0,20.0,-284.0,-47.0,17.0,-5.0,1
45.0,22.0,-283.0,-48.0,17.0,-4.0,1
45.0,19.0,-281.0,-46.0,17.0,-5.0,1
45.0,20.0,-284.0,-48.0,18.0,-4.0,1
43.0,22.0,-281.0,-49.0,18.0,-5.0,1
46.0,18.0,-281.0,-48.0,19.0,-5.0,1
46.0,19.0,-282.0,-47.0,17.0,-6.0,1
44.0,19.0,-281.0,-47.0,16.0,-6.0,1
44.0,21.0,-287.0,-47.0,18.0,-6.0,1
47.0,18.0,-283.0,-48.0,17.0,-4.0,1
47.0,23.0,-283.0,-46.0,17.0,-3.0,1
43.0,24.0,-287.0,-45.0,17.0,-5.0,1
46.0,24.0,-285.0,-43.0,16.0,-4.0,1
44.0,19.0,-287.0,-44.0,16.0,-4.0,1
45.0,20.0,-282.0,-44.0,17.0,-4.0,1
44.0,20.0,-288.0,-42.0,18.0,-4.0,1
43.0,21.0,-283.0,-44.0,17.0,-4.0,1
44.0,21.0,-284.0,-43.0,17.0,-5.0,1
43.0,19.0,-283.0,-43.0,18.0,-4.0,1
45.0,19.0,-282.0,-43.0,19.0,-5.0,1
46.0,17.0,-280.0,-45.0,18.0,-5.0,1
44.0,20.0,-283.0,-46.0,18.0,-5.0,1
45.0,17.0,-282.0,-45.0,17.0,-5.0,1
42.0,17.0,-282.0,-44.0,16.0,-4.0,1
43.0,18.0,-280.0,-44.0,16.0,-4.0,1
45.0,19.0,-280.0,-44.0,16.0,-4.0,1
45.0,19.0,-283.0,-43.0,15.0,-6.0,1
43.0,20.0,-285.0,-43.0,14.0,-6.0,1
43.0,21.0,-283.0,-42.0,15.0,-5.0,1
44.0,22.0,-285.0,-40.0,16.0,-5.0,1
44.0,20.0,-283.0,-43.0,17.0,-5.0,1
45.0,20.0,-282.0,-42.0,17.0,-5.0,1
44.0,21.0,-282.0,-43.0,17.0,-4.0,1
44.0,17.0,-282.0,-45.0,15.0,-5.0,1
45.0,20.0,-280.0,-47.0,16.0,-5.0,1
48.0,19.0,-285.0,-48.0,14.0,-5.0,1
43.0,19.0,-283.0,-50.0,14.0,-5.0,1
43.0,21.0,-280.0,-51.0,14.0,-5.0,1
43.0,19.0,-282.0,-51.0,15.0,-4.0,1
44.0,19.0,-281.0,-51.0,14.0,-4.0,1
43.0,20.0,-284.0,-47.0,12.0,-5.0,1
44.0,18.0,-282.0,-47.0,14.0,-5.0,1
43.0,19.0,-285.0,-45.0,14.0,-5.0,1
44.0,18.0,-287.0,-44.0,13.0,-5.0,1
45.0,19.0,-286.0,-47.0,14.0,-6.0,1
43.0,21.0,-283.0,-47.0,15.0,-5.0,1
45.0,17.0,-283.0,-45.0,16.0,-6.0,1
45.0,19.0,-287.0,-46.0,17.0,-6.0,1
43.0,21.0,-284.0,-46.0,16.0,-5.0,1
45.0,20.0,-282.0,-46.0,16.0,-6.0,1
45.0,21.0,-285.0,-45.0,16.0,-5.0,1
41.0,23.0,-284.0,-46.0,17.0,-5.0,1
41.0,23.0,-284.0,-45.0,17.0,-5.0,1
44.0,17.0,-287.0,-45.0,17.0,-5.0,1
42.0,22.0,-285.0,-45.0,16.0,-4.0,1
45.0,19.0,-285.0,-44.0,15.0,-5.0,1
44.0,18.0,-290.0,-44.0,16.0,-6.0,1
43.0,22.0,-286.0,-44.0,16.0,-5.0,1
46.0,19.0,-281.0,-44.0,18.0,-4.0,1
46.0,23.0,-286.0,-44.0,15.0,-4.0,1
44.0,21.0,-284.0,-44.0,16.0,-4.0,1
42.0,19.0,-285.0,-45.0,17.0,-5.0,1
41.0,20.0,-284.0,-44.0,17.0,-5.0,1
43.0,19.0,-282.0,-44.0,18.0,-6.0,1
47.0,18.0,-281.0,-46.0,17.0,-5.0,1
44.0,20.0,-281.0,-47.0,17.0,-4.0,1
45.0,18.0,-283.0,-46.0,17.0,-4.0,1
44.0,18.0,-280.0,-45.0,17.0,-4.0,1
42.0,20.0,-285.0,-45.0,16.0,-5.0,1
45.0,18.0,-283.0,-45.0,16.0,-4.0,1
47.0,17.0,-284.0,-46.0,15.0,-4.0,1
43.0,21.0,-282.0,-46.0,16.0,-5.0,1
43.0,22.0,-288.0,-46.0,16.0,-4.0,1
41.0,19.0,-286.0,-44.0,18.0,-5.0,1
45.0,21.0,-286.0,-46.0,16.0,-5.0,1
45.0,21.0,-282.0,-44.0,17.0,-5.0,1
43.0,20.0,-283.0,-44.0,18.0,-5.0,1
43.0,21.0,-280.0,-43.0,18.0,-4.0,1
48.0,21.0,-280.0,-44.0,20.0,-5.0,1
44.0,19.0,-284.0,-44.0,18.0,-5.0,1
45.0,19.0,-283.0,-44.0,18.0,-5.0,1
44.0,22.0,-286.0,-43.0,18.0,-3.0,1
42.0,21.0,-284.0,-42.0,19.0,-4.0,1
44.0,20.0,-285.0,-43.0,17.0,-3.0,1
46.0,16.0,-283.0,-44.0,18.0,-5.0,1
44.0,18.0,-283.0,-42.0,17.0,-4.0,1
45.0,20.0,-281.0,-43.0,18.0,-5.0,1
45.0,20.0,-282.0,-44.0,18.0,-4.0,1
46.0,20.0,-278.0,-43.0,18.0,-4.0,1
46.0,20.0,-281.0,-44.0,17.0,-4.0,1
44.0,19.0,-286.0,-45.0,18.0,-4.0,1
45.0,19.0,-283.0,-45.0,19.0,-4.0,1
42.0,20.0,-286.0,-44.0,19.0,-4.0,1
43.0,18.0,-285.0,-43.0,19.0,-5.0,1
44.0,18.0,-284.0,-43.0,19.0,-6.0,1
43.0,19.0,-285.0,-43.0,18.0,-4.0,1
42.0,19.0,-286.0,-44.0,19.0,-5.0,1
45.0,17.0,-284.0,-44.0,20.0,-5.0,1
45.0,23.0,-280.0,-45.0,19.0,-5.0,1
45.0,22.0,-278.0,-45.0,19.0,-5.0,1
45.0,21.0,-283.0,-45.0,18.0,-5.0,1
43.0,21.0,-285.0,-46.0,18.0,-4.0,1
43.0,19.0,-281.0,-45.0,18.0,-4.0,1
44.0,22.0,-284.0,-47.0,19.0,-4.0,1
44.0,20.0,-281.0,-47.0,18.0,-5.0,1
44.0,18.0,-281.0,-46.0,18.0,-6.0,1
43.0,19.0,-284.0,-46.0,18.0,-4.0,1
41.0,20.0,-282.0,-44.0,18.0,-5.0,1
42.0,20.0,-285.0,-44.0,18.0,-4.0,1
44.0,16.0,-283.0,-43.0,18.0,-5.0,1
46.0,18.0,-285.0,-43.0,18.0,-4.0,1
44.0,19.0,-285.0,-43.0,18.0,-6.0,1
45.0,20.0,-282.0,-43.0,18.0,-3.0,1
45.0,19.0,-280.0,-44.0,17.0,-4.0,1
45.0,20.0,-286.0,-45.0,17.0,-6.0,1
44.0,21.0,-285.0,-44.0,17.0,-5.0,1
44.0,17.0,-286.0,-44.0,18.0,-5.0,1
43.0,18.0,-283.0,-43.0,17.0,-5.0,1
44.0,19.0,-284.0,-43.0,18.0,-5.0,1
45.0,20.0,-286.0,-45.0,18.0,-5.0,1
43.0,24.0,-282.0,-42.0,18.0,-4.0,1
44.0,21.0,-285.0,-43.0,17.0,-5.0,1
42.0,22.0,-287.0,-42.0,19.0,-5.0,1
40.0,22.0,-284.0,-43.0,19.0,-4.0,1
41.0,20.0,-285.0,-44.0,19.0,-3.0,1
46.0,20.0,-284.0,-44.0,19.0,-4.0,1
44.0,19.0,-286.0,-45.0,18.0,-5.0,1
43.0,17.0,-284.0,-44.0,18.0,-5.0,1
45.0,17.0,-283.0,-45.0,18.0,-5.0,1
44.0,18.0,-286.0,-44.0,18.0,-4.0,1
44.0,17.0,-282.0,-43.0,19.0,-4.0,1
43.0,24.0,-277.0,-43.0,18.0,-5.0,1
46.0,20.0,-278.0,-44.0,18.0,-4.0,1
45.0,19.0,-282.0,-44.0,18.0,-4.0,1
47.0,20.0,-283.0,-44.0,17.0,-6.0,1
44.0,20.0,-282.0,-45.0,18.0,-4.0,1
42.0,20.0,-281.0,-46.0,18.0,-4.0,1
44.0,18.0,-286.0,-45.0,17.0,-6.0,1
43.0,18.0,-285.0,-42.0,16.0,-5.0,1
43.0,21.0,-287.0,-45.0,17.0,-4.0,1
43.0,17.0,-283.0,-44.0,16.0,-4.0,1
46.0,19.0,-282.0,-43.0,18.0,-5.0,1
34.0,18.0,-293.0,-42.0,18.0,-6.0,1
45.0,19.0,-283.0,-42.0,20.0,-5.0,1
42.0,22.0,-285.0,-42.0,18.0,-4.0,1
44.0,20.0,-283.0,-42.0,20.0,-5.0,1
43.0,20.0,-284.0,-42.0,20.0,-4.0,1
44.0,18.0,-281.0,-42.0,18.0,-5.0,1
45.0,19.0,-283.0,-44.0,17.0,-4.0,1
43.0,19.0,-278.0,-45.0,17.0,-5.0,1
44.0,18.0,-281.0,-47.0,17.0,-6.0,1
45.0,18.0,-281.0,-50.0,16.0,-5.0,1
44.0,21.0,-281.0,-52.0,16.0,-5.0,1
43.0,19.0,-281.0,-50.0,16.0,-6.0,1
43.0,19.0,-283.0,-49.0,16.0,-6.0,1
43.0,18.0,-280.0,-47.0,15.0,-5.0,1
44.0,20.0,-282.0,-48.0,16.0,-6.0,1
44.0,17.0,-284.0,-47.0,15.0,-5.0,1
44.0,17.0,-285.0,-47.0,15.0,-5.0,1
46.0,22.0,-284.0,-46.0,16.0,-5.0,1
44.0,17.0,-286.0,-46.0,17.0,-5.0,1
46.0,18.0,-287.0,-46.0,19.0,-5.0,1
43.0,22.0,-286.0,-47.0,19.0,-4.0,1
43.0,17.0,-282.0,-47.0,17.0,-5.0,1
46.0,21.0,-285.0,-46.0,19.0,-4.0,1
44.0,20.0,-281.0,-46.0,17.0,-4.0,1
41.0,21.0,-284.0,-47.0,16.0,-5.0,1
43.0,20.0,-282.0,-46.0,17.0,-5.0,1
45.0,21.0,-283.0,-44.0,17.0,-3.0,1
43.0,21.0,-280.0,-44.0,16.0,-4.0,1
47.0,16.0,-283.0,-43.0,16.0,-4.0,1
45.0,19.0,-284.0,-42.0,16.0,-4.0,1
42.0,18.0,-283.0,-42.0,16.0,-5.0,1
42.0,22.0,-286.0,-44.0,16.0,-5.0,1
43.0,19.0,-284.0,-42.0,16.0,-4.0,1
45.0,17.0,-281.0,-42.0,16.0,-6.0,1
43.0,18.0,-282.0,-44.0,18.0,-5.0,1
43.0,19.0,-283.0,-45.0,17.0,-5.0,1
44.0,20.0,-280.0,-46.0,18.0,-4.0,1
44.0,19.0,-281.0,-44.0,17.0,-3.0,1
45.0,19.0,-282.0,-45.0,15.0,-3.0,1
44.0,20.0,-283.0,-44.0,16.0,-4.0,1
45.0,20.0,-283.0,-45.0,17.0,-6.0,1
46.0,18.0,-283.0,-42.0,17.0,-6.0,1
44.0,18.0,-281.0,-45.0,16.0,-6.0,1
44.0,16.0,-281.0,-43.0,16.0,-5.0,1
44.0,20.0,-285.0,-44.0,16.0,-5.0,1
45.0,18.0,-282.0,-44.0,16.0,-6.0,1
43.0,17.0,-281.0,-44.0,16.0,-4.0,1
44.0,17.0,-286.0,-43.0,16.0,-4.0,1
42.0,19.0,-282.0,-43.0,17.0,-5.0,1
42.0,18.0,-284.0,-44.0,17.0,-4.0,1
44.0,18.0,-286.0,-44.0,18.0,-6.0,1
44.0,19.0,-281.0,-44.0,18.0,-4.0,1
45.0,20.0,-281.0,-44.0,18.0,-4.0,1
46.0,16.0,-283.0,-44.0,17.0,-4.0,1
49.0,19.0,-283.0,-44.0,19.0,-3.0,1
43.0,20.0,-281.0,-45.0,16.0,-4.0,1
44.0,19.0,-283.0,-44.0,17.0,-4.0,1
45.0,18.0,-285.0,-42.0,16.0,-5.0,1
45.0,18.0,-285.0,-43.0,15.0,-6.0,1
44.0,20.0,-284.0,-43.0,16.0,-5.0,1
44.0,19.0,-286.0,-45.0,16.0,-5.0,1
46.0,18.0,-285.0,-44.0,15.0,-5.0,1
44.0,19.0,-286.0,-44.0,15.0,-4.0,1
43.0,17.0,-279.0,-45.0,15.0,-4.0,1
47.0,29.0,-274.0,-45.0,16.0,-4.0,1
45.0,18.0,-281.0,-45.0,15.0,-5.0,1
43.0,20.0,-284.0,-45.0,16.0,-5.0,1
45.0,18.0,-282.0,-47.0,16.0,-6.0,1
43.0,20.0,-284.0,-47.0,16.0,-6.0,1
45.0,19.0,-286.0,-47.0,18.0,-6.0,1
43.0,23.0,-281.0,-47.0,17.0,-6.0,1
45.0,20.0,-282.0,-47.0,17.0,-5.0,1
46.0,18.0,-281.0,-48.0,17.0,-4.0,1
43.0,17.0,-280.0,-48.0,16.0,-4.0,1
45.0,18.0,-282.0,-48.0,17.0,-6.0,1
47.0,18.0,-284.0,-46.0,16.0,-5.0,1
43.0,18.0,-285.0,-47.0,18.0,-5.0,1
46.0,20.0,-283.0,-47.0,18.0,-5.0,1
45.0,18.0,-285.0,-48.0,19.0,-4.0,1
44.0,21.0,-285.0,-46.0,17.0,-5.0,1
43.0,18.0,-283.0,-48.0,17.0,-4.0,1
45.0,17.0,-281.0,-46.0,17.0,-4.0,1
43.0,18.0,-284.0,-45.0,16.0,-5.0,1
44.0,19.0,-285.0,-44.0,17.0,-4.0,1
41.0,16.0,-288.0,-46.0,16.0,-4.0,1
44.0,19.0,-286.0,-46.0,16.0,-4.0,1
46.0,18.0,-284.0,-47.0,17.0,-5.0,1
44.0,20.0,-281.0,-45.0,15.0,-5.0,1
42.0,22.0,-282.0,-45.0,16.0,-5.0,1
45.0,18.0,-280.0,-46.0,16.0,-4.0,1
44.0,20.0,-284.0,-47.0,17.0,-6.0,1
42.0,22.0,-280.0,-44.0,18.0,-5.0,1
45.0,17.0,-284.0,-45.0,17.0,-4.0,1
41.0,19.0,-277.0,-45.0,17.0,-5.0,1
42.0,21.0,-286.0,-45.0,17.0,-4.0,1
43.0,18.0,-287.0,-44.0,17.0,-5.0,1
46.0,20.0,-283.0,-43.0,17.0,-5.0,1
44.0,18.0,-280.0,-44.0,18.0,-4.0,1
44.0,20.0,-282.0,-43.0,18.0,-3.0,1
45.0,21.0,-280.0,-45.0,18.0,-4.0,1
43.0,18.0,-283.0,-44.0,19.0,-6.0,1
44.0,21.0,-281.0,-45.0,18.0,-5.0,1
43.0,18.0,-285.0,-44.0,18.0,-5.0,1
44.0,20.0,-280.0,-46.0,17.0,-5.0,1
44.0,19.0,-281.0,-45.0,18.0,-5.0,1
44.0,18.0,-282.0,-44.0,18.0,-4.0,1
46.0,20.0,-283.0,-44.0,18.0,-5.0,1
42.0,20.0,-280.0,-44.0,19.0,-5.0,1
45.0,19.0,-283.0,-43.0,19.0,-5.0,1
44.0,18.0,-282.0,-44.0,17.0,-4.0,1
43.0,19.0,-284.0,-43.0,18.0,-5.0,1
45.0,21.0,-283.0,-44.0,17.0,-5.0,1
43.0,19.0,-283.0,-45.0,16.0,-5.0,1
43.0,20.0,-282.0,-47.0,16.0,-4.0,1
40.0,19.0,-282.0,-47.0,16.0,-5.0,1
44.0,19.0,-283.0,-46.0,17.0,-5.0,1
45.0,18.0,-285.0,-46.0,15.0,-5.0,1
42.0,22.0,-286.0,-45.0,18.0,-5.0,1
42.0,22.0,-285.0,-46.0,18.0,-4.0,1
46.0,18.0,-285.0,-45.0,17.0,-3.0,1
42.0,21.0,-284.0,-44.0,18.0,-4.0,1
44.0,20.0,-282.0,-44.0,18.0,-5.0,1
45.0,21.0,-286.0,-44.0,19.0,-5.0,1
44.0,20.0,-282.0,-44.0,18.0,-5.0,1
46.0,16.0,-281.0,-44.0,16.0,-5.0,1
43.0,20.0,-281.0,-44.0,17.0,-6.0,1
44.0,21.0,-281.0,-45.0,16.0,-5.0,1
45.0,19.0,-281.0,-48.0,16.0,-5.0,1
46.0,20.0,-281.0,-50.0,17.0,-4.0,1
44.0,16.0,-282.0,-52.0,16.0,-4.0,1
45.0,19.0,-281.0,-51.0,16.0,-5.0,1
44.0,16.0,-283.0,-50.0,16.0,-5.0,1
41.0,20.0,-286.0,-47.0,15.0,-4.0,1
46.0,18.0,-282.0,-47.0,15.0,-5.0,1
44.0,18.0,-284.0,-47.0,14.0,-5.0,1
43.0,19.0,-283.0,-48.0,14.0,-4.0,1
44.0,21.0,-285.0,-48.0,15.0,-4.0,1
44.0,19.0,-283.0,-47.0,17.0,-5.0,1
44.0,22.0,-285.0,-48.0,17.0,-5.0,1
46.0,20.0,-283.0,-48.0,16.0,-4.0,1
45.0,20.0,-285.0,-47.0,15.0,-5.0,1
43.0,20.0,-280.0,-46.0,16.0,-4.0,1
46.0,20.0,-283.0,-47.0,16.0,-5.0,1
43.0,18.0,-283.0,-47.0,16.0,-5.0,1
44.0,18.0,-284.0,-46.0,16.0,-5.0,1
45.0,19.0,-281.0,-45.0,15.0,-4.0,1
43.0,19.0,-281.0,-44.0,15.0,-4.0,1
44.0,19.0,-279.0,-45.0,15.0,-4.0,1
45.0,20.0,-282.0,-44.0,15.0,-5.0,1
48.0,23.0,-290.0,-45.0,15.0,-4.0,1
44.0,21.0,-282.0,-46.0,17.0,-5.0,1
43.0,19.0,-280.0,-46.0,16.0,-4.0,1
44.0,19.0,-280.0,-46.0,16.0,-5.0,1
45.0,20.0,-281.0,-46.0,17.0,-5.0,1
46.0,18.0,-282.0,-46.0,16.0,-5.0,1
46.0,18.0,-283.0,-45.0,16.0,-4.0,1
43.0,17.0,-281.0,-46.0,17.0,-5.0,1
44.0,20.0,-282.0,-46.0,17.0,-3.0,1
44.0,17.0,-281.0,-45.0,18.0,-5.0,1
44.0,18.0,-285.0,-45.0,17.0,-5.0,1
43.0,21.0,-284.0,-44.0,17.0,-5.0,1
45.0,19.0,-284.0,-44.0,17.0,-4.0,1
45.0,21.0,-285.0,-44.0,17.0,-5.0,1
46.0,16.0,-282.0,-44.0,18.0,-5.0,1
43.0,20.0,-282.0,-43.0,17.0,-5.0,1
45.0,19.0,-281.0,-44.0,18.0,-4.0,1
42.0,18.0,-280.0,-45.0,17.0,-5.0,1
43.0,19.0,-284.0,-43.0,17.0,-5.0,1
45.0,20.0,-281.0,-43.0,17.0,-5.0,1
45.0,18.0,-287.0,-44.0,17.0,-4.0,1
43.0,17.0,-282.0,-45.0,17.0,-5.0,1
48.0,18.0,-278.0,-44.0,17.0,-5.0,1
43.0,19.0,-280.0,-44.0,18.0,-7.0,1
46.0,19.0,-284.0,-45.0,18.0,-6.0,1
41.0,19.0,-287.0,-44.0,17.0,-5.0,1
44.0,20.0,-284.0,-44.0,16.0,-5.0,1
45.0,22.0,-280.0,-44.0,16.0,-5.0,1
46.0,17.0,-285.0,-45.0,16.0,-6.0,1
45.0,18.0,-285.0,-44.0,16.0,-4.0,1
43.0,18.0,-281.0,-47.0,16.0,-5.0,1
45.0,20.0,-280.0,-46.0,17.0,-6.0,1
43.0,20.0,-280.0,-48.0,17.0,-5.0,1
43.0,22.0,-282.0,-46.0,16.0,-5.0,1
46.0,19.0,-283.0,-46.0,17.0,-5.0,1
43.0,19.0,-281.0,-46.0,17.0,-3.0,1
46.0,19.0,-280.0,-46.0,18.0,-6.0,1
45.0,20.0,-283.0,-45.0,19.0,-5.0,1
45.0,18.0,-281.0,-47.0,18.0,-6.0,1
45.0,20.0,-286.0,-49.0,17.0,-4.0,1
45.0,17.0,-281.0,-47.0,17.0,-5.0,1
45.0,19.0,-285.0,-47.0,17.0,-5.0,1
45.0,19.0,-282.0,-46.0,17.0,-5.0,1
47.0,27.0,-285.0,-48.0,17.0,-6.0,1
42.0,19.0,-281.0,-47.0,18.0,-5.0,1
45.0,20.0,-282.0,-47.0,17.0,-6.0,1
45.0,19.0,-284.0,-45.0,17.0,-5.0,1
44.0,20.0,-283.0,-46.0,17.0,-5.0,1
46.0,17.0,-280.0,-46.0,18.0,-5.0,1
47.0,20.0,-281.0,-46.0,18.0,-5.0,1
42.0,18.0,-288.0,-46.0,17.0,-5.0,1
46.0,16.0,-284.0,-46.0,17.0,-5.0,1
46.0,20.0,-281.0,-45.0,17.0,-4.0,1
47.0,17.0,-282.0,-46.0,17.0,-5.0,1
45.0,19.0,-283.0,-46.0,16.0,-6.0,1
44.0,21.0,-282.0,-46.0,17.0,-5.0,1
44.0,19.0,-288.0,-46.0,17.0,-4.0,1
44.0,21.0,-283.0,-44.0,17.0,-4.0,1
46.0,17.0,-284.0,-46.0,18.0,-4.0,1
46.0,21.0,-283.0,-45.0,18.0,-4.0,1
44.0,19.0,-282.0,-46.0,18.0,-5.0,1
47.0,17.0,-282.0,-46.0,16.0,-5.0,1
46.0,18.0,-281.0,-45.0,17.0,-5.0,1
46.0,19.0,-285.0,-46.0,17.0,-5.0,1
45.0,20.0,-283.0,-46.0,16.0,-4.0,1
44.0,16.0,-282.0,-46.0,15.0,-5.0,1
43.0,19.0,-284.0,-47.0,15.0,-6.0,1
46.0,18.0,-286.0,-46.0,15.0,-5.0,1
45.0,18.0,-283.0,-46.0,15.0,-5.0,1
45.0,16.0,-286.0,-46.0,14.0,-5.0,1
42.0,21.0,-280.0,-46.0,16.0,-5.0,1
43.0,19.0,-283.0,-46.0,15.0,-5.0,1
45.0,17.0,-281.0,-46.0,16.0,-5.0,1
44.0,19.0,-282.0,-46.0,16.0,-5.0,1
42.0,23.0,-284.0,-45.0,16.0,-6.0,1
46.0,19.0,-282.0,-45.0,16.0,-4.0,1
43.0,17.0,-284.0,-45.0,18.0,-6.0,1
44.0,20.0,-284.0,-46.0,17.0,-4.0,1
48.0,15.0,-284.0,-45.0,17.0,-5.0,1
44.0,19.0,-285.0,-45.0,18.0,-4.0,1
44.0,19.0,-283.0,-46.0,18.0,-4.0,1
44.0,18.0,-284.0,-44.0,16.0,-4.0,1
45.0,18.0,-282.0,-46.0,17.0,-4.0,1
47.0,19.0,-281.0,-45.0,16.0,-6.0,1
44.0,18.0,-283.0,-45.0,18.0,-4.0,1
46.0,17.0,-282.0,-44.0,17.0,-5.0,1
43.0,20.0,-279.0,-46.0,17.0,-5.0,1
46.0,18.0,-281.0,-45.0,17.0,-5.0,1
43.0,19.0,-282.0,-46.0,16.0,-6.0,1
42.0,19.0,-285.0,-47.0,16.0,-5.0,1
44.0,18.0,-282.0,-47.0,16.0,-5.0,1
44.0,18.0,-283.0,-47.0,17.0,-6.0,1
45.0,21.0,-284.0,-46.0,17.0,-5.0,1
46.0,21.0,-280.0,-47.0,17.0,-4.0,1
45.0,19.0,-286.0,-46.0,16.0,-5.0,1
44.0,17.0,-280.0,-45.0,17.0,-5.0,1
45.0,19.0,-281.0,-44.0,18.0,-5.0,1
44.0,19.0,-280.0,-44.0,18.0,-5.0,1
44.0,18.0,-284.0,-45.0,19.0,-5.0,1
42.0,21.0,-283.0,-45.0,18.0,-5.0,1
44.0,17.0,-280.0,-46.0,18.0,-5.0,1
44.0,19.0,-279.0,-47.0,18.0,-5.0,1
44.0,17.0,-284.0,-44.0,18.0,-6.0,1
46.0,20.0,-283.0,-46.0,17.0,-5.0,1
44.0,20.0,-283.0,-45.0,18.0,-4.0,1
45.0,20.0,-281.0,-45.0,17.0,-6.0,1
47.0,20.0,-285.0,-46.0,17.0,-5.0,1
46.0,20.0,-282.0,-45.0,17.0,-5.0,1
44.0,21.0,-287.0,-45.0,17.0,-4.0,1
44.0,19.0,-281.0,-45.0,17.0,-6.0,1
43.0,19.0,-282.0,-45.0,17.0,-4.0,1
47.0,16.0,-286.0,-45.0,16.0,-4.0,1
44.0,18.0,-283.0,-47.0,16.0,-5.0,1
44.0,19.0,-285.0,-45.0,15.0,-5.0,1
45.0,21.0,-282.0,-45.0,18.0,-4.0,1
42.0,20.0,-282.0,-44.0,18.0,-5.0,1
46.0,19.0,-282.0,-45.0,16.0,-5.0,1
44.0,20.0,-282.0,-47.0,17.0,-5.0,1
44.0,18.0,-283.0,-46.0,16.0,-6.0,1
45.0,18.0,-280.0,-46.0,17.0,-7.0,1
45.0,19.0,-282.0,-46.0,18.0,-6.0,1
43.0,20.0,-277.0,-46.0,17.0,-4.0,1
46.0,20.0,-280.0,-46.0,16.0,-5.0,1
46.0,19.0,-284.0,-46.0,16.0,-6.0,1
46.0,21.0,-283.0,-47.0,17.0,-3.0,1
43.0,19.0,-284.0,-48.0,16.0,-4.0,1
45.0,19.0,-285.0,-47.0,16.0,-4.0,1
43.0,20.0,-285.0,-46.0,15.0,-5.0,1
42.0,18.0,-281.0,-46.0,16.0,-5.0,1
47.0,19.0,-283.0,-46.0,16.0,-4.0,1
45.0,22.0,-284.0,-46.0,15.0,-5.0,1
43.0,20.0,-282.0,-47.0,15.0,-5.0,1
45.0,20.0,-283.0,-46.0,16.0,-4.0,1
46.0,19.0,-287.0,-45.0,16.0,-4.0,1
45.0,20.0,-283.0,-45.0,16.0,-6.0,1
45.0,18.0,-281.0,-45.0,16.0,-6.0,1
46.0,18.0,-282.0,-45.0,16.0,-5.0,1
45.0,19.0,-287.0,-46.0,16.0,-4.0,1
43.0,22.0,-278.0,-47.0,17.0,-5.0,1
44.0,16.0,-283.0,-47.0,16.0,-5.0,1
45.0,18.0,-283.0,-46.0,15.0,-4.0,1
44.0,17.0,-282.0,-45.0,16.0,-4.0,1
45.0,19.0,-285.0,-45.0,17.0,-6.0,1
45.0,20.0,-282.0,-46.0,16.0,-6.0,1
41.0,19.0,-284.0,-46.0,15.0,-6.0,1
42.0,20.0,-284.0,-46.0,15.0,-5.0,1
44.0,19.0,-285.0,-46.0,16.0,-5.0,1
46.0,18.0,-285.0,-47.0,17.0,-4.0,1
45.0,18.0,-282.0,-48.0,16.0,-4.0,1
40.0,22.0,-280.0,-48.0,16.0,-5.0,1
45.0,23.0,-279.0,-50.0,16.0,-6.0,1
42.0,22.0,-279.0,-49.0,16.0,-5.0,1
43.0,20.0,-285.0,-49.0,16.0,-4.0,1
43.0,20.0,-284.0,-47.0,15.0,-5.0,1
46.0,19.0,-283.0,-46.0,14.0,-6.0,1
47.0,17.0,-286.0,-44.0,16.0,-5.0,1
45.0,20.0,-282.0,-45.0,17.0,-5.0,1
45.0,18.0,-281.0,-44.0,18.0,-5.0,1
45.0,16.0,-282.0,-44.0,17.0,-5.0,1
43.0,21.0,-282.0,-44.0,17.0,-6.0,1
46.0,18.0,-285.0,-42.0,16.0,-4.0,1
42.0,21.0,-283.0,-43.0,17.0,-5.0,1
43.0,19.0,-284.0,-44.0,17.0,-4.0,1
46.0,18.0,-282.0,-45.0,17.0,-5.0,1
43.0,20.0,-278.0,-47.0,16.0,-4.0,1
44.0,20.0,-284.0,-48.0,15.0,-5.0,1
44.0,19.0,-279.0,-51.0,14.0,-5.0,1
45.0,17.0,-281.0,-51.0,14.0,-7.0,1
44.0,19.0,-282.0,-51.0,16.0,-6.0,1
46.0,19.0,-286.0,-50.0,15.0,-6.0,1
45.0,20.0,-284.0,-48.0,16.0,-5.0,1
45.0,20.0,-281.0,-46.0,16.0,-6.0,1
46.0,17.0,-283.0,-47.0,15.0,-6.0,1
44.0,19.0,-287.0,-48.0,14.0,-5.0,1
42.0,23.0,-284.0,-50.0,14.0,-5.0,1
47.0,22.0,-282.0,-48.0,18.0,-7.0,1
47.0,17.0,-282.0,-50.0,19.0,-6.0,1
45.0,19.0,-284.0,-48.0,18.0,-4.0,1
47.0,16.0,-283.0,-49.0,17.0,-5.0,1
46.0,20.0,-281.0,-46.0,16.0,-5.0,1
45.0,18.0,-286.0,-45.0,16.0,-4.0,1
44.0,21.0,-286.0,-44.0,17.0,-4.0,1
45.0,17.0,-285.0,-43.0,17.0,-4.0,1
43.0,22.0,-282.0,-42.0,17.0,-6.0,1
44.0,22.0,-282.0,-44.0,16.0,-4.0,1
45.0,22.0,-285.0,-45.0,17.0,-5.0,1
43.0,21.0,-284.0,-42.0,15.0,-4.0,1
45.0,19.0,-282.0,-43.0,16.0,-4.0,1
43.0,19.0,-281.0,-44.0,15.0,-5.0,1
44.0,20.0,-282.0,-45.0,15.0,-5.0,1
44.0,18.0,-280.0,-45.0,15.0,-6.0,1
47.0,17.0,-282.0,-45.0,15.0,-4.0,1
42.0,21.0,-285.0,-45.0,16.0,-4.0,1
44.0,17.0,-292.0,-46.0,16.0,-4.0,1
43.0,21.0,-284.0,-47.0,16.0,-5.0,1
42.0,19.0,-283.0,-45.0,18.0,-4.0,1
46.0,18.0,-284.0,-44.0,17.0,-4.0,1
45.0,22.0,-280.0,-45.0,18.0,-4.0,1
44.0,19.0,-280.0,-45.0,17.0,-4.0,1
45.0,16.0,-286.0,-45.0,17.0,-4.0,1
44.0,17.0,-287.0,-45.0,17.0,-3.0,1
47.0,19.0,-282.0,-46.0,16.0,-4.0,1
42.0,18.0,-286.0,-45.0,17.0,-4.0,1
45.0,20.0,-282.0,-45.0,17.0,-5.0,1
46.0,16.0,-282.0,-44.0,18.0,-4.0,1
43.0,18.0,-282.0,-45.0,18.0,-4.0,1
44.0,20.0,-279.0,-45.0,19.0,-5.0,1
43.0,21.0,-283.0,-44.0,18.0,-4.0,1
44.0,20.0,-283.0,-43.0,18.0,-5.0,1
44.0,20.0,-281.0,-43.0,19.0,-4.0,1
43.0,19.0,-283.0,-43.0,17.0,-4.0,1
45.0,19.0,-281.0,-44.0,18.0,-4.0,1
45.0,18.0,-287.0,-45.0,18.0,-5.0,1
44.0,19.0,-281.0,-43.0,18.0,-6.0,1
47.0,19.0,-283.0,-45.0,17.0,-5.0,1
46.0,21.0,-286.0,-47.0,16.0,-6.0,1
47.0,18.0,-285.0,-46.0,18.0,-6.0,1
43.0,19.0,-283.0,-45.0,18.0,-4.0,1
42.0,20.0,-284.0,-45.0,18.0,-5.0,1
40.0,18.0,-281.0,-45.0,17.0,-5.0,1
43.0,20.0,-284.0,-45.0,18.0,-5.0,1
45.0,18.0,-283.0,-45.0,17.0,-5.0,1
44.0,18.0,-280.0,-45.0,17.0,-5.0,1
46.0,17.0,-280.0,-47.0,16.0,-5.0,1
44.0,18.0,-286.0,-46.0,16.0,-5.0,1
42.0,21.0,-285.0,-47.0,16.0,-4.0,1
46.0,18.0,-282.0,-47.0,17.0,-5.0,1
45.0,15.0,-281.0,-47.0,16.0,-5.0,1
41.0,22.0,-283.0,-47.0,18.0,-6.0,1
43.0,18.0,-284.0,-49.0,16.0,-3.0,1
45.0,19.0,-283.0,-48.0,18.0,-5.0,1
47.0,19.0,-286.0,-46.0,17.0,-5.0,1
45.0,17.0,-286.0,-46.0,16.0,-6.0,1
44.0,19.0,-284.0,-47.0,16.0,-6.0,1
43.0,21.0,-285.0,-47.0,17.0,-5.0,1
45.0,22.0,-284.0,-46.0,16.0,-6.0,1
45.0,19.0,-285.0,-47.0,17.0,-5.0,1
44.0,21.0,-287.0,-46.0,17.0,-4.0,1
45.0,19.0,-281.0,-46.0,17.0,-6.0,1
44.0,19.0,-283.0,-45.0,16.0,-6.0,1
46.0,16.0,-283.0,-45.0,17.0,-6.0,1
43.0,20.0,-281.0,-45.0,16.0,-5.0,1
44.0,21.0,-283.0,-46.0,16.0,-5.0,1
44.0,19.0,-280.0,-45.0,15.0,-5.0,1
46.0,16.0,-280.0,-46.0,15.0,-5.0,1
43.0,23.0,-283.0,-46.0,16.0,-5.0,1
42.0,19.0,-281.0,-46.0,17.0,-6.0,1
44.0,17.0,-283.0,-45.0,17.0,-5.0,1
47.0,19.0,-283.0,-44.0,18.0,-6.0,1
42.0,18.0,-282.0,-46.0,17.0,-5.0,1
47.0,17.0,-280.0,-46.0,16.0,-4.0,1
44.0,20.0,-280.0,-46.0,16.0,-3.0,1
43.0,20.0,-282.0,-46.0,17.0,-4.0,1
44.0,19.0,-283.0,-44.0,16.0,-4.0,1
46.0,19.0,-284.0,-45.0,16.0,-5.0,1
44.0,20.0,-285.0,-45.0,16.0,-6.0,1
47.0,20.0,-281.0,-46.0,16.0,-5.0,1
42.0,16.0,-281.0,-47.0,15.0,-5.0,1
46.0,21.0,-283.0,-47.0,16.0,-5.0,1
43.0,18.0,-283.0,-46.0,16.0,-6.0,1
45.0,19.0,-284.0,-46.0,17.0,-5.0,1
42.0,21.0,-285.0,-46.0,17.0,-6.0,1
46.0,20.0,-279.0,-46.0,17.0,-4.0,1
44.0,17.0,-281.0,-46.0,17.0,-6.0,1
44.0,21.0,-285.0,-45.0,17.0,-4.0,1
44.0,19.0,-281.0,-46.0,16.0,-5.0,1
45.0,20.0,-283.0,-45.0,15.0,-5.0,1
45.0,19.0,-281.0,-44.0,17.0,-5.0,1
45.0,19.0,-284.0,-44.0,17.0,-4.0,1
46.0,21.0,-285.0,-45.0,17.0,-5.0,1
46.0,19.0,-281.0,-43.0,18.0,-6.0,1
46.0,17.0,-282.0,-44.0,18.0,-4.0,1
46.0,18.0,-283.0,-46.0,17.0,-4.0,1
45.0,21.0,-281.0,-46.0,17.0,-4.0,1
41.0,18.0,-281.0,-47.0,17.0,-4.0,1
46.0,16.0,-284.0,-46.0,17.0,-4.0,1
46.0,18.0,-282.0,-46.0,16.0,-5.0,1
43.0,19.0,-283.0,-45.0,17.0,-5.0,1
45.0,27.0,-284.0,-45.0,17.0,-5.0,1
43.0,19.0,-282.0,-46.0,17.0,-5.0,1
46.0,18.0,-284.0,-44.0,18.0,-5.0,1
46.0,22.0,-283.0,-45.0,18.0,-4.0,1
43.0,20.0,-282.0,-47.0,18.0,-5.0,1
43.0,22.0,-282.0,-48.0,18.0,-4.0,1
44.0,21.0,-285.0,-48.0,18.0,-6.0,1
46.0,20.0,-282.0,-48.0,18.0,-5.0,1
43.0,20.0,-282.0,-46.0,17.0,-5.0,1
45.0,19.0,-277.0,-47.0,17.0,-4.0,1
45.0,19.0,-284.0,-45.0,16.0,-5.0,1
46.0,21.0,-283.0,-46.0,16.0,-5.0,1
45.0,18.0,-281.0,-46.0,16.0,-5.0,1
46.0,18.0,-283.0,-44.0,16.0,-5.0,1
45.0,19.0,-281.0,-45.0,17.0,-6.0,1
46.0,22.0,-283.0,-46.0,16.0,-4.0,1
45.0,17.0,-284.0,-46.0,15.0,-5.0,1
47.0,21.0,-283.0,-44.0,17.0,-5.0,1
45.0,18.0,-279.0,-45.0,16.0,-6.0,1
45.0,17.0,-284.0,-44.0,17.0,-5.0,1
45.0,20.0,-281.0,-45.0,17.0,-5.0,1
39.0,15.0,-289.0,-45.0,16.0,-4.0,1
45.0,18.0,-283.0,-45.0,16.0,-4.0,1
47.0,19.0,-283.0,-46.0,18.0,-5.0,1
44.0,23.0,-283.0,-47.0,17.0,-4.0,1
45.0,18.0,-284.0,-46.0,16.0,-5.0,1
45.0,20.0,-283.0,-45.0,17.0,-5.0,1
43.0,20.0,-282.0,-45.0,17.0,-4.0,1
45.0,18.0,-281.0,-44.0,16.0,-4.0,1
41.0,21.0,-281.0,-45.0,16.0,-3.0,1
45.0,19.0,-283.0,-43.0,15.0,-4.0,1
46.0,18.0,-281.0,-45.0,17.0,-4.0,1
39.0,20.0,-278.0,-46.0,16.0,-5.0,1
47.0,18.0,-284.0,-45.0,18.0,-5.0,1
46.0,20.0,-281.0,-46.0,16.0,-4.0,1
44.0,20.0,-280.0,-48.0,16.0,-3.0,1
45.0,19.0,-279.0,-48.0,17.0,-5.0,1
45.0,20.0,-283.0,-46.0,15.0,-4.0,1
43.0,20.0,-284.0,-46.0,15.0,-3.0,1
44.0,20.0,-283.0,-45.0,16.0,-5.0,1
45.0,19.0,-283.0,-45.0,17.0,-5.0,1
45.0,21.0,-283.0,-44.0,17.0,-6.0,1
44.0,20.0,-284.0,-44.0,18.0,-7.0,1
40.0,17.0,-283.0,-43.0,18.0,-6.0,1
43.0,19.0,-280.0,-44.0,17.0,-4.0,1
41.0,14.0,-284.0,-44.0,18.0,-4.0,1
41.0,23.0,-291.0,-43.0,16.0,-4.0,1
43.0,19.0,-289.0,-43.0,17.0,-5.0,1
44.0,24.0,-286.0,-45.0,16.0,-5.0,1
44.0,17.0,-289.0,-45.0,16.0,-6.0,1
46.0,22.0,-280.0,-48.0,18.0,-7.0,1
44.0,17.0,-277.0,-49.0,16.0,-4.0,1
45.0,16.0,-273.0,-48.0,16.0,-4.0,1
47.0,28.0,-284.0,-48.0,17.0,-5.0,1
43.0,17.0,-281.0,-47.0,17.0,-5.0,1
44.0,20.0,-284.0,-46.0,17.0,-6.0,1
44.0,22.0,-283.0,-45.0,16.0,-5.0,1
54.0,19.0,-284.0,-45.0,15.0,-6.0,1
46.0,27.0,-276.0,-47.0,16.0,-5.0,1
42.0,21.0,-295.0,-47.0,15.0,-6.0,1
41.0,19.0,-288.0,-47.0,17.0,-6.0,1
45.0,20.0,-285.0,-49.0,18.0,-6.0,1
41.0,17.0,-282.0,-47.0,18.0,-6.0,1
41.0,17.0,-288.0,-47.0,17.0,-6.0,1
43.0,22.0,-276.0,-48.0,16.0,-4.0,1
41.0,24.0,-283.0,-46.0,16.0,-5.0,1
40.0,20.0,-275.0,-47.0,16.0,-4.0,1
46.0,15.0,-283.0,-45.0,16.0,-4.0,1
48.0,21.0,-270.0,-45.0,17.0,-4.0,1
42.0,22.0,-280.0,-44.0,18.0,-4.0,1
47.0,17.0,-286.0,-44.0,17.0,-5.0,1
45.0,20.0,-282.0,-44.0,15.0,-4.0,1
49.0,23.0,-288.0,-44.0,16.0,-5.0,1
41.0,20.0,-286.0,-45.0,16.0,-4.0,1
45.0,16.0,-281.0,-45.0,16.0,-5.0,1
43.0,20.0,-277.0,-44.0,17.0,-4.0,1
46.0,20.0,-286.0,-45.0,17.0,-5.0,1
47.0,18.0,-283.0,-43.0,18.0,-5.0,1
42.0,17.0,-282.0,-44.0,17.0,-5.0,1
45.0,28.0,-285.0,-44.0,18.0,-4.0,1
47.0,16.0,-277.0,-44.0,17.0,-4.0,1
49.0,24.0,-281.0,-43.0,17.0,-7.0,1
51.0,20.0,-285.0,-43.0,16.0,-6.0,1
52.0,22.0,-283.0,-45.0,17.0,-5.0,1
45.0,18.0,-284.0,-44.0,16.0,-4.0,1
43.0,21.0,-285.0,-45.0,17.0,-5.0,1
45.0,19.0,-283.0,-45.0,17.0,-5.0,1
45.0,17.0,-283.0,-45.0,16.0,-4.0,1
45.0,23.0,-280.0,-45.0,17.0,-4.0,1
48.0,19.0,-289.0,-46.0,17.0,-5.0,1
41.0,21.0,-294.0,-46.0,17.0,-5.0,1
51.0,28.0,-280.0,-46.0,18.0,-5.0,1
47.0,25.0,-280.0,-45.0,17.0,-4.0,1
43.0,27.0,-287.0,-45.0,17.0,-5.0,1
47.0,21.0,-289.0,-44.0,18.0,-5.0,1
55.0,18.0,-270.0,-45.0,17.0,-5.0,1
46.0,19.0,-289.0,-46.0,18.0,-5.0,1
51.0,23.0,-278.0,-45.0,16.0,-4.0,1
51.0,21.0,-282.0,-47.0,16.0,-4.0,1
47.0,19.0,-282.0,-45.0,17.0,-5.0,1
46.0,20.0,-282.0,-44.0,18.0,-5.0,1
45.0,18.0,-284.0,-43.0,16.0,-5.0,1
44.0,18.0,-282.0,-44.0,17.0,-5.0,1
45.0,20.0,-284.0,-45.0,17.0,-4.0,1
47.0,19.0,-287.0,-47.0,17.0,-4.0,1
45.0,17.0,-288.0,-47.0,16.0,-6.0,1
46.0,27.0,-278.0,-46.0,17.0,-5.0,1
43.0,17.0,-294.0,-45.0,18.0,-4.0,1
44.0,18.0,-280.0,-46.0,16.0,-4.0,1
43.0,15.0,-276.0,-47.0,18.0,-5.0,1
39.0,28.0,-281.0,-47.0,16.0,-5.0,1
46.0,10.0,-282.0,-47.0,17.0,-6.0,1
48.0,24.0,-295.0,-45.0,18.0,-6.0,1
46.0,23.0,-281.0,-47.0,17.0,-5.0,1
49.0,26.0,-301.0,-47.0,17.0,-4.0,1
43.0,22.0,-283.0,-48.0,17.0,-5.0,1
45.0,17.0,-284.0,-46.0,17.0,-6.0,1
46.0,21.0,-285.0,-45.0,15.0,-5.0,1
45.0,21.0,-280.0,-45.0,15.0,-5.0,1
41.0,24.0,-278.0,-45.0,17.0,-5.0,1
47.0,26.0,-295.0,-45.0,18.0,-4.0,1
54.0,19.0,-270.0,-46.0,18.0,-6.0,1
38.0,31.0,-279.0,-46.0,17.0,-4.0,1
64.0,18.0,-285.0,-46.0,17.0,-4.0,1
47.0,23.0,-274.0,-47.0,17.0,-5.0,1
49.0,16.0,-282.0,-46.0,17.0,-5.0,1
45.0,20.0,-274.0,-47.0,18.0,-4.0,1
47.0,12.0,-283.0,-47.0,17.0,-6.0,1
43.0,22.0,-272.0,-46.0,16.0,-6.0,1
46.0,20.0,-287.0,-45.0,17.0,-5.0,1
45.0,19.0,-282.0,-45.0,17.0,-4.0,1
45.0,19.0,-279.0,-45.0,16.0,-4.0,1
45.0,21.0,-279.0,-45.0,17.0,-2.0,1
44.0,20.0,-286.0,-46.0,15.0,-4.0,1
45.0,22.0,-289.0,-47.0,16.0,-5.0,1
48.0,18.0,-264.0,-46.0,17.0,-6.0,1
34.0,15.0,-274.0,-45.0,16.0,-5.0,1
53.0,16.0,-277.0,-47.0,16.0,-7.0,1
45.0,24.0,-275.0,-47.0,16.0,-6.0,1
52.0,16.0,-280.0,-45.0,17.0,-5.0,1
40.0,20.0,-279.0,-46.0,17.0,-5.0,1
44.0,21.0,-285.0,-45.0,16.0,-6.0,1
46.0,18.0,-281.0,-46.0,15.0,-5.0,1
44.0,20.0,-280.0,-47.0,16.0,-5.0,1
45.0,20.0,-287.0,-46.0,17.0,-4.0,1
41.0,20.0,-281.0,-45.0,17.0,-5.0,1
45.0,22.0,-283.0,-45.0,17.0,-4.0,1
42.0,22.0,-282.0,-46.0,17.0,-5.0,1
45.0,17.0,-283.0,-43.0,18.0,-6.0,1
45.0,21.0,-285.0,-45.0,17.0,-6.0,1
43.0,19.0,-284.0,-46.0,18.0,-6.0,1
41.0,17.0,-281.0,-46.0,18.0,-6.0,1
44.0,19.0,-282.0,-46.0,17.0,-4.0,1
43.0,19.0,-283.0,-46.0,16.0,-5.0,1
49.0,23.0,-283.0,-45.0,16.0,-5.0,1
45.0,18.0,-281.0,-46.0,16.0,-5.0,1
44.0,20.0,-283.0,-46.0,17.0,-6.0,1
43.0,18.0,-284.0,-47.0,17.0,-5.0,1
45.0,19.0,-285.0,-46.0,16.0,-6.0,1
52.0,17.0,-292.0,-46.0,17.0,-5.0,1
43.0,18.0,-286.0,-44.0,17.0,-5.0,1
45.0,21.0,-284.0,-46.0,17.0,-5.0,1
45.0,20.0,-285.0,-46.0,17.0,-4.0,1
44.0,20.0,-282.0,-44.0,17.0,-4.0,1
46.0,19.0,-285.0,-45.0,17.0,-5.0,1
44.0,21.0,-283.0,-47.0,17.0,-5.0,1
47.0,15.0,-285.0,-46.0,17.0,-4.0,1
44.0,20.0,-283.0,-45.0,17.0,-4.0,1
42.0,20.0,-288.0,-47.0,15.0,-4.0,1
45.0,18.0,-284.0,-47.0,17.0,-4.0,1
45.0,19.0,-284.0,-47.0,17.0,-5.0,1
47.0,19.0,-274.0,-46.0,17.0,-4.0,1
45.0,21.0,-286.0,-46.0,17.0,-5.0,1
45.0,20.0,-284.0,-45.0,17.0,-4.0,1
46.0,20.0,-281.0,-46.0,18.0,-5.0,1
46.0,18.0,-281.0,-47.0,17.0,-5.0,1
46.0,20.0,-283.0,-45.0,18.0,-5.0,1
46.0,18.0,-281.0,-46.0,15.0,-2.0,1
47.0,21.0,-283.0,-47.0,16.0,-4.0,1
45.0,19.0,-284.0,-47.0,17.0,-5.0,1
44.0,19.0,-282.0,-47.0,16.0,-5.0,1
44.0,21.0,-283.0,-46.0,17.0,-5.0,1
45.0,18.0,-285.0,-47.0,17.0,-5.0,1
42.0,20.0,-284.0,-46.0,16.0,-5.0,1
45.0,19.0,-285.0,-46.0,16.0,-6.0,1
46.0,18.0,-283.0,-46.0,15.0,-5.0,1
43.0,21.0,-286.0,-45.0,15.0,-4.0,1
45.0,16.0,-279.0,-45.0,16.0,-5.0,1
45.0,17.0,-284.0,-45.0,16.0,-5.0,1
44.0,17.0,-279.0,-45.0,17.0,-5.0,1
45.0,18.0,-285.0,-46.0,17.0,-5.0,1
46.0,15.0,-280.0,-46.0,17.0,-5.0,1
46.0,22.0,-286.0,-45.0,18.0,-4.0,1
45.0,20.0,-285.0,-46.0,18.0,-4.0,1
45.0,20.0,-282.0,-46.0,18.0,-5.0,1
46.0,20.0,-282.0,-47.0,16.0,-5.0,1
44.0,20.0,-282.0,-48.0,15.0,-4.0,1
43.0,20.0,-284.0,-48.0,16.0,-5.0,1
43.0,21.0,-284.0,-47.0,15.0,-4.0,1
44.0,18.0,-283.0,-48.0,15.0,-5.0,1
46.0,20.0,-283.0,-46.0,15.0,-7.0,1
45.0,21.0,-282.0,-46.0,15.0,-5.0,1
45.0,19.0,-282.0,-46.0,16.0,-4.0,1
46.0,19.0,-286.0,-46.0,15.0,-6.0,1
43.0,22.0,-284.0,-47.0,15.0,-6.0,1
46.0,19.0,-285.0,-47.0,17.0,-6.0,1
43.0,21.0,-283.0,-46.0,17.0,-5.0,1
45.0,19.0,-282.0,-46.0,18.0,-5.0,1
46.0,21.0,-284.0,-47.0,18.0,-6.0,1
42.0,21.0,-282.0,-46.0,17.0,-6.0,1
45.0,19.0,-280.0,-46.0,17.0,-6.0,1
45.0,20.0,-283.0,-46.0,17.0,-5.0,1
42.0,22.0,-283.0,-46.0,18.0,-5.0,1
43.0,21.0,-284.0,-47.0,16.0,-6.0,1
43.0,18.0,-285.0,-46.0,16.0,-5.0,1
45.0,19.0,-284.0,-48.0,16.0,-4.0,1
43.0,18.0,-284.0,-47.0,16.0,-5.0,1
44.0,20.0,-288.0,-46.0,16.0,-6.0,1
46.0,16.0,-282.0,-46.0,17.0,-5.0,1
42.0,20.0,-281.0,-46.0,16.0,-4.0,1
44.0,18.0,-281.0,-48.0,16.0,-5.0,1
44.0,19.0,-280.0,-48.0,17.0,-7.0,1
43.0,20.0,-284.0,-49.0,16.0,-7.0,1
45.0,18.0,-284.0,-48.0,15.0,-7.0,1
42.0,22.0,-283.0,-46.0,15.0,-6.0,1
44.0,19.0,-284.0,-46.0,16.0,-5.0,1
45.0,19.0,-282.0,-47.0,16.0,-5.0,1
45.0,20.0,-284.0,-46.0,17.0,-7.0,1
45.0,20.0,-282.0,-44.0,18.0,-6.0,1
44.0,19.0,-286.0,-44.0,17.0,-6.0,1
45.0,18.0,-287.0,-46.0,17.0,-4.0,1
46.0,21.0,-280.0,-45.0,17.0,-5.0,1
46.0,21.0,-287.0,-44.0,17.0,-4.0,1
43.0,20.0,-284.0,-44.0,17.0,-5.0,1
43.0,20.0,-283.0,-46.0,17.0,-4.0,1
41.0,19.0,-282.0,-48.0,16.0,-4.0,1
45.0,20.0,-281.0,-48.0,16.0,-5.0,1
43.0,17.0,-279.0,-48.0,17.0,-5.0,1
46.0,19.0,-280.0,-48.0,16.0,-6.0,1
44.0,19.0,-280.0,-47.0,16.0,-7.0,1
44.0,20.0,-282.0,-46.0,17.0,-5.0,1
46.0,18.0,-283.0,-46.0,16.0,-4.0,1
46.0,20.0,-283.0,-46.0,16.0,-6.0,1
45.0,19.0,-283.0,-47.0,15.0,-4.0,1
40.0,19.0,-283.0,-46.0,15.0,-6.0,1
48.0,18.0,-283.0,-48.0,17.0,-6.0,1
43.0,20.0,-283.0,-48.0,18.0,-5.0,1
43.0,20.0,-283.0,-46.0,18.0,-5.0,1
46.0,19.0,-288.0,-46.0,18.0,-5.0,1
44.0,21.0,-286.0,-45.0,17.0,-5.0,1
44.0,18.0,-286.0,-45.0,16.0,-5.0,1
43.0,21.0,-285.0,-44.0,16.0,-4.0,1
43.0,19.0,-285.0,-45.0,16.0,-5.0,1
46.0,18.0,-285.0,-44.0,18.0,-4.0,1
47.0,21.0,-287.0,-44.0,17.0,-4.0,1
44.0,20.0,-278.0,-44.0,17.0,-5.0,1
41.0,21.0,-286.0,-44.0,17.0,-5.0,1
46.0,21.0,-283.0,-45.0,17.0,-5.0,1
45.0,18.0,-286.0,-46.0,17.0,-6.0,1
44.0,19.0,-285.0,-45.0,17.0,-5.0,1
44.0,20.0,-285.0,-47.0,17.0,-6.0,1
47.0,17.0,-283.0,-45.0,17.0,-4.0,1
41.0,22.0,-283.0,-46.0,17.0,-4.0,1
42.0,20.0,-282.0,-45.0,16.0,-5.0,1
45.0,19.0,-283.0,-45.0,16.0,-4.0,1
43.0,21.0,-281.0,-44.0,16.0,-5.0,1
43.0,20.0,-282.0,-46.0,17.0,-5.0,1
46.0,21.0,-285.0,-46.0,16.0,-4.0,1
43.0,20.0,-282.0,-45.0,18.0,-4.0,1
45.0,18.0,-285.0,-45.0,17.0,-4.0,1
45.0,22.0,-282.0,-46.0,17.0,-3.0,1
45.0,20.0,-281.0,-45.0,17.0,-4.0,1
44.0,18.0,-283.0,-45.0,19.0,-4.0,1
41.0,20.0,-282.0,-44.0,16.0,-4.0,1
45.0,17.0,-281.0,-43.0,17.0,-5.0,1
45.0,19.0,-283.0,-44.0,16.0,-5.0,1
45.0,20.0,-281.0,-45.0,18.0,-4.0,1
45.0,23.0,-283.0,-46.0,17.0,-4.0,1
44.0,18.0,-284.0,-45.0,17.0,-5.0,1
47.0,14.0,-282.0,-45.0,18.0,-4.0,1
43.0,20.0,-281.0,-43.0,18.0,-5.0,1
47.0,16.0,-281.0,-43.0,19.0,-4.0,1
45.0,21.0,-285.0,-44.0,18.0,-5.0,1
44.0,20.0,-280.0,-45.0,18.0,-5.0,1
45.0,20.0,-284.0,-43.0,16.0,-6.0,1
42.0,18.0,-280.0,-46.0,16.0,-5.0,1
44.0,21.0,-284.0,-44.0,16.0,-4.0,1
45.0,16.0,-283.0,-44.0,16.0,-5.0,1
46.0,17.0,-285.0,-46.0,15.0,-4.0,1
47.0,20.0,-282.0,-46.0,15.0,-4.0,1
45.0,15.0,-282.0,-45.0,16.0,-5.0,1
42.0,20.0,-285.0,-45.0,17.0,-5.0,1
47.0,21.0,-286.0,-45.0,16.0,-4.0,1
45.0,17.0,-284.0,-45.0,15.0,-5.0,1
45.0,21.0,-284.0,-44.0,16.0,-6.0,1
44.0,15.0,-283.0,-46.0,16.0,-6.0,1
45.0,18.0,-281.0,-46.0,18.0,-6.0,1
47.0,18.0,-279.0,-47.0,18.0,-5.0,1
45.0,19.0,-287.0,-46.0,19.0,-5.0,1
48.0,22.0,-275.0,-46.0,18.0,-4.0,1
45.0,20.0,-284.0,-45.0,18.0,-4.0,1
43.0,21.0,-283.0,-46.0,18.0,-4.0,1
45.0,20.0,-284.0,-46.0,18.0,-5.0,1
45.0,19.0,-285.0,-46.0,16.0,-6.0,1
43.0,24.0,-282.0,-45.0,17.0,-5.0,1
44.0,20.0,-285.0,-46.0,18.0,-5.0,1
44.0,21.0,-283.0,-45.0,17.0,-5.0,1
43.0,19.0,-280.0,-44.0,18.0,-6.0,1
47.0,20.0,-282.0,-43.0,17.0,-5.0,1
44.0,21.0,-282.0,-43.0,17.0,-5.0,1
45.0,17.0,-284.0,-44.0,17.0,-4.0,1
42.0,20.0,-285.0,-44.0,17.0,-5.0,1
46.0,19.0,-283.0,-45.0,16.0,-5.0,1
44.0,21.0,-284.0,-45.0,15.0,-4.0,1
45.0,19.0,-285.0,-45.0,16.0,-4.0,1
42.0,23.0,-285.0,-46.0,16.0,-5.0,1
43.0,22.0,-284.0,-45.0,16.0,-5.0,1
45.0,22.0,-286.0,-45.0,17.0,-5.0,1
43.0,17.0,-286.0,-45.0,17.0,-5.0,1
46.0,20.0,-280.0,-47.0,17.0,-5.0,1
45.0,18.0,-282.0,-46.0,17.0,-4.0,1
44.0,19.0,-279.0,-46.0,17.0,-4.0,1
44.0,20.0,-284.0,-48.0,17.0,-4.0,1
45.0,19.0,-283.0,-47.0,17.0,-5.0,1
45.0,18.0,-280.0,-46.0,15.0,-5.0,1
47.0,19.0,-284.0,-45.0,16.0,-5.0,1
43.0,25.0,-281.0,-46.0,16.0,-5.0,1
40.0,20.0,-281.0,-46.0,16.0,-5.0,1
44.0,23.0,-284.0,-45.0,18.0,-5.0,1
45.0,19.0,-283.0,-46.0,16.0,-4.0,1
46.0,20.0,-281.0,-46.0,17.0,-5.0,1
43.0,19.0,-285.0,-47.0,18.0,-4.0,1
45.0,19.0,-282.0,-45.0,18.0,-4.0,1
45.0,20.0,-281.0,-45.0,17.0,-4.0,1
47.0,15.0,-283.0,-45.0,17.0,-5.0,1
44.0,19.0,-282.0,-47.0,17.0,-6.0,1
45.0,18.0,-283.0,-47.0,17.0,-5.0,1
45.0,18.0,-286.0,-48.0,16.0,-5.0,1
44.0,19.0,-281.0,-48.0,17.0,-4.0,1
43.0,19.0,-282.0,-46.0,16.0,-5.0,1
45.0,21.0,-282.0,-45.0,16.0,-5.0,1
46.0,21.0,-280.0,-47.0,17.0,-6.0,1
47.0,21.0,-284.0,-47.0,16.0,-6.0,1
46.0,15.0,-281.0,-47.0,16.0,-7.0,1
46.0,19.0,-285.0,-47.0,16.0,-6.0,1
43.0,19.0,-282.0,-47.0,16.0,-7.0,1
44.0,22.0,-279.0,-46.0,16.0,-5.0,1
41.0,20.0,-283.0,-46.0,16.0,-5.0,1
46.0,18.0,-281.0,-46.0,17.0,-5.0,1
43.0,24.0,-281.0,-47.0,17.0,-5.0,1
44.0,20.0,-284.0,-47.0,17.0,-6.0,1
47.0,21.0,-288.0,-47.0,17.0,-6.0,1
45.0,23.0,-282.0,-45.0,16.0,-6.0,1
46.0,19.0,-282.0,-45.0,16.0,-6.0,1
43.0,23.0,-281.0,-46.0,16.0,-5.0,1
44.0,20.0,-283.0,-46.0,16.0,-4.0,1
46.0,18.0,-277.0,-45.0,18.0,-5.0,1
46.0,19.0,-286.0,-45.0,17.0,-5.0,1
44.0,21.0,-284.0,-46.0,18.0,-4.0,1
46.0,15.0,-282.0,-46.0,17.0,-4.0,1
42.0,20.0,-284.0,-46.0,16.0,-5.0,1
43.0,23.0,-284.0,-47.0,17.0,-4.0,1
46.0,19.0,-286.0,-46.0,17.0,-5.0,1
42.0,16.0,-286.0,-46.0,17.0,-5.0,1
47.0,19.0,-283.0,-46.0,18.0,-5.0,1
45.0,20.0,-282.0,-44.0,17.0,-4.0,1
44.0,18.0,-285.0,-45.0,18.0,-4.0,1
47.0,16.0,-281.0,-46.0,18.0,-5.0,1
44.0,20.0,-285.0,-46.0,18.0,-6.0,1
44.0,19.0,-285.0,-47.0,18.0,-4.0,1
45.0,21.0,-287.0,-47.0,19.0,-5.0,1
45.0,23.0,-284.0,-44.0,18.0,-5.0,1
46.0,21.0,-285.0,-46.0,17.0,-5.0,1
44.0,20.0,-282.0,-45.0,18.0,-4.0,1
46.0,18.0,-282.0,-45.0,17.0,-3.0,1
42.0,20.0,-283.0,-45.0,17.0,-4.0,1
45.0,18.0,-285.0,-44.0,16.0,-4.0,1
46.0,20.0,-285.0,-45.0,16.0,-5.0,1
45.0,19.0,-281.0,-47.0,16.0,-6.0,1
46.0,19.0,-284.0,-46.0,17.0,-6.0,1
45.0,18.0,-281.0,-46.0,17.0,-5.0,1
43.0,23.0,-285.0,-47.0,16.0,-7.0,1
45.0,18.0,-283.0,-46.0,17.0,-6.0,1
