ax,ay,az,gx,gy,gz,label
70.0,-290.0,-104.0,470.0,301.0,-186.0,1
61.0,-289.0,-96.0,505.0,283.0,-161.0,1
42.0,-279.0,-103.0,534.0,238.0,-133.0,1
25.0,-273.0,-106.0,558.0,172.0,-104.0,1
3.0,-262.0,-110.0,573.0,89.0,-75.0,1
-2.0,-253.0,-119.0,579.0,-11.0,-47.0,1
-18.0,-245.0,-123.0,570.0,-114.0,-21.0,1
-25.0,-237.0,-132.0,547.0,-211.0,-1.0,1
-28.0,-229.0,-140.0,511.0,-293.0,10.0,1
-33.0,-215.0,-146.0,469.0,-355.0,14.0,1
-41.0,-204.0,-155.0,423.0,-406.0,10.0,1
-40.0,-192.0,-155.0,377.0,-449.0,1.0,1
-44.0,-184.0,-161.0,341.0,-489.0,-11.0,1
-47.0,-172.0,-161.0,310.0,-521.0,-21.0,1
-45.0,-166.0,-158.0,280.0,-546.0,-23.0,1
-44.0,-168.0,-143.0,244.0,-561.0,-23.0,1
-40.0,-170.0,-149.0,204.0,-565.0,-18.0,1
-31.0,-178.0,-135.0,155.0,-557.0,-14.0,1
-17.0,-182.0,-130.0,99.0,-539.0,-12.0,1
-5.0,-190.0,-127.0,46.0,-511.0,-14.0,1
4.0,-197.0,-120.0,-3.0,-476.0,-15.0,1
14.0,-208.0,-121.0,-35.0,-437.0,-20.0,1
17.0,-213.0,-120.0,-46.0,-397.0,-21.0,1
23.0,-216.0,-119.0,-30.0,-360.0,-20.0,1
24.0,-223.0,-122.0,10.0,-328.0,-21.0,1
23.0,-225.0,-120.0,60.0,-303.0,-22.0,1
20.0,-220.0,-115.0,107.0,-278.0,-25.0,1
26.0,-221.0,-118.0,140.0,-253.0,-23.0,1
25.0,-218.0,-114.0,153.0,-230.0,-17.0,1
25.0,-217.0,-113.0,143.0,-211.0,-4.0,1
22.0,-217.0,-109.0,118.0,-195.0,9.0,1
22.0,-215.0,-106.0,83.0,-185.0,27.0,1
16.0,-210.0,-108.0,51.0,-180.0,51.0,1
10.0,-214.0,-106.0,22.0,-186.0,72.0,1
7.0,-207.0,-112.0,-1.0,-204.0,91.0,1
5.0,-212.0,-108.0,-16.0,-215.0,120.0,1
1.0,-212.0,-111.0,-22.0,-229.0,141.0,1
4.0,-206.0,-100.0,-22.0,-240.0,155.0,1
2.0,-208.0,-103.0,-20.0,-242.0,172.0,1
2.0,-205.0,-97.0,-18.0,-247.0,182.0,1
3.0,-208.0,-91.0,-14.0,-249.0,193.0,1
3.0,-209.0,-86.0,-10.0,-250.0,197.0,1
1.0,-205.0,-86.0,-9.0,-248.0,206.0,1
3.0,-204.0,-87.0,-4.0,-241.0,208.0,1
1.0,-201.0,-82.0,1.0,-228.0,212.0,1
5.0,-200.0,-84.0,4.0,-213.0,206.0,1
4.0,-196.0,-88.0,9.0,-193.0,200.0,1
4.0,-197.0,-82.0,11.0,-170.0,194.0,1
5.0,-194.0,-83.0,14.0,-145.0,191.0,1
11.0,-197.0,-83.0,20.0,-119.0,186.0,1
8.0,-193.0,-84.0,28.0,-93.0,182.0,1
5.0,-192.0,-77.0,36.0,-75.0,184.0,1
5.0,-196.0,-80.0,38.0,-57.0,182.0,1
1.0,-192.0,-77.0,39.0,-46.0,178.0,1
-2.0,-194.0,-69.0,38.0,-40.0,180.0,1
-5.0,-194.0,-71.0,30.0,-36.0,184.0,1
-9.0,-196.0,-71.0,17.0,-35.0,189.0,1
-8.0,-202.0,-65.0,3.0,-35.0,194.0,1
-13.0,-201.0,-68.0,-13.0,-36.0,196.0,1
-17.0,-202.0,-74.0,-30.0,-40.0,193.0,1
-13.0,-204.0,-66.0,-45.0,-41.0,188.0,1
-18.0,-209.0,-64.0,-58.0,-43.0,179.0,1
-16.0,-212.0,-66.0,-66.0,-42.0,166.0,1
-20.0,-215.0,-59.0,-67.0,-37.0,154.0,1
-15.0,-219.0,-64.0,-64.0,-33.0,134.0,1
-18.0,-219.0,-64.0,-62.0,-25.0,112.0,1
-18.0,-218.0,-63.0,-60.0,-12.0,92.0,1
-18.0,-220.0,-64.0,-55.0,3.0,66.0,1
-17.0,-216.0,-61.0,-48.0,22.0,43.0,1
-13.0,-219.0,-58.0,-38.0,43.0,23.0,1
-9.0,-218.0,-57.0,-30.0,66.0,6.0,1
-11.0,-215.0,-56.0,-25.0,92.0,-9.0,1
-8.0,-215.0,-58.0,-20.0,119.0,-20.0,1
-7.0,-215.0,-55.0,-14.0,142.0,-27.0,1
-1.0,-213.0,-58.0,-8.0,162.0,-34.0,1
-1.0,-215.0,-52.0,1.0,177.0,-39.0,1
1.0,-216.0,-52.0,6.0,190.0,-41.0,1
-1.0,-218.0,-49.0,7.0,200.0,-42.0,1
0.0,-220.0,-48.0,14.0,206.0,-44.0,1
-1.0,-231.0,-40.0,19.0,209.0,-49.0,1
1.0,-233.0,-40.0,28.0,213.0,-54.0,1
3.0,-235.0,-36.0,36.0,214.0,-57.0,1
2.0,-245.0,-35.0,47.0,216.0,-59.0,1
0.0,-247.0,-37.0,60.0,216.0,-59.0,1
-1.0,-252.0,-34.0,73.0,213.0,-59.0,1
0.0,-257.0,-35.0,91.0,210.0,-57.0,1
2.0,-260.0,-34.0,115.0,208.0,-54.0,1
1.0,-261.0,-35.0,142.0,206.0,-47.0,1
1.0,-265.0,-39.0,169.0,207.0,-40.0,1
4.0,-270.0,-37.0,198.0,208.0,-37.0,1
3.0,-268.0,-34.0,229.0,207.0,-35.0,1
0.0,-267.0,-41.0,261.0,207.0,-34.0,1
0.0,-262.0,-45.0,294.0,202.0,-34.0,1
-2.0,-260.0,-47.0,322.0,185.0,-35.0,1
-10.0,-253.0,-52.0,344.0,157.0,-34.0,1
-15.0,-248.0,-53.0,360.0,129.0,-28.0,1
-23.0,-248.0,-60.0,365.0,103.0,-23.0,1
-32.0,-242.0,-59.0,370.0,85.0,-12.0,1
-43.0,-243.0,-51.0,368.0,79.0,-1.0,1
-43.0,-240.0,-52.0,355.0,92.0,13.0,1
-49.0,-238.0,-39.0,332.0,126.0,27.0,1
-41.0,-245.0,-27.0,310.0,178.0,40.0,1
-34.0,-255.0,-13.0,288.0,239.0,52.0,1
-18.0,-257.0,-6.0,276.0,301.0,63.0,1
-10.0,-263.0,-6.0,270.0,358.0,73.0,1
0.0,-263.0,-7.0,270.0,410.0,81.0,1
8.0,-274.0,-7.0,271.0,457.0,95.0,1
13.0,-278.0,-21.0,262.0,489.0,112.0,1
23.0,-285.0,-44.0,228.0,505.0,138.0,1
37.0,-286.0,-64.0,159.0,508.0,167.0,1
51.0,-289.0,-91.0,64.0,497.0,195.0,1
49.0,-290.0,-124.0,-46.0,467.0,220.0,1
34.0,-296.0,-157.0,-148.0,409.0,251.0,1
26.0,-307.0,-168.0,-216.0,318.0,271.0,1
6.0,-309.0,-175.0,-223.0,216.0,291.0,1
-21.0,-313.0,-167.0,-163.0,116.0,319.0,1
-54.0,-323.0,-144.0,-79.0,44.0,391.0,1
-82.0,-319.0,-127.0,33.0,-48.0,420.0,1
-91.0,-321.0,-113.0,122.0,-122.0,429.0,1
-92.0,-316.0,-120.0,176.0,-171.0,442.0,1
-84.0,-310.0,-133.0,177.0,-195.0,443.0,1
-74.0,-300.0,-148.0,144.0,-196.0,431.0,1
-67.0,-292.0,-162.0,97.0,-170.0,413.0,1
-64.0,-285.0,-174.0,49.0,-114.0,395.0,1
-58.0,-287.0,-177.0,20.0,-27.0,379.0,1
-46.0,-289.0,-182.0,6.0,87.0,362.0,1
-27.0,-290.0,-180.0,-1.0,214.0,338.0,1
-4.0,-284.0,-181.0,6.0,336.0,308.0,1
9.0,-273.0,-192.0,25.0,427.0,268.0,1
19.0,-260.0,-191.0,58.0,479.0,226.0,1
29.0,-246.0,-193.0,95.0,504.0,191.0,1
49.0,-240.0,-185.0,117.0,532.0,168.0,1
61.0,-228.0,-173.0,137.0,564.0,153.0,1
68.0,-221.0,-159.0,163.0,598.0,144.0,1
65.0,-215.0,-147.0,194.0,621.0,139.0,1
64.0,-200.0,-147.0,221.0,632.0,137.0,1
71.0,-194.0,-144.0,236.0,628.0,136.0,1
77.0,-183.0,-139.0,239.0,612.0,140.0,1
78.0,-178.0,-132.0,229.0,583.0,145.0,1
77.0,-172.0,-124.0,213.0,549.0,147.0,1
72.0,-170.0,-126.0,190.0,520.0,146.0,1
64.0,-173.0,-111.0,159.0,495.0,140.0,1
48.0,-177.0,-111.0,120.0,476.0,124.0,1
32.0,-180.0,-101.0,72.0,460.0,103.0,1
15.0,-179.0,-95.0,23.0,447.0,72.0,1
6.0,-190.0,-96.0,-22.0,438.0,38.0,1
-1.0,-186.0,-92.0,-59.0,431.0,3.0,1
-9.0,-191.0,-86.0,-86.0,429.0,-36.0,1
-21.0,-192.0,-83.0,-108.0,425.0,-73.0,1
-23.0,-200.0,-84.0,-128.0,422.0,-112.0,1
-29.0,-201.0,-81.0,-147.0,415.0,-146.0,1
-29.0,-201.0,-81.0,-160.0,410.0,-179.0,1
-32.0,-200.0,-83.0,-166.0,404.0,-208.0,1
-29.0,-201.0,-82.0,-166.0,402.0,-231.0,1
-22.0,-204.0,-88.0,-165.0,403.0,-246.0,1
-18.0,-195.0,-93.0,-161.0,405.0,-253.0,1
-6.0,-195.0,-94.0,-155.0,408.0,-250.0,1
-9.0,-195.0,-97.0,-152.0,412.0,-241.0,1
-1.0,-196.0,-98.0,-151.0,414.0,-231.0,1
5.0,-194.0,-95.0,-154.0,413.0,-217.0,1
5.0,-197.0,-89.0,-155.0,404.0,-202.0,1
19.0,-193.0,-92.0,-158.0,384.0,-192.0,1
24.0,-193.0,-90.0,-156.0,371.0,-173.0,1
31.0,-196.0,-88.0,-150.0,355.0,-154.0,1
31.0,-201.0,-82.0,-144.0,339.0,-142.0,1
34.0,-201.0,-78.0,-139.0,323.0,-131.0,1
31.0,-203.0,-81.0,-132.0,308.0,-122.0,1
31.0,-204.0,-77.0,-123.0,290.0,-114.0,1
29.0,-204.0,-76.0,-113.0,269.0,-107.0,1
24.0,-208.0,-76.0,-104.0,247.0,-98.0,1
22.0,-208.0,-78.0,-100.0,226.0,-86.0,1
14.0,-207.0,-75.0,-98.0,208.0,-76.0,1
19.0,-209.0,-79.0,-103.0,180.0,-82.0,1
20.0,-211.0,-75.0,-111.0,171.0,-74.0,1
23.0,-214.0,-77.0,-118.0,166.0,-59.0,1
21.0,-211.0,-80.0,-125.0,163.0,-44.0,1
20.0,-209.0,-79.0,-126.0,166.0,-33.0,1
18.0,-213.0,-78.0,-122.0,169.0,-29.0,1
19.0,-213.0,-74.0,-115.0,172.0,-29.0,1
24.0,-211.0,-81.0,-104.0,176.0,-31.0,1
26.0,-206.0,-82.0,-91.0,183.0,-34.0,1
32.0,-207.0,-79.0,-79.0,191.0,-33.0,1
29.0,-210.0,-80.0,-70.0,198.0,-34.0,1
32.0,-211.0,-74.0,-63.0,203.0,-32.0,1
33.0,-212.0,-77.0,-60.0,207.0,-31.0,1
30.0,-210.0,-78.0,-59.0,205.0,-32.0,1
29.0,-215.0,-76.0,-59.0,198.0,-35.0,1
24.0,-214.0,-76.0,-61.0,186.0,-41.0,1
21.0,-213.0,-69.0,-61.0,175.0,-40.0,1
20.0,-222.0,-67.0,-57.0,161.0,-32.0,1
23.0,-220.0,-71.0,-49.0,145.0,-30.0,1
10.0,-217.0,-68.0,-38.0,126.0,-30.0,1
17.0,-221.0,-64.0,-30.0,99.0,-41.0,1
20.0,-217.0,-63.0,-21.0,81.0,-43.0,1
17.0,-217.0,-58.0,-10.0,62.0,-41.0,1
15.0,-216.0,-53.0,1.0,36.0,-39.0,1
12.0,-215.0,-53.0,14.0,2.0,-38.0,1
8.0,-218.0,-43.0,23.0,-35.0,-39.0,1
1.0,-220.0,-44.0,33.0,-76.0,-41.0,1
2.0,-222.0,-39.0,40.0,-124.0,-44.0,1
-3.0,-233.0,-38.0,46.0,-173.0,-44.0,1
-12.0,-231.0,-37.0,53.0,-222.0,-42.0,1
-18.0,-237.0,-31.0,62.0,-275.0,-36.0,1
-18.0,-244.0,-32.0,75.0,-330.0,-32.0,1
-24.0,-248.0,-28.0,89.0,-380.0,-24.0,1
-24.0,-254.0,-28.0,104.0,-421.0,-14.0,1
-22.0,-260.0,-29.0,124.0,-451.0,-6.0,1
-25.0,-267.0,-30.0,147.0,-466.0,0.0,1
-24.0,-269.0,-31.0,172.0,-466.0,6.0,1
-15.0,-271.0,-34.0,199.0,-450.0,10.0,1
-11.0,-262.0,-42.0,229.0,-411.0,16.0,1
4.0,-263.0,-61.0,258.0,-352.0,21.0,1
18.0,-254.0,-69.0,283.0,-277.0,23.0,1
31.0,-246.0,-69.0,296.0,-199.0,15.0,1
52.0,-241.0,-73.0,297.0,-131.0,1.0,1
68.0,-237.0,-68.0,292.0,-79.0,-20.0,1
87.0,-237.0,-51.0,300.0,-54.0,-38.0,1
96.0,-241.0,-38.0,321.0,-45.0,-53.0,1
102.0,-244.0,-24.0,350.0,-57.0,-64.0,1
98.0,-250.0,-6.0,381.0,-80.0,-73.0,1
86.0,-258.0,-1.0,413.0,-115.0,-83.0,1
69.0,-266.0,1.0,442.0,-149.0,-90.0,1
54.0,-276.0,1.0,470.0,-176.0,-100.0,1
39.0,-283.0,1.0,488.0,-196.0,-110.0,1
23.0,-287.0,-14.0,488.0,-209.0,-123.0,1
5.0,-294.0,-25.0,459.0,-216.0,-138.0,1
0.0,-299.0,-43.0,392.0,-220.0,-153.0,1
-9.0,-304.0,-77.0,284.0,-216.0,-171.0,1
-16.0,-312.0,-111.0,145.0,-198.0,-200.0,1
0.0,-306.0,-141.0,-10.0,-162.0,-243.0,1
18.0,-303.0,-175.0,-121.0,-69.0,-258.0,1
40.0,-303.0,-183.0,-172.0,47.0,-265.0,1
62.0,-304.0,-186.0,-160.0,167.0,-278.0,1
85.0,-297.0,-193.0,-100.0,275.0,-290.0,1
97.0,-297.0,-187.0,-15.0,357.0,-298.0,1
110.0,-294.0,-187.0,70.0,423.0,-300.0,1
112.0,-295.0,-172.0,132.0,470.0,-292.0,1
108.0,-299.0,-161.0,169.0,494.0,-275.0,1
93.0,-297.0,-155.0,181.0,494.0,-249.0,1
75.0,-294.0,-154.0,175.0,465.0,-222.0,1
61.0,-294.0,-151.0,175.0,413.0,-203.0,1
39.0,-285.0,-146.0,202.0,341.0,-191.0,1
5.0,-278.0,-141.0,251.0,248.0,-183.0,1
-13.0,-274.0,-147.0,305.0,136.0,-174.0,1
-36.0,-267.0,-145.0,359.0,16.0,-168.0,1
-64.0,-260.0,-150.0,404.0,-103.0,-157.0,1
-88.0,-250.0,-153.0,432.0,-207.0,-154.0,1
-108.0,-238.0,-162.0,435.0,-284.0,-150.0,1
-127.0,-226.0,-164.0,414.0,-339.0,-147.0,1
-130.0,-222.0,-163.0,384.0,-376.0,-146.0,1
-128.0,-210.0,-161.0,355.0,-400.0,-146.0,1
-125.0,-206.0,-164.0,322.0,-418.0,-142.0,1
-108.0,-204.0,-153.0,293.0,-434.0,-132.0,1
-85.0,-202.0,-142.0,268.0,-441.0,-117.0,1
-63.0,-200.0,-130.0,254.0,-437.0,-101.0,1
-43.0,-195.0,-129.0,246.0,-417.0,-83.0,1
-23.0,-194.0,-122.0,239.0,-393.0,-72.0,1
-2.0,-195.0,-117.0,227.0,-371.0,-62.0,1
12.0,-191.0,-111.0,212.0,-351.0,-54.0,1
28.0,-191.0,-106.0,187.0,-329.0,-39.0,1
42.0,-191.0,-102.0,159.0,-305.0,-24.0,1
51.0,-194.0,-103.0,122.0,-276.0,-3.0,1
62.0,-195.0,-97.0,80.0,-247.0,19.0,1
66.0,-196.0,-104.0,34.0,-220.0,41.0,1
69.0,-195.0,-106.0,-4.0,-194.0,62.0,1
69.0,-196.0,-107.0,-31.0,-171.0,84.0,1
59.0,-201.0,-106.0,-43.0,-149.0,108.0,1
48.0,-201.0,-117.0,-42.0,-138.0,118.0,1
41.0,-204.0,-108.0,-35.0,-123.0,130.0,1
32.0,-203.0,-107.0,-25.0,-104.0,142.0,1
23.0,-203.0,-100.0,-18.0,-83.0,160.0,1
11.0,-204.0,-99.0,-22.0,-69.0,178.0,1
1.0,-201.0,-97.0,-27.0,-64.0,189.0,1
-3.0,-201.0,-96.0,-34.0,-63.0,198.0,1
-12.0,-196.0,-86.0,-39.0,-68.0,200.0,1
-19.0,-198.0,-89.0,-40.0,-80.0,199.0,1
-23.0,-193.0,-87.0,-33.0,-98.0,197.0,1
-26.0,-193.0,-85.0,-23.0,-120.0,193.0,1
-28.0,-191.0,-88.0,-10.0,-141.0,187.0,1
-27.0,-190.0,-79.0,1.0,-159.0,178.0,1
-24.0,-188.0,-80.0,10.0,-170.0,169.0,1
-25.0,-185.0,-76.0,17.0,-175.0,160.0,1
-23.0,-177.0,-72.0,26.0,-173.0,149.0,1
-14.0,-182.0,-74.0,32.0,-164.0,133.0,1
-17.0,-174.0,-75.0,35.0,-152.0,118.0,1
-12.0,-176.0,-71.0,32.0,-137.0,104.0,1
-9.0,-179.0,-67.0,26.0,-121.0,90.0,1
-14.0,-181.0,-67.0,12.0,-100.0,78.0,1
-8.0,-184.0,-70.0,-6.0,-80.0,65.0,1
-8.0,-184.0,-71.0,-26.0,-62.0,54.0,1
-13.0,-188.0,-69.0,-49.0,-44.0,42.0,1
-15.0,-191.0,-68.0,-70.0,-32.0,29.0,1
-16.0,-193.0,-68.0,-87.0,-25.0,15.0,1
-18.0,-197.0,-66.0,-97.0,-21.0,6.0,1
-20.0,-199.0,-68.0,-104.0,-21.0,-7.0,1
-22.0,-204.0,-65.0,-107.0,-24.0,-20.0,1
-22.0,-208.0,-63.0,-109.0,-29.0,-33.0,1
-21.0,-213.0,-58.0,-111.0,-33.0,-45.0,1
-25.0,-215.0,-60.0,-111.0,-36.0,-57.0,1
-27.0,-216.0,-61.0,-109.0,-40.0,-70.0,1
-24.0,-220.0,-56.0,-104.0,-42.0,-85.0,1
-22.0,-219.0,-59.0,-95.0,-43.0,-97.0,1
-20.0,-219.0,-54.0,-85.0,-41.0,-112.0,1
-14.0,-220.0,-53.0,-74.0,-37.0,-123.0,1
-12.0,-222.0,-54.0,-59.0,-31.0,-136.0,1
-10.0,-224.0,-48.0,-39.0,-23.0,-144.0,1
-7.0,-222.0,-44.0,-20.0,-18.0,-149.0,1
-6.0,-221.0,-45.0,-1.0,-10.0,-151.0,1
1.0,-221.0,-39.0,16.0,-1.0,-152.0,1
-5.0,-214.0,-47.0,30.0,5.0,-152.0,1
0.0,-217.0,-49.0,35.0,12.0,-150.0,1
1.0,-218.0,-47.0,38.0,20.0,-147.0,1
-2.0,-223.0,-46.0,35.0,28.0,-140.0,1
0.0,-225.0,-49.0,33.0,31.0,-138.0,1
-1.0,-234.0,-45.0,32.0,37.0,-134.0,1
-6.0,-234.0,-42.0,34.0,42.0,-131.0,1
-2.0,-244.0,-42.0,39.0,45.0,-130.0,1
1.0,-250.0,-41.0,47.0,49.0,-128.0,1
-1.0,-256.0,-41.0,59.0,57.0,-123.0,1
-1.0,-258.0,-41.0,72.0,67.0,-118.0,1
2.0,-266.0,-36.0,88.0,73.0,-114.0,1
5.0,-271.0,-37.0,108.0,75.0,-111.0,1
1.0,-273.0,-35.0,131.0,68.0,-106.0,1
1.0,-275.0,-36.0,156.0,57.0,-104.0,1
1.0,-274.0,-39.0,186.0,39.0,-99.0,1
-8.0,-273.0,-40.0,216.0,23.0,-97.0,1
-13.0,-271.0,-39.0,244.0,2.0,-93.0,1
-23.0,-269.0,-34.0,264.0,-22.0,-88.0,1
-27.0,-263.0,-39.0,278.0,-49.0,-78.0,1
-31.0,-258.0,-40.0,288.0,-73.0,-64.0,1
-36.0,-258.0,-33.0,295.0,-87.0,-42.0,1
-40.0,-257.0,-23.0,298.0,-78.0,-17.0,1
-37.0,-261.0,-11.0,301.0,-45.0,11.0,1
-33.0,-264.0,-6.0,311.0,8.0,37.0,1
-24.0,-265.0,-2.0,324.0,71.0,60.0,1
-12.0,-268.0,-1.0,326.0,138.0,84.0,1
0.0,-270.0,-11.0,309.0,201.0,108.0,1
13.0,-275.0,-27.0,257.0,255.0,134.0,1
27.0,-278.0,-46.0,167.0,296.0,165.0,1
37.0,-281.0,-67.0,50.0,317.0,190.0,1
46.0,-292.0,-102.0,-80.0,315.0,211.0,1
43.0,-299.0,-142.0,-200.0,272.0,229.0,1
48.0,-285.0,-189.0,-289.0,186.0,242.0,1
32.0,-312.0,-203.0,-351.0,108.0,297.0,1
1.0,-310.0,-224.0,-349.0,-2.0,321.0,1
-23.0,-319.0,-204.0,-317.0,-106.0,341.0,1
-50.0,-332.0,-188.0,-247.0,-180.0,390.0,1
-82.0,-353.0,-161.0,-161.0,-235.0,439.0,1
-90.0,-358.0,-154.0,-67.0,-288.0,448.0,1
-92.0,-353.0,-162.0,22.0,-312.0,445.0,1
-83.0,-339.0,-170.0,88.0,-307.0,426.0,1
-69.0,-325.0,-170.0,137.0,-267.0,409.0,1
-67.0,-315.0,-171.0,165.0,-195.0,404.0,1
-63.0,-305.0,-168.0,185.0,-113.0,409.0,1
-49.0,-288.0,-174.0,212.0,-35.0,416.0,1
-14.0,-265.0,-177.0,235.0,50.0,416.0,1
13.0,-247.0,-178.0,244.0,146.0,406.0,1
36.0,-224.0,-170.0,253.0,236.0,384.0,1
49.0,-214.0,-168.0,272.0,306.0,361.0,1
56.0,-206.0,-159.0,293.0,354.0,336.0,1
61.0,-193.0,-162.0,306.0,372.0,315.0,1
67.0,-190.0,-162.0,306.0,362.0,298.0,1
79.0,-181.0,-158.0,292.0,327.0,281.0,1
87.0,-183.0,-146.0,266.0,281.0,260.0,1
86.0,-186.0,-138.0,231.0,236.0,235.0,1
76.0,-192.0,-131.0,194.0,202.0,207.0,1
67.0,-199.0,-127.0,158.0,184.0,178.0,1
52.0,-208.0,-120.0,119.0,173.0,146.0,1
34.0,-217.0,-116.0,79.0,172.0,115.0,1
23.0,-224.0,-112.0,47.0,171.0,78.0,1
4.0,-228.0,-110.0,22.0,167.0,40.0,1
-14.0,-231.0,-103.0,13.0,155.0,-1.0,1
-27.0,-233.0,-94.0,15.0,132.0,-45.0,1
-33.0,-228.0,-100.0,22.0,109.0,-88.0,1
-36.0,-221.0,-98.0,26.0,82.0,-135.0,1
-44.0,-228.0,-94.0,28.0,51.0,-183.0,1
-44.0,-216.0,-92.0,26.0,19.0,-231.0,1
-49.0,-215.0,-88.0,24.0,-10.0,-279.0,1
-40.0,-217.0,-100.0,27.0,-38.0,-326.0,1
-37.0,-209.0,-85.0,34.0,-64.0,-366.0,1
-19.0,-203.0,-88.0,50.0,-86.0,-394.0,1
-26.0,-194.0,-85.0,66.0,-103.0,-415.0,1
-14.0,-190.0,-87.0,72.0,-104.0,-419.0,1
0.0,-188.0,-91.0,73.0,-99.0,-409.0,1
9.0,-181.0,-93.0,62.0,-96.0,-398.0,1
5.0,-184.0,-92.0,46.0,-96.0,-386.0,1
19.0,-173.0,-82.0,26.0,-99.0,-376.0,1
16.0,-171.0,-82.0,5.0,-108.0,-361.0,1
24.0,-169.0,-76.0,-18.0,-121.0,-344.0,1
26.0,-170.0,-85.0,-40.0,-138.0,-326.0,1
24.0,-182.0,-87.0,-54.0,-154.0,-306.0,1
37.0,-180.0,-74.0,-62.0,-170.0,-286.0,1
28.0,-165.0,-78.0,-58.0,-185.0,-267.0,1
19.0,-175.0,-76.0,-50.0,-198.0,-251.0,1
22.0,-163.0,-82.0,-39.0,-211.0,-235.0,1
19.0,-169.0,-72.0,-33.0,-222.0,-221.0,1
13.0,-171.0,-71.0,-32.0,-234.0,-208.0,1
16.0,-167.0,-82.0,-36.0,-253.0,-204.0,1
3.0,-176.0,-71.0,-45.0,-259.0,-192.0,1
7.0,-174.0,-77.0,-56.0,-266.0,-174.0,1
14.0,-179.0,-70.0,-70.0,-267.0,-153.0,1
18.0,-184.0,-81.0,-82.0,-266.0,-133.0,1
19.0,-188.0,-78.0,-91.0,-267.0,-116.0,1
24.0,-190.0,-77.0,-103.0,-266.0,-104.0,1
27.0,-192.0,-77.0,-116.0,-264.0,-94.0,1
28.0,-194.0,-80.0,-131.0,-263.0,-87.0,1
35.0,-203.0,-88.0,-147.0,-258.0,-78.0,1
37.0,-207.0,-78.0,-158.0,-252.0,-69.0,1
35.0,-207.0,-70.0,-169.0,-242.0,-60.0,1
36.0,-213.0,-72.0,-173.0,-232.0,-50.0,1
38.0,-218.0,-67.0,-173.0,-222.0,-42.0,1
36.0,-223.0,-66.0,-166.0,-214.0,-35.0,1
29.0,-226.0,-65.0,-156.0,-205.0,-23.0,1
30.0,-233.0,-62.0,-143.0,-199.0,-11.0,1
24.0,-235.0,-65.0,-125.0,-191.0,2.0,1
22.0,-235.0,-54.0,-103.0,-190.0,16.0,1
21.0,-243.0,-57.0,-78.0,-189.0,26.0,1
12.0,-234.0,-53.0,-50.0,-192.0,42.0,1
9.0,-233.0,-50.0,-22.0,-196.0,55.0,1
6.0,-232.0,-47.0,7.0,-205.0,64.0,1
5.0,-232.0,-43.0,31.0,-228.0,57.0,1
4.0,-224.0,-51.0,53.0,-239.0,63.0,1
0.0,-223.0,-41.0,70.0,-262.0,62.0,1
-2.0,-232.0,-38.0,91.0,-279.0,67.0,1
-8.0,-227.0,-32.0,112.0,-299.0,79.0,1
-7.0,-231.0,-30.0,134.0,-328.0,89.0,1
-10.0,-235.0,-33.0,156.0,-354.0,97.0,1
-9.0,-234.0,-23.0,173.0,-381.0,106.0,1
-20.0,-237.0,-28.0,192.0,-403.0,114.0,1
-24.0,-241.0,-29.0,212.0,-426.0,119.0,1
-25.0,-245.0,-27.0,231.0,-446.0,120.0,1
-24.0,-249.0,-27.0,253.0,-464.0,122.0,1
-21.0,-252.0,-26.0,278.0,-475.0,122.0,1
-6.0,-254.0,-38.0,298.0,-474.0,117.0,1
-1.0,-259.0,-31.0,311.0,-450.0,113.0,1
6.0,-259.0,-35.0,319.0,-416.0,99.0,1
8.0,-258.0,-41.0,323.0,-371.0,85.0,1
9.0,-261.0,-57.0,316.0,-317.0,69.0,1
18.0,-253.0,-73.0,290.0,-257.0,56.0,1
32.0,-250.0,-80.0,246.0,-199.0,44.0,1
38.0,-248.0,-74.0,204.0,-151.0,32.0,1
48.0,-249.0,-64.0,180.0,-116.0,23.0,1
51.0,-251.0,-51.0,192.0,-96.0,20.0,1
55.0,-254.0,-32.0,242.0,-90.0,26.0,1
62.0,-258.0,-17.0,310.0,-98.0,30.0,1
61.0,-256.0,-4.0,372.0,-110.0,36.0,1
52.0,-262.0,4.0,416.0,-120.0,34.0,1
44.0,-271.0,11.0,440.0,-123.0,22.0,1
37.0,-277.0,11.0,452.0,-123.0,0.0,1
27.0,-277.0,12.0,460.0,-126.0,-29.0,1
8.0,-287.0,8.0,462.0,-133.0,-67.0,1
7.0,-287.0,-7.0,442.0,-156.0,-126.0,1
6.0,-295.0,-35.0,384.0,-173.0,-181.0,1
1.0,-296.0,-52.0,296.0,-175.0,-214.0,1
-7.0,-294.0,-79.0,174.0,-177.0,-251.0,1
-3.0,-296.0,-129.0,20.0,-160.0,-288.0,1
2.0,-294.0,-165.0,-160.0,-97.0,-321.0,1
21.0,-303.0,-188.0,-326.0,9.0,-357.0,1
39.0,-312.0,-189.0,-424.0,143.0,-396.0,1
61.0,-321.0,-186.0,-431.0,286.0,-436.0,1
83.0,-327.0,-187.0,-353.0,420.0,-472.0,1
96.0,-333.0,-172.0,-222.0,533.0,-497.0,1
98.0,-340.0,-161.0,-70.0,619.0,-512.0,1
97.0,-342.0,-153.0,78.0,675.0,-516.0,1
88.0,-337.0,-148.0,197.0,703.0,-499.0,1
71.0,-327.0,-144.0,283.0,709.0,-462.0,1
64.0,-318.0,-145.0,351.0,689.0,-427.0,1
49.0,-299.0,-141.0,414.0,635.0,-399.0,1
32.0,-278.0,-138.0,466.0,546.0,-377.0,1
11.0,-257.0,-143.0,497.0,421.0,-354.0,1
-6.0,-246.0,-135.0,509.0,276.0,-329.0,1
-30.0,-234.0,-139.0,499.0,121.0,-303.0,1
-57.0,-224.0,-140.0,463.0,-34.0,-283.0,1
-82.0,-214.0,-151.0,405.0,-170.0,-264.0,1
-90.0,-210.0,-157.0,339.0,-271.0,-246.0,1
-102.0,-199.0,-167.0,276.0,-333.0,-229.0,1
-107.0,-196.0,-174.0,219.0,-363.0,-211.0,1
-101.0,-204.0,-174.0,160.0,-367.0,-195.0,1
-88.0,-209.0,-170.0,100.0,-353.0,-182.0,1
-74.0,-218.0,-165.0,46.0,-323.0,-173.0,1
-55.0,-222.0,-169.0,2.0,-283.0,-161.0,1
-25.0,-228.0,-161.0,-22.0,-237.0,-154.0,1
-2.0,-235.0,-151.0,-21.0,-189.0,-154.0,1
11.0,-235.0,-138.0,1.0,-141.0,-150.0,1
17.0,-233.0,-130.0,41.0,-103.0,-146.0,1
26.0,-232.0,-125.0,88.0,-72.0,-138.0,1
30.0,-228.0,-121.0,133.0,-46.0,-120.0,1
37.0,-228.0,-108.0,167.0,-20.0,-93.0,1
39.0,-219.0,-108.0,187.0,7.0,-57.0,1
43.0,-220.0,-99.0,185.0,31.0,-15.0,1
48.0,-223.0,-95.0,173.0,59.0,31.0,1
52.0,-225.0,-93.0,167.0,90.0,80.0,1
57.0,-226.0,-96.0,168.0,114.0,129.0,1
59.0,-224.0,-93.0,172.0,135.0,170.0,1
56.0,-224.0,-96.0,183.0,152.0,208.0,1
52.0,-222.0,-93.0,197.0,167.0,246.0,1
44.0,-222.0,-88.0,213.0,184.0,278.0,1
36.0,-217.0,-89.0,231.0,193.0,296.0,1
31.0,-212.0,-84.0,244.0,198.0,311.0,1
21.0,-201.0,-84.0,250.0,194.0,318.0,1
15.0,-200.0,-81.0,249.0,193.0,327.0,1
14.0,-194.0,-83.0,238.0,194.0,338.0,1
4.0,-181.0,-84.0,220.0,194.0,347.0,1
3.0,-181.0,-78.0,198.0,196.0,354.0,1
0.0,-169.0,-79.0,175.0,205.0,362.0,1
0.0,-169.0,-78.0,148.0,215.0,361.0,1
0.0,-168.0,-82.0,119.0,228.0,356.0,1
0.0,-163.0,-80.0,95.0,243.0,345.0,1
2.0,-164.0,-75.0,78.0,260.0,333.0,1
-2.0,-159.0,-79.0,62.0,276.0,319.0,1
2.0,-161.0,-81.0,46.0,294.0,304.0,1
-3.0,-161.0,-78.0,35.0,314.0,290.0,1
-1.0,-165.0,-76.0,20.0,331.0,275.0,1
-2.0,-160.0,-73.0,3.0,350.0,263.0,1
-7.0,-171.0,-72.0,-17.0,366.0,248.0,1
-6.0,-177.0,-75.0,-38.0,382.0,240.0,1
-10.0,-183.0,-74.0,-60.0,391.0,232.0,1
-12.0,-184.0,-75.0,-82.0,393.0,224.0,1
-12.0,-192.0,-72.0,-101.0,391.0,220.0,1
-19.0,-196.0,-73.0,-117.0,387.0,219.0,1
-18.0,-200.0,-69.0,-138.0,378.0,218.0,1
-20.0,-203.0,-68.0,-153.0,369.0,217.0,1
-21.0,-213.0,-70.0,-163.0,358.0,211.0,1
-27.0,-214.0,-65.0,-166.0,347.0,203.0,1
-33.0,-216.0,-69.0,-165.0,335.0,193.0,1
-28.0,-222.0,-65.0,-163.0,325.0,177.0,1
-27.0,-219.0,-61.0,-159.0,314.0,158.0,1
-27.0,-227.0,-60.0,-151.0,306.0,142.0,1
-21.0,-230.0,-57.0,-135.0,302.0,123.0,1
-18.0,-234.0,-51.0,-108.0,299.0,103.0,1
-14.0,-236.0,-48.0,-76.0,301.0,77.0,1
-11.0,-235.0,-49.0,-34.0,303.0,56.0,1
-9.0,-234.0,-48.0,9.0,304.0,34.0,1
-4.0,-235.0,-49.0,52.0,306.0,11.0,1
-3.0,-236.0,-47.0,91.0,307.0,-9.0,1
2.0,-226.0,-47.0,124.0,309.0,-26.0,1
1.0,-229.0,-45.0,152.0,308.0,-43.0,1
2.0,-227.0,-46.0,178.0,303.0,-58.0,1
-1.0,-224.0,-39.0,206.0,295.0,-68.0,1
-3.0,-219.0,-40.0,229.0,285.0,-77.0,1
-7.0,-217.0,-39.0,244.0,275.0,-85.0,1
-6.0,-218.0,-38.0,248.0,265.0,-90.0,1
-6.0,-214.0,-37.0,245.0,258.0,-91.0,1
-3.0,-212.0,-36.0,239.0,256.0,-90.0,1
-3.0,-217.0,-34.0,230.0,253.0,-89.0,1
2.0,-219.0,-36.0,220.0,251.0,-84.0,1
-2.0,-220.0,-35.0,207.0,250.0,-82.0,1
-1.0,-218.0,-36.0,190.0,250.0,-79.0,1
1.0,-219.0,-35.0,175.0,251.0,-73.0,1
2.0,-225.0,-38.0,157.0,256.0,-68.0,1
6.0,-230.0,-33.0,136.0,263.0,-61.0,1
11.0,-236.0,-36.0,119.0,273.0,-53.0,1
14.0,-237.0,-32.0,102.0,285.0,-44.0,1
18.0,-241.0,-33.0,90.0,299.0,-32.0,1
21.0,-248.0,-36.0,81.0,319.0,-23.0,1
24.0,-253.0,-30.0,75.0,337.0,-11.0,1
22.0,-257.0,-29.0,79.0,355.0,3.0,1
26.0,-261.0,-32.0,90.0,369.0,15.0,1
25.0,-265.0,-30.0,110.0,379.0,29.0,1
17.0,-266.0,-29.0,132.0,384.0,44.0,1
15.0,-273.0,-30.0,152.0,379.0,59.0,1
10.0,-271.0,-35.0,176.0,368.0,74.0,1
2.0,-265.0,-32.0,202.0,355.0,95.0,1
-6.0,-265.0,-32.0,227.0,346.0,116.0,1
-13.0,-264.0,-23.0,245.0,344.0,140.0,1
-20.0,-261.0,-18.0,260.0,351.0,163.0,1
-16.0,-263.0,-11.0,273.0,371.0,184.0,1
-18.0,-261.0,-10.0,281.0,402.0,205.0,1
-18.0,-267.0,-13.0,277.0,435.0,222.0,1
-10.0,-266.0,-19.0,246.0,466.0,238.0,1
-5.0,-270.0,-36.0,186.0,491.0,256.0,1
0.0,-277.0,-58.0,99.0,510.0,278.0,1
3.0,-280.0,-67.0,-9.0,517.0,300.0,1
7.0,-287.0,-79.0,-119.0,506.0,328.0,1
4.0,-303.0,-94.0,-222.0,468.0,364.0,1
4.0,-310.0,-113.0,-296.0,393.0,395.0,1
-12.0,-336.0,-130.0,-339.0,310.0,473.0,1
-11.0,-333.0,-143.0,-315.0,170.0,494.0,1
-21.0,-340.0,-149.0,-266.0,40.0,534.0,1
-35.0,-353.0,-133.0,-183.0,-64.0,596.0,1
-52.0,-365.0,-116.0,-78.0,-143.0,651.0,1
-63.0,-365.0,-102.0,38.0,-198.0,682.0,1
-57.0,-359.0,-114.0,145.0,-222.0,684.0,1
-55.0,-346.0,-123.0,221.0,-210.0,659.0,1
-46.0,-329.0,-137.0,261.0,-164.0,614.0,1
-42.0,-307.0,-152.0,267.0,-91.0,565.0,1
-41.0,-294.0,-150.0,254.0,4.0,517.0,1
-51.0,-283.0,-146.0,234.0,102.0,477.0,1
-48.0,-272.0,-160.0,209.0,181.0,442.0,1
-37.0,-253.0,-159.0,182.0,254.0,410.0,1
-22.0,-238.0,-165.0,141.0,344.0,383.0,1
-10.0,-222.0,-158.0,103.0,432.0,361.0,1
1.0,-210.0,-152.0,85.0,503.0,343.0,1
17.0,-205.0,-149.0,84.0,547.0,327.0,1
31.0,-198.0,-136.0,95.0,568.0,310.0,1
40.0,-194.0,-135.0,113.0,575.0,296.0,1
46.0,-191.0,-132.0,124.0,569.0,283.0,1
53.0,-185.0,-135.0,122.0,556.0,270.0,1
60.0,-181.0,-135.0,104.0,538.0,259.0,1
71.0,-176.0,-141.0,70.0,517.0,247.0,1
76.0,-182.0,-132.0,26.0,497.0,231.0,1
79.0,-191.0,-129.0,-20.0,482.0,210.0,1
73.0,-197.0,-126.0,-54.0,468.0,183.0,1
63.0,-201.0,-116.0,-73.0,458.0,152.0,1
50.0,-204.0,-108.0,-86.0,445.0,114.0,1
35.0,-211.0,-102.0,-97.0,433.0,72.0,1
20.0,-218.0,-96.0,-108.0,424.0,29.0,1
8.0,-228.0,-94.0,-119.0,410.0,-14.0,1
-8.0,-233.0,-86.0,-121.0,387.0,-59.0,1
-11.0,-235.0,-87.0,-123.0,358.0,-104.0,1
-16.0,-243.0,-86.0,-125.0,331.0,-150.0,1
-28.0,-241.0,-86.0,-133.0,305.0,-193.0,1
-33.0,-243.0,-92.0,-139.0,284.0,-234.0,1
-33.0,-243.0,-92.0,-140.0,269.0,-275.0,1
-36.0,-239.0,-91.0,-130.0,258.0,-312.0,1
-37.0,-232.0,-92.0,-112.0,248.0,-347.0,1
-28.0,-225.0,-91.0,-98.0,244.0,-376.0,1
-24.0,-222.0,-93.0,-69.0,248.0,-384.0,1
-19.0,-212.0,-92.0,-41.0,251.0,-392.0,1
-15.0,-211.0,-86.0,-23.0,253.0,-393.0,1
-8.0,-200.0,-81.0,-15.0,253.0,-387.0,1
1.0,-198.0,-83.0,-18.0,249.0,-375.0,1
0.0,-201.0,-74.0,-29.0,241.0,-357.0,1
3.0,-193.0,-69.0,-41.0,223.0,-336.0,1
10.0,-190.0,-69.0,-55.0,198.0,-310.0,1
10.0,-189.0,-67.0,-65.0,168.0,-282.0,1
15.0,-189.0,-65.0,-71.0,137.0,-256.0,1
14.0,-186.0,-67.0,-74.0,108.0,-236.0,1
22.0,-183.0,-64.0,-72.0,77.0,-224.0,1
21.0,-179.0,-64.0,-68.0,60.0,-203.0,1
19.0,-180.0,-64.0,-57.0,46.0,-180.0,1
24.0,-181.0,-71.0,-49.0,31.0,-168.0,1
21.0,-177.0,-73.0,-45.0,18.0,-159.0,1
24.0,-179.0,-66.0,-46.0,11.0,-147.0,1
23.0,-181.0,-71.0,-49.0,3.0,-137.0,1
23.0,-181.0,-70.0,-59.0,-5.0,-129.0,1
24.0,-186.0,-71.0,-77.0,-11.0,-122.0,1
21.0,-187.0,-70.0,-98.0,-15.0,-113.0,1
24.0,-190.0,-72.0,-121.0,-20.0,-105.0,1
27.0,-189.0,-69.0,-143.0,-25.0,-97.0,1
31.0,-198.0,-68.0,-166.0,-27.0,-90.0,1
30.0,-201.0,-69.0,-187.0,-28.0,-81.0,1
33.0,-201.0,-66.0,-203.0,-28.0,-76.0,1
33.0,-209.0,-62.0,-217.0,-25.0,-68.0,1
36.0,-215.0,-67.0,-228.0,-21.0,-60.0,1
33.0,-218.0,-62.0,-232.0,-14.0,-52.0,1
34.0,-220.0,-61.0,-230.0,-6.0,-42.0,1
33.0,-225.0,-59.0,-222.0,6.0,-32.0,1
31.0,-229.0,-60.0,-210.0,16.0,-19.0,1
31.0,-233.0,-61.0,-191.0,24.0,-8.0,1
30.0,-234.0,-59.0,-169.0,32.0,6.0,1
27.0,-231.0,-55.0,-144.0,33.0,19.0,1
28.0,-234.0,-54.0,-120.0,35.0,30.0,1
26.0,-232.0,-49.0,-95.0,35.0,41.0,1
25.0,-236.0,-44.0,-71.0,33.0,52.0,1
26.0,-237.0,-48.0,-45.0,30.0,61.0,1
22.0,-235.0,-46.0,-22.0,24.0,71.0,1
19.0,-234.0,-44.0,0.0,13.0,75.0,1
17.0,-229.0,-39.0,21.0,-2.0,81.0,1
9.0,-231.0,-39.0,39.0,-19.0,87.0,1
8.0,-230.0,-35.0,58.0,-40.0,94.0,1
2.0,-231.0,-34.0,72.0,-63.0,101.0,1
-1.0,-235.0,-30.0,83.0,-91.0,108.0,1
-6.0,-236.0,-27.0,92.0,-121.0,117.0,1
-9.0,-238.0,-25.0,98.0,-153.0,124.0,1
-18.0,-243.0,-23.0,101.0,-187.0,135.0,1
-18.0,-244.0,-23.0,106.0,-220.0,141.0,1
-16.0,-253.0,-20.0,114.0,-250.0,146.0,1
-25.0,-253.0,-19.0,125.0,-278.0,148.0,1
-17.0,-256.0,-14.0,132.0,-313.0,134.0,1
-16.0,-261.0,-21.0,147.0,-320.0,134.0,1
-14.0,-263.0,-23.0,169.0,-310.0,140.0,1
-11.0,-268.0,-24.0,196.0,-292.0,144.0,1
-13.0,-263.0,-40.0,224.0,-260.0,152.0,1
-9.0,-256.0,-59.0,236.0,-214.0,157.0,1
0.0,-248.0,-70.0,226.0,-159.0,160.0,1
15.0,-238.0,-72.0,201.0,-98.0,155.0,1
28.0,-237.0,-72.0,170.0,-46.0,144.0,1
42.0,-240.0,-62.0,147.0,-10.0,132.0,1
58.0,-243.0,-47.0,152.0,5.0,127.0,1
68.0,-243.0,-28.0,180.0,3.0,125.0,1
72.0,-249.0,-9.0,226.0,-4.0,122.0,1
73.0,-255.0,0.0,270.0,-11.0,117.0,1
64.0,-257.0,0.0,309.0,-9.0,106.0,1
55.0,-263.0,-3.0,333.0,1.0,89.0,1
50.0,-270.0,-14.0,335.0,19.0,65.0,1
39.0,-275.0,-32.0,305.0,41.0,33.0,1
34.0,-276.0,-47.0,242.0,61.0,-5.0,1
24.0,-285.0,-72.0,141.0,81.0,-50.0,1
17.0,-287.0,-100.0,12.0,103.0,-97.0,1
19.0,-290.0,-128.0,-130.0,137.0,-143.0,1
31.0,-296.0,-157.0,-265.0,193.0,-194.0,1
45.0,-301.0,-156.0,-366.0,283.0,-238.0,1
63.0,-312.0,-158.0,-409.0,399.0,-288.0,1
82.0,-321.0,-156.0,-389.0,540.0,-339.0,1
95.0,-330.0,-151.0,-322.0,688.0,-381.0,1
100.0,-333.0,-140.0,-226.0,823.0,-415.0,1
102.0,-332.0,-120.0,-115.0,929.0,-440.0,1
97.0,-331.0,-101.0,-3.0,992.0,-446.0,1
89.0,-327.0,-87.0,108.0,1011.0,-428.0,1
74.0,-324.0,-83.0,208.0,994.0,-386.0,1
59.0,-321.0,-86.0,282.0,942.0,-336.0,1
40.0,-315.0,-101.0,328.0,868.0,-278.0,1
23.0,-306.0,-112.0,352.0,774.0,-224.0,1
4.0,-298.0,-112.0,366.0,666.0,-176.0,1
-8.0,-289.0,-114.0,378.0,543.0,-134.0,1
-20.0,-280.0,-119.0,387.0,408.0,-94.0,1
-40.0,-266.0,-127.0,391.0,265.0,-53.0,1
-44.0,-244.0,-140.0,385.0,128.0,-19.0,1
-45.0,-244.0,-152.0,369.0,14.0,4.0,1
-52.0,-222.0,-166.0,349.0,-68.0,17.0,1
-55.0,-207.0,-176.0,326.0,-121.0,20.0,1
-58.0,-191.0,-184.0,293.0,-149.0,20.0,1
-59.0,-186.0,-185.0,244.0,-160.0,18.0,1
-58.0,-181.0,-180.0,190.0,-157.0,24.0,1
-53.0,-187.0,-161.0,130.0,-152.0,31.0,1
-45.0,-185.0,-150.0,67.0,-150.0,44.0,1
-35.0,-194.0,-148.0,6.0,-144.0,59.0,1
-27.0,-208.0,-143.0,-44.0,-127.0,71.0,1
-18.0,-208.0,-130.0,-75.0,-100.0,82.0,1
-11.0,-212.0,-125.0,-86.0,-69.0,87.0,1
-8.0,-214.0,-120.0,-80.0,-42.0,89.0,1
-1.0,-219.0,-115.0,-56.0,-17.0,88.0,1
0.0,-220.0,-112.0,-21.0,5.0,89.0,1
4.0,-226.0,-109.0,18.0,29.0,95.0,1
7.0,-227.0,-104.0,57.0,55.0,105.0,1
22.0,-230.0,-104.0,90.0,88.0,117.0,1
28.0,-233.0,-98.0,106.0,123.0,133.0,1
40.0,-231.0,-93.0,102.0,157.0,153.0,1
42.0,-231.0,-100.0,86.0,185.0,173.0,1
44.0,-224.0,-97.0,66.0,205.0,194.0,1
44.0,-220.0,-101.0,54.0,213.0,210.0,1
36.0,-218.0,-99.0,43.0,210.0,228.0,1
30.0,-211.0,-101.0,41.0,199.0,241.0,1
26.0,-206.0,-102.0,47.0,185.0,255.0,1
19.0,-198.0,-98.0,52.0,174.0,268.0,1
16.0,-192.0,-103.0,48.0,167.0,280.0,1
12.0,-192.0,-90.0,36.0,161.0,291.0,1
7.0,-190.0,-89.0,16.0,156.0,303.0,1
5.0,-183.0,-94.0,-7.0,155.0,316.0,1
7.0,-187.0,-83.0,-28.0,161.0,328.0,1
1.0,-186.0,-83.0,-46.0,170.0,336.0,1
0.0,-189.0,-85.0,-54.0,179.0,338.0,1
2.0,-187.0,-86.0,-58.0,196.0,338.0,1
0.0,-190.0,-81.0,-57.0,223.0,340.0,1
-5.0,-189.0,-80.0,-56.0,251.0,334.0,1
-3.0,-193.0,-80.0,-51.0,279.0,326.0,1
-6.0,-193.0,-73.0,-45.0,308.0,315.0,1
-4.0,-192.0,-72.0,-36.0,335.0,304.0,1
-7.0,-191.0,-70.0,-26.0,361.0,294.0,1
-1.0,-193.0,-71.0,-17.0,377.0,283.0,1
-7.0,-192.0,-69.0,-11.0,391.0,275.0,1
-6.0,-191.0,-73.0,-8.0,398.0,269.0,1
-6.0,-191.0,-71.0,-9.0,400.0,266.0,1
-11.0,-192.0,-71.0,-13.0,395.0,263.0,1
-15.0,-192.0,-74.0,-22.0,390.0,264.0,1
-13.0,-191.0,-71.0,-33.0,382.0,262.0,1
-14.0,-193.0,-70.0,-49.0,375.0,260.0,1
-18.0,-195.0,-71.0,-66.0,368.0,257.0,1
-22.0,-196.0,-69.0,-86.0,359.0,251.0,1
-22.0,-198.0,-65.0,-104.0,352.0,242.0,1
-22.0,-208.0,-66.0,-116.0,345.0,233.0,1
-19.0,-206.0,-66.0,-126.0,340.0,222.0,1
-27.0,-213.0,-63.0,-131.0,338.0,208.0,1
-22.0,-217.0,-62.0,-133.0,337.0,193.0,1
-21.0,-219.0,-61.0,-130.0,338.0,173.0,1
-21.0,-224.0,-54.0,-123.0,343.0,153.0,1
-18.0,-222.0,-54.0,-109.0,347.0,134.0,1
-17.0,-225.0,-53.0,-89.0,349.0,117.0,1
-17.0,-219.0,-49.0,-72.0,353.0,101.0,1
-10.0,-220.0,-47.0,-53.0,357.0,85.0,1
-7.0,-220.0,-52.0,-35.0,362.0,72.0,1
-1.0,-219.0,-48.0,-20.0,368.0,59.0,1
-5.0,-214.0,-48.0,-8.0,374.0,48.0,1
-1.0,-211.0,-51.0,5.0,381.0,37.0,1
0.0,-208.0,-48.0,9.0,387.0,28.0,1
-3.0,-211.0,-50.0,13.0,393.0,23.0,1
-3.0,-212.0,-47.0,13.0,397.0,20.0,1
-3.0,-215.0,-49.0,17.0,402.0,19.0,1
-6.0,-217.0,-45.0,19.0,402.0,18.0,1
-6.0,-219.0,-47.0,20.0,400.0,16.0,1
-5.0,-221.0,-44.0,18.0,397.0,17.0,1
-4.0,-230.0,-48.0,16.0,392.0,19.0,1
-5.0,-234.0,-44.0,15.0,389.0,20.0,1
-5.0,-244.0,-41.0,19.0,383.0,22.0,1
-6.0,-248.0,-43.0,26.0,378.0,24.0,1
-8.0,-250.0,-46.0,32.0,372.0,28.0,1
-1.0,-254.0,-41.0,41.0,368.0,31.0,1
-9.0,-255.0,-46.0,55.0,364.0,35.0,1
-8.0,-255.0,-42.0,70.0,361.0,41.0,1
-2.0,-259.0,-43.0,79.0,359.0,50.0,1
-2.0,-259.0,-43.0,84.0,361.0,60.0,1
-1.0,-259.0,-41.0,93.0,367.0,68.0,1
1.0,-257.0,-38.0,107.0,374.0,74.0,1
0.0,-259.0,-45.0,129.0,380.0,81.0,1
0.0,-259.0,-39.0,156.0,383.0,84.0,1
0.0,-257.0,-40.0,181.0,378.0,91.0,1
0.0,-257.0,-40.0,198.0,367.0,95.0,1
-7.0,-255.0,-44.0,218.0,354.0,108.0,1
-18.0,-255.0,-42.0,235.0,343.0,123.0,1
-21.0,-254.0,-38.0,249.0,344.0,145.0,1
-23.0,-256.0,-33.0,254.0,364.0,162.0,1
-20.0,-258.0,-26.0,258.0,399.0,180.0,1
-19.0,-261.0,-19.0,263.0,450.0,191.0,1
-10.0,-264.0,-12.0,271.0,511.0,195.0,1
0.0,-273.0,-1.0,283.0,577.0,197.0,1
10.0,-267.0,0.0,296.0,644.0,197.0,1
12.0,-268.0,-2.0,310.0,708.0,192.0,1
12.0,-270.0,-13.0,314.0,762.0,189.0,1
15.0,-271.0,-27.0,296.0,803.0,191.0,1
18.0,-271.0,-52.0,240.0,827.0,196.0,1
33.0,-272.0,-72.0,149.0,839.0,208.0,1
34.0,-275.0,-91.0,27.0,838.0,223.0,1
32.0,-285.0,-117.0,-105.0,814.0,244.0,1
16.0,-297.0,-138.0,-223.0,756.0,263.0,1
11.0,-312.0,-153.0,-305.0,661.0,281.0,1
12.0,-300.0,-171.0,-335.0,549.0,306.0,1
-30.0,-332.0,-160.0,-317.0,460.0,376.0,1
-37.0,-338.0,-155.0,-248.0,333.0,403.0,1
-54.0,-344.0,-130.0,-156.0,231.0,446.0,1
-76.0,-355.0,-111.0,-48.0,144.0,495.0,1
-83.0,-351.0,-103.0,63.0,72.0,527.0,1
-73.0,-349.0,-113.0,159.0,24.0,541.0,1
-64.0,-340.0,-123.0,220.0,-1.0,537.0,1
-52.0,-323.0,-143.0,251.0,2.0,522.0,1
-43.0,-302.0,-162.0,259.0,37.0,510.0,1
-37.0,-286.0,-167.0,260.0,107.0,503.0,1
-39.0,-274.0,-159.0,268.0,204.0,495.0,1
-39.0,-268.0,-163.0,271.0,296.0,482.0,1
-22.0,-253.0,-163.0,269.0,372.0,458.0,1
-12.0,-230.0,-170.0,247.0,458.0,432.0,1
4.0,-214.0,-168.0,209.0,552.0,405.0,1
19.0,-199.0,-158.0,176.0,639.0,379.0,1
34.0,-193.0,-155.0,154.0,704.0,355.0,1
48.0,-194.0,-148.0,141.0,752.0,333.0,1
55.0,-192.0,-144.0,135.0,783.0,314.0,1
61.0,-189.0,-149.0,134.0,794.0,297.0,1
57.0,-183.0,-151.0,128.0,780.0,285.0,1
69.0,-179.0,-153.0,103.0,753.0,276.0,1
84.0,-181.0,-143.0,65.0,718.0,267.0,1
94.0,-188.0,-141.0,20.0,683.0,256.0,1
90.0,-194.0,-133.0,-23.0,651.0,239.0,1
82.0,-206.0,-124.0,-60.0,624.0,218.0,1
67.0,-215.0,-116.0,-86.0,609.0,197.0,1
56.0,-217.0,-118.0,-107.0,602.0,171.0,1
39.0,-221.0,-112.0,-123.0,599.0,141.0,1
20.0,-226.0,-103.0,-127.0,594.0,110.0,1
5.0,-227.0,-102.0,-124.0,587.0,75.0,1
-10.0,-232.0,-98.0,-125.0,578.0,41.0,1
-13.0,-235.0,-99.0,-129.0,563.0,6.0,1
-26.0,-232.0,-100.0,-143.0,548.0,-31.0,1
-24.0,-234.0,-96.0,-158.0,532.0,-67.0,1
-25.0,-230.0,-93.0,-165.0,523.0,-97.0,1
-26.0,-228.0,-88.0,-162.0,513.0,-126.0,1
-22.0,-225.0,-89.0,-143.0,506.0,-155.0,1
-17.0,-219.0,-91.0,-118.0,505.0,-182.0,1
-4.0,-211.0,-92.0,-82.0,504.0,-213.0,1
-1.0,-204.0,-94.0,-49.0,520.0,-225.0,1
1.0,-193.0,-94.0,-21.0,531.0,-235.0,1
1.0,-189.0,-84.0,-11.0,543.0,-242.0,1
7.0,-187.0,-89.0,-14.0,555.0,-243.0,1
12.0,-182.0,-85.0,-27.0,561.0,-245.0,1
9.0,-178.0,-78.0,-52.0,563.0,-241.0,1
11.0,-178.0,-71.0,-83.0,556.0,-237.0,1
10.0,-184.0,-72.0,-115.0,542.0,-224.0,1
10.0,-184.0,-67.0,-139.0,523.0,-207.0,1
6.0,-186.0,-66.0,-152.0,499.0,-187.0,1
4.0,-190.0,-59.0,-153.0,471.0,-169.0,1
0.0,-187.0,-64.0,-143.0,436.0,-154.0,1
8.0,-190.0,-64.0,-130.0,402.0,-145.0,1
7.0,-189.0,-68.0,-111.0,377.0,-120.0,1
5.0,-185.0,-64.0,-96.0,350.0,-102.0,1
11.0,-185.0,-64.0,-85.0,328.0,-85.0,1
9.0,-182.0,-64.0,-80.0,307.0,-69.0,1
11.0,-182.0,-63.0,-77.0,284.0,-58.0,1
10.0,-179.0,-65.0,-81.0,262.0,-50.0,1
15.0,-183.0,-64.0,-88.0,238.0,-46.0,1
21.0,-187.0,-65.0,-101.0,216.0,-44.0,1
21.0,-190.0,-65.0,-118.0,195.0,-42.0,1
23.0,-193.0,-66.0,-139.0,179.0,-39.0,1
23.0,-194.0,-68.0,-165.0,166.0,-35.0,1
28.0,-202.0,-62.0,-192.0,158.0,-33.0,1
33.0,-207.0,-66.0,-210.0,154.0,-28.0,1
29.0,-212.0,-65.0,-225.0,154.0,-27.0,1
33.0,-217.0,-63.0,-236.0,153.0,-30.0,1
34.0,-217.0,-65.0,-234.0,163.0,-18.0,1
34.0,-228.0,-64.0,-226.0,169.0,-7.0,1
33.0,-230.0,-64.0,-213.0,173.0,2.0,1
29.0,-229.0,-61.0,-197.0,175.0,9.0,1
36.0,-237.0,-59.0,-172.0,181.0,23.0,1
31.0,-239.0,-57.0,-140.0,180.0,33.0,1
29.0,-236.0,-50.0,-102.0,176.0,42.0,1
19.0,-238.0,-49.0,-59.0,168.0,51.0,1
28.0,-235.0,-45.0,-17.0,152.0,58.0,1
23.0,-236.0,-42.0,20.0,132.0,63.0,1
19.0,-234.0,-41.0,51.0,108.0,66.0,1
15.0,-231.0,-39.0,67.0,78.0,69.0,1
11.0,-234.0,-37.0,75.0,43.0,72.0,1
6.0,-237.0,-35.0,77.0,7.0,74.0,1
3.0,-244.0,-37.0,81.0,-34.0,79.0,1
-2.0,-243.0,-35.0,87.0,-74.0,83.0,1
-2.0,-243.0,-37.0,99.0,-107.0,86.0,1
-12.0,-250.0,-36.0,113.0,-131.0,95.0,1
-8.0,-254.0,-36.0,133.0,-153.0,98.0,1
-15.0,-255.0,-34.0,157.0,-171.0,101.0,1
-13.0,-259.0,-33.0,182.0,-185.0,101.0,1
-15.0,-262.0,-35.0,209.0,-198.0,94.0,1
-6.0,-263.0,-40.0,223.0,-214.0,70.0,1
-3.0,-266.0,-45.0,230.0,-201.0,65.0,1
2.0,-262.0,-44.0,239.0,-175.0,62.0,1
12.0,-260.0,-55.0,240.0,-147.0,52.0,1
22.0,-259.0,-54.0,238.0,-119.0,42.0,1
30.0,-257.0,-55.0,236.0,-98.0,26.0,1
38.0,-255.0,-39.0,234.0,-86.0,2.0,1
47.0,-257.0,-39.0,232.0,-84.0,-21.0,1
46.0,-261.0,-33.0,236.0,-85.0,-46.0,1
50.0,-260.0,-29.0,248.0,-87.0,-73.0,1
48.0,-256.0,-26.0,268.0,-86.0,-93.0,1
44.0,-259.0,-28.0,295.0,-83.0,-108.0,1
40.0,-259.0,-21.0,323.0,-86.0,-118.0,1
40.0,-261.0,-21.0,356.0,-99.0,-122.0,1
39.0,-260.0,-17.0,387.0,-125.0,-122.0,1
41.0,-267.0,-14.0,413.0,-159.0,-120.0,1
45.0,-272.0,-20.0,415.0,-197.0,-119.0,1
49.0,-282.0,-26.0,389.0,-227.0,-117.0,1
48.0,-280.0,-53.0,315.0,-243.0,-122.0,1
50.0,-279.0,-79.0,194.0,-242.0,-136.0,1
53.0,-279.0,-115.0,33.0,-215.0,-157.0,1
58.0,-280.0,-166.0,-171.0,-153.0,-178.0,1
71.0,-291.0,-212.0,-389.0,-60.0,-208.0,1
99.0,-303.0,-238.0,-564.0,57.0,-242.0,1
121.0,-320.0,-237.0,-652.0,180.0,-282.0,1
140.0,-323.0,-230.0,-635.0,296.0,-317.0,1
146.0,-329.0,-218.0,-517.0,431.0,-317.0,1
140.0,-336.0,-187.0,-340.0,563.0,-294.0,1
124.0,-353.0,-167.0,-155.0,667.0,-267.0,1
97.0,-349.0,-134.0,-10.0,741.0,-222.0,1
74.0,-350.0,-121.0,91.0,783.0,-173.0,1
51.0,-346.0,-110.0,161.0,799.0,-128.0,1
28.0,-333.0,-114.0,221.0,781.0,-90.0,1
3.0,-317.0,-124.0,278.0,726.0,-62.0,1
-26.0,-291.0,-138.0,327.0,640.0,-44.0,1
-46.0,-272.0,-156.0,362.0,528.0,-26.0,1
-64.0,-255.0,-168.0,380.0,408.0,-6.0,1
-75.0,-228.0,-184.0,379.0,293.0,17.0,1
-80.0,-205.0,-195.0,364.0,195.0,34.0,1
-85.0,-187.0,-192.0,339.0,117.0,41.0,1
-85.0,-174.0,-190.0,304.0,55.0,47.0,1
-85.0,-161.0,-187.0,254.0,0.0,51.0,1
-75.0,-159.0,-173.0,196.0,-48.0,62.0,1
-61.0,-164.0,-164.0,135.0,-89.0,77.0,1
-48.0,-165.0,-151.0,68.0,-122.0,104.0,1
-35.0,-177.0,-139.0,-4.0,-142.0,132.0,1
-18.0,-185.0,-132.0,-61.0,-144.0,161.0,1
-3.0,-192.0,-124.0,-107.0,-132.0,181.0,1
0.0,-199.0,-117.0,-132.0,-112.0,197.0,1
1.0,-211.0,-109.0,-149.0,-87.0,212.0,1
5.0,-211.0,-104.0,-164.0,-59.0,224.0,1
3.0,-217.0,-110.0,-175.0,-32.0,234.0,1
11.0,-227.0,-106.0,-184.0,-2.0,246.0,1
13.0,-236.0,-105.0,-185.0,28.0,259.0,1
15.0,-241.0,-101.0,-169.0,55.0,273.0,1
10.0,-241.0,-103.0,-137.0,73.0,290.0,1
12.0,-243.0,-102.0,-92.0,85.0,310.0,1
11.0,-244.0,-101.0,-38.0,97.0,332.0,1
5.0,-236.0,-103.0,20.0,100.0,350.0,1
3.0,-232.0,-97.0,75.0,104.0,372.0,1
-3.0,-228.0,-90.0,121.0,105.0,394.0,1
-3.0,-218.0,-88.0,152.0,99.0,404.0,1
-3.0,-209.0,-85.0,171.0,95.0,412.0,1
-2.0,-197.0,-87.0,175.0,91.0,417.0,1
0.0,-187.0,-90.0,164.0,83.0,422.0,1
0.0,-176.0,-90.0,143.0,74.0,422.0,1
0.0,-168.0,-89.0,113.0,75.0,425.0,1
3.0,-165.0,-86.0,84.0,82.0,422.0,1
5.0,-161.0,-88.0,59.0,86.0,419.0,1
10.0,-159.0,-87.0,31.0,94.0,411.0,1
8.0,-162.0,-80.0,8.0,104.0,405.0,1
10.0,-164.0,-77.0,-15.0,108.0,396.0,1
15.0,-167.0,-78.0,-35.0,116.0,387.0,1
11.0,-172.0,-77.0,-48.0,128.0,374.0,1
13.0,-175.0,-81.0,-60.0,140.0,364.0,1
11.0,-179.0,-82.0,-72.0,154.0,351.0,1
5.0,-179.0,-81.0,-84.0,170.0,335.0,1
6.0,-186.0,-83.0,-92.0,189.0,321.0,1
0.0,-183.0,-88.0,-94.0,210.0,310.0,1
-6.0,-185.0,-87.0,-94.0,231.0,299.0,1
-7.0,-187.0,-87.0,-94.0,252.0,291.0,1
-18.0,-186.0,-91.0,-96.0,270.0,285.0,1
-17.0,-188.0,-91.0,-100.0,282.0,272.0,1
-25.0,-191.0,-88.0,-109.0,296.0,265.0,1
-29.0,-192.0,-86.0,-120.0,304.0,253.0,1
-29.0,-195.0,-85.0,-134.0,312.0,242.0,1
-31.0,-197.0,-80.0,-147.0,318.0,236.0,1
-30.0,-197.0,-75.0,-158.0,324.0,230.0,1
-32.0,-203.0,-77.0,-170.0,326.0,223.0,1
-29.0,-210.0,-72.0,-174.0,329.0,217.0,1
-27.0,-217.0,-72.0,-173.0,325.0,208.0,1
-29.0,-219.0,-67.0,-169.0,315.0,196.0,1
-19.0,-221.0,-66.0,-160.0,305.0,183.0,1
-22.0,-230.0,-68.0,-144.0,293.0,166.0,1
-18.0,-228.0,-65.0,-126.0,283.0,146.0,1
-10.0,-234.0,-64.0,-110.0,275.0,120.0,1
-5.0,-235.0,-63.0,-96.0,273.0,96.0,1
-2.0,-233.0,-60.0,-78.0,276.0,72.0,1
-4.0,-231.0,-58.0,-60.0,285.0,48.0,1
0.0,-234.0,-64.0,-39.0,298.0,27.0,1
-2.0,-235.0,-62.0,-19.0,310.0,6.0,1
0.0,-232.0,-57.0,5.0,325.0,-12.0,1
-1.0,-229.0,-61.0,28.0,337.0,-29.0,1
-3.0,-233.0,-56.0,53.0,348.0,-45.0,1
-1.0,-223.0,-58.0,79.0,358.0,-64.0,1
-2.0,-227.0,-57.0,105.0,367.0,-80.0,1
-4.0,-223.0,-56.0,126.0,377.0,-95.0,1
-8.0,-224.0,-51.0,143.0,389.0,-108.0,1
-7.0,-224.0,-53.0,155.0,399.0,-119.0,1
-7.0,-227.0,-55.0,159.0,408.0,-127.0,1
-12.0,-227.0,-50.0,160.0,416.0,-133.0,1
-3.0,-227.0,-52.0,164.0,421.0,-135.0,1
-10.0,-231.0,-52.0,165.0,427.0,-132.0,1
-4.0,-240.0,-47.0,161.0,435.0,-124.0,1
0.0,-239.0,-48.0,159.0,449.0,-114.0,1
-3.0,-245.0,-39.0,153.0,466.0,-96.0,1
1.0,-252.0,-36.0,156.0,477.0,-80.0,1
-1.0,-254.0,-38.0,164.0,482.0,-64.0,1
6.0,-257.0,-40.0,169.0,472.0,-53.0,1
7.0,-263.0,-40.0,179.0,453.0,-45.0,1
2.0,-264.0,-44.0,204.0,424.0,-39.0,1
-5.0,-258.0,-49.0,235.0,388.0,-33.0,1
-10.0,-257.0,-43.0,269.0,352.0,-30.0,1
-18.0,-253.0,-46.0,298.0,325.0,-25.0,1
-19.0,-253.0,-42.0,328.0,304.0,-20.0,1
-24.0,-253.0,-34.0,356.0,287.0,-18.0,1
-27.0,-246.0,-39.0,376.0,275.0,-17.0,1
-29.0,-245.0,-41.0,397.0,266.0,-15.0,1
-31.0,-245.0,-39.0,412.0,261.0,-16.0,1
-33.0,-242.0,-37.0,422.0,262.0,-15.0,1
-31.0,-246.0,-36.0,422.0,268.0,-15.0,1
-31.0,-246.0,-34.0,414.0,281.0,-17.0,1
-30.0,-245.0,-35.0,398.0,297.0,-15.0,1
-26.0,-251.0,-38.0,366.0,311.0,-9.0,1
-17.0,-256.0,-44.0,317.0,320.0,3.0,1
-21.0,-259.0,-48.0,244.0,327.0,25.0,1
-16.0,-268.0,-63.0,147.0,327.0,56.0,1
10.0,-260.0,-75.0,35.0,320.0,95.0,1
-16.0,-296.0,-86.0,-93.0,314.0,160.0,1
1.0,-297.0,-110.0,-180.0,253.0,172.0,1
6.0,-304.0,-124.0,-264.0,181.0,190.0,1
4.0,-309.0,-136.0,-327.0,102.0,218.0,1
-1.0,-311.0,-145.0,-351.0,13.0,247.0,1
-11.0,-317.0,-140.0,-331.0,-78.0,275.0,1
-37.0,-321.0,-130.0,-263.0,-160.0,303.0,1
-50.0,-324.0,-126.0,-160.0,-232.0,330.0,1
-64.0,-320.0,-116.0,-50.0,-282.0,346.0,1
-64.0,-321.0,-119.0,37.0,-301.0,346.0,1
-67.0,-317.0,-131.0,85.0,-286.0,331.0,1
-68.0,-305.0,-151.0,99.0,-233.0,312.0,1
-69.0,-290.0,-169.0,94.0,-151.0,279.0,1
-67.0,-281.0,-177.0,89.0,-47.0,243.0,1
-71.0,-266.0,-190.0,96.0,58.0,210.0,1
-65.0,-260.0,-191.0,107.0,132.0,183.0,1
-53.0,-252.0,-190.0,130.0,189.0,163.0,1
-39.0,-246.0,-182.0,143.0,259.0,157.0,1
-20.0,-239.0,-172.0,154.0,336.0,158.0,1
0.0,-226.0,-169.0,171.0,399.0,154.0,1
2.0,-216.0,-169.0,180.0,445.0,142.0,1
-1.0,-209.0,-165.0,177.0,471.0,126.0,1
2.0,-200.0,-168.0,168.0,477.0,111.0,1
2.0,-193.0,-168.0,141.0,460.0,103.0,1
23.0,-193.0,-163.0,99.0,428.0,100.0,1
41.0,-195.0,-154.0,50.0,380.0,97.0,1
48.0,-202.0,-142.0,-2.0,329.0,86.0,1
51.0,-207.0,-135.0,-37.0,273.0,66.0,1
48.0,-209.0,-133.0,-57.0,219.0,35.0,1
42.0,-220.0,-136.0,-76.0,181.0,8.0,1
31.0,-225.0,-127.0,-91.0,160.0,-16.0,1
18.0,-234.0,-129.0,-95.0,148.0,-33.0,1
5.0,-239.0,-124.0,-79.0,141.0,-48.0,1
-1.0,-242.0,-124.0,-50.0,143.0,-61.0,1
-10.0,-244.0,-120.0,-15.0,146.0,-79.0,1
-18.0,-246.0,-116.0,9.0,144.0,-108.0,1
-27.0,-245.0,-112.0,19.0,136.0,-138.0,1
-24.0,-248.0,-115.0,20.0,128.0,-173.0,1
-30.0,-244.0,-107.0,12.0,120.0,-212.0,1
-30.0,-241.0,-110.0,2.0,119.0,-249.0,1
-27.0,-236.0,-106.0,-5.0,121.0,-286.0,1
-20.0,-231.0,-106.0,-12.0,130.0,-325.0,1
-22.0,-223.0,-101.0,-10.0,145.0,-361.0,1
-10.0,-215.0,-99.0,-5.0,164.0,-393.0,1
-6.0,-211.0,-93.0,0.0,183.0,-409.0,1
-4.0,-206.0,-89.0,3.0,200.0,-420.0,1
3.0,-198.0,-83.0,0.0,214.0,-426.0,1
9.0,-193.0,-82.0,-3.0,230.0,-413.0,1
14.0,-192.0,-79.0,-9.0,238.0,-398.0,1
15.0,-189.0,-76.0,-13.0,234.0,-382.0,1
22.0,-185.0,-73.0,-20.0,228.0,-368.0,1
22.0,-181.0,-69.0,-19.0,218.0,-350.0,1
28.0,-180.0,-68.0,-17.0,204.0,-331.0,1
26.0,-173.0,-70.0,-10.0,186.0,-314.0,1
21.0,-170.0,-68.0,1.0,162.0,-297.0,1
17.0,-164.0,-68.0,13.0,130.0,-286.0,1
20.0,-163.0,-68.0,20.0,96.0,-282.0,1
19.0,-163.0,-69.0,31.0,67.0,-259.0,1
15.0,-157.0,-65.0,37.0,36.0,-241.0,1
13.0,-155.0,-69.0,40.0,10.0,-217.0,1
13.0,-150.0,-64.0,38.0,-14.0,-195.0,1
11.0,-149.0,-67.0,29.0,-31.0,-169.0,1
10.0,-148.0,-66.0,13.0,-48.0,-151.0,1
14.0,-158.0,-56.0,-6.0,-62.0,-133.0,1
7.0,-151.0,-68.0,-32.0,-70.0,-120.0,1
14.0,-156.0,-69.0,-59.0,-76.0,-110.0,1
12.0,-163.0,-70.0,-86.0,-76.0,-102.0,1
15.0,-166.0,-71.0,-110.0,-78.0,-99.0,1
22.0,-171.0,-75.0,-135.0,-76.0,-98.0,1
22.0,-178.0,-75.0,-156.0,-69.0,-88.0,1
21.0,-183.0,-73.0,-167.0,-63.0,-83.0,1
25.0,-191.0,-70.0,-177.0,-67.0,-85.0,1
28.0,-198.0,-76.0,-180.0,-64.0,-75.0,1
26.0,-203.0,-75.0,-175.0,-65.0,-63.0,1
28.0,-211.0,-71.0,-166.0,-71.0,-50.0,1
28.0,-216.0,-69.0,-155.0,-80.0,-36.0,1
23.0,-218.0,-72.0,-141.0,-91.0,-19.0,1
25.0,-219.0,-65.0,-119.0,-104.0,-1.0,1
23.0,-226.0,-61.0,-93.0,-118.0,15.0,1
19.0,-225.0,-55.0,-66.0,-135.0,28.0,1
18.0,-220.0,-51.0,-43.0,-152.0,37.0,1
16.0,-226.0,-39.0,-16.0,-175.0,42.0,1
15.0,-229.0,-33.0,10.0,-202.0,41.0,1
8.0,-230.0,-29.0,34.0,-232.0,40.0,1
1.0,-238.0,-27.0,61.0,-267.0,37.0,1
0.0,-237.0,-21.0,89.0,-306.0,36.0,1
2.0,-246.0,-13.0,121.0,-342.0,35.0,1
-11.0,-250.0,-14.0,156.0,-380.0,32.0,1
-23.0,-255.0,-14.0,190.0,-406.0,35.0,1
-25.0,-259.0,-28.0,231.0,-425.0,31.0,1
-27.0,-258.0,-31.0,266.0,-439.0,32.0,1
-24.0,-260.0,-37.0,292.0,-434.0,36.0,1
-15.0,-263.0,-45.0,310.0,-410.0,33.0,1
-1.0,-263.0,-45.0,314.0,-377.0,16.0,1
8.0,-264.0,-39.0,313.0,-319.0,6.0,1
15.0,-256.0,-35.0,328.0,-254.0,1.0,1
19.0,-259.0,-36.0,358.0,-196.0,-4.0,1
24.0,-253.0,-39.0,396.0,-145.0,-4.0,1
32.0,-247.0,-46.0,435.0,-94.0,5.0,1
42.0,-239.0,-55.0,461.0,-43.0,20.0,1
59.0,-233.0,-57.0,462.0,7.0,31.0,1
66.0,-233.0,-65.0,432.0,50.0,30.0,1
79.0,-239.0,-66.0,379.0,81.0,16.0,1
90.0,-248.0,-72.0,311.0,95.0,-9.0,1
83.0,-249.0,-82.0,232.0,103.0,-39.0,1
81.0,-256.0,-95.0,147.0,116.0,-68.0,1
78.0,-262.0,-109.0,53.0,145.0,-97.0,1
73.0,-264.0,-128.0,-47.0,187.0,-126.0,1
75.0,-276.0,-150.0,-145.0,251.0,-159.0,1
77.0,-294.0,-160.0,-238.0,338.0,-193.0,1
71.0,-305.0,-175.0,-315.0,444.0,-235.0,1
73.0,-314.0,-187.0,-382.0,562.0,-280.0,1
71.0,-322.0,-192.0,-437.0,680.0,-332.0,1
70.0,-335.0,-192.0,-476.0,784.0,-382.0,1
64.0,-338.0,-178.0,-480.0,858.0,-429.0,1
55.0,-346.0,-150.0,-429.0,900.0,-453.0,1
51.0,-349.0,-130.0,-328.0,908.0,-449.0,1
28.0,-353.0,-114.0,-214.0,890.0,-417.0,1
13.0,-357.0,-106.0,-116.0,849.0,-367.0,1
-1.0,-352.0,-114.0,-42.0,797.0,-301.0,1
-15.0,-352.0,-121.0,20.0,739.0,-232.0,1
-31.0,-342.0,-130.0,92.0,661.0,-173.0,1
-42.0,-328.0,-136.0,189.0,552.0,-132.0,1
-62.0,-303.0,-151.0,308.0,410.0,-95.0,1
-64.0,-280.0,-155.0,426.0,243.0,-55.0,1
-66.0,-257.0,-159.0,511.0,73.0,-15.0,1
-66.0,-231.0,-169.0,545.0,-86.0,18.0,1
-61.0,-215.0,-177.0,532.0,-224.0,38.0,1
-61.0,-206.0,-181.0,482.0,-326.0,52.0,1
-60.0,-198.0,-181.0,402.0,-391.0,58.0,1
-55.0,-195.0,-186.0,316.0,-421.0,56.0,1
-50.0,-192.0,-186.0,232.0,-420.0,54.0,1
-48.0,-190.0,-182.0,161.0,-396.0,52.0,1
-33.0,-194.0,-178.0,102.0,-356.0,52.0,1
-15.0,-197.0,-173.0,57.0,-304.0,55.0,1
1.0,-199.0,-168.0,28.0,-244.0,55.0,1
15.0,-204.0,-157.0,7.0,-181.0,52.0,1
21.0,-207.0,-155.0,-10.0,-126.0,42.0,1
26.0,-210.0,-144.0,-20.0,-76.0,26.0,1
26.0,-219.0,-133.0,-26.0,-32.0,13.0,1
31.0,-227.0,-123.0,-23.0,7.0,-1.0,1
30.0,-230.0,-114.0,-4.0,43.0,-10.0,1
24.0,-233.0,-108.0,21.0,73.0,-10.0,1
23.0,-235.0,-105.0,48.0,90.0,-1.0,1
20.0,-232.0,-105.0,67.0,98.0,23.0,1
16.0,-238.0,-107.0,76.0,98.0,57.0,1
16.0,-236.0,-110.0,75.0,88.0,101.0,1
13.0,-235.0,-107.0,70.0,71.0,150.0,1
9.0,-228.0,-108.0,66.0,40.0,189.0,1
12.0,-223.0,-110.0,70.0,11.0,224.0,1
13.0,-217.0,-105.0,77.0,-16.0,250.0,1
6.0,-218.0,-96.0,86.0,-35.0,272.0,1
3.0,-209.0,-100.0,106.0,-56.0,280.0,1
3.0,-199.0,-99.0,127.0,-69.0,281.0,1
8.0,-193.0,-96.0,141.0,-67.0,287.0,1
5.0,-183.0,-92.0,149.0,-55.0,295.0,1
7.0,-178.0,-90.0,148.0,-46.0,296.0,1
3.0,-168.0,-90.0,132.0,-37.0,296.0,1
10.0,-165.0,-89.0,111.0,-25.0,290.0,1
7.0,-165.0,-85.0,92.0,-11.0,283.0,1
7.0,-165.0,-76.0,72.0,1.0,272.0,1
5.0,-161.0,-81.0,54.0,15.0,260.0,1
0.0,-160.0,-73.0,44.0,29.0,247.0,1
0.0,-162.0,-73.0,43.0,43.0,232.0,1
-4.0,-161.0,-68.0,45.0,60.0,219.0,1
-9.0,-161.0,-66.0,53.0,72.0,207.0,1
-15.0,-163.0,-66.0,64.0,81.0,193.0,1
-20.0,-161.0,-66.0,69.0,92.0,175.0,1
-21.0,-160.0,-71.0,72.0,104.0,161.0,1
-23.0,-164.0,-68.0,69.0,117.0,152.0,1
-25.0,-166.0,-73.0,60.0,123.0,137.0,1
-27.0,-165.0,-70.0,45.0,126.0,125.0,1
-27.0,-167.0,-73.0,26.0,125.0,114.0,1
-26.0,-173.0,-71.0,7.0,119.0,102.0,1
-27.0,-174.0,-70.0,-9.0,106.0,92.0,1
-25.0,-179.0,-67.0,-26.0,89.0,83.0,1
-22.0,-183.0,-69.0,-42.0,68.0,69.0,1
-24.0,-188.0,-64.0,-54.0,43.0,56.0,1
-22.0,-194.0,-66.0,-61.0,19.0,37.0,1
-23.0,-194.0,-65.0,-65.0,-5.0,17.0,1
-20.0,-200.0,-61.0,-65.0,-24.0,-3.0,1
-23.0,-204.0,-63.0,-66.0,-39.0,-24.0,1
-18.0,-206.0,-56.0,-62.0,-47.0,-44.0,1
-19.0,-208.0,-56.0,-50.0,-52.0,-64.0,1
-15.0,-205.0,-55.0,-33.0,-54.0,-87.0,1
-10.0,-207.0,-52.0,-12.0,-54.0,-109.0,1
-13.0,-210.0,-53.0,16.0,-50.0,-128.0,1
-12.0,-209.0,-51.0,45.0,-40.0,-147.0,1
-13.0,-209.0,-50.0,71.0,-29.0,-162.0,1
-8.0,-211.0,-50.0,94.0,-11.0,-172.0,1
-6.0,-208.0,-48.0,110.0,6.0,-177.0,1
-4.0,-211.0,-47.0,117.0,26.0,-181.0,1
0.0,-208.0,-45.0,122.0,44.0,-179.0,1
1.0,-207.0,-45.0,125.0,60.0,-174.0,1
5.0,-212.0,-41.0,128.0,70.0,-167.0,1
6.0,-217.0,-42.0,132.0,78.0,-159.0,1
10.0,-221.0,-40.0,139.0,86.0,-147.0,1
16.0,-231.0,-39.0,146.0,94.0,-133.0,1
16.0,-234.0,-40.0,156.0,106.0,-122.0,1
16.0,-241.0,-35.0,170.0,116.0,-115.0,1
22.0,-247.0,-43.0,183.0,127.0,-110.0,1
27.0,-249.0,-39.0,201.0,139.0,-109.0,1
28.0,-253.0,-45.0,225.0,153.0,-104.0,1
27.0,-256.0,-39.0,249.0,164.0,-110.0,1
21.0,-260.0,-42.0,276.0,164.0,-116.0,1
18.0,-261.0,-45.0,301.0,156.0,-114.0,1
10.0,-262.0,-44.0,327.0,132.0,-119.0,1
-1.0,-264.0,-45.0,356.0,100.0,-117.0,1
-13.0,-265.0,-45.0,387.0,66.0,-111.0,1
-25.0,-261.0,-46.0,413.0,40.0,-98.0,1
-34.0,-266.0,-46.0,430.0,21.0,-80.0,1
-43.0,-260.0,-45.0,442.0,13.0,-61.0,1
-42.0,-264.0,-40.0,443.0,18.0,-43.0,1
-49.0,-262.0,-39.0,438.0,34.0,-28.0,1
-51.0,-264.0,-31.0,433.0,55.0,-17.0,1
-47.0,-261.0,-29.0,431.0,71.0,-9.0,1
-46.0,-268.0,-22.0,430.0,89.0,-1.0,1
-42.0,-267.0,-27.0,428.0,106.0,8.0,1
-36.0,-270.0,-27.0,418.0,118.0,18.0,1
-35.0,-270.0,-37.0,392.0,126.0,34.0,1
-29.0,-272.0,-39.0,351.0,126.0,50.0,1
-26.0,-274.0,-49.0,288.0,123.0,74.0,1
-19.0,-278.0,-51.0,208.0,117.0,101.0,1
-17.0,-289.0,-60.0,112.0,113.0,151.0,1
-5.0,-295.0,-67.0,28.0,99.0,187.0,1
8.0,-301.0,-84.0,-41.0,67.0,205.0,1
10.0,-304.0,-97.0,-100.0,29.0,229.0,1
16.0,-303.0,-123.0,-145.0,-27.0,249.0,1
15.0,-303.0,-141.0,-169.0,-97.0,260.0,1
8.0,-301.0,-163.0,-169.0,-166.0,269.0,1
0.0,-307.0,-166.0,-147.0,-220.0,284.0,1
-16.0,-307.0,-172.0,-107.0,-257.0,300.0,1
-36.0,-313.0,-170.0,-65.0,-283.0,302.0,1
-47.0,-310.0,-181.0,-27.0,-297.0,289.0,1
-57.0,-313.0,-187.0,-3.0,-295.0,268.0,1
-67.0,-305.0,-192.0,8.0,-276.0,243.0,1
-67.0,-304.0,-187.0,21.0,-250.0,221.0,1
-82.0,-296.0,-190.0,48.0,-243.0,207.0,1
-75.0,-278.0,-190.0,83.0,-250.0,202.0,1
-59.0,-270.0,-192.0,104.0,-230.0,208.0,1
-44.0,-251.0,-183.0,106.0,-169.0,215.0,1
-31.0,-244.0,-183.0,108.0,-93.0,216.0,1
-12.0,-234.0,-172.0,119.0,-20.0,209.0,1
5.0,-222.0,-170.0,120.0,45.0,191.0,1
19.0,-219.0,-169.0,107.0,103.0,172.0,1
24.0,-209.0,-172.0,88.0,143.0,154.0,1
28.0,-202.0,-175.0,62.0,165.0,147.0,1
56.0,-192.0,-179.0,25.0,171.0,140.0,1
73.0,-191.0,-174.0,-21.0,160.0,132.0,1
84.0,-193.0,-165.0,-76.0,135.0,113.0,1
88.0,-204.0,-154.0,-127.0,105.0,91.0,1
85.0,-216.0,-144.0,-166.0,74.0,63.0,1
81.0,-224.0,-139.0,-193.0,50.0,32.0,1
64.0,-233.0,-135.0,-210.0,32.0,4.0,1
47.0,-242.0,-131.0,-221.0,22.0,-27.0,1
28.0,-248.0,-129.0,-218.0,16.0,-56.0,1
12.0,-251.0,-122.0,-200.0,13.0,-83.0,1
11.0,-257.0,-123.0,-174.0,13.0,-110.0,1
-4.0,-256.0,-120.0,-146.0,13.0,-141.0,1
-17.0,-254.0,-118.0,-125.0,12.0,-173.0,1
-21.0,-251.0,-110.0,-111.0,9.0,-208.0,1
-27.0,-245.0,-111.0,-106.0,7.0,-248.0,1
-26.0,-244.0,-114.0,-103.0,8.0,-287.0,1
-24.0,-235.0,-107.0,-100.0,12.0,-323.0,1
-19.0,-233.0,-107.0,-93.0,21.0,-354.0,1
-11.0,-229.0,-104.0,-79.0,34.0,-380.0,1
-10.0,-218.0,-99.0,-59.0,51.0,-395.0,1
-1.0,-213.0,-96.0,-36.0,70.0,-403.0,1
2.0,-209.0,-85.0,-12.0,88.0,-402.0,1
6.0,-197.0,-87.0,5.0,104.0,-399.0,1
13.0,-193.0,-78.0,10.0,113.0,-394.0,1
22.0,-190.0,-75.0,9.0,116.0,-386.0,1
24.0,-182.0,-76.0,-2.0,111.0,-372.0,1
24.0,-177.0,-73.0,-18.0,99.0,-359.0,1
28.0,-179.0,-75.0,-36.0,83.0,-341.0,1
31.0,-180.0,-73.0,-52.0,65.0,-322.0,1
25.0,-182.0,-72.0,-62.0,42.0,-300.0,1
30.0,-177.0,-75.0,-72.0,11.0,-300.0,1
29.0,-179.0,-71.0,-83.0,-7.0,-277.0,1
21.0,-177.0,-70.0,-82.0,-26.0,-251.0,1
23.0,-180.0,-70.0,-73.0,-42.0,-227.0,1
17.0,-176.0,-66.0,-59.0,-55.0,-201.0,1
12.0,-177.0,-70.0,-44.0,-67.0,-176.0,1
10.0,-175.0,-68.0,-25.0,-81.0,-157.0,1
10.0,-173.0,-65.0,-12.0,-94.0,-142.0,1
2.0,-171.0,-69.0,-2.0,-106.0,-126.0,1
8.0,-167.0,-65.0,0.0,-117.0,-112.0,1
7.0,-167.0,-66.0,-2.0,-125.0,-99.0,1
8.0,-168.0,-65.0,-12.0,-130.0,-89.0,1
9.0,-168.0,-66.0,-29.0,-132.0,-74.0,1
16.0,-175.0,-68.0,-48.0,-131.0,-59.0,1
11.0,-169.0,-72.0,-69.0,-130.0,-49.0,1
18.0,-178.0,-67.0,-94.0,-130.0,-41.0,1
17.0,-179.0,-67.0,-116.0,-127.0,-32.0,1
28.0,-185.0,-66.0,-137.0,-125.0,-28.0,1
24.0,-190.0,-67.0,-146.0,-117.0,-14.0,1
30.0,-194.0,-66.0,-150.0,-110.0,-2.0,1
32.0,-200.0,-66.0,-150.0,-108.0,10.0,1
29.0,-206.0,-62.0,-145.0,-107.0,19.0,1
30.0,-213.0,-63.0,-139.0,-110.0,29.0,1
30.0,-220.0,-54.0,-129.0,-116.0,36.0,1
26.0,-222.0,-53.0,-117.0,-126.0,45.0,1
24.0,-226.0,-50.0,-101.0,-137.0,52.0,1
18.0,-232.0,-45.0,-81.0,-151.0,59.0,1
17.0,-233.0,-48.0,-56.0,-166.0,66.0,1
13.0,-237.0,-41.0,-24.0,-184.0,73.0,1
11.0,-238.0,-37.0,14.0,-202.0,79.0,1
9.0,-247.0,-37.0,55.0,-224.0,84.0,1
5.0,-251.0,-27.0,99.0,-243.0,86.0,1
2.0,-250.0,-27.0,145.0,-261.0,86.0,1
0.0,-254.0,-29.0,198.0,-281.0,88.0,1
-1.0,-253.0,-32.0,249.0,-302.0,91.0,1
-3.0,-255.0,-34.0,295.0,-319.0,98.0,1
-4.0,-252.0,-32.0,331.0,-331.0,106.0,1
0.0,-255.0,-37.0,353.0,-335.0,107.0,1
5.0,-255.0,-28.0,363.0,-330.0,102.0,1
5.0,-255.0,-29.0,361.0,-318.0,91.0,1
7.0,-258.0,-34.0,353.0,-301.0,74.0,1
11.0,-255.0,-30.0,348.0,-280.0,60.0,1
10.0,-249.0,-30.0,345.0,-257.0,47.0,1
11.0,-249.0,-38.0,354.0,-233.0,46.0,1
18.0,-244.0,-36.0,372.0,-202.0,47.0,1
23.0,-242.0,-49.0,396.0,-159.0,56.0,1
38.0,-237.0,-54.0,413.0,-105.0,71.0,1
50.0,-234.0,-52.0,417.0,-43.0,79.0,1
59.0,-231.0,-49.0,412.0,24.0,78.0,1
67.0,-233.0,-50.0,403.0,85.0,68.0,1
73.0,-236.0,-40.0,389.0,134.0,52.0,1
80.0,-243.0,-29.0,384.0,166.0,31.0,1
77.0,-249.0,-29.0,388.0,181.0,10.0,1
71.0,-247.0,-26.0,402.0,185.0,-7.0,1
61.0,-249.0,-23.0,421.0,182.0,-23.0,1
55.0,-255.0,-21.0,443.0,175.0,-32.0,1
47.0,-256.0,-25.0,463.0,162.0,-38.0,1
32.0,-256.0,-27.0,471.0,140.0,-44.0,1
27.0,-259.0,-28.0,463.0,107.0,-49.0,1
13.0,-263.0,-29.0,432.0,66.0,-58.0,1
2.0,-267.0,-37.0,375.0,17.0,-66.0,1
-4.0,-271.0,-49.0,294.0,-28.0,-74.0,1
-11.0,-272.0,-67.0,192.0,-59.0,-83.0,1
-16.0,-275.0,-91.0,77.0,-63.0,-86.0,1
-19.0,-277.0,-127.0,-48.0,-44.0,-89.0,1
-12.0,-274.0,-161.0,-170.0,8.0,-93.0,1
-3.0,-279.0,-190.0,-279.0,77.0,-94.0,1
13.0,-284.0,-203.0,-359.0,151.0,-101.0,1
32.0,-288.0,-210.0,-402.0,224.0,-113.0,1
58.0,-299.0,-208.0,-397.0,293.0,-127.0,1
74.0,-306.0,-203.0,-355.0,358.0,-141.0,1
75.0,-308.0,-201.0,-304.0,416.0,-151.0,1
79.0,-310.0,-209.0,-258.0,464.0,-158.0,1
75.0,-310.0,-210.0,-229.0,501.0,-161.0,1
61.0,-307.0,-215.0,-207.0,509.0,-157.0,1
48.0,-299.0,-208.0,-172.0,473.0,-152.0,1
27.0,-288.0,-195.0,-110.0,400.0,-147.0,1
9.0,-282.0,-181.0,-24.0,309.0,-135.0,1
-13.0,-268.0,-169.0,58.0,206.0,-121.0,1
-31.0,-265.0,-160.0,122.0,97.0,-117.0,1
-61.0,-261.0,-154.0,170.0,-4.0,-115.0,1
-84.0,-257.0,-151.0,194.0,-94.0,-114.0,1
-107.0,-255.0,-151.0,197.0,-169.0,-113.0,1
-117.0,-247.0,-159.0,197.0,-222.0,-112.0,1
-125.0,-237.0,-164.0,199.0,-258.0,-108.0,1
-127.0,-229.0,-166.0,199.0,-286.0,-102.0,1
-120.0,-220.0,-166.0,193.0,-310.0,-96.0,1
-103.0,-210.0,-170.0,180.0,-328.0,-95.0,1
-75.0,-199.0,-162.0,157.0,-343.0,-96.0,1
-57.0,-200.0,-146.0,128.0,-346.0,-95.0,1
-32.0,-195.0,-132.0,100.0,-332.0,-89.0,1
-7.0,-194.0,-121.0,63.0,-304.0,-78.0,1
19.0,-198.0,-112.0,14.0,-260.0,-60.0,1
42.0,-201.0,-109.0,-44.0,-206.0,-40.0,1
59.0,-208.0,-109.0,-108.0,-146.0,-14.0,1
75.0,-219.0,-111.0,-174.0,-90.0,12.0,1
86.0,-224.0,-115.0,-242.0,-41.0,42.0,1
95.0,-231.0,-116.0,-293.0,-2.0,72.0,1
97.0,-245.0,-116.0,-315.0,31.0,106.0,1
83.0,-242.0,-107.0,-300.0,60.0,144.0,1
78.0,-239.0,-113.0,-248.0,83.0,183.0,1
63.0,-242.0,-104.0,-170.0,99.0,204.0,1
59.0,-241.0,-92.0,-77.0,109.0,206.0,1
46.0,-231.0,-84.0,3.0,124.0,217.0,1
23.0,-231.0,-82.0,55.0,139.0,231.0,1
11.0,-225.0,-82.0,78.0,140.0,233.0,1
1.0,-216.0,-85.0,81.0,144.0,238.0,1
-16.0,-205.0,-80.0,75.0,150.0,244.0,1
-22.0,-204.0,-84.0,60.0,155.0,255.0,1
-28.0,-193.0,-85.0,45.0,157.0,266.0,1
-35.0,-188.0,-93.0,28.0,158.0,268.0,1
-33.0,-185.0,-82.0,11.0,152.0,269.0,1
-35.0,-181.0,-79.0,-6.0,146.0,266.0,1
-34.0,-178.0,-76.0,-26.0,139.0,259.0,1
-30.0,-176.0,-74.0,-45.0,131.0,249.0,1
-26.0,-175.0,-69.0,-58.0,126.0,230.0,1
-15.0,-171.0,-63.0,-67.0,124.0,211.0,1
-10.0,-165.0,-67.0,-73.0,130.0,192.0,1
-6.0,-167.0,-64.0,-74.0,140.0,171.0,1
0.0,-161.0,-65.0,-74.0,157.0,151.0,1
2.0,-162.0,-65.0,-69.0,179.0,131.0,1
2.0,-167.0,-61.0,-63.0,204.0,111.0,1
0.0,-164.0,-68.0,-54.0,231.0,88.0,1
-2.0,-172.0,-68.0,-46.0,252.0,68.0,1
-9.0,-179.0,-70.0,-38.0,270.0,55.0,1
-11.0,-186.0,-69.0,-37.0,281.0,40.0,1
-15.0,-191.0,-63.0,-40.0,287.0,28.0,1
-18.0,-199.0,-63.0,-48.0,292.0,18.0,1
-25.0,-203.0,-59.0,-53.0,291.0,10.0,1
-22.0,-208.0,-60.0,-58.0,285.0,0.0,1
-18.0,-216.0,-63.0,-60.0,276.0,-11.0,1
-23.0,-225.0,-57.0,-57.0,266.0,-23.0,1
-16.0,-227.0,-55.0,-50.0,256.0,-37.0,1
-16.0,-227.0,-53.0,-38.0,249.0,-56.0,1
-15.0,-226.0,-48.0,-17.0,246.0,-76.0,1
-13.0,-228.0,-47.0,7.0,246.0,-96.0,1
-8.0,-231.0,-41.0,37.0,253.0,-114.0,1
-6.0,-231.0,-37.0,69.0,259.0,-135.0,1
-1.0,-231.0,-34.0,105.0,268.0,-153.0,1
0.0,-231.0,-33.0,144.0,278.0,-169.0,1
2.0,-234.0,-33.0,182.0,287.0,-183.0,1
3.0,-236.0,-31.0,221.0,299.0,-194.0,1
1.0,-232.0,-33.0,255.0,313.0,-204.0,1
6.0,-233.0,-35.0,280.0,327.0,-209.0,1
5.0,-234.0,-31.0,297.0,343.0,-215.0,1
11.0,-233.0,-31.0,316.0,355.0,-216.0,1
12.0,-231.0,-34.0,337.0,368.0,-219.0,1
16.0,-233.0,-40.0,357.0,379.0,-217.0,1
18.0,-230.0,-42.0,373.0,389.0,-214.0,1
21.0,-228.0,-38.0,386.0,407.0,-206.0,1
27.0,-230.0,-41.0,403.0,427.0,-194.0,1
29.0,-224.0,-39.0,417.0,444.0,-184.0,1
25.0,-222.0,-45.0,427.0,449.0,-171.0,1
28.0,-214.0,-46.0,434.0,436.0,-163.0,1
23.0,-216.0,-53.0,444.0,405.0,-149.0,1
15.0,-216.0,-61.0,446.0,355.0,-136.0,1
4.0,-210.0,-69.0,432.0,303.0,-119.0,1
-2.0,-210.0,-66.0,405.0,262.0,-96.0,1
-10.0,-216.0,-69.0,369.0,235.0,-72.0,1
-17.0,-218.0,-68.0,327.0,230.0,-46.0,1
-23.0,-229.0,-64.0,286.0,241.0,-21.0,1
-19.0,-244.0,-59.0,246.0,269.0,3.0,1
-14.0,-250.0,-60.0,215.0,307.0,22.0,1
-8.0,-257.0,-62.0,183.0,354.0,37.0,1
0.0,-266.0,-59.0,155.0,395.0,48.0,1
2.0,-272.0,-67.0,130.0,424.0,56.0,1
1.0,-280.0,-72.0,109.0,433.0,66.0,1
3.0,-257.0,-101.0,86.0,424.0,77.0,1
-11.0,-301.0,-87.0,54.0,420.0,130.0,1
0.0,-299.0,-92.0,36.0,359.0,110.0,1
-4.0,-302.0,-105.0,10.0,314.0,111.0,1
-15.0,-310.0,-117.0,-26.0,268.0,131.0,1
-11.0,-320.0,-124.0,-72.0,213.0,159.0,1
-26.0,-324.0,-136.0,-119.0,155.0,196.0,1
-32.0,-330.0,-144.0,-155.0,101.0,238.0,1
-41.0,-346.0,-141.0,-169.0,56.0,281.0,1
-43.0,-345.0,-143.0,-148.0,11.0,322.0,1
-49.0,-339.0,-145.0,-93.0,-38.0,351.0,1
-51.0,-330.0,-154.0,-38.0,-89.0,358.0,1
-46.0,-315.0,-165.0,-3.0,-127.0,355.0,1
-50.0,-301.0,-168.0,0.0,-137.0,344.0,1
-47.0,-288.0,-171.0,-15.0,-124.0,327.0,1
-45.0,-282.0,-170.0,-40.0,-99.0,303.0,1
-43.0,-276.0,-165.0,-63.0,-73.0,274.0,1
-32.0,-266.0,-167.0,-84.0,-54.0,238.0,1
-27.0,-265.0,-165.0,-111.0,-39.0,200.0,1
-21.0,-254.0,-178.0,-149.0,-17.0,167.0,1
-19.0,-253.0,-181.0,-188.0,14.0,140.0,1
-15.0,-244.0,-180.0,-220.0,55.0,123.0,1
-5.0,-225.0,-193.0,-238.0,88.0,114.0,1
3.0,-204.0,-194.0,-243.0,108.0,105.0,1
11.0,-181.0,-204.0,-249.0,124.0,98.0,1
9.0,-159.0,-200.0,-262.0,141.0,95.0,1
12.0,-148.0,-201.0,-285.0,156.0,93.0,1
11.0,-132.0,-190.0,-321.0,172.0,93.0,1
17.0,-122.0,-187.0,-373.0,184.0,95.0,1
10.0,-114.0,-188.0,-435.0,194.0,95.0,1
19.0,-113.0,-187.0,-497.0,196.0,97.0,1
22.0,-105.0,-189.0,-562.0,181.0,102.0,1
26.0,-106.0,-191.0,-634.0,149.0,105.0,1
35.0,-107.0,-191.0,-716.0,108.0,112.0,1
43.0,-114.0,-179.0,-792.0,70.0,121.0,1
50.0,-126.0,-176.0,-851.0,35.0,122.0,1
51.0,-135.0,-169.0,-898.0,8.0,115.0,1
48.0,-144.0,-167.0,-940.0,-16.0,102.0,1
42.0,-155.0,-164.0,-988.0,-37.0,80.0,1
39.0,-162.0,-170.0,-1042.0,-59.0,49.0,1
28.0,-177.0,-179.0,-1109.0,-82.0,11.0,1
22.0,-193.0,-182.0,-1178.0,-103.0,-33.0,1
15.0,-202.0,-188.0,-1246.0,-116.0,-84.0,1
4.0,-213.0,-194.0,-1306.0,-119.0,-141.0,1
-4.0,-218.0,-195.0,-1354.0,-105.0,-201.0,1
-9.0,-221.0,-197.0,-1388.0,-70.0,-257.0,1
0.0,-228.0,-190.0,-1406.0,-19.0,-314.0,1
0.0,-229.0,-177.0,-1407.0,40.0,-366.0,1
8.0,-236.0,-169.0,-1386.0,97.0,-405.0,1
10.0,-236.0,-150.0,-1348.0,146.0,-426.0,1
24.0,-229.0,-149.0,-1306.0,183.0,-439.0,1
28.0,-215.0,-146.0,-1272.0,213.0,-437.0,1
39.0,-210.0,-139.0,-1243.0,230.0,-430.0,1
47.0,-198.0,-142.0,-1226.0,234.0,-425.0,1
56.0,-191.0,-138.0,-1223.0,229.0,-416.0,1
61.0,-185.0,-140.0,-1222.0,224.0,-402.0,1
63.0,-177.0,-136.0,-1216.0,212.0,-386.0,1
65.0,-180.0,-135.0,-1203.0,204.0,-367.0,1
64.0,-174.0,-131.0,-1181.0,198.0,-344.0,1
65.0,-171.0,-129.0,-1159.0,197.0,-319.0,1
60.0,-167.0,-124.0,-1145.0,200.0,-289.0,1
55.0,-172.0,-123.0,-1138.0,207.0,-260.0,1
54.0,-185.0,-117.0,-1131.0,216.0,-236.0,1
52.0,-185.0,-112.0,-1127.0,226.0,-225.0,1
53.0,-189.0,-106.0,-1132.0,240.0,-226.0,1
51.0,-199.0,-104.0,-1145.0,253.0,-231.0,1
50.0,-216.0,-98.0,-1157.0,261.0,-253.0,1
43.0,-231.0,-95.0,-1172.0,258.0,-290.0,1
45.0,-248.0,-91.0,-1182.0,244.0,-332.0,1
31.0,-259.0,-87.0,-1186.0,222.0,-378.0,1
13.0,-272.0,-87.0,-1178.0,189.0,-419.0,1
-9.0,-276.0,-85.0,-1157.0,143.0,-436.0,1
-20.0,-278.0,-87.0,-1132.0,81.0,-433.0,1
-30.0,-276.0,-86.0,-1099.0,-3.0,-423.0,1
-32.0,-271.0,-86.0,-1044.0,-88.0,-389.0,1
-26.0,-273.0,-80.0,-951.0,-164.0,-337.0,1
-24.0,-259.0,-86.0,-823.0,-233.0,-282.0,1
-20.0,-258.0,-85.0,-682.0,-287.0,-227.0,1
-22.0,-248.0,-86.0,-537.0,-337.0,-196.0,1
-22.0,-230.0,-90.0,-392.0,-384.0,-184.0,1
-24.0,-217.0,-96.0,-256.0,-437.0,-195.0,1
-17.0,-207.0,-99.0,-136.0,-496.0,-224.0,1
-16.0,-196.0,-100.0,-48.0,-562.0,-255.0,1
-14.0,-192.0,-103.0,-1.0,-630.0,-280.0,1
-9.0,-176.0,-111.0,7.0,-696.0,-300.0,1
-4.0,-161.0,-115.0,-22.0,-756.0,-311.0,1
-5.0,-151.0,-115.0,-81.0,-810.0,-314.0,1
-10.0,-146.0,-119.0,-159.0,-854.0,-305.0,1
-13.0,-140.0,-120.0,-239.0,-883.0,-287.0,1
-19.0,-135.0,-123.0,-308.0,-905.0,-267.0,1
-20.0,-136.0,-126.0,-368.0,-922.0,-246.0,1
-23.0,-131.0,-130.0,-420.0,-935.0,-226.0,1
-24.0,-131.0,-138.0,-465.0,-946.0,-212.0,1
-31.0,-128.0,-146.0,-511.0,-959.0,-203.0,1
-24.0,-131.0,-153.0,-551.0,-977.0,-201.0,1
-25.0,-133.0,-167.0,-588.0,-998.0,-197.0,1
-21.0,-137.0,-179.0,-622.0,-1020.0,-200.0,1
-22.0,-143.0,-186.0,-651.0,-1040.0,-203.0,1
-16.0,-143.0,-190.0,-670.0,-1064.0,-208.0,1
-13.0,-144.0,-197.0,-676.0,-1086.0,-209.0,1
-8.0,-147.0,-205.0,-671.0,-1100.0,-209.0,1
1.0,-141.0,-222.0,-665.0,-1105.0,-205.0,1
4.0,-136.0,-226.0,-663.0,-1107.0,-192.0,1
11.0,-127.0,-234.0,-665.0,-1112.0,-173.0,1
15.0,-124.0,-245.0,-661.0,-1124.0,-152.0,1
33.0,-116.0,-246.0,-654.0,-1131.0,-125.0,1
46.0,-108.0,-248.0,-642.0,-1123.0,-98.0,1
58.0,-101.0,-246.0,-632.0,-1092.0,-66.0,1
63.0,-97.0,-240.0,-631.0,-1051.0,-33.0,1
64.0,-99.0,-237.0,-649.0,-1006.0,5.0,1
58.0,-98.0,-233.0,-694.0,-957.0,43.0,1
49.0,-105.0,-238.0,-757.0,-902.0,81.0,1
45.0,-116.0,-235.0,-822.0,-839.0,107.0,1
34.0,-132.0,-227.0,-875.0,-765.0,131.0,1
21.0,-153.0,-204.0,-913.0,-685.0,150.0,1
4.0,-172.0,-202.0,-923.0,-605.0,169.0,1
-2.0,-180.0,-193.0,-908.0,-523.0,187.0,1
-7.0,-187.0,-194.0,-883.0,-435.0,212.0,1
-24.0,-186.0,-195.0,-858.0,-350.0,234.0,1
-35.0,-179.0,-203.0,-845.0,-265.0,259.0,1
-46.0,-163.0,-215.0,-860.0,-170.0,276.0,1
-42.0,-139.0,-244.0,-913.0,-59.0,279.0,1
-29.0,-113.0,-265.0,-1000.0,60.0,275.0,1
-11.0,-83.0,-284.0,-1098.0,175.0,281.0,1
1.0,-46.0,-303.0,-1189.0,279.0,297.0,1
14.0,-32.0,-309.0,-1282.0,380.0,338.0,1
22.0,-18.0,-322.0,-1397.0,478.0,402.0,1
39.0,-19.0,-329.0,-1565.0,592.0,484.0,1
48.0,-29.0,-339.0,-1792.0,720.0,575.0,1
44.0,-52.0,-337.0,-2043.0,835.0,666.0,1
38.0,-63.0,-331.0,-2242.0,892.0,738.0,1
22.0,-75.0,-322.0,-2374.0,901.0,795.0,1
10.0,-91.0,-312.0,-2457.0,873.0,839.0,1
7.0,-101.0,-304.0,-2525.0,835.0,863.0,1
-5.0,-125.0,-279.0,-2583.0,814.0,875.0,1
-12.0,-136.0,-263.0,-2596.0,794.0,852.0,1
-9.0,-144.0,-245.0,-2572.0,795.0,815.0,1
-17.0,-145.0,-219.0,-2508.0,820.0,769.0,1
-15.0,-150.0,-191.0,-2417.0,867.0,722.0,1
-4.0,-158.0,-167.0,-2309.0,931.0,667.0,1
1.0,-157.0,-122.0,-2203.0,1010.0,611.0,1
-1.0,-163.0,-97.0,-2100.0,1091.0,562.0,1
0.0,-167.0,-64.0,-1985.0,1160.0,521.0,1
1.0,-161.0,-41.0,-1861.0,1213.0,487.0,1
4.0,-149.0,-23.0,-1729.0,1252.0,466.0,1
8.0,-129.0,-4.0,-1620.0,1277.0,452.0,1
17.0,-118.0,6.0,-1486.0,1290.0,438.0,1
21.0,-101.0,19.0,-1383.0,1284.0,422.0,1
22.0,-93.0,13.0,-1322.0,1260.0,401.0,1
21.0,-97.0,18.0,-1308.0,1219.0,381.0,1
10.0,-104.0,15.0,-1314.0,1172.0,364.0,1
3.0,-105.0,10.0,-1321.0,1102.0,345.0,1
-10.0,-111.0,-5.0,-1321.0,1030.0,325.0,1
-23.0,-110.0,-19.0,-1310.0,952.0,299.0,1
-46.0,-111.0,-41.0,-1290.0,876.0,262.0,1
-68.0,-112.0,-61.0,-1275.0,805.0,220.0,1
-91.0,-112.0,-68.0,-1264.0,745.0,191.0,1
-113.0,-114.0,-87.0,-1257.0,686.0,161.0,1
-120.0,-125.0,-92.0,-1260.0,625.0,146.0,1
-116.0,-134.0,-99.0,-1228.0,533.0,131.0,1
-94.0,-145.0,-107.0,-1152.0,421.0,114.0,1
-79.0,-153.0,-112.0,-1053.0,307.0,95.0,1
-64.0,-151.0,-121.0,-939.0,197.0,74.0,1
-42.0,-147.0,-124.0,-829.0,108.0,52.0,1
-26.0,-133.0,-124.0,-734.0,55.0,43.0,1
-8.0,-121.0,-135.0,-659.0,28.0,50.0,1
6.0,-103.0,-155.0,-612.0,11.0,65.0,1
12.0,-87.0,-170.0,-589.0,-11.0,75.0,1
14.0,-67.0,-187.0,-580.0,-42.0,65.0,1
10.0,-54.0,-188.0,-581.0,-67.0,53.0,1
0.0,-38.0,-179.0,-575.0,-101.0,17.0,1
5.0,-40.0,-178.0,-570.0,-138.0,-34.0,1
3.0,-44.0,-185.0,-569.0,-161.0,-81.0,1
-10.0,-55.0,-190.0,-558.0,-194.0,-150.0,1
-13.0,-42.0,-209.0,-527.0,-269.0,-236.0,1
-14.0,-31.0,-228.0,-524.0,-362.0,-323.0,1
-3.0,-18.0,-256.0,-559.0,-461.0,-384.0,1
0.0,-24.0,-271.0,-646.0,-544.0,-397.0,1
24.0,-25.0,-293.0,-757.0,-623.0,-391.0,1
16.0,-48.0,-308.0,-869.0,-668.0,-351.0,1
34.0,-75.0,-309.0,-954.0,-713.0,-320.0,1
37.0,-85.0,-324.0,-976.0,-736.0,-325.0,1
35.0,-91.0,-337.0,-959.0,-723.0,-309.0,1
27.0,-87.0,-357.0,-928.0,-710.0,-294.0,1
28.0,-79.0,-370.0,-900.0,-711.0,-264.0,1
28.0,-74.0,-377.0,-901.0,-728.0,-234.0,1
49.0,-62.0,-380.0,-916.0,-757.0,-217.0,1
62.0,-55.0,-384.0,-965.0,-764.0,-205.0,1
63.0,-38.0,-393.0,-1042.0,-737.0,-198.0,1
56.0,-25.0,-405.0,-1136.0,-673.0,-196.0,1
59.0,-29.0,-412.0,-1233.0,-575.0,-189.0,1
56.0,-33.0,-407.0,-1323.0,-466.0,-180.0,1
58.0,-35.0,-394.0,-1405.0,-365.0,-162.0,1
56.0,-43.0,-388.0,-1471.0,-281.0,-140.0,1
51.0,-50.0,-377.0,-1533.0,-224.0,-121.0,1
59.0,-45.0,-380.0,-1588.0,-196.0,-113.0,1
62.0,-49.0,-377.0,-1653.0,-169.0,-111.0,1
58.0,-49.0,-378.0,-1714.0,-142.0,-109.0,1
68.0,-45.0,-377.0,-1763.0,-108.0,-109.0,1
78.0,-72.0,-367.0,-1825.0,-9.0,-27.0,1
60.0,-60.0,-374.0,-1849.0,34.0,-19.0,1
70.0,-66.0,-359.0,-1875.0,72.0,-85.0,1
62.0,-74.0,-343.0,-1880.0,94.0,-101.0,1
46.0,-87.0,-336.0,-1872.0,82.0,-92.0,1
34.0,-104.0,-330.0,-1867.0,50.0,-74.0,1
6.0,-117.0,-327.0,-1877.0,19.0,-63.0,1
-15.0,-127.0,-323.0,-1884.0,-5.0,-72.0,1
-50.0,-124.0,-312.0,-1876.0,-29.0,-96.0,1
-73.0,-127.0,-299.0,-1857.0,-56.0,-136.0,1
-88.0,-124.0,-295.0,-1837.0,-81.0,-187.0,1
-94.0,-119.0,-276.0,-1814.0,-98.0,-237.0,1
-94.0,-117.0,-271.0,-1791.0,-102.0,-281.0,1
-72.0,-115.0,-258.0,-1773.0,-95.0,-326.0,1
-50.0,-116.0,-249.0,-1759.0,-84.0,-380.0,1
-29.0,-115.0,-241.0,-1741.0,-85.0,-432.0,1
-8.0,-115.0,-232.0,-1723.0,-113.0,-480.0,1
4.0,-113.0,-219.0,-1706.0,-167.0,-519.0,1
13.0,-109.0,-222.0,-1685.0,-229.0,-544.0,1
9.0,-97.0,-238.0,-1668.0,-284.0,-554.0,1
4.0,-94.0,-249.0,-1650.0,-316.0,-553.0,1
-8.0,-84.0,-257.0,-1617.0,-324.0,-550.0,1
-17.0,-73.0,-277.0,-1575.0,-323.0,-533.0,1
-38.0,-73.0,-276.0,-1536.0,-321.0,-510.0,1
-50.0,-81.0,-281.0,-1506.0,-328.0,-473.0,1
-58.0,-83.0,-277.0,-1472.0,-337.0,-430.0,1
-67.0,-71.0,-274.0,-1441.0,-353.0,-401.0,1
-67.0,-60.0,-258.0,-1428.0,-360.0,-382.0,1
-73.0,-55.0,-252.0,-1454.0,-395.0,-363.0,1
-74.0,-47.0,-263.0,-1516.0,-458.0,-319.0,1
-62.0,-42.0,-260.0,-1605.0,-491.0,-240.0,1
-80.0,-53.0,-256.0,-1649.0,-535.0,-133.0,1
-69.0,-45.0,-251.0,-1761.0,-639.0,-116.0,1
-63.0,-51.0,-217.0,-1868.0,-724.0,-94.0,1
-54.0,-60.0,-217.0,-1900.0,-802.0,-53.0,1
-36.0,-60.0,-225.0,-1857.0,-882.0,16.0,1
-33.0,-54.0,-227.0,-1779.0,-940.0,109.0,1
-16.0,-29.0,-213.0,-1735.0,-978.0,198.0,1
-9.0,-30.0,-174.0,-1744.0,-978.0,267.0,1
6.0,-29.0,-149.0,-1736.0,-930.0,357.0,1
13.0,-18.0,-131.0,-1725.0,-801.0,432.0,1
22.0,-13.0,-116.0,-1723.0,-621.0,492.0,1
24.0,10.0,-109.0,-1691.0,-424.0,545.0,1
22.0,36.0,-104.0,-1637.0,-240.0,577.0,1
21.0,46.0,-91.0,-1574.0,-73.0,610.0,1
25.0,52.0,-76.0,-1512.0,79.0,654.0,1
23.0,44.0,-53.0,-1473.0,230.0,695.0,1
27.0,51.0,-29.0,-1439.0,375.0,740.0,1
33.0,67.0,-27.0,-1395.0,522.0,793.0,1
36.0,81.0,-35.0,-1359.0,664.0,865.0,1
50.0,98.0,-51.0,-1323.0,796.0,964.0,1
59.0,103.0,-58.0,-1271.0,941.0,1067.0,1
78.0,109.0,-70.0,-1210.0,1097.0,1164.0,1
98.0,107.0,-94.0,-1139.0,1276.0,1273.0,1
107.0,105.0,-118.0,-1044.0,1475.0,1391.0,1
121.0,87.0,-128.0,-951.0,1684.0,1512.0,1
118.0,79.0,-116.0,-887.0,1859.0,1619.0,1
124.0,54.0,-103.0,-851.0,2000.0,1715.0,1
123.0,25.0,-97.0,-823.0,2118.0,1803.0,1
124.0,8.0,-97.0,-803.0,2229.0,1881.0,1
124.0,3.0,-98.0,-780.0,2328.0,1945.0,1
135.0,7.0,-90.0,-757.0,2420.0,1995.0,1
161.0,21.0,-84.0,-740.0,2538.0,2030.0,1
195.0,41.0,-68.0,-743.0,2704.0,2044.0,1
234.0,66.0,-60.0,-751.0,2919.0,2040.0,1
257.0,100.0,-83.0,-774.0,3168.0,2017.0,1
262.0,119.0,-105.0,-824.0,3435.0,1978.0,1
261.0,126.0,-119.0,-869.0,3687.0,1929.0,1
260.0,129.0,-133.0,-888.0,3872.0,1877.0,1
250.0,139.0,-143.0,-889.0,3956.0,1826.0,1
228.0,139.0,-120.0,-865.0,3946.0,1770.0,1
191.0,111.0,-64.0,-773.0,3870.0,1704.0,1
134.0,84.0,-31.0,-600.0,3738.0,1601.0,1
73.0,68.0,-35.0,-384.0,3629.0,1504.0,1
28.0,59.0,-63.0,-171.0,3597.0,1427.0,1
10.0,50.0,-84.0,26.0,3574.0,1339.0,1
-15.0,25.0,-81.0,176.0,3490.0,1219.0,1
-45.0,12.0,-57.0,328.0,3334.0,1082.0,1
-56.0,15.0,-37.0,527.0,3146.0,978.0,1
-57.0,23.0,-22.0,735.0,2969.0,901.0,1
-56.0,43.0,-43.0,927.0,2759.0,832.0,1
-67.0,55.0,-62.0,1033.0,2504.0,783.0,1
-62.0,79.0,-78.0,1087.0,2174.0,746.0,1
-69.0,94.0,-77.0,1119.0,1794.0,742.0,1
-52.0,122.0,-86.0,1162.0,1354.0,724.0,1
-31.0,133.0,-96.0,1213.0,903.0,743.0,1
-30.0,134.0,-99.0,1299.0,415.0,759.0,1
-29.0,141.0,-120.0,1440.0,-104.0,726.0,1
-18.0,141.0,-130.0,1590.0,-497.0,662.0,1
7.0,135.0,-129.0,1774.0,-889.0,619.0,1
-21.0,93.0,-127.0,1953.0,-1172.0,623.0,1
71.0,89.0,-158.0,2172.0,-1472.0,602.0,1
90.0,80.0,-149.0,2437.0,-1642.0,675.0,1
123.0,80.0,-174.0,2691.0,-1876.0,756.0,1
104.0,55.0,-222.0,2851.0,-2170.0,814.0,1
87.0,38.0,-296.0,2963.0,-2595.0,764.0,1
45.0,20.0,-365.0,3078.0,-2936.0,675.0,1
48.0,20.0,-389.0,3156.0,-3106.0,636.0,1
19.0,7.0,-387.0,3246.0,-3132.0,578.0,1
12.0,12.0,-388.0,3353.0,-3178.0,472.0,1
49.0,50.0,-374.0,3374.0,-3141.0,376.0,1
92.0,111.0,-350.0,3357.0,-2942.0,342.0,1
165.0,176.0,-399.0,3318.0,-2743.0,255.0,1
259.0,182.0,-440.0,3128.0,-2529.0,152.0,1
416.0,134.0,-450.0,2848.0,-2234.0,32.0,1
608.0,67.0,-487.0,2627.0,-1982.0,-53.0,1
609.0,94.0,-472.0,2646.0,-1737.0,-339.0,1
617.0,63.0,-495.0,2915.0,-1408.0,-654.0,1
674.0,174.0,-518.0,3129.0,-1100.0,-951.0,1
509.0,231.0,-636.0,3651.0,-1851.0,-1482.0,1
288.0,109.0,-479.0,3380.0,-1725.0,-1589.0,1
232.0,355.0,-97.0,2428.0,-1399.0,-1654.0,1
89.0,564.0,-453.0,3006.0,-1002.0,-1657.0,1
8.0,745.0,-692.0,3384.0,-1353.0,-1987.0,1
-169.0,852.0,-778.0,3008.0,-2142.0,-2448.0,1
-200.0,657.0,-641.0,1759.0,-2161.0,-2155.0,1
-118.0,643.0,-586.0,436.0,-1925.0,-1660.0,1
-44.0,512.0,-475.0,-322.0,-1739.0,-1500.0,1
-26.0,470.0,-445.0,-704.0,-1725.0,-1383.0,1
-65.0,410.0,-468.0,-641.0,-1719.0,-1300.0,1
-10.0,326.0,-480.0,-674.0,-1707.0,-1245.0,1
0.0,194.0,-564.0,-643.0,-1689.0,-1285.0,1
59.0,174.0,-627.0,-643.0,-1675.0,-1365.0,1
77.0,122.0,-626.0,-668.0,-1735.0,-1524.0,1
75.0,30.0,-535.0,-637.0,-1857.0,-1686.0,1
189.0,-1.0,-543.0,-648.0,-2068.0,-1751.0,1
70.0,73.0,-444.0,-467.0,-1891.0,-1510.0,1
-54.0,-24.0,-254.0,-465.0,-1866.0,-1389.0,1
3.0,-50.0,-273.0,-455.0,-2048.0,-1351.0,1
19.0,-136.0,-185.0,-408.0,-2227.0,-1275.0,1
90.0,-115.0,-321.0,-381.0,-2551.0,-1014.0,1
160.0,146.0,-425.0,-508.0,-2572.0,-661.0,1
128.0,178.0,-401.0,-869.0,-2568.0,-688.0,1
72.0,148.0,-291.0,-982.0,-2556.0,-559.0,1
188.0,33.0,-221.0,-927.0,-2468.0,-442.0,1
212.0,60.0,-215.0,-922.0,-2265.0,-363.0,1
214.0,146.0,-254.0,-1009.0,-2085.0,-391.0,1
207.0,233.0,-318.0,-1116.0,-1949.0,-450.0,1
141.0,298.0,-370.0,-1205.0,-1828.0,-519.0,1
118.0,287.0,-377.0,-1221.0,-1647.0,-578.0,1
122.0,195.0,-386.0,-1241.0,-1373.0,-693.0,1
124.0,183.0,-380.0,-1304.0,-1058.0,-877.0,1
83.0,123.0,-329.0,-1353.0,-672.0,-894.0,1
8.0,159.0,-341.0,-1144.0,-291.0,-795.0,1
-6.0,125.0,-289.0,-836.0,6.0,-632.0,1
-26.0,158.0,-365.0,-716.0,182.0,-590.0,1
-13.0,107.0,-330.0,-846.0,73.0,-515.0,1
-25.0,92.0,-252.0,-1080.0,182.0,-426.0,1
-24.0,114.0,-243.0,-1165.0,265.0,-336.0,1
-57.0,109.0,-220.0,-1062.0,433.0,-224.0,1
-57.0,90.0,-208.0,-875.0,566.0,-187.0,1
-46.0,66.0,-188.0,-811.0,653.0,-174.0,1
-75.0,93.0,-209.0,-763.0,761.0,-139.0,1
-84.0,123.0,-232.0,-628.0,870.0,-103.0,1
-91.0,141.0,-224.0,-510.0,928.0,-83.0,1
-102.0,150.0,-217.0,-404.0,925.0,-80.0,1
-114.0,169.0,-208.0,-309.0,878.0,-92.0,1
-130.0,183.0,-188.0,-258.0,835.0,-103.0,1
-137.0,179.0,-160.0,-284.0,775.0,-94.0,1
-160.0,195.0,-157.0,-382.0,681.0,-75.0,1
-171.0,207.0,-158.0,-412.0,653.0,-37.0,1
-187.0,211.0,-167.0,-301.0,628.0,3.0,1
-195.0,186.0,-159.0,-184.0,616.0,55.0,1
-201.0,156.0,-151.0,-109.0,566.0,83.0,1
-190.0,132.0,-157.0,-39.0,484.0,92.0,1
-175.0,112.0,-157.0,27.0,383.0,98.0,1
-156.0,97.0,-155.0,93.0,266.0,112.0,1
-141.0,81.0,-161.0,165.0,127.0,123.0,1
-127.0,75.0,-172.0,218.0,-5.0,131.0,1
-114.0,74.0,-175.0,255.0,-114.0,139.0,1
-107.0,80.0,-181.0,291.0,-202.0,142.0,1
-90.0,83.0,-176.0,324.0,-265.0,137.0,1
-88.0,84.0,-177.0,344.0,-301.0,136.0,1
-75.0,71.0,-180.0,336.0,-314.0,134.0,1
-52.0,78.0,-194.0,365.0,-338.0,137.0,1
-37.0,82.0,-200.0,399.0,-354.0,137.0,1
-27.0,92.0,-204.0,434.0,-368.0,139.0,1
-12.0,97.0,-200.0,451.0,-382.0,131.0,1
-11.0,93.0,-193.0,472.0,-397.0,125.0,1
-6.0,91.0,-199.0,503.0,-417.0,126.0,1
-4.0,89.0,-199.0,528.0,-434.0,131.0,1
-1.0,86.0,-197.0,551.0,-451.0,142.0,1
-1.0,90.0,-202.0,570.0,-455.0,151.0,1
-6.0,83.0,-201.0,581.0,-455.0,167.0,1
-13.0,84.0,-203.0,617.0,-454.0,180.0,1
-16.0,82.0,-202.0,642.0,-440.0,191.0,1
-21.0,77.0,-206.0,669.0,-422.0,193.0,1
-21.0,72.0,-205.0,701.0,-407.0,195.0,1
-21.0,68.0,-207.0,730.0,-401.0,199.0,1
-16.0,68.0,-210.0,760.0,-401.0,204.0,1
-8.0,72.0,-221.0,785.0,-403.0,215.0,1
-3.0,73.0,-222.0,781.0,-397.0,233.0,1
0.0,69.0,-225.0,771.0,-388.0,255.0,1
3.0,77.0,-230.0,778.0,-389.0,276.0,1
6.0,78.0,-228.0,780.0,-393.0,291.0,1
7.0,79.0,-232.0,784.0,-401.0,295.0,1
6.0,80.0,-235.0,797.0,-403.0,301.0,1
6.0,77.0,-238.0,800.0,-389.0,312.0,1
11.0,80.0,-250.0,803.0,-365.0,328.0,1
3.0,68.0,-240.0,776.0,-325.0,345.0,1
1.0,68.0,-251.0,819.0,-295.0,360.0,1
1.0,68.0,-257.0,878.0,-253.0,381.0,1
10.0,81.0,-268.0,908.0,-201.0,423.0,1
24.0,64.0,-261.0,925.0,-140.0,473.0,1
32.0,60.0,-256.0,901.0,-94.0,464.0,1
28.0,56.0,-249.0,895.0,-45.0,476.0,1
47.0,51.0,-245.0,923.0,-39.0,456.0,1
51.0,45.0,-235.0,950.0,-19.0,440.0,1
41.0,60.0,-233.0,973.0,5.0,425.0,1
58.0,56.0,-232.0,978.0,44.0,410.0,1
48.0,57.0,-234.0,971.0,81.0,394.0,1
35.0,63.0,-235.0,958.0,121.0,378.0,1
30.0,67.0,-234.0,933.0,159.0,371.0,1
14.0,70.0,-236.0,884.0,196.0,374.0,1
11.0,68.0,-239.0,817.0,228.0,379.0,1
-8.0,64.0,-237.0,800.0,226.0,382.0,1
-13.0,66.0,-247.0,781.0,211.0,371.0,1
-18.0,66.0,-246.0,743.0,207.0,376.0,1
-15.0,56.0,-246.0,705.0,201.0,381.0,1
-11.0,53.0,-244.0,681.0,193.0,391.0,1
-6.0,49.0,-249.0,658.0,190.0,409.0,1
-5.0,38.0,-242.0,606.0,199.0,423.0,1
-1.0,27.0,-248.0,600.0,178.0,441.0,1
8.0,27.0,-240.0,624.0,160.0,440.0,1
8.0,27.0,-243.0,636.0,154.0,446.0,1
6.0,20.0,-238.0,632.0,152.0,454.0,1
9.0,22.0,-246.0,621.0,152.0,458.0,1
15.0,22.0,-248.0,601.0,155.0,454.0,1
16.0,20.0,-243.0,569.0,170.0,445.0,1
17.0,24.0,-234.0,534.0,189.0,430.0,1
8.0,36.0,-238.0,494.0,215.0,412.0,1
3.0,39.0,-238.0,442.0,231.0,393.0,1
-1.0,37.0,-235.0,379.0,234.0,377.0,1
-1.0,39.0,-228.0,314.0,236.0,366.0,1
3.0,38.0,-241.0,264.0,246.0,358.0,1
3.0,42.0,-250.0,235.0,259.0,353.0,1
1.0,38.0,-253.0,220.0,265.0,341.0,1
5.0,40.0,-258.0,209.0,274.0,323.0,1
3.0,44.0,-260.0,217.0,277.0,309.0,1
3.0,43.0,-263.0,225.0,281.0,293.0,1
1.0,36.0,-265.0,221.0,296.0,283.0,1
2.0,32.0,-264.0,197.0,320.0,274.0,1
9.0,25.0,-259.0,172.0,345.0,267.0,1
5.0,18.0,-256.0,151.0,361.0,259.0,1
1.0,18.0,-257.0,134.0,366.0,240.0,1
1.0,10.0,-254.0,100.0,355.0,213.0,1
-7.0,4.0,-247.0,51.0,336.0,190.0,1
-3.0,-4.0,-244.0,6.0,325.0,165.0,1
-13.0,-3.0,-242.0,8.0,308.0,143.0,1
-9.0,-4.0,-241.0,11.0,273.0,115.0,1
-18.0,-2.0,-244.0,24.0,236.0,89.0,1
-9.0,-3.0,-241.0,30.0,203.0,66.0,1
-4.0,-5.0,-241.0,41.0,178.0,48.0,1
0.0,-2.0,-240.0,47.0,166.0,34.0,1
-3.0,0.0,-236.0,63.0,160.0,22.0,1
-3.0,9.0,-234.0,72.0,150.0,11.0,1
-2.0,14.0,-230.0,73.0,131.0,2.0,1
2.0,5.0,-231.0,71.0,127.0,3.0,1
6.0,23.0,-240.0,41.0,148.0,24.0,1
1.0,11.0,-244.0,-11.0,120.0,7.0,1
1.0,10.0,-254.0,-5.0,96.0,-1.0,1
4.0,11.0,-261.0,3.0,75.0,-5.0,1
3.0,10.0,-263.0,1.0,65.0,-7.0,1
6.0,9.0,-265.0,-8.0,58.0,-8.0,1
5.0,12.0,-267.0,-16.0,53.0,-9.0,1
18.0,12.0,-282.0,-27.0,51.0,-11.0,1
6.0,20.0,-271.0,-34.0,90.0,-13.0,1
11.0,13.0,-269.0,-20.0,112.0,-12.0,1
7.0,14.0,-258.0,-15.0,130.0,-15.0,1
6.0,19.0,-262.0,-19.0,141.0,-15.0,1
2.0,15.0,-258.0,-25.0,133.0,-18.0,1
2.0,20.0,-256.0,-30.0,126.0,-17.0,1
4.0,18.0,-254.0,-38.0,121.0,-17.0,1
3.0,16.0,-251.0,-40.0,123.0,-17.0,1
-1.0,18.0,-241.0,-48.0,127.0,-12.0,1
17.0,10.0,-255.0,-46.0,136.0,-15.0,1
14.0,16.0,-256.0,-36.0,163.0,-24.0,1
9.0,14.0,-253.0,-27.0,177.0,-32.0,1
8.0,17.0,-251.0,-24.0,179.0,-38.0,1
12.0,9.0,-252.0,-14.0,182.0,-53.0,1
9.0,8.0,-252.0,2.0,179.0,-72.0,1
8.0,15.0,-259.0,16.0,174.0,-95.0,1
10.0,23.0,-260.0,16.0,169.0,-111.0,1
12.0,21.0,-254.0,11.0,167.0,-124.0,1
16.0,19.0,-257.0,15.0,164.0,-135.0,1
9.0,23.0,-257.0,17.0,158.0,-145.0,1
10.0,16.0,-255.0,27.0,152.0,-153.0,1
8.0,17.0,-252.0,36.0,148.0,-163.0,1
4.0,23.0,-254.0,38.0,145.0,-171.0,1
6.0,17.0,-253.0,38.0,144.0,-176.0,1
11.0,17.0,-250.0,44.0,144.0,-176.0,1
12.0,19.0,-242.0,53.0,141.0,-175.0,1
11.0,19.0,-244.0,67.0,140.0,-171.0,1
14.0,20.0,-239.0,79.0,140.0,-168.0,1
16.0,18.0,-238.0,93.0,140.0,-165.0,1
23.0,18.0,-231.0,109.0,144.0,-162.0,1
-4.0,27.0,-242.0,120.0,164.0,-163.0,1
1.0,29.0,-243.0,108.0,141.0,-158.0,1
6.0,32.0,-244.0,104.0,127.0,-146.0,1
9.0,26.0,-244.0,105.0,120.0,-134.0,1
12.0,33.0,-246.0,108.0,118.0,-125.0,1
9.0,41.0,-247.0,111.0,120.0,-120.0,1
14.0,32.0,-248.0,121.0,120.0,-118.0,1
10.0,27.0,-248.0,134.0,121.0,-112.0,1
7.0,27.0,-247.0,146.0,119.0,-109.0,1
11.0,31.0,-246.0,157.0,114.0,-105.0,1
12.0,29.0,-247.0,166.0,110.0,-105.0,1
18.0,26.0,-242.0,173.0,105.0,-102.0,1
12.0,32.0,-242.0,179.0,100.0,-98.0,1
14.0,28.0,-239.0,181.0,96.0,-91.0,1
14.0,25.0,-241.0,181.0,93.0,-81.0,1
15.0,24.0,-235.0,182.0,90.0,-76.0,1
13.0,25.0,-237.0,180.0,81.0,-67.0,1
16.0,17.0,-239.0,181.0,68.0,-58.0,1
15.0,21.0,-235.0,182.0,59.0,-51.0,1
16.0,18.0,-234.0,181.0,49.0,-40.0,1
15.0,14.0,-235.0,177.0,39.0,-30.0,1
8.0,9.0,-236.0,177.0,25.0,-23.0,1
29.0,37.0,-243.0,187.0,3.0,-21.0,1
18.0,18.0,-253.0,191.0,4.0,-22.0,1
17.0,24.0,-257.0,190.0,12.0,-23.0,1
18.0,17.0,-260.0,190.0,16.0,-23.0,1
19.0,13.0,-266.0,186.0,23.0,-25.0,1
14.0,24.0,-264.0,182.0,30.0,-26.0,1
23.0,23.0,-261.0,177.0,35.0,-23.0,1
16.0,20.0,-258.0,176.0,52.0,-23.0,1
16.0,17.0,-256.0,177.0,52.0,-21.0,1
7.0,15.0,-252.0,171.0,48.0,-21.0,1
22.0,21.0,-261.0,161.0,32.0,-21.0,1
21.0,19.0,-260.0,163.0,52.0,-19.0,1
13.0,15.0,-256.0,171.0,67.0,-17.0,1
16.0,17.0,-250.0,176.0,65.0,-16.0,1
19.0,16.0,-252.0,177.0,67.0,-15.0,1
16.0,10.0,-247.0,174.0,62.0,-14.0,1
18.0,15.0,-252.0,173.0,60.0,-14.0,1
18.0,16.0,-253.0,179.0,50.0,-14.0,1
15.0,17.0,-252.0,180.0,48.0,-14.0,1
13.0,15.0,-252.0,180.0,52.0,-13.0,1
14.0,11.0,-247.0,179.0,56.0,-13.0,1
13.0,16.0,-254.0,177.0,55.0,-16.0,1
18.0,14.0,-255.0,172.0,60.0,-14.0,1
13.0,17.0,-257.0,167.0,71.0,-15.0,1
14.0,13.0,-254.0,162.0,82.0,-15.0,1
13.0,11.0,-254.0,158.0,90.0,-16.0,1
14.0,12.0,-254.0,155.0,94.0,-15.0,1
17.0,13.0,-254.0,153.0,97.0,-15.0,1
15.0,9.0,-251.0,152.0,96.0,-17.0,1
19.0,12.0,-250.0,151.0,94.0,-13.0,1
21.0,8.0,-253.0,152.0,92.0,-14.0,1
16.0,11.0,-251.0,154.0,85.0,-14.0,1
17.0,8.0,-250.0,152.0,76.0,-16.0,1
13.0,14.0,-252.0,148.0,67.0,-15.0,1
20.0,10.0,-248.0,143.0,59.0,-17.0,1
20.0,8.0,-250.0,142.0,54.0,-18.0,1
20.0,3.0,-255.0,140.0,50.0,-17.0,1
17.0,9.0,-251.0,139.0,48.0,-16.0,1
18.0,11.0,-252.0,136.0,48.0,-16.0,1
20.0,11.0,-246.0,134.0,51.0,-18.0,1
18.0,7.0,-249.0,133.0,54.0,-18.0,1
15.0,12.0,-254.0,131.0,54.0,-17.0,1
18.0,9.0,-252.0,129.0,56.0,-17.0,1
17.0,12.0,-254.0,130.0,57.0,-14.0,1
17.0,10.0,-255.0,128.0,57.0,-16.0,1
16.0,12.0,-254.0,123.0,58.0,-16.0,1
16.0,11.0,-251.0,118.0,60.0,-14.0,1
15.0,10.0,-252.0,112.0,62.0,-15.0,1
14.0,11.0,-254.0,109.0,66.0,-16.0,1
17.0,10.0,-254.0,104.0,64.0,-16.0,1
18.0,8.0,-251.0,102.0,63.0,-14.0,1
17.0,9.0,-255.0,98.0,60.0,-15.0,1
21.0,9.0,-254.0,97.0,57.0,-14.0,1
18.0,8.0,-254.0,98.0,54.0,-13.0,1
15.0,8.0,-256.0,100.0,50.0,-13.0,1
17.0,9.0,-259.0,99.0,40.0,-12.0,1
23.0,11.0,-256.0,93.0,35.0,-15.0,1
23.0,5.0,-257.0,89.0,25.0,-16.0,1
21.0,5.0,-255.0,91.0,25.0,-14.0,1
21.0,7.0,-252.0,88.0,22.0,-14.0,1
21.0,10.0,-255.0,83.0,19.0,-17.0,1
20.0,8.0,-252.0,78.0,18.0,-14.0,1
19.0,7.0,-255.0,75.0,19.0,-14.0,1
18.0,8.0,-256.0,75.0,21.0,-14.0,1
23.0,9.0,-254.0,76.0,24.0,-14.0,1
19.0,5.0,-252.0,78.0,28.0,-14.0,1
34.0,5.0,-252.0,76.0,31.0,-13.0,1
13.0,9.0,-252.0,70.0,43.0,-14.0,1
15.0,11.0,-257.0,68.0,35.0,-17.0,1
17.0,7.0,-256.0,69.0,31.0,-17.0,1
22.0,9.0,-254.0,66.0,26.0,-16.0,1
20.0,9.0,-257.0,56.0,22.0,-15.0,1
21.0,9.0,-256.0,45.0,22.0,-14.0,1
18.0,8.0,-257.0,39.0,22.0,-16.0,1
19.0,10.0,-255.0,38.0,18.0,-16.0,1
20.0,7.0,-252.0,37.0,15.0,-18.0,1
21.0,6.0,-254.0,35.0,12.0,-18.0,1
23.0,6.0,-252.0,34.0,11.0,-18.0,1
21.0,9.0,-253.0,34.0,11.0,-19.0,1
15.0,11.0,-251.0,33.0,10.0,-18.0,1
20.0,6.0,-254.0,34.0,9.0,-19.0,1
19.0,9.0,-250.0,33.0,7.0,-19.0,1
21.0,8.0,-254.0,33.0,7.0,-18.0,1
21.0,8.0,-253.0,32.0,5.0,-18.0,1
22.0,9.0,-250.0,32.0,2.0,-19.0,1
21.0,9.0,-251.0,31.0,0.0,-17.0,1
21.0,10.0,-249.0,29.0,-3.0,-18.0,1
16.0,11.0,-248.0,29.0,-6.0,-18.0,1
17.0,11.0,-252.0,29.0,-7.0,-18.0,1
20.0,11.0,-250.0,30.0,-6.0,-17.0,1
15.0,12.0,-254.0,29.0,-7.0,-17.0,1
16.0,13.0,-250.0,28.0,-5.0,-16.0,1
20.0,10.0,-250.0,29.0,-5.0,-17.0,1
21.0,11.0,-247.0,29.0,-4.0,-16.0,1
19.0,9.0,-250.0,32.0,-3.0,-16.0,1
18.0,10.0,-251.0,33.0,-3.0,-15.0,1
18.0,11.0,-249.0,35.0,-2.0,-15.0,1
14.0,10.0,-247.0,37.0,-1.0,-14.0,1
19.0,7.0,-246.0,40.0,-2.0,-15.0,1
20.0,8.0,-243.0,42.0,-5.0,-14.0,1
19.0,7.0,-245.0,44.0,-7.0,-14.0,1
17.0,10.0,-245.0,46.0,-8.0,-14.0,1
18.0,10.0,-246.0,46.0,-10.0,-15.0,1
19.0,9.0,-243.0,47.0,-9.0,-15.0,1
20.0,10.0,-245.0,47.0,-8.0,-15.0,1
20.0,10.0,-248.0,49.0,-6.0,-14.0,1
19.0,10.0,-250.0,49.0,-5.0,-16.0,1
21.0,15.0,-248.0,49.0,-5.0,-14.0,1
19.0,10.0,-253.0,50.0,-4.0,-14.0,1
23.0,7.0,-248.0,51.0,-3.0,-15.0,1
19.0,5.0,-251.0,51.0,-3.0,-15.0,1
12.0,9.0,-248.0,53.0,-2.0,-14.0,1
16.0,10.0,-248.0,54.0,-1.0,-14.0,1
16.0,10.0,-252.0,55.0,-2.0,-15.0,1
20.0,9.0,-251.0,59.0,-1.0,-14.0,1
15.0,10.0,-250.0,59.0,-1.0,-14.0,1
15.0,9.0,-249.0,61.0,-3.0,-14.0,1
15.0,7.0,-249.0,62.0,-1.0,-13.0,1
18.0,9.0,-251.0,62.0,-1.0,-13.0,1
17.0,12.0,-249.0,61.0,1.0,-14.0,1
15.0,8.0,-250.0,64.0,2.0,-15.0,1
22.0,8.0,-247.0,64.0,2.0,-17.0,1
18.0,4.0,-245.0,65.0,3.0,-16.0,1
15.0,12.0,-248.0,66.0,4.0,-15.0,1
17.0,10.0,-251.0,65.0,5.0,-14.0,1
19.0,7.0,-252.0,65.0,6.0,-14.0,1
18.0,7.0,-249.0,67.0,7.0,-13.0,1
18.0,5.0,-250.0,67.0,7.0,-13.0,1
18.0,9.0,-251.0,68.0,8.0,-14.0,1
20.0,9.0,-251.0,69.0,6.0,-14.0,1
18.0,7.0,-248.0,69.0,7.0,-12.0,1
15.0,10.0,-244.0,68.0,7.0,-13.0,1
14.0,7.0,-247.0,68.0,8.0,-14.0,1
18.0,11.0,-248.0,67.0,9.0,-14.0,1
21.0,8.0,-247.0,65.0,11.0,-16.0,1
18.0,8.0,-250.0,65.0,10.0,-13.0,1
17.0,7.0,-253.0,65.0,10.0,-13.0,1
16.0,10.0,-250.0,64.0,11.0,-14.0,1
18.0,8.0,-254.0,65.0,9.0,-13.0,1
19.0,9.0,-252.0,65.0,10.0,-14.0,1
19.0,9.0,-250.0,65.0,10.0,-12.0,1
21.0,5.0,-250.0,65.0,10.0,-13.0,1
17.0,8.0,-251.0,67.0,10.0,-13.0,1
24.0,8.0,-254.0,69.0,10.0,-12.0,1
19.0,8.0,-249.0,68.0,12.0,-12.0,1
20.0,9.0,-251.0,66.0,12.0,-13.0,1
19.0,8.0,-251.0,64.0,13.0,-12.0,1
20.0,11.0,-251.0,63.0,13.0,-13.0,1
23.0,6.0,-249.0,62.0,15.0,-12.0,1
20.0,11.0,-253.0,62.0,16.0,-11.0,1
17.0,10.0,-248.0,63.0,15.0,-11.0,1
18.0,5.0,-251.0,63.0,16.0,-13.0,1
20.0,7.0,-248.0,63.0,16.0,-10.0,1
16.0,7.0,-247.0,64.0,17.0,-10.0,1
14.0,5.0,-251.0,63.0,18.0,-13.0,1
14.0,10.0,-250.0,64.0,16.0,-13.0,1
16.0,12.0,-254.0,64.0,17.0,-12.0,1
18.0,7.0,-249.0,64.0,17.0,-12.0,1
19.0,9.0,-251.0,63.0,16.0,-11.0,1
19.0,7.0,-250.0,62.0,16.0,-14.0,1
18.0,11.0,-249.0,62.0,16.0,-12.0,1
17.0,9.0,-248.0,63.0,18.0,-12.0,1
19.0,7.0,-247.0,65.0,17.0,-11.0,1
17.0,11.0,-252.0,65.0,16.0,-12.0,1
17.0,7.0,-248.0,65.0,16.0,-11.0,1
21.0,5.0,-247.0,65.0,17.0,-12.0,1
18.0,12.0,-252.0,67.0,17.0,-12.0,1
19.0,7.0,-245.0,66.0,13.0,-13.0,1
19.0,8.0,-251.0,68.0,12.0,-12.0,1
18.0,9.0,-251.0,69.0,10.0,-11.0,1
17.0,8.0,-249.0,70.0,10.0,-11.0,1
15.0,8.0,-250.0,69.0,10.0,-11.0,1
18.0,8.0,-249.0,69.0,10.0,-13.0,1
19.0,9.0,-253.0,69.0,10.0,-12.0,1
16.0,9.0,-253.0,68.0,11.0,-12.0,1
13.0,12.0,-248.0,67.0,11.0,-12.0,1
21.0,9.0,-252.0,65.0,9.0,-13.0,1
20.0,4.0,-251.0,64.0,9.0,-12.0,1
20.0,7.0,-252.0,63.0,8.0,-12.0,1
19.0,8.0,-251.0,62.0,8.0,-13.0,1
18.0,8.0,-248.0,59.0,8.0,-12.0,1
18.0,9.0,-249.0,58.0,7.0,-11.0,1
21.0,7.0,-249.0,54.0,7.0,-11.0,1
17.0,5.0,-252.0,52.0,6.0,-12.0,1
18.0,10.0,-249.0,51.0,6.0,-11.0,1
19.0,9.0,-249.0,51.0,5.0,-12.0,1
19.0,11.0,-255.0,51.0,5.0,-11.0,1
18.0,6.0,-249.0,51.0,6.0,-11.0,1
20.0,7.0,-252.0,52.0,7.0,-12.0,1
17.0,8.0,-251.0,52.0,9.0,-13.0,1
18.0,7.0,-251.0,52.0,9.0,-12.0,1
19.0,8.0,-250.0,51.0,11.0,-11.0,1
17.0,8.0,-250.0,50.0,11.0,-10.0,1
17.0,4.0,-247.0,48.0,11.0,-11.0,1
18.0,8.0,-245.0,47.0,9.0,-11.0,1
19.0,7.0,-248.0,47.0,9.0,-12.0,1
22.0,10.0,-249.0,47.0,7.0,-13.0,1
20.0,8.0,-248.0,47.0,6.0,-13.0,1
18.0,6.0,-250.0,48.0,8.0,-13.0,1
16.0,8.0,-252.0,48.0,10.0,-12.0,1
16.0,8.0,-246.0,50.0,12.0,-12.0,1
17.0,6.0,-246.0,52.0,11.0,-10.0,1
19.0,9.0,-248.0,53.0,13.0,-11.0,1
18.0,2.0,-248.0,57.0,16.0,-11.0,1
20.0,6.0,-249.0,57.0,16.0,-11.0,1
17.0,9.0,-247.0,58.0,16.0,-11.0,1
20.0,8.0,-250.0,57.0,16.0,-9.0,1
19.0,5.0,-237.0,56.0,16.0,-8.0,1
17.0,4.0,-248.0,57.0,15.0,-11.0,1
19.0,9.0,-247.0,57.0,14.0,-10.0,1
19.0,6.0,-249.0,59.0,14.0,-12.0,1
18.0,10.0,-246.0,59.0,13.0,-11.0,1
18.0,8.0,-251.0,59.0,13.0,-10.0,1
19.0,10.0,-249.0,59.0,12.0,-10.0,1
18.0,6.0,-249.0,60.0,12.0,-10.0,1
19.0,6.0,-251.0,60.0,13.0,-11.0,1
17.0,8.0,-248.0,60.0,13.0,-9.0,1
18.0,8.0,-250.0,60.0,13.0,-11.0,1
14.0,4.0,-248.0,59.0,14.0,-11.0,1
19.0,7.0,-251.0,61.0,15.0,-10.0,1
20.0,7.0,-251.0,61.0,16.0,-10.0,1
17.0,7.0,-251.0,60.0,17.0,-8.0,1
17.0,8.0,-248.0,60.0,17.0,-9.0,1
18.0,8.0,-246.0,59.0,17.0,-10.0,1
17.0,9.0,-250.0,60.0,17.0,-11.0,1
18.0,8.0,-249.0,59.0,17.0,-10.0,1
17.0,7.0,-250.0,58.0,16.0,-11.0,1
21.0,4.0,-249.0,58.0,16.0,-10.0,1
18.0,2.0,-251.0,59.0,15.0,-11.0,1
20.0,7.0,-255.0,56.0,16.0,-10.0,1
20.0,7.0,-252.0,56.0,16.0,-11.0,1
20.0,6.0,-252.0,55.0,14.0,-12.0,1
16.0,10.0,-253.0,54.0,15.0,-11.0,1
18.0,9.0,-249.0,55.0,14.0,-10.0,1
20.0,8.0,-252.0,54.0,16.0,-10.0,1
20.0,3.0,-249.0,55.0,17.0,-10.0,1
17.0,6.0,-252.0,55.0,17.0,-9.0,1
19.0,8.0,-251.0,52.0,17.0,-10.0,1
17.0,9.0,-250.0,51.0,16.0,-12.0,1
15.0,9.0,-248.0,50.0,15.0,-11.0,1
17.0,9.0,-248.0,50.0,14.0,-12.0,1
21.0,7.0,-251.0,51.0,14.0,-12.0,1
17.0,5.0,-251.0,52.0,13.0,-11.0,1
19.0,7.0,-252.0,52.0,12.0,-11.0,1
20.0,6.0,-252.0,51.0,13.0,-8.0,1
17.0,9.0,-253.0,50.0,12.0,-11.0,1
18.0,8.0,-252.0,49.0,12.0,-11.0,1
14.0,9.0,-253.0,48.0,14.0,-10.0,1
16.0,7.0,-246.0,47.0,14.0,-12.0,1
18.0,7.0,-247.0,47.0,15.0,-12.0,1
28.0,5.0,-253.0,48.0,16.0,-12.0,1
21.0,4.0,-252.0,47.0,16.0,-11.0,1
22.0,5.0,-247.0,49.0,18.0,-13.0,1
16.0,5.0,-247.0,50.0,18.0,-13.0,1
20.0,6.0,-246.0,50.0,20.0,-11.0,1
22.0,9.0,-249.0,51.0,20.0,-11.0,1
18.0,8.0,-250.0,50.0,22.0,-11.0,1
22.0,6.0,-247.0,51.0,24.0,-11.0,1
19.0,8.0,-249.0,53.0,24.0,-11.0,1
18.0,10.0,-250.0,53.0,23.0,-10.0,1
15.0,5.0,-249.0,53.0,23.0,-10.0,1
19.0,9.0,-249.0,53.0,23.0,-12.0,1
20.0,10.0,-251.0,54.0,22.0,-11.0,1
18.0,9.0,-251.0,55.0,20.0,-11.0,1
20.0,8.0,-255.0,56.0,19.0,-12.0,1
20.0,9.0,-251.0,54.0,17.0,-11.0,1
20.0,8.0,-248.0,50.0,16.0,-12.0,1
20.0,5.0,-251.0,49.0,17.0,-11.0,1
19.0,9.0,-255.0,47.0,16.0,-13.0,1
19.0,6.0,-249.0,46.0,16.0,-12.0,1
21.0,7.0,-248.0,44.0,19.0,-12.0,1
21.0,4.0,-251.0,44.0,21.0,-11.0,1
20.0,6.0,-253.0,43.0,23.0,-13.0,1
21.0,9.0,-248.0,42.0,25.0,-11.0,1
19.0,7.0,-248.0,41.0,25.0,-11.0,1
16.0,10.0,-250.0,39.0,25.0,-10.0,1
19.0,8.0,-254.0,36.0,27.0,-10.0,1
19.0,9.0,-253.0,33.0,32.0,-10.0,1
21.0,8.0,-255.0,31.0,37.0,-9.0,1
23.0,10.0,-257.0,29.0,44.0,-7.0,1
24.0,10.0,-259.0,28.0,51.0,-6.0,1
23.0,11.0,-262.0,31.0,57.0,-6.0,1
22.0,7.0,-268.0,33.0,61.0,-7.0,1
21.0,15.0,-264.0,31.0,64.0,-6.0,1
23.0,13.0,-267.0,27.0,66.0,-7.0,1
25.0,10.0,-265.0,21.0,65.0,-6.0,1
24.0,7.0,-262.0,16.0,64.0,-8.0,1
23.0,8.0,-263.0,10.0,63.0,-10.0,1
21.0,5.0,-261.0,3.0,63.0,-11.0,1
20.0,5.0,-260.0,-5.0,65.0,-10.0,1
19.0,9.0,-259.0,-11.0,69.0,-11.0,1
18.0,12.0,-260.0,-16.0,75.0,-11.0,1
18.0,10.0,-260.0,-19.0,82.0,-11.0,1
15.0,10.0,-257.0,-22.0,87.0,-9.0,1
19.0,7.0,-257.0,-29.0,96.0,-8.0,1
18.0,6.0,-259.0,-39.0,106.0,-7.0,1
20.0,9.0,-263.0,-45.0,116.0,-5.0,1
21.0,14.0,-260.0,-52.0,126.0,-5.0,1
21.0,13.0,-265.0,-58.0,133.0,-4.0,1
22.0,11.0,-264.0,-59.0,144.0,-3.0,1
21.0,8.0,-259.0,-60.0,155.0,-3.0,1
22.0,8.0,-256.0,-61.0,159.0,-3.0,1
21.0,11.0,-254.0,-63.0,163.0,-4.0,1
15.0,13.0,-252.0,-64.0,165.0,-3.0,1
21.0,9.0,-254.0,-65.0,168.0,-3.0,1
19.0,9.0,-253.0,-67.0,173.0,-2.0,1
17.0,10.0,-253.0,-69.0,179.0,0.0,1
11.0,9.0,-252.0,-70.0,187.0,3.0,1
4.0,5.0,-254.0,-70.0,190.0,5.0,1
37.0,16.0,-244.0,-78.0,178.0,7.0,1
22.0,7.0,-243.0,-83.0,232.0,9.0,1
18.0,9.0,-249.0,-86.0,244.0,7.0,1
21.0,9.0,-245.0,-88.0,260.0,6.0,1
18.0,13.0,-246.0,-85.0,272.0,7.0,1
21.0,18.0,-247.0,-83.0,277.0,9.0,1
23.0,16.0,-247.0,-75.0,288.0,11.0,1
26.0,10.0,-249.0,-67.0,300.0,12.0,1
27.0,12.0,-249.0,-64.0,318.0,17.0,1
26.0,15.0,-241.0,-66.0,331.0,18.0,1
29.0,12.0,-242.0,-64.0,333.0,18.0,1
27.0,17.0,-241.0,-64.0,328.0,18.0,1
28.0,17.0,-240.0,-65.0,326.0,18.0,1
28.0,14.0,-243.0,-67.0,325.0,19.0,1
28.0,9.0,-246.0,-67.0,325.0,16.0,1
29.0,20.0,-240.0,-69.0,325.0,18.0,1
28.0,12.0,-246.0,-66.0,323.0,16.0,1
19.0,21.0,-252.0,-57.0,312.0,19.0,1
42.0,20.0,-243.0,-49.0,304.0,16.0,1
33.0,12.0,-244.0,-51.0,323.0,18.0,1
28.0,14.0,-240.0,-64.0,332.0,21.0,1
33.0,15.0,-244.0,-69.0,334.0,23.0,1
33.0,16.0,-242.0,-67.0,330.0,23.0,1
35.0,16.0,-242.0,-63.0,326.0,25.0,1
37.0,16.0,-244.0,-59.0,322.0,26.0,1
38.0,15.0,-242.0,-54.0,319.0,30.0,1
34.0,17.0,-239.0,-50.0,315.0,31.0,1
36.0,17.0,-243.0,-47.0,309.0,33.0,1
34.0,17.0,-235.0,-44.0,303.0,37.0,1
34.0,18.0,-242.0,-31.0,282.0,55.0,1
32.0,18.0,-241.0,-29.0,277.0,64.0,1
25.0,17.0,-245.0,-33.0,265.0,65.0,1
30.0,17.0,-242.0,-30.0,242.0,66.0,1
30.0,18.0,-237.0,-30.0,227.0,58.0,1
33.0,15.0,-240.0,-31.0,210.0,50.0,1
33.0,17.0,-240.0,-27.0,197.0,40.0,1
44.0,-2.0,-234.0,-12.0,179.0,39.0,1
41.0,28.0,-243.0,26.0,163.0,38.0,1
36.0,24.0,-243.0,27.0,135.0,22.0,1
38.0,14.0,-235.0,9.0,135.0,14.0,1
38.0,16.0,-242.0,-5.0,140.0,13.0,1
47.0,21.0,-239.0,-15.0,142.0,10.0,1
47.0,20.0,-237.0,-13.0,140.0,9.0,1
52.0,16.0,-244.0,-7.0,135.0,6.0,1
46.0,19.0,-244.0,-2.0,128.0,4.0,1
53.0,21.0,-247.0,-1.0,127.0,1.0,1
53.0,20.0,-242.0,1.0,127.0,0.0,1
58.0,16.0,-241.0,4.0,127.0,-2.0,1
48.0,10.0,-245.0,12.0,128.0,-4.0,1
49.0,16.0,-242.0,18.0,125.0,-5.0,1
47.0,14.0,-242.0,19.0,123.0,-5.0,1
56.0,17.0,-235.0,22.0,120.0,-8.0,1
50.0,17.0,-239.0,25.0,118.0,-9.0,1
48.0,20.0,-233.0,28.0,113.0,-11.0,1
51.0,14.0,-237.0,34.0,108.0,-14.0,1
49.0,13.0,-240.0,39.0,109.0,-12.0,1
51.0,17.0,-235.0,39.0,102.0,-14.0,1
55.0,13.0,-236.0,46.0,97.0,-15.0,1
53.0,16.0,-238.0,51.0,93.0,-14.0,1
54.0,15.0,-237.0,56.0,87.0,-13.0,1
53.0,16.0,-232.0,59.0,84.0,-13.0,1
54.0,16.0,-235.0,66.0,80.0,-12.0,1
49.0,17.0,-231.0,72.0,75.0,-12.0,1
48.0,14.0,-233.0,74.0,68.0,-13.0,1
46.0,19.0,-237.0,78.0,64.0,-10.0,1
45.0,14.0,-235.0,82.0,62.0,-14.0,1
45.0,18.0,-240.0,86.0,57.0,-14.0,1
45.0,19.0,-236.0,88.0,54.0,-14.0,1
43.0,21.0,-241.0,89.0,50.0,-13.0,1
46.0,17.0,-240.0,91.0,45.0,-14.0,1
44.0,12.0,-238.0,93.0,40.0,-15.0,1
45.0,18.0,-238.0,96.0,35.0,-16.0,1
47.0,17.0,-236.0,99.0,28.0,-17.0,1
47.0,15.0,-236.0,101.0,21.0,-15.0,1
48.0,19.0,-238.0,104.0,14.0,-16.0,1
48.0,16.0,-242.0,104.0,9.0,-16.0,1
46.0,17.0,-244.0,104.0,3.0,-17.0,1
51.0,15.0,-241.0,107.0,-3.0,-17.0,1
47.0,17.0,-244.0,111.0,-7.0,-18.0,1
44.0,18.0,-248.0,111.0,-13.0,-17.0,1
46.0,18.0,-244.0,114.0,-17.0,-17.0,1
44.0,19.0,-251.0,115.0,-22.0,-17.0,1
48.0,15.0,-250.0,115.0,-27.0,-17.0,1
51.0,18.0,-248.0,113.0,-33.0,-17.0,1
47.0,18.0,-248.0,111.0,-39.0,-17.0,1
47.0,18.0,-249.0,109.0,-44.0,-19.0,1
46.0,16.0,-252.0,108.0,-50.0,-20.0,1
46.0,15.0,-250.0,107.0,-53.0,-21.0,1
47.0,11.0,-248.0,105.0,-54.0,-21.0,1
41.0,17.0,-245.0,104.0,-56.0,-21.0,1
47.0,17.0,-245.0,102.0,-57.0,-20.0,1
43.0,13.0,-247.0,98.0,-59.0,-22.0,1
43.0,17.0,-249.0,95.0,-60.0,-23.0,1
47.0,15.0,-249.0,92.0,-62.0,-23.0,1
46.0,17.0,-250.0,91.0,-63.0,-22.0,1
50.0,17.0,-248.0,87.0,-64.0,-22.0,1
47.0,14.0,-245.0,85.0,-66.0,-21.0,1
48.0,15.0,-250.0,83.0,-68.0,-20.0,1
44.0,14.0,-253.0,81.0,-68.0,-21.0,1
46.0,15.0,-251.0,78.0,-70.0,-20.0,1
45.0,14.0,-255.0,77.0,-69.0,-21.0,1
46.0,14.0,-252.0,77.0,-70.0,-21.0,1
47.0,15.0,-251.0,75.0,-70.0,-21.0,1
44.0,18.0,-252.0,73.0,-70.0,-21.0,1
46.0,13.0,-251.0,70.0,-69.0,-21.0,1
42.0,16.0,-251.0,68.0,-66.0,-21.0,1
40.0,17.0,-251.0,66.0,-65.0,-22.0,1
41.0,17.0,-244.0,63.0,-66.0,-21.0,1
41.0,16.0,-250.0,61.0,-66.0,-23.0,1
42.0,16.0,-246.0,59.0,-67.0,-22.0,1
42.0,17.0,-249.0,60.0,-69.0,-22.0,1
44.0,15.0,-243.0,58.0,-70.0,-21.0,1
45.0,15.0,-245.0,57.0,-69.0,-21.0,1
38.0,18.0,-246.0,59.0,-69.0,-20.0,1
42.0,16.0,-247.0,59.0,-65.0,-21.0,1
42.0,12.0,-245.0,60.0,-63.0,-19.0,1
44.0,14.0,-243.0,61.0,-60.0,-20.0,1
39.0,18.0,-249.0,62.0,-56.0,-17.0,1
42.0,13.0,-251.0,63.0,-53.0,-17.0,1
41.0,16.0,-247.0,62.0,-48.0,-17.0,1
41.0,15.0,-246.0,62.0,-46.0,-17.0,1
39.0,18.0,-248.0,62.0,-44.0,-17.0,1
42.0,15.0,-243.0,61.0,-44.0,-18.0,1
36.0,13.0,-246.0,60.0,-42.0,-18.0,1
40.0,16.0,-247.0,61.0,-42.0,-18.0,1
39.0,17.0,-248.0,60.0,-42.0,-17.0,1
42.0,14.0,-250.0,59.0,-41.0,-16.0,1
41.0,16.0,-249.0,58.0,-41.0,-15.0,1
40.0,16.0,-250.0,57.0,-39.0,-16.0,1
44.0,18.0,-248.0,56.0,-39.0,-16.0,1
38.0,17.0,-248.0,57.0,-38.0,-17.0,1
44.0,14.0,-250.0,58.0,-38.0,-17.0,1
43.0,16.0,-245.0,58.0,-35.0,-14.0,1
38.0,17.0,-246.0,58.0,-32.0,-17.0,1
37.0,16.0,-249.0,58.0,-30.0,-15.0,1
41.0,15.0,-246.0,58.0,-29.0,-17.0,1
36.0,16.0,-244.0,57.0,-26.0,-15.0,1
42.0,17.0,-251.0,57.0,-23.0,-14.0,1
39.0,14.0,-249.0,57.0,-21.0,-15.0,1
39.0,15.0,-245.0,58.0,-18.0,-13.0,1
41.0,14.0,-247.0,57.0,-16.0,-12.0,1
39.0,16.0,-241.0,58.0,-14.0,-14.0,1
40.0,17.0,-249.0,59.0,-15.0,-12.0,1
44.0,12.0,-251.0,60.0,-15.0,-13.0,1
41.0,15.0,-252.0,60.0,-15.0,-12.0,1
39.0,20.0,-248.0,62.0,-15.0,-13.0,1
44.0,15.0,-250.0,61.0,-14.0,-12.0,1
40.0,16.0,-248.0,62.0,-14.0,-13.0,1
41.0,17.0,-247.0,62.0,-14.0,-13.0,1
40.0,15.0,-248.0,62.0,-13.0,-14.0,1
40.0,17.0,-248.0,61.0,-10.0,-14.0,1
41.0,14.0,-248.0,60.0,-10.0,-11.0,1
38.0,16.0,-253.0,57.0,-11.0,-12.0,1
43.0,16.0,-248.0,58.0,-12.0,-13.0,1
36.0,19.0,-249.0,59.0,-13.0,-14.0,1
39.0,15.0,-250.0,59.0,-17.0,-15.0,1
39.0,13.0,-246.0,60.0,-18.0,-14.0,1
42.0,16.0,-246.0,60.0,-19.0,-15.0,1
39.0,14.0,-243.0,60.0,-18.0,-15.0,1
39.0,15.0,-245.0,61.0,-17.0,-13.0,1
37.0,14.0,-244.0,60.0,-13.0,-14.0,1
38.0,16.0,-246.0,60.0,-11.0,-15.0,1
39.0,14.0,-247.0,60.0,-8.0,-15.0,1
42.0,10.0,-246.0,59.0,-6.0,-13.0,1
45.0,12.0,-243.0,60.0,-5.0,-14.0,1
40.0,14.0,-252.0,62.0,-3.0,-14.0,1
41.0,19.0,-254.0,63.0,-2.0,-15.0,1
41.0,15.0,-254.0,62.0,-1.0,-14.0,1
39.0,20.0,-254.0,62.0,-1.0,-14.0,1
39.0,17.0,-251.0,62.0,0.0,-13.0,1
39.0,17.0,-252.0,60.0,0.0,-13.0,1
38.0,16.0,-251.0,59.0,2.0,-13.0,1
38.0,20.0,-251.0,59.0,1.0,-14.0,1
40.0,15.0,-250.0,57.0,1.0,-14.0,1
44.0,15.0,-252.0,55.0,-2.0,-15.0,1
40.0,17.0,-250.0,55.0,-3.0,-13.0,1
40.0,15.0,-246.0,53.0,-5.0,-15.0,1
38.0,11.0,-246.0,54.0,-6.0,-14.0,1
35.0,15.0,-249.0,52.0,-7.0,-13.0,1
42.0,12.0,-247.0,52.0,-5.0,-13.0,1
41.0,15.0,-246.0,53.0,-4.0,-13.0,1
40.0,15.0,-245.0,53.0,-4.0,-14.0,1
41.0,16.0,-247.0,53.0,-3.0,-14.0,1
41.0,16.0,-249.0,53.0,-2.0,-12.0,1
42.0,14.0,-251.0,54.0,-2.0,-13.0,1
40.0,15.0,-253.0,54.0,-3.0,-13.0,1
39.0,15.0,-250.0,54.0,-3.0,-13.0,1
40.0,17.0,-245.0,55.0,-2.0,-13.0,1
38.0,15.0,-251.0,54.0,-1.0,-12.0,1
39.0,17.0,-245.0,55.0,-2.0,-12.0,1
37.0,13.0,-248.0,55.0,-1.0,-11.0,1
40.0,15.0,-249.0,54.0,-1.0,-12.0,1
40.0,15.0,-251.0,54.0,-1.0,-12.0,1
40.0,13.0,-250.0,53.0,1.0,-13.0,1
40.0,14.0,-245.0,53.0,1.0,-12.0,1
36.0,16.0,-245.0,53.0,1.0,-13.0,1
36.0,14.0,-250.0,53.0,1.0,-12.0,1
40.0,14.0,-247.0,54.0,0.0,-11.0,1
41.0,13.0,-244.0,53.0,0.0,-10.0,1
40.0,13.0,-246.0,55.0,-2.0,-11.0,1
39.0,12.0,-250.0,54.0,-3.0,-11.0,1
36.0,16.0,-244.0,56.0,-4.0,-11.0,1
37.0,15.0,-247.0,58.0,-4.0,-11.0,1
37.0,17.0,-246.0,59.0,-5.0,-11.0,1
37.0,16.0,-247.0,59.0,-4.0,-11.0,1
40.0,16.0,-249.0,59.0,-4.0,-10.0,1
42.0,12.0,-247.0,59.0,-5.0,-9.0,1
36.0,14.0,-247.0,58.0,-3.0,-10.0,1
37.0,16.0,-247.0,58.0,-2.0,-11.0,1
43.0,13.0,-246.0,57.0,1.0,-10.0,1
39.0,9.0,-244.0,58.0,2.0,-11.0,1
49.0,15.0,-239.0,57.0,0.0,-10.0,1
40.0,11.0,-244.0,57.0,-1.0,-9.0,1
38.0,12.0,-251.0,56.0,-2.0,-11.0,1
46.0,16.0,-242.0,55.0,-2.0,-11.0,1
32.0,14.0,-242.0,56.0,0.0,-10.0,1
33.0,16.0,-250.0,57.0,-2.0,-10.0,1
33.0,5.0,-258.0,56.0,-3.0,-11.0,1
47.0,10.0,-246.0,57.0,-2.0,-10.0,1
43.0,9.0,-255.0,57.0,-3.0,-10.0,1
45.0,9.0,-243.0,57.0,-2.0,-11.0,1
30.0,14.0,-245.0,57.0,-1.0,-11.0,1
37.0,14.0,-247.0,58.0,-1.0,-11.0,1
44.0,13.0,-247.0,56.0,0.0,-10.0,1
39.0,18.0,-256.0,56.0,2.0,-11.0,1
40.0,17.0,-241.0,56.0,3.0,-11.0,1
44.0,17.0,-257.0,54.0,3.0,-10.0,1
36.0,13.0,-238.0,53.0,3.0,-11.0,1
32.0,16.0,-252.0,52.0,3.0,-10.0,1
49.0,22.0,-249.0,51.0,3.0,-13.0,1
42.0,14.0,-248.0,52.0,2.0,-11.0,1
39.0,13.0,-251.0,51.0,5.0,-13.0,1
36.0,9.0,-248.0,52.0,6.0,-12.0,1
33.0,12.0,-244.0,50.0,7.0,-13.0,1
36.0,12.0,-241.0,50.0,8.0,-12.0,1
32.0,12.0,-241.0,51.0,8.0,-12.0,1
41.0,18.0,-255.0,51.0,8.0,-13.0,1
40.0,15.0,-248.0,51.0,8.0,-13.0,1
35.0,11.0,-256.0,52.0,8.0,-12.0,1
39.0,14.0,-250.0,50.0,6.0,-10.0,1
40.0,13.0,-245.0,50.0,6.0,-11.0,1
37.0,15.0,-243.0,51.0,5.0,-11.0,1
37.0,14.0,-246.0,51.0,5.0,-13.0,1
56.0,12.0,-253.0,51.0,4.0,-12.0,1
37.0,16.0,-244.0,51.0,4.0,-14.0,1
40.0,9.0,-248.0,50.0,6.0,-11.0,1
37.0,11.0,-250.0,51.0,7.0,-11.0,1
38.0,12.0,-248.0,51.0,7.0,-11.0,1
38.0,23.0,-251.0,51.0,8.0,-12.0,1
40.0,13.0,-249.0,50.0,9.0,-13.0,1
38.0,13.0,-249.0,53.0,8.0,-14.0,1
40.0,11.0,-247.0,54.0,9.0,-12.0,1
41.0,15.0,-244.0,53.0,10.0,-12.0,1
39.0,18.0,-245.0,53.0,10.0,-12.0,1
38.0,14.0,-245.0,53.0,10.0,-12.0,1
37.0,18.0,-245.0,53.0,10.0,-12.0,1
37.0,14.0,-252.0,54.0,9.0,-11.0,1
40.0,13.0,-246.0,55.0,8.0,-9.0,1
36.0,14.0,-245.0,56.0,6.0,-11.0,1
42.0,10.0,-247.0,57.0,5.0,-11.0,1
39.0,13.0,-246.0,59.0,6.0,-11.0,1
36.0,17.0,-245.0,58.0,6.0,-11.0,1
40.0,12.0,-245.0,58.0,6.0,-11.0,1
42.0,8.0,-247.0,57.0,8.0,-11.0,1
40.0,14.0,-242.0,56.0,9.0,-11.0,1
40.0,14.0,-247.0,55.0,12.0,-11.0,1
37.0,14.0,-249.0,56.0,13.0,-11.0,1
38.0,16.0,-253.0,56.0,15.0,-12.0,1
37.0,16.0,-243.0,59.0,14.0,-9.0,1
39.0,13.0,-249.0,61.0,13.0,-11.0,1
41.0,13.0,-247.0,62.0,12.0,-11.0,1
39.0,14.0,-250.0,63.0,11.0,-9.0,1
37.0,15.0,-245.0,63.0,9.0,-11.0,1
36.0,14.0,-238.0,62.0,9.0,-11.0,1
38.0,14.0,-249.0,62.0,10.0,-9.0,1
42.0,11.0,-247.0,61.0,11.0,-10.0,1
38.0,16.0,-248.0,60.0,11.0,-10.0,1
40.0,15.0,-253.0,61.0,10.0,-10.0,1
37.0,18.0,-248.0,60.0,10.0,-11.0,1
39.0,14.0,-246.0,59.0,10.0,-11.0,1
38.0,13.0,-251.0,59.0,10.0,-11.0,1
39.0,14.0,-247.0,59.0,10.0,-12.0,1
40.0,13.0,-249.0,59.0,11.0,-10.0,1
37.0,10.0,-248.0,58.0,11.0,-11.0,1
39.0,13.0,-250.0,57.0,12.0,-9.0,1
39.0,13.0,-248.0,57.0,13.0,-10.0,1
36.0,12.0,-248.0,57.0,11.0,-11.0,1
37.0,14.0,-250.0,56.0,11.0,-11.0,1
42.0,15.0,-247.0,56.0,8.0,-11.0,1
35.0,16.0,-248.0,55.0,7.0,-10.0,1
38.0,18.0,-248.0,56.0,4.0,-10.0,1
41.0,14.0,-245.0,55.0,2.0,-10.0,1
42.0,9.0,-251.0,54.0,0.0,-11.0,1
42.0,17.0,-247.0,55.0,1.0,-11.0,1
40.0,12.0,-253.0,56.0,1.0,-11.0,1
39.0,12.0,-248.0,56.0,2.0,-11.0,1
39.0,14.0,-251.0,55.0,3.0,-10.0,1
38.0,16.0,-250.0,54.0,2.0,-11.0,1
38.0,15.0,-247.0,55.0,2.0,-14.0,1
40.0,14.0,-247.0,51.0,2.0,-14.0,1
39.0,11.0,-249.0,52.0,1.0,-13.0,1
40.0,10.0,-245.0,50.0,0.0,-14.0,1
40.0,15.0,-248.0,51.0,-2.0,-14.0,1
38.0,14.0,-247.0,50.0,-3.0,-14.0,1
39.0,11.0,-249.0,49.0,-4.0,-14.0,1
41.0,16.0,-246.0,51.0,-5.0,-12.0,1
36.0,13.0,-250.0,51.0,-4.0,-12.0,1
39.0,12.0,-250.0,50.0,-3.0,-13.0,1
39.0,12.0,-246.0,49.0,-4.0,-14.0,1
39.0,13.0,-247.0,49.0,-4.0,-15.0,1
36.0,13.0,-251.0,47.0,-2.0,-16.0,1
41.0,11.0,-247.0,46.0,-4.0,-16.0,1
38.0,12.0,-247.0,44.0,-5.0,-17.0,1
37.0,14.0,-252.0,44.0,-4.0,-16.0,1
39.0,12.0,-246.0,45.0,-5.0,-16.0,1
42.0,15.0,-242.0,46.0,-6.0,-15.0,1
41.0,13.0,-248.0,48.0,-6.0,-14.0,1
38.0,14.0,-243.0,48.0,-7.0,-15.0,1
37.0,14.0,-246.0,49.0,-6.0,-14.0,1
38.0,13.0,-248.0,49.0,-6.0,-13.0,1
38.0,12.0,-249.0,48.0,-7.0,-14.0,1
41.0,13.0,-244.0,50.0,-6.0,-14.0,1
36.0,16.0,-249.0,51.0,-6.0,-15.0,1
40.0,14.0,-246.0,50.0,-6.0,-14.0,1
37.0,14.0,-248.0,51.0,-7.0,-16.0,1
36.0,17.0,-247.0,51.0,-8.0,-15.0,1
38.0,14.0,-251.0,50.0,-8.0,-15.0,1
36.0,13.0,-246.0,49.0,-8.0,-17.0,1
37.0,15.0,-247.0,49.0,-9.0,-17.0,1
36.0,15.0,-248.0,50.0,-10.0,-17.0,1
39.0,14.0,-246.0,48.0,-10.0,-15.0,1
39.0,16.0,-248.0,51.0,-10.0,-12.0,1
39.0,13.0,-248.0,51.0,-10.0,-15.0,1
37.0,14.0,-250.0,52.0,-11.0,-15.0,1
37.0,16.0,-247.0,51.0,-12.0,-14.0,1
35.0,16.0,-253.0,52.0,-13.0,-14.0,1
38.0,15.0,-250.0,54.0,-13.0,-14.0,1
31.0,10.0,-247.0,54.0,-13.0,-15.0,1
37.0,16.0,-249.0,55.0,-12.0,-14.0,1
37.0,14.0,-249.0,55.0,-11.0,-15.0,1
38.0,9.0,-248.0,54.0,-11.0,-15.0,1
39.0,13.0,-249.0,55.0,-9.0,-15.0,1
36.0,15.0,-245.0,55.0,-8.0,-14.0,1
36.0,13.0,-249.0,57.0,-8.0,-14.0,1
33.0,16.0,-250.0,58.0,-8.0,-14.0,1
37.0,16.0,-248.0,59.0,-8.0,-14.0,1
37.0,17.0,-249.0,58.0,-5.0,-13.0,1
39.0,12.0,-247.0,59.0,-5.0,-11.0,1
37.0,15.0,-250.0,57.0,-5.0,-13.0,1
36.0,11.0,-248.0,58.0,-3.0,-13.0,1
35.0,15.0,-247.0,58.0,-2.0,-13.0,1
39.0,14.0,-251.0,57.0,-1.0,-12.0,1
38.0,16.0,-249.0,57.0,0.0,-13.0,1
38.0,13.0,-247.0,58.0,0.0,-13.0,1
35.0,12.0,-246.0,58.0,-1.0,-12.0,1
35.0,15.0,-251.0,58.0,-2.0,-13.0,1
35.0,14.0,-250.0,58.0,-1.0,-13.0,1
35.0,13.0,-247.0,57.0,-1.0,-12.0,1
41.0,13.0,-249.0,58.0,0.0,-11.0,1
35.0,15.0,-250.0,58.0,0.0,-12.0,1
33.0,17.0,-249.0,56.0,1.0,-11.0,1
35.0,14.0,-250.0,54.0,1.0,-11.0,1
38.0,17.0,-244.0,54.0,3.0,-11.0,1
38.0,10.0,-243.0,55.0,3.0,-11.0,1
36.0,12.0,-251.0,54.0,4.0,-10.0,1
34.0,16.0,-248.0,53.0,5.0,-11.0,1
38.0,11.0,-247.0,55.0,5.0,-12.0,1
35.0,18.0,-245.0,55.0,6.0,-10.0,1
37.0,11.0,-249.0,55.0,6.0,-10.0,1
34.0,15.0,-248.0,55.0,6.0,-9.0,1
37.0,16.0,-250.0,56.0,7.0,-11.0,1
36.0,14.0,-248.0,55.0,8.0,-11.0,1
40.0,12.0,-249.0,55.0,9.0,-11.0,1
38.0,13.0,-247.0,56.0,9.0,-11.0,1
36.0,13.0,-248.0,56.0,9.0,-11.0,1
37.0,15.0,-253.0,55.0,11.0,-10.0,1
38.0,15.0,-248.0,55.0,11.0,-10.0,1
37.0,13.0,-245.0,53.0,13.0,-11.0,1
38.0,14.0,-249.0,54.0,14.0,-12.0,1
38.0,9.0,-247.0,53.0,14.0,-11.0,1
36.0,12.0,-248.0,51.0,15.0,-10.0,1
36.0,12.0,-247.0,52.0,15.0,-10.0,1
37.0,14.0,-248.0,53.0,15.0,-11.0,1
38.0,14.0,-248.0,52.0,16.0,-10.0,1
36.0,15.0,-248.0,53.0,17.0,-10.0,1
37.0,13.0,-250.0,53.0,17.0,-9.0,1
37.0,13.0,-250.0,53.0,16.0,-10.0,1
37.0,11.0,-249.0,55.0,17.0,-9.0,1
38.0,14.0,-248.0,55.0,16.0,-8.0,1
36.0,12.0,-252.0,55.0,15.0,-10.0,1
33.0,11.0,-250.0,55.0,16.0,-9.0,1
35.0,15.0,-246.0,55.0,15.0,-11.0,1
37.0,13.0,-249.0,54.0,15.0,-10.0,1
34.0,15.0,-247.0,54.0,15.0,-12.0,1
34.0,16.0,-251.0,54.0,15.0,-12.0,1
35.0,12.0,-246.0,56.0,13.0,-13.0,1
37.0,13.0,-249.0,54.0,14.0,-11.0,1
38.0,13.0,-249.0,54.0,15.0,-11.0,1
36.0,14.0,-250.0,54.0,15.0,-11.0,1
36.0,14.0,-248.0,54.0,16.0,-9.0,1
37.0,16.0,-248.0,54.0,16.0,-10.0,1
38.0,15.0,-252.0,55.0,17.0,-12.0,1
34.0,15.0,-245.0,55.0,17.0,-10.0,1
35.0,15.0,-248.0,55.0,17.0,-11.0,1
37.0,13.0,-249.0,55.0,16.0,-12.0,1
37.0,11.0,-245.0,54.0,15.0,-12.0,1
37.0,15.0,-250.0,54.0,16.0,-11.0,1
34.0,14.0,-249.0,56.0,15.0,-11.0,1
37.0,13.0,-251.0,56.0,12.0,-9.0,1
36.0,15.0,-250.0,56.0,11.0,-10.0,1
37.0,14.0,-244.0,55.0,12.0,-11.0,1
39.0,10.0,-246.0,55.0,12.0,-11.0,1
39.0,11.0,-248.0,54.0,13.0,-11.0,1
38.0,15.0,-248.0,54.0,15.0,-11.0,1
40.0,10.0,-244.0,55.0,16.0,-10.0,1
36.0,13.0,-245.0,55.0,17.0,-11.0,1
39.0,15.0,-243.0,55.0,17.0,-14.0,1
36.0,13.0,-247.0,56.0,17.0,-11.0,1
37.0,17.0,-244.0,58.0,16.0,-11.0,1
38.0,12.0,-250.0,58.0,15.0,-13.0,1
41.0,14.0,-246.0,59.0,13.0,-12.0,1
37.0,15.0,-251.0,57.0,12.0,-10.0,1
34.0,13.0,-246.0,57.0,11.0,-11.0,1
36.0,14.0,-248.0,59.0,12.0,-12.0,1
37.0,10.0,-248.0,59.0,12.0,-10.0,1
36.0,10.0,-245.0,59.0,13.0,-11.0,1
38.0,13.0,-247.0,57.0,13.0,-13.0,1
36.0,15.0,-249.0,56.0,13.0,-13.0,1
37.0,15.0,-244.0,56.0,14.0,-11.0,1
38.0,14.0,-247.0,56.0,12.0,-11.0,1
36.0,13.0,-246.0,56.0,14.0,-13.0,1
39.0,10.0,-247.0,56.0,13.0,-10.0,1
34.0,13.0,-247.0,56.0,14.0,-9.0,1
35.0,13.0,-243.0,57.0,13.0,-9.0,1
40.0,15.0,-246.0,57.0,12.0,-11.0,1
35.0,17.0,-248.0,57.0,12.0,-11.0,1
37.0,12.0,-249.0,57.0,12.0,-10.0,1
39.0,13.0,-246.0,58.0,11.0,-11.0,1
39.0,17.0,-247.0,58.0,9.0,-10.0,1
37.0,13.0,-247.0,57.0,7.0,-9.0,1
37.0,16.0,-250.0,55.0,7.0,-11.0,1
39.0,12.0,-247.0,56.0,6.0,-12.0,1
36.0,11.0,-250.0,54.0,7.0,-12.0,1
38.0,12.0,-245.0,53.0,8.0,-12.0,1
36.0,13.0,-250.0,53.0,9.0,-12.0,1
39.0,14.0,-247.0,54.0,8.0,-13.0,1
37.0,15.0,-248.0,54.0,8.0,-12.0,1
37.0,14.0,-251.0,53.0,9.0,-11.0,1
35.0,11.0,-249.0,54.0,11.0,-12.0,1
42.0,11.0,-243.0,54.0,11.0,-13.0,1
36.0,13.0,-246.0,53.0,10.0,-13.0,1
38.0,9.0,-251.0,53.0,9.0,-12.0,1
38.0,15.0,-252.0,53.0,7.0,-11.0,1
36.0,13.0,-248.0,53.0,5.0,-10.0,1
37.0,15.0,-243.0,53.0,5.0,-10.0,1
29.0,10.0,-247.0,55.0,5.0,-10.0,1
37.0,13.0,-249.0,56.0,5.0,-12.0,1
40.0,15.0,-250.0,56.0,5.0,-11.0,1
38.0,12.0,-246.0,55.0,6.0,-12.0,1
35.0,11.0,-245.0,53.0,6.0,-13.0,1
37.0,12.0,-248.0,50.0,6.0,-12.0,1
34.0,17.0,-247.0,50.0,5.0,-11.0,1
38.0,10.0,-248.0,50.0,6.0,-10.0,1
38.0,16.0,-248.0,49.0,6.0,-11.0,1
37.0,13.0,-246.0,50.0,6.0,-11.0,1
38.0,16.0,-245.0,52.0,8.0,-10.0,1
37.0,14.0,-250.0,53.0,7.0,-10.0,1
37.0,14.0,-245.0,53.0,9.0,-10.0,1
38.0,10.0,-247.0,55.0,9.0,-12.0,1
39.0,15.0,-245.0,54.0,9.0,-12.0,1
37.0,13.0,-246.0,55.0,10.0,-11.0,1
37.0,15.0,-248.0,55.0,9.0,-13.0,1
37.0,14.0,-250.0,56.0,9.0,-11.0,1
40.0,14.0,-248.0,55.0,8.0,-11.0,1
43.0,17.0,-245.0,56.0,9.0,-10.0,1
35.0,15.0,-252.0,56.0,8.0,-10.0,1
39.0,11.0,-246.0,56.0,8.0,-10.0,1
36.0,13.0,-248.0,56.0,6.0,-11.0,1
40.0,11.0,-248.0,56.0,6.0,-11.0,1
38.0,14.0,-245.0,55.0,6.0,-10.0,1
38.0,16.0,-246.0,55.0,6.0,-11.0,1
38.0,11.0,-246.0,55.0,7.0,-11.0,1
35.0,14.0,-248.0,56.0,6.0,-10.0,1
35.0,15.0,-248.0,56.0,6.0,-10.0,1
39.0,11.0,-251.0,56.0,8.0,-11.0,1
40.0,11.0,-245.0,57.0,7.0,-10.0,1
37.0,16.0,-245.0,55.0,7.0,-11.0,1
34.0,14.0,-246.0,55.0,8.0,-11.0,1
38.0,16.0,-246.0,55.0,8.0,-12.0,1
37.0,13.0,-247.0,56.0,9.0,-11.0,1
38.0,13.0,-248.0,56.0,9.0,-12.0,1
39.0,14.0,-248.0,56.0,8.0,-11.0,1
36.0,12.0,-249.0,57.0,9.0,-12.0,1
35.0,12.0,-252.0,57.0,9.0,-11.0,1
36.0,13.0,-246.0,57.0,9.0,-11.0,1
32.0,16.0,-248.0,56.0,11.0,-12.0,1
39.0,14.0,-251.0,56.0,11.0,-12.0,1
39.0,12.0,-245.0,56.0,12.0,-13.0,1
37.0,11.0,-248.0,55.0,12.0,-13.0,1
39.0,14.0,-247.0,55.0,12.0,-13.0,1
40.0,13.0,-247.0,56.0,14.0,-11.0,1
38.0,14.0,-248.0,55.0,14.0,-11.0,1
38.0,12.0,-251.0,56.0,13.0,-10.0,1
39.0,11.0,-245.0,54.0,14.0,-11.0,1
38.0,12.0,-245.0,54.0,12.0,-11.0,1
38.0,14.0,-251.0,53.0,12.0,-11.0,1
40.0,12.0,-246.0,54.0,11.0,-11.0,1
34.0,8.0,-242.0,53.0,11.0,-12.0,1
33.0,14.0,-245.0,54.0,12.0,-10.0,1
37.0,15.0,-248.0,54.0,11.0,-11.0,1
40.0,11.0,-247.0,55.0,10.0,-11.0,1
37.0,16.0,-245.0,54.0,8.0,-12.0,1
38.0,11.0,-251.0,54.0,9.0,-12.0,1
37.0,11.0,-246.0,52.0,10.0,-12.0,1
38.0,11.0,-249.0,52.0,9.0,-11.0,1
37.0,13.0,-251.0,51.0,9.0,-12.0,1
39.0,14.0,-244.0,52.0,9.0,-12.0,1
36.0,15.0,-245.0,54.0,10.0,-11.0,1
35.0,12.0,-245.0,54.0,11.0,-13.0,1
38.0,13.0,-246.0,53.0,12.0,-12.0,1
37.0,12.0,-248.0,52.0,15.0,-14.0,1
37.0,11.0,-250.0,52.0,14.0,-12.0,1
37.0,14.0,-250.0,51.0,15.0,-12.0,1
38.0,13.0,-250.0,51.0,15.0,-11.0,1
36.0,13.0,-252.0,52.0,14.0,-12.0,1
36.0,13.0,-247.0,51.0,14.0,-12.0,1
36.0,9.0,-248.0,51.0,13.0,-11.0,1
36.0,13.0,-250.0,51.0,12.0,-11.0,1
39.0,9.0,-250.0,51.0,11.0,-11.0,1
32.0,12.0,-247.0,52.0,11.0,-11.0,1
38.0,10.0,-247.0,52.0,12.0,-11.0,1
36.0,11.0,-247.0,52.0,11.0,-10.0,1
35.0,13.0,-249.0,52.0,12.0,-11.0,1
41.0,14.0,-252.0,51.0,12.0,-10.0,1
38.0,12.0,-246.0,53.0,14.0,-10.0,1
42.0,11.0,-246.0,52.0,13.0,-11.0,1
38.0,13.0,-246.0,53.0,12.0,-12.0,1
36.0,17.0,-246.0,52.0,10.0,-11.0,1
37.0,9.0,-250.0,52.0,10.0,-11.0,1
40.0,9.0,-248.0,53.0,9.0,-12.0,1
38.0,11.0,-247.0,53.0,8.0,-12.0,1
37.0,15.0,-248.0,52.0,8.0,-14.0,1
37.0,11.0,-248.0,53.0,8.0,-13.0,1
35.0,12.0,-244.0,52.0,10.0,-12.0,1
38.0,11.0,-248.0,51.0,10.0,-13.0,1
41.0,12.0,-245.0,52.0,11.0,-11.0,1
38.0,10.0,-248.0,52.0,12.0,-10.0,1
37.0,11.0,-249.0,51.0,12.0,-10.0,1
38.0,17.0,-249.0,53.0,10.0,-11.0,1
37.0,14.0,-251.0,53.0,11.0,-13.0,1
37.0,16.0,-248.0,53.0,9.0,-11.0,1
37.0,13.0,-249.0,53.0,9.0,-12.0,1
38.0,15.0,-247.0,51.0,9.0,-14.0,1
39.0,13.0,-250.0,52.0,10.0,-12.0,1
40.0,13.0,-249.0,50.0,9.0,-12.0,1
39.0,15.0,-249.0,51.0,8.0,-12.0,1
38.0,14.0,-249.0,51.0,8.0,-11.0,1
39.0,12.0,-251.0,52.0,8.0,-11.0,1
39.0,14.0,-248.0,53.0,7.0,-12.0,1
37.0,9.0,-249.0,53.0,8.0,-13.0,1
36.0,11.0,-247.0,53.0,8.0,-13.0,1
39.0,7.0,-243.0,54.0,7.0,-13.0,1
39.0,14.0,-251.0,55.0,8.0,-13.0,1
37.0,13.0,-249.0,55.0,7.0,-12.0,1
37.0,14.0,-248.0,55.0,8.0,-12.0,1
37.0,14.0,-248.0,55.0,9.0,-11.0,1
38.0,14.0,-246.0,55.0,9.0,-13.0,1
38.0,11.0,-247.0,54.0,10.0,-12.0,1
37.0,13.0,-249.0,53.0,11.0,-13.0,1
39.0,11.0,-251.0,52.0,12.0,-12.0,1
38.0,15.0,-248.0,52.0,12.0,-13.0,1
39.0,15.0,-238.0,53.0,11.0,-12.0,1
38.0,15.0,-247.0,53.0,11.0,-11.0,1
39.0,12.0,-248.0,54.0,10.0,-11.0,1
33.0,15.0,-249.0,56.0,8.0,-10.0,1
36.0,13.0,-247.0,56.0,9.0,-11.0,1
39.0,12.0,-246.0,56.0,9.0,-11.0,1
39.0,11.0,-250.0,57.0,9.0,-12.0,1
36.0,13.0,-246.0,54.0,10.0,-11.0,1
36.0,14.0,-249.0,54.0,11.0,-12.0,1
37.0,14.0,-248.0,55.0,11.0,-11.0,1
39.0,13.0,-248.0,54.0,12.0,-10.0,1
38.0,7.0,-255.0,54.0,12.0,-11.0,1
35.0,16.0,-244.0,53.0,12.0,-10.0,1
38.0,15.0,-250.0,53.0,11.0,-10.0,1
35.0,14.0,-247.0,53.0,10.0,-11.0,1
39.0,12.0,-245.0,54.0,9.0,-10.0,1
38.0,15.0,-249.0,53.0,9.0,-11.0,1
38.0,13.0,-247.0,53.0,8.0,-12.0,1
40.0,10.0,-246.0,53.0,10.0,-13.0,1
32.0,13.0,-249.0,53.0,10.0,-12.0,1
35.0,15.0,-247.0,54.0,10.0,-11.0,1
33.0,12.0,-248.0,53.0,11.0,-12.0,1
39.0,9.0,-252.0,54.0,12.0,-11.0,1
39.0,15.0,-249.0,52.0,11.0,-10.0,1
37.0,13.0,-249.0,54.0,11.0,-10.0,1
39.0,12.0,-250.0,54.0,11.0,-11.0,1
36.0,11.0,-251.0,52.0,11.0,-11.0,1
33.0,16.0,-247.0,50.0,12.0,-12.0,1
37.0,13.0,-245.0,49.0,12.0,-12.0,1
40.0,12.0,-245.0,50.0,12.0,-12.0,1
35.0,16.0,-248.0,50.0,13.0,-11.0,1
35.0,13.0,-251.0,50.0,12.0,-11.0,1
38.0,12.0,-244.0,50.0,11.0,-12.0,1
41.0,14.0,-249.0,50.0,11.0,-12.0,1
38.0,12.0,-248.0,51.0,12.0,-11.0,1
40.0,12.0,-249.0,49.0,11.0,-11.0,1
37.0,12.0,-244.0,50.0,11.0,-11.0,1
37.0,16.0,-251.0,50.0,9.0,-11.0,1
38.0,12.0,-250.0,53.0,10.0,-10.0,1
38.0,14.0,-251.0,53.0,9.0,-10.0,1
37.0,14.0,-246.0,53.0,10.0,-10.0,1
35.0,14.0,-248.0,53.0,12.0,-12.0,1
37.0,13.0,-244.0,52.0,11.0,-9.0,1
39.0,9.0,-247.0,51.0,12.0,-11.0,1
37.0,13.0,-251.0,50.0,12.0,-12.0,1
35.0,16.0,-246.0,50.0,12.0,-11.0,1
38.0,12.0,-248.0,50.0,11.0,-11.0,1
40.0,13.0,-249.0,50.0,11.0,-10.0,1
39.0,10.0,-250.0,51.0,11.0,-11.0,1
37.0,14.0,-246.0,51.0,12.0,-11.0,1
38.0,14.0,-250.0,53.0,12.0,-11.0,1
37.0,10.0,-250.0,53.0,13.0,-10.0,1
36.0,14.0,-246.0,53.0,14.0,-12.0,1
44.0,18.0,-251.0,55.0,15.0,-11.0,1
46.0,18.0,-253.0,54.0,14.0,-10.0,1
39.0,14.0,-249.0,54.0,14.0,-12.0,1
39.0,12.0,-249.0,54.0,15.0,-11.0,1
39.0,14.0,-246.0,54.0,14.0,-12.0,1
37.0,14.0,-250.0,53.0,13.0,-11.0,1
36.0,16.0,-248.0,52.0,12.0,-12.0,1
38.0,11.0,-250.0,52.0,11.0,-13.0,1
35.0,15.0,-248.0,53.0,12.0,-11.0,1
35.0,15.0,-248.0,53.0,11.0,-12.0,1
37.0,13.0,-252.0,54.0,11.0,-12.0,1
35.0,15.0,-248.0,54.0,12.0,-12.0,1
37.0,12.0,-249.0,53.0,12.0,-11.0,1
36.0,13.0,-246.0,53.0,11.0,-11.0,1
37.0,14.0,-246.0,53.0,11.0,-12.0,1
39.0,11.0,-251.0,53.0,11.0,-11.0,1
34.0,12.0,-249.0,52.0,11.0,-10.0,1
37.0,13.0,-253.0,54.0,10.0,-11.0,1
38.0,14.0,-250.0,54.0,10.0,-12.0,1
38.0,15.0,-249.0,54.0,8.0,-12.0,1
36.0,13.0,-248.0,54.0,9.0,-12.0,1
37.0,12.0,-248.0,54.0,9.0,-10.0,1
35.0,12.0,-253.0,55.0,10.0,-10.0,1
39.0,13.0,-246.0,54.0,12.0,-11.0,1
40.0,10.0,-247.0,56.0,12.0,-11.0,1
39.0,13.0,-248.0,56.0,14.0,-12.0,1
38.0,15.0,-249.0,57.0,14.0,-13.0,1
37.0,12.0,-248.0,55.0,16.0,-12.0,1
36.0,14.0,-248.0,55.0,15.0,-11.0,1
39.0,12.0,-249.0,54.0,15.0,-11.0,1
36.0,11.0,-251.0,53.0,16.0,-11.0,1
39.0,14.0,-248.0,53.0,14.0,-11.0,1
39.0,11.0,-249.0,53.0,13.0,-11.0,1
39.0,7.0,-244.0,54.0,13.0,-11.0,1
38.0,14.0,-246.0,55.0,10.0,-10.0,1
38.0,10.0,-249.0,56.0,9.0,-9.0,1
39.0,12.0,-247.0,55.0,8.0,-10.0,1
38.0,14.0,-248.0,55.0,8.0,-12.0,1
40.0,11.0,-246.0,55.0,8.0,-11.0,1
38.0,15.0,-251.0,54.0,9.0,-10.0,1
37.0,13.0,-245.0,56.0,10.0,-11.0,1
40.0,13.0,-250.0,55.0,11.0,-13.0,1
32.0,17.0,-252.0,55.0,12.0,-12.0,1
36.0,11.0,-244.0,54.0,11.0,-11.0,1
38.0,12.0,-248.0,51.0,11.0,-11.0,1
39.0,12.0,-248.0,51.0,10.0,-11.0,1
36.0,12.0,-247.0,52.0,10.0,-10.0,1
37.0,11.0,-246.0,52.0,9.0,-11.0,1
38.0,9.0,-246.0,53.0,10.0,-12.0,1
40.0,13.0,-248.0,53.0,10.0,-10.0,1
40.0,11.0,-246.0,55.0,9.0,-10.0,1
39.0,11.0,-251.0,55.0,10.0,-10.0,1
39.0,9.0,-250.0,55.0,10.0,-11.0,1
36.0,13.0,-248.0,54.0,10.0,-11.0,1
45.0,14.0,-248.0,55.0,11.0,-12.0,1
39.0,13.0,-250.0,54.0,12.0,-11.0,1
37.0,9.0,-245.0,52.0,12.0,-12.0,1
37.0,14.0,-248.0,52.0,13.0,-12.0,1
39.0,14.0,-248.0,51.0,13.0,-12.0,1
36.0,14.0,-246.0,51.0,13.0,-13.0,1
35.0,13.0,-248.0,51.0,11.0,-12.0,1
