ax,ay,az,gx,gy,gz,label
81.0,-238.0,-16.0,-24.0,155.0,-119.0,1
83.0,-234.0,-19.0,-26.0,189.0,-141.0,1
85.0,-230.0,-24.0,-39.0,222.0,-171.0,1
86.0,-228.0,-39.0,-65.0,248.0,-201.0,1
70.0,-225.0,-57.0,-102.0,249.0,-231.0,1
62.0,-231.0,-69.0,-153.0,210.0,-259.0,1
46.0,-245.0,-88.0,-210.0,126.0,-279.0,1
23.0,-259.0,-106.0,-270.0,8.0,-287.0,1
-8.0,-270.0,-128.0,-326.0,-136.0,-275.0,1
-41.0,-296.0,-155.0,-389.0,-286.0,-236.0,1
-71.0,-317.0,-177.0,-487.0,-409.0,-176.0,1
-96.0,-342.0,-192.0,-613.0,-499.0,-93.0,1
-121.0,-366.0,-191.0,-748.0,-552.0,7.0,1
-131.0,-389.0,-184.0,-873.0,-573.0,125.0,1
-127.0,-410.0,-163.0,-945.0,-578.0,252.0,1
-123.0,-426.0,-136.0,-927.0,-581.0,370.0,1
-91.0,-448.0,-97.0,-799.0,-595.0,492.0,1
-51.0,-458.0,-80.0,-572.0,-629.0,608.0,1
-13.0,-458.0,-60.0,-271.0,-671.0,694.0,1
15.0,-447.0,-52.0,61.0,-705.0,768.0,1
42.0,-435.0,-47.0,382.0,-722.0,801.0,1
51.0,-401.0,-60.0,656.0,-742.0,780.0,1
54.0,-366.0,-71.0,842.0,-752.0,730.0,1
46.0,-335.0,-91.0,913.0,-758.0,655.0,1
37.0,-307.0,-106.0,858.0,-762.0,565.0,1
30.0,-280.0,-124.0,697.0,-750.0,474.0,1
15.0,-257.0,-139.0,458.0,-724.0,379.0,1
4.0,-226.0,-152.0,176.0,-677.0,283.0,1
-12.0,-206.0,-158.0,-104.0,-622.0,194.0,1
-22.0,-201.0,-157.0,-310.0,-566.0,123.0,1
-21.0,-207.0,-152.0,-416.0,-508.0,69.0,1
-25.0,-211.0,-143.0,-412.0,-444.0,20.0,1
-28.0,-218.0,-133.0,-310.0,-375.0,-16.0,1
-35.0,-216.0,-129.0,-153.0,-313.0,-37.0,1
-32.0,-227.0,-131.0,11.0,-259.0,-49.0,1
-30.0,-226.0,-137.0,136.0,-226.0,-63.0,1
-27.0,-221.0,-151.0,197.0,-215.0,-95.0,1
-15.0,-214.0,-154.0,196.0,-230.0,-135.0,1
-25.0,-195.0,-155.0,148.0,-267.0,-176.0,1
-31.0,-188.0,-157.0,77.0,-326.0,-215.0,1
-40.0,-186.0,-159.0,3.0,-400.0,-236.0,1
-52.0,-183.0,-157.0,-60.0,-489.0,-226.0,1
-64.0,-188.0,-148.0,-109.0,-579.0,-187.0,1
-69.0,-200.0,-146.0,-139.0,-662.0,-120.0,1
-75.0,-219.0,-141.0,-164.0,-732.0,-40.0,1
-79.0,-241.0,-135.0,-180.0,-794.0,21.0,1
-79.0,-255.0,-131.0,-185.0,-849.0,48.0,1
-77.0,-271.0,-131.0,-175.0,-894.0,50.0,1
-71.0,-274.0,-134.0,-153.0,-930.0,36.0,1
-63.0,-284.0,-135.0,-123.0,-955.0,17.0,1
-52.0,-286.0,-137.0,-94.0,-968.0,-9.0,1
-34.0,-281.0,-136.0,-65.0,-971.0,-54.0,1
-20.0,-278.0,-137.0,-37.0,-958.0,-111.0,1
-9.0,-270.0,-139.0,-14.0,-935.0,-169.0,1
3.0,-266.0,-140.0,6.0,-912.0,-229.0,1
18.0,-259.0,-134.0,18.0,-888.0,-279.0,1
30.0,-256.0,-133.0,21.0,-862.0,-320.0,1
39.0,-252.0,-127.0,27.0,-826.0,-353.0,1
42.0,-243.0,-125.0,39.0,-788.0,-381.0,1
46.0,-251.0,-119.0,59.0,-747.0,-405.0,1
41.0,-251.0,-122.0,84.0,-706.0,-425.0,1
39.0,-255.0,-118.0,116.0,-671.0,-440.0,1
32.0,-252.0,-116.0,149.0,-639.0,-448.0,1
30.0,-251.0,-115.0,180.0,-612.0,-448.0,1
31.0,-247.0,-115.0,209.0,-582.0,-446.0,1
31.0,-245.0,-111.0,228.0,-552.0,-440.0,1
28.0,-237.0,-113.0,229.0,-522.0,-430.0,1
29.0,-233.0,-112.0,212.0,-492.0,-418.0,1
24.0,-227.0,-105.0,178.0,-465.0,-402.0,1
34.0,-230.0,-105.0,132.0,-438.0,-385.0,1
32.0,-233.0,-102.0,75.0,-407.0,-364.0,1
33.0,-236.0,-93.0,17.0,-374.0,-334.0,1
34.0,-240.0,-93.0,-33.0,-342.0,-302.0,1
32.0,-245.0,-89.0,-79.0,-308.0,-270.0,1
33.0,-247.0,-90.0,-114.0,-275.0,-236.0,1
31.0,-254.0,-89.0,-137.0,-241.0,-197.0,1
33.0,-250.0,-86.0,-146.0,-207.0,-161.0,1
28.0,-253.0,-90.0,-143.0,-172.0,-128.0,1
33.0,-252.0,-87.0,-130.0,-137.0,-104.0,1
28.0,-249.0,-84.0,-110.0,-105.0,-87.0,1
31.0,-243.0,-97.0,-94.0,-76.0,-78.0,1
30.0,-239.0,-95.0,-77.0,-51.0,-73.0,1
27.0,-236.0,-93.0,-70.0,-30.0,-73.0,1
26.0,-232.0,-91.0,-74.0,-17.0,-74.0,1
22.0,-232.0,-85.0,-92.0,-11.0,-77.0,1
21.0,-232.0,-83.0,-112.0,-14.0,-85.0,1
18.0,-232.0,-85.0,-134.0,-22.0,-93.0,1
16.0,-238.0,-79.0,-160.0,-34.0,-104.0,1
18.0,-239.0,-78.0,-188.0,-45.0,-115.0,1
16.0,-236.0,-77.0,-215.0,-52.0,-127.0,1
16.0,-242.0,-76.0,-238.0,-55.0,-138.0,1
25.0,-238.0,-73.0,-260.0,-55.0,-150.0,1
21.0,-244.0,-79.0,-279.0,-51.0,-160.0,1
26.0,-244.0,-78.0,-293.0,-43.0,-164.0,1
28.0,-249.0,-77.0,-300.0,-33.0,-163.0,1
32.0,-249.0,-79.0,-300.0,-27.0,-165.0,1
32.0,-248.0,-81.0,-297.0,-21.0,-164.0,1
34.0,-245.0,-81.0,-291.0,-13.0,-157.0,1
32.0,-248.0,-78.0,-286.0,-9.0,-144.0,1
38.0,-243.0,-76.0,-282.0,-6.0,-127.0,1
35.0,-245.0,-75.0,-277.0,-7.0,-107.0,1
32.0,-241.0,-78.0,-272.0,-15.0,-85.0,1
33.0,-240.0,-77.0,-266.0,-26.0,-60.0,1
35.0,-248.0,-73.0,-251.0,-40.0,-36.0,1
34.0,-250.0,-75.0,-232.0,-60.0,-12.0,1
29.0,-252.0,-70.0,-208.0,-83.0,10.0,1
25.0,-253.0,-68.0,-178.0,-112.0,29.0,1
26.0,-254.0,-66.0,-146.0,-145.0,48.0,1
27.0,-257.0,-65.0,-108.0,-177.0,62.0,1
23.0,-259.0,-62.0,-66.0,-208.0,74.0,1
18.0,-260.0,-65.0,-24.0,-239.0,83.0,1
14.0,-258.0,-60.0,18.0,-270.0,91.0,1
14.0,-257.0,-60.0,58.0,-302.0,98.0,1
13.0,-264.0,-58.0,96.0,-336.0,109.0,1
10.0,-265.0,-52.0,134.0,-367.0,112.0,1
8.0,-265.0,-53.0,168.0,-396.0,114.0,1
7.0,-263.0,-54.0,202.0,-419.0,119.0,1
8.0,-264.0,-51.0,233.0,-440.0,121.0,1
7.0,-257.0,-52.0,262.0,-455.0,127.0,1
13.0,-256.0,-54.0,281.0,-463.0,133.0,1
15.0,-252.0,-52.0,296.0,-467.0,140.0,1
23.0,-250.0,-56.0,305.0,-465.0,149.0,1
29.0,-248.0,-50.0,310.0,-457.0,158.0,1
33.0,-246.0,-60.0,307.0,-442.0,167.0,1
38.0,-247.0,-60.0,302.0,-423.0,177.0,1
51.0,-243.0,-58.0,294.0,-400.0,184.0,1
60.0,-242.0,-60.0,285.0,-371.0,189.0,1
69.0,-239.0,-61.0,270.0,-341.0,193.0,1
77.0,-237.0,-60.0,251.0,-308.0,198.0,1
82.0,-232.0,-61.0,229.0,-275.0,201.0,1
86.0,-225.0,-61.0,202.0,-245.0,204.0,1
95.0,-225.0,-64.0,174.0,-217.0,211.0,1
92.0,-225.0,-66.0,139.0,-193.0,217.0,1
93.0,-226.0,-66.0,105.0,-173.0,224.0,1
88.0,-230.0,-65.0,74.0,-162.0,233.0,1
82.0,-238.0,-76.0,47.0,-155.0,247.0,1
83.0,-242.0,-72.0,28.0,-148.0,262.0,1
79.0,-255.0,-78.0,23.0,-140.0,273.0,1
72.0,-262.0,-87.0,24.0,-130.0,282.0,1
67.0,-276.0,-92.0,29.0,-115.0,293.0,1
61.0,-290.0,-101.0,26.0,-91.0,304.0,1
53.0,-303.0,-106.0,12.0,-54.0,307.0,1
48.0,-315.0,-110.0,-21.0,-3.0,301.0,1
38.0,-328.0,-121.0,-69.0,65.0,282.0,1
34.0,-342.0,-129.0,-128.0,150.0,241.0,1
34.0,-354.0,-120.0,-182.0,246.0,187.0,1
24.0,-369.0,-129.0,-219.0,342.0,117.0,1
9.0,-374.0,-121.0,-222.0,424.0,43.0,1
0.0,-383.0,-109.0,-184.0,482.0,-36.0,1
-9.0,-386.0,-98.0,-106.0,522.0,-115.0,1
-16.0,-384.0,-90.0,-2.0,555.0,-198.0,1
-19.0,-380.0,-83.0,118.0,592.0,-274.0,1
-25.0,-368.0,-74.0,242.0,626.0,-330.0,1
-24.0,-359.0,-77.0,355.0,658.0,-365.0,1
-23.0,-339.0,-85.0,448.0,683.0,-386.0,1
-21.0,-320.0,-83.0,509.0,699.0,-397.0,1
-16.0,-300.0,-88.0,535.0,709.0,-400.0,1
-22.0,-282.0,-93.0,530.0,706.0,-396.0,1
-21.0,-262.0,-94.0,507.0,687.0,-383.0,1
-24.0,-250.0,-96.0,463.0,656.0,-364.0,1
-17.0,-232.0,-103.0,411.0,621.0,-339.0,1
-18.0,-216.0,-99.0,351.0,584.0,-312.0,1
-15.0,-201.0,-104.0,286.0,552.0,-292.0,1
-14.0,-193.0,-102.0,216.0,523.0,-273.0,1
-5.0,-184.0,-99.0,148.0,500.0,-256.0,1
-6.0,-176.0,-105.0,84.0,480.0,-243.0,1
-8.0,-173.0,-102.0,32.0,463.0,-238.0,1
-11.0,-175.0,-102.0,-12.0,447.0,-237.0,1
-14.0,-168.0,-100.0,-44.0,433.0,-242.0,1
-17.0,-171.0,-99.0,-67.0,422.0,-245.0,1
-25.0,-169.0,-93.0,-77.0,410.0,-247.0,1
-30.0,-173.0,-93.0,-82.0,403.0,-248.0,1
-36.0,-178.0,-90.0,-85.0,403.0,-248.0,1
-39.0,-183.0,-87.0,-89.0,411.0,-244.0,1
-45.0,-192.0,-87.0,-96.0,429.0,-231.0,1
-41.0,-203.0,-81.0,-106.0,453.0,-217.0,1
-46.0,-217.0,-84.0,-115.0,484.0,-207.0,1
-44.0,-226.0,-79.0,-125.0,515.0,-202.0,1
-44.0,-243.0,-79.0,-132.0,545.0,-200.0,1
-38.0,-257.0,-77.0,-131.0,578.0,-202.0,1
-36.0,-265.0,-75.0,-115.0,609.0,-203.0,1
-31.0,-282.0,-79.0,-78.0,644.0,-204.0,1
-31.0,-288.0,-78.0,-29.0,680.0,-204.0,1
-25.0,-297.0,-81.0,31.0,713.0,-204.0,1
-20.0,-301.0,-81.0,89.0,741.0,-204.0,1
-15.0,-304.0,-89.0,141.0,762.0,-200.0,1
-12.0,-303.0,-89.0,188.0,780.0,-190.0,1
-7.0,-305.0,-92.0,227.0,795.0,-174.0,1
-3.0,-298.0,-94.0,258.0,803.0,-153.0,1
-2.0,-294.0,-88.0,286.0,807.0,-131.0,1
0.0,-291.0,-97.0,308.0,807.0,-107.0,1
-2.0,-284.0,-99.0,330.0,805.0,-79.0,1
0.0,-281.0,-100.0,352.0,800.0,-50.0,1
-2.0,-277.0,-104.0,375.0,796.0,-21.0,1
0.0,-274.0,-100.0,398.0,793.0,9.0,1
-2.0,-268.0,-104.0,419.0,793.0,34.0,1
-1.0,-267.0,-106.0,438.0,795.0,57.0,1
-1.0,-261.0,-100.0,457.0,794.0,79.0,1
-4.0,-256.0,-100.0,467.0,797.0,97.0,1
0.0,-253.0,-99.0,470.0,799.0,114.0,1
-1.0,-253.0,-98.0,463.0,798.0,129.0,1
-1.0,-251.0,-95.0,444.0,798.0,145.0,1
-2.0,-249.0,-94.0,416.0,798.0,157.0,1
0.0,-248.0,-92.0,386.0,802.0,170.0,1
1.0,-250.0,-87.0,355.0,802.0,181.0,1
4.0,-251.0,-82.0,325.0,801.0,193.0,1
2.0,-250.0,-78.0,301.0,798.0,202.0,1
4.0,-249.0,-80.0,283.0,793.0,211.0,1
7.0,-253.0,-77.0,267.0,792.0,222.0,1
5.0,-246.0,-70.0,256.0,790.0,232.0,1
6.0,-248.0,-65.0,250.0,791.0,240.0,1
2.0,-249.0,-72.0,245.0,791.0,247.0,1
4.0,-250.0,-72.0,242.0,793.0,254.0,1
6.0,-248.0,-65.0,239.0,797.0,258.0,1
6.0,-246.0,-67.0,240.0,806.0,260.0,1
5.0,-243.0,-66.0,241.0,819.0,259.0,1
3.0,-243.0,-64.0,240.0,833.0,260.0,1
1.0,-241.0,-59.0,233.0,849.0,262.0,1
4.0,-242.0,-61.0,221.0,865.0,265.0,1
6.0,-241.0,-56.0,203.0,879.0,267.0,1
4.0,-237.0,-56.0,182.0,895.0,273.0,1
7.0,-240.0,-54.0,159.0,913.0,280.0,1
10.0,-243.0,-51.0,133.0,932.0,286.0,1
9.0,-244.0,-46.0,109.0,951.0,292.0,1
12.0,-244.0,-45.0,88.0,971.0,296.0,1
14.0,-243.0,-50.0,67.0,989.0,303.0,1
16.0,-245.0,-47.0,50.0,1008.0,306.0,1
16.0,-242.0,-42.0,31.0,1025.0,310.0,1
18.0,-245.0,-45.0,12.0,1047.0,312.0,1
20.0,-246.0,-46.0,-4.0,1070.0,316.0,1
22.0,-250.0,-48.0,-24.0,1092.0,319.0,1
30.0,-247.0,-43.0,-45.0,1114.0,318.0,1
27.0,-242.0,-47.0,-70.0,1137.0,308.0,1
30.0,-248.0,-45.0,-94.0,1161.0,295.0,1
35.0,-251.0,-41.0,-105.0,1188.0,278.0,1
32.0,-248.0,-36.0,-105.0,1216.0,255.0,1
34.0,-248.0,-38.0,-96.0,1248.0,234.0,1
34.0,-248.0,-39.0,-84.0,1279.0,214.0,1
29.0,-249.0,-38.0,-71.0,1307.0,191.0,1
24.0,-245.0,-37.0,-58.0,1334.0,170.0,1
20.0,-243.0,-42.0,-49.0,1356.0,151.0,1
18.0,-245.0,-38.0,-39.0,1372.0,133.0,1
13.0,-247.0,-38.0,-30.0,1387.0,116.0,1
7.0,-255.0,-50.0,-20.0,1403.0,100.0,1
1.0,-254.0,-38.0,-6.0,1412.0,90.0,1
-5.0,-253.0,-35.0,10.0,1417.0,82.0,1
-9.0,-256.0,-34.0,29.0,1416.0,79.0,1
-16.0,-254.0,-35.0,48.0,1410.0,79.0,1
-17.0,-256.0,-36.0,63.0,1400.0,81.0,1
-20.0,-256.0,-35.0,82.0,1385.0,84.0,1
-22.0,-256.0,-29.0,100.0,1367.0,90.0,1
-21.0,-257.0,-31.0,121.0,1347.0,93.0,1
-21.0,-257.0,-31.0,144.0,1321.0,95.0,1
-14.0,-259.0,-24.0,166.0,1296.0,93.0,1
-16.0,-265.0,-28.0,188.0,1265.0,86.0,1
-12.0,-262.0,-14.0,212.0,1233.0,76.0,1
-14.0,-260.0,-10.0,235.0,1199.0,65.0,1
-13.0,-261.0,-9.0,259.0,1158.0,56.0,1
-10.0,-265.0,-8.0,278.0,1115.0,47.0,1
-13.0,-264.0,-1.0,297.0,1069.0,37.0,1
-15.0,-262.0,-3.0,317.0,1024.0,25.0,1
-15.0,-263.0,1.0,335.0,979.0,18.0,1
-16.0,-267.0,-8.0,348.0,938.0,13.0,1
-19.0,-263.0,-8.0,353.0,902.0,9.0,1
-23.0,-267.0,-4.0,355.0,874.0,6.0,1
-20.0,-264.0,-2.0,351.0,856.0,6.0,1
-16.0,-265.0,-4.0,339.0,844.0,5.0,1
-12.0,-260.0,-1.0,326.0,838.0,6.0,1
-9.0,-263.0,0.0,311.0,842.0,6.0,1
-5.0,-262.0,1.0,298.0,852.0,5.0,1
-1.0,-257.0,0.0,282.0,866.0,1.0,1
8.0,-254.0,8.0,269.0,886.0,-1.0,1
14.0,-251.0,11.0,256.0,919.0,-11.0,1
32.0,-251.0,14.0,243.0,961.0,-23.0,1
38.0,-245.0,19.0,232.0,1015.0,-42.0,1
54.0,-242.0,41.0,219.0,1075.0,-64.0,1
59.0,-239.0,40.0,211.0,1142.0,-91.0,1
66.0,-243.0,43.0,207.0,1207.0,-118.0,1
71.0,-250.0,40.0,213.0,1258.0,-155.0,1
73.0,-260.0,29.0,230.0,1283.0,-191.0,1
70.0,-275.0,11.0,257.0,1276.0,-223.0,1
64.0,-295.0,-2.0,285.0,1237.0,-246.0,1
57.0,-313.0,-31.0,295.0,1179.0,-259.0,1
46.0,-328.0,-58.0,273.0,1121.0,-264.0,1
32.0,-346.0,-99.0,207.0,1069.0,-258.0,1
17.0,-365.0,-123.0,95.0,1027.0,-237.0,1
0.0,-383.0,-136.0,-37.0,1001.0,-192.0,1
-10.0,-393.0,-128.0,-150.0,983.0,-129.0,1
-20.0,-408.0,-123.0,-215.0,962.0,-43.0,1
-33.0,-417.0,-106.0,-211.0,930.0,70.0,1
-41.0,-422.0,-87.0,-148.0,891.0,208.0,1
-47.0,-422.0,-77.0,-42.0,853.0,358.0,1
-43.0,-421.0,-72.0,85.0,818.0,514.0,1
-30.0,-408.0,-70.0,204.0,777.0,653.0,1
-21.0,-389.0,-74.0,308.0,732.0,767.0,1
-18.0,-366.0,-75.0,393.0,697.0,840.0,1
-15.0,-341.0,-84.0,443.0,676.0,883.0,1
-19.0,-312.0,-90.0,455.0,671.0,888.0,1
-16.0,-285.0,-94.0,434.0,683.0,861.0,1
-15.0,-261.0,-97.0,393.0,711.0,806.0,1
-19.0,-238.0,-100.0,338.0,746.0,736.0,1
-14.0,-223.0,-99.0,274.0,788.0,655.0,1
-11.0,-208.0,-105.0,207.0,836.0,571.0,1
-11.0,-194.0,-108.0,137.0,890.0,485.0,1
-4.0,-185.0,-105.0,74.0,959.0,386.0,1
-1.0,-176.0,-108.0,24.0,1043.0,303.0,1
14.0,-170.0,-101.0,-8.0,1134.0,222.0,1
24.0,-175.0,-98.0,-21.0,1225.0,144.0,1
41.0,-164.0,-93.0,-14.0,1298.0,66.0,1
53.0,-169.0,-90.0,13.0,1348.0,-10.0,1
67.0,-169.0,-83.0,53.0,1372.0,-86.0,1
77.0,-178.0,-82.0,101.0,1367.0,-165.0,1
81.0,-190.0,-79.0,147.0,1337.0,-241.0,1
78.0,-203.0,-77.0,180.0,1295.0,-303.0,1
69.0,-216.0,-78.0,203.0,1247.0,-343.0,1
58.0,-234.0,-77.0,210.0,1194.0,-370.0,1
44.0,-249.0,-73.0,208.0,1134.0,-383.0,1
30.0,-263.0,-70.0,212.0,1072.0,-388.0,1
16.0,-279.0,-65.0,223.0,1012.0,-375.0,1
2.0,-287.0,-69.0,244.0,958.0,-348.0,1
-9.0,-294.0,-70.0,268.0,911.0,-306.0,1
-21.0,-301.0,-71.0,289.0,873.0,-254.0,1
-35.0,-301.0,-70.0,306.0,840.0,-200.0,1
-49.0,-298.0,-66.0,313.0,809.0,-150.0,1
-60.0,-294.0,-64.0,315.0,773.0,-111.0,1
-64.0,-288.0,-63.0,309.0,736.0,-82.0,1
-65.0,-280.0,-57.0,299.0,698.0,-65.0,1
-67.0,-273.0,-51.0,288.0,659.0,-60.0,1
-60.0,-265.0,-49.0,275.0,628.0,-66.0,1
-54.0,-254.0,-55.0,261.0,605.0,-83.0,1
-44.0,-247.0,-51.0,242.0,593.0,-110.0,1
-31.0,-239.0,-45.0,218.0,590.0,-140.0,1
-17.0,-230.0,-46.0,192.0,597.0,-169.0,1
-4.0,-225.0,-46.0,162.0,604.0,-192.0,1
0.0,-217.0,-48.0,126.0,612.0,-211.0,1
9.0,-214.0,-48.0,82.0,619.0,-229.0,1
13.0,-211.0,-46.0,35.0,621.0,-244.0,1
20.0,-212.0,-45.0,-13.0,617.0,-260.0,1
25.0,-217.0,-44.0,-55.0,605.0,-276.0,1
28.0,-218.0,-43.0,-85.0,588.0,-289.0,1
32.0,-224.0,-34.0,-104.0,571.0,-300.0,1
28.0,-218.0,-39.0,-111.0,555.0,-311.0,1
30.0,-224.0,-38.0,-113.0,544.0,-306.0,1
27.0,-228.0,-40.0,-102.0,534.0,-309.0,1
23.0,-235.0,-38.0,-85.0,532.0,-317.0,1
17.0,-236.0,-38.0,-63.0,532.0,-322.0,1
16.0,-238.0,-38.0,-39.0,535.0,-324.0,1
12.0,-240.0,-40.0,-19.0,538.0,-328.0,1
12.0,-243.0,-27.0,5.0,536.0,-331.0,1
14.0,-244.0,-30.0,23.0,532.0,-339.0,1
6.0,-243.0,-28.0,36.0,527.0,-345.0,1
7.0,-247.0,-26.0,44.0,519.0,-350.0,1
5.0,-247.0,-26.0,45.0,508.0,-358.0,1
4.0,-244.0,-22.0,36.0,496.0,-365.0,1
3.0,-248.0,-19.0,19.0,480.0,-373.0,1
4.0,-245.0,-16.0,-4.0,461.0,-382.0,1
5.0,-247.0,-15.0,-31.0,444.0,-389.0,1
7.0,-247.0,-12.0,-57.0,425.0,-396.0,1
5.0,-250.0,-9.0,-74.0,402.0,-403.0,1
4.0,-255.0,-1.0,-85.0,375.0,-407.0,1
2.0,-257.0,-1.0,-87.0,343.0,-408.0,1
1.0,-263.0,2.0,-81.0,306.0,-408.0,1
8.0,-259.0,4.0,-70.0,263.0,-405.0,1
2.0,-264.0,0.0,-59.0,219.0,-400.0,1
2.0,-265.0,0.0,-49.0,176.0,-395.0,1
-1.0,-264.0,0.0,-42.0,131.0,-390.0,1
-4.0,-262.0,-2.0,-42.0,88.0,-382.0,1
0.0,-259.0,1.0,-47.0,44.0,-374.0,1
-2.0,-257.0,0.0,-53.0,3.0,-366.0,1
0.0,-255.0,-3.0,-63.0,-39.0,-356.0,1
-3.0,-248.0,2.0,-78.0,-81.0,-347.0,1
-2.0,-249.0,3.0,-90.0,-123.0,-338.0,1
0.0,-245.0,3.0,-102.0,-167.0,-324.0,1
-5.0,-240.0,4.0,-118.0,-214.0,-308.0,1
-5.0,-237.0,1.0,-130.0,-262.0,-291.0,1
-6.0,-234.0,6.0,-142.0,-309.0,-272.0,1
-1.0,-230.0,-1.0,-154.0,-356.0,-250.0,1
-3.0,-230.0,5.0,-165.0,-400.0,-228.0,1
0.0,-230.0,5.0,-174.0,-442.0,-209.0,1
0.0,-228.0,4.0,-182.0,-484.0,-191.0,1
0.0,-227.0,5.0,-183.0,-525.0,-176.0,1
5.0,-233.0,4.0,-175.0,-566.0,-161.0,1
4.0,-239.0,3.0,-157.0,-610.0,-147.0,1
7.0,-239.0,11.0,-130.0,-652.0,-133.0,1
11.0,-246.0,9.0,-94.0,-693.0,-120.0,1
19.0,-249.0,10.0,-53.0,-722.0,-107.0,1
27.0,-253.0,0.0,-14.0,-732.0,-97.0,1
31.0,-254.0,0.0,16.0,-721.0,-84.0,1
39.0,-255.0,-10.0,33.0,-692.0,-67.0,1
48.0,-255.0,-22.0,32.0,-661.0,-50.0,1
56.0,-250.0,-32.0,8.0,-627.0,-37.0,1
68.0,-253.0,-40.0,-42.0,-593.0,-31.0,1
73.0,-253.0,-38.0,-110.0,-558.0,-27.0,1
84.0,-254.0,-35.0,-193.0,-528.0,-25.0,1
89.0,-262.0,-28.0,-264.0,-501.0,-21.0,1
97.0,-269.0,-23.0,-311.0,-476.0,-21.0,1
100.0,-276.0,-12.0,-334.0,-451.0,-21.0,1
108.0,-286.0,1.0,-335.0,-429.0,-28.0,1
104.0,-291.0,12.0,-317.0,-409.0,-33.0,1
99.0,-293.0,17.0,-287.0,-397.0,-41.0,1
95.0,-297.0,31.0,-248.0,-386.0,-46.0,1
88.0,-294.0,37.0,-207.0,-376.0,-50.0,1
78.0,-290.0,41.0,-176.0,-366.0,-47.0,1
67.0,-279.0,46.0,-153.0,-352.0,-40.0,1
63.0,-274.0,43.0,-135.0,-334.0,-29.0,1
56.0,-272.0,31.0,-123.0,-311.0,-24.0,1
57.0,-269.0,22.0,-114.0,-277.0,-21.0,1
52.0,-273.0,5.0,-109.0,-232.0,-23.0,1
51.0,-278.0,-10.0,-108.0,-188.0,-23.0,1
53.0,-285.0,-25.0,-134.0,-159.0,-35.0,1
53.0,-293.0,-52.0,-216.0,-148.0,-60.0,1
50.0,-308.0,-69.0,-365.0,-133.0,-106.0,1
53.0,-320.0,-80.0,-556.0,-93.0,-161.0,1
58.0,-329.0,-69.0,-727.0,-26.0,-219.0,1
56.0,-340.0,-57.0,-827.0,60.0,-275.0,1
57.0,-349.0,-35.0,-829.0,153.0,-337.0,1
50.0,-355.0,-25.0,-741.0,239.0,-407.0,1
49.0,-359.0,-19.0,-600.0,316.0,-483.0,1
48.0,-354.0,-17.0,-445.0,372.0,-564.0,1
44.0,-354.0,-17.0,-316.0,406.0,-631.0,1
37.0,-344.0,-30.0,-235.0,410.0,-681.0,1
27.0,-341.0,-37.0,-210.0,385.0,-717.0,1
26.0,-336.0,-56.0,-229.0,345.0,-735.0,1
35.0,-337.0,-62.0,-275.0,307.0,-734.0,1
43.0,-337.0,-65.0,-324.0,290.0,-721.0,1
48.0,-338.0,-75.0,-360.0,299.0,-704.0,1
59.0,-332.0,-73.0,-371.0,318.0,-684.0,1
57.0,-328.0,-89.0,-356.0,330.0,-660.0,1
61.0,-321.0,-94.0,-322.0,321.0,-633.0,1
59.0,-309.0,-99.0,-281.0,289.0,-602.0,1
56.0,-296.0,-109.0,-248.0,233.0,-567.0,1
47.0,-283.0,-112.0,-227.0,159.0,-527.0,1
34.0,-264.0,-121.0,-217.0,76.0,-489.0,1
19.0,-248.0,-125.0,-217.0,-16.0,-443.0,1
7.0,-234.0,-126.0,-225.0,-116.0,-398.0,1
-2.0,-223.0,-130.0,-239.0,-218.0,-351.0,1
-24.0,-207.0,-132.0,-258.0,-321.0,-299.0,1
-29.0,-203.0,-134.0,-274.0,-420.0,-247.0,1
-54.0,-198.0,-130.0,-285.0,-510.0,-203.0,1
-65.0,-194.0,-127.0,-285.0,-595.0,-165.0,1
-72.0,-192.0,-127.0,-277.0,-649.0,-133.0,1
-72.0,-193.0,-121.0,-258.0,-688.0,-108.0,1
-73.0,-199.0,-116.0,-230.0,-711.0,-91.0,1
-65.0,-209.0,-105.0,-193.0,-721.0,-82.0,1
-49.0,-217.0,-97.0,-136.0,-719.0,-79.0,1
-34.0,-230.0,-96.0,-86.0,-710.0,-79.0,1
-15.0,-245.0,-83.0,-35.0,-692.0,-78.0,1
2.0,-254.0,-85.0,16.0,-667.0,-73.0,1
22.0,-260.0,-75.0,67.0,-641.0,-64.0,1
35.0,-270.0,-77.0,112.0,-612.0,-59.0,1
48.0,-275.0,-73.0,148.0,-580.0,-61.0,1
59.0,-277.0,-74.0,172.0,-552.0,-67.0,1
67.0,-286.0,-71.0,183.0,-535.0,-78.0,1
71.0,-287.0,-75.0,188.0,-527.0,-87.0,1
78.0,-293.0,-74.0,188.0,-530.0,-95.0,1
84.0,-290.0,-76.0,185.0,-538.0,-95.0,1
84.0,-292.0,-79.0,185.0,-546.0,-83.0,1
78.0,-291.0,-83.0,190.0,-553.0,-56.0,1
75.0,-286.0,-85.0,205.0,-559.0,-16.0,1
74.0,-285.0,-82.0,234.0,-564.0,34.0,1
62.0,-273.0,-86.0,269.0,-572.0,83.0,1
52.0,-265.0,-78.0,305.0,-580.0,136.0,1
41.0,-263.0,-82.0,338.0,-589.0,198.0,1
30.0,-256.0,-78.0,359.0,-596.0,257.0,1
22.0,-252.0,-71.0,369.0,-599.0,308.0,1
12.0,-251.0,-71.0,367.0,-595.0,352.0,1
13.0,-250.0,-73.0,357.0,-584.0,390.0,1
15.0,-243.0,-71.0,336.0,-562.0,417.0,1
13.0,-236.0,-65.0,307.0,-530.0,435.0,1
17.0,-228.0,-63.0,273.0,-497.0,446.0,1
15.0,-229.0,-63.0,235.0,-467.0,454.0,1
18.0,-230.0,-63.0,198.0,-441.0,455.0,1
14.0,-223.0,-60.0,156.0,-422.0,452.0,1
19.0,-222.0,-59.0,110.0,-410.0,446.0,1
20.0,-223.0,-56.0,56.0,-403.0,437.0,1
23.0,-220.0,-55.0,1.0,-403.0,423.0,1
24.0,-222.0,-49.0,-55.0,-407.0,409.0,1
26.0,-222.0,-49.0,-109.0,-414.0,394.0,1
23.0,-220.0,-46.0,-157.0,-419.0,377.0,1
25.0,-225.0,-36.0,-198.0,-421.0,362.0,1
19.0,-227.0,-37.0,-232.0,-417.0,346.0,1
28.0,-232.0,-39.0,-255.0,-406.0,329.0,1
26.0,-233.0,-36.0,-267.0,-385.0,310.0,1
24.0,-234.0,-39.0,-272.0,-359.0,294.0,1
26.0,-238.0,-33.0,-268.0,-330.0,279.0,1
29.0,-240.0,-34.0,-253.0,-298.0,267.0,1
32.0,-241.0,-33.0,-232.0,-262.0,254.0,1
31.0,-240.0,-35.0,-206.0,-221.0,247.0,1
32.0,-241.0,-30.0,-184.0,-178.0,241.0,1
32.0,-242.0,-33.0,-161.0,-135.0,236.0,1
34.0,-243.0,-36.0,-140.0,-97.0,233.0,1
33.0,-242.0,-39.0,-126.0,-61.0,234.0,1
37.0,-239.0,-34.0,-117.0,-26.0,240.0,1
37.0,-235.0,-34.0,-113.0,4.0,248.0,1
34.0,-233.0,-28.0,-118.0,34.0,259.0,1
32.0,-231.0,-30.0,-127.0,60.0,270.0,1
32.0,-228.0,-29.0,-138.0,83.0,277.0,1
31.0,-235.0,-26.0,-144.0,103.0,282.0,1
28.0,-229.0,-25.0,-148.0,121.0,280.0,1
29.0,-231.0,-20.0,-145.0,138.0,279.0,1
26.0,-234.0,-24.0,-130.0,161.0,279.0,1
31.0,-237.0,-15.0,-104.0,186.0,275.0,1
21.0,-235.0,-11.0,-64.0,217.0,266.0,1
23.0,-239.0,-7.0,-14.0,251.0,254.0,1
22.0,-244.0,0.0,42.0,291.0,240.0,1
23.0,-250.0,-2.0,102.0,330.0,224.0,1
18.0,-248.0,2.0,167.0,365.0,206.0,1
16.0,-251.0,2.0,225.0,394.0,189.0,1
13.0,-251.0,0.0,278.0,416.0,170.0,1
11.0,-249.0,7.0,326.0,433.0,153.0,1
13.0,-249.0,0.0,364.0,444.0,134.0,1
13.0,-249.0,1.0,391.0,457.0,114.0,1
10.0,-239.0,-6.0,404.0,470.0,100.0,1
8.0,-241.0,-15.0,403.0,482.0,87.0,1
6.0,-239.0,-7.0,388.0,493.0,71.0,1
10.0,-237.0,-9.0,364.0,499.0,54.0,1
11.0,-241.0,-18.0,322.0,500.0,37.0,1
10.0,-245.0,-22.0,269.0,492.0,19.0,1
6.0,-248.0,-30.0,208.0,468.0,-4.0,1
4.0,-254.0,-34.0,139.0,434.0,-31.0,1
2.0,-257.0,-41.0,65.0,390.0,-60.0,1
-4.0,-261.0,-42.0,-2.0,347.0,-86.0,1
-9.0,-264.0,-38.0,-58.0,311.0,-105.0,1
-11.0,-268.0,-34.0,-105.0,291.0,-116.0,1
-20.0,-271.0,-30.0,-138.0,289.0,-121.0,1
-15.0,-274.0,-9.0,-152.0,298.0,-126.0,1
-17.0,-274.0,10.0,-152.0,318.0,-130.0,1
-13.0,-272.0,26.0,-135.0,339.0,-128.0,1
-11.0,-272.0,42.0,-110.0,354.0,-121.0,1
-6.0,-275.0,56.0,-82.0,361.0,-108.0,1
-6.0,-270.0,61.0,-62.0,355.0,-97.0,1
-1.0,-265.0,63.0,-56.0,337.0,-89.0,1
0.0,-262.0,56.0,-64.0,313.0,-74.0,1
0.0,-269.0,42.0,-78.0,279.0,-55.0,1
6.0,-276.0,26.0,-92.0,231.0,-42.0,1
-4.0,-288.0,4.0,-107.0,164.0,-20.0,1
-15.0,-306.0,-24.0,-132.0,80.0,17.0,1
-34.0,-321.0,-57.0,-186.0,-13.0,73.0,1
-52.0,-344.0,-89.0,-288.0,-104.0,152.0,1
-65.0,-365.0,-116.0,-429.0,-180.0,252.0,1
-83.0,-387.0,-125.0,-584.0,-248.0,359.0,1
-92.0,-409.0,-115.0,-704.0,-313.0,476.0,1
-99.0,-418.0,-95.0,-750.0,-386.0,610.0,1
-95.0,-425.0,-66.0,-693.0,-470.0,756.0,1
-72.0,-427.0,-44.0,-537.0,-553.0,906.0,1
-51.0,-414.0,-28.0,-312.0,-609.0,1036.0,1
-29.0,-399.0,-35.0,-67.0,-624.0,1138.0,1
-15.0,-378.0,-42.0,140.0,-606.0,1211.0,1
-3.0,-358.0,-57.0,265.0,-576.0,1259.0,1
2.0,-338.0,-68.0,303.0,-549.0,1276.0,1
6.0,-317.0,-85.0,270.0,-528.0,1260.0,1
11.0,-297.0,-91.0,200.0,-510.0,1211.0,1
13.0,-281.0,-101.0,120.0,-490.0,1132.0,1
19.0,-268.0,-107.0,48.0,-457.0,1034.0,1
18.0,-257.0,-117.0,0.0,-409.0,928.0,1
20.0,-247.0,-116.0,-32.0,-348.0,829.0,1
23.0,-236.0,-124.0,-51.0,-270.0,738.0,1
22.0,-219.0,-127.0,-63.0,-177.0,646.0,1
28.0,-207.0,-129.0,-68.0,-69.0,576.0,1
32.0,-195.0,-129.0,-65.0,50.0,509.0,1
46.0,-194.0,-130.0,-52.0,170.0,447.0,1
54.0,-184.0,-124.0,-34.0,283.0,389.0,1
62.0,-185.0,-117.0,-20.0,372.0,337.0,1
75.0,-187.0,-110.0,-6.0,434.0,279.0,1
84.0,-195.0,-102.0,12.0,470.0,211.0,1
94.0,-203.0,-97.0,30.0,474.0,141.0,1
88.0,-210.0,-90.0,44.0,465.0,82.0,1
82.0,-220.0,-83.0,57.0,447.0,39.0,1
70.0,-242.0,-87.0,72.0,425.0,6.0,1
56.0,-255.0,-83.0,102.0,394.0,-27.0,1
37.0,-265.0,-80.0,145.0,349.0,-72.0,1
17.0,-276.0,-74.0,201.0,293.0,-114.0,1
2.0,-285.0,-77.0,263.0,234.0,-139.0,1
-12.0,-292.0,-75.0,321.0,175.0,-138.0,1
-33.0,-296.0,-79.0,358.0,122.0,-112.0,1
-49.0,-300.0,-77.0,380.0,75.0,-72.0,1
-65.0,-304.0,-82.0,384.0,38.0,-23.0,1
-72.0,-303.0,-77.0,373.0,15.0,30.0,1
-89.0,-307.0,-74.0,357.0,0.0,79.0,1
-92.0,-305.0,-74.0,342.0,-10.0,118.0,1
-90.0,-301.0,-65.0,344.0,-19.0,140.0,1
-84.0,-295.0,-66.0,358.0,-33.0,139.0,1
-73.0,-288.0,-66.0,387.0,-49.0,110.0,1
-67.0,-278.0,-67.0,423.0,-71.0,51.0,1
-57.0,-268.0,-67.0,462.0,-99.0,-27.0,1
-47.0,-257.0,-68.0,490.0,-129.0,-115.0,1
-38.0,-240.0,-63.0,503.0,-160.0,-194.0,1
-32.0,-230.0,-72.0,490.0,-189.0,-259.0,1
-22.0,-229.0,-77.0,445.0,-216.0,-317.0,1
-17.0,-217.0,-68.0,372.0,-238.0,-373.0,1
-16.0,-214.0,-67.0,276.0,-260.0,-430.0,1
-13.0,-213.0,-66.0,166.0,-278.0,-480.0,1
-7.0,-209.0,-66.0,54.0,-293.0,-520.0,1
-5.0,-210.0,-62.0,-46.0,-306.0,-544.0,1
-8.0,-216.0,-63.0,-123.0,-321.0,-551.0,1
-9.0,-218.0,-59.0,-179.0,-338.0,-552.0,1
-10.0,-219.0,-57.0,-220.0,-356.0,-546.0,1
-10.0,-225.0,-61.0,-245.0,-374.0,-534.0,1
-3.0,-226.0,-59.0,-258.0,-392.0,-519.0,1
-6.0,-235.0,-56.0,-261.0,-409.0,-502.0,1
-6.0,-229.0,-55.0,-260.0,-426.0,-485.0,1
-3.0,-235.0,-52.0,-253.0,-443.0,-464.0,1
-3.0,-243.0,-54.0,-241.0,-458.0,-438.0,1
-1.0,-243.0,-53.0,-227.0,-471.0,-410.0,1
-2.0,-248.0,-51.0,-213.0,-490.0,-380.0,1
-2.0,-250.0,-48.0,-195.0,-516.0,-349.0,1
0.0,-250.0,-42.0,-176.0,-547.0,-325.0,1
-4.0,-249.0,-45.0,-155.0,-582.0,-305.0,1
-5.0,-249.0,-38.0,-133.0,-622.0,-291.0,1
-5.0,-246.0,-36.0,-116.0,-663.0,-282.0,1
-3.0,-250.0,-36.0,-103.0,-702.0,-275.0,1
-4.0,-244.0,-34.0,-93.0,-738.0,-269.0,1
-7.0,-244.0,-34.0,-87.0,-774.0,-264.0,1
-7.0,-242.0,-34.0,-82.0,-807.0,-260.0,1
-6.0,-244.0,-30.0,-77.0,-840.0,-256.0,1
-6.0,-243.0,-30.0,-67.0,-869.0,-252.0,1
-8.0,-241.0,-30.0,-59.0,-896.0,-246.0,1
-4.0,-244.0,-30.0,-50.0,-922.0,-239.0,1
-2.0,-232.0,-26.0,-41.0,-945.0,-229.0,1
0.0,-231.0,-31.0,-38.0,-964.0,-215.0,1
2.0,-229.0,-26.0,-39.0,-979.0,-199.0,1
-2.0,-225.0,-29.0,-47.0,-993.0,-179.0,1
3.0,-223.0,-26.0,-58.0,-1005.0,-156.0,1
7.0,-218.0,-27.0,-69.0,-1019.0,-132.0,1
6.0,-222.0,-19.0,-80.0,-1033.0,-109.0,1
8.0,-222.0,-14.0,-87.0,-1050.0,-84.0,1
10.0,-223.0,-13.0,-86.0,-1070.0,-63.0,1
9.0,-227.0,-13.0,-76.0,-1093.0,-37.0,1
8.0,-237.0,-10.0,-51.0,-1116.0,-12.0,1
5.0,-241.0,-1.0,-14.0,-1141.0,14.0,1
4.0,-247.0,0.0,32.0,-1162.0,37.0,1
3.0,-249.0,2.0,85.0,-1183.0,59.0,1
0.0,-250.0,0.0,142.0,-1194.0,81.0,1
0.0,-254.0,-3.0,189.0,-1203.0,103.0,1
0.0,-251.0,-3.0,228.0,-1204.0,122.0,1
0.0,-253.0,-4.0,251.0,-1202.0,138.0,1
0.0,-254.0,0.0,260.0,-1199.0,149.0,1
0.0,-257.0,1.0,263.0,-1193.0,154.0,1
3.0,-261.0,1.0,265.0,-1186.0,154.0,1
5.0,-263.0,-1.0,270.0,-1170.0,151.0,1
4.0,-263.0,0.0,275.0,-1142.0,146.0,1
6.0,-266.0,-9.0,272.0,-1103.0,150.0,1
15.0,-268.0,-8.0,257.0,-1059.0,153.0,1
24.0,-263.0,-14.0,224.0,-1012.0,151.0,1
31.0,-258.0,-19.0,168.0,-960.0,139.0,1
42.0,-260.0,-8.0,94.0,-903.0,119.0,1
46.0,-261.0,0.0,21.0,-851.0,97.0,1
50.0,-257.0,14.0,-36.0,-806.0,75.0,1
58.0,-262.0,29.0,-63.0,-767.0,48.0,1
62.0,-267.0,39.0,-62.0,-724.0,10.0,1
64.0,-265.0,54.0,-46.0,-679.0,-37.0,1
62.0,-259.0,50.0,-31.0,-633.0,-90.0,1
63.0,-255.0,51.0,-30.0,-589.0,-141.0,1
56.0,-257.0,46.0,-43.0,-547.0,-188.0,1
59.0,-246.0,38.0,-68.0,-499.0,-228.0,1
59.0,-249.0,26.0,-103.0,-450.0,-268.0,1
58.0,-251.0,8.0,-148.0,-395.0,-295.0,1
58.0,-257.0,-11.0,-211.0,-345.0,-318.0,1
58.0,-264.0,-27.0,-295.0,-296.0,-341.0,1
59.0,-279.0,-48.0,-399.0,-238.0,-374.0,1
56.0,-297.0,-55.0,-517.0,-164.0,-415.0,1
54.0,-320.0,-49.0,-619.0,-82.0,-460.0,1
47.0,-338.0,-36.0,-674.0,-10.0,-506.0,1
30.0,-353.0,-16.0,-668.0,40.0,-565.0,1
17.0,-366.0,0.0,-606.0,58.0,-616.0,1
13.0,-377.0,11.0,-501.0,56.0,-677.0,1
13.0,-381.0,13.0,-371.0,55.0,-743.0,1
15.0,-377.0,6.0,-242.0,69.0,-808.0,1
5.0,-369.0,-2.0,-136.0,91.0,-861.0,1
4.0,-363.0,-15.0,-74.0,108.0,-900.0,1
0.0,-354.0,-34.0,-63.0,120.0,-940.0,1
-2.0,-348.0,-54.0,-106.0,131.0,-967.0,1
1.0,-342.0,-70.0,-173.0,143.0,-986.0,1
4.0,-330.0,-80.0,-244.0,149.0,-1000.0,1
10.0,-320.0,-101.0,-309.0,142.0,-1009.0,1
15.0,-316.0,-105.0,-350.0,113.0,-1005.0,1
17.0,-308.0,-112.0,-369.0,56.0,-987.0,1
19.0,-292.0,-117.0,-371.0,-23.0,-952.0,1
19.0,-278.0,-124.0,-360.0,-119.0,-908.0,1
23.0,-264.0,-127.0,-342.0,-213.0,-856.0,1
18.0,-246.0,-123.0,-320.0,-300.0,-804.0,1
15.0,-230.0,-128.0,-302.0,-379.0,-749.0,1
10.0,-216.0,-128.0,-287.0,-456.0,-696.0,1
-1.0,-202.0,-127.0,-283.0,-536.0,-642.0,1
-14.0,-191.0,-124.0,-287.0,-624.0,-582.0,1
-27.0,-179.0,-125.0,-296.0,-711.0,-516.0,1
-40.0,-171.0,-114.0,-309.0,-792.0,-444.0,1
-55.0,-168.0,-114.0,-324.0,-857.0,-373.0,1
-55.0,-178.0,-108.0,-341.0,-899.0,-303.0,1
-60.0,-188.0,-100.0,-355.0,-916.0,-235.0,1
-55.0,-206.0,-97.0,-363.0,-908.0,-171.0,1
-40.0,-229.0,-90.0,-356.0,-883.0,-122.0,1
-19.0,-253.0,-82.0,-333.0,-843.0,-87.0,1
0.0,-268.0,-82.0,-291.0,-788.0,-58.0,1
16.0,-286.0,-73.0,-229.0,-725.0,-29.0,1
33.0,-301.0,-68.0,-149.0,-657.0,0.0,1
49.0,-313.0,-72.0,-59.0,-596.0,14.0,1
63.0,-322.0,-70.0,29.0,-545.0,15.0,1
73.0,-322.0,-76.0,105.0,-512.0,3.0,1
90.0,-323.0,-78.0,158.0,-490.0,-16.0,1
98.0,-318.0,-83.0,174.0,-477.0,-34.0,1
113.0,-313.0,-87.0,162.0,-465.0,-45.0,1
119.0,-303.0,-88.0,131.0,-448.0,-46.0,1
122.0,-303.0,-89.0,100.0,-421.0,-37.0,1
117.0,-296.0,-80.0,80.0,-394.0,-18.0,1
112.0,-295.0,-77.0,85.0,-376.0,9.0,1
100.0,-289.0,-68.0,111.0,-368.0,46.0,1
78.0,-280.0,-66.0,151.0,-373.0,94.0,1
65.0,-272.0,-67.0,196.0,-384.0,150.0,1
49.0,-263.0,-67.0,240.0,-395.0,202.0,1
40.0,-252.0,-69.0,265.0,-402.0,247.0,1
32.0,-246.0,-66.0,269.0,-405.0,285.0,1
23.0,-231.0,-72.0,252.0,-401.0,319.0,1
14.0,-222.0,-70.0,217.0,-392.0,349.0,1
10.0,-215.0,-72.0,163.0,-376.0,375.0,1
7.0,-208.0,-70.0,104.0,-358.0,394.0,1
8.0,-212.0,-69.0,42.0,-337.0,398.0,1
8.0,-209.0,-66.0,-13.0,-313.0,390.0,1
9.0,-210.0,-66.0,-64.0,-287.0,377.0,1
16.0,-210.0,-62.0,-112.0,-263.0,370.0,1
20.0,-218.0,-59.0,-156.0,-239.0,367.0,1
23.0,-220.0,-56.0,-191.0,-224.0,363.0,1
28.0,-223.0,-52.0,-212.0,-214.0,356.0,1
32.0,-224.0,-50.0,-223.0,-209.0,346.0,1
32.0,-230.0,-48.0,-227.0,-207.0,336.0,1
36.0,-226.0,-47.0,-226.0,-202.0,324.0,1
37.0,-229.0,-41.0,-226.0,-194.0,319.0,1
39.0,-227.0,-36.0,-227.0,-182.0,314.0,1
41.0,-236.0,-41.0,-227.0,-162.0,308.0,1
39.0,-233.0,-38.0,-229.0,-138.0,298.0,1
40.0,-231.0,-33.0,-233.0,-110.0,291.0,1
43.0,-232.0,-38.0,-235.0,-77.0,283.0,1
43.0,-234.0,-36.0,-240.0,-40.0,274.0,1
45.0,-234.0,-31.0,-244.0,-1.0,264.0,1
48.0,-234.0,-33.0,-248.0,42.0,258.0,1
47.0,-234.0,-28.0,-256.0,83.0,249.0,1
49.0,-239.0,-32.0,-265.0,124.0,244.0,1
46.0,-240.0,-23.0,-276.0,161.0,241.0,1
46.0,-243.0,-25.0,-283.0,191.0,241.0,1
47.0,-248.0,-27.0,-287.0,214.0,242.0,1
35.0,-243.0,-26.0,-284.0,232.0,246.0,1
35.0,-241.0,-24.0,-281.0,246.0,254.0,1
33.0,-241.0,-26.0,-278.0,258.0,259.0,1
32.0,-242.0,-25.0,-271.0,272.0,263.0,1
29.0,-239.0,-24.0,-266.0,289.0,264.0,1
27.0,-238.0,-24.0,-260.0,311.0,263.0,1
28.0,-239.0,-23.0,-255.0,338.0,260.0,1
34.0,-241.0,-20.0,-246.0,370.0,255.0,1
35.0,-243.0,-17.0,-228.0,409.0,245.0,1
32.0,-245.0,-14.0,-205.0,452.0,230.0,1
42.0,-254.0,-6.0,-169.0,496.0,211.0,1
35.0,-254.0,-9.0,-126.0,537.0,188.0,1
36.0,-256.0,-12.0,-79.0,574.0,158.0,1
33.0,-256.0,-7.0,-24.0,608.0,125.0,1
40.0,-258.0,-8.0,34.0,636.0,91.0,1
39.0,-258.0,-14.0,93.0,662.0,56.0,1
36.0,-259.0,-12.0,146.0,685.0,20.0,1
33.0,-261.0,-14.0,195.0,706.0,-13.0,1
33.0,-263.0,-12.0,238.0,723.0,-42.0,1
36.0,-264.0,-11.0,270.0,733.0,-71.0,1
31.0,-267.0,-4.0,296.0,736.0,-97.0,1
32.0,-274.0,-2.0,311.0,734.0,-124.0,1
28.0,-268.0,-1.0,315.0,722.0,-147.0,1
25.0,-268.0,0.0,310.0,698.0,-164.0,1
19.0,-268.0,1.0,294.0,657.0,-176.0,1
15.0,-269.0,0.0,267.0,595.0,-184.0,1
7.0,-267.0,-3.0,227.0,516.0,-186.0,1
3.0,-266.0,-6.0,175.0,427.0,-180.0,1
-2.0,-265.0,-5.0,113.0,337.0,-168.0,1
-9.0,-259.0,-11.0,42.0,262.0,-144.0,1
-15.0,-249.0,-9.0,-38.0,202.0,-114.0,1
-17.0,-246.0,-3.0,-113.0,164.0,-77.0,1
-17.0,-239.0,7.0,-175.0,149.0,-39.0,1
-20.0,-236.0,21.0,-217.0,147.0,2.0,1
-13.0,-236.0,31.0,-239.0,147.0,47.0,1
-8.0,-241.0,39.0,-232.0,140.0,96.0,1
-3.0,-254.0,39.0,-198.0,123.0,144.0,1
-2.0,-262.0,34.0,-147.0,92.0,192.0,1
-3.0,-282.0,22.0,-87.0,42.0,244.0,1
-14.0,-299.0,7.0,-19.0,-22.0,303.0,1
-28.0,-320.0,-14.0,41.0,-91.0,367.0,1
-41.0,-345.0,-50.0,63.0,-167.0,441.0,1
-58.0,-364.0,-81.0,21.0,-244.0,521.0,1
-68.0,-377.0,-113.0,-97.0,-318.0,624.0,1
-81.0,-388.0,-127.0,-269.0,-382.0,709.0,1
-85.0,-402.0,-129.0,-453.0,-432.0,791.0,1
-88.0,-410.0,-122.0,-594.0,-482.0,873.0,1
-88.0,-414.0,-100.0,-641.0,-551.0,955.0,1
-73.0,-419.0,-89.0,-574.0,-621.0,1036.0,1
-51.0,-410.0,-74.0,-400.0,-680.0,1100.0,1
-35.0,-398.0,-79.0,-166.0,-703.0,1144.0,1
-11.0,-384.0,-86.0,67.0,-684.0,1167.0,1
1.0,-358.0,-96.0,284.0,-638.0,1171.0,1
10.0,-329.0,-108.0,379.0,-577.0,1154.0,1
25.0,-309.0,-113.0,401.0,-506.0,1112.0,1
34.0,-283.0,-116.0,371.0,-436.0,1051.0,1
46.0,-261.0,-126.0,304.0,-363.0,969.0,1
52.0,-240.0,-127.0,221.0,-290.0,873.0,1
53.0,-219.0,-131.0,132.0,-214.0,770.0,1
56.0,-202.0,-133.0,40.0,-134.0,672.0,1
56.0,-187.0,-130.0,-47.0,-58.0,575.0,1
62.0,-174.0,-126.0,-120.0,14.0,486.0,1
61.0,-162.0,-117.0,-171.0,76.0,402.0,1
64.0,-157.0,-112.0,-192.0,128.0,331.0,1
58.0,-157.0,-97.0,-178.0,172.0,272.0,1
67.0,-165.0,-94.0,-138.0,211.0,217.0,1
70.0,-178.0,-88.0,-84.0,246.0,162.0,1
63.0,-194.0,-78.0,-30.0,277.0,106.0,1
55.0,-214.0,-75.0,20.0,298.0,62.0,1
41.0,-231.0,-68.0,66.0,305.0,35.0,1
25.0,-255.0,-66.0,119.0,291.0,15.0,1
8.0,-269.0,-62.0,184.0,248.0,-11.0,1
-3.0,-282.0,-60.0,260.0,185.0,-41.0,1
-14.0,-295.0,-56.0,342.0,116.0,-62.0,1
-28.0,-303.0,-63.0,417.0,47.0,-71.0,1
-36.0,-309.0,-63.0,471.0,-17.0,-67.0,1
-52.0,-310.0,-69.0,495.0,-73.0,-47.0,1
-65.0,-308.0,-77.0,490.0,-125.0,-16.0,1
-75.0,-313.0,-75.0,470.0,-172.0,24.0,1
-85.0,-314.0,-75.0,441.0,-218.0,66.0,1
-93.0,-312.0,-73.0,422.0,-263.0,105.0,1
-98.0,-309.0,-73.0,413.0,-304.0,134.0,1
-98.0,-306.0,-63.0,411.0,-343.0,141.0,1
-99.0,-300.0,-67.0,417.0,-377.0,131.0,1
-92.0,-289.0,-63.0,428.0,-408.0,101.0,1
-83.0,-272.0,-59.0,436.0,-435.0,54.0,1
-67.0,-264.0,-56.0,443.0,-461.0,-16.0,1
-56.0,-257.0,-51.0,446.0,-484.0,-101.0,1
-39.0,-248.0,-52.0,438.0,-506.0,-186.0,1
-25.0,-240.0,-54.0,420.0,-525.0,-269.0,1
-11.0,-230.0,-52.0,383.0,-538.0,-352.0,1
5.0,-217.0,-55.0,327.0,-541.0,-432.0,1
18.0,-210.0,-62.0,250.0,-531.0,-505.0,1
24.0,-198.0,-65.0,154.0,-514.0,-565.0,1
26.0,-193.0,-61.0,38.0,-498.0,-609.0,1
29.0,-194.0,-59.0,-94.0,-486.0,-636.0,1
24.0,-202.0,-59.0,-220.0,-484.0,-643.0,1
23.0,-210.0,-55.0,-327.0,-493.0,-630.0,1
19.0,-224.0,-49.0,-400.0,-514.0,-603.0,1
16.0,-230.0,-47.0,-435.0,-540.0,-578.0,1
14.0,-241.0,-49.0,-441.0,-563.0,-542.0,1
13.0,-247.0,-44.0,-417.0,-581.0,-501.0,1
9.0,-249.0,-49.0,-376.0,-594.0,-460.0,1
9.0,-251.0,-47.0,-323.0,-598.0,-415.0,1
10.0,-255.0,-44.0,-272.0,-602.0,-376.0,1
5.0,-256.0,-44.0,-227.0,-610.0,-350.0,1
5.0,-261.0,-47.0,-192.0,-615.0,-331.0,1
6.0,-256.0,-40.0,-170.0,-621.0,-319.0,1
6.0,-259.0,-39.0,-149.0,-628.0,-309.0,1
2.0,-258.0,-34.0,-130.0,-640.0,-303.0,1
3.0,-260.0,-34.0,-106.0,-659.0,-298.0,1
1.0,-258.0,-31.0,-83.0,-681.0,-297.0,1
0.0,-252.0,-33.0,-66.0,-704.0,-294.0,1
3.0,-249.0,-30.0,-55.0,-723.0,-290.0,1
0.0,-245.0,-23.0,-50.0,-743.0,-288.0,1
-1.0,-245.0,-21.0,-48.0,-759.0,-287.0,1
2.0,-238.0,-18.0,-48.0,-773.0,-283.0,1
10.0,-236.0,-19.0,-50.0,-782.0,-277.0,1
12.0,-232.0,-15.0,-49.0,-791.0,-270.0,1
11.0,-232.0,-12.0,-48.0,-797.0,-263.0,1
16.0,-231.0,-11.0,-49.0,-799.0,-253.0,1
21.0,-225.0,-9.0,-50.0,-797.0,-240.0,1
27.0,-221.0,-5.0,-52.0,-794.0,-225.0,1
29.0,-219.0,-10.0,-61.0,-793.0,-210.0,1
32.0,-219.0,-8.0,-72.0,-791.0,-194.0,1
34.0,-226.0,0.0,-86.0,-791.0,-171.0,1
33.0,-228.0,-2.0,-98.0,-796.0,-147.0,1
39.0,-230.0,1.0,-100.0,-807.0,-120.0,1
37.0,-234.0,0.0,-90.0,-820.0,-89.0,1
33.0,-241.0,0.0,-72.0,-839.0,-56.0,1
33.0,-242.0,-1.0,-39.0,-860.0,-28.0,1
32.0,-246.0,-6.0,6.0,-885.0,-1.0,1
28.0,-247.0,-2.0,57.0,-908.0,23.0,1
22.0,-248.0,-3.0,105.0,-931.0,46.0,1
15.0,-243.0,-5.0,144.0,-956.0,69.0,1
13.0,-243.0,-11.0,171.0,-979.0,90.0,1
8.0,-246.0,-11.0,187.0,-998.0,110.0,1
6.0,-244.0,-5.0,192.0,-1007.0,129.0,1
4.0,-246.0,-8.0,188.0,-1011.0,147.0,1
1.0,-251.0,-8.0,179.0,-1010.0,163.0,1
-1.0,-257.0,-12.0,167.0,-1002.0,178.0,1
1.0,-258.0,-10.0,151.0,-974.0,195.0,1
2.0,-261.0,-9.0,129.0,-927.0,216.0,1
11.0,-260.0,-10.0,100.0,-881.0,238.0,1
21.0,-260.0,-14.0,63.0,-835.0,252.0,1
35.0,-259.0,-15.0,13.0,-787.0,257.0,1
44.0,-259.0,-6.0,-48.0,-731.0,254.0,1
54.0,-260.0,3.0,-107.0,-673.0,243.0,1
60.0,-259.0,14.0,-149.0,-624.0,224.0,1
69.0,-263.0,30.0,-162.0,-582.0,195.0,1
73.0,-263.0,38.0,-145.0,-541.0,156.0,1
79.0,-271.0,48.0,-112.0,-503.0,103.0,1
84.0,-267.0,51.0,-76.0,-464.0,41.0,1
85.0,-266.0,54.0,-48.0,-419.0,-20.0,1
82.0,-264.0,45.0,-24.0,-371.0,-79.0,1
80.0,-260.0,40.0,-9.0,-317.0,-135.0,1
75.0,-261.0,26.0,-13.0,-270.0,-187.0,1
65.0,-264.0,5.0,-42.0,-238.0,-230.0,1
61.0,-271.0,-13.0,-101.0,-220.0,-269.0,1
50.0,-277.0,-38.0,-197.0,-205.0,-306.0,1
38.0,-290.0,-59.0,-328.0,-179.0,-343.0,1
28.0,-316.0,-64.0,-484.0,-136.0,-383.0,1
14.0,-335.0,-70.0,-629.0,-72.0,-423.0,1
3.0,-357.0,-63.0,-718.0,1.0,-464.0,1
-1.0,-374.0,-51.0,-727.0,70.0,-511.0,1
-2.0,-385.0,-37.0,-665.0,126.0,-573.0,1
-1.0,-394.0,-29.0,-547.0,168.0,-645.0,1
1.0,-398.0,-27.0,-389.0,202.0,-724.0,1
0.0,-391.0,-24.0,-222.0,233.0,-818.0,1
-1.0,-384.0,-36.0,-71.0,263.0,-889.0,1
4.0,-375.0,-49.0,34.0,281.0,-947.0,1
1.0,-357.0,-66.0,75.0,285.0,-995.0,1
5.0,-348.0,-82.0,49.0,276.0,-1031.0,1
8.0,-334.0,-94.0,-26.0,252.0,-1052.0,1
17.0,-318.0,-109.0,-126.0,202.0,-1065.0,1
17.0,-305.0,-119.0,-234.0,143.0,-1059.0,1
26.0,-291.0,-124.0,-330.0,68.0,-1031.0,1
31.0,-279.0,-128.0,-403.0,-28.0,-991.0,1
33.0,-264.0,-132.0,-444.0,-134.0,-940.0,1
36.0,-246.0,-135.0,-458.0,-240.0,-883.0,1
43.0,-230.0,-133.0,-449.0,-336.0,-821.0,1
36.0,-212.0,-133.0,-425.0,-423.0,-758.0,1
17.0,-191.0,-134.0,-386.0,-508.0,-694.0,1
2.0,-178.0,-125.0,-347.0,-595.0,-624.0,1
-12.0,-168.0,-119.0,-310.0,-687.0,-550.0,1
-34.0,-156.0,-109.0,-282.0,-774.0,-469.0,1
-48.0,-159.0,-100.0,-258.0,-851.0,-380.0,1
-62.0,-166.0,-96.0,-237.0,-910.0,-282.0,1
-70.0,-184.0,-90.0,-218.0,-947.0,-179.0,1
-71.0,-202.0,-84.0,-200.0,-961.0,-82.0,1
-71.0,-222.0,-81.0,-171.0,-956.0,-3.0,1
-56.0,-246.0,-73.0,-134.0,-936.0,59.0,1
-40.0,-265.0,-73.0,-88.0,-900.0,109.0,1
-26.0,-285.0,-64.0,-29.0,-847.0,156.0,1
-11.0,-298.0,-63.0,51.0,-785.0,197.0,1
3.0,-311.0,-65.0,145.0,-721.0,229.0,1
17.0,-313.0,-67.0,240.0,-667.0,245.0,1
34.0,-315.0,-74.0,314.0,-633.0,245.0,1
47.0,-309.0,-90.0,342.0,-620.0,229.0,1
59.0,-306.0,-91.0,329.0,-624.0,206.0,1
70.0,-304.0,-99.0,281.0,-630.0,187.0,1
87.0,-301.0,-98.0,217.0,-632.0,172.0,1
89.0,-291.0,-100.0,154.0,-625.0,158.0,1
92.0,-287.0,-93.0,109.0,-609.0,150.0,1
90.0,-282.0,-82.0,92.0,-590.0,152.0,1
81.0,-274.0,-77.0,102.0,-570.0,163.0,1
70.0,-264.0,-69.0,131.0,-555.0,181.0,1
65.0,-260.0,-61.0,171.0,-547.0,200.0,1
55.0,-254.0,-58.0,209.0,-543.0,216.0,1
48.0,-244.0,-55.0,242.0,-540.0,226.0,1
42.0,-236.0,-47.0,261.0,-534.0,238.0,1
37.0,-229.0,-50.0,258.0,-523.0,252.0,1
35.0,-224.0,-47.0,227.0,-505.0,271.0,1
26.0,-217.0,-46.0,179.0,-485.0,292.0,1
23.0,-211.0,-52.0,122.0,-465.0,305.0,1
20.0,-214.0,-48.0,60.0,-450.0,311.0,1
22.0,-215.0,-48.0,1.0,-439.0,315.0,1
18.0,-216.0,-50.0,-43.0,-429.0,311.0,1
22.0,-221.0,-47.0,-72.0,-416.0,301.0,1
23.0,-219.0,-43.0,-90.0,-401.0,288.0,1
27.0,-222.0,-44.0,-102.0,-386.0,277.0,1
26.0,-227.0,-38.0,-105.0,-369.0,268.0,1
30.0,-226.0,-38.0,-103.0,-353.0,260.0,1
30.0,-228.0,-36.0,-101.0,-339.0,252.0,1
28.0,-232.0,-25.0,-93.0,-325.0,245.0,1
30.0,-231.0,-37.0,-90.0,-313.0,236.0,1
29.0,-229.0,-29.0,-91.0,-304.0,227.0,1
28.0,-230.0,-29.0,-98.0,-293.0,219.0,1
27.0,-230.0,-28.0,-110.0,-280.0,208.0,1
25.0,-231.0,-29.0,-127.0,-265.0,196.0,1
25.0,-232.0,-29.0,-148.0,-248.0,188.0,1
18.0,-231.0,-27.0,-175.0,-225.0,181.0,1
21.0,-233.0,-25.0,-200.0,-197.0,174.0,1
25.0,-234.0,-21.0,-225.0,-165.0,168.0,1
22.0,-236.0,-20.0,-246.0,-132.0,165.0,1
25.0,-238.0,-13.0,-262.0,-98.0,162.0,1
20.0,-235.0,-17.0,-275.0,-65.0,158.0,1
22.0,-239.0,-10.0,-285.0,-38.0,154.0,1
19.0,-237.0,-10.0,-293.0,-16.0,151.0,1
18.0,-241.0,-9.0,-303.0,0.0,150.0,1
12.0,-236.0,-9.0,-307.0,13.0,150.0,1
8.0,-235.0,-12.0,-314.0,22.0,151.0,1
7.0,-235.0,-5.0,-317.0,29.0,152.0,1
6.0,-232.0,-12.0,-319.0,41.0,159.0,1
9.0,-230.0,-5.0,-323.0,55.0,168.0,1
8.0,-228.0,-7.0,-323.0,75.0,178.0,1
7.0,-227.0,-10.0,-321.0,100.0,182.0,1
10.0,-229.0,-7.0,-316.0,132.0,181.0,1
21.0,-234.0,-6.0,-307.0,167.0,176.0,1
24.0,-234.0,-9.0,-286.0,205.0,164.0,1
30.0,-239.0,-7.0,-263.0,245.0,147.0,1
41.0,-245.0,-5.0,-229.0,283.0,121.0,1
44.0,-245.0,-9.0,-193.0,318.0,92.0,1
52.0,-251.0,-3.0,-149.0,345.0,55.0,1
59.0,-254.0,-8.0,-102.0,367.0,17.0,1
60.0,-253.0,-7.0,-61.0,380.0,-24.0,1
62.0,-254.0,-13.0,-26.0,386.0,-57.0,1
63.0,-256.0,-18.0,-2.0,384.0,-86.0,1
60.0,-259.0,-24.0,11.0,377.0,-111.0,1
56.0,-261.0,-18.0,14.0,365.0,-128.0,1
53.0,-264.0,-15.0,7.0,353.0,-144.0,1
50.0,-265.0,-13.0,-5.0,344.0,-151.0,1
43.0,-268.0,-7.0,-21.0,330.0,-155.0,1
39.0,-274.0,0.0,-40.0,317.0,-153.0,1
39.0,-280.0,0.0,-54.0,301.0,-146.0,1
29.0,-281.0,2.0,-66.0,283.0,-136.0,1
27.0,-278.0,5.0,-76.0,264.0,-122.0,1
17.0,-281.0,3.0,-88.0,243.0,-107.0,1
13.0,-280.0,0.0,-102.0,216.0,-91.0,1
9.0,-281.0,-7.0,-123.0,188.0,-70.0,1
0.0,-284.0,-17.0,-147.0,152.0,-46.0,1
-9.0,-293.0,-27.0,-181.0,111.0,-20.0,1
-21.0,-296.0,-30.0,-224.0,67.0,18.0,1
-34.0,-310.0,-35.0,-271.0,23.0,68.0,1
-51.0,-320.0,-43.0,-321.0,-25.0,128.0,1
-62.0,-337.0,-51.0,-368.0,-78.0,206.0,1
-71.0,-357.0,-55.0,-403.0,-131.0,316.0,1
-74.0,-379.0,-58.0,-417.0,-175.0,419.0,1
-77.0,-398.0,-57.0,-402.0,-207.0,525.0,1
-79.0,-417.0,-61.0,-354.0,-236.0,627.0,1
-78.0,-428.0,-60.0,-278.0,-275.0,734.0,1
-84.0,-428.0,-65.0,-181.0,-327.0,841.0,1
-73.0,-427.0,-70.0,-64.0,-400.0,932.0,1
-64.0,-409.0,-82.0,65.0,-443.0,1001.0,1
-43.0,-390.0,-89.0,189.0,-454.0,1039.0,1
-29.0,-366.0,-106.0,293.0,-432.0,1045.0,1
-17.0,-338.0,-114.0,357.0,-386.0,1029.0,1
-10.0,-311.0,-128.0,376.0,-332.0,991.0,1
-3.0,-283.0,-136.0,355.0,-280.0,934.0,1
1.0,-257.0,-147.0,284.0,-226.0,861.0,1
6.0,-228.0,-156.0,201.0,-169.0,773.0,1
19.0,-214.0,-151.0,108.0,-106.0,685.0,1
28.0,-197.0,-145.0,18.0,-44.0,602.0,1
36.0,-182.0,-131.0,-51.0,3.0,517.0,1
41.0,-175.0,-120.0,-97.0,31.0,438.0,1
47.0,-175.0,-103.0,-116.0,41.0,371.0,1
45.0,-182.0,-94.0,-114.0,40.0,304.0,1
53.0,-194.0,-86.0,-97.0,33.0,228.0,1
52.0,-212.0,-79.0,-84.0,24.0,146.0,1
45.0,-234.0,-76.0,-78.0,14.0,68.0,1
40.0,-254.0,-75.0,-69.0,-4.0,1.0,1
30.0,-271.0,-78.0,-57.0,-35.0,-58.0,1
21.0,-285.0,-82.0,-49.0,-79.0,-108.0,1
11.0,-297.0,-85.0,-43.0,-134.0,-147.0,1
4.0,-308.0,-85.0,-41.0,-194.0,-173.0,1
-6.0,-310.0,-92.0,-41.0,-244.0,-176.0,1
-17.0,-311.0,-95.0,-44.0,-291.0,-161.0,1
-29.0,-318.0,-96.0,-43.0,-328.0,-137.0,1
-39.0,-319.0,-101.0,-32.0,-361.0,-105.0,1
-50.0,-316.0,-95.0,-3.0,-396.0,-69.0,1
-56.0,-317.0,-88.0,46.0,-429.0,-31.0,1
-63.0,-313.0,-89.0,108.0,-462.0,0.0,1
-65.0,-309.0,-86.0,176.0,-490.0,19.0,1
-61.0,-300.0,-81.0,242.0,-517.0,26.0,1
-63.0,-287.0,-78.0,297.0,-545.0,20.0,1
-62.0,-274.0,-79.0,339.0,-576.0,2.0,1
-54.0,-263.0,-80.0,362.0,-615.0,-28.0,1
-53.0,-253.0,-76.0,364.0,-663.0,-71.0,1
-44.0,-243.0,-80.0,340.0,-713.0,-127.0,1
-35.0,-232.0,-79.0,292.0,-761.0,-190.0,1
-27.0,-220.0,-81.0,221.0,-804.0,-257.0,1
-13.0,-212.0,-84.0,131.0,-837.0,-316.0,1
-5.0,-200.0,-85.0,25.0,-867.0,-366.0,1
3.0,-196.0,-90.0,-89.0,-888.0,-406.0,1
7.0,-193.0,-84.0,-202.0,-905.0,-438.0,1
13.0,-194.0,-83.0,-308.0,-917.0,-466.0,1
17.0,-196.0,-84.0,-400.0,-922.0,-483.0,1
22.0,-202.0,-76.0,-473.0,-927.0,-484.0,1
21.0,-207.0,-76.0,-522.0,-930.0,-473.0,1
16.0,-215.0,-69.0,-542.0,-932.0,-450.0,1
15.0,-223.0,-71.0,-541.0,-935.0,-411.0,1
13.0,-231.0,-67.0,-520.0,-941.0,-363.0,1
16.0,-239.0,-63.0,-485.0,-951.0,-312.0,1
12.0,-248.0,-63.0,-441.0,-960.0,-264.0,1
8.0,-243.0,-61.0,-396.0,-969.0,-216.0,1
10.0,-248.0,-59.0,-353.0,-976.0,-172.0,1
13.0,-247.0,-59.0,-322.0,-979.0,-136.0,1
13.0,-249.0,-51.0,-300.0,-979.0,-105.0,1
14.0,-252.0,-47.0,-287.0,-977.0,-82.0,1
17.0,-254.0,-50.0,-280.0,-974.0,-61.0,1
17.0,-258.0,-46.0,-275.0,-971.0,-48.0,1
18.0,-263.0,-44.0,-265.0,-970.0,-40.0,1
13.0,-258.0,-48.0,-254.0,-969.0,-39.0,1
18.0,-263.0,-44.0,-235.0,-970.0,-42.0,1
15.0,-260.0,-52.0,-209.0,-969.0,-49.0,1
16.0,-259.0,-49.0,-177.0,-965.0,-59.0,1
15.0,-258.0,-45.0,-145.0,-959.0,-68.0,1
12.0,-253.0,-47.0,-113.0,-950.0,-78.0,1
17.0,-253.0,-44.0,-82.0,-938.0,-87.0,1
13.0,-247.0,-42.0,-54.0,-928.0,-94.0,1
15.0,-240.0,-41.0,-25.0,-920.0,-104.0,1
14.0,-239.0,-36.0,0.0,-916.0,-113.0,1
14.0,-229.0,-31.0,27.0,-913.0,-122.0,1
18.0,-230.0,-27.0,55.0,-915.0,-132.0,1
17.0,-227.0,-20.0,84.0,-919.0,-139.0,1
22.0,-225.0,-12.0,116.0,-924.0,-144.0,1
23.0,-219.0,-12.0,151.0,-919.0,-147.0,1
26.0,-221.0,-11.0,194.0,-911.0,-147.0,1
25.0,-224.0,-12.0,237.0,-905.0,-141.0,1
28.0,-226.0,-5.0,279.0,-897.0,-130.0,1
27.0,-224.0,-6.0,319.0,-890.0,-116.0,1
22.0,-225.0,-4.0,352.0,-883.0,-101.0,1
23.0,-222.0,-1.0,373.0,-881.0,-82.0,1
22.0,-226.0,-2.0,388.0,-883.0,-61.0,1
17.0,-224.0,-2.0,396.0,-888.0,-42.0,1
17.0,-228.0,0.0,393.0,-892.0,-20.0,1
17.0,-228.0,-16.0,385.0,-889.0,-1.0,1
13.0,-226.0,-13.0,370.0,-874.0,22.0,1
12.0,-226.0,-21.0,346.0,-853.0,51.0,1
14.0,-227.0,-25.0,306.0,-832.0,81.0,1
16.0,-227.0,-32.0,251.0,-812.0,108.0,1
16.0,-234.0,-34.0,189.0,-792.0,129.0,1
19.0,-241.0,-22.0,135.0,-770.0,148.0,1
23.0,-249.0,-12.0,102.0,-751.0,163.0,1
20.0,-256.0,-6.0,86.0,-733.0,170.0,1
25.0,-267.0,9.0,96.0,-708.0,174.0,1
28.0,-272.0,15.0,120.0,-679.0,169.0,1
33.0,-274.0,32.0,146.0,-639.0,153.0,1
37.0,-279.0,41.0,165.0,-598.0,123.0,1
39.0,-279.0,48.0,175.0,-561.0,76.0,1
32.0,-277.0,51.0,168.0,-534.0,24.0,1
33.0,-268.0,57.0,140.0,-512.0,-26.0,1
27.0,-260.0,53.0,91.0,-488.0,-66.0,1
33.0,-255.0,43.0,26.0,-459.0,-102.0,1
36.0,-255.0,35.0,-45.0,-415.0,-131.0,1
31.0,-258.0,11.0,-119.0,-355.0,-154.0,1
36.0,-265.0,0.0,-189.0,-292.0,-174.0,1
41.0,-277.0,-21.0,-260.0,-238.0,-193.0,1
37.0,-294.0,-39.0,-343.0,-200.0,-221.0,1
43.0,-319.0,-52.0,-425.0,-169.0,-254.0,1
42.0,-347.0,-58.0,-490.0,-130.0,-291.0,1
42.0,-376.0,-59.0,-522.0,-80.0,-338.0,1
37.0,-392.0,-61.0,-507.0,-28.0,-395.0,1
28.0,-403.0,-60.0,-444.0,14.0,-463.0,1
25.0,-408.0,-57.0,-353.0,46.0,-560.0,1
21.0,-409.0,-63.0,-249.0,68.0,-661.0,1
20.0,-403.0,-75.0,-151.0,86.0,-778.0,1
13.0,-398.0,-92.0,-71.0,98.0,-892.0,1
-2.0,-385.0,-113.0,-22.0,104.0,-989.0,1
-14.0,-367.0,-129.0,-14.0,95.0,-1067.0,1
-25.0,-349.0,-146.0,-44.0,62.0,-1140.0,1
-25.0,-328.0,-158.0,-98.0,12.0,-1208.0,1
-26.0,-310.0,-172.0,-167.0,-53.0,-1266.0,1
-25.0,-288.0,-180.0,-236.0,-135.0,-1314.0,1
-28.0,-258.0,-180.0,-298.0,-235.0,-1346.0,1
-26.0,-232.0,-173.0,-349.0,-349.0,-1352.0,1
-25.0,-207.0,-168.0,-366.0,-454.0,-1329.0,1
-21.0,-188.0,-160.0,-361.0,-545.0,-1277.0,1
-22.0,-166.0,-151.0,-349.0,-620.0,-1203.0,1
-24.0,-153.0,-141.0,-337.0,-680.0,-1108.0,1
-17.0,-151.0,-125.0,-320.0,-725.0,-986.0,1
-18.0,-160.0,-111.0,-283.0,-760.0,-848.0,1
-21.0,-180.0,-95.0,-219.0,-791.0,-696.0,1
-28.0,-197.0,-82.0,-134.0,-830.0,-537.0,1
-22.0,-217.0,-81.0,-42.0,-869.0,-381.0,1
-19.0,-230.0,-77.0,43.0,-906.0,-237.0,1
-8.0,-244.0,-81.0,110.0,-924.0,-107.0,1
-2.0,-255.0,-78.0,156.0,-915.0,17.0,1
3.0,-270.0,-78.0,189.0,-884.0,130.0,1
14.0,-287.0,-71.0,221.0,-837.0,223.0,1
19.0,-301.0,-72.0,256.0,-778.0,295.0,1
29.0,-316.0,-83.0,300.0,-715.0,342.0,1
44.0,-325.0,-83.0,345.0,-660.0,366.0,1
57.0,-333.0,-92.0,386.0,-614.0,369.0,1
74.0,-344.0,-96.0,414.0,-570.0,359.0,1
88.0,-341.0,-100.0,436.0,-520.0,336.0,1
104.0,-342.0,-102.0,452.0,-461.0,300.0,1
120.0,-331.0,-101.0,464.0,-402.0,254.0,1
127.0,-321.0,-99.0,470.0,-347.0,201.0,1
133.0,-306.0,-89.0,470.0,-301.0,157.0,1
127.0,-293.0,-80.0,459.0,-265.0,127.0,1
123.0,-276.0,-68.0,439.0,-245.0,113.0,1
113.0,-260.0,-62.0,409.0,-236.0,113.0,1
105.0,-255.0,-58.0,371.0,-240.0,111.0,1
90.0,-246.0,-49.0,340.0,-248.0,117.0,1
74.0,-236.0,-45.0,320.0,-251.0,136.0,1
61.0,-228.0,-47.0,303.0,-248.0,170.0,1
48.0,-217.0,-51.0,286.0,-239.0,209.0,1
36.0,-211.0,-53.0,262.0,-228.0,250.0,1
18.0,-207.0,-55.0,226.0,-215.0,289.0,1
7.0,-200.0,-59.0,178.0,-205.0,323.0,1
1.0,-204.0,-53.0,123.0,-200.0,349.0,1
-10.0,-202.0,-53.0,65.0,-194.0,369.0,1
-13.0,-202.0,-53.0,4.0,-184.0,383.0,1
-11.0,-207.0,-49.0,-55.0,-167.0,392.0,1
-7.0,-215.0,-47.0,-104.0,-148.0,396.0,1
-4.0,-223.0,-46.0,-135.0,-130.0,393.0,1
1.0,-227.0,-43.0,-152.0,-115.0,387.0,1
7.0,-228.0,-40.0,-156.0,-103.0,381.0,1
7.0,-230.0,-41.0,-147.0,-97.0,381.0,1
14.0,-233.0,-36.0,-136.0,-93.0,384.0,1
17.0,-230.0,-33.0,-123.0,-90.0,381.0,1
20.0,-230.0,-32.0,-115.0,-86.0,377.0,1
21.0,-237.0,-26.0,-112.0,-80.0,380.0,1
26.0,-240.0,-24.0,-110.0,-71.0,383.0,1
26.0,-245.0,-21.0,-110.0,-61.0,386.0,1
29.0,-246.0,-21.0,-103.0,-45.0,389.0,1
28.0,-251.0,-12.0,-100.0,-25.0,396.0,1
29.0,-252.0,-8.0,-101.0,0.0,404.0,1
27.0,-255.0,-3.0,-98.0,25.0,412.0,1
31.0,-257.0,-1.0,-94.0,51.0,419.0,1
31.0,-259.0,-1.0,-88.0,78.0,423.0,1
33.0,-261.0,-1.0,-85.0,103.0,427.0,1
31.0,-267.0,-4.0,-87.0,124.0,425.0,1
31.0,-269.0,-2.0,-86.0,142.0,417.0,1
30.0,-273.0,-6.0,-83.0,159.0,406.0,1
30.0,-277.0,-2.0,-73.0,172.0,387.0,1
33.0,-279.0,-6.0,-49.0,182.0,364.0,1
29.0,-277.0,-3.0,-10.0,187.0,333.0,1
30.0,-275.0,-5.0,38.0,184.0,305.0,1
26.0,-265.0,-10.0,91.0,176.0,275.0,1
23.0,-257.0,-12.0,144.0,158.0,244.0,1
26.0,-255.0,-11.0,189.0,138.0,211.0,1
25.0,-244.0,-15.0,222.0,120.0,176.0,1
30.0,-238.0,-17.0,242.0,109.0,142.0,1
33.0,-235.0,-21.0,248.0,106.0,111.0,1
33.0,-229.0,-11.0,239.0,109.0,82.0,1
36.0,-230.0,-12.0,224.0,112.0,55.0,1
39.0,-233.0,-9.0,204.0,121.0,33.0,1
45.0,-239.0,-2.0,184.0,139.0,15.0,1
47.0,-245.0,0.0,167.0,163.0,1.0,1
54.0,-255.0,6.0,147.0,192.0,-13.0,1
57.0,-260.0,16.0,122.0,230.0,-24.0,1
60.0,-266.0,27.0,103.0,268.0,-32.0,1
62.0,-275.0,31.0,88.0,306.0,-36.0,1
62.0,-279.0,34.0,80.0,342.0,-36.0,1
60.0,-282.0,43.0,79.0,368.0,-29.0,1
59.0,-284.0,47.0,80.0,386.0,-15.0,1
59.0,-283.0,49.0,73.0,397.0,3.0,1
56.0,-281.0,44.0,57.0,404.0,20.0,1
52.0,-278.0,43.0,29.0,409.0,40.0,1
41.0,-275.0,40.0,-8.0,414.0,59.0,1
36.0,-272.0,35.0,-52.0,416.0,79.0,1
26.0,-268.0,28.0,-100.0,413.0,100.0,1
24.0,-267.0,21.0,-144.0,411.0,116.0,1
14.0,-264.0,13.0,-180.0,408.0,124.0,1
14.0,-261.0,-5.0,-208.0,405.0,128.0,1
4.0,-255.0,-14.0,-227.0,393.0,127.0,1
-9.0,-252.0,-32.0,-240.0,374.0,123.0,1
-20.0,-242.0,-51.0,-256.0,345.0,119.0,1
-35.0,-235.0,-69.0,-279.0,308.0,116.0,1
-52.0,-219.0,-79.0,-309.0,270.0,112.0,1
-68.0,-200.0,-103.0,-351.0,231.0,111.0,1
-81.0,-189.0,-124.0,-400.0,189.0,116.0,1
-90.0,-174.0,-145.0,-451.0,145.0,130.0,1
-105.0,-161.0,-172.0,-501.0,97.0,149.0,1
-111.0,-157.0,-186.0,-554.0,52.0,181.0,1
-116.0,-146.0,-215.0,-616.0,4.0,229.0,1
-120.0,-141.0,-224.0,-689.0,-36.0,287.0,1
-117.0,-134.0,-239.0,-772.0,-68.0,365.0,1
-109.0,-137.0,-245.0,-866.0,-92.0,462.0,1
-105.0,-145.0,-242.0,-975.0,-122.0,576.0,1
-99.0,-164.0,-231.0,-1088.0,-157.0,709.0,1
-83.0,-188.0,-210.0,-1196.0,-206.0,842.0,1
-61.0,-224.0,-184.0,-1274.0,-267.0,940.0,1
-36.0,-257.0,-152.0,-1298.0,-331.0,989.0,1
-18.0,-294.0,-126.0,-1234.0,-390.0,1004.0,1
8.0,-338.0,-96.0,-1095.0,-447.0,991.0,1
24.0,-358.0,-68.0,-880.0,-499.0,953.0,1
45.0,-384.0,-49.0,-599.0,-546.0,896.0,1
64.0,-397.0,-40.0,-298.0,-572.0,822.0,1
85.0,-407.0,-32.0,-26.0,-579.0,735.0,1
101.0,-415.0,-40.0,196.0,-573.0,623.0,1
106.0,-411.0,-49.0,344.0,-543.0,501.0,1
108.0,-402.0,-71.0,398.0,-492.0,384.0,1
97.0,-388.0,-91.0,345.0,-421.0,274.0,1
83.0,-367.0,-107.0,201.0,-337.0,177.0,1
70.0,-355.0,-125.0,5.0,-249.0,85.0,1
65.0,-344.0,-130.0,-196.0,-160.0,-5.0,1
43.0,-332.0,-132.0,-367.0,-86.0,-99.0,1
13.0,-323.0,-138.0,-500.0,-43.0,-188.0,1
-9.0,-314.0,-139.0,-592.0,-43.0,-268.0,1
-26.0,-304.0,-124.0,-646.0,-90.0,-342.0,1
-23.0,-283.0,-122.0,-677.0,-172.0,-413.0,1
-30.0,-272.0,-126.0,-694.0,-262.0,-495.0,1
-2.0,-246.0,-136.0,-709.0,-333.0,-575.0,1
11.0,-228.0,-113.0,-729.0,-373.0,-638.0,1
21.0,-215.0,-106.0,-758.0,-382.0,-669.0,1
11.0,-198.0,-92.0,-797.0,-371.0,-669.0,1
26.0,-190.0,-81.0,-846.0,-355.0,-639.0,1
16.0,-183.0,-77.0,-911.0,-347.0,-591.0,1
18.0,-184.0,-78.0,-985.0,-350.0,-532.0,1
7.0,-186.0,-75.0,-1069.0,-373.0,-454.0,1
6.0,-187.0,-85.0,-1158.0,-421.0,-370.0,1
-12.0,-184.0,-92.0,-1245.0,-492.0,-297.0,1
-9.0,-189.0,-105.0,-1337.0,-571.0,-241.0,1
-2.0,-207.0,-108.0,-1440.0,-643.0,-204.0,1
0.0,-225.0,-119.0,-1551.0,-697.0,-183.0,1
2.0,-246.0,-117.0,-1658.0,-731.0,-175.0,1
6.0,-257.0,-120.0,-1752.0,-757.0,-184.0,1
7.0,-275.0,-110.0,-1826.0,-781.0,-211.0,1
5.0,-285.0,-100.0,-1862.0,-812.0,-257.0,1
16.0,-309.0,-99.0,-1858.0,-843.0,-321.0,1
21.0,-319.0,-91.0,-1817.0,-872.0,-400.0,1
24.0,-326.0,-94.0,-1739.0,-897.0,-483.0,1
23.0,-327.0,-95.0,-1639.0,-918.0,-569.0,1
30.0,-326.0,-99.0,-1527.0,-934.0,-652.0,1
30.0,-327.0,-105.0,-1407.0,-951.0,-728.0,1
32.0,-321.0,-107.0,-1291.0,-965.0,-801.0,1
30.0,-316.0,-113.0,-1188.0,-974.0,-864.0,1
23.0,-311.0,-105.0,-1105.0,-983.0,-912.0,1
20.0,-297.0,-110.0,-1043.0,-991.0,-947.0,1
17.0,-285.0,-112.0,-1004.0,-997.0,-977.0,1
13.0,-273.0,-107.0,-985.0,-1006.0,-999.0,1
6.0,-260.0,-111.0,-984.0,-1019.0,-1015.0,1
5.0,-249.0,-107.0,-1002.0,-1040.0,-1026.0,1
3.0,-235.0,-100.0,-1032.0,-1069.0,-1024.0,1
0.0,-223.0,-94.0,-1077.0,-1112.0,-1012.0,1
-5.0,-213.0,-85.0,-1133.0,-1171.0,-993.0,1
-24.0,-203.0,-89.0,-1196.0,-1242.0,-962.0,1
-28.0,-194.0,-85.0,-1258.0,-1323.0,-925.0,1
-42.0,-186.0,-73.0,-1314.0,-1403.0,-880.0,1
-48.0,-179.0,-69.0,-1356.0,-1478.0,-824.0,1
-61.0,-172.0,-67.0,-1384.0,-1548.0,-757.0,1
-66.0,-167.0,-72.0,-1391.0,-1596.0,-681.0,1
-69.0,-167.0,-70.0,-1386.0,-1631.0,-591.0,1
-80.0,-165.0,-71.0,-1372.0,-1651.0,-495.0,1
-79.0,-169.0,-68.0,-1352.0,-1660.0,-389.0,1
-81.0,-176.0,-71.0,-1330.0,-1660.0,-281.0,1
-73.0,-180.0,-74.0,-1309.0,-1649.0,-179.0,1
-71.0,-178.0,-74.0,-1290.0,-1625.0,-76.0,1
-64.0,-181.0,-82.0,-1266.0,-1592.0,26.0,1
-53.0,-184.0,-82.0,-1243.0,-1554.0,133.0,1
-39.0,-178.0,-92.0,-1225.0,-1518.0,239.0,1
-16.0,-179.0,-93.0,-1220.0,-1485.0,338.0,1
0.0,-167.0,-90.0,-1225.0,-1452.0,421.0,1
24.0,-158.0,-96.0,-1250.0,-1419.0,488.0,1
44.0,-148.0,-97.0,-1300.0,-1386.0,538.0,1
66.0,-136.0,-100.0,-1368.0,-1356.0,570.0,1
86.0,-129.0,-91.0,-1437.0,-1336.0,584.0,1
104.0,-126.0,-85.0,-1503.0,-1329.0,586.0,1
114.0,-131.0,-76.0,-1548.0,-1329.0,581.0,1
127.0,-141.0,-79.0,-1566.0,-1328.0,570.0,1
128.0,-158.0,-76.0,-1551.0,-1312.0,558.0,1
131.0,-184.0,-83.0,-1499.0,-1270.0,548.0,1
128.0,-207.0,-88.0,-1425.0,-1187.0,544.0,1
128.0,-226.0,-93.0,-1331.0,-1062.0,545.0,1
127.0,-240.0,-106.0,-1210.0,-904.0,548.0,1
121.0,-244.0,-117.0,-1073.0,-732.0,551.0,1
112.0,-252.0,-128.0,-921.0,-564.0,551.0,1
107.0,-256.0,-152.0,-767.0,-415.0,553.0,1
101.0,-253.0,-170.0,-635.0,-294.0,553.0,1
96.0,-255.0,-187.0,-551.0,-191.0,541.0,1
88.0,-250.0,-201.0,-530.0,-93.0,513.0,1
79.0,-247.0,-212.0,-574.0,3.0,471.0,1
69.0,-241.0,-216.0,-669.0,92.0,420.0,1
65.0,-241.0,-215.0,-813.0,174.0,368.0,1
57.0,-234.0,-220.0,-988.0,255.0,313.0,1
46.0,-228.0,-225.0,-1179.0,333.0,264.0,1
38.0,-223.0,-232.0,-1372.0,417.0,226.0,1
34.0,-216.0,-234.0,-1557.0,529.0,201.0,1
27.0,-207.0,-232.0,-1729.0,665.0,176.0,1
18.0,-198.0,-241.0,-1874.0,812.0,164.0,1
10.0,-200.0,-243.0,-1979.0,946.0,167.0,1
0.0,-197.0,-255.0,-2029.0,1051.0,189.0,1
-17.0,-200.0,-267.0,-2020.0,1115.0,227.0,1
-27.0,-209.0,-280.0,-1961.0,1142.0,276.0,1
-37.0,-219.0,-301.0,-1865.0,1159.0,329.0,1
-43.0,-233.0,-320.0,-1761.0,1191.0,389.0,1
-53.0,-251.0,-342.0,-1676.0,1238.0,447.0,1
-62.0,-264.0,-361.0,-1624.0,1298.0,494.0,1
-67.0,-282.0,-376.0,-1620.0,1365.0,525.0,1
-75.0,-295.0,-391.0,-1668.0,1427.0,540.0,1
-79.0,-315.0,-401.0,-1792.0,1473.0,541.0,1
-77.0,-322.0,-408.0,-1948.0,1493.0,540.0,1
-70.0,-338.0,-408.0,-2140.0,1472.0,529.0,1
-57.0,-355.0,-414.0,-2367.0,1414.0,519.0,1
-41.0,-368.0,-413.0,-2621.0,1333.0,506.0,1
-25.0,-374.0,-413.0,-2883.0,1251.0,483.0,1
-11.0,-383.0,-399.0,-3128.0,1184.0,453.0,1
-2.0,-380.0,-389.0,-3340.0,1134.0,413.0,1
1.0,-376.0,-372.0,-3496.0,1090.0,372.0,1
3.0,-369.0,-346.0,-3585.0,1042.0,344.0,1
5.0,-358.0,-319.0,-3594.0,985.0,325.0,1
3.0,-343.0,-295.0,-3529.0,916.0,316.0,1
8.0,-330.0,-269.0,-3413.0,832.0,316.0,1
2.0,-312.0,-246.0,-3262.0,739.0,333.0,1
2.0,-291.0,-215.0,-3094.0,639.0,362.0,1
-1.0,-271.0,-184.0,-2912.0,534.0,400.0,1
-7.0,-257.0,-150.0,-2724.0,424.0,446.0,1
-17.0,-235.0,-123.0,-2531.0,306.0,501.0,1
-22.0,-222.0,-94.0,-2343.0,187.0,562.0,1
-27.0,-212.0,-64.0,-2172.0,70.0,618.0,1
-35.0,-202.0,-41.0,-2031.0,-37.0,659.0,1
-38.0,-192.0,-27.0,-1931.0,-135.0,683.0,1
-44.0,-186.0,-8.0,-1872.0,-222.0,695.0,1
-47.0,-179.0,5.0,-1848.0,-305.0,690.0,1
-49.0,-171.0,11.0,-1843.0,-386.0,676.0,1
-49.0,-161.0,25.0,-1848.0,-465.0,654.0,1
-49.0,-152.0,34.0,-1864.0,-540.0,632.0,1
-40.0,-142.0,43.0,-1893.0,-606.0,611.0,1
-39.0,-133.0,57.0,-1928.0,-663.0,592.0,1
-38.0,-122.0,66.0,-1965.0,-703.0,574.0,1
-34.0,-108.0,86.0,-2003.0,-719.0,556.0,1
-32.0,-93.0,97.0,-2037.0,-707.0,541.0,1
-36.0,-71.0,134.0,-2060.0,-665.0,531.0,1
-19.0,-49.0,158.0,-2078.0,-605.0,524.0,1
-11.0,-21.0,182.0,-2093.0,-551.0,515.0,1
0.0,5.0,199.0,-2117.0,-528.0,505.0,1
4.0,44.0,222.0,-2155.0,-558.0,499.0,1
13.0,80.0,236.0,-2210.0,-634.0,506.0,1
15.0,122.0,243.0,-2298.0,-760.0,516.0,1
39.0,154.0,240.0,-2434.0,-931.0,544.0,1
66.0,161.0,219.0,-2608.0,-1117.0,587.0,1
109.0,152.0,183.0,-2827.0,-1290.0,618.0,1
150.0,123.0,147.0,-3098.0,-1429.0,611.0,1
186.0,88.0,98.0,-3358.0,-1533.0,570.0,1
205.0,31.0,49.0,-3501.0,-1557.0,519.0,1
201.0,-41.0,12.0,-3436.0,-1449.0,485.0,1
193.0,-96.0,-18.0,-3135.0,-1201.0,478.0,1
180.0,-141.0,-14.0,-2657.0,-835.0,514.0,1
178.0,-173.0,0.0,-2049.0,-417.0,571.0,1
174.0,-181.0,-4.0,-1365.0,2.0,624.0,1
171.0,-180.0,-10.0,-697.0,394.0,648.0,1
151.0,-151.0,-33.0,-136.0,737.0,625.0,1
113.0,-100.0,-63.0,239.0,995.0,557.0,1
91.0,-61.0,-79.0,400.0,1126.0,460.0,1
59.0,-16.0,-103.0,379.0,1098.0,348.0,1
33.0,24.0,-118.0,243.0,902.0,229.0,1
15.0,60.0,-130.0,15.0,673.0,144.0,1
5.0,80.0,-139.0,-244.0,549.0,112.0,1
-4.0,96.0,-147.0,-497.0,526.0,114.0,1
-2.0,100.0,-157.0,-695.0,515.0,127.0,1
-4.0,99.0,-148.0,-803.0,463.0,123.0,1
-6.0,88.0,-153.0,-800.0,375.0,81.0,1
-33.0,70.0,-159.0,-692.0,250.0,-2.0,1
-63.0,60.0,-181.0,-511.0,94.0,-92.0,1
-93.0,36.0,-186.0,-297.0,-54.0,-142.0,1
-125.0,13.0,-186.0,-78.0,-161.0,-153.0,1
-147.0,13.0,-161.0,123.0,-233.0,-128.0,1
-172.0,1.0,-186.0,312.0,-312.0,-67.0,1
-187.0,4.0,-199.0,499.0,-430.0,27.0,1
-194.0,9.0,-238.0,656.0,-586.0,136.0,1
-194.0,18.0,-270.0,740.0,-776.0,251.0,1
-192.0,34.0,-306.0,736.0,-1002.0,353.0,1
-191.0,50.0,-336.0,649.0,-1254.0,435.0,1
-192.0,63.0,-356.0,513.0,-1509.0,506.0,1
-201.0,67.0,-376.0,377.0,-1748.0,569.0,1
-186.0,70.0,-389.0,257.0,-1977.0,628.0,1
-177.0,68.0,-390.0,173.0,-2189.0,667.0,1
-166.0,64.0,-381.0,133.0,-2364.0,679.0,1
-159.0,57.0,-377.0,143.0,-2489.0,676.0,1
-149.0,45.0,-372.0,189.0,-2574.0,665.0,1
-131.0,34.0,-366.0,268.0,-2637.0,631.0,1
-115.0,26.0,-359.0,368.0,-2697.0,556.0,1
-92.0,22.0,-353.0,469.0,-2751.0,463.0,1
-69.0,24.0,-339.0,561.0,-2785.0,365.0,1
-33.0,25.0,-329.0,633.0,-2812.0,284.0,1
-2.0,21.0,-320.0,706.0,-2815.0,212.0,1
24.0,20.0,-300.0,770.0,-2788.0,154.0,1
54.0,21.0,-292.0,833.0,-2737.0,114.0,1
75.0,17.0,-291.0,871.0,-2693.0,92.0,1
90.0,28.0,-301.0,857.0,-2666.0,84.0,1
95.0,63.0,-326.0,798.0,-2652.0,112.0,1
62.0,113.0,-357.0,662.0,-2639.0,235.0,1
12.0,173.0,-409.0,442.0,-2634.0,460.0,1
-2122.0,1678.0,-4041.0,-14.0,-2542.0,822.0,1
-2010.0,370.0,244.0,-10341.0,5537.0,5230.0,1
836.0,756.0,2178.0,-13225.0,7909.0,8376.0,1
1704.0,506.0,-710.0,368.0,1903.0,5900.0,1
718.0,951.0,-828.0,2741.0,-1858.0,4039.0,1
189.0,770.0,-636.0,482.0,-2441.0,3753.0,1
-129.0,558.0,-894.0,-499.0,-3066.0,2973.0,1
-525.0,346.0,-1003.0,-1125.0,-3201.0,2310.0,1
-676.0,391.0,-1081.0,-1410.0,-2998.0,2132.0,1
-734.0,298.0,-1130.0,-1458.0,-2554.0,2013.0,1
-802.0,209.0,-1071.0,-1306.0,-2093.0,1838.0,1
-807.0,228.0,-1067.0,-1145.0,-1890.0,1794.0,1
-685.0,186.0,-1025.0,-673.0,-1569.0,1880.0,1
-541.0,106.0,-946.0,-196.0,-1042.0,1967.0,1
-392.0,51.0,-825.0,-146.0,-462.0,1833.0,1
-287.0,83.0,-777.0,-341.0,-14.0,1430.0,1
-264.0,149.0,-667.0,-531.0,227.0,974.0,1
-70.0,44.0,-571.0,-837.0,115.0,685.0,1
-37.0,-33.0,-562.0,-637.0,230.0,244.0,1
-114.0,102.0,-539.0,-304.0,354.0,-307.0,1
-66.0,-3.0,-510.0,-211.0,234.0,-483.0,1
-3.0,36.0,-546.0,-299.0,146.0,-495.0,1
75.0,-140.0,-529.0,-856.0,217.0,-880.0,1
-59.0,-44.0,-472.0,-1597.0,360.0,-1626.0,1
-80.0,-27.0,-456.0,-2565.0,358.0,-2005.0,1
19.0,-178.0,-348.0,-2947.0,434.0,-2119.0,1
-83.0,-127.0,-330.0,-2504.0,709.0,-2271.0,1
-103.0,-109.0,-304.0,-1633.0,1050.0,-2130.0,1
-121.0,-44.0,-247.0,-629.0,1337.0,-1931.0,1
-158.0,75.0,-228.0,271.0,1219.0,-1896.0,1
-255.0,277.0,-244.0,1038.0,956.0,-2056.0,1
-419.0,499.0,-313.0,1639.0,794.0,-2185.0,1
-510.0,672.0,-320.0,1963.0,952.0,-1989.0,1
-477.0,763.0,-311.0,1973.0,1276.0,-1539.0,1
-455.0,769.0,-291.0,1702.0,1610.0,-1074.0,1
-379.0,671.0,-294.0,1200.0,1824.0,-664.0,1
-283.0,549.0,-275.0,674.0,1828.0,-488.0,1
-209.0,443.0,-243.0,75.0,1587.0,-520.0,1
-133.0,346.0,-194.0,-534.0,1183.0,-598.0,1
-75.0,262.0,-151.0,-1026.0,739.0,-624.0,1
-50.0,197.0,-109.0,-1324.0,367.0,-572.0,1
-44.0,127.0,-84.0,-1377.0,104.0,-482.0,1
-43.0,50.0,-70.0,-1199.0,-49.0,-370.0,1
-52.0,-1.0,-59.0,-888.0,-121.0,-247.0,1
-59.0,-57.0,-66.0,-542.0,-148.0,-131.0,1
-59.0,-90.0,-76.0,-230.0,-153.0,-48.0,1
-59.0,-116.0,-98.0,6.0,-148.0,2.0,1
-60.0,-119.0,-121.0,148.0,-146.0,29.0,1
-58.0,-115.0,-132.0,208.0,-159.0,42.0,1
-55.0,-97.0,-136.0,208.0,-189.0,45.0,1
-46.0,-76.0,-137.0,188.0,-237.0,34.0,1
-29.0,-51.0,-134.0,169.0,-281.0,8.0,1
-17.0,-26.0,-128.0,166.0,-308.0,-36.0,1
-1.0,4.0,-121.0,174.0,-321.0,-81.0,1
3.0,35.0,-110.0,183.0,-327.0,-122.0,1
17.0,63.0,-95.0,187.0,-334.0,-167.0,1
24.0,92.0,-73.0,183.0,-350.0,-214.0,1
26.0,115.0,-58.0,169.0,-390.0,-260.0,1
22.0,130.0,-57.0,143.0,-456.0,-300.0,1
15.0,145.0,-66.0,89.0,-536.0,-329.0,1
7.0,158.0,-73.0,-1.0,-614.0,-352.0,1
-6.0,167.0,-84.0,-119.0,-687.0,-366.0,1
-20.0,168.0,-90.0,-242.0,-756.0,-373.0,1
-36.0,157.0,-99.0,-347.0,-818.0,-369.0,1
-48.0,140.0,-109.0,-417.0,-870.0,-362.0,1
-58.0,133.0,-117.0,-443.0,-912.0,-354.0,1
-72.0,111.0,-104.0,-421.0,-961.0,-348.0,1
-76.0,91.0,-103.0,-362.0,-1025.0,-345.0,1
-83.0,72.0,-92.0,-280.0,-1099.0,-354.0,1
-76.0,59.0,-91.0,-177.0,-1175.0,-361.0,1
-78.0,48.0,-88.0,-75.0,-1246.0,-376.0,1
-76.0,39.0,-90.0,20.0,-1317.0,-394.0,1
-72.0,34.0,-93.0,97.0,-1388.0,-416.0,1
-76.0,34.0,-109.0,137.0,-1460.0,-443.0,1
-76.0,31.0,-121.0,138.0,-1532.0,-478.0,1
-80.0,33.0,-136.0,103.0,-1599.0,-518.0,1
-94.0,38.0,-152.0,40.0,-1657.0,-566.0,1
-103.0,34.0,-167.0,-35.0,-1707.0,-619.0,1
-124.0,33.0,-176.0,-110.0,-1759.0,-667.0,1
-143.0,37.0,-184.0,-168.0,-1811.0,-710.0,1
-164.0,38.0,-192.0,-202.0,-1861.0,-738.0,1
-182.0,39.0,-199.0,-212.0,-1905.0,-752.0,1
-195.0,44.0,-209.0,-198.0,-1935.0,-753.0,1
-210.0,48.0,-229.0,-170.0,-1940.0,-737.0,1
-225.0,58.0,-253.0,-140.0,-1918.0,-708.0,1
-244.0,63.0,-263.0,-114.0,-1876.0,-666.0,1
-258.0,64.0,-282.0,-100.0,-1838.0,-612.0,1
-276.0,65.0,-308.0,-105.0,-1810.0,-558.0,1
-282.0,66.0,-321.0,-132.0,-1783.0,-503.0,1
-272.0,67.0,-349.0,-183.0,-1733.0,-447.0,1
-265.0,66.0,-365.0,-249.0,-1634.0,-375.0,1
-259.0,63.0,-376.0,-323.0,-1500.0,-303.0,1
-259.0,58.0,-373.0,-405.0,-1360.0,-248.0,1
-261.0,50.0,-368.0,-486.0,-1247.0,-213.0,1
-253.0,48.0,-369.0,-549.0,-1158.0,-197.0,1
-247.0,33.0,-356.0,-583.0,-1094.0,-208.0,1
-234.0,20.0,-350.0,-594.0,-1042.0,-257.0,1
-231.0,17.0,-361.0,-591.0,-982.0,-332.0,1
-233.0,8.0,-347.0,-579.0,-894.0,-406.0,1
-248.0,8.0,-341.0,-559.0,-793.0,-465.0,1
-256.0,1.0,-328.0,-519.0,-700.0,-516.0,1
-265.0,-7.0,-319.0,-457.0,-611.0,-563.0,1
-269.0,-7.0,-300.0,-374.0,-520.0,-604.0,1
-272.0,-17.0,-293.0,-275.0,-424.0,-638.0,1
-269.0,-13.0,-281.0,-175.0,-327.0,-650.0,1
-250.0,-16.0,-278.0,-94.0,-226.0,-633.0,1
-216.0,-11.0,-270.0,-46.0,-115.0,-595.0,1
-186.0,-6.0,-258.0,-32.0,11.0,-537.0,1
-166.0,0.0,-247.0,-42.0,124.0,-475.0,1
-163.0,8.0,-239.0,-60.0,205.0,-406.0,1
-156.0,12.0,-231.0,-73.0,245.0,-329.0,1
-156.0,15.0,-222.0,-82.0,249.0,-244.0,1
-155.0,18.0,-215.0,-84.0,235.0,-160.0,1
-151.0,18.0,-201.0,-83.0,211.0,-75.0,1
-155.0,25.0,-192.0,-79.0,198.0,13.0,1
-150.0,20.0,-187.0,-75.0,206.0,105.0,1
-158.0,24.0,-175.0,-67.0,234.0,193.0,1
-163.0,31.0,-172.0,-62.0,275.0,268.0,1
-162.0,30.0,-165.0,-59.0,323.0,325.0,1
-164.0,27.0,-155.0,-62.0,368.0,358.0,1
-166.0,29.0,-154.0,-72.0,404.0,365.0,1
-162.0,28.0,-152.0,-80.0,423.0,349.0,1
-159.0,26.0,-156.0,-92.0,429.0,317.0,1
-157.0,26.0,-148.0,-100.0,425.0,274.0,1
-159.0,30.0,-153.0,-103.0,414.0,230.0,1
-161.0,30.0,-153.0,-102.0,394.0,187.0,1
-159.0,34.0,-154.0,-94.0,367.0,149.0,1
-160.0,37.0,-147.0,-78.0,337.0,117.0,1
-162.0,46.0,-149.0,-60.0,305.0,92.0,1
-163.0,44.0,-147.0,-36.0,275.0,70.0,1
-158.0,50.0,-156.0,-12.0,249.0,56.0,1
-156.0,53.0,-154.0,14.0,228.0,46.0,1
-151.0,59.0,-156.0,31.0,213.0,43.0,1
-150.0,58.0,-156.0,36.0,203.0,42.0,1
-143.0,56.0,-155.0,31.0,197.0,52.0,1
-140.0,56.0,-156.0,16.0,192.0,71.0,1
-136.0,49.0,-161.0,-6.0,183.0,97.0,1
-135.0,48.0,-161.0,-35.0,175.0,127.0,1
-131.0,36.0,-158.0,-66.0,165.0,164.0,1
-133.0,33.0,-161.0,-99.0,151.0,200.0,1
-141.0,25.0,-172.0,-124.0,139.0,231.0,1
-141.0,16.0,-177.0,-142.0,130.0,256.0,1
-144.0,17.0,-184.0,-151.0,128.0,270.0,1
-146.0,12.0,-194.0,-152.0,132.0,273.0,1
-154.0,12.0,-197.0,-146.0,142.0,268.0,1
-157.0,14.0,-208.0,-137.0,159.0,258.0,1
-162.0,17.0,-214.0,-123.0,179.0,239.0,1
-162.0,21.0,-219.0,-105.0,199.0,217.0,1
-167.0,25.0,-221.0,-83.0,214.0,192.0,1
-171.0,31.0,-227.0,-58.0,228.0,167.0,1
-169.0,37.0,-239.0,-32.0,240.0,144.0,1
-167.0,42.0,-235.0,-7.0,251.0,125.0,1
-173.0,47.0,-235.0,9.0,262.0,107.0,1
-172.0,51.0,-237.0,22.0,268.0,92.0,1
-175.0,56.0,-239.0,26.0,270.0,82.0,1
-174.0,61.0,-239.0,23.0,270.0,75.0,1
-175.0,62.0,-242.0,15.0,267.0,72.0,1
-174.0,62.0,-246.0,1.0,269.0,74.0,1
-176.0,64.0,-248.0,-16.0,273.0,79.0,1
-172.0,64.0,-249.0,-33.0,277.0,89.0,1
-176.0,69.0,-247.0,-51.0,282.0,99.0,1
-175.0,63.0,-248.0,-67.0,290.0,110.0,1
-171.0,62.0,-247.0,-75.0,300.0,120.0,1
-171.0,60.0,-252.0,-77.0,310.0,132.0,1
-172.0,60.0,-248.0,-75.0,324.0,144.0,1
-169.0,55.0,-246.0,-70.0,339.0,155.0,1
-164.0,52.0,-247.0,-65.0,360.0,162.0,1
-164.0,49.0,-247.0,-62.0,379.0,169.0,1
-162.0,46.0,-243.0,-64.0,400.0,176.0,1
-160.0,44.0,-242.0,-69.0,419.0,180.0,1
-161.0,46.0,-240.0,-70.0,434.0,185.0,1
-159.0,40.0,-238.0,-63.0,442.0,189.0,1
-165.0,40.0,-241.0,-54.0,452.0,189.0,1
-158.0,37.0,-245.0,-46.0,461.0,187.0,1
-157.0,36.0,-243.0,-33.0,468.0,186.0,1
-159.0,36.0,-244.0,-16.0,468.0,184.0,1
-156.0,37.0,-240.0,9.0,467.0,182.0,1
-162.0,39.0,-241.0,34.0,466.0,177.0,1
-159.0,37.0,-238.0,57.0,465.0,176.0,1
-164.0,38.0,-238.0,83.0,462.0,175.0,1
-164.0,42.0,-237.0,105.0,452.0,169.0,1
-168.0,40.0,-235.0,122.0,441.0,165.0,1
-166.0,40.0,-232.0,134.0,425.0,160.0,1
-170.0,46.0,-236.0,137.0,406.0,154.0,1
-167.0,45.0,-235.0,135.0,389.0,149.0,1
-166.0,46.0,-227.0,127.0,369.0,141.0,1
-168.0,47.0,-227.0,116.0,345.0,135.0,1
-165.0,46.0,-228.0,105.0,323.0,130.0,1
-167.0,48.0,-226.0,92.0,301.0,128.0,1
-164.0,49.0,-229.0,80.0,274.0,125.0,1
-163.0,50.0,-229.0,67.0,248.0,118.0,1
-163.0,46.0,-230.0,54.0,221.0,109.0,1
-156.0,47.0,-229.0,43.0,197.0,103.0,1
-154.0,50.0,-223.0,36.0,173.0,97.0,1
-151.0,48.0,-226.0,28.0,151.0,91.0,1
-154.0,50.0,-226.0,22.0,131.0,85.0,1
-152.0,49.0,-228.0,19.0,111.0,80.0,1
-147.0,45.0,-226.0,17.0,90.0,75.0,1
-146.0,47.0,-226.0,16.0,71.0,67.0,1
-146.0,50.0,-227.0,17.0,58.0,59.0,1
-150.0,47.0,-227.0,17.0,45.0,53.0,1
-149.0,51.0,-229.0,20.0,30.0,48.0,1
-147.0,51.0,-227.0,23.0,13.0,44.0,1
-145.0,51.0,-227.0,28.0,6.0,38.0,1
-149.0,49.0,-230.0,28.0,2.0,32.0,1
-150.0,54.0,-233.0,28.0,-4.0,30.0,1
-142.0,51.0,-230.0,30.0,-9.0,29.0,1
-143.0,54.0,-237.0,28.0,-8.0,25.0,1
-145.0,53.0,-230.0,25.0,-7.0,21.0,1
-144.0,52.0,-235.0,22.0,-6.0,18.0,1
-146.0,54.0,-233.0,17.0,-8.0,17.0,1
-146.0,51.0,-234.0,15.0,-15.0,15.0,1
-141.0,52.0,-241.0,11.0,-20.0,15.0,1
-145.0,54.0,-241.0,6.0,-20.0,12.0,1
-144.0,53.0,-240.0,0.0,-17.0,9.0,1
-146.0,53.0,-243.0,-7.0,-16.0,8.0,1
-141.0,46.0,-239.0,-15.0,-16.0,6.0,1
-143.0,52.0,-243.0,-19.0,-16.0,3.0,1
-146.0,53.0,-241.0,-21.0,-16.0,1.0,1
-143.0,51.0,-241.0,-23.0,-16.0,0.0,1
-142.0,49.0,-240.0,-27.0,-17.0,1.0,1
-143.0,51.0,-237.0,-32.0,-16.0,-1.0,1
-144.0,47.0,-237.0,-35.0,-13.0,1.0,1
-144.0,48.0,-238.0,-39.0,-12.0,3.0,1
-145.0,51.0,-242.0,-42.0,-9.0,6.0,1
-141.0,45.0,-240.0,-45.0,-10.0,10.0,1
-147.0,47.0,-235.0,-46.0,-11.0,15.0,1
-149.0,46.0,-243.0,-48.0,-10.0,18.0,1
-144.0,48.0,-233.0,-48.0,-10.0,21.0,1
-149.0,51.0,-237.0,-44.0,-9.0,23.0,1
-144.0,47.0,-235.0,-41.0,-8.0,26.0,1
-148.0,47.0,-240.0,-38.0,-7.0,29.0,1
-148.0,46.0,-241.0,-36.0,-3.0,31.0,1
-148.0,47.0,-231.0,-33.0,-3.0,35.0,1
-149.0,45.0,-236.0,-31.0,0.0,34.0,1
-154.0,50.0,-233.0,-27.0,2.0,34.0,1
-148.0,46.0,-234.0,-21.0,4.0,35.0,1
-152.0,42.0,-233.0,-17.0,9.0,36.0,1
-153.0,40.0,-232.0,-10.0,12.0,36.0,1
-153.0,44.0,-234.0,-4.0,15.0,36.0,1
-149.0,42.0,-228.0,2.0,20.0,36.0,1
-151.0,42.0,-227.0,9.0,24.0,38.0,1
-153.0,40.0,-229.0,16.0,28.0,38.0,1
-148.0,41.0,-228.0,20.0,33.0,40.0,1
-152.0,41.0,-229.0,24.0,38.0,40.0,1
-149.0,41.0,-224.0,26.0,43.0,41.0,1
-154.0,41.0,-230.0,26.0,47.0,42.0,1
-152.0,42.0,-228.0,23.0,51.0,45.0,1
-151.0,43.0,-226.0,21.0,54.0,46.0,1
-151.0,47.0,-227.0,18.0,58.0,46.0,1
-151.0,45.0,-229.0,15.0,60.0,45.0,1
-153.0,43.0,-229.0,14.0,58.0,43.0,1
-152.0,43.0,-233.0,12.0,57.0,42.0,1
-153.0,41.0,-228.0,8.0,56.0,38.0,1
-158.0,46.0,-230.0,6.0,53.0,35.0,1
-155.0,44.0,-225.0,5.0,50.0,32.0,1
-150.0,43.0,-234.0,4.0,47.0,27.0,1
-152.0,42.0,-229.0,3.0,43.0,24.0,1
-153.0,45.0,-233.0,2.0,40.0,21.0,1
-151.0,47.0,-227.0,0.0,36.0,17.0,1
-153.0,48.0,-236.0,0.0,32.0,14.0,1
-151.0,45.0,-231.0,-2.0,29.0,11.0,1
-151.0,48.0,-230.0,-5.0,25.0,7.0,1
-147.0,42.0,-231.0,-8.0,20.0,5.0,1
-149.0,43.0,-230.0,-10.0,15.0,3.0,1
-147.0,44.0,-232.0,-11.0,13.0,2.0,1
-147.0,45.0,-227.0,-12.0,11.0,1.0,1
-149.0,44.0,-232.0,-14.0,11.0,0.0,1
-151.0,49.0,-236.0,-15.0,10.0,0.0,1
-145.0,43.0,-232.0,-16.0,8.0,0.0,1
-146.0,42.0,-231.0,-13.0,8.0,-1.0,1
-148.0,47.0,-230.0,-12.0,8.0,1.0,1
-148.0,46.0,-236.0,-13.0,8.0,2.0,1
-143.0,45.0,-239.0,-13.0,10.0,4.0,1
-148.0,48.0,-231.0,-14.0,13.0,5.0,1
-147.0,50.0,-237.0,-17.0,19.0,6.0,1
-147.0,48.0,-235.0,-18.0,26.0,5.0,1
-148.0,50.0,-234.0,-20.0,33.0,8.0,1
-145.0,47.0,-229.0,-22.0,39.0,10.0,1
-147.0,47.0,-238.0,-24.0,45.0,11.0,1
-148.0,48.0,-235.0,-28.0,50.0,12.0,1
-141.0,46.0,-236.0,-35.0,52.0,15.0,1
-147.0,46.0,-231.0,-40.0,53.0,15.0,1
-147.0,48.0,-233.0,-45.0,53.0,16.0,1
-145.0,48.0,-233.0,-49.0,53.0,18.0,1
-145.0,46.0,-232.0,-56.0,54.0,17.0,1
-148.0,44.0,-236.0,-57.0,55.0,17.0,1
-144.0,41.0,-235.0,-62.0,55.0,18.0,1
-146.0,44.0,-232.0,-63.0,56.0,19.0,1
-151.0,43.0,-236.0,-62.0,57.0,19.0,1
-145.0,42.0,-232.0,-60.0,56.0,21.0,1
-149.0,42.0,-236.0,-56.0,57.0,21.0,1
-143.0,45.0,-227.0,-49.0,56.0,20.0,1
-147.0,44.0,-235.0,-40.0,54.0,19.0,1
-147.0,42.0,-234.0,-34.0,56.0,17.0,1
-149.0,48.0,-235.0,-29.0,58.0,16.0,1
-147.0,47.0,-231.0,-25.0,58.0,17.0,1
-149.0,44.0,-229.0,-21.0,58.0,18.0,1
-147.0,46.0,-234.0,-21.0,59.0,18.0,1
-146.0,46.0,-236.0,-21.0,60.0,20.0,1
-149.0,45.0,-238.0,-21.0,61.0,20.0,1
-151.0,46.0,-233.0,-25.0,64.0,22.0,1
-146.0,49.0,-231.0,-29.0,63.0,22.0,1
-148.0,43.0,-237.0,-29.0,64.0,22.0,1
-146.0,48.0,-237.0,-32.0,65.0,21.0,1
-149.0,48.0,-233.0,-33.0,65.0,21.0,1
-145.0,45.0,-230.0,-35.0,63.0,19.0,1
-145.0,47.0,-235.0,-36.0,60.0,17.0,1
-148.0,46.0,-236.0,-38.0,56.0,13.0,1
-149.0,45.0,-236.0,-38.0,53.0,13.0,1
-148.0,49.0,-235.0,-41.0,50.0,11.0,1
-148.0,44.0,-239.0,-44.0,45.0,9.0,1
-149.0,48.0,-239.0,-46.0,41.0,8.0,1
-145.0,48.0,-237.0,-44.0,37.0,6.0,1
-140.0,39.0,-230.0,-42.0,34.0,7.0,1
-148.0,45.0,-234.0,-41.0,32.0,7.0,1
-147.0,45.0,-236.0,-40.0,31.0,7.0,1
-147.0,45.0,-237.0,-38.0,32.0,7.0,1
-148.0,44.0,-238.0,-33.0,29.0,6.0,1
-151.0,47.0,-232.0,-30.0,29.0,8.0,1
-148.0,45.0,-235.0,-30.0,30.0,9.0,1
-147.0,47.0,-240.0,-28.0,32.0,9.0,1
-146.0,43.0,-234.0,-29.0,31.0,9.0,1
-144.0,46.0,-239.0,-31.0,31.0,11.0,1
-147.0,49.0,-236.0,-31.0,32.0,10.0,1
-149.0,47.0,-234.0,-35.0,35.0,11.0,1
-144.0,47.0,-237.0,-36.0,34.0,8.0,1
-144.0,46.0,-233.0,-36.0,36.0,8.0,1
-145.0,47.0,-239.0,-36.0,40.0,9.0,1
-147.0,48.0,-237.0,-39.0,40.0,10.0,1
-146.0,47.0,-234.0,-38.0,42.0,8.0,1
-144.0,46.0,-234.0,-40.0,43.0,8.0,1
-145.0,43.0,-237.0,-40.0,44.0,8.0,1
-143.0,45.0,-234.0,-40.0,44.0,7.0,1
-142.0,42.0,-233.0,-38.0,43.0,7.0,1
-146.0,49.0,-233.0,-37.0,42.0,7.0,1
-144.0,46.0,-238.0,-37.0,41.0,6.0,1
-148.0,44.0,-237.0,-37.0,38.0,7.0,1
-147.0,46.0,-235.0,-39.0,36.0,7.0,1
-145.0,43.0,-236.0,-39.0,33.0,7.0,1
-146.0,45.0,-236.0,-40.0,34.0,7.0,1
-144.0,44.0,-234.0,-42.0,32.0,7.0,1
-144.0,44.0,-237.0,-42.0,31.0,9.0,1
-146.0,43.0,-237.0,-44.0,29.0,8.0,1
-144.0,45.0,-235.0,-46.0,30.0,9.0,1
-144.0,47.0,-237.0,-47.0,30.0,10.0,1
-144.0,40.0,-236.0,-48.0,29.0,11.0,1
-144.0,45.0,-238.0,-48.0,31.0,10.0,1
-143.0,45.0,-234.0,-49.0,30.0,10.0,1
-142.0,44.0,-236.0,-51.0,31.0,11.0,1
-142.0,45.0,-230.0,-52.0,31.0,12.0,1
-143.0,42.0,-234.0,-53.0,29.0,12.0,1
-144.0,46.0,-235.0,-53.0,29.0,14.0,1
-144.0,45.0,-232.0,-51.0,30.0,14.0,1
-144.0,48.0,-235.0,-51.0,32.0,13.0,1
-145.0,46.0,-229.0,-50.0,33.0,15.0,1
-146.0,45.0,-231.0,-48.0,32.0,16.0,1
-145.0,45.0,-231.0,-49.0,31.0,17.0,1
-143.0,50.0,-232.0,-49.0,32.0,17.0,1
-144.0,46.0,-235.0,-51.0,31.0,16.0,1
-142.0,45.0,-232.0,-51.0,29.0,15.0,1
-144.0,46.0,-234.0,-54.0,30.0,15.0,1
-144.0,46.0,-235.0,-54.0,28.0,14.0,1
-143.0,47.0,-235.0,-57.0,29.0,15.0,1
-145.0,46.0,-236.0,-60.0,28.0,14.0,1
-144.0,48.0,-235.0,-60.0,29.0,14.0,1
-144.0,44.0,-238.0,-61.0,28.0,14.0,1
-145.0,46.0,-232.0,-60.0,28.0,14.0,1
-146.0,47.0,-234.0,-60.0,29.0,14.0,1
-140.0,45.0,-228.0,-59.0,31.0,14.0,1
-144.0,45.0,-235.0,-60.0,33.0,14.0,1
-145.0,46.0,-233.0,-61.0,33.0,15.0,1
-148.0,47.0,-233.0,-58.0,35.0,14.0,1
-145.0,46.0,-238.0,-55.0,37.0,15.0,1
-144.0,45.0,-235.0,-55.0,40.0,15.0,1
-145.0,47.0,-237.0,-52.0,42.0,16.0,1
-144.0,47.0,-233.0,-50.0,44.0,18.0,1
-144.0,47.0,-235.0,-48.0,45.0,19.0,1
-144.0,44.0,-237.0,-45.0,47.0,20.0,1
-145.0,47.0,-235.0,-44.0,48.0,21.0,1
-140.0,45.0,-238.0,-45.0,51.0,23.0,1
-143.0,47.0,-233.0,-45.0,52.0,21.0,1
-143.0,46.0,-239.0,-43.0,54.0,21.0,1
-143.0,46.0,-240.0,-42.0,55.0,21.0,1
-144.0,46.0,-235.0,-41.0,57.0,19.0,1
-145.0,48.0,-236.0,-41.0,59.0,20.0,1
-141.0,47.0,-234.0,-40.0,61.0,19.0,1
-143.0,47.0,-239.0,-37.0,64.0,20.0,1
-144.0,47.0,-235.0,-37.0,65.0,20.0,1
-142.0,45.0,-240.0,-35.0,65.0,19.0,1
-143.0,48.0,-231.0,-36.0,65.0,19.0,1
-144.0,46.0,-240.0,-37.0,65.0,18.0,1
-145.0,48.0,-235.0,-37.0,63.0,17.0,1
-144.0,47.0,-237.0,-35.0,65.0,16.0,1
-147.0,47.0,-233.0,-30.0,66.0,16.0,1
-144.0,49.0,-241.0,-29.0,67.0,17.0,1
-145.0,48.0,-238.0,-30.0,66.0,17.0,1
-147.0,46.0,-238.0,-33.0,64.0,16.0,1
-143.0,44.0,-237.0,-36.0,63.0,16.0,1
-145.0,46.0,-236.0,-38.0,62.0,13.0,1
-144.0,47.0,-240.0,-41.0,62.0,15.0,1
-146.0,41.0,-235.0,-46.0,60.0,14.0,1
-144.0,48.0,-237.0,-48.0,57.0,17.0,1
-145.0,45.0,-238.0,-48.0,53.0,15.0,1
-142.0,48.0,-238.0,-46.0,51.0,14.0,1
-143.0,48.0,-240.0,-44.0,47.0,14.0,1
-142.0,46.0,-238.0,-46.0,45.0,14.0,1
-142.0,49.0,-242.0,-45.0,42.0,14.0,1
-143.0,51.0,-233.0,-43.0,40.0,14.0,1
-141.0,47.0,-239.0,-41.0,38.0,13.0,1
-140.0,44.0,-234.0,-41.0,38.0,11.0,1
-143.0,48.0,-231.0,-40.0,35.0,9.0,1
-138.0,49.0,-240.0,-42.0,35.0,9.0,1
-142.0,46.0,-237.0,-43.0,35.0,9.0,1
-144.0,49.0,-233.0,-42.0,34.0,7.0,1
-145.0,47.0,-237.0,-43.0,34.0,6.0,1
-139.0,45.0,-236.0,-45.0,36.0,6.0,1
-140.0,49.0,-242.0,-47.0,36.0,6.0,1
-143.0,47.0,-235.0,-45.0,37.0,6.0,1
-142.0,46.0,-234.0,-43.0,36.0,5.0,1
-142.0,44.0,-238.0,-39.0,35.0,5.0,1
-142.0,48.0,-236.0,-35.0,33.0,5.0,1
-143.0,46.0,-238.0,-31.0,31.0,7.0,1
-144.0,46.0,-235.0,-30.0,28.0,10.0,1
-143.0,46.0,-240.0,-31.0,25.0,12.0,1
-145.0,50.0,-241.0,-34.0,22.0,13.0,1
-144.0,51.0,-239.0,-37.0,21.0,12.0,1
-143.0,53.0,-236.0,-38.0,21.0,11.0,1
-142.0,50.0,-233.0,-41.0,20.0,11.0,1
-143.0,51.0,-237.0,-43.0,20.0,9.0,1
-141.0,48.0,-237.0,-45.0,22.0,7.0,1
-142.0,49.0,-234.0,-44.0,25.0,5.0,1
-141.0,46.0,-234.0,-39.0,27.0,3.0,1
-146.0,50.0,-238.0,-36.0,30.0,2.0,1
-138.0,50.0,-233.0,-33.0,31.0,2.0,1
-144.0,48.0,-235.0,-29.0,31.0,1.0,1
-141.0,43.0,-239.0,-29.0,32.0,-2.0,1
-145.0,46.0,-240.0,-28.0,30.0,-3.0,1
-144.0,48.0,-240.0,-31.0,28.0,-4.0,1
-141.0,47.0,-238.0,-34.0,25.0,-5.0,1
-142.0,47.0,-238.0,-37.0,24.0,-6.0,1
-142.0,46.0,-237.0,-41.0,23.0,-5.0,1
-143.0,46.0,-231.0,-41.0,23.0,-4.0,1
-137.0,43.0,-235.0,-43.0,23.0,-3.0,1
-141.0,47.0,-236.0,-45.0,23.0,-4.0,1
-140.0,47.0,-236.0,-45.0,21.0,-3.0,1
-142.0,48.0,-241.0,-47.0,23.0,-3.0,1
-139.0,48.0,-239.0,-48.0,21.0,-2.0,1
-137.0,46.0,-237.0,-48.0,19.0,-3.0,1
-139.0,48.0,-240.0,-49.0,19.0,-3.0,1
-138.0,48.0,-235.0,-51.0,21.0,-4.0,1
-141.0,49.0,-233.0,-50.0,21.0,-3.0,1
-140.0,49.0,-236.0,-48.0,22.0,-3.0,1
-143.0,48.0,-239.0,-46.0,20.0,-3.0,1
-140.0,45.0,-238.0,-46.0,19.0,-2.0,1
-143.0,48.0,-239.0,-45.0,20.0,-4.0,1
-139.0,42.0,-233.0,-46.0,21.0,-3.0,1
-143.0,48.0,-237.0,-47.0,21.0,-2.0,1
-142.0,46.0,-233.0,-48.0,21.0,-3.0,1
-138.0,46.0,-236.0,-46.0,21.0,-2.0,1
-142.0,46.0,-237.0,-49.0,22.0,-3.0,1
-140.0,46.0,-237.0,-48.0,24.0,-3.0,1
-139.0,46.0,-232.0,-49.0,26.0,-2.0,1
-142.0,48.0,-238.0,-47.0,27.0,1.0,1
-143.0,48.0,-237.0,-45.0,29.0,2.0,1
-140.0,44.0,-241.0,-43.0,29.0,3.0,1
-140.0,46.0,-236.0,-41.0,29.0,5.0,1
-143.0,39.0,-242.0,-36.0,30.0,6.0,1
-141.0,44.0,-236.0,-33.0,29.0,7.0,1
-142.0,47.0,-240.0,-29.0,29.0,7.0,1
-141.0,47.0,-240.0,-25.0,30.0,9.0,1
-141.0,46.0,-236.0,-21.0,31.0,8.0,1
-141.0,45.0,-239.0,-20.0,32.0,10.0,1
-141.0,47.0,-238.0,-22.0,32.0,10.0,1
-147.0,47.0,-243.0,-28.0,32.0,9.0,1
-140.0,48.0,-237.0,-30.0,33.0,9.0,1
-141.0,48.0,-240.0,-31.0,33.0,7.0,1
-140.0,45.0,-239.0,-34.0,34.0,6.0,1
-141.0,51.0,-231.0,-34.0,36.0,4.0,1
-145.0,53.0,-240.0,-31.0,38.0,4.0,1
-143.0,47.0,-236.0,-34.0,40.0,4.0,1
-140.0,48.0,-238.0,-33.0,40.0,3.0,1
-142.0,49.0,-239.0,-34.0,40.0,0.0,1
-142.0,50.0,-237.0,-33.0,40.0,2.0,1
-139.0,48.0,-237.0,-36.0,42.0,-1.0,1
-145.0,45.0,-239.0,-38.0,44.0,1.0,1
-140.0,47.0,-242.0,-37.0,44.0,1.0,1
-144.0,47.0,-235.0,-36.0,45.0,1.0,1
-141.0,46.0,-238.0,-38.0,44.0,0.0,1
-147.0,49.0,-239.0,-39.0,44.0,2.0,1
-139.0,43.0,-239.0,-36.0,44.0,2.0,1
-141.0,46.0,-239.0,-33.0,43.0,2.0,1
-141.0,46.0,-242.0,-33.0,41.0,3.0,1
-142.0,47.0,-242.0,-32.0,39.0,3.0,1
-142.0,47.0,-238.0,-34.0,36.0,3.0,1
-141.0,48.0,-237.0,-33.0,35.0,2.0,1
-144.0,50.0,-237.0,-36.0,31.0,1.0,1
-142.0,46.0,-234.0,-38.0,30.0,0.0,1
-141.0,49.0,-240.0,-40.0,27.0,-1.0,1
-146.0,43.0,-242.0,-43.0,26.0,-1.0,1
-140.0,47.0,-237.0,-45.0,27.0,-2.0,1
-141.0,45.0,-238.0,-46.0,25.0,-4.0,1
-140.0,47.0,-239.0,-44.0,26.0,-5.0,1
-141.0,48.0,-240.0,-45.0,27.0,-4.0,1
-140.0,49.0,-241.0,-45.0,27.0,-5.0,1
-139.0,49.0,-237.0,-44.0,28.0,-5.0,1
-137.0,46.0,-237.0,-45.0,28.0,-6.0,1
-142.0,50.0,-234.0,-42.0,30.0,-7.0,1
-141.0,48.0,-238.0,-42.0,29.0,-5.0,1
-142.0,47.0,-235.0,-43.0,30.0,-6.0,1
-141.0,46.0,-241.0,-41.0,29.0,-7.0,1
-139.0,45.0,-238.0,-40.0,29.0,-6.0,1
-138.0,44.0,-239.0,-35.0,30.0,-7.0,1
-140.0,49.0,-236.0,-31.0,29.0,-8.0,1
-138.0,50.0,-241.0,-29.0,29.0,-9.0,1
-139.0,46.0,-240.0,-27.0,28.0,-9.0,1
-142.0,47.0,-241.0,-28.0,29.0,-9.0,1
-143.0,47.0,-242.0,-27.0,30.0,-10.0,1
-137.0,48.0,-239.0,-27.0,29.0,-9.0,1
-140.0,46.0,-242.0,-27.0,30.0,-9.0,1
-141.0,46.0,-241.0,-27.0,31.0,-9.0,1
-143.0,43.0,-253.0,-26.0,30.0,-8.0,1
-143.0,48.0,-242.0,-29.0,28.0,-9.0,1
-142.0,47.0,-238.0,-29.0,26.0,-8.0,1
-140.0,44.0,-241.0,-30.0,25.0,-8.0,1
-140.0,46.0,-236.0,-29.0,25.0,-9.0,1
-143.0,46.0,-242.0,-25.0,27.0,-10.0,1
-142.0,47.0,-240.0,-18.0,30.0,-8.0,1
-140.0,47.0,-235.0,-9.0,31.0,-6.0,1
-141.0,45.0,-234.0,-6.0,31.0,-3.0,1
-139.0,47.0,-240.0,-4.0,31.0,-3.0,1
-138.0,49.0,-240.0,-7.0,31.0,-1.0,1
-137.0,52.0,-241.0,-13.0,30.0,-1.0,1
-140.0,47.0,-238.0,-22.0,29.0,-2.0,1
-138.0,45.0,-240.0,-25.0,27.0,-5.0,1
-139.0,45.0,-241.0,-27.0,25.0,-5.0,1
-141.0,47.0,-237.0,-28.0,24.0,-6.0,1
-141.0,46.0,-242.0,-29.0,23.0,-6.0,1
-142.0,47.0,-242.0,-29.0,22.0,-6.0,1
-137.0,46.0,-237.0,-29.0,22.0,-5.0,1
-143.0,48.0,-238.0,-31.0,21.0,-5.0,1
-138.0,43.0,-232.0,-31.0,20.0,-4.0,1
-137.0,45.0,-239.0,-32.0,20.0,-2.0,1
-137.0,44.0,-241.0,-30.0,22.0,-2.0,1
-139.0,43.0,-237.0,-21.0,26.0,0.0,1
-138.0,44.0,-239.0,-10.0,29.0,2.0,1
-141.0,47.0,-240.0,-5.0,27.0,4.0,1
-141.0,50.0,-239.0,-3.0,25.0,6.0,1
-141.0,48.0,-235.0,-8.0,24.0,5.0,1
-140.0,47.0,-238.0,-13.0,23.0,5.0,1
-145.0,47.0,-239.0,-18.0,22.0,3.0,1
-137.0,46.0,-239.0,-23.0,23.0,1.0,1
-142.0,47.0,-238.0,-25.0,25.0,1.0,1
-138.0,43.0,-236.0,-24.0,29.0,-2.0,1
-135.0,47.0,-240.0,-23.0,33.0,-1.0,1
-141.0,46.0,-237.0,-23.0,37.0,-1.0,1
-140.0,45.0,-235.0,-21.0,38.0,0.0,1
-136.0,46.0,-238.0,-20.0,41.0,1.0,1
-140.0,43.0,-237.0,-19.0,43.0,1.0,1
-141.0,44.0,-236.0,-15.0,45.0,0.0,1
-139.0,47.0,-234.0,-15.0,47.0,0.0,1
-141.0,43.0,-236.0,-16.0,47.0,-1.0,1
-136.0,45.0,-243.0,-16.0,47.0,0.0,1
-141.0,47.0,-241.0,-15.0,46.0,1.0,1
-140.0,42.0,-238.0,-16.0,46.0,1.0,1
-147.0,45.0,-235.0,-17.0,47.0,0.0,1
-139.0,43.0,-240.0,-15.0,46.0,-1.0,1
-138.0,46.0,-239.0,-14.0,47.0,-1.0,1
-139.0,43.0,-240.0,-12.0,49.0,-2.0,1
-138.0,41.0,-236.0,-9.0,49.0,-2.0,1
-139.0,45.0,-236.0,-8.0,50.0,-1.0,1
-139.0,45.0,-238.0,-6.0,52.0,-1.0,1
-141.0,46.0,-239.0,-8.0,54.0,0.0,1
-138.0,44.0,-241.0,-7.0,55.0,-1.0,1
-142.0,44.0,-241.0,-7.0,55.0,-3.0,1
-143.0,48.0,-243.0,-10.0,51.0,-4.0,1
-141.0,45.0,-250.0,-13.0,42.0,-7.0,1
-139.0,48.0,-241.0,-16.0,30.0,-9.0,1
-138.0,47.0,-243.0,-16.0,16.0,-14.0,1
-141.0,47.0,-243.0,-18.0,3.0,-18.0,1
-141.0,49.0,-243.0,-17.0,-10.0,-22.0,1
-138.0,47.0,-245.0,-18.0,-21.0,-26.0,1
-141.0,48.0,-243.0,-14.0,-28.0,-30.0,1
-143.0,47.0,-241.0,-13.0,-32.0,-36.0,1
-136.0,45.0,-241.0,-12.0,-34.0,-41.0,1
-137.0,44.0,-239.0,-5.0,-32.0,-46.0,1
-136.0,45.0,-234.0,-3.0,-31.0,-46.0,1
-136.0,48.0,-242.0,-1.0,-22.0,-49.0,1
-138.0,48.0,-240.0,-2.0,-10.0,-48.0,1
-141.0,49.0,-240.0,-5.0,-2.0,-44.0,1
-139.0,45.0,-240.0,-10.0,5.0,-42.0,1
-136.0,44.0,-244.0,-17.0,11.0,-40.0,1
-139.0,45.0,-240.0,-22.0,12.0,-36.0,1
-137.0,41.0,-239.0,-28.0,14.0,-32.0,1
-139.0,42.0,-240.0,-31.0,15.0,-27.0,1
-140.0,41.0,-241.0,-34.0,15.0,-22.0,1
-141.0,43.0,-240.0,-37.0,15.0,-19.0,1
-141.0,40.0,-238.0,-41.0,14.0,-16.0,1
-141.0,40.0,-236.0,-41.0,14.0,-13.0,1
-138.0,43.0,-239.0,-41.0,12.0,-14.0,1
-139.0,43.0,-238.0,-40.0,12.0,-13.0,1
-137.0,41.0,-238.0,-40.0,10.0,-14.0,1
-140.0,43.0,-237.0,-37.0,10.0,-14.0,1
-138.0,41.0,-237.0,-35.0,9.0,-16.0,1
-139.0,44.0,-236.0,-33.0,11.0,-17.0,1
-138.0,39.0,-239.0,-31.0,11.0,-18.0,1
-143.0,42.0,-237.0,-31.0,10.0,-22.0,1
-141.0,43.0,-239.0,-32.0,9.0,-23.0,1
-139.0,44.0,-240.0,-34.0,6.0,-22.0,1
-139.0,40.0,-238.0,-36.0,5.0,-22.0,1
-139.0,42.0,-240.0,-38.0,3.0,-21.0,1
-141.0,40.0,-237.0,-39.0,0.0,-19.0,1
-143.0,43.0,-239.0,-41.0,-1.0,-16.0,1
-141.0,43.0,-240.0,-44.0,-3.0,-13.0,1
-141.0,44.0,-240.0,-44.0,-3.0,-10.0,1
-139.0,45.0,-239.0,-46.0,-2.0,-7.0,1
-140.0,43.0,-239.0,-44.0,1.0,-5.0,1
-142.0,44.0,-244.0,-46.0,4.0,-1.0,1
-139.0,41.0,-241.0,-47.0,10.0,2.0,1
-137.0,40.0,-236.0,-47.0,15.0,7.0,1
-139.0,40.0,-241.0,-46.0,19.0,8.0,1
-140.0,43.0,-241.0,-46.0,22.0,11.0,1
-139.0,40.0,-241.0,-47.0,22.0,8.0,1
-141.0,42.0,-240.0,-47.0,24.0,9.0,1
-139.0,44.0,-237.0,-48.0,25.0,12.0,1
-137.0,42.0,-238.0,-49.0,27.0,13.0,1
-138.0,41.0,-242.0,-49.0,26.0,12.0,1
-139.0,43.0,-240.0,-47.0,29.0,15.0,1
-140.0,42.0,-242.0,-45.0,32.0,15.0,1
-138.0,40.0,-239.0,-39.0,33.0,17.0,1
-136.0,47.0,-239.0,-34.0,34.0,18.0,1
-138.0,41.0,-237.0,-33.0,35.0,21.0,1
-140.0,44.0,-237.0,-30.0,37.0,20.0,1
-138.0,43.0,-239.0,-26.0,40.0,21.0,1
-140.0,42.0,-237.0,-26.0,41.0,21.0,1
-139.0,43.0,-241.0,-24.0,42.0,20.0,1
-136.0,43.0,-241.0,-22.0,43.0,18.0,1
-137.0,41.0,-240.0,-21.0,46.0,18.0,1
-138.0,44.0,-237.0,-21.0,47.0,17.0,1
-138.0,44.0,-237.0,-20.0,47.0,15.0,1
-140.0,43.0,-238.0,-18.0,48.0,15.0,1
-146.0,41.0,-242.0,-17.0,48.0,15.0,1
-135.0,44.0,-240.0,-14.0,48.0,16.0,1
-139.0,43.0,-240.0,-13.0,49.0,16.0,1
-140.0,44.0,-241.0,-12.0,50.0,14.0,1
-139.0,42.0,-240.0,-10.0,51.0,14.0,1
-139.0,45.0,-240.0,-8.0,53.0,13.0,1
-140.0,45.0,-238.0,-8.0,56.0,11.0,1
-136.0,42.0,-243.0,-10.0,60.0,9.0,1
-141.0,43.0,-238.0,-12.0,63.0,9.0,1
-137.0,44.0,-236.0,-12.0,65.0,7.0,1
-137.0,44.0,-237.0,-14.0,66.0,7.0,1
-143.0,45.0,-239.0,-17.0,66.0,7.0,1
-139.0,45.0,-238.0,-16.0,64.0,7.0,1
-139.0,44.0,-240.0,-18.0,62.0,7.0,1
-139.0,42.0,-237.0,-18.0,62.0,4.0,1
-140.0,45.0,-243.0,-16.0,59.0,1.0,1
-140.0,43.0,-242.0,-14.0,58.0,1.0,1
-140.0,41.0,-237.0,-14.0,56.0,1.0,1
-138.0,43.0,-240.0,-14.0,52.0,1.0,1
-141.0,43.0,-237.0,-15.0,51.0,-1.0,1
-138.0,45.0,-247.0,-16.0,50.0,-1.0,1
-140.0,39.0,-245.0,-17.0,47.0,-2.0,1
-140.0,41.0,-244.0,-16.0,46.0,-3.0,1
-140.0,41.0,-241.0,-19.0,45.0,-5.0,1
-140.0,43.0,-242.0,-19.0,42.0,-3.0,1
-141.0,44.0,-244.0,-19.0,38.0,-3.0,1
-138.0,41.0,-244.0,-22.0,32.0,-2.0,1
-137.0,40.0,-241.0,-24.0,28.0,1.0,1
-136.0,41.0,-245.0,-24.0,24.0,3.0,1
-140.0,41.0,-246.0,-26.0,19.0,6.0,1
-139.0,41.0,-241.0,-26.0,14.0,6.0,1
-141.0,42.0,-247.0,-25.0,8.0,10.0,1
-141.0,43.0,-246.0,-23.0,5.0,13.0,1
-139.0,39.0,-244.0,-20.0,0.0,15.0,1
-139.0,39.0,-245.0,-19.0,-4.0,17.0,1
-139.0,39.0,-245.0,-18.0,-6.0,20.0,1
-140.0,43.0,-241.0,-12.0,-7.0,22.0,1
-142.0,41.0,-240.0,-12.0,-9.0,21.0,1
-137.0,40.0,-244.0,-7.0,-8.0,22.0,1
-138.0,38.0,-241.0,-2.0,-6.0,23.0,1
-138.0,39.0,-242.0,4.0,-4.0,23.0,1
-138.0,42.0,-243.0,8.0,1.0,21.0,1
-140.0,42.0,-243.0,11.0,4.0,17.0,1
-138.0,40.0,-238.0,11.0,8.0,13.0,1
-133.0,41.0,-246.0,11.0,8.0,8.0,1
-140.0,39.0,-237.0,11.0,10.0,3.0,1
-139.0,40.0,-243.0,10.0,7.0,-2.0,1
-140.0,40.0,-242.0,8.0,1.0,-7.0,1
-137.0,40.0,-244.0,6.0,-6.0,-9.0,1
-136.0,37.0,-245.0,6.0,-16.0,-15.0,1
-140.0,40.0,-242.0,5.0,-26.0,-16.0,1
-141.0,41.0,-241.0,7.0,-34.0,-17.0,1
-138.0,38.0,-241.0,7.0,-40.0,-17.0,1
-139.0,41.0,-240.0,6.0,-44.0,-15.0,1
-137.0,43.0,-240.0,9.0,-43.0,-12.0,1
-137.0,38.0,-241.0,23.0,-35.0,-8.0,1
-137.0,41.0,-238.0,44.0,-26.0,-3.0,1
-136.0,43.0,-242.0,59.0,-17.0,2.0,1
-135.0,40.0,-242.0,73.0,-8.0,4.0,1
-136.0,40.0,-244.0,76.0,-3.0,5.0,1
-136.0,41.0,-245.0,76.0,0.0,5.0,1
-135.0,47.0,-239.0,70.0,2.0,3.0,1
-134.0,44.0,-243.0,63.0,4.0,1.0,1
-137.0,48.0,-238.0,52.0,4.0,-3.0,1
-138.0,44.0,-242.0,39.0,4.0,-4.0,1
-134.0,42.0,-235.0,30.0,3.0,-6.0,1
-140.0,39.0,-242.0,18.0,3.0,-9.0,1
-139.0,39.0,-241.0,12.0,3.0,-9.0,1
-138.0,38.0,-241.0,8.0,6.0,-10.0,1
-140.0,40.0,-239.0,8.0,8.0,-9.0,1
-138.0,40.0,-238.0,6.0,8.0,-8.0,1
-140.0,38.0,-238.0,3.0,7.0,-8.0,1
-141.0,41.0,-241.0,4.0,8.0,-13.0,1
-140.0,36.0,-238.0,2.0,10.0,-9.0,1
-137.0,38.0,-241.0,-2.0,10.0,-5.0,1
-138.0,39.0,-240.0,-8.0,11.0,-2.0,1
-141.0,33.0,-240.0,-13.0,8.0,0.0,1
-139.0,40.0,-241.0,-19.0,6.0,0.0,1
-140.0,36.0,-239.0,-24.0,3.0,4.0,1
-140.0,38.0,-237.0,-29.0,2.0,4.0,1
-136.0,38.0,-239.0,-34.0,1.0,5.0,1
-138.0,38.0,-239.0,-39.0,2.0,6.0,1
-142.0,37.0,-240.0,-39.0,1.0,5.0,1
-139.0,37.0,-238.0,-42.0,1.0,3.0,1
-140.0,37.0,-239.0,-42.0,3.0,3.0,1
-141.0,37.0,-240.0,-43.0,4.0,2.0,1
-137.0,42.0,-244.0,-40.0,5.0,0.0,1
-138.0,41.0,-244.0,-41.0,6.0,0.0,1
-143.0,44.0,-240.0,-38.0,8.0,-2.0,1
-137.0,38.0,-240.0,-40.0,9.0,-5.0,1
-140.0,40.0,-239.0,-40.0,9.0,-3.0,1
-140.0,39.0,-235.0,-42.0,10.0,-5.0,1
-142.0,39.0,-244.0,-44.0,9.0,-7.0,1
-141.0,39.0,-238.0,-46.0,11.0,-7.0,1
-137.0,38.0,-242.0,-46.0,13.0,-7.0,1
-140.0,36.0,-238.0,-44.0,13.0,-6.0,1
-145.0,40.0,-246.0,-44.0,14.0,-5.0,1
-137.0,38.0,-235.0,-45.0,14.0,-4.0,1
-138.0,37.0,-241.0,-46.0,15.0,-3.0,1
-139.0,38.0,-240.0,-47.0,17.0,-2.0,1
-137.0,37.0,-238.0,-49.0,16.0,0.0,1
-136.0,37.0,-240.0,-50.0,19.0,2.0,1
-138.0,41.0,-240.0,-50.0,21.0,2.0,1
-139.0,37.0,-238.0,-52.0,24.0,2.0,1
-136.0,35.0,-242.0,-51.0,27.0,1.0,1
-138.0,38.0,-240.0,-45.0,32.0,0.0,1
-137.0,36.0,-237.0,-39.0,36.0,0.0,1
-137.0,40.0,-242.0,-36.0,39.0,1.0,1
-138.0,42.0,-240.0,-35.0,40.0,1.0,1
-139.0,41.0,-241.0,-38.0,42.0,0.0,1
-138.0,40.0,-237.0,-40.0,44.0,0.0,1
-138.0,40.0,-242.0,-43.0,48.0,-2.0,1
-139.0,40.0,-239.0,-46.0,51.0,-2.0,1
-137.0,38.0,-235.0,-47.0,54.0,-1.0,1
-137.0,39.0,-238.0,-45.0,57.0,-2.0,1
-135.0,40.0,-243.0,-43.0,60.0,-1.0,1
-135.0,37.0,-243.0,-41.0,63.0,0.0,1
-137.0,37.0,-239.0,-39.0,64.0,0.0,1
-136.0,36.0,-242.0,-42.0,65.0,2.0,1
-140.0,43.0,-241.0,-43.0,67.0,3.0,1
-138.0,36.0,-238.0,-45.0,71.0,5.0,1
-134.0,35.0,-241.0,-48.0,75.0,9.0,1
-138.0,40.0,-241.0,-49.0,76.0,9.0,1
-136.0,36.0,-237.0,-53.0,77.0,9.0,1
-136.0,38.0,-243.0,-51.0,78.0,9.0,1
-139.0,38.0,-243.0,-35.0,85.0,6.0,1
-139.0,40.0,-244.0,-17.0,92.0,4.0,1
-136.0,39.0,-242.0,-6.0,97.0,3.0,1
-136.0,34.0,-239.0,-2.0,98.0,0.0,1
-138.0,38.0,-241.0,-1.0,99.0,0.0,1
-134.0,40.0,-243.0,-2.0,100.0,-1.0,1
-134.0,38.0,-241.0,-5.0,100.0,-3.0,1
-138.0,36.0,-242.0,-9.0,101.0,-4.0,1
-139.0,42.0,-245.0,-13.0,99.0,-5.0,1
-136.0,37.0,-245.0,-16.0,98.0,-5.0,1
-136.0,38.0,-246.0,-19.0,96.0,-2.0,1
-136.0,37.0,-244.0,-21.0,93.0,0.0,1
-138.0,41.0,-242.0,-24.0,90.0,2.0,1
-140.0,40.0,-247.0,-27.0,85.0,2.0,1
-137.0,38.0,-243.0,-27.0,82.0,2.0,1
-138.0,40.0,-248.0,-26.0,79.0,3.0,1
-135.0,38.0,-245.0,-22.0,76.0,3.0,1
-136.0,36.0,-241.0,-23.0,73.0,2.0,1
-136.0,41.0,-242.0,-24.0,71.0,2.0,1
-136.0,39.0,-244.0,-25.0,68.0,2.0,1
-136.0,37.0,-242.0,-27.0,64.0,2.0,1
-137.0,37.0,-243.0,-30.0,61.0,2.0,1
-135.0,39.0,-244.0,-33.0,59.0,3.0,1
-137.0,42.0,-243.0,-34.0,57.0,2.0,1
-138.0,38.0,-244.0,-35.0,54.0,1.0,1
-136.0,36.0,-247.0,-36.0,52.0,1.0,1
-134.0,39.0,-247.0,-36.0,52.0,1.0,1
-133.0,34.0,-245.0,-37.0,50.0,-1.0,1
-134.0,38.0,-250.0,-35.0,50.0,0.0,1
-136.0,37.0,-245.0,-37.0,49.0,1.0,1
-133.0,39.0,-244.0,-36.0,51.0,2.0,1
-136.0,39.0,-240.0,-38.0,50.0,1.0,1
-137.0,41.0,-244.0,-38.0,49.0,1.0,1
-136.0,39.0,-244.0,-37.0,48.0,0.0,1
-132.0,37.0,-239.0,-38.0,48.0,1.0,1
-134.0,41.0,-245.0,-37.0,46.0,0.0,1
-133.0,38.0,-243.0,-39.0,45.0,2.0,1
-137.0,44.0,-244.0,-39.0,45.0,3.0,1
-136.0,42.0,-243.0,-39.0,44.0,3.0,1
-134.0,37.0,-242.0,-37.0,42.0,2.0,1
-135.0,37.0,-244.0,-39.0,42.0,2.0,1
-134.0,36.0,-244.0,-39.0,43.0,2.0,1
-133.0,37.0,-245.0,-41.0,43.0,2.0,1
-134.0,38.0,-243.0,-39.0,42.0,2.0,1
-135.0,38.0,-242.0,-36.0,41.0,3.0,1
-136.0,37.0,-248.0,-35.0,44.0,5.0,1
-136.0,41.0,-247.0,-36.0,43.0,4.0,1
-133.0,33.0,-245.0,-35.0,40.0,4.0,1
-135.0,36.0,-246.0,-34.0,37.0,4.0,1
-135.0,41.0,-243.0,-34.0,36.0,4.0,1
-134.0,38.0,-244.0,-33.0,34.0,5.0,1
-136.0,38.0,-244.0,-33.0,33.0,4.0,1
-136.0,38.0,-248.0,-32.0,31.0,3.0,1
-135.0,37.0,-243.0,-31.0,32.0,2.0,1
-135.0,39.0,-244.0,-31.0,31.0,1.0,1
-133.0,38.0,-245.0,-31.0,30.0,0.0,1
-136.0,37.0,-243.0,-31.0,30.0,-1.0,1
-137.0,39.0,-245.0,-29.0,30.0,-2.0,1
-132.0,34.0,-247.0,-28.0,31.0,-1.0,1
-133.0,42.0,-245.0,-30.0,30.0,-1.0,1
-138.0,38.0,-248.0,-30.0,27.0,-2.0,1
-134.0,37.0,-246.0,-32.0,26.0,-2.0,1
-136.0,40.0,-248.0,-31.0,27.0,-2.0,1
-133.0,35.0,-244.0,-30.0,28.0,0.0,1
-133.0,36.0,-246.0,-29.0,28.0,0.0,1
-133.0,36.0,-246.0,-30.0,30.0,-2.0,1
-134.0,40.0,-247.0,-28.0,28.0,-2.0,1
-136.0,37.0,-249.0,-29.0,27.0,-1.0,1
-136.0,40.0,-244.0,-29.0,29.0,0.0,1
-136.0,37.0,-244.0,-33.0,30.0,-1.0,1
-133.0,39.0,-246.0,-34.0,32.0,-2.0,1
-136.0,37.0,-253.0,-38.0,31.0,-2.0,1
-135.0,36.0,-247.0,-38.0,30.0,0.0,1
-136.0,41.0,-245.0,-41.0,31.0,1.0,1
-134.0,34.0,-246.0,-43.0,28.0,2.0,1
-131.0,35.0,-244.0,-46.0,26.0,1.0,1
-136.0,37.0,-244.0,-47.0,24.0,3.0,1
-133.0,36.0,-246.0,-47.0,23.0,2.0,1
-137.0,37.0,-244.0,-47.0,21.0,2.0,1
-136.0,40.0,-249.0,-44.0,22.0,1.0,1
-137.0,37.0,-243.0,-45.0,22.0,3.0,1
-133.0,37.0,-244.0,-43.0,24.0,1.0,1
-134.0,34.0,-248.0,-42.0,23.0,2.0,1
-133.0,38.0,-241.0,-38.0,23.0,2.0,1
-133.0,39.0,-242.0,-37.0,25.0,1.0,1
-132.0,38.0,-244.0,-34.0,26.0,1.0,1
-130.0,35.0,-244.0,-32.0,24.0,0.0,1
-134.0,37.0,-246.0,-30.0,24.0,0.0,1
-134.0,37.0,-246.0,-29.0,24.0,-2.0,1
-134.0,39.0,-245.0,-28.0,22.0,-1.0,1
-131.0,37.0,-246.0,-26.0,23.0,0.0,1
-132.0,39.0,-244.0,-27.0,23.0,-1.0,1
-136.0,36.0,-247.0,-25.0,24.0,-1.0,1
-139.0,35.0,-248.0,-24.0,23.0,-1.0,1
-132.0,38.0,-244.0,-25.0,24.0,-2.0,1
-134.0,38.0,-245.0,-24.0,25.0,-2.0,1
-133.0,38.0,-244.0,-23.0,26.0,0.0,1
-132.0,37.0,-242.0,-23.0,26.0,0.0,1
-134.0,39.0,-248.0,-23.0,26.0,1.0,1
-135.0,38.0,-244.0,-21.0,27.0,1.0,1
-134.0,41.0,-248.0,-19.0,27.0,1.0,1
-134.0,36.0,-245.0,-18.0,26.0,0.0,1
-134.0,40.0,-246.0,-19.0,24.0,1.0,1
-133.0,36.0,-246.0,-18.0,23.0,2.0,1
-131.0,38.0,-244.0,-14.0,20.0,3.0,1
-133.0,35.0,-250.0,-14.0,17.0,2.0,1
-131.0,34.0,-244.0,-13.0,15.0,3.0,1
-135.0,37.0,-246.0,-10.0,13.0,4.0,1
-135.0,34.0,-244.0,-9.0,14.0,6.0,1
-136.0,37.0,-243.0,-8.0,13.0,5.0,1
-135.0,35.0,-245.0,-5.0,13.0,7.0,1
-132.0,35.0,-246.0,-4.0,12.0,9.0,1
-134.0,37.0,-244.0,-6.0,12.0,8.0,1
-135.0,36.0,-244.0,-5.0,12.0,9.0,1
-135.0,37.0,-247.0,-6.0,13.0,9.0,1
-134.0,31.0,-246.0,-7.0,13.0,9.0,1
-133.0,36.0,-245.0,-6.0,12.0,8.0,1
-134.0,33.0,-244.0,-7.0,12.0,7.0,1
-134.0,34.0,-244.0,-8.0,11.0,9.0,1
-132.0,37.0,-249.0,-8.0,10.0,7.0,1
-133.0,36.0,-247.0,-10.0,8.0,6.0,1
-134.0,33.0,-246.0,-11.0,6.0,7.0,1
-133.0,36.0,-244.0,-10.0,5.0,7.0,1
-131.0,36.0,-242.0,-9.0,4.0,7.0,1
-137.0,39.0,-247.0,-11.0,5.0,6.0,1
-134.0,33.0,-249.0,-13.0,5.0,7.0,1
-139.0,32.0,-249.0,-16.0,5.0,5.0,1
-135.0,37.0,-243.0,-17.0,4.0,5.0,1
-132.0,39.0,-243.0,-18.0,3.0,3.0,1
-134.0,34.0,-245.0,-17.0,4.0,3.0,1
-133.0,34.0,-242.0,-17.0,3.0,1.0,1
-133.0,35.0,-245.0,-18.0,2.0,1.0,1
-134.0,37.0,-244.0,-19.0,4.0,-2.0,1
-133.0,33.0,-241.0,-21.0,3.0,-2.0,1
-130.0,37.0,-247.0,-22.0,5.0,-5.0,1
-134.0,37.0,-242.0,-23.0,6.0,-5.0,1
-132.0,38.0,-237.0,-26.0,7.0,-4.0,1
-132.0,33.0,-243.0,-27.0,10.0,-3.0,1
-134.0,34.0,-243.0,-29.0,10.0,-3.0,1
-135.0,34.0,-244.0,-30.0,10.0,-3.0,1
-131.0,36.0,-245.0,-33.0,9.0,-3.0,1
-133.0,32.0,-244.0,-33.0,9.0,-3.0,1
-129.0,35.0,-242.0,-33.0,10.0,-2.0,1
-137.0,35.0,-249.0,-36.0,10.0,-3.0,1
-133.0,32.0,-247.0,-35.0,10.0,-3.0,1
-132.0,33.0,-245.0,-34.0,8.0,-1.0,1
-133.0,33.0,-247.0,-32.0,9.0,-2.0,1
-134.0,25.0,-247.0,-28.0,9.0,-1.0,1
-135.0,34.0,-244.0,-27.0,9.0,-2.0,1
-136.0,34.0,-246.0,-24.0,8.0,-2.0,1
-136.0,34.0,-247.0,-22.0,6.0,-1.0,1
-133.0,35.0,-247.0,-22.0,5.0,0.0,1
-132.0,34.0,-245.0,-21.0,3.0,-3.0,1
-133.0,36.0,-245.0,-19.0,3.0,-4.0,1
-132.0,37.0,-245.0,-20.0,6.0,-4.0,1
-135.0,37.0,-242.0,-22.0,5.0,-6.0,1
-132.0,33.0,-245.0,-23.0,4.0,-7.0,1
-137.0,38.0,-243.0,-25.0,6.0,-7.0,1
-133.0,38.0,-238.0,-25.0,7.0,-6.0,1
-134.0,35.0,-250.0,-26.0,6.0,-7.0,1
-134.0,36.0,-243.0,-27.0,5.0,-6.0,1
-133.0,33.0,-244.0,-28.0,4.0,-7.0,1
-134.0,33.0,-245.0,-30.0,3.0,-6.0,1
-133.0,35.0,-247.0,-34.0,3.0,-4.0,1
-135.0,37.0,-247.0,-34.0,5.0,-1.0,1
-134.0,36.0,-245.0,-33.0,5.0,-1.0,1
-136.0,33.0,-243.0,-32.0,6.0,-1.0,1
-135.0,29.0,-241.0,-32.0,8.0,0.0,1
-135.0,31.0,-249.0,-29.0,7.0,0.0,1
-135.0,35.0,-246.0,-25.0,8.0,1.0,1
-134.0,26.0,-243.0,-18.0,9.0,-1.0,1
-138.0,31.0,-245.0,-9.0,8.0,-1.0,1
-138.0,32.0,-248.0,3.0,9.0,0.0,1
-135.0,30.0,-249.0,11.0,8.0,-3.0,1
-139.0,34.0,-245.0,20.0,9.0,-4.0,1
-138.0,32.0,-247.0,30.0,9.0,-5.0,1
-139.0,34.0,-244.0,36.0,10.0,-3.0,1
-140.0,34.0,-246.0,37.0,12.0,-2.0,1
-137.0,36.0,-249.0,39.0,16.0,-4.0,1
-137.0,39.0,-245.0,39.0,17.0,-5.0,1
-133.0,34.0,-253.0,37.0,20.0,-7.0,1
-134.0,36.0,-245.0,32.0,20.0,-8.0,1
-134.0,38.0,-248.0,27.0,18.0,-12.0,1
-134.0,40.0,-246.0,21.0,18.0,-14.0,1
-131.0,40.0,-241.0,13.0,16.0,-16.0,1
-131.0,36.0,-246.0,6.0,14.0,-16.0,1
-131.0,37.0,-245.0,-3.0,11.0,-16.0,1
-134.0,36.0,-248.0,-11.0,10.0,-17.0,1
-133.0,34.0,-246.0,-15.0,9.0,-17.0,1
-132.0,33.0,-244.0,-19.0,8.0,-16.0,1
-133.0,30.0,-245.0,-17.0,4.0,-15.0,1
-133.0,27.0,-242.0,-5.0,3.0,-14.0,1
-136.0,29.0,-249.0,9.0,3.0,-12.0,1
-135.0,30.0,-248.0,25.0,3.0,-9.0,1
-138.0,30.0,-248.0,40.0,4.0,-6.0,1
-136.0,29.0,-245.0,54.0,7.0,-4.0,1
-134.0,28.0,-244.0,72.0,11.0,-1.0,1
-140.0,32.0,-243.0,84.0,19.0,1.0,1
-131.0,29.0,-245.0,95.0,29.0,2.0,1
-139.0,33.0,-246.0,106.0,37.0,-5.0,1
-137.0,34.0,-245.0,115.0,42.0,-9.0,1
-137.0,36.0,-245.0,112.0,47.0,-7.0,1
-137.0,31.0,-248.0,101.0,51.0,-7.0,1
-137.0,30.0,-249.0,92.0,47.0,-10.0,1
-137.0,29.0,-249.0,89.0,38.0,-15.0,1
-141.0,30.0,-252.0,91.0,27.0,-18.0,1
-142.0,28.0,-249.0,98.0,13.0,-19.0,1
-143.0,25.0,-251.0,110.0,1.0,-23.0,1
-142.0,23.0,-247.0,124.0,-9.0,-22.0,1
-145.0,23.0,-245.0,141.0,-18.0,-23.0,1
-145.0,25.0,-242.0,154.0,-23.0,-22.0,1
-147.0,26.0,-244.0,165.0,-24.0,-22.0,1
-150.0,27.0,-247.0,171.0,-24.0,-27.0,1
-142.0,25.0,-248.0,170.0,-27.0,-31.0,1
-150.0,28.0,-254.0,167.0,-31.0,-40.0,1
-145.0,28.0,-252.0,156.0,-37.0,-50.0,1
-144.0,27.0,-253.0,144.0,-45.0,-57.0,1
-144.0,33.0,-249.0,131.0,-53.0,-62.0,1
-141.0,32.0,-251.0,118.0,-55.0,-66.0,1
-139.0,32.0,-246.0,103.0,-58.0,-66.0,1
-147.0,33.0,-243.0,91.0,-61.0,-64.0,1
-142.0,32.0,-239.0,85.0,-75.0,-59.0,1
-135.0,31.0,-240.0,76.0,-85.0,-56.0,1
-130.0,32.0,-238.0,65.0,-81.0,-58.0,1
-129.0,31.0,-240.0,50.0,-71.0,-57.0,1
-126.0,30.0,-243.0,30.0,-55.0,-53.0,1
-127.0,33.0,-238.0,9.0,-43.0,-47.0,1
-128.0,31.0,-240.0,-11.0,-38.0,-42.0,1
-126.0,28.0,-241.0,-26.0,-36.0,-41.0,1
-124.0,30.0,-241.0,-45.0,-34.0,-40.0,1
-118.0,24.0,-244.0,-61.0,-34.0,-38.0,1
-119.0,26.0,-239.0,-74.0,-30.0,-34.0,1
-121.0,21.0,-239.0,-83.0,-22.0,-29.0,1
-119.0,24.0,-237.0,-89.0,-19.0,-24.0,1
-122.0,21.0,-239.0,-91.0,-13.0,-19.0,1
-122.0,26.0,-228.0,-93.0,-2.0,-16.0,1
-122.0,24.0,-237.0,-94.0,9.0,-13.0,1
-126.0,25.0,-236.0,-94.0,15.0,-10.0,1
-128.0,24.0,-237.0,-94.0,18.0,-8.0,1
-127.0,24.0,-239.0,-92.0,21.0,-7.0,1
-128.0,20.0,-237.0,-88.0,21.0,-6.0,1
-131.0,22.0,-238.0,-80.0,20.0,-8.0,1
-132.0,20.0,-244.0,-68.0,21.0,-9.0,1
-134.0,21.0,-242.0,-53.0,24.0,-10.0,1
-133.0,17.0,-243.0,-33.0,27.0,-9.0,1
-138.0,20.0,-243.0,-13.0,30.0,-7.0,1
-141.0,20.0,-248.0,6.0,34.0,-5.0,1
-139.0,19.0,-247.0,28.0,38.0,-1.0,1
-142.0,22.0,-249.0,46.0,38.0,2.0,1
-145.0,23.0,-249.0,58.0,37.0,6.0,1
-142.0,24.0,-253.0,69.0,37.0,10.0,1
-142.0,23.0,-255.0,78.0,33.0,11.0,1
-145.0,27.0,-253.0,84.0,29.0,11.0,1
-143.0,22.0,-256.0,84.0,24.0,11.0,1
-145.0,26.0,-258.0,82.0,15.0,8.0,1
-145.0,24.0,-254.0,74.0,8.0,4.0,1
-145.0,28.0,-254.0,66.0,-2.0,1.0,1
-146.0,23.0,-251.0,64.0,-7.0,-2.0,1
-143.0,25.0,-252.0,59.0,-10.0,-4.0,1
-145.0,25.0,-246.0,59.0,-11.0,-7.0,1
-146.0,26.0,-249.0,57.0,-10.0,-8.0,1
-141.0,25.0,-245.0,54.0,-7.0,-9.0,1
-139.0,27.0,-245.0,49.0,-3.0,-8.0,1
-138.0,31.0,-244.0,39.0,3.0,-9.0,1
-141.0,30.0,-239.0,30.0,9.0,-10.0,1
-135.0,32.0,-241.0,16.0,15.0,-11.0,1
-135.0,32.0,-239.0,-1.0,19.0,-14.0,1
-133.0,22.0,-243.0,-19.0,20.0,-16.0,1
-135.0,28.0,-243.0,-35.0,18.0,-17.0,1
-141.0,28.0,-239.0,-50.0,12.0,-20.0,1
-143.0,28.0,-237.0,-65.0,-7.0,-23.0,1
-129.0,31.0,-245.0,-75.0,-23.0,-23.0,1
-127.0,25.0,-247.0,-83.0,-20.0,-19.0,1
-129.0,25.0,-242.0,-83.0,-7.0,-17.0,1
-135.0,27.0,-242.0,-76.0,5.0,-12.0,1
-135.0,23.0,-237.0,-69.0,12.0,-8.0,1
-136.0,17.0,-234.0,-60.0,8.0,-11.0,1
-129.0,21.0,-238.0,-53.0,2.0,-10.0,1
-128.0,21.0,-248.0,-48.0,5.0,-8.0,1
-130.0,20.0,-241.0,-42.0,12.0,-8.0,1
-132.0,18.0,-240.0,-39.0,17.0,-5.0,1
-130.0,18.0,-245.0,-35.0,18.0,-4.0,1
-133.0,15.0,-246.0,-30.0,17.0,-4.0,1
-139.0,13.0,-245.0,-21.0,14.0,-6.0,1
-148.0,14.0,-241.0,-8.0,3.0,-7.0,1
-146.0,14.0,-246.0,8.0,-22.0,-7.0,1
-139.0,12.0,-252.0,24.0,-37.0,-3.0,1
-140.0,9.0,-255.0,40.0,-37.0,-1.0,1
-144.0,10.0,-250.0,57.0,-36.0,3.0,1
-146.0,15.0,-253.0,76.0,-38.0,7.0,1
-139.0,16.0,-256.0,98.0,-38.0,8.0,1
-142.0,16.0,-251.0,113.0,-34.0,6.0,1
-145.0,19.0,-249.0,125.0,-41.0,7.0,1
-140.0,21.0,-249.0,132.0,-51.0,4.0,1
-140.0,21.0,-247.0,132.0,-56.0,2.0,1
-139.0,23.0,-249.0,128.0,-61.0,-3.0,1
-135.0,27.0,-250.0,119.0,-61.0,-3.0,1
-131.0,25.0,-244.0,105.0,-55.0,-4.0,1
-132.0,32.0,-247.0,88.0,-44.0,-4.0,1
-135.0,33.0,-251.0,68.0,-29.0,-4.0,1
-141.0,32.0,-250.0,49.0,-15.0,0.0,1
-132.0,30.0,-244.0,30.0,-11.0,2.0,1
-128.0,31.0,-246.0,12.0,-10.0,0.0,1
-128.0,31.0,-243.0,-8.0,-5.0,1.0,1
-128.0,28.0,-241.0,-27.0,-3.0,3.0,1
-129.0,27.0,-242.0,-45.0,-2.0,5.0,1
-129.0,21.0,-244.0,-58.0,-3.0,5.0,1
-130.0,21.0,-240.0,-69.0,-4.0,8.0,1
-127.0,19.0,-240.0,-78.0,-6.0,7.0,1
-132.0,15.0,-239.0,-80.0,-7.0,6.0,1
-134.0,18.0,-238.0,-79.0,-6.0,4.0,1
-133.0,16.0,-236.0,-74.0,-1.0,0.0,1
-135.0,13.0,-242.0,-68.0,2.0,-3.0,1
-137.0,15.0,-239.0,-58.0,3.0,-5.0,1
-137.0,15.0,-237.0,-46.0,4.0,-6.0,1
-137.0,15.0,-240.0,-36.0,7.0,-6.0,1
-138.0,16.0,-239.0,-27.0,8.0,-6.0,1
-137.0,20.0,-239.0,-23.0,10.0,-7.0,1
-140.0,22.0,-239.0,-18.0,12.0,-8.0,1
-138.0,24.0,-242.0,-15.0,16.0,-7.0,1
-136.0,26.0,-239.0,-15.0,16.0,-6.0,1
-142.0,27.0,-242.0,-18.0,18.0,-5.0,1
-146.0,30.0,-240.0,-24.0,20.0,-2.0,1
-139.0,28.0,-240.0,-30.0,19.0,-1.0,1
-136.0,27.0,-242.0,-37.0,19.0,-1.0,1
-135.0,25.0,-244.0,-49.0,17.0,-2.0,1
-136.0,25.0,-243.0,-62.0,15.0,-2.0,1
-137.0,23.0,-242.0,-75.0,11.0,-2.0,1
-138.0,22.0,-245.0,-86.0,10.0,-2.0,1
-135.0,21.0,-244.0,-96.0,9.0,-3.0,1
-137.0,19.0,-240.0,-103.0,10.0,-4.0,1
-140.0,18.0,-240.0,-106.0,11.0,-6.0,1
-139.0,17.0,-244.0,-108.0,15.0,-8.0,1
-141.0,17.0,-247.0,-104.0,21.0,-9.0,1
-142.0,14.0,-241.0,-98.0,23.0,-9.0,1
-141.0,14.0,-242.0,-91.0,27.0,-6.0,1
-140.0,17.0,-244.0,-82.0,31.0,-7.0,1
-140.0,16.0,-240.0,-72.0,34.0,-7.0,1
-140.0,17.0,-242.0,-63.0,39.0,-6.0,1
-138.0,16.0,-245.0,-56.0,43.0,-2.0,1
-137.0,18.0,-245.0,-50.0,46.0,-2.0,1
-136.0,20.0,-242.0,-45.0,47.0,0.0,1
-137.0,18.0,-244.0,-44.0,50.0,1.0,1
-134.0,18.0,-242.0,-42.0,51.0,2.0,1
-139.0,18.0,-248.0,-40.0,53.0,2.0,1
-138.0,19.0,-244.0,-39.0,53.0,3.0,1
-138.0,21.0,-243.0,-39.0,53.0,2.0,1
-139.0,20.0,-243.0,-39.0,51.0,2.0,1
-135.0,21.0,-243.0,-42.0,52.0,2.0,1
-136.0,20.0,-241.0,-43.0,53.0,2.0,1
-137.0,20.0,-243.0,-47.0,56.0,2.0,1
-137.0,20.0,-242.0,-48.0,55.0,3.0,1
-137.0,18.0,-244.0,-49.0,56.0,2.0,1
-133.0,18.0,-242.0,-51.0,56.0,1.0,1
-140.0,12.0,-247.0,-51.0,54.0,2.0,1
-137.0,21.0,-243.0,-52.0,53.0,2.0,1
-137.0,21.0,-239.0,-50.0,52.0,2.0,1
-136.0,18.0,-247.0,-48.0,51.0,3.0,1
-138.0,17.0,-246.0,-45.0,52.0,4.0,1
-138.0,19.0,-246.0,-43.0,52.0,6.0,1
-138.0,21.0,-247.0,-39.0,53.0,6.0,1
-135.0,17.0,-243.0,-36.0,53.0,7.0,1
-137.0,21.0,-248.0,-34.0,53.0,7.0,1
-137.0,21.0,-243.0,-36.0,55.0,8.0,1
-137.0,17.0,-242.0,-36.0,54.0,7.0,1
-144.0,20.0,-245.0,-37.0,53.0,6.0,1
-136.0,20.0,-242.0,-38.0,50.0,5.0,1
-137.0,23.0,-246.0,-41.0,47.0,6.0,1
-136.0,22.0,-245.0,-44.0,47.0,6.0,1
-133.0,21.0,-246.0,-46.0,46.0,5.0,1
-136.0,22.0,-249.0,-48.0,46.0,5.0,1
-136.0,19.0,-245.0,-50.0,46.0,6.0,1
-133.0,24.0,-247.0,-52.0,47.0,5.0,1
-140.0,21.0,-245.0,-55.0,47.0,5.0,1
-135.0,20.0,-243.0,-55.0,46.0,4.0,1
-136.0,21.0,-249.0,-53.0,44.0,3.0,1
-134.0,33.0,-247.0,-53.0,42.0,4.0,1
-137.0,21.0,-246.0,-51.0,40.0,3.0,1
-137.0,22.0,-249.0,-48.0,39.0,3.0,1
-141.0,23.0,-244.0,-46.0,37.0,2.0,1
-139.0,22.0,-250.0,-43.0,37.0,1.0,1
-134.0,18.0,-247.0,-40.0,34.0,1.0,1
-137.0,21.0,-247.0,-38.0,33.0,-2.0,1
-138.0,18.0,-250.0,-35.0,30.0,-3.0,1
-137.0,19.0,-249.0,-32.0,27.0,-5.0,1
-140.0,18.0,-257.0,-27.0,22.0,-6.0,1
-142.0,17.0,-256.0,-19.0,15.0,-7.0,1
-140.0,14.0,-251.0,-7.0,6.0,-8.0,1
-147.0,16.0,-257.0,11.0,-7.0,-11.0,1
-149.0,13.0,-264.0,34.0,-28.0,-10.0,1
-149.0,12.0,-270.0,60.0,-49.0,-8.0,1
-151.0,13.0,-272.0,89.0,-66.0,-2.0,1
-153.0,12.0,-270.0,121.0,-71.0,5.0,1
-153.0,13.0,-270.0,158.0,-63.0,13.0,1
-155.0,9.0,-262.0,199.0,-48.0,15.0,1
-154.0,10.0,-265.0,245.0,-40.0,17.0,1
-160.0,12.0,-257.0,287.0,-34.0,15.0,1
-158.0,16.0,-256.0,318.0,-35.0,6.0,1
-161.0,16.0,-249.0,337.0,-44.0,-6.0,1
-156.0,17.0,-253.0,335.0,-56.0,-23.0,1
-160.0,22.0,-258.0,320.0,-73.0,-39.0,1
-161.0,19.0,-250.0,294.0,-94.0,-52.0,1
-161.0,25.0,-251.0,260.0,-123.0,-61.0,1
-153.0,23.0,-252.0,221.0,-148.0,-67.0,1
-144.0,23.0,-248.0,184.0,-163.0,-69.0,1
-140.0,20.0,-253.0,150.0,-168.0,-74.0,1
-136.0,19.0,-248.0,117.0,-167.0,-77.0,1
-131.0,16.0,-248.0,88.0,-159.0,-75.0,1
-129.0,17.0,-244.0,63.0,-146.0,-75.0,1
-125.0,14.0,-246.0,46.0,-133.0,-70.0,1
-122.0,17.0,-239.0,38.0,-125.0,-68.0,1
-119.0,15.0,-236.0,34.0,-126.0,-65.0,1
-114.0,15.0,-231.0,33.0,-129.0,-62.0,1
-117.0,19.0,-226.0,29.0,-134.0,-57.0,1
-117.0,24.0,-228.0,20.0,-139.0,-50.0,1
-116.0,24.0,-223.0,8.0,-138.0,-43.0,1
-114.0,26.0,-222.0,-9.0,-134.0,-37.0,1
-120.0,28.0,-223.0,-32.0,-128.0,-32.0,1
-119.0,29.0,-221.0,-65.0,-116.0,-29.0,1
-119.0,28.0,-224.0,-99.0,-103.0,-29.0,1
-122.0,29.0,-210.0,-133.0,-90.0,-28.0,1
-128.0,30.0,-220.0,-168.0,-73.0,-30.0,1
-124.0,28.0,-219.0,-199.0,-57.0,-33.0,1
-128.0,24.0,-220.0,-228.0,-45.0,-35.0,1
-127.0,21.0,-222.0,-250.0,-34.0,-34.0,1
-129.0,17.0,-224.0,-262.0,-22.0,-36.0,1
-130.0,14.0,-225.0,-267.0,-14.0,-39.0,1
-133.0,10.0,-224.0,-264.0,-8.0,-40.0,1
-131.0,4.0,-230.0,-254.0,-5.0,-38.0,1
-131.0,1.0,-231.0,-239.0,-4.0,-34.0,1
-132.0,2.0,-236.0,-218.0,-8.0,-29.0,1
-142.0,-1.0,-235.0,-198.0,-10.0,-21.0,1
-135.0,0.0,-232.0,-178.0,-11.0,-14.0,1
-135.0,2.0,-234.0,-158.0,-12.0,-5.0,1
-136.0,3.0,-230.0,-138.0,-11.0,5.0,1
-138.0,3.0,-236.0,-125.0,-7.0,13.0,1
-137.0,5.0,-238.0,-117.0,-4.0,23.0,1
-141.0,7.0,-241.0,-114.0,-1.0,29.0,1
-139.0,11.0,-239.0,-119.0,2.0,34.0,1
-141.0,12.0,-241.0,-128.0,4.0,39.0,1
-144.0,15.0,-241.0,-135.0,6.0,43.0,1
-141.0,15.0,-238.0,-144.0,6.0,44.0,1
-147.0,16.0,-242.0,-151.0,6.0,46.0,1
-145.0,17.0,-242.0,-156.0,7.0,47.0,1
-148.0,17.0,-244.0,-159.0,8.0,48.0,1
-149.0,20.0,-243.0,-156.0,9.0,47.0,1
-148.0,18.0,-244.0,-153.0,13.0,46.0,1
-150.0,15.0,-246.0,-148.0,12.0,43.0,1
-150.0,18.0,-244.0,-141.0,11.0,42.0,1
-150.0,16.0,-246.0,-139.0,10.0,39.0,1
-154.0,19.0,-243.0,-133.0,9.0,34.0,1
-152.0,15.0,-243.0,-127.0,11.0,30.0,1
-154.0,13.0,-242.0,-123.0,13.0,26.0,1
-153.0,18.0,-245.0,-120.0,18.0,22.0,1
-152.0,16.0,-239.0,-118.0,22.0,18.0,1
-153.0,17.0,-242.0,-116.0,26.0,15.0,1
-150.0,21.0,-237.0,-109.0,32.0,12.0,1
-149.0,18.0,-239.0,-104.0,38.0,11.0,1
-147.0,20.0,-240.0,-101.0,44.0,10.0,1
-148.0,21.0,-244.0,-95.0,50.0,9.0,1
-146.0,23.0,-241.0,-90.0,57.0,8.0,1
-144.0,21.0,-240.0,-87.0,62.0,7.0,1
-145.0,25.0,-237.0,-86.0,68.0,6.0,1
-148.0,30.0,-242.0,-84.0,73.0,5.0,1
-143.0,23.0,-241.0,-87.0,78.0,4.0,1
-143.0,27.0,-240.0,-89.0,79.0,2.0,1
-142.0,24.0,-240.0,-90.0,79.0,-1.0,1
-145.0,24.0,-243.0,-92.0,78.0,-4.0,1
-143.0,21.0,-239.0,-94.0,76.0,-4.0,1
-142.0,21.0,-241.0,-98.0,72.0,-8.0,1
-140.0,23.0,-240.0,-100.0,70.0,-9.0,1
-141.0,21.0,-239.0,-100.0,69.0,-11.0,1
-143.0,22.0,-242.0,-101.0,67.0,-12.0,1
-142.0,19.0,-245.0,-102.0,67.0,-11.0,1
-138.0,20.0,-245.0,-102.0,66.0,-9.0,1
-141.0,20.0,-241.0,-100.0,66.0,-8.0,1
-140.0,19.0,-245.0,-100.0,67.0,-9.0,1
-142.0,18.0,-247.0,-97.0,67.0,-7.0,1
-139.0,16.0,-246.0,-95.0,66.0,-7.0,1
-137.0,20.0,-244.0,-94.0,66.0,-6.0,1
-134.0,16.0,-250.0,-92.0,68.0,-4.0,1
-136.0,19.0,-247.0,-88.0,70.0,-2.0,1
-133.0,17.0,-243.0,-87.0,71.0,-2.0,1
-134.0,21.0,-245.0,-87.0,73.0,-1.0,1
-136.0,22.0,-245.0,-86.0,71.0,0.0,1
-131.0,21.0,-241.0,-85.0,70.0,2.0,1
-134.0,21.0,-247.0,-85.0,70.0,5.0,1
-132.0,21.0,-243.0,-88.0,69.0,5.0,1
-136.0,24.0,-246.0,-88.0,65.0,8.0,1
-135.0,25.0,-244.0,-91.0,61.0,9.0,1
-138.0,27.0,-243.0,-93.0,58.0,10.0,1
-136.0,23.0,-247.0,-96.0,55.0,9.0,1
-140.0,19.0,-247.0,-98.0,53.0,7.0,1
-137.0,22.0,-247.0,-99.0,52.0,7.0,1
-140.0,24.0,-246.0,-102.0,53.0,4.0,1
-138.0,21.0,-245.0,-104.0,54.0,3.0,1
-137.0,23.0,-244.0,-106.0,53.0,2.0,1
-139.0,20.0,-244.0,-109.0,51.0,1.0,1
-139.0,20.0,-244.0,-111.0,49.0,1.0,1
-143.0,23.0,-242.0,-110.0,44.0,3.0,1
-139.0,16.0,-246.0,-111.0,41.0,2.0,1
-141.0,19.0,-248.0,-110.0,35.0,0.0,1
-144.0,24.0,-246.0,-106.0,30.0,2.0,1
-139.0,21.0,-250.0,-101.0,23.0,5.0,1
-141.0,23.0,-241.0,-96.0,15.0,6.0,1
-143.0,23.0,-246.0,-91.0,8.0,4.0,1
-143.0,25.0,-249.0,-86.0,1.0,2.0,1
-143.0,23.0,-247.0,-86.0,-3.0,-1.0,1
-144.0,27.0,-248.0,-87.0,-7.0,-1.0,1
-142.0,23.0,-248.0,-91.0,-10.0,-2.0,1
-142.0,22.0,-245.0,-93.0,-11.0,-3.0,1
-141.0,22.0,-244.0,-92.0,-12.0,-6.0,1
-140.0,26.0,-244.0,-92.0,-13.0,-4.0,1
-137.0,21.0,-247.0,-92.0,-16.0,-7.0,1
-139.0,27.0,-244.0,-93.0,-17.0,-5.0,1
-144.0,26.0,-241.0,-91.0,-21.0,-3.0,1
-141.0,24.0,-239.0,-88.0,-23.0,-6.0,1
-137.0,24.0,-244.0,-88.0,-25.0,-6.0,1
-141.0,23.0,-246.0,-86.0,-27.0,-5.0,1
-142.0,22.0,-246.0,-84.0,-27.0,-4.0,1
-142.0,25.0,-243.0,-81.0,-26.0,-3.0,1
-140.0,24.0,-244.0,-82.0,-24.0,-3.0,1
-140.0,26.0,-241.0,-82.0,-21.0,-3.0,1
-139.0,23.0,-245.0,-82.0,-19.0,-5.0,1
-141.0,26.0,-243.0,-84.0,-18.0,-6.0,1
-143.0,25.0,-245.0,-86.0,-14.0,-8.0,1
-139.0,20.0,-245.0,-89.0,-8.0,-9.0,1
-140.0,27.0,-243.0,-89.0,-5.0,-10.0,1
-144.0,26.0,-243.0,-89.0,-2.0,-10.0,1
-137.0,24.0,-245.0,-87.0,-1.0,-12.0,1
-140.0,23.0,-241.0,-86.0,-2.0,-13.0,1
-140.0,22.0,-243.0,-85.0,-1.0,-12.0,1
-139.0,24.0,-239.0,-84.0,0.0,-11.0,1
-136.0,20.0,-240.0,-80.0,1.0,-9.0,1
-138.0,23.0,-241.0,-76.0,2.0,-9.0,1
-136.0,22.0,-239.0,-75.0,5.0,-8.0,1
-139.0,25.0,-242.0,-74.0,8.0,-7.0,1
-143.0,23.0,-242.0,-72.0,9.0,-7.0,1
-136.0,22.0,-237.0,-74.0,12.0,-5.0,1
-139.0,23.0,-238.0,-77.0,16.0,-5.0,1
-138.0,25.0,-243.0,-78.0,19.0,-4.0,1
-143.0,23.0,-237.0,-81.0,21.0,-4.0,1
-139.0,21.0,-239.0,-82.0,25.0,-3.0,1
-142.0,23.0,-239.0,-87.0,28.0,-3.0,1
-138.0,19.0,-242.0,-90.0,31.0,-2.0,1
-142.0,24.0,-240.0,-92.0,32.0,0.0,1
-141.0,21.0,-242.0,-95.0,35.0,0.0,1
-138.0,23.0,-239.0,-95.0,39.0,2.0,1
-141.0,23.0,-246.0,-94.0,43.0,3.0,1
-140.0,20.0,-240.0,-89.0,43.0,6.0,1
-142.0,25.0,-241.0,-85.0,40.0,6.0,1
-141.0,25.0,-242.0,-80.0,37.0,9.0,1
-143.0,27.0,-241.0,-77.0,35.0,10.0,1
-142.0,26.0,-240.0,-78.0,37.0,10.0,1
-139.0,25.0,-246.0,-75.0,37.0,10.0,1
-139.0,23.0,-244.0,-71.0,37.0,11.0,1
-139.0,26.0,-247.0,-67.0,35.0,12.0,1
-140.0,29.0,-243.0,-61.0,36.0,11.0,1
-137.0,26.0,-244.0,-59.0,37.0,10.0,1
-140.0,26.0,-242.0,-56.0,38.0,9.0,1
-139.0,27.0,-242.0,-54.0,37.0,10.0,1
-150.0,27.0,-247.0,-53.0,38.0,8.0,1
-137.0,22.0,-242.0,-51.0,36.0,9.0,1
-139.0,24.0,-242.0,-45.0,37.0,8.0,1
-141.0,27.0,-241.0,-44.0,37.0,8.0,1
-138.0,27.0,-242.0,-43.0,38.0,7.0,1
-140.0,27.0,-244.0,-47.0,40.0,7.0,1
-138.0,28.0,-242.0,-46.0,40.0,7.0,1
-141.0,26.0,-243.0,-46.0,38.0,6.0,1
-143.0,25.0,-243.0,-48.0,36.0,4.0,1
-144.0,30.0,-243.0,-49.0,35.0,4.0,1
-140.0,30.0,-242.0,-52.0,38.0,2.0,1
-134.0,24.0,-247.0,-53.0,36.0,1.0,1
-138.0,24.0,-242.0,-52.0,34.0,0.0,1
-141.0,25.0,-246.0,-53.0,33.0,-1.0,1
-141.0,26.0,-243.0,-54.0,32.0,-2.0,1
-139.0,27.0,-241.0,-52.0,32.0,-2.0,1
-140.0,26.0,-241.0,-49.0,31.0,-3.0,1
-137.0,27.0,-241.0,-47.0,29.0,-4.0,1
-139.0,25.0,-250.0,-47.0,31.0,-6.0,1
-139.0,23.0,-245.0,-43.0,31.0,-4.0,1
-138.0,26.0,-240.0,-42.0,30.0,-7.0,1
-136.0,21.0,-244.0,-41.0,28.0,-5.0,1
-132.0,24.0,-239.0,-40.0,28.0,-7.0,1
-139.0,26.0,-245.0,-39.0,28.0,-8.0,1
-137.0,24.0,-246.0,-40.0,27.0,-7.0,1
-136.0,23.0,-243.0,-39.0,26.0,-7.0,1
-140.0,26.0,-245.0,-42.0,27.0,-7.0,1
-137.0,24.0,-239.0,-45.0,29.0,-8.0,1
-137.0,26.0,-240.0,-48.0,29.0,-7.0,1
-138.0,26.0,-244.0,-49.0,29.0,-6.0,1
-142.0,29.0,-243.0,-52.0,27.0,-7.0,1
-137.0,24.0,-241.0,-53.0,27.0,-7.0,1
-142.0,27.0,-237.0,-54.0,25.0,-5.0,1
-139.0,25.0,-242.0,-58.0,24.0,-5.0,1
-137.0,24.0,-242.0,-58.0,24.0,-5.0,1
-139.0,23.0,-244.0,-58.0,24.0,-4.0,1
-135.0,27.0,-243.0,-58.0,25.0,-4.0,1
-139.0,22.0,-243.0,-56.0,26.0,-1.0,1
-139.0,26.0,-245.0,-57.0,26.0,-2.0,1
-138.0,27.0,-242.0,-57.0,28.0,0.0,1
-136.0,25.0,-241.0,-57.0,26.0,0.0,1
-138.0,25.0,-241.0,-56.0,25.0,0.0,1
-136.0,26.0,-243.0,-56.0,26.0,0.0,1
-140.0,20.0,-250.0,-56.0,26.0,-1.0,1
-139.0,29.0,-244.0,-54.0,28.0,-2.0,1
-141.0,28.0,-242.0,-54.0,29.0,-1.0,1
-137.0,24.0,-246.0,-52.0,29.0,-2.0,1
-139.0,22.0,-243.0,-48.0,29.0,-2.0,1
-137.0,26.0,-241.0,-49.0,30.0,0.0,1
-138.0,24.0,-243.0,-49.0,29.0,1.0,1
-138.0,24.0,-244.0,-49.0,31.0,1.0,1
-139.0,23.0,-243.0,-50.0,32.0,2.0,1
-140.0,25.0,-243.0,-50.0,31.0,1.0,1
-137.0,23.0,-244.0,-47.0,33.0,3.0,1
-139.0,22.0,-244.0,-50.0,34.0,4.0,1
-144.0,29.0,-242.0,-49.0,35.0,2.0,1
-138.0,24.0,-242.0,-48.0,34.0,3.0,1
-138.0,28.0,-242.0,-49.0,35.0,4.0,1
-139.0,25.0,-246.0,-47.0,34.0,2.0,1
-138.0,25.0,-242.0,-45.0,34.0,2.0,1
-141.0,29.0,-242.0,-44.0,36.0,1.0,1
-138.0,25.0,-240.0,-43.0,38.0,1.0,1
-143.0,29.0,-244.0,-40.0,39.0,-1.0,1
-141.0,25.0,-250.0,-38.0,37.0,0.0,1
-141.0,29.0,-238.0,-38.0,36.0,-1.0,1
-137.0,22.0,-240.0,-34.0,35.0,-2.0,1
-143.0,32.0,-245.0,-34.0,35.0,-3.0,1
-139.0,25.0,-244.0,-36.0,35.0,-2.0,1
-141.0,23.0,-241.0,-35.0,33.0,-1.0,1
-140.0,25.0,-243.0,-38.0,31.0,-1.0,1
-138.0,25.0,-246.0,-42.0,30.0,0.0,1
-138.0,28.0,-240.0,-45.0,29.0,-1.0,1
-137.0,24.0,-247.0,-47.0,29.0,0.0,1
-137.0,24.0,-246.0,-49.0,31.0,1.0,1
-138.0,28.0,-244.0,-52.0,33.0,1.0,1
-138.0,26.0,-241.0,-53.0,34.0,2.0,1
-138.0,23.0,-241.0,-51.0,33.0,2.0,1
-139.0,29.0,-242.0,-51.0,35.0,0.0,1
-136.0,24.0,-246.0,-46.0,36.0,0.0,1
-137.0,26.0,-240.0,-46.0,36.0,0.0,1
-139.0,26.0,-245.0,-41.0,38.0,-1.0,1
-140.0,28.0,-242.0,-39.0,37.0,-1.0,1
-136.0,26.0,-244.0,-33.0,34.0,-1.0,1
-137.0,25.0,-242.0,-32.0,32.0,-1.0,1
-135.0,23.0,-246.0,-29.0,28.0,-1.0,1
-137.0,27.0,-246.0,-29.0,24.0,-2.0,1
-135.0,25.0,-244.0,-29.0,19.0,-3.0,1
-137.0,28.0,-230.0,-31.0,17.0,-3.0,1
-137.0,23.0,-246.0,-34.0,16.0,-3.0,1
-135.0,25.0,-244.0,-38.0,17.0,-3.0,1
-139.0,24.0,-243.0,-40.0,17.0,-1.0,1
-139.0,25.0,-243.0,-44.0,20.0,0.0,1
-136.0,23.0,-242.0,-49.0,21.0,1.0,1
-137.0,23.0,-251.0,-52.0,23.0,3.0,1
-137.0,26.0,-239.0,-53.0,25.0,4.0,1
-139.0,27.0,-243.0,-54.0,27.0,3.0,1
-138.0,23.0,-246.0,-50.0,29.0,3.0,1
-137.0,26.0,-245.0,-51.0,28.0,5.0,1
-137.0,20.0,-244.0,-50.0,27.0,6.0,1
-136.0,26.0,-248.0,-47.0,27.0,5.0,1
-140.0,25.0,-242.0,-49.0,27.0,5.0,1
-140.0,26.0,-241.0,-49.0,24.0,6.0,1
-141.0,27.0,-242.0,-49.0,21.0,8.0,1
-135.0,24.0,-242.0,-47.0,21.0,8.0,1
-138.0,25.0,-242.0,-45.0,19.0,7.0,1
-138.0,25.0,-243.0,-42.0,18.0,6.0,1
-138.0,30.0,-244.0,-43.0,18.0,6.0,1
-136.0,27.0,-245.0,-42.0,18.0,4.0,1
-139.0,22.0,-242.0,-42.0,18.0,3.0,1
-135.0,28.0,-236.0,-44.0,20.0,2.0,1
-137.0,24.0,-246.0,-45.0,21.0,1.0,1
-139.0,26.0,-246.0,-44.0,24.0,1.0,1
-138.0,27.0,-245.0,-44.0,24.0,0.0,1
-137.0,27.0,-246.0,-42.0,23.0,0.0,1
-137.0,27.0,-243.0,-42.0,23.0,1.0,1
-138.0,27.0,-244.0,-43.0,23.0,1.0,1
-135.0,26.0,-246.0,-40.0,21.0,0.0,1
-138.0,28.0,-243.0,-40.0,20.0,-1.0,1
-136.0,26.0,-239.0,-39.0,19.0,-1.0,1
-136.0,24.0,-246.0,-40.0,20.0,-1.0,1
-125.0,23.0,-244.0,-41.0,20.0,-2.0,1
-137.0,25.0,-240.0,-42.0,20.0,-1.0,1
-140.0,28.0,-243.0,-42.0,23.0,-1.0,1
-138.0,24.0,-242.0,-42.0,25.0,-2.0,1
-139.0,28.0,-243.0,-43.0,26.0,-2.0,1
-139.0,27.0,-242.0,-43.0,29.0,-2.0,1
-136.0,24.0,-243.0,-43.0,29.0,-2.0,1
-134.0,25.0,-248.0,-42.0,31.0,-4.0,1
-138.0,28.0,-246.0,-44.0,30.0,-3.0,1
-138.0,26.0,-243.0,-43.0,31.0,-4.0,1
-133.0,24.0,-244.0,-44.0,32.0,-3.0,1
-136.0,20.0,-239.0,-44.0,28.0,-3.0,1
-135.0,25.0,-243.0,-45.0,28.0,-3.0,1
-137.0,27.0,-241.0,-46.0,29.0,-2.0,1
-138.0,27.0,-246.0,-47.0,28.0,-1.0,1
-137.0,24.0,-244.0,-48.0,27.0,-3.0,1
-134.0,25.0,-244.0,-48.0,26.0,-2.0,1
-138.0,27.0,-244.0,-47.0,27.0,-2.0,1
-136.0,25.0,-243.0,-48.0,27.0,0.0,1
-138.0,23.0,-242.0,-49.0,27.0,1.0,1
-137.0,27.0,-241.0,-48.0,28.0,0.0,1
-136.0,25.0,-245.0,-50.0,29.0,1.0,1
-138.0,23.0,-239.0,-51.0,26.0,2.0,1
-141.0,26.0,-243.0,-51.0,28.0,2.0,1
-137.0,24.0,-244.0,-52.0,26.0,3.0,1
-135.0,25.0,-244.0,-54.0,25.0,5.0,1
-136.0,25.0,-244.0,-56.0,23.0,6.0,1
-136.0,24.0,-246.0,-56.0,22.0,6.0,1
-137.0,24.0,-244.0,-57.0,18.0,7.0,1
-138.0,28.0,-244.0,-60.0,17.0,9.0,1
-135.0,23.0,-247.0,-61.0,14.0,10.0,1
-137.0,24.0,-249.0,-61.0,13.0,12.0,1
-134.0,24.0,-246.0,-61.0,14.0,12.0,1
-134.0,28.0,-242.0,-59.0,14.0,12.0,1
-134.0,23.0,-242.0,-57.0,14.0,13.0,1
-138.0,26.0,-245.0,-55.0,15.0,12.0,1
-137.0,26.0,-245.0,-53.0,15.0,11.0,1
-135.0,25.0,-247.0,-51.0,16.0,12.0,1
-136.0,25.0,-246.0,-53.0,16.0,12.0,1
-136.0,29.0,-245.0,-52.0,16.0,12.0,1
-136.0,28.0,-248.0,-52.0,16.0,11.0,1
-138.0,27.0,-246.0,-53.0,17.0,10.0,1
-137.0,30.0,-241.0,-51.0,17.0,9.0,1
-138.0,31.0,-244.0,-50.0,19.0,9.0,1
-137.0,27.0,-243.0,-50.0,18.0,9.0,1
-141.0,32.0,-242.0,-47.0,18.0,8.0,1
-139.0,28.0,-245.0,-45.0,17.0,9.0,1
-137.0,27.0,-247.0,-48.0,17.0,8.0,1
-138.0,28.0,-244.0,-47.0,14.0,7.0,1
-136.0,28.0,-246.0,-49.0,13.0,7.0,1
-137.0,29.0,-247.0,-49.0,12.0,5.0,1
-136.0,31.0,-245.0,-48.0,11.0,3.0,1
-136.0,25.0,-237.0,-46.0,13.0,1.0,1
-135.0,26.0,-241.0,-45.0,12.0,0.0,1
-136.0,25.0,-240.0,-42.0,13.0,-2.0,1
-136.0,29.0,-242.0,-41.0,15.0,-5.0,1
-136.0,28.0,-242.0,-38.0,16.0,-5.0,1
-138.0,28.0,-245.0,-37.0,18.0,-5.0,1
-136.0,25.0,-242.0,-36.0,22.0,-7.0,1
-138.0,28.0,-243.0,-34.0,23.0,-7.0,1
-134.0,25.0,-246.0,-35.0,22.0,-9.0,1
-136.0,26.0,-244.0,-35.0,22.0,-10.0,1
-136.0,27.0,-243.0,-34.0,23.0,-9.0,1
-137.0,29.0,-244.0,-36.0,23.0,-10.0,1
-136.0,28.0,-243.0,-37.0,23.0,-10.0,1
-139.0,27.0,-241.0,-37.0,25.0,-11.0,1
-134.0,25.0,-249.0,-36.0,27.0,-12.0,1
-138.0,27.0,-245.0,-37.0,28.0,-11.0,1
-139.0,29.0,-244.0,-38.0,29.0,-10.0,1
-139.0,25.0,-243.0,-39.0,30.0,-11.0,1
-139.0,26.0,-245.0,-39.0,29.0,-10.0,1
-134.0,24.0,-245.0,-38.0,30.0,-10.0,1
-137.0,25.0,-244.0,-38.0,31.0,-8.0,1
-135.0,26.0,-245.0,-39.0,32.0,-7.0,1
-135.0,27.0,-239.0,-40.0,32.0,-6.0,1
-139.0,26.0,-246.0,-41.0,30.0,-7.0,1
-137.0,30.0,-241.0,-42.0,30.0,-6.0,1
-138.0,25.0,-245.0,-44.0,30.0,-5.0,1
-135.0,23.0,-246.0,-45.0,29.0,-2.0,1
-138.0,25.0,-247.0,-46.0,27.0,-1.0,1
-135.0,25.0,-246.0,-46.0,26.0,-2.0,1
-134.0,25.0,-248.0,-47.0,25.0,-2.0,1
-133.0,24.0,-248.0,-49.0,24.0,0.0,1
-139.0,27.0,-245.0,-49.0,24.0,1.0,1
-137.0,29.0,-243.0,-50.0,24.0,1.0,1
-133.0,24.0,-243.0,-50.0,25.0,0.0,1
-133.0,24.0,-243.0,-50.0,25.0,1.0,1
-138.0,22.0,-245.0,-52.0,26.0,2.0,1
-139.0,27.0,-244.0,-53.0,27.0,1.0,1
-138.0,23.0,-246.0,-52.0,27.0,2.0,1
-137.0,26.0,-245.0,-54.0,28.0,3.0,1
-135.0,23.0,-250.0,-51.0,30.0,4.0,1
-134.0,25.0,-244.0,-54.0,29.0,3.0,1
-136.0,27.0,-245.0,-53.0,30.0,4.0,1
-136.0,28.0,-243.0,-53.0,31.0,5.0,1
-137.0,30.0,-245.0,-53.0,32.0,7.0,1
-135.0,24.0,-244.0,-52.0,32.0,6.0,1
