ax,ay,az,gx,gy,gz,label
11.0,-258.0,-16.0,-10.0,72.0,-12.0,1
14.0,-256.0,-18.0,-11.0,72.0,-14.0,1
13.0,-256.0,-13.0,-7.0,73.0,-12.0,1
8.0,-255.0,-17.0,-6.0,73.0,-13.0,1
9.0,-256.0,-12.0,-3.0,73.0,-10.0,1
5.0,-249.0,-15.0,-2.0,72.0,-12.0,1
11.0,-254.0,-13.0,0.0,73.0,-9.0,1
11.0,-256.0,-14.0,1.0,73.0,-12.0,1
10.0,-255.0,-13.0,3.0,74.0,-9.0,1
12.0,-256.0,-16.0,1.0,74.0,-13.0,1
13.0,-256.0,-14.0,2.0,74.0,-9.0,1
10.0,-250.0,-17.0,2.0,74.0,-10.0,1
13.0,-254.0,-15.0,3.0,73.0,-9.0,1
12.0,-255.0,-11.0,2.0,73.0,-11.0,1
15.0,-253.0,-14.0,2.0,73.0,-11.0,1
11.0,-254.0,-16.0,-2.0,71.0,-13.0,1
11.0,-253.0,-16.0,-3.0,71.0,-13.0,1
15.0,-255.0,-14.0,-5.0,70.0,-15.0,1
11.0,-253.0,-17.0,-8.0,69.0,-13.0,1
10.0,-255.0,-15.0,-11.0,67.0,-14.0,1
9.0,-252.0,-18.0,-14.0,64.0,-11.0,1
11.0,-257.0,-17.0,-16.0,62.0,-11.0,1
10.0,-254.0,-16.0,-18.0,61.0,-10.0,1
9.0,-255.0,-15.0,-19.0,58.0,-9.0,1
11.0,-254.0,-16.0,-17.0,57.0,-7.0,1
9.0,-253.0,-15.0,-18.0,55.0,-8.0,1
10.0,-255.0,-13.0,-18.0,53.0,-7.0,1
4.0,-252.0,-9.0,-17.0,53.0,-7.0,1
9.0,-253.0,-14.0,-17.0,51.0,-8.0,1
10.0,-253.0,-20.0,-18.0,48.0,-8.0,1
12.0,-254.0,-16.0,-20.0,47.0,-7.0,1
11.0,-256.0,-13.0,-21.0,44.0,-8.0,1
10.0,-256.0,-15.0,-21.0,43.0,-8.0,1
11.0,-254.0,-16.0,-23.0,41.0,-7.0,1
10.0,-251.0,-14.0,-24.0,39.0,-8.0,1
12.0,-255.0,-11.0,-24.0,37.0,-8.0,1
13.0,-255.0,-11.0,-23.0,37.0,-9.0,1
13.0,-256.0,-16.0,-24.0,35.0,-8.0,1
14.0,-257.0,-11.0,-25.0,34.0,-8.0,1
13.0,-254.0,-12.0,-26.0,32.0,-9.0,1
12.0,-254.0,-13.0,-27.0,31.0,-11.0,1
13.0,-253.0,-11.0,-27.0,30.0,-9.0,1
14.0,-252.0,-13.0,-27.0,30.0,-10.0,1
16.0,-255.0,-15.0,-28.0,29.0,-9.0,1
14.0,-253.0,-16.0,-30.0,29.0,-9.0,1
14.0,-254.0,-13.0,-30.0,27.0,-6.0,1
13.0,-253.0,-11.0,-31.0,29.0,-7.0,1
16.0,-256.0,-14.0,-34.0,29.0,-6.0,1
13.0,-255.0,-12.0,-36.0,29.0,-6.0,1
12.0,-253.0,-14.0,-36.0,28.0,-4.0,1
17.0,-260.0,-10.0,-35.0,30.0,-5.0,1
16.0,-256.0,-14.0,-33.0,31.0,-2.0,1
11.0,-255.0,-9.0,-30.0,32.0,-5.0,1
13.0,-254.0,-10.0,-27.0,34.0,-4.0,1
15.0,-256.0,-11.0,-25.0,35.0,-6.0,1
11.0,-258.0,-11.0,-24.0,37.0,-5.0,1
11.0,-256.0,-13.0,-20.0,35.0,-7.0,1
17.0,-255.0,-11.0,-19.0,36.0,-6.0,1
14.0,-252.0,-10.0,-20.0,36.0,-7.0,1
15.0,-255.0,-15.0,-21.0,36.0,-5.0,1
15.0,-254.0,-11.0,-20.0,38.0,-8.0,1
15.0,-255.0,-10.0,-21.0,40.0,-5.0,1
14.0,-254.0,-13.0,-22.0,42.0,-6.0,1
15.0,-253.0,-11.0,-25.0,41.0,-2.0,1
14.0,-254.0,-16.0,-26.0,42.0,-4.0,1
16.0,-255.0,-13.0,-27.0,43.0,0.0,1
15.0,-254.0,-15.0,-28.0,45.0,-2.0,1
13.0,-255.0,-10.0,-28.0,47.0,2.0,1
15.0,-253.0,-12.0,-29.0,49.0,-1.0,1
18.0,-257.0,-10.0,-27.0,49.0,3.0,1
15.0,-256.0,-13.0,-27.0,49.0,1.0,1
19.0,-253.0,-12.0,-28.0,52.0,4.0,1
16.0,-253.0,-10.0,-29.0,52.0,1.0,1
14.0,-253.0,-9.0,-28.0,51.0,4.0,1
17.0,-251.0,-13.0,-30.0,50.0,2.0,1
16.0,-255.0,-12.0,-30.0,51.0,4.0,1
15.0,-254.0,-14.0,-30.0,52.0,2.0,1
17.0,-253.0,-12.0,-32.0,51.0,5.0,1
16.0,-252.0,-10.0,-34.0,51.0,3.0,1
16.0,-254.0,-11.0,-35.0,50.0,5.0,1
18.0,-255.0,-13.0,-39.0,50.0,3.0,1
17.0,-255.0,-11.0,-41.0,51.0,6.0,1
17.0,-257.0,-14.0,-44.0,52.0,4.0,1
16.0,-253.0,-12.0,-45.0,53.0,6.0,1
13.0,-254.0,-14.0,-46.0,52.0,5.0,1
16.0,-254.0,-13.0,-46.0,53.0,8.0,1
15.0,-257.0,-14.0,-47.0,56.0,6.0,1
20.0,-257.0,-12.0,-49.0,56.0,7.0,1
20.0,-257.0,-12.0,-48.0,56.0,3.0,1
17.0,-258.0,-10.0,-50.0,61.0,4.0,1
15.0,-255.0,-9.0,-49.0,61.0,3.0,1
17.0,-257.0,-8.0,-51.0,60.0,3.0,1
17.0,-258.0,-7.0,-53.0,58.0,1.0,1
17.0,-256.0,-11.0,-51.0,57.0,2.0,1
16.0,-255.0,-7.0,-49.0,60.0,1.0,1
20.0,-256.0,-12.0,-48.0,60.0,2.0,1
18.0,-254.0,-9.0,-45.0,61.0,3.0,1
17.0,-254.0,-10.0,-43.0,61.0,5.0,1
19.0,-253.0,-12.0,-42.0,60.0,3.0,1
18.0,-255.0,-13.0,-42.0,60.0,5.0,1
20.0,-253.0,-12.0,-45.0,60.0,5.0,1
21.0,-255.0,-9.0,-46.0,61.0,6.0,1
20.0,-252.0,-13.0,-48.0,62.0,3.0,1
18.0,-253.0,-10.0,-53.0,60.0,2.0,1
19.0,-255.0,-13.0,-55.0,61.0,2.0,1
19.0,-256.0,-10.0,-57.0,59.0,2.0,1
16.0,-253.0,-10.0,-60.0,58.0,3.0,1
17.0,-256.0,-6.0,-60.0,60.0,3.0,1
17.0,-257.0,-7.0,-61.0,59.0,4.0,1
20.0,-255.0,-11.0,-61.0,59.0,4.0,1
17.0,-257.0,-12.0,-61.0,57.0,3.0,1
19.0,-256.0,-10.0,-61.0,56.0,3.0,1
16.0,-257.0,-9.0,-61.0,53.0,4.0,1
17.0,-256.0,-7.0,-62.0,54.0,2.0,1
18.0,-256.0,-7.0,-63.0,53.0,2.0,1
19.0,-255.0,-7.0,-63.0,53.0,0.0,1
21.0,-257.0,-10.0,-62.0,53.0,1.0,1
19.0,-256.0,-11.0,-61.0,55.0,1.0,1
19.0,-255.0,-8.0,-58.0,55.0,2.0,1
17.0,-253.0,-11.0,-58.0,55.0,0.0,1
19.0,-256.0,-9.0,-57.0,57.0,0.0,1
21.0,-255.0,-8.0,-56.0,58.0,-1.0,1
21.0,-253.0,-10.0,-54.0,60.0,-1.0,1
18.0,-251.0,-6.0,-52.0,61.0,-3.0,1
22.0,-255.0,-10.0,-54.0,62.0,-3.0,1
21.0,-256.0,-8.0,-55.0,62.0,-5.0,1
21.0,-255.0,-9.0,-57.0,64.0,-5.0,1
23.0,-256.0,-12.0,-60.0,66.0,-8.0,1
21.0,-255.0,-11.0,-64.0,67.0,-7.0,1
24.0,-254.0,-10.0,-67.0,69.0,-9.0,1
23.0,-255.0,-10.0,-71.0,72.0,-8.0,1
22.0,-253.0,-9.0,-74.0,73.0,-10.0,1
23.0,-254.0,-14.0,-78.0,76.0,-8.0,1
25.0,-255.0,-14.0,-81.0,79.0,-12.0,1
27.0,-254.0,-11.0,-85.0,82.0,-9.0,1
23.0,-253.0,-12.0,-84.0,85.0,-11.0,1
26.0,-255.0,-10.0,-85.0,87.0,-9.0,1
29.0,-255.0,-11.0,-86.0,92.0,-10.0,1
29.0,-256.0,-15.0,-91.0,94.0,-7.0,1
24.0,-253.0,-13.0,-92.0,98.0,-9.0,1
27.0,-254.0,-14.0,-94.0,102.0,-6.0,1
29.0,-256.0,-11.0,-94.0,106.0,-8.0,1
27.0,-253.0,-11.0,-96.0,110.0,-7.0,1
28.0,-255.0,-14.0,-97.0,113.0,-9.0,1
27.0,-256.0,-18.0,-98.0,117.0,-7.0,1
27.0,-254.0,-16.0,-99.0,122.0,-9.0,1
28.0,-251.0,-14.0,-99.0,127.0,-8.0,1
29.0,-254.0,-14.0,-99.0,130.0,-11.0,1
31.0,-255.0,-16.0,-99.0,135.0,-9.0,1
29.0,-253.0,-12.0,-98.0,139.0,-14.0,1
26.0,-250.0,-16.0,-97.0,143.0,-11.0,1
33.0,-254.0,-12.0,-97.0,146.0,-15.0,1
28.0,-254.0,-13.0,-96.0,150.0,-13.0,1
31.0,-254.0,-18.0,-98.0,152.0,-14.0,1
31.0,-253.0,-13.0,-101.0,156.0,-12.0,1
33.0,-253.0,-14.0,-103.0,159.0,-14.0,1
34.0,-253.0,-16.0,-105.0,164.0,-10.0,1
33.0,-251.0,-16.0,-106.0,168.0,-12.0,1
31.0,-252.0,-16.0,-110.0,172.0,-10.0,1
35.0,-254.0,-12.0,-112.0,175.0,-11.0,1
33.0,-253.0,-19.0,-117.0,179.0,-9.0,1
36.0,-254.0,-16.0,-119.0,187.0,-12.0,1
36.0,-254.0,-12.0,-123.0,192.0,-11.0,1
38.0,-254.0,-14.0,-125.0,197.0,-12.0,1
40.0,-259.0,-13.0,-127.0,205.0,-13.0,1
36.0,-256.0,-16.0,-129.0,213.0,-17.0,1
37.0,-255.0,-13.0,-133.0,218.0,-17.0,1
38.0,-257.0,-6.0,-134.0,219.0,-18.0,1
37.0,-259.0,-9.0,-133.0,219.0,-18.0,1
36.0,-258.0,-10.0,-131.0,221.0,-19.0,1
35.0,-258.0,-9.0,-127.0,225.0,-16.0,1
39.0,-257.0,-11.0,-123.0,229.0,-19.0,1
37.0,-255.0,-9.0,-119.0,237.0,-19.0,1
40.0,-257.0,-12.0,-115.0,243.0,-20.0,1
41.0,-254.0,-14.0,-111.0,249.0,-21.0,1
40.0,-255.0,-14.0,-109.0,257.0,-22.0,1
38.0,-252.0,-13.0,-109.0,263.0,-24.0,1
37.0,-252.0,-18.0,-108.0,269.0,-23.0,1
39.0,-253.0,-10.0,-107.0,274.0,-24.0,1
39.0,-253.0,-12.0,-109.0,279.0,-23.0,1
38.0,-254.0,-8.0,-109.0,285.0,-22.0,1
37.0,-249.0,-9.0,-110.0,292.0,-21.0,1
36.0,-251.0,-10.0,-110.0,298.0,-20.0,1
36.0,-249.0,-9.0,-108.0,302.0,-18.0,1
33.0,-248.0,-8.0,-109.0,305.0,-17.0,1
37.0,-250.0,-8.0,-110.0,306.0,-13.0,1
37.0,-250.0,-10.0,-109.0,309.0,-12.0,1
38.0,-250.0,-10.0,-110.0,312.0,-6.0,1
34.0,-246.0,-8.0,-111.0,313.0,-5.0,1
39.0,-248.0,-4.0,-113.0,316.0,0.0,1
36.0,-245.0,-8.0,-113.0,318.0,3.0,1
36.0,-246.0,-9.0,-116.0,318.0,6.0,1
38.0,-247.0,-7.0,-118.0,321.0,8.0,1
35.0,-246.0,-10.0,-122.0,323.0,12.0,1
40.0,-246.0,-11.0,-125.0,325.0,11.0,1
39.0,-249.0,-11.0,-130.0,327.0,15.0,1
37.0,-249.0,-9.0,-133.0,329.0,15.0,1
40.0,-247.0,-13.0,-136.0,330.0,20.0,1
39.0,-250.0,-8.0,-139.0,330.0,19.0,1
41.0,-247.0,-13.0,-139.0,333.0,24.0,1
40.0,-250.0,-10.0,-140.0,335.0,24.0,1
41.0,-254.0,-15.0,-142.0,341.0,27.0,1
44.0,-251.0,-12.0,-144.0,344.0,26.0,1
42.0,-250.0,-15.0,-143.0,347.0,29.0,1
44.0,-251.0,-12.0,-144.0,349.0,26.0,1
42.0,-253.0,-14.0,-146.0,353.0,27.0,1
44.0,-258.0,-11.0,-148.0,355.0,23.0,1
47.0,-257.0,-12.0,-148.0,359.0,25.0,1
51.0,-260.0,-16.0,-148.0,364.0,21.0,1
49.0,-260.0,-11.0,-148.0,368.0,20.0,1
46.0,-262.0,-5.0,-148.0,369.0,16.0,1
48.0,-267.0,-11.0,-144.0,370.0,14.0,1
49.0,-269.0,-11.0,-137.0,371.0,10.0,1
46.0,-269.0,-12.0,-130.0,371.0,12.0,1
47.0,-273.0,-12.0,-120.0,371.0,6.0,1
46.0,-274.0,-10.0,-106.0,371.0,9.0,1
48.0,-275.0,-13.0,-92.0,373.0,5.0,1
45.0,-278.0,-14.0,-80.0,377.0,8.0,1
47.0,-280.0,-17.0,-65.0,384.0,4.0,1
43.0,-282.0,-19.0,-51.0,388.0,5.0,1
43.0,-284.0,-20.0,-38.0,394.0,0.0,1
40.0,-281.0,-22.0,-26.0,401.0,-3.0,1
41.0,-285.0,-19.0,-18.0,404.0,-10.0,1
36.0,-284.0,-27.0,-13.0,406.0,-11.0,1
37.0,-282.0,-21.0,-7.0,409.0,-15.0,1
35.0,-283.0,-21.0,1.0,414.0,-11.0,1
33.0,-286.0,-21.0,10.0,422.0,-11.0,1
31.0,-286.0,-19.0,23.0,432.0,-2.0,1
35.0,-286.0,-20.0,31.0,442.0,4.0,1
37.0,-286.0,-22.0,39.0,452.0,14.0,1
34.0,-287.0,-27.0,44.0,463.0,20.0,1
32.0,-285.0,-27.0,46.0,475.0,34.0,1
27.0,-283.0,-24.0,50.0,481.0,46.0,1
29.0,-282.0,-25.0,51.0,486.0,61.0,1
29.0,-282.0,-26.0,55.0,492.0,75.0,1
52.0,-283.0,-36.0,54.0,501.0,91.0,1
12.0,-263.0,-36.0,49.0,519.0,92.0,1
23.0,-267.0,-26.0,48.0,527.0,120.0,1
18.0,-263.0,-33.0,45.0,513.0,142.0,1
25.0,-263.0,-41.0,41.0,516.0,163.0,1
24.0,-255.0,-41.0,43.0,522.0,173.0,1
21.0,-253.0,-42.0,38.0,529.0,191.0,1
22.0,-247.0,-41.0,30.0,533.0,199.0,1
15.0,-249.0,-44.0,24.0,534.0,206.0,1
11.0,-242.0,-49.0,11.0,536.0,204.0,1
8.0,-236.0,-42.0,-6.0,538.0,200.0,1
7.0,-229.0,-45.0,-21.0,542.0,203.0,1
-6.0,-214.0,-42.0,-34.0,545.0,211.0,1
3.0,-214.0,-46.0,-20.0,541.0,255.0,1
0.0,-221.0,-49.0,-25.0,523.0,272.0,1
-3.0,-212.0,-59.0,-46.0,539.0,264.0,1
-10.0,-208.0,-51.0,-68.0,559.0,265.0,1
-12.0,-203.0,-54.0,-89.0,554.0,264.0,1
-12.0,-204.0,-55.0,-112.0,562.0,267.0,1
-18.0,-203.0,-52.0,-128.0,573.0,269.0,1
-23.0,-201.0,-51.0,-140.0,584.0,272.0,1
-22.0,-202.0,-51.0,-156.0,599.0,275.0,1
-24.0,-206.0,-48.0,-180.0,614.0,276.0,1
-22.0,-212.0,-48.0,-201.0,632.0,273.0,1
-27.0,-217.0,-48.0,-219.0,651.0,267.0,1
-27.0,-221.0,-46.0,-238.0,668.0,267.0,1
-31.0,-233.0,-40.0,-260.0,686.0,263.0,1
-25.0,-241.0,-39.0,-277.0,702.0,263.0,1
-26.0,-244.0,-39.0,-279.0,713.0,261.0,1
-17.0,-255.0,-36.0,-273.0,730.0,263.0,1
-19.0,-255.0,-34.0,-261.0,747.0,263.0,1
-12.0,-264.0,-32.0,-246.0,762.0,262.0,1
-14.0,-262.0,-26.0,-226.0,776.0,258.0,1
-17.0,-268.0,-28.0,-207.0,785.0,257.0,1
-18.0,-271.0,-29.0,-193.0,793.0,256.0,1
-10.0,-277.0,-30.0,-179.0,795.0,257.0,1
-6.0,-281.0,-31.0,-163.0,800.0,252.0,1
-6.0,-282.0,-30.0,-137.0,810.0,253.0,1
-1.0,-280.0,-36.0,-96.0,824.0,253.0,1
-3.0,-279.0,-40.0,-66.0,832.0,256.0,1
-8.0,-274.0,-43.0,-48.0,837.0,250.0,1
-17.0,-273.0,-44.0,-36.0,838.0,247.0,1
-14.0,-268.0,-45.0,-32.0,833.0,241.0,1
-24.0,-263.0,-43.0,-26.0,831.0,239.0,1
-33.0,-262.0,-37.0,-21.0,825.0,233.0,1
-22.0,-260.0,-37.0,-22.0,816.0,228.0,1
-14.0,-255.0,-35.0,-3.0,816.0,229.0,1
-133.0,-234.0,-31.0,22.0,818.0,232.0,1
4.0,-252.0,-34.0,-3.0,787.0,214.0,1
-17.0,-255.0,-25.0,-5.0,788.0,208.0,1
-31.0,-243.0,-49.0,5.0,783.0,193.0,1
-11.0,-243.0,-39.0,9.0,802.0,196.0,1
-6.0,-244.0,-36.0,15.0,807.0,197.0,1
-11.0,-239.0,-39.0,26.0,809.0,202.0,1
-12.0,-236.0,-30.0,17.0,822.0,194.0,1
-23.0,-234.0,-28.0,1.0,816.0,182.0,1
-34.0,-239.0,-27.0,-19.0,808.0,163.0,1
-30.0,-237.0,-24.0,-40.0,796.0,150.0,1
-31.0,-236.0,-25.0,-46.0,775.0,138.0,1
-28.0,-233.0,-30.0,-40.0,764.0,138.0,1
-27.0,-232.0,-32.0,-33.0,760.0,133.0,1
-27.0,-230.0,-33.0,-31.0,757.0,131.0,1
-28.0,-231.0,-28.0,-36.0,753.0,124.0,1
-23.0,-232.0,-29.0,-40.0,750.0,122.0,1
-22.0,-232.0,-29.0,-42.0,747.0,113.0,1
-20.0,-234.0,-30.0,-49.0,743.0,108.0,1
-21.0,-239.0,-27.0,-50.0,737.0,98.0,1
-23.0,-241.0,-24.0,-47.0,730.0,93.0,1
-23.0,-243.0,-25.0,-44.0,722.0,84.0,1
-23.0,-243.0,-23.0,-38.0,707.0,76.0,1
-25.0,-248.0,-20.0,-33.0,691.0,64.0,1
-25.0,-248.0,-18.0,-27.0,678.0,57.0,1
-27.0,-249.0,-15.0,-18.0,665.0,48.0,1
-27.0,-249.0,-12.0,-12.0,653.0,43.0,1
-24.0,-248.0,-12.0,-8.0,641.0,39.0,1
-24.0,-249.0,-12.0,9.0,634.0,38.0,1
-22.0,-250.0,-10.0,30.0,627.0,36.0,1
-22.0,-250.0,-9.0,51.0,621.0,31.0,1
-18.0,-251.0,-9.0,71.0,616.0,24.0,1
-16.0,-243.0,-7.0,86.0,615.0,15.0,1
-18.0,-244.0,-9.0,97.0,613.0,3.0,1
-15.0,-244.0,-8.0,97.0,613.0,-9.0,1
-12.0,-243.0,-5.0,91.0,614.0,-23.0,1
-12.0,-238.0,-6.0,87.0,616.0,-34.0,1
-12.0,-238.0,-9.0,85.0,617.0,-46.0,1
-13.0,-237.0,-7.0,87.0,621.0,-55.0,1
-15.0,-233.0,-9.0,86.0,622.0,-66.0,1
-12.0,-231.0,-9.0,85.0,624.0,-80.0,1
-11.0,-231.0,-6.0,75.0,627.0,-92.0,1
-9.0,-225.0,-5.0,67.0,632.0,-104.0,1
-12.0,-228.0,-7.0,53.0,638.0,-114.0,1
-12.0,-229.0,-9.0,42.0,646.0,-123.0,1
-10.0,-227.0,-12.0,28.0,653.0,-134.0,1
-10.0,-227.0,-9.0,12.0,662.0,-144.0,1
-12.0,-226.0,-8.0,-7.0,671.0,-154.0,1
-12.0,-230.0,-10.0,-23.0,678.0,-164.0,1
-12.0,-234.0,-7.0,-40.0,683.0,-175.0,1
-12.0,-233.0,-10.0,-53.0,688.0,-188.0,1
-14.0,-240.0,-8.0,-65.0,690.0,-200.0,1
-16.0,-247.0,-11.0,-76.0,687.0,-213.0,1
-20.0,-250.0,-6.0,-89.0,684.0,-221.0,1
-15.0,-249.0,-8.0,-96.0,682.0,-229.0,1
-18.0,-257.0,-6.0,-96.0,683.0,-231.0,1
-20.0,-259.0,-4.0,-94.0,685.0,-233.0,1
-19.0,-259.0,-5.0,-87.0,687.0,-230.0,1
-23.0,-262.0,2.0,-79.0,689.0,-229.0,1
-19.0,-264.0,3.0,-72.0,689.0,-220.0,1
-19.0,-269.0,2.0,-65.0,689.0,-215.0,1
-17.0,-268.0,0.0,-56.0,688.0,-203.0,1
-19.0,-269.0,6.0,-53.0,688.0,-195.0,1
-21.0,-271.0,6.0,-47.0,680.0,-182.0,1
-21.0,-274.0,8.0,-42.0,667.0,-170.0,1
-21.0,-275.0,6.0,-35.0,654.0,-154.0,1
-17.0,-279.0,7.0,-29.0,641.0,-144.0,1
-19.0,-277.0,6.0,-21.0,630.0,-131.0,1
-17.0,-281.0,5.0,-17.0,620.0,-121.0,1
-15.0,-285.0,8.0,-13.0,613.0,-109.0,1
-16.0,-286.0,7.0,-8.0,609.0,-103.0,1
-18.0,-284.0,10.0,4.0,606.0,-93.0,1
-22.0,-286.0,11.0,12.0,600.0,-91.0,1
-23.0,-291.0,18.0,15.0,590.0,-83.0,1
-26.0,-289.0,19.0,22.0,584.0,-81.0,1
-27.0,-285.0,20.0,30.0,576.0,-70.0,1
-32.0,-290.0,21.0,30.0,566.0,-64.0,1
-34.0,-291.0,24.0,28.0,561.0,-52.0,1
-36.0,-295.0,28.0,31.0,555.0,-44.0,1
-40.0,-299.0,27.0,35.0,547.0,-28.0,1
-41.0,-303.0,35.0,39.0,537.0,-14.0,1
-42.0,-301.0,31.0,46.0,529.0,5.0,1
-43.0,-305.0,37.0,59.0,522.0,18.0,1
-44.0,-301.0,35.0,74.0,516.0,36.0,1
-46.0,-300.0,32.0,90.0,504.0,46.0,1
-48.0,-300.0,24.0,96.0,492.0,59.0,1
-48.0,-299.0,10.0,89.0,472.0,71.0,1
-47.0,-298.0,6.0,67.0,453.0,89.0,1
-44.0,-296.0,-8.0,43.0,434.0,109.0,1
-39.0,-302.0,-13.0,7.0,417.0,139.0,1
-37.0,-305.0,-18.0,-38.0,402.0,165.0,1
-40.0,-308.0,-13.0,-87.0,394.0,196.0,1
-39.0,-315.0,-16.0,-125.0,376.0,220.0,1
-39.0,-326.0,-14.0,-149.0,357.0,254.0,1
-37.0,-331.0,-16.0,-144.0,323.0,270.0,1
-45.0,-330.0,-27.0,-130.0,286.0,279.0,1
-44.0,-328.0,-34.0,-123.0,238.0,284.0,1
-43.0,-326.0,-45.0,-119.0,198.0,295.0,1
-43.0,-324.0,-56.0,-113.0,164.0,299.0,1
-41.0,-316.0,-56.0,-106.0,133.0,298.0,1
-36.0,-305.0,-56.0,-94.0,110.0,285.0,1
-32.0,-292.0,-59.0,-75.0,99.0,269.0,1
-24.0,-276.0,-57.0,-52.0,97.0,245.0,1
-12.0,-262.0,-55.0,-24.0,112.0,221.0,1
0.0,-249.0,-58.0,15.0,147.0,188.0,1
13.0,-230.0,-65.0,51.0,184.0,164.0,1
21.0,-217.0,-70.0,87.0,226.0,140.0,1
36.0,-202.0,-76.0,110.0,263.0,120.0,1
46.0,-192.0,-83.0,120.0,289.0,102.0,1
55.0,-183.0,-84.0,114.0,308.0,88.0,1
61.0,-171.0,-82.0,100.0,322.0,75.0,1
62.0,-166.0,-74.0,83.0,331.0,65.0,1
65.0,-163.0,-68.0,68.0,332.0,57.0,1
62.0,-157.0,-72.0,51.0,321.0,50.0,1
66.0,-168.0,-71.0,36.0,291.0,38.0,1
61.0,-168.0,-68.0,12.0,260.0,27.0,1
57.0,-181.0,-69.0,-20.0,225.0,12.0,1
49.0,-192.0,-65.0,-62.0,190.0,-6.0,1
37.0,-201.0,-64.0,-107.0,158.0,-24.0,1
26.0,-225.0,-64.0,-148.0,122.0,-37.0,1
18.0,-247.0,-64.0,-203.0,83.0,-58.0,1
14.0,-269.0,-63.0,-272.0,49.0,-99.0,1
2.0,-286.0,-57.0,-333.0,23.0,-151.0,1
10.0,-289.0,-53.0,-359.0,0.0,-202.0,1
-13.0,-308.0,-46.0,-350.0,-27.0,-251.0,1
-32.0,-313.0,-49.0,-307.0,-62.0,-289.0,1
-46.0,-315.0,-42.0,-264.0,-108.0,-322.0,1
-47.0,-328.0,-46.0,-218.0,-156.0,-345.0,1
-59.0,-326.0,-45.0,-170.0,-206.0,-354.0,1
-36.0,-314.0,-63.0,-106.0,-255.0,-357.0,1
-40.0,-328.0,-39.0,-35.0,-308.0,-358.0,1
-32.0,-310.0,-48.0,44.0,-336.0,-353.0,1
-19.0,-296.0,-51.0,119.0,-363.0,-349.0,1
-12.0,-288.0,-57.0,181.0,-387.0,-355.0,1
0.0,-273.0,-58.0,226.0,-412.0,-361.0,1
9.0,-255.0,-60.0,248.0,-424.0,-375.0,1
12.0,-259.0,-65.0,248.0,-430.0,-382.0,1
13.0,-246.0,-59.0,242.0,-439.0,-394.0,1
23.0,-226.0,-56.0,232.0,-437.0,-398.0,1
33.0,-216.0,-56.0,201.0,-445.0,-403.0,1
37.0,-212.0,-54.0,168.0,-452.0,-410.0,1
36.0,-210.0,-45.0,140.0,-450.0,-418.0,1
33.0,-205.0,-47.0,131.0,-452.0,-428.0,1
29.0,-202.0,-45.0,147.0,-450.0,-437.0,1
20.0,-208.0,-41.0,170.0,-448.0,-428.0,1
15.0,-228.0,-29.0,244.0,-469.0,-397.0,1
19.0,-199.0,-45.0,304.0,-481.0,-363.0,1
27.0,-212.0,-45.0,286.0,-485.0,-336.0,1
32.0,-222.0,-39.0,277.0,-488.0,-300.0,1
44.0,-213.0,-42.0,289.0,-489.0,-270.0,1
42.0,-204.0,-48.0,287.0,-491.0,-250.0,1
39.0,-199.0,-42.0,231.0,-486.0,-244.0,1
35.0,-198.0,-40.0,143.0,-483.0,-238.0,1
29.0,-196.0,-40.0,67.0,-494.0,-234.0,1
38.0,-195.0,-36.0,24.0,-515.0,-233.0,1
45.0,-195.0,-39.0,-20.0,-530.0,-241.0,1
52.0,-186.0,-36.0,-51.0,-521.0,-251.0,1
50.0,-194.0,-30.0,-89.0,-500.0,-255.0,1
51.0,-196.0,-26.0,-110.0,-481.0,-255.0,1
52.0,-194.0,-29.0,-121.0,-455.0,-258.0,1
52.0,-197.0,-25.0,-140.0,-427.0,-247.0,1
53.0,-202.0,-19.0,-167.0,-405.0,-234.0,1
50.0,-211.0,-13.0,-191.0,-385.0,-210.0,1
45.0,-224.0,-12.0,-208.0,-368.0,-184.0,1
42.0,-234.0,-13.0,-221.0,-355.0,-148.0,1
42.0,-232.0,-8.0,-228.0,-338.0,-128.0,1
39.0,-233.0,-3.0,-225.0,-322.0,-113.0,1
39.0,-235.0,-12.0,-212.0,-304.0,-106.0,1
39.0,-232.0,-2.0,-198.0,-286.0,-94.0,1
41.0,-242.0,-1.0,-182.0,-271.0,-81.0,1
37.0,-235.0,-7.0,-169.0,-262.0,-64.0,1
41.0,-243.0,-4.0,-156.0,-256.0,-52.0,1
40.0,-241.0,0.0,-140.0,-252.0,-38.0,1
40.0,-241.0,-2.0,-118.0,-248.0,-28.0,1
39.0,-241.0,-5.0,-89.0,-245.0,-16.0,1
42.0,-244.0,-1.0,-65.0,-238.0,-5.0,1
41.0,-238.0,-2.0,-47.0,-234.0,6.0,1
37.0,-238.0,0.0,-41.0,-234.0,13.0,1
36.0,-235.0,0.0,-39.0,-236.0,25.0,1
36.0,-236.0,0.0,-38.0,-244.0,32.0,1
35.0,-239.0,0.0,-37.0,-255.0,42.0,1
31.0,-238.0,-1.0,-35.0,-267.0,47.0,1
27.0,-237.0,4.0,-31.0,-279.0,54.0,1
24.0,-240.0,5.0,-34.0,-289.0,60.0,1
22.0,-236.0,9.0,-42.0,-300.0,66.0,1
17.0,-240.0,14.0,-45.0,-312.0,72.0,1
14.0,-241.0,14.0,-49.0,-325.0,80.0,1
14.0,-250.0,14.0,-55.0,-340.0,85.0,1
10.0,-247.0,17.0,-59.0,-358.0,92.0,1
10.0,-253.0,17.0,-61.0,-375.0,99.0,1
12.0,-257.0,15.0,-58.0,-386.0,110.0,1
14.0,-261.0,15.0,-51.0,-391.0,123.0,1
18.0,-263.0,10.0,-40.0,-387.0,135.0,1
24.0,-267.0,3.0,-25.0,-380.0,146.0,1
34.0,-271.0,2.0,-9.0,-366.0,150.0,1
44.0,-276.0,7.0,4.0,-347.0,152.0,1
51.0,-277.0,-4.0,12.0,-330.0,146.0,1
53.0,-278.0,-4.0,17.0,-312.0,130.0,1
56.0,-279.0,-7.0,19.0,-294.0,113.0,1
68.0,-279.0,-1.0,13.0,-280.0,96.0,1
76.0,-279.0,8.0,15.0,-263.0,74.0,1
91.0,-283.0,15.0,23.0,-245.0,53.0,1
98.0,-282.0,28.0,32.0,-228.0,29.0,1
109.0,-288.0,40.0,48.0,-207.0,8.0,1
108.0,-290.0,57.0,65.0,-187.0,-18.0,1
109.0,-293.0,66.0,89.0,-173.0,-47.0,1
108.0,-296.0,73.0,126.0,-161.0,-71.0,1
101.0,-296.0,73.0,159.0,-157.0,-87.0,1
97.0,-304.0,70.0,190.0,-157.0,-103.0,1
100.0,-310.0,54.0,215.0,-154.0,-114.0,1
69.0,-314.0,8.0,222.0,-147.0,-142.0,1
57.0,-320.0,-17.0,199.0,-134.0,-166.0,1
51.0,-326.0,-57.0,148.0,-119.0,-203.0,1
45.0,-338.0,-86.0,67.0,-99.0,-247.0,1
45.0,-352.0,-109.0,-32.0,-65.0,-309.0,1
53.0,-372.0,-116.0,-138.0,-15.0,-386.0,1
60.0,-385.0,-112.0,-250.0,68.0,-457.0,1
66.0,-388.0,-95.0,-315.0,147.0,-522.0,1
74.0,-381.0,-77.0,-353.0,223.0,-584.0,1
83.0,-369.0,-73.0,-366.0,286.0,-618.0,1
98.0,-357.0,-71.0,-358.0,334.0,-632.0,1
104.0,-341.0,-73.0,-335.0,362.0,-627.0,1
99.0,-324.0,-74.0,-292.0,370.0,-615.0,1
86.0,-314.0,-70.0,-239.0,354.0,-583.0,1
70.0,-303.0,-65.0,-174.0,313.0,-541.0,1
60.0,-294.0,-60.0,-100.0,250.0,-469.0,1
45.0,-287.0,-53.0,-9.0,158.0,-416.0,1
24.0,-284.0,-62.0,60.0,79.0,-363.0,1
-1.0,-274.0,-70.0,119.0,2.0,-320.0,1
-29.0,-268.0,-80.0,170.0,-69.0,-276.0,1
-58.0,-258.0,-84.0,208.0,-129.0,-233.0,1
-84.0,-254.0,-93.0,241.0,-182.0,-183.0,1
-103.0,-244.0,-98.0,263.0,-236.0,-134.0,1
-123.0,-236.0,-98.0,275.0,-283.0,-77.0,1
-127.0,-232.0,-97.0,280.0,-318.0,-17.0,1
-122.0,-233.0,-105.0,280.0,-339.0,46.0,1
-109.0,-230.0,-113.0,283.0,-331.0,107.0,1
-97.0,-239.0,-121.0,272.0,-311.0,155.0,1
-85.0,-242.0,-117.0,239.0,-284.0,190.0,1
-82.0,-239.0,-105.0,188.0,-260.0,224.0,1
-74.0,-234.0,-96.0,128.0,-243.0,244.0,1
-59.0,-233.0,-79.0,67.0,-228.0,263.0,1
-45.0,-227.0,-74.0,17.0,-211.0,276.0,1
-28.0,-227.0,-66.0,-21.0,-190.0,294.0,1
-10.0,-226.0,-66.0,-43.0,-163.0,309.0,1
5.0,-223.0,-59.0,-61.0,-134.0,331.0,1
24.0,-224.0,-52.0,-74.0,-97.0,351.0,1
36.0,-224.0,-52.0,-85.0,-68.0,367.0,1
52.0,-226.0,-47.0,-89.0,-40.0,374.0,1
62.0,-230.0,-40.0,-93.0,-13.0,383.0,1
66.0,-229.0,-41.0,-86.0,19.0,393.0,1
74.0,-236.0,-42.0,-89.0,56.0,410.0,1
82.0,-238.0,-37.0,-98.0,92.0,426.0,1
83.0,-234.0,-37.0,-104.0,125.0,445.0,1
82.0,-234.0,-40.0,-102.0,157.0,459.0,1
78.0,-242.0,-41.0,-97.0,197.0,469.0,1
69.0,-243.0,-43.0,-96.0,243.0,466.0,1
61.0,-245.0,-43.0,-94.0,279.0,463.0,1
52.0,-243.0,-43.0,-86.0,314.0,464.0,1
46.0,-241.0,-39.0,-72.0,342.0,470.0,1
31.0,-234.0,-34.0,-26.0,364.0,476.0,1
26.0,-230.0,-31.0,30.0,382.0,482.0,1
26.0,-220.0,-41.0,75.0,405.0,481.0,1
19.0,-216.0,-53.0,99.0,439.0,467.0,1
16.0,-209.0,-53.0,69.0,475.0,446.0,1
14.0,-201.0,-43.0,36.0,515.0,430.0,1
4.0,-196.0,-45.0,29.0,552.0,414.0,1
0.0,-196.0,-39.0,32.0,575.0,407.0,1
-3.0,-193.0,-42.0,32.0,589.0,395.0,1
-4.0,-194.0,-40.0,31.0,600.0,387.0,1
-7.0,-194.0,-38.0,38.0,606.0,377.0,1
-12.0,-193.0,-33.0,43.0,612.0,363.0,1
-14.0,-197.0,-36.0,41.0,617.0,346.0,1
-19.0,-199.0,-37.0,37.0,622.0,329.0,1
-27.0,-198.0,-28.0,32.0,622.0,312.0,1
-30.0,-201.0,-27.0,33.0,619.0,295.0,1
-39.0,-203.0,-29.0,38.0,612.0,274.0,1
-38.0,-206.0,-28.0,42.0,602.0,255.0,1
-37.0,-211.0,-28.0,39.0,594.0,233.0,1
-37.0,-211.0,-27.0,30.0,587.0,205.0,1
-38.0,-214.0,-24.0,21.0,579.0,174.0,1
-36.0,-213.0,-28.0,7.0,572.0,143.0,1
-39.0,-216.0,-23.0,-8.0,562.0,115.0,1
-47.0,-221.0,-23.0,-15.0,546.0,83.0,1
-43.0,-224.0,-23.0,-16.0,521.0,56.0,1
-39.0,-228.0,-18.0,-12.0,494.0,22.0,1
-39.0,-230.0,-11.0,1.0,466.0,-19.0,1
-43.0,-230.0,-11.0,22.0,432.0,-54.0,1
-43.0,-229.0,-7.0,48.0,406.0,-86.0,1
-44.0,-231.0,-2.0,79.0,383.0,-119.0,1
-44.0,-230.0,-1.0,115.0,365.0,-146.0,1
-44.0,-227.0,-8.0,149.0,348.0,-170.0,1
-44.0,-228.0,-9.0,179.0,337.0,-190.0,1
-43.0,-226.0,-6.0,209.0,332.0,-209.0,1
-44.0,-222.0,-3.0,237.0,330.0,-220.0,1
-40.0,-225.0,2.0,258.0,332.0,-230.0,1
-39.0,-221.0,2.0,273.0,335.0,-235.0,1
-37.0,-216.0,0.0,287.0,342.0,-241.0,1
-36.0,-218.0,5.0,286.0,351.0,-239.0,1
-29.0,-218.0,7.0,280.0,359.0,-234.0,1
-28.0,-217.0,5.0,269.0,367.0,-222.0,1
-19.0,-222.0,7.0,254.0,374.0,-214.0,1
-19.0,-222.0,8.0,243.0,390.0,-199.0,1
-13.0,-226.0,8.0,242.0,407.0,-191.0,1
-5.0,-232.0,6.0,227.0,418.0,-186.0,1
4.0,-244.0,10.0,214.0,436.0,-190.0,1
12.0,-247.0,14.0,207.0,455.0,-195.0,1
17.0,-261.0,13.0,202.0,482.0,-211.0,1
19.0,-266.0,12.0,204.0,497.0,-223.0,1
19.0,-274.0,8.0,207.0,498.0,-245.0,1
16.0,-277.0,8.0,211.0,486.0,-261.0,1
7.0,-284.0,-7.0,204.0,450.0,-281.0,1
-8.0,-287.0,-21.0,190.0,389.0,-290.0,1
-9.0,-290.0,-30.0,157.0,330.0,-300.0,1
-16.0,-292.0,-26.0,108.0,295.0,-301.0,1
-27.0,-296.0,-17.0,53.0,285.0,-297.0,1
-41.0,-299.0,-2.0,-5.0,291.0,-275.0,1
-47.0,-305.0,8.0,-55.0,301.0,-257.0,1
-61.0,-310.0,22.0,-76.0,310.0,-229.0,1
-69.0,-313.0,40.0,-71.0,324.0,-197.0,1
-76.0,-318.0,52.0,-38.0,336.0,-154.0,1
-85.0,-317.0,59.0,17.0,347.0,-111.0,1
-91.0,-320.0,59.0,92.0,355.0,-63.0,1
-101.0,-319.0,49.0,182.0,354.0,-20.0,1
-99.0,-320.0,30.0,266.0,343.0,30.0,1
-89.0,-321.0,15.0,326.0,322.0,76.0,1
-80.0,-315.0,-4.0,354.0,301.0,126.0,1
-71.0,-320.0,-27.0,325.0,274.0,181.0,1
-64.0,-324.0,-52.0,246.0,241.0,234.0,1
-53.0,-333.0,-62.0,131.0,205.0,287.0,1
-35.0,-356.0,-76.0,-4.0,168.0,345.0,1
-26.0,-375.0,-76.0,-138.0,133.0,396.0,1
-26.0,-390.0,-70.0,-246.0,89.0,445.0,1
-35.0,-403.0,-63.0,-326.0,28.0,491.0,1
-52.0,-409.0,-61.0,-374.0,-56.0,541.0,1
-71.0,-406.0,-67.0,-397.0,-156.0,588.0,1
-87.0,-386.0,-73.0,-394.0,-262.0,628.0,1
-85.0,-359.0,-82.0,-365.0,-364.0,650.0,1
-83.0,-332.0,-97.0,-309.0,-396.0,649.0,1
-61.0,-310.0,-99.0,-259.0,-381.0,631.0,1
-42.0,-297.0,-104.0,-203.0,-322.0,603.0,1
-24.0,-278.0,-106.0,-133.0,-234.0,565.0,1
-3.0,-259.0,-100.0,-48.0,-142.0,530.0,1
17.0,-241.0,-97.0,42.0,-62.0,494.0,1
39.0,-219.0,-92.0,133.0,-3.0,461.0,1
64.0,-200.0,-86.0,210.0,32.0,429.0,1
87.0,-193.0,-76.0,266.0,49.0,399.0,1
109.0,-182.0,-75.0,315.0,56.0,354.0,1
118.0,-177.0,-76.0,357.0,64.0,309.0,1
122.0,-178.0,-77.0,375.0,70.0,259.0,1
127.0,-180.0,-74.0,355.0,62.0,212.0,1
131.0,-199.0,-68.0,289.0,35.0,169.0,1
131.0,-219.0,-62.0,189.0,-14.0,106.0,1
119.0,-235.0,-56.0,51.0,-66.0,29.0,1
98.0,-250.0,-49.0,-89.0,-107.0,-53.0,1
82.0,-260.0,-42.0,-200.0,-143.0,-128.0,1
63.0,-268.0,-37.0,-264.0,-183.0,-197.0,1
42.0,-279.0,-33.0,-292.0,-239.0,-267.0,1
27.0,-290.0,-38.0,-281.0,-287.0,-320.0,1
10.0,-295.0,-35.0,-244.0,-332.0,-365.0,1
-5.0,-296.0,-41.0,-189.0,-367.0,-400.0,1
-21.0,-295.0,-47.0,-122.0,-396.0,-422.0,1
-30.0,-293.0,-54.0,-51.0,-421.0,-438.0,1
-40.0,-287.0,-52.0,4.0,-447.0,-446.0,1
-49.0,-282.0,-60.0,42.0,-475.0,-458.0,1
-56.0,-270.0,-61.0,60.0,-506.0,-464.0,1
-54.0,-260.0,-62.0,59.0,-536.0,-472.0,1
-52.0,-254.0,-57.0,56.0,-571.0,-474.0,1
-50.0,-244.0,-52.0,55.0,-602.0,-478.0,1
-45.0,-239.0,-50.0,54.0,-638.0,-478.0,1
-35.0,-233.0,-50.0,53.0,-665.0,-471.0,1
-28.0,-231.0,-47.0,68.0,-685.0,-447.0,1
-16.0,-227.0,-48.0,97.0,-704.0,-421.0,1
-9.0,-221.0,-42.0,129.0,-719.0,-384.0,1
-3.0,-219.0,-34.0,162.0,-736.0,-347.0,1
6.0,-211.0,-34.0,194.0,-759.0,-306.0,1
15.0,-202.0,-32.0,222.0,-783.0,-272.0,1
24.0,-196.0,-31.0,254.0,-817.0,-242.0,1
30.0,-192.0,-28.0,290.0,-843.0,-232.0,1
36.0,-186.0,-31.0,313.0,-865.0,-222.0,1
41.0,-178.0,-36.0,322.0,-883.0,-217.0,1
41.0,-176.0,-34.0,306.0,-900.0,-213.0,1
42.0,-175.0,-34.0,271.0,-915.0,-217.0,1
45.0,-174.0,-37.0,226.0,-926.0,-215.0,1
48.0,-178.0,-32.0,170.0,-934.0,-217.0,1
48.0,-179.0,-33.0,116.0,-933.0,-215.0,1
52.0,-181.0,-27.0,70.0,-928.0,-216.0,1
53.0,-187.0,-28.0,25.0,-915.0,-213.0,1
54.0,-194.0,-27.0,-32.0,-904.0,-214.0,1
54.0,-197.0,-30.0,-79.0,-890.0,-209.0,1
57.0,-202.0,-28.0,-120.0,-871.0,-207.0,1
53.0,-206.0,-21.0,-154.0,-848.0,-196.0,1
53.0,-210.0,-20.0,-178.0,-825.0,-189.0,1
51.0,-216.0,-15.0,-188.0,-801.0,-172.0,1
50.0,-216.0,-15.0,-184.0,-775.0,-160.0,1
46.0,-214.0,-17.0,-175.0,-746.0,-145.0,1
44.0,-215.0,-11.0,-169.0,-721.0,-130.0,1
40.0,-216.0,-11.0,-161.0,-692.0,-102.0,1
38.0,-215.0,-10.0,-149.0,-670.0,-81.0,1
34.0,-226.0,-8.0,-140.0,-653.0,-52.0,1
36.0,-221.0,-5.0,-134.0,-638.0,-28.0,1
37.0,-222.0,-3.0,-127.0,-624.0,4.0,1
37.0,-224.0,3.0,-134.0,-613.0,30.0,1
38.0,-230.0,1.0,-149.0,-604.0,57.0,1
36.0,-230.0,-1.0,-160.0,-597.0,79.0,1
38.0,-236.0,3.0,-170.0,-594.0,103.0,1
37.0,-235.0,5.0,-172.0,-595.0,120.0,1
36.0,-236.0,7.0,-168.0,-598.0,137.0,1
33.0,-242.0,7.0,-161.0,-601.0,144.0,1
28.0,-238.0,8.0,-151.0,-607.0,151.0,1
28.0,-240.0,8.0,-143.0,-618.0,155.0,1
27.0,-243.0,9.0,-135.0,-632.0,161.0,1
24.0,-240.0,12.0,-121.0,-647.0,158.0,1
17.0,-238.0,9.0,-105.0,-660.0,160.0,1
13.0,-239.0,6.0,-98.0,-677.0,160.0,1
3.0,-236.0,6.0,-104.0,-695.0,163.0,1
1.0,-237.0,6.0,-123.0,-714.0,167.0,1
1.0,-240.0,4.0,-151.0,-738.0,176.0,1
0.0,-246.0,5.0,-168.0,-757.0,187.0,1
-6.0,-247.0,8.0,-175.0,-772.0,200.0,1
-3.0,-252.0,2.0,-177.0,-783.0,212.0,1
0.0,-256.0,-4.0,-176.0,-786.0,222.0,1
3.0,-260.0,-7.0,-175.0,-782.0,228.0,1
12.0,-267.0,-10.0,-173.0,-775.0,227.0,1
17.0,-273.0,-15.0,-175.0,-767.0,216.0,1
20.0,-277.0,-9.0,-181.0,-765.0,195.0,1
31.0,-282.0,-11.0,-193.0,-765.0,171.0,1
37.0,-285.0,-7.0,-203.0,-763.0,134.0,1
45.0,-290.0,-1.0,-207.0,-758.0,105.0,1
51.0,-294.0,8.0,-201.0,-752.0,79.0,1
59.0,-297.0,23.0,-182.0,-746.0,54.0,1
67.0,-301.0,40.0,-150.0,-741.0,27.0,1
72.0,-300.0,49.0,-110.0,-739.0,6.0,1
76.0,-298.0,67.0,-60.0,-744.0,-14.0,1
79.0,-299.0,77.0,-3.0,-755.0,-30.0,1
80.0,-299.0,84.0,47.0,-769.0,-47.0,1
77.0,-299.0,82.0,101.0,-785.0,-59.0,1
72.0,-302.0,74.0,148.0,-804.0,-80.0,1
57.0,-304.0,54.0,190.0,-814.0,-98.0,1
42.0,-306.0,34.0,209.0,-827.0,-119.0,1
23.0,-311.0,5.0,202.0,-844.0,-141.0,1
19.0,-319.0,-31.0,172.0,-859.0,-166.0,1
23.0,-323.0,-67.0,115.0,-852.0,-195.0,1
28.0,-333.0,-99.0,36.0,-815.0,-239.0,1
42.0,-350.0,-113.0,-54.0,-752.0,-292.0,1
49.0,-362.0,-119.0,-142.0,-671.0,-364.0,1
53.0,-372.0,-112.0,-205.0,-593.0,-437.0,1
59.0,-371.0,-95.0,-244.0,-515.0,-520.0,1
78.0,-366.0,-82.0,-255.0,-460.0,-567.0,1
94.0,-355.0,-77.0,-247.0,-409.0,-603.0,1
99.0,-345.0,-78.0,-238.0,-370.0,-625.0,1
91.0,-332.0,-80.0,-231.0,-349.0,-644.0,1
79.0,-322.0,-88.0,-215.0,-354.0,-646.0,1
55.0,-306.0,-92.0,-188.0,-388.0,-636.0,1
43.0,-296.0,-89.0,-158.0,-451.0,-605.0,1
16.0,-284.0,-86.0,-126.0,-549.0,-569.0,1
-12.0,-277.0,-76.0,-89.0,-663.0,-524.0,1
-41.0,-264.0,-78.0,-51.0,-780.0,-476.0,1
-75.0,-252.0,-82.0,-9.0,-849.0,-431.0,1
-99.0,-238.0,-94.0,26.0,-901.0,-388.0,1
-124.0,-227.0,-101.0,71.0,-937.0,-337.0,1
-137.0,-223.0,-106.0,125.0,-960.0,-283.0,1
-146.0,-222.0,-109.0,177.0,-970.0,-218.0,1
-138.0,-227.0,-114.0,220.0,-950.0,-149.0,1
-123.0,-236.0,-120.0,246.0,-909.0,-82.0,1
-113.0,-244.0,-119.0,243.0,-862.0,-24.0,1
-105.0,-246.0,-114.0,217.0,-824.0,31.0,1
-97.0,-248.0,-100.0,167.0,-799.0,81.0,1
-79.0,-253.0,-86.0,86.0,-791.0,122.0,1
-65.0,-254.0,-80.0,16.0,-783.0,158.0,1
-44.0,-255.0,-65.0,-48.0,-772.0,199.0,1
-21.0,-258.0,-59.0,-97.0,-752.0,235.0,1
-9.0,-258.0,-56.0,-125.0,-720.0,274.0,1
7.0,-256.0,-49.0,-141.0,-683.0,305.0,1
26.0,-259.0,-45.0,-144.0,-645.0,342.0,1
41.0,-256.0,-39.0,-137.0,-611.0,370.0,1
55.0,-251.0,-38.0,-120.0,-574.0,396.0,1
68.0,-252.0,-34.0,-100.0,-520.0,417.0,1
71.0,-251.0,-29.0,-82.0,-480.0,433.0,1
81.0,-246.0,-35.0,-71.0,-441.0,439.0,1
80.0,-242.0,-32.0,-67.0,-399.0,446.0,1
83.0,-242.0,-30.0,-58.0,-350.0,445.0,1
78.0,-238.0,-27.0,-41.0,-294.0,446.0,1
64.0,-235.0,-26.0,-9.0,-247.0,434.0,1
58.0,-235.0,-26.0,37.0,-204.0,422.0,1
43.0,-240.0,-36.0,62.0,-162.0,408.0,1
34.0,-243.0,-39.0,58.0,-128.0,387.0,1
28.0,-236.0,-34.0,47.0,-90.0,357.0,1
20.0,-237.0,-31.0,61.0,-55.0,335.0,1
11.0,-231.0,-32.0,90.0,-16.0,312.0,1
1.0,-227.0,-40.0,121.0,25.0,294.0,1
-1.0,-221.0,-32.0,138.0,67.0,278.0,1
-6.0,-211.0,-33.0,152.0,105.0,273.0,1
-11.0,-205.0,-33.0,168.0,138.0,268.0,1
-15.0,-198.0,-33.0,184.0,163.0,264.0,1
-19.0,-191.0,-29.0,193.0,184.0,259.0,1
-23.0,-185.0,-25.0,192.0,198.0,257.0,1
-25.0,-178.0,-26.0,180.0,210.0,254.0,1
-27.0,-175.0,-23.0,161.0,220.0,251.0,1
-29.0,-172.0,-23.0,137.0,231.0,241.0,1
-31.0,-171.0,-21.0,119.0,241.0,229.0,1
-34.0,-174.0,-21.0,101.0,249.0,214.0,1
-32.0,-172.0,-28.0,71.0,254.0,199.0,1
-30.0,-180.0,-23.0,31.0,259.0,177.0,1
-38.0,-179.0,-20.0,1.0,261.0,154.0,1
-33.0,-190.0,-25.0,-9.0,265.0,134.0,1
-32.0,-198.0,-23.0,-35.0,263.0,95.0,1
-32.0,-207.0,-17.0,-60.0,262.0,61.0,1
-31.0,-211.0,-16.0,-67.0,259.0,33.0,1
-31.0,-220.0,-14.0,-61.0,256.0,7.0,1
-28.0,-225.0,-12.0,-54.0,253.0,-20.0,1
-26.0,-228.0,-9.0,-35.0,251.0,-44.0,1
-23.0,-230.0,-8.0,-16.0,249.0,-66.0,1
-28.0,-234.0,-2.0,1.0,254.0,-83.0,1
-29.0,-234.0,-4.0,11.0,263.0,-100.0,1
-33.0,-231.0,1.0,25.0,271.0,-114.0,1
-37.0,-230.0,8.0,46.0,276.0,-128.0,1
-39.0,-231.0,8.0,74.0,277.0,-138.0,1
-41.0,-234.0,8.0,100.0,277.0,-148.0,1
-38.0,-233.0,8.0,123.0,279.0,-154.0,1
-39.0,-228.0,10.0,146.0,283.0,-164.0,1
-35.0,-231.0,13.0,182.0,292.0,-167.0,1
-33.0,-227.0,13.0,223.0,305.0,-170.0,1
-35.0,-225.0,15.0,262.0,320.0,-170.0,1
-36.0,-225.0,15.0,298.0,334.0,-172.0,1
-30.0,-222.0,16.0,329.0,347.0,-174.0,1
-27.0,-223.0,13.0,354.0,362.0,-179.0,1
-19.0,-222.0,11.0,363.0,383.0,-183.0,1
-9.0,-225.0,9.0,366.0,406.0,-191.0,1
-11.0,-231.0,10.0,356.0,441.0,-195.0,1
-8.0,-233.0,4.0,336.0,467.0,-210.0,1
-3.0,-240.0,3.0,308.0,488.0,-223.0,1
4.0,-248.0,0.0,272.0,515.0,-243.0,1
12.0,-257.0,4.0,233.0,539.0,-263.0,1
16.0,-260.0,6.0,196.0,562.0,-288.0,1
14.0,-266.0,9.0,160.0,579.0,-309.0,1
15.0,-273.0,10.0,129.0,583.0,-336.0,1
15.0,-281.0,12.0,100.0,572.0,-350.0,1
13.0,-283.0,10.0,73.0,551.0,-362.0,1
7.0,-290.0,8.0,50.0,526.0,-360.0,1
3.0,-298.0,6.0,26.0,505.0,-353.0,1
-8.0,-300.0,1.0,5.0,491.0,-336.0,1
-16.0,-302.0,10.0,-15.0,485.0,-319.0,1
-24.0,-311.0,17.0,-33.0,491.0,-293.0,1
-35.0,-309.0,28.0,-41.0,501.0,-267.0,1
-52.0,-315.0,35.0,-33.0,513.0,-231.0,1
-71.0,-323.0,37.0,-8.0,515.0,-182.0,1
-83.0,-326.0,15.0,36.0,493.0,-123.0,1
-84.0,-336.0,-12.0,66.0,466.0,-54.0,1
-84.0,-348.0,-36.0,75.0,444.0,35.0,1
-89.0,-369.0,-56.0,53.0,425.0,139.0,1
-99.0,-390.0,-72.0,-3.0,395.0,264.0,1
-93.0,-417.0,-80.0,-80.0,341.0,405.0,1
-74.0,-452.0,-79.0,-161.0,275.0,561.0,1
-47.0,-482.0,-60.0,-219.0,223.0,708.0,1
-50.0,-498.0,-44.0,-242.0,178.0,836.0,1
-72.0,-488.0,-32.0,-232.0,104.0,938.0,1
-107.0,-453.0,-44.0,-181.0,-48.0,982.0,1
-121.0,-408.0,-63.0,-118.0,-201.0,970.0,1
-120.0,-373.0,-74.0,-61.0,-315.0,920.0,1
-98.0,-325.0,-79.0,-16.0,-336.0,850.0,1
-65.0,-291.0,-72.0,21.0,-271.0,775.0,1
-42.0,-280.0,-63.0,77.0,-156.0,687.0,1
-30.0,-261.0,-65.0,188.0,-43.0,594.0,1
-12.0,-237.0,-71.0,335.0,36.0,501.0,1
7.0,-209.0,-85.0,487.0,79.0,417.0,1
34.0,-185.0,-96.0,609.0,102.0,325.0,1
56.0,-162.0,-99.0,674.0,121.0,259.0,1
79.0,-144.0,-95.0,667.0,141.0,194.0,1
98.0,-134.0,-86.0,616.0,155.0,141.0,1
107.0,-135.0,-81.0,530.0,156.0,88.0,1
114.0,-145.0,-88.0,402.0,139.0,46.0,1
114.0,-161.0,-82.0,239.0,97.0,-8.0,1
112.0,-185.0,-77.0,61.0,36.0,-79.0,1
98.0,-203.0,-69.0,-137.0,-32.0,-167.0,1
85.0,-218.0,-57.0,-325.0,-100.0,-249.0,1
55.0,-233.0,-43.0,-471.0,-172.0,-329.0,1
26.0,-251.0,-43.0,-560.0,-266.0,-369.0,1
3.0,-281.0,-33.0,-611.0,-341.0,-391.0,1
-12.0,-289.0,-41.0,-638.0,-407.0,-398.0,1
-29.0,-310.0,-41.0,-631.0,-461.0,-395.0,1
-42.0,-321.0,-42.0,-588.0,-510.0,-387.0,1
-51.0,-325.0,-43.0,-510.0,-557.0,-376.0,1
-58.0,-326.0,-46.0,-414.0,-597.0,-366.0,1
-62.0,-324.0,-48.0,-302.0,-628.0,-363.0,1
-65.0,-317.0,-56.0,-190.0,-656.0,-370.0,1
-65.0,-305.0,-61.0,-90.0,-691.0,-385.0,1
-62.0,-294.0,-67.0,-5.0,-729.0,-405.0,1
-52.0,-284.0,-67.0,37.0,-765.0,-426.0,1
-47.0,-272.0,-69.0,66.0,-781.0,-444.0,1
-39.0,-262.0,-66.0,91.0,-800.0,-460.0,1
-30.0,-253.0,-63.0,115.0,-813.0,-472.0,1
-17.0,-239.0,-61.0,137.0,-827.0,-471.0,1
-9.0,-231.0,-56.0,153.0,-839.0,-464.0,1
1.0,-228.0,-49.0,172.0,-850.0,-446.0,1
7.0,-220.0,-41.0,191.0,-860.0,-425.0,1
18.0,-211.0,-32.0,213.0,-877.0,-387.0,1
21.0,-201.0,-37.0,262.0,-900.0,-357.0,1
30.0,-196.0,-32.0,291.0,-931.0,-331.0,1
40.0,-188.0,-35.0,311.0,-966.0,-315.0,1
42.0,-183.0,-34.0,308.0,-994.0,-304.0,1
43.0,-175.0,-36.0,293.0,-1014.0,-297.0,1
44.0,-170.0,-38.0,270.0,-1027.0,-290.0,1
43.0,-171.0,-38.0,234.0,-1037.0,-286.0,1
42.0,-170.0,-38.0,188.0,-1045.0,-278.0,1
46.0,-172.0,-40.0,136.0,-1050.0,-272.0,1
44.0,-175.0,-45.0,78.0,-1054.0,-255.0,1
44.0,-181.0,-43.0,-3.0,-1047.0,-246.0,1
42.0,-186.0,-39.0,-58.0,-1036.0,-232.0,1
42.0,-186.0,-34.0,-96.0,-1021.0,-222.0,1
47.0,-197.0,-30.0,-124.0,-1004.0,-202.0,1
48.0,-197.0,-29.0,-145.0,-985.0,-192.0,1
46.0,-207.0,-27.0,-153.0,-959.0,-181.0,1
43.0,-206.0,-27.0,-149.0,-929.0,-173.0,1
42.0,-210.0,-24.0,-143.0,-894.0,-154.0,1
42.0,-212.0,-20.0,-137.0,-864.0,-140.0,1
40.0,-215.0,-21.0,-130.0,-832.0,-115.0,1
41.0,-213.0,-16.0,-127.0,-805.0,-93.0,1
39.0,-212.0,-19.0,-126.0,-777.0,-66.0,1
40.0,-214.0,-11.0,-126.0,-748.0,-42.0,1
43.0,-214.0,-9.0,-130.0,-721.0,-13.0,1
48.0,-211.0,-13.0,-131.0,-697.0,11.0,1
45.0,-219.0,8.0,-134.0,-673.0,38.0,1
48.0,-215.0,1.0,-137.0,-653.0,60.0,1
29.0,-219.0,3.0,-143.0,-632.0,82.0,1
52.0,-218.0,6.0,-152.0,-614.0,101.0,1
50.0,-222.0,15.0,-156.0,-598.0,125.0,1
43.0,-232.0,35.0,-149.0,-588.0,139.0,1
41.0,-237.0,36.0,-132.0,-579.0,158.0,1
45.0,-239.0,21.0,-113.0,-574.0,170.0,1
42.0,-238.0,22.0,-92.0,-572.0,184.0,1
38.0,-239.0,20.0,-67.0,-572.0,191.0,1
19.0,-250.0,14.0,-43.0,-572.0,201.0,1
25.0,-240.0,17.0,-22.0,-579.0,208.0,1
23.0,-238.0,17.0,-13.0,-585.0,219.0,1
24.0,-239.0,19.0,-10.0,-586.0,225.0,1
23.0,-239.0,13.0,-9.0,-588.0,234.0,1
18.0,-236.0,15.0,-14.0,-588.0,238.0,1
16.0,-237.0,19.0,-22.0,-589.0,251.0,1
15.0,-241.0,17.0,-28.0,-593.0,261.0,1
10.0,-239.0,17.0,-32.0,-598.0,278.0,1
15.0,-242.0,11.0,-34.0,-602.0,291.0,1
17.0,-245.0,-1.0,-30.0,-597.0,305.0,1
23.0,-247.0,-15.0,-29.0,-584.0,309.0,1
32.0,-253.0,-25.0,-43.0,-556.0,301.0,1
33.0,-258.0,-29.0,-72.0,-526.0,269.0,1
37.0,-262.0,-30.0,-117.0,-511.0,235.0,1
39.0,-264.0,-20.0,-153.0,-509.0,191.0,1
51.0,-268.0,-9.0,-190.0,-506.0,150.0,1
54.0,-269.0,6.0,-219.0,-493.0,107.0,1
61.0,-273.0,15.0,-232.0,-468.0,72.0,1
71.0,-277.0,25.0,-228.0,-441.0,38.0,1
79.0,-284.0,42.0,-209.0,-417.0,4.0,1
85.0,-286.0,60.0,-176.0,-399.0,-26.0,1
87.0,-286.0,69.0,-128.0,-391.0,-55.0,1
87.0,-289.0,75.0,-69.0,-393.0,-85.0,1
87.0,-291.0,81.0,-2.0,-401.0,-105.0,1
81.0,-288.0,73.0,54.0,-413.0,-120.0,1
84.0,-291.0,67.0,98.0,-429.0,-124.0,1
55.0,-286.0,45.0,128.0,-441.0,-142.0,1
28.0,-292.0,11.0,127.0,-451.0,-158.0,1
7.0,-299.0,-24.0,88.0,-470.0,-174.0,1
-6.0,-309.0,-60.0,21.0,-484.0,-195.0,1
-7.0,-324.0,-90.0,-70.0,-483.0,-225.0,1
10.0,-349.0,-110.0,-179.0,-459.0,-269.0,1
20.0,-368.0,-119.0,-277.0,-387.0,-342.0,1
29.0,-390.0,-114.0,-354.0,-291.0,-410.0,1
37.0,-401.0,-101.0,-371.0,-195.0,-481.0,1
48.0,-399.0,-86.0,-357.0,-118.0,-546.0,1
74.0,-399.0,-86.0,-322.0,-57.0,-607.0,1
95.0,-387.0,-83.0,-281.0,-2.0,-674.0,1
92.0,-369.0,-83.0,-235.0,45.0,-735.0,1
78.0,-343.0,-83.0,-190.0,73.0,-778.0,1
66.0,-326.0,-75.0,-139.0,66.0,-791.0,1
47.0,-308.0,-74.0,-90.0,23.0,-782.0,1
32.0,-293.0,-70.0,-44.0,-75.0,-745.0,1
10.0,-281.0,-80.0,5.0,-185.0,-710.0,1
-20.0,-271.0,-80.0,31.0,-293.0,-671.0,1
-55.0,-262.0,-81.0,60.0,-378.0,-628.0,1
-89.0,-249.0,-86.0,89.0,-444.0,-574.0,1
-114.0,-239.0,-91.0,120.0,-500.0,-514.0,1
-136.0,-228.0,-92.0,155.0,-542.0,-441.0,1
-144.0,-222.0,-108.0,188.0,-570.0,-368.0,1
-144.0,-229.0,-106.0,217.0,-573.0,-283.0,1
-145.0,-241.0,-103.0,240.0,-553.0,-180.0,1
-132.0,-253.0,-103.0,256.0,-526.0,-95.0,1
-116.0,-259.0,-98.0,255.0,-503.0,-23.0,1
-101.0,-265.0,-92.0,234.0,-488.0,41.0,1
-102.0,-263.0,-86.0,191.0,-490.0,89.0,1
-85.0,-266.0,-71.0,131.0,-503.0,132.0,1
-73.0,-267.0,-65.0,69.0,-517.0,172.0,1
-58.0,-268.0,-53.0,15.0,-521.0,211.0,1
-44.0,-265.0,-52.0,-27.0,-520.0,243.0,1
-29.0,-265.0,-52.0,-56.0,-515.0,278.0,1
-17.0,-261.0,-52.0,-73.0,-509.0,311.0,1
-5.0,-260.0,-55.0,-89.0,-505.0,338.0,1
-1.0,-254.0,-48.0,-92.0,-493.0,358.0,1
6.0,-251.0,-48.0,-90.0,-480.0,383.0,1
14.0,-249.0,-53.0,-90.0,-464.0,402.0,1
23.0,-247.0,-52.0,-95.0,-440.0,425.0,1
34.0,-241.0,-46.0,-115.0,-412.0,440.0,1
32.0,-236.0,-53.0,-112.0,-385.0,459.0,1
31.0,-231.0,-55.0,-115.0,-358.0,473.0,1
37.0,-232.0,-54.0,-109.0,-331.0,486.0,1
33.0,-232.0,-46.0,-92.0,-304.0,487.0,1
27.0,-223.0,-42.0,-55.0,-261.0,485.0,1
24.0,-227.0,-39.0,3.0,-226.0,463.0,1
22.0,-230.0,-47.0,38.0,-197.0,435.0,1
16.0,-233.0,-41.0,37.0,-172.0,405.0,1
6.0,-232.0,-39.0,32.0,-158.0,378.0,1
0.0,-230.0,-40.0,43.0,-148.0,351.0,1
-5.0,-226.0,-33.0,64.0,-139.0,331.0,1
-11.0,-218.0,-34.0,95.0,-129.0,313.0,1
-20.0,-211.0,-33.0,126.0,-118.0,302.0,1
-21.0,-203.0,-27.0,146.0,-104.0,290.0,1
-21.0,-200.0,-29.0,158.0,-89.0,286.0,1
-26.0,-192.0,-32.0,155.0,-77.0,274.0,1
-27.0,-187.0,-35.0,138.0,-66.0,267.0,1
-30.0,-182.0,-35.0,120.0,-58.0,256.0,1
-30.0,-178.0,-36.0,102.0,-54.0,250.0,1
-33.0,-176.0,-35.0,79.0,-52.0,235.0,1
-33.0,-172.0,-32.0,48.0,-51.0,220.0,1
-30.0,-176.0,-35.0,14.0,-50.0,198.0,1
-30.0,-181.0,-32.0,-25.0,-52.0,177.0,1
-31.0,-181.0,-32.0,-56.0,-55.0,149.0,1
-32.0,-190.0,-31.0,-91.0,-62.0,125.0,1
-29.0,-195.0,-27.0,-125.0,-71.0,96.0,1
-29.0,-201.0,-28.0,-155.0,-82.0,72.0,1
-32.0,-210.0,-23.0,-179.0,-92.0,48.0,1
-33.0,-213.0,-25.0,-189.0,-101.0,24.0,1
-32.0,-221.0,-15.0,-189.0,-108.0,-4.0,1
-34.0,-225.0,-14.0,-178.0,-116.0,-29.0,1
-34.0,-229.0,-13.0,-164.0,-126.0,-52.0,1
-33.0,-233.0,-9.0,-149.0,-135.0,-72.0,1
-34.0,-238.0,-10.0,-129.0,-143.0,-96.0,1
-35.0,-237.0,-6.0,-97.0,-149.0,-112.0,1
-31.0,-239.0,-3.0,-68.0,-155.0,-129.0,1
-34.0,-238.0,-2.0,-38.0,-158.0,-143.0,1
-39.0,-237.0,-4.0,-5.0,-159.0,-157.0,1
-36.0,-235.0,-2.0,29.0,-161.0,-168.0,1
-32.0,-237.0,3.0,65.0,-161.0,-178.0,1
-34.0,-230.0,3.0,102.0,-163.0,-185.0,1
-33.0,-232.0,1.0,137.0,-159.0,-191.0,1
-35.0,-230.0,5.0,168.0,-155.0,-195.0,1
-34.0,-231.0,9.0,198.0,-147.0,-196.0,1
-37.0,-230.0,5.0,225.0,-137.0,-197.0,1
-35.0,-232.0,9.0,245.0,-128.0,-197.0,1
-37.0,-234.0,15.0,261.0,-119.0,-194.0,1
-35.0,-231.0,18.0,275.0,-107.0,-191.0,1
-29.0,-232.0,15.0,290.0,-92.0,-192.0,1
-25.0,-234.0,23.0,307.0,-74.0,-193.0,1
-22.0,-235.0,25.0,323.0,-54.0,-197.0,1
-19.0,-239.0,18.0,340.0,-34.0,-198.0,1
-11.0,-243.0,13.0,351.0,-13.0,-206.0,1
-11.0,-245.0,7.0,346.0,10.0,-218.0,1
-9.0,-250.0,1.0,317.0,32.0,-231.0,1
-4.0,-254.0,-7.0,280.0,44.0,-243.0,1
4.0,-257.0,-6.0,235.0,55.0,-262.0,1
16.0,-261.0,-2.0,187.0,73.0,-277.0,1
9.0,-266.0,3.0,143.0,95.0,-292.0,1
11.0,-275.0,6.0,101.0,104.0,-306.0,1
10.0,-284.0,12.0,70.0,110.0,-320.0,1
6.0,-284.0,10.0,52.0,113.0,-323.0,1
6.0,-291.0,11.0,44.0,110.0,-326.0,1
1.0,-297.0,9.0,34.0,104.0,-319.0,1
-6.0,-299.0,6.0,26.0,100.0,-312.0,1
-13.0,-304.0,8.0,16.0,107.0,-296.0,1
-22.0,-307.0,16.0,12.0,118.0,-280.0,1
-32.0,-308.0,25.0,11.0,133.0,-252.0,1
-43.0,-308.0,35.0,19.0,146.0,-224.0,1
-52.0,-311.0,47.0,41.0,156.0,-185.0,1
-59.0,-312.0,49.0,81.0,159.0,-148.0,1
-72.0,-309.0,38.0,131.0,156.0,-101.0,1
-73.0,-308.0,19.0,178.0,145.0,-56.0,1
-73.0,-310.0,-2.0,207.0,134.0,6.0,1
-70.0,-319.0,-26.0,199.0,119.0,58.0,1
-73.0,-331.0,-55.0,149.0,104.0,112.0,1
-71.0,-348.0,-69.0,63.0,80.0,162.0,1
-70.0,-371.0,-81.0,-43.0,48.0,214.0,1
-69.0,-387.0,-88.0,-153.0,4.0,265.0,1
-63.0,-409.0,-84.0,-255.0,-43.0,319.0,1
-70.0,-427.0,-74.0,-339.0,-103.0,360.0,1
-83.0,-441.0,-78.0,-392.0,-174.0,405.0,1
-98.0,-431.0,-76.0,-403.0,-259.0,441.0,1
-101.0,-409.0,-78.0,-371.0,-346.0,474.0,1
-93.0,-375.0,-86.0,-286.0,-420.0,471.0,1
-83.0,-343.0,-94.0,-205.0,-436.0,455.0,1
-67.0,-306.0,-106.0,-124.0,-402.0,421.0,1
-41.0,-276.0,-106.0,-34.0,-335.0,390.0,1
-13.0,-245.0,-103.0,66.0,-260.0,354.0,1
7.0,-211.0,-109.0,165.0,-196.0,322.0,1
30.0,-182.0,-115.0,245.0,-151.0,285.0,1
56.0,-157.0,-124.0,291.0,-128.0,255.0,1
90.0,-138.0,-123.0,283.0,-122.0,219.0,1
110.0,-145.0,-118.0,268.0,-129.0,155.0,1
116.0,-162.0,-120.0,187.0,-128.0,57.0,1
122.0,-177.0,-113.0,41.0,-129.0,-57.0,1
131.0,-192.0,-98.0,-124.0,-138.0,-173.0,1
131.0,-214.0,-81.0,-270.0,-156.0,-274.0,1
120.0,-234.0,-66.0,-387.0,-181.0,-370.0,1
106.0,-255.0,-60.0,-483.0,-216.0,-447.0,1
90.0,-268.0,-54.0,-564.0,-255.0,-510.0,1
74.0,-293.0,-46.0,-614.0,-297.0,-549.0,1
48.0,-306.0,-47.0,-632.0,-347.0,-575.0,1
28.0,-322.0,-48.0,-622.0,-405.0,-589.0,1
13.0,-330.0,-60.0,-570.0,-451.0,-597.0,1
-6.0,-340.0,-73.0,-507.0,-488.0,-599.0,1
-17.0,-339.0,-76.0,-441.0,-516.0,-602.0,1
-25.0,-339.0,-78.0,-369.0,-538.0,-598.0,1
-24.0,-330.0,-81.0,-293.0,-552.0,-596.0,1
-24.0,-319.0,-78.0,-222.0,-563.0,-594.0,1
-16.0,-305.0,-80.0,-157.0,-570.0,-594.0,1
-12.0,-288.0,-79.0,-96.0,-570.0,-593.0,1
-7.0,-272.0,-77.0,-43.0,-571.0,-592.0,1
0.0,-255.0,-84.0,-3.0,-572.0,-582.0,1
12.0,-241.0,-74.0,32.0,-580.0,-577.0,1
18.0,-237.0,-72.0,61.0,-593.0,-576.0,1
21.0,-229.0,-65.0,83.0,-604.0,-577.0,1
27.0,-221.0,-66.0,104.0,-612.0,-568.0,1
35.0,-217.0,-64.0,123.0,-619.0,-558.0,1
40.0,-214.0,-57.0,142.0,-631.0,-545.0,1
45.0,-211.0,-55.0,159.0,-644.0,-533.0,1
51.0,-215.0,-54.0,183.0,-664.0,-518.0,1
48.0,-212.0,-50.0,183.0,-683.0,-509.0,1
53.0,-215.0,-51.0,168.0,-701.0,-509.0,1
51.0,-209.0,-49.0,160.0,-714.0,-514.0,1
54.0,-203.0,-50.0,150.0,-726.0,-519.0,1
51.0,-198.0,-49.0,134.0,-734.0,-527.0,1
50.0,-196.0,-47.0,117.0,-740.0,-537.0,1
46.0,-191.0,-43.0,88.0,-740.0,-543.0,1
40.0,-190.0,-44.0,50.0,-735.0,-553.0,1
40.0,-192.0,-48.0,8.0,-732.0,-559.0,1
38.0,-192.0,-44.0,-33.0,-731.0,-563.0,1
34.0,-193.0,-47.0,-69.0,-728.0,-563.0,1
35.0,-196.0,-44.0,-106.0,-730.0,-562.0,1
24.0,-198.0,-43.0,-131.0,-727.0,-557.0,1
23.0,-202.0,-36.0,-140.0,-724.0,-549.0,1
23.0,-209.0,-34.0,-143.0,-720.0,-536.0,1
20.0,-211.0,-33.0,-138.0,-718.0,-525.0,1
24.0,-219.0,-32.0,-130.0,-713.0,-506.0,1
24.0,-229.0,-25.0,-125.0,-712.0,-491.0,1
28.0,-232.0,-24.0,-117.0,-717.0,-467.0,1
28.0,-241.0,-19.0,-109.0,-711.0,-440.0,1
30.0,-250.0,-12.0,-87.0,-705.0,-407.0,1
30.0,-259.0,-1.0,-58.0,-699.0,-389.0,1
27.0,-259.0,-7.0,-15.0,-692.0,-368.0,1
35.0,-262.0,3.0,22.0,-681.0,-349.0,1
36.0,-259.0,7.0,77.0,-664.0,-325.0,1
45.0,-254.0,17.0,152.0,-645.0,-299.0,1
38.0,-257.0,1.0,230.0,-632.0,-264.0,1
40.0,-250.0,-1.0,255.0,-623.0,-235.0,1
47.0,-258.0,-9.0,273.0,-621.0,-205.0,1
45.0,-256.0,-9.0,277.0,-625.0,-187.0,1
48.0,-254.0,-13.0,271.0,-628.0,-162.0,1
49.0,-249.0,-17.0,265.0,-629.0,-147.0,1
51.0,-246.0,-12.0,275.0,-629.0,-126.0,1
49.0,-239.0,-12.0,306.0,-621.0,-104.0,1
49.0,-232.0,-14.0,339.0,-614.0,-75.0,1
47.0,-224.0,-15.0,346.0,-613.0,-50.0,1
51.0,-218.0,-19.0,334.0,-620.0,-27.0,1
52.0,-216.0,-22.0,322.0,-631.0,-12.0,1
51.0,-206.0,-20.0,305.0,-639.0,5.0,1
49.0,-212.0,-27.0,281.0,-644.0,15.0,1
48.0,-207.0,-21.0,250.0,-648.0,22.0,1
51.0,-211.0,-24.0,202.0,-661.0,25.0,1
42.0,-211.0,-18.0,165.0,-677.0,33.0,1
30.0,-207.0,-19.0,134.0,-691.0,37.0,1
25.0,-213.0,-14.0,104.0,-709.0,48.0,1
17.0,-215.0,-10.0,75.0,-720.0,53.0,1
12.0,-219.0,-11.0,28.0,-731.0,61.0,1
11.0,-223.0,-3.0,-10.0,-739.0,66.0,1
13.0,-231.0,-3.0,-23.0,-742.0,74.0,1
12.0,-230.0,0.0,-33.0,-748.0,77.0,1
16.0,-233.0,5.0,-41.0,-761.0,84.0,1
17.0,-238.0,9.0,-43.0,-776.0,86.0,1
23.0,-240.0,8.0,-42.0,-791.0,96.0,1
27.0,-248.0,5.0,-41.0,-806.0,100.0,1
32.0,-250.0,4.0,-39.0,-822.0,106.0,1
36.0,-256.0,8.0,-35.0,-836.0,107.0,1
42.0,-260.0,8.0,-28.0,-850.0,107.0,1
44.0,-264.0,12.0,-17.0,-863.0,101.0,1
49.0,-269.0,13.0,-5.0,-875.0,97.0,1
49.0,-275.0,14.0,10.0,-888.0,87.0,1
50.0,-278.0,20.0,26.0,-903.0,79.0,1
53.0,-278.0,17.0,40.0,-916.0,67.0,1
55.0,-282.0,15.0,47.0,-928.0,62.0,1
54.0,-283.0,17.0,59.0,-941.0,55.0,1
53.0,-286.0,16.0,69.0,-951.0,53.0,1
57.0,-287.0,16.0,79.0,-960.0,52.0,1
57.0,-288.0,14.0,88.0,-965.0,51.0,1
61.0,-287.0,16.0,97.0,-967.0,51.0,1
60.0,-287.0,17.0,102.0,-970.0,56.0,1
61.0,-288.0,18.0,107.0,-973.0,61.0,1
61.0,-284.0,13.0,110.0,-971.0,71.0,1
59.0,-279.0,6.0,112.0,-966.0,79.0,1
61.0,-283.0,0.0,105.0,-958.0,97.0,1
62.0,-277.0,-7.0,94.0,-949.0,112.0,1
64.0,-280.0,-13.0,73.0,-938.0,132.0,1
64.0,-281.0,-23.0,45.0,-921.0,149.0,1
68.0,-276.0,-21.0,10.0,-902.0,162.0,1
66.0,-277.0,-25.0,-30.0,-882.0,170.0,1
69.0,-275.0,-31.0,-78.0,-861.0,172.0,1
74.0,-278.0,-26.0,-128.0,-837.0,169.0,1
73.0,-275.0,-28.0,-190.0,-812.0,161.0,1
74.0,-279.0,-22.0,-242.0,-792.0,150.0,1
68.0,-275.0,-13.0,-294.0,-772.0,142.0,1
62.0,-271.0,-7.0,-335.0,-756.0,137.0,1
65.0,-271.0,1.0,-345.0,-739.0,142.0,1
61.0,-265.0,1.0,-323.0,-724.0,159.0,1
60.0,-265.0,-3.0,-302.0,-710.0,182.0,1
58.0,-265.0,-8.0,-276.0,-692.0,209.0,1
55.0,-264.0,-15.0,-261.0,-669.0,229.0,1
48.0,-262.0,-18.0,-256.0,-653.0,240.0,1
38.0,-263.0,-22.0,-267.0,-644.0,240.0,1
28.0,-265.0,-25.0,-279.0,-648.0,242.0,1
20.0,-262.0,-32.0,-286.0,-658.0,245.0,1
9.0,-258.0,-41.0,-286.0,-674.0,253.0,1
-8.0,-253.0,-54.0,-283.0,-686.0,267.0,1
-14.0,-252.0,-57.0,-281.0,-700.0,290.0,1
-17.0,-246.0,-66.0,-278.0,-715.0,311.0,1
-14.0,-243.0,-75.0,-264.0,-727.0,336.0,1
-19.0,-232.0,-91.0,-241.0,-734.0,350.0,1
-17.0,-227.0,-95.0,-212.0,-735.0,366.0,1
-25.0,-223.0,-106.0,-171.0,-728.0,370.0,1
-30.0,-213.0,-113.0,-132.0,-722.0,374.0,1
-30.0,-205.0,-119.0,-100.0,-710.0,374.0,1
-27.0,-204.0,-127.0,-68.0,-693.0,375.0,1
-24.0,-200.0,-136.0,-42.0,-670.0,369.0,1
-18.0,-198.0,-145.0,-27.0,-640.0,363.0,1
-11.0,-205.0,-148.0,-23.0,-607.0,349.0,1
-4.0,-208.0,-154.0,-30.0,-569.0,333.0,1
3.0,-212.0,-156.0,-40.0,-529.0,309.0,1
17.0,-222.0,-156.0,-43.0,-487.0,280.0,1
28.0,-233.0,-153.0,-47.0,-434.0,247.0,1
32.0,-245.0,-148.0,-57.0,-391.0,217.0,1
39.0,-256.0,-146.0,-67.0,-351.0,179.0,1
40.0,-263.0,-146.0,-71.0,-324.0,151.0,1
45.0,-270.0,-140.0,-87.0,-302.0,120.0,1
47.0,-278.0,-143.0,-104.0,-283.0,98.0,1
45.0,-281.0,-134.0,-110.0,-261.0,76.0,1
45.0,-289.0,-132.0,-105.0,-235.0,68.0,1
44.0,-297.0,-128.0,-104.0,-214.0,70.0,1
38.0,-297.0,-121.0,-107.0,-196.0,90.0,1
28.0,-301.0,-111.0,-106.0,-190.0,114.0,1
29.0,-295.0,-103.0,-101.0,-192.0,145.0,1
19.0,-287.0,-100.0,-72.0,-198.0,166.0,1
7.0,-282.0,-94.0,-41.0,-206.0,192.0,1
4.0,-284.0,-89.0,-10.0,-217.0,213.0,1
-6.0,-280.0,-82.0,9.0,-227.0,233.0,1
-10.0,-275.0,-79.0,34.0,-239.0,246.0,1
-9.0,-276.0,-77.0,61.0,-248.0,260.0,1
-12.0,-278.0,-76.0,79.0,-260.0,267.0,1
-12.0,-276.0,-77.0,92.0,-269.0,277.0,1
-13.0,-278.0,-80.0,108.0,-278.0,278.0,1
-15.0,-279.0,-77.0,119.0,-291.0,286.0,1
-17.0,-278.0,-77.0,122.0,-305.0,290.0,1
-19.0,-276.0,-80.0,129.0,-316.0,295.0,1
-20.0,-275.0,-86.0,142.0,-329.0,294.0,1
-25.0,-270.0,-84.0,142.0,-339.0,290.0,1
-27.0,-270.0,-87.0,135.0,-346.0,280.0,1
-31.0,-263.0,-93.0,118.0,-354.0,271.0,1
-30.0,-261.0,-93.0,99.0,-363.0,260.0,1
-32.0,-257.0,-89.0,80.0,-376.0,245.0,1
-35.0,-251.0,-86.0,64.0,-384.0,230.0,1
-39.0,-246.0,-86.0,44.0,-389.0,222.0,1
-39.0,-243.0,-87.0,24.0,-393.0,211.0,1
-35.0,-240.0,-87.0,6.0,-393.0,207.0,1
-35.0,-237.0,-85.0,-18.0,-392.0,202.0,1
-42.0,-232.0,-81.0,-42.0,-388.0,198.0,1
-44.0,-230.0,-80.0,-62.0,-383.0,195.0,1
-46.0,-227.0,-70.0,-72.0,-376.0,197.0,1
-43.0,-224.0,-65.0,-87.0,-368.0,201.0,1
-36.0,-226.0,-63.0,-90.0,-361.0,213.0,1
-34.0,-223.0,-63.0,-88.0,-350.0,223.0,1
-31.0,-220.0,-57.0,-86.0,-344.0,239.0,1
-29.0,-219.0,-54.0,-82.0,-342.0,254.0,1
-18.0,-220.0,-57.0,-80.0,-338.0,269.0,1
-16.0,-219.0,-52.0,-84.0,-333.0,277.0,1
-9.0,-222.0,-54.0,-84.0,-330.0,282.0,1
-10.0,-217.0,-49.0,-75.0,-324.0,288.0,1
-5.0,-216.0,-40.0,-61.0,-322.0,290.0,1
-3.0,-211.0,-43.0,-35.0,-319.0,288.0,1
-7.0,-212.0,-45.0,0.0,-313.0,286.0,1
-2.0,-213.0,-52.0,18.0,-308.0,281.0,1
1.0,-219.0,-46.0,12.0,-302.0,277.0,1
0.0,-210.0,-42.0,21.0,-291.0,276.0,1
4.0,-210.0,-39.0,43.0,-278.0,280.0,1
-4.0,-215.0,-37.0,66.0,-268.0,286.0,1
-2.0,-215.0,-34.0,94.0,-261.0,288.0,1
0.0,-218.0,-43.0,119.0,-247.0,293.0,1
-6.0,-221.0,-49.0,119.0,-236.0,291.0,1
-8.0,-219.0,-44.0,95.0,-222.0,286.0,1
-12.0,-218.0,-46.0,100.0,-199.0,284.0,1
-10.0,-219.0,-44.0,92.0,-186.0,281.0,1
-10.0,-217.0,-41.0,85.0,-170.0,281.0,1
-11.0,-217.0,-42.0,83.0,-149.0,279.0,1
-7.0,-217.0,-36.0,88.0,-122.0,268.0,1
-10.0,-213.0,-31.0,120.0,-93.0,255.0,1
-11.0,-212.0,-32.0,145.0,-63.0,239.0,1
-12.0,-210.0,-32.0,159.0,-30.0,226.0,1
-12.0,-211.0,-39.0,164.0,5.0,203.0,1
-11.0,-210.0,-45.0,137.0,33.0,172.0,1
-12.0,-205.0,-48.0,82.0,68.0,143.0,1
-13.0,-200.0,-41.0,34.0,96.0,118.0,1
-12.0,-201.0,-37.0,5.0,124.0,93.0,1
-12.0,-201.0,-37.0,-8.0,151.0,76.0,1
-12.0,-201.0,-38.0,-16.0,177.0,60.0,1
-13.0,-203.0,-32.0,-23.0,199.0,47.0,1
-13.0,-204.0,-35.0,-36.0,217.0,30.0,1
-12.0,-206.0,-33.0,-51.0,233.0,18.0,1
-16.0,-208.0,-36.0,-57.0,249.0,-1.0,1
-15.0,-212.0,-30.0,-60.0,259.0,-26.0,1
-15.0,-214.0,-30.0,-65.0,262.0,-51.0,1
-17.0,-218.0,-29.0,-71.0,268.0,-73.0,1
-14.0,-224.0,-27.0,-83.0,276.0,-95.0,1
-16.0,-227.0,-29.0,-92.0,286.0,-112.0,1
-15.0,-233.0,-24.0,-91.0,298.0,-135.0,1
-21.0,-234.0,-19.0,-82.0,308.0,-152.0,1
-23.0,-242.0,-23.0,-68.0,312.0,-173.0,1
-22.0,-244.0,-16.0,-48.0,317.0,-186.0,1
-27.0,-244.0,-12.0,-21.0,322.0,-202.0,1
-24.0,-250.0,-13.0,10.0,331.0,-210.0,1
-22.0,-255.0,-7.0,53.0,346.0,-217.0,1
-24.0,-260.0,-4.0,91.0,359.0,-218.0,1
-21.0,-263.0,-8.0,127.0,370.0,-222.0,1
-22.0,-264.0,2.0,165.0,384.0,-221.0,1
-23.0,-266.0,-1.0,200.0,402.0,-223.0,1
-23.0,-265.0,2.0,234.0,420.0,-217.0,1
-17.0,-266.0,8.0,271.0,436.0,-213.0,1
-22.0,-266.0,7.0,309.0,450.0,-207.0,1
-25.0,-267.0,2.0,346.0,460.0,-203.0,1
-29.0,-267.0,0.0,369.0,463.0,-195.0,1
-32.0,-266.0,-2.0,376.0,464.0,-194.0,1
-42.0,-263.0,-5.0,362.0,463.0,-186.0,1
-42.0,-264.0,3.0,341.0,465.0,-184.0,1
-42.0,-268.0,5.0,310.0,469.0,-176.0,1
-45.0,-268.0,1.0,283.0,478.0,-171.0,1
-46.0,-270.0,8.0,261.0,490.0,-160.0,1
-48.0,-272.0,8.0,247.0,501.0,-152.0,1
-50.0,-274.0,12.0,239.0,509.0,-140.0,1
-50.0,-276.0,14.0,235.0,516.0,-131.0,1
-50.0,-279.0,15.0,233.0,525.0,-115.0,1
-52.0,-279.0,18.0,239.0,530.0,-108.0,1
-54.0,-287.0,11.0,246.0,536.0,-97.0,1
-56.0,-285.0,13.0,255.0,537.0,-92.0,1
-53.0,-289.0,12.0,261.0,542.0,-83.0,1
-53.0,-290.0,6.0,260.0,542.0,-80.0,1
-47.0,-287.0,6.0,257.0,539.0,-73.0,1
-44.0,-289.0,0.0,247.0,532.0,-74.0,1
-49.0,-287.0,-6.0,231.0,522.0,-73.0,1
-47.0,-287.0,-8.0,215.0,512.0,-75.0,1
-46.0,-282.0,-8.0,193.0,498.0,-72.0,1
-40.0,-284.0,-18.0,163.0,485.0,-70.0,1
-45.0,-279.0,-14.0,134.0,471.0,-67.0,1
-45.0,-281.0,-20.0,110.0,464.0,-62.0,1
-42.0,-286.0,-23.0,92.0,459.0,-54.0,1
-38.0,-291.0,-23.0,79.0,458.0,-49.0,1
-42.0,-291.0,-20.0,75.0,456.0,-41.0,1
-34.0,-294.0,-21.0,71.0,456.0,-36.0,1
-35.0,-293.0,-18.0,73.0,456.0,-31.0,1
-34.0,-294.0,-17.0,76.0,454.0,-25.0,1
-31.0,-291.0,-19.0,78.0,450.0,-16.0,1
-33.0,-291.0,-25.0,73.0,448.0,-8.0,1
-28.0,-291.0,-28.0,64.0,445.0,2.0,1
-19.0,-289.0,-30.0,59.0,446.0,8.0,1
-11.0,-286.0,-34.0,55.0,449.0,10.0,1
-9.0,-280.0,-39.0,47.0,452.0,5.0,1
-3.0,-277.0,-39.0,36.0,458.0,-5.0,1
5.0,-272.0,-42.0,28.0,464.0,-18.0,1
10.0,-267.0,-45.0,26.0,472.0,-31.0,1
16.0,-262.0,-54.0,30.0,481.0,-45.0,1
20.0,-259.0,-62.0,36.0,492.0,-64.0,1
28.0,-259.0,-68.0,43.0,501.0,-81.0,1
34.0,-250.0,-70.0,51.0,504.0,-98.0,1
33.0,-243.0,-81.0,60.0,503.0,-113.0,1
34.0,-241.0,-94.0,60.0,493.0,-127.0,1
36.0,-238.0,-102.0,56.0,478.0,-135.0,1
37.0,-233.0,-110.0,49.0,463.0,-144.0,1
31.0,-233.0,-112.0,38.0,450.0,-151.0,1
35.0,-236.0,-116.0,21.0,437.0,-158.0,1
33.0,-236.0,-115.0,-3.0,421.0,-159.0,1
33.0,-234.0,-120.0,-31.0,413.0,-158.0,1
35.0,-234.0,-128.0,-62.0,406.0,-146.0,1
39.0,-239.0,-127.0,-89.0,398.0,-133.0,1
36.0,-242.0,-124.0,-113.0,378.0,-113.0,1
33.0,-245.0,-123.0,-122.0,349.0,-96.0,1
32.0,-255.0,-123.0,-137.0,316.0,-66.0,1
31.0,-260.0,-119.0,-161.0,279.0,-36.0,1
33.0,-277.0,-119.0,-190.0,240.0,-12.0,1
34.0,-293.0,-121.0,-226.0,206.0,-9.0,1
35.0,-304.0,-110.0,-263.0,184.0,-28.0,1
35.0,-307.0,-96.0,-272.0,153.0,-53.0,1
39.0,-310.0,-81.0,-241.0,126.0,-69.0,1
35.0,-311.0,-76.0,-188.0,100.0,-88.0,1
27.0,-311.0,-70.0,-132.0,71.0,-104.0,1
23.0,-315.0,-65.0,-86.0,40.0,-124.0,1
16.0,-317.0,-63.0,-43.0,5.0,-141.0,1
20.0,-308.0,-58.0,10.0,-26.0,-166.0,1
17.0,-306.0,-57.0,66.0,-56.0,-184.0,1
15.0,-302.0,-59.0,122.0,-83.0,-201.0,1
15.0,-296.0,-62.0,164.0,-114.0,-218.0,1
12.0,-287.0,-61.0,201.0,-152.0,-237.0,1
14.0,-284.0,-68.0,222.0,-174.0,-253.0,1
16.0,-283.0,-69.0,220.0,-188.0,-277.0,1
22.0,-278.0,-70.0,202.0,-196.0,-295.0,1
23.0,-268.0,-63.0,189.0,-201.0,-316.0,1
17.0,-262.0,-56.0,193.0,-208.0,-326.0,1
42.0,-256.0,-78.0,196.0,-216.0,-337.0,1
22.0,-244.0,-58.0,186.0,-227.0,-338.0,1
16.0,-236.0,-58.0,186.0,-239.0,-337.0,1
23.0,-234.0,-59.0,200.0,-253.0,-322.0,1
19.0,-233.0,-51.0,200.0,-275.0,-312.0,1
22.0,-227.0,-66.0,194.0,-296.0,-296.0,1
19.0,-217.0,-61.0,181.0,-323.0,-292.0,1
18.0,-214.0,-57.0,154.0,-340.0,-276.0,1
24.0,-213.0,-50.0,128.0,-355.0,-269.0,1
27.0,-213.0,-52.0,94.0,-369.0,-259.0,1
28.0,-207.0,-48.0,57.0,-380.0,-255.0,1
33.0,-206.0,-49.0,24.0,-386.0,-248.0,1
37.0,-209.0,-44.0,-7.0,-392.0,-248.0,1
36.0,-203.0,-46.0,-32.0,-394.0,-251.0,1
42.0,-201.0,-40.0,-52.0,-388.0,-262.0,1
47.0,-204.0,-37.0,-75.0,-384.0,-272.0,1
50.0,-201.0,-41.0,-97.0,-382.0,-288.0,1
49.0,-197.0,-43.0,-121.0,-379.0,-303.0,1
52.0,-202.0,-37.0,-138.0,-374.0,-319.0,1
52.0,-200.0,-37.0,-150.0,-368.0,-332.0,1
52.0,-200.0,-31.0,-158.0,-361.0,-347.0,1
55.0,-205.0,-37.0,-170.0,-353.0,-359.0,1
49.0,-210.0,-34.0,-183.0,-348.0,-372.0,1
46.0,-213.0,-30.0,-193.0,-343.0,-379.0,1
47.0,-213.0,-31.0,-195.0,-336.0,-385.0,1
45.0,-217.0,-26.0,-193.0,-327.0,-384.0,1
42.0,-220.0,-32.0,-194.0,-320.0,-378.0,1
38.0,-223.0,-29.0,-199.0,-314.0,-366.0,1
34.0,-227.0,-20.0,-200.0,-309.0,-351.0,1
30.0,-231.0,-18.0,-190.0,-305.0,-331.0,1
30.0,-234.0,-13.0,-171.0,-303.0,-313.0,1
26.0,-240.0,-13.0,-154.0,-301.0,-294.0,1
30.0,-244.0,-11.0,-137.0,-302.0,-274.0,1
29.0,-245.0,-4.0,-119.0,-301.0,-253.0,1
27.0,-250.0,-8.0,-75.0,-295.0,-232.0,1
24.0,-251.0,-8.0,-33.0,-293.0,-211.0,1
26.0,-251.0,-9.0,3.0,-290.0,-192.0,1
26.0,-248.0,-9.0,38.0,-292.0,-174.0,1
25.0,-247.0,-12.0,77.0,-296.0,-157.0,1
27.0,-247.0,-6.0,122.0,-297.0,-140.0,1
28.0,-243.0,-19.0,155.0,-299.0,-120.0,1
27.0,-238.0,-19.0,145.0,-299.0,-105.0,1
31.0,-234.0,-20.0,139.0,-301.0,-91.0,1
32.0,-230.0,-17.0,130.0,-310.0,-84.0,1
34.0,-223.0,-26.0,123.0,-317.0,-75.0,1
40.0,-224.0,-20.0,121.0,-319.0,-67.0,1
37.0,-216.0,-19.0,120.0,-322.0,-59.0,1
38.0,-217.0,-24.0,114.0,-328.0,-50.0,1
42.0,-214.0,-22.0,94.0,-336.0,-39.0,1
38.0,-214.0,-19.0,69.0,-344.0,-30.0,1
38.0,-212.0,-18.0,45.0,-354.0,-19.0,1
35.0,-216.0,-19.0,27.0,-363.0,-12.0,1
37.0,-219.0,-16.0,6.0,-371.0,0.0,1
35.0,-225.0,-14.0,-16.0,-378.0,12.0,1
32.0,-227.0,-5.0,-43.0,-385.0,26.0,1
32.0,-236.0,-3.0,-54.0,-391.0,39.0,1
28.0,-237.0,-2.0,-61.0,-394.0,53.0,1
27.0,-243.0,-2.0,-68.0,-394.0,65.0,1
26.0,-249.0,4.0,-67.0,-392.0,77.0,1
26.0,-258.0,8.0,-58.0,-392.0,85.0,1
24.0,-259.0,13.0,-41.0,-391.0,96.0,1
27.0,-264.0,13.0,-20.0,-387.0,102.0,1
29.0,-268.0,17.0,10.0,-381.0,111.0,1
30.0,-267.0,20.0,42.0,-375.0,116.0,1
36.0,-271.0,22.0,81.0,-370.0,120.0,1
38.0,-273.0,29.0,115.0,-367.0,116.0,1
43.0,-278.0,31.0,147.0,-366.0,115.0,1
44.0,-275.0,32.0,178.0,-364.0,106.0,1
45.0,-275.0,35.0,207.0,-362.0,100.0,1
44.0,-278.0,32.0,233.0,-363.0,90.0,1
47.0,-274.0,30.0,259.0,-361.0,82.0,1
46.0,-272.0,27.0,279.0,-357.0,69.0,1
47.0,-268.0,26.0,290.0,-352.0,61.0,1
45.0,-268.0,19.0,297.0,-344.0,50.0,1
48.0,-261.0,19.0,297.0,-332.0,49.0,1
48.0,-258.0,16.0,288.0,-322.0,47.0,1
49.0,-256.0,19.0,276.0,-312.0,51.0,1
54.0,-255.0,12.0,258.0,-301.0,53.0,1
58.0,-256.0,15.0,235.0,-291.0,58.0,1
63.0,-256.0,16.0,210.0,-277.0,56.0,1
62.0,-255.0,17.0,185.0,-263.0,57.0,1
65.0,-257.0,16.0,160.0,-245.0,52.0,1
68.0,-258.0,12.0,132.0,-228.0,48.0,1
74.0,-260.0,9.0,99.0,-203.0,36.0,1
80.0,-265.0,4.0,58.0,-179.0,29.0,1
81.0,-266.0,7.0,23.0,-148.0,14.0,1
85.0,-269.0,6.0,-13.0,-114.0,2.0,1
87.0,-273.0,3.0,-49.0,-75.0,-16.0,1
90.0,-277.0,1.0,-79.0,-36.0,-28.0,1
93.0,-280.0,8.0,-104.0,4.0,-43.0,1
97.0,-285.0,8.0,-116.0,39.0,-48.0,1
96.0,-287.0,8.0,-130.0,73.0,-49.0,1
98.0,-287.0,11.0,-139.0,106.0,-39.0,1
96.0,-291.0,6.0,-139.0,142.0,-26.0,1
97.0,-293.0,3.0,-131.0,169.0,-7.0,1
89.0,-293.0,6.0,-116.0,192.0,13.0,1
82.0,-295.0,1.0,-100.0,218.0,38.0,1
81.0,-296.0,-2.0,-82.0,241.0,61.0,1
72.0,-293.0,-5.0,-64.0,261.0,86.0,1
60.0,-291.0,-11.0,-51.0,272.0,106.0,1
53.0,-288.0,-18.0,-43.0,276.0,130.0,1
48.0,-284.0,-22.0,-42.0,270.0,154.0,1
33.0,-280.0,-30.0,-41.0,261.0,183.0,1
22.0,-275.0,-36.0,-39.0,240.0,219.0,1
12.0,-273.0,-43.0,-35.0,215.0,251.0,1
7.0,-267.0,-56.0,-32.0,192.0,280.0,1
6.0,-264.0,-67.0,-26.0,171.0,311.0,1
-1.0,-260.0,-84.0,-14.0,154.0,338.0,1
-7.0,-252.0,-90.0,-3.0,138.0,366.0,1
-11.0,-247.0,-96.0,8.0,124.0,386.0,1
-19.0,-236.0,-100.0,24.0,108.0,400.0,1
-21.0,-229.0,-113.0,39.0,89.0,411.0,1
-23.0,-215.0,-121.0,51.0,71.0,415.0,1
-25.0,-204.0,-128.0,58.0,50.0,415.0,1
-22.0,-196.0,-134.0,58.0,32.0,409.0,1
-19.0,-190.0,-137.0,52.0,13.0,401.0,1
-17.0,-184.0,-145.0,40.0,-1.0,385.0,1
-17.0,-186.0,-149.0,23.0,-9.0,366.0,1
-15.0,-185.0,-155.0,-1.0,-10.0,334.0,1
-20.0,-189.0,-153.0,-28.0,-6.0,293.0,1
-20.0,-199.0,-154.0,-71.0,1.0,252.0,1
-19.0,-217.0,-151.0,-141.0,9.0,219.0,1
-24.0,-230.0,-139.0,-229.0,9.0,195.0,1
-21.0,-247.0,-134.0,-304.0,8.0,182.0,1
-19.0,-259.0,-129.0,-374.0,13.0,183.0,1
-15.0,-274.0,-121.0,-413.0,27.0,190.0,1
-11.0,-288.0,-121.0,-424.0,40.0,201.0,1
3.0,-303.0,-118.0,-424.0,46.0,212.0,1
6.0,-314.0,-111.0,-408.0,47.0,218.0,1
9.0,-325.0,-108.0,-372.0,51.0,224.0,1
7.0,-331.0,-105.0,-330.0,54.0,228.0,1
6.0,-333.0,-100.0,-286.0,53.0,238.0,1
7.0,-337.0,-101.0,-232.0,46.0,247.0,1
7.0,-334.0,-94.0,-171.0,33.0,256.0,1
4.0,-331.0,-92.0,-105.0,19.0,266.0,1
3.0,-323.0,-84.0,-59.0,3.0,279.0,1
-2.0,-315.0,-79.0,-20.0,-20.0,290.0,1
-8.0,-307.0,-73.0,16.0,-44.0,304.0,1
-14.0,-300.0,-77.0,50.0,-67.0,317.0,1
-18.0,-297.0,-70.0,75.0,-93.0,336.0,1
-23.0,-289.0,-65.0,92.0,-119.0,351.0,1
-24.0,-286.0,-60.0,107.0,-142.0,369.0,1
-25.0,-282.0,-55.0,123.0,-162.0,381.0,1
-24.0,-278.0,-51.0,142.0,-177.0,402.0,1
-26.0,-275.0,-50.0,166.0,-183.0,419.0,1
-27.0,-273.0,-52.0,193.0,-182.0,447.0,1
-27.0,-270.0,-50.0,207.0,-178.0,479.0,1
-24.0,-264.0,-47.0,228.0,-173.0,513.0,1
-20.0,-263.0,-42.0,230.0,-165.0,539.0,1
-15.0,-261.0,-40.0,233.0,-153.0,568.0,1
-11.0,-260.0,-32.0,228.0,-140.0,588.0,1
-10.0,-251.0,-22.0,223.0,-113.0,609.0,1
-4.0,-249.0,-17.0,235.0,-75.0,620.0,1
0.0,-247.0,-22.0,258.0,-27.0,634.0,1
2.0,-237.0,-18.0,261.0,4.0,636.0,1
-2.0,-233.0,-20.0,266.0,31.0,640.0,1
0.0,-227.0,-15.0,272.0,58.0,636.0,1
1.0,-224.0,-16.0,279.0,94.0,633.0,1
7.0,-226.0,-22.0,266.0,135.0,617.0,1
1.0,-221.0,-19.0,244.0,179.0,604.0,1
-3.0,-217.0,-29.0,230.0,218.0,589.0,1
1.0,-215.0,-37.0,237.0,253.0,588.0,1
10.0,-219.0,-31.0,226.0,278.0,586.0,1
17.0,-213.0,-32.0,143.0,317.0,608.0,1
17.0,-211.0,-24.0,125.0,374.0,624.0,1
24.0,-215.0,-18.0,172.0,431.0,633.0,1
26.0,-209.0,-29.0,219.0,457.0,612.0,1
27.0,-204.0,-36.0,223.0,452.0,581.0,1
20.0,-203.0,-32.0,193.0,451.0,547.0,1
17.0,-201.0,-21.0,167.0,466.0,521.0,1
9.0,-200.0,-18.0,148.0,479.0,492.0,1
4.0,-201.0,-20.0,123.0,487.0,468.0,1
-2.0,-205.0,-22.0,96.0,493.0,437.0,1
-7.0,-203.0,-33.0,74.0,509.0,406.0,1
-12.0,-206.0,-31.0,39.0,531.0,380.0,1
-14.0,-211.0,-26.0,20.0,553.0,364.0,1
-20.0,-215.0,-18.0,13.0,571.0,346.0,1
-27.0,-210.0,-21.0,19.0,581.0,333.0,1
-29.0,-206.0,-25.0,27.0,587.0,314.0,1
-35.0,-206.0,-31.0,32.0,590.0,302.0,1
-36.0,-204.0,-29.0,23.0,591.0,283.0,1
-40.0,-207.0,-29.0,-3.0,596.0,267.0,1
-39.0,-204.0,-28.0,-40.0,607.0,247.0,1
-36.0,-203.0,-23.0,-76.0,627.0,226.0,1
-38.0,-201.0,-21.0,-106.0,644.0,206.0,1
-37.0,-201.0,-17.0,-116.0,652.0,188.0,1
-40.0,-204.0,-9.0,-107.0,651.0,164.0,1
-44.0,-205.0,-5.0,-76.0,645.0,134.0,1
-53.0,-202.0,-8.0,-24.0,637.0,96.0,1
-57.0,-204.0,-7.0,37.0,624.0,55.0,1
-61.0,-206.0,-8.0,85.0,610.0,16.0,1
-63.0,-207.0,-7.0,109.0,603.0,-15.0,1
-61.0,-214.0,0.0,120.0,598.0,-45.0,1
-64.0,-216.0,6.0,130.0,593.0,-80.0,1
-60.0,-222.0,5.0,150.0,586.0,-113.0,1
-58.0,-228.0,6.0,169.0,578.0,-144.0,1
-57.0,-232.0,8.0,187.0,571.0,-179.0,1
-54.0,-235.0,9.0,200.0,563.0,-210.0,1
-52.0,-239.0,6.0,205.0,558.0,-239.0,1
-44.0,-242.0,7.0,200.0,553.0,-262.0,1
-43.0,-245.0,8.0,190.0,553.0,-285.0,1
-38.0,-253.0,18.0,181.0,557.0,-310.0,1
-37.0,-249.0,19.0,184.0,560.0,-337.0,1
-40.0,-246.0,17.0,202.0,558.0,-366.0,1
-40.0,-244.0,20.0,230.0,549.0,-378.0,1
-41.0,-241.0,17.0,249.0,542.0,-380.0,1
-42.0,-240.0,15.0,255.0,533.0,-375.0,1
-44.0,-238.0,18.0,246.0,527.0,-372.0,1
-50.0,-235.0,15.0,232.0,525.0,-371.0,1
-59.0,-241.0,13.0,215.0,527.0,-370.0,1
-68.0,-239.0,14.0,192.0,521.0,-368.0,1
-74.0,-242.0,9.0,162.0,511.0,-363.0,1
-77.0,-242.0,6.0,130.0,502.0,-352.0,1
-82.0,-244.0,8.0,88.0,497.0,-336.0,1
-77.0,-248.0,11.0,44.0,496.0,-322.0,1
-83.0,-255.0,15.0,12.0,493.0,-307.0,1
-78.0,-262.0,13.0,-22.0,485.0,-293.0,1
-69.0,-268.0,9.0,-52.0,465.0,-282.0,1
-64.0,-270.0,-3.0,-78.0,436.0,-273.0,1
-66.0,-272.0,-5.0,-110.0,401.0,-269.0,1
-68.0,-273.0,-19.0,-153.0,362.0,-265.0,1
-77.0,-277.0,-21.0,-209.0,323.0,-263.0,1
-77.0,-280.0,-25.0,-273.0,277.0,-259.0,1
-82.0,-287.0,-28.0,-340.0,221.0,-253.0,1
-82.0,-297.0,-35.0,-418.0,174.0,-240.0,1
-80.0,-307.0,-41.0,-474.0,123.0,-223.0,1
-74.0,-323.0,-49.0,-508.0,72.0,-197.0,1
-76.0,-328.0,-57.0,-529.0,16.0,-179.0,1
-76.0,-339.0,-65.0,-545.0,-37.0,-155.0,1
-76.0,-353.0,-77.0,-556.0,-85.0,-133.0,1
-76.0,-364.0,-80.0,-563.0,-133.0,-105.0,1
-79.0,-376.0,-84.0,-565.0,-182.0,-81.0,1
-85.0,-383.0,-78.0,-564.0,-227.0,-51.0,1
-91.0,-388.0,-77.0,-567.0,-280.0,-12.0,1
-96.0,-394.0,-64.0,-577.0,-327.0,31.0,1
-102.0,-398.0,-59.0,-585.0,-374.0,73.0,1
-102.0,-400.0,-54.0,-584.0,-422.0,118.0,1
-97.0,-403.0,-50.0,-565.0,-460.0,155.0,1
-81.0,-401.0,-43.0,-524.0,-478.0,188.0,1
-66.0,-396.0,-36.0,-467.0,-477.0,201.0,1
-48.0,-386.0,-39.0,-407.0,-463.0,197.0,1
-28.0,-377.0,-40.0,-346.0,-438.0,175.0,1
-9.0,-367.0,-48.0,-293.0,-411.0,132.0,1
12.0,-354.0,-63.0,-253.0,-375.0,52.0,1
35.0,-330.0,-78.0,-212.0,-337.0,-28.0,1
52.0,-313.0,-91.0,-185.0,-283.0,-121.0,1
63.0,-288.0,-100.0,-169.0,-210.0,-215.0,1
71.0,-259.0,-108.0,-170.0,-129.0,-311.0,1
72.0,-236.0,-113.0,-184.0,-51.0,-399.0,1
78.0,-215.0,-119.0,-201.0,17.0,-477.0,1
78.0,-193.0,-119.0,-220.0,72.0,-539.0,1
78.0,-177.0,-123.0,-233.0,108.0,-591.0,1
73.0,-164.0,-122.0,-249.0,123.0,-623.0,1
69.0,-154.0,-127.0,-272.0,124.0,-651.0,1
63.0,-140.0,-137.0,-318.0,130.0,-657.0,1
53.0,-129.0,-138.0,-364.0,144.0,-660.0,1
48.0,-120.0,-128.0,-406.0,156.0,-639.0,1
37.0,-114.0,-105.0,-436.0,154.0,-610.0,1
22.0,-110.0,-94.0,-431.0,131.0,-559.0,1
12.0,-105.0,-76.0,-414.0,85.0,-483.0,1
9.0,-120.0,-62.0,-399.0,21.0,-382.0,1
1.0,-151.0,-53.0,-388.0,-44.0,-307.0,1
-11.0,-175.0,-42.0,-401.0,-105.0,-269.0,1
-25.0,-189.0,-35.0,-420.0,-164.0,-244.0,1
-38.0,-197.0,-15.0,-413.0,-212.0,-211.0,1
-51.0,-203.0,-9.0,-358.0,-264.0,-163.0,1
-52.0,-211.0,-12.0,-278.0,-316.0,-98.0,1
-54.0,-214.0,-26.0,-201.0,-369.0,-24.0,1
-44.0,-223.0,-38.0,-146.0,-411.0,55.0,1
-42.0,-236.0,-54.0,-97.0,-436.0,130.0,1
-37.0,-239.0,-65.0,-54.0,-444.0,197.0,1
-17.0,-243.0,-69.0,-15.0,-444.0,250.0,1
-10.0,-241.0,-78.0,23.0,-439.0,297.0,1
-2.0,-228.0,-75.0,45.0,-424.0,313.0,1
5.0,-221.0,-67.0,45.0,-421.0,312.0,1
6.0,-213.0,-66.0,33.0,-426.0,296.0,1
5.0,-209.0,-65.0,5.0,-428.0,277.0,1
0.0,-202.0,-63.0,-31.0,-419.0,257.0,1
4.0,-203.0,-54.0,-60.0,-405.0,248.0,1
5.0,-204.0,-34.0,-73.0,-386.0,246.0,1
8.0,-206.0,-18.0,-55.0,-369.0,249.0,1
9.0,-216.0,-8.0,-4.0,-355.0,255.0,1
4.0,-222.0,4.0,69.0,-337.0,262.0,1
9.0,-235.0,10.0,180.0,-323.0,264.0,1
14.0,-245.0,18.0,283.0,-313.0,263.0,1
18.0,-249.0,22.0,391.0,-299.0,261.0,1
23.0,-256.0,22.0,506.0,-282.0,253.0,1
28.0,-259.0,23.0,623.0,-264.0,241.0,1
38.0,-267.0,26.0,743.0,-249.0,222.0,1
40.0,-267.0,25.0,859.0,-236.0,200.0,1
48.0,-268.0,20.0,964.0,-223.0,175.0,1
42.0,-271.0,16.0,1056.0,-210.0,152.0,1
50.0,-258.0,6.0,1131.0,-196.0,130.0,1
44.0,-267.0,6.0,1205.0,-179.0,115.0,1
50.0,-265.0,1.0,1249.0,-170.0,101.0,1
47.0,-264.0,3.0,1275.0,-160.0,88.0,1
41.0,-259.0,-5.0,1296.0,-152.0,78.0,1
41.0,-258.0,-7.0,1314.0,-141.0,75.0,1
42.0,-255.0,0.0,1323.0,-130.0,75.0,1
40.0,-256.0,3.0,1344.0,-123.0,73.0,1
40.0,-253.0,8.0,1380.0,-126.0,74.0,1
46.0,-246.0,15.0,1428.0,-133.0,77.0,1
50.0,-238.0,10.0,1483.0,-140.0,71.0,1
53.0,-233.0,9.0,1549.0,-130.0,65.0,1
58.0,-225.0,8.0,1592.0,-105.0,48.0,1
60.0,-218.0,15.0,1625.0,-68.0,25.0,1
63.0,-207.0,16.0,1649.0,-29.0,-14.0,1
60.0,-192.0,15.0,1678.0,-8.0,-69.0,1
65.0,-180.0,19.0,1719.0,-25.0,-131.0,1
63.0,-160.0,12.0,1770.0,-86.0,-190.0,1
65.0,-137.0,5.0,1832.0,-191.0,-226.0,1
55.0,-110.0,-19.0,1903.0,-328.0,-234.0,1
52.0,-71.0,-52.0,1956.0,-456.0,-206.0,1
46.0,-51.0,-66.0,1958.0,-570.0,-163.0,1
30.0,-10.0,-88.0,1905.0,-633.0,-131.0,1
12.0,36.0,-110.0,1821.0,-705.0,-115.0,1
-7.0,80.0,-129.0,1704.0,-783.0,-122.0,1
-30.0,123.0,-126.0,1545.0,-865.0,-140.0,1
-65.0,160.0,-110.0,1365.0,-941.0,-172.0,1
-103.0,186.0,-82.0,1204.0,-997.0,-193.0,1
-124.0,196.0,-77.0,1060.0,-1047.0,-212.0,1
-142.0,202.0,-77.0,950.0,-1090.0,-212.0,1
-160.0,199.0,-103.0,905.0,-1122.0,-187.0,1
-180.0,212.0,-132.0,912.0,-1178.0,-142.0,1
-193.0,208.0,-149.0,939.0,-1219.0,-48.0,1
-178.0,188.0,-139.0,993.0,-1235.0,88.0,1
-137.0,151.0,-108.0,1057.0,-1230.0,229.0,1
-99.0,120.0,-95.0,1108.0,-1215.0,340.0,1
-86.0,97.0,-78.0,1120.0,-1198.0,399.0,1
-69.0,59.0,-57.0,1130.0,-1176.0,429.0,1
-38.0,17.0,-35.0,1127.0,-1159.0,415.0,1
-9.0,-18.0,-3.0,1130.0,-1150.0,359.0,1
19.0,-47.0,19.0,1193.0,-1145.0,276.0,1
40.0,-65.0,23.0,1324.0,-1141.0,223.0,1
53.0,-93.0,16.0,1441.0,-1146.0,171.0,1
58.0,-121.0,24.0,1564.0,-1159.0,120.0,1
67.0,-151.0,22.0,1682.0,-1181.0,42.0,1
84.0,-155.0,-4.0,1790.0,-1199.0,-26.0,1
90.0,-154.0,-37.0,1863.0,-1200.0,-89.0,1
85.0,-146.0,-66.0,1870.0,-1204.0,-159.0,1
57.0,-131.0,-88.0,1795.0,-1197.0,-238.0,1
16.0,-102.0,-84.0,1657.0,-1158.0,-299.0,1
1.0,-66.0,-77.0,1535.0,-1081.0,-288.0,1
-13.0,-31.0,-79.0,1460.0,-996.0,-244.0,1
-24.0,3.0,-84.0,1444.0,-916.0,-202.0,1
-9.0,34.0,-88.0,1443.0,-830.0,-147.0,1
19.0,60.0,-79.0,1434.0,-706.0,-94.0,1
55.0,71.0,-60.0,1418.0,-556.0,-55.0,1
98.0,73.0,-10.0,1417.0,-399.0,-37.0,1
107.0,70.0,44.0,1454.0,-231.0,-32.0,1
97.0,69.0,67.0,1538.0,-76.0,-52.0,1
99.0,78.0,65.0,1636.0,33.0,-98.0,1
113.0,71.0,51.0,1716.0,132.0,-167.0,1
130.0,22.0,65.0,1810.0,257.0,-174.0,1
119.0,-54.0,130.0,1931.0,471.0,-113.0,1
82.0,-126.0,216.0,2178.0,736.0,20.0,1
49.0,-176.0,264.0,2577.0,952.0,189.0,1
48.0,-207.0,272.0,3021.0,1042.0,378.0,1
56.0,-225.0,282.0,3375.0,1025.0,582.0,1
77.0,-246.0,246.0,3595.0,942.0,779.0,1
84.0,-253.0,187.0,3665.0,869.0,942.0,1
131.0,-343.0,160.0,3615.0,873.0,1092.0,1
118.0,-383.0,160.0,3527.0,1022.0,1207.0,1
77.0,-392.0,154.0,3332.0,1131.0,1211.0,1
24.0,-396.0,140.0,3138.0,1185.0,1120.0,1
13.0,-402.0,135.0,2976.0,1248.0,974.0,1
-24.0,-403.0,113.0,2892.0,1363.0,807.0,1
-69.0,-394.0,82.0,2878.0,1485.0,659.0,1
-114.0,-376.0,60.0,2937.0,1566.0,531.0,1
-149.0,-318.0,46.0,3048.0,1598.0,437.0,1
-174.0,-245.0,54.0,3192.0,1612.0,412.0,1
-201.0,-182.0,91.0,3338.0,1634.0,439.0,1
-226.0,-144.0,149.0,3479.0,1667.0,527.0,1
-231.0,-129.0,182.0,3668.0,1672.0,633.0,1
-235.0,-133.0,216.0,3849.0,1660.0,758.0,1
-227.0,-137.0,234.0,4066.0,1647.0,919.0,1
-205.0,-163.0,256.0,4313.0,1636.0,1134.0,1
-194.0,-175.0,301.0,4568.0,1617.0,1381.0,1
-176.0,-227.0,357.0,4798.0,1580.0,1637.0,1
-147.0,-280.0,462.0,5022.0,1549.0,1871.0,1
-202.0,-385.0,600.0,5303.0,1512.0,2095.0,1
-471.0,-525.0,962.0,5704.0,1416.0,2266.0,1
-420.0,-766.0,1436.0,6167.0,902.0,2660.0,1
302.0,-1440.0,1926.0,6761.0,136.0,2841.0,1
-902.0,-984.0,2501.0,7098.0,-280.0,1757.0,1
-1034.0,-516.0,2747.0,6527.0,-791.0,965.0,1
-475.0,-773.0,1830.0,4668.0,-1278.0,273.0,1
-428.0,-1065.0,947.0,2492.0,-1165.0,-176.0,1
-217.0,-1314.0,590.0,1371.0,-858.0,-257.0,1
56.0,-1379.0,429.0,1310.0,-492.0,-37.0,1
-2.0,-878.0,424.0,1491.0,-279.0,165.0,1
143.0,-718.0,296.0,1394.0,-178.0,377.0,1
147.0,-708.0,124.0,882.0,-46.0,357.0,1
43.0,-638.0,11.0,403.0,304.0,144.0,1
-68.0,-532.0,41.0,546.0,578.0,132.0,1
-135.0,-349.0,84.0,984.0,534.0,241.0,1
-161.0,-180.0,139.0,1346.0,371.0,342.0,1
-156.0,-124.0,189.0,1553.0,340.0,388.0,1
-148.0,-35.0,226.0,1653.0,348.0,444.0,1
-110.0,37.0,232.0,1725.0,373.0,535.0,1
-58.0,107.0,166.0,1865.0,436.0,659.0,1
12.0,137.0,133.0,1931.0,533.0,760.0,1
50.0,79.0,-7.0,1979.0,675.0,815.0,1
40.0,30.0,27.0,1763.0,771.0,814.0,1
22.0,-48.0,51.0,1597.0,782.0,829.0,1
144.0,-66.0,-36.0,1607.0,597.0,847.0,1
295.0,-18.0,-43.0,1665.0,446.0,805.0,1
234.0,28.0,-42.0,1673.0,417.0,653.0,1
-36.0,77.0,16.0,1506.0,388.0,507.0,1
-160.0,116.0,52.0,1297.0,224.0,433.0,1
-231.0,126.0,62.0,1041.0,77.0,395.0,1
-249.0,150.0,111.0,740.0,-10.0,326.0,1
-283.0,194.0,151.0,391.0,-77.0,295.0,1
-282.0,188.0,186.0,148.0,-127.0,294.0,1
-264.0,192.0,209.0,-38.0,-160.0,291.0,1
-220.0,193.0,215.0,-163.0,-142.0,277.0,1
-173.0,175.0,213.0,-260.0,-87.0,249.0,1
-152.0,139.0,205.0,-349.0,-29.0,177.0,1
-137.0,110.0,175.0,-440.0,16.0,78.0,1
-132.0,57.0,160.0,-570.0,59.0,-67.0,1
-82.0,22.0,164.0,-656.0,130.0,-218.0,1
-63.0,-21.0,172.0,-664.0,171.0,-376.0,1
-21.0,-101.0,175.0,-594.0,110.0,-530.0,1
14.0,-181.0,186.0,-397.0,54.0,-682.0,1
21.0,-236.0,203.0,-43.0,-12.0,-777.0,1
19.0,-255.0,218.0,424.0,-118.0,-799.0,1
16.0,-244.0,212.0,911.0,-247.0,-743.0,1
-4.0,-203.0,184.0,1320.0,-380.0,-649.0,1
-30.0,-163.0,143.0,1581.0,-512.0,-527.0,1
-22.0,-102.0,90.0,1655.0,-640.0,-404.0,1
-16.0,-48.0,53.0,1539.0,-711.0,-291.0,1
-58.0,-5.0,40.0,1315.0,-724.0,-192.0,1
-124.0,24.0,20.0,1084.0,-685.0,-88.0,1
-152.0,43.0,28.0,894.0,-621.0,56.0,1
-187.0,69.0,45.0,718.0,-524.0,205.0,1
-198.0,85.0,64.0,584.0,-402.0,373.0,1
-181.0,96.0,108.0,499.0,-250.0,558.0,1
-138.0,117.0,170.0,444.0,-67.0,705.0,1
-108.0,168.0,228.0,424.0,116.0,790.0,1
-76.0,199.0,272.0,385.0,272.0,819.0,1
-56.0,203.0,319.0,272.0,404.0,808.0,1
-44.0,199.0,344.0,139.0,513.0,769.0,1
-34.0,180.0,373.0,25.0,617.0,728.0,1
-37.0,167.0,400.0,-17.0,671.0,671.0,1
-39.0,156.0,409.0,-25.0,678.0,607.0,1
-55.0,145.0,406.0,-31.0,620.0,523.0,1
-60.0,137.0,399.0,-44.0,517.0,427.0,1
-59.0,123.0,382.0,-65.0,393.0,324.0,1
-55.0,109.0,367.0,-122.0,276.0,240.0,1
-49.0,101.0,349.0,-193.0,175.0,163.0,1
-53.0,82.0,325.0,-275.0,102.0,103.0,1
-53.0,72.0,305.0,-350.0,39.0,56.0,1
-53.0,56.0,273.0,-416.0,-37.0,40.0,1
-56.0,42.0,260.0,-448.0,-86.0,36.0,1
-57.0,31.0,252.0,-454.0,-120.0,38.0,1
-71.0,16.0,239.0,-435.0,-144.0,43.0,1
-73.0,3.0,237.0,-401.0,-166.0,55.0,1
-74.0,-4.0,234.0,-351.0,-186.0,57.0,1
-79.0,-14.0,231.0,-273.0,-207.0,47.0,1
-75.0,-23.0,231.0,-164.0,-230.0,36.0,1
-63.0,-20.0,227.0,-32.0,-249.0,15.0,1
-59.0,-16.0,220.0,114.0,-259.0,-8.0,1
-48.0,0.0,207.0,277.0,-261.0,-25.0,1
-40.0,16.0,198.0,384.0,-250.0,-43.0,1
-40.0,41.0,189.0,454.0,-234.0,-64.0,1
-34.0,50.0,177.0,491.0,-215.0,-75.0,1
-31.0,62.0,171.0,491.0,-198.0,-85.0,1
-13.0,73.0,169.0,459.0,-182.0,-93.0,1
-11.0,76.0,173.0,409.0,-165.0,-97.0,1
-12.0,79.0,175.0,349.0,-152.0,-97.0,1
-17.0,84.0,178.0,286.0,-136.0,-95.0,1
-18.0,82.0,177.0,226.0,-125.0,-90.0,1
-23.0,84.0,188.0,153.0,-118.0,-85.0,1
-26.0,83.0,186.0,87.0,-116.0,-77.0,1
-22.0,92.0,191.0,11.0,-120.0,-68.0,1
-29.0,94.0,178.0,-81.0,-118.0,-55.0,1
-24.0,78.0,184.0,-178.0,-113.0,-43.0,1
-36.0,69.0,189.0,-271.0,-104.0,-31.0,1
-41.0,73.0,195.0,-354.0,-93.0,-27.0,1
-37.0,54.0,202.0,-420.0,-82.0,-23.0,1
-38.0,22.0,208.0,-471.0,-70.0,-23.0,1
-37.0,36.0,195.0,-511.0,-55.0,-17.0,1
-33.0,25.0,203.0,-535.0,-34.0,-14.0,1
-29.0,11.0,215.0,-540.0,-12.0,-7.0,1
-31.0,3.0,223.0,-533.0,8.0,-5.0,1
-33.0,-1.0,223.0,-517.0,25.0,1.0,1
-35.0,-4.0,223.0,-498.0,41.0,2.0,1
-43.0,-6.0,225.0,-473.0,54.0,9.0,1
-39.0,-11.0,227.0,-444.0,65.0,13.0,1
-44.0,-15.0,222.0,-414.0,75.0,24.0,1
-49.0,-21.0,226.0,-386.0,84.0,31.0,1
-55.0,-20.0,226.0,-363.0,92.0,44.0,1
-57.0,-21.0,232.0,-340.0,99.0,50.0,1
-59.0,-17.0,236.0,-326.0,99.0,58.0,1
-59.0,-20.0,241.0,-315.0,94.0,63.0,1
-54.0,-18.0,251.0,-302.0,93.0,58.0,1
-51.0,-15.0,256.0,-291.0,97.0,43.0,1
-48.0,-15.0,262.0,-285.0,100.0,32.0,1
-49.0,-14.0,267.0,-279.0,99.0,16.0,1
-52.0,-13.0,271.0,-278.0,90.0,2.0,1
-55.0,-12.0,275.0,-280.0,79.0,-15.0,1
-53.0,-14.0,274.0,-284.0,63.0,-29.0,1
-49.0,-15.0,272.0,-284.0,43.0,-44.0,1
-49.0,-18.0,270.0,-280.0,31.0,-54.0,1
-47.0,-21.0,263.0,-272.0,20.0,-65.0,1
-45.0,-22.0,261.0,-265.0,16.0,-69.0,1
-42.0,-21.0,259.0,-257.0,13.0,-71.0,1
-32.0,-25.0,253.0,-253.0,13.0,-66.0,1
-35.0,-27.0,248.0,-245.0,16.0,-64.0,1
-33.0,-22.0,247.0,-242.0,21.0,-55.0,1
-30.0,-25.0,243.0,-238.0,29.0,-49.0,1
-35.0,-27.0,245.0,-233.0,40.0,-37.0,1
-30.0,-25.0,246.0,-226.0,55.0,-30.0,1
-38.0,-29.0,238.0,-219.0,68.0,-23.0,1
-38.0,-33.0,235.0,-215.0,88.0,-20.0,1
-40.0,-30.0,237.0,-215.0,106.0,-17.0,1
-40.0,-34.0,236.0,-216.0,123.0,-19.0,1
-41.0,-38.0,234.0,-217.0,142.0,-16.0,1
-46.0,-38.0,237.0,-211.0,164.0,-18.0,1
-48.0,-38.0,238.0,-200.0,186.0,-19.0,1
-55.0,-37.0,237.0,-186.0,203.0,-23.0,1
-65.0,-37.0,240.0,-169.0,214.0,-20.0,1
-69.0,-35.0,242.0,-147.0,222.0,-21.0,1
-73.0,-36.0,247.0,-127.0,226.0,-13.0,1
-75.0,-31.0,237.0,-105.0,225.0,-9.0,1
-82.0,-32.0,234.0,-87.0,224.0,-1.0,1
-86.0,-31.0,229.0,-72.0,219.0,1.0,1
-87.0,-31.0,223.0,-62.0,211.0,5.0,1
-91.0,-27.0,219.0,-55.0,198.0,4.0,1
-98.0,-21.0,216.0,-52.0,181.0,10.0,1
-95.0,-26.0,209.0,-56.0,166.0,4.0,1
-98.0,-18.0,212.0,-66.0,148.0,2.0,1
-97.0,-21.0,212.0,-79.0,134.0,-1.0,1
-92.0,-21.0,211.0,-87.0,123.0,-2.0,1
-91.0,-18.0,212.0,-94.0,118.0,-6.0,1
-85.0,-20.0,216.0,-98.0,114.0,-5.0,1
-83.0,-19.0,221.0,-101.0,117.0,-5.0,1
-78.0,-19.0,221.0,-99.0,123.0,-5.0,1
-75.0,-21.0,229.0,-96.0,128.0,-4.0,1
-73.0,-19.0,233.0,-92.0,133.0,-5.0,1
-71.0,-19.0,241.0,-86.0,133.0,-8.0,1
-67.0,-27.0,238.0,-78.0,127.0,-12.0,1
-66.0,-25.0,239.0,-65.0,122.0,-17.0,1
-61.0,-28.0,244.0,-50.0,113.0,-20.0,1
-65.0,-26.0,240.0,-37.0,107.0,-24.0,1
-65.0,-24.0,245.0,-22.0,100.0,-26.0,1
-65.0,-24.0,242.0,-11.0,95.0,-29.0,1
-64.0,-23.0,236.0,2.0,88.0,-30.0,1
-62.0,-26.0,234.0,14.0,83.0,-31.0,1
-63.0,-23.0,236.0,22.0,80.0,-33.0,1
-62.0,-21.0,234.0,28.0,78.0,-32.0,1
-60.0,-20.0,228.0,34.0,74.0,-31.0,1
-57.0,-20.0,234.0,38.0,73.0,-29.0,1
-58.0,-17.0,231.0,39.0,74.0,-27.0,1
-62.0,-16.0,228.0,39.0,76.0,-21.0,1
-61.0,-15.0,232.0,37.0,77.0,-15.0,1
-62.0,-12.0,231.0,33.0,80.0,-8.0,1
-63.0,-11.0,237.0,26.0,81.0,-3.0,1
-66.0,-11.0,231.0,21.0,81.0,5.0,1
-69.0,-14.0,234.0,17.0,79.0,9.0,1
-69.0,-12.0,231.0,13.0,77.0,16.0,1
-69.0,-11.0,234.0,11.0,72.0,20.0,1
-71.0,-8.0,231.0,9.0,69.0,23.0,1
-67.0,-14.0,231.0,8.0,68.0,21.0,1
-69.0,-10.0,234.0,5.0,70.0,21.0,1
-68.0,-11.0,232.0,3.0,70.0,17.0,1
-69.0,-11.0,237.0,2.0,73.0,17.0,1
-63.0,-8.0,238.0,4.0,75.0,13.0,1
-62.0,-11.0,233.0,8.0,78.0,13.0,1
-63.0,-11.0,237.0,12.0,82.0,11.0,1
-65.0,-11.0,235.0,18.0,83.0,13.0,1
-58.0,-14.0,233.0,26.0,90.0,11.0,1
-58.0,-13.0,233.0,33.0,91.0,14.0,1
-58.0,-11.0,240.0,39.0,94.0,15.0,1
-57.0,-11.0,238.0,45.0,95.0,19.0,1
-55.0,-13.0,237.0,49.0,95.0,19.0,1
-58.0,-11.0,234.0,52.0,92.0,23.0,1
-58.0,-8.0,233.0,57.0,91.0,22.0,1
-59.0,-10.0,231.0,60.0,88.0,24.0,1
-60.0,-8.0,234.0,57.0,83.0,22.0,1
-64.0,-8.0,223.0,56.0,77.0,23.0,1
-57.0,-4.0,225.0,51.0,70.0,23.0,1
-63.0,-9.0,218.0,44.0,58.0,29.0,1
-62.0,-4.0,217.0,38.0,56.0,20.0,1
-66.0,-4.0,217.0,25.0,56.0,17.0,1
-65.0,-3.0,217.0,11.0,51.0,11.0,1
-66.0,-1.0,217.0,-3.0,48.0,11.0,1
-63.0,0.0,218.0,-19.0,42.0,9.0,1
-61.0,-3.0,221.0,-30.0,33.0,11.0,1
-61.0,-1.0,224.0,-43.0,22.0,11.0,1
-62.0,-4.0,226.0,-53.0,13.0,14.0,1
-60.0,-4.0,228.0,-63.0,2.0,14.0,1
-59.0,-5.0,231.0,-68.0,-4.0,15.0,1
-58.0,-9.0,233.0,-68.0,-6.0,11.0,1
-58.0,-6.0,233.0,-66.0,-3.0,11.0,1
-57.0,-12.0,240.0,-64.0,3.0,7.0,1
-57.0,-14.0,243.0,-62.0,13.0,5.0,1
-58.0,-16.0,241.0,-57.0,23.0,-3.0,1
-58.0,-17.0,242.0,-53.0,35.0,-5.0,1
-57.0,-16.0,242.0,-46.0,45.0,-12.0,1
-56.0,-18.0,242.0,-38.0,54.0,-14.0,1
-59.0,-15.0,242.0,-30.0,61.0,-18.0,1
-59.0,-18.0,237.0,-25.0,68.0,-18.0,1
-58.0,-17.0,239.0,-25.0,70.0,-22.0,1
-58.0,-15.0,231.0,-26.0,72.0,-21.0,1
-60.0,-14.0,234.0,-27.0,72.0,-24.0,1
-58.0,-16.0,237.0,-30.0,72.0,-23.0,1
-58.0,-19.0,232.0,-36.0,72.0,-23.0,1
-65.0,-18.0,236.0,-41.0,74.0,-24.0,1
-66.0,-19.0,237.0,-48.0,75.0,-24.0,1
-68.0,-19.0,235.0,-52.0,77.0,-19.0,1
-69.0,-20.0,232.0,-58.0,79.0,-18.0,1
-68.0,-21.0,229.0,-58.0,81.0,-11.0,1
-71.0,-15.0,228.0,-59.0,80.0,-10.0,1
-67.0,-20.0,228.0,-57.0,76.0,-4.0,1
-69.0,-18.0,227.0,-54.0,68.0,1.0,1
-68.0,-20.0,223.0,-49.0,61.0,6.0,1
-67.0,-15.0,223.0,-46.0,54.0,9.0,1
-68.0,-16.0,228.0,-43.0,48.0,13.0,1
-66.0,-16.0,230.0,-42.0,47.0,13.0,1
-66.0,-15.0,233.0,-41.0,46.0,14.0,1
-68.0,-16.0,230.0,-38.0,47.0,13.0,1
-67.0,-17.0,229.0,-35.0,48.0,15.0,1
-65.0,-14.0,229.0,-33.0,51.0,14.0,1
-63.0,-12.0,230.0,-30.0,53.0,13.0,1
-63.0,-17.0,233.0,-28.0,55.0,10.0,1
-60.0,-12.0,234.0,-25.0,58.0,8.0,1
-63.0,-10.0,236.0,-25.0,62.0,5.0,1
-60.0,-12.0,231.0,-23.0,65.0,2.0,1
-62.0,-13.0,233.0,-22.0,70.0,0.0,1
-61.0,-13.0,230.0,-19.0,73.0,-3.0,1
-60.0,-17.0,230.0,-18.0,75.0,-6.0,1
-62.0,-12.0,229.0,-17.0,74.0,-7.0,1
-64.0,-9.0,231.0,-14.0,73.0,-11.0,1
-61.0,-15.0,231.0,-14.0,72.0,-12.0,1
-62.0,-13.0,231.0,-12.0,71.0,-11.0,1
-62.0,-13.0,233.0,-15.0,69.0,-13.0,1
-66.0,-18.0,227.0,-20.0,59.0,2.0,1
-67.0,-15.0,224.0,-22.0,61.0,-7.0,1
-67.0,-15.0,226.0,-28.0,62.0,-8.0,1
-66.0,-15.0,229.0,-34.0,62.0,-8.0,1
-63.0,-18.0,229.0,-43.0,58.0,-7.0,1
-66.0,-16.0,230.0,-44.0,56.0,-4.0,1
-63.0,-18.0,233.0,-44.0,54.0,0.0,1
-65.0,-17.0,233.0,-40.0,50.0,1.0,1
-65.0,-15.0,231.0,-37.0,49.0,6.0,1
-68.0,-18.0,232.0,-33.0,48.0,7.0,1
-65.0,-19.0,229.0,-27.0,45.0,12.0,1
-66.0,-19.0,232.0,-23.0,44.0,12.0,1
-65.0,-16.0,233.0,-15.0,40.0,18.0,1
-64.0,-16.0,232.0,-8.0,35.0,19.0,1
-62.0,-17.0,232.0,-3.0,32.0,23.0,1
-62.0,-15.0,230.0,-2.0,32.0,22.0,1
-60.0,-15.0,232.0,-3.0,33.0,24.0,1
-61.0,-15.0,237.0,-7.0,34.0,21.0,1
-62.0,-13.0,234.0,-11.0,35.0,21.0,1
-62.0,-15.0,232.0,-16.0,36.0,16.0,1
-63.0,-14.0,232.0,-20.0,38.0,15.0,1
-64.0,-14.0,234.0,-26.0,39.0,11.0,1
-63.0,-10.0,235.0,-31.0,40.0,11.0,1
-64.0,-10.0,233.0,-34.0,40.0,8.0,1
-60.0,-12.0,231.0,-39.0,40.0,11.0,1
-63.0,-16.0,228.0,-44.0,40.0,14.0,1
-66.0,-11.0,226.0,-45.0,43.0,11.0,1
-63.0,-11.0,230.0,-46.0,47.0,7.0,1
-62.0,-15.0,231.0,-47.0,50.0,8.0,1
-62.0,-15.0,232.0,-50.0,51.0,7.0,1
-61.0,-13.0,230.0,-49.0,52.0,10.0,1
-61.0,-12.0,231.0,-47.0,49.0,8.0,1
-61.0,-15.0,229.0,-44.0,49.0,11.0,1
-64.0,-15.0,231.0,-42.0,51.0,9.0,1
-64.0,-15.0,232.0,-40.0,52.0,8.0,1
-59.0,-18.0,234.0,-38.0,53.0,5.0,1
-61.0,-11.0,234.0,-37.0,54.0,5.0,1
-61.0,-16.0,235.0,-36.0,54.0,1.0,1
-63.0,-16.0,234.0,-32.0,55.0,3.0,1
-60.0,-15.0,232.0,-31.0,55.0,-1.0,1
-60.0,-15.0,235.0,-27.0,56.0,1.0,1
-60.0,-15.0,231.0,-25.0,57.0,-2.0,1
-60.0,-15.0,231.0,-20.0,57.0,0.0,1
-60.0,-17.0,230.0,-19.0,55.0,-3.0,1
-61.0,-18.0,229.0,-18.0,51.0,0.0,1
-64.0,-16.0,228.0,-19.0,50.0,-2.0,1
-62.0,-16.0,228.0,-17.0,48.0,1.0,1
-61.0,-19.0,227.0,-19.0,48.0,1.0,1
-65.0,-13.0,228.0,-21.0,49.0,4.0,1
-64.0,-15.0,226.0,-25.0,48.0,5.0,1
-63.0,-17.0,229.0,-26.0,47.0,8.0,1
-62.0,-14.0,229.0,-28.0,46.0,7.0,1
-63.0,-14.0,234.0,-31.0,44.0,11.0,1
-65.0,-15.0,231.0,-31.0,42.0,10.0,1
-63.0,-14.0,232.0,-35.0,40.0,13.0,1
-63.0,-17.0,233.0,-36.0,39.0,13.0,1
-64.0,-15.0,235.0,-38.0,39.0,14.0,1
-63.0,-15.0,233.0,-41.0,39.0,13.0,1
-65.0,-15.0,233.0,-43.0,40.0,13.0,1
-62.0,-14.0,233.0,-44.0,40.0,12.0,1
-65.0,-13.0,233.0,-43.0,39.0,11.0,1
-60.0,-15.0,234.0,-41.0,37.0,8.0,1
-61.0,-12.0,233.0,-40.0,38.0,6.0,1
-61.0,-16.0,233.0,-36.0,36.0,4.0,1
-62.0,-18.0,234.0,-33.0,36.0,4.0,1
-63.0,-17.0,233.0,-31.0,36.0,0.0,1
-61.0,-18.0,236.0,-27.0,40.0,-1.0,1
-62.0,-15.0,232.0,-25.0,40.0,-4.0,1
-57.0,-15.0,230.0,-24.0,40.0,-5.0,1
-59.0,-21.0,230.0,-24.0,41.0,-7.0,1
-61.0,-17.0,230.0,-24.0,39.0,-8.0,1
-63.0,-16.0,231.0,-25.0,38.0,-8.0,1
-61.0,-18.0,227.0,-24.0,37.0,-9.0,1
-58.0,-17.0,229.0,-24.0,35.0,-9.0,1
-60.0,-16.0,229.0,-24.0,35.0,-7.0,1
-60.0,-19.0,229.0,-24.0,35.0,-8.0,1
-60.0,-17.0,233.0,-24.0,36.0,-7.0,1
-59.0,-20.0,229.0,-24.0,38.0,-8.0,1
-60.0,-17.0,231.0,-24.0,40.0,-6.0,1
-60.0,-16.0,232.0,-24.0,41.0,-4.0,1
-63.0,-14.0,227.0,-24.0,43.0,-3.0,1
-61.0,-16.0,230.0,-26.0,42.0,-1.0,1
-59.0,-18.0,229.0,-25.0,42.0,-3.0,1
-60.0,-15.0,233.0,-25.0,41.0,0.0,1
-61.0,-17.0,234.0,-25.0,42.0,0.0,1
-66.0,-17.0,230.0,-23.0,41.0,1.0,1
-65.0,-14.0,233.0,-22.0,39.0,1.0,1
-63.0,-13.0,234.0,-23.0,40.0,1.0,1
-62.0,-17.0,234.0,-21.0,40.0,0.0,1
-62.0,-18.0,235.0,-20.0,40.0,1.0,1
-63.0,-17.0,232.0,-20.0,40.0,0.0,1
-63.0,-15.0,232.0,-21.0,38.0,2.0,1
-60.0,-16.0,232.0,-23.0,38.0,2.0,1
-63.0,-14.0,234.0,-25.0,38.0,3.0,1
-65.0,-13.0,228.0,-27.0,37.0,3.0,1
-62.0,-14.0,229.0,-30.0,38.0,5.0,1
-62.0,-16.0,234.0,-34.0,39.0,4.0,1
-62.0,-16.0,229.0,-35.0,39.0,8.0,1
-62.0,-17.0,236.0,-36.0,38.0,8.0,1
-64.0,-16.0,234.0,-39.0,38.0,10.0,1
-61.0,-19.0,235.0,-39.0,37.0,7.0,1
-61.0,-18.0,235.0,-37.0,38.0,9.0,1
-60.0,-19.0,231.0,-34.0,38.0,6.0,1
-61.0,-19.0,232.0,-30.0,39.0,8.0,1
-59.0,-20.0,235.0,-24.0,39.0,6.0,1
-61.0,-18.0,233.0,-20.0,39.0,8.0,1
-58.0,-20.0,237.0,-17.0,40.0,5.0,1
-58.0,-19.0,233.0,-13.0,42.0,8.0,1
-55.0,-17.0,232.0,-9.0,43.0,5.0,1
-56.0,-17.0,231.0,-8.0,44.0,7.0,1
-55.0,-20.0,233.0,-8.0,44.0,4.0,1
-60.0,-14.0,232.0,-6.0,45.0,5.0,1
-56.0,-18.0,231.0,-4.0,46.0,4.0,1
-60.0,-14.0,233.0,-8.0,47.0,5.0,1
-57.0,-15.0,232.0,-12.0,46.0,2.0,1
-58.0,-16.0,232.0,-15.0,46.0,3.0,1
-61.0,-13.0,230.0,-20.0,48.0,1.0,1
-58.0,-16.0,230.0,-21.0,50.0,0.0,1
-60.0,-16.0,232.0,-21.0,52.0,-1.0,1
-58.0,-18.0,234.0,-23.0,54.0,1.0,1
-62.0,-16.0,230.0,-24.0,54.0,-3.0,1
-60.0,-14.0,234.0,-24.0,55.0,-1.0,1
-61.0,-16.0,230.0,-23.0,56.0,-4.0,1
-60.0,-17.0,234.0,-21.0,57.0,-3.0,1
-57.0,-16.0,233.0,-19.0,58.0,-5.0,1
-60.0,-15.0,233.0,-18.0,58.0,-4.0,1
-60.0,-17.0,233.0,-19.0,59.0,-7.0,1
-60.0,-18.0,234.0,-19.0,57.0,-5.0,1
-60.0,-18.0,232.0,-19.0,59.0,-7.0,1
-60.0,-17.0,232.0,-18.0,59.0,-5.0,1
-60.0,-16.0,230.0,-17.0,57.0,-7.0,1
-60.0,-17.0,232.0,-17.0,56.0,-4.0,1
-59.0,-16.0,231.0,-17.0,57.0,-6.0,1
-63.0,-13.0,230.0,-15.0,57.0,-4.0,1
-60.0,-17.0,231.0,-16.0,57.0,-5.0,1
-63.0,-13.0,229.0,-17.0,57.0,-3.0,1
-63.0,-14.0,232.0,-19.0,58.0,-6.0,1
-62.0,-14.0,234.0,-20.0,58.0,-4.0,1
-62.0,-14.0,233.0,-20.0,58.0,-6.0,1
-62.0,-15.0,232.0,-21.0,59.0,-4.0,1
-60.0,-13.0,235.0,-21.0,59.0,-6.0,1
-58.0,-16.0,233.0,-22.0,59.0,-5.0,1
-60.0,-17.0,230.0,-22.0,57.0,-9.0,1
-59.0,-16.0,230.0,-23.0,58.0,-7.0,1
-59.0,-15.0,225.0,-27.0,60.0,-13.0,1
-59.0,-15.0,235.0,-30.0,61.0,-12.0,1
-62.0,-15.0,227.0,-31.0,61.0,-15.0,1
-61.0,-14.0,233.0,-34.0,62.0,-14.0,1
-58.0,-16.0,231.0,-36.0,62.0,-17.0,1
-61.0,-19.0,232.0,-36.0,62.0,-14.0,1
-60.0,-17.0,234.0,-34.0,63.0,-14.0,1
-61.0,-20.0,230.0,-28.0,62.0,-11.0,1
-59.0,-19.0,233.0,-22.0,63.0,-9.0,1
-60.0,-19.0,230.0,-16.0,62.0,-7.0,1
-58.0,-19.0,231.0,-13.0,62.0,-8.0,1
-61.0,-20.0,233.0,-14.0,60.0,-5.0,1
-60.0,-23.0,230.0,-13.0,59.0,-5.0,1
-61.0,-19.0,233.0,-13.0,59.0,-3.0,1
-62.0,-20.0,228.0,-11.0,59.0,-4.0,1
-61.0,-20.0,231.0,-11.0,60.0,-1.0,1
-62.0,-17.0,228.0,-11.0,61.0,1.0,1
-61.0,-14.0,228.0,-13.0,59.0,1.0,1
-63.0,-16.0,229.0,-12.0,58.0,2.0,1
-64.0,-16.0,232.0,-14.0,57.0,5.0,1
-64.0,-14.0,230.0,-16.0,58.0,5.0,1
-64.0,-13.0,229.0,-18.0,58.0,5.0,1
-61.0,-16.0,233.0,-19.0,57.0,5.0,1
-60.0,-14.0,235.0,-20.0,57.0,5.0,1
-62.0,-16.0,234.0,-23.0,58.0,5.0,1
-58.0,-15.0,228.0,-25.0,57.0,4.0,1
-62.0,-14.0,233.0,-25.0,55.0,3.0,1
-59.0,-13.0,232.0,-27.0,56.0,1.0,1
-60.0,-13.0,231.0,-27.0,56.0,3.0,1
-62.0,-16.0,233.0,-27.0,56.0,2.0,1
-61.0,-15.0,231.0,-29.0,55.0,2.0,1
-60.0,-18.0,231.0,-32.0,55.0,1.0,1
-59.0,-14.0,230.0,-31.0,56.0,1.0,1
-61.0,-17.0,232.0,-30.0,56.0,-1.0,1
-59.0,-13.0,232.0,-31.0,58.0,-1.0,1
-57.0,-18.0,230.0,-32.0,58.0,-4.0,1
-58.0,-16.0,234.0,-33.0,59.0,-5.0,1
-62.0,-17.0,230.0,-33.0,58.0,-8.0,1
-58.0,-16.0,234.0,-33.0,56.0,-9.0,1
-62.0,-18.0,229.0,-32.0,57.0,-10.0,1
-60.0,-15.0,234.0,-30.0,55.0,-10.0,1
-61.0,-18.0,231.0,-28.0,54.0,-13.0,1
-60.0,-17.0,231.0,-28.0,53.0,-10.0,1
-60.0,-16.0,230.0,-29.0,53.0,-10.0,1
-58.0,-20.0,228.0,-28.0,56.0,-8.0,1
-58.0,-20.0,233.0,-27.0,57.0,-7.0,1
-60.0,-16.0,229.0,-28.0,56.0,-4.0,1
-60.0,-17.0,228.0,-25.0,54.0,-6.0,1
-58.0,-17.0,228.0,-23.0,53.0,-2.0,1
-59.0,-18.0,232.0,-23.0,52.0,-4.0,1
-63.0,-16.0,230.0,-24.0,54.0,-1.0,1
-61.0,-16.0,233.0,-25.0,55.0,-3.0,1
-60.0,-16.0,230.0,-28.0,54.0,-1.0,1
-60.0,-12.0,229.0,-28.0,54.0,-4.0,1
-57.0,-18.0,232.0,-33.0,55.0,0.0,1
-60.0,-17.0,233.0,-36.0,58.0,-4.0,1
-60.0,-16.0,231.0,-40.0,60.0,-2.0,1
-58.0,-18.0,235.0,-42.0,58.0,-5.0,1
-56.0,-21.0,230.0,-44.0,59.0,-2.0,1
-56.0,-17.0,234.0,-45.0,60.0,-5.0,1
-58.0,-17.0,230.0,-42.0,60.0,-4.0,1
-60.0,-19.0,230.0,-42.0,58.0,-6.0,1
-59.0,-21.0,228.0,-42.0,58.0,-5.0,1
-61.0,-21.0,233.0,-43.0,57.0,-6.0,1
-65.0,-22.0,230.0,-44.0,56.0,-5.0,1
-63.0,-22.0,231.0,-43.0,55.0,-8.0,1
-60.0,-22.0,234.0,-40.0,56.0,-6.0,1
-62.0,-22.0,231.0,-36.0,53.0,-8.0,1
-58.0,-25.0,232.0,-33.0,55.0,-7.0,1
-60.0,-22.0,232.0,-30.0,56.0,-9.0,1
-63.0,-23.0,233.0,-25.0,57.0,-6.0,1
-60.0,-19.0,233.0,-22.0,58.0,-7.0,1
-61.0,-19.0,229.0,-21.0,56.0,-5.0,1
-60.0,-22.0,227.0,-19.0,56.0,-7.0,1
-58.0,-21.0,233.0,-17.0,53.0,-4.0,1
-60.0,-19.0,231.0,-15.0,51.0,-5.0,1
-61.0,-18.0,233.0,-14.0,49.0,-3.0,1
-60.0,-19.0,232.0,-14.0,50.0,-5.0,1
-62.0,-18.0,231.0,-15.0,50.0,-2.0,1
-62.0,-18.0,233.0,-20.0,52.0,-5.0,1
-59.0,-18.0,231.0,-21.0,53.0,-3.0,1
-60.0,-18.0,230.0,-23.0,55.0,-3.0,1
-56.0,-17.0,235.0,-23.0,56.0,-2.0,1
-61.0,-21.0,228.0,-24.0,58.0,-2.0,1
-60.0,-19.0,230.0,-26.0,60.0,0.0,1
-62.0,-19.0,230.0,-26.0,59.0,-4.0,1
-59.0,-17.0,230.0,-26.0,60.0,-2.0,1
-58.0,-22.0,230.0,-27.0,59.0,-3.0,1
-60.0,-19.0,233.0,-28.0,59.0,0.0,1
-60.0,-17.0,228.0,-26.0,59.0,-3.0,1
-57.0,-18.0,230.0,-26.0,58.0,-2.0,1
-60.0,-17.0,227.0,-25.0,59.0,-4.0,1
-59.0,-20.0,231.0,-25.0,59.0,-2.0,1
-59.0,-20.0,233.0,-23.0,59.0,-5.0,1
-61.0,-20.0,226.0,-22.0,58.0,-4.0,1
-62.0,-19.0,229.0,-21.0,57.0,-3.0,1
-60.0,-21.0,232.0,-19.0,55.0,-1.0,1
-59.0,-17.0,232.0,-18.0,56.0,-2.0,1
-60.0,-17.0,232.0,-17.0,53.0,-1.0,1
-59.0,-19.0,232.0,-15.0,55.0,-1.0,1
-57.0,-19.0,233.0,-15.0,56.0,1.0,1
-61.0,-21.0,229.0,-16.0,56.0,-1.0,1
-63.0,-18.0,233.0,-16.0,55.0,-1.0,1
-62.0,-19.0,233.0,-16.0,54.0,-2.0,1
-63.0,-18.0,231.0,-16.0,53.0,-1.0,1
-61.0,-18.0,231.0,-17.0,56.0,0.0,1
-61.0,-17.0,231.0,-15.0,57.0,-1.0,1
-59.0,-19.0,230.0,-17.0,59.0,1.0,1
-60.0,-19.0,234.0,-18.0,59.0,0.0,1
-59.0,-19.0,230.0,-20.0,61.0,0.0,1
-58.0,-17.0,231.0,-21.0,61.0,-1.0,1
-59.0,-20.0,229.0,-20.0,61.0,0.0,1
-58.0,-19.0,228.0,-20.0,59.0,0.0,1
-57.0,-21.0,230.0,-18.0,59.0,0.0,1
-61.0,-19.0,231.0,-17.0,58.0,1.0,1
-60.0,-17.0,232.0,-15.0,59.0,1.0,1
-59.0,-21.0,235.0,-13.0,59.0,1.0,1
-60.0,-20.0,229.0,-12.0,58.0,2.0,1
-59.0,-19.0,229.0,-9.0,57.0,2.0,1
-60.0,-22.0,231.0,-9.0,56.0,2.0,1
-60.0,-21.0,233.0,-10.0,56.0,1.0,1
-60.0,-18.0,230.0,-10.0,54.0,1.0,1
-63.0,-19.0,230.0,-11.0,55.0,-1.0,1
-62.0,-20.0,229.0,-12.0,54.0,-1.0,1
-61.0,-20.0,230.0,-12.0,55.0,-3.0,1
-57.0,-21.0,231.0,-14.0,56.0,-1.0,1
-62.0,-20.0,233.0,-14.0,59.0,-3.0,1
-59.0,-23.0,233.0,-9.0,60.0,-2.0,1
-59.0,-25.0,233.0,-3.0,61.0,-3.0,1
-60.0,-21.0,232.0,1.0,62.0,-1.0,1
-58.0,-21.0,232.0,6.0,62.0,-1.0,1
-58.0,-19.0,230.0,8.0,61.0,1.0,1
-60.0,-21.0,229.0,11.0,60.0,-2.0,1
-55.0,-22.0,232.0,12.0,61.0,1.0,1
-56.0,-18.0,228.0,13.0,60.0,0.0,1
-60.0,-21.0,228.0,14.0,61.0,2.0,1
-57.0,-19.0,228.0,16.0,60.0,1.0,1
-58.0,-22.0,229.0,16.0,59.0,4.0,1
-62.0,-18.0,230.0,17.0,61.0,3.0,1
-57.0,-21.0,232.0,16.0,62.0,5.0,1
-61.0,-20.0,230.0,16.0,62.0,3.0,1
-62.0,-18.0,232.0,17.0,64.0,7.0,1
-62.0,-18.0,233.0,16.0,66.0,5.0,1
-60.0,-17.0,234.0,14.0,66.0,7.0,1
-60.0,-19.0,234.0,13.0,66.0,6.0,1
-64.0,-15.0,232.0,11.0,66.0,9.0,1
-59.0,-18.0,234.0,8.0,67.0,6.0,1
-60.0,-15.0,231.0,7.0,66.0,9.0,1
-60.0,-17.0,230.0,3.0,66.0,4.0,1
-61.0,-17.0,233.0,-1.0,64.0,5.0,1
-62.0,-16.0,232.0,-5.0,65.0,1.0,1
-67.0,-15.0,239.0,-7.0,63.0,3.0,1
-75.0,-11.0,228.0,-6.0,62.0,0.0,1
-58.0,-25.0,233.0,-6.0,62.0,0.0,1
-70.0,-19.0,237.0,-6.0,62.0,-3.0,1
-60.0,-17.0,226.0,-5.0,61.0,0.0,1
-63.0,-17.0,222.0,-5.0,61.0,-3.0,1
-63.0,-20.0,229.0,-6.0,60.0,-2.0,1
-55.0,-16.0,218.0,-4.0,58.0,-5.0,1
-64.0,-22.0,229.0,-3.0,58.0,-3.0,1
-61.0,-29.0,236.0,-3.0,57.0,-6.0,1
-61.0,-21.0,229.0,-3.0,58.0,-4.0,1
-63.0,-18.0,231.0,-3.0,59.0,-6.0,1
-62.0,-19.0,234.0,-3.0,60.0,-3.0,1
-60.0,-17.0,229.0,-3.0,59.0,-4.0,1
-61.0,-16.0,228.0,-4.0,59.0,-2.0,1
-58.0,-20.0,230.0,-5.0,58.0,-3.0,1
-62.0,-19.0,234.0,-5.0,58.0,0.0,1
-58.0,-22.0,231.0,-5.0,59.0,-2.0,1
-60.0,-18.0,232.0,-5.0,58.0,2.0,1
-61.0,-19.0,233.0,-5.0,57.0,0.0,1
-62.0,-21.0,234.0,-5.0,59.0,2.0,1
-63.0,-17.0,230.0,-7.0,58.0,0.0,1
-60.0,-17.0,234.0,-9.0,57.0,1.0,1
-58.0,-22.0,234.0,-11.0,58.0,-1.0,1
-60.0,-17.0,236.0,-12.0,58.0,-1.0,1
-62.0,-18.0,232.0,-9.0,60.0,0.0,1
-61.0,-16.0,236.0,-7.0,63.0,0.0,1
-56.0,-18.0,233.0,-5.0,60.0,-2.0,1
-60.0,-20.0,232.0,-3.0,64.0,0.0,1
-58.0,-18.0,236.0,-1.0,64.0,-1.0,1
-56.0,-17.0,234.0,1.0,63.0,0.0,1
-58.0,-19.0,236.0,2.0,65.0,-1.0,1
-57.0,-18.0,234.0,3.0,65.0,-2.0,1
-60.0,-18.0,228.0,4.0,65.0,-2.0,1
-53.0,-15.0,236.0,5.0,62.0,-2.0,1
-61.0,-23.0,225.0,3.0,51.0,15.0,1
-60.0,-20.0,230.0,6.0,52.0,5.0,1
-62.0,-16.0,231.0,3.0,56.0,0.0,1
-60.0,-18.0,231.0,0.0,61.0,-1.0,1
-62.0,-19.0,233.0,-5.0,59.0,-1.0,1
-60.0,-19.0,230.0,-6.0,59.0,-1.0,1
-59.0,-21.0,233.0,-7.0,61.0,-1.0,1
-60.0,-17.0,232.0,-9.0,61.0,0.0,1
-58.0,-20.0,229.0,-10.0,60.0,1.0,1
-60.0,-18.0,232.0,-12.0,61.0,1.0,1
-58.0,-19.0,231.0,-12.0,61.0,2.0,1
-61.0,-15.0,232.0,-11.0,61.0,1.0,1
-59.0,-18.0,233.0,-13.0,61.0,1.0,1
-61.0,-17.0,236.0,-13.0,60.0,1.0,1
-63.0,-13.0,231.0,-14.0,60.0,2.0,1
-58.0,-17.0,230.0,-16.0,60.0,1.0,1
-60.0,-14.0,232.0,-17.0,59.0,1.0,1
-59.0,-15.0,233.0,-16.0,60.0,1.0,1
-58.0,-18.0,232.0,-16.0,59.0,1.0,1
-61.0,-16.0,235.0,-14.0,59.0,-2.0,1
-60.0,-20.0,232.0,-14.0,59.0,-1.0,1
-59.0,-16.0,229.0,-13.0,58.0,-3.0,1
-59.0,-16.0,231.0,-12.0,58.0,-2.0,1
-60.0,-17.0,235.0,-12.0,58.0,-5.0,1
-60.0,-17.0,234.0,-12.0,57.0,-4.0,1
-59.0,-15.0,229.0,-10.0,58.0,-6.0,1
-58.0,-18.0,235.0,-10.0,59.0,-4.0,1
-60.0,-18.0,230.0,-11.0,60.0,-5.0,1
-61.0,-18.0,233.0,-14.0,61.0,-3.0,1
-62.0,-15.0,232.0,-15.0,62.0,-5.0,1
-59.0,-16.0,234.0,-17.0,61.0,-2.0,1
-59.0,-18.0,231.0,-17.0,62.0,-4.0,1
-60.0,-16.0,230.0,-17.0,60.0,-1.0,1
-61.0,-18.0,235.0,-18.0,60.0,-2.0,1
-61.0,-18.0,231.0,-16.0,58.0,1.0,1
-60.0,-19.0,234.0,-17.0,59.0,-1.0,1
-59.0,-16.0,230.0,-17.0,58.0,0.0,1
-59.0,-19.0,232.0,-16.0,61.0,-1.0,1
-57.0,-16.0,232.0,-14.0,64.0,3.0,1
-58.0,-15.0,232.0,-14.0,66.0,2.0,1
-59.0,-20.0,232.0,-14.0,66.0,4.0,1
-57.0,-17.0,233.0,-14.0,65.0,2.0,1
-60.0,-19.0,234.0,-13.0,63.0,6.0,1
-61.0,-16.0,231.0,-10.0,63.0,3.0,1
-63.0,-16.0,236.0,-10.0,62.0,4.0,1
-62.0,-16.0,234.0,-11.0,63.0,-1.0,1
-63.0,-16.0,231.0,-14.0,63.0,2.0,1
-61.0,-20.0,234.0,-19.0,63.0,-1.0,1
-61.0,-20.0,228.0,-23.0,66.0,-1.0,1
-60.0,-15.0,233.0,-23.0,69.0,-4.0,1
-63.0,-16.0,231.0,-24.0,67.0,-1.0,1
-59.0,-18.0,230.0,-22.0,65.0,-4.0,1
-59.0,-16.0,232.0,-23.0,64.0,-2.0,1
-61.0,-16.0,233.0,-24.0,64.0,-4.0,1
-60.0,-17.0,233.0,-25.0,65.0,-3.0,1
-59.0,-17.0,231.0,-26.0,66.0,-5.0,1
-58.0,-15.0,234.0,-27.0,67.0,-2.0,1
-63.0,-15.0,231.0,-29.0,66.0,-3.0,1
-63.0,-15.0,232.0,-30.0,63.0,-1.0,1
-65.0,-18.0,233.0,-34.0,61.0,-4.0,1
-63.0,-16.0,233.0,-35.0,59.0,-2.0,1
-64.0,-17.0,231.0,-36.0,59.0,-6.0,1
-62.0,-19.0,232.0,-37.0,58.0,-5.0,1
-62.0,-15.0,234.0,-40.0,58.0,-9.0,1
-59.0,-17.0,236.0,-44.0,60.0,-9.0,1
-62.0,-20.0,231.0,-45.0,59.0,-13.0,1
-62.0,-21.0,234.0,-44.0,58.0,-13.0,1
-60.0,-22.0,232.0,-40.0,57.0,-15.0,1
-60.0,-24.0,230.0,-35.0,58.0,-13.0,1
-60.0,-25.0,234.0,-28.0,59.0,-14.0,1
-60.0,-23.0,230.0,-19.0,60.0,-12.0,1
-60.0,-26.0,235.0,-14.0,62.0,-12.0,1
-58.0,-25.0,234.0,-11.0,60.0,-9.0,1
-59.0,-24.0,231.0,-10.0,61.0,-9.0,1
-62.0,-20.0,229.0,-11.0,61.0,-8.0,1
-58.0,-23.0,229.0,-8.0,60.0,-7.0,1
-55.0,-22.0,227.0,-8.0,58.0,-4.0,1
-60.0,-20.0,228.0,-7.0,58.0,-5.0,1
-58.0,-21.0,227.0,-7.0,54.0,-3.0,1
-60.0,-22.0,229.0,-4.0,54.0,-2.0,1
-63.0,-17.0,228.0,-2.0,54.0,1.0,1
-61.0,-19.0,229.0,-1.0,55.0,0.0,1
-63.0,-15.0,229.0,0.0,55.0,1.0,1
-62.0,-16.0,229.0,3.0,56.0,1.0,1
-60.0,-18.0,230.0,5.0,57.0,2.0,1
-62.0,-15.0,231.0,4.0,58.0,2.0,1
-60.0,-17.0,234.0,5.0,59.0,0.0,1
-60.0,-17.0,229.0,4.0,60.0,1.0,1
-65.0,-17.0,229.0,4.0,59.0,1.0,1
-62.0,-16.0,230.0,4.0,59.0,-1.0,1
-61.0,-17.0,231.0,2.0,59.0,-1.0,1
-62.0,-15.0,231.0,1.0,60.0,0.0,1
-61.0,-17.0,230.0,0.0,58.0,0.0,1
-64.0,-17.0,236.0,0.0,59.0,1.0,1
-63.0,-16.0,233.0,-2.0,59.0,1.0,1
-59.0,-17.0,233.0,-4.0,59.0,1.0,1
-61.0,-17.0,234.0,-6.0,59.0,1.0,1
-61.0,-21.0,237.0,-9.0,58.0,2.0,1
-57.0,-16.0,230.0,-14.0,58.0,-1.0,1
-59.0,-19.0,233.0,-17.0,59.0,-1.0,1
-60.0,-20.0,232.0,-20.0,61.0,-1.0,1
-60.0,-17.0,232.0,-23.0,60.0,-1.0,1
-61.0,-18.0,232.0,-23.0,60.0,-1.0,1
-58.0,-18.0,232.0,-24.0,58.0,-1.0,1
-62.0,-17.0,231.0,-23.0,56.0,-3.0,1
-60.0,-16.0,233.0,-23.0,55.0,-1.0,1
-60.0,-19.0,229.0,-22.0,54.0,-3.0,1
-61.0,-16.0,233.0,-23.0,55.0,-1.0,1
-63.0,-17.0,231.0,-24.0,54.0,-3.0,1
-61.0,-19.0,231.0,-24.0,54.0,-2.0,1
-61.0,-16.0,229.0,-25.0,54.0,-5.0,1
-60.0,-18.0,230.0,-25.0,55.0,-5.0,1
-61.0,-18.0,235.0,-25.0,55.0,-6.0,1
-63.0,-15.0,232.0,-26.0,54.0,-4.0,1
-61.0,-14.0,233.0,-25.0,53.0,-6.0,1
-59.0,-19.0,231.0,-24.0,52.0,-4.0,1
-61.0,-15.0,235.0,-25.0,51.0,-7.0,1
-61.0,-17.0,232.0,-27.0,52.0,-5.0,1
-60.0,-18.0,235.0,-29.0,51.0,-6.0,1
-61.0,-19.0,225.0,-30.0,52.0,-6.0,1
-58.0,-19.0,231.0,-30.0,51.0,-7.0,1
-60.0,-15.0,235.0,-32.0,52.0,-5.0,1
-55.0,-18.0,235.0,-32.0,52.0,-7.0,1
-58.0,-19.0,233.0,-32.0,52.0,-5.0,1
-58.0,-20.0,232.0,-33.0,52.0,-8.0,1
-58.0,-17.0,231.0,-35.0,53.0,-6.0,1
-60.0,-18.0,232.0,-36.0,52.0,-9.0,1
-58.0,-21.0,231.0,-35.0,50.0,-6.0,1
-60.0,-19.0,231.0,-35.0,51.0,-9.0,1
-61.0,-19.0,234.0,-35.0,53.0,-7.0,1
-59.0,-21.0,232.0,-33.0,54.0,-11.0,1
-59.0,-17.0,233.0,-33.0,54.0,-6.0,1
-57.0,-20.0,230.0,-34.0,53.0,-8.0,1
-59.0,-22.0,233.0,-34.0,53.0,-6.0,1
-61.0,-21.0,235.0,-33.0,54.0,-9.0,1
-60.0,-19.0,231.0,-32.0,54.0,-6.0,1
-58.0,-21.0,231.0,-31.0,54.0,-8.0,1
-61.0,-18.0,233.0,-30.0,57.0,-5.0,1
-60.0,-17.0,232.0,-31.0,57.0,-6.0,1
-60.0,-17.0,233.0,-33.0,56.0,-4.0,1
-61.0,-18.0,232.0,-35.0,55.0,-6.0,1
-61.0,-17.0,230.0,-36.0,54.0,-4.0,1
-59.0,-17.0,234.0,-36.0,55.0,-6.0,1
-60.0,-21.0,227.0,-38.0,58.0,-3.0,1
-60.0,-20.0,234.0,-40.0,58.0,-4.0,1
-59.0,-17.0,228.0,-40.0,58.0,-1.0,1
-59.0,-17.0,233.0,-42.0,58.0,-3.0,1
-57.0,-20.0,233.0,-40.0,56.0,-2.0,1
-61.0,-17.0,232.0,-42.0,56.0,-6.0,1
-60.0,-20.0,231.0,-43.0,54.0,-3.0,1
-60.0,-16.0,234.0,-45.0,54.0,-6.0,1
-57.0,-24.0,236.0,-46.0,54.0,-4.0,1
-62.0,-14.0,232.0,-48.0,53.0,-7.0,1
-59.0,-18.0,229.0,-51.0,53.0,-5.0,1
-58.0,-17.0,232.0,-54.0,52.0,-8.0,1
-57.0,-17.0,229.0,-57.0,54.0,-7.0,1
-58.0,-21.0,231.0,-57.0,54.0,-9.0,1
-57.0,-21.0,231.0,-58.0,53.0,-7.0,1
-59.0,-21.0,229.0,-56.0,54.0,-8.0,1
-61.0,-22.0,236.0,-54.0,53.0,-7.0,1
-59.0,-22.0,226.0,-53.0,55.0,-7.0,1
-62.0,-20.0,229.0,-50.0,54.0,-5.0,1
-60.0,-20.0,231.0,-46.0,53.0,-6.0,1
-59.0,-21.0,231.0,-42.0,54.0,-4.0,1
-60.0,-21.0,231.0,-36.0,57.0,-3.0,1
-58.0,-22.0,232.0,-33.0,59.0,0.0,1
-58.0,-23.0,232.0,-32.0,60.0,1.0,1
-58.0,-26.0,231.0,-31.0,57.0,2.0,1
-61.0,-21.0,233.0,-27.0,57.0,1.0,1
-58.0,-21.0,230.0,-26.0,58.0,5.0,1
-59.0,-19.0,228.0,-21.0,60.0,2.0,1
-62.0,-20.0,231.0,-20.0,61.0,2.0,1
-61.0,-22.0,229.0,-23.0,62.0,1.0,1
-60.0,-18.0,230.0,-26.0,62.0,0.0,1
-61.0,-20.0,229.0,-30.0,62.0,0.0,1
-60.0,-19.0,229.0,-34.0,64.0,-1.0,1
-60.0,-20.0,232.0,-38.0,66.0,-3.0,1
-59.0,-18.0,232.0,-41.0,66.0,-1.0,1
-60.0,-19.0,230.0,-44.0,64.0,-2.0,1
-61.0,-20.0,229.0,-45.0,64.0,-3.0,1
-56.0,-22.0,231.0,-42.0,63.0,-4.0,1
-58.0,-19.0,227.0,-37.0,63.0,-3.0,1
-58.0,-19.0,233.0,-34.0,63.0,-1.0,1
-56.0,-23.0,227.0,-29.0,61.0,0.0,1
-60.0,-21.0,229.0,-28.0,56.0,3.0,1
-62.0,-19.0,230.0,-27.0,51.0,1.0,1
-62.0,-21.0,234.0,-23.0,47.0,3.0,1
-63.0,-21.0,233.0,-19.0,48.0,2.0,1
-61.0,-21.0,227.0,-14.0,50.0,1.0,1
-63.0,-22.0,232.0,-13.0,51.0,1.0,1
-63.0,-23.0,232.0,-13.0,54.0,0.0,1
-61.0,-26.0,228.0,-13.0,55.0,-2.0,1
-61.0,-25.0,232.0,-11.0,58.0,-1.0,1
-62.0,-27.0,233.0,-4.0,62.0,-3.0,1
-60.0,-25.0,231.0,4.0,65.0,-1.0,1
-59.0,-23.0,228.0,10.0,67.0,-1.0,1
-60.0,-25.0,231.0,11.0,66.0,3.0,1
-59.0,-26.0,230.0,12.0,67.0,1.0,1
-62.0,-24.0,233.0,15.0,65.0,4.0,1
-55.0,-24.0,233.0,19.0,62.0,5.0,1
-58.0,-22.0,227.0,22.0,60.0,9.0,1
-58.0,-20.0,231.0,24.0,58.0,7.0,1
-61.0,-24.0,228.0,23.0,57.0,9.0,1
-62.0,-17.0,232.0,22.0,57.0,7.0,1
-61.0,-22.0,232.0,20.0,55.0,9.0,1
-62.0,-19.0,232.0,18.0,54.0,5.0,1
-59.0,-20.0,234.0,19.0,55.0,6.0,1
-62.0,-21.0,234.0,17.0,55.0,3.0,1
-62.0,-20.0,234.0,16.0,57.0,5.0,1
-62.0,-18.0,236.0,14.0,59.0,2.0,1
-62.0,-18.0,234.0,12.0,61.0,3.0,1
-62.0,-19.0,230.0,11.0,64.0,0.0,1
-61.0,-17.0,230.0,10.0,64.0,3.0,1
-58.0,-19.0,234.0,9.0,64.0,1.0,1
-61.0,-20.0,236.0,10.0,64.0,4.0,1
-61.0,-19.0,233.0,10.0,64.0,3.0,1
-61.0,-21.0,235.0,12.0,64.0,6.0,1
-59.0,-21.0,231.0,16.0,63.0,5.0,1
-60.0,-22.0,233.0,20.0,61.0,7.0,1
-59.0,-21.0,229.0,20.0,59.0,5.0,1
-60.0,-23.0,229.0,22.0,60.0,8.0,1
-59.0,-20.0,231.0,23.0,60.0,7.0,1
-58.0,-19.0,233.0,25.0,60.0,9.0,1
-59.0,-21.0,231.0,29.0,59.0,5.0,1
-61.0,-20.0,228.0,29.0,61.0,8.0,1
-59.0,-20.0,231.0,31.0,61.0,5.0,1
-60.0,-20.0,231.0,32.0,62.0,8.0,1
-63.0,-19.0,237.0,35.0,64.0,3.0,1
-60.0,-19.0,233.0,36.0,64.0,7.0,1
-61.0,-18.0,233.0,34.0,64.0,3.0,1
-61.0,-18.0,231.0,35.0,64.0,6.0,1
-59.0,-20.0,232.0,34.0,63.0,5.0,1
-63.0,-17.0,230.0,32.0,65.0,8.0,1
-62.0,-17.0,231.0,30.0,65.0,7.0,1
-57.0,-18.0,230.0,27.0,67.0,9.0,1
-61.0,-18.0,230.0,26.0,66.0,8.0,1
-61.0,-18.0,235.0,22.0,66.0,10.0,1
-61.0,-18.0,232.0,20.0,63.0,10.0,1
-61.0,-19.0,232.0,17.0,61.0,12.0,1
-61.0,-19.0,235.0,16.0,60.0,11.0,1
-63.0,-18.0,230.0,15.0,55.0,13.0,1
-57.0,-20.0,230.0,14.0,55.0,11.0,1
-60.0,-19.0,232.0,12.0,54.0,13.0,1
-59.0,-21.0,229.0,12.0,52.0,10.0,1
-60.0,-17.0,234.0,14.0,52.0,11.0,1
-57.0,-22.0,233.0,14.0,52.0,9.0,1
-58.0,-19.0,230.0,17.0,52.0,9.0,1
-59.0,-19.0,228.0,20.0,53.0,6.0,1
-57.0,-21.0,227.0,20.0,52.0,7.0,1
-56.0,-18.0,228.0,21.0,51.0,3.0,1
-56.0,-18.0,233.0,20.0,52.0,3.0,1
-59.0,-16.0,232.0,19.0,51.0,1.0,1
-59.0,-18.0,229.0,18.0,49.0,1.0,1
-59.0,-16.0,231.0,16.0,48.0,-1.0,1
-58.0,-18.0,231.0,14.0,51.0,-1.0,1
-57.0,-18.0,230.0,12.0,52.0,-1.0,1
-60.0,-14.0,234.0,8.0,54.0,0.0,1
-60.0,-17.0,231.0,6.0,55.0,0.0,1
-59.0,-18.0,230.0,4.0,58.0,0.0,1
-61.0,-16.0,231.0,0.0,57.0,0.0,1
-62.0,-16.0,237.0,-4.0,58.0,1.0,1
-62.0,-16.0,236.0,-10.0,59.0,-1.0,1
-62.0,-15.0,235.0,-13.0,57.0,-2.0,1
-63.0,-16.0,230.0,-17.0,55.0,-1.0,1
-60.0,-17.0,233.0,-21.0,55.0,-3.0,1
-64.0,-12.0,234.0,-25.0,54.0,-4.0,1
-61.0,-16.0,233.0,-28.0,57.0,-4.0,1
-61.0,-13.0,235.0,-32.0,59.0,-5.0,1
-60.0,-14.0,233.0,-34.0,60.0,-7.0,1
-59.0,-16.0,232.0,-37.0,60.0,-8.0,1
-60.0,-16.0,234.0,-38.0,61.0,-9.0,1
-59.0,-16.0,231.0,-38.0,60.0,-10.0,1
-63.0,-16.0,234.0,-36.0,60.0,-10.0,1
-62.0,-15.0,231.0,-34.0,58.0,-10.0,1
-63.0,-16.0,232.0,-32.0,58.0,-11.0,1
-63.0,-19.0,235.0,-28.0,59.0,-10.0,1
-62.0,-16.0,235.0,-23.0,55.0,-10.0,1
-63.0,-16.0,232.0,-23.0,57.0,-9.0,1
-62.0,-16.0,230.0,-23.0,56.0,-10.0,1
-62.0,-17.0,234.0,-22.0,57.0,-9.0,1
-60.0,-19.0,232.0,-21.0,58.0,-9.0,1
-59.0,-21.0,232.0,-19.0,57.0,-8.0,1
-62.0,-16.0,231.0,-19.0,57.0,-9.0,1
-63.0,-18.0,229.0,-20.0,57.0,-5.0,1
-65.0,-18.0,230.0,-20.0,57.0,-5.0,1
-63.0,-20.0,232.0,-20.0,55.0,-4.0,1
-60.0,-22.0,229.0,-17.0,54.0,-3.0,1
-63.0,-21.0,230.0,-13.0,54.0,0.0,1
-61.0,-21.0,232.0,-10.0,55.0,0.0,1
-61.0,-20.0,232.0,-6.0,56.0,3.0,1
-62.0,-22.0,233.0,-4.0,57.0,2.0,1
-57.0,-26.0,226.0,-5.0,58.0,5.0,1
-58.0,-21.0,233.0,-7.0,58.0,4.0,1
-58.0,-20.0,228.0,-10.0,56.0,6.0,1
-57.0,-21.0,233.0,-14.0,56.0,4.0,1
-57.0,-18.0,227.0,-18.0,54.0,5.0,1
-54.0,-19.0,234.0,-22.0,52.0,2.0,1
-58.0,-19.0,228.0,-26.0,50.0,5.0,1
-55.0,-19.0,228.0,-28.0,50.0,2.0,1
-59.0,-17.0,232.0,-30.0,49.0,3.0,1
-57.0,-22.0,231.0,-31.0,50.0,0.0,1
-55.0,-20.0,235.0,-27.0,48.0,3.0,1
-57.0,-19.0,233.0,-21.0,49.0,1.0,1
-57.0,-19.0,232.0,-15.0,49.0,5.0,1
-61.0,-16.0,233.0,-10.0,48.0,2.0,1
-57.0,-19.0,227.0,-6.0,47.0,5.0,1
-59.0,-16.0,234.0,-4.0,47.0,2.0,1
-60.0,-17.0,233.0,-2.0,47.0,3.0,1
-62.0,-19.0,231.0,-1.0,48.0,0.0,1
-59.0,-20.0,234.0,2.0,48.0,2.0,1
-59.0,-19.0,226.0,4.0,46.0,-3.0,1
-61.0,-19.0,232.0,5.0,46.0,0.0,1
-60.0,-18.0,231.0,6.0,46.0,-3.0,1
-61.0,-17.0,232.0,5.0,47.0,-3.0,1
-61.0,-19.0,234.0,4.0,48.0,-4.0,1
-62.0,-17.0,231.0,2.0,48.0,-2.0,1
-59.0,-21.0,233.0,4.0,50.0,-4.0,1
-60.0,-24.0,234.0,8.0,51.0,0.0,1
-60.0,-22.0,231.0,11.0,51.0,-2.0,1
-59.0,-17.0,231.0,15.0,52.0,1.0,1
-58.0,-18.0,234.0,17.0,54.0,0.0,1
-60.0,-18.0,232.0,19.0,56.0,2.0,1
-57.0,-15.0,233.0,19.0,58.0,1.0,1
-60.0,-16.0,231.0,19.0,57.0,5.0,1
-58.0,-17.0,232.0,18.0,58.0,2.0,1
-59.0,-12.0,231.0,19.0,56.0,4.0,1
-59.0,-14.0,229.0,18.0,58.0,1.0,1
-56.0,-12.0,235.0,18.0,59.0,2.0,1
-59.0,-13.0,229.0,18.0,59.0,-1.0,1
-59.0,-12.0,227.0,19.0,60.0,-1.0,1
-59.0,-17.0,232.0,20.0,59.0,-4.0,1
-58.0,-16.0,230.0,18.0,60.0,-4.0,1
-61.0,-15.0,234.0,18.0,60.0,-6.0,1
-59.0,-16.0,232.0,16.0,60.0,-5.0,1
-58.0,-17.0,227.0,11.0,59.0,-8.0,1
-58.0,-18.0,233.0,6.0,59.0,-7.0,1
-61.0,-18.0,231.0,2.0,56.0,-10.0,1
-61.0,-15.0,229.0,-1.0,58.0,-8.0,1
-60.0,-16.0,230.0,-3.0,57.0,-11.0,1
-65.0,-17.0,231.0,-4.0,55.0,-11.0,1
-60.0,-16.0,227.0,-4.0,56.0,-12.0,1
-61.0,-15.0,231.0,-2.0,56.0,-11.0,1
-61.0,-15.0,233.0,-3.0,57.0,-10.0,1
-60.0,-14.0,234.0,-6.0,57.0,-10.0,1
-62.0,-15.0,230.0,-8.0,55.0,-12.0,1
-61.0,-16.0,232.0,-11.0,55.0,-10.0,1
-61.0,-10.0,235.0,-13.0,56.0,-9.0,1
-60.0,-15.0,228.0,-14.0,56.0,-11.0,1
-60.0,-17.0,233.0,-14.0,54.0,-11.0,1
-63.0,-13.0,235.0,-12.0,55.0,-10.0,1
-57.0,-20.0,231.0,-11.0,55.0,-8.0,1
-60.0,-17.0,232.0,-10.0,55.0,-8.0,1
-60.0,-19.0,229.0,-10.0,55.0,-9.0,1
-59.0,-19.0,229.0,-8.0,54.0,-8.0,1
-60.0,-20.0,231.0,-6.0,54.0,-8.0,1
-61.0,-20.0,232.0,-4.0,53.0,-6.0,1
-57.0,-22.0,233.0,-5.0,53.0,-4.0,1
-62.0,-20.0,232.0,-6.0,53.0,-3.0,1
-62.0,-19.0,230.0,-8.0,52.0,-2.0,1
-61.0,-19.0,235.0,-10.0,49.0,-1.0,1
-61.0,-19.0,230.0,-15.0,50.0,1.0,1
-61.0,-14.0,232.0,-17.0,48.0,0.0,1
-66.0,-15.0,232.0,-21.0,50.0,0.0,1
-61.0,-16.0,234.0,-24.0,53.0,1.0,1
-62.0,-14.0,233.0,-28.0,53.0,2.0,1
-60.0,-16.0,230.0,-30.0,55.0,-2.0,1
-61.0,-12.0,231.0,-32.0,56.0,-1.0,1
-60.0,-11.0,234.0,-35.0,56.0,-2.0,1
-59.0,-13.0,233.0,-36.0,56.0,-1.0,1
-57.0,-15.0,234.0,-38.0,57.0,-3.0,1
-56.0,-15.0,234.0,-38.0,57.0,-2.0,1
-56.0,-17.0,235.0,-39.0,55.0,-4.0,1
-57.0,-18.0,232.0,-40.0,56.0,-2.0,1
-58.0,-16.0,230.0,-41.0,56.0,-5.0,1
-55.0,-18.0,233.0,-40.0,56.0,-4.0,1
-58.0,-19.0,233.0,-38.0,58.0,-5.0,1
-57.0,-20.0,231.0,-35.0,59.0,-4.0,1
-58.0,-22.0,232.0,-34.0,61.0,-8.0,1
-56.0,-20.0,233.0,-31.0,63.0,-6.0,1
-58.0,-21.0,232.0,-29.0,65.0,-7.0,1
-56.0,-20.0,232.0,-26.0,67.0,-6.0,1
-58.0,-20.0,235.0,-21.0,67.0,-9.0,1
-55.0,-22.0,235.0,-19.0,68.0,-6.0,1
-56.0,-21.0,233.0,-14.0,69.0,-8.0,1
-58.0,-21.0,234.0,-10.0,69.0,-4.0,1
-56.0,-17.0,233.0,-9.0,68.0,-6.0,1
-56.0,-18.0,227.0,-9.0,66.0,-3.0,1
-61.0,-16.0,231.0,-8.0,61.0,-4.0,1
-63.0,-17.0,229.0,-9.0,56.0,-1.0,1
-61.0,-15.0,229.0,-11.0,52.0,-3.0,1
-61.0,-16.0,234.0,-14.0,48.0,-1.0,1
-59.0,-14.0,233.0,-17.0,45.0,-2.0,1
-62.0,-15.0,226.0,-18.0,44.0,-1.0,1
-58.0,-19.0,225.0,-20.0,43.0,-3.0,1
-60.0,-18.0,233.0,-21.0,46.0,-1.0,1
-62.0,-17.0,229.0,-22.0,47.0,-4.0,1
-63.0,-15.0,228.0,-24.0,48.0,-1.0,1
-66.0,-18.0,229.0,-24.0,49.0,-4.0,1
-61.0,-19.0,231.0,-21.0,51.0,-1.0,1
-61.0,-20.0,231.0,-17.0,55.0,-3.0,1
-61.0,-20.0,230.0,-12.0,57.0,-3.0,1
-61.0,-21.0,235.0,-8.0,59.0,-3.0,1
-61.0,-22.0,231.0,-4.0,62.0,1.0,1
-63.0,-21.0,233.0,0.0,65.0,-3.0,1
-59.0,-22.0,230.0,3.0,65.0,-2.0,1
-60.0,-19.0,229.0,5.0,67.0,-4.0,1
-59.0,-18.0,233.0,9.0,68.0,-2.0,1
-59.0,-18.0,233.0,10.0,69.0,-4.0,1
-59.0,-16.0,234.0,12.0,69.0,-3.0,1
-60.0,-18.0,235.0,10.0,70.0,-6.0,1
-59.0,-18.0,232.0,8.0,70.0,-4.0,1
-56.0,-10.0,231.0,4.0,70.0,-8.0,1
-53.0,-20.0,246.0,-2.0,72.0,-6.0,1
-57.0,-12.0,233.0,-5.0,74.0,-9.0,1
-46.0,-15.0,233.0,-7.0,74.0,-7.0,1
-64.0,-10.0,219.0,-7.0,74.0,-9.0,1
-66.0,-18.0,233.0,-8.0,75.0,-7.0,1
-62.0,-21.0,235.0,-11.0,72.0,-7.0,1
-60.0,-10.0,237.0,-15.0,71.0,-6.0,1
-56.0,-11.0,239.0,-19.0,70.0,-5.0,1
-69.0,-20.0,236.0,-22.0,69.0,-5.0,1
-59.0,-17.0,233.0,-26.0,66.0,-7.0,1
-61.0,-16.0,231.0,-27.0,63.0,-5.0,1
-59.0,-17.0,231.0,-27.0,62.0,-6.0,1
-56.0,-18.0,233.0,-26.0,62.0,-4.0,1
-60.0,-18.0,233.0,-26.0,61.0,-4.0,1
-58.0,-15.0,233.0,-25.0,61.0,-3.0,1
-59.0,-17.0,234.0,-24.0,58.0,-2.0,1
-57.0,-16.0,234.0,-24.0,57.0,-1.0,1
-64.0,-15.0,229.0,-23.0,54.0,-2.0,1
-57.0,-16.0,230.0,-23.0,53.0,-2.0,1
-56.0,-15.0,231.0,-23.0,50.0,-4.0,1
-57.0,-14.0,231.0,-24.0,47.0,-2.0,1
-59.0,-16.0,229.0,-26.0,46.0,-3.0,1
-60.0,-13.0,234.0,-31.0,47.0,-4.0,1
-61.0,-13.0,231.0,-34.0,47.0,-5.0,1
-61.0,-17.0,232.0,-40.0,49.0,-7.0,1
-59.0,-21.0,232.0,-41.0,49.0,-7.0,1
-61.0,-18.0,233.0,-42.0,49.0,-7.0,1
-59.0,-21.0,234.0,-41.0,50.0,-8.0,1
-57.0,-21.0,231.0,-38.0,50.0,-8.0,1
-60.0,-20.0,231.0,-32.0,48.0,-7.0,1
-62.0,-18.0,229.0,-27.0,49.0,-5.0,1
-62.0,-22.0,230.0,-26.0,50.0,-5.0,1
-59.0,-19.0,232.0,-28.0,51.0,-5.0,1
-59.0,-22.0,233.0,-30.0,50.0,-4.0,1
-60.0,-23.0,230.0,-30.0,50.0,-4.0,1
-61.0,-20.0,234.0,-31.0,50.0,-3.0,1
-61.0,-21.0,231.0,-29.0,49.0,-3.0,1
-62.0,-16.0,233.0,-26.0,48.0,-2.0,1
-62.0,-20.0,230.0,-24.0,49.0,-2.0,1
-61.0,-18.0,231.0,-21.0,52.0,0.0,1
-59.0,-19.0,232.0,-17.0,53.0,0.0,1
-62.0,-16.0,234.0,-16.0,53.0,0.0,1
-60.0,-19.0,233.0,-13.0,53.0,-2.0,1
-59.0,-16.0,229.0,-14.0,53.0,-1.0,1
-58.0,-16.0,233.0,-12.0,53.0,-1.0,1
-60.0,-16.0,233.0,-12.0,53.0,2.0,1
-60.0,-16.0,233.0,-12.0,51.0,-2.0,1
-58.0,-17.0,229.0,-12.0,50.0,1.0,1
-59.0,-13.0,230.0,-14.0,51.0,-2.0,1
-58.0,-15.0,235.0,-19.0,53.0,-3.0,1
-59.0,-20.0,229.0,-25.0,55.0,-4.0,1
-59.0,-17.0,236.0,-29.0,55.0,-4.0,1
-60.0,-14.0,231.0,-32.0,55.0,-6.0,1
-57.0,-20.0,234.0,-35.0,57.0,-6.0,1
-59.0,-18.0,234.0,-35.0,56.0,-8.0,1
-60.0,-19.0,231.0,-35.0,58.0,-8.0,1
-59.0,-17.0,228.0,-36.0,58.0,-9.0,1
-58.0,-20.0,230.0,-37.0,58.0,-8.0,1
-57.0,-15.0,228.0,-37.0,59.0,-10.0,1
-57.0,-18.0,236.0,-37.0,56.0,-9.0,1
-60.0,-18.0,232.0,-36.0,55.0,-11.0,1
-57.0,-16.0,233.0,-37.0,53.0,-9.0,1
-58.0,-20.0,238.0,-39.0,52.0,-12.0,1
-59.0,-16.0,230.0,-41.0,52.0,-9.0,1
-57.0,-15.0,234.0,-44.0,52.0,-11.0,1
-57.0,-18.0,230.0,-46.0,50.0,-8.0,1
-57.0,-18.0,234.0,-50.0,49.0,-10.0,1
-59.0,-16.0,230.0,-50.0,47.0,-8.0,1
-59.0,-18.0,230.0,-49.0,47.0,-8.0,1
-58.0,-21.0,233.0,-45.0,46.0,-6.0,1
-59.0,-17.0,227.0,-42.0,46.0,-9.0,1
-60.0,-17.0,236.0,-40.0,45.0,-6.0,1
-58.0,-18.0,232.0,-39.0,46.0,-8.0,1
-60.0,-20.0,229.0,-39.0,44.0,-5.0,1
-61.0,-19.0,234.0,-39.0,44.0,-8.0,1
-63.0,-20.0,231.0,-39.0,47.0,-6.0,1
-60.0,-21.0,230.0,-36.0,48.0,-9.0,1
-63.0,-17.0,227.0,-35.0,48.0,-6.0,1
-62.0,-20.0,230.0,-32.0,47.0,-7.0,1
-64.0,-18.0,230.0,-31.0,50.0,-4.0,1
-61.0,-19.0,232.0,-29.0,50.0,-6.0,1
-62.0,-20.0,233.0,-23.0,50.0,-3.0,1
-62.0,-20.0,231.0,-20.0,51.0,-5.0,1
-60.0,-20.0,227.0,-16.0,50.0,-3.0,1
-61.0,-17.0,229.0,-15.0,52.0,-5.0,1
-63.0,-17.0,231.0,-15.0,53.0,-3.0,1
-63.0,-20.0,228.0,-16.0,54.0,-5.0,1
-60.0,-20.0,230.0,-16.0,53.0,-3.0,1
-60.0,-23.0,233.0,-15.0,55.0,-4.0,1
-60.0,-20.0,228.0,-14.0,59.0,0.0,1
-61.0,-20.0,230.0,-12.0,60.0,-1.0,1
-58.0,-22.0,225.0,-10.0,59.0,3.0,1
-57.0,-20.0,230.0,-9.0,61.0,4.0,1
-57.0,-20.0,230.0,-7.0,61.0,7.0,1
-56.0,-18.0,230.0,-4.0,62.0,7.0,1
-58.0,-19.0,232.0,-3.0,62.0,8.0,1
-57.0,-20.0,232.0,1.0,61.0,7.0,1
-55.0,-20.0,231.0,4.0,62.0,10.0,1
-54.0,-21.0,232.0,8.0,60.0,7.0,1
-57.0,-22.0,231.0,10.0,59.0,11.0,1
-58.0,-16.0,233.0,11.0,57.0,9.0,1
-58.0,-20.0,230.0,13.0,54.0,10.0,1
-57.0,-21.0,232.0,13.0,53.0,8.0,1
-58.0,-21.0,231.0,13.0,54.0,9.0,1
-58.0,-20.0,232.0,12.0,53.0,8.0,1
-57.0,-21.0,228.0,10.0,54.0,7.0,1
-59.0,-17.0,232.0,11.0,52.0,7.0,1
-59.0,-19.0,231.0,11.0,53.0,5.0,1
-57.0,-19.0,232.0,12.0,51.0,4.0,1
-59.0,-17.0,231.0,11.0,53.0,5.0,1
-62.0,-18.0,233.0,10.0,54.0,3.0,1
-57.0,-22.0,232.0,12.0,53.0,3.0,1
-60.0,-20.0,229.0,12.0,52.0,4.0,1
-61.0,-19.0,232.0,14.0,53.0,5.0,1
-59.0,-19.0,235.0,16.0,53.0,5.0,1
-56.0,-18.0,234.0,15.0,53.0,3.0,1
-59.0,-17.0,231.0,17.0,52.0,4.0,1
-60.0,-19.0,232.0,16.0,52.0,1.0,1
-59.0,-17.0,231.0,15.0,51.0,2.0,1
-61.0,-19.0,233.0,14.0,49.0,0.0,1
-61.0,-16.0,232.0,13.0,51.0,1.0,1
-60.0,-17.0,233.0,12.0,51.0,0.0,1
-61.0,-18.0,235.0,10.0,53.0,0.0,1
-59.0,-21.0,230.0,8.0,53.0,-2.0,1
-59.0,-19.0,231.0,9.0,53.0,1.0,1
-59.0,-17.0,231.0,7.0,55.0,0.0,1
-58.0,-16.0,231.0,7.0,57.0,0.0,1
-60.0,-18.0,234.0,8.0,57.0,-1.0,1
-56.0,-17.0,233.0,7.0,61.0,1.0,1
-59.0,-19.0,233.0,8.0,63.0,0.0,1
-59.0,-16.0,236.0,9.0,64.0,1.0,1
-60.0,-18.0,233.0,10.0,67.0,-1.0,1
-60.0,-16.0,233.0,9.0,66.0,1.0,1
-60.0,-16.0,234.0,10.0,66.0,-1.0,1
-58.0,-15.0,238.0,11.0,66.0,1.0,1
-60.0,-18.0,232.0,8.0,63.0,-2.0,1
-59.0,-15.0,230.0,5.0,62.0,0.0,1
-58.0,-15.0,231.0,4.0,62.0,-3.0,1
-61.0,-17.0,232.0,4.0,61.0,-3.0,1
-56.0,-17.0,231.0,2.0,59.0,-4.0,1
-56.0,-21.0,229.0,0.0,60.0,-3.0,1
-61.0,-16.0,229.0,0.0,61.0,-6.0,1
-58.0,-17.0,229.0,-2.0,64.0,-5.0,1
-57.0,-19.0,237.0,-5.0,63.0,-7.0,1
-61.0,-20.0,231.0,-6.0,61.0,-4.0,1
-60.0,-19.0,236.0,-6.0,61.0,-6.0,1
-58.0,-20.0,230.0,-5.0,61.0,-1.0,1
-57.0,-22.0,230.0,-1.0,60.0,-2.0,1
-59.0,-19.0,230.0,4.0,61.0,2.0,1
-56.0,-22.0,233.0,6.0,60.0,1.0,1
-57.0,-20.0,233.0,8.0,59.0,5.0,1
-60.0,-22.0,233.0,8.0,59.0,5.0,1
-61.0,-14.0,229.0,11.0,59.0,8.0,1
-60.0,-17.0,231.0,12.0,59.0,5.0,1
-59.0,-17.0,230.0,13.0,58.0,8.0,1
-59.0,-17.0,231.0,11.0,58.0,6.0,1
-59.0,-16.0,234.0,12.0,57.0,8.0,1
-58.0,-15.0,235.0,13.0,58.0,4.0,1
-55.0,-16.0,230.0,14.0,58.0,6.0,1
-60.0,-16.0,230.0,15.0,57.0,4.0,1
-60.0,-17.0,231.0,15.0,58.0,5.0,1
-59.0,-17.0,234.0,14.0,58.0,3.0,1
-59.0,-14.0,231.0,14.0,58.0,4.0,1
-59.0,-15.0,237.0,14.0,58.0,2.0,1
-59.0,-17.0,232.0,11.0,57.0,4.0,1
-62.0,-16.0,231.0,7.0,58.0,2.0,1
-57.0,-16.0,231.0,5.0,59.0,3.0,1
-59.0,-17.0,231.0,4.0,61.0,0.0,1
-60.0,-16.0,230.0,-1.0,62.0,1.0,1
-55.0,-19.0,235.0,-2.0,63.0,-1.0,1
-63.0,-16.0,232.0,-4.0,63.0,2.0,1
-59.0,-15.0,232.0,-5.0,61.0,-2.0,1
-57.0,-21.0,233.0,-6.0,61.0,0.0,1
-60.0,-18.0,231.0,-5.0,61.0,-3.0,1
-57.0,-16.0,232.0,-6.0,62.0,-2.0,1
-61.0,-17.0,235.0,-8.0,60.0,-4.0,1
-56.0,-18.0,230.0,-11.0,59.0,-2.0,1
-60.0,-14.0,232.0,-13.0,59.0,-6.0,1
-57.0,-18.0,231.0,-12.0,58.0,-5.0,1
-59.0,-17.0,232.0,-13.0,57.0,-7.0,1
-55.0,-19.0,232.0,-12.0,57.0,-5.0,1
-62.0,-16.0,234.0,-11.0,56.0,-8.0,1
-58.0,-18.0,234.0,-9.0,57.0,-5.0,1
-57.0,-13.0,233.0,-7.0,57.0,-6.0,1
-61.0,-14.0,234.0,-8.0,56.0,-6.0,1
-60.0,-15.0,230.0,-6.0,57.0,-6.0,1
-62.0,-16.0,232.0,-7.0,57.0,-5.0,1
-63.0,-18.0,228.0,-7.0,60.0,-6.0,1
-59.0,-15.0,230.0,-6.0,59.0,-4.0,1
-61.0,-14.0,234.0,-8.0,59.0,-5.0,1
-61.0,-16.0,232.0,-8.0,59.0,-3.0,1
-60.0,-15.0,229.0,-7.0,59.0,-4.0,1
-61.0,-15.0,232.0,-7.0,58.0,-2.0,1
-59.0,-15.0,233.0,-7.0,60.0,-3.0,1
-62.0,-16.0,233.0,-7.0,59.0,-2.0,1
-60.0,-17.0,229.0,-6.0,60.0,-2.0,1
-60.0,-16.0,233.0,-6.0,61.0,0.0,1
-61.0,-18.0,235.0,-5.0,60.0,-4.0,1
-59.0,-19.0,232.0,-4.0,58.0,-2.0,1
-59.0,-20.0,231.0,-5.0,58.0,-3.0,1
-59.0,-20.0,232.0,-3.0,59.0,-2.0,1
-58.0,-21.0,234.0,-1.0,60.0,-3.0,1
-58.0,-20.0,229.0,0.0,59.0,-3.0,1
-60.0,-19.0,235.0,0.0,59.0,-1.0,1
-60.0,-17.0,234.0,3.0,57.0,-3.0,1
-60.0,-21.0,231.0,4.0,57.0,-1.0,1
-58.0,-18.0,233.0,3.0,56.0,-1.0,1
-52.0,-11.0,235.0,3.0,53.0,5.0,1
-59.0,-21.0,230.0,6.0,47.0,12.0,1
-55.0,-20.0,236.0,7.0,52.0,5.0,1
-56.0,-17.0,231.0,6.0,56.0,1.0,1
-58.0,-15.0,232.0,2.0,57.0,0.0,1
-59.0,-17.0,234.0,-1.0,59.0,-1.0,1
-58.0,-14.0,234.0,-3.0,60.0,0.0,1
-59.0,-11.0,232.0,-5.0,60.0,-2.0,1
-61.0,-14.0,232.0,-7.0,59.0,1.0,1
-62.0,-14.0,231.0,-6.0,58.0,-1.0,1
-58.0,-13.0,232.0,-8.0,58.0,0.0,1
-57.0,-15.0,233.0,-8.0,57.0,-2.0,1
-59.0,-15.0,232.0,-10.0,58.0,0.0,1
-60.0,-15.0,233.0,-11.0,57.0,-1.0,1
-60.0,-14.0,229.0,-11.0,57.0,0.0,1
-60.0,-16.0,236.0,-12.0,57.0,-2.0,1
-56.0,-17.0,229.0,-14.0,56.0,0.0,1
-58.0,-17.0,229.0,-14.0,56.0,-4.0,1
-60.0,-17.0,233.0,-15.0,56.0,-2.0,1
-59.0,-18.0,230.0,-16.0,55.0,-3.0,1
-56.0,-19.0,236.0,-16.0,55.0,0.0,1
-60.0,-18.0,231.0,-15.0,54.0,-3.0,1
-60.0,-15.0,233.0,-17.0,54.0,-1.0,1
-60.0,-18.0,240.0,-18.0,53.0,-3.0,1
-60.0,-18.0,234.0,-16.0,54.0,-2.0,1
