ax,ay,az,gx,gy,gz,label
0.0,-249.0,40.0,49.0,6.0,-13.0,1
-3.0,-251.0,39.0,45.0,4.0,-14.0,1
-1.0,-248.0,41.0,39.0,3.0,-14.0,1
-2.0,-245.0,39.0,26.0,-3.0,-13.0,1
5.0,-248.0,43.0,13.0,-10.0,-15.0,1
-3.0,-245.0,41.0,2.0,-22.0,-16.0,1
0.0,-253.0,41.0,-7.0,-35.0,-19.0,1
1.0,-246.0,27.0,-24.0,-47.0,-17.0,1
3.0,-245.0,26.0,-50.0,-60.0,-13.0,1
0.0,-247.0,26.0,-75.0,-69.0,-6.0,1
4.0,-247.0,25.0,-91.0,-73.0,1.0,1
1.0,-244.0,20.0,-101.0,-72.0,3.0,1
4.0,-248.0,23.0,-110.0,-69.0,4.0,1
6.0,-245.0,20.0,-129.0,-66.0,4.0,1
10.0,-257.0,15.0,-158.0,-59.0,5.0,1
-1.0,-248.0,12.0,-192.0,-47.0,5.0,1
1.0,-264.0,19.0,-203.0,-29.0,4.0,1
4.0,-273.0,25.0,-175.0,-6.0,0.0,1
5.0,-272.0,29.0,-109.0,14.0,-3.0,1
8.0,-275.0,32.0,-45.0,34.0,-8.0,1
4.0,-271.0,31.0,8.0,51.0,-13.0,1
0.0,-271.0,34.0,40.0,63.0,-15.0,1
-3.0,-266.0,28.0,65.0,68.0,-19.0,1
-4.0,-264.0,23.0,86.0,78.0,-24.0,1
-5.0,-265.0,24.0,104.0,104.0,-40.0,1
-6.0,-271.0,16.0,131.0,128.0,-51.0,1
-9.0,-264.0,20.0,163.0,146.0,-65.0,1
-7.0,-264.0,21.0,182.0,149.0,-79.0,1
-3.0,-264.0,20.0,204.0,159.0,-95.0,1
-4.0,-257.0,19.0,234.0,180.0,-106.0,1
-3.0,-260.0,27.0,257.0,183.0,-115.0,1
-1.0,-256.0,27.0,277.0,177.0,-126.0,1
-3.0,-258.0,28.0,299.0,182.0,-133.0,1
-8.0,-249.0,29.0,311.0,178.0,-135.0,1
-6.0,-250.0,36.0,308.0,168.0,-137.0,1
-3.0,-250.0,35.0,295.0,155.0,-137.0,1
-6.0,-249.0,38.0,286.0,155.0,-137.0,1
-12.0,-248.0,39.0,283.0,156.0,-133.0,1
-10.0,-256.0,41.0,296.0,154.0,-127.0,1
-10.0,-255.0,42.0,325.0,142.0,-121.0,1
-11.0,-250.0,48.0,354.0,125.0,-114.0,1
-11.0,-248.0,50.0,365.0,108.0,-105.0,1
-16.0,-245.0,47.0,364.0,85.0,-96.0,1
-6.0,-242.0,53.0,357.0,57.0,-90.0,1
-11.0,-242.0,62.0,358.0,43.0,-84.0,1
-6.0,-233.0,52.0,363.0,38.0,-81.0,1
-9.0,-233.0,67.0,361.0,37.0,-76.0,1
-7.0,-229.0,66.0,350.0,30.0,-69.0,1
-9.0,-228.0,70.0,340.0,18.0,-62.0,1
-13.0,-225.0,68.0,341.0,-3.0,-63.0,1
-9.0,-219.0,72.0,336.0,-30.0,-65.0,1
-7.0,-219.0,76.0,315.0,-45.0,-59.0,1
-8.0,-217.0,74.0,288.0,-60.0,-59.0,1
-6.0,-218.0,75.0,260.0,-75.0,-61.0,1
-6.0,-218.0,78.0,225.0,-89.0,-65.0,1
-2.0,-214.0,74.0,190.0,-98.0,-67.0,1
-1.0,-219.0,77.0,147.0,-103.0,-68.0,1
0.0,-220.0,79.0,105.0,-106.0,-67.0,1
-1.0,-219.0,77.0,70.0,-112.0,-72.0,1
3.0,-216.0,77.0,35.0,-118.0,-76.0,1
7.0,-217.0,76.0,-3.0,-119.0,-76.0,1
7.0,-218.0,75.0,-47.0,-122.0,-80.0,1
6.0,-219.0,74.0,-89.0,-123.0,-80.0,1
7.0,-218.0,78.0,-134.0,-125.0,-84.0,1
6.0,-218.0,78.0,-183.0,-123.0,-81.0,1
4.0,-222.0,78.0,-231.0,-122.0,-79.0,1
3.0,-224.0,78.0,-271.0,-118.0,-77.0,1
0.0,-222.0,76.0,-309.0,-122.0,-77.0,1
3.0,-219.0,69.0,-345.0,-130.0,-75.0,1
5.0,-230.0,70.0,-385.0,-139.0,-71.0,1
6.0,-233.0,71.0,-426.0,-147.0,-67.0,1
3.0,-230.0,70.0,-469.0,-156.0,-64.0,1
3.0,-233.0,70.0,-510.0,-162.0,-61.0,1
5.0,-235.0,66.0,-550.0,-169.0,-57.0,1
4.0,-237.0,64.0,-586.0,-173.0,-55.0,1
5.0,-238.0,60.0,-619.0,-176.0,-48.0,1
7.0,-240.0,55.0,-646.0,-175.0,-47.0,1
10.0,-244.0,53.0,-670.0,-170.0,-47.0,1
10.0,-243.0,50.0,-689.0,-162.0,-47.0,1
8.0,-237.0,43.0,-706.0,-152.0,-46.0,1
18.0,-238.0,49.0,-723.0,-141.0,-44.0,1
11.0,-240.0,46.0,-739.0,-130.0,-43.0,1
12.0,-240.0,47.0,-757.0,-124.0,-44.0,1
14.0,-242.0,42.0,-775.0,-119.0,-44.0,1
21.0,-242.0,46.0,-794.0,-109.0,-40.0,1
23.0,-240.0,42.0,-811.0,-91.0,-34.0,1
23.0,-244.0,42.0,-831.0,-75.0,-31.0,1
24.0,-246.0,41.0,-853.0,-59.0,-31.0,1
28.0,-246.0,39.0,-868.0,-47.0,-32.0,1
29.0,-251.0,37.0,-883.0,-31.0,-26.0,1
30.0,-248.0,30.0,-893.0,-6.0,-12.0,1
25.0,-248.0,30.0,-903.0,15.0,-8.0,1
25.0,-246.0,26.0,-916.0,32.0,-5.0,1
27.0,-252.0,23.0,-933.0,44.0,-6.0,1
23.0,-251.0,19.0,-945.0,58.0,-3.0,1
20.0,-254.0,15.0,-954.0,73.0,6.0,1
17.0,-257.0,17.0,-968.0,87.0,17.0,1
16.0,-260.0,7.0,-980.0,97.0,22.0,1
8.0,-265.0,11.0,-985.0,113.0,26.0,1
9.0,-266.0,10.0,-975.0,126.0,29.0,1
10.0,-269.0,1.0,-955.0,135.0,33.0,1
5.0,-271.0,2.0,-926.0,151.0,38.0,1
2.0,-276.0,2.0,-890.0,160.0,39.0,1
2.0,-277.0,6.0,-850.0,170.0,45.0,1
1.0,-275.0,3.0,-804.0,191.0,53.0,1
4.0,-277.0,4.0,-757.0,207.0,55.0,1
-2.0,-274.0,6.0,-709.0,226.0,55.0,1
-1.0,-272.0,4.0,-668.0,247.0,58.0,1
0.0,-267.0,5.0,-637.0,263.0,54.0,1
2.0,-267.0,7.0,-622.0,279.0,56.0,1
7.0,-268.0,9.0,-615.0,299.0,58.0,1
4.0,-260.0,11.0,-609.0,315.0,64.0,1
3.0,-256.0,17.0,-607.0,330.0,73.0,1
5.0,-255.0,18.0,-619.0,332.0,80.0,1
9.0,-250.0,20.0,-631.0,333.0,89.0,1
10.0,-247.0,20.0,-653.0,326.0,97.0,1
13.0,-240.0,23.0,-680.0,330.0,110.0,1
14.0,-243.0,23.0,-717.0,336.0,123.0,1
14.0,-240.0,26.0,-754.0,339.0,138.0,1
16.0,-243.0,25.0,-795.0,344.0,146.0,1
17.0,-249.0,19.0,-839.0,349.0,153.0,1
11.0,-250.0,21.0,-890.0,357.0,157.0,1
14.0,-261.0,17.0,-941.0,377.0,155.0,1
8.0,-259.0,11.0,-987.0,404.0,155.0,1
10.0,-269.0,20.0,-1027.0,433.0,153.0,1
11.0,-275.0,16.0,-1057.0,465.0,145.0,1
9.0,-278.0,14.0,-1073.0,493.0,141.0,1
5.0,-286.0,9.0,-1078.0,513.0,136.0,1
2.0,-286.0,9.0,-1074.0,523.0,135.0,1
-4.0,-289.0,10.0,-1058.0,529.0,138.0,1
-4.0,-293.0,9.0,-1036.0,537.0,139.0,1
-9.0,-289.0,7.0,-1004.0,543.0,141.0,1
-12.0,-291.0,1.0,-972.0,547.0,140.0,1
-18.0,-289.0,1.0,-943.0,547.0,142.0,1
-16.0,-288.0,-2.0,-913.0,539.0,145.0,1
-18.0,-288.0,-4.0,-885.0,531.0,148.0,1
-19.0,-286.0,-8.0,-858.0,521.0,153.0,1
-21.0,-278.0,-10.0,-833.0,512.0,156.0,1
-13.0,-278.0,-14.0,-808.0,502.0,163.0,1
-11.0,-275.0,-15.0,-787.0,495.0,168.0,1
-12.0,-274.0,-16.0,-768.0,487.0,177.0,1
-8.0,-272.0,-23.0,-745.0,478.0,186.0,1
-8.0,-272.0,-31.0,-722.0,472.0,194.0,1
-4.0,-271.0,-28.0,-698.0,475.0,200.0,1
-5.0,-276.0,-40.0,-676.0,487.0,208.0,1
1.0,-269.0,-35.0,-651.0,509.0,215.0,1
4.0,-274.0,-38.0,-621.0,535.0,220.0,1
2.0,-274.0,-41.0,-592.0,564.0,225.0,1
4.0,-278.0,-39.0,-559.0,588.0,225.0,1
2.0,-279.0,-42.0,-525.0,612.0,225.0,1
5.0,-282.0,-42.0,-491.0,635.0,223.0,1
1.0,-281.0,-44.0,-456.0,658.0,222.0,1
0.0,-279.0,-49.0,-420.0,681.0,219.0,1
-1.0,-280.0,-46.0,-387.0,698.0,217.0,1
2.0,-283.0,-43.0,-356.0,712.0,210.0,1
2.0,-283.0,-46.0,-326.0,721.0,201.0,1
4.0,-277.0,-47.0,-296.0,729.0,194.0,1
4.0,-276.0,-51.0,-263.0,736.0,186.0,1
7.0,-275.0,-49.0,-228.0,743.0,176.0,1
8.0,-269.0,-50.0,-190.0,750.0,166.0,1
10.0,-266.0,-53.0,-152.0,758.0,157.0,1
9.0,-260.0,-54.0,-117.0,770.0,150.0,1
8.0,-261.0,-54.0,-86.0,781.0,138.0,1
11.0,-261.0,-55.0,-61.0,796.0,130.0,1
11.0,-260.0,-55.0,-41.0,808.0,122.0,1
19.0,-263.0,-58.0,-28.0,816.0,117.0,1
11.0,-260.0,-53.0,-14.0,819.0,112.0,1
10.0,-260.0,-52.0,6.0,817.0,109.0,1
10.0,-260.0,-55.0,29.0,813.0,105.0,1
8.0,-260.0,-55.0,59.0,806.0,99.0,1
10.0,-262.0,-55.0,93.0,796.0,95.0,1
4.0,-261.0,-54.0,131.0,785.0,92.0,1
3.0,-259.0,-55.0,164.0,777.0,91.0,1
4.0,-260.0,-49.0,197.0,770.0,87.0,1
6.0,-259.0,-48.0,229.0,762.0,81.0,1
5.0,-254.0,-50.0,261.0,756.0,80.0,1
4.0,-254.0,-51.0,290.0,747.0,80.0,1
9.0,-250.0,-51.0,316.0,736.0,80.0,1
8.0,-252.0,-54.0,339.0,727.0,81.0,1
5.0,-248.0,-46.0,357.0,716.0,79.0,1
8.0,-243.0,-43.0,377.0,705.0,79.0,1
7.0,-242.0,-45.0,391.0,693.0,81.0,1
5.0,-237.0,-40.0,402.0,683.0,85.0,1
9.0,-235.0,-42.0,409.0,673.0,85.0,1
9.0,-235.0,-40.0,411.0,664.0,87.0,1
11.0,-232.0,-49.0,408.0,656.0,89.0,1
16.0,-230.0,-47.0,400.0,648.0,89.0,1
11.0,-230.0,-58.0,391.0,640.0,88.0,1
19.0,-229.0,-56.0,385.0,633.0,87.0,1
17.0,-229.0,-53.0,382.0,626.0,84.0,1
19.0,-229.0,-54.0,382.0,627.0,83.0,1
22.0,-229.0,-57.0,383.0,633.0,82.0,1
23.0,-222.0,-57.0,377.0,644.0,82.0,1
23.0,-225.0,-57.0,365.0,651.0,83.0,1
22.0,-225.0,-56.0,348.0,652.0,81.0,1
21.0,-228.0,-57.0,328.0,651.0,77.0,1
17.0,-227.0,-55.0,307.0,650.0,72.0,1
17.0,-224.0,-58.0,290.0,647.0,68.0,1
17.0,-231.0,-56.0,278.0,643.0,66.0,1
15.0,-232.0,-53.0,271.0,638.0,62.0,1
14.0,-239.0,-46.0,268.0,631.0,55.0,1
16.0,-243.0,-46.0,275.0,621.0,48.0,1
12.0,-245.0,-48.0,288.0,612.0,41.0,1
12.0,-243.0,-47.0,306.0,608.0,37.0,1
12.0,-241.0,-42.0,322.0,607.0,33.0,1
14.0,-240.0,-45.0,336.0,604.0,30.0,1
17.0,-239.0,-48.0,344.0,597.0,23.0,1
17.0,-234.0,-44.0,346.0,587.0,20.0,1
14.0,-229.0,-44.0,345.0,578.0,20.0,1
16.0,-229.0,-45.0,341.0,573.0,15.0,1
18.0,-224.0,-42.0,335.0,569.0,12.0,1
13.0,-223.0,-39.0,330.0,559.0,8.0,1
15.0,-223.0,-39.0,326.0,539.0,3.0,1
15.0,-226.0,-36.0,323.0,526.0,-5.0,1
17.0,-226.0,-37.0,320.0,514.0,-12.0,1
11.0,-228.0,-37.0,316.0,500.0,-19.0,1
10.0,-229.0,-33.0,308.0,477.0,-27.0,1
10.0,-229.0,-31.0,305.0,454.0,-33.0,1
8.0,-230.0,-37.0,300.0,434.0,-37.0,1
5.0,-232.0,-33.0,297.0,416.0,-42.0,1
6.0,-233.0,-32.0,298.0,405.0,-46.0,1
10.0,-234.0,-33.0,298.0,387.0,-51.0,1
7.0,-234.0,-31.0,299.0,367.0,-54.0,1
5.0,-234.0,-29.0,296.0,343.0,-58.0,1
8.0,-236.0,-25.0,290.0,319.0,-60.0,1
6.0,-233.0,-28.0,288.0,301.0,-66.0,1
4.0,-231.0,-25.0,282.0,287.0,-67.0,1
1.0,-230.0,-31.0,274.0,270.0,-71.0,1
2.0,-235.0,-31.0,266.0,256.0,-79.0,1
3.0,-234.0,-29.0,253.0,240.0,-84.0,1
2.0,-236.0,-27.0,242.0,224.0,-88.0,1
0.0,-235.0,-32.0,232.0,207.0,-91.0,1
0.0,-239.0,-26.0,226.0,191.0,-92.0,1
-1.0,-237.0,-23.0,223.0,174.0,-95.0,1
3.0,-241.0,-20.0,222.0,166.0,-98.0,1
1.0,-241.0,-21.0,227.0,158.0,-104.0,1
2.0,-246.0,-19.0,235.0,153.0,-105.0,1
-1.0,-245.0,-18.0,245.0,149.0,-111.0,1
0.0,-243.0,-20.0,255.0,144.0,-119.0,1
1.0,-243.0,-20.0,263.0,147.0,-123.0,1
-2.0,-242.0,-16.0,270.0,150.0,-122.0,1
5.0,-240.0,-17.0,269.0,148.0,-118.0,1
3.0,-239.0,-12.0,265.0,146.0,-117.0,1
8.0,-236.0,-13.0,258.0,143.0,-113.0,1
10.0,-236.0,-9.0,252.0,142.0,-106.0,1
11.0,-237.0,-10.0,250.0,139.0,-96.0,1
13.0,-234.0,-11.0,251.0,136.0,-85.0,1
17.0,-234.0,-12.0,261.0,135.0,-74.0,1
17.0,-234.0,-11.0,272.0,136.0,-60.0,1
18.0,-232.0,-12.0,285.0,134.0,-43.0,1
24.0,-230.0,-13.0,295.0,131.0,-28.0,1
24.0,-223.0,-19.0,303.0,133.0,-11.0,1
24.0,-230.0,-15.0,307.0,133.0,1.0,1
28.0,-224.0,-11.0,313.0,140.0,10.0,1
30.0,-223.0,-11.0,320.0,147.0,20.0,1
32.0,-225.0,-12.0,326.0,158.0,35.0,1
35.0,-224.0,-10.0,329.0,170.0,47.0,1
32.0,-226.0,-7.0,329.0,182.0,59.0,1
35.0,-224.0,-7.0,327.0,190.0,75.0,1
34.0,-227.0,-6.0,326.0,195.0,91.0,1
33.0,-227.0,-6.0,326.0,194.0,107.0,1
35.0,-232.0,-4.0,322.0,194.0,127.0,1
28.0,-229.0,-8.0,317.0,196.0,144.0,1
32.0,-234.0,-2.0,312.0,191.0,162.0,1
28.0,-233.0,1.0,307.0,182.0,181.0,1
30.0,-235.0,1.0,303.0,176.0,201.0,1
27.0,-234.0,0.0,302.0,171.0,220.0,1
25.0,-233.0,5.0,303.0,164.0,235.0,1
22.0,-228.0,-5.0,303.0,160.0,248.0,1
24.0,-227.0,6.0,300.0,149.0,261.0,1
18.0,-231.0,4.0,295.0,131.0,268.0,1
19.0,-230.0,6.0,296.0,112.0,272.0,1
16.0,-225.0,1.0,293.0,90.0,278.0,1
12.0,-227.0,9.0,286.0,63.0,280.0,1
15.0,-228.0,13.0,286.0,35.0,277.0,1
11.0,-224.0,14.0,289.0,5.0,275.0,1
8.0,-222.0,15.0,288.0,-32.0,277.0,1
6.0,-226.0,20.0,284.0,-77.0,277.0,1
7.0,-224.0,20.0,278.0,-126.0,273.0,1
3.0,-221.0,23.0,263.0,-173.0,274.0,1
5.0,-225.0,27.0,238.0,-222.0,276.0,1
6.0,-219.0,24.0,208.0,-268.0,277.0,1
7.0,-222.0,25.0,171.0,-312.0,285.0,1
7.0,-221.0,29.0,128.0,-352.0,294.0,1
7.0,-220.0,30.0,88.0,-389.0,296.0,1
8.0,-230.0,31.0,35.0,-409.0,301.0,1
11.0,-226.0,20.0,0.0,-432.0,299.0,1
17.0,-231.0,23.0,-38.0,-452.0,302.0,1
24.0,-236.0,9.0,-84.0,-457.0,300.0,1
34.0,-238.0,4.0,-139.0,-444.0,287.0,1
40.0,-245.0,-1.0,-185.0,-411.0,266.0,1
47.0,-250.0,6.0,-208.0,-381.0,232.0,1
55.0,-259.0,3.0,-219.0,-354.0,195.0,1
62.0,-263.0,10.0,-219.0,-333.0,154.0,1
79.0,-276.0,13.0,-202.0,-311.0,112.0,1
85.0,-270.0,14.0,-183.0,-283.0,63.0,1
87.0,-305.0,20.0,-148.0,-246.0,9.0,1
97.0,-298.0,21.0,-103.0,-217.0,-38.0,1
106.0,-301.0,25.0,-50.0,-178.0,-79.0,1
114.0,-300.0,23.0,10.0,-135.0,-103.0,1
114.0,-298.0,21.0,63.0,-96.0,-126.0,1
120.0,-295.0,18.0,108.0,-59.0,-147.0,1
126.0,-293.0,17.0,126.0,-16.0,-162.0,1
126.0,-288.0,5.0,128.0,28.0,-183.0,1
123.0,-289.0,1.0,110.0,72.0,-200.0,1
131.0,-281.0,-2.0,99.0,113.0,-220.0,1
119.0,-285.0,-9.0,85.0,150.0,-231.0,1
120.0,-280.0,-8.0,57.0,192.0,-240.0,1
116.0,-282.0,-13.0,31.0,236.0,-246.0,1
115.0,-289.0,-10.0,6.0,281.0,-262.0,1
109.0,-286.0,-13.0,-11.0,325.0,-294.0,1
108.0,-288.0,-9.0,-43.0,360.0,-327.0,1
92.0,-287.0,-16.0,-78.0,368.0,-360.0,1
75.0,-286.0,-22.0,-135.0,348.0,-381.0,1
53.0,-296.0,-20.0,-206.0,307.0,-392.0,1
24.0,-303.0,-16.0,-262.0,266.0,-395.0,1
-1.0,-318.0,-11.0,-284.0,229.0,-385.0,1
-22.0,-323.0,-5.0,-269.0,193.0,-372.0,1
-51.0,-326.0,-16.0,-237.0,168.0,-354.0,1
-54.0,-335.0,-40.0,-217.0,169.0,-335.0,1
-34.0,-339.0,-73.0,-236.0,205.0,-334.0,1
-13.0,-337.0,-93.0,-274.0,270.0,-346.0,1
25.0,-337.0,-106.0,-300.0,356.0,-358.0,1
41.0,-327.0,-105.0,-279.0,440.0,-356.0,1
40.0,-317.0,-95.0,-201.0,489.0,-334.0,1
27.0,-305.0,-82.0,-85.0,498.0,-284.0,1
13.0,-288.0,-75.0,48.0,476.0,-207.0,1
7.0,-272.0,-72.0,171.0,438.0,-116.0,1
0.0,-250.0,-76.0,268.0,401.0,-18.0,1
-3.0,-224.0,-85.0,329.0,378.0,97.0,1
-17.0,-201.0,-90.0,354.0,344.0,221.0,1
-10.0,-185.0,-90.0,362.0,292.0,354.0,1
-5.0,-161.0,-98.0,352.0,239.0,489.0,1
-1.0,-149.0,-94.0,312.0,206.0,634.0,1
-1.0,-143.0,-100.0,241.0,187.0,748.0,1
-7.0,-167.0,-78.0,127.0,168.0,808.0,1
-26.0,-186.0,-60.0,25.0,127.0,806.0,1
-36.0,-203.0,-53.0,-25.0,72.0,777.0,1
-37.0,-210.0,-51.0,-57.0,26.0,744.0,1
-37.0,-231.0,-44.0,-100.0,-1.0,696.0,1
-34.0,-234.0,-46.0,-100.0,8.0,627.0,1
-26.0,-232.0,-46.0,-64.0,52.0,533.0,1
-16.0,-227.0,-46.0,-24.0,117.0,470.0,1
-6.0,-224.0,-45.0,-7.0,193.0,421.0,1
1.0,-220.0,-39.0,-8.0,267.0,384.0,1
-2.0,-221.0,-33.0,-23.0,331.0,346.0,1
-2.0,-225.0,-29.0,-40.0,398.0,313.0,1
0.0,-225.0,-26.0,-49.0,462.0,283.0,1
-2.0,-218.0,-26.0,-49.0,525.0,259.0,1
-9.0,-226.0,-34.0,-49.0,574.0,238.0,1
-18.0,-225.0,-42.0,-62.0,616.0,223.0,1
-28.0,-232.0,-49.0,-106.0,640.0,231.0,1
-41.0,-237.0,-57.0,-171.0,644.0,256.0,1
-45.0,-241.0,-63.0,-229.0,632.0,276.0,1
-57.0,-241.0,-60.0,-274.0,608.0,284.0,1
-55.0,-246.0,-61.0,-284.0,588.0,310.0,1
-55.0,-247.0,-59.0,-252.0,577.0,375.0,1
-58.0,-248.0,-57.0,-204.0,570.0,448.0,1
-55.0,-245.0,-52.0,-152.0,543.0,475.0,1
-43.0,-245.0,-31.0,-103.0,505.0,478.0,1
-38.0,-233.0,-42.0,-69.0,464.0,450.0,1
-39.0,-237.0,-41.0,-44.0,434.0,427.0,1
-29.0,-239.0,-41.0,-29.0,414.0,423.0,1
-20.0,-236.0,-47.0,-13.0,401.0,431.0,1
-21.0,-230.0,-49.0,-15.0,391.0,430.0,1
-22.0,-227.0,-51.0,-32.0,375.0,398.0,1
-27.0,-232.0,-45.0,-54.0,354.0,341.0,1
-21.0,-239.0,-40.0,-74.0,335.0,280.0,1
-27.0,-230.0,-35.0,-92.0,333.0,242.0,1
-25.0,-238.0,-32.0,-103.0,335.0,214.0,1
-25.0,-231.0,-33.0,-112.0,344.0,192.0,1
-26.0,-230.0,-34.0,-118.0,364.0,187.0,1
-26.0,-230.0,-37.0,-129.0,374.0,171.0,1
-29.0,-229.0,-38.0,-147.0,379.0,153.0,1
-28.0,-240.0,-34.0,-160.0,382.0,156.0,1
-31.0,-247.0,-30.0,-173.0,366.0,146.0,1
-42.0,-249.0,-31.0,-180.0,342.0,79.0,1
-42.0,-247.0,-30.0,-178.0,335.0,61.0,1
-50.0,-249.0,-27.0,-177.0,344.0,94.0,1
-46.0,-247.0,-29.0,-172.0,332.0,95.0,1
-46.0,-244.0,-29.0,-160.0,320.0,90.0,1
-46.0,-240.0,-31.0,-142.0,310.0,80.0,1
-43.0,-234.0,-33.0,-128.0,303.0,80.0,1
-33.0,-229.0,-29.0,-124.0,293.0,92.0,1
-33.0,-230.0,-22.0,-139.0,300.0,103.0,1
-32.0,-228.0,-32.0,-148.0,303.0,109.0,1
-26.0,-227.0,-20.0,-142.0,309.0,114.0,1
-19.0,-232.0,-15.0,-133.0,317.0,124.0,1
-21.0,-238.0,-13.0,-130.0,324.0,129.0,1
-18.0,-230.0,-21.0,-123.0,334.0,114.0,1
3.0,-231.0,-20.0,-144.0,373.0,133.0,1
-5.0,-236.0,-9.0,-175.0,420.0,143.0,1
2.0,-240.0,-4.0,-173.0,433.0,107.0,1
3.0,-245.0,0.0,-144.0,450.0,81.0,1
5.0,-249.0,-3.0,-112.0,469.0,58.0,1
12.0,-252.0,-4.0,-88.0,493.0,40.0,1
13.0,-256.0,1.0,-70.0,532.0,35.0,1
8.0,-259.0,6.0,-45.0,569.0,34.0,1
5.0,-265.0,9.0,-12.0,595.0,25.0,1
2.0,-270.0,9.0,33.0,617.0,14.0,1
-3.0,-270.0,13.0,93.0,643.0,14.0,1
-1.0,-273.0,19.0,162.0,670.0,12.0,1
-3.0,-272.0,24.0,236.0,697.0,9.0,1
-15.0,-273.0,18.0,314.0,730.0,15.0,1
-22.0,-262.0,13.0,387.0,743.0,27.0,1
-29.0,-253.0,6.0,423.0,721.0,40.0,1
-40.0,-243.0,-8.0,410.0,680.0,53.0,1
-47.0,-240.0,-18.0,361.0,644.0,61.0,1
-46.0,-241.0,-19.0,295.0,617.0,63.0,1
-43.0,-243.0,-11.0,232.0,603.0,60.0,1
-41.0,-250.0,-3.0,183.0,606.0,55.0,1
-37.0,-263.0,11.0,162.0,620.0,42.0,1
-33.0,-280.0,33.0,167.0,642.0,24.0,1
-34.0,-288.0,51.0,197.0,674.0,8.0,1
-29.0,-294.0,56.0,240.0,694.0,-7.0,1
-30.0,-298.0,61.0,272.0,704.0,-20.0,1
-30.0,-298.0,53.0,284.0,698.0,-28.0,1
-37.0,-291.0,51.0,278.0,688.0,-27.0,1
-41.0,-292.0,46.0,264.0,681.0,-11.0,1
-41.0,-294.0,49.0,259.0,672.0,12.0,1
-44.0,-290.0,52.0,265.0,662.0,39.0,1
-50.0,-290.0,55.0,277.0,650.0,71.0,1
-52.0,-285.0,50.0,282.0,643.0,106.0,1
-47.0,-282.0,50.0,278.0,637.0,133.0,1
-40.0,-279.0,38.0,255.0,636.0,149.0,1
-31.0,-293.0,23.0,219.0,633.0,162.0,1
-20.0,-297.0,9.0,178.0,635.0,172.0,1
-6.0,-304.0,-8.0,123.0,624.0,182.0,1
-10.0,-320.0,-25.0,64.0,604.0,200.0,1
-12.0,-323.0,-44.0,2.0,581.0,230.0,1
-9.0,-331.0,-68.0,-66.0,564.0,272.0,1
-11.0,-340.0,-84.0,-144.0,550.0,317.0,1
-11.0,-342.0,-89.0,-190.0,542.0,357.0,1
-37.0,-331.0,-87.0,-169.0,534.0,399.0,1
-51.0,-316.0,-97.0,-105.0,510.0,446.0,1
-69.0,-281.0,-120.0,-48.0,460.0,480.0,1
-73.0,-251.0,-142.0,-36.0,416.0,514.0,1
-72.0,-221.0,-159.0,-67.0,383.0,539.0,1
-66.0,-201.0,-162.0,-112.0,358.0,543.0,1
-42.0,-187.0,-159.0,-150.0,339.0,502.0,1
-4.0,-174.0,-142.0,-163.0,361.0,444.0,1
28.0,-168.0,-120.0,-146.0,408.0,383.0,1
40.0,-168.0,-90.0,-108.0,454.0,325.0,1
57.0,-177.0,-68.0,-59.0,471.0,269.0,1
59.0,-178.0,-58.0,-25.0,467.0,186.0,1
60.0,-188.0,-53.0,-12.0,451.0,105.0,1
67.0,-208.0,-50.0,-21.0,443.0,27.0,1
64.0,-222.0,-39.0,-47.0,453.0,-51.0,1
56.0,-236.0,-36.0,-75.0,478.0,-110.0,1
50.0,-251.0,-28.0,-92.0,506.0,-140.0,1
36.0,-265.0,-23.0,-90.0,533.0,-151.0,1
27.0,-274.0,-19.0,-72.0,552.0,-148.0,1
11.0,-281.0,-21.0,-40.0,567.0,-116.0,1
-5.0,-289.0,-26.0,-6.0,557.0,-79.0,1
-17.0,-290.0,-33.0,28.0,525.0,-63.0,1
-31.0,-285.0,-39.0,56.0,491.0,-59.0,1
-47.0,-289.0,-38.0,93.0,469.0,-50.0,1
-52.0,-281.0,-41.0,164.0,451.0,-49.0,1
-52.0,-270.0,-42.0,240.0,423.0,-64.0,1
-50.0,-257.0,-41.0,310.0,405.0,-87.0,1
-34.0,-252.0,-45.0,372.0,392.0,-117.0,1
-22.0,-245.0,-43.0,422.0,389.0,-167.0,1
-4.0,-231.0,-55.0,456.0,392.0,-231.0,1
7.0,-231.0,-55.0,471.0,407.0,-292.0,1
13.0,-221.0,-58.0,469.0,424.0,-342.0,1
17.0,-217.0,-50.0,457.0,438.0,-380.0,1
24.0,-213.0,-45.0,450.0,445.0,-408.0,1
21.0,-208.0,-42.0,447.0,450.0,-434.0,1
19.0,-194.0,-43.0,437.0,454.0,-449.0,1
17.0,-193.0,-41.0,409.0,449.0,-454.0,1
13.0,-187.0,-31.0,375.0,442.0,-454.0,1
10.0,-179.0,-32.0,347.0,439.0,-439.0,1
3.0,-176.0,-24.0,329.0,440.0,-407.0,1
-1.0,-178.0,-23.0,313.0,433.0,-367.0,1
-7.0,-179.0,-16.0,297.0,421.0,-333.0,1
-5.0,-182.0,-16.0,274.0,414.0,-294.0,1
-14.0,-190.0,-14.0,245.0,405.0,-251.0,1
-20.0,-199.0,-15.0,215.0,361.0,-213.0,1
-18.0,-203.0,-15.0,181.0,311.0,-196.0,1
-16.0,-211.0,-15.0,145.0,266.0,-185.0,1
-19.0,-216.0,-16.0,107.0,229.0,-173.0,1
-16.0,-218.0,-17.0,81.0,202.0,-157.0,1
-14.0,-226.0,-15.0,61.0,172.0,-149.0,1
-12.0,-234.0,-20.0,33.0,141.0,-147.0,1
-4.0,-233.0,-12.0,3.0,105.0,-151.0,1
3.0,-239.0,-11.0,-21.0,79.0,-159.0,1
7.0,-237.0,-11.0,-31.0,60.0,-165.0,1
16.0,-240.0,-5.0,-28.0,40.0,-169.0,1
16.0,-237.0,-8.0,-19.0,22.0,-175.0,1
19.0,-234.0,-3.0,-16.0,5.0,-184.0,1
13.0,-231.0,-7.0,-17.0,-7.0,-193.0,1
20.0,-229.0,2.0,-27.0,-23.0,-201.0,1
15.0,-221.0,2.0,-51.0,-47.0,-207.0,1
9.0,-224.0,9.0,-86.0,-71.0,-212.0,1
8.0,-223.0,9.0,-121.0,-94.0,-214.0,1
6.0,-226.0,14.0,-150.0,-117.0,-220.0,1
3.0,-230.0,18.0,-163.0,-140.0,-232.0,1
0.0,-233.0,21.0,-166.0,-165.0,-246.0,1
-1.0,-241.0,32.0,-168.0,-198.0,-253.0,1
-7.0,-247.0,33.0,-155.0,-238.0,-258.0,1
-13.0,-255.0,35.0,-130.0,-282.0,-251.0,1
-19.0,-263.0,40.0,-89.0,-328.0,-233.0,1
-24.0,-269.0,37.0,-41.0,-386.0,-213.0,1
-27.0,-276.0,40.0,15.0,-443.0,-192.0,1
-30.0,-281.0,45.0,78.0,-497.0,-171.0,1
-27.0,-288.0,42.0,149.0,-553.0,-155.0,1
-23.0,-287.0,33.0,208.0,-619.0,-143.0,1
-17.0,-289.0,36.0,263.0,-694.0,-130.0,1
-16.0,-289.0,29.0,326.0,-740.0,-112.0,1
-14.0,-276.0,21.0,379.0,-785.0,-89.0,1
-17.0,-269.0,12.0,416.0,-809.0,-65.0,1
-20.0,-267.0,8.0,428.0,-819.0,-40.0,1
2.0,-262.0,-6.0,416.0,-819.0,-22.0,1
15.0,-263.0,1.0,386.0,-798.0,-33.0,1
19.0,-273.0,7.0,357.0,-772.0,-60.0,1
24.0,-285.0,19.0,321.0,-773.0,-83.0,1
39.0,-301.0,42.0,291.0,-805.0,-103.0,1
55.0,-317.0,50.0,289.0,-823.0,-129.0,1
64.0,-320.0,54.0,301.0,-797.0,-162.0,1
85.0,-325.0,56.0,309.0,-747.0,-207.0,1
112.0,-328.0,53.0,304.0,-693.0,-272.0,1
139.0,-325.0,38.0,281.0,-636.0,-347.0,1
145.0,-322.0,13.0,226.0,-590.0,-424.0,1
143.0,-319.0,-9.0,120.0,-563.0,-490.0,1
139.0,-322.0,-41.0,-38.0,-556.0,-546.0,1
134.0,-332.0,-63.0,-230.0,-538.0,-590.0,1
130.0,-357.0,-86.0,-417.0,-480.0,-633.0,1
120.0,-383.0,-97.0,-566.0,-348.0,-677.0,1
110.0,-399.0,-105.0,-658.0,-168.0,-730.0,1
80.0,-418.0,-112.0,-684.0,12.0,-793.0,1
62.0,-424.0,-124.0,-642.0,189.0,-866.0,1
69.0,-407.0,-134.0,-542.0,353.0,-950.0,1
80.0,-386.0,-143.0,-381.0,503.0,-1008.0,1
85.0,-345.0,-143.0,-180.0,615.0,-995.0,1
74.0,-312.0,-146.0,28.0,686.0,-907.0,1
61.0,-270.0,-143.0,195.0,698.0,-779.0,1
38.0,-240.0,-120.0,289.0,664.0,-646.0,1
12.0,-219.0,-98.0,356.0,593.0,-514.0,1
-25.0,-196.0,-71.0,417.0,503.0,-367.0,1
-67.0,-178.0,-61.0,456.0,387.0,-207.0,1
-94.0,-161.0,-67.0,448.0,244.0,-41.0,1
-105.0,-154.0,-74.0,383.0,109.0,107.0,1
-122.0,-161.0,-79.0,289.0,20.0,208.0,1
-151.0,-175.0,-78.0,199.0,-38.0,286.0,1
-177.0,-196.0,-70.0,141.0,-118.0,354.0,1
-187.0,-224.0,-60.0,119.0,-247.0,405.0,1
-187.0,-249.0,-52.0,122.0,-409.0,429.0,1
-172.0,-256.0,-47.0,125.0,-553.0,424.0,1
-148.0,-259.0,-39.0,127.0,-651.0,401.0,1
-115.0,-250.0,-34.0,129.0,-706.0,364.0,1
-83.0,-243.0,-41.0,119.0,-719.0,326.0,1
-52.0,-243.0,-46.0,92.0,-707.0,289.0,1
-28.0,-243.0,-49.0,56.0,-689.0,249.0,1
-4.0,-245.0,-53.0,20.0,-661.0,204.0,1
12.0,-247.0,-58.0,-12.0,-636.0,163.0,1
22.0,-252.0,-52.0,-38.0,-604.0,131.0,1
27.0,-249.0,-54.0,-42.0,-573.0,116.0,1
32.0,-251.0,-54.0,-13.0,-544.0,126.0,1
33.0,-246.0,-55.0,36.0,-507.0,155.0,1
26.0,-241.0,-56.0,81.0,-462.0,194.0,1
19.0,-233.0,-60.0,111.0,-423.0,235.0,1
18.0,-228.0,-55.0,124.0,-385.0,279.0,1
16.0,-217.0,-57.0,128.0,-342.0,324.0,1
18.0,-209.0,-55.0,116.0,-311.0,367.0,1
22.0,-204.0,-53.0,86.0,-295.0,392.0,1
24.0,-199.0,-47.0,60.0,-283.0,396.0,1
27.0,-200.0,-43.0,37.0,-279.0,385.0,1
27.0,-198.0,-35.0,24.0,-284.0,357.0,1
25.0,-197.0,-41.0,39.0,-290.0,309.0,1
32.0,-196.0,-40.0,59.0,-285.0,268.0,1
34.0,-186.0,-45.0,80.0,-258.0,240.0,1
31.0,-182.0,-48.0,89.0,-220.0,216.0,1
25.0,-178.0,-49.0,83.0,-181.0,182.0,1
17.0,-177.0,-44.0,74.0,-137.0,159.0,1
12.0,-166.0,-48.0,81.0,-84.0,130.0,1
0.0,-168.0,-49.0,66.0,-33.0,101.0,1
-5.0,-163.0,-54.0,31.0,28.0,87.0,1
-12.0,-163.0,-54.0,-20.0,104.0,98.0,1
-20.0,-170.0,-52.0,-77.0,164.0,113.0,1
-37.0,-183.0,-48.0,-125.0,188.0,127.0,1
-38.0,-188.0,-48.0,-135.0,177.0,100.0,1
-38.0,-190.0,-45.0,-136.0,161.0,68.0,1
-37.0,-199.0,-38.0,-140.0,158.0,55.0,1
-43.0,-212.0,-28.0,-139.0,164.0,49.0,1
-41.0,-226.0,-26.0,-136.0,160.0,48.0,1
-41.0,-237.0,-24.0,-135.0,145.0,35.0,1
-41.0,-240.0,-23.0,-130.0,118.0,-2.0,1
-36.0,-249.0,-24.0,-128.0,97.0,-30.0,1
-38.0,-250.0,-21.0,-125.0,81.0,-56.0,1
-37.0,-247.0,-22.0,-122.0,75.0,-73.0,1
-38.0,-246.0,-16.0,-112.0,75.0,-82.0,1
-38.0,-239.0,-16.0,-97.0,72.0,-94.0,1
-39.0,-232.0,-12.0,-78.0,68.0,-102.0,1
-36.0,-227.0,-13.0,-56.0,69.0,-112.0,1
-32.0,-221.0,-10.0,-29.0,71.0,-126.0,1
-32.0,-219.0,-9.0,-7.0,80.0,-136.0,1
-26.0,-217.0,-7.0,7.0,101.0,-140.0,1
-28.0,-217.0,-12.0,17.0,118.0,-144.0,1
-21.0,-222.0,-5.0,16.0,134.0,-155.0,1
-23.0,-218.0,-6.0,7.0,150.0,-160.0,1
-18.0,-229.0,0.0,-4.0,166.0,-162.0,1
-25.0,-224.0,2.0,-5.0,179.0,-169.0,1
-25.0,-238.0,11.0,-13.0,195.0,-166.0,1
-23.0,-249.0,20.0,-2.0,201.0,-171.0,1
-22.0,-257.0,24.0,30.0,204.0,-176.0,1
-23.0,-260.0,25.0,71.0,210.0,-176.0,1
-22.0,-266.0,23.0,106.0,231.0,-172.0,1
-26.0,-277.0,25.0,138.0,254.0,-162.0,1
-31.0,-282.0,28.0,162.0,284.0,-155.0,1
-30.0,-283.0,28.0,204.0,304.0,-144.0,1
-33.0,-283.0,25.0,268.0,319.0,-134.0,1
-32.0,-284.0,26.0,330.0,327.0,-117.0,1
-28.0,-281.0,16.0,373.0,332.0,-108.0,1
-24.0,-277.0,5.0,397.0,333.0,-104.0,1
-26.0,-279.0,-6.0,399.0,333.0,-103.0,1
-24.0,-275.0,-28.0,375.0,322.0,-104.0,1
-25.0,-275.0,-31.0,321.0,303.0,-114.0,1
-29.0,-278.0,-29.0,247.0,306.0,-130.0,1
-29.0,-287.0,-6.0,189.0,320.0,-134.0,1
-45.0,-291.0,19.0,174.0,314.0,-121.0,1
-69.0,-288.0,36.0,187.0,279.0,-90.0,1
-87.0,-290.0,57.0,209.0,235.0,-40.0,1
-112.0,-292.0,63.0,238.0,192.0,22.0,1
-123.0,-292.0,73.0,280.0,150.0,80.0,1
-125.0,-293.0,76.0,331.0,128.0,132.0,1
-131.0,-296.0,79.0,378.0,125.0,178.0,1
-131.0,-292.0,75.0,419.0,123.0,212.0,1
-110.0,-290.0,75.0,448.0,139.0,251.0,1
-104.0,-287.0,55.0,449.0,163.0,287.0,1
-91.0,-294.0,28.0,394.0,158.0,290.0,1
-67.0,-304.0,-9.0,264.0,119.0,259.0,1
-55.0,-309.0,-44.0,81.0,86.0,217.0,1
-15.0,-324.0,-76.0,-121.0,55.0,185.0,1
4.0,-353.0,-81.0,-300.0,45.0,174.0,1
12.0,-371.0,-73.0,-379.0,37.0,188.0,1
1.0,-379.0,-71.0,-348.0,6.0,201.0,1
-3.0,-365.0,-82.0,-239.0,-48.0,212.0,1
-20.0,-329.0,-88.0,-148.0,-87.0,237.0,1
-50.0,-298.0,-95.0,-99.0,-101.0,287.0,1
-74.0,-269.0,-118.0,-75.0,-130.0,323.0,1
-81.0,-257.0,-169.0,-83.0,-175.0,343.0,1
-73.0,-240.0,-165.0,-126.0,-224.0,345.0,1
-56.0,-227.0,-191.0,-222.0,-252.0,363.0,1
-47.0,-236.0,-173.0,-328.0,-273.0,388.0,1
-37.0,-240.0,-137.0,-343.0,-329.0,385.0,1
-22.0,-235.0,-124.0,-277.0,-391.0,382.0,1
-9.0,-240.0,-107.0,-186.0,-448.0,370.0,1
4.0,-248.0,-90.0,-113.0,-507.0,342.0,1
22.0,-260.0,-78.0,-74.0,-569.0,300.0,1
33.0,-279.0,-67.0,-61.0,-620.0,252.0,1
46.0,-297.0,-74.0,-44.0,-645.0,210.0,1
41.0,-301.0,-45.0,4.0,-648.0,161.0,1
44.0,-300.0,-34.0,75.0,-650.0,98.0,1
47.0,-296.0,-30.0,165.0,-657.0,22.0,1
44.0,-288.0,-26.0,253.0,-669.0,-67.0,1
46.0,-274.0,-25.0,326.0,-669.0,-159.0,1
33.0,-267.0,-28.0,388.0,-655.0,-255.0,1
28.0,-251.0,-31.0,449.0,-646.0,-363.0,1
18.0,-232.0,-34.0,500.0,-630.0,-448.0,1
7.0,-215.0,-38.0,526.0,-613.0,-519.0,1
-4.0,-203.0,-49.0,536.0,-612.0,-584.0,1
-15.0,-190.0,-60.0,517.0,-612.0,-633.0,1
-26.0,-181.0,-75.0,465.0,-613.0,-660.0,1
-37.0,-180.0,-72.0,386.0,-627.0,-673.0,1
-43.0,-185.0,-73.0,291.0,-651.0,-656.0,1
-48.0,-193.0,-70.0,198.0,-691.0,-627.0,1
-47.0,-203.0,-57.0,129.0,-744.0,-597.0,1
-37.0,-215.0,-46.0,118.0,-785.0,-566.0,1
-34.0,-217.0,-34.0,154.0,-830.0,-539.0,1
-27.0,-211.0,-34.0,220.0,-866.0,-508.0,1
-32.0,-202.0,-34.0,292.0,-897.0,-467.0,1
-26.0,-186.0,-37.0,347.0,-945.0,-436.0,1
-27.0,-168.0,-52.0,373.0,-996.0,-419.0,1
-17.0,-148.0,-57.0,359.0,-1061.0,-411.0,1
-11.0,-135.0,-61.0,303.0,-1106.0,-406.0,1
-4.0,-131.0,-59.0,229.0,-1139.0,-404.0,1
5.0,-130.0,-53.0,159.0,-1139.0,-400.0,1
11.0,-146.0,-42.0,97.0,-1131.0,-392.0,1
19.0,-164.0,-32.0,45.0,-1110.0,-391.0,1
27.0,-186.0,-26.0,10.0,-1082.0,-370.0,1
31.0,-198.0,-19.0,-6.0,-1056.0,-340.0,1
37.0,-214.0,-15.0,-7.0,-1039.0,-315.0,1
48.0,-228.0,-11.0,1.0,-1024.0,-291.0,1
53.0,-240.0,-13.0,17.0,-1007.0,-275.0,1
57.0,-248.0,-16.0,46.0,-989.0,-262.0,1
55.0,-251.0,-15.0,81.0,-970.0,-252.0,1
60.0,-258.0,-16.0,105.0,-952.0,-240.0,1
62.0,-257.0,-21.0,119.0,-929.0,-235.0,1
61.0,-255.0,-23.0,124.0,-902.0,-231.0,1
57.0,-258.0,-24.0,141.0,-876.0,-231.0,1
61.0,-257.0,-27.0,159.0,-850.0,-225.0,1
57.0,-253.0,-29.0,162.0,-825.0,-214.0,1
56.0,-251.0,-27.0,156.0,-799.0,-205.0,1
43.0,-238.0,-29.0,154.0,-775.0,-197.0,1
40.0,-234.0,-22.0,156.0,-753.0,-183.0,1
37.0,-234.0,-17.0,163.0,-726.0,-159.0,1
27.0,-231.0,-11.0,156.0,-701.0,-133.0,1
22.0,-234.0,-8.0,144.0,-679.0,-113.0,1
19.0,-231.0,-4.0,133.0,-653.0,-99.0,1
14.0,-229.0,3.0,123.0,-629.0,-83.0,1
11.0,-232.0,6.0,118.0,-612.0,-71.0,1
11.0,-230.0,7.0,120.0,-596.0,-61.0,1
7.0,-233.0,9.0,141.0,-574.0,-48.0,1
4.0,-231.0,10.0,172.0,-559.0,-34.0,1
6.0,-241.0,12.0,194.0,-560.0,-26.0,1
0.0,-236.0,11.0,211.0,-568.0,-16.0,1
-9.0,-233.0,15.0,225.0,-585.0,-2.0,1
-23.0,-241.0,23.0,240.0,-613.0,18.0,1
-37.0,-243.0,23.0,259.0,-654.0,35.0,1
-40.0,-252.0,34.0,276.0,-706.0,48.0,1
-47.0,-257.0,38.0,293.0,-762.0,55.0,1
-54.0,-262.0,46.0,301.0,-819.0,54.0,1
-52.0,-271.0,53.0,310.0,-874.0,45.0,1
-37.0,-277.0,49.0,317.0,-918.0,30.0,1
-19.0,-286.0,37.0,333.0,-928.0,-1.0,1
-1.0,-286.0,29.0,358.0,-897.0,-30.0,1
21.0,-286.0,13.0,387.0,-844.0,-53.0,1
35.0,-287.0,5.0,397.0,-795.0,-84.0,1
44.0,-292.0,8.0,375.0,-779.0,-126.0,1
38.0,-292.0,10.0,342.0,-804.0,-160.0,1
35.0,-294.0,16.0,326.0,-842.0,-161.0,1
26.0,-291.0,21.0,328.0,-869.0,-141.0,1
16.0,-288.0,33.0,343.0,-871.0,-125.0,1
11.0,-287.0,47.0,363.0,-862.0,-115.0,1
16.0,-282.0,48.0,389.0,-854.0,-106.0,1
32.0,-286.0,51.0,414.0,-840.0,-93.0,1
47.0,-285.0,55.0,425.0,-806.0,-96.0,1
59.0,-291.0,57.0,421.0,-777.0,-117.0,1
66.0,-299.0,58.0,397.0,-775.0,-151.0,1
68.0,-301.0,50.0,340.0,-799.0,-192.0,1
71.0,-305.0,32.0,254.0,-825.0,-237.0,1
66.0,-319.0,15.0,127.0,-850.0,-284.0,1
58.0,-333.0,-7.0,-29.0,-873.0,-336.0,1
44.0,-361.0,-21.0,-186.0,-877.0,-389.0,1
35.0,-380.0,-37.0,-311.0,-846.0,-441.0,1
16.0,-391.0,-42.0,-383.0,-788.0,-499.0,1
3.0,-404.0,-55.0,-399.0,-722.0,-570.0,1
-2.0,-399.0,-69.0,-376.0,-652.0,-647.0,1
1.0,-382.0,-85.0,-336.0,-589.0,-714.0,1
15.0,-361.0,-94.0,-290.0,-527.0,-774.0,1
48.0,-331.0,-101.0,-224.0,-471.0,-825.0,1
72.0,-298.0,-121.0,-134.0,-413.0,-846.0,1
72.0,-252.0,-128.0,-35.0,-351.0,-791.0,1
69.0,-210.0,-139.0,74.0,-285.0,-655.0,1
57.0,-185.0,-139.0,171.0,-219.0,-501.0,1
39.0,-164.0,-129.0,238.0,-152.0,-365.0,1
14.0,-142.0,-113.0,261.0,-126.0,-242.0,1
-18.0,-136.0,-87.0,235.0,-160.0,-131.0,1
-50.0,-146.0,-82.0,174.0,-237.0,-41.0,1
-68.0,-158.0,-72.0,76.0,-328.0,20.0,1
-100.0,-170.0,-64.0,-32.0,-404.0,52.0,1
-119.0,-187.0,-49.0,-118.0,-450.0,73.0,1
-128.0,-201.0,-50.0,-161.0,-492.0,79.0,1
-123.0,-218.0,-44.0,-180.0,-532.0,83.0,1
-109.0,-230.0,-44.0,-183.0,-571.0,86.0,1
-90.0,-242.0,-41.0,-193.0,-606.0,76.0,1
-68.0,-248.0,-37.0,-214.0,-623.0,55.0,1
-44.0,-258.0,-43.0,-252.0,-610.0,28.0,1
-21.0,-265.0,-40.0,-292.0,-579.0,0.0,1
-11.0,-281.0,-35.0,-318.0,-534.0,-26.0,1
1.0,-293.0,-39.0,-318.0,-485.0,-38.0,1
21.0,-292.0,-54.0,-290.0,-440.0,-30.0,1
35.0,-287.0,-63.0,-253.0,-401.0,-4.0,1
41.0,-279.0,-71.0,-212.0,-361.0,40.0,1
41.0,-273.0,-75.0,-171.0,-326.0,90.0,1
39.0,-265.0,-71.0,-129.0,-303.0,146.0,1
33.0,-265.0,-62.0,-88.0,-294.0,222.0,1
13.0,-258.0,-50.0,-42.0,-287.0,297.0,1
5.0,-254.0,-38.0,-19.0,-312.0,319.0,1
4.0,-242.0,-34.0,7.0,-313.0,336.0,1
-16.0,-237.0,-35.0,36.0,-302.0,365.0,1
-16.0,-224.0,-27.0,64.0,-305.0,334.0,1
-14.0,-212.0,-34.0,93.0,-295.0,313.0,1
-9.0,-198.0,-34.0,103.0,-283.0,320.0,1
-9.0,-191.0,-38.0,116.0,-278.0,342.0,1
-13.0,-181.0,-37.0,113.0,-306.0,310.0,1
-6.0,-169.0,-42.0,97.0,-319.0,244.0,1
-10.0,-166.0,-34.0,71.0,-307.0,226.0,1
-8.0,-163.0,-30.0,44.0,-289.0,232.0,1
-17.0,-164.0,-28.0,18.0,-269.0,222.0,1
-17.0,-165.0,-25.0,-17.0,-247.0,207.0,1
-25.0,-172.0,-27.0,-57.0,-231.0,189.0,1
-21.0,-178.0,-29.0,-92.0,-221.0,169.0,1
-19.0,-187.0,-34.0,-119.0,-207.0,155.0,1
-20.0,-195.0,-32.0,-147.0,-196.0,141.0,1
-17.0,-195.0,-29.0,-182.0,-183.0,133.0,1
-9.0,-204.0,-26.0,-219.0,-165.0,138.0,1
-11.0,-219.0,-17.0,-255.0,-128.0,151.0,1
-9.0,-228.0,-13.0,-282.0,-110.0,141.0,1
-9.0,-245.0,-8.0,-283.0,-87.0,122.0,1
-14.0,-244.0,-9.0,-253.0,-74.0,95.0,1
-17.0,-250.0,-6.0,-224.0,-68.0,71.0,1
-8.0,-246.0,-10.0,-210.0,-64.0,54.0,1
-15.0,-243.0,-7.0,-204.0,-52.0,42.0,1
-17.0,-233.0,-6.0,-195.0,-46.0,34.0,1
-21.0,-231.0,2.0,-186.0,-40.0,34.0,1
-28.0,-228.0,3.0,-175.0,-37.0,18.0,1
-30.0,-228.0,5.0,-160.0,-39.0,-10.0,1
-29.0,-227.0,6.0,-141.0,-42.0,-40.0,1
-31.0,-221.0,9.0,-115.0,-33.0,-58.0,1
-28.0,-218.0,16.0,-93.0,-15.0,-65.0,1
-23.0,-220.0,17.0,-70.0,6.0,-66.0,1
-24.0,-221.0,22.0,-39.0,28.0,-72.0,1
-24.0,-227.0,22.0,0.0,54.0,-75.0,1
-28.0,-235.0,32.0,39.0,78.0,-81.0,1
-29.0,-237.0,32.0,72.0,104.0,-82.0,1
-33.0,-251.0,41.0,114.0,119.0,-86.0,1
-31.0,-258.0,36.0,171.0,119.0,-86.0,1
-33.0,-262.0,34.0,216.0,125.0,-83.0,1
-34.0,-261.0,31.0,251.0,140.0,-69.0,1
-45.0,-267.0,28.0,275.0,155.0,-46.0,1
-49.0,-266.0,16.0,301.0,146.0,-26.0,1
-47.0,-271.0,7.0,313.0,123.0,-12.0,1
-44.0,-269.0,-7.0,306.0,99.0,-8.0,1
-33.0,-270.0,-5.0,283.0,87.0,-12.0,1
-23.0,-272.0,-2.0,268.0,74.0,-34.0,1
-14.0,-273.0,3.0,263.0,73.0,-69.0,1
-12.0,-275.0,1.0,262.0,71.0,-107.0,1
-17.0,-274.0,4.0,249.0,59.0,-137.0,1
-22.0,-283.0,15.0,222.0,58.0,-164.0,1
-39.0,-294.0,39.0,206.0,72.0,-171.0,1
-61.0,-302.0,58.0,212.0,71.0,-155.0,1
-80.0,-308.0,72.0,238.0,53.0,-121.0,1
-91.0,-308.0,72.0,268.0,31.0,-69.0,1
-109.0,-309.0,69.0,293.0,28.0,0.0,1
-114.0,-298.0,63.0,324.0,39.0,82.0,1
-118.0,-291.0,49.0,342.0,64.0,166.0,1
-111.0,-284.0,26.0,325.0,85.0,234.0,1
-114.0,-288.0,-1.0,250.0,106.0,289.0,1
-96.0,-298.0,-35.0,137.0,98.0,313.0,1
-74.0,-311.0,-74.0,-20.0,72.0,305.0,1
-55.0,-330.0,-94.0,-208.0,59.0,302.0,1
-33.0,-360.0,-100.0,-373.0,59.0,295.0,1
-22.0,-379.0,-95.0,-464.0,47.0,280.0,1
-13.0,-387.0,-96.0,-465.0,-2.0,269.0,1
-4.0,-376.0,-95.0,-375.0,-72.0,262.0,1
-7.0,-343.0,-111.0,-249.0,-139.0,251.0,1
-17.0,-311.0,-129.0,-151.0,-179.0,242.0,1
-20.0,-285.0,-142.0,-88.0,-190.0,232.0,1
-18.0,-266.0,-162.0,-72.0,-193.0,215.0,1
-16.0,-250.0,-174.0,-87.0,-205.0,183.0,1
-18.0,-231.0,-170.0,-131.0,-216.0,173.0,1
-25.0,-240.0,-128.0,-185.0,-242.0,198.0,1
-33.0,-241.0,-107.0,-183.0,-343.0,205.0,1
-16.0,-243.0,-88.0,-134.0,-480.0,201.0,1
-5.0,-244.0,-80.0,-81.0,-591.0,201.0,1
-3.0,-251.0,-75.0,-50.0,-654.0,195.0,1
-4.0,-256.0,-71.0,-46.0,-684.0,181.0,1
-3.0,-263.0,-65.0,-57.0,-705.0,156.0,1
0.0,-271.0,-56.0,-51.0,-717.0,126.0,1
7.0,-274.0,-42.0,-14.0,-722.0,95.0,1
10.0,-275.0,-34.0,49.0,-728.0,62.0,1
6.0,-276.0,-31.0,128.0,-745.0,11.0,1
-2.0,-270.0,-22.0,203.0,-776.0,-71.0,1
4.0,-263.0,-28.0,258.0,-820.0,-181.0,1
5.0,-260.0,-32.0,303.0,-816.0,-264.0,1
9.0,-260.0,-35.0,343.0,-792.0,-341.0,1
9.0,-253.0,-40.0,381.0,-772.0,-420.0,1
9.0,-245.0,-47.0,400.0,-751.0,-486.0,1
7.0,-236.0,-54.0,407.0,-727.0,-539.0,1
2.0,-225.0,-59.0,405.0,-720.0,-585.0,1
-3.0,-214.0,-64.0,394.0,-746.0,-648.0,1
-2.0,-206.0,-75.0,365.0,-769.0,-687.0,1
-4.0,-198.0,-75.0,308.0,-784.0,-681.0,1
-6.0,-195.0,-64.0,248.0,-802.0,-660.0,1
-3.0,-193.0,-58.0,212.0,-831.0,-645.0,1
1.0,-188.0,-52.0,205.0,-853.0,-635.0,1
6.0,-182.0,-46.0,223.0,-865.0,-604.0,1
11.0,-179.0,-37.0,250.0,-883.0,-562.0,1
6.0,-163.0,-35.0,282.0,-898.0,-523.0,1
-1.0,-151.0,-42.0,308.0,-923.0,-479.0,1
3.0,-143.0,-50.0,309.0,-966.0,-446.0,1
1.0,-133.0,-55.0,275.0,-1006.0,-413.0,1
0.0,-128.0,-63.0,214.0,-1047.0,-381.0,1
0.0,-122.0,-62.0,143.0,-1084.0,-365.0,1
-1.0,-121.0,-58.0,89.0,-1103.0,-345.0,1
2.0,-134.0,-45.0,45.0,-1119.0,-332.0,1
1.0,-148.0,-61.0,-6.0,-1124.0,-320.0,1
-3.0,-155.0,-51.0,-57.0,-1119.0,-292.0,1
16.0,-182.0,-49.0,-116.0,-1115.0,-260.0,1
17.0,-200.0,-40.0,-161.0,-1116.0,-237.0,1
16.0,-215.0,-33.0,-173.0,-1114.0,-216.0,1
25.0,-223.0,-32.0,-156.0,-1108.0,-197.0,1
33.0,-237.0,-37.0,-133.0,-1104.0,-184.0,1
38.0,-249.0,-33.0,-111.0,-1101.0,-175.0,1
47.0,-258.0,-29.0,-87.0,-1082.0,-169.0,1
52.0,-265.0,-28.0,-67.0,-1061.0,-163.0,1
55.0,-272.0,-28.0,-50.0,-1038.0,-159.0,1
59.0,-271.0,-33.0,-40.0,-1025.0,-161.0,1
57.0,-261.0,-28.0,-30.0,-1011.0,-164.0,1
58.0,-259.0,-23.0,-9.0,-997.0,-152.0,1
57.0,-253.0,-18.0,22.0,-979.0,-130.0,1
59.0,-245.0,-15.0,37.0,-961.0,-113.0,1
58.0,-240.0,-10.0,38.0,-936.0,-99.0,1
57.0,-234.0,-6.0,27.0,-904.0,-91.0,1
54.0,-232.0,3.0,10.0,-861.0,-82.0,1
53.0,-233.0,5.0,-3.0,-818.0,-67.0,1
50.0,-238.0,6.0,-15.0,-773.0,-52.0,1
46.0,-242.0,14.0,-27.0,-736.0,-44.0,1
38.0,-247.0,20.0,-26.0,-700.0,-35.0,1
34.0,-254.0,19.0,-13.0,-668.0,-27.0,1
26.0,-263.0,22.0,16.0,-642.0,-22.0,1
17.0,-264.0,22.0,60.0,-635.0,-17.0,1
5.0,-269.0,15.0,116.0,-637.0,-15.0,1
-3.0,-276.0,20.0,172.0,-653.0,-11.0,1
-17.0,-280.0,26.0,236.0,-674.0,-10.0,1
-16.0,-284.0,29.0,297.0,-701.0,-8.0,1
-28.0,-284.0,30.0,352.0,-725.0,-8.0,1
-29.0,-278.0,32.0,394.0,-751.0,-8.0,1
-12.0,-279.0,31.0,418.0,-763.0,-13.0,1
-4.0,-273.0,17.0,438.0,-738.0,-30.0,1
6.0,-268.0,11.0,463.0,-665.0,-45.0,1
1.0,-265.0,2.0,480.0,-586.0,-54.0,1
9.0,-260.0,-11.0,480.0,-544.0,-65.0,1
29.0,-262.0,-22.0,444.0,-555.0,-95.0,1
33.0,-274.0,-6.0,364.0,-603.0,-148.0,1
20.0,-291.0,18.0,283.0,-680.0,-183.0,1
4.0,-295.0,35.0,249.0,-765.0,-181.0,1
-3.0,-304.0,57.0,273.0,-826.0,-149.0,1
-6.0,-306.0,69.0,334.0,-837.0,-110.0,1
14.0,-308.0,73.0,392.0,-804.0,-93.0,1
28.0,-307.0,81.0,420.0,-760.0,-111.0,1
42.0,-308.0,82.0,429.0,-738.0,-146.0,1
54.0,-311.0,83.0,434.0,-736.0,-187.0,1
59.0,-303.0,71.0,431.0,-751.0,-228.0,1
56.0,-296.0,45.0,396.0,-785.0,-265.0,1
50.0,-295.0,19.0,314.0,-825.0,-289.0,1
27.0,-291.0,5.0,178.0,-862.0,-301.0,1
5.0,-296.0,-15.0,17.0,-878.0,-299.0,1
-12.0,-306.0,-42.0,-135.0,-876.0,-299.0,1
-9.0,-314.0,-76.0,-239.0,-841.0,-306.0,1
0.0,-322.0,-117.0,-298.0,-767.0,-338.0,1
1.0,-321.0,-140.0,-338.0,-662.0,-403.0,1
10.0,-325.0,-158.0,-372.0,-559.0,-524.0,1
24.0,-327.0,-162.0,-383.0,-497.0,-662.0,1
39.0,-329.0,-159.0,-364.0,-473.0,-803.0,1
49.0,-320.0,-164.0,-312.0,-476.0,-911.0,1
49.0,-303.0,-166.0,-252.0,-481.0,-966.0,1
38.0,-263.0,-168.0,-167.0,-456.0,-960.0,1
20.0,-239.0,-151.0,-55.0,-381.0,-888.0,1
-12.0,-208.0,-139.0,71.0,-339.0,-776.0,1
-38.0,-197.0,-135.0,179.0,-353.0,-657.0,1
-57.0,-194.0,-126.0,224.0,-398.0,-541.0,1
-83.0,-204.0,-111.0,206.0,-433.0,-442.0,1
-106.0,-223.0,-86.0,158.0,-449.0,-360.0,1
-127.0,-242.0,-69.0,106.0,-479.0,-277.0,1
-140.0,-256.0,-57.0,82.0,-554.0,-201.0,1
-136.0,-265.0,-63.0,81.0,-656.0,-133.0,1
-123.0,-271.0,-64.0,94.0,-748.0,-66.0,1
-103.0,-270.0,-64.0,109.0,-807.0,3.0,1
-87.0,-266.0,-67.0,119.0,-845.0,65.0,1
-69.0,-267.0,-64.0,117.0,-884.0,105.0,1
-44.0,-270.0,-65.0,110.0,-912.0,129.0,1
-17.0,-271.0,-66.0,105.0,-917.0,145.0,1
3.0,-265.0,-73.0,103.0,-904.0,177.0,1
19.0,-263.0,-75.0,92.0,-890.0,198.0,1
28.0,-260.0,-77.0,87.0,-866.0,226.0,1
29.0,-252.0,-73.0,101.0,-840.0,255.0,1
32.0,-251.0,-71.0,128.0,-807.0,280.0,1
37.0,-246.0,-69.0,168.0,-760.0,303.0,1
50.0,-246.0,-58.0,189.0,-705.0,351.0,1
48.0,-241.0,-52.0,197.0,-654.0,409.0,1
48.0,-243.0,-39.0,177.0,-622.0,410.0,1
38.0,-236.0,-35.0,165.0,-578.0,416.0,1
25.0,-237.0,-29.0,169.0,-551.0,428.0,1
8.0,-225.0,-23.0,171.0,-540.0,405.0,1
7.0,-219.0,-29.0,163.0,-528.0,401.0,1
-5.0,-210.0,-35.0,152.0,-514.0,396.0,1
-8.0,-194.0,-37.0,140.0,-507.0,359.0,1
-4.0,-182.0,-39.0,131.0,-484.0,338.0,1
-7.0,-164.0,-43.0,126.0,-453.0,338.0,1
-2.0,-158.0,-35.0,111.0,-423.0,347.0,1
-3.0,-146.0,-38.0,100.0,-396.0,347.0,1
-9.0,-136.0,-35.0,87.0,-369.0,327.0,1
-13.0,-136.0,-32.0,61.0,-341.0,305.0,1
-5.0,-139.0,-32.0,10.0,-310.0,288.0,1
-7.0,-144.0,-30.0,-59.0,-265.0,288.0,1
-13.0,-151.0,-24.0,-127.0,-232.0,275.0,1
-20.0,-161.0,-24.0,-176.0,-207.0,247.0,1
-23.0,-170.0,-19.0,-208.0,-184.0,212.0,1
-24.0,-185.0,-23.0,-245.0,-154.0,180.0,1
-25.0,-203.0,-17.0,-302.0,-126.0,151.0,1
-26.0,-223.0,-12.0,-354.0,-115.0,113.0,1
-29.0,-238.0,1.0,-391.0,-104.0,72.0,1
-27.0,-247.0,0.0,-393.0,-101.0,42.0,1
-32.0,-258.0,7.0,-369.0,-101.0,22.0,1
-35.0,-262.0,2.0,-335.0,-98.0,6.0,1
-40.0,-264.0,2.0,-309.0,-83.0,-6.0,1
-42.0,-266.0,6.0,-281.0,-62.0,-19.0,1
-41.0,-265.0,8.0,-236.0,-40.0,-38.0,1
-40.0,-261.0,12.0,-179.0,-19.0,-61.0,1
-38.0,-262.0,18.0,-114.0,-7.0,-86.0,1
-39.0,-257.0,21.0,-46.0,3.0,-115.0,1
-29.0,-262.0,26.0,32.0,13.0,-137.0,1
-28.0,-262.0,37.0,112.0,28.0,-156.0,1
-24.0,-262.0,45.0,193.0,43.0,-169.0,1
-19.0,-261.0,50.0,272.0,58.0,-179.0,1
-17.0,-270.0,58.0,347.0,75.0,-184.0,1
-15.0,-265.0,52.0,420.0,80.0,-182.0,1
-17.0,-270.0,49.0,481.0,74.0,-170.0,1
-28.0,-267.0,45.0,531.0,57.0,-154.0,1
-32.0,-269.0,34.0,563.0,18.0,-141.0,1
-37.0,-259.0,20.0,577.0,-23.0,-127.0,1
-39.0,-250.0,9.0,560.0,-55.0,-110.0,1
-38.0,-249.0,1.0,521.0,-78.0,-98.0,1
-39.0,-246.0,2.0,470.0,-91.0,-98.0,1
-27.0,-249.0,3.0,417.0,-92.0,-107.0,1
-26.0,-250.0,1.0,376.0,-88.0,-127.0,1
-22.0,-251.0,-3.0,341.0,-78.0,-151.0,1
-28.0,-251.0,7.0,300.0,-66.0,-182.0,1
-39.0,-261.0,20.0,255.0,-35.0,-191.0,1
-40.0,-270.0,39.0,224.0,-8.0,-196.0,1
-54.0,-279.0,60.0,222.0,-2.0,-186.0,1
-67.0,-282.0,65.0,251.0,-10.0,-150.0,1
-78.0,-289.0,68.0,275.0,-14.0,-89.0,1
-85.0,-288.0,63.0,303.0,-25.0,-30.0,1
-87.0,-286.0,52.0,317.0,-21.0,30.0,1
-83.0,-288.0,30.0,303.0,0.0,95.0,1
-70.0,-293.0,8.0,241.0,33.0,159.0,1
-54.0,-302.0,-14.0,141.0,70.0,204.0,1
-41.0,-319.0,-30.0,17.0,110.0,239.0,1
-19.0,-335.0,-53.0,-100.0,140.0,258.0,1
-3.0,-347.0,-79.0,-209.0,169.0,265.0,1
6.0,-377.0,-90.0,-320.0,204.0,275.0,1
14.0,-386.0,-96.0,-363.0,204.0,263.0,1
9.0,-379.0,-105.0,-320.0,167.0,242.0,1
-2.0,-359.0,-119.0,-216.0,112.0,221.0,1
-17.0,-331.0,-125.0,-90.0,50.0,201.0,1
-22.0,-300.0,-144.0,17.0,-3.0,189.0,1
-26.0,-276.0,-168.0,63.0,-38.0,192.0,1
-41.0,-262.0,-175.0,55.0,-55.0,199.0,1
-53.0,-244.0,-169.0,2.0,-74.0,217.0,1
-55.0,-235.0,-156.0,-66.0,-109.0,237.0,1
-53.0,-241.0,-122.0,-101.0,-180.0,249.0,1
-51.0,-243.0,-97.0,-81.0,-290.0,250.0,1
-48.0,-243.0,-82.0,-27.0,-414.0,250.0,1
-41.0,-249.0,-70.0,29.0,-523.0,245.0,1
-45.0,-249.0,-62.0,79.0,-614.0,226.0,1
-42.0,-247.0,-59.0,124.0,-686.0,193.0,1
-37.0,-248.0,-61.0,155.0,-743.0,153.0,1
-27.0,-253.0,-55.0,174.0,-778.0,101.0,1
-16.0,-249.0,-44.0,199.0,-797.0,44.0,1
-6.0,-247.0,-33.0,254.0,-816.0,-18.0,1
-4.0,-240.0,-29.0,328.0,-838.0,-95.0,1
2.0,-234.0,-22.0,395.0,-862.0,-181.0,1
10.0,-229.0,-19.0,451.0,-866.0,-268.0,1
17.0,-221.0,-27.0,495.0,-856.0,-361.0,1
24.0,-212.0,-35.0,517.0,-842.0,-460.0,1
24.0,-198.0,-49.0,515.0,-831.0,-562.0,1
26.0,-184.0,-60.0,481.0,-827.0,-648.0,1
19.0,-177.0,-68.0,392.0,-840.0,-708.0,1
13.0,-175.0,-74.0,261.0,-856.0,-728.0,1
8.0,-187.0,-66.0,114.0,-868.0,-716.0,1
0.0,-197.0,-55.0,-7.0,-876.0,-691.0,1
-1.0,-206.0,-41.0,-70.0,-873.0,-658.0,1
-8.0,-216.0,-33.0,-80.0,-862.0,-619.0,1
-12.0,-221.0,-23.0,-47.0,-866.0,-579.0,1
-19.0,-218.0,-27.0,13.0,-870.0,-538.0,1
-32.0,-222.0,-24.0,74.0,-885.0,-495.0,1
-44.0,-216.0,-33.0,144.0,-932.0,-466.0,1
-33.0,-207.0,-36.0,195.0,-986.0,-444.0,1
-30.0,-199.0,-40.0,227.0,-1037.0,-422.0,1
-24.0,-199.0,-39.0,244.0,-1082.0,-405.0,1
-21.0,-198.0,-41.0,250.0,-1116.0,-389.0,1
-13.0,-199.0,-38.0,245.0,-1151.0,-382.0,1
-6.0,-202.0,-34.0,229.0,-1178.0,-375.0,1
2.0,-210.0,-34.0,218.0,-1201.0,-365.0,1
11.0,-216.0,-33.0,203.0,-1210.0,-354.0,1
14.0,-234.0,-25.0,191.0,-1215.0,-340.0,1
24.0,-240.0,-24.0,186.0,-1224.0,-334.0,1
30.0,-246.0,-22.0,191.0,-1228.0,-334.0,1
36.0,-249.0,-18.0,199.0,-1229.0,-330.0,1
35.0,-250.0,-20.0,215.0,-1223.0,-323.0,1
39.0,-248.0,-13.0,232.0,-1213.0,-318.0,1
44.0,-253.0,-14.0,254.0,-1200.0,-316.0,1
47.0,-247.0,-14.0,261.0,-1189.0,-307.0,1
43.0,-241.0,-16.0,256.0,-1185.0,-296.0,1
48.0,-236.0,-11.0,254.0,-1186.0,-287.0,1
47.0,-225.0,-15.0,257.0,-1180.0,-276.0,1
41.0,-223.0,-10.0,259.0,-1168.0,-258.0,1
36.0,-215.0,-9.0,246.0,-1160.0,-234.0,1
37.0,-215.0,2.0,220.0,-1150.0,-210.0,1
26.0,-209.0,1.0,206.0,-1138.0,-188.0,1
11.0,-209.0,7.0,194.0,-1138.0,-165.0,1
5.0,-209.0,8.0,180.0,-1143.0,-134.0,1
6.0,-217.0,8.0,159.0,-1150.0,-97.0,1
-1.0,-217.0,12.0,131.0,-1158.0,-73.0,1
-2.0,-220.0,15.0,114.0,-1156.0,-50.0,1
-10.0,-228.0,27.0,118.0,-1151.0,-27.0,1
-19.0,-230.0,32.0,140.0,-1152.0,-2.0,1
-21.0,-237.0,36.0,159.0,-1169.0,19.0,1
-22.0,-238.0,36.0,178.0,-1192.0,36.0,1
-23.0,-240.0,39.0,194.0,-1214.0,49.0,1
-20.0,-250.0,41.0,201.0,-1230.0,56.0,1
-18.0,-249.0,36.0,196.0,-1238.0,59.0,1
-6.0,-253.0,37.0,185.0,-1236.0,57.0,1
-3.0,-251.0,27.0,172.0,-1221.0,52.0,1
24.0,-257.0,18.0,167.0,-1182.0,43.0,1
49.0,-255.0,-16.0,172.0,-1096.0,3.0,1
78.0,-255.0,-44.0,174.0,-943.0,-43.0,1
106.0,-257.0,-72.0,167.0,-743.0,-91.0,1
113.0,-264.0,-69.0,131.0,-591.0,-137.0,1
91.0,-288.0,-39.0,76.0,-582.0,-177.0,1
56.0,-315.0,6.0,38.0,-710.0,-180.0,1
35.0,-326.0,37.0,82.0,-887.0,-138.0,1
17.0,-329.0,54.0,200.0,-992.0,-81.0,1
25.0,-323.0,62.0,314.0,-994.0,-30.0,1
39.0,-312.0,62.0,366.0,-936.0,-5.0,1
57.0,-305.0,61.0,347.0,-859.0,-9.0,1
68.0,-309.0,60.0,291.0,-785.0,-33.0,1
76.0,-313.0,62.0,241.0,-742.0,-77.0,1
83.0,-316.0,70.0,221.0,-751.0,-128.0,1
83.0,-321.0,66.0,233.0,-792.0,-170.0,1
83.0,-316.0,70.0,263.0,-838.0,-192.0,1
74.0,-307.0,69.0,299.0,-868.0,-190.0,1
53.0,-287.0,67.0,331.0,-884.0,-163.0,1
35.0,-258.0,52.0,342.0,-866.0,-114.0,1
2.0,-229.0,25.0,311.0,-836.0,-61.0,1
-25.0,-214.0,-25.0,213.0,-810.0,-8.0,1
-51.0,-216.0,-68.0,46.0,-795.0,6.0,1
-65.0,-232.0,-119.0,-156.0,-786.0,-23.0,1
-68.0,-258.0,-147.0,-348.0,-770.0,-89.0,1
-63.0,-295.0,-159.0,-477.0,-759.0,-163.0,1
-29.0,-328.0,-159.0,-519.0,-750.0,-241.0,1
-11.0,-342.0,-160.0,-510.0,-744.0,-335.0,1
24.0,-344.0,-174.0,-489.0,-755.0,-434.0,1
57.0,-328.0,-182.0,-460.0,-751.0,-522.0,1
84.0,-303.0,-185.0,-417.0,-708.0,-584.0,1
81.0,-283.0,-167.0,-352.0,-632.0,-621.0,1
63.0,-268.0,-143.0,-271.0,-569.0,-635.0,1
24.0,-259.0,-114.0,-188.0,-561.0,-618.0,1
-8.0,-246.0,-90.0,-123.0,-622.0,-568.0,1
-33.0,-234.0,-64.0,-76.0,-707.0,-515.0,1
-58.0,-220.0,-49.0,-37.0,-742.0,-468.0,1
-76.0,-203.0,-28.0,-3.0,-727.0,-414.0,1
-91.0,-189.0,-12.0,38.0,-696.0,-344.0,1
-98.0,-183.0,-4.0,73.0,-689.0,-253.0,1
-88.0,-180.0,-9.0,83.0,-726.0,-158.0,1
-79.0,-181.0,-14.0,66.0,-784.0,-62.0,1
-68.0,-185.0,-30.0,28.0,-820.0,34.0,1
-56.0,-194.0,-42.0,-30.0,-823.0,125.0,1
-45.0,-207.0,-55.0,-111.0,-795.0,206.0,1
-18.0,-225.0,-57.0,-198.0,-762.0,264.0,1
-5.0,-236.0,-58.0,-276.0,-732.0,295.0,1
13.0,-258.0,-52.0,-340.0,-714.0,299.0,1
36.0,-280.0,-41.0,-376.0,-708.0,286.0,1
52.0,-303.0,-37.0,-381.0,-708.0,269.0,1
58.0,-320.0,-26.0,-356.0,-697.0,261.0,1
60.0,-330.0,-23.0,-302.0,-671.0,251.0,1
65.0,-339.0,-17.0,-238.0,-609.0,274.0,1
62.0,-334.0,-20.0,-157.0,-552.0,279.0,1
58.0,-323.0,-19.0,-70.0,-488.0,293.0,1
54.0,-300.0,-23.0,15.0,-457.0,320.0,1
40.0,-285.0,-25.0,73.0,-449.0,344.0,1
28.0,-260.0,-34.0,106.0,-444.0,369.0,1
7.0,-237.0,-39.0,110.0,-449.0,398.0,1
-14.0,-218.0,-45.0,91.0,-458.0,424.0,1
-27.0,-202.0,-47.0,74.0,-461.0,451.0,1
-38.0,-192.0,-46.0,50.0,-459.0,479.0,1
-44.0,-192.0,-39.0,25.0,-459.0,494.0,1
-57.0,-188.0,-24.0,23.0,-460.0,492.0,1
-60.0,-191.0,-17.0,49.0,-457.0,485.0,1
-61.0,-192.0,-8.0,84.0,-456.0,460.0,1
-63.0,-194.0,-3.0,111.0,-453.0,418.0,1
-58.0,-196.0,-6.0,134.0,-443.0,367.0,1
-51.0,-197.0,-10.0,148.0,-425.0,317.0,1
-41.0,-194.0,-13.0,136.0,-398.0,278.0,1
-29.0,-192.0,-19.0,94.0,-365.0,251.0,1
-20.0,-193.0,-19.0,31.0,-329.0,236.0,1
-15.0,-199.0,-22.0,-37.0,-307.0,225.0,1
-12.0,-197.0,-23.0,-100.0,-305.0,212.0,1
-5.0,-201.0,-25.0,-159.0,-299.0,200.0,1
-2.0,-202.0,-26.0,-208.0,-286.0,196.0,1
7.0,-198.0,-19.0,-240.0,-261.0,208.0,1
7.0,-207.0,-16.0,-257.0,-219.0,231.0,1
8.0,-205.0,-13.0,-259.0,-188.0,237.0,1
6.0,-207.0,-18.0,-267.0,-147.0,239.0,1
-3.0,-207.0,-18.0,-276.0,-83.0,235.0,1
1.0,-214.0,-17.0,-276.0,-20.0,225.0,1
5.0,-215.0,-20.0,-264.0,50.0,199.0,1
4.0,-203.0,-25.0,-246.0,119.0,165.0,1
17.0,-208.0,-12.0,-246.0,192.0,149.0,1
18.0,-208.0,-8.0,-246.0,260.0,140.0,1
13.0,-215.0,-3.0,-232.0,320.0,119.0,1
12.0,-221.0,5.0,-189.0,367.0,84.0,1
11.0,-236.0,16.0,-138.0,404.0,53.0,1
9.0,-249.0,25.0,-83.0,434.0,29.0,1
-3.0,-259.0,36.0,-17.0,441.0,-16.0,1
-7.0,-263.0,33.0,46.0,436.0,-39.0,1
-23.0,-275.0,40.0,101.0,426.0,-45.0,1
-32.0,-277.0,41.0,145.0,413.0,-35.0,1
-46.0,-280.0,36.0,175.0,372.0,-26.0,1
-54.0,-275.0,26.0,194.0,307.0,-20.0,1
-55.0,-278.0,15.0,199.0,257.0,-20.0,1
-53.0,-282.0,4.0,193.0,228.0,-28.0,1
-57.0,-292.0,4.0,191.0,224.0,-45.0,1
-52.0,-301.0,19.0,195.0,230.0,-70.0,1
-51.0,-311.0,29.0,219.0,239.0,-104.0,1
-67.0,-309.0,32.0,248.0,239.0,-132.0,1
-60.0,-311.0,38.0,282.0,225.0,-144.0,1
-61.0,-321.0,38.0,305.0,195.0,-160.0,1
-67.0,-324.0,45.0,310.0,155.0,-162.0,1
-72.0,-316.0,44.0,315.0,127.0,-140.0,1
-76.0,-308.0,43.0,329.0,99.0,-108.0,1
-77.0,-295.0,39.0,365.0,65.0,-79.0,1
-74.0,-282.0,35.0,409.0,34.0,-46.0,1
-67.0,-268.0,26.0,451.0,8.0,-16.0,1
-56.0,-255.0,21.0,485.0,-10.0,-8.0,1
-53.0,-244.0,10.0,501.0,-21.0,-5.0,1
-51.0,-228.0,-18.0,483.0,-31.0,5.0,1
-38.0,-216.0,-66.0,408.0,-32.0,29.0,1
-17.0,-208.0,-119.0,261.0,-8.0,52.0,1
1.0,-209.0,-161.0,51.0,47.0,65.0,1
11.0,-219.0,-189.0,-171.0,114.0,75.0,1
26.0,-235.0,-193.0,-365.0,177.0,95.0,1
31.0,-249.0,-187.0,-491.0,223.0,106.0,1
54.0,-247.0,-186.0,-536.0,270.0,104.0,1
52.0,-234.0,-187.0,-552.0,306.0,111.0,1
28.0,-216.0,-171.0,-563.0,305.0,136.0,1
-4.0,-199.0,-154.0,-561.0,248.0,173.0,1
-46.0,-194.0,-143.0,-568.0,137.0,208.0,1
-57.0,-206.0,-137.0,-615.0,-8.0,241.0,1
-61.0,-229.0,-126.0,-691.0,-131.0,283.0,1
-57.0,-262.0,-108.0,-749.0,-213.0,318.0,1
-29.0,-307.0,-88.0,-771.0,-238.0,338.0,1
-7.0,-352.0,-67.0,-773.0,-198.0,337.0,1
11.0,-396.0,-57.0,-769.0,-129.0,323.0,1
22.0,-429.0,-52.0,-768.0,-83.0,311.0,1
29.0,-455.0,-74.0,-758.0,-106.0,294.0,1
32.0,-478.0,-104.0,-718.0,-190.0,258.0,1
23.0,-489.0,-113.0,-608.0,-299.0,190.0,1
0.0,-490.0,-106.0,-385.0,-394.0,98.0,1
-22.0,-479.0,-100.0,-48.0,-462.0,-21.0,1
-21.0,-448.0,-98.0,310.0,-503.0,-156.0,1
-6.0,-390.0,-105.0,608.0,-480.0,-292.0,1
-18.0,-340.0,-108.0,806.0,-424.0,-466.0,1
-8.0,-292.0,-108.0,892.0,-394.0,-657.0,1
-13.0,-251.0,-109.0,892.0,-363.0,-827.0,1
-17.0,-209.0,-100.0,860.0,-336.0,-972.0,1
-28.0,-165.0,-109.0,824.0,-329.0,-1074.0,1
-40.0,-128.0,-111.0,756.0,-340.0,-1131.0,1
-41.0,-103.0,-111.0,636.0,-365.0,-1155.0,1
-42.0,-106.0,-102.0,489.0,-393.0,-1145.0,1
-36.0,-120.0,-86.0,349.0,-439.0,-1119.0,1
-33.0,-130.0,-64.0,241.0,-478.0,-1080.0,1
-31.0,-144.0,-50.0,171.0,-509.0,-1025.0,1
-35.0,-151.0,-41.0,139.0,-523.0,-967.0,1
-44.0,-153.0,-34.0,134.0,-554.0,-916.0,1
-55.0,-153.0,-29.0,136.0,-611.0,-886.0,1
-57.0,-148.0,-29.0,139.0,-689.0,-870.0,1
-49.0,-149.0,-26.0,137.0,-769.0,-869.0,1
-39.0,-143.0,-18.0,135.0,-836.0,-876.0,1
-24.0,-146.0,-10.0,132.0,-880.0,-880.0,1
-4.0,-150.0,-4.0,112.0,-892.0,-880.0,1
16.0,-166.0,9.0,75.0,-878.0,-876.0,1
31.0,-178.0,14.0,33.0,-848.0,-862.0,1
51.0,-196.0,19.0,-16.0,-806.0,-847.0,1
59.0,-206.0,23.0,-59.0,-764.0,-824.0,1
73.0,-227.0,20.0,-90.0,-731.0,-789.0,1
91.0,-248.0,17.0,-108.0,-700.0,-750.0,1
97.0,-270.0,14.0,-120.0,-682.0,-713.0,1
107.0,-284.0,10.0,-112.0,-675.0,-685.0,1
110.0,-290.0,-2.0,-73.0,-677.0,-662.0,1
104.0,-302.0,-11.0,-22.0,-672.0,-647.0,1
93.0,-300.0,-23.0,43.0,-652.0,-642.0,1
76.0,-292.0,-33.0,122.0,-610.0,-628.0,1
66.0,-282.0,-32.0,208.0,-554.0,-599.0,1
54.0,-271.0,-34.0,296.0,-502.0,-568.0,1
40.0,-257.0,-30.0,375.0,-453.0,-529.0,1
28.0,-241.0,-29.0,438.0,-411.0,-485.0,1
13.0,-215.0,-24.0,502.0,-380.0,-436.0,1
4.0,-205.0,-23.0,551.0,-371.0,-377.0,1
-6.0,-193.0,-20.0,580.0,-395.0,-319.0,1
-12.0,-181.0,-21.0,584.0,-429.0,-263.0,1
-15.0,-177.0,-21.0,577.0,-456.0,-228.0,1
-18.0,-177.0,-22.0,565.0,-477.0,-209.0,1
-18.0,-177.0,-24.0,541.0,-494.0,-193.0,1
-13.0,-184.0,-24.0,509.0,-513.0,-179.0,1
-13.0,-189.0,-24.0,478.0,-533.0,-165.0,1
-11.0,-192.0,-24.0,453.0,-554.0,-150.0,1
-12.0,-192.0,-27.0,427.0,-579.0,-128.0,1
-5.0,-198.0,-28.0,399.0,-605.0,-108.0,1
-1.0,-204.0,-27.0,368.0,-632.0,-93.0,1
-2.0,-211.0,-22.0,344.0,-666.0,-83.0,1
7.0,-224.0,-14.0,338.0,-706.0,-80.0,1
12.0,-224.0,-18.0,355.0,-753.0,-80.0,1
15.0,-244.0,-4.0,383.0,-802.0,-82.0,1
18.0,-250.0,0.0,415.0,-856.0,-84.0,1
26.0,-265.0,5.0,443.0,-913.0,-88.0,1
30.0,-277.0,12.0,470.0,-968.0,-95.0,1
27.0,-290.0,13.0,500.0,-1019.0,-107.0,1
25.0,-295.0,18.0,524.0,-1071.0,-115.0,1
22.0,-313.0,25.0,539.0,-1120.0,-122.0,1
15.0,-315.0,22.0,549.0,-1169.0,-125.0,1
14.0,-323.0,26.0,550.0,-1224.0,-123.0,1
5.0,-324.0,33.0,562.0,-1271.0,-130.0,1
4.0,-317.0,28.0,580.0,-1306.0,-130.0,1
-3.0,-312.0,34.0,607.0,-1329.0,-124.0,1
-1.0,-309.0,34.0,635.0,-1346.0,-118.0,1
1.0,-295.0,41.0,665.0,-1346.0,-104.0,1
5.0,-283.0,39.0,682.0,-1336.0,-92.0,1
10.0,-271.0,44.0,669.0,-1333.0,-77.0,1
15.0,-254.0,43.0,615.0,-1346.0,-67.0,1
37.0,-255.0,49.0,515.0,-1379.0,-58.0,1
53.0,-250.0,51.0,431.0,-1368.0,-48.0,1
61.0,-244.0,43.0,390.0,-1319.0,-32.0,1
67.0,-240.0,40.0,341.0,-1270.0,-20.0,1
74.0,-236.0,30.0,277.0,-1216.0,-9.0,1
78.0,-232.0,23.0,194.0,-1151.0,9.0,1
77.0,-229.0,14.0,85.0,-1092.0,28.0,1
78.0,-230.0,10.0,-12.0,-1036.0,42.0,1
75.0,-234.0,-4.0,-120.0,-985.0,53.0,1
78.0,-241.0,-15.0,-231.0,-944.0,67.0,1
78.0,-249.0,-26.0,-329.0,-903.0,81.0,1
76.0,-261.0,-32.0,-409.0,-855.0,87.0,1
80.0,-273.0,-32.0,-460.0,-804.0,98.0,1
76.0,-279.0,-36.0,-472.0,-747.0,101.0,1
75.0,-284.0,-36.0,-449.0,-678.0,106.0,1
74.0,-289.0,-35.0,-401.0,-605.0,117.0,1
69.0,-287.0,-29.0,-330.0,-532.0,130.0,1
65.0,-283.0,-23.0,-242.0,-465.0,139.0,1
64.0,-279.0,-19.0,-158.0,-405.0,147.0,1
64.0,-262.0,-20.0,-102.0,-347.0,158.0,1
61.0,-248.0,-23.0,-74.0,-290.0,166.0,1
64.0,-238.0,-25.0,-68.0,-245.0,170.0,1
59.0,-225.0,-24.0,-81.0,-215.0,169.0,1
52.0,-222.0,-29.0,-95.0,-206.0,174.0,1
43.0,-212.0,-24.0,-104.0,-209.0,182.0,1
33.0,-213.0,-26.0,-105.0,-223.0,190.0,1
26.0,-215.0,-26.0,-102.0,-236.0,196.0,1
16.0,-208.0,-21.0,-98.0,-248.0,204.0,1
11.0,-203.0,-29.0,-91.0,-256.0,215.0,1
7.0,-201.0,-31.0,-72.0,-269.0,239.0,1
-1.0,-194.0,-38.0,-47.0,-289.0,269.0,1
-6.0,-190.0,-50.0,-21.0,-323.0,306.0,1
-9.0,-184.0,-51.0,1.0,-366.0,348.0,1
-22.0,-179.0,-60.0,20.0,-416.0,396.0,1
-24.0,-173.0,-66.0,39.0,-475.0,444.0,1
-31.0,-170.0,-82.0,47.0,-527.0,481.0,1
-33.0,-168.0,-85.0,46.0,-569.0,507.0,1
-38.0,-161.0,-94.0,35.0,-591.0,518.0,1
-37.0,-161.0,-99.0,15.0,-603.0,517.0,1
-39.0,-159.0,-109.0,-18.0,-605.0,498.0,1
-43.0,-169.0,-112.0,-65.0,-603.0,455.0,1
-38.0,-180.0,-120.0,-132.0,-579.0,391.0,1
-37.0,-198.0,-123.0,-237.0,-542.0,304.0,1
-37.0,-227.0,-138.0,-384.0,-491.0,195.0,1
-36.0,-259.0,-142.0,-558.0,-439.0,68.0,1
-29.0,-292.0,-153.0,-719.0,-385.0,-68.0,1
-21.0,-325.0,-150.0,-845.0,-332.0,-196.0,1
-15.0,-354.0,-161.0,-917.0,-285.0,-311.0,1
-9.0,-382.0,-167.0,-914.0,-253.0,-406.0,1
-2.0,-399.0,-166.0,-850.0,-243.0,-476.0,1
7.0,-408.0,-157.0,-737.0,-230.0,-516.0,1
20.0,-411.0,-148.0,-595.0,-203.0,-520.0,1
31.0,-397.0,-133.0,-436.0,-154.0,-487.0,1
35.0,-372.0,-129.0,-280.0,-91.0,-417.0,1
36.0,-351.0,-122.0,-163.0,-46.0,-322.0,1
22.0,-327.0,-108.0,-82.0,-36.0,-215.0,1
14.0,-308.0,-101.0,-21.0,-58.0,-102.0,1
7.0,-299.0,-97.0,28.0,-105.0,6.0,1
-7.0,-289.0,-93.0,70.0,-167.0,109.0,1
-21.0,-279.0,-88.0,104.0,-226.0,213.0,1
-26.0,-269.0,-85.0,128.0,-281.0,309.0,1
-35.0,-261.0,-76.0,137.0,-322.0,394.0,1
-42.0,-259.0,-71.0,132.0,-364.0,466.0,1
-43.0,-259.0,-66.0,119.0,-404.0,532.0,1
-48.0,-256.0,-58.0,98.0,-438.0,587.0,1
-48.0,-255.0,-56.0,81.0,-474.0,632.0,1
-46.0,-256.0,-48.0,58.0,-505.0,665.0,1
-43.0,-250.0,-40.0,42.0,-520.0,691.0,1
-37.0,-252.0,-33.0,37.0,-522.0,708.0,1
-33.0,-246.0,-30.0,39.0,-509.0,722.0,1
-29.0,-241.0,-27.0,49.0,-492.0,737.0,1
-21.0,-234.0,-27.0,61.0,-475.0,748.0,1
-14.0,-224.0,-28.0,55.0,-461.0,756.0,1
-2.0,-218.0,-28.0,26.0,-448.0,761.0,1
9.0,-211.0,-23.0,-3.0,-432.0,761.0,1
16.0,-203.0,-23.0,-25.0,-403.0,761.0,1
9.0,-198.0,-21.0,-38.0,-364.0,759.0,1
16.0,-195.0,-20.0,-55.0,-335.0,760.0,1
18.0,-193.0,-18.0,-71.0,-315.0,757.0,1
17.0,-196.0,-12.0,-91.0,-292.0,742.0,1
18.0,-200.0,-3.0,-100.0,-264.0,730.0,1
20.0,-202.0,2.0,-105.0,-244.0,711.0,1
22.0,-205.0,0.0,-106.0,-226.0,691.0,1
20.0,-212.0,4.0,-110.0,-194.0,675.0,1
15.0,-208.0,4.0,-121.0,-156.0,665.0,1
5.0,-211.0,-1.0,-128.0,-129.0,650.0,1
-6.0,-205.0,-6.0,-141.0,-103.0,627.0,1
-8.0,-206.0,-5.0,-159.0,-82.0,585.0,1
-19.0,-205.0,3.0,-169.0,-58.0,541.0,1
-20.0,-203.0,-6.0,-170.0,-34.0,499.0,1
-24.0,-201.0,-6.0,-174.0,8.0,457.0,1
-25.0,-199.0,-2.0,-159.0,61.0,420.0,1
-21.0,-200.0,-3.0,-122.0,119.0,385.0,1
-24.0,-201.0,-6.0,-76.0,181.0,363.0,1
-21.0,-201.0,-4.0,-26.0,227.0,340.0,1
-22.0,-202.0,-3.0,21.0,276.0,307.0,1
-22.0,-206.0,-2.0,72.0,306.0,258.0,1
-16.0,-207.0,-6.0,113.0,341.0,218.0,1
-26.0,-207.0,-1.0,141.0,387.0,187.0,1
-33.0,-207.0,-4.0,154.0,414.0,160.0,1
-37.0,-213.0,-3.0,155.0,436.0,142.0,1
-37.0,-209.0,-1.0,152.0,442.0,120.0,1
-48.0,-209.0,-4.0,139.0,442.0,85.0,1
-60.0,-212.0,-6.0,128.0,438.0,32.0,1
-65.0,-209.0,4.0,126.0,433.0,-11.0,1
-72.0,-215.0,8.0,136.0,431.0,-67.0,1
-70.0,-221.0,17.0,160.0,431.0,-125.0,1
-74.0,-223.0,32.0,197.0,429.0,-187.0,1
-69.0,-231.0,42.0,241.0,419.0,-243.0,1
-68.0,-228.0,46.0,292.0,406.0,-289.0,1
-66.0,-242.0,54.0,340.0,392.0,-322.0,1
-66.0,-248.0,55.0,387.0,383.0,-343.0,1
-61.0,-250.0,55.0,433.0,375.0,-345.0,1
-53.0,-257.0,52.0,449.0,375.0,-338.0,1
-48.0,-266.0,61.0,467.0,385.0,-325.0,1
-48.0,-276.0,59.0,502.0,406.0,-300.0,1
-40.0,-273.0,61.0,539.0,430.0,-259.0,1
-29.0,-278.0,63.0,567.0,453.0,-213.0,1
-14.0,-276.0,52.0,618.0,467.0,-177.0,1
-2.0,-273.0,38.0,665.0,477.0,-150.0,1
14.0,-273.0,29.0,686.0,488.0,-131.0,1
24.0,-262.0,20.0,674.0,508.0,-112.0,1
44.0,-266.0,20.0,630.0,551.0,-101.0,1
55.0,-262.0,24.0,572.0,618.0,-110.0,1
59.0,-266.0,36.0,511.0,698.0,-129.0,1
56.0,-270.0,50.0,464.0,772.0,-146.0,1
43.0,-271.0,47.0,408.0,827.0,-161.0,1
27.0,-274.0,43.0,326.0,870.0,-162.0,1
-13.0,-284.0,36.0,255.0,890.0,-158.0,1
-46.0,-290.0,16.0,208.0,883.0,-142.0,1
-81.0,-305.0,-4.0,168.0,873.0,-116.0,1
-99.0,-304.0,-26.0,134.0,851.0,-83.0,1
-127.0,-323.0,-41.0,66.0,825.0,-50.0,1
-142.0,-319.0,-66.0,1.0,780.0,-21.0,1
-156.0,-318.0,-75.0,-83.0,728.0,-4.0,1
-155.0,-317.0,-81.0,-118.0,662.0,-10.0,1
-140.0,-313.0,-90.0,-82.0,586.0,-27.0,1
-129.0,-295.0,-100.0,4.0,515.0,-60.0,1
-109.0,-265.0,-123.0,93.0,455.0,-99.0,1
-92.0,-243.0,-136.0,144.0,403.0,-147.0,1
-75.0,-205.0,-168.0,175.0,348.0,-202.0,1
-64.0,-189.0,-182.0,149.0,292.0,-258.0,1
-54.0,-166.0,-198.0,75.0,244.0,-308.0,1
-39.0,-144.0,-214.0,-31.0,210.0,-343.0,1
-28.0,-136.0,-219.0,-187.0,193.0,-356.0,1
-27.0,-141.0,-224.0,-371.0,185.0,-358.0,1
-27.0,-147.0,-218.0,-531.0,156.0,-340.0,1
-21.0,-168.0,-203.0,-657.0,95.0,-292.0,1
-18.0,-189.0,-185.0,-743.0,13.0,-235.0,1
-7.0,-217.0,-164.0,-790.0,-97.0,-189.0,1
2.0,-250.0,-136.0,-810.0,-225.0,-136.0,1
9.0,-266.0,-120.0,-804.0,-349.0,-74.0,1
19.0,-296.0,-113.0,-780.0,-436.0,12.0,1
32.0,-321.0,-107.0,-751.0,-489.0,108.0,1
31.0,-330.0,-104.0,-725.0,-513.0,192.0,1
26.0,-348.0,-110.0,-693.0,-508.0,250.0,1
26.0,-356.0,-124.0,-625.0,-488.0,273.0,1
29.0,-361.0,-139.0,-523.0,-461.0,254.0,1
26.0,-366.0,-154.0,-388.0,-444.0,203.0,1
27.0,-365.0,-159.0,-214.0,-431.0,128.0,1
25.0,-366.0,-157.0,-29.0,-404.0,30.0,1
29.0,-359.0,-151.0,157.0,-362.0,-88.0,1
37.0,-348.0,-143.0,308.0,-301.0,-226.0,1
32.0,-343.0,-120.0,406.0,-218.0,-364.0,1
36.0,-323.0,-109.0,476.0,-135.0,-495.0,1
38.0,-315.0,-93.0,518.0,-44.0,-611.0,1
54.0,-299.0,-77.0,555.0,48.0,-709.0,1
61.0,-286.0,-65.0,590.0,136.0,-785.0,1
70.0,-278.0,-54.0,627.0,206.0,-826.0,1
71.0,-267.0,-57.0,666.0,236.0,-838.0,1
72.0,-256.0,-65.0,689.0,257.0,-841.0,1
66.0,-247.0,-75.0,684.0,275.0,-842.0,1
51.0,-235.0,-72.0,661.0,301.0,-835.0,1
35.0,-234.0,-65.0,639.0,304.0,-826.0,1
18.0,-229.0,-54.0,611.0,286.0,-824.0,1
-2.0,-229.0,-45.0,588.0,260.0,-820.0,1
-14.0,-230.0,-26.0,576.0,207.0,-816.0,1
-27.0,-229.0,-21.0,572.0,151.0,-813.0,1
-32.0,-227.0,-13.0,559.0,101.0,-806.0,1
-37.0,-224.0,-4.0,532.0,46.0,-800.0,1
-36.0,-225.0,-3.0,482.0,-17.0,-798.0,1
-36.0,-218.0,-5.0,407.0,-93.0,-799.0,1
-31.0,-210.0,-1.0,327.0,-171.0,-801.0,1
-27.0,-219.0,13.0,250.0,-235.0,-796.0,1
-20.0,-226.0,4.0,209.0,-285.0,-795.0,1
-15.0,-230.0,10.0,173.0,-300.0,-805.0,1
-4.0,-238.0,13.0,142.0,-302.0,-825.0,1
1.0,-257.0,19.0,101.0,-302.0,-842.0,1
17.0,-260.0,14.0,55.0,-300.0,-841.0,1
19.0,-273.0,12.0,7.0,-283.0,-846.0,1
17.0,-280.0,12.0,-34.0,-239.0,-864.0,1
9.0,-283.0,21.0,-50.0,-212.0,-872.0,1
17.0,-274.0,8.0,-58.0,-232.0,-856.0,1
33.0,-256.0,5.0,-79.0,-250.0,-828.0,1
52.0,-232.0,-4.0,-85.0,-259.0,-805.0,1
49.0,-220.0,-2.0,-88.0,-249.0,-802.0,1
50.0,-205.0,-9.0,-101.0,-240.0,-797.0,1
57.0,-189.0,-12.0,-126.0,-221.0,-788.0,1
64.0,-176.0,-19.0,-166.0,-181.0,-780.0,1
71.0,-170.0,-28.0,-204.0,-144.0,-794.0,1
72.0,-169.0,-30.0,-246.0,-121.0,-806.0,1
75.0,-173.0,-26.0,-295.0,-117.0,-805.0,1
83.0,-175.0,-22.0,-334.0,-135.0,-794.0,1
87.0,-179.0,-9.0,-343.0,-171.0,-775.0,1
86.0,-173.0,4.0,-325.0,-231.0,-755.0,1
83.0,-176.0,9.0,-275.0,-323.0,-721.0,1
67.0,-184.0,21.0,-193.0,-438.0,-680.0,1
58.0,-189.0,34.0,-83.0,-567.0,-640.0,1
45.0,-200.0,43.0,47.0,-693.0,-608.0,1
39.0,-213.0,42.0,173.0,-805.0,-561.0,1
37.0,-220.0,41.0,271.0,-903.0,-512.0,1
36.0,-227.0,37.0,345.0,-992.0,-455.0,1
35.0,-242.0,37.0,408.0,-1075.0,-395.0,1
38.0,-258.0,36.0,474.0,-1160.0,-337.0,1
37.0,-271.0,41.0,561.0,-1253.0,-283.0,1
29.0,-279.0,39.0,662.0,-1386.0,-239.0,1
22.0,-290.0,44.0,758.0,-1511.0,-206.0,1
17.0,-294.0,38.0,860.0,-1628.0,-183.0,1
13.0,-305.0,37.0,936.0,-1696.0,-161.0,1
0.0,-311.0,39.0,999.0,-1712.0,-145.0,1
-4.0,-314.0,49.0,1044.0,-1707.0,-144.0,1
-16.0,-316.0,63.0,1084.0,-1691.0,-142.0,1
-13.0,-312.0,63.0,1116.0,-1676.0,-127.0,1
-6.0,-310.0,63.0,1130.0,-1657.0,-101.0,1
-14.0,-296.0,59.0,1149.0,-1605.0,-56.0,1
-7.0,-290.0,57.0,1147.0,-1544.0,-5.0,1
-4.0,-275.0,60.0,1133.0,-1464.0,60.0,1
-4.0,-245.0,62.0,1127.0,-1385.0,141.0,1
5.0,-238.0,67.0,1071.0,-1374.0,226.0,1
13.0,-212.0,40.0,1009.0,-1401.0,284.0,1
13.0,-206.0,59.0,929.0,-1430.0,338.0,1
31.0,-199.0,49.0,831.0,-1451.0,376.0,1
46.0,-188.0,35.0,724.0,-1433.0,412.0,1
56.0,-178.0,25.0,599.0,-1406.0,446.0,1
65.0,-162.0,17.0,478.0,-1377.0,468.0,1
78.0,-151.0,8.0,361.0,-1360.0,493.0,1
90.0,-143.0,4.0,246.0,-1349.0,529.0,1
101.0,-142.0,-6.0,131.0,-1325.0,571.0,1
100.0,-144.0,-12.0,22.0,-1287.0,620.0,1
107.0,-152.0,-19.0,-66.0,-1243.0,676.0,1
119.0,-160.0,-50.0,-149.0,-1187.0,712.0,1
138.0,-174.0,-81.0,-260.0,-1115.0,727.0,1
165.0,-191.0,-105.0,-396.0,-996.0,725.0,1
181.0,-205.0,-126.0,-536.0,-824.0,712.0,1
177.0,-217.0,-127.0,-643.0,-643.0,712.0,1
159.0,-223.0,-121.0,-690.0,-506.0,726.0,1
141.0,-233.0,-124.0,-689.0,-418.0,732.0,1
126.0,-235.0,-138.0,-650.0,-351.0,724.0,1
109.0,-229.0,-162.0,-604.0,-280.0,712.0,1
88.0,-224.0,-170.0,-562.0,-195.0,711.0,1
62.0,-213.0,-181.0,-525.0,-123.0,711.0,1
35.0,-208.0,-181.0,-480.0,-84.0,702.0,1
12.0,-196.0,-180.0,-417.0,-53.0,670.0,1
-9.0,-196.0,-175.0,-359.0,-20.0,618.0,1
-21.0,-193.0,-154.0,-303.0,33.0,550.0,1
-31.0,-188.0,-143.0,-236.0,100.0,469.0,1
-35.0,-196.0,-128.0,-167.0,150.0,365.0,1
-33.0,-204.0,-130.0,-108.0,205.0,230.0,1
-30.0,-222.0,-124.0,-82.0,271.0,80.0,1
-30.0,-228.0,-123.0,-84.0,329.0,-77.0,1
-35.0,-236.0,-138.0,-92.0,394.0,-230.0,1
-29.0,-247.0,-148.0,-108.0,469.0,-364.0,1
-16.0,-254.0,-169.0,-129.0,556.0,-476.0,1
-11.0,-261.0,-178.0,-149.0,646.0,-570.0,1
-7.0,-261.0,-188.0,-152.0,722.0,-650.0,1
-14.0,-272.0,-193.0,-143.0,776.0,-707.0,1
-16.0,-280.0,-200.0,-133.0,797.0,-735.0,1
-22.0,-291.0,-191.0,-113.0,804.0,-739.0,1
-18.0,-307.0,-176.0,-81.0,814.0,-729.0,1
-14.0,-320.0,-151.0,-46.0,836.0,-711.0,1
-4.0,-338.0,-121.0,-2.0,874.0,-693.0,1
-2.0,-358.0,-101.0,61.0,903.0,-670.0,1
-1.0,-377.0,-88.0,129.0,899.0,-643.0,1
-6.0,-392.0,-73.0,196.0,867.0,-575.0,1
-8.0,-398.0,-66.0,276.0,811.0,-459.0,1
3.0,-406.0,-72.0,381.0,770.0,-312.0,1
4.0,-392.0,-74.0,500.0,761.0,-156.0,1
13.0,-378.0,-78.0,627.0,761.0,-13.0,1
13.0,-350.0,-70.0,747.0,778.0,111.0,1
20.0,-334.0,-74.0,849.0,812.0,220.0,1
29.0,-314.0,-69.0,930.0,869.0,334.0,1
33.0,-289.0,-61.0,984.0,962.0,456.0,1
49.0,-267.0,-55.0,1010.0,1055.0,563.0,1
44.0,-255.0,-51.0,1016.0,1178.0,689.0,1
45.0,-239.0,-51.0,998.0,1255.0,774.0,1
58.0,-234.0,-39.0,971.0,1359.0,873.0,1
53.0,-222.0,-32.0,959.0,1471.0,1045.0,1
42.0,-211.0,-25.0,956.0,1536.0,1177.0,1
23.0,-207.0,-7.0,963.0,1585.0,1275.0,1
11.0,-199.0,-11.0,1002.0,1639.0,1350.0,1
2.0,-186.0,-23.0,1047.0,1707.0,1420.0,1
-4.0,-156.0,-50.0,1059.0,1773.0,1481.0,1
-24.0,-131.0,-68.0,1019.0,1818.0,1536.0,1
-43.0,-130.0,-79.0,951.0,1839.0,1615.0,1
-58.0,-115.0,-70.0,881.0,1837.0,1710.0,1
-56.0,-111.0,-55.0,818.0,1830.0,1780.0,1
-39.0,-101.0,-18.0,781.0,1829.0,1793.0,1
-21.0,-77.0,4.0,789.0,1832.0,1762.0,1
-3.0,-67.0,19.0,825.0,1851.0,1702.0,1
13.0,-53.0,31.0,884.0,1884.0,1633.0,1
37.0,-43.0,49.0,988.0,1922.0,1568.0,1
52.0,-28.0,57.0,1157.0,1979.0,1516.0,1
65.0,-8.0,48.0,1365.0,2070.0,1473.0,1
66.0,10.0,37.0,1552.0,2172.0,1426.0,1
59.0,29.0,25.0,1669.0,2275.0,1373.0,1
46.0,53.0,18.0,1700.0,2372.0,1327.0,1
31.0,64.0,14.0,1644.0,2463.0,1292.0,1
18.0,61.0,14.0,1535.0,2556.0,1278.0,1
7.0,57.0,25.0,1413.0,2645.0,1289.0,1
-3.0,41.0,39.0,1310.0,2709.0,1310.0,1
-15.0,26.0,47.0,1247.0,2745.0,1316.0,1
-23.0,8.0,53.0,1214.0,2766.0,1300.0,1
-22.0,-11.0,58.0,1174.0,2771.0,1265.0,1
-19.0,-27.0,60.0,1103.0,2768.0,1211.0,1
-12.0,-49.0,62.0,1027.0,2763.0,1151.0,1
-4.0,-71.0,64.0,980.0,2770.0,1094.0,1
4.0,-82.0,56.0,993.0,2796.0,1038.0,1
2.0,-76.0,45.0,1067.0,2829.0,966.0,1
7.0,-74.0,41.0,1168.0,2842.0,894.0,1
22.0,-69.0,34.0,1259.0,2829.0,860.0,1
36.0,-63.0,34.0,1328.0,2804.0,847.0,1
48.0,-50.0,30.0,1385.0,2787.0,852.0,1
59.0,-37.0,26.0,1435.0,2789.0,868.0,1
61.0,-26.0,24.0,1480.0,2806.0,898.0,1
58.0,-11.0,18.0,1512.0,2824.0,952.0,1
53.0,-4.0,16.0,1540.0,2837.0,1025.0,1
37.0,4.0,8.0,1559.0,2854.0,1113.0,1
31.0,20.0,-1.0,1570.0,2868.0,1216.0,1
22.0,24.0,-8.0,1566.0,2893.0,1330.0,1
27.0,38.0,-30.0,1533.0,2911.0,1450.0,1
24.0,45.0,-43.0,1462.0,2946.0,1563.0,1
22.0,45.0,-49.0,1375.0,2992.0,1655.0,1
15.0,41.0,-56.0,1301.0,3035.0,1717.0,1
3.0,42.0,-53.0,1233.0,3067.0,1771.0,1
-19.0,39.0,-20.0,1191.0,3062.0,1853.0,1
-52.0,34.0,-5.0,1207.0,2970.0,1951.0,1
-80.0,34.0,-16.0,1307.0,2787.0,2061.0,1
-127.0,45.0,2.0,1375.0,2568.0,2166.0,1
-124.0,48.0,6.0,1378.0,2279.0,2265.0,1
-128.0,53.0,9.0,1336.0,1979.0,2374.0,1
-127.0,51.0,9.0,1294.0,1689.0,2477.0,1
-135.0,58.0,-2.0,1261.0,1452.0,2571.0,1
-158.0,66.0,-11.0,1238.0,1294.0,2651.0,1
-172.0,70.0,-15.0,1196.0,1198.0,2720.0,1
-212.0,84.0,-41.0,1134.0,1127.0,2769.0,1
-247.0,85.0,-83.0,1052.0,1061.0,2822.0,1
-250.0,90.0,-145.0,928.0,1010.0,2879.0,1
-213.0,86.0,-197.0,732.0,981.0,2915.0,1
-139.0,79.0,-257.0,445.0,988.0,2898.0,1
-40.0,48.0,-324.0,71.0,1037.0,2791.0,1
41.0,-3.0,-358.0,-364.0,1072.0,2623.0,1
126.0,-81.0,-327.0,-775.0,932.0,2450.0,1
225.0,-198.0,-223.0,-921.0,579.0,2300.0,1
265.0,-307.0,-110.0,-618.0,246.0,2167.0,1
147.0,-441.0,52.0,81.0,233.0,2018.0,1
-97.0,-506.0,175.0,904.0,603.0,1996.0,1
-279.0,-538.0,198.0,1705.0,1088.0,2261.0,1
-399.0,-566.0,146.0,2354.0,1394.0,2627.0,1
-436.0,-592.0,60.0,2784.0,1454.0,2928.0,1
-468.0,-628.0,-48.0,2940.0,1409.0,3181.0,1
-498.0,-663.0,-91.0,2900.0,1339.0,3477.0,1
-506.0,-668.0,-99.0,2849.0,1203.0,3790.0,1
-432.0,-635.0,-107.0,2882.0,974.0,4021.0,1
-318.0,-546.0,-157.0,3042.0,612.0,4069.0,1
-192.0,-437.0,-199.0,3287.0,296.0,3935.0,1
-105.0,-345.0,-152.0,3502.0,145.0,3727.0,1
-59.0,-235.0,-64.0,3698.0,130.0,3463.0,1
-37.0,-148.0,-9.0,3800.0,86.0,3116.0,1
-39.0,-58.0,71.0,3722.0,-86.0,2691.0,1
-60.0,15.0,100.0,3523.0,-320.0,2269.0,1
-74.0,24.0,98.0,3241.0,-545.0,1977.0,1
-103.0,2.0,132.0,2888.0,-690.0,1885.0,1
-117.0,-30.0,187.0,2562.0,-721.0,1914.0,1
-157.0,-67.0,270.0,2367.0,-768.0,1871.0,1
-235.0,-70.0,327.0,2322.0,-1001.0,1775.0,1
-279.0,-105.0,375.0,2341.0,-1445.0,1767.0,1
-145.0,-186.0,328.0,2291.0,-1836.0,1657.0,1
-93.0,-280.0,359.0,1883.0,-1978.0,1304.0,1
-180.0,-386.0,566.0,1195.0,-2023.0,832.0,1
-607.0,-207.0,739.0,538.0,-2267.0,143.0,1
-1046.0,128.0,704.0,511.0,-2572.0,247.0,1
-1278.0,180.0,767.0,975.0,-2770.0,1324.0,1
-1436.0,171.0,776.0,1178.0,-3057.0,1927.0,1
-1822.0,15.0,856.0,776.0,-3271.0,2031.0,1
-2220.0,-388.0,544.0,80.0,-3288.0,1888.0,1
-2418.0,-824.0,314.0,-673.0,-2890.0,1511.0,1
-2282.0,-1217.0,538.0,-1493.0,-2651.0,998.0,1
-2201.0,-1431.0,508.0,-2083.0,-3155.0,389.0,1
-1433.0,-1527.0,443.0,-2006.0,-3569.0,-5.0,1
-561.0,-1377.0,285.0,-826.0,-3711.0,-804.0,1
112.0,-1175.0,184.0,872.0,-3703.0,-1501.0,1
297.0,-815.0,117.0,2445.0,-3463.0,-1489.0,1
227.0,-545.0,40.0,3454.0,-3331.0,-888.0,1
71.0,-248.0,-36.0,3839.0,-3122.0,-141.0,1
-28.0,-69.0,-67.0,3704.0,-2647.0,472.0,1
-56.0,48.0,-71.0,3162.0,-2006.0,805.0,1
-62.0,-55.0,-21.0,2353.0,-1203.0,897.0,1
-106.0,-112.0,-3.0,1920.0,-612.0,602.0,1
-127.0,-225.0,78.0,1911.0,-424.0,315.0,1
-136.0,-270.0,70.0,2290.0,-831.0,494.0,1
-77.0,-289.0,42.0,2854.0,-1565.0,1199.0,1
-19.0,-215.0,20.0,3072.0,-1855.0,1643.0,1
63.0,-201.0,70.0,2635.0,-1733.0,1641.0,1
121.0,-155.0,140.0,1967.0,-1529.0,1349.0,1
215.0,-138.0,177.0,1579.0,-1389.0,1023.0,1
293.0,-69.0,138.0,1456.0,-1268.0,670.0,1
307.0,-10.0,113.0,1292.0,-1100.0,360.0,1
297.0,26.0,117.0,1085.0,-958.0,218.0,1
289.0,58.0,111.0,948.0,-816.0,171.0,1
270.0,85.0,85.0,886.0,-648.0,141.0,1
215.0,95.0,72.0,834.0,-460.0,106.0,1
147.0,87.0,70.0,764.0,-291.0,102.0,1
97.0,66.0,76.0,685.0,-136.0,102.0,1
20.0,34.0,88.0,626.0,-21.0,101.0,1
-21.0,-13.0,96.0,606.0,29.0,127.0,1
-59.0,-59.0,99.0,615.0,26.0,167.0,1
-92.0,-89.0,107.0,636.0,-9.0,227.0,1
-101.0,-98.0,125.0,651.0,-61.0,271.0,1
-103.0,-99.0,149.0,660.0,-127.0,282.0,1
-111.0,-89.0,176.0,693.0,-192.0,273.0,1
-124.0,-68.0,201.0,747.0,-271.0,268.0,1
-131.0,-45.0,216.0,797.0,-353.0,269.0,1
-143.0,-22.0,223.0,829.0,-434.0,266.0,1
-156.0,-1.0,223.0,840.0,-519.0,256.0,1
-162.0,25.0,227.0,826.0,-603.0,243.0,1
-160.0,36.0,223.0,794.0,-679.0,213.0,1
-167.0,53.0,224.0,750.0,-727.0,187.0,1
-167.0,54.0,209.0,694.0,-761.0,154.0,1
-176.0,57.0,215.0,626.0,-777.0,116.0,1
-174.0,43.0,219.0,552.0,-784.0,90.0,1
-171.0,19.0,221.0,484.0,-755.0,53.0,1
-163.0,-1.0,222.0,438.0,-683.0,15.0,1
-150.0,-23.0,225.0,410.0,-597.0,-19.0,1
-146.0,-44.0,232.0,400.0,-500.0,-45.0,1
-140.0,-55.0,224.0,398.0,-398.0,-64.0,1
-145.0,-48.0,221.0,394.0,-309.0,-64.0,1
-148.0,-38.0,222.0,373.0,-241.0,-52.0,1
-159.0,-20.0,216.0,346.0,-189.0,-31.0,1
-177.0,-4.0,225.0,305.0,-160.0,3.0,1
-190.0,16.0,225.0,272.0,-173.0,40.0,1
-194.0,22.0,237.0,245.0,-203.0,81.0,1
-199.0,30.0,245.0,220.0,-238.0,123.0,1
-200.0,35.0,245.0,198.0,-274.0,164.0,1
-202.0,31.0,254.0,181.0,-300.0,199.0,1
-199.0,27.0,248.0,175.0,-319.0,229.0,1
-196.0,15.0,248.0,167.0,-324.0,257.0,1
-192.0,11.0,238.0,160.0,-310.0,283.0,1
-189.0,0.0,233.0,147.0,-271.0,287.0,1
-181.0,-6.0,229.0,138.0,-229.0,296.0,1
-159.0,-10.0,224.0,147.0,-178.0,304.0,1
-162.0,-12.0,224.0,171.0,-109.0,323.0,1
-153.0,-11.0,226.0,193.0,-61.0,317.0,1
-148.0,-5.0,225.0,221.0,-43.0,311.0,1
-142.0,-4.0,220.0,241.0,-37.0,302.0,1
-136.0,3.0,216.0,250.0,-35.0,295.0,1
-115.0,10.0,219.0,247.0,-37.0,280.0,1
-132.0,9.0,201.0,242.0,-37.0,270.0,1
-130.0,10.0,206.0,236.0,-37.0,265.0,1
-126.0,12.0,207.0,230.0,-35.0,258.0,1
-121.0,18.0,203.0,229.0,-32.0,253.0,1
-120.0,22.0,200.0,229.0,-29.0,246.0,1
-116.0,22.0,202.0,220.0,-27.0,240.0,1
-111.0,20.0,201.0,208.0,-33.0,240.0,1
-107.0,24.0,208.0,188.0,-44.0,240.0,1
-105.0,21.0,206.0,170.0,-51.0,241.0,1
-100.0,24.0,202.0,158.0,-50.0,241.0,1
-88.0,16.0,212.0,152.0,-41.0,233.0,1
-86.0,18.0,206.0,152.0,-22.0,217.0,1
-84.0,21.0,215.0,156.0,2.0,196.0,1
-83.0,22.0,218.0,164.0,22.0,171.0,1
-85.0,27.0,219.0,170.0,40.0,142.0,1
-86.0,27.0,225.0,169.0,58.0,118.0,1
-88.0,32.0,220.0,162.0,71.0,100.0,1
-94.0,36.0,218.0,146.0,85.0,88.0,1
-100.0,31.0,220.0,126.0,99.0,80.0,1
-105.0,32.0,222.0,108.0,111.0,73.0,1
-106.0,33.0,222.0,94.0,119.0,66.0,1
-108.0,33.0,218.0,82.0,121.0,55.0,1
-110.0,31.0,215.0,74.0,115.0,40.0,1
-110.0,33.0,216.0,63.0,103.0,24.0,1
-118.0,33.0,213.0,53.0,92.0,8.0,1
-116.0,31.0,213.0,48.0,80.0,-8.0,1
-117.0,28.0,217.0,48.0,76.0,-28.0,1
-119.0,27.0,217.0,50.0,80.0,-55.0,1
-125.0,26.0,220.0,50.0,94.0,-85.0,1
-131.0,21.0,219.0,46.0,109.0,-115.0,1
-131.0,23.0,223.0,39.0,126.0,-143.0,1
-140.0,17.0,225.0,26.0,135.0,-168.0,1
-141.0,21.0,227.0,10.0,139.0,-193.0,1
-143.0,23.0,230.0,-7.0,136.0,-214.0,1
-145.0,17.0,228.0,-19.0,130.0,-236.0,1
-148.0,17.0,233.0,-27.0,124.0,-259.0,1
-148.0,17.0,224.0,-30.0,115.0,-280.0,1
-147.0,19.0,222.0,-27.0,108.0,-301.0,1
-152.0,21.0,218.0,-27.0,99.0,-325.0,1
-146.0,20.0,213.0,-33.0,91.0,-354.0,1
-146.0,17.0,205.0,-38.0,83.0,-385.0,1
-143.0,13.0,200.0,-42.0,71.0,-414.0,1
-145.0,12.0,200.0,-39.0,58.0,-440.0,1
-151.0,8.0,202.0,-28.0,41.0,-464.0,1
-151.0,6.0,199.0,-14.0,28.0,-479.0,1
-151.0,0.0,198.0,1.0,24.0,-486.0,1
-152.0,-1.0,203.0,14.0,32.0,-488.0,1
-156.0,-2.0,199.0,26.0,41.0,-490.0,1
-160.0,-2.0,200.0,33.0,49.0,-490.0,1
-161.0,0.0,200.0,32.0,52.0,-487.0,1
-162.0,3.0,199.0,20.0,47.0,-487.0,1
-172.0,5.0,196.0,-3.0,34.0,-484.0,1
-173.0,9.0,196.0,-31.0,12.0,-475.0,1
-175.0,11.0,192.0,-64.0,-13.0,-467.0,1
-172.0,7.0,187.0,-100.0,-38.0,-459.0,1
-171.0,5.0,190.0,-134.0,-64.0,-456.0,1
-171.0,0.0,198.0,-160.0,-86.0,-452.0,1
-176.0,-4.0,198.0,-176.0,-106.0,-450.0,1
-177.0,-7.0,201.0,-182.0,-122.0,-448.0,1
-176.0,-11.0,198.0,-178.0,-137.0,-444.0,1
-179.0,-17.0,203.0,-169.0,-144.0,-437.0,1
-176.0,-23.0,203.0,-162.0,-153.0,-429.0,1
-173.0,-28.0,207.0,-153.0,-161.0,-424.0,1
-172.0,-33.0,210.0,-148.0,-170.0,-423.0,1
-173.0,-35.0,205.0,-145.0,-178.0,-422.0,1
-169.0,-36.0,207.0,-143.0,-190.0,-419.0,1
-170.0,-38.0,216.0,-145.0,-199.0,-414.0,1
-166.0,-37.0,212.0,-154.0,-210.0,-403.0,1
-162.0,-42.0,213.0,-163.0,-229.0,-391.0,1
-161.0,-39.0,212.0,-169.0,-250.0,-378.0,1
-157.0,-45.0,212.0,-170.0,-273.0,-364.0,1
-156.0,-45.0,211.0,-171.0,-289.0,-349.0,1
-154.0,-41.0,207.0,-172.0,-296.0,-337.0,1
-153.0,-40.0,213.0,-172.0,-298.0,-327.0,1
-150.0,-38.0,214.0,-169.0,-299.0,-318.0,1
-150.0,-40.0,210.0,-165.0,-298.0,-312.0,1
-144.0,-40.0,212.0,-166.0,-297.0,-309.0,1
-141.0,-41.0,208.0,-172.0,-303.0,-301.0,1
-143.0,-46.0,214.0,-180.0,-309.0,-298.0,1
-139.0,-43.0,204.0,-188.0,-314.0,-294.0,1
-139.0,-48.0,208.0,-192.0,-318.0,-293.0,1
-136.0,-48.0,207.0,-194.0,-320.0,-288.0,1
-134.0,-56.0,207.0,-193.0,-318.0,-280.0,1
-134.0,-57.0,214.0,-187.0,-314.0,-269.0,1
-135.0,-61.0,217.0,-179.0,-312.0,-253.0,1
-134.0,-67.0,217.0,-171.0,-310.0,-239.0,1
-137.0,-69.0,225.0,-154.0,-306.0,-221.0,1
-134.0,-70.0,230.0,-129.0,-304.0,-199.0,1
-134.0,-74.0,229.0,-102.0,-298.0,-174.0,1
-137.0,-70.0,239.0,-72.0,-287.0,-153.0,1
-131.0,-73.0,233.0,-43.0,-271.0,-135.0,1
-129.0,-68.0,226.0,-19.0,-259.0,-122.0,1
-120.0,-61.0,221.0,-7.0,-258.0,-112.0,1
-115.0,-50.0,202.0,-19.0,-269.0,-101.0,1
-112.0,-41.0,189.0,-51.0,-290.0,-89.0,1
-106.0,-32.0,175.0,-96.0,-311.0,-78.0,1
-114.0,-31.0,174.0,-144.0,-316.0,-65.0,1
-119.0,-42.0,189.0,-173.0,-302.0,-45.0,1
-136.0,-50.0,216.0,-163.0,-273.0,-14.0,1
-138.0,-67.0,236.0,-110.0,-229.0,32.0,1
-139.0,-76.0,263.0,-26.0,-180.0,80.0,1
-138.0,-80.0,273.0,70.0,-131.0,127.0,1
-133.0,-82.0,278.0,153.0,-89.0,163.0,1
-117.0,-75.0,275.0,214.0,-48.0,186.0,1
-107.0,-69.0,275.0,240.0,-16.0,205.0,1
-89.0,-64.0,272.0,239.0,12.0,209.0,1
-82.0,-54.0,273.0,221.0,36.0,212.0,1
-76.0,-49.0,269.0,202.0,55.0,208.0,1
-75.0,-46.0,267.0,182.0,79.0,207.0,1
-77.0,-46.0,264.0,169.0,100.0,202.0,1
-83.0,-46.0,257.0,163.0,115.0,193.0,1
-84.0,-47.0,248.0,158.0,131.0,179.0,1
-90.0,-44.0,240.0,146.0,158.0,158.0,1
-92.0,-43.0,234.0,121.0,189.0,138.0,1
-92.0,-45.0,233.0,86.0,225.0,122.0,1
-96.0,-44.0,230.0,48.0,256.0,107.0,1
-98.0,-42.0,231.0,17.0,281.0,88.0,1
-96.0,-43.0,228.0,-4.0,296.0,78.0,1
-97.0,-46.0,227.0,-13.0,301.0,73.0,1
-96.0,-49.0,229.0,-6.0,299.0,72.0,1
-95.0,-53.0,223.0,16.0,290.0,72.0,1
-96.0,-59.0,224.0,51.0,276.0,73.0,1
-96.0,-56.0,220.0,91.0,259.0,71.0,1
-99.0,-54.0,218.0,125.0,245.0,72.0,1
-101.0,-51.0,214.0,150.0,231.0,75.0,1
-106.0,-50.0,213.0,168.0,219.0,79.0,1
-106.0,-50.0,217.0,182.0,210.0,83.0,1
-114.0,-42.0,211.0,194.0,203.0,86.0,1
-117.0,-42.0,214.0,206.0,201.0,86.0,1
-127.0,-36.0,218.0,212.0,199.0,80.0,1
-124.0,-32.0,216.0,216.0,190.0,75.0,1
-125.0,-33.0,221.0,217.0,196.0,60.0,1
-126.0,-25.0,218.0,213.0,210.0,47.0,1
-131.0,-26.0,223.0,210.0,221.0,33.0,1
-133.0,-23.0,225.0,207.0,233.0,22.0,1
-133.0,-18.0,224.0,207.0,243.0,14.0,1
-135.0,-19.0,222.0,209.0,251.0,6.0,1
-134.0,-18.0,220.0,211.0,262.0,-2.0,1
-133.0,-21.0,223.0,213.0,271.0,-6.0,1
-135.0,-18.0,217.0,217.0,276.0,-9.0,1
-134.0,-16.0,213.0,221.0,280.0,-10.0,1
-136.0,-16.0,213.0,218.0,281.0,-11.0,1
-136.0,-16.0,212.0,212.0,281.0,-10.0,1
-140.0,-17.0,210.0,208.0,277.0,-6.0,1
-141.0,-17.0,212.0,204.0,275.0,-3.0,1
-142.0,-19.0,210.0,198.0,276.0,0.0,1
-144.0,-16.0,207.0,191.0,277.0,2.0,1
-152.0,-13.0,209.0,185.0,276.0,6.0,1
-149.0,-16.0,207.0,178.0,273.0,8.0,1
-152.0,-12.0,208.0,171.0,273.0,13.0,1
-157.0,-14.0,208.0,163.0,269.0,19.0,1
-158.0,-14.0,204.0,158.0,267.0,19.0,1
-154.0,-13.0,207.0,154.0,260.0,21.0,1
-156.0,-10.0,207.0,149.0,255.0,23.0,1
-158.0,-14.0,206.0,144.0,250.0,22.0,1
-157.0,-14.0,210.0,140.0,244.0,18.0,1
-160.0,-17.0,211.0,137.0,238.0,14.0,1
-157.0,-17.0,210.0,135.0,231.0,9.0,1
-158.0,-14.0,205.0,133.0,225.0,6.0,1
-154.0,-15.0,210.0,132.0,220.0,2.0,1
-157.0,-13.0,209.0,131.0,215.0,-2.0,1
-157.0,-17.0,212.0,127.0,210.0,-7.0,1
-160.0,-12.0,211.0,124.0,204.0,-13.0,1
-152.0,-17.0,212.0,123.0,196.0,-17.0,1
-153.0,-17.0,215.0,122.0,189.0,-21.0,1
-154.0,-17.0,213.0,120.0,183.0,-25.0,1
-154.0,-18.0,213.0,118.0,179.0,-29.0,1
-152.0,-23.0,212.0,116.0,175.0,-34.0,1
-151.0,-19.0,210.0,112.0,171.0,-38.0,1
-152.0,-22.0,209.0,111.0,167.0,-44.0,1
-151.0,-20.0,213.0,109.0,166.0,-48.0,1
-151.0,-22.0,205.0,106.0,163.0,-52.0,1
-155.0,-19.0,210.0,103.0,158.0,-55.0,1
-154.0,-19.0,207.0,97.0,153.0,-57.0,1
-149.0,-18.0,208.0,95.0,147.0,-59.0,1
-154.0,-21.0,207.0,91.0,140.0,-60.0,1
-150.0,-23.0,208.0,90.0,131.0,-62.0,1
-151.0,-24.0,205.0,88.0,124.0,-63.0,1
-153.0,-25.0,205.0,88.0,116.0,-63.0,1
-155.0,-22.0,204.0,86.0,107.0,-64.0,1
-149.0,-25.0,204.0,87.0,99.0,-64.0,1
-151.0,-23.0,207.0,87.0,93.0,-63.0,1
-153.0,-24.0,204.0,90.0,88.0,-59.0,1
-156.0,-20.0,205.0,92.0,82.0,-55.0,1
-156.0,-24.0,205.0,93.0,76.0,-51.0,1
-155.0,-25.0,201.0,92.0,69.0,-48.0,1
-160.0,-20.0,204.0,90.0,61.0,-44.0,1
-156.0,-20.0,208.0,88.0,54.0,-38.0,1
-159.0,-20.0,205.0,85.0,47.0,-30.0,1
-160.0,-23.0,205.0,84.0,39.0,-22.0,1
-161.0,-27.0,207.0,77.0,31.0,-19.0,1
-164.0,-18.0,202.0,72.0,20.0,-12.0,1
-162.0,-21.0,204.0,69.0,11.0,-7.0,1
-163.0,-21.0,201.0,62.0,4.0,-2.0,1
-163.0,-24.0,200.0,52.0,0.0,1.0,1
-158.0,-21.0,200.0,40.0,-3.0,6.0,1
-158.0,-27.0,201.0,30.0,-7.0,11.0,1
-162.0,-24.0,204.0,23.0,-9.0,20.0,1
-163.0,-23.0,208.0,17.0,-9.0,26.0,1
-163.0,-22.0,205.0,11.0,-10.0,33.0,1
-156.0,-26.0,203.0,7.0,-10.0,40.0,1
-156.0,-25.0,206.0,1.0,-8.0,48.0,1
-156.0,-28.0,203.0,-4.0,-5.0,53.0,1
-154.0,-29.0,209.0,-6.0,-3.0,58.0,1
-154.0,-28.0,206.0,-6.0,-1.0,61.0,1
-150.0,-25.0,210.0,-5.0,-2.0,64.0,1
-149.0,-32.0,214.0,-4.0,-6.0,64.0,1
-150.0,-27.0,208.0,-6.0,-12.0,64.0,1
-153.0,-24.0,210.0,-4.0,-20.0,63.0,1
-149.0,-29.0,211.0,-3.0,-27.0,60.0,1
-151.0,-29.0,213.0,0.0,-36.0,57.0,1
-148.0,-26.0,210.0,0.0,-45.0,52.0,1
-144.0,-25.0,213.0,1.0,-55.0,49.0,1
-147.0,-28.0,214.0,4.0,-61.0,47.0,1
-144.0,-28.0,212.0,6.0,-65.0,44.0,1
-142.0,-25.0,215.0,9.0,-69.0,41.0,1
-150.0,-28.0,208.0,13.0,-69.0,38.0,1
-146.0,-26.0,212.0,16.0,-71.0,38.0,1
-141.0,-29.0,215.0,17.0,-72.0,38.0,1
-145.0,-24.0,215.0,16.0,-74.0,36.0,1
-144.0,-25.0,219.0,16.0,-76.0,33.0,1
-143.0,-22.0,211.0,16.0,-77.0,30.0,1
-141.0,-29.0,215.0,17.0,-77.0,28.0,1
-143.0,-28.0,213.0,20.0,-76.0,23.0,1
-141.0,-24.0,220.0,23.0,-75.0,22.0,1
-140.0,-26.0,216.0,27.0,-73.0,19.0,1
-144.0,-25.0,214.0,30.0,-69.0,18.0,1
-145.0,-25.0,213.0,31.0,-64.0,16.0,1
-141.0,-24.0,214.0,32.0,-63.0,15.0,1
-138.0,-28.0,213.0,32.0,-60.0,13.0,1
-142.0,-24.0,216.0,31.0,-56.0,12.0,1
-140.0,-25.0,212.0,31.0,-54.0,10.0,1
-137.0,-25.0,212.0,33.0,-50.0,10.0,1
-138.0,-27.0,213.0,36.0,-46.0,10.0,1
-136.0,-22.0,215.0,37.0,-41.0,10.0,1
-136.0,-24.0,213.0,37.0,-37.0,10.0,1
-136.0,-26.0,213.0,37.0,-33.0,11.0,1
-140.0,-23.0,212.0,37.0,-33.0,10.0,1
-138.0,-23.0,213.0,37.0,-33.0,9.0,1
-136.0,-26.0,213.0,33.0,-35.0,10.0,1
-136.0,-25.0,214.0,30.0,-37.0,10.0,1
-137.0,-26.0,215.0,27.0,-39.0,10.0,1
-138.0,-23.0,213.0,25.0,-39.0,8.0,1
-136.0,-23.0,210.0,25.0,-38.0,7.0,1
-138.0,-23.0,214.0,26.0,-35.0,5.0,1
-140.0,-22.0,210.0,27.0,-30.0,6.0,1
-138.0,-23.0,212.0,28.0,-25.0,5.0,1
-139.0,-24.0,214.0,30.0,-22.0,6.0,1
-142.0,-23.0,215.0,33.0,-22.0,7.0,1
-142.0,-25.0,216.0,37.0,-23.0,7.0,1
-142.0,-27.0,210.0,37.0,-26.0,6.0,1
-144.0,-24.0,217.0,38.0,-29.0,4.0,1
-140.0,-29.0,214.0,41.0,-31.0,5.0,1
-142.0,-27.0,215.0,45.0,-31.0,4.0,1
-137.0,-29.0,213.0,50.0,-30.0,2.0,1
-139.0,-25.0,215.0,54.0,-29.0,1.0,1
-139.0,-31.0,216.0,57.0,-27.0,-1.0,1
-139.0,-26.0,219.0,56.0,-29.0,1.0,1
-142.0,-23.0,222.0,54.0,-33.0,2.0,1
-136.0,-24.0,219.0,55.0,-40.0,0.0,1
-133.0,-30.0,224.0,52.0,-23.0,-5.0,1
-136.0,-23.0,218.0,56.0,-2.0,-5.0,1
-136.0,-24.0,215.0,65.0,11.0,-5.0,1
-136.0,-21.0,211.0,73.0,19.0,-8.0,1
-138.0,-21.0,208.0,76.0,26.0,-8.0,1
-136.0,-21.0,208.0,78.0,23.0,-8.0,1
-137.0,-21.0,213.0,79.0,18.0,-6.0,1
-141.0,-22.0,213.0,82.0,14.0,-5.0,1
-139.0,-20.0,210.0,87.0,11.0,-5.0,1
-139.0,-24.0,217.0,88.0,6.0,-3.0,1
-141.0,-20.0,215.0,85.0,2.0,-1.0,1
-143.0,-20.0,217.0,84.0,0.0,-1.0,1
-143.0,-20.0,212.0,78.0,-3.0,1.0,1
-138.0,-23.0,214.0,72.0,-2.0,1.0,1
-139.0,-20.0,216.0,68.0,0.0,1.0,1
-141.0,-20.0,214.0,63.0,3.0,-1.0,1
-141.0,-15.0,214.0,56.0,5.0,-3.0,1
-141.0,-18.0,213.0,50.0,7.0,-4.0,1
-144.0,-15.0,214.0,45.0,7.0,-7.0,1
-145.0,-15.0,212.0,40.0,5.0,-10.0,1
-146.0,-19.0,207.0,38.0,3.0,-15.0,1
-145.0,-20.0,213.0,34.0,0.0,-16.0,1
-147.0,-19.0,210.0,36.0,-3.0,-18.0,1
-146.0,-18.0,214.0,37.0,-5.0,-18.0,1
-145.0,-24.0,214.0,40.0,-6.0,-19.0,1
-145.0,-25.0,212.0,46.0,-8.0,-17.0,1
-149.0,-20.0,217.0,51.0,-7.0,-16.0,1
-147.0,-23.0,214.0,55.0,-7.0,-14.0,1
-149.0,-20.0,213.0,56.0,-6.0,-11.0,1
-146.0,-25.0,214.0,58.0,-4.0,-11.0,1
-148.0,-24.0,217.0,59.0,-3.0,-12.0,1
-146.0,-24.0,215.0,59.0,-4.0,-11.0,1
-149.0,-25.0,214.0,60.0,-4.0,-12.0,1
-146.0,-22.0,215.0,61.0,-6.0,-13.0,1
-146.0,-22.0,214.0,61.0,-6.0,-12.0,1
-148.0,-22.0,215.0,58.0,-5.0,-13.0,1
-148.0,-23.0,217.0,57.0,-3.0,-15.0,1
-146.0,-23.0,216.0,55.0,-2.0,-16.0,1
-145.0,-28.0,215.0,55.0,-1.0,-19.0,1
-143.0,-27.0,213.0,56.0,2.0,-21.0,1
-144.0,-23.0,212.0,59.0,5.0,-21.0,1
-144.0,-23.0,217.0,60.0,6.0,-23.0,1
-145.0,-23.0,213.0,63.0,8.0,-24.0,1
-144.0,-23.0,220.0,69.0,10.0,-26.0,1
-142.0,-25.0,215.0,75.0,8.0,-27.0,1
-141.0,-25.0,211.0,80.0,8.0,-27.0,1
-142.0,-24.0,215.0,84.0,8.0,-32.0,1
-140.0,-24.0,211.0,88.0,8.0,-34.0,1
-140.0,-28.0,213.0,92.0,8.0,-37.0,1
-137.0,-27.0,218.0,95.0,8.0,-39.0,1
-139.0,-27.0,216.0,100.0,7.0,-43.0,1
-138.0,-30.0,214.0,107.0,9.0,-45.0,1
-138.0,-24.0,218.0,113.0,11.0,-47.0,1
-139.0,-27.0,216.0,119.0,14.0,-51.0,1
-137.0,-25.0,220.0,124.0,17.0,-53.0,1
-135.0,-28.0,218.0,130.0,18.0,-53.0,1
-138.0,-29.0,218.0,134.0,20.0,-54.0,1
-140.0,-24.0,218.0,135.0,20.0,-56.0,1
-139.0,-21.0,217.0,136.0,20.0,-57.0,1
-139.0,-25.0,224.0,133.0,21.0,-58.0,1
-137.0,-23.0,215.0,130.0,21.0,-57.0,1
-137.0,-24.0,219.0,122.0,22.0,-56.0,1
-137.0,-22.0,217.0,116.0,25.0,-54.0,1
-139.0,-23.0,218.0,106.0,27.0,-55.0,1
-136.0,-20.0,217.0,98.0,29.0,-54.0,1
-136.0,-19.0,219.0,91.0,34.0,-54.0,1
-139.0,-23.0,217.0,88.0,36.0,-50.0,1
-138.0,-20.0,218.0,86.0,39.0,-50.0,1
-139.0,-22.0,214.0,85.0,41.0,-48.0,1
-137.0,-23.0,215.0,86.0,43.0,-45.0,1
-140.0,-22.0,215.0,88.0,47.0,-43.0,1
-139.0,-21.0,208.0,90.0,50.0,-42.0,1
-136.0,-22.0,209.0,93.0,54.0,-41.0,1
-142.0,-18.0,214.0,97.0,59.0,-36.0,1
-144.0,-20.0,212.0,101.0,62.0,-31.0,1
-142.0,-21.0,214.0,103.0,65.0,-30.0,1
-141.0,-20.0,214.0,102.0,67.0,-27.0,1
-142.0,-19.0,214.0,98.0,68.0,-25.0,1
-144.0,-18.0,217.0,93.0,68.0,-24.0,1
-138.0,-19.0,218.0,88.0,67.0,-21.0,1
-142.0,-18.0,213.0,79.0,65.0,-21.0,1
-143.0,-20.0,212.0,72.0,63.0,-20.0,1
-144.0,-16.0,215.0,65.0,63.0,-20.0,1
-145.0,-19.0,215.0,59.0,62.0,-20.0,1
-146.0,-16.0,213.0,55.0,63.0,-20.0,1
-147.0,-17.0,211.0,52.0,62.0,-19.0,1
-150.0,-22.0,214.0,50.0,61.0,-19.0,1
-145.0,-19.0,209.0,50.0,59.0,-18.0,1
-146.0,-21.0,212.0,50.0,58.0,-16.0,1
-148.0,-21.0,209.0,49.0,58.0,-16.0,1
-151.0,-21.0,211.0,48.0,56.0,-15.0,1
-148.0,-20.0,210.0,49.0,56.0,-14.0,1
-150.0,-19.0,211.0,49.0,54.0,-13.0,1
-149.0,-20.0,211.0,51.0,54.0,-14.0,1
-150.0,-18.0,212.0,53.0,54.0,-14.0,1
-149.0,-18.0,213.0,51.0,52.0,-14.0,1
-147.0,-18.0,211.0,46.0,45.0,-11.0,1
-150.0,-15.0,208.0,40.0,37.0,-11.0,1
-151.0,-15.0,207.0,33.0,30.0,-9.0,1
-149.0,-17.0,207.0,25.0,22.0,-10.0,1
-151.0,-18.0,207.0,16.0,15.0,-10.0,1
-150.0,-18.0,212.0,11.0,10.0,-14.0,1
-151.0,-19.0,206.0,6.0,8.0,-14.0,1
-150.0,-21.0,211.0,4.0,7.0,-16.0,1
-147.0,-23.0,211.0,4.0,8.0,-18.0,1
-152.0,-25.0,211.0,8.0,10.0,-15.0,1
-148.0,-26.0,212.0,11.0,11.0,-15.0,1
-151.0,-27.0,208.0,13.0,10.0,-15.0,1
-151.0,-26.0,210.0,14.0,7.0,-13.0,1
-150.0,-24.0,213.0,15.0,6.0,-13.0,1
-153.0,-23.0,214.0,16.0,3.0,-11.0,1
-150.0,-26.0,212.0,19.0,-1.0,-11.0,1
-149.0,-22.0,212.0,22.0,-3.0,-11.0,1
-150.0,-23.0,209.0,26.0,-5.0,-9.0,1
-149.0,-25.0,210.0,31.0,-10.0,-9.0,1
-150.0,-22.0,213.0,35.0,-12.0,-9.0,1
-151.0,-18.0,210.0,41.0,-16.0,-9.0,1
-148.0,-23.0,215.0,43.0,-20.0,-7.0,1
-148.0,-22.0,212.0,45.0,-23.0,-8.0,1
-148.0,-20.0,208.0,46.0,-24.0,-8.0,1
-147.0,-24.0,211.0,48.0,-25.0,-9.0,1
-147.0,-21.0,213.0,48.0,-25.0,-10.0,1
-145.0,-24.0,211.0,51.0,-26.0,-9.0,1
-144.0,-27.0,214.0,55.0,-24.0,-11.0,1
-143.0,-27.0,211.0,57.0,-23.0,-12.0,1
-143.0,-26.0,215.0,58.0,-22.0,-13.0,1
-145.0,-25.0,211.0,59.0,-22.0,-11.0,1
-145.0,-22.0,213.0,56.0,-22.0,-13.0,1
-145.0,-24.0,212.0,53.0,-22.0,-10.0,1
-144.0,-24.0,212.0,46.0,-21.0,-8.0,1
-146.0,-24.0,217.0,41.0,-20.0,-6.0,1
-140.0,-25.0,214.0,43.0,-22.0,-4.0,1
-142.0,-25.0,215.0,51.0,-21.0,-2.0,1
-139.0,-27.0,210.0,61.0,-20.0,0.0,1
-142.0,-23.0,207.0,67.0,-21.0,1.0,1
-140.0,-27.0,206.0,68.0,-26.0,4.0,1
-141.0,-24.0,205.0,68.0,-32.0,6.0,1
-141.0,-25.0,211.0,67.0,-40.0,8.0,1
-144.0,-26.0,211.0,68.0,-45.0,8.0,1
-143.0,-23.0,213.0,71.0,-45.0,9.0,1
-146.0,-22.0,211.0,69.0,-43.0,10.0,1
-145.0,-24.0,215.0,67.0,-41.0,12.0,1
-141.0,-22.0,209.0,63.0,-39.0,13.0,1
-141.0,-23.0,211.0,58.0,-36.0,12.0,1
-143.0,-20.0,209.0,53.0,-33.0,11.0,1
-142.0,-22.0,220.0,48.0,-30.0,10.0,1
-139.0,-25.0,214.0,48.0,-28.0,9.0,1
-143.0,-23.0,217.0,50.0,-28.0,8.0,1
-137.0,-24.0,218.0,54.0,-26.0,8.0,1
-141.0,-23.0,215.0,58.0,-24.0,6.0,1
-139.0,-26.0,217.0,64.0,-22.0,8.0,1
-141.0,-24.0,212.0,67.0,-22.0,10.0,1
-144.0,-21.0,216.0,69.0,-22.0,10.0,1
-142.0,-22.0,219.0,72.0,-23.0,11.0,1
-142.0,-20.0,212.0,73.0,-24.0,11.0,1
-144.0,-21.0,216.0,72.0,-24.0,12.0,1
-144.0,-19.0,218.0,71.0,-26.0,15.0,1
-142.0,-21.0,217.0,73.0,-26.0,13.0,1
-142.0,-21.0,217.0,75.0,-26.0,14.0,1
-141.0,-20.0,215.0,76.0,-25.0,15.0,1
-139.0,-19.0,214.0,77.0,-24.0,15.0,1
-144.0,-17.0,215.0,76.0,-26.0,11.0,1
-139.0,-21.0,217.0,74.0,-30.0,9.0,1
-139.0,-20.0,214.0,72.0,-28.0,7.0,1
-142.0,-24.0,216.0,70.0,-24.0,5.0,1
-138.0,-22.0,214.0,70.0,-22.0,4.0,1
-140.0,-20.0,218.0,69.0,-23.0,2.0,1
-140.0,-24.0,213.0,70.0,-18.0,-1.0,1
-139.0,-24.0,211.0,68.0,-17.0,-1.0,1
-139.0,-22.0,217.0,69.0,-15.0,-3.0,1
-136.0,-24.0,217.0,71.0,-14.0,-5.0,1
-140.0,-24.0,218.0,73.0,-16.0,-5.0,1
-139.0,-26.0,221.0,74.0,-17.0,-5.0,1
-141.0,-20.0,218.0,76.0,-19.0,-6.0,1
-138.0,-21.0,217.0,79.0,-21.0,-8.0,1
-144.0,-28.0,212.0,80.0,-21.0,-8.0,1
-137.0,-20.0,218.0,80.0,-19.0,-8.0,1
-138.0,-19.0,217.0,78.0,-19.0,-10.0,1
-140.0,-17.0,213.0,78.0,-20.0,-11.0,1
-139.0,-19.0,218.0,78.0,-21.0,-10.0,1
-138.0,-18.0,216.0,77.0,-21.0,-11.0,1
-138.0,-24.0,213.0,74.0,-21.0,-11.0,1
-142.0,-21.0,215.0,72.0,-21.0,-12.0,1
-143.0,-21.0,215.0,71.0,-20.0,-13.0,1
-140.0,-18.0,218.0,71.0,-20.0,-14.0,1
-140.0,-19.0,217.0,72.0,-19.0,-14.0,1
-139.0,-15.0,215.0,72.0,-16.0,-15.0,1
-141.0,-20.0,236.0,73.0,-15.0,-14.0,1
-137.0,-23.0,212.0,75.0,-14.0,-14.0,1
-143.0,-18.0,214.0,77.0,-15.0,-11.0,1
-141.0,-20.0,217.0,80.0,-18.0,-12.0,1
-139.0,-17.0,214.0,78.0,-18.0,-12.0,1
-143.0,-18.0,214.0,78.0,-20.0,-13.0,1
-144.0,-19.0,218.0,77.0,-21.0,-13.0,1
-141.0,-21.0,216.0,76.0,-21.0,-14.0,1
-142.0,-20.0,216.0,74.0,-19.0,-13.0,1
-141.0,-21.0,215.0,74.0,-18.0,-13.0,1
-140.0,-21.0,221.0,76.0,-15.0,-15.0,1
-139.0,-23.0,213.0,79.0,-12.0,-15.0,1
-137.0,-25.0,215.0,81.0,-10.0,-15.0,1
-140.0,-22.0,217.0,86.0,-7.0,-12.0,1
-139.0,-19.0,218.0,92.0,-5.0,-11.0,1
-143.0,-16.0,218.0,97.0,-3.0,-9.0,1
-142.0,-20.0,213.0,101.0,-3.0,-7.0,1
-140.0,-17.0,214.0,105.0,-8.0,-4.0,1
-139.0,-20.0,214.0,108.0,-7.0,-5.0,1
-138.0,-18.0,216.0,108.0,-7.0,-5.0,1
-142.0,-32.0,217.0,106.0,-8.0,-5.0,1
-139.0,-20.0,218.0,106.0,-11.0,-6.0,1
-140.0,-16.0,217.0,104.0,-12.0,-8.0,1
-137.0,-19.0,217.0,100.0,-11.0,-10.0,1
-140.0,-17.0,217.0,98.0,-9.0,-10.0,1
-140.0,-19.0,215.0,97.0,-7.0,-11.0,1
-138.0,-21.0,218.0,96.0,-5.0,-12.0,1
-140.0,-20.0,219.0,95.0,-2.0,-10.0,1
-141.0,-17.0,217.0,94.0,3.0,-13.0,1
-134.0,-23.0,217.0,93.0,8.0,-15.0,1
-137.0,-23.0,217.0,92.0,14.0,-13.0,1
-137.0,-21.0,214.0,93.0,22.0,-16.0,1
-143.0,-32.0,223.0,92.0,29.0,-20.0,1
-138.0,-15.0,212.0,93.0,35.0,-20.0,1
-138.0,-20.0,214.0,93.0,42.0,-18.0,1
-140.0,-18.0,214.0,91.0,45.0,-18.0,1
-141.0,-13.0,217.0,88.0,46.0,-18.0,1
-139.0,-17.0,216.0,83.0,47.0,-18.0,1
-138.0,-15.0,214.0,74.0,51.0,-14.0,1
-143.0,-15.0,215.0,63.0,53.0,-13.0,1
-139.0,-14.0,213.0,54.0,53.0,-10.0,1
-141.0,-13.0,216.0,48.0,53.0,-6.0,1
-137.0,-13.0,218.0,43.0,57.0,-4.0,1
-146.0,-15.0,216.0,39.0,62.0,-1.0,1
-143.0,-16.0,218.0,34.0,65.0,2.0,1
-144.0,-16.0,217.0,29.0,65.0,4.0,1
-142.0,-17.0,216.0,25.0,64.0,8.0,1
-141.0,-17.0,215.0,23.0,64.0,10.0,1
-141.0,-19.0,215.0,22.0,64.0,11.0,1
-141.0,-17.0,211.0,18.0,68.0,11.0,1
-146.0,-22.0,214.0,14.0,69.0,12.0,1
-147.0,-20.0,213.0,13.0,68.0,13.0,1
-146.0,-19.0,215.0,14.0,63.0,14.0,1
-146.0,-18.0,216.0,14.0,61.0,13.0,1
-145.0,-19.0,218.0,17.0,60.0,14.0,1
-144.0,-12.0,218.0,18.0,61.0,14.0,1
-142.0,-14.0,213.0,16.0,61.0,15.0,1
-139.0,-15.0,213.0,12.0,66.0,15.0,1
-145.0,-15.0,212.0,5.0,70.0,17.0,1
-146.0,-17.0,214.0,-2.0,71.0,16.0,1
-139.0,-19.0,212.0,-8.0,72.0,17.0,1
-143.0,-19.0,215.0,-12.0,71.0,16.0,1
-142.0,-19.0,214.0,-15.0,73.0,13.0,1
-144.0,-20.0,217.0,-17.0,75.0,10.0,1
-136.0,-23.0,216.0,-17.0,73.0,10.0,1
-142.0,-21.0,216.0,-17.0,73.0,8.0,1
-142.0,-17.0,215.0,-15.0,74.0,8.0,1
-143.0,-22.0,210.0,-12.0,70.0,6.0,1
-139.0,-21.0,217.0,-10.0,64.0,5.0,1
-141.0,-23.0,218.0,-4.0,61.0,1.0,1
-140.0,-20.0,218.0,1.0,61.0,-1.0,1
-141.0,-23.0,216.0,5.0,60.0,-1.0,1
-144.0,-21.0,220.0,9.0,58.0,0.0,1
-143.0,-21.0,219.0,11.0,49.0,2.0,1
-143.0,-13.0,222.0,13.0,41.0,2.0,1
-145.0,-29.0,226.0,13.0,36.0,4.0,1
-146.0,-18.0,220.0,10.0,31.0,3.0,1
-150.0,-18.0,219.0,8.0,28.0,2.0,1
-150.0,-16.0,214.0,8.0,23.0,2.0,1
-147.0,-17.0,211.0,7.0,21.0,0.0,1
-147.0,-18.0,213.0,3.0,23.0,-4.0,1
-146.0,-17.0,210.0,0.0,26.0,-4.0,1
-144.0,-23.0,211.0,-5.0,27.0,-8.0,1
-150.0,-18.0,210.0,-7.0,28.0,-10.0,1
-148.0,-23.0,211.0,-7.0,29.0,-13.0,1
-147.0,-23.0,212.0,-5.0,28.0,-13.0,1
-148.0,-21.0,215.0,-3.0,26.0,-13.0,1
-150.0,-23.0,210.0,-3.0,24.0,-10.0,1
-149.0,-21.0,212.0,-3.0,21.0,-9.0,1
-146.0,-23.0,216.0,-7.0,17.0,-5.0,1
-148.0,-21.0,213.0,-9.0,15.0,-5.0,1
-147.0,-24.0,218.0,-12.0,15.0,-3.0,1
-143.0,-28.0,217.0,-10.0,20.0,-1.0,1
-141.0,-28.0,217.0,-1.0,25.0,1.0,1
-142.0,-28.0,211.0,14.0,32.0,0.0,1
-145.0,-26.0,208.0,24.0,37.0,4.0,1
-146.0,-24.0,208.0,26.0,35.0,4.0,1
-148.0,-22.0,212.0,27.0,25.0,8.0,1
-144.0,-25.0,206.0,28.0,13.0,11.0,1
-144.0,-23.0,210.0,31.0,0.0,11.0,1
-143.0,-21.0,207.0,33.0,-9.0,10.0,1
-142.0,-28.0,208.0,33.0,-12.0,6.0,1
-141.0,-23.0,209.0,32.0,-11.0,5.0,1
-141.0,-27.0,210.0,34.0,-6.0,3.0,1
-141.0,-26.0,211.0,36.0,-1.0,5.0,1
-142.0,-25.0,211.0,39.0,5.0,8.0,1
-144.0,-25.0,210.0,41.0,8.0,7.0,1
-143.0,-23.0,214.0,43.0,10.0,5.0,1
-142.0,-23.0,216.0,43.0,9.0,5.0,1
-142.0,-27.0,214.0,44.0,8.0,0.0,1
-142.0,-23.0,215.0,48.0,4.0,2.0,1
-142.0,-26.0,214.0,53.0,2.0,3.0,1
-140.0,-23.0,217.0,55.0,4.0,3.0,1
-146.0,-20.0,218.0,57.0,6.0,3.0,1
-143.0,-20.0,216.0,59.0,8.0,4.0,1
-144.0,-23.0,215.0,59.0,9.0,4.0,1
-141.0,-22.0,215.0,60.0,10.0,2.0,1
-143.0,-20.0,216.0,58.0,8.0,3.0,1
-140.0,-21.0,215.0,58.0,6.0,4.0,1
-137.0,-21.0,227.0,59.0,7.0,1.0,1
-142.0,-19.0,214.0,59.0,8.0,0.0,1
-142.0,-21.0,214.0,60.0,9.0,-4.0,1
-139.0,-21.0,217.0,60.0,10.0,-6.0,1
-141.0,-19.0,217.0,59.0,14.0,-10.0,1
-144.0,-18.0,211.0,62.0,17.0,-11.0,1
-142.0,-17.0,214.0,63.0,21.0,-12.0,1
-138.0,-19.0,211.0,64.0,23.0,-13.0,1
-139.0,-18.0,211.0,64.0,26.0,-14.0,1
-140.0,-21.0,217.0,60.0,28.0,-17.0,1
-138.0,-20.0,216.0,58.0,30.0,-18.0,1
-137.0,-20.0,214.0,56.0,31.0,-18.0,1
-139.0,-21.0,216.0,55.0,32.0,-20.0,1
-139.0,-20.0,216.0,57.0,30.0,-17.0,1
-138.0,-15.0,214.0,57.0,27.0,-18.0,1
-138.0,-17.0,220.0,55.0,27.0,-20.0,1
-141.0,-19.0,216.0,54.0,26.0,-20.0,1
-139.0,-19.0,212.0,51.0,27.0,-21.0,1
-138.0,-22.0,217.0,53.0,24.0,-23.0,1
-139.0,-20.0,212.0,52.0,23.0,-25.0,1
-142.0,-18.0,214.0,54.0,20.0,-26.0,1
-140.0,-20.0,214.0,55.0,20.0,-27.0,1
-137.0,-20.0,208.0,57.0,19.0,-30.0,1
-141.0,-21.0,216.0,58.0,16.0,-33.0,1
-138.0,-21.0,217.0,58.0,12.0,-32.0,1
-140.0,-20.0,216.0,58.0,10.0,-33.0,1
-143.0,-22.0,216.0,58.0,9.0,-32.0,1
-143.0,-21.0,213.0,61.0,5.0,-30.0,1
-141.0,-22.0,216.0,63.0,4.0,-32.0,1
-141.0,-22.0,216.0,67.0,2.0,-32.0,1
-139.0,-23.0,212.0,70.0,1.0,-34.0,1
-142.0,-20.0,217.0,72.0,0.0,-37.0,1
-142.0,-21.0,221.0,75.0,-3.0,-35.0,1
-143.0,-21.0,215.0,76.0,-6.0,-37.0,1
-145.0,-21.0,216.0,78.0,-8.0,-39.0,1
-142.0,-23.0,211.0,78.0,-9.0,-39.0,1
-146.0,-22.0,215.0,76.0,-9.0,-42.0,1
-141.0,-21.0,217.0,73.0,-9.0,-44.0,1
-140.0,-23.0,219.0,70.0,-8.0,-47.0,1
-144.0,-25.0,213.0,69.0,-7.0,-52.0,1
-141.0,-22.0,217.0,67.0,-6.0,-52.0,1
-142.0,-23.0,210.0,67.0,-2.0,-52.0,1
-141.0,-21.0,216.0,67.0,1.0,-51.0,1
-141.0,-21.0,218.0,68.0,3.0,-51.0,1
-144.0,-26.0,214.0,70.0,6.0,-50.0,1
-143.0,-17.0,210.0,71.0,8.0,-48.0,1
-145.0,-22.0,215.0,71.0,10.0,-47.0,1
-144.0,-21.0,212.0,68.0,10.0,-48.0,1
-145.0,-21.0,213.0,65.0,12.0,-47.0,1
-144.0,-20.0,215.0,62.0,16.0,-48.0,1
-147.0,-21.0,210.0,60.0,20.0,-49.0,1
-143.0,-19.0,210.0,58.0,24.0,-51.0,1
-144.0,-19.0,211.0,55.0,30.0,-49.0,1
-142.0,-11.0,208.0,48.0,37.0,-45.0,1
-143.0,-19.0,212.0,44.0,44.0,-40.0,1
-147.0,-14.0,212.0,41.0,46.0,-36.0,1
-147.0,-15.0,212.0,36.0,48.0,-32.0,1
-145.0,-17.0,210.0,30.0,50.0,-25.0,1
-145.0,-17.0,210.0,24.0,52.0,-22.0,1
-146.0,-16.0,214.0,17.0,52.0,-18.0,1
-142.0,-22.0,211.0,12.0,51.0,-14.0,1
-147.0,-23.0,211.0,9.0,50.0,-10.0,1
-148.0,-23.0,210.0,7.0,46.0,-8.0,1
-146.0,-20.0,210.0,5.0,42.0,-7.0,1
-146.0,-24.0,210.0,4.0,40.0,-5.0,1
-152.0,-19.0,204.0,2.0,38.0,-4.0,1
-151.0,-22.0,213.0,1.0,37.0,-2.0,1
-145.0,-24.0,213.0,-1.0,38.0,-3.0,1
-145.0,-21.0,212.0,-2.0,38.0,-3.0,1
-145.0,-21.0,212.0,-6.0,41.0,-4.0,1
-143.0,-23.0,214.0,-10.0,42.0,-6.0,1
-145.0,-22.0,213.0,-12.0,43.0,-8.0,1
-146.0,-24.0,211.0,-14.0,43.0,-11.0,1
-145.0,-22.0,212.0,-16.0,42.0,-12.0,1
-145.0,-22.0,215.0,-17.0,42.0,-14.0,1
-144.0,-22.0,211.0,-14.0,42.0,-17.0,1
-143.0,-24.0,212.0,-11.0,42.0,-20.0,1
-142.0,-25.0,217.0,-9.0,41.0,-21.0,1
-144.0,-24.0,215.0,-6.0,38.0,-21.0,1
-147.0,-25.0,216.0,-2.0,34.0,-22.0,1
-143.0,-26.0,217.0,0.0,29.0,-23.0,1
-144.0,-23.0,217.0,2.0,25.0,-26.0,1
-142.0,-26.0,213.0,2.0,21.0,-28.0,1
-146.0,-27.0,213.0,4.0,17.0,-27.0,1
-141.0,-27.0,217.0,7.0,13.0,-30.0,1
-146.0,-22.0,216.0,11.0,9.0,-32.0,1
-142.0,-28.0,213.0,15.0,7.0,-34.0,1
-143.0,-29.0,212.0,19.0,5.0,-35.0,1
-145.0,-26.0,215.0,23.0,4.0,-34.0,1
-145.0,-27.0,213.0,27.0,7.0,-35.0,1
-146.0,-24.0,212.0,30.0,10.0,-33.0,1
-146.0,-26.0,213.0,34.0,10.0,-32.0,1
-148.0,-22.0,214.0,37.0,9.0,-32.0,1
-147.0,-25.0,215.0,38.0,10.0,-32.0,1
-144.0,-25.0,211.0,38.0,12.0,-33.0,1
-146.0,-25.0,210.0,40.0,13.0,-32.0,1
-142.0,-23.0,215.0,42.0,15.0,-32.0,1
-146.0,-19.0,213.0,44.0,16.0,-32.0,1
-146.0,-27.0,216.0,47.0,17.0,-32.0,1
-144.0,-26.0,209.0,50.0,15.0,-32.0,1
-144.0,-24.0,212.0,52.0,16.0,-33.0,1
-147.0,-24.0,209.0,52.0,14.0,-29.0,1
-144.0,-21.0,213.0,51.0,13.0,-29.0,1
-147.0,-22.0,213.0,50.0,12.0,-27.0,1
-146.0,-24.0,211.0,49.0,12.0,-27.0,1
-146.0,-21.0,209.0,48.0,15.0,-26.0,1
-146.0,-22.0,208.0,45.0,19.0,-25.0,1
-148.0,-25.0,211.0,43.0,25.0,-24.0,1
-147.0,-24.0,213.0,44.0,26.0,-23.0,1
-141.0,-23.0,212.0,45.0,23.0,-21.0,1
-146.0,-23.0,211.0,47.0,20.0,-20.0,1
-146.0,-23.0,214.0,45.0,19.0,-18.0,1
-145.0,-23.0,207.0,42.0,18.0,-16.0,1
-142.0,-24.0,213.0,38.0,20.0,-13.0,1
-145.0,-24.0,213.0,36.0,20.0,-10.0,1
-146.0,-25.0,213.0,34.0,19.0,-11.0,1
-143.0,-22.0,211.0,35.0,20.0,-10.0,1
-145.0,-23.0,207.0,33.0,21.0,-8.0,1
-149.0,-20.0,213.0,33.0,21.0,-7.0,1
-145.0,-23.0,209.0,31.0,22.0,-8.0,1
-146.0,-25.0,214.0,30.0,22.0,-10.0,1
-146.0,-23.0,215.0,29.0,20.0,-9.0,1
-143.0,-24.0,210.0,28.0,20.0,-9.0,1
-146.0,-20.0,210.0,30.0,21.0,-9.0,1
-144.0,-23.0,208.0,33.0,23.0,-10.0,1
-144.0,-22.0,210.0,38.0,24.0,-10.0,1
-144.0,-23.0,211.0,42.0,26.0,-9.0,1
-145.0,-25.0,207.0,47.0,26.0,-10.0,1
-148.0,-24.0,211.0,50.0,24.0,-10.0,1
-140.0,-22.0,209.0,50.0,22.0,-10.0,1
-146.0,-23.0,212.0,46.0,23.0,-7.0,1
-143.0,-24.0,216.0,40.0,23.0,-6.0,1
-143.0,-22.0,214.0,32.0,25.0,-4.0,1
-144.0,-22.0,214.0,26.0,29.0,-4.0,1
-144.0,-25.0,214.0,26.0,35.0,-5.0,1
-144.0,-26.0,219.0,34.0,39.0,-3.0,1
-144.0,-27.0,211.0,47.0,44.0,-1.0,1
-146.0,-24.0,206.0,62.0,45.0,0.0,1
-146.0,-25.0,206.0,69.0,45.0,-1.0,1
-149.0,-23.0,207.0,70.0,38.0,0.0,1
-147.0,-24.0,208.0,70.0,28.0,-1.0,1
-136.0,-19.0,209.0,69.0,22.0,-1.0,1
-147.0,-21.0,212.0,69.0,20.0,0.0,1
-146.0,-23.0,210.0,67.0,22.0,-1.0,1
-146.0,-23.0,213.0,65.0,24.0,-2.0,1
-143.0,-22.0,211.0,63.0,25.0,0.0,1
-145.0,-23.0,213.0,58.0,25.0,-3.0,1
-143.0,-24.0,212.0,55.0,24.0,-5.0,1
-143.0,-26.0,213.0,51.0,26.0,-6.0,1
-144.0,-24.0,213.0,49.0,24.0,-7.0,1
-143.0,-24.0,214.0,47.0,23.0,-8.0,1
-143.0,-23.0,215.0,45.0,23.0,-9.0,1
-146.0,-22.0,211.0,45.0,20.0,-11.0,1
-147.0,-21.0,222.0,46.0,20.0,-11.0,1
-146.0,-23.0,212.0,46.0,19.0,-13.0,1
-145.0,-23.0,214.0,46.0,19.0,-15.0,1
-146.0,-23.0,210.0,47.0,17.0,-16.0,1
-145.0,-26.0,207.0,45.0,16.0,-15.0,1
-148.0,-20.0,208.0,46.0,14.0,-18.0,1
-145.0,-20.0,207.0,46.0,13.0,-16.0,1
-146.0,-22.0,209.0,46.0,11.0,-14.0,1
-146.0,-26.0,212.0,45.0,8.0,-16.0,1
-145.0,-23.0,210.0,46.0,7.0,-14.0,1
-149.0,-21.0,208.0,46.0,6.0,-14.0,1
-146.0,-21.0,210.0,47.0,5.0,-15.0,1
-145.0,-23.0,210.0,46.0,5.0,-14.0,1
-148.0,-21.0,212.0,46.0,3.0,-14.0,1
-145.0,-20.0,209.0,44.0,2.0,-15.0,1
-147.0,-26.0,212.0,40.0,4.0,-13.0,1
-146.0,-23.0,210.0,39.0,2.0,-14.0,1
-145.0,-23.0,213.0,39.0,1.0,-16.0,1
-146.0,-27.0,210.0,38.0,2.0,-16.0,1
-145.0,-25.0,215.0,38.0,3.0,-17.0,1
-146.0,-26.0,214.0,41.0,4.0,-18.0,1
-145.0,-25.0,209.0,41.0,5.0,-17.0,1
-147.0,-22.0,211.0,41.0,6.0,-17.0,1
-145.0,-27.0,216.0,44.0,6.0,-17.0,1
-144.0,-24.0,211.0,45.0,6.0,-15.0,1
-144.0,-27.0,210.0,46.0,6.0,-17.0,1
-145.0,-23.0,208.0,48.0,5.0,-18.0,1
-146.0,-25.0,212.0,50.0,6.0,-18.0,1
-145.0,-24.0,212.0,50.0,4.0,-18.0,1
-144.0,-24.0,215.0,51.0,2.0,-18.0,1
-149.0,-24.0,214.0,52.0,1.0,-19.0,1
-144.0,-26.0,213.0,52.0,-1.0,-19.0,1
-144.0,-25.0,216.0,52.0,-1.0,-21.0,1
-146.0,-22.0,216.0,52.0,-1.0,-21.0,1
-142.0,-25.0,212.0,55.0,0.0,-21.0,1
-143.0,-28.0,212.0,55.0,1.0,-21.0,1
-146.0,-26.0,209.0,57.0,1.0,-20.0,1
-146.0,-26.0,212.0,58.0,1.0,-20.0,1
-144.0,-22.0,211.0,59.0,1.0,-19.0,1
-143.0,-27.0,213.0,59.0,1.0,-21.0,1
-145.0,-25.0,213.0,57.0,2.0,-20.0,1
-147.0,-25.0,211.0,57.0,0.0,-21.0,1
-144.0,-25.0,220.0,57.0,0.0,-20.0,1
-148.0,-30.0,213.0,55.0,2.0,-20.0,1
-144.0,-25.0,214.0,54.0,3.0,-20.0,1
-141.0,-25.0,211.0,53.0,4.0,-18.0,1
-147.0,-21.0,209.0,53.0,6.0,-18.0,1
-140.0,-27.0,212.0,53.0,8.0,-18.0,1
-146.0,-22.0,214.0,54.0,8.0,-18.0,1
-143.0,-25.0,215.0,54.0,11.0,-17.0,1
-146.0,-24.0,212.0,54.0,12.0,-16.0,1
-143.0,-24.0,211.0,56.0,11.0,-17.0,1
-143.0,-22.0,211.0,57.0,11.0,-15.0,1
-142.0,-26.0,212.0,57.0,11.0,-13.0,1
-146.0,-26.0,210.0,58.0,11.0,-12.0,1
-142.0,-25.0,215.0,59.0,12.0,-10.0,1
-144.0,-24.0,210.0,60.0,12.0,-8.0,1
-147.0,-26.0,211.0,61.0,16.0,-8.0,1
-144.0,-22.0,211.0,61.0,17.0,-5.0,1
-143.0,-23.0,214.0,58.0,18.0,-6.0,1
-145.0,-22.0,209.0,56.0,19.0,-6.0,1
-147.0,-27.0,207.0,54.0,20.0,-5.0,1
-147.0,-26.0,210.0,50.0,18.0,-6.0,1
-147.0,-27.0,215.0,48.0,17.0,-5.0,1
-146.0,-25.0,213.0,47.0,16.0,-4.0,1
-146.0,-22.0,209.0,47.0,14.0,-4.0,1
-145.0,-25.0,212.0,45.0,12.0,-4.0,1
-144.0,-25.0,209.0,47.0,12.0,-3.0,1
-144.0,-23.0,211.0,49.0,9.0,-2.0,1
-144.0,-24.0,210.0,51.0,9.0,-4.0,1
-148.0,-24.0,210.0,51.0,8.0,-3.0,1
-147.0,-24.0,212.0,52.0,7.0,-3.0,1
-146.0,-24.0,213.0,53.0,4.0,-2.0,1
-149.0,-25.0,207.0,54.0,4.0,-2.0,1
-150.0,-20.0,211.0,55.0,2.0,-2.0,1
-146.0,-25.0,210.0,57.0,-1.0,-1.0,1
-144.0,-27.0,209.0,57.0,-1.0,0.0,1
-148.0,-22.0,211.0,57.0,-3.0,-1.0,1
-148.0,-21.0,213.0,59.0,-4.0,-1.0,1
-147.0,-24.0,211.0,60.0,-3.0,-1.0,1
-145.0,-25.0,213.0,61.0,-2.0,-1.0,1
-145.0,-26.0,209.0,62.0,-1.0,-1.0,1
-148.0,-24.0,212.0,62.0,-1.0,-2.0,1
-143.0,-25.0,211.0,62.0,-2.0,-1.0,1
-148.0,-22.0,215.0,61.0,-3.0,-3.0,1
-143.0,-24.0,211.0,61.0,-3.0,-5.0,1
-146.0,-27.0,206.0,60.0,-5.0,-5.0,1
-135.0,-23.0,202.0,60.0,-7.0,-5.0,1
-144.0,-23.0,212.0,60.0,-8.0,-6.0,1
-147.0,-24.0,213.0,62.0,-8.0,-4.0,1
-145.0,-24.0,213.0,65.0,-8.0,-7.0,1
-145.0,-25.0,209.0,65.0,-8.0,-7.0,1
-146.0,-23.0,212.0,65.0,-10.0,-8.0,1
-142.0,-25.0,213.0,65.0,-9.0,-8.0,1
-146.0,-23.0,214.0,66.0,-11.0,-8.0,1
-143.0,-24.0,211.0,67.0,-11.0,-9.0,1
-145.0,-26.0,212.0,68.0,-11.0,-8.0,1
-142.0,-26.0,212.0,68.0,-12.0,-10.0,1
-145.0,-24.0,209.0,70.0,-13.0,-11.0,1
-144.0,-24.0,214.0,69.0,-12.0,-11.0,1
-143.0,-21.0,212.0,70.0,-12.0,-12.0,1
-142.0,-24.0,214.0,71.0,-12.0,-13.0,1
-143.0,-26.0,214.0,71.0,-12.0,-12.0,1
-141.0,-25.0,212.0,71.0,-11.0,-12.0,1
-147.0,-21.0,215.0,71.0,-9.0,-11.0,1
-140.0,-24.0,211.0,71.0,-9.0,-11.0,1
-142.0,-23.0,211.0,70.0,-9.0,-12.0,1
-143.0,-23.0,210.0,70.0,-11.0,-12.0,1
-141.0,-27.0,213.0,71.0,-11.0,-12.0,1
-144.0,-26.0,216.0,72.0,-10.0,-14.0,1
-142.0,-23.0,212.0,72.0,-9.0,-14.0,1
-142.0,-22.0,213.0,72.0,-9.0,-15.0,1
-143.0,-23.0,212.0,71.0,-10.0,-15.0,1
-145.0,-21.0,211.0,71.0,-11.0,-14.0,1
-142.0,-20.0,217.0,68.0,-11.0,-13.0,1
-141.0,-24.0,211.0,67.0,-12.0,-14.0,1
-145.0,-22.0,208.0,66.0,-13.0,-12.0,1
-144.0,-23.0,211.0,66.0,-12.0,-12.0,1
-142.0,-20.0,210.0,67.0,-10.0,-12.0,1
-144.0,-21.0,216.0,66.0,-8.0,-10.0,1
-144.0,-23.0,214.0,67.0,-6.0,-10.0,1
-146.0,-22.0,212.0,68.0,-6.0,-9.0,1
-143.0,-23.0,212.0,69.0,-5.0,-10.0,1
-143.0,-24.0,213.0,74.0,-5.0,-9.0,1
-145.0,-24.0,215.0,76.0,-5.0,-9.0,1
-145.0,-24.0,214.0,81.0,-5.0,-10.0,1
-143.0,-22.0,210.0,84.0,-6.0,-10.0,1
-144.0,-25.0,209.0,88.0,-3.0,-11.0,1
-145.0,-24.0,211.0,92.0,-1.0,-13.0,1
-143.0,-26.0,212.0,93.0,0.0,-13.0,1
-140.0,-24.0,210.0,96.0,0.0,-12.0,1
-144.0,-24.0,212.0,95.0,1.0,-11.0,1
-143.0,-24.0,217.0,93.0,3.0,-11.0,1
-143.0,-23.0,217.0,88.0,5.0,-10.0,1
-141.0,-25.0,220.0,83.0,10.0,-10.0,1
-140.0,-26.0,219.0,79.0,15.0,-9.0,1
-140.0,-24.0,217.0,78.0,19.0,-9.0,1
-145.0,-25.0,217.0,85.0,22.0,-7.0,1
-141.0,-27.0,216.0,94.0,27.0,-6.0,1
-144.0,-24.0,210.0,104.0,29.0,-8.0,1
-136.0,-19.0,215.0,107.0,27.0,-8.0,1
-142.0,-21.0,208.0,106.0,21.0,-7.0,1
-147.0,-24.0,210.0,106.0,14.0,-4.0,1
-144.0,-23.0,210.0,108.0,6.0,-5.0,1
-144.0,-25.0,209.0,109.0,5.0,-4.0,1
-146.0,-22.0,212.0,106.0,5.0,-6.0,1
-146.0,-20.0,211.0,103.0,6.0,-5.0,1
-144.0,-21.0,209.0,101.0,6.0,-4.0,1
-143.0,-22.0,211.0,98.0,7.0,-4.0,1
-143.0,-24.0,212.0,96.0,9.0,-4.0,1
-147.0,-26.0,210.0,94.0,10.0,-5.0,1
-146.0,-22.0,214.0,92.0,10.0,-5.0,1
-151.0,-12.0,213.0,92.0,12.0,-4.0,1
-143.0,-21.0,216.0,92.0,11.0,-4.0,1
-147.0,-19.0,216.0,92.0,11.0,-5.0,1
-145.0,-22.0,215.0,88.0,12.0,-6.0,1
-142.0,-22.0,215.0,87.0,11.0,-4.0,1
-144.0,-19.0,212.0,82.0,10.0,-4.0,1
-143.0,-19.0,211.0,80.0,8.0,-6.0,1
-143.0,-22.0,212.0,79.0,7.0,-7.0,1
-142.0,-14.0,212.0,79.0,6.0,-5.0,1
-146.0,-19.0,212.0,78.0,3.0,-6.0,1
-144.0,-22.0,213.0,78.0,1.0,-5.0,1
-144.0,-20.0,211.0,77.0,-1.0,-7.0,1
-143.0,-21.0,212.0,79.0,-3.0,-7.0,1
-143.0,-20.0,215.0,79.0,-6.0,-7.0,1
-143.0,-21.0,209.0,77.0,-7.0,-9.0,1
-143.0,-17.0,212.0,75.0,-9.0,-11.0,1
-146.0,-19.0,211.0,73.0,-11.0,-12.0,1
-142.0,-23.0,210.0,71.0,-11.0,-10.0,1
-149.0,-18.0,208.0,70.0,-14.0,-11.0,1
-146.0,-19.0,213.0,69.0,-13.0,-11.0,1
-143.0,-19.0,212.0,69.0,-14.0,-11.0,1
-143.0,-20.0,213.0,67.0,-12.0,-12.0,1
-144.0,-21.0,210.0,67.0,-7.0,-15.0,1
-144.0,-20.0,207.0,65.0,-6.0,-13.0,1
-145.0,-20.0,213.0,66.0,-8.0,-12.0,1
-146.0,-21.0,213.0,68.0,-13.0,-13.0,1
-143.0,-20.0,213.0,69.0,-15.0,-12.0,1
-144.0,-21.0,213.0,69.0,-15.0,-11.0,1
-142.0,-21.0,213.0,68.0,-16.0,-10.0,1
-144.0,-18.0,215.0,69.0,-19.0,-12.0,1
-143.0,-21.0,211.0,70.0,-20.0,-12.0,1
-147.0,-20.0,218.0,69.0,-22.0,-11.0,1
-144.0,-12.0,205.0,69.0,-25.0,-11.0,1
-147.0,-20.0,216.0,71.0,-27.0,-12.0,1
-139.0,-21.0,211.0,70.0,-29.0,-11.0,1
-144.0,-20.0,216.0,71.0,-28.0,-13.0,1
-142.0,-18.0,214.0,69.0,-24.0,-14.0,1
-145.0,-20.0,220.0,66.0,-19.0,-14.0,1
-140.0,-23.0,211.0,63.0,-15.0,-14.0,1
-141.0,-19.0,215.0,63.0,-12.0,-13.0,1
-141.0,-20.0,213.0,64.0,-9.0,-14.0,1
-142.0,-20.0,216.0,64.0,-9.0,-14.0,1
-140.0,-22.0,215.0,64.0,-10.0,-13.0,1
-142.0,-22.0,216.0,65.0,-12.0,-14.0,1
-142.0,-23.0,218.0,66.0,-15.0,-13.0,1
-142.0,-18.0,215.0,66.0,-15.0,-14.0,1
-141.0,-21.0,220.0,67.0,-15.0,-15.0,1
-142.0,-19.0,217.0,68.0,-17.0,-12.0,1
-139.0,-23.0,214.0,69.0,-14.0,-12.0,1
-144.0,-21.0,215.0,69.0,-11.0,-11.0,1
-141.0,-22.0,216.0,70.0,-7.0,-10.0,1
-143.0,-23.0,215.0,70.0,-7.0,-9.0,1
-144.0,-22.0,216.0,71.0,-7.0,-9.0,1
-143.0,-25.0,216.0,73.0,-7.0,-9.0,1
-145.0,-19.0,216.0,74.0,-7.0,-8.0,1
-141.0,-18.0,216.0,74.0,-6.0,-7.0,1
-138.0,-20.0,213.0,74.0,-5.0,-7.0,1
-140.0,-18.0,214.0,74.0,-5.0,-7.0,1
-142.0,-19.0,215.0,74.0,-5.0,-7.0,1
-142.0,-19.0,217.0,74.0,-5.0,-8.0,1
-142.0,-18.0,219.0,73.0,-4.0,-8.0,1
-141.0,-20.0,215.0,72.0,-5.0,-9.0,1
-139.0,-21.0,214.0,72.0,-6.0,-9.0,1
-139.0,-19.0,212.0,69.0,-3.0,-10.0,1
-142.0,-21.0,213.0,66.0,-3.0,-10.0,1
-143.0,-21.0,216.0,62.0,-1.0,-9.0,1
-141.0,-23.0,212.0,58.0,0.0,-11.0,1
-143.0,-20.0,217.0,56.0,3.0,-11.0,1
-136.0,-20.0,208.0,56.0,4.0,-11.0,1
-141.0,-19.0,214.0,56.0,6.0,-12.0,1
-139.0,-19.0,215.0,56.0,7.0,-14.0,1
-140.0,-22.0,209.0,55.0,7.0,-15.0,1
-141.0,-20.0,210.0,55.0,6.0,-16.0,1
-140.0,-21.0,214.0,53.0,6.0,-15.0,1
-139.0,-18.0,217.0,52.0,7.0,-18.0,1
-137.0,-20.0,213.0,49.0,7.0,-19.0,1
-136.0,-19.0,215.0,46.0,7.0,-21.0,1
-142.0,-17.0,216.0,43.0,3.0,-25.0,1
-141.0,-20.0,217.0,41.0,3.0,-28.0,1
-140.0,-19.0,214.0,40.0,4.0,-27.0,1
-141.0,-16.0,216.0,39.0,1.0,-27.0,1
-142.0,-17.0,211.0,37.0,0.0,-25.0,1
-144.0,-17.0,217.0,35.0,0.0,-25.0,1
-141.0,-17.0,217.0,33.0,0.0,-26.0,1
-142.0,-19.0,214.0,34.0,0.0,-27.0,1
-142.0,-19.0,215.0,37.0,-1.0,-28.0,1
-145.0,-16.0,210.0,39.0,0.0,-28.0,1
-138.0,-11.0,218.0,41.0,0.0,-26.0,1
-141.0,-23.0,213.0,43.0,0.0,-27.0,1
-145.0,-19.0,210.0,45.0,-1.0,-24.0,1
-145.0,-16.0,217.0,47.0,-3.0,-23.0,1
-145.0,-18.0,217.0,48.0,-3.0,-23.0,1
-144.0,-19.0,215.0,47.0,-4.0,-19.0,1
-144.0,-18.0,215.0,47.0,-6.0,-19.0,1
-144.0,-17.0,213.0,46.0,-6.0,-21.0,1
-142.0,-20.0,218.0,45.0,-8.0,-19.0,1
-143.0,-22.0,216.0,42.0,-6.0,-17.0,1
-144.0,-21.0,217.0,40.0,-4.0,-16.0,1
-143.0,-20.0,218.0,40.0,-3.0,-17.0,1
-143.0,-22.0,214.0,39.0,-4.0,-20.0,1
-144.0,-19.0,216.0,40.0,-5.0,-19.0,1
-141.0,-22.0,218.0,39.0,-5.0,-20.0,1
-142.0,-20.0,215.0,41.0,-6.0,-19.0,1
-143.0,-22.0,216.0,43.0,-5.0,-19.0,1
-142.0,-23.0,215.0,46.0,-4.0,-20.0,1
-141.0,-19.0,216.0,46.0,-2.0,-20.0,1
-143.0,-23.0,216.0,48.0,1.0,-21.0,1
-138.0,-23.0,217.0,48.0,1.0,-21.0,1
-140.0,-19.0,214.0,48.0,4.0,-21.0,1
-139.0,-19.0,219.0,49.0,6.0,-21.0,1
-142.0,-21.0,216.0,49.0,7.0,-21.0,1
-137.0,-22.0,214.0,49.0,8.0,-21.0,1
-142.0,-19.0,215.0,48.0,7.0,-21.0,1
-139.0,-21.0,217.0,48.0,5.0,-22.0,1
-141.0,-21.0,215.0,46.0,4.0,-22.0,1
-139.0,-23.0,223.0,45.0,3.0,-22.0,1
-140.0,-22.0,214.0,45.0,1.0,-21.0,1
-139.0,-20.0,217.0,46.0,1.0,-20.0,1
-144.0,-25.0,214.0,49.0,2.0,-21.0,1
-141.0,-26.0,214.0,49.0,2.0,-18.0,1
-144.0,-21.0,216.0,51.0,3.0,-19.0,1
-139.0,-23.0,215.0,51.0,3.0,-17.0,1
-142.0,-17.0,214.0,51.0,3.0,-18.0,1
-141.0,-17.0,215.0,51.0,3.0,-17.0,1
-143.0,-18.0,215.0,51.0,4.0,-16.0,1
-135.0,-21.0,217.0,50.0,5.0,-15.0,1
-138.0,-22.0,218.0,49.0,3.0,-15.0,1
-140.0,-22.0,219.0,48.0,3.0,-13.0,1
-142.0,-20.0,218.0,48.0,3.0,-16.0,1
-143.0,-21.0,218.0,46.0,2.0,-15.0,1
-144.0,-14.0,212.0,44.0,2.0,-14.0,1
-145.0,-16.0,217.0,44.0,3.0,-14.0,1
-142.0,-20.0,215.0,42.0,3.0,-14.0,1
-143.0,-20.0,213.0,41.0,3.0,-14.0,1
-142.0,-21.0,214.0,38.0,3.0,-15.0,1
-143.0,-19.0,214.0,36.0,3.0,-15.0,1
-144.0,-20.0,215.0,36.0,4.0,-14.0,1
-141.0,-21.0,214.0,35.0,4.0,-14.0,1
-143.0,-19.0,214.0,35.0,4.0,-16.0,1
-140.0,-21.0,217.0,35.0,2.0,-16.0,1
-138.0,-21.0,216.0,34.0,0.0,-18.0,1
-141.0,-21.0,219.0,33.0,-2.0,-18.0,1
-141.0,-18.0,212.0,32.0,-3.0,-20.0,1
-145.0,-21.0,212.0,29.0,-4.0,-19.0,1
-144.0,-21.0,216.0,25.0,-5.0,-20.0,1
-143.0,-24.0,217.0,19.0,-4.0,-18.0,1
-146.0,-21.0,217.0,14.0,-1.0,-19.0,1
-143.0,-23.0,221.0,12.0,1.0,-17.0,1
-142.0,-23.0,213.0,12.0,5.0,-15.0,1
-142.0,-24.0,213.0,22.0,10.0,-15.0,1
-141.0,-25.0,212.0,36.0,13.0,-15.0,1
-139.0,-21.0,209.0,46.0,15.0,-14.0,1
-145.0,-20.0,208.0,51.0,11.0,-14.0,1
-146.0,-23.0,199.0,56.0,2.0,-13.0,1
-144.0,-23.0,212.0,59.0,-9.0,-10.0,1
-142.0,-22.0,214.0,64.0,-14.0,-8.0,1
-143.0,-21.0,213.0,69.0,-15.0,-8.0,1
-143.0,-16.0,211.0,74.0,-11.0,-6.0,1
-140.0,-25.0,212.0,76.0,-6.0,-6.0,1
-141.0,-19.0,215.0,75.0,-2.0,-6.0,1
-141.0,-22.0,215.0,72.0,0.0,-4.0,1
-141.0,-21.0,215.0,69.0,1.0,-5.0,1
-138.0,-20.0,215.0,67.0,1.0,-4.0,1
-139.0,-21.0,219.0,65.0,2.0,-5.0,1
-139.0,-21.0,220.0,64.0,1.0,-6.0,1
-139.0,-22.0,223.0,61.0,1.0,-6.0,1
-138.0,-20.0,221.0,60.0,1.0,-5.0,1
-140.0,-23.0,215.0,60.0,-1.0,-7.0,1
-139.0,-18.0,216.0,60.0,-3.0,-5.0,1
-139.0,-19.0,218.0,58.0,-3.0,-6.0,1
-142.0,-22.0,219.0,57.0,-3.0,-7.0,1
-138.0,-24.0,215.0,55.0,-4.0,-7.0,1
-138.0,-21.0,218.0,55.0,-3.0,-7.0,1
-141.0,-20.0,219.0,55.0,-1.0,-7.0,1
-139.0,-23.0,217.0,53.0,1.0,-8.0,1
-139.0,-21.0,217.0,52.0,2.0,-10.0,1
-138.0,-20.0,212.0,50.0,3.0,-11.0,1
-140.0,-18.0,214.0,48.0,4.0,-11.0,1
-138.0,-21.0,212.0,45.0,5.0,-12.0,1
-141.0,-19.0,215.0,45.0,5.0,-11.0,1
-140.0,-17.0,213.0,42.0,6.0,-11.0,1
-142.0,-20.0,215.0,40.0,6.0,-10.0,1
-140.0,-23.0,217.0,37.0,6.0,-11.0,1
-139.0,-21.0,218.0,35.0,7.0,-11.0,1
-146.0,-17.0,208.0,34.0,7.0,-11.0,1
-140.0,-23.0,215.0,31.0,8.0,-11.0,1
-143.0,-17.0,213.0,28.0,9.0,-12.0,1
-142.0,-19.0,215.0,23.0,9.0,-13.0,1
-141.0,-21.0,214.0,22.0,9.0,-13.0,1
-139.0,-21.0,216.0,19.0,7.0,-15.0,1
-140.0,-20.0,215.0,17.0,8.0,-16.0,1
-145.0,-19.0,214.0,17.0,10.0,-13.0,1
-142.0,-20.0,216.0,14.0,9.0,-13.0,1
-140.0,-22.0,213.0,13.0,10.0,-12.0,1
-140.0,-20.0,211.0,12.0,10.0,-14.0,1
-143.0,-21.0,214.0,9.0,9.0,-14.0,1
-132.0,-21.0,224.0,7.0,8.0,-13.0,1
-144.0,-21.0,216.0,5.0,7.0,-14.0,1
-140.0,-18.0,213.0,3.0,7.0,-14.0,1
-142.0,-23.0,213.0,2.0,6.0,-13.0,1
-142.0,-17.0,214.0,-1.0,5.0,-12.0,1
-140.0,-22.0,216.0,-4.0,5.0,-12.0,1
-140.0,-23.0,218.0,-4.0,6.0,-13.0,1
-138.0,-23.0,213.0,-4.0,8.0,-13.0,1
-139.0,-21.0,211.0,-6.0,9.0,-12.0,1
-140.0,-25.0,214.0,-8.0,9.0,-12.0,1
-140.0,-21.0,214.0,-8.0,8.0,-14.0,1
-142.0,-24.0,215.0,-9.0,8.0,-14.0,1
-142.0,-20.0,211.0,-11.0,8.0,-15.0,1
-142.0,-22.0,217.0,-15.0,7.0,-15.0,1
-141.0,-21.0,214.0,-18.0,5.0,-15.0,1
-139.0,-21.0,215.0,-22.0,7.0,-15.0,1
-140.0,-23.0,213.0,-22.0,7.0,-16.0,1
-138.0,-23.0,216.0,-22.0,6.0,-16.0,1
-140.0,-22.0,213.0,-21.0,6.0,-19.0,1
-140.0,-23.0,217.0,-21.0,5.0,-18.0,1
-140.0,-22.0,214.0,-18.0,5.0,-17.0,1
-141.0,-22.0,217.0,-17.0,6.0,-17.0,1
-141.0,-27.0,216.0,-16.0,5.0,-17.0,1
-141.0,-24.0,220.0,-16.0,5.0,-15.0,1
-142.0,-22.0,217.0,-17.0,6.0,-16.0,1
-138.0,-23.0,219.0,-15.0,8.0,-15.0,1
-141.0,-22.0,216.0,-14.0,9.0,-13.0,1
-141.0,-23.0,223.0,-16.0,11.0,-12.0,1
-143.0,-25.0,216.0,-19.0,13.0,-12.0,1
-139.0,-25.0,215.0,-19.0,15.0,-13.0,1
-140.0,-24.0,216.0,-22.0,16.0,-12.0,1
-138.0,-25.0,214.0,-22.0,20.0,-12.0,1
-140.0,-21.0,212.0,-22.0,23.0,-11.0,1
-141.0,-26.0,219.0,-20.0,24.0,-11.0,1
-138.0,-22.0,212.0,-18.0,27.0,-12.0,1
-141.0,-24.0,216.0,-17.0,30.0,-13.0,1
-140.0,-26.0,211.0,-15.0,30.0,-13.0,1
-139.0,-25.0,213.0,-17.0,30.0,-12.0,1
-139.0,-24.0,216.0,-19.0,33.0,-11.0,1
-137.0,-24.0,214.0,-16.0,33.0,-13.0,1
-144.0,-25.0,212.0,-15.0,32.0,-14.0,1
-139.0,-27.0,213.0,-12.0,31.0,-15.0,1
-139.0,-28.0,212.0,-11.0,32.0,-14.0,1
-140.0,-26.0,214.0,-10.0,30.0,-12.0,1
-135.0,-21.0,221.0,-9.0,29.0,-13.0,1
-140.0,-27.0,215.0,-8.0,29.0,-14.0,1
-141.0,-26.0,210.0,-6.0,29.0,-16.0,1
-139.0,-23.0,215.0,-4.0,28.0,-16.0,1
-137.0,-26.0,217.0,-2.0,28.0,-16.0,1
-138.0,-29.0,212.0,1.0,29.0,-14.0,1
-138.0,-27.0,213.0,2.0,27.0,-15.0,1
-141.0,-27.0,213.0,5.0,27.0,-15.0,1
-141.0,-26.0,214.0,6.0,25.0,-16.0,1
-141.0,-25.0,217.0,6.0,26.0,-15.0,1
-141.0,-26.0,216.0,6.0,25.0,-15.0,1
-138.0,-26.0,215.0,5.0,25.0,-13.0,1
-140.0,-27.0,211.0,5.0,25.0,-14.0,1
-139.0,-27.0,218.0,5.0,22.0,-14.0,1
-141.0,-25.0,216.0,6.0,20.0,-14.0,1
-139.0,-24.0,218.0,8.0,20.0,-15.0,1
-143.0,-24.0,213.0,9.0,19.0,-13.0,1
-141.0,-28.0,219.0,9.0,21.0,-15.0,1
-143.0,-26.0,214.0,9.0,21.0,-15.0,1
-142.0,-27.0,216.0,9.0,22.0,-16.0,1
-143.0,-27.0,211.0,10.0,23.0,-16.0,1
-144.0,-24.0,206.0,9.0,22.0,-17.0,1
-140.0,-29.0,213.0,8.0,23.0,-17.0,1
-141.0,-27.0,214.0,7.0,24.0,-18.0,1
-144.0,-27.0,213.0,4.0,24.0,-19.0,1
-144.0,-28.0,216.0,1.0,24.0,-17.0,1
-140.0,-24.0,213.0,-1.0,25.0,-18.0,1
-143.0,-24.0,213.0,-3.0,26.0,-14.0,1
-140.0,-30.0,218.0,-5.0,27.0,-14.0,1
-138.0,-26.0,211.0,-5.0,28.0,-14.0,1
-141.0,-23.0,215.0,-4.0,28.0,-14.0,1
-142.0,-28.0,215.0,-5.0,27.0,-15.0,1
-141.0,-28.0,215.0,-7.0,29.0,-14.0,1
-142.0,-27.0,215.0,-8.0,28.0,-14.0,1
-141.0,-26.0,213.0,-9.0,27.0,-14.0,1
-140.0,-26.0,216.0,-11.0,29.0,-13.0,1
-141.0,-28.0,216.0,-13.0,29.0,-15.0,1
-141.0,-28.0,216.0,-12.0,28.0,-15.0,1
-142.0,-29.0,215.0,-12.0,29.0,-15.0,1
-138.0,-27.0,218.0,-12.0,29.0,-17.0,1
-139.0,-26.0,213.0,-14.0,32.0,-17.0,1
-139.0,-27.0,215.0,-18.0,33.0,-16.0,1
-137.0,-30.0,219.0,-19.0,33.0,-16.0,1
-147.0,-24.0,211.0,-17.0,35.0,-17.0,1
-141.0,-28.0,212.0,-16.0,33.0,-16.0,1
-142.0,-30.0,215.0,-16.0,34.0,-12.0,1
-142.0,-28.0,218.0,-17.0,35.0,-16.0,1
-139.0,-29.0,212.0,-16.0,34.0,-16.0,1
-144.0,-29.0,214.0,-15.0,32.0,-18.0,1
-139.0,-28.0,215.0,-12.0,31.0,-21.0,1
-143.0,-28.0,214.0,-13.0,31.0,-19.0,1
-144.0,-28.0,213.0,-15.0,32.0,-19.0,1
-144.0,-28.0,215.0,-15.0,31.0,-20.0,1
-141.0,-30.0,212.0,-13.0,29.0,-18.0,1
-141.0,-30.0,214.0,-13.0,28.0,-19.0,1
-143.0,-29.0,212.0,-14.0,26.0,-21.0,1
-144.0,-30.0,210.0,-16.0,25.0,-21.0,1
-143.0,-30.0,212.0,-16.0,25.0,-21.0,1
-143.0,-27.0,210.0,-16.0,22.0,-21.0,1
-143.0,-26.0,212.0,-14.0,23.0,-22.0,1
-143.0,-26.0,214.0,-15.0,23.0,-21.0,1
-140.0,-26.0,213.0,-16.0,26.0,-20.0,1
-143.0,-28.0,214.0,-16.0,27.0,-21.0,1
-140.0,-30.0,213.0,-14.0,31.0,-21.0,1
-140.0,-33.0,213.0,-11.0,34.0,-21.0,1
-142.0,-30.0,215.0,-6.0,34.0,-22.0,1
-143.0,-30.0,213.0,0.0,33.0,-23.0,1
-141.0,-34.0,208.0,4.0,32.0,-23.0,1
-144.0,-31.0,209.0,7.0,30.0,-21.0,1
-141.0,-32.0,213.0,9.0,26.0,-21.0,1
-141.0,-32.0,215.0,8.0,24.0,-20.0,1
-143.0,-32.0,215.0,5.0,23.0,-20.0,1
-145.0,-31.0,215.0,-1.0,24.0,-21.0,1
-144.0,-31.0,217.0,-7.0,26.0,-20.0,1
-142.0,-31.0,218.0,-13.0,30.0,-20.0,1
-141.0,-34.0,220.0,-14.0,33.0,-18.0,1
-142.0,-32.0,215.0,-11.0,34.0,-15.0,1
-140.0,-32.0,218.0,-3.0,35.0,-13.0,1
-141.0,-32.0,209.0,5.0,36.0,-13.0,1
-144.0,-31.0,208.0,5.0,37.0,-12.0,1
-144.0,-31.0,207.0,3.0,32.0,-12.0,1
-144.0,-32.0,208.0,4.0,27.0,-13.0,1
-142.0,-31.0,208.0,8.0,20.0,-12.0,1
-139.0,-33.0,210.0,11.0,19.0,-12.0,1
-141.0,-31.0,209.0,14.0,21.0,-12.0,1
-142.0,-32.0,212.0,16.0,24.0,-9.0,1
-154.0,-41.0,197.0,17.0,25.0,-10.0,1
-144.0,-32.0,212.0,18.0,25.0,-11.0,1
-142.0,-29.0,210.0,16.0,25.0,-12.0,1
-143.0,-29.0,215.0,14.0,25.0,-10.0,1
-144.0,-30.0,213.0,15.0,24.0,-10.0,1
-144.0,-33.0,212.0,12.0,22.0,-11.0,1
-142.0,-31.0,212.0,12.0,20.0,-14.0,1
-137.0,-34.0,218.0,14.0,19.0,-15.0,1
-142.0,-33.0,215.0,15.0,18.0,-14.0,1
-141.0,-34.0,215.0,18.0,16.0,-14.0,1
-142.0,-29.0,214.0,18.0,17.0,-16.0,1
-141.0,-29.0,212.0,19.0,17.0,-16.0,1
-140.0,-31.0,212.0,18.0,17.0,-15.0,1
-142.0,-32.0,210.0,16.0,16.0,-15.0,1
-139.0,-30.0,211.0,15.0,14.0,-16.0,1
-142.0,-32.0,212.0,12.0,14.0,-16.0,1
-144.0,-31.0,213.0,14.0,13.0,-17.0,1
-145.0,-30.0,215.0,14.0,13.0,-16.0,1
-142.0,-33.0,210.0,13.0,14.0,-18.0,1
-137.0,-35.0,215.0,15.0,12.0,-17.0,1
-143.0,-35.0,211.0,17.0,10.0,-15.0,1
-139.0,-33.0,209.0,20.0,9.0,-14.0,1
-143.0,-34.0,210.0,25.0,8.0,-14.0,1
-141.0,-32.0,208.0,29.0,8.0,-15.0,1
-143.0,-34.0,212.0,32.0,7.0,-15.0,1
-145.0,-33.0,213.0,35.0,8.0,-15.0,1
-143.0,-34.0,212.0,39.0,7.0,-12.0,1
-144.0,-34.0,212.0,43.0,7.0,-13.0,1
-143.0,-34.0,210.0,49.0,6.0,-12.0,1
-142.0,-33.0,209.0,54.0,3.0,-10.0,1
-145.0,-33.0,209.0,60.0,1.0,-9.0,1
-141.0,-33.0,206.0,63.0,-2.0,-8.0,1
-142.0,-34.0,210.0,66.0,-6.0,-9.0,1
-143.0,-33.0,213.0,68.0,-7.0,-10.0,1
-139.0,-34.0,210.0,70.0,-9.0,-10.0,1
-145.0,-31.0,212.0,70.0,-10.0,-12.0,1
-143.0,-31.0,215.0,67.0,-13.0,-12.0,1
-141.0,-32.0,213.0,65.0,-14.0,-13.0,1
-142.0,-34.0,210.0,63.0,-14.0,-13.0,1
-145.0,-31.0,214.0,62.0,-15.0,-13.0,1
-144.0,-33.0,215.0,61.0,-15.0,-12.0,1
-145.0,-35.0,211.0,63.0,-15.0,-12.0,1
-141.0,-33.0,215.0,62.0,-14.0,-10.0,1
-142.0,-34.0,213.0,64.0,-13.0,-9.0,1
