ax,ay,az,gx,gy,gz,label
6.0,-245.0,10.0,40.0,12.0,-10.0,1
3.0,-246.0,8.0,39.0,13.0,-10.0,1
4.0,-247.0,11.0,39.0,12.0,-7.0,1
7.0,-248.0,13.0,41.0,12.0,-6.0,1
2.0,-247.0,6.0,41.0,11.0,-5.0,1
9.0,-245.0,12.0,41.0,11.0,-5.0,1
4.0,-247.0,7.0,43.0,11.0,-6.0,1
5.0,-249.0,10.0,43.0,11.0,-7.0,1
3.0,-244.0,7.0,45.0,11.0,-8.0,1
3.0,-247.0,11.0,46.0,13.0,-11.0,1
0.0,-248.0,5.0,45.0,13.0,-12.0,1
3.0,-250.0,7.0,45.0,15.0,-15.0,1
4.0,-249.0,9.0,43.0,16.0,-17.0,1
6.0,-247.0,8.0,40.0,19.0,-17.0,1
4.0,-249.0,9.0,40.0,24.0,-21.0,1
8.0,-247.0,11.0,41.0,29.0,-24.0,1
10.0,-252.0,13.0,44.0,34.0,-28.0,1
7.0,-247.0,7.0,46.0,38.0,-33.0,1
8.0,-245.0,10.0,48.0,41.0,-33.0,1
13.0,-250.0,6.0,46.0,41.0,-33.0,1
11.0,-246.0,8.0,42.0,42.0,-36.0,1
13.0,-249.0,6.0,36.0,47.0,-42.0,1
13.0,-251.0,5.0,27.0,55.0,-47.0,1
18.0,-255.0,-1.0,15.0,68.0,-54.0,1
20.0,-254.0,4.0,3.0,82.0,-62.0,1
26.0,-256.0,1.0,-9.0,94.0,-71.0,1
24.0,-259.0,3.0,-17.0,107.0,-79.0,1
25.0,-258.0,1.0,-21.0,120.0,-85.0,1
26.0,-256.0,0.0,-21.0,133.0,-89.0,1
30.0,-259.0,0.0,-22.0,145.0,-93.0,1
30.0,-258.0,0.0,-20.0,159.0,-96.0,1
34.0,-257.0,-4.0,-18.0,175.0,-98.0,1
36.0,-255.0,-2.0,-13.0,192.0,-99.0,1
37.0,-257.0,-2.0,-6.0,209.0,-97.0,1
40.0,-256.0,1.0,5.0,227.0,-98.0,1
40.0,-256.0,4.0,14.0,246.0,-102.0,1
41.0,-252.0,0.0,23.0,265.0,-106.0,1
44.0,-253.0,7.0,30.0,283.0,-115.0,1
48.0,-253.0,3.0,40.0,300.0,-126.0,1
52.0,-246.0,0.0,51.0,321.0,-134.0,1
51.0,-246.0,0.0,58.0,346.0,-142.0,1
51.0,-244.0,0.0,61.0,368.0,-146.0,1
53.0,-240.0,-1.0,60.0,389.0,-150.0,1
54.0,-239.0,-2.0,61.0,403.0,-149.0,1
58.0,-238.0,0.0,61.0,416.0,-144.0,1
50.0,-240.0,3.0,60.0,424.0,-137.0,1
51.0,-238.0,1.0,53.0,433.0,-129.0,1
48.0,-240.0,4.0,40.0,440.0,-120.0,1
49.0,-239.0,-2.0,31.0,447.0,-112.0,1
54.0,-245.0,1.0,24.0,452.0,-104.0,1
48.0,-242.0,1.0,20.0,454.0,-97.0,1
49.0,-242.0,5.0,23.0,454.0,-90.0,1
45.0,-242.0,4.0,28.0,451.0,-83.0,1
46.0,-246.0,7.0,35.0,451.0,-77.0,1
45.0,-246.0,9.0,40.0,450.0,-74.0,1
41.0,-244.0,10.0,41.0,450.0,-70.0,1
37.0,-247.0,8.0,37.0,454.0,-72.0,1
40.0,-247.0,8.0,33.0,456.0,-72.0,1
39.0,-253.0,7.0,33.0,459.0,-72.0,1
38.0,-247.0,7.0,35.0,460.0,-73.0,1
39.0,-247.0,7.0,41.0,459.0,-74.0,1
40.0,-248.0,7.0,50.0,457.0,-71.0,1
38.0,-246.0,10.0,62.0,454.0,-70.0,1
35.0,-245.0,11.0,74.0,451.0,-68.0,1
34.0,-243.0,12.0,87.0,446.0,-64.0,1
31.0,-242.0,14.0,100.0,443.0,-58.0,1
39.0,-247.0,9.0,110.0,440.0,-51.0,1
35.0,-238.0,12.0,120.0,440.0,-46.0,1
35.0,-238.0,8.0,126.0,443.0,-40.0,1
38.0,-247.0,14.0,124.0,449.0,-36.0,1
44.0,-241.0,7.0,119.0,457.0,-34.0,1
48.0,-241.0,8.0,110.0,466.0,-32.0,1
49.0,-243.0,5.0,97.0,472.0,-31.0,1
48.0,-241.0,8.0,82.0,478.0,-31.0,1
54.0,-246.0,2.0,71.0,482.0,-32.0,1
54.0,-247.0,2.0,62.0,487.0,-34.0,1
58.0,-248.0,0.0,58.0,492.0,-37.0,1
60.0,-248.0,-1.0,53.0,495.0,-42.0,1
59.0,-255.0,1.0,47.0,502.0,-48.0,1
60.0,-259.0,0.0,38.0,509.0,-56.0,1
50.0,-255.0,1.0,32.0,509.0,-65.0,1
48.0,-263.0,6.0,33.0,504.0,-72.0,1
39.0,-263.0,11.0,44.0,492.0,-76.0,1
33.0,-267.0,11.0,66.0,480.0,-78.0,1
27.0,-267.0,19.0,97.0,471.0,-77.0,1
23.0,-264.0,18.0,130.0,468.0,-75.0,1
22.0,-260.0,19.0,160.0,473.0,-75.0,1
19.0,-259.0,16.0,181.0,480.0,-73.0,1
16.0,-255.0,12.0,196.0,485.0,-74.0,1
11.0,-253.0,11.0,212.0,485.0,-71.0,1
7.0,-250.0,5.0,224.0,480.0,-68.0,1
13.0,-246.0,18.0,233.0,473.0,-65.0,1
14.0,-242.0,18.0,238.0,465.0,-60.0,1
17.0,-241.0,14.0,237.0,462.0,-54.0,1
19.0,-239.0,8.0,229.0,459.0,-48.0,1
19.0,-232.0,7.0,215.0,460.0,-42.0,1
25.0,-232.0,4.0,199.0,461.0,-34.0,1
28.0,-230.0,2.0,180.0,464.0,-28.0,1
34.0,-230.0,4.0,158.0,465.0,-21.0,1
34.0,-229.0,2.0,133.0,470.0,-18.0,1
38.0,-234.0,6.0,111.0,475.0,-14.0,1
39.0,-227.0,-1.0,91.0,481.0,-11.0,1
41.0,-234.0,-1.0,74.0,487.0,-7.0,1
38.0,-235.0,5.0,62.0,489.0,-4.0,1
41.0,-234.0,3.0,53.0,491.0,0.0,1
39.0,-237.0,3.0,47.0,497.0,4.0,1
39.0,-237.0,2.0,43.0,503.0,9.0,1
34.0,-241.0,1.0,34.0,510.0,13.0,1
27.0,-241.0,0.0,27.0,520.0,20.0,1
26.0,-242.0,-3.0,20.0,531.0,27.0,1
24.0,-246.0,0.0,17.0,540.0,33.0,1
23.0,-250.0,3.0,14.0,546.0,39.0,1
19.0,-250.0,8.0,11.0,550.0,46.0,1
6.0,-248.0,2.0,14.0,554.0,56.0,1
5.0,-254.0,2.0,15.0,553.0,69.0,1
0.0,-248.0,1.0,15.0,550.0,78.0,1
0.0,-249.0,0.0,13.0,548.0,91.0,1
-2.0,-246.0,1.0,14.0,545.0,100.0,1
-5.0,-249.0,3.0,20.0,544.0,103.0,1
-12.0,-245.0,5.0,28.0,543.0,106.0,1
-13.0,-244.0,3.0,31.0,537.0,111.0,1
-16.0,-246.0,6.0,31.0,525.0,110.0,1
-15.0,-244.0,1.0,22.0,511.0,108.0,1
-22.0,-237.0,0.0,12.0,494.0,101.0,1
-22.0,-243.0,2.0,5.0,478.0,99.0,1
-23.0,-241.0,1.0,-2.0,462.0,95.0,1
-27.0,-239.0,4.0,-4.0,448.0,94.0,1
-31.0,-238.0,5.0,-5.0,434.0,90.0,1
-35.0,-239.0,12.0,-9.0,420.0,89.0,1
-36.0,-241.0,16.0,-15.0,409.0,85.0,1
-37.0,-244.0,13.0,-22.0,400.0,83.0,1
-39.0,-240.0,15.0,-30.0,389.0,85.0,1
-39.0,-241.0,19.0,-40.0,375.0,85.0,1
-41.0,-243.0,21.0,-43.0,362.0,90.0,1
-36.0,-244.0,22.0,-42.0,353.0,93.0,1
-37.0,-245.0,26.0,-43.0,345.0,99.0,1
-39.0,-247.0,19.0,-45.0,339.0,99.0,1
-37.0,-247.0,18.0,-50.0,333.0,99.0,1
-33.0,-246.0,19.0,-58.0,327.0,97.0,1
-31.0,-247.0,20.0,-68.0,320.0,98.0,1
-27.0,-248.0,22.0,-72.0,317.0,102.0,1
-28.0,-252.0,24.0,-72.0,312.0,108.0,1
-30.0,-254.0,20.0,-71.0,310.0,110.0,1
-30.0,-252.0,23.0,-67.0,308.0,112.0,1
-28.0,-253.0,25.0,-63.0,306.0,112.0,1
-28.0,-252.0,26.0,-61.0,310.0,112.0,1
-29.0,-251.0,21.0,-66.0,314.0,115.0,1
-29.0,-249.0,16.0,-72.0,319.0,115.0,1
-28.0,-248.0,13.0,-79.0,327.0,117.0,1
-26.0,-248.0,14.0,-91.0,333.0,121.0,1
-25.0,-254.0,15.0,-102.0,338.0,123.0,1
-21.0,-256.0,19.0,-114.0,341.0,128.0,1
-19.0,-260.0,12.0,-121.0,342.0,128.0,1
-20.0,-261.0,12.0,-121.0,343.0,129.0,1
-19.0,-265.0,11.0,-109.0,343.0,129.0,1
-17.0,-264.0,13.0,-83.0,343.0,124.0,1
-19.0,-268.0,20.0,-55.0,345.0,134.0,1
-19.0,-269.0,21.0,-31.0,348.0,145.0,1
-26.0,-264.0,21.0,-6.0,349.0,154.0,1
-25.0,-262.0,22.0,16.0,349.0,162.0,1
-29.0,-259.0,18.0,35.0,350.0,165.0,1
-32.0,-256.0,22.0,49.0,350.0,167.0,1
-33.0,-256.0,23.0,56.0,350.0,164.0,1
-30.0,-255.0,23.0,57.0,351.0,160.0,1
-31.0,-247.0,22.0,58.0,354.0,160.0,1
-25.0,-245.0,23.0,63.0,354.0,161.0,1
-27.0,-244.0,22.0,72.0,355.0,159.0,1
-25.0,-245.0,25.0,83.0,354.0,160.0,1
-30.0,-241.0,23.0,89.0,352.0,161.0,1
-28.0,-242.0,25.0,88.0,349.0,165.0,1
-32.0,-240.0,27.0,84.0,347.0,170.0,1
-28.0,-238.0,24.0,76.0,347.0,173.0,1
-30.0,-239.0,23.0,67.0,345.0,177.0,1
-24.0,-235.0,29.0,57.0,341.0,181.0,1
-26.0,-233.0,23.0,51.0,339.0,183.0,1
-25.0,-231.0,20.0,48.0,336.0,184.0,1
-30.0,-231.0,21.0,45.0,338.0,182.0,1
-26.0,-233.0,19.0,43.0,340.0,181.0,1
-25.0,-230.0,21.0,41.0,344.0,179.0,1
-17.0,-235.0,22.0,37.0,347.0,171.0,1
-14.0,-237.0,23.0,30.0,353.0,162.0,1
-13.0,-236.0,26.0,22.0,356.0,153.0,1
-9.0,-235.0,23.0,16.0,363.0,149.0,1
-6.0,-239.0,25.0,11.0,368.0,145.0,1
-3.0,-238.0,25.0,3.0,373.0,143.0,1
-3.0,-237.0,23.0,-6.0,381.0,141.0,1
-3.0,-241.0,24.0,-12.0,389.0,140.0,1
-3.0,-238.0,24.0,-13.0,395.0,134.0,1
-6.0,-243.0,25.0,-11.0,403.0,131.0,1
-1.0,-237.0,28.0,-4.0,412.0,125.0,1
-2.0,-239.0,25.0,4.0,421.0,114.0,1
0.0,-240.0,21.0,13.0,431.0,103.0,1
-1.0,-237.0,26.0,14.0,443.0,93.0,1
2.0,-242.0,23.0,10.0,452.0,83.0,1
-1.0,-239.0,21.0,2.0,462.0,75.0,1
-1.0,-245.0,23.0,-9.0,469.0,68.0,1
-6.0,-241.0,23.0,-19.0,474.0,61.0,1
-6.0,-240.0,23.0,-25.0,475.0,55.0,1
0.0,-248.0,23.0,-27.0,478.0,52.0,1
-5.0,-241.0,25.0,-26.0,479.0,46.0,1
-10.0,-239.0,22.0,-23.0,483.0,43.0,1
-5.0,-241.0,26.0,-17.0,484.0,38.0,1
-7.0,-243.0,26.0,-11.0,488.0,33.0,1
-10.0,-240.0,29.0,-6.0,494.0,24.0,1
-8.0,-239.0,24.0,-1.0,500.0,20.0,1
-7.0,-236.0,29.0,0.0,506.0,13.0,1
-7.0,-235.0,24.0,-3.0,512.0,7.0,1
-8.0,-232.0,28.0,-5.0,519.0,-1.0,1
-6.0,-233.0,30.0,-6.0,525.0,-7.0,1
-10.0,-235.0,22.0,-9.0,529.0,-11.0,1
-8.0,-231.0,29.0,-12.0,536.0,-14.0,1
-3.0,-231.0,30.0,-13.0,538.0,-15.0,1
-6.0,-234.0,28.0,-21.0,539.0,-19.0,1
-3.0,-233.0,30.0,-30.0,539.0,-23.0,1
-8.0,-232.0,30.0,-41.0,537.0,-26.0,1
-8.0,-234.0,33.0,-54.0,538.0,-33.0,1
-7.0,-236.0,34.0,-59.0,540.0,-38.0,1
-8.0,-234.0,32.0,-61.0,543.0,-45.0,1
-8.0,-235.0,31.0,-61.0,545.0,-50.0,1
-5.0,-240.0,31.0,-59.0,547.0,-55.0,1
-11.0,-236.0,26.0,-62.0,547.0,-59.0,1
-11.0,-238.0,28.0,-67.0,549.0,-63.0,1
-9.0,-239.0,30.0,-74.0,550.0,-70.0,1
-14.0,-234.0,27.0,-81.0,553.0,-74.0,1
-12.0,-238.0,28.0,-87.0,554.0,-73.0,1
-12.0,-238.0,32.0,-91.0,551.0,-75.0,1
-15.0,-241.0,34.0,-90.0,546.0,-78.0,1
-19.0,-241.0,31.0,-91.0,541.0,-80.0,1
-20.0,-238.0,31.0,-95.0,539.0,-86.0,1
-20.0,-241.0,29.0,-99.0,541.0,-92.0,1
-23.0,-245.0,35.0,-103.0,546.0,-98.0,1
-26.0,-242.0,29.0,-105.0,555.0,-102.0,1
-23.0,-246.0,28.0,-104.0,568.0,-104.0,1
-23.0,-247.0,28.0,-104.0,582.0,-106.0,1
-23.0,-249.0,27.0,-107.0,597.0,-107.0,1
-20.0,-247.0,28.0,-111.0,612.0,-105.0,1
-14.0,-250.0,28.0,-112.0,622.0,-102.0,1
-6.0,-249.0,29.0,-104.0,637.0,-108.0,1
1.0,-258.0,33.0,-90.0,661.0,-107.0,1
3.0,-256.0,31.0,-77.0,681.0,-106.0,1
7.0,-257.0,31.0,-64.0,693.0,-106.0,1
8.0,-254.0,36.0,-51.0,698.0,-104.0,1
9.0,-257.0,33.0,-41.0,697.0,-98.0,1
15.0,-256.0,33.0,-33.0,692.0,-92.0,1
14.0,-250.0,28.0,-31.0,683.0,-82.0,1
11.0,-253.0,29.0,-31.0,672.0,-73.0,1
11.0,-251.0,28.0,-35.0,663.0,-61.0,1
7.0,-255.0,32.0,-40.0,653.0,-50.0,1
4.0,-254.0,34.0,-43.0,645.0,-38.0,1
1.0,-261.0,35.0,-39.0,644.0,-31.0,1
-6.0,-260.0,42.0,-29.0,646.0,-23.0,1
-9.0,-258.0,39.0,-17.0,646.0,-19.0,1
-6.0,-264.0,38.0,-6.0,646.0,-16.0,1
-13.0,-262.0,43.0,8.0,645.0,-16.0,1
-18.0,-264.0,42.0,20.0,646.0,-18.0,1
-21.0,-261.0,44.0,28.0,644.0,-20.0,1
-20.0,-263.0,43.0,32.0,640.0,-24.0,1
-20.0,-261.0,47.0,34.0,637.0,-32.0,1
-25.0,-260.0,43.0,35.0,630.0,-39.0,1
-24.0,-261.0,45.0,32.0,624.0,-49.0,1
-22.0,-261.0,47.0,30.0,616.0,-56.0,1
-26.0,-255.0,46.0,25.0,610.0,-64.0,1
-20.0,-263.0,47.0,21.0,603.0,-71.0,1
-26.0,-267.0,48.0,17.0,593.0,-74.0,1
-19.0,-261.0,45.0,16.0,583.0,-75.0,1
-24.0,-263.0,43.0,14.0,569.0,-70.0,1
-23.0,-266.0,40.0,8.0,555.0,-62.0,1
-27.0,-269.0,36.0,-5.0,541.0,-48.0,1
-30.0,-276.0,31.0,-23.0,524.0,-28.0,1
-32.0,-284.0,27.0,-47.0,509.0,-1.0,1
-27.0,-293.0,19.0,-73.0,494.0,26.0,1
-31.0,-298.0,19.0,-95.0,476.0,56.0,1
-27.0,-312.0,23.0,-101.0,456.0,83.0,1
-29.0,-315.0,26.0,-91.0,434.0,110.0,1
-25.0,-318.0,23.0,-62.0,410.0,132.0,1
-20.0,-319.0,25.0,-21.0,387.0,151.0,1
-18.0,-314.0,25.0,26.0,363.0,170.0,1
-22.0,-306.0,20.0,72.0,335.0,186.0,1
-24.0,-302.0,18.0,112.0,299.0,200.0,1
-28.0,-292.0,15.0,143.0,257.0,212.0,1
-34.0,-287.0,15.0,167.0,209.0,225.0,1
-37.0,-280.0,7.0,186.0,160.0,238.0,1
-44.0,-276.0,3.0,196.0,109.0,255.0,1
-45.0,-269.0,-2.0,198.0,65.0,268.0,1
-46.0,-266.0,-10.0,196.0,30.0,278.0,1
-43.0,-262.0,-8.0,189.0,7.0,282.0,1
-41.0,-259.0,-10.0,183.0,0.0,273.0,1
-40.0,-254.0,-12.0,179.0,3.0,256.0,1
-34.0,-248.0,-6.0,179.0,16.0,225.0,1
-28.0,-244.0,-6.0,183.0,34.0,181.0,1
-26.0,-238.0,-9.0,185.0,57.0,131.0,1
-24.0,-230.0,-14.0,181.0,82.0,80.0,1
-14.0,-230.0,-15.0,172.0,108.0,30.0,1
-12.0,-226.0,-17.0,161.0,136.0,-20.0,1
-11.0,-227.0,-22.0,144.0,169.0,-65.0,1
-8.0,-223.0,-35.0,124.0,202.0,-102.0,1
-8.0,-226.0,-39.0,104.0,233.0,-132.0,1
-2.0,-227.0,-47.0,85.0,268.0,-155.0,1
0.0,-221.0,-51.0,75.0,303.0,-169.0,1
7.0,-219.0,-54.0,76.0,339.0,-179.0,1
14.0,-216.0,-50.0,84.0,370.0,-182.0,1
16.0,-215.0,-46.0,98.0,390.0,-182.0,1
14.0,-215.0,-44.0,109.0,398.0,-176.0,1
18.0,-213.0,-40.0,116.0,391.0,-155.0,1
18.0,-214.0,-40.0,116.0,372.0,-131.0,1
15.0,-209.0,-38.0,106.0,344.0,-104.0,1
7.0,-210.0,-40.0,88.0,313.0,-78.0,1
2.0,-221.0,-36.0,59.0,277.0,-53.0,1
-4.0,-228.0,-27.0,26.0,244.0,-33.0,1
-11.0,-234.0,-25.0,-4.0,210.0,-23.0,1
-14.0,-241.0,-28.0,-26.0,179.0,-23.0,1
-19.0,-249.0,-22.0,-35.0,154.0,-35.0,1
-21.0,-255.0,-19.0,-35.0,134.0,-52.0,1
-25.0,-255.0,-19.0,-22.0,118.0,-76.0,1
-24.0,-258.0,-21.0,-3.0,107.0,-98.0,1
-26.0,-258.0,-19.0,23.0,97.0,-127.0,1
-27.0,-256.0,-25.0,48.0,84.0,-156.0,1
-20.0,-259.0,-11.0,71.0,65.0,-181.0,1
-20.0,-257.0,-12.0,93.0,43.0,-203.0,1
-22.0,-257.0,-9.0,114.0,17.0,-227.0,1
-21.0,-257.0,-11.0,135.0,-6.0,-249.0,1
-16.0,-257.0,-9.0,157.0,-30.0,-265.0,1
-21.0,-253.0,-16.0,176.0,-49.0,-275.0,1
-25.0,-248.0,-22.0,178.0,-53.0,-281.0,1
-17.0,-252.0,-21.0,170.0,-49.0,-290.0,1
-17.0,-251.0,-23.0,160.0,-40.0,-306.0,1
-17.0,-247.0,-26.0,159.0,-26.0,-326.0,1
-7.0,-249.0,-10.0,167.0,-18.0,-348.0,1
-5.0,-250.0,-16.0,176.0,-19.0,-367.0,1
1.0,-243.0,-10.0,185.0,-23.0,-380.0,1
0.0,-241.0,-12.0,195.0,-28.0,-391.0,1
5.0,-241.0,-12.0,198.0,-31.0,-397.0,1
7.0,-241.0,-15.0,193.0,-35.0,-401.0,1
8.0,-240.0,-15.0,179.0,-38.0,-400.0,1
12.0,-243.0,-11.0,162.0,-42.0,-398.0,1
10.0,-242.0,-13.0,151.0,-42.0,-397.0,1
11.0,-240.0,-13.0,144.0,-40.0,-396.0,1
12.0,-238.0,-8.0,145.0,-38.0,-392.0,1
11.0,-239.0,-4.0,155.0,-39.0,-386.0,1
12.0,-236.0,-2.0,165.0,-42.0,-375.0,1
11.0,-233.0,-2.0,172.0,-47.0,-365.0,1
9.0,-229.0,-6.0,176.0,-52.0,-351.0,1
12.0,-233.0,2.0,176.0,-56.0,-339.0,1
10.0,-228.0,0.0,169.0,-58.0,-327.0,1
14.0,-231.0,-1.0,157.0,-57.0,-318.0,1
10.0,-224.0,0.0,141.0,-56.0,-307.0,1
13.0,-233.0,-2.0,127.0,-55.0,-294.0,1
10.0,-226.0,3.0,118.0,-54.0,-284.0,1
14.0,-231.0,3.0,116.0,-54.0,-272.0,1
12.0,-231.0,4.0,119.0,-56.0,-266.0,1
11.0,-224.0,7.0,129.0,-58.0,-262.0,1
15.0,-229.0,13.0,153.0,-61.0,-257.0,1
10.0,-228.0,9.0,170.0,-67.0,-255.0,1
15.0,-231.0,17.0,175.0,-72.0,-255.0,1
10.0,-235.0,15.0,170.0,-73.0,-256.0,1
8.0,-232.0,13.0,158.0,-73.0,-260.0,1
5.0,-229.0,9.0,153.0,-75.0,-255.0,1
8.0,-235.0,9.0,146.0,-73.0,-249.0,1
7.0,-228.0,10.0,144.0,-71.0,-241.0,1
4.0,-221.0,5.0,143.0,-71.0,-225.0,1
14.0,-223.0,9.0,139.0,-71.0,-209.0,1
8.0,-224.0,13.0,135.0,-76.0,-193.0,1
8.0,-221.0,10.0,131.0,-83.0,-174.0,1
9.0,-221.0,12.0,129.0,-90.0,-154.0,1
10.0,-219.0,15.0,128.0,-98.0,-136.0,1
8.0,-220.0,12.0,128.0,-105.0,-120.0,1
8.0,-219.0,14.0,122.0,-112.0,-103.0,1
11.0,-220.0,20.0,114.0,-120.0,-89.0,1
11.0,-224.0,18.0,109.0,-123.0,-77.0,1
13.0,-224.0,13.0,103.0,-122.0,-66.0,1
18.0,-225.0,21.0,99.0,-123.0,-52.0,1
15.0,-227.0,19.0,100.0,-124.0,-42.0,1
16.0,-222.0,21.0,105.0,-127.0,-29.0,1
18.0,-228.0,22.0,105.0,-128.0,-16.0,1
20.0,-232.0,29.0,105.0,-132.0,-3.0,1
17.0,-231.0,28.0,116.0,-136.0,11.0,1
14.0,-230.0,27.0,141.0,-141.0,23.0,1
17.0,-232.0,30.0,163.0,-147.0,30.0,1
16.0,-230.0,35.0,175.0,-153.0,42.0,1
16.0,-226.0,30.0,179.0,-158.0,56.0,1
14.0,-228.0,31.0,184.0,-162.0,69.0,1
15.0,-227.0,27.0,190.0,-167.0,77.0,1
18.0,-229.0,27.0,188.0,-169.0,89.0,1
16.0,-227.0,29.0,186.0,-174.0,101.0,1
17.0,-229.0,30.0,183.0,-177.0,111.0,1
15.0,-227.0,28.0,182.0,-181.0,116.0,1
19.0,-228.0,28.0,187.0,-187.0,122.0,1
17.0,-227.0,35.0,180.0,-194.0,126.0,1
19.0,-234.0,32.0,164.0,-202.0,129.0,1
21.0,-238.0,32.0,139.0,-205.0,129.0,1
21.0,-241.0,31.0,112.0,-208.0,130.0,1
22.0,-248.0,27.0,82.0,-214.0,132.0,1
18.0,-250.0,23.0,48.0,-221.0,135.0,1
18.0,-261.0,31.0,8.0,-234.0,139.0,1
16.0,-271.0,38.0,-26.0,-247.0,142.0,1
13.0,-279.0,36.0,-44.0,-259.0,146.0,1
8.0,-278.0,43.0,-41.0,-274.0,152.0,1
6.0,-279.0,46.0,-9.0,-284.0,160.0,1
6.0,-278.0,43.0,26.0,-288.0,166.0,1
8.0,-283.0,47.0,42.0,-281.0,166.0,1
4.0,-285.0,41.0,36.0,-266.0,164.0,1
8.0,-285.0,42.0,20.0,-246.0,159.0,1
11.0,-287.0,45.0,12.0,-224.0,152.0,1
18.0,-292.0,56.0,21.0,-207.0,145.0,1
27.0,-286.0,59.0,48.0,-203.0,139.0,1
28.0,-282.0,61.0,89.0,-210.0,131.0,1
27.0,-278.0,70.0,136.0,-228.0,127.0,1
23.0,-275.0,71.0,173.0,-253.0,120.0,1
25.0,-274.0,78.0,200.0,-280.0,115.0,1
20.0,-269.0,81.0,219.0,-307.0,108.0,1
16.0,-268.0,76.0,234.0,-336.0,99.0,1
15.0,-271.0,75.0,244.0,-363.0,87.0,1
10.0,-274.0,71.0,248.0,-394.0,77.0,1
4.0,-276.0,59.0,242.0,-425.0,65.0,1
3.0,-286.0,40.0,216.0,-458.0,48.0,1
1.0,-292.0,21.0,156.0,-488.0,32.0,1
1.0,-302.0,10.0,65.0,-506.0,13.0,1
3.0,-312.0,2.0,-42.0,-519.0,-11.0,1
11.0,-329.0,8.0,-136.0,-524.0,-37.0,1
19.0,-344.0,9.0,-190.0,-517.0,-67.0,1
25.0,-353.0,12.0,-198.0,-494.0,-107.0,1
36.0,-358.0,7.0,-168.0,-457.0,-148.0,1
45.0,-352.0,1.0,-127.0,-411.0,-200.0,1
51.0,-341.0,0.0,-87.0,-359.0,-241.0,1
56.0,-326.0,-9.0,-47.0,-296.0,-272.0,1
64.0,-314.0,-13.0,3.0,-228.0,-284.0,1
75.0,-299.0,-18.0,60.0,-157.0,-288.0,1
84.0,-287.0,-29.0,107.0,-91.0,-281.0,1
83.0,-277.0,-35.0,127.0,-33.0,-272.0,1
77.0,-269.0,-35.0,116.0,9.0,-261.0,1
69.0,-268.0,-44.0,88.0,34.0,-240.0,1
65.0,-266.0,-47.0,60.0,46.0,-207.0,1
53.0,-261.0,-53.0,53.0,43.0,-165.0,1
41.0,-253.0,-51.0,63.0,28.0,-119.0,1
35.0,-252.0,-46.0,85.0,3.0,-72.0,1
25.0,-239.0,-56.0,108.0,-34.0,-31.0,1
5.0,-241.0,-60.0,118.0,-84.0,8.0,1
-11.0,-232.0,-61.0,117.0,-141.0,45.0,1
-26.0,-231.0,-59.0,109.0,-197.0,81.0,1
-37.0,-221.0,-52.0,105.0,-251.0,106.0,1
-45.0,-213.0,-53.0,115.0,-291.0,120.0,1
-59.0,-203.0,-47.0,143.0,-308.0,126.0,1
-62.0,-203.0,-40.0,163.0,-316.0,118.0,1
-67.0,-199.0,-27.0,169.0,-312.0,92.0,1
-60.0,-199.0,-20.0,170.0,-293.0,63.0,1
-54.0,-209.0,-18.0,169.0,-267.0,36.0,1
-48.0,-211.0,-15.0,154.0,-239.0,12.0,1
-34.0,-216.0,-8.0,130.0,-218.0,-5.0,1
-22.0,-225.0,-13.0,97.0,-202.0,-6.0,1
-6.0,-232.0,-17.0,61.0,-188.0,0.0,1
0.0,-235.0,-19.0,29.0,-174.0,19.0,1
9.0,-239.0,-21.0,11.0,-158.0,44.0,1
10.0,-240.0,-26.0,12.0,-139.0,73.0,1
13.0,-244.0,-29.0,25.0,-120.0,108.0,1
14.0,-243.0,-31.0,41.0,-100.0,150.0,1
16.0,-242.0,-31.0,56.0,-80.0,196.0,1
15.0,-244.0,-28.0,67.0,-61.0,245.0,1
15.0,-243.0,-32.0,71.0,-48.0,289.0,1
12.0,-243.0,-29.0,67.0,-35.0,330.0,1
11.0,-243.0,-26.0,57.0,-19.0,366.0,1
7.0,-238.0,-28.0,51.0,-3.0,395.0,1
8.0,-242.0,-28.0,55.0,17.0,410.0,1
5.0,-246.0,-28.0,63.0,36.0,409.0,1
2.0,-240.0,-25.0,68.0,60.0,396.0,1
5.0,-241.0,-22.0,74.0,85.0,377.0,1
4.0,-239.0,-24.0,86.0,107.0,357.0,1
1.0,-240.0,-21.0,104.0,124.0,347.0,1
4.0,-238.0,-16.0,126.0,131.0,340.0,1
3.0,-229.0,-19.0,153.0,135.0,329.0,1
2.0,-226.0,-11.0,179.0,131.0,316.0,1
0.0,-222.0,-11.0,194.0,128.0,308.0,1
-6.0,-214.0,-9.0,197.0,121.0,302.0,1
-7.0,-213.0,-6.0,185.0,110.0,298.0,1
-15.0,-211.0,-3.0,163.0,98.0,297.0,1
-16.0,-210.0,-4.0,132.0,89.0,298.0,1
-20.0,-218.0,-3.0,99.0,81.0,300.0,1
-24.0,-219.0,-2.0,68.0,78.0,301.0,1
-24.0,-228.0,1.0,42.0,80.0,304.0,1
-26.0,-235.0,-1.0,22.0,86.0,304.0,1
-25.0,-235.0,3.0,14.0,96.0,301.0,1
-25.0,-235.0,9.0,14.0,106.0,296.0,1
-21.0,-238.0,8.0,16.0,119.0,290.0,1
-19.0,-239.0,10.0,24.0,131.0,281.0,1
-17.0,-236.0,8.0,34.0,144.0,269.0,1
-12.0,-236.0,11.0,44.0,153.0,257.0,1
-8.0,-235.0,15.0,56.0,163.0,243.0,1
-7.0,-236.0,16.0,68.0,169.0,230.0,1
-7.0,-237.0,16.0,80.0,172.0,219.0,1
-3.0,-231.0,18.0,91.0,176.0,210.0,1
-8.0,-234.0,11.0,104.0,176.0,204.0,1
-9.0,-230.0,13.0,116.0,176.0,196.0,1
-10.0,-231.0,12.0,125.0,173.0,193.0,1
-15.0,-226.0,14.0,131.0,173.0,188.0,1
-17.0,-224.0,15.0,134.0,167.0,181.0,1
-18.0,-223.0,14.0,134.0,164.0,175.0,1
-19.0,-219.0,10.0,132.0,161.0,168.0,1
-17.0,-222.0,15.0,131.0,161.0,159.0,1
-18.0,-218.0,19.0,133.0,159.0,152.0,1
-20.0,-218.0,18.0,131.0,159.0,139.0,1
-27.0,-207.0,20.0,127.0,157.0,122.0,1
-22.0,-208.0,15.0,121.0,159.0,104.0,1
-27.0,-206.0,23.0,118.0,160.0,88.0,1
-25.0,-209.0,22.0,113.0,158.0,69.0,1
-28.0,-209.0,24.0,108.0,158.0,48.0,1
-25.0,-210.0,29.0,99.0,153.0,30.0,1
-24.0,-216.0,25.0,83.0,150.0,11.0,1
-27.0,-215.0,30.0,74.0,148.0,-7.0,1
-22.0,-215.0,31.0,75.0,145.0,-21.0,1
-24.0,-219.0,31.0,79.0,144.0,-33.0,1
-21.0,-223.0,30.0,80.0,142.0,-50.0,1
-21.0,-221.0,30.0,82.0,141.0,-66.0,1
-19.0,-227.0,34.0,84.0,141.0,-80.0,1
-17.0,-223.0,30.0,84.0,141.0,-94.0,1
-16.0,-224.0,27.0,84.0,142.0,-106.0,1
-15.0,-224.0,27.0,87.0,145.0,-117.0,1
-15.0,-224.0,27.0,86.0,146.0,-126.0,1
-15.0,-223.0,27.0,86.0,149.0,-131.0,1
-13.0,-219.0,31.0,88.0,147.0,-130.0,1
-9.0,-225.0,28.0,89.0,148.0,-131.0,1
-4.0,-226.0,34.0,88.0,152.0,-132.0,1
-7.0,-229.0,29.0,86.0,157.0,-131.0,1
-7.0,-233.0,38.0,85.0,160.0,-131.0,1
-16.0,-232.0,25.0,87.0,165.0,-132.0,1
-9.0,-236.0,35.0,89.0,168.0,-133.0,1
-15.0,-238.0,38.0,90.0,173.0,-137.0,1
-15.0,-241.0,36.0,85.0,176.0,-138.0,1
-17.0,-245.0,32.0,81.0,178.0,-144.0,1
-22.0,-244.0,36.0,79.0,179.0,-149.0,1
-21.0,-252.0,33.0,78.0,182.0,-156.0,1
-27.0,-250.0,38.0,81.0,184.0,-163.0,1
-25.0,-251.0,41.0,80.0,190.0,-168.0,1
-21.0,-256.0,37.0,81.0,199.0,-170.0,1
-16.0,-257.0,38.0,83.0,206.0,-173.0,1
-16.0,-264.0,41.0,84.0,210.0,-174.0,1
-14.0,-262.0,36.0,83.0,209.0,-179.0,1
-12.0,-266.0,39.0,79.0,201.0,-186.0,1
-14.0,-262.0,41.0,72.0,185.0,-192.0,1
-12.0,-259.0,42.0,76.0,162.0,-196.0,1
-15.0,-261.0,46.0,95.0,136.0,-198.0,1
-20.0,-266.0,54.0,115.0,114.0,-198.0,1
-23.0,-265.0,58.0,130.0,96.0,-196.0,1
-28.0,-266.0,65.0,139.0,86.0,-191.0,1
-33.0,-268.0,69.0,146.0,88.0,-179.0,1
-36.0,-271.0,81.0,151.0,95.0,-163.0,1
-30.0,-279.0,84.0,151.0,107.0,-144.0,1
-28.0,-280.0,88.0,152.0,123.0,-121.0,1
-20.0,-285.0,87.0,157.0,136.0,-96.0,1
-14.0,-278.0,90.0,171.0,150.0,-72.0,1
-7.0,-278.0,88.0,192.0,165.0,-53.0,1
0.0,-275.0,93.0,219.0,182.0,-41.0,1
3.0,-268.0,88.0,252.0,203.0,-38.0,1
6.0,-266.0,81.0,285.0,228.0,-44.0,1
14.0,-263.0,86.0,308.0,254.0,-52.0,1
10.0,-259.0,74.0,318.0,285.0,-63.0,1
15.0,-259.0,76.0,305.0,318.0,-71.0,1
2.0,-262.0,51.0,270.0,352.0,-67.0,1
-1.0,-280.0,33.0,197.0,381.0,-53.0,1
-13.0,-298.0,16.0,96.0,399.0,-25.0,1
-23.0,-316.0,6.0,-15.0,409.0,15.0,1
-28.0,-336.0,3.0,-123.0,404.0,64.0,1
-35.0,-356.0,-1.0,-208.0,384.0,115.0,1
-32.0,-378.0,3.0,-252.0,349.0,166.0,1
-38.0,-384.0,4.0,-228.0,306.0,210.0,1
-46.0,-382.0,6.0,-140.0,253.0,239.0,1
-53.0,-374.0,3.0,-5.0,188.0,258.0,1
-71.0,-357.0,-9.0,143.0,112.0,272.0,1
-97.0,-328.0,-28.0,263.0,22.0,280.0,1
-114.0,-308.0,-48.0,325.0,-69.0,291.0,1
-118.0,-291.0,-67.0,339.0,-150.0,305.0,1
-115.0,-278.0,-76.0,318.0,-198.0,309.0,1
-101.0,-260.0,-78.0,291.0,-206.0,300.0,1
-88.0,-246.0,-82.0,278.0,-178.0,282.0,1
-66.0,-229.0,-75.0,287.0,-121.0,255.0,1
-51.0,-213.0,-63.0,311.0,-47.0,216.0,1
-28.0,-206.0,-53.0,331.0,35.0,163.0,1
-10.0,-192.0,-49.0,337.0,115.0,103.0,1
6.0,-186.0,-41.0,324.0,183.0,41.0,1
32.0,-184.0,-31.0,292.0,229.0,-6.0,1
48.0,-187.0,-25.0,244.0,246.0,-36.0,1
55.0,-194.0,-24.0,182.0,240.0,-53.0,1
61.0,-209.0,-23.0,107.0,215.0,-61.0,1
60.0,-224.0,-22.0,29.0,186.0,-67.0,1
56.0,-245.0,-18.0,-42.0,158.0,-65.0,1
47.0,-259.0,-15.0,-93.0,135.0,-68.0,1
35.0,-270.0,-19.0,-121.0,118.0,-73.0,1
15.0,-275.0,-25.0,-125.0,105.0,-86.0,1
11.0,-285.0,-14.0,-106.0,93.0,-108.0,1
1.0,-285.0,-23.0,-67.0,84.0,-128.0,1
-1.0,-287.0,-27.0,-21.0,74.0,-146.0,1
-12.0,-282.0,-24.0,21.0,60.0,-163.0,1
-19.0,-277.0,-23.0,53.0,46.0,-184.0,1
-28.0,-264.0,-22.0,76.0,34.0,-215.0,1
-37.0,-253.0,-23.0,93.0,23.0,-250.0,1
-44.0,-243.0,-26.0,106.0,8.0,-288.0,1
-45.0,-244.0,-25.0,109.0,-10.0,-328.0,1
-51.0,-233.0,-27.0,99.0,-29.0,-379.0,1
-54.0,-229.0,-26.0,76.0,-52.0,-427.0,1
-52.0,-233.0,-19.0,42.0,-71.0,-471.0,1
-51.0,-224.0,-17.0,3.0,-90.0,-508.0,1
-46.0,-223.0,-16.0,-9.0,-110.0,-532.0,1
-41.0,-220.0,-8.0,-7.0,-127.0,-555.0,1
-29.0,-221.0,-10.0,-2.0,-140.0,-564.0,1
-23.0,-221.0,-2.0,9.0,-150.0,-557.0,1
-10.0,-219.0,1.0,19.0,-160.0,-542.0,1
-1.0,-216.0,5.0,20.0,-168.0,-524.0,1
4.0,-216.0,-1.0,10.0,-175.0,-496.0,1
8.0,-214.0,-6.0,0.0,-185.0,-467.0,1
15.0,-215.0,-4.0,-12.0,-199.0,-436.0,1
18.0,-215.0,-9.0,-21.0,-216.0,-408.0,1
18.0,-209.0,-2.0,-30.0,-236.0,-376.0,1
22.0,-212.0,-4.0,-38.0,-257.0,-347.0,1
18.0,-215.0,-4.0,-45.0,-278.0,-320.0,1
14.0,-214.0,1.0,-49.0,-298.0,-294.0,1
14.0,-219.0,4.0,-47.0,-314.0,-276.0,1
12.0,-224.0,7.0,-45.0,-323.0,-265.0,1
6.0,-230.0,10.0,-49.0,-323.0,-258.0,1
7.0,-232.0,15.0,-55.0,-319.0,-258.0,1
7.0,-237.0,15.0,-55.0,-312.0,-257.0,1
5.0,-237.0,21.0,-45.0,-304.0,-260.0,1
-1.0,-232.0,15.0,-29.0,-291.0,-261.0,1
4.0,-239.0,19.0,-13.0,-281.0,-262.0,1
1.0,-244.0,20.0,2.0,-274.0,-259.0,1
4.0,-240.0,23.0,22.0,-270.0,-253.0,1
2.0,-236.0,20.0,40.0,-271.0,-244.0,1
2.0,-233.0,21.0,58.0,-275.0,-234.0,1
2.0,-232.0,17.0,79.0,-284.0,-221.0,1
1.0,-223.0,17.0,97.0,-292.0,-206.0,1
2.0,-225.0,14.0,104.0,-300.0,-190.0,1
5.0,-222.0,6.0,105.0,-308.0,-171.0,1
3.0,-214.0,9.0,95.0,-312.0,-153.0,1
9.0,-214.0,10.0,80.0,-316.0,-138.0,1
9.0,-212.0,5.0,64.0,-317.0,-122.0,1
10.0,-209.0,8.0,48.0,-317.0,-108.0,1
15.0,-210.0,9.0,33.0,-315.0,-95.0,1
15.0,-210.0,13.0,23.0,-311.0,-81.0,1
19.0,-207.0,16.0,17.0,-307.0,-69.0,1
20.0,-207.0,15.0,11.0,-305.0,-54.0,1
20.0,-208.0,19.0,8.0,-304.0,-36.0,1
24.0,-212.0,19.0,5.0,-302.0,-20.0,1
32.0,-220.0,27.0,2.0,-302.0,-6.0,1
28.0,-222.0,30.0,2.0,-302.0,12.0,1
30.0,-228.0,30.0,10.0,-303.0,32.0,1
26.0,-229.0,34.0,21.0,-309.0,49.0,1
22.0,-232.0,34.0,30.0,-313.0,65.0,1
17.0,-233.0,36.0,39.0,-318.0,79.0,1
15.0,-237.0,33.0,48.0,-322.0,92.0,1
9.0,-241.0,33.0,60.0,-324.0,102.0,1
9.0,-239.0,36.0,78.0,-323.0,109.0,1
4.0,-240.0,36.0,98.0,-321.0,115.0,1
5.0,-239.0,31.0,114.0,-320.0,120.0,1
2.0,-239.0,39.0,126.0,-315.0,124.0,1
4.0,-238.0,36.0,139.0,-312.0,122.0,1
2.0,-232.0,36.0,151.0,-310.0,120.0,1
6.0,-226.0,37.0,156.0,-308.0,126.0,1
6.0,-224.0,35.0,163.0,-308.0,135.0,1
6.0,-220.0,35.0,167.0,-311.0,141.0,1
9.0,-223.0,32.0,156.0,-308.0,145.0,1
13.0,-222.0,29.0,128.0,-307.0,151.0,1
9.0,-220.0,23.0,87.0,-306.0,154.0,1
8.0,-227.0,21.0,41.0,-308.0,158.0,1
8.0,-225.0,14.0,-12.0,-312.0,163.0,1
4.0,-232.0,18.0,-56.0,-323.0,171.0,1
4.0,-245.0,21.0,-90.0,-338.0,182.0,1
1.0,-252.0,26.0,-109.0,-355.0,191.0,1
0.0,-253.0,24.0,-113.0,-366.0,201.0,1
-3.0,-266.0,26.0,-113.0,-370.0,207.0,1
-6.0,-272.0,25.0,-113.0,-365.0,208.0,1
-2.0,-278.0,27.0,-119.0,-349.0,205.0,1
-4.0,-281.0,32.0,-122.0,-327.0,205.0,1
1.0,-287.0,36.0,-115.0,-309.0,199.0,1
3.0,-294.0,36.0,-95.0,-300.0,191.0,1
7.0,-302.0,46.0,-71.0,-302.0,178.0,1
7.0,-308.0,55.0,-51.0,-314.0,162.0,1
10.0,-312.0,62.0,-28.0,-336.0,146.0,1
10.0,-306.0,76.0,13.0,-363.0,130.0,1
8.0,-297.0,84.0,68.0,-395.0,112.0,1
-2.0,-287.0,84.0,121.0,-427.0,89.0,1
-5.0,-279.0,92.0,168.0,-456.0,72.0,1
-15.0,-269.0,90.0,204.0,-479.0,54.0,1
-16.0,-266.0,91.0,230.0,-495.0,44.0,1
-22.0,-258.0,93.0,242.0,-510.0,32.0,1
-24.0,-249.0,85.0,256.0,-529.0,29.0,1
-14.0,-255.0,83.0,273.0,-554.0,33.0,1
-9.0,-249.0,73.0,280.0,-587.0,43.0,1
-10.0,-245.0,64.0,263.0,-627.0,57.0,1
-7.0,-257.0,34.0,206.0,-673.0,73.0,1
-6.0,-271.0,6.0,97.0,-724.0,84.0,1
-10.0,-287.0,-14.0,-56.0,-775.0,94.0,1
-2.0,-309.0,-21.0,-221.0,-818.0,100.0,1
-3.0,-328.0,-17.0,-350.0,-846.0,90.0,1
5.0,-352.0,-3.0,-408.0,-849.0,60.0,1
15.0,-369.0,-2.0,-386.0,-817.0,7.0,1
30.0,-374.0,1.0,-308.0,-751.0,-69.0,1
33.0,-364.0,0.0,-211.0,-667.0,-158.0,1
38.0,-358.0,0.0,-117.0,-570.0,-244.0,1
50.0,-336.0,-3.0,-39.0,-470.0,-311.0,1
61.0,-313.0,-13.0,25.0,-372.0,-362.0,1
74.0,-301.0,-31.0,66.0,-275.0,-395.0,1
82.0,-288.0,-43.0,70.0,-185.0,-416.0,1
83.0,-284.0,-55.0,40.0,-116.0,-430.0,1
78.0,-277.0,-63.0,-3.0,-71.0,-428.0,1
71.0,-272.0,-64.0,-36.0,-48.0,-409.0,1
65.0,-265.0,-60.0,-42.0,-48.0,-375.0,1
53.0,-256.0,-60.0,-22.0,-61.0,-331.0,1
43.0,-253.0,-64.0,5.0,-93.0,-287.0,1
23.0,-241.0,-57.0,27.0,-142.0,-241.0,1
9.0,-217.0,-57.0,46.0,-207.0,-191.0,1
-13.0,-212.0,-48.0,60.0,-282.0,-142.0,1
-34.0,-197.0,-43.0,69.0,-357.0,-95.0,1
-42.0,-192.0,-40.0,80.0,-427.0,-54.0,1
-59.0,-189.0,-35.0,91.0,-480.0,-27.0,1
-68.0,-190.0,-28.0,91.0,-520.0,-15.0,1
-72.0,-190.0,-17.0,81.0,-540.0,-8.0,1
-74.0,-193.0,-17.0,69.0,-541.0,-4.0,1
-66.0,-201.0,-7.0,56.0,-533.0,-1.0,1
-57.0,-210.0,-12.0,35.0,-518.0,-3.0,1
-44.0,-225.0,-11.0,8.0,-496.0,-1.0,1
-27.0,-234.0,-13.0,-21.0,-471.0,7.0,1
-13.0,-249.0,-15.0,-45.0,-444.0,16.0,1
-3.0,-253.0,-16.0,-67.0,-418.0,28.0,1
4.0,-258.0,-24.0,-78.0,-400.0,47.0,1
12.0,-260.0,-27.0,-74.0,-387.0,73.0,1
23.0,-263.0,-31.0,-61.0,-382.0,104.0,1
24.0,-264.0,-36.0,-35.0,-372.0,139.0,1
31.0,-264.0,-26.0,-1.0,-360.0,176.0,1
28.0,-258.0,-23.0,29.0,-343.0,214.0,1
28.0,-257.0,-31.0,51.0,-320.0,250.0,1
21.0,-257.0,-33.0,59.0,-289.0,282.0,1
16.0,-254.0,-21.0,60.0,-253.0,307.0,1
18.0,-253.0,-25.0,63.0,-217.0,329.0,1
12.0,-251.0,-24.0,71.0,-185.0,346.0,1
10.0,-252.0,-20.0,86.0,-160.0,355.0,1
5.0,-248.0,-23.0,102.0,-139.0,358.0,1
7.0,-245.0,-20.0,125.0,-123.0,366.0,1
4.0,-243.0,-23.0,152.0,-112.0,373.0,1
6.0,-242.0,-22.0,177.0,-102.0,376.0,1
3.0,-233.0,-16.0,196.0,-96.0,377.0,1
-1.0,-221.0,-24.0,209.0,-91.0,377.0,1
1.0,-221.0,-9.0,215.0,-89.0,376.0,1
0.0,-215.0,-9.0,215.0,-90.0,372.0,1
1.0,-209.0,-1.0,213.0,-91.0,368.0,1
0.0,-206.0,0.0,203.0,-93.0,359.0,1
-4.0,-204.0,2.0,184.0,-98.0,352.0,1
-6.0,-212.0,6.0,158.0,-103.0,347.0,1
-4.0,-215.0,3.0,131.0,-107.0,341.0,1
-8.0,-211.0,13.0,105.0,-111.0,335.0,1
-7.0,-219.0,7.0,91.0,-114.0,332.0,1
-7.0,-227.0,15.0,85.0,-115.0,328.0,1
-15.0,-223.0,8.0,85.0,-113.0,325.0,1
-7.0,-228.0,9.0,85.0,-110.0,321.0,1
-11.0,-226.0,11.0,86.0,-104.0,315.0,1
-9.0,-229.0,12.0,91.0,-96.0,312.0,1
-6.0,-229.0,11.0,99.0,-87.0,307.0,1
-3.0,-232.0,16.0,106.0,-78.0,289.0,1
-1.0,-231.0,15.0,110.0,-68.0,273.0,1
-1.0,-231.0,14.0,115.0,-57.0,261.0,1
-3.0,-227.0,16.0,125.0,-51.0,247.0,1
-1.0,-225.0,16.0,138.0,-45.0,232.0,1
-1.0,-218.0,13.0,153.0,-38.0,215.0,1
-3.0,-221.0,19.0,166.0,-31.0,203.0,1
-3.0,-223.0,20.0,175.0,-23.0,188.0,1
-2.0,-218.0,16.0,177.0,-16.0,175.0,1
-9.0,-218.0,14.0,176.0,-7.0,161.0,1
-9.0,-216.0,20.0,171.0,-2.0,150.0,1
-12.0,-213.0,17.0,160.0,1.0,138.0,1
-15.0,-218.0,18.0,145.0,0.0,130.0,1
-16.0,-213.0,18.0,130.0,-3.0,122.0,1
-18.0,-209.0,14.0,118.0,-5.0,117.0,1
-19.0,-209.0,18.0,109.0,-6.0,110.0,1
-18.0,-209.0,22.0,103.0,-9.0,100.0,1
-24.0,-212.0,25.0,96.0,-12.0,88.0,1
-21.0,-209.0,21.0,87.0,-15.0,72.0,1
-21.0,-210.0,27.0,79.0,-16.0,52.0,1
-25.0,-206.0,26.0,75.0,-14.0,32.0,1
-24.0,-206.0,25.0,75.0,-11.0,12.0,1
-21.0,-212.0,32.0,72.0,-5.0,-11.0,1
-21.0,-209.0,34.0,65.0,3.0,-36.0,1
-20.0,-210.0,32.0,57.0,11.0,-61.0,1
-18.0,-213.0,37.0,50.0,19.0,-85.0,1
-17.0,-214.0,28.0,40.0,24.0,-108.0,1
-13.0,-217.0,30.0,27.0,29.0,-126.0,1
-13.0,-222.0,21.0,16.0,32.0,-139.0,1
-11.0,-225.0,31.0,8.0,36.0,-152.0,1
-10.0,-231.0,29.0,0.0,40.0,-161.0,1
-7.0,-232.0,28.0,-3.0,44.0,-170.0,1
-7.0,-234.0,31.0,-1.0,47.0,-176.0,1
-2.0,-239.0,33.0,4.0,50.0,-177.0,1
-5.0,-244.0,32.0,8.0,54.0,-179.0,1
-5.0,-247.0,29.0,14.0,57.0,-175.0,1
-4.0,-244.0,31.0,21.0,61.0,-170.0,1
-3.0,-250.0,26.0,25.0,63.0,-163.0,1
-8.0,-248.0,26.0,30.0,63.0,-154.0,1
-9.0,-253.0,25.0,34.0,65.0,-149.0,1
-6.0,-247.0,27.0,38.0,67.0,-146.0,1
-8.0,-246.0,32.0,44.0,72.0,-145.0,1
-6.0,-253.0,31.0,47.0,81.0,-146.0,1
-5.0,-253.0,27.0,52.0,96.0,-150.0,1
-6.0,-251.0,31.0,52.0,113.0,-157.0,1
0.0,-256.0,32.0,50.0,136.0,-166.0,1
-2.0,-256.0,32.0,45.0,160.0,-173.0,1
4.0,-260.0,38.0,38.0,186.0,-180.0,1
8.0,-263.0,38.0,29.0,210.0,-185.0,1
11.0,-264.0,42.0,24.0,227.0,-189.0,1
9.0,-269.0,40.0,26.0,235.0,-188.0,1
11.0,-262.0,42.0,34.0,235.0,-182.0,1
9.0,-264.0,49.0,48.0,226.0,-177.0,1
4.0,-269.0,49.0,68.0,216.0,-169.0,1
0.0,-266.0,57.0,92.0,208.0,-160.0,1
-5.0,-265.0,62.0,116.0,207.0,-150.0,1
-10.0,-269.0,64.0,137.0,214.0,-140.0,1
-18.0,-265.0,70.0,155.0,227.0,-128.0,1
-13.0,-267.0,83.0,174.0,246.0,-117.0,1
-14.0,-265.0,85.0,194.0,265.0,-99.0,1
-13.0,-271.0,86.0,207.0,281.0,-84.0,1
-15.0,-264.0,87.0,220.0,293.0,-68.0,1
-12.0,-261.0,87.0,232.0,303.0,-53.0,1
-16.0,-262.0,80.0,248.0,310.0,-36.0,1
-17.0,-258.0,75.0,262.0,314.0,-22.0,1
-21.0,-260.0,69.0,273.0,318.0,-8.0,1
-29.0,-258.0,65.0,273.0,325.0,6.0,1
-27.0,-271.0,52.0,251.0,333.0,27.0,1
-37.0,-282.0,25.0,196.0,344.0,53.0,1
-43.0,-293.0,7.0,111.0,350.0,90.0,1
-35.0,-312.0,-4.0,3.0,355.0,132.0,1
-38.0,-329.0,-5.0,-104.0,358.0,175.0,1
-41.0,-341.0,-5.0,-187.0,359.0,217.0,1
-41.0,-360.0,-1.0,-226.0,346.0,259.0,1
-38.0,-359.0,2.0,-209.0,313.0,297.0,1
-37.0,-362.0,7.0,-143.0,260.0,325.0,1
-36.0,-354.0,4.0,-47.0,191.0,342.0,1
-51.0,-334.0,7.0,64.0,112.0,338.0,1
-72.0,-310.0,1.0,171.0,22.0,324.0,1
-95.0,-296.0,-8.0,253.0,-78.0,316.0,1
-106.0,-287.0,-22.0,295.0,-174.0,321.0,1
-102.0,-277.0,-31.0,293.0,-237.0,326.0,1
-94.0,-272.0,-43.0,261.0,-247.0,316.0,1
-90.0,-268.0,-48.0,222.0,-212.0,284.0,1
-77.0,-264.0,-49.0,200.0,-157.0,248.0,1
-68.0,-258.0,-55.0,197.0,-103.0,217.0,1
-60.0,-255.0,-55.0,207.0,-62.0,191.0,1
-46.0,-247.0,-54.0,215.0,-25.0,158.0,1
-24.0,-228.0,-54.0,226.0,13.0,123.0,1
3.0,-218.0,-58.0,246.0,50.0,89.0,1
18.0,-208.0,-55.0,254.0,88.0,52.0,1
34.0,-208.0,-42.0,241.0,120.0,14.0,1
47.0,-200.0,-38.0,216.0,141.0,-11.0,1
57.0,-205.0,-30.0,189.0,145.0,-24.0,1
60.0,-210.0,-20.0,165.0,137.0,-29.0,1
55.0,-219.0,-12.0,144.0,118.0,-28.0,1
48.0,-224.0,-14.0,122.0,98.0,-26.0,1
35.0,-239.0,-11.0,91.0,84.0,-25.0,1
22.0,-250.0,-11.0,54.0,81.0,-38.0,1
10.0,-260.0,-10.0,21.0,80.0,-62.0,1
3.0,-269.0,-12.0,-7.0,82.0,-96.0,1
1.0,-274.0,-15.0,-24.0,88.0,-125.0,1
-8.0,-275.0,-14.0,-21.0,92.0,-151.0,1
-15.0,-275.0,-17.0,1.0,92.0,-176.0,1
-19.0,-269.0,-19.0,36.0,84.0,-197.0,1
-27.0,-264.0,-20.0,73.0,65.0,-220.0,1
-32.0,-260.0,-23.0,99.0,39.0,-246.0,1
-38.0,-253.0,-20.0,114.0,9.0,-272.0,1
-43.0,-246.0,-18.0,118.0,-23.0,-310.0,1
-43.0,-240.0,-18.0,110.0,-52.0,-353.0,1
-50.0,-237.0,-15.0,91.0,-74.0,-393.0,1
-49.0,-231.0,-13.0,71.0,-95.0,-430.0,1
-47.0,-227.0,-5.0,56.0,-117.0,-465.0,1
-42.0,-227.0,-2.0,46.0,-141.0,-489.0,1
-43.0,-227.0,-3.0,36.0,-166.0,-510.0,1
-32.0,-227.0,-2.0,24.0,-187.0,-524.0,1
-27.0,-227.0,0.0,18.0,-205.0,-526.0,1
-19.0,-221.0,-2.0,19.0,-219.0,-520.0,1
-13.0,-219.0,0.0,27.0,-234.0,-506.0,1
-5.0,-219.0,0.0,35.0,-248.0,-487.0,1
-1.0,-219.0,3.0,38.0,-264.0,-464.0,1
1.0,-213.0,0.0,35.0,-282.0,-441.0,1
2.0,-213.0,3.0,27.0,-301.0,-415.0,1
3.0,-212.0,1.0,14.0,-317.0,-386.0,1
5.0,-209.0,5.0,-2.0,-334.0,-356.0,1
2.0,-208.0,4.0,-20.0,-350.0,-331.0,1
4.0,-214.0,12.0,-37.0,-359.0,-310.0,1
8.0,-216.0,9.0,-57.0,-366.0,-291.0,1
4.0,-224.0,12.0,-75.0,-375.0,-276.0,1
6.0,-227.0,14.0,-91.0,-379.0,-264.0,1
4.0,-228.0,16.0,-103.0,-383.0,-259.0,1
6.0,-232.0,19.0,-107.0,-388.0,-257.0,1
6.0,-233.0,20.0,-103.0,-390.0,-255.0,1
6.0,-234.0,24.0,-94.0,-392.0,-253.0,1
8.0,-237.0,26.0,-81.0,-396.0,-252.0,1
5.0,-238.0,20.0,-64.0,-399.0,-244.0,1
9.0,-241.0,25.0,-44.0,-403.0,-232.0,1
5.0,-233.0,28.0,-26.0,-407.0,-220.0,1
4.0,-230.0,24.0,-14.0,-411.0,-211.0,1
4.0,-231.0,23.0,0.0,-414.0,-199.0,1
9.0,-233.0,24.0,21.0,-417.0,-187.0,1
4.0,-229.0,20.0,35.0,-421.0,-175.0,1
9.0,-226.0,20.0,45.0,-420.0,-169.0,1
9.0,-227.0,19.0,50.0,-422.0,-158.0,1
14.0,-226.0,16.0,46.0,-421.0,-151.0,1
13.0,-226.0,9.0,35.0,-420.0,-142.0,1
15.0,-223.0,13.0,26.0,-417.0,-135.0,1
17.0,-221.0,13.0,17.0,-414.0,-123.0,1
15.0,-214.0,11.0,6.0,-410.0,-113.0,1
17.0,-220.0,11.0,-6.0,-407.0,-105.0,1
21.0,-217.0,12.0,-18.0,-401.0,-93.0,1
21.0,-218.0,14.0,-29.0,-395.0,-83.0,1
22.0,-213.0,19.0,-38.0,-386.0,-71.0,1
23.0,-217.0,19.0,-47.0,-379.0,-57.0,1
24.0,-217.0,17.0,-53.0,-369.0,-39.0,1
23.0,-218.0,24.0,-56.0,-362.0,-24.0,1
22.0,-223.0,24.0,-54.0,-357.0,-6.0,1
25.0,-217.0,20.0,-48.0,-352.0,15.0,1
18.0,-224.0,29.0,-42.0,-346.0,38.0,1
15.0,-224.0,29.0,-41.0,-341.0,62.0,1
17.0,-226.0,36.0,-43.0,-339.0,85.0,1
14.0,-231.0,33.0,-45.0,-338.0,106.0,1
17.0,-233.0,35.0,-43.0,-338.0,122.0,1
16.0,-232.0,32.0,-39.0,-336.0,133.0,1
15.0,-229.0,32.0,-33.0,-329.0,142.0,1
17.0,-232.0,27.0,-26.0,-319.0,147.0,1
18.0,-229.0,32.0,-19.0,-308.0,148.0,1
19.0,-230.0,28.0,-16.0,-296.0,149.0,1
13.0,-228.0,27.0,-18.0,-285.0,148.0,1
17.0,-224.0,27.0,-21.0,-275.0,152.0,1
18.0,-224.0,28.0,-27.0,-270.0,158.0,1
15.0,-220.0,26.0,-34.0,-266.0,165.0,1
15.0,-223.0,24.0,-44.0,-264.0,177.0,1
14.0,-222.0,23.0,-58.0,-264.0,192.0,1
11.0,-220.0,25.0,-75.0,-265.0,204.0,1
10.0,-226.0,25.0,-91.0,-269.0,218.0,1
12.0,-232.0,23.0,-106.0,-275.0,230.0,1
8.0,-237.0,24.0,-123.0,-280.0,238.0,1
10.0,-250.0,33.0,-137.0,-283.0,251.0,1
8.0,-254.0,26.0,-145.0,-285.0,260.0,1
4.0,-257.0,28.0,-147.0,-286.0,265.0,1
2.0,-266.0,28.0,-144.0,-285.0,267.0,1
5.0,-272.0,23.0,-142.0,-277.0,264.0,1
2.0,-275.0,24.0,-142.0,-261.0,255.0,1
5.0,-277.0,28.0,-144.0,-237.0,250.0,1
8.0,-281.0,20.0,-137.0,-207.0,241.0,1
8.0,-282.0,25.0,-126.0,-183.0,230.0,1
12.0,-285.0,28.0,-107.0,-173.0,219.0,1
16.0,-288.0,41.0,-80.0,-170.0,209.0,1
13.0,-289.0,51.0,-43.0,-183.0,200.0,1
9.0,-294.0,45.0,-5.0,-206.0,194.0,1
11.0,-296.0,60.0,27.0,-237.0,186.0,1
4.0,-300.0,65.0,49.0,-270.0,181.0,1
-1.0,-298.0,77.0,71.0,-302.0,173.0,1
-8.0,-294.0,81.0,97.0,-329.0,162.0,1
-14.0,-292.0,81.0,131.0,-351.0,146.0,1
-24.0,-284.0,88.0,170.0,-368.0,128.0,1
-28.0,-274.0,90.0,205.0,-386.0,118.0,1
-28.0,-276.0,90.0,238.0,-408.0,111.0,1
-29.0,-270.0,93.0,271.0,-432.0,103.0,1
-30.0,-266.0,89.0,302.0,-460.0,97.0,1
-23.0,-262.0,84.0,330.0,-493.0,105.0,1
-16.0,-259.0,81.0,349.0,-532.0,122.0,1
-8.0,-257.0,69.0,353.0,-572.0,145.0,1
0.0,-261.0,54.0,333.0,-613.0,175.0,1
1.0,-260.0,40.0,283.0,-655.0,203.0,1
1.0,-272.0,8.0,193.0,-696.0,222.0,1
5.0,-288.0,-22.0,49.0,-730.0,231.0,1
6.0,-315.0,-42.0,-149.0,-752.0,230.0,1
6.0,-340.0,-46.0,-345.0,-755.0,222.0,1
10.0,-358.0,-40.0,-473.0,-739.0,194.0,1
16.0,-380.0,-27.0,-497.0,-701.0,146.0,1
23.0,-392.0,-19.0,-420.0,-635.0,81.0,1
29.0,-384.0,-14.0,-279.0,-545.0,8.0,1
38.0,-367.0,-10.0,-120.0,-441.0,-65.0,1
44.0,-343.0,-15.0,19.0,-333.0,-125.0,1
56.0,-311.0,-35.0,121.0,-230.0,-159.0,1
69.0,-290.0,-52.0,171.0,-134.0,-171.0,1
78.0,-267.0,-71.0,175.0,-48.0,-178.0,1
91.0,-256.0,-91.0,139.0,27.0,-185.0,1
86.0,-239.0,-98.0,78.0,80.0,-191.0,1
74.0,-224.0,-108.0,18.0,102.0,-193.0,1
59.0,-223.0,-100.0,-21.0,87.0,-190.0,1
47.0,-211.0,-99.0,-40.0,44.0,-186.0,1
27.0,-205.0,-81.0,-41.0,-26.0,-174.0,1
16.0,-202.0,-74.0,-34.0,-114.0,-162.0,1
-3.0,-201.0,-53.0,-32.0,-195.0,-153.0,1
-35.0,-195.0,-36.0,-32.0,-263.0,-145.0,1
-58.0,-196.0,-24.0,-47.0,-319.0,-126.0,1
-72.0,-205.0,-5.0,-69.0,-358.0,-100.0,1
-80.0,-210.0,1.0,-86.0,-385.0,-67.0,1
-88.0,-219.0,10.0,-84.0,-403.0,-31.0,1
-83.0,-229.0,10.0,-71.0,-410.0,4.0,1
-66.0,-237.0,4.0,-61.0,-404.0,40.0,1
-62.0,-249.0,-2.0,-62.0,-397.0,84.0,1
-50.0,-256.0,-13.0,-67.0,-394.0,134.0,1
-36.0,-265.0,-20.0,-77.0,-395.0,181.0,1
-22.0,-272.0,-33.0,-89.0,-401.0,221.0,1
-13.0,-279.0,-36.0,-94.0,-407.0,256.0,1
-13.0,-284.0,-39.0,-85.0,-418.0,288.0,1
-13.0,-285.0,-39.0,-65.0,-438.0,328.0,1
-11.0,-286.0,-39.0,-34.0,-459.0,365.0,1
-15.0,-280.0,-40.0,12.0,-476.0,397.0,1
-10.0,-270.0,-39.0,64.0,-489.0,417.0,1
-4.0,-264.0,-49.0,107.0,-491.0,426.0,1
4.0,-256.0,-49.0,124.0,-485.0,421.0,1
13.0,-251.0,-52.0,120.0,-467.0,405.0,1
25.0,-243.0,-44.0,108.0,-430.0,388.0,1
35.0,-240.0,-44.0,97.0,-381.0,371.0,1
41.0,-234.0,-32.0,104.0,-321.0,354.0,1
53.0,-234.0,-26.0,130.0,-245.0,338.0,1
60.0,-225.0,-19.0,160.0,-161.0,319.0,1
57.0,-218.0,-12.0,173.0,-81.0,302.0,1
56.0,-213.0,-4.0,163.0,-13.0,294.0,1
52.0,-211.0,-3.0,138.0,46.0,292.0,1
46.0,-208.0,0.0,103.0,99.0,290.0,1
35.0,-206.0,2.0,77.0,143.0,295.0,1
23.0,-211.0,0.0,62.0,183.0,309.0,1
16.0,-215.0,-2.0,51.0,216.0,319.0,1
-3.0,-217.0,-1.0,38.0,248.0,325.0,1
-18.0,-222.0,1.0,19.0,263.0,346.0,1
-31.0,-227.0,0.0,5.0,266.0,370.0,1
-41.0,-224.0,2.0,-1.0,265.0,381.0,1
-46.0,-233.0,1.0,6.0,266.0,380.0,1
-51.0,-234.0,-3.0,16.0,271.0,379.0,1
-55.0,-239.0,0.0,26.0,276.0,380.0,1
-56.0,-237.0,0.0,30.0,283.0,384.0,1
-55.0,-237.0,3.0,33.0,287.0,392.0,1
-55.0,-232.0,9.0,42.0,289.0,400.0,1
-48.0,-232.0,11.0,54.0,284.0,409.0,1
-50.0,-225.0,11.0,66.0,277.0,418.0,1
-44.0,-221.0,11.0,70.0,264.0,425.0,1
-39.0,-217.0,11.0,69.0,250.0,425.0,1
-32.0,-219.0,17.0,60.0,237.0,420.0,1
-33.0,-218.0,13.0,49.0,222.0,407.0,1
-31.0,-219.0,12.0,43.0,208.0,389.0,1
-29.0,-229.0,5.0,46.0,203.0,366.0,1
-22.0,-223.0,10.0,58.0,202.0,335.0,1
-19.0,-227.0,10.0,72.0,205.0,301.0,1
-20.0,-223.0,7.0,84.0,213.0,263.0,1
-16.0,-224.0,7.0,91.0,225.0,231.0,1
-20.0,-223.0,5.0,99.0,236.0,195.0,1
-20.0,-223.0,6.0,106.0,249.0,161.0,1
-23.0,-223.0,7.0,112.0,265.0,139.0,1
-24.0,-219.0,14.0,111.0,271.0,123.0,1
-26.0,-223.0,12.0,103.0,268.0,109.0,1
-32.0,-222.0,7.0,94.0,256.0,92.0,1
-28.0,-226.0,11.0,83.0,245.0,75.0,1
-30.0,-223.0,11.0,72.0,243.0,57.0,1
-30.0,-223.0,11.0,67.0,249.0,35.0,1
-29.0,-223.0,16.0,62.0,260.0,15.0,1
-23.0,-222.0,17.0,57.0,266.0,-4.0,1
-25.0,-225.0,20.0,54.0,268.0,-22.0,1
-27.0,-229.0,24.0,52.0,262.0,-40.0,1
-26.0,-229.0,27.0,55.0,255.0,-58.0,1
-22.0,-227.0,23.0,56.0,248.0,-75.0,1
-22.0,-226.0,25.0,54.0,242.0,-92.0,1
-21.0,-229.0,33.0,50.0,233.0,-110.0,1
-23.0,-223.0,34.0,49.0,223.0,-124.0,1
-24.0,-230.0,25.0,48.0,208.0,-138.0,1
-18.0,-229.0,30.0,53.0,199.0,-149.0,1
-20.0,-222.0,30.0,65.0,193.0,-158.0,1
-18.0,-221.0,25.0,78.0,191.0,-169.0,1
-16.0,-216.0,25.0,92.0,195.0,-179.0,1
-14.0,-213.0,23.0,102.0,205.0,-184.0,1
-9.0,-213.0,20.0,110.0,217.0,-194.0,1
-12.0,-213.0,18.0,112.0,230.0,-203.0,1
-5.0,-210.0,15.0,111.0,245.0,-214.0,1
-7.0,-206.0,22.0,108.0,259.0,-221.0,1
-5.0,-201.0,30.0,106.0,277.0,-231.0,1
-1.0,-209.0,28.0,107.0,300.0,-243.0,1
0.0,-211.0,33.0,111.0,330.0,-258.0,1
2.0,-216.0,40.0,114.0,361.0,-271.0,1
3.0,-217.0,39.0,112.0,388.0,-288.0,1
1.0,-217.0,43.0,104.0,407.0,-302.0,1
2.0,-224.0,42.0,87.0,420.0,-313.0,1
0.0,-229.0,41.0,67.0,431.0,-323.0,1
-1.0,-236.0,39.0,47.0,439.0,-333.0,1
-3.0,-240.0,36.0,32.0,450.0,-346.0,1
-10.0,-240.0,42.0,25.0,467.0,-358.0,1
-7.0,-244.0,40.0,26.0,492.0,-370.0,1
-8.0,-244.0,43.0,39.0,517.0,-378.0,1
-10.0,-247.0,48.0,62.0,532.0,-380.0,1
-11.0,-245.0,44.0,88.0,538.0,-373.0,1
-13.0,-242.0,42.0,111.0,536.0,-362.0,1
-10.0,-245.0,45.0,126.0,527.0,-346.0,1
-10.0,-246.0,42.0,132.0,516.0,-327.0,1
-15.0,-243.0,36.0,123.0,507.0,-305.0,1
-11.0,-247.0,33.0,105.0,498.0,-278.0,1
-6.0,-249.0,39.0,84.0,486.0,-248.0,1
-20.0,-254.0,45.0,64.0,472.0,-215.0,1
-23.0,-250.0,42.0,47.0,452.0,-181.0,1
-24.0,-255.0,45.0,35.0,423.0,-149.0,1
-31.0,-253.0,47.0,21.0,394.0,-113.0,1
-44.0,-255.0,47.0,2.0,370.0,-79.0,1
-51.0,-256.0,52.0,-22.0,345.0,-52.0,1
-57.0,-256.0,56.0,-46.0,313.0,-30.0,1
-66.0,-250.0,56.0,-62.0,276.0,-12.0,1
-64.0,-256.0,58.0,-74.0,236.0,0.0,1
-73.0,-253.0,60.0,-89.0,195.0,8.0,1
-70.0,-262.0,54.0,-111.0,160.0,12.0,1
-83.0,-260.0,55.0,-139.0,125.0,14.0,1
-82.0,-266.0,55.0,-175.0,89.0,13.0,1
-91.0,-267.0,50.0,-209.0,53.0,12.0,1
-92.0,-281.0,46.0,-242.0,19.0,9.0,1
-90.0,-282.0,45.0,-271.0,-7.0,8.0,1
-88.0,-288.0,41.0,-293.0,-26.0,8.0,1
-83.0,-291.0,39.0,-315.0,-36.0,9.0,1
-74.0,-292.0,36.0,-336.0,-42.0,17.0,1
-69.0,-294.0,38.0,-359.0,-52.0,26.0,1
-58.0,-297.0,32.0,-378.0,-59.0,32.0,1
-52.0,-291.0,35.0,-394.0,-63.0,36.0,1
-36.0,-295.0,41.0,-409.0,-66.0,40.0,1
-33.0,-290.0,37.0,-420.0,-71.0,47.0,1
-24.0,-290.0,41.0,-429.0,-77.0,52.0,1
-17.0,-285.0,39.0,-435.0,-86.0,56.0,1
-17.0,-283.0,38.0,-439.0,-94.0,60.0,1
-17.0,-277.0,44.0,-444.0,-109.0,63.0,1
-17.0,-278.0,46.0,-451.0,-127.0,70.0,1
-11.0,-268.0,48.0,-454.0,-148.0,68.0,1
-5.0,-266.0,46.0,-459.0,-170.0,57.0,1
-7.0,-257.0,45.0,-465.0,-191.0,46.0,1
-10.0,-252.0,42.0,-471.0,-213.0,32.0,1
-20.0,-248.0,41.0,-482.0,-243.0,14.0,1
-35.0,-248.0,32.0,-497.0,-281.0,-1.0,1
-46.0,-242.0,27.0,-515.0,-328.0,-12.0,1
-47.0,-241.0,13.0,-536.0,-375.0,-23.0,1
-46.0,-242.0,1.0,-556.0,-418.0,-35.0,1
-48.0,-237.0,0.0,-570.0,-454.0,-48.0,1
-48.0,-237.0,0.0,-569.0,-489.0,-53.0,1
-57.0,-231.0,-12.0,-551.0,-521.0,-57.0,1
-50.0,-233.0,-4.0,-521.0,-546.0,-64.0,1
-44.0,-228.0,-17.0,-482.0,-555.0,-72.0,1
-45.0,-222.0,-19.0,-447.0,-551.0,-85.0,1
-34.0,-218.0,-23.0,-419.0,-543.0,-101.0,1
-32.0,-216.0,-28.0,-399.0,-537.0,-119.0,1
-26.0,-211.0,-26.0,-385.0,-538.0,-138.0,1
-29.0,-212.0,-37.0,-376.0,-545.0,-158.0,1
-26.0,-212.0,-40.0,-368.0,-559.0,-176.0,1
-36.0,-219.0,-47.0,-361.0,-579.0,-199.0,1
-41.0,-223.0,-59.0,-360.0,-600.0,-227.0,1
-53.0,-234.0,-61.0,-367.0,-617.0,-255.0,1
-62.0,-241.0,-74.0,-383.0,-634.0,-280.0,1
-82.0,-251.0,-95.0,-404.0,-652.0,-297.0,1
-87.0,-268.0,-117.0,-435.0,-674.0,-302.0,1
-100.0,-276.0,-126.0,-468.0,-695.0,-296.0,1
-109.0,-288.0,-143.0,-505.0,-722.0,-280.0,1
-113.0,-298.0,-154.0,-535.0,-757.0,-246.0,1
-124.0,-302.0,-171.0,-549.0,-803.0,-192.0,1
-114.0,-307.0,-180.0,-538.0,-853.0,-115.0,1
-109.0,-312.0,-178.0,-488.0,-914.0,-5.0,1
-109.0,-320.0,-180.0,-409.0,-986.0,93.0,1
-103.0,-324.0,-174.0,-326.0,-1068.0,183.0,1
-95.0,-323.0,-173.0,-258.0,-1157.0,257.0,1
-77.0,-323.0,-167.0,-202.0,-1237.0,311.0,1
-73.0,-312.0,-161.0,-149.0,-1294.0,342.0,1
-61.0,-310.0,-156.0,-95.0,-1318.0,354.0,1
-47.0,-309.0,-141.0,-44.0,-1319.0,346.0,1
-41.0,-304.0,-134.0,-4.0,-1304.0,320.0,1
-29.0,-309.0,-123.0,25.0,-1275.0,275.0,1
-22.0,-308.0,-119.0,47.0,-1242.0,214.0,1
-16.0,-307.0,-110.0,56.0,-1203.0,142.0,1
-14.0,-301.0,-97.0,61.0,-1165.0,66.0,1
-2.0,-298.0,-96.0,74.0,-1114.0,-11.0,1
7.0,-283.0,-89.0,93.0,-1059.0,-100.0,1
10.0,-280.0,-62.0,120.0,-1001.0,-194.0,1
10.0,-271.0,-61.0,151.0,-945.0,-290.0,1
14.0,-261.0,-50.0,184.0,-898.0,-384.0,1
13.0,-255.0,-47.0,208.0,-863.0,-473.0,1
18.0,-245.0,-41.0,218.0,-833.0,-555.0,1
17.0,-239.0,-38.0,215.0,-806.0,-629.0,1
20.0,-234.0,-34.0,204.0,-783.0,-693.0,1
14.0,-225.0,-37.0,183.0,-761.0,-745.0,1
12.0,-227.0,-42.0,152.0,-737.0,-777.0,1
9.0,-223.0,-45.0,120.0,-720.0,-796.0,1
6.0,-227.0,-46.0,92.0,-711.0,-809.0,1
6.0,-216.0,-38.0,69.0,-717.0,-810.0,1
-2.0,-217.0,-40.0,58.0,-732.0,-804.0,1
-1.0,-218.0,-40.0,48.0,-750.0,-796.0,1
-1.0,-216.0,-40.0,40.0,-763.0,-785.0,1
2.0,-215.0,-39.0,33.0,-774.0,-773.0,1
-4.0,-212.0,-40.0,28.0,-779.0,-757.0,1
-3.0,-215.0,-40.0,21.0,-782.0,-731.0,1
-3.0,-217.0,-42.0,22.0,-786.0,-704.0,1
-4.0,-217.0,-44.0,23.0,-790.0,-684.0,1
-2.0,-218.0,-40.0,24.0,-792.0,-671.0,1
-6.0,-220.0,-44.0,25.0,-798.0,-656.0,1
-4.0,-223.0,-37.0,32.0,-812.0,-647.0,1
-2.0,-227.0,-38.0,51.0,-839.0,-645.0,1
2.0,-233.0,-35.0,81.0,-875.0,-648.0,1
-2.0,-233.0,-40.0,113.0,-907.0,-655.0,1
2.0,-234.0,-40.0,139.0,-936.0,-666.0,1
4.0,-237.0,-44.0,154.0,-956.0,-685.0,1
4.0,-242.0,-40.0,164.0,-970.0,-713.0,1
5.0,-245.0,-42.0,172.0,-980.0,-738.0,1
2.0,-248.0,-37.0,187.0,-983.0,-762.0,1
7.0,-253.0,-40.0,205.0,-981.0,-790.0,1
1.0,-256.0,-31.0,223.0,-973.0,-814.0,1
-3.0,-255.0,-29.0,243.0,-963.0,-834.0,1
-2.0,-253.0,-29.0,262.0,-950.0,-837.0,1
0.0,-254.0,-33.0,276.0,-938.0,-826.0,1
-3.0,-249.0,-22.0,291.0,-928.0,-800.0,1
0.0,-242.0,-21.0,309.0,-917.0,-767.0,1
6.0,-241.0,-23.0,326.0,-908.0,-725.0,1
16.0,-240.0,-13.0,336.0,-899.0,-686.0,1
18.0,-237.0,-9.0,349.0,-891.0,-644.0,1
28.0,-230.0,-7.0,360.0,-881.0,-601.0,1
32.0,-225.0,-10.0,381.0,-867.0,-556.0,1
38.0,-223.0,-6.0,402.0,-851.0,-510.0,1
44.0,-218.0,-11.0,419.0,-834.0,-472.0,1
52.0,-211.0,-11.0,420.0,-815.0,-440.0,1
56.0,-208.0,-12.0,412.0,-794.0,-416.0,1
63.0,-208.0,-11.0,400.0,-767.0,-393.0,1
60.0,-205.0,-11.0,387.0,-730.0,-372.0,1
58.0,-208.0,-10.0,370.0,-691.0,-355.0,1
56.0,-205.0,-5.0,358.0,-644.0,-335.0,1
60.0,-212.0,-13.0,344.0,-592.0,-323.0,1
48.0,-218.0,0.0,334.0,-537.0,-307.0,1
45.0,-219.0,-2.0,333.0,-483.0,-291.0,1
40.0,-223.0,-3.0,339.0,-439.0,-270.0,1
29.0,-217.0,5.0,354.0,-400.0,-252.0,1
25.0,-214.0,8.0,373.0,-366.0,-224.0,1
15.0,-213.0,15.0,395.0,-339.0,-200.0,1
16.0,-213.0,18.0,421.0,-320.0,-172.0,1
20.0,-209.0,14.0,442.0,-306.0,-148.0,1
16.0,-199.0,23.0,455.0,-294.0,-123.0,1
13.0,-196.0,29.0,467.0,-286.0,-97.0,1
8.0,-193.0,34.0,476.0,-285.0,-72.0,1
9.0,-200.0,36.0,481.0,-287.0,-46.0,1
7.0,-198.0,35.0,474.0,-291.0,-16.0,1
4.0,-199.0,47.0,462.0,-293.0,9.0,1
4.0,-200.0,52.0,451.0,-300.0,34.0,1
1.0,-199.0,49.0,454.0,-308.0,62.0,1
-2.0,-196.0,47.0,458.0,-321.0,89.0,1
0.0,-197.0,47.0,464.0,-338.0,121.0,1
-8.0,-190.0,46.0,467.0,-355.0,150.0,1
-9.0,-191.0,42.0,467.0,-380.0,179.0,1
-12.0,-195.0,49.0,461.0,-410.0,205.0,1
-10.0,-199.0,44.0,451.0,-446.0,228.0,1
-12.0,-201.0,57.0,435.0,-486.0,244.0,1
-10.0,-207.0,60.0,425.0,-526.0,254.0,1
-11.0,-210.0,62.0,419.0,-561.0,253.0,1
-7.0,-217.0,56.0,416.0,-594.0,249.0,1
-5.0,-222.0,57.0,408.0,-628.0,240.0,1
-8.0,-227.0,54.0,393.0,-666.0,229.0,1
-10.0,-231.0,50.0,374.0,-703.0,218.0,1
-13.0,-234.0,46.0,357.0,-733.0,216.0,1
-23.0,-232.0,50.0,338.0,-753.0,220.0,1
-30.0,-233.0,49.0,327.0,-763.0,234.0,1
-27.0,-235.0,43.0,312.0,-763.0,251.0,1
-23.0,-240.0,38.0,301.0,-753.0,262.0,1
-24.0,-235.0,40.0,296.0,-734.0,264.0,1
-22.0,-247.0,34.0,297.0,-719.0,272.0,1
-9.0,-251.0,39.0,302.0,-705.0,269.0,1
4.0,-255.0,36.0,313.0,-677.0,253.0,1
22.0,-258.0,41.0,322.0,-634.0,221.0,1
47.0,-266.0,40.0,322.0,-587.0,178.0,1
74.0,-276.0,40.0,314.0,-551.0,135.0,1
99.0,-280.0,40.0,294.0,-529.0,90.0,1
111.0,-288.0,47.0,271.0,-508.0,49.0,1
123.0,-303.0,39.0,248.0,-483.0,10.0,1
127.0,-313.0,45.0,222.0,-456.0,-32.0,1
118.0,-324.0,47.0,195.0,-423.0,-69.0,1
101.0,-333.0,41.0,171.0,-391.0,-98.0,1
85.0,-346.0,47.0,148.0,-358.0,-121.0,1
65.0,-356.0,48.0,136.0,-328.0,-137.0,1
42.0,-361.0,53.0,153.0,-297.0,-139.0,1
22.0,-367.0,57.0,204.0,-273.0,-131.0,1
3.0,-365.0,47.0,279.0,-258.0,-113.0,1
-5.0,-362.0,51.0,362.0,-257.0,-91.0,1
-14.0,-346.0,37.0,443.0,-271.0,-65.0,1
-22.0,-328.0,23.0,502.0,-304.0,-42.0,1
-21.0,-310.0,17.0,537.0,-348.0,-23.0,1
-32.0,-287.0,1.0,557.0,-396.0,-2.0,1
-28.0,-271.0,-11.0,559.0,-453.0,18.0,1
-29.0,-254.0,-17.0,546.0,-505.0,27.0,1
-23.0,-246.0,-30.0,523.0,-540.0,24.0,1
-22.0,-232.0,-33.0,496.0,-561.0,9.0,1
-16.0,-223.0,-47.0,467.0,-570.0,-7.0,1
-10.0,-217.0,-58.0,437.0,-573.0,-25.0,1
0.0,-204.0,-71.0,410.0,-566.0,-44.0,1
3.0,-193.0,-77.0,388.0,-549.0,-72.0,1
5.0,-183.0,-99.0,373.0,-528.0,-99.0,1
8.0,-170.0,-110.0,364.0,-506.0,-123.0,1
15.0,-163.0,-123.0,359.0,-479.0,-147.0,1
14.0,-157.0,-126.0,353.0,-449.0,-166.0,1
19.0,-157.0,-130.0,345.0,-416.0,-186.0,1
26.0,-157.0,-128.0,339.0,-369.0,-207.0,1
28.0,-166.0,-123.0,345.0,-306.0,-231.0,1
28.0,-170.0,-113.0,365.0,-234.0,-264.0,1
31.0,-180.0,-114.0,394.0,-160.0,-302.0,1
33.0,-191.0,-106.0,420.0,-97.0,-338.0,1
25.0,-198.0,-100.0,436.0,-46.0,-362.0,1
16.0,-206.0,-87.0,432.0,-16.0,-365.0,1
9.0,-218.0,-74.0,415.0,-1.0,-346.0,1
-6.0,-220.0,-48.0,409.0,-1.0,-309.0,1
-20.0,-221.0,-28.0,438.0,-16.0,-265.0,1
-23.0,-216.0,-1.0,512.0,-47.0,-218.0,1
-21.0,-210.0,10.0,618.0,-92.0,-176.0,1
-26.0,-201.0,27.0,722.0,-128.0,-136.0,1
-36.0,-193.0,35.0,805.0,-137.0,-98.0,1
-45.0,-179.0,42.0,863.0,-129.0,-72.0,1
-61.0,-160.0,42.0,894.0,-117.0,-46.0,1
-65.0,-151.0,50.0,905.0,-113.0,-26.0,1
-70.0,-138.0,54.0,898.0,-126.0,-17.0,1
-76.0,-129.0,65.0,885.0,-161.0,-28.0,1
-69.0,-124.0,78.0,883.0,-229.0,-66.0,1
-63.0,-125.0,71.0,895.0,-308.0,-120.0,1
-56.0,-127.0,58.0,910.0,-372.0,-181.0,1
-53.0,-124.0,44.0,908.0,-425.0,-238.0,1
-43.0,-120.0,31.0,899.0,-492.0,-280.0,1
-29.0,-120.0,8.0,895.0,-595.0,-312.0,1
-17.0,-113.0,-14.0,891.0,-734.0,-324.0,1
-9.0,-112.0,-34.0,883.0,-903.0,-309.0,1
-7.0,-106.0,-45.0,865.0,-1089.0,-271.0,1
-18.0,-103.0,-48.0,841.0,-1285.0,-224.0,1
-22.0,-109.0,-41.0,820.0,-1473.0,-176.0,1
-20.0,-119.0,-31.0,806.0,-1634.0,-138.0,1
-42.0,-127.0,-9.0,794.0,-1742.0,-108.0,1
-50.0,-134.0,-5.0,775.0,-1798.0,-81.0,1
-58.0,-152.0,4.0,738.0,-1791.0,-72.0,1
-71.0,-175.0,9.0,682.0,-1735.0,-91.0,1
-90.0,-196.0,20.0,623.0,-1649.0,-141.0,1
-107.0,-226.0,20.0,593.0,-1548.0,-220.0,1
-120.0,-237.0,13.0,610.0,-1425.0,-309.0,1
-131.0,-256.0,-21.0,677.0,-1301.0,-400.0,1
-146.0,-263.0,-54.0,774.0,-1222.0,-510.0,1
-137.0,-267.0,-92.0,905.0,-1190.0,-629.0,1
-120.0,-258.0,-119.0,1095.0,-1193.0,-752.0,1
-97.0,-242.0,-115.0,1318.0,-1207.0,-872.0,1
-70.0,-217.0,-88.0,1546.0,-1238.0,-970.0,1
-45.0,-182.0,-71.0,1756.0,-1282.0,-1046.0,1
-10.0,-130.0,-50.0,1926.0,-1339.0,-1096.0,1
23.0,-87.0,-17.0,2029.0,-1415.0,-1120.0,1
35.0,-52.0,-12.0,2068.0,-1540.0,-1121.0,1
63.0,-13.0,6.0,2065.0,-1712.0,-1092.0,1
90.0,13.0,12.0,2022.0,-1867.0,-1052.0,1
125.0,38.0,39.0,1957.0,-1971.0,-1021.0,1
144.0,56.0,48.0,1872.0,-2051.0,-1001.0,1
165.0,67.0,49.0,1760.0,-2103.0,-1009.0,1
183.0,71.0,58.0,1640.0,-2092.0,-1051.0,1
180.0,72.0,60.0,1530.0,-2009.0,-1112.0,1
167.0,63.0,60.0,1429.0,-1872.0,-1172.0,1
147.0,62.0,61.0,1339.0,-1700.0,-1217.0,1
126.0,48.0,59.0,1261.0,-1512.0,-1236.0,1
81.0,39.0,60.0,1185.0,-1343.0,-1225.0,1
38.0,31.0,52.0,1110.0,-1245.0,-1196.0,1
-11.0,20.0,42.0,1042.0,-1226.0,-1167.0,1
-50.0,5.0,31.0,980.0,-1256.0,-1148.0,1
-67.0,-17.0,11.0,935.0,-1297.0,-1149.0,1
-90.0,-36.0,-16.0,909.0,-1310.0,-1180.0,1
-103.0,-48.0,-36.0,899.0,-1274.0,-1237.0,1
-99.0,-56.0,-44.0,901.0,-1187.0,-1319.0,1
-80.0,-65.0,-58.0,935.0,-1079.0,-1423.0,1
-66.0,-67.0,-70.0,1000.0,-985.0,-1542.0,1
-41.0,-68.0,-98.0,1088.0,-934.0,-1649.0,1
-14.0,-71.0,-103.0,1172.0,-923.0,-1740.0,1
13.0,-68.0,-106.0,1231.0,-905.0,-1816.0,1
43.0,-67.0,-94.0,1275.0,-865.0,-1885.0,1
53.0,-75.0,-79.0,1336.0,-833.0,-1949.0,1
63.0,-60.0,-71.0,1411.0,-843.0,-1993.0,1
66.0,-41.0,-68.0,1450.0,-893.0,-1993.0,1
69.0,-24.0,-65.0,1436.0,-937.0,-1935.0,1
76.0,-10.0,-51.0,1398.0,-979.0,-1820.0,1
83.0,0.0,-32.0,1367.0,-1024.0,-1663.0,1
85.0,7.0,5.0,1375.0,-1091.0,-1492.0,1
91.0,18.0,38.0,1413.0,-1206.0,-1316.0,1
120.0,31.0,71.0,1477.0,-1331.0,-1153.0,1
145.0,38.0,97.0,1548.0,-1419.0,-1020.0,1
150.0,44.0,123.0,1592.0,-1436.0,-920.0,1
147.0,33.0,134.0,1577.0,-1411.0,-828.0,1
114.0,15.0,163.0,1535.0,-1379.0,-727.0,1
101.0,3.0,196.0,1523.0,-1321.0,-625.0,1
117.0,-24.0,184.0,1539.0,-1195.0,-593.0,1
133.0,-40.0,150.0,1579.0,-1057.0,-672.0,1
155.0,-36.0,49.0,1646.0,-982.0,-854.0,1
193.0,-52.0,-54.0,1616.0,-982.0,-1083.0,1
240.0,-112.0,-57.0,1406.0,-1013.0,-1306.0,1
310.0,-219.0,36.0,1141.0,-1057.0,-1468.0,1
387.0,-319.0,104.0,1020.0,-1096.0,-1569.0,1
471.0,-466.0,171.0,1053.0,-1144.0,-1695.0,1
511.0,-614.0,212.0,1184.0,-1123.0,-1852.0,1
510.0,-731.0,214.0,1423.0,-898.0,-1899.0,1
487.0,-828.0,196.0,1696.0,-408.0,-1735.0,1
441.0,-894.0,213.0,1993.0,179.0,-1355.0,1
368.0,-954.0,275.0,2410.0,729.0,-802.0,1
300.0,-941.0,287.0,3009.0,1139.0,-231.0,1
280.0,-850.0,254.0,3710.0,1354.0,185.0,1
317.0,-711.0,209.0,4409.0,1465.0,281.0,1
388.0,-583.0,196.0,5033.0,1632.0,64.0,1
504.0,-420.0,232.0,5463.0,1930.0,-369.0,1
689.0,-289.0,291.0,5604.0,2264.0,-898.0,1
824.0,-153.0,364.0,5342.0,2472.0,-1410.0,1
894.0,-34.0,462.0,4577.0,2513.0,-1754.0,1
923.0,-8.0,516.0,3473.0,2692.0,-1958.0,1
934.0,-79.0,544.0,2289.0,3117.0,-2103.0,1
889.0,-288.0,575.0,1340.0,3540.0,-2194.0,1
819.0,-562.0,561.0,838.0,3665.0,-2109.0,1
715.0,-820.0,493.0,694.0,3620.0,-1911.0,1
614.0,-948.0,423.0,752.0,3506.0,-1711.0,1
346.0,-971.0,391.0,1047.0,3417.0,-1483.0,1
-15.0,-957.0,405.0,1510.0,3171.0,-935.0,1
-98.0,-869.0,416.0,2206.0,2707.0,-294.0,1
-72.0,-725.0,368.0,3101.0,2205.0,-201.0,1
-52.0,-594.0,305.0,3866.0,1745.0,-631.0,1
-77.0,-439.0,167.0,4153.0,1465.0,-1080.0,1
-44.0,-331.0,118.0,3924.0,1213.0,-1439.0,1
-43.0,-282.0,177.0,3595.0,966.0,-1740.0,1
-15.0,-276.0,159.0,3466.0,810.0,-1933.0,1
-16.0,-288.0,145.0,3450.0,751.0,-2010.0,1
-24.0,-296.0,117.0,3434.0,698.0,-1955.0,1
15.0,-303.0,81.0,3399.0,736.0,-1823.0,1
30.0,-292.0,113.0,3336.0,960.0,-1682.0,1
41.0,-274.0,185.0,3277.0,1289.0,-1522.0,1
20.0,-260.0,220.0,3221.0,1459.0,-1305.0,1
83.0,-233.0,203.0,3130.0,1344.0,-1016.0,1
123.0,-196.0,153.0,3010.0,1145.0,-772.0,1
158.0,-154.0,127.0,2853.0,1017.0,-539.0,1
244.0,-106.0,152.0,2684.0,1075.0,-316.0,1
325.0,-80.0,192.0,2576.0,1307.0,-172.0,1
389.0,-32.0,209.0,2529.0,1566.0,-132.0,1
416.0,24.0,176.0,2497.0,1778.0,-118.0,1
388.0,82.0,145.0,2403.0,1963.0,-66.0,1
335.0,125.0,134.0,2228.0,2149.0,38.0,1
275.0,155.0,155.0,1996.0,2305.0,199.0,1
196.0,189.0,170.0,1791.0,2363.0,357.0,1
136.0,209.0,183.0,1661.0,2304.0,462.0,1
88.0,233.0,174.0,1579.0,2171.0,535.0,1
57.0,244.0,183.0,1465.0,1984.0,620.0,1
38.0,236.0,169.0,1313.0,1744.0,695.0,1
-6.0,212.0,158.0,1133.0,1474.0,718.0,1
-24.0,186.0,153.0,957.0,1211.0,730.0,1
-63.0,161.0,155.0,785.0,998.0,695.0,1
-90.0,144.0,166.0,634.0,815.0,633.0,1
-88.0,135.0,164.0,504.0,651.0,563.0,1
-102.0,115.0,201.0,338.0,512.0,493.0,1
-89.0,86.0,220.0,142.0,382.0,410.0,1
-63.0,50.0,224.0,-36.0,327.0,299.0,1
-40.0,23.0,224.0,-127.0,379.0,176.0,1
-10.0,4.0,221.0,-131.0,463.0,49.0,1
16.0,-17.0,219.0,-81.0,528.0,-83.0,1
48.0,-24.0,215.0,-3.0,559.0,-214.0,1
68.0,-26.0,201.0,64.0,564.0,-338.0,1
102.0,-27.0,191.0,94.0,589.0,-442.0,1
115.0,-19.0,187.0,124.0,660.0,-525.0,1
129.0,3.0,181.0,149.0,743.0,-581.0,1
133.0,25.0,179.0,143.0,807.0,-613.0,1
132.0,47.0,177.0,119.0,844.0,-626.0,1
133.0,59.0,188.0,92.0,854.0,-616.0,1
128.0,66.0,190.0,76.0,832.0,-588.0,1
122.0,78.0,192.0,79.0,796.0,-541.0,1
112.0,89.0,203.0,89.0,770.0,-475.0,1
96.0,96.0,211.0,90.0,771.0,-398.0,1
85.0,93.0,240.0,79.0,794.0,-318.0,1
81.0,88.0,266.0,68.0,832.0,-250.0,1
74.0,83.0,297.0,80.0,879.0,-196.0,1
74.0,89.0,317.0,100.0,911.0,-137.0,1
68.0,99.0,318.0,103.0,914.0,-89.0,1
69.0,115.0,301.0,75.0,889.0,-49.0,1
64.0,129.0,290.0,18.0,851.0,-24.0,1
56.0,143.0,274.0,-36.0,795.0,-12.0,1
45.0,147.0,265.0,-70.0,722.0,-18.0,1
39.0,144.0,258.0,-84.0,654.0,-43.0,1
37.0,136.0,254.0,-89.0,613.0,-82.0,1
32.0,132.0,249.0,-92.0,600.0,-136.0,1
46.0,124.0,258.0,-105.0,603.0,-202.0,1
59.0,116.0,260.0,-119.0,608.0,-282.0,1
73.0,106.0,261.0,-108.0,616.0,-362.0,1
84.0,106.0,259.0,-67.0,623.0,-440.0,1
88.0,106.0,256.0,-5.0,639.0,-503.0,1
79.0,105.0,246.0,50.0,657.0,-530.0,1
69.0,101.0,240.0,83.0,665.0,-523.0,1
51.0,97.0,235.0,90.0,660.0,-497.0,1
14.0,103.0,236.0,71.0,631.0,-444.0,1
-25.0,103.0,232.0,30.0,552.0,-353.0,1
-69.0,98.0,242.0,-37.0,411.0,-220.0,1
-90.0,80.0,240.0,-110.0,258.0,-88.0,1
-97.0,84.0,228.0,-154.0,141.0,-6.0,1
-96.0,74.0,229.0,-228.0,76.0,29.0,1
-105.0,68.0,219.0,-267.0,43.0,58.0,1
-102.0,63.0,227.0,-270.0,63.0,94.0,1
-94.0,64.0,233.0,-244.0,147.0,112.0,1
-71.0,58.0,223.0,-209.0,263.0,105.0,1
-66.0,40.0,226.0,-224.0,354.0,61.0,1
-73.0,26.0,240.0,-292.0,396.0,0.0,1
-78.0,5.0,273.0,-347.0,380.0,-50.0,1
-81.0,-12.0,299.0,-333.0,327.0,-83.0,1
-80.0,-23.0,316.0,-263.0,262.0,-105.0,1
-77.0,-29.0,317.0,-165.0,196.0,-119.0,1
-63.0,-39.0,318.0,-66.0,129.0,-105.0,1
-36.0,-35.0,312.0,16.0,56.0,-77.0,1
-10.0,-34.0,302.0,82.0,-19.0,-50.0,1
6.0,-28.0,284.0,123.0,-81.0,-32.0,1
14.0,-19.0,263.0,138.0,-125.0,-17.0,1
16.0,-12.0,253.0,131.0,-158.0,2.0,1
34.0,-1.0,243.0,108.0,-189.0,18.0,1
39.0,10.0,233.0,86.0,-223.0,17.0,1
46.0,24.0,229.0,83.0,-247.0,2.0,1
43.0,35.0,214.0,90.0,-254.0,-23.0,1
36.0,40.0,215.0,93.0,-246.0,-42.0,1
27.0,54.0,220.0,77.0,-239.0,-60.0,1
20.0,55.0,220.0,30.0,-238.0,-82.0,1
17.0,53.0,223.0,-36.0,-244.0,-87.0,1
12.0,45.0,236.0,-98.0,-246.0,-65.0,1
12.0,35.0,238.0,-139.0,-257.0,-29.0,1
10.0,20.0,244.0,-153.0,-273.0,1.0,1
11.0,13.0,250.0,-145.0,-295.0,15.0,1
12.0,7.0,244.0,-124.0,-313.0,26.0,1
16.0,6.0,243.0,-100.0,-319.0,33.0,1
21.0,5.0,240.0,-82.0,-314.0,42.0,1
25.0,7.0,234.0,-70.0,-298.0,50.0,1
31.0,9.0,231.0,-64.0,-275.0,57.0,1
33.0,17.0,225.0,-60.0,-246.0,60.0,1
41.0,12.0,232.0,-60.0,-220.0,64.0,1
41.0,11.0,237.0,-60.0,-204.0,72.0,1
40.0,6.0,243.0,-55.0,-202.0,85.0,1
45.0,2.0,251.0,-39.0,-204.0,93.0,1
56.0,0.0,254.0,-11.0,-196.0,97.0,1
66.0,-5.0,254.0,22.0,-164.0,92.0,1
73.0,-7.0,249.0,48.0,-109.0,75.0,1
84.0,-16.0,237.0,55.0,-48.0,51.0,1
94.0,-5.0,235.0,42.0,10.0,37.0,1
101.0,2.0,218.0,18.0,57.0,25.0,1
100.0,4.0,218.0,-14.0,98.0,17.0,1
97.0,4.0,219.0,-57.0,130.0,13.0,1
85.0,5.0,228.0,-97.0,150.0,16.0,1
70.0,1.0,240.0,-134.0,150.0,20.0,1
57.0,-10.0,254.0,-158.0,130.0,20.0,1
44.0,-20.0,264.0,-154.0,101.0,16.0,1
31.0,-20.0,275.0,-120.0,65.0,12.0,1
28.0,-27.0,284.0,-60.0,26.0,1.0,1
35.0,-30.0,279.0,21.0,-7.0,-1.0,1
33.0,-33.0,280.0,104.0,-30.0,2.0,1
32.0,-30.0,278.0,173.0,-35.0,7.0,1
38.0,-27.0,275.0,218.0,-31.0,9.0,1
49.0,-24.0,266.0,238.0,-26.0,-4.0,1
59.0,-20.0,259.0,231.0,-15.0,-29.0,1
63.0,-14.0,254.0,205.0,1.0,-61.0,1
70.0,-10.0,249.0,172.0,17.0,-91.0,1
76.0,-4.0,246.0,136.0,32.0,-122.0,1
83.0,0.0,238.0,106.0,46.0,-156.0,1
92.0,4.0,239.0,87.0,57.0,-187.0,1
93.0,17.0,236.0,75.0,66.0,-215.0,1
94.0,13.0,236.0,76.0,73.0,-242.0,1
101.0,18.0,238.0,86.0,79.0,-258.0,1
104.0,20.0,234.0,90.0,87.0,-265.0,1
104.0,24.0,229.0,93.0,95.0,-270.0,1
104.0,21.0,232.0,91.0,109.0,-273.0,1
106.0,27.0,233.0,85.0,122.0,-269.0,1
101.0,23.0,236.0,74.0,137.0,-264.0,1
100.0,26.0,228.0,61.0,150.0,-251.0,1
88.0,18.0,234.0,49.0,163.0,-242.0,1
82.0,21.0,234.0,41.0,171.0,-233.0,1
81.0,18.0,237.0,37.0,176.0,-227.0,1
79.0,17.0,240.0,38.0,186.0,-227.0,1
76.0,13.0,243.0,37.0,204.0,-227.0,1
77.0,14.0,238.0,34.0,220.0,-222.0,1
76.0,13.0,241.0,31.0,231.0,-211.0,1
71.0,11.0,239.0,22.0,229.0,-198.0,1
72.0,11.0,241.0,11.0,220.0,-179.0,1
68.0,8.0,242.0,0.0,203.0,-162.0,1
72.0,3.0,240.0,-12.0,190.0,-145.0,1
69.0,5.0,241.0,-18.0,187.0,-134.0,1
68.0,8.0,246.0,-18.0,188.0,-124.0,1
62.0,4.0,243.0,-13.0,190.0,-116.0,1
57.0,6.0,242.0,-2.0,193.0,-107.0,1
52.0,8.0,247.0,14.0,192.0,-101.0,1
45.0,9.0,250.0,30.0,192.0,-92.0,1
40.0,10.0,254.0,50.0,189.0,-87.0,1
33.0,13.0,254.0,72.0,188.0,-81.0,1
22.0,14.0,256.0,93.0,189.0,-77.0,1
16.0,14.0,261.0,111.0,186.0,-71.0,1
12.0,18.0,264.0,129.0,183.0,-63.0,1
7.0,18.0,261.0,141.0,179.0,-54.0,1
1.0,21.0,259.0,153.0,177.0,-44.0,1
-3.0,22.0,256.0,163.0,174.0,-31.0,1
0.0,22.0,261.0,167.0,170.0,-23.0,1
-5.0,24.0,256.0,172.0,165.0,-14.0,1
-7.0,22.0,258.0,172.0,158.0,-1.0,1
-3.0,24.0,257.0,168.0,151.0,7.0,1
-9.0,23.0,256.0,161.0,141.0,16.0,1
-9.0,25.0,257.0,150.0,130.0,27.0,1
-5.0,24.0,255.0,139.0,115.0,39.0,1
-2.0,27.0,251.0,127.0,103.0,47.0,1
-2.0,26.0,254.0,115.0,91.0,52.0,1
0.0,23.0,253.0,102.0,77.0,58.0,1
-2.0,25.0,248.0,89.0,64.0,59.0,1
2.0,26.0,251.0,79.0,51.0,59.0,1
6.0,24.0,249.0,69.0,37.0,59.0,1
8.0,27.0,250.0,62.0,21.0,55.0,1
10.0,28.0,251.0,55.0,6.0,54.0,1
11.0,28.0,249.0,45.0,-8.0,53.0,1
16.0,27.0,247.0,34.0,-21.0,53.0,1
13.0,29.0,250.0,23.0,-36.0,52.0,1
14.0,30.0,249.0,13.0,-49.0,53.0,1
18.0,27.0,243.0,2.0,-61.0,53.0,1
20.0,31.0,244.0,-10.0,-71.0,49.0,1
20.0,26.0,246.0,-24.0,-80.0,48.0,1
21.0,25.0,247.0,-34.0,-91.0,46.0,1
24.0,25.0,248.0,-40.0,-101.0,48.0,1
27.0,26.0,244.0,-46.0,-110.0,47.0,1
29.0,22.0,246.0,-47.0,-117.0,46.0,1
31.0,22.0,246.0,-45.0,-121.0,46.0,1
34.0,24.0,246.0,-43.0,-120.0,47.0,1
36.0,21.0,250.0,-40.0,-115.0,50.0,1
34.0,21.0,245.0,-36.0,-110.0,52.0,1
37.0,19.0,251.0,-32.0,-104.0,52.0,1
35.0,19.0,249.0,-30.0,-99.0,55.0,1
43.0,13.0,253.0,-30.0,-94.0,59.0,1
42.0,16.0,251.0,-30.0,-90.0,63.0,1
45.0,19.0,248.0,-32.0,-83.0,68.0,1
47.0,12.0,248.0,-37.0,-77.0,72.0,1
52.0,15.0,251.0,-40.0,-70.0,74.0,1
50.0,13.0,248.0,-43.0,-63.0,72.0,1
55.0,14.0,252.0,-46.0,-53.0,71.0,1
52.0,14.0,240.0,-49.0,-43.0,69.0,1
53.0,12.0,245.0,-52.0,-35.0,67.0,1
53.0,14.0,251.0,-57.0,-26.0,62.0,1
59.0,17.0,249.0,-61.0,-15.0,56.0,1
55.0,12.0,244.0,-66.0,-8.0,49.0,1
57.0,11.0,245.0,-70.0,-2.0,42.0,1
59.0,15.0,245.0,-74.0,5.0,35.0,1
60.0,15.0,244.0,-74.0,13.0,32.0,1
57.0,15.0,244.0,-72.0,22.0,32.0,1
57.0,15.0,242.0,-70.0,30.0,25.0,1
57.0,16.0,243.0,-71.0,38.0,20.0,1
60.0,12.0,240.0,-67.0,47.0,14.0,1
57.0,18.0,241.0,-62.0,54.0,1.0,1
58.0,16.0,242.0,-54.0,61.0,-7.0,1
59.0,9.0,243.0,-45.0,67.0,-15.0,1
60.0,9.0,241.0,-36.0,76.0,-19.0,1
62.0,12.0,241.0,-28.0,81.0,-23.0,1
59.0,10.0,242.0,-16.0,84.0,-29.0,1
57.0,5.0,246.0,-4.0,80.0,-30.0,1
56.0,6.0,243.0,6.0,76.0,-27.0,1
55.0,7.0,243.0,15.0,70.0,-28.0,1
54.0,6.0,242.0,18.0,66.0,-29.0,1
55.0,3.0,243.0,18.0,62.0,-32.0,1
57.0,5.0,244.0,13.0,61.0,-31.0,1
53.0,7.0,249.0,7.0,61.0,-34.0,1
59.0,5.0,250.0,4.0,59.0,-38.0,1
49.0,2.0,248.0,1.0,57.0,-44.0,1
46.0,5.0,248.0,-3.0,55.0,-52.0,1
45.0,2.0,247.0,-6.0,53.0,-54.0,1
48.0,1.0,251.0,-6.0,50.0,-56.0,1
46.0,3.0,249.0,-5.0,49.0,-59.0,1
43.0,2.0,251.0,0.0,47.0,-60.0,1
43.0,5.0,245.0,8.0,43.0,-58.0,1
46.0,3.0,249.0,15.0,41.0,-58.0,1
43.0,5.0,251.0,22.0,41.0,-55.0,1
45.0,3.0,252.0,29.0,38.0,-52.0,1
39.0,15.0,250.0,33.0,37.0,-49.0,1
37.0,10.0,246.0,34.0,39.0,-48.0,1
38.0,4.0,250.0,34.0,40.0,-46.0,1
39.0,9.0,247.0,36.0,40.0,-45.0,1
38.0,9.0,245.0,35.0,41.0,-44.0,1
37.0,7.0,251.0,35.0,41.0,-42.0,1
38.0,10.0,248.0,36.0,40.0,-42.0,1
38.0,11.0,245.0,37.0,40.0,-39.0,1
36.0,7.0,249.0,38.0,38.0,-39.0,1
35.0,9.0,246.0,41.0,38.0,-38.0,1
34.0,7.0,248.0,46.0,37.0,-36.0,1
31.0,9.0,246.0,53.0,34.0,-35.0,1
30.0,8.0,246.0,59.0,34.0,-36.0,1
31.0,11.0,246.0,67.0,31.0,-35.0,1
31.0,12.0,245.0,72.0,29.0,-32.0,1
28.0,14.0,250.0,77.0,27.0,-26.0,1
30.0,13.0,250.0,77.0,28.0,-22.0,1
29.0,16.0,248.0,77.0,25.0,-19.0,1
28.0,10.0,244.0,76.0,27.0,-17.0,1
26.0,14.0,252.0,75.0,27.0,-17.0,1
25.0,13.0,253.0,73.0,27.0,-13.0,1
29.0,18.0,248.0,72.0,27.0,-12.0,1
30.0,14.0,251.0,71.0,28.0,-11.0,1
26.0,12.0,245.0,68.0,28.0,-10.0,1
23.0,15.0,245.0,64.0,26.0,-7.0,1
24.0,14.0,248.0,59.0,25.0,-5.0,1
28.0,11.0,247.0,51.0,22.0,-3.0,1
29.0,11.0,248.0,44.0,20.0,-2.0,1
26.0,13.0,248.0,37.0,17.0,-1.0,1
28.0,13.0,245.0,33.0,13.0,3.0,1
33.0,7.0,250.0,30.0,10.0,4.0,1
34.0,13.0,249.0,28.0,6.0,6.0,1
32.0,8.0,252.0,30.0,-1.0,8.0,1
25.0,9.0,251.0,33.0,-5.0,7.0,1
33.0,10.0,249.0,34.0,-9.0,5.0,1
33.0,13.0,251.0,36.0,-15.0,5.0,1
32.0,10.0,247.0,38.0,-19.0,7.0,1
31.0,10.0,249.0,38.0,-22.0,8.0,1
33.0,11.0,249.0,39.0,-23.0,9.0,1
34.0,8.0,246.0,40.0,-23.0,9.0,1
33.0,5.0,250.0,43.0,-24.0,8.0,1
33.0,6.0,249.0,44.0,-23.0,6.0,1
34.0,7.0,249.0,46.0,-19.0,5.0,1
35.0,8.0,251.0,50.0,-17.0,3.0,1
36.0,4.0,250.0,53.0,-14.0,0.0,1
36.0,9.0,253.0,57.0,-11.0,-3.0,1
42.0,9.0,248.0,59.0,-10.0,-3.0,1
42.0,8.0,248.0,59.0,-9.0,-5.0,1
37.0,13.0,252.0,60.0,-8.0,-5.0,1
39.0,11.0,248.0,59.0,-8.0,-2.0,1
37.0,14.0,246.0,60.0,-10.0,-6.0,1
44.0,8.0,247.0,58.0,-12.0,-7.0,1
42.0,13.0,242.0,57.0,-15.0,-9.0,1
42.0,13.0,243.0,56.0,-14.0,-8.0,1
40.0,9.0,242.0,54.0,-13.0,-8.0,1
43.0,15.0,244.0,49.0,-12.0,-7.0,1
43.0,18.0,245.0,46.0,-9.0,-5.0,1
41.0,13.0,244.0,41.0,-5.0,-7.0,1
44.0,12.0,245.0,35.0,-4.0,-7.0,1
43.0,11.0,246.0,32.0,0.0,-7.0,1
44.0,12.0,247.0,31.0,2.0,-7.0,1
46.0,9.0,246.0,31.0,2.0,-7.0,1
41.0,13.0,244.0,31.0,2.0,-5.0,1
43.0,14.0,246.0,34.0,4.0,-4.0,1
47.0,10.0,248.0,37.0,5.0,-6.0,1
45.0,6.0,246.0,38.0,8.0,-7.0,1
42.0,8.0,245.0,40.0,11.0,-7.0,1
44.0,11.0,250.0,44.0,13.0,-6.0,1
41.0,10.0,246.0,50.0,13.0,-6.0,1
42.0,10.0,246.0,57.0,13.0,-4.0,1
42.0,10.0,244.0,64.0,14.0,-4.0,1
44.0,9.0,249.0,68.0,14.0,-4.0,1
40.0,12.0,249.0,70.0,17.0,-5.0,1
44.0,7.0,250.0,70.0,18.0,-6.0,1
40.0,14.0,244.0,71.0,20.0,-7.0,1
42.0,10.0,243.0,70.0,22.0,-6.0,1
44.0,9.0,246.0,69.0,23.0,-11.0,1
43.0,10.0,244.0,68.0,24.0,-12.0,1
41.0,12.0,245.0,68.0,26.0,-12.0,1
43.0,8.0,247.0,68.0,27.0,-15.0,1
45.0,11.0,248.0,68.0,29.0,-17.0,1
42.0,9.0,246.0,68.0,30.0,-18.0,1
41.0,9.0,242.0,67.0,31.0,-19.0,1
40.0,13.0,250.0,66.0,32.0,-21.0,1
39.0,11.0,248.0,68.0,32.0,-18.0,1
43.0,10.0,248.0,68.0,31.0,-17.0,1
42.0,13.0,248.0,65.0,31.0,-16.0,1
41.0,11.0,250.0,60.0,30.0,-15.0,1
41.0,13.0,246.0,56.0,31.0,-16.0,1
41.0,16.0,250.0,52.0,31.0,-14.0,1
41.0,16.0,248.0,50.0,33.0,-15.0,1
42.0,12.0,247.0,50.0,36.0,-16.0,1
43.0,10.0,247.0,50.0,38.0,-16.0,1
37.0,11.0,247.0,52.0,39.0,-19.0,1
39.0,11.0,245.0,55.0,39.0,-18.0,1
39.0,13.0,252.0,57.0,39.0,-21.0,1
40.0,13.0,251.0,57.0,40.0,-19.0,1
36.0,15.0,251.0,57.0,40.0,-21.0,1
35.0,6.0,245.0,55.0,37.0,-22.0,1
40.0,12.0,245.0,53.0,34.0,-23.0,1
37.0,9.0,253.0,52.0,30.0,-23.0,1
36.0,8.0,248.0,52.0,27.0,-23.0,1
32.0,9.0,251.0,54.0,25.0,-23.0,1
36.0,10.0,246.0,57.0,24.0,-26.0,1
35.0,15.0,250.0,63.0,25.0,-27.0,1
38.0,10.0,249.0,67.0,27.0,-28.0,1
36.0,11.0,245.0,69.0,31.0,-29.0,1
37.0,11.0,248.0,71.0,33.0,-30.0,1
34.0,13.0,247.0,70.0,37.0,-30.0,1
34.0,11.0,246.0,69.0,42.0,-32.0,1
38.0,13.0,249.0,68.0,44.0,-32.0,1
32.0,14.0,247.0,67.0,47.0,-34.0,1
30.0,13.0,249.0,67.0,47.0,-30.0,1
39.0,11.0,248.0,67.0,46.0,-29.0,1
36.0,11.0,250.0,65.0,47.0,-27.0,1
36.0,12.0,250.0,63.0,46.0,-23.0,1
35.0,9.0,245.0,60.0,45.0,-18.0,1
31.0,13.0,248.0,61.0,45.0,-16.0,1
38.0,8.0,248.0,61.0,43.0,-15.0,1
35.0,9.0,242.0,62.0,44.0,-17.0,1
39.0,9.0,243.0,62.0,43.0,-18.0,1
39.0,11.0,242.0,64.0,45.0,-19.0,1
32.0,10.0,248.0,68.0,45.0,-23.0,1
33.0,9.0,251.0,73.0,45.0,-22.0,1
38.0,9.0,250.0,77.0,45.0,-25.0,1
37.0,8.0,249.0,80.0,45.0,-26.0,1
39.0,12.0,247.0,80.0,44.0,-23.0,1
38.0,9.0,252.0,80.0,43.0,-21.0,1
38.0,8.0,249.0,78.0,40.0,-21.0,1
39.0,10.0,245.0,78.0,38.0,-21.0,1
36.0,10.0,249.0,77.0,35.0,-22.0,1
31.0,18.0,242.0,76.0,32.0,-23.0,1
37.0,16.0,247.0,77.0,32.0,-24.0,1
40.0,13.0,248.0,78.0,30.0,-25.0,1
32.0,13.0,250.0,78.0,30.0,-32.0,1
33.0,10.0,250.0,81.0,32.0,-30.0,1
35.0,10.0,250.0,83.0,33.0,-30.0,1
36.0,8.0,244.0,86.0,31.0,-31.0,1
37.0,12.0,245.0,87.0,32.0,-29.0,1
34.0,8.0,248.0,86.0,30.0,-28.0,1
36.0,8.0,249.0,84.0,27.0,-25.0,1
35.0,11.0,244.0,82.0,25.0,-26.0,1
29.0,9.0,249.0,82.0,26.0,-25.0,1
35.0,10.0,251.0,81.0,26.0,-24.0,1
36.0,11.0,250.0,81.0,27.0,-24.0,1
37.0,13.0,248.0,81.0,28.0,-24.0,1
36.0,14.0,247.0,81.0,31.0,-21.0,1
34.0,12.0,251.0,80.0,35.0,-20.0,1
34.0,14.0,250.0,78.0,39.0,-22.0,1
40.0,11.0,249.0,78.0,40.0,-21.0,1
31.0,14.0,246.0,78.0,42.0,-21.0,1
33.0,8.0,248.0,76.0,42.0,-19.0,1
36.0,9.0,253.0,73.0,42.0,-18.0,1
31.0,11.0,247.0,70.0,41.0,-19.0,1
34.0,11.0,249.0,64.0,38.0,-17.0,1
35.0,13.0,247.0,60.0,36.0,-15.0,1
37.0,12.0,249.0,56.0,33.0,-13.0,1
35.0,12.0,252.0,57.0,30.0,-12.0,1
32.0,10.0,251.0,58.0,25.0,-13.0,1
35.0,11.0,250.0,59.0,21.0,-13.0,1
31.0,12.0,249.0,61.0,19.0,-13.0,1
31.0,15.0,244.0,62.0,17.0,-14.0,1
30.0,16.0,252.0,65.0,14.0,-14.0,1
36.0,15.0,248.0,69.0,12.0,-13.0,1
32.0,16.0,248.0,74.0,10.0,-12.0,1
32.0,11.0,250.0,78.0,10.0,-11.0,1
31.0,11.0,248.0,83.0,9.0,-10.0,1
34.0,8.0,250.0,89.0,11.0,-10.0,1
32.0,8.0,252.0,93.0,12.0,-12.0,1
35.0,10.0,247.0,99.0,13.0,-14.0,1
31.0,11.0,250.0,103.0,15.0,-12.0,1
33.0,13.0,255.0,105.0,16.0,-12.0,1
34.0,12.0,249.0,107.0,16.0,-11.0,1
32.0,9.0,244.0,110.0,14.0,-9.0,1
35.0,10.0,255.0,112.0,13.0,-7.0,1
31.0,13.0,246.0,114.0,12.0,-6.0,1
31.0,13.0,250.0,116.0,9.0,-6.0,1
31.0,13.0,247.0,119.0,12.0,-5.0,1
32.0,13.0,244.0,120.0,13.0,-5.0,1
32.0,15.0,250.0,119.0,15.0,-6.0,1
34.0,15.0,245.0,115.0,17.0,-5.0,1
33.0,17.0,244.0,111.0,19.0,-4.0,1
32.0,16.0,247.0,107.0,20.0,-5.0,1
33.0,16.0,246.0,101.0,22.0,-6.0,1
36.0,15.0,248.0,96.0,23.0,-6.0,1
40.0,14.0,243.0,92.0,24.0,-6.0,1
39.0,17.0,251.0,87.0,23.0,-8.0,1
34.0,19.0,250.0,83.0,23.0,-7.0,1
34.0,19.0,249.0,78.0,23.0,-6.0,1
35.0,17.0,248.0,75.0,20.0,-6.0,1
37.0,15.0,246.0,75.0,17.0,-5.0,1
37.0,18.0,248.0,72.0,15.0,-4.0,1
33.0,15.0,245.0,72.0,14.0,-3.0,1
36.0,17.0,249.0,70.0,11.0,-4.0,1
35.0,15.0,252.0,70.0,12.0,-6.0,1
37.0,17.0,259.0,69.0,11.0,-6.0,1
32.0,14.0,246.0,68.0,12.0,-7.0,1
37.0,13.0,247.0,68.0,12.0,-5.0,1
35.0,16.0,249.0,67.0,13.0,-8.0,1
34.0,15.0,248.0,66.0,13.0,-9.0,1
37.0,15.0,249.0,64.0,15.0,-7.0,1
36.0,15.0,250.0,63.0,16.0,-8.0,1
39.0,15.0,247.0,64.0,18.0,-8.0,1
39.0,13.0,252.0,62.0,18.0,-11.0,1
37.0,13.0,246.0,63.0,19.0,-9.0,1
39.0,15.0,252.0,63.0,20.0,-13.0,1
34.0,16.0,247.0,65.0,21.0,-11.0,1
35.0,15.0,240.0,66.0,20.0,-12.0,1
36.0,14.0,247.0,68.0,21.0,-12.0,1
37.0,14.0,248.0,69.0,22.0,-12.0,1
38.0,14.0,248.0,67.0,22.0,-13.0,1
37.0,16.0,247.0,64.0,21.0,-10.0,1
36.0,14.0,247.0,62.0,21.0,-10.0,1
37.0,15.0,249.0,58.0,22.0,-10.0,1
34.0,16.0,248.0,55.0,20.0,-11.0,1
38.0,18.0,246.0,54.0,17.0,-12.0,1
38.0,16.0,251.0,54.0,19.0,-12.0,1
36.0,17.0,249.0,54.0,23.0,-13.0,1
40.0,14.0,241.0,54.0,24.0,-15.0,1
40.0,11.0,252.0,54.0,25.0,-16.0,1
34.0,13.0,248.0,59.0,24.0,-18.0,1
37.0,16.0,247.0,61.0,25.0,-17.0,1
38.0,14.0,250.0,63.0,24.0,-16.0,1
35.0,16.0,246.0,64.0,22.0,-16.0,1
33.0,15.0,248.0,67.0,21.0,-15.0,1
32.0,10.0,255.0,69.0,16.0,-14.0,1
33.0,11.0,249.0,70.0,13.0,-14.0,1
34.0,12.0,244.0,74.0,10.0,-14.0,1
33.0,17.0,251.0,77.0,9.0,-14.0,1
35.0,11.0,249.0,80.0,11.0,-16.0,1
32.0,16.0,252.0,80.0,13.0,-17.0,1
34.0,16.0,249.0,82.0,14.0,-17.0,1
35.0,14.0,247.0,82.0,18.0,-16.0,1
35.0,16.0,248.0,81.0,20.0,-19.0,1
30.0,19.0,243.0,79.0,21.0,-18.0,1
32.0,18.0,247.0,77.0,25.0,-18.0,1
31.0,15.0,253.0,74.0,28.0,-18.0,1
35.0,17.0,252.0,73.0,30.0,-19.0,1
33.0,17.0,246.0,71.0,31.0,-16.0,1
32.0,15.0,249.0,70.0,30.0,-15.0,1
36.0,17.0,242.0,69.0,30.0,-13.0,1
33.0,19.0,246.0,69.0,28.0,-12.0,1
32.0,18.0,246.0,68.0,26.0,-10.0,1
35.0,13.0,253.0,69.0,23.0,-9.0,1
33.0,19.0,247.0,71.0,21.0,-8.0,1
33.0,13.0,252.0,72.0,20.0,-8.0,1
32.0,18.0,248.0,72.0,19.0,-7.0,1
33.0,17.0,248.0,72.0,19.0,-8.0,1
35.0,15.0,248.0,72.0,17.0,-7.0,1
32.0,20.0,249.0,71.0,16.0,-9.0,1
32.0,15.0,252.0,71.0,16.0,-9.0,1
34.0,15.0,247.0,70.0,16.0,-10.0,1
34.0,16.0,247.0,69.0,14.0,-10.0,1
33.0,17.0,248.0,70.0,12.0,-11.0,1
37.0,15.0,250.0,67.0,12.0,-9.0,1
38.0,17.0,247.0,68.0,12.0,-9.0,1
37.0,16.0,248.0,68.0,12.0,-9.0,1
35.0,18.0,251.0,67.0,11.0,-8.0,1
33.0,18.0,248.0,68.0,11.0,-9.0,1
32.0,19.0,245.0,66.0,13.0,-7.0,1
30.0,23.0,245.0,64.0,14.0,-7.0,1
32.0,18.0,248.0,63.0,15.0,-8.0,1
36.0,16.0,249.0,60.0,16.0,-7.0,1
35.0,18.0,249.0,58.0,16.0,-8.0,1
35.0,15.0,248.0,58.0,16.0,-9.0,1
34.0,16.0,249.0,56.0,17.0,-9.0,1
36.0,15.0,249.0,54.0,16.0,-10.0,1
40.0,15.0,251.0,53.0,15.0,-9.0,1
34.0,18.0,247.0,52.0,13.0,-9.0,1
32.0,19.0,249.0,51.0,13.0,-10.0,1
38.0,13.0,247.0,51.0,14.0,-10.0,1
34.0,17.0,250.0,50.0,14.0,-11.0,1
29.0,18.0,245.0,49.0,12.0,-9.0,1
37.0,16.0,249.0,51.0,13.0,-9.0,1
33.0,15.0,243.0,51.0,13.0,-10.0,1
33.0,15.0,250.0,50.0,14.0,-8.0,1
34.0,16.0,251.0,51.0,14.0,-10.0,1
33.0,17.0,251.0,51.0,13.0,-11.0,1
35.0,14.0,248.0,51.0,16.0,-10.0,1
37.0,16.0,249.0,51.0,16.0,-9.0,1
31.0,17.0,252.0,52.0,16.0,-9.0,1
35.0,16.0,251.0,51.0,17.0,-9.0,1
35.0,14.0,252.0,50.0,16.0,-10.0,1
34.0,20.0,249.0,51.0,15.0,-9.0,1
33.0,19.0,247.0,51.0,13.0,-11.0,1
35.0,16.0,250.0,51.0,13.0,-13.0,1
35.0,17.0,245.0,52.0,14.0,-11.0,1
33.0,17.0,250.0,51.0,13.0,-13.0,1
34.0,18.0,247.0,50.0,13.0,-12.0,1
35.0,17.0,246.0,49.0,13.0,-13.0,1
34.0,17.0,249.0,48.0,13.0,-13.0,1
32.0,16.0,245.0,48.0,12.0,-13.0,1
31.0,17.0,247.0,47.0,13.0,-12.0,1
32.0,17.0,247.0,45.0,14.0,-11.0,1
29.0,14.0,248.0,45.0,14.0,-12.0,1
34.0,16.0,247.0,45.0,14.0,-12.0,1
37.0,14.0,249.0,44.0,14.0,-13.0,1
37.0,18.0,250.0,46.0,15.0,-12.0,1
33.0,18.0,249.0,45.0,15.0,-12.0,1
33.0,17.0,249.0,48.0,14.0,-14.0,1
36.0,15.0,247.0,50.0,12.0,-11.0,1
38.0,14.0,248.0,50.0,11.0,-11.0,1
28.0,19.0,248.0,50.0,11.0,-12.0,1
33.0,18.0,248.0,50.0,10.0,-12.0,1
35.0,16.0,252.0,48.0,9.0,-10.0,1
29.0,14.0,249.0,47.0,9.0,-12.0,1
36.0,13.0,248.0,44.0,10.0,-10.0,1
31.0,18.0,248.0,44.0,11.0,-11.0,1
34.0,16.0,248.0,43.0,10.0,-10.0,1
33.0,18.0,248.0,44.0,11.0,-10.0,1
30.0,18.0,246.0,45.0,12.0,-10.0,1
31.0,17.0,243.0,45.0,12.0,-11.0,1
38.0,15.0,251.0,43.0,13.0,-9.0,1
33.0,16.0,246.0,44.0,15.0,-8.0,1
31.0,15.0,249.0,43.0,16.0,-10.0,1
37.0,18.0,241.0,43.0,15.0,-10.0,1
32.0,12.0,243.0,41.0,14.0,-9.0,1
32.0,19.0,248.0,39.0,13.0,-10.0,1
34.0,16.0,248.0,37.0,12.0,-8.0,1
33.0,16.0,248.0,34.0,11.0,-8.0,1
32.0,18.0,246.0,34.0,9.0,-8.0,1
32.0,19.0,248.0,35.0,7.0,-9.0,1
35.0,15.0,250.0,36.0,5.0,-9.0,1
33.0,16.0,251.0,38.0,5.0,-11.0,1
35.0,20.0,250.0,41.0,5.0,-12.0,1
34.0,16.0,249.0,41.0,8.0,-9.0,1
34.0,17.0,250.0,42.0,8.0,-11.0,1
35.0,10.0,257.0,42.0,9.0,-10.0,1
35.0,14.0,252.0,42.0,8.0,-11.0,1
33.0,12.0,250.0,42.0,9.0,-10.0,1
35.0,13.0,250.0,43.0,10.0,-10.0,1
34.0,13.0,254.0,46.0,9.0,-13.0,1
35.0,8.0,251.0,53.0,8.0,-15.0,1
33.0,13.0,247.0,60.0,8.0,-15.0,1
33.0,12.0,250.0,68.0,7.0,-15.0,1
32.0,13.0,241.0,78.0,5.0,-13.0,1
32.0,11.0,247.0,85.0,2.0,-13.0,1
31.0,16.0,252.0,92.0,1.0,-11.0,1
31.0,7.0,253.0,94.0,-2.0,-10.0,1
31.0,18.0,248.0,102.0,-4.0,-11.0,1
34.0,17.0,248.0,109.0,-6.0,-10.0,1
35.0,17.0,247.0,109.0,-5.0,-12.0,1
35.0,18.0,243.0,105.0,-2.0,-12.0,1
34.0,19.0,247.0,100.0,2.0,-12.0,1
35.0,20.0,246.0,91.0,8.0,-11.0,1
36.0,20.0,249.0,81.0,13.0,-13.0,1
34.0,16.0,249.0,74.0,16.0,-14.0,1
34.0,14.0,246.0,67.0,17.0,-14.0,1
36.0,19.0,247.0,63.0,19.0,-15.0,1
36.0,25.0,246.0,60.0,18.0,-13.0,1
33.0,19.0,249.0,59.0,18.0,-12.0,1
36.0,17.0,248.0,59.0,15.0,-11.0,1
32.0,17.0,249.0,59.0,14.0,-10.0,1
35.0,17.0,246.0,60.0,12.0,-9.0,1
35.0,17.0,249.0,60.0,11.0,-8.0,1
31.0,19.0,245.0,61.0,10.0,-8.0,1
35.0,18.0,250.0,61.0,9.0,-9.0,1
34.0,19.0,246.0,59.0,10.0,-9.0,1
36.0,16.0,250.0,62.0,11.0,-10.0,1
34.0,13.0,249.0,61.0,13.0,-9.0,1
37.0,15.0,250.0,60.0,14.0,-9.0,1
34.0,17.0,249.0,60.0,14.0,-10.0,1
35.0,14.0,249.0,60.0,17.0,-9.0,1
37.0,17.0,241.0,58.0,19.0,-10.0,1
35.0,16.0,248.0,55.0,20.0,-12.0,1
33.0,17.0,248.0,56.0,19.0,-10.0,1
35.0,15.0,247.0,56.0,21.0,-10.0,1
34.0,18.0,246.0,56.0,19.0,-11.0,1
34.0,17.0,248.0,58.0,20.0,-11.0,1
35.0,14.0,250.0,60.0,19.0,-9.0,1
34.0,16.0,247.0,62.0,19.0,-10.0,1
33.0,16.0,243.0,66.0,19.0,-10.0,1
35.0,17.0,245.0,67.0,16.0,-11.0,1
31.0,17.0,245.0,68.0,18.0,-10.0,1
34.0,19.0,247.0,67.0,17.0,-10.0,1
32.0,17.0,246.0,65.0,16.0,-11.0,1
35.0,16.0,248.0,62.0,16.0,-10.0,1
32.0,17.0,241.0,61.0,16.0,-10.0,1
33.0,20.0,243.0,59.0,15.0,-11.0,1
34.0,18.0,246.0,59.0,17.0,-11.0,1
40.0,12.0,249.0,59.0,18.0,-11.0,1
36.0,22.0,246.0,59.0,20.0,-12.0,1
32.0,19.0,251.0,60.0,22.0,-12.0,1
36.0,15.0,249.0,62.0,24.0,-12.0,1
34.0,19.0,249.0,64.0,25.0,-13.0,1
33.0,16.0,248.0,66.0,23.0,-11.0,1
35.0,17.0,248.0,69.0,22.0,-11.0,1
34.0,16.0,247.0,70.0,20.0,-11.0,1
34.0,15.0,249.0,74.0,15.0,-9.0,1
31.0,15.0,250.0,75.0,12.0,-10.0,1
31.0,15.0,251.0,78.0,9.0,-12.0,1
33.0,15.0,249.0,79.0,6.0,-13.0,1
30.0,12.0,245.0,83.0,4.0,-13.0,1
34.0,16.0,249.0,85.0,5.0,-13.0,1
34.0,16.0,248.0,86.0,6.0,-15.0,1
35.0,14.0,247.0,86.0,9.0,-15.0,1
34.0,16.0,247.0,86.0,12.0,-17.0,1
34.0,19.0,250.0,83.0,15.0,-16.0,1
34.0,21.0,249.0,81.0,18.0,-16.0,1
34.0,20.0,248.0,80.0,20.0,-14.0,1
37.0,15.0,247.0,77.0,22.0,-14.0,1
35.0,20.0,250.0,74.0,23.0,-15.0,1
35.0,16.0,251.0,73.0,22.0,-14.0,1
37.0,17.0,257.0,69.0,21.0,-12.0,1
32.0,20.0,248.0,68.0,21.0,-10.0,1
34.0,17.0,246.0,68.0,18.0,-13.0,1
33.0,19.0,248.0,66.0,17.0,-9.0,1
36.0,20.0,250.0,65.0,16.0,-9.0,1
32.0,17.0,247.0,67.0,16.0,-9.0,1
32.0,17.0,248.0,66.0,16.0,-8.0,1
33.0,17.0,246.0,66.0,15.0,-9.0,1
30.0,19.0,245.0,64.0,15.0,-9.0,1
34.0,20.0,245.0,64.0,15.0,-8.0,1
35.0,18.0,251.0,63.0,15.0,-9.0,1
33.0,17.0,248.0,62.0,15.0,-9.0,1
32.0,22.0,250.0,62.0,14.0,-10.0,1
36.0,19.0,244.0,60.0,13.0,-11.0,1
34.0,17.0,246.0,60.0,12.0,-10.0,1
32.0,20.0,251.0,59.0,10.0,-11.0,1
35.0,19.0,246.0,60.0,10.0,-10.0,1
34.0,19.0,249.0,59.0,10.0,-10.0,1
36.0,15.0,247.0,60.0,10.0,-11.0,1
36.0,19.0,248.0,61.0,9.0,-12.0,1
31.0,23.0,247.0,60.0,11.0,-11.0,1
36.0,16.0,250.0,61.0,11.0,-10.0,1
27.0,30.0,247.0,60.0,13.0,-13.0,1
34.0,18.0,246.0,60.0,14.0,-13.0,1
34.0,19.0,246.0,60.0,17.0,-13.0,1
36.0,19.0,247.0,60.0,18.0,-11.0,1
33.0,20.0,251.0,62.0,19.0,-12.0,1
36.0,17.0,241.0,62.0,18.0,-13.0,1
33.0,20.0,250.0,62.0,19.0,-12.0,1
31.0,19.0,246.0,63.0,17.0,-11.0,1
30.0,16.0,248.0,64.0,16.0,-9.0,1
32.0,18.0,251.0,64.0,13.0,-10.0,1
35.0,15.0,245.0,66.0,14.0,-10.0,1
33.0,17.0,246.0,65.0,15.0,-12.0,1
33.0,17.0,243.0,64.0,15.0,-11.0,1
31.0,20.0,246.0,64.0,15.0,-13.0,1
33.0,17.0,249.0,64.0,14.0,-12.0,1
31.0,19.0,248.0,64.0,13.0,-14.0,1
36.0,16.0,246.0,65.0,13.0,-12.0,1
35.0,18.0,248.0,65.0,15.0,-13.0,1
28.0,16.0,248.0,67.0,14.0,-13.0,1
32.0,20.0,249.0,67.0,15.0,-12.0,1
35.0,17.0,248.0,68.0,15.0,-13.0,1
31.0,19.0,246.0,69.0,14.0,-12.0,1
31.0,25.0,244.0,69.0,15.0,-12.0,1
27.0,23.0,255.0,69.0,14.0,-13.0,1
33.0,20.0,247.0,69.0,14.0,-15.0,1
35.0,20.0,248.0,69.0,14.0,-13.0,1
30.0,21.0,245.0,69.0,13.0,-13.0,1
33.0,15.0,248.0,69.0,13.0,-13.0,1
32.0,21.0,247.0,67.0,14.0,-13.0,1
31.0,19.0,249.0,67.0,12.0,-12.0,1
35.0,15.0,244.0,66.0,14.0,-11.0,1
32.0,20.0,249.0,64.0,13.0,-10.0,1
30.0,18.0,246.0,62.0,14.0,-10.0,1
29.0,22.0,243.0,63.0,14.0,-11.0,1
31.0,20.0,247.0,63.0,15.0,-10.0,1
32.0,22.0,248.0,63.0,15.0,-11.0,1
34.0,19.0,249.0,65.0,16.0,-9.0,1
34.0,18.0,249.0,67.0,15.0,-9.0,1
33.0,18.0,249.0,69.0,17.0,-10.0,1
29.0,18.0,242.0,71.0,17.0,-9.0,1
34.0,17.0,248.0,72.0,17.0,-9.0,1
33.0,18.0,249.0,72.0,16.0,-9.0,1
30.0,22.0,249.0,71.0,15.0,-10.0,1
33.0,18.0,243.0,70.0,16.0,-11.0,1
32.0,21.0,245.0,69.0,14.0,-10.0,1
31.0,20.0,250.0,66.0,15.0,-10.0,1
32.0,22.0,248.0,65.0,13.0,-11.0,1
34.0,19.0,247.0,65.0,13.0,-10.0,1
29.0,21.0,248.0,64.0,14.0,-10.0,1
35.0,19.0,247.0,63.0,14.0,-9.0,1
31.0,18.0,248.0,63.0,14.0,-8.0,1
32.0,17.0,249.0,63.0,15.0,-10.0,1
34.0,15.0,247.0,62.0,16.0,-11.0,1
35.0,16.0,250.0,61.0,15.0,-10.0,1
28.0,14.0,250.0,58.0,16.0,-8.0,1
32.0,19.0,250.0,55.0,15.0,-9.0,1
34.0,21.0,249.0,52.0,15.0,-10.0,1
33.0,20.0,249.0,49.0,15.0,-10.0,1
33.0,22.0,252.0,48.0,13.0,-9.0,1
31.0,20.0,248.0,47.0,10.0,-9.0,1
36.0,17.0,246.0,46.0,10.0,-10.0,1
34.0,23.0,250.0,46.0,8.0,-10.0,1
30.0,21.0,249.0,49.0,8.0,-9.0,1
34.0,21.0,246.0,50.0,8.0,-9.0,1
38.0,20.0,254.0,51.0,9.0,-10.0,1
34.0,19.0,249.0,48.0,10.0,-11.0,1
34.0,18.0,250.0,47.0,10.0,-9.0,1
31.0,19.0,249.0,45.0,11.0,-9.0,1
33.0,19.0,249.0,43.0,12.0,-9.0,1
32.0,17.0,252.0,44.0,13.0,-10.0,1
32.0,17.0,250.0,45.0,13.0,-14.0,1
34.0,17.0,251.0,47.0,14.0,-14.0,1
30.0,16.0,249.0,52.0,14.0,-13.0,1
31.0,18.0,245.0,58.0,13.0,-13.0,1
28.0,17.0,247.0,64.0,11.0,-13.0,1
34.0,19.0,248.0,70.0,8.0,-11.0,1
34.0,18.0,250.0,76.0,5.0,-11.0,1
32.0,17.0,249.0,81.0,2.0,-10.0,1
30.0,20.0,248.0,84.0,-1.0,-11.0,1
32.0,20.0,247.0,86.0,-3.0,-11.0,1
33.0,19.0,248.0,86.0,-4.0,-12.0,1
36.0,20.0,250.0,86.0,-1.0,-14.0,1
33.0,25.0,245.0,83.0,2.0,-13.0,1
35.0,20.0,248.0,79.0,7.0,-14.0,1
33.0,22.0,244.0,74.0,9.0,-14.0,1
31.0,27.0,239.0,68.0,12.0,-15.0,1
36.0,22.0,248.0,65.0,17.0,-14.0,1
33.0,18.0,244.0,62.0,18.0,-14.0,1
34.0,23.0,248.0,58.0,17.0,-13.0,1
36.0,20.0,249.0,55.0,18.0,-11.0,1
35.0,23.0,248.0,52.0,16.0,-11.0,1
33.0,21.0,249.0,50.0,13.0,-12.0,1
35.0,20.0,245.0,46.0,11.0,-9.0,1
32.0,21.0,246.0,45.0,10.0,-8.0,1
32.0,21.0,249.0,43.0,10.0,-8.0,1
36.0,20.0,247.0,41.0,8.0,-9.0,1
30.0,23.0,251.0,41.0,8.0,-7.0,1
34.0,19.0,249.0,39.0,8.0,-6.0,1
32.0,25.0,243.0,38.0,8.0,-7.0,1
34.0,22.0,249.0,36.0,9.0,-9.0,1
34.0,20.0,250.0,35.0,10.0,-9.0,1
33.0,19.0,246.0,35.0,11.0,-11.0,1
33.0,19.0,253.0,32.0,11.0,-11.0,1
34.0,21.0,251.0,31.0,14.0,-10.0,1
34.0,20.0,243.0,31.0,14.0,-10.0,1
33.0,21.0,249.0,29.0,15.0,-10.0,1
29.0,23.0,244.0,30.0,15.0,-11.0,1
35.0,17.0,249.0,30.0,15.0,-10.0,1
33.0,21.0,243.0,31.0,15.0,-9.0,1
34.0,16.0,246.0,32.0,15.0,-12.0,1
34.0,15.0,246.0,37.0,14.0,-10.0,1
29.0,21.0,247.0,37.0,13.0,-10.0,1
36.0,16.0,248.0,38.0,12.0,-11.0,1
34.0,16.0,248.0,38.0,10.0,-9.0,1
32.0,17.0,244.0,38.0,9.0,-9.0,1
30.0,21.0,249.0,35.0,9.0,-8.0,1
37.0,22.0,248.0,35.0,9.0,-9.0,1
31.0,23.0,243.0,31.0,10.0,-8.0,1
34.0,19.0,247.0,29.0,12.0,-10.0,1
34.0,22.0,243.0,30.0,13.0,-11.0,1
30.0,19.0,248.0,27.0,15.0,-12.0,1
34.0,19.0,248.0,28.0,15.0,-13.0,1
33.0,20.0,252.0,28.0,16.0,-13.0,1
35.0,21.0,249.0,28.0,16.0,-13.0,1
33.0,17.0,247.0,28.0,17.0,-13.0,1
30.0,18.0,251.0,29.0,16.0,-14.0,1
34.0,17.0,250.0,30.0,14.0,-13.0,1
31.0,17.0,249.0,31.0,12.0,-11.0,1
32.0,17.0,252.0,33.0,9.0,-11.0,1
30.0,16.0,254.0,36.0,6.0,-12.0,1
29.0,18.0,245.0,40.0,3.0,-12.0,1
32.0,20.0,256.0,43.0,2.0,-12.0,1
31.0,17.0,247.0,45.0,2.0,-12.0,1
32.0,21.0,250.0,46.0,4.0,-11.0,1
33.0,18.0,245.0,47.0,8.0,-13.0,1
33.0,18.0,250.0,46.0,12.0,-14.0,1
34.0,19.0,247.0,44.0,15.0,-11.0,1
37.0,21.0,252.0,42.0,18.0,-13.0,1
37.0,20.0,246.0,40.0,18.0,-13.0,1
33.0,19.0,248.0,35.0,19.0,-13.0,1
32.0,21.0,245.0,33.0,19.0,-13.0,1
32.0,24.0,255.0,30.0,16.0,-12.0,1
32.0,17.0,249.0,30.0,15.0,-12.0,1
33.0,16.0,247.0,31.0,14.0,-10.0,1
32.0,18.0,246.0,31.0,11.0,-9.0,1
34.0,19.0,246.0,31.0,9.0,-10.0,1
36.0,18.0,249.0,32.0,7.0,-9.0,1
32.0,19.0,251.0,32.0,7.0,-9.0,1
33.0,15.0,250.0,33.0,5.0,-11.0,1
32.0,15.0,243.0,35.0,5.0,-10.0,1
39.0,20.0,250.0,34.0,5.0,-11.0,1
31.0,21.0,249.0,33.0,6.0,-11.0,1
37.0,17.0,256.0,32.0,7.0,-11.0,1
32.0,21.0,245.0,32.0,7.0,-11.0,1
35.0,17.0,248.0,30.0,6.0,-10.0,1
35.0,18.0,245.0,29.0,6.0,-11.0,1
35.0,18.0,248.0,27.0,5.0,-11.0,1
35.0,19.0,249.0,27.0,5.0,-9.0,1
36.0,19.0,249.0,28.0,6.0,-10.0,1
33.0,19.0,244.0,30.0,5.0,-10.0,1
33.0,18.0,247.0,31.0,6.0,-11.0,1
35.0,15.0,247.0,34.0,6.0,-9.0,1
36.0,12.0,248.0,35.0,7.0,-8.0,1
33.0,15.0,246.0,37.0,10.0,-9.0,1
31.0,20.0,246.0,38.0,11.0,-8.0,1
32.0,17.0,245.0,39.0,12.0,-10.0,1
33.0,18.0,250.0,41.0,13.0,-10.0,1
36.0,17.0,248.0,42.0,13.0,-11.0,1
32.0,19.0,249.0,43.0,13.0,-11.0,1
33.0,18.0,250.0,45.0,12.0,-11.0,1
33.0,18.0,247.0,47.0,11.0,-11.0,1
37.0,18.0,249.0,47.0,11.0,-12.0,1
31.0,16.0,246.0,49.0,12.0,-12.0,1
29.0,21.0,248.0,52.0,12.0,-12.0,1
26.0,15.0,246.0,54.0,12.0,-13.0,1
35.0,20.0,249.0,56.0,12.0,-12.0,1
34.0,17.0,249.0,57.0,12.0,-13.0,1
33.0,16.0,249.0,58.0,13.0,-13.0,1
34.0,18.0,247.0,61.0,14.0,-14.0,1
33.0,18.0,248.0,63.0,14.0,-12.0,1
36.0,17.0,244.0,63.0,15.0,-13.0,1
29.0,19.0,251.0,66.0,15.0,-12.0,1
30.0,18.0,251.0,67.0,15.0,-11.0,1
34.0,16.0,249.0,69.0,15.0,-11.0,1
31.0,24.0,245.0,68.0,16.0,-12.0,1
30.0,15.0,250.0,71.0,15.0,-13.0,1
34.0,20.0,245.0,70.0,14.0,-13.0,1
33.0,18.0,245.0,71.0,14.0,-13.0,1
31.0,20.0,247.0,72.0,14.0,-13.0,1
33.0,16.0,246.0,73.0,16.0,-13.0,1
33.0,18.0,246.0,72.0,16.0,-14.0,1
32.0,20.0,250.0,71.0,15.0,-14.0,1
34.0,20.0,252.0,71.0,17.0,-11.0,1
32.0,19.0,248.0,70.0,16.0,-12.0,1
32.0,18.0,248.0,70.0,17.0,-11.0,1
39.0,16.0,248.0,72.0,17.0,-11.0,1
30.0,16.0,246.0,72.0,16.0,-12.0,1
32.0,21.0,248.0,74.0,16.0,-11.0,1
35.0,19.0,250.0,74.0,16.0,-11.0,1
32.0,18.0,247.0,77.0,17.0,-12.0,1
34.0,16.0,247.0,78.0,17.0,-13.0,1
34.0,15.0,250.0,79.0,15.0,-11.0,1
32.0,18.0,248.0,83.0,15.0,-12.0,1
33.0,17.0,245.0,84.0,15.0,-13.0,1
36.0,19.0,251.0,84.0,15.0,-12.0,1
36.0,18.0,248.0,85.0,17.0,-14.0,1
31.0,22.0,251.0,84.0,17.0,-11.0,1
29.0,20.0,240.0,83.0,15.0,-12.0,1
32.0,18.0,250.0,82.0,16.0,-10.0,1
31.0,21.0,249.0,80.0,16.0,-10.0,1
33.0,17.0,246.0,79.0,16.0,-11.0,1
34.0,17.0,249.0,79.0,16.0,-12.0,1
35.0,16.0,248.0,78.0,16.0,-11.0,1
33.0,17.0,247.0,76.0,16.0,-10.0,1
36.0,18.0,252.0,74.0,18.0,-10.0,1
34.0,22.0,247.0,72.0,17.0,-11.0,1
34.0,18.0,246.0,70.0,18.0,-10.0,1
34.0,22.0,250.0,69.0,17.0,-11.0,1
31.0,19.0,245.0,65.0,16.0,-11.0,1
32.0,22.0,250.0,61.0,16.0,-10.0,1
32.0,21.0,247.0,59.0,14.0,-11.0,1
32.0,24.0,250.0,58.0,13.0,-10.0,1
33.0,20.0,249.0,58.0,12.0,-10.0,1
32.0,20.0,248.0,59.0,11.0,-11.0,1
34.0,22.0,249.0,59.0,10.0,-12.0,1
34.0,15.0,249.0,61.0,10.0,-11.0,1
37.0,19.0,247.0,63.0,10.0,-10.0,1
34.0,17.0,249.0,62.0,11.0,-10.0,1
27.0,24.0,250.0,63.0,11.0,-10.0,1
29.0,18.0,249.0,62.0,11.0,-10.0,1
32.0,19.0,251.0,63.0,13.0,-9.0,1
31.0,23.0,248.0,65.0,14.0,-9.0,1
32.0,18.0,247.0,66.0,15.0,-10.0,1
33.0,16.0,250.0,66.0,17.0,-12.0,1
34.0,15.0,250.0,69.0,19.0,-14.0,1
35.0,16.0,247.0,72.0,19.0,-14.0,1
33.0,20.0,251.0,76.0,20.0,-14.0,1
33.0,15.0,250.0,82.0,15.0,-14.0,1
32.0,18.0,248.0,86.0,14.0,-14.0,1
36.0,17.0,251.0,92.0,12.0,-14.0,1
35.0,16.0,252.0,97.0,9.0,-13.0,1
34.0,18.0,247.0,100.0,5.0,-13.0,1
32.0,19.0,250.0,104.0,3.0,-13.0,1
32.0,21.0,247.0,108.0,4.0,-13.0,1
35.0,18.0,246.0,111.0,6.0,-13.0,1
33.0,20.0,244.0,112.0,9.0,-12.0,1
29.0,23.0,249.0,111.0,15.0,-13.0,1
33.0,20.0,244.0,109.0,20.0,-12.0,1
32.0,24.0,240.0,108.0,26.0,-13.0,1
31.0,26.0,247.0,106.0,31.0,-15.0,1
38.0,13.0,248.0,104.0,34.0,-14.0,1
35.0,22.0,248.0,102.0,37.0,-13.0,1
36.0,23.0,253.0,101.0,36.0,-12.0,1
33.0,22.0,246.0,98.0,35.0,-10.0,1
35.0,23.0,247.0,97.0,32.0,-9.0,1
33.0,25.0,248.0,93.0,30.0,-9.0,1
34.0,26.0,250.0,92.0,29.0,-9.0,1
30.0,24.0,248.0,91.0,28.0,-10.0,1
32.0,21.0,248.0,90.0,25.0,-9.0,1
34.0,20.0,251.0,89.0,22.0,-9.0,1
34.0,22.0,246.0,87.0,21.0,-9.0,1
35.0,22.0,252.0,87.0,21.0,-10.0,1
31.0,23.0,245.0,85.0,20.0,-9.0,1
35.0,21.0,251.0,85.0,22.0,-9.0,1
32.0,24.0,248.0,82.0,22.0,-9.0,1
32.0,21.0,249.0,82.0,25.0,-8.0,1
31.0,21.0,248.0,80.0,25.0,-8.0,1
34.0,22.0,249.0,81.0,26.0,-8.0,1
34.0,19.0,244.0,81.0,28.0,-10.0,1
34.0,22.0,248.0,81.0,29.0,-11.0,1
34.0,23.0,252.0,80.0,29.0,-11.0,1
32.0,24.0,250.0,78.0,27.0,-10.0,1
35.0,19.0,247.0,78.0,28.0,-11.0,1
33.0,23.0,247.0,77.0,27.0,-12.0,1
32.0,23.0,247.0,76.0,25.0,-11.0,1
30.0,24.0,250.0,74.0,25.0,-10.0,1
33.0,20.0,247.0,73.0,23.0,-9.0,1
33.0,23.0,246.0,70.0,21.0,-8.0,1
31.0,25.0,246.0,67.0,20.0,-10.0,1
29.0,24.0,246.0,63.0,18.0,-10.0,1
32.0,24.0,248.0,61.0,19.0,-8.0,1
29.0,23.0,249.0,58.0,18.0,-9.0,1
34.0,23.0,250.0,56.0,18.0,-11.0,1
30.0,26.0,247.0,54.0,19.0,-10.0,1
31.0,23.0,251.0,54.0,20.0,-11.0,1
32.0,20.0,250.0,53.0,18.0,-13.0,1
37.0,20.0,251.0,53.0,17.0,-14.0,1
32.0,20.0,252.0,53.0,17.0,-13.0,1
33.0,21.0,251.0,52.0,16.0,-13.0,1
30.0,23.0,247.0,52.0,16.0,-12.0,1
31.0,23.0,250.0,55.0,12.0,-13.0,1
32.0,22.0,248.0,54.0,10.0,-11.0,1
33.0,18.0,248.0,54.0,5.0,-10.0,1
34.0,21.0,251.0,53.0,3.0,-12.0,1
31.0,18.0,249.0,54.0,2.0,-11.0,1
31.0,22.0,247.0,53.0,2.0,-12.0,1
34.0,20.0,245.0,53.0,4.0,-11.0,1
33.0,22.0,250.0,53.0,7.0,-12.0,1
32.0,23.0,245.0,52.0,11.0,-12.0,1
33.0,21.0,248.0,50.0,15.0,-12.0,1
32.0,24.0,246.0,49.0,19.0,-12.0,1
32.0,23.0,254.0,46.0,22.0,-12.0,1
35.0,21.0,247.0,44.0,23.0,-11.0,1
32.0,22.0,248.0,41.0,23.0,-13.0,1
35.0,19.0,246.0,40.0,23.0,-11.0,1
28.0,20.0,252.0,40.0,21.0,-12.0,1
32.0,23.0,246.0,40.0,18.0,-12.0,1
34.0,22.0,243.0,39.0,15.0,-10.0,1
32.0,25.0,250.0,42.0,12.0,-11.0,1
32.0,24.0,249.0,44.0,10.0,-10.0,1
31.0,24.0,248.0,46.0,8.0,-10.0,1
32.0,20.0,249.0,49.0,7.0,-11.0,1
33.0,24.0,244.0,51.0,6.0,-10.0,1
32.0,21.0,246.0,52.0,6.0,-12.0,1
32.0,21.0,245.0,53.0,6.0,-14.0,1
32.0,22.0,248.0,53.0,6.0,-14.0,1
32.0,17.0,248.0,52.0,10.0,-13.0,1
32.0,21.0,250.0,51.0,10.0,-13.0,1
32.0,23.0,246.0,49.0,11.0,-11.0,1
29.0,20.0,247.0,48.0,11.0,-13.0,1
31.0,20.0,246.0,47.0,12.0,-14.0,1
33.0,22.0,247.0,46.0,11.0,-11.0,1
35.0,20.0,248.0,44.0,12.0,-10.0,1
33.0,21.0,247.0,42.0,12.0,-11.0,1
32.0,19.0,246.0,41.0,13.0,-10.0,1
38.0,20.0,248.0,39.0,14.0,-10.0,1
31.0,24.0,245.0,37.0,14.0,-9.0,1
30.0,24.0,248.0,38.0,16.0,-10.0,1
34.0,23.0,245.0,38.0,15.0,-10.0,1
34.0,23.0,246.0,37.0,16.0,-10.0,1
33.0,22.0,250.0,40.0,17.0,-11.0,1
31.0,22.0,249.0,42.0,15.0,-11.0,1
33.0,21.0,247.0,45.0,14.0,-11.0,1
32.0,21.0,247.0,48.0,14.0,-12.0,1
29.0,18.0,250.0,50.0,13.0,-12.0,1
31.0,22.0,247.0,53.0,11.0,-13.0,1
30.0,22.0,249.0,54.0,11.0,-13.0,1
35.0,22.0,251.0,55.0,9.0,-11.0,1
32.0,19.0,248.0,55.0,11.0,-11.0,1
31.0,23.0,246.0,53.0,12.0,-11.0,1
32.0,21.0,250.0,53.0,12.0,-10.0,1
33.0,26.0,248.0,53.0,14.0,-11.0,1
34.0,18.0,243.0,51.0,13.0,-10.0,1
34.0,21.0,246.0,49.0,15.0,-10.0,1
36.0,24.0,246.0,48.0,15.0,-10.0,1
31.0,23.0,251.0,48.0,16.0,-9.0,1
34.0,21.0,247.0,45.0,16.0,-9.0,1
29.0,24.0,250.0,44.0,15.0,-9.0,1
27.0,23.0,244.0,43.0,15.0,-9.0,1
32.0,24.0,248.0,43.0,15.0,-9.0,1
32.0,23.0,244.0,43.0,15.0,-9.0,1
30.0,25.0,245.0,43.0,14.0,-9.0,1
34.0,22.0,250.0,44.0,13.0,-9.0,1
32.0,19.0,253.0,46.0,14.0,-9.0,1
30.0,22.0,251.0,48.0,13.0,-9.0,1
35.0,20.0,248.0,51.0,12.0,-9.0,1
30.0,19.0,245.0,57.0,12.0,-10.0,1
35.0,18.0,248.0,60.0,9.0,-11.0,1
33.0,22.0,249.0,64.0,9.0,-12.0,1
30.0,21.0,247.0,65.0,10.0,-14.0,1
31.0,22.0,247.0,66.0,10.0,-12.0,1
33.0,24.0,248.0,65.0,10.0,-13.0,1
32.0,21.0,245.0,66.0,11.0,-11.0,1
30.0,25.0,247.0,65.0,12.0,-12.0,1
29.0,23.0,246.0,64.0,11.0,-11.0,1
30.0,21.0,248.0,63.0,12.0,-11.0,1
30.0,22.0,247.0,62.0,12.0,-12.0,1
31.0,22.0,248.0,64.0,14.0,-11.0,1
30.0,20.0,243.0,62.0,13.0,-12.0,1
29.0,22.0,245.0,62.0,13.0,-12.0,1
33.0,17.0,255.0,61.0,15.0,-10.0,1
25.0,17.0,243.0,60.0,16.0,-9.0,1
33.0,22.0,250.0,57.0,14.0,-11.0,1
31.0,21.0,251.0,53.0,14.0,-11.0,1
34.0,20.0,249.0,50.0,13.0,-11.0,1
32.0,20.0,247.0,46.0,12.0,-10.0,1
34.0,24.0,252.0,43.0,10.0,-11.0,1
33.0,25.0,248.0,43.0,9.0,-11.0,1
34.0,25.0,247.0,42.0,7.0,-11.0,1
31.0,23.0,245.0,41.0,7.0,-12.0,1
32.0,23.0,249.0,43.0,5.0,-11.0,1
27.0,29.0,248.0,42.0,4.0,-11.0,1
33.0,24.0,248.0,43.0,5.0,-11.0,1
30.0,24.0,249.0,43.0,5.0,-10.0,1
30.0,21.0,247.0,42.0,7.0,-9.0,1
34.0,20.0,248.0,41.0,7.0,-9.0,1
30.0,22.0,246.0,41.0,7.0,-8.0,1
33.0,21.0,249.0,42.0,7.0,-9.0,1
32.0,19.0,249.0,43.0,8.0,-10.0,1
29.0,18.0,247.0,46.0,8.0,-12.0,1
33.0,19.0,249.0,49.0,9.0,-11.0,1
31.0,17.0,251.0,52.0,9.0,-14.0,1
38.0,17.0,245.0,58.0,10.0,-13.0,1
32.0,20.0,250.0,64.0,9.0,-14.0,1
31.0,21.0,249.0,71.0,6.0,-14.0,1
34.0,19.0,249.0,77.0,6.0,-12.0,1
30.0,18.0,246.0,83.0,4.0,-12.0,1
32.0,19.0,250.0,88.0,1.0,-11.0,1
33.0,23.0,250.0,92.0,0.0,-11.0,1
30.0,19.0,245.0,95.0,0.0,-11.0,1
33.0,21.0,249.0,96.0,-1.0,-11.0,1
34.0,23.0,247.0,96.0,3.0,-11.0,1
34.0,25.0,242.0,93.0,8.0,-11.0,1
32.0,34.0,241.0,89.0,13.0,-13.0,1
33.0,26.0,245.0,84.0,15.0,-12.0,1
35.0,23.0,247.0,78.0,18.0,-11.0,1
31.0,26.0,247.0,72.0,20.0,-12.0,1
34.0,22.0,250.0,67.0,20.0,-13.0,1
34.0,23.0,249.0,63.0,18.0,-13.0,1
33.0,26.0,252.0,60.0,17.0,-12.0,1
35.0,19.0,247.0,57.0,15.0,-11.0,1
32.0,23.0,251.0,55.0,12.0,-10.0,1
32.0,19.0,249.0,54.0,9.0,-11.0,1
28.0,24.0,251.0,52.0,8.0,-10.0,1
32.0,20.0,246.0,53.0,7.0,-11.0,1
33.0,20.0,249.0,53.0,6.0,-10.0,1
34.0,19.0,247.0,54.0,7.0,-9.0,1
35.0,19.0,245.0,54.0,9.0,-9.0,1
32.0,23.0,252.0,54.0,12.0,-11.0,1
31.0,25.0,244.0,53.0,13.0,-9.0,1
34.0,22.0,250.0,52.0,14.0,-9.0,1
32.0,22.0,244.0,50.0,16.0,-11.0,1
30.0,24.0,248.0,49.0,16.0,-10.0,1
32.0,24.0,250.0,47.0,16.0,-10.0,1
35.0,23.0,247.0,48.0,16.0,-10.0,1
26.0,28.0,241.0,47.0,16.0,-11.0,1
33.0,22.0,245.0,50.0,15.0,-11.0,1
34.0,22.0,252.0,49.0,16.0,-11.0,1
35.0,21.0,249.0,52.0,14.0,-12.0,1
30.0,24.0,245.0,54.0,14.0,-12.0,1
32.0,22.0,248.0,56.0,13.0,-13.0,1
30.0,22.0,249.0,58.0,12.0,-12.0,1
27.0,24.0,252.0,58.0,11.0,-10.0,1
32.0,22.0,249.0,58.0,10.0,-10.0,1
31.0,23.0,250.0,57.0,11.0,-10.0,1
31.0,21.0,242.0,55.0,11.0,-10.0,1
37.0,24.0,246.0,53.0,13.0,-11.0,1
33.0,21.0,246.0,49.0,15.0,-10.0,1
31.0,23.0,245.0,47.0,16.0,-9.0,1
33.0,21.0,246.0,47.0,18.0,-9.0,1
34.0,23.0,251.0,45.0,21.0,-11.0,1
32.0,21.0,247.0,43.0,21.0,-12.0,1
31.0,24.0,249.0,43.0,20.0,-13.0,1
32.0,19.0,250.0,42.0,22.0,-11.0,1
30.0,26.0,242.0,42.0,20.0,-12.0,1
34.0,22.0,251.0,43.0,18.0,-11.0,1
33.0,17.0,252.0,46.0,15.0,-11.0,1
31.0,22.0,253.0,49.0,11.0,-11.0,1
29.0,22.0,247.0,54.0,9.0,-11.0,1
32.0,20.0,249.0,57.0,8.0,-11.0,1
29.0,22.0,248.0,60.0,6.0,-10.0,1
31.0,21.0,250.0,62.0,6.0,-11.0,1
31.0,22.0,245.0,63.0,6.0,-12.0,1
31.0,22.0,248.0,64.0,8.0,-14.0,1
29.0,22.0,250.0,64.0,11.0,-13.0,1
30.0,23.0,245.0,64.0,13.0,-14.0,1
32.0,24.0,245.0,64.0,15.0,-14.0,1
32.0,22.0,246.0,66.0,17.0,-15.0,1
31.0,26.0,250.0,63.0,18.0,-14.0,1
32.0,23.0,248.0,63.0,20.0,-13.0,1
31.0,23.0,249.0,62.0,20.0,-12.0,1
33.0,23.0,246.0,62.0,19.0,-12.0,1
31.0,25.0,245.0,60.0,18.0,-10.0,1
33.0,25.0,243.0,59.0,17.0,-9.0,1
29.0,26.0,245.0,57.0,17.0,-9.0,1
34.0,22.0,250.0,57.0,15.0,-8.0,1
30.0,21.0,249.0,55.0,13.0,-7.0,1
31.0,24.0,249.0,56.0,13.0,-8.0,1
32.0,21.0,250.0,57.0,11.0,-8.0,1
34.0,20.0,245.0,56.0,12.0,-9.0,1
32.0,22.0,249.0,57.0,13.0,-10.0,1
32.0,24.0,248.0,56.0,10.0,-11.0,1
33.0,21.0,249.0,57.0,11.0,-11.0,1
32.0,22.0,247.0,57.0,9.0,-12.0,1
32.0,21.0,250.0,56.0,9.0,-12.0,1
36.0,23.0,251.0,55.0,10.0,-10.0,1
33.0,26.0,249.0,55.0,8.0,-11.0,1
30.0,25.0,244.0,56.0,8.0,-11.0,1
30.0,27.0,249.0,58.0,8.0,-12.0,1
39.0,25.0,245.0,58.0,7.0,-12.0,1
34.0,25.0,246.0,61.0,7.0,-10.0,1
34.0,23.0,246.0,62.0,9.0,-11.0,1
34.0,23.0,245.0,62.0,10.0,-11.0,1
31.0,23.0,243.0,65.0,10.0,-11.0,1
32.0,20.0,249.0,66.0,12.0,-10.0,1
30.0,23.0,246.0,66.0,12.0,-10.0,1
32.0,20.0,246.0,67.0,15.0,-11.0,1
33.0,20.0,251.0,69.0,17.0,-12.0,1
36.0,22.0,247.0,68.0,18.0,-12.0,1
32.0,22.0,249.0,68.0,18.0,-13.0,1
27.0,28.0,249.0,69.0,18.0,-12.0,1
31.0,24.0,246.0,69.0,17.0,-12.0,1
34.0,19.0,249.0,69.0,17.0,-11.0,1
31.0,24.0,248.0,69.0,16.0,-11.0,1
29.0,23.0,249.0,67.0,15.0,-13.0,1
31.0,21.0,250.0,67.0,15.0,-10.0,1
29.0,25.0,249.0,68.0,13.0,-10.0,1
33.0,22.0,248.0,69.0,15.0,-10.0,1
32.0,21.0,246.0,71.0,17.0,-9.0,1
33.0,23.0,250.0,73.0,17.0,-11.0,1
32.0,20.0,244.0,75.0,17.0,-10.0,1
27.0,20.0,247.0,76.0,18.0,-10.0,1
34.0,22.0,247.0,79.0,17.0,-10.0,1
33.0,25.0,250.0,81.0,17.0,-12.0,1
32.0,25.0,249.0,81.0,17.0,-12.0,1
31.0,24.0,249.0,80.0,17.0,-12.0,1
33.0,26.0,248.0,81.0,15.0,-11.0,1
28.0,24.0,249.0,79.0,16.0,-10.0,1
32.0,24.0,246.0,79.0,16.0,-11.0,1
30.0,28.0,245.0,79.0,17.0,-10.0,1
33.0,25.0,249.0,78.0,17.0,-10.0,1
28.0,24.0,244.0,77.0,19.0,-11.0,1
31.0,25.0,238.0,76.0,19.0,-11.0,1
30.0,24.0,248.0,76.0,19.0,-11.0,1
32.0,23.0,253.0,75.0,18.0,-10.0,1
31.0,25.0,251.0,73.0,18.0,-11.0,1
31.0,25.0,246.0,70.0,17.0,-11.0,1
32.0,24.0,249.0,69.0,15.0,-12.0,1
32.0,25.0,249.0,67.0,15.0,-11.0,1
29.0,25.0,245.0,66.0,13.0,-10.0,1
29.0,27.0,247.0,64.0,10.0,-10.0,1
33.0,24.0,250.0,64.0,8.0,-10.0,1
29.0,22.0,248.0,65.0,9.0,-11.0,1
35.0,25.0,245.0,64.0,8.0,-10.0,1
31.0,27.0,250.0,63.0,7.0,-9.0,1
31.0,24.0,252.0,63.0,8.0,-9.0,1
30.0,26.0,249.0,62.0,8.0,-9.0,1
32.0,23.0,253.0,59.0,9.0,-8.0,1
31.0,24.0,248.0,56.0,9.0,-7.0,1
31.0,22.0,248.0,55.0,11.0,-9.0,1
31.0,22.0,252.0,52.0,10.0,-8.0,1
30.0,21.0,250.0,49.0,12.0,-9.0,1
31.0,23.0,251.0,47.0,13.0,-11.0,1
28.0,25.0,249.0,45.0,12.0,-10.0,1
32.0,21.0,256.0,45.0,12.0,-13.0,1
30.0,25.0,253.0,47.0,11.0,-13.0,1
33.0,20.0,247.0,50.0,9.0,-12.0,1
37.0,19.0,249.0,52.0,8.0,-11.0,1
29.0,22.0,252.0,54.0,4.0,-7.0,1
33.0,25.0,249.0,57.0,0.0,-6.0,1
29.0,23.0,247.0,59.0,-4.0,-6.0,1
32.0,27.0,252.0,62.0,-7.0,-5.0,1
29.0,24.0,247.0,63.0,-8.0,-8.0,1
33.0,27.0,247.0,63.0,-8.0,-8.0,1
37.0,19.0,246.0,64.0,-5.0,-10.0,1
40.0,26.0,240.0,61.0,-3.0,-10.0,1
31.0,24.0,244.0,59.0,0.0,-10.0,1
33.0,23.0,244.0,57.0,6.0,-10.0,1
33.0,29.0,242.0,53.0,10.0,-11.0,1
31.0,25.0,247.0,49.0,13.0,-10.0,1
30.0,28.0,249.0,47.0,15.0,-12.0,1
32.0,24.0,252.0,42.0,15.0,-10.0,1
29.0,25.0,248.0,40.0,14.0,-9.0,1
33.0,25.0,244.0,37.0,13.0,-11.0,1
30.0,26.0,249.0,34.0,13.0,-11.0,1
31.0,27.0,245.0,32.0,11.0,-9.0,1
34.0,25.0,247.0,30.0,10.0,-9.0,1
32.0,25.0,248.0,29.0,8.0,-9.0,1
33.0,25.0,248.0,26.0,6.0,-8.0,1
33.0,24.0,250.0,27.0,7.0,-9.0,1
32.0,25.0,247.0,25.0,5.0,-9.0,1
32.0,24.0,248.0,22.0,6.0,-10.0,1
32.0,24.0,251.0,20.0,7.0,-9.0,1
30.0,22.0,248.0,17.0,7.0,-9.0,1
32.0,23.0,252.0,14.0,7.0,-10.0,1
33.0,24.0,250.0,12.0,8.0,-10.0,1
31.0,19.0,247.0,10.0,10.0,-8.0,1
34.0,21.0,247.0,8.0,11.0,-9.0,1
34.0,21.0,249.0,7.0,9.0,-8.0,1
31.0,23.0,249.0,6.0,8.0,-9.0,1
31.0,23.0,246.0,5.0,7.0,-10.0,1
34.0,21.0,248.0,5.0,8.0,-9.0,1
34.0,20.0,245.0,5.0,7.0,-10.0,1
29.0,24.0,248.0,6.0,6.0,-8.0,1
35.0,21.0,248.0,4.0,4.0,-9.0,1
32.0,19.0,242.0,3.0,5.0,-11.0,1
32.0,20.0,246.0,1.0,3.0,-10.0,1
28.0,29.0,246.0,0.0,3.0,-11.0,1
30.0,23.0,247.0,-3.0,2.0,-10.0,1
31.0,21.0,244.0,-7.0,2.0,-10.0,1
33.0,22.0,248.0,-9.0,3.0,-10.0,1
31.0,22.0,245.0,-9.0,4.0,-12.0,1
31.0,20.0,250.0,-11.0,5.0,-12.0,1
33.0,22.0,246.0,-10.0,5.0,-12.0,1
34.0,20.0,247.0,-11.0,5.0,-12.0,1
29.0,23.0,245.0,-13.0,6.0,-12.0,1
32.0,21.0,247.0,-15.0,8.0,-15.0,1
31.0,20.0,253.0,-16.0,8.0,-13.0,1
28.0,23.0,252.0,-16.0,6.0,-12.0,1
29.0,21.0,251.0,-17.0,4.0,-13.0,1
29.0,23.0,249.0,-16.0,-1.0,-12.0,1
30.0,21.0,247.0,-17.0,-4.0,-13.0,1
29.0,20.0,249.0,-15.0,-9.0,-10.0,1
29.0,23.0,249.0,-15.0,-10.0,-11.0,1
30.0,20.0,249.0,-16.0,-11.0,-14.0,1
32.0,22.0,254.0,-16.0,-11.0,-14.0,1
31.0,21.0,247.0,-18.0,-10.0,-15.0,1
32.0,16.0,248.0,-20.0,-9.0,-14.0,1
30.0,25.0,253.0,-22.0,-5.0,-15.0,1
31.0,25.0,245.0,-26.0,-1.0,-14.0,1
30.0,21.0,248.0,-30.0,4.0,-15.0,1
36.0,20.0,248.0,-34.0,5.0,-15.0,1
34.0,20.0,249.0,-36.0,6.0,-12.0,1
31.0,20.0,247.0,-39.0,5.0,-11.0,1
34.0,20.0,251.0,-42.0,4.0,-11.0,1
30.0,21.0,251.0,-47.0,4.0,-8.0,1
35.0,22.0,248.0,-50.0,1.0,-6.0,1
32.0,21.0,249.0,-51.0,-2.0,-7.0,1
32.0,22.0,247.0,-54.0,-6.0,-6.0,1
30.0,21.0,253.0,-56.0,-10.0,-6.0,1
31.0,18.0,250.0,-60.0,-15.0,-6.0,1
36.0,15.0,249.0,-64.0,-18.0,-5.0,1
32.0,21.0,246.0,-66.0,-21.0,-6.0,1
32.0,20.0,250.0,-69.0,-24.0,-7.0,1
34.0,20.0,252.0,-74.0,-28.0,-7.0,1
30.0,20.0,249.0,-79.0,-30.0,-7.0,1
30.0,17.0,251.0,-81.0,-34.0,-7.0,1
34.0,19.0,253.0,-85.0,-36.0,-7.0,1
31.0,18.0,249.0,-86.0,-37.0,-7.0,1
33.0,15.0,249.0,-88.0,-37.0,-10.0,1
36.0,14.0,248.0,-87.0,-37.0,-9.0,1
31.0,16.0,247.0,-86.0,-35.0,-11.0,1
31.0,17.0,249.0,-84.0,-32.0,-11.0,1
34.0,15.0,250.0,-77.0,-29.0,-13.0,1
35.0,14.0,244.0,-72.0,-24.0,-12.0,1
36.0,13.0,249.0,-68.0,-18.0,-14.0,1
32.0,14.0,248.0,-61.0,-12.0,-12.0,1
32.0,14.0,247.0,-55.0,-7.0,-14.0,1
36.0,15.0,240.0,-48.0,-5.0,-14.0,1
34.0,11.0,245.0,-44.0,1.0,-14.0,1
35.0,12.0,243.0,-39.0,5.0,-12.0,1
32.0,14.0,242.0,-33.0,7.0,-12.0,1
33.0,11.0,241.0,-29.0,6.0,-13.0,1
32.0,16.0,247.0,-26.0,4.0,-13.0,1
35.0,14.0,247.0,-24.0,2.0,-13.0,1
35.0,12.0,249.0,-23.0,0.0,-13.0,1
35.0,13.0,250.0,-22.0,-2.0,-12.0,1
34.0,14.0,247.0,-21.0,-4.0,-13.0,1
36.0,14.0,246.0,-22.0,-4.0,-13.0,1
32.0,14.0,250.0,-22.0,-5.0,-12.0,1
36.0,13.0,250.0,-22.0,-6.0,-12.0,1
32.0,17.0,244.0,-23.0,-7.0,-11.0,1
35.0,13.0,253.0,-23.0,-7.0,-10.0,1
33.0,12.0,250.0,-20.0,-8.0,-9.0,1
33.0,14.0,245.0,-16.0,-7.0,-10.0,1
34.0,10.0,245.0,-13.0,-7.0,-10.0,1
34.0,14.0,244.0,-13.0,-6.0,-11.0,1
31.0,12.0,246.0,-11.0,-4.0,-9.0,1
36.0,11.0,247.0,-12.0,-3.0,-10.0,1
37.0,7.0,248.0,-14.0,-1.0,-9.0,1
37.0,10.0,248.0,-15.0,-1.0,-9.0,1
33.0,15.0,251.0,-19.0,1.0,-9.0,1
38.0,11.0,253.0,-21.0,1.0,-8.0,1
32.0,16.0,246.0,-23.0,1.0,-9.0,1
35.0,15.0,245.0,-25.0,2.0,-10.0,1
34.0,13.0,246.0,-24.0,1.0,-10.0,1
34.0,12.0,252.0,-22.0,-1.0,-11.0,1
34.0,15.0,249.0,-16.0,-2.0,-12.0,1
33.0,13.0,250.0,-12.0,-2.0,-11.0,1
34.0,13.0,248.0,-6.0,-3.0,-11.0,1
34.0,15.0,247.0,-2.0,-3.0,-11.0,1
31.0,13.0,251.0,1.0,-3.0,-11.0,1
32.0,13.0,251.0,2.0,-6.0,-10.0,1
30.0,14.0,245.0,5.0,-7.0,-7.0,1
28.0,5.0,249.0,8.0,-6.0,-9.0,1
32.0,7.0,247.0,11.0,-5.0,-8.0,1
34.0,9.0,249.0,15.0,-5.0,-11.0,1
32.0,7.0,252.0,20.0,-5.0,-12.0,1
32.0,9.0,250.0,23.0,-2.0,-11.0,1
32.0,7.0,251.0,28.0,-1.0,-11.0,1
33.0,10.0,249.0,31.0,1.0,-13.0,1
30.0,10.0,251.0,35.0,3.0,-13.0,1
35.0,10.0,245.0,38.0,3.0,-11.0,1
36.0,8.0,249.0,40.0,3.0,-12.0,1
34.0,8.0,243.0,40.0,1.0,-11.0,1
35.0,12.0,249.0,40.0,0.0,-9.0,1
31.0,14.0,243.0,39.0,-1.0,-7.0,1
36.0,12.0,245.0,36.0,-4.0,-8.0,1
36.0,11.0,245.0,34.0,-3.0,-9.0,1
33.0,13.0,245.0,31.0,-1.0,-10.0,1
35.0,13.0,246.0,29.0,0.0,-10.0,1
33.0,14.0,250.0,27.0,3.0,-9.0,1
34.0,15.0,245.0,26.0,4.0,-11.0,1
30.0,13.0,247.0,25.0,3.0,-11.0,1
36.0,9.0,248.0,25.0,6.0,-10.0,1
33.0,16.0,244.0,24.0,5.0,-12.0,1
33.0,12.0,249.0,24.0,5.0,-12.0,1
34.0,13.0,245.0,24.0,5.0,-11.0,1
36.0,9.0,247.0,24.0,3.0,-10.0,1
33.0,10.0,246.0,26.0,-1.0,-10.0,1
37.0,10.0,249.0,27.0,-1.0,-11.0,1
37.0,11.0,248.0,28.0,-1.0,-10.0,1
37.0,10.0,249.0,31.0,-2.0,-10.0,1
39.0,7.0,248.0,34.0,1.0,-11.0,1
37.0,10.0,250.0,37.0,2.0,-11.0,1
32.0,11.0,244.0,40.0,3.0,-11.0,1
34.0,13.0,243.0,44.0,6.0,-11.0,1
36.0,16.0,247.0,45.0,9.0,-11.0,1
35.0,9.0,246.0,48.0,10.0,-9.0,1
35.0,9.0,246.0,51.0,13.0,-10.0,1
34.0,6.0,245.0,55.0,15.0,-11.0,1
36.0,5.0,244.0,57.0,18.0,-9.0,1
37.0,7.0,247.0,62.0,20.0,-11.0,1
34.0,8.0,246.0,65.0,22.0,-9.0,1
39.0,8.0,247.0,68.0,23.0,-9.0,1
33.0,11.0,241.0,70.0,23.0,-9.0,1
30.0,13.0,242.0,72.0,23.0,-9.0,1
39.0,8.0,247.0,76.0,23.0,-10.0,1
35.0,9.0,246.0,81.0,22.0,-10.0,1
34.0,10.0,246.0,83.0,22.0,-10.0,1
33.0,13.0,248.0,83.0,20.0,-11.0,1
34.0,11.0,247.0,84.0,19.0,-12.0,1
33.0,12.0,252.0,84.0,17.0,-10.0,1
37.0,9.0,247.0,81.0,17.0,-10.0,1
34.0,10.0,247.0,79.0,18.0,-11.0,1
33.0,14.0,242.0,78.0,19.0,-10.0,1
33.0,11.0,244.0,76.0,22.0,-11.0,1
34.0,9.0,249.0,75.0,21.0,-10.0,1
32.0,10.0,249.0,77.0,22.0,-12.0,1
32.0,17.0,246.0,77.0,24.0,-12.0,1
33.0,8.0,248.0,78.0,25.0,-13.0,1
33.0,7.0,249.0,78.0,24.0,-14.0,1
33.0,9.0,248.0,78.0,23.0,-12.0,1
36.0,8.0,250.0,77.0,22.0,-13.0,1
30.0,11.0,252.0,77.0,19.0,-12.0,1
31.0,10.0,252.0,76.0,17.0,-12.0,1
33.0,11.0,253.0,77.0,14.0,-13.0,1
29.0,14.0,241.0,79.0,13.0,-12.0,1
31.0,11.0,248.0,78.0,11.0,-14.0,1
35.0,13.0,249.0,80.0,11.0,-12.0,1
31.0,17.0,242.0,82.0,13.0,-14.0,1
34.0,12.0,247.0,82.0,15.0,-14.0,1
33.0,11.0,247.0,82.0,18.0,-14.0,1
35.0,15.0,244.0,81.0,20.0,-14.0,1
34.0,12.0,248.0,79.0,22.0,-13.0,1
35.0,11.0,246.0,76.0,24.0,-12.0,1
33.0,14.0,246.0,77.0,25.0,-11.0,1
33.0,12.0,248.0,78.0,24.0,-12.0,1
32.0,15.0,248.0,79.0,25.0,-11.0,1
36.0,8.0,248.0,82.0,24.0,-10.0,1
37.0,10.0,250.0,83.0,21.0,-7.0,1
35.0,11.0,251.0,85.0,21.0,-7.0,1
33.0,13.0,251.0,87.0,20.0,-7.0,1
33.0,12.0,245.0,90.0,17.0,-7.0,1
35.0,12.0,243.0,91.0,18.0,-7.0,1
37.0,13.0,248.0,91.0,18.0,-8.0,1
33.0,12.0,250.0,91.0,18.0,-8.0,1
36.0,11.0,247.0,92.0,18.0,-8.0,1
33.0,15.0,247.0,89.0,18.0,-8.0,1
35.0,10.0,244.0,88.0,18.0,-7.0,1
36.0,7.0,248.0,87.0,18.0,-10.0,1
39.0,9.0,246.0,87.0,20.0,-10.0,1
33.0,18.0,255.0,86.0,19.0,-10.0,1
37.0,11.0,245.0,86.0,19.0,-11.0,1
33.0,14.0,246.0,86.0,18.0,-10.0,1
38.0,10.0,245.0,87.0,17.0,-10.0,1
36.0,13.0,246.0,88.0,15.0,-11.0,1
35.0,10.0,248.0,89.0,15.0,-9.0,1
36.0,9.0,248.0,92.0,15.0,-10.0,1
35.0,12.0,246.0,94.0,16.0,-9.0,1
35.0,11.0,248.0,96.0,15.0,-9.0,1
34.0,10.0,246.0,98.0,16.0,-8.0,1
45.0,17.0,235.0,100.0,19.0,-9.0,1
34.0,13.0,250.0,101.0,19.0,-9.0,1
33.0,14.0,248.0,101.0,22.0,-9.0,1
35.0,13.0,248.0,102.0,23.0,-10.0,1
35.0,16.0,249.0,101.0,23.0,-10.0,1
33.0,13.0,248.0,100.0,23.0,-9.0,1
31.0,15.0,249.0,101.0,22.0,-10.0,1
33.0,11.0,248.0,102.0,22.0,-12.0,1
32.0,8.0,246.0,101.0,21.0,-10.0,1
34.0,14.0,246.0,104.0,21.0,-11.0,1
33.0,15.0,251.0,108.0,22.0,-11.0,1
33.0,21.0,249.0,111.0,23.0,-11.0,1
34.0,16.0,249.0,115.0,20.0,-12.0,1
34.0,15.0,246.0,118.0,20.0,-12.0,1
33.0,13.0,249.0,121.0,20.0,-12.0,1
34.0,12.0,249.0,122.0,20.0,-12.0,1
34.0,15.0,245.0,124.0,22.0,-12.0,1
34.0,15.0,248.0,123.0,20.0,-12.0,1
32.0,14.0,247.0,124.0,20.0,-12.0,1
33.0,13.0,247.0,124.0,21.0,-12.0,1
33.0,16.0,249.0,125.0,22.0,-12.0,1
35.0,13.0,249.0,125.0,23.0,-9.0,1
35.0,14.0,241.0,123.0,25.0,-11.0,1
40.0,17.0,252.0,122.0,25.0,-9.0,1
34.0,11.0,248.0,122.0,26.0,-11.0,1
32.0,16.0,246.0,120.0,28.0,-11.0,1
33.0,19.0,246.0,116.0,29.0,-11.0,1
35.0,16.0,248.0,114.0,29.0,-11.0,1
33.0,16.0,250.0,110.0,29.0,-12.0,1
38.0,14.0,250.0,109.0,28.0,-13.0,1
35.0,18.0,251.0,106.0,27.0,-13.0,1
31.0,19.0,246.0,105.0,24.0,-12.0,1
32.0,18.0,249.0,104.0,23.0,-12.0,1
36.0,13.0,243.0,104.0,20.0,-11.0,1
33.0,16.0,249.0,105.0,20.0,-11.0,1
33.0,19.0,247.0,106.0,18.0,-10.0,1
33.0,17.0,249.0,104.0,17.0,-8.0,1
34.0,17.0,250.0,103.0,17.0,-10.0,1
33.0,18.0,252.0,103.0,17.0,-9.0,1
32.0,15.0,248.0,102.0,16.0,-10.0,1
28.0,18.0,246.0,103.0,16.0,-10.0,1
34.0,18.0,250.0,105.0,15.0,-11.0,1
30.0,12.0,250.0,109.0,16.0,-12.0,1
31.0,12.0,249.0,114.0,17.0,-13.0,1
33.0,12.0,251.0,120.0,16.0,-15.0,1
32.0,13.0,251.0,128.0,17.0,-14.0,1
32.0,14.0,250.0,135.0,16.0,-15.0,1
32.0,18.0,252.0,142.0,17.0,-14.0,1
32.0,16.0,250.0,145.0,16.0,-13.0,1
32.0,17.0,249.0,147.0,15.0,-12.0,1
35.0,14.0,247.0,150.0,14.0,-12.0,1
32.0,17.0,247.0,152.0,12.0,-11.0,1
33.0,16.0,244.0,154.0,11.0,-12.0,1
33.0,20.0,241.0,156.0,10.0,-13.0,1
32.0,20.0,247.0,158.0,11.0,-17.0,1
32.0,24.0,243.0,159.0,13.0,-15.0,1
35.0,19.0,247.0,159.0,17.0,-15.0,1
33.0,22.0,244.0,159.0,21.0,-17.0,1
34.0,20.0,247.0,157.0,25.0,-17.0,1
34.0,23.0,245.0,155.0,28.0,-17.0,1
34.0,19.0,248.0,152.0,32.0,-16.0,1
32.0,24.0,247.0,147.0,34.0,-14.0,1
31.0,24.0,246.0,142.0,33.0,-13.0,1
34.0,19.0,247.0,136.0,35.0,-13.0,1
31.0,20.0,242.0,131.0,34.0,-13.0,1
33.0,20.0,244.0,124.0,35.0,-11.0,1
34.0,18.0,250.0,119.0,33.0,-12.0,1
34.0,21.0,248.0,115.0,32.0,-10.0,1
34.0,20.0,249.0,111.0,31.0,-11.0,1
32.0,22.0,250.0,109.0,29.0,-8.0,1
35.0,21.0,248.0,108.0,27.0,-8.0,1
34.0,21.0,251.0,107.0,25.0,-8.0,1
31.0,21.0,251.0,107.0,23.0,-9.0,1
33.0,21.0,248.0,105.0,23.0,-8.0,1
32.0,23.0,251.0,104.0,20.0,-9.0,1
35.0,19.0,247.0,102.0,21.0,-9.0,1
33.0,23.0,250.0,101.0,21.0,-11.0,1
29.0,16.0,252.0,100.0,21.0,-12.0,1
36.0,21.0,249.0,100.0,22.0,-12.0,1
33.0,22.0,251.0,99.0,23.0,-12.0,1
32.0,22.0,248.0,99.0,23.0,-12.0,1
30.0,23.0,248.0,99.0,25.0,-13.0,1
35.0,21.0,246.0,101.0,25.0,-12.0,1
32.0,22.0,247.0,102.0,26.0,-15.0,1
31.0,20.0,250.0,102.0,27.0,-13.0,1
32.0,23.0,245.0,104.0,28.0,-13.0,1
29.0,23.0,248.0,102.0,28.0,-13.0,1
34.0,23.0,248.0,101.0,27.0,-13.0,1
28.0,22.0,251.0,98.0,27.0,-11.0,1
32.0,20.0,246.0,96.0,27.0,-13.0,1
36.0,21.0,249.0,94.0,25.0,-11.0,1
34.0,24.0,245.0,91.0,28.0,-11.0,1
33.0,26.0,248.0,90.0,28.0,-10.0,1
33.0,22.0,251.0,88.0,28.0,-11.0,1
29.0,22.0,246.0,84.0,28.0,-10.0,1
31.0,24.0,244.0,84.0,29.0,-11.0,1
33.0,23.0,248.0,82.0,28.0,-8.0,1
31.0,20.0,247.0,81.0,26.0,-10.0,1
30.0,19.0,252.0,81.0,25.0,-10.0,1
34.0,23.0,248.0,81.0,24.0,-12.0,1
30.0,21.0,248.0,81.0,22.0,-10.0,1
32.0,20.0,250.0,83.0,19.0,-10.0,1
32.0,21.0,246.0,85.0,19.0,-10.0,1
29.0,21.0,252.0,87.0,18.0,-10.0,1
31.0,21.0,248.0,88.0,16.0,-12.0,1
36.0,23.0,251.0,90.0,14.0,-12.0,1
30.0,24.0,248.0,93.0,15.0,-11.0,1
32.0,23.0,245.0,94.0,16.0,-13.0,1
35.0,19.0,247.0,96.0,16.0,-13.0,1
29.0,24.0,247.0,97.0,18.0,-16.0,1
34.0,22.0,248.0,99.0,22.0,-15.0,1
33.0,24.0,248.0,100.0,24.0,-16.0,1
29.0,24.0,246.0,100.0,27.0,-14.0,1
33.0,22.0,246.0,101.0,28.0,-15.0,1
35.0,26.0,248.0,101.0,30.0,-13.0,1
32.0,22.0,250.0,100.0,29.0,-14.0,1
28.0,23.0,246.0,100.0,30.0,-12.0,1
30.0,24.0,247.0,100.0,30.0,-11.0,1
28.0,27.0,248.0,98.0,29.0,-10.0,1
30.0,27.0,247.0,99.0,28.0,-11.0,1
36.0,19.0,246.0,101.0,26.0,-11.0,1
30.0,24.0,248.0,101.0,26.0,-11.0,1
30.0,22.0,248.0,99.0,25.0,-10.0,1
29.0,23.0,249.0,99.0,25.0,-11.0,1
31.0,24.0,250.0,98.0,23.0,-9.0,1
33.0,22.0,248.0,97.0,25.0,-11.0,1
32.0,24.0,250.0,95.0,24.0,-11.0,1
29.0,23.0,246.0,94.0,24.0,-14.0,1
31.0,23.0,247.0,93.0,24.0,-11.0,1
29.0,27.0,250.0,90.0,23.0,-10.0,1
32.0,22.0,251.0,87.0,22.0,-10.0,1
32.0,27.0,250.0,85.0,22.0,-10.0,1
33.0,29.0,250.0,82.0,22.0,-10.0,1
32.0,24.0,246.0,78.0,18.0,-9.0,1
34.0,23.0,248.0,75.0,19.0,-10.0,1
34.0,25.0,249.0,73.0,19.0,-10.0,1
34.0,24.0,245.0,69.0,17.0,-11.0,1
29.0,26.0,251.0,66.0,18.0,-11.0,1
31.0,27.0,250.0,64.0,19.0,-10.0,1
33.0,26.0,248.0,61.0,19.0,-11.0,1
29.0,27.0,245.0,60.0,18.0,-12.0,1
31.0,24.0,249.0,57.0,20.0,-11.0,1
33.0,19.0,251.0,55.0,19.0,-11.0,1
33.0,25.0,251.0,53.0,17.0,-12.0,1
34.0,26.0,251.0,50.0,16.0,-10.0,1
31.0,28.0,249.0,48.0,15.0,-10.0,1
31.0,27.0,250.0,46.0,14.0,-11.0,1
34.0,24.0,248.0,41.0,15.0,-11.0,1
31.0,28.0,244.0,38.0,13.0,-10.0,1
32.0,26.0,253.0,35.0,12.0,-12.0,1
35.0,22.0,251.0,33.0,12.0,-11.0,1
30.0,24.0,247.0,31.0,12.0,-11.0,1
31.0,26.0,247.0,31.0,12.0,-12.0,1
31.0,22.0,252.0,30.0,11.0,-11.0,1
33.0,23.0,245.0,29.0,13.0,-11.0,1
32.0,23.0,252.0,29.0,13.0,-9.0,1
33.0,23.0,249.0,28.0,12.0,-9.0,1
30.0,24.0,248.0,27.0,12.0,-10.0,1
34.0,20.0,245.0,26.0,11.0,-10.0,1
32.0,28.0,245.0,26.0,11.0,-10.0,1
29.0,23.0,252.0,25.0,11.0,-11.0,1
30.0,24.0,247.0,24.0,10.0,-10.0,1
33.0,24.0,246.0,23.0,10.0,-11.0,1
31.0,23.0,251.0,22.0,10.0,-10.0,1
38.0,25.0,259.0,20.0,9.0,-10.0,1
32.0,24.0,250.0,18.0,9.0,-10.0,1
31.0,24.0,251.0,18.0,9.0,-11.0,1
30.0,27.0,249.0,18.0,9.0,-10.0,1
31.0,25.0,246.0,21.0,8.0,-10.0,1
