ax,ay,az,gx,gy,gz,label
-13.0,-256.0,-19.0,-113.0,-3.0,-13.0,1
-13.0,-256.0,-21.0,-111.0,-1.0,-11.0,1
-13.0,-256.0,-20.0,-111.0,-1.0,-10.0,1
-14.0,-252.0,-24.0,-112.0,2.0,-5.0,1
-15.0,-247.0,-23.0,-114.0,7.0,-2.0,1
-12.0,-252.0,-25.0,-116.0,11.0,1.0,1
-11.0,-251.0,-24.0,-119.0,15.0,6.0,1
-11.0,-248.0,-30.0,-124.0,20.0,12.0,1
-11.0,-249.0,-24.0,-130.0,24.0,17.0,1
-9.0,-249.0,-25.0,-135.0,26.0,20.0,1
-6.0,-248.0,-30.0,-143.0,29.0,24.0,1
-12.0,-249.0,-29.0,-148.0,31.0,28.0,1
-7.0,-248.0,-28.0,-154.0,34.0,31.0,1
-8.0,-249.0,-29.0,-159.0,33.0,34.0,1
-10.0,-242.0,-33.0,-165.0,34.0,37.0,1
-8.0,-248.0,-30.0,-168.0,32.0,39.0,1
-10.0,-248.0,-28.0,-171.0,30.0,39.0,1
-11.0,-250.0,-31.0,-169.0,30.0,39.0,1
-10.0,-249.0,-28.0,-166.0,29.0,38.0,1
-12.0,-250.0,-27.0,-161.0,30.0,37.0,1
-13.0,-250.0,-25.0,-151.0,30.0,36.0,1
-14.0,-251.0,-24.0,-146.0,33.0,34.0,1
-14.0,-250.0,-26.0,-140.0,36.0,33.0,1
-13.0,-253.0,-26.0,-135.0,38.0,31.0,1
-16.0,-254.0,-22.0,-131.0,40.0,30.0,1
-16.0,-253.0,-22.0,-130.0,40.0,30.0,1
-16.0,-255.0,-21.0,-131.0,39.0,31.0,1
-18.0,-255.0,-25.0,-133.0,38.0,29.0,1
-21.0,-260.0,-21.0,-137.0,36.0,26.0,1
-23.0,-257.0,-24.0,-146.0,35.0,21.0,1
-19.0,-259.0,-22.0,-156.0,39.0,13.0,1
-22.0,-255.0,-22.0,-169.0,44.0,4.0,1
-17.0,-256.0,-27.0,-184.0,50.0,-6.0,1
-17.0,-252.0,-26.0,-199.0,58.0,-15.0,1
-17.0,-251.0,-25.0,-216.0,63.0,-25.0,1
-15.0,-252.0,-21.0,-228.0,66.0,-32.0,1
-16.0,-250.0,-19.0,-236.0,66.0,-37.0,1
-15.0,-253.0,-21.0,-244.0,66.0,-40.0,1
-16.0,-253.0,-26.0,-249.0,63.0,-43.0,1
-16.0,-257.0,-24.0,-248.0,63.0,-44.0,1
-14.0,-254.0,-23.0,-245.0,63.0,-45.0,1
-15.0,-258.0,-22.0,-239.0,62.0,-47.0,1
-18.0,-258.0,-22.0,-228.0,59.0,-49.0,1
-17.0,-258.0,-26.0,-215.0,55.0,-52.0,1
-19.0,-257.0,-28.0,-205.0,49.0,-56.0,1
-19.0,-253.0,-24.0,-195.0,42.0,-56.0,1
-23.0,-251.0,-26.0,-191.0,35.0,-60.0,1
-21.0,-252.0,-25.0,-192.0,27.0,-59.0,1
-21.0,-255.0,-26.0,-196.0,20.0,-58.0,1
-20.0,-255.0,-24.0,-199.0,12.0,-56.0,1
-18.0,-253.0,-21.0,-200.0,5.0,-56.0,1
-16.0,-252.0,-23.0,-202.0,-1.0,-54.0,1
-18.0,-249.0,-23.0,-199.0,-7.0,-56.0,1
-13.0,-247.0,-23.0,-187.0,-13.0,-59.0,1
-14.0,-245.0,-25.0,-174.0,-21.0,-59.0,1
-11.0,-239.0,-19.0,-157.0,-28.0,-57.0,1
-8.0,-235.0,-15.0,-137.0,-31.0,-57.0,1
-3.0,-236.0,-15.0,-121.0,-33.0,-52.0,1
-3.0,-232.0,-11.0,-113.0,-28.0,-51.0,1
-5.0,-229.0,-7.0,-109.0,-21.0,-47.0,1
1.0,-227.0,-5.0,-112.0,-11.0,-47.0,1
2.0,-227.0,-5.0,-119.0,3.0,-47.0,1
1.0,-227.0,0.0,-130.0,15.0,-47.0,1
3.0,-228.0,6.0,-144.0,25.0,-47.0,1
2.0,-234.0,4.0,-166.0,32.0,-46.0,1
-2.0,-229.0,7.0,-188.0,39.0,-43.0,1
-1.0,-231.0,7.0,-218.0,43.0,-40.0,1
-1.0,-231.0,5.0,-250.0,43.0,-37.0,1
-2.0,-235.0,8.0,-286.0,41.0,-31.0,1
-8.0,-236.0,8.0,-325.0,38.0,-24.0,1
-6.0,-239.0,9.0,-367.0,32.0,-18.0,1
-7.0,-243.0,10.0,-408.0,23.0,-9.0,1
-4.0,-247.0,9.0,-447.0,10.0,-2.0,1
-7.0,-250.0,9.0,-479.0,-7.0,5.0,1
-6.0,-253.0,8.0,-504.0,-26.0,12.0,1
-6.0,-263.0,7.0,-518.0,-48.0,18.0,1
-7.0,-263.0,-1.0,-529.0,-71.0,21.0,1
-5.0,-261.0,-1.0,-534.0,-91.0,25.0,1
-5.0,-262.0,-5.0,-534.0,-113.0,28.0,1
-4.0,-262.0,-9.0,-530.0,-133.0,31.0,1
-4.0,-260.0,-8.0,-519.0,-149.0,34.0,1
-2.0,-258.0,-18.0,-507.0,-160.0,36.0,1
-1.0,-254.0,-18.0,-493.0,-168.0,35.0,1
4.0,-256.0,-23.0,-482.0,-169.0,29.0,1
6.0,-251.0,-24.0,-471.0,-161.0,25.0,1
7.0,-251.0,-27.0,-461.0,-147.0,16.0,1
11.0,-251.0,-30.0,-455.0,-129.0,6.0,1
6.0,-249.0,-31.0,-453.0,-107.0,-4.0,1
11.0,-251.0,-35.0,-454.0,-86.0,-12.0,1
11.0,-248.0,-36.0,-457.0,-66.0,-16.0,1
12.0,-247.0,-38.0,-462.0,-50.0,-18.0,1
11.0,-247.0,-41.0,-468.0,-36.0,-19.0,1
10.0,-246.0,-34.0,-477.0,-25.0,-19.0,1
8.0,-246.0,-37.0,-481.0,-18.0,-21.0,1
9.0,-247.0,-33.0,-484.0,-15.0,-25.0,1
2.0,-244.0,-31.0,-484.0,-16.0,-28.0,1
2.0,-246.0,-31.0,-483.0,-20.0,-28.0,1
-3.0,-246.0,-28.0,-479.0,-27.0,-26.0,1
-4.0,-249.0,-28.0,-471.0,-38.0,-25.0,1
-4.0,-252.0,-30.0,-461.0,-51.0,-22.0,1
-1.0,-258.0,-28.0,-448.0,-65.0,-18.0,1
-3.0,-257.0,-28.0,-431.0,-80.0,-15.0,1
-4.0,-259.0,-31.0,-417.0,-95.0,-11.0,1
3.0,-260.0,-33.0,-400.0,-104.0,-5.0,1
-1.0,-259.0,-36.0,-390.0,-113.0,1.0,1
3.0,-261.0,-33.0,-375.0,-121.0,8.0,1
6.0,-265.0,-36.0,-364.0,-129.0,14.0,1
6.0,-263.0,-34.0,-349.0,-134.0,20.0,1
9.0,-260.0,-31.0,-334.0,-135.0,27.0,1
13.0,-260.0,-36.0,-317.0,-130.0,29.0,1
12.0,-259.0,-35.0,-301.0,-122.0,29.0,1
16.0,-257.0,-37.0,-288.0,-113.0,28.0,1
13.0,-257.0,-41.0,-279.0,-101.0,22.0,1
16.0,-253.0,-44.0,-279.0,-92.0,21.0,1
16.0,-250.0,-46.0,-284.0,-83.0,17.0,1
14.0,-246.0,-48.0,-293.0,-75.0,17.0,1
13.0,-250.0,-50.0,-302.0,-70.0,18.0,1
13.0,-249.0,-52.0,-314.0,-70.0,18.0,1
10.0,-245.0,-53.0,-325.0,-75.0,18.0,1
6.0,-244.0,-56.0,-336.0,-86.0,19.0,1
5.0,-244.0,-57.0,-344.0,-101.0,18.0,1
2.0,-241.0,-58.0,-354.0,-115.0,19.0,1
3.0,-240.0,-62.0,-370.0,-128.0,20.0,1
2.0,-234.0,-60.0,-387.0,-136.0,20.0,1
-2.0,-237.0,-60.0,-401.0,-139.0,22.0,1
-2.0,-234.0,-57.0,-413.0,-142.0,23.0,1
-3.0,-232.0,-57.0,-425.0,-145.0,22.0,1
-1.0,-233.0,-58.0,-433.0,-145.0,24.0,1
-6.0,-229.0,-63.0,-439.0,-148.0,27.0,1
-5.0,-226.0,-58.0,-443.0,-150.0,31.0,1
-8.0,-227.0,-58.0,-450.0,-151.0,35.0,1
-7.0,-226.0,-58.0,-458.0,-150.0,36.0,1
-10.0,-224.0,-58.0,-471.0,-145.0,41.0,1
-6.0,-224.0,-61.0,-488.0,-135.0,43.0,1
-7.0,-228.0,-57.0,-506.0,-120.0,44.0,1
-7.0,-233.0,-63.0,-527.0,-103.0,43.0,1
-2.0,-240.0,-63.0,-546.0,-81.0,42.0,1
-1.0,-246.0,-65.0,-567.0,-53.0,39.0,1
-1.0,-254.0,-63.0,-591.0,-25.0,36.0,1
-4.0,-264.0,-64.0,-616.0,1.0,37.0,1
-1.0,-272.0,-71.0,-637.0,26.0,42.0,1
-9.0,-277.0,-74.0,-654.0,46.0,48.0,1
-11.0,-283.0,-77.0,-661.0,70.0,61.0,1
-11.0,-290.0,-85.0,-663.0,98.0,73.0,1
-12.0,-294.0,-82.0,-661.0,127.0,85.0,1
-8.0,-298.0,-92.0,-663.0,152.0,94.0,1
-11.0,-294.0,-94.0,-665.0,163.0,102.0,1
-14.0,-284.0,-94.0,-664.0,156.0,111.0,1
-14.0,-278.0,-99.0,-650.0,134.0,120.0,1
-13.0,-275.0,-92.0,-622.0,97.0,135.0,1
-15.0,-265.0,-88.0,-574.0,63.0,145.0,1
-16.0,-253.0,-82.0,-516.0,36.0,159.0,1
-16.0,-253.0,-72.0,-456.0,17.0,170.0,1
-21.0,-248.0,-66.0,-390.0,10.0,180.0,1
-23.0,-247.0,-65.0,-328.0,13.0,195.0,1
-23.0,-242.0,-54.0,-263.0,32.0,200.0,1
-23.0,-237.0,-50.0,-208.0,59.0,200.0,1
-23.0,-235.0,-45.0,-160.0,92.0,199.0,1
-21.0,-237.0,-38.0,-121.0,138.0,188.0,1
-26.0,-234.0,-31.0,-90.0,196.0,182.0,1
-22.0,-236.0,-30.0,-77.0,262.0,178.0,1
-19.0,-239.0,-21.0,-79.0,329.0,170.0,1
-21.0,-243.0,-14.0,-89.0,390.0,165.0,1
-19.0,-243.0,-8.0,-105.0,444.0,160.0,1
-27.0,-248.0,-8.0,-122.0,489.0,155.0,1
-34.0,-252.0,-7.0,-152.0,517.0,151.0,1
-42.0,-257.0,-11.0,-195.0,534.0,145.0,1
-46.0,-264.0,-14.0,-248.0,539.0,140.0,1
-54.0,-267.0,-21.0,-304.0,534.0,141.0,1
-61.0,-266.0,-24.0,-357.0,515.0,145.0,1
-67.0,-263.0,-33.0,-404.0,486.0,146.0,1
-78.0,-260.0,-37.0,-436.0,444.0,146.0,1
-82.0,-261.0,-42.0,-459.0,386.0,151.0,1
-87.0,-258.0,-42.0,-468.0,322.0,152.0,1
-91.0,-262.0,-52.0,-472.0,249.0,156.0,1
-95.0,-264.0,-50.0,-478.0,178.0,165.0,1
-94.0,-267.0,-48.0,-478.0,111.0,172.0,1
-96.0,-270.0,-47.0,-472.0,48.0,179.0,1
-86.0,-272.0,-50.0,-456.0,-5.0,182.0,1
-83.0,-274.0,-49.0,-431.0,-46.0,183.0,1
-76.0,-277.0,-43.0,-397.0,-77.0,177.0,1
-72.0,-280.0,-45.0,-350.0,-94.0,166.0,1
-59.0,-282.0,-41.0,-305.0,-103.0,151.0,1
-53.0,-283.0,-35.0,-249.0,-102.0,135.0,1
-46.0,-282.0,-33.0,-188.0,-90.0,121.0,1
-39.0,-283.0,-29.0,-127.0,-72.0,106.0,1
-30.0,-284.0,-28.0,-73.0,-43.0,92.0,1
-25.0,-277.0,-25.0,-27.0,-8.0,78.0,1
-16.0,-277.0,-21.0,9.0,27.0,65.0,1
-16.0,-277.0,-23.0,41.0,68.0,45.0,1
-13.0,-274.0,-22.0,66.0,111.0,29.0,1
-15.0,-269.0,-23.0,85.0,158.0,15.0,1
-12.0,-264.0,-17.0,106.0,206.0,8.0,1
-11.0,-260.0,-16.0,130.0,248.0,2.0,1
-11.0,-253.0,-13.0,158.0,286.0,-9.0,1
-10.0,-245.0,-17.0,186.0,321.0,-12.0,1
-7.0,-243.0,-15.0,207.0,351.0,-8.0,1
-5.0,-241.0,-19.0,207.0,372.0,-14.0,1
-2.0,-241.0,-19.0,191.0,386.0,-19.0,1
-4.0,-245.0,-18.0,168.0,402.0,-27.0,1
1.0,-245.0,-13.0,140.0,416.0,-35.0,1
4.0,-250.0,-13.0,115.0,429.0,-48.0,1
3.0,-253.0,-7.0,82.0,444.0,-63.0,1
8.0,-266.0,-1.0,60.0,461.0,-81.0,1
15.0,-270.0,-1.0,57.0,482.0,-104.0,1
16.0,-277.0,6.0,67.0,511.0,-127.0,1
18.0,-292.0,2.0,87.0,539.0,-149.0,1
27.0,-300.0,2.0,114.0,563.0,-171.0,1
23.0,-300.0,-5.0,135.0,579.0,-195.0,1
15.0,-304.0,-16.0,155.0,583.0,-210.0,1
6.0,-310.0,-24.0,165.0,572.0,-217.0,1
-10.0,-309.0,-34.0,168.0,545.0,-214.0,1
-29.0,-300.0,-40.0,163.0,507.0,-199.0,1
-42.0,-299.0,-52.0,146.0,472.0,-179.0,1
-60.0,-290.0,-58.0,125.0,445.0,-158.0,1
-68.0,-292.0,-59.0,106.0,435.0,-137.0,1
-77.0,-295.0,-59.0,98.0,444.0,-121.0,1
-80.0,-296.0,-60.0,104.0,465.0,-113.0,1
-78.0,-301.0,-60.0,125.0,497.0,-113.0,1
-75.0,-313.0,-56.0,157.0,528.0,-109.0,1
-83.0,-324.0,-52.0,194.0,552.0,-95.0,1
-71.0,-345.0,-55.0,228.0,561.0,-72.0,1
-55.0,-361.0,-52.0,253.0,551.0,-35.0,1
-32.0,-378.0,-57.0,277.0,530.0,0.0,1
-14.0,-381.0,-73.0,309.0,496.0,32.0,1
7.0,-374.0,-100.0,346.0,451.0,52.0,1
28.0,-363.0,-124.0,402.0,413.0,60.0,1
46.0,-341.0,-146.0,484.0,414.0,58.0,1
54.0,-313.0,-163.0,588.0,464.0,52.0,1
55.0,-289.0,-185.0,688.0,564.0,55.0,1
52.0,-252.0,-201.0,752.0,703.0,63.0,1
45.0,-224.0,-209.0,777.0,866.0,79.0,1
48.0,-208.0,-221.0,772.0,1030.0,95.0,1
41.0,-196.0,-223.0,735.0,1181.0,102.0,1
28.0,-192.0,-216.0,660.0,1302.0,101.0,1
7.0,-200.0,-202.0,550.0,1378.0,95.0,1
-1.0,-217.0,-185.0,423.0,1401.0,91.0,1
-16.0,-231.0,-175.0,294.0,1376.0,84.0,1
-28.0,-245.0,-164.0,171.0,1313.0,74.0,1
-37.0,-262.0,-151.0,64.0,1224.0,57.0,1
-44.0,-278.0,-138.0,-23.0,1118.0,36.0,1
-49.0,-300.0,-128.0,-83.0,1005.0,15.0,1
-52.0,-303.0,-113.0,-117.0,883.0,3.0,1
-56.0,-307.0,-107.0,-124.0,755.0,-1.0,1
-54.0,-313.0,-99.0,-99.0,621.0,4.0,1
-55.0,-313.0,-93.0,-48.0,492.0,20.0,1
-54.0,-314.0,-94.0,27.0,376.0,39.0,1
-55.0,-312.0,-93.0,108.0,279.0,57.0,1
-60.0,-305.0,-89.0,193.0,200.0,68.0,1
-57.0,-296.0,-93.0,275.0,140.0,73.0,1
-54.0,-285.0,-93.0,351.0,88.0,72.0,1
-56.0,-267.0,-96.0,419.0,38.0,63.0,1
-56.0,-251.0,-106.0,476.0,-10.0,52.0,1
-60.0,-233.0,-103.0,518.0,-58.0,34.0,1
-59.0,-215.0,-109.0,539.0,-99.0,16.0,1
-62.0,-196.0,-109.0,534.0,-130.0,-9.0,1
-64.0,-186.0,-112.0,510.0,-156.0,-37.0,1
-59.0,-181.0,-115.0,469.0,-167.0,-59.0,1
-54.0,-174.0,-108.0,426.0,-152.0,-78.0,1
-49.0,-177.0,-103.0,386.0,-122.0,-98.0,1
-42.0,-177.0,-103.0,344.0,-84.0,-110.0,1
-32.0,-175.0,-96.0,298.0,-44.0,-121.0,1
-23.0,-176.0,-90.0,262.0,-3.0,-139.0,1
-16.0,-175.0,-88.0,224.0,26.0,-148.0,1
-16.0,-177.0,-80.0,189.0,30.0,-155.0,1
-14.0,-181.0,-78.0,160.0,16.0,-164.0,1
-11.0,-177.0,-79.0,126.0,-14.0,-167.0,1
-5.0,-181.0,-81.0,89.0,-55.0,-175.0,1
-7.0,-178.0,-77.0,48.0,-104.0,-186.0,1
-2.0,-180.0,-75.0,11.0,-159.0,-190.0,1
3.0,-184.0,-68.0,-4.0,-192.0,-182.0,1
4.0,-184.0,-64.0,-12.0,-213.0,-173.0,1
-2.0,-185.0,-62.0,-18.0,-242.0,-165.0,1
6.0,-192.0,-58.0,-23.0,-279.0,-159.0,1
2.0,-189.0,-59.0,-26.0,-317.0,-158.0,1
4.0,-188.0,-57.0,-35.0,-354.0,-157.0,1
1.0,-190.0,-55.0,-45.0,-394.0,-155.0,1
-1.0,-188.0,-51.0,-52.0,-430.0,-156.0,1
-5.0,-187.0,-52.0,-62.0,-458.0,-153.0,1
-4.0,-190.0,-48.0,-68.0,-485.0,-140.0,1
-10.0,-193.0,-48.0,-79.0,-506.0,-129.0,1
-16.0,-199.0,-47.0,-87.0,-521.0,-125.0,1
-20.0,-205.0,-50.0,-95.0,-532.0,-113.0,1
-22.0,-209.0,-44.0,-106.0,-531.0,-100.0,1
-28.0,-212.0,-44.0,-111.0,-523.0,-90.0,1
-36.0,-214.0,-47.0,-109.0,-513.0,-79.0,1
-38.0,-214.0,-43.0,-107.0,-498.0,-68.0,1
-35.0,-214.0,-43.0,-105.0,-476.0,-57.0,1
-33.0,-214.0,-37.0,-104.0,-456.0,-57.0,1
-32.0,-215.0,-37.0,-102.0,-437.0,-67.0,1
-28.0,-213.0,-37.0,-96.0,-427.0,-83.0,1
-22.0,-213.0,-28.0,-83.0,-422.0,-104.0,1
-21.0,-214.0,-32.0,-65.0,-424.0,-128.0,1
-20.0,-214.0,-26.0,-46.0,-433.0,-146.0,1
-18.0,-215.0,-23.0,-30.0,-448.0,-157.0,1
-15.0,-217.0,-23.0,-15.0,-468.0,-166.0,1
-15.0,-218.0,-25.0,2.0,-490.0,-168.0,1
-15.0,-225.0,-20.0,16.0,-517.0,-163.0,1
-17.0,-228.0,-21.0,31.0,-545.0,-157.0,1
-15.0,-228.0,-17.0,51.0,-576.0,-145.0,1
-17.0,-235.0,-13.0,73.0,-604.0,-133.0,1
-16.0,-245.0,-7.0,93.0,-633.0,-118.0,1
-16.0,-247.0,-6.0,111.0,-665.0,-103.0,1
-21.0,-250.0,-2.0,131.0,-698.0,-85.0,1
-24.0,-257.0,6.0,149.0,-729.0,-65.0,1
-25.0,-265.0,7.0,170.0,-754.0,-43.0,1
-22.0,-274.0,11.0,193.0,-775.0,-24.0,1
-24.0,-276.0,9.0,222.0,-781.0,-3.0,1
-21.0,-273.0,10.0,255.0,-778.0,17.0,1
-16.0,-265.0,9.0,288.0,-766.0,33.0,1
-16.0,-257.0,9.0,317.0,-747.0,46.0,1
-10.0,-249.0,7.0,347.0,-727.0,55.0,1
-4.0,-237.0,0.0,368.0,-703.0,57.0,1
-1.0,-234.0,-2.0,378.0,-676.0,60.0,1
-1.0,-224.0,-3.0,381.0,-649.0,60.0,1
0.0,-224.0,0.0,369.0,-631.0,59.0,1
0.0,-227.0,6.0,346.0,-623.0,60.0,1
1.0,-231.0,10.0,326.0,-633.0,62.0,1
3.0,-244.0,13.0,309.0,-653.0,61.0,1
6.0,-256.0,23.0,300.0,-671.0,56.0,1
11.0,-266.0,30.0,301.0,-677.0,46.0,1
13.0,-278.0,32.0,320.0,-673.0,35.0,1
17.0,-288.0,35.0,345.0,-664.0,21.0,1
21.0,-294.0,31.0,373.0,-652.0,6.0,1
22.0,-306.0,34.0,395.0,-640.0,-10.0,1
22.0,-314.0,31.0,418.0,-627.0,-26.0,1
26.0,-324.0,27.0,438.0,-617.0,-46.0,1
23.0,-333.0,23.0,456.0,-613.0,-65.0,1
31.0,-347.0,24.0,472.0,-616.0,-89.0,1
38.0,-360.0,17.0,481.0,-619.0,-127.0,1
46.0,-377.0,6.0,465.0,-627.0,-179.0,1
43.0,-393.0,-15.0,415.0,-640.0,-238.0,1
39.0,-404.0,-43.0,319.0,-656.0,-289.0,1
35.0,-417.0,-74.0,154.0,-673.0,-329.0,1
40.0,-428.0,-103.0,-80.0,-721.0,-362.0,1
47.0,-439.0,-128.0,-351.0,-770.0,-405.0,1
44.0,-443.0,-153.0,-609.0,-757.0,-460.0,1
29.0,-446.0,-170.0,-806.0,-648.0,-517.0,1
-12.0,-442.0,-188.0,-930.0,-465.0,-569.0,1
-63.0,-437.0,-208.0,-1011.0,-259.0,-605.0,1
-102.0,-417.0,-219.0,-1016.0,-126.0,-635.0,1
-132.0,-393.0,-220.0,-933.0,-69.0,-618.0,1
-142.0,-371.0,-203.0,-758.0,-100.0,-563.0,1
-146.0,-347.0,-185.0,-495.0,-202.0,-498.0,1
-147.0,-320.0,-177.0,-181.0,-334.0,-435.0,1
-145.0,-293.0,-158.0,114.0,-464.0,-370.0,1
-137.0,-264.0,-147.0,358.0,-585.0,-305.0,1
-135.0,-243.0,-136.0,558.0,-705.0,-253.0,1
-117.0,-228.0,-135.0,727.0,-826.0,-209.0,1
-97.0,-214.0,-134.0,867.0,-945.0,-179.0,1
-75.0,-205.0,-135.0,953.0,-1056.0,-166.0,1
-44.0,-200.0,-136.0,975.0,-1152.0,-157.0,1
-19.0,-198.0,-129.0,940.0,-1230.0,-150.0,1
-2.0,-187.0,-125.0,861.0,-1290.0,-144.0,1
15.0,-187.0,-120.0,760.0,-1334.0,-133.0,1
26.0,-186.0,-111.0,654.0,-1368.0,-116.0,1
36.0,-192.0,-103.0,551.0,-1379.0,-88.0,1
46.0,-190.0,-94.0,448.0,-1362.0,-47.0,1
52.0,-194.0,-90.0,348.0,-1320.0,-2.0,1
52.0,-187.0,-79.0,251.0,-1257.0,40.0,1
55.0,-189.0,-70.0,162.0,-1172.0,79.0,1
59.0,-186.0,-64.0,77.0,-1072.0,107.0,1
63.0,-187.0,-56.0,5.0,-969.0,122.0,1
60.0,-187.0,-59.0,-56.0,-869.0,125.0,1
61.0,-187.0,-56.0,-114.0,-774.0,124.0,1
58.0,-188.0,-58.0,-175.0,-680.0,123.0,1
55.0,-190.0,-57.0,-237.0,-588.0,127.0,1
54.0,-190.0,-60.0,-298.0,-500.0,132.0,1
54.0,-189.0,-60.0,-354.0,-415.0,135.0,1
52.0,-188.0,-61.0,-389.0,-336.0,140.0,1
51.0,-190.0,-59.0,-406.0,-267.0,142.0,1
49.0,-189.0,-57.0,-401.0,-209.0,147.0,1
46.0,-190.0,-64.0,-376.0,-162.0,150.0,1
39.0,-187.0,-64.0,-348.0,-127.0,153.0,1
32.0,-189.0,-66.0,-320.0,-95.0,156.0,1
25.0,-188.0,-66.0,-296.0,-70.0,158.0,1
22.0,-190.0,-66.0,-278.0,-50.0,154.0,1
15.0,-193.0,-63.0,-265.0,-35.0,146.0,1
7.0,-201.0,-67.0,-262.0,-24.0,139.0,1
6.0,-197.0,-66.0,-263.0,-13.0,135.0,1
0.0,-202.0,-65.0,-269.0,-3.0,134.0,1
-7.0,-210.0,-59.0,-275.0,10.0,134.0,1
-15.0,-213.0,-57.0,-276.0,22.0,142.0,1
-17.0,-219.0,-53.0,-273.0,33.0,157.0,1
-22.0,-225.0,-52.0,-265.0,46.0,167.0,1
-20.0,-225.0,-53.0,-257.0,61.0,181.0,1
-27.0,-227.0,-53.0,-261.0,76.0,188.0,1
-36.0,-226.0,-56.0,-277.0,88.0,194.0,1
-35.0,-225.0,-58.0,-296.0,99.0,198.0,1
-40.0,-224.0,-58.0,-308.0,110.0,201.0,1
-32.0,-227.0,-56.0,-313.0,122.0,197.0,1
-40.0,-223.0,-55.0,-318.0,139.0,192.0,1
-35.0,-221.0,-51.0,-319.0,154.0,188.0,1
-34.0,-223.0,-55.0,-311.0,166.0,183.0,1
-33.0,-229.0,-50.0,-299.0,177.0,173.0,1
-27.0,-233.0,-47.0,-288.0,189.0,165.0,1
-27.0,-241.0,-50.0,-283.0,206.0,154.0,1
-17.0,-245.0,-47.0,-285.0,218.0,146.0,1
-16.0,-248.0,-47.0,-289.0,229.0,135.0,1
-15.0,-251.0,-41.0,-292.0,236.0,128.0,1
-16.0,-248.0,-48.0,-290.0,236.0,123.0,1
-15.0,-251.0,-41.0,-283.0,233.0,119.0,1
-14.0,-254.0,-35.0,-272.0,230.0,114.0,1
-13.0,-253.0,-32.0,-256.0,228.0,108.0,1
-15.0,-254.0,-29.0,-236.0,227.0,99.0,1
-18.0,-255.0,-27.0,-213.0,231.0,91.0,1
-16.0,-251.0,-22.0,-190.0,236.0,81.0,1
-16.0,-249.0,-18.0,-162.0,243.0,69.0,1
-15.0,-246.0,-18.0,-133.0,252.0,56.0,1
-12.0,-244.0,-14.0,-107.0,262.0,47.0,1
-15.0,-240.0,-12.0,-85.0,275.0,39.0,1
-11.0,-231.0,-11.0,-65.0,293.0,32.0,1
-13.0,-226.0,-8.0,-50.0,312.0,20.0,1
-9.0,-219.0,-6.0,-46.0,332.0,7.0,1
-3.0,-218.0,-6.0,-44.0,356.0,-9.0,1
5.0,-216.0,-5.0,-43.0,387.0,-27.0,1
9.0,-217.0,-1.0,-42.0,423.0,-45.0,1
10.0,-224.0,7.0,-45.0,467.0,-65.0,1
14.0,-233.0,5.0,-54.0,512.0,-80.0,1
17.0,-245.0,9.0,-61.0,556.0,-96.0,1
22.0,-255.0,9.0,-68.0,593.0,-112.0,1
18.0,-263.0,9.0,-75.0,610.0,-124.0,1
11.0,-265.0,8.0,-80.0,603.0,-134.0,1
3.0,-267.0,1.0,-84.0,578.0,-138.0,1
-5.0,-269.0,-1.0,-86.0,538.0,-132.0,1
-11.0,-267.0,-6.0,-91.0,488.0,-119.0,1
-16.0,-262.0,-11.0,-101.0,437.0,-108.0,1
-21.0,-258.0,-18.0,-111.0,391.0,-98.0,1
-20.0,-253.0,-12.0,-110.0,356.0,-95.0,1
-16.0,-253.0,-13.0,-87.0,334.0,-101.0,1
-20.0,-249.0,-13.0,-46.0,331.0,-112.0,1
-16.0,-252.0,-11.0,15.0,341.0,-123.0,1
-18.0,-257.0,-1.0,85.0,356.0,-131.0,1
-20.0,-257.0,-5.0,146.0,373.0,-131.0,1
-29.0,-256.0,-5.0,191.0,388.0,-121.0,1
-30.0,-264.0,-3.0,214.0,401.0,-100.0,1
-32.0,-266.0,-2.0,216.0,412.0,-80.0,1
-32.0,-273.0,0.0,206.0,428.0,-64.0,1
-27.0,-274.0,4.0,189.0,452.0,-55.0,1
-22.0,-278.0,9.0,181.0,481.0,-52.0,1
-12.0,-276.0,9.0,186.0,514.0,-57.0,1
0.0,-281.0,11.0,199.0,550.0,-72.0,1
9.0,-283.0,13.0,220.0,593.0,-89.0,1
11.0,-287.0,19.0,244.0,640.0,-93.0,1
15.0,-301.0,18.0,273.0,683.0,-83.0,1
11.0,-315.0,16.0,292.0,719.0,-54.0,1
-5.0,-333.0,4.0,283.0,732.0,-15.0,1
-17.0,-353.0,-10.0,228.0,708.0,26.0,1
-40.0,-371.0,-33.0,126.0,656.0,66.0,1
-56.0,-385.0,-54.0,2.0,601.0,98.0,1
-80.0,-395.0,-85.0,-117.0,585.0,132.0,1
-90.0,-408.0,-107.0,-259.0,585.0,186.0,1
-96.0,-412.0,-122.0,-400.0,561.0,239.0,1
-94.0,-413.0,-134.0,-504.0,501.0,281.0,1
-89.0,-407.0,-152.0,-533.0,427.0,328.0,1
-78.0,-401.0,-169.0,-501.0,347.0,381.0,1
-69.0,-390.0,-184.0,-420.0,261.0,414.0,1
-41.0,-365.0,-200.0,-312.0,190.0,429.0,1
-16.0,-348.0,-186.0,-165.0,164.0,424.0,1
6.0,-326.0,-183.0,29.0,193.0,398.0,1
31.0,-303.0,-174.0,232.0,267.0,365.0,1
56.0,-278.0,-167.0,401.0,381.0,338.0,1
80.0,-250.0,-159.0,547.0,525.0,320.0,1
102.0,-231.0,-160.0,680.0,687.0,300.0,1
117.0,-207.0,-158.0,790.0,854.0,271.0,1
130.0,-189.0,-153.0,856.0,1008.0,229.0,1
131.0,-177.0,-153.0,873.0,1138.0,178.0,1
118.0,-173.0,-144.0,840.0,1227.0,137.0,1
97.0,-170.0,-148.0,763.0,1269.0,118.0,1
70.0,-185.0,-131.0,644.0,1266.0,124.0,1
45.0,-198.0,-121.0,484.0,1232.0,148.0,1
16.0,-215.0,-118.0,292.0,1175.0,174.0,1
-13.0,-222.0,-112.0,82.0,1113.0,195.0,1
-39.0,-236.0,-97.0,-113.0,1047.0,208.0,1
-66.0,-246.0,-86.0,-270.0,969.0,210.0,1
-85.0,-251.0,-71.0,-373.0,871.0,207.0,1
-104.0,-257.0,-63.0,-421.0,746.0,198.0,1
-124.0,-258.0,-61.0,-428.0,597.0,191.0,1
-134.0,-255.0,-60.0,-409.0,437.0,183.0,1
-127.0,-253.0,-61.0,-382.0,283.0,174.0,1
-137.0,-252.0,-63.0,-360.0,139.0,158.0,1
-134.0,-251.0,-60.0,-344.0,9.0,140.0,1
-121.0,-245.0,-64.0,-330.0,-100.0,125.0,1
-117.0,-234.0,-68.0,-310.0,-194.0,112.0,1
-105.0,-226.0,-70.0,-285.0,-282.0,96.0,1
-91.0,-213.0,-66.0,-251.0,-355.0,85.0,1
-82.0,-203.0,-78.0,-216.0,-411.0,76.0,1
-75.0,-188.0,-80.0,-184.0,-453.0,64.0,1
-68.0,-183.0,-82.0,-160.0,-481.0,45.0,1
-57.0,-176.0,-88.0,-154.0,-495.0,26.0,1
-53.0,-172.0,-83.0,-156.0,-503.0,6.0,1
-43.0,-172.0,-93.0,-163.0,-496.0,-9.0,1
-38.0,-170.0,-93.0,-173.0,-481.0,-24.0,1
-31.0,-170.0,-96.0,-184.0,-468.0,-41.0,1
-27.0,-173.0,-88.0,-197.0,-455.0,-58.0,1
-22.0,-171.0,-87.0,-207.0,-447.0,-76.0,1
-24.0,-174.0,-81.0,-221.0,-446.0,-97.0,1
-20.0,-175.0,-77.0,-237.0,-457.0,-110.0,1
-14.0,-176.0,-73.0,-252.0,-476.0,-124.0,1
-16.0,-184.0,-70.0,-272.0,-498.0,-129.0,1
-12.0,-185.0,-71.0,-292.0,-527.0,-124.0,1
-5.0,-194.0,-62.0,-316.0,-558.0,-130.0,1
-8.0,-198.0,-57.0,-336.0,-590.0,-143.0,1
-3.0,-209.0,-53.0,-355.0,-620.0,-149.0,1
0.0,-213.0,-52.0,-378.0,-649.0,-156.0,1
6.0,-219.0,-45.0,-397.0,-674.0,-161.0,1
7.0,-222.0,-41.0,-409.0,-700.0,-165.0,1
13.0,-226.0,-41.0,-417.0,-726.0,-176.0,1
15.0,-228.0,-36.0,-417.0,-745.0,-184.0,1
17.0,-234.0,-38.0,-411.0,-763.0,-186.0,1
16.0,-238.0,-39.0,-399.0,-773.0,-191.0,1
20.0,-243.0,-42.0,-388.0,-777.0,-199.0,1
18.0,-245.0,-39.0,-379.0,-772.0,-209.0,1
16.0,-246.0,-44.0,-372.0,-762.0,-224.0,1
18.0,-247.0,-45.0,-361.0,-750.0,-233.0,1
14.0,-254.0,-42.0,-347.0,-733.0,-234.0,1
11.0,-259.0,-39.0,-335.0,-710.0,-226.0,1
6.0,-263.0,-39.0,-317.0,-687.0,-217.0,1
6.0,-262.0,-37.0,-296.0,-664.0,-206.0,1
0.0,-260.0,-38.0,-272.0,-647.0,-198.0,1
-4.0,-260.0,-40.0,-241.0,-632.0,-191.0,1
-10.0,-252.0,-35.0,-206.0,-620.0,-180.0,1
-8.0,-246.0,-37.0,-166.0,-613.0,-170.0,1
-14.0,-240.0,-31.0,-122.0,-607.0,-161.0,1
-15.0,-227.0,-31.0,-80.0,-602.0,-149.0,1
-16.0,-227.0,-26.0,-41.0,-597.0,-138.0,1
-18.0,-221.0,-23.0,-14.0,-593.0,-126.0,1
-18.0,-218.0,-24.0,-1.0,-591.0,-112.0,1
-22.0,-222.0,-21.0,2.0,-590.0,-98.0,1
-23.0,-217.0,-19.0,-3.0,-595.0,-81.0,1
-27.0,-220.0,-17.0,-13.0,-605.0,-60.0,1
-30.0,-223.0,-12.0,-28.0,-621.0,-35.0,1
-36.0,-232.0,-9.0,-44.0,-650.0,-11.0,1
-32.0,-245.0,-1.0,-62.0,-691.0,9.0,1
-41.0,-250.0,8.0,-78.0,-737.0,25.0,1
-44.0,-262.0,10.0,-84.0,-789.0,44.0,1
-50.0,-269.0,17.0,-73.0,-835.0,61.0,1
-50.0,-275.0,15.0,-44.0,-875.0,77.0,1
-49.0,-272.0,16.0,-1.0,-900.0,91.0,1
-43.0,-268.0,7.0,47.0,-904.0,99.0,1
-40.0,-260.0,-1.0,83.0,-880.0,106.0,1
-28.0,-251.0,-13.0,105.0,-841.0,104.0,1
-23.0,-240.0,-16.0,117.0,-796.0,94.0,1
-17.0,-235.0,-25.0,111.0,-758.0,79.0,1
-11.0,-230.0,-32.0,96.0,-726.0,69.0,1
-2.0,-228.0,-45.0,71.0,-704.0,59.0,1
6.0,-231.0,-48.0,50.0,-688.0,53.0,1
14.0,-232.0,-55.0,34.0,-672.0,46.0,1
29.0,-233.0,-54.0,21.0,-649.0,30.0,1
45.0,-239.0,-53.0,5.0,-613.0,1.0,1
58.0,-250.0,-51.0,-13.0,-563.0,-44.0,1
73.0,-264.0,-46.0,-34.0,-505.0,-103.0,1
80.0,-281.0,-34.0,-57.0,-449.0,-171.0,1
76.0,-296.0,-23.0,-73.0,-408.0,-240.0,1
72.0,-306.0,-10.0,-73.0,-387.0,-294.0,1
55.0,-313.0,2.0,-44.0,-388.0,-331.0,1
42.0,-321.0,12.0,21.0,-408.0,-344.0,1
30.0,-329.0,21.0,116.0,-438.0,-336.0,1
10.0,-334.0,22.0,226.0,-471.0,-319.0,1
-6.0,-345.0,26.0,331.0,-508.0,-298.0,1
-12.0,-357.0,35.0,425.0,-551.0,-279.0,1
-16.0,-374.0,41.0,517.0,-603.0,-276.0,1
-17.0,-390.0,45.0,600.0,-675.0,-286.0,1
-22.0,-409.0,27.0,653.0,-757.0,-302.0,1
-17.0,-423.0,-6.0,635.0,-816.0,-319.0,1
-11.0,-430.0,-56.0,511.0,-813.0,-341.0,1
-12.0,-423.0,-97.0,265.0,-734.0,-364.0,1
1.0,-417.0,-125.0,-48.0,-614.0,-386.0,1
7.0,-411.0,-144.0,-344.0,-470.0,-397.0,1
7.0,-406.0,-144.0,-549.0,-323.0,-406.0,1
7.0,-399.0,-148.0,-605.0,-196.0,-426.0,1
0.0,-391.0,-150.0,-514.0,-68.0,-451.0,1
-17.0,-373.0,-153.0,-358.0,59.0,-466.0,1
-31.0,-349.0,-155.0,-187.0,140.0,-471.0,1
-40.0,-324.0,-158.0,-13.0,162.0,-467.0,1
-50.0,-305.0,-173.0,133.0,141.0,-460.0,1
-57.0,-291.0,-168.0,229.0,90.0,-448.0,1
-64.0,-280.0,-157.0,294.0,8.0,-425.0,1
-71.0,-266.0,-146.0,340.0,-103.0,-395.0,1
-77.0,-254.0,-128.0,395.0,-238.0,-366.0,1
-80.0,-246.0,-113.0,470.0,-390.0,-344.0,1
-86.0,-233.0,-106.0,561.0,-551.0,-323.0,1
-89.0,-219.0,-100.0,652.0,-721.0,-300.0,1
-90.0,-208.0,-101.0,731.0,-893.0,-271.0,1
-96.0,-197.0,-103.0,788.0,-1060.0,-236.0,1
-91.0,-191.0,-102.0,813.0,-1212.0,-201.0,1
-86.0,-190.0,-100.0,810.0,-1341.0,-173.0,1
-81.0,-187.0,-95.0,780.0,-1442.0,-155.0,1
-74.0,-190.0,-97.0,724.0,-1513.0,-144.0,1
-62.0,-198.0,-95.0,647.0,-1544.0,-141.0,1
-54.0,-205.0,-92.0,542.0,-1539.0,-135.0,1
-45.0,-211.0,-92.0,417.0,-1503.0,-121.0,1
-31.0,-215.0,-83.0,284.0,-1439.0,-102.0,1
-20.0,-222.0,-83.0,159.0,-1351.0,-74.0,1
-10.0,-218.0,-76.0,55.0,-1248.0,-49.0,1
4.0,-216.0,-67.0,-28.0,-1133.0,-23.0,1
16.0,-209.0,-60.0,-86.0,-1010.0,1.0,1
26.0,-200.0,-57.0,-133.0,-885.0,15.0,1
39.0,-202.0,-58.0,-175.0,-763.0,22.0,1
46.0,-202.0,-58.0,-219.0,-651.0,26.0,1
54.0,-203.0,-59.0,-269.0,-549.0,26.0,1
57.0,-201.0,-62.0,-324.0,-458.0,25.0,1
62.0,-202.0,-60.0,-372.0,-380.0,23.0,1
63.0,-200.0,-62.0,-418.0,-313.0,22.0,1
60.0,-202.0,-63.0,-451.0,-261.0,19.0,1
57.0,-205.0,-65.0,-467.0,-219.0,13.0,1
56.0,-207.0,-65.0,-473.0,-188.0,9.0,1
53.0,-206.0,-68.0,-472.0,-164.0,2.0,1
48.0,-206.0,-71.0,-470.0,-143.0,-1.0,1
40.0,-209.0,-69.0,-466.0,-127.0,3.0,1
32.0,-209.0,-73.0,-460.0,-120.0,12.0,1
21.0,-211.0,-70.0,-449.0,-116.0,26.0,1
14.0,-217.0,-72.0,-436.0,-120.0,47.0,1
2.0,-216.0,-67.0,-419.0,-132.0,71.0,1
-5.0,-221.0,-63.0,-399.0,-146.0,97.0,1
-10.0,-219.0,-64.0,-366.0,-162.0,122.0,1
-16.0,-217.0,-57.0,-327.0,-181.0,146.0,1
-20.0,-218.0,-56.0,-282.0,-195.0,173.0,1
-28.0,-216.0,-53.0,-237.0,-204.0,196.0,1
-24.0,-217.0,-49.0,-197.0,-208.0,210.0,1
-26.0,-214.0,-49.0,-166.0,-203.0,217.0,1
-27.0,-214.0,-47.0,-144.0,-194.0,227.0,1
-32.0,-206.0,-50.0,-131.0,-182.0,234.0,1
-24.0,-208.0,-45.0,-124.0,-164.0,241.0,1
-25.0,-204.0,-46.0,-120.0,-132.0,245.0,1
-18.0,-201.0,-43.0,-131.0,-94.0,244.0,1
-17.0,-201.0,-39.0,-150.0,-52.0,242.0,1
-17.0,-196.0,-42.0,-175.0,-12.0,240.0,1
-16.0,-199.0,-39.0,-206.0,23.0,234.0,1
-16.0,-202.0,-41.0,-247.0,53.0,228.0,1
-15.0,-211.0,-40.0,-294.0,82.0,222.0,1
-16.0,-218.0,-37.0,-350.0,110.0,213.0,1
-14.0,-225.0,-36.0,-400.0,130.0,200.0,1
-13.0,-232.0,-38.0,-439.0,148.0,184.0,1
-14.0,-241.0,-37.0,-461.0,157.0,168.0,1
-11.0,-249.0,-34.0,-470.0,159.0,156.0,1
-13.0,-256.0,-37.0,-465.0,163.0,144.0,1
-14.0,-262.0,-32.0,-451.0,164.0,130.0,1
-16.0,-269.0,-34.0,-431.0,161.0,113.0,1
-17.0,-272.0,-30.0,-405.0,152.0,101.0,1
-16.0,-271.0,-31.0,-372.0,143.0,95.0,1
-17.0,-267.0,-27.0,-329.0,135.0,91.0,1
-24.0,-260.0,-26.0,-275.0,127.0,92.0,1
-21.0,-249.0,-24.0,-219.0,123.0,94.0,1
-20.0,-242.0,-21.0,-165.0,123.0,96.0,1
-21.0,-234.0,-20.0,-119.0,123.0,95.0,1
-17.0,-224.0,-18.0,-82.0,125.0,87.0,1
-17.0,-221.0,-13.0,-54.0,130.0,78.0,1
-17.0,-218.0,-9.0,-39.0,133.0,70.0,1
-16.0,-220.0,-5.0,-38.0,128.0,57.0,1
-15.0,-219.0,-4.0,-48.0,122.0,43.0,1
-16.0,-226.0,1.0,-62.0,115.0,32.0,1
-18.0,-230.0,6.0,-76.0,109.0,15.0,1
-19.0,-239.0,8.0,-88.0,110.0,-1.0,1
-13.0,-251.0,10.0,-98.0,115.0,-19.0,1
-13.0,-259.0,13.0,-103.0,127.0,-37.0,1
-6.0,-266.0,19.0,-99.0,142.0,-59.0,1
-7.0,-274.0,17.0,-79.0,163.0,-80.0,1
-9.0,-281.0,20.0,-52.0,185.0,-96.0,1
-6.0,-285.0,18.0,-18.0,208.0,-112.0,1
-4.0,-285.0,9.0,14.0,226.0,-128.0,1
-1.0,-278.0,10.0,46.0,245.0,-143.0,1
4.0,-273.0,2.0,80.0,259.0,-163.0,1
0.0,-266.0,-6.0,114.0,268.0,-190.0,1
0.0,-256.0,-9.0,145.0,264.0,-219.0,1
-7.0,-252.0,-16.0,174.0,239.0,-244.0,1
-14.0,-245.0,-16.0,197.0,193.0,-257.0,1
-30.0,-240.0,-10.0,210.0,133.0,-254.0,1
-47.0,-241.0,-4.0,211.0,64.0,-233.0,1
-61.0,-252.0,-2.0,198.0,3.0,-193.0,1
-70.0,-263.0,-1.0,172.0,-35.0,-142.0,1
-72.0,-273.0,5.0,144.0,-38.0,-88.0,1
-63.0,-288.0,9.0,129.0,-4.0,-44.0,1
-51.0,-304.0,6.0,124.0,62.0,-15.0,1
-43.0,-313.0,3.0,126.0,142.0,-2.0,1
-35.0,-320.0,-5.0,141.0,219.0,5.0,1
-29.0,-326.0,-7.0,152.0,272.0,16.0,1
-25.0,-338.0,-21.0,144.0,291.0,29.0,1
-28.0,-347.0,-38.0,96.0,272.0,47.0,1
-37.0,-355.0,-63.0,-5.0,235.0,72.0,1
-43.0,-369.0,-81.0,-131.0,202.0,92.0,1
-48.0,-386.0,-86.0,-248.0,210.0,98.0,1
-47.0,-396.0,-91.0,-351.0,225.0,93.0,1
-38.0,-415.0,-109.0,-433.0,253.0,80.0,1
-27.0,-417.0,-136.0,-502.0,291.0,68.0,1
-38.0,-434.0,-134.0,-552.0,312.0,58.0,1
-53.0,-424.0,-155.0,-582.0,265.0,82.0,1
-48.0,-411.0,-177.0,-572.0,121.0,108.0,1
-33.0,-395.0,-174.0,-489.0,-37.0,120.0,1
-6.0,-379.0,-158.0,-335.0,-145.0,124.0,1
21.0,-361.0,-142.0,-113.0,-174.0,112.0,1
33.0,-335.0,-124.0,127.0,-153.0,99.0,1
49.0,-305.0,-115.0,350.0,-115.0,85.0,1
62.0,-269.0,-120.0,551.0,-62.0,77.0,1
76.0,-241.0,-123.0,735.0,3.0,78.0,1
88.0,-205.0,-151.0,882.0,101.0,92.0,1
81.0,-188.0,-155.0,969.0,247.0,109.0,1
79.0,-171.0,-167.0,983.0,445.0,122.0,1
74.0,-150.0,-171.0,937.0,677.0,129.0,1
61.0,-144.0,-164.0,845.0,900.0,128.0,1
49.0,-146.0,-156.0,708.0,1071.0,121.0,1
36.0,-156.0,-137.0,528.0,1171.0,113.0,1
17.0,-175.0,-119.0,316.0,1198.0,102.0,1
4.0,-194.0,-104.0,87.0,1164.0,86.0,1
-10.0,-217.0,-85.0,-137.0,1081.0,69.0,1
-20.0,-235.0,-81.0,-330.0,969.0,52.0,1
-29.0,-250.0,-95.0,-492.0,836.0,35.0,1
-38.0,-264.0,-86.0,-624.0,697.0,25.0,1
-48.0,-273.0,-95.0,-724.0,572.0,21.0,1
-53.0,-280.0,-97.0,-783.0,464.0,27.0,1
-57.0,-285.0,-103.0,-789.0,368.0,37.0,1
-57.0,-286.0,-102.0,-755.0,276.0,54.0,1
-51.0,-279.0,-105.0,-678.0,190.0,69.0,1
-51.0,-273.0,-105.0,-579.0,107.0,78.0,1
-45.0,-260.0,-110.0,-480.0,31.0,79.0,1
-41.0,-249.0,-108.0,-392.0,-33.0,74.0,1
-32.0,-239.0,-112.0,-322.0,-82.0,64.0,1
-28.0,-225.0,-107.0,-269.0,-118.0,56.0,1
-23.0,-206.0,-114.0,-234.0,-139.0,46.0,1
-17.0,-189.0,-122.0,-214.0,-143.0,32.0,1
-14.0,-177.0,-119.0,-205.0,-128.0,11.0,1
-15.0,-161.0,-122.0,-203.0,-98.0,-7.0,1
-8.0,-145.0,-122.0,-210.0,-57.0,-24.0,1
-4.0,-143.0,-122.0,-233.0,-16.0,-45.0,1
0.0,-137.0,-118.0,-266.0,21.0,-72.0,1
3.0,-136.0,-111.0,-307.0,49.0,-97.0,1
-1.0,-142.0,-100.0,-349.0,70.0,-118.0,1
-7.0,-154.0,-88.0,-388.0,75.0,-139.0,1
-11.0,-169.0,-80.0,-423.0,64.0,-154.0,1
-15.0,-184.0,-73.0,-455.0,36.0,-173.0,1
-23.0,-195.0,-60.0,-490.0,-7.0,-188.0,1
-26.0,-211.0,-56.0,-527.0,-59.0,-197.0,1
-27.0,-232.0,-55.0,-567.0,-120.0,-201.0,1
-27.0,-244.0,-48.0,-608.0,-182.0,-200.0,1
-24.0,-250.0,-52.0,-647.0,-242.0,-201.0,1
-16.0,-252.0,-54.0,-680.0,-292.0,-191.0,1
-16.0,-255.0,-52.0,-706.0,-332.0,-175.0,1
-11.0,-254.0,-56.0,-718.0,-369.0,-165.0,1
-6.0,-255.0,-55.0,-729.0,-401.0,-161.0,1
-2.0,-248.0,-58.0,-731.0,-419.0,-167.0,1
3.0,-248.0,-65.0,-722.0,-431.0,-174.0,1
10.0,-247.0,-61.0,-706.0,-433.0,-179.0,1
5.0,-240.0,-59.0,-673.0,-427.0,-192.0,1
3.0,-245.0,-61.0,-627.0,-420.0,-197.0,1
6.0,-248.0,-53.0,-576.0,-412.0,-208.0,1
1.0,-249.0,-54.0,-514.0,-401.0,-221.0,1
4.0,-258.0,-60.0,-451.0,-392.0,-227.0,1
1.0,-260.0,-55.0,-399.0,-376.0,-236.0,1
2.0,-266.0,-51.0,-350.0,-363.0,-239.0,1
1.0,-268.0,-52.0,-303.0,-355.0,-250.0,1
5.0,-275.0,-49.0,-268.0,-350.0,-268.0,1
6.0,-269.0,-47.0,-239.0,-344.0,-283.0,1
8.0,-264.0,-47.0,-212.0,-336.0,-290.0,1
12.0,-260.0,-46.0,-186.0,-336.0,-292.0,1
15.0,-256.0,-47.0,-175.0,-338.0,-288.0,1
13.0,-253.0,-50.0,-173.0,-344.0,-292.0,1
14.0,-247.0,-53.0,-183.0,-350.0,-297.0,1
10.0,-237.0,-50.0,-200.0,-357.0,-292.0,1
12.0,-240.0,-54.0,-210.0,-369.0,-281.0,1
13.0,-240.0,-50.0,-226.0,-377.0,-277.0,1
4.0,-235.0,-56.0,-245.0,-379.0,-262.0,1
2.0,-240.0,-56.0,-260.0,-383.0,-248.0,1
-4.0,-243.0,-57.0,-274.0,-390.0,-245.0,1
-2.0,-249.0,-56.0,-284.0,-393.0,-240.0,1
-10.0,-249.0,-55.0,-296.0,-390.0,-239.0,1
-10.0,-255.0,-55.0,-305.0,-384.0,-237.0,1
-7.0,-257.0,-61.0,-313.0,-370.0,-237.0,1
-10.0,-255.0,-57.0,-323.0,-348.0,-242.0,1
-8.0,-267.0,-57.0,-335.0,-330.0,-245.0,1
-4.0,-264.0,-60.0,-343.0,-322.0,-257.0,1
-3.0,-267.0,-58.0,-348.0,-315.0,-267.0,1
-1.0,-273.0,-58.0,-343.0,-310.0,-274.0,1
-4.0,-279.0,-56.0,-332.0,-305.0,-285.0,1
0.0,-287.0,-53.0,-312.0,-303.0,-289.0,1
0.0,-289.0,-54.0,-282.0,-297.0,-295.0,1
5.0,-292.0,-49.0,-243.0,-292.0,-297.0,1
9.0,-292.0,-47.0,-199.0,-289.0,-300.0,1
16.0,-288.0,-44.0,-146.0,-290.0,-296.0,1
22.0,-287.0,-35.0,-84.0,-298.0,-292.0,1
29.0,-286.0,-32.0,-20.0,-312.0,-295.0,1
31.0,-285.0,-30.0,46.0,-336.0,-298.0,1
32.0,-283.0,-21.0,107.0,-367.0,-304.0,1
29.0,-283.0,-20.0,162.0,-405.0,-307.0,1
31.0,-280.0,-11.0,214.0,-446.0,-314.0,1
27.0,-282.0,-14.0,256.0,-491.0,-316.0,1
17.0,-278.0,-10.0,295.0,-533.0,-314.0,1
11.0,-274.0,-7.0,330.0,-568.0,-307.0,1
1.0,-270.0,-7.0,360.0,-598.0,-297.0,1
-2.0,-266.0,-3.0,384.0,-624.0,-279.0,1
-9.0,-260.0,-3.0,402.0,-648.0,-257.0,1
-15.0,-256.0,-1.0,408.0,-668.0,-227.0,1
-16.0,-251.0,-2.0,401.0,-686.0,-195.0,1
-19.0,-253.0,-6.0,383.0,-707.0,-156.0,1
-26.0,-252.0,-5.0,354.0,-733.0,-111.0,1
-29.0,-251.0,-8.0,318.0,-766.0,-71.0,1
-30.0,-258.0,-14.0,278.0,-806.0,-29.0,1
-24.0,-261.0,-12.0,233.0,-851.0,16.0,1
-17.0,-265.0,-16.0,194.0,-890.0,53.0,1
-9.0,-273.0,-19.0,159.0,-921.0,79.0,1
2.0,-284.0,-25.0,125.0,-936.0,95.0,1
29.0,-287.0,-33.0,90.0,-934.0,98.0,1
37.0,-287.0,-57.0,46.0,-917.0,91.0,1
48.0,-303.0,-54.0,1.0,-887.0,77.0,1
60.0,-306.0,-62.0,-47.0,-843.0,62.0,1
64.0,-308.0,-78.0,-98.0,-786.0,50.0,1
66.0,-308.0,-84.0,-147.0,-716.0,37.0,1
58.0,-300.0,-96.0,-171.0,-634.0,29.0,1
55.0,-295.0,-100.0,-168.0,-552.0,29.0,1
44.0,-292.0,-99.0,-143.0,-487.0,26.0,1
35.0,-290.0,-105.0,-99.0,-447.0,19.0,1
22.0,-280.0,-109.0,-43.0,-434.0,15.0,1
13.0,-278.0,-111.0,15.0,-455.0,13.0,1
-3.0,-271.0,-116.0,64.0,-508.0,13.0,1
-17.0,-261.0,-127.0,94.0,-588.0,25.0,1
-31.0,-250.0,-129.0,111.0,-688.0,47.0,1
-45.0,-241.0,-137.0,122.0,-801.0,75.0,1
-55.0,-229.0,-149.0,126.0,-919.0,106.0,1
-65.0,-215.0,-158.0,120.0,-1020.0,135.0,1
-65.0,-209.0,-164.0,111.0,-1094.0,165.0,1
-61.0,-202.0,-169.0,89.0,-1135.0,183.0,1
-54.0,-192.0,-173.0,46.0,-1143.0,178.0,1
-37.0,-188.0,-183.0,-11.0,-1125.0,168.0,1
-27.0,-184.0,-183.0,-77.0,-1097.0,153.0,1
-15.0,-185.0,-198.0,-148.0,-1067.0,124.0,1
-8.0,-185.0,-208.0,-227.0,-1028.0,86.0,1
-5.0,-185.0,-206.0,-308.0,-976.0,45.0,1
2.0,-192.0,-201.0,-381.0,-913.0,1.0,1
11.0,-206.0,-189.0,-433.0,-840.0,-47.0,1
12.0,-218.0,-183.0,-455.0,-759.0,-89.0,1
8.0,-235.0,-176.0,-466.0,-669.0,-127.0,1
4.0,-255.0,-162.0,-470.0,-574.0,-154.0,1
-1.0,-274.0,-153.0,-472.0,-472.0,-171.0,1
-9.0,-294.0,-140.0,-469.0,-365.0,-183.0,1
-15.0,-310.0,-125.0,-458.0,-257.0,-189.0,1
-15.0,-329.0,-120.0,-436.0,-152.0,-193.0,1
-16.0,-341.0,-121.0,-400.0,-57.0,-203.0,1
-23.0,-348.0,-122.0,-357.0,23.0,-221.0,1
-24.0,-355.0,-124.0,-313.0,82.0,-241.0,1
-25.0,-357.0,-133.0,-271.0,115.0,-261.0,1
-28.0,-350.0,-149.0,-230.0,115.0,-281.0,1
-30.0,-340.0,-155.0,-190.0,95.0,-290.0,1
-30.0,-331.0,-157.0,-139.0,60.0,-295.0,1
-32.0,-314.0,-159.0,-71.0,17.0,-291.0,1
-28.0,-299.0,-153.0,12.0,-24.0,-285.0,1
-28.0,-286.0,-146.0,95.0,-68.0,-268.0,1
-26.0,-275.0,-140.0,174.0,-120.0,-246.0,1
-27.0,-264.0,-129.0,247.0,-170.0,-215.0,1
-21.0,-256.0,-122.0,304.0,-227.0,-190.0,1
-21.0,-246.0,-119.0,347.0,-281.0,-166.0,1
-18.0,-246.0,-109.0,370.0,-334.0,-133.0,1
-20.0,-242.0,-107.0,375.0,-387.0,-99.0,1
-14.0,-244.0,-102.0,364.0,-434.0,-64.0,1
-11.0,-243.0,-100.0,343.0,-469.0,-42.0,1
-11.0,-246.0,-90.0,322.0,-479.0,-28.0,1
-6.0,-245.0,-92.0,299.0,-474.0,-17.0,1
0.0,-242.0,-89.0,276.0,-454.0,-9.0,1
8.0,-241.0,-84.0,256.0,-427.0,-8.0,1
9.0,-234.0,-88.0,240.0,-394.0,-9.0,1
15.0,-235.0,-85.0,223.0,-363.0,-8.0,1
14.0,-222.0,-83.0,210.0,-332.0,-9.0,1
17.0,-217.0,-75.0,199.0,-302.0,-9.0,1
15.0,-208.0,-70.0,190.0,-273.0,-4.0,1
9.0,-202.0,-61.0,186.0,-245.0,4.0,1
6.0,-198.0,-57.0,180.0,-219.0,13.0,1
0.0,-194.0,-51.0,176.0,-196.0,19.0,1
-6.0,-190.0,-50.0,165.0,-178.0,21.0,1
-10.0,-187.0,-43.0,140.0,-163.0,19.0,1
-13.0,-186.0,-41.0,108.0,-157.0,14.0,1
-15.0,-184.0,-42.0,67.0,-156.0,2.0,1
-19.0,-181.0,-36.0,30.0,-162.0,-4.0,1
-26.0,-177.0,-33.0,-2.0,-173.0,-6.0,1
-27.0,-176.0,-29.0,-27.0,-188.0,-4.0,1
-28.0,-175.0,-35.0,-45.0,-205.0,6.0,1
-33.0,-172.0,-33.0,-62.0,-227.0,19.0,1
-27.0,-170.0,-39.0,-68.0,-250.0,36.0,1
-32.0,-166.0,-36.0,-64.0,-271.0,44.0,1
-31.0,-171.0,-31.0,-52.0,-286.0,48.0,1
-29.0,-175.0,-35.0,-44.0,-299.0,56.0,1
-25.0,-179.0,-29.0,-39.0,-303.0,61.0,1
-22.0,-180.0,-29.0,-27.0,-302.0,61.0,1
-23.0,-184.0,-27.0,-17.0,-300.0,63.0,1
-16.0,-184.0,-22.0,-17.0,-300.0,67.0,1
-14.0,-189.0,-23.0,-11.0,-296.0,64.0,1
-11.0,-192.0,-22.0,-6.0,-287.0,63.0,1
-9.0,-191.0,-22.0,-6.0,-276.0,58.0,1
-5.0,-192.0,-16.0,-10.0,-267.0,52.0,1
-4.0,-195.0,-17.0,-18.0,-265.0,47.0,1
2.0,-198.0,-12.0,-27.0,-265.0,35.0,1
6.0,-204.0,-9.0,-30.0,-268.0,20.0,1
3.0,-204.0,-9.0,-22.0,-279.0,6.0,1
2.0,-207.0,-8.0,-11.0,-288.0,-15.0,1
4.0,-212.0,-4.0,7.0,-288.0,-34.0,1
1.0,-220.0,-1.0,24.0,-282.0,-46.0,1
-8.0,-227.0,0.0,35.0,-267.0,-56.0,1
5.0,-235.0,-1.0,44.0,-247.0,-59.0,1
0.0,-246.0,1.0,62.0,-225.0,-61.0,1
-5.0,-251.0,3.0,91.0,-210.0,-64.0,1
-7.0,-253.0,7.0,126.0,-206.0,-60.0,1
-7.0,-260.0,6.0,164.0,-207.0,-57.0,1
-5.0,-265.0,10.0,210.0,-206.0,-49.0,1
-8.0,-267.0,10.0,260.0,-196.0,-41.0,1
-14.0,-273.0,9.0,309.0,-170.0,-41.0,1
-10.0,-272.0,15.0,366.0,-133.0,-57.0,1
-9.0,-271.0,18.0,440.0,-98.0,-83.0,1
-11.0,-267.0,18.0,533.0,-74.0,-124.0,1
-15.0,-265.0,13.0,643.0,-64.0,-159.0,1
-18.0,-255.0,5.0,758.0,-63.0,-180.0,1
-24.0,-242.0,-3.0,861.0,-70.0,-183.0,1
-21.0,-225.0,-16.0,940.0,-76.0,-172.0,1
-28.0,-209.0,-23.0,996.0,-73.0,-151.0,1
-32.0,-192.0,-29.0,1027.0,-63.0,-123.0,1
-36.0,-183.0,-29.0,1038.0,-51.0,-91.0,1
-47.0,-171.0,-35.0,1038.0,-30.0,-64.0,1
-53.0,-165.0,-25.0,1023.0,-7.0,-37.0,1
-57.0,-156.0,-33.0,985.0,13.0,-13.0,1
-57.0,-143.0,-35.0,924.0,23.0,13.0,1
-50.0,-122.0,-43.0,842.0,21.0,41.0,1
-41.0,-98.0,-56.0,736.0,10.0,75.0,1
-28.0,-78.0,-85.0,619.0,-11.0,123.0,1
-11.0,-55.0,-117.0,506.0,-33.0,176.0,1
4.0,-28.0,-150.0,403.0,-46.0,235.0,1
18.0,-3.0,-176.0,302.0,-42.0,296.0,1
22.0,26.0,-197.0,202.0,-31.0,353.0,1
32.0,41.0,-217.0,107.0,-9.0,406.0,1
34.0,53.0,-223.0,24.0,22.0,451.0,1
33.0,57.0,-229.0,-43.0,54.0,489.0,1
33.0,47.0,-240.0,-92.0,63.0,518.0,1
21.0,22.0,-237.0,-117.0,33.0,525.0,1
7.0,-7.0,-235.0,-132.0,-52.0,514.0,1
-15.0,-41.0,-232.0,-156.0,-208.0,506.0,1
-39.0,-71.0,-222.0,-200.0,-436.0,503.0,1
-60.0,-116.0,-217.0,-279.0,-727.0,522.0,1
-80.0,-166.0,-210.0,-383.0,-1049.0,559.0,1
-85.0,-228.0,-184.0,-452.0,-1351.0,605.0,1
-85.0,-284.0,-177.0,-453.0,-1598.0,635.0,1
-71.0,-339.0,-139.0,-373.0,-1772.0,627.0,1
-40.0,-381.0,-83.0,-182.0,-1844.0,578.0,1
-15.0,-399.0,-32.0,122.0,-1858.0,507.0,1
2.0,-404.0,11.0,509.0,-1852.0,452.0,1
32.0,-399.0,31.0,947.0,-1841.0,419.0,1
71.0,-382.0,29.0,1402.0,-1815.0,405.0,1
113.0,-362.0,10.0,1809.0,-1757.0,403.0,1
152.0,-332.0,-29.0,2101.0,-1672.0,400.0,1
172.0,-311.0,-61.0,2221.0,-1554.0,401.0,1
191.0,-273.0,-94.0,2146.0,-1368.0,421.0,1
208.0,-244.0,-92.0,1941.0,-1078.0,463.0,1
198.0,-202.0,-78.0,1730.0,-715.0,515.0,1
186.0,-169.0,-56.0,1567.0,-388.0,557.0,1
165.0,-132.0,-46.0,1421.0,-174.0,572.0,1
139.0,-96.0,-41.0,1228.0,-84.0,550.0,1
103.0,-68.0,-42.0,947.0,-92.0,497.0,1
57.0,-50.0,-56.0,577.0,-161.0,421.0,1
21.0,-51.0,-77.0,163.0,-257.0,334.0,1
-19.0,-68.0,-108.0,-266.0,-364.0,247.0,1
-59.0,-116.0,-127.0,-692.0,-504.0,149.0,1
-105.0,-191.0,-118.0,-985.0,-669.0,39.0,1
-144.0,-276.0,-101.0,-1055.0,-862.0,-79.0,1
-171.0,-362.0,-84.0,-917.0,-1070.0,-178.0,1
-189.0,-431.0,-65.0,-646.0,-1248.0,-251.0,1
-197.0,-479.0,-54.0,-266.0,-1353.0,-271.0,1
-195.0,-515.0,-46.0,178.0,-1397.0,-244.0,1
-177.0,-541.0,-43.0,637.0,-1404.0,-200.0,1
-154.0,-536.0,-53.0,1095.0,-1403.0,-158.0,1
-124.0,-502.0,-71.0,1524.0,-1392.0,-85.0,1
-82.0,-459.0,-81.0,1860.0,-1375.0,-14.0,1
-45.0,-417.0,-70.0,2105.0,-1361.0,6.0,1
-9.0,-366.0,-52.0,2275.0,-1319.0,-10.0,1
17.0,-309.0,-46.0,2372.0,-1243.0,-39.0,1
39.0,-249.0,-36.0,2362.0,-1147.0,-56.0,1
71.0,-196.0,-39.0,2227.0,-1058.0,-66.0,1
106.0,-160.0,-25.0,1956.0,-993.0,-87.0,1
129.0,-150.0,-2.0,1624.0,-964.0,-125.0,1
142.0,-167.0,13.0,1341.0,-945.0,-164.0,1
155.0,-194.0,-9.0,1184.0,-904.0,-205.0,1
149.0,-227.0,-39.0,1152.0,-810.0,-248.0,1
135.0,-262.0,-53.0,1231.0,-689.0,-304.0,1
117.0,-281.0,-52.0,1427.0,-583.0,-381.0,1
93.0,-287.0,-48.0,1722.0,-443.0,-453.0,1
74.0,-269.0,-42.0,2034.0,-255.0,-505.0,1
56.0,-227.0,-46.0,2305.0,-59.0,-538.0,1
30.0,-164.0,-55.0,2395.0,111.0,-553.0,1
11.0,-103.0,-50.0,2255.0,187.0,-524.0,1
-4.0,-55.0,-2.0,1970.0,197.0,-448.0,1
-8.0,-23.0,50.0,1714.0,147.0,-387.0,1
-12.0,14.0,84.0,1543.0,120.0,-332.0,1
-29.0,45.0,117.0,1391.0,91.0,-258.0,1
-69.0,42.0,150.0,1307.0,-12.0,-150.0,1
-76.0,30.0,155.0,1352.0,-193.0,8.0,1
-76.0,14.0,147.0,1491.0,-402.0,146.0,1
-64.0,1.0,96.0,1650.0,-561.0,238.0,1
-68.0,-21.0,66.0,1700.0,-659.0,265.0,1
-56.0,-55.0,34.0,1643.0,-694.0,296.0,1
-53.0,-101.0,25.0,1547.0,-697.0,339.0,1
-60.0,-134.0,18.0,1499.0,-660.0,396.0,1
-53.0,-163.0,10.0,1519.0,-562.0,452.0,1
-53.0,-173.0,4.0,1595.0,-386.0,486.0,1
-28.0,-168.0,-16.0,1719.0,-185.0,507.0,1
-13.0,-151.0,-33.0,1845.0,-17.0,502.0,1
-5.0,-117.0,-33.0,1938.0,77.0,474.0,1
-3.0,-75.0,-33.0,1984.0,107.0,420.0,1
0.0,-48.0,-26.0,1983.0,114.0,356.0,1
-1.0,-17.0,-15.0,1965.0,117.0,281.0,1
-5.0,10.0,4.0,1946.0,121.0,224.0,1
-8.0,17.0,7.0,1913.0,128.0,202.0,1
-23.0,19.0,10.0,1860.0,142.0,203.0,1
-36.0,12.0,17.0,1794.0,171.0,235.0,1
-63.0,5.0,50.0,1735.0,232.0,288.0,1
-80.0,-3.0,90.0,1716.0,282.0,386.0,1
-81.0,-24.0,116.0,1724.0,240.0,501.0,1
-73.0,-52.0,94.0,1742.0,107.0,606.0,1
-68.0,-76.0,54.0,1782.0,-60.0,652.0,1
-72.0,-85.0,32.0,1842.0,-200.0,615.0,1
-74.0,-92.0,12.0,1900.0,-301.0,530.0,1
-68.0,-90.0,-9.0,1916.0,-390.0,438.0,1
-56.0,-78.0,-39.0,1878.0,-435.0,342.0,1
-51.0,-61.0,-67.0,1758.0,-424.0,252.0,1
-37.0,-34.0,-97.0,1609.0,-397.0,168.0,1
-16.0,-1.0,-135.0,1459.0,-350.0,104.0,1
10.0,28.0,-120.0,1324.0,-281.0,78.0,1
31.0,58.0,-91.0,1258.0,-256.0,86.0,1
49.0,80.0,-74.0,1254.0,-255.0,128.0,1
62.0,98.0,-72.0,1277.0,-256.0,194.0,1
81.0,105.0,-57.0,1278.0,-261.0,274.0,1
87.0,105.0,-42.0,1242.0,-229.0,372.0,1
87.0,86.0,-27.0,1168.0,-146.0,472.0,1
80.0,76.0,-37.0,1093.0,-32.0,546.0,1
91.0,69.0,-52.0,1003.0,108.0,587.0,1
97.0,49.0,-28.0,911.0,225.0,613.0,1
100.0,29.0,-4.0,852.0,301.0,610.0,1
88.0,19.0,3.0,818.0,357.0,581.0,1
91.0,11.0,6.0,807.0,407.0,522.0,1
88.0,24.0,21.0,828.0,465.0,435.0,1
79.0,30.0,39.0,896.0,532.0,353.0,1
65.0,46.0,42.0,955.0,585.0,279.0,1
47.0,81.0,44.0,999.0,633.0,226.0,1
58.0,58.0,121.0,1047.0,669.0,197.0,1
46.0,-23.0,306.0,1229.0,668.0,141.0,1
64.0,-207.0,674.0,1619.0,705.0,74.0,1
50.0,-559.0,1397.0,2318.0,798.0,3.0,1
-89.0,-1193.0,2539.0,3479.0,788.0,-33.0,1
36.0,-2299.0,3296.0,5211.0,669.0,-65.0,1
-363.0,-3094.0,3332.0,6713.0,438.0,-256.0,1
-753.0,-3660.0,2503.0,6718.0,414.0,-33.0,1
-1162.0,-3461.0,1335.0,4558.0,1254.0,-42.0,1
-1537.0,-2834.0,880.0,2085.0,1898.0,280.0,1
-1455.0,-2356.0,553.0,2033.0,1225.0,860.0,1
-1132.0,-1782.0,340.0,3838.0,-4.0,1223.0,1
-845.0,-1097.0,123.0,5583.0,-1370.0,1402.0,1
-580.0,-387.0,42.0,6052.0,-2642.0,1460.0,1
-341.0,364.0,-15.0,5198.0,-3261.0,1330.0,1
-157.0,1128.0,15.0,3324.0,-3134.0,1185.0,1
-22.0,1471.0,4.0,554.0,-2844.0,1117.0,1
231.0,1260.0,-24.0,-1400.0,-2893.0,1084.0,1
300.0,1043.0,-88.0,-1141.0,-3069.0,573.0,1
237.0,882.0,-164.0,551.0,-3126.0,-331.0,1
180.0,680.0,-295.0,2418.0,-2991.0,-1164.0,1
180.0,464.0,-372.0,3661.0,-2662.0,-1591.0,1
193.0,278.0,-351.0,4076.0,-2380.0,-1713.0,1
261.0,123.0,-332.0,3549.0,-2146.0,-1678.0,1
340.0,-3.0,-305.0,2070.0,-1950.0,-1689.0,1
381.0,-123.0,-231.0,594.0,-1992.0,-1725.0,1
376.0,-250.0,-193.0,74.0,-2237.0,-1734.0,1
279.0,-379.0,-190.0,342.0,-2338.0,-1703.0,1
159.0,-513.0,-208.0,956.0,-2303.0,-1602.0,1
53.0,-620.0,-221.0,1583.0,-2230.0,-1459.0,1
-11.0,-683.0,-191.0,2140.0,-2151.0,-1282.0,1
-83.0,-671.0,-164.0,2670.0,-2004.0,-1091.0,1
-117.0,-582.0,-128.0,3138.0,-1820.0,-953.0,1
-82.0,-406.0,-109.0,3490.0,-1670.0,-982.0,1
-98.0,-178.0,-64.0,3663.0,-1562.0,-1160.0,1
-61.0,62.0,14.0,3631.0,-1528.0,-1300.0,1
-41.0,316.0,76.0,3452.0,-1522.0,-1405.0,1
69.0,532.0,122.0,3075.0,-1526.0,-1335.0,1
186.0,693.0,204.0,2528.0,-1472.0,-1152.0,1
332.0,762.0,278.0,1906.0,-1280.0,-901.0,1
548.0,750.0,351.0,1204.0,-928.0,-660.0,1
788.0,696.0,439.0,485.0,-482.0,-523.0,1
937.0,605.0,496.0,-158.0,79.0,-530.0,1
758.0,518.0,554.0,-648.0,790.0,-700.0,1
381.0,432.0,529.0,-1005.0,1439.0,-736.0,1
171.0,275.0,456.0,-1279.0,1847.0,-540.0,1
-7.0,104.0,355.0,-1435.0,2035.0,-327.0,1
-160.0,-67.0,287.0,-1546.0,2039.0,-172.0,1
-271.0,-205.0,263.0,-1628.0,1913.0,-77.0,1
-341.0,-312.0,270.0,-1650.0,1699.0,-64.0,1
-351.0,-358.0,284.0,-1557.0,1409.0,-145.0,1
-332.0,-335.0,296.0,-1264.0,1096.0,-308.0,1
-289.0,-322.0,293.0,-807.0,816.0,-465.0,1
-246.0,-298.0,317.0,-400.0,558.0,-547.0,1
-189.0,-275.0,350.0,-202.0,299.0,-566.0,1
-116.0,-262.0,372.0,-234.0,126.0,-556.0,1
-60.0,-263.0,356.0,-389.0,51.0,-538.0,1
-35.0,-249.0,287.0,-570.0,4.0,-491.0,1
-33.0,-225.0,216.0,-687.0,-76.0,-383.0,1
-50.0,-188.0,155.0,-641.0,-225.0,-198.0,1
-70.0,-136.0,136.0,-422.0,-402.0,29.0,1
-89.0,-66.0,153.0,-100.0,-525.0,213.0,1
-123.0,12.0,182.0,205.0,-566.0,326.0,1
-128.0,76.0,210.0,360.0,-570.0,373.0,1
-123.0,120.0,233.0,347.0,-560.0,372.0,1
-100.0,139.0,245.0,229.0,-533.0,357.0,1
-71.0,144.0,245.0,82.0,-500.0,342.0,1
-35.0,144.0,229.0,-43.0,-478.0,332.0,1
9.0,133.0,208.0,-157.0,-463.0,320.0,1
41.0,115.0,197.0,-278.0,-446.0,311.0,1
68.0,104.0,185.0,-449.0,-417.0,330.0,1
84.0,92.0,173.0,-718.0,-381.0,386.0,1
80.0,71.0,188.0,-1036.0,-363.0,451.0,1
72.0,36.0,191.0,-1282.0,-390.0,503.0,1
77.0,-12.0,184.0,-1361.0,-475.0,535.0,1
79.0,-50.0,141.0,-1264.0,-582.0,534.0,1
65.0,-84.0,108.0,-1078.0,-642.0,517.0,1
60.0,-115.0,92.0,-862.0,-627.0,501.0,1
54.0,-135.0,98.0,-659.0,-542.0,484.0,1
50.0,-138.0,124.0,-483.0,-400.0,462.0,1
40.0,-131.0,148.0,-327.0,-252.0,455.0,1
46.0,-112.0,172.0,-202.0,-126.0,462.0,1
45.0,-85.0,198.0,-110.0,-30.0,476.0,1
55.0,-53.0,216.0,-45.0,24.0,513.0,1
71.0,-18.0,232.0,5.0,65.0,551.0,1
87.0,7.0,249.0,49.0,113.0,564.0,1
108.0,26.0,257.0,89.0,163.0,552.0,1
130.0,34.0,262.0,119.0,230.0,512.0,1
127.0,42.0,259.0,130.0,296.0,468.0,1
130.0,42.0,245.0,103.0,337.0,422.0,1
107.0,64.0,253.0,42.0,338.0,367.0,1
78.0,90.0,166.0,-120.0,273.0,338.0,1
156.0,108.0,94.0,-442.0,191.0,314.0,1
217.0,98.0,10.0,-872.0,150.0,202.0,1
250.0,47.0,13.0,-1264.0,135.0,8.0,1
130.0,-37.0,81.0,-1361.0,184.0,-142.0,1
23.0,-175.0,174.0,-1227.0,107.0,-101.0,1
-16.0,-329.0,272.0,-825.0,-113.0,1.0,1
-11.0,-470.0,350.0,-188.0,-263.0,14.0,1
-9.0,-551.0,397.0,494.0,-174.0,-72.0,1
16.0,-569.0,421.0,967.0,50.0,-162.0,1
64.0,-517.0,394.0,1233.0,227.0,-236.0,1
74.0,-395.0,364.0,1374.0,288.0,-339.0,1
63.0,-248.0,330.0,1466.0,273.0,-451.0,1
68.0,-103.0,317.0,1520.0,234.0,-509.0,1
81.0,13.0,280.0,1480.0,180.0,-496.0,1
111.0,119.0,240.0,1250.0,85.0,-435.0,1
135.0,188.0,206.0,849.0,-95.0,-351.0,1
136.0,211.0,157.0,416.0,-342.0,-253.0,1
112.0,198.0,117.0,70.0,-562.0,-172.0,1
100.0,157.0,79.0,-126.0,-664.0,-120.0,1
88.0,113.0,60.0,-167.0,-641.0,-98.0,1
81.0,63.0,59.0,-130.0,-527.0,-112.0,1
75.0,26.0,72.0,-78.0,-369.0,-159.0,1
72.0,-3.0,103.0,-34.0,-208.0,-215.0,1
60.0,-35.0,129.0,3.0,-48.0,-261.0,1
47.0,-55.0,148.0,27.0,106.0,-277.0,1
49.0,-71.0,161.0,23.0,244.0,-262.0,1
47.0,-87.0,168.0,-23.0,351.0,-227.0,1
46.0,-94.0,173.0,-104.0,416.0,-167.0,1
48.0,-91.0,170.0,-186.0,456.0,-105.0,1
50.0,-76.0,171.0,-249.0,484.0,-51.0,1
52.0,-60.0,176.0,-284.0,501.0,-15.0,1
59.0,-48.0,169.0,-285.0,513.0,7.0,1
62.0,-39.0,169.0,-254.0,519.0,19.0,1
63.0,-30.0,172.0,-200.0,521.0,23.0,1
61.0,-31.0,176.0,-133.0,519.0,29.0,1
63.0,-40.0,184.0,-63.0,508.0,31.0,1
59.0,-50.0,201.0,7.0,488.0,32.0,1
51.0,-57.0,209.0,80.0,456.0,39.0,1
41.0,-69.0,225.0,156.0,407.0,47.0,1
35.0,-81.0,236.0,234.0,345.0,50.0,1
24.0,-90.0,245.0,301.0,271.0,42.0,1
16.0,-88.0,252.0,350.0,190.0,32.0,1
2.0,-99.0,262.0,384.0,103.0,13.0,1
9.0,-81.0,265.0,400.0,17.0,-18.0,1
20.0,-83.0,266.0,400.0,-60.0,-73.0,1
27.0,-67.0,264.0,362.0,-104.0,-126.0,1
42.0,-55.0,259.0,302.0,-116.0,-165.0,1
50.0,-35.0,256.0,241.0,-96.0,-181.0,1
62.0,-16.0,252.0,179.0,-60.0,-175.0,1
67.0,0.0,246.0,125.0,-19.0,-149.0,1
63.0,10.0,247.0,87.0,18.0,-105.0,1
48.0,12.0,240.0,62.0,45.0,-48.0,1
28.0,8.0,245.0,49.0,54.0,9.0,1
6.0,-2.0,253.0,50.0,45.0,58.0,1
4.0,-14.0,250.0,56.0,30.0,92.0,1
-5.0,-24.0,242.0,55.0,26.0,102.0,1
-1.0,-43.0,226.0,42.0,32.0,98.0,1
6.0,-54.0,206.0,11.0,35.0,74.0,1
21.0,-67.0,181.0,-9.0,33.0,38.0,1
34.0,-79.0,157.0,33.0,13.0,-3.0,1
44.0,-79.0,144.0,181.0,-40.0,-39.0,1
33.0,-63.0,127.0,415.0,-118.0,-53.0,1
41.0,-45.0,111.0,661.0,-189.0,-39.0,1
58.0,-27.0,115.0,850.0,-212.0,-36.0,1
66.0,-5.0,119.0,945.0,-168.0,-58.0,1
83.0,6.0,151.0,968.0,-92.0,-99.0,1
93.0,17.0,170.0,929.0,-63.0,-130.0,1
91.0,36.0,198.0,845.0,-106.0,-143.0,1
99.0,49.0,220.0,743.0,-169.0,-128.0,1
99.0,63.0,247.0,646.0,-171.0,-94.0,1
92.0,81.0,261.0,568.0,-68.0,-50.0,1
85.0,86.0,264.0,493.0,103.0,-16.0,1
68.0,84.0,257.0,378.0,282.0,6.0,1
49.0,71.0,254.0,200.0,402.0,15.0,1
41.0,50.0,255.0,-26.0,437.0,20.0,1
48.0,15.0,260.0,-230.0,421.0,19.0,1
57.0,-13.0,267.0,-374.0,409.0,4.0,1
62.0,-31.0,267.0,-465.0,410.0,-7.0,1
59.0,-49.0,263.0,-522.0,415.0,9.0,1
53.0,-61.0,262.0,-557.0,414.0,55.0,1
42.0,-74.0,262.0,-551.0,396.0,103.0,1
30.0,-91.0,252.0,-480.0,340.0,126.0,1
27.0,-91.0,230.0,-328.0,264.0,122.0,1
21.0,-83.0,208.0,-121.0,215.0,106.0,1
18.0,-66.0,192.0,94.0,217.0,91.0,1
19.0,-46.0,181.0,266.0,247.0,68.0,1
23.0,-21.0,177.0,375.0,285.0,33.0,1
28.0,8.0,171.0,412.0,317.0,-3.0,1
30.0,21.0,172.0,379.0,333.0,-29.0,1
33.0,31.0,176.0,286.0,315.0,-37.0,1
35.0,34.0,187.0,164.0,241.0,-25.0,1
36.0,29.0,198.0,49.0,170.0,-8.0,1
28.0,22.0,214.0,-16.0,138.0,14.0,1
18.0,14.0,231.0,-34.0,125.0,39.0,1
8.0,11.0,244.0,-27.0,107.0,54.0,1
-3.0,9.0,245.0,-27.0,84.0,65.0,1
-14.0,16.0,246.0,-53.0,57.0,75.0,1
-14.0,15.0,241.0,-104.0,23.0,85.0,1
-15.0,19.0,242.0,-166.0,-15.0,87.0,1
-15.0,15.0,242.0,-220.0,-58.0,81.0,1
-12.0,9.0,238.0,-256.0,-100.0,73.0,1
-8.0,5.0,236.0,-269.0,-138.0,61.0,1
4.0,-3.0,229.0,-260.0,-167.0,50.0,1
12.0,-11.0,222.0,-235.0,-183.0,35.0,1
18.0,-16.0,212.0,-193.0,-190.0,20.0,1
24.0,-23.0,213.0,-132.0,-191.0,11.0,1
28.0,-26.0,203.0,-59.0,-185.0,9.0,1
34.0,-30.0,198.0,8.0,-168.0,5.0,1
37.0,-32.0,188.0,34.0,-147.0,4.0,1
39.0,-34.0,181.0,25.0,-135.0,12.0,1
45.0,-46.0,194.0,12.0,-137.0,16.0,1
43.0,-56.0,200.0,34.0,-156.0,12.0,1
49.0,-67.0,203.0,104.0,-187.0,-2.0,1
57.0,-72.0,203.0,204.0,-205.0,-21.0,1
60.0,-67.0,190.0,323.0,-190.0,-51.0,1
57.0,-56.0,187.0,438.0,-136.0,-77.0,1
64.0,-40.0,183.0,522.0,-66.0,-100.0,1
64.0,-16.0,192.0,558.0,-11.0,-121.0,1
70.0,8.0,205.0,534.0,26.0,-118.0,1
78.0,26.0,216.0,451.0,49.0,-102.0,1
87.0,34.0,227.0,331.0,60.0,-78.0,1
93.0,46.0,244.0,203.0,60.0,-54.0,1
90.0,43.0,244.0,80.0,56.0,-37.0,1
88.0,41.0,237.0,-35.0,60.0,-20.0,1
83.0,40.0,233.0,-150.0,77.0,-9.0,1
71.0,30.0,233.0,-270.0,111.0,-7.0,1
64.0,22.0,229.0,-386.0,159.0,-2.0,1
61.0,10.0,235.0,-486.0,216.0,10.0,1
52.0,7.0,237.0,-560.0,257.0,33.0,1
49.0,-3.0,240.0,-611.0,262.0,50.0,1
50.0,1.0,239.0,-645.0,232.0,63.0,1
48.0,3.0,243.0,-658.0,185.0,68.0,1
49.0,0.0,235.0,-652.0,132.0,72.0,1
47.0,3.0,230.0,-630.0,74.0,80.0,1
47.0,2.0,228.0,-608.0,26.0,90.0,1
45.0,1.0,223.0,-604.0,-10.0,93.0,1
43.0,-5.0,224.0,-613.0,-23.0,89.0,1
43.0,-13.0,218.0,-623.0,-19.0,76.0,1
39.0,-23.0,210.0,-614.0,2.0,53.0,1
32.0,-35.0,206.0,-565.0,28.0,26.0,1
29.0,-53.0,197.0,-479.0,44.0,0.0,1
23.0,-63.0,197.0,-360.0,53.0,-20.0,1
14.0,-72.0,197.0,-219.0,51.0,-36.0,1
11.0,-73.0,204.0,-69.0,35.0,-47.0,1
10.0,-66.0,201.0,75.0,7.0,-52.0,1
13.0,-57.0,209.0,199.0,-22.0,-53.0,1
14.0,-44.0,201.0,274.0,-33.0,-54.0,1
13.0,-35.0,189.0,278.0,-10.0,-50.0,1
12.0,-28.0,183.0,216.0,28.0,-43.0,1
14.0,-32.0,187.0,150.0,65.0,-30.0,1
13.0,-43.0,200.0,164.0,82.0,-18.0,1
16.0,-54.0,216.0,286.0,64.0,-13.0,1
26.0,-51.0,214.0,461.0,-5.0,-18.0,1
35.0,-50.0,196.0,609.0,-93.0,-32.0,1
40.0,-42.0,169.0,700.0,-146.0,-41.0,1
39.0,-21.0,151.0,726.0,-129.0,-40.0,1
34.0,7.0,154.0,681.0,-69.0,-31.0,1
34.0,19.0,172.0,570.0,-7.0,-24.0,1
29.0,34.0,193.0,417.0,41.0,-28.0,1
42.0,38.0,207.0,261.0,69.0,-32.0,1
46.0,39.0,228.0,112.0,92.0,-33.0,1
52.0,38.0,246.0,-33.0,90.0,-32.0,1
59.0,30.0,259.0,-159.0,66.0,-28.0,1
66.0,23.0,257.0,-268.0,42.0,-17.0,1
70.0,15.0,254.0,-350.0,41.0,-6.0,1
64.0,10.0,255.0,-406.0,51.0,6.0,1
62.0,6.0,257.0,-449.0,60.0,20.0,1
62.0,-2.0,258.0,-485.0,63.0,39.0,1
57.0,-12.0,260.0,-503.0,67.0,59.0,1
54.0,-22.0,256.0,-508.0,74.0,78.0,1
48.0,-24.0,250.0,-521.0,85.0,93.0,1
50.0,-26.0,244.0,-545.0,98.0,105.0,1
49.0,-17.0,237.0,-579.0,104.0,114.0,1
47.0,-12.0,234.0,-616.0,107.0,122.0,1
41.0,-2.0,234.0,-652.0,101.0,129.0,1
40.0,1.0,227.0,-673.0,85.0,137.0,1
41.0,2.0,226.0,-672.0,60.0,141.0,1
39.0,1.0,217.0,-648.0,28.0,137.0,1
38.0,-2.0,214.0,-592.0,-8.0,120.0,1
44.0,-3.0,204.0,-507.0,-38.0,92.0,1
47.0,-8.0,198.0,-402.0,-55.0,56.0,1
48.0,-11.0,199.0,-287.0,-59.0,20.0,1
49.0,-19.0,198.0,-186.0,-59.0,-6.0,1
50.0,-24.0,197.0,-121.0,-55.0,-26.0,1
41.0,-32.0,195.0,-94.0,-40.0,-48.0,1
35.0,-46.0,201.0,-95.0,-15.0,-69.0,1
33.0,-57.0,200.0,-94.0,19.0,-86.0,1
19.0,-63.0,200.0,-63.0,54.0,-100.0,1
13.0,-70.0,201.0,4.0,81.0,-107.0,1
11.0,-68.0,198.0,105.0,96.0,-112.0,1
11.0,-63.0,199.0,222.0,100.0,-120.0,1
17.0,-54.0,195.0,341.0,94.0,-127.0,1
20.0,-43.0,201.0,444.0,84.0,-132.0,1
30.0,-29.0,199.0,521.0,66.0,-130.0,1
37.0,-18.0,205.0,566.0,48.0,-118.0,1
41.0,-6.0,207.0,571.0,37.0,-103.0,1
40.0,7.0,194.0,526.0,40.0,-89.0,1
35.0,10.0,190.0,441.0,51.0,-77.0,1
32.0,5.0,193.0,356.0,65.0,-63.0,1
25.0,-6.0,205.0,312.0,90.0,-51.0,1
28.0,-25.0,224.0,347.0,108.0,-39.0,1
34.0,-38.0,235.0,461.0,91.0,-27.0,1
43.0,-49.0,224.0,592.0,36.0,-25.0,1
46.0,-40.0,208.0,685.0,-28.0,-28.0,1
42.0,-25.0,190.0,719.0,-65.0,-24.0,1
42.0,-9.0,185.0,702.0,-60.0,-19.0,1
30.0,8.0,192.0,656.0,-16.0,-28.0,1
26.0,18.0,203.0,593.0,47.0,-27.0,1
29.0,28.0,221.0,501.0,101.0,-38.0,1
25.0,31.0,229.0,398.0,122.0,-48.0,1
37.0,29.0,236.0,275.0,106.0,-48.0,1
45.0,27.0,246.0,143.0,67.0,-49.0,1
49.0,23.0,247.0,6.0,29.0,-49.0,1
51.0,22.0,247.0,-122.0,6.0,-37.0,1
49.0,19.0,252.0,-234.0,9.0,-16.0,1
49.0,12.0,249.0,-328.0,28.0,4.0,1
45.0,7.0,242.0,-402.0,48.0,27.0,1
46.0,1.0,240.0,-460.0,56.0,45.0,1
47.0,-5.0,238.0,-505.0,54.0,54.0,1
44.0,-8.0,234.0,-535.0,48.0,59.0,1
43.0,-11.0,234.0,-551.0,46.0,64.0,1
44.0,-11.0,230.0,-559.0,44.0,66.0,1
40.0,-9.0,225.0,-567.0,43.0,69.0,1
40.0,-10.0,219.0,-580.0,37.0,75.0,1
42.0,-15.0,216.0,-594.0,26.0,79.0,1
39.0,-16.0,211.0,-602.0,11.0,79.0,1
45.0,-23.0,208.0,-597.0,-4.0,76.0,1
45.0,-24.0,207.0,-576.0,-23.0,66.0,1
42.0,-24.0,214.0,-534.0,-42.0,53.0,1
46.0,-29.0,213.0,-477.0,-61.0,37.0,1
47.0,-29.0,211.0,-417.0,-67.0,16.0,1
47.0,-26.0,216.0,-358.0,-60.0,-3.0,1
44.0,-27.0,213.0,-299.0,-47.0,-21.0,1
39.0,-28.0,220.0,-241.0,-33.0,-32.0,1
40.0,-34.0,222.0,-181.0,-25.0,-40.0,1
30.0,-33.0,221.0,-123.0,-23.0,-44.0,1
26.0,-34.0,223.0,-61.0,-23.0,-50.0,1
23.0,-34.0,218.0,0.0,-28.0,-56.0,1
19.0,-34.0,220.0,63.0,-31.0,-63.0,1
23.0,-30.0,217.0,122.0,-29.0,-69.0,1
20.0,-27.0,213.0,173.0,-21.0,-73.0,1
25.0,-25.0,217.0,214.0,-8.0,-75.0,1
24.0,-17.0,217.0,241.0,4.0,-75.0,1
30.0,-12.0,216.0,245.0,16.0,-75.0,1
31.0,-8.0,215.0,231.0,27.0,-75.0,1
29.0,-4.0,215.0,192.0,34.0,-67.0,1
26.0,1.0,218.0,141.0,34.0,-52.0,1
33.0,-1.0,217.0,84.0,28.0,-33.0,1
38.0,-2.0,215.0,30.0,20.0,-21.0,1
43.0,-7.0,214.0,-17.0,10.0,-13.0,1
44.0,-5.0,215.0,-57.0,-5.0,-5.0,1
47.0,-10.0,212.0,-86.0,-25.0,3.0,1
45.0,-12.0,210.0,-106.0,-45.0,6.0,1
43.0,-14.0,208.0,-119.0,-63.0,6.0,1
44.0,-18.0,210.0,-118.0,-72.0,1.0,1
40.0,-20.0,207.0,-109.0,-75.0,-1.0,1
39.0,-23.0,201.0,-86.0,-70.0,-4.0,1
38.0,-23.0,199.0,-54.0,-56.0,-9.0,1
36.0,-25.0,198.0,-17.0,-37.0,-14.0,1
39.0,-31.0,197.0,24.0,-21.0,-15.0,1
39.0,-27.0,195.0,70.0,-8.0,-14.0,1
40.0,-28.0,198.0,118.0,1.0,-8.0,1
43.0,-22.0,194.0,164.0,6.0,-1.0,1
43.0,-20.0,195.0,195.0,18.0,10.0,1
46.0,-18.0,194.0,199.0,30.0,21.0,1
53.0,-17.0,191.0,179.0,36.0,28.0,1
51.0,-18.0,194.0,147.0,22.0,29.0,1
48.0,-25.0,201.0,130.0,-4.0,36.0,1
49.0,-42.0,210.0,159.0,-29.0,54.0,1
52.0,-53.0,207.0,246.0,-48.0,65.0,1
52.0,-60.0,207.0,391.0,-68.0,62.0,1
54.0,-56.0,201.0,574.0,-86.0,47.0,1
54.0,-49.0,193.0,757.0,-85.0,30.0,1
46.0,-25.0,192.0,894.0,-46.0,12.0,1
44.0,1.0,194.0,960.0,24.0,-7.0,1
42.0,23.0,195.0,933.0,98.0,-35.0,1
44.0,51.0,203.0,812.0,159.0,-58.0,1
51.0,60.0,218.0,613.0,189.0,-70.0,1
58.0,59.0,228.0,380.0,180.0,-73.0,1
64.0,49.0,242.0,166.0,143.0,-63.0,1
69.0,36.0,249.0,1.0,102.0,-44.0,1
61.0,17.0,253.0,-122.0,78.0,-20.0,1
63.0,8.0,246.0,-217.0,68.0,5.0,1
54.0,2.0,254.0,-302.0,69.0,27.0,1
48.0,-3.0,254.0,-376.0,70.0,40.0,1
39.0,-1.0,256.0,-438.0,61.0,48.0,1
35.0,-7.0,252.0,-486.0,53.0,52.0,1
30.0,-4.0,246.0,-518.0,46.0,50.0,1
31.0,-2.0,239.0,-523.0,41.0,46.0,1
31.0,-6.0,231.0,-499.0,37.0,38.0,1
32.0,-6.0,222.0,-452.0,31.0,32.0,1
32.0,-6.0,212.0,-399.0,21.0,21.0,1
43.0,-7.0,204.0,-349.0,10.0,13.0,1
39.0,-1.0,202.0,-311.0,1.0,10.0,1
39.0,0.0,199.0,-295.0,-3.0,14.0,1
36.0,-1.0,203.0,-296.0,-3.0,19.0,1
43.0,-8.0,202.0,-308.0,-4.0,26.0,1
36.0,-12.0,220.0,-316.0,-5.0,30.0,1
36.0,-21.0,209.0,-311.0,-10.0,33.0,1
31.0,-24.0,213.0,-287.0,-14.0,33.0,1
31.0,-32.0,207.0,-245.0,-18.0,30.0,1
28.0,-35.0,207.0,-177.0,-14.0,22.0,1
24.0,-38.0,205.0,-97.0,-10.0,12.0,1
30.0,-41.0,200.0,-14.0,-2.0,0.0,1
26.0,-36.0,202.0,60.0,7.0,-12.0,1
21.0,-32.0,195.0,98.0,26.0,-20.0,1
19.0,-32.0,187.0,77.0,54.0,-26.0,1
16.0,-33.0,191.0,-3.0,88.0,-32.0,1
21.0,-42.0,201.0,-83.0,126.0,-31.0,1
24.0,-55.0,230.0,-99.0,148.0,-21.0,1
29.0,-70.0,244.0,-14.0,127.0,-18.0,1
31.0,-72.0,245.0,160.0,70.0,-26.0,1
38.0,-64.0,236.0,373.0,-2.0,-36.0,1
43.0,-50.0,214.0,567.0,-48.0,-45.0,1
43.0,-20.0,201.0,712.0,-56.0,-49.0,1
39.0,9.0,194.0,794.0,-28.0,-52.0,1
34.0,43.0,196.0,781.0,15.0,-53.0,1
35.0,66.0,202.0,657.0,40.0,-48.0,1
41.0,79.0,215.0,452.0,40.0,-41.0,1
46.0,78.0,234.0,218.0,32.0,-32.0,1
50.0,68.0,240.0,-4.0,17.0,-26.0,1
49.0,55.0,240.0,-196.0,4.0,-17.0,1
50.0,38.0,239.0,-353.0,-2.0,-9.0,1
48.0,29.0,229.0,-456.0,-1.0,0.0,1
47.0,21.0,224.0,-517.0,-1.0,9.0,1
48.0,13.0,217.0,-552.0,-5.0,17.0,1
49.0,8.0,209.0,-589.0,-5.0,30.0,1
47.0,2.0,209.0,-625.0,-3.0,45.0,1
46.0,-10.0,208.0,-651.0,5.0,63.0,1
42.0,-13.0,213.0,-663.0,17.0,77.0,1
43.0,-11.0,217.0,-658.0,39.0,84.0,1
41.0,-14.0,221.0,-643.0,57.0,83.0,1
38.0,-11.0,222.0,-631.0,64.0,77.0,1
36.0,-3.0,226.0,-622.0,50.0,69.0,1
38.0,1.0,215.0,-615.0,23.0,66.0,1
40.0,-2.0,217.0,-604.0,-5.0,60.0,1
44.0,-6.0,217.0,-585.0,-28.0,55.0,1
43.0,-9.0,217.0,-556.0,-43.0,46.0,1
46.0,-14.0,215.0,-513.0,-51.0,40.0,1
45.0,-18.0,217.0,-457.0,-48.0,33.0,1
45.0,-28.0,215.0,-386.0,-39.0,30.0,1
44.0,-32.0,204.0,-299.0,-30.0,30.0,1
42.0,-44.0,202.0,-205.0,-19.0,23.0,1
33.0,-47.0,204.0,-99.0,-8.0,10.0,1
29.0,-50.0,201.0,12.0,-11.0,-5.0,1
21.0,-52.0,202.0,117.0,-19.0,-22.0,1
22.0,-50.0,203.0,212.0,-25.0,-43.0,1
23.0,-50.0,208.0,298.0,-27.0,-63.0,1
30.0,-45.0,212.0,369.0,-21.0,-83.0,1
30.0,-39.0,204.0,418.0,-10.0,-91.0,1
32.0,-30.0,201.0,417.0,13.0,-93.0,1
34.0,-30.0,182.0,340.0,49.0,-83.0,1
33.0,-29.0,184.0,215.0,108.0,-71.0,1
32.0,-40.0,205.0,114.0,166.0,-57.0,1
31.0,-61.0,233.0,114.0,181.0,-47.0,1
36.0,-78.0,259.0,242.0,144.0,-44.0,1
45.0,-82.0,250.0,443.0,72.0,-51.0,1
50.0,-69.0,222.0,626.0,-5.0,-66.0,1
50.0,-42.0,201.0,713.0,-46.0,-77.0,1
44.0,0.0,187.0,699.0,-35.0,-77.0,1
44.0,33.0,187.0,617.0,2.0,-66.0,1
44.0,56.0,190.0,472.0,38.0,-48.0,1
48.0,70.0,200.0,262.0,64.0,-44.0,1
52.0,68.0,225.0,11.0,86.0,-51.0,1
58.0,60.0,238.0,-238.0,79.0,-53.0,1
65.0,42.0,234.0,-434.0,56.0,-43.0,1
58.0,20.0,230.0,-569.0,44.0,-21.0,1
55.0,3.0,230.0,-648.0,46.0,3.0,1
49.0,-5.0,226.0,-661.0,52.0,12.0,1
47.0,-9.0,222.0,-634.0,49.0,9.0,1
44.0,-14.0,222.0,-587.0,38.0,0.0,1
45.0,-13.0,229.0,-549.0,26.0,0.0,1
47.0,-19.0,235.0,-534.0,15.0,8.0,1
44.0,-22.0,238.0,-538.0,9.0,25.0,1
44.0,-20.0,236.0,-551.0,16.0,43.0,1
43.0,-17.0,230.0,-574.0,27.0,55.0,1
42.0,-14.0,232.0,-595.0,29.0,65.0,1
40.0,-11.0,229.0,-601.0,24.0,71.0,1
41.0,-15.0,218.0,-591.0,27.0,75.0,1
39.0,-12.0,209.0,-568.0,30.0,73.0,1
40.0,-17.0,203.0,-538.0,32.0,71.0,1
35.0,-18.0,206.0,-499.0,34.0,67.0,1
34.0,-21.0,203.0,-451.0,32.0,64.0,1
36.0,-24.0,200.0,-395.0,26.0,63.0,1
32.0,-17.0,200.0,-335.0,17.0,59.0,1
33.0,-19.0,205.0,-273.0,-1.0,53.0,1
31.0,-14.0,204.0,-202.0,-22.0,46.0,1
35.0,-6.0,209.0,-130.0,-37.0,35.0,1
33.0,1.0,208.0,-68.0,-43.0,23.0,1
32.0,4.0,210.0,-20.0,-44.0,10.0,1
28.0,0.0,207.0,19.0,-43.0,-1.0,1
27.0,-10.0,206.0,55.0,-43.0,-9.0,1
23.0,-14.0,212.0,88.0,-42.0,-16.0,1
23.0,-26.0,207.0,122.0,-41.0,-30.0,1
21.0,-40.0,212.0,167.0,-38.0,-50.0,1
21.0,-43.0,210.0,214.0,-34.0,-68.0,1
18.0,-50.0,203.0,255.0,-23.0,-80.0,1
16.0,-50.0,202.0,286.0,-5.0,-91.0,1
9.0,-49.0,202.0,299.0,12.0,-97.0,1
13.0,-48.0,200.0,296.0,19.0,-94.0,1
16.0,-44.0,202.0,288.0,11.0,-84.0,1
18.0,-38.0,205.0,283.0,-10.0,-72.0,1
24.0,-29.0,210.0,291.0,-38.0,-52.0,1
25.0,-22.0,210.0,309.0,-68.0,-32.0,1
31.0,-15.0,214.0,333.0,-89.0,-17.0,1
33.0,-6.0,221.0,364.0,-101.0,-7.0,1
41.0,-8.0,212.0,392.0,-100.0,-4.0,1
42.0,-9.0,210.0,407.0,-82.0,-3.0,1
39.0,-7.0,198.0,384.0,-45.0,-8.0,1
31.0,-2.0,184.0,301.0,3.0,-14.0,1
32.0,-16.0,189.0,179.0,58.0,-24.0,1
28.0,-35.0,199.0,70.0,112.0,-35.0,1
28.0,-56.0,221.0,37.0,162.0,-43.0,1
32.0,-74.0,244.0,97.0,193.0,-49.0,1
38.0,-86.0,259.0,217.0,196.0,-58.0,1
45.0,-81.0,243.0,361.0,138.0,-65.0,1
50.0,-59.0,222.0,482.0,28.0,-67.0,1
58.0,-29.0,202.0,541.0,-57.0,-54.0,1
62.0,2.0,197.0,528.0,-62.0,-37.0,1
69.0,25.0,198.0,435.0,-19.0,-15.0,1
73.0,38.0,213.0,287.0,32.0,-2.0,1
75.0,44.0,236.0,120.0,55.0,-1.0,1
75.0,42.0,259.0,-40.0,48.0,-2.0,1
73.0,36.0,258.0,-181.0,30.0,8.0,1
65.0,30.0,247.0,-310.0,15.0,22.0,1
61.0,17.0,232.0,-424.0,5.0,37.0,1
61.0,11.0,219.0,-504.0,6.0,42.0,1
57.0,8.0,214.0,-547.0,13.0,36.0,1
60.0,-7.0,217.0,-542.0,19.0,31.0,1
60.0,-17.0,213.0,-506.0,27.0,27.0,1
59.0,-21.0,215.0,-458.0,35.0,27.0,1
58.0,-22.0,219.0,-415.0,36.0,34.0,1
57.0,-21.0,217.0,-388.0,36.0,42.0,1
53.0,-16.0,217.0,-378.0,41.0,47.0,1
49.0,-12.0,215.0,-379.0,49.0,52.0,1
46.0,-8.0,213.0,-386.0,56.0,56.0,1
46.0,-11.0,208.0,-394.0,62.0,58.0,1
44.0,-15.0,213.0,-398.0,62.0,56.0,1
41.0,-16.0,208.0,-397.0,63.0,48.0,1
41.0,-21.0,210.0,-386.0,57.0,37.0,1
41.0,-24.0,207.0,-359.0,43.0,31.0,1
43.0,-23.0,212.0,-326.0,26.0,25.0,1
42.0,-19.0,211.0,-287.0,6.0,20.0,1
44.0,-16.0,214.0,-244.0,-8.0,17.0,1
40.0,-10.0,216.0,-201.0,-15.0,11.0,1
37.0,-6.0,213.0,-156.0,-17.0,1.0,1
36.0,-8.0,218.0,-117.0,-12.0,-12.0,1
32.0,-8.0,212.0,-85.0,2.0,-29.0,1
27.0,-7.0,213.0,-59.0,21.0,-43.0,1
21.0,-12.0,213.0,-32.0,43.0,-53.0,1
17.0,-16.0,213.0,-2.0,62.0,-63.0,1
14.0,-25.0,209.0,27.0,78.0,-72.0,1
17.0,-32.0,207.0,51.0,92.0,-83.0,1
15.0,-39.0,206.0,67.0,100.0,-92.0,1
17.0,-43.0,204.0,81.0,105.0,-98.0,1
17.0,-45.0,205.0,101.0,97.0,-96.0,1
16.0,-41.0,209.0,126.0,80.0,-88.0,1
19.0,-36.0,209.0,155.0,58.0,-76.0,1
22.0,-34.0,212.0,182.0,30.0,-64.0,1
23.0,-23.0,210.0,207.0,4.0,-52.0,1
26.0,-19.0,206.0,229.0,-21.0,-40.0,1
29.0,-10.0,215.0,253.0,-38.0,-31.0,1
27.0,-6.0,215.0,277.0,-47.0,-24.0,1
31.0,-4.0,207.0,292.0,-47.0,-22.0,1
29.0,-1.0,204.0,286.0,-29.0,-21.0,1
27.0,-1.0,193.0,240.0,8.0,-18.0,1
23.0,-7.0,190.0,157.0,50.0,-18.0,1
21.0,-15.0,191.0,69.0,92.0,-21.0,1
17.0,-41.0,207.0,21.0,136.0,-25.0,1
20.0,-64.0,235.0,54.0,169.0,-32.0,1
21.0,-81.0,252.0,180.0,171.0,-43.0,1
30.0,-84.0,247.0,347.0,135.0,-53.0,1
38.0,-73.0,230.0,485.0,72.0,-58.0,1
43.0,-49.0,206.0,559.0,-5.0,-41.0,1
46.0,-19.0,192.0,564.0,-53.0,-12.0,1
49.0,10.0,199.0,502.0,-57.0,18.0,1
50.0,29.0,214.0,379.0,-37.0,37.0,1
49.0,41.0,234.0,234.0,-9.0,37.0,1
44.0,40.0,246.0,86.0,14.0,38.0,1
45.0,33.0,257.0,-51.0,25.0,43.0,1
48.0,33.0,259.0,-177.0,15.0,45.0,1
51.0,26.0,237.0,-296.0,-17.0,40.0,1
53.0,16.0,214.0,-404.0,-45.0,43.0,1
51.0,12.0,205.0,-472.0,-54.0,52.0,1
55.0,4.0,202.0,-495.0,-54.0,62.0,1
55.0,0.0,204.0,-483.0,-43.0,71.0,1
54.0,-4.0,208.0,-448.0,-31.0,79.0,1
50.0,-9.0,213.0,-423.0,-20.0,90.0,1
49.0,-10.0,221.0,-412.0,-18.0,102.0,1
53.0,-13.0,223.0,-416.0,-17.0,107.0,1
48.0,-11.0,222.0,-429.0,-9.0,107.0,1
48.0,-12.0,217.0,-439.0,5.0,102.0,1
47.0,-10.0,218.0,-445.0,19.0,97.0,1
46.0,-14.0,209.0,-445.0,31.0,87.0,1
46.0,-16.0,208.0,-443.0,44.0,77.0,1
45.0,-17.0,207.0,-435.0,51.0,68.0,1
43.0,-18.0,205.0,-423.0,50.0,60.0,1
46.0,-20.0,207.0,-407.0,41.0,54.0,1
47.0,-23.0,209.0,-385.0,27.0,48.0,1
48.0,-22.0,214.0,-354.0,9.0,40.0,1
48.0,-22.0,212.0,-311.0,-6.0,29.0,1
47.0,-15.0,208.0,-267.0,-15.0,11.0,1
43.0,-14.0,213.0,-226.0,-20.0,-12.0,1
44.0,-10.0,215.0,-193.0,-15.0,-39.0,1
43.0,-8.0,218.0,-166.0,4.0,-66.0,1
41.0,-13.0,215.0,-141.0,25.0,-85.0,1
35.0,-20.0,209.0,-119.0,41.0,-95.0,1
30.0,-25.0,208.0,-107.0,53.0,-97.0,1
29.0,-40.0,203.0,-91.0,60.0,-97.0,1
24.0,-48.0,206.0,-64.0,66.0,-99.0,1
9.0,-57.0,200.0,-16.0,70.0,-100.0,1
17.0,-56.0,205.0,50.0,66.0,-105.0,1
21.0,-54.0,208.0,129.0,53.0,-110.0,1
22.0,-44.0,212.0,205.0,38.0,-111.0,1
30.0,-34.0,215.0,261.0,26.0,-110.0,1
29.0,-24.0,217.0,293.0,16.0,-99.0,1
33.0,-16.0,214.0,303.0,4.0,-85.0,1
31.0,-7.0,212.0,301.0,-7.0,-73.0,1
29.0,-3.0,211.0,295.0,-17.0,-62.0,1
30.0,-3.0,207.0,288.0,-18.0,-56.0,1
31.0,-3.0,194.0,271.0,-3.0,-51.0,1
29.0,-8.0,199.0,226.0,28.0,-50.0,1
28.0,-15.0,181.0,146.0,71.0,-52.0,1
29.0,-32.0,190.0,69.0,119.0,-51.0,1
25.0,-50.0,211.0,48.0,156.0,-50.0,1
25.0,-71.0,236.0,120.0,172.0,-53.0,1
38.0,-88.0,245.0,267.0,169.0,-58.0,1
43.0,-84.0,248.0,445.0,128.0,-69.0,1
46.0,-62.0,221.0,594.0,52.0,-70.0,1
50.0,-35.0,201.0,669.0,-9.0,-54.0,1
53.0,4.0,205.0,625.0,-21.0,-25.0,1
53.0,22.0,224.0,475.0,14.0,-2.0,1
50.0,46.0,251.0,281.0,54.0,4.0,1
47.0,35.0,255.0,106.0,69.0,7.0,1
47.0,28.0,261.0,-17.0,64.0,18.0,1
46.0,28.0,254.0,-93.0,54.0,25.0,1
49.0,23.0,231.0,-166.0,36.0,21.0,1
49.0,21.0,212.0,-247.0,10.0,21.0,1
51.0,20.0,200.0,-316.0,-5.0,33.0,1
51.0,14.0,207.0,-354.0,-6.0,46.0,1
53.0,8.0,217.0,-362.0,0.0,52.0,1
48.0,-1.0,223.0,-352.0,8.0,56.0,1
48.0,-6.0,221.0,-343.0,14.0,62.0,1
46.0,-15.0,221.0,-352.0,11.0,75.0,1
39.0,-15.0,219.0,-378.0,12.0,83.0,1
38.0,-13.0,216.0,-410.0,17.0,87.0,1
37.0,-12.0,218.0,-429.0,24.0,86.0,1
39.0,-13.0,211.0,-432.0,27.0,81.0,1
42.0,-13.0,205.0,-420.0,36.0,76.0,1
37.0,-12.0,209.0,-404.0,47.0,67.0,1
36.0,-17.0,202.0,-386.0,58.0,59.0,1
37.0,-18.0,200.0,-371.0,66.0,57.0,1
38.0,-22.0,203.0,-359.0,64.0,54.0,1
37.0,-23.0,204.0,-344.0,52.0,49.0,1
37.0,-24.0,206.0,-317.0,28.0,40.0,1
38.0,-22.0,204.0,-275.0,-2.0,28.0,1
33.0,-15.0,212.0,-229.0,-28.0,11.0,1
36.0,-7.0,215.0,-187.0,-45.0,-13.0,1
37.0,-2.0,218.0,-153.0,-46.0,-39.0,1
30.0,0.0,224.0,-135.0,-36.0,-63.0,1
31.0,-3.0,221.0,-131.0,-17.0,-83.0,1
25.0,-5.0,217.0,-126.0,9.0,-97.0,1
21.0,-11.0,218.0,-117.0,38.0,-108.0,1
21.0,-19.0,218.0,-105.0,65.0,-115.0,1
20.0,-24.0,216.0,-88.0,81.0,-118.0,1
18.0,-32.0,219.0,-71.0,87.0,-115.0,1
21.0,-41.0,218.0,-53.0,84.0,-104.0,1
23.0,-44.0,223.0,-38.0,74.0,-88.0,1
21.0,-46.0,214.0,-25.0,49.0,-72.0,1
19.0,-44.0,208.0,-14.0,23.0,-59.0,1
19.0,-42.0,202.0,-4.0,3.0,-47.0,1
20.0,-41.0,199.0,14.0,-7.0,-41.0,1
18.0,-30.0,203.0,46.0,-13.0,-40.0,1
19.0,-26.0,204.0,93.0,-12.0,-40.0,1
23.0,-21.0,204.0,146.0,-6.0,-43.0,1
24.0,-12.0,209.0,199.0,-5.0,-44.0,1
31.0,-11.0,208.0,235.0,-9.0,-46.0,1
30.0,-6.0,216.0,247.0,-15.0,-45.0,1
28.0,0.0,218.0,237.0,-22.0,-37.0,1
33.0,-3.0,217.0,210.0,-24.0,-24.0,1
29.0,0.0,213.0,173.0,-23.0,-11.0,1
33.0,-8.0,215.0,139.0,-19.0,3.0,1
31.0,-11.0,217.0,115.0,-17.0,13.0,1
32.0,-12.0,215.0,104.0,-17.0,19.0,1
32.0,-13.0,211.0,109.0,-17.0,20.0,1
33.0,-18.0,204.0,121.0,-17.0,22.0,1
31.0,-22.0,201.0,137.0,-16.0,24.0,1
32.0,-24.0,190.0,141.0,-12.0,25.0,1
33.0,-28.0,176.0,123.0,-1.0,27.0,1
33.0,-27.0,174.0,76.0,17.0,23.0,1
33.0,-41.0,183.0,26.0,42.0,20.0,1
32.0,-57.0,199.0,25.0,68.0,15.0,1
31.0,-74.0,217.0,105.0,93.0,7.0,1
38.0,-84.0,228.0,257.0,106.0,-3.0,1
46.0,-83.0,232.0,440.0,85.0,-15.0,1
58.0,-61.0,223.0,601.0,24.0,-20.0,1
61.0,-35.0,217.0,679.0,-35.0,-19.0,1
69.0,-4.0,223.0,656.0,-71.0,0.0,1
73.0,20.0,235.0,548.0,-71.0,22.0,1
57.0,40.0,252.0,360.0,-33.0,33.0,1
51.0,43.0,271.0,143.0,-3.0,47.0,1
53.0,30.0,275.0,-52.0,7.0,56.0,1
50.0,17.0,266.0,-192.0,-2.0,62.0,1
51.0,9.0,250.0,-288.0,-13.0,64.0,1
50.0,10.0,235.0,-359.0,-27.0,64.0,1
54.0,8.0,215.0,-411.0,-55.0,61.0,1
55.0,6.0,206.0,-460.0,-72.0,60.0,1
52.0,5.0,204.0,-490.0,-59.0,64.0,1
50.0,3.0,212.0,-493.0,-29.0,69.0,1
49.0,-1.0,209.0,-475.0,-7.0,73.0,1
49.0,-5.0,209.0,-446.0,2.0,76.0,1
47.0,-10.0,206.0,-419.0,2.0,76.0,1
48.0,-16.0,205.0,-404.0,-1.0,75.0,1
47.0,-14.0,212.0,-394.0,-6.0,73.0,1
45.0,-11.0,208.0,-385.0,-9.0,67.0,1
48.0,-17.0,210.0,-379.0,-6.0,58.0,1
46.0,-15.0,205.0,-370.0,3.0,47.0,1
46.0,-18.0,209.0,-358.0,10.0,36.0,1
44.0,-23.0,204.0,-347.0,13.0,24.0,1
48.0,-24.0,208.0,-338.0,12.0,16.0,1
48.0,-25.0,211.0,-330.0,13.0,8.0,1
50.0,-25.0,214.0,-317.0,16.0,-1.0,1
52.0,-23.0,216.0,-297.0,24.0,-10.0,1
50.0,-25.0,223.0,-276.0,37.0,-22.0,1
49.0,-16.0,227.0,-252.0,52.0,-40.0,1
46.0,-9.0,229.0,-222.0,69.0,-55.0,1
44.0,-7.0,230.0,-191.0,92.0,-75.0,1
38.0,-6.0,215.0,-164.0,111.0,-95.0,1
35.0,-6.0,209.0,-138.0,132.0,-118.0,1
27.0,-9.0,201.0,-113.0,152.0,-138.0,1
25.0,-12.0,199.0,-87.0,167.0,-148.0,1
22.0,-19.0,201.0,-55.0,171.0,-149.0,1
22.0,-22.0,201.0,-19.0,162.0,-145.0,1
23.0,-27.0,202.0,23.0,145.0,-137.0,1
23.0,-32.0,202.0,66.0,120.0,-124.0,1
22.0,-34.0,207.0,102.0,91.0,-109.0,1
21.0,-32.0,206.0,120.0,68.0,-94.0,1
21.0,-29.0,208.0,128.0,52.0,-82.0,1
29.0,-23.0,212.0,127.0,43.0,-69.0,1
29.0,-17.0,214.0,122.0,38.0,-57.0,1
29.0,-16.0,215.0,114.0,37.0,-43.0,1
26.0,-13.0,214.0,100.0,36.0,-33.0,1
26.0,-11.0,216.0,88.0,40.0,-27.0,1
22.0,-8.0,213.0,87.0,45.0,-21.0,1
18.0,-9.0,216.0,98.0,49.0,-20.0,1
19.0,-10.0,222.0,120.0,51.0,-21.0,1
15.0,-11.0,213.0,136.0,50.0,-22.0,1
13.0,-8.0,219.0,146.0,47.0,-19.0,1
17.0,-9.0,219.0,146.0,38.0,-13.0,1
21.0,-15.0,215.0,135.0,27.0,-4.0,1
18.0,-14.0,215.0,120.0,18.0,4.0,1
21.0,-20.0,219.0,110.0,8.0,11.0,1
22.0,-22.0,219.0,111.0,-2.0,17.0,1
22.0,-28.0,215.0,121.0,-11.0,22.0,1
26.0,-24.0,211.0,138.0,-21.0,27.0,1
25.0,-24.0,211.0,157.0,-24.0,31.0,1
28.0,-17.0,212.0,167.0,-25.0,33.0,1
28.0,-13.0,212.0,164.0,-24.0,35.0,1
31.0,-11.0,218.0,145.0,-18.0,35.0,1
32.0,-7.0,221.0,116.0,-12.0,37.0,1
35.0,-12.0,217.0,87.0,-3.0,42.0,1
32.0,-11.0,214.0,64.0,3.0,49.0,1
31.0,-17.0,208.0,43.0,10.0,56.0,1
30.0,-24.0,206.0,24.0,18.0,56.0,1
31.0,-27.0,207.0,24.0,25.0,54.0,1
27.0,-38.0,213.0,56.0,23.0,52.0,1
33.0,-46.0,222.0,115.0,15.0,48.0,1
36.0,-52.0,217.0,186.0,0.0,43.0,1
43.0,-46.0,222.0,251.0,-17.0,37.0,1
48.0,-42.0,228.0,293.0,-33.0,32.0,1
52.0,-32.0,225.0,303.0,-45.0,34.0,1
52.0,-18.0,226.0,289.0,-54.0,41.0,1
50.0,-4.0,229.0,260.0,-62.0,48.0,1
52.0,8.0,227.0,220.0,-65.0,50.0,1
50.0,18.0,230.0,174.0,-56.0,50.0,1
46.0,26.0,225.0,122.0,-41.0,50.0,1
46.0,22.0,217.0,65.0,-27.0,48.0,1
42.0,27.0,215.0,2.0,-16.0,45.0,1
43.0,18.0,211.0,-64.0,-14.0,44.0,1
42.0,14.0,210.0,-127.0,-16.0,42.0,1
42.0,8.0,205.0,-180.0,-19.0,39.0,1
44.0,3.0,204.0,-224.0,-24.0,35.0,1
43.0,-8.0,201.0,-255.0,-24.0,31.0,1
41.0,-13.0,200.0,-266.0,-17.0,25.0,1
42.0,-20.0,200.0,-261.0,-9.0,16.0,1
44.0,-19.0,198.0,-246.0,0.0,7.0,1
41.0,-19.0,200.0,-225.0,7.0,-1.0,1
41.0,-17.0,204.0,-213.0,16.0,-8.0,1
42.0,-14.0,210.0,-215.0,25.0,-16.0,1
43.0,-12.0,210.0,-229.0,33.0,-23.0,1
43.0,-5.0,212.0,-254.0,38.0,-28.0,1
45.0,-4.0,217.0,-282.0,38.0,-27.0,1
41.0,0.0,218.0,-307.0,36.0,-26.0,1
42.0,3.0,220.0,-325.0,37.0,-23.0,1
42.0,0.0,220.0,-331.0,37.0,-22.0,1
39.0,-2.0,222.0,-330.0,36.0,-21.0,1
41.0,-6.0,220.0,-317.0,34.0,-21.0,1
39.0,-9.0,222.0,-296.0,36.0,-22.0,1
42.0,-14.0,223.0,-268.0,41.0,-18.0,1
43.0,-16.0,227.0,-234.0,44.0,-16.0,1
42.0,-21.0,225.0,-197.0,48.0,-11.0,1
42.0,-22.0,226.0,-163.0,50.0,-4.0,1
40.0,-21.0,224.0,-133.0,49.0,-2.0,1
35.0,-24.0,226.0,-111.0,43.0,-1.0,1
37.0,-26.0,224.0,-91.0,28.0,-2.0,1
34.0,-23.0,218.0,-75.0,11.0,-5.0,1
37.0,-21.0,225.0,-56.0,-5.0,-12.0,1
36.0,-21.0,225.0,-34.0,-15.0,-19.0,1
35.0,-20.0,221.0,-12.0,-15.0,-25.0,1
37.0,-20.0,220.0,9.0,-8.0,-29.0,1
41.0,-19.0,228.0,25.0,0.0,-32.0,1
39.0,-19.0,225.0,29.0,8.0,-39.0,1
37.0,-20.0,224.0,23.0,16.0,-42.0,1
34.0,-22.0,221.0,11.0,22.0,-40.0,1
35.0,-19.0,219.0,2.0,24.0,-37.0,1
36.0,-21.0,215.0,-4.0,23.0,-33.0,1
38.0,-25.0,211.0,2.0,27.0,-29.0,1
37.0,-26.0,213.0,19.0,31.0,-28.0,1
37.0,-24.0,212.0,47.0,34.0,-25.0,1
35.0,-25.0,213.0,84.0,32.0,-19.0,1
33.0,-27.0,206.0,121.0,29.0,-17.0,1
33.0,-27.0,206.0,159.0,27.0,-13.0,1
34.0,-22.0,208.0,188.0,25.0,-9.0,1
31.0,-21.0,206.0,210.0,24.0,-7.0,1
32.0,-17.0,209.0,224.0,22.0,-9.0,1
28.0,-11.0,212.0,231.0,18.0,-8.0,1
31.0,-10.0,209.0,228.0,14.0,-11.0,1
38.0,-7.0,211.0,214.0,11.0,-13.0,1
39.0,-7.0,216.0,195.0,7.0,-11.0,1
38.0,-5.0,213.0,173.0,4.0,-10.0,1
38.0,-5.0,211.0,153.0,0.0,-10.0,1
37.0,-8.0,211.0,133.0,-2.0,-8.0,1
40.0,-5.0,210.0,117.0,-3.0,-4.0,1
35.0,-7.0,212.0,105.0,-4.0,1.0,1
36.0,-12.0,208.0,95.0,-5.0,4.0,1
37.0,-11.0,206.0,88.0,-6.0,6.0,1
35.0,-12.0,208.0,85.0,-7.0,8.0,1
36.0,-16.0,203.0,88.0,-5.0,12.0,1
34.0,-17.0,204.0,96.0,-3.0,12.0,1
38.0,-10.0,198.0,107.0,-2.0,10.0,1
34.0,-17.0,211.0,120.0,0.0,6.0,1
33.0,-13.0,213.0,133.0,1.0,1.0,1
35.0,-12.0,217.0,141.0,3.0,-4.0,1
36.0,-8.0,215.0,143.0,8.0,-9.0,1
39.0,-7.0,215.0,143.0,12.0,-12.0,1
36.0,-5.0,217.0,139.0,14.0,-11.0,1
41.0,-3.0,216.0,133.0,15.0,-13.0,1
40.0,1.0,218.0,122.0,14.0,-12.0,1
42.0,-2.0,220.0,109.0,12.0,-12.0,1
41.0,-1.0,218.0,99.0,8.0,-9.0,1
46.0,4.0,213.0,87.0,2.0,-8.0,1
39.0,-3.0,216.0,76.0,-7.0,-7.0,1
40.0,-4.0,215.0,64.0,-15.0,-9.0,1
42.0,-5.0,217.0,52.0,-24.0,-10.0,1
39.0,-5.0,219.0,40.0,-27.0,-11.0,1
41.0,-6.0,214.0,25.0,-25.0,-12.0,1
43.0,-5.0,212.0,15.0,-20.0,-13.0,1
42.0,-7.0,216.0,3.0,-14.0,-11.0,1
41.0,-6.0,214.0,-1.0,-6.0,-8.0,1
43.0,-2.0,219.0,-4.0,1.0,-3.0,1
41.0,-4.0,214.0,-7.0,8.0,-1.0,1
42.0,5.0,209.0,-7.0,13.0,1.0,1
41.0,-2.0,219.0,-10.0,14.0,5.0,1
41.0,-3.0,216.0,-12.0,15.0,8.0,1
38.0,-2.0,219.0,-17.0,12.0,12.0,1
38.0,-3.0,217.0,-23.0,10.0,15.0,1
37.0,-2.0,217.0,-28.0,7.0,18.0,1
37.0,-2.0,216.0,-33.0,5.0,17.0,1
39.0,-3.0,220.0,-37.0,4.0,17.0,1
40.0,-4.0,213.0,-38.0,4.0,14.0,1
41.0,-6.0,216.0,-36.0,4.0,13.0,1
39.0,-3.0,224.0,-33.0,7.0,11.0,1
36.0,-6.0,212.0,-26.0,8.0,9.0,1
38.0,-6.0,216.0,-22.0,11.0,8.0,1
39.0,-4.0,211.0,-16.0,12.0,7.0,1
38.0,-2.0,212.0,-9.0,15.0,3.0,1
31.0,-3.0,210.0,-6.0,19.0,1.0,1
37.0,1.0,213.0,-3.0,23.0,0.0,1
40.0,0.0,211.0,-1.0,28.0,-2.0,1
40.0,0.0,214.0,-4.0,28.0,-2.0,1
41.0,-1.0,218.0,-9.0,28.0,-4.0,1
41.0,0.0,217.0,-18.0,27.0,-4.0,1
40.0,-1.0,219.0,-27.0,28.0,-1.0,1
43.0,-2.0,218.0,-34.0,28.0,1.0,1
42.0,-3.0,215.0,-39.0,28.0,5.0,1
42.0,-1.0,218.0,-42.0,26.0,6.0,1
41.0,1.0,217.0,-41.0,22.0,7.0,1
41.0,-2.0,215.0,-37.0,18.0,7.0,1
40.0,-3.0,213.0,-30.0,14.0,7.0,1
38.0,-2.0,217.0,-24.0,12.0,5.0,1
39.0,-5.0,211.0,-19.0,10.0,5.0,1
41.0,-7.0,213.0,-15.0,11.0,3.0,1
39.0,-3.0,216.0,-11.0,11.0,3.0,1
39.0,-5.0,212.0,-5.0,14.0,5.0,1
39.0,-4.0,213.0,-4.0,16.0,7.0,1
40.0,-1.0,213.0,-5.0,20.0,8.0,1
41.0,-6.0,215.0,-5.0,21.0,13.0,1
40.0,-5.0,219.0,-9.0,23.0,14.0,1
42.0,-6.0,218.0,-12.0,22.0,15.0,1
41.0,-6.0,218.0,-14.0,23.0,18.0,1
39.0,-9.0,215.0,-8.0,23.0,19.0,1
42.0,-4.0,212.0,4.0,19.0,20.0,1
38.0,-6.0,214.0,18.0,18.0,18.0,1
40.0,-5.0,214.0,34.0,17.0,15.0,1
35.0,0.0,214.0,52.0,16.0,10.0,1
35.0,-1.0,214.0,62.0,16.0,7.0,1
38.0,-2.0,209.0,63.0,16.0,4.0,1
38.0,-1.0,216.0,52.0,16.0,1.0,1
38.0,-1.0,212.0,33.0,16.0,3.0,1
36.0,4.0,216.0,12.0,15.0,2.0,1
32.0,14.0,221.0,-9.0,13.0,3.0,1
34.0,4.0,223.0,-28.0,10.0,6.0,1
34.0,8.0,222.0,-41.0,6.0,7.0,1
37.0,3.0,218.0,-57.0,2.0,9.0,1
38.0,5.0,224.0,-69.0,-3.0,10.0,1
39.0,5.0,221.0,-80.0,-8.0,10.0,1
38.0,-2.0,218.0,-85.0,-13.0,8.0,1
38.0,-2.0,219.0,-86.0,-17.0,6.0,1
36.0,-3.0,215.0,-80.0,-19.0,6.0,1
37.0,-2.0,214.0,-67.0,-21.0,8.0,1
41.0,-8.0,216.0,-52.0,-22.0,6.0,1
38.0,-8.0,207.0,-33.0,-20.0,7.0,1
38.0,-9.0,208.0,-12.0,-17.0,7.0,1
36.0,-5.0,210.0,9.0,-12.0,10.0,1
37.0,-4.0,210.0,30.0,-10.0,10.0,1
34.0,-3.0,211.0,48.0,-7.0,8.0,1
35.0,-1.0,211.0,61.0,-4.0,8.0,1
36.0,-1.0,213.0,67.0,-3.0,6.0,1
33.0,-2.0,213.0,68.0,-3.0,4.0,1
34.0,0.0,212.0,65.0,-1.0,2.0,1
36.0,3.0,212.0,58.0,0.0,1.0,1
35.0,1.0,213.0,49.0,0.0,-2.0,1
35.0,6.0,217.0,37.0,1.0,-4.0,1
37.0,7.0,219.0,24.0,1.0,-4.0,1
39.0,5.0,220.0,11.0,3.0,-4.0,1
41.0,1.0,223.0,-3.0,7.0,-4.0,1
39.0,2.0,217.0,-13.0,12.0,-3.0,1
42.0,1.0,219.0,-25.0,17.0,0.0,1
40.0,2.0,221.0,-33.0,19.0,2.0,1
40.0,3.0,222.0,-39.0,19.0,6.0,1
40.0,-1.0,222.0,-40.0,14.0,8.0,1
39.0,-1.0,218.0,-36.0,11.0,9.0,1
38.0,-2.0,218.0,-29.0,7.0,12.0,1
42.0,-1.0,215.0,-22.0,1.0,12.0,1
38.0,-2.0,213.0,-11.0,-2.0,11.0,1
39.0,3.0,211.0,-3.0,-4.0,9.0,1
39.0,0.0,208.0,2.0,-5.0,6.0,1
40.0,1.0,213.0,11.0,-5.0,4.0,1
37.0,0.0,208.0,17.0,-3.0,2.0,1
40.0,-1.0,213.0,21.0,-1.0,1.0,1
41.0,-1.0,210.0,26.0,2.0,0.0,1
41.0,5.0,211.0,28.0,6.0,-3.0,1
41.0,-1.0,213.0,32.0,8.0,-3.0,1
42.0,-4.0,216.0,34.0,8.0,-4.0,1
40.0,-1.0,211.0,31.0,6.0,-4.0,1
41.0,0.0,217.0,29.0,5.0,-2.0,1
38.0,-1.0,218.0,29.0,4.0,-3.0,1
38.0,1.0,218.0,26.0,0.0,-5.0,1
40.0,2.0,219.0,23.0,-1.0,-5.0,1
37.0,7.0,219.0,18.0,1.0,-8.0,1
39.0,7.0,220.0,11.0,5.0,-9.0,1
38.0,1.0,218.0,3.0,10.0,-10.0,1
43.0,1.0,219.0,-10.0,13.0,-11.0,1
41.0,1.0,224.0,-27.0,20.0,-11.0,1
42.0,2.0,217.0,-41.0,25.0,-9.0,1
40.0,3.0,218.0,-52.0,28.0,-8.0,1
37.0,1.0,217.0,-60.0,29.0,-4.0,1
41.0,-2.0,220.0,-63.0,28.0,0.0,1
43.0,3.0,218.0,-63.0,25.0,3.0,1
42.0,1.0,218.0,-59.0,21.0,5.0,1
41.0,1.0,217.0,-55.0,18.0,6.0,1
40.0,5.0,216.0,-51.0,12.0,7.0,1
39.0,1.0,211.0,-45.0,8.0,6.0,1
42.0,7.0,216.0,-41.0,3.0,5.0,1
41.0,4.0,211.0,-39.0,2.0,4.0,1
40.0,6.0,210.0,-35.0,2.0,3.0,1
42.0,5.0,212.0,-34.0,3.0,2.0,1
43.0,4.0,212.0,-34.0,4.0,0.0,1
41.0,4.0,214.0,-33.0,8.0,-1.0,1
39.0,1.0,214.0,-33.0,11.0,-2.0,1
40.0,1.0,211.0,-32.0,15.0,-2.0,1
39.0,3.0,211.0,-30.0,17.0,1.0,1
39.0,2.0,212.0,-29.0,19.0,-2.0,1
38.0,2.0,212.0,-26.0,21.0,-2.0,1
40.0,2.0,218.0,-21.0,22.0,-3.0,1
41.0,1.0,215.0,-15.0,23.0,-4.0,1
38.0,2.0,216.0,-11.0,25.0,-6.0,1
40.0,4.0,213.0,-5.0,27.0,-4.0,1
38.0,5.0,211.0,-2.0,28.0,-5.0,1
42.0,4.0,214.0,-1.0,27.0,-5.0,1
39.0,4.0,215.0,-2.0,27.0,-4.0,1
42.0,0.0,220.0,-7.0,28.0,-4.0,1
42.0,5.0,212.0,-11.0,28.0,-2.0,1
40.0,6.0,218.0,-19.0,26.0,-1.0,1
41.0,5.0,219.0,-29.0,25.0,1.0,1
40.0,4.0,220.0,-42.0,26.0,1.0,1
37.0,4.0,220.0,-54.0,25.0,3.0,1
40.0,8.0,225.0,-62.0,21.0,3.0,1
40.0,5.0,222.0,-69.0,19.0,4.0,1
38.0,5.0,220.0,-76.0,16.0,5.0,1
38.0,5.0,218.0,-79.0,14.0,6.0,1
39.0,5.0,222.0,-81.0,11.0,4.0,1
38.0,8.0,218.0,-83.0,11.0,2.0,1
40.0,1.0,219.0,-80.0,11.0,1.0,1
41.0,2.0,217.0,-78.0,11.0,-2.0,1
39.0,0.0,216.0,-73.0,13.0,-4.0,1
38.0,-3.0,216.0,-65.0,15.0,-5.0,1
38.0,-2.0,213.0,-56.0,17.0,-7.0,1
39.0,-2.0,210.0,-47.0,19.0,-6.0,1
36.0,3.0,212.0,-38.0,19.0,-8.0,1
37.0,-1.0,206.0,-31.0,21.0,-7.0,1
36.0,0.0,214.0,-25.0,24.0,-6.0,1
35.0,5.0,212.0,-18.0,24.0,-6.0,1
39.0,7.0,213.0,-14.0,22.0,-6.0,1
37.0,7.0,214.0,-11.0,22.0,-4.0,1
40.0,3.0,211.0,-16.0,20.0,-5.0,1
38.0,2.0,213.0,-22.0,18.0,-3.0,1
35.0,6.0,218.0,-29.0,16.0,-3.0,1
37.0,3.0,215.0,-36.0,14.0,-3.0,1
37.0,4.0,218.0,-44.0,12.0,-1.0,1
40.0,3.0,215.0,-48.0,10.0,-1.0,1
39.0,-1.0,221.0,-53.0,8.0,0.0,1
40.0,0.0,215.0,-54.0,7.0,1.0,1
40.0,1.0,218.0,-54.0,7.0,4.0,1
41.0,-1.0,218.0,-51.0,6.0,4.0,1
42.0,0.0,217.0,-46.0,5.0,4.0,1
39.0,7.0,214.0,-41.0,5.0,4.0,1
41.0,2.0,214.0,-36.0,3.0,1.0,1
38.0,7.0,215.0,-30.0,3.0,-2.0,1
39.0,6.0,212.0,-26.0,4.0,-3.0,1
36.0,5.0,214.0,-26.0,6.0,-4.0,1
37.0,8.0,215.0,-24.0,9.0,-4.0,1
40.0,-3.0,214.0,-23.0,13.0,-3.0,1
34.0,1.0,215.0,-27.0,13.0,-2.0,1
36.0,6.0,216.0,-31.0,14.0,0.0,1
39.0,5.0,218.0,-38.0,14.0,2.0,1
43.0,3.0,217.0,-44.0,13.0,2.0,1
43.0,3.0,215.0,-50.0,13.0,2.0,1
43.0,0.0,221.0,-54.0,13.0,2.0,1
43.0,-2.0,216.0,-49.0,13.0,4.0,1
45.0,-4.0,212.0,-38.0,12.0,4.0,1
38.0,-2.0,210.0,-22.0,12.0,6.0,1
34.0,2.0,213.0,-2.0,11.0,4.0,1
39.0,5.0,211.0,16.0,9.0,-1.0,1
39.0,5.0,214.0,27.0,9.0,-5.0,1
35.0,6.0,212.0,31.0,10.0,-7.0,1
39.0,4.0,208.0,26.0,10.0,-9.0,1
38.0,4.0,217.0,20.0,10.0,-11.0,1
35.0,7.0,216.0,8.0,13.0,-13.0,1
37.0,7.0,216.0,-3.0,15.0,-13.0,1
41.0,8.0,219.0,-9.0,17.0,-14.0,1
41.0,8.0,217.0,-14.0,19.0,-12.0,1
41.0,7.0,215.0,-19.0,20.0,-13.0,1
41.0,8.0,219.0,-24.0,21.0,-11.0,1
41.0,7.0,221.0,-28.0,21.0,-9.0,1
41.0,5.0,217.0,-31.0,18.0,-6.0,1
40.0,8.0,218.0,-34.0,15.0,-5.0,1
41.0,6.0,216.0,-35.0,12.0,-3.0,1
40.0,7.0,215.0,-35.0,9.0,-4.0,1
42.0,4.0,216.0,-33.0,8.0,-3.0,1
40.0,4.0,212.0,-28.0,9.0,-4.0,1
40.0,8.0,220.0,-25.0,10.0,-4.0,1
43.0,8.0,214.0,-22.0,10.0,-3.0,1
44.0,5.0,214.0,-21.0,11.0,-4.0,1
42.0,8.0,217.0,-21.0,12.0,-4.0,1
40.0,4.0,218.0,-23.0,14.0,-2.0,1
38.0,8.0,215.0,-28.0,14.0,-4.0,1
39.0,7.0,215.0,-35.0,15.0,-4.0,1
37.0,5.0,207.0,-42.0,17.0,-5.0,1
37.0,8.0,217.0,-47.0,15.0,-6.0,1
39.0,3.0,218.0,-51.0,16.0,-8.0,1
41.0,6.0,211.0,-50.0,16.0,-9.0,1
40.0,8.0,216.0,-49.0,16.0,-9.0,1
41.0,5.0,212.0,-47.0,17.0,-9.0,1
39.0,6.0,213.0,-43.0,17.0,-10.0,1
39.0,6.0,210.0,-40.0,19.0,-9.0,1
41.0,6.0,218.0,-35.0,19.0,-10.0,1
40.0,4.0,216.0,-28.0,18.0,-8.0,1
32.0,-5.0,221.0,-21.0,17.0,-8.0,1
42.0,1.0,212.0,-16.0,17.0,-9.0,1
42.0,1.0,215.0,-13.0,16.0,-6.0,1
40.0,4.0,213.0,-10.0,16.0,-7.0,1
42.0,7.0,219.0,-11.0,17.0,-6.0,1
39.0,4.0,213.0,-13.0,17.0,-5.0,1
41.0,5.0,210.0,-16.0,19.0,-5.0,1
39.0,8.0,213.0,-17.0,20.0,-7.0,1
37.0,9.0,220.0,-22.0,21.0,-4.0,1
40.0,8.0,220.0,-27.0,21.0,-2.0,1
42.0,7.0,218.0,-33.0,20.0,-2.0,1
35.0,11.0,224.0,-39.0,18.0,0.0,1
40.0,0.0,217.0,-41.0,18.0,-1.0,1
37.0,2.0,214.0,-44.0,17.0,-1.0,1
37.0,4.0,218.0,-44.0,16.0,-1.0,1
40.0,4.0,215.0,-41.0,15.0,-1.0,1
40.0,4.0,212.0,-37.0,12.0,-2.0,1
39.0,2.0,214.0,-31.0,13.0,-5.0,1
39.0,6.0,207.0,-23.0,13.0,-8.0,1
37.0,6.0,215.0,-17.0,12.0,-10.0,1
36.0,8.0,214.0,-9.0,12.0,-11.0,1
38.0,8.0,213.0,-1.0,11.0,-11.0,1
46.0,8.0,211.0,4.0,9.0,-14.0,1
37.0,6.0,213.0,7.0,12.0,-16.0,1
40.0,6.0,215.0,8.0,15.0,-17.0,1
37.0,7.0,219.0,7.0,16.0,-18.0,1
41.0,5.0,213.0,5.0,17.0,-19.0,1
39.0,6.0,214.0,2.0,20.0,-17.0,1
38.0,9.0,215.0,2.0,19.0,-15.0,1
39.0,7.0,217.0,0.0,19.0,-12.0,1
38.0,8.0,216.0,4.0,18.0,-10.0,1
42.0,9.0,219.0,9.0,16.0,-9.0,1
39.0,6.0,221.0,14.0,16.0,-7.0,1
42.0,7.0,208.0,19.0,15.0,-8.0,1
40.0,8.0,214.0,23.0,15.0,-8.0,1
39.0,8.0,215.0,23.0,13.0,-10.0,1
41.0,9.0,216.0,23.0,14.0,-10.0,1
38.0,8.0,216.0,21.0,13.0,-12.0,1
36.0,7.0,220.0,16.0,14.0,-13.0,1
39.0,8.0,216.0,11.0,13.0,-11.0,1
39.0,8.0,216.0,5.0,14.0,-12.0,1
40.0,8.0,216.0,-2.0,13.0,-12.0,1
38.0,8.0,215.0,-8.0,13.0,-9.0,1
38.0,8.0,216.0,-10.0,13.0,-8.0,1
40.0,8.0,213.0,-11.0,11.0,-6.0,1
37.0,7.0,217.0,-7.0,12.0,-4.0,1
40.0,8.0,217.0,-3.0,12.0,-3.0,1
40.0,8.0,214.0,4.0,11.0,-5.0,1
39.0,10.0,219.0,10.0,12.0,-4.0,1
39.0,8.0,217.0,19.0,11.0,-6.0,1
41.0,8.0,212.0,24.0,11.0,-7.0,1
39.0,8.0,212.0,30.0,12.0,-6.0,1
41.0,9.0,212.0,32.0,14.0,-6.0,1
42.0,9.0,209.0,32.0,16.0,-4.0,1
44.0,12.0,212.0,31.0,19.0,-4.0,1
42.0,10.0,216.0,35.0,22.0,4.0,1
41.0,11.0,216.0,35.0,22.0,-2.0,1
40.0,8.0,215.0,26.0,22.0,-6.0,1
42.0,10.0,213.0,8.0,22.0,-14.0,1
42.0,11.0,214.0,8.0,24.0,-12.0,1
47.0,8.0,221.0,3.0,30.0,-10.0,1
42.0,8.0,213.0,-9.0,35.0,-8.0,1
43.0,10.0,217.0,-20.0,35.0,-7.0,1
44.0,8.0,220.0,-30.0,33.0,-6.0,1
40.0,13.0,220.0,-34.0,31.0,-7.0,1
41.0,10.0,219.0,-39.0,27.0,-9.0,1
42.0,8.0,219.0,-45.0,24.0,-10.0,1
37.0,10.0,218.0,-53.0,20.0,-9.0,1
38.0,9.0,214.0,-61.0,15.0,-11.0,1
36.0,8.0,216.0,-66.0,13.0,-12.0,1
36.0,8.0,213.0,-68.0,11.0,-15.0,1
39.0,6.0,216.0,-68.0,11.0,-17.0,1
38.0,8.0,214.0,-63.0,14.0,-17.0,1
37.0,8.0,216.0,-55.0,17.0,-19.0,1
35.0,8.0,212.0,-43.0,18.0,-15.0,1
32.0,8.0,211.0,-32.0,19.0,-11.0,1
28.0,9.0,211.0,-21.0,17.0,-8.0,1
33.0,8.0,211.0,-12.0,17.0,-6.0,1
37.0,8.0,213.0,-3.0,16.0,-10.0,1
42.0,8.0,214.0,2.0,20.0,-11.0,1
42.0,9.0,213.0,4.0,23.0,-12.0,1
37.0,11.0,211.0,1.0,30.0,-13.0,1
40.0,11.0,213.0,-3.0,35.0,-9.0,1
42.0,10.0,213.0,-10.0,34.0,-1.0,1
41.0,9.0,215.0,-18.0,33.0,4.0,1
43.0,9.0,213.0,-24.0,30.0,6.0,1
63.0,28.0,222.0,-28.0,28.0,7.0,1
35.0,9.0,221.0,-32.0,24.0,10.0,1
40.0,8.0,218.0,-36.0,23.0,12.0,1
38.0,8.0,219.0,-39.0,21.0,10.0,1
40.0,9.0,216.0,-40.0,20.0,11.0,1
41.0,9.0,216.0,-36.0,18.0,10.0,1
41.0,8.0,212.0,-31.0,14.0,9.0,1
42.0,7.0,210.0,-22.0,11.0,5.0,1
40.0,6.0,215.0,-12.0,17.0,0.0,1
41.0,7.0,216.0,-3.0,21.0,1.0,1
38.0,7.0,217.0,6.0,25.0,0.0,1
38.0,4.0,218.0,13.0,29.0,-4.0,1
42.0,7.0,218.0,13.0,34.0,-10.0,1
42.0,2.0,215.0,16.0,38.0,-12.0,1
39.0,5.0,215.0,20.0,38.0,-24.0,1
43.0,7.0,221.0,17.0,41.0,-37.0,1
43.0,4.0,219.0,7.0,44.0,-31.0,1
42.0,8.0,224.0,1.0,35.0,-26.0,1
44.0,7.0,221.0,-2.0,25.0,-24.0,1
43.0,7.0,214.0,4.0,21.0,-27.0,1
44.0,7.0,211.0,14.0,19.0,-25.0,1
39.0,10.0,213.0,31.0,17.0,-25.0,1
39.0,8.0,212.0,51.0,17.0,-24.0,1
40.0,8.0,210.0,73.0,20.0,-25.0,1
38.0,11.0,210.0,87.0,25.0,-27.0,1
37.0,14.0,211.0,92.0,30.0,-31.0,1
39.0,13.0,212.0,83.0,35.0,-32.0,1
37.0,17.0,207.0,70.0,37.0,-33.0,1
41.0,17.0,214.0,50.0,41.0,-31.0,1
40.0,17.0,215.0,27.0,47.0,-34.0,1
40.0,19.0,222.0,4.0,52.0,-34.0,1
44.0,18.0,221.0,-12.0,47.0,-31.0,1
47.0,18.0,223.0,-18.0,40.0,-18.0,1
40.0,15.0,221.0,-22.0,37.0,-8.0,1
42.0,14.0,225.0,-35.0,33.0,-12.0,1
45.0,12.0,225.0,-52.0,30.0,-16.0,1
43.0,13.0,219.0,-70.0,33.0,-19.0,1
39.0,13.0,223.0,-86.0,37.0,-19.0,1
42.0,11.0,225.0,-96.0,43.0,-19.0,1
42.0,11.0,223.0,-101.0,47.0,-17.0,1
40.0,9.0,222.0,-105.0,50.0,-15.0,1
38.0,9.0,217.0,-107.0,51.0,-10.0,1
39.0,10.0,221.0,-106.0,50.0,-8.0,1
39.0,13.0,219.0,-107.0,50.0,-4.0,1
39.0,10.0,222.0,-108.0,47.0,-1.0,1
36.0,15.0,221.0,-111.0,45.0,3.0,1
39.0,12.0,218.0,-116.0,41.0,4.0,1
37.0,15.0,218.0,-126.0,36.0,3.0,1
34.0,12.0,218.0,-136.0,32.0,5.0,1
39.0,12.0,217.0,-148.0,28.0,7.0,1
41.0,10.0,215.0,-163.0,25.0,9.0,1
39.0,11.0,216.0,-176.0,23.0,12.0,1
36.0,9.0,217.0,-189.0,20.0,14.0,1
35.0,12.0,219.0,-198.0,16.0,15.0,1
33.0,10.0,217.0,-207.0,13.0,18.0,1
35.0,8.0,217.0,-211.0,10.0,20.0,1
36.0,9.0,214.0,-211.0,7.0,20.0,1
37.0,8.0,214.0,-214.0,8.0,17.0,1
32.0,8.0,213.0,-209.0,9.0,15.0,1
36.0,8.0,215.0,-201.0,9.0,14.0,1
33.0,7.0,214.0,-190.0,10.0,12.0,1
35.0,9.0,213.0,-178.0,11.0,10.0,1
34.0,7.0,212.0,-164.0,11.0,7.0,1
35.0,4.0,211.0,-149.0,9.0,4.0,1
33.0,5.0,213.0,-130.0,9.0,3.0,1
35.0,5.0,217.0,-115.0,8.0,0.0,1
36.0,5.0,217.0,-104.0,9.0,-2.0,1
37.0,3.0,217.0,-91.0,8.0,-5.0,1
37.0,8.0,217.0,-86.0,6.0,-6.0,1
37.0,5.0,218.0,-82.0,3.0,-7.0,1
37.0,6.0,217.0,-80.0,-1.0,-6.0,1
39.0,6.0,216.0,-82.0,-5.0,-6.0,1
38.0,3.0,219.0,-82.0,-7.0,-6.0,1
40.0,4.0,216.0,-82.0,-8.0,-5.0,1
34.0,8.0,218.0,-85.0,-9.0,-5.0,1
37.0,8.0,220.0,-90.0,-7.0,-2.0,1
40.0,6.0,220.0,-95.0,-6.0,-2.0,1
40.0,8.0,218.0,-100.0,-5.0,0.0,1
41.0,8.0,221.0,-105.0,-4.0,4.0,1
42.0,5.0,218.0,-110.0,-4.0,7.0,1
43.0,8.0,220.0,-114.0,-7.0,11.0,1
43.0,8.0,220.0,-118.0,-9.0,16.0,1
43.0,5.0,219.0,-122.0,-11.0,19.0,1
43.0,7.0,218.0,-126.0,-11.0,18.0,1
44.0,0.0,218.0,-133.0,-10.0,15.0,1
47.0,4.0,218.0,-141.0,-9.0,13.0,1
44.0,9.0,221.0,-147.0,-6.0,14.0,1
45.0,8.0,220.0,-150.0,-5.0,12.0,1
45.0,8.0,220.0,-150.0,-8.0,12.0,1
46.0,8.0,215.0,-151.0,-7.0,13.0,1
42.0,9.0,223.0,-150.0,-7.0,11.0,1
44.0,7.0,220.0,-145.0,-6.0,10.0,1
43.0,8.0,219.0,-139.0,-7.0,6.0,1
43.0,8.0,214.0,-133.0,-9.0,6.0,1
44.0,8.0,214.0,-127.0,-11.0,7.0,1
42.0,2.0,215.0,-124.0,-14.0,7.0,1
41.0,2.0,211.0,-120.0,-18.0,5.0,1
43.0,0.0,209.0,-115.0,-22.0,6.0,1
41.0,1.0,209.0,-107.0,-21.0,5.0,1
42.0,-2.0,212.0,-96.0,-17.0,2.0,1
42.0,-4.0,206.0,-81.0,-12.0,1.0,1
43.0,-3.0,205.0,-67.0,-3.0,-2.0,1
41.0,-1.0,209.0,-52.0,9.0,-3.0,1
41.0,2.0,205.0,-36.0,16.0,-7.0,1
41.0,4.0,206.0,-20.0,21.0,-10.0,1
39.0,7.0,210.0,-8.0,26.0,-12.0,1
40.0,4.0,212.0,-2.0,29.0,-13.0,1
43.0,8.0,212.0,0.0,34.0,-14.0,1
40.0,8.0,216.0,-8.0,36.0,-15.0,1
41.0,7.0,213.0,-19.0,37.0,-14.0,1
41.0,9.0,217.0,-34.0,35.0,-14.0,1
40.0,8.0,212.0,-48.0,33.0,-13.0,1
37.0,9.0,219.0,-62.0,31.0,-12.0,1
37.0,7.0,218.0,-76.0,30.0,-11.0,1
38.0,7.0,218.0,-90.0,31.0,-12.0,1
36.0,9.0,216.0,-100.0,32.0,-13.0,1
32.0,5.0,220.0,-108.0,32.0,-13.0,1
36.0,3.0,219.0,-114.0,35.0,-13.0,1
37.0,5.0,223.0,-120.0,36.0,-10.0,1
37.0,3.0,219.0,-121.0,36.0,-9.0,1
33.0,5.0,218.0,-121.0,36.0,-8.0,1
35.0,4.0,218.0,-117.0,33.0,-4.0,1
36.0,-1.0,220.0,-113.0,29.0,1.0,1
33.0,0.0,218.0,-105.0,24.0,4.0,1
36.0,-2.0,213.0,-95.0,18.0,7.0,1
35.0,-2.0,213.0,-82.0,12.0,9.0,1
38.0,0.0,212.0,-67.0,7.0,8.0,1
37.0,0.0,213.0,-53.0,2.0,8.0,1
34.0,4.0,212.0,-39.0,-2.0,6.0,1
35.0,2.0,212.0,-28.0,-6.0,4.0,1
34.0,5.0,211.0,-19.0,-7.0,1.0,1
33.0,6.0,211.0,-15.0,-5.0,-1.0,1
36.0,7.0,210.0,-16.0,-3.0,-2.0,1
33.0,8.0,210.0,-20.0,1.0,-3.0,1
34.0,8.0,209.0,-25.0,6.0,-3.0,1
36.0,8.0,212.0,-34.0,10.0,-3.0,1
34.0,6.0,213.0,-45.0,15.0,-2.0,1
34.0,7.0,215.0,-56.0,17.0,-2.0,1
34.0,6.0,215.0,-67.0,17.0,-2.0,1
31.0,7.0,216.0,-75.0,16.0,-2.0,1
35.0,8.0,216.0,-86.0,14.0,0.0,1
36.0,5.0,218.0,-93.0,11.0,0.0,1
38.0,2.0,221.0,-97.0,10.0,1.0,1
35.0,-2.0,219.0,-98.0,8.0,2.0,1
37.0,0.0,222.0,-96.0,6.0,2.0,1
38.0,-1.0,222.0,-90.0,3.0,4.0,1
43.0,-2.0,217.0,-84.0,0.0,4.0,1
41.0,-1.0,216.0,-75.0,-3.0,4.0,1
41.0,0.0,218.0,-65.0,-7.0,3.0,1
40.0,3.0,218.0,-54.0,-9.0,2.0,1
40.0,3.0,212.0,-47.0,-14.0,0.0,1
40.0,4.0,218.0,-41.0,-17.0,-2.0,1
42.0,2.0,216.0,-41.0,-15.0,-4.0,1
39.0,1.0,215.0,-39.0,-10.0,-6.0,1
33.0,7.0,210.0,-39.0,-5.0,-8.0,1
38.0,2.0,215.0,-41.0,-2.0,-10.0,1
38.0,5.0,214.0,-46.0,2.0,-10.0,1
40.0,-2.0,215.0,-47.0,5.0,-10.0,1
39.0,-3.0,221.0,-50.0,7.0,-11.0,1
45.0,-3.0,220.0,-52.0,8.0,-11.0,1
42.0,-6.0,217.0,-49.0,7.0,-10.0,1
44.0,-4.0,215.0,-39.0,6.0,-9.0,1
42.0,0.0,216.0,-27.0,4.0,-11.0,1
41.0,-1.0,208.0,-13.0,1.0,-12.0,1
41.0,6.0,209.0,1.0,0.0,-11.0,1
42.0,13.0,201.0,9.0,1.0,-14.0,1
42.0,3.0,217.0,10.0,3.0,-16.0,1
45.0,7.0,211.0,1.0,6.0,-18.0,1
46.0,8.0,213.0,-14.0,9.0,-20.0,1
45.0,7.0,218.0,-30.0,14.0,-20.0,1
44.0,6.0,216.0,-47.0,16.0,-17.0,1
48.0,5.0,220.0,-61.0,20.0,-14.0,1
44.0,3.0,216.0,-69.0,20.0,-11.0,1
40.0,3.0,212.0,-71.0,21.0,-9.0,1
41.0,3.0,217.0,-71.0,19.0,-7.0,1
42.0,3.0,217.0,-67.0,17.0,-5.0,1
47.0,-2.0,226.0,-58.0,15.0,-5.0,1
44.0,1.0,220.0,-53.0,13.0,-4.0,1
41.0,3.0,214.0,-46.0,11.0,-4.0,1
43.0,3.0,214.0,-43.0,10.0,-3.0,1
43.0,8.0,214.0,-39.0,8.0,-4.0,1
46.0,5.0,214.0,-37.0,7.0,-4.0,1
42.0,8.0,213.0,-35.0,7.0,-4.0,1
44.0,1.0,210.0,-35.0,9.0,-4.0,1
40.0,4.0,215.0,-33.0,10.0,-5.0,1
41.0,8.0,212.0,-35.0,13.0,-6.0,1
40.0,4.0,210.0,-36.0,15.0,-8.0,1
33.0,8.0,205.0,-40.0,19.0,-8.0,1
43.0,5.0,215.0,-43.0,22.0,-7.0,1
38.0,2.0,217.0,-49.0,24.0,-9.0,1
36.0,6.0,216.0,-52.0,27.0,-8.0,1
38.0,3.0,218.0,-55.0,29.0,-9.0,1
41.0,3.0,215.0,-56.0,29.0,-7.0,1
37.0,4.0,219.0,-56.0,28.0,-6.0,1
38.0,1.0,219.0,-55.0,27.0,-5.0,1
41.0,-2.0,219.0,-55.0,25.0,-4.0,1
42.0,0.0,214.0,-54.0,24.0,-3.0,1
40.0,0.0,215.0,-53.0,22.0,-3.0,1
39.0,1.0,216.0,-49.0,21.0,-2.0,1
41.0,3.0,215.0,-49.0,20.0,-2.0,1
40.0,0.0,216.0,-48.0,18.0,-4.0,1
35.0,3.0,217.0,-46.0,17.0,-4.0,1
40.0,3.0,215.0,-45.0,14.0,-5.0,1
38.0,3.0,218.0,-43.0,15.0,-6.0,1
36.0,3.0,218.0,-40.0,13.0,-5.0,1
40.0,6.0,215.0,-42.0,13.0,-5.0,1
41.0,3.0,213.0,-44.0,14.0,-5.0,1
37.0,8.0,215.0,-43.0,13.0,-5.0,1
36.0,6.0,212.0,-46.0,15.0,-5.0,1
38.0,1.0,221.0,-48.0,15.0,-6.0,1
37.0,2.0,216.0,-50.0,16.0,-5.0,1
40.0,1.0,217.0,-52.0,17.0,-6.0,1
37.0,2.0,217.0,-51.0,16.0,-5.0,1
36.0,0.0,210.0,-50.0,16.0,-5.0,1
38.0,1.0,217.0,-48.0,17.0,-5.0,1
37.0,-1.0,214.0,-46.0,16.0,-5.0,1
42.0,1.0,216.0,-46.0,14.0,-5.0,1
39.0,5.0,214.0,-45.0,15.0,-7.0,1
38.0,4.0,214.0,-45.0,14.0,-8.0,1
40.0,7.0,217.0,-47.0,14.0,-7.0,1
37.0,5.0,216.0,-51.0,15.0,-8.0,1
41.0,2.0,217.0,-53.0,14.0,-7.0,1
41.0,2.0,218.0,-56.0,15.0,-7.0,1
40.0,3.0,212.0,-57.0,15.0,-7.0,1
39.0,4.0,218.0,-57.0,14.0,-5.0,1
42.0,1.0,215.0,-58.0,13.0,-5.0,1
44.0,1.0,212.0,-55.0,13.0,-3.0,1
42.0,4.0,212.0,-53.0,11.0,-3.0,1
41.0,1.0,216.0,-49.0,10.0,-2.0,1
42.0,3.0,213.0,-48.0,9.0,-4.0,1
40.0,5.0,214.0,-46.0,8.0,-6.0,1
41.0,3.0,212.0,-46.0,6.0,-7.0,1
41.0,8.0,216.0,-45.0,5.0,-8.0,1
41.0,3.0,213.0,-47.0,7.0,-9.0,1
38.0,5.0,215.0,-50.0,8.0,-10.0,1
40.0,2.0,216.0,-51.0,9.0,-12.0,1
40.0,5.0,213.0,-54.0,8.0,-9.0,1
44.0,1.0,212.0,-55.0,7.0,-8.0,1
43.0,2.0,213.0,-56.0,6.0,-7.0,1
43.0,0.0,216.0,-54.0,7.0,-7.0,1
43.0,1.0,218.0,-52.0,6.0,-6.0,1
42.0,4.0,217.0,-47.0,7.0,-5.0,1
43.0,2.0,213.0,-44.0,8.0,-5.0,1
41.0,7.0,214.0,-38.0,11.0,-4.0,1
45.0,3.0,218.0,-35.0,12.0,-6.0,1
42.0,3.0,215.0,-35.0,13.0,-4.0,1
41.0,4.0,216.0,-34.0,16.0,-4.0,1
39.0,7.0,214.0,-35.0,17.0,-5.0,1
41.0,4.0,212.0,-34.0,20.0,-5.0,1
42.0,8.0,217.0,-36.0,20.0,-4.0,1
40.0,6.0,214.0,-38.0,23.0,-5.0,1
44.0,5.0,217.0,-44.0,23.0,-4.0,1
41.0,6.0,212.0,-45.0,24.0,-5.0,1
40.0,5.0,214.0,-46.0,22.0,-6.0,1
40.0,2.0,212.0,-49.0,22.0,-6.0,1
40.0,5.0,217.0,-49.0,19.0,-6.0,1
44.0,0.0,221.0,-48.0,20.0,-5.0,1
42.0,0.0,213.0,-48.0,19.0,-5.0,1
39.0,4.0,210.0,-45.0,19.0,-5.0,1
42.0,1.0,217.0,-45.0,19.0,-5.0,1
38.0,1.0,217.0,-43.0,18.0,-4.0,1
39.0,1.0,219.0,-40.0,17.0,-3.0,1
43.0,0.0,217.0,-40.0,17.0,-5.0,1
41.0,1.0,215.0,-37.0,17.0,-4.0,1
39.0,3.0,216.0,-36.0,18.0,-5.0,1
43.0,0.0,216.0,-36.0,18.0,-5.0,1
40.0,4.0,216.0,-34.0,19.0,-5.0,1
42.0,6.0,218.0,-34.0,20.0,-5.0,1
41.0,-1.0,216.0,-33.0,19.0,-5.0,1
41.0,4.0,216.0,-31.0,20.0,-6.0,1
42.0,4.0,216.0,-29.0,20.0,-4.0,1
40.0,7.0,214.0,-27.0,19.0,-3.0,1
38.0,0.0,211.0,-24.0,18.0,-4.0,1
39.0,5.0,214.0,-23.0,20.0,-5.0,1
39.0,1.0,211.0,-20.0,20.0,-5.0,1
39.0,7.0,214.0,-17.0,20.0,-5.0,1
40.0,7.0,212.0,-17.0,20.0,-6.0,1
39.0,6.0,214.0,-17.0,20.0,-8.0,1
38.0,6.0,215.0,-21.0,23.0,-9.0,1
40.0,5.0,216.0,-24.0,23.0,-10.0,1
41.0,5.0,213.0,-27.0,25.0,-10.0,1
40.0,5.0,218.0,-33.0,25.0,-11.0,1
39.0,8.0,218.0,-39.0,27.0,-12.0,1
41.0,4.0,216.0,-47.0,27.0,-9.0,1
37.0,6.0,217.0,-54.0,27.0,-8.0,1
35.0,7.0,218.0,-60.0,25.0,-7.0,1
39.0,6.0,217.0,-66.0,22.0,-7.0,1
37.0,4.0,217.0,-69.0,18.0,-6.0,1
39.0,6.0,218.0,-72.0,17.0,-6.0,1
38.0,2.0,216.0,-71.0,15.0,-4.0,1
39.0,1.0,213.0,-66.0,13.0,-4.0,1
40.0,-1.0,220.0,-60.0,14.0,-1.0,1
38.0,0.0,211.0,-49.0,13.0,1.0,1
41.0,3.0,214.0,-41.0,11.0,1.0,1
40.0,4.0,212.0,-29.0,9.0,1.0,1
43.0,3.0,214.0,-17.0,7.0,-2.0,1
40.0,5.0,213.0,-7.0,5.0,-4.0,1
38.0,8.0,210.0,-1.0,5.0,-7.0,1
37.0,7.0,212.0,2.0,6.0,-9.0,1
40.0,8.0,217.0,2.0,7.0,-12.0,1
41.0,6.0,214.0,2.0,9.0,-16.0,1
39.0,4.0,212.0,0.0,12.0,-16.0,1
40.0,8.0,212.0,-3.0,15.0,-16.0,1
38.0,4.0,215.0,-11.0,21.0,-17.0,1
39.0,3.0,217.0,-19.0,24.0,-18.0,1
43.0,1.0,216.0,-29.0,27.0,-16.0,1
42.0,4.0,223.0,-37.0,30.0,-14.0,1
41.0,-3.0,220.0,-41.0,30.0,-11.0,1
40.0,-1.0,216.0,-40.0,28.0,-10.0,1
41.0,2.0,216.0,-31.0,25.0,-8.0,1
38.0,1.0,214.0,-20.0,21.0,-8.0,1
42.0,3.0,211.0,-3.0,18.0,-8.0,1
39.0,4.0,213.0,12.0,15.0,-7.0,1
38.0,1.0,213.0,22.0,13.0,-8.0,1
37.0,7.0,215.0,23.0,14.0,-10.0,1
40.0,8.0,208.0,12.0,14.0,-12.0,1
40.0,8.0,210.0,1.0,16.0,-13.0,1
43.0,8.0,217.0,-13.0,16.0,-13.0,1
45.0,6.0,213.0,-25.0,19.0,-10.0,1
41.0,6.0,222.0,-35.0,20.0,-8.0,1
42.0,6.0,217.0,-41.0,22.0,-5.0,1
42.0,2.0,216.0,-41.0,20.0,-4.0,1
39.0,2.0,213.0,-40.0,19.0,-4.0,1
42.0,0.0,220.0,-34.0,17.0,-3.0,1
40.0,6.0,216.0,-27.0,14.0,-3.0,1
41.0,4.0,216.0,-24.0,12.0,-4.0,1
41.0,6.0,217.0,-19.0,10.0,-5.0,1
43.0,8.0,218.0,-16.0,10.0,-6.0,1
41.0,6.0,215.0,-13.0,11.0,-6.0,1
43.0,9.0,216.0,-10.0,12.0,-7.0,1
38.0,10.0,215.0,-7.0,13.0,-7.0,1
40.0,8.0,216.0,-5.0,15.0,-7.0,1
41.0,7.0,216.0,-7.0,17.0,-7.0,1
41.0,8.0,211.0,-6.0,18.0,-6.0,1
43.0,5.0,214.0,-8.0,19.0,-6.0,1
38.0,8.0,219.0,-7.0,20.0,-5.0,1
41.0,7.0,213.0,-9.0,19.0,-3.0,1
42.0,7.0,214.0,-9.0,17.0,-2.0,1
38.0,5.0,214.0,-11.0,17.0,-2.0,1
42.0,7.0,212.0,-11.0,14.0,-1.0,1
40.0,6.0,217.0,-8.0,10.0,0.0,1
38.0,8.0,211.0,-3.0,11.0,0.0,1
41.0,5.0,213.0,4.0,11.0,1.0,1
43.0,3.0,215.0,11.0,11.0,2.0,1
40.0,1.0,211.0,17.0,10.0,1.0,1
41.0,3.0,215.0,22.0,10.0,-1.0,1
40.0,7.0,218.0,22.0,10.0,-1.0,1
38.0,5.0,216.0,22.0,11.0,-1.0,1
42.0,7.0,212.0,22.0,11.0,-1.0,1
38.0,8.0,215.0,20.0,11.0,-3.0,1
40.0,9.0,216.0,16.0,14.0,-5.0,1
41.0,9.0,216.0,12.0,17.0,-5.0,1
39.0,7.0,216.0,8.0,18.0,-7.0,1
39.0,8.0,219.0,4.0,20.0,-10.0,1
42.0,9.0,219.0,-2.0,22.0,-8.0,1
36.0,8.0,219.0,-9.0,24.0,-10.0,1
39.0,8.0,217.0,-16.0,26.0,-10.0,1
40.0,8.0,220.0,-23.0,27.0,-11.0,1
42.0,7.0,218.0,-29.0,27.0,-10.0,1
42.0,8.0,220.0,-37.0,27.0,-11.0,1
41.0,7.0,220.0,-42.0,27.0,-10.0,1
38.0,9.0,217.0,-44.0,26.0,-10.0,1
41.0,6.0,214.0,-44.0,22.0,-9.0,1
40.0,8.0,216.0,-44.0,20.0,-9.0,1
40.0,7.0,214.0,-40.0,17.0,-7.0,1
39.0,7.0,213.0,-39.0,14.0,-8.0,1
39.0,8.0,217.0,-34.0,14.0,-8.0,1
42.0,8.0,217.0,-29.0,13.0,-9.0,1
38.0,8.0,216.0,-28.0,14.0,-10.0,1
36.0,9.0,216.0,-22.0,17.0,-11.0,1
37.0,8.0,213.0,-20.0,17.0,-13.0,1
37.0,8.0,214.0,-20.0,19.0,-12.0,1
40.0,8.0,215.0,-23.0,19.0,-11.0,1
38.0,8.0,214.0,-25.0,19.0,-10.0,1
41.0,8.0,214.0,-27.0,19.0,-8.0,1
43.0,6.0,216.0,-28.0,19.0,-7.0,1
40.0,8.0,218.0,-26.0,20.0,-8.0,1
40.0,8.0,215.0,-24.0,18.0,-8.0,1
39.0,8.0,219.0,-19.0,16.0,-9.0,1
40.0,7.0,218.0,-17.0,14.0,-12.0,1
39.0,10.0,213.0,-15.0,15.0,-13.0,1
40.0,8.0,215.0,-13.0,15.0,-15.0,1
37.0,9.0,220.0,-14.0,17.0,-16.0,1
36.0,7.0,215.0,-15.0,19.0,-16.0,1
40.0,8.0,216.0,-15.0,21.0,-14.0,1
40.0,8.0,211.0,-19.0,24.0,-12.0,1
38.0,8.0,218.0,-18.0,25.0,-10.0,1
42.0,8.0,216.0,-18.0,23.0,-7.0,1
42.0,8.0,216.0,-18.0,20.0,-4.0,1
42.0,8.0,213.0,-16.0,19.0,-1.0,1
42.0,4.0,211.0,-13.0,16.0,1.0,1
41.0,7.0,215.0,-7.0,12.0,2.0,1
40.0,8.0,212.0,-3.0,8.0,3.0,1
43.0,6.0,213.0,1.0,6.0,2.0,1
34.0,2.0,226.0,8.0,5.0,1.0,1
43.0,8.0,212.0,13.0,2.0,-1.0,1
40.0,10.0,212.0,18.0,3.0,-2.0,1
40.0,7.0,217.0,23.0,4.0,-4.0,1
39.0,9.0,210.0,26.0,7.0,-7.0,1
43.0,8.0,211.0,24.0,9.0,-8.0,1
38.0,8.0,214.0,22.0,12.0,-10.0,1
44.0,8.0,212.0,19.0,16.0,-10.0,1
41.0,11.0,217.0,18.0,19.0,-11.0,1
35.0,12.0,215.0,14.0,25.0,-11.0,1
41.0,8.0,214.0,13.0,28.0,-10.0,1
45.0,19.0,218.0,10.0,29.0,-8.0,1
40.0,9.0,218.0,9.0,31.0,-6.0,1
40.0,10.0,218.0,8.0,29.0,-6.0,1
40.0,10.0,211.0,1.0,28.0,-6.0,1
36.0,10.0,217.0,-1.0,26.0,-4.0,1
43.0,8.0,216.0,-3.0,23.0,-2.0,1
42.0,11.0,218.0,-3.0,18.0,-1.0,1
40.0,10.0,215.0,-3.0,15.0,-1.0,1
41.0,9.0,214.0,-3.0,12.0,-2.0,1
38.0,9.0,217.0,-10.0,12.0,-4.0,1
42.0,10.0,212.0,-6.0,12.0,-5.0,1
42.0,6.0,223.0,-3.0,10.0,-1.0,1
40.0,9.0,213.0,-2.0,11.0,-1.0,1
44.0,9.0,218.0,-4.0,10.0,1.0,1
39.0,9.0,216.0,-8.0,10.0,1.0,1
40.0,10.0,221.0,-12.0,7.0,1.0,1
39.0,10.0,214.0,-14.0,4.0,1.0,1
40.0,8.0,216.0,-17.0,1.0,-2.0,1
37.0,10.0,219.0,-18.0,-2.0,-3.0,1
39.0,10.0,220.0,-17.0,-5.0,-5.0,1
36.0,9.0,219.0,-16.0,-6.0,-7.0,1
51.0,10.0,223.0,-12.0,-9.0,-7.0,1
36.0,9.0,215.0,-9.0,-10.0,-8.0,1
35.0,11.0,214.0,-5.0,-11.0,-11.0,1
40.0,10.0,215.0,3.0,-10.0,-9.0,1
37.0,8.0,214.0,12.0,-8.0,-11.0,1
39.0,8.0,214.0,15.0,-6.0,-9.0,1
39.0,9.0,213.0,20.0,-6.0,-9.0,1
37.0,10.0,214.0,22.0,-4.0,-8.0,1
40.0,13.0,217.0,21.0,-1.0,-6.0,1
41.0,13.0,214.0,16.0,1.0,-9.0,1
38.0,11.0,218.0,13.0,3.0,-13.0,1
39.0,10.0,225.0,9.0,4.0,-15.0,1
42.0,12.0,215.0,2.0,6.0,-17.0,1
42.0,13.0,221.0,-6.0,9.0,-17.0,1
41.0,12.0,214.0,-14.0,12.0,-16.0,1
40.0,14.0,219.0,-25.0,15.0,-16.0,1
41.0,13.0,218.0,-34.0,18.0,-15.0,1
39.0,17.0,220.0,-45.0,17.0,-14.0,1
39.0,13.0,218.0,-56.0,16.0,-11.0,1
39.0,13.0,218.0,-63.0,16.0,-9.0,1
43.0,11.0,217.0,-73.0,14.0,-8.0,1
40.0,8.0,219.0,-74.0,11.0,-7.0,1
41.0,8.0,220.0,-77.0,10.0,-7.0,1
43.0,8.0,214.0,-76.0,8.0,-3.0,1
43.0,9.0,214.0,-70.0,8.0,-1.0,1
42.0,8.0,215.0,-62.0,5.0,-1.0,1
41.0,8.0,216.0,-51.0,3.0,0.0,1
43.0,8.0,215.0,-41.0,2.0,-2.0,1
43.0,11.0,213.0,-31.0,-1.0,-4.0,1
40.0,9.0,211.0,-23.0,-4.0,-4.0,1
41.0,11.0,212.0,-17.0,-6.0,-3.0,1
42.0,9.0,210.0,-15.0,-5.0,-6.0,1
38.0,12.0,216.0,-13.0,-1.0,-7.0,1
41.0,10.0,214.0,-15.0,2.0,-11.0,1
40.0,11.0,216.0,-21.0,6.0,-12.0,1
40.0,12.0,216.0,-27.0,10.0,-15.0,1
43.0,9.0,217.0,-37.0,12.0,-17.0,1
41.0,8.0,221.0,-48.0,15.0,-19.0,1
43.0,8.0,224.0,-56.0,17.0,-20.0,1
41.0,10.0,220.0,-60.0,18.0,-19.0,1
43.0,9.0,219.0,-58.0,20.0,-17.0,1
43.0,9.0,215.0,-50.0,20.0,-15.0,1
43.0,8.0,216.0,-38.0,19.0,-16.0,1
42.0,9.0,215.0,-27.0,20.0,-14.0,1
42.0,12.0,215.0,-16.0,20.0,-11.0,1
41.0,10.0,211.0,-12.0,19.0,-9.0,1
37.0,12.0,214.0,-17.0,20.0,-10.0,1
43.0,14.0,214.0,-29.0,20.0,-10.0,1
40.0,16.0,217.0,-46.0,21.0,-11.0,1
44.0,13.0,214.0,-65.0,22.0,-13.0,1
41.0,14.0,220.0,-85.0,23.0,-15.0,1
44.0,13.0,217.0,-98.0,24.0,-16.0,1
41.0,13.0,219.0,-106.0,23.0,-14.0,1
43.0,10.0,217.0,-110.0,21.0,-13.0,1
42.0,10.0,222.0,-110.0,18.0,-12.0,1
43.0,10.0,217.0,-109.0,15.0,-12.0,1
44.0,11.0,216.0,-105.0,10.0,-9.0,1
39.0,13.0,216.0,-101.0,7.0,-9.0,1
43.0,14.0,217.0,-98.0,6.0,-7.0,1
42.0,12.0,217.0,-95.0,4.0,-6.0,1
43.0,10.0,216.0,-92.0,4.0,-6.0,1
42.0,9.0,216.0,-88.0,6.0,-5.0,1
43.0,9.0,213.0,-85.0,8.0,-6.0,1
42.0,10.0,211.0,-83.0,11.0,-7.0,1
40.0,10.0,214.0,-78.0,16.0,-6.0,1
40.0,8.0,216.0,-74.0,19.0,-6.0,1
42.0,11.0,214.0,-71.0,22.0,-4.0,1
44.0,9.0,219.0,-71.0,24.0,-5.0,1
38.0,9.0,224.0,-72.0,22.0,-6.0,1
39.0,8.0,214.0,-73.0,22.0,-5.0,1
38.0,9.0,215.0,-76.0,21.0,-5.0,1
37.0,9.0,216.0,-79.0,20.0,-4.0,1
36.0,9.0,218.0,-81.0,18.0,-1.0,1
40.0,11.0,220.0,-83.0,18.0,-1.0,1
41.0,8.0,212.0,-85.0,17.0,-1.0,1
43.0,8.0,219.0,-86.0,16.0,0.0,1
41.0,9.0,216.0,-87.0,15.0,1.0,1
42.0,8.0,218.0,-88.0,14.0,2.0,1
45.0,10.0,211.0,-91.0,13.0,2.0,1
43.0,9.0,217.0,-91.0,13.0,4.0,1
41.0,8.0,217.0,-90.0,12.0,4.0,1
41.0,8.0,211.0,-88.0,12.0,3.0,1
40.0,8.0,214.0,-87.0,10.0,2.0,1
40.0,9.0,213.0,-81.0,11.0,0.0,1
40.0,10.0,214.0,-77.0,12.0,-1.0,1
44.0,13.0,217.0,-75.0,13.0,-2.0,1
39.0,9.0,217.0,-72.0,13.0,-5.0,1
42.0,9.0,214.0,-70.0,14.0,-5.0,1
43.0,8.0,215.0,-73.0,16.0,-8.0,1
41.0,8.0,210.0,-75.0,18.0,-7.0,1
41.0,10.0,211.0,-80.0,19.0,-9.0,1
42.0,9.0,215.0,-85.0,18.0,-9.0,1
44.0,8.0,216.0,-90.0,19.0,-11.0,1
41.0,8.0,213.0,-93.0,19.0,-11.0,1
42.0,7.0,215.0,-93.0,19.0,-10.0,1
38.0,9.0,217.0,-91.0,19.0,-11.0,1
39.0,8.0,218.0,-87.0,18.0,-13.0,1
42.0,8.0,216.0,-84.0,19.0,-12.0,1
38.0,8.0,218.0,-79.0,18.0,-11.0,1
43.0,4.0,212.0,-77.0,17.0,-12.0,1
40.0,8.0,212.0,-78.0,18.0,-11.0,1
36.0,8.0,218.0,-79.0,17.0,-12.0,1
38.0,9.0,214.0,-82.0,18.0,-12.0,1
43.0,8.0,215.0,-86.0,16.0,-9.0,1
39.0,10.0,219.0,-91.0,17.0,-9.0,1
41.0,8.0,214.0,-94.0,15.0,-6.0,1
43.0,8.0,218.0,-94.0,15.0,-5.0,1
44.0,6.0,215.0,-93.0,15.0,-2.0,1
41.0,9.0,212.0,-92.0,15.0,-1.0,1
39.0,7.0,215.0,-89.0,13.0,0.0,1
39.0,8.0,216.0,-85.0,11.0,-1.0,1
40.0,7.0,214.0,-83.0,9.0,-1.0,1
39.0,13.0,217.0,-80.0,5.0,-4.0,1
36.0,8.0,212.0,-79.0,3.0,-7.0,1
39.0,8.0,216.0,-79.0,2.0,-7.0,1
37.0,8.0,213.0,-79.0,3.0,-10.0,1
39.0,8.0,216.0,-80.0,3.0,-10.0,1
39.0,8.0,215.0,-83.0,4.0,-11.0,1
37.0,8.0,218.0,-84.0,5.0,-10.0,1
38.0,8.0,221.0,-86.0,6.0,-10.0,1
42.0,8.0,216.0,-87.0,7.0,-9.0,1
42.0,8.0,216.0,-86.0,10.0,-7.0,1
42.0,8.0,219.0,-86.0,15.0,-5.0,1
42.0,9.0,220.0,-83.0,18.0,-5.0,1
39.0,8.0,214.0,-80.0,21.0,-4.0,1
42.0,7.0,215.0,-80.0,22.0,-2.0,1
43.0,4.0,216.0,-79.0,24.0,0.0,1
41.0,8.0,215.0,-78.0,23.0,-1.0,1
40.0,8.0,218.0,-77.0,23.0,-2.0,1
43.0,8.0,212.0,-75.0,21.0,-1.0,1
42.0,8.0,216.0,-73.0,18.0,-1.0,1
41.0,8.0,214.0,-72.0,15.0,0.0,1
40.0,9.0,215.0,-72.0,14.0,0.0,1
43.0,9.0,211.0,-72.0,12.0,-2.0,1
44.0,9.0,218.0,-73.0,10.0,-1.0,1
43.0,9.0,218.0,-74.0,9.0,-3.0,1
42.0,5.0,213.0,-75.0,7.0,-1.0,1
41.0,10.0,214.0,-77.0,7.0,-3.0,1
42.0,6.0,215.0,-81.0,6.0,-3.0,1
44.0,8.0,216.0,-85.0,6.0,-3.0,1
43.0,8.0,220.0,-89.0,5.0,-2.0,1
40.0,6.0,218.0,-90.0,5.0,-3.0,1
43.0,7.0,218.0,-90.0,6.0,-3.0,1
43.0,9.0,213.0,-91.0,8.0,-5.0,1
41.0,6.0,213.0,-90.0,11.0,-4.0,1
40.0,7.0,216.0,-90.0,14.0,-4.0,1
45.0,5.0,214.0,-89.0,15.0,-3.0,1
43.0,4.0,217.0,-90.0,17.0,-4.0,1
42.0,8.0,222.0,-88.0,19.0,-5.0,1
43.0,5.0,215.0,-86.0,21.0,-4.0,1
41.0,7.0,213.0,-86.0,22.0,-5.0,1
43.0,3.0,215.0,-83.0,24.0,-6.0,1
44.0,0.0,217.0,-80.0,25.0,-6.0,1
45.0,6.0,214.0,-78.0,26.0,-6.0,1
43.0,6.0,213.0,-75.0,23.0,-6.0,1
43.0,5.0,215.0,-71.0,23.0,-7.0,1
43.0,7.0,215.0,-69.0,22.0,-7.0,1
44.0,8.0,213.0,-68.0,20.0,-6.0,1
43.0,7.0,215.0,-65.0,17.0,-7.0,1
42.0,6.0,214.0,-63.0,13.0,-8.0,1
43.0,7.0,219.0,-63.0,11.0,-10.0,1
44.0,7.0,213.0,-67.0,11.0,-12.0,1
45.0,8.0,217.0,-69.0,11.0,-14.0,1
41.0,8.0,220.0,-73.0,11.0,-14.0,1
46.0,6.0,215.0,-77.0,12.0,-15.0,1
42.0,3.0,218.0,-80.0,14.0,-15.0,1
40.0,6.0,215.0,-81.0,15.0,-13.0,1
42.0,5.0,218.0,-83.0,16.0,-13.0,1
42.0,5.0,214.0,-83.0,16.0,-13.0,1
38.0,7.0,217.0,-83.0,14.0,-13.0,1
41.0,5.0,215.0,-83.0,11.0,-12.0,1
42.0,7.0,218.0,-82.0,8.0,-12.0,1
41.0,5.0,215.0,-82.0,7.0,-12.0,1
37.0,7.0,213.0,-82.0,8.0,-13.0,1
40.0,4.0,215.0,-80.0,9.0,-13.0,1
36.0,7.0,213.0,-79.0,10.0,-15.0,1
38.0,2.0,214.0,-78.0,13.0,-15.0,1
41.0,7.0,213.0,-78.0,14.0,-15.0,1
40.0,4.0,217.0,-77.0,13.0,-13.0,1
36.0,7.0,212.0,-79.0,12.0,-13.0,1
38.0,2.0,215.0,-80.0,12.0,-11.0,1
42.0,4.0,214.0,-82.0,9.0,-10.0,1
39.0,5.0,214.0,-81.0,9.0,-10.0,1
43.0,1.0,212.0,-80.0,9.0,-9.0,1
42.0,0.0,213.0,-77.0,9.0,-7.0,1
38.0,4.0,218.0,-72.0,9.0,-7.0,1
43.0,0.0,218.0,-66.0,9.0,-4.0,1
41.0,0.0,216.0,-59.0,7.0,-4.0,1
42.0,3.0,212.0,-53.0,4.0,-2.0,1
40.0,7.0,214.0,-43.0,5.0,-3.0,1
41.0,3.0,211.0,-35.0,4.0,-4.0,1
43.0,6.0,214.0,-29.0,6.0,-6.0,1
42.0,5.0,211.0,-26.0,5.0,-6.0,1
40.0,8.0,213.0,-24.0,9.0,-7.0,1
41.0,8.0,214.0,-24.0,11.0,-10.0,1
40.0,8.0,213.0,-26.0,13.0,-10.0,1
39.0,6.0,219.0,-30.0,16.0,-11.0,1
39.0,4.0,215.0,-34.0,19.0,-11.0,1
43.0,5.0,218.0,-43.0,21.0,-12.0,1
38.0,6.0,218.0,-50.0,24.0,-11.0,1
41.0,3.0,217.0,-57.0,27.0,-10.0,1
45.0,-1.0,219.0,-57.0,26.0,-7.0,1
41.0,0.0,218.0,-48.0,24.0,-5.0,1
44.0,-2.0,212.0,-36.0,18.0,-3.0,1
44.0,0.0,212.0,-22.0,12.0,-3.0,1
41.0,4.0,211.0,-6.0,8.0,-7.0,1
41.0,2.0,212.0,8.0,4.0,-7.0,1
38.0,8.0,211.0,15.0,4.0,-6.0,1
37.0,7.0,211.0,10.0,4.0,-7.0,1
40.0,8.0,214.0,-5.0,5.0,-7.0,1
43.0,8.0,215.0,-23.0,8.0,-8.0,1
41.0,8.0,214.0,-40.0,11.0,-8.0,1
43.0,6.0,217.0,-51.0,15.0,-6.0,1
45.0,4.0,214.0,-56.0,22.0,-6.0,1
41.0,6.0,215.0,-56.0,25.0,-5.0,1
43.0,4.0,216.0,-51.0,27.0,-3.0,1
45.0,3.0,214.0,-43.0,26.0,-2.0,1
43.0,7.0,214.0,-33.0,24.0,-3.0,1
30.0,7.0,220.0,-25.0,23.0,-2.0,1
44.0,8.0,216.0,-19.0,21.0,-3.0,1
43.0,4.0,212.0,-13.0,17.0,-1.0,1
44.0,7.0,215.0,-8.0,15.0,-3.0,1
45.0,9.0,211.0,-7.0,16.0,-1.0,1
43.0,7.0,215.0,-6.0,16.0,-1.0,1
45.0,8.0,212.0,-5.0,15.0,-2.0,1
43.0,9.0,213.0,-4.0,17.0,-1.0,1
42.0,8.0,214.0,-3.0,20.0,-1.0,1
40.0,8.0,218.0,1.0,20.0,-2.0,1
42.0,8.0,216.0,5.0,21.0,-2.0,1
47.0,6.0,206.0,8.0,23.0,-2.0,1
39.0,5.0,211.0,9.0,24.0,0.0,1
42.0,3.0,217.0,9.0,24.0,-1.0,1
38.0,8.0,216.0,6.0,24.0,-1.0,1
44.0,5.0,215.0,4.0,25.0,-2.0,1
41.0,8.0,217.0,2.0,24.0,-2.0,1
38.0,8.0,212.0,1.0,25.0,-3.0,1
41.0,8.0,214.0,0.0,26.0,-2.0,1
43.0,6.0,214.0,-2.0,28.0,1.0,1
39.0,8.0,217.0,-2.0,28.0,1.0,1
40.0,8.0,215.0,-6.0,30.0,1.0,1
49.0,3.0,225.0,-7.0,28.0,1.0,1
42.0,6.0,215.0,-9.0,29.0,2.0,1
43.0,8.0,217.0,-10.0,28.0,4.0,1
41.0,8.0,213.0,-8.0,27.0,3.0,1
42.0,8.0,218.0,-6.0,25.0,3.0,1
35.0,6.0,218.0,-3.0,24.0,5.0,1
36.0,7.0,209.0,1.0,20.0,5.0,1
39.0,8.0,214.0,2.0,19.0,5.0,1
41.0,8.0,211.0,4.0,16.0,6.0,1
38.0,8.0,214.0,3.0,13.0,5.0,1
40.0,8.0,211.0,2.0,13.0,3.0,1
33.0,8.0,220.0,-1.0,13.0,2.0,1
42.0,6.0,215.0,-5.0,16.0,1.0,1
41.0,8.0,212.0,-8.0,16.0,-1.0,1
40.0,8.0,217.0,-12.0,18.0,-3.0,1
41.0,8.0,219.0,-14.0,20.0,-4.0,1
42.0,8.0,217.0,-14.0,23.0,-5.0,1
39.0,4.0,217.0,-13.0,24.0,-7.0,1
44.0,5.0,214.0,-7.0,25.0,-6.0,1
40.0,8.0,215.0,-3.0,26.0,-6.0,1
40.0,7.0,214.0,0.0,26.0,-6.0,1
41.0,8.0,216.0,3.0,26.0,-9.0,1
33.0,8.0,209.0,3.0,26.0,-7.0,1
39.0,8.0,215.0,1.0,23.0,-8.0,1
39.0,9.0,218.0,-3.0,22.0,-8.0,1
42.0,9.0,220.0,-7.0,19.0,-8.0,1
43.0,8.0,216.0,-12.0,18.0,-9.0,1
41.0,8.0,213.0,-15.0,16.0,-7.0,1
42.0,8.0,212.0,-18.0,15.0,-5.0,1
38.0,8.0,216.0,-17.0,14.0,-4.0,1
40.0,8.0,215.0,-17.0,13.0,-3.0,1
37.0,10.0,215.0,-15.0,13.0,-4.0,1
40.0,8.0,215.0,-9.0,11.0,-5.0,1
40.0,8.0,213.0,-4.0,13.0,-7.0,1
40.0,8.0,214.0,1.0,12.0,-10.0,1
40.0,9.0,213.0,7.0,14.0,-11.0,1
42.0,8.0,214.0,9.0,15.0,-11.0,1
37.0,9.0,213.0,12.0,17.0,-12.0,1
41.0,8.0,214.0,15.0,21.0,-12.0,1
40.0,8.0,211.0,19.0,21.0,-10.0,1
42.0,8.0,213.0,22.0,21.0,-8.0,1
40.0,9.0,215.0,26.0,20.0,-6.0,1
41.0,8.0,216.0,29.0,20.0,-6.0,1
45.0,7.0,212.0,33.0,19.0,-4.0,1
41.0,8.0,216.0,36.0,18.0,-3.0,1
40.0,10.0,216.0,38.0,17.0,-1.0,1
40.0,8.0,213.0,41.0,18.0,-1.0,1
42.0,10.0,217.0,42.0,19.0,0.0,1
42.0,8.0,215.0,46.0,21.0,1.0,1
43.0,10.0,217.0,49.0,21.0,1.0,1
42.0,10.0,215.0,50.0,22.0,3.0,1
41.0,13.0,216.0,52.0,21.0,4.0,1
44.0,10.0,213.0,53.0,20.0,5.0,1
43.0,14.0,214.0,54.0,21.0,4.0,1
42.0,13.0,219.0,54.0,21.0,4.0,1
43.0,11.0,217.0,50.0,19.0,4.0,1
41.0,12.0,218.0,48.0,16.0,4.0,1
44.0,11.0,212.0,42.0,13.0,3.0,1
43.0,9.0,214.0,34.0,10.0,2.0,1
42.0,11.0,218.0,26.0,8.0,0.0,1
41.0,11.0,217.0,17.0,10.0,-3.0,1
40.0,11.0,219.0,7.0,12.0,-6.0,1
41.0,12.0,217.0,-2.0,16.0,-7.0,1
42.0,10.0,218.0,-8.0,18.0,-8.0,1
42.0,10.0,217.0,-12.0,22.0,-11.0,1
40.0,12.0,220.0,-16.0,26.0,-13.0,1
43.0,11.0,221.0,-17.0,31.0,-12.0,1
43.0,9.0,216.0,-18.0,35.0,-11.0,1
43.0,11.0,217.0,-17.0,35.0,-11.0,1
39.0,11.0,219.0,-17.0,36.0,-10.0,1
41.0,10.0,219.0,-15.0,35.0,-8.0,1
35.0,11.0,214.0,-11.0,33.0,-7.0,1
39.0,9.0,213.0,-5.0,29.0,-4.0,1
38.0,10.0,213.0,3.0,27.0,-2.0,1
37.0,14.0,216.0,12.0,23.0,-1.0,1
41.0,9.0,214.0,20.0,21.0,-1.0,1
37.0,10.0,213.0,30.0,16.0,2.0,1
38.0,10.0,213.0,34.0,12.0,1.0,1
39.0,9.0,213.0,35.0,9.0,0.0,1
37.0,12.0,215.0,32.0,5.0,-2.0,1
40.0,13.0,211.0,29.0,0.0,0.0,1
39.0,12.0,214.0,30.0,-2.0,1.0,1
41.0,16.0,211.0,29.0,-2.0,1.0,1
40.0,13.0,212.0,28.0,2.0,2.0,1
41.0,18.0,220.0,30.0,4.0,2.0,1
41.0,16.0,219.0,30.0,7.0,3.0,1
41.0,16.0,217.0,26.0,10.0,3.0,1
40.0,13.0,216.0,22.0,16.0,2.0,1
41.0,13.0,214.0,14.0,24.0,2.0,1
42.0,12.0,218.0,10.0,28.0,4.0,1
40.0,10.0,222.0,8.0,30.0,5.0,1
41.0,13.0,214.0,4.0,31.0,7.0,1
43.0,13.0,217.0,1.0,29.0,9.0,1
40.0,12.0,218.0,2.0,25.0,9.0,1
39.0,10.0,219.0,-5.0,20.0,7.0,1
39.0,14.0,217.0,5.0,16.0,5.0,1
38.0,12.0,216.0,24.0,14.0,0.0,1
42.0,10.0,216.0,41.0,10.0,-3.0,1
39.0,15.0,214.0,49.0,11.0,-11.0,1
37.0,14.0,212.0,62.0,10.0,-18.0,1
42.0,11.0,213.0,73.0,8.0,-15.0,1
39.0,11.0,216.0,77.0,17.0,-3.0,1
40.0,12.0,214.0,79.0,25.0,1.0,1
39.0,17.0,214.0,77.0,27.0,-1.0,1
44.0,19.0,214.0,72.0,28.0,0.0,1
40.0,16.0,216.0,71.0,33.0,9.0,1
41.0,16.0,217.0,72.0,34.0,6.0,1
38.0,17.0,218.0,64.0,29.0,-2.0,1
42.0,16.0,221.0,50.0,27.0,-6.0,1
41.0,16.0,219.0,37.0,29.0,-9.0,1
43.0,17.0,220.0,26.0,28.0,-8.0,1
44.0,17.0,216.0,18.0,26.0,-6.0,1
42.0,15.0,221.0,16.0,22.0,-5.0,1
40.0,18.0,215.0,13.0,18.0,-4.0,1
41.0,18.0,222.0,11.0,16.0,1.0,1
39.0,19.0,215.0,12.0,15.0,0.0,1
40.0,16.0,217.0,12.0,13.0,-3.0,1
38.0,18.0,219.0,12.0,15.0,-5.0,1
41.0,18.0,213.0,8.0,18.0,-5.0,1
41.0,15.0,220.0,2.0,23.0,-8.0,1
41.0,16.0,214.0,-6.0,27.0,-10.0,1
40.0,15.0,218.0,-14.0,31.0,-13.0,1
40.0,14.0,217.0,-25.0,34.0,-14.0,1
43.0,16.0,223.0,-36.0,35.0,-14.0,1
44.0,13.0,225.0,-46.0,36.0,-16.0,1
45.0,13.0,225.0,-49.0,34.0,-17.0,1
43.0,15.0,216.0,-43.0,31.0,-17.0,1
41.0,14.0,214.0,-31.0,30.0,-18.0,1
42.0,13.0,212.0,-19.0,33.0,-22.0,1
41.0,15.0,216.0,-2.0,37.0,-22.0,1
41.0,15.0,212.0,12.0,42.0,-20.0,1
39.0,20.0,214.0,21.0,49.0,-15.0,1
46.0,18.0,213.0,21.0,52.0,-12.0,1
43.0,21.0,215.0,13.0,55.0,-14.0,1
43.0,20.0,217.0,-4.0,54.0,-16.0,1
40.0,21.0,215.0,-23.0,51.0,-14.0,1
46.0,21.0,217.0,-45.0,50.0,-13.0,1
41.0,22.0,220.0,-63.0,46.0,-10.0,1
38.0,19.0,221.0,-77.0,41.0,-10.0,1
38.0,18.0,214.0,-83.0,38.0,-9.0,1
42.0,18.0,215.0,-84.0,32.0,-9.0,1
39.0,16.0,217.0,-82.0,26.0,-5.0,1
37.0,15.0,220.0,-80.0,21.0,-3.0,1
