ax,ay,az,gx,gy,gz,label
25.0,-244.0,-19.0,68.0,6.0,-17.0,1
22.0,-246.0,-16.0,65.0,3.0,-15.0,1
19.0,-244.0,-16.0,64.0,0.0,-13.0,1
23.0,-244.0,-21.0,61.0,-3.0,-13.0,1
25.0,-243.0,-13.0,58.0,-3.0,-13.0,1
23.0,-246.0,-20.0,52.0,-2.0,-15.0,1
26.0,-243.0,-18.0,51.0,-3.0,-18.0,1
25.0,-241.0,-14.0,48.0,-3.0,-20.0,1
24.0,-242.0,-11.0,49.0,-4.0,-19.0,1
23.0,-244.0,-15.0,49.0,-2.0,-19.0,1
24.0,-247.0,-19.0,54.0,-5.0,-18.0,1
24.0,-246.0,-21.0,60.0,-4.0,-14.0,1
23.0,-248.0,-19.0,64.0,-5.0,-12.0,1
25.0,-246.0,-20.0,66.0,-5.0,-10.0,1
25.0,-250.0,-17.0,66.0,-5.0,-8.0,1
27.0,-252.0,-23.0,64.0,-5.0,-8.0,1
29.0,-248.0,-17.0,63.0,-4.0,-6.0,1
26.0,-246.0,-17.0,59.0,-4.0,-8.0,1
25.0,-249.0,-18.0,57.0,-2.0,-10.0,1
28.0,-248.0,-19.0,54.0,-1.0,-11.0,1
23.0,-242.0,-22.0,49.0,-1.0,-12.0,1
22.0,-243.0,-18.0,47.0,0.0,-13.0,1
24.0,-242.0,-21.0,44.0,0.0,-12.0,1
25.0,-241.0,-19.0,43.0,2.0,-11.0,1
26.0,-244.0,-20.0,41.0,6.0,-11.0,1
27.0,-246.0,-16.0,40.0,9.0,-10.0,1
25.0,-242.0,-18.0,38.0,13.0,-9.0,1
27.0,-243.0,-21.0,36.0,16.0,-9.0,1
26.0,-245.0,-17.0,34.0,18.0,-7.0,1
25.0,-246.0,-18.0,32.0,18.0,-6.0,1
26.0,-245.0,-19.0,30.0,18.0,-4.0,1
28.0,-247.0,-22.0,31.0,18.0,-2.0,1
27.0,-245.0,-14.0,29.0,19.0,-1.0,1
26.0,-245.0,-17.0,28.0,18.0,0.0,1
30.0,-248.0,-20.0,28.0,18.0,2.0,1
23.0,-245.0,-19.0,27.0,17.0,2.0,1
30.0,-251.0,-15.0,26.0,16.0,4.0,1
26.0,-245.0,-15.0,24.0,16.0,4.0,1
27.0,-245.0,-14.0,23.0,17.0,1.0,1
27.0,-246.0,-15.0,21.0,19.0,-1.0,1
26.0,-242.0,-18.0,19.0,21.0,1.0,1
26.0,-243.0,-20.0,19.0,19.0,1.0,1
28.0,-244.0,-15.0,17.0,20.0,1.0,1
27.0,-246.0,-18.0,18.0,20.0,2.0,1
26.0,-244.0,-14.0,15.0,19.0,6.0,1
28.0,-248.0,-17.0,13.0,22.0,3.0,1
23.0,-246.0,-15.0,13.0,23.0,3.0,1
28.0,-245.0,-19.0,11.0,24.0,3.0,1
34.0,-245.0,-19.0,11.0,24.0,4.0,1
31.0,-252.0,-17.0,11.0,23.0,2.0,1
28.0,-245.0,-13.0,10.0,22.0,4.0,1
27.0,-246.0,-18.0,7.0,19.0,3.0,1
27.0,-244.0,-15.0,3.0,17.0,5.0,1
29.0,-245.0,-18.0,3.0,14.0,5.0,1
28.0,-247.0,-19.0,3.0,11.0,5.0,1
26.0,-244.0,-15.0,4.0,6.0,7.0,1
28.0,-242.0,-18.0,4.0,2.0,6.0,1
27.0,-244.0,-16.0,4.0,0.0,9.0,1
27.0,-245.0,-17.0,3.0,-2.0,11.0,1
27.0,-245.0,-22.0,3.0,-3.0,10.0,1
28.0,-246.0,-18.0,1.0,-2.0,11.0,1
27.0,-242.0,-19.0,1.0,-3.0,11.0,1
30.0,-244.0,-14.0,-3.0,-2.0,11.0,1
33.0,-244.0,-20.0,-4.0,-2.0,11.0,1
30.0,-243.0,-16.0,-5.0,-2.0,9.0,1
35.0,-247.0,-15.0,-6.0,-1.0,10.0,1
32.0,-245.0,-20.0,-8.0,-1.0,13.0,1
36.0,-245.0,-14.0,-9.0,-1.0,14.0,1
32.0,-244.0,-16.0,-11.0,0.0,14.0,1
37.0,-239.0,-13.0,-12.0,0.0,15.0,1
32.0,-243.0,-13.0,-14.0,0.0,17.0,1
37.0,-241.0,-15.0,-16.0,2.0,17.0,1
34.0,-237.0,-14.0,-16.0,4.0,18.0,1
35.0,-240.0,-15.0,-18.0,4.0,21.0,1
39.0,-239.0,-9.0,-19.0,5.0,24.0,1
35.0,-238.0,-15.0,-22.0,5.0,23.0,1
38.0,-234.0,-13.0,-27.0,2.0,25.0,1
38.0,-242.0,-13.0,-30.0,2.0,27.0,1
37.0,-242.0,-13.0,-32.0,2.0,28.0,1
34.0,-238.0,-17.0,-33.0,1.0,27.0,1
43.0,-247.0,-20.0,-29.0,-1.0,27.0,1
40.0,-243.0,-9.0,-23.0,-1.0,29.0,1
37.0,-242.0,-10.0,-18.0,0.0,31.0,1
37.0,-247.0,-9.0,-14.0,0.0,30.0,1
35.0,-246.0,-10.0,-11.0,2.0,30.0,1
34.0,-247.0,-10.0,-5.0,4.0,32.0,1
35.0,-249.0,-8.0,2.0,4.0,34.0,1
34.0,-251.0,-8.0,11.0,3.0,37.0,1
37.0,-249.0,-6.0,27.0,2.0,42.0,1
38.0,-250.0,-8.0,42.0,1.0,44.0,1
36.0,-244.0,-6.0,44.0,0.0,47.0,1
37.0,-245.0,-4.0,44.0,-1.0,48.0,1
39.0,-246.0,-5.0,42.0,-3.0,46.0,1
38.0,-245.0,-2.0,40.0,-7.0,45.0,1
38.0,-239.0,-7.0,42.0,-8.0,42.0,1
41.0,-244.0,-6.0,43.0,-9.0,38.0,1
39.0,-238.0,-6.0,36.0,-10.0,34.0,1
37.0,-238.0,-8.0,31.0,-15.0,31.0,1
41.0,-241.0,-7.0,27.0,-23.0,28.0,1
40.0,-241.0,-6.0,18.0,-29.0,24.0,1
40.0,-243.0,-6.0,7.0,-36.0,21.0,1
38.0,-243.0,-8.0,1.0,-46.0,20.0,1
30.0,-237.0,-9.0,-5.0,-48.0,18.0,1
38.0,-241.0,-5.0,-11.0,-48.0,14.0,1
40.0,-244.0,-10.0,-14.0,-49.0,13.0,1
41.0,-247.0,-8.0,-16.0,-47.0,9.0,1
45.0,-251.0,-10.0,-18.0,-44.0,9.0,1
44.0,-249.0,-8.0,-19.0,-40.0,6.0,1
41.0,-251.0,-4.0,-23.0,-34.0,1.0,1
46.0,-251.0,-8.0,-26.0,-35.0,0.0,1
44.0,-253.0,-10.0,-27.0,-29.0,-2.0,1
47.0,-253.0,-8.0,-30.0,-23.0,-6.0,1
44.0,-251.0,-14.0,-32.0,-21.0,-9.0,1
41.0,-249.0,-14.0,-39.0,-17.0,-12.0,1
48.0,-244.0,-10.0,-41.0,-14.0,-17.0,1
46.0,-243.0,-13.0,-45.0,-11.0,-21.0,1
41.0,-239.0,-15.0,-50.0,-10.0,-26.0,1
40.0,-235.0,-11.0,-55.0,-14.0,-30.0,1
46.0,-238.0,-12.0,-61.0,-12.0,-34.0,1
41.0,-235.0,-15.0,-70.0,-8.0,-42.0,1
41.0,-235.0,-12.0,-79.0,-4.0,-46.0,1
37.0,-234.0,-14.0,-87.0,-4.0,-48.0,1
37.0,-229.0,-17.0,-101.0,4.0,-53.0,1
41.0,-235.0,-13.0,-116.0,10.0,-57.0,1
43.0,-226.0,-24.0,-128.0,20.0,-60.0,1
38.0,-232.0,-22.0,-142.0,32.0,-62.0,1
44.0,-236.0,-19.0,-152.0,40.0,-64.0,1
42.0,-236.0,-17.0,-164.0,52.0,-66.0,1
43.0,-241.0,-21.0,-170.0,61.0,-65.0,1
44.0,-240.0,-22.0,-174.0,68.0,-66.0,1
43.0,-247.0,-18.0,-175.0,77.0,-64.0,1
43.0,-249.0,-25.0,-171.0,81.0,-60.0,1
43.0,-251.0,-27.0,-166.0,85.0,-55.0,1
44.0,-256.0,-22.0,-160.0,89.0,-53.0,1
40.0,-254.0,-28.0,-158.0,94.0,-49.0,1
38.0,-253.0,-32.0,-156.0,101.0,-43.0,1
35.0,-254.0,-28.0,-157.0,110.0,-41.0,1
34.0,-251.0,-29.0,-153.0,119.0,-39.0,1
32.0,-254.0,-30.0,-147.0,128.0,-37.0,1
32.0,-257.0,-27.0,-144.0,132.0,-34.0,1
29.0,-257.0,-27.0,-139.0,134.0,-28.0,1
29.0,-259.0,-26.0,-134.0,133.0,-24.0,1
27.0,-260.0,-28.0,-129.0,131.0,-19.0,1
26.0,-258.0,-26.0,-122.0,129.0,-11.0,1
28.0,-256.0,-28.0,-115.0,127.0,1.0,1
25.0,-259.0,-30.0,-111.0,126.0,11.0,1
22.0,-257.0,-32.0,-113.0,125.0,20.0,1
22.0,-254.0,-32.0,-120.0,121.0,30.0,1
19.0,-249.0,-39.0,-134.0,114.0,37.0,1
20.0,-248.0,-41.0,-152.0,104.0,46.0,1
15.0,-246.0,-35.0,-169.0,94.0,53.0,1
12.0,-243.0,-40.0,-181.0,84.0,61.0,1
8.0,-240.0,-31.0,-185.0,71.0,68.0,1
7.0,-243.0,-35.0,-177.0,55.0,77.0,1
5.0,-236.0,-34.0,-169.0,41.0,85.0,1
1.0,-233.0,-36.0,-168.0,31.0,86.0,1
-8.0,-238.0,-35.0,-175.0,24.0,85.0,1
-6.0,-232.0,-30.0,-182.0,17.0,84.0,1
-8.0,-231.0,-27.0,-176.0,12.0,82.0,1
-11.0,-228.0,-29.0,-168.0,5.0,82.0,1
-11.0,-226.0,-26.0,-176.0,-1.0,76.0,1
-12.0,-226.0,-22.0,-193.0,-4.0,72.0,1
-14.0,-231.0,-13.0,-212.0,-7.0,63.0,1
-12.0,-235.0,-12.0,-215.0,-11.0,66.0,1
-9.0,-240.0,-14.0,-193.0,-17.0,78.0,1
-9.0,-250.0,-5.0,-170.0,-18.0,85.0,1
-1.0,-252.0,0.0,-122.0,-17.0,96.0,1
16.0,-254.0,1.0,-82.0,-4.0,99.0,1
18.0,-252.0,-8.0,-92.0,29.0,93.0,1
24.0,-254.0,-10.0,-145.0,76.0,91.0,1
35.0,-255.0,-9.0,-207.0,123.0,97.0,1
39.0,-263.0,-11.0,-262.0,163.0,105.0,1
42.0,-267.0,-7.0,-306.0,190.0,107.0,1
40.0,-275.0,-8.0,-325.0,201.0,109.0,1
43.0,-275.0,-15.0,-332.0,205.0,111.0,1
38.0,-276.0,-18.0,-335.0,210.0,114.0,1
30.0,-276.0,-20.0,-342.0,218.0,121.0,1
26.0,-275.0,-23.0,-344.0,223.0,134.0,1
13.0,-287.0,-19.0,-345.0,226.0,150.0,1
4.0,-273.0,-23.0,-340.0,228.0,164.0,1
-6.0,-269.0,-26.0,-340.0,229.0,183.0,1
-15.0,-268.0,-24.0,-339.0,224.0,203.0,1
-20.0,-266.0,-26.0,-333.0,220.0,219.0,1
-24.0,-264.0,-23.0,-321.0,212.0,232.0,1
-28.0,-260.0,-23.0,-308.0,200.0,240.0,1
-29.0,-258.0,-18.0,-295.0,189.0,245.0,1
-29.0,-249.0,-21.0,-278.0,176.0,246.0,1
-27.0,-247.0,-19.0,-263.0,163.0,242.0,1
-24.0,-244.0,-23.0,-248.0,149.0,238.0,1
-19.0,-237.0,-24.0,-237.0,136.0,233.0,1
-11.0,-233.0,-28.0,-228.0,121.0,232.0,1
-6.0,-235.0,-24.0,-222.0,108.0,229.0,1
-3.0,-233.0,-24.0,-218.0,95.0,226.0,1
0.0,-230.0,-24.0,-215.0,83.0,223.0,1
7.0,-227.0,-29.0,-214.0,73.0,220.0,1
7.0,-230.0,-30.0,-214.0,68.0,219.0,1
9.0,-227.0,-26.0,-215.0,66.0,216.0,1
14.0,-226.0,-26.0,-221.0,66.0,215.0,1
19.0,-230.0,-24.0,-229.0,71.0,213.0,1
12.0,-225.0,-28.0,-239.0,79.0,211.0,1
16.0,-226.0,-33.0,-242.0,88.0,208.0,1
18.0,-228.0,-29.0,-246.0,94.0,205.0,1
17.0,-224.0,-32.0,-251.0,107.0,202.0,1
20.0,-223.0,-29.0,-259.0,124.0,198.0,1
15.0,-224.0,-29.0,-267.0,148.0,192.0,1
14.0,-223.0,-28.0,-265.0,171.0,188.0,1
16.0,-225.0,-26.0,-260.0,196.0,185.0,1
14.0,-228.0,-24.0,-254.0,216.0,180.0,1
17.0,-223.0,-20.0,-247.0,236.0,179.0,1
17.0,-228.0,-20.0,-243.0,260.0,175.0,1
15.0,-227.0,-22.0,-235.0,283.0,175.0,1
16.0,-229.0,-19.0,-227.0,305.0,174.0,1
15.0,-232.0,-23.0,-218.0,328.0,174.0,1
17.0,-233.0,-22.0,-213.0,348.0,173.0,1
16.0,-238.0,-18.0,-207.0,368.0,171.0,1
17.0,-238.0,-20.0,-200.0,387.0,167.0,1
18.0,-242.0,-21.0,-193.0,404.0,162.0,1
17.0,-244.0,-19.0,-185.0,422.0,154.0,1
18.0,-243.0,-23.0,-172.0,438.0,144.0,1
14.0,-248.0,-21.0,-162.0,455.0,135.0,1
17.0,-250.0,-21.0,-152.0,471.0,126.0,1
17.0,-255.0,-15.0,-141.0,489.0,114.0,1
15.0,-259.0,-18.0,-129.0,506.0,105.0,1
14.0,-258.0,-17.0,-115.0,523.0,97.0,1
14.0,-267.0,-20.0,-100.0,540.0,86.0,1
15.0,-266.0,-16.0,-86.0,555.0,74.0,1
12.0,-270.0,-17.0,-75.0,569.0,64.0,1
8.0,-270.0,-11.0,-61.0,579.0,52.0,1
11.0,-271.0,-14.0,-47.0,587.0,41.0,1
2.0,-267.0,-16.0,-30.0,591.0,33.0,1
-3.0,-269.0,-9.0,-11.0,590.0,23.0,1
-4.0,-270.0,-9.0,6.0,582.0,19.0,1
-8.0,-266.0,-5.0,24.0,569.0,17.0,1
-21.0,-259.0,-10.0,40.0,550.0,17.0,1
-25.0,-263.0,-5.0,55.0,528.0,19.0,1
-31.0,-262.0,-6.0,64.0,507.0,24.0,1
-34.0,-261.0,-7.0,73.0,485.0,29.0,1
-34.0,-261.0,-6.0,82.0,465.0,34.0,1
-37.0,-262.0,-4.0,86.0,447.0,38.0,1
-39.0,-260.0,-1.0,92.0,430.0,41.0,1
-33.0,-262.0,-3.0,98.0,415.0,42.0,1
-34.0,-269.0,-3.0,100.0,400.0,40.0,1
-33.0,-265.0,-6.0,101.0,386.0,36.0,1
-20.0,-270.0,-5.0,97.0,372.0,32.0,1
-21.0,-274.0,-8.0,90.0,359.0,25.0,1
-18.0,-274.0,-8.0,85.0,346.0,21.0,1
-14.0,-277.0,-10.0,81.0,329.0,17.0,1
-10.0,-285.0,-11.0,77.0,311.0,17.0,1
-5.0,-297.0,-21.0,78.0,287.0,22.0,1
-6.0,-303.0,-22.0,79.0,266.0,28.0,1
-2.0,-312.0,-32.0,79.0,244.0,39.0,1
-4.0,-323.0,-42.0,71.0,225.0,51.0,1
-4.0,-331.0,-52.0,61.0,202.0,68.0,1
-6.0,-331.0,-55.0,53.0,177.0,88.0,1
-9.0,-332.0,-56.0,55.0,145.0,108.0,1
-12.0,-333.0,-56.0,74.0,106.0,128.0,1
-15.0,-325.0,-60.0,107.0,62.0,143.0,1
-15.0,-317.0,-66.0,149.0,19.0,150.0,1
-10.0,-307.0,-69.0,183.0,-18.0,142.0,1
-5.0,-300.0,-72.0,208.0,-45.0,127.0,1
-2.0,-292.0,-74.0,224.0,-58.0,106.0,1
3.0,-281.0,-73.0,238.0,-61.0,84.0,1
7.0,-275.0,-77.0,252.0,-49.0,61.0,1
16.0,-263.0,-76.0,268.0,-21.0,39.0,1
18.0,-265.0,-76.0,286.0,16.0,19.0,1
31.0,-257.0,-73.0,304.0,60.0,3.0,1
36.0,-252.0,-75.0,315.0,110.0,-11.0,1
40.0,-244.0,-78.0,315.0,160.0,-21.0,1
47.0,-238.0,-81.0,306.0,210.0,-30.0,1
50.0,-235.0,-85.0,282.0,257.0,-36.0,1
51.0,-222.0,-89.0,254.0,301.0,-37.0,1
52.0,-217.0,-86.0,223.0,339.0,-34.0,1
50.0,-210.0,-87.0,190.0,375.0,-31.0,1
48.0,-199.0,-93.0,162.0,408.0,-21.0,1
42.0,-191.0,-90.0,135.0,436.0,-15.0,1
45.0,-187.0,-93.0,110.0,460.0,-7.0,1
41.0,-180.0,-94.0,92.0,480.0,3.0,1
40.0,-177.0,-94.0,77.0,494.0,14.0,1
36.0,-175.0,-98.0,67.0,503.0,22.0,1
31.0,-175.0,-98.0,59.0,509.0,31.0,1
30.0,-177.0,-94.0,55.0,511.0,37.0,1
25.0,-182.0,-90.0,51.0,512.0,47.0,1
27.0,-187.0,-90.0,48.0,511.0,56.0,1
27.0,-191.0,-90.0,47.0,507.0,65.0,1
26.0,-197.0,-82.0,48.0,501.0,73.0,1
19.0,-197.0,-90.0,46.0,490.0,81.0,1
26.0,-209.0,-87.0,45.0,478.0,85.0,1
26.0,-213.0,-88.0,40.0,458.0,84.0,1
23.0,-221.0,-87.0,35.0,439.0,81.0,1
22.0,-225.0,-90.0,28.0,418.0,77.0,1
19.0,-233.0,-83.0,22.0,395.0,71.0,1
14.0,-239.0,-77.0,18.0,371.0,64.0,1
16.0,-246.0,-77.0,16.0,348.0,58.0,1
9.0,-245.0,-76.0,16.0,326.0,50.0,1
6.0,-254.0,-70.0,20.0,305.0,42.0,1
2.0,-257.0,-68.0,25.0,281.0,35.0,1
0.0,-257.0,-62.0,31.0,255.0,29.0,1
-4.0,-261.0,-66.0,34.0,225.0,20.0,1
-9.0,-259.0,-68.0,38.0,189.0,9.0,1
-11.0,-260.0,-66.0,39.0,149.0,-2.0,1
-14.0,-257.0,-64.0,38.0,106.0,-16.0,1
-14.0,-257.0,-67.0,36.0,65.0,-28.0,1
-16.0,-255.0,-68.0,32.0,26.0,-41.0,1
-13.0,-250.0,-72.0,31.0,-7.0,-52.0,1
-14.0,-245.0,-69.0,31.0,-33.0,-67.0,1
-5.0,-240.0,-72.0,34.0,-52.0,-79.0,1
-1.0,-232.0,-71.0,42.0,-65.0,-92.0,1
5.0,-236.0,-67.0,56.0,-75.0,-105.0,1
8.0,-226.0,-64.0,70.0,-79.0,-119.0,1
16.0,-227.0,-59.0,82.0,-81.0,-131.0,1
22.0,-226.0,-55.0,96.0,-80.0,-146.0,1
31.0,-224.0,-54.0,110.0,-82.0,-154.0,1
36.0,-228.0,-53.0,120.0,-86.0,-163.0,1
38.0,-225.0,-54.0,122.0,-90.0,-170.0,1
39.0,-225.0,-53.0,122.0,-93.0,-177.0,1
41.0,-224.0,-50.0,121.0,-96.0,-179.0,1
40.0,-222.0,-51.0,122.0,-104.0,-177.0,1
40.0,-222.0,-54.0,118.0,-114.0,-178.0,1
38.0,-223.0,-48.0,113.0,-119.0,-176.0,1
33.0,-223.0,-47.0,106.0,-122.0,-178.0,1
32.0,-223.0,-51.0,96.0,-124.0,-179.0,1
28.0,-224.0,-49.0,85.0,-123.0,-181.0,1
25.0,-224.0,-53.0,81.0,-122.0,-181.0,1
23.0,-224.0,-53.0,76.0,-122.0,-182.0,1
23.0,-225.0,-52.0,68.0,-122.0,-183.0,1
23.0,-222.0,-50.0,53.0,-119.0,-186.0,1
25.0,-223.0,-53.0,32.0,-123.0,-185.0,1
17.0,-222.0,-45.0,10.0,-128.0,-188.0,1
17.0,-221.0,-42.0,2.0,-140.0,-187.0,1
22.0,-223.0,-40.0,-1.0,-157.0,-185.0,1
28.0,-224.0,-38.0,-3.0,-171.0,-185.0,1
31.0,-223.0,-40.0,-7.0,-183.0,-184.0,1
29.0,-223.0,-37.0,-15.0,-196.0,-181.0,1
31.0,-224.0,-39.0,-21.0,-204.0,-176.0,1
34.0,-223.0,-32.0,-30.0,-207.0,-171.0,1
31.0,-224.0,-34.0,-37.0,-211.0,-166.0,1
35.0,-228.0,-34.0,-41.0,-216.0,-160.0,1
33.0,-226.0,-34.0,-40.0,-224.0,-151.0,1
30.0,-221.0,-29.0,-34.0,-232.0,-144.0,1
36.0,-228.0,-30.0,-29.0,-235.0,-136.0,1
34.0,-224.0,-30.0,-22.0,-236.0,-129.0,1
35.0,-222.0,-24.0,-14.0,-238.0,-123.0,1
37.0,-225.0,-19.0,-8.0,-236.0,-116.0,1
36.0,-225.0,-22.0,0.0,-235.0,-110.0,1
36.0,-221.0,-17.0,7.0,-232.0,-104.0,1
37.0,-224.0,-22.0,14.0,-227.0,-98.0,1
33.0,-224.0,-19.0,16.0,-226.0,-88.0,1
31.0,-226.0,-19.0,17.0,-222.0,-77.0,1
29.0,-225.0,-18.0,21.0,-223.0,-68.0,1
25.0,-226.0,-20.0,26.0,-228.0,-59.0,1
24.0,-228.0,-21.0,32.0,-238.0,-49.0,1
26.0,-229.0,-18.0,37.0,-248.0,-40.0,1
25.0,-232.0,-17.0,43.0,-260.0,-28.0,1
22.0,-233.0,-15.0,53.0,-272.0,-16.0,1
19.0,-236.0,-13.0,66.0,-286.0,-8.0,1
19.0,-239.0,-17.0,82.0,-298.0,5.0,1
20.0,-240.0,-19.0,97.0,-308.0,16.0,1
16.0,-240.0,-18.0,104.0,-313.0,27.0,1
18.0,-240.0,-21.0,112.0,-316.0,40.0,1
23.0,-243.0,-20.0,117.0,-312.0,47.0,1
27.0,-238.0,-23.0,112.0,-303.0,51.0,1
40.0,-235.0,-29.0,101.0,-291.0,52.0,1
40.0,-238.0,-22.0,89.0,-277.0,46.0,1
46.0,-239.0,-22.0,79.0,-263.0,36.0,1
52.0,-245.0,-22.0,73.0,-250.0,27.0,1
52.0,-244.0,-18.0,74.0,-234.0,17.0,1
55.0,-251.0,-14.0,84.0,-218.0,8.0,1
58.0,-254.0,-13.0,101.0,-202.0,-1.0,1
59.0,-256.0,-12.0,123.0,-185.0,-10.0,1
58.0,-262.0,-7.0,144.0,-173.0,-19.0,1
58.0,-263.0,-7.0,163.0,-162.0,-29.0,1
56.0,-268.0,-5.0,183.0,-154.0,-41.0,1
56.0,-273.0,3.0,202.0,-148.0,-53.0,1
54.0,-273.0,4.0,222.0,-144.0,-63.0,1
50.0,-276.0,10.0,243.0,-141.0,-72.0,1
47.0,-281.0,14.0,265.0,-139.0,-84.0,1
44.0,-284.0,20.0,288.0,-142.0,-91.0,1
42.0,-290.0,27.0,314.0,-143.0,-99.0,1
36.0,-286.0,30.0,351.0,-144.0,-107.0,1
32.0,-280.0,33.0,387.0,-148.0,-115.0,1
32.0,-282.0,30.0,410.0,-154.0,-119.0,1
38.0,-277.0,22.0,416.0,-148.0,-123.0,1
44.0,-283.0,9.0,392.0,-117.0,-136.0,1
47.0,-289.0,-2.0,352.0,-77.0,-150.0,1
53.0,-303.0,-15.0,304.0,-38.0,-167.0,1
56.0,-312.0,-35.0,248.0,-25.0,-188.0,1
60.0,-330.0,-57.0,180.0,-31.0,-213.0,1
72.0,-343.0,-65.0,113.0,-53.0,-244.0,1
95.0,-354.0,-62.0,76.0,-78.0,-278.0,1
119.0,-362.0,-56.0,101.0,-71.0,-306.0,1
127.0,-362.0,-61.0,190.0,-18.0,-342.0,1
133.0,-365.0,-69.0,264.0,69.0,-386.0,1
136.0,-354.0,-79.0,297.0,178.0,-437.0,1
127.0,-344.0,-88.0,282.0,299.0,-484.0,1
119.0,-329.0,-102.0,231.0,422.0,-513.0,1
106.0,-319.0,-101.0,168.0,537.0,-510.0,1
87.0,-306.0,-109.0,110.0,630.0,-484.0,1
64.0,-295.0,-103.0,63.0,693.0,-446.0,1
38.0,-284.0,-104.0,35.0,721.0,-403.0,1
11.0,-275.0,-96.0,31.0,712.0,-357.0,1
-6.0,-268.0,-93.0,53.0,667.0,-313.0,1
-34.0,-259.0,-84.0,86.0,599.0,-283.0,1
-53.0,-266.0,-80.0,141.0,510.0,-248.0,1
-70.0,-259.0,-86.0,226.0,389.0,-200.0,1
-75.0,-257.0,-91.0,270.0,260.0,-177.0,1
-78.0,-242.0,-87.0,286.0,137.0,-160.0,1
-78.0,-230.0,-90.0,281.0,26.0,-150.0,1
-78.0,-208.0,-92.0,263.0,-71.0,-140.0,1
-70.0,-194.0,-101.0,237.0,-149.0,-133.0,1
-69.0,-184.0,-98.0,201.0,-209.0,-131.0,1
-60.0,-168.0,-97.0,165.0,-257.0,-127.0,1
-53.0,-158.0,-93.0,133.0,-294.0,-123.0,1
-46.0,-149.0,-87.0,111.0,-326.0,-119.0,1
-38.0,-146.0,-86.0,101.0,-352.0,-107.0,1
-26.0,-151.0,-87.0,98.0,-372.0,-93.0,1
-12.0,-159.0,-86.0,94.0,-382.0,-77.0,1
-1.0,-161.0,-87.0,90.0,-381.0,-67.0,1
12.0,-167.0,-94.0,80.0,-373.0,-60.0,1
22.0,-175.0,-90.0,64.0,-355.0,-53.0,1
30.0,-178.0,-91.0,44.0,-326.0,-56.0,1
41.0,-184.0,-95.0,23.0,-289.0,-61.0,1
46.0,-188.0,-87.0,0.0,-245.0,-67.0,1
54.0,-192.0,-90.0,-23.0,-197.0,-72.0,1
61.0,-199.0,-82.0,-50.0,-144.0,-77.0,1
63.0,-211.0,-78.0,-79.0,-92.0,-78.0,1
59.0,-216.0,-78.0,-110.0,-40.0,-72.0,1
60.0,-226.0,-75.0,-139.0,7.0,-61.0,1
60.0,-241.0,-74.0,-167.0,48.0,-43.0,1
58.0,-247.0,-71.0,-196.0,81.0,-23.0,1
55.0,-255.0,-73.0,-215.0,107.0,3.0,1
46.0,-258.0,-73.0,-227.0,131.0,34.0,1
42.0,-259.0,-75.0,-231.0,155.0,64.0,1
36.0,-268.0,-76.0,-224.0,179.0,91.0,1
33.0,-268.0,-83.0,-213.0,195.0,110.0,1
29.0,-271.0,-75.0,-200.0,209.0,125.0,1
24.0,-261.0,-77.0,-184.0,223.0,134.0,1
26.0,-261.0,-78.0,-161.0,239.0,144.0,1
18.0,-254.0,-71.0,-137.0,256.0,146.0,1
22.0,-250.0,-72.0,-108.0,274.0,147.0,1
24.0,-244.0,-66.0,-78.0,293.0,146.0,1
24.0,-237.0,-69.0,-55.0,314.0,143.0,1
25.0,-232.0,-66.0,-38.0,338.0,144.0,1
26.0,-229.0,-62.0,-20.0,364.0,146.0,1
27.0,-223.0,-59.0,-8.0,388.0,152.0,1
23.0,-223.0,-56.0,-1.0,404.0,162.0,1
25.0,-220.0,-53.0,-2.0,414.0,172.0,1
20.0,-224.0,-55.0,-11.0,421.0,187.0,1
17.0,-224.0,-43.0,-18.0,426.0,203.0,1
14.0,-222.0,-55.0,-28.0,431.0,217.0,1
9.0,-226.0,-53.0,-38.0,438.0,233.0,1
8.0,-226.0,-49.0,-44.0,444.0,246.0,1
5.0,-225.0,-51.0,-46.0,451.0,261.0,1
3.0,-224.0,-51.0,-52.0,454.0,273.0,1
0.0,-225.0,-46.0,-66.0,457.0,283.0,1
-1.0,-225.0,-47.0,-78.0,455.0,292.0,1
-1.0,-224.0,-50.0,-95.0,448.0,294.0,1
-1.0,-220.0,-43.0,-110.0,435.0,292.0,1
0.0,-219.0,-36.0,-129.0,423.0,287.0,1
0.0,-212.0,-46.0,-144.0,411.0,286.0,1
-2.0,-215.0,-35.0,-158.0,401.0,282.0,1
-3.0,-213.0,-34.0,-164.0,392.0,278.0,1
-5.0,-213.0,-32.0,-166.0,385.0,270.0,1
-4.0,-216.0,-31.0,-164.0,378.0,262.0,1
-4.0,-209.0,-27.0,-155.0,373.0,247.0,1
0.0,-209.0,-29.0,-144.0,372.0,232.0,1
0.0,-208.0,-29.0,-133.0,371.0,216.0,1
1.0,-210.0,-22.0,-123.0,372.0,199.0,1
1.0,-209.0,-26.0,-117.0,369.0,182.0,1
5.0,-205.0,-25.0,-117.0,364.0,165.0,1
5.0,-212.0,-25.0,-121.0,355.0,148.0,1
6.0,-210.0,-24.0,-128.0,344.0,133.0,1
10.0,-211.0,-25.0,-135.0,332.0,116.0,1
11.0,-213.0,-26.0,-142.0,321.0,100.0,1
12.0,-211.0,-21.0,-145.0,309.0,88.0,1
16.0,-213.0,-24.0,-152.0,300.0,75.0,1
13.0,-214.0,-27.0,-160.0,295.0,64.0,1
14.0,-215.0,-26.0,-165.0,295.0,53.0,1
10.0,-214.0,-22.0,-168.0,301.0,43.0,1
14.0,-219.0,-16.0,-166.0,311.0,30.0,1
14.0,-219.0,-17.0,-158.0,322.0,19.0,1
13.0,-223.0,-20.0,-141.0,329.0,9.0,1
17.0,-232.0,-16.0,-118.0,337.0,0.0,1
15.0,-238.0,-18.0,-95.0,344.0,-7.0,1
15.0,-243.0,-18.0,-75.0,348.0,-13.0,1
20.0,-252.0,-20.0,-48.0,352.0,-15.0,1
22.0,-258.0,-23.0,-29.0,355.0,-17.0,1
18.0,-261.0,-22.0,-16.0,352.0,-22.0,1
21.0,-266.0,-18.0,-11.0,351.0,-26.0,1
16.0,-269.0,-20.0,-4.0,345.0,-26.0,1
16.0,-273.0,-18.0,6.0,330.0,-33.0,1
13.0,-276.0,-19.0,19.0,316.0,-37.0,1
6.0,-276.0,-22.0,31.0,301.0,-45.0,1
9.0,-280.0,-14.0,48.0,288.0,-53.0,1
5.0,-277.0,-11.0,69.0,273.0,-58.0,1
2.0,-279.0,-7.0,95.0,257.0,-58.0,1
-2.0,-278.0,-7.0,121.0,242.0,-59.0,1
-1.0,-276.0,-7.0,150.0,225.0,-59.0,1
-6.0,-276.0,-4.0,173.0,207.0,-55.0,1
-8.0,-277.0,-2.0,196.0,190.0,-49.0,1
-5.0,-284.0,7.0,223.0,173.0,-43.0,1
-4.0,-278.0,14.0,254.0,158.0,-35.0,1
-6.0,-288.0,24.0,291.0,146.0,-26.0,1
-1.0,-287.0,27.0,333.0,136.0,-18.0,1
3.0,-288.0,36.0,375.0,133.0,-9.0,1
6.0,-290.0,42.0,415.0,128.0,0.0,1
16.0,-291.0,51.0,453.0,124.0,8.0,1
20.0,-298.0,46.0,487.0,122.0,17.0,1
32.0,-296.0,48.0,514.0,118.0,23.0,1
39.0,-294.0,37.0,517.0,103.0,27.0,1
42.0,-289.0,20.0,491.0,74.0,29.0,1
43.0,-288.0,-4.0,438.0,32.0,31.0,1
42.0,-290.0,-24.0,361.0,-19.0,35.0,1
39.0,-307.0,-42.0,269.0,-67.0,50.0,1
23.0,-320.0,-72.0,175.0,-98.0,78.0,1
8.0,-346.0,-82.0,92.0,-97.0,117.0,1
-7.0,-368.0,-79.0,43.0,-70.0,162.0,1
-15.0,-382.0,-66.0,63.0,-36.0,209.0,1
-23.0,-391.0,-51.0,155.0,-20.0,251.0,1
-27.0,-388.0,-46.0,282.0,-27.0,291.0,1
-29.0,-381.0,-50.0,400.0,-62.0,333.0,1
-30.0,-373.0,-55.0,481.0,-123.0,368.0,1
-29.0,-346.0,-66.0,505.0,-209.0,384.0,1
-25.0,-323.0,-76.0,483.0,-307.0,380.0,1
-31.0,-299.0,-89.0,438.0,-404.0,365.0,1
-22.0,-276.0,-107.0,384.0,-488.0,348.0,1
-19.0,-263.0,-112.0,342.0,-546.0,337.0,1
-13.0,-251.0,-113.0,322.0,-569.0,333.0,1
0.0,-242.0,-113.0,326.0,-545.0,330.0,1
15.0,-235.0,-109.0,335.0,-477.0,322.0,1
33.0,-229.0,-105.0,352.0,-370.0,309.0,1
41.0,-222.0,-101.0,367.0,-247.0,298.0,1
51.0,-215.0,-100.0,366.0,-125.0,281.0,1
63.0,-206.0,-93.0,347.0,-15.0,262.0,1
75.0,-193.0,-96.0,317.0,79.0,237.0,1
88.0,-184.0,-99.0,278.0,152.0,208.0,1
92.0,-175.0,-99.0,237.0,206.0,174.0,1
95.0,-164.0,-100.0,198.0,242.0,140.0,1
95.0,-156.0,-107.0,161.0,264.0,101.0,1
91.0,-153.0,-110.0,130.0,281.0,65.0,1
86.0,-152.0,-107.0,105.0,294.0,29.0,1
77.0,-159.0,-105.0,87.0,308.0,-4.0,1
69.0,-169.0,-104.0,74.0,322.0,-31.0,1
55.0,-186.0,-102.0,62.0,338.0,-51.0,1
44.0,-199.0,-95.0,49.0,357.0,-57.0,1
26.0,-210.0,-92.0,31.0,368.0,-51.0,1
19.0,-219.0,-85.0,15.0,365.0,-42.0,1
4.0,-229.0,-78.0,0.0,347.0,-27.0,1
-10.0,-235.0,-74.0,-8.0,311.0,-11.0,1
-29.0,-241.0,-70.0,-9.0,261.0,6.0,1
-39.0,-242.0,-69.0,-9.0,199.0,17.0,1
-50.0,-242.0,-68.0,-1.0,127.0,27.0,1
-62.0,-244.0,-69.0,4.0,53.0,30.0,1
-65.0,-242.0,-69.0,17.0,-17.0,29.0,1
-60.0,-244.0,-68.0,25.0,-76.0,16.0,1
-58.0,-240.0,-69.0,17.0,-120.0,-9.0,1
-50.0,-243.0,-68.0,0.0,-146.0,-45.0,1
-37.0,-242.0,-67.0,-8.0,-154.0,-92.0,1
-20.0,-240.0,-64.0,-1.0,-150.0,-140.0,1
-5.0,-245.0,-63.0,19.0,-143.0,-185.0,1
0.0,-244.0,-56.0,53.0,-136.0,-225.0,1
13.0,-243.0,-54.0,100.0,-131.0,-253.0,1
28.0,-234.0,-52.0,144.0,-134.0,-262.0,1
38.0,-233.0,-45.0,160.0,-145.0,-259.0,1
41.0,-230.0,-49.0,163.0,-163.0,-248.0,1
37.0,-230.0,-48.0,162.0,-178.0,-229.0,1
41.0,-233.0,-48.0,163.0,-193.0,-209.0,1
38.0,-236.0,-46.0,161.0,-207.0,-187.0,1
37.0,-229.0,-48.0,156.0,-220.0,-169.0,1
34.0,-231.0,-52.0,148.0,-230.0,-154.0,1
31.0,-232.0,-51.0,138.0,-235.0,-142.0,1
24.0,-227.0,-46.0,128.0,-236.0,-136.0,1
24.0,-228.0,-45.0,119.0,-234.0,-135.0,1
17.0,-223.0,-43.0,111.0,-234.0,-142.0,1
17.0,-220.0,-43.0,101.0,-238.0,-157.0,1
13.0,-218.0,-42.0,82.0,-245.0,-174.0,1
16.0,-220.0,-44.0,63.0,-259.0,-201.0,1
19.0,-215.0,-39.0,43.0,-272.0,-230.0,1
27.0,-218.0,-34.0,31.0,-275.0,-246.0,1
25.0,-212.0,-35.0,25.0,-274.0,-245.0,1
27.0,-212.0,-29.0,25.0,-273.0,-239.0,1
32.0,-213.0,-33.0,25.0,-274.0,-236.0,1
30.0,-215.0,-30.0,28.0,-275.0,-232.0,1
32.0,-211.0,-32.0,34.0,-279.0,-228.0,1
36.0,-214.0,-35.0,38.0,-280.0,-219.0,1
39.0,-211.0,-28.0,41.0,-283.0,-211.0,1
37.0,-208.0,-34.0,43.0,-288.0,-201.0,1
41.0,-208.0,-32.0,43.0,-289.0,-188.0,1
43.0,-215.0,-27.0,39.0,-292.0,-173.0,1
46.0,-214.0,-32.0,31.0,-294.0,-161.0,1
40.0,-214.0,-24.0,26.0,-291.0,-150.0,1
41.0,-214.0,-24.0,18.0,-288.0,-137.0,1
37.0,-218.0,-24.0,10.0,-284.0,-130.0,1
27.0,-215.0,-20.0,-7.0,-287.0,-129.0,1
31.0,-210.0,-18.0,-44.0,-303.0,-135.0,1
38.0,-219.0,-22.0,-63.0,-293.0,-109.0,1
35.0,-213.0,-20.0,-41.0,-273.0,-88.0,1
28.0,-212.0,-22.0,-28.0,-275.0,-78.0,1
27.0,-213.0,-15.0,-22.0,-279.0,-65.0,1
27.0,-210.0,-15.0,-20.0,-289.0,-50.0,1
29.0,-213.0,-17.0,-12.0,-297.0,-34.0,1
28.0,-212.0,-19.0,-8.0,-302.0,-18.0,1
28.0,-213.0,-12.0,-7.0,-308.0,1.0,1
28.0,-217.0,-9.0,-9.0,-318.0,16.0,1
26.0,-220.0,-9.0,-16.0,-328.0,32.0,1
25.0,-226.0,-9.0,-21.0,-336.0,45.0,1
25.0,-227.0,-8.0,-20.0,-345.0,58.0,1
21.0,-229.0,-11.0,-14.0,-355.0,70.0,1
24.0,-233.0,-9.0,-14.0,-363.0,77.0,1
22.0,-232.0,-9.0,-14.0,-365.0,83.0,1
27.0,-240.0,-9.0,-10.0,-365.0,90.0,1
33.0,-236.0,-10.0,2.0,-358.0,94.0,1
38.0,-247.0,-7.0,11.0,-347.0,93.0,1
40.0,-246.0,-10.0,16.0,-331.0,90.0,1
44.0,-250.0,-12.0,16.0,-310.0,85.0,1
46.0,-254.0,-13.0,16.0,-288.0,78.0,1
51.0,-255.0,-14.0,17.0,-266.0,71.0,1
53.0,-258.0,-16.0,24.0,-243.0,60.0,1
57.0,-263.0,-7.0,36.0,-222.0,52.0,1
56.0,-262.0,-6.0,50.0,-200.0,44.0,1
59.0,-267.0,-1.0,69.0,-179.0,36.0,1
58.0,-266.0,2.0,89.0,-162.0,25.0,1
60.0,-276.0,6.0,114.0,-151.0,15.0,1
60.0,-275.0,14.0,138.0,-145.0,5.0,1
58.0,-270.0,16.0,167.0,-143.0,-6.0,1
61.0,-273.0,24.0,199.0,-140.0,-16.0,1
59.0,-272.0,26.0,234.0,-141.0,-29.0,1
57.0,-275.0,33.0,269.0,-139.0,-36.0,1
58.0,-275.0,44.0,308.0,-137.0,-46.0,1
52.0,-273.0,47.0,350.0,-137.0,-57.0,1
48.0,-273.0,53.0,389.0,-138.0,-70.0,1
51.0,-273.0,55.0,424.0,-145.0,-83.0,1
46.0,-272.0,54.0,453.0,-152.0,-97.0,1
47.0,-266.0,47.0,462.0,-157.0,-111.0,1
47.0,-260.0,33.0,436.0,-145.0,-129.0,1
51.0,-262.0,23.0,372.0,-118.0,-155.0,1
57.0,-270.0,-3.0,291.0,-82.0,-187.0,1
58.0,-282.0,-21.0,198.0,-55.0,-223.0,1
55.0,-308.0,-52.0,92.0,-46.0,-256.0,1
59.0,-332.0,-75.0,-15.0,-61.0,-284.0,1
61.0,-361.0,-81.0,-88.0,-86.0,-307.0,1
81.0,-377.0,-73.0,-79.0,-101.0,-334.0,1
94.0,-382.0,-60.0,26.0,-84.0,-370.0,1
97.0,-384.0,-54.0,180.0,-32.0,-425.0,1
96.0,-385.0,-53.0,324.0,43.0,-497.0,1
86.0,-380.0,-56.0,424.0,146.0,-572.0,1
81.0,-366.0,-66.0,477.0,271.0,-637.0,1
73.0,-351.0,-74.0,483.0,408.0,-682.0,1
53.0,-328.0,-92.0,446.0,538.0,-691.0,1
41.0,-310.0,-107.0,374.0,625.0,-665.0,1
28.0,-290.0,-113.0,300.0,662.0,-625.0,1
2.0,-272.0,-115.0,224.0,637.0,-577.0,1
-14.0,-261.0,-118.0,156.0,544.0,-519.0,1
-37.0,-245.0,-108.0,108.0,411.0,-463.0,1
-63.0,-224.0,-107.0,84.0,262.0,-409.0,1
-87.0,-216.0,-92.0,82.0,103.0,-360.0,1
-100.0,-208.0,-93.0,96.0,-65.0,-320.0,1
-106.0,-205.0,-94.0,115.0,-228.0,-285.0,1
-109.0,-200.0,-95.0,128.0,-364.0,-247.0,1
-104.0,-197.0,-99.0,130.0,-471.0,-207.0,1
-91.0,-199.0,-99.0,123.0,-547.0,-166.0,1
-76.0,-199.0,-96.0,102.0,-595.0,-131.0,1
-66.0,-198.0,-97.0,67.0,-628.0,-102.0,1
-51.0,-202.0,-96.0,24.0,-647.0,-83.0,1
-36.0,-207.0,-95.0,-15.0,-657.0,-70.0,1
-16.0,-214.0,-88.0,-45.0,-658.0,-59.0,1
-1.0,-221.0,-80.0,-65.0,-650.0,-53.0,1
13.0,-228.0,-78.0,-75.0,-631.0,-45.0,1
29.0,-236.0,-80.0,-79.0,-602.0,-38.0,1
43.0,-240.0,-77.0,-76.0,-563.0,-36.0,1
58.0,-244.0,-73.0,-65.0,-516.0,-36.0,1
67.0,-242.0,-80.0,-50.0,-455.0,-34.0,1
77.0,-247.0,-75.0,-34.0,-387.0,-29.0,1
85.0,-244.0,-74.0,-16.0,-316.0,-26.0,1
91.0,-243.0,-72.0,-5.0,-241.0,-19.0,1
91.0,-242.0,-71.0,-3.0,-165.0,-5.0,1
85.0,-242.0,-68.0,-13.0,-91.0,9.0,1
81.0,-238.0,-67.0,-27.0,-27.0,28.0,1
73.0,-235.0,-64.0,-49.0,31.0,54.0,1
63.0,-231.0,-62.0,-70.0,80.0,82.0,1
58.0,-229.0,-55.0,-85.0,117.0,114.0,1
44.0,-225.0,-51.0,-90.0,145.0,145.0,1
36.0,-224.0,-49.0,-86.0,161.0,178.0,1
26.0,-223.0,-50.0,-77.0,171.0,203.0,1
20.0,-222.0,-50.0,-67.0,178.0,228.0,1
16.0,-225.0,-50.0,-59.0,180.0,249.0,1
11.0,-211.0,-49.0,-55.0,183.0,260.0,1
7.0,-219.0,-50.0,-56.0,192.0,265.0,1
8.0,-219.0,-48.0,-58.0,206.0,263.0,1
14.0,-216.0,-51.0,-62.0,225.0,256.0,1
22.0,-210.0,-55.0,-75.0,251.0,239.0,1
24.0,-208.0,-55.0,-92.0,285.0,226.0,1
26.0,-204.0,-54.0,-115.0,320.0,216.0,1
27.0,-205.0,-46.0,-141.0,352.0,209.0,1
39.0,-206.0,-45.0,-162.0,376.0,207.0,1
39.0,-207.0,-39.0,-176.0,405.0,210.0,1
38.0,-205.0,-41.0,-176.0,430.0,220.0,1
35.0,-211.0,-39.0,-164.0,444.0,229.0,1
28.0,-209.0,-33.0,-147.0,449.0,240.0,1
19.0,-213.0,-35.0,-137.0,449.0,253.0,1
9.0,-215.0,-34.0,-129.0,445.0,254.0,1
4.0,-220.0,-32.0,-120.0,445.0,262.0,1
-3.0,-221.0,-34.0,-110.0,454.0,274.0,1
-12.0,-226.0,-32.0,-102.0,461.0,279.0,1
-15.0,-231.0,-32.0,-90.0,460.0,278.0,1
-20.0,-230.0,-32.0,-81.0,452.0,266.0,1
-18.0,-233.0,-32.0,-79.0,447.0,249.0,1
-21.0,-231.0,-31.0,-83.0,441.0,236.0,1
-19.0,-235.0,-31.0,-83.0,433.0,227.0,1
-15.0,-232.0,-33.0,-80.0,417.0,210.0,1
-16.0,-228.0,-27.0,-75.0,397.0,191.0,1
-13.0,-227.0,-31.0,-65.0,377.0,174.0,1
-8.0,-225.0,-29.0,-55.0,356.0,155.0,1
-7.0,-221.0,-25.0,-47.0,339.0,138.0,1
-3.0,-214.0,-31.0,-36.0,325.0,121.0,1
1.0,-212.0,-20.0,-30.0,318.0,103.0,1
8.0,-210.0,-27.0,-26.0,316.0,92.0,1
14.0,-215.0,-24.0,-20.0,312.0,81.0,1
18.0,-209.0,-16.0,-15.0,309.0,70.0,1
19.0,-211.0,-14.0,-2.0,302.0,59.0,1
25.0,-212.0,-16.0,4.0,299.0,48.0,1
25.0,-211.0,-11.0,11.0,298.0,36.0,1
28.0,-210.0,-10.0,17.0,302.0,19.0,1
27.0,-209.0,-8.0,21.0,307.0,7.0,1
29.0,-211.0,-13.0,24.0,310.0,-6.0,1
32.0,-214.0,-17.0,20.0,313.0,-19.0,1
30.0,-213.0,-16.0,12.0,316.0,-30.0,1
31.0,-219.0,-13.0,-2.0,318.0,-36.0,1
30.0,-226.0,-18.0,-14.0,321.0,-39.0,1
28.0,-227.0,-13.0,-21.0,325.0,-38.0,1
25.0,-237.0,-9.0,-22.0,329.0,-36.0,1
16.0,-245.0,-10.0,-20.0,332.0,-28.0,1
15.0,-256.0,-11.0,-13.0,334.0,-19.0,1
15.0,-264.0,-8.0,-6.0,337.0,-10.0,1
12.0,-268.0,-8.0,2.0,337.0,1.0,1
8.0,-269.0,-6.0,10.0,332.0,9.0,1
9.0,-273.0,-4.0,20.0,320.0,17.0,1
3.0,-272.0,-1.0,30.0,307.0,21.0,1
2.0,-278.0,1.0,41.0,291.0,24.0,1
-1.0,-273.0,0.0,51.0,274.0,23.0,1
-3.0,-270.0,3.0,67.0,265.0,18.0,1
4.0,-275.0,6.0,87.0,258.0,14.0,1
-1.0,-270.0,8.0,114.0,256.0,8.0,1
-1.0,-270.0,6.0,144.0,252.0,-1.0,1
3.0,-267.0,13.0,176.0,251.0,-9.0,1
1.0,-269.0,15.0,210.0,252.0,-17.0,1
0.0,-268.0,23.0,240.0,254.0,-20.0,1
1.0,-272.0,35.0,274.0,254.0,-18.0,1
5.0,-271.0,39.0,305.0,253.0,-11.0,1
6.0,-272.0,41.0,334.0,251.0,-4.0,1
6.0,-274.0,48.0,356.0,247.0,3.0,1
5.0,-276.0,46.0,366.0,233.0,12.0,1
5.0,-275.0,43.0,364.0,212.0,24.0,1
7.0,-274.0,35.0,345.0,178.0,33.0,1
10.0,-271.0,22.0,310.0,135.0,41.0,1
3.0,-271.0,6.0,267.0,84.0,55.0,1
-1.0,-283.0,-14.0,217.0,23.0,71.0,1
-5.0,-301.0,-37.0,162.0,-43.0,93.0,1
-15.0,-318.0,-48.0,97.0,-103.0,124.0,1
-30.0,-337.0,-57.0,28.0,-151.0,169.0,1
-36.0,-361.0,-61.0,-26.0,-183.0,226.0,1
-46.0,-377.0,-58.0,-42.0,-205.0,290.0,1
-51.0,-386.0,-49.0,-8.0,-226.0,350.0,1
-52.0,-381.0,-48.0,58.0,-254.0,407.0,1
-44.0,-378.0,-51.0,129.0,-295.0,455.0,1
-39.0,-368.0,-56.0,181.0,-349.0,493.0,1
-27.0,-353.0,-63.0,205.0,-414.0,508.0,1
-16.0,-332.0,-65.0,201.0,-494.0,489.0,1
-2.0,-321.0,-70.0,184.0,-574.0,445.0,1
10.0,-305.0,-70.0,165.0,-634.0,394.0,1
27.0,-287.0,-72.0,147.0,-667.0,343.0,1
43.0,-269.0,-79.0,135.0,-668.0,293.0,1
61.0,-253.0,-90.0,133.0,-634.0,239.0,1
76.0,-240.0,-88.0,138.0,-565.0,187.0,1
84.0,-221.0,-91.0,149.0,-464.0,140.0,1
96.0,-210.0,-99.0,161.0,-336.0,110.0,1
102.0,-202.0,-105.0,167.0,-193.0,91.0,1
103.0,-195.0,-113.0,168.0,-45.0,80.0,1
97.0,-193.0,-111.0,158.0,90.0,73.0,1
92.0,-190.0,-109.0,138.0,203.0,68.0,1
84.0,-189.0,-107.0,107.0,291.0,64.0,1
77.0,-189.0,-107.0,69.0,356.0,55.0,1
67.0,-189.0,-112.0,28.0,403.0,46.0,1
47.0,-189.0,-109.0,-14.0,429.0,36.0,1
44.0,-196.0,-102.0,-54.0,438.0,25.0,1
27.0,-194.0,-100.0,-86.0,432.0,13.0,1
15.0,-202.0,-94.0,-109.0,414.0,1.0,1
6.0,-207.0,-97.0,-125.0,385.0,-12.0,1
-3.0,-212.0,-94.0,-133.0,345.0,-23.0,1
-14.0,-217.0,-91.0,-134.0,298.0,-28.0,1
-29.0,-218.0,-85.0,-126.0,243.0,-29.0,1
-42.0,-222.0,-85.0,-110.0,181.0,-27.0,1
-41.0,-224.0,-84.0,-90.0,114.0,-26.0,1
-49.0,-226.0,-77.0,-69.0,43.0,-26.0,1
-57.0,-244.0,-73.0,-46.0,-28.0,-27.0,1
-58.0,-238.0,-62.0,-25.0,-98.0,-36.0,1
-56.0,-247.0,-59.0,-5.0,-166.0,-50.0,1
-55.0,-248.0,-56.0,10.0,-223.0,-68.0,1
-49.0,-254.0,-54.0,15.0,-272.0,-88.0,1
-38.0,-256.0,-57.0,21.0,-315.0,-118.0,1
-29.0,-254.0,-55.0,24.0,-350.0,-147.0,1
-24.0,-253.0,-60.0,25.0,-378.0,-177.0,1
-11.0,-253.0,-58.0,27.0,-402.0,-208.0,1
-5.0,-245.0,-65.0,26.0,-422.0,-233.0,1
3.0,-244.0,-60.0,26.0,-438.0,-252.0,1
14.0,-238.0,-68.0,34.0,-451.0,-265.0,1
16.0,-229.0,-57.0,49.0,-462.0,-267.0,1
18.0,-226.0,-59.0,65.0,-472.0,-263.0,1
20.0,-223.0,-53.0,81.0,-484.0,-257.0,1
21.0,-221.0,-53.0,93.0,-494.0,-249.0,1
19.0,-218.0,-49.0,106.0,-505.0,-239.0,1
22.0,-215.0,-45.0,114.0,-521.0,-231.0,1
21.0,-212.0,-42.0,118.0,-539.0,-227.0,1
13.0,-208.0,-45.0,115.0,-556.0,-227.0,1
13.0,-209.0,-44.0,112.0,-578.0,-228.0,1
15.0,-211.0,-41.0,108.0,-603.0,-233.0,1
23.0,-215.0,-51.0,102.0,-626.0,-242.0,1
14.0,-211.0,-37.0,91.0,-653.0,-253.0,1
17.0,-213.0,-34.0,72.0,-668.0,-266.0,1
17.0,-218.0,-33.0,53.0,-684.0,-278.0,1
23.0,-220.0,-32.0,37.0,-700.0,-290.0,1
23.0,-222.0,-34.0,22.0,-711.0,-301.0,1
30.0,-225.0,-33.0,7.0,-719.0,-309.0,1
35.0,-229.0,-31.0,-8.0,-728.0,-315.0,1
37.0,-223.0,-32.0,-19.0,-737.0,-318.0,1
44.0,-227.0,-30.0,-30.0,-745.0,-320.0,1
41.0,-225.0,-34.0,-40.0,-749.0,-317.0,1
41.0,-225.0,-32.0,-51.0,-749.0,-310.0,1
47.0,-219.0,-35.0,-60.0,-744.0,-304.0,1
48.0,-214.0,-34.0,-71.0,-733.0,-299.0,1
50.0,-216.0,-32.0,-80.0,-719.0,-290.0,1
51.0,-215.0,-32.0,-76.0,-709.0,-281.0,1
51.0,-211.0,-32.0,-67.0,-703.0,-269.0,1
50.0,-209.0,-28.0,-54.0,-698.0,-256.0,1
47.0,-212.0,-29.0,-42.0,-693.0,-241.0,1
44.0,-211.0,-27.0,-30.0,-690.0,-226.0,1
41.0,-214.0,-29.0,-25.0,-689.0,-214.0,1
38.0,-219.0,-28.0,-15.0,-692.0,-200.0,1
32.0,-224.0,-27.0,-6.0,-697.0,-190.0,1
32.0,-228.0,-17.0,2.0,-703.0,-182.0,1
30.0,-233.0,-18.0,9.0,-710.0,-175.0,1
27.0,-234.0,-16.0,18.0,-719.0,-166.0,1
21.0,-234.0,-17.0,40.0,-734.0,-160.0,1
20.0,-232.0,-8.0,57.0,-751.0,-153.0,1
15.0,-228.0,-10.0,76.0,-770.0,-147.0,1
16.0,-230.0,-9.0,92.0,-793.0,-141.0,1
17.0,-229.0,-11.0,107.0,-817.0,-134.0,1
13.0,-228.0,-8.0,124.0,-845.0,-126.0,1
9.0,-226.0,-7.0,143.0,-874.0,-118.0,1
15.0,-234.0,-7.0,160.0,-900.0,-111.0,1
11.0,-234.0,-6.0,176.0,-924.0,-106.0,1
20.0,-241.0,-7.0,194.0,-940.0,-101.0,1
23.0,-243.0,-8.0,210.0,-946.0,-98.0,1
28.0,-245.0,-10.0,222.0,-937.0,-97.0,1
34.0,-247.0,-9.0,227.0,-915.0,-93.0,1
45.0,-244.0,-11.0,220.0,-897.0,-114.0,1
60.0,-249.0,-15.0,208.0,-868.0,-143.0,1
75.0,-249.0,-13.0,207.0,-818.0,-148.0,1
86.0,-247.0,-8.0,207.0,-764.0,-148.0,1
96.0,-251.0,-4.0,199.0,-716.0,-143.0,1
102.0,-250.0,-9.0,201.0,-677.0,-148.0,1
116.0,-255.0,-1.0,206.0,-639.0,-160.0,1
120.0,-253.0,2.0,215.0,-600.0,-167.0,1
124.0,-255.0,6.0,230.0,-555.0,-175.0,1
126.0,-257.0,19.0,257.0,-508.0,-184.0,1
125.0,-259.0,24.0,290.0,-462.0,-191.0,1
124.0,-265.0,29.0,328.0,-415.0,-199.0,1
119.0,-265.0,34.0,363.0,-371.0,-206.0,1
110.0,-266.0,35.0,395.0,-328.0,-214.0,1
99.0,-270.0,43.0,421.0,-288.0,-219.0,1
87.0,-272.0,46.0,436.0,-253.0,-224.0,1
84.0,-274.0,32.0,431.0,-218.0,-236.0,1
79.0,-282.0,23.0,403.0,-181.0,-250.0,1
73.0,-291.0,13.0,351.0,-146.0,-271.0,1
67.0,-300.0,-3.0,291.0,-113.0,-290.0,1
61.0,-310.0,-19.0,225.0,-91.0,-305.0,1
56.0,-320.0,-41.0,156.0,-82.0,-321.0,1
53.0,-337.0,-54.0,92.0,-82.0,-333.0,1
58.0,-357.0,-67.0,47.0,-82.0,-346.0,1
69.0,-361.0,-62.0,40.0,-76.0,-364.0,1
82.0,-369.0,-58.0,83.0,-49.0,-396.0,1
83.0,-372.0,-51.0,164.0,0.0,-435.0,1
79.0,-366.0,-49.0,252.0,68.0,-474.0,1
71.0,-357.0,-53.0,328.0,147.0,-514.0,1
64.0,-348.0,-63.0,376.0,232.0,-551.0,1
50.0,-330.0,-70.0,388.0,318.0,-574.0,1
30.0,-315.0,-77.0,372.0,391.0,-571.0,1
3.0,-295.0,-87.0,346.0,442.0,-545.0,1
-19.0,-274.0,-93.0,309.0,459.0,-505.0,1
-40.0,-265.0,-103.0,264.0,442.0,-457.0,1
-67.0,-247.0,-100.0,215.0,395.0,-404.0,1
-91.0,-230.0,-107.0,172.0,306.0,-343.0,1
-105.0,-228.0,-94.0,147.0,184.0,-290.0,1
-111.0,-222.0,-94.0,144.0,43.0,-246.0,1
-110.0,-219.0,-88.0,160.0,-103.0,-216.0,1
-106.0,-218.0,-90.0,186.0,-244.0,-198.0,1
-97.0,-220.0,-88.0,207.0,-375.0,-187.0,1
-86.0,-217.0,-86.0,225.0,-488.0,-183.0,1
-73.0,-223.0,-86.0,232.0,-576.0,-179.0,1
-64.0,-225.0,-87.0,225.0,-636.0,-176.0,1
-48.0,-229.0,-92.0,202.0,-668.0,-173.0,1
-42.0,-226.0,-94.0,170.0,-670.0,-169.0,1
-30.0,-229.0,-94.0,126.0,-653.0,-162.0,1
-21.0,-230.0,-92.0,81.0,-620.0,-158.0,1
-5.0,-227.0,-94.0,44.0,-577.0,-153.0,1
3.0,-224.0,-87.0,16.0,-528.0,-145.0,1
12.0,-224.0,-78.0,-4.0,-483.0,-133.0,1
27.0,-223.0,-74.0,-15.0,-437.0,-112.0,1
39.0,-219.0,-71.0,-23.0,-388.0,-86.0,1
56.0,-221.0,-69.0,-31.0,-339.0,-51.0,1
63.0,-223.0,-70.0,-37.0,-291.0,-16.0,1
74.0,-224.0,-71.0,-57.0,-243.0,22.0,1
75.0,-229.0,-65.0,-78.0,-196.0,67.0,1
68.0,-233.0,-64.0,-96.0,-154.0,102.0,1
68.0,-234.0,-60.0,-119.0,-120.0,137.0,1
60.0,-235.0,-58.0,-145.0,-92.0,174.0,1
51.0,-238.0,-55.0,-163.0,-74.0,206.0,1
41.0,-237.0,-47.0,-163.0,-63.0,236.0,1
27.0,-235.0,-46.0,-147.0,-62.0,262.0,1
12.0,-238.0,-44.0,-118.0,-69.0,288.0,1
-2.0,-235.0,-45.0,-87.0,-83.0,306.0,1
-9.0,-234.0,-40.0,-57.0,-103.0,317.0,1
-20.0,-234.0,-35.0,-37.0,-119.0,319.0,1
-19.0,-233.0,-35.0,-22.0,-129.0,315.0,1
-30.0,-227.0,-39.0,-12.0,-134.0,306.0,1
-23.0,-224.0,-38.0,-10.0,-139.0,285.0,1
-16.0,-221.0,-32.0,-13.0,-137.0,263.0,1
-14.0,-218.0,-38.0,-17.0,-135.0,238.0,1
-5.0,-212.0,-33.0,-24.0,-135.0,211.0,1
0.0,-210.0,-34.0,-37.0,-129.0,188.0,1
8.0,-208.0,-36.0,-50.0,-124.0,168.0,1
16.0,-199.0,-38.0,-64.0,-117.0,151.0,1
18.0,-193.0,-34.0,-84.0,-111.0,144.0,1
30.0,-199.0,-26.0,-109.0,-100.0,150.0,1
24.0,-196.0,-30.0,-115.0,-88.0,156.0,1
24.0,-197.0,-25.0,-112.0,-74.0,168.0,1
25.0,-198.0,-20.0,-105.0,-64.0,186.0,1
24.0,-200.0,-21.0,-96.0,-57.0,202.0,1
22.0,-202.0,-20.0,-89.0,-51.0,216.0,1
17.0,-205.0,-19.0,-88.0,-39.0,230.0,1
14.0,-209.0,-22.0,-86.0,-26.0,238.0,1
9.0,-209.0,-21.0,-88.0,-11.0,238.0,1
11.0,-211.0,-20.0,-93.0,3.0,231.0,1
18.0,-214.0,-17.0,-107.0,21.0,221.0,1
14.0,-216.0,-14.0,-122.0,40.0,221.0,1
10.0,-214.0,-22.0,-114.0,47.0,220.0,1
6.0,-219.0,-19.0,-90.0,42.0,202.0,1
3.0,-219.0,-20.0,-63.0,46.0,169.0,1
7.0,-222.0,-15.0,-45.0,58.0,138.0,1
3.0,-223.0,-19.0,-33.0,72.0,115.0,1
2.0,-226.0,-16.0,-31.0,88.0,100.0,1
1.0,-231.0,-12.0,-21.0,97.0,92.0,1
-1.0,-231.0,-13.0,3.0,94.0,85.0,1
-1.0,-234.0,-9.0,20.0,89.0,83.0,1
-5.0,-227.0,-11.0,40.0,83.0,84.0,1
-7.0,-229.0,-10.0,41.0,85.0,91.0,1
-6.0,-235.0,-15.0,33.0,87.0,100.0,1
-4.0,-239.0,-7.0,27.0,96.0,108.0,1
-3.0,-245.0,-9.0,27.0,102.0,111.0,1
3.0,-249.0,-7.0,37.0,112.0,109.0,1
10.0,-246.0,-5.0,43.0,129.0,103.0,1
17.0,-256.0,-2.0,46.0,153.0,98.0,1
23.0,-254.0,-5.0,52.0,180.0,84.0,1
30.0,-255.0,-5.0,59.0,209.0,64.0,1
32.0,-256.0,-7.0,63.0,238.0,45.0,1
43.0,-259.0,-4.0,74.0,267.0,26.0,1
42.0,-261.0,4.0,91.0,291.0,9.0,1
37.0,-267.0,1.0,117.0,313.0,-5.0,1
45.0,-271.0,6.0,145.0,334.0,-16.0,1
37.0,-279.0,11.0,173.0,351.0,-21.0,1
31.0,-283.0,13.0,210.0,357.0,-27.0,1
23.0,-285.0,14.0,250.0,354.0,-28.0,1
9.0,-280.0,16.0,282.0,335.0,-25.0,1
-9.0,-274.0,16.0,303.0,302.0,-15.0,1
-24.0,-274.0,14.0,312.0,265.0,0.0,1
-44.0,-272.0,15.0,312.0,225.0,18.0,1
-52.0,-273.0,24.0,306.0,188.0,35.0,1
-61.0,-268.0,26.0,303.0,156.0,46.0,1
-65.0,-273.0,28.0,305.0,127.0,52.0,1
-67.0,-261.0,35.0,315.0,100.0,53.0,1
-62.0,-260.0,42.0,333.0,75.0,50.0,1
-61.0,-259.0,52.0,357.0,49.0,39.0,1
-57.0,-262.0,60.0,387.0,21.0,29.0,1
-47.0,-260.0,67.0,422.0,-11.0,23.0,1
-37.0,-261.0,71.0,450.0,-45.0,22.0,1
-32.0,-261.0,74.0,470.0,-75.0,26.0,1
-23.0,-258.0,72.0,479.0,-106.0,42.0,1
-16.0,-259.0,65.0,470.0,-139.0,64.0,1
-12.0,-259.0,53.0,444.0,-181.0,91.0,1
0.0,-264.0,31.0,400.0,-239.0,125.0,1
-6.0,-269.0,18.0,340.0,-309.0,162.0,1
-8.0,-286.0,-11.0,268.0,-383.0,205.0,1
-8.0,-307.0,-38.0,192.0,-443.0,249.0,1
-10.0,-331.0,-63.0,125.0,-472.0,286.0,1
-15.0,-350.0,-72.0,78.0,-470.0,317.0,1
-17.0,-367.0,-76.0,58.0,-445.0,343.0,1
-13.0,-381.0,-65.0,80.0,-421.0,368.0,1
-6.0,-382.0,-56.0,140.0,-412.0,390.0,1
-7.0,-377.0,-55.0,222.0,-430.0,409.0,1
-4.0,-374.0,-59.0,296.0,-484.0,429.0,1
-4.0,-355.0,-73.0,324.0,-562.0,450.0,1
-2.0,-331.0,-88.0,299.0,-653.0,446.0,1
1.0,-315.0,-99.0,239.0,-736.0,420.0,1
4.0,-306.0,-115.0,185.0,-782.0,404.0,1
11.0,-295.0,-124.0,152.0,-780.0,397.0,1
16.0,-285.0,-124.0,139.0,-731.0,392.0,1
27.0,-267.0,-126.0,140.0,-641.0,379.0,1
45.0,-254.0,-119.0,146.0,-524.0,361.0,1
50.0,-239.0,-111.0,152.0,-396.0,343.0,1
57.0,-227.0,-108.0,162.0,-275.0,326.0,1
75.0,-221.0,-111.0,170.0,-168.0,301.0,1
75.0,-219.0,-104.0,175.0,-76.0,266.0,1
79.0,-212.0,-100.0,175.0,-7.0,235.0,1
80.0,-213.0,-103.0,161.0,40.0,204.0,1
80.0,-212.0,-96.0,141.0,61.0,172.0,1
71.0,-209.0,-95.0,112.0,63.0,143.0,1
62.0,-210.0,-87.0,82.0,52.0,116.0,1
54.0,-212.0,-86.0,53.0,29.0,89.0,1
41.0,-213.0,-77.0,29.0,-3.0,64.0,1
26.0,-214.0,-79.0,9.0,-43.0,37.0,1
7.0,-215.0,-84.0,-14.0,-86.0,13.0,1
-4.0,-228.0,-75.0,-27.0,-132.0,-10.0,1
-16.0,-232.0,-73.0,-43.0,-175.0,-32.0,1
-29.0,-234.0,-70.0,-54.0,-215.0,-50.0,1
-38.0,-235.0,-68.0,-52.0,-254.0,-64.0,1
-50.0,-240.0,-57.0,-42.0,-291.0,-78.0,1
-55.0,-243.0,-55.0,-25.0,-334.0,-90.0,1
-59.0,-248.0,-48.0,-4.0,-381.0,-104.0,1
-61.0,-246.0,-43.0,20.0,-428.0,-122.0,1
-62.0,-249.0,-46.0,38.0,-477.0,-141.0,1
-56.0,-244.0,-42.0,52.0,-524.0,-168.0,1
-53.0,-240.0,-47.0,54.0,-564.0,-197.0,1
-45.0,-237.0,-47.0,46.0,-603.0,-230.0,1
-33.0,-230.0,-45.0,40.0,-644.0,-262.0,1
-25.0,-224.0,-50.0,40.0,-683.0,-288.0,1
-9.0,-222.0,-50.0,41.0,-713.0,-312.0,1
1.0,-219.0,-41.0,41.0,-735.0,-330.0,1
7.0,-214.0,-41.0,43.0,-755.0,-351.0,1
15.0,-211.0,-47.0,41.0,-772.0,-371.0,1
21.0,-208.0,-41.0,34.0,-774.0,-379.0,1
21.0,-207.0,-39.0,31.0,-776.0,-382.0,1
27.0,-207.0,-39.0,29.0,-781.0,-376.0,1
26.0,-210.0,-38.0,31.0,-792.0,-363.0,1
17.0,-208.0,-47.0,35.0,-816.0,-355.0,1
23.0,-212.0,-45.0,23.0,-833.0,-349.0,1
15.0,-208.0,-45.0,3.0,-836.0,-345.0,1
15.0,-212.0,-48.0,-19.0,-838.0,-335.0,1
10.0,-210.0,-48.0,-44.0,-844.0,-321.0,1
7.0,-213.0,-42.0,-62.0,-858.0,-310.0,1
5.0,-212.0,-46.0,-75.0,-873.0,-309.0,1
5.0,-212.0,-41.0,-94.0,-886.0,-314.0,1
13.0,-216.0,-41.0,-109.0,-893.0,-328.0,1
10.0,-215.0,-37.0,-117.0,-896.0,-347.0,1
12.0,-217.0,-39.0,-125.0,-892.0,-369.0,1
5.0,-217.0,-38.0,-123.0,-884.0,-407.0,1
25.0,-212.0,-37.0,-93.0,-877.0,-427.0,1
31.0,-209.0,-32.0,-75.0,-877.0,-402.0,1
36.0,-208.0,-33.0,-74.0,-886.0,-376.0,1
42.0,-210.0,-28.0,-70.0,-899.0,-353.0,1
45.0,-211.0,-31.0,-72.0,-911.0,-339.0,1
50.0,-211.0,-30.0,-84.0,-917.0,-330.0,1
54.0,-211.0,-30.0,-89.0,-908.0,-305.0,1
53.0,-215.0,-27.0,-94.0,-896.0,-282.0,1
52.0,-215.0,-32.0,-96.0,-888.0,-259.0,1
50.0,-217.0,-24.0,-94.0,-877.0,-236.0,1
45.0,-223.0,-20.0,-88.0,-864.0,-214.0,1
47.0,-225.0,-21.0,-78.0,-849.0,-192.0,1
42.0,-228.0,-18.0,-66.0,-832.0,-170.0,1
41.0,-232.0,-17.0,-49.0,-813.0,-148.0,1
39.0,-232.0,-13.0,-33.0,-794.0,-132.0,1
36.0,-234.0,-10.0,-13.0,-778.0,-119.0,1
32.0,-234.0,-9.0,-4.0,-764.0,-105.0,1
31.0,-235.0,-10.0,9.0,-753.0,-96.0,1
28.0,-230.0,-3.0,25.0,-746.0,-82.0,1
28.0,-228.0,0.0,44.0,-747.0,-74.0,1
25.0,-225.0,4.0,62.0,-751.0,-65.0,1
27.0,-221.0,3.0,84.0,-759.0,-56.0,1
26.0,-219.0,2.0,100.0,-768.0,-45.0,1
27.0,-217.0,0.0,109.0,-779.0,-35.0,1
27.0,-219.0,-3.0,111.0,-787.0,-30.0,1
29.0,-222.0,-2.0,108.0,-794.0,-27.0,1
29.0,-224.0,-2.0,102.0,-792.0,-26.0,1
33.0,-228.0,-1.0,92.0,-779.0,-26.0,1
32.0,-237.0,-3.0,82.0,-760.0,-31.0,1
41.0,-242.0,-4.0,74.0,-726.0,-34.0,1
43.0,-245.0,-7.0,68.0,-691.0,-45.0,1
51.0,-246.0,-5.0,63.0,-656.0,-61.0,1
50.0,-255.0,-7.0,58.0,-623.0,-81.0,1
60.0,-256.0,-9.0,57.0,-592.0,-98.0,1
66.0,-259.0,-4.0,61.0,-562.0,-115.0,1
73.0,-263.0,-3.0,74.0,-532.0,-126.0,1
76.0,-267.0,5.0,95.0,-501.0,-132.0,1
75.0,-267.0,10.0,119.0,-469.0,-135.0,1
76.0,-265.0,13.0,146.0,-440.0,-136.0,1
81.0,-270.0,21.0,176.0,-410.0,-133.0,1
79.0,-275.0,27.0,209.0,-379.0,-131.0,1
77.0,-274.0,36.0,246.0,-352.0,-131.0,1
73.0,-269.0,48.0,285.0,-325.0,-130.0,1
71.0,-269.0,49.0,333.0,-302.0,-128.0,1
70.0,-267.0,55.0,381.0,-283.0,-128.0,1
64.0,-268.0,59.0,429.0,-267.0,-130.0,1
62.0,-265.0,61.0,475.0,-253.0,-131.0,1
59.0,-263.0,63.0,509.0,-244.0,-136.0,1
62.0,-260.0,57.0,526.0,-237.0,-144.0,1
56.0,-257.0,52.0,514.0,-230.0,-165.0,1
57.0,-259.0,39.0,472.0,-217.0,-179.0,1
60.0,-263.0,28.0,398.0,-189.0,-192.0,1
60.0,-272.0,5.0,300.0,-149.0,-211.0,1
55.0,-284.0,-25.0,185.0,-119.0,-233.0,1
54.0,-303.0,-55.0,58.0,-103.0,-260.0,1
56.0,-325.0,-71.0,-61.0,-94.0,-289.0,1
54.0,-345.0,-72.0,-145.0,-94.0,-322.0,1
70.0,-364.0,-66.0,-123.0,-103.0,-366.0,1
96.0,-373.0,-58.0,-2.0,-94.0,-428.0,1
106.0,-380.0,-49.0,176.0,-47.0,-494.0,1
104.0,-379.0,-42.0,337.0,20.0,-570.0,1
97.0,-378.0,-48.0,455.0,109.0,-651.0,1
85.0,-374.0,-54.0,523.0,216.0,-731.0,1
63.0,-359.0,-65.0,526.0,329.0,-780.0,1
41.0,-341.0,-87.0,464.0,441.0,-787.0,1
5.0,-319.0,-99.0,357.0,539.0,-747.0,1
-27.0,-299.0,-121.0,223.0,596.0,-680.0,1
-59.0,-274.0,-135.0,79.0,608.0,-603.0,1
-94.0,-255.0,-135.0,-49.0,568.0,-517.0,1
-122.0,-240.0,-133.0,-127.0,463.0,-418.0,1
-135.0,-231.0,-128.0,-141.0,306.0,-325.0,1
-144.0,-223.0,-125.0,-94.0,121.0,-250.0,1
-136.0,-234.0,-111.0,-10.0,-73.0,-194.0,1
-125.0,-244.0,-100.0,81.0,-259.0,-161.0,1
-107.0,-250.0,-97.0,149.0,-421.0,-137.0,1
-89.0,-257.0,-87.0,184.0,-557.0,-125.0,1
-70.0,-260.0,-88.0,185.0,-662.0,-121.0,1
-48.0,-256.0,-89.0,154.0,-735.0,-119.0,1
-35.0,-254.0,-90.0,100.0,-776.0,-119.0,1
-20.0,-245.0,-96.0,35.0,-788.0,-112.0,1
-7.0,-244.0,-98.0,-34.0,-773.0,-106.0,1
4.0,-238.0,-96.0,-91.0,-732.0,-99.0,1
16.0,-232.0,-94.0,-126.0,-673.0,-86.0,1
32.0,-233.0,-88.0,-139.0,-602.0,-69.0,1
49.0,-232.0,-76.0,-133.0,-530.0,-43.0,1
51.0,-234.0,-77.0,-114.0,-464.0,-9.0,1
61.0,-233.0,-69.0,-83.0,-401.0,25.0,1
67.0,-232.0,-64.0,-49.0,-344.0,60.0,1
66.0,-234.0,-63.0,-23.0,-289.0,96.0,1
66.0,-233.0,-66.0,-7.0,-237.0,135.0,1
63.0,-231.0,-62.0,-2.0,-190.0,175.0,1
54.0,-226.0,-61.0,-14.0,-152.0,213.0,1
47.0,-223.0,-57.0,-35.0,-120.0,246.0,1
38.0,-217.0,-57.0,-64.0,-97.0,272.0,1
29.0,-214.0,-54.0,-91.0,-84.0,291.0,1
18.0,-211.0,-45.0,-111.0,-86.0,305.0,1
7.0,-208.0,-37.0,-115.0,-102.0,313.0,1
-1.0,-207.0,-41.0,-107.0,-123.0,313.0,1
-5.0,-201.0,-36.0,-93.0,-152.0,306.0,1
-13.0,-200.0,-35.0,-74.0,-185.0,293.0,1
-17.0,-197.0,-30.0,-57.0,-215.0,281.0,1
-17.0,-197.0,-30.0,-41.0,-242.0,266.0,1
-20.0,-199.0,-32.0,-31.0,-267.0,249.0,1
-13.0,-198.0,-40.0,-31.0,-284.0,232.0,1
-13.0,-201.0,-37.0,-40.0,-300.0,214.0,1
-4.0,-198.0,-32.0,-58.0,-311.0,197.0,1
5.0,-199.0,-36.0,-79.0,-315.0,183.0,1
20.0,-203.0,-37.0,-100.0,-313.0,167.0,1
21.0,-197.0,-33.0,-123.0,-308.0,153.0,1
31.0,-193.0,-33.0,-146.0,-300.0,142.0,1
36.0,-192.0,-34.0,-172.0,-286.0,132.0,1
40.0,-190.0,-33.0,-188.0,-269.0,128.0,1
34.0,-190.0,-34.0,-199.0,-253.0,124.0,1
31.0,-187.0,-30.0,-203.0,-237.0,126.0,1
29.0,-192.0,-25.0,-201.0,-219.0,128.0,1
24.0,-191.0,-24.0,-186.0,-195.0,134.0,1
18.0,-193.0,-24.0,-166.0,-167.0,141.0,1
13.0,-197.0,-18.0,-143.0,-143.0,143.0,1
11.0,-199.0,-13.0,-120.0,-115.0,143.0,1
4.0,-203.0,-10.0,-94.0,-85.0,139.0,1
-2.0,-202.0,-20.0,-78.0,-60.0,133.0,1
-1.0,-207.0,-24.0,-68.0,-36.0,125.0,1
-5.0,-211.0,-16.0,-65.0,-15.0,115.0,1
-4.0,-219.0,-18.0,-62.0,4.0,102.0,1
-3.0,-220.0,-22.0,-59.0,18.0,93.0,1
-2.0,-225.0,-16.0,-53.0,24.0,82.0,1
-4.0,-230.0,-16.0,-49.0,31.0,75.0,1
-2.0,-237.0,-17.0,-46.0,31.0,67.0,1
3.0,-236.0,-9.0,-42.0,25.0,60.0,1
0.0,-233.0,-11.0,-43.0,18.0,56.0,1
8.0,-234.0,-11.0,-31.0,17.0,58.0,1
6.0,-240.0,-23.0,-18.0,19.0,59.0,1
1.0,-237.0,-16.0,-11.0,27.0,58.0,1
6.0,-241.0,-10.0,-4.0,35.0,60.0,1
8.0,-238.0,-10.0,2.0,46.0,59.0,1
10.0,-244.0,-16.0,3.0,66.0,55.0,1
6.0,-243.0,-8.0,7.0,81.0,52.0,1
15.0,-243.0,-6.0,19.0,95.0,45.0,1
32.0,-249.0,-10.0,33.0,108.0,37.0,1
19.0,-256.0,-11.0,49.0,128.0,31.0,1
32.0,-257.0,-11.0,66.0,148.0,25.0,1
38.0,-265.0,-5.0,86.0,174.0,27.0,1
21.0,-271.0,-2.0,97.0,205.0,23.0,1
28.0,-283.0,5.0,123.0,215.0,11.0,1
28.0,-274.0,6.0,151.0,219.0,0.0,1
22.0,-281.0,12.0,183.0,216.0,-6.0,1
12.0,-282.0,10.0,218.0,207.0,-10.0,1
-3.0,-282.0,16.0,252.0,185.0,-14.0,1
-7.0,-281.0,19.0,283.0,153.0,-12.0,1
-22.0,-278.0,19.0,314.0,114.0,-3.0,1
-37.0,-275.0,20.0,344.0,78.0,7.0,1
-39.0,-274.0,27.0,369.0,44.0,20.0,1
-47.0,-275.0,32.0,392.0,17.0,34.0,1
-52.0,-272.0,32.0,415.0,-1.0,45.0,1
-48.0,-265.0,36.0,440.0,-13.0,53.0,1
-48.0,-269.0,39.0,468.0,-22.0,62.0,1
-39.0,-260.0,49.0,491.0,-30.0,66.0,1
-37.0,-255.0,49.0,510.0,-40.0,70.0,1
-30.0,-257.0,43.0,519.0,-59.0,70.0,1
-19.0,-249.0,42.0,511.0,-86.0,71.0,1
-18.0,-256.0,25.0,482.0,-125.0,77.0,1
-19.0,-266.0,15.0,436.0,-173.0,89.0,1
-15.0,-280.0,-5.0,375.0,-228.0,109.0,1
-17.0,-295.0,-25.0,299.0,-280.0,139.0,1
-7.0,-318.0,-53.0,211.0,-316.0,173.0,1
-15.0,-340.0,-66.0,120.0,-325.0,203.0,1
-13.0,-366.0,-64.0,55.0,-308.0,237.0,1
-11.0,-384.0,-70.0,30.0,-277.0,277.0,1
-6.0,-398.0,-77.0,42.0,-245.0,315.0,1
-5.0,-404.0,-82.0,73.0,-236.0,356.0,1
-7.0,-398.0,-100.0,119.0,-274.0,402.0,1
-4.0,-388.0,-109.0,157.0,-357.0,443.0,1
7.0,-371.0,-116.0,171.0,-460.0,472.0,1
14.0,-349.0,-126.0,170.0,-553.0,466.0,1
17.0,-321.0,-135.0,160.0,-611.0,446.0,1
28.0,-298.0,-135.0,149.0,-626.0,424.0,1
33.0,-278.0,-138.0,145.0,-603.0,398.0,1
40.0,-256.0,-131.0,152.0,-555.0,369.0,1
44.0,-227.0,-120.0,172.0,-490.0,336.0,1
51.0,-214.0,-115.0,196.0,-421.0,302.0,1
57.0,-201.0,-105.0,214.0,-347.0,270.0,1
58.0,-199.0,-110.0,222.0,-270.0,240.0,1
62.0,-201.0,-106.0,214.0,-192.0,211.0,1
64.0,-205.0,-98.0,190.0,-119.0,187.0,1
65.0,-210.0,-97.0,152.0,-56.0,167.0,1
64.0,-210.0,-96.0,104.0,-6.0,151.0,1
63.0,-214.0,-97.0,55.0,28.0,138.0,1
61.0,-217.0,-96.0,8.0,44.0,121.0,1
55.0,-215.0,-97.0,-33.0,43.0,102.0,1
47.0,-222.0,-103.0,-68.0,28.0,77.0,1
30.0,-221.0,-97.0,-96.0,-3.0,50.0,1
23.0,-227.0,-94.0,-117.0,-41.0,22.0,1
10.0,-231.0,-87.0,-127.0,-86.0,-10.0,1
4.0,-240.0,-75.0,-134.0,-131.0,-40.0,1
-16.0,-243.0,-73.0,-136.0,-175.0,-70.0,1
-28.0,-252.0,-67.0,-136.0,-214.0,-97.0,1
-32.0,-255.0,-70.0,-125.0,-247.0,-116.0,1
-44.0,-255.0,-58.0,-112.0,-279.0,-134.0,1
-47.0,-255.0,-61.0,-95.0,-311.0,-147.0,1
-49.0,-251.0,-59.0,-79.0,-344.0,-161.0,1
-48.0,-250.0,-53.0,-65.0,-374.0,-174.0,1
-45.0,-239.0,-55.0,-56.0,-401.0,-186.0,1
-38.0,-235.0,-49.0,-48.0,-426.0,-201.0,1
-34.0,-228.0,-49.0,-30.0,-452.0,-217.0,1
-28.0,-215.0,-41.0,-4.0,-477.0,-229.0,1
-16.0,-212.0,-39.0,17.0,-500.0,-241.0,1
-7.0,-205.0,-41.0,37.0,-519.0,-251.0,1
1.0,-201.0,-38.0,55.0,-533.0,-254.0,1
8.0,-198.0,-43.0,64.0,-547.0,-254.0,1
13.0,-192.0,-37.0,66.0,-556.0,-250.0,1
15.0,-192.0,-41.0,58.0,-564.0,-249.0,1
14.0,-188.0,-42.0,48.0,-575.0,-247.0,1
14.0,-187.0,-40.0,39.0,-586.0,-248.0,1
14.0,-192.0,-43.0,33.0,-600.0,-250.0,1
13.0,-191.0,-38.0,25.0,-615.0,-254.0,1
9.0,-194.0,-48.0,18.0,-632.0,-258.0,1
9.0,-203.0,-47.0,14.0,-649.0,-269.0,1
4.0,-207.0,-43.0,18.0,-670.0,-277.0,1
5.0,-215.0,-42.0,19.0,-693.0,-287.0,1
1.0,-220.0,-36.0,13.0,-720.0,-299.0,1
0.0,-221.0,-35.0,6.0,-746.0,-312.0,1
-1.0,-225.0,-32.0,0.0,-770.0,-325.0,1
-1.0,-224.0,-34.0,-11.0,-797.0,-332.0,1
3.0,-227.0,-30.0,-16.0,-824.0,-336.0,1
11.0,-225.0,-30.0,-20.0,-847.0,-336.0,1
10.0,-227.0,-32.0,-23.0,-868.0,-336.0,1
15.0,-223.0,-31.0,-22.0,-882.0,-331.0,1
18.0,-218.0,-28.0,-14.0,-891.0,-325.0,1
25.0,-220.0,-25.0,3.0,-897.0,-316.0,1
29.0,-220.0,-29.0,28.0,-901.0,-307.0,1
32.0,-220.0,-26.0,51.0,-901.0,-295.0,1
36.0,-219.0,-27.0,81.0,-899.0,-283.0,1
36.0,-222.0,-23.0,110.0,-899.0,-270.0,1
41.0,-227.0,-19.0,136.0,-898.0,-255.0,1
44.0,-228.0,-24.0,154.0,-896.0,-242.0,1
47.0,-231.0,-19.0,166.0,-892.0,-229.0,1
49.0,-235.0,-11.0,173.0,-885.0,-218.0,1
46.0,-240.0,-14.0,178.0,-880.0,-212.0,1
44.0,-242.0,-11.0,182.0,-872.0,-203.0,1
46.0,-244.0,-11.0,185.0,-868.0,-194.0,1
40.0,-247.0,-10.0,187.0,-864.0,-186.0,1
36.0,-241.0,-8.0,194.0,-861.0,-179.0,1
33.0,-235.0,-4.0,201.0,-861.0,-169.0,1
30.0,-227.0,0.0,211.0,-859.0,-154.0,1
25.0,-223.0,-2.0,222.0,-862.0,-139.0,1
26.0,-219.0,2.0,237.0,-870.0,-123.0,1
21.0,-215.0,2.0,248.0,-878.0,-106.0,1
19.0,-211.0,1.0,254.0,-886.0,-91.0,1
18.0,-213.0,4.0,259.0,-889.0,-74.0,1
26.0,-217.0,6.0,263.0,-888.0,-61.0,1
23.0,-221.0,5.0,265.0,-882.0,-51.0,1
29.0,-220.0,2.0,259.0,-878.0,-62.0,1
36.0,-226.0,-2.0,249.0,-855.0,-68.0,1
41.0,-229.0,3.0,240.0,-817.0,-62.0,1
50.0,-233.0,-2.0,234.0,-774.0,-63.0,1
61.0,-241.0,-7.0,226.0,-727.0,-71.0,1
66.0,-241.0,-7.0,215.0,-682.0,-83.0,1
74.0,-245.0,-5.0,201.0,-641.0,-97.0,1
86.0,-252.0,-3.0,185.0,-597.0,-111.0,1
93.0,-252.0,-7.0,172.0,-555.0,-124.0,1
95.0,-254.0,-3.0,168.0,-510.0,-132.0,1
97.0,-256.0,-1.0,175.0,-467.0,-141.0,1
99.0,-256.0,10.0,190.0,-420.0,-143.0,1
97.0,-257.0,9.0,210.0,-373.0,-145.0,1
98.0,-261.0,15.0,234.0,-329.0,-148.0,1
91.0,-259.0,24.0,261.0,-281.0,-150.0,1
89.0,-264.0,30.0,291.0,-243.0,-154.0,1
81.0,-260.0,38.0,325.0,-210.0,-155.0,1
75.0,-262.0,43.0,362.0,-182.0,-157.0,1
70.0,-261.0,47.0,401.0,-161.0,-161.0,1
66.0,-265.0,56.0,440.0,-146.0,-159.0,1
58.0,-264.0,54.0,474.0,-136.0,-159.0,1
53.0,-262.0,52.0,497.0,-131.0,-161.0,1
50.0,-264.0,46.0,498.0,-126.0,-167.0,1
35.0,-266.0,35.0,477.0,-125.0,-178.0,1
29.0,-273.0,14.0,441.0,-121.0,-183.0,1
23.0,-289.0,-4.0,386.0,-119.0,-189.0,1
15.0,-307.0,-33.0,318.0,-120.0,-196.0,1
10.0,-322.0,-47.0,229.0,-135.0,-198.0,1
13.0,-350.0,-76.0,138.0,-160.0,-204.0,1
18.0,-376.0,-81.0,77.0,-188.0,-224.0,1
44.0,-396.0,-71.0,87.0,-198.0,-257.0,1
62.0,-403.0,-65.0,184.0,-162.0,-312.0,1
75.0,-407.0,-61.0,321.0,-79.0,-387.0,1
80.0,-404.0,-64.0,446.0,36.0,-476.0,1
72.0,-389.0,-70.0,519.0,165.0,-570.0,1
66.0,-372.0,-82.0,526.0,294.0,-657.0,1
57.0,-351.0,-101.0,479.0,409.0,-712.0,1
40.0,-324.0,-115.0,405.0,486.0,-720.0,1
16.0,-301.0,-117.0,333.0,500.0,-699.0,1
-15.0,-272.0,-121.0,283.0,453.0,-653.0,1
-42.0,-247.0,-121.0,245.0,352.0,-594.0,1
-73.0,-229.0,-114.0,212.0,220.0,-524.0,1
-109.0,-211.0,-117.0,184.0,71.0,-449.0,1
-128.0,-201.0,-111.0,162.0,-86.0,-372.0,1
-139.0,-199.0,-107.0,155.0,-240.0,-298.0,1
-144.0,-202.0,-95.0,163.0,-390.0,-231.0,1
-139.0,-211.0,-93.0,183.0,-529.0,-171.0,1
-131.0,-222.0,-89.0,204.0,-652.0,-120.0,1
-114.0,-234.0,-81.0,214.0,-758.0,-82.0,1
-89.0,-246.0,-82.0,200.0,-839.0,-58.0,1
-69.0,-251.0,-87.0,162.0,-892.0,-44.0,1
-54.0,-259.0,-88.0,111.0,-926.0,-35.0,1
-33.0,-264.0,-87.0,53.0,-935.0,-29.0,1
-11.0,-268.0,-88.0,2.0,-922.0,-22.0,1
13.0,-272.0,-85.0,-38.0,-890.0,-20.0,1
34.0,-272.0,-83.0,-61.0,-838.0,-18.0,1
49.0,-269.0,-83.0,-73.0,-775.0,-22.0,1
70.0,-264.0,-78.0,-74.0,-705.0,-22.0,1
85.0,-252.0,-74.0,-60.0,-634.0,-18.0,1
98.0,-244.0,-70.0,-49.0,-566.0,-3.0,1
99.0,-238.0,-67.0,-41.0,-496.0,21.0,1
104.0,-229.0,-58.0,-39.0,-431.0,54.0,1
99.0,-222.0,-59.0,-38.0,-373.0,89.0,1
91.0,-215.0,-53.0,-39.0,-322.0,121.0,1
75.0,-214.0,-48.0,-42.0,-280.0,161.0,1
71.0,-211.0,-48.0,-47.0,-247.0,196.0,1
55.0,-203.0,-40.0,-50.0,-216.0,229.0,1
42.0,-203.0,-40.0,-47.0,-191.0,254.0,1
27.0,-202.0,-37.0,-40.0,-168.0,271.0,1
14.0,-205.0,-29.0,-34.0,-154.0,286.0,1
5.0,-205.0,-28.0,-35.0,-148.0,293.0,1
-4.0,-207.0,-22.0,-36.0,-153.0,288.0,1
-6.0,-207.0,-24.0,-36.0,-162.0,279.0,1
-4.0,-211.0,-20.0,-41.0,-168.0,265.0,1
-4.0,-209.0,-26.0,-49.0,-172.0,244.0,1
-1.0,-210.0,-21.0,-64.0,-171.0,219.0,1
2.0,-204.0,-24.0,-82.0,-169.0,193.0,1
11.0,-204.0,-26.0,-100.0,-164.0,164.0,1
16.0,-195.0,-29.0,-115.0,-152.0,139.0,1
19.0,-190.0,-30.0,-132.0,-135.0,121.0,1
25.0,-190.0,-28.0,-146.0,-111.0,105.0,1
27.0,-185.0,-25.0,-141.0,-82.0,94.0,1
40.0,-180.0,-30.0,-123.0,-51.0,88.0,1
32.0,-173.0,-22.0,-123.0,-18.0,98.0,1
34.0,-170.0,-16.0,-121.0,5.0,116.0,1
34.0,-177.0,-14.0,-115.0,24.0,137.0,1
31.0,-178.0,-7.0,-105.0,48.0,154.0,1
25.0,-182.0,-7.0,-90.0,70.0,170.0,1
16.0,-188.0,-7.0,-78.0,91.0,182.0,1
14.0,-193.0,-7.0,-66.0,112.0,187.0,1
9.0,-198.0,-6.0,-59.0,128.0,183.0,1
8.0,-203.0,-8.0,-53.0,140.0,168.0,1
1.0,-209.0,-7.0,-50.0,149.0,151.0,1
-1.0,-212.0,-12.0,-51.0,155.0,129.0,1
-2.0,-215.0,-12.0,-52.0,158.0,103.0,1
-2.0,-220.0,-12.0,-54.0,157.0,78.0,1
-4.0,-224.0,-17.0,-56.0,156.0,54.0,1
-5.0,-227.0,-14.0,-54.0,151.0,32.0,1
-4.0,-231.0,-10.0,-47.0,147.0,16.0,1
-6.0,-232.0,-8.0,-37.0,141.0,4.0,1
-6.0,-233.0,-6.0,-24.0,137.0,-6.0,1
-8.0,-233.0,-4.0,-9.0,131.0,-13.0,1
-9.0,-233.0,-7.0,7.0,125.0,-18.0,1
-5.0,-238.0,-4.0,23.0,119.0,-15.0,1
-10.0,-241.0,-3.0,39.0,112.0,-13.0,1
-11.0,-238.0,-2.0,57.0,103.0,-11.0,1
-7.0,-242.0,0.0,73.0,98.0,-8.0,1
-4.0,-245.0,1.0,89.0,96.0,-10.0,1
-3.0,-247.0,3.0,101.0,97.0,-14.0,1
4.0,-249.0,1.0,113.0,102.0,-19.0,1
10.0,-251.0,2.0,124.0,112.0,-23.0,1
16.0,-255.0,1.0,131.0,124.0,-38.0,1
28.0,-256.0,2.0,139.0,127.0,-60.0,1
31.0,-256.0,2.0,153.0,129.0,-86.0,1
37.0,-261.0,7.0,176.0,132.0,-111.0,1
36.0,-263.0,7.0,214.0,135.0,-138.0,1
39.0,-265.0,18.0,260.0,139.0,-157.0,1
33.0,-260.0,18.0,328.0,135.0,-166.0,1
30.0,-257.0,30.0,380.0,120.0,-151.0,1
22.0,-259.0,31.0,414.0,86.0,-124.0,1
4.0,-255.0,27.0,436.0,35.0,-96.0,1
-9.0,-256.0,34.0,446.0,-23.0,-62.0,1
-25.0,-255.0,30.0,436.0,-79.0,-23.0,1
-37.0,-258.0,35.0,409.0,-129.0,18.0,1
-52.0,-259.0,35.0,392.0,-171.0,48.0,1
-63.0,-261.0,37.0,390.0,-206.0,72.0,1
-70.0,-267.0,46.0,390.0,-240.0,76.0,1
-67.0,-266.0,53.0,391.0,-272.0,71.0,1
-67.0,-264.0,50.0,392.0,-303.0,57.0,1
-61.0,-269.0,58.0,396.0,-332.0,34.0,1
-48.0,-274.0,58.0,407.0,-358.0,9.0,1
-42.0,-273.0,54.0,418.0,-388.0,-12.0,1
-28.0,-276.0,41.0,416.0,-430.0,-30.0,1
-23.0,-276.0,40.0,388.0,-484.0,-39.0,1
-17.0,-288.0,14.0,337.0,-547.0,-34.0,1
-16.0,-310.0,-14.0,262.0,-612.0,-16.0,1
-19.0,-337.0,-45.0,175.0,-671.0,14.0,1
-12.0,-350.0,-61.0,89.0,-716.0,51.0,1
-13.0,-381.0,-75.0,23.0,-743.0,92.0,1
-16.0,-407.0,-71.0,-1.0,-752.0,134.0,1
-21.0,-424.0,-60.0,34.0,-759.0,186.0,1
-22.0,-426.0,-50.0,117.0,-777.0,247.0,1
-21.0,-423.0,-52.0,219.0,-816.0,315.0,1
-14.0,-414.0,-61.0,303.0,-875.0,389.0,1
-7.0,-392.0,-71.0,357.0,-947.0,447.0,1
6.0,-369.0,-100.0,371.0,-1032.0,464.0,1
25.0,-343.0,-120.0,338.0,-1098.0,441.0,1
30.0,-325.0,-139.0,263.0,-1118.0,390.0,1
49.0,-303.0,-148.0,166.0,-1085.0,350.0,1
69.0,-275.0,-148.0,77.0,-1000.0,304.0,1
93.0,-251.0,-145.0,10.0,-875.0,263.0,1
119.0,-223.0,-137.0,-37.0,-685.0,220.0,1
129.0,-206.0,-133.0,-77.0,-508.0,180.0,1
141.0,-186.0,-132.0,-107.0,-333.0,149.0,1
157.0,-169.0,-132.0,-121.0,-176.0,137.0,1
171.0,-158.0,-129.0,-117.0,-47.0,116.0,1
168.0,-156.0,-128.0,-101.0,52.0,85.0,1
168.0,-152.0,-122.0,-83.0,116.0,57.0,1
136.0,-166.0,-125.0,-73.0,170.0,31.0,1
117.0,-182.0,-106.0,-73.0,204.0,16.0,1
87.0,-194.0,-101.0,-88.0,212.0,10.0,1
59.0,-211.0,-91.0,-125.0,208.0,15.0,1
32.0,-225.0,-86.0,-178.0,191.0,21.0,1
-1.0,-243.0,-80.0,-243.0,160.0,25.0,1
-23.0,-268.0,-77.0,-307.0,121.0,31.0,1
-47.0,-286.0,-71.0,-357.0,83.0,38.0,1
-64.0,-296.0,-74.0,-400.0,33.0,43.0,1
-82.0,-302.0,-70.0,-439.0,-24.0,41.0,1
-95.0,-315.0,-72.0,-467.0,-86.0,39.0,1
-96.0,-318.0,-66.0,-458.0,-147.0,15.0,1
-89.0,-314.0,-71.0,-419.0,-202.0,-25.0,1
-82.0,-299.0,-71.0,-381.0,-246.0,-73.0,1
-65.0,-283.0,-67.0,-353.0,-287.0,-124.0,1
-47.0,-258.0,-68.0,-323.0,-330.0,-180.0,1
-26.0,-242.0,-67.0,-287.0,-370.0,-231.0,1
-7.0,-222.0,-64.0,-244.0,-410.0,-279.0,1
3.0,-208.0,-56.0,-201.0,-439.0,-326.0,1
23.0,-195.0,-52.0,-154.0,-452.0,-360.0,1
38.0,-191.0,-46.0,-99.0,-454.0,-389.0,1
55.0,-178.0,-48.0,-35.0,-452.0,-400.0,1
61.0,-173.0,-42.0,3.0,-447.0,-389.0,1
62.0,-173.0,-36.0,12.0,-439.0,-367.0,1
64.0,-179.0,-35.0,7.0,-434.0,-342.0,1
61.0,-183.0,-35.0,-11.0,-427.0,-317.0,1
59.0,-190.0,-37.0,-27.0,-418.0,-288.0,1
55.0,-200.0,-39.0,-41.0,-414.0,-266.0,1
46.0,-210.0,-45.0,-54.0,-417.0,-251.0,1
33.0,-216.0,-43.0,-67.0,-424.0,-235.0,1
21.0,-224.0,-43.0,-91.0,-443.0,-231.0,1
9.0,-233.0,-43.0,-121.0,-473.0,-235.0,1
-1.0,-239.0,-43.0,-153.0,-512.0,-242.0,1
-1.0,-240.0,-39.0,-187.0,-552.0,-254.0,1
-2.0,-238.0,-35.0,-217.0,-583.0,-270.0,1
-1.0,-238.0,-29.0,-243.0,-609.0,-289.0,1
3.0,-234.0,-29.0,-263.0,-631.0,-311.0,1
9.0,-234.0,-35.0,-280.0,-647.0,-335.0,1
17.0,-229.0,-33.0,-297.0,-651.0,-360.0,1
25.0,-223.0,-32.0,-310.0,-644.0,-377.0,1
29.0,-224.0,-32.0,-317.0,-630.0,-381.0,1
39.0,-218.0,-30.0,-312.0,-618.0,-382.0,1
36.0,-215.0,-35.0,-295.0,-610.0,-380.0,1
52.0,-222.0,-35.0,-270.0,-606.0,-365.0,1
54.0,-219.0,-31.0,-241.0,-600.0,-339.0,1
57.0,-215.0,-31.0,-210.0,-590.0,-307.0,1
61.0,-217.0,-37.0,-174.0,-582.0,-279.0,1
59.0,-218.0,-34.0,-145.0,-569.0,-257.0,1
59.0,-217.0,-40.0,-126.0,-554.0,-235.0,1
58.0,-220.0,-44.0,-118.0,-536.0,-216.0,1
58.0,-217.0,-47.0,-118.0,-513.0,-203.0,1
58.0,-222.0,-47.0,-130.0,-487.0,-191.0,1
57.0,-218.0,-44.0,-147.0,-455.0,-180.0,1
54.0,-220.0,-47.0,-163.0,-426.0,-169.0,1
55.0,-218.0,-52.0,-177.0,-399.0,-157.0,1
52.0,-216.0,-43.0,-185.0,-376.0,-143.0,1
52.0,-216.0,-43.0,-191.0,-353.0,-132.0,1
52.0,-214.0,-46.0,-195.0,-331.0,-124.0,1
54.0,-210.0,-47.0,-202.0,-309.0,-120.0,1
59.0,-213.0,-41.0,-216.0,-289.0,-116.0,1
54.0,-212.0,-44.0,-232.0,-272.0,-118.0,1
56.0,-212.0,-44.0,-246.0,-261.0,-117.0,1
55.0,-212.0,-38.0,-257.0,-254.0,-117.0,1
58.0,-217.0,-37.0,-265.0,-247.0,-120.0,1
51.0,-217.0,-34.0,-269.0,-243.0,-129.0,1
44.0,-223.0,-26.0,-271.0,-236.0,-134.0,1
39.0,-222.0,-28.0,-274.0,-228.0,-138.0,1
39.0,-230.0,-25.0,-270.0,-219.0,-139.0,1
37.0,-230.0,-27.0,-263.0,-207.0,-138.0,1
33.0,-233.0,-24.0,-248.0,-195.0,-137.0,1
34.0,-241.0,-24.0,-226.0,-187.0,-136.0,1
34.0,-240.0,-23.0,-197.0,-178.0,-138.0,1
41.0,-242.0,-26.0,-169.0,-169.0,-140.0,1
44.0,-247.0,-25.0,-147.0,-157.0,-144.0,1
47.0,-255.0,-29.0,-136.0,-143.0,-150.0,1
54.0,-259.0,-29.0,-130.0,-135.0,-157.0,1
59.0,-272.0,-25.0,-128.0,-126.0,-169.0,1
64.0,-273.0,-31.0,-130.0,-125.0,-186.0,1
66.0,-278.0,-34.0,-134.0,-130.0,-202.0,1
66.0,-281.0,-34.0,-141.0,-135.0,-220.0,1
63.0,-286.0,-31.0,-145.0,-138.0,-238.0,1
63.0,-286.0,-32.0,-143.0,-142.0,-254.0,1
60.0,-292.0,-33.0,-135.0,-140.0,-267.0,1
53.0,-293.0,-35.0,-120.0,-135.0,-275.0,1
42.0,-290.0,-32.0,-96.0,-129.0,-285.0,1
38.0,-293.0,-36.0,-77.0,-124.0,-287.0,1
37.0,-299.0,-28.0,-53.0,-118.0,-283.0,1
25.0,-294.0,-37.0,-21.0,-110.0,-277.0,1
19.0,-293.0,-32.0,11.0,-110.0,-268.0,1
15.0,-290.0,-28.0,27.0,-128.0,-253.0,1
21.0,-294.0,-20.0,29.0,-166.0,-233.0,1
24.0,-296.0,-23.0,31.0,-206.0,-225.0,1
37.0,-301.0,-26.0,24.0,-241.0,-216.0,1
42.0,-308.0,-35.0,6.0,-265.0,-218.0,1
57.0,-321.0,-43.0,-20.0,-278.0,-224.0,1
63.0,-332.0,-53.0,-45.0,-280.0,-235.0,1
72.0,-350.0,-62.0,-53.0,-279.0,-247.0,1
83.0,-371.0,-57.0,-32.0,-279.0,-264.0,1
100.0,-388.0,-57.0,26.0,-276.0,-280.0,1
108.0,-406.0,-58.0,114.0,-264.0,-303.0,1
115.0,-419.0,-59.0,213.0,-235.0,-339.0,1
111.0,-434.0,-57.0,303.0,-201.0,-391.0,1
105.0,-442.0,-62.0,369.0,-163.0,-450.0,1
85.0,-440.0,-69.0,415.0,-122.0,-508.0,1
63.0,-422.0,-86.0,439.0,-85.0,-537.0,1
53.0,-395.0,-92.0,438.0,-42.0,-541.0,1
35.0,-367.0,-109.0,413.0,-1.0,-513.0,1
1.0,-325.0,-125.0,367.0,22.0,-471.0,1
-19.0,-289.0,-133.0,314.0,13.0,-420.0,1
-35.0,-255.0,-131.0,265.0,-30.0,-371.0,1
-38.0,-231.0,-128.0,217.0,-109.0,-321.0,1
-39.0,-205.0,-130.0,175.0,-215.0,-272.0,1
-42.0,-188.0,-126.0,141.0,-330.0,-224.0,1
-30.0,-188.0,-125.0,120.0,-432.0,-182.0,1
-31.0,-183.0,-125.0,109.0,-506.0,-147.0,1
-25.0,-185.0,-118.0,107.0,-555.0,-128.0,1
-18.0,-186.0,-117.0,110.0,-585.0,-116.0,1
-9.0,-181.0,-112.0,114.0,-598.0,-115.0,1
-2.0,-181.0,-112.0,120.0,-604.0,-124.0,1
5.0,-175.0,-112.0,127.0,-596.0,-138.0,1
12.0,-181.0,-116.0,137.0,-578.0,-160.0,1
21.0,-188.0,-125.0,141.0,-557.0,-191.0,1
21.0,-189.0,-134.0,129.0,-534.0,-224.0,1
19.0,-195.0,-130.0,103.0,-503.0,-252.0,1
15.0,-200.0,-135.0,75.0,-459.0,-276.0,1
14.0,-201.0,-124.0,51.0,-401.0,-294.0,1
8.0,-206.0,-122.0,41.0,-337.0,-304.0,1
8.0,-221.0,-109.0,44.0,-278.0,-307.0,1
4.0,-223.0,-98.0,58.0,-235.0,-304.0,1
6.0,-235.0,-86.0,78.0,-207.0,-294.0,1
-1.0,-240.0,-79.0,103.0,-197.0,-280.0,1
-4.0,-247.0,-74.0,126.0,-196.0,-259.0,1
-6.0,-256.0,-65.0,144.0,-206.0,-231.0,1
-8.0,-260.0,-62.0,152.0,-225.0,-198.0,1
-7.0,-261.0,-58.0,150.0,-257.0,-159.0,1
-8.0,-263.0,-60.0,140.0,-302.0,-120.0,1
-9.0,-260.0,-55.0,133.0,-355.0,-83.0,1
-6.0,-257.0,-59.0,131.0,-421.0,-51.0,1
-2.0,-256.0,-56.0,136.0,-488.0,-32.0,1
-3.0,-251.0,-63.0,154.0,-551.0,-22.0,1
-2.0,-242.0,-66.0,182.0,-607.0,-21.0,1
6.0,-233.0,-69.0,217.0,-652.0,-31.0,1
6.0,-224.0,-72.0,256.0,-684.0,-51.0,1
5.0,-220.0,-74.0,295.0,-708.0,-78.0,1
12.0,-211.0,-73.0,330.0,-728.0,-111.0,1
12.0,-203.0,-71.0,361.0,-739.0,-145.0,1
17.0,-200.0,-69.0,388.0,-746.0,-181.0,1
18.0,-203.0,-59.0,415.0,-750.0,-212.0,1
23.0,-203.0,-61.0,440.0,-753.0,-234.0,1
23.0,-201.0,-54.0,463.0,-753.0,-248.0,1
25.0,-203.0,-50.0,474.0,-751.0,-253.0,1
29.0,-215.0,-58.0,475.0,-742.0,-248.0,1
31.0,-215.0,-51.0,467.0,-725.0,-236.0,1
35.0,-214.0,-53.0,448.0,-709.0,-216.0,1
42.0,-218.0,-49.0,421.0,-692.0,-191.0,1
39.0,-222.0,-56.0,386.0,-673.0,-165.0,1
42.0,-218.0,-57.0,346.0,-654.0,-138.0,1
42.0,-217.0,-57.0,307.0,-641.0,-112.0,1
36.0,-210.0,-62.0,275.0,-633.0,-83.0,1
36.0,-205.0,-58.0,254.0,-625.0,-54.0,1
35.0,-203.0,-52.0,247.0,-610.0,-34.0,1
30.0,-195.0,-57.0,247.0,-586.0,-16.0,1
28.0,-190.0,-60.0,251.0,-561.0,2.0,1
24.0,-188.0,-55.0,258.0,-544.0,16.0,1
22.0,-188.0,-54.0,270.0,-530.0,31.0,1
19.0,-187.0,-51.0,289.0,-522.0,47.0,1
12.0,-184.0,-54.0,308.0,-515.0,69.0,1
10.0,-184.0,-46.0,328.0,-511.0,94.0,1
9.0,-189.0,-45.0,348.0,-514.0,111.0,1
1.0,-188.0,-41.0,367.0,-521.0,126.0,1
-6.0,-192.0,-42.0,376.0,-528.0,136.0,1
-8.0,-201.0,-41.0,381.0,-536.0,147.0,1
-13.0,-206.0,-39.0,380.0,-545.0,157.0,1
-15.0,-213.0,-41.0,375.0,-559.0,168.0,1
-23.0,-212.0,-42.0,375.0,-575.0,175.0,1
-26.0,-218.0,-45.0,373.0,-589.0,181.0,1
-28.0,-225.0,-50.0,369.0,-597.0,185.0,1
-24.0,-226.0,-56.0,359.0,-597.0,181.0,1
-24.0,-225.0,-55.0,339.0,-589.0,173.0,1
-20.0,-226.0,-58.0,316.0,-575.0,161.0,1
-12.0,-226.0,-54.0,293.0,-551.0,150.0,1
-9.0,-222.0,-56.0,277.0,-523.0,138.0,1
-1.0,-223.0,-46.0,271.0,-490.0,127.0,1
5.0,-218.0,-48.0,272.0,-455.0,113.0,1
11.0,-224.0,-43.0,272.0,-423.0,102.0,1
17.0,-216.0,-46.0,268.0,-391.0,96.0,1
24.0,-217.0,-38.0,260.0,-363.0,91.0,1
26.0,-216.0,-41.0,248.0,-333.0,87.0,1
24.0,-218.0,-39.0,235.0,-302.0,86.0,1
22.0,-220.0,-35.0,222.0,-271.0,85.0,1
16.0,-221.0,-34.0,209.0,-242.0,84.0,1
11.0,-225.0,-31.0,196.0,-215.0,82.0,1
0.0,-221.0,-39.0,183.0,-187.0,79.0,1
-1.0,-230.0,-35.0,168.0,-160.0,70.0,1
-9.0,-230.0,-33.0,159.0,-136.0,57.0,1
-14.0,-230.0,-32.0,153.0,-118.0,44.0,1
-17.0,-229.0,-31.0,151.0,-102.0,32.0,1
-25.0,-225.0,-34.0,146.0,-89.0,20.0,1
-26.0,-224.0,-36.0,139.0,-79.0,9.0,1
-26.0,-219.0,-35.0,133.0,-74.0,3.0,1
-31.0,-220.0,-35.0,130.0,-73.0,0.0,1
-31.0,-220.0,-30.0,129.0,-80.0,-4.0,1
-27.0,-223.0,-33.0,132.0,-90.0,-1.0,1
-19.0,-219.0,-24.0,141.0,-102.0,-1.0,1
-19.0,-216.0,-23.0,153.0,-108.0,2.0,1
-17.0,-225.0,-20.0,171.0,-113.0,3.0,1
-8.0,-221.0,-13.0,192.0,-106.0,2.0,1
-9.0,-221.0,-15.0,216.0,-93.0,3.0,1
-12.0,-221.0,-14.0,242.0,-77.0,6.0,1
-14.0,-224.0,-17.0,268.0,-54.0,7.0,1
-18.0,-229.0,-17.0,299.0,-27.0,13.0,1
-21.0,-227.0,-15.0,335.0,0.0,22.0,1
-25.0,-230.0,-12.0,371.0,30.0,35.0,1
-32.0,-235.0,-16.0,404.0,58.0,49.0,1
-32.0,-240.0,-17.0,432.0,82.0,66.0,1
-33.0,-242.0,-13.0,451.0,100.0,82.0,1
-34.0,-249.0,-12.0,467.0,118.0,100.0,1
-34.0,-249.0,-8.0,482.0,131.0,118.0,1
-32.0,-246.0,-9.0,495.0,137.0,132.0,1
-29.0,-244.0,-8.0,503.0,139.0,145.0,1
-34.0,-234.0,-9.0,499.0,134.0,154.0,1
-32.0,-228.0,-11.0,495.0,130.0,165.0,1
-33.0,-222.0,-16.0,488.0,125.0,176.0,1
-35.0,-214.0,-22.0,485.0,120.0,192.0,1
-36.0,-203.0,-22.0,478.0,113.0,209.0,1
-42.0,-194.0,-31.0,467.0,108.0,231.0,1
-49.0,-183.0,-32.0,458.0,98.0,255.0,1
-51.0,-171.0,-27.0,451.0,98.0,284.0,1
-50.0,-168.0,-32.0,448.0,107.0,315.0,1
-42.0,-168.0,-30.0,448.0,128.0,341.0,1
-35.0,-171.0,-23.0,453.0,156.0,356.0,1
-31.0,-176.0,-16.0,466.0,181.0,361.0,1
-23.0,-188.0,-10.0,487.0,201.0,355.0,1
-20.0,-199.0,-6.0,510.0,215.0,342.0,1
-25.0,-209.0,1.0,539.0,220.0,324.0,1
-23.0,-230.0,4.0,575.0,217.0,312.0,1
-28.0,-252.0,0.0,621.0,212.0,303.0,1
-32.0,-269.0,0.0,672.0,213.0,293.0,1
-31.0,-282.0,-14.0,722.0,220.0,281.0,1
-37.0,-291.0,-24.0,775.0,233.0,278.0,1
-29.0,-292.0,-35.0,796.0,231.0,294.0,1
-16.0,-291.0,-61.0,777.0,211.0,314.0,1
0.0,-281.0,-87.0,705.0,145.0,337.0,1
13.0,-267.0,-111.0,586.0,75.0,362.0,1
27.0,-247.0,-130.0,455.0,-1.0,400.0,1
50.0,-238.0,-133.0,313.0,-87.0,458.0,1
71.0,-222.0,-150.0,176.0,-151.0,512.0,1
92.0,-209.0,-155.0,105.0,-177.0,578.0,1
121.0,-217.0,-153.0,65.0,-176.0,656.0,1
131.0,-216.0,-144.0,67.0,-158.0,733.0,1
158.0,-227.0,-126.0,108.0,-128.0,803.0,1
173.0,-242.0,-109.0,196.0,-95.0,861.0,1
177.0,-256.0,-90.0,304.0,-58.0,924.0,1
185.0,-280.0,-71.0,419.0,-25.0,984.0,1
187.0,-295.0,-66.0,526.0,-6.0,1016.0,1
180.0,-314.0,-57.0,608.0,-1.0,1030.0,1
166.0,-329.0,-58.0,650.0,-7.0,1028.0,1
151.0,-337.0,-53.0,645.0,-30.0,1006.0,1
125.0,-345.0,-58.0,600.0,-62.0,969.0,1
108.0,-346.0,-58.0,533.0,-98.0,928.0,1
84.0,-351.0,-79.0,468.0,-123.0,884.0,1
73.0,-338.0,-89.0,400.0,-123.0,832.0,1
66.0,-329.0,-99.0,340.0,-90.0,786.0,1
64.0,-318.0,-98.0,297.0,-35.0,758.0,1
64.0,-314.0,-101.0,267.0,26.0,741.0,1
67.0,-311.0,-100.0,232.0,81.0,734.0,1
68.0,-304.0,-96.0,197.0,127.0,735.0,1
74.0,-303.0,-85.0,175.0,165.0,736.0,1
81.0,-298.0,-76.0,168.0,196.0,744.0,1
82.0,-288.0,-75.0,168.0,218.0,762.0,1
83.0,-297.0,-72.0,178.0,234.0,786.0,1
75.0,-290.0,-66.0,186.0,243.0,812.0,1
71.0,-291.0,-62.0,197.0,246.0,844.0,1
65.0,-289.0,-61.0,217.0,247.0,872.0,1
59.0,-284.0,-66.0,223.0,250.0,881.0,1
52.0,-277.0,-65.0,213.0,242.0,891.0,1
45.0,-268.0,-62.0,192.0,225.0,896.0,1
50.0,-261.0,-57.0,178.0,198.0,901.0,1
52.0,-254.0,-57.0,164.0,160.0,887.0,1
53.0,-244.0,-59.0,158.0,113.0,855.0,1
52.0,-227.0,-50.0,151.0,62.0,819.0,1
55.0,-221.0,-27.0,134.0,-2.0,784.0,1
48.0,-214.0,-27.0,124.0,-69.0,755.0,1
46.0,-210.0,-25.0,133.0,-131.0,731.0,1
43.0,-212.0,-16.0,161.0,-183.0,712.0,1
32.0,-209.0,-20.0,218.0,-223.0,690.0,1
23.0,-199.0,-19.0,259.0,-262.0,681.0,1
14.0,-194.0,-23.0,271.0,-293.0,687.0,1
12.0,-198.0,-20.0,260.0,-325.0,700.0,1
8.0,-195.0,-27.0,241.0,-351.0,710.0,1
-1.0,-192.0,-30.0,202.0,-365.0,713.0,1
2.0,-191.0,-33.0,155.0,-370.0,719.0,1
1.0,-194.0,-32.0,113.0,-371.0,743.0,1
9.0,-194.0,-35.0,93.0,-374.0,777.0,1
13.0,-196.0,-32.0,81.0,-382.0,808.0,1
18.0,-194.0,-27.0,72.0,-395.0,837.0,1
26.0,-191.0,-29.0,64.0,-418.0,863.0,1
32.0,-189.0,-26.0,48.0,-454.0,881.0,1
34.0,-189.0,-21.0,23.0,-497.0,893.0,1
45.0,-196.0,-22.0,29.0,-540.0,913.0,1
44.0,-195.0,-10.0,61.0,-574.0,921.0,1
42.0,-197.0,-8.0,107.0,-600.0,918.0,1
41.0,-198.0,-6.0,164.0,-615.0,903.0,1
36.0,-196.0,0.0,218.0,-624.0,884.0,1
37.0,-196.0,-6.0,264.0,-635.0,861.0,1
37.0,-189.0,-8.0,299.0,-646.0,834.0,1
31.0,-177.0,-17.0,316.0,-656.0,805.0,1
29.0,-171.0,-27.0,317.0,-666.0,783.0,1
30.0,-165.0,-37.0,308.0,-684.0,772.0,1
30.0,-160.0,-42.0,284.0,-706.0,773.0,1
28.0,-161.0,-47.0,246.0,-712.0,782.0,1
30.0,-162.0,-46.0,203.0,-708.0,799.0,1
33.0,-166.0,-47.0,167.0,-697.0,821.0,1
43.0,-176.0,-42.0,139.0,-681.0,853.0,1
44.0,-181.0,-41.0,128.0,-651.0,889.0,1
47.0,-192.0,-32.0,144.0,-621.0,920.0,1
46.0,-200.0,-18.0,183.0,-604.0,936.0,1
50.0,-205.0,-8.0,239.0,-607.0,936.0,1
50.0,-200.0,-4.0,310.0,-626.0,925.0,1
55.0,-194.0,7.0,381.0,-661.0,904.0,1
51.0,-180.0,3.0,434.0,-727.0,867.0,1
58.0,-150.0,-19.0,447.0,-830.0,821.0,1
61.0,-131.0,-30.0,402.0,-926.0,767.0,1
62.0,-98.0,-38.0,308.0,-1005.0,716.0,1
59.0,-63.0,-32.0,197.0,-1077.0,686.0,1
47.0,-36.0,-19.0,102.0,-1143.0,702.0,1
35.0,-2.0,0.0,50.0,-1203.0,739.0,1
9.0,13.0,33.0,34.0,-1254.0,825.0,1
43.0,36.0,33.0,85.0,-1299.0,937.0,1
75.0,55.0,27.0,134.0,-1213.0,979.0,1
71.0,72.0,24.0,173.0,-1027.0,1019.0,1
52.0,83.0,25.0,131.0,-816.0,1080.0,1
29.0,91.0,32.0,70.0,-682.0,1117.0,1
10.0,105.0,21.0,32.0,-628.0,1116.0,1
-5.0,107.0,12.0,17.0,-640.0,1086.0,1
-19.0,95.0,18.0,5.0,-693.0,1039.0,1
-41.0,89.0,18.0,11.0,-751.0,985.0,1
-63.0,73.0,25.0,30.0,-794.0,933.0,1
-79.0,52.0,38.0,56.0,-826.0,885.0,1
-90.0,23.0,49.0,84.0,-855.0,863.0,1
-91.0,-4.0,60.0,111.0,-886.0,869.0,1
-93.0,-30.0,75.0,131.0,-922.0,877.0,1
-107.0,-52.0,78.0,135.0,-968.0,881.0,1
-86.0,-81.0,85.0,131.0,-1016.0,897.0,1
-86.0,-104.0,81.0,172.0,-1047.0,896.0,1
-84.0,-112.0,63.0,255.0,-1085.0,877.0,1
-76.0,-104.0,48.0,362.0,-1141.0,853.0,1
-68.0,-103.0,17.0,440.0,-1216.0,847.0,1
-67.0,-88.0,-7.0,487.0,-1299.0,848.0,1
-69.0,-68.0,-34.0,495.0,-1397.0,862.0,1
-66.0,-41.0,-56.0,460.0,-1518.0,882.0,1
-65.0,-26.0,-61.0,405.0,-1645.0,894.0,1
-58.0,-1.0,-57.0,346.0,-1762.0,887.0,1
-60.0,20.0,-46.0,302.0,-1864.0,866.0,1
-68.0,32.0,-33.0,288.0,-1946.0,836.0,1
-64.0,44.0,-18.0,320.0,-2011.0,802.0,1
-67.0,60.0,-13.0,410.0,-2052.0,769.0,1
-73.0,67.0,-16.0,542.0,-2033.0,742.0,1
-68.0,64.0,-24.0,704.0,-1944.0,715.0,1
-77.0,57.0,-29.0,883.0,-1799.0,693.0,1
-83.0,49.0,-36.0,1034.0,-1636.0,677.0,1
-85.0,36.0,-43.0,1120.0,-1489.0,676.0,1
-82.0,8.0,-36.0,1142.0,-1344.0,690.0,1
-80.0,13.0,-45.0,1160.0,-1198.0,716.0,1
-55.0,16.0,-47.0,1108.0,-1084.0,769.0,1
-33.0,14.0,-46.0,935.0,-1042.0,810.0,1
-20.0,0.0,-45.0,719.0,-1074.0,820.0,1
-15.0,-28.0,-51.0,529.0,-1158.0,819.0,1
16.0,-69.0,-60.0,423.0,-1263.0,814.0,1
50.0,-116.0,-70.0,423.0,-1361.0,803.0,1
68.0,-145.0,-80.0,481.0,-1446.0,774.0,1
74.0,-185.0,-85.0,566.0,-1503.0,735.0,1
60.0,-229.0,-74.0,678.0,-1510.0,722.0,1
5.0,-282.0,-40.0,855.0,-1458.0,761.0,1
-31.0,-346.0,5.0,1103.0,-1384.0,861.0,1
-54.0,-390.0,52.0,1414.0,-1269.0,1008.0,1
-87.0,-426.0,98.0,1793.0,-1115.0,1200.0,1
-121.0,-428.0,131.0,2198.0,-955.0,1407.0,1
-155.0,-365.0,149.0,2552.0,-852.0,1579.0,1
-179.0,-265.0,157.0,2777.0,-877.0,1653.0,1
-198.0,-177.0,157.0,2916.0,-1014.0,1600.0,1
-187.0,-83.0,172.0,3032.0,-1254.0,1488.0,1
-108.0,-37.0,219.0,3150.0,-1526.0,1317.0,1
-142.0,-45.0,358.0,3225.0,-1742.0,1034.0,1
-355.0,-263.0,716.0,3404.0,-1916.0,793.0,1
-676.0,-744.0,1338.0,4219.0,-1966.0,831.0,1
-1156.0,-1487.0,2050.0,5654.0,-1376.0,1314.0,1
-2168.0,-2495.0,1442.0,6501.0,173.0,2606.0,1
-3321.0,-3344.0,349.0,4070.0,1445.0,4210.0,1
-3803.0,-3374.0,-300.0,-341.0,435.0,3744.0,1
-2358.0,-2746.0,-422.0,-1355.0,-2006.0,1582.0,1
-601.0,-2028.0,-616.0,2121.0,-3412.0,-780.0,1
-28.0,-1118.0,-356.0,6369.0,-3047.0,-1987.0,1
222.0,-333.0,92.0,9165.0,-2206.0,-1601.0,1
422.0,211.0,327.0,10596.0,-1747.0,-398.0,1
605.0,950.0,643.0,10640.0,-1049.0,763.0,1
891.0,1478.0,790.0,8894.0,383.0,2061.0,1
888.0,1366.0,502.0,5538.0,1804.0,3136.0,1
398.0,766.0,63.0,1905.0,2333.0,3004.0,1
72.0,432.0,-122.0,-457.0,2047.0,2234.0,1
-254.0,206.0,-230.0,-1004.0,1656.0,1327.0,1
-460.0,34.0,-238.0,-512.0,1564.0,588.0,1
-515.0,-97.0,-173.0,203.0,1641.0,75.0,1
-498.0,-199.0,-52.0,871.0,1799.0,-255.0,1
-451.0,-259.0,35.0,1521.0,1961.0,-428.0,1
-336.0,-332.0,152.0,1914.0,2066.0,-477.0,1
-179.0,-385.0,245.0,1975.0,2160.0,-396.0,1
-25.0,-409.0,334.0,1866.0,2236.0,-147.0,1
149.0,-422.0,363.0,1905.0,2155.0,237.0,1
250.0,-390.0,308.0,2172.0,1795.0,605.0,1
328.0,-280.0,212.0,2530.0,1251.0,875.0,1
341.0,-99.0,130.0,2806.0,775.0,966.0,1
304.0,91.0,75.0,2857.0,534.0,922.0,1
225.0,212.0,46.0,2680.0,593.0,751.0,1
115.0,318.0,37.0,2344.0,987.0,547.0,1
26.0,337.0,42.0,1932.0,1433.0,355.0,1
-62.0,298.0,71.0,1505.0,1836.0,221.0,1
-146.0,232.0,134.0,1105.0,2038.0,232.0,1
-187.0,186.0,195.0,731.0,1945.0,390.0,1
-244.0,139.0,264.0,531.0,1600.0,662.0,1
-289.0,104.0,303.0,403.0,1098.0,1014.0,1
-334.0,86.0,337.0,289.0,537.0,1374.0,1
-334.0,61.0,329.0,177.0,31.0,1735.0,1
-328.0,34.0,324.0,97.0,-314.0,2013.0,1
-309.0,5.0,296.0,42.0,-507.0,2152.0,1
-297.0,-21.0,276.0,-24.0,-627.0,2127.0,1
-268.0,-44.0,252.0,-99.0,-728.0,1992.0,1
-241.0,-68.0,237.0,-160.0,-772.0,1790.0,1
-221.0,-74.0,230.0,-199.0,-787.0,1523.0,1
-214.0,-72.0,241.0,-193.0,-824.0,1253.0,1
-173.0,-56.0,256.0,-119.0,-875.0,998.0,1
-167.0,-28.0,278.0,5.0,-878.0,723.0,1
-138.0,9.0,310.0,171.0,-843.0,487.0,1
-120.0,39.0,316.0,367.0,-756.0,277.0,1
-127.0,71.0,319.0,570.0,-622.0,110.0,1
-96.0,101.0,312.0,717.0,-475.0,-8.0,1
-73.0,118.0,293.0,759.0,-259.0,-160.0,1
-86.0,117.0,278.0,679.0,-25.0,-321.0,1
-116.0,105.0,278.0,533.0,129.0,-392.0,1
-76.0,89.0,234.0,349.0,214.0,-379.0,1
-63.0,51.0,223.0,108.0,334.0,-435.0,1
-56.0,26.0,208.0,-124.0,448.0,-484.0,1
-27.0,11.0,194.0,-313.0,538.0,-510.0,1
-23.0,-13.0,189.0,-461.0,610.0,-597.0,1
-49.0,-39.0,195.0,-514.0,620.0,-686.0,1
-66.0,-47.0,194.0,-446.0,570.0,-729.0,1
-85.0,-58.0,187.0,-259.0,493.0,-731.0,1
-102.0,-47.0,182.0,-1.0,405.0,-706.0,1
-128.0,-33.0,177.0,221.0,349.0,-684.0,1
-142.0,-22.0,163.0,385.0,324.0,-658.0,1
-155.0,-2.0,161.0,504.0,317.0,-623.0,1
-152.0,22.0,137.0,585.0,316.0,-592.0,1
-152.0,41.0,126.0,550.0,324.0,-615.0,1
-140.0,60.0,115.0,442.0,342.0,-646.0,1
-132.0,68.0,111.0,305.0,378.0,-671.0,1
-125.0,79.0,113.0,187.0,424.0,-698.0,1
-109.0,86.0,109.0,116.0,476.0,-705.0,1
-91.0,77.0,120.0,80.0,535.0,-677.0,1
-65.0,81.0,111.0,108.0,598.0,-638.0,1
-52.0,74.0,116.0,127.0,670.0,-642.0,1
-52.0,63.0,129.0,131.0,738.0,-668.0,1
-61.0,65.0,129.0,158.0,787.0,-675.0,1
-70.0,59.0,139.0,188.0,814.0,-662.0,1
-119.0,57.0,148.0,178.0,832.0,-725.0,1
-162.0,62.0,150.0,151.0,846.0,-789.0,1
-203.0,61.0,149.0,95.0,874.0,-808.0,1
-223.0,62.0,141.0,-14.0,912.0,-809.0,1
-249.0,55.0,135.0,-165.0,959.0,-808.0,1
-267.0,38.0,144.0,-337.0,1003.0,-788.0,1
-263.0,15.0,131.0,-453.0,1016.0,-767.0,1
-255.0,1.0,127.0,-516.0,1016.0,-754.0,1
-245.0,-9.0,127.0,-533.0,1013.0,-724.0,1
-223.0,-14.0,131.0,-498.0,988.0,-674.0,1
-202.0,-20.0,140.0,-412.0,924.0,-620.0,1
-199.0,-30.0,137.0,-291.0,831.0,-591.0,1
-230.0,-34.0,143.0,-140.0,733.0,-594.0,1
-256.0,-36.0,154.0,20.0,661.0,-585.0,1
-276.0,-43.0,175.0,170.0,625.0,-555.0,1
-302.0,-44.0,201.0,305.0,613.0,-532.0,1
-311.0,-46.0,222.0,422.0,624.0,-524.0,1
-319.0,-51.0,233.0,525.0,654.0,-533.0,1
-317.0,-58.0,239.0,604.0,677.0,-551.0,1
-305.0,-64.0,238.0,648.0,687.0,-565.0,1
-284.0,-73.0,245.0,660.0,694.0,-584.0,1
-253.0,-85.0,243.0,652.0,730.0,-610.0,1
-228.0,-81.0,238.0,643.0,784.0,-663.0,1
-207.0,-81.0,241.0,656.0,833.0,-733.0,1
-186.0,-82.0,232.0,700.0,861.0,-800.0,1
-171.0,-64.0,194.0,766.0,881.0,-859.0,1
-150.0,-45.0,161.0,781.0,921.0,-872.0,1
-142.0,-34.0,144.0,731.0,977.0,-873.0,1
-130.0,-28.0,127.0,646.0,1016.0,-873.0,1
-118.0,-33.0,120.0,565.0,1033.0,-858.0,1
-104.0,-45.0,121.0,535.0,1025.0,-815.0,1
-102.0,-65.0,126.0,541.0,1019.0,-759.0,1
-115.0,-81.0,124.0,594.0,1011.0,-693.0,1
-111.0,-92.0,114.0,663.0,990.0,-642.0,1
-140.0,-98.0,109.0,731.0,976.0,-601.0,1
-160.0,-95.0,102.0,776.0,981.0,-586.0,1
-178.0,-85.0,97.0,785.0,991.0,-577.0,1
-190.0,-76.0,89.0,746.0,1000.0,-565.0,1
-190.0,-66.0,98.0,689.0,995.0,-561.0,1
-186.0,-63.0,107.0,643.0,996.0,-558.0,1
-180.0,-59.0,120.0,602.0,993.0,-544.0,1
-185.0,-57.0,130.0,565.0,965.0,-523.0,1
-188.0,-57.0,127.0,536.0,903.0,-494.0,1
-203.0,-57.0,125.0,517.0,808.0,-469.0,1
-222.0,-50.0,115.0,493.0,691.0,-450.0,1
-241.0,-46.0,96.0,460.0,573.0,-434.0,1
-255.0,-39.0,77.0,416.0,478.0,-407.0,1
-263.0,-35.0,66.0,355.0,418.0,-366.0,1
-277.0,-34.0,58.0,291.0,382.0,-318.0,1
-283.0,-37.0,57.0,235.0,354.0,-270.0,1
-293.0,-44.0,53.0,198.0,326.0,-222.0,1
-296.0,-49.0,52.0,179.0,302.0,-170.0,1
-303.0,-65.0,58.0,179.0,285.0,-119.0,1
-316.0,-81.0,65.0,200.0,269.0,-61.0,1
-317.0,-101.0,65.0,227.0,248.0,-5.0,1
-325.0,-113.0,63.0,265.0,241.0,49.0,1
-324.0,-128.0,63.0,287.0,244.0,109.0,1
-308.0,-147.0,66.0,295.0,263.0,154.0,1
-307.0,-150.0,59.0,281.0,298.0,168.0,1
-275.0,-164.0,68.0,210.0,303.0,160.0,1
-257.0,-167.0,73.0,137.0,299.0,111.0,1
-249.0,-167.0,83.0,89.0,283.0,27.0,1
-238.0,-158.0,85.0,77.0,256.0,-43.0,1
-220.0,-145.0,92.0,100.0,229.0,-81.0,1
-208.0,-129.0,91.0,150.0,215.0,-96.0,1
-196.0,-116.0,97.0,207.0,200.0,-95.0,1
-195.0,-97.0,81.0,246.0,167.0,-87.0,1
-187.0,-78.0,77.0,241.0,104.0,-75.0,1
-176.0,-67.0,79.0,213.0,35.0,-55.0,1
-167.0,-60.0,80.0,177.0,-19.0,-22.0,1
-166.0,-62.0,84.0,142.0,-53.0,13.0,1
-163.0,-60.0,91.0,114.0,-68.0,48.0,1
-168.0,-67.0,100.0,97.0,-53.0,80.0,1
-174.0,-72.0,105.0,88.0,-19.0,108.0,1
-175.0,-76.0,111.0,86.0,14.0,136.0,1
-184.0,-81.0,122.0,84.0,23.0,155.0,1
-189.0,-78.0,127.0,73.0,-6.0,159.0,1
-191.0,-76.0,122.0,56.0,-64.0,160.0,1
-193.0,-72.0,125.0,29.0,-137.0,155.0,1
-198.0,-66.0,130.0,-5.0,-213.0,155.0,1
-199.0,-65.0,134.0,-48.0,-291.0,163.0,1
-195.0,-64.0,134.0,-100.0,-364.0,178.0,1
-196.0,-64.0,136.0,-156.0,-416.0,196.0,1
-206.0,-61.0,138.0,-207.0,-443.0,212.0,1
-203.0,-68.0,135.0,-256.0,-464.0,233.0,1
-205.0,-73.0,139.0,-294.0,-477.0,245.0,1
-212.0,-78.0,136.0,-307.0,-473.0,240.0,1
-199.0,-83.0,134.0,-301.0,-456.0,229.0,1
-208.0,-88.0,140.0,-273.0,-428.0,212.0,1
-217.0,-90.0,139.0,-232.0,-384.0,187.0,1
-213.0,-86.0,140.0,-191.0,-342.0,170.0,1
-221.0,-77.0,136.0,-155.0,-307.0,153.0,1
-219.0,-78.0,136.0,-137.0,-284.0,140.0,1
-221.0,-70.0,130.0,-135.0,-273.0,129.0,1
-222.0,-66.0,134.0,-143.0,-265.0,126.0,1
-219.0,-63.0,135.0,-153.0,-254.0,124.0,1
-221.0,-58.0,136.0,-160.0,-237.0,125.0,1
-213.0,-57.0,134.0,-163.0,-219.0,125.0,1
-212.0,-54.0,127.0,-167.0,-202.0,125.0,1
-208.0,-51.0,129.0,-169.0,-187.0,122.0,1
-205.0,-50.0,128.0,-168.0,-176.0,121.0,1
-205.0,-47.0,128.0,-164.0,-169.0,119.0,1
-203.0,-48.0,126.0,-158.0,-166.0,120.0,1
-203.0,-44.0,129.0,-146.0,-167.0,121.0,1
-205.0,-44.0,125.0,-132.0,-167.0,127.0,1
-205.0,-47.0,129.0,-112.0,-167.0,137.0,1
-203.0,-44.0,128.0,-92.0,-161.0,148.0,1
-203.0,-47.0,129.0,-77.0,-155.0,154.0,1
-200.0,-47.0,136.0,-68.0,-146.0,157.0,1
-206.0,-50.0,128.0,-65.0,-138.0,160.0,1
-206.0,-49.0,133.0,-62.0,-131.0,161.0,1
-207.0,-49.0,134.0,-58.0,-127.0,160.0,1
-208.0,-51.0,136.0,-51.0,-122.0,162.0,1
-206.0,-52.0,132.0,-39.0,-116.0,163.0,1
-205.0,-52.0,135.0,-26.0,-106.0,166.0,1
-204.0,-57.0,135.0,-10.0,-96.0,169.0,1
-208.0,-54.0,139.0,9.0,-88.0,165.0,1
-202.0,-47.0,140.0,29.0,-82.0,161.0,1
-198.0,-50.0,137.0,41.0,-78.0,152.0,1
-199.0,-47.0,137.0,46.0,-77.0,142.0,1
-196.0,-33.0,140.0,42.0,-76.0,132.0,1
-193.0,-44.0,131.0,33.0,-80.0,125.0,1
-192.0,-45.0,137.0,22.0,-81.0,115.0,1
-187.0,-45.0,133.0,19.0,-79.0,104.0,1
-189.0,-48.0,137.0,21.0,-67.0,90.0,1
-190.0,-49.0,138.0,31.0,-49.0,76.0,1
-192.0,-53.0,138.0,43.0,-31.0,65.0,1
-192.0,-54.0,134.0,59.0,-14.0,51.0,1
-194.0,-54.0,134.0,76.0,-2.0,37.0,1
-197.0,-61.0,137.0,91.0,6.0,24.0,1
-198.0,-61.0,134.0,104.0,13.0,11.0,1
-203.0,-57.0,132.0,115.0,16.0,1.0,1
-200.0,-59.0,129.0,123.0,19.0,-10.0,1
-202.0,-55.0,134.0,127.0,19.0,-18.0,1
-203.0,-56.0,137.0,125.0,21.0,-25.0,1
-202.0,-53.0,131.0,123.0,23.0,-30.0,1
-200.0,-55.0,137.0,119.0,26.0,-36.0,1
-204.0,-50.0,135.0,113.0,29.0,-40.0,1
-204.0,-47.0,139.0,108.0,34.0,-45.0,1
-207.0,-42.0,134.0,102.0,45.0,-51.0,1
-206.0,-44.0,128.0,97.0,58.0,-51.0,1
-204.0,-47.0,137.0,86.0,71.0,-50.0,1
-209.0,-41.0,133.0,78.0,85.0,-46.0,1
-208.0,-45.0,129.0,69.0,96.0,-38.0,1
-211.0,-46.0,133.0,68.0,107.0,-30.0,1
-212.0,-47.0,129.0,74.0,117.0,-18.0,1
-210.0,-52.0,131.0,85.0,127.0,-12.0,1
-210.0,-49.0,129.0,97.0,134.0,-11.0,1
-210.0,-49.0,127.0,108.0,140.0,-12.0,1
-204.0,-51.0,128.0,117.0,142.0,-14.0,1
-206.0,-47.0,128.0,121.0,140.0,-13.0,1
-205.0,-52.0,130.0,117.0,132.0,-13.0,1
-203.0,-53.0,126.0,108.0,127.0,-8.0,1
-204.0,-58.0,128.0,96.0,123.0,-6.0,1
-202.0,-60.0,129.0,84.0,119.0,-6.0,1
-201.0,-61.0,127.0,75.0,119.0,-8.0,1
-204.0,-61.0,126.0,66.0,121.0,-6.0,1
-201.0,-62.0,126.0,54.0,120.0,1.0,1
-205.0,-64.0,128.0,39.0,121.0,5.0,1
-204.0,-65.0,124.0,28.0,122.0,12.0,1
-207.0,-66.0,127.0,31.0,129.0,16.0,1
-212.0,-66.0,125.0,45.0,136.0,19.0,1
-208.0,-65.0,125.0,66.0,141.0,17.0,1
-207.0,-65.0,120.0,86.0,143.0,15.0,1
-212.0,-60.0,124.0,102.0,141.0,13.0,1
-214.0,-59.0,121.0,110.0,137.0,10.0,1
-210.0,-60.0,125.0,113.0,131.0,6.0,1
-212.0,-58.0,127.0,110.0,125.0,2.0,1
-207.0,-54.0,125.0,100.0,119.0,-3.0,1
-209.0,-57.0,124.0,88.0,112.0,-6.0,1
-206.0,-56.0,121.0,75.0,105.0,-9.0,1
-203.0,-54.0,127.0,60.0,97.0,-12.0,1
-203.0,-54.0,126.0,48.0,88.0,-11.0,1
-205.0,-56.0,125.0,35.0,77.0,-7.0,1
-207.0,-58.0,123.0,29.0,66.0,-2.0,1
-211.0,-53.0,119.0,29.0,58.0,0.0,1
-214.0,-53.0,120.0,31.0,48.0,3.0,1
-212.0,-58.0,120.0,34.0,39.0,6.0,1
-211.0,-59.0,119.0,34.0,34.0,6.0,1
-214.0,-59.0,117.0,33.0,30.0,8.0,1
-214.0,-58.0,120.0,32.0,27.0,8.0,1
-215.0,-58.0,118.0,35.0,24.0,11.0,1
-213.0,-63.0,124.0,41.0,22.0,11.0,1
-215.0,-60.0,120.0,52.0,19.0,13.0,1
-211.0,-59.0,124.0,64.0,17.0,12.0,1
-212.0,-57.0,123.0,72.0,11.0,11.0,1
-212.0,-58.0,122.0,78.0,7.0,14.0,1
-208.0,-57.0,125.0,81.0,2.0,16.0,1
-211.0,-53.0,124.0,81.0,-3.0,17.0,1
-211.0,-53.0,123.0,83.0,-7.0,14.0,1
-212.0,-49.0,124.0,81.0,-10.0,15.0,1
-211.0,-50.0,121.0,84.0,-11.0,12.0,1
-210.0,-48.0,123.0,89.0,-6.0,14.0,1
-215.0,-54.0,123.0,93.0,-1.0,13.0,1
-211.0,-51.0,125.0,97.0,2.0,11.0,1
-211.0,-51.0,123.0,100.0,4.0,9.0,1
-211.0,-54.0,129.0,101.0,8.0,7.0,1
-210.0,-53.0,129.0,103.0,14.0,5.0,1
-205.0,-55.0,125.0,104.0,17.0,2.0,1
-207.0,-53.0,129.0,100.0,17.0,1.0,1
-207.0,-54.0,125.0,94.0,11.0,0.0,1
-209.0,-50.0,126.0,84.0,6.0,-1.0,1
-207.0,-50.0,125.0,73.0,-2.0,1.0,1
-210.0,-48.0,128.0,66.0,-5.0,4.0,1
-204.0,-50.0,129.0,63.0,-1.0,4.0,1
-209.0,-50.0,126.0,62.0,-1.0,4.0,1
-211.0,-48.0,128.0,63.0,4.0,4.0,1
-203.0,-54.0,120.0,70.0,12.0,0.0,1
-207.0,-50.0,127.0,75.0,18.0,-3.0,1
-207.0,-52.0,127.0,80.0,19.0,-2.0,1
-207.0,-53.0,128.0,80.0,20.0,-2.0,1
-202.0,-53.0,127.0,79.0,17.0,-1.0,1
-203.0,-55.0,125.0,83.0,18.0,0.0,1
-210.0,-55.0,124.0,85.0,19.0,0.0,1
-204.0,-57.0,126.0,89.0,18.0,3.0,1
-209.0,-54.0,125.0,91.0,15.0,6.0,1
-212.0,-53.0,123.0,95.0,12.0,9.0,1
-209.0,-49.0,123.0,97.0,11.0,10.0,1
-205.0,-50.0,129.0,98.0,10.0,11.0,1
-208.0,-53.0,125.0,97.0,14.0,9.0,1
-209.0,-52.0,125.0,98.0,20.0,8.0,1
-209.0,-51.0,127.0,97.0,23.0,5.0,1
-207.0,-50.0,127.0,94.0,25.0,3.0,1
-210.0,-52.0,126.0,91.0,25.0,2.0,1
-209.0,-48.0,128.0,91.0,26.0,-1.0,1
-206.0,-50.0,122.0,87.0,25.0,-2.0,1
-208.0,-50.0,124.0,84.0,25.0,-3.0,1
-208.0,-51.0,123.0,80.0,26.0,0.0,1
-206.0,-52.0,124.0,78.0,25.0,-1.0,1
-209.0,-52.0,123.0,77.0,26.0,0.0,1
-210.0,-54.0,123.0,77.0,26.0,-2.0,1
-215.0,-52.0,126.0,79.0,23.0,-4.0,1
-211.0,-53.0,123.0,81.0,21.0,-7.0,1
-214.0,-50.0,126.0,84.0,19.0,-8.0,1
-216.0,-52.0,122.0,85.0,18.0,-9.0,1
-211.0,-53.0,122.0,87.0,16.0,-10.0,1
-212.0,-52.0,124.0,89.0,16.0,-13.0,1
-211.0,-53.0,124.0,91.0,13.0,-14.0,1
-212.0,-51.0,123.0,90.0,11.0,-15.0,1
-211.0,-52.0,126.0,89.0,9.0,-16.0,1
-211.0,-50.0,118.0,86.0,6.0,-15.0,1
-209.0,-50.0,127.0,83.0,3.0,-13.0,1
-209.0,-51.0,122.0,78.0,-1.0,-12.0,1
-208.0,-49.0,126.0,74.0,-6.0,-9.0,1
-208.0,-50.0,123.0,68.0,-7.0,-7.0,1
-209.0,-53.0,123.0,63.0,-8.0,-6.0,1
-213.0,-52.0,122.0,60.0,-10.0,-3.0,1
-211.0,-50.0,124.0,53.0,-12.0,0.0,1
-211.0,-54.0,124.0,46.0,-15.0,1.0,1
-209.0,-50.0,130.0,39.0,-14.0,1.0,1
-205.0,-54.0,128.0,34.0,-16.0,3.0,1
-207.0,-54.0,128.0,31.0,-15.0,4.0,1
-210.0,-54.0,127.0,25.0,-15.0,1.0,1
-212.0,-52.0,130.0,22.0,-14.0,-1.0,1
-211.0,-53.0,127.0,20.0,-15.0,-2.0,1
-213.0,-52.0,126.0,17.0,-16.0,-3.0,1
-212.0,-53.0,125.0,13.0,-17.0,-4.0,1
-213.0,-53.0,123.0,9.0,-19.0,-5.0,1
-211.0,-54.0,128.0,4.0,-21.0,-4.0,1
-210.0,-52.0,124.0,2.0,-23.0,-2.0,1
-208.0,-52.0,122.0,0.0,-24.0,-4.0,1
-208.0,-56.0,128.0,-2.0,-29.0,-3.0,1
-205.0,-52.0,128.0,-3.0,-32.0,-6.0,1
-207.0,-55.0,126.0,-4.0,-35.0,-4.0,1
-209.0,-54.0,130.0,-5.0,-37.0,-5.0,1
-207.0,-51.0,128.0,-7.0,-38.0,-3.0,1
-210.0,-51.0,126.0,-8.0,-38.0,-3.0,1
-208.0,-51.0,126.0,-8.0,-41.0,-2.0,1
-209.0,-50.0,125.0,-8.0,-44.0,-2.0,1
-209.0,-49.0,125.0,-8.0,-45.0,-2.0,1
-207.0,-52.0,127.0,-9.0,-48.0,2.0,1
-203.0,-52.0,129.0,-10.0,-49.0,1.0,1
-209.0,-53.0,121.0,-13.0,-45.0,2.0,1
-205.0,-51.0,126.0,-14.0,-43.0,4.0,1
-205.0,-49.0,126.0,-18.0,-43.0,6.0,1
-206.0,-55.0,127.0,-20.0,-44.0,6.0,1
-204.0,-54.0,127.0,-21.0,-44.0,5.0,1
-204.0,-54.0,130.0,-22.0,-43.0,6.0,1
-206.0,-51.0,129.0,-18.0,-43.0,4.0,1
-204.0,-54.0,128.0,-15.0,-41.0,2.0,1
-206.0,-53.0,127.0,-10.0,-38.0,0.0,1
-206.0,-51.0,129.0,-7.0,-34.0,-1.0,1
-209.0,-51.0,129.0,-5.0,-31.0,-3.0,1
-207.0,-45.0,129.0,-7.0,-30.0,-4.0,1
-209.0,-49.0,125.0,-11.0,-32.0,-5.0,1
-207.0,-51.0,127.0,-14.0,-31.0,-7.0,1
-207.0,-51.0,126.0,-17.0,-30.0,-5.0,1
-205.0,-52.0,131.0,-16.0,-30.0,-6.0,1
-207.0,-54.0,127.0,-11.0,-31.0,-7.0,1
-208.0,-53.0,123.0,-7.0,-27.0,-10.0,1
-204.0,-55.0,125.0,0.0,-20.0,-11.0,1
-204.0,-54.0,128.0,6.0,-17.0,-12.0,1
-206.0,-53.0,129.0,12.0,-14.0,-13.0,1
-208.0,-52.0,127.0,18.0,-12.0,-13.0,1
-212.0,-51.0,127.0,23.0,-10.0,-12.0,1
-211.0,-51.0,130.0,26.0,-9.0,-11.0,1
-208.0,-50.0,128.0,26.0,-8.0,-11.0,1
-210.0,-49.0,127.0,28.0,-7.0,-10.0,1
-209.0,-52.0,127.0,27.0,-7.0,-9.0,1
-208.0,-54.0,126.0,26.0,-5.0,-10.0,1
-206.0,-53.0,127.0,25.0,-2.0,-10.0,1
-208.0,-48.0,128.0,23.0,0.0,-10.0,1
-208.0,-50.0,128.0,21.0,1.0,-8.0,1
-205.0,-49.0,129.0,19.0,6.0,-8.0,1
-207.0,-53.0,125.0,20.0,10.0,-6.0,1
-204.0,-50.0,127.0,19.0,13.0,-4.0,1
-205.0,-53.0,126.0,19.0,12.0,-2.0,1
-206.0,-55.0,127.0,18.0,11.0,-2.0,1
-208.0,-53.0,128.0,16.0,13.0,0.0,1
-206.0,-54.0,129.0,16.0,13.0,-1.0,1
-205.0,-54.0,128.0,15.0,13.0,-1.0,1
-205.0,-57.0,126.0,15.0,11.0,-4.0,1
-206.0,-57.0,128.0,15.0,11.0,-4.0,1
-206.0,-52.0,128.0,16.0,10.0,-6.0,1
-207.0,-55.0,129.0,17.0,9.0,-8.0,1
-210.0,-55.0,131.0,17.0,8.0,-9.0,1
-210.0,-55.0,129.0,19.0,10.0,-12.0,1
-207.0,-53.0,129.0,18.0,10.0,-13.0,1
-205.0,-52.0,128.0,16.0,11.0,-15.0,1
-205.0,-55.0,129.0,17.0,11.0,-14.0,1
-206.0,-55.0,122.0,16.0,14.0,-14.0,1
-206.0,-51.0,130.0,16.0,18.0,-13.0,1
-206.0,-53.0,126.0,16.0,20.0,-13.0,1
-208.0,-54.0,125.0,15.0,21.0,-11.0,1
-204.0,-56.0,125.0,15.0,20.0,-11.0,1
-204.0,-55.0,130.0,14.0,20.0,-10.0,1
-205.0,-57.0,124.0,14.0,18.0,-8.0,1
-209.0,-56.0,135.0,16.0,18.0,-7.0,1
-207.0,-52.0,128.0,15.0,17.0,-6.0,1
-207.0,-51.0,124.0,15.0,17.0,-7.0,1
-210.0,-51.0,122.0,14.0,15.0,-8.0,1
-207.0,-55.0,126.0,15.0,14.0,-7.0,1
-209.0,-55.0,123.0,16.0,14.0,-6.0,1
-208.0,-54.0,127.0,19.0,14.0,-7.0,1
-202.0,-57.0,124.0,20.0,15.0,-7.0,1
-207.0,-56.0,131.0,23.0,17.0,-7.0,1
-207.0,-51.0,125.0,23.0,17.0,-7.0,1
-208.0,-54.0,127.0,24.0,16.0,-6.0,1
-205.0,-55.0,128.0,25.0,15.0,-7.0,1
-207.0,-54.0,127.0,26.0,16.0,-8.0,1
-208.0,-59.0,126.0,27.0,16.0,-9.0,1
-205.0,-57.0,126.0,32.0,17.0,-9.0,1
-208.0,-55.0,126.0,35.0,16.0,-12.0,1
-207.0,-52.0,126.0,41.0,17.0,-12.0,1
-208.0,-57.0,128.0,45.0,15.0,-14.0,1
-205.0,-56.0,126.0,49.0,15.0,-15.0,1
-206.0,-51.0,126.0,49.0,12.0,-18.0,1
-207.0,-52.0,125.0,48.0,9.0,-19.0,1
-210.0,-56.0,128.0,45.0,10.0,-18.0,1
-208.0,-52.0,123.0,38.0,8.0,-18.0,1
-205.0,-51.0,126.0,32.0,6.0,-16.0,1
-206.0,-54.0,132.0,27.0,4.0,-14.0,1
-208.0,-53.0,128.0,22.0,7.0,-14.0,1
-209.0,-56.0,130.0,18.0,8.0,-10.0,1
-208.0,-52.0,127.0,14.0,11.0,-9.0,1
-207.0,-52.0,127.0,12.0,11.0,-9.0,1
-204.0,-61.0,123.0,10.0,13.0,-13.0,1
-207.0,-55.0,130.0,14.0,14.0,-15.0,1
-213.0,-55.0,126.0,21.0,13.0,-20.0,1
-208.0,-56.0,126.0,27.0,12.0,-20.0,1
-211.0,-53.0,123.0,34.0,11.0,-23.0,1
-213.0,-54.0,124.0,41.0,7.0,-23.0,1
-213.0,-52.0,126.0,45.0,2.0,-23.0,1
-211.0,-53.0,123.0,50.0,-2.0,-22.0,1
-210.0,-51.0,125.0,52.0,-3.0,-22.0,1
-209.0,-51.0,125.0,51.0,-5.0,-21.0,1
-208.0,-55.0,125.0,49.0,-6.0,-18.0,1
-211.0,-56.0,127.0,44.0,-4.0,-17.0,1
-206.0,-53.0,127.0,38.0,-3.0,-15.0,1
-206.0,-55.0,131.0,29.0,2.0,-13.0,1
-206.0,-56.0,125.0,20.0,7.0,-12.0,1
-205.0,-56.0,126.0,12.0,9.0,-11.0,1
-202.0,-59.0,131.0,6.0,11.0,-8.0,1
-206.0,-54.0,128.0,1.0,11.0,-5.0,1
-205.0,-57.0,127.0,-2.0,9.0,-3.0,1
-205.0,-54.0,124.0,-2.0,4.0,-1.0,1
-206.0,-56.0,123.0,1.0,-1.0,4.0,1
-205.0,-55.0,124.0,4.0,-6.0,6.0,1
-206.0,-58.0,124.0,8.0,-7.0,6.0,1
-206.0,-56.0,123.0,13.0,-8.0,5.0,1
-206.0,-56.0,124.0,18.0,-7.0,5.0,1
-210.0,-53.0,121.0,22.0,-8.0,3.0,1
-204.0,-57.0,125.0,25.0,-8.0,2.0,1
-206.0,-56.0,125.0,27.0,-10.0,3.0,1
-206.0,-53.0,128.0,29.0,-12.0,0.0,1
-206.0,-53.0,125.0,30.0,-16.0,0.0,1
-210.0,-55.0,122.0,31.0,-21.0,-1.0,1
-208.0,-53.0,125.0,33.0,-25.0,-3.0,1
-207.0,-51.0,125.0,34.0,-30.0,-6.0,1
-208.0,-51.0,126.0,36.0,-32.0,-7.0,1
-207.0,-53.0,125.0,38.0,-32.0,-8.0,1
-210.0,-51.0,129.0,39.0,-30.0,-8.0,1
-209.0,-55.0,124.0,39.0,-28.0,-9.0,1
-210.0,-52.0,127.0,42.0,-25.0,-10.0,1
-209.0,-57.0,128.0,42.0,-23.0,-14.0,1
-208.0,-55.0,127.0,43.0,-20.0,-15.0,1
-209.0,-50.0,127.0,43.0,-17.0,-15.0,1
-206.0,-54.0,128.0,44.0,-16.0,-15.0,1
-207.0,-53.0,128.0,44.0,-13.0,-17.0,1
-206.0,-55.0,127.0,44.0,-11.0,-16.0,1
-207.0,-57.0,124.0,44.0,-10.0,-17.0,1
-204.0,-57.0,126.0,47.0,-11.0,-20.0,1
-203.0,-57.0,126.0,53.0,-12.0,-20.0,1
-205.0,-57.0,128.0,61.0,-14.0,-21.0,1
-205.0,-55.0,125.0,69.0,-16.0,-23.0,1
-207.0,-53.0,127.0,74.0,-16.0,-23.0,1
-208.0,-57.0,130.0,80.0,-18.0,-21.0,1
-205.0,-55.0,125.0,86.0,-21.0,-20.0,1
-206.0,-55.0,126.0,89.0,-23.0,-20.0,1
-205.0,-52.0,128.0,92.0,-24.0,-18.0,1
-203.0,-55.0,125.0,95.0,-24.0,-18.0,1
-206.0,-57.0,128.0,93.0,-25.0,-17.0,1
-204.0,-55.0,124.0,93.0,-25.0,-17.0,1
-206.0,-56.0,132.0,91.0,-25.0,-18.0,1
-210.0,-51.0,123.0,90.0,-24.0,-17.0,1
-206.0,-55.0,124.0,89.0,-24.0,-17.0,1
-204.0,-56.0,126.0,89.0,-24.0,-18.0,1
-204.0,-57.0,126.0,91.0,-24.0,-19.0,1
-206.0,-58.0,126.0,92.0,-25.0,-19.0,1
-204.0,-56.0,127.0,93.0,-24.0,-19.0,1
-208.0,-58.0,127.0,92.0,-24.0,-20.0,1
-204.0,-56.0,129.0,91.0,-23.0,-18.0,1
-204.0,-56.0,132.0,91.0,-25.0,-16.0,1
-206.0,-55.0,128.0,89.0,-25.0,-13.0,1
-203.0,-55.0,131.0,88.0,-26.0,-13.0,1
-208.0,-53.0,133.0,84.0,-26.0,-12.0,1
-205.0,-56.0,130.0,79.0,-24.0,-11.0,1
-207.0,-56.0,132.0,74.0,-23.0,-10.0,1
-208.0,-56.0,133.0,68.0,-21.0,-8.0,1
-204.0,-56.0,132.0,64.0,-19.0,-6.0,1
-203.0,-56.0,130.0,59.0,-16.0,-6.0,1
-206.0,-55.0,131.0,56.0,-13.0,-4.0,1
-207.0,-56.0,131.0,54.0,-12.0,-5.0,1
-206.0,-55.0,124.0,52.0,-11.0,-4.0,1
-205.0,-55.0,127.0,53.0,-12.0,-4.0,1
-205.0,-52.0,127.0,58.0,-11.0,-5.0,1
-204.0,-53.0,129.0,59.0,-13.0,-4.0,1
-206.0,-53.0,129.0,61.0,-11.0,-5.0,1
-205.0,-54.0,127.0,62.0,-12.0,-5.0,1
-207.0,-52.0,130.0,65.0,-10.0,-6.0,1
-204.0,-54.0,132.0,67.0,-8.0,-7.0,1
-204.0,-53.0,130.0,67.0,-9.0,-9.0,1
-206.0,-55.0,127.0,68.0,-8.0,-9.0,1
-207.0,-52.0,127.0,68.0,-8.0,-8.0,1
-205.0,-53.0,129.0,66.0,-8.0,-8.0,1
-204.0,-52.0,130.0,66.0,-8.0,-10.0,1
-203.0,-56.0,129.0,66.0,-8.0,-10.0,1
-206.0,-54.0,128.0,65.0,-6.0,-10.0,1
-207.0,-56.0,132.0,66.0,-8.0,-11.0,1
-204.0,-55.0,128.0,71.0,-7.0,-11.0,1
-207.0,-54.0,130.0,71.0,-8.0,-13.0,1
-206.0,-51.0,132.0,74.0,-6.0,-13.0,1
-206.0,-54.0,133.0,72.0,-4.0,-12.0,1
-206.0,-54.0,133.0,71.0,-1.0,-12.0,1
-204.0,-49.0,134.0,69.0,1.0,-12.0,1
-204.0,-55.0,129.0,65.0,2.0,-14.0,1
-201.0,-54.0,135.0,62.0,4.0,-12.0,1
-204.0,-58.0,133.0,60.0,4.0,-11.0,1
-203.0,-55.0,131.0,60.0,4.0,-11.0,1
-203.0,-53.0,132.0,59.0,5.0,-9.0,1
-204.0,-56.0,134.0,57.0,6.0,-7.0,1
-206.0,-57.0,131.0,55.0,5.0,-3.0,1
-201.0,-57.0,130.0,53.0,5.0,-3.0,1
-205.0,-54.0,135.0,54.0,4.0,-5.0,1
-205.0,-55.0,130.0,60.0,4.0,-7.0,1
-206.0,-57.0,129.0,65.0,6.0,-9.0,1
-205.0,-55.0,129.0,72.0,6.0,-13.0,1
-205.0,-55.0,125.0,77.0,6.0,-14.0,1
-207.0,-53.0,122.0,81.0,5.0,-17.0,1
-205.0,-53.0,129.0,85.0,5.0,-19.0,1
-206.0,-50.0,128.0,88.0,5.0,-21.0,1
-207.0,-53.0,129.0,91.0,6.0,-21.0,1
-206.0,-52.0,131.0,93.0,8.0,-22.0,1
-209.0,-52.0,131.0,94.0,7.0,-23.0,1
-206.0,-54.0,130.0,91.0,6.0,-23.0,1
-203.0,-53.0,130.0,90.0,5.0,-26.0,1
-201.0,-55.0,130.0,86.0,7.0,-26.0,1
-204.0,-55.0,131.0,84.0,8.0,-26.0,1
-205.0,-53.0,132.0,82.0,9.0,-25.0,1
-206.0,-52.0,129.0,81.0,9.0,-25.0,1
-201.0,-56.0,126.0,81.0,8.0,-24.0,1
-201.0,-54.0,125.0,81.0,7.0,-23.0,1
-205.0,-52.0,126.0,83.0,4.0,-21.0,1
-204.0,-54.0,131.0,83.0,2.0,-20.0,1
-204.0,-55.0,126.0,81.0,0.0,-17.0,1
-205.0,-55.0,130.0,79.0,-1.0,-16.0,1
-203.0,-57.0,132.0,76.0,-2.0,-14.0,1
-203.0,-53.0,133.0,76.0,0.0,-13.0,1
-207.0,-54.0,127.0,73.0,3.0,-12.0,1
-204.0,-53.0,131.0,70.0,2.0,-12.0,1
-197.0,-56.0,129.0,70.0,3.0,-11.0,1
-203.0,-55.0,126.0,70.0,3.0,-11.0,1
-202.0,-55.0,132.0,69.0,2.0,-8.0,1
-205.0,-56.0,128.0,71.0,0.0,-7.0,1
-204.0,-55.0,128.0,74.0,-4.0,-6.0,1
-204.0,-54.0,130.0,77.0,-7.0,-5.0,1
-207.0,-53.0,129.0,82.0,-9.0,-5.0,1
-205.0,-54.0,126.0,83.0,-11.0,-7.0,1
-207.0,-52.0,130.0,86.0,-11.0,-6.0,1
-209.0,-54.0,131.0,88.0,-12.0,-8.0,1
-206.0,-51.0,126.0,92.0,-15.0,-10.0,1
-209.0,-53.0,128.0,92.0,-16.0,-12.0,1
-207.0,-49.0,129.0,94.0,-18.0,-14.0,1
-206.0,-53.0,131.0,95.0,-21.0,-16.0,1
-205.0,-48.0,130.0,94.0,-21.0,-20.0,1
-206.0,-52.0,133.0,95.0,-21.0,-22.0,1
-203.0,-50.0,132.0,92.0,-18.0,-22.0,1
-209.0,-50.0,131.0,90.0,-13.0,-21.0,1
-205.0,-50.0,127.0,88.0,-11.0,-23.0,1
-203.0,-50.0,130.0,87.0,-8.0,-23.0,1
-204.0,-51.0,133.0,83.0,-5.0,-24.0,1
-204.0,-52.0,128.0,81.0,-5.0,-24.0,1
-208.0,-57.0,133.0,83.0,-4.0,-24.0,1
-205.0,-52.0,131.0,83.0,-6.0,-25.0,1
-205.0,-53.0,136.0,81.0,-8.0,-24.0,1
-203.0,-53.0,130.0,80.0,-9.0,-26.0,1
-203.0,-48.0,128.0,76.0,-10.0,-26.0,1
-203.0,-54.0,132.0,74.0,-9.0,-23.0,1
-204.0,-55.0,132.0,72.0,-8.0,-18.0,1
-203.0,-52.0,133.0,68.0,-7.0,-14.0,1
-201.0,-50.0,130.0,66.0,-7.0,-14.0,1
-204.0,-50.0,133.0,64.0,-7.0,-13.0,1
-198.0,-55.0,125.0,65.0,-7.0,-12.0,1
-201.0,-55.0,137.0,69.0,-9.0,-10.0,1
-205.0,-54.0,127.0,73.0,-9.0,-10.0,1
-206.0,-53.0,130.0,78.0,-10.0,-11.0,1
-205.0,-53.0,132.0,84.0,-12.0,-12.0,1
-207.0,-52.0,129.0,88.0,-14.0,-12.0,1
-204.0,-52.0,132.0,92.0,-15.0,-12.0,1
-205.0,-53.0,132.0,94.0,-17.0,-13.0,1
-204.0,-53.0,127.0,93.0,-16.0,-12.0,1
-202.0,-55.0,134.0,92.0,-16.0,-13.0,1
-206.0,-53.0,133.0,89.0,-16.0,-14.0,1
-205.0,-52.0,134.0,86.0,-15.0,-15.0,1
-204.0,-50.0,135.0,84.0,-12.0,-16.0,1
-207.0,-49.0,135.0,81.0,-10.0,-17.0,1
-204.0,-54.0,130.0,77.0,-8.0,-17.0,1
-203.0,-54.0,133.0,76.0,-5.0,-16.0,1
-200.0,-52.0,130.0,75.0,-1.0,-15.0,1
-202.0,-53.0,134.0,75.0,1.0,-13.0,1
-205.0,-52.0,133.0,75.0,4.0,-14.0,1
-203.0,-52.0,132.0,74.0,4.0,-14.0,1
-206.0,-51.0,129.0,74.0,2.0,-13.0,1
-206.0,-53.0,133.0,73.0,0.0,-12.0,1
-201.0,-52.0,135.0,71.0,-1.0,-12.0,1
-202.0,-56.0,134.0,70.0,-1.0,-12.0,1
-217.0,-48.0,128.0,71.0,-2.0,-13.0,1
-202.0,-54.0,134.0,71.0,-1.0,-12.0,1
-202.0,-51.0,134.0,72.0,1.0,-11.0,1
-202.0,-52.0,131.0,72.0,2.0,-11.0,1
-201.0,-52.0,132.0,72.0,2.0,-12.0,1
-204.0,-50.0,131.0,72.0,1.0,-11.0,1
-204.0,-53.0,138.0,73.0,2.0,-11.0,1
-202.0,-54.0,137.0,76.0,2.0,-10.0,1
-202.0,-54.0,134.0,77.0,2.0,-12.0,1
-194.0,-57.0,131.0,79.0,0.0,-12.0,1
-205.0,-52.0,133.0,78.0,0.0,-14.0,1
-199.0,-53.0,134.0,78.0,0.0,-15.0,1
-203.0,-52.0,134.0,78.0,4.0,-13.0,1
-204.0,-51.0,135.0,77.0,8.0,-11.0,1
-201.0,-52.0,134.0,78.0,11.0,-13.0,1
-202.0,-51.0,136.0,77.0,13.0,-16.0,1
-202.0,-55.0,137.0,75.0,10.0,-14.0,1
-204.0,-53.0,133.0,73.0,9.0,-15.0,1
-205.0,-50.0,134.0,70.0,9.0,-14.0,1
-200.0,-49.0,132.0,68.0,8.0,-12.0,1
-208.0,-49.0,130.0,66.0,9.0,-11.0,1
-201.0,-54.0,134.0,64.0,11.0,-10.0,1
-202.0,-51.0,135.0,61.0,14.0,-8.0,1
-201.0,-50.0,135.0,59.0,15.0,-6.0,1
-203.0,-49.0,134.0,55.0,18.0,-6.0,1
-205.0,-52.0,133.0,52.0,19.0,-8.0,1
-204.0,-51.0,133.0,53.0,21.0,-10.0,1
-204.0,-51.0,136.0,54.0,23.0,-11.0,1
-206.0,-51.0,136.0,58.0,24.0,-14.0,1
-206.0,-52.0,132.0,63.0,26.0,-16.0,1
-204.0,-54.0,127.0,67.0,26.0,-15.0,1
-200.0,-51.0,141.0,71.0,24.0,-17.0,1
-205.0,-52.0,132.0,74.0,22.0,-18.0,1
-203.0,-55.0,131.0,76.0,19.0,-18.0,1
-207.0,-52.0,134.0,79.0,14.0,-18.0,1
-203.0,-53.0,132.0,79.0,10.0,-17.0,1
-205.0,-54.0,126.0,79.0,7.0,-16.0,1
-205.0,-54.0,130.0,83.0,5.0,-17.0,1
-204.0,-57.0,131.0,88.0,4.0,-17.0,1
-201.0,-56.0,128.0,93.0,4.0,-20.0,1
-204.0,-51.0,131.0,97.0,3.0,-21.0,1
-206.0,-52.0,131.0,99.0,2.0,-22.0,1
-202.0,-53.0,128.0,98.0,1.0,-22.0,1
-205.0,-49.0,129.0,98.0,-1.0,-21.0,1
-207.0,-49.0,128.0,96.0,-3.0,-21.0,1
-203.0,-51.0,134.0,94.0,-6.0,-22.0,1
-206.0,-48.0,130.0,88.0,-6.0,-23.0,1
-207.0,-50.0,128.0,86.0,-7.0,-21.0,1
-204.0,-51.0,133.0,81.0,-8.0,-21.0,1
-206.0,-51.0,133.0,75.0,-7.0,-19.0,1
-201.0,-53.0,131.0,70.0,-4.0,-18.0,1
-204.0,-47.0,134.0,66.0,0.0,-19.0,1
-201.0,-55.0,135.0,63.0,4.0,-17.0,1
-208.0,-55.0,133.0,60.0,6.0,-14.0,1
-202.0,-49.0,131.0,57.0,8.0,-11.0,1
-204.0,-53.0,133.0,56.0,5.0,-11.0,1
-201.0,-53.0,133.0,55.0,4.0,-10.0,1
-201.0,-52.0,132.0,55.0,1.0,-9.0,1
-204.0,-51.0,133.0,55.0,-2.0,-9.0,1
-200.0,-54.0,135.0,56.0,-5.0,-8.0,1
-204.0,-53.0,138.0,58.0,-8.0,-8.0,1
-204.0,-55.0,138.0,59.0,-6.0,-7.0,1
-203.0,-55.0,131.0,60.0,-6.0,-9.0,1
-205.0,-52.0,134.0,63.0,-6.0,-10.0,1
-203.0,-52.0,137.0,63.0,-7.0,-9.0,1
-201.0,-53.0,134.0,62.0,-9.0,-11.0,1
-203.0,-51.0,134.0,62.0,-8.0,-8.0,1
-199.0,-49.0,134.0,61.0,-9.0,-7.0,1
-199.0,-51.0,135.0,61.0,-8.0,-11.0,1
-203.0,-51.0,133.0,61.0,-4.0,-11.0,1
-201.0,-54.0,132.0,61.0,-2.0,-12.0,1
-200.0,-53.0,137.0,61.0,1.0,-16.0,1
-205.0,-51.0,138.0,59.0,1.0,-14.0,1
-205.0,-54.0,132.0,59.0,2.0,-15.0,1
-205.0,-52.0,134.0,56.0,3.0,-14.0,1
-203.0,-47.0,131.0,52.0,3.0,-14.0,1
-204.0,-52.0,133.0,52.0,3.0,-14.0,1
-206.0,-49.0,135.0,51.0,3.0,-13.0,1
-201.0,-51.0,134.0,50.0,2.0,-11.0,1
-202.0,-52.0,135.0,51.0,4.0,-11.0,1
-204.0,-51.0,133.0,53.0,3.0,-11.0,1
-199.0,-51.0,135.0,52.0,5.0,-9.0,1
-201.0,-52.0,129.0,53.0,7.0,-10.0,1
-204.0,-50.0,134.0,54.0,9.0,-9.0,1
-204.0,-50.0,137.0,54.0,10.0,-12.0,1
-206.0,-52.0,138.0,55.0,10.0,-12.0,1
-205.0,-58.0,137.0,56.0,9.0,-12.0,1
-202.0,-50.0,133.0,57.0,8.0,-12.0,1
-200.0,-51.0,133.0,57.0,8.0,-11.0,1
-202.0,-51.0,131.0,57.0,7.0,-11.0,1
-201.0,-49.0,134.0,57.0,5.0,-10.0,1
-202.0,-51.0,137.0,56.0,4.0,-9.0,1
-204.0,-52.0,133.0,52.0,2.0,-7.0,1
-201.0,-49.0,138.0,49.0,1.0,-7.0,1
-202.0,-48.0,133.0,47.0,0.0,-7.0,1
-203.0,-51.0,137.0,45.0,0.0,-7.0,1
-202.0,-52.0,132.0,44.0,1.0,-6.0,1
-200.0,-52.0,134.0,43.0,1.0,-6.0,1
-203.0,-48.0,135.0,46.0,2.0,-6.0,1
-204.0,-50.0,133.0,45.0,4.0,-8.0,1
-203.0,-48.0,133.0,46.0,5.0,-8.0,1
-204.0,-51.0,133.0,46.0,6.0,-8.0,1
-202.0,-53.0,128.0,43.0,8.0,-8.0,1
-201.0,-49.0,133.0,43.0,8.0,-8.0,1
-205.0,-49.0,133.0,42.0,9.0,-9.0,1
-205.0,-48.0,132.0,40.0,7.0,-9.0,1
-205.0,-51.0,132.0,43.0,7.0,-11.0,1
-201.0,-53.0,130.0,43.0,5.0,-10.0,1
-200.0,-53.0,137.0,43.0,7.0,-12.0,1
-201.0,-49.0,134.0,42.0,7.0,-12.0,1
-205.0,-50.0,132.0,42.0,9.0,-11.0,1
-201.0,-50.0,134.0,40.0,8.0,-10.0,1
-200.0,-52.0,134.0,38.0,8.0,-10.0,1
-199.0,-52.0,137.0,38.0,8.0,-9.0,1
-199.0,-52.0,136.0,37.0,10.0,-10.0,1
-204.0,-51.0,135.0,38.0,12.0,-10.0,1
-206.0,-55.0,135.0,39.0,14.0,-9.0,1
-202.0,-55.0,129.0,42.0,14.0,-10.0,1
-200.0,-44.0,128.0,43.0,16.0,-12.0,1
-202.0,-50.0,134.0,47.0,17.0,-13.0,1
-203.0,-51.0,136.0,47.0,17.0,-10.0,1
-203.0,-51.0,133.0,48.0,17.0,-10.0,1
-204.0,-52.0,131.0,49.0,16.0,-9.0,1
-203.0,-49.0,134.0,49.0,15.0,-10.0,1
-202.0,-53.0,131.0,51.0,16.0,-9.0,1
-203.0,-53.0,135.0,52.0,17.0,-7.0,1
-200.0,-48.0,136.0,51.0,17.0,-8.0,1
-203.0,-51.0,133.0,49.0,20.0,-9.0,1
-204.0,-52.0,138.0,46.0,20.0,-9.0,1
-203.0,-54.0,136.0,45.0,22.0,-10.0,1
-203.0,-53.0,134.0,45.0,22.0,-7.0,1
-203.0,-50.0,130.0,44.0,24.0,-7.0,1
-205.0,-50.0,138.0,42.0,24.0,-10.0,1
-203.0,-55.0,132.0,42.0,24.0,-8.0,1
-203.0,-53.0,133.0,40.0,24.0,-8.0,1
-204.0,-51.0,137.0,42.0,25.0,-10.0,1
-201.0,-50.0,131.0,45.0,25.0,-11.0,1
-202.0,-50.0,128.0,48.0,25.0,-12.0,1
-204.0,-52.0,135.0,50.0,27.0,-13.0,1
-203.0,-51.0,137.0,52.0,27.0,-16.0,1
-205.0,-48.0,129.0,54.0,27.0,-15.0,1
-202.0,-52.0,135.0,55.0,27.0,-14.0,1
-202.0,-53.0,137.0,56.0,25.0,-13.0,1
-202.0,-54.0,131.0,58.0,24.0,-12.0,1
-204.0,-51.0,131.0,59.0,24.0,-14.0,1
-204.0,-52.0,136.0,60.0,23.0,-15.0,1
-204.0,-49.0,133.0,61.0,23.0,-14.0,1
-203.0,-52.0,130.0,63.0,20.0,-14.0,1
-203.0,-51.0,132.0,66.0,19.0,-16.0,1
-205.0,-50.0,131.0,68.0,17.0,-16.0,1
-208.0,-47.0,134.0,67.0,16.0,-15.0,1
-207.0,-52.0,129.0,68.0,16.0,-14.0,1
-203.0,-49.0,131.0,68.0,15.0,-14.0,1
-203.0,-50.0,132.0,69.0,13.0,-14.0,1
-202.0,-51.0,130.0,69.0,11.0,-14.0,1
-202.0,-49.0,133.0,68.0,7.0,-13.0,1
-200.0,-50.0,132.0,71.0,6.0,-11.0,1
-204.0,-50.0,135.0,71.0,2.0,-13.0,1
-200.0,-49.0,133.0,71.0,1.0,-11.0,1
-199.0,-51.0,129.0,69.0,1.0,-10.0,1
-205.0,-50.0,132.0,67.0,2.0,-12.0,1
-202.0,-52.0,135.0,63.0,4.0,-14.0,1
-203.0,-48.0,131.0,62.0,7.0,-13.0,1
-204.0,-50.0,134.0,62.0,8.0,-15.0,1
-204.0,-51.0,135.0,61.0,8.0,-16.0,1
-201.0,-52.0,134.0,61.0,8.0,-17.0,1
-201.0,-53.0,136.0,61.0,7.0,-19.0,1
-202.0,-52.0,136.0,58.0,6.0,-16.0,1
-201.0,-52.0,135.0,56.0,5.0,-17.0,1
-202.0,-49.0,138.0,54.0,5.0,-17.0,1
-204.0,-53.0,135.0,55.0,7.0,-15.0,1
-202.0,-53.0,132.0,54.0,8.0,-14.0,1
-199.0,-54.0,132.0,53.0,11.0,-14.0,1
-206.0,-51.0,131.0,53.0,13.0,-11.0,1
-203.0,-51.0,136.0,52.0,16.0,-9.0,1
-204.0,-52.0,135.0,53.0,16.0,-6.0,1
-205.0,-52.0,134.0,56.0,16.0,-6.0,1
-204.0,-50.0,132.0,60.0,15.0,-7.0,1
-205.0,-51.0,135.0,61.0,14.0,-7.0,1
-201.0,-55.0,134.0,62.0,13.0,-8.0,1
-203.0,-50.0,137.0,62.0,12.0,-9.0,1
-202.0,-50.0,135.0,61.0,11.0,-9.0,1
-205.0,-51.0,133.0,58.0,9.0,-10.0,1
-199.0,-50.0,133.0,56.0,7.0,-9.0,1
-200.0,-48.0,127.0,54.0,4.0,-7.0,1
-202.0,-48.0,130.0,53.0,2.0,-5.0,1
-205.0,-49.0,134.0,51.0,3.0,-7.0,1
-200.0,-49.0,134.0,51.0,4.0,-6.0,1
-201.0,-51.0,133.0,49.0,5.0,-5.0,1
-202.0,-51.0,134.0,48.0,7.0,-6.0,1
-205.0,-51.0,137.0,47.0,8.0,-6.0,1
-204.0,-49.0,135.0,44.0,11.0,-7.0,1
-201.0,-52.0,133.0,43.0,15.0,-7.0,1
-201.0,-49.0,139.0,43.0,18.0,-9.0,1
-204.0,-51.0,132.0,43.0,19.0,-7.0,1
-203.0,-49.0,133.0,45.0,20.0,-8.0,1
-201.0,-51.0,133.0,43.0,20.0,-7.0,1
-200.0,-53.0,130.0,41.0,18.0,-6.0,1
-202.0,-50.0,133.0,40.0,16.0,-5.0,1
-200.0,-51.0,134.0,39.0,16.0,-6.0,1
-204.0,-54.0,137.0,38.0,14.0,-7.0,1
-201.0,-51.0,136.0,38.0,14.0,-4.0,1
-201.0,-54.0,135.0,40.0,14.0,-5.0,1
-201.0,-53.0,134.0,40.0,14.0,-4.0,1
-206.0,-50.0,130.0,41.0,15.0,-6.0,1
-203.0,-51.0,136.0,42.0,15.0,-5.0,1
-200.0,-51.0,132.0,43.0,17.0,-6.0,1
-203.0,-53.0,134.0,45.0,16.0,-7.0,1
-208.0,-52.0,135.0,48.0,15.0,-7.0,1
-205.0,-51.0,136.0,49.0,14.0,-9.0,1
-206.0,-52.0,135.0,49.0,12.0,-8.0,1
-203.0,-51.0,130.0,50.0,12.0,-7.0,1
-205.0,-49.0,134.0,51.0,10.0,-7.0,1
-203.0,-50.0,134.0,49.0,8.0,-7.0,1
-208.0,-45.0,133.0,46.0,7.0,-8.0,1
-204.0,-50.0,131.0,46.0,5.0,-7.0,1
-203.0,-48.0,130.0,45.0,5.0,-8.0,1
-202.0,-52.0,134.0,46.0,7.0,-10.0,1
-204.0,-50.0,135.0,48.0,10.0,-11.0,1
-202.0,-53.0,134.0,50.0,12.0,-12.0,1
-200.0,-52.0,131.0,49.0,12.0,-10.0,1
-202.0,-48.0,136.0,47.0,12.0,-10.0,1
-202.0,-53.0,132.0,45.0,11.0,-12.0,1
-205.0,-52.0,135.0,44.0,11.0,-10.0,1
-204.0,-54.0,135.0,44.0,8.0,-12.0,1
-201.0,-55.0,133.0,44.0,6.0,-11.0,1
-205.0,-53.0,132.0,45.0,4.0,-12.0,1
-202.0,-48.0,135.0,49.0,2.0,-12.0,1
-208.0,-50.0,134.0,50.0,1.0,-13.0,1
-208.0,-49.0,131.0,52.0,1.0,-13.0,1
-206.0,-50.0,132.0,53.0,1.0,-13.0,1
-205.0,-49.0,132.0,52.0,1.0,-12.0,1
-203.0,-49.0,132.0,54.0,2.0,-13.0,1
-206.0,-49.0,132.0,53.0,2.0,-13.0,1
-199.0,-46.0,130.0,53.0,0.0,-10.0,1
-203.0,-53.0,135.0,53.0,-1.0,-12.0,1
-202.0,-50.0,133.0,52.0,-2.0,-12.0,1
-203.0,-49.0,134.0,48.0,-3.0,-11.0,1
-202.0,-50.0,136.0,46.0,-3.0,-12.0,1
-200.0,-51.0,134.0,43.0,-2.0,-10.0,1
-202.0,-51.0,137.0,40.0,-3.0,-8.0,1
-202.0,-52.0,136.0,38.0,-3.0,-6.0,1
-204.0,-51.0,134.0,36.0,-5.0,-4.0,1
-203.0,-51.0,132.0,33.0,-5.0,-2.0,1
-202.0,-49.0,136.0,31.0,-6.0,0.0,1
-203.0,-54.0,135.0,29.0,-6.0,1.0,1
-203.0,-51.0,136.0,27.0,-6.0,0.0,1
-205.0,-51.0,138.0,27.0,-4.0,1.0,1
-202.0,-51.0,136.0,30.0,-3.0,-3.0,1
-199.0,-49.0,133.0,31.0,0.0,-4.0,1
-204.0,-52.0,134.0,30.0,0.0,-5.0,1
-203.0,-52.0,136.0,27.0,-2.0,-5.0,1
-203.0,-50.0,138.0,23.0,-1.0,-6.0,1
-204.0,-50.0,137.0,16.0,-4.0,-5.0,1
-202.0,-51.0,135.0,10.0,-5.0,0.0,1
-203.0,-52.0,135.0,3.0,-6.0,1.0,1
-200.0,-53.0,134.0,-3.0,-6.0,3.0,1
-202.0,-49.0,135.0,-9.0,-6.0,2.0,1
-201.0,-53.0,140.0,-11.0,-4.0,6.0,1
-203.0,-51.0,129.0,-12.0,-2.0,5.0,1
-204.0,-44.0,138.0,-12.0,1.0,2.0,1
-202.0,-50.0,135.0,-7.0,5.0,-2.0,1
-206.0,-54.0,136.0,-1.0,9.0,-4.0,1
-202.0,-49.0,135.0,3.0,12.0,-6.0,1
-202.0,-49.0,134.0,8.0,13.0,-6.0,1
-205.0,-49.0,132.0,11.0,9.0,-9.0,1
-202.0,-49.0,134.0,13.0,2.0,-9.0,1
-205.0,-51.0,134.0,13.0,-1.0,-5.0,1
-205.0,-49.0,132.0,14.0,-4.0,-3.0,1
-199.0,-51.0,134.0,13.0,-4.0,-1.0,1
-203.0,-46.0,135.0,10.0,-4.0,-1.0,1
-204.0,-47.0,133.0,8.0,-3.0,-2.0,1
-201.0,-52.0,133.0,7.0,0.0,-3.0,1
-200.0,-52.0,131.0,3.0,2.0,-4.0,1
-200.0,-50.0,133.0,1.0,5.0,-5.0,1
-200.0,-50.0,134.0,0.0,5.0,-5.0,1
-204.0,-52.0,134.0,2.0,3.0,-4.0,1
-204.0,-52.0,133.0,4.0,2.0,-6.0,1
-204.0,-53.0,136.0,10.0,0.0,-7.0,1
-208.0,-55.0,130.0,17.0,-2.0,-7.0,1
-204.0,-54.0,135.0,21.0,-2.0,-10.0,1
-203.0,-51.0,134.0,23.0,-5.0,-10.0,1
-204.0,-56.0,133.0,24.0,-5.0,-8.0,1
-203.0,-53.0,136.0,24.0,-6.0,-10.0,1
-202.0,-48.0,136.0,22.0,-5.0,-8.0,1
-203.0,-51.0,133.0,20.0,-4.0,-7.0,1
-200.0,-51.0,127.0,18.0,-2.0,-6.0,1
-200.0,-52.0,133.0,16.0,0.0,-7.0,1
-202.0,-50.0,131.0,12.0,1.0,-7.0,1
-205.0,-50.0,135.0,11.0,1.0,-6.0,1
-202.0,-54.0,133.0,10.0,1.0,-5.0,1
-204.0,-49.0,133.0,11.0,0.0,-8.0,1
-205.0,-52.0,132.0,14.0,-1.0,-11.0,1
-205.0,-54.0,131.0,18.0,-3.0,-12.0,1
-203.0,-52.0,130.0,24.0,-4.0,-14.0,1
-207.0,-52.0,133.0,28.0,-6.0,-15.0,1
-204.0,-51.0,133.0,29.0,-8.0,-13.0,1
-201.0,-50.0,133.0,27.0,-8.0,-16.0,1
-201.0,-47.0,131.0,23.0,-10.0,-14.0,1
-199.0,-51.0,135.0,18.0,-7.0,-12.0,1
-199.0,-53.0,133.0,13.0,-4.0,-10.0,1
-203.0,-49.0,131.0,10.0,-1.0,-8.0,1
-203.0,-53.0,131.0,8.0,3.0,-8.0,1
-201.0,-56.0,133.0,6.0,7.0,-9.0,1
-200.0,-57.0,139.0,8.0,9.0,-9.0,1
-201.0,-54.0,136.0,11.0,11.0,-9.0,1
-202.0,-55.0,135.0,13.0,11.0,-9.0,1
-202.0,-53.0,136.0,14.0,10.0,-10.0,1
-202.0,-55.0,136.0,13.0,9.0,-8.0,1
-202.0,-54.0,134.0,11.0,5.0,-7.0,1
-199.0,-57.0,136.0,9.0,3.0,-7.0,1
-200.0,-54.0,135.0,6.0,4.0,-5.0,1
-198.0,-54.0,138.0,5.0,4.0,-3.0,1
-201.0,-54.0,135.0,3.0,5.0,-1.0,1
-196.0,-51.0,136.0,3.0,5.0,-3.0,1
-198.0,-56.0,132.0,5.0,6.0,-1.0,1
-200.0,-56.0,137.0,7.0,8.0,2.0,1
-204.0,-55.0,133.0,9.0,11.0,1.0,1
-202.0,-54.0,133.0,10.0,12.0,4.0,1
-204.0,-55.0,137.0,14.0,12.0,4.0,1
-200.0,-56.0,135.0,15.0,12.0,2.0,1
-203.0,-51.0,130.0,17.0,10.0,3.0,1
-203.0,-52.0,133.0,17.0,9.0,2.0,1
-202.0,-52.0,135.0,16.0,9.0,4.0,1
-203.0,-50.0,134.0,15.0,9.0,2.0,1
-204.0,-49.0,137.0,13.0,9.0,2.0,1
-201.0,-49.0,137.0,12.0,9.0,0.0,1
-203.0,-49.0,138.0,13.0,11.0,0.0,1
-201.0,-53.0,129.0,12.0,13.0,-4.0,1
-201.0,-54.0,135.0,12.0,13.0,-5.0,1
-204.0,-54.0,134.0,12.0,17.0,-6.0,1
-202.0,-54.0,137.0,12.0,18.0,-7.0,1
-200.0,-52.0,132.0,13.0,21.0,-7.0,1
-202.0,-51.0,135.0,11.0,22.0,-7.0,1
-198.0,-53.0,137.0,10.0,21.0,-7.0,1
-203.0,-52.0,137.0,10.0,21.0,-8.0,1
-203.0,-54.0,134.0,10.0,21.0,-8.0,1
-203.0,-54.0,132.0,11.0,19.0,-9.0,1
-200.0,-55.0,134.0,12.0,20.0,-9.0,1
-201.0,-55.0,131.0,12.0,21.0,-9.0,1
-206.0,-53.0,135.0,13.0,21.0,-9.0,1
-204.0,-52.0,132.0,13.0,21.0,-7.0,1
-203.0,-53.0,132.0,14.0,23.0,-8.0,1
-203.0,-53.0,133.0,14.0,24.0,-7.0,1
-201.0,-57.0,133.0,18.0,26.0,-9.0,1
-205.0,-56.0,132.0,20.0,25.0,-9.0,1
-202.0,-55.0,133.0,23.0,26.0,-8.0,1
-203.0,-52.0,130.0,26.0,25.0,-9.0,1
-201.0,-53.0,131.0,27.0,24.0,-10.0,1
-203.0,-53.0,134.0,27.0,23.0,-9.0,1
-202.0,-54.0,133.0,27.0,23.0,-8.0,1
-206.0,-51.0,132.0,27.0,24.0,-8.0,1
-203.0,-54.0,129.0,25.0,26.0,-7.0,1
-205.0,-52.0,134.0,25.0,27.0,-6.0,1
-200.0,-55.0,133.0,23.0,25.0,-6.0,1
-201.0,-56.0,135.0,21.0,26.0,-4.0,1
-196.0,-57.0,135.0,19.0,27.0,-4.0,1
-202.0,-53.0,135.0,20.0,27.0,-1.0,1
-194.0,-54.0,134.0,21.0,26.0,-3.0,1
-202.0,-58.0,133.0,22.0,28.0,-6.0,1
-204.0,-53.0,130.0,25.0,29.0,-5.0,1
-201.0,-55.0,129.0,30.0,30.0,-8.0,1
-206.0,-52.0,135.0,35.0,33.0,-11.0,1
-201.0,-54.0,132.0,40.0,33.0,-12.0,1
-203.0,-57.0,132.0,45.0,33.0,-13.0,1
-205.0,-57.0,131.0,49.0,31.0,-13.0,1
-202.0,-55.0,133.0,52.0,27.0,-15.0,1
-202.0,-54.0,127.0,54.0,25.0,-16.0,1
-201.0,-53.0,128.0,55.0,22.0,-18.0,1
-201.0,-59.0,134.0,55.0,20.0,-18.0,1
-202.0,-53.0,131.0,52.0,21.0,-21.0,1
-202.0,-55.0,133.0,49.0,21.0,-22.0,1
-204.0,-59.0,134.0,46.0,24.0,-22.0,1
-202.0,-56.0,132.0,42.0,26.0,-23.0,1
-203.0,-52.0,132.0,37.0,29.0,-18.0,1
-202.0,-55.0,130.0,31.0,32.0,-16.0,1
-202.0,-53.0,134.0,29.0,33.0,-13.0,1
-205.0,-57.0,129.0,28.0,34.0,-10.0,1
-203.0,-51.0,132.0,28.0,35.0,-8.0,1
-201.0,-53.0,137.0,28.0,33.0,-3.0,1
-207.0,-53.0,132.0,30.0,31.0,-3.0,1
-204.0,-57.0,130.0,31.0,30.0,-2.0,1
-203.0,-54.0,129.0,30.0,27.0,-1.0,1
-202.0,-55.0,126.0,31.0,23.0,0.0,1
-203.0,-53.0,129.0,33.0,21.0,-1.0,1
-203.0,-57.0,130.0,34.0,20.0,-1.0,1
-202.0,-52.0,134.0,37.0,18.0,-3.0,1
-202.0,-56.0,131.0,39.0,16.0,-6.0,1
-202.0,-56.0,134.0,39.0,16.0,-5.0,1
-203.0,-52.0,138.0,41.0,18.0,-6.0,1
-204.0,-55.0,131.0,41.0,17.0,-7.0,1
-200.0,-57.0,126.0,38.0,17.0,-8.0,1
-206.0,-52.0,134.0,36.0,18.0,-8.0,1
-201.0,-54.0,136.0,32.0,18.0,-6.0,1
-203.0,-53.0,132.0,29.0,19.0,-6.0,1
-202.0,-53.0,132.0,28.0,20.0,-5.0,1
-203.0,-54.0,131.0,27.0,22.0,-4.0,1
-201.0,-55.0,133.0,28.0,23.0,-4.0,1
-200.0,-55.0,135.0,29.0,24.0,-4.0,1
-203.0,-57.0,130.0,30.0,27.0,-3.0,1
-205.0,-57.0,131.0,33.0,27.0,-5.0,1
-204.0,-53.0,132.0,37.0,28.0,-6.0,1
-198.0,-59.0,141.0,39.0,28.0,-9.0,1
-202.0,-54.0,133.0,43.0,27.0,-11.0,1
-202.0,-53.0,131.0,45.0,26.0,-13.0,1
-204.0,-55.0,131.0,45.0,25.0,-14.0,1
-202.0,-54.0,132.0,46.0,23.0,-12.0,1
-206.0,-52.0,134.0,45.0,20.0,-11.0,1
-206.0,-52.0,130.0,44.0,18.0,-12.0,1
-207.0,-55.0,131.0,45.0,18.0,-11.0,1
-202.0,-52.0,133.0,44.0,19.0,-9.0,1
-202.0,-51.0,128.0,44.0,17.0,-9.0,1
-202.0,-55.0,128.0,46.0,17.0,-8.0,1
-209.0,-60.0,121.0,49.0,18.0,-9.0,1
-202.0,-54.0,129.0,52.0,16.0,-9.0,1
-203.0,-55.0,130.0,55.0,15.0,-10.0,1
-201.0,-59.0,129.0,58.0,16.0,-9.0,1
-204.0,-55.0,127.0,62.0,16.0,-9.0,1
-203.0,-57.0,129.0,65.0,16.0,-11.0,1
-205.0,-52.0,128.0,67.0,15.0,-13.0,1
-203.0,-57.0,129.0,69.0,13.0,-12.0,1
-205.0,-50.0,130.0,71.0,13.0,-12.0,1
-201.0,-55.0,131.0,73.0,13.0,-9.0,1
-208.0,-54.0,135.0,74.0,12.0,-8.0,1
-201.0,-50.0,130.0,75.0,12.0,-9.0,1
-204.0,-55.0,131.0,75.0,11.0,-8.0,1
-204.0,-53.0,132.0,72.0,11.0,-9.0,1
-203.0,-54.0,131.0,69.0,10.0,-7.0,1
-205.0,-55.0,131.0,67.0,7.0,-5.0,1
-203.0,-54.0,135.0,64.0,7.0,-4.0,1
-203.0,-57.0,134.0,62.0,7.0,-2.0,1
-203.0,-53.0,129.0,58.0,8.0,-3.0,1
-200.0,-52.0,135.0,58.0,9.0,-2.0,1
-202.0,-52.0,130.0,56.0,11.0,-2.0,1
-203.0,-47.0,138.0,55.0,12.0,-3.0,1
-205.0,-55.0,129.0,56.0,14.0,-5.0,1
-203.0,-56.0,132.0,57.0,13.0,-4.0,1
-205.0,-54.0,130.0,59.0,14.0,-2.0,1
-205.0,-52.0,131.0,61.0,13.0,-3.0,1
-203.0,-55.0,135.0,62.0,13.0,-6.0,1
-206.0,-55.0,134.0,65.0,12.0,-5.0,1
-202.0,-54.0,133.0,64.0,9.0,-7.0,1
-205.0,-54.0,130.0,65.0,9.0,-7.0,1
-201.0,-55.0,132.0,65.0,8.0,-8.0,1
-201.0,-55.0,136.0,64.0,9.0,-9.0,1
-200.0,-60.0,138.0,63.0,8.0,-8.0,1
-203.0,-54.0,131.0,66.0,7.0,-9.0,1
-204.0,-57.0,130.0,70.0,7.0,-9.0,1
-206.0,-54.0,130.0,72.0,8.0,-10.0,1
-205.0,-54.0,132.0,72.0,9.0,-9.0,1
-205.0,-51.0,130.0,72.0,11.0,-10.0,1
-206.0,-53.0,133.0,75.0,12.0,-11.0,1
-206.0,-49.0,132.0,75.0,12.0,-11.0,1
-205.0,-51.0,135.0,75.0,12.0,-9.0,1
-204.0,-54.0,133.0,76.0,12.0,-8.0,1
-202.0,-51.0,130.0,78.0,11.0,-9.0,1
-204.0,-50.0,135.0,77.0,10.0,-9.0,1
-204.0,-53.0,130.0,76.0,9.0,-9.0,1
-201.0,-55.0,131.0,77.0,10.0,-9.0,1
-203.0,-54.0,131.0,76.0,10.0,-10.0,1
-202.0,-53.0,130.0,76.0,9.0,-7.0,1
-205.0,-50.0,131.0,74.0,11.0,-7.0,1
-202.0,-52.0,130.0,72.0,12.0,-5.0,1
-207.0,-49.0,133.0,68.0,14.0,-7.0,1
-205.0,-53.0,130.0,63.0,15.0,-4.0,1
-207.0,-52.0,134.0,63.0,18.0,-5.0,1
-201.0,-55.0,131.0,61.0,17.0,-5.0,1
-201.0,-55.0,134.0,60.0,14.0,-5.0,1
-204.0,-53.0,132.0,60.0,12.0,-6.0,1
-202.0,-53.0,135.0,63.0,11.0,-9.0,1
-203.0,-52.0,135.0,67.0,9.0,-10.0,1
-205.0,-51.0,128.0,72.0,10.0,-12.0,1
-205.0,-48.0,129.0,77.0,8.0,-14.0,1
-204.0,-53.0,131.0,82.0,7.0,-15.0,1
-203.0,-52.0,133.0,87.0,8.0,-14.0,1
-202.0,-53.0,129.0,90.0,8.0,-16.0,1
-203.0,-57.0,128.0,93.0,8.0,-18.0,1
-202.0,-53.0,134.0,96.0,5.0,-19.0,1
-203.0,-47.0,135.0,98.0,5.0,-18.0,1
-201.0,-56.0,132.0,98.0,8.0,-16.0,1
-202.0,-53.0,133.0,97.0,9.0,-15.0,1
-203.0,-55.0,134.0,94.0,13.0,-14.0,1
-202.0,-53.0,134.0,93.0,15.0,-14.0,1
-207.0,-52.0,131.0,94.0,16.0,-15.0,1
-204.0,-53.0,127.0,93.0,16.0,-13.0,1
-204.0,-53.0,130.0,91.0,16.0,-12.0,1
-206.0,-52.0,127.0,90.0,15.0,-14.0,1
-205.0,-49.0,132.0,90.0,16.0,-15.0,1
-204.0,-52.0,129.0,91.0,15.0,-17.0,1
-208.0,-52.0,130.0,94.0,13.0,-17.0,1
-205.0,-54.0,132.0,94.0,10.0,-16.0,1
-205.0,-52.0,133.0,93.0,8.0,-14.0,1
-202.0,-51.0,136.0,93.0,6.0,-15.0,1
-202.0,-52.0,130.0,91.0,5.0,-13.0,1
-201.0,-55.0,132.0,89.0,3.0,-15.0,1
-203.0,-53.0,132.0,87.0,4.0,-14.0,1
-206.0,-51.0,133.0,87.0,5.0,-12.0,1
-204.0,-51.0,131.0,88.0,3.0,-10.0,1
-202.0,-60.0,131.0,89.0,1.0,-11.0,1
-205.0,-56.0,132.0,90.0,1.0,-11.0,1
-207.0,-52.0,131.0,94.0,2.0,-11.0,1
-205.0,-49.0,132.0,92.0,0.0,-12.0,1
-205.0,-52.0,133.0,92.0,0.0,-13.0,1
-205.0,-52.0,133.0,92.0,0.0,-14.0,1
-203.0,-54.0,134.0,91.0,2.0,-13.0,1
-205.0,-51.0,132.0,89.0,3.0,-13.0,1
-205.0,-51.0,133.0,91.0,0.0,-17.0,1
-202.0,-53.0,133.0,89.0,1.0,-18.0,1
-204.0,-53.0,133.0,87.0,2.0,-18.0,1
-205.0,-53.0,136.0,84.0,3.0,-18.0,1
-201.0,-52.0,135.0,82.0,4.0,-15.0,1
-204.0,-50.0,128.0,80.0,2.0,-14.0,1
-202.0,-53.0,132.0,78.0,2.0,-14.0,1
-204.0,-56.0,133.0,76.0,1.0,-14.0,1
-205.0,-52.0,127.0,76.0,-1.0,-14.0,1
-205.0,-52.0,134.0,75.0,-1.0,-14.0,1
-204.0,-53.0,134.0,76.0,-2.0,-14.0,1
-203.0,-53.0,130.0,76.0,-2.0,-16.0,1
-200.0,-56.0,134.0,74.0,-3.0,-16.0,1
-200.0,-53.0,135.0,73.0,-3.0,-15.0,1
-202.0,-49.0,136.0,71.0,-5.0,-14.0,1
-203.0,-55.0,131.0,69.0,-6.0,-14.0,1
-201.0,-52.0,134.0,67.0,-6.0,-12.0,1
-203.0,-50.0,134.0,64.0,-5.0,-11.0,1
-198.0,-51.0,131.0,63.0,-6.0,-9.0,1
-206.0,-49.0,132.0,62.0,-5.0,-9.0,1
-202.0,-51.0,135.0,61.0,-5.0,-9.0,1
-203.0,-54.0,131.0,62.0,-1.0,-8.0,1
