ax,ay,az,gx,gy,gz,label
-8.0,-256.0,-4.0,11.0,3.0,0.0,1
-9.0,-255.0,-4.0,16.0,11.0,-1.0,1
-9.0,-253.0,-5.0,18.0,20.0,0.0,1
-7.0,-255.0,-4.0,18.0,25.0,-2.0,1
-10.0,-252.0,1.0,15.0,30.0,-2.0,1
-6.0,-256.0,-3.0,14.0,31.0,-1.0,1
-5.0,-255.0,1.0,10.0,31.0,-1.0,1
-9.0,-255.0,6.0,6.0,29.0,-3.0,1
-8.0,-253.0,4.0,1.0,27.0,-8.0,1
-6.0,-254.0,9.0,-2.0,25.0,-11.0,1
-10.0,-248.0,11.0,-5.0,26.0,-13.0,1
-9.0,-252.0,15.0,-8.0,25.0,-16.0,1
-8.0,-255.0,18.0,-5.0,28.0,-21.0,1
-9.0,-255.0,19.0,5.0,32.0,-24.0,1
-9.0,-258.0,20.0,18.0,40.0,-25.0,1
-9.0,-259.0,20.0,29.0,40.0,-25.0,1
-10.0,-259.0,19.0,37.0,32.0,-29.0,1
-11.0,-254.0,24.0,40.0,17.0,-28.0,1
-17.0,-253.0,25.0,43.0,-4.0,-24.0,1
-17.0,-249.0,24.0,43.0,-28.0,-18.0,1
-22.0,-246.0,33.0,48.0,-61.0,-5.0,1
-14.0,-244.0,40.0,56.0,-94.0,13.0,1
-11.0,-241.0,41.0,60.0,-119.0,18.0,1
-12.0,-237.0,39.0,50.0,-137.0,10.0,1
-5.0,-227.0,24.0,21.0,-169.0,5.0,1
-6.0,-216.0,16.0,-43.0,-208.0,7.0,1
1.0,-201.0,6.0,-139.0,-256.0,15.0,1
3.0,-196.0,-6.0,-285.0,-300.0,10.0,1
-6.0,-197.0,-11.0,-474.0,-333.0,-4.0,1
-11.0,-213.0,-19.0,-653.0,-347.0,-12.0,1
-13.0,-236.0,-28.0,-784.0,-320.0,-30.0,1
-15.0,-256.0,-24.0,-863.0,-234.0,-55.0,1
-13.0,-272.0,-23.0,-881.0,-139.0,-84.0,1
-5.0,-288.0,-19.0,-821.0,-48.0,-107.0,1
5.0,-303.0,-13.0,-698.0,21.0,-124.0,1
22.0,-308.0,-8.0,-532.0,63.0,-125.0,1
31.0,-309.0,3.0,-367.0,81.0,-120.0,1
33.0,-299.0,4.0,-235.0,79.0,-111.0,1
31.0,-284.0,9.0,-155.0,69.0,-111.0,1
28.0,-271.0,11.0,-119.0,76.0,-109.0,1
26.0,-256.0,10.0,-114.0,101.0,-107.0,1
23.0,-245.0,8.0,-135.0,137.0,-99.0,1
24.0,-233.0,4.0,-191.0,187.0,-89.0,1
22.0,-227.0,-5.0,-255.0,222.0,-76.0,1
21.0,-225.0,-12.0,-320.0,249.0,-64.0,1
19.0,-228.0,-15.0,-370.0,275.0,-49.0,1
17.0,-233.0,-12.0,-391.0,298.0,-41.0,1
18.0,-238.0,-16.0,-383.0,319.0,-26.0,1
17.0,-246.0,-16.0,-355.0,340.0,-12.0,1
18.0,-252.0,-17.0,-316.0,360.0,7.0,1
19.0,-255.0,-15.0,-274.0,376.0,24.0,1
16.0,-260.0,-20.0,-234.0,387.0,41.0,1
17.0,-263.0,-20.0,-200.0,396.0,52.0,1
13.0,-258.0,-16.0,-173.0,401.0,68.0,1
9.0,-259.0,-15.0,-165.0,403.0,76.0,1
10.0,-257.0,-11.0,-163.0,402.0,85.0,1
4.0,-256.0,-13.0,-163.0,402.0,84.0,1
3.0,-253.0,-12.0,-165.0,406.0,85.0,1
2.0,-253.0,-14.0,-172.0,416.0,80.0,1
4.0,-251.0,-14.0,-185.0,431.0,79.0,1
0.0,-252.0,-11.0,-203.0,446.0,72.0,1
-3.0,-251.0,-13.0,-216.0,454.0,70.0,1
-2.0,-255.0,-16.0,-223.0,455.0,61.0,1
-2.0,-254.0,-17.0,-237.0,463.0,51.0,1
-6.0,-252.0,-15.0,-264.0,474.0,41.0,1
-3.0,-251.0,-14.0,-286.0,491.0,36.0,1
-9.0,-254.0,-4.0,-309.0,507.0,26.0,1
-6.0,-252.0,-8.0,-314.0,511.0,28.0,1
-6.0,-253.0,-7.0,-319.0,519.0,22.0,1
-6.0,-253.0,-3.0,-331.0,531.0,15.0,1
-8.0,-255.0,-4.0,-340.0,544.0,2.0,1
-9.0,-253.0,-4.0,-348.0,550.0,-5.0,1
-6.0,-254.0,-2.0,-358.0,547.0,-18.0,1
-7.0,-250.0,-7.0,-361.0,536.0,-22.0,1
-12.0,-249.0,6.0,-374.0,532.0,-33.0,1
-11.0,-249.0,1.0,-381.0,525.0,-28.0,1
-12.0,-250.0,2.0,-387.0,509.0,-27.0,1
-12.0,-251.0,6.0,-394.0,496.0,-24.0,1
-10.0,-249.0,2.0,-400.0,483.0,-31.0,1
-8.0,-248.0,-2.0,-410.0,469.0,-37.0,1
-10.0,-245.0,-2.0,-425.0,462.0,-39.0,1
-2.0,-247.0,-1.0,-438.0,462.0,-39.0,1
-5.0,-247.0,-4.0,-452.0,466.0,-53.0,1
-2.0,-251.0,1.0,-455.0,463.0,-42.0,1
8.0,-249.0,-5.0,-446.0,458.0,-26.0,1
9.0,-251.0,-8.0,-432.0,454.0,-28.0,1
17.0,-252.0,-10.0,-434.0,461.0,-58.0,1
12.0,-253.0,-10.0,-447.0,470.0,-95.0,1
3.0,-256.0,-9.0,-461.0,473.0,-111.0,1
8.0,-255.0,-4.0,-455.0,472.0,-89.0,1
12.0,-253.0,-2.0,-430.0,483.0,-80.0,1
8.0,-253.0,-2.0,-400.0,500.0,-82.0,1
8.0,-255.0,4.0,-372.0,515.0,-83.0,1
12.0,-255.0,-2.0,-353.0,521.0,-78.0,1
10.0,-252.0,3.0,-335.0,533.0,-86.0,1
14.0,-257.0,7.0,-338.0,540.0,-91.0,1
13.0,-255.0,3.0,-330.0,555.0,-109.0,1
11.0,-255.0,4.0,-310.0,563.0,-116.0,1
7.0,-254.0,4.0,-297.0,563.0,-117.0,1
8.0,-260.0,1.0,-286.0,554.0,-110.0,1
1.0,-254.0,-3.0,-280.0,544.0,-110.0,1
-2.0,-256.0,-7.0,-277.0,529.0,-108.0,1
-1.0,-256.0,-4.0,-272.0,511.0,-106.0,1
-2.0,-251.0,-4.0,-268.0,495.0,-99.0,1
-2.0,-248.0,-5.0,-262.0,476.0,-93.0,1
15.0,-254.0,-6.0,-252.0,456.0,-91.0,1
3.0,-243.0,-4.0,-239.0,452.0,-102.0,1
-2.0,-244.0,-3.0,-224.0,430.0,-103.0,1
3.0,-242.0,-3.0,-219.0,407.0,-90.0,1
3.0,-242.0,4.0,-218.0,385.0,-76.0,1
6.0,-243.0,-3.0,-212.0,367.0,-69.0,1
8.0,-243.0,-2.0,-203.0,352.0,-65.0,1
2.0,-236.0,2.0,-204.0,337.0,-60.0,1
9.0,-246.0,5.0,-211.0,316.0,-53.0,1
8.0,-242.0,6.0,-205.0,300.0,-54.0,1
9.0,-241.0,7.0,-189.0,290.0,-55.0,1
9.0,-244.0,3.0,-183.0,281.0,-45.0,1
12.0,-246.0,-1.0,-189.0,262.0,-30.0,1
15.0,-249.0,2.0,-182.0,237.0,-24.0,1
13.0,-249.0,1.0,-176.0,215.0,-23.0,1
16.0,-250.0,6.0,-179.0,187.0,-21.0,1
18.0,-255.0,0.0,-181.0,155.0,-19.0,1
16.0,-256.0,-1.0,-177.0,125.0,-18.0,1
23.0,-261.0,2.0,-168.0,94.0,-16.0,1
20.0,-264.0,5.0,-158.0,62.0,-10.0,1
18.0,-267.0,0.0,-147.0,28.0,-4.0,1
18.0,-269.0,5.0,-135.0,-9.0,5.0,1
18.0,-270.0,1.0,-118.0,-45.0,12.0,1
19.0,-273.0,0.0,-98.0,-82.0,25.0,1
23.0,-277.0,2.0,-71.0,-105.0,36.0,1
26.0,-276.0,6.0,-47.0,-127.0,47.0,1
29.0,-280.0,3.0,-23.0,-144.0,59.0,1
30.0,-280.0,9.0,-2.0,-159.0,74.0,1
40.0,-283.0,8.0,20.0,-171.0,87.0,1
41.0,-286.0,9.0,39.0,-182.0,99.0,1
44.0,-288.0,15.0,59.0,-190.0,109.0,1
45.0,-295.0,21.0,81.0,-198.0,125.0,1
48.0,-298.0,24.0,108.0,-201.0,136.0,1
47.0,-298.0,26.0,125.0,-200.0,143.0,1
48.0,-301.0,28.0,137.0,-197.0,145.0,1
38.0,-300.0,31.0,144.0,-193.0,148.0,1
38.0,-300.0,31.0,149.0,-187.0,149.0,1
33.0,-298.0,32.0,149.0,-180.0,153.0,1
31.0,-294.0,26.0,142.0,-176.0,155.0,1
19.0,-290.0,19.0,129.0,-177.0,158.0,1
13.0,-289.0,9.0,108.0,-191.0,157.0,1
11.0,-300.0,0.0,87.0,-218.0,156.0,1
22.0,-314.0,-14.0,86.0,-251.0,138.0,1
24.0,-328.0,-20.0,91.0,-273.0,121.0,1
32.0,-354.0,-36.0,76.0,-293.0,100.0,1
38.0,-386.0,-51.0,13.0,-314.0,83.0,1
43.0,-403.0,-61.0,-75.0,-326.0,47.0,1
43.0,-413.0,-68.0,-164.0,-319.0,2.0,1
34.0,-403.0,-67.0,-208.0,-283.0,-43.0,1
17.0,-375.0,-58.0,-177.0,-222.0,-67.0,1
2.0,-351.0,-55.0,-85.0,-142.0,-76.0,1
-10.0,-316.0,-51.0,13.0,-60.0,-59.0,1
-12.0,-284.0,-42.0,81.0,8.0,-31.0,1
-17.0,-258.0,-31.0,119.0,63.0,-2.0,1
-20.0,-237.0,-26.0,136.0,100.0,16.0,1
-25.0,-225.0,-24.0,144.0,114.0,37.0,1
-22.0,-222.0,-23.0,144.0,101.0,52.0,1
-22.0,-221.0,-22.0,142.0,68.0,68.0,1
-24.0,-223.0,-20.0,149.0,22.0,76.0,1
-26.0,-218.0,-24.0,158.0,-39.0,87.0,1
-30.0,-218.0,-32.0,164.0,-116.0,95.0,1
-33.0,-217.0,-39.0,162.0,-205.0,101.0,1
-35.0,-215.0,-55.0,143.0,-295.0,99.0,1
-41.0,-208.0,-59.0,110.0,-373.0,94.0,1
-40.0,-209.0,-73.0,64.0,-437.0,72.0,1
-40.0,-201.0,-84.0,17.0,-491.0,40.0,1
-46.0,-195.0,-93.0,-38.0,-540.0,10.0,1
-48.0,-192.0,-100.0,-75.0,-575.0,-14.0,1
-56.0,-180.0,-97.0,-102.0,-602.0,-34.0,1
-58.0,-182.0,-104.0,-117.0,-632.0,-39.0,1
-62.0,-181.0,-103.0,-114.0,-658.0,-37.0,1
-60.0,-194.0,-105.0,-107.0,-673.0,-23.0,1
-55.0,-206.0,-99.0,-103.0,-676.0,-20.0,1
-51.0,-215.0,-98.0,-100.0,-661.0,-15.0,1
-47.0,-234.0,-90.0,-110.0,-623.0,-13.0,1
-38.0,-248.0,-86.0,-119.0,-569.0,-9.0,1
-35.0,-263.0,-70.0,-118.0,-482.0,-11.0,1
-33.0,-276.0,-67.0,-95.0,-407.0,-9.0,1
-30.0,-279.0,-58.0,-54.0,-343.0,-11.0,1
-26.0,-273.0,-55.0,-10.0,-298.0,-7.0,1
-23.0,-270.0,-56.0,42.0,-262.0,-1.0,1
-23.0,-267.0,-51.0,98.0,-239.0,6.0,1
-20.0,-260.0,-54.0,152.0,-226.0,10.0,1
-19.0,-252.0,-55.0,192.0,-220.0,21.0,1
-17.0,-243.0,-54.0,218.0,-219.0,30.0,1
-12.0,-237.0,-54.0,230.0,-220.0,43.0,1
-14.0,-237.0,-55.0,234.0,-222.0,61.0,1
-9.0,-236.0,-52.0,217.0,-219.0,86.0,1
-3.0,-239.0,-50.0,201.0,-211.0,109.0,1
-2.0,-240.0,-52.0,176.0,-193.0,130.0,1
-1.0,-241.0,-52.0,147.0,-166.0,139.0,1
0.0,-244.0,-53.0,117.0,-133.0,151.0,1
4.0,-243.0,-53.0,91.0,-99.0,158.0,1
4.0,-242.0,-49.0,72.0,-63.0,159.0,1
1.0,-238.0,-53.0,56.0,-24.0,152.0,1
-3.0,-233.0,-47.0,36.0,11.0,148.0,1
-9.0,-227.0,-48.0,13.0,44.0,141.0,1
-10.0,-221.0,-48.0,-10.0,81.0,143.0,1
-14.0,-215.0,-45.0,-39.0,103.0,150.0,1
-18.0,-210.0,-48.0,-49.0,117.0,165.0,1
-26.0,-207.0,-44.0,-64.0,125.0,174.0,1
-27.0,-206.0,-47.0,-77.0,126.0,186.0,1
-28.0,-205.0,-51.0,-100.0,130.0,190.0,1
-27.0,-210.0,-48.0,-132.0,140.0,193.0,1
-26.0,-216.0,-47.0,-165.0,147.0,184.0,1
-28.0,-213.0,-44.0,-193.0,153.0,170.0,1
-34.0,-219.0,-43.0,-221.0,156.0,164.0,1
-40.0,-222.0,-33.0,-237.0,153.0,178.0,1
-29.0,-230.0,-38.0,-228.0,145.0,200.0,1
-27.0,-233.0,-35.0,-218.0,154.0,200.0,1
-29.0,-238.0,-41.0,-221.0,170.0,186.0,1
-31.0,-241.0,-33.0,-222.0,190.0,172.0,1
-36.0,-240.0,-28.0,-205.0,208.0,177.0,1
-29.0,-246.0,-30.0,-163.0,223.0,194.0,1
-29.0,-241.0,-31.0,-115.0,244.0,201.0,1
-28.0,-242.0,-32.0,-80.0,262.0,203.0,1
-30.0,-242.0,-35.0,-60.0,275.0,197.0,1
-29.0,-238.0,-36.0,-55.0,287.0,184.0,1
-35.0,-245.0,-31.0,-62.0,292.0,168.0,1
-25.0,-236.0,-33.0,-77.0,294.0,155.0,1
-28.0,-233.0,-25.0,-89.0,298.0,141.0,1
-29.0,-236.0,-25.0,-94.0,295.0,131.0,1
-32.0,-237.0,-21.0,-93.0,290.0,126.0,1
-34.0,-240.0,-17.0,-87.0,286.0,126.0,1
-30.0,-242.0,-15.0,-85.0,283.0,121.0,1
-29.0,-246.0,-13.0,-85.0,285.0,110.0,1
-25.0,-251.0,-10.0,-85.0,285.0,97.0,1
-29.0,-249.0,-5.0,-84.0,287.0,82.0,1
-28.0,-253.0,0.0,-84.0,290.0,65.0,1
-27.0,-253.0,-1.0,-82.0,296.0,49.0,1
-27.0,-253.0,-1.0,-82.0,307.0,29.0,1
-24.0,-249.0,0.0,-82.0,318.0,10.0,1
-23.0,-252.0,5.0,-78.0,333.0,-6.0,1
-26.0,-253.0,9.0,-75.0,349.0,-21.0,1
-26.0,-251.0,6.0,-70.0,362.0,-35.0,1
-26.0,-250.0,8.0,-67.0,377.0,-47.0,1
-26.0,-247.0,8.0,-64.0,388.0,-58.0,1
-21.0,-250.0,4.0,-62.0,398.0,-71.0,1
-19.0,-253.0,4.0,-58.0,406.0,-82.0,1
-16.0,-259.0,7.0,-51.0,411.0,-97.0,1
-12.0,-263.0,1.0,-35.0,413.0,-113.0,1
-9.0,-267.0,2.0,-19.0,417.0,-130.0,1
-6.0,-272.0,1.0,0.0,419.0,-146.0,1
-4.0,-276.0,-1.0,24.0,421.0,-166.0,1
-1.0,-276.0,-3.0,48.0,421.0,-183.0,1
-3.0,-278.0,-4.0,72.0,426.0,-201.0,1
-1.0,-281.0,-6.0,98.0,437.0,-218.0,1
-3.0,-277.0,-7.0,123.0,450.0,-236.0,1
-7.0,-278.0,-7.0,149.0,465.0,-247.0,1
-9.0,-277.0,-7.0,180.0,486.0,-260.0,1
-10.0,-278.0,-5.0,219.0,501.0,-265.0,1
-12.0,-274.0,-1.0,252.0,517.0,-265.0,1
-19.0,-273.0,-1.0,287.0,530.0,-258.0,1
-27.0,-274.0,5.0,320.0,542.0,-246.0,1
-30.0,-274.0,7.0,351.0,549.0,-226.0,1
-33.0,-277.0,14.0,380.0,551.0,-203.0,1
-31.0,-283.0,15.0,403.0,549.0,-175.0,1
-30.0,-283.0,25.0,415.0,539.0,-154.0,1
-31.0,-279.0,26.0,420.0,523.0,-133.0,1
-32.0,-278.0,23.0,417.0,503.0,-117.0,1
-30.0,-279.0,34.0,406.0,475.0,-102.0,1
-26.0,-284.0,39.0,390.0,452.0,-85.0,1
-32.0,-300.0,41.0,382.0,438.0,-47.0,1
-42.0,-322.0,24.0,381.0,435.0,14.0,1
-55.0,-353.0,8.0,359.0,429.0,91.0,1
-52.0,-382.0,-19.0,303.0,420.0,157.0,1
-47.0,-402.0,-36.0,216.0,414.0,207.0,1
-32.0,-414.0,-67.0,109.0,418.0,228.0,1
-13.0,-415.0,-87.0,-8.0,426.0,231.0,1
-12.0,-406.0,-88.0,-99.0,440.0,211.0,1
-19.0,-379.0,-79.0,-111.0,428.0,166.0,1
-36.0,-347.0,-83.0,-21.0,379.0,129.0,1
-46.0,-306.0,-85.0,103.0,306.0,111.0,1
-53.0,-266.0,-92.0,231.0,229.0,92.0,1
-45.0,-230.0,-98.0,326.0,160.0,73.0,1
-35.0,-194.0,-113.0,363.0,118.0,54.0,1
-28.0,-170.0,-114.0,339.0,101.0,49.0,1
-19.0,-156.0,-115.0,290.0,114.0,51.0,1
-4.0,-159.0,-117.0,246.0,166.0,71.0,1
9.0,-172.0,-120.0,226.0,258.0,96.0,1
20.0,-190.0,-117.0,229.0,381.0,119.0,1
24.0,-202.0,-116.0,249.0,556.0,127.0,1
27.0,-226.0,-112.0,259.0,700.0,141.0,1
28.0,-240.0,-108.0,253.0,828.0,149.0,1
25.0,-255.0,-100.0,228.0,927.0,159.0,1
21.0,-265.0,-86.0,190.0,988.0,164.0,1
12.0,-271.0,-76.0,138.0,1006.0,166.0,1
2.0,-277.0,-64.0,83.0,986.0,157.0,1
-7.0,-277.0,-58.0,40.0,926.0,147.0,1
-13.0,-269.0,-54.0,3.0,842.0,124.0,1
-28.0,-266.0,-41.0,-24.0,735.0,99.0,1
-41.0,-254.0,-43.0,-25.0,587.0,62.0,1
-53.0,-245.0,-37.0,-11.0,457.0,26.0,1
-62.0,-234.0,-35.0,19.0,332.0,-11.0,1
-65.0,-221.0,-35.0,57.0,221.0,-37.0,1
-68.0,-207.0,-42.0,93.0,136.0,-61.0,1
-65.0,-200.0,-42.0,114.0,87.0,-72.0,1
-61.0,-199.0,-50.0,123.0,67.0,-80.0,1
-54.0,-196.0,-48.0,120.0,68.0,-89.0,1
-47.0,-196.0,-48.0,109.0,83.0,-103.0,1
-40.0,-197.0,-51.0,90.0,106.0,-114.0,1
-32.0,-197.0,-51.0,63.0,140.0,-130.0,1
-22.0,-199.0,-53.0,12.0,170.0,-142.0,1
-21.0,-204.0,-50.0,-38.0,196.0,-161.0,1
-14.0,-206.0,-48.0,-84.0,217.0,-176.0,1
-11.0,-212.0,-44.0,-128.0,231.0,-189.0,1
-10.0,-214.0,-42.0,-160.0,232.0,-191.0,1
-8.0,-216.0,-42.0,-179.0,226.0,-190.0,1
-7.0,-215.0,-36.0,-192.0,211.0,-180.0,1
-10.0,-217.0,-33.0,-194.0,186.0,-170.0,1
-9.0,-221.0,-30.0,-181.0,151.0,-156.0,1
-12.0,-219.0,-29.0,-159.0,105.0,-144.0,1
-11.0,-225.0,-29.0,-122.0,62.0,-132.0,1
-12.0,-221.0,-25.0,-90.0,16.0,-125.0,1
-12.0,-224.0,-26.0,-62.0,-26.0,-117.0,1
-15.0,-219.0,-32.0,-47.0,-66.0,-115.0,1
-13.0,-218.0,-33.0,-40.0,-104.0,-116.0,1
-11.0,-219.0,-33.0,-45.0,-142.0,-124.0,1
-12.0,-215.0,-33.0,-58.0,-185.0,-131.0,1
-10.0,-214.0,-34.0,-78.0,-232.0,-143.0,1
-7.0,-211.0,-36.0,-103.0,-279.0,-150.0,1
0.0,-221.0,-38.0,-124.0,-319.0,-152.0,1
1.0,-222.0,-36.0,-136.0,-354.0,-143.0,1
2.0,-226.0,-36.0,-136.0,-364.0,-134.0,1
6.0,-228.0,-34.0,-122.0,-365.0,-122.0,1
9.0,-233.0,-31.0,-101.0,-358.0,-110.0,1
14.0,-233.0,-35.0,-78.0,-348.0,-96.0,1
16.0,-238.0,-28.0,-60.0,-336.0,-85.0,1
18.0,-237.0,-27.0,-48.0,-320.0,-74.0,1
17.0,-239.0,-18.0,-42.0,-309.0,-66.0,1
19.0,-241.0,-18.0,-34.0,-299.0,-58.0,1
18.0,-246.0,-14.0,-24.0,-289.0,-46.0,1
16.0,-244.0,-11.0,-12.0,-283.0,-26.0,1
20.0,-249.0,-8.0,6.0,-278.0,-10.0,1
15.0,-243.0,-6.0,23.0,-274.0,10.0,1
15.0,-253.0,-3.0,41.0,-270.0,29.0,1
15.0,-259.0,-1.0,64.0,-272.0,41.0,1
18.0,-260.0,0.0,80.0,-279.0,52.0,1
12.0,-260.0,1.0,87.0,-282.0,77.0,1
13.0,-263.0,6.0,86.0,-289.0,109.0,1
15.0,-266.0,7.0,85.0,-296.0,136.0,1
11.0,-268.0,4.0,83.0,-309.0,152.0,1
12.0,-267.0,5.0,84.0,-329.0,162.0,1
7.0,-268.0,7.0,79.0,-360.0,164.0,1
8.0,-268.0,5.0,81.0,-385.0,162.0,1
9.0,-263.0,2.0,81.0,-406.0,160.0,1
11.0,-265.0,0.0,78.0,-421.0,161.0,1
12.0,-265.0,0.0,67.0,-428.0,159.0,1
11.0,-266.0,-2.0,52.0,-432.0,152.0,1
12.0,-269.0,-5.0,34.0,-433.0,140.0,1
14.0,-273.0,-11.0,19.0,-423.0,129.0,1
13.0,-276.0,-3.0,7.0,-412.0,121.0,1
18.0,-281.0,-6.0,-2.0,-401.0,109.0,1
19.0,-284.0,-9.0,-8.0,-383.0,93.0,1
23.0,-293.0,-6.0,-15.0,-369.0,83.0,1
22.0,-301.0,-5.0,-14.0,-352.0,72.0,1
28.0,-306.0,5.0,-1.0,-336.0,57.0,1
27.0,-310.0,10.0,21.0,-322.0,39.0,1
29.0,-310.0,10.0,49.0,-307.0,20.0,1
30.0,-310.0,19.0,82.0,-293.0,2.0,1
33.0,-310.0,30.0,122.0,-280.0,-15.0,1
30.0,-305.0,37.0,168.0,-269.0,-33.0,1
25.0,-306.0,46.0,224.0,-261.0,-56.0,1
15.0,-303.0,55.0,299.0,-268.0,-112.0,1
3.0,-293.0,59.0,392.0,-291.0,-141.0,1
-11.0,-302.0,62.0,465.0,-320.0,-126.0,1
-10.0,-313.0,61.0,554.0,-365.0,-116.0,1
-10.0,-332.0,44.0,639.0,-403.0,-123.0,1
-9.0,-360.0,23.0,679.0,-431.0,-134.0,1
1.0,-384.0,-7.0,654.0,-446.0,-142.0,1
17.0,-394.0,-43.0,576.0,-423.0,-163.0,1
27.0,-395.0,-83.0,469.0,-339.0,-195.0,1
21.0,-386.0,-99.0,323.0,-209.0,-251.0,1
16.0,-364.0,-98.0,147.0,-76.0,-315.0,1
13.0,-347.0,-90.0,20.0,75.0,-383.0,1
10.0,-323.0,-69.0,-11.0,178.0,-419.0,1
10.0,-305.0,-60.0,45.0,259.0,-434.0,1
5.0,-279.0,-58.0,126.0,319.0,-432.0,1
-1.0,-256.0,-59.0,201.0,370.0,-419.0,1
-13.0,-229.0,-70.0,261.0,407.0,-379.0,1
-26.0,-209.0,-72.0,293.0,424.0,-331.0,1
-30.0,-196.0,-79.0,299.0,396.0,-276.0,1
-45.0,-178.0,-79.0,297.0,322.0,-239.0,1
-64.0,-165.0,-66.0,281.0,195.0,-202.0,1
-76.0,-165.0,-65.0,266.0,25.0,-169.0,1
-94.0,-160.0,-63.0,278.0,-205.0,-139.0,1
-104.0,-164.0,-69.0,284.0,-414.0,-112.0,1
-107.0,-169.0,-72.0,274.0,-603.0,-93.0,1
-108.0,-186.0,-75.0,244.0,-744.0,-93.0,1
-99.0,-201.0,-80.0,200.0,-823.0,-103.0,1
-93.0,-217.0,-78.0,138.0,-846.0,-131.0,1
-89.0,-230.0,-71.0,45.0,-829.0,-158.0,1
-75.0,-240.0,-64.0,-73.0,-792.0,-177.0,1
-66.0,-249.0,-53.0,-194.0,-748.0,-172.0,1
-50.0,-259.0,-42.0,-283.0,-700.0,-156.0,1
-43.0,-261.0,-37.0,-326.0,-650.0,-124.0,1
-30.0,-260.0,-37.0,-320.0,-617.0,-95.0,1
-24.0,-259.0,-33.0,-280.0,-586.0,-61.0,1
-12.0,-256.0,-32.0,-222.0,-558.0,-30.0,1
-7.0,-254.0,-35.0,-160.0,-533.0,2.0,1
-1.0,-252.0,-36.0,-104.0,-506.0,28.0,1
3.0,-247.0,-42.0,-58.0,-478.0,59.0,1
8.0,-243.0,-49.0,-28.0,-452.0,85.0,1
9.0,-244.0,-58.0,-13.0,-432.0,113.0,1
14.0,-241.0,-56.0,-14.0,-411.0,131.0,1
19.0,-235.0,-56.0,-31.0,-391.0,147.0,1
23.0,-232.0,-55.0,-63.0,-362.0,147.0,1
20.0,-226.0,-56.0,-95.0,-330.0,145.0,1
24.0,-220.0,-53.0,-126.0,-287.0,135.0,1
20.0,-211.0,-46.0,-147.0,-231.0,131.0,1
18.0,-210.0,-37.0,-162.0,-169.0,126.0,1
18.0,-210.0,-37.0,-168.0,-103.0,133.0,1
17.0,-208.0,-26.0,-171.0,-42.0,139.0,1
10.0,-210.0,-23.0,-177.0,12.0,154.0,1
11.0,-217.0,-19.0,-190.0,57.0,164.0,1
10.0,-220.0,-16.0,-206.0,89.0,178.0,1
10.0,-228.0,-16.0,-227.0,117.0,183.0,1
6.0,-227.0,-14.0,-252.0,136.0,187.0,1
5.0,-233.0,-10.0,-269.0,153.0,185.0,1
1.0,-237.0,-7.0,-269.0,170.0,176.0,1
6.0,-245.0,-11.0,-258.0,194.0,148.0,1
3.0,-254.0,-18.0,-240.0,238.0,111.0,1
-4.0,-248.0,-20.0,-229.0,305.0,65.0,1
-8.0,-244.0,-17.0,-214.0,365.0,41.0,1
-12.0,-233.0,-18.0,-191.0,416.0,27.0,1
-14.0,-229.0,-16.0,-157.0,461.0,31.0,1
-21.0,-223.0,-15.0,-121.0,509.0,38.0,1
-24.0,-221.0,-15.0,-83.0,553.0,52.0,1
-27.0,-222.0,-15.0,-63.0,584.0,59.0,1
-36.0,-221.0,-8.0,-51.0,600.0,76.0,1
-42.0,-225.0,-10.0,-43.0,601.0,85.0,1
-47.0,-222.0,-9.0,-47.0,593.0,97.0,1
-53.0,-226.0,-1.0,-52.0,579.0,100.0,1
-56.0,-232.0,3.0,-57.0,563.0,98.0,1
-61.0,-233.0,8.0,-62.0,543.0,85.0,1
-60.0,-235.0,9.0,-63.0,523.0,69.0,1
-61.0,-238.0,9.0,-64.0,502.0,47.0,1
-57.0,-239.0,16.0,-64.0,482.0,22.0,1
-52.0,-242.0,15.0,-61.0,466.0,-3.0,1
-49.0,-238.0,20.0,-57.0,452.0,-20.0,1
-43.0,-240.0,24.0,-51.0,438.0,-38.0,1
-40.0,-238.0,25.0,-43.0,425.0,-52.0,1
-33.0,-237.0,24.0,-32.0,412.0,-64.0,1
-30.0,-240.0,22.0,-27.0,401.0,-75.0,1
-29.0,-237.0,21.0,-18.0,389.0,-88.0,1
-29.0,-241.0,16.0,-11.0,375.0,-96.0,1
-27.0,-244.0,9.0,-6.0,355.0,-107.0,1
-30.0,-244.0,9.0,-3.0,326.0,-121.0,1
-26.0,-250.0,5.0,-7.0,304.0,-137.0,1
-24.0,-249.0,4.0,-9.0,284.0,-155.0,1
-21.0,-251.0,3.0,-13.0,273.0,-179.0,1
-18.0,-254.0,6.0,-12.0,265.0,-204.0,1
-12.0,-252.0,3.0,-10.0,262.0,-232.0,1
-11.0,-256.0,8.0,-6.0,259.0,-256.0,1
-12.0,-259.0,6.0,3.0,249.0,-279.0,1
-13.0,-259.0,4.0,14.0,234.0,-294.0,1
-18.0,-262.0,0.0,14.0,219.0,-301.0,1
-27.0,-267.0,2.0,-4.0,204.0,-291.0,1
-32.0,-271.0,0.0,-37.0,187.0,-279.0,1
-38.0,-279.0,4.0,-61.0,172.0,-254.0,1
-41.0,-290.0,6.0,-74.0,163.0,-229.0,1
-34.0,-302.0,8.0,-74.0,162.0,-192.0,1
-31.0,-315.0,17.0,-62.0,162.0,-161.0,1
-28.0,-324.0,29.0,-27.0,163.0,-136.0,1
-20.0,-328.0,37.0,28.0,163.0,-118.0,1
-15.0,-325.0,48.0,97.0,156.0,-105.0,1
-10.0,-322.0,57.0,173.0,147.0,-98.0,1
-2.0,-309.0,71.0,249.0,140.0,-94.0,1
2.0,-298.0,81.0,320.0,135.0,-90.0,1
13.0,-290.0,90.0,393.0,140.0,-87.0,1
19.0,-285.0,90.0,436.0,150.0,-82.0,1
43.0,-285.0,98.0,458.0,159.0,-69.0,1
51.0,-305.0,86.0,496.0,200.0,-46.0,1
22.0,-343.0,67.0,566.0,265.0,14.0,1
6.0,-373.0,44.0,625.0,292.0,106.0,1
-5.0,-415.0,6.0,610.0,298.0,210.0,1
-2.0,-439.0,-49.0,474.0,317.0,304.0,1
0.0,-444.0,-103.0,221.0,360.0,349.0,1
-25.0,-417.0,-131.0,-93.0,399.0,343.0,1
-57.0,-377.0,-129.0,-412.0,359.0,318.0,1
-79.0,-327.0,-120.0,-500.0,246.0,280.0,1
-85.0,-291.0,-120.0,-445.0,72.0,227.0,1
-91.0,-235.0,-123.0,-346.0,-98.0,172.0,1
-88.0,-188.0,-132.0,-277.0,-205.0,170.0,1
-72.0,-151.0,-133.0,-241.0,-260.0,198.0,1
-51.0,-131.0,-144.0,-226.0,-270.0,233.0,1
-28.0,-118.0,-143.0,-219.0,-249.0,259.0,1
-11.0,-123.0,-135.0,-220.0,-190.0,279.0,1
5.0,-156.0,-121.0,-213.0,-99.0,300.0,1
19.0,-192.0,-113.0,-164.0,41.0,314.0,1
19.0,-232.0,-99.0,-54.0,164.0,323.0,1
20.0,-265.0,-89.0,30.0,295.0,336.0,1
18.0,-292.0,-83.0,82.0,420.0,353.0,1
13.0,-308.0,-72.0,103.0,519.0,359.0,1
12.0,-318.0,-60.0,106.0,576.0,348.0,1
7.0,-310.0,-50.0,99.0,585.0,321.0,1
5.0,-298.0,-45.0,80.0,548.0,285.0,1
1.0,-290.0,-40.0,51.0,466.0,240.0,1
-7.0,-270.0,-39.0,17.0,351.0,192.0,1
-12.0,-252.0,-35.0,-20.0,219.0,126.0,1
-21.0,-235.0,-36.0,-60.0,64.0,73.0,1
-39.0,-215.0,-37.0,-90.0,-48.0,19.0,1
-51.0,-205.0,-40.0,-114.0,-151.0,-13.0,1
-62.0,-195.0,-35.0,-125.0,-235.0,-38.0,1
-75.0,-191.0,-40.0,-124.0,-308.0,-54.0,1
-76.0,-193.0,-41.0,-116.0,-373.0,-64.0,1
-80.0,-189.0,-47.0,-111.0,-428.0,-66.0,1
-77.0,-193.0,-50.0,-115.0,-469.0,-77.0,1
-78.0,-196.0,-49.0,-129.0,-499.0,-83.0,1
-77.0,-195.0,-55.0,-139.0,-521.0,-92.0,1
-72.0,-196.0,-54.0,-158.0,-539.0,-104.0,1
-63.0,-199.0,-53.0,-189.0,-555.0,-117.0,1
-58.0,-198.0,-53.0,-220.0,-574.0,-119.0,1
-45.0,-202.0,-54.0,-239.0,-576.0,-131.0,1
-37.0,-197.0,-52.0,-258.0,-566.0,-149.0,1
-31.0,-197.0,-52.0,-277.0,-557.0,-169.0,1
-24.0,-204.0,-44.0,-283.0,-536.0,-164.0,1
-21.0,-209.0,-40.0,-270.0,-511.0,-153.0,1
-13.0,-207.0,-44.0,-259.0,-498.0,-134.0,1
-12.0,-207.0,-38.0,-260.0,-493.0,-127.0,1
-7.0,-210.0,-40.0,-286.0,-497.0,-119.0,1
-12.0,-213.0,-35.0,-336.0,-516.0,-116.0,1
-5.0,-217.0,-32.0,-370.0,-550.0,-96.0,1
2.0,-223.0,-30.0,-393.0,-585.0,-66.0,1
7.0,-230.0,-28.0,-406.0,-616.0,-45.0,1
8.0,-233.0,-32.0,-414.0,-650.0,-52.0,1
16.0,-237.0,-35.0,-419.0,-683.0,-68.0,1
18.0,-237.0,-38.0,-418.0,-712.0,-103.0,1
33.0,-238.0,-37.0,-415.0,-729.0,-132.0,1
23.0,-241.0,-35.0,-414.0,-719.0,-180.0,1
18.0,-248.0,-34.0,-411.0,-723.0,-195.0,1
15.0,-244.0,-30.0,-392.0,-739.0,-181.0,1
21.0,-250.0,-29.0,-367.0,-754.0,-164.0,1
30.0,-252.0,-31.0,-334.0,-755.0,-151.0,1
30.0,-253.0,-30.0,-301.0,-740.0,-153.0,1
31.0,-253.0,-27.0,-280.0,-720.0,-168.0,1
34.0,-254.0,-25.0,-262.0,-698.0,-171.0,1
36.0,-255.0,-17.0,-245.0,-666.0,-169.0,1
35.0,-255.0,-18.0,-225.0,-636.0,-161.0,1
34.0,-255.0,-12.0,-206.0,-602.0,-151.0,1
36.0,-259.0,-9.0,-187.0,-566.0,-136.0,1
38.0,-258.0,-5.0,-167.0,-520.0,-123.0,1
34.0,-257.0,3.0,-157.0,-480.0,-105.0,1
31.0,-258.0,6.0,-144.0,-442.0,-80.0,1
30.0,-258.0,10.0,-123.0,-411.0,-46.0,1
25.0,-258.0,17.0,-102.0,-389.0,-15.0,1
23.0,-260.0,17.0,-83.0,-372.0,18.0,1
20.0,-260.0,19.0,-67.0,-358.0,39.0,1
17.0,-260.0,22.0,-55.0,-348.0,62.0,1
14.0,-262.0,19.0,-46.0,-338.0,79.0,1
12.0,-265.0,19.0,-39.0,-331.0,98.0,1
9.0,-264.0,16.0,-35.0,-324.0,113.0,1
9.0,-264.0,15.0,-28.0,-312.0,127.0,1
14.0,-264.0,10.0,-25.0,-297.0,134.0,1
15.0,-262.0,8.0,-20.0,-283.0,142.0,1
19.0,-263.0,3.0,-13.0,-261.0,140.0,1
24.0,-265.0,3.0,-11.0,-233.0,135.0,1
31.0,-266.0,4.0,-9.0,-201.0,120.0,1
38.0,-268.0,-2.0,-3.0,-168.0,105.0,1
41.0,-271.0,-6.0,8.0,-131.0,81.0,1
46.0,-282.0,-5.0,21.0,-90.0,61.0,1
42.0,-286.0,-11.0,29.0,-50.0,37.0,1
40.0,-294.0,-12.0,31.0,-5.0,17.0,1
41.0,-305.0,-15.0,33.0,30.0,-3.0,1
33.0,-311.0,-10.0,35.0,60.0,-16.0,1
29.0,-313.0,-4.0,42.0,85.0,-35.0,1
26.0,-315.0,2.0,65.0,107.0,-45.0,1
19.0,-311.0,9.0,99.0,127.0,-59.0,1
11.0,-305.0,19.0,143.0,142.0,-64.0,1
0.0,-298.0,29.0,195.0,148.0,-68.0,1
-9.0,-284.0,39.0,253.0,145.0,-61.0,1
-20.0,-277.0,47.0,314.0,132.0,-53.0,1
-37.0,-276.0,54.0,372.0,97.0,-44.0,1
-54.0,-283.0,53.0,449.0,31.0,-50.0,1
-50.0,-293.0,45.0,515.0,-66.0,-53.0,1
-47.0,-316.0,29.0,567.0,-162.0,-55.0,1
-30.0,-347.0,5.0,576.0,-249.0,-50.0,1
-22.0,-373.0,-27.0,525.0,-315.0,-55.0,1
-12.0,-386.0,-66.0,416.0,-357.0,-72.0,1
1.0,-383.0,-106.0,255.0,-340.0,-110.0,1
18.0,-375.0,-117.0,70.0,-251.0,-166.0,1
28.0,-351.0,-117.0,-75.0,-115.0,-243.0,1
37.0,-332.0,-108.0,-118.0,37.0,-324.0,1
43.0,-308.0,-99.0,-49.0,200.0,-375.0,1
46.0,-283.0,-104.0,43.0,315.0,-410.0,1
34.0,-262.0,-109.0,116.0,417.0,-438.0,1
6.0,-244.0,-115.0,160.0,499.0,-448.0,1
-18.0,-223.0,-127.0,172.0,548.0,-433.0,1
-40.0,-206.0,-124.0,171.0,554.0,-404.0,1
-65.0,-196.0,-121.0,173.0,515.0,-392.0,1
-83.0,-183.0,-114.0,177.0,431.0,-381.0,1
-102.0,-175.0,-109.0,185.0,306.0,-354.0,1
-115.0,-179.0,-100.0,196.0,148.0,-297.0,1
-122.0,-200.0,-89.0,216.0,-75.0,-246.0,1
-129.0,-220.0,-77.0,237.0,-259.0,-202.0,1
-133.0,-242.0,-73.0,252.0,-427.0,-178.0,1
-128.0,-257.0,-71.0,245.0,-571.0,-165.0,1
-122.0,-260.0,-65.0,208.0,-695.0,-161.0,1
-105.0,-257.0,-60.0,150.0,-793.0,-159.0,1
-78.0,-254.0,-55.0,81.0,-861.0,-152.0,1
-52.0,-251.0,-43.0,13.0,-884.0,-135.0,1
-25.0,-241.0,-40.0,-42.0,-863.0,-115.0,1
-4.0,-237.0,-32.0,-60.0,-789.0,-79.0,1
9.0,-231.0,-30.0,-54.0,-680.0,-42.0,1
28.0,-225.0,-33.0,-58.0,-597.0,-33.0,1
38.0,-222.0,-36.0,-77.0,-506.0,-21.0,1
40.0,-216.0,-45.0,-105.0,-419.0,-6.0,1
46.0,-216.0,-46.0,-133.0,-345.0,2.0,1
46.0,-218.0,-55.0,-167.0,-285.0,14.0,1
45.0,-222.0,-59.0,-214.0,-235.0,36.0,1
45.0,-227.0,-63.0,-253.0,-180.0,65.0,1
49.0,-230.0,-67.0,-276.0,-121.0,89.0,1
46.0,-227.0,-69.0,-277.0,-61.0,107.0,1
46.0,-227.0,-72.0,-260.0,-3.0,122.0,1
42.0,-225.0,-71.0,-229.0,57.0,131.0,1
36.0,-222.0,-71.0,-206.0,98.0,135.0,1
28.0,-220.0,-64.0,-185.0,127.0,139.0,1
23.0,-215.0,-63.0,-166.0,148.0,142.0,1
18.0,-219.0,-56.0,-151.0,169.0,145.0,1
10.0,-221.0,-50.0,-138.0,190.0,155.0,1
13.0,-227.0,-41.0,-126.0,213.0,164.0,1
8.0,-227.0,-37.0,-112.0,239.0,172.0,1
7.0,-234.0,-37.0,-102.0,269.0,168.0,1
6.0,-235.0,-30.0,-105.0,308.0,150.0,1
-1.0,-238.0,-24.0,-125.0,358.0,129.0,1
-3.0,-234.0,-21.0,-141.0,401.0,121.0,1
-3.0,-235.0,-12.0,-148.0,442.0,120.0,1
-5.0,-239.0,-17.0,-147.0,485.0,126.0,1
-7.0,-237.0,-14.0,-139.0,536.0,130.0,1
-11.0,-235.0,-18.0,-115.0,585.0,130.0,1
-13.0,-233.0,-17.0,-96.0,638.0,131.0,1
-26.0,-235.0,-16.0,-82.0,689.0,138.0,1
-30.0,-236.0,-18.0,-61.0,730.0,145.0,1
-37.0,-235.0,-21.0,-30.0,751.0,153.0,1
-41.0,-233.0,-21.0,-5.0,762.0,156.0,1
-41.0,-239.0,-18.0,-7.0,765.0,156.0,1
-42.0,-236.0,-18.0,-22.0,762.0,155.0,1
-46.0,-238.0,-16.0,-38.0,751.0,155.0,1
-46.0,-244.0,-14.0,-49.0,733.0,155.0,1
-48.0,-250.0,-11.0,-52.0,711.0,154.0,1
-52.0,-254.0,-2.0,-49.0,688.0,155.0,1
-49.0,-256.0,6.0,-41.0,654.0,140.0,1
-50.0,-256.0,4.0,-29.0,620.0,114.0,1
-51.0,-251.0,8.0,-19.0,590.0,92.0,1
-48.0,-249.0,9.0,-2.0,561.0,68.0,1
-45.0,-244.0,12.0,20.0,541.0,54.0,1
-44.0,-240.0,14.0,43.0,523.0,39.0,1
-40.0,-237.0,17.0,63.0,504.0,25.0,1
-39.0,-234.0,14.0,79.0,487.0,3.0,1
-33.0,-233.0,13.0,90.0,473.0,-15.0,1
-33.0,-233.0,10.0,101.0,458.0,-35.0,1
-35.0,-229.0,10.0,111.0,444.0,-53.0,1
-35.0,-231.0,11.0,120.0,428.0,-71.0,1
-37.0,-232.0,8.0,127.0,407.0,-87.0,1
-38.0,-235.0,6.0,126.0,382.0,-114.0,1
-38.0,-240.0,0.0,119.0,348.0,-135.0,1
-39.0,-239.0,2.0,117.0,319.0,-158.0,1
-39.0,-240.0,4.0,114.0,291.0,-176.0,1
-39.0,-241.0,-5.0,116.0,266.0,-197.0,1
-42.0,-238.0,-8.0,120.0,241.0,-212.0,1
-44.0,-237.0,-10.0,126.0,217.0,-227.0,1
-43.0,-239.0,-15.0,131.0,196.0,-228.0,1
-45.0,-240.0,-22.0,132.0,180.0,-228.0,1
-45.0,-244.0,-20.0,129.0,168.0,-222.0,1
-41.0,-254.0,-14.0,131.0,162.0,-214.0,1
-39.0,-264.0,-11.0,145.0,160.0,-199.0,1
-34.0,-275.0,-4.0,168.0,160.0,-186.0,1
-30.0,-285.0,2.0,191.0,158.0,-164.0,1
-22.0,-293.0,15.0,209.0,150.0,-142.0,1
-14.0,-307.0,26.0,221.0,133.0,-118.0,1
-13.0,-305.0,33.0,237.0,105.0,-96.0,1
-13.0,-299.0,46.0,261.0,66.0,-69.0,1
-12.0,-294.0,54.0,289.0,25.0,-51.0,1
-9.0,-281.0,63.0,317.0,-10.0,-31.0,1
-11.0,-275.0,70.0,345.0,-36.0,-21.0,1
-11.0,-267.0,82.0,376.0,-55.0,-6.0,1
-10.0,-261.0,92.0,420.0,-57.0,0.0,1
-9.0,-265.0,101.0,458.0,-51.0,11.0,1
14.0,-270.0,97.0,472.0,-52.0,23.0,1
39.0,-293.0,97.0,473.0,-47.0,39.0,1
28.0,-331.0,95.0,519.0,-20.0,67.0,1
2.0,-378.0,68.0,604.0,-26.0,141.0,1
-14.0,-405.0,32.0,663.0,-69.0,247.0,1
-22.0,-429.0,-38.0,623.0,-94.0,367.0,1
-34.0,-438.0,-100.0,450.0,-47.0,453.0,1
-45.0,-423.0,-142.0,184.0,52.0,503.0,1
-75.0,-390.0,-150.0,-130.0,183.0,504.0,1
-89.0,-355.0,-135.0,-237.0,194.0,504.0,1
-85.0,-323.0,-125.0,-185.0,94.0,482.0,1
-86.0,-278.0,-123.0,-68.0,-37.0,454.0,1
-76.0,-254.0,-119.0,34.0,-156.0,424.0,1
-58.0,-215.0,-128.0,85.0,-240.0,405.0,1
-36.0,-188.0,-124.0,94.0,-287.0,386.0,1
-9.0,-163.0,-124.0,99.0,-313.0,376.0,1
18.0,-158.0,-127.0,105.0,-305.0,371.0,1
46.0,-167.0,-127.0,111.0,-255.0,365.0,1
59.0,-190.0,-118.0,100.0,-143.0,346.0,1
62.0,-212.0,-115.0,82.0,-23.0,331.0,1
68.0,-235.0,-104.0,59.0,95.0,330.0,1
68.0,-264.0,-97.0,20.0,214.0,351.0,1
67.0,-287.0,-86.0,-37.0,324.0,367.0,1
58.0,-300.0,-76.0,-100.0,420.0,377.0,1
46.0,-309.0,-60.0,-150.0,487.0,363.0,1
33.0,-312.0,-52.0,-160.0,510.0,333.0,1
19.0,-300.0,-45.0,-129.0,483.0,280.0,1
5.0,-289.0,-48.0,-83.0,425.0,217.0,1
-10.0,-272.0,-52.0,-33.0,332.0,126.0,1
-27.0,-252.0,-53.0,1.0,250.0,51.0,1
-42.0,-237.0,-53.0,18.0,173.0,-22.0,1
-59.0,-223.0,-53.0,19.0,105.0,-79.0,1
-76.0,-209.0,-47.0,2.0,46.0,-128.0,1
-87.0,-199.0,-45.0,-31.0,-7.0,-158.0,1
-99.0,-195.0,-45.0,-77.0,-54.0,-173.0,1
-97.0,-196.0,-43.0,-125.0,-101.0,-174.0,1
-99.0,-195.0,-38.0,-170.0,-149.0,-171.0,1
-94.0,-197.0,-39.0,-207.0,-193.0,-170.0,1
-85.0,-202.0,-32.0,-237.0,-242.0,-175.0,1
-79.0,-203.0,-32.0,-255.0,-271.0,-184.0,1
-66.0,-204.0,-31.0,-259.0,-300.0,-203.0,1
-54.0,-204.0,-30.0,-253.0,-321.0,-219.0,1
-48.0,-203.0,-31.0,-246.0,-340.0,-238.0,1
-36.0,-205.0,-27.0,-238.0,-358.0,-250.0,1
-21.0,-209.0,-27.0,-231.0,-377.0,-264.0,1
-14.0,-204.0,-25.0,-234.0,-395.0,-271.0,1
-8.0,-204.0,-26.0,-245.0,-413.0,-276.0,1
-3.0,-205.0,-25.0,-267.0,-429.0,-277.0,1
2.0,-209.0,-24.0,-298.0,-447.0,-271.0,1
0.0,-210.0,-25.0,-341.0,-469.0,-263.0,1
5.0,-211.0,-23.0,-373.0,-492.0,-256.0,1
0.0,-214.0,-23.0,-401.0,-519.0,-244.0,1
5.0,-215.0,-22.0,-421.0,-546.0,-228.0,1
3.0,-217.0,-22.0,-434.0,-573.0,-209.0,1
4.0,-224.0,-22.0,-438.0,-602.0,-196.0,1
2.0,-225.0,-24.0,-441.0,-634.0,-186.0,1
5.0,-228.0,-26.0,-442.0,-665.0,-176.0,1
6.0,-232.0,-29.0,-437.0,-696.0,-170.0,1
6.0,-235.0,-27.0,-429.0,-722.0,-175.0,1
5.0,-234.0,-30.0,-425.0,-752.0,-180.0,1
12.0,-240.0,-30.0,-420.0,-768.0,-185.0,1
17.0,-245.0,-29.0,-410.0,-774.0,-187.0,1
22.0,-245.0,-28.0,-393.0,-770.0,-182.0,1
28.0,-249.0,-26.0,-370.0,-761.0,-179.0,1
35.0,-253.0,-24.0,-344.0,-750.0,-179.0,1
39.0,-253.0,-21.0,-318.0,-733.0,-178.0,1
39.0,-254.0,-22.0,-292.0,-704.0,-168.0,1
42.0,-257.0,-16.0,-264.0,-672.0,-151.0,1
45.0,-253.0,-14.0,-236.0,-636.0,-140.0,1
42.0,-256.0,-8.0,-212.0,-588.0,-127.0,1
46.0,-255.0,0.0,-183.0,-548.0,-115.0,1
42.0,-256.0,0.0,-156.0,-505.0,-99.0,1
39.0,-255.0,6.0,-126.0,-460.0,-81.0,1
36.0,-255.0,12.0,-96.0,-419.0,-62.0,1
34.0,-259.0,16.0,-64.0,-380.0,-42.0,1
27.0,-255.0,16.0,-31.0,-348.0,-18.0,1
25.0,-255.0,19.0,2.0,-323.0,8.0,1
20.0,-253.0,24.0,32.0,-302.0,35.0,1
15.0,-253.0,24.0,63.0,-291.0,63.0,1
12.0,-254.0,25.0,88.0,-283.0,90.0,1
10.0,-253.0,23.0,111.0,-278.0,111.0,1
8.0,-254.0,22.0,127.0,-275.0,128.0,1
6.0,-253.0,19.0,140.0,-272.0,145.0,1
3.0,-255.0,21.0,150.0,-268.0,157.0,1
2.0,-252.0,18.0,157.0,-272.0,164.0,1
1.0,-251.0,16.0,145.0,-284.0,162.0,1
11.0,-256.0,13.0,100.0,-307.0,154.0,1
14.0,-262.0,11.0,81.0,-299.0,145.0,1
15.0,-266.0,8.0,88.0,-260.0,146.0,1
19.0,-269.0,3.0,92.0,-226.0,134.0,1
17.0,-273.0,1.0,77.0,-198.0,118.0,1
13.0,-276.0,-3.0,45.0,-192.0,98.0,1
10.0,-282.0,-5.0,2.0,-196.0,83.0,1
9.0,-291.0,0.0,-32.0,-198.0,71.0,1
5.0,-299.0,0.0,-51.0,-197.0,62.0,1
2.0,-302.0,9.0,-54.0,-196.0,51.0,1
0.0,-309.0,12.0,-43.0,-193.0,44.0,1
-2.0,-314.0,18.0,-20.0,-191.0,33.0,1
2.0,-316.0,24.0,13.0,-188.0,25.0,1
0.0,-315.0,38.0,55.0,-181.0,12.0,1
-4.0,-314.0,50.0,112.0,-167.0,-5.0,1
-2.0,-304.0,54.0,190.0,-152.0,-22.0,1
-4.0,-295.0,62.0,245.0,-146.0,-35.0,1
-6.0,-284.0,69.0,298.0,-142.0,-48.0,1
-10.0,-274.0,73.0,345.0,-141.0,-55.0,1
-11.0,-273.0,78.0,382.0,-148.0,-62.0,1
-21.0,-270.0,77.0,404.0,-170.0,-60.0,1
-32.0,-281.0,70.0,430.0,-226.0,-60.0,1
-28.0,-295.0,66.0,474.0,-307.0,-64.0,1
-19.0,-324.0,38.0,507.0,-366.0,-78.0,1
-13.0,-354.0,0.0,470.0,-406.0,-89.0,1
2.0,-392.0,-41.0,273.0,-409.0,-99.0,1
11.0,-393.0,-81.0,0.0,-353.0,-131.0,1
34.0,-402.0,-118.0,-326.0,-229.0,-201.0,1
40.0,-386.0,-124.0,-563.0,-45.0,-297.0,1
50.0,-344.0,-111.0,-613.0,124.0,-369.0,1
50.0,-308.0,-96.0,-493.0,229.0,-393.0,1
55.0,-266.0,-93.0,-284.0,279.0,-391.0,1
47.0,-233.0,-109.0,-88.0,305.0,-379.0,1
26.0,-200.0,-113.0,35.0,329.0,-372.0,1
8.0,-187.0,-119.0,91.0,354.0,-351.0,1
-25.0,-161.0,-127.0,103.0,358.0,-328.0,1
-52.0,-153.0,-125.0,90.0,330.0,-292.0,1
-72.0,-155.0,-124.0,70.0,267.0,-263.0,1
-81.0,-161.0,-119.0,54.0,165.0,-231.0,1
-94.0,-179.0,-110.0,47.0,32.0,-211.0,1
-102.0,-208.0,-97.0,38.0,-121.0,-188.0,1
-104.0,-234.0,-88.0,42.0,-271.0,-163.0,1
-104.0,-262.0,-76.0,57.0,-404.0,-130.0,1
-92.0,-284.0,-74.0,69.0,-514.0,-103.0,1
-76.0,-300.0,-66.0,61.0,-598.0,-66.0,1
-55.0,-301.0,-61.0,17.0,-657.0,-41.0,1
-35.0,-296.0,-52.0,-31.0,-674.0,-15.0,1
-19.0,-283.0,-45.0,-65.0,-666.0,2.0,1
-2.0,-276.0,-42.0,-79.0,-631.0,22.0,1
8.0,-265.0,-34.0,-62.0,-571.0,28.0,1
21.0,-256.0,-33.0,-31.0,-501.0,31.0,1
37.0,-245.0,-33.0,8.0,-422.0,28.0,1
50.0,-240.0,-33.0,54.0,-339.0,28.0,1
59.0,-236.0,-38.0,91.0,-258.0,26.0,1
66.0,-232.0,-49.0,112.0,-172.0,30.0,1
67.0,-233.0,-52.0,120.0,-67.0,27.0,1
70.0,-229.0,-57.0,103.0,23.0,39.0,1
69.0,-217.0,-57.0,64.0,109.0,50.0,1
68.0,-225.0,-55.0,-3.0,185.0,75.0,1
62.0,-222.0,-61.0,-59.0,251.0,99.0,1
53.0,-222.0,-56.0,-104.0,306.0,127.0,1
45.0,-222.0,-57.0,-145.0,353.0,152.0,1
30.0,-220.0,-55.0,-172.0,385.0,177.0,1
17.0,-218.0,-58.0,-184.0,408.0,190.0,1
10.0,-217.0,-58.0,-181.0,424.0,204.0,1
3.0,-218.0,-55.0,-180.0,437.0,217.0,1
-6.0,-216.0,-53.0,-191.0,442.0,226.0,1
-9.0,-219.0,-48.0,-206.0,437.0,218.0,1
-12.0,-217.0,-46.0,-217.0,423.0,203.0,1
-14.0,-219.0,-41.0,-225.0,405.0,171.0,1
-14.0,-227.0,-42.0,-229.0,393.0,152.0,1
-12.0,-227.0,-35.0,-242.0,401.0,129.0,1
-12.0,-234.0,-30.0,-258.0,429.0,108.0,1
-14.0,-235.0,-27.0,-258.0,469.0,95.0,1
-13.0,-235.0,-24.0,-243.0,521.0,93.0,1
-21.0,-231.0,-23.0,-227.0,575.0,87.0,1
-23.0,-231.0,-21.0,-221.0,636.0,86.0,1
-27.0,-229.0,-25.0,-223.0,674.0,85.0,1
-29.0,-227.0,-21.0,-216.0,702.0,105.0,1
-38.0,-228.0,-19.0,-194.0,723.0,128.0,1
-44.0,-229.0,-13.0,-155.0,735.0,165.0,1
-46.0,-235.0,-15.0,-102.0,729.0,195.0,1
-50.0,-235.0,-16.0,-47.0,719.0,207.0,1
-50.0,-239.0,-14.0,-5.0,700.0,199.0,1
-53.0,-245.0,-19.0,26.0,678.0,183.0,1
-53.0,-243.0,-16.0,37.0,657.0,156.0,1
-55.0,-240.0,-11.0,36.0,634.0,141.0,1
-51.0,-238.0,-4.0,33.0,608.0,122.0,1
-53.0,-240.0,0.0,26.0,578.0,106.0,1
-49.0,-239.0,6.0,23.0,545.0,87.0,1
-48.0,-240.0,10.0,22.0,512.0,72.0,1
-41.0,-242.0,11.0,27.0,476.0,56.0,1
-34.0,-247.0,18.0,37.0,446.0,40.0,1
-32.0,-245.0,20.0,48.0,420.0,19.0,1
-23.0,-245.0,17.0,58.0,394.0,1.0,1
-22.0,-250.0,18.0,64.0,377.0,-25.0,1
-23.0,-247.0,14.0,60.0,357.0,-58.0,1
-21.0,-248.0,16.0,62.0,345.0,-83.0,1
-20.0,-244.0,12.0,66.0,330.0,-105.0,1
-21.0,-242.0,12.0,67.0,319.0,-133.0,1
-22.0,-242.0,12.0,73.0,306.0,-155.0,1
-28.0,-239.0,13.0,80.0,287.0,-173.0,1
-30.0,-243.0,13.0,92.0,266.0,-186.0,1
-36.0,-243.0,10.0,102.0,238.0,-195.0,1
-38.0,-243.0,11.0,111.0,207.0,-201.0,1
-39.0,-245.0,9.0,121.0,173.0,-208.0,1
-37.0,-243.0,8.0,131.0,131.0,-215.0,1
-35.0,-243.0,1.0,138.0,104.0,-220.0,1
-34.0,-241.0,1.0,141.0,77.0,-219.0,1
-36.0,-238.0,-1.0,145.0,54.0,-218.0,1
-39.0,-236.0,-3.0,150.0,38.0,-208.0,1
-41.0,-243.0,-6.0,156.0,32.0,-190.0,1
-40.0,-248.0,-9.0,158.0,38.0,-161.0,1
-37.0,-256.0,-12.0,146.0,46.0,-135.0,1
-34.0,-261.0,-12.0,123.0,57.0,-112.0,1
-31.0,-268.0,3.0,100.0,73.0,-91.0,1
-26.0,-277.0,12.0,93.0,90.0,-70.0,1
-16.0,-281.0,23.0,120.0,102.0,-44.0,1
-10.0,-285.0,33.0,161.0,102.0,-34.0,1
-7.0,-289.0,41.0,214.0,94.0,-20.0,1
2.0,-283.0,55.0,275.0,82.0,1.0,1
4.0,-279.0,61.0,335.0,69.0,20.0,1
10.0,-272.0,69.0,388.0,65.0,33.0,1
14.0,-265.0,74.0,430.0,67.0,44.0,1
-3.0,-263.0,82.0,464.0,77.0,57.0,1
25.0,-262.0,92.0,489.0,69.0,103.0,1
55.0,-268.0,74.0,538.0,57.0,157.0,1
50.0,-291.0,57.0,559.0,138.0,190.0,1
17.0,-336.0,37.0,524.0,186.0,258.0,1
-11.0,-385.0,-2.0,443.0,191.0,342.0,1
-22.0,-425.0,-62.0,316.0,222.0,429.0,1
-38.0,-448.0,-133.0,136.0,325.0,489.0,1
-56.0,-452.0,-172.0,-86.0,489.0,525.0,1
-55.0,-448.0,-177.0,-267.0,625.0,552.0,1
-50.0,-430.0,-151.0,-347.0,644.0,514.0,1
-52.0,-394.0,-129.0,-299.0,490.0,433.0,1
-51.0,-348.0,-121.0,-161.0,263.0,365.0,1
-40.0,-293.0,-125.0,12.0,17.0,338.0,1
-23.0,-235.0,-120.0,105.0,-121.0,335.0,1
0.0,-195.0,-122.0,153.0,-204.0,352.0,1
28.0,-166.0,-123.0,181.0,-237.0,374.0,1
56.0,-159.0,-120.0,203.0,-221.0,388.0,1
70.0,-166.0,-120.0,229.0,-160.0,384.0,1
84.0,-194.0,-116.0,249.0,-58.0,363.0,1
86.0,-226.0,-111.0,257.0,78.0,331.0,1
85.0,-257.0,-105.0,247.0,250.0,308.0,1
79.0,-277.0,-92.0,232.0,435.0,289.0,1
67.0,-293.0,-77.0,214.0,652.0,277.0,1
53.0,-301.0,-69.0,181.0,809.0,272.0,1
42.0,-302.0,-61.0,138.0,930.0,267.0,1
34.0,-298.0,-53.0,77.0,1014.0,253.0,1
12.0,-285.0,-55.0,9.0,1055.0,230.0,1
0.0,-277.0,-46.0,-58.0,1044.0,195.0,1
-16.0,-261.0,-40.0,-113.0,986.0,155.0,1
-34.0,-247.0,-40.0,-147.0,880.0,96.0,1
-46.0,-230.0,-36.0,-166.0,748.0,33.0,1
-57.0,-217.0,-37.0,-190.0,608.0,-29.0,1
-67.0,-206.0,-41.0,-210.0,446.0,-90.0,1
-75.0,-202.0,-39.0,-238.0,326.0,-127.0,1
-83.0,-201.0,-38.0,-258.0,216.0,-143.0,1
-92.0,-200.0,-40.0,-267.0,114.0,-156.0,1
-96.0,-203.0,-35.0,-272.0,24.0,-159.0,1
-100.0,-206.0,-38.0,-274.0,-59.0,-164.0,1
-100.0,-207.0,-32.0,-262.0,-134.0,-162.0,1
-98.0,-210.0,-35.0,-247.0,-196.0,-159.0,1
-93.0,-210.0,-32.0,-237.0,-240.0,-147.0,1
-89.0,-212.0,-32.0,-226.0,-272.0,-141.0,1
-79.0,-213.0,-28.0,-212.0,-296.0,-136.0,1
-71.0,-215.0,-26.0,-197.0,-316.0,-140.0,1
-55.0,-215.0,-26.0,-182.0,-326.0,-140.0,1
-43.0,-211.0,-25.0,-166.0,-327.0,-145.0,1
-32.0,-207.0,-19.0,-151.0,-320.0,-144.0,1
-18.0,-210.0,-21.0,-134.0,-302.0,-144.0,1
-13.0,-207.0,-16.0,-112.0,-275.0,-137.0,1
-6.0,-207.0,-17.0,-90.0,-249.0,-130.0,1
3.0,-202.0,-20.0,-78.0,-226.0,-117.0,1
11.0,-203.0,-22.0,-98.0,-223.0,-105.0,1
18.0,-205.0,-23.0,-140.0,-241.0,-96.0,1
20.0,-205.0,-25.0,-196.0,-275.0,-95.0,1
20.0,-202.0,-24.0,-240.0,-314.0,-90.0,1
19.0,-206.0,-24.0,-285.0,-357.0,-87.0,1
23.0,-212.0,-21.0,-324.0,-400.0,-76.0,1
25.0,-217.0,-18.0,-346.0,-438.0,-73.0,1
22.0,-222.0,-18.0,-349.0,-467.0,-77.0,1
15.0,-225.0,-15.0,-342.0,-496.0,-98.0,1
11.0,-232.0,-13.0,-321.0,-523.0,-112.0,1
8.0,-232.0,-18.0,-292.0,-544.0,-124.0,1
8.0,-236.0,-16.0,-262.0,-561.0,-126.0,1
10.0,-239.0,-20.0,-229.0,-569.0,-129.0,1
16.0,-239.0,-20.0,-188.0,-562.0,-128.0,1
22.0,-237.0,-21.0,-157.0,-542.0,-130.0,1
29.0,-235.0,-14.0,-127.0,-512.0,-128.0,1
29.0,-239.0,-15.0,-104.0,-479.0,-128.0,1
32.0,-240.0,-13.0,-78.0,-447.0,-126.0,1
37.0,-240.0,-4.0,-59.0,-423.0,-119.0,1
33.0,-243.0,0.0,-40.0,-401.0,-106.0,1
32.0,-248.0,1.0,-18.0,-381.0,-96.0,1
31.0,-249.0,7.0,7.0,-363.0,-83.0,1
30.0,-249.0,8.0,29.0,-341.0,-69.0,1
26.0,-250.0,8.0,52.0,-321.0,-48.0,1
24.0,-245.0,10.0,68.0,-298.0,-31.0,1
26.0,-244.0,11.0,78.0,-275.0,-10.0,1
23.0,-237.0,15.0,85.0,-257.0,5.0,1
19.0,-233.0,12.0,90.0,-241.0,23.0,1
15.0,-230.0,14.0,96.0,-226.0,38.0,1
16.0,-230.0,14.0,103.0,-216.0,61.0,1
16.0,-230.0,14.0,110.0,-209.0,81.0,1
17.0,-232.0,18.0,120.0,-206.0,104.0,1
16.0,-229.0,16.0,133.0,-204.0,121.0,1
17.0,-236.0,11.0,145.0,-205.0,141.0,1
18.0,-240.0,15.0,160.0,-204.0,151.0,1
19.0,-246.0,11.0,179.0,-202.0,160.0,1
21.0,-250.0,8.0,190.0,-192.0,162.0,1
22.0,-256.0,5.0,189.0,-177.0,167.0,1
25.0,-263.0,6.0,175.0,-156.0,168.0,1
26.0,-267.0,0.0,156.0,-131.0,170.0,1
23.0,-278.0,3.0,129.0,-106.0,167.0,1
17.0,-283.0,-1.0,99.0,-78.0,162.0,1
15.0,-291.0,1.0,76.0,-53.0,147.0,1
8.0,-296.0,2.0,60.0,-29.0,137.0,1
6.0,-303.0,7.0,59.0,-18.0,123.0,1
2.0,-305.0,11.0,69.0,-14.0,112.0,1
-4.0,-309.0,15.0,92.0,-21.0,96.0,1
-9.0,-309.0,21.0,122.0,-31.0,79.0,1
-9.0,-312.0,24.0,155.0,-45.0,57.0,1
-10.0,-312.0,31.0,197.0,-63.0,37.0,1
-12.0,-313.0,38.0,245.0,-82.0,12.0,1
-11.0,-311.0,48.0,297.0,-99.0,-5.0,1
-9.0,-305.0,56.0,345.0,-114.0,-29.0,1
-10.0,-301.0,65.0,403.0,-130.0,-43.0,1
-6.0,-291.0,73.0,447.0,-138.0,-54.0,1
-9.0,-278.0,87.0,482.0,-147.0,-58.0,1
-8.0,-276.0,94.0,511.0,-156.0,-70.0,1
-9.0,-267.0,104.0,533.0,-175.0,-74.0,1
-22.0,-263.0,103.0,535.0,-206.0,-73.0,1
-41.0,-266.0,97.0,477.0,-275.0,-51.0,1
-35.0,-295.0,91.0,405.0,-390.0,-35.0,1
-20.0,-334.0,64.0,415.0,-456.0,-61.0,1
-5.0,-380.0,18.0,437.0,-455.0,-113.0,1
12.0,-414.0,-27.0,367.0,-423.0,-198.0,1
40.0,-436.0,-77.0,207.0,-389.0,-261.0,1
64.0,-433.0,-117.0,-14.0,-338.0,-317.0,1
75.0,-421.0,-127.0,-251.0,-253.0,-389.0,1
76.0,-395.0,-120.0,-426.0,-130.0,-458.0,1
72.0,-362.0,-92.0,-465.0,20.0,-514.0,1
64.0,-328.0,-72.0,-371.0,189.0,-543.0,1
55.0,-289.0,-69.0,-219.0,365.0,-565.0,1
44.0,-255.0,-71.0,-66.0,533.0,-566.0,1
27.0,-222.0,-75.0,49.0,676.0,-538.0,1
-4.0,-193.0,-78.0,107.0,803.0,-485.0,1
-25.0,-179.0,-80.0,117.0,828.0,-407.0,1
-36.0,-178.0,-77.0,119.0,785.0,-320.0,1
-59.0,-180.0,-77.0,143.0,707.0,-258.0,1
-87.0,-182.0,-75.0,159.0,592.0,-205.0,1
-99.0,-193.0,-78.0,141.0,415.0,-141.0,1
-104.0,-205.0,-81.0,107.0,226.0,-87.0,1
-112.0,-218.0,-82.0,62.0,51.0,-51.0,1
-102.0,-234.0,-77.0,3.0,-119.0,-42.0,1
-92.0,-240.0,-72.0,-41.0,-252.0,-47.0,1
-79.0,-248.0,-62.0,-61.0,-361.0,-54.0,1
-62.0,-251.0,-63.0,-69.0,-426.0,-63.0,1
-44.0,-260.0,-56.0,-67.0,-465.0,-75.0,1
-29.0,-260.0,-56.0,-57.0,-485.0,-92.0,1
-12.0,-262.0,-52.0,-47.0,-485.0,-104.0,1
-1.0,-260.0,-50.0,-39.0,-463.0,-102.0,1
8.0,-256.0,-47.0,-34.0,-426.0,-83.0,1
9.0,-252.0,-44.0,-27.0,-370.0,-50.0,1
13.0,-246.0,-43.0,-18.0,-306.0,-19.0,1
16.0,-240.0,-41.0,-7.0,-243.0,3.0,1
22.0,-238.0,-38.0,0.0,-176.0,27.0,1
27.0,-240.0,-35.0,17.0,-93.0,48.0,1
36.0,-240.0,-34.0,40.0,-21.0,66.0,1
43.0,-245.0,-36.0,62.0,49.0,76.0,1
25.0,-250.0,-52.0,76.0,113.0,81.0,1
33.0,-254.0,-42.0,77.0,174.0,83.0,1
47.0,-253.0,-39.0,67.0,234.0,83.0,1
43.0,-250.0,-39.0,51.0,294.0,86.0,1
37.0,-250.0,-40.0,41.0,354.0,89.0,1
37.0,-247.0,-32.0,33.0,415.0,94.0,1
30.0,-245.0,-28.0,34.0,470.0,102.0,1
21.0,-243.0,-22.0,43.0,523.0,108.0,1
14.0,-238.0,-13.0,59.0,554.0,116.0,1
9.0,-233.0,-8.0,85.0,575.0,126.0,1
0.0,-226.0,-6.0,120.0,585.0,134.0,1
-7.0,-221.0,-3.0,154.0,585.0,143.0,1
-12.0,-219.0,8.0,177.0,579.0,149.0,1
-14.0,-215.0,4.0,180.0,566.0,157.0,1
-12.0,-212.0,-1.0,161.0,555.0,157.0,1
-21.0,-208.0,-2.0,122.0,544.0,153.0,1
-17.0,-210.0,0.0,71.0,538.0,142.0,1
-19.0,-214.0,-4.0,0.0,539.0,130.0,1
-16.0,-215.0,-9.0,-52.0,547.0,118.0,1
-15.0,-217.0,-10.0,-92.0,561.0,108.0,1
-12.0,-218.0,-14.0,-113.0,581.0,102.0,1
-12.0,-219.0,-13.0,-117.0,604.0,101.0,1
-12.0,-218.0,-11.0,-97.0,629.0,102.0,1
-12.0,-218.0,-17.0,-61.0,655.0,108.0,1
-12.0,-220.0,-18.0,-26.0,679.0,115.0,1
-11.0,-218.0,-20.0,8.0,702.0,126.0,1
-12.0,-218.0,-27.0,26.0,726.0,130.0,1
-13.0,-216.0,-27.0,26.0,757.0,135.0,1
-19.0,-217.0,-29.0,-4.0,782.0,131.0,1
-23.0,-220.0,-27.0,-51.0,802.0,128.0,1
-25.0,-222.0,-30.0,-106.0,817.0,116.0,1
-27.0,-225.0,-28.0,-150.0,832.0,97.0,1
-32.0,-225.0,-25.0,-175.0,850.0,66.0,1
-39.0,-235.0,-23.0,-171.0,868.0,39.0,1
-41.0,-239.0,-21.0,-140.0,882.0,11.0,1
-46.0,-246.0,-17.0,-91.0,894.0,-8.0,1
-44.0,-251.0,-9.0,-31.0,897.0,-25.0,1
-46.0,-251.0,-6.0,26.0,883.0,-35.0,1
-46.0,-254.0,0.0,93.0,858.0,-46.0,1
-43.0,-256.0,2.0,141.0,822.0,-55.0,1
-46.0,-254.0,8.0,176.0,780.0,-70.0,1
-42.0,-255.0,9.0,196.0,742.0,-80.0,1
-38.0,-254.0,15.0,207.0,711.0,-100.0,1
-36.0,-256.0,19.0,207.0,681.0,-123.0,1
-35.0,-253.0,25.0,203.0,647.0,-156.0,1
-37.0,-253.0,26.0,191.0,605.0,-184.0,1
-44.0,-250.0,24.0,163.0,557.0,-208.0,1
-45.0,-251.0,24.0,119.0,497.0,-210.0,1
-53.0,-257.0,15.0,50.0,412.0,-200.0,1
-59.0,-260.0,4.0,-24.0,333.0,-175.0,1
-65.0,-272.0,-4.0,-125.0,253.0,-149.0,1
-70.0,-282.0,-13.0,-242.0,181.0,-111.0,1
-66.0,-291.0,-9.0,-345.0,119.0,-76.0,1
-61.0,-303.0,-1.0,-408.0,63.0,-40.0,1
-53.0,-309.0,9.0,-414.0,1.0,-18.0,1
-38.0,-311.0,22.0,-359.0,-53.0,-2.0,1
-23.0,-316.0,28.0,-269.0,-90.0,4.0,1
-8.0,-318.0,37.0,-170.0,-99.0,22.0,1
9.0,-317.0,49.0,-58.0,-73.0,34.0,1
26.0,-317.0,52.0,25.0,-19.0,48.0,1
34.0,-312.0,47.0,101.0,65.0,49.0,1
47.0,-309.0,34.0,170.0,172.0,49.0,1
47.0,-308.0,21.0,220.0,280.0,47.0,1
42.0,-309.0,3.0,240.0,380.0,53.0,1
28.0,-318.0,-15.0,232.0,453.0,61.0,1
10.0,-323.0,-32.0,204.0,494.0,80.0,1
-8.0,-331.0,-45.0,134.0,507.0,102.0,1
-12.0,-346.0,-59.0,26.0,504.0,124.0,1
-25.0,-351.0,-62.0,-113.0,494.0,116.0,1
-30.0,-340.0,-66.0,-196.0,486.0,105.0,1
-26.0,-326.0,-65.0,-215.0,475.0,95.0,1
-18.0,-302.0,-72.0,-180.0,468.0,102.0,1
-11.0,-264.0,-79.0,-125.0,475.0,113.0,1
-4.0,-226.0,-90.0,-71.0,490.0,144.0,1
4.0,-186.0,-92.0,-32.0,510.0,177.0,1
15.0,-151.0,-86.0,-20.0,526.0,224.0,1
25.0,-125.0,-80.0,-28.0,534.0,269.0,1
31.0,-111.0,-71.0,-51.0,536.0,321.0,1
41.0,-104.0,-62.0,-99.0,546.0,380.0,1
52.0,-114.0,-56.0,-179.0,558.0,419.0,1
53.0,-134.0,-52.0,-312.0,571.0,429.0,1
47.0,-166.0,-52.0,-503.0,583.0,429.0,1
36.0,-211.0,-43.0,-730.0,585.0,417.0,1
21.0,-259.0,-46.0,-958.0,557.0,403.0,1
3.0,-309.0,-37.0,-1151.0,492.0,364.0,1
-11.0,-341.0,-38.0,-1290.0,394.0,308.0,1
-27.0,-379.0,-37.0,-1368.0,281.0,234.0,1
-40.0,-403.0,-35.0,-1369.0,167.0,161.0,1
-50.0,-414.0,-48.0,-1298.0,61.0,63.0,1
-54.0,-407.0,-45.0,-1129.0,17.0,-13.0,1
-55.0,-384.0,-44.0,-931.0,22.0,-86.0,1
-48.0,-347.0,-46.0,-714.0,73.0,-139.0,1
-45.0,-306.0,-41.0,-494.0,156.0,-173.0,1
-39.0,-279.0,-39.0,-284.0,246.0,-191.0,1
-36.0,-238.0,-39.0,-94.0,328.0,-199.0,1
-28.0,-204.0,-36.0,53.0,392.0,-197.0,1
-22.0,-175.0,-39.0,132.0,440.0,-199.0,1
-16.0,-152.0,-38.0,136.0,476.0,-200.0,1
-13.0,-136.0,-38.0,70.0,500.0,-209.0,1
-12.0,-130.0,-26.0,-71.0,499.0,-212.0,1
-15.0,-124.0,-24.0,-220.0,477.0,-217.0,1
-13.0,-128.0,-22.0,-379.0,437.0,-215.0,1
-17.0,-136.0,-17.0,-529.0,382.0,-211.0,1
-18.0,-150.0,-13.0,-652.0,312.0,-207.0,1
-18.0,-168.0,-19.0,-750.0,233.0,-207.0,1
-20.0,-190.0,-20.0,-813.0,150.0,-207.0,1
-18.0,-213.0,-26.0,-840.0,72.0,-213.0,1
-19.0,-236.0,-28.0,-837.0,7.0,-218.0,1
-21.0,-253.0,-29.0,-824.0,-59.0,-226.0,1
-17.0,-269.0,-31.0,-772.0,-116.0,-212.0,1
-12.0,-287.0,-21.0,-696.0,-182.0,-208.0,1
-10.0,-287.0,-15.0,-594.0,-255.0,-205.0,1
-9.0,-282.0,-11.0,-465.0,-328.0,-196.0,1
-9.0,-275.0,-10.0,-300.0,-390.0,-180.0,1
-12.0,-263.0,-1.0,-98.0,-439.0,-161.0,1
-9.0,-250.0,-1.0,97.0,-496.0,-139.0,1
-4.0,-245.0,0.0,259.0,-556.0,-118.0,1
-8.0,-227.0,-6.0,385.0,-610.0,-87.0,1
-10.0,-211.0,-15.0,463.0,-653.0,-41.0,1
-9.0,-205.0,-18.0,466.0,-700.0,-10.0,1
-5.0,-204.0,-19.0,416.0,-733.0,19.0,1
0.0,-208.0,-17.0,357.0,-759.0,56.0,1
5.0,-220.0,-14.0,297.0,-781.0,78.0,1
6.0,-227.0,-12.0,253.0,-804.0,89.0,1
7.0,-239.0,-20.0,238.0,-812.0,99.0,1
12.0,-250.0,-21.0,257.0,-788.0,117.0,1
16.0,-261.0,-21.0,309.0,-743.0,133.0,1
15.0,-273.0,-20.0,368.0,-690.0,147.0,1
20.0,-289.0,-28.0,426.0,-638.0,163.0,1
18.0,-307.0,-43.0,487.0,-578.0,173.0,1
7.0,-324.0,-50.0,505.0,-548.0,177.0,1
-1.0,-341.0,-59.0,488.0,-551.0,173.0,1
-11.0,-353.0,-64.0,437.0,-576.0,151.0,1
-17.0,-381.0,-73.0,369.0,-605.0,129.0,1
-31.0,-398.0,-87.0,294.0,-634.0,107.0,1
-31.0,-420.0,-96.0,197.0,-669.0,89.0,1
-31.0,-429.0,-106.0,104.0,-703.0,45.0,1
-40.0,-413.0,-105.0,24.0,-722.0,-47.0,1
-42.0,-373.0,-95.0,-32.0,-723.0,-153.0,1
-40.0,-331.0,-81.0,-40.0,-711.0,-269.0,1
-43.0,-266.0,-63.0,1.0,-704.0,-334.0,1
-44.0,-214.0,-52.0,69.0,-697.0,-348.0,1
-45.0,-167.0,-44.0,173.0,-686.0,-318.0,1
-45.0,-137.0,-42.0,292.0,-664.0,-256.0,1
-45.0,-108.0,-38.0,402.0,-629.0,-173.0,1
-47.0,-101.0,-38.0,451.0,-585.0,-71.0,1
-42.0,-105.0,-36.0,422.0,-545.0,43.0,1
-43.0,-127.0,-23.0,326.0,-536.0,128.0,1
-32.0,-146.0,-23.0,197.0,-550.0,205.0,1
-39.0,-183.0,-27.0,24.0,-615.0,223.0,1
-42.0,-223.0,-24.0,-218.0,-694.0,209.0,1
-43.0,-260.0,-34.0,-412.0,-763.0,200.0,1
-33.0,-290.0,-48.0,-559.0,-794.0,201.0,1
-33.0,-309.0,-58.0,-641.0,-765.0,190.0,1
-26.0,-313.0,-59.0,-664.0,-701.0,179.0,1
-19.0,-307.0,-60.0,-645.0,-630.0,161.0,1
-12.0,-296.0,-56.0,-603.0,-571.0,145.0,1
8.0,-284.0,-62.0,-530.0,-536.0,125.0,1
19.0,-269.0,-71.0,-443.0,-485.0,84.0,1
26.0,-256.0,-67.0,-358.0,-400.0,46.0,1
27.0,-242.0,-52.0,-262.0,-342.0,72.0,1
50.0,-233.0,-60.0,-175.0,-288.0,121.0,1
50.0,-221.0,-58.0,-142.0,-208.0,113.0,1
44.0,-218.0,-43.0,-171.0,-126.0,111.0,1
36.0,-221.0,-26.0,-210.0,-49.0,137.0,1
11.0,-231.0,2.0,-218.0,26.0,174.0,1
26.0,-250.0,5.0,-155.0,113.0,225.0,1
4.0,-253.0,10.0,-80.0,244.0,190.0,1
-15.0,-253.0,22.0,-39.0,374.0,155.0,1
-37.0,-257.0,34.0,-11.0,471.0,149.0,1
-46.0,-261.0,37.0,30.0,538.0,169.0,1
-65.0,-262.0,35.0,62.0,565.0,190.0,1
-79.0,-264.0,37.0,81.0,560.0,201.0,1
-96.0,-263.0,38.0,90.0,533.0,192.0,1
-102.0,-266.0,37.0,92.0,493.0,194.0,1
-105.0,-276.0,39.0,96.0,451.0,204.0,1
-112.0,-279.0,39.0,116.0,414.0,228.0,1
-113.0,-283.0,40.0,166.0,383.0,262.0,1
-101.0,-292.0,31.0,251.0,362.0,321.0,1
-97.0,-292.0,21.0,341.0,378.0,321.0,1
-96.0,-283.0,8.0,422.0,419.0,311.0,1
-96.0,-277.0,11.0,476.0,457.0,310.0,1
-77.0,-270.0,19.0,527.0,485.0,323.0,1
-60.0,-260.0,30.0,575.0,505.0,312.0,1
-31.0,-245.0,43.0,609.0,519.0,298.0,1
8.0,-230.0,58.0,635.0,536.0,277.0,1
32.0,-212.0,65.0,657.0,571.0,242.0,1
65.0,-195.0,73.0,681.0,634.0,203.0,1
87.0,-179.0,68.0,698.0,744.0,177.0,1
105.0,-162.0,59.0,680.0,888.0,161.0,1
107.0,-152.0,46.0,615.0,1105.0,164.0,1
92.0,-146.0,46.0,474.0,1290.0,180.0,1
71.0,-144.0,53.0,294.0,1433.0,229.0,1
45.0,-143.0,53.0,61.0,1507.0,293.0,1
27.0,-141.0,41.0,-248.0,1451.0,376.0,1
23.0,-141.0,6.0,-639.0,1250.0,463.0,1
23.0,-163.0,-49.0,-1009.0,950.0,545.0,1
12.0,-189.0,-113.0,-1219.0,619.0,603.0,1
-8.0,-210.0,-176.0,-1134.0,381.0,628.0,1
-49.0,-207.0,-180.0,-815.0,367.0,593.0,1
-71.0,-199.0,-107.0,-569.0,586.0,532.0,1
-67.0,-196.0,-29.0,-441.0,775.0,495.0,1
-50.0,-183.0,38.0,-380.0,855.0,472.0,1
-41.0,-171.0,56.0,-346.0,840.0,456.0,1
-31.0,-168.0,47.0,-321.0,785.0,458.0,1
-22.0,-169.0,30.0,-286.0,732.0,463.0,1
-12.0,-173.0,14.0,-264.0,686.0,478.0,1
-17.0,-172.0,8.0,-260.0,648.0,483.0,1
-25.0,-172.0,-2.0,-281.0,613.0,491.0,1
-37.0,-174.0,-2.0,-317.0,573.0,485.0,1
-58.0,-175.0,-10.0,-347.0,530.0,486.0,1
-67.0,-172.0,-10.0,-366.0,486.0,485.0,1
-76.0,-171.0,-13.0,-378.0,424.0,489.0,1
-77.0,-170.0,-3.0,-399.0,346.0,486.0,1
-76.0,-171.0,6.0,-422.0,253.0,482.0,1
-76.0,-173.0,14.0,-440.0,146.0,473.0,1
-77.0,-177.0,12.0,-451.0,38.0,467.0,1
-79.0,-178.0,15.0,-445.0,-53.0,460.0,1
-80.0,-177.0,10.0,-429.0,-123.0,457.0,1
-77.0,-175.0,6.0,-411.0,-182.0,447.0,1
-83.0,-170.0,-3.0,-404.0,-255.0,438.0,1
-89.0,-172.0,-7.0,-416.0,-372.0,432.0,1
-104.0,-169.0,-5.0,-425.0,-488.0,436.0,1
-117.0,-168.0,-4.0,-433.0,-616.0,434.0,1
-127.0,-164.0,8.0,-441.0,-745.0,443.0,1
-141.0,-160.0,9.0,-449.0,-871.0,450.0,1
-146.0,-158.0,11.0,-447.0,-990.0,462.0,1
-151.0,-149.0,4.0,-432.0,-1114.0,475.0,1
-152.0,-145.0,-13.0,-406.0,-1252.0,497.0,1
-145.0,-143.0,-18.0,-386.0,-1406.0,521.0,1
-140.0,-141.0,-20.0,-376.0,-1549.0,551.0,1
-130.0,-142.0,-18.0,-362.0,-1695.0,568.0,1
-121.0,-138.0,-16.0,-343.0,-1796.0,584.0,1
-109.0,-131.0,-19.0,-327.0,-1884.0,593.0,1
-91.0,-119.0,-19.0,-329.0,-1956.0,600.0,1
-75.0,-101.0,-18.0,-363.0,-2022.0,601.0,1
-58.0,-84.0,-27.0,-419.0,-2089.0,605.0,1
-40.0,-65.0,-40.0,-502.0,-2167.0,608.0,1
-33.0,-45.0,-46.0,-602.0,-2261.0,620.0,1
-21.0,-34.0,-53.0,-695.0,-2361.0,631.0,1
-16.0,-23.0,-66.0,-775.0,-2469.0,652.0,1
-11.0,-13.0,-66.0,-843.0,-2591.0,695.0,1
-8.0,-7.0,-67.0,-869.0,-2679.0,747.0,1
-11.0,-11.0,-65.0,-884.0,-2735.0,794.0,1
-15.0,-23.0,-60.0,-903.0,-2751.0,847.0,1
-31.0,-29.0,-58.0,-927.0,-2741.0,890.0,1
-44.0,-40.0,-62.0,-950.0,-2724.0,939.0,1
-57.0,-46.0,-58.0,-986.0,-2716.0,979.0,1
-63.0,-50.0,-58.0,-1028.0,-2725.0,1022.0,1
-61.0,-60.0,-63.0,-1088.0,-2753.0,1068.0,1
-58.0,-84.0,-78.0,-1148.0,-2787.0,1111.0,1
-64.0,-75.0,-99.0,-1151.0,-2717.0,1100.0,1
-50.0,-79.0,-104.0,-1233.0,-2608.0,1092.0,1
-34.0,-73.0,-105.0,-1318.0,-2513.0,1091.0,1
-22.0,-66.0,-110.0,-1387.0,-2442.0,1101.0,1
-9.0,-64.0,-114.0,-1448.0,-2386.0,1112.0,1
6.0,-56.0,-109.0,-1500.0,-2333.0,1132.0,1
15.0,-46.0,-119.0,-1549.0,-2257.0,1153.0,1
36.0,-40.0,-115.0,-1616.0,-2167.0,1173.0,1
42.0,-38.0,-122.0,-1688.0,-2090.0,1190.0,1
53.0,-38.0,-129.0,-1747.0,-2044.0,1189.0,1
56.0,-37.0,-131.0,-1801.0,-2012.0,1169.0,1
53.0,-40.0,-128.0,-1876.0,-1986.0,1155.0,1
48.0,-34.0,-115.0,-1945.0,-1961.0,1138.0,1
48.0,-26.0,-99.0,-1999.0,-1941.0,1147.0,1
38.0,-15.0,-93.0,-2048.0,-1918.0,1140.0,1
36.0,-5.0,-92.0,-2094.0,-1903.0,1121.0,1
31.0,3.0,-110.0,-2141.0,-1906.0,1080.0,1
50.0,11.0,-117.0,-2201.0,-1900.0,1020.0,1
65.0,16.0,-142.0,-2299.0,-1872.0,930.0,1
45.0,15.0,-119.0,-2412.0,-1805.0,831.0,1
44.0,12.0,-120.0,-2523.0,-1745.0,756.0,1
40.0,-7.0,-113.0,-2578.0,-1691.0,765.0,1
47.0,-2.0,-121.0,-2594.0,-1753.0,665.0,1
44.0,-4.0,-124.0,-2760.0,-1760.0,595.0,1
45.0,-4.0,-99.0,-2768.0,-1645.0,650.0,1
74.0,-3.0,-114.0,-2814.0,-1619.0,635.0,1
75.0,-18.0,-96.0,-2771.0,-1454.0,724.0,1
68.0,-24.0,-94.0,-2710.0,-1348.0,768.0,1
53.0,-25.0,-78.0,-2768.0,-1299.0,766.0,1
38.0,-53.0,-68.0,-2843.0,-1245.0,818.0,1
19.0,-85.0,-48.0,-2903.0,-1138.0,962.0,1
-3.0,-106.0,-27.0,-2876.0,-933.0,1078.0,1
-28.0,-137.0,-16.0,-2803.0,-768.0,1205.0,1
-46.0,-170.0,-8.0,-2720.0,-597.0,1358.0,1
-65.0,-191.0,19.0,-2634.0,-416.0,1525.0,1
-75.0,-202.0,30.0,-2553.0,-247.0,1696.0,1
-89.0,-209.0,27.0,-2465.0,-100.0,1870.0,1
-115.0,-209.0,10.0,-2354.0,-1.0,2057.0,1
-141.0,-199.0,-20.0,-2241.0,31.0,2247.0,1
-168.0,-184.0,-64.0,-2136.0,69.0,2437.0,1
-208.0,-158.0,-96.0,-2047.0,144.0,2609.0,1
-238.0,-123.0,-115.0,-1992.0,230.0,2757.0,1
-277.0,-88.0,-88.0,-2006.0,278.0,2846.0,1
-259.0,-57.0,-165.0,-2058.0,254.0,2890.0,1
-274.0,-2.0,-181.0,-2256.0,368.0,2879.0,1
-305.0,60.0,-191.0,-2503.0,537.0,2887.0,1
-334.0,106.0,-219.0,-2687.0,714.0,2969.0,1
-449.0,118.0,-241.0,-2813.0,874.0,3132.0,1
-554.0,35.0,-304.0,-2913.0,845.0,3414.0,1
-744.0,-18.0,-327.0,-3060.0,647.0,3624.0,1
-1611.0,-601.0,-1920.0,-3562.0,645.0,3733.0,1
-2299.0,-498.0,-1048.0,-6684.0,6335.0,3026.0,1
-1803.0,-250.0,-750.0,-8806.0,10615.0,3127.0,1
-1475.0,59.0,-28.0,-6854.0,11090.0,3860.0,1
-1314.0,781.0,-1266.0,-4652.0,9510.0,4495.0,1
-427.0,-22.0,-926.0,-6273.0,4947.0,3224.0,1
-1139.0,-143.0,-1340.0,-5355.0,3273.0,1735.0,1
-53.0,-1242.0,-1914.0,-3747.0,1823.0,1450.0,1
645.0,-407.0,-1082.0,-2899.0,-419.0,1617.0,1
-32.0,113.0,-87.0,-3313.0,-1940.0,1578.0,1
-730.0,598.0,828.0,-4036.0,549.0,2290.0,1
-739.0,370.0,44.0,-3351.0,3893.0,2967.0,1
47.0,-294.0,-626.0,-740.0,6992.0,2368.0,1
-182.0,-286.0,-598.0,14.0,7325.0,2391.0,1
-471.0,19.0,-513.0,-329.0,6863.0,2403.0,1
-392.0,288.0,-598.0,-488.0,6141.0,2151.0,1
-307.0,319.0,-633.0,-675.0,4889.0,1691.0,1
-97.0,228.0,-469.0,-825.0,3429.0,1167.0,1
-33.0,93.0,-260.0,-679.0,2529.0,517.0,1
-115.0,78.0,-336.0,-112.0,1962.0,-283.0,1
-105.0,-218.0,-315.0,155.0,1774.0,-1197.0,1
-192.0,-368.0,-315.0,567.0,1992.0,-2173.0,1
-236.0,-392.0,-298.0,634.0,1952.0,-2656.0,1
-308.0,-370.0,-325.0,703.0,1716.0,-2922.0,1
-415.0,-292.0,-382.0,678.0,1456.0,-2903.0,1
-273.0,-257.0,-344.0,569.0,1354.0,-2526.0,1
-171.0,-113.0,-375.0,556.0,1380.0,-2156.0,1
-115.0,-51.0,-290.0,348.0,1375.0,-1859.0,1
-75.0,-48.0,-201.0,131.0,1344.0,-1544.0,1
-27.0,25.0,-176.0,-65.0,1260.0,-1267.0,1
-39.0,65.0,-197.0,-135.0,1267.0,-1033.0,1
-55.0,84.0,-175.0,-218.0,1275.0,-808.0,1
-25.0,2.0,-202.0,-304.0,1191.0,-612.0,1
-35.0,-17.0,-176.0,-377.0,981.0,-534.0,1
-117.0,35.0,-228.0,-379.0,734.0,-557.0,1
-82.0,51.0,-255.0,-337.0,552.0,-484.0,1
-100.0,16.0,-229.0,-325.0,507.0,-422.0,1
-75.0,-29.0,-197.0,-270.0,506.0,-346.0,1
-60.0,16.0,-250.0,-235.0,467.0,-328.0,1
-63.0,55.0,-243.0,-275.0,318.0,-346.0,1
-66.0,52.0,-242.0,-240.0,248.0,-299.0,1
-77.0,71.0,-247.0,-193.0,179.0,-288.0,1
-98.0,50.0,-238.0,-218.0,122.0,-260.0,1
-87.0,9.0,-209.0,-212.0,2.0,-228.0,1
-99.0,-13.0,-208.0,-175.0,-128.0,-206.0,1
-116.0,51.0,-255.0,-243.0,-253.0,-213.0,1
-105.0,75.0,-269.0,-358.0,-338.0,-153.0,1
-103.0,76.0,-263.0,-408.0,-424.0,-108.0,1
-80.0,102.0,-269.0,-409.0,-530.0,-89.0,1
-104.0,105.0,-231.0,-507.0,-626.0,-84.0,1
-93.0,130.0,-261.0,-525.0,-724.0,-90.0,1
-89.0,156.0,-286.0,-641.0,-841.0,-62.0,1
-91.0,103.0,-238.0,-864.0,-954.0,22.0,1
-75.0,-71.0,-241.0,-874.0,-1114.0,-35.0,1
-77.0,-93.0,-277.0,-716.0,-1305.0,-221.0,1
-84.0,-27.0,-271.0,-661.0,-1457.0,-349.0,1
-61.0,29.0,-229.0,-740.0,-1504.0,-368.0,1
-5.0,3.0,-181.0,-705.0,-1483.0,-348.0,1
62.0,39.0,-251.0,-448.0,-1563.0,-288.0,1
62.0,63.0,-297.0,-349.0,-1695.0,-250.0,1
35.0,149.0,-274.0,-472.0,-1696.0,-177.0,1
36.0,253.0,-259.0,-663.0,-1642.0,2.0,1
47.0,200.0,-249.0,-823.0,-1509.0,258.0,1
33.0,161.0,-251.0,-815.0,-1411.0,234.0,1
-5.0,104.0,-241.0,-794.0,-1345.0,108.0,1
-59.0,111.0,-277.0,-682.0,-1296.0,6.0,1
-117.0,120.0,-313.0,-685.0,-1266.0,-63.0,1
-130.0,112.0,-307.0,-742.0,-1188.0,-132.0,1
-126.0,107.0,-309.0,-708.0,-1106.0,-154.0,1
-116.0,100.0,-302.0,-669.0,-1028.0,-158.0,1
-90.0,103.0,-296.0,-635.0,-963.0,-133.0,1
-95.0,98.0,-299.0,-595.0,-947.0,-106.0,1
-104.0,101.0,-299.0,-534.0,-981.0,-48.0,1
-120.0,92.0,-301.0,-520.0,-980.0,10.0,1
-143.0,112.0,-302.0,-531.0,-991.0,60.0,1
-148.0,133.0,-318.0,-499.0,-1021.0,74.0,1
-161.0,96.0,-277.0,-441.0,-1043.0,65.0,1
-139.0,74.0,-291.0,-339.0,-1144.0,50.0,1
-142.0,43.0,-276.0,-217.0,-1232.0,-12.0,1
-153.0,11.0,-246.0,-93.0,-1313.0,-66.0,1
-142.0,55.0,-239.0,28.0,-1417.0,-92.0,1
-116.0,58.0,-228.0,89.0,-1519.0,-84.0,1
-120.0,60.0,-205.0,148.0,-1697.0,-133.0,1
-118.0,71.0,-227.0,275.0,-1870.0,-183.0,1
-109.0,58.0,-234.0,316.0,-1986.0,-252.0,1
-117.0,76.0,-259.0,293.0,-2078.0,-406.0,1
-137.0,77.0,-256.0,203.0,-2141.0,-540.0,1
-174.0,89.0,-257.0,128.0,-2162.0,-616.0,1
-171.0,43.0,-220.0,121.0,-2125.0,-640.0,1
-171.0,35.0,-216.0,143.0,-2165.0,-737.0,1
-173.0,13.0,-204.0,106.0,-2233.0,-852.0,1
-166.0,23.0,-198.0,55.0,-2324.0,-995.0,1
-167.0,36.0,-210.0,3.0,-2428.0,-1115.0,1
-164.0,48.0,-226.0,-31.0,-2438.0,-1117.0,1
-151.0,45.0,-230.0,-49.0,-2363.0,-1070.0,1
-185.0,51.0,-240.0,-80.0,-2266.0,-1104.0,1
-132.0,16.0,-182.0,-219.0,-2200.0,-1226.0,1
-158.0,20.0,-211.0,-210.0,-2110.0,-1311.0,1
-136.0,0.0,-190.0,-325.0,-2239.0,-1377.0,1
-157.0,21.0,-181.0,-409.0,-2359.0,-1363.0,1
-167.0,20.0,-167.0,-358.0,-2434.0,-1154.0,1
-171.0,34.0,-162.0,-305.0,-2449.0,-979.0,1
-163.0,41.0,-158.0,-296.0,-2367.0,-922.0,1
-159.0,59.0,-137.0,-309.0,-2209.0,-941.0,1
-160.0,58.0,-132.0,-182.0,-1995.0,-809.0,1
-155.0,45.0,-145.0,-56.0,-1854.0,-660.0,1
-138.0,24.0,-149.0,-69.0,-1844.0,-647.0,1
-144.0,16.0,-155.0,-234.0,-1873.0,-724.0,1
-169.0,-3.0,-141.0,-312.0,-1818.0,-690.0,1
-173.0,-21.0,-132.0,-330.0,-1754.0,-613.0,1
-172.0,-41.0,-128.0,-362.0,-1727.0,-595.0,1
-178.0,-46.0,-135.0,-404.0,-1682.0,-587.0,1
-182.0,-51.0,-122.0,-350.0,-1582.0,-474.0,1
-168.0,-58.0,-140.0,-266.0,-1475.0,-421.0,1
-186.0,-47.0,-142.0,-252.0,-1414.0,-415.0,1
-194.0,-32.0,-138.0,-289.0,-1380.0,-405.0,1
-195.0,-21.0,-155.0,-259.0,-1298.0,-336.0,1
-207.0,-36.0,-133.0,-193.0,-1175.0,-234.0,1
-215.0,-37.0,-145.0,-94.0,-1100.0,-167.0,1
-227.0,-34.0,-155.0,-76.0,-1065.0,-175.0,1
-230.0,-56.0,-143.0,-147.0,-1066.0,-219.0,1
-232.0,-62.0,-149.0,-159.0,-1021.0,-221.0,1
-237.0,-65.0,-138.0,-129.0,-960.0,-196.0,1
-236.0,-69.0,-142.0,-90.0,-902.0,-171.0,1
-246.0,-71.0,-138.0,-85.0,-867.0,-174.0,1
-248.0,-74.0,-134.0,-73.0,-825.0,-158.0,1
-251.0,-90.0,-135.0,-35.0,-778.0,-133.0,1
-255.0,-78.0,-131.0,-27.0,-758.0,-154.0,1
-255.0,-63.0,-134.0,-53.0,-741.0,-151.0,1
-249.0,-53.0,-138.0,-74.0,-693.0,-115.0,1
-241.0,-41.0,-136.0,-70.0,-632.0,-69.0,1
-239.0,-31.0,-132.0,-71.0,-579.0,-38.0,1
-234.0,-29.0,-123.0,-84.0,-523.0,-17.0,1
-235.0,-25.0,-127.0,-94.0,-460.0,-8.0,1
-234.0,-25.0,-119.0,-100.0,-418.0,4.0,1
-237.0,-21.0,-120.0,-112.0,-380.0,19.0,1
-233.0,-20.0,-112.0,-123.0,-341.0,33.0,1
-229.0,-19.0,-111.0,-131.0,-295.0,43.0,1
-224.0,-19.0,-107.0,-141.0,-243.0,55.0,1
-221.0,-15.0,-102.0,-149.0,-188.0,70.0,1
-217.0,-19.0,-105.0,-159.0,-130.0,87.0,1
-217.0,-20.0,-99.0,-170.0,-71.0,106.0,1
-210.0,-23.0,-98.0,-166.0,-11.0,125.0,1
-208.0,-25.0,-103.0,-157.0,66.0,151.0,1
-207.0,-26.0,-100.0,-145.0,130.0,171.0,1
-209.0,-21.0,-100.0,-131.0,195.0,195.0,1
-207.0,-20.0,-104.0,-113.0,264.0,218.0,1
-211.0,-20.0,-105.0,-101.0,333.0,243.0,1
-208.0,-17.0,-109.0,-87.0,401.0,264.0,1
-209.0,-12.0,-114.0,-77.0,458.0,285.0,1
-214.0,-8.0,-114.0,-72.0,507.0,302.0,1
-213.0,-12.0,-118.0,-70.0,548.0,320.0,1
-218.0,-6.0,-111.0,-65.0,586.0,331.0,1
-220.0,-5.0,-119.0,-50.0,638.0,353.0,1
-221.0,-4.0,-122.0,-34.0,679.0,378.0,1
-221.0,-2.0,-123.0,-18.0,728.0,406.0,1
-221.0,2.0,-129.0,-10.0,779.0,408.0,1
-226.0,5.0,-131.0,-2.0,829.0,405.0,1
-234.0,16.0,-139.0,2.0,869.0,402.0,1
-228.0,16.0,-141.0,-3.0,900.0,407.0,1
-229.0,14.0,-149.0,-14.0,923.0,398.0,1
-218.0,8.0,-147.0,-28.0,936.0,383.0,1
-212.0,12.0,-154.0,-24.0,934.0,352.0,1
-216.0,14.0,-151.0,-23.0,927.0,325.0,1
-220.0,16.0,-147.0,-27.0,910.0,309.0,1
-222.0,15.0,-155.0,-24.0,896.0,300.0,1
-219.0,9.0,-156.0,-21.0,885.0,279.0,1
-220.0,13.0,-157.0,-19.0,878.0,267.0,1
-222.0,17.0,-158.0,-25.0,863.0,255.0,1
-217.0,13.0,-158.0,-33.0,839.0,244.0,1
-218.0,16.0,-161.0,-31.0,810.0,229.0,1
-221.0,10.0,-194.0,-18.0,772.0,219.0,1
-221.0,15.0,-201.0,-8.0,728.0,210.0,1
-217.0,13.0,-175.0,1.0,663.0,200.0,1
-212.0,8.0,-179.0,17.0,616.0,184.0,1
-212.0,12.0,-175.0,28.0,578.0,164.0,1
-216.0,11.0,-176.0,39.0,545.0,145.0,1
-213.0,12.0,-174.0,44.0,509.0,133.0,1
-216.0,11.0,-172.0,50.0,486.0,121.0,1
-211.0,11.0,-170.0,66.0,468.0,115.0,1
-218.0,18.0,-171.0,79.0,456.0,104.0,1
-208.0,12.0,-168.0,74.0,435.0,99.0,1
-208.0,16.0,-173.0,74.0,416.0,84.0,1
-204.0,9.0,-166.0,73.0,389.0,76.0,1
-207.0,12.0,-168.0,89.0,373.0,68.0,1
-204.0,11.0,-167.0,93.0,353.0,69.0,1
-206.0,14.0,-167.0,97.0,337.0,60.0,1
-207.0,10.0,-171.0,91.0,316.0,57.0,1
-209.0,14.0,-169.0,84.0,301.0,42.0,1
-206.0,9.0,-172.0,82.0,291.0,34.0,1
-204.0,10.0,-169.0,79.0,282.0,24.0,1
-207.0,7.0,-169.0,83.0,283.0,19.0,1
-207.0,8.0,-170.0,85.0,278.0,14.0,1
-206.0,9.0,-172.0,76.0,253.0,17.0,1
-205.0,8.0,-173.0,53.0,217.0,12.0,1
-206.0,8.0,-176.0,39.0,179.0,9.0,1
-209.0,10.0,-179.0,32.0,138.0,2.0,1
-207.0,9.0,-172.0,25.0,102.0,1.0,1
-209.0,8.0,-171.0,19.0,70.0,-2.0,1
-205.0,6.0,-171.0,16.0,51.0,-2.0,1
-206.0,3.0,-171.0,16.0,37.0,-9.0,1
-205.0,8.0,-174.0,16.0,27.0,-8.0,1
-207.0,9.0,-165.0,13.0,18.0,-12.0,1
-206.0,7.0,-169.0,10.0,10.0,-10.0,1
-208.0,10.0,-173.0,8.0,-2.0,-13.0,1
-207.0,5.0,-170.0,7.0,-12.0,-13.0,1
-205.0,5.0,-171.0,6.0,-22.0,-18.0,1
-207.0,3.0,-168.0,5.0,-33.0,-17.0,1
-205.0,5.0,-169.0,2.0,-45.0,-21.0,1
-207.0,1.0,-168.0,-1.0,-56.0,-20.0,1
-208.0,3.0,-169.0,-4.0,-67.0,-21.0,1
-207.0,4.0,-169.0,-5.0,-78.0,-18.0,1
-209.0,3.0,-166.0,-8.0,-87.0,-17.0,1
-210.0,7.0,-167.0,-9.0,-95.0,-13.0,1
-211.0,8.0,-162.0,-9.0,-99.0,-18.0,1
-209.0,5.0,-167.0,-6.0,-98.0,-18.0,1
-210.0,3.0,-161.0,-6.0,-94.0,-21.0,1
-208.0,6.0,-160.0,-7.0,-85.0,-19.0,1
-208.0,7.0,-157.0,-11.0,-74.0,-20.0,1
-212.0,7.0,-157.0,-16.0,-65.0,-17.0,1
-209.0,5.0,-155.0,-19.0,-55.0,-19.0,1
-210.0,7.0,-158.0,-24.0,-43.0,-18.0,1
-207.0,6.0,-159.0,-29.0,-29.0,-21.0,1
-209.0,4.0,-156.0,-32.0,-13.0,-17.0,1
-208.0,4.0,-156.0,-35.0,6.0,-20.0,1
-208.0,4.0,-156.0,-37.0,21.0,-16.0,1
-207.0,1.0,-158.0,-40.0,29.0,-16.0,1
-209.0,7.0,-159.0,-38.0,35.0,-10.0,1
-214.0,6.0,-159.0,-38.0,35.0,-8.0,1
-208.0,3.0,-161.0,-32.0,34.0,-6.0,1
-210.0,2.0,-160.0,-26.0,35.0,-13.0,1
-210.0,2.0,-159.0,-25.0,35.0,-9.0,1
-211.0,4.0,-158.0,-26.0,39.0,-6.0,1
-211.0,7.0,-159.0,-27.0,48.0,4.0,1
-211.0,9.0,-159.0,-29.0,63.0,7.0,1
-208.0,11.0,-159.0,-31.0,75.0,13.0,1
-210.0,6.0,-160.0,-27.0,83.0,7.0,1
-208.0,7.0,-159.0,-21.0,92.0,3.0,1
-208.0,3.0,-161.0,-23.0,100.0,-2.0,1
-210.0,4.0,-162.0,-26.0,107.0,-1.0,1
-211.0,6.0,-161.0,-28.0,115.0,1.0,1
-209.0,9.0,-160.0,-27.0,124.0,4.0,1
-207.0,5.0,-161.0,-23.0,132.0,2.0,1
-210.0,5.0,-163.0,-22.0,136.0,-2.0,1
-206.0,6.0,-163.0,-18.0,138.0,-7.0,1
-207.0,9.0,-161.0,-16.0,136.0,-9.0,1
-207.0,5.0,-164.0,-12.0,135.0,-11.0,1
-209.0,8.0,-163.0,-9.0,134.0,-11.0,1
-209.0,4.0,-161.0,-4.0,131.0,-14.0,1
-206.0,5.0,-165.0,1.0,128.0,-16.0,1
-208.0,5.0,-164.0,1.0,125.0,-19.0,1
-207.0,6.0,-165.0,3.0,122.0,-21.0,1
-207.0,4.0,-166.0,4.0,123.0,-25.0,1
-212.0,8.0,-167.0,5.0,127.0,-26.0,1
-211.0,4.0,-167.0,1.0,133.0,-30.0,1
-209.0,8.0,-166.0,1.0,137.0,-28.0,1
-211.0,6.0,-166.0,3.0,137.0,-32.0,1
-207.0,5.0,-167.0,3.0,137.0,-33.0,1
-207.0,4.0,-167.0,2.0,137.0,-35.0,1
-209.0,4.0,-171.0,-1.0,135.0,-31.0,1
-211.0,7.0,-166.0,-8.0,132.0,-27.0,1
-208.0,6.0,-167.0,-12.0,126.0,-23.0,1
-207.0,3.0,-168.0,-13.0,118.0,-21.0,1
-207.0,7.0,-163.0,-12.0,109.0,-20.0,1
-207.0,2.0,-166.0,-8.0,96.0,-20.0,1
-206.0,4.0,-165.0,-7.0,88.0,-15.0,1
-208.0,4.0,-166.0,-9.0,81.0,-13.0,1
-206.0,4.0,-163.0,-11.0,77.0,-10.0,1
-204.0,5.0,-172.0,-12.0,75.0,-11.0,1
-206.0,3.0,-164.0,-11.0,74.0,-11.0,1
-206.0,3.0,-165.0,-12.0,75.0,-13.0,1
-206.0,2.0,-164.0,-11.0,77.0,-13.0,1
-205.0,-2.0,-165.0,-16.0,81.0,-11.0,1
-206.0,4.0,-167.0,-19.0,82.0,-7.0,1
-207.0,3.0,-164.0,-18.0,82.0,-2.0,1
-207.0,0.0,-167.0,-20.0,83.0,2.0,1
-205.0,2.0,-162.0,-21.0,84.0,3.0,1
-208.0,1.0,-163.0,-24.0,82.0,8.0,1
-209.0,5.0,-167.0,-27.0,84.0,11.0,1
-212.0,4.0,-165.0,-30.0,86.0,15.0,1
-207.0,4.0,-167.0,-31.0,85.0,16.0,1
-206.0,4.0,-170.0,-33.0,86.0,19.0,1
-210.0,4.0,-166.0,-36.0,87.0,20.0,1
-210.0,5.0,-164.0,-35.0,88.0,19.0,1
-206.0,3.0,-166.0,-37.0,94.0,21.0,1
-206.0,6.0,-169.0,-41.0,95.0,22.0,1
-208.0,4.0,-165.0,-46.0,98.0,23.0,1
-207.0,4.0,-164.0,-50.0,97.0,25.0,1
-206.0,5.0,-167.0,-55.0,94.0,28.0,1
-205.0,4.0,-166.0,-58.0,89.0,31.0,1
-208.0,9.0,-167.0,-59.0,83.0,35.0,1
-206.0,4.0,-166.0,-61.0,76.0,36.0,1
-205.0,4.0,-168.0,-63.0,71.0,39.0,1
-206.0,6.0,-166.0,-63.0,69.0,39.0,1
-205.0,4.0,-160.0,-65.0,70.0,39.0,1
-208.0,5.0,-165.0,-69.0,70.0,40.0,1
-207.0,5.0,-168.0,-71.0,70.0,41.0,1
-207.0,5.0,-165.0,-74.0,68.0,41.0,1
-207.0,6.0,-164.0,-72.0,67.0,42.0,1
-208.0,6.0,-165.0,-71.0,71.0,39.0,1
-207.0,5.0,-170.0,-69.0,74.0,39.0,1
-204.0,7.0,-161.0,-66.0,79.0,38.0,1
-209.0,7.0,-166.0,-67.0,82.0,40.0,1
-206.0,8.0,-161.0,-68.0,85.0,42.0,1
-206.0,9.0,-160.0,-67.0,87.0,44.0,1
-205.0,7.0,-162.0,-66.0,92.0,46.0,1
-207.0,6.0,-162.0,-65.0,95.0,46.0,1
-205.0,8.0,-163.0,-65.0,99.0,44.0,1
-204.0,8.0,-164.0,-64.0,104.0,44.0,1
-207.0,10.0,-163.0,-64.0,108.0,43.0,1
-206.0,9.0,-161.0,-64.0,113.0,41.0,1
-207.0,8.0,-166.0,-63.0,117.0,40.0,1
-206.0,13.0,-165.0,-63.0,118.0,41.0,1
-205.0,10.0,-165.0,-63.0,119.0,38.0,1
-206.0,10.0,-167.0,-62.0,119.0,36.0,1
-207.0,7.0,-164.0,-61.0,120.0,35.0,1
-205.0,11.0,-169.0,-59.0,119.0,32.0,1
-207.0,8.0,-171.0,-56.0,119.0,28.0,1
-207.0,11.0,-167.0,-57.0,122.0,30.0,1
-206.0,12.0,-169.0,-58.0,123.0,28.0,1
-205.0,12.0,-163.0,-54.0,121.0,27.0,1
-205.0,12.0,-167.0,-47.0,120.0,21.0,1
-204.0,9.0,-169.0,-43.0,122.0,21.0,1
-205.0,7.0,-165.0,-40.0,121.0,16.0,1
-204.0,9.0,-163.0,-39.0,125.0,17.0,1
-203.0,11.0,-163.0,-37.0,131.0,16.0,1
-203.0,7.0,-163.0,-37.0,135.0,17.0,1
-205.0,8.0,-167.0,-37.0,138.0,16.0,1
-205.0,9.0,-164.0,-37.0,141.0,19.0,1
-204.0,11.0,-166.0,-36.0,143.0,16.0,1
-205.0,11.0,-167.0,-33.0,147.0,18.0,1
-206.0,9.0,-168.0,-33.0,151.0,17.0,1
-206.0,9.0,-167.0,-33.0,153.0,19.0,1
-204.0,11.0,-167.0,-34.0,160.0,17.0,1
-206.0,11.0,-163.0,-38.0,164.0,23.0,1
-205.0,10.0,-166.0,-36.0,170.0,21.0,1
-207.0,12.0,-167.0,-33.0,175.0,22.0,1
-205.0,10.0,-165.0,-33.0,180.0,21.0,1
-205.0,7.0,-165.0,-37.0,185.0,25.0,1
-204.0,10.0,-165.0,-38.0,191.0,25.0,1
-206.0,10.0,-172.0,-35.0,197.0,26.0,1
-205.0,10.0,-169.0,-36.0,201.0,23.0,1
-205.0,10.0,-171.0,-33.0,208.0,25.0,1
-205.0,8.0,-169.0,-32.0,215.0,20.0,1
-205.0,10.0,-170.0,-35.0,217.0,27.0,1
-204.0,7.0,-170.0,-34.0,225.0,22.0,1
-205.0,8.0,-172.0,-28.0,239.0,22.0,1
-202.0,11.0,-172.0,-34.0,249.0,29.0,1
-203.0,12.0,-165.0,-41.0,254.0,34.0,1
-204.0,12.0,-175.0,-39.0,256.0,29.0,1
-203.0,9.0,-174.0,-35.0,254.0,27.0,1
-203.0,9.0,-176.0,-31.0,249.0,23.0,1
-203.0,8.0,-172.0,-30.0,241.0,26.0,1
-203.0,11.0,-175.0,-30.0,232.0,25.0,1
-204.0,10.0,-172.0,-29.0,228.0,27.0,1
-205.0,12.0,-175.0,-30.0,226.0,24.0,1
-203.0,10.0,-173.0,-36.0,225.0,31.0,1
-203.0,10.0,-171.0,-34.0,233.0,26.0,1
-206.0,11.0,-172.0,-26.0,246.0,27.0,1
-203.0,12.0,-174.0,-29.0,259.0,33.0,1
-199.0,12.0,-173.0,-38.0,264.0,39.0,1
-199.0,10.0,-172.0,-37.0,265.0,33.0,1
-204.0,13.0,-174.0,-38.0,265.0,35.0,1
-201.0,16.0,-174.0,-36.0,263.0,32.0,1
-202.0,12.0,-174.0,-37.0,259.0,31.0,1
-199.0,12.0,-172.0,-38.0,259.0,29.0,1
-197.0,12.0,-177.0,-40.0,253.0,33.0,1
-196.0,11.0,-178.0,-46.0,248.0,33.0,1
-201.0,11.0,-177.0,-48.0,240.0,37.0,1
-200.0,12.0,-173.0,-50.0,236.0,33.0,1
-201.0,10.0,-176.0,-52.0,234.0,34.0,1
-201.0,12.0,-176.0,-51.0,231.0,31.0,1
-202.0,12.0,-177.0,-49.0,229.0,33.0,1
-201.0,12.0,-179.0,-49.0,229.0,30.0,1
-200.0,12.0,-180.0,-50.0,229.0,33.0,1
-200.0,12.0,-175.0,-50.0,231.0,33.0,1
-201.0,12.0,-179.0,-50.0,230.0,36.0,1
-198.0,14.0,-181.0,-46.0,224.0,34.0,1
-198.0,14.0,-183.0,-44.0,213.0,35.0,1
-199.0,12.0,-181.0,-43.0,197.0,32.0,1
-199.0,14.0,-181.0,-40.0,178.0,31.0,1
-199.0,15.0,-183.0,-41.0,163.0,29.0,1
-197.0,13.0,-182.0,-41.0,146.0,31.0,1
-201.0,12.0,-182.0,-40.0,132.0,27.0,1
-198.0,13.0,-182.0,-38.0,121.0,26.0,1
-197.0,14.0,-184.0,-38.0,110.0,22.0,1
-197.0,13.0,-185.0,-39.0,98.0,23.0,1
-198.0,15.0,-185.0,-40.0,87.0,19.0,1
-200.0,16.0,-183.0,-39.0,75.0,21.0,1
-198.0,14.0,-183.0,-37.0,65.0,17.0,1
-199.0,13.0,-184.0,-36.0,53.0,16.0,1
-196.0,13.0,-184.0,-34.0,41.0,14.0,1
-201.0,16.0,-182.0,-34.0,31.0,16.0,1
-199.0,16.0,-180.0,-33.0,21.0,12.0,1
-198.0,14.0,-179.0,-34.0,13.0,14.0,1
-197.0,15.0,-183.0,-30.0,8.0,10.0,1
-199.0,15.0,-180.0,-28.0,6.0,11.0,1
-199.0,17.0,-180.0,-30.0,3.0,8.0,1
-201.0,16.0,-176.0,-28.0,1.0,9.0,1
-199.0,15.0,-177.0,-27.0,-2.0,6.0,1
-200.0,15.0,-177.0,-25.0,-4.0,10.0,1
-197.0,12.0,-179.0,-25.0,-5.0,6.0,1
-200.0,14.0,-179.0,-26.0,-6.0,8.0,1
-199.0,13.0,-176.0,-23.0,-6.0,7.0,1
-199.0,14.0,-176.0,-23.0,-4.0,8.0,1
-200.0,11.0,-177.0,-22.0,-2.0,4.0,1
-200.0,15.0,-177.0,-22.0,-1.0,5.0,1
-197.0,13.0,-182.0,-21.0,1.0,4.0,1
-196.0,13.0,-177.0,-23.0,-2.0,5.0,1
-201.0,13.0,-180.0,-23.0,-5.0,4.0,1
-200.0,14.0,-178.0,-21.0,-9.0,4.0,1
-200.0,12.0,-174.0,-16.0,-7.0,1.0,1
-201.0,14.0,-177.0,-12.0,-3.0,-1.0,1
-202.0,17.0,-178.0,-9.0,4.0,-2.0,1
-200.0,16.0,-179.0,-9.0,11.0,-2.0,1
-199.0,14.0,-176.0,-9.0,20.0,-5.0,1
-196.0,13.0,-177.0,-10.0,29.0,-5.0,1
-199.0,15.0,-173.0,-12.0,35.0,-4.0,1
-198.0,13.0,-173.0,-16.0,40.0,-2.0,1
-197.0,15.0,-174.0,-16.0,41.0,-2.0,1
-200.0,14.0,-171.0,-15.0,42.0,-2.0,1
-199.0,14.0,-177.0,-13.0,42.0,-3.0,1
-201.0,13.0,-175.0,-14.0,42.0,-2.0,1
-197.0,14.0,-169.0,-12.0,42.0,-2.0,1
-201.0,16.0,-175.0,-9.0,43.0,0.0,1
-200.0,12.0,-176.0,-10.0,43.0,-3.0,1
-201.0,11.0,-177.0,-9.0,46.0,-3.0,1
-203.0,12.0,-179.0,-8.0,53.0,-6.0,1
-202.0,15.0,-177.0,-7.0,58.0,-7.0,1
-201.0,14.0,-178.0,-4.0,62.0,-8.0,1
-199.0,14.0,-175.0,-3.0,62.0,-8.0,1
-203.0,16.0,-181.0,-3.0,60.0,-10.0,1
-198.0,14.0,-174.0,-4.0,57.0,-9.0,1
-201.0,15.0,-177.0,-6.0,53.0,-8.0,1
-200.0,15.0,-177.0,-6.0,52.0,-8.0,1
-202.0,15.0,-176.0,-8.0,52.0,-9.0,1
-201.0,12.0,-179.0,-9.0,54.0,-8.0,1
-198.0,15.0,-174.0,-10.0,59.0,-7.0,1
-198.0,11.0,-174.0,-10.0,64.0,-7.0,1
-198.0,14.0,-170.0,-10.0,68.0,-6.0,1
-200.0,14.0,-174.0,-11.0,69.0,-6.0,1
-198.0,11.0,-173.0,-11.0,72.0,-5.0,1
-202.0,13.0,-179.0,-9.0,75.0,-5.0,1
-198.0,12.0,-177.0,-9.0,76.0,-4.0,1
-201.0,14.0,-172.0,-8.0,81.0,-5.0,1
-199.0,16.0,-174.0,-9.0,84.0,-6.0,1
-202.0,15.0,-174.0,-9.0,87.0,-4.0,1
-198.0,16.0,-176.0,-7.0,91.0,-4.0,1
-201.0,13.0,-178.0,-7.0,94.0,-5.0,1
-201.0,13.0,-177.0,-8.0,97.0,-4.0,1
-200.0,17.0,-176.0,-8.0,97.0,-3.0,1
-198.0,14.0,-178.0,-8.0,96.0,-2.0,1
-202.0,14.0,-178.0,-8.0,96.0,-3.0,1
-199.0,13.0,-180.0,-9.0,94.0,-1.0,1
-199.0,15.0,-175.0,-12.0,94.0,-1.0,1
-200.0,13.0,-177.0,-12.0,91.0,-1.0,1
-198.0,13.0,-177.0,-14.0,88.0,-1.0,1
-198.0,12.0,-181.0,-15.0,87.0,-1.0,1
-199.0,12.0,-182.0,-14.0,83.0,-1.0,1
-199.0,12.0,-182.0,-14.0,78.0,-1.0,1
-199.0,11.0,-172.0,-15.0,74.0,-3.0,1
-198.0,17.0,-176.0,-15.0,71.0,-2.0,1
-200.0,13.0,-180.0,-15.0,69.0,-3.0,1
-199.0,12.0,-176.0,-14.0,66.0,-3.0,1
-200.0,13.0,-177.0,-16.0,63.0,-4.0,1
-200.0,14.0,-177.0,-17.0,62.0,-3.0,1
-199.0,16.0,-178.0,-18.0,60.0,-4.0,1
-201.0,15.0,-178.0,-20.0,60.0,-3.0,1
-201.0,14.0,-177.0,-20.0,58.0,-1.0,1
-198.0,16.0,-173.0,-21.0,56.0,0.0,1
-200.0,15.0,-176.0,-22.0,55.0,0.0,1
-199.0,14.0,-178.0,-22.0,54.0,1.0,1
-198.0,13.0,-182.0,-20.0,53.0,-1.0,1
-201.0,14.0,-177.0,-19.0,54.0,1.0,1
-199.0,16.0,-179.0,-17.0,54.0,0.0,1
-202.0,14.0,-177.0,-15.0,53.0,2.0,1
-199.0,14.0,-177.0,-15.0,53.0,0.0,1
-200.0,15.0,-175.0,-15.0,54.0,0.0,1
-201.0,16.0,-177.0,-16.0,53.0,-1.0,1
-200.0,13.0,-177.0,-16.0,53.0,1.0,1
-200.0,14.0,-176.0,-17.0,54.0,-2.0,1
-200.0,14.0,-176.0,-18.0,54.0,-1.0,1
-200.0,12.0,-181.0,-17.0,54.0,-3.0,1
-201.0,12.0,-179.0,-16.0,54.0,-2.0,1
-200.0,12.0,-177.0,-17.0,53.0,-3.0,1
-199.0,11.0,-175.0,-18.0,52.0,-2.0,1
-200.0,14.0,-173.0,-19.0,53.0,-2.0,1
-198.0,11.0,-175.0,-19.0,53.0,0.0,1
-199.0,12.0,-174.0,-18.0,55.0,-2.0,1
-198.0,14.0,-175.0,-20.0,58.0,0.0,1
-201.0,15.0,-176.0,-20.0,61.0,-2.0,1
-200.0,12.0,-177.0,-19.0,64.0,0.0,1
-199.0,12.0,-178.0,-17.0,66.0,-2.0,1
-197.0,16.0,-176.0,-17.0,69.0,0.0,1
-199.0,13.0,-178.0,-14.0,67.0,-1.0,1
-198.0,12.0,-182.0,-15.0,66.0,0.0,1
-201.0,14.0,-175.0,-13.0,62.0,-2.0,1
-190.0,11.0,-185.0,-12.0,60.0,-2.0,1
-193.0,4.0,-167.0,-12.0,58.0,-4.0,1
-205.0,15.0,-173.0,-12.0,57.0,-2.0,1
-193.0,17.0,-166.0,-13.0,56.0,-4.0,1
-196.0,12.0,-178.0,-13.0,53.0,-1.0,1
-200.0,16.0,-177.0,-14.0,51.0,-4.0,1
-197.0,14.0,-179.0,-15.0,49.0,-1.0,1
-198.0,12.0,-179.0,-15.0,48.0,-2.0,1
-199.0,15.0,-174.0,-16.0,47.0,1.0,1
-198.0,10.0,-178.0,-17.0,47.0,-2.0,1
-201.0,13.0,-173.0,-16.0,49.0,-1.0,1
-200.0,15.0,-176.0,-13.0,51.0,-2.0,1
-200.0,13.0,-177.0,-13.0,55.0,0.0,1
-197.0,15.0,-176.0,-13.0,59.0,-2.0,1
-200.0,17.0,-178.0,-11.0,58.0,-1.0,1
-200.0,17.0,-178.0,-10.0,59.0,-4.0,1
-201.0,16.0,-176.0,-7.0,59.0,-1.0,1
-202.0,15.0,-180.0,-5.0,56.0,-5.0,1
-200.0,15.0,-174.0,-5.0,57.0,-3.0,1
-201.0,14.0,-179.0,-5.0,60.0,-6.0,1
-201.0,14.0,-173.0,-5.0,63.0,-4.0,1
-199.0,12.0,-172.0,-4.0,65.0,-5.0,1
-198.0,14.0,-177.0,-4.0,68.0,-2.0,1
-199.0,13.0,-181.0,-2.0,69.0,-3.0,1
-198.0,17.0,-180.0,-4.0,66.0,0.0,1
-202.0,12.0,-178.0,-3.0,64.0,-2.0,1
-197.0,11.0,-175.0,0.0,63.0,3.0,1
-198.0,12.0,-177.0,4.0,67.0,4.0,1
-109.0,-40.0,-173.0,10.0,96.0,12.0,1
-250.0,9.0,-179.0,208.0,293.0,20.0,1
-232.0,35.0,-182.0,238.0,236.0,133.0,1
-206.0,47.0,-177.0,87.0,179.0,117.0,1
-189.0,26.0,-169.0,-13.0,149.0,44.0,1
-196.0,16.0,-180.0,2.0,107.0,5.0,1
-201.0,9.0,-177.0,-2.0,79.0,-6.0,1
-199.0,14.0,-181.0,-10.0,70.0,-4.0,1
-199.0,14.0,-177.0,-16.0,69.0,4.0,1
-198.0,17.0,-180.0,-17.0,67.0,2.0,1
-197.0,15.0,-177.0,-16.0,70.0,2.0,1
-200.0,15.0,-182.0,-13.0,73.0,-2.0,1
-200.0,14.0,-180.0,-11.0,75.0,2.0,1
-202.0,15.0,-177.0,-12.0,75.0,-1.0,1
-194.0,12.0,-176.0,-11.0,72.0,1.0,1
-198.0,14.0,-177.0,-9.0,70.0,-3.0,1
-199.0,14.0,-178.0,-7.0,67.0,-1.0,1
-196.0,14.0,-179.0,-9.0,63.0,-2.0,1
-196.0,14.0,-178.0,-10.0,60.0,0.0,1
-200.0,9.0,-177.0,-12.0,58.0,-2.0,1
-201.0,13.0,-176.0,-12.0,57.0,2.0,1
-197.0,13.0,-181.0,-14.0,57.0,0.0,1
-199.0,14.0,-178.0,-14.0,60.0,3.0,1
-199.0,14.0,-176.0,-15.0,62.0,2.0,1
-200.0,13.0,-175.0,-14.0,63.0,4.0,1
-198.0,11.0,-179.0,-13.0,63.0,1.0,1
-200.0,15.0,-179.0,-12.0,62.0,2.0,1
-199.0,13.0,-180.0,-11.0,58.0,0.0,1
-94.0,-63.0,-205.0,14.0,88.0,6.0,1
-240.0,18.0,-180.0,165.0,226.0,39.0,1
-213.0,35.0,-179.0,138.0,153.0,102.0,1
-201.0,34.0,-170.0,25.0,127.0,60.0,1
-194.0,19.0,-172.0,-5.0,108.0,18.0,1
-196.0,10.0,-177.0,1.0,88.0,-8.0,1
-200.0,10.0,-183.0,-2.0,73.0,-9.0,1
-196.0,13.0,-176.0,-12.0,67.0,-5.0,1
-198.0,15.0,-176.0,-16.0,64.0,1.0,1
-196.0,14.0,-178.0,-17.0,62.0,-3.0,1
-198.0,12.0,-177.0,-13.0,60.0,-2.0,1
-201.0,14.0,-181.0,-12.0,61.0,-5.0,1
-200.0,12.0,-179.0,-10.0,63.0,-4.0,1
-199.0,16.0,-177.0,-9.0,62.0,-6.0,1
-201.0,14.0,-180.0,-7.0,63.0,-7.0,1
-197.0,14.0,-181.0,-5.0,63.0,-9.0,1
-197.0,13.0,-181.0,-6.0,65.0,-6.0,1
-197.0,13.0,-180.0,-6.0,63.0,-8.0,1
-200.0,13.0,-177.0,-6.0,60.0,-9.0,1
-198.0,13.0,-180.0,-7.0,58.0,-12.0,1
-198.0,11.0,-179.0,-7.0,54.0,-10.0,1
-199.0,12.0,-180.0,-8.0,53.0,-10.0,1
-199.0,15.0,-178.0,-10.0,53.0,-11.0,1
-199.0,14.0,-179.0,-8.0,53.0,-14.0,1
-199.0,13.0,-182.0,-6.0,52.0,-12.0,1
-198.0,13.0,-179.0,-7.0,52.0,-14.0,1
-196.0,13.0,-176.0,-7.0,52.0,-13.0,1
-197.0,13.0,-178.0,-6.0,51.0,-17.0,1
-196.0,12.0,-181.0,-7.0,52.0,-17.0,1
-198.0,10.0,-178.0,-7.0,49.0,-18.0,1
-199.0,14.0,-178.0,-5.0,47.0,-17.0,1
-198.0,14.0,-182.0,-5.0,45.0,-17.0,1
-199.0,12.0,-180.0,-3.0,42.0,-15.0,1
-198.0,12.0,-180.0,-2.0,40.0,-16.0,1
-199.0,12.0,-177.0,-2.0,41.0,-16.0,1
-197.0,9.0,-174.0,-2.0,39.0,-16.0,1
-198.0,12.0,-179.0,-4.0,39.0,-15.0,1
-198.0,13.0,-179.0,-9.0,40.0,-14.0,1
-198.0,13.0,-173.0,-12.0,38.0,-13.0,1
-200.0,14.0,-174.0,-14.0,38.0,-13.0,1
-199.0,15.0,-179.0,-16.0,36.0,-14.0,1
-198.0,13.0,-177.0,-15.0,37.0,-14.0,1
-198.0,12.0,-176.0,-14.0,36.0,-13.0,1
-198.0,13.0,-177.0,-11.0,37.0,-16.0,1
-199.0,15.0,-181.0,-11.0,39.0,-15.0,1
-201.0,14.0,-178.0,-10.0,39.0,-14.0,1
-200.0,12.0,-178.0,-12.0,40.0,-14.0,1
-197.0,13.0,-178.0,-11.0,41.0,-13.0,1
-194.0,11.0,-177.0,-12.0,40.0,-13.0,1
-198.0,12.0,-172.0,-13.0,39.0,-12.0,1
-198.0,12.0,-177.0,-14.0,40.0,-13.0,1
-197.0,13.0,-178.0,-14.0,40.0,-11.0,1
-198.0,12.0,-176.0,-16.0,39.0,-10.0,1
-202.0,13.0,-176.0,-17.0,40.0,-8.0,1
-200.0,11.0,-180.0,-16.0,40.0,-8.0,1
-197.0,11.0,-179.0,-17.0,40.0,-8.0,1
-197.0,10.0,-174.0,-17.0,40.0,-7.0,1
-199.0,12.0,-176.0,-17.0,39.0,-5.0,1
-198.0,12.0,-180.0,-19.0,39.0,-5.0,1
-201.0,12.0,-176.0,-18.0,39.0,-4.0,1
-200.0,10.0,-179.0,-16.0,39.0,-6.0,1
-198.0,12.0,-176.0,-16.0,41.0,-5.0,1
-199.0,13.0,-177.0,-17.0,43.0,-6.0,1
-200.0,14.0,-178.0,-16.0,44.0,-6.0,1
-199.0,12.0,-177.0,-16.0,47.0,-5.0,1
-201.0,13.0,-177.0,-16.0,48.0,-5.0,1
-200.0,14.0,-176.0,-16.0,49.0,-6.0,1
-195.0,12.0,-178.0,-16.0,50.0,-6.0,1
-200.0,13.0,-179.0,-16.0,50.0,-7.0,1
-198.0,12.0,-174.0,-17.0,51.0,-5.0,1
-197.0,12.0,-179.0,-16.0,53.0,-6.0,1
-199.0,15.0,-178.0,-17.0,54.0,-4.0,1
-197.0,11.0,-174.0,-17.0,55.0,-4.0,1
-200.0,13.0,-177.0,-16.0,54.0,-4.0,1
-199.0,11.0,-178.0,-15.0,53.0,-5.0,1
-201.0,12.0,-178.0,-16.0,51.0,-3.0,1
-198.0,13.0,-179.0,-16.0,51.0,-5.0,1
-200.0,13.0,-176.0,-16.0,52.0,-4.0,1
-200.0,11.0,-178.0,-16.0,51.0,-6.0,1
-198.0,15.0,-177.0,-15.0,51.0,-4.0,1
-197.0,9.0,-177.0,-13.0,52.0,-6.0,1
-199.0,13.0,-176.0,-13.0,51.0,-4.0,1
-198.0,13.0,-176.0,-14.0,52.0,-6.0,1
-200.0,14.0,-178.0,-12.0,51.0,-5.0,1
-199.0,12.0,-181.0,-10.0,51.0,-7.0,1
-198.0,15.0,-177.0,-10.0,52.0,-7.0,1
-201.0,10.0,-180.0,-12.0,54.0,-8.0,1
-200.0,13.0,-176.0,-11.0,57.0,-7.0,1
-198.0,13.0,-178.0,-10.0,62.0,-8.0,1
-201.0,13.0,-178.0,-12.0,65.0,-5.0,1
-199.0,13.0,-174.0,-13.0,65.0,-7.0,1
-197.0,13.0,-171.0,-13.0,63.0,-3.0,1
-199.0,12.0,-176.0,-13.0,63.0,-5.0,1
-199.0,12.0,-179.0,-13.0,62.0,-4.0,1
-199.0,14.0,-179.0,-11.0,61.0,-5.0,1
-200.0,11.0,-177.0,-11.0,60.0,-4.0,1
-201.0,14.0,-177.0,-12.0,61.0,-6.0,1
-199.0,13.0,-179.0,-13.0,64.0,-3.0,1
-200.0,13.0,-175.0,-15.0,65.0,-4.0,1
-199.0,12.0,-177.0,-17.0,63.0,-2.0,1
-200.0,12.0,-176.0,-18.0,60.0,-5.0,1
-200.0,12.0,-176.0,-19.0,57.0,-1.0,1
-201.0,11.0,-178.0,-16.0,54.0,-4.0,1
-200.0,14.0,-178.0,-13.0,53.0,-5.0,1
-200.0,11.0,-178.0,-13.0,54.0,-7.0,1
-201.0,15.0,-177.0,-11.0,55.0,-6.0,1
-200.0,13.0,-175.0,-11.0,55.0,-8.0,1
-199.0,14.0,-178.0,-12.0,56.0,-5.0,1
-200.0,13.0,-174.0,-12.0,55.0,-7.0,1
-200.0,16.0,-175.0,-11.0,55.0,-5.0,1
-197.0,13.0,-176.0,-11.0,55.0,-10.0,1
-199.0,13.0,-175.0,-10.0,55.0,-6.0,1
-198.0,12.0,-178.0,-9.0,53.0,-8.0,1
-200.0,14.0,-175.0,-9.0,51.0,-6.0,1
-197.0,9.0,-175.0,-10.0,49.0,-6.0,1
-199.0,12.0,-175.0,-11.0,46.0,-4.0,1
-200.0,10.0,-174.0,-10.0,48.0,-5.0,1
-200.0,16.0,-176.0,-11.0,49.0,-1.0,1
-199.0,11.0,-180.0,-13.0,51.0,-4.0,1
-199.0,11.0,-177.0,-14.0,52.0,-2.0,1
-203.0,14.0,-177.0,-15.0,52.0,-5.0,1
-198.0,11.0,-173.0,-14.0,53.0,-3.0,1
-199.0,15.0,-175.0,-13.0,55.0,-6.0,1
-198.0,15.0,-175.0,-13.0,55.0,-2.0,1
-196.0,13.0,-178.0,-15.0,56.0,-5.0,1
-199.0,16.0,-174.0,-16.0,56.0,-1.0,1
-199.0,11.0,-177.0,-16.0,57.0,-4.0,1
-199.0,13.0,-174.0,-16.0,56.0,-2.0,1
-200.0,12.0,-174.0,-17.0,57.0,-4.0,1
-203.0,13.0,-180.0,-15.0,57.0,-2.0,1
-200.0,13.0,-173.0,-15.0,59.0,-5.0,1
-200.0,12.0,-178.0,-15.0,58.0,-3.0,1
-202.0,15.0,-175.0,-15.0,60.0,-5.0,1
-199.0,12.0,-173.0,-16.0,60.0,-2.0,1
-198.0,12.0,-176.0,-15.0,59.0,-5.0,1
-197.0,12.0,-175.0,-16.0,58.0,-2.0,1
-199.0,12.0,-177.0,-16.0,59.0,-4.0,1
-197.0,11.0,-176.0,-16.0,58.0,-3.0,1
-201.0,12.0,-173.0,-14.0,60.0,-6.0,1
-200.0,11.0,-178.0,-13.0,61.0,-3.0,1
-198.0,11.0,-174.0,-13.0,65.0,-6.0,1
-197.0,10.0,-179.0,-14.0,65.0,-3.0,1
-200.0,10.0,-178.0,-14.0,65.0,-6.0,1
-200.0,13.0,-178.0,-15.0,64.0,-3.0,1
-200.0,13.0,-178.0,-16.0,64.0,-4.0,1
-198.0,10.0,-177.0,-16.0,65.0,-1.0,1
-198.0,15.0,-176.0,-17.0,65.0,-5.0,1
-200.0,14.0,-180.0,-16.0,64.0,-3.0,1
-198.0,14.0,-175.0,-15.0,65.0,-4.0,1
-198.0,11.0,-173.0,-15.0,65.0,-2.0,1
-198.0,12.0,-176.0,-14.0,63.0,-5.0,1
-198.0,14.0,-176.0,-14.0,62.0,-3.0,1
-196.0,12.0,-176.0,-13.0,61.0,-5.0,1
-198.0,15.0,-179.0,-12.0,59.0,-4.0,1
-198.0,11.0,-176.0,-11.0,58.0,-8.0,1
-200.0,14.0,-178.0,-13.0,58.0,-4.0,1
-199.0,13.0,-174.0,-14.0,57.0,-7.0,1
-200.0,13.0,-178.0,-15.0,56.0,-3.0,1
-199.0,11.0,-176.0,-17.0,57.0,-4.0,1
-200.0,13.0,-176.0,-17.0,56.0,-2.0,1
-199.0,12.0,-175.0,-17.0,54.0,-4.0,1
-199.0,11.0,-177.0,-18.0,54.0,-2.0,1
-201.0,12.0,-177.0,-17.0,52.0,-5.0,1
-197.0,12.0,-179.0,-17.0,51.0,-2.0,1
-200.0,17.0,-174.0,-16.0,53.0,-5.0,1
-198.0,14.0,-180.0,-17.0,53.0,-2.0,1
-199.0,13.0,-173.0,-18.0,57.0,-4.0,1
-199.0,12.0,-173.0,-17.0,56.0,0.0,1
-199.0,13.0,-170.0,-17.0,57.0,-3.0,1
-200.0,16.0,-180.0,-17.0,58.0,0.0,1
-198.0,10.0,-175.0,-16.0,60.0,-3.0,1
-199.0,15.0,-174.0,-16.0,57.0,-1.0,1
-202.0,12.0,-176.0,-15.0,58.0,-3.0,1
-200.0,11.0,-175.0,-14.0,57.0,-2.0,1
-200.0,12.0,-175.0,-17.0,55.0,-3.0,1
-198.0,15.0,-174.0,-17.0,56.0,-4.0,1
-200.0,16.0,-177.0,-15.0,56.0,-4.0,1
-202.0,13.0,-175.0,-15.0,57.0,-1.0,1
-199.0,12.0,-176.0,-15.0,58.0,-4.0,1
-199.0,14.0,-174.0,-15.0,60.0,-2.0,1
-198.0,10.0,-176.0,-13.0,60.0,-4.0,1
-199.0,11.0,-174.0,-14.0,59.0,-2.0,1
-201.0,14.0,-176.0,-14.0,58.0,-4.0,1
-202.0,15.0,-175.0,-16.0,56.0,-2.0,1
-199.0,12.0,-174.0,-16.0,56.0,-4.0,1
-200.0,10.0,-175.0,-17.0,57.0,-1.0,1
-198.0,12.0,-181.0,-18.0,56.0,-3.0,1
-199.0,14.0,-176.0,-18.0,57.0,-1.0,1
-200.0,12.0,-173.0,-17.0,59.0,-2.0,1
-201.0,15.0,-177.0,-17.0,61.0,-1.0,1
-200.0,11.0,-180.0,-17.0,60.0,-2.0,1
-200.0,12.0,-176.0,-17.0,61.0,-1.0,1
-201.0,13.0,-174.0,-17.0,59.0,-1.0,1
-202.0,14.0,-176.0,-14.0,58.0,-3.0,1
-198.0,13.0,-175.0,-14.0,57.0,-4.0,1
-200.0,10.0,-171.0,-14.0,60.0,-2.0,1
-201.0,14.0,-180.0,-14.0,61.0,-4.0,1
-197.0,10.0,-177.0,-13.0,62.0,-2.0,1
-200.0,12.0,-176.0,-15.0,63.0,-4.0,1
-199.0,10.0,-180.0,-16.0,61.0,-2.0,1
-202.0,15.0,-173.0,-17.0,62.0,-3.0,1
-198.0,15.0,-176.0,-19.0,63.0,0.0,1
-200.0,14.0,-172.0,-18.0,64.0,-2.0,1
-199.0,12.0,-176.0,-17.0,63.0,-2.0,1
-200.0,14.0,-174.0,-16.0,62.0,-1.0,1
-201.0,11.0,-172.0,-16.0,61.0,-2.0,1
-201.0,14.0,-179.0,-19.0,60.0,-1.0,1
-201.0,16.0,-179.0,-18.0,59.0,0.0,1
-200.0,11.0,-175.0,-19.0,57.0,-1.0,1
-201.0,15.0,-178.0,-19.0,57.0,-1.0,1
-198.0,12.0,-179.0,-20.0,56.0,-1.0,1
-196.0,11.0,-173.0,-20.0,55.0,0.0,1
-201.0,12.0,-174.0,-22.0,54.0,1.0,1
-199.0,13.0,-178.0,-22.0,51.0,1.0,1
-202.0,12.0,-175.0,-24.0,51.0,2.0,1
-200.0,13.0,-173.0,-24.0,54.0,3.0,1
-197.0,13.0,-176.0,-25.0,57.0,3.0,1
-199.0,14.0,-178.0,-26.0,59.0,4.0,1
-197.0,12.0,-177.0,-27.0,58.0,4.0,1
-198.0,17.0,-177.0,-26.0,58.0,5.0,1
-198.0,15.0,-176.0,-25.0,57.0,3.0,1
-199.0,12.0,-176.0,-24.0,57.0,3.0,1
-198.0,13.0,-182.0,-22.0,56.0,4.0,1
-202.0,14.0,-179.0,-23.0,53.0,4.0,1
-200.0,14.0,-180.0,-23.0,54.0,4.0,1
-201.0,15.0,-178.0,-24.0,57.0,4.0,1
-200.0,13.0,-174.0,-24.0,56.0,3.0,1
-200.0,13.0,-175.0,-27.0,58.0,4.0,1
-199.0,14.0,-181.0,-27.0,57.0,5.0,1
-197.0,11.0,-174.0,-27.0,55.0,4.0,1
-198.0,11.0,-169.0,-26.0,51.0,4.0,1
-199.0,9.0,-172.0,-23.0,53.0,3.0,1
-200.0,14.0,-176.0,-20.0,54.0,1.0,1
-200.0,14.0,-178.0,-20.0,57.0,0.0,1
-198.0,13.0,-172.0,-22.0,59.0,1.0,1
-200.0,16.0,-178.0,-20.0,61.0,1.0,1
-197.0,13.0,-173.0,-21.0,62.0,2.0,1
-200.0,11.0,-176.0,-20.0,64.0,1.0,1
-202.0,14.0,-173.0,-20.0,66.0,2.0,1
-199.0,17.0,-181.0,-19.0,67.0,0.0,1
-199.0,13.0,-178.0,-17.0,67.0,1.0,1
-198.0,14.0,-179.0,-17.0,66.0,0.0,1
-201.0,13.0,-181.0,-18.0,61.0,2.0,1
-199.0,12.0,-179.0,-18.0,60.0,1.0,1
-198.0,14.0,-175.0,-19.0,58.0,4.0,1
-201.0,13.0,-175.0,-22.0,61.0,3.0,1
-200.0,12.0,-174.0,-25.0,65.0,5.0,1
-201.0,14.0,-177.0,-24.0,69.0,4.0,1
-197.0,11.0,-180.0,-27.0,73.0,6.0,1
-198.0,14.0,-176.0,-27.0,75.0,5.0,1
-201.0,15.0,-176.0,-26.0,76.0,5.0,1
-196.0,11.0,-175.0,-28.0,76.0,3.0,1
-198.0,15.0,-177.0,-28.0,77.0,5.0,1
-201.0,12.0,-176.0,-30.0,79.0,5.0,1
-198.0,14.0,-182.0,-30.0,81.0,7.0,1
-197.0,15.0,-176.0,-32.0,80.0,6.0,1
-201.0,17.0,-177.0,-33.0,79.0,8.0,1
-198.0,14.0,-178.0,-31.0,80.0,7.0,1
-201.0,15.0,-176.0,-32.0,80.0,9.0,1
-199.0,15.0,-178.0,-31.0,80.0,6.0,1
-199.0,12.0,-176.0,-30.0,79.0,7.0,1
-200.0,12.0,-174.0,-29.0,80.0,5.0,1
-200.0,14.0,-174.0,-29.0,79.0,6.0,1
-199.0,13.0,-177.0,-29.0,77.0,5.0,1
-201.0,14.0,-175.0,-27.0,76.0,7.0,1
-198.0,12.0,-176.0,-27.0,75.0,4.0,1
-200.0,16.0,-175.0,-27.0,77.0,6.0,1
-200.0,13.0,-176.0,-26.0,78.0,5.0,1
-201.0,13.0,-177.0,-25.0,78.0,5.0,1
-199.0,17.0,-179.0,-24.0,78.0,3.0,1
-198.0,14.0,-175.0,-24.0,79.0,5.0,1
-202.0,18.0,-177.0,-24.0,77.0,3.0,1
-199.0,13.0,-179.0,-24.0,75.0,4.0,1
-199.0,14.0,-176.0,-24.0,74.0,2.0,1
-198.0,17.0,-175.0,-25.0,73.0,5.0,1
-197.0,12.0,-181.0,-23.0,69.0,2.0,1
-199.0,15.0,-179.0,-23.0,70.0,4.0,1
-201.0,14.0,-173.0,-23.0,68.0,3.0,1
-200.0,15.0,-179.0,-20.0,70.0,4.0,1
-198.0,13.0,-173.0,-22.0,71.0,1.0,1
-200.0,15.0,-178.0,-20.0,71.0,3.0,1
-198.0,14.0,-177.0,-18.0,71.0,1.0,1
-202.0,13.0,-178.0,-17.0,70.0,2.0,1
-197.0,15.0,-177.0,-18.0,69.0,-1.0,1
-198.0,17.0,-176.0,-18.0,67.0,1.0,1
-198.0,16.0,-182.0,-18.0,65.0,-1.0,1
-199.0,13.0,-179.0,-19.0,62.0,1.0,1
-198.0,18.0,-178.0,-19.0,61.0,-1.0,1
-200.0,13.0,-177.0,-20.0,61.0,0.0,1
-200.0,14.0,-178.0,-19.0,58.0,-2.0,1
-199.0,16.0,-176.0,-19.0,57.0,1.0,1
-199.0,14.0,-178.0,-18.0,54.0,-1.0,1
-200.0,16.0,-181.0,-18.0,55.0,0.0,1
-202.0,18.0,-177.0,-14.0,56.0,-2.0,1
-200.0,14.0,-174.0,-13.0,56.0,0.0,1
-199.0,14.0,-178.0,-13.0,57.0,-4.0,1
-198.0,13.0,-177.0,-12.0,55.0,-1.0,1
-200.0,15.0,-175.0,-13.0,55.0,-3.0,1
-197.0,12.0,-178.0,-11.0,54.0,-2.0,1
-201.0,15.0,-174.0,-12.0,51.0,-4.0,1
-199.0,16.0,-179.0,-14.0,51.0,-1.0,1
-197.0,16.0,-177.0,-13.0,50.0,-4.0,1
-197.0,12.0,-181.0,-15.0,48.0,-2.0,1
-200.0,15.0,-179.0,-16.0,49.0,-3.0,1
-201.0,14.0,-174.0,-15.0,50.0,-1.0,1
-203.0,16.0,-178.0,-11.0,51.0,-5.0,1
-199.0,14.0,-177.0,-12.0,51.0,-3.0,1
-201.0,16.0,-176.0,-14.0,51.0,-3.0,1
-202.0,14.0,-178.0,-14.0,52.0,-2.0,1
-198.0,13.0,-174.0,-15.0,53.0,-3.0,1
-200.0,13.0,-179.0,-16.0,51.0,-1.0,1
-200.0,15.0,-175.0,-18.0,50.0,-4.0,1
-197.0,12.0,-177.0,-19.0,51.0,0.0,1
-203.0,15.0,-176.0,-18.0,50.0,-2.0,1
-198.0,15.0,-176.0,-17.0,51.0,0.0,1
-199.0,14.0,-178.0,-15.0,51.0,-2.0,1
-198.0,14.0,-176.0,-15.0,52.0,0.0,1
-201.0,17.0,-181.0,-15.0,52.0,-2.0,1
-199.0,14.0,-175.0,-16.0,52.0,0.0,1
-198.0,13.0,-179.0,-17.0,51.0,-2.0,1
-200.0,15.0,-177.0,-17.0,53.0,-1.0,1
-198.0,13.0,-176.0,-17.0,54.0,-3.0,1
-203.0,16.0,-175.0,-18.0,54.0,-1.0,1
-200.0,13.0,-178.0,-16.0,53.0,-3.0,1
-200.0,14.0,-180.0,-16.0,54.0,-1.0,1
-198.0,15.0,-176.0,-16.0,56.0,-3.0,1
-196.0,13.0,-178.0,-18.0,55.0,1.0,1
-200.0,13.0,-177.0,-17.0,57.0,-3.0,1
-200.0,14.0,-175.0,-15.0,58.0,0.0,1
-199.0,14.0,-177.0,-14.0,58.0,-3.0,1
-200.0,16.0,-176.0,-16.0,59.0,-2.0,1
-200.0,18.0,-177.0,-16.0,58.0,-4.0,1
-200.0,16.0,-180.0,-16.0,59.0,-1.0,1
-200.0,17.0,-173.0,-15.0,59.0,-2.0,1
-199.0,15.0,-174.0,-15.0,58.0,-1.0,1
-198.0,14.0,-180.0,-14.0,57.0,-3.0,1
-199.0,16.0,-179.0,-11.0,57.0,-2.0,1
-200.0,12.0,-177.0,-11.0,59.0,-5.0,1
-198.0,13.0,-173.0,-12.0,60.0,-4.0,1
-199.0,14.0,-174.0,-13.0,62.0,-6.0,1
-202.0,14.0,-179.0,-14.0,64.0,-3.0,1
-199.0,13.0,-176.0,-16.0,63.0,-4.0,1
-197.0,14.0,-177.0,-16.0,63.0,-1.0,1
-200.0,16.0,-171.0,-13.0,61.0,-3.0,1
-198.0,13.0,-178.0,-13.0,59.0,-1.0,1
-199.0,16.0,-176.0,-13.0,59.0,-4.0,1
-201.0,13.0,-177.0,-11.0,59.0,-1.0,1
-200.0,15.0,-176.0,-11.0,61.0,-3.0,1
-200.0,15.0,-176.0,-11.0,62.0,-2.0,1
-198.0,16.0,-177.0,-14.0,62.0,-3.0,1
-200.0,13.0,-177.0,-16.0,62.0,-2.0,1
-198.0,16.0,-178.0,-16.0,61.0,-4.0,1
-197.0,13.0,-175.0,-16.0,57.0,-2.0,1
-202.0,15.0,-179.0,-15.0,54.0,-3.0,1
-202.0,15.0,-176.0,-11.0,51.0,-4.0,1
-199.0,13.0,-174.0,-10.0,52.0,-5.0,1
-198.0,13.0,-179.0,-7.0,58.0,-4.0,1
-197.0,12.0,-177.0,-6.0,65.0,-6.0,1
-197.0,15.0,-175.0,-7.0,67.0,-5.0,1
-200.0,12.0,-174.0,-8.0,70.0,-7.0,1
-199.0,13.0,-175.0,-9.0,71.0,-6.0,1
-200.0,18.0,-171.0,-12.0,70.0,-5.0,1
-199.0,15.0,-175.0,-11.0,68.0,-4.0,1
-201.0,13.0,-181.0,-12.0,61.0,-4.0,1
-201.0,15.0,-177.0,-11.0,58.0,-4.0,1
-201.0,15.0,-176.0,-10.0,56.0,-4.0,1
-200.0,14.0,-178.0,-11.0,55.0,-2.0,1
-200.0,15.0,-174.0,-13.0,55.0,-3.0,1
-199.0,14.0,-175.0,-14.0,58.0,1.0,1
-202.0,15.0,-177.0,-15.0,60.0,-2.0,1
-202.0,13.0,-176.0,-15.0,64.0,0.0,1
-199.0,13.0,-178.0,-16.0,69.0,-2.0,1
-201.0,12.0,-177.0,-16.0,70.0,-3.0,1
-201.0,12.0,-175.0,-14.0,71.0,-3.0,1
-200.0,15.0,-181.0,-14.0,70.0,-3.0,1
-199.0,12.0,-177.0,-14.0,69.0,-3.0,1
-201.0,14.0,-178.0,-15.0,66.0,-1.0,1
-200.0,16.0,-172.0,-17.0,63.0,-3.0,1
-199.0,15.0,-174.0,-16.0,62.0,-2.0,1
-201.0,13.0,-175.0,-16.0,63.0,-2.0,1
-199.0,17.0,-179.0,-16.0,67.0,-2.0,1
-200.0,15.0,-178.0,-15.0,67.0,-2.0,1
-197.0,17.0,-173.0,-16.0,68.0,-2.0,1
-198.0,12.0,-180.0,-14.0,69.0,-2.0,1
-199.0,16.0,-178.0,-14.0,68.0,-2.0,1
-199.0,13.0,-176.0,-14.0,68.0,-2.0,1
-200.0,15.0,-177.0,-12.0,68.0,-3.0,1
-200.0,13.0,-179.0,-14.0,66.0,-2.0,1
-198.0,14.0,-178.0,-13.0,65.0,-2.0,1
-198.0,15.0,-175.0,-13.0,66.0,-3.0,1
-198.0,11.0,-173.0,-12.0,66.0,-2.0,1
-199.0,17.0,-175.0,-12.0,68.0,-2.0,1
-199.0,14.0,-176.0,-12.0,68.0,-3.0,1
-197.0,14.0,-180.0,-11.0,67.0,-3.0,1
-199.0,15.0,-176.0,-11.0,67.0,-4.0,1
-198.0,12.0,-177.0,-11.0,67.0,-4.0,1
-198.0,14.0,-173.0,-10.0,66.0,-3.0,1
-200.0,14.0,-177.0,-11.0,65.0,-4.0,1
-200.0,16.0,-176.0,-9.0,66.0,-5.0,1
-199.0,15.0,-174.0,-10.0,64.0,-3.0,1
-203.0,13.0,-174.0,-10.0,65.0,-4.0,1
-200.0,14.0,-177.0,-11.0,66.0,-4.0,1
-201.0,16.0,-179.0,-10.0,65.0,-6.0,1
-198.0,15.0,-178.0,-10.0,64.0,-5.0,1
-199.0,14.0,-176.0,-10.0,61.0,-5.0,1
-199.0,13.0,-179.0,-11.0,62.0,-4.0,1
-198.0,14.0,-177.0,-11.0,58.0,-5.0,1
-197.0,15.0,-175.0,-12.0,58.0,-5.0,1
-199.0,15.0,-179.0,-13.0,57.0,-5.0,1
-197.0,13.0,-176.0,-14.0,57.0,-4.0,1
-199.0,16.0,-178.0,-15.0,56.0,-4.0,1
-201.0,17.0,-178.0,-13.0,55.0,-3.0,1
-196.0,12.0,-174.0,-14.0,53.0,-3.0,1
-200.0,17.0,-173.0,-16.0,52.0,-3.0,1
-200.0,16.0,-180.0,-15.0,50.0,-3.0,1
-198.0,14.0,-176.0,-15.0,50.0,-3.0,1
-200.0,14.0,-179.0,-12.0,51.0,-5.0,1
-201.0,13.0,-182.0,-13.0,50.0,-4.0,1
-201.0,14.0,-178.0,-14.0,49.0,-3.0,1
-202.0,15.0,-176.0,-14.0,47.0,-2.0,1
-200.0,12.0,-175.0,-16.0,50.0,-2.0,1
-200.0,14.0,-174.0,-18.0,50.0,-1.0,1
-200.0,16.0,-173.0,-20.0,50.0,-1.0,1
-199.0,13.0,-173.0,-22.0,53.0,0.0,1
-201.0,13.0,-179.0,-20.0,54.0,-2.0,1
-198.0,14.0,-176.0,-20.0,53.0,1.0,1
-198.0,15.0,-177.0,-19.0,52.0,-2.0,1
-198.0,13.0,-173.0,-18.0,56.0,-1.0,1
-201.0,16.0,-174.0,-17.0,58.0,-3.0,1
-201.0,16.0,-176.0,-17.0,61.0,-1.0,1
-201.0,13.0,-175.0,-15.0,63.0,-4.0,1
-201.0,15.0,-176.0,-14.0,66.0,-3.0,1
-199.0,13.0,-176.0,-14.0,69.0,-4.0,1
-198.0,14.0,-178.0,-14.0,70.0,-2.0,1
-203.0,15.0,-178.0,-14.0,72.0,-5.0,1
-200.0,13.0,-177.0,-12.0,72.0,-2.0,1
-200.0,16.0,-181.0,-12.0,71.0,-3.0,1
-200.0,15.0,-178.0,-13.0,68.0,-4.0,1
-197.0,14.0,-177.0,-14.0,67.0,-5.0,1
-200.0,14.0,-172.0,-13.0,65.0,-5.0,1
-202.0,15.0,-177.0,-12.0,65.0,-6.0,1
-200.0,15.0,-175.0,-11.0,66.0,-4.0,1
-198.0,13.0,-178.0,-9.0,67.0,-7.0,1
-198.0,14.0,-177.0,-7.0,67.0,-6.0,1
-199.0,18.0,-180.0,-7.0,67.0,-7.0,1
-202.0,14.0,-174.0,-8.0,67.0,-5.0,1
-202.0,13.0,-179.0,-8.0,66.0,-7.0,1
-199.0,13.0,-176.0,-10.0,66.0,-5.0,1
-200.0,14.0,-175.0,-8.0,69.0,-7.0,1
-200.0,12.0,-180.0,-9.0,67.0,-5.0,1
-196.0,15.0,-179.0,-8.0,67.0,-6.0,1
-199.0,15.0,-177.0,-8.0,67.0,-3.0,1
-200.0,17.0,-176.0,-9.0,66.0,-6.0,1
-201.0,16.0,-177.0,-9.0,63.0,-3.0,1
-199.0,15.0,-179.0,-10.0,62.0,-7.0,1
-199.0,13.0,-180.0,-10.0,63.0,-4.0,1
-199.0,13.0,-177.0,-9.0,60.0,-8.0,1
-201.0,14.0,-176.0,-8.0,57.0,-5.0,1
-199.0,13.0,-181.0,-8.0,55.0,-7.0,1
-199.0,14.0,-180.0,-8.0,54.0,-6.0,1
-201.0,13.0,-178.0,-9.0,54.0,-9.0,1
-196.0,14.0,-174.0,-11.0,56.0,-5.0,1
-199.0,14.0,-178.0,-12.0,57.0,-7.0,1
-199.0,15.0,-178.0,-14.0,59.0,-3.0,1
-200.0,18.0,-173.0,-16.0,60.0,-4.0,1
-198.0,13.0,-178.0,-17.0,60.0,0.0,1
-201.0,13.0,-174.0,-17.0,60.0,-2.0,1
-203.0,11.0,-177.0,-15.0,58.0,1.0,1
-195.0,24.0,-183.0,-16.0,58.0,-2.0,1
-198.0,13.0,-179.0,-15.0,56.0,0.0,1
-199.0,15.0,-179.0,-15.0,57.0,-3.0,1
-200.0,14.0,-176.0,-15.0,57.0,0.0,1
-199.0,14.0,-175.0,-15.0,58.0,-2.0,1
-200.0,14.0,-178.0,-17.0,58.0,-1.0,1
-198.0,16.0,-176.0,-19.0,58.0,-1.0,1
-197.0,15.0,-179.0,-21.0,59.0,2.0,1
-199.0,13.0,-173.0,-19.0,58.0,-1.0,1
-200.0,15.0,-179.0,-16.0,57.0,1.0,1
-199.0,15.0,-180.0,-13.0,56.0,-2.0,1
-198.0,13.0,-180.0,-13.0,61.0,-1.0,1
-202.0,16.0,-176.0,-15.0,63.0,-4.0,1
-199.0,14.0,-177.0,-15.0,63.0,-2.0,1
-198.0,14.0,-179.0,-13.0,64.0,-5.0,1
-199.0,13.0,-179.0,-10.0,65.0,-3.0,1
-202.0,16.0,-178.0,-11.0,67.0,-6.0,1
-196.0,12.0,-176.0,-13.0,67.0,-4.0,1
-197.0,13.0,-177.0,-12.0,65.0,-7.0,1
-197.0,15.0,-179.0,-11.0,61.0,-3.0,1
-199.0,13.0,-175.0,-10.0,58.0,-4.0,1
-198.0,9.0,-177.0,-11.0,55.0,-2.0,1
-200.0,14.0,-177.0,-12.0,55.0,-4.0,1
-200.0,11.0,-178.0,-13.0,55.0,0.0,1
-201.0,15.0,-176.0,-11.0,57.0,-3.0,1
-201.0,16.0,-175.0,-11.0,61.0,-1.0,1
-199.0,13.0,-178.0,-12.0,65.0,-5.0,1
-200.0,14.0,-177.0,-13.0,66.0,-3.0,1
-201.0,12.0,-174.0,-12.0,67.0,-5.0,1
-198.0,13.0,-178.0,-13.0,64.0,-2.0,1
-199.0,16.0,-174.0,-12.0,60.0,-5.0,1
-202.0,16.0,-173.0,-12.0,58.0,-3.0,1
-199.0,14.0,-179.0,-12.0,54.0,-6.0,1
-200.0,16.0,-179.0,-12.0,54.0,-3.0,1
-198.0,12.0,-176.0,-10.0,55.0,-5.0,1
-202.0,16.0,-175.0,-12.0,56.0,-4.0,1
-199.0,18.0,-178.0,-13.0,59.0,-6.0,1
-200.0,14.0,-175.0,-12.0,59.0,-4.0,1
-202.0,14.0,-179.0,-12.0,62.0,-6.0,1
-200.0,17.0,-178.0,-12.0,63.0,-4.0,1
-200.0,16.0,-175.0,-13.0,63.0,-4.0,1
-200.0,17.0,-179.0,-12.0,60.0,-3.0,1
-202.0,16.0,-178.0,-13.0,60.0,-6.0,1
-199.0,14.0,-179.0,-11.0,60.0,-5.0,1
-200.0,13.0,-179.0,-11.0,61.0,-6.0,1
-199.0,16.0,-173.0,-10.0,60.0,-4.0,1
-200.0,13.0,-175.0,-10.0,62.0,-6.0,1
-200.0,14.0,-176.0,-10.0,62.0,-4.0,1
-196.0,16.0,-173.0,-9.0,62.0,-5.0,1
-199.0,17.0,-176.0,-10.0,61.0,-4.0,1
-201.0,14.0,-178.0,-11.0,59.0,-5.0,1
-202.0,13.0,-176.0,-12.0,56.0,-4.0,1
-199.0,15.0,-179.0,-12.0,55.0,-5.0,1
-200.0,13.0,-178.0,-13.0,53.0,-4.0,1
-200.0,14.0,-176.0,-13.0,54.0,-4.0,1
-200.0,16.0,-171.0,-14.0,54.0,-3.0,1
-198.0,13.0,-176.0,-14.0,53.0,-5.0,1
-199.0,13.0,-178.0,-13.0,53.0,-3.0,1
-201.0,13.0,-177.0,-15.0,51.0,-5.0,1
-199.0,14.0,-175.0,-12.0,50.0,-3.0,1
-200.0,15.0,-178.0,-13.0,52.0,-5.0,1
-198.0,13.0,-176.0,-14.0,54.0,-4.0,1
-199.0,15.0,-176.0,-13.0,54.0,-4.0,1
-198.0,15.0,-174.0,-13.0,55.0,-2.0,1
-198.0,12.0,-176.0,-14.0,56.0,-4.0,1
-197.0,13.0,-181.0,-14.0,55.0,-3.0,1
-200.0,13.0,-178.0,-14.0,52.0,-4.0,1
-198.0,13.0,-178.0,-15.0,48.0,-5.0,1
-199.0,13.0,-175.0,-14.0,43.0,-5.0,1
-201.0,15.0,-180.0,-14.0,39.0,-5.0,1
-199.0,14.0,-178.0,-14.0,39.0,-7.0,1
-201.0,15.0,-178.0,-14.0,41.0,-5.0,1
-197.0,14.0,-177.0,-15.0,40.0,-5.0,1
-199.0,10.0,-177.0,-13.0,42.0,-4.0,1
-200.0,14.0,-173.0,-13.0,45.0,-4.0,1
-199.0,12.0,-174.0,-12.0,48.0,-4.0,1
-197.0,15.0,-176.0,-14.0,51.0,-2.0,1
-197.0,13.0,-173.0,-17.0,53.0,-1.0,1
-199.0,13.0,-174.0,-19.0,57.0,-1.0,1
-198.0,14.0,-179.0,-21.0,63.0,1.0,1
-199.0,17.0,-171.0,-21.0,71.0,1.0,1
-198.0,14.0,-175.0,-20.0,78.0,1.0,1
-200.0,15.0,-176.0,-20.0,83.0,1.0,1
-200.0,17.0,-174.0,-18.0,87.0,1.0,1
-199.0,12.0,-178.0,-16.0,88.0,-1.0,1
-201.0,13.0,-179.0,-15.0,86.0,-2.0,1
-200.0,12.0,-180.0,-14.0,84.0,-1.0,1
-201.0,18.0,-181.0,-12.0,77.0,-3.0,1
-205.0,19.0,-181.0,-11.0,72.0,-6.0,1
-205.0,19.0,-182.0,-7.0,71.0,-7.0,1
-203.0,16.0,-180.0,-4.0,71.0,-8.0,1
-204.0,18.0,-183.0,-4.0,67.0,-7.0,1
-201.0,10.0,-179.0,-2.0,60.0,-8.0,1
-204.0,13.0,-178.0,-2.0,54.0,-10.0,1
-199.0,13.0,-177.0,-1.0,52.0,-11.0,1
-200.0,12.0,-179.0,0.0,53.0,-11.0,1
-199.0,14.0,-176.0,-3.0,54.0,-10.0,1
-197.0,14.0,-177.0,-7.0,52.0,-7.0,1
-199.0,11.0,-179.0,-11.0,45.0,-5.0,1
-199.0,14.0,-179.0,-14.0,41.0,-5.0,1
-200.0,14.0,-176.0,-14.0,41.0,-4.0,1
-199.0,14.0,-174.0,-12.0,43.0,-7.0,1
-199.0,14.0,-176.0,-11.0,45.0,-8.0,1
-201.0,15.0,-175.0,-10.0,46.0,-8.0,1
-197.0,11.0,-178.0,-10.0,47.0,-6.0,1
-199.0,16.0,-179.0,-9.0,48.0,-7.0,1
-198.0,13.0,-175.0,-10.0,49.0,-6.0,1
-201.0,14.0,-178.0,-8.0,49.0,-9.0,1
-200.0,11.0,-175.0,-10.0,51.0,-8.0,1
-199.0,13.0,-173.0,-10.0,56.0,-6.0,1
-199.0,13.0,-176.0,-11.0,61.0,-3.0,1
-197.0,12.0,-174.0,-14.0,62.0,-2.0,1
-199.0,12.0,-174.0,-15.0,62.0,0.0,1
-198.0,11.0,-177.0,-19.0,61.0,1.0,1
-199.0,14.0,-175.0,-21.0,60.0,4.0,1
-200.0,15.0,-176.0,-23.0,57.0,2.0,1
-198.0,17.0,-176.0,-24.0,55.0,4.0,1
-201.0,15.0,-175.0,-23.0,56.0,1.0,1
-200.0,14.0,-177.0,-19.0,60.0,0.0,1
-199.0,15.0,-174.0,-18.0,64.0,-2.0,1
-200.0,15.0,-176.0,-16.0,66.0,1.0,1
-200.0,16.0,-177.0,-16.0,67.0,0.0,1
-198.0,12.0,-173.0,-16.0,68.0,3.0,1
-197.0,15.0,-172.0,-16.0,71.0,2.0,1
-198.0,15.0,-171.0,-18.0,74.0,6.0,1
-201.0,15.0,-178.0,-22.0,77.0,5.0,1
-200.0,15.0,-177.0,-26.0,76.0,9.0,1
-199.0,14.0,-174.0,-30.0,76.0,9.0,1
-201.0,18.0,-179.0,-31.0,75.0,9.0,1
-202.0,18.0,-175.0,-27.0,72.0,7.0,1
-200.0,16.0,-184.0,-22.0,71.0,5.0,1
-199.0,16.0,-176.0,-14.0,70.0,1.0,1
-201.0,13.0,-181.0,-9.0,74.0,0.0,1
-201.0,11.0,-179.0,-10.0,78.0,-4.0,1
-203.0,14.0,-173.0,-11.0,81.0,-1.0,1
-198.0,16.0,-177.0,-11.0,83.0,-3.0,1
-201.0,13.0,-176.0,-13.0,85.0,1.0,1
-198.0,15.0,-173.0,-13.0,87.0,0.0,1
-201.0,13.0,-175.0,-16.0,86.0,1.0,1
-198.0,13.0,-179.0,-15.0,85.0,-2.0,1
-200.0,16.0,-177.0,-16.0,82.0,0.0,1
-198.0,14.0,-181.0,-15.0,79.0,-1.0,1
-201.0,14.0,-180.0,-15.0,75.0,-1.0,1
-200.0,17.0,-181.0,-12.0,72.0,-5.0,1
-199.0,17.0,-170.0,-9.0,70.0,-3.0,1
-197.0,17.0,-179.0,-7.0,70.0,-7.0,1
-199.0,12.0,-177.0,-3.0,73.0,-6.0,1
-199.0,18.0,-179.0,-2.0,74.0,-9.0,1
-202.0,18.0,-176.0,0.0,79.0,-7.0,1
-200.0,13.0,-175.0,2.0,81.0,-11.0,1
-201.0,16.0,-176.0,1.0,80.0,-10.0,1
-201.0,14.0,-179.0,-1.0,81.0,-11.0,1
-197.0,13.0,-176.0,-4.0,80.0,-7.0,1
-194.0,14.0,-179.0,-6.0,76.0,-8.0,1
-199.0,13.0,-182.0,-9.0,71.0,-4.0,1
-199.0,15.0,-181.0,-10.0,64.0,-7.0,1
-200.0,16.0,-178.0,-11.0,58.0,-5.0,1
-200.0,18.0,-174.0,-7.0,57.0,-9.0,1
-199.0,15.0,-177.0,-5.0,58.0,-9.0,1
-200.0,15.0,-176.0,-2.0,62.0,-13.0,1
-200.0,14.0,-175.0,0.0,65.0,-12.0,1
-197.0,14.0,-179.0,2.0,67.0,-14.0,1
-197.0,16.0,-177.0,2.0,67.0,-13.0,1
-197.0,14.0,-174.0,1.0,69.0,-13.0,1
-197.0,14.0,-174.0,0.0,68.0,-10.0,1
-202.0,16.0,-177.0,-4.0,71.0,-11.0,1
-197.0,11.0,-176.0,-6.0,74.0,-9.0,1
-198.0,14.0,-177.0,-8.0,75.0,-9.0,1
-200.0,16.0,-173.0,-11.0,76.0,-6.0,1
-199.0,15.0,-179.0,-12.0,76.0,-8.0,1
-199.0,15.0,-178.0,-10.0,75.0,-7.0,1
-197.0,12.0,-180.0,-7.0,73.0,-10.0,1
-199.0,13.0,-178.0,-4.0,75.0,-9.0,1
-201.0,10.0,-182.0,-1.0,76.0,-14.0,1
-200.0,14.0,-179.0,1.0,78.0,-12.0,1
-199.0,12.0,-180.0,3.0,79.0,-14.0,1
-197.0,12.0,-177.0,2.0,80.0,-11.0,1
-197.0,11.0,-176.0,2.0,77.0,-13.0,1
-198.0,15.0,-178.0,0.0,73.0,-10.0,1
-200.0,13.0,-175.0,-2.0,68.0,-13.0,1
-197.0,13.0,-178.0,-5.0,62.0,-9.0,1
-200.0,10.0,-181.0,-7.0,56.0,-11.0,1
-199.0,12.0,-179.0,-8.0,50.0,-8.0,1
-202.0,14.0,-173.0,-9.0,47.0,-10.0,1
-198.0,14.0,-177.0,-8.0,45.0,-8.0,1
-199.0,17.0,-179.0,-6.0,46.0,-10.0,1
-200.0,13.0,-177.0,-7.0,44.0,-7.0,1
-200.0,11.0,-177.0,-5.0,43.0,-10.0,1
-199.0,14.0,-176.0,-4.0,41.0,-7.0,1
-200.0,15.0,-178.0,-4.0,42.0,-10.0,1
-200.0,13.0,-172.0,-4.0,41.0,-6.0,1
-199.0,14.0,-176.0,-7.0,41.0,-7.0,1
-198.0,15.0,-176.0,-11.0,43.0,-4.0,1
-199.0,13.0,-176.0,-13.0,44.0,-5.0,1
-200.0,15.0,-177.0,-16.0,46.0,-3.0,1
-201.0,14.0,-175.0,-18.0,47.0,-3.0,1
-200.0,14.0,-178.0,-18.0,44.0,0.0,1
-200.0,13.0,-181.0,-17.0,41.0,-2.0,1
-199.0,15.0,-181.0,-13.0,40.0,-2.0,1
-199.0,12.0,-177.0,-11.0,38.0,-7.0,1
-201.0,15.0,-176.0,-7.0,36.0,-4.0,1
-201.0,15.0,-177.0,-6.0,34.0,-7.0,1
-200.0,15.0,-175.0,-4.0,34.0,-6.0,1
-199.0,12.0,-177.0,-3.0,34.0,-6.0,1
-199.0,13.0,-180.0,-5.0,35.0,-3.0,1
-201.0,12.0,-176.0,-6.0,35.0,-5.0,1
-201.0,15.0,-175.0,-10.0,39.0,-3.0,1
-198.0,12.0,-173.0,-13.0,44.0,-3.0,1
-199.0,15.0,-174.0,-17.0,48.0,-2.0,1
-196.0,13.0,-173.0,-19.0,55.0,-2.0,1
-198.0,16.0,-178.0,-22.0,57.0,1.0,1
-198.0,9.0,-180.0,-23.0,59.0,1.0,1
-198.0,15.0,-178.0,-24.0,57.0,3.0,1
-199.0,15.0,-178.0,-20.0,60.0,-2.0,1
-201.0,15.0,-179.0,-17.0,62.0,-2.0,1
-200.0,14.0,-178.0,-8.0,67.0,-6.0,1
-199.0,13.0,-180.0,-5.0,71.0,-6.0,1
-200.0,13.0,-177.0,-2.0,73.0,-8.0,1
-200.0,14.0,-177.0,-1.0,73.0,-8.0,1
-200.0,15.0,-176.0,0.0,73.0,-9.0,1
-198.0,12.0,-177.0,-4.0,72.0,-7.0,1
-200.0,11.0,-174.0,-6.0,72.0,-7.0,1
-199.0,14.0,-177.0,-11.0,72.0,-3.0,1
-196.0,13.0,-172.0,-16.0,74.0,-3.0,1
-198.0,14.0,-173.0,-20.0,73.0,0.0,1
-199.0,15.0,-178.0,-22.0,73.0,1.0,1
-198.0,18.0,-174.0,-22.0,74.0,2.0,1
-198.0,13.0,-173.0,-19.0,76.0,0.0,1
-197.0,14.0,-180.0,-16.0,79.0,-2.0,1
-201.0,14.0,-179.0,-10.0,84.0,-5.0,1
-201.0,14.0,-177.0,-4.0,91.0,-6.0,1
-199.0,13.0,-174.0,0.0,97.0,-10.0,1
-198.0,13.0,-174.0,2.0,103.0,-10.0,1
-198.0,14.0,-171.0,2.0,108.0,-12.0,1
-196.0,13.0,-174.0,-1.0,114.0,-9.0,1
-197.0,14.0,-173.0,-6.0,121.0,-10.0,1
-199.0,14.0,-175.0,-10.0,126.0,-6.0,1
-196.0,10.0,-177.0,-15.0,133.0,-5.0,1
-196.0,11.0,-175.0,-17.0,137.0,-2.0,1
-199.0,13.0,-171.0,-19.0,146.0,-1.0,1
-198.0,13.0,-175.0,-19.0,149.0,1.0,1
-199.0,13.0,-177.0,-17.0,154.0,1.0,1
-200.0,13.0,-178.0,-16.0,160.0,0.0,1
-197.0,12.0,-177.0,-16.0,164.0,-1.0,1
-199.0,11.0,-183.0,-15.0,167.0,-1.0,1
-199.0,15.0,-178.0,-14.0,170.0,-1.0,1
-198.0,9.0,-180.0,-15.0,170.0,1.0,1
-198.0,12.0,-182.0,-14.0,166.0,2.0,1
-201.0,12.0,-181.0,-13.0,160.0,1.0,1
-198.0,11.0,-182.0,-10.0,151.0,1.0,1
-190.0,11.0,-184.0,-7.0,146.0,2.0,1
-191.0,31.0,-188.0,-9.0,140.0,0.0,1
-202.0,18.0,-189.0,-11.0,132.0,2.0,1
-192.0,11.0,-167.0,-13.0,126.0,3.0,1
-198.0,17.0,-182.0,-14.0,121.0,2.0,1
-199.0,14.0,-183.0,-13.0,116.0,1.0,1
-196.0,16.0,-179.0,-12.0,112.0,1.0,1
-197.0,12.0,-176.0,-11.0,106.0,0.0,1
-197.0,15.0,-179.0,-7.0,101.0,-3.0,1
-198.0,15.0,-180.0,-6.0,96.0,-2.0,1
-196.0,14.0,-179.0,-5.0,90.0,-2.0,1
-197.0,13.0,-178.0,-1.0,87.0,-2.0,1
-195.0,12.0,-178.0,-2.0,83.0,-3.0,1
-197.0,15.0,-178.0,-3.0,80.0,-3.0,1
-195.0,15.0,-182.0,-4.0,78.0,-3.0,1
-198.0,13.0,-181.0,-7.0,79.0,-2.0,1
-197.0,14.0,-182.0,-10.0,81.0,-2.0,1
-195.0,13.0,-179.0,-12.0,83.0,-1.0,1
-194.0,15.0,-179.0,-14.0,87.0,-1.0,1
-194.0,11.0,-177.0,-15.0,90.0,0.0,1
-194.0,12.0,-178.0,-13.0,94.0,0.0,1
-193.0,10.0,-181.0,-14.0,98.0,2.0,1
-182.0,7.0,-180.0,-5.0,107.0,6.0,1
-130.0,-38.0,-163.0,58.0,215.0,3.0,1
-263.0,13.0,-182.0,247.0,374.0,110.0,1
-202.0,46.0,-188.0,158.0,286.0,151.0,1
-182.0,32.0,-167.0,-6.0,222.0,67.0,1
-191.0,16.0,-186.0,-4.0,163.0,14.0,1
-201.0,6.0,-189.0,9.0,110.0,-12.0,1
-195.0,6.0,-181.0,-4.0,81.0,-7.0,1
-193.0,16.0,-179.0,-18.0,75.0,1.0,1
-198.0,17.0,-183.0,-19.0,75.0,2.0,1
-198.0,15.0,-181.0,-16.0,74.0,0.0,1
-198.0,13.0,-182.0,-16.0,75.0,-1.0,1
-198.0,12.0,-182.0,-17.0,76.0,1.0,1
-194.0,15.0,-184.0,-19.0,75.0,3.0,1
-195.0,15.0,-182.0,-16.0,74.0,0.0,1
-197.0,14.0,-183.0,-14.0,74.0,-1.0,1
-195.0,15.0,-184.0,-14.0,70.0,-3.0,1
-196.0,12.0,-183.0,-13.0,66.0,-2.0,1
-195.0,13.0,-181.0,-14.0,66.0,-4.0,1
-195.0,12.0,-182.0,-12.0,66.0,-4.0,1
-197.0,15.0,-182.0,-13.0,63.0,-6.0,1
-194.0,12.0,-179.0,-15.0,63.0,-4.0,1
-196.0,15.0,-178.0,-14.0,62.0,-6.0,1
-196.0,13.0,-180.0,-13.0,62.0,-6.0,1
-195.0,13.0,-180.0,-12.0,63.0,-8.0,1
-195.0,12.0,-180.0,-10.0,63.0,-5.0,1
-195.0,11.0,-181.0,-10.0,64.0,-7.0,1
-197.0,12.0,-181.0,-10.0,62.0,-6.0,1
-197.0,14.0,-181.0,-8.0,62.0,-7.0,1
-197.0,15.0,-182.0,-7.0,60.0,-7.0,1
-193.0,13.0,-181.0,-8.0,58.0,-8.0,1
-199.0,14.0,-185.0,-11.0,59.0,-6.0,1
-195.0,15.0,-179.0,-10.0,57.0,-6.0,1
-196.0,12.0,-181.0,-11.0,57.0,-3.0,1
-196.0,11.0,-179.0,-12.0,57.0,-6.0,1
-195.0,13.0,-179.0,-12.0,58.0,-3.0,1
-195.0,12.0,-179.0,-11.0,58.0,-4.0,1
-194.0,11.0,-180.0,-11.0,55.0,-3.0,1
-197.0,15.0,-179.0,-11.0,54.0,-6.0,1
-195.0,12.0,-179.0,-9.0,54.0,-5.0,1
-194.0,12.0,-180.0,-9.0,57.0,-7.0,1
-194.0,12.0,-183.0,-10.0,57.0,-3.0,1
-193.0,14.0,-179.0,-11.0,58.0,-5.0,1
-194.0,14.0,-182.0,-12.0,58.0,-2.0,1
-194.0,11.0,-177.0,-11.0,59.0,-5.0,1
-194.0,13.0,-181.0,-12.0,60.0,-2.0,1
-194.0,14.0,-184.0,-11.0,62.0,-4.0,1
-196.0,14.0,-178.0,-12.0,61.0,-3.0,1
-193.0,14.0,-179.0,-13.0,61.0,-4.0,1
-194.0,13.0,-183.0,-13.0,60.0,-2.0,1
-193.0,11.0,-183.0,-12.0,60.0,-4.0,1
-197.0,11.0,-182.0,-13.0,61.0,-1.0,1
-194.0,14.0,-182.0,-14.0,61.0,-4.0,1
-195.0,11.0,-181.0,-13.0,63.0,-2.0,1
-194.0,12.0,-176.0,-13.0,64.0,-4.0,1
-194.0,11.0,-184.0,-14.0,65.0,0.0,1
-196.0,13.0,-182.0,-15.0,65.0,-3.0,1
-192.0,11.0,-179.0,-15.0,64.0,-2.0,1
-196.0,14.0,-180.0,-15.0,63.0,-3.0,1
-196.0,13.0,-182.0,-14.0,62.0,-2.0,1
-193.0,11.0,-184.0,-13.0,63.0,-4.0,1
-193.0,11.0,-182.0,-13.0,62.0,-3.0,1
-196.0,13.0,-178.0,-12.0,59.0,-5.0,1
-196.0,12.0,-182.0,-12.0,57.0,-2.0,1
-195.0,11.0,-182.0,-12.0,56.0,-6.0,1
-196.0,14.0,-181.0,-11.0,54.0,-2.0,1
-196.0,11.0,-179.0,-10.0,56.0,-4.0,1
-195.0,12.0,-182.0,-9.0,55.0,-3.0,1
-199.0,12.0,-181.0,-9.0,57.0,-5.0,1
-194.0,14.0,-180.0,-12.0,58.0,-2.0,1
-194.0,13.0,-179.0,-12.0,60.0,-6.0,1
-196.0,12.0,-180.0,-12.0,61.0,-3.0,1
-196.0,13.0,-181.0,-13.0,61.0,-5.0,1
-195.0,11.0,-181.0,-12.0,62.0,-2.0,1
-194.0,13.0,-180.0,-13.0,61.0,-5.0,1
-194.0,12.0,-182.0,-13.0,63.0,-2.0,1
-196.0,14.0,-184.0,-12.0,64.0,-5.0,1
-194.0,14.0,-179.0,-11.0,64.0,-3.0,1
-194.0,14.0,-178.0,-11.0,65.0,-5.0,1
-197.0,13.0,-182.0,-12.0,64.0,-2.0,1
-195.0,16.0,-182.0,-11.0,62.0,-5.0,1
-193.0,14.0,-183.0,-13.0,62.0,-3.0,1
-196.0,14.0,-184.0,-12.0,60.0,-5.0,1
-196.0,15.0,-183.0,-12.0,61.0,-3.0,1
-196.0,15.0,-181.0,-12.0,61.0,-4.0,1
-193.0,13.0,-181.0,-12.0,61.0,-3.0,1
-195.0,14.0,-181.0,-10.0,61.0,-5.0,1
-194.0,15.0,-181.0,-10.0,64.0,-4.0,1
-196.0,14.0,-182.0,-7.0,66.0,-6.0,1
-196.0,12.0,-180.0,-8.0,69.0,-4.0,1
-194.0,11.0,-180.0,-9.0,71.0,-8.0,1
-197.0,13.0,-179.0,-10.0,71.0,-4.0,1
-195.0,11.0,-184.0,-12.0,71.0,-5.0,1
-193.0,11.0,-179.0,-10.0,68.0,-2.0,1
-195.0,14.0,-181.0,-10.0,65.0,-4.0,1
-195.0,11.0,-181.0,-10.0,62.0,-3.0,1
-196.0,16.0,-180.0,-9.0,61.0,-6.0,1
-197.0,13.0,-182.0,-11.0,59.0,-2.0,1
-193.0,13.0,-180.0,-14.0,61.0,-4.0,1
-195.0,14.0,-181.0,-13.0,63.0,-2.0,1
-194.0,11.0,-183.0,-14.0,62.0,-5.0,1
-196.0,15.0,-184.0,-15.0,61.0,-2.0,1
-195.0,14.0,-183.0,-16.0,59.0,-1.0,1
-192.0,14.0,-183.0,-16.0,56.0,0.0,1
-195.0,13.0,-184.0,-13.0,53.0,-4.0,1
-196.0,15.0,-181.0,-12.0,52.0,-2.0,1
-194.0,12.0,-181.0,-11.0,52.0,-5.0,1
-195.0,15.0,-183.0,-11.0,54.0,-3.0,1
-195.0,11.0,-179.0,-10.0,55.0,-5.0,1
-194.0,13.0,-183.0,-10.0,56.0,-2.0,1
-195.0,14.0,-180.0,-11.0,57.0,-4.0,1
-195.0,13.0,-180.0,-11.0,56.0,-2.0,1
-194.0,11.0,-182.0,-11.0,57.0,-5.0,1
-198.0,13.0,-181.0,-12.0,57.0,-3.0,1
-196.0,16.0,-183.0,-13.0,57.0,-4.0,1
-195.0,12.0,-183.0,-11.0,56.0,-2.0,1
-195.0,12.0,-179.0,-12.0,55.0,-4.0,1
-194.0,11.0,-181.0,-10.0,54.0,-2.0,1
-194.0,12.0,-180.0,-10.0,56.0,-4.0,1
-198.0,14.0,-182.0,-10.0,59.0,-2.0,1
-196.0,12.0,-182.0,-11.0,61.0,-4.0,1
-195.0,13.0,-182.0,-10.0,63.0,-3.0,1
-198.0,13.0,-184.0,-10.0,62.0,-5.0,1
-196.0,15.0,-180.0,-11.0,61.0,-4.0,1
-193.0,12.0,-183.0,-10.0,61.0,-4.0,1
-194.0,13.0,-182.0,-10.0,58.0,-4.0,1
-195.0,11.0,-184.0,-9.0,54.0,-4.0,1
-196.0,11.0,-181.0,-11.0,54.0,-3.0,1
-197.0,13.0,-181.0,-13.0,54.0,-4.0,1
-195.0,14.0,-180.0,-13.0,55.0,-3.0,1
-195.0,14.0,-182.0,-14.0,58.0,-5.0,1
-196.0,14.0,-179.0,-13.0,58.0,-3.0,1
-195.0,13.0,-182.0,-14.0,58.0,-2.0,1
-194.0,12.0,-181.0,-15.0,59.0,-1.0,1
-193.0,15.0,-177.0,-15.0,58.0,-1.0,1
-193.0,14.0,-179.0,-12.0,60.0,-2.0,1
-194.0,10.0,-184.0,-10.0,60.0,-3.0,1
-199.0,12.0,-182.0,-8.0,61.0,-2.0,1
-193.0,13.0,-184.0,-9.0,62.0,-5.0,1
-194.0,12.0,-181.0,-8.0,60.0,-3.0,1
-194.0,14.0,-179.0,-10.0,60.0,-4.0,1
-195.0,13.0,-180.0,-10.0,61.0,-3.0,1
-195.0,13.0,-177.0,-10.0,61.0,-4.0,1
-195.0,16.0,-182.0,-11.0,62.0,-3.0,1
-195.0,10.0,-176.0,-12.0,62.0,-3.0,1
-194.0,13.0,-179.0,-12.0,64.0,-2.0,1
-197.0,14.0,-178.0,-12.0,65.0,-3.0,1
-195.0,13.0,-182.0,-11.0,68.0,-2.0,1
-194.0,13.0,-182.0,-12.0,67.0,-2.0,1
-196.0,12.0,-180.0,-14.0,65.0,-1.0,1
-193.0,11.0,-180.0,-15.0,66.0,-2.0,1
-196.0,14.0,-182.0,-14.0,66.0,-2.0,1
-196.0,13.0,-182.0,-13.0,65.0,-3.0,1
-195.0,15.0,-183.0,-11.0,66.0,-2.0,1
-198.0,14.0,-183.0,-9.0,64.0,-3.0,1
-197.0,14.0,-185.0,-11.0,61.0,-4.0,1
-195.0,11.0,-182.0,-11.0,60.0,-3.0,1
-195.0,14.0,-183.0,-11.0,60.0,-1.0,1
-194.0,12.0,-178.0,-11.0,58.0,-2.0,1
-197.0,16.0,-184.0,-11.0,58.0,-2.0,1
-196.0,13.0,-182.0,-11.0,56.0,-2.0,1
-196.0,16.0,-180.0,-12.0,57.0,-2.0,1
-195.0,14.0,-180.0,-14.0,58.0,-3.0,1
-195.0,16.0,-181.0,-15.0,60.0,-2.0,1
-197.0,11.0,-180.0,-15.0,60.0,-3.0,1
-193.0,13.0,-182.0,-16.0,59.0,-3.0,1
-196.0,13.0,-184.0,-12.0,59.0,-2.0,1
-195.0,13.0,-178.0,-11.0,58.0,-3.0,1
-196.0,11.0,-182.0,-13.0,58.0,-4.0,1
-195.0,11.0,-185.0,-15.0,57.0,-2.0,1
-192.0,14.0,-181.0,-15.0,57.0,-2.0,1
-193.0,12.0,-185.0,-13.0,57.0,-3.0,1
-195.0,14.0,-182.0,-12.0,57.0,-4.0,1
-198.0,13.0,-180.0,-12.0,59.0,-3.0,1
-196.0,14.0,-182.0,-12.0,61.0,-3.0,1
-194.0,12.0,-178.0,-12.0,64.0,-4.0,1
-194.0,13.0,-179.0,-11.0,65.0,-4.0,1
-197.0,13.0,-179.0,-11.0,64.0,-4.0,1
-194.0,14.0,-180.0,-11.0,68.0,-5.0,1
-196.0,14.0,-180.0,-11.0,67.0,-6.0,1
-194.0,11.0,-181.0,-12.0,69.0,-5.0,1
-198.0,13.0,-179.0,-12.0,75.0,-5.0,1
-196.0,15.0,-178.0,-13.0,77.0,-5.0,1
-195.0,12.0,-182.0,-12.0,79.0,-6.0,1
-196.0,14.0,-184.0,-13.0,78.0,-5.0,1
-193.0,11.0,-183.0,-12.0,78.0,-6.0,1
-196.0,13.0,-183.0,-12.0,76.0,-4.0,1
-194.0,14.0,-183.0,-12.0,74.0,-4.0,1
-193.0,10.0,-177.0,-12.0,74.0,-3.0,1
-196.0,12.0,-179.0,-14.0,73.0,-3.0,1
-194.0,13.0,-182.0,-15.0,74.0,-3.0,1
-194.0,15.0,-184.0,-15.0,74.0,-3.0,1
-197.0,13.0,-183.0,-15.0,74.0,-1.0,1
-195.0,12.0,-183.0,-16.0,72.0,-3.0,1
-195.0,11.0,-180.0,-16.0,71.0,0.0,1
-196.0,12.0,-179.0,-17.0,72.0,-1.0,1
-194.0,11.0,-180.0,-19.0,71.0,0.0,1
-196.0,13.0,-179.0,-19.0,70.0,-1.0,1
-194.0,12.0,-182.0,-19.0,71.0,1.0,1
-193.0,12.0,-183.0,-20.0,71.0,1.0,1
-197.0,14.0,-177.0,-19.0,71.0,2.0,1
-194.0,13.0,-183.0,-20.0,72.0,0.0,1
-195.0,12.0,-181.0,-19.0,72.0,2.0,1
-195.0,14.0,-183.0,-17.0,73.0,1.0,1
-197.0,16.0,-179.0,-19.0,72.0,4.0,1
-196.0,14.0,-181.0,-20.0,73.0,1.0,1
-195.0,15.0,-183.0,-19.0,76.0,2.0,1
-195.0,11.0,-181.0,-18.0,77.0,2.0,1
-196.0,17.0,-181.0,-18.0,77.0,3.0,1
-192.0,11.0,-183.0,-19.0,78.0,2.0,1
-194.0,15.0,-180.0,-19.0,80.0,4.0,1
-193.0,12.0,-183.0,-19.0,80.0,2.0,1
-194.0,12.0,-181.0,-20.0,82.0,4.0,1
-193.0,13.0,-179.0,-20.0,81.0,3.0,1
-195.0,15.0,-178.0,-21.0,80.0,3.0,1
-193.0,14.0,-182.0,-21.0,82.0,1.0,1
-194.0,13.0,-181.0,-21.0,81.0,1.0,1
-197.0,15.0,-184.0,-20.0,83.0,0.0,1
-194.0,12.0,-182.0,-20.0,85.0,0.0,1
-195.0,10.0,-182.0,-18.0,84.0,-3.0,1
-195.0,11.0,-179.0,-17.0,84.0,0.0,1
-196.0,14.0,-183.0,-17.0,85.0,-2.0,1
-195.0,12.0,-179.0,-17.0,87.0,0.0,1
-193.0,15.0,-181.0,-18.0,90.0,-1.0,1
-194.0,12.0,-182.0,-17.0,94.0,0.0,1
-193.0,9.0,-182.0,-21.0,96.0,-1.0,1
-196.0,12.0,-183.0,-23.0,96.0,1.0,1
-194.0,11.0,-183.0,-22.0,95.0,0.0,1
-194.0,11.0,-182.0,-22.0,93.0,3.0,1
-193.0,11.0,-182.0,-22.0,93.0,1.0,1
-197.0,15.0,-183.0,-21.0,92.0,4.0,1
-197.0,16.0,-183.0,-22.0,93.0,2.0,1
-195.0,13.0,-184.0,-21.0,92.0,6.0,1
-193.0,11.0,-186.0,-21.0,93.0,2.0,1
-194.0,15.0,-185.0,-22.0,93.0,6.0,1
-193.0,12.0,-183.0,-23.0,91.0,4.0,1
-192.0,15.0,-183.0,-26.0,87.0,7.0,1
-195.0,13.0,-183.0,-26.0,81.0,5.0,1
-194.0,12.0,-184.0,-24.0,75.0,7.0,1
-193.0,13.0,-185.0,-21.0,72.0,3.0,1
-195.0,15.0,-184.0,-18.0,69.0,4.0,1
-194.0,13.0,-184.0,-17.0,69.0,1.0,1
-194.0,12.0,-182.0,-17.0,71.0,3.0,1
-192.0,14.0,-183.0,-16.0,72.0,0.0,1
-193.0,13.0,-183.0,-15.0,72.0,2.0,1
-194.0,11.0,-183.0,-15.0,70.0,0.0,1
-193.0,14.0,-183.0,-15.0,72.0,3.0,1
-192.0,14.0,-183.0,-15.0,72.0,-1.0,1
-196.0,14.0,-184.0,-15.0,70.0,2.0,1
-194.0,16.0,-180.0,-15.0,68.0,0.0,1
-193.0,15.0,-181.0,-12.0,66.0,2.0,1
-196.0,15.0,-182.0,-14.0,65.0,1.0,1
-194.0,14.0,-184.0,-16.0,66.0,5.0,1
-196.0,17.0,-180.0,-17.0,69.0,3.0,1
-194.0,11.0,-185.0,-18.0,74.0,5.0,1
-193.0,11.0,-179.0,-19.0,76.0,3.0,1
-193.0,14.0,-183.0,-21.0,76.0,6.0,1
-196.0,14.0,-185.0,-21.0,74.0,3.0,1
-197.0,15.0,-185.0,-21.0,71.0,5.0,1
-193.0,14.0,-184.0,-20.0,69.0,3.0,1
-194.0,14.0,-184.0,-19.0,68.0,5.0,1
-194.0,14.0,-184.0,-20.0,66.0,3.0,1
-194.0,11.0,-183.0,-18.0,64.0,6.0,1
-193.0,12.0,-184.0,-19.0,65.0,3.0,1
-194.0,15.0,-182.0,-20.0,66.0,5.0,1
-194.0,13.0,-183.0,-17.0,65.0,3.0,1
-192.0,12.0,-185.0,-16.0,66.0,4.0,1
-196.0,13.0,-183.0,-14.0,67.0,1.0,1
-190.0,14.0,-183.0,-14.0,66.0,2.0,1
-194.0,12.0,-183.0,-14.0,68.0,-1.0,1
-196.0,15.0,-182.0,-14.0,69.0,2.0,1
-191.0,17.0,-186.0,-13.0,70.0,-1.0,1
-192.0,15.0,-179.0,-12.0,69.0,1.0,1
-195.0,14.0,-180.0,-13.0,68.0,-1.0,1
-192.0,12.0,-182.0,-13.0,66.0,0.0,1
-193.0,11.0,-183.0,-12.0,63.0,-2.0,1
-192.0,13.0,-181.0,-14.0,65.0,-2.0,1
-195.0,14.0,-186.0,-13.0,65.0,-3.0,1
-192.0,12.0,-182.0,-12.0,68.0,1.0,1
-195.0,13.0,-182.0,-11.0,69.0,-2.0,1
-196.0,14.0,-184.0,-12.0,69.0,0.0,1
-193.0,14.0,-183.0,-13.0,71.0,-1.0,1
-194.0,14.0,-181.0,-14.0,72.0,2.0,1
-196.0,17.0,-182.0,-13.0,73.0,0.0,1
-195.0,15.0,-179.0,-16.0,77.0,2.0,1
-193.0,14.0,-183.0,-16.0,79.0,1.0,1
-193.0,15.0,-182.0,-16.0,81.0,2.0,1
-191.0,15.0,-184.0,-16.0,83.0,2.0,1
-195.0,13.0,-183.0,-17.0,84.0,3.0,1
-197.0,15.0,-181.0,-17.0,83.0,1.0,1
-191.0,13.0,-181.0,-13.0,81.0,3.0,1
-193.0,15.0,-184.0,-14.0,77.0,1.0,1
-195.0,12.0,-184.0,-14.0,76.0,2.0,1
-193.0,15.0,-184.0,-14.0,78.0,0.0,1
-196.0,17.0,-185.0,-14.0,77.0,1.0,1
-195.0,16.0,-184.0,-15.0,77.0,0.0,1
-194.0,14.0,-184.0,-14.0,78.0,1.0,1
-192.0,13.0,-183.0,-18.0,77.0,0.0,1
-194.0,12.0,-184.0,-17.0,74.0,3.0,1
-190.0,13.0,-184.0,-18.0,71.0,1.0,1
-193.0,11.0,-182.0,-16.0,71.0,2.0,1
-196.0,14.0,-185.0,-14.0,72.0,0.0,1
-193.0,11.0,-182.0,-13.0,72.0,1.0,1
-194.0,17.0,-182.0,-12.0,73.0,-1.0,1
-195.0,14.0,-182.0,-12.0,73.0,0.0,1
-193.0,14.0,-182.0,-12.0,73.0,-1.0,1
-193.0,14.0,-184.0,-12.0,70.0,0.0,1
-193.0,14.0,-183.0,-13.0,69.0,0.0,1
-190.0,11.0,-181.0,-15.0,70.0,3.0,1
-195.0,15.0,-182.0,-18.0,71.0,2.0,1
-194.0,12.0,-184.0,-18.0,73.0,4.0,1
-194.0,15.0,-185.0,-17.0,73.0,2.0,1
-192.0,14.0,-183.0,-18.0,75.0,4.0,1
-193.0,13.0,-187.0,-18.0,75.0,3.0,1
-193.0,15.0,-184.0,-18.0,74.0,3.0,1
-194.0,14.0,-182.0,-18.0,75.0,3.0,1
-192.0,14.0,-182.0,-18.0,78.0,4.0,1
-193.0,13.0,-183.0,-16.0,77.0,3.0,1
-192.0,16.0,-184.0,-15.0,77.0,4.0,1
-192.0,14.0,-181.0,-15.0,76.0,2.0,1
-192.0,13.0,-184.0,-16.0,74.0,4.0,1
-192.0,14.0,-182.0,-14.0,73.0,1.0,1
-193.0,12.0,-182.0,-13.0,75.0,3.0,1
-190.0,14.0,-184.0,-14.0,75.0,2.0,1
-193.0,17.0,-183.0,-15.0,74.0,4.0,1
-192.0,16.0,-181.0,-15.0,73.0,3.0,1
-192.0,15.0,-185.0,-15.0,73.0,3.0,1
-192.0,12.0,-180.0,-15.0,73.0,1.0,1
-192.0,13.0,-183.0,-15.0,73.0,2.0,1
-192.0,14.0,-182.0,-15.0,74.0,1.0,1
-195.0,15.0,-183.0,-14.0,76.0,1.0,1
-194.0,11.0,-182.0,-16.0,77.0,2.0,1
-192.0,15.0,-184.0,-18.0,79.0,4.0,1
-197.0,16.0,-184.0,-18.0,81.0,4.0,1
-193.0,14.0,-182.0,-18.0,83.0,3.0,1
-191.0,16.0,-183.0,-15.0,84.0,3.0,1
-190.0,12.0,-183.0,-14.0,83.0,2.0,1
-192.0,15.0,-185.0,-13.0,83.0,2.0,1
-195.0,15.0,-183.0,-12.0,82.0,1.0,1
-193.0,11.0,-182.0,-12.0,78.0,1.0,1
-191.0,16.0,-183.0,-12.0,77.0,0.0,1
-194.0,14.0,-182.0,-12.0,76.0,1.0,1
-192.0,14.0,-185.0,-12.0,76.0,1.0,1
-193.0,16.0,-183.0,-12.0,74.0,2.0,1
-191.0,14.0,-184.0,-12.0,72.0,1.0,1
-190.0,14.0,-183.0,-13.0,71.0,1.0,1
-194.0,13.0,-184.0,-13.0,71.0,1.0,1
-193.0,15.0,-183.0,-12.0,73.0,2.0,1
-194.0,16.0,-182.0,-13.0,76.0,2.0,1
-192.0,16.0,-182.0,-12.0,77.0,1.0,1
-191.0,14.0,-182.0,-12.0,81.0,-1.0,1
-194.0,14.0,-182.0,-13.0,84.0,0.0,1
-192.0,12.0,-183.0,-12.0,84.0,-1.0,1
-192.0,16.0,-185.0,-10.0,85.0,1.0,1
-189.0,10.0,-183.0,-11.0,82.0,-1.0,1
-191.0,13.0,-186.0,-13.0,79.0,0.0,1
-192.0,14.0,-183.0,-10.0,76.0,-1.0,1
-193.0,13.0,-186.0,-10.0,74.0,0.0,1
-191.0,14.0,-186.0,-10.0,75.0,-2.0,1
-190.0,12.0,-186.0,-10.0,76.0,0.0,1
-192.0,14.0,-184.0,-11.0,77.0,0.0,1
-196.0,17.0,-186.0,-13.0,77.0,0.0,1
-190.0,11.0,-182.0,-16.0,74.0,0.0,1
-193.0,15.0,-185.0,-17.0,70.0,3.0,1
