ax,ay,az,gx,gy,gz,label
-19.0,-260.0,32.0,-36.0,26.0,5.0,1
-17.0,-263.0,30.0,-36.0,24.0,6.0,1
-17.0,-261.0,33.0,-36.0,20.0,5.0,1
-18.0,-259.0,27.0,-40.0,17.0,6.0,1
-11.0,-267.0,26.0,-41.0,15.0,8.0,1
-10.0,-264.0,35.0,-45.0,13.0,8.0,1
-13.0,-264.0,29.0,-48.0,10.0,9.0,1
-13.0,-265.0,31.0,-52.0,9.0,9.0,1
-10.0,-265.0,28.0,-55.0,10.0,9.0,1
-13.0,-265.0,32.0,-56.0,8.0,9.0,1
-13.0,-263.0,29.0,-56.0,9.0,9.0,1
-11.0,-265.0,29.0,-55.0,8.0,8.0,1
-11.0,-266.0,31.0,-56.0,11.0,8.0,1
-13.0,-265.0,28.0,-54.0,13.0,9.0,1
-10.0,-263.0,28.0,-55.0,15.0,9.0,1
-12.0,-264.0,30.0,-56.0,18.0,8.0,1
-11.0,-267.0,29.0,-56.0,21.0,8.0,1
-10.0,-266.0,25.0,-57.0,27.0,8.0,1
-12.0,-264.0,29.0,-59.0,31.0,8.0,1
-10.0,-265.0,29.0,-60.0,35.0,6.0,1
-11.0,-262.0,31.0,-59.0,40.0,6.0,1
-10.0,-264.0,26.0,-61.0,44.0,5.0,1
-10.0,-266.0,26.0,-63.0,49.0,6.0,1
-9.0,-266.0,25.0,-66.0,54.0,7.0,1
-8.0,-269.0,24.0,-67.0,59.0,8.0,1
-7.0,-269.0,27.0,-71.0,62.0,8.0,1
-6.0,-263.0,31.0,-73.0,67.0,11.0,1
-8.0,-270.0,28.0,-74.0,71.0,11.0,1
-8.0,-267.0,24.0,-74.0,74.0,12.0,1
-8.0,-268.0,30.0,-73.0,79.0,14.0,1
-6.0,-270.0,32.0,-71.0,85.0,16.0,1
-8.0,-267.0,26.0,-72.0,90.0,18.0,1
-7.0,-269.0,25.0,-74.0,96.0,20.0,1
-6.0,-268.0,27.0,-77.0,101.0,22.0,1
-6.0,-265.0,23.0,-86.0,105.0,24.0,1
-4.0,-267.0,22.0,-93.0,111.0,29.0,1
-7.0,-269.0,24.0,-100.0,115.0,33.0,1
-7.0,-269.0,25.0,-105.0,119.0,37.0,1
-6.0,-264.0,26.0,-109.0,124.0,42.0,1
-6.0,-267.0,23.0,-112.0,128.0,46.0,1
-1.0,-267.0,22.0,-116.0,132.0,48.0,1
-4.0,-265.0,24.0,-121.0,137.0,53.0,1
-4.0,-265.0,25.0,-125.0,143.0,57.0,1
-7.0,-264.0,22.0,-128.0,147.0,61.0,1
-7.0,-265.0,28.0,-130.0,149.0,64.0,1
-8.0,-267.0,24.0,-132.0,153.0,67.0,1
-8.0,-265.0,25.0,-133.0,156.0,67.0,1
-11.0,-262.0,25.0,-134.0,159.0,68.0,1
-8.0,-264.0,22.0,-137.0,161.0,70.0,1
-10.0,-263.0,20.0,-149.0,160.0,70.0,1
-10.0,-261.0,23.0,-164.0,163.0,69.0,1
-13.0,-263.0,14.0,-181.0,164.0,71.0,1
-12.0,-261.0,15.0,-200.0,165.0,74.0,1
-13.0,-263.0,18.0,-217.0,167.0,78.0,1
-10.0,-264.0,12.0,-229.0,168.0,85.0,1
-8.0,-265.0,19.0,-238.0,168.0,91.0,1
-11.0,-266.0,21.0,-242.0,169.0,98.0,1
-13.0,-266.0,22.0,-241.0,168.0,105.0,1
-10.0,-267.0,27.0,-233.0,166.0,112.0,1
-11.0,-268.0,25.0,-222.0,164.0,117.0,1
-10.0,-269.0,22.0,-215.0,159.0,119.0,1
-14.0,-267.0,21.0,-207.0,156.0,120.0,1
-21.0,-265.0,19.0,-199.0,154.0,118.0,1
-20.0,-266.0,16.0,-193.0,151.0,114.0,1
-23.0,-260.0,17.0,-185.0,147.0,108.0,1
-23.0,-261.0,16.0,-180.0,142.0,100.0,1
-21.0,-261.0,14.0,-171.0,135.0,91.0,1
-25.0,-257.0,12.0,-167.0,128.0,81.0,1
-27.0,-258.0,7.0,-166.0,120.0,71.0,1
-27.0,-257.0,5.0,-166.0,110.0,61.0,1
-26.0,-254.0,10.0,-158.0,98.0,53.0,1
-32.0,-249.0,5.0,-150.0,84.0,39.0,1
-33.0,-246.0,4.0,-143.0,64.0,27.0,1
-33.0,-245.0,4.0,-136.0,44.0,8.0,1
-31.0,-237.0,3.0,-121.0,26.0,-11.0,1
-32.0,-232.0,6.0,-99.0,6.0,-39.0,1
-34.0,-227.0,5.0,-75.0,-15.0,-70.0,1
-34.0,-220.0,12.0,-53.0,-40.0,-106.0,1
-35.0,-222.0,19.0,-28.0,-63.0,-144.0,1
-34.0,-216.0,27.0,-4.0,-88.0,-185.0,1
-34.0,-216.0,33.0,14.0,-113.0,-226.0,1
-36.0,-220.0,43.0,23.0,-137.0,-272.0,1
-35.0,-221.0,52.0,21.0,-159.0,-311.0,1
-36.0,-228.0,54.0,10.0,-184.0,-346.0,1
-34.0,-238.0,59.0,-13.0,-207.0,-372.0,1
-34.0,-247.0,59.0,-39.0,-234.0,-396.0,1
-30.0,-253.0,60.0,-59.0,-256.0,-414.0,1
-30.0,-264.0,59.0,-66.0,-274.0,-424.0,1
-33.0,-264.0,57.0,-62.0,-295.0,-432.0,1
-34.0,-271.0,59.0,-58.0,-322.0,-429.0,1
-35.0,-270.0,48.0,-60.0,-346.0,-417.0,1
-34.0,-275.0,55.0,-87.0,-364.0,-395.0,1
-35.0,-278.0,58.0,-129.0,-374.0,-360.0,1
-30.0,-280.0,63.0,-154.0,-379.0,-325.0,1
-24.0,-275.0,66.0,-164.0,-384.0,-287.0,1
-22.0,-277.0,71.0,-170.0,-380.0,-239.0,1
-18.0,-276.0,75.0,-164.0,-375.0,-193.0,1
-16.0,-273.0,74.0,-140.0,-373.0,-156.0,1
-12.0,-265.0,69.0,-102.0,-371.0,-122.0,1
-10.0,-262.0,60.0,-75.0,-363.0,-90.0,1
-3.0,-259.0,63.0,-69.0,-353.0,-64.0,1
0.0,-257.0,54.0,-71.0,-333.0,-40.0,1
4.0,-257.0,45.0,-76.0,-306.0,-18.0,1
9.0,-261.0,46.0,-97.0,-270.0,7.0,1
12.0,-260.0,43.0,-131.0,-232.0,33.0,1
17.0,-267.0,37.0,-170.0,-192.0,54.0,1
24.0,-271.0,29.0,-217.0,-148.0,73.0,1
27.0,-273.0,28.0,-273.0,-103.0,84.0,1
33.0,-278.0,27.0,-329.0,-55.0,93.0,1
35.0,-288.0,31.0,-376.0,-7.0,98.0,1
35.0,-292.0,29.0,-410.0,44.0,102.0,1
35.0,-302.0,34.0,-430.0,96.0,103.0,1
33.0,-299.0,33.0,-435.0,144.0,102.0,1
27.0,-312.0,39.0,-429.0,191.0,103.0,1
19.0,-308.0,42.0,-411.0,235.0,107.0,1
14.0,-310.0,39.0,-387.0,271.0,102.0,1
8.0,-308.0,46.0,-351.0,304.0,100.0,1
1.0,-302.0,48.0,-300.0,332.0,101.0,1
-6.0,-298.0,48.0,-238.0,357.0,107.0,1
-16.0,-285.0,50.0,-171.0,376.0,119.0,1
-19.0,-279.0,48.0,-106.0,388.0,128.0,1
-24.0,-277.0,51.0,-45.0,395.0,142.0,1
-30.0,-265.0,55.0,-1.0,399.0,161.0,1
-34.0,-263.0,56.0,47.0,402.0,180.0,1
-38.0,-255.0,61.0,88.0,402.0,195.0,1
-39.0,-249.0,61.0,122.0,393.0,209.0,1
-38.0,-244.0,61.0,144.0,386.0,223.0,1
-35.0,-239.0,66.0,157.0,379.0,235.0,1
-36.0,-234.0,61.0,162.0,369.0,244.0,1
-32.0,-233.0,62.0,157.0,357.0,245.0,1
-33.0,-226.0,61.0,140.0,344.0,238.0,1
-29.0,-221.0,59.0,115.0,330.0,225.0,1
-26.0,-218.0,55.0,80.0,319.0,209.0,1
-16.0,-216.0,57.0,39.0,312.0,192.0,1
-16.0,-220.0,58.0,-4.0,308.0,171.0,1
-15.0,-222.0,59.0,-43.0,306.0,147.0,1
-12.0,-225.0,63.0,-75.0,310.0,122.0,1
-11.0,-229.0,63.0,-97.0,314.0,99.0,1
-10.0,-235.0,63.0,-113.0,314.0,78.0,1
-9.0,-242.0,64.0,-126.0,315.0,61.0,1
-8.0,-247.0,63.0,-135.0,316.0,48.0,1
-10.0,-248.0,63.0,-140.0,317.0,37.0,1
-16.0,-251.0,64.0,-137.0,315.0,27.0,1
-14.0,-255.0,63.0,-127.0,315.0,20.0,1
-16.0,-255.0,63.0,-112.0,309.0,18.0,1
-17.0,-257.0,61.0,-96.0,300.0,18.0,1
-18.0,-256.0,60.0,-80.0,289.0,20.0,1
-18.0,-258.0,60.0,-68.0,272.0,23.0,1
-24.0,-256.0,60.0,-54.0,259.0,26.0,1
-26.0,-254.0,61.0,-41.0,249.0,33.0,1
-23.0,-255.0,62.0,-29.0,237.0,35.0,1
-24.0,-255.0,64.0,-19.0,228.0,37.0,1
-24.0,-253.0,67.0,-10.0,217.0,38.0,1
-25.0,-253.0,73.0,1.0,207.0,38.0,1
-29.0,-250.0,73.0,13.0,195.0,41.0,1
-28.0,-250.0,79.0,25.0,180.0,39.0,1
-30.0,-251.0,77.0,38.0,167.0,48.0,1
-34.0,-253.0,79.0,51.0,154.0,60.0,1
-37.0,-252.0,78.0,64.0,138.0,70.0,1
-43.0,-251.0,77.0,71.0,124.0,81.0,1
-45.0,-253.0,74.0,77.0,114.0,95.0,1
-47.0,-255.0,75.0,79.0,107.0,113.0,1
-51.0,-256.0,70.0,77.0,98.0,134.0,1
-59.0,-257.0,62.0,68.0,91.0,158.0,1
-65.0,-267.0,54.0,47.0,80.0,185.0,1
-70.0,-274.0,33.0,5.0,69.0,218.0,1
-67.0,-284.0,21.0,-62.0,63.0,262.0,1
-65.0,-294.0,5.0,-147.0,62.0,313.0,1
-61.0,-306.0,1.0,-224.0,69.0,368.0,1
-58.0,-318.0,8.0,-272.0,73.0,433.0,1
-61.0,-327.0,18.0,-278.0,66.0,506.0,1
-55.0,-338.0,21.0,-251.0,44.0,592.0,1
-57.0,-335.0,27.0,-212.0,9.0,677.0,1
-51.0,-337.0,24.0,-165.0,-25.0,752.0,1
-41.0,-331.0,24.0,-105.0,-39.0,814.0,1
-38.0,-324.0,29.0,-41.0,-30.0,865.0,1
-29.0,-310.0,29.0,32.0,-12.0,891.0,1
-27.0,-306.0,28.0,96.0,3.0,894.0,1
-15.0,-303.0,25.0,151.0,9.0,889.0,1
-13.0,-292.0,22.0,186.0,10.0,873.0,1
-11.0,-288.0,19.0,198.0,-3.0,823.0,1
-12.0,-287.0,12.0,202.0,-10.0,766.0,1
-22.0,-291.0,11.0,194.0,5.0,711.0,1
-31.0,-291.0,4.0,162.0,28.0,640.0,1
-40.0,-296.0,0.0,112.0,74.0,559.0,1
-49.0,-306.0,3.0,59.0,121.0,463.0,1
-65.0,-309.0,8.0,9.0,154.0,357.0,1
-70.0,-317.0,5.0,-34.0,169.0,254.0,1
-79.0,-321.0,0.0,-82.0,176.0,161.0,1
-85.0,-326.0,-1.0,-121.0,178.0,83.0,1
-93.0,-334.0,-2.0,-141.0,175.0,9.0,1
-90.0,-337.0,-4.0,-136.0,169.0,-57.0,1
-93.0,-335.0,-4.0,-102.0,160.0,-110.0,1
-92.0,-333.0,0.0,-43.0,146.0,-147.0,1
-86.0,-326.0,-9.0,32.0,133.0,-169.0,1
-76.0,-317.0,-17.0,112.0,122.0,-180.0,1
-71.0,-305.0,-24.0,187.0,117.0,-188.0,1
-64.0,-293.0,-36.0,241.0,109.0,-200.0,1
-60.0,-277.0,-29.0,284.0,98.0,-205.0,1
-50.0,-265.0,-31.0,321.0,83.0,-211.0,1
-44.0,-253.0,-36.0,350.0,68.0,-217.0,1
-35.0,-247.0,-37.0,364.0,59.0,-221.0,1
-26.0,-237.0,-42.0,367.0,54.0,-227.0,1
-19.0,-227.0,-41.0,345.0,61.0,-234.0,1
-6.0,-219.0,-41.0,309.0,71.0,-240.0,1
0.0,-216.0,-41.0,268.0,83.0,-241.0,1
1.0,-207.0,-38.0,219.0,97.0,-240.0,1
7.0,-205.0,-34.0,168.0,104.0,-235.0,1
9.0,-202.0,-32.0,114.0,103.0,-223.0,1
6.0,-206.0,-25.0,59.0,97.0,-209.0,1
5.0,-205.0,-24.0,0.0,79.0,-186.0,1
4.0,-204.0,-17.0,-56.0,52.0,-161.0,1
2.0,-207.0,-18.0,-97.0,21.0,-135.0,1
-4.0,-216.0,-11.0,-142.0,-7.0,-112.0,1
-5.0,-227.0,-8.0,-193.0,-37.0,-94.0,1
-16.0,-234.0,-7.0,-245.0,-67.0,-88.0,1
-19.0,-248.0,-2.0,-290.0,-94.0,-90.0,1
-22.0,-257.0,-1.0,-313.0,-118.0,-99.0,1
-26.0,-265.0,-2.0,-319.0,-135.0,-117.0,1
-27.0,-272.0,2.0,-306.0,-146.0,-135.0,1
-32.0,-279.0,-3.0,-279.0,-152.0,-154.0,1
-37.0,-281.0,-3.0,-244.0,-158.0,-180.0,1
-33.0,-284.0,-2.0,-196.0,-162.0,-212.0,1
-34.0,-281.0,0.0,-139.0,-163.0,-239.0,1
-25.0,-278.0,5.0,-74.0,-157.0,-264.0,1
-27.0,-274.0,3.0,7.0,-148.0,-287.0,1
-25.0,-266.0,6.0,90.0,-139.0,-304.0,1
-15.0,-264.0,5.0,158.0,-130.0,-315.0,1
-17.0,-257.0,12.0,221.0,-122.0,-322.0,1
-10.0,-254.0,11.0,275.0,-117.0,-328.0,1
-6.0,-249.0,11.0,311.0,-111.0,-324.0,1
0.0,-243.0,14.0,330.0,-104.0,-313.0,1
0.0,-236.0,11.0,321.0,-97.0,-289.0,1
3.0,-239.0,19.0,296.0,-87.0,-266.0,1
13.0,-233.0,11.0,273.0,-74.0,-244.0,1
14.0,-220.0,12.0,210.0,-61.0,-227.0,1
15.0,-233.0,22.0,134.0,-40.0,-201.0,1
17.0,-233.0,24.0,92.0,-19.0,-183.0,1
17.0,-234.0,22.0,66.0,-3.0,-170.0,1
19.0,-239.0,20.0,31.0,19.0,-157.0,1
15.0,-242.0,26.0,0.0,38.0,-147.0,1
19.0,-245.0,25.0,-20.0,58.0,-133.0,1
13.0,-250.0,26.0,-30.0,77.0,-120.0,1
9.0,-254.0,28.0,-31.0,93.0,-114.0,1
9.0,-256.0,32.0,-30.0,104.0,-121.0,1
9.0,-257.0,31.0,-32.0,116.0,-126.0,1
3.0,-258.0,33.0,-26.0,133.0,-128.0,1
2.0,-264.0,34.0,-17.0,149.0,-130.0,1
-1.0,-261.0,33.0,-7.0,158.0,-138.0,1
-2.0,-261.0,35.0,4.0,162.0,-160.0,1
-3.0,-265.0,38.0,11.0,165.0,-185.0,1
-3.0,-265.0,35.0,19.0,168.0,-206.0,1
-9.0,-260.0,36.0,25.0,166.0,-231.0,1
-9.0,-259.0,42.0,29.0,164.0,-254.0,1
-12.0,-257.0,40.0,38.0,164.0,-263.0,1
-14.0,-252.0,41.0,52.0,158.0,-275.0,1
-16.0,-250.0,42.0,61.0,151.0,-286.0,1
-19.0,-246.0,41.0,64.0,145.0,-289.0,1
-21.0,-241.0,44.0,59.0,135.0,-291.0,1
-19.0,-234.0,45.0,50.0,124.0,-291.0,1
-22.0,-230.0,46.0,43.0,112.0,-287.0,1
-22.0,-228.0,43.0,37.0,99.0,-279.0,1
-24.0,-230.0,38.0,29.0,78.0,-274.0,1
-21.0,-221.0,48.0,18.0,57.0,-269.0,1
-20.0,-219.0,45.0,9.0,36.0,-264.0,1
-15.0,-219.0,50.0,-5.0,12.0,-254.0,1
-14.0,-218.0,51.0,-15.0,-11.0,-244.0,1
-12.0,-223.0,51.0,-18.0,-31.0,-226.0,1
-9.0,-222.0,49.0,-19.0,-54.0,-200.0,1
-3.0,-230.0,52.0,-20.0,-79.0,-175.0,1
-6.0,-233.0,52.0,-16.0,-108.0,-155.0,1
-6.0,-234.0,50.0,-9.0,-138.0,-139.0,1
-4.0,-239.0,44.0,1.0,-171.0,-123.0,1
-3.0,-244.0,42.0,8.0,-203.0,-106.0,1
-3.0,-254.0,41.0,16.0,-235.0,-91.0,1
-3.0,-257.0,40.0,23.0,-268.0,-77.0,1
-1.0,-260.0,41.0,36.0,-297.0,-59.0,1
-6.0,-266.0,49.0,51.0,-330.0,-45.0,1
-7.0,-273.0,52.0,74.0,-369.0,-31.0,1
-8.0,-279.0,58.0,101.0,-411.0,-24.0,1
-13.0,-283.0,59.0,123.0,-452.0,-19.0,1
-18.0,-283.0,56.0,146.0,-492.0,-13.0,1
-18.0,-285.0,59.0,166.0,-527.0,-12.0,1
-19.0,-283.0,54.0,175.0,-552.0,-8.0,1
-23.0,-281.0,47.0,173.0,-572.0,-12.0,1
-24.0,-274.0,49.0,172.0,-586.0,-17.0,1
-18.0,-267.0,46.0,177.0,-591.0,-22.0,1
-13.0,-263.0,45.0,185.0,-590.0,-31.0,1
-1.0,-260.0,43.0,184.0,-589.0,-40.0,1
6.0,-259.0,36.0,172.0,-585.0,-53.0,1
13.0,-261.0,37.0,144.0,-578.0,-64.0,1
27.0,-260.0,34.0,106.0,-562.0,-77.0,1
39.0,-263.0,33.0,63.0,-543.0,-94.0,1
47.0,-266.0,35.0,20.0,-521.0,-112.0,1
55.0,-275.0,42.0,-21.0,-499.0,-126.0,1
68.0,-284.0,48.0,-50.0,-475.0,-139.0,1
71.0,-289.0,61.0,-64.0,-447.0,-150.0,1
76.0,-298.0,65.0,-58.0,-419.0,-157.0,1
82.0,-304.0,58.0,-47.0,-392.0,-162.0,1
82.0,-323.0,33.0,-75.0,-367.0,-165.0,1
70.0,-331.0,3.0,-177.0,-341.0,-174.0,1
56.0,-336.0,-13.0,-348.0,-317.0,-171.0,1
49.0,-361.0,-2.0,-542.0,-279.0,-169.0,1
42.0,-383.0,27.0,-658.0,-199.0,-169.0,1
38.0,-401.0,52.0,-629.0,-118.0,-185.0,1
30.0,-408.0,49.0,-510.0,-68.0,-222.0,1
42.0,-415.0,55.0,-388.0,-40.0,-264.0,1
37.0,-415.0,43.0,-289.0,-3.0,-292.0,1
34.0,-405.0,35.0,-205.0,39.0,-325.0,1
35.0,-397.0,27.0,-130.0,87.0,-359.0,1
35.0,-388.0,23.0,-58.0,131.0,-390.0,1
30.0,-378.0,20.0,15.0,162.0,-420.0,1
26.0,-362.0,19.0,103.0,181.0,-441.0,1
26.0,-352.0,23.0,206.0,186.0,-456.0,1
24.0,-330.0,28.0,313.0,181.0,-464.0,1
28.0,-318.0,28.0,407.0,171.0,-471.0,1
31.0,-301.0,21.0,475.0,160.0,-471.0,1
34.0,-281.0,10.0,502.0,150.0,-457.0,1
34.0,-269.0,-5.0,492.0,142.0,-428.0,1
29.0,-257.0,-18.0,452.0,128.0,-383.0,1
20.0,-244.0,-25.0,388.0,102.0,-334.0,1
14.0,-231.0,-33.0,312.0,65.0,-290.0,1
6.0,-217.0,-37.0,237.0,34.0,-252.0,1
-4.0,-207.0,-39.0,174.0,16.0,-220.0,1
-14.0,-194.0,-35.0,122.0,1.0,-193.0,1
-20.0,-186.0,-35.0,88.0,-15.0,-176.0,1
-31.0,-176.0,-39.0,66.0,-24.0,-164.0,1
-33.0,-165.0,-39.0,51.0,-29.0,-155.0,1
-48.0,-161.0,-38.0,34.0,-26.0,-148.0,1
-53.0,-161.0,-38.0,10.0,-16.0,-144.0,1
-64.0,-166.0,-30.0,-21.0,7.0,-136.0,1
-67.0,-173.0,-23.0,-63.0,13.0,-152.0,1
-67.0,-184.0,-23.0,-124.0,14.0,-164.0,1
-66.0,-201.0,-18.0,-197.0,19.0,-169.0,1
-60.0,-217.0,-7.0,-275.0,25.0,-172.0,1
-61.0,-236.0,-1.0,-352.0,26.0,-172.0,1
-45.0,-255.0,0.0,-429.0,13.0,-172.0,1
-37.0,-273.0,3.0,-506.0,6.0,-169.0,1
-33.0,-290.0,6.0,-569.0,10.0,-158.0,1
-26.0,-306.0,4.0,-621.0,15.0,-144.0,1
-19.0,-315.0,1.0,-658.0,21.0,-133.0,1
-11.0,-324.0,0.0,-679.0,24.0,-123.0,1
-7.0,-322.0,-5.0,-671.0,22.0,-121.0,1
-8.0,-324.0,-7.0,-639.0,21.0,-113.0,1
-8.0,-325.0,-9.0,-576.0,24.0,-98.0,1
-6.0,-317.0,-7.0,-481.0,25.0,-73.0,1
-12.0,-311.0,-14.0,-354.0,28.0,-42.0,1
-17.0,-298.0,-12.0,-211.0,26.0,-4.0,1
-16.0,-288.0,-7.0,-67.0,26.0,33.0,1
-18.0,-274.0,0.0,69.0,22.0,69.0,1
-19.0,-262.0,-1.0,179.0,20.0,107.0,1
-15.0,-257.0,-1.0,255.0,20.0,145.0,1
-11.0,-251.0,2.0,289.0,19.0,179.0,1
-5.0,-247.0,4.0,295.0,14.0,207.0,1
-4.0,-245.0,4.0,285.0,17.0,237.0,1
-2.0,-245.0,10.0,265.0,19.0,261.0,1
-4.0,-239.0,4.0,243.0,17.0,279.0,1
-3.0,-239.0,6.0,215.0,17.0,291.0,1
-4.0,-242.0,9.0,180.0,13.0,297.0,1
-2.0,-234.0,11.0,146.0,14.0,300.0,1
-4.0,-233.0,13.0,128.0,25.0,315.0,1
-3.0,-231.0,13.0,100.0,43.0,330.0,1
-3.0,-228.0,13.0,81.0,60.0,335.0,1
0.0,-226.0,12.0,51.0,77.0,339.0,1
-4.0,-227.0,17.0,15.0,93.0,335.0,1
0.0,-223.0,11.0,-11.0,114.0,328.0,1
0.0,-226.0,20.0,-33.0,132.0,325.0,1
2.0,-227.0,23.0,-59.0,156.0,326.0,1
0.0,-225.0,21.0,-73.0,187.0,332.0,1
-1.0,-227.0,28.0,-86.0,222.0,332.0,1
-3.0,-218.0,32.0,-97.0,252.0,324.0,1
-7.0,-221.0,37.0,-102.0,266.0,329.0,1
-11.0,-231.0,38.0,-96.0,278.0,326.0,1
-16.0,-240.0,36.0,-88.0,287.0,310.0,1
-19.0,-239.0,43.0,-65.0,291.0,288.0,1
-20.0,-238.0,30.0,-32.0,298.0,269.0,1
-12.0,-242.0,37.0,-5.0,307.0,261.0,1
-15.0,-243.0,38.0,19.0,317.0,261.0,1
-14.0,-244.0,40.0,40.0,327.0,257.0,1
-11.0,-240.0,43.0,55.0,336.0,247.0,1
-11.0,-240.0,46.0,62.0,348.0,234.0,1
-12.0,-238.0,45.0,67.0,362.0,220.0,1
-8.0,-235.0,54.0,73.0,377.0,208.0,1
-8.0,-233.0,55.0,83.0,389.0,196.0,1
-3.0,-232.0,58.0,91.0,398.0,182.0,1
-4.0,-228.0,64.0,105.0,404.0,166.0,1
-2.0,-226.0,62.0,120.0,411.0,143.0,1
-9.0,-222.0,64.0,131.0,412.0,118.0,1
-7.0,-222.0,63.0,140.0,415.0,96.0,1
-10.0,-221.0,60.0,142.0,418.0,71.0,1
-13.0,-220.0,60.0,139.0,421.0,47.0,1
-13.0,-223.0,51.0,129.0,418.0,25.0,1
-18.0,-220.0,57.0,117.0,416.0,8.0,1
-22.0,-226.0,46.0,100.0,424.0,-12.0,1
-22.0,-230.0,31.0,74.0,439.0,-21.0,1
-24.0,-230.0,37.0,52.0,440.0,-27.0,1
-24.0,-234.0,38.0,52.0,447.0,-31.0,1
-20.0,-239.0,35.0,58.0,464.0,-33.0,1
-15.0,-244.0,33.0,54.0,484.0,-35.0,1
-13.0,-251.0,36.0,42.0,508.0,-41.0,1
-8.0,-257.0,38.0,19.0,535.0,-48.0,1
-1.0,-262.0,39.0,-6.0,561.0,-58.0,1
5.0,-269.0,48.0,-25.0,581.0,-65.0,1
10.0,-275.0,46.0,-38.0,600.0,-73.0,1
9.0,-278.0,43.0,-51.0,613.0,-76.0,1
11.0,-289.0,46.0,-61.0,627.0,-75.0,1
7.0,-290.0,45.0,-70.0,633.0,-74.0,1
0.0,-293.0,44.0,-76.0,632.0,-67.0,1
-6.0,-301.0,48.0,-73.0,621.0,-55.0,1
-13.0,-300.0,51.0,-56.0,609.0,-26.0,1
-20.0,-301.0,51.0,-33.0,598.0,7.0,1
-33.0,-297.0,55.0,-3.0,590.0,43.0,1
-38.0,-297.0,61.0,29.0,587.0,85.0,1
-46.0,-293.0,73.0,66.0,584.0,129.0,1
-53.0,-287.0,66.0,109.0,580.0,172.0,1
-60.0,-285.0,74.0,146.0,573.0,210.0,1
-64.0,-282.0,78.0,183.0,560.0,236.0,1
-63.0,-277.0,84.0,220.0,541.0,250.0,1
-59.0,-278.0,91.0,262.0,522.0,265.0,1
-52.0,-277.0,95.0,307.0,502.0,278.0,1
-52.0,-269.0,101.0,347.0,492.0,286.0,1
-47.0,-268.0,101.0,376.0,487.0,294.0,1
-54.0,-271.0,81.0,375.0,489.0,313.0,1
-83.0,-295.0,50.0,298.0,464.0,358.0,1
-84.0,-313.0,13.0,120.0,410.0,412.0,1
-59.0,-323.0,-24.0,-149.0,365.0,472.0,1
-42.0,-342.0,-41.0,-473.0,369.0,486.0,1
-23.0,-371.0,2.0,-757.0,427.0,487.0,1
-15.0,-397.0,35.0,-817.0,446.0,525.0,1
-11.0,-402.0,45.0,-698.0,407.0,603.0,1
-15.0,-399.0,46.0,-558.0,351.0,654.0,1
-22.0,-383.0,39.0,-449.0,288.0,655.0,1
-33.0,-375.0,41.0,-337.0,243.0,651.0,1
-52.0,-370.0,41.0,-205.0,197.0,655.0,1
-67.0,-359.0,30.0,-66.0,148.0,643.0,1
-71.0,-353.0,22.0,54.0,109.0,618.0,1
-75.0,-344.0,7.0,152.0,76.0,560.0,1
-78.0,-339.0,-1.0,241.0,71.0,490.0,1
-92.0,-337.0,0.0,326.0,86.0,437.0,1
-98.0,-331.0,0.0,398.0,109.0,395.0,1
-99.0,-319.0,1.0,449.0,136.0,364.0,1
-100.0,-298.0,-3.0,475.0,156.0,330.0,1
-98.0,-278.0,-16.0,468.0,170.0,291.0,1
-92.0,-257.0,-25.0,428.0,175.0,252.0,1
-84.0,-242.0,-34.0,365.0,170.0,226.0,1
-68.0,-230.0,-38.0,299.0,161.0,207.0,1
-55.0,-217.0,-41.0,239.0,162.0,187.0,1
-40.0,-209.0,-48.0,201.0,178.0,159.0,1
-27.0,-199.0,-54.0,171.0,202.0,141.0,1
-15.0,-196.0,-58.0,139.0,214.0,128.0,1
-1.0,-193.0,-61.0,94.0,218.0,120.0,1
9.0,-187.0,-60.0,36.0,214.0,114.0,1
16.0,-191.0,-61.0,-29.0,208.0,110.0,1
22.0,-191.0,-56.0,-95.0,204.0,108.0,1
26.0,-198.0,-49.0,-165.0,200.0,106.0,1
27.0,-209.0,-45.0,-233.0,200.0,104.0,1
21.0,-221.0,-34.0,-296.0,202.0,98.0,1
18.0,-234.0,-22.0,-347.0,203.0,90.0,1
13.0,-251.0,-17.0,-387.0,201.0,74.0,1
3.0,-265.0,-8.0,-412.0,189.0,54.0,1
-3.0,-276.0,1.0,-415.0,165.0,32.0,1
-12.0,-286.0,2.0,-394.0,130.0,11.0,1
-19.0,-291.0,6.0,-370.0,94.0,-7.0,1
-28.0,-299.0,8.0,-339.0,57.0,-18.0,1
-36.0,-301.0,0.0,-299.0,19.0,-30.0,1
-47.0,-302.0,1.0,-257.0,-24.0,-55.0,1
-52.0,-298.0,0.0,-203.0,-63.0,-84.0,1
-57.0,-296.0,-4.0,-142.0,-98.0,-112.0,1
-60.0,-289.0,-5.0,-72.0,-131.0,-149.0,1
-63.0,-277.0,-1.0,10.0,-158.0,-190.0,1
-61.0,-274.0,0.0,87.0,-182.0,-229.0,1
-61.0,-262.0,0.0,145.0,-203.0,-260.0,1
-60.0,-255.0,4.0,173.0,-224.0,-285.0,1
-57.0,-250.0,4.0,190.0,-239.0,-301.0,1
-56.0,-239.0,5.0,207.0,-250.0,-310.0,1
-52.0,-235.0,3.0,217.0,-255.0,-323.0,1
-43.0,-238.0,4.0,220.0,-261.0,-332.0,1
-40.0,-232.0,4.0,214.0,-266.0,-337.0,1
-39.0,-225.0,9.0,201.0,-277.0,-332.0,1
-37.0,-221.0,7.0,189.0,-289.0,-324.0,1
-29.0,-221.0,12.0,182.0,-309.0,-316.0,1
-25.0,-219.0,12.0,175.0,-327.0,-316.0,1
-17.0,-221.0,11.0,166.0,-342.0,-316.0,1
-10.0,-217.0,14.0,149.0,-354.0,-310.0,1
-6.0,-210.0,12.0,125.0,-358.0,-305.0,1
-5.0,-214.0,11.0,82.0,-361.0,-307.0,1
-4.0,-220.0,13.0,51.0,-367.0,-325.0,1
0.0,-221.0,6.0,48.0,-369.0,-337.0,1
7.0,-226.0,10.0,40.0,-363.0,-315.0,1
5.0,-228.0,7.0,25.0,-357.0,-280.0,1
6.0,-236.0,18.0,-1.0,-365.0,-259.0,1
2.0,-237.0,18.0,-27.0,-376.0,-257.0,1
3.0,-242.0,23.0,-40.0,-380.0,-241.0,1
4.0,-243.0,21.0,-50.0,-394.0,-239.0,1
4.0,-247.0,29.0,-59.0,-393.0,-225.0,1
4.0,-251.0,27.0,-54.0,-386.0,-203.0,1
3.0,-250.0,34.0,-42.0,-385.0,-190.0,1
1.0,-253.0,33.0,-28.0,-395.0,-198.0,1
0.0,-248.0,41.0,-28.0,-407.0,-212.0,1
-1.0,-248.0,34.0,-33.0,-423.0,-222.0,1
-1.0,-244.0,34.0,-40.0,-433.0,-224.0,1
-1.0,-245.0,37.0,-47.0,-439.0,-217.0,1
-4.0,-241.0,36.0,-50.0,-453.0,-216.0,1
-3.0,-238.0,40.0,-51.0,-463.0,-219.0,1
-4.0,-234.0,44.0,-50.0,-474.0,-219.0,1
-6.0,-233.0,40.0,-46.0,-477.0,-215.0,1
-3.0,-233.0,44.0,-37.0,-479.0,-202.0,1
-2.0,-230.0,41.0,-28.0,-483.0,-185.0,1
-5.0,-224.0,46.0,-22.0,-483.0,-169.0,1
-5.0,-226.0,50.0,-18.0,-487.0,-150.0,1
-9.0,-228.0,50.0,-13.0,-488.0,-134.0,1
-6.0,-227.0,49.0,-11.0,-491.0,-117.0,1
-4.0,-230.0,52.0,-10.0,-489.0,-97.0,1
-2.0,-228.0,52.0,-6.0,-489.0,-82.0,1
-1.0,-233.0,55.0,6.0,-493.0,-66.0,1
-1.0,-229.0,60.0,16.0,-496.0,-52.0,1
-2.0,-236.0,54.0,34.0,-505.0,-39.0,1
1.0,-240.0,58.0,54.0,-517.0,-25.0,1
0.0,-244.0,57.0,80.0,-531.0,-11.0,1
1.0,-252.0,57.0,109.0,-550.0,4.0,1
0.0,-253.0,52.0,140.0,-568.0,15.0,1
1.0,-255.0,55.0,173.0,-589.0,26.0,1
-2.0,-264.0,55.0,205.0,-615.0,36.0,1
-3.0,-269.0,55.0,239.0,-639.0,41.0,1
-6.0,-270.0,62.0,268.0,-658.0,45.0,1
-6.0,-273.0,61.0,295.0,-673.0,52.0,1
-8.0,-274.0,64.0,316.0,-687.0,55.0,1
-13.0,-275.0,63.0,323.0,-698.0,63.0,1
-12.0,-276.0,64.0,316.0,-703.0,71.0,1
-14.0,-272.0,63.0,301.0,-711.0,75.0,1
-11.0,-268.0,67.0,288.0,-707.0,80.0,1
-7.0,-269.0,64.0,281.0,-691.0,86.0,1
1.0,-266.0,58.0,271.0,-665.0,86.0,1
7.0,-263.0,54.0,244.0,-637.0,83.0,1
18.0,-266.0,45.0,200.0,-614.0,78.0,1
27.0,-268.0,55.0,147.0,-589.0,70.0,1
43.0,-269.0,57.0,99.0,-568.0,63.0,1
59.0,-280.0,61.0,58.0,-551.0,57.0,1
68.0,-284.0,65.0,30.0,-535.0,49.0,1
78.0,-290.0,68.0,12.0,-515.0,39.0,1
83.0,-293.0,68.0,5.0,-488.0,25.0,1
89.0,-295.0,77.0,7.0,-461.0,6.0,1
91.0,-294.0,82.0,23.0,-422.0,-6.0,1
85.0,-288.0,79.0,47.0,-383.0,-21.0,1
78.0,-314.0,61.0,76.0,-348.0,-24.0,1
70.0,-324.0,14.0,35.0,-330.0,-27.0,1
57.0,-328.0,-26.0,-144.0,-328.0,-43.0,1
32.0,-342.0,-40.0,-421.0,-342.0,-58.0,1
0.0,-369.0,-1.0,-707.0,-309.0,-73.0,1
-1.0,-405.0,49.0,-813.0,-167.0,-112.0,1
3.0,-423.0,64.0,-736.0,-16.0,-202.0,1
3.0,-424.0,66.0,-622.0,53.0,-320.0,1
18.0,-425.0,48.0,-573.0,81.0,-439.0,1
33.0,-421.0,35.0,-545.0,157.0,-511.0,1
48.0,-414.0,21.0,-519.0,244.0,-585.0,1
41.0,-396.0,11.0,-479.0,310.0,-658.0,1
43.0,-385.0,10.0,-392.0,330.0,-717.0,1
53.0,-375.0,14.0,-238.0,315.0,-762.0,1
61.0,-365.0,11.0,-22.0,301.0,-792.0,1
59.0,-345.0,3.0,191.0,302.0,-802.0,1
52.0,-323.0,-2.0,345.0,290.0,-810.0,1
39.0,-304.0,-19.0,437.0,259.0,-812.0,1
23.0,-280.0,-33.0,480.0,209.0,-794.0,1
9.0,-257.0,-48.0,477.0,160.0,-747.0,1
-11.0,-226.0,-66.0,410.0,114.0,-679.0,1
-26.0,-212.0,-72.0,296.0,75.0,-596.0,1
-38.0,-200.0,-72.0,157.0,53.0,-511.0,1
-55.0,-189.0,-67.0,28.0,38.0,-437.0,1
-63.0,-185.0,-53.0,-77.0,31.0,-370.0,1
-73.0,-173.0,-41.0,-156.0,32.0,-308.0,1
-77.0,-173.0,-30.0,-221.0,45.0,-248.0,1
-83.0,-179.0,-21.0,-281.0,58.0,-193.0,1
-89.0,-191.0,-8.0,-339.0,60.0,-144.0,1
-87.0,-207.0,-2.0,-397.0,40.0,-103.0,1
-84.0,-233.0,0.0,-454.0,13.0,-52.0,1
-75.0,-255.0,0.0,-514.0,-15.0,-14.0,1
-66.0,-279.0,1.0,-581.0,-35.0,21.0,1
-55.0,-300.0,1.0,-641.0,-46.0,47.0,1
-45.0,-315.0,4.0,-677.0,-45.0,67.0,1
-39.0,-324.0,2.0,-678.0,-35.0,79.0,1
-28.0,-330.0,2.0,-647.0,-24.0,84.0,1
-17.0,-330.0,1.0,-582.0,-11.0,87.0,1
-2.0,-325.0,-2.0,-485.0,8.0,88.0,1
9.0,-310.0,-11.0,-374.0,31.0,82.0,1
16.0,-287.0,-19.0,-280.0,59.0,71.0,1
22.0,-272.0,-22.0,-219.0,100.0,64.0,1
25.0,-271.0,-13.0,-172.0,140.0,67.0,1
25.0,-268.0,-8.0,-107.0,179.0,85.0,1
23.0,-265.0,-4.0,-11.0,220.0,121.0,1
26.0,-255.0,-7.0,96.0,260.0,164.0,1
20.0,-243.0,-5.0,177.0,288.0,197.0,1
16.0,-233.0,-8.0,217.0,311.0,228.0,1
8.0,-229.0,-6.0,228.0,338.0,265.0,1
3.0,-223.0,-6.0,229.0,364.0,304.0,1
0.0,-214.0,-6.0,230.0,377.0,324.0,1
-4.0,-213.0,-6.0,217.0,391.0,339.0,1
-2.0,-216.0,-4.0,188.0,405.0,347.0,1
-4.0,-220.0,3.0,141.0,421.0,354.0,1
-4.0,-219.0,3.0,96.0,443.0,366.0,1
0.0,-214.0,5.0,57.0,463.0,372.0,1
-5.0,-218.0,3.0,21.0,483.0,370.0,1
-10.0,-215.0,4.0,-14.0,490.0,361.0,1
-14.0,-216.0,10.0,-47.0,494.0,356.0,1
-18.0,-215.0,11.0,-66.0,495.0,359.0,1
-23.0,-213.0,19.0,-82.0,488.0,359.0,1
-26.0,-210.0,14.0,-90.0,480.0,357.0,1
-32.0,-211.0,18.0,-90.0,467.0,344.0,1
-37.0,-214.0,19.0,-82.0,454.0,320.0,1
-36.0,-211.0,24.0,-60.0,446.0,301.0,1
-37.0,-213.0,28.0,-30.0,441.0,291.0,1
-35.0,-214.0,30.0,10.0,441.0,297.0,1
-44.0,-211.0,30.0,48.0,438.0,291.0,1
-41.0,-218.0,33.0,83.0,428.0,276.0,1
-40.0,-218.0,36.0,110.0,415.0,261.0,1
-43.0,-224.0,36.0,120.0,407.0,248.0,1
-43.0,-227.0,33.0,116.0,400.0,234.0,1
-42.0,-224.0,37.0,100.0,387.0,218.0,1
-40.0,-227.0,39.0,112.0,372.0,192.0,1
-39.0,-231.0,35.0,110.0,364.0,161.0,1
-36.0,-235.0,34.0,86.0,361.0,136.0,1
-33.0,-231.0,35.0,63.0,357.0,112.0,1
-28.0,-227.0,32.0,39.0,350.0,90.0,1
-27.0,-224.0,29.0,10.0,349.0,73.0,1
-21.0,-220.0,25.0,-27.0,352.0,58.0,1
-13.0,-218.0,25.0,-71.0,364.0,44.0,1
-9.0,-211.0,24.0,-115.0,389.0,32.0,1
-8.0,-211.0,26.0,-154.0,420.0,21.0,1
-4.0,-217.0,29.0,-186.0,453.0,16.0,1
-6.0,-212.0,30.0,-206.0,485.0,12.0,1
-6.0,-201.0,23.0,-222.0,516.0,8.0,1
0.0,-204.0,34.0,-247.0,557.0,6.0,1
-10.0,-227.0,48.0,-297.0,579.0,20.0,1
-15.0,-254.0,57.0,-284.0,571.0,18.0,1
-22.0,-256.0,55.0,-205.0,581.0,-3.0,1
-11.0,-260.0,52.0,-128.0,588.0,-39.0,1
-9.0,-267.0,50.0,-93.0,607.0,-67.0,1
-7.0,-274.0,50.0,-83.0,625.0,-75.0,1
-3.0,-284.0,39.0,-78.0,644.0,-79.0,1
-7.0,-282.0,34.0,-76.0,672.0,-75.0,1
-8.0,-277.0,46.0,-74.0,689.0,-66.0,1
0.0,-282.0,40.0,-52.0,701.0,-53.0,1
0.0,-287.0,34.0,-14.0,715.0,-48.0,1
-5.0,-288.0,38.0,26.0,731.0,-39.0,1
-5.0,-288.0,40.0,69.0,752.0,-28.0,1
-4.0,-284.0,46.0,117.0,770.0,-23.0,1
-5.0,-283.0,53.0,165.0,792.0,-18.0,1
-3.0,-291.0,59.0,209.0,798.0,-17.0,1
-8.0,-290.0,54.0,252.0,792.0,-16.0,1
-7.0,-291.0,55.0,280.0,790.0,-12.0,1
-11.0,-293.0,52.0,289.0,793.0,-11.0,1
-16.0,-292.0,51.0,278.0,796.0,-5.0,1
-20.0,-284.0,44.0,263.0,795.0,8.0,1
-32.0,-290.0,52.0,245.0,789.0,25.0,1
-42.0,-287.0,50.0,245.0,756.0,25.0,1
-41.0,-284.0,51.0,247.0,726.0,30.0,1
-45.0,-279.0,52.0,242.0,715.0,51.0,1
-44.0,-275.0,62.0,235.0,715.0,75.0,1
-40.0,-274.0,65.0,227.0,720.0,99.0,1
-43.0,-274.0,78.0,222.0,708.0,114.0,1
-35.0,-269.0,87.0,233.0,677.0,111.0,1
-31.0,-263.0,88.0,247.0,653.0,107.0,1
-34.0,-261.0,95.0,259.0,632.0,105.0,1
-36.0,-266.0,100.0,267.0,602.0,106.0,1
-45.0,-269.0,106.0,273.0,573.0,105.0,1
-75.0,-280.0,73.0,262.0,546.0,126.0,1
-108.0,-302.0,51.0,168.0,481.0,190.0,1
-99.0,-317.0,3.0,-48.0,406.0,297.0,1
-80.0,-336.0,-45.0,-375.0,376.0,402.0,1
-80.0,-387.0,-19.0,-752.0,393.0,474.0,1
-84.0,-436.0,33.0,-956.0,387.0,557.0,1
-71.0,-455.0,62.0,-915.0,319.0,689.0,1
-67.0,-456.0,70.0,-763.0,225.0,820.0,1
-55.0,-450.0,81.0,-597.0,144.0,935.0,1
-50.0,-431.0,80.0,-391.0,83.0,999.0,1
-57.0,-408.0,64.0,-134.0,32.0,1014.0,1
-69.0,-384.0,55.0,127.0,-13.0,984.0,1
-67.0,-369.0,35.0,355.0,-45.0,942.0,1
-55.0,-352.0,6.0,515.0,-79.0,892.0,1
-46.0,-336.0,-17.0,623.0,-82.0,855.0,1
-54.0,-326.0,-35.0,695.0,-67.0,803.0,1
-56.0,-307.0,-44.0,724.0,-51.0,721.0,1
-58.0,-287.0,-42.0,712.0,-17.0,629.0,1
-61.0,-266.0,-41.0,672.0,42.0,542.0,1
-53.0,-245.0,-49.0,604.0,112.0,464.0,1
-46.0,-223.0,-60.0,505.0,188.0,390.0,1
-38.0,-209.0,-62.0,390.0,261.0,322.0,1
-31.0,-198.0,-59.0,289.0,326.0,262.0,1
-18.0,-191.0,-59.0,226.0,376.0,216.0,1
-8.0,-184.0,-64.0,180.0,414.0,184.0,1
1.0,-178.0,-67.0,130.0,437.0,161.0,1
9.0,-180.0,-68.0,62.0,445.0,140.0,1
12.0,-188.0,-64.0,-11.0,441.0,124.0,1
16.0,-193.0,-63.0,-79.0,437.0,117.0,1
12.0,-208.0,-57.0,-145.0,441.0,115.0,1
9.0,-228.0,-48.0,-216.0,455.0,111.0,1
0.0,-244.0,-42.0,-285.0,467.0,101.0,1
-3.0,-264.0,-34.0,-347.0,466.0,83.0,1
-8.0,-283.0,-31.0,-398.0,457.0,56.0,1
-15.0,-300.0,-27.0,-429.0,434.0,28.0,1
-18.0,-311.0,-18.0,-434.0,399.0,5.0,1
-18.0,-319.0,-19.0,-408.0,361.0,-9.0,1
-20.0,-323.0,-23.0,-365.0,322.0,-31.0,1
-28.0,-321.0,-25.0,-319.0,293.0,-54.0,1
-31.0,-319.0,-25.0,-279.0,275.0,-72.0,1
-30.0,-318.0,-28.0,-236.0,257.0,-83.0,1
-40.0,-306.0,-22.0,-169.0,234.0,-104.0,1
-40.0,-300.0,-21.0,-84.0,206.0,-144.0,1
-42.0,-290.0,-12.0,4.0,173.0,-188.0,1
-43.0,-274.0,-12.0,102.0,145.0,-234.0,1
-43.0,-261.0,-14.0,182.0,125.0,-274.0,1
-41.0,-252.0,-9.0,233.0,113.0,-308.0,1
-43.0,-240.0,-8.0,268.0,103.0,-341.0,1
-42.0,-230.0,-9.0,286.0,91.0,-369.0,1
-46.0,-223.0,-7.0,283.0,79.0,-396.0,1
-47.0,-214.0,-4.0,255.0,61.0,-418.0,1
-52.0,-215.0,-12.0,232.0,40.0,-434.0,1
-53.0,-213.0,-1.0,205.0,21.0,-440.0,1
-54.0,-218.0,0.0,175.0,-2.0,-442.0,1
-56.0,-217.0,2.0,150.0,-27.0,-439.0,1
-52.0,-225.0,1.0,124.0,-47.0,-430.0,1
-48.0,-224.0,3.0,99.0,-66.0,-420.0,1
-42.0,-227.0,7.0,78.0,-82.0,-403.0,1
-36.0,-231.0,7.0,59.0,-98.0,-389.0,1
-31.0,-238.0,14.0,47.0,-113.0,-382.0,1
-24.0,-234.0,12.0,48.0,-128.0,-383.0,1
-19.0,-233.0,14.0,57.0,-143.0,-376.0,1
-12.0,-232.0,12.0,63.0,-154.0,-368.0,1
-7.0,-235.0,16.0,63.0,-162.0,-357.0,1
0.0,-234.0,13.0,63.0,-171.0,-347.0,1
1.0,-234.0,17.0,68.0,-184.0,-341.0,1
3.0,-239.0,14.0,69.0,-199.0,-333.0,1
5.0,-239.0,11.0,75.0,-217.0,-323.0,1
5.0,-248.0,17.0,94.0,-236.0,-308.0,1
11.0,-234.0,10.0,117.0,-249.0,-294.0,1
10.0,-234.0,10.0,91.0,-263.0,-283.0,1
2.0,-243.0,15.0,54.0,-272.0,-265.0,1
3.0,-251.0,23.0,42.0,-284.0,-265.0,1
0.0,-241.0,22.0,65.0,-300.0,-287.0,1
2.0,-231.0,16.0,96.0,-301.0,-289.0,1
3.0,-228.0,17.0,97.0,-295.0,-243.0,1
4.0,-225.0,21.0,80.0,-306.0,-203.0,1
-3.0,-218.0,28.0,62.0,-320.0,-183.0,1
-1.0,-215.0,34.0,49.0,-335.0,-185.0,1
-2.0,-215.0,40.0,41.0,-338.0,-181.0,1
-2.0,-211.0,35.0,40.0,-340.0,-170.0,1
-2.0,-210.0,44.0,44.0,-345.0,-161.0,1
-6.0,-207.0,47.0,47.0,-351.0,-145.0,1
-7.0,-213.0,48.0,48.0,-367.0,-133.0,1
-6.0,-216.0,49.0,51.0,-376.0,-119.0,1
-7.0,-220.0,57.0,56.0,-389.0,-112.0,1
-8.0,-226.0,54.0,57.0,-403.0,-106.0,1
-9.0,-233.0,61.0,67.0,-420.0,-102.0,1
-5.0,-235.0,58.0,82.0,-439.0,-98.0,1
-4.0,-243.0,53.0,96.0,-454.0,-85.0,1
-2.0,-248.0,56.0,110.0,-471.0,-75.0,1
-7.0,-253.0,53.0,130.0,-485.0,-62.0,1
-1.0,-256.0,51.0,147.0,-493.0,-47.0,1
-8.0,-252.0,45.0,163.0,-500.0,-33.0,1
-8.0,-255.0,40.0,180.0,-509.0,-18.0,1
-3.0,-255.0,48.0,196.0,-526.0,-7.0,1
-4.0,-255.0,53.0,218.0,-537.0,-3.0,1
1.0,-254.0,53.0,239.0,-549.0,8.0,1
1.0,-258.0,56.0,259.0,-565.0,17.0,1
-6.0,-256.0,57.0,278.0,-578.0,32.0,1
-4.0,-254.0,56.0,283.0,-595.0,44.0,1
-10.0,-256.0,56.0,282.0,-609.0,56.0,1
-11.0,-256.0,59.0,278.0,-615.0,69.0,1
-13.0,-257.0,57.0,267.0,-621.0,78.0,1
-12.0,-257.0,58.0,249.0,-627.0,80.0,1
-9.0,-260.0,56.0,223.0,-624.0,81.0,1
-2.0,-263.0,61.0,200.0,-611.0,80.0,1
0.0,-265.0,58.0,186.0,-592.0,75.0,1
12.0,-267.0,55.0,167.0,-568.0,62.0,1
17.0,-266.0,51.0,136.0,-544.0,38.0,1
28.0,-266.0,37.0,76.0,-525.0,20.0,1
39.0,-271.0,43.0,-1.0,-497.0,10.0,1
46.0,-279.0,49.0,-73.0,-466.0,3.0,1
48.0,-283.0,55.0,-124.0,-442.0,-5.0,1
58.0,-289.0,63.0,-150.0,-427.0,-18.0,1
59.0,-299.0,71.0,-149.0,-413.0,-28.0,1
61.0,-293.0,75.0,-120.0,-397.0,-33.0,1
58.0,-299.0,89.0,-78.0,-380.0,-32.0,1
54.0,-297.0,97.0,-34.0,-362.0,-28.0,1
51.0,-315.0,62.0,-2.0,-351.0,-26.0,1
58.0,-334.0,18.0,-56.0,-339.0,-24.0,1
31.0,-334.0,-16.0,-256.0,-328.0,-39.0,1
16.0,-349.0,-27.0,-529.0,-333.0,-31.0,1
-5.0,-390.0,19.0,-779.0,-335.0,-41.0,1
0.0,-427.0,61.0,-822.0,-227.0,-84.0,1
4.0,-431.0,77.0,-654.0,-95.0,-165.0,1
11.0,-422.0,65.0,-454.0,-40.0,-258.0,1
10.0,-413.0,63.0,-301.0,-2.0,-316.0,1
21.0,-409.0,61.0,-173.0,37.0,-370.0,1
31.0,-399.0,50.0,-66.0,80.0,-433.0,1
49.0,-378.0,28.0,-1.0,120.0,-520.0,1
58.0,-362.0,7.0,2.0,156.0,-604.0,1
53.0,-354.0,-2.0,-25.0,181.0,-659.0,1
50.0,-343.0,-6.0,-27.0,188.0,-689.0,1
48.0,-332.0,-8.0,42.0,202.0,-707.0,1
52.0,-312.0,-6.0,155.0,215.0,-730.0,1
50.0,-290.0,-17.0,252.0,228.0,-744.0,1
45.0,-266.0,-30.0,292.0,225.0,-745.0,1
34.0,-248.0,-45.0,286.0,214.0,-724.0,1
15.0,-222.0,-54.0,251.0,185.0,-689.0,1
1.0,-205.0,-63.0,195.0,156.0,-639.0,1
-15.0,-193.0,-72.0,113.0,126.0,-588.0,1
-31.0,-180.0,-68.0,11.0,96.0,-534.0,1
-49.0,-174.0,-66.0,-100.0,59.0,-474.0,1
-66.0,-167.0,-53.0,-195.0,24.0,-413.0,1
-79.0,-167.0,-40.0,-269.0,1.0,-349.0,1
-93.0,-166.0,-36.0,-330.0,-22.0,-289.0,1
-103.0,-171.0,-33.0,-391.0,-51.0,-242.0,1
-110.0,-182.0,-26.0,-453.0,-82.0,-193.0,1
-113.0,-209.0,-19.0,-527.0,-119.0,-141.0,1
-116.0,-233.0,-14.0,-618.0,-162.0,-93.0,1
-111.0,-261.0,-8.0,-713.0,-209.0,-48.0,1
-106.0,-293.0,-1.0,-799.0,-251.0,-6.0,1
-100.0,-314.0,5.0,-865.0,-281.0,34.0,1
-95.0,-334.0,9.0,-906.0,-304.0,66.0,1
-85.0,-347.0,12.0,-901.0,-316.0,90.0,1
-71.0,-353.0,13.0,-851.0,-322.0,111.0,1
-63.0,-354.0,10.0,-768.0,-326.0,121.0,1
-50.0,-350.0,4.0,-673.0,-325.0,126.0,1
-32.0,-341.0,-5.0,-578.0,-318.0,128.0,1
-18.0,-336.0,-18.0,-481.0,-303.0,128.0,1
-1.0,-322.0,-32.0,-392.0,-296.0,130.0,1
11.0,-312.0,-25.0,-317.0,-281.0,141.0,1
21.0,-302.0,-27.0,-244.0,-247.0,167.0,1
28.0,-284.0,-14.0,-157.0,-201.0,208.0,1
33.0,-270.0,-12.0,-53.0,-154.0,255.0,1
43.0,-257.0,-9.0,42.0,-116.0,299.0,1
39.0,-244.0,-12.0,106.0,-82.0,348.0,1
37.0,-245.0,-4.0,126.0,-45.0,391.0,1
34.0,-237.0,-1.0,118.0,-11.0,427.0,1
25.0,-233.0,0.0,109.0,17.0,457.0,1
18.0,-227.0,2.0,98.0,38.0,479.0,1
14.0,-220.0,0.0,80.0,54.0,502.0,1
13.0,-220.0,1.0,49.0,67.0,517.0,1
9.0,-217.0,3.0,14.0,79.0,519.0,1
8.0,-219.0,5.0,-31.0,100.0,526.0,1
4.0,-221.0,10.0,-74.0,123.0,528.0,1
3.0,-219.0,5.0,-127.0,146.0,525.0,1
0.0,-223.0,10.0,-192.0,168.0,515.0,1
-8.0,-222.0,13.0,-256.0,183.0,502.0,1
-16.0,-224.0,8.0,-314.0,200.0,492.0,1
-18.0,-228.0,12.0,-359.0,219.0,485.0,1
-22.0,-234.0,15.0,-394.0,234.0,478.0,1
-26.0,-235.0,18.0,-406.0,251.0,468.0,1
-32.0,-241.0,19.0,-394.0,268.0,462.0,1
-39.0,-242.0,25.0,-366.0,274.0,452.0,1
-41.0,-244.0,29.0,-315.0,277.0,436.0,1
-43.0,-242.0,31.0,-255.0,278.0,427.0,1
-47.0,-244.0,35.0,-199.0,287.0,427.0,1
-49.0,-245.0,36.0,-156.0,288.0,430.0,1
-55.0,-243.0,35.0,-128.0,280.0,429.0,1
-53.0,-239.0,36.0,-114.0,267.0,420.0,1
-52.0,-243.0,31.0,-98.0,261.0,411.0,1
-45.0,-242.0,35.0,-99.0,261.0,404.0,1
-42.0,-248.0,33.0,-106.0,265.0,391.0,1
-43.0,-244.0,28.0,-115.0,267.0,378.0,1
-36.0,-237.0,22.0,-130.0,264.0,360.0,1
-27.0,-240.0,22.0,-154.0,261.0,340.0,1
-21.0,-238.0,22.0,-164.0,264.0,324.0,1
-22.0,-240.0,26.0,-157.0,268.0,308.0,1
-20.0,-233.0,30.0,-135.0,264.0,291.0,1
-17.0,-235.0,34.0,-99.0,255.0,269.0,1
-8.0,-232.0,36.0,-60.0,248.0,257.0,1
-17.0,-227.0,33.0,-23.0,237.0,249.0,1
-22.0,-222.0,36.0,2.0,224.0,237.0,1
-27.0,-219.0,36.0,12.0,208.0,225.0,1
-27.0,-224.0,39.0,17.0,191.0,217.0,1
-26.0,-227.0,45.0,24.0,181.0,209.0,1
-28.0,-230.0,43.0,32.0,175.0,198.0,1
-28.0,-236.0,42.0,36.0,170.0,188.0,1
-33.0,-238.0,44.0,39.0,166.0,179.0,1
-31.0,-239.0,46.0,39.0,164.0,174.0,1
-30.0,-242.0,44.0,29.0,160.0,169.0,1
-29.0,-250.0,48.0,25.0,157.0,161.0,1
-24.0,-252.0,44.0,28.0,156.0,159.0,1
-28.0,-254.0,42.0,35.0,152.0,147.0,1
-24.0,-253.0,43.0,55.0,156.0,138.0,1
-22.0,-253.0,36.0,80.0,172.0,136.0,1
-21.0,-256.0,41.0,111.0,187.0,140.0,1
-19.0,-257.0,43.0,149.0,197.0,138.0,1
-15.0,-255.0,46.0,191.0,214.0,140.0,1
-15.0,-256.0,46.0,228.0,232.0,137.0,1
-12.0,-257.0,47.0,270.0,253.0,137.0,1
-15.0,-257.0,49.0,302.0,279.0,139.0,1
-3.0,-267.0,46.0,329.0,314.0,141.0,1
-7.0,-263.0,45.0,350.0,345.0,144.0,1
-4.0,-259.0,46.0,362.0,377.0,144.0,1
-6.0,-260.0,43.0,361.0,407.0,130.0,1
-1.0,-258.0,44.0,350.0,441.0,115.0,1
3.0,-257.0,44.0,338.0,481.0,95.0,1
0.0,-256.0,49.0,323.0,523.0,77.0,1
0.0,-257.0,50.0,299.0,565.0,58.0,1
2.0,-259.0,50.0,265.0,613.0,44.0,1
5.0,-258.0,53.0,207.0,666.0,29.0,1
10.0,-256.0,54.0,123.0,732.0,30.0,1
-9.0,-283.0,66.0,31.0,776.0,35.0,1
-13.0,-300.0,74.0,19.0,787.0,-5.0,1
-14.0,-303.0,69.0,60.0,811.0,-58.0,1
-14.0,-299.0,63.0,80.0,845.0,-95.0,1
-25.0,-304.0,62.0,68.0,872.0,-119.0,1
-33.0,-310.0,58.0,48.0,878.0,-134.0,1
-40.0,-311.0,56.0,28.0,880.0,-145.0,1
-49.0,-309.0,45.0,7.0,885.0,-151.0,1
-59.0,-307.0,41.0,-28.0,889.0,-148.0,1
-69.0,-306.0,40.0,-62.0,880.0,-136.0,1
-87.0,-314.0,40.0,-107.0,846.0,-108.0,1
-102.0,-322.0,28.0,-152.0,795.0,-73.0,1
-120.0,-329.0,26.0,-196.0,728.0,-28.0,1
-133.0,-338.0,16.0,-245.0,648.0,26.0,1
-147.0,-353.0,9.0,-298.0,564.0,85.0,1
-152.0,-371.0,1.0,-358.0,495.0,149.0,1
-157.0,-384.0,9.0,-409.0,413.0,210.0,1
-153.0,-400.0,19.0,-436.0,336.0,264.0,1
-145.0,-412.0,26.0,-430.0,257.0,315.0,1
-131.0,-415.0,32.0,-391.0,179.0,356.0,1
-118.0,-419.0,31.0,-328.0,100.0,384.0,1
-114.0,-418.0,23.0,-249.0,27.0,415.0,1
-104.0,-412.0,28.0,-173.0,-44.0,434.0,1
-92.0,-400.0,16.0,-84.0,-121.0,429.0,1
-70.0,-383.0,2.0,-1.0,-176.0,415.0,1
-67.0,-364.0,-1.0,79.0,-196.0,395.0,1
-57.0,-345.0,-3.0,162.0,-186.0,351.0,1
-44.0,-327.0,-16.0,230.0,-141.0,301.0,1
-36.0,-312.0,-17.0,282.0,-68.0,245.0,1
-28.0,-298.0,-22.0,320.0,12.0,179.0,1
-17.0,-282.0,-21.0,344.0,99.0,115.0,1
-6.0,-264.0,-26.0,358.0,181.0,61.0,1
-6.0,-248.0,-42.0,368.0,255.0,11.0,1
3.0,-223.0,-58.0,367.0,315.0,-35.0,1
12.0,-209.0,-69.0,349.0,372.0,-75.0,1
16.0,-195.0,-77.0,323.0,426.0,-102.0,1
25.0,-186.0,-81.0,297.0,476.0,-115.0,1
29.0,-175.0,-82.0,277.0,518.0,-126.0,1
36.0,-172.0,-81.0,265.0,561.0,-131.0,1
39.0,-171.0,-89.0,252.0,607.0,-134.0,1
33.0,-175.0,-85.0,224.0,659.0,-136.0,1
27.0,-182.0,-78.0,174.0,717.0,-138.0,1
17.0,-192.0,-77.0,125.0,748.0,-146.0,1
7.0,-197.0,-71.0,65.0,755.0,-157.0,1
1.0,-212.0,-63.0,-11.0,752.0,-162.0,1
-9.0,-227.0,-54.0,-85.0,736.0,-159.0,1
-19.0,-243.0,-40.0,-151.0,706.0,-153.0,1
-30.0,-250.0,-28.0,-197.0,667.0,-143.0,1
-37.0,-258.0,-19.0,-225.0,627.0,-127.0,1
-49.0,-265.0,-18.0,-236.0,584.0,-110.0,1
-58.0,-264.0,-16.0,-246.0,544.0,-90.0,1
-64.0,-266.0,-21.0,-253.0,501.0,-68.0,1
-69.0,-269.0,-26.0,-263.0,460.0,-47.0,1
-76.0,-266.0,-18.0,-278.0,422.0,-31.0,1
-72.0,-274.0,-28.0,-283.0,390.0,-18.0,1
-71.0,-275.0,-23.0,-268.0,364.0,-11.0,1
-65.0,-282.0,-24.0,-225.0,338.0,-6.0,1
-63.0,-283.0,-23.0,-156.0,311.0,-6.0,1
-58.0,-285.0,-15.0,-67.0,289.0,-13.0,1
-49.0,-272.0,-17.0,36.0,262.0,-21.0,1
-45.0,-269.0,-15.0,117.0,244.0,-26.0,1
-42.0,-264.0,-9.0,159.0,228.0,-34.0,1
-36.0,-260.0,-8.0,185.0,212.0,-51.0,1
-33.0,-250.0,-3.0,208.0,197.0,-78.0,1
-25.0,-251.0,-8.0,228.0,186.0,-108.0,1
-18.0,-249.0,-4.0,241.0,181.0,-139.0,1
-12.0,-250.0,3.0,249.0,177.0,-173.0,1
-3.0,-249.0,5.0,275.0,172.0,-208.0,1
0.0,-229.0,2.0,305.0,167.0,-243.0,1
3.0,-233.0,4.0,276.0,162.0,-268.0,1
0.0,-242.0,6.0,249.0,159.0,-284.0,1
2.0,-243.0,7.0,249.0,152.0,-306.0,1
-2.0,-238.0,4.0,254.0,146.0,-335.0,1
-3.0,-244.0,5.0,249.0,142.0,-354.0,1
-9.0,-247.0,8.0,244.0,134.0,-359.0,1
-18.0,-246.0,2.0,253.0,118.0,-367.0,1
-18.0,-249.0,7.0,269.0,100.0,-380.0,1
-23.0,-247.0,7.0,289.0,78.0,-405.0,1
-31.0,-238.0,7.0,332.0,68.0,-425.0,1
-24.0,-232.0,7.0,351.0,54.0,-403.0,1
-29.0,-233.0,12.0,334.0,32.0,-366.0,1
-36.0,-231.0,13.0,310.0,6.0,-331.0,1
-40.0,-229.0,15.0,277.0,-26.0,-327.0,1
-39.0,-225.0,15.0,244.0,-52.0,-330.0,1
-39.0,-228.0,16.0,208.0,-81.0,-333.0,1
-37.0,-224.0,16.0,169.0,-109.0,-338.0,1
-33.0,-221.0,18.0,130.0,-138.0,-339.0,1
-25.0,-220.0,16.0,101.0,-164.0,-340.0,1
-24.0,-219.0,20.0,86.0,-181.0,-336.0,1
-18.0,-221.0,21.0,71.0,-205.0,-343.0,1
-10.0,-219.0,19.0,62.0,-220.0,-340.0,1
-9.0,-217.0,23.0,60.0,-227.0,-325.0,1
-8.0,-209.0,25.0,56.0,-235.0,-317.0,1
0.0,-212.0,28.0,43.0,-240.0,-308.0,1
0.0,-207.0,24.0,31.0,-232.0,-287.0,1
3.0,-207.0,36.0,23.0,-217.0,-259.0,1
6.0,-209.0,32.0,29.0,-204.0,-232.0,1
3.0,-209.0,32.0,27.0,-195.0,-213.0,1
3.0,-206.0,34.0,14.0,-192.0,-200.0,1
8.0,-207.0,36.0,-5.0,-188.0,-189.0,1
15.0,-210.0,36.0,-19.0,-178.0,-166.0,1
20.0,-213.0,44.0,-25.0,-168.0,-144.0,1
18.0,-214.0,45.0,-21.0,-160.0,-119.0,1
24.0,-219.0,49.0,-12.0,-161.0,-98.0,1
20.0,-218.0,44.0,-1.0,-164.0,-82.0,1
20.0,-226.0,45.0,11.0,-174.0,-71.0,1
16.0,-225.0,44.0,15.0,-190.0,-64.0,1
14.0,-235.0,41.0,16.0,-206.0,-56.0,1
5.0,-235.0,44.0,21.0,-223.0,-44.0,1
0.0,-238.0,42.0,34.0,-240.0,-31.0,1
-5.0,-242.0,42.0,49.0,-258.0,-18.0,1
-7.0,-247.0,48.0,70.0,-277.0,-1.0,1
-15.0,-253.0,55.0,103.0,-288.0,16.0,1
-17.0,-255.0,63.0,155.0,-297.0,30.0,1
-22.0,-256.0,65.0,217.0,-313.0,49.0,1
-24.0,-258.0,63.0,273.0,-334.0,63.0,1
-26.0,-260.0,69.0,317.0,-355.0,72.0,1
-31.0,-262.0,78.0,343.0,-380.0,79.0,1
-13.0,-270.0,74.0,362.0,-409.0,78.0,1
-22.0,-259.0,77.0,371.0,-428.0,71.0,1
-16.0,-261.0,67.0,378.0,-460.0,66.0,1
-10.0,-258.0,62.0,369.0,-498.0,62.0,1
-9.0,-255.0,52.0,340.0,-537.0,54.0,1
-13.0,-250.0,55.0,294.0,-576.0,49.0,1
-8.0,-243.0,52.0,243.0,-610.0,44.0,1
-11.0,-241.0,50.0,204.0,-630.0,43.0,1
-10.0,-242.0,54.0,177.0,-640.0,40.0,1
-6.0,-246.0,58.0,161.0,-641.0,35.0,1
-7.0,-249.0,62.0,143.0,-633.0,29.0,1
-1.0,-258.0,60.0,120.0,-616.0,22.0,1
4.0,-263.0,58.0,82.0,-593.0,11.0,1
20.0,-271.0,57.0,30.0,-571.0,-2.0,1
33.0,-280.0,48.0,-37.0,-553.0,-14.0,1
40.0,-289.0,41.0,-132.0,-535.0,-34.0,1
47.0,-301.0,27.0,-242.0,-513.0,-51.0,1
47.0,-307.0,21.0,-345.0,-475.0,-64.0,1
52.0,-318.0,16.0,-428.0,-429.0,-74.0,1
54.0,-324.0,16.0,-473.0,-368.0,-82.0,1
56.0,-326.0,19.0,-488.0,-305.0,-98.0,1
53.0,-327.0,21.0,-483.0,-237.0,-123.0,1
59.0,-337.0,21.0,-482.0,-166.0,-154.0,1
55.0,-343.0,12.0,-497.0,-96.0,-182.0,1
48.0,-354.0,14.0,-528.0,-30.0,-228.0,1
49.0,-367.0,14.0,-563.0,27.0,-289.0,1
43.0,-375.0,19.0,-590.0,71.0,-349.0,1
44.0,-386.0,23.0,-598.0,115.0,-389.0,1
45.0,-394.0,27.0,-574.0,164.0,-425.0,1
54.0,-405.0,33.0,-528.0,221.0,-452.0,1
58.0,-407.0,25.0,-452.0,274.0,-481.0,1
60.0,-405.0,27.0,-383.0,317.0,-505.0,1
62.0,-404.0,17.0,-322.0,349.0,-523.0,1
54.0,-398.0,11.0,-269.0,368.0,-526.0,1
41.0,-391.0,5.0,-214.0,371.0,-515.0,1
32.0,-382.0,9.0,-140.0,353.0,-491.0,1
21.0,-379.0,8.0,-40.0,324.0,-454.0,1
4.0,-363.0,8.0,73.0,279.0,-416.0,1
-3.0,-344.0,7.0,173.0,238.0,-384.0,1
-14.0,-325.0,5.0,239.0,203.0,-342.0,1
-17.0,-305.0,0.0,276.0,176.0,-292.0,1
-19.0,-291.0,-7.0,296.0,149.0,-235.0,1
-25.0,-267.0,-16.0,306.0,113.0,-179.0,1
-24.0,-252.0,-29.0,300.0,73.0,-125.0,1
-31.0,-237.0,-35.0,270.0,30.0,-80.0,1
-36.0,-224.0,-38.0,226.0,-14.0,-29.0,1
-41.0,-206.0,-38.0,183.0,-56.0,12.0,1
-46.0,-195.0,-34.0,151.0,-89.0,50.0,1
-49.0,-187.0,-34.0,136.0,-108.0,90.0,1
-53.0,-180.0,-30.0,134.0,-113.0,134.0,1
-57.0,-169.0,-22.0,134.0,-125.0,162.0,1
-58.0,-162.0,-17.0,131.0,-134.0,181.0,1
-53.0,-160.0,-18.0,127.0,-141.0,192.0,1
-54.0,-161.0,-15.0,120.0,-140.0,200.0,1
-51.0,-162.0,-11.0,111.0,-141.0,197.0,1
-45.0,-171.0,-8.0,88.0,-145.0,198.0,1
-41.0,-177.0,-8.0,37.0,-148.0,197.0,1
-35.0,-189.0,-7.0,-37.0,-146.0,195.0,1
-30.0,-198.0,-6.0,-129.0,-135.0,187.0,1
-23.0,-216.0,-5.0,-234.0,-122.0,175.0,1
-17.0,-223.0,-3.0,-349.0,-110.0,159.0,1
-10.0,-231.0,-10.0,-461.0,-93.0,145.0,1
-2.0,-240.0,-16.0,-564.0,-73.0,127.0,1
2.0,-248.0,-26.0,-656.0,-48.0,106.0,1
1.0,-257.0,-32.0,-746.0,-22.0,81.0,1
3.0,-271.0,-31.0,-832.0,5.0,57.0,1
6.0,-278.0,-34.0,-888.0,32.0,38.0,1
2.0,-283.0,-34.0,-893.0,53.0,25.0,1
0.0,-293.0,-31.0,-854.0,73.0,19.0,1
-4.0,-301.0,-19.0,-779.0,91.0,18.0,1
-8.0,-306.0,-16.0,-680.0,107.0,19.0,1
-16.0,-309.0,-9.0,-565.0,115.0,24.0,1
-23.0,-312.0,1.0,-446.0,123.0,35.0,1
-27.0,-310.0,4.0,-330.0,124.0,49.0,1
-28.0,-311.0,8.0,-219.0,123.0,70.0,1
-32.0,-307.0,10.0,-123.0,126.0,99.0,1
-35.0,-298.0,6.0,-46.0,129.0,132.0,1
-31.0,-295.0,2.0,12.0,132.0,171.0,1
-34.0,-292.0,2.0,50.0,137.0,208.0,1
-35.0,-282.0,4.0,70.0,138.0,245.0,1
-36.0,-280.0,6.0,79.0,133.0,280.0,1
-33.0,-271.0,1.0,79.0,121.0,311.0,1
-33.0,-267.0,3.0,73.0,104.0,329.0,1
-26.0,-260.0,3.0,66.0,88.0,336.0,1
-25.0,-257.0,0.0,59.0,77.0,344.0,1
-19.0,-254.0,4.0,49.0,66.0,345.0,1
-16.0,-253.0,3.0,39.0,64.0,344.0,1
-12.0,-251.0,9.0,32.0,69.0,341.0,1
-10.0,-251.0,13.0,21.0,71.0,331.0,1
-8.0,-245.0,17.0,13.0,73.0,311.0,1
-4.0,-248.0,16.0,9.0,81.0,293.0,1
0.0,-246.0,23.0,11.0,89.0,283.0,1
-5.0,-246.0,23.0,18.0,101.0,274.0,1
-1.0,-241.0,20.0,21.0,110.0,269.0,1
1.0,-242.0,22.0,31.0,117.0,270.0,1
-5.0,-239.0,18.0,35.0,120.0,269.0,1
-5.0,-234.0,12.0,23.0,125.0,266.0,1
-7.0,-238.0,12.0,-9.0,143.0,262.0,1
-5.0,-233.0,12.0,-28.0,170.0,263.0,1
-7.0,-234.0,8.0,-21.0,198.0,273.0,1
-14.0,-233.0,14.0,2.0,217.0,275.0,1
-13.0,-229.0,14.0,19.0,217.0,270.0,1
-12.0,-227.0,12.0,36.0,208.0,257.0,1
-13.0,-223.0,17.0,58.0,213.0,245.0,1
-19.0,-219.0,17.0,93.0,233.0,231.0,1
-18.0,-212.0,17.0,129.0,251.0,213.0,1
-17.0,-208.0,24.0,163.0,270.0,190.0,1
-16.0,-208.0,28.0,188.0,290.0,169.0,1
-19.0,-206.0,30.0,197.0,314.0,142.0,1
-11.0,-203.0,33.0,185.0,339.0,107.0,1
-16.0,-201.0,35.0,148.0,365.0,69.0,1
-17.0,-199.0,28.0,88.0,379.0,31.0,1
-20.0,-201.0,23.0,8.0,378.0,2.0,1
-23.0,-200.0,15.0,-80.0,363.0,-21.0,1
-25.0,-201.0,9.0,-167.0,335.0,-42.0,1
-24.0,-200.0,0.0,-252.0,312.0,-50.0,1
-25.0,-202.0,0.0,-335.0,301.0,-42.0,1
-27.0,-210.0,-1.0,-406.0,303.0,-19.0,1
-32.0,-214.0,9.0,-444.0,303.0,9.0,1
-33.0,-222.0,18.0,-452.0,285.0,37.0,1
-45.0,-225.0,22.0,-443.0,248.0,72.0,1
-48.0,-240.0,37.0,-439.0,199.0,113.0,1
-58.0,-251.0,49.0,-435.0,148.0,152.0,1
-53.0,-272.0,65.0,-424.0,96.0,188.0,1
-53.0,-286.0,72.0,-389.0,48.0,207.0,1
-50.0,-297.0,82.0,-332.0,11.0,214.0,1
-50.0,-304.0,75.0,-260.0,-17.0,209.0,1
-51.0,-306.0,70.0,-181.0,-42.0,190.0,1
-46.0,-306.0,66.0,-110.0,-67.0,171.0,1
-48.0,-295.0,61.0,-55.0,-95.0,156.0,1
-41.0,-285.0,48.0,-15.0,-129.0,132.0,1
-37.0,-273.0,38.0,12.0,-160.0,103.0,1
-30.0,-261.0,35.0,32.0,-181.0,70.0,1
-21.0,-252.0,28.0,41.0,-189.0,40.0,1
-14.0,-241.0,26.0,42.0,-179.0,20.0,1
-5.0,-230.0,22.0,32.0,-155.0,5.0,1
4.0,-225.0,19.0,16.0,-121.0,4.0,1
9.0,-217.0,18.0,-7.0,-74.0,8.0,1
15.0,-218.0,17.0,-33.0,-20.0,21.0,1
19.0,-220.0,19.0,-56.0,35.0,37.0,1
27.0,-220.0,21.0,-78.0,92.0,57.0,1
30.0,-226.0,24.0,-98.0,151.0,79.0,1
32.0,-228.0,31.0,-122.0,207.0,104.0,1
31.0,-235.0,33.0,-157.0,258.0,130.0,1
28.0,-249.0,33.0,-209.0,299.0,161.0,1
19.0,-262.0,35.0,-269.0,331.0,194.0,1
14.0,-274.0,37.0,-333.0,357.0,229.0,1
2.0,-287.0,33.0,-392.0,382.0,266.0,1
-9.0,-297.0,20.0,-438.0,405.0,295.0,1
-15.0,-306.0,16.0,-471.0,421.0,321.0,1
-29.0,-317.0,12.0,-484.0,428.0,343.0,1
-34.0,-324.0,24.0,-479.0,431.0,361.0,1
-50.0,-334.0,10.0,-455.0,429.0,376.0,1
-57.0,-332.0,6.0,-423.0,419.0,387.0,1
-62.0,-330.0,1.0,-392.0,403.0,394.0,1
-72.0,-329.0,-5.0,-369.0,384.0,399.0,1
-74.0,-334.0,-5.0,-335.0,356.0,404.0,1
-75.0,-326.0,-8.0,-272.0,331.0,401.0,1
-73.0,-317.0,-8.0,-194.0,320.0,389.0,1
-74.0,-305.0,-8.0,-140.0,329.0,378.0,1
-69.0,-303.0,-8.0,-112.0,339.0,371.0,1
-63.0,-293.0,-15.0,-102.0,362.0,362.0,1
-59.0,-282.0,-18.0,-108.0,387.0,355.0,1
-51.0,-280.0,-21.0,-132.0,417.0,352.0,1
-45.0,-275.0,-22.0,-169.0,439.0,351.0,1
-34.0,-274.0,-23.0,-204.0,453.0,353.0,1
-26.0,-271.0,-19.0,-222.0,464.0,359.0,1
-24.0,-267.0,-26.0,-226.0,473.0,364.0,1
-18.0,-263.0,-34.0,-225.0,483.0,368.0,1
-15.0,-258.0,-28.0,-224.0,495.0,368.0,1
-14.0,-252.0,-34.0,-221.0,517.0,368.0,1
-13.0,-246.0,-42.0,-210.0,540.0,358.0,1
-16.0,-233.0,-48.0,-201.0,564.0,343.0,1
-13.0,-229.0,-41.0,-201.0,594.0,325.0,1
-18.0,-218.0,-40.0,-206.0,621.0,301.0,1
-18.0,-208.0,-38.0,-205.0,638.0,269.0,1
-23.0,-198.0,-43.0,-204.0,645.0,237.0,1
-26.0,-196.0,-45.0,-210.0,650.0,208.0,1
-30.0,-194.0,-47.0,-222.0,662.0,186.0,1
-30.0,-191.0,-48.0,-227.0,675.0,169.0,1
-24.0,-184.0,-38.0,-228.0,684.0,154.0,1
-26.0,-183.0,-25.0,-264.0,685.0,133.0,1
-35.0,-185.0,-15.0,-330.0,674.0,113.0,1
-35.0,-194.0,-6.0,-418.0,650.0,99.0,1
-46.0,-198.0,-3.0,-515.0,618.0,88.0,1
-50.0,-197.0,-3.0,-619.0,580.0,87.0,1
-54.0,-199.0,-12.0,-695.0,543.0,95.0,1
-53.0,-211.0,-30.0,-721.0,517.0,111.0,1
-60.0,-227.0,-31.0,-789.0,501.0,121.0,1
-63.0,-230.0,-38.0,-866.0,481.0,134.0,1
-61.0,-233.0,-46.0,-905.0,464.0,156.0,1
-61.0,-242.0,-57.0,-915.0,447.0,179.0,1
-60.0,-249.0,-52.0,-920.0,444.0,201.0,1
-55.0,-246.0,-58.0,-921.0,459.0,223.0,1
-48.0,-245.0,-63.0,-934.0,492.0,258.0,1
-41.0,-256.0,-65.0,-977.0,531.0,300.0,1
-40.0,-258.0,-73.0,-1030.0,567.0,325.0,1
-33.0,-269.0,-83.0,-1066.0,606.0,358.0,1
-27.0,-284.0,-84.0,-1106.0,639.0,392.0,1
-29.0,-290.0,-91.0,-1137.0,650.0,409.0,1
-22.0,-293.0,-104.0,-1155.0,670.0,416.0,1
-24.0,-296.0,-113.0,-1167.0,712.0,429.0,1
-28.0,-289.0,-118.0,-1181.0,760.0,434.0,1
-27.0,-277.0,-109.0,-1187.0,817.0,438.0,1
-23.0,-267.0,-111.0,-1175.0,870.0,441.0,1
-19.0,-261.0,-126.0,-1159.0,899.0,414.0,1
-13.0,-244.0,-143.0,-1164.0,918.0,355.0,1
-11.0,-232.0,-166.0,-1210.0,965.0,312.0,1
-19.0,-227.0,-167.0,-1291.0,1028.0,283.0,1
-29.0,-223.0,-172.0,-1375.0,1080.0,254.0,1
-33.0,-223.0,-166.0,-1462.0,1131.0,218.0,1
-47.0,-218.0,-172.0,-1553.0,1184.0,199.0,1
-52.0,-219.0,-182.0,-1675.0,1233.0,186.0,1
-59.0,-222.0,-193.0,-1808.0,1291.0,199.0,1
-62.0,-223.0,-180.0,-1955.0,1343.0,211.0,1
-60.0,-232.0,-141.0,-2091.0,1381.0,202.0,1
-61.0,-236.0,-93.0,-2171.0,1398.0,104.0,1
-66.0,-213.0,-86.0,-2205.0,1418.0,-39.0,1
-88.0,-209.0,-94.0,-2289.0,1479.0,-47.0,1
-110.0,-220.0,-106.0,-2472.0,1542.0,-4.0,1
-113.0,-245.0,-107.0,-2692.0,1583.0,29.0,1
-99.0,-255.0,-122.0,-2861.0,1611.0,36.0,1
-83.0,-262.0,-128.0,-2973.0,1616.0,40.0,1
-76.0,-256.0,-130.0,-3038.0,1602.0,-19.0,1
-61.0,-278.0,-130.0,-3083.0,1589.0,-72.0,1
-37.0,-270.0,-124.0,-3079.0,1595.0,-112.0,1
-26.0,-257.0,-127.0,-3074.0,1613.0,-179.0,1
-9.0,-250.0,-126.0,-3113.0,1629.0,-233.0,1
-5.0,-250.0,-119.0,-3156.0,1644.0,-256.0,1
-6.0,-255.0,-109.0,-3164.0,1655.0,-266.0,1
-1.0,-240.0,-112.0,-3133.0,1661.0,-267.0,1
-7.0,-217.0,-107.0,-3126.0,1662.0,-310.0,1
-22.0,-213.0,-96.0,-3165.0,1672.0,-331.0,1
-21.0,-225.0,-80.0,-3200.0,1664.0,-317.0,1
-25.0,-223.0,-65.0,-3206.0,1656.0,-309.0,1
-22.0,-226.0,-51.0,-3204.0,1650.0,-309.0,1
-27.0,-227.0,-49.0,-3199.0,1643.0,-312.0,1
-31.0,-240.0,-27.0,-3194.0,1625.0,-313.0,1
-32.0,-229.0,-31.0,-3167.0,1585.0,-318.0,1
-41.0,-228.0,-25.0,-3118.0,1516.0,-327.0,1
-46.0,-221.0,-22.0,-3056.0,1422.0,-328.0,1
-47.0,-215.0,-19.0,-2993.0,1313.0,-313.0,1
-33.0,-202.0,-18.0,-2933.0,1216.0,-287.0,1
-22.0,-194.0,-28.0,-2884.0,1153.0,-251.0,1
-19.0,-189.0,-32.0,-2847.0,1130.0,-199.0,1
-24.0,-178.0,-27.0,-2809.0,1111.0,-143.0,1
-26.0,-173.0,-33.0,-2764.0,1080.0,-77.0,1
-30.0,-169.0,-39.0,-2703.0,1049.0,-7.0,1
-29.0,-167.0,-43.0,-2633.0,1019.0,60.0,1
-31.0,-170.0,-49.0,-2558.0,998.0,113.0,1
-25.0,-171.0,-51.0,-2478.0,994.0,148.0,1
-23.0,-174.0,-54.0,-2394.0,1013.0,172.0,1
-25.0,-183.0,-55.0,-2306.0,1053.0,190.0,1
-32.0,-185.0,-56.0,-2219.0,1092.0,209.0,1
-24.0,-193.0,-60.0,-2134.0,1108.0,223.0,1
-17.0,-203.0,-53.0,-2056.0,1115.0,229.0,1
-13.0,-204.0,-50.0,-1970.0,1121.0,226.0,1
-10.0,-202.0,-40.0,-1873.0,1124.0,209.0,1
1.0,-198.0,-39.0,-1781.0,1099.0,180.0,1
3.0,-188.0,-43.0,-1710.0,1095.0,140.0,1
7.0,-179.0,-42.0,-1651.0,1111.0,90.0,1
23.0,-167.0,-45.0,-1598.0,1135.0,32.0,1
31.0,-150.0,-61.0,-1568.0,1172.0,-38.0,1
37.0,-140.0,-89.0,-1572.0,1227.0,-97.0,1
35.0,-132.0,-111.0,-1575.0,1305.0,-168.0,1
46.0,-113.0,-127.0,-1584.0,1365.0,-243.0,1
53.0,-85.0,-129.0,-1626.0,1414.0,-317.0,1
63.0,-79.0,-123.0,-1696.0,1451.0,-369.0,1
81.0,-77.0,-112.0,-1766.0,1484.0,-424.0,1
90.0,-73.0,-116.0,-1796.0,1530.0,-493.0,1
94.0,-82.0,-135.0,-1817.0,1590.0,-572.0,1
98.0,-75.0,-177.0,-1865.0,1636.0,-660.0,1
95.0,-75.0,-207.0,-1951.0,1694.0,-745.0,1
91.0,-80.0,-218.0,-2058.0,1762.0,-814.0,1
65.0,-104.0,-206.0,-2170.0,1816.0,-857.0,1
59.0,-115.0,-189.0,-2247.0,1819.0,-880.0,1
55.0,-140.0,-178.0,-2262.0,1825.0,-898.0,1
43.0,-161.0,-156.0,-2252.0,1862.0,-914.0,1
25.0,-189.0,-139.0,-2197.0,1874.0,-943.0,1
-3.0,-212.0,-108.0,-2112.0,1852.0,-1033.0,1
-27.0,-222.0,-105.0,-2038.0,1828.0,-1140.0,1
-44.0,-229.0,-87.0,-1992.0,1796.0,-1234.0,1
-49.0,-231.0,-51.0,-1958.0,1718.0,-1305.0,1
-68.0,-223.0,-19.0,-1919.0,1618.0,-1334.0,1
-93.0,-241.0,12.0,-1849.0,1461.0,-1347.0,1
-115.0,-227.0,45.0,-1734.0,1322.0,-1398.0,1
-129.0,-227.0,71.0,-1575.0,1198.0,-1466.0,1
-146.0,-213.0,78.0,-1406.0,1090.0,-1497.0,1
-147.0,-183.0,91.0,-1339.0,1037.0,-1511.0,1
-190.0,-171.0,84.0,-1292.0,1002.0,-1498.0,1
-193.0,-149.0,96.0,-1268.0,941.0,-1487.0,1
-178.0,-112.0,67.0,-1222.0,825.0,-1496.0,1
-176.0,-64.0,62.0,-1154.0,745.0,-1448.0,1
-153.0,-29.0,38.0,-1115.0,697.0,-1329.0,1
-146.0,-27.0,27.0,-1104.0,674.0,-1169.0,1
-90.0,31.0,0.0,-1104.0,667.0,-992.0,1
-74.0,57.0,-30.0,-1190.0,719.0,-826.0,1
-49.0,72.0,-54.0,-1384.0,761.0,-708.0,1
-26.0,86.0,-75.0,-1623.0,762.0,-653.0,1
20.0,90.0,-100.0,-1797.0,730.0,-659.0,1
41.0,87.0,-121.0,-1860.0,750.0,-645.0,1
76.0,97.0,-169.0,-1835.0,795.0,-632.0,1
127.0,79.0,-189.0,-1830.0,843.0,-614.0,1
179.0,105.0,-233.0,-1864.0,896.0,-678.0,1
145.0,72.0,-213.0,-1992.0,920.0,-810.0,1
131.0,18.0,-190.0,-2045.0,951.0,-730.0,1
166.0,26.0,-218.0,-2102.0,1068.0,-567.0,1
198.0,5.0,-223.0,-2245.0,1312.0,-549.0,1
196.0,-20.0,-205.0,-2331.0,1667.0,-638.0,1
194.0,-26.0,-188.0,-2287.0,1994.0,-711.0,1
202.0,-11.0,-196.0,-2148.0,2252.0,-716.0,1
209.0,-22.0,-205.0,-1971.0,2482.0,-676.0,1
226.0,-36.0,-208.0,-1722.0,2712.0,-636.0,1
229.0,-33.0,-229.0,-1423.0,2942.0,-600.0,1
226.0,-53.0,-236.0,-1133.0,3120.0,-546.0,1
229.0,-44.0,-259.0,-836.0,3232.0,-499.0,1
204.0,-51.0,-274.0,-537.0,3362.0,-448.0,1
219.0,-28.0,-289.0,-228.0,3493.0,-404.0,1
192.0,-6.0,-302.0,35.0,3662.0,-319.0,1
183.0,-21.0,-305.0,244.0,3778.0,-215.0,1
193.0,0.0,-357.0,453.0,3826.0,-152.0,1
175.0,-7.0,-375.0,614.0,3953.0,-81.0,1
164.0,-10.0,-384.0,765.0,4077.0,8.0,1
154.0,-1.0,-368.0,888.0,4129.0,71.0,1
125.0,3.0,-367.0,937.0,4105.0,110.0,1
126.0,8.0,-342.0,898.0,4068.0,133.0,1
132.0,13.0,-371.0,786.0,4047.0,179.0,1
135.0,-6.0,-378.0,611.0,4111.0,236.0,1
143.0,-24.0,-395.0,473.0,4260.0,319.0,1
145.0,-8.0,-398.0,386.0,4472.0,411.0,1
136.0,7.0,-363.0,273.0,4678.0,516.0,1
125.0,6.0,-323.0,132.0,4836.0,632.0,1
123.0,23.0,-287.0,10.0,4946.0,736.0,1
105.0,60.0,-252.0,-83.0,5025.0,843.0,1
63.0,76.0,-200.0,-193.0,5096.0,993.0,1
19.0,94.0,-140.0,-315.0,5096.0,1178.0,1
-87.0,107.0,-124.0,-392.0,5037.0,1356.0,1
-153.0,77.0,-138.0,-528.0,4950.0,1621.0,1
-59.0,44.0,-67.0,-831.0,4826.0,1867.0,1
-69.0,104.0,-4.0,-965.0,4706.0,1925.0,1
-102.0,110.0,-16.0,-676.0,4521.0,1788.0,1
-5.0,83.0,-17.0,-384.0,4213.0,1600.0,1
125.0,63.0,123.0,-177.0,3895.0,936.0,1
72.0,173.0,142.0,572.0,3792.0,-25.0,1
194.0,393.0,234.0,1480.0,3764.0,-808.0,1
483.0,636.0,271.0,2220.0,3598.0,-1661.0,1
890.0,843.0,105.0,2509.0,3150.0,-2670.0,1
1213.0,1055.0,85.0,1995.0,2993.0,-3444.0,1
1627.0,1099.0,111.0,604.0,3389.0,-3474.0,1
2170.0,1122.0,131.0,-732.0,3952.0,-2758.0,1
2740.0,1120.0,-122.0,-1319.0,3917.0,-2488.0,1
3302.0,733.0,-798.0,-1429.0,3830.0,-2680.0,1
2540.0,691.0,-949.0,-2273.0,4478.0,-3357.0,1
1360.0,565.0,-659.0,-3399.0,4961.0,-3038.0,1
555.0,474.0,-330.0,-4014.0,4294.0,-1672.0,1
447.0,229.0,-53.0,-3666.0,3114.0,61.0,1
280.0,159.0,196.0,-2184.0,2360.0,1360.0,1
16.0,110.0,462.0,27.0,1375.0,2103.0,1
-209.0,247.0,316.0,2778.0,848.0,2693.0,1
-257.0,317.0,285.0,4894.0,919.0,3537.0,1
-192.0,301.0,271.0,5862.0,948.0,3999.0,1
-103.0,206.0,342.0,5860.0,902.0,4016.0,1
-85.0,151.0,375.0,5469.0,802.0,3700.0,1
121.0,138.0,334.0,4980.0,750.0,3177.0,1
36.0,81.0,303.0,4268.0,754.0,2767.0,1
53.0,58.0,246.0,3253.0,865.0,2844.0,1
121.0,43.0,163.0,2234.0,920.0,2759.0,1
155.0,59.0,92.0,1418.0,835.0,2440.0,1
160.0,81.0,29.0,847.0,783.0,2061.0,1
111.0,69.0,26.0,493.0,817.0,1744.0,1
102.0,37.0,23.0,310.0,904.0,1576.0,1
99.0,17.0,12.0,262.0,993.0,1442.0,1
158.0,49.0,8.0,335.0,1045.0,1284.0,1
50.0,50.0,34.0,459.0,1042.0,1113.0,1
24.0,90.0,29.0,554.0,1013.0,1063.0,1
-49.0,140.0,64.0,645.0,970.0,999.0,1
-58.0,136.0,106.0,732.0,949.0,924.0,1
-65.0,164.0,109.0,815.0,927.0,821.0,1
-53.0,151.0,128.0,871.0,902.0,719.0,1
-9.0,124.0,137.0,910.0,891.0,625.0,1
42.0,86.0,132.0,883.0,871.0,546.0,1
77.0,44.0,128.0,828.0,874.0,498.0,1
77.0,28.0,124.0,816.0,914.0,467.0,1
89.0,7.0,123.0,827.0,946.0,453.0,1
115.0,11.0,138.0,806.0,881.0,422.0,1
185.0,17.0,116.0,755.0,765.0,350.0,1
286.0,7.0,80.0,628.0,656.0,206.0,1
350.0,33.0,57.0,378.0,603.0,37.0,1
304.0,83.0,43.0,108.0,620.0,-117.0,1
274.0,121.0,67.0,-125.0,629.0,-199.0,1
270.0,114.0,76.0,-247.0,608.0,-230.0,1
257.0,101.0,96.0,-204.0,590.0,-269.0,1
262.0,106.0,130.0,-38.0,563.0,-311.0,1
261.0,124.0,142.0,206.0,538.0,-361.0,1
263.0,136.0,162.0,449.0,497.0,-433.0,1
283.0,136.0,175.0,620.0,425.0,-514.0,1
316.0,138.0,172.0,670.0,325.0,-570.0,1
330.0,141.0,173.0,626.0,223.0,-576.0,1
345.0,160.0,164.0,546.0,120.0,-545.0,1
349.0,154.0,148.0,459.0,16.0,-482.0,1
321.0,133.0,146.0,375.0,-71.0,-390.0,1
309.0,126.0,143.0,300.0,-131.0,-284.0,1
299.0,108.0,134.0,228.0,-186.0,-194.0,1
300.0,86.0,135.0,145.0,-253.0,-121.0,1
298.0,72.0,110.0,74.0,-328.0,-66.0,1
272.0,53.0,121.0,26.0,-402.0,-31.0,1
295.0,31.0,100.0,5.0,-465.0,-45.0,1
267.0,19.0,99.0,26.0,-497.0,-21.0,1
269.0,7.0,95.0,86.0,-532.0,-10.0,1
252.0,6.0,85.0,175.0,-555.0,-35.0,1
245.0,1.0,74.0,271.0,-568.0,-41.0,1
237.0,6.0,70.0,361.0,-569.0,-34.0,1
221.0,13.0,54.0,455.0,-543.0,-16.0,1
215.0,24.0,40.0,521.0,-503.0,5.0,1
207.0,29.0,55.0,564.0,-460.0,49.0,1
206.0,42.0,52.0,604.0,-426.0,75.0,1
195.0,48.0,50.0,628.0,-401.0,116.0,1
193.0,45.0,53.0,644.0,-374.0,170.0,1
189.0,51.0,51.0,657.0,-344.0,232.0,1
199.0,50.0,51.0,662.0,-313.0,293.0,1
207.0,41.0,53.0,663.0,-287.0,360.0,1
209.0,46.0,49.0,646.0,-260.0,417.0,1
232.0,42.0,44.0,592.0,-241.0,462.0,1
246.0,28.0,38.0,511.0,-202.0,493.0,1
259.0,26.0,32.0,435.0,-143.0,509.0,1
261.0,15.0,33.0,382.0,-83.0,521.0,1
262.0,6.0,40.0,358.0,-23.0,511.0,1
270.0,11.0,34.0,346.0,28.0,505.0,1
270.0,2.0,35.0,350.0,73.0,507.0,1
272.0,2.0,35.0,367.0,124.0,501.0,1
265.0,-3.0,41.0,386.0,167.0,498.0,1
260.0,-3.0,38.0,401.0,202.0,487.0,1
254.0,-1.0,38.0,412.0,232.0,484.0,1
255.0,-3.0,39.0,421.0,255.0,477.0,1
250.0,-3.0,32.0,426.0,273.0,472.0,1
244.0,0.0,22.0,415.0,276.0,471.0,1
251.0,-5.0,28.0,393.0,272.0,465.0,1
256.0,-5.0,28.0,365.0,260.0,465.0,1
252.0,-4.0,27.0,338.0,247.0,461.0,1
253.0,-8.0,24.0,300.0,234.0,453.0,1
257.0,-2.0,27.0,257.0,220.0,443.0,1
265.0,-9.0,23.0,208.0,207.0,439.0,1
264.0,-14.0,32.0,165.0,198.0,442.0,1
276.0,-14.0,28.0,119.0,186.0,440.0,1
272.0,-23.0,29.0,84.0,169.0,446.0,1
272.0,-22.0,32.0,55.0,155.0,438.0,1
270.0,-22.0,33.0,30.0,140.0,425.0,1
269.0,-25.0,34.0,-1.0,117.0,414.0,1
267.0,-25.0,33.0,-36.0,88.0,409.0,1
262.0,-28.0,32.0,-73.0,58.0,400.0,1
258.0,-29.0,36.0,-115.0,23.0,386.0,1
269.0,-34.0,41.0,-161.0,-20.0,367.0,1
268.0,-31.0,44.0,-210.0,-56.0,344.0,1
273.0,-29.0,46.0,-254.0,-76.0,317.0,1
263.0,-29.0,48.0,-286.0,-88.0,304.0,1
260.0,-29.0,45.0,-316.0,-113.0,301.0,1
262.0,-32.0,46.0,-342.0,-138.0,293.0,1
261.0,-32.0,47.0,-365.0,-157.0,284.0,1
261.0,-40.0,47.0,-390.0,-173.0,273.0,1
259.0,-40.0,52.0,-414.0,-183.0,263.0,1
259.0,-47.0,47.0,-430.0,-194.0,258.0,1
262.0,-54.0,54.0,-439.0,-206.0,250.0,1
257.0,-56.0,52.0,-445.0,-215.0,238.0,1
256.0,-61.0,50.0,-440.0,-227.0,220.0,1
256.0,-63.0,54.0,-432.0,-237.0,205.0,1
252.0,-64.0,46.0,-425.0,-242.0,193.0,1
253.0,-71.0,48.0,-416.0,-242.0,183.0,1
249.0,-68.0,46.0,-407.0,-238.0,174.0,1
244.0,-68.0,45.0,-401.0,-237.0,166.0,1
247.0,-73.0,41.0,-389.0,-237.0,152.0,1
247.0,-66.0,39.0,-373.0,-236.0,136.0,1
251.0,-67.0,36.0,-348.0,-234.0,121.0,1
250.0,-66.0,35.0,-316.0,-228.0,107.0,1
247.0,-65.0,36.0,-278.0,-221.0,96.0,1
255.0,-61.0,29.0,-239.0,-211.0,88.0,1
255.0,-57.0,29.0,-200.0,-202.0,80.0,1
255.0,-51.0,22.0,-164.0,-189.0,73.0,1
254.0,-48.0,21.0,-131.0,-177.0,69.0,1
253.0,-36.0,24.0,-108.0,-163.0,63.0,1
255.0,-38.0,24.0,-92.0,-147.0,58.0,1
253.0,-33.0,22.0,-87.0,-128.0,56.0,1
255.0,-32.0,25.0,-91.0,-106.0,55.0,1
255.0,-30.0,27.0,-105.0,-84.0,54.0,1
257.0,-33.0,26.0,-123.0,-65.0,56.0,1
261.0,-28.0,30.0,-148.0,-48.0,58.0,1
262.0,-32.0,33.0,-173.0,-33.0,60.0,1
261.0,-30.0,33.0,-197.0,-22.0,57.0,1
263.0,-33.0,32.0,-215.0,-8.0,57.0,1
259.0,-35.0,31.0,-233.0,2.0,59.0,1
259.0,-39.0,34.0,-251.0,10.0,62.0,1
255.0,-40.0,35.0,-263.0,12.0,66.0,1
254.0,-43.0,34.0,-270.0,10.0,68.0,1
252.0,-49.0,35.0,-268.0,10.0,68.0,1
253.0,-54.0,38.0,-261.0,8.0,66.0,1
248.0,-52.0,40.0,-248.0,7.0,60.0,1
245.0,-55.0,41.0,-235.0,6.0,51.0,1
247.0,-56.0,44.0,-223.0,5.0,39.0,1
246.0,-55.0,46.0,-215.0,3.0,27.0,1
241.0,-58.0,46.0,-208.0,4.0,12.0,1
248.0,-54.0,43.0,-204.0,3.0,-4.0,1
244.0,-54.0,48.0,-202.0,4.0,-21.0,1
247.0,-52.0,48.0,-203.0,5.0,-40.0,1
252.0,-51.0,41.0,-205.0,7.0,-57.0,1
251.0,-50.0,41.0,-208.0,7.0,-78.0,1
252.0,-49.0,38.0,-210.0,8.0,-96.0,1
254.0,-49.0,35.0,-211.0,9.0,-113.0,1
255.0,-49.0,36.0,-208.0,11.0,-131.0,1
254.0,-48.0,35.0,-202.0,13.0,-145.0,1
257.0,-46.0,35.0,-190.0,13.0,-157.0,1
257.0,-45.0,35.0,-172.0,12.0,-168.0,1
257.0,-42.0,31.0,-151.0,10.0,-175.0,1
260.0,-42.0,28.0,-125.0,8.0,-178.0,1
259.0,-41.0,28.0,-94.0,7.0,-178.0,1
259.0,-38.0,30.0,-63.0,9.0,-177.0,1
258.0,-39.0,27.0,-35.0,9.0,-171.0,1
258.0,-35.0,27.0,-7.0,11.0,-165.0,1
256.0,-36.0,27.0,18.0,13.0,-159.0,1
257.0,-31.0,30.0,41.0,14.0,-152.0,1
258.0,-32.0,29.0,61.0,19.0,-145.0,1
260.0,-30.0,28.0,78.0,26.0,-137.0,1
256.0,-28.0,28.0,92.0,31.0,-130.0,1
257.0,-30.0,31.0,100.0,40.0,-124.0,1
255.0,-29.0,29.0,107.0,47.0,-117.0,1
253.0,-23.0,31.0,111.0,55.0,-108.0,1
253.0,-24.0,35.0,113.0,63.0,-96.0,1
255.0,-23.0,31.0,112.0,71.0,-85.0,1
256.0,-21.0,32.0,110.0,78.0,-74.0,1
256.0,-23.0,34.0,104.0,83.0,-64.0,1
257.0,-20.0,30.0,100.0,90.0,-53.0,1
255.0,-20.0,35.0,92.0,94.0,-42.0,1
255.0,-19.0,35.0,86.0,96.0,-33.0,1
255.0,-19.0,38.0,80.0,97.0,-24.0,1
256.0,-21.0,36.0,75.0,97.0,-15.0,1
256.0,-20.0,38.0,70.0,96.0,-6.0,1
255.0,-20.0,39.0,65.0,92.0,1.0,1
260.0,-23.0,36.0,59.0,89.0,7.0,1
257.0,-22.0,38.0,54.0,85.0,12.0,1
257.0,-22.0,40.0,49.0,81.0,15.0,1
255.0,-25.0,33.0,42.0,79.0,16.0,1
256.0,-23.0,34.0,33.0,76.0,18.0,1
258.0,-25.0,37.0,26.0,75.0,19.0,1
256.0,-24.0,37.0,17.0,75.0,21.0,1
259.0,-25.0,36.0,9.0,75.0,22.0,1
257.0,-24.0,33.0,1.0,75.0,23.0,1
257.0,-24.0,38.0,-7.0,76.0,23.0,1
259.0,-23.0,34.0,-17.0,77.0,23.0,1
256.0,-26.0,35.0,-26.0,81.0,25.0,1
256.0,-23.0,35.0,-36.0,81.0,26.0,1
260.0,-26.0,32.0,-47.0,83.0,26.0,1
257.0,-28.0,34.0,-55.0,84.0,26.0,1
256.0,-30.0,33.0,-60.0,85.0,24.0,1
258.0,-32.0,35.0,-61.0,84.0,26.0,1
255.0,-30.0,35.0,-60.0,85.0,26.0,1
257.0,-36.0,34.0,-57.0,84.0,25.0,1
256.0,-35.0,32.0,-53.0,82.0,25.0,1
256.0,-37.0,34.0,-48.0,83.0,24.0,1
256.0,-31.0,30.0,-41.0,83.0,25.0,1
255.0,-34.0,32.0,-36.0,84.0,24.0,1
254.0,-33.0,28.0,-27.0,86.0,25.0,1
257.0,-34.0,33.0,-22.0,88.0,23.0,1
254.0,-35.0,37.0,-16.0,94.0,23.0,1
254.0,-35.0,31.0,-13.0,99.0,22.0,1
255.0,-34.0,29.0,-9.0,105.0,20.0,1
256.0,-35.0,37.0,-7.0,112.0,19.0,1
255.0,-35.0,34.0,-4.0,118.0,17.0,1
255.0,-33.0,35.0,-1.0,123.0,15.0,1
255.0,-35.0,33.0,3.0,132.0,16.0,1
254.0,-37.0,30.0,4.0,134.0,16.0,1
253.0,-36.0,35.0,6.0,136.0,14.0,1
256.0,-34.0,37.0,9.0,137.0,15.0,1
255.0,-37.0,36.0,13.0,140.0,15.0,1
253.0,-35.0,33.0,18.0,139.0,12.0,1
252.0,-35.0,33.0,22.0,139.0,9.0,1
255.0,-34.0,34.0,26.0,139.0,9.0,1
253.0,-37.0,34.0,34.0,141.0,5.0,1
255.0,-37.0,35.0,39.0,145.0,2.0,1
255.0,-35.0,39.0,45.0,146.0,0.0,1
254.0,-36.0,40.0,47.0,145.0,-4.0,1
251.0,-37.0,38.0,46.0,140.0,-7.0,1
255.0,-36.0,40.0,43.0,136.0,-12.0,1
253.0,-37.0,41.0,40.0,137.0,-14.0,1
255.0,-33.0,39.0,37.0,135.0,-14.0,1
248.0,-46.0,43.0,35.0,131.0,-15.0,1
253.0,-37.0,38.0,31.0,127.0,-18.0,1
254.0,-36.0,37.0,31.0,126.0,-19.0,1
255.0,-34.0,40.0,29.0,126.0,-20.0,1
255.0,-36.0,42.0,30.0,123.0,-21.0,1
254.0,-33.0,41.0,31.0,122.0,-21.0,1
255.0,-40.0,41.0,33.0,119.0,-22.0,1
255.0,-36.0,39.0,34.0,117.0,-22.0,1
254.0,-32.0,44.0,36.0,115.0,-23.0,1
257.0,-33.0,41.0,36.0,112.0,-24.0,1
256.0,-36.0,42.0,36.0,112.0,-27.0,1
255.0,-37.0,43.0,39.0,114.0,-27.0,1
254.0,-32.0,42.0,41.0,114.0,-28.0,1
255.0,-33.0,40.0,38.0,111.0,-28.0,1
254.0,-31.0,40.0,36.0,108.0,-29.0,1
253.0,-29.0,44.0,34.0,106.0,-31.0,1
253.0,-32.0,44.0,32.0,105.0,-29.0,1
255.0,-32.0,43.0,30.0,103.0,-28.0,1
254.0,-31.0,40.0,28.0,104.0,-27.0,1
253.0,-32.0,40.0,26.0,105.0,-27.0,1
255.0,-32.0,37.0,24.0,103.0,-26.0,1
253.0,-31.0,43.0,22.0,100.0,-24.0,1
257.0,-29.0,42.0,19.0,99.0,-22.0,1
255.0,-31.0,40.0,18.0,97.0,-21.0,1
252.0,-29.0,39.0,17.0,94.0,-20.0,1
257.0,-31.0,37.0,15.0,93.0,-20.0,1
255.0,-30.0,39.0,13.0,92.0,-17.0,1
256.0,-30.0,39.0,13.0,90.0,-16.0,1
256.0,-34.0,42.0,12.0,88.0,-15.0,1
253.0,-30.0,42.0,12.0,85.0,-16.0,1
256.0,-32.0,42.0,12.0,84.0,-17.0,1
256.0,-28.0,37.0,11.0,83.0,-16.0,1
254.0,-30.0,40.0,12.0,82.0,-17.0,1
255.0,-32.0,40.0,11.0,82.0,-18.0,1
257.0,-34.0,41.0,12.0,82.0,-17.0,1
255.0,-31.0,39.0,15.0,83.0,-17.0,1
253.0,-32.0,38.0,16.0,85.0,-18.0,1
254.0,-33.0,38.0,18.0,84.0,-19.0,1
254.0,-29.0,38.0,17.0,84.0,-18.0,1
255.0,-28.0,37.0,16.0,85.0,-18.0,1
256.0,-30.0,35.0,17.0,85.0,-17.0,1
259.0,-32.0,41.0,18.0,84.0,-15.0,1
255.0,-34.0,37.0,18.0,83.0,-16.0,1
254.0,-30.0,36.0,19.0,84.0,-15.0,1
258.0,-33.0,38.0,23.0,85.0,-16.0,1
257.0,-29.0,35.0,23.0,87.0,-13.0,1
256.0,-30.0,37.0,26.0,89.0,-11.0,1
255.0,-31.0,38.0,28.0,90.0,-9.0,1
255.0,-29.0,40.0,32.0,91.0,-9.0,1
253.0,-30.0,40.0,35.0,90.0,-8.0,1
255.0,-29.0,40.0,38.0,91.0,-8.0,1
254.0,-30.0,38.0,40.0,92.0,-7.0,1
255.0,-33.0,38.0,42.0,94.0,-6.0,1
255.0,-29.0,39.0,41.0,95.0,-6.0,1
255.0,-33.0,38.0,41.0,93.0,-6.0,1
256.0,-30.0,46.0,38.0,95.0,-5.0,1
253.0,-28.0,41.0,35.0,95.0,-4.0,1
256.0,-35.0,43.0,33.0,94.0,-4.0,1
254.0,-29.0,38.0,32.0,96.0,-5.0,1
255.0,-33.0,38.0,30.0,98.0,-4.0,1
256.0,-30.0,38.0,28.0,99.0,-1.0,1
254.0,-29.0,42.0,26.0,99.0,-3.0,1
255.0,-31.0,38.0,23.0,99.0,-3.0,1
255.0,-32.0,42.0,21.0,99.0,-5.0,1
257.0,-29.0,41.0,17.0,97.0,-3.0,1
255.0,-33.0,39.0,13.0,96.0,-4.0,1
253.0,-31.0,45.0,11.0,95.0,-3.0,1
254.0,-28.0,43.0,9.0,95.0,-8.0,1
254.0,-30.0,43.0,7.0,95.0,-6.0,1
255.0,-29.0,39.0,3.0,94.0,-6.0,1
256.0,-33.0,44.0,0.0,91.0,-6.0,1
256.0,-33.0,44.0,-1.0,90.0,-4.0,1
256.0,-31.0,44.0,0.0,91.0,-4.0,1
256.0,-32.0,40.0,1.0,93.0,-6.0,1
255.0,-31.0,42.0,0.0,92.0,-5.0,1
256.0,-27.0,43.0,3.0,92.0,-4.0,1
257.0,-33.0,42.0,3.0,88.0,-4.0,1
254.0,-28.0,39.0,4.0,87.0,-4.0,1
254.0,-33.0,41.0,5.0,86.0,-5.0,1
254.0,-30.0,42.0,5.0,87.0,-6.0,1
254.0,-33.0,42.0,5.0,86.0,-8.0,1
255.0,-29.0,40.0,9.0,88.0,-7.0,1
254.0,-31.0,42.0,11.0,88.0,-9.0,1
254.0,-30.0,42.0,13.0,90.0,-8.0,1
256.0,-32.0,46.0,13.0,91.0,-8.0,1
254.0,-31.0,40.0,14.0,91.0,-9.0,1
256.0,-29.0,40.0,14.0,92.0,-9.0,1
253.0,-35.0,46.0,13.0,92.0,-8.0,1
254.0,-30.0,42.0,13.0,92.0,-8.0,1
255.0,-30.0,40.0,13.0,91.0,-8.0,1
254.0,-32.0,42.0,12.0,92.0,-7.0,1
252.0,-30.0,40.0,12.0,93.0,-6.0,1
255.0,-29.0,44.0,12.0,92.0,-5.0,1
254.0,-29.0,44.0,12.0,92.0,-5.0,1
254.0,-30.0,40.0,11.0,91.0,-5.0,1
255.0,-32.0,44.0,13.0,88.0,-4.0,1
252.0,-32.0,42.0,13.0,86.0,-5.0,1
255.0,-33.0,46.0,14.0,85.0,-5.0,1
254.0,-29.0,42.0,14.0,84.0,-5.0,1
253.0,-31.0,47.0,16.0,84.0,-8.0,1
255.0,-33.0,39.0,16.0,85.0,-9.0,1
255.0,-31.0,45.0,20.0,86.0,-12.0,1
255.0,-30.0,44.0,19.0,86.0,-12.0,1
253.0,-31.0,44.0,17.0,86.0,-10.0,1
255.0,-30.0,44.0,17.0,88.0,-10.0,1
252.0,-30.0,44.0,16.0,89.0,-12.0,1
254.0,-33.0,43.0,15.0,90.0,-12.0,1
253.0,-29.0,44.0,16.0,90.0,-14.0,1
255.0,-30.0,41.0,16.0,89.0,-14.0,1
253.0,-33.0,43.0,15.0,88.0,-14.0,1
254.0,-32.0,40.0,15.0,87.0,-13.0,1
255.0,-31.0,41.0,15.0,86.0,-13.0,1
255.0,-30.0,41.0,13.0,84.0,-13.0,1
253.0,-32.0,44.0,15.0,82.0,-12.0,1
256.0,-31.0,44.0,17.0,81.0,-11.0,1
256.0,-33.0,42.0,20.0,79.0,-11.0,1
254.0,-31.0,45.0,21.0,80.0,-10.0,1
255.0,-32.0,38.0,23.0,78.0,-10.0,1
255.0,-32.0,44.0,26.0,80.0,-9.0,1
255.0,-32.0,42.0,27.0,80.0,-9.0,1
255.0,-30.0,42.0,28.0,81.0,-9.0,1
254.0,-30.0,42.0,30.0,82.0,-8.0,1
256.0,-28.0,41.0,30.0,81.0,-7.0,1
253.0,-32.0,42.0,29.0,84.0,-6.0,1
253.0,-28.0,46.0,30.0,85.0,-6.0,1
254.0,-30.0,45.0,30.0,86.0,-7.0,1
256.0,-29.0,40.0,31.0,86.0,-7.0,1
253.0,-31.0,41.0,31.0,90.0,-7.0,1
256.0,-32.0,44.0,30.0,93.0,-5.0,1
255.0,-31.0,46.0,29.0,91.0,-4.0,1
253.0,-31.0,44.0,28.0,92.0,-5.0,1
255.0,-29.0,45.0,26.0,91.0,-5.0,1
253.0,-30.0,42.0,25.0,91.0,-5.0,1
252.0,-29.0,42.0,26.0,88.0,-5.0,1
256.0,-30.0,46.0,28.0,89.0,-8.0,1
255.0,-31.0,43.0,25.0,89.0,-6.0,1
256.0,-32.0,40.0,23.0,90.0,-4.0,1
254.0,-29.0,38.0,24.0,90.0,-4.0,1
255.0,-29.0,43.0,24.0,89.0,-3.0,1
256.0,-34.0,42.0,25.0,90.0,-4.0,1
253.0,-30.0,43.0,26.0,92.0,-3.0,1
256.0,-32.0,42.0,26.0,92.0,-3.0,1
254.0,-30.0,45.0,26.0,92.0,-4.0,1
255.0,-27.0,40.0,25.0,95.0,-4.0,1
252.0,-32.0,43.0,25.0,94.0,-3.0,1
252.0,-30.0,44.0,25.0,95.0,-3.0,1
252.0,-28.0,47.0,23.0,95.0,-6.0,1
255.0,-31.0,41.0,23.0,94.0,-6.0,1
254.0,-30.0,40.0,22.0,96.0,-6.0,1
254.0,-31.0,46.0,21.0,96.0,-7.0,1
255.0,-31.0,45.0,19.0,95.0,-8.0,1
253.0,-31.0,41.0,22.0,96.0,-8.0,1
253.0,-28.0,44.0,21.0,95.0,-8.0,1
250.0,-31.0,46.0,23.0,96.0,-8.0,1
254.0,-31.0,44.0,23.0,95.0,-9.0,1
253.0,-30.0,42.0,21.0,93.0,-10.0,1
255.0,-29.0,45.0,21.0,92.0,-10.0,1
255.0,-29.0,44.0,19.0,91.0,-10.0,1
256.0,-32.0,44.0,18.0,90.0,-10.0,1
254.0,-27.0,46.0,17.0,93.0,-10.0,1
254.0,-30.0,46.0,16.0,92.0,-12.0,1
255.0,-31.0,44.0,16.0,93.0,-15.0,1
256.0,-30.0,44.0,10.0,91.0,-13.0,1
255.0,-29.0,47.0,7.0,91.0,-12.0,1
254.0,-28.0,45.0,6.0,91.0,-11.0,1
255.0,-30.0,44.0,6.0,92.0,-10.0,1
256.0,-30.0,47.0,7.0,92.0,-11.0,1
255.0,-28.0,44.0,9.0,91.0,-9.0,1
254.0,-33.0,46.0,10.0,91.0,-9.0,1
253.0,-28.0,44.0,11.0,91.0,-7.0,1
253.0,-27.0,48.0,12.0,90.0,-8.0,1
253.0,-29.0,43.0,14.0,91.0,-7.0,1
254.0,-31.0,43.0,17.0,91.0,-6.0,1
255.0,-32.0,43.0,19.0,90.0,-6.0,1
256.0,-29.0,44.0,19.0,88.0,-5.0,1
255.0,-31.0,41.0,19.0,88.0,-4.0,1
255.0,-30.0,45.0,20.0,89.0,-4.0,1
255.0,-29.0,47.0,23.0,88.0,-4.0,1
255.0,-30.0,47.0,24.0,88.0,-6.0,1
257.0,-32.0,44.0,24.0,88.0,-4.0,1
252.0,-29.0,45.0,23.0,87.0,-3.0,1
256.0,-31.0,44.0,21.0,87.0,-5.0,1
254.0,-30.0,46.0,19.0,88.0,-4.0,1
255.0,-29.0,46.0,17.0,87.0,-4.0,1
253.0,-28.0,44.0,17.0,85.0,-5.0,1
255.0,-29.0,43.0,16.0,85.0,-5.0,1
253.0,-29.0,46.0,15.0,85.0,-5.0,1
255.0,-27.0,45.0,16.0,84.0,-4.0,1
254.0,-29.0,42.0,15.0,82.0,-5.0,1
255.0,-31.0,48.0,16.0,83.0,-5.0,1
255.0,-31.0,45.0,13.0,84.0,-5.0,1
255.0,-31.0,40.0,14.0,82.0,-6.0,1
255.0,-29.0,45.0,15.0,81.0,-5.0,1
255.0,-31.0,46.0,14.0,80.0,-4.0,1
254.0,-31.0,46.0,12.0,80.0,-5.0,1
255.0,-30.0,44.0,12.0,81.0,-5.0,1
256.0,-29.0,48.0,11.0,81.0,-6.0,1
254.0,-29.0,47.0,11.0,82.0,-6.0,1
252.0,-29.0,45.0,13.0,83.0,-6.0,1
252.0,-31.0,44.0,13.0,85.0,-6.0,1
255.0,-30.0,48.0,14.0,87.0,-10.0,1
255.0,-29.0,44.0,14.0,88.0,-8.0,1
253.0,-29.0,47.0,14.0,87.0,-7.0,1
253.0,-29.0,47.0,14.0,89.0,-7.0,1
256.0,-29.0,44.0,15.0,88.0,-7.0,1
254.0,-27.0,45.0,12.0,87.0,-6.0,1
253.0,-33.0,49.0,12.0,87.0,-6.0,1
256.0,-32.0,43.0,12.0,88.0,-6.0,1
255.0,-30.0,48.0,12.0,87.0,-4.0,1
255.0,-29.0,45.0,13.0,86.0,-5.0,1
255.0,-29.0,51.0,12.0,86.0,-4.0,1
255.0,-30.0,44.0,14.0,87.0,-4.0,1
253.0,-31.0,46.0,14.0,87.0,-4.0,1
255.0,-33.0,47.0,14.0,85.0,-5.0,1
255.0,-28.0,42.0,14.0,85.0,-6.0,1
256.0,-28.0,44.0,14.0,84.0,-6.0,1
254.0,-30.0,46.0,13.0,86.0,-6.0,1
252.0,-28.0,46.0,13.0,85.0,-7.0,1
257.0,-25.0,38.0,13.0,86.0,-7.0,1
256.0,-28.0,45.0,11.0,88.0,-8.0,1
255.0,-28.0,44.0,9.0,87.0,-7.0,1
255.0,-30.0,43.0,7.0,85.0,-7.0,1
256.0,-31.0,43.0,6.0,85.0,-8.0,1
256.0,-31.0,46.0,5.0,84.0,-7.0,1
254.0,-29.0,44.0,5.0,84.0,-7.0,1
254.0,-31.0,42.0,4.0,85.0,-8.0,1
255.0,-30.0,45.0,3.0,85.0,-7.0,1
253.0,-28.0,46.0,2.0,85.0,-7.0,1
255.0,-31.0,45.0,3.0,84.0,-6.0,1
254.0,-26.0,47.0,3.0,81.0,-7.0,1
252.0,-29.0,53.0,5.0,81.0,-8.0,1
253.0,-30.0,48.0,5.0,78.0,-9.0,1
254.0,-31.0,46.0,4.0,77.0,-10.0,1
252.0,-28.0,47.0,7.0,77.0,-8.0,1
255.0,-28.0,50.0,8.0,78.0,-8.0,1
255.0,-28.0,48.0,9.0,80.0,-10.0,1
256.0,-31.0,46.0,9.0,81.0,-9.0,1
252.0,-28.0,44.0,10.0,83.0,-10.0,1
254.0,-30.0,45.0,8.0,85.0,-11.0,1
255.0,-29.0,47.0,10.0,88.0,-10.0,1
253.0,-30.0,52.0,9.0,86.0,-10.0,1
255.0,-28.0,46.0,9.0,86.0,-12.0,1
254.0,-26.0,47.0,9.0,87.0,-12.0,1
252.0,-27.0,48.0,10.0,87.0,-11.0,1
254.0,-27.0,47.0,11.0,86.0,-12.0,1
252.0,-26.0,46.0,10.0,87.0,-10.0,1
254.0,-27.0,47.0,10.0,86.0,-9.0,1
255.0,-30.0,53.0,10.0,85.0,-9.0,1
253.0,-29.0,49.0,12.0,84.0,-8.0,1
255.0,-31.0,48.0,17.0,85.0,-12.0,1
253.0,-28.0,47.0,18.0,84.0,-9.0,1
255.0,-30.0,47.0,17.0,84.0,-7.0,1
256.0,-30.0,47.0,15.0,83.0,-6.0,1
252.0,-29.0,45.0,17.0,83.0,-4.0,1
256.0,-26.0,47.0,15.0,81.0,-4.0,1
254.0,-28.0,46.0,17.0,81.0,-5.0,1
252.0,-30.0,46.0,18.0,80.0,-3.0,1
254.0,-29.0,52.0,17.0,80.0,-4.0,1
256.0,-27.0,48.0,16.0,80.0,-4.0,1
252.0,-26.0,44.0,16.0,79.0,-4.0,1
254.0,-30.0,49.0,15.0,80.0,-3.0,1
252.0,-27.0,49.0,13.0,80.0,-3.0,1
253.0,-27.0,48.0,14.0,81.0,-3.0,1
255.0,-27.0,47.0,13.0,81.0,-3.0,1
253.0,-27.0,47.0,15.0,85.0,-1.0,1
252.0,-29.0,48.0,19.0,88.0,3.0,1
255.0,-25.0,46.0,19.0,87.0,1.0,1
256.0,-31.0,47.0,16.0,87.0,0.0,1
255.0,-28.0,45.0,14.0,87.0,0.0,1
254.0,-29.0,42.0,15.0,86.0,0.0,1
255.0,-30.0,49.0,14.0,85.0,0.0,1
256.0,-29.0,50.0,13.0,85.0,1.0,1
257.0,-30.0,47.0,14.0,84.0,1.0,1
253.0,-29.0,47.0,13.0,84.0,0.0,1
254.0,-28.0,43.0,13.0,84.0,-1.0,1
255.0,-28.0,49.0,14.0,85.0,-2.0,1
256.0,-29.0,49.0,13.0,86.0,-2.0,1
254.0,-28.0,49.0,12.0,88.0,-1.0,1
256.0,-28.0,42.0,10.0,85.0,-2.0,1
255.0,-26.0,47.0,9.0,86.0,-1.0,1
254.0,-30.0,46.0,9.0,86.0,-2.0,1
254.0,-30.0,47.0,10.0,87.0,-3.0,1
253.0,-27.0,46.0,11.0,86.0,-3.0,1
254.0,-29.0,52.0,10.0,85.0,-5.0,1
252.0,-29.0,48.0,8.0,83.0,-5.0,1
253.0,-28.0,50.0,8.0,82.0,-6.0,1
255.0,-29.0,49.0,6.0,82.0,-6.0,1
253.0,-29.0,45.0,3.0,81.0,-6.0,1
255.0,-26.0,49.0,3.0,80.0,-6.0,1
256.0,-25.0,48.0,2.0,80.0,-6.0,1
255.0,-28.0,48.0,1.0,78.0,-8.0,1
254.0,-29.0,50.0,-2.0,78.0,-9.0,1
252.0,-28.0,50.0,-6.0,79.0,-8.0,1
254.0,-28.0,48.0,-9.0,78.0,-8.0,1
255.0,-30.0,48.0,-11.0,77.0,-7.0,1
255.0,-29.0,47.0,-11.0,77.0,-6.0,1
255.0,-30.0,46.0,-10.0,77.0,-6.0,1
254.0,-26.0,49.0,-12.0,78.0,-7.0,1
253.0,-26.0,51.0,-11.0,76.0,-9.0,1
256.0,-32.0,48.0,-11.0,75.0,-7.0,1
256.0,-29.0,50.0,-9.0,74.0,-5.0,1
252.0,-28.0,51.0,-9.0,75.0,-5.0,1
252.0,-27.0,46.0,-8.0,73.0,-5.0,1
254.0,-31.0,48.0,-7.0,74.0,-6.0,1
252.0,-27.0,47.0,-6.0,74.0,-6.0,1
252.0,-30.0,50.0,-6.0,74.0,-6.0,1
256.0,-29.0,49.0,-5.0,73.0,-9.0,1
254.0,-30.0,46.0,-5.0,72.0,-7.0,1
255.0,-28.0,48.0,-6.0,69.0,-4.0,1
253.0,-27.0,50.0,-4.0,68.0,-3.0,1
256.0,-29.0,47.0,-5.0,68.0,-3.0,1
255.0,-30.0,43.0,-6.0,68.0,-4.0,1
254.0,-26.0,46.0,-7.0,67.0,-4.0,1
253.0,-27.0,50.0,-7.0,64.0,-3.0,1
253.0,-29.0,47.0,-5.0,64.0,-4.0,1
256.0,-26.0,47.0,-5.0,65.0,-3.0,1
253.0,-27.0,50.0,-5.0,64.0,-4.0,1
252.0,-28.0,49.0,-7.0,63.0,-3.0,1
256.0,-30.0,49.0,-10.0,62.0,-3.0,1
255.0,-29.0,49.0,-12.0,59.0,-3.0,1
256.0,-28.0,48.0,-13.0,57.0,-3.0,1
256.0,-31.0,50.0,-15.0,57.0,-3.0,1
255.0,-28.0,51.0,-17.0,57.0,-4.0,1
255.0,-29.0,49.0,-15.0,55.0,-4.0,1
256.0,-30.0,48.0,-16.0,57.0,-3.0,1
254.0,-26.0,49.0,-16.0,56.0,-4.0,1
255.0,-29.0,47.0,-15.0,56.0,-4.0,1
251.0,-28.0,51.0,-15.0,55.0,-3.0,1
256.0,-29.0,47.0,-14.0,56.0,-3.0,1
253.0,-28.0,46.0,-13.0,55.0,-4.0,1
255.0,-27.0,51.0,-12.0,58.0,-3.0,1
251.0,-28.0,52.0,-10.0,57.0,-2.0,1
254.0,-26.0,47.0,-9.0,55.0,-2.0,1
254.0,-28.0,48.0,-9.0,56.0,-2.0,1
253.0,-32.0,50.0,-8.0,57.0,-4.0,1
256.0,-30.0,52.0,-7.0,58.0,-3.0,1
255.0,-30.0,50.0,-6.0,57.0,-2.0,1
255.0,-29.0,47.0,-5.0,59.0,-3.0,1
253.0,-30.0,46.0,-8.0,58.0,-2.0,1
253.0,-28.0,46.0,-6.0,57.0,-2.0,1
254.0,-26.0,45.0,-6.0,59.0,-3.0,1
256.0,-31.0,47.0,-6.0,60.0,-3.0,1
254.0,-29.0,44.0,-5.0,60.0,-3.0,1
255.0,-28.0,46.0,-6.0,61.0,-2.0,1
255.0,-30.0,48.0,-7.0,62.0,-3.0,1
253.0,-30.0,49.0,-6.0,63.0,-4.0,1
253.0,-28.0,47.0,-6.0,63.0,-4.0,1
255.0,-28.0,43.0,-8.0,66.0,-6.0,1
255.0,-27.0,46.0,-8.0,67.0,-6.0,1
254.0,-29.0,46.0,-8.0,68.0,-6.0,1
255.0,-30.0,47.0,-9.0,69.0,-6.0,1
254.0,-28.0,48.0,-9.0,71.0,-6.0,1
254.0,-28.0,48.0,-9.0,71.0,-6.0,1
253.0,-27.0,46.0,-9.0,72.0,-5.0,1
254.0,-30.0,49.0,-9.0,72.0,-5.0,1
255.0,-30.0,44.0,-10.0,72.0,-6.0,1
254.0,-31.0,46.0,-10.0,72.0,-6.0,1
253.0,-28.0,47.0,-9.0,73.0,-7.0,1
255.0,-30.0,47.0,-9.0,72.0,-7.0,1
254.0,-28.0,47.0,-9.0,74.0,-6.0,1
256.0,-29.0,48.0,-6.0,74.0,-5.0,1
254.0,-32.0,48.0,-6.0,73.0,-6.0,1
256.0,-29.0,47.0,-7.0,74.0,-7.0,1
254.0,-29.0,46.0,-8.0,73.0,-7.0,1
255.0,-30.0,45.0,-9.0,74.0,-8.0,1
253.0,-27.0,45.0,-11.0,74.0,-9.0,1
255.0,-28.0,47.0,-13.0,75.0,-8.0,1
255.0,-26.0,49.0,-13.0,75.0,-9.0,1
253.0,-30.0,46.0,-13.0,76.0,-7.0,1
255.0,-28.0,47.0,-14.0,77.0,-9.0,1
257.0,-28.0,46.0,-15.0,77.0,-8.0,1
256.0,-28.0,48.0,-15.0,77.0,-8.0,1
255.0,-29.0,50.0,-15.0,77.0,-6.0,1
253.0,-32.0,50.0,-13.0,79.0,-6.0,1
255.0,-29.0,48.0,-12.0,80.0,-6.0,1
252.0,-27.0,48.0,-8.0,79.0,-5.0,1
255.0,-33.0,48.0,-8.0,79.0,-7.0,1
254.0,-27.0,46.0,-6.0,78.0,-7.0,1
253.0,-28.0,53.0,-4.0,77.0,-6.0,1
255.0,-27.0,53.0,-3.0,76.0,-6.0,1
254.0,-28.0,47.0,-1.0,76.0,-7.0,1
251.0,-28.0,50.0,1.0,75.0,-7.0,1
252.0,-27.0,56.0,3.0,75.0,-7.0,1
258.0,-30.0,47.0,4.0,75.0,-6.0,1
253.0,-27.0,48.0,5.0,78.0,-6.0,1
255.0,-26.0,48.0,4.0,80.0,-6.0,1
255.0,-28.0,50.0,5.0,83.0,-8.0,1
256.0,-29.0,49.0,5.0,85.0,-8.0,1
253.0,-29.0,49.0,4.0,84.0,-8.0,1
254.0,-28.0,47.0,6.0,84.0,-8.0,1
257.0,-29.0,49.0,6.0,84.0,-8.0,1
252.0,-29.0,47.0,6.0,85.0,-7.0,1
259.0,-23.0,53.0,5.0,84.0,-7.0,1
253.0,-28.0,46.0,5.0,84.0,-6.0,1
253.0,-25.0,51.0,5.0,82.0,-4.0,1
256.0,-27.0,48.0,7.0,81.0,-5.0,1
254.0,-27.0,50.0,7.0,81.0,-6.0,1
254.0,-27.0,46.0,8.0,80.0,-4.0,1
252.0,-26.0,50.0,8.0,81.0,-4.0,1
254.0,-30.0,50.0,10.0,82.0,-6.0,1
255.0,-30.0,47.0,9.0,81.0,-6.0,1
253.0,-27.0,52.0,8.0,80.0,-3.0,1
254.0,-31.0,50.0,9.0,78.0,-4.0,1
252.0,-28.0,49.0,11.0,79.0,-7.0,1
255.0,-29.0,49.0,11.0,80.0,-5.0,1
254.0,-29.0,46.0,11.0,80.0,-3.0,1
256.0,-31.0,47.0,11.0,79.0,-3.0,1
255.0,-26.0,49.0,10.0,78.0,-4.0,1
254.0,-26.0,49.0,9.0,77.0,-4.0,1
254.0,-28.0,48.0,9.0,76.0,-3.0,1
255.0,-29.0,48.0,9.0,76.0,-3.0,1
256.0,-28.0,51.0,8.0,78.0,-4.0,1
255.0,-27.0,48.0,8.0,78.0,-3.0,1
253.0,-26.0,50.0,9.0,77.0,-4.0,1
252.0,-28.0,46.0,8.0,77.0,-1.0,1
252.0,-29.0,48.0,8.0,79.0,-2.0,1
253.0,-26.0,46.0,7.0,80.0,-1.0,1
255.0,-29.0,48.0,6.0,81.0,-1.0,1
252.0,-31.0,48.0,5.0,82.0,-1.0,1
256.0,-29.0,49.0,4.0,81.0,-3.0,1
254.0,-27.0,48.0,5.0,82.0,-2.0,1
254.0,-24.0,49.0,5.0,83.0,-2.0,1
253.0,-31.0,50.0,4.0,82.0,-2.0,1
253.0,-27.0,49.0,3.0,82.0,-3.0,1
256.0,-27.0,52.0,2.0,84.0,-2.0,1
253.0,-26.0,47.0,0.0,84.0,-1.0,1
254.0,-30.0,53.0,-1.0,85.0,-2.0,1
257.0,-30.0,46.0,-1.0,83.0,-1.0,1
253.0,-29.0,52.0,0.0,83.0,-3.0,1
256.0,-31.0,52.0,1.0,81.0,-3.0,1
255.0,-28.0,52.0,4.0,83.0,-4.0,1
254.0,-25.0,50.0,6.0,83.0,-4.0,1
252.0,-23.0,52.0,8.0,81.0,-3.0,1
254.0,-27.0,52.0,7.0,81.0,-5.0,1
254.0,-25.0,50.0,8.0,80.0,-4.0,1
255.0,-28.0,53.0,9.0,81.0,-4.0,1
254.0,-26.0,47.0,8.0,81.0,-6.0,1
252.0,-27.0,49.0,4.0,80.0,-7.0,1
253.0,-24.0,52.0,-1.0,80.0,-6.0,1
253.0,-28.0,50.0,-5.0,78.0,-7.0,1
255.0,-29.0,49.0,-8.0,77.0,-7.0,1
256.0,-29.0,47.0,-11.0,77.0,-8.0,1
254.0,-26.0,52.0,-13.0,77.0,-7.0,1
256.0,-31.0,49.0,-15.0,76.0,-8.0,1
256.0,-27.0,48.0,-14.0,76.0,-7.0,1
253.0,-31.0,52.0,-15.0,75.0,-8.0,1
256.0,-26.0,52.0,-13.0,76.0,-9.0,1
253.0,-24.0,49.0,-13.0,75.0,-8.0,1
254.0,-30.0,48.0,-12.0,74.0,-7.0,1
254.0,-31.0,49.0,-12.0,74.0,-8.0,1
254.0,-30.0,49.0,-11.0,75.0,-5.0,1
255.0,-30.0,49.0,-13.0,76.0,-7.0,1
253.0,-30.0,48.0,-12.0,77.0,-7.0,1
254.0,-28.0,49.0,-11.0,77.0,-4.0,1
255.0,-27.0,51.0,-9.0,77.0,-4.0,1
255.0,-28.0,52.0,-8.0,77.0,-3.0,1
254.0,-27.0,51.0,-7.0,77.0,-4.0,1
251.0,-25.0,48.0,-6.0,77.0,-3.0,1
256.0,-28.0,51.0,-5.0,77.0,-3.0,1
256.0,-31.0,49.0,-2.0,77.0,-4.0,1
255.0,-28.0,49.0,0.0,77.0,-4.0,1
254.0,-28.0,49.0,1.0,78.0,-3.0,1
253.0,-30.0,48.0,1.0,77.0,-2.0,1
254.0,-27.0,49.0,4.0,78.0,-1.0,1
252.0,-27.0,49.0,4.0,78.0,-1.0,1
253.0,-25.0,49.0,4.0,77.0,-1.0,1
255.0,-25.0,50.0,4.0,78.0,-2.0,1
255.0,-27.0,53.0,4.0,78.0,0.0,1
255.0,-28.0,55.0,2.0,77.0,-1.0,1
254.0,-28.0,52.0,0.0,76.0,-2.0,1
253.0,-29.0,50.0,0.0,76.0,-2.0,1
256.0,-28.0,51.0,-1.0,76.0,-1.0,1
254.0,-25.0,52.0,-1.0,76.0,-1.0,1
255.0,-29.0,50.0,-3.0,74.0,-2.0,1
254.0,-26.0,49.0,-3.0,73.0,-2.0,1
254.0,-26.0,50.0,-3.0,73.0,-2.0,1
255.0,-29.0,48.0,-5.0,73.0,-2.0,1
253.0,-29.0,47.0,-5.0,73.0,-2.0,1
253.0,-28.0,49.0,-6.0,72.0,-3.0,1
254.0,-28.0,46.0,-8.0,72.0,-2.0,1
256.0,-28.0,49.0,-9.0,72.0,-3.0,1
254.0,-29.0,51.0,-10.0,73.0,-3.0,1
253.0,-26.0,49.0,-10.0,74.0,-3.0,1
255.0,-27.0,51.0,-9.0,74.0,-3.0,1
251.0,-26.0,49.0,-9.0,71.0,-3.0,1
253.0,-30.0,52.0,-10.0,71.0,-3.0,1
253.0,-32.0,48.0,-10.0,70.0,-3.0,1
254.0,-27.0,52.0,-10.0,71.0,-4.0,1
256.0,-31.0,54.0,-10.0,71.0,-3.0,1
254.0,-27.0,48.0,-10.0,70.0,-2.0,1
253.0,-28.0,49.0,-11.0,71.0,-3.0,1
253.0,-29.0,52.0,-10.0,70.0,-3.0,1
253.0,-29.0,49.0,-10.0,71.0,-3.0,1
255.0,-31.0,51.0,-8.0,71.0,-3.0,1
255.0,-27.0,51.0,-9.0,72.0,-4.0,1
253.0,-31.0,46.0,-8.0,72.0,-5.0,1
254.0,-26.0,47.0,-8.0,72.0,-6.0,1
255.0,-28.0,51.0,-8.0,72.0,-4.0,1
255.0,-28.0,52.0,-8.0,71.0,-6.0,1
255.0,-24.0,48.0,-7.0,72.0,-6.0,1
254.0,-28.0,52.0,-8.0,71.0,-4.0,1
251.0,-27.0,48.0,-8.0,71.0,-4.0,1
253.0,-26.0,51.0,-6.0,71.0,-4.0,1
254.0,-29.0,49.0,-5.0,73.0,-6.0,1
254.0,-29.0,51.0,-7.0,72.0,-3.0,1
254.0,-26.0,50.0,-7.0,72.0,-4.0,1
255.0,-27.0,51.0,-8.0,72.0,-5.0,1
253.0,-28.0,51.0,-5.0,72.0,-5.0,1
255.0,-27.0,47.0,-7.0,72.0,-3.0,1
254.0,-27.0,51.0,-7.0,72.0,-4.0,1
253.0,-28.0,48.0,-7.0,71.0,-4.0,1
255.0,-29.0,51.0,-9.0,71.0,-4.0,1
253.0,-27.0,52.0,-8.0,72.0,-3.0,1
256.0,-30.0,51.0,-8.0,72.0,-3.0,1
254.0,-27.0,47.0,-9.0,72.0,-5.0,1
254.0,-28.0,52.0,-9.0,72.0,-4.0,1
250.0,-27.0,52.0,-8.0,71.0,-4.0,1
254.0,-27.0,50.0,-8.0,71.0,-6.0,1
254.0,-30.0,50.0,-7.0,71.0,-4.0,1
251.0,-27.0,49.0,-5.0,70.0,-5.0,1
254.0,-31.0,50.0,-5.0,72.0,-6.0,1
253.0,-28.0,52.0,-2.0,73.0,-5.0,1
256.0,-30.0,50.0,-2.0,72.0,-4.0,1
254.0,-28.0,52.0,-1.0,71.0,-6.0,1
253.0,-26.0,53.0,0.0,71.0,-5.0,1
254.0,-26.0,52.0,-2.0,72.0,-5.0,1
255.0,-26.0,46.0,-3.0,73.0,-5.0,1
253.0,-28.0,49.0,-4.0,75.0,-7.0,1
254.0,-26.0,52.0,-8.0,74.0,-5.0,1
254.0,-27.0,51.0,-8.0,74.0,-5.0,1
253.0,-25.0,51.0,-12.0,74.0,-6.0,1
255.0,-31.0,49.0,-11.0,74.0,-5.0,1
254.0,-31.0,52.0,-12.0,74.0,-3.0,1
256.0,-26.0,49.0,-10.0,74.0,-2.0,1
255.0,-28.0,53.0,-10.0,73.0,-3.0,1
255.0,-28.0,49.0,-8.0,73.0,-3.0,1
254.0,-29.0,48.0,-7.0,74.0,-3.0,1
254.0,-27.0,49.0,-8.0,74.0,-4.0,1
254.0,-27.0,53.0,-9.0,72.0,-3.0,1
253.0,-29.0,52.0,-7.0,71.0,-5.0,1
252.0,-27.0,50.0,-6.0,70.0,-5.0,1
253.0,-31.0,49.0,-5.0,72.0,-6.0,1
254.0,-30.0,51.0,-5.0,75.0,-7.0,1
256.0,-26.0,49.0,-4.0,77.0,-8.0,1
253.0,-26.0,46.0,-5.0,79.0,-7.0,1
251.0,-27.0,45.0,-4.0,79.0,-8.0,1
253.0,-28.0,52.0,-5.0,83.0,-8.0,1
253.0,-26.0,53.0,-4.0,83.0,-8.0,1
253.0,-28.0,51.0,-4.0,83.0,-8.0,1
253.0,-27.0,50.0,-3.0,83.0,-8.0,1
254.0,-25.0,50.0,-4.0,82.0,-9.0,1
254.0,-26.0,51.0,-4.0,82.0,-9.0,1
254.0,-28.0,52.0,-4.0,80.0,-8.0,1
252.0,-27.0,52.0,-5.0,81.0,-7.0,1
254.0,-28.0,52.0,-3.0,81.0,-8.0,1
253.0,-27.0,50.0,-2.0,81.0,-6.0,1
254.0,-29.0,51.0,-1.0,80.0,-5.0,1
255.0,-28.0,51.0,-1.0,79.0,-6.0,1
253.0,-26.0,51.0,-1.0,79.0,-6.0,1
253.0,-30.0,49.0,1.0,80.0,-5.0,1
252.0,-28.0,50.0,3.0,82.0,-4.0,1
257.0,-31.0,50.0,2.0,80.0,-3.0,1
254.0,-29.0,48.0,3.0,80.0,-4.0,1
252.0,-26.0,52.0,4.0,80.0,-3.0,1
257.0,-29.0,50.0,4.0,80.0,-2.0,1
255.0,-27.0,54.0,4.0,80.0,-2.0,1
255.0,-28.0,50.0,4.0,79.0,-2.0,1
252.0,-24.0,46.0,3.0,77.0,-2.0,1
253.0,-28.0,52.0,4.0,78.0,0.0,1
254.0,-27.0,51.0,3.0,79.0,0.0,1
254.0,-28.0,51.0,3.0,78.0,0.0,1
256.0,-28.0,51.0,4.0,78.0,0.0,1
253.0,-28.0,47.0,2.0,77.0,0.0,1
253.0,-28.0,50.0,2.0,79.0,0.0,1
253.0,-29.0,50.0,1.0,78.0,-1.0,1
255.0,-27.0,52.0,1.0,79.0,0.0,1
253.0,-27.0,50.0,1.0,78.0,1.0,1
254.0,-28.0,50.0,3.0,79.0,-1.0,1
252.0,-27.0,52.0,2.0,77.0,-1.0,1
254.0,-27.0,53.0,1.0,76.0,0.0,1
255.0,-30.0,49.0,1.0,76.0,0.0,1
255.0,-29.0,51.0,0.0,77.0,-1.0,1
254.0,-29.0,51.0,0.0,77.0,1.0,1
255.0,-28.0,50.0,-1.0,77.0,-1.0,1
256.0,-26.0,49.0,-2.0,77.0,1.0,1
254.0,-29.0,50.0,-2.0,77.0,-4.0,1
255.0,-25.0,53.0,-1.0,80.0,-6.0,1
254.0,-31.0,50.0,-4.0,78.0,-6.0,1
254.0,-27.0,50.0,-4.0,77.0,-2.0,1
255.0,-28.0,52.0,-3.0,77.0,-2.0,1
250.0,-28.0,52.0,-4.0,76.0,-2.0,1
255.0,-29.0,50.0,-3.0,75.0,-3.0,1
254.0,-28.0,49.0,-3.0,74.0,-3.0,1
255.0,-26.0,51.0,-5.0,73.0,-4.0,1
255.0,-28.0,51.0,-7.0,73.0,-2.0,1
253.0,-31.0,51.0,-7.0,71.0,-3.0,1
254.0,-29.0,52.0,-9.0,72.0,-4.0,1
256.0,-28.0,55.0,-11.0,70.0,-4.0,1
255.0,-26.0,51.0,-12.0,69.0,-6.0,1
254.0,-29.0,52.0,-15.0,69.0,-6.0,1
254.0,-29.0,53.0,-17.0,70.0,-5.0,1
253.0,-25.0,53.0,-19.0,70.0,-5.0,1
254.0,-25.0,55.0,-20.0,70.0,-5.0,1
254.0,-27.0,54.0,-21.0,71.0,-7.0,1
255.0,-26.0,51.0,-19.0,70.0,-5.0,1
253.0,-28.0,50.0,-17.0,70.0,-6.0,1
253.0,-29.0,53.0,-17.0,69.0,-6.0,1
253.0,-26.0,49.0,-16.0,71.0,-7.0,1
252.0,-26.0,53.0,-13.0,71.0,-6.0,1
256.0,-29.0,51.0,-13.0,72.0,-6.0,1
256.0,-20.0,55.0,-12.0,72.0,-7.0,1
256.0,-26.0,53.0,-10.0,73.0,-6.0,1
254.0,-27.0,54.0,-10.0,73.0,-5.0,1
256.0,-28.0,52.0,-10.0,73.0,-4.0,1
258.0,-29.0,53.0,-10.0,73.0,-4.0,1
255.0,-29.0,46.0,-8.0,73.0,-4.0,1
253.0,-26.0,48.0,-8.0,73.0,-4.0,1
251.0,-28.0,51.0,-5.0,72.0,-5.0,1
252.0,-28.0,50.0,-4.0,72.0,-3.0,1
256.0,-27.0,53.0,-3.0,72.0,-4.0,1
253.0,-26.0,51.0,-2.0,73.0,-3.0,1
253.0,-24.0,52.0,-2.0,72.0,-3.0,1
254.0,-27.0,56.0,-3.0,72.0,-3.0,1
253.0,-26.0,51.0,-3.0,72.0,-3.0,1
255.0,-31.0,53.0,-2.0,71.0,-1.0,1
253.0,-28.0,53.0,-3.0,72.0,-2.0,1
254.0,-26.0,49.0,-3.0,72.0,-3.0,1
254.0,-28.0,49.0,-4.0,72.0,-1.0,1
255.0,-30.0,51.0,-3.0,73.0,-3.0,1
254.0,-29.0,49.0,-3.0,73.0,-2.0,1
252.0,-23.0,51.0,-4.0,73.0,-2.0,1
254.0,-26.0,51.0,-5.0,73.0,-3.0,1
257.0,-30.0,53.0,-5.0,73.0,-4.0,1
255.0,-28.0,55.0,-6.0,72.0,-3.0,1
255.0,-28.0,52.0,-8.0,73.0,-2.0,1
254.0,-26.0,51.0,-8.0,73.0,-3.0,1
255.0,-27.0,51.0,-8.0,72.0,-2.0,1
255.0,-26.0,53.0,-9.0,72.0,-2.0,1
252.0,-26.0,55.0,-10.0,74.0,-2.0,1
251.0,-27.0,54.0,-10.0,74.0,-2.0,1
253.0,-26.0,51.0,-12.0,73.0,-2.0,1
255.0,-24.0,54.0,-11.0,73.0,-3.0,1
253.0,-28.0,56.0,-11.0,74.0,-2.0,1
255.0,-27.0,51.0,-12.0,72.0,-4.0,1
255.0,-26.0,55.0,-12.0,73.0,-3.0,1
253.0,-27.0,49.0,-12.0,71.0,-4.0,1
256.0,-28.0,52.0,-13.0,70.0,-4.0,1
254.0,-26.0,51.0,-13.0,70.0,-4.0,1
255.0,-28.0,51.0,-14.0,70.0,-4.0,1
253.0,-24.0,51.0,-12.0,69.0,-3.0,1
252.0,-26.0,52.0,-12.0,70.0,-4.0,1
253.0,-28.0,50.0,-12.0,71.0,-5.0,1
254.0,-27.0,50.0,-10.0,71.0,-4.0,1
252.0,-27.0,53.0,-10.0,70.0,-5.0,1
252.0,-29.0,50.0,-10.0,70.0,-4.0,1
252.0,-24.0,55.0,-9.0,70.0,-4.0,1
255.0,-27.0,50.0,-10.0,69.0,-4.0,1
256.0,-29.0,54.0,-9.0,68.0,-4.0,1
254.0,-30.0,52.0,-9.0,69.0,-5.0,1
251.0,-26.0,52.0,-10.0,69.0,-4.0,1
253.0,-27.0,53.0,-9.0,70.0,-4.0,1
252.0,-27.0,51.0,-11.0,69.0,-4.0,1
254.0,-27.0,53.0,-9.0,69.0,-5.0,1
253.0,-27.0,51.0,-10.0,70.0,-5.0,1
255.0,-29.0,51.0,-8.0,70.0,-5.0,1
254.0,-29.0,50.0,-10.0,69.0,-4.0,1
253.0,-24.0,50.0,-9.0,69.0,-5.0,1
253.0,-27.0,51.0,-11.0,69.0,-5.0,1
255.0,-27.0,51.0,-11.0,69.0,-5.0,1
256.0,-28.0,50.0,-10.0,69.0,-4.0,1
255.0,-27.0,51.0,-11.0,69.0,-3.0,1
255.0,-28.0,53.0,-10.0,69.0,-4.0,1
253.0,-26.0,52.0,-11.0,69.0,-4.0,1
255.0,-28.0,48.0,-11.0,71.0,-4.0,1
254.0,-27.0,46.0,-12.0,71.0,-4.0,1
255.0,-23.0,47.0,-13.0,70.0,-4.0,1
255.0,-27.0,51.0,-14.0,71.0,-4.0,1
253.0,-31.0,53.0,-14.0,70.0,-3.0,1
255.0,-29.0,53.0,-15.0,70.0,-3.0,1
254.0,-28.0,56.0,-16.0,70.0,-4.0,1
254.0,-27.0,48.0,-16.0,69.0,-3.0,1
252.0,-26.0,48.0,-16.0,69.0,-4.0,1
255.0,-28.0,55.0,-15.0,70.0,-4.0,1
254.0,-27.0,47.0,-13.0,71.0,-3.0,1
255.0,-30.0,52.0,-11.0,70.0,-2.0,1
253.0,-27.0,51.0,-9.0,70.0,-3.0,1
256.0,-27.0,50.0,-8.0,71.0,-4.0,1
254.0,-27.0,50.0,-7.0,69.0,-5.0,1
253.0,-31.0,51.0,-6.0,71.0,-5.0,1
254.0,-26.0,53.0,-4.0,70.0,-4.0,1
253.0,-25.0,53.0,-4.0,70.0,-5.0,1
255.0,-26.0,52.0,-5.0,71.0,-4.0,1
256.0,-25.0,49.0,-6.0,71.0,-6.0,1
256.0,-27.0,51.0,-6.0,72.0,-7.0,1
256.0,-28.0,51.0,-8.0,72.0,-5.0,1
252.0,-25.0,51.0,-9.0,73.0,-5.0,1
254.0,-26.0,51.0,-11.0,71.0,-5.0,1
253.0,-33.0,45.0,-13.0,72.0,-6.0,1
256.0,-29.0,50.0,-13.0,72.0,-5.0,1
254.0,-27.0,52.0,-14.0,72.0,-4.0,1
255.0,-27.0,50.0,-12.0,72.0,-2.0,1
254.0,-27.0,53.0,-12.0,72.0,-3.0,1
253.0,-26.0,54.0,-11.0,71.0,-2.0,1
257.0,-29.0,50.0,-11.0,71.0,-4.0,1
253.0,-28.0,53.0,-10.0,70.0,-3.0,1
254.0,-29.0,53.0,-10.0,69.0,-3.0,1
254.0,-25.0,54.0,-10.0,70.0,-4.0,1
253.0,-32.0,54.0,-9.0,69.0,-5.0,1
253.0,-29.0,52.0,-8.0,69.0,-6.0,1
253.0,-26.0,47.0,-7.0,72.0,-8.0,1
253.0,-28.0,50.0,-5.0,74.0,-7.0,1
252.0,-25.0,49.0,-5.0,74.0,-5.0,1
253.0,-28.0,51.0,-6.0,77.0,-6.0,1
253.0,-25.0,51.0,-4.0,78.0,-7.0,1
252.0,-26.0,49.0,-3.0,79.0,-8.0,1
255.0,-27.0,56.0,-1.0,79.0,-8.0,1
253.0,-25.0,52.0,-1.0,79.0,-9.0,1
254.0,-26.0,50.0,0.0,77.0,-7.0,1
252.0,-29.0,53.0,-1.0,77.0,-9.0,1
245.0,-24.0,44.0,-1.0,78.0,-8.0,1
253.0,-28.0,51.0,-2.0,77.0,-9.0,1
253.0,-24.0,51.0,-1.0,78.0,-8.0,1
254.0,-26.0,49.0,0.0,78.0,-7.0,1
253.0,-26.0,49.0,2.0,78.0,-7.0,1
258.0,-28.0,49.0,2.0,78.0,-6.0,1
252.0,-26.0,53.0,2.0,79.0,-6.0,1
249.0,-26.0,52.0,2.0,78.0,-5.0,1
254.0,-28.0,53.0,3.0,77.0,-6.0,1
257.0,-25.0,53.0,4.0,77.0,-4.0,1
254.0,-28.0,54.0,4.0,78.0,-4.0,1
254.0,-27.0,49.0,5.0,77.0,-2.0,1
253.0,-25.0,48.0,6.0,78.0,-1.0,1
254.0,-23.0,50.0,4.0,78.0,-1.0,1
254.0,-27.0,51.0,6.0,80.0,-3.0,1
252.0,-24.0,52.0,6.0,79.0,-2.0,1
252.0,-27.0,50.0,5.0,80.0,-3.0,1
251.0,-26.0,51.0,6.0,80.0,-3.0,1
255.0,-28.0,47.0,6.0,80.0,-2.0,1
255.0,-27.0,53.0,6.0,79.0,-2.0,1
256.0,-29.0,49.0,7.0,79.0,-2.0,1
253.0,-25.0,50.0,5.0,79.0,-2.0,1
255.0,-27.0,54.0,4.0,79.0,-2.0,1
254.0,-31.0,52.0,2.0,78.0,-2.0,1
255.0,-27.0,49.0,1.0,78.0,-1.0,1
255.0,-24.0,52.0,0.0,79.0,-2.0,1
256.0,-23.0,51.0,-1.0,78.0,-2.0,1
255.0,-26.0,55.0,-2.0,78.0,-3.0,1
255.0,-29.0,53.0,-2.0,77.0,-1.0,1
253.0,-28.0,54.0,-3.0,78.0,-1.0,1
252.0,-25.0,51.0,-3.0,79.0,-2.0,1
253.0,-24.0,54.0,-4.0,79.0,-2.0,1
255.0,-28.0,52.0,-5.0,79.0,-2.0,1
256.0,-27.0,50.0,-5.0,79.0,-2.0,1
256.0,-25.0,48.0,-6.0,81.0,-4.0,1
255.0,-28.0,51.0,-6.0,80.0,-5.0,1
254.0,-25.0,50.0,-4.0,79.0,-5.0,1
253.0,-27.0,54.0,-2.0,77.0,-4.0,1
251.0,-25.0,50.0,-2.0,77.0,-5.0,1
253.0,-26.0,54.0,-2.0,77.0,-6.0,1
255.0,-27.0,53.0,-3.0,75.0,-6.0,1
253.0,-27.0,55.0,-4.0,74.0,-4.0,1
254.0,-28.0,50.0,-7.0,74.0,-5.0,1
256.0,-27.0,55.0,-8.0,73.0,-5.0,1
257.0,-25.0,53.0,-9.0,71.0,-5.0,1
253.0,-29.0,55.0,-11.0,70.0,-6.0,1
254.0,-30.0,50.0,-9.0,70.0,-10.0,1
251.0,-29.0,52.0,-12.0,72.0,-9.0,1
251.0,-27.0,54.0,-15.0,72.0,-6.0,1
254.0,-27.0,48.0,-19.0,70.0,-6.0,1
255.0,-25.0,52.0,-20.0,69.0,-5.0,1
254.0,-25.0,53.0,-21.0,69.0,-6.0,1
253.0,-29.0,52.0,-20.0,69.0,-6.0,1
251.0,-25.0,51.0,-20.0,68.0,-7.0,1
253.0,-26.0,52.0,-19.0,69.0,-6.0,1
252.0,-28.0,51.0,-18.0,69.0,-6.0,1
250.0,-26.0,52.0,-18.0,69.0,-5.0,1
255.0,-27.0,53.0,-16.0,71.0,-5.0,1
255.0,-26.0,52.0,-15.0,69.0,-4.0,1
254.0,-26.0,50.0,-14.0,71.0,-4.0,1
252.0,-25.0,55.0,-14.0,69.0,-5.0,1
254.0,-27.0,56.0,-14.0,70.0,-5.0,1
252.0,-27.0,55.0,-13.0,70.0,-5.0,1
253.0,-25.0,50.0,-12.0,69.0,-4.0,1
253.0,-26.0,52.0,-11.0,69.0,-4.0,1
254.0,-26.0,53.0,-10.0,70.0,-4.0,1
260.0,-25.0,56.0,-10.0,69.0,-3.0,1
254.0,-27.0,53.0,-9.0,69.0,-3.0,1
251.0,-28.0,54.0,-8.0,70.0,-2.0,1
254.0,-27.0,54.0,-6.0,69.0,-3.0,1
254.0,-25.0,53.0,-8.0,71.0,-1.0,1
255.0,-28.0,49.0,-7.0,69.0,-2.0,1
255.0,-29.0,54.0,-7.0,69.0,-1.0,1
254.0,-26.0,55.0,-5.0,70.0,-2.0,1
254.0,-28.0,54.0,-5.0,70.0,-3.0,1
255.0,-26.0,53.0,-7.0,70.0,-2.0,1
257.0,-32.0,52.0,-6.0,69.0,-3.0,1
254.0,-29.0,56.0,-7.0,70.0,-3.0,1
256.0,-27.0,52.0,-7.0,72.0,-2.0,1
253.0,-25.0,53.0,-8.0,71.0,-2.0,1
254.0,-26.0,53.0,-9.0,70.0,-1.0,1
255.0,-26.0,55.0,-9.0,71.0,-1.0,1
253.0,-27.0,55.0,-9.0,71.0,-3.0,1
255.0,-27.0,50.0,-12.0,69.0,-2.0,1
253.0,-26.0,50.0,-12.0,70.0,-3.0,1
256.0,-28.0,53.0,-13.0,70.0,-3.0,1
255.0,-24.0,52.0,-12.0,68.0,-1.0,1
250.0,-27.0,51.0,-15.0,69.0,-2.0,1
255.0,-28.0,51.0,-14.0,69.0,-3.0,1
254.0,-28.0,54.0,-16.0,70.0,-3.0,1
254.0,-26.0,52.0,-16.0,69.0,-2.0,1
254.0,-26.0,52.0,-15.0,68.0,-2.0,1
255.0,-28.0,55.0,-14.0,68.0,-2.0,1
252.0,-25.0,52.0,-14.0,69.0,-2.0,1
254.0,-25.0,50.0,-15.0,69.0,-1.0,1
254.0,-24.0,56.0,-15.0,68.0,-3.0,1
254.0,-28.0,54.0,-16.0,70.0,-4.0,1
254.0,-27.0,51.0,-15.0,69.0,-4.0,1
253.0,-27.0,55.0,-14.0,70.0,-2.0,1
252.0,-24.0,50.0,-16.0,68.0,-3.0,1
253.0,-28.0,51.0,-14.0,69.0,-5.0,1
253.0,-25.0,50.0,-12.0,70.0,-4.0,1
255.0,-26.0,50.0,-12.0,71.0,-5.0,1
255.0,-27.0,56.0,-12.0,71.0,-4.0,1
252.0,-25.0,57.0,-12.0,70.0,-5.0,1
255.0,-27.0,55.0,-11.0,70.0,-5.0,1
253.0,-27.0,53.0,-10.0,70.0,-3.0,1
253.0,-27.0,52.0,-10.0,69.0,-4.0,1
253.0,-30.0,52.0,-9.0,69.0,-2.0,1
255.0,-25.0,51.0,-10.0,70.0,-4.0,1
252.0,-27.0,50.0,-10.0,70.0,-4.0,1
252.0,-26.0,49.0,-8.0,69.0,-4.0,1
253.0,-29.0,54.0,-10.0,69.0,-4.0,1
254.0,-27.0,51.0,-11.0,68.0,-5.0,1
255.0,-27.0,50.0,-11.0,69.0,-4.0,1
254.0,-27.0,53.0,-11.0,68.0,-3.0,1
253.0,-25.0,52.0,-11.0,68.0,-5.0,1
253.0,-24.0,53.0,-11.0,69.0,-4.0,1
255.0,-28.0,50.0,-12.0,69.0,-4.0,1
255.0,-25.0,49.0,-11.0,69.0,-4.0,1
255.0,-27.0,53.0,-12.0,69.0,-3.0,1
251.0,-25.0,57.0,-12.0,70.0,-4.0,1
253.0,-25.0,51.0,-11.0,69.0,-5.0,1
255.0,-28.0,52.0,-12.0,69.0,-3.0,1
252.0,-26.0,52.0,-13.0,70.0,-4.0,1
254.0,-27.0,52.0,-12.0,69.0,-3.0,1
253.0,-27.0,54.0,-11.0,69.0,-1.0,1
256.0,-28.0,54.0,-11.0,69.0,-3.0,1
253.0,-26.0,53.0,-13.0,68.0,-5.0,1
255.0,-26.0,52.0,-12.0,69.0,-4.0,1
255.0,-29.0,56.0,-12.0,70.0,-4.0,1
249.0,-31.0,55.0,-14.0,70.0,-3.0,1
255.0,-27.0,48.0,-15.0,70.0,-3.0,1
252.0,-25.0,53.0,-15.0,68.0,-2.0,1
254.0,-26.0,52.0,-14.0,68.0,-3.0,1
256.0,-27.0,49.0,-14.0,67.0,-4.0,1
256.0,-25.0,53.0,-14.0,67.0,-4.0,1
254.0,-26.0,53.0,-14.0,69.0,-3.0,1
255.0,-29.0,54.0,-12.0,70.0,-2.0,1
252.0,-28.0,57.0,-10.0,68.0,-1.0,1
254.0,-26.0,57.0,-9.0,68.0,-2.0,1
255.0,-25.0,57.0,-8.0,67.0,-1.0,1
253.0,-29.0,54.0,-8.0,67.0,-3.0,1
256.0,-30.0,50.0,-8.0,69.0,-3.0,1
252.0,-25.0,51.0,-7.0,68.0,-4.0,1
251.0,-25.0,52.0,-7.0,69.0,-4.0,1
254.0,-28.0,54.0,-9.0,69.0,-7.0,1
253.0,-26.0,49.0,-8.0,70.0,-5.0,1
256.0,-28.0,52.0,-8.0,72.0,-4.0,1
253.0,-24.0,48.0,-10.0,72.0,-5.0,1
252.0,-28.0,52.0,-12.0,72.0,-5.0,1
256.0,-26.0,56.0,-14.0,73.0,-5.0,1
256.0,-28.0,53.0,-15.0,72.0,-4.0,1
254.0,-27.0,53.0,-17.0,72.0,-3.0,1
252.0,-26.0,50.0,-16.0,72.0,-2.0,1
254.0,-28.0,53.0,-14.0,72.0,-1.0,1
253.0,-27.0,51.0,-15.0,73.0,-2.0,1
252.0,-27.0,52.0,-14.0,72.0,-3.0,1
252.0,-27.0,55.0,-13.0,72.0,-2.0,1
252.0,-27.0,56.0,-12.0,71.0,-2.0,1
254.0,-26.0,53.0,-12.0,70.0,-3.0,1
254.0,-28.0,51.0,-12.0,71.0,-3.0,1
252.0,-28.0,53.0,-11.0,71.0,-4.0,1
256.0,-27.0,49.0,-10.0,72.0,-5.0,1
254.0,-29.0,48.0,-9.0,71.0,-5.0,1
252.0,-26.0,54.0,-9.0,72.0,-5.0,1
253.0,-25.0,46.0,-8.0,75.0,-5.0,1
255.0,-29.0,52.0,-9.0,76.0,-6.0,1
254.0,-27.0,55.0,-10.0,78.0,-4.0,1
253.0,-25.0,53.0,-9.0,78.0,-6.0,1
255.0,-27.0,52.0,-10.0,78.0,-5.0,1
253.0,-25.0,55.0,-11.0,76.0,-6.0,1
255.0,-28.0,53.0,-9.0,76.0,-6.0,1
255.0,-26.0,53.0,-9.0,76.0,-7.0,1
256.0,-26.0,52.0,-10.0,75.0,-6.0,1
254.0,-27.0,54.0,-12.0,74.0,-5.0,1
255.0,-26.0,53.0,-11.0,73.0,-5.0,1
255.0,-25.0,53.0,-11.0,72.0,-6.0,1
254.0,-26.0,52.0,-10.0,73.0,-4.0,1
254.0,-26.0,53.0,-8.0,73.0,-4.0,1
255.0,-28.0,53.0,-7.0,74.0,-4.0,1
254.0,-28.0,54.0,-6.0,74.0,-4.0,1
252.0,-26.0,53.0,-5.0,72.0,-4.0,1
254.0,-26.0,53.0,-5.0,73.0,-4.0,1
253.0,-25.0,52.0,-4.0,74.0,-3.0,1
256.0,-28.0,53.0,-3.0,74.0,-2.0,1
255.0,-29.0,52.0,-3.0,73.0,-2.0,1
252.0,-25.0,55.0,-2.0,74.0,-2.0,1
253.0,-26.0,51.0,-3.0,73.0,-1.0,1
255.0,-30.0,53.0,-3.0,73.0,-2.0,1
255.0,-26.0,52.0,-3.0,73.0,-1.0,1
256.0,-25.0,52.0,-2.0,74.0,0.0,1
253.0,-26.0,52.0,-4.0,75.0,-1.0,1
255.0,-27.0,52.0,-5.0,74.0,-1.0,1
255.0,-26.0,55.0,-4.0,74.0,0.0,1
252.0,-27.0,56.0,-5.0,75.0,0.0,1
247.0,-29.0,46.0,-5.0,75.0,-1.0,1
254.0,-25.0,54.0,-7.0,75.0,1.0,1
253.0,-25.0,54.0,-6.0,74.0,-1.0,1
253.0,-28.0,55.0,-6.0,75.0,-1.0,1
255.0,-26.0,54.0,-8.0,73.0,0.0,1
254.0,-25.0,52.0,-8.0,74.0,0.0,1
253.0,-28.0,52.0,-9.0,75.0,-2.0,1
253.0,-28.0,55.0,-10.0,76.0,-1.0,1
255.0,-27.0,51.0,-11.0,74.0,0.0,1
255.0,-25.0,54.0,-12.0,74.0,-1.0,1
255.0,-31.0,54.0,-12.0,74.0,-1.0,1
255.0,-25.0,55.0,-13.0,76.0,-1.0,1
253.0,-28.0,55.0,-13.0,74.0,-1.0,1
255.0,-27.0,53.0,-13.0,74.0,-2.0,1
253.0,-25.0,55.0,-12.0,73.0,-2.0,1
254.0,-28.0,50.0,-13.0,73.0,-2.0,1
255.0,-28.0,55.0,-14.0,73.0,-3.0,1
255.0,-26.0,53.0,-13.0,71.0,-4.0,1
254.0,-26.0,56.0,-12.0,69.0,-4.0,1
252.0,-24.0,57.0,-13.0,70.0,-3.0,1
254.0,-26.0,54.0,-14.0,69.0,-4.0,1
254.0,-25.0,53.0,-16.0,70.0,-5.0,1
252.0,-25.0,55.0,-18.0,69.0,-6.0,1
253.0,-26.0,55.0,-17.0,69.0,-4.0,1
250.0,-29.0,57.0,-20.0,69.0,-6.0,1
254.0,-25.0,52.0,-22.0,69.0,-7.0,1
253.0,-29.0,53.0,-25.0,68.0,-5.0,1
252.0,-25.0,52.0,-26.0,68.0,-5.0,1
255.0,-26.0,51.0,-27.0,68.0,-7.0,1
255.0,-27.0,53.0,-27.0,68.0,-7.0,1
250.0,-28.0,53.0,-27.0,67.0,-5.0,1
255.0,-29.0,54.0,-25.0,67.0,-6.0,1
254.0,-26.0,48.0,-24.0,66.0,-4.0,1
255.0,-25.0,54.0,-21.0,65.0,-4.0,1
256.0,-31.0,57.0,-22.0,66.0,-5.0,1
254.0,-27.0,53.0,-20.0,67.0,-5.0,1
252.0,-26.0,54.0,-18.0,67.0,-4.0,1
252.0,-25.0,53.0,-18.0,67.0,-4.0,1
252.0,-24.0,56.0,-19.0,68.0,-5.0,1
255.0,-27.0,52.0,-17.0,68.0,-4.0,1
256.0,-29.0,56.0,-17.0,68.0,-4.0,1
254.0,-26.0,50.0,-16.0,69.0,-4.0,1
254.0,-28.0,53.0,-14.0,68.0,-3.0,1
255.0,-28.0,51.0,-12.0,67.0,-2.0,1
255.0,-29.0,56.0,-12.0,67.0,-2.0,1
252.0,-26.0,54.0,-11.0,69.0,-1.0,1
255.0,-25.0,51.0,-10.0,69.0,-2.0,1
254.0,-26.0,52.0,-9.0,69.0,-1.0,1
255.0,-26.0,49.0,-9.0,68.0,0.0,1
252.0,-24.0,55.0,-7.0,68.0,2.0,1
254.0,-28.0,53.0,-7.0,70.0,-1.0,1
254.0,-30.0,54.0,-6.0,69.0,-2.0,1
255.0,-26.0,55.0,-6.0,69.0,-2.0,1
250.0,-27.0,54.0,-7.0,70.0,-1.0,1
257.0,-29.0,52.0,-8.0,71.0,-2.0,1
252.0,-27.0,54.0,-9.0,70.0,-2.0,1
255.0,-27.0,48.0,-10.0,69.0,-1.0,1
253.0,-26.0,52.0,-10.0,70.0,-1.0,1
253.0,-27.0,50.0,-10.0,69.0,-2.0,1
251.0,-27.0,51.0,-12.0,69.0,0.0,1
253.0,-26.0,57.0,-12.0,69.0,-2.0,1
253.0,-26.0,55.0,-12.0,68.0,-1.0,1
254.0,-27.0,53.0,-13.0,67.0,-1.0,1
253.0,-25.0,55.0,-13.0,68.0,-1.0,1
252.0,-25.0,52.0,-12.0,67.0,0.0,1
257.0,-29.0,50.0,-15.0,66.0,-1.0,1
254.0,-27.0,52.0,-16.0,66.0,-2.0,1
254.0,-27.0,52.0,-15.0,66.0,-3.0,1
250.0,-26.0,55.0,-16.0,66.0,-3.0,1
254.0,-27.0,54.0,-16.0,67.0,-3.0,1
253.0,-25.0,51.0,-15.0,65.0,-4.0,1
255.0,-26.0,54.0,-16.0,66.0,-4.0,1
255.0,-27.0,51.0,-15.0,64.0,-4.0,1
251.0,-26.0,52.0,-16.0,66.0,-3.0,1
255.0,-26.0,52.0,-16.0,67.0,-4.0,1
254.0,-26.0,53.0,-16.0,67.0,-2.0,1
255.0,-28.0,55.0,-14.0,66.0,-3.0,1
254.0,-29.0,49.0,-14.0,66.0,-3.0,1
252.0,-28.0,52.0,-15.0,66.0,-3.0,1
253.0,-28.0,54.0,-14.0,67.0,-3.0,1
252.0,-29.0,54.0,-13.0,68.0,-2.0,1
254.0,-26.0,52.0,-13.0,66.0,-3.0,1
255.0,-27.0,56.0,-12.0,65.0,-4.0,1
256.0,-26.0,54.0,-13.0,67.0,-3.0,1
255.0,-29.0,50.0,-13.0,67.0,-3.0,1
253.0,-27.0,53.0,-13.0,68.0,-3.0,1
254.0,-29.0,51.0,-14.0,67.0,-4.0,1
248.0,-28.0,55.0,-13.0,67.0,-3.0,1
253.0,-25.0,52.0,-13.0,66.0,-3.0,1
251.0,-25.0,54.0,-13.0,66.0,-2.0,1
255.0,-31.0,55.0,-13.0,66.0,-2.0,1
254.0,-27.0,55.0,-13.0,67.0,-3.0,1
254.0,-24.0,54.0,-13.0,67.0,-3.0,1
255.0,-30.0,53.0,-13.0,66.0,-3.0,1
253.0,-27.0,53.0,-13.0,66.0,-4.0,1
254.0,-30.0,54.0,-12.0,67.0,-4.0,1
255.0,-30.0,55.0,-12.0,67.0,-4.0,1
253.0,-27.0,56.0,-12.0,68.0,-5.0,1
252.0,-26.0,50.0,-12.0,67.0,-3.0,1
256.0,-25.0,50.0,-13.0,66.0,-5.0,1
254.0,-27.0,52.0,-12.0,68.0,-5.0,1
256.0,-28.0,51.0,-12.0,67.0,-5.0,1
254.0,-28.0,51.0,-12.0,67.0,-4.0,1
253.0,-27.0,50.0,-12.0,68.0,-3.0,1
253.0,-27.0,52.0,-12.0,69.0,-4.0,1
253.0,-27.0,48.0,-12.0,68.0,-3.0,1
253.0,-29.0,52.0,-11.0,68.0,-3.0,1
252.0,-29.0,54.0,-11.0,67.0,-4.0,1
255.0,-24.0,52.0,-12.0,68.0,-3.0,1
252.0,-29.0,51.0,-11.0,69.0,-3.0,1
254.0,-26.0,53.0,-11.0,69.0,-3.0,1
254.0,-27.0,52.0,-12.0,70.0,-4.0,1
255.0,-28.0,53.0,-12.0,70.0,-4.0,1
254.0,-29.0,52.0,-12.0,69.0,-4.0,1
254.0,-23.0,54.0,-13.0,69.0,-4.0,1
253.0,-25.0,53.0,-14.0,70.0,-3.0,1
252.0,-23.0,54.0,-15.0,70.0,-4.0,1
251.0,-26.0,54.0,-16.0,70.0,-4.0,1
253.0,-28.0,52.0,-16.0,70.0,-5.0,1
253.0,-27.0,49.0,-16.0,70.0,-3.0,1
254.0,-27.0,51.0,-16.0,70.0,-4.0,1
254.0,-27.0,51.0,-16.0,70.0,-4.0,1
253.0,-27.0,53.0,-15.0,70.0,-5.0,1
256.0,-27.0,53.0,-14.0,71.0,-5.0,1
253.0,-25.0,51.0,-14.0,71.0,-5.0,1
255.0,-27.0,51.0,-11.0,71.0,-4.0,1
254.0,-25.0,54.0,-10.0,71.0,-4.0,1
252.0,-27.0,54.0,-8.0,71.0,-4.0,1
252.0,-26.0,51.0,-7.0,70.0,-4.0,1
255.0,-27.0,52.0,-7.0,72.0,-3.0,1
255.0,-26.0,54.0,-7.0,72.0,-4.0,1
252.0,-27.0,51.0,-7.0,72.0,-6.0,1
253.0,-27.0,53.0,-8.0,73.0,-5.0,1
254.0,-28.0,53.0,-9.0,74.0,-5.0,1
253.0,-28.0,50.0,-10.0,73.0,-5.0,1
253.0,-26.0,53.0,-12.0,75.0,-4.0,1
255.0,-29.0,56.0,-15.0,74.0,-5.0,1
255.0,-28.0,53.0,-18.0,73.0,-7.0,1
254.0,-28.0,53.0,-19.0,73.0,-5.0,1
252.0,-27.0,51.0,-20.0,74.0,-3.0,1
255.0,-28.0,52.0,-18.0,73.0,-2.0,1
251.0,-29.0,55.0,-18.0,74.0,-2.0,1
254.0,-26.0,51.0,-18.0,74.0,-3.0,1
254.0,-26.0,54.0,-17.0,72.0,-3.0,1
255.0,-28.0,53.0,-16.0,73.0,-3.0,1
253.0,-29.0,54.0,-16.0,72.0,-4.0,1
254.0,-29.0,58.0,-15.0,72.0,-2.0,1
254.0,-28.0,53.0,-12.0,73.0,-4.0,1
254.0,-28.0,55.0,-11.0,71.0,-4.0,1
254.0,-26.0,49.0,-9.0,72.0,-4.0,1
255.0,-31.0,50.0,-9.0,73.0,-6.0,1
253.0,-26.0,53.0,-9.0,73.0,-5.0,1
252.0,-27.0,50.0,-8.0,75.0,-6.0,1
253.0,-30.0,52.0,-9.0,77.0,-5.0,1
255.0,-27.0,49.0,-8.0,79.0,-6.0,1
253.0,-27.0,55.0,-8.0,78.0,-6.0,1
256.0,-28.0,54.0,-9.0,77.0,-8.0,1
256.0,-27.0,52.0,-9.0,77.0,-7.0,1
253.0,-28.0,50.0,-10.0,77.0,-6.0,1
256.0,-29.0,52.0,-12.0,75.0,-6.0,1
253.0,-25.0,51.0,-13.0,75.0,-6.0,1
254.0,-29.0,53.0,-12.0,74.0,-6.0,1
255.0,-28.0,59.0,-12.0,73.0,-6.0,1
252.0,-30.0,51.0,-11.0,73.0,-6.0,1
252.0,-26.0,55.0,-8.0,72.0,-5.0,1
254.0,-25.0,55.0,-8.0,72.0,-4.0,1
256.0,-30.0,51.0,-7.0,73.0,-5.0,1
253.0,-23.0,55.0,-6.0,72.0,-4.0,1
254.0,-26.0,52.0,-5.0,72.0,-4.0,1
253.0,-29.0,55.0,-4.0,73.0,-3.0,1
251.0,-26.0,53.0,-3.0,74.0,-2.0,1
255.0,-29.0,51.0,-4.0,73.0,-2.0,1
254.0,-27.0,54.0,-4.0,71.0,-2.0,1
253.0,-28.0,51.0,-4.0,73.0,-1.0,1
252.0,-25.0,54.0,-6.0,73.0,0.0,1
251.0,-26.0,51.0,-6.0,72.0,-1.0,1
253.0,-25.0,54.0,-6.0,72.0,-2.0,1
254.0,-26.0,53.0,-7.0,72.0,-1.0,1
255.0,-27.0,53.0,-7.0,72.0,-1.0,1
253.0,-28.0,55.0,-8.0,73.0,-1.0,1
253.0,-27.0,54.0,-7.0,72.0,-1.0,1
253.0,-27.0,54.0,-6.0,72.0,-2.0,1
253.0,-27.0,54.0,-7.0,73.0,-2.0,1
253.0,-26.0,53.0,-8.0,72.0,-1.0,1
253.0,-26.0,52.0,-7.0,73.0,0.0,1
252.0,-26.0,55.0,-8.0,73.0,0.0,1
254.0,-27.0,55.0,-9.0,73.0,-1.0,1
256.0,-27.0,54.0,-10.0,73.0,-2.0,1
251.0,-28.0,50.0,-9.0,72.0,-1.0,1
254.0,-25.0,51.0,-9.0,73.0,0.0,1
253.0,-24.0,51.0,-9.0,74.0,-1.0,1
254.0,-27.0,52.0,-10.0,73.0,1.0,1
254.0,-25.0,52.0,-11.0,74.0,-1.0,1
254.0,-26.0,58.0,-12.0,73.0,-1.0,1
252.0,-24.0,55.0,-12.0,73.0,-1.0,1
253.0,-28.0,53.0,-12.0,72.0,-2.0,1
254.0,-23.0,51.0,-14.0,74.0,-1.0,1
251.0,-25.0,53.0,-14.0,72.0,-1.0,1
253.0,-26.0,53.0,-12.0,72.0,-3.0,1
254.0,-30.0,57.0,-12.0,72.0,-4.0,1
255.0,-29.0,53.0,-13.0,70.0,-3.0,1
254.0,-30.0,55.0,-14.0,70.0,-5.0,1
252.0,-27.0,59.0,-14.0,69.0,-5.0,1
251.0,-23.0,58.0,-16.0,71.0,-5.0,1
255.0,-26.0,56.0,-17.0,71.0,-5.0,1
254.0,-26.0,51.0,-18.0,71.0,-4.0,1
254.0,-26.0,53.0,-19.0,70.0,-6.0,1
256.0,-23.0,59.0,-20.0,69.0,-6.0,1
252.0,-27.0,56.0,-22.0,70.0,-4.0,1
252.0,-27.0,54.0,-21.0,69.0,-8.0,1
254.0,-27.0,55.0,-21.0,68.0,-6.0,1
254.0,-27.0,55.0,-22.0,67.0,-6.0,1
253.0,-28.0,57.0,-21.0,67.0,-5.0,1
252.0,-26.0,54.0,-19.0,67.0,-6.0,1
253.0,-27.0,50.0,-18.0,67.0,-5.0,1
254.0,-29.0,57.0,-18.0,67.0,-5.0,1
254.0,-26.0,52.0,-17.0,67.0,-4.0,1
256.0,-31.0,53.0,-17.0,67.0,-5.0,1
252.0,-25.0,57.0,-16.0,68.0,-5.0,1
253.0,-27.0,53.0,-15.0,68.0,-4.0,1
253.0,-26.0,51.0,-15.0,68.0,-4.0,1
253.0,-26.0,53.0,-13.0,68.0,-3.0,1
255.0,-25.0,55.0,-12.0,68.0,-3.0,1
256.0,-23.0,52.0,-12.0,68.0,-2.0,1
253.0,-27.0,51.0,-12.0,69.0,-4.0,1
250.0,-25.0,56.0,-10.0,70.0,-2.0,1
254.0,-28.0,53.0,-10.0,69.0,0.0,1
253.0,-26.0,54.0,-8.0,68.0,-2.0,1
255.0,-25.0,50.0,-7.0,69.0,0.0,1
254.0,-26.0,53.0,-6.0,69.0,0.0,1
255.0,-29.0,50.0,-5.0,71.0,-2.0,1
250.0,-24.0,55.0,-5.0,71.0,-1.0,1
252.0,-28.0,55.0,-6.0,72.0,-1.0,1
254.0,-27.0,53.0,-4.0,72.0,-2.0,1
251.0,-27.0,55.0,-6.0,72.0,-1.0,1
254.0,-26.0,55.0,-6.0,72.0,-1.0,1
252.0,-27.0,51.0,-7.0,73.0,-2.0,1
253.0,-26.0,50.0,-8.0,73.0,-2.0,1
253.0,-27.0,55.0,-8.0,72.0,-1.0,1
253.0,-25.0,54.0,-9.0,72.0,-2.0,1
256.0,-29.0,55.0,-10.0,71.0,0.0,1
256.0,-27.0,53.0,-12.0,71.0,-1.0,1
253.0,-27.0,55.0,-13.0,72.0,-1.0,1
255.0,-29.0,56.0,-14.0,72.0,-2.0,1
254.0,-25.0,53.0,-14.0,73.0,-1.0,1
252.0,-26.0,54.0,-16.0,71.0,-1.0,1
254.0,-30.0,54.0,-17.0,72.0,-1.0,1
253.0,-27.0,54.0,-18.0,72.0,-2.0,1
251.0,-29.0,57.0,-18.0,72.0,-4.0,1
255.0,-26.0,54.0,-19.0,73.0,-3.0,1
251.0,-26.0,51.0,-19.0,73.0,-4.0,1
252.0,-28.0,51.0,-19.0,72.0,-4.0,1
255.0,-27.0,55.0,-18.0,73.0,-5.0,1
253.0,-25.0,52.0,-18.0,72.0,-5.0,1
252.0,-28.0,57.0,-18.0,70.0,-4.0,1
257.0,-28.0,52.0,-17.0,70.0,-5.0,1
255.0,-28.0,52.0,-19.0,69.0,-6.0,1
256.0,-29.0,55.0,-19.0,68.0,-4.0,1
255.0,-28.0,52.0,-17.0,70.0,-5.0,1
253.0,-27.0,51.0,-17.0,70.0,-5.0,1
253.0,-27.0,51.0,-15.0,70.0,-5.0,1
254.0,-28.0,52.0,-14.0,69.0,-5.0,1
253.0,-29.0,54.0,-14.0,68.0,-6.0,1
252.0,-24.0,52.0,-12.0,68.0,-4.0,1
252.0,-25.0,58.0,-11.0,69.0,-5.0,1
254.0,-26.0,52.0,-11.0,70.0,-4.0,1
254.0,-26.0,54.0,-12.0,70.0,-5.0,1
255.0,-23.0,51.0,-12.0,70.0,-6.0,1
253.0,-28.0,58.0,-12.0,69.0,-6.0,1
253.0,-29.0,54.0,-13.0,70.0,-4.0,1
253.0,-28.0,57.0,-11.0,70.0,-5.0,1
255.0,-30.0,55.0,-12.0,68.0,-5.0,1
254.0,-25.0,55.0,-11.0,67.0,-5.0,1
254.0,-27.0,53.0,-11.0,68.0,-4.0,1
255.0,-28.0,53.0,-10.0,66.0,-4.0,1
255.0,-26.0,53.0,-11.0,66.0,-4.0,1
254.0,-23.0,51.0,-11.0,66.0,-4.0,1
254.0,-28.0,57.0,-10.0,67.0,-4.0,1
253.0,-25.0,57.0,-11.0,66.0,-3.0,1
255.0,-28.0,53.0,-11.0,67.0,-4.0,1
255.0,-25.0,54.0,-11.0,67.0,-3.0,1
256.0,-27.0,52.0,-11.0,66.0,-2.0,1
254.0,-28.0,57.0,-12.0,65.0,-3.0,1
254.0,-25.0,53.0,-11.0,67.0,-3.0,1
254.0,-25.0,55.0,-12.0,68.0,-4.0,1
254.0,-27.0,50.0,-11.0,66.0,-1.0,1
257.0,-28.0,54.0,-10.0,66.0,-1.0,1
255.0,-25.0,53.0,-10.0,66.0,-3.0,1
253.0,-27.0,53.0,-10.0,66.0,-2.0,1
251.0,-26.0,56.0,-10.0,68.0,-3.0,1
255.0,-28.0,54.0,-9.0,66.0,-3.0,1
253.0,-30.0,54.0,-8.0,67.0,-3.0,1
255.0,-27.0,52.0,-8.0,67.0,-3.0,1
256.0,-30.0,57.0,-8.0,67.0,-1.0,1
253.0,-29.0,53.0,-7.0,69.0,-1.0,1
254.0,-27.0,52.0,-8.0,67.0,-2.0,1
254.0,-28.0,51.0,-9.0,66.0,-3.0,1
254.0,-27.0,51.0,-10.0,67.0,-2.0,1
253.0,-24.0,53.0,-10.0,67.0,-3.0,1
253.0,-28.0,55.0,-12.0,67.0,-3.0,1
255.0,-26.0,54.0,-12.0,69.0,-3.0,1
255.0,-27.0,53.0,-12.0,67.0,-3.0,1
255.0,-25.0,52.0,-12.0,67.0,-3.0,1
255.0,-26.0,50.0,-12.0,67.0,-3.0,1
254.0,-29.0,52.0,-11.0,67.0,-3.0,1
252.0,-25.0,52.0,-10.0,69.0,-3.0,1
252.0,-25.0,55.0,-8.0,70.0,-2.0,1
251.0,-28.0,53.0,-8.0,70.0,-3.0,1
255.0,-27.0,54.0,-7.0,69.0,-4.0,1
253.0,-27.0,54.0,-8.0,69.0,-4.0,1
254.0,-25.0,51.0,-6.0,70.0,-5.0,1
254.0,-26.0,53.0,-5.0,70.0,-5.0,1
256.0,-29.0,55.0,-5.0,72.0,-5.0,1
251.0,-24.0,49.0,-6.0,72.0,-5.0,1
252.0,-25.0,49.0,-7.0,73.0,-4.0,1
253.0,-27.0,53.0,-9.0,74.0,-6.0,1
255.0,-27.0,49.0,-12.0,75.0,-6.0,1
252.0,-25.0,55.0,-14.0,76.0,-5.0,1
254.0,-26.0,48.0,-15.0,75.0,-5.0,1
254.0,-25.0,56.0,-16.0,75.0,-4.0,1
256.0,-28.0,51.0,-15.0,73.0,-3.0,1
253.0,-25.0,56.0,-13.0,75.0,-2.0,1
254.0,-30.0,53.0,-12.0,74.0,-2.0,1
253.0,-29.0,54.0,-13.0,75.0,-3.0,1
254.0,-30.0,54.0,-14.0,74.0,-2.0,1
255.0,-28.0,55.0,-14.0,72.0,-3.0,1
253.0,-30.0,57.0,-13.0,72.0,-4.0,1
252.0,-28.0,52.0,-13.0,72.0,-2.0,1
253.0,-26.0,53.0,-13.0,72.0,-3.0,1
254.0,-29.0,54.0,-11.0,71.0,-3.0,1
253.0,-26.0,51.0,-11.0,70.0,-3.0,1
254.0,-30.0,50.0,-9.0,73.0,-5.0,1
254.0,-27.0,52.0,-8.0,74.0,-6.0,1
254.0,-25.0,53.0,-8.0,75.0,-5.0,1
253.0,-24.0,53.0,-8.0,76.0,-8.0,1
256.0,-27.0,52.0,-8.0,77.0,-7.0,1
255.0,-27.0,50.0,-9.0,78.0,-6.0,1
253.0,-28.0,54.0,-8.0,77.0,-7.0,1
253.0,-27.0,53.0,-9.0,77.0,-8.0,1
257.0,-28.0,54.0,-9.0,76.0,-8.0,1
253.0,-26.0,58.0,-11.0,76.0,-8.0,1
253.0,-25.0,54.0,-11.0,75.0,-7.0,1
255.0,-27.0,55.0,-10.0,75.0,-6.0,1
254.0,-27.0,55.0,-9.0,74.0,-6.0,1
251.0,-25.0,53.0,-10.0,75.0,-5.0,1
254.0,-29.0,56.0,-8.0,73.0,-4.0,1
256.0,-30.0,54.0,-7.0,72.0,-5.0,1
254.0,-27.0,55.0,-6.0,72.0,-3.0,1
254.0,-27.0,54.0,-6.0,72.0,-3.0,1
253.0,-25.0,51.0,-4.0,72.0,-1.0,1
254.0,-26.0,55.0,-4.0,72.0,-3.0,1
254.0,-26.0,54.0,-5.0,72.0,-3.0,1
255.0,-27.0,57.0,-4.0,73.0,-1.0,1
252.0,-27.0,51.0,-4.0,73.0,0.0,1
252.0,-25.0,55.0,-4.0,74.0,-1.0,1
254.0,-27.0,53.0,-5.0,73.0,-1.0,1
253.0,-27.0,55.0,-4.0,74.0,0.0,1
255.0,-27.0,50.0,-4.0,72.0,0.0,1
254.0,-28.0,57.0,-3.0,73.0,0.0,1
252.0,-24.0,55.0,-4.0,74.0,-1.0,1
253.0,-26.0,52.0,-3.0,73.0,-1.0,1
252.0,-27.0,53.0,-3.0,74.0,0.0,1
253.0,-27.0,56.0,-4.0,74.0,-1.0,1
255.0,-26.0,56.0,-4.0,75.0,0.0,1
252.0,-24.0,54.0,-4.0,74.0,-1.0,1
254.0,-25.0,54.0,-4.0,75.0,-2.0,1
253.0,-25.0,55.0,-6.0,74.0,-2.0,1
253.0,-28.0,56.0,-8.0,74.0,-2.0,1
254.0,-26.0,51.0,-9.0,74.0,-1.0,1
254.0,-26.0,53.0,-11.0,74.0,-2.0,1
255.0,-27.0,56.0,-11.0,74.0,-2.0,1
252.0,-26.0,53.0,-11.0,74.0,-2.0,1
256.0,-28.0,55.0,-11.0,74.0,-3.0,1
255.0,-27.0,54.0,-12.0,75.0,-2.0,1
254.0,-26.0,53.0,-13.0,74.0,-3.0,1
252.0,-26.0,53.0,-14.0,74.0,-2.0,1
253.0,-25.0,55.0,-15.0,74.0,-2.0,1
253.0,-27.0,55.0,-15.0,73.0,-3.0,1
253.0,-27.0,51.0,-14.0,73.0,-2.0,1
252.0,-29.0,58.0,-13.0,71.0,-2.0,1
254.0,-28.0,54.0,-13.0,71.0,-3.0,1
253.0,-30.0,52.0,-14.0,71.0,-2.0,1
254.0,-27.0,55.0,-13.0,71.0,-3.0,1
254.0,-27.0,60.0,-14.0,71.0,-4.0,1
255.0,-26.0,55.0,-15.0,69.0,-5.0,1
256.0,-24.0,53.0,-16.0,69.0,-5.0,1
253.0,-27.0,52.0,-17.0,70.0,-5.0,1
254.0,-25.0,53.0,-18.0,70.0,-4.0,1
254.0,-25.0,53.0,-19.0,70.0,-4.0,1
250.0,-27.0,57.0,-19.0,69.0,-5.0,1
255.0,-27.0,56.0,-21.0,69.0,-7.0,1
253.0,-26.0,54.0,-22.0,70.0,-5.0,1
254.0,-28.0,53.0,-21.0,68.0,-6.0,1
252.0,-28.0,59.0,-21.0,68.0,-5.0,1
253.0,-26.0,54.0,-21.0,68.0,-5.0,1
256.0,-27.0,52.0,-20.0,67.0,-4.0,1
251.0,-26.0,55.0,-18.0,66.0,-5.0,1
255.0,-26.0,53.0,-16.0,68.0,-5.0,1
256.0,-26.0,56.0,-15.0,68.0,-4.0,1
251.0,-24.0,56.0,-16.0,69.0,-4.0,1
253.0,-27.0,57.0,-14.0,67.0,-4.0,1
256.0,-26.0,54.0,-13.0,69.0,-4.0,1
253.0,-28.0,53.0,-14.0,69.0,-2.0,1
253.0,-26.0,57.0,-13.0,69.0,-3.0,1
254.0,-30.0,51.0,-12.0,68.0,-2.0,1
254.0,-26.0,57.0,-11.0,69.0,-3.0,1
252.0,-26.0,51.0,-9.0,68.0,-1.0,1
254.0,-28.0,58.0,-8.0,68.0,-2.0,1
253.0,-29.0,53.0,-9.0,69.0,-3.0,1
252.0,-27.0,54.0,-7.0,67.0,-3.0,1
254.0,-27.0,56.0,-7.0,67.0,-2.0,1
254.0,-24.0,53.0,-6.0,69.0,-2.0,1
254.0,-26.0,53.0,-7.0,69.0,-2.0,1
252.0,-25.0,52.0,-8.0,69.0,-2.0,1
253.0,-24.0,55.0,-6.0,68.0,-1.0,1
253.0,-25.0,52.0,-5.0,68.0,-1.0,1
255.0,-26.0,53.0,-7.0,68.0,-2.0,1
253.0,-25.0,55.0,-7.0,68.0,-1.0,1
255.0,-25.0,53.0,-8.0,69.0,-2.0,1
253.0,-27.0,55.0,-10.0,69.0,-1.0,1
251.0,-25.0,53.0,-10.0,69.0,-1.0,1
251.0,-27.0,53.0,-11.0,70.0,-1.0,1
252.0,-27.0,54.0,-13.0,70.0,-2.0,1
249.0,-25.0,55.0,-14.0,69.0,-1.0,1
255.0,-26.0,52.0,-14.0,69.0,-2.0,1
254.0,-28.0,54.0,-14.0,69.0,-2.0,1
251.0,-27.0,53.0,-15.0,69.0,-1.0,1
254.0,-26.0,54.0,-17.0,68.0,-2.0,1
253.0,-24.0,56.0,-16.0,69.0,-1.0,1
252.0,-26.0,54.0,-17.0,68.0,-2.0,1
253.0,-28.0,56.0,-17.0,70.0,-2.0,1
255.0,-28.0,52.0,-16.0,68.0,-2.0,1
253.0,-26.0,54.0,-14.0,68.0,-1.0,1
256.0,-28.0,56.0,-15.0,68.0,-3.0,1
253.0,-27.0,53.0,-15.0,69.0,-4.0,1
256.0,-28.0,50.0,-15.0,68.0,-3.0,1
255.0,-25.0,55.0,-12.0,69.0,-5.0,1
253.0,-25.0,55.0,-14.0,68.0,-4.0,1
255.0,-25.0,55.0,-15.0,68.0,-6.0,1
255.0,-25.0,58.0,-13.0,69.0,-5.0,1
255.0,-26.0,52.0,-13.0,69.0,-5.0,1
256.0,-29.0,56.0,-13.0,70.0,-4.0,1
253.0,-24.0,57.0,-14.0,68.0,-5.0,1
256.0,-28.0,56.0,-14.0,69.0,-4.0,1
254.0,-24.0,55.0,-13.0,69.0,-5.0,1
253.0,-25.0,55.0,-12.0,69.0,-4.0,1
252.0,-26.0,54.0,-13.0,69.0,-4.0,1
254.0,-26.0,56.0,-12.0,69.0,-5.0,1
253.0,-27.0,53.0,-12.0,68.0,-5.0,1
253.0,-23.0,53.0,-13.0,69.0,-4.0,1
254.0,-27.0,54.0,-13.0,68.0,-4.0,1
253.0,-23.0,54.0,-13.0,68.0,-4.0,1
254.0,-25.0,54.0,-12.0,70.0,-4.0,1
252.0,-26.0,57.0,-13.0,70.0,-3.0,1
251.0,-26.0,51.0,-13.0,70.0,-3.0,1
253.0,-26.0,56.0,-14.0,70.0,-4.0,1
252.0,-25.0,54.0,-14.0,70.0,-4.0,1
254.0,-31.0,59.0,-14.0,70.0,-3.0,1
254.0,-28.0,54.0,-15.0,71.0,-3.0,1
254.0,-27.0,57.0,-14.0,70.0,-2.0,1
255.0,-29.0,56.0,-14.0,70.0,-3.0,1
255.0,-25.0,55.0,-13.0,69.0,-4.0,1
255.0,-26.0,53.0,-13.0,70.0,-3.0,1
251.0,-25.0,55.0,-13.0,69.0,-4.0,1
254.0,-26.0,53.0,-12.0,68.0,-3.0,1
255.0,-26.0,51.0,-12.0,69.0,-3.0,1
254.0,-28.0,55.0,-11.0,70.0,-4.0,1
253.0,-25.0,57.0,-10.0,68.0,-3.0,1
255.0,-24.0,56.0,-10.0,69.0,-4.0,1
253.0,-28.0,56.0,-10.0,69.0,-4.0,1
256.0,-27.0,58.0,-10.0,69.0,-5.0,1
251.0,-26.0,55.0,-8.0,68.0,-6.0,1
256.0,-29.0,54.0,-9.0,68.0,-5.0,1
252.0,-25.0,55.0,-10.0,68.0,-5.0,1
255.0,-27.0,56.0,-11.0,68.0,-4.0,1
255.0,-28.0,54.0,-12.0,68.0,-4.0,1
253.0,-25.0,55.0,-13.0,67.0,-4.0,1
254.0,-24.0,53.0,-13.0,66.0,-3.0,1
255.0,-27.0,54.0,-14.0,66.0,-4.0,1
250.0,-23.0,55.0,-14.0,67.0,-3.0,1
249.0,-23.0,52.0,-15.0,65.0,-3.0,1
254.0,-26.0,54.0,-14.0,65.0,-3.0,1
253.0,-27.0,58.0,-13.0,66.0,-2.0,1
254.0,-26.0,55.0,-11.0,67.0,-3.0,1
254.0,-28.0,55.0,-9.0,67.0,-3.0,1
255.0,-26.0,53.0,-10.0,67.0,-3.0,1
