ax,ay,az,gx,gy,gz,label
-21.0,-252.0,-9.0,-45.0,136.0,-9.0,1
-18.0,-252.0,-8.0,-43.0,141.0,-9.0,1
-16.0,-259.0,-11.0,-41.0,145.0,-10.0,1
-16.0,-255.0,-7.0,-39.0,150.0,-10.0,1
-18.0,-259.0,-11.0,-36.0,153.0,-11.0,1
-17.0,-253.0,-11.0,-32.0,157.0,-8.0,1
-18.0,-257.0,-9.0,-27.0,161.0,-5.0,1
-17.0,-258.0,-12.0,-25.0,164.0,-6.0,1
-17.0,-256.0,-11.0,-27.0,166.0,-3.0,1
-18.0,-256.0,-12.0,-35.0,166.0,-1.0,1
-17.0,-255.0,-13.0,-43.0,166.0,-3.0,1
-19.0,-253.0,-13.0,-51.0,166.0,-2.0,1
-17.0,-252.0,-11.0,-58.0,167.0,-2.0,1
-16.0,-253.0,-9.0,-63.0,171.0,-2.0,1
-17.0,-252.0,-9.0,-66.0,174.0,-2.0,1
-19.0,-250.0,-13.0,-66.0,178.0,-2.0,1
-16.0,-249.0,-15.0,-67.0,185.0,-3.0,1
-15.0,-251.0,-14.0,-70.0,189.0,-3.0,1
-14.0,-251.0,-16.0,-74.0,192.0,-1.0,1
-17.0,-256.0,-16.0,-82.0,190.0,2.0,1
-17.0,-257.0,-13.0,-89.0,186.0,4.0,1
-19.0,-257.0,-17.0,-93.0,183.0,7.0,1
-22.0,-257.0,-19.0,-93.0,185.0,10.0,1
-22.0,-256.0,-17.0,-93.0,189.0,15.0,1
-23.0,-255.0,-19.0,-95.0,200.0,19.0,1
-23.0,-256.0,-19.0,-97.0,212.0,25.0,1
-24.0,-258.0,-17.0,-101.0,223.0,29.0,1
-25.0,-262.0,-18.0,-104.0,234.0,33.0,1
-23.0,-260.0,-16.0,-107.0,239.0,38.0,1
-22.0,-262.0,-15.0,-112.0,240.0,41.0,1
-21.0,-264.0,-17.0,-115.0,241.0,41.0,1
-20.0,-264.0,-17.0,-118.0,240.0,39.0,1
-15.0,-266.0,-16.0,-116.0,240.0,36.0,1
-19.0,-264.0,-13.0,-111.0,244.0,34.0,1
-13.0,-262.0,-13.0,-102.0,247.0,30.0,1
-8.0,-265.0,-9.0,-88.0,254.0,23.0,1
-7.0,-262.0,-5.0,-67.0,260.0,12.0,1
-2.0,-261.0,-12.0,-47.0,267.0,4.0,1
-3.0,-257.0,-7.0,-24.0,276.0,-3.0,1
0.0,-260.0,-5.0,4.0,288.0,-12.0,1
4.0,-258.0,-2.0,33.0,299.0,-23.0,1
5.0,-257.0,1.0,65.0,313.0,-33.0,1
6.0,-256.0,2.0,97.0,330.0,-45.0,1
7.0,-256.0,4.0,124.0,349.0,-56.0,1
12.0,-256.0,7.0,148.0,370.0,-65.0,1
11.0,-258.0,7.0,169.0,394.0,-74.0,1
12.0,-255.0,5.0,181.0,421.0,-83.0,1
13.0,-261.0,6.0,188.0,452.0,-88.0,1
11.0,-258.0,0.0,191.0,485.0,-92.0,1
10.0,-256.0,5.0,187.0,516.0,-95.0,1
8.0,-256.0,3.0,179.0,546.0,-97.0,1
3.0,-250.0,3.0,169.0,573.0,-95.0,1
1.0,-251.0,1.0,155.0,595.0,-92.0,1
-4.0,-249.0,2.0,138.0,614.0,-88.0,1
-10.0,-246.0,-1.0,119.0,626.0,-85.0,1
-13.0,-248.0,0.0,100.0,635.0,-82.0,1
-22.0,-249.0,-3.0,86.0,636.0,-78.0,1
-24.0,-246.0,-1.0,71.0,637.0,-71.0,1
-26.0,-242.0,-7.0,49.0,640.0,-66.0,1
-30.0,-250.0,8.0,21.0,642.0,-60.0,1
-28.0,-246.0,-4.0,-7.0,642.0,-54.0,1
-32.0,-244.0,-2.0,-33.0,641.0,-48.0,1
-34.0,-245.0,-5.0,-54.0,636.0,-42.0,1
-35.0,-248.0,0.0,-77.0,630.0,-39.0,1
-33.0,-249.0,-3.0,-98.0,626.0,-38.0,1
-34.0,-253.0,-1.0,-115.0,620.0,-34.0,1
-32.0,-255.0,-4.0,-130.0,613.0,-32.0,1
-34.0,-255.0,-4.0,-148.0,608.0,-30.0,1
-25.0,-257.0,-6.0,-162.0,601.0,-29.0,1
-30.0,-252.0,-5.0,-171.0,593.0,-31.0,1
-27.0,-252.0,-4.0,-177.0,585.0,-31.0,1
-24.0,-254.0,-8.0,-178.0,575.0,-32.0,1
-27.0,-253.0,-4.0,-175.0,561.0,-30.0,1
-25.0,-252.0,-7.0,-167.0,549.0,-29.0,1
-26.0,-252.0,-3.0,-158.0,540.0,-24.0,1
-25.0,-254.0,-2.0,-150.0,536.0,-18.0,1
-22.0,-250.0,4.0,-145.0,536.0,-14.0,1
-18.0,-255.0,-1.0,-145.0,537.0,-11.0,1
-18.0,-252.0,1.0,-154.0,541.0,-6.0,1
-20.0,-253.0,-1.0,-169.0,543.0,-3.0,1
-23.0,-252.0,-3.0,-185.0,544.0,1.0,1
-21.0,-249.0,0.0,-201.0,543.0,5.0,1
-17.0,-252.0,-6.0,-212.0,542.0,9.0,1
-17.0,-251.0,-8.0,-213.0,536.0,10.0,1
-15.0,-254.0,-6.0,-203.0,529.0,9.0,1
-15.0,-254.0,-9.0,-181.0,520.0,7.0,1
-17.0,-253.0,-11.0,-152.0,509.0,2.0,1
-21.0,-252.0,-8.0,-123.0,495.0,-3.0,1
-22.0,-254.0,-4.0,-97.0,482.0,-7.0,1
-27.0,-256.0,-7.0,-80.0,464.0,-10.0,1
-30.0,-261.0,-7.0,-69.0,444.0,-14.0,1
-28.0,-259.0,-8.0,-69.0,427.0,-20.0,1
-32.0,-257.0,-10.0,-76.0,410.0,-29.0,1
-34.0,-259.0,-5.0,-89.0,395.0,-36.0,1
-38.0,-255.0,-9.0,-102.0,385.0,-43.0,1
-40.0,-254.0,-10.0,-114.0,373.0,-49.0,1
-37.0,-251.0,-10.0,-128.0,367.0,-55.0,1
-37.0,-254.0,-9.0,-139.0,358.0,-59.0,1
-32.0,-252.0,-6.0,-151.0,353.0,-61.0,1
-35.0,-249.0,-13.0,-161.0,349.0,-61.0,1
-27.0,-250.0,-11.0,-168.0,344.0,-60.0,1
-27.0,-248.0,-7.0,-177.0,337.0,-60.0,1
-26.0,-247.0,-9.0,-184.0,332.0,-56.0,1
-21.0,-249.0,-8.0,-188.0,325.0,-53.0,1
-21.0,-249.0,-9.0,-191.0,316.0,-50.0,1
-17.0,-250.0,-13.0,-191.0,308.0,-47.0,1
-16.0,-250.0,-13.0,-188.0,300.0,-48.0,1
-20.0,-255.0,-7.0,-184.0,292.0,-46.0,1
-18.0,-256.0,-8.0,-179.0,282.0,-45.0,1
-21.0,-255.0,-7.0,-172.0,273.0,-44.0,1
-23.0,-256.0,-11.0,-166.0,263.0,-41.0,1
-25.0,-256.0,-4.0,-160.0,254.0,-38.0,1
-27.0,-257.0,-7.0,-156.0,244.0,-35.0,1
-28.0,-252.0,-5.0,-155.0,237.0,-34.0,1
-28.0,-256.0,-6.0,-157.0,229.0,-31.0,1
-25.0,-252.0,-9.0,-157.0,218.0,-30.0,1
-27.0,-256.0,-8.0,-159.0,205.0,-31.0,1
-29.0,-251.0,-9.0,-160.0,191.0,-31.0,1
-28.0,-250.0,-9.0,-162.0,172.0,-34.0,1
-31.0,-250.0,-9.0,-156.0,149.0,-36.0,1
-28.0,-250.0,-9.0,-147.0,127.0,-41.0,1
-28.0,-253.0,-12.0,-134.0,103.0,-45.0,1
-29.0,-250.0,-12.0,-117.0,78.0,-46.0,1
-34.0,-248.0,-16.0,-97.0,53.0,-47.0,1
-35.0,-253.0,-10.0,-78.0,28.0,-48.0,1
-35.0,-253.0,-9.0,-56.0,1.0,-49.0,1
-35.0,-256.0,-11.0,-25.0,-29.0,-50.0,1
-34.0,-257.0,-15.0,13.0,-56.0,-50.0,1
-31.0,-254.0,-10.0,55.0,-83.0,-55.0,1
-32.0,-256.0,-15.0,96.0,-104.0,-60.0,1
-29.0,-249.0,-12.0,139.0,-124.0,-65.0,1
-27.0,-247.0,-14.0,168.0,-133.0,-68.0,1
-25.0,-247.0,-13.0,181.0,-142.0,-70.0,1
-24.0,-246.0,-17.0,191.0,-157.0,-72.0,1
-25.0,-246.0,-21.0,200.0,-166.0,-71.0,1
-17.0,-238.0,-26.0,204.0,-175.0,-67.0,1
-16.0,-233.0,-31.0,177.0,-169.0,-67.0,1
-13.0,-230.0,-30.0,108.0,-149.0,-57.0,1
-11.0,-220.0,-33.0,-5.0,-112.0,-47.0,1
-8.0,-220.0,-31.0,-167.0,-56.0,-38.0,1
-1.0,-219.0,-25.0,-334.0,-4.0,-23.0,1
0.0,-221.0,-27.0,-477.0,29.0,-12.0,1
1.0,-228.0,-22.0,-581.0,57.0,-1.0,1
0.0,-234.0,-23.0,-632.0,81.0,13.0,1
-5.0,-243.0,-23.0,-636.0,101.0,31.0,1
-9.0,-241.0,-21.0,-614.0,119.0,48.0,1
-11.0,-243.0,-13.0,-574.0,134.0,63.0,1
-9.0,-245.0,-20.0,-526.0,142.0,73.0,1
-6.0,-239.0,-20.0,-470.0,148.0,80.0,1
-2.0,-233.0,-20.0,-404.0,161.0,87.0,1
2.0,-227.0,-18.0,-342.0,173.0,100.0,1
8.0,-219.0,-19.0,-301.0,182.0,115.0,1
8.0,-211.0,-18.0,-287.0,184.0,133.0,1
9.0,-211.0,-18.0,-301.0,178.0,154.0,1
5.0,-208.0,-20.0,-338.0,164.0,181.0,1
1.0,-209.0,-17.0,-388.0,147.0,205.0,1
9.0,-213.0,-19.0,-446.0,128.0,225.0,1
1.0,-217.0,-18.0,-504.0,122.0,229.0,1
-7.0,-223.0,-15.0,-547.0,103.0,235.0,1
-12.0,-229.0,-12.0,-585.0,78.0,247.0,1
-16.0,-229.0,-19.0,-630.0,58.0,252.0,1
-15.0,-239.0,-22.0,-694.0,44.0,249.0,1
-19.0,-240.0,-22.0,-763.0,31.0,238.0,1
-11.0,-249.0,-17.0,-821.0,9.0,233.0,1
-8.0,-255.0,-6.0,-851.0,-8.0,225.0,1
-4.0,-263.0,-5.0,-846.0,-23.0,219.0,1
-4.0,-267.0,-11.0,-833.0,-40.0,221.0,1
1.0,-273.0,-8.0,-826.0,-59.0,233.0,1
0.0,-273.0,-13.0,-836.0,-80.0,240.0,1
6.0,-275.0,-17.0,-851.0,-99.0,240.0,1
10.0,-283.0,-15.0,-861.0,-111.0,231.0,1
9.0,-284.0,-24.0,-872.0,-122.0,222.0,1
10.0,-280.0,-24.0,-889.0,-141.0,215.0,1
5.0,-283.0,-23.0,-906.0,-148.0,205.0,1
4.0,-279.0,-25.0,-920.0,-144.0,192.0,1
2.0,-276.0,-20.0,-931.0,-133.0,177.0,1
7.0,-276.0,-20.0,-942.0,-118.0,165.0,1
6.0,-274.0,-16.0,-944.0,-102.0,142.0,1
1.0,-271.0,-8.0,-937.0,-81.0,114.0,1
1.0,-270.0,-10.0,-922.0,-69.0,88.0,1
2.0,-267.0,-8.0,-903.0,-62.0,70.0,1
0.0,-263.0,-10.0,-887.0,-55.0,47.0,1
5.0,-265.0,-17.0,-871.0,-38.0,29.0,1
5.0,-263.0,-20.0,-856.0,-13.0,15.0,1
9.0,-263.0,-20.0,-835.0,24.0,6.0,1
17.0,-264.0,-28.0,-808.0,63.0,0.0,1
20.0,-266.0,-34.0,-777.0,105.0,-7.0,1
25.0,-265.0,-36.0,-745.0,147.0,-15.0,1
29.0,-270.0,-38.0,-720.0,186.0,-22.0,1
30.0,-270.0,-34.0,-705.0,223.0,-31.0,1
32.0,-266.0,-38.0,-696.0,260.0,-43.0,1
30.0,-263.0,-36.0,-694.0,291.0,-57.0,1
31.0,-262.0,-33.0,-704.0,320.0,-66.0,1
23.0,-258.0,-31.0,-717.0,345.0,-76.0,1
15.0,-252.0,-34.0,-735.0,360.0,-82.0,1
7.0,-250.0,-31.0,-758.0,366.0,-86.0,1
1.0,-248.0,-29.0,-777.0,367.0,-83.0,1
-11.0,-247.0,-26.0,-787.0,364.0,-79.0,1
-15.0,-245.0,-23.0,-786.0,354.0,-72.0,1
-21.0,-245.0,-22.0,-780.0,336.0,-64.0,1
-27.0,-243.0,-20.0,-765.0,315.0,-54.0,1
-29.0,-244.0,-20.0,-743.0,293.0,-41.0,1
-39.0,-240.0,-18.0,-713.0,270.0,-30.0,1
-39.0,-240.0,-16.0,-682.0,245.0,-20.0,1
-37.0,-238.0,-17.0,-653.0,222.0,-8.0,1
-36.0,-238.0,-17.0,-627.0,204.0,0.0,1
-32.0,-238.0,-17.0,-611.0,191.0,7.0,1
-27.0,-238.0,-12.0,-603.0,184.0,15.0,1
-25.0,-238.0,-14.0,-603.0,178.0,19.0,1
-20.0,-232.0,-20.0,-607.0,177.0,22.0,1
-7.0,-242.0,-17.0,-615.0,174.0,25.0,1
0.0,-243.0,-15.0,-626.0,170.0,28.0,1
2.0,-248.0,-16.0,-633.0,166.0,26.0,1
7.0,-248.0,-17.0,-636.0,162.0,23.0,1
12.0,-247.0,-18.0,-639.0,167.0,21.0,1
21.0,-250.0,-19.0,-641.0,185.0,23.0,1
23.0,-252.0,-20.0,-639.0,214.0,25.0,1
30.0,-254.0,-19.0,-633.0,247.0,20.0,1
33.0,-256.0,-24.0,-614.0,284.0,15.0,1
40.0,-256.0,-27.0,-597.0,326.0,13.0,1
44.0,-255.0,-28.0,-583.0,367.0,14.0,1
43.0,-253.0,-32.0,-579.0,407.0,18.0,1
44.0,-257.0,-30.0,-577.0,435.0,12.0,1
46.0,-257.0,-31.0,-580.0,458.0,4.0,1
46.0,-259.0,-30.0,-584.0,484.0,-2.0,1
41.0,-258.0,-30.0,-586.0,509.0,-9.0,1
36.0,-257.0,-28.0,-588.0,534.0,-25.0,1
33.0,-254.0,-24.0,-590.0,561.0,-36.0,1
30.0,-256.0,-20.0,-595.0,588.0,-41.0,1
21.0,-257.0,-15.0,-591.0,602.0,-61.0,1
10.0,-257.0,-10.0,-571.0,598.0,-107.0,1
11.0,-254.0,-10.0,-541.0,592.0,-154.0,1
5.0,-257.0,-10.0,-517.0,598.0,-185.0,1
4.0,-260.0,3.0,-498.0,605.0,-212.0,1
-2.0,-264.0,0.0,-483.0,616.0,-235.0,1
2.0,-265.0,-2.0,-464.0,625.0,-247.0,1
0.0,-266.0,-1.0,-441.0,622.0,-255.0,1
2.0,-274.0,3.0,-405.0,607.0,-261.0,1
-3.0,-277.0,11.0,-352.0,587.0,-270.0,1
11.0,-282.0,25.0,-281.0,571.0,-264.0,1
10.0,-264.0,16.0,-193.0,560.0,-250.0,1
7.0,-270.0,23.0,-107.0,547.0,-228.0,1
5.0,-273.0,9.0,-30.0,531.0,-194.0,1
2.0,-269.0,11.0,31.0,507.0,-161.0,1
7.0,-269.0,7.0,67.0,477.0,-121.0,1
5.0,-268.0,1.0,78.0,444.0,-84.0,1
13.0,-264.0,-5.0,73.0,413.0,-50.0,1
17.0,-259.0,-5.0,39.0,390.0,-2.0,1
21.0,-255.0,-22.0,-30.0,376.0,47.0,1
33.0,-253.0,-33.0,-149.0,370.0,84.0,1
52.0,-250.0,-45.0,-300.0,370.0,108.0,1
59.0,-259.0,-61.0,-426.0,383.0,131.0,1
65.0,-257.0,-85.0,-509.0,390.0,155.0,1
69.0,-263.0,-98.0,-563.0,380.0,180.0,1
57.0,-261.0,-112.0,-597.0,346.0,200.0,1
55.0,-262.0,-147.0,-624.0,305.0,214.0,1
45.0,-266.0,-156.0,-658.0,277.0,232.0,1
30.0,-263.0,-169.0,-709.0,268.0,259.0,1
29.0,-258.0,-211.0,-765.0,267.0,307.0,1
15.0,-256.0,-228.0,-803.0,280.0,370.0,1
5.0,-266.0,-242.0,-799.0,308.0,429.0,1
-10.0,-276.0,-243.0,-748.0,349.0,472.0,1
-30.0,-277.0,-246.0,-661.0,407.0,507.0,1
-36.0,-303.0,-223.0,-553.0,470.0,533.0,1
-49.0,-321.0,-197.0,-414.0,521.0,519.0,1
-53.0,-334.0,-178.0,-298.0,575.0,484.0,1
-69.0,-354.0,-160.0,-162.0,631.0,436.0,1
-70.0,-340.0,-182.0,-57.0,681.0,378.0,1
-89.0,-351.0,-155.0,-30.0,730.0,343.0,1
-71.0,-357.0,-149.0,-93.0,759.0,325.0,1
-85.0,-374.0,-157.0,-179.0,761.0,296.0,1
-83.0,-358.0,-133.0,-250.0,727.0,270.0,1
-95.0,-372.0,-165.0,-280.0,676.0,271.0,1
-99.0,-355.0,-154.0,-263.0,612.0,294.0,1
-100.0,-354.0,-143.0,-237.0,531.0,309.0,1
-104.0,-347.0,-138.0,-229.0,421.0,329.0,1
-102.0,-344.0,-132.0,-227.0,289.0,360.0,1
-103.0,-347.0,-130.0,-231.0,139.0,403.0,1
-97.0,-345.0,-129.0,-235.0,-16.0,471.0,1
-99.0,-357.0,-136.0,-235.0,-163.0,556.0,1
-112.0,-381.0,-139.0,-254.0,-295.0,660.0,1
-132.0,-408.0,-131.0,-247.0,-450.0,693.0,1
-141.0,-426.0,-137.0,-199.0,-622.0,646.0,1
-163.0,-448.0,-130.0,-121.0,-777.0,573.0,1
-162.0,-469.0,-121.0,-44.0,-903.0,495.0,1
-159.0,-478.0,-124.0,2.0,-1000.0,423.0,1
-181.0,-515.0,-116.0,-40.0,-1036.0,397.0,1
-186.0,-530.0,-99.0,-29.0,-1129.0,283.0,1
-191.0,-540.0,-105.0,17.0,-1225.0,157.0,1
-187.0,-535.0,-98.0,84.0,-1305.0,57.0,1
-174.0,-520.0,-92.0,136.0,-1356.0,9.0,1
-158.0,-505.0,-87.0,154.0,-1400.0,-17.0,1
-145.0,-480.0,-79.0,161.0,-1461.0,-50.0,1
-141.0,-438.0,-77.0,180.0,-1534.0,-74.0,1
-92.0,-430.0,-63.0,215.0,-1604.0,-68.0,1
-90.0,-374.0,-71.0,263.0,-1672.0,-31.0,1
-58.0,-337.0,-62.0,317.0,-1731.0,24.0,1
-53.0,-305.0,-55.0,361.0,-1772.0,89.0,1
-19.0,-274.0,-54.0,401.0,-1794.0,149.0,1
-1.0,-244.0,-55.0,420.0,-1784.0,209.0,1
15.0,-205.0,-47.0,421.0,-1760.0,258.0,1
22.0,-181.0,-45.0,407.0,-1719.0,297.0,1
30.0,-171.0,-22.0,394.0,-1674.0,318.0,1
59.0,-104.0,-20.0,370.0,-1615.0,339.0,1
46.0,-99.0,-6.0,343.0,-1546.0,360.0,1
68.0,-85.0,-2.0,328.0,-1475.0,380.0,1
61.0,-84.0,24.0,309.0,-1400.0,383.0,1
67.0,-82.0,24.0,386.0,-1387.0,306.0,1
66.0,-58.0,13.0,533.0,-1368.0,178.0,1
85.0,-34.0,3.0,650.0,-1311.0,80.0,1
86.0,-21.0,-7.0,717.0,-1232.0,31.0,1
100.0,0.0,-16.0,750.0,-1161.0,4.0,1
110.0,22.0,-35.0,741.0,-1109.0,-13.0,1
109.0,17.0,-20.0,633.0,-1028.0,30.0,1
98.0,15.0,-28.0,545.0,-1011.0,7.0,1
87.0,21.0,-26.0,466.0,-1024.0,-42.0,1
91.0,29.0,-34.0,367.0,-1021.0,-78.0,1
72.0,-1.0,-18.0,233.0,-973.0,-70.0,1
64.0,-26.0,5.0,131.0,-939.0,-68.0,1
58.0,-19.0,14.0,84.0,-904.0,-75.0,1
49.0,-57.0,18.0,81.0,-859.0,-79.0,1
48.0,-79.0,18.0,133.0,-819.0,-107.0,1
41.0,-100.0,21.0,217.0,-775.0,-157.0,1
45.0,-116.0,15.0,326.0,-724.0,-226.0,1
47.0,-120.0,5.0,424.0,-649.0,-294.0,1
61.0,-124.0,2.0,504.0,-562.0,-366.0,1
70.0,-119.0,-5.0,564.0,-455.0,-434.0,1
75.0,-110.0,-15.0,605.0,-327.0,-500.0,1
84.0,-113.0,-4.0,630.0,-184.0,-548.0,1
86.0,-104.0,0.0,654.0,-29.0,-582.0,1
90.0,-102.0,0.0,680.0,135.0,-590.0,1
94.0,-94.0,-5.0,706.0,297.0,-578.0,1
93.0,-68.0,-17.0,716.0,435.0,-558.0,1
88.0,-69.0,-38.0,691.0,531.0,-536.0,1
67.0,-57.0,-76.0,603.0,572.0,-517.0,1
27.0,-43.0,-132.0,418.0,545.0,-502.0,1
-22.0,-28.0,-207.0,92.0,453.0,-477.0,1
-95.0,-28.0,-286.0,-393.0,315.0,-454.0,1
-175.0,-19.0,-370.0,-1014.0,183.0,-403.0,1
-257.0,-34.0,-430.0,-1677.0,121.0,-323.0,1
-340.0,-73.0,-455.0,-2240.0,149.0,-199.0,1
-379.0,-137.0,-408.0,-2561.0,259.0,-13.0,1
-404.0,-229.0,-338.0,-2598.0,376.0,180.0,1
-420.0,-327.0,-270.0,-2370.0,439.0,377.0,1
-390.0,-432.0,-241.0,-2018.0,431.0,542.0,1
-355.0,-524.0,-221.0,-1668.0,393.0,647.0,1
-307.0,-580.0,-216.0,-1375.0,289.0,669.0,1
-247.0,-594.0,-217.0,-1175.0,158.0,598.0,1
-167.0,-604.0,-251.0,-1045.0,61.0,475.0,1
-79.0,-592.0,-279.0,-955.0,41.0,283.0,1
-9.0,-594.0,-284.0,-879.0,94.0,32.0,1
43.0,-600.0,-272.0,-826.0,232.0,-266.0,1
83.0,-601.0,-222.0,-795.0,437.0,-528.0,1
160.0,-631.0,-191.0,-678.0,609.0,-707.0,1
208.0,-649.0,-145.0,-455.0,867.0,-872.0,1
213.0,-635.0,-113.0,-86.0,1172.0,-923.0,1
243.0,-631.0,-105.0,257.0,1339.0,-839.0,1
250.0,-645.0,-96.0,539.0,1519.0,-696.0,1
242.0,-634.0,-102.0,779.0,1726.0,-618.0,1
199.0,-600.0,-104.0,970.0,1971.0,-564.0,1
159.0,-550.0,-115.0,1079.0,2223.0,-525.0,1
115.0,-493.0,-121.0,1093.0,2473.0,-499.0,1
84.0,-441.0,-121.0,1059.0,2678.0,-514.0,1
48.0,-401.0,-116.0,1020.0,2830.0,-551.0,1
22.0,-373.0,-108.0,986.0,2911.0,-587.0,1
-5.0,-355.0,-97.0,949.0,2917.0,-618.0,1
-35.0,-353.0,-85.0,915.0,2895.0,-648.0,1
-70.0,-351.0,-75.0,904.0,2844.0,-669.0,1
-93.0,-359.0,-66.0,914.0,2782.0,-685.0,1
-119.0,-367.0,-52.0,932.0,2728.0,-706.0,1
-126.0,-361.0,-38.0,939.0,2688.0,-719.0,1
-127.0,-346.0,-32.0,923.0,2643.0,-737.0,1
-127.0,-313.0,-24.0,883.0,2590.0,-758.0,1
-114.0,-274.0,-21.0,827.0,2523.0,-768.0,1
-105.0,-231.0,-20.0,756.0,2444.0,-759.0,1
-90.0,-177.0,-13.0,683.0,2338.0,-732.0,1
-80.0,-122.0,-13.0,613.0,2214.0,-686.0,1
-73.0,-67.0,-11.0,540.0,2089.0,-587.0,1
-58.0,-23.0,-9.0,482.0,1964.0,-460.0,1
-44.0,28.0,-14.0,432.0,1870.0,-333.0,1
-26.0,77.0,-14.0,388.0,1824.0,-210.0,1
-28.0,115.0,-19.0,335.0,1812.0,-91.0,1
-1.0,137.0,-19.0,288.0,1815.0,24.0,1
5.0,148.0,-25.0,241.0,1813.0,117.0,1
9.0,140.0,-29.0,179.0,1807.0,187.0,1
15.0,110.0,-22.0,116.0,1798.0,250.0,1
9.0,71.0,-18.0,81.0,1775.0,303.0,1
2.0,26.0,-13.0,69.0,1724.0,348.0,1
-11.0,-25.0,5.0,81.0,1627.0,384.0,1
-20.0,-78.0,4.0,174.0,1482.0,424.0,1
-32.0,-126.0,-2.0,326.0,1346.0,460.0,1
-40.0,-162.0,-12.0,484.0,1229.0,474.0,1
-55.0,-180.0,-25.0,634.0,1129.0,464.0,1
-58.0,-173.0,-43.0,755.0,1031.0,427.0,1
-57.0,-153.0,-58.0,830.0,950.0,381.0,1
-65.0,-125.0,-69.0,849.0,873.0,331.0,1
-69.0,-96.0,-58.0,816.0,780.0,295.0,1
-69.0,-69.0,-55.0,751.0,666.0,259.0,1
-75.0,-44.0,-44.0,685.0,535.0,216.0,1
-75.0,-16.0,-28.0,645.0,390.0,165.0,1
-84.0,15.0,-13.0,618.0,243.0,125.0,1
-90.0,49.0,-4.0,583.0,102.0,109.0,1
-97.0,70.0,13.0,554.0,-42.0,125.0,1
-107.0,81.0,14.0,564.0,-191.0,176.0,1
-111.0,73.0,21.0,614.0,-347.0,256.0,1
-112.0,56.0,-9.0,677.0,-507.0,353.0,1
-115.0,38.0,-73.0,695.0,-645.0,457.0,1
-103.0,9.0,-155.0,596.0,-744.0,578.0,1
-76.0,-19.0,-244.0,312.0,-795.0,720.0,1
-25.0,-52.0,-332.0,-164.0,-827.0,856.0,1
39.0,-108.0,-427.0,-779.0,-875.0,933.0,1
100.0,-180.0,-469.0,-1452.0,-958.0,931.0,1
180.0,-303.0,-460.0,-2029.0,-1080.0,806.0,1
242.0,-476.0,-390.0,-2315.0,-1130.0,499.0,1
253.0,-642.0,-302.0,-2218.0,-1087.0,21.0,1
284.0,-835.0,-226.0,-1897.0,-1086.0,-478.0,1
256.0,-994.0,-158.0,-1422.0,-1086.0,-948.0,1
171.0,-1089.0,-142.0,-823.0,-1007.0,-1252.0,1
65.0,-1102.0,-172.0,-173.0,-833.0,-1305.0,1
-19.0,-1027.0,-230.0,360.0,-618.0,-1089.0,1
-61.0,-933.0,-237.0,738.0,-386.0,-636.0,1
-67.0,-820.0,-239.0,1107.0,-295.0,-214.0,1
-95.0,-695.0,-211.0,1412.0,-318.0,99.0,1
-113.0,-627.0,-158.0,1574.0,-494.0,345.0,1
-138.0,-540.0,-109.0,1732.0,-741.0,449.0,1
-162.0,-468.0,-69.0,1645.0,-979.0,415.0,1
-166.0,-410.0,-20.0,1333.0,-1208.0,393.0,1
-179.0,-405.0,-1.0,978.0,-1414.0,476.0,1
-203.0,-420.0,14.0,677.0,-1527.0,527.0,1
-228.0,-420.0,21.0,596.0,-1673.0,437.0,1
-210.0,-393.0,-4.0,647.0,-1849.0,364.0,1
-196.0,-377.0,-16.0,634.0,-1959.0,430.0,1
-176.0,-368.0,-26.0,576.0,-2095.0,499.0,1
-151.0,-352.0,-39.0,492.0,-2223.0,548.0,1
-131.0,-345.0,-48.0,416.0,-2345.0,553.0,1
-103.0,-351.0,-49.0,396.0,-2442.0,513.0,1
-74.0,-350.0,-61.0,451.0,-2464.0,473.0,1
-44.0,-348.0,-64.0,560.0,-2410.0,471.0,1
-12.0,-340.0,-65.0,712.0,-2321.0,520.0,1
35.0,-323.0,-58.0,861.0,-2205.0,615.0,1
59.0,-293.0,-64.0,993.0,-2091.0,712.0,1
80.0,-271.0,-54.0,1079.0,-1988.0,825.0,1
98.0,-233.0,-44.0,1152.0,-1928.0,865.0,1
108.0,-166.0,-38.0,1208.0,-1884.0,802.0,1
112.0,-101.0,-26.0,1204.0,-1826.0,713.0,1
105.0,-42.0,-15.0,1137.0,-1770.0,678.0,1
105.0,4.0,0.0,1054.0,-1722.0,674.0,1
99.0,43.0,-1.0,994.0,-1676.0,671.0,1
89.0,75.0,-12.0,954.0,-1640.0,600.0,1
73.0,102.0,-29.0,941.0,-1586.0,501.0,1
62.0,116.0,-42.0,929.0,-1514.0,405.0,1
53.0,118.0,-49.0,927.0,-1467.0,231.0,1
41.0,126.0,-63.0,925.0,-1409.0,44.0,1
47.0,110.0,-73.0,885.0,-1326.0,-75.0,1
48.0,95.0,-70.0,809.0,-1223.0,-149.0,1
66.0,71.0,-62.0,720.0,-1103.0,-192.0,1
73.0,36.0,-39.0,614.0,-943.0,-209.0,1
83.0,-3.0,-20.0,541.0,-784.0,-239.0,1
74.0,-41.0,16.0,494.0,-645.0,-274.0,1
81.0,-59.0,22.0,524.0,-532.0,-306.0,1
74.0,-79.0,30.0,585.0,-429.0,-335.0,1
76.0,-80.0,21.0,670.0,-354.0,-367.0,1
76.0,-77.0,2.0,735.0,-258.0,-388.0,1
73.0,-58.0,-20.0,763.0,-152.0,-389.0,1
67.0,-41.0,-43.0,730.0,-27.0,-369.0,1
53.0,-25.0,-58.0,639.0,102.0,-345.0,1
35.0,-14.0,-81.0,517.0,222.0,-310.0,1
32.0,-7.0,-86.0,384.0,338.0,-278.0,1
23.0,-6.0,-84.0,269.0,447.0,-251.0,1
19.0,-12.0,-83.0,190.0,545.0,-237.0,1
21.0,-21.0,-68.0,156.0,629.0,-242.0,1
29.0,-34.0,-51.0,175.0,704.0,-264.0,1
41.0,-39.0,-41.0,246.0,774.0,-303.0,1
55.0,-47.0,-25.0,339.0,857.0,-349.0,1
62.0,-53.0,-19.0,436.0,941.0,-391.0,1
66.0,-60.0,-20.0,527.0,1016.0,-423.0,1
72.0,-70.0,-26.0,594.0,1081.0,-437.0,1
69.0,-77.0,-57.0,612.0,1126.0,-432.0,1
52.0,-82.0,-109.0,531.0,1124.0,-406.0,1
21.0,-88.0,-191.0,288.0,1053.0,-354.0,1
-34.0,-95.0,-285.0,-155.0,911.0,-262.0,1
-107.0,-108.0,-372.0,-766.0,723.0,-119.0,1
-200.0,-126.0,-447.0,-1511.0,510.0,109.0,1
-306.0,-170.0,-491.0,-2302.0,345.0,439.0,1
-402.0,-264.0,-467.0,-2999.0,333.0,922.0,1
-445.0,-425.0,-368.0,-3393.0,480.0,1543.0,1
-439.0,-614.0,-242.0,-3358.0,687.0,2147.0,1
-387.0,-787.0,-140.0,-3004.0,849.0,2545.0,1
-294.0,-912.0,-78.0,-2476.0,919.0,2641.0,1
-167.0,-969.0,-76.0,-1853.0,934.0,2470.0,1
-44.0,-970.0,-131.0,-1348.0,844.0,2079.0,1
46.0,-922.0,-172.0,-1095.0,594.0,1507.0,1
89.0,-832.0,-158.0,-945.0,356.0,829.0,1
81.0,-727.0,-116.0,-691.0,334.0,123.0,1
89.0,-625.0,-91.0,-288.0,551.0,-534.0,1
90.0,-552.0,-79.0,108.0,893.0,-1081.0,1
69.0,-486.0,-61.0,401.0,1256.0,-1420.0,1
23.0,-493.0,-15.0,586.0,1583.0,-1473.0,1
12.0,-539.0,28.0,801.0,1790.0,-1337.0,1
44.0,-557.0,32.0,1032.0,1863.0,-1172.0,1
54.0,-570.0,26.0,1149.0,1910.0,-1025.0,1
45.0,-575.0,22.0,1033.0,1952.0,-917.0,1
35.0,-573.0,11.0,797.0,2014.0,-840.0,1
31.0,-564.0,-4.0,548.0,2087.0,-784.0,1
22.0,-548.0,-13.0,368.0,2162.0,-748.0,1
2.0,-537.0,-26.0,286.0,2196.0,-761.0,1
-8.0,-534.0,-37.0,331.0,2197.0,-820.0,1
-24.0,-532.0,-46.0,471.0,2198.0,-875.0,1
-27.0,-521.0,-53.0,619.0,2197.0,-904.0,1
-38.0,-506.0,-42.0,710.0,2189.0,-938.0,1
-57.0,-484.0,-32.0,751.0,2183.0,-981.0,1
-72.0,-455.0,-21.0,779.0,2178.0,-1012.0,1
-75.0,-422.0,-20.0,809.0,2159.0,-1059.0,1
-76.0,-379.0,-24.0,834.0,2147.0,-1092.0,1
-64.0,-330.0,-17.0,869.0,2136.0,-1094.0,1
-59.0,-271.0,-11.0,939.0,2120.0,-1055.0,1
-48.0,-207.0,4.0,1006.0,2072.0,-956.0,1
-36.0,-139.0,15.0,1067.0,1984.0,-862.0,1
-36.0,-73.0,26.0,1100.0,1861.0,-810.0,1
-41.0,-12.0,30.0,1115.0,1708.0,-753.0,1
-40.0,43.0,29.0,1156.0,1512.0,-647.0,1
-41.0,90.0,22.0,1225.0,1298.0,-510.0,1
-43.0,149.0,8.0,1319.0,1078.0,-356.0,1
-47.0,189.0,0.0,1401.0,867.0,-198.0,1
-43.0,222.0,-30.0,1462.0,681.0,-71.0,1
-43.0,235.0,-53.0,1415.0,554.0,25.0,1
-50.0,217.0,-56.0,1265.0,518.0,115.0,1
-54.0,183.0,-59.0,1071.0,567.0,226.0,1
-50.0,139.0,-50.0,864.0,664.0,337.0,1
-49.0,90.0,-37.0,636.0,749.0,413.0,1
-39.0,50.0,-30.0,372.0,781.0,449.0,1
-32.0,5.0,-15.0,60.0,754.0,453.0,1
-31.0,-42.0,-6.0,-270.0,679.0,456.0,1
-20.0,-91.0,-5.0,-523.0,581.0,476.0,1
-10.0,-129.0,-14.0,-616.0,479.0,509.0,1
-14.0,-172.0,-24.0,-496.0,386.0,526.0,1
0.0,-183.0,-59.0,-123.0,301.0,517.0,1
-16.0,-142.0,-83.0,260.0,290.0,459.0,1
-13.0,-93.0,-90.0,452.0,299.0,415.0,1
2.0,-52.0,-85.0,456.0,265.0,396.0,1
21.0,-22.0,-68.0,387.0,239.0,376.0,1
37.0,7.0,-54.0,326.0,248.0,345.0,1
49.0,29.0,-41.0,287.0,275.0,305.0,1
57.0,45.0,-35.0,251.0,292.0,263.0,1
60.0,53.0,-31.0,202.0,283.0,223.0,1
56.0,51.0,-23.0,153.0,250.0,199.0,1
42.0,40.0,-18.0,119.0,196.0,187.0,1
23.0,26.0,-16.0,117.0,124.0,179.0,1
1.0,11.0,-15.0,148.0,39.0,168.0,1
-26.0,-2.0,-19.0,206.0,-38.0,158.0,1
-53.0,-23.0,-20.0,270.0,-101.0,159.0,1
-77.0,-42.0,-34.0,316.0,-147.0,179.0,1
-90.0,-82.0,-58.0,323.0,-168.0,215.0,1
-83.0,-100.0,-93.0,257.0,-148.0,245.0,1
-73.0,-136.0,-166.0,80.0,-68.0,268.0,1
-65.0,-166.0,-228.0,-171.0,76.0,297.0,1
-35.0,-206.0,-326.0,-652.0,237.0,326.0,1
24.0,-245.0,-462.0,-1317.0,322.0,312.0,1
113.0,-323.0,-512.0,-2107.0,283.0,206.0,1
183.0,-440.0,-453.0,-2718.0,78.0,-85.0,1
160.0,-590.0,-334.0,-2825.0,-169.0,-465.0,1
126.0,-781.0,-245.0,-2381.0,-435.0,-819.0,1
61.0,-985.0,-131.0,-1745.0,-606.0,-1076.0,1
-25.0,-1163.0,-18.0,-1123.0,-652.0,-1169.0,1
-109.0,-1279.0,25.0,-544.0,-566.0,-1125.0,1
-149.0,-1288.0,-12.0,-1.0,-396.0,-907.0,1
-143.0,-1190.0,-66.0,344.0,-250.0,-581.0,1
-116.0,-1004.0,-82.0,476.0,-226.0,-261.0,1
-84.0,-812.0,-73.0,511.0,-297.0,29.0,1
-50.0,-677.0,-57.0,553.0,-383.0,242.0,1
-47.0,-531.0,-30.0,700.0,-425.0,286.0,1
-57.0,-425.0,8.0,782.0,-533.0,326.0,1
-82.0,-374.0,38.0,648.0,-761.0,376.0,1
-97.0,-318.0,32.0,460.0,-988.0,279.0,1
-104.0,-273.0,26.0,290.0,-1146.0,236.0,1
-119.0,-282.0,40.0,130.0,-1264.0,265.0,1
-136.0,-284.0,43.0,75.0,-1449.0,246.0,1
-136.0,-289.0,46.0,56.0,-1652.0,316.0,1
-110.0,-300.0,52.0,28.0,-1858.0,444.0,1
-91.0,-320.0,49.0,4.0,-2034.0,560.0,1
-81.0,-334.0,40.0,17.0,-2168.0,642.0,1
-58.0,-349.0,30.0,35.0,-2254.0,739.0,1
-72.0,-404.0,38.0,39.0,-2297.0,836.0,1
-54.0,-405.0,7.0,201.0,-2380.0,843.0,1
-32.0,-399.0,-8.0,377.0,-2368.0,861.0,1
-15.0,-391.0,-13.0,509.0,-2297.0,869.0,1
11.0,-343.0,-43.0,644.0,-2212.0,827.0,1
20.0,-316.0,-37.0,663.0,-2064.0,827.0,1
45.0,-271.0,-41.0,663.0,-1955.0,740.0,1
68.0,-207.0,-34.0,661.0,-1844.0,619.0,1
87.0,-156.0,-20.0,617.0,-1696.0,581.0,1
106.0,-116.0,-5.0,538.0,-1578.0,552.0,1
111.0,-69.0,6.0,508.0,-1511.0,427.0,1
107.0,-18.0,11.0,530.0,-1473.0,286.0,1
101.0,27.0,12.0,582.0,-1437.0,206.0,1
102.0,62.0,1.0,625.0,-1376.0,202.0,1
80.0,70.0,12.0,630.0,-1307.0,205.0,1
64.0,87.0,4.0,693.0,-1295.0,84.0,1
56.0,98.0,-4.0,760.0,-1270.0,-41.0,1
39.0,96.0,-12.0,804.0,-1224.0,-129.0,1
57.0,114.0,-47.0,817.0,-1168.0,-182.0,1
14.0,69.0,-17.0,694.0,-1027.0,-148.0,1
3.0,36.0,-15.0,644.0,-994.0,-185.0,1
9.0,12.0,-20.0,668.0,-984.0,-267.0,1
23.0,0.0,-34.0,681.0,-926.0,-307.0,1
35.0,-32.0,-34.0,664.0,-788.0,-294.0,1
36.0,-55.0,-36.0,661.0,-597.0,-266.0,1
42.0,-78.0,-41.0,709.0,-390.0,-236.0,1
42.0,-98.0,-42.0,811.0,-187.0,-216.0,1
46.0,-106.0,-55.0,925.0,6.0,-196.0,1
41.0,-107.0,-66.0,1009.0,202.0,-168.0,1
42.0,-106.0,-71.0,1051.0,378.0,-128.0,1
39.0,-88.0,-79.0,1058.0,528.0,-92.0,1
37.0,-67.0,-69.0,1039.0,644.0,-65.0,1
31.0,-41.0,-64.0,1003.0,719.0,-58.0,1
28.0,-17.0,-48.0,946.0,750.0,-68.0,1
26.0,0.0,-27.0,873.0,746.0,-100.0,1
37.0,19.0,-12.0,803.0,711.0,-151.0,1
48.0,26.0,1.0,736.0,667.0,-214.0,1
60.0,31.0,15.0,680.0,637.0,-287.0,1
77.0,28.0,26.0,648.0,638.0,-360.0,1
102.0,21.0,28.0,644.0,678.0,-447.0,1
118.0,16.0,19.0,644.0,754.0,-540.0,1
123.0,19.0,-6.0,596.0,829.0,-631.0,1
111.0,26.0,-52.0,413.0,874.0,-700.0,1
84.0,45.0,-127.0,12.0,874.0,-714.0,1
-8.0,9.0,-144.0,-544.0,981.0,-548.0,1
-125.0,-30.0,-179.0,-1324.0,843.0,-434.0,1
-182.0,-83.0,-259.0,-2576.0,292.0,-366.0,1
-280.0,-168.0,-419.0,-3903.0,-293.0,-93.0,1
-393.0,-283.0,-540.0,-4959.0,-463.0,431.0,1
-519.0,-476.0,-527.0,-5570.0,-127.0,1141.0,1
-572.0,-764.0,-402.0,-5366.0,473.0,2015.0,1
-490.0,-1132.0,-274.0,-4423.0,856.0,2809.0,1
-314.0,-1455.0,-135.0,-3136.0,880.0,3116.0,1
-60.0,-1535.0,-39.0,-1870.0,776.0,2789.0,1
127.0,-1461.0,4.0,-1097.0,656.0,2037.0,1
259.0,-1321.0,-9.0,-776.0,371.0,1160.0,1
270.0,-1106.0,-45.0,-666.0,87.0,294.0,1
218.0,-812.0,-18.0,-488.0,75.0,-398.0,1
189.0,-589.0,8.0,-120.0,346.0,-846.0,1
132.0,-449.0,53.0,259.0,812.0,-1107.0,1
99.0,-356.0,108.0,636.0,1290.0,-1330.0,1
64.0,-302.0,133.0,1101.0,1693.0,-1462.0,1
59.0,-271.0,111.0,1623.0,1974.0,-1365.0,1
44.0,-257.0,88.0,1920.0,2137.0,-1216.0,1
47.0,-250.0,68.0,1946.0,2201.0,-1069.0,1
42.0,-233.0,60.0,1789.0,2230.0,-966.0,1
37.0,-212.0,57.0,1517.0,2262.0,-910.0,1
33.0,-189.0,50.0,1191.0,2325.0,-906.0,1
17.0,-182.0,58.0,859.0,2412.0,-946.0,1
3.0,-188.0,67.0,570.0,2496.0,-1000.0,1
-7.0,-227.0,79.0,336.0,2561.0,-1045.0,1
-20.0,-277.0,82.0,215.0,2589.0,-1069.0,1
-30.0,-322.0,62.0,236.0,2579.0,-1068.0,1
-33.0,-353.0,20.0,313.0,2555.0,-1044.0,1
-29.0,-361.0,-22.0,333.0,2528.0,-1000.0,1
-23.0,-356.0,-57.0,251.0,2487.0,-951.0,1
-21.0,-332.0,-72.0,108.0,2397.0,-922.0,1
-37.0,-285.0,-81.0,-27.0,2240.0,-896.0,1
-58.0,-244.0,-79.0,-120.0,2024.0,-835.0,1
-80.0,-195.0,-77.0,-165.0,1749.0,-739.0,1
-104.0,-163.0,-74.0,-198.0,1400.0,-636.0,1
-121.0,-135.0,-63.0,-233.0,1002.0,-536.0,1
-125.0,-124.0,-51.0,-243.0,604.0,-446.0,1
-139.0,-114.0,-32.0,-182.0,244.0,-359.0,1
-148.0,-97.0,-27.0,-27.0,-39.0,-287.0,1
-147.0,-68.0,-30.0,147.0,-213.0,-223.0,1
-151.0,-42.0,-28.0,379.0,-260.0,-158.0,1
-129.0,-11.0,-29.0,604.0,-212.0,-76.0,1
-97.0,11.0,-26.0,793.0,-93.0,13.0,1
-58.0,24.0,-17.0,928.0,65.0,98.0,1
-14.0,42.0,-4.0,1004.0,189.0,159.0,1
26.0,56.0,7.0,1024.0,324.0,198.0,1
64.0,73.0,19.0,1000.0,428.0,227.0,1
111.0,87.0,22.0,940.0,495.0,250.0,1
137.0,105.0,26.0,842.0,553.0,265.0,1
152.0,117.0,22.0,703.0,599.0,275.0,1
164.0,119.0,12.0,536.0,609.0,284.0,1
161.0,104.0,-6.0,373.0,577.0,295.0,1
144.0,83.0,-20.0,240.0,516.0,304.0,1
120.0,64.0,-41.0,138.0,439.0,306.0,1
96.0,35.0,-52.0,59.0,376.0,331.0,1
66.0,5.0,-68.0,1.0,340.0,374.0,1
48.0,-23.0,-83.0,-41.0,324.0,408.0,1
19.0,-57.0,-96.0,-91.0,343.0,440.0,1
10.0,-81.0,-126.0,-156.0,362.0,436.0,1
-5.0,-121.0,-144.0,-254.0,398.0,405.0,1
-17.0,-156.0,-170.0,-383.0,405.0,320.0,1
-27.0,-196.0,-183.0,-553.0,399.0,242.0,1
-36.0,-235.0,-191.0,-765.0,390.0,161.0,1
-47.0,-292.0,-168.0,-1020.0,369.0,90.0,1
-56.0,-368.0,-124.0,-1228.0,301.0,-15.0,1
-78.0,-459.0,-64.0,-1291.0,207.0,-171.0,1
-116.0,-544.0,-20.0,-1159.0,103.0,-350.0,1
-139.0,-611.0,-5.0,-905.0,7.0,-508.0,1
-160.0,-654.0,2.0,-629.0,-81.0,-621.0,1
-165.0,-674.0,0.0,-390.0,-159.0,-651.0,1
-164.0,-675.0,-19.0,-213.0,-237.0,-582.0,1
-148.0,-651.0,-40.0,-114.0,-301.0,-435.0,1
-115.0,-619.0,-67.0,-122.0,-339.0,-232.0,1
-78.0,-574.0,-65.0,-247.0,-388.0,-23.0,1
-72.0,-508.0,-47.0,-421.0,-469.0,154.0,1
-50.0,-461.0,-31.0,-542.0,-579.0,330.0,1
-32.0,-430.0,-12.0,-570.0,-670.0,485.0,1
-9.0,-418.0,7.0,-523.0,-715.0,592.0,1
6.0,-413.0,18.0,-436.0,-727.0,667.0,1
2.0,-435.0,42.0,-373.0,-710.0,743.0,1
-3.0,-465.0,54.0,-312.0,-738.0,765.0,1
-10.0,-488.0,65.0,-243.0,-804.0,733.0,1
-31.0,-503.0,74.0,-188.0,-900.0,670.0,1
-46.0,-499.0,78.0,-202.0,-1014.0,609.0,1
-54.0,-502.0,83.0,-260.0,-1143.0,578.0,1
-58.0,-496.0,80.0,-310.0,-1258.0,534.0,1
-75.0,-500.0,77.0,-309.0,-1364.0,466.0,1
-88.0,-489.0,71.0,-239.0,-1451.0,338.0,1
-89.0,-465.0,67.0,-143.0,-1513.0,235.0,1
-80.0,-443.0,75.0,-29.0,-1534.0,192.0,1
-70.0,-419.0,69.0,111.0,-1527.0,204.0,1
-55.0,-394.0,65.0,292.0,-1497.0,264.0,1
-54.0,-372.0,60.0,506.0,-1454.0,363.0,1
-44.0,-339.0,57.0,738.0,-1435.0,463.0,1
-45.0,-295.0,44.0,957.0,-1457.0,538.0,1
-46.0,-240.0,33.0,1085.0,-1487.0,604.0,1
-37.0,-159.0,-3.0,1112.0,-1515.0,661.0,1
-24.0,-109.0,-10.0,1017.0,-1483.0,775.0,1
-8.0,-64.0,-15.0,833.0,-1446.0,827.0,1
-17.0,0.0,-8.0,660.0,-1406.0,791.0,1
-18.0,33.0,16.0,444.0,-1392.0,723.0,1
-15.0,58.0,22.0,324.0,-1420.0,593.0,1
-14.0,63.0,46.0,208.0,-1448.0,422.0,1
-16.0,68.0,63.0,110.0,-1468.0,224.0,1
-25.0,57.0,79.0,60.0,-1492.0,42.0,1
-23.0,44.0,66.0,80.0,-1536.0,-116.0,1
-21.0,34.0,45.0,150.0,-1579.0,-245.0,1
-11.0,29.0,9.0,218.0,-1588.0,-343.0,1
-11.0,9.0,-22.0,236.0,-1555.0,-402.0,1
6.0,2.0,-64.0,247.0,-1517.0,-456.0,1
26.0,-2.0,-85.0,225.0,-1454.0,-491.0,1
42.0,-1.0,-86.0,151.0,-1362.0,-506.0,1
51.0,-12.0,-85.0,60.0,-1253.0,-513.0,1
52.0,-23.0,-76.0,-28.0,-1136.0,-523.0,1
53.0,-46.0,-63.0,-108.0,-1017.0,-532.0,1
51.0,-71.0,-47.0,-163.0,-898.0,-541.0,1
45.0,-98.0,-37.0,-195.0,-776.0,-554.0,1
40.0,-124.0,-19.0,-199.0,-647.0,-577.0,1
33.0,-144.0,-3.0,-172.0,-510.0,-604.0,1
23.0,-157.0,10.0,-115.0,-371.0,-628.0,1
12.0,-163.0,26.0,-28.0,-248.0,-639.0,1
3.0,-157.0,32.0,96.0,-164.0,-635.0,1
1.0,-138.0,28.0,211.0,-97.0,-624.0,1
-1.0,-117.0,15.0,291.0,-33.0,-597.0,1
6.0,-97.0,-3.0,343.0,41.0,-570.0,1
19.0,-62.0,-41.0,378.0,126.0,-554.0,1
26.0,-24.0,-98.0,365.0,204.0,-546.0,1
16.0,8.0,-180.0,239.0,251.0,-544.0,1
-18.0,48.0,-303.0,-105.0,228.0,-521.0,1
-76.0,74.0,-444.0,-761.0,97.0,-456.0,1
-146.0,81.0,-548.0,-1757.0,-135.0,-353.0,1
-259.0,31.0,-554.0,-2937.0,-463.0,-196.0,1
-339.0,-61.0,-489.0,-3875.0,-1050.0,70.0,1
-416.0,-193.0,-401.0,-4203.0,-1739.0,476.0,1
-558.0,-360.0,-321.0,-3932.0,-2198.0,1028.0,1
-639.0,-545.0,-273.0,-3334.0,-2302.0,1684.0,1
-632.0,-758.0,-199.0,-2739.0,-2051.0,2343.0,1
-456.0,-904.0,-118.0,-2167.0,-1561.0,2972.0,1
-226.0,-942.0,-59.0,-1646.0,-979.0,3312.0,1
-14.0,-878.0,-70.0,-1241.0,-564.0,3167.0,1
152.0,-774.0,-133.0,-990.0,-530.0,2674.0,1
266.0,-634.0,-196.0,-721.0,-822.0,2017.0,1
331.0,-470.0,-232.0,-330.0,-1205.0,1307.0,1
396.0,-315.0,-253.0,95.0,-1468.0,645.0,1
461.0,-215.0,-240.0,319.0,-1508.0,110.0,1
492.0,-131.0,-203.0,206.0,-1321.0,-336.0,1
426.0,-64.0,-140.0,-71.0,-1030.0,-615.0,1
320.0,-8.0,-83.0,-275.0,-796.0,-723.0,1
202.0,24.0,-37.0,-346.0,-570.0,-689.0,1
106.0,32.0,2.0,-317.0,-348.0,-535.0,1
22.0,0.0,35.0,-279.0,-171.0,-344.0,1
-51.0,-64.0,60.0,-232.0,-68.0,-213.0,1
-101.0,-138.0,71.0,-168.0,-63.0,-177.0,1
-143.0,-207.0,54.0,-84.0,-183.0,-209.0,1
-178.0,-259.0,13.0,-38.0,-408.0,-279.0,1
-212.0,-274.0,-15.0,-15.0,-694.0,-358.0,1
-237.0,-267.0,-28.0,-5.0,-991.0,-421.0,1
-258.0,-247.0,-46.0,-58.0,-1260.0,-482.0,1
-258.0,-235.0,-52.0,-274.0,-1444.0,-534.0,1
-255.0,-236.0,-42.0,-698.0,-1625.0,-570.0,1
-230.0,-260.0,-24.0,-1198.0,-1775.0,-587.0,1
-192.0,-300.0,-4.0,-1623.0,-1892.0,-605.0,1
-152.0,-345.0,8.0,-1895.0,-1982.0,-635.0,1
-117.0,-388.0,11.0,-1998.0,-2065.0,-698.0,1
-74.0,-415.0,0.0,-1961.0,-2161.0,-790.0,1
-36.0,-424.0,-27.0,-1816.0,-2282.0,-917.0,1
0.0,-409.0,-63.0,-1599.0,-2420.0,-1059.0,1
28.0,-372.0,-92.0,-1349.0,-2563.0,-1189.0,1
67.0,-339.0,-112.0,-1092.0,-2688.0,-1281.0,1
97.0,-298.0,-103.0,-830.0,-2795.0,-1354.0,1
115.0,-271.0,-88.0,-560.0,-2899.0,-1433.0,1
128.0,-237.0,-68.0,-282.0,-3013.0,-1555.0,1
134.0,-191.0,-42.0,-50.0,-3071.0,-1639.0,1
123.0,-160.0,-1.0,102.0,-3063.0,-1624.0,1
90.0,-137.0,29.0,197.0,-3036.0,-1571.0,1
61.0,-101.0,31.0,237.0,-3015.0,-1513.0,1
35.0,-76.0,27.0,188.0,-2966.0,-1406.0,1
-3.0,-58.0,16.0,85.0,-2886.0,-1264.0,1
-38.0,-51.0,4.0,-27.0,-2788.0,-1116.0,1
-62.0,-52.0,-11.0,-124.0,-2676.0,-1001.0,1
-90.0,-45.0,-10.0,-199.0,-2578.0,-940.0,1
-111.0,-44.0,-22.0,-259.0,-2548.0,-925.0,1
-106.0,-43.0,-33.0,-311.0,-2618.0,-934.0,1
-88.0,-45.0,-57.0,-344.0,-2764.0,-956.0,1
-66.0,-44.0,-74.0,-355.0,-2932.0,-981.0,1
-43.0,-48.0,-83.0,-343.0,-3090.0,-992.0,1
-12.0,-55.0,-84.0,-317.0,-3214.0,-993.0,1
15.0,-56.0,-88.0,-284.0,-3300.0,-997.0,1
45.0,-56.0,-86.0,-276.0,-3337.0,-1003.0,1
61.0,-48.0,-83.0,-311.0,-3334.0,-1003.0,1
72.0,-41.0,-94.0,-384.0,-3316.0,-990.0,1
52.0,-54.0,-105.0,-505.0,-3279.0,-973.0,1
44.0,-13.0,-124.0,-570.0,-3212.0,-1008.0,1
68.0,8.0,-141.0,-675.0,-3137.0,-914.0,1
53.0,15.0,-156.0,-833.0,-3039.0,-679.0,1
33.0,27.0,-159.0,-1049.0,-2995.0,-436.0,1
16.0,28.0,-175.0,-1311.0,-3006.0,-229.0,1
3.0,20.0,-191.0,-1601.0,-3060.0,-89.0,1
0.0,5.0,-191.0,-1872.0,-3123.0,-14.0,1
3.0,-19.0,-200.0,-2057.0,-3188.0,39.0,1
6.0,-44.0,-226.0,-2165.0,-3253.0,97.0,1
7.0,-63.0,-246.0,-2252.0,-3297.0,176.0,1
2.0,-85.0,-269.0,-2359.0,-3284.0,280.0,1
-4.0,-100.0,-286.0,-2502.0,-3210.0,398.0,1
-25.0,-119.0,-301.0,-2671.0,-3081.0,524.0,1
-52.0,-138.0,-318.0,-2857.0,-2922.0,663.0,1
-87.0,-158.0,-334.0,-3053.0,-2772.0,799.0,1
-128.0,-185.0,-357.0,-3248.0,-2654.0,927.0,1
-175.0,-212.0,-392.0,-3425.0,-2574.0,1056.0,1
-221.0,-244.0,-428.0,-3576.0,-2530.0,1193.0,1
-281.0,-279.0,-476.0,-3728.0,-2530.0,1299.0,1
-311.0,-307.0,-498.0,-3872.0,-2548.0,1371.0,1
-321.0,-333.0,-507.0,-4005.0,-2557.0,1415.0,1
-301.0,-368.0,-492.0,-4118.0,-2505.0,1449.0,1
-272.0,-392.0,-461.0,-4213.0,-2383.0,1463.0,1
-249.0,-422.0,-410.0,-4269.0,-2235.0,1421.0,1
-227.0,-440.0,-367.0,-4257.0,-2117.0,1317.0,1
-206.0,-454.0,-325.0,-4160.0,-2061.0,1191.0,1
-185.0,-468.0,-270.0,-3983.0,-2050.0,1101.0,1
-161.0,-474.0,-196.0,-3696.0,-2049.0,1091.0,1
-138.0,-478.0,-117.0,-3349.0,-2063.0,1109.0,1
-114.0,-467.0,-42.0,-2940.0,-2064.0,1154.0,1
-85.0,-437.0,17.0,-2454.0,-2070.0,1245.0,1
-50.0,-383.0,54.0,-1916.0,-2110.0,1317.0,1
-26.0,-335.0,79.0,-1389.0,-2188.0,1359.0,1
2.0,-279.0,86.0,-905.0,-2293.0,1420.0,1
23.0,-235.0,92.0,-510.0,-2395.0,1506.0,1
45.0,-205.0,89.0,-205.0,-2498.0,1608.0,1
73.0,-168.0,71.0,7.0,-2569.0,1702.0,1
86.0,-130.0,69.0,53.0,-2563.0,1778.0,1
91.0,-118.0,60.0,10.0,-2483.0,1898.0,1
78.0,-123.0,47.0,-76.0,-2394.0,2055.0,1
49.0,-132.0,41.0,-155.0,-2335.0,2226.0,1
11.0,-132.0,29.0,-217.0,-2310.0,2376.0,1
-40.0,-127.0,13.0,-274.0,-2301.0,2499.0,1
-86.0,-121.0,-13.0,-328.0,-2305.0,2597.0,1
-127.0,-109.0,-42.0,-355.0,-2317.0,2661.0,1
-156.0,-93.0,-53.0,-353.0,-2344.0,2700.0,1
-176.0,-82.0,-21.0,-338.0,-2387.0,2709.0,1
-194.0,-76.0,36.0,-310.0,-2442.0,2696.0,1
-208.0,-77.0,79.0,-250.0,-2514.0,2683.0,1
-214.0,-94.0,116.0,-158.0,-2611.0,2694.0,1
-198.0,-118.0,123.0,-15.0,-2727.0,2723.0,1
-187.0,-149.0,105.0,174.0,-2828.0,2734.0,1
-170.0,-176.0,70.0,374.0,-2846.0,2801.0,1
-156.0,-193.0,43.0,529.0,-2800.0,2880.0,1
-176.0,-220.0,4.0,589.0,-2769.0,2873.0,1
-225.0,-211.0,-48.0,544.0,-2812.0,2750.0,1
-325.0,-180.0,-87.0,404.0,-2906.0,2536.0,1
-448.0,-123.0,-102.0,176.0,-3044.0,2222.0,1
-580.0,-64.0,-113.0,-104.0,-3201.0,1910.0,1
-707.0,-8.0,-126.0,-342.0,-3354.0,1742.0,1
-783.0,47.0,-106.0,-472.0,-3502.0,1772.0,1
-860.0,105.0,-95.0,-467.0,-3586.0,1912.0,1
-937.0,134.0,-110.0,-370.0,-3699.0,2114.0,1
-989.0,132.0,-159.0,-149.0,-3880.0,2322.0,1
-997.0,114.0,-200.0,187.0,-4083.0,2532.0,1
-957.0,84.0,-207.0,487.0,-4331.0,2727.0,1
-861.0,51.0,-192.0,658.0,-4516.0,2904.0,1
-767.0,19.0,-158.0,718.0,-4538.0,3067.0,1
-682.0,-14.0,-122.0,663.0,-4413.0,3162.0,1
-615.0,-55.0,-87.0,564.0,-4182.0,3174.0,1
-556.0,-96.0,-45.0,419.0,-3888.0,3082.0,1
-510.0,-132.0,13.0,287.0,-3586.0,2887.0,1
-489.0,-189.0,43.0,246.0,-3297.0,2669.0,1
-486.0,-205.0,69.0,358.0,-3036.0,2421.0,1
-476.0,-175.0,85.0,578.0,-2742.0,2217.0,1
-476.0,-122.0,79.0,783.0,-2537.0,2038.0,1
-449.0,-76.0,59.0,868.0,-2397.0,1896.0,1
-416.0,-35.0,48.0,847.0,-2226.0,1765.0,1
-417.0,-3.0,60.0,773.0,-2018.0,1634.0,1
-416.0,41.0,81.0,745.0,-1807.0,1589.0,1
-374.0,64.0,104.0,667.0,-1675.0,1570.0,1
-316.0,69.0,117.0,559.0,-1530.0,1554.0,1
-264.0,72.0,124.0,431.0,-1353.0,1490.0,1
-209.0,59.0,124.0,354.0,-1146.0,1417.0,1
-169.0,35.0,100.0,365.0,-949.0,1330.0,1
-134.0,12.0,66.0,421.0,-788.0,1223.0,1
-124.0,-5.0,54.0,475.0,-692.0,1076.0,1
-131.0,-22.0,56.0,491.0,-671.0,900.0,1
-172.0,-28.0,72.0,472.0,-736.0,751.0,1
-202.0,-23.0,75.0,441.0,-848.0,672.0,1
-242.0,-10.0,86.0,374.0,-948.0,682.0,1
-283.0,14.0,110.0,262.0,-1009.0,755.0,1
-322.0,34.0,114.0,138.0,-1026.0,847.0,1
-357.0,62.0,106.0,16.0,-983.0,925.0,1
-356.0,74.0,61.0,-77.0,-881.0,954.0,1
-362.0,103.0,28.0,-140.0,-720.0,904.0,1
-379.0,106.0,24.0,-175.0,-567.0,837.0,1
-401.0,91.0,37.0,-147.0,-500.0,739.0,1
-384.0,73.0,37.0,-33.0,-566.0,588.0,1
-363.0,69.0,34.0,114.0,-676.0,384.0,1
-325.0,66.0,33.0,244.0,-800.0,184.0,1
-277.0,65.0,27.0,305.0,-940.0,43.0,1
-247.0,61.0,43.0,297.0,-1051.0,-32.0,1
-239.0,64.0,42.0,267.0,-1174.0,-38.0,1
-201.0,55.0,33.0,244.0,-1275.0,13.0,1
-186.0,53.0,33.0,220.0,-1286.0,41.0,1
-189.0,47.0,44.0,197.0,-1235.0,49.0,1
-170.0,50.0,49.0,201.0,-1176.0,53.0,1
-158.0,43.0,55.0,251.0,-1094.0,7.0,1
-160.0,44.0,56.0,353.0,-1009.0,-103.0,1
-253.0,73.0,49.0,513.0,-956.0,-251.0,1
-208.0,61.0,-31.0,623.0,-1090.0,-333.0,1
-165.0,49.0,-52.0,609.0,-1149.0,-461.0,1
-131.0,38.0,-23.0,584.0,-1146.0,-619.0,1
-161.0,43.0,-4.0,605.0,-1220.0,-718.0,1
-134.0,17.0,20.0,641.0,-1358.0,-675.0,1
-107.0,20.0,45.0,692.0,-1379.0,-568.0,1
-80.0,40.0,71.0,760.0,-1296.0,-440.0,1
-72.0,66.0,76.0,819.0,-1166.0,-326.0,1
-98.0,85.0,70.0,838.0,-1046.0,-256.0,1
-129.0,104.0,78.0,790.0,-980.0,-235.0,1
-164.0,120.0,92.0,690.0,-992.0,-220.0,1
-176.0,122.0,100.0,591.0,-1064.0,-196.0,1
-164.0,137.0,102.0,517.0,-1156.0,-181.0,1
-124.0,167.0,101.0,509.0,-1175.0,-100.0,1
-131.0,166.0,114.0,582.0,-1102.0,45.0,1
-167.0,159.0,135.0,664.0,-1087.0,147.0,1
-185.0,157.0,138.0,704.0,-1157.0,167.0,1
-197.0,146.0,135.0,701.0,-1262.0,140.0,1
-204.0,125.0,138.0,677.0,-1358.0,88.0,1
-217.0,102.0,134.0,658.0,-1419.0,-5.0,1
-222.0,77.0,143.0,641.0,-1459.0,-118.0,1
-207.0,65.0,150.0,634.0,-1495.0,-220.0,1
-194.0,56.0,153.0,647.0,-1489.0,-291.0,1
-176.0,56.0,164.0,654.0,-1466.0,-311.0,1
-161.0,57.0,162.0,647.0,-1439.0,-290.0,1
-157.0,76.0,166.0,628.0,-1438.0,-245.0,1
-154.0,93.0,165.0,594.0,-1480.0,-162.0,1
-166.0,110.0,159.0,558.0,-1555.0,-69.0,1
-184.0,123.0,150.0,538.0,-1633.0,26.0,1
-201.0,131.0,146.0,551.0,-1696.0,97.0,1
-233.0,138.0,149.0,581.0,-1729.0,128.0,1
-251.0,147.0,164.0,621.0,-1739.0,115.0,1
-260.0,153.0,174.0,669.0,-1731.0,93.0,1
-271.0,167.0,187.0,703.0,-1716.0,47.0,1
-273.0,162.0,180.0,710.0,-1696.0,8.0,1
-258.0,151.0,175.0,691.0,-1663.0,-21.0,1
-237.0,123.0,161.0,666.0,-1600.0,-53.0,1
-203.0,84.0,130.0,668.0,-1496.0,-77.0,1
-169.0,60.0,119.0,696.0,-1360.0,-111.0,1
-128.0,38.0,127.0,744.0,-1218.0,-139.0,1
-90.0,18.0,149.0,811.0,-1095.0,-175.0,1
-86.0,16.0,179.0,905.0,-994.0,-242.0,1
-92.0,25.0,200.0,1004.0,-928.0,-293.0,1
-111.0,51.0,223.0,1100.0,-907.0,-322.0,1
-150.0,70.0,234.0,1173.0,-941.0,-309.0,1
-187.0,85.0,239.0,1207.0,-1021.0,-270.0,1
-242.0,102.0,233.0,1202.0,-1112.0,-231.0,1
-277.0,111.0,225.0,1183.0,-1183.0,-216.0,1
-307.0,120.0,214.0,1152.0,-1222.0,-208.0,1
-305.0,117.0,200.0,1111.0,-1232.0,-199.0,1
-298.0,110.0,190.0,1066.0,-1218.0,-191.0,1
-279.0,105.0,178.0,1036.0,-1181.0,-188.0,1
-250.0,86.0,160.0,1012.0,-1129.0,-176.0,1
-220.0,71.0,138.0,993.0,-1065.0,-168.0,1
-185.0,50.0,135.0,988.0,-985.0,-171.0,1
-152.0,37.0,142.0,1000.0,-901.0,-195.0,1
-148.0,25.0,156.0,1017.0,-838.0,-224.0,1
-91.0,24.0,160.0,1040.0,-807.0,-231.0,1
-74.0,35.0,179.0,1076.0,-739.0,-309.0,1
-85.0,49.0,185.0,1128.0,-659.0,-392.0,1
-97.0,61.0,189.0,1183.0,-602.0,-444.0,1
-106.0,69.0,197.0,1223.0,-576.0,-452.0,1
-106.0,73.0,201.0,1243.0,-550.0,-452.0,1
-126.0,75.0,211.0,1243.0,-523.0,-470.0,1
-131.0,80.0,215.0,1223.0,-507.0,-459.0,1
-128.0,84.0,214.0,1171.0,-494.0,-454.0,1
-158.0,83.0,231.0,1095.0,-484.0,-471.0,1
-151.0,96.0,221.0,1019.0,-474.0,-479.0,1
-166.0,98.0,225.0,939.0,-447.0,-482.0,1
-168.0,97.0,217.0,869.0,-430.0,-480.0,1
-160.0,86.0,212.0,807.0,-407.0,-478.0,1
-159.0,79.0,204.0,745.0,-366.0,-470.0,1
-152.0,67.0,190.0,682.0,-328.0,-451.0,1
-148.0,56.0,187.0,613.0,-294.0,-446.0,1
-149.0,49.0,174.0,543.0,-256.0,-456.0,1
-143.0,51.0,174.0,471.0,-228.0,-452.0,1
-133.0,41.0,177.0,410.0,-207.0,-446.0,1
-133.0,38.0,185.0,376.0,-192.0,-442.0,1
-130.0,30.0,181.0,382.0,-190.0,-441.0,1
-130.0,29.0,187.0,416.0,-182.0,-456.0,1
-133.0,34.0,194.0,460.0,-179.0,-482.0,1
-142.0,32.0,193.0,506.0,-177.0,-509.0,1
-146.0,38.0,203.0,537.0,-173.0,-534.0,1
-154.0,41.0,203.0,550.0,-172.0,-550.0,1
-159.0,46.0,206.0,560.0,-164.0,-562.0,1
-157.0,46.0,198.0,576.0,-135.0,-576.0,1
-158.0,50.0,197.0,598.0,-85.0,-595.0,1
-153.0,53.0,193.0,619.0,-30.0,-605.0,1
-147.0,57.0,187.0,633.0,19.0,-622.0,1
-143.0,63.0,186.0,641.0,62.0,-640.0,1
-140.0,65.0,175.0,638.0,93.0,-642.0,1
-129.0,66.0,166.0,617.0,122.0,-640.0,1
-122.0,59.0,169.0,584.0,158.0,-633.0,1
-133.0,54.0,170.0,551.0,176.0,-622.0,1
-142.0,50.0,173.0,508.0,168.0,-644.0,1
-146.0,45.0,174.0,464.0,148.0,-692.0,1
-154.0,33.0,178.0,439.0,119.0,-733.0,1
-157.0,24.0,174.0,433.0,88.0,-775.0,1
-168.0,10.0,173.0,434.0,64.0,-808.0,1
-168.0,8.0,175.0,431.0,53.0,-822.0,1
-173.0,7.0,174.0,425.0,47.0,-806.0,1
-174.0,10.0,191.0,399.0,49.0,-799.0,1
-176.0,21.0,195.0,392.0,54.0,-794.0,1
-181.0,34.0,204.0,373.0,74.0,-816.0,1
-174.0,45.0,204.0,371.0,98.0,-846.0,1
-172.0,51.0,200.0,395.0,110.0,-864.0,1
-168.0,54.0,191.0,437.0,113.0,-863.0,1
-175.0,60.0,182.0,481.0,124.0,-856.0,1
-169.0,70.0,181.0,495.0,159.0,-839.0,1
-168.0,68.0,180.0,490.0,211.0,-824.0,1
-165.0,61.0,173.0,466.0,264.0,-835.0,1
-169.0,63.0,172.0,450.0,295.0,-844.0,1
-164.0,67.0,165.0,417.0,316.0,-838.0,1
-127.0,59.0,166.0,315.0,344.0,-779.0,1
-151.0,56.0,174.0,274.0,399.0,-660.0,1
-165.0,61.0,174.0,222.0,421.0,-773.0,1
-163.0,65.0,174.0,170.0,438.0,-898.0,1
-156.0,57.0,172.0,145.0,445.0,-933.0,1
-155.0,53.0,158.0,141.0,442.0,-929.0,1
-163.0,53.0,141.0,157.0,433.0,-908.0,1
-184.0,49.0,125.0,164.0,450.0,-888.0,1
-216.0,52.0,110.0,153.0,466.0,-861.0,1
-223.0,50.0,93.0,105.0,499.0,-829.0,1
-228.0,44.0,84.0,12.0,557.0,-810.0,1
-229.0,34.0,78.0,-108.0,607.0,-787.0,1
-221.0,21.0,86.0,-231.0,631.0,-747.0,1
-217.0,9.0,105.0,-337.0,638.0,-712.0,1
-214.0,-19.0,120.0,-399.0,637.0,-677.0,1
-223.0,-42.0,141.0,-406.0,627.0,-637.0,1
-220.0,-63.0,164.0,-366.0,610.0,-581.0,1
-219.0,-84.0,187.0,-278.0,584.0,-511.0,1
-219.0,-88.0,208.0,-148.0,545.0,-428.0,1
-232.0,-84.0,214.0,8.0,492.0,-341.0,1
-239.0,-74.0,216.0,186.0,437.0,-248.0,1
-254.0,-54.0,206.0,355.0,386.0,-154.0,1
-257.0,-32.0,185.0,492.0,348.0,-60.0,1
-254.0,-8.0,169.0,576.0,319.0,27.0,1
-254.0,16.0,149.0,597.0,302.0,107.0,1
-246.0,31.0,139.0,565.0,297.0,168.0,1
-238.0,40.0,137.0,511.0,286.0,199.0,1
-232.0,48.0,135.0,450.0,267.0,214.0,1
-229.0,48.0,142.0,392.0,248.0,221.0,1
-224.0,43.0,145.0,348.0,233.0,226.0,1
-221.0,35.0,149.0,318.0,229.0,230.0,1
-218.0,22.0,159.0,296.0,235.0,229.0,1
-214.0,13.0,161.0,280.0,247.0,224.0,1
-209.0,5.0,158.0,264.0,264.0,213.0,1
-201.0,-4.0,159.0,240.0,285.0,194.0,1
-197.0,-6.0,154.0,211.0,308.0,169.0,1
-191.0,-6.0,147.0,166.0,321.0,139.0,1
-191.0,-5.0,142.0,113.0,319.0,106.0,1
-185.0,-2.0,133.0,61.0,298.0,75.0,1
-186.0,1.0,129.0,10.0,263.0,41.0,1
-195.0,-1.0,121.0,-38.0,212.0,7.0,1
-190.0,9.0,115.0,-80.0,153.0,-23.0,1
-191.0,10.0,111.0,-122.0,90.0,-51.0,1
-198.0,14.0,104.0,-169.0,30.0,-82.0,1
-208.0,18.0,103.0,-223.0,-26.0,-111.0,1
-207.0,11.0,104.0,-279.0,-72.0,-135.0,1
-217.0,9.0,103.0,-331.0,-108.0,-150.0,1
-221.0,4.0,108.0,-371.0,-135.0,-155.0,1
-224.0,-4.0,113.0,-390.0,-158.0,-146.0,1
-223.0,-6.0,113.0,-390.0,-175.0,-133.0,1
-224.0,-14.0,121.0,-372.0,-188.0,-114.0,1
-214.0,-10.0,120.0,-330.0,-205.0,-88.0,1
-209.0,-12.0,123.0,-275.0,-214.0,-61.0,1
-209.0,-9.0,132.0,-221.0,-216.0,-26.0,1
-210.0,-6.0,131.0,-175.0,-214.0,8.0,1
-211.0,-7.0,131.0,-149.0,-217.0,44.0,1
-222.0,0.0,136.0,-136.0,-228.0,78.0,1
-219.0,-3.0,145.0,-138.0,-242.0,108.0,1
-228.0,7.0,150.0,-144.0,-267.0,131.0,1
-228.0,8.0,161.0,-156.0,-294.0,156.0,1
-228.0,11.0,164.0,-171.0,-313.0,181.0,1
-224.0,10.0,170.0,-182.0,-322.0,211.0,1
-214.0,9.0,170.0,-185.0,-316.0,230.0,1
-205.0,10.0,171.0,-180.0,-298.0,234.0,1
-202.0,8.0,169.0,-171.0,-276.0,233.0,1
-195.0,7.0,168.0,-163.0,-251.0,232.0,1
-195.0,10.0,174.0,-160.0,-232.0,236.0,1
-192.0,9.0,175.0,-149.0,-233.0,243.0,1
-191.0,11.0,175.0,-142.0,-234.0,245.0,1
-190.0,17.0,172.0,-138.0,-230.0,248.0,1
-192.0,22.0,173.0,-132.0,-215.0,251.0,1
-190.0,18.0,172.0,-119.0,-202.0,255.0,1
-191.0,21.0,172.0,-94.0,-186.0,255.0,1
-188.0,23.0,171.0,-66.0,-171.0,252.0,1
-190.0,22.0,171.0,-47.0,-155.0,247.0,1
-188.0,21.0,168.0,-37.0,-141.0,245.0,1
-192.0,26.0,168.0,-30.0,-128.0,245.0,1
-190.0,23.0,168.0,-27.0,-123.0,249.0,1
-190.0,23.0,170.0,-27.0,-123.0,248.0,1
-192.0,21.0,167.0,-20.0,-126.0,243.0,1
-188.0,21.0,165.0,-12.0,-133.0,238.0,1
-189.0,21.0,167.0,-4.0,-144.0,229.0,1
-190.0,21.0,171.0,-2.0,-153.0,222.0,1
-186.0,25.0,170.0,-4.0,-157.0,215.0,1
-186.0,21.0,174.0,-5.0,-160.0,209.0,1
-179.0,23.0,175.0,-8.0,-156.0,200.0,1
-180.0,25.0,178.0,-11.0,-148.0,195.0,1
-177.0,25.0,176.0,-10.0,-135.0,191.0,1
-173.0,21.0,178.0,2.0,-129.0,177.0,1
-171.0,25.0,179.0,25.0,-125.0,158.0,1
-172.0,26.0,176.0,38.0,-116.0,144.0,1
-171.0,26.0,179.0,49.0,-107.0,126.0,1
-170.0,29.0,180.0,68.0,-103.0,102.0,1
-165.0,29.0,177.0,87.0,-97.0,82.0,1
-166.0,31.0,179.0,97.0,-89.0,71.0,1
-165.0,32.0,180.0,101.0,-78.0,64.0,1
-165.0,33.0,179.0,110.0,-66.0,60.0,1
-164.0,35.0,180.0,125.0,-53.0,56.0,1
-163.0,34.0,181.0,139.0,-39.0,49.0,1
-166.0,39.0,184.0,149.0,-26.0,43.0,1
-164.0,40.0,181.0,156.0,-20.0,41.0,1
-164.0,42.0,186.0,157.0,-17.0,41.0,1
-162.0,42.0,188.0,159.0,-17.0,37.0,1
-167.0,42.0,183.0,163.0,-16.0,26.0,1
-168.0,46.0,185.0,163.0,-9.0,10.0,1
-166.0,47.0,184.0,156.0,-4.0,0.0,1
-165.0,49.0,184.0,146.0,2.0,-7.0,1
-168.0,46.0,182.0,132.0,5.0,-16.0,1
-169.0,45.0,182.0,120.0,9.0,-25.0,1
-170.0,42.0,178.0,104.0,16.0,-34.0,1
-167.0,46.0,178.0,90.0,23.0,-41.0,1
-170.0,46.0,173.0,78.0,29.0,-45.0,1
-173.0,43.0,176.0,73.0,39.0,-47.0,1
-174.0,39.0,173.0,69.0,46.0,-48.0,1
-172.0,40.0,173.0,72.0,55.0,-56.0,1
-170.0,38.0,173.0,78.0,66.0,-66.0,1
-172.0,42.0,173.0,79.0,76.0,-74.0,1
-176.0,48.0,174.0,76.0,87.0,-76.0,1
-172.0,46.0,171.0,71.0,97.0,-74.0,1
-173.0,47.0,171.0,65.0,105.0,-78.0,1
-173.0,44.0,172.0,62.0,111.0,-80.0,1
-176.0,42.0,171.0,56.0,121.0,-82.0,1
-174.0,47.0,174.0,46.0,130.0,-83.0,1
-175.0,44.0,174.0,35.0,135.0,-85.0,1
-176.0,42.0,173.0,23.0,144.0,-85.0,1
-177.0,43.0,171.0,11.0,151.0,-86.0,1
-180.0,43.0,172.0,3.0,159.0,-87.0,1
-185.0,41.0,170.0,-5.0,165.0,-85.0,1
-184.0,41.0,172.0,-13.0,172.0,-84.0,1
-187.0,42.0,172.0,-23.0,178.0,-84.0,1
-188.0,38.0,171.0,-28.0,182.0,-80.0,1
-188.0,34.0,170.0,-31.0,185.0,-79.0,1
-192.0,33.0,166.0,-30.0,186.0,-77.0,1
-192.0,32.0,167.0,-24.0,193.0,-77.0,1
-192.0,30.0,163.0,-20.0,198.0,-76.0,1
-193.0,30.0,166.0,-15.0,202.0,-76.0,1
-192.0,32.0,160.0,-12.0,204.0,-73.0,1
-195.0,27.0,167.0,-11.0,207.0,-71.0,1
-192.0,33.0,157.0,-12.0,209.0,-66.0,1
-192.0,28.0,160.0,-16.0,209.0,-62.0,1
-192.0,27.0,158.0,-18.0,210.0,-58.0,1
-195.0,31.0,158.0,-22.0,209.0,-51.0,1
-193.0,30.0,159.0,-27.0,209.0,-48.0,1
-195.0,32.0,158.0,-36.0,206.0,-46.0,1
-197.0,28.0,158.0,-45.0,204.0,-46.0,1
-199.0,28.0,161.0,-56.0,206.0,-44.0,1
-198.0,27.0,157.0,-67.0,207.0,-43.0,1
-197.0,23.0,161.0,-78.0,209.0,-42.0,1
-198.0,24.0,156.0,-90.0,215.0,-39.0,1
-200.0,24.0,160.0,-98.0,220.0,-37.0,1
-198.0,19.0,158.0,-104.0,220.0,-32.0,1
-200.0,25.0,161.0,-108.0,217.0,-26.0,1
-199.0,20.0,158.0,-113.0,214.0,-21.0,1
-198.0,20.0,162.0,-111.0,208.0,-14.0,1
-201.0,20.0,160.0,-111.0,204.0,-6.0,1
-199.0,22.0,162.0,-111.0,202.0,4.0,1
-197.0,14.0,163.0,-107.0,201.0,14.0,1
-199.0,18.0,159.0,-99.0,194.0,23.0,1
-198.0,17.0,163.0,-84.0,183.0,28.0,1
-193.0,16.0,162.0,-65.0,171.0,36.0,1
-196.0,17.0,158.0,-48.0,160.0,39.0,1
-195.0,14.0,159.0,-34.0,149.0,43.0,1
-195.0,13.0,157.0,-16.0,135.0,45.0,1
-193.0,15.0,156.0,3.0,119.0,47.0,1
-197.0,17.0,155.0,22.0,105.0,49.0,1
-193.0,17.0,153.0,38.0,93.0,52.0,1
-191.0,18.0,155.0,49.0,81.0,55.0,1
-193.0,23.0,152.0,58.0,70.0,56.0,1
-194.0,25.0,151.0,61.0,58.0,56.0,1
-192.0,24.0,152.0,59.0,47.0,53.0,1
-194.0,23.0,152.0,54.0,37.0,51.0,1
-199.0,29.0,154.0,43.0,25.0,46.0,1
-196.0,28.0,159.0,32.0,17.0,40.0,1
-198.0,27.0,162.0,18.0,8.0,35.0,1
-195.0,29.0,160.0,3.0,4.0,32.0,1
-199.0,30.0,164.0,-13.0,2.0,29.0,1
-197.0,31.0,167.0,-27.0,0.0,24.0,1
-196.0,28.0,165.0,-40.0,6.0,22.0,1
-196.0,26.0,165.0,-48.0,8.0,21.0,1
-193.0,29.0,169.0,-53.0,16.0,22.0,1
-192.0,27.0,166.0,-56.0,21.0,22.0,1
-190.0,28.0,168.0,-56.0,26.0,18.0,1
-190.0,28.0,169.0,-55.0,30.0,17.0,1
-190.0,31.0,163.0,-51.0,34.0,15.0,1
-189.0,29.0,168.0,-42.0,38.0,13.0,1
-185.0,29.0,166.0,-28.0,40.0,13.0,1
-188.0,28.0,165.0,-10.0,42.0,13.0,1
-186.0,27.0,163.0,10.0,43.0,14.0,1
-184.0,30.0,168.0,24.0,44.0,16.0,1
-187.0,30.0,167.0,35.0,44.0,18.0,1
-186.0,32.0,168.0,42.0,44.0,20.0,1
-186.0,31.0,166.0,42.0,42.0,22.0,1
-183.0,30.0,161.0,40.0,42.0,24.0,1
-181.0,31.0,168.0,38.0,42.0,26.0,1
-188.0,36.0,169.0,32.0,44.0,26.0,1
-182.0,32.0,168.0,26.0,48.0,26.0,1
-187.0,34.0,168.0,19.0,51.0,25.0,1
-187.0,34.0,166.0,12.0,58.0,24.0,1
-185.0,32.0,169.0,5.0,70.0,27.0,1
-187.0,33.0,167.0,2.0,81.0,28.0,1
-191.0,36.0,164.0,3.0,90.0,28.0,1
-191.0,38.0,168.0,4.0,97.0,27.0,1
-193.0,38.0,163.0,-2.0,100.0,25.0,1
-192.0,36.0,160.0,-10.0,101.0,21.0,1
-192.0,36.0,163.0,-23.0,97.0,20.0,1
-193.0,35.0,165.0,-33.0,91.0,19.0,1
-189.0,36.0,163.0,-45.0,84.0,14.0,1
-190.0,37.0,162.0,-60.0,83.0,12.0,1
-190.0,36.0,162.0,-76.0,81.0,13.0,1
-185.0,34.0,167.0,-91.0,79.0,13.0,1
-185.0,31.0,167.0,-101.0,77.0,14.0,1
-186.0,33.0,163.0,-105.0,75.0,14.0,1
-187.0,33.0,165.0,-107.0,78.0,16.0,1
-187.0,33.0,163.0,-107.0,82.0,16.0,1
-191.0,33.0,165.0,-106.0,85.0,20.0,1
-190.0,31.0,158.0,-101.0,83.0,20.0,1
-188.0,28.0,162.0,-92.0,80.0,19.0,1
-188.0,31.0,162.0,-83.0,79.0,21.0,1
-190.0,29.0,162.0,-75.0,76.0,23.0,1
-190.0,28.0,167.0,-69.0,70.0,24.0,1
-188.0,25.0,163.0,-60.0,63.0,24.0,1
-186.0,23.0,165.0,-54.0,58.0,23.0,1
-188.0,25.0,167.0,-48.0,57.0,22.0,1
-191.0,24.0,167.0,-46.0,57.0,22.0,1
-190.0,22.0,165.0,-39.0,55.0,21.0,1
-190.0,26.0,166.0,-34.0,54.0,18.0,1
-189.0,28.0,162.0,-32.0,48.0,15.0,1
-191.0,28.0,165.0,-29.0,42.0,12.0,1
-189.0,27.0,167.0,-23.0,38.0,8.0,1
-191.0,28.0,163.0,-22.0,42.0,7.0,1
-194.0,29.0,164.0,-27.0,54.0,6.0,1
-192.0,27.0,168.0,-22.0,59.0,6.0,1
-191.0,28.0,168.0,-9.0,56.0,4.0,1
-192.0,33.0,170.0,3.0,51.0,0.0,1
-190.0,30.0,166.0,5.0,55.0,-2.0,1
-189.0,29.0,166.0,7.0,62.0,-1.0,1
-190.0,31.0,166.0,6.0,66.0,-2.0,1
-191.0,27.0,168.0,8.0,63.0,-6.0,1
-188.0,28.0,165.0,14.0,58.0,-10.0,1
-190.0,32.0,166.0,16.0,59.0,-11.0,1
-192.0,29.0,164.0,14.0,63.0,-12.0,1
-190.0,29.0,169.0,11.0,63.0,-12.0,1
-194.0,30.0,168.0,11.0,58.0,-12.0,1
-191.0,28.0,168.0,11.0,53.0,-14.0,1
-190.0,31.0,167.0,10.0,52.0,-12.0,1
-191.0,31.0,166.0,11.0,55.0,-11.0,1
-189.0,27.0,169.0,13.0,58.0,-9.0,1
-190.0,27.0,167.0,16.0,58.0,-11.0,1
-189.0,27.0,164.0,19.0,59.0,-10.0,1
-191.0,27.0,166.0,20.0,61.0,-11.0,1
-189.0,29.0,165.0,25.0,63.0,-9.0,1
-187.0,23.0,162.0,28.0,64.0,-11.0,1
-188.0,27.0,164.0,30.0,62.0,-9.0,1
-190.0,30.0,164.0,31.0,61.0,-8.0,1
-189.0,29.0,165.0,30.0,61.0,-6.0,1
-190.0,30.0,159.0,26.0,60.0,-6.0,1
-189.0,29.0,162.0,21.0,64.0,-3.0,1
-191.0,31.0,168.0,15.0,65.0,-1.0,1
-188.0,30.0,166.0,14.0,65.0,-3.0,1
-191.0,29.0,162.0,12.0,62.0,-2.0,1
-189.0,31.0,167.0,12.0,62.0,0.0,1
-190.0,28.0,168.0,6.0,66.0,3.0,1
-188.0,28.0,164.0,4.0,68.0,2.0,1
-191.0,30.0,164.0,6.0,67.0,-1.0,1
-190.0,27.0,168.0,7.0,67.0,1.0,1
-188.0,30.0,165.0,8.0,67.0,1.0,1
-189.0,32.0,168.0,8.0,69.0,2.0,1
-187.0,33.0,166.0,7.0,70.0,6.0,1
-190.0,32.0,164.0,4.0,73.0,6.0,1
-190.0,32.0,164.0,2.0,72.0,7.0,1
-189.0,31.0,164.0,3.0,70.0,8.0,1
-191.0,32.0,164.0,2.0,71.0,8.0,1
-192.0,32.0,167.0,-1.0,72.0,9.0,1
-189.0,30.0,164.0,-6.0,71.0,10.0,1
-192.0,31.0,164.0,-9.0,70.0,10.0,1
-190.0,28.0,166.0,-12.0,72.0,11.0,1
-192.0,31.0,167.0,-13.0,70.0,8.0,1
-192.0,34.0,164.0,-11.0,71.0,9.0,1
-192.0,30.0,162.0,-12.0,71.0,9.0,1
-191.0,32.0,163.0,-12.0,70.0,8.0,1
-191.0,31.0,162.0,-12.0,70.0,8.0,1
-190.0,36.0,162.0,-13.0,72.0,9.0,1
-190.0,34.0,163.0,-16.0,71.0,9.0,1
-192.0,37.0,163.0,-17.0,71.0,8.0,1
-191.0,36.0,164.0,-20.0,70.0,8.0,1
-188.0,33.0,166.0,-23.0,69.0,5.0,1
-190.0,33.0,164.0,-27.0,69.0,6.0,1
-191.0,30.0,165.0,-30.0,70.0,5.0,1
-190.0,31.0,165.0,-32.0,72.0,4.0,1
-192.0,32.0,167.0,-32.0,73.0,2.0,1
-189.0,30.0,166.0,-32.0,71.0,1.0,1
-190.0,32.0,166.0,-30.0,71.0,0.0,1
-189.0,33.0,166.0,-30.0,72.0,0.0,1
-189.0,31.0,168.0,-32.0,72.0,0.0,1
-188.0,31.0,167.0,-32.0,71.0,-1.0,1
-190.0,33.0,164.0,-35.0,71.0,-3.0,1
-190.0,30.0,165.0,-35.0,70.0,-3.0,1
-190.0,33.0,165.0,-38.0,69.0,-2.0,1
-191.0,30.0,163.0,-42.0,70.0,-3.0,1
-189.0,32.0,161.0,-41.0,70.0,-3.0,1
-192.0,32.0,161.0,-40.0,69.0,-1.0,1
-187.0,33.0,159.0,-37.0,68.0,-1.0,1
-188.0,30.0,166.0,-36.0,67.0,-1.0,1
-188.0,32.0,163.0,-38.0,67.0,-1.0,1
-189.0,32.0,167.0,-38.0,66.0,-1.0,1
-190.0,30.0,163.0,-39.0,66.0,-2.0,1
-192.0,30.0,163.0,-36.0,66.0,-2.0,1
-192.0,30.0,163.0,-30.0,68.0,-3.0,1
-192.0,27.0,161.0,-23.0,68.0,-2.0,1
-191.0,32.0,164.0,-16.0,68.0,-1.0,1
-193.0,30.0,159.0,-10.0,70.0,1.0,1
-192.0,31.0,165.0,-5.0,69.0,2.0,1
-189.0,31.0,161.0,-1.0,69.0,3.0,1
-190.0,26.0,165.0,1.0,68.0,3.0,1
-193.0,29.0,164.0,3.0,68.0,2.0,1
-190.0,28.0,167.0,1.0,69.0,1.0,1
-191.0,29.0,162.0,-2.0,71.0,2.0,1
-192.0,27.0,165.0,-9.0,76.0,3.0,1
-192.0,30.0,166.0,-11.0,77.0,3.0,1
-190.0,26.0,164.0,-3.0,72.0,2.0,1
-191.0,26.0,166.0,10.0,71.0,1.0,1
-193.0,29.0,162.0,22.0,70.0,1.0,1
-195.0,33.0,159.0,27.0,68.0,3.0,1
-191.0,35.0,161.0,26.0,67.0,6.0,1
-190.0,30.0,160.0,20.0,71.0,8.0,1
-192.0,31.0,160.0,10.0,68.0,9.0,1
-191.0,32.0,163.0,-3.0,66.0,10.0,1
-193.0,30.0,165.0,-9.0,62.0,9.0,1
-191.0,30.0,163.0,-15.0,54.0,6.0,1
-191.0,27.0,165.0,-20.0,49.0,4.0,1
-189.0,30.0,164.0,-23.0,46.0,4.0,1
-191.0,28.0,163.0,-27.0,46.0,3.0,1
-189.0,28.0,165.0,-25.0,49.0,4.0,1
-190.0,30.0,164.0,-25.0,48.0,4.0,1
-193.0,20.0,163.0,-25.0,47.0,4.0,1
-189.0,28.0,165.0,-24.0,46.0,7.0,1
-189.0,24.0,165.0,-25.0,49.0,7.0,1
-190.0,25.0,166.0,-23.0,45.0,8.0,1
-189.0,28.0,165.0,-18.0,39.0,8.0,1
-190.0,31.0,168.0,-14.0,38.0,8.0,1
-191.0,29.0,168.0,-11.0,40.0,6.0,1
-189.0,28.0,168.0,-7.0,42.0,8.0,1
-185.0,29.0,169.0,-6.0,45.0,6.0,1
-188.0,32.0,164.0,-7.0,50.0,4.0,1
-189.0,31.0,166.0,-13.0,53.0,4.0,1
-190.0,30.0,161.0,-15.0,59.0,5.0,1
-189.0,32.0,162.0,-14.0,67.0,9.0,1
-190.0,29.0,163.0,-15.0,75.0,7.0,1
-189.0,29.0,165.0,-20.0,83.0,6.0,1
-188.0,25.0,161.0,-32.0,91.0,8.0,1
-186.0,28.0,162.0,-43.0,99.0,9.0,1
-187.0,29.0,163.0,-55.0,113.0,12.0,1
-187.0,29.0,164.0,-61.0,118.0,16.0,1
-186.0,35.0,166.0,-60.0,119.0,18.0,1
-182.0,34.0,163.0,-63.0,124.0,21.0,1
-183.0,33.0,167.0,-60.0,129.0,26.0,1
-186.0,31.0,167.0,-54.0,129.0,23.0,1
-187.0,33.0,171.0,-42.0,124.0,21.0,1
-188.0,33.0,168.0,-21.0,113.0,17.0,1
-190.0,32.0,168.0,-5.0,103.0,12.0,1
-190.0,35.0,165.0,2.0,97.0,10.0,1
-190.0,34.0,164.0,-3.0,98.0,11.0,1
-190.0,31.0,166.0,-10.0,95.0,12.0,1
-187.0,33.0,164.0,-16.0,90.0,12.0,1
-186.0,32.0,169.0,-23.0,87.0,12.0,1
-187.0,31.0,168.0,-28.0,88.0,11.0,1
-188.0,33.0,162.0,-30.0,84.0,10.0,1
-184.0,30.0,163.0,-31.0,87.0,7.0,1
-187.0,31.0,165.0,-33.0,96.0,8.0,1
-189.0,32.0,169.0,-28.0,97.0,9.0,1
-191.0,29.0,166.0,-16.0,95.0,9.0,1
-192.0,31.0,169.0,-3.0,95.0,8.0,1
-191.0,30.0,166.0,3.0,91.0,5.0,1
-188.0,32.0,166.0,2.0,89.0,4.0,1
-191.0,34.0,165.0,0.0,86.0,4.0,1
-191.0,34.0,169.0,-7.0,84.0,2.0,1
-189.0,34.0,164.0,-13.0,80.0,0.0,1
-191.0,32.0,164.0,-19.0,77.0,-3.0,1
-190.0,32.0,165.0,-23.0,75.0,-7.0,1
-191.0,32.0,167.0,-25.0,75.0,-9.0,1
-189.0,27.0,167.0,-25.0,75.0,-11.0,1
-189.0,30.0,165.0,-25.0,77.0,-12.0,1
-190.0,32.0,165.0,-27.0,79.0,-11.0,1
-190.0,29.0,165.0,-28.0,78.0,-12.0,1
-192.0,29.0,166.0,-28.0,80.0,-12.0,1
-194.0,32.0,165.0,-31.0,82.0,-12.0,1
-190.0,31.0,167.0,-34.0,85.0,-10.0,1
-189.0,28.0,166.0,-40.0,85.0,-9.0,1
-189.0,29.0,163.0,-38.0,84.0,-8.0,1
-189.0,28.0,172.0,-38.0,83.0,-8.0,1
-192.0,28.0,163.0,-37.0,84.0,-5.0,1
-191.0,29.0,166.0,-32.0,84.0,-3.0,1
-191.0,28.0,165.0,-29.0,85.0,-3.0,1
-192.0,32.0,163.0,-29.0,85.0,-2.0,1
-194.0,30.0,165.0,-28.0,83.0,-2.0,1
-191.0,27.0,163.0,-27.0,81.0,-2.0,1
-191.0,29.0,165.0,-25.0,78.0,-3.0,1
-191.0,28.0,164.0,-23.0,80.0,-4.0,1
-193.0,31.0,165.0,-22.0,80.0,-5.0,1
-191.0,28.0,162.0,-19.0,79.0,-3.0,1
-193.0,31.0,163.0,-15.0,75.0,-4.0,1
-190.0,26.0,164.0,-11.0,76.0,-3.0,1
-192.0,33.0,164.0,-11.0,74.0,-1.0,1
-192.0,29.0,163.0,-12.0,73.0,2.0,1
-192.0,31.0,161.0,-14.0,71.0,2.0,1
-190.0,32.0,160.0,-16.0,69.0,2.0,1
-191.0,29.0,166.0,-17.0,70.0,3.0,1
-191.0,28.0,163.0,-19.0,68.0,2.0,1
-191.0,28.0,164.0,-19.0,68.0,2.0,1
-189.0,32.0,159.0,-17.0,67.0,1.0,1
-191.0,30.0,165.0,-17.0,66.0,-1.0,1
-191.0,28.0,171.0,-16.0,67.0,-1.0,1
-191.0,33.0,171.0,-14.0,67.0,-1.0,1
-192.0,30.0,161.0,-13.0,68.0,-1.0,1
-190.0,27.0,166.0,-12.0,68.0,0.0,1
-191.0,33.0,167.0,-16.0,68.0,3.0,1
-191.0,28.0,164.0,-17.0,67.0,2.0,1
-191.0,33.0,166.0,-22.0,67.0,0.0,1
-190.0,32.0,165.0,-25.0,67.0,-1.0,1
-192.0,30.0,165.0,-29.0,69.0,-1.0,1
-192.0,29.0,167.0,-30.0,70.0,-1.0,1
-190.0,29.0,165.0,-29.0,70.0,1.0,1
-191.0,26.0,166.0,-27.0,72.0,3.0,1
-190.0,27.0,169.0,-24.0,74.0,2.0,1
-192.0,28.0,168.0,-21.0,76.0,1.0,1
-192.0,31.0,169.0,-20.0,75.0,0.0,1
-190.0,30.0,163.0,-17.0,76.0,0.0,1
-195.0,30.0,163.0,-10.0,75.0,-2.0,1
-192.0,30.0,164.0,0.0,75.0,-2.0,1
-193.0,33.0,164.0,10.0,74.0,-3.0,1
-193.0,32.0,166.0,16.0,75.0,-2.0,1
-193.0,35.0,159.0,20.0,75.0,-1.0,1
-192.0,35.0,162.0,19.0,73.0,1.0,1
-190.0,31.0,160.0,16.0,71.0,2.0,1
-192.0,33.0,163.0,11.0,69.0,2.0,1
-189.0,32.0,162.0,6.0,66.0,1.0,1
-192.0,30.0,163.0,2.0,66.0,-2.0,1
-189.0,31.0,164.0,0.0,64.0,-1.0,1
-191.0,33.0,165.0,-3.0,65.0,-4.0,1
-192.0,30.0,171.0,-6.0,65.0,-6.0,1
-192.0,31.0,171.0,-7.0,70.0,-5.0,1
-188.0,28.0,165.0,-7.0,73.0,-7.0,1
-190.0,29.0,165.0,-1.0,76.0,-7.0,1
-192.0,33.0,166.0,4.0,75.0,-7.0,1
-189.0,32.0,164.0,6.0,74.0,-5.0,1
-190.0,34.0,161.0,5.0,70.0,-5.0,1
-191.0,32.0,162.0,-3.0,66.0,-5.0,1
-190.0,33.0,164.0,-10.0,65.0,-5.0,1
-189.0,31.0,163.0,-18.0,63.0,-5.0,1
-191.0,31.0,165.0,-25.0,61.0,-4.0,1
-191.0,31.0,164.0,-30.0,63.0,-5.0,1
-192.0,32.0,166.0,-30.0,66.0,-5.0,1
-189.0,27.0,167.0,-28.0,69.0,-3.0,1
-190.0,29.0,167.0,-24.0,72.0,-6.0,1
-190.0,28.0,165.0,-19.0,75.0,-8.0,1
-189.0,26.0,164.0,-12.0,78.0,-10.0,1
-191.0,28.0,165.0,-6.0,82.0,-9.0,1
-192.0,27.0,162.0,1.0,83.0,-8.0,1
-190.0,26.0,162.0,6.0,82.0,-10.0,1
-190.0,30.0,164.0,7.0,78.0,-9.0,1
-192.0,31.0,164.0,6.0,73.0,-10.0,1
-192.0,34.0,163.0,5.0,70.0,-11.0,1
-192.0,30.0,166.0,1.0,66.0,-11.0,1
-192.0,32.0,164.0,-6.0,63.0,-11.0,1
-193.0,32.0,165.0,-10.0,62.0,-12.0,1
-191.0,30.0,164.0,-9.0,67.0,-13.0,1
-189.0,29.0,170.0,-6.0,72.0,-14.0,1
-188.0,29.0,166.0,-6.0,71.0,-13.0,1
-189.0,29.0,162.0,-9.0,70.0,-13.0,1
-190.0,29.0,166.0,-7.0,77.0,-13.0,1
-190.0,31.0,163.0,-8.0,80.0,-11.0,1
-189.0,30.0,164.0,-11.0,85.0,-8.0,1
-189.0,32.0,161.0,-11.0,92.0,-6.0,1
-189.0,33.0,162.0,-11.0,96.0,-5.0,1
-188.0,33.0,165.0,-13.0,99.0,-4.0,1
-190.0,30.0,164.0,-16.0,100.0,-2.0,1
-187.0,41.0,164.0,-19.0,99.0,0.0,1
-191.0,32.0,164.0,-22.0,100.0,1.0,1
-186.0,30.0,162.0,-24.0,97.0,1.0,1
-191.0,31.0,164.0,-28.0,96.0,-1.0,1
-190.0,31.0,161.0,-30.0,94.0,-1.0,1
-191.0,30.0,167.0,-29.0,93.0,-1.0,1
-191.0,32.0,162.0,-30.0,92.0,0.0,1
-191.0,32.0,164.0,-33.0,94.0,1.0,1
-192.0,31.0,161.0,-36.0,93.0,4.0,1
-191.0,31.0,160.0,-41.0,89.0,5.0,1
-189.0,32.0,164.0,-46.0,87.0,6.0,1
-190.0,26.0,161.0,-47.0,84.0,5.0,1
-189.0,28.0,163.0,-48.0,83.0,5.0,1
-190.0,27.0,159.0,-46.0,84.0,5.0,1
-192.0,27.0,167.0,-41.0,85.0,3.0,1
-192.0,27.0,163.0,-39.0,85.0,3.0,1
-192.0,28.0,163.0,-36.0,86.0,3.0,1
-192.0,30.0,166.0,-37.0,86.0,0.0,1
-192.0,34.0,161.0,-36.0,86.0,0.0,1
-192.0,31.0,162.0,-37.0,86.0,3.0,1
-191.0,30.0,164.0,-40.0,85.0,1.0,1
-191.0,30.0,162.0,-43.0,85.0,2.0,1
-189.0,31.0,161.0,-46.0,84.0,1.0,1
-191.0,28.0,168.0,-52.0,83.0,1.0,1
-191.0,29.0,164.0,-58.0,80.0,-1.0,1
-192.0,29.0,167.0,-59.0,79.0,-1.0,1
-192.0,29.0,165.0,-54.0,83.0,-2.0,1
-192.0,31.0,163.0,-46.0,88.0,-1.0,1
-189.0,26.0,163.0,-39.0,90.0,-2.0,1
-193.0,28.0,162.0,-36.0,93.0,-2.0,1
-194.0,28.0,163.0,-34.0,94.0,-1.0,1
-191.0,28.0,163.0,-33.0,93.0,-1.0,1
-192.0,31.0,168.0,-30.0,91.0,0.0,1
-191.0,30.0,163.0,-29.0,89.0,0.0,1
-193.0,31.0,162.0,-28.0,86.0,-1.0,1
-193.0,28.0,160.0,-30.0,85.0,-2.0,1
-192.0,26.0,157.0,-29.0,82.0,-4.0,1
-193.0,32.0,161.0,-27.0,80.0,-3.0,1
-192.0,26.0,162.0,-24.0,81.0,-6.0,1
-194.0,31.0,158.0,-22.0,81.0,-5.0,1
-191.0,28.0,164.0,-24.0,78.0,-7.0,1
-192.0,29.0,163.0,-26.0,75.0,-9.0,1
-188.0,30.0,161.0,-31.0,70.0,-9.0,1
-191.0,26.0,163.0,-31.0,66.0,-10.0,1
-193.0,26.0,160.0,-25.0,66.0,-7.0,1
-190.0,27.0,161.0,-16.0,70.0,-6.0,1
-192.0,27.0,164.0,-6.0,70.0,-6.0,1
-189.0,29.0,162.0,7.0,74.0,-4.0,1
-192.0,29.0,163.0,16.0,75.0,-3.0,1
-193.0,31.0,159.0,23.0,75.0,-3.0,1
-193.0,29.0,162.0,27.0,76.0,-2.0,1
-192.0,30.0,157.0,27.0,75.0,-4.0,1
-190.0,28.0,162.0,25.0,72.0,-5.0,1
-191.0,31.0,165.0,21.0,70.0,-8.0,1
-192.0,32.0,156.0,15.0,67.0,-8.0,1
-194.0,33.0,162.0,13.0,66.0,-9.0,1
-191.0,29.0,163.0,8.0,67.0,-8.0,1
-192.0,33.0,162.0,5.0,66.0,-9.0,1
-191.0,32.0,165.0,1.0,66.0,-9.0,1
-190.0,29.0,164.0,-4.0,66.0,-9.0,1
-191.0,30.0,163.0,-10.0,66.0,-8.0,1
-192.0,29.0,169.0,-16.0,64.0,-6.0,1
-193.0,33.0,169.0,-20.0,60.0,-7.0,1
-192.0,28.0,165.0,-27.0,58.0,-9.0,1
-191.0,31.0,157.0,-29.0,56.0,-7.0,1
-189.0,26.0,163.0,-27.0,58.0,-7.0,1
-190.0,27.0,163.0,-21.0,60.0,-6.0,1
-192.0,32.0,162.0,-18.0,64.0,-7.0,1
-190.0,30.0,162.0,-13.0,65.0,-6.0,1
-189.0,30.0,160.0,-9.0,70.0,-4.0,1
-191.0,29.0,165.0,-4.0,74.0,1.0,1
-188.0,30.0,160.0,1.0,76.0,0.0,1
-191.0,29.0,163.0,5.0,79.0,0.0,1
-191.0,28.0,160.0,9.0,83.0,0.0,1
-193.0,29.0,161.0,11.0,81.0,0.0,1
-192.0,30.0,159.0,14.0,80.0,0.0,1
-193.0,28.0,158.0,24.0,80.0,0.0,1
-193.0,32.0,160.0,32.0,80.0,0.0,1
-191.0,30.0,159.0,36.0,80.0,1.0,1
-192.0,33.0,160.0,32.0,78.0,2.0,1
-192.0,34.0,160.0,24.0,75.0,1.0,1
-192.0,30.0,161.0,14.0,72.0,0.0,1
-194.0,31.0,161.0,6.0,71.0,-3.0,1
-191.0,29.0,162.0,-3.0,71.0,-3.0,1
-191.0,34.0,165.0,-11.0,71.0,-4.0,1
-189.0,29.0,164.0,-19.0,72.0,-4.0,1
-192.0,30.0,167.0,-28.0,73.0,-5.0,1
-192.0,31.0,166.0,-36.0,75.0,-5.0,1
-189.0,27.0,167.0,-37.0,79.0,-5.0,1
-188.0,26.0,165.0,-32.0,81.0,-4.0,1
-189.0,26.0,166.0,-23.0,79.0,-4.0,1
-191.0,26.0,163.0,-13.0,79.0,-2.0,1
-190.0,27.0,158.0,-3.0,79.0,-3.0,1
-192.0,32.0,160.0,4.0,81.0,-3.0,1
-191.0,31.0,161.0,4.0,82.0,-2.0,1
-189.0,31.0,164.0,3.0,83.0,-2.0,1
-192.0,32.0,162.0,2.0,85.0,0.0,1
-192.0,33.0,162.0,-3.0,86.0,1.0,1
-193.0,31.0,163.0,-10.0,84.0,1.0,1
-193.0,31.0,162.0,-12.0,85.0,0.0,1
-192.0,30.0,163.0,-12.0,84.0,0.0,1
-193.0,32.0,159.0,-13.0,81.0,0.0,1
-190.0,32.0,160.0,-13.0,80.0,-1.0,1
-193.0,29.0,161.0,-10.0,77.0,-1.0,1
-193.0,31.0,159.0,-5.0,74.0,-2.0,1
-191.0,30.0,162.0,-3.0,72.0,-1.0,1
-192.0,31.0,160.0,-2.0,70.0,-2.0,1
-193.0,30.0,163.0,-1.0,69.0,-1.0,1
-193.0,31.0,159.0,2.0,69.0,2.0,1
-192.0,31.0,160.0,3.0,67.0,1.0,1
-191.0,30.0,159.0,3.0,67.0,0.0,1
-191.0,31.0,165.0,4.0,66.0,0.0,1
-191.0,34.0,161.0,4.0,64.0,-1.0,1
-188.0,29.0,161.0,3.0,63.0,-1.0,1
-192.0,29.0,161.0,2.0,65.0,-3.0,1
-189.0,30.0,159.0,2.0,65.0,-5.0,1
-189.0,31.0,160.0,1.0,63.0,-5.0,1
-192.0,31.0,165.0,0.0,64.0,-7.0,1
-192.0,31.0,161.0,0.0,65.0,-8.0,1
-192.0,29.0,165.0,4.0,66.0,-11.0,1
-191.0,32.0,163.0,5.0,66.0,-12.0,1
-192.0,33.0,162.0,7.0,65.0,-11.0,1
-190.0,29.0,156.0,10.0,66.0,-10.0,1
-191.0,29.0,159.0,9.0,63.0,-9.0,1
-192.0,33.0,160.0,8.0,61.0,-10.0,1
-191.0,29.0,162.0,9.0,58.0,-12.0,1
-190.0,28.0,160.0,8.0,57.0,-13.0,1
-192.0,29.0,162.0,6.0,56.0,-12.0,1
-193.0,33.0,160.0,4.0,53.0,-12.0,1
-191.0,31.0,159.0,1.0,52.0,-8.0,1
-191.0,29.0,160.0,-1.0,50.0,-7.0,1
-192.0,32.0,157.0,-7.0,50.0,-5.0,1
-191.0,32.0,160.0,-12.0,48.0,-4.0,1
-193.0,30.0,162.0,-14.0,47.0,-4.0,1
-192.0,30.0,160.0,-16.0,47.0,-2.0,1
-192.0,28.0,161.0,-14.0,46.0,-2.0,1
-192.0,28.0,164.0,-10.0,46.0,-2.0,1
-189.0,28.0,165.0,-7.0,47.0,-3.0,1
-192.0,31.0,160.0,-3.0,50.0,-2.0,1
-192.0,29.0,161.0,-1.0,51.0,-3.0,1
-192.0,26.0,162.0,0.0,51.0,0.0,1
-190.0,28.0,166.0,-2.0,51.0,-1.0,1
-189.0,31.0,167.0,-3.0,49.0,0.0,1
-190.0,28.0,160.0,-7.0,49.0,-1.0,1
-193.0,28.0,162.0,-10.0,47.0,-1.0,1
-192.0,30.0,165.0,-11.0,47.0,-1.0,1
-191.0,31.0,165.0,-12.0,47.0,-1.0,1
-194.0,30.0,164.0,-13.0,49.0,-1.0,1
-191.0,29.0,166.0,-13.0,48.0,-1.0,1
-192.0,27.0,163.0,-14.0,49.0,-1.0,1
-192.0,29.0,162.0,-14.0,50.0,-1.0,1
-191.0,26.0,166.0,-13.0,51.0,-1.0,1
-189.0,32.0,163.0,-11.0,53.0,0.0,1
-193.0,29.0,165.0,-11.0,55.0,0.0,1
-192.0,30.0,167.0,-10.0,55.0,1.0,1
-191.0,33.0,163.0,-12.0,54.0,1.0,1
-191.0,32.0,163.0,-14.0,52.0,0.0,1
-192.0,33.0,166.0,-17.0,50.0,-1.0,1
-191.0,32.0,162.0,-21.0,50.0,-1.0,1
-192.0,34.0,159.0,-21.0,50.0,0.0,1
-190.0,30.0,160.0,-22.0,49.0,-1.0,1
-189.0,30.0,164.0,-23.0,49.0,-1.0,1
-190.0,27.0,163.0,-21.0,51.0,-1.0,1
-191.0,29.0,162.0,-18.0,52.0,-1.0,1
-191.0,32.0,165.0,-17.0,54.0,-1.0,1
-188.0,30.0,166.0,-14.0,56.0,0.0,1
-189.0,28.0,165.0,-10.0,55.0,-1.0,1
-192.0,30.0,161.0,-5.0,56.0,-1.0,1
-189.0,30.0,166.0,-3.0,57.0,-2.0,1
-190.0,32.0,165.0,-2.0,56.0,-3.0,1
-189.0,32.0,164.0,0.0,57.0,-2.0,1
-191.0,31.0,161.0,0.0,56.0,-2.0,1
-190.0,32.0,167.0,-4.0,55.0,-1.0,1
-188.0,29.0,166.0,-7.0,52.0,-1.0,1
-181.0,37.0,161.0,-10.0,50.0,-1.0,1
-191.0,31.0,163.0,-11.0,49.0,-1.0,1
-194.0,35.0,162.0,-10.0,47.0,-2.0,1
-191.0,30.0,160.0,-9.0,47.0,-2.0,1
-191.0,31.0,163.0,-9.0,47.0,-4.0,1
-190.0,31.0,163.0,-9.0,47.0,-6.0,1
-191.0,30.0,164.0,-10.0,47.0,-5.0,1
-192.0,33.0,165.0,-11.0,49.0,-6.0,1
-190.0,35.0,162.0,-14.0,51.0,-6.0,1
-191.0,33.0,164.0,-17.0,52.0,-4.0,1
-190.0,31.0,164.0,-19.0,53.0,-6.0,1
-190.0,33.0,162.0,-22.0,54.0,-5.0,1
-191.0,32.0,165.0,-22.0,57.0,-5.0,1
-193.0,32.0,164.0,-24.0,58.0,-5.0,1
-191.0,31.0,162.0,-21.0,60.0,-7.0,1
-194.0,33.0,165.0,-21.0,64.0,-8.0,1
-190.0,28.0,167.0,-21.0,68.0,-12.0,1
-190.0,29.0,165.0,-23.0,71.0,-12.0,1
-189.0,28.0,164.0,-29.0,73.0,-13.0,1
-189.0,29.0,166.0,-31.0,72.0,-16.0,1
-189.0,32.0,165.0,-27.0,69.0,-17.0,1
-189.0,30.0,160.0,-19.0,69.0,-17.0,1
-186.0,36.0,155.0,-8.0,72.0,-15.0,1
-189.0,31.0,163.0,4.0,74.0,-13.0,1
-192.0,31.0,161.0,14.0,78.0,-11.0,1
-192.0,33.0,160.0,20.0,78.0,-10.0,1
-192.0,29.0,161.0,19.0,78.0,-9.0,1
-192.0,32.0,159.0,13.0,73.0,-9.0,1
-193.0,30.0,160.0,5.0,69.0,-8.0,1
-192.0,30.0,167.0,-1.0,63.0,-9.0,1
-191.0,28.0,163.0,-8.0,58.0,-11.0,1
-193.0,31.0,164.0,-11.0,56.0,-13.0,1
-193.0,31.0,168.0,-15.0,53.0,-15.0,1
-191.0,31.0,168.0,-21.0,51.0,-16.0,1
-192.0,29.0,170.0,-25.0,52.0,-16.0,1
-191.0,28.0,170.0,-28.0,55.0,-15.0,1
-188.0,28.0,167.0,-26.0,58.0,-13.0,1
-188.0,26.0,166.0,-19.0,62.0,-12.0,1
-190.0,29.0,165.0,-14.0,65.0,-9.0,1
-189.0,28.0,162.0,-12.0,65.0,-8.0,1
-191.0,33.0,164.0,-12.0,66.0,-7.0,1
-191.0,30.0,163.0,-13.0,65.0,-6.0,1
-190.0,29.0,164.0,-18.0,64.0,-3.0,1
-191.0,32.0,162.0,-22.0,66.0,-2.0,1
-190.0,32.0,158.0,-25.0,66.0,2.0,1
-190.0,34.0,163.0,-26.0,66.0,3.0,1
-191.0,33.0,165.0,-28.0,67.0,4.0,1
-191.0,33.0,165.0,-31.0,66.0,7.0,1
-188.0,29.0,162.0,-35.0,68.0,7.0,1
-189.0,29.0,160.0,-37.0,66.0,7.0,1
-190.0,31.0,164.0,-37.0,67.0,8.0,1
-190.0,31.0,165.0,-37.0,66.0,7.0,1
-192.0,29.0,167.0,-36.0,65.0,6.0,1
-190.0,33.0,163.0,-35.0,66.0,4.0,1
-192.0,31.0,165.0,-33.0,64.0,3.0,1
-191.0,31.0,162.0,-30.0,61.0,2.0,1
-190.0,29.0,163.0,-28.0,60.0,1.0,1
-193.0,30.0,165.0,-27.0,60.0,0.0,1
-191.0,33.0,165.0,-27.0,59.0,-1.0,1
-191.0,31.0,163.0,-27.0,58.0,-1.0,1
-191.0,29.0,164.0,-25.0,59.0,-3.0,1
-192.0,31.0,167.0,-24.0,61.0,-4.0,1
-189.0,33.0,162.0,-24.0,61.0,-5.0,1
-190.0,31.0,165.0,-23.0,63.0,-5.0,1
-189.0,29.0,160.0,-21.0,63.0,-4.0,1
-185.0,31.0,159.0,-19.0,62.0,-3.0,1
-190.0,29.0,163.0,-16.0,62.0,-6.0,1
-190.0,30.0,161.0,-13.0,63.0,-6.0,1
-189.0,29.0,168.0,-10.0,62.0,-7.0,1
-189.0,30.0,166.0,-7.0,60.0,-7.0,1
-187.0,29.0,167.0,-4.0,60.0,-7.0,1
-189.0,29.0,164.0,-2.0,60.0,-6.0,1
-191.0,28.0,166.0,-2.0,59.0,-7.0,1
-189.0,27.0,162.0,-2.0,58.0,-7.0,1
-191.0,27.0,164.0,0.0,56.0,-7.0,1
-189.0,27.0,162.0,-1.0,58.0,-7.0,1
-190.0,30.0,167.0,1.0,57.0,-6.0,1
-190.0,34.0,165.0,1.0,57.0,-3.0,1
-190.0,31.0,165.0,-1.0,58.0,-2.0,1
-191.0,32.0,161.0,-2.0,58.0,-1.0,1
-192.0,32.0,165.0,-5.0,57.0,0.0,1
-190.0,28.0,162.0,-9.0,56.0,2.0,1
-191.0,31.0,165.0,-13.0,55.0,1.0,1
-190.0,29.0,163.0,-13.0,53.0,3.0,1
-190.0,27.0,161.0,-13.0,53.0,1.0,1
-192.0,30.0,164.0,-11.0,53.0,1.0,1
-192.0,28.0,163.0,-9.0,54.0,0.0,1
-192.0,21.0,160.0,-6.0,56.0,-1.0,1
-192.0,30.0,166.0,-3.0,57.0,0.0,1
-190.0,27.0,162.0,-5.0,56.0,1.0,1
-192.0,32.0,162.0,-8.0,57.0,0.0,1
-190.0,29.0,165.0,-11.0,56.0,0.0,1
-188.0,29.0,164.0,-15.0,54.0,4.0,1
-191.0,29.0,166.0,-16.0,54.0,3.0,1
-188.0,27.0,164.0,-17.0,54.0,2.0,1
-190.0,24.0,167.0,-18.0,56.0,2.0,1
-189.0,31.0,166.0,-19.0,56.0,3.0,1
-190.0,30.0,163.0,-19.0,57.0,2.0,1
-191.0,30.0,165.0,-19.0,58.0,1.0,1
-191.0,31.0,165.0,-18.0,59.0,4.0,1
-189.0,28.0,166.0,-17.0,62.0,5.0,1
-188.0,30.0,162.0,-16.0,64.0,4.0,1
-189.0,32.0,164.0,-18.0,63.0,4.0,1
-189.0,30.0,166.0,-20.0,63.0,5.0,1
-190.0,32.0,163.0,-20.0,65.0,5.0,1
-192.0,32.0,166.0,-20.0,64.0,4.0,1
-190.0,31.0,165.0,-22.0,64.0,3.0,1
-192.0,32.0,166.0,-20.0,63.0,4.0,1
-189.0,28.0,163.0,-18.0,64.0,2.0,1
-187.0,33.0,166.0,-17.0,62.0,2.0,1
-192.0,30.0,165.0,-15.0,64.0,2.0,1
-190.0,32.0,164.0,-14.0,65.0,3.0,1
-191.0,30.0,167.0,-13.0,65.0,3.0,1
-191.0,30.0,164.0,-13.0,67.0,3.0,1
-189.0,29.0,163.0,-11.0,68.0,3.0,1
-188.0,31.0,166.0,-12.0,68.0,3.0,1
-192.0,30.0,162.0,-10.0,68.0,2.0,1
-189.0,33.0,163.0,-8.0,68.0,1.0,1
-191.0,30.0,168.0,-5.0,68.0,-1.0,1
-190.0,32.0,166.0,-1.0,67.0,-2.0,1
-190.0,32.0,166.0,2.0,69.0,-3.0,1
-190.0,33.0,167.0,4.0,69.0,-3.0,1
-191.0,33.0,161.0,4.0,69.0,-5.0,1
-191.0,31.0,167.0,2.0,66.0,-4.0,1
-189.0,30.0,166.0,2.0,63.0,-4.0,1
-189.0,30.0,163.0,-1.0,62.0,-5.0,1
-193.0,33.0,164.0,-5.0,61.0,-6.0,1
-190.0,30.0,167.0,-8.0,60.0,-5.0,1
-189.0,33.0,165.0,-14.0,60.0,-4.0,1
-190.0,32.0,166.0,-16.0,58.0,-3.0,1
-190.0,29.0,167.0,-15.0,58.0,-3.0,1
-188.0,29.0,166.0,-15.0,58.0,-3.0,1
-191.0,30.0,165.0,-12.0,60.0,-2.0,1
-189.0,29.0,164.0,-9.0,61.0,-3.0,1
-192.0,29.0,162.0,-6.0,61.0,-3.0,1
-192.0,31.0,168.0,-6.0,64.0,-2.0,1
-190.0,31.0,165.0,-8.0,64.0,-2.0,1
-189.0,27.0,163.0,-9.0,63.0,-1.0,1
-191.0,30.0,166.0,-9.0,64.0,-1.0,1
-192.0,28.0,164.0,-7.0,64.0,-2.0,1
-189.0,27.0,163.0,-8.0,66.0,-3.0,1
-189.0,28.0,162.0,-5.0,66.0,-3.0,1
-191.0,30.0,165.0,-2.0,64.0,-1.0,1
-192.0,29.0,165.0,2.0,65.0,-1.0,1
-192.0,30.0,164.0,5.0,65.0,0.0,1
-190.0,26.0,163.0,6.0,64.0,0.0,1
-188.0,29.0,161.0,8.0,64.0,-2.0,1
-190.0,31.0,163.0,7.0,64.0,-2.0,1
-192.0,31.0,163.0,8.0,63.0,-3.0,1
-193.0,32.0,164.0,11.0,62.0,-5.0,1
-194.0,31.0,163.0,15.0,61.0,-5.0,1
-190.0,30.0,162.0,20.0,60.0,-4.0,1
-190.0,31.0,162.0,23.0,61.0,-3.0,1
-189.0,30.0,161.0,25.0,59.0,-3.0,1
-189.0,28.0,164.0,25.0,59.0,-1.0,1
-189.0,29.0,164.0,25.0,59.0,-1.0,1
-191.0,29.0,162.0,25.0,58.0,-1.0,1
-189.0,28.0,162.0,25.0,58.0,-4.0,1
-192.0,31.0,165.0,24.0,57.0,-3.0,1
-192.0,30.0,164.0,20.0,58.0,-4.0,1
-189.0,29.0,165.0,15.0,59.0,-6.0,1
-191.0,29.0,167.0,11.0,59.0,-7.0,1
-189.0,26.0,163.0,12.0,60.0,-7.0,1
-191.0,27.0,165.0,17.0,63.0,-7.0,1
-191.0,30.0,164.0,22.0,66.0,-6.0,1
-189.0,29.0,162.0,25.0,64.0,-4.0,1
-190.0,31.0,162.0,27.0,64.0,-3.0,1
-191.0,34.0,165.0,22.0,61.0,-1.0,1
-190.0,32.0,164.0,13.0,57.0,0.0,1
-192.0,32.0,161.0,5.0,54.0,1.0,1
-192.0,34.0,165.0,-3.0,52.0,2.0,1
-190.0,33.0,163.0,-8.0,50.0,3.0,1
-191.0,33.0,166.0,-12.0,51.0,4.0,1
-192.0,33.0,166.0,-16.0,51.0,4.0,1
-190.0,32.0,169.0,-17.0,53.0,6.0,1
-196.0,33.0,167.0,-15.0,55.0,5.0,1
-188.0,31.0,168.0,-14.0,57.0,4.0,1
-189.0,30.0,166.0,-14.0,57.0,4.0,1
-192.0,32.0,165.0,-11.0,57.0,3.0,1
-190.0,28.0,162.0,-10.0,56.0,4.0,1
-189.0,31.0,165.0,-6.0,59.0,4.0,1
-190.0,28.0,166.0,-2.0,58.0,5.0,1
-189.0,33.0,164.0,2.0,59.0,4.0,1
-191.0,33.0,167.0,5.0,59.0,3.0,1
-187.0,32.0,166.0,7.0,58.0,4.0,1
-191.0,34.0,168.0,9.0,57.0,3.0,1
-189.0,31.0,164.0,12.0,58.0,2.0,1
-191.0,34.0,165.0,11.0,58.0,1.0,1
-189.0,34.0,165.0,10.0,59.0,0.0,1
-189.0,31.0,168.0,9.0,59.0,-1.0,1
-190.0,33.0,167.0,8.0,57.0,-2.0,1
-188.0,31.0,165.0,4.0,57.0,-1.0,1
-188.0,31.0,165.0,2.0,59.0,-4.0,1
-190.0,34.0,164.0,0.0,58.0,-4.0,1
-189.0,34.0,167.0,-3.0,59.0,-6.0,1
-189.0,33.0,167.0,-5.0,58.0,-8.0,1
-188.0,36.0,162.0,-8.0,59.0,-9.0,1
-192.0,35.0,166.0,-9.0,58.0,-8.0,1
-190.0,33.0,162.0,-9.0,59.0,-9.0,1
-189.0,33.0,164.0,-8.0,60.0,-9.0,1
-188.0,31.0,164.0,-7.0,61.0,-8.0,1
-191.0,32.0,163.0,-5.0,61.0,-8.0,1
-188.0,33.0,165.0,-4.0,61.0,-8.0,1
-190.0,31.0,166.0,-5.0,63.0,-7.0,1
-191.0,34.0,162.0,-7.0,62.0,-5.0,1
-189.0,36.0,164.0,-9.0,64.0,-3.0,1
-188.0,32.0,165.0,-11.0,65.0,0.0,1
-190.0,33.0,166.0,-13.0,61.0,1.0,1
-187.0,31.0,166.0,-14.0,60.0,3.0,1
-190.0,33.0,167.0,-15.0,59.0,3.0,1
-188.0,30.0,162.0,-12.0,59.0,3.0,1
-189.0,30.0,166.0,-8.0,59.0,2.0,1
-189.0,31.0,169.0,-7.0,60.0,2.0,1
-191.0,32.0,165.0,-3.0,61.0,1.0,1
-189.0,32.0,162.0,-2.0,62.0,-1.0,1
-190.0,34.0,164.0,-3.0,63.0,-1.0,1
-189.0,28.0,162.0,-4.0,63.0,0.0,1
-189.0,30.0,164.0,-5.0,61.0,0.0,1
-189.0,25.0,163.0,-4.0,62.0,0.0,1
-190.0,33.0,166.0,-4.0,63.0,2.0,1
-190.0,32.0,165.0,-5.0,62.0,0.0,1
-191.0,33.0,166.0,-7.0,61.0,-1.0,1
-189.0,30.0,167.0,-8.0,61.0,-1.0,1
-189.0,32.0,166.0,-11.0,62.0,-2.0,1
-191.0,31.0,165.0,-12.0,63.0,0.0,1
-190.0,31.0,168.0,-13.0,64.0,-1.0,1
-191.0,34.0,166.0,-14.0,64.0,-1.0,1
-187.0,32.0,166.0,-12.0,65.0,0.0,1
-186.0,32.0,163.0,-10.0,70.0,1.0,1
-192.0,33.0,167.0,-11.0,69.0,1.0,1
-193.0,33.0,164.0,-10.0,70.0,0.0,1
-190.0,33.0,166.0,-8.0,71.0,1.0,1
-188.0,33.0,164.0,-7.0,70.0,0.0,1
-188.0,29.0,163.0,-5.0,71.0,0.0,1
-191.0,33.0,164.0,-4.0,71.0,-2.0,1
-189.0,34.0,162.0,-5.0,70.0,-2.0,1
-189.0,32.0,165.0,-5.0,73.0,-3.0,1
-187.0,30.0,168.0,-6.0,74.0,-3.0,1
-185.0,30.0,166.0,-4.0,74.0,-5.0,1
-187.0,28.0,168.0,-1.0,76.0,-4.0,1
-191.0,32.0,170.0,3.0,76.0,-4.0,1
-188.0,32.0,167.0,7.0,78.0,-5.0,1
-191.0,32.0,167.0,10.0,78.0,-5.0,1
-190.0,29.0,166.0,14.0,78.0,-3.0,1
-190.0,31.0,167.0,16.0,79.0,-1.0,1
-191.0,31.0,167.0,18.0,79.0,1.0,1
-188.0,32.0,165.0,21.0,81.0,4.0,1
-190.0,34.0,164.0,23.0,81.0,5.0,1
-191.0,34.0,164.0,24.0,81.0,5.0,1
-189.0,33.0,164.0,29.0,81.0,7.0,1
-189.0,32.0,159.0,34.0,82.0,8.0,1
-189.0,32.0,162.0,37.0,79.0,8.0,1
-188.0,34.0,166.0,34.0,76.0,7.0,1
-188.0,34.0,164.0,28.0,72.0,8.0,1
-188.0,35.0,162.0,19.0,69.0,8.0,1
-189.0,34.0,165.0,12.0,65.0,8.0,1
-191.0,36.0,166.0,3.0,64.0,8.0,1
-193.0,34.0,166.0,-4.0,62.0,8.0,1
-190.0,37.0,159.0,-8.0,60.0,6.0,1
-191.0,35.0,161.0,-17.0,58.0,3.0,1
-191.0,31.0,167.0,-28.0,55.0,-1.0,1
-192.0,34.0,162.0,-35.0,53.0,-4.0,1
-190.0,36.0,166.0,-35.0,54.0,-4.0,1
-191.0,29.0,165.0,-30.0,54.0,-4.0,1
-192.0,28.0,163.0,-19.0,56.0,-6.0,1
-192.0,33.0,165.0,-8.0,58.0,-4.0,1
-189.0,27.0,167.0,7.0,58.0,-4.0,1
-192.0,31.0,164.0,18.0,60.0,-1.0,1
-189.0,29.0,167.0,26.0,61.0,-1.0,1
-187.0,30.0,163.0,34.0,63.0,-2.0,1
-187.0,28.0,166.0,37.0,63.0,-3.0,1
-189.0,31.0,167.0,40.0,64.0,-1.0,1
-186.0,33.0,164.0,43.0,64.0,-1.0,1
-189.0,31.0,164.0,46.0,63.0,2.0,1
-189.0,33.0,163.0,45.0,65.0,2.0,1
-188.0,33.0,166.0,42.0,65.0,2.0,1
-186.0,34.0,163.0,39.0,64.0,4.0,1
-190.0,36.0,167.0,35.0,64.0,1.0,1
-191.0,35.0,167.0,30.0,64.0,-2.0,1
-192.0,38.0,166.0,28.0,62.0,-5.0,1
-192.0,36.0,166.0,27.0,60.0,-6.0,1
-189.0,36.0,169.0,25.0,59.0,-6.0,1
-193.0,37.0,167.0,22.0,59.0,-7.0,1
-190.0,32.0,163.0,21.0,60.0,-6.0,1
-189.0,41.0,166.0,17.0,62.0,-6.0,1
-191.0,33.0,163.0,14.0,62.0,-7.0,1
-187.0,31.0,168.0,13.0,63.0,-5.0,1
-187.0,31.0,160.0,11.0,66.0,-5.0,1
-189.0,31.0,164.0,10.0,69.0,-4.0,1
-186.0,32.0,163.0,9.0,72.0,-4.0,1
-188.0,33.0,166.0,7.0,74.0,-3.0,1
-191.0,32.0,169.0,5.0,76.0,-4.0,1
-186.0,27.0,167.0,5.0,79.0,-3.0,1
-192.0,31.0,166.0,12.0,84.0,-1.0,1
-187.0,30.0,165.0,19.0,87.0,-2.0,1
-192.0,30.0,164.0,27.0,86.0,-2.0,1
-189.0,31.0,161.0,32.0,85.0,-3.0,1
-188.0,34.0,165.0,36.0,82.0,0.0,1
-189.0,31.0,163.0,36.0,76.0,1.0,1
-190.0,32.0,168.0,34.0,70.0,0.0,1
-190.0,32.0,165.0,32.0,65.0,2.0,1
-188.0,34.0,166.0,27.0,61.0,3.0,1
-188.0,31.0,165.0,18.0,59.0,4.0,1
-189.0,36.0,164.0,6.0,58.0,5.0,1
-187.0,36.0,169.0,-4.0,56.0,4.0,1
-189.0,35.0,170.0,-11.0,58.0,4.0,1
-186.0,36.0,169.0,-15.0,59.0,2.0,1
-189.0,33.0,168.0,-18.0,59.0,1.0,1
-188.0,36.0,167.0,-17.0,62.0,0.0,1
-189.0,34.0,168.0,-16.0,63.0,0.0,1
-191.0,36.0,169.0,-15.0,64.0,-3.0,1
-188.0,30.0,168.0,-11.0,68.0,-2.0,1
-189.0,33.0,168.0,-8.0,69.0,-3.0,1
-190.0,35.0,168.0,-4.0,69.0,-3.0,1
-188.0,34.0,167.0,1.0,72.0,-4.0,1
-191.0,34.0,166.0,4.0,74.0,-6.0,1
-190.0,35.0,168.0,7.0,76.0,-7.0,1
-189.0,35.0,163.0,9.0,78.0,-7.0,1
-187.0,36.0,163.0,11.0,78.0,-7.0,1
-190.0,37.0,163.0,13.0,79.0,-7.0,1
-190.0,38.0,166.0,13.0,78.0,-7.0,1
-191.0,39.0,164.0,13.0,77.0,-8.0,1
-190.0,39.0,167.0,12.0,75.0,-6.0,1
-190.0,37.0,162.0,9.0,73.0,-8.0,1
-190.0,40.0,167.0,6.0,72.0,-7.0,1
-189.0,36.0,168.0,1.0,71.0,-7.0,1
-190.0,42.0,162.0,-3.0,69.0,-8.0,1
-189.0,33.0,162.0,-6.0,70.0,-9.0,1
-186.0,36.0,164.0,-9.0,69.0,-9.0,1
-189.0,35.0,166.0,-14.0,69.0,-7.0,1
-189.0,38.0,164.0,-18.0,69.0,-9.0,1
-192.0,39.0,165.0,-20.0,67.0,-8.0,1
-189.0,39.0,166.0,-23.0,69.0,-9.0,1
-191.0,38.0,165.0,-25.0,71.0,-9.0,1
-189.0,36.0,162.0,-24.0,72.0,-10.0,1
-188.0,37.0,163.0,-26.0,73.0,-6.0,1
-189.0,38.0,161.0,-28.0,72.0,-4.0,1
-187.0,37.0,165.0,-30.0,74.0,-3.0,1
-188.0,38.0,167.0,-32.0,73.0,0.0,1
-188.0,37.0,166.0,-33.0,73.0,1.0,1
-189.0,35.0,165.0,-33.0,74.0,-1.0,1
-188.0,32.0,161.0,-34.0,73.0,-1.0,1
-189.0,34.0,166.0,-31.0,74.0,0.0,1
-187.0,32.0,164.0,-31.0,74.0,0.0,1
-190.0,37.0,166.0,-29.0,73.0,0.0,1
-188.0,36.0,165.0,-28.0,74.0,-1.0,1
-190.0,33.0,166.0,-26.0,75.0,-1.0,1
-192.0,33.0,167.0,-26.0,75.0,1.0,1
-190.0,35.0,163.0,-25.0,75.0,2.0,1
-190.0,40.0,173.0,-29.0,75.0,2.0,1
-189.0,34.0,164.0,-33.0,73.0,0.0,1
-191.0,32.0,167.0,-39.0,72.0,1.0,1
-191.0,35.0,166.0,-43.0,73.0,-1.0,1
-191.0,37.0,165.0,-49.0,69.0,-1.0,1
-190.0,32.0,167.0,-54.0,70.0,-1.0,1
-188.0,33.0,164.0,-56.0,75.0,0.0,1
-191.0,31.0,168.0,-55.0,77.0,-2.0,1
-188.0,31.0,166.0,-54.0,79.0,-2.0,1
-189.0,34.0,164.0,-52.0,82.0,-2.0,1
-191.0,33.0,168.0,-51.0,84.0,-1.0,1
-189.0,33.0,168.0,-49.0,84.0,-3.0,1
-190.0,35.0,163.0,-52.0,82.0,-3.0,1
-191.0,35.0,165.0,-53.0,83.0,-4.0,1
-189.0,34.0,167.0,-53.0,84.0,-4.0,1
-190.0,31.0,164.0,-53.0,86.0,-4.0,1
-192.0,34.0,166.0,-48.0,87.0,-5.0,1
-191.0,33.0,168.0,-48.0,85.0,-6.0,1
-191.0,33.0,165.0,-48.0,86.0,-6.0,1
-189.0,35.0,166.0,-46.0,88.0,-5.0,1
-191.0,32.0,166.0,-40.0,89.0,-4.0,1
-191.0,33.0,166.0,-37.0,90.0,-5.0,1
-196.0,29.0,162.0,-34.0,93.0,-4.0,1
-187.0,29.0,163.0,-30.0,96.0,-4.0,1
-190.0,33.0,164.0,-25.0,97.0,-4.0,1
-189.0,33.0,168.0,-21.0,99.0,-3.0,1
-188.0,37.0,164.0,-19.0,100.0,0.0,1
-190.0,31.0,163.0,-18.0,99.0,0.0,1
-187.0,34.0,166.0,-19.0,98.0,0.0,1
-188.0,33.0,166.0,-21.0,96.0,-1.0,1
-191.0,35.0,162.0,-26.0,93.0,-3.0,1
-187.0,35.0,165.0,-24.0,95.0,-3.0,1
-190.0,33.0,165.0,-21.0,97.0,-4.0,1
-190.0,34.0,163.0,-15.0,99.0,-5.0,1
-190.0,34.0,160.0,-13.0,98.0,-4.0,1
-190.0,35.0,165.0,-11.0,99.0,-3.0,1
-190.0,35.0,165.0,-11.0,100.0,-3.0,1
-189.0,35.0,159.0,-15.0,101.0,-3.0,1
-188.0,35.0,162.0,-18.0,100.0,-2.0,1
-190.0,34.0,162.0,-23.0,100.0,0.0,1
-190.0,34.0,163.0,-24.0,100.0,0.0,1
-186.0,35.0,162.0,-23.0,99.0,-1.0,1
-190.0,35.0,162.0,-24.0,101.0,-4.0,1
-198.0,30.0,164.0,-28.0,102.0,-3.0,1
-193.0,34.0,166.0,-29.0,102.0,-4.0,1
-191.0,32.0,165.0,-25.0,99.0,-7.0,1
-191.0,32.0,166.0,-23.0,99.0,-10.0,1
-191.0,35.0,165.0,-21.0,98.0,-12.0,1
-194.0,32.0,160.0,-21.0,97.0,-11.0,1
-190.0,33.0,162.0,-26.0,98.0,-11.0,1
-191.0,33.0,167.0,-30.0,96.0,-10.0,1
-189.0,31.0,164.0,-34.0,95.0,-8.0,1
-188.0,31.0,165.0,-30.0,97.0,-4.0,1
-190.0,30.0,165.0,-27.0,96.0,-5.0,1
-190.0,28.0,166.0,-22.0,96.0,-4.0,1
-192.0,34.0,165.0,-20.0,96.0,-5.0,1
-189.0,35.0,162.0,-16.0,97.0,-4.0,1
-190.0,34.0,168.0,-15.0,97.0,-4.0,1
-191.0,32.0,165.0,-16.0,96.0,-4.0,1
-191.0,31.0,161.0,-20.0,93.0,-5.0,1
-190.0,31.0,165.0,-23.0,93.0,-8.0,1
-192.0,30.0,164.0,-20.0,94.0,-9.0,1
-190.0,30.0,162.0,-19.0,93.0,-8.0,1
-193.0,32.0,158.0,-17.0,92.0,-7.0,1
-193.0,34.0,169.0,-4.0,99.0,-1.0,1
-193.0,33.0,161.0,15.0,103.0,1.0,1
-192.0,31.0,161.0,26.0,104.0,3.0,1
-191.0,34.0,161.0,28.0,104.0,4.0,1
-192.0,36.0,159.0,24.0,101.0,3.0,1
-191.0,33.0,162.0,17.0,95.0,1.0,1
-193.0,36.0,161.0,7.0,90.0,-1.0,1
-192.0,33.0,161.0,-4.0,87.0,-1.0,1
-193.0,34.0,162.0,-15.0,83.0,-4.0,1
-192.0,35.0,165.0,-29.0,83.0,-5.0,1
-192.0,35.0,167.0,-41.0,83.0,-8.0,1
-192.0,35.0,165.0,-53.0,83.0,-9.0,1
-192.0,30.0,168.0,-59.0,87.0,-9.0,1
-190.0,28.0,164.0,-59.0,90.0,-9.0,1
-189.0,28.0,164.0,-51.0,93.0,-6.0,1
-190.0,28.0,163.0,-42.0,98.0,-2.0,1
-194.0,31.0,163.0,-32.0,97.0,-3.0,1
-193.0,38.0,167.0,-26.0,98.0,-11.0,1
-192.0,38.0,162.0,-35.0,100.0,-14.0,1
-185.0,30.0,162.0,-48.0,103.0,-4.0,1
-191.0,31.0,161.0,-49.0,103.0,2.0,1
-191.0,33.0,162.0,-31.0,100.0,0.0,1
-192.0,33.0,159.0,-21.0,104.0,-6.0,1
-191.0,34.0,154.0,-14.0,108.0,-8.0,1
-192.0,31.0,162.0,-11.0,111.0,-5.0,1
-191.0,31.0,162.0,-10.0,108.0,-2.0,1
-191.0,31.0,159.0,-9.0,103.0,-3.0,1
-191.0,33.0,163.0,-12.0,98.0,-4.0,1
-191.0,33.0,162.0,-18.0,98.0,0.0,1
-192.0,33.0,163.0,-22.0,95.0,0.0,1
-195.0,35.0,162.0,-23.0,89.0,-1.0,1
-192.0,37.0,159.0,-18.0,87.0,3.0,1
-189.0,33.0,160.0,-17.0,88.0,8.0,1
-188.0,31.0,161.0,-14.0,89.0,13.0,1
-192.0,30.0,163.0,-7.0,91.0,14.0,1
-191.0,31.0,163.0,3.0,94.0,8.0,1
-189.0,35.0,159.0,10.0,98.0,4.0,1
-190.0,35.0,158.0,10.0,100.0,5.0,1
-187.0,30.0,161.0,8.0,99.0,7.0,1
-192.0,32.0,162.0,5.0,95.0,7.0,1
-191.0,34.0,163.0,6.0,92.0,5.0,1
-190.0,34.0,160.0,0.0,91.0,6.0,1
-189.0,35.0,160.0,-8.0,87.0,6.0,1
-190.0,32.0,162.0,-15.0,83.0,8.0,1
-192.0,34.0,164.0,-18.0,79.0,8.0,1
-192.0,34.0,158.0,-19.0,76.0,4.0,1
-191.0,39.0,165.0,-23.0,78.0,3.0,1
-188.0,36.0,165.0,-30.0,80.0,7.0,1
-191.0,32.0,167.0,-36.0,79.0,6.0,1
-194.0,34.0,160.0,-34.0,81.0,-2.0,1
-193.0,35.0,160.0,-29.0,84.0,-6.0,1
-193.0,33.0,161.0,-27.0,88.0,-6.0,1
-195.0,34.0,162.0,-28.0,88.0,-4.0,1
-193.0,31.0,159.0,-27.0,85.0,-3.0,1
-190.0,30.0,160.0,-24.0,85.0,-1.0,1
-191.0,29.0,162.0,-26.0,88.0,1.0,1
-193.0,33.0,161.0,-29.0,85.0,2.0,1
-192.0,32.0,160.0,-31.0,83.0,1.0,1
-193.0,32.0,161.0,-32.0,83.0,1.0,1
-192.0,31.0,160.0,-31.0,86.0,0.0,1
-190.0,31.0,165.0,-27.0,89.0,0.0,1
-191.0,31.0,163.0,-20.0,89.0,0.0,1
-191.0,31.0,163.0,-12.0,89.0,-1.0,1
-194.0,32.0,160.0,-8.0,88.0,0.0,1
-193.0,35.0,157.0,-6.0,87.0,1.0,1
-193.0,34.0,161.0,-6.0,83.0,1.0,1
-191.0,32.0,161.0,-11.0,79.0,1.0,1
-195.0,34.0,162.0,-12.0,77.0,1.0,1
-191.0,29.0,163.0,-16.0,75.0,0.0,1
-192.0,32.0,159.0,-19.0,74.0,-2.0,1
-191.0,27.0,165.0,-23.0,73.0,-4.0,1
-191.0,29.0,164.0,-25.0,74.0,-4.0,1
-193.0,29.0,165.0,-30.0,74.0,-5.0,1
-192.0,30.0,161.0,-31.0,72.0,-7.0,1
-193.0,31.0,166.0,-27.0,73.0,-8.0,1
-191.0,35.0,163.0,-19.0,79.0,-4.0,1
-191.0,30.0,158.0,-17.0,82.0,2.0,1
-193.0,29.0,162.0,-15.0,79.0,2.0,1
-196.0,32.0,159.0,-7.0,78.0,0.0,1
-192.0,32.0,160.0,3.0,79.0,-2.0,1
-193.0,33.0,158.0,6.0,81.0,-1.0,1
-192.0,36.0,162.0,4.0,82.0,2.0,1
-188.0,33.0,160.0,4.0,82.0,5.0,1
-189.0,35.0,158.0,2.0,79.0,8.0,1
-190.0,34.0,160.0,-1.0,78.0,4.0,1
-192.0,31.0,158.0,-6.0,77.0,2.0,1
-192.0,35.0,160.0,-8.0,79.0,1.0,1
-193.0,33.0,159.0,-9.0,81.0,2.0,1
-193.0,36.0,158.0,-10.0,84.0,1.0,1
-193.0,33.0,165.0,-10.0,84.0,2.0,1
-193.0,33.0,159.0,-11.0,84.0,1.0,1
-192.0,32.0,163.0,-12.0,82.0,2.0,1
-192.0,34.0,161.0,-12.0,83.0,2.0,1
-193.0,34.0,161.0,-12.0,80.0,2.0,1
-191.0,32.0,162.0,-11.0,76.0,2.0,1
-192.0,34.0,156.0,-11.0,72.0,0.0,1
-192.0,33.0,158.0,-9.0,71.0,2.0,1
-192.0,32.0,159.0,-8.0,71.0,1.0,1
-191.0,33.0,160.0,-10.0,69.0,0.0,1
-194.0,32.0,162.0,-17.0,62.0,-2.0,1
-193.0,36.0,164.0,-16.0,58.0,-5.0,1
-190.0,36.0,161.0,-15.0,61.0,-4.0,1
-193.0,38.0,158.0,-18.0,62.0,-4.0,1
-190.0,35.0,161.0,-21.0,60.0,-3.0,1
-190.0,33.0,160.0,-19.0,59.0,-6.0,1
-192.0,36.0,159.0,-18.0,61.0,-6.0,1
-192.0,33.0,161.0,-17.0,64.0,-7.0,1
-191.0,34.0,163.0,-16.0,66.0,-7.0,1
-190.0,31.0,159.0,-16.0,67.0,-6.0,1
-194.0,33.0,160.0,-15.0,68.0,-5.0,1
-195.0,25.0,161.0,-15.0,68.0,-5.0,1
-193.0,34.0,159.0,-15.0,69.0,-7.0,1
-191.0,33.0,163.0,-15.0,69.0,-3.0,1
-191.0,32.0,163.0,-13.0,69.0,1.0,1
-192.0,33.0,160.0,-11.0,68.0,3.0,1
-192.0,31.0,164.0,-11.0,64.0,1.0,1
-193.0,31.0,161.0,-9.0,63.0,-1.0,1
-191.0,33.0,163.0,-6.0,63.0,-2.0,1
-194.0,34.0,160.0,-5.0,64.0,0.0,1
-190.0,29.0,162.0,-4.0,63.0,-1.0,1
-193.0,40.0,162.0,-6.0,62.0,-1.0,1
-194.0,33.0,161.0,-7.0,63.0,-1.0,1
-192.0,33.0,162.0,-9.0,63.0,-1.0,1
-192.0,31.0,163.0,-10.0,63.0,-5.0,1
-192.0,31.0,160.0,-6.0,62.0,-3.0,1
-191.0,32.0,159.0,1.0,62.0,-4.0,1
-191.0,34.0,158.0,10.0,60.0,-4.0,1
-192.0,32.0,157.0,16.0,61.0,-2.0,1
-194.0,37.0,157.0,17.0,58.0,-3.0,1
-193.0,34.0,160.0,17.0,56.0,-3.0,1
-192.0,35.0,159.0,10.0,55.0,0.0,1
-194.0,30.0,159.0,1.0,51.0,-1.0,1
-194.0,31.0,159.0,-6.0,48.0,-1.0,1
-190.0,35.0,159.0,-11.0,45.0,-2.0,1
-191.0,34.0,160.0,-17.0,43.0,-4.0,1
-191.0,31.0,161.0,-21.0,41.0,-4.0,1
-191.0,32.0,162.0,-28.0,42.0,-6.0,1
-191.0,33.0,165.0,-36.0,44.0,-6.0,1
-192.0,36.0,163.0,-46.0,47.0,-8.0,1
-191.0,33.0,168.0,-51.0,50.0,-8.0,1
-191.0,30.0,168.0,-51.0,54.0,-9.0,1
-190.0,29.0,164.0,-47.0,58.0,-8.0,1
-191.0,31.0,163.0,-36.0,61.0,-8.0,1
-189.0,29.0,160.0,-28.0,62.0,-7.0,1
-191.0,30.0,164.0,-23.0,62.0,-6.0,1
-193.0,32.0,159.0,-22.0,63.0,-2.0,1
-192.0,33.0,164.0,-19.0,63.0,-1.0,1
-192.0,35.0,161.0,-18.0,62.0,1.0,1
-192.0,33.0,157.0,-20.0,62.0,4.0,1
-191.0,34.0,162.0,-24.0,59.0,7.0,1
-191.0,35.0,159.0,-24.0,58.0,6.0,1
-193.0,33.0,164.0,-25.0,54.0,7.0,1
-193.0,33.0,164.0,-25.0,49.0,4.0,1
-192.0,29.0,165.0,-20.0,47.0,0.0,1
-189.0,36.0,160.0,-15.0,46.0,0.0,1
-191.0,34.0,161.0,-12.0,46.0,0.0,1
-195.0,33.0,163.0,-10.0,46.0,1.0,1
-194.0,36.0,159.0,-8.0,47.0,2.0,1
-192.0,30.0,160.0,-5.0,47.0,4.0,1
-192.0,32.0,159.0,-5.0,47.0,5.0,1
-192.0,32.0,162.0,-4.0,49.0,3.0,1
-192.0,36.0,160.0,-3.0,48.0,1.0,1
-192.0,31.0,165.0,-3.0,50.0,1.0,1
-188.0,32.0,162.0,-4.0,54.0,-1.0,1
-188.0,33.0,162.0,-4.0,56.0,-1.0,1
-192.0,34.0,159.0,-5.0,56.0,-4.0,1
-189.0,35.0,162.0,-6.0,58.0,-3.0,1
-192.0,37.0,166.0,-8.0,58.0,-2.0,1
-191.0,32.0,162.0,-10.0,57.0,-4.0,1
-191.0,35.0,162.0,-12.0,55.0,-7.0,1
-192.0,36.0,160.0,-14.0,55.0,-8.0,1
-191.0,36.0,161.0,-16.0,55.0,-9.0,1
-191.0,35.0,162.0,-17.0,54.0,-8.0,1
-190.0,33.0,161.0,-17.0,52.0,-7.0,1
-192.0,36.0,161.0,-17.0,50.0,-7.0,1
-190.0,31.0,165.0,-18.0,49.0,-8.0,1
-191.0,32.0,160.0,-17.0,49.0,-8.0,1
-191.0,34.0,159.0,-16.0,50.0,-9.0,1
-192.0,32.0,167.0,-16.0,51.0,-9.0,1
-192.0,32.0,163.0,-15.0,52.0,-9.0,1
-190.0,34.0,159.0,-13.0,52.0,-6.0,1
-191.0,37.0,161.0,-15.0,52.0,-5.0,1
-192.0,35.0,161.0,-18.0,53.0,-2.0,1
-191.0,36.0,163.0,-22.0,52.0,1.0,1
-192.0,35.0,161.0,-28.0,51.0,0.0,1
-192.0,33.0,163.0,-33.0,46.0,2.0,1
-192.0,36.0,165.0,-38.0,45.0,2.0,1
-191.0,33.0,164.0,-41.0,45.0,1.0,1
-190.0,31.0,165.0,-42.0,50.0,2.0,1
-192.0,34.0,169.0,-40.0,54.0,2.0,1
-192.0,32.0,162.0,-34.0,56.0,4.0,1
-191.0,34.0,166.0,-26.0,58.0,3.0,1
-192.0,30.0,163.0,-19.0,61.0,2.0,1
-192.0,29.0,164.0,-13.0,62.0,5.0,1
-192.0,36.0,160.0,-10.0,63.0,5.0,1
-192.0,30.0,162.0,-6.0,62.0,6.0,1
-188.0,29.0,166.0,-7.0,63.0,5.0,1
-190.0,31.0,163.0,-8.0,60.0,4.0,1
-192.0,32.0,162.0,-11.0,60.0,2.0,1
-190.0,31.0,161.0,-14.0,60.0,2.0,1
-189.0,30.0,164.0,-20.0,62.0,3.0,1
-192.0,29.0,163.0,-23.0,63.0,4.0,1
-192.0,34.0,162.0,-26.0,63.0,3.0,1
-189.0,33.0,162.0,-28.0,65.0,3.0,1
-191.0,34.0,161.0,-29.0,64.0,4.0,1
-191.0,33.0,163.0,-28.0,63.0,2.0,1
-192.0,31.0,167.0,-29.0,62.0,2.0,1
-192.0,30.0,165.0,-29.0,60.0,2.0,1
-192.0,34.0,164.0,-29.0,57.0,0.0,1
-192.0,32.0,164.0,-29.0,55.0,0.0,1
-192.0,35.0,162.0,-31.0,55.0,0.0,1
-192.0,32.0,162.0,-33.0,53.0,-1.0,1
-192.0,32.0,161.0,-37.0,52.0,-4.0,1
-194.0,32.0,164.0,-37.0,50.0,-3.0,1
-192.0,32.0,164.0,-37.0,52.0,-3.0,1
-191.0,30.0,171.0,-36.0,52.0,-5.0,1
-192.0,34.0,166.0,-32.0,54.0,-4.0,1
-190.0,30.0,165.0,-28.0,57.0,-4.0,1
-189.0,27.0,163.0,-23.0,58.0,-3.0,1
-193.0,34.0,166.0,-18.0,58.0,-3.0,1
-190.0,32.0,167.0,-13.0,60.0,-1.0,1
-191.0,34.0,161.0,-10.0,61.0,0.0,1
-192.0,34.0,161.0,-8.0,66.0,5.0,1
-193.0,34.0,164.0,-6.0,67.0,4.0,1
-191.0,31.0,164.0,-1.0,65.0,-1.0,1
-190.0,32.0,161.0,4.0,64.0,-3.0,1
-191.0,30.0,162.0,7.0,66.0,-4.0,1
-192.0,34.0,161.0,9.0,69.0,-4.0,1
-191.0,33.0,164.0,12.0,68.0,-3.0,1
-192.0,32.0,162.0,13.0,66.0,-2.0,1
-193.0,32.0,164.0,11.0,63.0,-1.0,1
-193.0,36.0,161.0,8.0,59.0,-1.0,1
-192.0,33.0,161.0,5.0,56.0,-2.0,1
-193.0,35.0,162.0,7.0,55.0,-4.0,1
-191.0,33.0,160.0,10.0,54.0,-4.0,1
-191.0,35.0,158.0,10.0,52.0,-4.0,1
-189.0,39.0,163.0,9.0,52.0,-4.0,1
-191.0,33.0,163.0,6.0,53.0,-4.0,1
-190.0,34.0,163.0,3.0,54.0,-4.0,1
-190.0,34.0,161.0,3.0,55.0,-2.0,1
-189.0,32.0,161.0,3.0,56.0,-2.0,1
-188.0,36.0,163.0,3.0,56.0,-2.0,1
-191.0,34.0,161.0,4.0,57.0,-3.0,1
-191.0,34.0,163.0,2.0,58.0,-1.0,1
-191.0,31.0,165.0,0.0,58.0,-3.0,1
-190.0,32.0,162.0,-3.0,56.0,-3.0,1
-190.0,31.0,160.0,-5.0,57.0,-2.0,1
-192.0,32.0,159.0,-5.0,56.0,-3.0,1
-193.0,35.0,163.0,-6.0,55.0,-4.0,1
-193.0,36.0,163.0,-8.0,56.0,-2.0,1
-190.0,34.0,166.0,-8.0,57.0,-2.0,1
-187.0,32.0,164.0,-10.0,55.0,-3.0,1
-192.0,32.0,163.0,-11.0,55.0,0.0,1
-190.0,31.0,162.0,-8.0,55.0,0.0,1
-191.0,35.0,164.0,-8.0,57.0,0.0,1
-190.0,34.0,167.0,-7.0,58.0,0.0,1
-192.0,32.0,166.0,-5.0,60.0,0.0,1
-191.0,34.0,162.0,0.0,61.0,-2.0,1
-190.0,32.0,166.0,8.0,60.0,-4.0,1
-191.0,32.0,160.0,16.0,60.0,-2.0,1
-192.0,32.0,164.0,25.0,59.0,-1.0,1
-190.0,34.0,161.0,30.0,61.0,1.0,1
-194.0,36.0,155.0,32.0,60.0,2.0,1
-191.0,35.0,166.0,32.0,62.0,4.0,1
-191.0,32.0,161.0,29.0,61.0,3.0,1
-192.0,33.0,163.0,27.0,60.0,5.0,1
-193.0,32.0,163.0,25.0,57.0,4.0,1
-189.0,33.0,164.0,22.0,56.0,0.0,1
-192.0,34.0,163.0,18.0,56.0,-3.0,1
-190.0,33.0,165.0,11.0,56.0,-4.0,1
-191.0,32.0,168.0,1.0,56.0,-6.0,1
-189.0,31.0,170.0,-6.0,56.0,-6.0,1
-189.0,32.0,168.0,-13.0,57.0,-5.0,1
-190.0,32.0,168.0,-12.0,61.0,-4.0,1
-191.0,34.0,167.0,-6.0,61.0,-5.0,1
-191.0,34.0,164.0,1.0,62.0,-5.0,1
-190.0,37.0,167.0,3.0,64.0,-5.0,1
-190.0,35.0,164.0,-2.0,67.0,-3.0,1
-191.0,34.0,162.0,-10.0,66.0,0.0,1
-191.0,33.0,161.0,-14.0,65.0,0.0,1
-191.0,36.0,164.0,-19.0,64.0,-1.0,1
-192.0,32.0,165.0,-23.0,64.0,-1.0,1
-193.0,35.0,162.0,-25.0,66.0,-2.0,1
-190.0,37.0,164.0,-25.0,67.0,-1.0,1
-191.0,33.0,160.0,-23.0,68.0,1.0,1
-193.0,38.0,163.0,-20.0,67.0,3.0,1
-188.0,32.0,160.0,-14.0,69.0,8.0,1
-184.0,31.0,164.0,-19.0,65.0,9.0,1
-190.0,29.0,164.0,-17.0,59.0,4.0,1
-192.0,31.0,162.0,-6.0,56.0,1.0,1
-189.0,34.0,165.0,-1.0,58.0,-2.0,1
-193.0,39.0,163.0,-1.0,60.0,-2.0,1
-189.0,36.0,166.0,2.0,61.0,-2.0,1
-186.0,34.0,161.0,3.0,62.0,1.0,1
-188.0,34.0,166.0,0.0,58.0,-1.0,1
-191.0,32.0,165.0,3.0,55.0,-3.0,1
-190.0,37.0,164.0,8.0,52.0,-5.0,1
-191.0,36.0,164.0,8.0,55.0,-4.0,1
-191.0,33.0,166.0,4.0,56.0,-7.0,1
-190.0,34.0,164.0,3.0,55.0,-9.0,1
-189.0,35.0,167.0,6.0,55.0,-10.0,1
-187.0,34.0,163.0,7.0,57.0,-11.0,1
-189.0,34.0,167.0,6.0,58.0,-11.0,1
-190.0,34.0,163.0,6.0,58.0,-10.0,1
-188.0,36.0,161.0,6.0,59.0,-9.0,1
-190.0,38.0,163.0,4.0,59.0,-10.0,1
-189.0,32.0,166.0,2.0,59.0,-10.0,1
-190.0,35.0,165.0,2.0,58.0,-10.0,1
-187.0,37.0,163.0,0.0,58.0,-8.0,1
-189.0,33.0,162.0,-3.0,57.0,-7.0,1
-187.0,34.0,166.0,-6.0,58.0,-8.0,1
-189.0,34.0,162.0,-7.0,57.0,-8.0,1
-189.0,34.0,163.0,-7.0,56.0,-7.0,1
-191.0,35.0,167.0,-7.0,58.0,-9.0,1
-190.0,34.0,162.0,-7.0,59.0,-6.0,1
-195.0,37.0,160.0,-7.0,58.0,-4.0,1
-189.0,38.0,163.0,-4.0,59.0,-1.0,1
-189.0,32.0,163.0,-8.0,60.0,3.0,1
-190.0,31.0,163.0,-13.0,59.0,4.0,1
-189.0,31.0,163.0,-8.0,57.0,2.0,1
-188.0,34.0,164.0,-3.0,59.0,-2.0,1
-190.0,32.0,164.0,-4.0,63.0,1.0,1
-189.0,33.0,165.0,-8.0,65.0,2.0,1
-188.0,32.0,163.0,-3.0,66.0,2.0,1
-188.0,33.0,160.0,2.0,67.0,3.0,1
-188.0,32.0,166.0,5.0,69.0,3.0,1
-190.0,33.0,165.0,9.0,71.0,4.0,1
-191.0,33.0,163.0,12.0,72.0,3.0,1
-191.0,30.0,165.0,10.0,74.0,3.0,1
-189.0,33.0,167.0,8.0,72.0,4.0,1
-192.0,36.0,161.0,3.0,69.0,4.0,1
-190.0,36.0,163.0,-4.0,66.0,1.0,1
-188.0,34.0,167.0,-10.0,64.0,-1.0,1
-191.0,32.0,169.0,-17.0,63.0,1.0,1
-188.0,32.0,165.0,-22.0,67.0,0.0,1
-191.0,34.0,164.0,-22.0,71.0,-3.0,1
-191.0,35.0,165.0,-22.0,72.0,-3.0,1
-191.0,34.0,170.0,-20.0,73.0,-3.0,1
-189.0,33.0,164.0,-15.0,77.0,-3.0,1
-189.0,33.0,165.0,-13.0,80.0,-3.0,1
-192.0,37.0,165.0,-11.0,81.0,-4.0,1
-191.0,35.0,163.0,-9.0,81.0,-3.0,1
-191.0,35.0,165.0,-8.0,82.0,-3.0,1
-192.0,34.0,164.0,-8.0,81.0,-4.0,1
-192.0,37.0,165.0,-9.0,80.0,-2.0,1
-191.0,35.0,164.0,-10.0,79.0,-3.0,1
-192.0,32.0,161.0,-9.0,78.0,-3.0,1
-190.0,35.0,161.0,-6.0,77.0,-4.0,1
-191.0,34.0,166.0,-9.0,76.0,-4.0,1
-195.0,29.0,162.0,-8.0,74.0,-3.0,1
-189.0,36.0,162.0,-9.0,73.0,-2.0,1
-192.0,35.0,165.0,-9.0,72.0,-3.0,1
-192.0,35.0,164.0,-9.0,72.0,-4.0,1
-190.0,35.0,166.0,-10.0,70.0,-2.0,1
-190.0,34.0,162.0,-14.0,71.0,-2.0,1
-187.0,32.0,160.0,-14.0,72.0,0.0,1
-189.0,32.0,162.0,-12.0,71.0,-1.0,1
-186.0,31.0,167.0,-13.0,68.0,-2.0,1
-189.0,32.0,167.0,-11.0,68.0,-3.0,1
-190.0,36.0,166.0,-8.0,69.0,-5.0,1
-189.0,33.0,163.0,-6.0,67.0,-4.0,1
-187.0,36.0,165.0,-4.0,68.0,-5.0,1
-191.0,35.0,167.0,-2.0,66.0,-6.0,1
-190.0,38.0,162.0,-1.0,64.0,-4.0,1
-190.0,34.0,164.0,-3.0,64.0,-5.0,1
-190.0,32.0,166.0,-3.0,62.0,-4.0,1
-190.0,33.0,164.0,-1.0,62.0,-3.0,1
-192.0,34.0,164.0,1.0,60.0,-4.0,1
-190.0,34.0,168.0,2.0,60.0,-4.0,1
-191.0,33.0,163.0,2.0,61.0,-4.0,1
-191.0,35.0,163.0,3.0,62.0,-5.0,1
-192.0,36.0,166.0,3.0,61.0,-4.0,1
-190.0,42.0,165.0,2.0,60.0,-5.0,1
-192.0,35.0,163.0,-1.0,59.0,-5.0,1
-192.0,37.0,169.0,0.0,59.0,-3.0,1
-192.0,37.0,166.0,-2.0,59.0,-2.0,1
-190.0,32.0,163.0,-3.0,57.0,-3.0,1
-192.0,31.0,162.0,-3.0,56.0,-3.0,1
-189.0,34.0,163.0,-2.0,55.0,-4.0,1
-190.0,37.0,165.0,-4.0,54.0,-5.0,1
-192.0,38.0,162.0,-9.0,56.0,-4.0,1
-189.0,35.0,166.0,-13.0,58.0,-3.0,1
-190.0,34.0,167.0,-17.0,58.0,-3.0,1
-187.0,34.0,166.0,-18.0,58.0,-1.0,1
-189.0,32.0,164.0,-18.0,61.0,-1.0,1
-191.0,35.0,165.0,-15.0,61.0,-4.0,1
-190.0,33.0,163.0,-10.0,63.0,-3.0,1
-190.0,33.0,164.0,-5.0,66.0,-1.0,1
-189.0,33.0,165.0,-7.0,67.0,1.0,1
-191.0,30.0,162.0,-9.0,65.0,0.0,1
-191.0,32.0,164.0,-10.0,63.0,-3.0,1
-192.0,34.0,165.0,-8.0,61.0,-5.0,1
-191.0,34.0,164.0,-8.0,64.0,-5.0,1
-192.0,35.0,159.0,-7.0,64.0,-4.0,1
-190.0,37.0,162.0,-7.0,64.0,-4.0,1
-191.0,36.0,165.0,-7.0,65.0,-2.0,1
-191.0,38.0,165.0,-8.0,65.0,-1.0,1
-190.0,33.0,162.0,-10.0,64.0,0.0,1
-189.0,37.0,167.0,-10.0,63.0,1.0,1
-191.0,35.0,164.0,-12.0,63.0,0.0,1
-191.0,33.0,161.0,-12.0,62.0,0.0,1
-191.0,36.0,165.0,-13.0,62.0,1.0,1
-191.0,35.0,162.0,-13.0,62.0,-1.0,1
-190.0,36.0,166.0,-13.0,62.0,-1.0,1
-188.0,35.0,163.0,-13.0,64.0,-1.0,1
-187.0,34.0,166.0,-12.0,66.0,-1.0,1
-191.0,34.0,163.0,-13.0,67.0,-1.0,1
-190.0,36.0,165.0,-13.0,66.0,-2.0,1
-191.0,36.0,168.0,-14.0,64.0,0.0,1
-190.0,34.0,164.0,-14.0,63.0,-1.0,1
-188.0,35.0,164.0,-15.0,65.0,-2.0,1
-189.0,37.0,165.0,-18.0,64.0,-1.0,1
-191.0,35.0,166.0,-21.0,63.0,-2.0,1
-191.0,34.0,166.0,-23.0,62.0,-3.0,1
-191.0,37.0,162.0,-25.0,62.0,-2.0,1
-189.0,36.0,167.0,-24.0,63.0,-2.0,1
-189.0,36.0,165.0,-22.0,64.0,-2.0,1
-190.0,34.0,162.0,-24.0,65.0,-3.0,1
-192.0,37.0,168.0,-26.0,66.0,-3.0,1
-192.0,35.0,166.0,-28.0,65.0,-4.0,1
-190.0,33.0,169.0,-26.0,67.0,-4.0,1
-191.0,34.0,164.0,-22.0,68.0,-3.0,1
-190.0,34.0,162.0,-16.0,69.0,-3.0,1
-192.0,31.0,166.0,-10.0,70.0,-3.0,1
-192.0,35.0,163.0,-5.0,69.0,-1.0,1
-189.0,31.0,165.0,-2.0,69.0,-1.0,1
-189.0,34.0,162.0,2.0,69.0,0.0,1
-192.0,35.0,162.0,4.0,70.0,1.0,1
-191.0,32.0,161.0,4.0,68.0,-1.0,1
-190.0,34.0,159.0,5.0,68.0,-4.0,1
-190.0,33.0,163.0,5.0,68.0,-4.0,1
-188.0,35.0,164.0,2.0,67.0,-5.0,1
-190.0,35.0,170.0,-2.0,66.0,-8.0,1
-190.0,35.0,170.0,-6.0,65.0,-8.0,1
-190.0,36.0,167.0,-6.0,66.0,-9.0,1
-191.0,34.0,170.0,-2.0,68.0,-8.0,1
-191.0,34.0,164.0,7.0,68.0,-10.0,1
-189.0,29.0,163.0,15.0,68.0,-9.0,1
-189.0,35.0,164.0,20.0,67.0,-10.0,1
-188.0,34.0,165.0,21.0,66.0,-8.0,1
-190.0,36.0,164.0,17.0,63.0,-8.0,1
-193.0,33.0,164.0,12.0,62.0,-7.0,1
-191.0,37.0,162.0,5.0,61.0,-5.0,1
-189.0,32.0,162.0,0.0,59.0,-4.0,1
-190.0,35.0,163.0,-4.0,56.0,-5.0,1
-191.0,37.0,162.0,-9.0,56.0,-5.0,1
-189.0,36.0,165.0,-14.0,59.0,-3.0,1
-189.0,36.0,163.0,-19.0,61.0,0.0,1
-189.0,35.0,162.0,-19.0,63.0,1.0,1
-188.0,35.0,163.0,-18.0,65.0,3.0,1
-192.0,35.0,161.0,-12.0,66.0,3.0,1
-191.0,36.0,164.0,-6.0,67.0,2.0,1
-191.0,32.0,165.0,-3.0,68.0,0.0,1
-189.0,34.0,167.0,0.0,69.0,1.0,1
-191.0,35.0,166.0,3.0,69.0,1.0,1
-192.0,34.0,161.0,3.0,66.0,0.0,1
-188.0,37.0,161.0,3.0,66.0,-1.0,1
-190.0,36.0,164.0,3.0,65.0,-2.0,1
-190.0,35.0,164.0,2.0,64.0,-3.0,1
-187.0,33.0,165.0,1.0,64.0,-5.0,1
-189.0,34.0,164.0,0.0,64.0,-6.0,1
-189.0,37.0,163.0,0.0,65.0,-5.0,1
-190.0,37.0,167.0,0.0,66.0,-6.0,1
-188.0,37.0,164.0,0.0,67.0,-7.0,1
-189.0,36.0,165.0,0.0,66.0,-8.0,1
-190.0,39.0,164.0,-2.0,67.0,-8.0,1
-191.0,37.0,164.0,-3.0,67.0,-7.0,1
-189.0,36.0,164.0,-5.0,69.0,-7.0,1
-191.0,37.0,163.0,-7.0,70.0,-7.0,1
-189.0,36.0,162.0,-7.0,69.0,-7.0,1
-192.0,37.0,164.0,-9.0,68.0,-6.0,1
-192.0,40.0,161.0,-11.0,69.0,-6.0,1
-190.0,36.0,161.0,-12.0,68.0,-6.0,1
-190.0,36.0,162.0,-14.0,68.0,-7.0,1
-191.0,32.0,166.0,-15.0,67.0,-7.0,1
-190.0,36.0,159.0,-14.0,67.0,-5.0,1
-191.0,37.0,167.0,-12.0,68.0,-4.0,1
-191.0,37.0,165.0,-13.0,68.0,-3.0,1
-190.0,36.0,161.0,-16.0,69.0,-3.0,1
-192.0,37.0,164.0,-17.0,68.0,0.0,1
-190.0,38.0,161.0,-18.0,68.0,1.0,1
-189.0,33.0,165.0,-17.0,70.0,0.0,1
-190.0,36.0,165.0,-14.0,69.0,3.0,1
-188.0,35.0,165.0,-12.0,69.0,3.0,1
-190.0,34.0,164.0,-10.0,70.0,3.0,1
-192.0,32.0,163.0,-7.0,70.0,2.0,1
-189.0,34.0,161.0,-4.0,70.0,1.0,1
-187.0,32.0,164.0,-2.0,69.0,2.0,1
-191.0,33.0,165.0,-2.0,69.0,3.0,1
-191.0,36.0,165.0,-1.0,68.0,3.0,1
-188.0,34.0,163.0,-2.0,67.0,5.0,1
-191.0,35.0,162.0,-3.0,66.0,3.0,1
-191.0,36.0,162.0,-5.0,65.0,2.0,1
-189.0,36.0,165.0,-8.0,65.0,2.0,1
-190.0,36.0,168.0,-11.0,63.0,0.0,1
-189.0,34.0,166.0,-15.0,62.0,0.0,1
-191.0,35.0,162.0,-19.0,62.0,-1.0,1
-191.0,34.0,166.0,-20.0,63.0,-3.0,1
-191.0,35.0,168.0,-24.0,64.0,-3.0,1
-190.0,34.0,169.0,-26.0,65.0,-2.0,1
-189.0,36.0,165.0,-25.0,68.0,-2.0,1
-191.0,35.0,164.0,-24.0,70.0,-3.0,1
-186.0,34.0,167.0,-24.0,71.0,-2.0,1
-192.0,36.0,166.0,-21.0,73.0,-1.0,1
-190.0,36.0,164.0,-18.0,73.0,-3.0,1
-192.0,35.0,164.0,-14.0,74.0,-3.0,1
-191.0,32.0,164.0,-13.0,74.0,0.0,1
-189.0,35.0,166.0,-12.0,74.0,-3.0,1
-192.0,36.0,162.0,-11.0,72.0,-3.0,1
-187.0,35.0,161.0,-12.0,72.0,-2.0,1
-190.0,35.0,166.0,-13.0,71.0,-2.0,1
-189.0,35.0,162.0,-13.0,70.0,-3.0,1
-190.0,33.0,161.0,-13.0,72.0,-4.0,1
-190.0,34.0,164.0,-15.0,71.0,-4.0,1
-188.0,35.0,165.0,-17.0,69.0,-4.0,1
-190.0,36.0,162.0,-19.0,67.0,-5.0,1
-190.0,35.0,167.0,-21.0,68.0,-4.0,1
-189.0,34.0,165.0,-23.0,68.0,-5.0,1
-189.0,36.0,168.0,-25.0,68.0,-4.0,1
-190.0,37.0,162.0,-28.0,69.0,-3.0,1
-189.0,35.0,168.0,-29.0,69.0,-2.0,1
-190.0,38.0,165.0,-30.0,69.0,-1.0,1
-189.0,34.0,166.0,-31.0,70.0,-3.0,1
-189.0,37.0,167.0,-30.0,71.0,-3.0,1
-188.0,35.0,168.0,-27.0,70.0,-3.0,1
-189.0,33.0,166.0,-27.0,70.0,-3.0,1
-190.0,36.0,171.0,-25.0,71.0,-4.0,1
-189.0,33.0,162.0,-23.0,70.0,-4.0,1
-190.0,36.0,166.0,-21.0,69.0,-4.0,1
-191.0,36.0,164.0,-20.0,72.0,-3.0,1
-191.0,35.0,165.0,-21.0,71.0,-3.0,1
-192.0,33.0,167.0,-23.0,70.0,-3.0,1
-191.0,38.0,166.0,-26.0,71.0,-4.0,1
-191.0,36.0,166.0,-27.0,70.0,-4.0,1
-190.0,34.0,164.0,-29.0,70.0,-4.0,1
-191.0,37.0,166.0,-32.0,70.0,-5.0,1
-191.0,35.0,161.0,-34.0,69.0,-5.0,1
-191.0,34.0,165.0,-35.0,72.0,-5.0,1
-189.0,32.0,168.0,-36.0,73.0,-5.0,1
-188.0,32.0,162.0,-37.0,75.0,-5.0,1
-191.0,33.0,164.0,-36.0,79.0,-5.0,1
-191.0,36.0,167.0,-35.0,81.0,-5.0,1
-191.0,33.0,168.0,-34.0,82.0,-5.0,1
-190.0,32.0,166.0,-32.0,83.0,-5.0,1
-190.0,36.0,163.0,-29.0,84.0,-6.0,1
-189.0,35.0,163.0,-27.0,85.0,-5.0,1
-193.0,35.0,167.0,-26.0,84.0,-4.0,1
-190.0,35.0,165.0,-26.0,84.0,-5.0,1
-188.0,34.0,165.0,-27.0,85.0,-6.0,1
-191.0,37.0,165.0,-30.0,83.0,-7.0,1
-191.0,36.0,167.0,-34.0,81.0,-6.0,1
-190.0,34.0,166.0,-37.0,80.0,-6.0,1
-189.0,34.0,163.0,-39.0,79.0,-6.0,1
-192.0,37.0,164.0,-41.0,79.0,-6.0,1
-191.0,35.0,166.0,-42.0,78.0,-8.0,1
-189.0,34.0,168.0,-42.0,77.0,-8.0,1
-191.0,35.0,163.0,-43.0,76.0,-6.0,1
-188.0,34.0,164.0,-45.0,77.0,-6.0,1
-189.0,35.0,164.0,-45.0,80.0,-5.0,1
-189.0,33.0,161.0,-40.0,82.0,-5.0,1
-191.0,32.0,163.0,-37.0,84.0,-4.0,1
-189.0,34.0,160.0,-37.0,84.0,-3.0,1
-187.0,32.0,165.0,-38.0,83.0,-2.0,1
-191.0,34.0,164.0,-39.0,81.0,-3.0,1
-189.0,33.0,165.0,-40.0,79.0,-3.0,1
-188.0,35.0,168.0,-41.0,75.0,-4.0,1
-190.0,33.0,164.0,-42.0,76.0,-2.0,1
-189.0,31.0,167.0,-39.0,76.0,-2.0,1
-187.0,37.0,162.0,-37.0,78.0,-2.0,1
-187.0,32.0,165.0,-36.0,79.0,-3.0,1
-189.0,32.0,166.0,-37.0,80.0,-2.0,1
-191.0,35.0,168.0,-38.0,81.0,-3.0,1
-190.0,33.0,163.0,-42.0,79.0,-5.0,1
-190.0,30.0,164.0,-43.0,77.0,-8.0,1
-191.0,35.0,163.0,-35.0,79.0,-7.0,1
-189.0,29.0,163.0,-21.0,85.0,-5.0,1
-193.0,36.0,164.0,-8.0,88.0,-3.0,1
-191.0,33.0,161.0,3.0,89.0,-3.0,1
-189.0,38.0,161.0,11.0,89.0,-2.0,1
-191.0,32.0,166.0,15.0,87.0,-3.0,1
-192.0,33.0,163.0,14.0,86.0,-5.0,1
-192.0,34.0,164.0,10.0,84.0,-5.0,1
-190.0,35.0,164.0,7.0,81.0,-8.0,1
-189.0,33.0,161.0,-1.0,78.0,-9.0,1
-191.0,35.0,161.0,-10.0,77.0,-10.0,1
-192.0,34.0,166.0,-21.0,77.0,-13.0,1
-190.0,36.0,169.0,-31.0,76.0,-15.0,1
-191.0,35.0,165.0,-40.0,77.0,-14.0,1
-190.0,31.0,166.0,-46.0,80.0,-12.0,1
-186.0,36.0,166.0,-45.0,87.0,-12.0,1
-189.0,31.0,168.0,-35.0,92.0,-11.0,1
-187.0,31.0,170.0,-24.0,94.0,-7.0,1
-188.0,31.0,167.0,-16.0,98.0,-7.0,1
-190.0,34.0,164.0,-9.0,98.0,-5.0,1
-190.0,35.0,165.0,-6.0,99.0,-7.0,1
-190.0,31.0,164.0,-4.0,99.0,-8.0,1
-190.0,33.0,161.0,-5.0,100.0,-5.0,1
-190.0,32.0,165.0,-6.0,101.0,-4.0,1
-190.0,34.0,161.0,-10.0,100.0,-2.0,1
-189.0,34.0,165.0,-10.0,100.0,-2.0,1
-192.0,36.0,163.0,-13.0,100.0,0.0,1
-189.0,35.0,163.0,-16.0,98.0,-1.0,1
-191.0,36.0,165.0,-17.0,99.0,2.0,1
-189.0,33.0,162.0,-14.0,99.0,2.0,1
-193.0,31.0,161.0,-12.0,93.0,-2.0,1
-192.0,33.0,163.0,-13.0,84.0,-6.0,1
-192.0,32.0,160.0,-9.0,85.0,-7.0,1
-191.0,34.0,163.0,-2.0,92.0,-6.0,1
-192.0,32.0,164.0,5.0,96.0,-6.0,1
-190.0,35.0,163.0,7.0,96.0,-6.0,1
-191.0,39.0,161.0,9.0,99.0,-5.0,1
-191.0,35.0,162.0,9.0,100.0,-3.0,1
-191.0,34.0,163.0,10.0,104.0,-4.0,1
-193.0,34.0,160.0,7.0,104.0,-4.0,1
-190.0,36.0,166.0,5.0,103.0,-5.0,1
-191.0,37.0,163.0,4.0,104.0,-8.0,1
-191.0,37.0,165.0,3.0,103.0,-9.0,1
-192.0,34.0,162.0,1.0,100.0,-11.0,1
-192.0,36.0,160.0,-1.0,99.0,-10.0,1
-193.0,38.0,162.0,0.0,97.0,-11.0,1
-189.0,35.0,163.0,1.0,95.0,-10.0,1
-191.0,35.0,163.0,-1.0,96.0,-11.0,1
-191.0,23.0,161.0,-3.0,94.0,-10.0,1
-191.0,35.0,159.0,-8.0,92.0,-10.0,1
-190.0,37.0,162.0,-13.0,89.0,-12.0,1
-188.0,34.0,163.0,-16.0,88.0,-11.0,1
-189.0,32.0,161.0,-18.0,87.0,-11.0,1
-189.0,34.0,162.0,-19.0,83.0,-10.0,1
-191.0,32.0,160.0,-22.0,82.0,-10.0,1
-192.0,34.0,158.0,-25.0,80.0,-10.0,1
-191.0,32.0,163.0,-22.0,79.0,-8.0,1
-193.0,35.0,161.0,-20.0,79.0,-6.0,1
-190.0,33.0,160.0,-17.0,80.0,-5.0,1
-191.0,27.0,167.0,-15.0,81.0,-2.0,1
-192.0,33.0,159.0,-15.0,81.0,0.0,1
-192.0,32.0,161.0,-17.0,83.0,1.0,1
-190.0,36.0,162.0,-19.0,83.0,1.0,1
-194.0,35.0,161.0,-22.0,83.0,0.0,1
-191.0,33.0,163.0,-22.0,84.0,0.0,1
-192.0,31.0,163.0,-20.0,87.0,0.0,1
-191.0,31.0,161.0,-19.0,87.0,2.0,1
-192.0,32.0,164.0,-19.0,88.0,1.0,1
-192.0,32.0,160.0,-20.0,87.0,1.0,1
-191.0,33.0,163.0,-23.0,86.0,-1.0,1
-191.0,37.0,162.0,-25.0,88.0,0.0,1
-190.0,30.0,165.0,-29.0,85.0,3.0,1
-193.0,31.0,163.0,-29.0,85.0,1.0,1
-194.0,32.0,159.0,-29.0,83.0,1.0,1
-192.0,34.0,161.0,-33.0,85.0,0.0,1
-190.0,32.0,166.0,-36.0,86.0,0.0,1
-189.0,31.0,163.0,-34.0,89.0,1.0,1
-192.0,33.0,163.0,-31.0,94.0,1.0,1
-191.0,33.0,164.0,-29.0,97.0,2.0,1
-191.0,35.0,161.0,-29.0,100.0,2.0,1
-192.0,33.0,161.0,-28.0,100.0,4.0,1
-192.0,41.0,157.0,-26.0,101.0,4.0,1
-191.0,33.0,163.0,-26.0,102.0,4.0,1
-192.0,37.0,162.0,-26.0,101.0,3.0,1
-192.0,35.0,162.0,-27.0,99.0,3.0,1
-194.0,36.0,161.0,-27.0,98.0,2.0,1
-190.0,32.0,161.0,-26.0,96.0,1.0,1
-193.0,35.0,160.0,-29.0,93.0,1.0,1
-192.0,35.0,167.0,-30.0,92.0,1.0,1
-193.0,35.0,160.0,-33.0,92.0,1.0,1
-192.0,33.0,161.0,-34.0,94.0,1.0,1
-192.0,35.0,157.0,-37.0,93.0,1.0,1
-192.0,37.0,167.0,-38.0,95.0,2.0,1
-191.0,36.0,163.0,-40.0,95.0,1.0,1
-192.0,35.0,166.0,-37.0,95.0,2.0,1
-189.0,33.0,160.0,-35.0,97.0,3.0,1
-188.0,27.0,159.0,-36.0,100.0,5.0,1
-194.0,29.0,161.0,-40.0,95.0,-6.0,1
-195.0,36.0,161.0,-38.0,87.0,-20.0,1
-191.0,41.0,161.0,-32.0,93.0,-14.0,1
-191.0,33.0,164.0,-33.0,101.0,0.0,1
-191.0,33.0,159.0,-27.0,101.0,4.0,1
-193.0,29.0,156.0,-20.0,97.0,-4.0,1
-189.0,33.0,163.0,-17.0,96.0,-6.0,1
-192.0,31.0,163.0,-19.0,95.0,-5.0,1
-192.0,27.0,160.0,-21.0,92.0,-2.0,1
-192.0,32.0,160.0,-19.0,89.0,-3.0,1
-191.0,31.0,161.0,-17.0,87.0,-7.0,1
-191.0,35.0,159.0,-12.0,87.0,-8.0,1
-192.0,35.0,161.0,-10.0,89.0,-6.0,1
-193.0,35.0,160.0,-9.0,90.0,-4.0,1
-192.0,33.0,158.0,-9.0,87.0,-6.0,1
-192.0,32.0,160.0,-8.0,86.0,-4.0,1
-194.0,33.0,163.0,-10.0,85.0,-3.0,1
-193.0,33.0,161.0,-11.0,83.0,-5.0,1
-191.0,35.0,158.0,-13.0,81.0,-4.0,1
-193.0,35.0,159.0,-18.0,78.0,-4.0,1
-192.0,34.0,156.0,-20.0,78.0,-2.0,1
-192.0,34.0,161.0,-22.0,77.0,-3.0,1
-193.0,34.0,162.0,-24.0,77.0,-3.0,1
-193.0,33.0,160.0,-27.0,77.0,-3.0,1
-190.0,34.0,159.0,-30.0,80.0,-2.0,1
-188.0,29.0,161.0,-33.0,81.0,0.0,1
-192.0,33.0,164.0,-36.0,82.0,-1.0,1
-192.0,30.0,159.0,-39.0,83.0,0.0,1
-191.0,30.0,160.0,-41.0,84.0,1.0,1
-191.0,32.0,162.0,-40.0,86.0,3.0,1
-191.0,29.0,159.0,-37.0,87.0,1.0,1
-192.0,32.0,162.0,-33.0,88.0,3.0,1
-193.0,33.0,162.0,-29.0,86.0,3.0,1
-191.0,29.0,159.0,-24.0,88.0,3.0,1
-193.0,33.0,167.0,-20.0,88.0,4.0,1
-193.0,35.0,162.0,-17.0,88.0,5.0,1
-193.0,31.0,161.0,-16.0,88.0,4.0,1
-192.0,33.0,162.0,-16.0,88.0,4.0,1
-195.0,32.0,161.0,-17.0,87.0,5.0,1
-193.0,31.0,158.0,-17.0,84.0,5.0,1
-195.0,31.0,159.0,-11.0,84.0,4.0,1
-195.0,33.0,158.0,-4.0,82.0,2.0,1
-194.0,33.0,161.0,6.0,83.0,1.0,1
-194.0,37.0,157.0,15.0,82.0,2.0,1
-193.0,34.0,161.0,22.0,81.0,4.0,1
-193.0,34.0,157.0,26.0,81.0,2.0,1
-193.0,34.0,162.0,30.0,79.0,-3.0,1
-194.0,35.0,159.0,27.0,79.0,-4.0,1
-192.0,32.0,155.0,19.0,77.0,-3.0,1
-193.0,30.0,150.0,11.0,76.0,-3.0,1
-192.0,34.0,161.0,4.0,75.0,-4.0,1
-192.0,34.0,158.0,-4.0,73.0,-4.0,1
-193.0,31.0,157.0,-11.0,72.0,-5.0,1
-193.0,33.0,160.0,-20.0,73.0,-6.0,1
-192.0,33.0,166.0,-28.0,73.0,-7.0,1
-193.0,32.0,163.0,-34.0,76.0,-7.0,1
-191.0,29.0,164.0,-36.0,79.0,-4.0,1
-191.0,32.0,166.0,-35.0,82.0,-3.0,1
-192.0,29.0,161.0,-27.0,84.0,-2.0,1
-191.0,28.0,158.0,-15.0,86.0,-3.0,1
-192.0,29.0,158.0,-3.0,87.0,-2.0,1
-193.0,33.0,157.0,6.0,87.0,-2.0,1
-193.0,35.0,159.0,11.0,85.0,-1.0,1
-191.0,34.0,154.0,13.0,83.0,1.0,1
-191.0,34.0,155.0,11.0,82.0,4.0,1
-194.0,34.0,157.0,5.0,78.0,3.0,1
-196.0,36.0,157.0,4.0,72.0,-2.0,1
-192.0,38.0,156.0,0.0,72.0,0.0,1
-191.0,33.0,157.0,-5.0,66.0,3.0,1
-191.0,33.0,156.0,-7.0,59.0,0.0,1
-192.0,34.0,160.0,-9.0,55.0,2.0,1
-191.0,32.0,160.0,-10.0,53.0,4.0,1
-196.0,34.0,161.0,-6.0,49.0,-1.0,1
-195.0,34.0,157.0,-5.0,49.0,-2.0,1
-192.0,31.0,162.0,-6.0,51.0,-3.0,1
-192.0,33.0,157.0,-6.0,52.0,-1.0,1
-189.0,33.0,161.0,-5.0,52.0,-2.0,1
-192.0,36.0,157.0,-6.0,52.0,-2.0,1
-195.0,35.0,160.0,-8.0,52.0,-4.0,1
-193.0,34.0,159.0,-8.0,54.0,-4.0,1
-191.0,34.0,159.0,-9.0,54.0,-9.0,1
-194.0,32.0,159.0,-9.0,56.0,-11.0,1
-191.0,34.0,157.0,-8.0,56.0,-11.0,1
-193.0,35.0,160.0,-9.0,56.0,-10.0,1
-190.0,33.0,162.0,-11.0,56.0,-9.0,1
-191.0,32.0,162.0,-13.0,56.0,-10.0,1
-191.0,33.0,159.0,-15.0,54.0,-14.0,1
-192.0,31.0,162.0,-15.0,55.0,-13.0,1
-194.0,34.0,164.0,-16.0,57.0,-13.0,1
-192.0,32.0,160.0,-18.0,56.0,-14.0,1
-192.0,32.0,161.0,-18.0,56.0,-13.0,1
-193.0,31.0,163.0,-18.0,56.0,-12.0,1
-190.0,34.0,162.0,-18.0,56.0,-12.0,1
-194.0,33.0,162.0,-20.0,54.0,-9.0,1
-193.0,34.0,160.0,-19.0,54.0,-9.0,1
-195.0,34.0,162.0,-16.0,54.0,-12.0,1
-190.0,34.0,160.0,-12.0,55.0,-12.0,1
-194.0,33.0,159.0,-7.0,58.0,-13.0,1
-192.0,33.0,163.0,-3.0,60.0,-10.0,1
-194.0,31.0,160.0,-2.0,60.0,-9.0,1
-192.0,34.0,158.0,-1.0,62.0,-6.0,1
-191.0,34.0,161.0,-3.0,62.0,-4.0,1
-191.0,34.0,158.0,-6.0,62.0,-2.0,1
-194.0,34.0,159.0,-10.0,62.0,-1.0,1
-193.0,32.0,161.0,-11.0,60.0,-3.0,1
-193.0,29.0,159.0,-8.0,60.0,-3.0,1
-193.0,31.0,162.0,-5.0,60.0,-2.0,1
-191.0,33.0,161.0,-1.0,59.0,-2.0,1
-192.0,32.0,163.0,-1.0,59.0,-2.0,1
-192.0,33.0,157.0,-1.0,59.0,-2.0,1
-194.0,33.0,162.0,-4.0,57.0,-1.0,1
-191.0,32.0,160.0,-8.0,57.0,-1.0,1
-192.0,35.0,164.0,-12.0,56.0,-2.0,1
-192.0,32.0,160.0,-18.0,54.0,-2.0,1
-193.0,35.0,162.0,-21.0,53.0,-4.0,1
-191.0,33.0,159.0,-22.0,52.0,-4.0,1
-192.0,31.0,164.0,-24.0,53.0,-5.0,1
-194.0,32.0,158.0,-23.0,52.0,-3.0,1
-192.0,33.0,164.0,-19.0,54.0,-4.0,1
-193.0,36.0,160.0,-18.0,55.0,-5.0,1
-192.0,32.0,156.0,-18.0,56.0,-4.0,1
-192.0,34.0,162.0,-20.0,57.0,-1.0,1
-192.0,35.0,160.0,-21.0,57.0,0.0,1
-190.0,33.0,161.0,-21.0,57.0,0.0,1
-192.0,33.0,163.0,-23.0,54.0,1.0,1
-193.0,33.0,162.0,-22.0,53.0,2.0,1
-191.0,34.0,162.0,-23.0,51.0,2.0,1
-192.0,32.0,159.0,-24.0,51.0,0.0,1
-194.0,34.0,161.0,-25.0,49.0,1.0,1
-192.0,37.0,161.0,-25.0,47.0,4.0,1
-191.0,34.0,157.0,-25.0,48.0,5.0,1
-196.0,35.0,159.0,-27.0,49.0,5.0,1
-193.0,32.0,158.0,-30.0,51.0,5.0,1
-194.0,33.0,159.0,-32.0,52.0,4.0,1
-193.0,35.0,159.0,-34.0,55.0,4.0,1
-194.0,35.0,157.0,-36.0,58.0,4.0,1
-199.0,25.0,164.0,-36.0,60.0,4.0,1
-192.0,34.0,159.0,-38.0,59.0,4.0,1
-192.0,35.0,160.0,-41.0,60.0,3.0,1
-193.0,34.0,160.0,-47.0,60.0,3.0,1
-193.0,34.0,164.0,-51.0,60.0,3.0,1
-192.0,34.0,164.0,-58.0,62.0,1.0,1
-192.0,33.0,162.0,-63.0,62.0,1.0,1
-192.0,32.0,161.0,-69.0,60.0,0.0,1
-191.0,28.0,164.0,-73.0,61.0,-1.0,1
-193.0,33.0,161.0,-76.0,59.0,-1.0,1
-191.0,31.0,164.0,-79.0,58.0,-2.0,1
-190.0,32.0,163.0,-79.0,56.0,-4.0,1
-194.0,31.0,165.0,-77.0,56.0,-2.0,1
-193.0,31.0,166.0,-72.0,53.0,-3.0,1
-192.0,31.0,162.0,-68.0,53.0,-4.0,1
-192.0,31.0,164.0,-63.0,51.0,-2.0,1
-193.0,32.0,162.0,-59.0,51.0,-3.0,1
-190.0,31.0,167.0,-55.0,47.0,-2.0,1
-192.0,31.0,163.0,-52.0,48.0,-2.0,1
-193.0,31.0,162.0,-46.0,50.0,0.0,1
-191.0,34.0,161.0,-42.0,52.0,0.0,1
-190.0,30.0,164.0,-37.0,53.0,2.0,1
-192.0,30.0,157.0,-31.0,54.0,2.0,1
-190.0,30.0,163.0,-27.0,56.0,3.0,1
-191.0,32.0,160.0,-23.0,55.0,3.0,1
-194.0,33.0,164.0,-21.0,55.0,3.0,1
-191.0,32.0,161.0,-19.0,55.0,3.0,1
-191.0,29.0,159.0,-17.0,57.0,3.0,1
-193.0,30.0,158.0,-17.0,58.0,3.0,1
-192.0,31.0,165.0,-14.0,60.0,2.0,1
-190.0,31.0,162.0,-15.0,61.0,3.0,1
-190.0,31.0,163.0,-16.0,60.0,4.0,1
-191.0,32.0,160.0,-17.0,60.0,4.0,1
-190.0,33.0,158.0,-17.0,61.0,4.0,1
-192.0,33.0,159.0,-17.0,60.0,3.0,1
-188.0,31.0,162.0,-16.0,60.0,2.0,1
-191.0,33.0,166.0,-17.0,58.0,0.0,1
-192.0,33.0,163.0,-19.0,57.0,0.0,1
-190.0,31.0,162.0,-21.0,58.0,1.0,1
-188.0,30.0,167.0,-22.0,56.0,1.0,1
-192.0,34.0,165.0,-23.0,56.0,2.0,1
-190.0,31.0,162.0,-24.0,55.0,2.0,1
-193.0,29.0,164.0,-25.0,56.0,2.0,1
-193.0,31.0,164.0,-23.0,57.0,1.0,1
-191.0,31.0,164.0,-21.0,58.0,-1.0,1
-191.0,30.0,163.0,-14.0,61.0,1.0,1
-190.0,33.0,161.0,-6.0,62.0,2.0,1
-194.0,32.0,160.0,2.0,63.0,2.0,1
-193.0,33.0,162.0,8.0,63.0,3.0,1
-191.0,32.0,158.0,12.0,64.0,3.0,1
-193.0,33.0,162.0,13.0,63.0,3.0,1
-192.0,34.0,159.0,13.0,62.0,4.0,1
-191.0,30.0,160.0,11.0,62.0,3.0,1
-191.0,33.0,160.0,9.0,61.0,2.0,1
-192.0,33.0,161.0,8.0,62.0,1.0,1
-194.0,34.0,166.0,4.0,61.0,-3.0,1
-194.0,34.0,165.0,-1.0,58.0,-3.0,1
-193.0,35.0,163.0,-10.0,56.0,-5.0,1
-192.0,29.0,162.0,-20.0,57.0,-7.0,1
-191.0,31.0,167.0,-29.0,57.0,-6.0,1
-191.0,28.0,169.0,-33.0,61.0,-5.0,1
-192.0,29.0,168.0,-30.0,64.0,-5.0,1
-191.0,32.0,161.0,-23.0,66.0,-4.0,1
-188.0,27.0,160.0,-16.0,69.0,-5.0,1
-190.0,31.0,161.0,-8.0,69.0,-5.0,1
-186.0,25.0,165.0,-3.0,71.0,-3.0,1
-188.0,32.0,164.0,1.0,71.0,-2.0,1
-190.0,31.0,164.0,1.0,71.0,-1.0,1
-190.0,33.0,161.0,-1.0,71.0,1.0,1
-193.0,34.0,163.0,-4.0,71.0,3.0,1
-191.0,35.0,157.0,-6.0,72.0,5.0,1
-191.0,30.0,159.0,-7.0,69.0,6.0,1
-193.0,33.0,162.0,-8.0,65.0,6.0,1
-192.0,31.0,162.0,-9.0,64.0,6.0,1
-190.0,31.0,163.0,-8.0,62.0,5.0,1
-193.0,35.0,162.0,-5.0,59.0,5.0,1
-192.0,32.0,163.0,-5.0,57.0,5.0,1
-191.0,33.0,161.0,-6.0,56.0,3.0,1
-192.0,33.0,161.0,-7.0,54.0,0.0,1
-191.0,32.0,161.0,-8.0,56.0,-2.0,1
-194.0,33.0,159.0,-9.0,56.0,1.0,1
-193.0,33.0,161.0,-11.0,57.0,0.0,1
-192.0,33.0,163.0,-11.0,58.0,-2.0,1
-190.0,36.0,162.0,-13.0,61.0,-2.0,1
-192.0,35.0,162.0,-12.0,61.0,-4.0,1
-192.0,34.0,166.0,-12.0,62.0,-3.0,1
