ax,ay,az,gx,gy,gz,label
5.0,-250.0,-52.0,-19.0,70.0,-5.0,1
1.0,-249.0,-54.0,-17.0,68.0,-6.0,1
6.0,-248.0,-53.0,-17.0,67.0,-7.0,1
7.0,-250.0,-55.0,-16.0,65.0,-8.0,1
1.0,-250.0,-52.0,-18.0,65.0,-6.0,1
7.0,-252.0,-56.0,-19.0,64.0,-7.0,1
4.0,-249.0,-47.0,-20.0,65.0,-9.0,1
4.0,-248.0,-54.0,-24.0,64.0,-8.0,1
3.0,-247.0,-46.0,-26.0,62.0,-8.0,1
6.0,-248.0,-47.0,-29.0,64.0,-9.0,1
3.0,-248.0,-50.0,-32.0,62.0,-9.0,1
5.0,-248.0,-46.0,-35.0,61.0,-9.0,1
5.0,-248.0,-47.0,-39.0,61.0,-10.0,1
2.0,-245.0,-48.0,-45.0,62.0,-10.0,1
2.0,-247.0,-47.0,-52.0,63.0,-12.0,1
3.0,-249.0,-52.0,-59.0,66.0,-14.0,1
6.0,-243.0,-47.0,-63.0,70.0,-14.0,1
10.0,-242.0,-50.0,-69.0,76.0,-15.0,1
12.0,-244.0,-44.0,-76.0,85.0,-17.0,1
9.0,-241.0,-52.0,-84.0,94.0,-21.0,1
13.0,-243.0,-51.0,-95.0,105.0,-21.0,1
11.0,-242.0,-54.0,-109.0,113.0,-20.0,1
15.0,-241.0,-52.0,-126.0,122.0,-18.0,1
15.0,-241.0,-52.0,-143.0,128.0,-13.0,1
11.0,-241.0,-53.0,-160.0,134.0,-8.0,1
14.0,-240.0,-55.0,-175.0,141.0,-2.0,1
13.0,-243.0,-55.0,-187.0,143.0,4.0,1
12.0,-243.0,-49.0,-196.0,143.0,9.0,1
13.0,-243.0,-56.0,-206.0,142.0,14.0,1
8.0,-246.0,-53.0,-220.0,135.0,19.0,1
3.0,-247.0,-53.0,-235.0,126.0,23.0,1
2.0,-253.0,-51.0,-249.0,118.0,29.0,1
0.0,-256.0,-51.0,-261.0,110.0,34.0,1
0.0,-266.0,-55.0,-266.0,100.0,39.0,1
1.0,-271.0,-54.0,-263.0,91.0,43.0,1
-2.0,-268.0,-56.0,-255.0,83.0,46.0,1
0.0,-272.0,-47.0,-242.0,74.0,49.0,1
-3.0,-270.0,-46.0,-226.0,71.0,55.0,1
-1.0,-267.0,-44.0,-204.0,74.0,64.0,1
-5.0,-266.0,-45.0,-175.0,80.0,70.0,1
-4.0,-264.0,-41.0,-147.0,86.0,75.0,1
-2.0,-263.0,-46.0,-124.0,92.0,79.0,1
0.0,-263.0,-51.0,-109.0,94.0,80.0,1
-5.0,-260.0,-49.0,-107.0,94.0,78.0,1
-1.0,-262.0,-49.0,-114.0,92.0,77.0,1
-1.0,-262.0,-47.0,-126.0,89.0,74.0,1
0.0,-262.0,-50.0,-133.0,84.0,69.0,1
-2.0,-260.0,-50.0,-131.0,78.0,67.0,1
0.0,-263.0,-46.0,-122.0,71.0,67.0,1
-2.0,-258.0,-46.0,-110.0,73.0,64.0,1
0.0,-259.0,-47.0,-95.0,73.0,62.0,1
-3.0,-255.0,-51.0,-83.0,76.0,62.0,1
-2.0,-251.0,-47.0,-73.0,80.0,61.0,1
-4.0,-247.0,-49.0,-70.0,85.0,57.0,1
-5.0,-244.0,-51.0,-71.0,86.0,54.0,1
-5.0,-243.0,-48.0,-76.0,89.0,51.0,1
-7.0,-244.0,-45.0,-84.0,88.0,51.0,1
-6.0,-242.0,-44.0,-95.0,88.0,51.0,1
-5.0,-245.0,-41.0,-108.0,88.0,48.0,1
-1.0,-243.0,-46.0,-122.0,89.0,46.0,1
-5.0,-248.0,-38.0,-134.0,90.0,43.0,1
-6.0,-249.0,-36.0,-141.0,93.0,36.0,1
-3.0,-248.0,-41.0,-145.0,96.0,31.0,1
0.0,-251.0,-40.0,-148.0,100.0,25.0,1
-1.0,-250.0,-36.0,-146.0,104.0,19.0,1
-2.0,-247.0,-44.0,-148.0,105.0,12.0,1
-5.0,-248.0,-37.0,-152.0,105.0,7.0,1
-6.0,-248.0,-43.0,-159.0,106.0,0.0,1
-2.0,-251.0,-42.0,-171.0,104.0,-6.0,1
-6.0,-248.0,-44.0,-181.0,104.0,-11.0,1
-7.0,-250.0,-48.0,-192.0,101.0,-12.0,1
-12.0,-249.0,-48.0,-201.0,97.0,-16.0,1
-12.0,-250.0,-46.0,-209.0,94.0,-20.0,1
-11.0,-248.0,-44.0,-215.0,92.0,-23.0,1
-13.0,-249.0,-46.0,-219.0,90.0,-28.0,1
-17.0,-250.0,-46.0,-225.0,87.0,-34.0,1
-13.0,-251.0,-47.0,-231.0,86.0,-38.0,1
-15.0,-247.0,-48.0,-239.0,83.0,-42.0,1
-11.0,-251.0,-50.0,-245.0,83.0,-45.0,1
-10.0,-250.0,-47.0,-249.0,81.0,-50.0,1
-7.0,-252.0,-46.0,-253.0,80.0,-57.0,1
-10.0,-249.0,-45.0,-257.0,78.0,-65.0,1
-8.0,-250.0,-38.0,-259.0,73.0,-68.0,1
-8.0,-249.0,-42.0,-260.0,66.0,-70.0,1
-9.0,-245.0,-47.0,-260.0,57.0,-72.0,1
-10.0,-247.0,-40.0,-262.0,51.0,-72.0,1
-10.0,-244.0,-44.0,-266.0,41.0,-71.0,1
-13.0,-242.0,-46.0,-271.0,30.0,-68.0,1
-14.0,-244.0,-40.0,-279.0,22.0,-67.0,1
-15.0,-245.0,-41.0,-287.0,12.0,-66.0,1
-15.0,-245.0,-43.0,-298.0,4.0,-68.0,1
-16.0,-243.0,-44.0,-307.0,-2.0,-71.0,1
-17.0,-243.0,-47.0,-315.0,-5.0,-74.0,1
-15.0,-242.0,-44.0,-325.0,-8.0,-78.0,1
-15.0,-244.0,-49.0,-335.0,-10.0,-82.0,1
-13.0,-245.0,-49.0,-344.0,-8.0,-86.0,1
-12.0,-243.0,-47.0,-356.0,-5.0,-91.0,1
-13.0,-245.0,-48.0,-370.0,-4.0,-93.0,1
-8.0,-246.0,-44.0,-386.0,-2.0,-97.0,1
-15.0,-244.0,-45.0,-402.0,-2.0,-99.0,1
-10.0,-245.0,-46.0,-419.0,-5.0,-101.0,1
-8.0,-243.0,-48.0,-438.0,-10.0,-101.0,1
-3.0,-231.0,-46.0,-458.0,-18.0,-101.0,1
-4.0,-243.0,-47.0,-479.0,-27.0,-103.0,1
-5.0,-242.0,-52.0,-497.0,-33.0,-103.0,1
-6.0,-237.0,-49.0,-514.0,-41.0,-103.0,1
-6.0,-244.0,-55.0,-530.0,-47.0,-106.0,1
-9.0,-242.0,-56.0,-548.0,-54.0,-108.0,1
-4.0,-242.0,-60.0,-569.0,-61.0,-113.0,1
-3.0,-243.0,-61.0,-592.0,-65.0,-116.0,1
-5.0,-244.0,-60.0,-610.0,-67.0,-123.0,1
-2.0,-246.0,-63.0,-624.0,-67.0,-127.0,1
-1.0,-246.0,-62.0,-636.0,-66.0,-123.0,1
-4.0,-244.0,-61.0,-643.0,-67.0,-124.0,1
0.0,-246.0,-62.0,-645.0,-64.0,-121.0,1
0.0,-244.0,-68.0,-646.0,-60.0,-120.0,1
1.0,-245.0,-69.0,-648.0,-57.0,-119.0,1
0.0,-239.0,-66.0,-656.0,-58.0,-118.0,1
0.0,-241.0,-70.0,-665.0,-59.0,-120.0,1
-1.0,-237.0,-69.0,-676.0,-64.0,-121.0,1
0.0,-240.0,-69.0,-690.0,-68.0,-118.0,1
2.0,-237.0,-68.0,-703.0,-68.0,-119.0,1
1.0,-236.0,-70.0,-711.0,-67.0,-123.0,1
6.0,-238.0,-73.0,-717.0,-63.0,-128.0,1
2.0,-243.0,-75.0,-718.0,-58.0,-132.0,1
5.0,-235.0,-68.0,-712.0,-51.0,-130.0,1
5.0,-235.0,-69.0,-702.0,-42.0,-125.0,1
10.0,-229.0,-75.0,-694.0,-34.0,-117.0,1
6.0,-230.0,-77.0,-694.0,-24.0,-114.0,1
8.0,-225.0,-78.0,-702.0,-19.0,-114.0,1
10.0,-222.0,-78.0,-715.0,-16.0,-113.0,1
9.0,-216.0,-75.0,-728.0,-11.0,-109.0,1
13.0,-219.0,-71.0,-738.0,-7.0,-104.0,1
13.0,-215.0,-70.0,-739.0,-3.0,-95.0,1
16.0,-212.0,-74.0,-732.0,3.0,-82.0,1
10.0,-208.0,-69.0,-720.0,5.0,-72.0,1
9.0,-208.0,-70.0,-711.0,2.0,-63.0,1
7.0,-213.0,-65.0,-706.0,-6.0,-52.0,1
8.0,-220.0,-63.0,-701.0,-21.0,-37.0,1
6.0,-226.0,-60.0,-698.0,-41.0,-27.0,1
5.0,-234.0,-59.0,-699.0,-64.0,-20.0,1
1.0,-244.0,-54.0,-700.0,-94.0,-16.0,1
-6.0,-249.0,-59.0,-708.0,-124.0,-18.0,1
-4.0,-257.0,-72.0,-729.0,-154.0,-21.0,1
-9.0,-257.0,-81.0,-765.0,-175.0,-28.0,1
-10.0,-261.0,-88.0,-812.0,-192.0,-39.0,1
-11.0,-267.0,-98.0,-860.0,-207.0,-56.0,1
-9.0,-265.0,-106.0,-902.0,-227.0,-77.0,1
-7.0,-271.0,-108.0,-928.0,-242.0,-94.0,1
-7.0,-272.0,-113.0,-944.0,-254.0,-105.0,1
-3.0,-272.0,-109.0,-944.0,-260.0,-114.0,1
-1.0,-272.0,-115.0,-927.0,-265.0,-122.0,1
-1.0,-266.0,-116.0,-893.0,-272.0,-131.0,1
0.0,-268.0,-110.0,-850.0,-286.0,-139.0,1
2.0,-261.0,-103.0,-800.0,-297.0,-149.0,1
1.0,-261.0,-97.0,-746.0,-306.0,-157.0,1
0.0,-259.0,-88.0,-689.0,-306.0,-166.0,1
-2.0,-259.0,-82.0,-636.0,-307.0,-177.0,1
-4.0,-258.0,-76.0,-589.0,-309.0,-192.0,1
0.0,-251.0,-82.0,-552.0,-312.0,-201.0,1
-1.0,-246.0,-78.0,-533.0,-308.0,-213.0,1
1.0,-241.0,-79.0,-533.0,-323.0,-239.0,1
3.0,-231.0,-84.0,-545.0,-339.0,-276.0,1
4.0,-226.0,-89.0,-566.0,-347.0,-305.0,1
7.0,-225.0,-94.0,-595.0,-350.0,-324.0,1
12.0,-221.0,-94.0,-632.0,-351.0,-336.0,1
22.0,-225.0,-94.0,-668.0,-349.0,-346.0,1
31.0,-229.0,-87.0,-697.0,-334.0,-364.0,1
28.0,-234.0,-98.0,-722.0,-322.0,-366.0,1
38.0,-242.0,-99.0,-749.0,-310.0,-360.0,1
51.0,-242.0,-103.0,-772.0,-302.0,-363.0,1
57.0,-241.0,-104.0,-780.0,-278.0,-379.0,1
66.0,-244.0,-102.0,-778.0,-242.0,-391.0,1
67.0,-239.0,-105.0,-766.0,-199.0,-400.0,1
72.0,-238.0,-98.0,-747.0,-166.0,-400.0,1
74.0,-236.0,-99.0,-721.0,-135.0,-395.0,1
67.0,-227.0,-99.0,-696.0,-102.0,-393.0,1
70.0,-229.0,-100.0,-676.0,-67.0,-386.0,1
66.0,-221.0,-97.0,-654.0,-33.0,-398.0,1
61.0,-225.0,-101.0,-633.0,-5.0,-403.0,1
52.0,-236.0,-95.0,-619.0,20.0,-404.0,1
41.0,-235.0,-92.0,-574.0,40.0,-442.0,1
35.0,-227.0,-93.0,-559.0,24.0,-450.0,1
36.0,-228.0,-101.0,-603.0,35.0,-399.0,1
39.0,-227.0,-97.0,-646.0,50.0,-360.0,1
37.0,-234.0,-92.0,-684.0,65.0,-355.0,1
35.0,-239.0,-89.0,-694.0,71.0,-371.0,1
28.0,-246.0,-92.0,-671.0,62.0,-378.0,1
22.0,-254.0,-96.0,-643.0,47.0,-367.0,1
23.0,-261.0,-106.0,-641.0,26.0,-345.0,1
20.0,-267.0,-95.0,-659.0,6.0,-324.0,1
16.0,-276.0,-93.0,-669.0,-2.0,-305.0,1
15.0,-277.0,-96.0,-670.0,-5.0,-288.0,1
15.0,-287.0,-95.0,-658.0,-7.0,-276.0,1
13.0,-293.0,-93.0,-630.0,-11.0,-269.0,1
14.0,-300.0,-96.0,-591.0,-25.0,-260.0,1
19.0,-309.0,-95.0,-547.0,-51.0,-266.0,1
28.0,-313.0,-92.0,-503.0,-76.0,-272.0,1
25.0,-322.0,-93.0,-467.0,-82.0,-286.0,1
32.0,-323.0,-91.0,-438.0,-73.0,-298.0,1
39.0,-318.0,-92.0,-415.0,-54.0,-292.0,1
47.0,-319.0,-92.0,-398.0,-34.0,-270.0,1
43.0,-319.0,-97.0,-370.0,-18.0,-250.0,1
45.0,-317.0,-87.0,-328.0,-2.0,-233.0,1
43.0,-320.0,-85.0,-280.0,10.0,-215.0,1
43.0,-320.0,-80.0,-231.0,19.0,-195.0,1
33.0,-321.0,-87.0,-175.0,16.0,-186.0,1
37.0,-321.0,-81.0,-149.0,30.0,-155.0,1
34.0,-322.0,-74.0,-137.0,59.0,-121.0,1
36.0,-324.0,-71.0,-125.0,70.0,-104.0,1
54.0,-328.0,-57.0,-95.0,65.0,-102.0,1
39.0,-326.0,-64.0,-31.0,52.0,-123.0,1
27.0,-320.0,-65.0,3.0,70.0,-98.0,1
37.0,-316.0,-54.0,-11.0,112.0,-35.0,1
47.0,-311.0,-49.0,-23.0,139.0,-2.0,1
71.0,-306.0,-33.0,-23.0,155.0,-2.0,1
51.0,-298.0,-48.0,16.0,127.0,-46.0,1
45.0,-286.0,-49.0,33.0,139.0,-61.0,1
50.0,-283.0,-28.0,54.0,186.0,-46.0,1
50.0,-260.0,-33.0,113.0,209.0,-88.0,1
52.0,-248.0,-37.0,204.0,225.0,-114.0,1
48.0,-242.0,-37.0,289.0,266.0,-102.0,1
51.0,-229.0,-34.0,370.0,289.0,-88.0,1
48.0,-216.0,-29.0,450.0,283.0,-99.0,1
36.0,-196.0,-21.0,538.0,261.0,-124.0,1
38.0,-181.0,-16.0,634.0,216.0,-120.0,1
21.0,-163.0,-10.0,745.0,159.0,-112.0,1
26.0,-142.0,2.0,864.0,101.0,-90.0,1
26.0,-125.0,10.0,989.0,39.0,-79.0,1
32.0,-100.0,0.0,1101.0,-26.0,-81.0,1
27.0,-87.0,-24.0,1180.0,-73.0,-92.0,1
31.0,-69.0,-58.0,1181.0,-97.0,-52.0,1
49.0,-55.0,-101.0,1098.0,-100.0,21.0,1
51.0,-42.0,-144.0,937.0,-85.0,88.0,1
61.0,-28.0,-191.0,689.0,-49.0,142.0,1
61.0,-16.0,-234.0,342.0,22.0,176.0,1
45.0,-9.0,-275.0,-77.0,105.0,207.0,1
39.0,-20.0,-286.0,-529.0,195.0,257.0,1
52.0,-52.0,-283.0,-929.0,279.0,295.0,1
78.0,-97.0,-268.0,-1206.0,354.0,279.0,1
89.0,-155.0,-234.0,-1355.0,405.0,186.0,1
94.0,-225.0,-203.0,-1390.0,432.0,66.0,1
91.0,-291.0,-171.0,-1331.0,475.0,-63.0,1
85.0,-353.0,-139.0,-1174.0,590.0,-197.0,1
69.0,-399.0,-126.0,-928.0,794.0,-313.0,1
48.0,-421.0,-119.0,-628.0,1051.0,-365.0,1
11.0,-404.0,-139.0,-309.0,1299.0,-345.0,1
-1.0,-369.0,-167.0,-19.0,1467.0,-245.0,1
-15.0,-293.0,-210.0,248.0,1527.0,-103.0,1
-32.0,-228.0,-235.0,471.0,1482.0,26.0,1
-42.0,-172.0,-248.0,635.0,1373.0,129.0,1
-45.0,-136.0,-240.0,727.0,1237.0,202.0,1
-50.0,-129.0,-220.0,724.0,1092.0,235.0,1
-36.0,-126.0,-198.0,672.0,972.0,246.0,1
-14.0,-141.0,-186.0,583.0,869.0,245.0,1
16.0,-164.0,-175.0,439.0,767.0,228.0,1
42.0,-198.0,-167.0,222.0,651.0,196.0,1
48.0,-249.0,-157.0,-68.0,518.0,162.0,1
68.0,-314.0,-149.0,-375.0,370.0,148.0,1
60.0,-376.0,-146.0,-612.0,232.0,147.0,1
50.0,-432.0,-149.0,-762.0,85.0,195.0,1
47.0,-489.0,-158.0,-827.0,-20.0,312.0,1
51.0,-535.0,-184.0,-798.0,-68.0,430.0,1
39.0,-574.0,-175.0,-699.0,-65.0,526.0,1
39.0,-586.0,-176.0,-468.0,-74.0,621.0,1
28.0,-597.0,-177.0,-148.0,-71.0,640.0,1
24.0,-594.0,-163.0,174.0,-60.0,576.0,1
6.0,-584.0,-152.0,402.0,-49.0,495.0,1
4.0,-578.0,-133.0,500.0,-72.0,452.0,1
-11.0,-561.0,-118.0,499.0,-146.0,463.0,1
34.0,-552.0,-113.0,419.0,-267.0,535.0,1
36.0,-518.0,-95.0,276.0,-332.0,568.0,1
19.0,-511.0,-75.0,168.0,-396.0,612.0,1
9.0,-496.0,-67.0,197.0,-505.0,631.0,1
1.0,-464.0,-80.0,271.0,-625.0,652.0,1
-5.0,-430.0,-84.0,308.0,-671.0,652.0,1
-23.0,-395.0,-81.0,313.0,-647.0,639.0,1
-5.0,-351.0,-97.0,273.0,-623.0,696.0,1
14.0,-315.0,-101.0,146.0,-578.0,761.0,1
15.0,-314.0,-114.0,-21.0,-591.0,796.0,1
1.0,-299.0,-123.0,-142.0,-643.0,812.0,1
-5.0,-291.0,-139.0,-209.0,-728.0,823.0,1
-16.0,-280.0,-146.0,-259.0,-774.0,810.0,1
-63.0,-268.0,-123.0,-272.0,-803.0,753.0,1
-95.0,-246.0,-100.0,-204.0,-787.0,712.0,1
-89.0,-225.0,-106.0,-120.0,-787.0,649.0,1
-114.0,-206.0,-76.0,-91.0,-790.0,578.0,1
-95.0,-194.0,-65.0,-89.0,-812.0,477.0,1
-106.0,-168.0,-72.0,-26.0,-791.0,386.0,1
-113.0,-140.0,-66.0,29.0,-785.0,324.0,1
-108.0,-121.0,-59.0,46.0,-798.0,322.0,1
-96.0,-102.0,-59.0,48.0,-834.0,350.0,1
-71.0,-72.0,-72.0,31.0,-853.0,366.0,1
-32.0,-43.0,-85.0,15.0,-833.0,359.0,1
13.0,-5.0,-107.0,-16.0,-793.0,317.0,1
52.0,39.0,-107.0,-57.0,-754.0,232.0,1
92.0,74.0,-120.0,-110.0,-713.0,131.0,1
99.0,100.0,-100.0,-220.0,-664.0,-27.0,1
103.0,107.0,-75.0,-355.0,-657.0,-195.0,1
101.0,93.0,-57.0,-500.0,-662.0,-335.0,1
69.0,66.0,-26.0,-680.0,-649.0,-440.0,1
41.0,32.0,4.0,-851.0,-623.0,-468.0,1
42.0,-9.0,26.0,-963.0,-608.0,-424.0,1
31.0,-41.0,32.0,-983.0,-599.0,-349.0,1
30.0,-85.0,39.0,-935.0,-603.0,-247.0,1
30.0,-114.0,42.0,-830.0,-595.0,-157.0,1
16.0,-123.0,29.0,-665.0,-556.0,-116.0,1
9.0,-116.0,24.0,-463.0,-489.0,-83.0,1
3.0,-102.0,30.0,-244.0,-381.0,-40.0,1
-1.0,-87.0,35.0,16.0,-293.0,-4.0,1
0.0,-55.0,20.0,303.0,-239.0,17.0,1
2.0,-35.0,-10.0,529.0,-208.0,48.0,1
0.0,-17.0,-36.0,657.0,-222.0,64.0,1
-23.0,8.0,-62.0,693.0,-262.0,59.0,1
-59.0,20.0,-78.0,636.0,-310.0,62.0,1
-80.0,34.0,-96.0,485.0,-358.0,91.0,1
-89.0,39.0,-130.0,213.0,-394.0,133.0,1
-84.0,41.0,-164.0,-171.0,-465.0,160.0,1
-63.0,21.0,-213.0,-632.0,-589.0,138.0,1
-12.0,-11.0,-246.0,-1160.0,-747.0,57.0,1
15.0,-80.0,-280.0,-1716.0,-881.0,-32.0,1
37.0,-176.0,-300.0,-2199.0,-937.0,-48.0,1
62.0,-291.0,-273.0,-2446.0,-879.0,38.0,1
78.0,-406.0,-218.0,-2322.0,-702.0,195.0,1
82.0,-518.0,-158.0,-1779.0,-441.0,321.0,1
54.0,-547.0,-105.0,-909.0,-135.0,333.0,1
-7.0,-495.0,-114.0,131.0,113.0,257.0,1
-42.0,-419.0,-188.0,1079.0,182.0,138.0,1
-53.0,-326.0,-300.0,1640.0,124.0,-13.0,1
-54.0,-248.0,-388.0,1679.0,103.0,-147.0,1
-56.0,-214.0,-435.0,1288.0,180.0,-244.0,1
-70.0,-241.0,-395.0,701.0,311.0,-296.0,1
-88.0,-319.0,-314.0,229.0,406.0,-332.0,1
-102.0,-416.0,-243.0,26.0,443.0,-354.0,1
-104.0,-505.0,-185.0,82.0,451.0,-365.0,1
-97.0,-568.0,-182.0,312.0,462.0,-401.0,1
-102.0,-575.0,-194.0,533.0,482.0,-491.0,1
-123.0,-593.0,-215.0,611.0,499.0,-589.0,1
-124.0,-619.0,-215.0,550.0,463.0,-631.0,1
-87.0,-641.0,-203.0,410.0,415.0,-647.0,1
-54.0,-664.0,-174.0,309.0,434.0,-673.0,1
-29.0,-680.0,-178.0,297.0,472.0,-705.0,1
-1.0,-668.0,-155.0,286.0,538.0,-748.0,1
52.0,-641.0,-135.0,347.0,558.0,-790.0,1
75.0,-606.0,-153.0,460.0,522.0,-833.0,1
80.0,-575.0,-136.0,487.0,572.0,-812.0,1
99.0,-542.0,-114.0,489.0,704.0,-728.0,1
101.0,-510.0,-94.0,485.0,879.0,-635.0,1
114.0,-494.0,-86.0,460.0,1022.0,-556.0,1
125.0,-455.0,-76.0,415.0,1053.0,-539.0,1
123.0,-405.0,-78.0,450.0,1033.0,-523.0,1
132.0,-365.0,-75.0,579.0,944.0,-483.0,1
139.0,-316.0,-109.0,768.0,761.0,-418.0,1
128.0,-301.0,-130.0,1005.0,724.0,-451.0,1
109.0,-269.0,-151.0,1218.0,838.0,-593.0,1
109.0,-276.0,-141.0,1256.0,1032.0,-688.0,1
62.0,-250.0,-102.0,1135.0,1185.0,-816.0,1
15.0,-229.0,-60.0,970.0,1280.0,-955.0,1
20.0,-216.0,-47.0,922.0,1258.0,-892.0,1
15.0,-186.0,-51.0,1011.0,1229.0,-746.0,1
3.0,-145.0,-79.0,1150.0,1213.0,-588.0,1
-36.0,-108.0,-116.0,1229.0,1179.0,-462.0,1
-42.0,-49.0,-155.0,1248.0,1069.0,-270.0,1
-76.0,5.0,-163.0,1214.0,961.0,-80.0,1
-85.0,41.0,-152.0,1156.0,875.0,89.0,1
-89.0,83.0,-137.0,1100.0,857.0,223.0,1
-128.0,124.0,-101.0,1045.0,917.0,273.0,1
-113.0,147.0,-103.0,1064.0,922.0,426.0,1
-66.0,139.0,-88.0,1040.0,938.0,600.0,1
-44.0,114.0,-63.0,985.0,1003.0,657.0,1
-1.0,71.0,-46.0,927.0,1070.0,668.0,1
24.0,30.0,-33.0,821.0,1116.0,641.0,1
51.0,-4.0,-37.0,708.0,1127.0,587.0,1
81.0,-37.0,-63.0,605.0,1147.0,534.0,1
98.0,-51.0,-90.0,491.0,1169.0,462.0,1
100.0,-54.0,-114.0,355.0,1182.0,371.0,1
83.0,-50.0,-124.0,196.0,1181.0,269.0,1
55.0,-37.0,-131.0,36.0,1155.0,171.0,1
20.0,-27.0,-125.0,-99.0,1106.0,101.0,1
-28.0,-19.0,-102.0,-173.0,1039.0,49.0,1
-71.0,-18.0,-66.0,-161.0,952.0,25.0,1
-88.0,-35.0,-40.0,-78.0,848.0,21.0,1
-97.0,-51.0,-11.0,27.0,763.0,-16.0,1
-102.0,-60.0,7.0,144.0,690.0,-74.0,1
-97.0,-73.0,-1.0,216.0,592.0,-142.0,1
-111.0,-71.0,-31.0,232.0,513.0,-213.0,1
-123.0,-52.0,-90.0,169.0,480.0,-266.0,1
-125.0,-5.0,-170.0,-23.0,556.0,-249.0,1
-104.0,44.0,-242.0,-347.0,772.0,-136.0,1
-12.0,67.0,-330.0,-790.0,1027.0,6.0,1
69.0,9.0,-343.0,-1388.0,1173.0,57.0,1
147.0,-101.0,-358.0,-2008.0,971.0,-98.0,1
179.0,-250.0,-340.0,-2490.0,428.0,-530.0,1
120.0,-368.0,-285.0,-2701.0,-153.0,-1116.0,1
63.0,-503.0,-192.0,-2510.0,-448.0,-1492.0,1
81.0,-677.0,-74.0,-1870.0,-416.0,-1468.0,1
108.0,-749.0,-48.0,-807.0,-304.0,-1192.0,1
121.0,-702.0,-111.0,453.0,-218.0,-773.0,1
128.0,-586.0,-219.0,1590.0,-150.0,-341.0,1
103.0,-476.0,-306.0,2349.0,-101.0,-55.0,1
57.0,-408.0,-339.0,2584.0,-166.0,46.0,1
41.0,-396.0,-280.0,2422.0,-321.0,81.0,1
35.0,-422.0,-162.0,2130.0,-524.0,104.0,1
48.0,-485.0,-54.0,1977.0,-707.0,169.0,1
53.0,-510.0,16.0,2029.0,-803.0,311.0,1
51.0,-523.0,22.0,2142.0,-823.0,496.0,1
43.0,-509.0,-15.0,2117.0,-768.0,710.0,1
41.0,-490.0,-52.0,1788.0,-705.0,898.0,1
27.0,-472.0,-75.0,1216.0,-768.0,1035.0,1
47.0,-452.0,-86.0,612.0,-788.0,1146.0,1
72.0,-449.0,-81.0,89.0,-761.0,1195.0,1
36.0,-422.0,-56.0,-293.0,-741.0,1146.0,1
48.0,-449.0,-27.0,-508.0,-775.0,1210.0,1
31.0,-461.0,-17.0,-501.0,-795.0,1308.0,1
29.0,-497.0,-23.0,-373.0,-808.0,1414.0,1
6.0,-504.0,-29.0,-208.0,-805.0,1433.0,1
-10.0,-511.0,-40.0,-23.0,-827.0,1415.0,1
-35.0,-514.0,-56.0,184.0,-867.0,1336.0,1
-103.0,-478.0,-83.0,367.0,-957.0,1205.0,1
-121.0,-437.0,-104.0,491.0,-993.0,1175.0,1
-142.0,-380.0,-92.0,564.0,-939.0,1121.0,1
-183.0,-322.0,-67.0,591.0,-862.0,1063.0,1
-196.0,-271.0,-77.0,617.0,-876.0,1116.0,1
-145.0,-223.0,-131.0,651.0,-890.0,1171.0,1
-81.0,-173.0,-159.0,639.0,-890.0,1082.0,1
-27.0,-89.0,-161.0,631.0,-993.0,867.0,1
-42.0,10.0,-154.0,788.0,-1131.0,611.0,1
-30.0,44.0,-152.0,991.0,-1241.0,417.0,1
7.0,76.0,-120.0,1029.0,-1355.0,359.0,1
-2.0,76.0,-80.0,913.0,-1481.0,320.0,1
-19.0,68.0,-71.0,812.0,-1593.0,277.0,1
-13.0,66.0,-80.0,814.0,-1667.0,301.0,1
-26.0,66.0,-113.0,872.0,-1649.0,340.0,1
-30.0,57.0,-134.0,905.0,-1559.0,308.0,1
-32.0,53.0,-153.0,857.0,-1460.0,227.0,1
-19.0,40.0,-150.0,685.0,-1393.0,131.0,1
-36.0,22.0,-142.0,446.0,-1360.0,24.0,1
-2.0,-9.0,-137.0,250.0,-1355.0,-24.0,1
34.0,-31.0,-119.0,145.0,-1300.0,-15.0,1
50.0,-35.0,-109.0,180.0,-1182.0,19.0,1
52.0,-24.0,-105.0,340.0,-1044.0,92.0,1
54.0,-5.0,-108.0,531.0,-946.0,178.0,1
36.0,18.0,-113.0,664.0,-923.0,245.0,1
17.0,45.0,-118.0,690.0,-988.0,301.0,1
12.0,54.0,-112.0,595.0,-1099.0,317.0,1
3.0,70.0,-96.0,432.0,-1184.0,333.0,1
-1.0,65.0,-79.0,273.0,-1223.0,387.0,1
-7.0,47.0,-68.0,174.0,-1285.0,411.0,1
15.0,40.0,-67.0,128.0,-1359.0,361.0,1
29.0,32.0,-56.0,130.0,-1359.0,253.0,1
36.0,28.0,-50.0,153.0,-1252.0,176.0,1
50.0,15.0,-30.0,143.0,-1115.0,173.0,1
84.0,-16.0,-13.0,79.0,-999.0,203.0,1
126.0,-48.0,-4.0,-14.0,-882.0,206.0,1
156.0,-67.0,-6.0,-126.0,-751.0,164.0,1
169.0,-83.0,-9.0,-274.0,-682.0,103.0,1
158.0,-100.0,-45.0,-435.0,-745.0,26.0,1
131.0,-111.0,-139.0,-618.0,-861.0,11.0,1
114.0,-112.0,-258.0,-831.0,-896.0,91.0,1
78.0,-130.0,-353.0,-1089.0,-705.0,217.0,1
19.0,-199.0,-360.0,-1340.0,-293.0,381.0,1
-10.0,-311.0,-302.0,-1387.0,211.0,563.0,1
-3.0,-446.0,-212.0,-1093.0,717.0,747.0,1
-2.0,-597.0,-124.0,-531.0,1089.0,870.0,1
-24.0,-711.0,-63.0,84.0,1114.0,885.0,1
-75.0,-744.0,-38.0,604.0,832.0,813.0,1
-103.0,-673.0,-112.0,978.0,527.0,709.0,1
-129.0,-588.0,-202.0,1114.0,394.0,560.0,1
-171.0,-513.0,-294.0,1003.0,363.0,383.0,1
-191.0,-492.0,-327.0,672.0,403.0,299.0,1
-196.0,-543.0,-258.0,284.0,577.0,357.0,1
-195.0,-633.0,-154.0,126.0,838.0,413.0,1
-135.0,-736.0,-81.0,235.0,1030.0,349.0,1
-70.0,-794.0,-53.0,466.0,1100.0,66.0,1
-51.0,-796.0,-63.0,681.0,1024.0,-320.0,1
-7.0,-770.0,-86.0,823.0,825.0,-592.0,1
35.0,-757.0,-92.0,841.0,637.0,-692.0,1
64.0,-741.0,-94.0,798.0,500.0,-694.0,1
84.0,-740.0,-60.0,746.0,469.0,-682.0,1
95.0,-726.0,-42.0,754.0,537.0,-644.0,1
95.0,-701.0,-32.0,787.0,677.0,-538.0,1
83.0,-646.0,-24.0,787.0,799.0,-426.0,1
69.0,-565.0,-34.0,759.0,873.0,-347.0,1
54.0,-490.0,-25.0,739.0,952.0,-296.0,1
39.0,-428.0,-32.0,757.0,1040.0,-263.0,1
26.0,-380.0,-47.0,766.0,1103.0,-268.0,1
-4.0,-337.0,-60.0,704.0,1126.0,-313.0,1
-5.0,-296.0,-78.0,563.0,1089.0,-326.0,1
26.0,-277.0,-70.0,429.0,1038.0,-317.0,1
8.0,-265.0,-63.0,349.0,1010.0,-379.0,1
25.0,-240.0,-54.0,306.0,921.0,-403.0,1
21.0,-202.0,-55.0,342.0,853.0,-317.0,1
43.0,-188.0,-47.0,438.0,841.0,-215.0,1
11.0,-142.0,-83.0,642.0,881.0,-278.0,1
11.0,-86.0,-98.0,810.0,935.0,-236.0,1
-17.0,-1.0,-94.0,867.0,915.0,-142.0,1
-2.0,32.0,-66.0,900.0,860.0,80.0,1
-14.0,57.0,-33.0,942.0,909.0,224.0,1
-31.0,70.0,-5.0,930.0,955.0,228.0,1
-21.0,80.0,7.0,891.0,915.0,189.0,1
-1.0,98.0,4.0,884.0,810.0,165.0,1
-11.0,111.0,-10.0,910.0,704.0,95.0,1
-21.0,116.0,-16.0,924.0,605.0,22.0,1
-43.0,94.0,-17.0,927.0,535.0,-45.0,1
-67.0,64.0,-10.0,954.0,489.0,-81.0,1
-61.0,35.0,-21.0,997.0,463.0,-36.0,1
-72.0,6.0,-34.0,973.0,476.0,36.0,1
-54.0,-31.0,-38.0,902.0,499.0,165.0,1
-26.0,-68.0,-39.0,795.0,555.0,305.0,1
-14.0,-72.0,-38.0,682.0,609.0,371.0,1
-13.0,-50.0,-36.0,590.0,632.0,362.0,1
11.0,-23.0,-54.0,502.0,617.0,329.0,1
32.0,8.0,-63.0,415.0,572.0,270.0,1
39.0,39.0,-80.0,339.0,502.0,203.0,1
47.0,60.0,-103.0,282.0,410.0,148.0,1
48.0,74.0,-130.0,243.0,315.0,110.0,1
44.0,79.0,-147.0,211.0,251.0,103.0,1
52.0,71.0,-152.0,174.0,232.0,142.0,1
53.0,50.0,-141.0,138.0,258.0,206.0,1
44.0,22.0,-122.0,116.0,298.0,280.0,1
35.0,-4.0,-104.0,123.0,325.0,348.0,1
23.0,-28.0,-102.0,148.0,339.0,390.0,1
6.0,-32.0,-107.0,166.0,363.0,398.0,1
-6.0,-31.0,-100.0,156.0,395.0,389.0,1
-15.0,-31.0,-90.0,128.0,419.0,364.0,1
-17.0,-35.0,-64.0,118.0,425.0,330.0,1
-19.0,-41.0,-54.0,137.0,403.0,282.0,1
0.0,-54.0,-56.0,146.0,371.0,220.0,1
55.0,-74.0,-80.0,59.0,394.0,131.0,1
102.0,-104.0,-107.0,-195.0,544.0,16.0,1
122.0,-179.0,-150.0,-590.0,828.0,-98.0,1
148.0,-241.0,-287.0,-1034.0,1107.0,-157.0,1
189.0,-274.0,-606.0,-1614.0,1208.0,-212.0,1
213.0,-298.0,-877.0,-2628.0,1139.0,-349.0,1
221.0,-385.0,-837.0,-3864.0,1112.0,-626.0,1
214.0,-578.0,-430.0,-4548.0,1249.0,-1012.0,1
255.0,-1044.0,39.0,-3984.0,1460.0,-1514.0,1
25.0,-1282.0,204.0,-2344.0,1462.0,-2374.0,1
-251.0,-1133.0,62.0,-191.0,1583.0,-2777.0,1
-247.0,-800.0,-300.0,1685.0,1713.0,-1932.0,1
-217.0,-535.0,-475.0,2410.0,1688.0,-670.0,1
-312.0,-412.0,-435.0,2197.0,1424.0,108.0,1
-393.0,-393.0,-289.0,1740.0,781.0,329.0,1
-367.0,-444.0,-195.0,1453.0,-21.0,256.0,1
-270.0,-512.0,-162.0,1254.0,-636.0,37.0,1
-192.0,-532.0,-133.0,984.0,-914.0,-189.0,1
-109.0,-532.0,-88.0,737.0,-899.0,-224.0,1
-32.0,-517.0,-48.0,608.0,-713.0,-90.0,1
73.0,-499.0,-18.0,538.0,-451.0,112.0,1
169.0,-488.0,0.0,452.0,-181.0,284.0,1
256.0,-473.0,-12.0,351.0,-33.0,384.0,1
328.0,-457.0,-31.0,170.0,36.0,383.0,1
376.0,-446.0,-31.0,-97.0,119.0,275.0,1
317.0,-420.0,-30.0,-315.0,301.0,138.0,1
303.0,-414.0,-17.0,-397.0,532.0,128.0,1
250.0,-390.0,-27.0,-344.0,788.0,203.0,1
188.0,-384.0,-31.0,-245.0,1006.0,354.0,1
185.0,-400.0,-35.0,-135.0,1146.0,580.0,1
165.0,-401.0,-43.0,-60.0,1264.0,754.0,1
98.0,-389.0,-27.0,-19.0,1400.0,897.0,1
47.0,-353.0,-18.0,61.0,1454.0,1043.0,1
53.0,-335.0,-18.0,176.0,1495.0,1182.0,1
22.0,-293.0,-24.0,320.0,1547.0,1191.0,1
-36.0,-223.0,-44.0,473.0,1578.0,1150.0,1
-20.0,-175.0,-55.0,574.0,1583.0,1158.0,1
-19.0,-104.0,-74.0,632.0,1627.0,1127.0,1
-17.0,-43.0,-84.0,674.0,1688.0,1040.0,1
-17.0,21.0,-76.0,719.0,1735.0,996.0,1
-14.0,82.0,-76.0,749.0,1730.0,1015.0,1
-34.0,120.0,-73.0,742.0,1694.0,1066.0,1
-35.0,134.0,-71.0,675.0,1664.0,1147.0,1
-53.0,140.0,-53.0,554.0,1649.0,1214.0,1
-66.0,144.0,-27.0,441.0,1662.0,1229.0,1
-55.0,170.0,-3.0,380.0,1720.0,1209.0,1
-18.0,166.0,4.0,282.0,1749.0,1170.0,1
33.0,146.0,-23.0,98.0,1719.0,1097.0,1
33.0,115.0,-24.0,-169.0,1653.0,905.0,1
62.0,52.0,-40.0,-500.0,1497.0,701.0,1
76.0,-28.0,-26.0,-835.0,1329.0,478.0,1
80.0,-79.0,-19.0,-1041.0,1248.0,261.0,1
89.0,-100.0,-14.0,-1038.0,1310.0,125.0,1
99.0,-104.0,-11.0,-853.0,1462.0,66.0,1
104.0,-88.0,-23.0,-535.0,1627.0,37.0,1
107.0,-54.0,-42.0,-161.0,1774.0,38.0,1
95.0,-13.0,-51.0,170.0,1900.0,68.0,1
62.0,18.0,-50.0,404.0,1992.0,111.0,1
23.0,37.0,-52.0,553.0,2046.0,149.0,1
-28.0,49.0,-54.0,652.0,2053.0,191.0,1
-82.0,44.0,-58.0,719.0,1997.0,240.0,1
-134.0,52.0,-81.0,778.0,1873.0,273.0,1
-180.0,60.0,-114.0,800.0,1709.0,303.0,1
-202.0,66.0,-161.0,756.0,1530.0,327.0,1
-212.0,65.0,-216.0,583.0,1359.0,357.0,1
-198.0,49.0,-257.0,287.0,1193.0,388.0,1
-176.0,28.0,-254.0,-42.0,1030.0,394.0,1
-139.0,2.0,-213.0,-324.0,883.0,372.0,1
-121.0,-25.0,-138.0,-515.0,753.0,324.0,1
-96.0,-58.0,-83.0,-642.0,633.0,264.0,1
-53.0,-83.0,-35.0,-637.0,557.0,244.0,1
3.0,-114.0,-49.0,-561.0,526.0,241.0,1
84.0,-153.0,-105.0,-570.0,553.0,212.0,1
154.0,-229.0,-80.0,-715.0,663.0,177.0,1
231.0,-326.0,-126.0,-633.0,652.0,153.0,1
286.0,-357.0,-402.0,-376.0,360.0,81.0,1
315.0,-371.0,-551.0,-688.0,-87.0,-61.0,1
242.0,-436.0,-400.0,-1426.0,-380.0,-181.0,1
104.0,-555.0,-230.0,-1695.0,-442.0,-20.0,1
-36.0,-670.0,-188.0,-1272.0,-255.0,628.0,1
-116.0,-810.0,-190.0,-627.0,215.0,1639.0,1
-117.0,-935.0,-171.0,-166.0,731.0,2484.0,1
-115.0,-969.0,-264.0,36.0,956.0,2673.0,1
-68.0,-935.0,-296.0,-120.0,908.0,2233.0,1
139.0,-815.0,-276.0,-253.0,842.0,1377.0,1
260.0,-732.0,-309.0,99.0,896.0,433.0,1
313.0,-701.0,-309.0,660.0,1054.0,-216.0,1
321.0,-664.0,-256.0,990.0,1305.0,-479.0,1
316.0,-632.0,-135.0,1033.0,1593.0,-424.0,1
307.0,-611.0,-46.0,932.0,1754.0,-207.0,1
285.0,-582.0,-8.0,833.0,1809.0,47.0,1
246.0,-550.0,-16.0,685.0,1829.0,235.0,1
182.0,-516.0,-29.0,467.0,1869.0,313.0,1
110.0,-502.0,-53.0,260.0,1979.0,356.0,1
68.0,-462.0,-95.0,118.0,2058.0,413.0,1
64.0,-418.0,-133.0,1.0,2092.0,494.0,1
56.0,-383.0,-116.0,-152.0,2191.0,622.0,1
66.0,-374.0,-91.0,-285.0,2299.0,786.0,1
57.0,-378.0,-93.0,-353.0,2304.0,883.0,1
42.0,-389.0,-105.0,-385.0,2172.0,907.0,1
23.0,-410.0,-108.0,-390.0,1954.0,871.0,1
14.0,-434.0,-108.0,-340.0,1745.0,855.0,1
24.0,-462.0,-108.0,-293.0,1664.0,895.0,1
45.0,-478.0,-86.0,-245.0,1725.0,928.0,1
57.0,-475.0,-63.0,-194.0,1824.0,914.0,1
87.0,-447.0,-54.0,-59.0,1883.0,921.0,1
110.0,-398.0,-65.0,88.0,1862.0,905.0,1
84.0,-319.0,-55.0,219.0,1807.0,853.0,1
89.0,-256.0,-38.0,359.0,1712.0,839.0,1
70.0,-199.0,-11.0,493.0,1646.0,775.0,1
29.0,-143.0,-19.0,608.0,1596.0,637.0,1
33.0,-101.0,-18.0,676.0,1542.0,556.0,1
50.0,-55.0,-21.0,686.0,1521.0,532.0,1
9.0,-16.0,-24.0,631.0,1501.0,462.0,1
-10.0,16.0,-24.0,555.0,1385.0,434.0,1
-17.0,29.0,-41.0,497.0,1261.0,481.0,1
-43.0,42.0,-30.0,443.0,1217.0,483.0,1
-88.0,55.0,-19.0,414.0,1215.0,456.0,1
-105.0,52.0,-14.0,405.0,1210.0,477.0,1
-127.0,34.0,3.0,390.0,1231.0,508.0,1
-111.0,30.0,7.0,419.0,1275.0,577.0,1
-67.0,20.0,0.0,454.0,1342.0,662.0,1
-18.0,29.0,-3.0,477.0,1416.0,717.0,1
33.0,43.0,-22.0,509.0,1487.0,739.0,1
69.0,56.0,-50.0,518.0,1560.0,734.0,1
95.0,57.0,-69.0,500.0,1640.0,732.0,1
114.0,58.0,-90.0,461.0,1723.0,738.0,1
120.0,59.0,-103.0,402.0,1805.0,744.0,1
121.0,58.0,-125.0,326.0,1866.0,751.0,1
128.0,43.0,-133.0,201.0,1891.0,787.0,1
113.0,45.0,-142.0,79.0,1886.0,823.0,1
99.0,27.0,-142.0,-27.0,1833.0,888.0,1
74.0,21.0,-138.0,-93.0,1738.0,979.0,1
52.0,3.0,-115.0,-102.0,1604.0,1082.0,1
39.0,-8.0,-107.0,-43.0,1452.0,1201.0,1
28.0,-14.0,-96.0,76.0,1298.0,1298.0,1
24.0,-23.0,-97.0,198.0,1174.0,1363.0,1
14.0,-25.0,-90.0,245.0,1107.0,1377.0,1
0.0,-25.0,-83.0,223.0,1098.0,1337.0,1
-18.0,-45.0,-53.0,197.0,1185.0,1281.0,1
-28.0,-68.0,-29.0,234.0,1302.0,1217.0,1
-9.0,-105.0,-19.0,361.0,1412.0,1112.0,1
18.0,-148.0,-17.0,495.0,1475.0,973.0,1
36.0,-215.0,-22.0,544.0,1424.0,796.0,1
56.0,-274.0,-86.0,452.0,1165.0,594.0,1
55.0,-334.0,-203.0,103.0,673.0,373.0,1
14.0,-405.0,-353.0,-649.0,45.0,147.0,1
-54.0,-506.0,-430.0,-1728.0,-488.0,21.0,1
-147.0,-623.0,-437.0,-2625.0,-638.0,89.0,1
-203.0,-770.0,-389.0,-2903.0,-377.0,362.0,1
-205.0,-919.0,-384.0,-2373.0,97.0,649.0,1
-145.0,-1062.0,-385.0,-1394.0,626.0,655.0,1
-87.0,-1071.0,-253.0,-521.0,1094.0,245.0,1
-65.0,-922.0,-154.0,140.0,1310.0,-249.0,1
7.0,-783.0,-203.0,607.0,1210.0,-415.0,1
69.0,-674.0,-259.0,538.0,997.0,-293.0,1
140.0,-615.0,-234.0,37.0,851.0,-55.0,1
207.0,-611.0,-158.0,-477.0,826.0,129.0,1
211.0,-612.0,-103.0,-633.0,890.0,199.0,1
142.0,-579.0,-83.0,-479.0,957.0,216.0,1
85.0,-527.0,-103.0,-270.0,986.0,271.0,1
69.0,-475.0,-113.0,-162.0,1088.0,356.0,1
56.0,-432.0,-119.0,-90.0,1313.0,438.0,1
53.0,-399.0,-120.0,-35.0,1543.0,535.0,1
47.0,-382.0,-106.0,-47.0,1678.0,646.0,1
51.0,-389.0,-106.0,-130.0,1678.0,770.0,1
73.0,-407.0,-112.0,-223.0,1689.0,844.0,1
7.0,-392.0,-119.0,-239.0,1770.0,819.0,1
1.0,-398.0,-146.0,-195.0,1810.0,824.0,1
6.0,-403.0,-152.0,-104.0,1873.0,820.0,1
-40.0,-367.0,-152.0,106.0,2009.0,756.0,1
-85.0,-298.0,-146.0,327.0,2101.0,765.0,1
-90.0,-242.0,-129.0,443.0,2123.0,858.0,1
-82.0,-170.0,-105.0,587.0,2130.0,872.0,1
-112.0,-88.0,-95.0,775.0,2130.0,853.0,1
-98.0,-19.0,-82.0,882.0,2123.0,968.0,1
-43.0,25.0,-77.0,893.0,2099.0,1059.0,1
-30.0,83.0,-84.0,877.0,2048.0,989.0,1
-15.0,120.0,-109.0,837.0,1974.0,890.0,1
25.0,178.0,-138.0,750.0,1908.0,763.0,1
13.0,190.0,-148.0,577.0,1862.0,654.0,1
-37.0,192.0,-131.0,398.0,1809.0,555.0,1
-102.0,183.0,-108.0,265.0,1713.0,491.0,1
-120.0,160.0,-99.0,175.0,1581.0,472.0,1
-128.0,144.0,-92.0,32.0,1492.0,463.0,1
-129.0,102.0,-89.0,-174.0,1432.0,485.0,1
-97.0,29.0,-62.0,-427.0,1339.0,535.0,1
-75.0,-15.0,-34.0,-630.0,1238.0,529.0,1
-48.0,-31.0,-9.0,-746.0,1176.0,496.0,1
-27.0,-39.0,-2.0,-790.0,1165.0,502.0,1
-8.0,-43.0,4.0,-798.0,1162.0,547.0,1
3.0,-35.0,5.0,-760.0,1145.0,572.0,1
13.0,-13.0,-8.0,-646.0,1117.0,587.0,1
13.0,3.0,-9.0,-501.0,1098.0,589.0,1
20.0,10.0,-26.0,-340.0,1108.0,600.0,1
12.0,22.0,-39.0,-186.0,1137.0,605.0,1
7.0,28.0,-60.0,-50.0,1161.0,608.0,1
-2.0,34.0,-77.0,20.0,1144.0,609.0,1
-9.0,39.0,-84.0,10.0,1066.0,598.0,1
-18.0,30.0,-87.0,-26.0,919.0,563.0,1
-31.0,33.0,-85.0,-101.0,728.0,522.0,1
-31.0,21.0,-80.0,-202.0,514.0,485.0,1
-27.0,7.0,-70.0,-293.0,297.0,421.0,1
-25.0,-19.0,-46.0,-343.0,96.0,342.0,1
-15.0,-49.0,-19.0,-294.0,-87.0,262.0,1
-1.0,-82.0,18.0,-140.0,-243.0,207.0,1
-6.0,-108.0,36.0,148.0,-333.0,172.0,1
5.0,-126.0,55.0,502.0,-345.0,172.0,1
18.0,-138.0,67.0,856.0,-276.0,190.0,1
28.0,-144.0,66.0,1152.0,-138.0,219.0,1
33.0,-141.0,83.0,1362.0,36.0,241.0,1
28.0,-146.0,94.0,1490.0,220.0,247.0,1
14.0,-159.0,120.0,1588.0,365.0,237.0,1
13.0,-182.0,108.0,1708.0,420.0,215.0,1
22.0,-170.0,44.0,1772.0,462.0,193.0,1
34.0,-145.0,-108.0,1557.0,692.0,196.0,1
62.0,-150.0,-199.0,898.0,1237.0,235.0,1
115.0,-200.0,-305.0,-28.0,1811.0,261.0,1
178.0,-286.0,-512.0,-1036.0,1889.0,148.0,1
248.0,-402.0,-555.0,-2066.0,1395.0,-82.0,1
297.0,-589.0,-482.0,-2723.0,613.0,-284.0,1
334.0,-785.0,-369.0,-2745.0,99.0,-267.0,1
259.0,-973.0,-355.0,-2101.0,200.0,43.0,1
133.0,-1069.0,-406.0,-1316.0,691.0,691.0,1
4.0,-1131.0,-326.0,-867.0,1115.0,1573.0,1
-50.0,-1121.0,-308.0,-492.0,1194.0,2271.0,1
-124.0,-1090.0,-371.0,-223.0,937.0,2308.0,1
-199.0,-1021.0,-418.0,-147.0,778.0,1771.0,1
-204.0,-900.0,-414.0,-27.0,928.0,1090.0,1
-178.0,-817.0,-353.0,289.0,1280.0,511.0,1
-166.0,-757.0,-285.0,723.0,1665.0,38.0,1
-163.0,-690.0,-210.0,1016.0,1854.0,-344.0,1
-142.0,-599.0,-123.0,1026.0,1697.0,-686.0,1
-122.0,-488.0,-84.0,884.0,1301.0,-873.0,1
-80.0,-404.0,-95.0,693.0,953.0,-840.0,1
-36.0,-336.0,-139.0,439.0,849.0,-628.0,1
12.0,-300.0,-156.0,101.0,965.0,-313.0,1
75.0,-301.0,-138.0,-222.0,1132.0,24.0,1
131.0,-326.0,-98.0,-426.0,1207.0,232.0,1
167.0,-363.0,-60.0,-517.0,1188.0,259.0,1
202.0,-385.0,-51.0,-524.0,1134.0,235.0,1
254.0,-404.0,-56.0,-538.0,1122.0,275.0,1
274.0,-409.0,-62.0,-596.0,1158.0,356.0,1
279.0,-377.0,-65.0,-652.0,1204.0,452.0,1
262.0,-316.0,-77.0,-669.0,1248.0,537.0,1
237.0,-260.0,-70.0,-668.0,1315.0,568.0,1
186.0,-215.0,-58.0,-639.0,1385.0,553.0,1
130.0,-184.0,-50.0,-554.0,1420.0,573.0,1
82.0,-158.0,-53.0,-423.0,1427.0,643.0,1
29.0,-149.0,-36.0,-228.0,1437.0,702.0,1
13.0,-125.0,-27.0,4.0,1421.0,721.0,1
-20.0,-110.0,-23.0,237.0,1378.0,690.0,1
-10.0,-85.0,-20.0,445.0,1301.0,652.0,1
-33.0,-55.0,-24.0,579.0,1234.0,567.0,1
-39.0,-21.0,-32.0,653.0,1138.0,485.0,1
-34.0,11.0,-47.0,699.0,990.0,422.0,1
-18.0,55.0,-57.0,723.0,854.0,363.0,1
5.0,100.0,-78.0,708.0,751.0,330.0,1
28.0,134.0,-79.0,600.0,709.0,288.0,1
29.0,146.0,-63.0,417.0,716.0,224.0,1
23.0,148.0,-48.0,217.0,734.0,180.0,1
20.0,139.0,-32.0,15.0,747.0,166.0,1
3.0,111.0,-12.0,-188.0,766.0,159.0,1
-19.0,84.0,16.0,-335.0,770.0,189.0,1
-35.0,50.0,23.0,-428.0,759.0,228.0,1
-35.0,19.0,21.0,-491.0,759.0,255.0,1
-33.0,-17.0,27.0,-533.0,783.0,278.0,1
-23.0,-35.0,29.0,-502.0,816.0,311.0,1
-16.0,-60.0,40.0,-410.0,851.0,343.0,1
-19.0,-61.0,32.0,-260.0,879.0,377.0,1
-19.0,-53.0,20.0,-144.0,897.0,423.0,1
-20.0,-36.0,19.0,-74.0,904.0,466.0,1
-24.0,-24.0,14.0,-17.0,884.0,513.0,1
-29.0,-13.0,5.0,51.0,842.0,581.0,1
-41.0,-9.0,4.0,118.0,802.0,672.0,1
-56.0,-13.0,-11.0,193.0,751.0,755.0,1
-58.0,-12.0,-17.0,294.0,709.0,823.0,1
-63.0,-15.0,-18.0,402.0,689.0,887.0,1
-67.0,-5.0,-21.0,500.0,676.0,957.0,1
-82.0,-5.0,-35.0,584.0,647.0,1027.0,1
-93.0,-1.0,-50.0,645.0,579.0,1074.0,1
-91.0,-8.0,-68.0,675.0,484.0,1091.0,1
-75.0,-16.0,-90.0,668.0,387.0,1072.0,1
-51.0,-17.0,-112.0,590.0,324.0,1000.0,1
1.0,-16.0,-170.0,414.0,311.0,891.0,1
57.0,-3.0,-223.0,125.0,348.0,764.0,1
108.0,0.0,-277.0,-291.0,388.0,623.0,1
142.0,-11.0,-336.0,-800.0,372.0,492.0,1
197.0,-48.0,-420.0,-1355.0,208.0,386.0,1
219.0,-99.0,-565.0,-1961.0,-95.0,286.0,1
182.0,-167.0,-710.0,-2654.0,-385.0,180.0,1
123.0,-283.0,-765.0,-3242.0,-518.0,104.0,1
34.0,-448.0,-685.0,-3364.0,-391.0,108.0,1
-19.0,-782.0,-537.0,-2860.0,20.0,211.0,1
-71.0,-1105.0,-357.0,-2018.0,552.0,41.0,1
-155.0,-1118.0,-253.0,-949.0,993.0,-345.0,1
-67.0,-969.0,-341.0,448.0,1192.0,-305.0,1
-18.0,-789.0,-440.0,1532.0,1171.0,-82.0,1
10.0,-675.0,-501.0,1888.0,1109.0,110.0,1
18.0,-621.0,-462.0,1558.0,1109.0,350.0,1
63.0,-620.0,-350.0,960.0,1028.0,662.0,1
71.0,-612.0,-264.0,553.0,776.0,887.0,1
128.0,-582.0,-267.0,465.0,504.0,1024.0,1
144.0,-539.0,-302.0,444.0,426.0,1045.0,1
111.0,-492.0,-282.0,331.0,508.0,1043.0,1
97.0,-476.0,-256.0,239.0,605.0,1140.0,1
127.0,-463.0,-250.0,268.0,757.0,1252.0,1
118.0,-459.0,-245.0,254.0,981.0,1239.0,1
79.0,-445.0,-209.0,110.0,1211.0,1179.0,1
80.0,-448.0,-211.0,-78.0,1291.0,1206.0,1
109.0,-468.0,-212.0,-294.0,1269.0,1229.0,1
90.0,-475.0,-207.0,-467.0,1256.0,1184.0,1
52.0,-473.0,-198.0,-518.0,1268.0,1135.0,1
35.0,-466.0,-208.0,-447.0,1303.0,1152.0,1
26.0,-446.0,-212.0,-327.0,1389.0,1175.0,1
-4.0,-418.0,-187.0,-194.0,1490.0,1198.0,1
-23.0,-370.0,-166.0,-26.0,1567.0,1235.0,1
-42.0,-323.0,-149.0,175.0,1608.0,1314.0,1
-35.0,-279.0,-133.0,356.0,1638.0,1391.0,1
-25.0,-259.0,-98.0,533.0,1646.0,1365.0,1
-33.0,-189.0,-105.0,853.0,1682.0,1231.0,1
-39.0,-140.0,-74.0,1050.0,1673.0,1132.0,1
-28.0,-115.0,-46.0,1040.0,1587.0,1066.0,1
-25.0,-103.0,-16.0,915.0,1474.0,980.0,1
-44.0,-106.0,20.0,772.0,1349.0,861.0,1
-51.0,-101.0,34.0,686.0,1223.0,755.0,1
-69.0,-97.0,58.0,651.0,1081.0,675.0,1
-90.0,-81.0,50.0,638.0,931.0,640.0,1
-102.0,-51.0,39.0,637.0,808.0,640.0,1
-118.0,-11.0,22.0,629.0,727.0,632.0,1
-112.0,27.0,11.0,596.0,674.0,634.0,1
-86.0,66.0,-8.0,546.0,632.0,619.0,1
-56.0,89.0,-28.0,455.0,589.0,585.0,1
-20.0,105.0,-33.0,308.0,538.0,533.0,1
6.0,107.0,-29.0,147.0,486.0,459.0,1
30.0,88.0,-11.0,6.0,441.0,392.0,1
40.0,46.0,15.0,-110.0,421.0,326.0,1
64.0,7.0,39.0,-198.0,431.0,279.0,1
91.0,-28.0,50.0,-245.0,475.0,244.0,1
113.0,-64.0,57.0,-248.0,543.0,226.0,1
125.0,-94.0,64.0,-202.0,629.0,224.0,1
125.0,-106.0,63.0,-112.0,737.0,239.0,1
117.0,-120.0,66.0,15.0,863.0,287.0,1
102.0,-121.0,68.0,218.0,983.0,351.0,1
90.0,-120.0,73.0,465.0,1081.0,434.0,1
80.0,-108.0,60.0,750.0,1126.0,510.0,1
68.0,-91.0,46.0,1033.0,1132.0,572.0,1
58.0,-65.0,33.0,1295.0,1100.0,615.0,1
44.0,-33.0,25.0,1500.0,1024.0,640.0,1
27.0,29.0,-26.0,1634.0,901.0,639.0,1
1.0,88.0,-48.0,1683.0,742.0,606.0,1
-23.0,136.0,-80.0,1643.0,575.0,551.0,1
-68.0,180.0,-86.0,1524.0,446.0,480.0,1
-89.0,206.0,-96.0,1355.0,372.0,428.0,1
-106.0,209.0,-107.0,1141.0,393.0,392.0,1
-100.0,201.0,-109.0,892.0,498.0,352.0,1
-91.0,171.0,-98.0,622.0,640.0,312.0,1
-80.0,115.0,-85.0,369.0,774.0,305.0,1
-63.0,59.0,-103.0,174.0,893.0,324.0,1
-46.0,13.0,-160.0,-11.0,988.0,351.0,1
-23.0,-21.0,-240.0,-322.0,1027.0,382.0,1
-10.0,-63.0,-336.0,-824.0,989.0,412.0,1
-7.0,-133.0,-408.0,-1443.0,871.0,466.0,1
12.0,-191.0,-463.0,-1884.0,725.0,571.0,1
39.0,-248.0,-525.0,-1930.0,615.0,643.0,1
59.0,-307.0,-533.0,-1630.0,610.0,645.0,1
64.0,-415.0,-459.0,-1070.0,697.0,637.0,1
75.0,-541.0,-305.0,-295.0,838.0,679.0,1
74.0,-651.0,-156.0,610.0,982.0,784.0,1
57.0,-686.0,-109.0,1411.0,1134.0,860.0,1
25.0,-620.0,-161.0,1861.0,1312.0,789.0,1
-47.0,-518.0,-282.0,1833.0,1431.0,577.0,1
-89.0,-443.0,-372.0,1308.0,1432.0,336.0,1
-91.0,-445.0,-365.0,603.0,1301.0,160.0,1
-65.0,-498.0,-284.0,181.0,1178.0,-6.0,1
-44.0,-550.0,-230.0,279.0,1248.0,-143.0,1
-43.0,-590.0,-196.0,648.0,1514.0,-218.0,1
-52.0,-619.0,-175.0,994.0,1725.0,-245.0,1
-34.0,-678.0,-162.0,1119.0,1740.0,-259.0,1
-3.0,-716.0,-142.0,959.0,1617.0,-347.0,1
17.0,-742.0,-116.0,658.0,1510.0,-502.0,1
52.0,-761.0,-94.0,395.0,1451.0,-641.0,1
53.0,-762.0,-111.0,189.0,1468.0,-716.0,1
128.0,-743.0,-104.0,69.0,1540.0,-757.0,1
140.0,-746.0,-99.0,73.0,1623.0,-693.0,1
149.0,-717.0,-90.0,104.0,1657.0,-533.0,1
178.0,-674.0,-96.0,86.0,1642.0,-364.0,1
168.0,-629.0,-111.0,65.0,1615.0,-241.0,1
180.0,-583.0,-138.0,51.0,1609.0,-58.0,1
195.0,-551.0,-111.0,26.0,1713.0,181.0,1
167.0,-490.0,-147.0,11.0,1793.0,232.0,1
179.0,-425.0,-143.0,-71.0,1798.0,46.0,1
212.0,-386.0,-154.0,-90.0,1844.0,-99.0,1
209.0,-354.0,-156.0,-44.0,1931.0,-208.0,1
236.0,-347.0,-170.0,65.0,1937.0,-301.0,1
260.0,-362.0,-165.0,87.0,1857.0,-490.0,1
236.0,-321.0,-149.0,113.0,1861.0,-685.0,1
275.0,-314.0,-143.0,159.0,1886.0,-728.0,1
289.0,-285.0,-122.0,180.0,1989.0,-712.0,1
279.0,-241.0,-119.0,180.0,2035.0,-702.0,1
221.0,-201.0,-117.0,148.0,2109.0,-746.0,1
119.0,-184.0,-123.0,94.0,2147.0,-743.0,1
7.0,-194.0,-133.0,37.0,2097.0,-629.0,1
-97.0,-167.0,-148.0,-7.0,2017.0,-431.0,1
-133.0,-89.0,-165.0,27.0,1957.0,-150.0,1
-117.0,-24.0,-163.0,110.0,1998.0,131.0,1
-109.0,21.0,-136.0,190.0,2076.0,331.0,1
-97.0,48.0,-107.0,320.0,2147.0,454.0,1
-66.0,64.0,-91.0,512.0,2151.0,545.0,1
-51.0,76.0,-94.0,661.0,2130.0,565.0,1
-67.0,76.0,-89.0,715.0,2105.0,497.0,1
-69.0,66.0,-87.0,711.0,2051.0,497.0,1
-63.0,29.0,-79.0,672.0,1962.0,562.0,1
-54.0,4.0,-57.0,637.0,1844.0,633.0,1
-36.0,-23.0,-51.0,584.0,1739.0,684.0,1
-10.0,-42.0,-55.0,472.0,1669.0,669.0,1
-1.0,-46.0,-67.0,317.0,1638.0,584.0,1
-5.0,-42.0,-75.0,149.0,1628.0,494.0,1
-12.0,-46.0,-81.0,-7.0,1604.0,412.0,1
-28.0,-48.0,-57.0,-120.0,1525.0,315.0,1
-56.0,-42.0,-22.0,-137.0,1387.0,221.0,1
-88.0,-23.0,-3.0,-45.0,1206.0,152.0,1
-115.0,3.0,-1.0,102.0,1051.0,132.0,1
-135.0,35.0,-7.0,253.0,970.0,150.0,1
-126.0,66.0,-22.0,360.0,988.0,183.0,1
-116.0,94.0,-33.0,402.0,1097.0,200.0,1
-115.0,102.0,-26.0,348.0,1237.0,208.0,1
-128.0,93.0,-15.0,200.0,1343.0,221.0,1
-133.0,63.0,9.0,-3.0,1377.0,246.0,1
-151.0,22.0,31.0,-207.0,1350.0,266.0,1
-152.0,-14.0,14.0,-424.0,1264.0,260.0,1
-129.0,-43.0,-11.0,-665.0,1201.0,231.0,1
-96.0,-51.0,-55.0,-900.0,1246.0,201.0,1
-46.0,-55.0,-111.0,-1121.0,1375.0,164.0,1
2.0,-62.0,-170.0,-1346.0,1487.0,116.0,1
70.0,-63.0,-231.0,-1575.0,1449.0,51.0,1
123.0,-73.0,-276.0,-1786.0,1185.0,-49.0,1
166.0,-97.0,-309.0,-1929.0,755.0,-151.0,1
217.0,-135.0,-316.0,-1941.0,332.0,-206.0,1
255.0,-195.0,-319.0,-1771.0,102.0,-200.0,1
297.0,-257.0,-312.0,-1452.0,158.0,-104.0,1
323.0,-334.0,-276.0,-1057.0,419.0,53.0,1
304.0,-423.0,-214.0,-653.0,712.0,210.0,1
257.0,-501.0,-175.0,-234.0,897.0,404.0,1
233.0,-606.0,-169.0,116.0,965.0,593.0,1
191.0,-708.0,-177.0,279.0,977.0,640.0,1
117.0,-767.0,-170.0,267.0,946.0,554.0,1
55.0,-797.0,-152.0,238.0,852.0,497.0,1
31.0,-771.0,-176.0,346.0,780.0,540.0,1
37.0,-712.0,-220.0,538.0,816.0,650.0,1
1.0,-658.0,-213.0,680.0,884.0,713.0,1
-44.0,-616.0,-185.0,819.0,862.0,707.0,1
-52.0,-571.0,-133.0,878.0,736.0,660.0,1
-63.0,-530.0,-61.0,814.0,590.0,647.0,1
-46.0,-491.0,-31.0,655.0,370.0,704.0,1
-23.0,-447.0,-5.0,351.0,135.0,715.0,1
-12.0,-420.0,-24.0,-42.0,-130.0,689.0,1
9.0,-410.0,-39.0,-437.0,-431.0,699.0,1
-6.0,-423.0,-58.0,-777.0,-645.0,762.0,1
-57.0,-456.0,-49.0,-953.0,-780.0,876.0,1
-80.0,-504.0,-49.0,-914.0,-885.0,970.0,1
-117.0,-549.0,-45.0,-799.0,-962.0,961.0,1
-174.0,-579.0,-53.0,-726.0,-1061.0,891.0,1
-234.0,-577.0,-51.0,-668.0,-1182.0,846.0,1
-276.0,-587.0,-57.0,-481.0,-1332.0,812.0,1
-248.0,-555.0,-85.0,-70.0,-1465.0,736.0,1
-251.0,-488.0,-94.0,504.0,-1526.0,598.0,1
-161.0,-386.0,-119.0,1101.0,-1493.0,480.0,1
-126.0,-279.0,-122.0,1559.0,-1365.0,385.0,1
-76.0,-170.0,-120.0,1778.0,-1295.0,422.0,1
-45.0,-81.0,-106.0,1796.0,-1270.0,522.0,1
31.0,3.0,-130.0,1697.0,-1279.0,595.0,1
89.0,88.0,-162.0,1505.0,-1360.0,547.0,1
156.0,184.0,-186.0,1260.0,-1380.0,431.0,1
208.0,247.0,-179.0,963.0,-1273.0,202.0,1
207.0,259.0,-151.0,634.0,-1159.0,-143.0,1
132.0,240.0,-86.0,346.0,-1096.0,-507.0,1
21.0,202.0,-33.0,111.0,-1138.0,-764.0,1
-14.0,126.0,7.0,-167.0,-1207.0,-851.0,1
-30.0,36.0,40.0,-462.0,-1208.0,-887.0,1
-21.0,-46.0,63.0,-657.0,-1167.0,-899.0,1
-1.0,-110.0,68.0,-667.0,-1119.0,-868.0,1
14.0,-151.0,50.0,-502.0,-1064.0,-814.0,1
8.0,-172.0,41.0,-215.0,-998.0,-755.0,1
31.0,-155.0,-7.0,148.0,-951.0,-716.0,1
42.0,-125.0,-49.0,469.0,-800.0,-577.0,1
64.0,-85.0,-79.0,688.0,-676.0,-427.0,1
69.0,-41.0,-99.0,824.0,-570.0,-325.0,1
60.0,23.0,-111.0,861.0,-496.0,-249.0,1
40.0,74.0,-105.0,775.0,-455.0,-176.0,1
8.0,129.0,-108.0,636.0,-496.0,-150.0,1
-19.0,174.0,-121.0,442.0,-598.0,-136.0,1
-50.0,207.0,-144.0,163.0,-732.0,-120.0,1
-70.0,216.0,-184.0,-169.0,-889.0,-152.0,1
-66.0,182.0,-226.0,-539.0,-1016.0,-262.0,1
-48.0,129.0,-265.0,-943.0,-1047.0,-417.0,1
-9.0,48.0,-255.0,-1399.0,-923.0,-513.0,1
31.0,-89.0,-217.0,-1845.0,-696.0,-488.0,1
67.0,-291.0,-174.0,-2189.0,-494.0,-315.0,1
128.0,-519.0,-61.0,-2408.0,-410.0,33.0,1
187.0,-749.0,-30.0,-2191.0,-427.0,361.0,1
212.0,-901.0,-31.0,-1575.0,-483.0,468.0,1
187.0,-849.0,5.0,-671.0,-424.0,383.0,1
144.0,-598.0,-112.0,678.0,-253.0,215.0,1
134.0,-391.0,-308.0,1960.0,-100.0,31.0,1
76.0,-234.0,-453.0,2496.0,52.0,-122.0,1
17.0,-170.0,-465.0,2103.0,235.0,-175.0,1
-33.0,-163.0,-377.0,1348.0,478.0,-132.0,1
-51.0,-234.0,-247.0,800.0,707.0,-94.0,1
-62.0,-327.0,-174.0,646.0,851.0,-192.0,1
-84.0,-417.0,-99.0,721.0,957.0,-406.0,1
-116.0,-501.0,-43.0,875.0,1076.0,-593.0,1
-124.0,-596.0,7.0,1031.0,1188.0,-659.0,1
-117.0,-676.0,18.0,1133.0,1171.0,-644.0,1
-112.0,-703.0,-17.0,1099.0,940.0,-608.0,1
-92.0,-721.0,-62.0,870.0,624.0,-609.0,1
-45.0,-729.0,-91.0,590.0,441.0,-649.0,1
0.0,-715.0,-90.0,379.0,512.0,-700.0,1
43.0,-672.0,-98.0,318.0,689.0,-722.0,1
90.0,-638.0,-102.0,298.0,850.0,-664.0,1
135.0,-554.0,-89.0,243.0,940.0,-550.0,1
162.0,-481.0,-64.0,214.0,1038.0,-419.0,1
195.0,-396.0,-37.0,301.0,1189.0,-316.0,1
204.0,-339.0,-28.0,416.0,1297.0,-334.0,1
214.0,-276.0,-66.0,478.0,1279.0,-501.0,1
228.0,-210.0,-94.0,408.0,1240.0,-748.0,1
199.0,-158.0,-101.0,273.0,1260.0,-1006.0,1
186.0,-114.0,-135.0,155.0,1379.0,-1180.0,1
110.0,-72.0,-180.0,-2.0,1599.0,-1260.0,1
12.0,-42.0,-223.0,-211.0,1761.0,-1227.0,1
-40.0,-76.0,-222.0,-408.0,1825.0,-1006.0,1
-156.0,-115.0,-210.0,-331.0,1844.0,-636.0,1
-190.0,-101.0,-176.0,-124.0,1741.0,-293.0,1
-215.0,-64.0,-148.0,152.0,1587.0,32.0,1
-233.0,-28.0,-144.0,440.0,1391.0,239.0,1
-182.0,-28.0,-161.0,631.0,1169.0,368.0,1
-101.0,-46.0,-171.0,661.0,1024.0,407.0,1
-65.0,-49.0,-141.0,569.0,926.0,292.0,1
-51.0,-46.0,-93.0,526.0,767.0,129.0,1
-29.0,-46.0,-58.0,615.0,566.0,-32.0,1
1.0,-36.0,-48.0,764.0,481.0,-176.0,1
18.0,-27.0,-52.0,917.0,579.0,-269.0,1
36.0,-2.0,-73.0,999.0,794.0,-316.0,1
42.0,22.0,-79.0,954.0,998.0,-358.0,1
38.0,61.0,-69.0,845.0,1108.0,-427.0,1
22.0,94.0,-62.0,720.0,1109.0,-498.0,1
17.0,112.0,-45.0,610.0,1043.0,-515.0,1
8.0,118.0,-14.0,588.0,941.0,-462.0,1
1.0,100.0,30.0,675.0,790.0,-362.0,1
3.0,64.0,61.0,835.0,604.0,-239.0,1
-8.0,28.0,59.0,989.0,397.0,-117.0,1
-12.0,1.0,0.0,1000.0,212.0,-12.0,1
-15.0,-18.0,-93.0,727.0,119.0,68.0,1
13.0,-42.0,-244.0,140.0,171.0,122.0,1
50.0,-76.0,-375.0,-715.0,348.0,102.0,1
93.0,-176.0,-397.0,-1619.0,509.0,-35.0,1
131.0,-344.0,-297.0,-2123.0,352.0,-368.0,1
93.0,-555.0,-249.0,-1965.0,-153.0,-938.0,1
-11.0,-685.0,-268.0,-1364.0,-572.0,-1488.0,1
-65.0,-813.0,-191.0,-598.0,-524.0,-1650.0,1
-51.0,-891.0,-73.0,342.0,-191.0,-1416.0,1
-55.0,-888.0,12.0,1362.0,25.0,-1160.0,1
-76.0,-705.0,-39.0,2261.0,-28.0,-1039.0,1
-126.0,-556.0,-125.0,2723.0,-279.0,-991.0,1
-141.0,-460.0,-175.0,2626.0,-549.0,-887.0,1
-176.0,-406.0,-157.0,2228.0,-745.0,-682.0,1
-151.0,-423.0,-97.0,1870.0,-987.0,-393.0,1
-132.0,-439.0,-63.0,1702.0,-1275.0,-158.0,1
-114.0,-456.0,-53.0,1612.0,-1549.0,10.0,1
-99.0,-459.0,-85.0,1462.0,-1785.0,167.0,1
-88.0,-451.0,-112.0,1125.0,-1961.0,323.0,1
-87.0,-453.0,-125.0,688.0,-2111.0,469.0,1
-61.0,-446.0,-139.0,351.0,-2184.0,579.0,1
-64.0,-429.0,-148.0,193.0,-2127.0,648.0,1
-43.0,-408.0,-166.0,180.0,-2030.0,715.0,1
0.0,-399.0,-178.0,201.0,-1984.0,672.0,1
-1.0,-373.0,-185.0,119.0,-1991.0,446.0,1
-14.0,-342.0,-192.0,-97.0,-1992.0,223.0,1
1.0,-318.0,-187.0,-348.0,-1903.0,108.0,1
34.0,-308.0,-183.0,-468.0,-1706.0,43.0,1
75.0,-283.0,-162.0,-428.0,-1489.0,-52.0,1
105.0,-259.0,-139.0,-288.0,-1292.0,-160.0,1
101.0,-235.0,-118.0,-60.0,-1138.0,-191.0,1
160.0,-203.0,-115.0,200.0,-974.0,-145.0,1
139.0,-153.0,-84.0,433.0,-760.0,-132.0,1
164.0,-95.0,-74.0,649.0,-571.0,-83.0,1
143.0,-38.0,-45.0,842.0,-386.0,9.0,1
112.0,22.0,-7.0,1021.0,-259.0,116.0,1
64.0,79.0,14.0,1182.0,-224.0,195.0,1
6.0,138.0,27.0,1245.0,-257.0,247.0,1
-36.0,185.0,35.0,1146.0,-319.0,288.0,1
-51.0,219.0,32.0,920.0,-403.0,271.0,1
-66.0,228.0,22.0,617.0,-469.0,199.0,1
-70.0,224.0,0.0,282.0,-526.0,137.0,1
-69.0,202.0,-35.0,-30.0,-582.0,87.0,1
-59.0,172.0,-76.0,-282.0,-605.0,32.0,1
-41.0,134.0,-118.0,-489.0,-552.0,-44.0,1
-25.0,74.0,-143.0,-639.0,-409.0,-120.0,1
6.0,32.0,-164.0,-718.0,-244.0,-228.0,1
22.0,6.0,-175.0,-748.0,-54.0,-373.0,1
42.0,-23.0,-159.0,-732.0,192.0,-445.0,1
71.0,-62.0,-131.0,-654.0,420.0,-466.0,1
101.0,-93.0,-87.0,-474.0,596.0,-468.0,1
116.0,-110.0,-53.0,-254.0,698.0,-487.0,1
115.0,-110.0,-26.0,-30.0,723.0,-508.0,1
108.0,-98.0,0.0,163.0,679.0,-512.0,1
85.0,-75.0,8.0,307.0,581.0,-495.0,1
68.0,-45.0,11.0,363.0,453.0,-481.0,1
53.0,-13.0,-8.0,336.0,316.0,-446.0,1
38.0,18.0,-40.0,236.0,169.0,-378.0,1
10.0,44.0,-90.0,50.0,-1.0,-277.0,1
-32.0,58.0,-145.0,-231.0,-215.0,-169.0,1
-95.0,49.0,-199.0,-584.0,-499.0,-56.0,1
-161.0,15.0,-256.0,-956.0,-820.0,88.0,1
-237.0,-45.0,-331.0,-1299.0,-1089.0,282.0,1
-285.0,-141.0,-405.0,-1639.0,-1174.0,524.0,1
-281.0,-268.0,-475.0,-2004.0,-964.0,754.0,1
-162.0,-504.0,-501.0,-2423.0,-383.0,840.0,1
-65.0,-716.0,-322.0,-2785.0,463.0,477.0,1
-28.0,-929.0,-44.0,-2463.0,1230.0,-94.0,1
49.0,-1117.0,133.0,-1158.0,1543.0,-381.0,1
168.0,-1157.0,63.0,594.0,956.0,-483.0,1
213.0,-922.0,-228.0,1818.0,-465.0,-798.0,1
277.0,-638.0,-468.0,1847.0,-1889.0,-1187.0,1
359.0,-461.0,-496.0,1025.0,-2400.0,-1363.0,1
476.0,-428.0,-381.0,317.0,-1723.0,-1230.0,1
529.0,-456.0,-209.0,194.0,-405.0,-1080.0,1
315.0,-439.0,-121.0,551.0,709.0,-1053.0,1
176.0,-449.0,-103.0,837.0,1251.0,-806.0,1
87.0,-447.0,-107.0,845.0,1272.0,-557.0,1
-7.0,-399.0,-150.0,689.0,906.0,-470.0,1
-132.0,-332.0,-277.0,363.0,325.0,-483.0,1
-189.0,-261.0,-349.0,-100.0,-210.0,-509.0,1
-239.0,-194.0,-350.0,-611.0,-484.0,-528.0,1
-231.0,-153.0,-287.0,-1029.0,-513.0,-569.0,1
-233.0,-112.0,-240.0,-1282.0,-461.0,-695.0,1
-230.0,-89.0,-210.0,-1499.0,-513.0,-855.0,1
-200.0,-56.0,-213.0,-1777.0,-704.0,-956.0,1
-152.0,-24.0,-222.0,-2063.0,-901.0,-961.0,1
-99.0,-9.0,-203.0,-2248.0,-1008.0,-916.0,1
-36.0,-21.0,-154.0,-2211.0,-1102.0,-893.0,1
5.0,-50.0,-127.0,-1972.0,-1278.0,-958.0,1
40.0,-64.0,-86.0,-1644.0,-1461.0,-1076.0,1
54.0,-89.0,-64.0,-1306.0,-1538.0,-1209.0,1
59.0,-112.0,-48.0,-982.0,-1462.0,-1288.0,1
61.0,-129.0,-41.0,-679.0,-1262.0,-1267.0,1
50.0,-109.0,-14.0,-396.0,-1024.0,-1161.0,1
82.0,-80.0,-15.0,-140.0,-827.0,-1039.0,1
92.0,-53.0,-14.0,44.0,-715.0,-967.0,1
111.0,-11.0,-33.0,114.0,-698.0,-960.0,1
98.0,43.0,-22.0,49.0,-769.0,-955.0,1
61.0,64.0,-8.0,-121.0,-907.0,-892.0,1
24.0,71.0,24.0,-323.0,-1099.0,-801.0,1
-9.0,76.0,43.0,-460.0,-1324.0,-718.0,1
-33.0,77.0,32.0,-570.0,-1533.0,-663.0,1
-48.0,62.0,19.0,-715.0,-1696.0,-643.0,1
-63.0,43.0,-7.0,-889.0,-1816.0,-685.0,1
-75.0,-20.0,0.0,-1067.0,-1908.0,-780.0,1
-72.0,-42.0,-18.0,-1218.0,-1985.0,-899.0,1
-94.0,-96.0,-21.0,-1335.0,-2042.0,-1000.0,1
-99.0,-121.0,-61.0,-1395.0,-2064.0,-1052.0,1
-92.0,-111.0,-76.0,-1393.0,-2022.0,-1043.0,1
-78.0,-109.0,-92.0,-1315.0,-1902.0,-982.0,1
-47.0,-59.0,-104.0,-1192.0,-1706.0,-888.0,1
-8.0,-7.0,-113.0,-1055.0,-1471.0,-768.0,1
15.0,37.0,-110.0,-946.0,-1247.0,-618.0,1
84.0,58.0,-102.0,-878.0,-1088.0,-472.0,1
145.0,59.0,-110.0,-860.0,-1054.0,-393.0,1
196.0,28.0,-139.0,-989.0,-1126.0,-403.0,1
219.0,-31.0,-155.0,-1311.0,-1205.0,-482.0,1
234.0,-117.0,-155.0,-1749.0,-1175.0,-545.0,1
257.0,-228.0,-145.0,-2107.0,-993.0,-542.0,1
294.0,-365.0,-91.0,-2232.0,-670.0,-491.0,1
272.0,-442.0,-62.0,-1998.0,-341.0,-489.0,1
188.0,-447.0,-89.0,-1415.0,-180.0,-505.0,1
126.0,-393.0,-183.0,-749.0,-270.0,-484.0,1
47.0,-310.0,-281.0,-359.0,-565.0,-492.0,1
-18.0,-277.0,-329.0,-400.0,-931.0,-476.0,1
-58.0,-257.0,-321.0,-696.0,-1248.0,-417.0,1
-106.0,-251.0,-328.0,-990.0,-1432.0,-348.0,1
-136.0,-263.0,-329.0,-1181.0,-1482.0,-279.0,1
-187.0,-242.0,-343.0,-1249.0,-1427.0,-197.0,1
-202.0,-242.0,-299.0,-1167.0,-1344.0,-44.0,1
-194.0,-312.0,-205.0,-847.0,-1372.0,83.0,1
-161.0,-377.0,-149.0,-423.0,-1563.0,102.0,1
-131.0,-388.0,-157.0,-115.0,-1899.0,38.0,1
-82.0,-353.0,-224.0,-130.0,-2165.0,-40.0,1
-31.0,-327.0,-289.0,-486.0,-2177.0,-73.0,1
2.0,-316.0,-340.0,-1004.0,-2080.0,-103.0,1
28.0,-323.0,-353.0,-1520.0,-2067.0,-160.0,1
42.0,-332.0,-322.0,-1803.0,-2151.0,-253.0,1
35.0,-346.0,-292.0,-1691.0,-2265.0,-291.0,1
49.0,-367.0,-287.0,-1237.0,-2361.0,-292.0,1
70.0,-357.0,-294.0,-643.0,-2458.0,-310.0,1
81.0,-348.0,-286.0,-126.0,-2545.0,-313.0,1
101.0,-333.0,-293.0,171.0,-2598.0,-269.0,1
115.0,-316.0,-284.0,214.0,-2602.0,-150.0,1
115.0,-304.0,-268.0,17.0,-2553.0,34.0,1
127.0,-298.0,-244.0,-370.0,-2440.0,268.0,1
116.0,-293.0,-211.0,-839.0,-2294.0,508.0,1
92.0,-288.0,-177.0,-1262.0,-2184.0,699.0,1
62.0,-283.0,-168.0,-1536.0,-2147.0,844.0,1
34.0,-272.0,-175.0,-1649.0,-2163.0,965.0,1
25.0,-258.0,-180.0,-1666.0,-2206.0,1034.0,1
6.0,-247.0,-194.0,-1630.0,-2256.0,1043.0,1
2.0,-246.0,-170.0,-1580.0,-2336.0,998.0,1
-21.0,-226.0,-177.0,-1528.0,-2439.0,955.0,1
-14.0,-213.0,-165.0,-1489.0,-2540.0,921.0,1
-47.0,-194.0,-143.0,-1464.0,-2603.0,900.0,1
-48.0,-191.0,-116.0,-1455.0,-2617.0,902.0,1
-60.0,-192.0,-96.0,-1505.0,-2612.0,965.0,1
-68.0,-182.0,-100.0,-1612.0,-2602.0,1079.0,1
-68.0,-191.0,-68.0,-1751.0,-2593.0,1187.0,1
-80.0,-158.0,-79.0,-1901.0,-2598.0,1251.0,1
-87.0,-149.0,-86.0,-2066.0,-2639.0,1265.0,1
-86.0,-120.0,-75.0,-2240.0,-2724.0,1246.0,1
-78.0,-93.0,-54.0,-2397.0,-2848.0,1215.0,1
-64.0,-82.0,-35.0,-2473.0,-2979.0,1186.0,1
-46.0,-65.0,-23.0,-2457.0,-3069.0,1169.0,1
-19.0,-52.0,-24.0,-2395.0,-3103.0,1164.0,1
6.0,-23.0,-28.0,-2347.0,-3099.0,1153.0,1
28.0,8.0,-27.0,-2359.0,-3077.0,1142.0,1
42.0,38.0,-14.0,-2407.0,-3041.0,1133.0,1
48.0,73.0,4.0,-2441.0,-2993.0,1126.0,1
42.0,97.0,39.0,-2448.0,-2930.0,1111.0,1
23.0,116.0,74.0,-2424.0,-2877.0,1077.0,1
15.0,108.0,75.0,-2397.0,-2873.0,1043.0,1
6.0,94.0,75.0,-2410.0,-2935.0,1011.0,1
5.0,71.0,62.0,-2442.0,-3052.0,966.0,1
0.0,43.0,40.0,-2420.0,-3177.0,902.0,1
-6.0,21.0,9.0,-2300.0,-3253.0,821.0,1
-31.0,1.0,-24.0,-2098.0,-3250.0,742.0,1
-33.0,-25.0,-61.0,-1854.0,-3182.0,691.0,1
-29.0,-41.0,-86.0,-1617.0,-3087.0,657.0,1
-12.0,-45.0,-95.0,-1404.0,-2999.0,636.0,1
-8.0,-44.0,-94.0,-1182.0,-2959.0,609.0,1
2.0,-37.0,-90.0,-998.0,-2973.0,586.0,1
14.0,-20.0,-90.0,-920.0,-2942.0,601.0,1
30.0,-6.0,-84.0,-908.0,-2842.0,632.0,1
49.0,13.0,-83.0,-927.0,-2735.0,648.0,1
64.0,33.0,-78.0,-979.0,-2704.0,620.0,1
66.0,39.0,-62.0,-1031.0,-2755.0,581.0,1
79.0,49.0,-52.0,-1025.0,-2846.0,583.0,1
80.0,49.0,-53.0,-996.0,-2900.0,633.0,1
68.0,45.0,-52.0,-1019.0,-2883.0,662.0,1
58.0,38.0,-52.0,-1079.0,-2839.0,666.0,1
36.0,29.0,-44.0,-1165.0,-2826.0,666.0,1
19.0,20.0,-49.0,-1230.0,-2864.0,676.0,1
5.0,0.0,-52.0,-1231.0,-2882.0,695.0,1
-8.0,-3.0,-70.0,-1163.0,-2866.0,706.0,1
-23.0,-3.0,-82.0,-1088.0,-2830.0,712.0,1
-34.0,-7.0,-81.0,-1041.0,-2791.0,735.0,1
-41.0,3.0,-74.0,-1033.0,-2766.0,785.0,1
-43.0,0.0,-58.0,-1055.0,-2755.0,839.0,1
-47.0,-2.0,-46.0,-1081.0,-2762.0,891.0,1
-49.0,5.0,-49.0,-1076.0,-2780.0,931.0,1
-51.0,14.0,-54.0,-1052.0,-2782.0,969.0,1
-45.0,24.0,-65.0,-1027.0,-2751.0,1019.0,1
-28.0,26.0,-57.0,-1016.0,-2693.0,1065.0,1
-8.0,31.0,-57.0,-995.0,-2633.0,1094.0,1
15.0,43.0,-49.0,-976.0,-2570.0,1107.0,1
32.0,44.0,-42.0,-964.0,-2481.0,1116.0,1
35.0,55.0,-44.0,-938.0,-2361.0,1136.0,1
41.0,66.0,-57.0,-918.0,-2245.0,1177.0,1
45.0,83.0,-64.0,-972.0,-2162.0,1225.0,1
49.0,96.0,-71.0,-1084.0,-2094.0,1254.0,1
55.0,92.0,-54.0,-1191.0,-2009.0,1272.0,1
47.0,89.0,-54.0,-1236.0,-1876.0,1247.0,1
6.0,99.0,-15.0,-1270.0,-1709.0,1174.0,1
-59.0,100.0,-1.0,-1263.0,-1558.0,1104.0,1
-98.0,85.0,-26.0,-1195.0,-1409.0,1019.0,1
-133.0,72.0,-59.0,-1017.0,-1174.0,866.0,1
-172.0,49.0,-114.0,-678.0,-854.0,621.0,1
-197.0,32.0,-184.0,-280.0,-553.0,314.0,1
-218.0,10.0,-197.0,-18.0,-244.0,17.0,1
-263.0,1.0,-194.0,85.0,80.0,-256.0,1
-333.0,-5.0,-162.0,65.0,344.0,-534.0,1
-439.0,17.0,-191.0,0.0,469.0,-803.0,1
-542.0,49.0,-254.0,-105.0,420.0,-1010.0,1
-678.0,115.0,-297.0,-304.0,168.0,-1234.0,1
-785.0,150.0,-268.0,-643.0,-188.0,-1396.0,1
-883.0,157.0,-133.0,-840.0,-608.0,-1483.0,1
-887.0,150.0,-86.0,-701.0,-1188.0,-1501.0,1
-941.0,232.0,9.0,-503.0,-1891.0,-1480.0,1
-986.0,424.0,31.0,-224.0,-2549.0,-1231.0,1
-1055.0,584.0,115.0,173.0,-3007.0,-575.0,1
-1409.0,698.0,235.0,598.0,-3147.0,563.0,1
-1669.0,690.0,236.0,842.0,-3067.0,2093.0,1
-1875.0,704.0,198.0,438.0,-3437.0,3317.0,1
-2115.0,645.0,189.0,-915.0,-4635.0,3671.0,1
-2297.0,649.0,192.0,-2889.0,-6081.0,3423.0,1
-2254.0,553.0,214.0,-4478.0,-6674.0,2944.0,1
-2021.0,415.0,317.0,-4706.0,-5678.0,2216.0,1
-1307.0,391.0,486.0,-3557.0,-3890.0,1195.0,1
-1043.0,393.0,367.0,-1833.0,-2288.0,-76.0,1
-906.0,276.0,135.0,-271.0,-914.0,-1036.0,1
-762.0,95.0,-31.0,463.0,445.0,-1896.0,1
-606.0,-60.0,75.0,598.0,2009.0,-2608.0,1
-428.0,-143.0,184.0,990.0,3366.0,-3053.0,1
-156.0,-81.0,163.0,1738.0,3814.0,-3353.0,1
32.0,66.0,5.0,2533.0,3602.0,-3592.0,1
134.0,228.0,-218.0,2872.0,3447.0,-3707.0,1
131.0,275.0,-291.0,2414.0,3640.0,-3630.0,1
73.0,229.0,-207.0,1576.0,3825.0,-3329.0,1
-52.0,264.0,-200.0,1241.0,3808.0,-2693.0,1
-146.0,278.0,-127.0,1258.0,3806.0,-1667.0,1
-192.0,264.0,-44.0,1483.0,3777.0,-589.0,1
-193.0,249.0,-7.0,1685.0,3503.0,204.0,1
-169.0,251.0,-30.0,1588.0,3014.0,497.0,1
-156.0,292.0,-34.0,1073.0,2527.0,388.0,1
-173.0,339.0,30.0,325.0,2172.0,140.0,1
-183.0,351.0,98.0,-290.0,1935.0,-16.0,1
-164.0,313.0,120.0,-637.0,1793.0,-12.0,1
-125.0,230.0,116.0,-832.0,1725.0,61.0,1
-63.0,120.0,116.0,-1050.0,1712.0,53.0,1
-20.0,89.0,119.0,-1317.0,1737.0,-77.0,1
2.0,49.0,107.0,-1408.0,1770.0,-44.0,1
31.0,-25.0,97.0,-1321.0,1768.0,240.0,1
44.0,-86.0,106.0,-1131.0,1675.0,553.0,1
35.0,-123.0,89.0,-845.0,1479.0,792.0,1
26.0,-132.0,63.0,-537.0,1224.0,928.0,1
16.0,-121.0,33.0,-288.0,985.0,930.0,1
-13.0,-76.0,16.0,-142.0,800.0,838.0,1
-35.0,-32.0,21.0,-102.0,647.0,704.0,1
-54.0,-13.0,24.0,-102.0,491.0,515.0,1
-81.0,-7.0,13.0,-100.0,365.0,294.0,1
-108.0,-7.0,-19.0,-85.0,306.0,89.0,1
-132.0,9.0,-50.0,-52.0,305.0,-53.0,1
-153.0,26.0,-85.0,2.0,356.0,-104.0,1
-166.0,49.0,-107.0,75.0,435.0,-66.0,1
-177.0,71.0,-113.0,133.0,525.0,3.0,1
-194.0,97.0,-84.0,181.0,600.0,53.0,1
-197.0,119.0,-58.0,223.0,618.0,119.0,1
-197.0,135.0,-34.0,217.0,562.0,171.0,1
-198.0,163.0,-17.0,155.0,436.0,206.0,1
-208.0,176.0,1.0,47.0,249.0,224.0,1
-227.0,175.0,11.0,-96.0,18.0,217.0,1
-241.0,168.0,17.0,-267.0,-251.0,180.0,1
-259.0,145.0,21.0,-467.0,-516.0,95.0,1
-261.0,127.0,21.0,-670.0,-730.0,-26.0,1
-250.0,99.0,31.0,-833.0,-879.0,-158.0,1
-228.0,88.0,36.0,-924.0,-963.0,-295.0,1
-205.0,81.0,37.0,-960.0,-985.0,-417.0,1
-195.0,74.0,37.0,-978.0,-951.0,-504.0,1
-191.0,72.0,45.0,-989.0,-898.0,-565.0,1
-206.0,71.0,59.0,-991.0,-885.0,-621.0,1
-240.0,75.0,61.0,-983.0,-943.0,-672.0,1
-279.0,89.0,51.0,-1011.0,-1054.0,-710.0,1
-322.0,103.0,43.0,-1095.0,-1180.0,-726.0,1
-364.0,111.0,39.0,-1209.0,-1277.0,-712.0,1
-387.0,118.0,38.0,-1290.0,-1332.0,-668.0,1
-403.0,122.0,34.0,-1307.0,-1363.0,-639.0,1
-400.0,110.0,29.0,-1279.0,-1396.0,-638.0,1
-396.0,101.0,26.0,-1235.0,-1454.0,-685.0,1
-392.0,97.0,25.0,-1171.0,-1541.0,-750.0,1
-384.0,90.0,18.0,-1092.0,-1622.0,-791.0,1
-369.0,79.0,3.0,-1004.0,-1654.0,-801.0,1
-384.0,51.0,17.0,-913.0,-1610.0,-786.0,1
-357.0,66.0,3.0,-821.0,-1475.0,-736.0,1
-365.0,61.0,7.0,-699.0,-1270.0,-635.0,1
-363.0,56.0,18.0,-530.0,-1044.0,-487.0,1
-358.0,44.0,27.0,-321.0,-832.0,-354.0,1
-356.0,34.0,26.0,-88.0,-655.0,-255.0,1
-368.0,31.0,31.0,141.0,-512.0,-190.0,1
-384.0,41.0,37.0,346.0,-404.0,-145.0,1
-398.0,53.0,38.0,496.0,-345.0,-105.0,1
-417.0,55.0,45.0,565.0,-346.0,-79.0,1
-401.0,70.0,46.0,557.0,-412.0,-87.0,1
-390.0,74.0,52.0,480.0,-484.0,-121.0,1
-376.0,85.0,46.0,388.0,-536.0,-175.0,1
-359.0,98.0,46.0,311.0,-544.0,-219.0,1
-341.0,104.0,43.0,264.0,-510.0,-239.0,1
-339.0,106.0,41.0,232.0,-441.0,-227.0,1
-347.0,93.0,41.0,187.0,-363.0,-197.0,1
-345.0,79.0,32.0,126.0,-302.0,-194.0,1
-336.0,66.0,23.0,47.0,-242.0,-210.0,1
-322.0,59.0,13.0,-44.0,-166.0,-230.0,1
-339.0,56.0,15.0,-109.0,-88.0,-241.0,1
-304.0,39.0,15.0,-124.0,-32.0,-239.0,1
-270.0,23.0,-2.0,-139.0,19.0,-293.0,1
-261.0,19.0,-3.0,-172.0,70.0,-352.0,1
-247.0,8.0,-4.0,-198.0,103.0,-371.0,1
-235.0,-2.0,-5.0,-218.0,118.0,-378.0,1
-229.0,-10.0,-8.0,-240.0,130.0,-373.0,1
-216.0,-28.0,-10.0,-256.0,136.0,-364.0,1
-207.0,-34.0,-14.0,-250.0,146.0,-355.0,1
-206.0,-33.0,-17.0,-216.0,167.0,-349.0,1
-203.0,-40.0,-17.0,-172.0,190.0,-337.0,1
-208.0,-39.0,-27.0,-119.0,195.0,-332.0,1
-204.0,-42.0,-31.0,-66.0,190.0,-331.0,1
-202.0,-35.0,-32.0,-15.0,177.0,-322.0,1
-208.0,-35.0,-38.0,32.0,145.0,-319.0,1
-207.0,-41.0,-40.0,75.0,97.0,-325.0,1
-202.0,-41.0,-37.0,122.0,55.0,-336.0,1
-200.0,-36.0,-47.0,177.0,16.0,-354.0,1
-202.0,-31.0,-51.0,207.0,-9.0,-352.0,1
-204.0,-32.0,-51.0,210.0,-33.0,-351.0,1
-202.0,-26.0,-46.0,214.0,-71.0,-366.0,1
-209.0,-22.0,-51.0,209.0,-105.0,-375.0,1
-244.0,-26.0,-42.0,170.0,-115.0,-392.0,1
-210.0,-28.0,-39.0,134.0,-140.0,-401.0,1
-221.0,-22.0,-45.0,99.0,-179.0,-435.0,1
-230.0,-14.0,-58.0,62.0,-200.0,-456.0,1
-242.0,-19.0,-58.0,1.0,-213.0,-450.0,1
-226.0,-31.0,-52.0,-56.0,-234.0,-447.0,1
-228.0,-38.0,-61.0,-84.0,-221.0,-434.0,1
-227.0,-46.0,-62.0,-91.0,-191.0,-414.0,1
-227.0,-46.0,-71.0,-102.0,-175.0,-402.0,1
-238.0,-51.0,-73.0,-132.0,-170.0,-385.0,1
-235.0,-52.0,-68.0,-162.0,-173.0,-362.0,1
-230.0,-51.0,-68.0,-186.0,-172.0,-336.0,1
-234.0,-56.0,-66.0,-188.0,-146.0,-303.0,1
-243.0,-56.0,-70.0,-173.0,-123.0,-262.0,1
-250.0,-55.0,-57.0,-146.0,-120.0,-228.0,1
-258.0,-54.0,-57.0,-104.0,-143.0,-207.0,1
-251.0,-54.0,-62.0,-64.0,-166.0,-188.0,1
-249.0,-52.0,-64.0,-39.0,-168.0,-177.0,1
-246.0,-48.0,-65.0,-45.0,-150.0,-155.0,1
-239.0,-57.0,-65.0,-74.0,-132.0,-135.0,1
-242.0,-55.0,-67.0,-97.0,-120.0,-132.0,1
-236.0,-54.0,-76.0,-115.0,-104.0,-134.0,1
-240.0,-55.0,-81.0,-133.0,-70.0,-127.0,1
-242.0,-68.0,-82.0,-146.0,-17.0,-118.0,1
-239.0,-57.0,-84.0,-146.0,39.0,-103.0,1
-238.0,-57.0,-85.0,-141.0,103.0,-88.0,1
-241.0,-59.0,-89.0,-140.0,168.0,-73.0,1
-253.0,-63.0,-88.0,-144.0,234.0,-57.0,1
-275.0,-59.0,-87.0,-154.0,282.0,-37.0,1
-292.0,-62.0,-85.0,-153.0,309.0,-1.0,1
-295.0,-64.0,-83.0,-136.0,303.0,27.0,1
-295.0,-71.0,-83.0,-97.0,283.0,37.0,1
-295.0,-66.0,-81.0,-53.0,261.0,44.0,1
-289.0,-59.0,-80.0,-3.0,240.0,58.0,1
-287.0,-58.0,-78.0,29.0,235.0,75.0,1
-280.0,-59.0,-73.0,58.0,222.0,98.0,1
-273.0,-55.0,-69.0,82.0,200.0,116.0,1
-271.0,-52.0,-65.0,101.0,182.0,142.0,1
-271.0,-49.0,-52.0,126.0,168.0,174.0,1
-262.0,-46.0,-48.0,157.0,155.0,198.0,1
-264.0,-38.0,-47.0,181.0,145.0,213.0,1
-258.0,-32.0,-40.0,189.0,131.0,221.0,1
-253.0,-25.0,-43.0,178.0,115.0,218.0,1
-254.0,-18.0,-39.0,143.0,99.0,213.0,1
-254.0,-18.0,-35.0,97.0,82.0,204.0,1
-249.0,-11.0,-39.0,38.0,65.0,189.0,1
-249.0,-11.0,-36.0,-25.0,51.0,168.0,1
-241.0,-17.0,-38.0,-86.0,45.0,158.0,1
-242.0,-16.0,-34.0,-133.0,47.0,145.0,1
-239.0,-22.0,-34.0,-164.0,55.0,139.0,1
-244.0,-27.0,-33.0,-186.0,65.0,128.0,1
-253.0,-25.0,-31.0,-191.0,71.0,133.0,1
-245.0,-40.0,-32.0,-169.0,65.0,133.0,1
-240.0,-40.0,-34.0,-139.0,61.0,108.0,1
-240.0,-39.0,-32.0,-112.0,57.0,92.0,1
-239.0,-37.0,-33.0,-84.0,62.0,88.0,1
-240.0,-30.0,-38.0,-59.0,69.0,89.0,1
-247.0,-28.0,-31.0,-40.0,73.0,92.0,1
-241.0,-24.0,-32.0,-25.0,72.0,90.0,1
-242.0,-20.0,-32.0,-19.0,69.0,82.0,1
-247.0,-16.0,-32.0,-24.0,66.0,79.0,1
-246.0,-12.0,-32.0,-37.0,64.0,77.0,1
-244.0,-11.0,-33.0,-58.0,56.0,61.0,1
-247.0,-10.0,-35.0,-89.0,45.0,42.0,1
-256.0,-11.0,-42.0,-124.0,35.0,29.0,1
-254.0,-13.0,-44.0,-157.0,24.0,15.0,1
-269.0,-13.0,-45.0,-183.0,17.0,0.0,1
-254.0,-22.0,-49.0,-198.0,16.0,-6.0,1
-253.0,-23.0,-53.0,-194.0,13.0,-30.0,1
-254.0,-27.0,-54.0,-181.0,16.0,-40.0,1
-258.0,-29.0,-56.0,-159.0,25.0,-44.0,1
-257.0,-31.0,-55.0,-131.0,28.0,-49.0,1
-261.0,-31.0,-54.0,-105.0,23.0,-59.0,1
-260.0,-28.0,-56.0,-87.0,14.0,-58.0,1
-253.0,-33.0,-63.0,-69.0,-2.0,-75.0,1
-258.0,-31.0,-58.0,-53.0,-11.0,-82.0,1
-263.0,-33.0,-59.0,-34.0,-10.0,-70.0,1
-264.0,-35.0,-55.0,-5.0,-6.0,-55.0,1
-258.0,-30.0,-60.0,35.0,-1.0,-50.0,1
-256.0,-28.0,-62.0,72.0,12.0,-46.0,1
-254.0,-26.0,-62.0,108.0,28.0,-39.0,1
-254.0,-23.0,-63.0,129.0,51.0,-29.0,1
-262.0,-20.0,-66.0,143.0,80.0,-9.0,1
-270.0,-22.0,-56.0,162.0,103.0,16.0,1
-274.0,-23.0,-57.0,187.0,110.0,28.0,1
-273.0,-18.0,-55.0,205.0,108.0,33.0,1
-272.0,-14.0,-49.0,210.0,106.0,36.0,1
-262.0,-10.0,-60.0,200.0,103.0,39.0,1
-265.0,-16.0,-47.0,180.0,99.0,41.0,1
-265.0,-20.0,-49.0,151.0,94.0,45.0,1
-262.0,-23.0,-45.0,122.0,87.0,46.0,1
-263.0,-26.0,-48.0,101.0,80.0,47.0,1
-266.0,-23.0,-50.0,87.0,68.0,48.0,1
-259.0,-28.0,-50.0,82.0,55.0,48.0,1
-259.0,-30.0,-49.0,81.0,42.0,45.0,1
-257.0,-29.0,-50.0,85.0,31.0,41.0,1
-255.0,-27.0,-52.0,87.0,25.0,36.0,1
-253.0,-23.0,-49.0,87.0,19.0,33.0,1
-254.0,-27.0,-46.0,87.0,17.0,30.0,1
-252.0,-24.0,-46.0,88.0,17.0,24.0,1
-250.0,-23.0,-45.0,88.0,18.0,20.0,1
-252.0,-21.0,-44.0,87.0,20.0,14.0,1
-249.0,-23.0,-43.0,79.0,22.0,6.0,1
-251.0,-18.0,-46.0,62.0,21.0,-2.0,1
-251.0,-19.0,-49.0,39.0,15.0,-12.0,1
-247.0,-21.0,-46.0,11.0,7.0,-21.0,1
-248.0,-20.0,-45.0,-18.0,-3.0,-30.0,1
-248.0,-22.0,-47.0,-46.0,-12.0,-39.0,1
-248.0,-20.0,-47.0,-74.0,-21.0,-46.0,1
-252.0,-28.0,-50.0,-95.0,-29.0,-52.0,1
-247.0,-30.0,-46.0,-105.0,-38.0,-57.0,1
-249.0,-26.0,-46.0,-108.0,-46.0,-61.0,1
-251.0,-26.0,-45.0,-107.0,-50.0,-63.0,1
-249.0,-29.0,-45.0,-99.0,-51.0,-64.0,1
-251.0,-32.0,-45.0,-91.0,-48.0,-63.0,1
-253.0,-28.0,-45.0,-82.0,-44.0,-62.0,1
-253.0,-30.0,-45.0,-73.0,-41.0,-62.0,1
-252.0,-29.0,-41.0,-62.0,-39.0,-59.0,1
-253.0,-30.0,-44.0,-45.0,-36.0,-57.0,1
-253.0,-32.0,-45.0,-26.0,-29.0,-56.0,1
-256.0,-31.0,-46.0,-12.0,-23.0,-55.0,1
-254.0,-31.0,-42.0,-4.0,-18.0,-53.0,1
-254.0,-28.0,-41.0,-3.0,-16.0,-54.0,1
-253.0,-27.0,-39.0,-10.0,-17.0,-55.0,1
-256.0,-28.0,-39.0,-20.0,-20.0,-56.0,1
-256.0,-30.0,-43.0,-32.0,-23.0,-57.0,1
-256.0,-24.0,-41.0,-45.0,-24.0,-55.0,1
-254.0,-30.0,-39.0,-53.0,-25.0,-52.0,1
-258.0,-29.0,-45.0,-56.0,-26.0,-51.0,1
-256.0,-27.0,-39.0,-55.0,-24.0,-49.0,1
-258.0,-26.0,-39.0,-51.0,-22.0,-47.0,1
-252.0,-22.0,-35.0,-44.0,-21.0,-44.0,1
-258.0,-27.0,-38.0,-36.0,-17.0,-46.0,1
-256.0,-26.0,-38.0,-30.0,-13.0,-46.0,1
-258.0,-24.0,-40.0,-29.0,-9.0,-44.0,1
-257.0,-27.0,-38.0,-32.0,-4.0,-44.0,1
-256.0,-26.0,-35.0,-35.0,-2.0,-39.0,1
-256.0,-29.0,-36.0,-36.0,1.0,-40.0,1
-255.0,-31.0,-37.0,-36.0,0.0,-38.0,1
-256.0,-32.0,-30.0,-36.0,3.0,-37.0,1
-257.0,-29.0,-33.0,-31.0,9.0,-35.0,1
-256.0,-35.0,-34.0,-26.0,13.0,-34.0,1
-256.0,-35.0,-34.0,-21.0,10.0,-32.0,1
-255.0,-37.0,-35.0,-18.0,10.0,-31.0,1
-257.0,-32.0,-32.0,-16.0,11.0,-31.0,1
-255.0,-32.0,-35.0,-20.0,16.0,-29.0,1
-255.0,-31.0,-32.0,-28.0,22.0,-27.0,1
-255.0,-30.0,-35.0,-40.0,26.0,-26.0,1
-253.0,-26.0,-37.0,-56.0,31.0,-23.0,1
-259.0,-30.0,-36.0,-70.0,36.0,-21.0,1
-254.0,-29.0,-33.0,-84.0,40.0,-20.0,1
-251.0,-30.0,-39.0,-94.0,43.0,-20.0,1
-247.0,-40.0,-31.0,-104.0,47.0,-19.0,1
-251.0,-35.0,-36.0,-112.0,49.0,-19.0,1
-249.0,-34.0,-38.0,-117.0,51.0,-18.0,1
-251.0,-40.0,-40.0,-120.0,53.0,-16.0,1
-250.0,-38.0,-37.0,-117.0,52.0,-15.0,1
-253.0,-38.0,-36.0,-107.0,51.0,-14.0,1
-255.0,-35.0,-41.0,-93.0,51.0,-12.0,1
-252.0,-38.0,-42.0,-77.0,55.0,-11.0,1
-254.0,-35.0,-37.0,-62.0,58.0,-8.0,1
-253.0,-33.0,-37.0,-49.0,64.0,-4.0,1
-252.0,-34.0,-40.0,-44.0,68.0,-1.0,1
-252.0,-34.0,-37.0,-44.0,71.0,4.0,1
-252.0,-31.0,-36.0,-46.0,74.0,8.0,1
-252.0,-32.0,-35.0,-51.0,76.0,11.0,1
-251.0,-33.0,-33.0,-56.0,78.0,15.0,1
-255.0,-34.0,-35.0,-61.0,76.0,16.0,1
-252.0,-33.0,-35.0,-71.0,73.0,17.0,1
-251.0,-31.0,-38.0,-82.0,70.0,16.0,1
-253.0,-31.0,-35.0,-92.0,66.0,18.0,1
-252.0,-34.0,-39.0,-102.0,62.0,20.0,1
-255.0,-31.0,-36.0,-110.0,60.0,20.0,1
-255.0,-32.0,-35.0,-112.0,62.0,22.0,1
-251.0,-29.0,-37.0,-114.0,66.0,24.0,1
-254.0,-34.0,-38.0,-114.0,71.0,26.0,1
-255.0,-34.0,-36.0,-110.0,74.0,28.0,1
-255.0,-31.0,-35.0,-106.0,75.0,27.0,1
-255.0,-29.0,-37.0,-101.0,74.0,28.0,1
-256.0,-28.0,-37.0,-96.0,73.0,29.0,1
-255.0,-31.0,-39.0,-92.0,71.0,27.0,1
-256.0,-27.0,-38.0,-91.0,72.0,27.0,1
-256.0,-27.0,-40.0,-90.0,76.0,29.0,1
-253.0,-28.0,-36.0,-87.0,81.0,32.0,1
-256.0,-30.0,-39.0,-84.0,87.0,33.0,1
-257.0,-30.0,-40.0,-83.0,93.0,34.0,1
-254.0,-32.0,-40.0,-81.0,98.0,35.0,1
-256.0,-32.0,-40.0,-80.0,97.0,35.0,1
-256.0,-31.0,-35.0,-82.0,97.0,35.0,1
-258.0,-30.0,-39.0,-83.0,96.0,34.0,1
-257.0,-27.0,-37.0,-86.0,94.0,35.0,1
-257.0,-25.0,-38.0,-92.0,92.0,35.0,1
-256.0,-25.0,-40.0,-98.0,93.0,35.0,1
-254.0,-28.0,-39.0,-104.0,97.0,35.0,1
-255.0,-27.0,-39.0,-110.0,101.0,37.0,1
-256.0,-27.0,-43.0,-115.0,109.0,39.0,1
-254.0,-31.0,-39.0,-116.0,115.0,41.0,1
-255.0,-32.0,-41.0,-116.0,118.0,41.0,1
-255.0,-31.0,-43.0,-110.0,121.0,44.0,1
-253.0,-33.0,-44.0,-100.0,123.0,47.0,1
-253.0,-29.0,-41.0,-86.0,127.0,51.0,1
-251.0,-32.0,-43.0,-68.0,132.0,53.0,1
-252.0,-30.0,-40.0,-51.0,137.0,55.0,1
-255.0,-25.0,-45.0,-36.0,136.0,55.0,1
-255.0,-26.0,-45.0,-26.0,135.0,56.0,1
-255.0,-21.0,-41.0,-27.0,129.0,52.0,1
-254.0,-23.0,-41.0,-36.0,124.0,52.0,1
-254.0,-24.0,-46.0,-49.0,118.0,50.0,1
-253.0,-24.0,-44.0,-65.0,114.0,48.0,1
-254.0,-26.0,-45.0,-78.0,112.0,46.0,1
-253.0,-25.0,-40.0,-88.0,110.0,44.0,1
-256.0,-26.0,-41.0,-96.0,110.0,42.0,1
-256.0,-24.0,-41.0,-102.0,110.0,43.0,1
-255.0,-23.0,-43.0,-107.0,109.0,43.0,1
-256.0,-22.0,-43.0,-110.0,105.0,42.0,1
-256.0,-30.0,-45.0,-114.0,103.0,41.0,1
-254.0,-28.0,-41.0,-115.0,100.0,41.0,1
-244.0,-14.0,-41.0,-116.0,97.0,38.0,1
-258.0,-26.0,-44.0,-115.0,94.0,38.0,1
-257.0,-28.0,-41.0,-116.0,90.0,36.0,1
-259.0,-26.0,-42.0,-119.0,86.0,33.0,1
-255.0,-27.0,-42.0,-124.0,83.0,33.0,1
-256.0,-27.0,-43.0,-126.0,80.0,32.0,1
-256.0,-27.0,-43.0,-127.0,79.0,33.0,1
-255.0,-29.0,-46.0,-127.0,77.0,31.0,1
-256.0,-22.0,-44.0,-127.0,82.0,33.0,1
-255.0,-24.0,-46.0,-126.0,86.0,35.0,1
-255.0,-24.0,-46.0,-120.0,90.0,34.0,1
-257.0,-25.0,-45.0,-115.0,93.0,38.0,1
-256.0,-23.0,-48.0,-108.0,94.0,37.0,1
-255.0,-23.0,-48.0,-103.0,96.0,35.0,1
-257.0,-24.0,-44.0,-100.0,96.0,32.0,1
-254.0,-25.0,-46.0,-99.0,94.0,31.0,1
-254.0,-24.0,-48.0,-98.0,91.0,29.0,1
-256.0,-27.0,-45.0,-96.0,91.0,33.0,1
-256.0,-23.0,-44.0,-93.0,89.0,35.0,1
-253.0,-28.0,-45.0,-89.0,86.0,32.0,1
-255.0,-24.0,-45.0,-84.0,86.0,31.0,1
-257.0,-30.0,-43.0,-80.0,86.0,30.0,1
-254.0,-21.0,-43.0,-78.0,86.0,29.0,1
-256.0,-23.0,-44.0,-78.0,86.0,27.0,1
-253.0,-22.0,-42.0,-82.0,85.0,25.0,1
-255.0,-22.0,-42.0,-89.0,83.0,25.0,1
-257.0,-19.0,-40.0,-98.0,80.0,23.0,1
-257.0,-21.0,-46.0,-106.0,80.0,22.0,1
-253.0,-21.0,-45.0,-116.0,82.0,21.0,1
-253.0,-23.0,-44.0,-123.0,82.0,20.0,1
-256.0,-25.0,-43.0,-129.0,82.0,21.0,1
-256.0,-21.0,-41.0,-133.0,84.0,23.0,1
-256.0,-23.0,-43.0,-133.0,82.0,25.0,1
-255.0,-23.0,-44.0,-131.0,85.0,27.0,1
-254.0,-24.0,-44.0,-128.0,84.0,29.0,1
-254.0,-23.0,-45.0,-126.0,85.0,30.0,1
-255.0,-22.0,-43.0,-126.0,84.0,30.0,1
-254.0,-23.0,-45.0,-128.0,85.0,28.0,1
-250.0,-22.0,-42.0,-132.0,85.0,28.0,1
-255.0,-21.0,-45.0,-136.0,83.0,27.0,1
-255.0,-18.0,-43.0,-139.0,79.0,26.0,1
-253.0,-20.0,-44.0,-142.0,77.0,27.0,1
-256.0,-21.0,-44.0,-141.0,76.0,25.0,1
-247.0,-25.0,-36.0,-138.0,73.0,22.0,1
-256.0,-21.0,-42.0,-133.0,71.0,19.0,1
-253.0,-23.0,-44.0,-128.0,69.0,18.0,1
-255.0,-25.0,-45.0,-123.0,70.0,16.0,1
-254.0,-24.0,-46.0,-120.0,69.0,13.0,1
-257.0,-23.0,-45.0,-116.0,74.0,12.0,1
-256.0,-25.0,-44.0,-111.0,77.0,14.0,1
-258.0,-21.0,-44.0,-103.0,79.0,16.0,1
-258.0,-26.0,-45.0,-93.0,81.0,17.0,1
-255.0,-20.0,-43.0,-85.0,84.0,17.0,1
-258.0,-23.0,-44.0,-79.0,88.0,19.0,1
-257.0,-23.0,-42.0,-76.0,90.0,19.0,1
-256.0,-28.0,-42.0,-73.0,91.0,18.0,1
-256.0,-24.0,-42.0,-72.0,91.0,18.0,1
-257.0,-21.0,-41.0,-70.0,91.0,19.0,1
-257.0,-21.0,-42.0,-70.0,91.0,19.0,1
-255.0,-24.0,-42.0,-72.0,91.0,21.0,1
-256.0,-23.0,-43.0,-75.0,91.0,21.0,1
-256.0,-21.0,-47.0,-80.0,91.0,21.0,1
-257.0,-25.0,-42.0,-83.0,93.0,21.0,1
-255.0,-22.0,-47.0,-85.0,94.0,23.0,1
-255.0,-20.0,-43.0,-87.0,97.0,23.0,1
-257.0,-22.0,-45.0,-87.0,101.0,23.0,1
-254.0,-20.0,-47.0,-88.0,104.0,23.0,1
-253.0,-22.0,-46.0,-88.0,106.0,23.0,1
-254.0,-22.0,-47.0,-88.0,108.0,24.0,1
-252.0,-25.0,-45.0,-87.0,108.0,25.0,1
-256.0,-22.0,-50.0,-83.0,108.0,24.0,1
-255.0,-23.0,-45.0,-81.0,109.0,23.0,1
-252.0,-24.0,-47.0,-79.0,109.0,24.0,1
-256.0,-23.0,-48.0,-82.0,106.0,23.0,1
-253.0,-22.0,-47.0,-83.0,104.0,22.0,1
-256.0,-22.0,-50.0,-83.0,99.0,21.0,1
-256.0,-21.0,-48.0,-81.0,98.0,21.0,1
-255.0,-22.0,-46.0,-74.0,99.0,22.0,1
-256.0,-20.0,-51.0,-68.0,96.0,22.0,1
-256.0,-20.0,-51.0,-59.0,95.0,23.0,1
-255.0,-18.0,-50.0,-52.0,94.0,22.0,1
-259.0,-16.0,-50.0,-43.0,92.0,24.0,1
-256.0,-19.0,-54.0,-28.0,85.0,23.0,1
-253.0,-20.0,-54.0,-17.0,80.0,16.0,1
-254.0,-22.0,-50.0,-13.0,80.0,13.0,1
-256.0,-20.0,-51.0,-9.0,81.0,12.0,1
-259.0,-15.0,-59.0,-1.0,79.0,8.0,1
-256.0,-19.0,-49.0,7.0,76.0,7.0,1
-256.0,-22.0,-47.0,13.0,73.0,7.0,1
-255.0,-20.0,-48.0,14.0,72.0,5.0,1
-253.0,-22.0,-46.0,17.0,71.0,5.0,1
-253.0,-25.0,-46.0,22.0,70.0,5.0,1
-254.0,-26.0,-47.0,34.0,71.0,7.0,1
-256.0,-23.0,-48.0,46.0,72.0,7.0,1
-257.0,-24.0,-52.0,55.0,70.0,8.0,1
-255.0,-20.0,-50.0,62.0,68.0,8.0,1
-256.0,-18.0,-52.0,68.0,67.0,9.0,1
-256.0,-20.0,-47.0,73.0,67.0,7.0,1
-256.0,-19.0,-51.0,73.0,60.0,5.0,1
-257.0,-14.0,-49.0,73.0,54.0,1.0,1
-257.0,-14.0,-53.0,68.0,48.0,-1.0,1
-255.0,-15.0,-47.0,61.0,42.0,-1.0,1
-255.0,-14.0,-51.0,55.0,36.0,-5.0,1
-256.0,-14.0,-47.0,50.0,32.0,-8.0,1
-257.0,-12.0,-46.0,48.0,32.0,-9.0,1
-254.0,-18.0,-43.0,57.0,31.0,-4.0,1
-251.0,-19.0,-42.0,67.0,29.0,-10.0,1
-253.0,-15.0,-44.0,71.0,27.0,-14.0,1
-256.0,-23.0,-46.0,72.0,37.0,-13.0,1
-254.0,-20.0,-46.0,68.0,47.0,-9.0,1
-256.0,-19.0,-49.0,65.0,54.0,-5.0,1
-255.0,-21.0,-47.0,62.0,59.0,-2.0,1
-256.0,-23.0,-44.0,62.0,66.0,-2.0,1
-256.0,-22.0,-45.0,63.0,69.0,2.0,1
-258.0,-22.0,-44.0,67.0,70.0,6.0,1
-257.0,-25.0,-43.0,65.0,73.0,4.0,1
-256.0,-25.0,-43.0,66.0,73.0,3.0,1
-256.0,-23.0,-43.0,65.0,74.0,1.0,1
-255.0,-22.0,-44.0,64.0,75.0,-3.0,1
-254.0,-24.0,-44.0,64.0,76.0,-3.0,1
-256.0,-23.0,-43.0,62.0,78.0,-3.0,1
-252.0,-25.0,-44.0,57.0,79.0,-2.0,1
-255.0,-23.0,-43.0,50.0,82.0,0.0,1
-255.0,-25.0,-45.0,42.0,84.0,0.0,1
-255.0,-26.0,-43.0,32.0,86.0,1.0,1
-257.0,-21.0,-43.0,22.0,87.0,2.0,1
-256.0,-22.0,-48.0,13.0,88.0,2.0,1
-257.0,-19.0,-45.0,6.0,85.0,1.0,1
-255.0,-19.0,-46.0,1.0,82.0,0.0,1
-250.0,-26.0,-41.0,-3.0,77.0,-2.0,1
-259.0,-16.0,-48.0,-4.0,72.0,-2.0,1
-275.0,-16.0,-46.0,4.0,65.0,2.0,1
-250.0,-22.0,-40.0,32.0,48.0,23.0,1
-243.0,-33.0,-52.0,68.0,17.0,-3.0,1
-243.0,-28.0,-56.0,56.0,0.0,-40.0,1
-251.0,-25.0,-51.0,16.0,21.0,-32.0,1
-256.0,-25.0,-49.0,-12.0,41.0,-15.0,1
-258.0,-26.0,-50.0,-16.0,40.0,-10.0,1
-258.0,-23.0,-46.0,-7.0,31.0,-9.0,1
-257.0,-20.0,-49.0,12.0,22.0,-7.0,1
-257.0,-20.0,-51.0,31.0,16.0,-8.0,1
-256.0,-20.0,-52.0,43.0,18.0,-13.0,1
-255.0,-20.0,-48.0,50.0,19.0,-13.0,1
-256.0,-21.0,-53.0,55.0,18.0,-13.0,1
-256.0,-23.0,-52.0,58.0,19.0,-13.0,1
-254.0,-23.0,-48.0,62.0,20.0,-12.0,1
-255.0,-22.0,-47.0,70.0,19.0,-10.0,1
-254.0,-21.0,-50.0,78.0,19.0,-9.0,1
-253.0,-20.0,-48.0,91.0,14.0,-9.0,1
-255.0,-19.0,-44.0,100.0,10.0,-10.0,1
-258.0,-18.0,-46.0,109.0,4.0,-16.0,1
-257.0,-23.0,-44.0,113.0,-5.0,-20.0,1
-256.0,-16.0,-45.0,114.0,-12.0,-25.0,1
-257.0,-19.0,-41.0,113.0,-18.0,-28.0,1
-257.0,-13.0,-44.0,106.0,-23.0,-29.0,1
-257.0,-20.0,-43.0,99.0,-25.0,-34.0,1
-256.0,-18.0,-43.0,94.0,-26.0,-37.0,1
-256.0,-20.0,-43.0,87.0,-28.0,-42.0,1
-258.0,-18.0,-44.0,85.0,-30.0,-45.0,1
-256.0,-21.0,-45.0,80.0,-28.0,-45.0,1
-256.0,-19.0,-44.0,74.0,-21.0,-46.0,1
-257.0,-19.0,-38.0,68.0,-13.0,-46.0,1
-253.0,-23.0,-41.0,62.0,-6.0,-46.0,1
-256.0,-21.0,-39.0,59.0,2.0,-44.0,1
-254.0,-24.0,-35.0,57.0,7.0,-42.0,1
-255.0,-25.0,-36.0,53.0,11.0,-41.0,1
-254.0,-23.0,-42.0,48.0,16.0,-40.0,1
-255.0,-26.0,-37.0,45.0,18.0,-39.0,1
-255.0,-25.0,-37.0,42.0,19.0,-39.0,1
-255.0,-26.0,-36.0,42.0,21.0,-39.0,1
-256.0,-26.0,-34.0,43.0,23.0,-38.0,1
-256.0,-25.0,-38.0,43.0,26.0,-38.0,1
-255.0,-20.0,-34.0,44.0,29.0,-38.0,1
-256.0,-27.0,-40.0,46.0,30.0,-41.0,1
-256.0,-22.0,-41.0,44.0,32.0,-43.0,1
-255.0,-21.0,-41.0,36.0,36.0,-45.0,1
-254.0,-26.0,-35.0,21.0,41.0,-45.0,1
-254.0,-22.0,-37.0,-1.0,46.0,-44.0,1
-255.0,-22.0,-38.0,-23.0,53.0,-42.0,1
-257.0,-22.0,-37.0,-42.0,57.0,-36.0,1
-256.0,-23.0,-41.0,-54.0,63.0,-33.0,1
-256.0,-23.0,-41.0,-58.0,68.0,-29.0,1
-256.0,-24.0,-42.0,-57.0,72.0,-25.0,1
-255.0,-26.0,-41.0,-54.0,75.0,-24.0,1
-257.0,-25.0,-45.0,-45.0,75.0,-23.0,1
-255.0,-26.0,-45.0,-34.0,73.0,-20.0,1
-253.0,-28.0,-41.0,-22.0,72.0,-20.0,1
-254.0,-25.0,-46.0,-8.0,68.0,-21.0,1
-254.0,-26.0,-45.0,6.0,63.0,-20.0,1
-256.0,-23.0,-42.0,17.0,59.0,-20.0,1
-254.0,-25.0,-44.0,24.0,56.0,-20.0,1
-256.0,-21.0,-43.0,24.0,52.0,-21.0,1
-254.0,-21.0,-46.0,23.0,50.0,-21.0,1
-254.0,-24.0,-40.0,21.0,46.0,-21.0,1
-261.0,-34.0,-49.0,21.0,44.0,-20.0,1
-256.0,-21.0,-44.0,22.0,40.0,-19.0,1
-254.0,-27.0,-45.0,25.0,38.0,-18.0,1
-253.0,-24.0,-40.0,28.0,38.0,-19.0,1
-253.0,-27.0,-43.0,28.0,40.0,-18.0,1
-254.0,-23.0,-40.0,27.0,39.0,-18.0,1
-255.0,-25.0,-38.0,24.0,36.0,-18.0,1
-250.0,-26.0,-36.0,20.0,36.0,-18.0,1
-254.0,-25.0,-37.0,14.0,35.0,-16.0,1
-254.0,-24.0,-38.0,7.0,35.0,-13.0,1
-253.0,-27.0,-37.0,-1.0,37.0,-13.0,1
-252.0,-24.0,-37.0,-10.0,36.0,-11.0,1
-254.0,-27.0,-40.0,-18.0,36.0,-11.0,1
-254.0,-27.0,-32.0,-26.0,35.0,-10.0,1
-254.0,-28.0,-36.0,-33.0,37.0,-7.0,1
-256.0,-23.0,-36.0,-41.0,41.0,-5.0,1
-255.0,-25.0,-32.0,-50.0,46.0,-2.0,1
-256.0,-25.0,-33.0,-60.0,53.0,-1.0,1
-256.0,-26.0,-34.0,-72.0,62.0,5.0,1
-254.0,-26.0,-35.0,-85.0,68.0,7.0,1
-255.0,-23.0,-36.0,-100.0,76.0,11.0,1
-254.0,-27.0,-34.0,-114.0,81.0,15.0,1
-252.0,-19.0,-21.0,-124.0,87.0,20.0,1
-256.0,-24.0,-40.0,-129.0,92.0,25.0,1
-256.0,-28.0,-39.0,-127.0,94.0,30.0,1
-255.0,-27.0,-42.0,-120.0,97.0,36.0,1
-256.0,-26.0,-41.0,-105.0,102.0,37.0,1
-255.0,-25.0,-40.0,-87.0,108.0,39.0,1
-256.0,-22.0,-44.0,-68.0,109.0,38.0,1
-254.0,-24.0,-46.0,-50.0,107.0,36.0,1
-252.0,-24.0,-42.0,-37.0,106.0,34.0,1
-256.0,-19.0,-45.0,-28.0,103.0,32.0,1
-256.0,-18.0,-41.0,-24.0,97.0,29.0,1
-256.0,-21.0,-43.0,-22.0,96.0,27.0,1
-255.0,-20.0,-42.0,-24.0,90.0,25.0,1
-256.0,-20.0,-41.0,-25.0,86.0,23.0,1
-256.0,-18.0,-44.0,-27.0,85.0,20.0,1
-257.0,-18.0,-45.0,-28.0,84.0,20.0,1
-256.0,-23.0,-42.0,-29.0,85.0,19.0,1
-253.0,-28.0,-44.0,-31.0,84.0,19.0,1
-256.0,-17.0,-46.0,-33.0,86.0,18.0,1
-256.0,-22.0,-47.0,-34.0,86.0,17.0,1
-255.0,-25.0,-44.0,-34.0,85.0,18.0,1
-255.0,-17.0,-42.0,-33.0,86.0,20.0,1
-255.0,-25.0,-43.0,-29.0,86.0,21.0,1
-255.0,-27.0,-43.0,-25.0,87.0,21.0,1
-254.0,-26.0,-45.0,-20.0,88.0,22.0,1
-258.0,-22.0,-42.0,-14.0,88.0,19.0,1
-257.0,-24.0,-43.0,-5.0,86.0,19.0,1
-257.0,-23.0,-38.0,1.0,82.0,17.0,1
-259.0,-20.0,-42.0,9.0,80.0,15.0,1
-255.0,-19.0,-46.0,14.0,79.0,14.0,1
-256.0,-21.0,-44.0,14.0,79.0,11.0,1
-256.0,-22.0,-41.0,13.0,77.0,10.0,1
-257.0,-26.0,-46.0,12.0,76.0,8.0,1
-255.0,-23.0,-43.0,9.0,74.0,9.0,1
-256.0,-19.0,-45.0,9.0,74.0,7.0,1
-254.0,-22.0,-44.0,8.0,75.0,9.0,1
-255.0,-22.0,-44.0,6.0,73.0,8.0,1
-257.0,-20.0,-41.0,3.0,72.0,7.0,1
-253.0,-25.0,-46.0,0.0,70.0,8.0,1
-255.0,-24.0,-39.0,-2.0,66.0,8.0,1
-258.0,-20.0,-45.0,-4.0,62.0,6.0,1
-253.0,-24.0,-39.0,-5.0,56.0,6.0,1
-255.0,-23.0,-41.0,-11.0,54.0,5.0,1
-259.0,-26.0,-42.0,-18.0,55.0,4.0,1
-255.0,-20.0,-40.0,-25.0,56.0,3.0,1
-255.0,-24.0,-43.0,-36.0,59.0,5.0,1
-256.0,-23.0,-37.0,-43.0,63.0,9.0,1
-255.0,-20.0,-44.0,-50.0,68.0,12.0,1
-254.0,-25.0,-39.0,-54.0,72.0,13.0,1
-256.0,-23.0,-39.0,-57.0,77.0,15.0,1
-256.0,-24.0,-42.0,-57.0,81.0,18.0,1
-256.0,-24.0,-40.0,-57.0,84.0,18.0,1
-256.0,-23.0,-38.0,-57.0,83.0,19.0,1
-256.0,-22.0,-43.0,-57.0,84.0,17.0,1
-253.0,-24.0,-40.0,-59.0,84.0,15.0,1
-255.0,-24.0,-44.0,-61.0,83.0,14.0,1
-256.0,-22.0,-41.0,-60.0,80.0,12.0,1
-257.0,-22.0,-42.0,-62.0,78.0,12.0,1
-254.0,-21.0,-46.0,-60.0,76.0,11.0,1
-257.0,-18.0,-41.0,-59.0,76.0,10.0,1
-257.0,-19.0,-40.0,-55.0,77.0,8.0,1
-255.0,-23.0,-45.0,-53.0,78.0,6.0,1
-256.0,-21.0,-40.0,-50.0,79.0,4.0,1
-256.0,-20.0,-38.0,-47.0,81.0,4.0,1
-256.0,-17.0,-51.0,-45.0,81.0,2.0,1
-257.0,-19.0,-43.0,-43.0,81.0,2.0,1
-254.0,-22.0,-41.0,-39.0,79.0,1.0,1
-256.0,-23.0,-47.0,-37.0,80.0,0.0,1
-257.0,-23.0,-38.0,-36.0,80.0,-1.0,1
-256.0,-20.0,-44.0,-34.0,79.0,-5.0,1
-257.0,-20.0,-44.0,-32.0,77.0,-6.0,1
-256.0,-20.0,-44.0,-31.0,74.0,-6.0,1
-257.0,-21.0,-44.0,-31.0,74.0,-6.0,1
-257.0,-20.0,-43.0,-31.0,71.0,-6.0,1
-257.0,-19.0,-43.0,-31.0,71.0,-9.0,1
-257.0,-21.0,-43.0,-31.0,72.0,-10.0,1
-255.0,-20.0,-44.0,-31.0,72.0,-10.0,1
-254.0,-24.0,-42.0,-29.0,71.0,-10.0,1
-256.0,-23.0,-46.0,-26.0,71.0,-9.0,1
-256.0,-22.0,-43.0,-23.0,70.0,-9.0,1
-256.0,-21.0,-46.0,-19.0,69.0,-8.0,1
-255.0,-22.0,-41.0,-14.0,68.0,-7.0,1
-258.0,-20.0,-45.0,-10.0,68.0,-8.0,1
-253.0,-28.0,-41.0,-5.0,66.0,-10.0,1
-251.0,-23.0,-44.0,-3.0,65.0,-9.0,1
-254.0,-20.0,-50.0,-2.0,63.0,-11.0,1
-254.0,-22.0,-43.0,-3.0,61.0,-11.0,1
-256.0,-20.0,-42.0,-3.0,59.0,-11.0,1
-256.0,-22.0,-42.0,-3.0,58.0,-11.0,1
-255.0,-21.0,-41.0,-5.0,57.0,-12.0,1
-256.0,-21.0,-44.0,-5.0,59.0,-11.0,1
-256.0,-21.0,-41.0,-8.0,62.0,-10.0,1
-256.0,-24.0,-38.0,-8.0,63.0,-9.0,1
-254.0,-22.0,-41.0,-10.0,64.0,-9.0,1
-254.0,-21.0,-42.0,-10.0,65.0,-7.0,1
-256.0,-23.0,-42.0,-11.0,66.0,-4.0,1
-253.0,-25.0,-41.0,-13.0,65.0,-6.0,1
-255.0,-22.0,-40.0,-16.0,65.0,-5.0,1
-255.0,-24.0,-42.0,-19.0,64.0,-7.0,1
-255.0,-22.0,-44.0,-23.0,62.0,-7.0,1
-256.0,-21.0,-44.0,-25.0,60.0,-6.0,1
-256.0,-22.0,-42.0,-26.0,59.0,-7.0,1
-253.0,-24.0,-42.0,-25.0,58.0,-6.0,1
-255.0,-21.0,-40.0,-24.0,57.0,-5.0,1
-256.0,-21.0,-43.0,-24.0,58.0,-5.0,1
-254.0,-19.0,-42.0,-25.0,58.0,-5.0,1
-257.0,-24.0,-41.0,-22.0,62.0,-5.0,1
-260.0,-27.0,-61.0,-18.0,64.0,-6.0,1
-256.0,-23.0,-41.0,-15.0,65.0,-6.0,1
-255.0,-23.0,-43.0,-12.0,64.0,-8.0,1
-255.0,-26.0,-42.0,-13.0,66.0,-7.0,1
-257.0,-24.0,-40.0,-14.0,65.0,-9.0,1
-256.0,-23.0,-40.0,-17.0,64.0,-8.0,1
-255.0,-26.0,-37.0,-17.0,66.0,-8.0,1
-256.0,-27.0,-38.0,-17.0,68.0,-5.0,1
-255.0,-25.0,-41.0,-15.0,69.0,-4.0,1
-256.0,-26.0,-40.0,-10.0,72.0,-2.0,1
-257.0,-24.0,-44.0,-2.0,75.0,0.0,1
-256.0,-24.0,-46.0,7.0,76.0,4.0,1
-252.0,-25.0,-47.0,17.0,78.0,8.0,1
-255.0,-22.0,-44.0,28.0,80.0,8.0,1
-255.0,-23.0,-44.0,38.0,83.0,9.0,1
-256.0,-20.0,-44.0,44.0,81.0,8.0,1
-257.0,-18.0,-43.0,45.0,77.0,8.0,1
-255.0,-19.0,-41.0,41.0,71.0,5.0,1
-253.0,-18.0,-43.0,32.0,66.0,5.0,1
-256.0,-16.0,-43.0,20.0,61.0,4.0,1
-255.0,-19.0,-45.0,5.0,60.0,2.0,1
-254.0,-23.0,-42.0,-8.0,58.0,0.0,1
-257.0,-22.0,-42.0,-19.0,57.0,-2.0,1
-256.0,-22.0,-39.0,-24.0,57.0,-2.0,1
-256.0,-22.0,-40.0,-24.0,58.0,-2.0,1
-257.0,-23.0,-41.0,-21.0,59.0,-1.0,1
-255.0,-22.0,-42.0,-17.0,63.0,0.0,1
-257.0,-23.0,-42.0,-12.0,64.0,-1.0,1
-255.0,-23.0,-40.0,-7.0,66.0,-1.0,1
-256.0,-24.0,-42.0,-2.0,67.0,-1.0,1
-255.0,-22.0,-43.0,2.0,66.0,-1.0,1
-256.0,-22.0,-44.0,5.0,66.0,-1.0,1
-256.0,-24.0,-38.0,5.0,67.0,1.0,1
-258.0,-24.0,-40.0,5.0,68.0,2.0,1
-257.0,-23.0,-40.0,4.0,67.0,2.0,1
-255.0,-21.0,-42.0,3.0,69.0,3.0,1
-256.0,-23.0,-42.0,-1.0,71.0,-1.0,1
-257.0,-19.0,-40.0,-3.0,72.0,0.0,1
-256.0,-22.0,-39.0,-4.0,72.0,2.0,1
-258.0,-20.0,-42.0,-5.0,70.0,1.0,1
-255.0,-20.0,-41.0,-6.0,71.0,1.0,1
-258.0,-20.0,-43.0,-7.0,72.0,-1.0,1
-257.0,-23.0,-40.0,-7.0,72.0,-1.0,1
-256.0,-23.0,-39.0,-7.0,74.0,0.0,1
-256.0,-21.0,-41.0,-7.0,75.0,0.0,1
-256.0,-23.0,-41.0,-9.0,72.0,0.0,1
-254.0,-20.0,-44.0,-9.0,72.0,0.0,1
-256.0,-20.0,-39.0,-10.0,68.0,-1.0,1
-255.0,-20.0,-38.0,-12.0,68.0,-3.0,1
-257.0,-23.0,-42.0,-16.0,65.0,-4.0,1
-257.0,-24.0,-43.0,-19.0,62.0,-5.0,1
-256.0,-22.0,-43.0,-23.0,59.0,-7.0,1
-256.0,-19.0,-43.0,-28.0,57.0,-8.0,1
-256.0,-21.0,-36.0,-30.0,57.0,-10.0,1
-256.0,-21.0,-45.0,-31.0,58.0,-9.0,1
-255.0,-23.0,-40.0,-30.0,60.0,-7.0,1
-256.0,-23.0,-41.0,-27.0,63.0,-5.0,1
-255.0,-23.0,-46.0,-24.0,67.0,-6.0,1
-254.0,-23.0,-41.0,-20.0,68.0,-3.0,1
-252.0,-25.0,-45.0,-18.0,71.0,-2.0,1
-255.0,-24.0,-42.0,-17.0,72.0,-1.0,1
-255.0,-23.0,-41.0,-19.0,73.0,-2.0,1
-256.0,-22.0,-42.0,-23.0,72.0,-1.0,1
-255.0,-20.0,-41.0,-27.0,72.0,-1.0,1
-254.0,-23.0,-43.0,-31.0,68.0,-2.0,1
-261.0,-23.0,-39.0,-35.0,65.0,-3.0,1
-254.0,-20.0,-40.0,-39.0,63.0,-4.0,1
-255.0,-20.0,-38.0,-43.0,61.0,-3.0,1
-256.0,-21.0,-37.0,-46.0,60.0,-4.0,1
-256.0,-19.0,-40.0,-50.0,57.0,-7.0,1
-257.0,-16.0,-42.0,-55.0,55.0,-10.0,1
-254.0,-24.0,-35.0,-58.0,54.0,-11.0,1
-256.0,-21.0,-41.0,-61.0,52.0,-14.0,1
-256.0,-22.0,-39.0,-64.0,50.0,-16.0,1
-257.0,-21.0,-41.0,-66.0,48.0,-19.0,1
-256.0,-24.0,-43.0,-68.0,47.0,-17.0,1
-255.0,-24.0,-43.0,-68.0,45.0,-17.0,1
-257.0,-25.0,-40.0,-67.0,45.0,-14.0,1
-257.0,-25.0,-40.0,-66.0,47.0,-14.0,1
-255.0,-25.0,-45.0,-61.0,48.0,-13.0,1
-258.0,-22.0,-44.0,-57.0,53.0,-10.0,1
-257.0,-20.0,-43.0,-53.0,54.0,-7.0,1
-257.0,-20.0,-46.0,-49.0,58.0,-4.0,1
-258.0,-21.0,-46.0,-45.0,62.0,-1.0,1
-259.0,-20.0,-43.0,-42.0,66.0,2.0,1
-261.0,-20.0,-39.0,-38.0,67.0,7.0,1
-283.0,-11.0,-28.0,-23.0,62.0,17.0,1
-281.0,-27.0,-20.0,39.0,32.0,68.0,1
-252.0,-28.0,-29.0,115.0,-29.0,2.0,1
-198.0,-30.0,-52.0,117.0,-66.0,-56.0,1
-214.0,-26.0,-54.0,38.0,-29.0,-57.0,1
-240.0,-25.0,-48.0,-64.0,43.0,-14.0,1
-254.0,-22.0,-45.0,-127.0,92.0,20.0,1
-256.0,-24.0,-37.0,-140.0,99.0,33.0,1
-256.0,-24.0,-39.0,-121.0,93.0,35.0,1
-255.0,-23.0,-40.0,-90.0,91.0,29.0,1
-254.0,-21.0,-41.0,-64.0,98.0,20.0,1
-256.0,-20.0,-40.0,-54.0,103.0,14.0,1
-255.0,-18.0,-41.0,-60.0,104.0,12.0,1
-253.0,-24.0,-42.0,-75.0,102.0,13.0,1
-253.0,-22.0,-38.0,-91.0,97.0,17.0,1
-252.0,-22.0,-42.0,-102.0,95.0,20.0,1
-255.0,-22.0,-42.0,-109.0,95.0,22.0,1
-254.0,-23.0,-42.0,-110.0,94.0,24.0,1
-255.0,-23.0,-38.0,-110.0,92.0,24.0,1
-255.0,-19.0,-41.0,-110.0,91.0,22.0,1
-255.0,-23.0,-35.0,-109.0,92.0,19.0,1
-254.0,-21.0,-40.0,-106.0,95.0,18.0,1
-260.0,-15.0,-43.0,-107.0,100.0,18.0,1
-257.0,-19.0,-43.0,-108.0,103.0,22.0,1
-253.0,-23.0,-34.0,-109.0,105.0,23.0,1
-251.0,-19.0,-40.0,-110.0,104.0,22.0,1
-256.0,-19.0,-44.0,-108.0,109.0,22.0,1
-256.0,-19.0,-41.0,-109.0,113.0,21.0,1
-257.0,-19.0,-41.0,-109.0,115.0,20.0,1
-256.0,-18.0,-42.0,-110.0,115.0,17.0,1
-257.0,-20.0,-42.0,-110.0,113.0,15.0,1
-256.0,-19.0,-43.0,-110.0,110.0,16.0,1
-256.0,-19.0,-41.0,-109.0,109.0,16.0,1
-257.0,-20.0,-41.0,-103.0,109.0,16.0,1
-256.0,-24.0,-46.0,-93.0,111.0,17.0,1
-256.0,-23.0,-45.0,-80.0,112.0,19.0,1
-254.0,-24.0,-49.0,-66.0,112.0,21.0,1
-253.0,-22.0,-46.0,-51.0,116.0,23.0,1
-254.0,-21.0,-46.0,-39.0,120.0,23.0,1
-252.0,-18.0,-42.0,-32.0,119.0,24.0,1
-256.0,-17.0,-44.0,-29.0,116.0,22.0,1
-257.0,-15.0,-45.0,-30.0,109.0,19.0,1
-256.0,-12.0,-42.0,-34.0,101.0,18.0,1
-255.0,-9.0,-43.0,-44.0,96.0,14.0,1
-256.0,-15.0,-44.0,-56.0,90.0,12.0,1
-256.0,-15.0,-42.0,-73.0,85.0,6.0,1
-256.0,-19.0,-47.0,-91.0,83.0,3.0,1
-257.0,-17.0,-46.0,-102.0,78.0,1.0,1
-258.0,-16.0,-46.0,-110.0,75.0,1.0,1
-257.0,-18.0,-44.0,-112.0,74.0,1.0,1
-291.0,-13.0,-37.0,-111.0,69.0,4.0,1
-289.0,-13.0,-32.0,-75.0,53.0,32.0,1
-247.0,-25.0,-42.0,-3.0,7.0,16.0,1
-224.0,-23.0,-55.0,2.0,-18.0,-36.0,1
-235.0,-25.0,-55.0,-61.0,4.0,-35.0,1
-256.0,-22.0,-50.0,-125.0,36.0,-18.0,1
-256.0,-25.0,-45.0,-150.0,48.0,-11.0,1
-257.0,-24.0,-44.0,-138.0,38.0,-8.0,1
-257.0,-22.0,-43.0,-109.0,29.0,-3.0,1
-256.0,-19.0,-45.0,-74.0,31.0,-3.0,1
-256.0,-16.0,-50.0,-47.0,36.0,-9.0,1
-257.0,-17.0,-45.0,-35.0,39.0,-14.0,1
-254.0,-17.0,-47.0,-35.0,41.0,-17.0,1
-257.0,-17.0,-51.0,-41.0,39.0,-20.0,1
-256.0,-15.0,-48.0,-48.0,35.0,-18.0,1
-259.0,-11.0,-52.0,-54.0,31.0,-18.0,1
-257.0,-21.0,-51.0,-56.0,29.0,-17.0,1
-255.0,-17.0,-44.0,-56.0,28.0,-17.0,1
-256.0,-21.0,-46.0,-53.0,29.0,-16.0,1
-257.0,-16.0,-45.0,-48.0,28.0,-15.0,1
-254.0,-17.0,-44.0,-45.0,29.0,-14.0,1
-256.0,-21.0,-44.0,-42.0,29.0,-12.0,1
-255.0,-21.0,-39.0,-39.0,31.0,-10.0,1
-256.0,-23.0,-39.0,-34.0,33.0,-11.0,1
-256.0,-21.0,-39.0,-28.0,34.0,-13.0,1
-257.0,-23.0,-40.0,-26.0,35.0,-14.0,1
-256.0,-20.0,-38.0,-25.0,35.0,-13.0,1
-255.0,-23.0,-42.0,-23.0,36.0,-14.0,1
-255.0,-21.0,-41.0,-22.0,40.0,-13.0,1
-256.0,-23.0,-42.0,-20.0,44.0,-12.0,1
-254.0,-22.0,-40.0,-19.0,49.0,-10.0,1
-256.0,-19.0,-42.0,-15.0,53.0,-8.0,1
-255.0,-19.0,-41.0,-12.0,57.0,-7.0,1
-256.0,-21.0,-39.0,-9.0,62.0,-3.0,1
-256.0,-23.0,-40.0,-8.0,67.0,-2.0,1
-256.0,-22.0,-40.0,-8.0,71.0,1.0,1
-260.0,-27.0,-41.0,-9.0,75.0,2.0,1
-257.0,-22.0,-43.0,-12.0,77.0,3.0,1
-255.0,-18.0,-45.0,-17.0,77.0,4.0,1
-256.0,-15.0,-42.0,-24.0,80.0,4.0,1
-256.0,-18.0,-43.0,-26.0,81.0,4.0,1
-254.0,-18.0,-44.0,-29.0,80.0,4.0,1
-256.0,-18.0,-45.0,-29.0,82.0,4.0,1
-255.0,-17.0,-49.0,-28.0,85.0,4.0,1
-255.0,-20.0,-47.0,-28.0,89.0,4.0,1
-255.0,-21.0,-46.0,-27.0,90.0,2.0,1
-253.0,-23.0,-46.0,-24.0,89.0,1.0,1
-253.0,-21.0,-43.0,-18.0,88.0,2.0,1
-252.0,-20.0,-46.0,-13.0,85.0,-1.0,1
-255.0,-20.0,-46.0,-8.0,84.0,-1.0,1
-253.0,-21.0,-42.0,0.0,82.0,-1.0,1
-255.0,-22.0,-42.0,7.0,81.0,-2.0,1
-252.0,-22.0,-44.0,10.0,80.0,-3.0,1
-254.0,-19.0,-41.0,11.0,77.0,-3.0,1
-255.0,-17.0,-44.0,11.0,72.0,-3.0,1
-255.0,-20.0,-43.0,11.0,70.0,-4.0,1
-254.0,-19.0,-42.0,9.0,65.0,-4.0,1
-254.0,-19.0,-48.0,8.0,64.0,-6.0,1
-253.0,-17.0,-50.0,7.0,64.0,-6.0,1
-254.0,-21.0,-47.0,6.0,64.0,-7.0,1
-254.0,-21.0,-44.0,6.0,63.0,-5.0,1
-255.0,-17.0,-46.0,4.0,62.0,-4.0,1
-256.0,-20.0,-44.0,1.0,62.0,-4.0,1
-254.0,-22.0,-44.0,0.0,62.0,-2.0,1
-256.0,-18.0,-42.0,-4.0,64.0,0.0,1
-254.0,-23.0,-43.0,-6.0,67.0,1.0,1
-256.0,-16.0,-43.0,-9.0,68.0,3.0,1
-256.0,-20.0,-43.0,-12.0,68.0,5.0,1
-257.0,-19.0,-38.0,-15.0,67.0,7.0,1
-257.0,-17.0,-43.0,-16.0,67.0,6.0,1
-257.0,-19.0,-42.0,-18.0,67.0,8.0,1
-258.0,-18.0,-39.0,-19.0,65.0,5.0,1
-256.0,-17.0,-40.0,-20.0,65.0,4.0,1
-258.0,-22.0,-40.0,-22.0,65.0,4.0,1
-257.0,-20.0,-40.0,-24.0,66.0,3.0,1
-257.0,-17.0,-44.0,-24.0,67.0,4.0,1
-258.0,-21.0,-39.0,-26.0,68.0,5.0,1
-257.0,-20.0,-43.0,-26.0,71.0,4.0,1
-257.0,-21.0,-44.0,-22.0,74.0,7.0,1
-262.0,-23.0,-41.0,-16.0,76.0,7.0,1
-259.0,-16.0,-44.0,-10.0,81.0,6.0,1
-258.0,-20.0,-41.0,-4.0,86.0,7.0,1
-257.0,-18.0,-47.0,4.0,92.0,8.0,1
-256.0,-18.0,-45.0,12.0,98.0,6.0,1
-255.0,-18.0,-44.0,16.0,102.0,7.0,1
-256.0,-21.0,-39.0,16.0,105.0,6.0,1
-255.0,-16.0,-43.0,14.0,103.0,4.0,1
-253.0,-21.0,-46.0,9.0,102.0,2.0,1
-255.0,-23.0,-36.0,3.0,101.0,0.0,1
-255.0,-22.0,-40.0,-3.0,98.0,-2.0,1
-251.0,-22.0,-40.0,-7.0,96.0,-3.0,1
-255.0,-22.0,-42.0,-8.0,95.0,-1.0,1
-254.0,-19.0,-43.0,-5.0,94.0,-1.0,1
-253.0,-25.0,-44.0,0.0,93.0,1.0,1
-253.0,-22.0,-46.0,7.0,94.0,2.0,1
-252.0,-25.0,-44.0,13.0,96.0,5.0,1
-255.0,-22.0,-41.0,18.0,96.0,5.0,1
-254.0,-20.0,-39.0,19.0,93.0,3.0,1
-254.0,-16.0,-41.0,17.0,91.0,3.0,1
-255.0,-15.0,-44.0,9.0,87.0,4.0,1
-255.0,-17.0,-43.0,-3.0,84.0,2.0,1
-254.0,-25.0,-42.0,-14.0,79.0,0.0,1
-258.0,-14.0,-48.0,-26.0,75.0,-2.0,1
-253.0,-20.0,-47.0,-34.0,73.0,-4.0,1
-256.0,-19.0,-43.0,-42.0,72.0,-4.0,1
-256.0,-23.0,-43.0,-44.0,70.0,-6.0,1
-257.0,-16.0,-48.0,-42.0,68.0,-7.0,1
-256.0,-22.0,-47.0,-38.0,67.0,-5.0,1
-257.0,-19.0,-42.0,-31.0,65.0,-6.0,1
-258.0,-19.0,-40.0,-27.0,65.0,-5.0,1
-256.0,-25.0,-47.0,-22.0,67.0,0.0,1
-256.0,-23.0,-45.0,-19.0,69.0,2.0,1
-257.0,-19.0,-44.0,-18.0,72.0,0.0,1
-257.0,-20.0,-43.0,-14.0,73.0,0.0,1
-255.0,-22.0,-44.0,-8.0,74.0,-1.0,1
-255.0,-19.0,-46.0,-7.0,74.0,1.0,1
-256.0,-19.0,-44.0,-6.0,75.0,2.0,1
-254.0,-20.0,-42.0,-5.0,74.0,1.0,1
-256.0,-18.0,-50.0,-4.0,72.0,2.0,1
-256.0,-20.0,-43.0,-2.0,70.0,3.0,1
-256.0,-19.0,-43.0,-1.0,68.0,2.0,1
-256.0,-19.0,-42.0,-1.0,67.0,2.0,1
-253.0,-13.0,-52.0,-5.0,65.0,2.0,1
-255.0,-17.0,-43.0,-7.0,64.0,1.0,1
-255.0,-20.0,-44.0,-10.0,64.0,-1.0,1
-256.0,-21.0,-41.0,-11.0,66.0,-1.0,1
-255.0,-20.0,-43.0,-11.0,67.0,-3.0,1
-256.0,-22.0,-42.0,-7.0,71.0,-2.0,1
-256.0,-22.0,-39.0,0.0,78.0,0.0,1
-253.0,-20.0,-44.0,9.0,84.0,0.0,1
-255.0,-21.0,-43.0,15.0,88.0,0.0,1
-256.0,-19.0,-43.0,17.0,93.0,0.0,1
-253.0,-18.0,-40.0,13.0,92.0,0.0,1
-254.0,-19.0,-42.0,4.0,90.0,1.0,1
-252.0,-18.0,-37.0,-9.0,89.0,0.0,1
-256.0,-17.0,-37.0,-22.0,85.0,0.0,1
-257.0,-16.0,-41.0,-35.0,83.0,-2.0,1
-255.0,-18.0,-37.0,-43.0,84.0,-4.0,1
-254.0,-21.0,-39.0,-47.0,86.0,-4.0,1
-253.0,-20.0,-44.0,-47.0,88.0,-4.0,1
-252.0,-20.0,-44.0,-46.0,92.0,-4.0,1
-255.0,-21.0,-47.0,-45.0,95.0,-4.0,1
-252.0,-22.0,-45.0,-40.0,95.0,-2.0,1
-256.0,-18.0,-45.0,-31.0,93.0,-4.0,1
-255.0,-26.0,-35.0,-22.0,90.0,-3.0,1
-256.0,-21.0,-48.0,-13.0,87.0,-4.0,1
-256.0,-19.0,-45.0,-5.0,82.0,-3.0,1
-256.0,-18.0,-46.0,-1.0,78.0,-4.0,1
-255.0,-21.0,-46.0,1.0,75.0,-5.0,1
-256.0,-17.0,-48.0,4.0,74.0,-5.0,1
-257.0,-19.0,-49.0,10.0,73.0,-5.0,1
-257.0,-18.0,-45.0,13.0,72.0,-5.0,1
-257.0,-18.0,-46.0,16.0,72.0,-6.0,1
-249.0,-22.0,-49.0,18.0,71.0,-8.0,1
-258.0,-18.0,-46.0,13.0,72.0,-8.0,1
-256.0,-21.0,-47.0,16.0,70.0,-5.0,1
-253.0,-20.0,-47.0,17.0,68.0,-10.0,1
-256.0,-19.0,-43.0,13.0,68.0,-10.0,1
-256.0,-17.0,-45.0,12.0,67.0,-10.0,1
-256.0,-18.0,-46.0,11.0,65.0,-10.0,1
-257.0,-18.0,-44.0,11.0,64.0,-10.0,1
-257.0,-18.0,-44.0,13.0,62.0,-10.0,1
-259.0,-17.0,-44.0,17.0,60.0,-15.0,1
-255.0,-21.0,-42.0,22.0,56.0,-17.0,1
-255.0,-15.0,-41.0,27.0,59.0,-15.0,1
-256.0,-29.0,-49.0,29.0,61.0,-12.0,1
-255.0,-20.0,-44.0,33.0,61.0,-11.0,1
-256.0,-23.0,-43.0,35.0,60.0,-11.0,1
-253.0,-21.0,-45.0,39.0,60.0,-10.0,1
-256.0,-18.0,-43.0,42.0,61.0,-8.0,1
-254.0,-21.0,-44.0,44.0,64.0,-7.0,1
-256.0,-20.0,-46.0,47.0,64.0,-6.0,1
-254.0,-18.0,-44.0,47.0,66.0,-5.0,1
-253.0,-17.0,-44.0,48.0,66.0,-4.0,1
-253.0,-18.0,-42.0,46.0,67.0,-3.0,1
-253.0,-21.0,-43.0,43.0,69.0,-3.0,1
-255.0,-21.0,-44.0,40.0,68.0,-3.0,1
-253.0,-20.0,-44.0,38.0,72.0,-2.0,1
-254.0,-20.0,-40.0,36.0,73.0,-2.0,1
-255.0,-19.0,-41.0,35.0,74.0,-1.0,1
-255.0,-20.0,-45.0,36.0,76.0,0.0,1
-254.0,-22.0,-42.0,37.0,76.0,0.0,1
-255.0,-20.0,-40.0,40.0,75.0,1.0,1
-254.0,-18.0,-39.0,42.0,75.0,1.0,1
-253.0,-21.0,-45.0,44.0,77.0,1.0,1
-256.0,-18.0,-44.0,46.0,79.0,-1.0,1
-253.0,-18.0,-43.0,42.0,83.0,-1.0,1
-251.0,-16.0,-40.0,37.0,84.0,0.0,1
-254.0,-20.0,-44.0,30.0,88.0,2.0,1
-253.0,-19.0,-41.0,23.0,89.0,3.0,1
-255.0,-21.0,-42.0,15.0,88.0,5.0,1
-254.0,-24.0,-40.0,9.0,87.0,5.0,1
-254.0,-20.0,-40.0,6.0,85.0,3.0,1
-256.0,-19.0,-43.0,4.0,87.0,3.0,1
-259.0,-19.0,-43.0,2.0,86.0,2.0,1
-256.0,-22.0,-42.0,-1.0,84.0,2.0,1
-256.0,-22.0,-47.0,-3.0,83.0,-1.0,1
-254.0,-24.0,-48.0,-5.0,82.0,-1.0,1
-256.0,-19.0,-41.0,-5.0,82.0,-3.0,1
-257.0,-21.0,-46.0,-8.0,83.0,-4.0,1
-256.0,-19.0,-46.0,-10.0,87.0,-4.0,1
-256.0,-21.0,-43.0,-17.0,87.0,-4.0,1
-255.0,-24.0,-44.0,-19.0,91.0,-5.0,1
-252.0,-24.0,-47.0,-20.0,92.0,-2.0,1
-254.0,-23.0,-46.0,-18.0,96.0,1.0,1
-253.0,-28.0,-47.0,-12.0,99.0,3.0,1
-254.0,-23.0,-46.0,0.0,100.0,6.0,1
-255.0,-21.0,-47.0,14.0,99.0,9.0,1
-254.0,-22.0,-51.0,28.0,98.0,10.0,1
-260.0,-11.0,-59.0,37.0,95.0,10.0,1
-255.0,-19.0,-49.0,43.0,88.0,9.0,1
-253.0,-15.0,-47.0,44.0,80.0,7.0,1
-254.0,-17.0,-52.0,36.0,71.0,1.0,1
-256.0,-18.0,-49.0,23.0,61.0,0.0,1
-255.0,-16.0,-47.0,8.0,52.0,0.0,1
-256.0,-14.0,-43.0,-5.0,42.0,-5.0,1
-256.0,-20.0,-46.0,-13.0,39.0,-7.0,1
-251.0,-23.0,-46.0,-12.0,34.0,-10.0,1
-254.0,-23.0,-46.0,-12.0,31.0,-19.0,1
-254.0,-21.0,-47.0,-13.0,34.0,-20.0,1
-253.0,-26.0,-41.0,-8.0,40.0,-17.0,1
-253.0,-24.0,-46.0,0.0,41.0,-15.0,1
-256.0,-21.0,-43.0,11.0,38.0,-13.0,1
-256.0,-25.0,-43.0,23.0,35.0,-13.0,1
-257.0,-20.0,-43.0,35.0,32.0,-13.0,1
-258.0,-23.0,-45.0,45.0,31.0,-14.0,1
-257.0,-20.0,-48.0,50.0,34.0,-14.0,1
-255.0,-18.0,-44.0,53.0,35.0,-11.0,1
-257.0,-20.0,-47.0,53.0,35.0,-11.0,1
-255.0,-21.0,-46.0,50.0,35.0,-8.0,1
-257.0,-24.0,-38.0,48.0,38.0,-7.0,1
-257.0,-16.0,-46.0,47.0,41.0,-6.0,1
-256.0,-18.0,-41.0,51.0,42.0,-6.0,1
-257.0,-19.0,-48.0,52.0,44.0,-5.0,1
-255.0,-18.0,-43.0,54.0,44.0,-7.0,1
-254.0,-22.0,-42.0,56.0,46.0,-7.0,1
-256.0,-18.0,-44.0,58.0,47.0,-7.0,1
-255.0,-22.0,-41.0,61.0,50.0,-7.0,1
-255.0,-19.0,-44.0,62.0,54.0,-7.0,1
-255.0,-20.0,-44.0,64.0,56.0,-5.0,1
-252.0,-19.0,-38.0,66.0,59.0,-3.0,1
-256.0,-18.0,-40.0,65.0,60.0,-1.0,1
-256.0,-18.0,-43.0,66.0,62.0,-1.0,1
-255.0,-17.0,-39.0,65.0,62.0,-1.0,1
-255.0,-18.0,-40.0,60.0,63.0,0.0,1
-256.0,-17.0,-41.0,54.0,63.0,-3.0,1
-251.0,-20.0,-39.0,47.0,64.0,-4.0,1
-253.0,-19.0,-39.0,38.0,65.0,-4.0,1
-255.0,-19.0,-40.0,29.0,63.0,-4.0,1
-255.0,-21.0,-41.0,17.0,63.0,-4.0,1
-255.0,-19.0,-40.0,8.0,64.0,-6.0,1
-256.0,-21.0,-39.0,0.0,66.0,-7.0,1
-259.0,-23.0,-45.0,-3.0,69.0,-10.0,1
-255.0,-25.0,-41.0,-1.0,72.0,-9.0,1
-256.0,-22.0,-42.0,5.0,76.0,-8.0,1
-256.0,-23.0,-40.0,12.0,78.0,-8.0,1
-256.0,-24.0,-42.0,16.0,81.0,-7.0,1
-255.0,-22.0,-46.0,22.0,83.0,-7.0,1
-255.0,-20.0,-45.0,25.0,84.0,-8.0,1
-256.0,-20.0,-48.0,25.0,85.0,-9.0,1
-255.0,-21.0,-46.0,22.0,81.0,-8.0,1
-255.0,-18.0,-42.0,18.0,80.0,-9.0,1
-254.0,-19.0,-45.0,14.0,75.0,-10.0,1
-256.0,-20.0,-45.0,10.0,72.0,-9.0,1
-253.0,-20.0,-48.0,9.0,70.0,-11.0,1
-255.0,-19.0,-47.0,9.0,67.0,-12.0,1
-256.0,-21.0,-47.0,11.0,64.0,-13.0,1
-255.0,-20.0,-46.0,15.0,63.0,-15.0,1
-255.0,-22.0,-43.0,20.0,62.0,-16.0,1
-254.0,-22.0,-46.0,25.0,61.0,-16.0,1
-255.0,-23.0,-41.0,31.0,60.0,-17.0,1
-255.0,-21.0,-47.0,37.0,58.0,-16.0,1
-256.0,-22.0,-44.0,43.0,57.0,-16.0,1
-258.0,-25.0,-54.0,47.0,54.0,-16.0,1
-256.0,-21.0,-46.0,50.0,53.0,-17.0,1
-257.0,-23.0,-45.0,50.0,52.0,-14.0,1
-255.0,-21.0,-42.0,49.0,52.0,-14.0,1
-255.0,-21.0,-40.0,48.0,53.0,-12.0,1
-255.0,-24.0,-42.0,45.0,54.0,-10.0,1
-254.0,-21.0,-40.0,43.0,54.0,-9.0,1
-255.0,-25.0,-41.0,43.0,55.0,-8.0,1
-255.0,-24.0,-41.0,42.0,55.0,-7.0,1
-256.0,-23.0,-39.0,39.0,57.0,-4.0,1
-254.0,-24.0,-42.0,39.0,59.0,-5.0,1
-253.0,-22.0,-42.0,38.0,60.0,-5.0,1
-255.0,-18.0,-42.0,35.0,61.0,-4.0,1
-256.0,-20.0,-42.0,34.0,61.0,-4.0,1
-254.0,-22.0,-43.0,34.0,59.0,-4.0,1
-255.0,-21.0,-42.0,34.0,62.0,-3.0,1
-256.0,-22.0,-42.0,32.0,62.0,-6.0,1
-255.0,-20.0,-44.0,33.0,62.0,-5.0,1
-255.0,-19.0,-44.0,32.0,63.0,-4.0,1
-252.0,-19.0,-39.0,31.0,65.0,-4.0,1
-256.0,-21.0,-45.0,33.0,66.0,-4.0,1
-254.0,-24.0,-43.0,35.0,67.0,-4.0,1
-254.0,-22.0,-40.0,38.0,70.0,-2.0,1
-256.0,-21.0,-40.0,42.0,70.0,0.0,1
-256.0,-21.0,-40.0,48.0,69.0,1.0,1
-256.0,-20.0,-41.0,53.0,72.0,2.0,1
-255.0,-21.0,-40.0,58.0,73.0,1.0,1
-255.0,-23.0,-40.0,63.0,75.0,1.0,1
-251.0,-22.0,-38.0,67.0,74.0,0.0,1
-256.0,-21.0,-42.0,75.0,65.0,-1.0,1
-255.0,-24.0,-44.0,73.0,65.0,0.0,1
-257.0,-18.0,-39.0,69.0,65.0,-1.0,1
-254.0,-21.0,-41.0,66.0,65.0,-2.0,1
-254.0,-22.0,-41.0,66.0,67.0,-5.0,1
-254.0,-25.0,-41.0,65.0,69.0,-5.0,1
-256.0,-22.0,-45.0,66.0,70.0,-4.0,1
-256.0,-24.0,-41.0,66.0,72.0,-5.0,1
-255.0,-22.0,-43.0,68.0,73.0,-5.0,1
-256.0,-23.0,-44.0,67.0,74.0,-5.0,1
-258.0,-19.0,-42.0,64.0,76.0,-6.0,1
-256.0,-23.0,-45.0,62.0,76.0,-5.0,1
-255.0,-22.0,-45.0,58.0,75.0,-5.0,1
-257.0,-23.0,-45.0,57.0,74.0,-5.0,1
-254.0,-19.0,-43.0,56.0,74.0,-5.0,1
-255.0,-18.0,-45.0,55.0,75.0,-5.0,1
-255.0,-21.0,-44.0,57.0,74.0,-1.0,1
-258.0,-19.0,-47.0,60.0,75.0,0.0,1
-257.0,-21.0,-43.0,60.0,75.0,-2.0,1
-256.0,-21.0,-40.0,61.0,76.0,-5.0,1
-257.0,-21.0,-42.0,62.0,73.0,-4.0,1
-252.0,-19.0,-43.0,63.0,70.0,-7.0,1
-257.0,-22.0,-46.0,63.0,70.0,-9.0,1
-255.0,-21.0,-43.0,61.0,70.0,-8.0,1
-255.0,-23.0,-46.0,58.0,67.0,-9.0,1
-257.0,-23.0,-42.0,55.0,62.0,-9.0,1
-256.0,-19.0,-42.0,51.0,59.0,-9.0,1
-256.0,-22.0,-43.0,47.0,55.0,-9.0,1
-255.0,-23.0,-43.0,44.0,52.0,-8.0,1
-257.0,-21.0,-44.0,40.0,51.0,-8.0,1
-254.0,-21.0,-44.0,37.0,52.0,-7.0,1
-254.0,-23.0,-43.0,31.0,52.0,-9.0,1
-256.0,-22.0,-44.0,24.0,52.0,-8.0,1
-255.0,-22.0,-44.0,21.0,53.0,-8.0,1
-254.0,-21.0,-45.0,18.0,51.0,-9.0,1
-256.0,-22.0,-44.0,18.0,53.0,-10.0,1
-257.0,-25.0,-46.0,21.0,52.0,-10.0,1
-256.0,-23.0,-42.0,27.0,51.0,-12.0,1
-255.0,-26.0,-42.0,31.0,51.0,-14.0,1
-255.0,-24.0,-40.0,35.0,50.0,-14.0,1
-259.0,-23.0,-45.0,38.0,46.0,-17.0,1
-255.0,-24.0,-43.0,38.0,43.0,-17.0,1
-258.0,-24.0,-46.0,39.0,41.0,-15.0,1
-253.0,-20.0,-42.0,38.0,37.0,-13.0,1
-253.0,-24.0,-43.0,39.0,37.0,-14.0,1
-254.0,-21.0,-43.0,38.0,39.0,-17.0,1
-255.0,-18.0,-40.0,38.0,40.0,-19.0,1
-253.0,-21.0,-43.0,37.0,43.0,-19.0,1
-256.0,-23.0,-42.0,37.0,46.0,-17.0,1
-254.0,-21.0,-41.0,35.0,50.0,-17.0,1
-256.0,-19.0,-40.0,31.0,53.0,-18.0,1
-255.0,-22.0,-45.0,27.0,57.0,-17.0,1
-255.0,-19.0,-39.0,25.0,59.0,-17.0,1
-255.0,-23.0,-39.0,20.0,58.0,-17.0,1
-252.0,-24.0,-39.0,14.0,58.0,-16.0,1
-254.0,-21.0,-40.0,9.0,57.0,-13.0,1
-256.0,-21.0,-42.0,6.0,58.0,-11.0,1
-257.0,-26.0,-46.0,3.0,55.0,-11.0,1
-257.0,-23.0,-41.0,3.0,56.0,-10.0,1
-256.0,-22.0,-36.0,3.0,55.0,-8.0,1
-256.0,-23.0,-36.0,1.0,56.0,-10.0,1
-256.0,-21.0,-38.0,-3.0,59.0,-10.0,1
-257.0,-23.0,-45.0,-8.0,58.0,-10.0,1
-256.0,-23.0,-38.0,-13.0,60.0,-10.0,1
-257.0,-19.0,-41.0,-19.0,60.0,-9.0,1
-254.0,-24.0,-39.0,-24.0,59.0,-8.0,1
-256.0,-24.0,-40.0,-28.0,57.0,-8.0,1
-257.0,-23.0,-41.0,-33.0,57.0,-9.0,1
-257.0,-23.0,-41.0,-38.0,56.0,-10.0,1
-259.0,-21.0,-41.0,-44.0,55.0,-8.0,1
-256.0,-21.0,-39.0,-49.0,55.0,-6.0,1
-254.0,-22.0,-43.0,-50.0,53.0,-7.0,1
-256.0,-19.0,-41.0,-50.0,52.0,-7.0,1
-256.0,-28.0,-38.0,-50.0,54.0,-7.0,1
-254.0,-22.0,-38.0,-55.0,54.0,-8.0,1
-256.0,-22.0,-42.0,-62.0,56.0,-8.0,1
-254.0,-21.0,-39.0,-69.0,57.0,-8.0,1
-256.0,-24.0,-39.0,-78.0,56.0,-8.0,1
-254.0,-24.0,-38.0,-86.0,56.0,-7.0,1
-255.0,-31.0,-35.0,-93.0,57.0,-5.0,1
-254.0,-23.0,-39.0,-100.0,61.0,-3.0,1
-253.0,-25.0,-39.0,-110.0,65.0,0.0,1
-255.0,-26.0,-35.0,-120.0,70.0,3.0,1
-254.0,-24.0,-33.0,-129.0,75.0,7.0,1
-256.0,-27.0,-37.0,-136.0,80.0,11.0,1
-254.0,-30.0,-39.0,-138.0,83.0,14.0,1
-256.0,-27.0,-40.0,-131.0,83.0,18.0,1
-254.0,-26.0,-42.0,-124.0,83.0,20.0,1
-256.0,-25.0,-45.0,-112.0,85.0,25.0,1
-256.0,-23.0,-44.0,-97.0,90.0,27.0,1
-256.0,-20.0,-40.0,-82.0,90.0,24.0,1
-255.0,-20.0,-43.0,-69.0,90.0,23.0,1
-254.0,-19.0,-40.0,-63.0,86.0,20.0,1
-250.0,-22.0,-42.0,-64.0,82.0,16.0,1
-256.0,-18.0,-42.0,-70.0,78.0,13.0,1
-255.0,-19.0,-41.0,-82.0,76.0,10.0,1
-256.0,-20.0,-40.0,-96.0,72.0,9.0,1
-256.0,-19.0,-45.0,-107.0,66.0,6.0,1
-255.0,-22.0,-42.0,-113.0,62.0,4.0,1
-256.0,-21.0,-39.0,-116.0,62.0,2.0,1
-258.0,-19.0,-39.0,-117.0,63.0,1.0,1
-257.0,-22.0,-40.0,-116.0,67.0,0.0,1
-260.0,-18.0,-39.0,-119.0,73.0,2.0,1
-259.0,-17.0,-40.0,-126.0,76.0,2.0,1
-258.0,-22.0,-41.0,-132.0,80.0,4.0,1
-257.0,-20.0,-40.0,-139.0,84.0,6.0,1
-258.0,-20.0,-42.0,-145.0,89.0,7.0,1
-257.0,-21.0,-43.0,-150.0,90.0,7.0,1
-255.0,-22.0,-43.0,-152.0,92.0,8.0,1
-256.0,-21.0,-44.0,-152.0,93.0,9.0,1
-258.0,-23.0,-44.0,-149.0,95.0,10.0,1
-254.0,-24.0,-39.0,-143.0,93.0,12.0,1
-256.0,-24.0,-46.0,-134.0,93.0,12.0,1
-255.0,-25.0,-46.0,-121.0,92.0,11.0,1
-253.0,-27.0,-44.0,-107.0,90.0,11.0,1
-255.0,-27.0,-44.0,-93.0,92.0,10.0,1
-254.0,-23.0,-43.0,-82.0,92.0,11.0,1
-252.0,-25.0,-44.0,-71.0,94.0,11.0,1
-251.0,-24.0,-40.0,-63.0,96.0,13.0,1
-255.0,-22.0,-39.0,-58.0,99.0,15.0,1
-256.0,-20.0,-38.0,-53.0,102.0,16.0,1
-256.0,-21.0,-43.0,-53.0,102.0,16.0,1
-256.0,-22.0,-44.0,-56.0,102.0,15.0,1
-255.0,-18.0,-47.0,-60.0,101.0,13.0,1
-256.0,-21.0,-43.0,-65.0,97.0,13.0,1
-255.0,-19.0,-45.0,-72.0,94.0,11.0,1
-255.0,-19.0,-41.0,-81.0,89.0,8.0,1
-254.0,-20.0,-47.0,-89.0,86.0,6.0,1
-255.0,-18.0,-42.0,-97.0,82.0,5.0,1
-253.0,-19.0,-42.0,-105.0,80.0,4.0,1
-255.0,-19.0,-45.0,-112.0,77.0,3.0,1
-254.0,-21.0,-43.0,-114.0,77.0,3.0,1
-256.0,-23.0,-41.0,-112.0,77.0,5.0,1
-255.0,-21.0,-41.0,-108.0,80.0,7.0,1
-256.0,-23.0,-39.0,-101.0,80.0,7.0,1
-256.0,-21.0,-43.0,-93.0,83.0,6.0,1
-255.0,-22.0,-42.0,-87.0,84.0,9.0,1
-254.0,-20.0,-44.0,-80.0,86.0,11.0,1
-256.0,-21.0,-42.0,-75.0,86.0,11.0,1
-256.0,-19.0,-45.0,-72.0,85.0,11.0,1
-255.0,-18.0,-44.0,-70.0,85.0,11.0,1
-257.0,-17.0,-43.0,-68.0,82.0,11.0,1
-255.0,-21.0,-44.0,-68.0,81.0,9.0,1
-257.0,-20.0,-43.0,-67.0,79.0,9.0,1
-259.0,-28.0,-38.0,-67.0,79.0,10.0,1
-257.0,-18.0,-43.0,-70.0,77.0,11.0,1
-256.0,-22.0,-38.0,-72.0,78.0,9.0,1
-255.0,-17.0,-42.0,-75.0,81.0,10.0,1
-253.0,-19.0,-45.0,-78.0,84.0,9.0,1
-256.0,-19.0,-43.0,-83.0,85.0,9.0,1
-257.0,-17.0,-42.0,-88.0,88.0,9.0,1
-255.0,-18.0,-41.0,-91.0,92.0,10.0,1
-253.0,-19.0,-40.0,-92.0,98.0,12.0,1
-253.0,-20.0,-44.0,-90.0,102.0,15.0,1
-254.0,-19.0,-37.0,-86.0,108.0,16.0,1
-254.0,-18.0,-40.0,-80.0,109.0,17.0,1
-256.0,-17.0,-41.0,-71.0,111.0,19.0,1
-256.0,-19.0,-40.0,-62.0,114.0,18.0,1
-255.0,-21.0,-43.0,-58.0,116.0,16.0,1
-253.0,-22.0,-41.0,-60.0,118.0,15.0,1
-255.0,-22.0,-44.0,-66.0,120.0,14.0,1
-254.0,-20.0,-40.0,-71.0,121.0,14.0,1
-256.0,-21.0,-43.0,-77.0,122.0,13.0,1
-256.0,-22.0,-47.0,-80.0,123.0,14.0,1
-254.0,-21.0,-41.0,-82.0,123.0,17.0,1
-248.0,-17.0,-38.0,-79.0,124.0,17.0,1
-256.0,-22.0,-50.0,-76.0,124.0,19.0,1
-257.0,-20.0,-44.0,-73.0,126.0,18.0,1
-257.0,-20.0,-45.0,-69.0,130.0,19.0,1
-256.0,-21.0,-45.0,-67.0,129.0,19.0,1
-256.0,-16.0,-46.0,-66.0,130.0,22.0,1
-254.0,-17.0,-47.0,-67.0,129.0,20.0,1
-255.0,-19.0,-46.0,-70.0,126.0,20.0,1
-254.0,-19.0,-42.0,-75.0,123.0,19.0,1
-252.0,-19.0,-46.0,-80.0,120.0,18.0,1
-255.0,-21.0,-51.0,-84.0,117.0,17.0,1
-256.0,-19.0,-50.0,-87.0,114.0,19.0,1
-255.0,-20.0,-50.0,-86.0,111.0,19.0,1
-253.0,-18.0,-47.0,-85.0,109.0,17.0,1
-254.0,-19.0,-48.0,-85.0,108.0,17.0,1
-255.0,-19.0,-49.0,-85.0,107.0,16.0,1
-255.0,-20.0,-49.0,-86.0,106.0,18.0,1
-255.0,-18.0,-48.0,-86.0,104.0,16.0,1
-256.0,-19.0,-50.0,-86.0,103.0,15.0,1
-255.0,-19.0,-49.0,-88.0,102.0,14.0,1
-253.0,-21.0,-50.0,-91.0,101.0,13.0,1
-253.0,-20.0,-47.0,-95.0,99.0,11.0,1
-251.0,-25.0,-45.0,-98.0,96.0,11.0,1
-256.0,-17.0,-50.0,-99.0,91.0,11.0,1
-256.0,-15.0,-48.0,-102.0,90.0,8.0,1
-255.0,-16.0,-48.0,-101.0,90.0,9.0,1
-254.0,-18.0,-48.0,-100.0,89.0,7.0,1
-257.0,-18.0,-49.0,-97.0,89.0,9.0,1
-256.0,-17.0,-48.0,-97.0,86.0,11.0,1
-255.0,-15.0,-49.0,-97.0,84.0,10.0,1
-257.0,-13.0,-49.0,-95.0,84.0,9.0,1
-256.0,-15.0,-51.0,-94.0,85.0,9.0,1
-257.0,-16.0,-46.0,-93.0,81.0,10.0,1
-255.0,-15.0,-46.0,-91.0,80.0,9.0,1
-257.0,-17.0,-47.0,-89.0,78.0,8.0,1
-255.0,-16.0,-47.0,-87.0,79.0,9.0,1
-257.0,-14.0,-50.0,-86.0,79.0,10.0,1
-254.0,-15.0,-46.0,-83.0,80.0,10.0,1
-255.0,-16.0,-46.0,-81.0,82.0,9.0,1
-256.0,-13.0,-50.0,-79.0,80.0,7.0,1
-258.0,-15.0,-44.0,-79.0,76.0,5.0,1
-255.0,-16.0,-47.0,-78.0,72.0,4.0,1
-255.0,-13.0,-45.0,-75.0,68.0,3.0,1
-254.0,-16.0,-44.0,-72.0,67.0,3.0,1
-251.0,-20.0,-36.0,-68.0,68.0,3.0,1
-252.0,-15.0,-46.0,-66.0,70.0,3.0,1
-254.0,-18.0,-44.0,-65.0,71.0,2.0,1
-253.0,-18.0,-47.0,-64.0,70.0,2.0,1
-255.0,-22.0,-48.0,-68.0,72.0,0.0,1
-256.0,-21.0,-45.0,-69.0,70.0,1.0,1
-256.0,-22.0,-47.0,-68.0,67.0,2.0,1
-257.0,-19.0,-48.0,-62.0,66.0,2.0,1
-255.0,-20.0,-49.0,-57.0,65.0,2.0,1
-256.0,-19.0,-49.0,-49.0,66.0,3.0,1
-258.0,-17.0,-49.0,-35.0,68.0,6.0,1
-256.0,-18.0,-53.0,-24.0,69.0,4.0,1
-256.0,-15.0,-51.0,-18.0,70.0,4.0,1
-256.0,-17.0,-49.0,-21.0,73.0,4.0,1
-256.0,-19.0,-51.0,-27.0,76.0,3.0,1
-255.0,-17.0,-51.0,-33.0,80.0,2.0,1
-257.0,-13.0,-51.0,-39.0,81.0,0.0,1
-256.0,-13.0,-48.0,-43.0,80.0,1.0,1
-256.0,-16.0,-51.0,-46.0,78.0,-1.0,1
-256.0,-15.0,-47.0,-50.0,76.0,-5.0,1
-256.0,-15.0,-49.0,-54.0,73.0,-6.0,1
-255.0,-19.0,-53.0,-58.0,69.0,-7.0,1
-254.0,-17.0,-49.0,-61.0,65.0,-10.0,1
-254.0,-18.0,-47.0,-65.0,62.0,-9.0,1
-256.0,-21.0,-49.0,-67.0,60.0,-9.0,1
-253.0,-17.0,-47.0,-66.0,55.0,-8.0,1
-255.0,-17.0,-49.0,-60.0,55.0,-9.0,1
-253.0,-17.0,-49.0,-53.0,52.0,-9.0,1
-254.0,-18.0,-48.0,-50.0,55.0,-8.0,1
-257.0,-16.0,-48.0,-48.0,57.0,-10.0,1
-255.0,-16.0,-46.0,-47.0,60.0,-11.0,1
-255.0,-18.0,-47.0,-49.0,62.0,-11.0,1
-254.0,-21.0,-44.0,-52.0,65.0,-9.0,1
-253.0,-21.0,-45.0,-58.0,69.0,-7.0,1
-253.0,-20.0,-42.0,-62.0,72.0,-4.0,1
-253.0,-22.0,-42.0,-64.0,76.0,-1.0,1
-252.0,-21.0,-43.0,-63.0,79.0,3.0,1
-251.0,-23.0,-46.0,-61.0,80.0,6.0,1
-251.0,-24.0,-50.0,-58.0,80.0,9.0,1
-253.0,-20.0,-53.0,-55.0,82.0,11.0,1
-254.0,-16.0,-47.0,-50.0,85.0,14.0,1
-249.0,-17.0,-49.0,-45.0,92.0,15.0,1
-255.0,-15.0,-46.0,-46.0,94.0,15.0,1
-254.0,-13.0,-40.0,-50.0,93.0,14.0,1
-254.0,-16.0,-45.0,-54.0,89.0,13.0,1
-256.0,-11.0,-46.0,-61.0,84.0,11.0,1
-256.0,-12.0,-48.0,-70.0,81.0,8.0,1
-258.0,-14.0,-51.0,-81.0,77.0,5.0,1
-256.0,-13.0,-50.0,-93.0,75.0,5.0,1
-258.0,-11.0,-50.0,-101.0,75.0,4.0,1
-256.0,-15.0,-50.0,-103.0,75.0,3.0,1
-256.0,-14.0,-48.0,-99.0,74.0,0.0,1
-257.0,-14.0,-50.0,-93.0,73.0,0.0,1
-258.0,-14.0,-49.0,-87.0,72.0,1.0,1
-256.0,-17.0,-49.0,-80.0,76.0,0.0,1
-256.0,-15.0,-52.0,-73.0,77.0,1.0,1
-255.0,-15.0,-49.0,-66.0,79.0,2.0,1
-254.0,-15.0,-53.0,-62.0,79.0,2.0,1
-256.0,-16.0,-52.0,-51.0,80.0,3.0,1
-252.0,-16.0,-47.0,-41.0,81.0,3.0,1
-255.0,-18.0,-50.0,-31.0,82.0,3.0,1
-256.0,-18.0,-47.0,-24.0,82.0,2.0,1
-255.0,-17.0,-46.0,-17.0,85.0,3.0,1
-255.0,-15.0,-48.0,-10.0,85.0,2.0,1
-255.0,-12.0,-43.0,-4.0,87.0,2.0,1
-255.0,-13.0,-49.0,0.0,89.0,4.0,1
-254.0,-11.0,-46.0,1.0,90.0,7.0,1
-256.0,-16.0,-48.0,2.0,89.0,4.0,1
-253.0,-16.0,-49.0,-6.0,89.0,1.0,1
-254.0,-19.0,-48.0,-20.0,93.0,2.0,1
-253.0,-20.0,-49.0,-29.0,95.0,3.0,1
-254.0,-17.0,-50.0,-35.0,94.0,2.0,1
-255.0,-18.0,-50.0,-37.0,91.0,2.0,1
-254.0,-17.0,-48.0,-37.0,88.0,1.0,1
-254.0,-16.0,-48.0,-33.0,85.0,-2.0,1
-256.0,-17.0,-48.0,-30.0,84.0,-5.0,1
-255.0,-14.0,-48.0,-30.0,81.0,-6.0,1
-255.0,-13.0,-47.0,-34.0,79.0,-8.0,1
-254.0,-13.0,-50.0,-36.0,75.0,-8.0,1
-257.0,-14.0,-46.0,-39.0,73.0,-7.0,1
-255.0,-16.0,-48.0,-41.0,71.0,-9.0,1
-255.0,-17.0,-48.0,-43.0,69.0,-8.0,1
-256.0,-16.0,-49.0,-44.0,70.0,-8.0,1
-256.0,-18.0,-51.0,-42.0,72.0,-7.0,1
-254.0,-20.0,-52.0,-39.0,71.0,-7.0,1
-256.0,-17.0,-49.0,-39.0,74.0,-6.0,1
-252.0,-15.0,-47.0,-36.0,76.0,-4.0,1
-251.0,-17.0,-50.0,-32.0,77.0,-2.0,1
-252.0,-18.0,-51.0,-26.0,77.0,1.0,1
-255.0,-18.0,-52.0,-20.0,76.0,3.0,1
-251.0,-15.0,-49.0,-18.0,73.0,3.0,1
-256.0,-15.0,-53.0,-16.0,71.0,4.0,1
-257.0,-15.0,-53.0,-15.0,70.0,3.0,1
-255.0,-13.0,-52.0,-15.0,68.0,2.0,1
-257.0,-12.0,-50.0,-16.0,66.0,0.0,1
-254.0,-15.0,-47.0,-17.0,64.0,0.0,1
-256.0,-14.0,-47.0,-20.0,62.0,-2.0,1
-256.0,-17.0,-47.0,-21.0,60.0,-4.0,1
-255.0,-17.0,-51.0,-22.0,57.0,-6.0,1
-254.0,-15.0,-49.0,-23.0,54.0,-6.0,1
-255.0,-15.0,-50.0,-25.0,55.0,-9.0,1
-256.0,-16.0,-56.0,-21.0,53.0,-9.0,1
-256.0,-15.0,-53.0,-16.0,52.0,-9.0,1
-256.0,-18.0,-51.0,-11.0,51.0,-8.0,1
-256.0,-16.0,-51.0,-7.0,50.0,-10.0,1
-255.0,-19.0,-49.0,0.0,47.0,-10.0,1
-254.0,-15.0,-47.0,3.0,49.0,-10.0,1
-253.0,-18.0,-48.0,4.0,50.0,-8.0,1
-250.0,-2.0,-48.0,8.0,52.0,-8.0,1
-255.0,-14.0,-48.0,7.0,52.0,-10.0,1
-254.0,-17.0,-50.0,5.0,53.0,-9.0,1
-256.0,-16.0,-50.0,3.0,52.0,-8.0,1
-253.0,-15.0,-49.0,2.0,51.0,-9.0,1
-256.0,-14.0,-47.0,3.0,51.0,-7.0,1
-253.0,-15.0,-49.0,4.0,54.0,-7.0,1
-254.0,-18.0,-45.0,7.0,57.0,-6.0,1
-255.0,-15.0,-43.0,7.0,58.0,-8.0,1
-255.0,-15.0,-51.0,9.0,55.0,-7.0,1
-254.0,-14.0,-47.0,7.0,56.0,-9.0,1
-255.0,-14.0,-49.0,4.0,57.0,-8.0,1
-256.0,-15.0,-49.0,2.0,58.0,-7.0,1
-256.0,-17.0,-46.0,-1.0,59.0,-7.0,1
-255.0,-18.0,-45.0,-1.0,61.0,-6.0,1
-256.0,-14.0,-51.0,0.0,62.0,-7.0,1
-254.0,-18.0,-48.0,2.0,61.0,-7.0,1
-255.0,-17.0,-47.0,2.0,62.0,-7.0,1
-255.0,-17.0,-50.0,4.0,60.0,-10.0,1
-256.0,-18.0,-44.0,8.0,59.0,-9.0,1
-255.0,-17.0,-49.0,12.0,57.0,-11.0,1
-256.0,-18.0,-34.0,17.0,58.0,-11.0,1
-256.0,-18.0,-49.0,19.0,58.0,-11.0,1
-255.0,-16.0,-48.0,20.0,59.0,-11.0,1
-255.0,-15.0,-44.0,19.0,57.0,-11.0,1
-256.0,-14.0,-48.0,18.0,55.0,-12.0,1
-255.0,-14.0,-50.0,17.0,55.0,-12.0,1
-255.0,-17.0,-45.0,19.0,57.0,-11.0,1
-254.0,-15.0,-52.0,17.0,57.0,-11.0,1
-256.0,-15.0,-47.0,16.0,54.0,-10.0,1
-258.0,-13.0,-49.0,16.0,52.0,-11.0,1
-254.0,-15.0,-48.0,18.0,51.0,-12.0,1
-254.0,-17.0,-48.0,19.0,50.0,-15.0,1
-256.0,-17.0,-51.0,19.0,51.0,-12.0,1
-254.0,-16.0,-49.0,23.0,52.0,-14.0,1
-257.0,-16.0,-50.0,24.0,51.0,-13.0,1
-256.0,-17.0,-48.0,26.0,49.0,-16.0,1
-254.0,-17.0,-54.0,24.0,48.0,-15.0,1
-255.0,-15.0,-49.0,21.0,48.0,-12.0,1
-254.0,-19.0,-46.0,19.0,43.0,-13.0,1
-255.0,-15.0,-50.0,21.0,39.0,-15.0,1
-293.0,6.0,-35.0,27.0,35.0,-9.0,1
-249.0,-24.0,-36.0,85.0,13.0,37.0,1
-252.0,-29.0,-46.0,143.0,-38.0,-10.0,1
-241.0,-18.0,-58.0,118.0,-55.0,-41.0,1
-249.0,-21.0,-52.0,47.0,-22.0,-33.0,1
-253.0,-23.0,-51.0,-4.0,13.0,-20.0,1
-250.0,-22.0,-52.0,-23.0,29.0,-19.0,1
-251.0,-20.0,-48.0,-24.0,37.0,-19.0,1
-250.0,-17.0,-47.0,-14.0,48.0,-12.0,1
-255.0,-15.0,-47.0,2.0,57.0,-10.0,1
-255.0,-17.0,-43.0,13.0,61.0,-9.0,1
-253.0,-14.0,-44.0,15.0,60.0,-10.0,1
-253.0,-16.0,-47.0,16.0,57.0,-12.0,1
-253.0,-17.0,-48.0,12.0,53.0,-13.0,1
-256.0,-18.0,-46.0,8.0,51.0,-12.0,1
-256.0,-13.0,-48.0,5.0,45.0,-14.0,1
-255.0,-15.0,-47.0,2.0,42.0,-13.0,1
-256.0,-16.0,-48.0,2.0,43.0,-12.0,1
-254.0,-20.0,-46.0,7.0,45.0,-14.0,1
-259.0,-14.0,-46.0,14.0,48.0,-13.0,1
-256.0,-16.0,-47.0,22.0,47.0,-14.0,1
-255.0,-14.0,-43.0,32.0,46.0,-17.0,1
-257.0,-19.0,-47.0,36.0,47.0,-18.0,1
-263.0,-25.0,-40.0,40.0,48.0,-18.0,1
-253.0,-20.0,-46.0,42.0,50.0,-16.0,1
-255.0,-19.0,-47.0,39.0,55.0,-17.0,1
-254.0,-18.0,-39.0,35.0,58.0,-14.0,1
-253.0,-20.0,-43.0,28.0,61.0,-11.0,1
-251.0,-18.0,-47.0,24.0,63.0,-8.0,1
-254.0,-19.0,-46.0,23.0,65.0,-6.0,1
-252.0,-23.0,-42.0,28.0,66.0,-2.0,1
-253.0,-19.0,-49.0,35.0,69.0,-1.0,1
-251.0,-18.0,-45.0,39.0,73.0,1.0,1
-255.0,-18.0,-48.0,44.0,76.0,4.0,1
-258.0,-17.0,-49.0,48.0,79.0,5.0,1
-255.0,-15.0,-52.0,48.0,79.0,2.0,1
-255.0,-14.0,-49.0,46.0,75.0,1.0,1
-254.0,-15.0,-48.0,40.0,70.0,-1.0,1
-255.0,-17.0,-47.0,33.0,66.0,-3.0,1
-256.0,-12.0,-47.0,25.0,60.0,-8.0,1
-255.0,-13.0,-48.0,13.0,54.0,-11.0,1
-256.0,-16.0,-47.0,1.0,48.0,-15.0,1
-255.0,-18.0,-47.0,-6.0,42.0,-18.0,1
-255.0,-20.0,-47.0,-7.0,36.0,-20.0,1
-256.0,-20.0,-46.0,-2.0,32.0,-20.0,1
-259.0,-21.0,-59.0,4.0,33.0,-22.0,1
-256.0,-15.0,-44.0,9.0,32.0,-22.0,1
-257.0,-17.0,-45.0,15.0,32.0,-21.0,1
-255.0,-20.0,-46.0,19.0,31.0,-20.0,1
-256.0,-21.0,-43.0,25.0,31.0,-19.0,1
-256.0,-18.0,-44.0,31.0,37.0,-16.0,1
-256.0,-20.0,-47.0,36.0,40.0,-13.0,1
-257.0,-16.0,-45.0,41.0,42.0,-13.0,1
-252.0,-20.0,-46.0,43.0,49.0,-10.0,1
-256.0,-19.0,-50.0,45.0,52.0,-9.0,1
-255.0,-16.0,-42.0,45.0,56.0,-9.0,1
-255.0,-17.0,-46.0,44.0,59.0,-11.0,1
-256.0,-17.0,-42.0,40.0,61.0,-11.0,1
-256.0,-19.0,-46.0,39.0,66.0,-12.0,1
-255.0,-19.0,-48.0,38.0,70.0,-14.0,1
-254.0,-22.0,-46.0,40.0,74.0,-15.0,1
-255.0,-20.0,-45.0,43.0,76.0,-16.0,1
-255.0,-22.0,-48.0,48.0,77.0,-16.0,1
-252.0,-22.0,-45.0,56.0,76.0,-13.0,1
-256.0,-24.0,-43.0,70.0,74.0,-12.0,1
-253.0,-23.0,-46.0,87.0,70.0,-10.0,1
-252.0,-17.0,-44.0,105.0,66.0,-10.0,1
-256.0,-22.0,-46.0,123.0,64.0,-10.0,1
-255.0,-17.0,-44.0,139.0,62.0,-9.0,1
-257.0,-16.0,-49.0,152.0,62.0,-10.0,1
-257.0,-17.0,-46.0,156.0,61.0,-10.0,1
-256.0,-15.0,-47.0,151.0,62.0,-9.0,1
-257.0,-12.0,-47.0,140.0,62.0,-8.0,1
-255.0,-13.0,-47.0,126.0,63.0,-8.0,1
-257.0,-18.0,-42.0,109.0,63.0,-9.0,1
-256.0,-14.0,-43.0,88.0,63.0,-10.0,1
-255.0,-17.0,-47.0,69.0,63.0,-10.0,1
-256.0,-18.0,-39.0,54.0,61.0,-10.0,1
-255.0,-17.0,-43.0,43.0,63.0,-11.0,1
-255.0,-18.0,-43.0,36.0,64.0,-11.0,1
-254.0,-20.0,-45.0,31.0,66.0,-11.0,1
-253.0,-20.0,-45.0,26.0,67.0,-12.0,1
-254.0,-20.0,-46.0,23.0,67.0,-12.0,1
-255.0,-18.0,-44.0,21.0,65.0,-13.0,1
-252.0,-21.0,-46.0,21.0,61.0,-13.0,1
-255.0,-19.0,-43.0,21.0,58.0,-13.0,1
-255.0,-20.0,-43.0,22.0,56.0,-13.0,1
-254.0,-16.0,-44.0,23.0,57.0,-13.0,1
-256.0,-20.0,-41.0,24.0,58.0,-11.0,1
-255.0,-20.0,-43.0,25.0,58.0,-10.0,1
-256.0,-21.0,-46.0,24.0,59.0,-9.0,1
-253.0,-22.0,-44.0,23.0,56.0,-9.0,1
-256.0,-20.0,-48.0,23.0,56.0,-7.0,1
-254.0,-20.0,-44.0,23.0,56.0,-5.0,1
-254.0,-22.0,-46.0,25.0,56.0,-5.0,1
-256.0,-20.0,-44.0,24.0,56.0,-4.0,1
-255.0,-21.0,-50.0,25.0,56.0,-4.0,1
-254.0,-18.0,-48.0,25.0,57.0,-4.0,1
-257.0,-18.0,-45.0,27.0,55.0,-5.0,1
-252.0,-18.0,-41.0,31.0,54.0,-1.0,1
-260.0,-18.0,-54.0,40.0,49.0,-2.0,1
-250.0,-23.0,-45.0,40.0,47.0,-7.0,1
-246.0,-26.0,-43.0,36.0,52.0,-12.0,1
-249.0,-10.0,-31.0,31.0,59.0,-12.0,1
-262.0,-11.0,-49.0,29.0,61.0,-12.0,1
-254.0,-12.0,-22.0,31.0,60.0,-12.0,1
-250.0,-15.0,-42.0,34.0,60.0,-10.0,1
-257.0,-24.0,-60.0,37.0,61.0,-10.0,1
-253.0,-29.0,-48.0,40.0,63.0,-14.0,1
-260.0,-22.0,-50.0,44.0,64.0,-9.0,1
-258.0,-18.0,-43.0,46.0,67.0,-9.0,1
-256.0,-18.0,-44.0,45.0,67.0,-11.0,1
-254.0,-21.0,-42.0,44.0,65.0,-10.0,1
-255.0,-16.0,-46.0,43.0,64.0,-10.0,1
-257.0,-14.0,-42.0,41.0,63.0,-11.0,1
-252.0,-17.0,-37.0,38.0,62.0,-11.0,1
-251.0,-16.0,-40.0,37.0,60.0,-10.0,1
-255.0,-18.0,-47.0,39.0,56.0,-10.0,1
-257.0,-15.0,-40.0,41.0,53.0,-10.0,1
-252.0,-20.0,-43.0,45.0,53.0,-12.0,1
-256.0,-17.0,-41.0,50.0,53.0,-13.0,1
-259.0,-18.0,-48.0,53.0,55.0,-14.0,1
-259.0,-22.0,-46.0,55.0,57.0,-12.0,1
-258.0,-24.0,-42.0,56.0,60.0,-11.0,1
-259.0,-25.0,-32.0,56.0,62.0,-10.0,1
-256.0,-20.0,-41.0,57.0,63.0,-9.0,1
-256.0,-23.0,-44.0,58.0,65.0,-8.0,1
-254.0,-20.0,-47.0,57.0,65.0,-8.0,1
-252.0,-20.0,-48.0,60.0,67.0,-8.0,1
-250.0,-13.0,-53.0,61.0,69.0,-8.0,1
-255.0,-21.0,-46.0,63.0,68.0,-8.0,1
-254.0,-21.0,-39.0,66.0,66.0,-9.0,1
-254.0,-22.0,-43.0,70.0,65.0,-11.0,1
-254.0,-17.0,-41.0,73.0,64.0,-12.0,1
-258.0,-23.0,-46.0,73.0,61.0,-12.0,1
-250.0,-16.0,-47.0,71.0,59.0,-13.0,1
-255.0,-13.0,-33.0,69.0,61.0,-12.0,1
-242.0,-28.0,-33.0,63.0,62.0,-14.0,1
-257.0,-43.0,-43.0,57.0,63.0,-16.0,1
-249.0,-20.0,-37.0,50.0,63.0,-15.0,1
-254.0,-20.0,-49.0,44.0,65.0,-14.0,1
-256.0,-21.0,-46.0,40.0,68.0,-14.0,1
-255.0,-21.0,-44.0,40.0,69.0,-11.0,1
-256.0,-23.0,-43.0,41.0,68.0,-12.0,1
-255.0,-23.0,-43.0,47.0,68.0,-13.0,1
-256.0,-26.0,-47.0,50.0,67.0,-13.0,1
-244.0,-6.0,-45.0,53.0,66.0,-14.0,1
-252.0,-23.0,-32.0,56.0,64.0,-15.0,1
-242.0,-5.0,-55.0,59.0,63.0,-14.0,1
-253.0,-11.0,-50.0,60.0,59.0,-14.0,1
-255.0,-20.0,-55.0,60.0,57.0,-14.0,1
-258.0,-16.0,-55.0,59.0,54.0,-15.0,1
-251.0,-18.0,-34.0,58.0,52.0,-16.0,1
-262.0,-28.0,-39.0,55.0,51.0,-16.0,1
-251.0,-21.0,-37.0,53.0,50.0,-16.0,1
-244.0,-27.0,-40.0,53.0,49.0,-16.0,1
-256.0,-20.0,-45.0,52.0,49.0,-15.0,1
-258.0,-20.0,-46.0,55.0,49.0,-16.0,1
-256.0,-25.0,-46.0,58.0,51.0,-16.0,1
-254.0,-22.0,-43.0,63.0,54.0,-16.0,1
-256.0,-12.0,-49.0,70.0,55.0,-16.0,1
-257.0,-25.0,-50.0,76.0,57.0,-15.0,1
-253.0,-31.0,-30.0,84.0,58.0,-17.0,1
-256.0,-29.0,-44.0,89.0,59.0,-13.0,1
-257.0,-25.0,-40.0,95.0,63.0,-11.0,1
-250.0,-19.0,-42.0,97.0,63.0,-12.0,1
-252.0,-21.0,-38.0,96.0,66.0,-12.0,1
-255.0,-27.0,-33.0,92.0,67.0,-11.0,1
-253.0,-28.0,-41.0,91.0,70.0,-8.0,1
-250.0,-22.0,-41.0,92.0,72.0,-5.0,1
-254.0,-22.0,-39.0,99.0,73.0,-1.0,1
-255.0,-22.0,-47.0,110.0,74.0,4.0,1
-253.0,-24.0,-44.0,128.0,77.0,8.0,1
-255.0,-24.0,-48.0,150.0,78.0,8.0,1
-257.0,-24.0,-48.0,170.0,77.0,5.0,1
-256.0,-23.0,-60.0,188.0,73.0,5.0,1
-255.0,-17.0,-50.0,204.0,64.0,2.0,1
-254.0,-21.0,-45.0,216.0,56.0,-2.0,1
-251.0,-32.0,-39.0,226.0,54.0,-3.0,1
-258.0,-11.0,-54.0,230.0,49.0,-5.0,1
-253.0,-9.0,-42.0,230.0,44.0,-7.0,1
-248.0,-11.0,-44.0,225.0,39.0,-13.0,1
-257.0,-12.0,-39.0,218.0,38.0,-18.0,1
-252.0,-22.0,-31.0,207.0,38.0,-20.0,1
-250.0,-27.0,-42.0,197.0,37.0,-20.0,1
-254.0,-25.0,-36.0,186.0,35.0,-21.0,1
-259.0,-17.0,-44.0,170.0,35.0,-25.0,1
-257.0,-20.0,-43.0,151.0,33.0,-25.0,1
-256.0,-21.0,-41.0,132.0,32.0,-25.0,1
-256.0,-21.0,-42.0,115.0,34.0,-25.0,1
-257.0,-19.0,-41.0,103.0,34.0,-27.0,1
-255.0,-29.0,-42.0,96.0,36.0,-28.0,1
-269.0,-19.0,-53.0,93.0,38.0,-29.0,1
-258.0,-20.0,-43.0,94.0,43.0,-30.0,1
-254.0,-23.0,-44.0,95.0,48.0,-30.0,1
-258.0,-21.0,-42.0,94.0,53.0,-32.0,1
-256.0,-24.0,-47.0,93.0,58.0,-32.0,1
-256.0,-21.0,-41.0,94.0,64.0,-31.0,1
-254.0,-22.0,-42.0,91.0,71.0,-29.0,1
-256.0,-37.0,-42.0,90.0,76.0,-28.0,1
-255.0,-23.0,-38.0,88.0,79.0,-25.0,1
-253.0,-25.0,-38.0,88.0,82.0,-25.0,1
-256.0,-22.0,-39.0,88.0,80.0,-23.0,1
-256.0,-21.0,-44.0,89.0,78.0,-22.0,1
-252.0,-28.0,-38.0,91.0,75.0,-20.0,1
-254.0,-24.0,-40.0,91.0,71.0,-20.0,1
-256.0,-22.0,-43.0,90.0,68.0,-19.0,1
-253.0,-22.0,-37.0,89.0,65.0,-17.0,1
-255.0,-23.0,-42.0,85.0,61.0,-19.0,1
-253.0,-26.0,-31.0,76.0,57.0,-21.0,1
-252.0,-21.0,-42.0,64.0,54.0,-21.0,1
-254.0,-22.0,-38.0,47.0,50.0,-20.0,1
-255.0,-23.0,-39.0,31.0,45.0,-20.0,1
-255.0,-25.0,-40.0,18.0,43.0,-21.0,1
-255.0,-26.0,-37.0,7.0,43.0,-22.0,1
-255.0,-24.0,-33.0,-3.0,45.0,-20.0,1
-255.0,-24.0,-38.0,-8.0,49.0,-20.0,1
-254.0,-26.0,-38.0,-12.0,53.0,-17.0,1
-254.0,-21.0,-40.0,-12.0,57.0,-15.0,1
-255.0,-27.0,-37.0,-13.0,62.0,-13.0,1
-256.0,-26.0,-39.0,-10.0,66.0,-10.0,1
-255.0,-27.0,-37.0,-10.0,69.0,-8.0,1
-254.0,-24.0,-38.0,-7.0,69.0,-7.0,1
-255.0,-23.0,-39.0,-3.0,70.0,-6.0,1
-257.0,-26.0,-41.0,-5.0,71.0,-6.0,1
-255.0,-24.0,-38.0,-6.0,71.0,-6.0,1
-254.0,-26.0,-42.0,-10.0,69.0,-6.0,1
-255.0,-26.0,-42.0,-12.0,69.0,-7.0,1
-254.0,-26.0,-39.0,-15.0,68.0,-6.0,1
-257.0,-23.0,-40.0,-19.0,72.0,-4.0,1
-254.0,-21.0,-34.0,-21.0,73.0,-3.0,1
-255.0,-24.0,-41.0,-22.0,73.0,-3.0,1
-255.0,-20.0,-35.0,-25.0,74.0,-3.0,1
-256.0,-25.0,-38.0,-30.0,74.0,0.0,1
-256.0,-25.0,-36.0,-35.0,74.0,0.0,1
-253.0,-28.0,-38.0,-39.0,74.0,0.0,1
-254.0,-25.0,-36.0,-44.0,74.0,0.0,1
