ax,ay,az,gx,gy,gz,label
-21.0,-255.0,14.0,-19.0,35.0,13.0,1
-16.0,-250.0,12.0,-18.0,35.0,13.0,1
-16.0,-255.0,13.0,-15.0,36.0,13.0,1
-16.0,-250.0,13.0,-13.0,38.0,12.0,1
-15.0,-255.0,15.0,-12.0,39.0,13.0,1
-18.0,-254.0,16.0,-11.0,42.0,11.0,1
-11.0,-251.0,5.0,-11.0,45.0,12.0,1
-21.0,-252.0,8.0,-10.0,47.0,11.0,1
-20.0,-254.0,16.0,-9.0,48.0,10.0,1
-19.0,-254.0,14.0,-9.0,47.0,13.0,1
-19.0,-254.0,12.0,-8.0,48.0,13.0,1
-17.0,-253.0,11.0,-5.0,47.0,14.0,1
-20.0,-252.0,14.0,-4.0,47.0,12.0,1
-18.0,-254.0,15.0,-5.0,48.0,10.0,1
-17.0,-253.0,16.0,-4.0,48.0,11.0,1
-19.0,-252.0,13.0,-6.0,49.0,11.0,1
-15.0,-251.0,11.0,-8.0,50.0,11.0,1
-21.0,-251.0,15.0,-12.0,50.0,10.0,1
-20.0,-254.0,12.0,-14.0,49.0,9.0,1
-21.0,-253.0,15.0,-16.0,48.0,9.0,1
-17.0,-252.0,12.0,-17.0,48.0,8.0,1
-14.0,-253.0,14.0,-20.0,47.0,9.0,1
-19.0,-250.0,10.0,-20.0,45.0,8.0,1
-19.0,-250.0,11.0,-19.0,46.0,12.0,1
-17.0,-252.0,18.0,-19.0,48.0,10.0,1
-20.0,-254.0,14.0,-16.0,49.0,12.0,1
-15.0,-254.0,13.0,-16.0,51.0,12.0,1
-17.0,-252.0,11.0,-14.0,53.0,12.0,1
-18.0,-252.0,13.0,-11.0,57.0,11.0,1
-24.0,-249.0,11.0,-10.0,59.0,13.0,1
-18.0,-252.0,14.0,-10.0,62.0,12.0,1
-15.0,-253.0,15.0,-10.0,66.0,13.0,1
-17.0,-252.0,16.0,-12.0,68.0,10.0,1
-21.0,-250.0,16.0,-14.0,73.0,12.0,1
-21.0,-250.0,16.0,-17.0,77.0,10.0,1
-20.0,-253.0,14.0,-18.0,81.0,10.0,1
-16.0,-255.0,14.0,-20.0,83.0,8.0,1
-18.0,-253.0,14.0,-21.0,85.0,10.0,1
-20.0,-254.0,15.0,-23.0,86.0,8.0,1
-16.0,-254.0,15.0,-28.0,85.0,10.0,1
-17.0,-254.0,15.0,-29.0,85.0,9.0,1
-19.0,-252.0,16.0,-31.0,85.0,11.0,1
-17.0,-254.0,17.0,-30.0,86.0,10.0,1
-21.0,-250.0,16.0,-28.0,87.0,11.0,1
-19.0,-251.0,14.0,-28.0,89.0,7.0,1
-18.0,-255.0,13.0,-29.0,92.0,9.0,1
-19.0,-251.0,16.0,-29.0,95.0,4.0,1
-20.0,-253.0,14.0,-31.0,96.0,5.0,1
-17.0,-252.0,16.0,-33.0,99.0,2.0,1
-16.0,-254.0,15.0,-37.0,102.0,3.0,1
-17.0,-253.0,14.0,-40.0,104.0,1.0,1
-20.0,-253.0,14.0,-42.0,106.0,3.0,1
-22.0,-250.0,14.0,-44.0,109.0,2.0,1
-18.0,-253.0,14.0,-45.0,112.0,3.0,1
-20.0,-254.0,14.0,-47.0,115.0,2.0,1
-18.0,-254.0,16.0,-47.0,119.0,6.0,1
-22.0,-252.0,15.0,-50.0,122.0,5.0,1
-18.0,-251.0,17.0,-51.0,126.0,6.0,1
-19.0,-252.0,16.0,-53.0,128.0,4.0,1
-18.0,-254.0,15.0,-56.0,129.0,6.0,1
-20.0,-252.0,17.0,-59.0,129.0,3.0,1
-20.0,-248.0,16.0,-63.0,127.0,4.0,1
-21.0,-250.0,19.0,-65.0,127.0,1.0,1
-21.0,-248.0,19.0,-68.0,129.0,3.0,1
-19.0,-250.0,15.0,-71.0,131.0,1.0,1
-20.0,-251.0,14.0,-73.0,132.0,2.0,1
-18.0,-248.0,11.0,-78.0,134.0,-2.0,1
-19.0,-245.0,11.0,-85.0,136.0,-4.0,1
-14.0,-249.0,15.0,-93.0,137.0,-10.0,1
-15.0,-250.0,13.0,-102.0,140.0,-12.0,1
-15.0,-251.0,14.0,-109.0,144.0,-19.0,1
-15.0,-249.0,11.0,-116.0,147.0,-21.0,1
-12.0,-251.0,12.0,-126.0,151.0,-28.0,1
-12.0,-249.0,15.0,-135.0,156.0,-30.0,1
-11.0,-251.0,15.0,-144.0,162.0,-36.0,1
-5.0,-251.0,9.0,-150.0,167.0,-38.0,1
-7.0,-249.0,10.0,-155.0,173.0,-43.0,1
-8.0,-253.0,9.0,-160.0,178.0,-44.0,1
-9.0,-252.0,11.0,-159.0,186.0,-47.0,1
-6.0,-254.0,13.0,-160.0,191.0,-45.0,1
-8.0,-256.0,13.0,-157.0,200.0,-46.0,1
-8.0,-259.0,11.0,-154.0,206.0,-42.0,1
-10.0,-260.0,12.0,-148.0,214.0,-42.0,1
-12.0,-262.0,13.0,-140.0,219.0,-36.0,1
-12.0,-263.0,15.0,-133.0,224.0,-35.0,1
-16.0,-265.0,15.0,-126.0,224.0,-30.0,1
-19.0,-262.0,9.0,-122.0,225.0,-28.0,1
-21.0,-265.0,13.0,-118.0,224.0,-23.0,1
-19.0,-261.0,12.0,-115.0,223.0,-20.0,1
-21.0,-261.0,10.0,-118.0,223.0,-16.0,1
-20.0,-253.0,10.0,-122.0,223.0,-17.0,1
-16.0,-250.0,9.0,-127.0,227.0,-15.0,1
-13.0,-244.0,7.0,-132.0,230.0,-17.0,1
-11.0,-246.0,8.0,-135.0,238.0,-16.0,1
-9.0,-243.0,8.0,-136.0,246.0,-21.0,1
-6.0,-240.0,10.0,-135.0,256.0,-24.0,1
-6.0,-242.0,11.0,-133.0,264.0,-29.0,1
-4.0,-246.0,11.0,-130.0,273.0,-29.0,1
-4.0,-250.0,14.0,-130.0,283.0,-33.0,1
-4.0,-251.0,12.0,-131.0,288.0,-31.0,1
-6.0,-252.0,11.0,-133.0,292.0,-30.0,1
-6.0,-251.0,12.0,-135.0,292.0,-27.0,1
-10.0,-253.0,10.0,-134.0,291.0,-24.0,1
-7.0,-252.0,9.0,-129.0,291.0,-21.0,1
-9.0,-250.0,11.0,-122.0,289.0,-17.0,1
-12.0,-248.0,12.0,-113.0,288.0,-14.0,1
-11.0,-246.0,9.0,-108.0,287.0,-11.0,1
-16.0,-242.0,12.0,-108.0,286.0,-8.0,1
-13.0,-240.0,10.0,-114.0,286.0,-9.0,1
-15.0,-237.0,14.0,-125.0,284.0,-7.0,1
-18.0,-239.0,11.0,-138.0,277.0,-10.0,1
-20.0,-235.0,8.0,-153.0,265.0,-12.0,1
-24.0,-232.0,6.0,-172.0,250.0,-14.0,1
-25.0,-232.0,4.0,-194.0,233.0,-15.0,1
-30.0,-230.0,3.0,-216.0,216.0,-19.0,1
-29.0,-227.0,1.0,-236.0,199.0,-23.0,1
-32.0,-226.0,-2.0,-258.0,182.0,-33.0,1
-30.0,-226.0,-1.0,-275.0,162.0,-44.0,1
-34.0,-226.0,-1.0,-290.0,142.0,-55.0,1
-34.0,-227.0,-1.0,-299.0,122.0,-71.0,1
-36.0,-232.0,8.0,-306.0,104.0,-86.0,1
-38.0,-237.0,9.0,-301.0,89.0,-98.0,1
-40.0,-247.0,9.0,-291.0,75.0,-108.0,1
-40.0,-252.0,10.0,-275.0,66.0,-117.0,1
-37.0,-263.0,12.0,-251.0,53.0,-120.0,1
-34.0,-273.0,13.0,-228.0,47.0,-126.0,1
-32.0,-285.0,13.0,-213.0,43.0,-127.0,1
-26.0,-295.0,9.0,-197.0,43.0,-127.0,1
-23.0,-303.0,8.0,-187.0,51.0,-127.0,1
-22.0,-299.0,7.0,-182.0,64.0,-128.0,1
-14.0,-297.0,10.0,-186.0,82.0,-128.0,1
-11.0,-291.0,5.0,-201.0,98.0,-131.0,1
-6.0,-281.0,7.0,-225.0,120.0,-137.0,1
-1.0,-269.0,9.0,-248.0,139.0,-139.0,1
8.0,-260.0,13.0,-263.0,162.0,-141.0,1
11.0,-259.0,20.0,-270.0,191.0,-142.0,1
16.0,-251.0,23.0,-266.0,217.0,-141.0,1
20.0,-249.0,26.0,-252.0,238.0,-138.0,1
19.0,-249.0,29.0,-240.0,255.0,-128.0,1
21.0,-249.0,30.0,-224.0,268.0,-123.0,1
-12.0,-270.0,45.0,-202.0,284.0,-103.0,1
34.0,-252.0,16.0,-126.0,265.0,-62.0,1
33.0,-259.0,20.0,-143.0,304.0,-61.0,1
31.0,-262.0,21.0,-179.0,339.0,-74.0,1
24.0,-262.0,20.0,-201.0,366.0,-74.0,1
20.0,-264.0,20.0,-216.0,384.0,-72.0,1
15.0,-262.0,18.0,-223.0,402.0,-65.0,1
12.0,-262.0,12.0,-233.0,426.0,-60.0,1
5.0,-258.0,11.0,-248.0,454.0,-52.0,1
-1.0,-254.0,8.0,-259.0,479.0,-45.0,1
-10.0,-255.0,14.0,-265.0,498.0,-30.0,1
-29.0,-248.0,17.0,-252.0,511.0,-9.0,1
-14.0,-246.0,29.0,-173.0,473.0,63.0,1
-11.0,-243.0,11.0,-111.0,472.0,99.0,1
-1.0,-242.0,10.0,-117.0,505.0,100.0,1
-11.0,-244.0,10.0,-146.0,530.0,81.0,1
-11.0,-244.0,13.0,-170.0,529.0,80.0,1
-12.0,-245.0,15.0,-180.0,518.0,85.0,1
-19.0,-245.0,19.0,-180.0,508.0,103.0,1
-19.0,-247.0,16.0,-176.0,499.0,122.0,1
-16.0,-249.0,13.0,-169.0,498.0,141.0,1
-16.0,-249.0,18.0,-163.0,500.0,159.0,1
-17.0,-247.0,16.0,-156.0,501.0,172.0,1
-20.0,-246.0,17.0,-153.0,501.0,180.0,1
-19.0,-247.0,18.0,-148.0,498.0,187.0,1
-23.0,-243.0,19.0,-142.0,493.0,189.0,1
-21.0,-242.0,19.0,-135.0,485.0,194.0,1
-19.0,-241.0,27.0,-124.0,480.0,187.0,1
-24.0,-236.0,23.0,-108.0,473.0,186.0,1
-20.0,-233.0,26.0,-96.0,465.0,179.0,1
-17.0,-232.0,24.0,-90.0,459.0,177.0,1
-25.0,-233.0,26.0,-84.0,450.0,170.0,1
-21.0,-230.0,27.0,-79.0,440.0,166.0,1
-22.0,-225.0,34.0,-73.0,433.0,159.0,1
-20.0,-225.0,33.0,-66.0,426.0,154.0,1
-23.0,-225.0,33.0,-58.0,419.0,144.0,1
-22.0,-228.0,36.0,-54.0,419.0,139.0,1
-19.0,-224.0,35.0,-47.0,421.0,129.0,1
-21.0,-227.0,43.0,-38.0,422.0,125.0,1
-22.0,-225.0,43.0,-30.0,422.0,116.0,1
-23.0,-228.0,46.0,-27.0,422.0,109.0,1
-26.0,-229.0,47.0,-22.0,419.0,97.0,1
-27.0,-226.0,45.0,-24.0,418.0,88.0,1
-29.0,-227.0,51.0,-28.0,418.0,73.0,1
-33.0,-228.0,43.0,-33.0,418.0,69.0,1
-37.0,-226.0,45.0,-36.0,414.0,65.0,1
-39.0,-228.0,47.0,-41.0,411.0,66.0,1
-42.0,-231.0,45.0,-51.0,405.0,63.0,1
-43.0,-236.0,46.0,-63.0,398.0,65.0,1
-48.0,-237.0,44.0,-72.0,390.0,66.0,1
-45.0,-242.0,42.0,-80.0,379.0,71.0,1
-46.0,-244.0,36.0,-88.0,371.0,74.0,1
-44.0,-247.0,34.0,-95.0,362.0,77.0,1
-38.0,-254.0,32.0,-104.0,354.0,73.0,1
-38.0,-256.0,32.0,-109.0,345.0,74.0,1
-33.0,-257.0,29.0,-111.0,336.0,70.0,1
-28.0,-260.0,25.0,-112.0,329.0,69.0,1
-22.0,-268.0,25.0,-117.0,321.0,62.0,1
-20.0,-266.0,26.0,-120.0,314.0,61.0,1
-24.0,-265.0,20.0,-125.0,305.0,57.0,1
-20.0,-264.0,20.0,-127.0,300.0,60.0,1
-24.0,-264.0,17.0,-130.0,289.0,62.0,1
-29.0,-264.0,22.0,-131.0,281.0,70.0,1
-30.0,-272.0,18.0,-134.0,274.0,76.0,1
-33.0,-275.0,21.0,-132.0,270.0,88.0,1
-35.0,-282.0,22.0,-125.0,274.0,91.0,1
-30.0,-287.0,30.0,-112.0,284.0,97.0,1
-29.0,-289.0,31.0,-91.0,300.0,94.0,1
-26.0,-290.0,38.0,-71.0,320.0,90.0,1
-21.0,-290.0,39.0,-52.0,339.0,78.0,1
-17.0,-285.0,47.0,-35.0,354.0,67.0,1
-8.0,-283.0,49.0,-21.0,370.0,50.0,1
-4.0,-276.0,52.0,-8.0,382.0,32.0,1
-3.0,-276.0,56.0,4.0,396.0,9.0,1
-4.0,-273.0,55.0,13.0,416.0,-14.0,1
-4.0,-275.0,52.0,22.0,439.0,-32.0,1
-7.0,-285.0,53.0,35.0,453.0,-33.0,1
-14.0,-305.0,45.0,59.0,473.0,-9.0,1
-32.0,-341.0,37.0,75.0,476.0,33.0,1
-38.0,-379.0,22.0,88.0,455.0,59.0,1
-44.0,-409.0,0.0,88.0,420.0,71.0,1
-56.0,-422.0,-26.0,36.0,386.0,79.0,1
-62.0,-418.0,-41.0,-83.0,362.0,92.0,1
-64.0,-403.0,-45.0,-236.0,339.0,108.0,1
-74.0,-370.0,-39.0,-356.0,307.0,122.0,1
-75.0,-330.0,-27.0,-401.0,214.0,116.0,1
-74.0,-295.0,-17.0,-354.0,81.0,96.0,1
-70.0,-270.0,-16.0,-259.0,-82.0,68.0,1
-61.0,-252.0,-14.0,-143.0,-235.0,41.0,1
-56.0,-249.0,-13.0,-27.0,-345.0,18.0,1
-51.0,-253.0,-18.0,71.0,-400.0,9.0,1
-43.0,-259.0,-13.0,132.0,-405.0,4.0,1
-36.0,-261.0,-9.0,154.0,-375.0,-6.0,1
-33.0,-260.0,-7.0,153.0,-321.0,-24.0,1
-28.0,-260.0,-6.0,146.0,-254.0,-45.0,1
-23.0,-256.0,-10.0,137.0,-168.0,-72.0,1
-12.0,-256.0,-18.0,133.0,-46.0,-93.0,1
-11.0,-245.0,-30.0,125.0,67.0,-118.0,1
-11.0,-238.0,-38.0,114.0,181.0,-138.0,1
-7.0,-228.0,-48.0,95.0,291.0,-154.0,1
-10.0,-209.0,-63.0,70.0,398.0,-166.0,1
-6.0,-198.0,-74.0,39.0,500.0,-169.0,1
-4.0,-192.0,-85.0,11.0,595.0,-162.0,1
0.0,-186.0,-98.0,-5.0,682.0,-154.0,1
3.0,-189.0,-109.0,-8.0,752.0,-156.0,1
-2.0,-188.0,-110.0,-1.0,811.0,-162.0,1
-3.0,-194.0,-109.0,-2.0,831.0,-158.0,1
-7.0,-203.0,-110.0,-27.0,788.0,-163.0,1
-10.0,-222.0,-107.0,-44.0,719.0,-166.0,1
-16.0,-238.0,-102.0,-49.0,632.0,-168.0,1
-29.0,-251.0,-93.0,-70.0,515.0,-165.0,1
-30.0,-259.0,-84.0,-105.0,371.0,-163.0,1
-34.0,-267.0,-76.0,-130.0,231.0,-156.0,1
-37.0,-263.0,-67.0,-141.0,101.0,-144.0,1
-38.0,-264.0,-57.0,-140.0,-22.0,-134.0,1
-38.0,-257.0,-55.0,-125.0,-133.0,-121.0,1
-39.0,-256.0,-52.0,-100.0,-234.0,-107.0,1
-40.0,-251.0,-48.0,-67.0,-338.0,-97.0,1
-40.0,-245.0,-45.0,-48.0,-415.0,-87.0,1
-39.0,-242.0,-37.0,-41.0,-479.0,-80.0,1
-37.0,-243.0,-40.0,-42.0,-531.0,-78.0,1
-35.0,-241.0,-35.0,-49.0,-569.0,-73.0,1
-34.0,-240.0,-34.0,-66.0,-588.0,-72.0,1
-31.0,-241.0,-32.0,-88.0,-589.0,-73.0,1
-27.0,-238.0,-31.0,-109.0,-571.0,-75.0,1
-27.0,-240.0,-29.0,-131.0,-539.0,-73.0,1
-24.0,-239.0,-31.0,-151.0,-489.0,-74.0,1
-24.0,-238.0,-34.0,-171.0,-421.0,-70.0,1
-18.0,-240.0,-36.0,-191.0,-361.0,-69.0,1
-18.0,-235.0,-39.0,-204.0,-300.0,-66.0,1
-15.0,-235.0,-42.0,-213.0,-243.0,-67.0,1
-14.0,-231.0,-40.0,-218.0,-194.0,-66.0,1
-12.0,-234.0,-38.0,-221.0,-152.0,-67.0,1
-14.0,-233.0,-38.0,-221.0,-121.0,-67.0,1
-10.0,-236.0,-40.0,-214.0,-100.0,-69.0,1
-8.0,-237.0,-33.0,-205.0,-89.0,-67.0,1
-8.0,-237.0,-35.0,-197.0,-86.0,-70.0,1
-5.0,-241.0,-29.0,-190.0,-92.0,-70.0,1
-3.0,-239.0,-29.0,-180.0,-109.0,-78.0,1
-2.0,-237.0,-24.0,-175.0,-126.0,-82.0,1
-1.0,-237.0,-25.0,-167.0,-144.0,-93.0,1
3.0,-240.0,-22.0,-164.0,-163.0,-100.0,1
2.0,-239.0,-17.0,-161.0,-183.0,-109.0,1
1.0,-238.0,-13.0,-158.0,-202.0,-114.0,1
2.0,-240.0,-13.0,-157.0,-221.0,-124.0,1
1.0,-237.0,-14.0,-154.0,-235.0,-128.0,1
5.0,-237.0,-17.0,-153.0,-245.0,-133.0,1
14.0,-230.0,-14.0,-158.0,-253.0,-135.0,1
4.0,-228.0,-9.0,-165.0,-266.0,-138.0,1
4.0,-230.0,-13.0,-172.0,-274.0,-139.0,1
2.0,-226.0,-20.0,-175.0,-276.0,-148.0,1
-2.0,-226.0,-22.0,-179.0,-270.0,-151.0,1
-3.0,-223.0,-18.0,-185.0,-264.0,-156.0,1
-5.0,-220.0,-19.0,-192.0,-262.0,-151.0,1
-8.0,-219.0,-21.0,-195.0,-261.0,-146.0,1
-10.0,-222.0,-19.0,-189.0,-256.0,-142.0,1
-10.0,-225.0,-23.0,-181.0,-250.0,-142.0,1
-12.0,-225.0,-21.0,-169.0,-246.0,-137.0,1
-12.0,-224.0,-19.0,-161.0,-246.0,-134.0,1
-12.0,-228.0,-19.0,-152.0,-255.0,-126.0,1
-11.0,-227.0,-17.0,-146.0,-270.0,-120.0,1
-10.0,-234.0,-15.0,-141.0,-285.0,-113.0,1
-8.0,-235.0,-17.0,-143.0,-305.0,-111.0,1
-5.0,-234.0,-15.0,-144.0,-325.0,-105.0,1
-2.0,-235.0,-15.0,-146.0,-348.0,-104.0,1
3.0,-237.0,-12.0,-151.0,-370.0,-98.0,1
7.0,-234.0,-16.0,-153.0,-390.0,-100.0,1
9.0,-236.0,-13.0,-152.0,-409.0,-98.0,1
12.0,-240.0,-10.0,-151.0,-424.0,-98.0,1
13.0,-241.0,-9.0,-150.0,-436.0,-93.0,1
15.0,-242.0,-9.0,-145.0,-441.0,-96.0,1
16.0,-242.0,-5.0,-139.0,-441.0,-93.0,1
13.0,-248.0,-4.0,-126.0,-441.0,-96.0,1
15.0,-256.0,-6.0,-111.0,-437.0,-93.0,1
12.0,-255.0,7.0,-92.0,-436.0,-96.0,1
10.0,-258.0,6.0,-72.0,-436.0,-92.0,1
4.0,-260.0,7.0,-52.0,-440.0,-92.0,1
8.0,-269.0,10.0,-39.0,-445.0,-89.0,1
9.0,-273.0,8.0,-28.0,-450.0,-89.0,1
8.0,-269.0,8.0,-23.0,-452.0,-85.0,1
9.0,-274.0,11.0,-18.0,-449.0,-86.0,1
14.0,-273.0,8.0,-15.0,-442.0,-83.0,1
19.0,-270.0,8.0,-8.0,-428.0,-86.0,1
24.0,-270.0,6.0,1.0,-409.0,-86.0,1
33.0,-272.0,8.0,14.0,-387.0,-94.0,1
39.0,-275.0,6.0,29.0,-365.0,-97.0,1
43.0,-282.0,6.0,47.0,-346.0,-107.0,1
49.0,-293.0,9.0,67.0,-331.0,-112.0,1
50.0,-306.0,9.0,87.0,-324.0,-121.0,1
50.0,-313.0,10.0,99.0,-320.0,-124.0,1
52.0,-322.0,14.0,104.0,-318.0,-133.0,1
54.0,-326.0,16.0,107.0,-318.0,-134.0,1
53.0,-329.0,24.0,109.0,-317.0,-139.0,1
52.0,-331.0,26.0,118.0,-318.0,-141.0,1
50.0,-328.0,36.0,133.0,-321.0,-146.0,1
45.0,-325.0,38.0,155.0,-325.0,-144.0,1
44.0,-325.0,44.0,184.0,-335.0,-143.0,1
39.0,-314.0,40.0,219.0,-345.0,-135.0,1
30.0,-306.0,41.0,253.0,-357.0,-129.0,1
22.0,-298.0,35.0,278.0,-370.0,-118.0,1
11.0,-297.0,31.0,294.0,-382.0,-107.0,1
18.0,-306.0,21.0,314.0,-396.0,-101.0,1
23.0,-325.0,10.0,339.0,-410.0,-102.0,1
22.0,-348.0,-4.0,358.0,-435.0,-98.0,1
17.0,-364.0,-32.0,338.0,-464.0,-97.0,1
16.0,-377.0,-49.0,264.0,-481.0,-97.0,1
16.0,-386.0,-65.0,151.0,-476.0,-112.0,1
22.0,-378.0,-76.0,44.0,-437.0,-133.0,1
17.0,-359.0,-74.0,-25.0,-364.0,-162.0,1
5.0,-334.0,-63.0,-43.0,-267.0,-191.0,1
-6.0,-307.0,-55.0,-26.0,-153.0,-219.0,1
-17.0,-278.0,-50.0,17.0,-11.0,-224.0,1
-25.0,-260.0,-51.0,62.0,93.0,-218.0,1
-38.0,-245.0,-52.0,111.0,170.0,-202.0,1
-53.0,-230.0,-57.0,152.0,217.0,-180.0,1
-63.0,-219.0,-58.0,180.0,225.0,-151.0,1
-75.0,-207.0,-69.0,185.0,194.0,-121.0,1
-79.0,-195.0,-75.0,163.0,123.0,-93.0,1
-91.0,-182.0,-78.0,109.0,18.0,-73.0,1
-102.0,-167.0,-76.0,44.0,-122.0,-47.0,1
-107.0,-156.0,-71.0,-20.0,-283.0,-27.0,1
-109.0,-153.0,-65.0,-63.0,-472.0,-8.0,1
-110.0,-151.0,-58.0,-76.0,-611.0,-2.0,1
-103.0,-158.0,-42.0,-56.0,-716.0,0.0,1
-97.0,-171.0,-28.0,-19.0,-789.0,-6.0,1
-86.0,-191.0,-27.0,24.0,-822.0,-17.0,1
-80.0,-210.0,-22.0,54.0,-816.0,-32.0,1
-75.0,-236.0,-15.0,60.0,-779.0,-45.0,1
-68.0,-250.0,-15.0,51.0,-723.0,-55.0,1
-54.0,-261.0,-13.0,28.0,-655.0,-60.0,1
-42.0,-270.0,-15.0,9.0,-582.0,-64.0,1
-29.0,-270.0,-21.0,0.0,-489.0,-65.0,1
-12.0,-269.0,-27.0,-18.0,-403.0,-67.0,1
2.0,-264.0,-27.0,-31.0,-311.0,-64.0,1
17.0,-261.0,-34.0,-39.0,-217.0,-57.0,1
21.0,-257.0,-40.0,-44.0,-129.0,-47.0,1
28.0,-253.0,-39.0,-43.0,-52.0,-35.0,1
32.0,-246.0,-48.0,-41.0,20.0,-23.0,1
33.0,-242.0,-48.0,-35.0,83.0,-9.0,1
31.0,-240.0,-52.0,-30.0,132.0,7.0,1
28.0,-237.0,-57.0,-22.0,174.0,24.0,1
23.0,-229.0,-55.0,-16.0,213.0,43.0,1
20.0,-227.0,-51.0,-10.0,258.0,62.0,1
16.0,-225.0,-55.0,-7.0,290.0,79.0,1
12.0,-219.0,-51.0,-4.0,314.0,98.0,1
3.0,-220.0,-45.0,1.0,334.0,116.0,1
-2.0,-220.0,-40.0,9.0,355.0,136.0,1
-3.0,-227.0,-34.0,18.0,378.0,154.0,1
-9.0,-229.0,-30.0,29.0,404.0,166.0,1
-10.0,-230.0,-22.0,36.0,427.0,170.0,1
-11.0,-231.0,-22.0,33.0,443.0,176.0,1
-13.0,-231.0,-17.0,23.0,454.0,178.0,1
-11.0,-228.0,-13.0,13.0,458.0,180.0,1
-13.0,-228.0,-15.0,2.0,455.0,181.0,1
-12.0,-228.0,-12.0,-6.0,458.0,180.0,1
-12.0,-224.0,-15.0,-17.0,465.0,176.0,1
-10.0,-225.0,-16.0,-23.0,473.0,174.0,1
-10.0,-224.0,-21.0,-35.0,504.0,158.0,1
-12.0,-228.0,-18.0,-45.0,537.0,146.0,1
-14.0,-227.0,-18.0,-48.0,565.0,138.0,1
-19.0,-227.0,-15.0,-50.0,587.0,138.0,1
-22.0,-227.0,-18.0,-52.0,607.0,137.0,1
-27.0,-226.0,-20.0,-54.0,624.0,141.0,1
-28.0,-229.0,-18.0,-52.0,638.0,140.0,1
-32.0,-229.0,-18.0,-48.0,647.0,142.0,1
-39.0,-232.0,-19.0,-43.0,656.0,139.0,1
-45.0,-234.0,-16.0,-38.0,659.0,136.0,1
-46.0,-234.0,-14.0,-34.0,660.0,128.0,1
-45.0,-237.0,-11.0,-28.0,656.0,120.0,1
-52.0,-234.0,-8.0,-23.0,650.0,105.0,1
-52.0,-238.0,-3.0,-23.0,641.0,95.0,1
-54.0,-241.0,2.0,-22.0,633.0,79.0,1
-54.0,-241.0,6.0,-18.0,622.0,65.0,1
-50.0,-242.0,12.0,-14.0,609.0,44.0,1
-51.0,-241.0,15.0,-9.0,596.0,26.0,1
-49.0,-241.0,22.0,0.0,582.0,5.0,1
-46.0,-242.0,24.0,9.0,570.0,-12.0,1
-48.0,-239.0,25.0,20.0,560.0,-32.0,1
-48.0,-238.0,23.0,29.0,550.0,-46.0,1
-44.0,-235.0,23.0,36.0,540.0,-62.0,1
-43.0,-238.0,24.0,46.0,531.0,-72.0,1
-44.0,-237.0,22.0,57.0,519.0,-87.0,1
-43.0,-238.0,20.0,67.0,501.0,-99.0,1
-43.0,-240.0,19.0,73.0,471.0,-121.0,1
-40.0,-242.0,17.0,77.0,441.0,-138.0,1
-39.0,-245.0,15.0,74.0,408.0,-161.0,1
-39.0,-245.0,10.0,69.0,375.0,-181.0,1
-35.0,-245.0,12.0,62.0,343.0,-208.0,1
-33.0,-245.0,11.0,54.0,316.0,-230.0,1
-31.0,-248.0,8.0,48.0,295.0,-257.0,1
-28.0,-247.0,10.0,48.0,282.0,-278.0,1
-25.0,-253.0,8.0,55.0,276.0,-303.0,1
-26.0,-262.0,10.0,69.0,276.0,-318.0,1
-25.0,-273.0,9.0,84.0,278.0,-334.0,1
-28.0,-284.0,16.0,107.0,284.0,-336.0,1
-29.0,-298.0,15.0,129.0,293.0,-332.0,1
-30.0,-309.0,21.0,150.0,303.0,-318.0,1
-29.0,-315.0,24.0,171.0,313.0,-301.0,1
-30.0,-320.0,27.0,196.0,319.0,-275.0,1
-27.0,-318.0,29.0,218.0,320.0,-249.0,1
-26.0,-316.0,37.0,243.0,314.0,-216.0,1
-26.0,-308.0,37.0,272.0,301.0,-188.0,1
-22.0,-300.0,45.0,310.0,288.0,-158.0,1
-17.0,-296.0,57.0,358.0,278.0,-135.0,1
-12.0,-288.0,71.0,413.0,275.0,-104.0,1
-10.0,-286.0,78.0,483.0,282.0,-87.0,1
-3.0,-283.0,83.0,538.0,296.0,-72.0,1
13.0,-289.0,94.0,585.0,311.0,-61.0,1
34.0,-304.0,102.0,631.0,329.0,-45.0,1
23.0,-329.0,98.0,701.0,351.0,-15.0,1
2.0,-360.0,74.0,779.0,358.0,35.0,1
-8.0,-393.0,45.0,812.0,339.0,74.0,1
-13.0,-407.0,15.0,753.0,317.0,113.0,1
-29.0,-429.0,-22.0,588.0,304.0,140.0,1
-50.0,-424.0,-65.0,360.0,299.0,172.0,1
-70.0,-397.0,-104.0,83.0,303.0,201.0,1
-78.0,-346.0,-131.0,-90.0,300.0,228.0,1
-84.0,-288.0,-142.0,-174.0,262.0,235.0,1
-78.0,-230.0,-148.0,-172.0,188.0,232.0,1
-67.0,-191.0,-148.0,-104.0,119.0,217.0,1
-51.0,-173.0,-145.0,-9.0,76.0,209.0,1
-31.0,-158.0,-143.0,69.0,63.0,205.0,1
-13.0,-157.0,-137.0,117.0,76.0,205.0,1
-3.0,-163.0,-130.0,142.0,109.0,210.0,1
12.0,-173.0,-122.0,159.0,169.0,221.0,1
19.0,-194.0,-104.0,169.0,266.0,229.0,1
27.0,-220.0,-93.0,175.0,352.0,239.0,1
26.0,-243.0,-71.0,173.0,427.0,241.0,1
25.0,-259.0,-66.0,166.0,492.0,241.0,1
20.0,-270.0,-53.0,155.0,540.0,228.0,1
14.0,-281.0,-43.0,140.0,566.0,214.0,1
6.0,-281.0,-39.0,120.0,558.0,192.0,1
2.0,-278.0,-31.0,97.0,505.0,174.0,1
-10.0,-268.0,-32.0,66.0,409.0,152.0,1
-19.0,-261.0,-29.0,25.0,276.0,132.0,1
-26.0,-253.0,-37.0,-22.0,87.0,104.0,1
-38.0,-251.0,-39.0,-81.0,-79.0,82.0,1
-52.0,-245.0,-37.0,-126.0,-238.0,56.0,1
-58.0,-244.0,-38.0,-162.0,-391.0,38.0,1
-70.0,-238.0,-34.0,-195.0,-525.0,19.0,1
-77.0,-236.0,-31.0,-220.0,-639.0,7.0,1
-84.0,-233.0,-35.0,-234.0,-731.0,2.0,1
-87.0,-232.0,-31.0,-245.0,-800.0,0.0,1
-83.0,-227.0,-38.0,-249.0,-844.0,-1.0,1
-90.0,-225.0,-34.0,-246.0,-863.0,-2.0,1
-82.0,-222.0,-36.0,-241.0,-869.0,4.0,1
-78.0,-218.0,-34.0,-229.0,-854.0,11.0,1
-73.0,-212.0,-32.0,-211.0,-826.0,13.0,1
-66.0,-210.0,-25.0,-188.0,-787.0,16.0,1
-58.0,-209.0,-23.0,-160.0,-740.0,9.0,1
-48.0,-207.0,-23.0,-134.0,-702.0,6.0,1
-39.0,-205.0,-19.0,-124.0,-663.0,-3.0,1
-29.0,-208.0,-19.0,-131.0,-628.0,-12.0,1
-18.0,-207.0,-14.0,-152.0,-604.0,-26.0,1
-17.0,-210.0,-4.0,-181.0,-599.0,-37.0,1
-8.0,-212.0,-9.0,-198.0,-610.0,-40.0,1
-2.0,-215.0,-8.0,-216.0,-629.0,-37.0,1
9.0,-216.0,-11.0,-240.0,-660.0,-37.0,1
15.0,-221.0,-12.0,-268.0,-690.0,-37.0,1
21.0,-228.0,-23.0,-289.0,-712.0,-41.0,1
20.0,-224.0,-18.0,-308.0,-722.0,-56.0,1
14.0,-220.0,-22.0,-328.0,-729.0,-73.0,1
17.0,-223.0,-20.0,-355.0,-751.0,-86.0,1
21.0,-224.0,-23.0,-379.0,-780.0,-90.0,1
18.0,-222.0,-17.0,-403.0,-793.0,-106.0,1
13.0,-227.0,-16.0,-414.0,-805.0,-122.0,1
12.0,-227.0,-17.0,-405.0,-827.0,-121.0,1
13.0,-227.0,-15.0,-387.0,-831.0,-119.0,1
17.0,-230.0,-20.0,-373.0,-820.0,-123.0,1
17.0,-230.0,-20.0,-362.0,-795.0,-131.0,1
19.0,-230.0,-14.0,-351.0,-763.0,-132.0,1
20.0,-234.0,-13.0,-338.0,-732.0,-136.0,1
28.0,-232.0,-3.0,-322.0,-704.0,-138.0,1
12.0,-232.0,0.0,-301.0,-667.0,-146.0,1
14.0,-237.0,-3.0,-273.0,-641.0,-130.0,1
14.0,-236.0,-3.0,-255.0,-612.0,-109.0,1
16.0,-241.0,2.0,-246.0,-585.0,-81.0,1
26.0,-244.0,4.0,-238.0,-547.0,-63.0,1
23.0,-245.0,9.0,-228.0,-500.0,-57.0,1
17.0,-244.0,12.0,-212.0,-460.0,-45.0,1
15.0,-245.0,17.0,-207.0,-445.0,-16.0,1
24.0,-247.0,16.0,-202.0,-434.0,18.0,1
10.0,-248.0,16.0,-184.0,-397.0,18.0,1
6.0,-252.0,17.0,-171.0,-393.0,46.0,1
8.0,-257.0,18.0,-172.0,-393.0,73.0,1
10.0,-257.0,23.0,-171.0,-387.0,99.0,1
12.0,-258.0,25.0,-168.0,-379.0,123.0,1
9.0,-260.0,23.0,-158.0,-368.0,150.0,1
12.0,-261.0,22.0,-147.0,-359.0,166.0,1
16.0,-260.0,26.0,-135.0,-349.0,177.0,1
15.0,-261.0,26.0,-118.0,-336.0,179.0,1
21.0,-265.0,27.0,-98.0,-325.0,177.0,1
27.0,-272.0,25.0,-77.0,-308.0,170.0,1
33.0,-275.0,20.0,-57.0,-281.0,160.0,1
37.0,-276.0,11.0,-47.0,-249.0,142.0,1
43.0,-279.0,6.0,-44.0,-209.0,123.0,1
46.0,-286.0,8.0,-49.0,-167.0,95.0,1
47.0,-288.0,4.0,-57.0,-122.0,66.0,1
42.0,-293.0,5.0,-68.0,-90.0,38.0,1
39.0,-298.0,5.0,-74.0,-64.0,15.0,1
36.0,-307.0,8.0,-75.0,-44.0,-9.0,1
26.0,-310.0,12.0,-65.0,-34.0,-23.0,1
21.0,-319.0,21.0,-42.0,-33.0,-39.0,1
11.0,-319.0,26.0,-4.0,-41.0,-47.0,1
6.0,-318.0,31.0,45.0,-54.0,-58.0,1
2.0,-314.0,37.0,97.0,-68.0,-62.0,1
-1.0,-306.0,42.0,152.0,-87.0,-68.0,1
-8.0,-294.0,48.0,202.0,-108.0,-71.0,1
-10.0,-288.0,57.0,253.0,-137.0,-75.0,1
-14.0,-272.0,62.0,291.0,-163.0,-70.0,1
-23.0,-266.0,64.0,320.0,-189.0,-68.0,1
-33.0,-269.0,64.0,339.0,-222.0,-64.0,1
-35.0,-274.0,55.0,343.0,-274.0,-77.0,1
-38.0,-301.0,60.0,350.0,-322.0,-97.0,1
-43.0,-333.0,52.0,405.0,-379.0,-103.0,1
-45.0,-363.0,25.0,458.0,-475.0,-92.0,1
-40.0,-401.0,1.0,440.0,-578.0,-90.0,1
-30.0,-416.0,-42.0,345.0,-647.0,-112.0,1
-11.0,-413.0,-76.0,165.0,-653.0,-159.0,1
9.0,-392.0,-101.0,21.0,-583.0,-222.0,1
24.0,-368.0,-110.0,-75.0,-453.0,-302.0,1
34.0,-326.0,-105.0,-121.0,-305.0,-364.0,1
41.0,-286.0,-106.0,-129.0,-185.0,-403.0,1
30.0,-251.0,-104.0,-110.0,-98.0,-414.0,1
9.0,-224.0,-112.0,-79.0,-34.0,-408.0,1
-22.0,-199.0,-122.0,-58.0,10.0,-379.0,1
-51.0,-183.0,-127.0,-54.0,42.0,-348.0,1
-67.0,-174.0,-129.0,-56.0,53.0,-310.0,1
-84.0,-165.0,-129.0,-43.0,27.0,-263.0,1
-100.0,-172.0,-119.0,13.0,-30.0,-218.0,1
-107.0,-183.0,-104.0,84.0,-110.0,-177.0,1
-110.0,-197.0,-88.0,152.0,-203.0,-136.0,1
-106.0,-216.0,-72.0,205.0,-301.0,-107.0,1
-98.0,-237.0,-58.0,235.0,-394.0,-83.0,1
-80.0,-248.0,-48.0,234.0,-473.0,-71.0,1
-75.0,-253.0,-39.0,201.0,-527.0,-63.0,1
-53.0,-256.0,-30.0,145.0,-555.0,-61.0,1
-35.0,-260.0,-20.0,80.0,-552.0,-56.0,1
-17.0,-260.0,-13.0,17.0,-528.0,-54.0,1
-10.0,-254.0,-2.0,-38.0,-480.0,-45.0,1
18.0,-259.0,-4.0,-64.0,-431.0,-41.0,1
32.0,-259.0,-15.0,-78.0,-374.0,-32.0,1
41.0,-255.0,-1.0,-94.0,-304.0,-27.0,1
51.0,-248.0,-21.0,-109.0,-223.0,-19.0,1
55.0,-248.0,-33.0,-119.0,-135.0,-14.0,1
57.0,-247.0,-38.0,-130.0,-45.0,-3.0,1
53.0,-247.0,-42.0,-136.0,43.0,5.0,1
63.0,-242.0,-60.0,-140.0,128.0,18.0,1
53.0,-237.0,-58.0,-162.0,229.0,14.0,1
45.0,-230.0,-65.0,-189.0,325.0,27.0,1
32.0,-226.0,-64.0,-198.0,382.0,40.0,1
20.0,-220.0,-62.0,-189.0,420.0,64.0,1
-3.0,-216.0,-54.0,-157.0,436.0,93.0,1
2.0,-216.0,-55.0,-93.0,428.0,137.0,1
3.0,-215.0,-58.0,-49.0,443.0,148.0,1
-3.0,-214.0,-49.0,-32.0,481.0,138.0,1
-14.0,-213.0,-34.0,-33.0,496.0,120.0,1
-20.0,-213.0,-22.0,-41.0,487.0,116.0,1
-17.0,-217.0,-17.0,-39.0,464.0,121.0,1
-18.0,-220.0,-9.0,-34.0,454.0,127.0,1
-11.0,-223.0,-9.0,-37.0,453.0,122.0,1
-8.0,-227.0,-8.0,-52.0,468.0,111.0,1
-8.0,-227.0,-10.0,-75.0,499.0,103.0,1
-9.0,-226.0,-3.0,-103.0,523.0,111.0,1
-7.0,-225.0,-2.0,-122.0,530.0,123.0,1
-18.0,-228.0,1.0,-130.0,544.0,135.0,1
0.0,-228.0,-18.0,-99.0,547.0,172.0,1
-4.0,-225.0,-22.0,-104.0,601.0,168.0,1
-7.0,-221.0,-15.0,-137.0,657.0,149.0,1
-12.0,-221.0,-21.0,-162.0,696.0,140.0,1
-19.0,-219.0,-17.0,-169.0,727.0,138.0,1
-21.0,-222.0,-17.0,-157.0,750.0,140.0,1
-25.0,-223.0,-17.0,-138.0,775.0,139.0,1
-28.0,-227.0,-17.0,-109.0,794.0,142.0,1
-29.0,-228.0,-12.0,-82.0,803.0,140.0,1
-27.0,-229.0,-16.0,-61.0,805.0,136.0,1
-32.0,-231.0,-6.0,-47.0,800.0,129.0,1
-36.0,-230.0,-2.0,-39.0,785.0,122.0,1
-37.0,-229.0,4.0,-36.0,764.0,111.0,1
-41.0,-230.0,8.0,-37.0,735.0,99.0,1
-40.0,-231.0,11.0,-38.0,694.0,83.0,1
-43.0,-232.0,16.0,-35.0,655.0,71.0,1
-42.0,-234.0,24.0,-27.0,618.0,54.0,1
-42.0,-236.0,27.0,-16.0,581.0,38.0,1
-40.0,-234.0,24.0,-4.0,547.0,18.0,1
-40.0,-236.0,28.0,11.0,516.0,1.0,1
-43.0,-237.0,25.0,30.0,489.0,-19.0,1
-42.0,-242.0,23.0,49.0,461.0,-38.0,1
-48.0,-242.0,21.0,64.0,436.0,-56.0,1
-50.0,-247.0,19.0,72.0,412.0,-73.0,1
-52.0,-245.0,15.0,75.0,378.0,-92.0,1
-49.0,-251.0,15.0,70.0,348.0,-106.0,1
-51.0,-253.0,13.0,65.0,314.0,-124.0,1
-52.0,-252.0,15.0,59.0,280.0,-140.0,1
-52.0,-251.0,9.0,55.0,243.0,-157.0,1
-56.0,-251.0,8.0,54.0,213.0,-170.0,1
-57.0,-250.0,4.0,51.0,184.0,-182.0,1
-61.0,-249.0,3.0,50.0,155.0,-191.0,1
-65.0,-256.0,-1.0,43.0,123.0,-194.0,1
-70.0,-262.0,-4.0,32.0,90.0,-190.0,1
-72.0,-276.0,-3.0,16.0,50.0,-176.0,1
-69.0,-290.0,-2.0,-3.0,27.0,-155.0,1
-66.0,-310.0,6.0,-11.0,11.0,-133.0,1
-59.0,-321.0,10.0,-3.0,5.0,-109.0,1
-49.0,-329.0,20.0,15.0,6.0,-86.0,1
-40.0,-335.0,31.0,39.0,10.0,-64.0,1
-32.0,-330.0,42.0,61.0,13.0,-46.0,1
-20.0,-321.0,56.0,86.0,13.0,-32.0,1
-11.0,-310.0,71.0,113.0,11.0,-22.0,1
1.0,-292.0,83.0,145.0,12.0,-17.0,1
11.0,-285.0,93.0,187.0,21.0,-16.0,1
21.0,-277.0,96.0,247.0,43.0,-17.0,1
28.0,-276.0,93.0,295.0,67.0,-17.0,1
54.0,-287.0,101.0,334.0,85.0,-14.0,1
57.0,-311.0,96.0,427.0,123.0,12.0,1
32.0,-362.0,81.0,558.0,171.0,67.0,1
22.0,-409.0,56.0,701.0,194.0,136.0,1
21.0,-442.0,4.0,787.0,222.0,191.0,1
22.0,-450.0,-59.0,739.0,277.0,228.0,1
12.0,-438.0,-105.0,524.0,347.0,245.0,1
-14.0,-404.0,-125.0,221.0,402.0,268.0,1
-52.0,-352.0,-121.0,-60.0,395.0,281.0,1
-78.0,-289.0,-111.0,-123.0,306.0,289.0,1
-84.0,-236.0,-109.0,-80.0,183.0,298.0,1
-90.0,-200.0,-105.0,-14.0,85.0,311.0,1
-84.0,-180.0,-109.0,45.0,32.0,336.0,1
-68.0,-170.0,-110.0,94.0,17.0,366.0,1
-48.0,-166.0,-119.0,132.0,36.0,390.0,1
-26.0,-170.0,-121.0,155.0,78.0,411.0,1
-7.0,-176.0,-120.0,169.0,140.0,427.0,1
13.0,-192.0,-107.0,186.0,208.0,441.0,1
30.0,-213.0,-97.0,211.0,299.0,445.0,1
45.0,-239.0,-82.0,238.0,373.0,447.0,1
50.0,-262.0,-74.0,242.0,434.0,442.0,1
58.0,-279.0,-63.0,230.0,478.0,435.0,1
54.0,-286.0,-58.0,208.0,504.0,421.0,1
49.0,-292.0,-56.0,175.0,503.0,404.0,1
41.0,-289.0,-50.0,127.0,475.0,376.0,1
31.0,-282.0,-46.0,64.0,418.0,344.0,1
15.0,-272.0,-42.0,-1.0,334.0,302.0,1
1.0,-260.0,-43.0,-61.0,231.0,265.0,1
-17.0,-249.0,-39.0,-110.0,99.0,215.0,1
-33.0,-241.0,-37.0,-159.0,-3.0,176.0,1
-49.0,-231.0,-36.0,-197.0,-89.0,136.0,1
-60.0,-223.0,-35.0,-228.0,-151.0,98.0,1
-77.0,-216.0,-35.0,-249.0,-196.0,64.0,1
-81.0,-213.0,-33.0,-264.0,-231.0,43.0,1
-90.0,-208.0,-35.0,-275.0,-257.0,25.0,1
-87.0,-207.0,-36.0,-277.0,-277.0,15.0,1
-89.0,-202.0,-31.0,-271.0,-285.0,1.0,1
-84.0,-205.0,-27.0,-249.0,-295.0,-10.0,1
-77.0,-201.0,-25.0,-224.0,-315.0,-19.0,1
-72.0,-202.0,-25.0,-195.0,-338.0,-18.0,1
-57.0,-202.0,-17.0,-174.0,-355.0,-24.0,1
-56.0,-202.0,-12.0,-151.0,-368.0,-38.0,1
-50.0,-204.0,-7.0,-134.0,-399.0,-48.0,1
-40.0,-202.0,-10.0,-128.0,-433.0,-50.0,1
-18.0,-212.0,-15.0,-126.0,-461.0,-59.0,1
-22.0,-215.0,-8.0,-143.0,-469.0,-89.0,1
-19.0,-220.0,-9.0,-143.0,-487.0,-92.0,1
-9.0,-219.0,-16.0,-150.0,-523.0,-75.0,1
-11.0,-214.0,-13.0,-187.0,-565.0,-86.0,1
-2.0,-222.0,-8.0,-237.0,-641.0,-105.0,1
10.0,-222.0,-9.0,-284.0,-698.0,-106.0,1
-3.0,-224.0,-5.0,-309.0,-726.0,-116.0,1
5.0,-229.0,-7.0,-315.0,-768.0,-89.0,1
1.0,-225.0,-10.0,-321.0,-798.0,-70.0,1
8.0,-229.0,-11.0,-327.0,-823.0,-72.0,1
14.0,-227.0,-15.0,-335.0,-835.0,-81.0,1
6.0,-225.0,-10.0,-337.0,-829.0,-110.0,1
6.0,-225.0,-16.0,-323.0,-826.0,-112.0,1
12.0,-226.0,-18.0,-310.0,-814.0,-115.0,1
13.0,-224.0,-15.0,-299.0,-795.0,-114.0,1
15.0,-223.0,-12.0,-278.0,-766.0,-117.0,1
23.0,-226.0,-7.0,-257.0,-741.0,-114.0,1
23.0,-232.0,-9.0,-234.0,-713.0,-113.0,1
26.0,-234.0,-9.0,-207.0,-685.0,-101.0,1
28.0,-242.0,-7.0,-180.0,-652.0,-94.0,1
30.0,-245.0,-2.0,-163.0,-609.0,-96.0,1
31.0,-247.0,3.0,-162.0,-560.0,-101.0,1
32.0,-250.0,3.0,-164.0,-515.0,-97.0,1
31.0,-251.0,6.0,-172.0,-468.0,-102.0,1
55.0,-252.0,10.0,-174.0,-428.0,-97.0,1
17.0,-251.0,11.0,-151.0,-358.0,-132.0,1
22.0,-254.0,9.0,-124.0,-341.0,-91.0,1
25.0,-254.0,11.0,-111.0,-336.0,-53.0,1
26.0,-256.0,11.0,-107.0,-315.0,-23.0,1
27.0,-256.0,12.0,-93.0,-285.0,1.0,1
23.0,-255.0,12.0,-68.0,-259.0,22.0,1
24.0,-257.0,15.0,-46.0,-236.0,37.0,1
20.0,-258.0,16.0,-21.0,-220.0,59.0,1
17.0,-260.0,14.0,5.0,-204.0,77.0,1
18.0,-261.0,14.0,32.0,-187.0,97.0,1
18.0,-262.0,17.0,60.0,-163.0,112.0,1
19.0,-266.0,14.0,89.0,-143.0,125.0,1
24.0,-269.0,14.0,103.0,-125.0,128.0,1
25.0,-269.0,10.0,107.0,-114.0,129.0,1
27.0,-271.0,13.0,106.0,-106.0,119.0,1
30.0,-271.0,8.0,103.0,-105.0,108.0,1
29.0,-275.0,8.0,96.0,-104.0,90.0,1
26.0,-281.0,5.0,90.0,-105.0,78.0,1
23.0,-287.0,1.0,88.0,-106.0,61.0,1
18.0,-291.0,1.0,88.0,-112.0,49.0,1
12.0,-296.0,8.0,94.0,-120.0,32.0,1
10.0,-306.0,13.0,111.0,-139.0,21.0,1
6.0,-318.0,18.0,132.0,-156.0,3.0,1
5.0,-322.0,20.0,154.0,-175.0,-12.0,1
7.0,-322.0,27.0,179.0,-187.0,-31.0,1
6.0,-320.0,37.0,203.0,-193.0,-48.0,1
10.0,-309.0,36.0,229.0,-190.0,-69.0,1
10.0,-299.0,48.0,261.0,-182.0,-90.0,1
7.0,-287.0,53.0,300.0,-168.0,-115.0,1
2.0,-272.0,60.0,342.0,-154.0,-132.0,1
-2.0,-260.0,67.0,387.0,-143.0,-149.0,1
-8.0,-257.0,59.0,424.0,-132.0,-158.0,1
-27.0,-260.0,62.0,435.0,-146.0,-175.0,1
-34.0,-276.0,52.0,414.0,-190.0,-194.0,1
-44.0,-310.0,52.0,416.0,-221.0,-214.0,1
-46.0,-346.0,39.0,468.0,-267.0,-210.0,1
-43.0,-375.0,24.0,496.0,-347.0,-208.0,1
-32.0,-404.0,0.0,456.0,-432.0,-226.0,1
-16.0,-408.0,-38.0,361.0,-487.0,-271.0,1
5.0,-397.0,-75.0,236.0,-493.0,-328.0,1
24.0,-368.0,-107.0,108.0,-446.0,-396.0,1
39.0,-328.0,-119.0,1.0,-333.0,-472.0,1
51.0,-290.0,-114.0,-80.0,-213.0,-523.0,1
48.0,-254.0,-111.0,-100.0,-83.0,-550.0,1
39.0,-230.0,-105.0,-93.0,49.0,-559.0,1
18.0,-206.0,-108.0,-82.0,166.0,-549.0,1
-8.0,-192.0,-111.0,-89.0,260.0,-531.0,1
-34.0,-175.0,-105.0,-113.0,319.0,-501.0,1
-62.0,-164.0,-103.0,-130.0,338.0,-471.0,1
-82.0,-165.0,-97.0,-129.0,315.0,-434.0,1
-104.0,-172.0,-92.0,-97.0,254.0,-392.0,1
-112.0,-184.0,-92.0,-43.0,157.0,-333.0,1
-121.0,-202.0,-80.0,28.0,17.0,-288.0,1
-124.0,-225.0,-66.0,75.0,-102.0,-245.0,1
-122.0,-242.0,-56.0,108.0,-217.0,-207.0,1
-114.0,-260.0,-44.0,124.0,-319.0,-176.0,1
-99.0,-269.0,-33.0,116.0,-404.0,-151.0,1
-85.0,-275.0,-23.0,91.0,-467.0,-130.0,1
-68.0,-278.0,-14.0,57.0,-507.0,-110.0,1
-55.0,-275.0,-10.0,24.0,-522.0,-86.0,1
-36.0,-270.0,-10.0,-2.0,-517.0,-62.0,1
-16.0,-263.0,-9.0,-18.0,-487.0,-40.0,1
1.0,-261.0,-8.0,-35.0,-424.0,-15.0,1
13.0,-253.0,-11.0,-52.0,-351.0,4.0,1
21.0,-252.0,-19.0,-63.0,-266.0,20.0,1
28.0,-251.0,-25.0,-71.0,-173.0,37.0,1
38.0,-250.0,-37.0,-84.0,-73.0,52.0,1
43.0,-248.0,-37.0,-105.0,30.0,66.0,1
51.0,-252.0,-49.0,-132.0,126.0,79.0,1
51.0,-247.0,-53.0,-158.0,220.0,86.0,1
54.0,-240.0,-57.0,-190.0,317.0,94.0,1
54.0,-235.0,-61.0,-218.0,411.0,97.0,1
52.0,-231.0,-58.0,-235.0,515.0,102.0,1
47.0,-224.0,-57.0,-236.0,598.0,100.0,1
41.0,-221.0,-57.0,-232.0,679.0,99.0,1
22.0,-213.0,-47.0,-220.0,745.0,109.0,1
32.0,-213.0,-47.0,-165.0,772.0,151.0,1
35.0,-213.0,-45.0,-139.0,821.0,155.0,1
27.0,-213.0,-33.0,-145.0,878.0,135.0,1
20.0,-215.0,-25.0,-153.0,916.0,119.0,1
10.0,-213.0,-17.0,-166.0,936.0,113.0,1
11.0,-211.0,-16.0,-189.0,930.0,108.0,1
5.0,-213.0,-11.0,-213.0,913.0,94.0,1
-1.0,-210.0,-11.0,-236.0,891.0,81.0,1
-49.0,-213.0,25.0,-238.0,851.0,101.0,1
-1.0,-207.0,-18.0,-171.0,779.0,183.0,1
13.0,-212.0,-32.0,-188.0,804.0,176.0,1
-1.0,-214.0,-23.0,-247.0,854.0,129.0,1
-21.0,-214.0,-12.0,-287.0,886.0,101.0,1
-10.0,-221.0,-26.0,-278.0,893.0,112.0,1
-14.0,-221.0,-23.0,-262.0,913.0,122.0,1
-14.0,-223.0,-21.0,-255.0,935.0,126.0,1
-20.0,-230.0,-24.0,-247.0,960.0,139.0,1
-26.0,-234.0,-22.0,-231.0,987.0,150.0,1
-33.0,-238.0,-20.0,-211.0,1000.0,165.0,1
-37.0,-238.0,-12.0,-186.0,997.0,188.0,1
-26.0,-239.0,-25.0,-151.0,984.0,211.0,1
-28.0,-242.0,-24.0,-155.0,987.0,199.0,1
-36.0,-239.0,-20.0,-173.0,987.0,181.0,1
-42.0,-239.0,-12.0,-186.0,970.0,162.0,1
-46.0,-237.0,-4.0,-192.0,940.0,150.0,1
-46.0,-243.0,0.0,-193.0,907.0,132.0,1
-48.0,-242.0,4.0,-190.0,875.0,116.0,1
-48.0,-242.0,9.0,-184.0,840.0,90.0,1
-49.0,-245.0,14.0,-174.0,809.0,73.0,1
-46.0,-243.0,14.0,-163.0,783.0,52.0,1
-47.0,-242.0,18.0,-149.0,757.0,35.0,1
-48.0,-243.0,20.0,-135.0,734.0,16.0,1
-48.0,-240.0,20.0,-121.0,711.0,-2.0,1
-46.0,-243.0,22.0,-108.0,688.0,-23.0,1
-50.0,-242.0,26.0,-99.0,666.0,-39.0,1
-49.0,-242.0,29.0,-90.0,638.0,-61.0,1
-54.0,-245.0,30.0,-81.0,605.0,-76.0,1
-53.0,-251.0,27.0,-72.0,555.0,-97.0,1
-58.0,-254.0,24.0,-72.0,504.0,-109.0,1
-60.0,-255.0,20.0,-82.0,445.0,-124.0,1
-61.0,-257.0,16.0,-101.0,380.0,-132.0,1
-64.0,-255.0,13.0,-115.0,313.0,-142.0,1
-69.0,-255.0,14.0,-123.0,241.0,-146.0,1
-75.0,-255.0,8.0,-121.0,165.0,-150.0,1
-84.0,-253.0,8.0,-119.0,85.0,-142.0,1
-93.0,-259.0,0.0,-120.0,9.0,-131.0,1
-96.0,-265.0,-6.0,-126.0,-62.0,-113.0,1
-97.0,-275.0,-6.0,-135.0,-125.0,-93.0,1
-89.0,-287.0,-9.0,-139.0,-187.0,-75.0,1
-82.0,-298.0,7.0,-124.0,-220.0,-65.0,1
-71.0,-309.0,15.0,-84.0,-239.0,-54.0,1
-58.0,-315.0,21.0,-29.0,-249.0,-51.0,1
-44.0,-321.0,27.0,29.0,-253.0,-46.0,1
-27.0,-318.0,35.0,81.0,-252.0,-50.0,1
-12.0,-311.0,43.0,124.0,-249.0,-54.0,1
-3.0,-302.0,45.0,159.0,-245.0,-67.0,1
12.0,-296.0,45.0,192.0,-249.0,-77.0,1
17.0,-284.0,50.0,223.0,-246.0,-95.0,1
24.0,-279.0,58.0,270.0,-225.0,-104.0,1
29.0,-274.0,66.0,315.0,-193.0,-112.0,1
29.0,-275.0,76.0,362.0,-148.0,-112.0,1
28.0,-271.0,91.0,417.0,-105.0,-107.0,1
53.0,-288.0,84.0,476.0,-65.0,-88.0,1
63.0,-306.0,98.0,537.0,-7.0,-80.0,1
44.0,-336.0,83.0,626.0,61.0,-47.0,1
23.0,-373.0,69.0,705.0,104.0,-11.0,1
17.0,-403.0,28.0,738.0,134.0,34.0,1
15.0,-418.0,-7.0,678.0,174.0,59.0,1
5.0,-426.0,-63.0,504.0,211.0,63.0,1
-27.0,-413.0,-108.0,204.0,203.0,59.0,1
-58.0,-374.0,-129.0,-25.0,158.0,71.0,1
-87.0,-322.0,-130.0,-152.0,85.0,84.0,1
-102.0,-266.0,-136.0,-171.0,-20.0,115.0,1
-108.0,-221.0,-132.0,-111.0,-135.0,140.0,1
-100.0,-189.0,-131.0,-7.0,-229.0,170.0,1
-92.0,-177.0,-124.0,93.0,-282.0,200.0,1
-72.0,-171.0,-127.0,165.0,-304.0,239.0,1
-45.0,-171.0,-129.0,206.0,-306.0,263.0,1
-22.0,-173.0,-124.0,219.0,-278.0,280.0,1
-1.0,-185.0,-118.0,213.0,-226.0,279.0,1
19.0,-199.0,-108.0,205.0,-147.0,275.0,1
39.0,-220.0,-96.0,190.0,-59.0,259.0,1
50.0,-233.0,-85.0,172.0,30.0,241.0,1
62.0,-259.0,-75.0,146.0,113.0,217.0,1
65.0,-271.0,-65.0,123.0,187.0,191.0,1
63.0,-286.0,-58.0,99.0,248.0,159.0,1
57.0,-290.0,-53.0,79.0,288.0,130.0,1
46.0,-282.0,-50.0,59.0,304.0,102.0,1
31.0,-271.0,-53.0,38.0,291.0,73.0,1
15.0,-261.0,-43.0,8.0,232.0,47.0,1
2.0,-255.0,-48.0,-17.0,151.0,29.0,1
-12.0,-247.0,-46.0,-45.0,50.0,7.0,1
-27.0,-240.0,-47.0,-77.0,-63.0,-11.0,1
-44.0,-235.0,-44.0,-107.0,-179.0,-34.0,1
-66.0,-234.0,-43.0,-133.0,-293.0,-53.0,1
-78.0,-232.0,-45.0,-155.0,-405.0,-68.0,1
-90.0,-231.0,-41.0,-170.0,-510.0,-73.0,1
-99.0,-230.0,-38.0,-180.0,-607.0,-76.0,1
-101.0,-229.0,-40.0,-187.0,-696.0,-72.0,1
-111.0,-226.0,-39.0,-187.0,-783.0,-70.0,1
-110.0,-224.0,-37.0,-185.0,-846.0,-58.0,1
-104.0,-223.0,-34.0,-182.0,-888.0,-48.0,1
-91.0,-223.0,-32.0,-174.0,-907.0,-37.0,1
-79.0,-221.0,-27.0,-162.0,-906.0,-35.0,1
-66.0,-218.0,-27.0,-146.0,-890.0,-33.0,1
-50.0,-218.0,-20.0,-137.0,-856.0,-38.0,1
-38.0,-221.0,-15.0,-129.0,-811.0,-43.0,1
-23.0,-223.0,-8.0,-122.0,-770.0,-46.0,1
1.0,-219.0,-10.0,-108.0,-730.0,-48.0,1
1.0,-226.0,-2.0,-107.0,-674.0,-68.0,1
14.0,-226.0,-3.0,-118.0,-651.0,-73.0,1
23.0,-230.0,2.0,-122.0,-644.0,-72.0,1
27.0,-233.0,-4.0,-122.0,-643.0,-70.0,1
34.0,-228.0,-5.0,-140.0,-647.0,-76.0,1
43.0,-230.0,-11.0,-163.0,-652.0,-77.0,1
45.0,-232.0,-13.0,-182.0,-654.0,-85.0,1
48.0,-228.0,-18.0,-203.0,-643.0,-98.0,1
43.0,-228.0,-17.0,-227.0,-627.0,-112.0,1
38.0,-223.0,-16.0,-243.0,-620.0,-122.0,1
36.0,-218.0,-16.0,-252.0,-618.0,-133.0,1
34.0,-220.0,-15.0,-248.0,-619.0,-134.0,1
34.0,-225.0,-10.0,-239.0,-615.0,-139.0,1
38.0,-228.0,-10.0,-228.0,-602.0,-139.0,1
32.0,-230.0,-8.0,-210.0,-580.0,-140.0,1
30.0,-230.0,-8.0,-191.0,-549.0,-139.0,1
30.0,-230.0,-11.0,-172.0,-512.0,-136.0,1
35.0,-233.0,-8.0,-161.0,-466.0,-130.0,1
29.0,-230.0,-4.0,-164.0,-413.0,-129.0,1
31.0,-230.0,-1.0,-172.0,-367.0,-124.0,1
23.0,-227.0,6.0,-180.0,-327.0,-109.0,1
21.0,-224.0,5.0,-186.0,-288.0,-88.0,1
21.0,-222.0,9.0,-187.0,-258.0,-71.0,1
22.0,-223.0,8.0,-188.0,-227.0,-55.0,1
24.0,-225.0,8.0,-186.0,-201.0,-39.0,1
20.0,-224.0,9.0,-179.0,-173.0,-27.0,1
16.0,-224.0,10.0,-171.0,-151.0,-19.0,1
-2.0,-220.0,10.0,-158.0,-138.0,0.0,1
1.0,-225.0,8.0,-148.0,-141.0,37.0,1
1.0,-225.0,8.0,-146.0,-144.0,79.0,1
-1.0,-232.0,7.0,-152.0,-145.0,121.0,1
3.0,-235.0,9.0,-158.0,-140.0,151.0,1
-2.0,-237.0,6.0,-158.0,-136.0,175.0,1
-1.0,-241.0,6.0,-156.0,-137.0,197.0,1
1.0,-247.0,3.0,-154.0,-135.0,214.0,1
6.0,-251.0,-1.0,-146.0,-128.0,224.0,1
12.0,-254.0,-1.0,-135.0,-116.0,229.0,1
20.0,-260.0,-3.0,-122.0,-100.0,227.0,1
29.0,-268.0,-5.0,-113.0,-82.0,219.0,1
33.0,-267.0,-6.0,-106.0,-61.0,203.0,1
41.0,-276.0,-9.0,-102.0,-43.0,177.0,1
42.0,-278.0,-13.0,-95.0,-19.0,151.0,1
43.0,-281.0,-17.0,-91.0,6.0,124.0,1
40.0,-281.0,-16.0,-92.0,31.0,96.0,1
31.0,-285.0,-17.0,-93.0,52.0,70.0,1
25.0,-293.0,-11.0,-90.0,64.0,45.0,1
18.0,-300.0,-2.0,-83.0,70.0,26.0,1
7.0,-304.0,1.0,-71.0,68.0,12.0,1
-1.0,-313.0,8.0,-54.0,56.0,5.0,1
-12.0,-314.0,17.0,-34.0,35.0,2.0,1
-12.0,-315.0,26.0,-12.0,12.0,6.0,1
-14.0,-316.0,34.0,13.0,-14.0,9.0,1
-19.0,-305.0,44.0,36.0,-33.0,12.0,1
-13.0,-293.0,54.0,59.0,-49.0,10.0,1
-12.0,-286.0,58.0,87.0,-62.0,6.0,1
-10.0,-277.0,62.0,115.0,-71.0,-3.0,1
-12.0,-272.0,68.0,144.0,-81.0,-8.0,1
-11.0,-264.0,72.0,178.0,-88.0,-13.0,1
-11.0,-261.0,74.0,209.0,-91.0,-9.0,1
-8.0,-260.0,74.0,238.0,-95.0,-8.0,1
-12.0,-258.0,80.0,260.0,-99.0,-4.0,1
-20.0,-271.0,75.0,263.0,-125.0,-10.0,1
-24.0,-288.0,55.0,246.0,-181.0,-37.0,1
-30.0,-324.0,64.0,256.0,-226.0,-71.0,1
-34.0,-364.0,44.0,328.0,-271.0,-81.0,1
-31.0,-392.0,24.0,380.0,-340.0,-78.0,1
-32.0,-421.0,-2.0,334.0,-425.0,-84.0,1
-19.0,-425.0,-39.0,206.0,-503.0,-106.0,1
-3.0,-413.0,-78.0,41.0,-537.0,-146.0,1
15.0,-383.0,-103.0,-124.0,-516.0,-215.0,1
35.0,-340.0,-115.0,-244.0,-441.0,-281.0,1
44.0,-299.0,-109.0,-292.0,-310.0,-355.0,1
45.0,-269.0,-101.0,-248.0,-192.0,-391.0,1
42.0,-256.0,-102.0,-163.0,-82.0,-407.0,1
26.0,-229.0,-112.0,-87.0,17.0,-406.0,1
4.0,-217.0,-120.0,-54.0,103.0,-398.0,1
-19.0,-200.0,-125.0,-57.0,163.0,-379.0,1
-44.0,-192.0,-123.0,-69.0,190.0,-356.0,1
-74.0,-181.0,-122.0,-73.0,178.0,-319.0,1
-99.0,-179.0,-119.0,-59.0,124.0,-274.0,1
-114.0,-187.0,-111.0,-25.0,41.0,-215.0,1
-124.0,-195.0,-96.0,30.0,-79.0,-145.0,1
-131.0,-207.0,-82.0,108.0,-193.0,-89.0,1
-126.0,-224.0,-68.0,173.0,-310.0,-42.0,1
-112.0,-244.0,-61.0,220.0,-419.0,-3.0,1
-91.0,-257.0,-55.0,237.0,-500.0,22.0,1
-70.0,-262.0,-52.0,218.0,-540.0,39.0,1
-48.0,-258.0,-41.0,170.0,-547.0,44.0,1
-28.0,-262.0,-33.0,111.0,-524.0,49.0,1
-7.0,-259.0,-28.0,56.0,-474.0,49.0,1
14.0,-256.0,-17.0,10.0,-409.0,49.0,1
30.0,-250.0,-13.0,-18.0,-335.0,42.0,1
42.0,-250.0,-16.0,-27.0,-237.0,37.0,1
52.0,-250.0,-16.0,-16.0,-147.0,30.0,1
63.0,-252.0,-24.0,-2.0,-46.0,29.0,1
70.0,-255.0,-31.0,11.0,64.0,23.0,1
73.0,-253.0,-35.0,20.0,174.0,23.0,1
75.0,-256.0,-45.0,20.0,285.0,18.0,1
69.0,-256.0,-50.0,11.0,393.0,18.0,1
66.0,-254.0,-50.0,-6.0,491.0,15.0,1
56.0,-250.0,-53.0,-27.0,578.0,23.0,1
46.0,-239.0,-53.0,-45.0,645.0,38.0,1
35.0,-239.0,-54.0,-67.0,698.0,56.0,1
19.0,-233.0,-56.0,-74.0,724.0,73.0,1
10.0,-234.0,-53.0,-70.0,738.0,91.0,1
-4.0,-226.0,-53.0,-57.0,746.0,99.0,1
-18.0,-218.0,-46.0,-39.0,742.0,113.0,1
-35.0,-216.0,-32.0,-15.0,712.0,128.0,1
-35.0,-211.0,-28.0,20.0,660.0,156.0,1
-27.0,-218.0,-28.0,54.0,627.0,166.0,1
-35.0,-215.0,-21.0,63.0,608.0,159.0,1
-39.0,-215.0,-20.0,47.0,581.0,144.0,1
-33.0,-221.0,-19.0,16.0,540.0,142.0,1
-33.0,-223.0,-20.0,-9.0,514.0,125.0,1
-32.0,-224.0,-16.0,-38.0,501.0,108.0,1
-33.0,-226.0,-7.0,-75.0,488.0,92.0,1
-32.0,-228.0,-7.0,-112.0,471.0,93.0,1
-27.0,-231.0,-3.0,-134.0,464.0,92.0,1
-27.0,-236.0,-6.0,-133.0,475.0,96.0,1
-26.0,-238.0,-11.0,-125.0,494.0,99.0,1
-25.0,-237.0,-17.0,-111.0,512.0,107.0,1
-31.0,-235.0,-11.0,-102.0,529.0,111.0,1
-30.0,-236.0,-15.0,-93.0,538.0,122.0,1
-34.0,-240.0,-20.0,-87.0,538.0,123.0,1
-38.0,-237.0,-19.0,-86.0,536.0,126.0,1
-40.0,-241.0,-16.0,-80.0,526.0,120.0,1
-45.0,-242.0,-19.0,-69.0,514.0,118.0,1
-49.0,-242.0,-12.0,-59.0,500.0,109.0,1
-58.0,-241.0,-9.0,-40.0,481.0,107.0,1
-51.0,-240.0,-7.0,-5.0,434.0,119.0,1
-48.0,-244.0,-6.0,8.0,401.0,112.0,1
-48.0,-243.0,-2.0,0.0,371.0,87.0,1
-47.0,-243.0,0.0,-6.0,336.0,65.0,1
-46.0,-240.0,5.0,-16.0,311.0,38.0,1
-43.0,-240.0,2.0,-30.0,282.0,20.0,1
-44.0,-239.0,9.0,-42.0,253.0,0.0,1
-43.0,-239.0,10.0,-49.0,225.0,-14.0,1
-43.0,-236.0,13.0,-53.0,203.0,-27.0,1
-41.0,-236.0,9.0,-53.0,189.0,-35.0,1
-43.0,-233.0,12.0,-50.0,179.0,-46.0,1
-39.0,-237.0,12.0,-45.0,175.0,-50.0,1
-39.0,-238.0,14.0,-36.0,174.0,-60.0,1
-38.0,-238.0,14.0,-26.0,166.0,-65.0,1
-37.0,-241.0,13.0,-16.0,150.0,-75.0,1
-33.0,-243.0,10.0,-2.0,131.0,-79.0,1
-31.0,-245.0,11.0,13.0,110.0,-88.0,1
-29.0,-250.0,8.0,30.0,80.0,-92.0,1
-29.0,-254.0,4.0,41.0,44.0,-100.0,1
-28.0,-255.0,7.0,48.0,6.0,-103.0,1
-25.0,-257.0,2.0,51.0,-31.0,-108.0,1
-22.0,-256.0,8.0,57.0,-62.0,-110.0,1
-25.0,-254.0,5.0,65.0,-88.0,-114.0,1
-21.0,-255.0,1.0,75.0,-105.0,-114.0,1
-22.0,-251.0,6.0,89.0,-116.0,-119.0,1
-21.0,-245.0,9.0,104.0,-119.0,-118.0,1
-23.0,-247.0,10.0,121.0,-120.0,-118.0,1
-30.0,-246.0,11.0,136.0,-114.0,-110.0,1
-25.0,-249.0,8.0,148.0,-108.0,-101.0,1
-26.0,-254.0,12.0,155.0,-97.0,-88.0,1
-22.0,-258.0,17.0,162.0,-80.0,-75.0,1
-17.0,-261.0,23.0,173.0,-56.0,-60.0,1
-11.0,-267.0,26.0,188.0,-26.0,-47.0,1
-8.0,-265.0,39.0,204.0,7.0,-29.0,1
-2.0,-263.0,53.0,228.0,45.0,-18.0,1
6.0,-264.0,57.0,254.0,69.0,-4.0,1
11.0,-262.0,64.0,279.0,91.0,6.0,1
13.0,-259.0,76.0,305.0,114.0,16.0,1
16.0,-258.0,80.0,335.0,140.0,21.0,1
20.0,-260.0,81.0,366.0,174.0,25.0,1
23.0,-257.0,89.0,398.0,218.0,26.0,1
20.0,-261.0,87.0,424.0,260.0,26.0,1
51.0,-272.0,87.0,433.0,277.0,30.0,1
60.0,-293.0,84.0,455.0,299.0,40.0,1
47.0,-335.0,77.0,529.0,347.0,64.0,1
24.0,-379.0,65.0,649.0,377.0,98.0,1
13.0,-414.0,32.0,703.0,400.0,138.0,1
1.0,-450.0,-7.0,683.0,434.0,179.0,1
-12.0,-459.0,-54.0,601.0,492.0,210.0,1
-42.0,-450.0,-98.0,471.0,587.0,256.0,1
-59.0,-411.0,-119.0,301.0,683.0,317.0,1
-72.0,-380.0,-112.0,145.0,712.0,367.0,1
-82.0,-331.0,-98.0,68.0,636.0,399.0,1
-91.0,-288.0,-85.0,81.0,491.0,417.0,1
-85.0,-256.0,-81.0,139.0,326.0,428.0,1
-74.0,-229.0,-80.0,203.0,234.0,432.0,1
-50.0,-205.0,-86.0,232.0,174.0,429.0,1
-27.0,-189.0,-92.0,241.0,144.0,423.0,1
4.0,-181.0,-99.0,258.0,140.0,410.0,1
30.0,-181.0,-99.0,283.0,169.0,385.0,1
52.0,-188.0,-101.0,301.0,230.0,348.0,1
71.0,-200.0,-97.0,302.0,311.0,309.0,1
87.0,-218.0,-95.0,280.0,408.0,276.0,1
96.0,-238.0,-83.0,243.0,511.0,246.0,1
92.0,-249.0,-74.0,200.0,613.0,218.0,1
84.0,-260.0,-57.0,151.0,727.0,200.0,1
73.0,-267.0,-56.0,116.0,802.0,184.0,1
58.0,-275.0,-45.0,89.0,856.0,165.0,1
44.0,-271.0,-35.0,61.0,886.0,144.0,1
31.0,-266.0,-33.0,31.0,885.0,120.0,1
7.0,-254.0,-31.0,-1.0,850.0,95.0,1
-10.0,-242.0,-30.0,-43.0,779.0,70.0,1
-25.0,-230.0,-33.0,-91.0,685.0,40.0,1
-40.0,-225.0,-33.0,-145.0,579.0,7.0,1
-47.0,-225.0,-37.0,-192.0,467.0,-30.0,1
-62.0,-225.0,-33.0,-228.0,340.0,-56.0,1
-70.0,-231.0,-31.0,-242.0,245.0,-80.0,1
-79.0,-233.0,-30.0,-253.0,152.0,-96.0,1
-84.0,-238.0,-26.0,-258.0,61.0,-108.0,1
-93.0,-242.0,-24.0,-263.0,-25.0,-116.0,1
-96.0,-245.0,-18.0,-270.0,-108.0,-116.0,1
-100.0,-242.0,-20.0,-278.0,-180.0,-110.0,1
-101.0,-238.0,-18.0,-290.0,-239.0,-91.0,1
-98.0,-239.0,-20.0,-306.0,-285.0,-68.0,1
-84.0,-231.0,-21.0,-321.0,-325.0,-39.0,1
-70.0,-226.0,-17.0,-333.0,-354.0,-11.0,1
-60.0,-220.0,-18.0,-346.0,-363.0,1.0,1
-51.0,-205.0,-19.0,-354.0,-385.0,1.0,1
-39.0,-198.0,-16.0,-367.0,-415.0,-13.0,1
-31.0,-198.0,-13.0,-383.0,-450.0,-27.0,1
-20.0,-196.0,-7.0,-382.0,-479.0,-35.0,1
-9.0,-199.0,-7.0,-360.0,-492.0,-41.0,1
6.0,-206.0,-5.0,-331.0,-490.0,-38.0,1
13.0,-212.0,-5.0,-297.0,-469.0,-43.0,1
17.0,-216.0,-16.0,-282.0,-438.0,-50.0,1
23.0,-217.0,-8.0,-293.0,-419.0,-54.0,1
28.0,-223.0,-6.0,-324.0,-412.0,-52.0,1
30.0,-228.0,-10.0,-340.0,-402.0,-58.0,1
31.0,-229.0,-6.0,-353.0,-380.0,-66.0,1
27.0,-232.0,-9.0,-370.0,-360.0,-82.0,1
24.0,-230.0,-7.0,-387.0,-350.0,-94.0,1
21.0,-230.0,-3.0,-404.0,-350.0,-107.0,1
27.0,-234.0,-7.0,-417.0,-344.0,-120.0,1
28.0,-237.0,-8.0,-426.0,-327.0,-149.0,1
19.0,-233.0,-4.0,-430.0,-308.0,-176.0,1
24.0,-238.0,-5.0,-409.0,-307.0,-195.0,1
26.0,-238.0,-5.0,-372.0,-288.0,-212.0,1
8.0,-236.0,-5.0,-342.0,-283.0,-210.0,1
14.0,-234.0,-10.0,-330.0,-289.0,-175.0,1
17.0,-235.0,-13.0,-326.0,-276.0,-159.0,1
27.0,-238.0,-11.0,-322.0,-249.0,-147.0,1
29.0,-239.0,-9.0,-310.0,-215.0,-142.0,1
29.0,-240.0,-10.0,-293.0,-173.0,-135.0,1
26.0,-243.0,-4.0,-276.0,-135.0,-131.0,1
24.0,-240.0,0.0,-261.0,-100.0,-117.0,1
25.0,-247.0,-5.0,-246.0,-66.0,-107.0,1
28.0,-248.0,0.0,-237.0,-29.0,-84.0,1
23.0,-248.0,-2.0,-225.0,-1.0,-69.0,1
23.0,-253.0,6.0,-215.0,25.0,-51.0,1
23.0,-256.0,-4.0,-206.0,46.0,-37.0,1
18.0,-254.0,0.0,-198.0,66.0,-21.0,1
12.0,-253.0,-1.0,-190.0,79.0,-5.0,1
14.0,-250.0,3.0,-181.0,89.0,14.0,1
11.0,-249.0,0.0,-178.0,101.0,26.0,1
10.0,-252.0,1.0,-174.0,111.0,44.0,1
10.0,-249.0,1.0,-168.0,122.0,58.0,1
10.0,-249.0,0.0,-157.0,129.0,79.0,1
14.0,-250.0,-4.0,-142.0,132.0,92.0,1
16.0,-253.0,6.0,-125.0,137.0,108.0,1
18.0,-259.0,1.0,-105.0,142.0,115.0,1
18.0,-261.0,3.0,-81.0,143.0,123.0,1
21.0,-266.0,8.0,-55.0,141.0,121.0,1
22.0,-275.0,10.0,-31.0,135.0,121.0,1
20.0,-281.0,6.0,-11.0,124.0,109.0,1
18.0,-285.0,9.0,5.0,109.0,99.0,1
19.0,-287.0,10.0,12.0,95.0,83.0,1
18.0,-287.0,8.0,14.0,81.0,68.0,1
12.0,-287.0,10.0,13.0,67.0,51.0,1
6.0,-285.0,12.0,10.0,53.0,37.0,1
3.0,-284.0,9.0,9.0,40.0,20.0,1
5.0,-286.0,11.0,10.0,23.0,9.0,1
3.0,-290.0,12.0,13.0,5.0,-8.0,1
4.0,-291.0,14.0,19.0,-12.0,-17.0,1
10.0,-291.0,21.0,27.0,-27.0,-30.0,1
7.0,-287.0,23.0,38.0,-37.0,-41.0,1
8.0,-286.0,32.0,51.0,-43.0,-56.0,1
5.0,-281.0,38.0,70.0,-42.0,-65.0,1
8.0,-282.0,44.0,100.0,-38.0,-77.0,1
6.0,-277.0,47.0,131.0,-31.0,-83.0,1
5.0,-274.0,55.0,164.0,-26.0,-92.0,1
5.0,-268.0,64.0,194.0,-25.0,-98.0,1
2.0,-268.0,66.0,223.0,-31.0,-107.0,1
-1.0,-271.0,56.0,237.0,-47.0,-115.0,1
-5.0,-292.0,44.0,234.0,-88.0,-142.0,1
-9.0,-320.0,45.0,234.0,-136.0,-173.0,1
-10.0,-357.0,41.0,278.0,-188.0,-198.0,1
-11.0,-389.0,9.0,329.0,-260.0,-206.0,1
-10.0,-415.0,-16.0,325.0,-354.0,-222.0,1
-3.0,-425.0,-37.0,247.0,-410.0,-241.0,1
13.0,-417.0,-70.0,130.0,-421.0,-275.0,1
31.0,-388.0,-93.0,2.0,-383.0,-304.0,1
45.0,-358.0,-99.0,-81.0,-298.0,-342.0,1
57.0,-326.0,-94.0,-119.0,-157.0,-391.0,1
57.0,-290.0,-86.0,-108.0,25.0,-432.0,1
53.0,-263.0,-76.0,-52.0,217.0,-452.0,1
46.0,-243.0,-74.0,19.0,384.0,-465.0,1
28.0,-230.0,-79.0,77.0,519.0,-464.0,1
11.0,-219.0,-86.0,109.0,641.0,-457.0,1
-12.0,-203.0,-91.0,111.0,705.0,-440.0,1
-39.0,-193.0,-92.0,94.0,731.0,-422.0,1
-62.0,-178.0,-100.0,71.0,711.0,-392.0,1
-84.0,-172.0,-94.0,43.0,650.0,-359.0,1
-104.0,-168.0,-93.0,12.0,550.0,-312.0,1
-117.0,-167.0,-87.0,-15.0,417.0,-257.0,1
-123.0,-176.0,-82.0,-35.0,264.0,-199.0,1
-125.0,-193.0,-77.0,-44.0,108.0,-147.0,1
-122.0,-208.0,-71.0,-47.0,-45.0,-98.0,1
-111.0,-230.0,-67.0,-47.0,-202.0,-55.0,1
-97.0,-242.0,-59.0,-46.0,-300.0,-25.0,1
-75.0,-259.0,-56.0,-58.0,-361.0,-5.0,1
-62.0,-260.0,-52.0,-75.0,-387.0,11.0,1
-45.0,-260.0,-44.0,-98.0,-385.0,17.0,1
-25.0,-260.0,-39.0,-124.0,-356.0,23.0,1
-9.0,-254.0,-35.0,-148.0,-304.0,18.0,1
6.0,-250.0,-34.0,-164.0,-234.0,8.0,1
14.0,-241.0,-35.0,-173.0,-150.0,-7.0,1
23.0,-236.0,-41.0,-168.0,-55.0,-23.0,1
31.0,-236.0,-46.0,-160.0,65.0,-43.0,1
41.0,-241.0,-50.0,-146.0,171.0,-54.0,1
47.0,-240.0,-50.0,-136.0,277.0,-69.0,1
48.0,-241.0,-49.0,-126.0,377.0,-78.0,1
44.0,-245.0,-51.0,-121.0,473.0,-84.0,1
45.0,-255.0,-47.0,-120.0,564.0,-85.0,1
38.0,-257.0,-54.0,-123.0,643.0,-84.0,1
49.0,-251.0,-45.0,-127.0,705.0,-78.0,1
27.0,-255.0,-59.0,-138.0,749.0,-69.0,1
27.0,-253.0,-52.0,-155.0,778.0,-59.0,1
18.0,-248.0,-56.0,-169.0,793.0,-47.0,1
9.0,-243.0,-54.0,-194.0,796.0,-39.0,1
-1.0,-241.0,-51.0,-200.0,780.0,-33.0,1
-10.0,-239.0,-55.0,-199.0,756.0,-23.0,1
-13.0,-237.0,-48.0,-194.0,734.0,-14.0,1
-17.0,-231.0,-38.0,-190.0,707.0,0.0,1
-17.0,-229.0,-37.0,-181.0,678.0,16.0,1
-30.0,-225.0,-24.0,-174.0,651.0,32.0,1
-12.0,-225.0,-35.0,-158.0,617.0,61.0,1
-12.0,-226.0,-27.0,-166.0,605.0,61.0,1
-16.0,-224.0,-25.0,-178.0,599.0,56.0,1
-12.0,-229.0,-15.0,-181.0,589.0,62.0,1
-12.0,-229.0,-19.0,-179.0,584.0,69.0,1
-12.0,-230.0,-26.0,-177.0,586.0,73.0,1
-11.0,-235.0,-27.0,-176.0,593.0,77.0,1
-13.0,-237.0,-21.0,-175.0,604.0,81.0,1
-15.0,-241.0,-23.0,-165.0,621.0,86.0,1
-24.0,-243.0,-21.0,-145.0,637.0,95.0,1
-27.0,-249.0,-20.0,-120.0,646.0,110.0,1
-34.0,-246.0,-19.0,-96.0,647.0,125.0,1
-39.0,-245.0,-16.0,-78.0,640.0,139.0,1
-44.0,-245.0,-17.0,-62.0,623.0,150.0,1
-50.0,-243.0,-17.0,-50.0,601.0,153.0,1
-49.0,-244.0,-15.0,-40.0,574.0,156.0,1
-54.0,-237.0,-17.0,-35.0,545.0,157.0,1
-54.0,-242.0,-13.0,-29.0,513.0,156.0,1
-54.0,-239.0,-14.0,-24.0,477.0,152.0,1
-52.0,-244.0,-8.0,-19.0,440.0,144.0,1
-54.0,-238.0,-4.0,-15.0,400.0,134.0,1
-51.0,-240.0,-2.0,-14.0,360.0,122.0,1
-48.0,-242.0,0.0,-12.0,323.0,109.0,1
-42.0,-241.0,0.0,-8.0,284.0,98.0,1
-41.0,-243.0,6.0,-2.0,256.0,85.0,1
-37.0,-240.0,6.0,3.0,231.0,71.0,1
-34.0,-243.0,10.0,9.0,213.0,58.0,1
-31.0,-244.0,12.0,15.0,198.0,44.0,1
-31.0,-242.0,8.0,19.0,187.0,30.0,1
-27.0,-241.0,13.0,23.0,182.0,15.0,1
-27.0,-240.0,11.0,24.0,173.0,3.0,1
-23.0,-242.0,11.0,26.0,168.0,-12.0,1
-22.0,-242.0,9.0,27.0,160.0,-23.0,1
-24.0,-242.0,11.0,29.0,145.0,-40.0,1
-24.0,-248.0,10.0,33.0,134.0,-50.0,1
-24.0,-251.0,8.0,34.0,121.0,-61.0,1
-24.0,-256.0,3.0,27.0,109.0,-67.0,1
-26.0,-256.0,1.0,19.0,100.0,-74.0,1
-22.0,-258.0,4.0,15.0,92.0,-77.0,1
-21.0,-259.0,-1.0,13.0,87.0,-83.0,1
-18.0,-260.0,-2.0,22.0,83.0,-86.0,1
-16.0,-262.0,1.0,38.0,76.0,-92.0,1
-13.0,-265.0,2.0,60.0,64.0,-97.0,1
-12.0,-269.0,2.0,85.0,45.0,-103.0,1
-15.0,-274.0,3.0,113.0,24.0,-106.0,1
-17.0,-273.0,6.0,133.0,4.0,-109.0,1
-19.0,-277.0,5.0,149.0,-15.0,-105.0,1
-16.0,-279.0,2.0,164.0,-29.0,-99.0,1
-22.0,-275.0,6.0,178.0,-34.0,-85.0,1
-20.0,-273.0,8.0,187.0,-33.0,-73.0,1
-18.0,-271.0,13.0,196.0,-25.0,-56.0,1
-15.0,-267.0,15.0,209.0,-14.0,-45.0,1
-11.0,-266.0,23.0,226.0,0.0,-31.0,1
-9.0,-261.0,28.0,248.0,20.0,-20.0,1
2.0,-260.0,35.0,275.0,39.0,-11.0,1
8.0,-256.0,42.0,298.0,61.0,-6.0,1
10.0,-254.0,52.0,321.0,87.0,2.0,1
14.0,-251.0,56.0,341.0,119.0,7.0,1
23.0,-250.0,63.0,362.0,156.0,15.0,1
24.0,-244.0,70.0,379.0,201.0,17.0,1
24.0,-240.0,70.0,397.0,251.0,21.0,1
28.0,-243.0,72.0,412.0,304.0,20.0,1
27.0,-250.0,71.0,421.0,349.0,26.0,1
57.0,-265.0,76.0,422.0,380.0,32.0,1
47.0,-295.0,70.0,469.0,439.0,47.0,1
19.0,-338.0,53.0,543.0,486.0,77.0,1
3.0,-380.0,24.0,598.0,515.0,121.0,1
-14.0,-419.0,-1.0,581.0,536.0,164.0,1
-39.0,-442.0,-33.0,497.0,551.0,209.0,1
-58.0,-450.0,-77.0,387.0,556.0,272.0,1
-76.0,-437.0,-109.0,215.0,604.0,319.0,1
-91.0,-401.0,-126.0,23.0,658.0,350.0,1
-102.0,-358.0,-123.0,-113.0,658.0,379.0,1
-95.0,-311.0,-122.0,-161.0,584.0,403.0,1
-83.0,-262.0,-116.0,-125.0,427.0,410.0,1
-68.0,-227.0,-114.0,-55.0,280.0,399.0,1
-47.0,-204.0,-112.0,25.0,157.0,390.0,1
-20.0,-185.0,-108.0,100.0,72.0,379.0,1
12.0,-180.0,-111.0,178.0,30.0,365.0,1
39.0,-181.0,-110.0,250.0,25.0,336.0,1
58.0,-191.0,-104.0,303.0,64.0,302.0,1
73.0,-201.0,-102.0,330.0,136.0,261.0,1
79.0,-214.0,-98.0,329.0,236.0,229.0,1
84.0,-225.0,-88.0,312.0,348.0,198.0,1
79.0,-237.0,-80.0,280.0,492.0,164.0,1
69.0,-253.0,-69.0,230.0,599.0,136.0,1
52.0,-260.0,-68.0,184.0,687.0,114.0,1
35.0,-261.0,-60.0,132.0,749.0,88.0,1
10.0,-261.0,-55.0,81.0,780.0,67.0,1
-11.0,-257.0,-52.0,26.0,773.0,42.0,1
-36.0,-249.0,-46.0,-32.0,729.0,24.0,1
-51.0,-243.0,-45.0,-85.0,650.0,10.0,1
-68.0,-237.0,-47.0,-129.0,542.0,6.0,1
-77.0,-232.0,-44.0,-161.0,419.0,2.0,1
-88.0,-232.0,-41.0,-183.0,260.0,3.0,1
-95.0,-233.0,-43.0,-198.0,130.0,4.0,1
-97.0,-237.0,-43.0,-205.0,2.0,8.0,1
-98.0,-240.0,-43.0,-206.0,-114.0,8.0,1
-94.0,-241.0,-43.0,-208.0,-215.0,11.0,1
-94.0,-241.0,-41.0,-206.0,-295.0,12.0,1
-83.0,-244.0,-35.0,-205.0,-351.0,16.0,1
-77.0,-240.0,-39.0,-200.0,-393.0,14.0,1
-67.0,-237.0,-37.0,-197.0,-425.0,16.0,1
-52.0,-235.0,-36.0,-195.0,-439.0,9.0,1
-39.0,-227.0,-32.0,-202.0,-454.0,-1.0,1
-26.0,-221.0,-35.0,-226.0,-465.0,-5.0,1
-15.0,-219.0,-27.0,-262.0,-482.0,-4.0,1
-13.0,-218.0,-29.0,-294.0,-503.0,-9.0,1
-9.0,-217.0,-28.0,-315.0,-538.0,-10.0,1
2.0,-216.0,-27.0,-345.0,-574.0,-20.0,1
-8.0,-224.0,-26.0,-380.0,-598.0,-29.0,1
-6.0,-223.0,-27.0,-382.0,-636.0,-34.0,1
-6.0,-232.0,-29.0,-374.0,-657.0,-29.0,1
4.0,-233.0,-28.0,-373.0,-664.0,-42.0,1
-6.0,-231.0,-18.0,-383.0,-642.0,-71.0,1
-4.0,-234.0,-18.0,-385.0,-635.0,-67.0,1
4.0,-231.0,-19.0,-391.0,-643.0,-46.0,1
6.0,-229.0,-17.0,-404.0,-644.0,-44.0,1
11.0,-234.0,-21.0,-418.0,-639.0,-43.0,1
13.0,-237.0,-25.0,-431.0,-631.0,-60.0,1
17.0,-232.0,-33.0,-438.0,-617.0,-97.0,1
3.0,-235.0,-21.0,-468.0,-605.0,-138.0,1
-1.0,-236.0,-22.0,-467.0,-626.0,-132.0,1
22.0,-235.0,-33.0,-454.0,-640.0,-139.0,1
4.0,-232.0,-30.0,-463.0,-612.0,-189.0,1
-7.0,-240.0,-26.0,-467.0,-592.0,-193.0,1
-1.0,-236.0,-23.0,-439.0,-586.0,-153.0,1
9.0,-237.0,-32.0,-414.0,-575.0,-129.0,1
15.0,-235.0,-34.0,-392.0,-553.0,-116.0,1
22.0,-232.0,-30.0,-376.0,-523.0,-112.0,1
29.0,-232.0,-27.0,-370.0,-487.0,-112.0,1
42.0,-231.0,-28.0,-359.0,-449.0,-122.0,1
25.0,-232.0,-19.0,-351.0,-399.0,-150.0,1
27.0,-240.0,-24.0,-337.0,-370.0,-144.0,1
34.0,-239.0,-25.0,-322.0,-353.0,-106.0,1
33.0,-239.0,-24.0,-307.0,-318.0,-79.0,1
38.0,-249.0,-16.0,-285.0,-281.0,-61.0,1
31.0,-252.0,-15.0,-266.0,-239.0,-62.0,1
27.0,-253.0,-8.0,-251.0,-208.0,-57.0,1
20.0,-251.0,-9.0,-244.0,-192.0,-43.0,1
19.0,-254.0,-8.0,-236.0,-182.0,-26.0,1
19.0,-252.0,1.0,-227.0,-170.0,-24.0,1
4.0,-246.0,2.0,-216.0,-151.0,-38.0,1
3.0,-249.0,1.0,-205.0,-155.0,-21.0,1
2.0,-248.0,5.0,-195.0,-168.0,11.0,1
3.0,-247.0,-1.0,-180.0,-174.0,44.0,1
4.0,-248.0,4.0,-158.0,-173.0,64.0,1
2.0,-244.0,5.0,-142.0,-169.0,74.0,1
2.0,-248.0,8.0,-125.0,-167.0,89.0,1
0.0,-247.0,8.0,-108.0,-168.0,101.0,1
1.0,-247.0,8.0,-91.0,-166.0,114.0,1
2.0,-253.0,7.0,-73.0,-160.0,122.0,1
-1.0,-255.0,6.0,-53.0,-156.0,132.0,1
0.0,-261.0,8.0,-30.0,-154.0,138.0,1
3.0,-262.0,9.0,-10.0,-152.0,142.0,1
3.0,-262.0,4.0,7.0,-146.0,145.0,1
3.0,-265.0,1.0,21.0,-139.0,145.0,1
4.0,-267.0,-1.0,31.0,-128.0,139.0,1
5.0,-266.0,-3.0,38.0,-121.0,133.0,1
9.0,-267.0,-6.0,43.0,-114.0,123.0,1
6.0,-268.0,-6.0,50.0,-109.0,110.0,1
4.0,-269.0,-11.0,57.0,-106.0,96.0,1
6.0,-271.0,-5.0,65.0,-105.0,80.0,1
1.0,-272.0,-4.0,74.0,-105.0,61.0,1
4.0,-276.0,-3.0,80.0,-107.0,42.0,1
0.0,-277.0,3.0,91.0,-112.0,19.0,1
0.0,-282.0,8.0,107.0,-120.0,3.0,1
-6.0,-281.0,10.0,122.0,-128.0,-16.0,1
-3.0,-284.0,12.0,136.0,-139.0,-32.0,1
-7.0,-283.0,16.0,150.0,-153.0,-46.0,1
-9.0,-280.0,20.0,163.0,-165.0,-57.0,1
-7.0,-278.0,26.0,179.0,-177.0,-68.0,1
-4.0,-276.0,29.0,196.0,-189.0,-75.0,1
-5.0,-271.0,30.0,213.0,-203.0,-80.0,1
-5.0,-267.0,36.0,229.0,-218.0,-85.0,1
-6.0,-264.0,37.0,246.0,-234.0,-89.0,1
-6.0,-260.0,43.0,265.0,-261.0,-87.0,1
-12.0,-265.0,41.0,272.0,-302.0,-88.0,1
-13.0,-279.0,42.0,282.0,-373.0,-104.0,1
-19.0,-305.0,36.0,316.0,-443.0,-126.0,1
-28.0,-338.0,25.0,384.0,-499.0,-133.0,1
-23.0,-371.0,1.0,442.0,-547.0,-134.0,1
-14.0,-394.0,-23.0,429.0,-588.0,-152.0,1
-10.0,-404.0,-48.0,352.0,-610.0,-190.0,1
7.0,-395.0,-73.0,247.0,-581.0,-237.0,1
20.0,-370.0,-85.0,141.0,-487.0,-289.0,1
39.0,-339.0,-69.0,53.0,-328.0,-350.0,1
50.0,-311.0,-56.0,24.0,-194.0,-406.0,1
52.0,-292.0,-48.0,39.0,-63.0,-460.0,1
48.0,-276.0,-53.0,81.0,66.0,-503.0,1
34.0,-263.0,-55.0,130.0,194.0,-531.0,1
27.0,-259.0,-63.0,164.0,307.0,-537.0,1
10.0,-255.0,-68.0,182.0,391.0,-529.0,1
0.0,-242.0,-76.0,192.0,427.0,-506.0,1
-12.0,-230.0,-79.0,189.0,426.0,-485.0,1
-31.0,-223.0,-78.0,180.0,395.0,-448.0,1
-45.0,-215.0,-79.0,165.0,306.0,-394.0,1
-63.0,-205.0,-77.0,134.0,206.0,-342.0,1
-75.0,-201.0,-76.0,95.0,91.0,-288.0,1
-85.0,-202.0,-78.0,56.0,-33.0,-233.0,1
-93.0,-199.0,-78.0,19.0,-161.0,-177.0,1
-97.0,-206.0,-82.0,-9.0,-286.0,-122.0,1
-92.0,-209.0,-82.0,-34.0,-391.0,-78.0,1
-88.0,-217.0,-77.0,-52.0,-468.0,-41.0,1
-77.0,-230.0,-78.0,-61.0,-519.0,-18.0,1
-68.0,-242.0,-69.0,-61.0,-545.0,0.0,1
-56.0,-251.0,-60.0,-64.0,-543.0,-10.0,1
-58.0,-260.0,-56.0,-67.0,-522.0,-40.0,1
-44.0,-266.0,-56.0,-64.0,-502.0,-5.0,1
-31.0,-263.0,-51.0,-85.0,-468.0,19.0,1
-16.0,-260.0,-48.0,-108.0,-418.0,22.0,1
-9.0,-259.0,-42.0,-110.0,-360.0,15.0,1
0.0,-255.0,-40.0,-92.0,-290.0,2.0,1
7.0,-252.0,-38.0,-68.0,-206.0,-5.0,1
12.0,-249.0,-38.0,-42.0,-113.0,-15.0,1
18.0,-249.0,-43.0,-20.0,-8.0,-18.0,1
23.0,-255.0,-41.0,-10.0,121.0,-23.0,1
30.0,-254.0,-49.0,-8.0,227.0,-19.0,1
30.0,-258.0,-47.0,-20.0,319.0,-20.0,1
31.0,-260.0,-44.0,-33.0,389.0,-15.0,1
27.0,-262.0,-46.0,-49.0,441.0,-13.0,1
23.0,-263.0,-47.0,-71.0,471.0,-2.0,1
15.0,-261.0,-46.0,-90.0,478.0,8.0,1
11.0,-259.0,-44.0,-105.0,468.0,26.0,1
15.0,-258.0,-47.0,-106.0,436.0,46.0,1
7.0,-250.0,-44.0,-113.0,417.0,49.0,1
-2.0,-243.0,-40.0,-137.0,395.0,40.0,1
-4.0,-241.0,-37.0,-153.0,373.0,38.0,1
-9.0,-239.0,-30.0,-159.0,362.0,31.0,1
-12.0,-244.0,-31.0,-155.0,367.0,38.0,1
-14.0,-244.0,-31.0,-136.0,361.0,38.0,1
-12.0,-238.0,-44.0,-121.0,337.0,32.0,1
-21.0,-236.0,-35.0,-127.0,317.0,33.0,1
-18.0,-231.0,-33.0,-143.0,306.0,45.0,1
-25.0,-235.0,-34.0,-181.0,312.0,62.0,1
-24.0,-233.0,-24.0,-219.0,317.0,78.0,1
-23.0,-231.0,-26.0,-209.0,297.0,76.0,1
-28.0,-231.0,-24.0,-194.0,272.0,82.0,1
-29.0,-229.0,-26.0,-187.0,250.0,93.0,1
-29.0,-231.0,-22.0,-180.0,232.0,102.0,1
-33.0,-228.0,-16.0,-170.0,211.0,102.0,1
-41.0,-228.0,-15.0,-156.0,187.0,112.0,1
-47.0,-233.0,-10.0,-105.0,112.0,164.0,1
-31.0,-235.0,-25.0,-28.0,70.0,223.0,1
-33.0,-231.0,-24.0,-34.0,88.0,210.0,1
-43.0,-235.0,-21.0,-63.0,102.0,186.0,1
-44.0,-234.0,-15.0,-72.0,96.0,173.0,1
-47.0,-233.0,-20.0,-67.0,82.0,177.0,1
-47.0,-229.0,-17.0,-63.0,71.0,173.0,1
-47.0,-227.0,-12.0,-59.0,53.0,176.0,1
-41.0,-226.0,-20.0,-56.0,33.0,176.0,1
-34.0,-223.0,-19.0,-67.0,20.0,166.0,1
-37.0,-219.0,-17.0,-79.0,9.0,147.0,1
-37.0,-222.0,-20.0,-86.0,-3.0,136.0,1
-28.0,-223.0,-19.0,-87.0,-21.0,121.0,1
-31.0,-221.0,-16.0,-85.0,-35.0,109.0,1
-28.0,-227.0,-19.0,-84.0,-43.0,90.0,1
-24.0,-230.0,-18.0,-77.0,-48.0,81.0,1
-27.0,-233.0,-17.0,-74.0,-49.0,67.0,1
-26.0,-236.0,-17.0,-73.0,-50.0,60.0,1
-23.0,-242.0,-20.0,-78.0,-47.0,47.0,1
-27.0,-248.0,-15.0,-84.0,-43.0,38.0,1
-23.0,-253.0,-16.0,-88.0,-38.0,29.0,1
-15.0,-260.0,-22.0,-90.0,-30.0,24.0,1
-22.0,-261.0,-21.0,-94.0,-21.0,14.0,1
-22.0,-264.0,-10.0,-100.0,-11.0,6.0,1
-22.0,-270.0,-14.0,-101.0,-3.0,-4.0,1
-19.0,-271.0,-11.0,-94.0,5.0,-8.0,1
-22.0,-275.0,-10.0,-81.0,7.0,-14.0,1
-18.0,-276.0,-11.0,-65.0,8.0,-14.0,1
-15.0,-276.0,-9.0,-45.0,12.0,-20.0,1
-16.0,-281.0,-7.0,-25.0,15.0,-22.0,1
-13.0,-283.0,0.0,5.0,20.0,-25.0,1
-15.0,-285.0,-3.0,39.0,26.0,-23.0,1
-12.0,-282.0,1.0,70.0,34.0,-29.0,1
-12.0,-282.0,7.0,94.0,45.0,-35.0,1
-12.0,-279.0,8.0,114.0,57.0,-42.0,1
-13.0,-278.0,7.0,131.0,69.0,-48.0,1
-13.0,-273.0,14.0,149.0,74.0,-54.0,1
-19.0,-269.0,13.0,160.0,76.0,-53.0,1
-28.0,-266.0,18.0,172.0,78.0,-55.0,1
-31.0,-271.0,24.0,181.0,78.0,-50.0,1
-36.0,-275.0,22.0,185.0,76.0,-49.0,1
-38.0,-276.0,22.0,187.0,76.0,-41.0,1
-43.0,-280.0,23.0,188.0,77.0,-39.0,1
-45.0,-285.0,31.0,193.0,80.0,-31.0,1
-47.0,-284.0,33.0,208.0,82.0,-22.0,1
-46.0,-288.0,34.0,234.0,87.0,-3.0,1
-39.0,-290.0,32.0,263.0,95.0,11.0,1
-34.0,-279.0,32.0,290.0,111.0,25.0,1
-22.0,-275.0,29.0,313.0,131.0,33.0,1
-20.0,-263.0,26.0,325.0,157.0,36.0,1
-12.0,-251.0,19.0,324.0,185.0,30.0,1
-5.0,-239.0,12.0,316.0,216.0,22.0,1
-6.0,-230.0,10.0,305.0,247.0,12.0,1
-3.0,-232.0,8.0,299.0,273.0,8.0,1
-5.0,-247.0,4.0,312.0,294.0,16.0,1
-17.0,-272.0,-22.0,354.0,320.0,34.0,1
-29.0,-313.0,-48.0,379.0,340.0,49.0,1
-39.0,-340.0,-64.0,379.0,352.0,68.0,1
-39.0,-375.0,-80.0,343.0,366.0,87.0,1
-24.0,-391.0,-105.0,253.0,384.0,108.0,1
-12.0,-381.0,-129.0,95.0,391.0,117.0,1
-11.0,-336.0,-140.0,-89.0,382.0,117.0,1
-17.0,-275.0,-130.0,-236.0,345.0,108.0,1
-17.0,-223.0,-124.0,-295.0,275.0,108.0,1
-12.0,-191.0,-117.0,-281.0,178.0,110.0,1
-3.0,-165.0,-109.0,-212.0,54.0,113.0,1
8.0,-157.0,-102.0,-142.0,-40.0,97.0,1
15.0,-155.0,-94.0,-76.0,-112.0,70.0,1
10.0,-160.0,-87.0,-29.0,-148.0,38.0,1
-2.0,-169.0,-77.0,-6.0,-153.0,12.0,1
-4.0,-184.0,-64.0,-16.0,-160.0,-5.0,1
-4.0,-195.0,-51.0,-35.0,-146.0,-16.0,1
-11.0,-203.0,-40.0,-52.0,-115.0,-28.0,1
-16.0,-225.0,-22.0,-52.0,-92.0,-37.0,1
-28.0,-250.0,-19.0,-31.0,-83.0,-37.0,1
-30.0,-276.0,-13.0,-4.0,-104.0,-33.0,1
-40.0,-296.0,-9.0,23.0,-153.0,-40.0,1
-43.0,-311.0,-11.0,53.0,-227.0,-47.0,1
-43.0,-319.0,-21.0,79.0,-319.0,-58.0,1
-48.0,-320.0,-26.0,86.0,-412.0,-62.0,1
-41.0,-317.0,-34.0,80.0,-498.0,-67.0,1
-40.0,-309.0,-37.0,59.0,-570.0,-69.0,1
-35.0,-290.0,-44.0,37.0,-621.0,-73.0,1
-32.0,-274.0,-48.0,14.0,-650.0,-73.0,1
-20.0,-264.0,-47.0,-15.0,-667.0,-77.0,1
-8.0,-254.0,-45.0,-40.0,-660.0,-89.0,1
-1.0,-241.0,-46.0,-59.0,-637.0,-110.0,1
1.0,-233.0,-41.0,-61.0,-610.0,-129.0,1
12.0,-229.0,-37.0,-47.0,-584.0,-140.0,1
19.0,-227.0,-32.0,-22.0,-566.0,-148.0,1
23.0,-227.0,-29.0,8.0,-552.0,-152.0,1
26.0,-233.0,-29.0,37.0,-536.0,-157.0,1
28.0,-238.0,-33.0,63.0,-517.0,-160.0,1
31.0,-244.0,-37.0,88.0,-494.0,-161.0,1
31.0,-249.0,-38.0,110.0,-467.0,-163.0,1
28.0,-248.0,-42.0,122.0,-425.0,-169.0,1
25.0,-249.0,-38.0,118.0,-397.0,-169.0,1
24.0,-254.0,-36.0,114.0,-382.0,-164.0,1
16.0,-247.0,-36.0,116.0,-383.0,-157.0,1
16.0,-251.0,-32.0,116.0,-399.0,-147.0,1
10.0,-251.0,-31.0,116.0,-428.0,-138.0,1
10.0,-250.0,-29.0,119.0,-470.0,-129.0,1
7.0,-247.0,-30.0,127.0,-518.0,-118.0,1
4.0,-252.0,-34.0,139.0,-567.0,-107.0,1
-1.0,-246.0,-27.0,149.0,-617.0,-94.0,1
-8.0,-243.0,-27.0,154.0,-681.0,-82.0,1
-7.0,-242.0,-27.0,162.0,-730.0,-70.0,1
-11.0,-246.0,-30.0,165.0,-771.0,-57.0,1
-11.0,-244.0,-26.0,171.0,-804.0,-37.0,1
-11.0,-240.0,-17.0,179.0,-831.0,-20.0,1
-15.0,-245.0,-15.0,181.0,-850.0,2.0,1
-13.0,-244.0,-9.0,183.0,-861.0,22.0,1
-12.0,-250.0,3.0,183.0,-867.0,43.0,1
-12.0,-250.0,6.0,199.0,-857.0,59.0,1
-16.0,-250.0,15.0,214.0,-841.0,74.0,1
-15.0,-253.0,24.0,237.0,-820.0,91.0,1
-15.0,-255.0,26.0,286.0,-795.0,112.0,1
-10.0,-259.0,31.0,320.0,-772.0,130.0,1
-7.0,-261.0,36.0,349.0,-747.0,142.0,1
0.0,-261.0,31.0,384.0,-721.0,150.0,1
7.0,-261.0,32.0,400.0,-693.0,153.0,1
14.0,-262.0,34.0,407.0,-665.0,153.0,1
22.0,-254.0,31.0,408.0,-640.0,149.0,1
23.0,-253.0,36.0,410.0,-611.0,144.0,1
28.0,-241.0,36.0,434.0,-586.0,136.0,1
29.0,-240.0,46.0,451.0,-556.0,127.0,1
30.0,-234.0,41.0,476.0,-535.0,122.0,1
31.0,-240.0,55.0,503.0,-523.0,107.0,1
26.0,-234.0,45.0,536.0,-520.0,92.0,1
23.0,-228.0,40.0,542.0,-525.0,77.0,1
14.0,-234.0,44.0,529.0,-536.0,66.0,1
9.0,-243.0,48.0,521.0,-548.0,59.0,1
5.0,-250.0,50.0,526.0,-573.0,50.0,1
-4.0,-261.0,47.0,553.0,-617.0,43.0,1
-11.0,-267.0,35.0,590.0,-678.0,43.0,1
-22.0,-278.0,28.0,606.0,-758.0,40.0,1
-33.0,-279.0,8.0,616.0,-829.0,37.0,1
-41.0,-257.0,-8.0,601.0,-897.0,43.0,1
-47.0,-245.0,-35.0,559.0,-949.0,61.0,1
-52.0,-237.0,-50.0,492.0,-988.0,76.0,1
-58.0,-223.0,-58.0,419.0,-1013.0,94.0,1
-60.0,-209.0,-66.0,358.0,-1020.0,115.0,1
-59.0,-201.0,-61.0,294.0,-1007.0,142.0,1
-63.0,-199.0,-60.0,250.0,-985.0,175.0,1
-61.0,-206.0,-44.0,230.0,-954.0,209.0,1
-57.0,-219.0,-25.0,246.0,-931.0,241.0,1
-51.0,-229.0,-13.0,293.0,-931.0,268.0,1
-44.0,-230.0,0.0,331.0,-946.0,291.0,1
-32.0,-239.0,7.0,362.0,-986.0,318.0,1
-22.0,-243.0,7.0,382.0,-1041.0,336.0,1
-12.0,-244.0,7.0,381.0,-1111.0,358.0,1
-4.0,-242.0,9.0,354.0,-1180.0,379.0,1
-2.0,-237.0,12.0,324.0,-1250.0,402.0,1
8.0,-233.0,3.0,305.0,-1312.0,418.0,1
8.0,-229.0,2.0,283.0,-1363.0,429.0,1
5.0,-221.0,-3.0,252.0,-1403.0,435.0,1
3.0,-225.0,1.0,214.0,-1428.0,441.0,1
1.0,-220.0,3.0,189.0,-1443.0,442.0,1
-5.0,-218.0,-3.0,162.0,-1454.0,444.0,1
-5.0,-220.0,0.0,140.0,-1466.0,443.0,1
-11.0,-218.0,-6.0,126.0,-1484.0,449.0,1
-12.0,-223.0,5.0,108.0,-1495.0,452.0,1
-18.0,-221.0,6.0,98.0,-1501.0,469.0,1
-16.0,-219.0,2.0,85.0,-1514.0,482.0,1
-14.0,-218.0,6.0,67.0,-1539.0,504.0,1
-14.0,-221.0,7.0,48.0,-1575.0,528.0,1
-16.0,-221.0,10.0,28.0,-1646.0,546.0,1
-12.0,-223.0,5.0,21.0,-1727.0,555.0,1
-8.0,-218.0,0.0,21.0,-1815.0,562.0,1
-5.0,-212.0,-6.0,26.0,-1893.0,565.0,1
-4.0,-216.0,-10.0,36.0,-1963.0,570.0,1
2.0,-213.0,-7.0,47.0,-2020.0,571.0,1
3.0,-210.0,-6.0,44.0,-2057.0,578.0,1
7.0,-211.0,-4.0,30.0,-2090.0,585.0,1
7.0,-213.0,9.0,12.0,-2127.0,595.0,1
13.0,-213.0,9.0,-5.0,-2168.0,599.0,1
16.0,-208.0,4.0,-34.0,-2224.0,603.0,1
25.0,-205.0,0.0,-67.0,-2276.0,606.0,1
25.0,-198.0,-8.0,-108.0,-2324.0,612.0,1
22.0,-196.0,-15.0,-145.0,-2376.0,606.0,1
27.0,-186.0,-19.0,-184.0,-2427.0,608.0,1
24.0,-182.0,-20.0,-211.0,-2470.0,601.0,1
28.0,-169.0,-31.0,-223.0,-2516.0,596.0,1
26.0,-161.0,-42.0,-232.0,-2553.0,582.0,1
14.0,-148.0,-45.0,-234.0,-2590.0,569.0,1
9.0,-136.0,-51.0,-230.0,-2634.0,555.0,1
12.0,-132.0,-59.0,-257.0,-2687.0,552.0,1
4.0,-126.0,-57.0,-313.0,-2726.0,540.0,1
4.0,-108.0,-56.0,-381.0,-2771.0,528.0,1
6.0,-106.0,-55.0,-444.0,-2832.0,512.0,1
1.0,-93.0,-61.0,-484.0,-2909.0,496.0,1
-4.0,-85.0,-52.0,-519.0,-2996.0,477.0,1
-5.0,-83.0,-59.0,-546.0,-3088.0,468.0,1
-1.0,-80.0,-57.0,-561.0,-3174.0,459.0,1
5.0,-78.0,-55.0,-563.0,-3247.0,460.0,1
3.0,-82.0,-52.0,-549.0,-3311.0,468.0,1
13.0,-87.0,-46.0,-513.0,-3376.0,483.0,1
5.0,-80.0,-44.0,-482.0,-3403.0,498.0,1
23.0,-83.0,-44.0,-436.0,-3425.0,521.0,1
32.0,-73.0,-54.0,-426.0,-3416.0,515.0,1
25.0,-65.0,-54.0,-466.0,-3366.0,497.0,1
26.0,-64.0,-47.0,-545.0,-3311.0,495.0,1
28.0,-49.0,-54.0,-625.0,-3270.0,494.0,1
59.0,-54.0,-68.0,-724.0,-3228.0,518.0,1
53.0,-60.0,-49.0,-812.0,-3142.0,510.0,1
43.0,-63.0,-54.0,-853.0,-3028.0,517.0,1
40.0,-66.0,-59.0,-887.0,-2923.0,534.0,1
26.0,-66.0,-61.0,-910.0,-2862.0,550.0,1
38.0,-64.0,-69.0,-905.0,-2822.0,594.0,1
53.0,-67.0,-77.0,-898.0,-2773.0,623.0,1
59.0,-70.0,-90.0,-912.0,-2691.0,638.0,1
53.0,-72.0,-85.0,-954.0,-2572.0,634.0,1
55.0,-72.0,-75.0,-991.0,-2476.0,638.0,1
53.0,-65.0,-86.0,-1009.0,-2417.0,655.0,1
49.0,-68.0,-66.0,-1021.0,-2384.0,704.0,1
63.0,-64.0,-86.0,-999.0,-2374.0,785.0,1
76.0,-67.0,-94.0,-1092.0,-2336.0,817.0,1
74.0,-72.0,-76.0,-1248.0,-2300.0,808.0,1
69.0,-68.0,-73.0,-1367.0,-2298.0,817.0,1
70.0,-80.0,-71.0,-1446.0,-2322.0,847.0,1
71.0,-92.0,-66.0,-1501.0,-2347.0,885.0,1
71.0,-102.0,-68.0,-1520.0,-2375.0,921.0,1
68.0,-107.0,-67.0,-1524.0,-2403.0,959.0,1
60.0,-115.0,-62.0,-1516.0,-2422.0,991.0,1
50.0,-132.0,-52.0,-1461.0,-2436.0,1042.0,1
54.0,-140.0,-58.0,-1324.0,-2445.0,1128.0,1
50.0,-116.0,-82.0,-1284.0,-2414.0,1140.0,1
41.0,-109.0,-70.0,-1414.0,-2383.0,1122.0,1
33.0,-103.0,-67.0,-1514.0,-2367.0,1133.0,1
34.0,-104.0,-68.0,-1591.0,-2356.0,1161.0,1
36.0,-101.0,-77.0,-1659.0,-2360.0,1185.0,1
36.0,-104.0,-94.0,-1733.0,-2369.0,1213.0,1
39.0,-116.0,-110.0,-1804.0,-2386.0,1241.0,1
29.0,-119.0,-118.0,-1877.0,-2400.0,1264.0,1
28.0,-127.0,-123.0,-1943.0,-2398.0,1283.0,1
18.0,-134.0,-124.0,-2014.0,-2373.0,1286.0,1
2.0,-137.0,-119.0,-2102.0,-2309.0,1280.0,1
-4.0,-143.0,-119.0,-2159.0,-2216.0,1266.0,1
-12.0,-150.0,-108.0,-2255.0,-2107.0,1271.0,1
-14.0,-170.0,-98.0,-2334.0,-2010.0,1281.0,1
-19.0,-196.0,-78.0,-2428.0,-1970.0,1262.0,1
-12.0,-204.0,-92.0,-2613.0,-2047.0,1150.0,1
2.0,-237.0,-62.0,-2577.0,-2020.0,1132.0,1
-1.0,-248.0,-36.0,-2349.0,-1893.0,1190.0,1
-10.0,-263.0,-23.0,-2037.0,-1781.0,1246.0,1
-21.0,-294.0,-35.0,-1734.0,-1723.0,1274.0,1
-34.0,-322.0,-47.0,-1365.0,-1655.0,1311.0,1
-54.0,-323.0,-51.0,-1067.0,-1602.0,1325.0,1
-70.0,-301.0,-56.0,-797.0,-1565.0,1342.0,1
-79.0,-282.0,-60.0,-586.0,-1557.0,1362.0,1
-97.0,-264.0,-60.0,-425.0,-1584.0,1388.0,1
-113.0,-253.0,-58.0,-273.0,-1638.0,1442.0,1
-116.0,-240.0,-54.0,-149.0,-1730.0,1520.0,1
-113.0,-237.0,-67.0,-64.0,-1864.0,1603.0,1
-121.0,-225.0,-89.0,-8.0,-2010.0,1646.0,1
-131.0,-238.0,-104.0,-3.0,-2127.0,1625.0,1
-164.0,-247.0,-105.0,98.0,-2174.0,1609.0,1
-227.0,-255.0,-113.0,253.0,-2197.0,1624.0,1
-288.0,-264.0,-112.0,408.0,-2275.0,1682.0,1
-365.0,-296.0,-90.0,473.0,-2464.0,1751.0,1
-440.0,-343.0,-75.0,468.0,-2752.0,1827.0,1
-531.0,-400.0,-56.0,578.0,-3013.0,1992.0,1
-653.0,-512.0,-20.0,785.0,-3293.0,2272.0,1
-809.0,-683.0,-31.0,1106.0,-3651.0,2667.0,1
-990.0,-824.0,-61.0,1598.0,-4045.0,3197.0,1
-1230.0,-1145.0,-113.0,2128.0,-4554.0,4099.0,1
-1500.0,-1605.0,-80.0,3043.0,-5148.0,5166.0,1
-1551.0,-2205.0,195.0,4415.0,-5851.0,6289.0,1
-1286.0,-2316.0,330.0,6713.0,-6410.0,6901.0,1
-651.0,-1752.0,102.0,9138.0,-6360.0,6469.0,1
-310.0,-1150.0,-75.0,10456.0,-5605.0,5161.0,1
-129.0,-636.0,-92.0,10547.0,-4883.0,3591.0,1
95.0,99.0,-4.0,9243.0,-4470.0,2298.0,1
237.0,461.0,140.0,6552.0,-3827.0,1592.0,1
275.0,328.0,391.0,2968.0,-2557.0,1403.0,1
193.0,-13.0,611.0,-315.0,-1060.0,1228.0,1
41.0,-294.0,672.0,-2373.0,171.0,1128.0,1
-62.0,-413.0,545.0,-2150.0,249.0,1231.0,1
-88.0,-390.0,259.0,-762.0,-443.0,1654.0,1
-58.0,-315.0,8.0,839.0,-1388.0,2230.0,1
-26.0,-233.0,-261.0,1977.0,-2028.0,2744.0,1
-11.0,-161.0,-408.0,2617.0,-2237.0,3064.0,1
15.0,-109.0,-444.0,2900.0,-2255.0,3150.0,1
-6.0,-114.0,-324.0,2948.0,-2083.0,3136.0,1
-7.0,-133.0,-183.0,2875.0,-2037.0,2945.0,1
-12.0,-131.0,-60.0,2810.0,-2061.0,2725.0,1
-31.0,-103.0,15.0,2741.0,-2003.0,2575.0,1
-47.0,-69.0,67.0,2606.0,-1838.0,2482.0,1
-75.0,-39.0,121.0,2422.0,-1620.0,2455.0,1
-95.0,-21.0,143.0,2265.0,-1417.0,2493.0,1
-82.0,-9.0,139.0,2171.0,-1332.0,2606.0,1
-59.0,-14.0,97.0,2106.0,-1443.0,2731.0,1
-9.0,-49.0,39.0,2123.0,-1682.0,2829.0,1
21.0,-80.0,-9.0,2254.0,-1877.0,2897.0,1
23.0,-102.0,-26.0,2428.0,-1973.0,2904.0,1
17.0,-122.0,-22.0,2575.0,-2005.0,2849.0,1
-3.0,-134.0,0.0,2706.0,-1974.0,2770.0,1
-29.0,-130.0,31.0,2812.0,-1882.0,2694.0,1
-62.0,-119.0,67.0,2900.0,-1777.0,2604.0,1
-113.0,-112.0,85.0,2920.0,-1739.0,2488.0,1
-158.0,-96.0,106.0,2906.0,-1788.0,2357.0,1
-204.0,-66.0,147.0,2883.0,-1886.0,2263.0,1
-225.0,-40.0,165.0,2854.0,-2053.0,2215.0,1
-230.0,-2.0,169.0,2801.0,-2242.0,2217.0,1
-215.0,39.0,164.0,2708.0,-2410.0,2235.0,1
-198.0,62.0,147.0,2574.0,-2587.0,2276.0,1
-186.0,71.0,142.0,2459.0,-2852.0,2354.0,1
-159.0,71.0,164.0,2473.0,-3098.0,2466.0,1
-158.0,78.0,227.0,2512.0,-3282.0,2536.0,1
-143.0,103.0,276.0,2533.0,-3417.0,2530.0,1
-157.0,122.0,295.0,2477.0,-3512.0,2441.0,1
-187.0,155.0,339.0,2377.0,-3574.0,2325.0,1
-238.0,213.0,391.0,2241.0,-3584.0,2135.0,1
-326.0,295.0,507.0,1932.0,-3598.0,1765.0,1
-432.0,400.0,606.0,1574.0,-3608.0,1280.0,1
-515.0,472.0,697.0,1326.0,-3628.0,792.0,1
-566.0,583.0,667.0,1154.0,-3605.0,437.0,1
-578.0,622.0,660.0,906.0,-3395.0,144.0,1
-508.0,631.0,546.0,672.0,-2998.0,83.0,1
-355.0,554.0,444.0,390.0,-2509.0,130.0,1
-172.0,417.0,325.0,-46.0,-2039.0,171.0,1
-42.0,237.0,272.0,-717.0,-1641.0,37.0,1
0.0,56.0,237.0,-1423.0,-1473.0,-255.0,1
26.0,-89.0,208.0,-1996.0,-1634.0,-573.0,1
45.0,-196.0,145.0,-2261.0,-2004.0,-813.0,1
34.0,-230.0,97.0,-2212.0,-2387.0,-998.0,1
3.0,-239.0,25.0,-1854.0,-2801.0,-1052.0,1
1.0,-199.0,-19.0,-1461.0,-3072.0,-1026.0,1
7.0,-163.0,-44.0,-1028.0,-3210.0,-935.0,1
-4.0,-127.0,-27.0,-571.0,-3231.0,-833.0,1
12.0,-83.0,11.0,-162.0,-3179.0,-712.0,1
45.0,-29.0,53.0,101.0,-3085.0,-594.0,1
89.0,35.0,95.0,222.0,-2933.0,-521.0,1
104.0,84.0,127.0,263.0,-2703.0,-480.0,1
115.0,145.0,181.0,296.0,-2414.0,-440.0,1
125.0,205.0,223.0,339.0,-2103.0,-391.0,1
157.0,244.0,266.0,404.0,-1685.0,-324.0,1
192.0,256.0,295.0,467.0,-1311.0,-319.0,1
223.0,261.0,308.0,443.0,-967.0,-389.0,1
236.0,247.0,325.0,339.0,-668.0,-496.0,1
237.0,229.0,321.0,223.0,-436.0,-614.0,1
234.0,204.0,303.0,141.0,-261.0,-720.0,1
215.0,190.0,278.0,64.0,-105.0,-814.0,1
190.0,165.0,250.0,-33.0,12.0,-858.0,1
161.0,143.0,219.0,-133.0,87.0,-854.0,1
136.0,121.0,189.0,-226.0,106.0,-818.0,1
112.0,93.0,166.0,-312.0,58.0,-755.0,1
88.0,72.0,140.0,-348.0,-51.0,-700.0,1
78.0,62.0,130.0,-357.0,-168.0,-669.0,1
77.0,52.0,121.0,-354.0,-259.0,-654.0,1
74.0,46.0,124.0,-357.0,-293.0,-661.0,1
66.0,54.0,119.0,-368.0,-286.0,-667.0,1
55.0,59.0,123.0,-384.0,-246.0,-677.0,1
66.0,66.0,131.0,-413.0,-182.0,-684.0,1
70.0,76.0,140.0,-461.0,-87.0,-709.0,1
69.0,86.0,158.0,-531.0,32.0,-734.0,1
73.0,94.0,172.0,-624.0,164.0,-770.0,1
56.0,101.0,185.0,-712.0,243.0,-783.0,1
50.0,105.0,196.0,-812.0,263.0,-784.0,1
39.0,110.0,201.0,-915.0,259.0,-783.0,1
30.0,112.0,207.0,-1010.0,263.0,-790.0,1
16.0,109.0,221.0,-1096.0,268.0,-798.0,1
12.0,97.0,228.0,-1177.0,236.0,-805.0,1
12.0,84.0,235.0,-1253.0,179.0,-793.0,1
5.0,70.0,244.0,-1300.0,138.0,-790.0,1
-3.0,56.0,243.0,-1293.0,116.0,-785.0,1
-15.0,44.0,246.0,-1243.0,126.0,-785.0,1
-22.0,29.0,250.0,-1138.0,134.0,-773.0,1
-30.0,38.0,254.0,-1050.0,131.0,-749.0,1
-29.0,40.0,267.0,-974.0,103.0,-715.0,1
-26.0,44.0,283.0,-920.0,79.0,-671.0,1
-33.0,22.0,299.0,-869.0,68.0,-621.0,1
-22.0,39.0,311.0,-801.0,57.0,-576.0,1
-32.0,48.0,328.0,-712.0,66.0,-520.0,1
-26.0,52.0,342.0,-617.0,83.0,-448.0,1
-15.0,59.0,355.0,-527.0,99.0,-373.0,1
-23.0,58.0,360.0,-449.0,142.0,-273.0,1
-33.0,63.0,366.0,-371.0,163.0,-174.0,1
-32.0,56.0,368.0,-328.0,167.0,-61.0,1
-26.0,49.0,361.0,-317.0,180.0,40.0,1
-10.0,29.0,362.0,-327.0,216.0,97.0,1
6.0,7.0,354.0,-308.0,277.0,139.0,1
31.0,-13.0,345.0,-283.0,355.0,148.0,1
47.0,-33.0,328.0,-266.0,455.0,145.0,1
55.0,-51.0,317.0,-250.0,565.0,129.0,1
53.0,-64.0,308.0,-222.0,674.0,110.0,1
53.0,-75.0,301.0,-140.0,785.0,75.0,1
51.0,-89.0,286.0,69.0,836.0,48.0,1
51.0,-89.0,265.0,286.0,867.0,33.0,1
59.0,-74.0,242.0,460.0,905.0,28.0,1
60.0,-59.0,227.0,567.0,960.0,23.0,1
54.0,-49.0,215.0,613.0,1025.0,33.0,1
56.0,-40.0,214.0,622.0,1090.0,41.0,1
49.0,-22.0,211.0,622.0,1138.0,36.0,1
50.0,-16.0,218.0,601.0,1166.0,17.0,1
46.0,-4.0,210.0,583.0,1161.0,-24.0,1
38.0,4.0,212.0,547.0,1140.0,-75.0,1
31.0,8.0,208.0,479.0,1122.0,-114.0,1
33.0,5.0,207.0,412.0,1089.0,-159.0,1
27.0,3.0,209.0,360.0,1049.0,-216.0,1
29.0,3.0,195.0,322.0,1012.0,-276.0,1
29.0,-5.0,192.0,276.0,979.0,-316.0,1
23.0,-12.0,193.0,232.0,958.0,-367.0,1
18.0,-18.0,187.0,199.0,957.0,-432.0,1
9.0,-20.0,185.0,173.0,978.0,-504.0,1
-3.0,-22.0,184.0,151.0,1001.0,-574.0,1
-1.0,-26.0,180.0,119.0,1027.0,-627.0,1
-7.0,-33.0,186.0,84.0,1066.0,-671.0,1
-17.0,-37.0,184.0,67.0,1082.0,-718.0,1
-23.0,-46.0,194.0,62.0,1088.0,-764.0,1
-37.0,-52.0,195.0,77.0,1097.0,-818.0,1
-53.0,-59.0,195.0,88.0,1089.0,-859.0,1
-63.0,-64.0,198.0,89.0,1076.0,-881.0,1
-77.0,-63.0,208.0,76.0,1080.0,-902.0,1
-86.0,-63.0,212.0,56.0,1086.0,-921.0,1
-101.0,-67.0,232.0,31.0,1081.0,-924.0,1
-110.0,-69.0,237.0,8.0,1072.0,-908.0,1
-110.0,-68.0,242.0,2.0,1055.0,-895.0,1
-122.0,-68.0,247.0,1.0,1059.0,-889.0,1
-118.0,-67.0,258.0,-6.0,1082.0,-876.0,1
-115.0,-58.0,253.0,-4.0,1112.0,-865.0,1
-124.0,-65.0,262.0,-17.0,1161.0,-836.0,1
-121.0,-64.0,262.0,-6.0,1214.0,-805.0,1
-121.0,-61.0,262.0,30.0,1267.0,-780.0,1
-125.0,-57.0,249.0,71.0,1322.0,-745.0,1
-102.0,-41.0,246.0,94.0,1403.0,-695.0,1
-110.0,-59.0,255.0,81.0,1512.0,-576.0,1
-124.0,-90.0,253.0,217.0,1475.0,-485.0,1
-154.0,-68.0,232.0,436.0,1426.0,-526.0,1
-143.0,-54.0,216.0,578.0,1417.0,-541.0,1
-149.0,-38.0,211.0,609.0,1446.0,-531.0,1
-158.0,-44.0,219.0,574.0,1478.0,-480.0,1
-151.0,-43.0,213.0,569.0,1472.0,-407.0,1
-159.0,-26.0,199.0,572.0,1461.0,-414.0,1
-151.0,-19.0,194.0,576.0,1480.0,-403.0,1
-149.0,-8.0,183.0,572.0,1496.0,-375.0,1
-165.0,-5.0,185.0,536.0,1506.0,-328.0,1
-155.0,-10.0,179.0,514.0,1482.0,-269.0,1
-141.0,-6.0,166.0,539.0,1466.0,-220.0,1
-142.0,-11.0,162.0,557.0,1474.0,-206.0,1
-161.0,6.0,164.0,530.0,1452.0,-217.0,1
-156.0,19.0,163.0,468.0,1412.0,-198.0,1
-152.0,18.0,158.0,399.0,1392.0,-170.0,1
-150.0,14.0,153.0,336.0,1372.0,-152.0,1
-142.0,12.0,157.0,276.0,1361.0,-131.0,1
-145.0,9.0,158.0,240.0,1365.0,-121.0,1
-143.0,11.0,155.0,217.0,1357.0,-108.0,1
-147.0,9.0,154.0,182.0,1332.0,-95.0,1
-153.0,10.0,157.0,140.0,1281.0,-86.0,1
-172.0,8.0,158.0,88.0,1201.0,-78.0,1
-199.0,10.0,161.0,36.0,1094.0,-60.0,1
-218.0,10.0,162.0,-6.0,963.0,-36.0,1
-230.0,10.0,162.0,-38.0,824.0,-5.0,1
-244.0,14.0,157.0,-70.0,687.0,28.0,1
-247.0,13.0,149.0,-94.0,562.0,65.0,1
-248.0,14.0,143.0,-114.0,448.0,102.0,1
-248.0,12.0,136.0,-135.0,347.0,144.0,1
-243.0,11.0,138.0,-169.0,244.0,176.0,1
-227.0,8.0,136.0,-202.0,170.0,201.0,1
-216.0,14.0,139.0,-238.0,107.0,218.0,1
-205.0,9.0,142.0,-271.0,53.0,231.0,1
-200.0,5.0,151.0,-303.0,4.0,232.0,1
-197.0,2.0,159.0,-335.0,-41.0,231.0,1
-194.0,-1.0,169.0,-361.0,-85.0,228.0,1
-190.0,-1.0,177.0,-378.0,-128.0,225.0,1
-188.0,-4.0,190.0,-384.0,-169.0,221.0,1
-179.0,-6.0,196.0,-371.0,-207.0,222.0,1
-175.0,-8.0,195.0,-331.0,-237.0,217.0,1
-177.0,-4.0,195.0,-285.0,-259.0,211.0,1
-179.0,-2.0,190.0,-244.0,-290.0,198.0,1
-188.0,-1.0,188.0,-212.0,-326.0,192.0,1
-189.0,1.0,184.0,-184.0,-360.0,185.0,1
-198.0,4.0,177.0,-165.0,-394.0,183.0,1
-197.0,10.0,174.0,-153.0,-428.0,177.0,1
-196.0,11.0,166.0,-147.0,-457.0,176.0,1
-197.0,13.0,182.0,-147.0,-489.0,169.0,1
-194.0,15.0,168.0,-159.0,-526.0,167.0,1
-193.0,19.0,166.0,-184.0,-568.0,160.0,1
-189.0,18.0,171.0,-214.0,-599.0,156.0,1
-183.0,18.0,174.0,-248.0,-622.0,146.0,1
-177.0,14.0,181.0,-277.0,-643.0,142.0,1
-168.0,11.0,188.0,-298.0,-661.0,130.0,1
-162.0,11.0,196.0,-318.0,-675.0,124.0,1
-155.0,9.0,197.0,-336.0,-687.0,115.0,1
-150.0,9.0,200.0,-349.0,-698.0,112.0,1
-142.0,1.0,204.0,-362.0,-714.0,103.0,1
-141.0,4.0,207.0,-356.0,-726.0,97.0,1
-137.0,2.0,209.0,-335.0,-738.0,85.0,1
-129.0,-3.0,215.0,-318.0,-746.0,80.0,1
-127.0,-3.0,218.0,-299.0,-754.0,71.0,1
-124.0,-4.0,219.0,-277.0,-758.0,65.0,1
-120.0,-3.0,217.0,-258.0,-762.0,57.0,1
-113.0,-4.0,214.0,-244.0,-759.0,56.0,1
-111.0,-6.0,217.0,-240.0,-758.0,50.0,1
-109.0,-9.0,219.0,-241.0,-757.0,51.0,1
-105.0,-7.0,219.0,-244.0,-757.0,47.0,1
-101.0,-12.0,223.0,-242.0,-750.0,46.0,1
-102.0,-14.0,220.0,-234.0,-740.0,39.0,1
-100.0,-18.0,222.0,-228.0,-734.0,39.0,1
-97.0,-19.0,222.0,-222.0,-724.0,29.0,1
-93.0,-21.0,223.0,-213.0,-706.0,24.0,1
-88.0,-20.0,227.0,-204.0,-682.0,13.0,1
-83.0,-21.0,230.0,-198.0,-653.0,9.0,1
-77.0,-25.0,225.0,-188.0,-625.0,1.0,1
-73.0,-24.0,232.0,-182.0,-596.0,-1.0,1
-66.0,-26.0,230.0,-180.0,-563.0,-8.0,1
-60.0,-27.0,234.0,-180.0,-529.0,-11.0,1
-60.0,-23.0,231.0,-179.0,-489.0,-18.0,1
-59.0,-24.0,231.0,-178.0,-458.0,-22.0,1
-57.0,-25.0,232.0,-177.0,-426.0,-27.0,1
-54.0,-25.0,230.0,-173.0,-395.0,-28.0,1
-58.0,-21.0,227.0,-174.0,-368.0,-34.0,1
-56.0,-21.0,229.0,-178.0,-344.0,-33.0,1
-58.0,-21.0,234.0,-182.0,-323.0,-36.0,1
-59.0,-21.0,230.0,-186.0,-306.0,-32.0,1
-58.0,-23.0,230.0,-196.0,-295.0,-34.0,1
-57.0,-26.0,231.0,-204.0,-285.0,-31.0,1
-59.0,-26.0,231.0,-212.0,-271.0,-29.0,1
-60.0,-28.0,231.0,-219.0,-261.0,-24.0,1
-61.0,-29.0,231.0,-225.0,-250.0,-26.0,1
-62.0,-31.0,232.0,-232.0,-235.0,-23.0,1
-62.0,-33.0,237.0,-228.0,-217.0,-23.0,1
-68.0,-30.0,231.0,-225.0,-197.0,-19.0,1
-65.0,-36.0,228.0,-224.0,-175.0,-18.0,1
-66.0,-30.0,231.0,-217.0,-151.0,-14.0,1
-67.0,-32.0,230.0,-211.0,-125.0,-13.0,1
-70.0,-29.0,229.0,-208.0,-103.0,-6.0,1
-75.0,-30.0,228.0,-204.0,-76.0,-7.0,1
-73.0,-30.0,230.0,-193.0,-54.0,-4.0,1
-77.0,-28.0,228.0,-176.0,-32.0,-7.0,1
-78.0,-28.0,226.0,-159.0,-10.0,-6.0,1
-79.0,-28.0,222.0,-139.0,11.0,-9.0,1
-81.0,-26.0,225.0,-121.0,31.0,-10.0,1
-84.0,-25.0,221.0,-112.0,51.0,-13.0,1
-85.0,-20.0,223.0,-106.0,65.0,-13.0,1
-89.0,-24.0,221.0,-101.0,78.0,-16.0,1
-90.0,-23.0,223.0,-92.0,86.0,-18.0,1
-90.0,-25.0,219.0,-88.0,93.0,-22.0,1
-93.0,-23.0,220.0,-85.0,99.0,-20.0,1
-93.0,-22.0,220.0,-85.0,101.0,-22.0,1
-96.0,-19.0,219.0,-83.0,106.0,-22.0,1
-97.0,-18.0,221.0,-82.0,111.0,-23.0,1
-95.0,-21.0,221.0,-78.0,117.0,-21.0,1
-98.0,-23.0,221.0,-76.0,119.0,-23.0,1
-97.0,-19.0,219.0,-73.0,122.0,-23.0,1
-105.0,-19.0,222.0,-70.0,123.0,-26.0,1
-99.0,-22.0,216.0,-68.0,125.0,-25.0,1
-106.0,-16.0,219.0,-62.0,129.0,-27.0,1
-104.0,-20.0,215.0,-57.0,131.0,-26.0,1
-102.0,-21.0,219.0,-52.0,134.0,-28.0,1
-104.0,-21.0,219.0,-48.0,135.0,-26.0,1
-102.0,-23.0,216.0,-45.0,134.0,-28.0,1
-106.0,-22.0,218.0,-44.0,132.0,-25.0,1
-106.0,-21.0,215.0,-39.0,126.0,-28.0,1
-103.0,-23.0,216.0,-35.0,122.0,-28.0,1
-102.0,-22.0,216.0,-32.0,121.0,-29.0,1
-101.0,-19.0,215.0,-28.0,121.0,-29.0,1
-100.0,-21.0,217.0,-26.0,118.0,-33.0,1
-100.0,-24.0,215.0,-25.0,116.0,-32.0,1
-99.0,-21.0,212.0,-26.0,115.0,-35.0,1
-97.0,-21.0,218.0,-22.0,113.0,-35.0,1
-98.0,-21.0,215.0,-21.0,113.0,-37.0,1
-96.0,-22.0,219.0,-19.0,113.0,-37.0,1
-97.0,-23.0,217.0,-18.0,111.0,-40.0,1
-95.0,-25.0,216.0,-19.0,108.0,-40.0,1
-99.0,-26.0,218.0,-16.0,107.0,-40.0,1
-97.0,-25.0,217.0,-12.0,105.0,-41.0,1
-99.0,-26.0,215.0,-8.0,105.0,-42.0,1
-100.0,-25.0,218.0,-3.0,102.0,-42.0,1
-98.0,-26.0,218.0,0.0,102.0,-44.0,1
-98.0,-24.0,212.0,-1.0,103.0,-45.0,1
-97.0,-28.0,218.0,-7.0,103.0,-46.0,1
-96.0,-26.0,215.0,-14.0,103.0,-45.0,1
-100.0,-27.0,218.0,-21.0,103.0,-45.0,1
-97.0,-25.0,215.0,-26.0,103.0,-44.0,1
-97.0,-28.0,216.0,-29.0,103.0,-44.0,1
-96.0,-30.0,216.0,-29.0,105.0,-43.0,1
-97.0,-30.0,214.0,-26.0,108.0,-45.0,1
-95.0,-29.0,216.0,-22.0,110.0,-44.0,1
-96.0,-28.0,214.0,-24.0,115.0,-44.0,1
-92.0,-29.0,220.0,-26.0,117.0,-44.0,1
-94.0,-29.0,218.0,-30.0,119.0,-44.0,1
-95.0,-30.0,219.0,-35.0,122.0,-44.0,1
-93.0,-28.0,217.0,-41.0,123.0,-46.0,1
-96.0,-33.0,219.0,-45.0,127.0,-47.0,1
-95.0,-32.0,221.0,-43.0,129.0,-47.0,1
-96.0,-29.0,220.0,-40.0,128.0,-47.0,1
-98.0,-29.0,221.0,-37.0,133.0,-50.0,1
-97.0,-30.0,224.0,-43.0,136.0,-51.0,1
-96.0,-28.0,226.0,-48.0,140.0,-50.0,1
-97.0,-28.0,225.0,-47.0,141.0,-45.0,1
-97.0,-25.0,221.0,-45.0,142.0,-41.0,1
-102.0,-25.0,220.0,-43.0,142.0,-39.0,1
-98.0,-21.0,220.0,-44.0,143.0,-36.0,1
-97.0,-24.0,223.0,-45.0,146.0,-35.0,1
-99.0,-19.0,219.0,-41.0,148.0,-31.0,1
-102.0,-21.0,221.0,-35.0,151.0,-29.0,1
-101.0,-19.0,214.0,-28.0,154.0,-25.0,1
-102.0,-18.0,217.0,-24.0,154.0,-22.0,1
-103.0,-17.0,214.0,-25.0,153.0,-22.0,1
-105.0,-15.0,216.0,-30.0,150.0,-20.0,1
-104.0,-18.0,221.0,-31.0,148.0,-17.0,1
-106.0,-16.0,215.0,-30.0,141.0,-14.0,1
-108.0,-15.0,214.0,-30.0,130.0,-8.0,1
-108.0,-17.0,210.0,-33.0,118.0,-7.0,1
-108.0,-16.0,216.0,-38.0,104.0,-3.0,1
-110.0,-15.0,215.0,-44.0,88.0,-2.0,1
-108.0,-15.0,213.0,-46.0,69.0,0.0,1
-110.0,-20.0,211.0,-47.0,53.0,2.0,1
-112.0,-17.0,215.0,-50.0,38.0,4.0,1
-113.0,-16.0,209.0,-52.0,27.0,4.0,1
-114.0,-16.0,212.0,-50.0,18.0,6.0,1
-113.0,-17.0,215.0,-49.0,9.0,7.0,1
-117.0,-16.0,211.0,-49.0,-1.0,9.0,1
-117.0,-19.0,213.0,-53.0,-11.0,9.0,1
-116.0,-24.0,219.0,-56.0,-19.0,12.0,1
-117.0,-19.0,214.0,-60.0,-25.0,12.0,1
-116.0,-21.0,213.0,-62.0,-35.0,15.0,1
-114.0,-23.0,210.0,-62.0,-41.0,15.0,1
-117.0,-23.0,214.0,-62.0,-47.0,15.0,1
-112.0,-29.0,214.0,-60.0,-52.0,14.0,1
-113.0,-29.0,212.0,-57.0,-55.0,17.0,1
-110.0,-29.0,208.0,-54.0,-57.0,17.0,1
-109.0,-29.0,211.0,-51.0,-60.0,19.0,1
-111.0,-33.0,215.0,-48.0,-60.0,18.0,1
-105.0,-33.0,216.0,-47.0,-61.0,21.0,1
-103.0,-32.0,218.0,-46.0,-62.0,21.0,1
-104.0,-32.0,214.0,-43.0,-61.0,23.0,1
-102.0,-29.0,217.0,-42.0,-60.0,21.0,1
-100.0,-30.0,217.0,-41.0,-60.0,23.0,1
-101.0,-28.0,218.0,-42.0,-59.0,21.0,1
-98.0,-33.0,216.0,-42.0,-58.0,22.0,1
-97.0,-31.0,218.0,-41.0,-56.0,20.0,1
-94.0,-33.0,218.0,-38.0,-55.0,19.0,1
-94.0,-31.0,218.0,-39.0,-51.0,19.0,1
-92.0,-30.0,218.0,-39.0,-45.0,21.0,1
-94.0,-30.0,219.0,-42.0,-40.0,19.0,1
-89.0,-30.0,216.0,-43.0,-32.0,21.0,1
-86.0,-30.0,217.0,-47.0,-28.0,22.0,1
-87.0,-32.0,222.0,-49.0,-21.0,26.0,1
-88.0,-30.0,219.0,-52.0,-18.0,26.0,1
-87.0,-28.0,225.0,-53.0,-14.0,30.0,1
-84.0,-31.0,223.0,-55.0,-10.0,27.0,1
-86.0,-29.0,224.0,-53.0,-5.0,30.0,1
-85.0,-28.0,224.0,-55.0,-1.0,27.0,1
-85.0,-26.0,227.0,-57.0,4.0,29.0,1
-81.0,-30.0,221.0,-58.0,8.0,27.0,1
-84.0,-26.0,221.0,-57.0,12.0,30.0,1
-86.0,-27.0,221.0,-54.0,13.0,29.0,1
-85.0,-27.0,226.0,-52.0,18.0,30.0,1
-86.0,-27.0,226.0,-55.0,23.0,26.0,1
-88.0,-27.0,224.0,-54.0,26.0,28.0,1
-86.0,-27.0,223.0,-51.0,28.0,24.0,1
-85.0,-30.0,219.0,-47.0,33.0,24.0,1
-85.0,-27.0,220.0,-43.0,36.0,20.0,1
-89.0,-26.0,225.0,-38.0,41.0,20.0,1
-92.0,-26.0,221.0,-38.0,44.0,16.0,1
-89.0,-24.0,219.0,-38.0,49.0,16.0,1
-92.0,-30.0,225.0,-42.0,52.0,11.0,1
-90.0,-25.0,219.0,-44.0,56.0,13.0,1
-92.0,-26.0,218.0,-48.0,56.0,10.0,1
-91.0,-26.0,224.0,-50.0,59.0,10.0,1
-93.0,-26.0,221.0,-52.0,60.0,5.0,1
-90.0,-27.0,221.0,-51.0,62.0,6.0,1
-93.0,-28.0,223.0,-47.0,65.0,1.0,1
-93.0,-29.0,222.0,-42.0,69.0,0.0,1
-94.0,-30.0,218.0,-37.0,71.0,-5.0,1
-96.0,-29.0,216.0,-32.0,74.0,-6.0,1
-99.0,-30.0,217.0,-26.0,80.0,-10.0,1
-96.0,-23.0,218.0,-21.0,82.0,-8.0,1
-95.0,-28.0,217.0,-18.0,84.0,-12.0,1
-97.0,-27.0,218.0,-15.0,87.0,-10.0,1
-95.0,-26.0,221.0,-12.0,89.0,-12.0,1
-97.0,-29.0,216.0,-12.0,89.0,-9.0,1
-100.0,-27.0,216.0,-12.0,90.0,-12.0,1
-96.0,-26.0,218.0,-10.0,91.0,-8.0,1
-97.0,-29.0,218.0,-10.0,89.0,-10.0,1
-99.0,-26.0,219.0,-9.0,88.0,-8.0,1
-96.0,-29.0,218.0,-12.0,86.0,-11.0,1
-101.0,-26.0,218.0,-11.0,85.0,-7.0,1
-97.0,-29.0,218.0,-10.0,84.0,-12.0,1
-101.0,-29.0,218.0,-9.0,83.0,-9.0,1
-98.0,-28.0,217.0,-10.0,81.0,-10.0,1
-98.0,-30.0,220.0,-10.0,80.0,-6.0,1
-100.0,-28.0,219.0,-9.0,79.0,-8.0,1
-98.0,-27.0,215.0,-7.0,78.0,-4.0,1
-94.0,-33.0,214.0,-5.0,77.0,-6.0,1
-97.0,-26.0,213.0,-3.0,77.0,-3.0,1
-101.0,-27.0,215.0,-4.0,78.0,-4.0,1
-100.0,-26.0,218.0,-6.0,79.0,-1.0,1
-97.0,-33.0,220.0,-11.0,79.0,-3.0,1
-98.0,-29.0,219.0,-13.0,80.0,1.0,1
-97.0,-29.0,215.0,-14.0,78.0,-1.0,1
-99.0,-29.0,216.0,-16.0,78.0,2.0,1
-100.0,-30.0,214.0,-13.0,77.0,0.0,1
-95.0,-29.0,217.0,-11.0,76.0,1.0,1
-94.0,-29.0,216.0,-10.0,76.0,0.0,1
-96.0,-31.0,217.0,-9.0,75.0,5.0,1
-96.0,-28.0,215.0,-9.0,74.0,1.0,1
-94.0,-30.0,217.0,-10.0,76.0,4.0,1
-95.0,-30.0,215.0,-12.0,74.0,3.0,1
-96.0,-31.0,220.0,-15.0,72.0,5.0,1
-93.0,-28.0,218.0,-12.0,73.0,4.0,1
-95.0,-31.0,220.0,-7.0,72.0,6.0,1
-94.0,-29.0,216.0,-5.0,73.0,3.0,1
-98.0,-29.0,216.0,-7.0,76.0,1.0,1
-95.0,-26.0,216.0,-14.0,77.0,-1.0,1
-97.0,-28.0,220.0,-17.0,78.0,0.0,1
-98.0,-26.0,217.0,-15.0,76.0,-1.0,1
-97.0,-28.0,221.0,-12.0,75.0,1.0,1
-96.0,-24.0,216.0,-11.0,73.0,-4.0,1
-97.0,-29.0,219.0,-12.0,74.0,-1.0,1
-97.0,-29.0,218.0,-11.0,75.0,-4.0,1
-96.0,-28.0,218.0,-9.0,75.0,-2.0,1
-97.0,-29.0,218.0,-4.0,76.0,-3.0,1
-95.0,-28.0,218.0,-3.0,78.0,-3.0,1
-95.0,-29.0,217.0,-2.0,79.0,-5.0,1
-95.0,-28.0,218.0,-4.0,79.0,-4.0,1
-98.0,-27.0,219.0,-8.0,80.0,-5.0,1
-95.0,-28.0,218.0,-8.0,79.0,-3.0,1
-98.0,-28.0,220.0,-11.0,78.0,-3.0,1
-96.0,-27.0,220.0,-16.0,76.0,-1.0,1
-97.0,-28.0,217.0,-21.0,73.0,-2.0,1
-98.0,-29.0,218.0,-26.0,70.0,1.0,1
-99.0,-28.0,217.0,-33.0,67.0,0.0,1
-95.0,-28.0,215.0,-37.0,63.0,3.0,1
-98.0,-27.0,222.0,-39.0,60.0,1.0,1
-95.0,-28.0,220.0,-39.0,58.0,2.0,1
-98.0,-30.0,220.0,-38.0,56.0,1.0,1
-96.0,-32.0,215.0,-37.0,55.0,2.0,1
-97.0,-29.0,220.0,-35.0,56.0,2.0,1
-96.0,-30.0,223.0,-34.0,57.0,3.0,1
-98.0,-26.0,221.0,-31.0,56.0,0.0,1
-97.0,-27.0,220.0,-29.0,55.0,2.0,1
-97.0,-26.0,218.0,-27.0,57.0,0.0,1
-96.0,-26.0,216.0,-24.0,54.0,1.0,1
-98.0,-27.0,219.0,-24.0,54.0,0.0,1
-99.0,-28.0,217.0,-23.0,52.0,-1.0,1
-97.0,-29.0,218.0,-25.0,52.0,-3.0,1
-98.0,-31.0,213.0,-24.0,50.0,-3.0,1
-99.0,-28.0,219.0,-24.0,49.0,-4.0,1
-98.0,-25.0,221.0,-24.0,48.0,-2.0,1
-100.0,-26.0,217.0,-25.0,46.0,-3.0,1
-99.0,-27.0,216.0,-25.0,45.0,-2.0,1
-99.0,-28.0,218.0,-26.0,44.0,-3.0,1
-100.0,-27.0,215.0,-27.0,42.0,-3.0,1
-100.0,-29.0,217.0,-29.0,41.0,-3.0,1
-98.0,-29.0,217.0,-30.0,39.0,-3.0,1
-99.0,-31.0,216.0,-30.0,39.0,-3.0,1
-94.0,-31.0,217.0,-29.0,39.0,-3.0,1
-97.0,-29.0,215.0,-30.0,39.0,-2.0,1
-96.0,-30.0,216.0,-30.0,39.0,-1.0,1
-96.0,-28.0,220.0,-30.0,42.0,-1.0,1
-96.0,-30.0,216.0,-30.0,42.0,-1.0,1
-95.0,-31.0,219.0,-29.0,44.0,-2.0,1
-93.0,-31.0,217.0,-27.0,46.0,-1.0,1
-98.0,-29.0,220.0,-26.0,45.0,0.0,1
-98.0,-30.0,219.0,-23.0,47.0,-1.0,1
-95.0,-28.0,219.0,-21.0,47.0,0.0,1
-93.0,-32.0,216.0,-20.0,48.0,1.0,1
-95.0,-31.0,219.0,-19.0,49.0,-1.0,1
-98.0,-33.0,216.0,-19.0,50.0,-2.0,1
-92.0,-29.0,219.0,-21.0,50.0,-2.0,1
-98.0,-30.0,220.0,-23.0,52.0,-1.0,1
-95.0,-30.0,217.0,-21.0,51.0,0.0,1
-96.0,-29.0,217.0,-16.0,50.0,1.0,1
-97.0,-25.0,218.0,-12.0,51.0,1.0,1
-94.0,-29.0,217.0,-11.0,50.0,1.0,1
-89.0,-31.0,217.0,-11.0,53.0,0.0,1
-95.0,-25.0,219.0,-12.0,51.0,0.0,1
-94.0,-30.0,219.0,-13.0,53.0,-3.0,1
-94.0,-27.0,218.0,-11.0,52.0,-3.0,1
-96.0,-27.0,219.0,-10.0,50.0,-4.0,1
-98.0,-26.0,217.0,-10.0,51.0,-6.0,1
-93.0,-29.0,219.0,-13.0,49.0,-6.0,1
-94.0,-29.0,220.0,-17.0,48.0,-9.0,1
-97.0,-31.0,218.0,-19.0,48.0,-8.0,1
-96.0,-29.0,223.0,-21.0,47.0,-11.0,1
-97.0,-30.0,222.0,-23.0,49.0,-11.0,1
-92.0,-31.0,220.0,-22.0,49.0,-11.0,1
-95.0,-33.0,220.0,-20.0,51.0,-11.0,1
-95.0,-32.0,222.0,-17.0,53.0,-12.0,1
-97.0,-31.0,218.0,-15.0,54.0,-12.0,1
-96.0,-32.0,218.0,-11.0,54.0,-13.0,1
-95.0,-33.0,218.0,-12.0,56.0,-13.0,1
-95.0,-29.0,217.0,-15.0,58.0,-12.0,1
-92.0,-30.0,219.0,-15.0,56.0,-9.0,1
-98.0,-28.0,217.0,-16.0,53.0,-13.0,1
-95.0,-30.0,223.0,-17.0,50.0,-14.0,1
-97.0,-32.0,216.0,-18.0,47.0,-17.0,1
-100.0,-29.0,221.0,-18.0,46.0,-17.0,1
-99.0,-31.0,214.0,-16.0,46.0,-20.0,1
-99.0,-30.0,217.0,-14.0,48.0,-22.0,1
-101.0,-29.0,218.0,-11.0,48.0,-25.0,1
-97.0,-28.0,216.0,-9.0,51.0,-25.0,1
-100.0,-27.0,218.0,-6.0,53.0,-28.0,1
-101.0,-27.0,217.0,-4.0,56.0,-25.0,1
-101.0,-24.0,216.0,-4.0,59.0,-25.0,1
-97.0,-26.0,222.0,-7.0,59.0,-22.0,1
-96.0,-23.0,218.0,-9.0,60.0,-21.0,1
-96.0,-21.0,221.0,-11.0,58.0,-17.0,1
-98.0,-26.0,218.0,-12.0,55.0,-14.0,1
-96.0,-23.0,219.0,-11.0,54.0,-9.0,1
-93.0,-24.0,222.0,-11.0,50.0,-10.0,1
-95.0,-26.0,218.0,-12.0,49.0,-6.0,1
-95.0,-24.0,220.0,-16.0,51.0,-7.0,1
-94.0,-26.0,222.0,-22.0,49.0,-3.0,1
-92.0,-26.0,218.0,-28.0,51.0,-3.0,1
-93.0,-24.0,220.0,-33.0,50.0,2.0,1
-94.0,-24.0,221.0,-37.0,51.0,4.0,1
-92.0,-25.0,221.0,-39.0,52.0,9.0,1
-92.0,-27.0,216.0,-39.0,53.0,11.0,1
-93.0,-25.0,217.0,-36.0,53.0,15.0,1
-93.0,-29.0,217.0,-35.0,54.0,14.0,1
-92.0,-28.0,219.0,-32.0,57.0,18.0,1
-96.0,-27.0,221.0,-33.0,58.0,17.0,1
-94.0,-29.0,218.0,-33.0,59.0,21.0,1
-94.0,-28.0,220.0,-34.0,57.0,20.0,1
-92.0,-31.0,217.0,-31.0,58.0,24.0,1
-93.0,-31.0,219.0,-24.0,59.0,22.0,1
-93.0,-32.0,213.0,-19.0,60.0,24.0,1
-95.0,-29.0,220.0,-18.0,62.0,19.0,1
-91.0,-30.0,224.0,-21.0,65.0,19.0,1
-98.0,-29.0,218.0,-23.0,67.0,15.0,1
-96.0,-27.0,218.0,-20.0,67.0,18.0,1
-96.0,-30.0,220.0,-18.0,66.0,15.0,1
-98.0,-28.0,220.0,-18.0,66.0,17.0,1
-99.0,-29.0,215.0,-19.0,64.0,11.0,1
-98.0,-35.0,217.0,-19.0,63.0,12.0,1
-97.0,-32.0,212.0,-17.0,63.0,8.0,1
-97.0,-31.0,216.0,-14.0,65.0,7.0,1
-97.0,-34.0,214.0,-10.0,64.0,2.0,1
-97.0,-34.0,218.0,-7.0,66.0,2.0,1
-98.0,-32.0,216.0,-8.0,66.0,-2.0,1
-98.0,-33.0,216.0,-9.0,65.0,-1.0,1
-99.0,-32.0,219.0,-7.0,67.0,-5.0,1
-96.0,-29.0,217.0,-7.0,69.0,-5.0,1
-99.0,-32.0,217.0,-8.0,68.0,-8.0,1
-98.0,-31.0,215.0,-12.0,65.0,-7.0,1
-96.0,-30.0,217.0,-15.0,63.0,-9.0,1
-100.0,-28.0,216.0,-17.0,59.0,-8.0,1
-98.0,-33.0,217.0,-21.0,57.0,-12.0,1
-99.0,-31.0,215.0,-23.0,56.0,-11.0,1
-98.0,-30.0,218.0,-22.0,55.0,-13.0,1
-100.0,-34.0,213.0,-21.0,54.0,-10.0,1
-94.0,-31.0,219.0,-22.0,54.0,-14.0,1
-98.0,-29.0,218.0,-21.0,53.0,-10.0,1
-95.0,-30.0,217.0,-18.0,54.0,-14.0,1
-97.0,-29.0,222.0,-18.0,53.0,-11.0,1
-95.0,-29.0,216.0,-17.0,52.0,-14.0,1
-95.0,-29.0,220.0,-18.0,52.0,-11.0,1
-98.0,-30.0,218.0,-17.0,52.0,-13.0,1
-94.0,-31.0,221.0,-17.0,52.0,-10.0,1
-94.0,-30.0,221.0,-17.0,51.0,-12.0,1
-96.0,-30.0,215.0,-19.0,50.0,-8.0,1
-94.0,-29.0,222.0,-19.0,50.0,-11.0,1
-96.0,-27.0,218.0,-19.0,51.0,-8.0,1
-94.0,-29.0,219.0,-20.0,52.0,-11.0,1
-93.0,-30.0,217.0,-20.0,53.0,-7.0,1
-94.0,-29.0,219.0,-19.0,56.0,-9.0,1
-94.0,-30.0,215.0,-18.0,58.0,-6.0,1
-92.0,-30.0,219.0,-19.0,58.0,-9.0,1
-94.0,-28.0,221.0,-20.0,59.0,-5.0,1
-95.0,-28.0,220.0,-23.0,60.0,-7.0,1
-92.0,-28.0,220.0,-24.0,62.0,-3.0,1
-93.0,-32.0,221.0,-25.0,63.0,-5.0,1
-95.0,-28.0,222.0,-24.0,63.0,-2.0,1
-96.0,-27.0,221.0,-23.0,63.0,-3.0,1
-93.0,-26.0,220.0,-23.0,62.0,1.0,1
-93.0,-29.0,223.0,-25.0,64.0,-1.0,1
-95.0,-27.0,222.0,-25.0,62.0,2.0,1
-95.0,-28.0,219.0,-24.0,62.0,1.0,1
-96.0,-29.0,218.0,-25.0,61.0,3.0,1
-97.0,-30.0,221.0,-24.0,62.0,2.0,1
-98.0,-28.0,217.0,-21.0,62.0,3.0,1
-96.0,-29.0,215.0,-23.0,61.0,0.0,1
-97.0,-30.0,220.0,-22.0,62.0,1.0,1
-95.0,-29.0,220.0,-23.0,63.0,-1.0,1
-96.0,-29.0,214.0,-26.0,62.0,1.0,1
-93.0,-31.0,216.0,-28.0,60.0,-2.0,1
-97.0,-27.0,217.0,-26.0,60.0,0.0,1
-97.0,-30.0,219.0,-20.0,59.0,-2.0,1
-96.0,-29.0,218.0,-17.0,61.0,-3.0,1
-93.0,-29.0,219.0,-15.0,61.0,-6.0,1
-95.0,-30.0,219.0,-14.0,62.0,-5.0,1
-95.0,-33.0,215.0,-15.0,64.0,-6.0,1
-96.0,-30.0,222.0,-12.0,65.0,-4.0,1
-97.0,-30.0,219.0,-10.0,66.0,-7.0,1
-97.0,-30.0,219.0,-10.0,65.0,-5.0,1
-95.0,-29.0,221.0,-11.0,64.0,-8.0,1
-98.0,-29.0,217.0,-11.0,65.0,-6.0,1
-99.0,-31.0,217.0,-14.0,65.0,-8.0,1
-97.0,-28.0,219.0,-14.0,65.0,-5.0,1
-98.0,-29.0,219.0,-17.0,65.0,-7.0,1
-97.0,-31.0,219.0,-18.0,65.0,-5.0,1
-99.0,-30.0,218.0,-19.0,65.0,-5.0,1
-100.0,-30.0,212.0,-19.0,65.0,-3.0,1
-97.0,-29.0,219.0,-19.0,66.0,-5.0,1
-102.0,-30.0,221.0,-19.0,65.0,-2.0,1
-95.0,-32.0,221.0,-18.0,64.0,-5.0,1
-95.0,-31.0,220.0,-18.0,64.0,-3.0,1
-96.0,-29.0,219.0,-17.0,63.0,-3.0,1
-97.0,-27.0,218.0,-16.0,62.0,-1.0,1
-96.0,-29.0,219.0,-18.0,62.0,-1.0,1
-96.0,-28.0,221.0,-20.0,61.0,1.0,1
-93.0,-27.0,215.0,-20.0,59.0,1.0,1
-95.0,-31.0,219.0,-22.0,57.0,3.0,1
-96.0,-30.0,221.0,-21.0,57.0,1.0,1
-96.0,-29.0,220.0,-22.0,54.0,2.0,1
-95.0,-30.0,218.0,-22.0,56.0,1.0,1
-94.0,-33.0,219.0,-21.0,56.0,3.0,1
-97.0,-31.0,218.0,-19.0,56.0,1.0,1
-95.0,-27.0,216.0,-18.0,56.0,1.0,1
-95.0,-30.0,220.0,-20.0,56.0,-1.0,1
-95.0,-31.0,222.0,-21.0,55.0,1.0,1
-94.0,-33.0,218.0,-19.0,54.0,1.0,1
-96.0,-29.0,218.0,-18.0,54.0,1.0,1
-94.0,-34.0,220.0,-14.0,54.0,-1.0,1
-96.0,-32.0,215.0,-11.0,53.0,1.0,1
-97.0,-30.0,218.0,-9.0,54.0,-2.0,1
-94.0,-30.0,216.0,-9.0,55.0,-3.0,1
-94.0,-32.0,220.0,-12.0,59.0,-5.0,1
-98.0,-27.0,215.0,-14.0,60.0,-5.0,1
-96.0,-32.0,220.0,-17.0,62.0,-5.0,1
-95.0,-32.0,218.0,-19.0,60.0,-5.0,1
-97.0,-32.0,218.0,-19.0,61.0,-3.0,1
-96.0,-30.0,216.0,-17.0,62.0,-3.0,1
-95.0,-30.0,216.0,-12.0,63.0,-3.0,1
-95.0,-32.0,217.0,-10.0,60.0,-2.0,1
-94.0,-31.0,219.0,-9.0,62.0,-2.0,1
-95.0,-30.0,215.0,-8.0,62.0,-1.0,1
-93.0,-29.0,217.0,-10.0,63.0,-1.0,1
-96.0,-29.0,219.0,-11.0,60.0,-1.0,1
-94.0,-30.0,218.0,-10.0,61.0,-1.0,1
-94.0,-31.0,215.0,-9.0,61.0,-1.0,1
-94.0,-30.0,221.0,-5.0,59.0,0.0,1
-93.0,-31.0,216.0,-2.0,60.0,-2.0,1
-94.0,-28.0,215.0,-6.0,61.0,-6.0,1
-97.0,-29.0,219.0,-13.0,64.0,-6.0,1
-97.0,-29.0,220.0,-15.0,64.0,-7.0,1
-98.0,-30.0,217.0,-14.0,65.0,-7.0,1
-98.0,-27.0,218.0,-14.0,63.0,-8.0,1
-97.0,-29.0,220.0,-14.0,64.0,-7.0,1
-99.0,-30.0,217.0,-17.0,63.0,-6.0,1
-95.0,-30.0,216.0,-18.0,63.0,-5.0,1
-98.0,-29.0,215.0,-15.0,64.0,-6.0,1
-95.0,-31.0,217.0,-14.0,65.0,-5.0,1
-96.0,-31.0,216.0,-12.0,66.0,-7.0,1
-94.0,-30.0,220.0,-12.0,66.0,-7.0,1
-94.0,-32.0,218.0,-12.0,68.0,-8.0,1
-93.0,-31.0,221.0,-13.0,71.0,-7.0,1
-95.0,-33.0,215.0,-12.0,73.0,-5.0,1
-93.0,-30.0,219.0,-12.0,74.0,-5.0,1
-96.0,-27.0,215.0,-15.0,72.0,-3.0,1
-96.0,-31.0,217.0,-20.0,71.0,-3.0,1
-95.0,-30.0,215.0,-25.0,67.0,-2.0,1
-97.0,-30.0,215.0,-29.0,66.0,-3.0,1
-93.0,-31.0,216.0,-34.0,62.0,-2.0,1
-95.0,-31.0,222.0,-37.0,61.0,-2.0,1
-96.0,-31.0,214.0,-38.0,60.0,-2.0,1
-95.0,-31.0,219.0,-37.0,61.0,-2.0,1
-95.0,-30.0,218.0,-37.0,62.0,-1.0,1
-94.0,-28.0,219.0,-38.0,63.0,-3.0,1
-93.0,-31.0,220.0,-36.0,66.0,-1.0,1
-94.0,-28.0,222.0,-34.0,67.0,-4.0,1
-95.0,-31.0,220.0,-33.0,67.0,-2.0,1
-96.0,-29.0,221.0,-30.0,68.0,-2.0,1
-94.0,-30.0,214.0,-31.0,68.0,-3.0,1
-95.0,-30.0,218.0,-34.0,69.0,-3.0,1
-95.0,-29.0,220.0,-33.0,69.0,-3.0,1
-95.0,-31.0,216.0,-33.0,69.0,-4.0,1
-93.0,-30.0,220.0,-34.0,70.0,-1.0,1
-97.0,-30.0,221.0,-32.0,69.0,-4.0,1
-95.0,-28.0,217.0,-33.0,68.0,-3.0,1
-94.0,-32.0,220.0,-33.0,67.0,-5.0,1
-96.0,-28.0,219.0,-36.0,66.0,-3.0,1
-88.0,-28.0,204.0,-36.0,65.0,-5.0,1
-94.0,-27.0,216.0,-36.0,63.0,-2.0,1
-99.0,-29.0,203.0,-36.0,61.0,-6.0,1
-86.0,-27.0,221.0,-35.0,61.0,-4.0,1
-94.0,-32.0,224.0,-33.0,60.0,-5.0,1
-102.0,-31.0,233.0,-34.0,61.0,-2.0,1
-106.0,-35.0,221.0,-32.0,61.0,-3.0,1
-100.0,-31.0,220.0,-32.0,60.0,-1.0,1
-97.0,-30.0,217.0,-32.0,60.0,-2.0,1
-99.0,-30.0,217.0,-32.0,57.0,1.0,1
-98.0,-31.0,216.0,-31.0,59.0,0.0,1
-96.0,-34.0,218.0,-31.0,61.0,2.0,1
-98.0,-30.0,217.0,-30.0,60.0,0.0,1
-94.0,-33.0,218.0,-31.0,62.0,3.0,1
-97.0,-33.0,215.0,-30.0,60.0,2.0,1
-96.0,-34.0,217.0,-27.0,60.0,1.0,1
-97.0,-31.0,217.0,-25.0,61.0,-1.0,1
-98.0,-30.0,217.0,-26.0,61.0,1.0,1
-100.0,-30.0,217.0,-30.0,59.0,1.0,1
-96.0,-31.0,221.0,-31.0,57.0,4.0,1
-97.0,-30.0,219.0,-29.0,54.0,1.0,1
-97.0,-30.0,215.0,-24.0,54.0,3.0,1
-95.0,-31.0,221.0,-22.0,54.0,0.0,1
-95.0,-30.0,216.0,-22.0,55.0,2.0,1
-96.0,-34.0,216.0,-22.0,56.0,0.0,1
-95.0,-30.0,215.0,-21.0,57.0,2.0,1
-96.0,-32.0,219.0,-20.0,56.0,0.0,1
-97.0,-30.0,219.0,-19.0,57.0,3.0,1
-97.0,-31.0,220.0,-17.0,57.0,0.0,1
-95.0,-31.0,217.0,-17.0,57.0,3.0,1
-96.0,-32.0,219.0,-19.0,57.0,0.0,1
-94.0,-30.0,217.0,-19.0,56.0,1.0,1
-93.0,-31.0,218.0,-22.0,55.0,-1.0,1
-96.0,-29.0,215.0,-23.0,54.0,2.0,1
-95.0,-31.0,218.0,-24.0,54.0,-1.0,1
-97.0,-32.0,221.0,-23.0,55.0,1.0,1
-94.0,-35.0,217.0,-21.0,56.0,-2.0,1
-95.0,-33.0,221.0,-20.0,58.0,0.0,1
-95.0,-31.0,216.0,-19.0,57.0,-1.0,1
-93.0,-33.0,216.0,-17.0,60.0,1.0,1
-97.0,-29.0,220.0,-16.0,62.0,-1.0,1
-97.0,-31.0,218.0,-15.0,63.0,0.0,1
-95.0,-29.0,215.0,-15.0,65.0,-2.0,1
-92.0,-31.0,218.0,-13.0,65.0,1.0,1
-96.0,-30.0,221.0,-15.0,66.0,0.0,1
-95.0,-31.0,218.0,-15.0,66.0,3.0,1
-97.0,-30.0,221.0,-16.0,66.0,1.0,1
-95.0,-30.0,219.0,-16.0,66.0,4.0,1
-94.0,-29.0,219.0,-17.0,66.0,3.0,1
-95.0,-31.0,217.0,-18.0,65.0,6.0,1
-95.0,-31.0,220.0,-20.0,62.0,3.0,1
-93.0,-33.0,217.0,-20.0,60.0,5.0,1
-95.0,-31.0,221.0,-21.0,60.0,2.0,1
-95.0,-30.0,217.0,-20.0,61.0,3.0,1
-93.0,-31.0,218.0,-20.0,59.0,0.0,1
-93.0,-31.0,218.0,-18.0,59.0,2.0,1
-94.0,-30.0,220.0,-18.0,60.0,1.0,1
-96.0,-29.0,221.0,-17.0,61.0,2.0,1
-93.0,-33.0,214.0,-17.0,60.0,0.0,1
-96.0,-31.0,216.0,-14.0,60.0,2.0,1
-98.0,-32.0,213.0,-12.0,60.0,0.0,1
-99.0,-30.0,219.0,-8.0,62.0,0.0,1
-95.0,-32.0,216.0,-6.0,64.0,-2.0,1
-96.0,-29.0,220.0,-6.0,66.0,-1.0,1
-97.0,-31.0,221.0,-7.0,69.0,-4.0,1
-97.0,-31.0,217.0,-12.0,69.0,-1.0,1
-98.0,-31.0,222.0,-14.0,69.0,-2.0,1
-96.0,-31.0,215.0,-15.0,71.0,-1.0,1
-95.0,-31.0,219.0,-15.0,73.0,-1.0,1
-97.0,-30.0,215.0,-12.0,70.0,1.0,1
-97.0,-33.0,220.0,-11.0,71.0,-1.0,1
-96.0,-34.0,216.0,-7.0,72.0,2.0,1
-94.0,-29.0,215.0,-5.0,72.0,0.0,1
-98.0,-31.0,219.0,-5.0,74.0,2.0,1
-96.0,-31.0,217.0,-6.0,75.0,1.0,1
-98.0,-33.0,220.0,-6.0,73.0,4.0,1
-94.0,-33.0,220.0,-8.0,72.0,2.0,1
-93.0,-32.0,220.0,-6.0,71.0,6.0,1
-95.0,-30.0,217.0,-2.0,71.0,3.0,1
-98.0,-28.0,220.0,1.0,73.0,5.0,1
-95.0,-30.0,219.0,0.0,72.0,2.0,1
-97.0,-28.0,214.0,-5.0,73.0,3.0,1
-97.0,-29.0,221.0,-7.0,74.0,0.0,1
-99.0,-33.0,216.0,-5.0,74.0,1.0,1
-98.0,-33.0,218.0,-2.0,72.0,-2.0,1
-98.0,-28.0,221.0,-1.0,70.0,-1.0,1
-96.0,-31.0,216.0,-3.0,70.0,-3.0,1
-97.0,-34.0,217.0,-3.0,68.0,1.0,1
-97.0,-33.0,218.0,0.0,68.0,-1.0,1
-98.0,-29.0,219.0,3.0,70.0,-1.0,1
-95.0,-33.0,217.0,5.0,69.0,-4.0,1
-97.0,-31.0,216.0,5.0,73.0,-2.0,1
-95.0,-33.0,216.0,5.0,75.0,-3.0,1
-95.0,-31.0,219.0,4.0,78.0,-1.0,1
-95.0,-32.0,219.0,5.0,79.0,-1.0,1
-94.0,-33.0,218.0,3.0,78.0,1.0,1
-96.0,-29.0,219.0,-2.0,78.0,1.0,1
-96.0,-33.0,218.0,-6.0,78.0,3.0,1
-99.0,-31.0,218.0,-11.0,76.0,4.0,1
-96.0,-28.0,220.0,-15.0,72.0,6.0,1
-96.0,-31.0,216.0,-17.0,71.0,4.0,1
-99.0,-33.0,218.0,-18.0,70.0,7.0,1
-97.0,-31.0,218.0,-16.0,70.0,5.0,1
-95.0,-29.0,221.0,-14.0,71.0,5.0,1
-97.0,-31.0,217.0,-11.0,73.0,4.0,1
-98.0,-31.0,219.0,-8.0,74.0,5.0,1
-97.0,-30.0,219.0,-4.0,77.0,3.0,1
-98.0,-29.0,222.0,-1.0,79.0,3.0,1
-96.0,-30.0,217.0,2.0,81.0,3.0,1
-95.0,-29.0,219.0,3.0,81.0,2.0,1
-98.0,-27.0,221.0,6.0,82.0,1.0,1
-96.0,-29.0,219.0,7.0,83.0,2.0,1
-99.0,-27.0,218.0,7.0,83.0,1.0,1
-95.0,-30.0,223.0,7.0,83.0,1.0,1
-97.0,-29.0,215.0,7.0,82.0,1.0,1
-97.0,-29.0,219.0,6.0,82.0,1.0,1
-98.0,-30.0,222.0,4.0,81.0,1.0,1
-99.0,-27.0,218.0,4.0,81.0,1.0,1
-97.0,-27.0,217.0,2.0,81.0,0.0,1
-96.0,-29.0,220.0,2.0,78.0,1.0,1
-97.0,-28.0,219.0,5.0,78.0,0.0,1
-96.0,-28.0,214.0,5.0,78.0,1.0,1
-97.0,-31.0,217.0,5.0,78.0,-1.0,1
-97.0,-30.0,220.0,5.0,77.0,1.0,1
-97.0,-29.0,215.0,4.0,76.0,0.0,1
-97.0,-32.0,216.0,4.0,77.0,2.0,1
-98.0,-33.0,222.0,5.0,76.0,2.0,1
-96.0,-31.0,218.0,6.0,77.0,2.0,1
-97.0,-31.0,220.0,7.0,78.0,3.0,1
-96.0,-27.0,223.0,8.0,79.0,3.0,1
-97.0,-33.0,216.0,7.0,79.0,3.0,1
-99.0,-31.0,217.0,8.0,81.0,4.0,1
-95.0,-29.0,217.0,9.0,80.0,4.0,1
-100.0,-30.0,215.0,10.0,81.0,4.0,1
-97.0,-30.0,218.0,10.0,81.0,4.0,1
-93.0,-30.0,214.0,11.0,82.0,4.0,1
-99.0,-31.0,218.0,11.0,82.0,4.0,1
-99.0,-31.0,214.0,6.0,83.0,5.0,1
-102.0,-28.0,216.0,2.0,81.0,6.0,1
-99.0,-28.0,220.0,1.0,81.0,6.0,1
-97.0,-30.0,221.0,5.0,80.0,5.0,1
-99.0,-32.0,214.0,9.0,80.0,3.0,1
-98.0,-30.0,216.0,13.0,81.0,1.0,1
-97.0,-32.0,217.0,16.0,81.0,1.0,1
-97.0,-33.0,217.0,18.0,84.0,1.0,1
-98.0,-32.0,214.0,21.0,83.0,0.0,1
-97.0,-31.0,216.0,22.0,83.0,0.0,1
-99.0,-30.0,218.0,21.0,82.0,-2.0,1
-98.0,-31.0,217.0,19.0,81.0,-1.0,1
-97.0,-31.0,213.0,18.0,82.0,0.0,1
-99.0,-29.0,210.0,15.0,80.0,-1.0,1
-99.0,-28.0,218.0,11.0,77.0,1.0,1
-99.0,-28.0,217.0,9.0,78.0,0.0,1
-100.0,-26.0,217.0,6.0,78.0,0.0,1
-98.0,-29.0,217.0,5.0,78.0,1.0,1
-97.0,-28.0,215.0,5.0,79.0,0.0,1
-99.0,-29.0,220.0,4.0,80.0,1.0,1
-98.0,-31.0,219.0,4.0,82.0,-1.0,1
-100.0,-28.0,216.0,4.0,83.0,2.0,1
-99.0,-32.0,217.0,3.0,85.0,2.0,1
-98.0,-30.0,216.0,4.0,87.0,2.0,1
-100.0,-27.0,221.0,5.0,88.0,1.0,1
-100.0,-29.0,215.0,7.0,89.0,3.0,1
-98.0,-29.0,220.0,10.0,90.0,3.0,1
-98.0,-29.0,218.0,10.0,91.0,4.0,1
-100.0,-28.0,219.0,13.0,91.0,4.0,1
-98.0,-30.0,217.0,16.0,91.0,6.0,1
-99.0,-27.0,218.0,19.0,88.0,1.0,1
-100.0,-25.0,220.0,19.0,88.0,3.0,1
-99.0,-25.0,216.0,19.0,87.0,3.0,1
-99.0,-26.0,216.0,18.0,85.0,4.0,1
-98.0,-30.0,220.0,15.0,84.0,3.0,1
-100.0,-25.0,218.0,15.0,83.0,3.0,1
-100.0,-27.0,218.0,13.0,82.0,1.0,1
-99.0,-25.0,215.0,13.0,81.0,2.0,1
-101.0,-28.0,216.0,14.0,79.0,-1.0,1
-100.0,-29.0,217.0,14.0,80.0,1.0,1
-97.0,-30.0,217.0,15.0,81.0,-2.0,1
-99.0,-27.0,218.0,15.0,80.0,0.0,1
-99.0,-25.0,215.0,17.0,78.0,-1.0,1
-98.0,-28.0,215.0,19.0,77.0,0.0,1
-101.0,-27.0,216.0,21.0,78.0,-1.0,1
-98.0,-28.0,214.0,23.0,76.0,-1.0,1
-101.0,-29.0,218.0,25.0,76.0,-4.0,1
-97.0,-29.0,215.0,26.0,75.0,-3.0,1
-99.0,-30.0,215.0,24.0,74.0,-4.0,1
-99.0,-28.0,215.0,21.0,73.0,-4.0,1
-101.0,-30.0,215.0,17.0,71.0,-7.0,1
-101.0,-29.0,219.0,12.0,71.0,-5.0,1
-99.0,-26.0,215.0,6.0,71.0,-6.0,1
-99.0,-27.0,219.0,1.0,69.0,-4.0,1
-98.0,-27.0,217.0,0.0,68.0,-5.0,1
-100.0,-28.0,215.0,1.0,67.0,-4.0,1
-102.0,-25.0,216.0,1.0,66.0,-5.0,1
-100.0,-29.0,218.0,4.0,66.0,-3.0,1
-99.0,-27.0,214.0,6.0,65.0,-5.0,1
-101.0,-27.0,215.0,6.0,62.0,-1.0,1
-98.0,-27.0,216.0,5.0,61.0,-1.0,1
-100.0,-27.0,214.0,1.0,58.0,2.0,1
-101.0,-26.0,213.0,-4.0,56.0,1.0,1
-99.0,-27.0,218.0,-8.0,55.0,1.0,1
-101.0,-29.0,216.0,-8.0,56.0,-3.0,1
-99.0,-28.0,217.0,-4.0,57.0,-3.0,1
-100.0,-28.0,216.0,-2.0,58.0,-7.0,1
-102.0,-28.0,215.0,0.0,57.0,-7.0,1
-101.0,-29.0,213.0,5.0,58.0,-9.0,1
-98.0,-28.0,216.0,9.0,58.0,-8.0,1
-103.0,-26.0,216.0,5.0,58.0,-10.0,1
-102.0,-27.0,215.0,1.0,58.0,-6.0,1
-98.0,-26.0,216.0,-4.0,55.0,-9.0,1
-104.0,-24.0,212.0,-8.0,55.0,-7.0,1
-101.0,-26.0,216.0,-10.0,53.0,-10.0,1
-102.0,-26.0,215.0,-13.0,52.0,-9.0,1
-101.0,-25.0,213.0,-14.0,50.0,-10.0,1
-98.0,-28.0,217.0,-19.0,52.0,-6.0,1
-100.0,-30.0,220.0,-18.0,54.0,-8.0,1
-98.0,-29.0,219.0,-17.0,57.0,-5.0,1
-99.0,-30.0,216.0,-15.0,57.0,-5.0,1
-98.0,-27.0,218.0,-14.0,58.0,-1.0,1
-97.0,-28.0,215.0,-16.0,57.0,-3.0,1
-99.0,-30.0,217.0,-22.0,53.0,0.0,1
-101.0,-25.0,215.0,-25.0,52.0,-3.0,1
-99.0,-29.0,218.0,-29.0,51.0,-1.0,1
-96.0,-28.0,217.0,-31.0,49.0,-4.0,1
-99.0,-29.0,216.0,-32.0,49.0,-3.0,1
-100.0,-28.0,218.0,-34.0,48.0,-6.0,1
-98.0,-29.0,215.0,-32.0,49.0,-4.0,1
-102.0,-25.0,213.0,-32.0,49.0,-6.0,1
-98.0,-30.0,215.0,-31.0,50.0,-5.0,1
-102.0,-25.0,218.0,-28.0,50.0,-7.0,1
-100.0,-30.0,217.0,-26.0,51.0,-5.0,1
-99.0,-27.0,216.0,-26.0,52.0,-8.0,1
-99.0,-25.0,218.0,-26.0,53.0,-4.0,1
-100.0,-26.0,218.0,-25.0,52.0,-7.0,1
-98.0,-26.0,217.0,-25.0,52.0,-5.0,1
-96.0,-29.0,218.0,-26.0,52.0,-8.0,1
-98.0,-29.0,220.0,-30.0,50.0,-5.0,1
-100.0,-26.0,216.0,-33.0,50.0,-8.0,1
-99.0,-28.0,219.0,-35.0,47.0,-5.0,1
-97.0,-28.0,220.0,-35.0,45.0,-8.0,1
-96.0,-26.0,219.0,-37.0,46.0,-6.0,1
-97.0,-28.0,220.0,-37.0,44.0,-10.0,1
-98.0,-30.0,215.0,-36.0,44.0,-6.0,1
-95.0,-27.0,220.0,-35.0,46.0,-9.0,1
-102.0,-27.0,217.0,-33.0,46.0,-7.0,1
-98.0,-27.0,214.0,-33.0,47.0,-10.0,1
-97.0,-27.0,217.0,-32.0,47.0,-5.0,1
-100.0,-27.0,213.0,-31.0,47.0,-8.0,1
-99.0,-30.0,220.0,-31.0,48.0,-5.0,1
-99.0,-26.0,220.0,-31.0,48.0,-6.0,1
-97.0,-29.0,214.0,-33.0,47.0,-3.0,1
-99.0,-29.0,215.0,-35.0,46.0,-5.0,1
-100.0,-27.0,218.0,-34.0,45.0,-3.0,1
-97.0,-29.0,217.0,-36.0,47.0,-4.0,1
-99.0,-27.0,214.0,-36.0,46.0,0.0,1
-98.0,-28.0,216.0,-37.0,46.0,-4.0,1
-99.0,-29.0,217.0,-37.0,46.0,-2.0,1
-99.0,-27.0,216.0,-39.0,47.0,-4.0,1
-100.0,-28.0,217.0,-44.0,44.0,-1.0,1
-100.0,-29.0,217.0,-48.0,43.0,-3.0,1
-97.0,-25.0,216.0,-49.0,42.0,0.0,1
-98.0,-26.0,221.0,-49.0,40.0,-2.0,1
-98.0,-28.0,217.0,-46.0,38.0,-2.0,1
-97.0,-29.0,215.0,-44.0,39.0,-5.0,1
-99.0,-28.0,217.0,-40.0,40.0,-3.0,1
-98.0,-31.0,213.0,-37.0,45.0,-6.0,1
-100.0,-28.0,217.0,-33.0,46.0,-5.0,1
-102.0,-29.0,215.0,-30.0,47.0,-6.0,1
-100.0,-26.0,219.0,-29.0,49.0,-4.0,1
-99.0,-26.0,217.0,-28.0,51.0,-5.0,1
-102.0,-30.0,219.0,-32.0,49.0,-2.0,1
-98.0,-28.0,214.0,-35.0,49.0,-4.0,1
-100.0,-26.0,218.0,-35.0,48.0,-1.0,1
-95.0,-30.0,219.0,-39.0,47.0,-3.0,1
-98.0,-29.0,216.0,-43.0,48.0,-1.0,1
-98.0,-29.0,218.0,-47.0,46.0,-3.0,1
-97.0,-32.0,216.0,-51.0,48.0,-1.0,1
-95.0,-33.0,217.0,-51.0,47.0,-2.0,1
-95.0,-30.0,216.0,-52.0,47.0,-2.0,1
-98.0,-29.0,215.0,-51.0,45.0,-3.0,1
-97.0,-29.0,218.0,-48.0,45.0,-1.0,1
-99.0,-30.0,217.0,-48.0,46.0,-4.0,1
-98.0,-32.0,218.0,-46.0,48.0,-2.0,1
-97.0,-29.0,220.0,-45.0,49.0,-3.0,1
-94.0,-31.0,217.0,-43.0,50.0,-1.0,1
-95.0,-27.0,217.0,-41.0,50.0,-2.0,1
-97.0,-31.0,222.0,-40.0,52.0,-1.0,1
-98.0,-30.0,215.0,-38.0,52.0,-1.0,1
-97.0,-30.0,222.0,-38.0,53.0,1.0,1
-96.0,-30.0,222.0,-37.0,55.0,-1.0,1
-97.0,-29.0,215.0,-36.0,54.0,1.0,1
-97.0,-28.0,217.0,-35.0,54.0,-3.0,1
-100.0,-29.0,224.0,-35.0,55.0,-1.0,1
-97.0,-28.0,216.0,-34.0,54.0,-2.0,1
-97.0,-31.0,216.0,-35.0,54.0,-1.0,1
-98.0,-29.0,215.0,-36.0,54.0,-1.0,1
-96.0,-27.0,219.0,-38.0,52.0,-1.0,1
-96.0,-31.0,214.0,-37.0,51.0,-2.0,1
-100.0,-28.0,220.0,-38.0,50.0,-2.0,1
-96.0,-30.0,215.0,-39.0,51.0,-4.0,1
-98.0,-28.0,219.0,-39.0,51.0,-2.0,1
-99.0,-31.0,216.0,-38.0,52.0,-4.0,1
-98.0,-29.0,220.0,-38.0,50.0,-3.0,1
-98.0,-28.0,216.0,-38.0,50.0,-3.0,1
-97.0,-30.0,218.0,-36.0,50.0,-3.0,1
-99.0,-30.0,219.0,-32.0,50.0,-3.0,1
-99.0,-30.0,216.0,-30.0,50.0,-3.0,1
-94.0,-32.0,216.0,-27.0,49.0,-4.0,1
-98.0,-31.0,219.0,-25.0,49.0,-3.0,1
-99.0,-30.0,217.0,-26.0,50.0,-3.0,1
-99.0,-28.0,218.0,-28.0,53.0,-3.0,1
-99.0,-29.0,217.0,-31.0,53.0,-3.0,1
-97.0,-30.0,218.0,-33.0,53.0,-2.0,1
-97.0,-29.0,219.0,-35.0,53.0,0.0,1
-101.0,-32.0,215.0,-36.0,53.0,-1.0,1
-102.0,-29.0,221.0,-35.0,53.0,0.0,1
-98.0,-32.0,220.0,-32.0,53.0,0.0,1
-98.0,-29.0,218.0,-29.0,53.0,0.0,1
-99.0,-25.0,220.0,-25.0,54.0,0.0,1
-97.0,-32.0,218.0,-24.0,55.0,0.0,1
-98.0,-32.0,215.0,-22.0,57.0,-1.0,1
-100.0,-31.0,214.0,-23.0,61.0,0.0,1
-101.0,-29.0,219.0,-26.0,67.0,2.0,1
-101.0,-29.0,216.0,-26.0,79.0,2.0,1
-97.0,-33.0,216.0,-26.0,93.0,4.0,1
-97.0,-33.0,218.0,-24.0,107.0,7.0,1
-99.0,-30.0,216.0,-27.0,118.0,7.0,1
-100.0,-28.0,218.0,-32.0,119.0,10.0,1
-99.0,-26.0,218.0,-41.0,119.0,7.0,1
-101.0,-28.0,220.0,-47.0,118.0,7.0,1
-95.0,-29.0,215.0,-47.0,113.0,8.0,1
-99.0,-29.0,216.0,-44.0,108.0,7.0,1
-99.0,-29.0,213.0,-39.0,103.0,6.0,1
-98.0,-31.0,215.0,-37.0,101.0,9.0,1
-99.0,-33.0,217.0,-35.0,99.0,8.0,1
-96.0,-34.0,212.0,-33.0,97.0,10.0,1
-97.0,-31.0,214.0,-31.0,98.0,9.0,1
-95.0,-32.0,216.0,-29.0,99.0,9.0,1
-99.0,-32.0,217.0,-32.0,101.0,8.0,1
-99.0,-32.0,218.0,-33.0,101.0,7.0,1
-95.0,-31.0,220.0,-28.0,97.0,9.0,1
-99.0,-33.0,216.0,-23.0,97.0,11.0,1
-98.0,-31.0,219.0,-20.0,94.0,10.0,1
-97.0,-29.0,214.0,-20.0,88.0,8.0,1
-101.0,-29.0,212.0,-24.0,83.0,4.0,1
-100.0,-29.0,213.0,-30.0,79.0,7.0,1
-99.0,-30.0,214.0,-39.0,75.0,5.0,1
-100.0,-28.0,212.0,-46.0,70.0,9.0,1
-98.0,-32.0,213.0,-52.0,68.0,8.0,1
-101.0,-32.0,225.0,-54.0,66.0,8.0,1
-100.0,-32.0,218.0,-51.0,65.0,6.0,1
-101.0,-31.0,215.0,-50.0,65.0,6.0,1
-99.0,-31.0,218.0,-50.0,65.0,3.0,1
-96.0,-32.0,216.0,-50.0,65.0,5.0,1
-99.0,-31.0,218.0,-46.0,64.0,5.0,1
-98.0,-32.0,218.0,-41.0,63.0,7.0,1
-98.0,-35.0,221.0,-39.0,62.0,5.0,1
-97.0,-27.0,219.0,-36.0,61.0,4.0,1
-101.0,-32.0,216.0,-37.0,62.0,0.0,1
-99.0,-32.0,216.0,-39.0,60.0,2.0,1
-99.0,-29.0,218.0,-40.0,59.0,0.0,1
-95.0,-32.0,216.0,-39.0,56.0,1.0,1
-99.0,-31.0,218.0,-39.0,57.0,-2.0,1
-97.0,-32.0,218.0,-36.0,55.0,-1.0,1
-100.0,-30.0,218.0,-36.0,54.0,-4.0,1
-99.0,-33.0,213.0,-34.0,54.0,-2.0,1
-98.0,-31.0,217.0,-34.0,53.0,-5.0,1
-100.0,-32.0,214.0,-33.0,52.0,-4.0,1
-100.0,-32.0,218.0,-33.0,50.0,-6.0,1
-98.0,-31.0,216.0,-33.0,49.0,-3.0,1
-98.0,-35.0,216.0,-32.0,48.0,-3.0,1
-97.0,-35.0,216.0,-31.0,50.0,-2.0,1
-102.0,-30.0,218.0,-30.0,49.0,-4.0,1
-99.0,-34.0,216.0,-31.0,49.0,-2.0,1
-100.0,-33.0,219.0,-32.0,47.0,-2.0,1
-99.0,-31.0,213.0,-34.0,49.0,0.0,1
-99.0,-33.0,215.0,-33.0,49.0,-2.0,1
-99.0,-32.0,217.0,-31.0,49.0,0.0,1
-99.0,-31.0,212.0,-31.0,49.0,-1.0,1
-99.0,-30.0,214.0,-30.0,51.0,2.0,1
-99.0,-33.0,217.0,-29.0,51.0,-1.0,1
-99.0,-32.0,214.0,-29.0,50.0,0.0,1
-100.0,-33.0,218.0,-30.0,50.0,-2.0,1
-100.0,-31.0,218.0,-31.0,54.0,-1.0,1
-100.0,-33.0,219.0,-34.0,52.0,-1.0,1
-98.0,-33.0,216.0,-39.0,49.0,2.0,1
-98.0,-32.0,216.0,-39.0,49.0,0.0,1
-99.0,-34.0,217.0,-35.0,47.0,2.0,1
-99.0,-31.0,214.0,-32.0,47.0,-1.0,1
-99.0,-35.0,216.0,-28.0,47.0,0.0,1
-97.0,-33.0,216.0,-26.0,47.0,-5.0,1
-100.0,-31.0,220.0,-24.0,49.0,-2.0,1
-99.0,-34.0,217.0,-23.0,49.0,-5.0,1
-97.0,-34.0,219.0,-21.0,51.0,-3.0,1
-101.0,-34.0,218.0,-18.0,51.0,-4.0,1
-99.0,-31.0,219.0,-17.0,53.0,-4.0,1
-100.0,-31.0,214.0,-19.0,51.0,-6.0,1
-99.0,-32.0,217.0,-20.0,52.0,-2.0,1
-95.0,-33.0,219.0,-23.0,51.0,-5.0,1
-100.0,-33.0,214.0,-25.0,50.0,-2.0,1
-99.0,-33.0,219.0,-27.0,50.0,-5.0,1
-98.0,-32.0,214.0,-28.0,50.0,-2.0,1
-100.0,-32.0,218.0,-28.0,49.0,-5.0,1
-99.0,-35.0,218.0,-30.0,50.0,-1.0,1
-98.0,-33.0,219.0,-28.0,50.0,-3.0,1
-96.0,-32.0,216.0,-25.0,51.0,-1.0,1
-99.0,-33.0,219.0,-23.0,51.0,-3.0,1
-97.0,-35.0,219.0,-21.0,51.0,0.0,1
-98.0,-35.0,216.0,-21.0,51.0,-1.0,1
-95.0,-36.0,216.0,-18.0,52.0,0.0,1
-99.0,-33.0,215.0,-19.0,53.0,-2.0,1
-98.0,-33.0,218.0,-19.0,53.0,1.0,1
-98.0,-32.0,217.0,-17.0,54.0,-1.0,1
-97.0,-36.0,220.0,-18.0,55.0,1.0,1
-98.0,-28.0,217.0,-20.0,56.0,-3.0,1
-97.0,-33.0,219.0,-20.0,57.0,0.0,1
-99.0,-32.0,220.0,-19.0,58.0,-3.0,1
-99.0,-31.0,216.0,-20.0,56.0,0.0,1
-99.0,-28.0,217.0,-22.0,56.0,-3.0,1
-97.0,-34.0,213.0,-21.0,56.0,-1.0,1
-97.0,-32.0,216.0,-21.0,56.0,-4.0,1
-101.0,-34.0,217.0,-19.0,55.0,-2.0,1
-101.0,-31.0,217.0,-18.0,55.0,-5.0,1
-100.0,-32.0,217.0,-20.0,53.0,-2.0,1
-100.0,-34.0,217.0,-20.0,52.0,-4.0,1
-97.0,-34.0,216.0,-21.0,52.0,-3.0,1
-96.0,-35.0,218.0,-20.0,52.0,-4.0,1
-97.0,-35.0,217.0,-19.0,51.0,-2.0,1
-97.0,-33.0,216.0,-19.0,52.0,-5.0,1
-99.0,-31.0,212.0,-17.0,53.0,-2.0,1
-100.0,-30.0,215.0,-18.0,54.0,-5.0,1
-98.0,-36.0,216.0,-18.0,53.0,-4.0,1
-102.0,-30.0,218.0,-16.0,53.0,-5.0,1
-97.0,-34.0,217.0,-14.0,53.0,-2.0,1
-99.0,-33.0,214.0,-10.0,56.0,-4.0,1
-98.0,-33.0,216.0,-6.0,56.0,-2.0,1
-100.0,-34.0,218.0,-3.0,56.0,-6.0,1
-99.0,-34.0,216.0,-4.0,58.0,-4.0,1
-99.0,-33.0,218.0,-7.0,62.0,-6.0,1
-99.0,-29.0,217.0,-11.0,60.0,-4.0,1
-98.0,-32.0,216.0,-14.0,62.0,-5.0,1
-101.0,-32.0,219.0,-16.0,60.0,-3.0,1
-97.0,-34.0,216.0,-17.0,59.0,-4.0,1
-98.0,-33.0,219.0,-17.0,60.0,-2.0,1
-99.0,-33.0,217.0,-15.0,59.0,-2.0,1
-97.0,-31.0,216.0,-13.0,59.0,-1.0,1
-97.0,-35.0,212.0,-12.0,59.0,-2.0,1
-97.0,-32.0,215.0,-11.0,58.0,-1.0,1
-98.0,-31.0,217.0,-10.0,59.0,-4.0,1
-96.0,-31.0,217.0,-10.0,59.0,-2.0,1
-96.0,-34.0,217.0,-11.0,58.0,-3.0,1
-98.0,-32.0,217.0,-12.0,58.0,0.0,1
-96.0,-35.0,217.0,-10.0,56.0,-2.0,1
-97.0,-34.0,213.0,-8.0,56.0,-1.0,1
-98.0,-32.0,216.0,-7.0,58.0,-3.0,1
-96.0,-30.0,215.0,-11.0,59.0,-4.0,1
-99.0,-32.0,217.0,-17.0,61.0,-5.0,1
-99.0,-31.0,217.0,-19.0,61.0,-5.0,1
-97.0,-31.0,218.0,-17.0,62.0,-6.0,1
-99.0,-30.0,217.0,-13.0,60.0,-4.0,1
-99.0,-33.0,218.0,-13.0,61.0,-5.0,1
-98.0,-31.0,219.0,-14.0,61.0,-4.0,1
-101.0,-34.0,215.0,-15.0,60.0,-6.0,1
-96.0,-38.0,215.0,-13.0,60.0,-4.0,1
-97.0,-33.0,215.0,-9.0,61.0,-7.0,1
-99.0,-31.0,217.0,-7.0,62.0,-6.0,1
-98.0,-35.0,215.0,-5.0,63.0,-7.0,1
-101.0,-34.0,217.0,-5.0,66.0,-7.0,1
-100.0,-34.0,218.0,-5.0,67.0,-7.0,1
-94.0,-38.0,215.0,-7.0,68.0,-4.0,1
-98.0,-31.0,216.0,-9.0,68.0,-6.0,1
-98.0,-31.0,213.0,-12.0,67.0,-2.0,1
-99.0,-30.0,215.0,-18.0,65.0,-4.0,1
-99.0,-34.0,218.0,-24.0,63.0,-2.0,1
-98.0,-33.0,218.0,-30.0,60.0,0.0,1
-98.0,-31.0,215.0,-35.0,56.0,0.0,1
-97.0,-30.0,217.0,-38.0,54.0,-1.0,1
-98.0,-30.0,215.0,-40.0,51.0,1.0,1
-100.0,-33.0,218.0,-40.0,49.0,2.0,1
-98.0,-34.0,220.0,-38.0,48.0,2.0,1
-100.0,-36.0,214.0,-34.0,47.0,1.0,1
-99.0,-32.0,217.0,-34.0,49.0,3.0,1
-96.0,-34.0,215.0,-32.0,47.0,2.0,1
-97.0,-37.0,218.0,-30.0,48.0,2.0,1
-99.0,-32.0,218.0,-32.0,47.0,2.0,1
-98.0,-32.0,214.0,-33.0,47.0,4.0,1
-98.0,-31.0,218.0,-34.0,48.0,4.0,1
-98.0,-32.0,217.0,-34.0,49.0,2.0,1
-96.0,-30.0,217.0,-35.0,50.0,0.0,1
-99.0,-31.0,215.0,-37.0,51.0,-1.0,1
-97.0,-34.0,219.0,-35.0,52.0,-1.0,1
-96.0,-33.0,220.0,-34.0,52.0,-1.0,1
-100.0,-33.0,218.0,-34.0,52.0,-3.0,1
-100.0,-32.0,218.0,-33.0,52.0,-2.0,1
-97.0,-31.0,215.0,-32.0,52.0,-3.0,1
-100.0,-35.0,218.0,-31.0,52.0,-2.0,1
-95.0,-36.0,219.0,-30.0,51.0,-2.0,1
-96.0,-34.0,216.0,-28.0,51.0,-2.0,1
-97.0,-33.0,219.0,-27.0,52.0,-2.0,1
-98.0,-34.0,216.0,-27.0,52.0,0.0,1
-99.0,-33.0,219.0,-26.0,53.0,-1.0,1
-97.0,-32.0,212.0,-27.0,52.0,-1.0,1
-98.0,-35.0,216.0,-28.0,53.0,0.0,1
-99.0,-35.0,215.0,-29.0,52.0,-1.0,1
-99.0,-36.0,216.0,-28.0,52.0,-1.0,1
-96.0,-32.0,216.0,-26.0,53.0,-1.0,1
-97.0,-34.0,218.0,-26.0,54.0,0.0,1
-97.0,-35.0,217.0,-25.0,53.0,-1.0,1
-98.0,-31.0,218.0,-24.0,53.0,-1.0,1
-98.0,-36.0,213.0,-22.0,54.0,-1.0,1
-98.0,-35.0,216.0,-22.0,53.0,-2.0,1
-96.0,-31.0,218.0,-22.0,55.0,-2.0,1
-100.0,-34.0,217.0,-23.0,57.0,0.0,1
-99.0,-33.0,214.0,-25.0,55.0,1.0,1
-97.0,-35.0,215.0,-26.0,54.0,2.0,1
-95.0,-33.0,216.0,-25.0,54.0,2.0,1
-97.0,-34.0,216.0,-22.0,53.0,2.0,1
-99.0,-34.0,217.0,-20.0,52.0,-1.0,1
-98.0,-33.0,215.0,-19.0,53.0,-1.0,1
-98.0,-35.0,216.0,-17.0,54.0,-1.0,1
-97.0,-35.0,216.0,-14.0,53.0,-3.0,1
-97.0,-40.0,218.0,-12.0,57.0,-5.0,1
-98.0,-36.0,217.0,-12.0,58.0,-6.0,1
-98.0,-33.0,217.0,-12.0,59.0,-7.0,1
-99.0,-35.0,218.0,-12.0,59.0,-4.0,1
-100.0,-33.0,218.0,-13.0,59.0,-5.0,1
-97.0,-32.0,217.0,-15.0,59.0,-2.0,1
-95.0,-34.0,219.0,-18.0,59.0,-2.0,1
-98.0,-33.0,219.0,-21.0,58.0,-1.0,1
-96.0,-37.0,220.0,-22.0,58.0,-1.0,1
-95.0,-35.0,217.0,-22.0,58.0,1.0,1
-97.0,-34.0,216.0,-22.0,58.0,1.0,1
-97.0,-35.0,220.0,-21.0,57.0,1.0,1
-99.0,-34.0,216.0,-21.0,58.0,0.0,1
-96.0,-35.0,216.0,-20.0,59.0,1.0,1
-98.0,-33.0,216.0,-17.0,59.0,-1.0,1
-96.0,-33.0,214.0,-15.0,59.0,1.0,1
-95.0,-37.0,219.0,-14.0,62.0,-2.0,1
-98.0,-33.0,216.0,-13.0,60.0,-1.0,1
-95.0,-33.0,215.0,-12.0,62.0,-2.0,1
