ax,ay,az,gx,gy,gz,label
-113.0,-240.0,-22.0,-50.0,308.0,-209.0,1
-115.0,-238.0,-22.0,-42.0,236.0,-200.0,1
-117.0,-232.0,-16.0,-32.0,168.0,-189.0,1
-109.0,-229.0,-14.0,-27.0,106.0,-179.0,1
-105.0,-223.0,-14.0,-20.0,54.0,-179.0,1
-94.0,-223.0,-19.0,-18.0,4.0,-184.0,1
-80.0,-216.0,-17.0,-20.0,-37.0,-189.0,1
-73.0,-208.0,-14.0,-29.0,-70.0,-196.0,1
-60.0,-205.0,-14.0,-50.0,-94.0,-207.0,1
-46.0,-205.0,-10.0,-82.0,-107.0,-216.0,1
-36.0,-205.0,-9.0,-119.0,-109.0,-226.0,1
-24.0,-209.0,-6.0,-164.0,-103.0,-233.0,1
-14.0,-212.0,-3.0,-213.0,-88.0,-234.0,1
-10.0,-215.0,-2.0,-260.0,-69.0,-234.0,1
-5.0,-222.0,-4.0,-295.0,-48.0,-227.0,1
-7.0,-225.0,3.0,-318.0,-27.0,-218.0,1
3.0,-232.0,1.0,-328.0,-11.0,-207.0,1
1.0,-234.0,1.0,-329.0,0.0,-194.0,1
5.0,-236.0,-2.0,-322.0,6.0,-178.0,1
-2.0,-230.0,-3.0,-311.0,4.0,-164.0,1
0.0,-228.0,-5.0,-304.0,-2.0,-149.0,1
-1.0,-227.0,-9.0,-300.0,-16.0,-137.0,1
-1.0,-226.0,-9.0,-300.0,-29.0,-124.0,1
-5.0,-218.0,-6.0,-308.0,-48.0,-112.0,1
-4.0,-223.0,-7.0,-322.0,-69.0,-104.0,1
-10.0,-221.0,-4.0,-334.0,-94.0,-101.0,1
-9.0,-222.0,-7.0,-338.0,-123.0,-101.0,1
-7.0,-224.0,-6.0,-343.0,-151.0,-101.0,1
-4.0,-227.0,4.0,-345.0,-180.0,-101.0,1
-4.0,-228.0,2.0,-339.0,-208.0,-104.0,1
-4.0,-231.0,8.0,-328.0,-231.0,-107.0,1
0.0,-236.0,7.0,-313.0,-250.0,-111.0,1
-2.0,-239.0,8.0,-299.0,-261.0,-111.0,1
-2.0,-237.0,7.0,-279.0,-267.0,-110.0,1
3.0,-240.0,11.0,-252.0,-267.0,-109.0,1
2.0,-239.0,8.0,-222.0,-263.0,-109.0,1
-4.0,-238.0,8.0,-197.0,-254.0,-103.0,1
-2.0,-233.0,12.0,-174.0,-243.0,-99.0,1
-1.0,-230.0,13.0,-154.0,-230.0,-91.0,1
-5.0,-225.0,13.0,-137.0,-215.0,-82.0,1
-2.0,-225.0,15.0,-122.0,-201.0,-73.0,1
0.0,-221.0,13.0,-115.0,-187.0,-62.0,1
0.0,-219.0,13.0,-112.0,-174.0,-52.0,1
-3.0,-219.0,18.0,-114.0,-164.0,-39.0,1
-2.0,-216.0,16.0,-115.0,-156.0,-28.0,1
-5.0,-214.0,22.0,-115.0,-155.0,-14.0,1
-8.0,-217.0,22.0,-114.0,-157.0,-1.0,1
-11.0,-214.0,27.0,-110.0,-165.0,16.0,1
-13.0,-217.0,29.0,-103.0,-178.0,32.0,1
-18.0,-221.0,30.0,-94.0,-192.0,50.0,1
-21.0,-222.0,26.0,-90.0,-210.0,68.0,1
-20.0,-229.0,23.0,-91.0,-221.0,82.0,1
-19.0,-236.0,26.0,-100.0,-228.0,93.0,1
-14.0,-243.0,22.0,-114.0,-228.0,99.0,1
-14.0,-249.0,26.0,-132.0,-220.0,100.0,1
-11.0,-258.0,26.0,-144.0,-206.0,94.0,1
-4.0,-262.0,29.0,-140.0,-184.0,83.0,1
-1.0,-268.0,38.0,-118.0,-163.0,69.0,1
2.0,-270.0,39.0,-85.0,-136.0,50.0,1
4.0,-276.0,46.0,-40.0,-106.0,28.0,1
3.0,-270.0,39.0,8.0,-78.0,8.0,1
6.0,-271.0,42.0,57.0,-52.0,-14.0,1
14.0,-271.0,40.0,105.0,-25.0,-33.0,1
18.0,-267.0,39.0,144.0,0.0,-48.0,1
23.0,-265.0,36.0,169.0,21.0,-62.0,1
28.0,-268.0,36.0,183.0,40.0,-77.0,1
33.0,-269.0,37.0,185.0,53.0,-86.0,1
36.0,-267.0,41.0,181.0,61.0,-92.0,1
29.0,-269.0,45.0,177.0,62.0,-96.0,1
28.0,-271.0,47.0,177.0,62.0,-92.0,1
21.0,-272.0,42.0,182.0,59.0,-80.0,1
13.0,-278.0,38.0,189.0,50.0,-63.0,1
8.0,-285.0,31.0,193.0,38.0,-41.0,1
8.0,-296.0,25.0,176.0,28.0,-24.0,1
10.0,-313.0,23.0,141.0,22.0,-24.0,1
13.0,-329.0,14.0,88.0,31.0,-42.0,1
8.0,-341.0,1.0,23.0,61.0,-78.0,1
11.0,-361.0,-1.0,-47.0,113.0,-131.0,1
11.0,-375.0,-3.0,-106.0,181.0,-192.0,1
12.0,-377.0,-5.0,-134.0,262.0,-263.0,1
18.0,-376.0,-17.0,-127.0,354.0,-340.0,1
16.0,-370.0,-10.0,-90.0,452.0,-421.0,1
14.0,-362.0,-5.0,-31.0,549.0,-492.0,1
10.0,-354.0,-5.0,41.0,642.0,-548.0,1
6.0,-342.0,3.0,137.0,715.0,-585.0,1
-2.0,-331.0,-1.0,253.0,768.0,-605.0,1
-8.0,-319.0,-6.0,371.0,801.0,-607.0,1
-19.0,-308.0,-7.0,475.0,811.0,-595.0,1
-21.0,-296.0,-15.0,555.0,796.0,-566.0,1
-24.0,-280.0,-22.0,614.0,762.0,-526.0,1
-32.0,-264.0,-32.0,648.0,709.0,-471.0,1
-37.0,-251.0,-34.0,654.0,643.0,-408.0,1
-40.0,-241.0,-43.0,629.0,566.0,-344.0,1
-44.0,-234.0,-50.0,582.0,479.0,-288.0,1
-42.0,-225.0,-55.0,519.0,383.0,-241.0,1
-36.0,-224.0,-61.0,441.0,293.0,-211.0,1
-37.0,-213.0,-70.0,356.0,216.0,-192.0,1
-28.0,-208.0,-73.0,274.0,151.0,-185.0,1
-24.0,-201.0,-83.0,195.0,100.0,-185.0,1
-22.0,-198.0,-83.0,119.0,58.0,-192.0,1
-22.0,-196.0,-83.0,47.0,34.0,-209.0,1
-16.0,-192.0,-85.0,-11.0,34.0,-233.0,1
-15.0,-184.0,-83.0,-47.0,57.0,-263.0,1
-16.0,-192.0,-84.0,-72.0,98.0,-285.0,1
-20.0,-205.0,-85.0,-109.0,155.0,-295.0,1
-23.0,-218.0,-78.0,-154.0,228.0,-287.0,1
-30.0,-232.0,-65.0,-196.0,300.0,-271.0,1
-30.0,-250.0,-56.0,-217.0,366.0,-246.0,1
-29.0,-261.0,-51.0,-214.0,425.0,-220.0,1
-32.0,-267.0,-50.0,-189.0,470.0,-199.0,1
-33.0,-271.0,-47.0,-151.0,501.0,-181.0,1
-23.0,-270.0,-44.0,-108.0,521.0,-170.0,1
-21.0,-266.0,-40.0,-71.0,533.0,-160.0,1
-19.0,-262.0,-40.0,-40.0,543.0,-153.0,1
-13.0,-256.0,-43.0,-18.0,556.0,-143.0,1
-8.0,-254.0,-39.0,-7.0,574.0,-131.0,1
-1.0,-253.0,-40.0,2.0,599.0,-121.0,1
10.0,-249.0,-37.0,10.0,630.0,-112.0,1
14.0,-250.0,-41.0,14.0,662.0,-104.0,1
21.0,-250.0,-40.0,11.0,693.0,-95.0,1
30.0,-253.0,-39.0,5.0,726.0,-88.0,1
36.0,-253.0,-38.0,0.0,759.0,-83.0,1
43.0,-253.0,-34.0,-5.0,795.0,-76.0,1
45.0,-257.0,-38.0,-11.0,834.0,-69.0,1
43.0,-248.0,-29.0,-15.0,876.0,-64.0,1
35.0,-248.0,-29.0,-11.0,918.0,-60.0,1
32.0,-247.0,-24.0,-2.0,958.0,-56.0,1
26.0,-243.0,-26.0,-3.0,1000.0,-51.0,1
19.0,-238.0,-22.0,1.0,1040.0,-42.0,1
15.0,-231.0,-21.0,4.0,1071.0,-37.0,1
1.0,-226.0,-17.0,-2.0,1095.0,-36.0,1
-5.0,-226.0,-18.0,-15.0,1108.0,-29.0,1
-9.0,-215.0,-21.0,-37.0,1111.0,-25.0,1
-14.0,-212.0,-14.0,-60.0,1111.0,-20.0,1
-15.0,-213.0,-22.0,-87.0,1109.0,-11.0,1
-13.0,-213.0,-20.0,-115.0,1111.0,-1.0,1
-10.0,-215.0,-21.0,-142.0,1119.0,1.0,1
-12.0,-215.0,-24.0,-167.0,1131.0,7.0,1
-7.0,-215.0,-20.0,-180.0,1151.0,13.0,1
-3.0,-213.0,-25.0,-185.0,1176.0,20.0,1
0.0,-217.0,-19.0,-192.0,1207.0,26.0,1
6.0,-218.0,-22.0,-202.0,1246.0,29.0,1
7.0,-224.0,-20.0,-211.0,1286.0,26.0,1
15.0,-232.0,-15.0,-212.0,1329.0,22.0,1
16.0,-234.0,-16.0,-206.0,1377.0,15.0,1
13.0,-240.0,-12.0,-198.0,1427.0,5.0,1
18.0,-241.0,-11.0,-190.0,1476.0,-8.0,1
19.0,-244.0,-5.0,-179.0,1523.0,-23.0,1
11.0,-242.0,-5.0,-165.0,1564.0,-40.0,1
8.0,-242.0,-7.0,-148.0,1601.0,-55.0,1
1.0,-239.0,-10.0,-129.0,1631.0,-69.0,1
-2.0,-235.0,-10.0,-114.0,1660.0,-82.0,1
-8.0,-236.0,-2.0,-96.0,1685.0,-93.0,1
-14.0,-235.0,-1.0,-82.0,1707.0,-101.0,1
-17.0,-237.0,-3.0,-67.0,1726.0,-108.0,1
-19.0,-235.0,0.0,-53.0,1738.0,-115.0,1
-19.0,-244.0,4.0,-45.0,1744.0,-117.0,1
-20.0,-242.0,8.0,-38.0,1741.0,-120.0,1
-19.0,-245.0,11.0,-32.0,1731.0,-119.0,1
-20.0,-248.0,9.0,-27.0,1716.0,-116.0,1
-19.0,-254.0,12.0,-20.0,1699.0,-112.0,1
-21.0,-254.0,14.0,-11.0,1682.0,-110.0,1
-19.0,-253.0,15.0,1.0,1665.0,-106.0,1
-19.0,-251.0,13.0,13.0,1651.0,-101.0,1
-17.0,-253.0,13.0,30.0,1640.0,-93.0,1
-16.0,-253.0,14.0,44.0,1632.0,-89.0,1
-14.0,-251.0,16.0,61.0,1626.0,-87.0,1
-11.0,-252.0,17.0,81.0,1622.0,-90.0,1
-13.0,-247.0,17.0,97.0,1619.0,-97.0,1
-18.0,-244.0,20.0,113.0,1619.0,-106.0,1
-19.0,-244.0,21.0,125.0,1621.0,-117.0,1
-17.0,-246.0,23.0,141.0,1629.0,-131.0,1
-19.0,-250.0,25.0,158.0,1644.0,-148.0,1
-20.0,-248.0,25.0,175.0,1667.0,-165.0,1
-19.0,-249.0,27.0,192.0,1693.0,-181.0,1
-14.0,-255.0,23.0,203.0,1716.0,-197.0,1
-18.0,-257.0,25.0,210.0,1734.0,-214.0,1
-20.0,-257.0,31.0,216.0,1745.0,-230.0,1
-16.0,-268.0,27.0,225.0,1749.0,-241.0,1
-15.0,-265.0,27.0,238.0,1749.0,-245.0,1
-14.0,-262.0,20.0,247.0,1749.0,-245.0,1
-16.0,-259.0,17.0,249.0,1753.0,-238.0,1
-12.0,-258.0,12.0,249.0,1765.0,-228.0,1
-11.0,-255.0,12.0,253.0,1785.0,-216.0,1
-8.0,-259.0,8.0,261.0,1815.0,-205.0,1
-8.0,-261.0,16.0,272.0,1850.0,-195.0,1
-14.0,-265.0,17.0,288.0,1886.0,-190.0,1
-8.0,-267.0,20.0,308.0,1930.0,-188.0,1
0.0,-282.0,25.0,342.0,1979.0,-194.0,1
-4.0,-285.0,24.0,396.0,2037.0,-205.0,1
-3.0,-290.0,28.0,470.0,2099.0,-221.0,1
-3.0,-291.0,23.0,560.0,2167.0,-242.0,1
-8.0,-291.0,20.0,658.0,2238.0,-263.0,1
0.0,-290.0,13.0,748.0,2314.0,-284.0,1
4.0,-283.0,9.0,822.0,2394.0,-304.0,1
8.0,-284.0,2.0,869.0,2478.0,-323.0,1
9.0,-281.0,-9.0,899.0,2562.0,-337.0,1
16.0,-276.0,-8.0,911.0,2640.0,-343.0,1
28.0,-279.0,-20.0,913.0,2704.0,-342.0,1
39.0,-285.0,-28.0,905.0,2754.0,-338.0,1
48.0,-282.0,-39.0,885.0,2783.0,-341.0,1
51.0,-280.0,-56.0,849.0,2794.0,-347.0,1
57.0,-272.0,-71.0,788.0,2776.0,-346.0,1
57.0,-266.0,-88.0,701.0,2740.0,-336.0,1
60.0,-257.0,-97.0,595.0,2694.0,-309.0,1
51.0,-250.0,-107.0,483.0,2652.0,-277.0,1
44.0,-240.0,-115.0,382.0,2622.0,-238.0,1
37.0,-231.0,-118.0,303.0,2600.0,-191.0,1
25.0,-221.0,-119.0,241.0,2584.0,-149.0,1
11.0,-205.0,-129.0,193.0,2568.0,-107.0,1
-1.0,-191.0,-123.0,142.0,2547.0,-67.0,1
-11.0,-182.0,-123.0,74.0,2520.0,-32.0,1
-21.0,-180.0,-123.0,-11.0,2480.0,-6.0,1
-20.0,-191.0,-121.0,-114.0,2433.0,12.0,1
-33.0,-204.0,-119.0,-228.0,2384.0,22.0,1
-38.0,-227.0,-112.0,-345.0,2333.0,26.0,1
-45.0,-253.0,-99.0,-453.0,2279.0,29.0,1
-49.0,-279.0,-83.0,-551.0,2213.0,30.0,1
-52.0,-309.0,-70.0,-622.0,2133.0,34.0,1
-50.0,-337.0,-56.0,-649.0,2039.0,42.0,1
-43.0,-357.0,-38.0,-626.0,1938.0,53.0,1
-37.0,-377.0,-31.0,-550.0,1832.0,65.0,1
-22.0,-377.0,-21.0,-441.0,1732.0,71.0,1
-16.0,-372.0,-16.0,-303.0,1638.0,66.0,1
-5.0,-364.0,-9.0,-148.0,1559.0,45.0,1
5.0,-346.0,-5.0,12.0,1503.0,8.0,1
11.0,-323.0,-3.0,158.0,1466.0,-48.0,1
20.0,-304.0,-3.0,278.0,1442.0,-113.0,1
27.0,-278.0,-7.0,359.0,1434.0,-187.0,1
30.0,-257.0,-7.0,399.0,1436.0,-262.0,1
29.0,-237.0,-7.0,397.0,1452.0,-337.0,1
32.0,-225.0,-7.0,359.0,1478.0,-406.0,1
34.0,-222.0,-2.0,302.0,1510.0,-464.0,1
32.0,-210.0,-9.0,244.0,1546.0,-511.0,1
32.0,-203.0,-7.0,203.0,1579.0,-548.0,1
30.0,-197.0,-8.0,177.0,1611.0,-566.0,1
30.0,-193.0,-10.0,153.0,1640.0,-566.0,1
35.0,-195.0,-14.0,117.0,1664.0,-559.0,1
31.0,-190.0,-15.0,71.0,1685.0,-546.0,1
27.0,-191.0,-12.0,12.0,1700.0,-529.0,1
26.0,-196.0,-6.0,-50.0,1710.0,-511.0,1
18.0,-202.0,-7.0,-108.0,1710.0,-497.0,1
18.0,-211.0,-5.0,-163.0,1697.0,-483.0,1
9.0,-217.0,-5.0,-217.0,1673.0,-474.0,1
4.0,-220.0,0.0,-258.0,1640.0,-462.0,1
1.0,-225.0,2.0,-285.0,1598.0,-450.0,1
-10.0,-223.0,1.0,-291.0,1546.0,-439.0,1
-11.0,-221.0,-3.0,-284.0,1488.0,-426.0,1
-14.0,-221.0,-4.0,-274.0,1428.0,-420.0,1
-16.0,-222.0,-6.0,-262.0,1365.0,-410.0,1
-16.0,-215.0,-7.0,-247.0,1304.0,-401.0,1
-15.0,-217.0,-8.0,-234.0,1246.0,-393.0,1
-12.0,-218.0,-12.0,-229.0,1194.0,-386.0,1
-12.0,-214.0,-9.0,-231.0,1147.0,-378.0,1
-6.0,-217.0,-10.0,-237.0,1111.0,-369.0,1
1.0,-224.0,-11.0,-246.0,1079.0,-356.0,1
8.0,-223.0,-10.0,-262.0,1050.0,-339.0,1
12.0,-224.0,-10.0,-280.0,1022.0,-324.0,1
16.0,-227.0,-10.0,-306.0,995.0,-313.0,1
17.0,-230.0,-12.0,-342.0,976.0,-302.0,1
22.0,-234.0,-19.0,-385.0,962.0,-290.0,1
19.0,-238.0,-15.0,-427.0,950.0,-279.0,1
23.0,-244.0,-9.0,-455.0,942.0,-263.0,1
19.0,-244.0,-11.0,-468.0,935.0,-251.0,1
17.0,-249.0,-13.0,-467.0,926.0,-236.0,1
11.0,-247.0,-10.0,-455.0,918.0,-221.0,1
12.0,-251.0,-9.0,-432.0,909.0,-208.0,1
10.0,-249.0,-8.0,-402.0,896.0,-195.0,1
7.0,-247.0,-8.0,-375.0,881.0,-187.0,1
3.0,-246.0,-6.0,-348.0,866.0,-178.0,1
0.0,-243.0,-9.0,-329.0,849.0,-172.0,1
-7.0,-243.0,-4.0,-311.0,831.0,-163.0,1
-4.0,-239.0,-9.0,-298.0,812.0,-154.0,1
-13.0,-234.0,-10.0,-292.0,796.0,-141.0,1
-16.0,-229.0,-3.0,-290.0,781.0,-131.0,1
-12.0,-228.0,-10.0,-289.0,768.0,-122.0,1
-13.0,-227.0,-5.0,-290.0,754.0,-112.0,1
-18.0,-229.0,-4.0,-291.0,737.0,-104.0,1
-17.0,-227.0,-2.0,-291.0,716.0,-95.0,1
-20.0,-230.0,-1.0,-289.0,691.0,-88.0,1
-20.0,-226.0,1.0,-288.0,667.0,-83.0,1
-20.0,-228.0,2.0,-287.0,641.0,-77.0,1
-14.0,-234.0,2.0,-288.0,618.0,-71.0,1
-16.0,-237.0,6.0,-296.0,596.0,-66.0,1
-12.0,-240.0,6.0,-296.0,578.0,-61.0,1
-10.0,-243.0,8.0,-288.0,559.0,-56.0,1
-12.0,-248.0,9.0,-276.0,540.0,-46.0,1
-7.0,-243.0,3.0,-265.0,523.0,-36.0,1
-8.0,-244.0,8.0,-258.0,509.0,-23.0,1
-6.0,-243.0,9.0,-251.0,494.0,-10.0,1
-6.0,-243.0,12.0,-244.0,481.0,7.0,1
-10.0,-241.0,10.0,-234.0,466.0,25.0,1
-11.0,-240.0,13.0,-224.0,452.0,41.0,1
-11.0,-235.0,14.0,-218.0,435.0,55.0,1
-14.0,-234.0,14.0,-216.0,419.0,68.0,1
-15.0,-234.0,18.0,-212.0,400.0,79.0,1
-16.0,-232.0,24.0,-208.0,377.0,89.0,1
-19.0,-233.0,20.0,-203.0,351.0,99.0,1
-20.0,-232.0,28.0,-195.0,325.0,106.0,1
-22.0,-234.0,26.0,-190.0,300.0,113.0,1
-20.0,-236.0,31.0,-187.0,275.0,122.0,1
-20.0,-237.0,30.0,-187.0,252.0,124.0,1
-20.0,-238.0,33.0,-188.0,233.0,126.0,1
-20.0,-242.0,32.0,-195.0,215.0,123.0,1
-16.0,-246.0,30.0,-203.0,198.0,121.0,1
-19.0,-246.0,31.0,-214.0,181.0,116.0,1
-13.0,-253.0,28.0,-228.0,168.0,109.0,1
-10.0,-258.0,23.0,-247.0,152.0,103.0,1
-6.0,-261.0,29.0,-267.0,138.0,93.0,1
-4.0,-268.0,26.0,-288.0,123.0,84.0,1
-2.0,-275.0,29.0,-307.0,107.0,75.0,1
-1.0,-284.0,36.0,-315.0,88.0,66.0,1
-4.0,-288.0,41.0,-310.0,67.0,57.0,1
-2.0,-297.0,45.0,-293.0,45.0,50.0,1
-6.0,-303.0,52.0,-263.0,23.0,45.0,1
-7.0,-306.0,55.0,-219.0,3.0,39.0,1
-13.0,-304.0,58.0,-166.0,-17.0,35.0,1
-10.0,-306.0,65.0,-105.0,-37.0,32.0,1
-14.0,-301.0,64.0,-42.0,-56.0,31.0,1
-14.0,-300.0,64.0,20.0,-72.0,30.0,1
-13.0,-294.0,67.0,82.0,-85.0,28.0,1
-10.0,-295.0,59.0,142.0,-90.0,26.0,1
-8.0,-289.0,59.0,195.0,-87.0,23.0,1
-2.0,-291.0,54.0,240.0,-75.0,20.0,1
6.0,-290.0,42.0,264.0,-58.0,17.0,1
18.0,-295.0,34.0,272.0,-29.0,5.0,1
29.0,-301.0,21.0,253.0,12.0,-13.0,1
41.0,-308.0,12.0,211.0,61.0,-44.0,1
57.0,-319.0,4.0,153.0,117.0,-87.0,1
76.0,-337.0,-5.0,86.0,182.0,-142.0,1
82.0,-343.0,-23.0,15.0,246.0,-206.0,1
91.0,-353.0,-27.0,-52.0,305.0,-277.0,1
91.0,-358.0,-32.0,-101.0,360.0,-349.0,1
90.0,-359.0,-41.0,-132.0,411.0,-410.0,1
86.0,-366.0,-41.0,-139.0,462.0,-459.0,1
77.0,-367.0,-43.0,-112.0,506.0,-491.0,1
59.0,-356.0,-37.0,-50.0,545.0,-509.0,1
34.0,-349.0,-36.0,33.0,575.0,-507.0,1
10.0,-339.0,-45.0,118.0,588.0,-485.0,1
-12.0,-325.0,-48.0,188.0,583.0,-439.0,1
-37.0,-314.0,-49.0,245.0,555.0,-382.0,1
-54.0,-287.0,-53.0,289.0,506.0,-318.0,1
-69.0,-273.0,-52.0,315.0,438.0,-256.0,1
-79.0,-258.0,-60.0,327.0,358.0,-198.0,1
-84.0,-242.0,-65.0,332.0,271.0,-151.0,1
-86.0,-227.0,-70.0,327.0,185.0,-109.0,1
-84.0,-218.0,-76.0,313.0,101.0,-78.0,1
-83.0,-206.0,-80.0,291.0,24.0,-61.0,1
-71.0,-192.0,-85.0,261.0,-41.0,-44.0,1
-62.0,-186.0,-88.0,224.0,-84.0,-40.0,1
-48.0,-177.0,-95.0,184.0,-114.0,-38.0,1
-30.0,-172.0,-104.0,138.0,-127.0,-40.0,1
-20.0,-169.0,-106.0,78.0,-137.0,-50.0,1
-8.0,-168.0,-104.0,14.0,-134.0,-61.0,1
-3.0,-169.0,-102.0,-43.0,-129.0,-75.0,1
3.0,-178.0,-99.0,-87.0,-119.0,-83.0,1
3.0,-182.0,-95.0,-111.0,-102.0,-90.0,1
3.0,-189.0,-84.0,-120.0,-80.0,-93.0,1
-6.0,-201.0,-80.0,-121.0,-52.0,-96.0,1
-10.0,-217.0,-77.0,-131.0,-11.0,-90.0,1
-11.0,-235.0,-71.0,-140.0,33.0,-76.0,1
-17.0,-244.0,-64.0,-145.0,75.0,-58.0,1
-19.0,-254.0,-58.0,-136.0,110.0,-40.0,1
-19.0,-262.0,-53.0,-117.0,141.0,-22.0,1
-20.0,-262.0,-51.0,-94.0,169.0,-9.0,1
-17.0,-263.0,-48.0,-65.0,197.0,-1.0,1
-15.0,-262.0,-48.0,-38.0,222.0,3.0,1
-7.0,-263.0,-41.0,-14.0,248.0,8.0,1
2.0,-261.0,-40.0,3.0,278.0,9.0,1
9.0,-260.0,-42.0,17.0,305.0,9.0,1
12.0,-255.0,-44.0,27.0,328.0,3.0,1
18.0,-252.0,-43.0,39.0,347.0,0.0,1
18.0,-249.0,-50.0,52.0,365.0,-3.0,1
20.0,-251.0,-51.0,71.0,386.0,-4.0,1
20.0,-250.0,-49.0,86.0,406.0,-2.0,1
16.0,-248.0,-48.0,97.0,416.0,2.0,1
14.0,-246.0,-40.0,107.0,421.0,14.0,1
8.0,-246.0,-36.0,111.0,415.0,27.0,1
0.0,-242.0,-30.0,109.0,409.0,43.0,1
-14.0,-237.0,-29.0,110.0,396.0,64.0,1
-19.0,-232.0,-20.0,111.0,378.0,83.0,1
-24.0,-236.0,-15.0,105.0,355.0,100.0,1
-31.0,-231.0,-8.0,96.0,328.0,110.0,1
-37.0,-228.0,-15.0,88.0,301.0,116.0,1
-40.0,-223.0,-7.0,77.0,275.0,125.0,1
-43.0,-217.0,-10.0,68.0,245.0,130.0,1
-40.0,-217.0,-12.0,53.0,217.0,134.0,1
-38.0,-216.0,-7.0,37.0,191.0,146.0,1
-34.0,-211.0,-7.0,22.0,170.0,155.0,1
-32.0,-209.0,-7.0,4.0,152.0,165.0,1
-27.0,-205.0,-1.0,-15.0,136.0,175.0,1
-21.0,-207.0,3.0,-37.0,125.0,185.0,1
-20.0,-203.0,7.0,-62.0,121.0,193.0,1
-18.0,-207.0,4.0,-88.0,116.0,198.0,1
-11.0,-201.0,10.0,-114.0,108.0,206.0,1
-13.0,-208.0,10.0,-144.0,101.0,215.0,1
-12.0,-213.0,14.0,-173.0,93.0,219.0,1
-12.0,-219.0,12.0,-190.0,82.0,225.0,1
-11.0,-220.0,16.0,-202.0,69.0,224.0,1
-15.0,-223.0,17.0,-204.0,52.0,223.0,1
-18.0,-227.0,15.0,-197.0,34.0,222.0,1
-20.0,-226.0,20.0,-190.0,17.0,220.0,1
-20.0,-225.0,21.0,-179.0,1.0,219.0,1
-23.0,-226.0,17.0,-165.0,-13.0,217.0,1
-27.0,-225.0,15.0,-153.0,-25.0,216.0,1
-32.0,-222.0,16.0,-146.0,-33.0,213.0,1
-25.0,-220.0,14.0,-137.0,-38.0,211.0,1
-28.0,-217.0,18.0,-134.0,-39.0,211.0,1
-30.0,-218.0,16.0,-132.0,-39.0,206.0,1
-33.0,-216.0,15.0,-132.0,-39.0,200.0,1
-30.0,-216.0,14.0,-130.0,-42.0,189.0,1
-27.0,-213.0,15.0,-124.0,-45.0,177.0,1
-25.0,-212.0,13.0,-118.0,-49.0,167.0,1
-25.0,-212.0,13.0,-111.0,-54.0,157.0,1
-21.0,-211.0,7.0,-104.0,-58.0,145.0,1
-20.0,-209.0,7.0,-96.0,-60.0,137.0,1
-17.0,-209.0,7.0,-89.0,-51.0,134.0,1
-17.0,-216.0,5.0,-81.0,-36.0,134.0,1
-16.0,-225.0,8.0,-75.0,-22.0,138.0,1
-11.0,-229.0,9.0,-78.0,-9.0,138.0,1
-6.0,-238.0,5.0,-87.0,-1.0,137.0,1
-5.0,-245.0,14.0,-99.0,6.0,135.0,1
-4.0,-254.0,17.0,-107.0,16.0,136.0,1
-6.0,-264.0,24.0,-105.0,29.0,137.0,1
1.0,-268.0,29.0,-90.0,47.0,138.0,1
0.0,-278.0,30.0,-58.0,70.0,140.0,1
5.0,-284.0,35.0,-17.0,98.0,140.0,1
9.0,-293.0,34.0,36.0,133.0,139.0,1
10.0,-297.0,35.0,97.0,170.0,133.0,1
11.0,-302.0,45.0,157.0,210.0,124.0,1
9.0,-304.0,47.0,220.0,250.0,113.0,1
9.0,-306.0,55.0,276.0,297.0,102.0,1
2.0,-308.0,59.0,332.0,342.0,87.0,1
-2.0,-309.0,59.0,389.0,387.0,74.0,1
-15.0,-305.0,61.0,443.0,433.0,66.0,1
-20.0,-306.0,58.0,470.0,468.0,61.0,1
-30.0,-306.0,45.0,472.0,487.0,60.0,1
-46.0,-309.0,40.0,446.0,482.0,63.0,1
-56.0,-316.0,32.0,388.0,453.0,73.0,1
-69.0,-325.0,18.0,302.0,404.0,91.0,1
-80.0,-335.0,13.0,199.0,346.0,125.0,1
-85.0,-350.0,6.0,101.0,297.0,165.0,1
-83.0,-365.0,9.0,35.0,257.0,209.0,1
-76.0,-377.0,3.0,8.0,229.0,248.0,1
-64.0,-391.0,-4.0,13.0,205.0,282.0,1
-46.0,-402.0,-15.0,27.0,178.0,308.0,1
-22.0,-405.0,-22.0,57.0,153.0,326.0,1
-4.0,-398.0,-28.0,102.0,137.0,330.0,1
8.0,-392.0,-38.0,173.0,138.0,317.0,1
29.0,-374.0,-52.0,271.0,149.0,285.0,1
39.0,-357.0,-62.0,377.0,165.0,239.0,1
42.0,-332.0,-70.0,469.0,182.0,184.0,1
40.0,-306.0,-82.0,525.0,196.0,130.0,1
36.0,-286.0,-92.0,531.0,227.0,83.0,1
28.0,-268.0,-89.0,489.0,276.0,52.0,1
17.0,-250.0,-87.0,420.0,352.0,42.0,1
6.0,-241.0,-88.0,347.0,450.0,45.0,1
-10.0,-230.0,-85.0,285.0,575.0,60.0,1
-12.0,-223.0,-81.0,244.0,703.0,87.0,1
-19.0,-211.0,-84.0,226.0,831.0,113.0,1
-20.0,-195.0,-80.0,222.0,947.0,146.0,1
-14.0,-185.0,-85.0,241.0,1041.0,188.0,1
-14.0,-182.0,-94.0,250.0,1108.0,220.0,1
-9.0,-186.0,-99.0,238.0,1140.0,238.0,1
2.0,-186.0,-101.0,197.0,1149.0,241.0,1
5.0,-196.0,-100.0,115.0,1143.0,233.0,1
3.0,-212.0,-91.0,9.0,1121.0,215.0,1
5.0,-227.0,-84.0,-96.0,1090.0,189.0,1
0.0,-244.0,-72.0,-182.0,1060.0,160.0,1
-6.0,-254.0,-57.0,-231.0,1032.0,128.0,1
-16.0,-269.0,-50.0,-240.0,1005.0,99.0,1
-18.0,-268.0,-34.0,-220.0,972.0,65.0,1
-24.0,-265.0,-30.0,-167.0,932.0,31.0,1
-35.0,-262.0,-28.0,-93.0,887.0,-4.0,1
-42.0,-253.0,-25.0,-8.0,837.0,-39.0,1
-48.0,-247.0,-29.0,72.0,788.0,-77.0,1
-55.0,-242.0,-34.0,142.0,744.0,-114.0,1
-61.0,-235.0,-35.0,193.0,707.0,-147.0,1
-64.0,-228.0,-37.0,221.0,676.0,-177.0,1
-68.0,-221.0,-41.0,232.0,646.0,-200.0,1
-71.0,-212.0,-33.0,228.0,617.0,-217.0,1
-70.0,-212.0,-40.0,209.0,589.0,-229.0,1
-71.0,-210.0,-38.0,184.0,563.0,-236.0,1
-68.0,-210.0,-34.0,154.0,539.0,-239.0,1
-63.0,-207.0,-33.0,130.0,520.0,-239.0,1
-57.0,-204.0,-34.0,113.0,497.0,-235.0,1
-49.0,-204.0,-28.0,107.0,478.0,-231.0,1
-36.0,-201.0,-27.0,106.0,457.0,-220.0,1
-30.0,-195.0,-26.0,106.0,443.0,-210.0,1
-23.0,-189.0,-29.0,99.0,434.0,-199.0,1
-17.0,-183.0,-27.0,78.0,429.0,-191.0,1
-13.0,-190.0,-29.0,47.0,429.0,-186.0,1
-13.0,-182.0,-23.0,12.0,430.0,-182.0,1
-14.0,-182.0,-24.0,-25.0,432.0,-178.0,1
-16.0,-186.0,-22.0,-51.0,432.0,-178.0,1
-19.0,-187.0,-20.0,-76.0,428.0,-182.0,1
-25.0,-191.0,-21.0,-95.0,417.0,-189.0,1
-29.0,-194.0,-18.0,-107.0,404.0,-197.0,1
-36.0,-195.0,-18.0,-111.0,391.0,-212.0,1
-38.0,-202.0,-13.0,-112.0,373.0,-222.0,1
-44.0,-199.0,-7.0,-108.0,349.0,-228.0,1
-39.0,-201.0,-7.0,-104.0,322.0,-227.0,1
-42.0,-203.0,-5.0,-106.0,293.0,-220.0,1
-38.0,-205.0,-3.0,-113.0,257.0,-209.0,1
-37.0,-205.0,-10.0,-128.0,213.0,-189.0,1
-31.0,-205.0,-4.0,-148.0,167.0,-165.0,1
-32.0,-201.0,-7.0,-164.0,121.0,-137.0,1
-21.0,-205.0,-9.0,-177.0,76.0,-110.0,1
-18.0,-207.0,-7.0,-190.0,35.0,-82.0,1
-16.0,-210.0,-7.0,-206.0,5.0,-58.0,1
-12.0,-214.0,-10.0,-217.0,-16.0,-39.0,1
-3.0,-223.0,-10.0,-217.0,-29.0,-23.0,1
5.0,-224.0,-11.0,-203.0,-31.0,-17.0,1
5.0,-226.0,-8.0,-175.0,-25.0,-15.0,1
8.0,-223.0,-8.0,-140.0,-17.0,-19.0,1
9.0,-220.0,-4.0,-110.0,-4.0,-29.0,1
8.0,-220.0,4.0,-85.0,13.0,-41.0,1
7.0,-220.0,13.0,-67.0,29.0,-50.0,1
3.0,-212.0,19.0,-53.0,46.0,-58.0,1
-3.0,-209.0,23.0,-48.0,61.0,-59.0,1
-5.0,-202.0,30.0,-55.0,64.0,-57.0,1
-11.0,-194.0,24.0,-68.0,62.0,-49.0,1
-18.0,-188.0,27.0,-94.0,50.0,-33.0,1
-21.0,-187.0,22.0,-129.0,26.0,-14.0,1
-30.0,-189.0,18.0,-171.0,-3.0,5.0,1
-34.0,-194.0,16.0,-214.0,-38.0,26.0,1
-39.0,-200.0,13.0,-259.0,-73.0,43.0,1
-41.0,-212.0,10.0,-305.0,-109.0,58.0,1
-43.0,-225.0,8.0,-364.0,-141.0,74.0,1
-43.0,-241.0,1.0,-427.0,-164.0,87.0,1
-43.0,-257.0,4.0,-488.0,-184.0,97.0,1
-46.0,-273.0,10.0,-534.0,-207.0,105.0,1
-42.0,-296.0,12.0,-556.0,-237.0,114.0,1
-46.0,-309.0,19.0,-544.0,-276.0,120.0,1
-45.0,-321.0,38.0,-496.0,-322.0,121.0,1
-47.0,-327.0,38.0,-420.0,-374.0,117.0,1
-45.0,-340.0,60.0,-323.0,-425.0,111.0,1
-46.0,-345.0,68.0,-212.0,-469.0,103.0,1
-45.0,-344.0,76.0,-92.0,-502.0,91.0,1
-41.0,-341.0,74.0,25.0,-520.0,74.0,1
-31.0,-336.0,79.0,138.0,-523.0,56.0,1
-19.0,-328.0,88.0,247.0,-514.0,33.0,1
-5.0,-318.0,89.0,345.0,-494.0,2.0,1
7.0,-305.0,92.0,428.0,-470.0,-34.0,1
21.0,-296.0,91.0,489.0,-439.0,-72.0,1
26.0,-279.0,94.0,522.0,-406.0,-114.0,1
35.0,-271.0,88.0,528.0,-373.0,-148.0,1
38.0,-264.0,89.0,521.0,-341.0,-171.0,1
41.0,-263.0,78.0,511.0,-315.0,-177.0,1
34.0,-273.0,64.0,486.0,-286.0,-175.0,1
38.0,-284.0,49.0,444.0,-251.0,-174.0,1
35.0,-295.0,29.0,386.0,-211.0,-179.0,1
43.0,-320.0,8.0,303.0,-156.0,-205.0,1
41.0,-339.0,-9.0,192.0,-82.0,-252.0,1
38.0,-356.0,-26.0,69.0,9.0,-315.0,1
39.0,-373.0,-38.0,-46.0,104.0,-389.0,1
32.0,-383.0,-47.0,-134.0,198.0,-473.0,1
30.0,-394.0,-53.0,-182.0,281.0,-560.0,1
19.0,-393.0,-63.0,-186.0,343.0,-637.0,1
7.0,-392.0,-71.0,-149.0,384.0,-698.0,1
-6.0,-383.0,-78.0,-75.0,404.0,-741.0,1
-16.0,-370.0,-88.0,14.0,404.0,-759.0,1
-28.0,-357.0,-90.0,105.0,380.0,-757.0,1
-44.0,-334.0,-101.0,180.0,334.0,-743.0,1
-52.0,-316.0,-101.0,235.0,267.0,-714.0,1
-69.0,-297.0,-101.0,280.0,183.0,-676.0,1
-89.0,-269.0,-105.0,311.0,93.0,-629.0,1
-99.0,-244.0,-99.0,323.0,-1.0,-576.0,1
-108.0,-221.0,-96.0,311.0,-93.0,-518.0,1
-113.0,-194.0,-106.0,286.0,-197.0,-464.0,1
-125.0,-180.0,-112.0,253.0,-307.0,-421.0,1
-121.0,-157.0,-111.0,205.0,-407.0,-388.0,1
-116.0,-137.0,-104.0,165.0,-505.0,-366.0,1
-113.0,-128.0,-109.0,139.0,-588.0,-356.0,1
-102.0,-135.0,-112.0,91.0,-648.0,-342.0,1
-94.0,-152.0,-109.0,-5.0,-667.0,-317.0,1
-80.0,-180.0,-98.0,-144.0,-645.0,-286.0,1
-72.0,-208.0,-75.0,-288.0,-595.0,-252.0,1
-57.0,-238.0,-60.0,-403.0,-540.0,-223.0,1
-39.0,-261.0,-53.0,-464.0,-488.0,-201.0,1
-31.0,-280.0,-50.0,-484.0,-451.0,-179.0,1
-19.0,-289.0,-41.0,-468.0,-425.0,-162.0,1
-9.0,-294.0,-41.0,-424.0,-405.0,-145.0,1
1.0,-294.0,-38.0,-366.0,-389.0,-128.0,1
10.0,-293.0,-43.0,-307.0,-364.0,-109.0,1
21.0,-284.0,-40.0,-253.0,-328.0,-91.0,1
26.0,-273.0,-43.0,-216.0,-277.0,-74.0,1
38.0,-269.0,-43.0,-190.0,-222.0,-53.0,1
40.0,-258.0,-44.0,-175.0,-163.0,-35.0,1
43.0,-249.0,-44.0,-158.0,-98.0,-19.0,1
49.0,-243.0,-47.0,-141.0,-35.0,-6.0,1
50.0,-236.0,-44.0,-123.0,25.0,5.0,1
52.0,-228.0,-43.0,-103.0,81.0,16.0,1
51.0,-221.0,-43.0,-91.0,137.0,30.0,1
50.0,-216.0,-40.0,-91.0,194.0,43.0,1
46.0,-213.0,-38.0,-97.0,245.0,57.0,1
42.0,-213.0,-36.0,-110.0,296.0,71.0,1
36.0,-210.0,-30.0,-123.0,345.0,87.0,1
26.0,-211.0,-29.0,-129.0,386.0,102.0,1
12.0,-205.0,-27.0,-141.0,420.0,113.0,1
4.0,-204.0,-22.0,-157.0,443.0,124.0,1
-4.0,-203.0,-17.0,-178.0,455.0,137.0,1
-11.0,-207.0,-18.0,-193.0,460.0,151.0,1
-17.0,-209.0,-14.0,-209.0,456.0,158.0,1
-20.0,-214.0,-12.0,-224.0,446.0,165.0,1
-21.0,-214.0,-8.0,-237.0,434.0,171.0,1
-20.0,-218.0,-6.0,-243.0,421.0,170.0,1
-21.0,-224.0,-8.0,-245.0,411.0,167.0,1
-19.0,-223.0,-4.0,-238.0,406.0,163.0,1
-14.0,-225.0,-5.0,-222.0,405.0,160.0,1
-12.0,-227.0,-1.0,-200.0,411.0,158.0,1
-10.0,-228.0,-4.0,-170.0,422.0,160.0,1
-7.0,-227.0,-9.0,-144.0,436.0,161.0,1
-3.0,-226.0,-7.0,-122.0,456.0,164.0,1
-2.0,-225.0,-11.0,-99.0,475.0,168.0,1
-1.0,-225.0,-6.0,-80.0,497.0,173.0,1
-1.0,-220.0,-9.0,-58.0,518.0,179.0,1
-5.0,-217.0,-7.0,-40.0,540.0,184.0,1
-1.0,-217.0,-3.0,-24.0,562.0,188.0,1
-3.0,-213.0,-3.0,-12.0,584.0,194.0,1
-6.0,-210.0,0.0,-2.0,606.0,191.0,1
-8.0,-213.0,10.0,6.0,624.0,186.0,1
-15.0,-211.0,12.0,12.0,643.0,177.0,1
-19.0,-213.0,13.0,18.0,656.0,167.0,1
-20.0,-212.0,16.0,30.0,666.0,154.0,1
-30.0,-212.0,17.0,45.0,673.0,138.0,1
-31.0,-207.0,23.0,63.0,677.0,129.0,1
-30.0,-207.0,21.0,78.0,679.0,123.0,1
-32.0,-200.0,27.0,89.0,679.0,121.0,1
-31.0,-200.0,25.0,91.0,677.0,122.0,1
-31.0,-198.0,22.0,85.0,670.0,119.0,1
-27.0,-195.0,22.0,69.0,658.0,117.0,1
-28.0,-189.0,20.0,53.0,641.0,113.0,1
-29.0,-194.0,21.0,47.0,618.0,106.0,1
-20.0,-194.0,19.0,44.0,592.0,98.0,1
-14.0,-197.0,22.0,41.0,566.0,85.0,1
-5.0,-202.0,18.0,40.0,543.0,68.0,1
-1.0,-208.0,18.0,39.0,519.0,49.0,1
6.0,-214.0,12.0,28.0,500.0,27.0,1
13.0,-221.0,11.0,-1.0,486.0,5.0,1
12.0,-230.0,5.0,-56.0,479.0,-23.0,1
12.0,-239.0,8.0,-123.0,478.0,-48.0,1
4.0,-250.0,12.0,-190.0,480.0,-74.0,1
2.0,-260.0,18.0,-240.0,483.0,-93.0,1
-4.0,-266.0,18.0,-266.0,491.0,-100.0,1
-6.0,-269.0,22.0,-271.0,510.0,-100.0,1
-7.0,-276.0,23.0,-259.0,537.0,-93.0,1
-7.0,-279.0,26.0,-237.0,570.0,-88.0,1
-9.0,-277.0,27.0,-204.0,606.0,-79.0,1
-13.0,-280.0,33.0,-164.0,642.0,-77.0,1
-12.0,-273.0,36.0,-115.0,670.0,-75.0,1
-18.0,-270.0,46.0,-64.0,685.0,-79.0,1
-23.0,-275.0,48.0,-18.0,687.0,-87.0,1
-28.0,-273.0,57.0,17.0,678.0,-97.0,1
-28.0,-273.0,65.0,38.0,662.0,-103.0,1
-27.0,-282.0,71.0,46.0,643.0,-101.0,1
-29.0,-286.0,72.0,51.0,614.0,-96.0,1
-28.0,-295.0,68.0,59.0,568.0,-89.0,1
-34.0,-307.0,51.0,71.0,509.0,-82.0,1
-47.0,-320.0,41.0,77.0,432.0,-68.0,1
-63.0,-337.0,29.0,69.0,341.0,-44.0,1
-79.0,-356.0,16.0,37.0,244.0,-2.0,1
-96.0,-375.0,-3.0,-26.0,143.0,64.0,1
-112.0,-394.0,-14.0,-117.0,52.0,153.0,1
-123.0,-409.0,-24.0,-220.0,-20.0,270.0,1
-133.0,-412.0,-42.0,-318.0,-76.0,404.0,1
-124.0,-418.0,-47.0,-379.0,-123.0,536.0,1
-109.0,-418.0,-50.0,-378.0,-170.0,646.0,1
-89.0,-409.0,-55.0,-306.0,-214.0,718.0,1
-64.0,-398.0,-53.0,-166.0,-262.0,746.0,1
-37.0,-380.0,-68.0,13.0,-309.0,724.0,1
-19.0,-356.0,-78.0,204.0,-352.0,658.0,1
-3.0,-324.0,-88.0,377.0,-393.0,556.0,1
24.0,-298.0,-101.0,513.0,-438.0,443.0,1
36.0,-262.0,-104.0,596.0,-457.0,339.0,1
48.0,-239.0,-107.0,621.0,-419.0,258.0,1
60.0,-203.0,-104.0,611.0,-321.0,204.0,1
69.0,-181.0,-99.0,586.0,-164.0,195.0,1
76.0,-158.0,-103.0,546.0,48.0,211.0,1
69.0,-150.0,-111.0,467.0,297.0,240.0,1
55.0,-141.0,-114.0,352.0,552.0,280.0,1
39.0,-153.0,-121.0,211.0,776.0,329.0,1
22.0,-175.0,-117.0,52.0,948.0,374.0,1
9.0,-196.0,-113.0,-100.0,1054.0,409.0,1
-6.0,-218.0,-108.0,-229.0,1095.0,434.0,1
-20.0,-247.0,-97.0,-328.0,1073.0,441.0,1
-36.0,-267.0,-84.0,-391.0,1005.0,430.0,1
-56.0,-289.0,-67.0,-416.0,906.0,410.0,1
-66.0,-303.0,-64.0,-394.0,791.0,381.0,1
-83.0,-312.0,-56.0,-341.0,674.0,345.0,1
-91.0,-315.0,-52.0,-262.0,562.0,306.0,1
-97.0,-310.0,-49.0,-167.0,455.0,264.0,1
-108.0,-301.0,-43.0,-65.0,354.0,222.0,1
-121.0,-281.0,-45.0,35.0,254.0,182.0,1
-122.0,-273.0,-42.0,120.0,162.0,143.0,1
-125.0,-261.0,-36.0,184.0,78.0,98.0,1
-121.0,-253.0,-32.0,238.0,-4.0,51.0,1
-120.0,-245.0,-27.0,279.0,-87.0,-2.0,1
-120.0,-234.0,-26.0,308.0,-170.0,-56.0,1
-115.0,-228.0,-17.0,329.0,-252.0,-110.0,1
-111.0,-217.0,-16.0,343.0,-330.0,-161.0,1
-104.0,-206.0,-16.0,347.0,-402.0,-204.0,1
-94.0,-197.0,-18.0,336.0,-460.0,-237.0,1
-89.0,-188.0,-15.0,313.0,-507.0,-258.0,1
-78.0,-180.0,-17.0,272.0,-545.0,-272.0,1
-74.0,-174.0,-24.0,216.0,-577.0,-277.0,1
-66.0,-173.0,-27.0,150.0,-601.0,-275.0,1
-56.0,-169.0,-24.0,73.0,-613.0,-266.0,1
-41.0,-174.0,-32.0,0.0,-621.0,-254.0,1
-34.0,-174.0,-29.0,-59.0,-623.0,-243.0,1
-23.0,-176.0,-28.0,-116.0,-618.0,-228.0,1
-20.0,-179.0,-19.0,-171.0,-605.0,-209.0,1
-20.0,-178.0,-13.0,-219.0,-585.0,-191.0,1
-19.0,-180.0,-12.0,-257.0,-565.0,-176.0,1
-17.0,-184.0,-8.0,-290.0,-546.0,-168.0,1
-17.0,-187.0,-9.0,-322.0,-532.0,-164.0,1
-19.0,-189.0,-8.0,-352.0,-518.0,-159.0,1
-20.0,-192.0,-5.0,-377.0,-513.0,-156.0,1
-23.0,-193.0,-11.0,-398.0,-521.0,-154.0,1
-28.0,-191.0,-11.0,-415.0,-537.0,-149.0,1
-25.0,-196.0,-10.0,-428.0,-560.0,-145.0,1
-28.0,-198.0,-14.0,-438.0,-593.0,-141.0,1
-26.0,-196.0,-16.0,-445.0,-628.0,-137.0,1
-21.0,-198.0,-18.0,-447.0,-664.0,-133.0,1
-20.0,-198.0,-16.0,-451.0,-697.0,-129.0,1
-15.0,-199.0,-17.0,-461.0,-728.0,-122.0,1
-12.0,-203.0,-12.0,-470.0,-754.0,-115.0,1
-8.0,-206.0,-15.0,-479.0,-776.0,-112.0,1
2.0,-209.0,-12.0,-482.0,-794.0,-110.0,1
3.0,-213.0,-13.0,-476.0,-807.0,-108.0,1
11.0,-214.0,-5.0,-467.0,-814.0,-107.0,1
17.0,-217.0,0.0,-447.0,-812.0,-106.0,1
30.0,-225.0,10.0,-408.0,-798.0,-108.0,1
35.0,-230.0,17.0,-341.0,-776.0,-112.0,1
36.0,-224.0,14.0,-262.0,-748.0,-118.0,1
30.0,-209.0,5.0,-208.0,-713.0,-122.0,1
29.0,-209.0,15.0,-219.0,-671.0,-116.0,1
26.0,-210.0,23.0,-239.0,-604.0,-96.0,1
27.0,-215.0,24.0,-250.0,-553.0,-71.0,1
23.0,-216.0,27.0,-263.0,-509.0,-52.0,1
12.0,-217.0,24.0,-273.0,-462.0,-26.0,1
5.0,-218.0,28.0,-274.0,-416.0,3.0,1
3.0,-220.0,28.0,-267.0,-379.0,32.0,1
2.0,-222.0,21.0,-268.0,-367.0,55.0,1
1.0,-226.0,19.0,-275.0,-365.0,65.0,1
4.0,-236.0,17.0,-281.0,-361.0,70.0,1
3.0,-244.0,18.0,-296.0,-357.0,65.0,1
-4.0,-256.0,22.0,-317.0,-356.0,50.0,1
-5.0,-272.0,25.0,-314.0,-359.0,28.0,1
-5.0,-284.0,31.0,-306.0,-367.0,-6.0,1
-7.0,-290.0,37.0,-283.0,-371.0,-44.0,1
-11.0,-307.0,35.0,-242.0,-362.0,-77.0,1
-5.0,-311.0,36.0,-171.0,-340.0,-99.0,1
-1.0,-306.0,35.0,-76.0,-312.0,-124.0,1
6.0,-291.0,31.0,17.0,-285.0,-154.0,1
2.0,-287.0,33.0,76.0,-248.0,-188.0,1
3.0,-289.0,40.0,119.0,-199.0,-205.0,1
2.0,-289.0,44.0,157.0,-144.0,-214.0,1
5.0,-290.0,55.0,191.0,-98.0,-223.0,1
18.0,-292.0,61.0,227.0,-62.0,-239.0,1
24.0,-293.0,68.0,266.0,-34.0,-258.0,1
28.0,-296.0,70.0,301.0,-14.0,-278.0,1
31.0,-294.0,80.0,340.0,-2.0,-298.0,1
28.0,-300.0,81.0,378.0,-10.0,-318.0,1
29.0,-297.0,80.0,412.0,-23.0,-328.0,1
18.0,-296.0,75.0,439.0,-43.0,-332.0,1
13.0,-297.0,61.0,459.0,-69.0,-325.0,1
8.0,-300.0,47.0,466.0,-102.0,-308.0,1
1.0,-309.0,34.0,450.0,-131.0,-291.0,1
7.0,-324.0,10.0,393.0,-136.0,-284.0,1
9.0,-335.0,-10.0,302.0,-102.0,-301.0,1
8.0,-349.0,-36.0,189.0,-21.0,-346.0,1
7.0,-364.0,-58.0,75.0,96.0,-419.0,1
6.0,-379.0,-67.0,-27.0,224.0,-515.0,1
5.0,-387.0,-74.0,-89.0,338.0,-623.0,1
1.0,-393.0,-83.0,-96.0,422.0,-730.0,1
-6.0,-392.0,-89.0,-57.0,484.0,-827.0,1
-14.0,-392.0,-96.0,18.0,522.0,-901.0,1
-25.0,-383.0,-105.0,103.0,534.0,-957.0,1
-42.0,-375.0,-112.0,180.0,515.0,-997.0,1
-58.0,-360.0,-116.0,259.0,464.0,-1015.0,1
-78.0,-348.0,-119.0,336.0,379.0,-1010.0,1
-97.0,-321.0,-122.0,417.0,267.0,-970.0,1
-117.0,-293.0,-121.0,491.0,145.0,-902.0,1
-130.0,-260.0,-116.0,534.0,14.0,-811.0,1
-142.0,-231.0,-118.0,543.0,-125.0,-705.0,1
-152.0,-191.0,-117.0,522.0,-276.0,-604.0,1
-156.0,-169.0,-123.0,498.0,-426.0,-513.0,1
-152.0,-157.0,-123.0,444.0,-579.0,-418.0,1
-142.0,-149.0,-119.0,368.0,-718.0,-336.0,1
-122.0,-167.0,-112.0,261.0,-823.0,-261.0,1
-93.0,-184.0,-90.0,128.0,-873.0,-195.0,1
-75.0,-203.0,-75.0,10.0,-872.0,-151.0,1
-55.0,-219.0,-58.0,-71.0,-830.0,-130.0,1
-29.0,-244.0,-47.0,-122.0,-765.0,-122.0,1
-16.0,-253.0,-44.0,-156.0,-695.0,-115.0,1
-5.0,-264.0,-47.0,-175.0,-637.0,-102.0,1
11.0,-273.0,-44.0,-189.0,-590.0,-82.0,1
23.0,-276.0,-43.0,-203.0,-552.0,-55.0,1
34.0,-279.0,-41.0,-213.0,-510.0,-21.0,1
43.0,-277.0,-40.0,-221.0,-461.0,20.0,1
46.0,-276.0,-33.0,-231.0,-401.0,60.0,1
57.0,-280.0,-32.0,-234.0,-335.0,99.0,1
62.0,-276.0,-38.0,-230.0,-265.0,128.0,1
65.0,-271.0,-30.0,-214.0,-203.0,150.0,1
66.0,-271.0,-38.0,-183.0,-145.0,165.0,1
70.0,-265.0,-36.0,-140.0,-84.0,177.0,1
70.0,-259.0,-32.0,-81.0,-23.0,184.0,1
66.0,-247.0,-38.0,-13.0,35.0,188.0,1
65.0,-240.0,-38.0,50.0,95.0,193.0,1
57.0,-229.0,-39.0,98.0,157.0,197.0,1
51.0,-218.0,-37.0,126.0,220.0,203.0,1
42.0,-204.0,-31.0,144.0,284.0,216.0,1
37.0,-197.0,-28.0,160.0,343.0,229.0,1
28.0,-186.0,-25.0,160.0,399.0,244.0,1
18.0,-178.0,-13.0,140.0,446.0,255.0,1
10.0,-175.0,-17.0,111.0,478.0,265.0,1
-1.0,-174.0,-13.0,78.0,496.0,272.0,1
-6.0,-173.0,-8.0,40.0,502.0,276.0,1
-13.0,-176.0,-3.0,12.0,495.0,279.0,1
-20.0,-180.0,-3.0,-17.0,483.0,275.0,1
-23.0,-181.0,3.0,-53.0,471.0,272.0,1
-29.0,-187.0,9.0,-90.0,456.0,273.0,1
-24.0,-186.0,10.0,-120.0,444.0,275.0,1
-23.0,-191.0,11.0,-144.0,433.0,277.0,1
-22.0,-196.0,14.0,-166.0,433.0,275.0,1
-11.0,-200.0,19.0,-187.0,438.0,268.0,1
-15.0,-206.0,12.0,-201.0,450.0,258.0,1
-13.0,-209.0,12.0,-199.0,463.0,248.0,1
-8.0,-207.0,13.0,-186.0,478.0,242.0,1
-12.0,-205.0,14.0,-161.0,495.0,244.0,1
-5.0,-199.0,15.0,-135.0,514.0,249.0,1
-2.0,-199.0,16.0,-110.0,533.0,256.0,1
-4.0,-197.0,16.0,-91.0,556.0,262.0,1
-1.0,-195.0,19.0,-83.0,579.0,272.0,1
0.0,-193.0,17.0,-88.0,601.0,284.0,1
4.0,-198.0,26.0,-100.0,626.0,291.0,1
5.0,-195.0,30.0,-113.0,655.0,294.0,1
6.0,-194.0,28.0,-120.0,684.0,295.0,1
13.0,-198.0,29.0,-119.0,709.0,289.0,1
9.0,-193.0,29.0,-111.0,730.0,279.0,1
11.0,-190.0,26.0,-104.0,748.0,269.0,1
9.0,-189.0,28.0,-104.0,762.0,255.0,1
13.0,-186.0,28.0,-112.0,775.0,241.0,1
18.0,-192.0,25.0,-130.0,789.0,227.0,1
17.0,-186.0,27.0,-150.0,800.0,211.0,1
13.0,-186.0,20.0,-167.0,810.0,192.0,1
7.0,-189.0,25.0,-183.0,812.0,170.0,1
6.0,-188.0,18.0,-199.0,812.0,153.0,1
3.0,-192.0,19.0,-226.0,815.0,137.0,1
3.0,-198.0,17.0,-252.0,808.0,126.0,1
3.0,-214.0,13.0,-283.0,802.0,112.0,1
0.0,-223.0,12.0,-316.0,790.0,96.0,1
3.0,-241.0,5.0,-345.0,772.0,84.0,1
1.0,-262.0,11.0,-380.0,755.0,62.0,1
-5.0,-283.0,13.0,-409.0,737.0,34.0,1
-19.0,-298.0,16.0,-412.0,723.0,13.0,1
-33.0,-303.0,25.0,-368.0,710.0,11.0,1
-45.0,-308.0,30.0,-281.0,699.0,25.0,1
-50.0,-306.0,21.0,-166.0,683.0,48.0,1
-53.0,-300.0,26.0,-41.0,667.0,62.0,1
-46.0,-293.0,23.0,70.0,656.0,61.0,1
-44.0,-282.0,23.0,152.0,647.0,48.0,1
-46.0,-266.0,21.0,194.0,643.0,31.0,1
-48.0,-254.0,25.0,215.0,634.0,11.0,1
-54.0,-249.0,33.0,212.0,616.0,-2.0,1
-58.0,-251.0,46.0,179.0,586.0,-7.0,1
-58.0,-257.0,64.0,129.0,550.0,5.0,1
-59.0,-271.0,76.0,75.0,509.0,34.0,1
-51.0,-279.0,88.0,36.0,465.0,74.0,1
-43.0,-296.0,92.0,28.0,410.0,116.0,1
-46.0,-311.0,80.0,45.0,343.0,156.0,1
-48.0,-332.0,60.0,71.0,267.0,189.0,1
-75.0,-355.0,32.0,70.0,180.0,224.0,1
-93.0,-371.0,-1.0,16.0,78.0,282.0,1
-117.0,-392.0,-33.0,-100.0,-40.0,371.0,1
-132.0,-408.0,-54.0,-248.0,-158.0,481.0,1
-147.0,-421.0,-65.0,-384.0,-281.0,614.0,1
-151.0,-422.0,-67.0,-448.0,-397.0,755.0,1
-148.0,-428.0,-55.0,-417.0,-505.0,891.0,1
-142.0,-418.0,-45.0,-296.0,-604.0,1007.0,1
-113.0,-407.0,-46.0,-115.0,-690.0,1093.0,1
-83.0,-393.0,-41.0,86.0,-749.0,1126.0,1
-51.0,-381.0,-39.0,296.0,-773.0,1101.0,1
-20.0,-366.0,-44.0,516.0,-762.0,1020.0,1
14.0,-344.0,-45.0,738.0,-721.0,892.0,1
40.0,-315.0,-62.0,932.0,-643.0,724.0,1
69.0,-291.0,-79.0,1054.0,-525.0,544.0,1
93.0,-255.0,-90.0,1087.0,-375.0,360.0,1
110.0,-216.0,-92.0,1044.0,-188.0,203.0,1
126.0,-180.0,-101.0,935.0,36.0,83.0,1
127.0,-144.0,-113.0,767.0,289.0,11.0,1
143.0,-121.0,-117.0,555.0,562.0,-2.0,1
129.0,-110.0,-130.0,306.0,831.0,21.0,1
98.0,-118.0,-137.0,27.0,1066.0,72.0,1
70.0,-148.0,-131.0,-238.0,1234.0,150.0,1
33.0,-180.0,-118.0,-425.0,1322.0,233.0,1
4.0,-213.0,-111.0,-517.0,1327.0,303.0,1
-26.0,-243.0,-98.0,-534.0,1267.0,350.0,1
-52.0,-271.0,-82.0,-495.0,1168.0,367.0,1
-75.0,-291.0,-68.0,-432.0,1050.0,363.0,1
-103.0,-305.0,-53.0,-367.0,936.0,336.0,1
-119.0,-305.0,-44.0,-319.0,824.0,299.0,1
-135.0,-312.0,-41.0,-289.0,723.0,255.0,1
-139.0,-308.0,-38.0,-276.0,635.0,205.0,1
-144.0,-305.0,-36.0,-265.0,559.0,155.0,1
-148.0,-289.0,-33.0,-248.0,488.0,109.0,1
-147.0,-277.0,-31.0,-225.0,412.0,61.0,1
-145.0,-269.0,-27.0,-202.0,330.0,7.0,1
-139.0,-264.0,-27.0,-181.0,239.0,-47.0,1
-130.0,-259.0,-25.0,-156.0,142.0,-101.0,1
-122.0,-244.0,-22.0,-123.0,39.0,-153.0,1
-111.0,-232.0,-27.0,-74.0,-62.0,-195.0,1
-98.0,-222.0,-17.0,-26.0,-151.0,-229.0,1
-86.0,-211.0,-21.0,5.0,-228.0,-260.0,1
-78.0,-202.0,-23.0,13.0,-294.0,-283.0,1
-73.0,-195.0,-22.0,8.0,-350.0,-299.0,1
-71.0,-188.0,-24.0,-8.0,-397.0,-304.0,1
-60.0,-187.0,-20.0,-33.0,-442.0,-299.0,1
-60.0,-182.0,-25.0,-71.0,-477.0,-295.0,1
-51.0,-185.0,-24.0,-115.0,-505.0,-289.0,1
-42.0,-198.0,-19.0,-161.0,-522.0,-287.0,1
-37.0,-201.0,-15.0,-195.0,-521.0,-285.0,1
-47.0,-200.0,-8.0,-211.0,-504.0,-286.0,1
-41.0,-205.0,-3.0,-209.0,-478.0,-283.0,1
-36.0,-198.0,-2.0,-206.0,-450.0,-275.0,1
-32.0,-196.0,-2.0,-216.0,-413.0,-265.0,1
-29.0,-194.0,2.0,-244.0,-380.0,-258.0,1
-27.0,-188.0,4.0,-281.0,-353.0,-259.0,1
-27.0,-186.0,3.0,-311.0,-337.0,-262.0,1
-27.0,-182.0,3.0,-323.0,-337.0,-265.0,1
-28.0,-179.0,-2.0,-322.0,-353.0,-271.0,1
-23.0,-179.0,-8.0,-312.0,-385.0,-279.0,1
-24.0,-176.0,-6.0,-300.0,-425.0,-285.0,1
-27.0,-173.0,-17.0,-283.0,-468.0,-291.0,1
-22.0,-169.0,-10.0,-274.0,-515.0,-290.0,1
-19.0,-164.0,-13.0,-274.0,-566.0,-286.0,1
-20.0,-164.0,-12.0,-277.0,-614.0,-282.0,1
-15.0,-166.0,-18.0,-285.0,-661.0,-273.0,1
-17.0,-165.0,-20.0,-300.0,-702.0,-259.0,1
-14.0,-165.0,-20.0,-320.0,-736.0,-243.0,1
-12.0,-168.0,-23.0,-356.0,-760.0,-218.0,1
-9.0,-169.0,-14.0,-397.0,-774.0,-188.0,1
-5.0,-178.0,-18.0,-439.0,-780.0,-157.0,1
-4.0,-187.0,-8.0,-474.0,-778.0,-128.0,1
5.0,-191.0,-4.0,-496.0,-769.0,-102.0,1
1.0,-201.0,7.0,-504.0,-754.0,-81.0,1
5.0,-206.0,13.0,-499.0,-733.0,-68.0,1
2.0,-213.0,20.0,-483.0,-708.0,-57.0,1
2.0,-217.0,19.0,-459.0,-684.0,-47.0,1
2.0,-221.0,27.0,-427.0,-659.0,-36.0,1
1.0,-224.0,25.0,-393.0,-636.0,-24.0,1
7.0,-227.0,26.0,-353.0,-611.0,-8.0,1
10.0,-224.0,30.0,-315.0,-585.0,7.0,1
15.0,-224.0,26.0,-285.0,-558.0,18.0,1
17.0,-225.0,22.0,-268.0,-529.0,29.0,1
19.0,-225.0,25.0,-260.0,-503.0,44.0,1
20.0,-222.0,22.0,-264.0,-480.0,59.0,1
20.0,-230.0,22.0,-284.0,-465.0,69.0,1
12.0,-234.0,28.0,-313.0,-455.0,76.0,1
9.0,-242.0,23.0,-338.0,-453.0,82.0,1
8.0,-250.0,28.0,-353.0,-448.0,82.0,1
4.0,-260.0,24.0,-366.0,-439.0,76.0,1
1.0,-274.0,27.0,-379.0,-428.0,63.0,1
-4.0,-286.0,22.0,-387.0,-420.0,41.0,1
-3.0,-295.0,30.0,-382.0,-403.0,15.0,1
-2.0,-305.0,30.0,-359.0,-376.0,-8.0,1
-7.0,-313.0,38.0,-314.0,-344.0,-32.0,1
-8.0,-323.0,42.0,-245.0,-304.0,-59.0,1
-13.0,-328.0,56.0,-164.0,-258.0,-84.0,1
-13.0,-339.0,69.0,-71.0,-206.0,-106.0,1
-8.0,-341.0,80.0,33.0,-152.0,-129.0,1
-8.0,-344.0,96.0,147.0,-101.0,-155.0,1
-1.0,-341.0,111.0,270.0,-56.0,-185.0,1
7.0,-337.0,119.0,396.0,-19.0,-220.0,1
19.0,-336.0,128.0,519.0,8.0,-263.0,1
25.0,-323.0,125.0,634.0,24.0,-314.0,1
29.0,-313.0,130.0,735.0,27.0,-371.0,1
30.0,-302.0,126.0,820.0,23.0,-427.0,1
30.0,-281.0,122.0,883.0,11.0,-478.0,1
22.0,-260.0,111.0,926.0,-9.0,-523.0,1
17.0,-240.0,81.0,945.0,-39.0,-551.0,1
3.0,-230.0,53.0,924.0,-64.0,-564.0,1
1.0,-225.0,26.0,859.0,-77.0,-560.0,1
10.0,-238.0,-4.0,732.0,-77.0,-554.0,1
15.0,-256.0,-31.0,537.0,-50.0,-571.0,1
11.0,-291.0,-50.0,271.0,11.0,-617.0,1
6.0,-325.0,-69.0,-5.0,84.0,-692.0,1
-1.0,-356.0,-84.0,-231.0,167.0,-784.0,1
-3.0,-384.0,-96.0,-384.0,240.0,-873.0,1
-5.0,-409.0,-108.0,-456.0,298.0,-954.0,1
-7.0,-428.0,-118.0,-467.0,342.0,-1024.0,1
-15.0,-444.0,-124.0,-433.0,371.0,-1074.0,1
-23.0,-459.0,-135.0,-338.0,387.0,-1091.0,1
-31.0,-461.0,-147.0,-203.0,396.0,-1082.0,1
-50.0,-463.0,-157.0,-50.0,385.0,-1044.0,1
-72.0,-450.0,-162.0,96.0,343.0,-983.0,1
-87.0,-430.0,-170.0,223.0,258.0,-900.0,1
-107.0,-395.0,-175.0,325.0,134.0,-803.0,1
-133.0,-358.0,-170.0,377.0,-16.0,-698.0,1
-149.0,-324.0,-160.0,392.0,-182.0,-586.0,1
-157.0,-294.0,-152.0,389.0,-354.0,-476.0,1
-155.0,-273.0,-148.0,384.0,-510.0,-374.0,1
-150.0,-260.0,-129.0,393.0,-634.0,-294.0,1
-140.0,-246.0,-117.0,420.0,-727.0,-244.0,1
-128.0,-233.0,-106.0,462.0,-790.0,-224.0,1
-114.0,-225.0,-93.0,499.0,-825.0,-220.0,1
-102.0,-218.0,-87.0,504.0,-830.0,-216.0,1
-85.0,-205.0,-82.0,484.0,-808.0,-208.0,1
-69.0,-212.0,-74.0,441.0,-769.0,-187.0,1
-41.0,-213.0,-71.0,363.0,-711.0,-148.0,1
-21.0,-214.0,-70.0,267.0,-642.0,-102.0,1
-4.0,-224.0,-63.0,151.0,-570.0,-44.0,1
16.0,-229.0,-52.0,32.0,-500.0,18.0,1
29.0,-232.0,-45.0,-77.0,-435.0,82.0,1
44.0,-238.0,-48.0,-164.0,-382.0,138.0,1
51.0,-242.0,-34.0,-234.0,-333.0,184.0,1
55.0,-238.0,-29.0,-277.0,-294.0,226.0,1
63.0,-240.0,-27.0,-296.0,-272.0,261.0,1
70.0,-235.0,-24.0,-301.0,-245.0,291.0,1
71.0,-237.0,-23.0,-295.0,-207.0,314.0,1
80.0,-236.0,-21.0,-280.0,-156.0,334.0,1
69.0,-233.0,-23.0,-255.0,-96.0,349.0,1
65.0,-225.0,-26.0,-217.0,-31.0,368.0,1
60.0,-219.0,-32.0,-162.0,33.0,394.0,1
56.0,-213.0,-31.0,-109.0,98.0,423.0,1
53.0,-206.0,-34.0,-60.0,166.0,452.0,1
41.0,-187.0,-34.0,-18.0,228.0,468.0,1
31.0,-176.0,-36.0,13.0,280.0,479.0,1
21.0,-161.0,-41.0,24.0,317.0,479.0,1
8.0,-145.0,-35.0,7.0,338.0,480.0,1
-4.0,-134.0,-35.0,-45.0,342.0,474.0,1
-11.0,-129.0,-28.0,-109.0,333.0,465.0,1
-14.0,-127.0,-26.0,-166.0,317.0,454.0,1
-20.0,-125.0,-19.0,-226.0,304.0,435.0,1
-24.0,-119.0,-18.0,-287.0,301.0,412.0,1
-34.0,-120.0,-23.0,-354.0,300.0,396.0,1
-39.0,-125.0,-23.0,-420.0,293.0,389.0,1
-44.0,-135.0,-23.0,-473.0,280.0,381.0,1
-50.0,-147.0,-29.0,-509.0,263.0,367.0,1
-50.0,-154.0,-23.0,-528.0,249.0,348.0,1
-48.0,-163.0,-23.0,-533.0,251.0,333.0,1
-43.0,-171.0,-18.0,-530.0,267.0,324.0,1
-38.0,-174.0,-20.0,-527.0,286.0,322.0,1
-28.0,-176.0,-13.0,-524.0,306.0,321.0,1
-20.0,-180.0,-18.0,-521.0,331.0,314.0,1
-13.0,-187.0,-18.0,-516.0,362.0,309.0,1
-1.0,-189.0,-21.0,-508.0,397.0,304.0,1
6.0,-195.0,-15.0,-503.0,439.0,291.0,1
12.0,-197.0,-10.0,-498.0,485.0,276.0,1
21.0,-200.0,-12.0,-490.0,537.0,261.0,1
24.0,-208.0,-8.0,-477.0,589.0,248.0,1
29.0,-213.0,-19.0,-459.0,639.0,236.0,1
21.0,-220.0,-8.0,-447.0,693.0,214.0,1
16.0,-220.0,-29.0,-429.0,741.0,202.0,1
15.0,-219.0,-12.0,-406.0,798.0,188.0,1
11.0,-227.0,-11.0,-374.0,850.0,173.0,1
9.0,-227.0,-10.0,-341.0,906.0,161.0,1
8.0,-233.0,-9.0,-306.0,958.0,146.0,1
7.0,-236.0,-11.0,-271.0,1000.0,130.0,1
7.0,-241.0,-12.0,-243.0,1026.0,110.0,1
5.0,-243.0,0.0,-214.0,1040.0,90.0,1
3.0,-242.0,3.0,-183.0,1043.0,74.0,1
-1.0,-242.0,-4.0,-160.0,1040.0,58.0,1
-7.0,-237.0,-8.0,-158.0,1031.0,43.0,1
-14.0,-243.0,-9.0,-178.0,1016.0,31.0,1
-22.0,-243.0,-12.0,-229.0,993.0,24.0,1
-27.0,-250.0,-17.0,-305.0,963.0,20.0,1
-39.0,-258.0,-14.0,-393.0,935.0,20.0,1
-52.0,-271.0,-5.0,-473.0,909.0,28.0,1
-63.0,-289.0,2.0,-531.0,890.0,45.0,1
-77.0,-301.0,14.0,-565.0,878.0,67.0,1
-82.0,-315.0,29.0,-566.0,868.0,98.0,1
-86.0,-325.0,36.0,-543.0,861.0,135.0,1
-90.0,-340.0,52.0,-493.0,847.0,175.0,1
-95.0,-351.0,65.0,-420.0,822.0,216.0,1
-93.0,-357.0,77.0,-346.0,786.0,259.0,1
-92.0,-358.0,82.0,-272.0,740.0,308.0,1
-81.0,-368.0,91.0,-195.0,698.0,360.0,1
-70.0,-369.0,101.0,-115.0,662.0,405.0,1
-59.0,-368.0,108.0,-29.0,637.0,434.0,1
-42.0,-365.0,115.0,57.0,616.0,450.0,1
-34.0,-358.0,120.0,137.0,596.0,452.0,1
-18.0,-350.0,117.0,200.0,574.0,448.0,1
-7.0,-333.0,115.0,241.0,537.0,434.0,1
12.0,-323.0,112.0,260.0,487.0,415.0,1
6.0,-313.0,101.0,254.0,428.0,397.0,1
8.0,-304.0,86.0,222.0,371.0,379.0,1
1.0,-295.0,74.0,166.0,315.0,361.0,1
-13.0,-284.0,57.0,98.0,264.0,347.0,1
-24.0,-277.0,41.0,28.0,210.0,338.0,1
-37.0,-276.0,28.0,-48.0,159.0,330.0,1
-49.0,-272.0,11.0,-128.0,116.0,331.0,1
-63.0,-276.0,-8.0,-217.0,81.0,340.0,1
-77.0,-285.0,-29.0,-321.0,51.0,347.0,1
-86.0,-298.0,-44.0,-446.0,19.0,354.0,1
-96.0,-307.0,-63.0,-590.0,-17.0,365.0,1
-106.0,-321.0,-75.0,-731.0,-57.0,382.0,1
-109.0,-333.0,-89.0,-857.0,-103.0,404.0,1
-111.0,-347.0,-105.0,-945.0,-147.0,431.0,1
-104.0,-364.0,-126.0,-987.0,-183.0,451.0,1
-97.0,-372.0,-132.0,-974.0,-206.0,461.0,1
-102.0,-376.0,-160.0,-895.0,-223.0,459.0,1
-89.0,-375.0,-170.0,-760.0,-233.0,453.0,1
-85.0,-371.0,-182.0,-597.0,-233.0,443.0,1
-73.0,-353.0,-187.0,-410.0,-244.0,430.0,1
-56.0,-331.0,-200.0,-231.0,-248.0,423.0,1
-39.0,-311.0,-196.0,-82.0,-228.0,420.0,1
-28.0,-289.0,-191.0,47.0,-185.0,429.0,1
-20.0,-274.0,-181.0,159.0,-119.0,441.0,1
-20.0,-254.0,-173.0,269.0,-47.0,463.0,1
-19.0,-247.0,-162.0,360.0,20.0,487.0,1
-25.0,-244.0,-148.0,415.0,64.0,502.0,1
-27.0,-251.0,-140.0,422.0,80.0,499.0,1
-32.0,-258.0,-127.0,381.0,72.0,476.0,1
-35.0,-261.0,-124.0,311.0,48.0,445.0,1
-42.0,-267.0,-117.0,231.0,18.0,410.0,1
-41.0,-266.0,-112.0,141.0,-4.0,377.0,1
-54.0,-277.0,-105.0,50.0,-18.0,350.0,1
-63.0,-285.0,-99.0,-33.0,-22.0,328.0,1
-66.0,-295.0,-98.0,-100.0,-22.0,316.0,1
-71.0,-299.0,-93.0,-148.0,-22.0,304.0,1
-75.0,-299.0,-85.0,-163.0,-34.0,288.0,1
-73.0,-295.0,-86.0,-141.0,-59.0,264.0,1
-78.0,-290.0,-77.0,-85.0,-97.0,236.0,1
-79.0,-281.0,-81.0,-14.0,-149.0,204.0,1
-80.0,-267.0,-83.0,50.0,-211.0,168.0,1
-84.0,-256.0,-80.0,98.0,-279.0,134.0,1
-83.0,-244.0,-82.0,128.0,-351.0,101.0,1
-85.0,-234.0,-81.0,131.0,-424.0,65.0,1
-87.0,-224.0,-79.0,115.0,-491.0,34.0,1
-89.0,-214.0,-77.0,82.0,-556.0,12.0,1
-88.0,-208.0,-73.0,40.0,-615.0,-3.0,1
-85.0,-201.0,-72.0,-11.0,-664.0,-12.0,1
-84.0,-200.0,-69.0,-61.0,-707.0,-21.0,1
-85.0,-200.0,-65.0,-113.0,-745.0,-25.0,1
-85.0,-191.0,-60.0,-165.0,-777.0,-25.0,1
-84.0,-190.0,-61.0,-214.0,-807.0,-23.0,1
-80.0,-195.0,-62.0,-256.0,-835.0,-22.0,1
-68.0,-197.0,-43.0,-298.0,-859.0,-25.0,1
-73.0,-195.0,-52.0,-326.0,-881.0,-43.0,1
-71.0,-198.0,-51.0,-339.0,-898.0,-62.0,1
-69.0,-199.0,-45.0,-342.0,-916.0,-82.0,1
-69.0,-193.0,-44.0,-334.0,-935.0,-104.0,1
-71.0,-190.0,-43.0,-314.0,-953.0,-125.0,1
-69.0,-193.0,-47.0,-297.0,-969.0,-145.0,1
-65.0,-189.0,-41.0,-294.0,-988.0,-179.0,1
-58.0,-191.0,-39.0,-292.0,-1013.0,-216.0,1
-60.0,-186.0,-47.0,-290.0,-1036.0,-259.0,1
-58.0,-190.0,-42.0,-281.0,-1067.0,-295.0,1
-55.0,-189.0,-42.0,-265.0,-1103.0,-330.0,1
-62.0,-183.0,-41.0,-235.0,-1137.0,-362.0,1
-59.0,-179.0,-42.0,-201.0,-1175.0,-389.0,1
-60.0,-177.0,-46.0,-169.0,-1211.0,-411.0,1
-56.0,-175.0,-49.0,-151.0,-1247.0,-433.0,1
-50.0,-172.0,-41.0,-137.0,-1277.0,-452.0,1
-51.0,-164.0,-45.0,-124.0,-1304.0,-471.0,1
-49.0,-154.0,-42.0,-115.0,-1327.0,-485.0,1
-44.0,-149.0,-44.0,-120.0,-1348.0,-496.0,1
-37.0,-148.0,-46.0,-133.0,-1365.0,-505.0,1
-32.0,-140.0,-50.0,-149.0,-1377.0,-506.0,1
-24.0,-142.0,-48.0,-174.0,-1378.0,-501.0,1
-20.0,-147.0,-50.0,-214.0,-1371.0,-492.0,1
-17.0,-150.0,-49.0,-260.0,-1362.0,-480.0,1
-10.0,-150.0,-44.0,-304.0,-1349.0,-464.0,1
-8.0,-151.0,-43.0,-323.0,-1329.0,-455.0,1
-7.0,-152.0,-42.0,-327.0,-1309.0,-444.0,1
-5.0,-153.0,-44.0,-340.0,-1284.0,-428.0,1
-8.0,-158.0,-40.0,-359.0,-1252.0,-407.0,1
-7.0,-160.0,-37.0,-376.0,-1220.0,-380.0,1
-6.0,-162.0,-36.0,-390.0,-1187.0,-352.0,1
-8.0,-162.0,-39.0,-396.0,-1153.0,-320.0,1
-9.0,-168.0,-33.0,-392.0,-1115.0,-283.0,1
-7.0,-170.0,-31.0,-378.0,-1078.0,-246.0,1
-6.0,-172.0,-30.0,-360.0,-1037.0,-209.0,1
-3.0,-175.0,-32.0,-343.0,-998.0,-172.0,1
-2.0,-180.0,-26.0,-327.0,-960.0,-132.0,1
0.0,-180.0,-22.0,-311.0,-917.0,-96.0,1
2.0,-186.0,-22.0,-295.0,-876.0,-64.0,1
8.0,-193.0,-16.0,-279.0,-839.0,-31.0,1
6.0,-195.0,-16.0,-263.0,-801.0,-4.0,1
8.0,-199.0,-7.0,-245.0,-767.0,21.0,1
10.0,-206.0,-4.0,-218.0,-737.0,47.0,1
10.0,-208.0,5.0,-180.0,-710.0,65.0,1
13.0,-211.0,13.0,-139.0,-687.0,84.0,1
14.0,-210.0,20.0,-93.0,-663.0,97.0,1
14.0,-217.0,27.0,-44.0,-644.0,100.0,1
11.0,-217.0,29.0,-1.0,-628.0,101.0,1
12.0,-218.0,32.0,38.0,-614.0,102.0,1
18.0,-222.0,32.0,68.0,-600.0,101.0,1
13.0,-218.0,32.0,86.0,-585.0,101.0,1
16.0,-220.0,33.0,94.0,-569.0,99.0,1
18.0,-219.0,28.0,99.0,-551.0,95.0,1
16.0,-223.0,26.0,106.0,-528.0,88.0,1
22.0,-222.0,29.0,112.0,-495.0,85.0,1
21.0,-225.0,23.0,102.0,-454.0,82.0,1
27.0,-236.0,23.0,84.0,-411.0,76.0,1
24.0,-249.0,25.0,47.0,-366.0,69.0,1
12.0,-258.0,30.0,-2.0,-320.0,55.0,1
4.0,-271.0,42.0,-42.0,-283.0,39.0,1
-7.0,-282.0,50.0,-53.0,-258.0,22.0,1
-16.0,-295.0,57.0,-46.0,-241.0,9.0,1
-31.0,-298.0,65.0,-14.0,-235.0,-8.0,1
-40.0,-306.0,71.0,38.0,-237.0,-20.0,1
-48.0,-309.0,75.0,105.0,-248.0,-19.0,1
-46.0,-306.0,85.0,179.0,-267.0,-16.0,1
-44.0,-307.0,91.0,256.0,-284.0,-8.0,1
-41.0,-303.0,100.0,329.0,-289.0,6.0,1
-29.0,-304.0,107.0,397.0,-281.0,20.0,1
-12.0,-290.0,119.0,477.0,-258.0,23.0,1
-14.0,-283.0,134.0,556.0,-211.0,4.0,1
-6.0,-280.0,144.0,643.0,-160.0,5.0,1
-3.0,-273.0,144.0,728.0,-133.0,-1.0,1
-2.0,-266.0,152.0,798.0,-148.0,-16.0,1
-5.0,-261.0,166.0,854.0,-197.0,-40.0,1
-10.0,-249.0,148.0,903.0,-268.0,-67.0,1
-20.0,-241.0,141.0,933.0,-343.0,-88.0,1
-31.0,-236.0,120.0,922.0,-404.0,-93.0,1
-41.0,-241.0,96.0,866.0,-435.0,-76.0,1
-48.0,-255.0,73.0,763.0,-429.0,-58.0,1
-52.0,-273.0,38.0,615.0,-384.0,-40.0,1
-48.0,-297.0,5.0,442.0,-310.0,-39.0,1
-51.0,-314.0,-37.0,264.0,-221.0,-51.0,1
-45.0,-336.0,-80.0,100.0,-127.0,-83.0,1
-26.0,-356.0,-117.0,-28.0,-19.0,-124.0,1
-19.0,-378.0,-160.0,-108.0,105.0,-171.0,1
-17.0,-384.0,-186.0,-144.0,241.0,-229.0,1
0.0,-408.0,-214.0,-167.0,382.0,-278.0,1
17.0,-418.0,-231.0,-170.0,506.0,-331.0,1
27.0,-404.0,-263.0,-168.0,599.0,-416.0,1
33.0,-404.0,-282.0,-209.0,673.0,-518.0,1
27.0,-407.0,-288.0,-311.0,754.0,-613.0,1
5.0,-417.0,-279.0,-430.0,856.0,-698.0,1
-14.0,-425.0,-253.0,-507.0,949.0,-772.0,1
-38.0,-424.0,-221.0,-490.0,1010.0,-835.0,1
-55.0,-419.0,-184.0,-391.0,1030.0,-879.0,1
-74.0,-410.0,-149.0,-225.0,1020.0,-906.0,1
-91.0,-386.0,-129.0,-1.0,977.0,-916.0,1
-106.0,-365.0,-108.0,254.0,901.0,-905.0,1
-117.0,-340.0,-95.0,506.0,807.0,-863.0,1
-123.0,-316.0,-97.0,724.0,718.0,-795.0,1
-131.0,-293.0,-103.0,860.0,631.0,-706.0,1
-134.0,-262.0,-107.0,904.0,546.0,-602.0,1
-144.0,-242.0,-113.0,867.0,455.0,-498.0,1
-144.0,-224.0,-113.0,767.0,366.0,-387.0,1
-132.0,-210.0,-110.0,613.0,277.0,-287.0,1
-113.0,-201.0,-102.0,438.0,193.0,-198.0,1
-103.0,-204.0,-91.0,256.0,126.0,-130.0,1
-84.0,-213.0,-80.0,84.0,87.0,-77.0,1
-68.0,-234.0,-65.0,-59.0,71.0,-48.0,1
-37.0,-246.0,-57.0,-146.0,76.0,-32.0,1
-16.0,-252.0,-52.0,-169.0,100.0,-30.0,1
0.0,-259.0,-46.0,-142.0,148.0,-30.0,1
14.0,-253.0,-50.0,-94.0,209.0,-25.0,1
19.0,-256.0,-49.0,-37.0,274.0,-20.0,1
27.0,-251.0,-58.0,12.0,331.0,-5.0,1
27.0,-254.0,-64.0,60.0,393.0,6.0,1
22.0,-252.0,-76.0,74.0,466.0,45.0,1
27.0,-246.0,-71.0,67.0,552.0,82.0,1
25.0,-242.0,-73.0,81.0,630.0,94.0,1
29.0,-240.0,-68.0,99.0,710.0,102.0,1
26.0,-233.0,-64.0,113.0,797.0,114.0,1
13.0,-212.0,-51.0,129.0,879.0,106.0,1
12.0,-206.0,-56.0,173.0,935.0,101.0,1
9.0,-192.0,-58.0,204.0,976.0,89.0,1
7.0,-177.0,-53.0,206.0,1018.0,80.0,1
1.0,-167.0,-57.0,191.0,1057.0,76.0,1
-1.0,-157.0,-50.0,157.0,1090.0,72.0,1
-5.0,-158.0,-64.0,108.0,1118.0,66.0,1
-7.0,-160.0,-58.0,45.0,1143.0,56.0,1
-16.0,-160.0,-49.0,-24.0,1163.0,42.0,1
-23.0,-169.0,-47.0,-81.0,1177.0,29.0,1
-32.0,-175.0,-42.0,-121.0,1188.0,20.0,1
-36.0,-180.0,-36.0,-141.0,1188.0,15.0,1
-40.0,-182.0,-35.0,-142.0,1183.0,11.0,1
-44.0,-188.0,-26.0,-138.0,1177.0,9.0,1
-42.0,-195.0,-29.0,-136.0,1171.0,11.0,1
-43.0,-196.0,-26.0,-133.0,1165.0,12.0,1
-41.0,-203.0,-26.0,-118.0,1155.0,14.0,1
-34.0,-204.0,-13.0,-98.0,1141.0,16.0,1
-37.0,-209.0,-20.0,-81.0,1128.0,16.0,1
-29.0,-215.0,-17.0,-64.0,1116.0,20.0,1
-24.0,-215.0,-19.0,-41.0,1111.0,21.0,1
-22.0,-217.0,-16.0,-16.0,1112.0,23.0,1
-17.0,-220.0,-15.0,4.0,1115.0,20.0,1
-12.0,-219.0,-11.0,29.0,1124.0,14.0,1
-5.0,-223.0,-5.0,55.0,1134.0,1.0,1
-7.0,-223.0,-4.0,81.0,1144.0,-17.0,1
-5.0,-224.0,6.0,102.0,1157.0,-33.0,1
-6.0,-218.0,6.0,128.0,1172.0,-50.0,1
-12.0,-218.0,12.0,158.0,1190.0,-71.0,1
-9.0,-222.0,17.0,196.0,1202.0,-90.0,1
-19.0,-216.0,23.0,246.0,1210.0,-114.0,1
-20.0,-211.0,28.0,306.0,1208.0,-138.0,1
-31.0,-209.0,36.0,364.0,1201.0,-158.0,1
-38.0,-200.0,43.0,420.0,1188.0,-173.0,1
-44.0,-193.0,50.0,469.0,1167.0,-178.0,1
-49.0,-184.0,52.0,512.0,1146.0,-174.0,1
-52.0,-177.0,57.0,550.0,1127.0,-158.0,1
-55.0,-171.0,60.0,580.0,1111.0,-136.0,1
-50.0,-162.0,57.0,606.0,1099.0,-110.0,1
-50.0,-152.0,54.0,618.0,1089.0,-84.0,1
-38.0,-150.0,51.0,618.0,1079.0,-58.0,1
-33.0,-149.0,49.0,598.0,1076.0,-37.0,1
-20.0,-150.0,41.0,558.0,1077.0,-20.0,1
-13.0,-153.0,38.0,496.0,1086.0,-11.0,1
0.0,-165.0,34.0,414.0,1101.0,-8.0,1
4.0,-175.0,33.0,324.0,1116.0,-12.0,1
15.0,-190.0,31.0,230.0,1127.0,-20.0,1
19.0,-205.0,25.0,140.0,1133.0,-29.0,1
20.0,-219.0,30.0,65.0,1131.0,-44.0,1
23.0,-233.0,28.0,10.0,1115.0,-65.0,1
27.0,-240.0,39.0,-18.0,1090.0,-89.0,1
18.0,-247.0,31.0,-21.0,1061.0,-114.0,1
16.0,-254.0,30.0,-9.0,1035.0,-140.0,1
10.0,-258.0,35.0,14.0,1020.0,-162.0,1
5.0,-265.0,41.0,45.0,1017.0,-184.0,1
-4.0,-270.0,44.0,88.0,1026.0,-209.0,1
-14.0,-272.0,48.0,144.0,1049.0,-228.0,1
-22.0,-272.0,57.0,209.0,1078.0,-242.0,1
-37.0,-274.0,69.0,279.0,1113.0,-249.0,1
-48.0,-273.0,76.0,349.0,1149.0,-253.0,1
-58.0,-278.0,88.0,414.0,1183.0,-250.0,1
-62.0,-277.0,92.0,477.0,1211.0,-242.0,1
-65.0,-276.0,103.0,543.0,1229.0,-226.0,1
-63.0,-274.0,106.0,614.0,1234.0,-203.0,1
-62.0,-266.0,111.0,683.0,1230.0,-176.0,1
-56.0,-258.0,108.0,748.0,1220.0,-155.0,1
-48.0,-257.0,99.0,808.0,1199.0,-140.0,1
-45.0,-247.0,91.0,844.0,1170.0,-149.0,1
-37.0,-243.0,75.0,855.0,1127.0,-167.0,1
-33.0,-236.0,59.0,841.0,1074.0,-192.0,1
-34.0,-226.0,39.0,790.0,1017.0,-216.0,1
-38.0,-228.0,23.0,700.0,955.0,-236.0,1
-41.0,-246.0,-1.0,562.0,895.0,-233.0,1
-52.0,-265.0,-11.0,386.0,833.0,-210.0,1
-64.0,-291.0,-26.0,215.0,760.0,-161.0,1
-76.0,-308.0,-45.0,64.0,679.0,-95.0,1
-88.0,-324.0,-64.0,-66.0,584.0,-10.0,1
-103.0,-339.0,-80.0,-185.0,479.0,86.0,1
-122.0,-353.0,-91.0,-283.0,361.0,197.0,1
-128.0,-366.0,-99.0,-366.0,235.0,323.0,1
-122.0,-373.0,-98.0,-421.0,111.0,462.0,1
-117.0,-374.0,-97.0,-430.0,-5.0,593.0,1
-98.0,-371.0,-92.0,-388.0,-99.0,704.0,1
-82.0,-366.0,-92.0,-303.0,-175.0,783.0,1
-65.0,-353.0,-75.0,-184.0,-230.0,820.0,1
-41.0,-339.0,-79.0,-29.0,-273.0,817.0,1
-20.0,-319.0,-68.0,141.0,-296.0,773.0,1
6.0,-303.0,-56.0,303.0,-291.0,692.0,1
29.0,-281.0,-52.0,442.0,-261.0,583.0,1
54.0,-257.0,-47.0,558.0,-209.0,447.0,1
73.0,-240.0,-47.0,637.0,-131.0,296.0,1
88.0,-219.0,-46.0,669.0,-33.0,140.0,1
93.0,-205.0,-41.0,659.0,88.0,4.0,1
97.0,-193.0,-51.0,611.0,229.0,-101.0,1
93.0,-188.0,-49.0,532.0,388.0,-174.0,1
84.0,-185.0,-49.0,434.0,557.0,-225.0,1
68.0,-190.0,-51.0,324.0,723.0,-256.0,1
55.0,-196.0,-53.0,209.0,881.0,-270.0,1
32.0,-208.0,-48.0,96.0,1020.0,-272.0,1
15.0,-218.0,-45.0,1.0,1137.0,-266.0,1
-5.0,-228.0,-47.0,-60.0,1225.0,-261.0,1
-16.0,-230.0,-44.0,-86.0,1288.0,-258.0,1
-21.0,-234.0,-43.0,-90.0,1333.0,-267.0,1
-22.0,-237.0,-47.0,-72.0,1364.0,-283.0,1
-25.0,-240.0,-44.0,-38.0,1391.0,-305.0,1
-24.0,-237.0,-46.0,4.0,1417.0,-335.0,1
-23.0,-233.0,-48.0,45.0,1447.0,-365.0,1
-18.0,-230.0,-47.0,82.0,1481.0,-391.0,1
-12.0,-229.0,-50.0,111.0,1521.0,-413.0,1
-4.0,-225.0,-51.0,134.0,1564.0,-432.0,1
6.0,-226.0,-48.0,149.0,1609.0,-452.0,1
11.0,-222.0,-49.0,163.0,1651.0,-471.0,1
17.0,-215.0,-47.0,181.0,1686.0,-493.0,1
20.0,-214.0,-47.0,205.0,1715.0,-518.0,1
27.0,-217.0,-51.0,229.0,1743.0,-546.0,1
30.0,-212.0,-49.0,248.0,1768.0,-573.0,1
29.0,-209.0,-47.0,259.0,1790.0,-600.0,1
27.0,-209.0,-47.0,262.0,1812.0,-625.0,1
27.0,-210.0,-52.0,258.0,1835.0,-646.0,1
31.0,-216.0,-47.0,249.0,1862.0,-661.0,1
31.0,-218.0,-49.0,242.0,1897.0,-671.0,1
25.0,-220.0,-48.0,239.0,1942.0,-677.0,1
28.0,-223.0,-42.0,240.0,1993.0,-679.0,1
27.0,-224.0,-39.0,250.0,2056.0,-682.0,1
28.0,-221.0,-38.0,264.0,2125.0,-687.0,1
26.0,-217.0,-40.0,286.0,2202.0,-692.0,1
27.0,-218.0,-37.0,312.0,2280.0,-703.0,1
23.0,-215.0,-40.0,336.0,2361.0,-719.0,1
27.0,-208.0,-42.0,362.0,2445.0,-739.0,1
24.0,-206.0,-41.0,386.0,2526.0,-759.0,1
19.0,-201.0,-42.0,404.0,2606.0,-782.0,1
13.0,-195.0,-45.0,417.0,2683.0,-802.0,1
17.0,-193.0,-47.0,426.0,2753.0,-822.0,1
6.0,-193.0,-49.0,428.0,2816.0,-836.0,1
2.0,-188.0,-47.0,423.0,2872.0,-845.0,1
-3.0,-187.0,-48.0,413.0,2918.0,-847.0,1
-15.0,-185.0,-50.0,397.0,2955.0,-842.0,1
-19.0,-184.0,-50.0,381.0,2986.0,-830.0,1
-26.0,-180.0,-44.0,365.0,3009.0,-817.0,1
-33.0,-180.0,-39.0,350.0,3021.0,-800.0,1
-38.0,-179.0,-38.0,337.0,3023.0,-782.0,1
-42.0,-181.0,-35.0,327.0,3013.0,-771.0,1
-43.0,-180.0,-38.0,319.0,2994.0,-764.0,1
-45.0,-180.0,-35.0,315.0,2967.0,-764.0,1
-53.0,-178.0,-35.0,312.0,2939.0,-770.0,1
-56.0,-182.0,-45.0,309.0,2907.0,-781.0,1
-54.0,-178.0,-43.0,295.0,2881.0,-795.0,1
-55.0,-188.0,-43.0,269.0,2865.0,-810.0,1
-69.0,-181.0,-52.0,235.0,2855.0,-825.0,1
-70.0,-186.0,-56.0,195.0,2857.0,-835.0,1
-75.0,-187.0,-61.0,147.0,2866.0,-841.0,1
-83.0,-193.0,-55.0,98.0,2874.0,-841.0,1
-90.0,-191.0,-59.0,55.0,2875.0,-831.0,1
-94.0,-190.0,-60.0,24.0,2870.0,-819.0,1
-99.0,-195.0,-57.0,6.0,2857.0,-804.0,1
-103.0,-194.0,-53.0,7.0,2837.0,-787.0,1
-109.0,-194.0,-53.0,18.0,2809.0,-767.0,1
-111.0,-197.0,-52.0,35.0,2771.0,-749.0,1
-118.0,-194.0,-45.0,56.0,2727.0,-731.0,1
-117.0,-196.0,-47.0,75.0,2674.0,-716.0,1
-120.0,-199.0,-43.0,84.0,2616.0,-704.0,1
-121.0,-198.0,-45.0,84.0,2557.0,-697.0,1
-119.0,-197.0,-41.0,77.0,2508.0,-696.0,1
-124.0,-193.0,-38.0,71.0,2462.0,-702.0,1
-127.0,-193.0,-35.0,74.0,2422.0,-714.0,1
-129.0,-190.0,-30.0,85.0,2385.0,-733.0,1
-136.0,-182.0,-28.0,101.0,2341.0,-759.0,1
-135.0,-177.0,-30.0,108.0,2308.0,-789.0,1
-138.0,-172.0,-37.0,111.0,2277.0,-819.0,1
-142.0,-160.0,-33.0,97.0,2246.0,-852.0,1
-142.0,-153.0,-42.0,73.0,2214.0,-882.0,1
-138.0,-152.0,-48.0,33.0,2184.0,-908.0,1
-133.0,-149.0,-52.0,-21.0,2162.0,-930.0,1
-130.0,-146.0,-54.0,-88.0,2149.0,-944.0,1
-124.0,-149.0,-57.0,-168.0,2144.0,-954.0,1
-121.0,-153.0,-55.0,-261.0,2146.0,-955.0,1
-112.0,-158.0,-54.0,-366.0,2152.0,-951.0,1
-102.0,-165.0,-52.0,-464.0,2168.0,-936.0,1
-98.0,-158.0,-40.0,-547.0,2201.0,-918.0,1
-92.0,-154.0,-29.0,-603.0,2246.0,-907.0,1
-80.0,-155.0,-17.0,-633.0,2302.0,-898.0,1
-65.0,-147.0,-11.0,-637.0,2364.0,-893.0,1
-47.0,-142.0,-5.0,-633.0,2435.0,-890.0,1
-34.0,-126.0,-1.0,-613.0,2509.0,-889.0,1
-17.0,-122.0,-2.0,-578.0,2578.0,-884.0,1
-9.0,-112.0,-5.0,-575.0,2636.0,-876.0,1
-2.0,-113.0,-6.0,-602.0,2671.0,-865.0,1
-1.0,-108.0,-21.0,-654.0,2666.0,-852.0,1
0.0,-113.0,-30.0,-726.0,2619.0,-837.0,1
-6.0,-114.0,-42.0,-819.0,2532.0,-823.0,1
-6.0,-123.0,-50.0,-918.0,2432.0,-808.0,1
-9.0,-128.0,-48.0,-1019.0,2340.0,-791.0,1
-13.0,-139.0,-62.0,-1106.0,2270.0,-780.0,1
-13.0,-146.0,-55.0,-1167.0,2236.0,-763.0,1
-12.0,-162.0,-53.0,-1203.0,2235.0,-752.0,1
-3.0,-173.0,-44.0,-1207.0,2253.0,-749.0,1
9.0,-182.0,-27.0,-1173.0,2286.0,-752.0,1
19.0,-195.0,-12.0,-1103.0,2331.0,-764.0,1
24.0,-205.0,0.0,-992.0,2393.0,-792.0,1
31.0,-211.0,14.0,-845.0,2452.0,-837.0,1
34.0,-203.0,16.0,-668.0,2500.0,-900.0,1
31.0,-184.0,22.0,-479.0,2527.0,-968.0,1
26.0,-156.0,14.0,-303.0,2522.0,-1035.0,1
19.0,-133.0,5.0,-161.0,2486.0,-1087.0,1
24.0,-109.0,-14.0,-71.0,2433.0,-1123.0,1
28.0,-86.0,-30.0,-47.0,2381.0,-1136.0,1
36.0,-79.0,-42.0,-98.0,2342.0,-1141.0,1
34.0,-81.0,-52.0,-216.0,2315.0,-1135.0,1
32.0,-92.0,-63.0,-376.0,2287.0,-1131.0,1
29.0,-108.0,-59.0,-536.0,2243.0,-1137.0,1
28.0,-135.0,-54.0,-662.0,2188.0,-1154.0,1
18.0,-162.0,-40.0,-726.0,2126.0,-1184.0,1
10.0,-181.0,-27.0,-702.0,2068.0,-1223.0,1
4.0,-198.0,-4.0,-597.0,2017.0,-1268.0,1
0.0,-212.0,14.0,-424.0,1969.0,-1321.0,1
-2.0,-222.0,14.0,-216.0,1917.0,-1376.0,1
-11.0,-228.0,20.0,12.0,1849.0,-1428.0,1
-13.0,-233.0,14.0,218.0,1763.0,-1465.0,1
-17.0,-234.0,11.0,381.0,1656.0,-1494.0,1
-10.0,-239.0,5.0,487.0,1541.0,-1524.0,1
-11.0,-241.0,5.0,565.0,1436.0,-1557.0,1
-9.0,-241.0,-2.0,637.0,1340.0,-1607.0,1
-12.0,-232.0,8.0,712.0,1241.0,-1669.0,1
-23.0,-223.0,1.0,806.0,1118.0,-1741.0,1
-38.0,-203.0,5.0,908.0,975.0,-1824.0,1
-46.0,-186.0,-5.0,1014.0,845.0,-1909.0,1
-59.0,-161.0,-21.0,1120.0,772.0,-1978.0,1
-79.0,-126.0,-28.0,1224.0,736.0,-2032.0,1
-75.0,-93.0,-40.0,1306.0,706.0,-2064.0,1
-58.0,-53.0,-46.0,1310.0,623.0,-2113.0,1
-38.0,-19.0,-47.0,1165.0,450.0,-2181.0,1
-13.0,-5.0,-36.0,862.0,273.0,-2221.0,1
4.0,-12.0,-17.0,462.0,141.0,-2248.0,1
47.0,-53.0,-16.0,121.0,106.0,-2235.0,1
85.0,-101.0,-23.0,-51.0,189.0,-2218.0,1
117.0,-147.0,-25.0,-27.0,331.0,-2221.0,1
160.0,-205.0,-19.0,143.0,484.0,-2254.0,1
223.0,-259.0,11.0,394.0,634.0,-2301.0,1
299.0,-325.0,37.0,677.0,808.0,-2356.0,1
371.0,-420.0,88.0,995.0,1022.0,-2399.0,1
475.0,-528.0,148.0,1380.0,1262.0,-2457.0,1
567.0,-651.0,204.0,1869.0,1522.0,-2564.0,1
675.0,-823.0,279.0,2460.0,1854.0,-2700.0,1
801.0,-1060.0,349.0,3230.0,2264.0,-2910.0,1
940.0,-1370.0,509.0,4257.0,2690.0,-3229.0,1
1115.0,-1737.0,671.0,5602.0,2919.0,-3680.0,1
1218.0,-1929.0,678.0,6840.0,2792.0,-4380.0,1
1362.0,-1898.0,322.0,7239.0,2326.0,-5228.0,1
1062.0,-1396.0,1.0,6520.0,1901.0,-6066.0,1
621.0,-907.0,-77.0,5511.0,1738.0,-5854.0,1
267.0,-526.0,1.0,4740.0,1621.0,-4944.0,1
-26.0,-111.0,145.0,4121.0,1392.0,-4042.0,1
-265.0,275.0,262.0,3369.0,973.0,-3443.0,1
-392.0,457.0,327.0,2359.0,389.0,-3133.0,1
-381.0,454.0,314.0,1325.0,-224.0,-3090.0,1
-196.0,331.0,301.0,516.0,-705.0,-3424.0,1
-70.0,210.0,262.0,35.0,-1083.0,-3858.0,1
-8.0,118.0,208.0,-181.0,-1428.0,-4131.0,1
89.0,24.0,154.0,-270.0,-1671.0,-4179.0,1
165.0,-59.0,133.0,-304.0,-1668.0,-4067.0,1
190.0,-100.0,143.0,-279.0,-1374.0,-3932.0,1
272.0,-177.0,154.0,-199.0,-887.0,-3778.0,1
354.0,-292.0,159.0,-14.0,-317.0,-3669.0,1
407.0,-397.0,122.0,365.0,221.0,-3630.0,1
414.0,-476.0,52.0,918.0,645.0,-3644.0,1
373.0,-509.0,-3.0,1493.0,913.0,-3723.0,1
305.0,-488.0,-51.0,1952.0,1042.0,-3843.0,1
197.0,-452.0,-71.0,2221.0,1058.0,-3973.0,1
68.0,-385.0,-72.0,2377.0,986.0,-4080.0,1
72.0,-301.0,-37.0,2492.0,881.0,-4181.0,1
-21.0,-240.0,-28.0,2634.0,911.0,-4213.0,1
-94.0,-169.0,-33.0,2758.0,1059.0,-4204.0,1
-49.0,-72.0,-30.0,2806.0,1189.0,-4162.0,1
-11.0,0.0,-9.0,2799.0,1364.0,-4098.0,1
17.0,40.0,8.0,2835.0,1499.0,-4031.0,1
87.0,72.0,-1.0,2920.0,1555.0,-3998.0,1
123.0,111.0,12.0,2984.0,1668.0,-4011.0,1
148.0,136.0,20.0,2994.0,1808.0,-4052.0,1
159.0,182.0,10.0,2959.0,1856.0,-4045.0,1
154.0,235.0,31.0,2787.0,1794.0,-3981.0,1
133.0,248.0,85.0,2536.0,1621.0,-3894.0,1
205.0,257.0,122.0,2329.0,1428.0,-3748.0,1
229.0,280.0,158.0,2117.0,1333.0,-3562.0,1
288.0,305.0,214.0,1899.0,1249.0,-3327.0,1
332.0,328.0,249.0,1722.0,1147.0,-3043.0,1
350.0,354.0,265.0,1546.0,1038.0,-2686.0,1
356.0,374.0,284.0,1293.0,928.0,-2243.0,1
411.0,339.0,325.0,987.0,830.0,-1678.0,1
461.0,302.0,331.0,779.0,700.0,-1123.0,1
483.0,287.0,317.0,725.0,577.0,-640.0,1
450.0,268.0,284.0,751.0,489.0,-239.0,1
428.0,222.0,258.0,764.0,409.0,145.0,1
368.0,239.0,236.0,728.0,356.0,432.0,1
294.0,246.0,228.0,660.0,296.0,528.0,1
250.0,273.0,215.0,569.0,345.0,495.0,1
165.0,321.0,199.0,372.0,559.0,433.0,1
123.0,317.0,200.0,62.0,805.0,323.0,1
45.0,314.0,178.0,-225.0,1068.0,239.0,1
-2.0,278.0,149.0,-474.0,1222.0,217.0,1
-47.0,241.0,126.0,-645.0,1375.0,254.0,1
-78.0,202.0,106.0,-736.0,1521.0,283.0,1
-91.0,161.0,89.0,-719.0,1645.0,323.0,1
-86.0,128.0,85.0,-627.0,1740.0,388.0,1
-73.0,78.0,92.0,-465.0,1786.0,466.0,1
-63.0,44.0,93.0,-212.0,1825.0,536.0,1
-35.0,11.0,103.0,81.0,1834.0,603.0,1
-17.0,-16.0,99.0,404.0,1783.0,659.0,1
14.0,-34.0,113.0,749.0,1671.0,710.0,1
46.0,-40.0,110.0,1100.0,1511.0,739.0,1
79.0,-38.0,120.0,1437.0,1340.0,751.0,1
106.0,-25.0,128.0,1739.0,1198.0,746.0,1
126.0,0.0,126.0,1974.0,1070.0,718.0,1
139.0,30.0,126.0,2102.0,943.0,673.0,1
146.0,63.0,124.0,2127.0,841.0,616.0,1
143.0,93.0,121.0,2056.0,764.0,561.0,1
136.0,126.0,120.0,1911.0,712.0,512.0,1
129.0,148.0,102.0,1717.0,683.0,478.0,1
110.0,168.0,102.0,1504.0,675.0,457.0,1
92.0,182.0,101.0,1283.0,677.0,450.0,1
68.0,195.0,94.0,1066.0,678.0,457.0,1
46.0,202.0,91.0,862.0,669.0,481.0,1
24.0,214.0,94.0,673.0,643.0,521.0,1
10.0,220.0,95.0,497.0,606.0,571.0,1
-2.0,226.0,95.0,333.0,564.0,625.0,1
-11.0,225.0,99.0,180.0,526.0,683.0,1
-17.0,223.0,105.0,40.0,485.0,740.0,1
-18.0,215.0,112.0,-80.0,450.0,794.0,1
-4.0,205.0,122.0,-186.0,421.0,840.0,1
14.0,199.0,127.0,-272.0,417.0,871.0,1
22.0,195.0,138.0,-344.0,437.0,888.0,1
29.0,193.0,147.0,-403.0,464.0,896.0,1
27.0,189.0,156.0,-457.0,486.0,900.0,1
32.0,185.0,157.0,-515.0,492.0,897.0,1
37.0,187.0,165.0,-571.0,485.0,890.0,1
48.0,183.0,163.0,-626.0,450.0,886.0,1
68.0,180.0,159.0,-681.0,408.0,883.0,1
94.0,178.0,155.0,-751.0,365.0,873.0,1
106.0,171.0,153.0,-843.0,325.0,863.0,1
118.0,164.0,154.0,-950.0,300.0,861.0,1
123.0,152.0,155.0,-1067.0,265.0,869.0,1
131.0,133.0,156.0,-1183.0,222.0,876.0,1
133.0,115.0,169.0,-1283.0,171.0,885.0,1
146.0,94.0,178.0,-1364.0,123.0,891.0,1
148.0,75.0,182.0,-1417.0,83.0,881.0,1
164.0,60.0,193.0,-1447.0,48.0,859.0,1
183.0,44.0,209.0,-1447.0,6.0,845.0,1
189.0,33.0,208.0,-1415.0,-14.0,815.0,1
214.0,21.0,221.0,-1372.0,2.0,760.0,1
222.0,11.0,228.0,-1328.0,8.0,723.0,1
223.0,4.0,238.0,-1267.0,22.0,671.0,1
228.0,-5.0,248.0,-1206.0,26.0,620.0,1
216.0,-15.0,261.0,-1148.0,10.0,578.0,1
239.0,-26.0,262.0,-1094.0,0.0,530.0,1
238.0,-34.0,274.0,-1037.0,-7.0,480.0,1
221.0,-36.0,294.0,-966.0,-32.0,443.0,1
209.0,-28.0,305.0,-863.0,-89.0,416.0,1
218.0,-19.0,309.0,-727.0,-158.0,390.0,1
231.0,-9.0,296.0,-571.0,-210.0,332.0,1
238.0,4.0,292.0,-426.0,-230.0,238.0,1
242.0,15.0,278.0,-316.0,-271.0,169.0,1
228.0,24.0,273.0,-231.0,-349.0,112.0,1
192.0,36.0,264.0,-128.0,-441.0,56.0,1
169.0,39.0,256.0,-3.0,-554.0,-7.0,1
143.0,60.0,249.0,100.0,-673.0,-88.0,1
110.0,72.0,229.0,159.0,-777.0,-149.0,1
77.0,83.0,209.0,144.0,-869.0,-155.0,1
46.0,83.0,204.0,42.0,-924.0,-126.0,1
30.0,88.0,198.0,-98.0,-923.0,-53.0,1
2.0,95.0,188.0,-263.0,-872.0,73.0,1
-11.0,80.0,189.0,-438.0,-821.0,211.0,1
-12.0,59.0,195.0,-590.0,-789.0,332.0,1
8.0,41.0,199.0,-691.0,-760.0,407.0,1
16.0,18.0,208.0,-696.0,-732.0,492.0,1
25.0,0.0,203.0,-611.0,-714.0,593.0,1
38.0,-25.0,206.0,-450.0,-703.0,684.0,1
35.0,-33.0,207.0,-244.0,-731.0,756.0,1
41.0,-40.0,205.0,-27.0,-787.0,817.0,1
42.0,-35.0,206.0,156.0,-864.0,860.0,1
44.0,-40.0,205.0,297.0,-948.0,884.0,1
50.0,-44.0,198.0,392.0,-1042.0,881.0,1
69.0,-45.0,195.0,468.0,-1130.0,869.0,1
79.0,-52.0,192.0,565.0,-1197.0,866.0,1
106.0,-47.0,181.0,671.0,-1256.0,847.0,1
126.0,-43.0,177.0,731.0,-1352.0,841.0,1
150.0,-56.0,160.0,780.0,-1430.0,851.0,1
179.0,-54.0,145.0,822.0,-1459.0,848.0,1
213.0,-48.0,127.0,821.0,-1460.0,828.0,1
239.0,-41.0,115.0,787.0,-1421.0,815.0,1
275.0,-39.0,109.0,730.0,-1346.0,811.0,1
282.0,-29.0,101.0,658.0,-1259.0,797.0,1
283.0,-23.0,97.0,577.0,-1180.0,776.0,1
304.0,-19.0,81.0,505.0,-1088.0,741.0,1
301.0,-15.0,78.0,423.0,-986.0,692.0,1
289.0,-12.0,77.0,329.0,-908.0,635.0,1
271.0,-12.0,78.0,238.0,-867.0,590.0,1
248.0,-16.0,73.0,162.0,-849.0,566.0,1
85.0,47.0,134.0,103.0,-854.0,591.0,1
134.0,-1.0,137.0,114.0,-986.0,778.0,1
127.0,-15.0,104.0,151.0,-1154.0,859.0,1
197.0,-87.0,45.0,115.0,-1250.0,911.0,1
252.0,-61.0,10.0,-2.0,-1142.0,843.0,1
240.0,-56.0,67.0,-205.0,-948.0,803.0,1
230.0,-91.0,80.0,-376.0,-882.0,739.0,1
179.0,-79.0,96.0,-427.0,-875.0,680.0,1
144.0,-65.0,106.0,-379.0,-878.0,677.0,1
145.0,-67.0,105.0,-328.0,-924.0,666.0,1
191.0,-77.0,82.0,-306.0,-940.0,615.0,1
243.0,-81.0,88.0,-284.0,-902.0,579.0,1
249.0,-89.0,92.0,-259.0,-845.0,539.0,1
243.0,-88.0,86.0,-182.0,-770.0,482.0,1
245.0,-83.0,77.0,-91.0,-681.0,445.0,1
250.0,-72.0,73.0,-26.0,-585.0,410.0,1
255.0,-66.0,74.0,2.0,-493.0,377.0,1
252.0,-63.0,79.0,17.0,-418.0,337.0,1
254.0,-63.0,94.0,38.0,-361.0,302.0,1
253.0,-66.0,101.0,74.0,-315.0,255.0,1
258.0,-60.0,113.0,112.0,-284.0,205.0,1
255.0,-61.0,119.0,142.0,-278.0,158.0,1
256.0,-60.0,130.0,167.0,-285.0,114.0,1
260.0,-54.0,122.0,188.0,-303.0,74.0,1
265.0,-52.0,120.0,198.0,-322.0,38.0,1
266.0,-42.0,122.0,202.0,-335.0,3.0,1
270.0,-40.0,118.0,196.0,-342.0,-29.0,1
268.0,-30.0,111.0,185.0,-338.0,-57.0,1
266.0,-27.0,105.0,169.0,-328.0,-83.0,1
263.0,-18.0,98.0,148.0,-316.0,-111.0,1
261.0,-13.0,96.0,117.0,-298.0,-139.0,1
262.0,-11.0,101.0,76.0,-278.0,-168.0,1
253.0,-9.0,85.0,27.0,-258.0,-197.0,1
248.0,-9.0,80.0,-26.0,-238.0,-224.0,1
237.0,-8.0,82.0,-81.0,-219.0,-247.0,1
232.0,-6.0,83.0,-135.0,-201.0,-268.0,1
226.0,-6.0,85.0,-183.0,-188.0,-290.0,1
217.0,-6.0,83.0,-222.0,-169.0,-305.0,1
214.0,-6.0,89.0,-255.0,-148.0,-318.0,1
204.0,-2.0,90.0,-287.0,-133.0,-331.0,1
202.0,-3.0,100.0,-309.0,-110.0,-334.0,1
202.0,-7.0,98.0,-325.0,-88.0,-335.0,1
207.0,-4.0,106.0,-316.0,-52.0,-330.0,1
207.0,-6.0,107.0,-292.0,-16.0,-324.0,1
209.0,-5.0,106.0,-270.0,15.0,-317.0,1
215.0,-6.0,103.0,-248.0,50.0,-306.0,1
215.0,-1.0,104.0,-224.0,84.0,-295.0,1
224.0,-3.0,106.0,-209.0,107.0,-282.0,1
222.0,2.0,105.0,-190.0,138.0,-271.0,1
226.0,2.0,107.0,-167.0,170.0,-263.0,1
224.0,8.0,108.0,-140.0,197.0,-254.0,1
222.0,11.0,107.0,-114.0,221.0,-241.0,1
223.0,10.0,108.0,-88.0,241.0,-230.0,1
219.0,16.0,108.0,-68.0,260.0,-222.0,1
223.0,13.0,111.0,-56.0,278.0,-207.0,1
223.0,12.0,108.0,-43.0,299.0,-195.0,1
223.0,12.0,110.0,-30.0,321.0,-185.0,1
222.0,15.0,111.0,-24.0,343.0,-175.0,1
221.0,16.0,112.0,-28.0,363.0,-165.0,1
221.0,15.0,116.0,-38.0,382.0,-157.0,1
216.0,15.0,118.0,-47.0,399.0,-143.0,1
223.0,14.0,114.0,-52.0,416.0,-130.0,1
222.0,16.0,124.0,-59.0,433.0,-118.0,1
222.0,19.0,126.0,-66.0,447.0,-110.0,1
213.0,18.0,129.0,-73.0,459.0,-103.0,1
214.0,18.0,122.0,-77.0,485.0,-118.0,1
224.0,20.0,132.0,-86.0,494.0,-109.0,1
215.0,22.0,132.0,-99.0,473.0,-91.0,1
216.0,22.0,131.0,-103.0,456.0,-75.0,1
212.0,23.0,136.0,-108.0,445.0,-65.0,1
216.0,21.0,136.0,-118.0,435.0,-57.0,1
209.0,22.0,137.0,-123.0,428.0,-51.0,1
204.0,21.0,135.0,-127.0,415.0,-44.0,1
183.0,16.0,134.0,-132.0,411.0,-40.0,1
205.0,15.0,140.0,-132.0,436.0,-60.0,1
206.0,16.0,146.0,-143.0,419.0,-50.0,1
200.0,17.0,146.0,-150.0,383.0,-30.0,1
197.0,16.0,145.0,-154.0,351.0,-14.0,1
195.0,12.0,150.0,-156.0,324.0,-5.0,1
192.0,11.0,146.0,-160.0,301.0,1.0,1
188.0,10.0,144.0,-163.0,282.0,6.0,1
184.0,10.0,147.0,-157.0,282.0,-11.0,1
193.0,11.0,147.0,-151.0,283.0,-3.0,1
196.0,4.0,151.0,-160.0,247.0,16.0,1
187.0,1.0,148.0,-158.0,218.0,27.0,1
185.0,6.0,145.0,-152.0,199.0,33.0,1
181.0,-2.0,151.0,-150.0,183.0,40.0,1
183.0,-1.0,152.0,-146.0,170.0,47.0,1
178.0,-5.0,147.0,-140.0,159.0,50.0,1
172.0,-4.0,142.0,-129.0,157.0,40.0,1
188.0,-4.0,145.0,-121.0,168.0,40.0,1
180.0,-4.0,147.0,-123.0,156.0,54.0,1
181.0,-6.0,154.0,-120.0,131.0,65.0,1
184.0,-9.0,146.0,-115.0,110.0,73.0,1
179.0,-9.0,151.0,-112.0,93.0,82.0,1
181.0,-8.0,146.0,-111.0,83.0,88.0,1
177.0,-19.0,156.0,-110.0,72.0,95.0,1
179.0,-4.0,143.0,-111.0,61.0,99.0,1
178.0,-5.0,151.0,-109.0,55.0,106.0,1
177.0,-5.0,148.0,-109.0,45.0,112.0,1
180.0,-8.0,144.0,-111.0,35.0,119.0,1
178.0,-10.0,144.0,-113.0,26.0,124.0,1
178.0,-10.0,144.0,-113.0,17.0,128.0,1
180.0,-15.0,143.0,-111.0,8.0,134.0,1
181.0,-13.0,146.0,-107.0,-3.0,135.0,1
180.0,-15.0,142.0,-101.0,-18.0,133.0,1
186.0,-17.0,143.0,-92.0,-31.0,134.0,1
186.0,-21.0,135.0,-84.0,-46.0,136.0,1
184.0,-17.0,140.0,-76.0,-62.0,135.0,1
186.0,-19.0,139.0,-63.0,-74.0,133.0,1
189.0,-18.0,136.0,-57.0,-85.0,129.0,1
190.0,-16.0,137.0,-50.0,-90.0,127.0,1
188.0,-15.0,135.0,-46.0,-94.0,121.0,1
195.0,-16.0,135.0,-42.0,-96.0,117.0,1
197.0,-18.0,134.0,-41.0,-98.0,112.0,1
200.0,-14.0,135.0,-39.0,-96.0,106.0,1
203.0,-12.0,132.0,-42.0,-95.0,99.0,1
196.0,-15.0,132.0,-43.0,-94.0,92.0,1
202.0,-14.0,132.0,-45.0,-91.0,85.0,1
207.0,-14.0,128.0,-43.0,-89.0,79.0,1
206.0,-11.0,131.0,-44.0,-86.0,72.0,1
209.0,-14.0,128.0,-45.0,-85.0,64.0,1
212.0,-11.0,125.0,-47.0,-84.0,55.0,1
211.0,-10.0,124.0,-55.0,-90.0,46.0,1
213.0,-15.0,124.0,-60.0,-97.0,39.0,1
210.0,-15.0,125.0,-66.0,-100.0,33.0,1
212.0,-16.0,127.0,-69.0,-105.0,25.0,1
214.0,-19.0,125.0,-70.0,-107.0,18.0,1
213.0,-17.0,123.0,-69.0,-106.0,11.0,1
215.0,-18.0,131.0,-66.0,-104.0,3.0,1
215.0,-16.0,124.0,-64.0,-99.0,-3.0,1
213.0,-13.0,123.0,-65.0,-93.0,-9.0,1
214.0,-15.0,121.0,-67.0,-86.0,-13.0,1
214.0,-11.0,125.0,-72.0,-80.0,-19.0,1
219.0,-11.0,127.0,-75.0,-72.0,-23.0,1
219.0,-16.0,122.0,-82.0,-67.0,-27.0,1
218.0,-12.0,125.0,-82.0,-61.0,-31.0,1
218.0,-14.0,122.0,-83.0,-57.0,-33.0,1
216.0,-13.0,123.0,-80.0,-52.0,-36.0,1
213.0,-8.0,123.0,-78.0,-46.0,-40.0,1
214.0,-10.0,118.0,-77.0,-39.0,-39.0,1
210.0,-12.0,120.0,-74.0,-33.0,-40.0,1
213.0,-11.0,125.0,-75.0,-24.0,-39.0,1
207.0,-13.0,117.0,-73.0,-19.0,-38.0,1
209.0,-11.0,121.0,-71.0,-10.0,-36.0,1
207.0,-10.0,123.0,-71.0,-4.0,-36.0,1
208.0,-12.0,124.0,-68.0,5.0,-33.0,1
208.0,-10.0,122.0,-67.0,15.0,-31.0,1
207.0,-12.0,126.0,-67.0,23.0,-29.0,1
207.0,-12.0,124.0,-64.0,31.0,-27.0,1
205.0,-11.0,124.0,-62.0,39.0,-23.0,1
202.0,-11.0,129.0,-60.0,47.0,-20.0,1
202.0,-10.0,127.0,-58.0,54.0,-17.0,1
202.0,-9.0,129.0,-55.0,59.0,-16.0,1
202.0,-7.0,130.0,-53.0,64.0,-13.0,1
206.0,-10.0,130.0,-51.0,69.0,-11.0,1
204.0,-9.0,130.0,-49.0,74.0,-10.0,1
204.0,-9.0,132.0,-49.0,78.0,-7.0,1
204.0,-8.0,130.0,-47.0,80.0,-6.0,1
203.0,-7.0,134.0,-47.0,81.0,-2.0,1
202.0,-3.0,131.0,-46.0,83.0,-3.0,1
199.0,-5.0,134.0,-46.0,84.0,-2.0,1
194.0,-2.0,132.0,-47.0,83.0,-3.0,1
201.0,-9.0,134.0,-50.0,83.0,-1.0,1
200.0,-6.0,133.0,-54.0,81.0,-1.0,1
200.0,-6.0,137.0,-54.0,80.0,2.0,1
202.0,-9.0,133.0,-55.0,79.0,4.0,1
201.0,-4.0,135.0,-53.0,74.0,6.0,1
201.0,-8.0,135.0,-50.0,70.0,6.0,1
200.0,-7.0,137.0,-47.0,65.0,6.0,1
200.0,-5.0,133.0,-48.0,59.0,9.0,1
199.0,-6.0,133.0,-49.0,53.0,8.0,1
200.0,-5.0,134.0,-52.0,50.0,8.0,1
198.0,-4.0,134.0,-58.0,47.0,9.0,1
199.0,-9.0,138.0,-61.0,43.0,9.0,1
196.0,-7.0,135.0,-62.0,39.0,9.0,1
196.0,-7.0,135.0,-64.0,37.0,8.0,1
197.0,-9.0,139.0,-66.0,32.0,9.0,1
195.0,-7.0,137.0,-66.0,30.0,9.0,1
195.0,-6.0,134.0,-69.0,27.0,9.0,1
195.0,-9.0,138.0,-74.0,23.0,10.0,1
195.0,-9.0,137.0,-76.0,20.0,11.0,1
196.0,-9.0,137.0,-79.0,14.0,11.0,1
199.0,-10.0,135.0,-78.0,10.0,11.0,1
197.0,-10.0,130.0,-78.0,4.0,14.0,1
198.0,-8.0,138.0,-80.0,-1.0,12.0,1
197.0,-13.0,138.0,-79.0,-6.0,12.0,1
199.0,-10.0,137.0,-80.0,-9.0,12.0,1
198.0,-13.0,137.0,-79.0,-14.0,10.0,1
198.0,-14.0,137.0,-78.0,-17.0,11.0,1
198.0,-13.0,131.0,-76.0,-17.0,11.0,1
199.0,-13.0,134.0,-74.0,-19.0,10.0,1
196.0,-14.0,135.0,-72.0,-19.0,11.0,1
199.0,-15.0,131.0,-70.0,-20.0,8.0,1
197.0,-13.0,132.0,-68.0,-18.0,8.0,1
200.0,-15.0,133.0,-68.0,-20.0,5.0,1
199.0,-15.0,131.0,-65.0,-20.0,6.0,1
199.0,-12.0,130.0,-64.0,-19.0,8.0,1
198.0,-13.0,131.0,-60.0,-22.0,6.0,1
199.0,-16.0,131.0,-55.0,-23.0,5.0,1
198.0,-12.0,129.0,-51.0,-21.0,5.0,1
204.0,-14.0,130.0,-46.0,-21.0,6.0,1
200.0,-14.0,132.0,-42.0,-20.0,6.0,1
199.0,-15.0,131.0,-38.0,-18.0,6.0,1
204.0,-17.0,130.0,-33.0,-15.0,6.0,1
200.0,-15.0,131.0,-29.0,-10.0,6.0,1
199.0,-13.0,127.0,-26.0,-7.0,6.0,1
203.0,-12.0,126.0,-27.0,-3.0,6.0,1
207.0,-12.0,127.0,-29.0,1.0,7.0,1
205.0,-14.0,129.0,-30.0,6.0,7.0,1
205.0,-12.0,125.0,-28.0,9.0,6.0,1
203.0,-12.0,130.0,-26.0,12.0,3.0,1
206.0,-12.0,129.0,-21.0,14.0,3.0,1
204.0,-9.0,127.0,-23.0,17.0,5.0,1
205.0,-8.0,131.0,-24.0,19.0,4.0,1
204.0,-9.0,133.0,-27.0,22.0,5.0,1
205.0,-8.0,120.0,-27.0,23.0,4.0,1
204.0,-11.0,130.0,-27.0,25.0,5.0,1
204.0,-12.0,126.0,-27.0,29.0,3.0,1
206.0,-11.0,128.0,-27.0,33.0,2.0,1
206.0,-10.0,126.0,-23.0,34.0,3.0,1
205.0,-8.0,128.0,-21.0,37.0,2.0,1
208.0,-10.0,126.0,-21.0,39.0,1.0,1
207.0,-8.0,131.0,-23.0,43.0,1.0,1
207.0,-8.0,128.0,-22.0,46.0,0.0,1
203.0,-4.0,132.0,-22.0,52.0,0.0,1
203.0,-10.0,122.0,-23.0,58.0,-1.0,1
200.0,-8.0,125.0,-23.0,64.0,-2.0,1
205.0,-9.0,126.0,-24.0,71.0,-3.0,1
203.0,-11.0,128.0,-26.0,75.0,-3.0,1
201.0,-10.0,130.0,-26.0,80.0,-2.0,1
201.0,-7.0,129.0,-29.0,82.0,-2.0,1
200.0,-8.0,130.0,-32.0,84.0,0.0,1
200.0,-13.0,132.0,-32.0,84.0,0.0,1
200.0,-12.0,130.0,-33.0,83.0,-1.0,1
201.0,-13.0,133.0,-33.0,84.0,0.0,1
200.0,-10.0,128.0,-30.0,84.0,0.0,1
199.0,-10.0,131.0,-29.0,84.0,0.0,1
205.0,-9.0,130.0,-31.0,86.0,0.0,1
199.0,-12.0,133.0,-34.0,87.0,0.0,1
200.0,-11.0,131.0,-36.0,88.0,-1.0,1
202.0,-10.0,132.0,-41.0,88.0,0.0,1
199.0,-8.0,128.0,-43.0,87.0,1.0,1
204.0,-12.0,133.0,-45.0,85.0,1.0,1
198.0,-11.0,134.0,-47.0,84.0,1.0,1
198.0,-11.0,130.0,-44.0,82.0,1.0,1
195.0,-11.0,130.0,-41.0,79.0,0.0,1
200.0,-14.0,134.0,-38.0,76.0,0.0,1
196.0,-12.0,135.0,-34.0,72.0,0.0,1
199.0,-11.0,129.0,-34.0,70.0,-1.0,1
195.0,-10.0,133.0,-31.0,67.0,-1.0,1
196.0,-13.0,137.0,-31.0,64.0,0.0,1
194.0,-9.0,134.0,-30.0,63.0,-1.0,1
198.0,-12.0,137.0,-29.0,61.0,-1.0,1
199.0,-11.0,135.0,-30.0,59.0,-1.0,1
195.0,-9.0,136.0,-29.0,58.0,1.0,1
193.0,-10.0,137.0,-31.0,57.0,1.0,1
198.0,-12.0,136.0,-30.0,55.0,3.0,1
195.0,-8.0,134.0,-30.0,54.0,2.0,1
196.0,-7.0,134.0,-28.0,52.0,2.0,1
192.0,-9.0,138.0,-29.0,48.0,3.0,1
197.0,-10.0,136.0,-29.0,45.0,4.0,1
196.0,-10.0,139.0,-28.0,44.0,5.0,1
195.0,-11.0,134.0,-28.0,42.0,6.0,1
198.0,-11.0,134.0,-28.0,38.0,5.0,1
196.0,-13.0,135.0,-27.0,36.0,5.0,1
199.0,-12.0,137.0,-28.0,35.0,5.0,1
195.0,-8.0,135.0,-26.0,33.0,5.0,1
196.0,-9.0,136.0,-25.0,32.0,5.0,1
195.0,-12.0,137.0,-28.0,30.0,5.0,1
196.0,-12.0,132.0,-29.0,29.0,3.0,1
204.0,-15.0,131.0,-31.0,30.0,3.0,1
196.0,-11.0,136.0,-35.0,28.0,2.0,1
201.0,-13.0,137.0,-38.0,27.0,3.0,1
196.0,-11.0,134.0,-39.0,27.0,2.0,1
199.0,-11.0,137.0,-41.0,25.0,2.0,1
200.0,-11.0,132.0,-38.0,25.0,0.0,1
200.0,-11.0,135.0,-37.0,23.0,1.0,1
200.0,-10.0,135.0,-35.0,21.0,1.0,1
200.0,-9.0,134.0,-34.0,20.0,-1.0,1
195.0,-11.0,133.0,-34.0,18.0,0.0,1
196.0,-11.0,126.0,-33.0,18.0,2.0,1
194.0,-9.0,137.0,-36.0,18.0,1.0,1
200.0,-10.0,136.0,-34.0,18.0,0.0,1
199.0,-12.0,133.0,-33.0,21.0,-2.0,1
199.0,-12.0,135.0,-33.0,24.0,-2.0,1
198.0,-13.0,132.0,-33.0,29.0,-1.0,1
201.0,-14.0,132.0,-33.0,30.0,-2.0,1
199.0,-11.0,128.0,-36.0,32.0,-1.0,1
198.0,-11.0,130.0,-36.0,35.0,-1.0,1
199.0,-12.0,132.0,-40.0,35.0,-3.0,1
199.0,-11.0,133.0,-42.0,35.0,-2.0,1
204.0,-13.0,134.0,-42.0,34.0,-3.0,1
201.0,-9.0,133.0,-43.0,36.0,-1.0,1
199.0,-11.0,135.0,-43.0,36.0,-1.0,1
200.0,-9.0,129.0,-40.0,38.0,-2.0,1
200.0,-12.0,133.0,-38.0,38.0,-2.0,1
199.0,-11.0,134.0,-37.0,40.0,-1.0,1
199.0,-9.0,132.0,-37.0,41.0,0.0,1
201.0,-11.0,131.0,-36.0,41.0,-2.0,1
201.0,-9.0,138.0,-36.0,42.0,-2.0,1
200.0,-11.0,131.0,-37.0,42.0,-2.0,1
201.0,-12.0,134.0,-37.0,42.0,-1.0,1
206.0,-5.0,136.0,-40.0,42.0,-1.0,1
199.0,-8.0,137.0,-41.0,43.0,-1.0,1
202.0,-10.0,133.0,-42.0,42.0,-3.0,1
199.0,-11.0,135.0,-42.0,44.0,-3.0,1
198.0,-13.0,131.0,-40.0,45.0,-2.0,1
200.0,-12.0,137.0,-38.0,46.0,-2.0,1
198.0,-13.0,132.0,-37.0,48.0,-3.0,1
202.0,-11.0,133.0,-35.0,49.0,-3.0,1
197.0,-11.0,134.0,-35.0,50.0,-2.0,1
198.0,-13.0,130.0,-35.0,50.0,-3.0,1
202.0,-10.0,135.0,-35.0,52.0,-3.0,1
198.0,-10.0,133.0,-35.0,52.0,-3.0,1
195.0,-9.0,138.0,-36.0,53.0,-2.0,1
198.0,-9.0,133.0,-34.0,53.0,-1.0,1
201.0,-9.0,135.0,-32.0,55.0,1.0,1
198.0,-11.0,134.0,-30.0,59.0,2.0,1
199.0,-12.0,135.0,-33.0,59.0,0.0,1
199.0,-7.0,135.0,-36.0,59.0,-1.0,1
199.0,-7.0,137.0,-38.0,60.0,-2.0,1
197.0,-9.0,135.0,-41.0,59.0,-2.0,1
201.0,-11.0,136.0,-42.0,58.0,-1.0,1
201.0,-14.0,137.0,-42.0,57.0,-2.0,1
196.0,-10.0,137.0,-42.0,55.0,-1.0,1
197.0,-12.0,137.0,-41.0,53.0,0.0,1
198.0,-11.0,133.0,-40.0,53.0,0.0,1
196.0,-10.0,138.0,-41.0,53.0,-1.0,1
199.0,-12.0,137.0,-40.0,51.0,0.0,1
199.0,-9.0,137.0,-40.0,50.0,0.0,1
196.0,-12.0,137.0,-38.0,48.0,0.0,1
197.0,-9.0,135.0,-37.0,48.0,0.0,1
195.0,-8.0,136.0,-37.0,47.0,0.0,1
200.0,-9.0,134.0,-37.0,46.0,0.0,1
196.0,-3.0,137.0,-39.0,46.0,1.0,1
196.0,-8.0,132.0,-40.0,44.0,0.0,1
199.0,-10.0,136.0,-43.0,45.0,-1.0,1
199.0,-8.0,138.0,-48.0,45.0,-1.0,1
199.0,-13.0,137.0,-50.0,48.0,0.0,1
195.0,-9.0,137.0,-50.0,47.0,0.0,1
198.0,-13.0,135.0,-50.0,48.0,0.0,1
196.0,-12.0,137.0,-46.0,47.0,0.0,1
201.0,-10.0,131.0,-44.0,47.0,1.0,1
199.0,-13.0,140.0,-41.0,45.0,0.0,1
197.0,-13.0,137.0,-42.0,42.0,1.0,1
198.0,-11.0,136.0,-44.0,39.0,1.0,1
194.0,-10.0,139.0,-44.0,38.0,1.0,1
198.0,-12.0,134.0,-44.0,35.0,0.0,1
196.0,-13.0,140.0,-40.0,34.0,0.0,1
194.0,-12.0,138.0,-38.0,35.0,0.0,1
195.0,-12.0,135.0,-36.0,38.0,-1.0,1
197.0,-9.0,135.0,-38.0,40.0,-1.0,1
196.0,-9.0,139.0,-40.0,42.0,-1.0,1
198.0,-10.0,134.0,-44.0,45.0,-1.0,1
201.0,-11.0,130.0,-48.0,48.0,-1.0,1
200.0,-11.0,138.0,-50.0,44.0,-2.0,1
197.0,-10.0,135.0,-55.0,43.0,-4.0,1
194.0,-12.0,135.0,-54.0,40.0,-4.0,1
199.0,-13.0,137.0,-52.0,38.0,-3.0,1
194.0,-12.0,139.0,-49.0,34.0,-6.0,1
195.0,-12.0,135.0,-45.0,32.0,-4.0,1
195.0,-11.0,138.0,-42.0,32.0,-3.0,1
197.0,-12.0,138.0,-39.0,30.0,-3.0,1
198.0,-10.0,134.0,-36.0,28.0,-3.0,1
197.0,-9.0,139.0,-36.0,27.0,-3.0,1
195.0,-9.0,134.0,-35.0,28.0,-2.0,1
198.0,-12.0,135.0,-35.0,27.0,-3.0,1
196.0,-6.0,137.0,-34.0,28.0,-4.0,1
196.0,-7.0,134.0,-35.0,27.0,-4.0,1
197.0,-10.0,136.0,-37.0,28.0,-4.0,1
197.0,-9.0,133.0,-39.0,30.0,-4.0,1
194.0,-9.0,139.0,-43.0,31.0,-4.0,1
196.0,-9.0,136.0,-43.0,32.0,-3.0,1
194.0,-8.0,133.0,-43.0,34.0,0.0,1
195.0,-8.0,136.0,-44.0,35.0,0.0,1
196.0,-12.0,134.0,-43.0,35.0,1.0,1
195.0,-7.0,137.0,-44.0,36.0,1.0,1
197.0,-10.0,138.0,-42.0,36.0,2.0,1
197.0,-8.0,139.0,-42.0,36.0,3.0,1
192.0,-12.0,133.0,-40.0,35.0,4.0,1
197.0,-12.0,140.0,-39.0,35.0,6.0,1
196.0,-11.0,134.0,-41.0,35.0,7.0,1
196.0,-7.0,138.0,-41.0,36.0,5.0,1
194.0,-9.0,135.0,-43.0,35.0,5.0,1
198.0,-10.0,136.0,-45.0,35.0,4.0,1
196.0,-10.0,137.0,-48.0,36.0,2.0,1
196.0,-13.0,132.0,-51.0,35.0,2.0,1
197.0,-13.0,136.0,-51.0,36.0,2.0,1
194.0,-12.0,135.0,-49.0,35.0,3.0,1
196.0,-14.0,137.0,-46.0,34.0,2.0,1
194.0,-7.0,135.0,-44.0,33.0,4.0,1
197.0,-9.0,139.0,-45.0,32.0,2.0,1
196.0,-9.0,132.0,-46.0,32.0,0.0,1
196.0,-8.0,134.0,-50.0,37.0,-6.0,1
197.0,-9.0,138.0,-53.0,39.0,-5.0,1
199.0,-12.0,138.0,-54.0,37.0,-3.0,1
191.0,-9.0,138.0,-54.0,34.0,-3.0,1
198.0,-15.0,139.0,-54.0,32.0,-1.0,1
194.0,-9.0,138.0,-55.0,33.0,-1.0,1
196.0,-13.0,138.0,-55.0,34.0,-1.0,1
200.0,-14.0,140.0,-54.0,32.0,-1.0,1
198.0,-10.0,138.0,-55.0,33.0,-2.0,1
197.0,-12.0,136.0,-57.0,31.0,0.0,1
197.0,-12.0,135.0,-59.0,31.0,-1.0,1
198.0,-11.0,137.0,-59.0,31.0,-1.0,1
196.0,-12.0,135.0,-60.0,29.0,-2.0,1
197.0,-11.0,139.0,-59.0,28.0,-2.0,1
199.0,-11.0,139.0,-59.0,28.0,-3.0,1
196.0,-12.0,138.0,-58.0,28.0,-4.0,1
196.0,-12.0,140.0,-56.0,28.0,-4.0,1
193.0,-9.0,139.0,-56.0,25.0,-5.0,1
192.0,-12.0,137.0,-54.0,25.0,-4.0,1
195.0,-13.0,139.0,-55.0,24.0,-4.0,1
198.0,-12.0,138.0,-53.0,24.0,-5.0,1
195.0,-14.0,138.0,-51.0,25.0,-5.0,1
196.0,-11.0,139.0,-52.0,24.0,-5.0,1
193.0,-11.0,139.0,-51.0,23.0,-4.0,1
197.0,-10.0,139.0,-51.0,24.0,-4.0,1
198.0,-13.0,138.0,-50.0,25.0,-4.0,1
196.0,-11.0,138.0,-51.0,25.0,-5.0,1
197.0,-8.0,141.0,-50.0,26.0,-5.0,1
199.0,-13.0,134.0,-48.0,25.0,-5.0,1
197.0,-11.0,135.0,-48.0,26.0,-3.0,1
193.0,-10.0,136.0,-47.0,25.0,-3.0,1
196.0,-12.0,137.0,-45.0,25.0,-4.0,1
195.0,-10.0,138.0,-45.0,26.0,-4.0,1
195.0,-11.0,140.0,-44.0,25.0,-3.0,1
194.0,-12.0,138.0,-46.0,25.0,-3.0,1
198.0,-13.0,138.0,-47.0,25.0,-3.0,1
198.0,-8.0,135.0,-46.0,25.0,-3.0,1
197.0,-11.0,139.0,-47.0,26.0,-2.0,1
198.0,-10.0,139.0,-48.0,28.0,-1.0,1
198.0,-9.0,136.0,-49.0,29.0,-1.0,1
194.0,-11.0,142.0,-49.0,31.0,-2.0,1
197.0,-9.0,137.0,-47.0,32.0,-1.0,1
195.0,-9.0,141.0,-49.0,31.0,-1.0,1
197.0,-9.0,137.0,-50.0,31.0,0.0,1
197.0,-12.0,137.0,-49.0,30.0,0.0,1
197.0,-11.0,137.0,-52.0,30.0,1.0,1
196.0,-10.0,139.0,-53.0,29.0,1.0,1
193.0,-10.0,137.0,-53.0,28.0,0.0,1
198.0,-10.0,135.0,-54.0,29.0,-1.0,1
197.0,-13.0,134.0,-56.0,26.0,1.0,1
199.0,-14.0,137.0,-57.0,28.0,-1.0,1
196.0,-8.0,144.0,-55.0,27.0,0.0,1
195.0,-12.0,139.0,-53.0,28.0,1.0,1
196.0,-13.0,137.0,-53.0,30.0,0.0,1
197.0,-12.0,140.0,-49.0,30.0,0.0,1
198.0,-11.0,140.0,-50.0,30.0,1.0,1
197.0,-11.0,137.0,-47.0,31.0,0.0,1
193.0,-12.0,137.0,-46.0,32.0,0.0,1
194.0,-9.0,135.0,-48.0,32.0,1.0,1
197.0,-10.0,137.0,-48.0,32.0,1.0,1
195.0,-11.0,139.0,-49.0,32.0,-2.0,1
199.0,-14.0,136.0,-49.0,33.0,-2.0,1
197.0,-15.0,136.0,-48.0,33.0,-2.0,1
195.0,-12.0,139.0,-44.0,33.0,-1.0,1
195.0,-11.0,136.0,-46.0,31.0,-1.0,1
197.0,-10.0,139.0,-45.0,29.0,-1.0,1
195.0,-12.0,140.0,-48.0,29.0,-2.0,1
193.0,-12.0,138.0,-49.0,29.0,-1.0,1
195.0,-10.0,138.0,-48.0,28.0,1.0,1
195.0,-13.0,137.0,-47.0,29.0,2.0,1
190.0,-13.0,137.0,-46.0,29.0,0.0,1
196.0,-13.0,138.0,-43.0,29.0,0.0,1
194.0,-10.0,137.0,-42.0,30.0,1.0,1
193.0,-10.0,132.0,-40.0,29.0,2.0,1
197.0,-10.0,140.0,-42.0,30.0,1.0,1
196.0,-9.0,134.0,-47.0,29.0,1.0,1
196.0,-4.0,137.0,-54.0,31.0,1.0,1
197.0,-10.0,138.0,-59.0,33.0,-1.0,1
197.0,-12.0,139.0,-62.0,34.0,-1.0,1
195.0,-12.0,141.0,-61.0,35.0,-1.0,1
194.0,-14.0,139.0,-56.0,36.0,-1.0,1
194.0,-15.0,138.0,-52.0,34.0,-1.0,1
194.0,-12.0,138.0,-47.0,33.0,0.0,1
197.0,-14.0,135.0,-46.0,30.0,-1.0,1
194.0,-14.0,135.0,-45.0,27.0,0.0,1
192.0,-14.0,140.0,-47.0,25.0,0.0,1
195.0,-13.0,138.0,-48.0,23.0,0.0,1
196.0,-17.0,136.0,-48.0,22.0,0.0,1
194.0,-11.0,143.0,-45.0,22.0,-2.0,1
195.0,-13.0,138.0,-43.0,24.0,-4.0,1
193.0,-12.0,139.0,-42.0,27.0,-5.0,1
194.0,-12.0,138.0,-44.0,30.0,-5.0,1
195.0,-11.0,136.0,-47.0,33.0,-5.0,1
196.0,-12.0,136.0,-50.0,34.0,-6.0,1
198.0,-12.0,134.0,-53.0,34.0,-5.0,1
198.0,-10.0,138.0,-56.0,34.0,-6.0,1
195.0,-11.0,138.0,-55.0,31.0,-8.0,1
195.0,-14.0,139.0,-53.0,30.0,-8.0,1
197.0,-14.0,141.0,-51.0,27.0,-8.0,1
196.0,-10.0,139.0,-49.0,26.0,-9.0,1
196.0,-13.0,137.0,-47.0,23.0,-7.0,1
194.0,-6.0,137.0,-45.0,22.0,-8.0,1
198.0,-15.0,138.0,-43.0,20.0,-7.0,1
196.0,-12.0,138.0,-41.0,20.0,-6.0,1
192.0,-10.0,137.0,-41.0,21.0,-5.0,1
187.0,-13.0,139.0,-42.0,21.0,-5.0,1
194.0,-10.0,137.0,-43.0,22.0,-5.0,1
196.0,-12.0,141.0,-42.0,24.0,-3.0,1
195.0,-12.0,137.0,-45.0,26.0,-4.0,1
193.0,-10.0,142.0,-48.0,29.0,-4.0,1
194.0,-11.0,140.0,-50.0,28.0,-3.0,1
195.0,-10.0,140.0,-51.0,30.0,-2.0,1
198.0,-14.0,139.0,-52.0,31.0,-1.0,1
196.0,-12.0,135.0,-52.0,32.0,0.0,1
195.0,-9.0,136.0,-53.0,32.0,1.0,1
193.0,-11.0,138.0,-52.0,32.0,0.0,1
192.0,-14.0,134.0,-51.0,33.0,2.0,1
194.0,-13.0,136.0,-49.0,33.0,3.0,1
193.0,-13.0,139.0,-50.0,32.0,1.0,1
194.0,-13.0,139.0,-49.0,33.0,1.0,1
195.0,-12.0,140.0,-49.0,31.0,2.0,1
195.0,-11.0,139.0,-51.0,31.0,2.0,1
196.0,-11.0,138.0,-52.0,31.0,1.0,1
196.0,-10.0,137.0,-54.0,29.0,2.0,1
193.0,-12.0,140.0,-55.0,29.0,-1.0,1
194.0,-10.0,141.0,-58.0,29.0,-1.0,1
194.0,-13.0,140.0,-57.0,28.0,-2.0,1
194.0,-15.0,143.0,-55.0,27.0,0.0,1
193.0,-15.0,137.0,-53.0,27.0,0.0,1
196.0,-13.0,138.0,-49.0,25.0,-1.0,1
187.0,-13.0,138.0,-47.0,25.0,-5.0,1
195.0,-12.0,131.0,-42.0,45.0,-19.0,1
203.0,-10.0,141.0,-45.0,55.0,-10.0,1
193.0,-13.0,141.0,-52.0,37.0,-5.0,1
198.0,-15.0,138.0,-52.0,29.0,-3.0,1
194.0,-13.0,143.0,-54.0,26.0,-3.0,1
198.0,-12.0,139.0,-52.0,25.0,-3.0,1
198.0,-14.0,136.0,-50.0,22.0,-3.0,1
197.0,-14.0,142.0,-49.0,23.0,-5.0,1
194.0,-13.0,140.0,-49.0,22.0,-3.0,1
193.0,-13.0,138.0,-52.0,23.0,-4.0,1
195.0,-12.0,136.0,-54.0,22.0,-3.0,1
194.0,-12.0,136.0,-53.0,21.0,-3.0,1
193.0,-12.0,137.0,-53.0,21.0,-3.0,1
193.0,-12.0,139.0,-56.0,21.0,-4.0,1
195.0,-7.0,137.0,-57.0,21.0,-5.0,1
195.0,-13.0,138.0,-57.0,22.0,-4.0,1
193.0,-10.0,139.0,-56.0,21.0,-4.0,1
192.0,-12.0,144.0,-56.0,21.0,-4.0,1
197.0,-18.0,137.0,-56.0,22.0,-5.0,1
195.0,-12.0,138.0,-55.0,21.0,-5.0,1
198.0,-14.0,140.0,-56.0,21.0,-5.0,1
194.0,-11.0,139.0,-54.0,20.0,-5.0,1
193.0,-13.0,142.0,-52.0,20.0,-6.0,1
191.0,-12.0,141.0,-51.0,21.0,-5.0,1
197.0,-12.0,138.0,-50.0,21.0,-5.0,1
195.0,-11.0,138.0,-50.0,21.0,-6.0,1
194.0,-12.0,141.0,-50.0,20.0,-5.0,1
193.0,-12.0,134.0,-50.0,19.0,-3.0,1
194.0,-14.0,142.0,-53.0,21.0,-5.0,1
194.0,-11.0,136.0,-54.0,20.0,-4.0,1
195.0,-13.0,138.0,-56.0,21.0,-5.0,1
193.0,-9.0,140.0,-54.0,21.0,-6.0,1
196.0,-15.0,138.0,-55.0,20.0,-6.0,1
195.0,-13.0,137.0,-55.0,20.0,-5.0,1
194.0,-12.0,140.0,-55.0,17.0,-6.0,1
195.0,-11.0,139.0,-55.0,17.0,-6.0,1
196.0,-14.0,142.0,-55.0,16.0,-5.0,1
195.0,-12.0,134.0,-53.0,15.0,-7.0,1
194.0,-10.0,138.0,-56.0,14.0,-5.0,1
196.0,-11.0,137.0,-56.0,14.0,-6.0,1
193.0,-13.0,141.0,-58.0,14.0,-6.0,1
192.0,-10.0,138.0,-58.0,13.0,-5.0,1
195.0,-10.0,140.0,-60.0,13.0,-6.0,1
196.0,-12.0,138.0,-59.0,14.0,-5.0,1
195.0,-12.0,139.0,-61.0,15.0,-5.0,1
194.0,-15.0,140.0,-60.0,14.0,-6.0,1
194.0,-13.0,137.0,-60.0,12.0,-4.0,1
197.0,-11.0,141.0,-60.0,13.0,-4.0,1
192.0,-10.0,139.0,-60.0,13.0,-4.0,1
194.0,-8.0,138.0,-62.0,9.0,-4.0,1
195.0,-12.0,140.0,-64.0,9.0,-3.0,1
191.0,-16.0,134.0,-65.0,8.0,-5.0,1
193.0,-12.0,141.0,-66.0,6.0,-5.0,1
193.0,-13.0,139.0,-65.0,7.0,-5.0,1
194.0,-14.0,141.0,-67.0,7.0,-5.0,1
193.0,-12.0,137.0,-67.0,6.0,-3.0,1
194.0,-12.0,138.0,-68.0,6.0,-3.0,1
194.0,-12.0,140.0,-68.0,7.0,-3.0,1
190.0,-7.0,141.0,-68.0,6.0,-4.0,1
193.0,-14.0,141.0,-67.0,5.0,-3.0,1
191.0,-11.0,140.0,-68.0,5.0,-4.0,1
194.0,-13.0,140.0,-67.0,5.0,-3.0,1
193.0,-13.0,130.0,-67.0,4.0,-2.0,1
193.0,-13.0,139.0,-65.0,4.0,-2.0,1
195.0,-12.0,139.0,-66.0,4.0,-3.0,1
195.0,-12.0,138.0,-65.0,5.0,-4.0,1
194.0,-16.0,141.0,-65.0,6.0,-5.0,1
194.0,-14.0,136.0,-65.0,4.0,-4.0,1
191.0,-13.0,136.0,-64.0,5.0,-3.0,1
192.0,-11.0,140.0,-65.0,4.0,-3.0,1
196.0,-13.0,137.0,-66.0,4.0,-3.0,1
198.0,-12.0,142.0,-66.0,3.0,-3.0,1
199.0,-8.0,138.0,-67.0,3.0,-4.0,1
194.0,-13.0,137.0,-68.0,3.0,-4.0,1
198.0,-16.0,139.0,-66.0,2.0,-3.0,1
194.0,-14.0,139.0,-67.0,0.0,-3.0,1
195.0,-14.0,136.0,-67.0,0.0,-5.0,1
196.0,-16.0,140.0,-67.0,0.0,-5.0,1
194.0,-10.0,138.0,-67.0,-1.0,-5.0,1
196.0,-15.0,140.0,-67.0,-2.0,-4.0,1
196.0,-16.0,137.0,-67.0,-2.0,-5.0,1
194.0,-11.0,137.0,-68.0,-3.0,-5.0,1
194.0,-19.0,139.0,-66.0,-4.0,-3.0,1
190.0,-21.0,141.0,-66.0,-4.0,-4.0,1
194.0,-14.0,138.0,-62.0,-5.0,-4.0,1
194.0,-13.0,140.0,-61.0,-4.0,-3.0,1
196.0,-15.0,138.0,-61.0,-4.0,-4.0,1
193.0,-15.0,135.0,-61.0,-5.0,-5.0,1
196.0,-14.0,139.0,-58.0,-4.0,-5.0,1
195.0,-15.0,137.0,-60.0,-3.0,-6.0,1
195.0,-13.0,140.0,-60.0,-3.0,-4.0,1
195.0,-17.0,139.0,-59.0,-2.0,-5.0,1
197.0,-14.0,138.0,-58.0,-3.0,-6.0,1
200.0,-13.0,139.0,-59.0,-3.0,-5.0,1
194.0,-14.0,141.0,-59.0,-3.0,-4.0,1
194.0,-15.0,139.0,-59.0,-3.0,-5.0,1
194.0,-15.0,138.0,-56.0,-6.0,-4.0,1
192.0,-14.0,139.0,-57.0,-6.0,-6.0,1
196.0,-14.0,138.0,-58.0,-6.0,-3.0,1
194.0,-14.0,137.0,-57.0,-8.0,-4.0,1
194.0,-14.0,138.0,-59.0,-8.0,-5.0,1
194.0,-13.0,138.0,-61.0,-9.0,-5.0,1
197.0,-11.0,137.0,-59.0,-10.0,-5.0,1
197.0,-11.0,133.0,-60.0,-8.0,-6.0,1
197.0,-13.0,134.0,-60.0,-8.0,-6.0,1
197.0,-11.0,145.0,-60.0,-5.0,-5.0,1
195.0,-12.0,137.0,-59.0,-4.0,-4.0,1
194.0,-15.0,138.0,-58.0,-4.0,-4.0,1
196.0,-16.0,134.0,-56.0,-2.0,-3.0,1
197.0,-15.0,137.0,-54.0,-4.0,-3.0,1
195.0,-12.0,137.0,-56.0,-1.0,-3.0,1
196.0,-16.0,139.0,-58.0,-3.0,-2.0,1
196.0,-14.0,140.0,-60.0,-4.0,-2.0,1
197.0,-16.0,142.0,-65.0,-6.0,-3.0,1
196.0,-20.0,137.0,-65.0,-9.0,-1.0,1
189.0,-15.0,141.0,-64.0,-12.0,-2.0,1
192.0,-16.0,140.0,-60.0,-12.0,-3.0,1
193.0,-15.0,140.0,-57.0,-12.0,-5.0,1
198.0,-16.0,139.0,-55.0,-10.0,-5.0,1
199.0,-11.0,132.0,-55.0,-10.0,-4.0,1
198.0,-15.0,138.0,-57.0,-9.0,-4.0,1
197.0,-13.0,137.0,-60.0,-10.0,-4.0,1
200.0,-14.0,137.0,-63.0,-10.0,-4.0,1
201.0,-16.0,137.0,-64.0,-12.0,-5.0,1
199.0,-13.0,139.0,-63.0,-13.0,-5.0,1
198.0,-14.0,137.0,-62.0,-14.0,-5.0,1
196.0,-16.0,139.0,-60.0,-16.0,-7.0,1
199.0,-14.0,135.0,-56.0,-16.0,-6.0,1
196.0,-13.0,136.0,-55.0,-18.0,-8.0,1
196.0,-14.0,139.0,-53.0,-17.0,-7.0,1
195.0,-13.0,137.0,-54.0,-18.0,-7.0,1
194.0,-12.0,135.0,-54.0,-17.0,-7.0,1
196.0,-15.0,136.0,-54.0,-17.0,-8.0,1
198.0,-18.0,139.0,-50.0,-14.0,-7.0,1
194.0,-13.0,136.0,-49.0,-12.0,-7.0,1
196.0,-14.0,137.0,-52.0,-10.0,-6.0,1
193.0,-7.0,138.0,-51.0,-10.0,-6.0,1
194.0,-12.0,138.0,-52.0,-10.0,-5.0,1
192.0,-18.0,140.0,-54.0,-9.0,-3.0,1
196.0,-13.0,134.0,-55.0,-8.0,-1.0,1
195.0,-14.0,135.0,-56.0,-8.0,-2.0,1
193.0,-13.0,136.0,-56.0,-8.0,-1.0,1
198.0,-14.0,136.0,-55.0,-9.0,0.0,1
194.0,-15.0,136.0,-55.0,-10.0,0.0,1
194.0,-14.0,138.0,-54.0,-10.0,2.0,1
198.0,-15.0,138.0,-53.0,-11.0,2.0,1
198.0,-13.0,139.0,-53.0,-12.0,2.0,1
196.0,-16.0,140.0,-51.0,-12.0,2.0,1
199.0,-19.0,136.0,-52.0,-13.0,2.0,1
200.0,-17.0,140.0,-52.0,-13.0,3.0,1
196.0,-18.0,136.0,-51.0,-14.0,2.0,1
195.0,-13.0,138.0,-52.0,-14.0,1.0,1
195.0,-14.0,131.0,-55.0,-15.0,0.0,1
196.0,-15.0,137.0,-58.0,-16.0,-2.0,1
195.0,-15.0,134.0,-58.0,-14.0,-2.0,1
196.0,-17.0,137.0,-57.0,-14.0,-1.0,1
196.0,-19.0,134.0,-56.0,-15.0,-1.0,1
196.0,-18.0,133.0,-51.0,-15.0,-1.0,1
201.0,-19.0,133.0,-49.0,-16.0,0.0,1
195.0,-11.0,135.0,-46.0,-16.0,0.0,1
193.0,-13.0,133.0,-44.0,-18.0,-2.0,1
196.0,-12.0,137.0,-45.0,-17.0,-2.0,1
196.0,-14.0,135.0,-49.0,-16.0,-2.0,1
196.0,-11.0,135.0,-50.0,-15.0,-2.0,1
198.0,-15.0,135.0,-51.0,-14.0,-2.0,1
195.0,-14.0,133.0,-49.0,-13.0,-2.0,1
197.0,-17.0,139.0,-49.0,-12.0,-3.0,1
194.0,-13.0,138.0,-50.0,-11.0,-3.0,1
196.0,-15.0,132.0,-52.0,-10.0,-3.0,1
196.0,-15.0,137.0,-50.0,-9.0,-3.0,1
196.0,-17.0,133.0,-51.0,-9.0,-5.0,1
193.0,-6.0,132.0,-52.0,-8.0,-5.0,1
196.0,-15.0,135.0,-54.0,-10.0,-4.0,1
197.0,-14.0,133.0,-53.0,-12.0,-4.0,1
195.0,-13.0,136.0,-54.0,-13.0,-5.0,1
198.0,-18.0,135.0,-51.0,-14.0,-6.0,1
197.0,-17.0,136.0,-48.0,-14.0,-5.0,1
197.0,-12.0,137.0,-46.0,-13.0,-5.0,1
201.0,-16.0,137.0,-41.0,-14.0,-5.0,1
195.0,-14.0,131.0,-41.0,-14.0,-4.0,1
200.0,-16.0,136.0,-40.0,-12.0,-5.0,1
198.0,-16.0,137.0,-37.0,-12.0,-4.0,1
199.0,-15.0,132.0,-36.0,-10.0,-6.0,1
195.0,-14.0,135.0,-36.0,-9.0,-5.0,1
196.0,-17.0,133.0,-35.0,-7.0,-7.0,1
200.0,-15.0,133.0,-36.0,-7.0,-7.0,1
196.0,-13.0,133.0,-36.0,-4.0,-6.0,1
199.0,-15.0,134.0,-36.0,-3.0,-6.0,1
198.0,-13.0,133.0,-37.0,-2.0,-7.0,1
194.0,-14.0,132.0,-36.0,1.0,-7.0,1
197.0,-14.0,136.0,-35.0,0.0,-6.0,1
195.0,-11.0,133.0,-35.0,2.0,-5.0,1
199.0,-15.0,137.0,-32.0,3.0,-5.0,1
194.0,-13.0,133.0,-30.0,4.0,-5.0,1
198.0,-13.0,132.0,-28.0,5.0,-4.0,1
197.0,-17.0,134.0,-28.0,7.0,-5.0,1
196.0,-13.0,134.0,-27.0,11.0,-4.0,1
197.0,-15.0,133.0,-25.0,13.0,-3.0,1
197.0,-13.0,132.0,-25.0,14.0,-3.0,1
197.0,-13.0,131.0,-24.0,17.0,-4.0,1
197.0,-14.0,134.0,-26.0,18.0,-4.0,1
196.0,-14.0,132.0,-25.0,22.0,-5.0,1
200.0,-12.0,132.0,-26.0,26.0,-4.0,1
201.0,-8.0,135.0,-28.0,28.0,-3.0,1
197.0,-13.0,134.0,-31.0,29.0,-4.0,1
200.0,-17.0,134.0,-32.0,29.0,-3.0,1
200.0,-14.0,134.0,-32.0,30.0,-3.0,1
200.0,-17.0,135.0,-34.0,31.0,-4.0,1
198.0,-17.0,134.0,-34.0,32.0,-5.0,1
199.0,-15.0,137.0,-35.0,32.0,-4.0,1
201.0,-15.0,136.0,-35.0,32.0,-6.0,1
197.0,-16.0,138.0,-35.0,32.0,-6.0,1
200.0,-14.0,134.0,-37.0,32.0,-7.0,1
197.0,-12.0,133.0,-37.0,32.0,-7.0,1
197.0,-13.0,130.0,-37.0,29.0,-6.0,1
198.0,-12.0,135.0,-36.0,29.0,-8.0,1
197.0,-13.0,136.0,-37.0,29.0,-9.0,1
196.0,-12.0,140.0,-40.0,29.0,-8.0,1
201.0,-16.0,135.0,-37.0,28.0,-10.0,1
199.0,-16.0,134.0,-38.0,28.0,-8.0,1
197.0,-14.0,134.0,-36.0,29.0,-8.0,1
201.0,-17.0,138.0,-36.0,30.0,-8.0,1
196.0,-15.0,138.0,-35.0,29.0,-8.0,1
197.0,-13.0,136.0,-35.0,30.0,-8.0,1
200.0,-13.0,138.0,-34.0,31.0,-9.0,1
200.0,-14.0,136.0,-35.0,30.0,-9.0,1
198.0,-13.0,138.0,-36.0,30.0,-8.0,1
196.0,-16.0,138.0,-34.0,30.0,-8.0,1
195.0,-15.0,133.0,-34.0,30.0,-8.0,1
198.0,-11.0,135.0,-31.0,28.0,-7.0,1
197.0,-14.0,136.0,-30.0,28.0,-6.0,1
198.0,-12.0,135.0,-31.0,28.0,-7.0,1
198.0,-12.0,137.0,-29.0,29.0,-6.0,1
196.0,-11.0,131.0,-30.0,30.0,-5.0,1
199.0,-11.0,136.0,-34.0,33.0,-5.0,1
190.0,-10.0,134.0,-34.0,33.0,-7.0,1
193.0,-13.0,134.0,-35.0,34.0,-6.0,1
195.0,-11.0,136.0,-34.0,34.0,-6.0,1
195.0,-13.0,137.0,-32.0,33.0,-5.0,1
198.0,-16.0,136.0,-33.0,33.0,-6.0,1
197.0,-14.0,138.0,-33.0,32.0,-5.0,1
197.0,-11.0,133.0,-33.0,32.0,-5.0,1
197.0,-14.0,136.0,-34.0,32.0,-4.0,1
195.0,-15.0,138.0,-35.0,32.0,-4.0,1
196.0,-15.0,138.0,-35.0,31.0,-6.0,1
195.0,-12.0,134.0,-37.0,31.0,-5.0,1
200.0,-15.0,137.0,-35.0,31.0,-6.0,1
200.0,-13.0,139.0,-36.0,30.0,-6.0,1
198.0,-12.0,136.0,-33.0,31.0,-4.0,1
200.0,-10.0,134.0,-33.0,32.0,-3.0,1
198.0,-9.0,136.0,-32.0,31.0,-3.0,1
198.0,-13.0,136.0,-33.0,32.0,-3.0,1
197.0,-13.0,137.0,-34.0,32.0,-2.0,1
197.0,-10.0,135.0,-38.0,34.0,-3.0,1
196.0,-9.0,133.0,-40.0,36.0,-4.0,1
198.0,-14.0,136.0,-41.0,38.0,-3.0,1
194.0,-11.0,132.0,-42.0,40.0,-2.0,1
196.0,-9.0,136.0,-41.0,40.0,-2.0,1
194.0,-22.0,137.0,-41.0,41.0,-2.0,1
188.0,-19.0,130.0,-41.0,40.0,-1.0,1
196.0,-14.0,134.0,-41.0,37.0,-1.0,1
198.0,-16.0,140.0,-43.0,34.0,0.0,1
195.0,-14.0,139.0,-43.0,31.0,0.0,1
197.0,-16.0,137.0,-42.0,27.0,0.0,1
194.0,-15.0,138.0,-39.0,25.0,-2.0,1
196.0,-13.0,138.0,-38.0,25.0,-4.0,1
193.0,-15.0,134.0,-35.0,26.0,-5.0,1
199.0,-15.0,133.0,-35.0,28.0,-7.0,1
197.0,-11.0,133.0,-35.0,29.0,-8.0,1
201.0,-11.0,147.0,-37.0,29.0,-8.0,1
197.0,-13.0,135.0,-41.0,30.0,-7.0,1
197.0,-13.0,135.0,-41.0,30.0,-8.0,1
199.0,-15.0,133.0,-44.0,30.0,-8.0,1
197.0,-14.0,136.0,-41.0,29.0,-9.0,1
197.0,-14.0,136.0,-39.0,31.0,-10.0,1
195.0,-9.0,139.0,-36.0,30.0,-11.0,1
197.0,-14.0,133.0,-34.0,31.0,-12.0,1
197.0,-13.0,138.0,-32.0,30.0,-13.0,1
196.0,-11.0,134.0,-31.0,31.0,-13.0,1
201.0,-13.0,140.0,-30.0,32.0,-12.0,1
197.0,-14.0,138.0,-32.0,32.0,-12.0,1
199.0,-12.0,136.0,-29.0,32.0,-11.0,1
196.0,-11.0,134.0,-31.0,33.0,-11.0,1
196.0,-10.0,136.0,-31.0,34.0,-10.0,1
198.0,-14.0,135.0,-34.0,34.0,-9.0,1
199.0,-12.0,135.0,-35.0,35.0,-8.0,1
196.0,-12.0,135.0,-36.0,34.0,-8.0,1
196.0,-15.0,136.0,-38.0,36.0,-5.0,1
196.0,-11.0,134.0,-37.0,35.0,-4.0,1
195.0,-14.0,136.0,-38.0,36.0,-4.0,1
197.0,-12.0,142.0,-37.0,36.0,-3.0,1
194.0,-13.0,137.0,-36.0,37.0,-3.0,1
196.0,-15.0,135.0,-37.0,37.0,-3.0,1
196.0,-13.0,138.0,-37.0,38.0,-4.0,1
196.0,-13.0,137.0,-35.0,38.0,0.0,1
195.0,-13.0,138.0,-34.0,36.0,-1.0,1
197.0,-12.0,136.0,-34.0,37.0,0.0,1
197.0,-15.0,136.0,-36.0,36.0,0.0,1
197.0,-13.0,138.0,-36.0,38.0,-1.0,1
194.0,-8.0,137.0,-38.0,37.0,-1.0,1
197.0,-9.0,137.0,-39.0,37.0,-2.0,1
194.0,-8.0,133.0,-42.0,36.0,-3.0,1
198.0,-14.0,133.0,-44.0,36.0,-4.0,1
200.0,-13.0,138.0,-47.0,35.0,-2.0,1
198.0,-14.0,138.0,-46.0,36.0,-3.0,1
195.0,-13.0,137.0,-45.0,35.0,-4.0,1
198.0,-13.0,138.0,-42.0,34.0,-6.0,1
198.0,-14.0,136.0,-41.0,34.0,-6.0,1
197.0,-12.0,133.0,-40.0,33.0,-5.0,1
195.0,-13.0,138.0,-41.0,31.0,-6.0,1
198.0,-13.0,138.0,-42.0,29.0,-5.0,1
196.0,-12.0,134.0,-42.0,29.0,-4.0,1
189.0,-5.0,140.0,-44.0,28.0,-5.0,1
196.0,-17.0,136.0,-44.0,30.0,-4.0,1
197.0,-14.0,138.0,-43.0,31.0,-5.0,1
195.0,-13.0,137.0,-43.0,33.0,-4.0,1
195.0,-12.0,139.0,-43.0,34.0,-5.0,1
195.0,-12.0,136.0,-44.0,35.0,-4.0,1
196.0,-13.0,136.0,-46.0,35.0,-4.0,1
197.0,-14.0,138.0,-49.0,34.0,-4.0,1
193.0,-14.0,134.0,-50.0,34.0,-4.0,1
196.0,-13.0,142.0,-51.0,33.0,-4.0,1
195.0,-13.0,139.0,-52.0,32.0,-4.0,1
194.0,-18.0,141.0,-50.0,31.0,-4.0,1
197.0,-14.0,139.0,-48.0,31.0,-4.0,1
196.0,-16.0,135.0,-45.0,30.0,-4.0,1
194.0,-15.0,140.0,-43.0,29.0,-4.0,1
194.0,-16.0,139.0,-40.0,30.0,-5.0,1
194.0,-13.0,139.0,-39.0,29.0,-6.0,1
195.0,-14.0,137.0,-37.0,29.0,-6.0,1
194.0,-14.0,137.0,-37.0,29.0,-7.0,1
198.0,-15.0,139.0,-38.0,28.0,-5.0,1
198.0,-11.0,139.0,-40.0,29.0,-7.0,1
196.0,-13.0,139.0,-40.0,29.0,-7.0,1
192.0,-20.0,138.0,-39.0,28.0,-6.0,1
198.0,-14.0,138.0,-42.0,27.0,-7.0,1
197.0,-13.0,139.0,-42.0,29.0,-6.0,1
196.0,-15.0,135.0,-42.0,28.0,-8.0,1
193.0,-13.0,136.0,-41.0,29.0,-7.0,1
197.0,-13.0,139.0,-41.0,28.0,-7.0,1
193.0,-11.0,140.0,-41.0,28.0,-7.0,1
198.0,-14.0,138.0,-40.0,29.0,-6.0,1
194.0,-8.0,138.0,-40.0,29.0,-5.0,1
197.0,-13.0,131.0,-39.0,28.0,-5.0,1
193.0,-10.0,136.0,-39.0,29.0,-5.0,1
190.0,-12.0,136.0,-39.0,30.0,-6.0,1
198.0,-13.0,132.0,-39.0,31.0,-7.0,1
196.0,-12.0,138.0,-39.0,31.0,-6.0,1
196.0,-11.0,137.0,-42.0,31.0,-6.0,1
195.0,-11.0,137.0,-43.0,32.0,-4.0,1
197.0,-12.0,135.0,-44.0,33.0,-4.0,1
195.0,-13.0,137.0,-45.0,33.0,-4.0,1
196.0,-14.0,136.0,-45.0,31.0,-2.0,1
195.0,-12.0,140.0,-45.0,32.0,-2.0,1
200.0,-16.0,132.0,-44.0,33.0,-2.0,1
196.0,-13.0,135.0,-42.0,34.0,-2.0,1
196.0,-14.0,131.0,-42.0,33.0,-1.0,1
196.0,-17.0,134.0,-43.0,33.0,-1.0,1
196.0,-14.0,137.0,-42.0,33.0,-2.0,1
197.0,-13.0,138.0,-43.0,34.0,-2.0,1
197.0,-14.0,138.0,-44.0,33.0,-3.0,1
194.0,-13.0,135.0,-43.0,33.0,-2.0,1
196.0,-15.0,137.0,-46.0,32.0,-2.0,1
199.0,-13.0,138.0,-46.0,31.0,-3.0,1
195.0,-13.0,140.0,-46.0,32.0,-3.0,1
190.0,-15.0,139.0,-47.0,32.0,-2.0,1
195.0,-16.0,139.0,-45.0,33.0,-1.0,1
195.0,-14.0,136.0,-46.0,32.0,-2.0,1
196.0,-16.0,139.0,-46.0,33.0,-3.0,1
196.0,-15.0,140.0,-46.0,32.0,-3.0,1
194.0,-13.0,138.0,-46.0,32.0,-4.0,1
193.0,-14.0,138.0,-48.0,32.0,-4.0,1
196.0,-11.0,140.0,-46.0,31.0,-3.0,1
195.0,-15.0,141.0,-48.0,30.0,-2.0,1
192.0,-13.0,137.0,-48.0,30.0,-4.0,1
194.0,-13.0,139.0,-47.0,29.0,-5.0,1
194.0,-11.0,143.0,-47.0,30.0,-4.0,1
198.0,-8.0,144.0,-47.0,30.0,-5.0,1
195.0,-12.0,140.0,-47.0,29.0,-5.0,1
193.0,-12.0,139.0,-46.0,28.0,-5.0,1
193.0,-12.0,138.0,-46.0,29.0,-5.0,1
194.0,-12.0,139.0,-46.0,29.0,-3.0,1
194.0,-12.0,142.0,-44.0,28.0,-3.0,1
194.0,-13.0,138.0,-43.0,31.0,-1.0,1
193.0,-13.0,138.0,-43.0,30.0,-1.0,1
197.0,-10.0,138.0,-43.0,29.0,-4.0,1
195.0,-13.0,139.0,-44.0,29.0,-3.0,1
195.0,-9.0,137.0,-45.0,31.0,-3.0,1
189.0,-13.0,138.0,-46.0,31.0,-3.0,1
196.0,-14.0,135.0,-47.0,32.0,-4.0,1
194.0,-11.0,136.0,-47.0,33.0,-3.0,1
195.0,-14.0,143.0,-45.0,32.0,-3.0,1
195.0,-14.0,137.0,-43.0,32.0,-3.0,1
193.0,-14.0,139.0,-42.0,32.0,-3.0,1
196.0,-14.0,137.0,-43.0,32.0,-3.0,1
197.0,-17.0,140.0,-39.0,31.0,-4.0,1
190.0,-13.0,139.0,-41.0,29.0,-3.0,1
194.0,-13.0,141.0,-41.0,29.0,-4.0,1
195.0,-14.0,136.0,-39.0,28.0,-5.0,1
193.0,-14.0,136.0,-40.0,28.0,-4.0,1
194.0,-12.0,140.0,-39.0,29.0,-2.0,1
197.0,-15.0,140.0,-40.0,28.0,-2.0,1
195.0,-8.0,137.0,-44.0,29.0,-2.0,1
195.0,-11.0,138.0,-48.0,30.0,-3.0,1
195.0,-11.0,137.0,-52.0,31.0,-4.0,1
193.0,-9.0,138.0,-55.0,32.0,-3.0,1
192.0,-11.0,138.0,-54.0,32.0,-3.0,1
195.0,-13.0,140.0,-53.0,32.0,-1.0,1
193.0,-14.0,134.0,-50.0,35.0,-3.0,1
191.0,-13.0,135.0,-46.0,33.0,-2.0,1
191.0,-11.0,138.0,-44.0,33.0,-3.0,1
193.0,-15.0,137.0,-45.0,32.0,-2.0,1
193.0,-13.0,138.0,-45.0,30.0,-2.0,1
193.0,-14.0,140.0,-47.0,30.0,-2.0,1
194.0,-19.0,140.0,-46.0,27.0,-2.0,1
194.0,-15.0,139.0,-48.0,24.0,-3.0,1
193.0,-17.0,138.0,-46.0,22.0,-4.0,1
195.0,-15.0,141.0,-41.0,22.0,-5.0,1
194.0,-14.0,140.0,-38.0,25.0,-5.0,1
193.0,-13.0,139.0,-38.0,27.0,-5.0,1
194.0,-11.0,139.0,-39.0,29.0,-4.0,1
196.0,-14.0,138.0,-42.0,31.0,-4.0,1
197.0,-15.0,142.0,-45.0,34.0,-4.0,1
197.0,-14.0,140.0,-48.0,32.0,-5.0,1
198.0,-11.0,140.0,-49.0,32.0,-5.0,1
193.0,-12.0,138.0,-47.0,32.0,-6.0,1
196.0,-15.0,137.0,-46.0,31.0,-7.0,1
195.0,-14.0,137.0,-43.0,29.0,-6.0,1
194.0,-13.0,140.0,-41.0,27.0,-6.0,1
191.0,-12.0,136.0,-40.0,26.0,-5.0,1
194.0,-15.0,138.0,-38.0,24.0,-5.0,1
195.0,-11.0,139.0,-37.0,25.0,-5.0,1
195.0,-16.0,139.0,-37.0,25.0,-4.0,1
194.0,-13.0,139.0,-37.0,24.0,-5.0,1
195.0,-13.0,138.0,-39.0,24.0,-6.0,1
194.0,-13.0,137.0,-41.0,25.0,-6.0,1
195.0,-12.0,136.0,-44.0,26.0,-6.0,1
194.0,-14.0,136.0,-45.0,27.0,-4.0,1
192.0,-13.0,140.0,-48.0,30.0,-6.0,1
193.0,-9.0,140.0,-50.0,31.0,-4.0,1
195.0,-12.0,135.0,-51.0,31.0,-3.0,1
193.0,-14.0,141.0,-51.0,32.0,-2.0,1
192.0,-11.0,135.0,-48.0,31.0,-2.0,1
189.0,-11.0,142.0,-47.0,30.0,-1.0,1
193.0,-12.0,139.0,-47.0,30.0,-2.0,1
193.0,-14.0,140.0,-47.0,29.0,-1.0,1
192.0,-12.0,139.0,-45.0,30.0,0.0,1
194.0,-13.0,132.0,-45.0,28.0,-1.0,1
195.0,-14.0,141.0,-45.0,28.0,-1.0,1
193.0,-12.0,139.0,-46.0,27.0,1.0,1
193.0,-12.0,140.0,-44.0,26.0,0.0,1
191.0,-12.0,141.0,-45.0,26.0,1.0,1
194.0,-14.0,139.0,-47.0,26.0,1.0,1
198.0,-13.0,141.0,-50.0,26.0,-1.0,1
196.0,-15.0,139.0,-54.0,28.0,0.0,1
194.0,-14.0,139.0,-54.0,26.0,0.0,1
196.0,-14.0,141.0,-55.0,27.0,0.0,1
192.0,-14.0,138.0,-51.0,26.0,0.0,1
193.0,-15.0,141.0,-49.0,24.0,-1.0,1
194.0,-14.0,143.0,-45.0,23.0,-1.0,1
190.0,-12.0,142.0,-44.0,22.0,-2.0,1
194.0,-15.0,136.0,-44.0,22.0,-1.0,1
196.0,-15.0,134.0,-47.0,24.0,0.0,1
196.0,-11.0,140.0,-50.0,25.0,1.0,1
192.0,-8.0,139.0,-53.0,26.0,1.0,1
198.0,-15.0,138.0,-52.0,28.0,0.0,1
197.0,-13.0,141.0,-53.0,29.0,0.0,1
196.0,-14.0,141.0,-51.0,29.0,-3.0,1
194.0,-12.0,137.0,-50.0,30.0,-2.0,1
194.0,-15.0,140.0,-52.0,27.0,-3.0,1
191.0,-14.0,136.0,-53.0,26.0,-2.0,1
191.0,-13.0,140.0,-54.0,26.0,-2.0,1
191.0,-14.0,138.0,-55.0,25.0,-3.0,1
193.0,-13.0,140.0,-55.0,25.0,-5.0,1
194.0,-12.0,140.0,-56.0,25.0,-4.0,1
193.0,-16.0,140.0,-57.0,24.0,-4.0,1
193.0,-15.0,138.0,-56.0,24.0,-4.0,1
195.0,-14.0,139.0,-54.0,23.0,-4.0,1
195.0,-16.0,138.0,-53.0,24.0,-5.0,1
196.0,-17.0,140.0,-50.0,24.0,-3.0,1
193.0,-13.0,140.0,-50.0,23.0,-2.0,1
197.0,-13.0,136.0,-49.0,24.0,-3.0,1
193.0,-15.0,137.0,-51.0,25.0,-3.0,1
194.0,-14.0,139.0,-50.0,25.0,-2.0,1
192.0,-15.0,136.0,-51.0,25.0,-3.0,1
193.0,-11.0,142.0,-50.0,25.0,-5.0,1
188.0,-14.0,140.0,-51.0,26.0,-4.0,1
194.0,-14.0,140.0,-52.0,27.0,-5.0,1
195.0,-12.0,140.0,-53.0,27.0,-4.0,1
192.0,-14.0,138.0,-53.0,28.0,-4.0,1
196.0,-14.0,140.0,-53.0,27.0,-4.0,1
192.0,-14.0,141.0,-51.0,26.0,-4.0,1
194.0,-12.0,138.0,-49.0,27.0,-4.0,1
192.0,-14.0,138.0,-49.0,26.0,-4.0,1
191.0,-11.0,141.0,-46.0,26.0,-1.0,1
190.0,-12.0,140.0,-46.0,26.0,-3.0,1
194.0,-12.0,141.0,-47.0,26.0,-3.0,1
191.0,-10.0,138.0,-47.0,25.0,-1.0,1
195.0,-14.0,139.0,-46.0,25.0,-1.0,1
194.0,-9.0,137.0,-48.0,26.0,-1.0,1
196.0,-14.0,138.0,-51.0,26.0,-1.0,1
194.0,-14.0,138.0,-52.0,27.0,-1.0,1
195.0,-13.0,142.0,-55.0,27.0,-1.0,1
194.0,-13.0,141.0,-55.0,28.0,-1.0,1
194.0,-18.0,137.0,-56.0,28.0,-3.0,1
193.0,-14.0,140.0,-56.0,28.0,-2.0,1
191.0,-13.0,142.0,-56.0,28.0,-1.0,1
193.0,-15.0,141.0,-54.0,28.0,-2.0,1
188.0,-16.0,138.0,-54.0,26.0,-2.0,1
192.0,-11.0,141.0,-55.0,26.0,-1.0,1
194.0,-13.0,140.0,-57.0,27.0,-2.0,1
192.0,-12.0,138.0,-58.0,25.0,-3.0,1
192.0,-15.0,141.0,-57.0,26.0,-3.0,1
191.0,-13.0,139.0,-58.0,26.0,-1.0,1
195.0,-14.0,137.0,-57.0,26.0,-2.0,1
196.0,-13.0,143.0,-55.0,26.0,-4.0,1
198.0,-15.0,141.0,-55.0,25.0,-2.0,1
192.0,-14.0,138.0,-55.0,24.0,-3.0,1
193.0,-16.0,140.0,-52.0,23.0,-3.0,1
195.0,-12.0,141.0,-54.0,21.0,-4.0,1
195.0,-14.0,140.0,-54.0,21.0,-4.0,1
195.0,-14.0,138.0,-54.0,20.0,-3.0,1
192.0,-15.0,139.0,-53.0,19.0,-4.0,1
192.0,-13.0,140.0,-55.0,19.0,-2.0,1
192.0,-12.0,141.0,-57.0,19.0,-4.0,1
193.0,-15.0,143.0,-57.0,20.0,-3.0,1
192.0,-14.0,138.0,-58.0,17.0,-1.0,1
192.0,-13.0,141.0,-59.0,18.0,-2.0,1
193.0,-11.0,135.0,-62.0,17.0,-4.0,1
194.0,-13.0,135.0,-63.0,17.0,-5.0,1
197.0,-15.0,144.0,-62.0,17.0,-4.0,1
195.0,-13.0,140.0,-65.0,16.0,-4.0,1
194.0,-12.0,140.0,-66.0,15.0,-3.0,1
196.0,-14.0,140.0,-66.0,16.0,-4.0,1
194.0,-11.0,136.0,-66.0,13.0,-5.0,1
194.0,-12.0,138.0,-65.0,14.0,-4.0,1
192.0,-13.0,141.0,-66.0,14.0,-3.0,1
190.0,-15.0,140.0,-65.0,13.0,-3.0,1
189.0,-13.0,142.0,-66.0,12.0,-3.0,1
196.0,-16.0,140.0,-65.0,11.0,-2.0,1
195.0,-15.0,141.0,-65.0,10.0,0.0,1
194.0,-21.0,132.0,-65.0,9.0,-1.0,1
194.0,-13.0,140.0,-67.0,8.0,-1.0,1
195.0,-14.0,137.0,-67.0,9.0,-1.0,1
194.0,-14.0,134.0,-70.0,10.0,-3.0,1
193.0,-14.0,141.0,-72.0,10.0,-2.0,1
193.0,-16.0,139.0,-73.0,9.0,-2.0,1
193.0,-14.0,139.0,-72.0,9.0,-1.0,1
194.0,-15.0,141.0,-71.0,9.0,-2.0,1
194.0,-15.0,138.0,-69.0,8.0,-2.0,1
193.0,-18.0,142.0,-68.0,5.0,-3.0,1
190.0,-15.0,138.0,-68.0,5.0,-1.0,1
188.0,-12.0,132.0,-68.0,3.0,0.0,1
190.0,-11.0,140.0,-67.0,2.0,0.0,1
194.0,-15.0,138.0,-65.0,1.0,-1.0,1
195.0,-11.0,138.0,-64.0,-1.0,-1.0,1
193.0,-14.0,140.0,-64.0,-3.0,-1.0,1
193.0,-13.0,138.0,-64.0,-3.0,-2.0,1
193.0,-11.0,141.0,-62.0,-3.0,0.0,1
194.0,-14.0,140.0,-64.0,-3.0,1.0,1
198.0,-10.0,141.0,-65.0,-4.0,-1.0,1
194.0,-13.0,138.0,-67.0,-3.0,0.0,1
195.0,-12.0,138.0,-68.0,0.0,0.0,1
192.0,-15.0,137.0,-69.0,0.0,1.0,1
193.0,-15.0,137.0,-68.0,1.0,1.0,1
193.0,-18.0,138.0,-66.0,1.0,2.0,1
194.0,-17.0,136.0,-64.0,2.0,1.0,1
194.0,-16.0,138.0,-65.0,0.0,2.0,1
192.0,-17.0,140.0,-65.0,2.0,1.0,1
193.0,-17.0,138.0,-68.0,0.0,1.0,1
192.0,-17.0,136.0,-71.0,-1.0,1.0,1
193.0,-20.0,140.0,-72.0,-2.0,0.0,1
192.0,-18.0,141.0,-69.0,-5.0,0.0,1
194.0,-18.0,144.0,-65.0,-8.0,-2.0,1
192.0,-17.0,135.0,-61.0,-9.0,-1.0,1
192.0,-17.0,140.0,-58.0,-11.0,-2.0,1
191.0,-14.0,136.0,-55.0,-8.0,-3.0,1
197.0,-18.0,138.0,-56.0,-8.0,-4.0,1
195.0,-12.0,136.0,-59.0,-7.0,-3.0,1
196.0,-15.0,138.0,-63.0,-8.0,-4.0,1
195.0,-18.0,137.0,-64.0,-8.0,-5.0,1
197.0,-13.0,141.0,-66.0,-9.0,-5.0,1
194.0,-14.0,139.0,-65.0,-12.0,-6.0,1
199.0,-18.0,137.0,-64.0,-10.0,-7.0,1
195.0,-9.0,138.0,-62.0,-10.0,-6.0,1
195.0,-16.0,138.0,-58.0,-12.0,-7.0,1
200.0,-18.0,137.0,-56.0,-11.0,-7.0,1
193.0,-13.0,136.0,-57.0,-11.0,-11.0,1
196.0,-19.0,139.0,-57.0,-10.0,-12.0,1
192.0,-17.0,138.0,-57.0,-7.0,-12.0,1
195.0,-16.0,139.0,-59.0,-4.0,-11.0,1
194.0,-18.0,139.0,-61.0,-4.0,-14.0,1
191.0,-19.0,141.0,-59.0,-7.0,-17.0,1
191.0,-16.0,143.0,-57.0,-9.0,-21.0,1
191.0,-14.0,138.0,-54.0,-9.0,-20.0,1
192.0,-11.0,139.0,-51.0,-7.0,-10.0,1
196.0,-12.0,136.0,-48.0,-8.0,2.0,1
197.0,-13.0,136.0,-56.0,-4.0,3.0,1
195.0,-14.0,139.0,-68.0,0.0,-1.0,1
194.0,-20.0,136.0,-76.0,9.0,-7.0,1
194.0,-17.0,134.0,-80.0,14.0,-12.0,1
192.0,-15.0,140.0,-74.0,14.0,-11.0,1
195.0,-16.0,139.0,-63.0,8.0,-7.0,1
195.0,-19.0,139.0,-54.0,2.0,-5.0,1
195.0,-20.0,139.0,-53.0,-3.0,-5.0,1
201.0,-18.0,140.0,-57.0,-7.0,-7.0,1
190.0,-12.0,138.0,-58.0,-10.0,-6.0,1
189.0,-16.0,141.0,-58.0,-11.0,-10.0,1
199.0,-17.0,137.0,-60.0,-12.0,-8.0,1
192.0,-12.0,138.0,-57.0,-12.0,-7.0,1
199.0,-12.0,135.0,-57.0,-12.0,-7.0,1
194.0,-13.0,136.0,-59.0,-12.0,-6.0,1
195.0,-16.0,141.0,-61.0,-10.0,-6.0,1
193.0,-13.0,143.0,-62.0,-11.0,-4.0,1
194.0,-15.0,137.0,-62.0,-11.0,-3.0,1
192.0,-16.0,138.0,-61.0,-12.0,-2.0,1
195.0,-18.0,139.0,-58.0,-13.0,-3.0,1
203.0,-14.0,135.0,-55.0,-12.0,-4.0,1
202.0,-8.0,138.0,-55.0,-12.0,-3.0,1
199.0,-14.0,149.0,-57.0,-14.0,-4.0,1
197.0,-32.0,144.0,-61.0,-11.0,-5.0,1
191.0,-20.0,139.0,-61.0,-10.0,-6.0,1
199.0,-25.0,140.0,-60.0,-12.0,-6.0,1
193.0,-18.0,132.0,-60.0,-14.0,-6.0,1
200.0,-16.0,138.0,-60.0,-12.0,-6.0,1
189.0,-15.0,128.0,-60.0,-10.0,-6.0,1
195.0,-13.0,134.0,-62.0,-9.0,-6.0,1
191.0,-15.0,133.0,-65.0,-9.0,-5.0,1
191.0,-19.0,141.0,-67.0,-9.0,-4.0,1
196.0,-14.0,144.0,-68.0,-11.0,-4.0,1
189.0,-16.0,135.0,-67.0,-12.0,-4.0,1
193.0,-20.0,142.0,-65.0,-16.0,-4.0,1
196.0,-14.0,134.0,-65.0,-16.0,-5.0,1
182.0,-14.0,139.0,-63.0,-18.0,-5.0,1
202.0,-20.0,138.0,-59.0,-21.0,-4.0,1
197.0,-15.0,138.0,-55.0,-21.0,-4.0,1
206.0,-14.0,140.0,-52.0,-22.0,-5.0,1
196.0,-14.0,130.0,-49.0,-23.0,-4.0,1
197.0,-24.0,144.0,-49.0,-23.0,-5.0,1
197.0,-14.0,136.0,-49.0,-23.0,-4.0,1
198.0,-15.0,132.0,-48.0,-23.0,-5.0,1
203.0,-15.0,125.0,-47.0,-22.0,-5.0,1
193.0,-17.0,137.0,-47.0,-23.0,-5.0,1
203.0,-5.0,133.0,-48.0,-20.0,-5.0,1
197.0,-12.0,140.0,-50.0,-19.0,-7.0,1
192.0,-22.0,126.0,-52.0,-18.0,-8.0,1
198.0,-16.0,140.0,-54.0,-17.0,-8.0,1
193.0,-18.0,130.0,-55.0,-16.0,-7.0,1
195.0,-16.0,132.0,-54.0,-16.0,-9.0,1
198.0,-15.0,134.0,-53.0,-16.0,-8.0,1
195.0,-16.0,133.0,-51.0,-17.0,-8.0,1
190.0,-14.0,135.0,-51.0,-17.0,-7.0,1
199.0,-19.0,131.0,-50.0,-16.0,-7.0,1
195.0,-16.0,138.0,-48.0,-18.0,-7.0,1
195.0,-17.0,134.0,-46.0,-18.0,-6.0,1
200.0,-18.0,135.0,-44.0,-17.0,-7.0,1
195.0,-16.0,138.0,-43.0,-16.0,-7.0,1
193.0,-12.0,138.0,-42.0,-15.0,-6.0,1
195.0,-14.0,128.0,-43.0,-15.0,-6.0,1
196.0,-18.0,138.0,-43.0,-15.0,-5.0,1
198.0,-15.0,135.0,-44.0,-12.0,-4.0,1
192.0,-17.0,138.0,-44.0,-11.0,-4.0,1
198.0,-18.0,131.0,-44.0,-10.0,-4.0,1
197.0,-12.0,133.0,-44.0,-9.0,-4.0,1
197.0,-16.0,138.0,-43.0,-7.0,-4.0,1
199.0,-19.0,132.0,-43.0,-8.0,-5.0,1
200.0,-16.0,136.0,-42.0,-5.0,-8.0,1
199.0,-16.0,135.0,-43.0,-5.0,-7.0,1
198.0,-28.0,136.0,-42.0,-5.0,-5.0,1
199.0,-16.0,135.0,-42.0,-4.0,-5.0,1
198.0,-18.0,133.0,-40.0,-4.0,-6.0,1
194.0,-14.0,133.0,-40.0,-3.0,-7.0,1
195.0,-15.0,136.0,-40.0,-1.0,-6.0,1
199.0,-14.0,130.0,-38.0,-2.0,-5.0,1
195.0,-15.0,136.0,-39.0,1.0,-6.0,1
195.0,-15.0,133.0,-37.0,2.0,-6.0,1
196.0,-18.0,137.0,-35.0,5.0,-6.0,1
197.0,-18.0,133.0,-34.0,7.0,-6.0,1
196.0,-16.0,138.0,-32.0,9.0,-6.0,1
197.0,-19.0,132.0,-31.0,10.0,-7.0,1
195.0,-19.0,135.0,-30.0,11.0,-5.0,1
196.0,-18.0,134.0,-29.0,13.0,-6.0,1
195.0,-16.0,137.0,-26.0,16.0,-5.0,1
190.0,-16.0,134.0,-26.0,18.0,-4.0,1
196.0,-17.0,137.0,-26.0,18.0,-4.0,1
198.0,-16.0,137.0,-25.0,21.0,-4.0,1
195.0,-16.0,135.0,-23.0,23.0,-4.0,1
200.0,-15.0,135.0,-23.0,24.0,-2.0,1
196.0,-17.0,136.0,-24.0,26.0,-2.0,1
196.0,-12.0,135.0,-24.0,26.0,-2.0,1
199.0,-17.0,133.0,-26.0,27.0,-2.0,1
195.0,-14.0,135.0,-29.0,28.0,-1.0,1
198.0,-19.0,140.0,-33.0,28.0,-2.0,1
198.0,-18.0,134.0,-33.0,27.0,-3.0,1
196.0,-14.0,134.0,-35.0,28.0,-3.0,1
194.0,-18.0,135.0,-33.0,28.0,-3.0,1
194.0,-17.0,135.0,-33.0,27.0,-4.0,1
198.0,-16.0,137.0,-35.0,26.0,-3.0,1
197.0,-18.0,134.0,-36.0,25.0,-3.0,1
196.0,-15.0,133.0,-35.0,25.0,-4.0,1
197.0,-16.0,139.0,-35.0,24.0,-4.0,1
197.0,-15.0,132.0,-34.0,23.0,-4.0,1
195.0,-16.0,137.0,-35.0,22.0,-4.0,1
200.0,-15.0,137.0,-34.0,20.0,-4.0,1
204.0,-17.0,133.0,-33.0,22.0,-6.0,1
196.0,-18.0,134.0,-29.0,22.0,-5.0,1
197.0,-13.0,135.0,-27.0,24.0,-4.0,1
197.0,-15.0,135.0,-24.0,24.0,-4.0,1
198.0,-15.0,136.0,-24.0,25.0,-4.0,1
196.0,-8.0,135.0,-26.0,27.0,-3.0,1
196.0,-12.0,136.0,-31.0,30.0,-4.0,1
196.0,-14.0,138.0,-35.0,33.0,-5.0,1
195.0,-15.0,132.0,-38.0,37.0,-6.0,1
194.0,-13.0,136.0,-39.0,40.0,-6.0,1
195.0,-14.0,137.0,-37.0,43.0,-6.0,1
191.0,-16.0,137.0,-32.0,44.0,-5.0,1
193.0,-16.0,137.0,-31.0,45.0,-2.0,1
194.0,-17.0,134.0,-31.0,45.0,0.0,1
195.0,-16.0,136.0,-32.0,43.0,-1.0,1
195.0,-17.0,136.0,-32.0,41.0,-1.0,1
196.0,-15.0,139.0,-33.0,37.0,1.0,1
195.0,-18.0,137.0,-33.0,35.0,-1.0,1
196.0,-16.0,139.0,-33.0,32.0,-3.0,1
195.0,-19.0,141.0,-31.0,29.0,-4.0,1
198.0,-15.0,134.0,-26.0,26.0,-5.0,1
199.0,-13.0,137.0,-24.0,29.0,-3.0,1
200.0,-14.0,138.0,-29.0,32.0,-4.0,1
197.0,-14.0,135.0,-33.0,31.0,-6.0,1
197.0,-15.0,136.0,-36.0,31.0,-7.0,1
198.0,-15.0,137.0,-39.0,30.0,-8.0,1
199.0,-14.0,139.0,-39.0,31.0,-8.0,1
197.0,-17.0,135.0,-38.0,31.0,-7.0,1
196.0,-12.0,139.0,-38.0,31.0,-8.0,1
197.0,-16.0,136.0,-37.0,31.0,-8.0,1
193.0,-14.0,133.0,-38.0,31.0,-8.0,1
197.0,-15.0,134.0,-39.0,30.0,-6.0,1
195.0,-13.0,134.0,-38.0,31.0,-7.0,1
190.0,-14.0,130.0,-37.0,31.0,-7.0,1
197.0,-14.0,137.0,-35.0,34.0,-7.0,1
196.0,-14.0,136.0,-34.0,33.0,-5.0,1
195.0,-16.0,138.0,-34.0,35.0,-5.0,1
197.0,-18.0,139.0,-34.0,35.0,-4.0,1
195.0,-11.0,132.0,-33.0,36.0,-3.0,1
194.0,-14.0,136.0,-31.0,38.0,-6.0,1
198.0,-15.0,138.0,-32.0,39.0,-5.0,1
195.0,-16.0,135.0,-32.0,38.0,-5.0,1
197.0,-15.0,138.0,-30.0,38.0,-4.0,1
197.0,-16.0,138.0,-29.0,39.0,-3.0,1
196.0,-11.0,142.0,-28.0,39.0,-2.0,1
194.0,-15.0,137.0,-28.0,41.0,-2.0,1
196.0,-17.0,138.0,-28.0,41.0,-2.0,1
197.0,-13.0,135.0,-27.0,42.0,-1.0,1
198.0,-14.0,140.0,-28.0,40.0,0.0,1
194.0,-14.0,137.0,-28.0,41.0,0.0,1
196.0,-15.0,138.0,-28.0,39.0,-1.0,1
197.0,-15.0,134.0,-28.0,37.0,-1.0,1
197.0,-15.0,137.0,-28.0,37.0,-1.0,1
197.0,-14.0,135.0,-29.0,35.0,-1.0,1
195.0,-15.0,136.0,-31.0,35.0,-1.0,1
196.0,-12.0,128.0,-36.0,35.0,-2.0,1
196.0,-13.0,138.0,-39.0,36.0,-1.0,1
198.0,-13.0,138.0,-41.0,36.0,-3.0,1
199.0,-15.0,136.0,-42.0,36.0,-2.0,1
196.0,-16.0,137.0,-43.0,37.0,-2.0,1
192.0,-13.0,139.0,-45.0,36.0,-4.0,1
198.0,-13.0,134.0,-44.0,37.0,-2.0,1
196.0,-15.0,139.0,-45.0,36.0,-3.0,1
195.0,-15.0,133.0,-44.0,35.0,-4.0,1
195.0,-17.0,136.0,-44.0,34.0,-4.0,1
197.0,-14.0,140.0,-46.0,34.0,-3.0,1
194.0,-17.0,134.0,-46.0,32.0,-2.0,1
195.0,-14.0,138.0,-44.0,30.0,-3.0,1
199.0,-16.0,138.0,-44.0,31.0,-4.0,1
193.0,-14.0,139.0,-44.0,32.0,-3.0,1
196.0,-15.0,138.0,-44.0,31.0,-3.0,1
194.0,-14.0,138.0,-44.0,33.0,-3.0,1
193.0,-16.0,134.0,-46.0,33.0,-4.0,1
195.0,-17.0,136.0,-45.0,32.0,-3.0,1
197.0,-15.0,135.0,-42.0,32.0,-3.0,1
196.0,-15.0,137.0,-42.0,32.0,-4.0,1
194.0,-14.0,136.0,-43.0,32.0,-3.0,1
198.0,-10.0,141.0,-41.0,32.0,-6.0,1
197.0,-16.0,138.0,-38.0,32.0,-7.0,1
197.0,-16.0,136.0,-36.0,33.0,-8.0,1
194.0,-16.0,139.0,-35.0,33.0,-7.0,1
196.0,-14.0,138.0,-34.0,34.0,-7.0,1
196.0,-15.0,137.0,-36.0,34.0,-5.0,1
195.0,-18.0,138.0,-34.0,35.0,-6.0,1
195.0,-13.0,132.0,-33.0,35.0,-7.0,1
193.0,-14.0,136.0,-34.0,35.0,-7.0,1
192.0,-15.0,138.0,-36.0,36.0,-8.0,1
193.0,-17.0,137.0,-37.0,36.0,-8.0,1
196.0,-15.0,137.0,-39.0,36.0,-7.0,1
195.0,-11.0,137.0,-41.0,37.0,-6.0,1
195.0,-14.0,134.0,-42.0,38.0,-6.0,1
196.0,-15.0,132.0,-43.0,38.0,-6.0,1
192.0,-15.0,139.0,-41.0,37.0,-4.0,1
195.0,-13.0,138.0,-41.0,37.0,-4.0,1
195.0,-17.0,139.0,-41.0,38.0,-5.0,1
197.0,-13.0,134.0,-39.0,38.0,-4.0,1
195.0,-15.0,142.0,-40.0,39.0,-4.0,1
194.0,-13.0,136.0,-40.0,39.0,-3.0,1
196.0,-12.0,143.0,-41.0,39.0,-3.0,1
194.0,-14.0,135.0,-41.0,38.0,-3.0,1
195.0,-16.0,138.0,-41.0,39.0,-2.0,1
196.0,-15.0,139.0,-41.0,40.0,-1.0,1
195.0,-13.0,137.0,-41.0,40.0,-1.0,1
194.0,-15.0,136.0,-43.0,39.0,-1.0,1
195.0,-18.0,136.0,-44.0,39.0,-1.0,1
195.0,-12.0,136.0,-44.0,39.0,0.0,1
198.0,-15.0,141.0,-46.0,38.0,1.0,1
193.0,-11.0,134.0,-47.0,37.0,1.0,1
193.0,-16.0,140.0,-49.0,35.0,0.0,1
190.0,-15.0,129.0,-49.0,34.0,3.0,1
195.0,-14.0,140.0,-49.0,35.0,2.0,1
195.0,-15.0,138.0,-50.0,33.0,4.0,1
194.0,-17.0,137.0,-51.0,32.0,3.0,1
