ax,ay,az,gx,gy,gz,label
40.0,-249.0,-114.0,57.0,15.0,-9.0,1
40.0,-248.0,-115.0,53.0,12.0,-9.0,1
39.0,-250.0,-112.0,50.0,9.0,-7.0,1
39.0,-248.0,-117.0,47.0,6.0,-6.0,1
44.0,-252.0,-116.0,46.0,5.0,-5.0,1
42.0,-248.0,-114.0,45.0,3.0,-4.0,1
40.0,-247.0,-112.0,43.0,1.0,-3.0,1
41.0,-252.0,-116.0,39.0,-1.0,-3.0,1
43.0,-249.0,-115.0,36.0,-3.0,-3.0,1
41.0,-248.0,-113.0,29.0,-3.0,-2.0,1
44.0,-249.0,-114.0,23.0,-5.0,-3.0,1
41.0,-252.0,-109.0,15.0,-4.0,-1.0,1
39.0,-248.0,-109.0,8.0,-6.0,1.0,1
39.0,-250.0,-113.0,1.0,-8.0,-1.0,1
35.0,-253.0,-114.0,-2.0,-8.0,1.0,1
37.0,-254.0,-116.0,-3.0,-9.0,1.0,1
37.0,-254.0,-113.0,-3.0,-10.0,1.0,1
37.0,-251.0,-114.0,1.0,-13.0,0.0,1
38.0,-248.0,-115.0,4.0,-14.0,2.0,1
41.0,-252.0,-114.0,8.0,-18.0,2.0,1
35.0,-252.0,-112.0,13.0,-22.0,1.0,1
40.0,-252.0,-115.0,16.0,-27.0,2.0,1
36.0,-252.0,-113.0,18.0,-31.0,2.0,1
36.0,-251.0,-115.0,21.0,-35.0,1.0,1
37.0,-249.0,-116.0,23.0,-38.0,2.0,1
33.0,-252.0,-117.0,28.0,-40.0,6.0,1
33.0,-251.0,-113.0,33.0,-47.0,10.0,1
31.0,-254.0,-115.0,40.0,-54.0,16.0,1
30.0,-253.0,-114.0,46.0,-62.0,22.0,1
27.0,-255.0,-114.0,53.0,-72.0,29.0,1
29.0,-253.0,-110.0,59.0,-83.0,33.0,1
26.0,-256.0,-114.0,68.0,-95.0,39.0,1
25.0,-256.0,-112.0,74.0,-109.0,45.0,1
19.0,-256.0,-116.0,84.0,-126.0,51.0,1
22.0,-258.0,-109.0,96.0,-144.0,59.0,1
20.0,-255.0,-114.0,105.0,-164.0,68.0,1
18.0,-257.0,-118.0,118.0,-179.0,78.0,1
18.0,-259.0,-112.0,129.0,-195.0,84.0,1
14.0,-255.0,-116.0,139.0,-212.0,89.0,1
11.0,-260.0,-115.0,147.0,-234.0,95.0,1
5.0,-258.0,-115.0,160.0,-256.0,99.0,1
5.0,-259.0,-113.0,172.0,-281.0,103.0,1
2.0,-259.0,-109.0,184.0,-307.0,106.0,1
2.0,-260.0,-115.0,197.0,-335.0,109.0,1
1.0,-266.0,-108.0,211.0,-358.0,111.0,1
0.0,-265.0,-112.0,228.0,-383.0,113.0,1
0.0,-271.0,-108.0,247.0,-406.0,116.0,1
0.0,-271.0,-112.0,270.0,-432.0,120.0,1
-2.0,-272.0,-112.0,295.0,-464.0,122.0,1
-3.0,-270.0,-112.0,322.0,-503.0,123.0,1
-5.0,-272.0,-110.0,351.0,-552.0,125.0,1
0.0,-271.0,-107.0,383.0,-607.0,127.0,1
0.0,-268.0,-109.0,414.0,-664.0,126.0,1
0.0,-266.0,-115.0,438.0,-715.0,124.0,1
2.0,-261.0,-109.0,455.0,-758.0,126.0,1
6.0,-260.0,-115.0,459.0,-790.0,122.0,1
7.0,-257.0,-117.0,452.0,-809.0,118.0,1
3.0,-253.0,-116.0,432.0,-819.0,111.0,1
7.0,-251.0,-118.0,403.0,-821.0,108.0,1
2.0,-245.0,-115.0,367.0,-822.0,103.0,1
6.0,-246.0,-110.0,327.0,-827.0,102.0,1
8.0,-245.0,-111.0,287.0,-841.0,103.0,1
7.0,-244.0,-107.0,241.0,-861.0,106.0,1
4.0,-244.0,-105.0,196.0,-885.0,109.0,1
7.0,-242.0,-104.0,150.0,-910.0,112.0,1
10.0,-242.0,-102.0,107.0,-933.0,115.0,1
8.0,-243.0,-96.0,67.0,-953.0,114.0,1
6.0,-242.0,-99.0,32.0,-970.0,114.0,1
11.0,-247.0,-98.0,3.0,-984.0,116.0,1
14.0,-248.0,-97.0,-19.0,-997.0,115.0,1
13.0,-247.0,-94.0,-31.0,-1008.0,113.0,1
12.0,-253.0,-96.0,-35.0,-1015.0,112.0,1
15.0,-255.0,-93.0,-31.0,-1020.0,113.0,1
13.0,-256.0,-93.0,-28.0,-1022.0,112.0,1
13.0,-258.0,-91.0,-21.0,-1021.0,111.0,1
19.0,-259.0,-95.0,-14.0,-1018.0,113.0,1
16.0,-256.0,-93.0,-6.0,-1015.0,111.0,1
15.0,-257.0,-93.0,-1.0,-1013.0,109.0,1
17.0,-256.0,-90.0,0.0,-1011.0,106.0,1
15.0,-256.0,-93.0,-4.0,-1007.0,103.0,1
21.0,-261.0,-90.0,-11.0,-1003.0,100.0,1
16.0,-254.0,-87.0,-16.0,-999.0,94.0,1
19.0,-253.0,-89.0,-21.0,-994.0,87.0,1
15.0,-252.0,-87.0,-25.0,-988.0,79.0,1
14.0,-251.0,-82.0,-28.0,-982.0,69.0,1
15.0,-250.0,-81.0,-31.0,-978.0,58.0,1
15.0,-250.0,-81.0,-34.0,-977.0,46.0,1
14.0,-250.0,-77.0,-39.0,-977.0,34.0,1
14.0,-253.0,-81.0,-43.0,-979.0,22.0,1
14.0,-253.0,-77.0,-48.0,-985.0,12.0,1
12.0,-256.0,-77.0,-51.0,-992.0,4.0,1
9.0,-257.0,-83.0,-50.0,-998.0,-2.0,1
7.0,-266.0,-84.0,-43.0,-1001.0,-6.0,1
7.0,-268.0,-87.0,-27.0,-1005.0,-9.0,1
3.0,-271.0,-89.0,-8.0,-1009.0,-11.0,1
3.0,-273.0,-94.0,13.0,-1018.0,-13.0,1
0.0,-274.0,-93.0,37.0,-1027.0,-14.0,1
1.0,-275.0,-97.0,64.0,-1035.0,-16.0,1
2.0,-277.0,-93.0,97.0,-1040.0,-15.0,1
2.0,-274.0,-98.0,131.0,-1040.0,-16.0,1
2.0,-269.0,-98.0,163.0,-1039.0,-17.0,1
-3.0,-266.0,-96.0,188.0,-1037.0,-18.0,1
5.0,-261.0,-95.0,203.0,-1037.0,-19.0,1
1.0,-263.0,-96.0,207.0,-1039.0,-20.0,1
0.0,-256.0,-98.0,201.0,-1037.0,-20.0,1
-3.0,-254.0,-88.0,192.0,-1039.0,-21.0,1
-1.0,-253.0,-86.0,178.0,-1036.0,-21.0,1
-2.0,-254.0,-85.0,162.0,-1036.0,-20.0,1
-4.0,-253.0,-80.0,148.0,-1035.0,-19.0,1
-1.0,-249.0,-80.0,136.0,-1033.0,-21.0,1
-1.0,-251.0,-83.0,121.0,-1029.0,-20.0,1
-3.0,-251.0,-80.0,105.0,-1024.0,-20.0,1
-2.0,-252.0,-79.0,91.0,-1017.0,-18.0,1
-2.0,-254.0,-75.0,78.0,-1012.0,-16.0,1
-3.0,-252.0,-73.0,65.0,-1005.0,-13.0,1
-4.0,-252.0,-75.0,53.0,-994.0,-11.0,1
-2.0,-252.0,-71.0,43.0,-980.0,-7.0,1
2.0,-253.0,-76.0,34.0,-964.0,1.0,1
2.0,-253.0,-68.0,26.0,-948.0,7.0,1
2.0,-253.0,-74.0,18.0,-932.0,15.0,1
3.0,-253.0,-67.0,13.0,-920.0,22.0,1
2.0,-249.0,-66.0,14.0,-906.0,26.0,1
1.0,-242.0,-74.0,16.0,-889.0,27.0,1
4.0,-252.0,-66.0,18.0,-872.0,23.0,1
3.0,-249.0,-71.0,18.0,-856.0,19.0,1
3.0,-250.0,-69.0,14.0,-837.0,12.0,1
1.0,-253.0,-65.0,5.0,-819.0,6.0,1
2.0,-251.0,-64.0,-4.0,-801.0,-3.0,1
-2.0,-248.0,-66.0,-14.0,-782.0,-13.0,1
0.0,-249.0,-65.0,-19.0,-764.0,-22.0,1
-1.0,-253.0,-66.0,-26.0,-748.0,-33.0,1
-3.0,-255.0,-66.0,-31.0,-729.0,-46.0,1
-8.0,-257.0,-66.0,-37.0,-708.0,-56.0,1
-13.0,-254.0,-57.0,-37.0,-685.0,-66.0,1
-10.0,-255.0,-67.0,-29.0,-662.0,-78.0,1
-15.0,-254.0,-64.0,-18.0,-644.0,-89.0,1
-14.0,-257.0,-65.0,-5.0,-630.0,-98.0,1
-16.0,-252.0,-64.0,12.0,-620.0,-105.0,1
-21.0,-252.0,-68.0,27.0,-609.0,-110.0,1
-21.0,-249.0,-65.0,40.0,-599.0,-117.0,1
-23.0,-246.0,-67.0,46.0,-590.0,-119.0,1
-23.0,-242.0,-64.0,46.0,-582.0,-123.0,1
-28.0,-242.0,-65.0,40.0,-574.0,-129.0,1
-30.0,-238.0,-65.0,24.0,-570.0,-131.0,1
-29.0,-241.0,-67.0,4.0,-565.0,-135.0,1
-30.0,-242.0,-63.0,-23.0,-562.0,-138.0,1
-30.0,-247.0,-63.0,-48.0,-562.0,-143.0,1
-32.0,-245.0,-60.0,-72.0,-564.0,-145.0,1
-33.0,-249.0,-62.0,-96.0,-569.0,-144.0,1
-31.0,-251.0,-65.0,-113.0,-572.0,-146.0,1
-30.0,-251.0,-62.0,-127.0,-574.0,-147.0,1
-30.0,-255.0,-57.0,-134.0,-572.0,-147.0,1
-29.0,-256.0,-55.0,-135.0,-567.0,-148.0,1
-27.0,-255.0,-54.0,-135.0,-559.0,-149.0,1
-27.0,-256.0,-52.0,-130.0,-550.0,-152.0,1
-29.0,-251.0,-52.0,-123.0,-537.0,-153.0,1
-25.0,-254.0,-50.0,-119.0,-524.0,-157.0,1
-25.0,-248.0,-51.0,-114.0,-508.0,-161.0,1
-24.0,-250.0,-48.0,-113.0,-489.0,-166.0,1
-25.0,-249.0,-45.0,-115.0,-467.0,-174.0,1
-23.0,-247.0,-42.0,-115.0,-445.0,-182.0,1
-24.0,-246.0,-42.0,-114.0,-426.0,-189.0,1
-22.0,-244.0,-40.0,-111.0,-408.0,-199.0,1
-19.0,-244.0,-39.0,-106.0,-393.0,-209.0,1
-22.0,-246.0,-43.0,-100.0,-383.0,-222.0,1
-22.0,-247.0,-39.0,-92.0,-377.0,-233.0,1
-21.0,-247.0,-38.0,-79.0,-373.0,-245.0,1
-19.0,-248.0,-39.0,-73.0,-372.0,-259.0,1
-22.0,-246.0,-43.0,-70.0,-373.0,-270.0,1
-22.0,-252.0,-43.0,-73.0,-375.0,-277.0,1
-26.0,-254.0,-51.0,-77.0,-378.0,-279.0,1
-23.0,-263.0,-54.0,-78.0,-381.0,-275.0,1
-28.0,-266.0,-65.0,-87.0,-379.0,-264.0,1
-30.0,-274.0,-77.0,-108.0,-372.0,-247.0,1
-30.0,-284.0,-85.0,-140.0,-360.0,-222.0,1
-33.0,-292.0,-96.0,-174.0,-351.0,-192.0,1
-32.0,-305.0,-99.0,-200.0,-349.0,-153.0,1
-31.0,-315.0,-105.0,-214.0,-355.0,-108.0,1
-32.0,-318.0,-109.0,-210.0,-368.0,-60.0,1
-24.0,-323.0,-115.0,-186.0,-392.0,-10.0,1
-16.0,-326.0,-113.0,-144.0,-419.0,41.0,1
-9.0,-325.0,-111.0,-86.0,-437.0,86.0,1
1.0,-322.0,-114.0,-16.0,-447.0,123.0,1
15.0,-318.0,-109.0,58.0,-446.0,151.0,1
24.0,-310.0,-106.0,128.0,-440.0,170.0,1
37.0,-303.0,-101.0,187.0,-431.0,180.0,1
46.0,-296.0,-101.0,239.0,-419.0,179.0,1
48.0,-286.0,-96.0,282.0,-398.0,169.0,1
57.0,-278.0,-83.0,320.0,-375.0,151.0,1
58.0,-277.0,-86.0,349.0,-347.0,128.0,1
55.0,-276.0,-82.0,367.0,-320.0,97.0,1
51.0,-268.0,-83.0,375.0,-289.0,60.0,1
49.0,-268.0,-79.0,378.0,-251.0,19.0,1
43.0,-263.0,-78.0,378.0,-211.0,-26.0,1
39.0,-267.0,-83.0,377.0,-175.0,-73.0,1
31.0,-262.0,-84.0,375.0,-143.0,-124.0,1
22.0,-257.0,-88.0,366.0,-120.0,-175.0,1
13.0,-256.0,-93.0,354.0,-100.0,-226.0,1
5.0,-252.0,-97.0,337.0,-84.0,-276.0,1
-1.0,-246.0,-100.0,312.0,-73.0,-323.0,1
-6.0,-239.0,-104.0,282.0,-71.0,-371.0,1
-13.0,-240.0,-106.0,246.0,-78.0,-413.0,1
-21.0,-235.0,-107.0,209.0,-96.0,-451.0,1
-22.0,-233.0,-109.0,168.0,-122.0,-480.0,1
-25.0,-229.0,-105.0,125.0,-151.0,-505.0,1
-20.0,-227.0,-104.0,79.0,-181.0,-521.0,1
-19.0,-228.0,-106.0,30.0,-211.0,-532.0,1
-11.0,-228.0,-99.0,-18.0,-244.0,-540.0,1
-7.0,-231.0,-97.0,-66.0,-283.0,-541.0,1
3.0,-235.0,-95.0,-111.0,-327.0,-536.0,1
14.0,-231.0,-103.0,-148.0,-361.0,-533.0,1
23.0,-241.0,-93.0,-178.0,-387.0,-526.0,1
33.0,-244.0,-92.0,-202.0,-405.0,-517.0,1
37.0,-244.0,-94.0,-218.0,-415.0,-508.0,1
48.0,-246.0,-89.0,-226.0,-423.0,-494.0,1
53.0,-250.0,-87.0,-230.0,-429.0,-480.0,1
57.0,-251.0,-88.0,-236.0,-432.0,-471.0,1
62.0,-256.0,-85.0,-242.0,-430.0,-461.0,1
64.0,-257.0,-82.0,-242.0,-421.0,-451.0,1
69.0,-261.0,-80.0,-244.0,-405.0,-443.0,1
64.0,-270.0,-70.0,-239.0,-385.0,-438.0,1
70.0,-275.0,-77.0,-232.0,-362.0,-437.0,1
71.0,-277.0,-80.0,-223.0,-338.0,-439.0,1
75.0,-284.0,-76.0,-215.0,-314.0,-443.0,1
73.0,-286.0,-77.0,-205.0,-289.0,-452.0,1
75.0,-290.0,-76.0,-187.0,-264.0,-462.0,1
74.0,-294.0,-80.0,-164.0,-245.0,-472.0,1
73.0,-297.0,-80.0,-129.0,-232.0,-483.0,1
74.0,-290.0,-79.0,-87.0,-226.0,-496.0,1
72.0,-289.0,-81.0,-41.0,-224.0,-506.0,1
67.0,-278.0,-91.0,5.0,-221.0,-518.0,1
72.0,-273.0,-86.0,50.0,-212.0,-529.0,1
69.0,-269.0,-83.0,88.0,-193.0,-539.0,1
69.0,-260.0,-74.0,119.0,-177.0,-545.0,1
65.0,-255.0,-73.0,136.0,-164.0,-545.0,1
63.0,-248.0,-72.0,144.0,-158.0,-546.0,1
60.0,-247.0,-71.0,148.0,-152.0,-541.0,1
56.0,-242.0,-69.0,144.0,-148.0,-534.0,1
58.0,-244.0,-65.0,129.0,-146.0,-520.0,1
50.0,-241.0,-69.0,114.0,-146.0,-514.0,1
49.0,-245.0,-71.0,94.0,-149.0,-510.0,1
48.0,-242.0,-72.0,76.0,-156.0,-505.0,1
41.0,-244.0,-74.0,53.0,-166.0,-501.0,1
40.0,-248.0,-72.0,26.0,-180.0,-494.0,1
39.0,-248.0,-73.0,-1.0,-200.0,-483.0,1
42.0,-249.0,-71.0,-23.0,-219.0,-472.0,1
41.0,-246.0,-69.0,-30.0,-234.0,-467.0,1
41.0,-249.0,-69.0,-29.0,-242.0,-464.0,1
39.0,-249.0,-69.0,-21.0,-246.0,-457.0,1
39.0,-245.0,-68.0,-11.0,-253.0,-447.0,1
39.0,-243.0,-63.0,-4.0,-261.0,-437.0,1
36.0,-244.0,-59.0,0.0,-269.0,-425.0,1
37.0,-241.0,-62.0,-3.0,-279.0,-411.0,1
44.0,-242.0,-59.0,-5.0,-287.0,-401.0,1
42.0,-238.0,-57.0,-6.0,-297.0,-392.0,1
47.0,-240.0,-59.0,-5.0,-303.0,-385.0,1
40.0,-237.0,-58.0,-4.0,-309.0,-381.0,1
43.0,-239.0,-61.0,-7.0,-315.0,-379.0,1
43.0,-237.0,-57.0,-13.0,-322.0,-373.0,1
43.0,-240.0,-57.0,-20.0,-331.0,-371.0,1
43.0,-239.0,-55.0,-30.0,-342.0,-364.0,1
44.0,-240.0,-55.0,-39.0,-352.0,-355.0,1
42.0,-240.0,-53.0,-47.0,-364.0,-344.0,1
42.0,-240.0,-54.0,-59.0,-376.0,-333.0,1
39.0,-238.0,-52.0,-72.0,-390.0,-324.0,1
41.0,-241.0,-53.0,-89.0,-405.0,-318.0,1
42.0,-239.0,-56.0,-108.0,-420.0,-313.0,1
41.0,-239.0,-49.0,-131.0,-438.0,-308.0,1
43.0,-240.0,-51.0,-157.0,-454.0,-304.0,1
42.0,-239.0,-47.0,-184.0,-470.0,-302.0,1
41.0,-235.0,-50.0,-219.0,-482.0,-295.0,1
45.0,-234.0,-45.0,-254.0,-492.0,-291.0,1
47.0,-233.0,-49.0,-287.0,-497.0,-287.0,1
48.0,-235.0,-48.0,-319.0,-500.0,-280.0,1
49.0,-236.0,-45.0,-348.0,-506.0,-274.0,1
52.0,-237.0,-48.0,-371.0,-508.0,-267.0,1
50.0,-237.0,-41.0,-393.0,-514.0,-262.0,1
53.0,-239.0,-42.0,-411.0,-518.0,-256.0,1
51.0,-240.0,-41.0,-427.0,-526.0,-248.0,1
47.0,-241.0,-41.0,-436.0,-532.0,-243.0,1
46.0,-242.0,-44.0,-443.0,-538.0,-240.0,1
49.0,-246.0,-44.0,-441.0,-544.0,-237.0,1
45.0,-246.0,-45.0,-431.0,-554.0,-230.0,1
48.0,-248.0,-44.0,-415.0,-562.0,-224.0,1
51.0,-251.0,-42.0,-391.0,-570.0,-216.0,1
49.0,-252.0,-42.0,-360.0,-576.0,-209.0,1
47.0,-248.0,-46.0,-328.0,-585.0,-201.0,1
53.0,-251.0,-45.0,-302.0,-597.0,-190.0,1
51.0,-248.0,-49.0,-283.0,-615.0,-176.0,1
51.0,-248.0,-52.0,-272.0,-631.0,-163.0,1
49.0,-246.0,-51.0,-270.0,-645.0,-151.0,1
50.0,-249.0,-49.0,-273.0,-658.0,-140.0,1
50.0,-254.0,-52.0,-277.0,-671.0,-131.0,1
47.0,-257.0,-51.0,-285.0,-685.0,-125.0,1
47.0,-261.0,-49.0,-291.0,-701.0,-120.0,1
48.0,-264.0,-54.0,-293.0,-712.0,-115.0,1
44.0,-273.0,-53.0,-293.0,-722.0,-110.0,1
45.0,-286.0,-55.0,-283.0,-733.0,-103.0,1
35.0,-282.0,-53.0,-266.0,-745.0,-91.0,1
38.0,-290.0,-52.0,-237.0,-757.0,-77.0,1
37.0,-292.0,-50.0,-199.0,-768.0,-62.0,1
37.0,-296.0,-56.0,-154.0,-774.0,-48.0,1
37.0,-293.0,-57.0,-114.0,-776.0,-39.0,1
48.0,-300.0,-60.0,-78.0,-770.0,-37.0,1
56.0,-295.0,-61.0,-44.0,-755.0,-43.0,1
64.0,-293.0,-60.0,-21.0,-730.0,-58.0,1
68.0,-286.0,-60.0,-7.0,-702.0,-75.0,1
73.0,-284.0,-55.0,-1.0,-673.0,-92.0,1
79.0,-280.0,-53.0,-4.0,-649.0,-114.0,1
78.0,-276.0,-42.0,-8.0,-631.0,-136.0,1
82.0,-274.0,-39.0,-13.0,-614.0,-161.0,1
92.0,-273.0,-39.0,-18.0,-593.0,-185.0,1
107.0,-279.0,-46.0,-41.0,-559.0,-203.0,1
120.0,-291.0,-65.0,-96.0,-511.0,-222.0,1
122.0,-305.0,-88.0,-213.0,-463.0,-251.0,1
111.0,-319.0,-113.0,-408.0,-429.0,-296.0,1
91.0,-334.0,-132.0,-654.0,-415.0,-340.0,1
74.0,-355.0,-138.0,-899.0,-414.0,-383.0,1
64.0,-377.0,-123.0,-1062.0,-407.0,-429.0,1
63.0,-396.0,-114.0,-1090.0,-376.0,-480.0,1
67.0,-405.0,-99.0,-989.0,-326.0,-536.0,1
69.0,-399.0,-101.0,-797.0,-270.0,-593.0,1
88.0,-383.0,-116.0,-581.0,-215.0,-639.0,1
98.0,-358.0,-122.0,-395.0,-156.0,-676.0,1
107.0,-341.0,-127.0,-260.0,-88.0,-703.0,1
110.0,-329.0,-127.0,-183.0,-23.0,-719.0,1
107.0,-313.0,-123.0,-143.0,31.0,-717.0,1
101.0,-303.0,-120.0,-119.0,61.0,-686.0,1
90.0,-285.0,-132.0,-96.0,63.0,-635.0,1
92.0,-280.0,-120.0,-68.0,39.0,-564.0,1
83.0,-266.0,-124.0,-40.0,-9.0,-478.0,1
77.0,-257.0,-124.0,-20.0,-67.0,-379.0,1
69.0,-242.0,-125.0,-12.0,-135.0,-276.0,1
65.0,-226.0,-126.0,-25.0,-214.0,-174.0,1
54.0,-210.0,-127.0,-53.0,-306.0,-88.0,1
42.0,-197.0,-127.0,-91.0,-410.0,-14.0,1
38.0,-188.0,-128.0,-134.0,-516.0,43.0,1
39.0,-182.0,-127.0,-184.0,-610.0,92.0,1
39.0,-171.0,-105.0,-230.0,-681.0,128.0,1
39.0,-169.0,-109.0,-266.0,-727.0,154.0,1
43.0,-163.0,-106.0,-282.0,-756.0,172.0,1
48.0,-166.0,-101.0,-282.0,-770.0,187.0,1
49.0,-175.0,-99.0,-281.0,-775.0,206.0,1
51.0,-174.0,-103.0,-285.0,-776.0,222.0,1
59.0,-182.0,-114.0,-298.0,-767.0,234.0,1
72.0,-187.0,-126.0,-320.0,-739.0,248.0,1
81.0,-195.0,-132.0,-349.0,-692.0,259.0,1
90.0,-205.0,-144.0,-382.0,-635.0,269.0,1
97.0,-216.0,-148.0,-410.0,-573.0,277.0,1
99.0,-227.0,-153.0,-424.0,-513.0,279.0,1
103.0,-242.0,-161.0,-415.0,-457.0,273.0,1
99.0,-253.0,-152.0,-382.0,-411.0,253.0,1
93.0,-260.0,-146.0,-323.0,-376.0,221.0,1
83.0,-273.0,-145.0,-248.0,-351.0,186.0,1
66.0,-274.0,-136.0,-153.0,-328.0,155.0,1
61.0,-278.0,-128.0,-52.0,-300.0,135.0,1
54.0,-274.0,-124.0,53.0,-270.0,123.0,1
45.0,-273.0,-120.0,152.0,-240.0,122.0,1
43.0,-266.0,-121.0,236.0,-213.0,131.0,1
42.0,-262.0,-119.0,297.0,-193.0,153.0,1
38.0,-253.0,-125.0,331.0,-184.0,185.0,1
35.0,-245.0,-132.0,333.0,-186.0,223.0,1
35.0,-244.0,-130.0,310.0,-199.0,265.0,1
35.0,-237.0,-134.0,270.0,-220.0,311.0,1
40.0,-235.0,-136.0,225.0,-248.0,356.0,1
44.0,-234.0,-142.0,184.0,-276.0,397.0,1
53.0,-232.0,-143.0,152.0,-303.0,432.0,1
56.0,-231.0,-136.0,133.0,-321.0,457.0,1
59.0,-227.0,-135.0,123.0,-334.0,476.0,1
60.0,-230.0,-127.0,124.0,-333.0,487.0,1
61.0,-231.0,-125.0,121.0,-325.0,493.0,1
61.0,-229.0,-118.0,117.0,-312.0,495.0,1
59.0,-232.0,-119.0,103.0,-296.0,500.0,1
54.0,-231.0,-121.0,88.0,-281.0,500.0,1
52.0,-236.0,-115.0,77.0,-262.0,497.0,1
44.0,-233.0,-111.0,74.0,-243.0,491.0,1
40.0,-232.0,-109.0,76.0,-221.0,482.0,1
37.0,-231.0,-114.0,83.0,-196.0,470.0,1
36.0,-229.0,-112.0,93.0,-164.0,454.0,1
34.0,-230.0,-109.0,105.0,-127.0,442.0,1
32.0,-230.0,-110.0,111.0,-92.0,434.0,1
29.0,-231.0,-111.0,102.0,-64.0,434.0,1
30.0,-235.0,-102.0,84.0,-45.0,446.0,1
40.0,-233.0,-102.0,47.0,-40.0,468.0,1
41.0,-235.0,-101.0,22.0,-29.0,486.0,1
40.0,-236.0,-98.0,19.0,-5.0,496.0,1
43.0,-234.0,-98.0,30.0,26.0,498.0,1
45.0,-230.0,-101.0,47.0,61.0,498.0,1
47.0,-229.0,-98.0,63.0,91.0,496.0,1
47.0,-231.0,-96.0,72.0,121.0,491.0,1
51.0,-227.0,-95.0,73.0,151.0,495.0,1
59.0,-225.0,-89.0,63.0,178.0,501.0,1
60.0,-221.0,-93.0,59.0,212.0,491.0,1
56.0,-224.0,-90.0,56.0,255.0,483.0,1
57.0,-222.0,-88.0,46.0,294.0,478.0,1
57.0,-219.0,-88.0,37.0,332.0,465.0,1
55.0,-212.0,-87.0,28.0,367.0,446.0,1
50.0,-212.0,-86.0,13.0,401.0,424.0,1
48.0,-216.0,-87.0,-7.0,432.0,405.0,1
42.0,-213.0,-87.0,-41.0,457.0,389.0,1
33.0,-214.0,-84.0,-74.0,477.0,369.0,1
34.0,-214.0,-83.0,-105.0,491.0,346.0,1
31.0,-222.0,-82.0,-134.0,502.0,321.0,1
24.0,-224.0,-75.0,-160.0,514.0,304.0,1
18.0,-228.0,-76.0,-183.0,521.0,291.0,1
17.0,-234.0,-72.0,-202.0,523.0,280.0,1
15.0,-240.0,-69.0,-210.0,524.0,268.0,1
15.0,-250.0,-66.0,-204.0,523.0,256.0,1
15.0,-256.0,-60.0,-177.0,526.0,240.0,1
14.0,-260.0,-63.0,-134.0,534.0,224.0,1
19.0,-265.0,-64.0,-80.0,550.0,207.0,1
18.0,-271.0,-66.0,-37.0,569.0,193.0,1
18.0,-278.0,-69.0,19.0,593.0,179.0,1
21.0,-288.0,-74.0,75.0,616.0,170.0,1
19.0,-293.0,-79.0,136.0,636.0,163.0,1
25.0,-297.0,-80.0,198.0,654.0,158.0,1
28.0,-298.0,-76.0,263.0,672.0,152.0,1
30.0,-297.0,-79.0,330.0,688.0,149.0,1
33.0,-298.0,-72.0,391.0,703.0,150.0,1
38.0,-295.0,-74.0,440.0,720.0,155.0,1
37.0,-293.0,-63.0,478.0,738.0,168.0,1
41.0,-289.0,-63.0,510.0,752.0,179.0,1
38.0,-288.0,-60.0,542.0,755.0,189.0,1
39.0,-284.0,-56.0,566.0,745.0,196.0,1
33.0,-283.0,-60.0,585.0,730.0,210.0,1
10.0,-282.0,-46.0,582.0,711.0,232.0,1
5.0,-277.0,-62.0,552.0,686.0,259.0,1
-11.0,-275.0,-57.0,499.0,654.0,289.0,1
-21.0,-277.0,-53.0,438.0,616.0,332.0,1
-20.0,-279.0,-44.0,376.0,584.0,377.0,1
-11.0,-280.0,-35.0,322.0,577.0,413.0,1
2.0,-279.0,-19.0,286.0,600.0,443.0,1
26.0,-278.0,-12.0,270.0,643.0,465.0,1
43.0,-270.0,-3.0,265.0,682.0,476.0,1
68.0,-267.0,-9.0,259.0,730.0,469.0,1
92.0,-263.0,-20.0,252.0,780.0,452.0,1
119.0,-264.0,-38.0,242.0,840.0,434.0,1
133.0,-272.0,-70.0,214.0,917.0,429.0,1
140.0,-281.0,-117.0,138.0,1002.0,445.0,1
134.0,-292.0,-157.0,-25.0,1079.0,459.0,1
114.0,-311.0,-189.0,-273.0,1126.0,471.0,1
82.0,-330.0,-193.0,-555.0,1124.0,487.0,1
57.0,-366.0,-183.0,-772.0,1076.0,500.0,1
33.0,-395.0,-165.0,-848.0,1007.0,519.0,1
21.0,-415.0,-151.0,-770.0,941.0,544.0,1
11.0,-421.0,-155.0,-585.0,891.0,595.0,1
1.0,-413.0,-167.0,-378.0,853.0,666.0,1
1.0,-396.0,-186.0,-202.0,822.0,741.0,1
-2.0,-382.0,-199.0,-67.0,797.0,809.0,1
0.0,-356.0,-208.0,46.0,773.0,854.0,1
3.0,-329.0,-215.0,157.0,743.0,900.0,1
14.0,-304.0,-216.0,270.0,710.0,929.0,1
28.0,-282.0,-210.0,386.0,688.0,940.0,1
42.0,-256.0,-206.0,504.0,692.0,932.0,1
62.0,-226.0,-203.0,611.0,736.0,905.0,1
82.0,-198.0,-194.0,698.0,806.0,865.0,1
98.0,-169.0,-188.0,754.0,891.0,814.0,1
114.0,-148.0,-174.0,770.0,978.0,753.0,1
127.0,-129.0,-162.0,744.0,1061.0,683.0,1
134.0,-120.0,-153.0,681.0,1144.0,602.0,1
135.0,-119.0,-146.0,584.0,1230.0,503.0,1
127.0,-120.0,-137.0,462.0,1317.0,394.0,1
113.0,-127.0,-131.0,328.0,1393.0,279.0,1
96.0,-134.0,-129.0,206.0,1453.0,167.0,1
77.0,-149.0,-124.0,114.0,1489.0,59.0,1
67.0,-161.0,-118.0,43.0,1505.0,-34.0,1
54.0,-178.0,-116.0,-17.0,1504.0,-106.0,1
39.0,-190.0,-119.0,-73.0,1493.0,-162.0,1
15.0,-202.0,-121.0,-145.0,1476.0,-216.0,1
-2.0,-217.0,-110.0,-229.0,1459.0,-257.0,1
-27.0,-231.0,-110.0,-316.0,1435.0,-289.0,1
-47.0,-248.0,-110.0,-396.0,1397.0,-313.0,1
-65.0,-260.0,-105.0,-467.0,1343.0,-332.0,1
-83.0,-273.0,-99.0,-524.0,1270.0,-340.0,1
-99.0,-286.0,-96.0,-570.0,1175.0,-333.0,1
-99.0,-292.0,-92.0,-604.0,1062.0,-311.0,1
-86.0,-294.0,-95.0,-610.0,945.0,-288.0,1
-68.0,-294.0,-95.0,-577.0,842.0,-282.0,1
-44.0,-291.0,-99.0,-507.0,764.0,-292.0,1
-23.0,-287.0,-101.0,-416.0,701.0,-314.0,1
1.0,-279.0,-97.0,-326.0,647.0,-340.0,1
14.0,-261.0,-101.0,-244.0,609.0,-360.0,1
27.0,-254.0,-99.0,-175.0,580.0,-371.0,1
36.0,-247.0,-102.0,-122.0,553.0,-377.0,1
43.0,-238.0,-98.0,-95.0,529.0,-383.0,1
48.0,-227.0,-99.0,-92.0,513.0,-388.0,1
58.0,-224.0,-101.0,-104.0,507.0,-393.0,1
57.0,-219.0,-105.0,-124.0,511.0,-396.0,1
61.0,-216.0,-96.0,-149.0,515.0,-397.0,1
60.0,-215.0,-96.0,-178.0,513.0,-396.0,1
58.0,-215.0,-88.0,-198.0,504.0,-393.0,1
61.0,-221.0,-89.0,-206.0,500.0,-394.0,1
61.0,-217.0,-90.0,-197.0,504.0,-398.0,1
53.0,-216.0,-86.0,-178.0,515.0,-411.0,1
54.0,-212.0,-92.0,-161.0,530.0,-422.0,1
51.0,-213.0,-91.0,-158.0,542.0,-436.0,1
45.0,-208.0,-91.0,-170.0,547.0,-444.0,1
49.0,-211.0,-89.0,-191.0,546.0,-447.0,1
48.0,-211.0,-84.0,-210.0,542.0,-447.0,1
42.0,-216.0,-82.0,-229.0,535.0,-437.0,1
40.0,-225.0,-77.0,-251.0,516.0,-422.0,1
40.0,-232.0,-71.0,-260.0,485.0,-413.0,1
35.0,-238.0,-67.0,-257.0,453.0,-395.0,1
31.0,-239.0,-71.0,-240.0,424.0,-383.0,1
27.0,-246.0,-64.0,-207.0,391.0,-362.0,1
26.0,-250.0,-62.0,-169.0,353.0,-348.0,1
25.0,-248.0,-63.0,-129.0,314.0,-340.0,1
19.0,-247.0,-61.0,-92.0,273.0,-336.0,1
18.0,-247.0,-61.0,-62.0,235.0,-337.0,1
20.0,-245.0,-61.0,-42.0,200.0,-339.0,1
14.0,-242.0,-59.0,-33.0,170.0,-341.0,1
14.0,-237.0,-55.0,-34.0,141.0,-343.0,1
23.0,-241.0,-64.0,-40.0,106.0,-340.0,1
19.0,-230.0,-56.0,-56.0,72.0,-335.0,1
24.0,-230.0,-57.0,-75.0,41.0,-332.0,1
23.0,-229.0,-58.0,-92.0,13.0,-326.0,1
21.0,-224.0,-56.0,-104.0,-16.0,-319.0,1
27.0,-228.0,-56.0,-113.0,-47.0,-312.0,1
29.0,-228.0,-53.0,-124.0,-81.0,-305.0,1
29.0,-227.0,-60.0,-130.0,-116.0,-298.0,1
29.0,-229.0,-52.0,-139.0,-151.0,-292.0,1
31.0,-227.0,-58.0,-151.0,-188.0,-284.0,1
31.0,-230.0,-58.0,-159.0,-224.0,-276.0,1
29.0,-238.0,-60.0,-164.0,-260.0,-270.0,1
20.0,-242.0,-63.0,-162.0,-308.0,-262.0,1
14.0,-251.0,-63.0,-154.0,-366.0,-255.0,1
13.0,-257.0,-63.0,-136.0,-431.0,-235.0,1
5.0,-274.0,-62.0,-109.0,-491.0,-209.0,1
10.0,-276.0,-59.0,-71.0,-532.0,-178.0,1
12.0,-282.0,-54.0,-30.0,-557.0,-139.0,1
21.0,-291.0,-56.0,9.0,-569.0,-100.0,1
34.0,-297.0,-55.0,46.0,-565.0,-66.0,1
54.0,-302.0,-55.0,79.0,-543.0,-45.0,1
61.0,-308.0,-42.0,114.0,-507.0,-32.0,1
96.0,-307.0,-57.0,150.0,-457.0,-28.0,1
112.0,-301.0,-64.0,180.0,-399.0,-31.0,1
134.0,-303.0,-71.0,186.0,-341.0,-52.0,1
148.0,-296.0,-67.0,165.0,-292.0,-96.0,1
156.0,-299.0,-61.0,125.0,-263.0,-164.0,1
160.0,-296.0,-45.0,88.0,-261.0,-240.0,1
156.0,-302.0,-27.0,75.0,-276.0,-309.0,1
154.0,-304.0,-14.0,92.0,-281.0,-369.0,1
149.0,-306.0,-4.0,132.0,-254.0,-419.0,1
138.0,-305.0,-9.0,174.0,-186.0,-458.0,1
141.0,-306.0,-20.0,200.0,-90.0,-481.0,1
145.0,-313.0,-47.0,191.0,20.0,-492.0,1
141.0,-320.0,-82.0,133.0,135.0,-501.0,1
127.0,-329.0,-110.0,-8.0,237.0,-519.0,1
101.0,-349.0,-141.0,-231.0,306.0,-542.0,1
85.0,-372.0,-152.0,-494.0,335.0,-559.0,1
78.0,-401.0,-159.0,-724.0,338.0,-571.0,1
77.0,-433.0,-164.0,-880.0,334.0,-592.0,1
80.0,-451.0,-156.0,-949.0,346.0,-640.0,1
91.0,-464.0,-150.0,-923.0,371.0,-702.0,1
105.0,-455.0,-146.0,-800.0,410.0,-756.0,1
128.0,-440.0,-147.0,-584.0,447.0,-784.0,1
136.0,-411.0,-160.0,-316.0,479.0,-788.0,1
129.0,-384.0,-177.0,-60.0,492.0,-777.0,1
115.0,-342.0,-188.0,148.0,475.0,-734.0,1
101.0,-310.0,-200.0,310.0,427.0,-658.0,1
90.0,-275.0,-210.0,430.0,362.0,-560.0,1
80.0,-242.0,-208.0,524.0,301.0,-456.0,1
70.0,-208.0,-199.0,597.0,259.0,-346.0,1
60.0,-178.0,-194.0,652.0,231.0,-234.0,1
45.0,-149.0,-184.0,676.0,203.0,-129.0,1
41.0,-128.0,-175.0,664.0,174.0,-33.0,1
35.0,-114.0,-169.0,599.0,148.0,49.0,1
30.0,-107.0,-156.0,479.0,127.0,112.0,1
24.0,-105.0,-143.0,327.0,104.0,155.0,1
17.0,-112.0,-129.0,162.0,72.0,193.0,1
14.0,-125.0,-122.0,1.0,35.0,232.0,1
13.0,-144.0,-112.0,-144.0,-11.0,271.0,1
20.0,-167.0,-112.0,-269.0,-61.0,312.0,1
27.0,-188.0,-107.0,-370.0,-110.0,352.0,1
34.0,-197.0,-105.0,-435.0,-148.0,384.0,1
36.0,-209.0,-103.0,-460.0,-170.0,407.0,1
45.0,-223.0,-105.0,-437.0,-169.0,415.0,1
50.0,-234.0,-106.0,-380.0,-148.0,433.0,1
61.0,-240.0,-106.0,-309.0,-112.0,445.0,1
67.0,-243.0,-113.0,-235.0,-73.0,451.0,1
77.0,-247.0,-119.0,-161.0,-34.0,454.0,1
79.0,-241.0,-124.0,-89.0,6.0,450.0,1
88.0,-243.0,-128.0,-24.0,51.0,438.0,1
94.0,-243.0,-131.0,31.0,102.0,419.0,1
94.0,-242.0,-133.0,69.0,155.0,398.0,1
95.0,-238.0,-136.0,97.0,197.0,379.0,1
94.0,-235.0,-134.0,106.0,226.0,367.0,1
93.0,-231.0,-134.0,100.0,243.0,364.0,1
89.0,-226.0,-130.0,86.0,253.0,369.0,1
84.0,-221.0,-129.0,76.0,263.0,377.0,1
77.0,-214.0,-127.0,63.0,274.0,387.0,1
65.0,-209.0,-125.0,47.0,283.0,398.0,1
55.0,-209.0,-121.0,21.0,286.0,406.0,1
43.0,-204.0,-118.0,-6.0,286.0,410.0,1
32.0,-204.0,-114.0,-31.0,289.0,416.0,1
26.0,-206.0,-113.0,-62.0,294.0,414.0,1
11.0,-208.0,-112.0,-104.0,302.0,417.0,1
5.0,-212.0,-111.0,-154.0,299.0,421.0,1
1.0,-213.0,-112.0,-198.0,288.0,420.0,1
-2.0,-216.0,-112.0,-230.0,276.0,413.0,1
-7.0,-218.0,-111.0,-251.0,260.0,408.0,1
-8.0,-224.0,-108.0,-265.0,240.0,404.0,1
-11.0,-221.0,-109.0,-274.0,215.0,405.0,1
-11.0,-221.0,-106.0,-273.0,188.0,407.0,1
-9.0,-221.0,-109.0,-266.0,158.0,412.0,1
0.0,-224.0,-110.0,-262.0,128.0,419.0,1
8.0,-223.0,-108.0,-250.0,105.0,419.0,1
12.0,-222.0,-109.0,-229.0,93.0,408.0,1
13.0,-223.0,-106.0,-206.0,89.0,396.0,1
24.0,-224.0,-104.0,-186.0,86.0,383.0,1
27.0,-227.0,-107.0,-184.0,84.0,375.0,1
39.0,-233.0,-107.0,-194.0,80.0,371.0,1
39.0,-232.0,-104.0,-203.0,90.0,360.0,1
32.0,-235.0,-98.0,-201.0,114.0,341.0,1
27.0,-237.0,-93.0,-184.0,140.0,329.0,1
29.0,-238.0,-90.0,-164.0,159.0,315.0,1
29.0,-239.0,-87.0,-142.0,172.0,304.0,1
30.0,-238.0,-91.0,-125.0,183.0,297.0,1
27.0,-241.0,-88.0,-115.0,192.0,290.0,1
26.0,-239.0,-90.0,-112.0,198.0,281.0,1
22.0,-237.0,-84.0,-115.0,199.0,276.0,1
26.0,-239.0,-71.0,-120.0,192.0,270.0,1
26.0,-241.0,-79.0,-118.0,182.0,260.0,1
27.0,-243.0,-73.0,-109.0,177.0,245.0,1
30.0,-245.0,-70.0,-92.0,177.0,228.0,1
34.0,-251.0,-73.0,-73.0,188.0,205.0,1
41.0,-255.0,-72.0,-55.0,205.0,179.0,1
45.0,-257.0,-65.0,-30.0,232.0,146.0,1
47.0,-257.0,-68.0,4.0,258.0,115.0,1
52.0,-262.0,-66.0,44.0,284.0,88.0,1
58.0,-264.0,-70.0,85.0,310.0,61.0,1
45.0,-264.0,-77.0,123.0,336.0,32.0,1
54.0,-273.0,-73.0,155.0,360.0,12.0,1
54.0,-275.0,-76.0,182.0,386.0,-13.0,1
47.0,-275.0,-77.0,204.0,409.0,-32.0,1
43.0,-282.0,-76.0,218.0,427.0,-42.0,1
39.0,-288.0,-79.0,222.0,438.0,-45.0,1
32.0,-288.0,-71.0,224.0,447.0,-41.0,1
36.0,-294.0,-67.0,229.0,464.0,-36.0,1
32.0,-292.0,-58.0,245.0,492.0,-31.0,1
25.0,-301.0,-47.0,273.0,526.0,-23.0,1
12.0,-302.0,-36.0,308.0,555.0,-5.0,1
13.0,-299.0,-48.0,334.0,572.0,24.0,1
5.0,-296.0,-55.0,336.0,582.0,65.0,1
-4.0,-292.0,-61.0,304.0,587.0,120.0,1
-15.0,-289.0,-64.0,250.0,583.0,180.0,1
-25.0,-287.0,-60.0,185.0,562.0,242.0,1
-30.0,-286.0,-53.0,130.0,522.0,303.0,1
-30.0,-287.0,-42.0,98.0,470.0,357.0,1
-23.0,-288.0,-28.0,94.0,421.0,400.0,1
-15.0,-290.0,-17.0,111.0,388.0,432.0,1
-1.0,-286.0,-4.0,142.0,378.0,449.0,1
12.0,-284.0,-3.0,176.0,391.0,456.0,1
37.0,-276.0,-3.0,197.0,425.0,451.0,1
59.0,-272.0,-14.0,201.0,472.0,434.0,1
78.0,-268.0,-33.0,186.0,528.0,409.0,1
96.0,-273.0,-54.0,155.0,601.0,392.0,1
107.0,-282.0,-86.0,94.0,695.0,392.0,1
104.0,-287.0,-130.0,-30.0,786.0,407.0,1
91.0,-308.0,-167.0,-237.0,856.0,422.0,1
67.0,-327.0,-184.0,-490.0,875.0,432.0,1
45.0,-355.0,-175.0,-687.0,832.0,433.0,1
9.0,-378.0,-172.0,-754.0,740.0,432.0,1
-18.0,-387.0,-166.0,-693.0,638.0,440.0,1
-38.0,-385.0,-175.0,-561.0,552.0,468.0,1
-40.0,-383.0,-182.0,-419.0,488.0,526.0,1
-44.0,-372.0,-187.0,-298.0,446.0,611.0,1
-49.0,-361.0,-193.0,-194.0,420.0,707.0,1
-40.0,-338.0,-193.0,-99.0,386.0,797.0,1
-16.0,-315.0,-199.0,-7.0,329.0,866.0,1
20.0,-291.0,-203.0,96.0,265.0,916.0,1
54.0,-270.0,-203.0,209.0,220.0,937.0,1
74.0,-249.0,-199.0,324.0,214.0,924.0,1
89.0,-224.0,-192.0,432.0,235.0,874.0,1
97.0,-196.0,-189.0,528.0,263.0,798.0,1
91.0,-176.0,-191.0,589.0,283.0,718.0,1
99.0,-158.0,-190.0,599.0,298.0,633.0,1
106.0,-143.0,-191.0,556.0,325.0,546.0,1
107.0,-135.0,-181.0,467.0,368.0,462.0,1
114.0,-134.0,-173.0,354.0,420.0,376.0,1
116.0,-140.0,-150.0,231.0,476.0,287.0,1
116.0,-147.0,-130.0,123.0,531.0,200.0,1
111.0,-162.0,-119.0,37.0,579.0,119.0,1
106.0,-177.0,-113.0,-24.0,617.0,51.0,1
101.0,-190.0,-107.0,-72.0,645.0,-11.0,1
97.0,-201.0,-110.0,-113.0,660.0,-71.0,1
76.0,-212.0,-117.0,-152.0,668.0,-126.0,1
65.0,-222.0,-122.0,-197.0,671.0,-180.0,1
48.0,-229.0,-119.0,-246.0,666.0,-231.0,1
28.0,-239.0,-129.0,-296.0,653.0,-276.0,1
3.0,-247.0,-122.0,-339.0,631.0,-317.0,1
-19.0,-255.0,-117.0,-375.0,598.0,-353.0,1
-39.0,-266.0,-114.0,-399.0,549.0,-384.0,1
-59.0,-271.0,-109.0,-419.0,481.0,-405.0,1
-69.0,-273.0,-102.0,-432.0,392.0,-411.0,1
-82.0,-275.0,-100.0,-437.0,288.0,-407.0,1
-80.0,-279.0,-97.0,-428.0,182.0,-397.0,1
-78.0,-273.0,-91.0,-403.0,81.0,-387.0,1
-67.0,-271.0,-87.0,-360.0,-15.0,-380.0,1
-48.0,-262.0,-89.0,-297.0,-101.0,-384.0,1
-32.0,-258.0,-87.0,-216.0,-177.0,-402.0,1
-11.0,-251.0,-86.0,-123.0,-237.0,-438.0,1
2.0,-244.0,-89.0,-32.0,-280.0,-474.0,1
13.0,-235.0,-86.0,39.0,-315.0,-506.0,1
27.0,-232.0,-85.0,76.0,-349.0,-535.0,1
36.0,-226.0,-88.0,82.0,-383.0,-558.0,1
44.0,-221.0,-88.0,64.0,-411.0,-575.0,1
53.0,-216.0,-89.0,30.0,-428.0,-579.0,1
62.0,-217.0,-92.0,-14.0,-435.0,-576.0,1
69.0,-222.0,-95.0,-64.0,-431.0,-570.0,1
74.0,-220.0,-96.0,-115.0,-418.0,-561.0,1
77.0,-219.0,-91.0,-155.0,-403.0,-548.0,1
78.0,-217.0,-91.0,-167.0,-386.0,-552.0,1
78.0,-218.0,-89.0,-157.0,-363.0,-560.0,1
75.0,-216.0,-87.0,-144.0,-340.0,-561.0,1
75.0,-214.0,-90.0,-133.0,-321.0,-561.0,1
80.0,-218.0,-84.0,-129.0,-297.0,-556.0,1
73.0,-219.0,-83.0,-136.0,-272.0,-554.0,1
72.0,-220.0,-76.0,-143.0,-246.0,-550.0,1
67.0,-220.0,-73.0,-140.0,-228.0,-533.0,1
66.0,-225.0,-70.0,-133.0,-218.0,-508.0,1
64.0,-227.0,-71.0,-121.0,-209.0,-487.0,1
58.0,-226.0,-71.0,-104.0,-196.0,-473.0,1
58.0,-228.0,-71.0,-83.0,-183.0,-458.0,1
57.0,-226.0,-71.0,-62.0,-171.0,-440.0,1
50.0,-229.0,-69.0,-43.0,-165.0,-414.0,1
50.0,-228.0,-68.0,-21.0,-169.0,-382.0,1
50.0,-227.0,-69.0,1.0,-176.0,-357.0,1
50.0,-224.0,-64.0,20.0,-179.0,-339.0,1
56.0,-227.0,-64.0,36.0,-177.0,-332.0,1
53.0,-222.0,-65.0,56.0,-170.0,-325.0,1
47.0,-220.0,-64.0,74.0,-166.0,-311.0,1
44.0,-222.0,-63.0,77.0,-169.0,-291.0,1
45.0,-223.0,-60.0,61.0,-184.0,-263.0,1
39.0,-225.0,-64.0,38.0,-207.0,-240.0,1
36.0,-226.0,-66.0,16.0,-240.0,-213.0,1
33.0,-227.0,-65.0,-2.0,-274.0,-189.0,1
27.0,-233.0,-66.0,-13.0,-308.0,-163.0,1
30.0,-243.0,-73.0,-14.0,-339.0,-138.0,1
26.0,-242.0,-66.0,-9.0,-370.0,-114.0,1
23.0,-244.0,-66.0,-1.0,-400.0,-90.0,1
22.0,-250.0,-65.0,12.0,-433.0,-64.0,1
24.0,-256.0,-61.0,25.0,-461.0,-38.0,1
27.0,-258.0,-63.0,47.0,-484.0,-14.0,1
31.0,-270.0,-60.0,73.0,-500.0,9.0,1
41.0,-279.0,-56.0,106.0,-509.0,32.0,1
56.0,-285.0,-53.0,147.0,-504.0,50.0,1
66.0,-290.0,-54.0,194.0,-487.0,65.0,1
78.0,-293.0,-61.0,235.0,-461.0,75.0,1
89.0,-292.0,-74.0,259.0,-433.0,81.0,1
104.0,-295.0,-72.0,260.0,-402.0,78.0,1
117.0,-295.0,-79.0,239.0,-369.0,61.0,1
123.0,-299.0,-78.0,202.0,-333.0,28.0,1
128.0,-298.0,-69.0,158.0,-291.0,-24.0,1
132.0,-303.0,-57.0,129.0,-253.0,-88.0,1
131.0,-304.0,-35.0,137.0,-227.0,-155.0,1
128.0,-309.0,-19.0,170.0,-211.0,-212.0,1
116.0,-304.0,-4.0,219.0,-208.0,-256.0,1
104.0,-302.0,2.0,270.0,-207.0,-286.0,1
88.0,-297.0,6.0,307.0,-201.0,-301.0,1
74.0,-296.0,12.0,321.0,-192.0,-305.0,1
64.0,-289.0,12.0,313.0,-182.0,-300.0,1
57.0,-289.0,8.0,284.0,-182.0,-285.0,1
48.0,-287.0,-3.0,236.0,-188.0,-268.0,1
53.0,-288.0,-29.0,159.0,-199.0,-253.0,1
58.0,-293.0,-58.0,41.0,-207.0,-245.0,1
64.0,-311.0,-104.0,-142.0,-211.0,-248.0,1
62.0,-335.0,-134.0,-400.0,-221.0,-267.0,1
60.0,-359.0,-155.0,-694.0,-236.0,-302.0,1
61.0,-389.0,-166.0,-946.0,-249.0,-346.0,1
66.0,-418.0,-170.0,-1104.0,-250.0,-405.0,1
84.0,-439.0,-169.0,-1154.0,-239.0,-475.0,1
108.0,-442.0,-174.0,-1088.0,-217.0,-549.0,1
120.0,-432.0,-184.0,-926.0,-187.0,-608.0,1
136.0,-416.0,-192.0,-715.0,-163.0,-649.0,1
142.0,-394.0,-208.0,-502.0,-149.0,-674.0,1
129.0,-367.0,-224.0,-310.0,-143.0,-683.0,1
112.0,-334.0,-234.0,-148.0,-153.0,-657.0,1
102.0,-309.0,-239.0,-7.0,-175.0,-601.0,1
93.0,-274.0,-235.0,135.0,-191.0,-530.0,1
86.0,-250.0,-227.0,278.0,-183.0,-450.0,1
82.0,-218.0,-222.0,418.0,-162.0,-383.0,1
82.0,-189.0,-211.0,546.0,-140.0,-333.0,1
72.0,-155.0,-202.0,649.0,-122.0,-303.0,1
64.0,-126.0,-200.0,722.0,-107.0,-285.0,1
45.0,-96.0,-192.0,753.0,-96.0,-278.0,1
29.0,-76.0,-182.0,735.0,-96.0,-269.0,1
14.0,-65.0,-173.0,652.0,-111.0,-246.0,1
0.0,-67.0,-154.0,497.0,-142.0,-206.0,1
-10.0,-81.0,-144.0,286.0,-188.0,-147.0,1
-13.0,-105.0,-128.0,47.0,-243.0,-68.0,1
-4.0,-132.0,-105.0,-193.0,-298.0,17.0,1
2.0,-166.0,-87.0,-394.0,-339.0,96.0,1
8.0,-197.0,-77.0,-529.0,-360.0,170.0,1
19.0,-232.0,-66.0,-599.0,-353.0,248.0,1
32.0,-252.0,-67.0,-613.0,-320.0,321.0,1
43.0,-263.0,-72.0,-584.0,-265.0,382.0,1
58.0,-272.0,-83.0,-527.0,-191.0,432.0,1
69.0,-276.0,-96.0,-460.0,-111.0,462.0,1
85.0,-280.0,-109.0,-407.0,-42.0,479.0,1
100.0,-284.0,-119.0,-383.0,8.0,492.0,1
108.0,-279.0,-120.0,-377.0,42.0,496.0,1
119.0,-281.0,-124.0,-388.0,73.0,505.0,1
129.0,-280.0,-126.0,-392.0,110.0,529.0,1
144.0,-274.0,-126.0,-368.0,155.0,562.0,1
154.0,-264.0,-124.0,-313.0,211.0,592.0,1
155.0,-252.0,-128.0,-235.0,280.0,615.0,1
146.0,-239.0,-127.0,-162.0,361.0,635.0,1
130.0,-227.0,-128.0,-122.0,443.0,654.0,1
113.0,-213.0,-127.0,-120.0,512.0,669.0,1
99.0,-210.0,-126.0,-138.0,565.0,681.0,1
87.0,-205.0,-126.0,-163.0,610.0,690.0,1
75.0,-203.0,-121.0,-193.0,649.0,701.0,1
68.0,-204.0,-119.0,-223.0,694.0,711.0,1
56.0,-201.0,-120.0,-251.0,748.0,715.0,1
47.0,-211.0,-114.0,-267.0,808.0,715.0,1
36.0,-203.0,-115.0,-264.0,866.0,704.0,1
22.0,-199.0,-111.0,-256.0,914.0,688.0,1
11.0,-201.0,-109.0,-243.0,946.0,679.0,1
1.0,-205.0,-116.0,-233.0,960.0,673.0,1
-6.0,-207.0,-108.0,-238.0,956.0,672.0,1
-7.0,-215.0,-101.0,-256.0,933.0,672.0,1
-13.0,-220.0,-101.0,-276.0,901.0,667.0,1
-13.0,-222.0,-99.0,-295.0,864.0,663.0,1
-7.0,-230.0,-100.0,-302.0,826.0,655.0,1
-6.0,-234.0,-95.0,-298.0,785.0,639.0,1
-2.0,-237.0,-96.0,-270.0,754.0,616.0,1
0.0,-240.0,-96.0,-230.0,732.0,585.0,1
2.0,-244.0,-93.0,-190.0,722.0,549.0,1
9.0,-247.0,-92.0,-160.0,714.0,512.0,1
16.0,-249.0,-86.0,-139.0,702.0,480.0,1
20.0,-251.0,-86.0,-121.0,687.0,445.0,1
21.0,-247.0,-83.0,-100.0,678.0,410.0,1
21.0,-247.0,-77.0,-74.0,678.0,383.0,1
23.0,-241.0,-72.0,-46.0,680.0,358.0,1
27.0,-232.0,-87.0,-18.0,679.0,345.0,1
30.0,-227.0,-72.0,1.0,675.0,332.0,1
35.0,-223.0,-72.0,7.0,669.0,319.0,1
36.0,-218.0,-73.0,-1.0,657.0,306.0,1
38.0,-216.0,-71.0,-20.0,642.0,289.0,1
37.0,-217.0,-68.0,-43.0,627.0,270.0,1
37.0,-212.0,-65.0,-69.0,613.0,252.0,1
36.0,-212.0,-63.0,-93.0,602.0,234.0,1
36.0,-212.0,-64.0,-117.0,594.0,220.0,1
36.0,-217.0,-64.0,-138.0,588.0,208.0,1
36.0,-224.0,-56.0,-158.0,582.0,196.0,1
31.0,-231.0,-47.0,-168.0,577.0,182.0,1
39.0,-243.0,-54.0,-161.0,575.0,164.0,1
42.0,-252.0,-50.0,-139.0,578.0,146.0,1
39.0,-257.0,-56.0,-102.0,588.0,128.0,1
36.0,-269.0,-55.0,-57.0,604.0,112.0,1
33.0,-276.0,-51.0,-8.0,619.0,100.0,1
30.0,-284.0,-52.0,40.0,631.0,93.0,1
30.0,-292.0,-49.0,83.0,644.0,89.0,1
29.0,-296.0,-53.0,120.0,656.0,90.0,1
28.0,-303.0,-48.0,162.0,665.0,98.0,1
26.0,-303.0,-55.0,210.0,671.0,111.0,1
28.0,-310.0,-53.0,268.0,671.0,133.0,1
21.0,-310.0,-58.0,319.0,662.0,163.0,1
27.0,-304.0,-64.0,347.0,647.0,212.0,1
17.0,-308.0,-76.0,345.0,631.0,259.0,1
11.0,-306.0,-82.0,309.0,612.0,306.0,1
13.0,-304.0,-84.0,258.0,589.0,358.0,1
14.0,-309.0,-80.0,208.0,567.0,407.0,1
19.0,-308.0,-73.0,175.0,558.0,446.0,1
30.0,-310.0,-61.0,172.0,570.0,468.0,1
42.0,-308.0,-44.0,203.0,598.0,478.0,1
63.0,-304.0,-30.0,257.0,633.0,477.0,1
79.0,-299.0,-32.0,332.0,671.0,458.0,1
100.0,-305.0,-40.0,400.0,716.0,439.0,1
123.0,-309.0,-61.0,416.0,774.0,447.0,1
131.0,-315.0,-90.0,351.0,837.0,471.0,1
132.0,-328.0,-128.0,183.0,900.0,499.0,1
128.0,-341.0,-162.0,-78.0,950.0,528.0,1
104.0,-365.0,-186.0,-405.0,964.0,545.0,1
57.0,-387.0,-193.0,-723.0,924.0,556.0,1
-4.0,-410.0,-195.0,-955.0,821.0,592.0,1
-47.0,-435.0,-193.0,-1061.0,665.0,684.0,1
-58.0,-447.0,-191.0,-1034.0,473.0,794.0,1
-61.0,-444.0,-191.0,-890.0,296.0,872.0,1
-61.0,-429.0,-202.0,-676.0,180.0,950.0,1
-47.0,-411.0,-212.0,-467.0,129.0,1022.0,1
-35.0,-375.0,-231.0,-277.0,132.0,1076.0,1
-22.0,-336.0,-240.0,-101.0,165.0,1105.0,1
3.0,-296.0,-241.0,72.0,200.0,1121.0,1
32.0,-266.0,-235.0,254.0,240.0,1104.0,1
64.0,-236.0,-228.0,436.0,300.0,1035.0,1
94.0,-209.0,-211.0,609.0,399.0,923.0,1
110.0,-183.0,-192.0,765.0,529.0,772.0,1
125.0,-158.0,-181.0,883.0,665.0,598.0,1
127.0,-138.0,-169.0,931.0,782.0,420.0,1
128.0,-127.0,-155.0,894.0,873.0,248.0,1
118.0,-118.0,-151.0,787.0,937.0,89.0,1
113.0,-119.0,-140.0,631.0,980.0,-47.0,1
108.0,-128.0,-129.0,445.0,1008.0,-159.0,1
95.0,-137.0,-116.0,269.0,1029.0,-256.0,1
79.0,-160.0,-107.0,113.0,1052.0,-344.0,1
63.0,-183.0,-96.0,-13.0,1083.0,-412.0,1
41.0,-201.0,-92.0,-104.0,1111.0,-463.0,1
14.0,-220.0,-92.0,-153.0,1127.0,-495.0,1
-2.0,-231.0,-90.0,-178.0,1124.0,-503.0,1
-28.0,-238.0,-92.0,-185.0,1103.0,-492.0,1
-40.0,-241.0,-98.0,-187.0,1066.0,-464.0,1
-56.0,-241.0,-104.0,-188.0,1016.0,-430.0,1
-64.0,-239.0,-107.0,-197.0,951.0,-401.0,1
-74.0,-235.0,-112.0,-223.0,877.0,-372.0,1
-79.0,-234.0,-112.0,-251.0,795.0,-339.0,1
-82.0,-226.0,-116.0,-276.0,712.0,-307.0,1
-73.0,-223.0,-119.0,-301.0,619.0,-287.0,1
-64.0,-222.0,-118.0,-324.0,521.0,-281.0,1
-49.0,-221.0,-116.0,-343.0,428.0,-285.0,1
-35.0,-216.0,-112.0,-345.0,334.0,-302.0,1
-12.0,-213.0,-103.0,-326.0,241.0,-334.0,1
9.0,-212.0,-98.0,-293.0,155.0,-376.0,1
26.0,-208.0,-99.0,-254.0,89.0,-417.0,1
47.0,-211.0,-103.0,-219.0,45.0,-454.0,1
59.0,-209.0,-101.0,-190.0,23.0,-484.0,1
71.0,-209.0,-101.0,-167.0,13.0,-504.0,1
81.0,-208.0,-101.0,-150.0,15.0,-516.0,1
88.0,-206.0,-100.0,-139.0,27.0,-518.0,1
97.0,-207.0,-96.0,-126.0,62.0,-515.0,1
101.0,-205.0,-96.0,-115.0,113.0,-514.0,1
95.0,-204.0,-94.0,-103.0,163.0,-508.0,1
97.0,-210.0,-89.0,-94.0,208.0,-495.0,1
84.0,-197.0,-85.0,-89.0,243.0,-477.0,1
79.0,-194.0,-90.0,-83.0,263.0,-465.0,1
73.0,-194.0,-95.0,-77.0,267.0,-455.0,1
68.0,-192.0,-96.0,-65.0,264.0,-444.0,1
62.0,-195.0,-96.0,-56.0,260.0,-438.0,1
54.0,-192.0,-94.0,-52.0,258.0,-428.0,1
50.0,-197.0,-92.0,-61.0,258.0,-412.0,1
40.0,-198.0,-87.0,-82.0,261.0,-395.0,1
36.0,-206.0,-85.0,-113.0,260.0,-366.0,1
30.0,-213.0,-78.0,-145.0,253.0,-336.0,1
26.0,-219.0,-72.0,-162.0,240.0,-318.0,1
21.0,-223.0,-71.0,-164.0,225.0,-302.0,1
19.0,-228.0,-70.0,-157.0,207.0,-282.0,1
16.0,-229.0,-65.0,-147.0,181.0,-263.0,1
17.0,-234.0,-65.0,-134.0,148.0,-244.0,1
21.0,-237.0,-65.0,-126.0,114.0,-231.0,1
23.0,-234.0,-65.0,-123.0,89.0,-223.0,1
26.0,-235.0,-64.0,-122.0,74.0,-224.0,1
28.0,-239.0,-60.0,-122.0,66.0,-224.0,1
28.0,-236.0,-61.0,-124.0,57.0,-225.0,1
32.0,-231.0,-73.0,-126.0,44.0,-228.0,1
34.0,-239.0,-61.0,-131.0,27.0,-230.0,1
32.0,-237.0,-61.0,-136.0,3.0,-226.0,1
30.0,-243.0,-64.0,-134.0,-28.0,-220.0,1
32.0,-246.0,-66.0,-133.0,-69.0,-205.0,1
25.0,-247.0,-69.0,-124.0,-116.0,-188.0,1
23.0,-252.0,-69.0,-98.0,-167.0,-165.0,1
19.0,-256.0,-71.0,-63.0,-230.0,-133.0,1
25.0,-262.0,-66.0,-23.0,-296.0,-109.0,1
30.0,-275.0,-65.0,13.0,-362.0,-87.0,1
35.0,-284.0,-62.0,38.0,-423.0,-62.0,1
38.0,-294.0,-55.0,50.0,-470.0,-46.0,1
50.0,-301.0,-59.0,54.0,-500.0,-38.0,1
55.0,-311.0,-56.0,57.0,-505.0,-34.0,1
69.0,-316.0,-58.0,66.0,-485.0,-29.0,1
83.0,-319.0,-65.0,84.0,-445.0,-25.0,1
96.0,-318.0,-77.0,98.0,-394.0,-27.0,1
106.0,-312.0,-81.0,98.0,-338.0,-49.0,1
121.0,-312.0,-82.0,78.0,-287.0,-89.0,1
131.0,-319.0,-74.0,52.0,-241.0,-148.0,1
140.0,-321.0,-53.0,34.0,-193.0,-220.0,1
151.0,-329.0,-29.0,43.0,-145.0,-297.0,1
144.0,-338.0,-2.0,89.0,-111.0,-371.0,1
134.0,-342.0,16.0,162.0,-106.0,-440.0,1
118.0,-344.0,23.0,230.0,-122.0,-488.0,1
100.0,-335.0,26.0,309.0,-133.0,-514.0,1
83.0,-327.0,20.0,374.0,-123.0,-516.0,1
70.0,-320.0,3.0,408.0,-89.0,-505.0,1
63.0,-315.0,-25.0,408.0,-39.0,-481.0,1
55.0,-314.0,-63.0,356.0,3.0,-450.0,1
50.0,-319.0,-115.0,228.0,17.0,-420.0,1
32.0,-322.0,-168.0,3.0,-4.0,-401.0,1
13.0,-335.0,-212.0,-329.0,-57.0,-393.0,1
8.0,-365.0,-238.0,-722.0,-131.0,-392.0,1
17.0,-399.0,-239.0,-1065.0,-205.0,-405.0,1
45.0,-431.0,-231.0,-1255.0,-256.0,-448.0,1
78.0,-446.0,-226.0,-1249.0,-264.0,-532.0,1
106.0,-442.0,-228.0,-1077.0,-247.0,-633.0,1
121.0,-428.0,-234.0,-827.0,-233.0,-740.0,1
126.0,-399.0,-239.0,-560.0,-226.0,-841.0,1
118.0,-367.0,-244.0,-316.0,-218.0,-910.0,1
100.0,-332.0,-248.0,-95.0,-205.0,-944.0,1
92.0,-296.0,-248.0,115.0,-184.0,-940.0,1
89.0,-260.0,-237.0,308.0,-145.0,-912.0,1
85.0,-220.0,-229.0,493.0,-89.0,-873.0,1
78.0,-188.0,-217.0,669.0,-28.0,-828.0,1
73.0,-159.0,-205.0,825.0,22.0,-777.0,1
52.0,-132.0,-193.0,930.0,46.0,-717.0,1
24.0,-114.0,-188.0,960.0,39.0,-638.0,1
1.0,-107.0,-171.0,903.0,1.0,-536.0,1
-22.0,-107.0,-156.0,767.0,-62.0,-419.0,1
-39.0,-115.0,-135.0,590.0,-141.0,-297.0,1
-47.0,-130.0,-116.0,407.0,-229.0,-172.0,1
-49.0,-152.0,-100.0,240.0,-297.0,-47.0,1
-47.0,-177.0,-85.0,111.0,-370.0,77.0,1
-39.0,-190.0,-80.0,33.0,-425.0,187.0,1
-26.0,-207.0,-77.0,3.0,-461.0,281.0,1
-5.0,-218.0,-80.0,-3.0,-485.0,364.0,1
15.0,-221.0,-96.0,-1.0,-499.0,436.0,1
36.0,-224.0,-102.0,4.0,-499.0,495.0,1
60.0,-222.0,-117.0,-5.0,-485.0,541.0,1
82.0,-216.0,-128.0,-34.0,-463.0,579.0,1
107.0,-212.0,-132.0,-87.0,-437.0,601.0,1
128.0,-211.0,-145.0,-156.0,-404.0,605.0,1
144.0,-215.0,-146.0,-239.0,-361.0,603.0,1
157.0,-214.0,-155.0,-318.0,-311.0,595.0,1
172.0,-219.0,-136.0,-377.0,-256.0,571.0,1
183.0,-218.0,-129.0,-398.0,-197.0,541.0,1
191.0,-220.0,-128.0,-381.0,-125.0,513.0,1
180.0,-215.0,-127.0,-342.0,-33.0,495.0,1
168.0,-208.0,-127.0,-305.0,71.0,477.0,1
147.0,-201.0,-122.0,-286.0,173.0,465.0,1
122.0,-201.0,-122.0,-280.0,260.0,456.0,1
98.0,-199.0,-114.0,-296.0,332.0,454.0,1
71.0,-205.0,-108.0,-316.0,395.0,451.0,1
44.0,-211.0,-105.0,-330.0,453.0,445.0,1
23.0,-214.0,-106.0,-337.0,500.0,446.0,1
2.0,-221.0,-105.0,-343.0,537.0,456.0,1
-21.0,-228.0,-101.0,-355.0,557.0,472.0,1
-37.0,-223.0,-98.0,-357.0,556.0,486.0,1
-45.0,-225.0,-99.0,-326.0,548.0,504.0,1
-43.0,-223.0,-96.0,-264.0,537.0,527.0,1
-40.0,-213.0,-99.0,-192.0,523.0,553.0,1
-36.0,-207.0,-101.0,-125.0,507.0,588.0,1
-30.0,-203.0,-97.0,-94.0,474.0,622.0,1
-18.0,-202.0,-105.0,-95.0,433.0,644.0,1
-2.0,-204.0,-103.0,-116.0,403.0,640.0,1
4.0,-203.0,-100.0,-151.0,384.0,616.0,1
5.0,-209.0,-103.0,-201.0,363.0,585.0,1
8.0,-213.0,-96.0,-251.0,342.0,551.0,1
27.0,-220.0,-99.0,-276.0,329.0,518.0,1
33.0,-226.0,-95.0,-273.0,326.0,483.0,1
38.0,-228.0,-99.0,-244.0,327.0,454.0,1
42.0,-232.0,-99.0,-201.0,325.0,425.0,1
48.0,-231.0,-97.0,-150.0,330.0,393.0,1
47.0,-228.0,-95.0,-101.0,335.0,365.0,1
42.0,-225.0,-93.0,-62.0,339.0,339.0,1
51.0,-213.0,-97.0,-35.0,338.0,309.0,1
42.0,-221.0,-93.0,-14.0,334.0,279.0,1
32.0,-218.0,-79.0,1.0,329.0,251.0,1
25.0,-220.0,-76.0,12.0,318.0,227.0,1
16.0,-218.0,-75.0,18.0,307.0,208.0,1
18.0,-225.0,-68.0,19.0,299.0,189.0,1
14.0,-226.0,-64.0,20.0,296.0,175.0,1
17.0,-230.0,-64.0,26.0,300.0,164.0,1
18.0,-236.0,-62.0,36.0,311.0,152.0,1
22.0,-242.0,-59.0,42.0,327.0,139.0,1
25.0,-249.0,-60.0,46.0,343.0,125.0,1
30.0,-246.0,-67.0,58.0,357.0,103.0,1
33.0,-262.0,-63.0,71.0,367.0,74.0,1
42.0,-267.0,-65.0,89.0,378.0,53.0,1
44.0,-272.0,-70.0,109.0,397.0,33.0,1
45.0,-285.0,-72.0,123.0,421.0,15.0,1
46.0,-291.0,-71.0,140.0,451.0,-3.0,1
46.0,-299.0,-75.0,153.0,483.0,-12.0,1
46.0,-305.0,-64.0,177.0,510.0,-11.0,1
43.0,-305.0,-56.0,215.0,529.0,0.0,1
38.0,-306.0,-47.0,277.0,541.0,19.0,1
38.0,-311.0,-34.0,355.0,548.0,46.0,1
33.0,-312.0,-34.0,434.0,548.0,77.0,1
18.0,-309.0,-37.0,495.0,532.0,119.0,1
1.0,-306.0,-52.0,507.0,506.0,163.0,1
-25.0,-301.0,-62.0,465.0,473.0,205.0,1
-43.0,-309.0,-63.0,372.0,433.0,256.0,1
-60.0,-314.0,-61.0,251.0,394.0,317.0,1
-58.0,-321.0,-44.0,141.0,365.0,386.0,1
-45.0,-327.0,-26.0,79.0,346.0,446.0,1
-24.0,-328.0,-10.0,80.0,337.0,487.0,1
8.0,-329.0,-5.0,121.0,338.0,513.0,1
40.0,-329.0,-14.0,177.0,356.0,524.0,1
68.0,-336.0,-29.0,234.0,399.0,528.0,1
93.0,-336.0,-66.0,271.0,457.0,528.0,1
99.0,-336.0,-117.0,241.0,523.0,530.0,1
97.0,-341.0,-170.0,106.0,577.0,548.0,1
77.0,-358.0,-211.0,-150.0,609.0,587.0,1
53.0,-381.0,-223.0,-470.0,616.0,626.0,1
19.0,-412.0,-215.0,-730.0,585.0,665.0,1
-6.0,-436.0,-211.0,-834.0,495.0,714.0,1
-32.0,-449.0,-208.0,-785.0,356.0,770.0,1
-46.0,-448.0,-205.0,-632.0,208.0,840.0,1
-43.0,-433.0,-204.0,-427.0,71.0,924.0,1
-31.0,-406.0,-203.0,-202.0,-43.0,1006.0,1
-13.0,-369.0,-207.0,19.0,-126.0,1071.0,1
4.0,-329.0,-219.0,226.0,-169.0,1114.0,1
20.0,-290.0,-226.0,412.0,-180.0,1113.0,1
36.0,-252.0,-230.0,565.0,-153.0,1074.0,1
52.0,-215.0,-212.0,687.0,-107.0,1004.0,1
61.0,-185.0,-204.0,797.0,-51.0,906.0,1
74.0,-159.0,-193.0,886.0,10.0,795.0,1
89.0,-145.0,-186.0,938.0,84.0,677.0,1
100.0,-136.0,-179.0,931.0,166.0,551.0,1
101.0,-127.0,-171.0,856.0,255.0,421.0,1
108.0,-120.0,-159.0,728.0,334.0,298.0,1
115.0,-129.0,-143.0,572.0,394.0,181.0,1
121.0,-136.0,-124.0,409.0,434.0,70.0,1
117.0,-154.0,-109.0,268.0,469.0,-24.0,1
110.0,-172.0,-104.0,148.0,511.0,-105.0,1
99.0,-192.0,-98.0,52.0,552.0,-178.0,1
86.0,-210.0,-106.0,-31.0,584.0,-241.0,1
73.0,-220.0,-111.0,-112.0,594.0,-305.0,1
52.0,-229.0,-116.0,-185.0,585.0,-367.0,1
25.0,-234.0,-118.0,-250.0,564.0,-425.0,1
-1.0,-233.0,-116.0,-301.0,533.0,-478.0,1
-24.0,-241.0,-106.0,-342.0,493.0,-526.0,1
-49.0,-247.0,-108.0,-386.0,442.0,-557.0,1
-65.0,-249.0,-100.0,-426.0,381.0,-573.0,1
-83.0,-247.0,-92.0,-451.0,304.0,-583.0,1
-95.0,-245.0,-93.0,-456.0,222.0,-581.0,1
-105.0,-246.0,-88.0,-440.0,143.0,-572.0,1
-100.0,-239.0,-83.0,-401.0,62.0,-561.0,1
-99.0,-233.0,-83.0,-340.0,-23.0,-554.0,1
-86.0,-225.0,-87.0,-271.0,-115.0,-555.0,1
-69.0,-221.0,-81.0,-207.0,-210.0,-571.0,1
-53.0,-215.0,-92.0,-152.0,-305.0,-600.0,1
-26.0,-213.0,-84.0,-108.0,-392.0,-638.0,1
0.0,-214.0,-82.0,-79.0,-460.0,-679.0,1
19.0,-211.0,-82.0,-58.0,-507.0,-708.0,1
39.0,-213.0,-84.0,-51.0,-539.0,-727.0,1
63.0,-211.0,-91.0,-61.0,-554.0,-738.0,1
74.0,-211.0,-97.0,-89.0,-552.0,-743.0,1
87.0,-213.0,-94.0,-129.0,-530.0,-747.0,1
95.0,-215.0,-94.0,-169.0,-496.0,-745.0,1
95.0,-218.0,-87.0,-199.0,-457.0,-729.0,1
96.0,-217.0,-82.0,-216.0,-426.0,-713.0,1
91.0,-218.0,-81.0,-216.0,-401.0,-700.0,1
88.0,-215.0,-75.0,-195.0,-377.0,-687.0,1
84.0,-216.0,-78.0,-165.0,-353.0,-677.0,1
73.0,-212.0,-78.0,-139.0,-330.0,-665.0,1
68.0,-211.0,-70.0,-112.0,-313.0,-640.0,1
66.0,-211.0,-67.0,-81.0,-309.0,-603.0,1
56.0,-208.0,-68.0,-57.0,-312.0,-565.0,1
52.0,-210.0,-74.0,-38.0,-314.0,-537.0,1
47.0,-213.0,-69.0,-24.0,-313.0,-507.0,1
41.0,-207.0,-73.0,-16.0,-312.0,-472.0,1
32.0,-207.0,-73.0,-8.0,-317.0,-437.0,1
26.0,-211.0,-72.0,-4.0,-329.0,-404.0,1
27.0,-208.0,-68.0,-4.0,-345.0,-372.0,1
23.0,-205.0,-69.0,-8.0,-359.0,-346.0,1
27.0,-204.0,-68.0,-13.0,-371.0,-323.0,1
29.0,-207.0,-64.0,-19.0,-378.0,-306.0,1
29.0,-208.0,-64.0,-29.0,-383.0,-292.0,1
31.0,-214.0,-56.0,-44.0,-391.0,-278.0,1
31.0,-220.0,-59.0,-60.0,-405.0,-264.0,1
30.0,-223.0,-57.0,-74.0,-427.0,-244.0,1
33.0,-229.0,-57.0,-84.0,-450.0,-223.0,1
30.0,-222.0,-73.0,-86.0,-474.0,-202.0,1
34.0,-238.0,-58.0,-80.0,-493.0,-182.0,1
34.0,-246.0,-61.0,-75.0,-512.0,-164.0,1
37.0,-256.0,-62.0,-64.0,-535.0,-143.0,1
42.0,-265.0,-62.0,-52.0,-559.0,-130.0,1
46.0,-275.0,-62.0,-39.0,-582.0,-117.0,1
43.0,-282.0,-63.0,-24.0,-603.0,-105.0,1
49.0,-294.0,-61.0,1.0,-622.0,-94.0,1
50.0,-300.0,-61.0,36.0,-633.0,-76.0,1
63.0,-307.0,-62.0,82.0,-625.0,-54.0,1
76.0,-310.0,-64.0,136.0,-594.0,-32.0,1
90.0,-309.0,-58.0,189.0,-540.0,-13.0,1
99.0,-307.0,-67.0,239.0,-475.0,3.0,1
113.0,-304.0,-74.0,281.0,-402.0,11.0,1
127.0,-305.0,-75.0,310.0,-323.0,5.0,1
138.0,-304.0,-68.0,323.0,-243.0,-27.0,1
154.0,-307.0,-57.0,323.0,-174.0,-85.0,1
162.0,-311.0,-36.0,325.0,-118.0,-157.0,1
157.0,-314.0,-12.0,333.0,-79.0,-234.0,1
139.0,-318.0,0.0,339.0,-54.0,-306.0,1
118.0,-319.0,18.0,346.0,-37.0,-359.0,1
96.0,-318.0,26.0,357.0,-18.0,-384.0,1
72.0,-314.0,27.0,366.0,2.0,-387.0,1
60.0,-312.0,25.0,372.0,19.0,-377.0,1
45.0,-308.0,12.0,359.0,33.0,-357.0,1
39.0,-302.0,-15.0,309.0,36.0,-330.0,1
36.0,-309.0,-64.0,194.0,28.0,-295.0,1
33.0,-321.0,-133.0,-28.0,6.0,-264.0,1
24.0,-334.0,-197.0,-371.0,-38.0,-257.0,1
17.0,-371.0,-230.0,-780.0,-100.0,-270.0,1
23.0,-419.0,-239.0,-1133.0,-161.0,-305.0,1
43.0,-463.0,-237.0,-1329.0,-207.0,-379.0,1
74.0,-496.0,-236.0,-1326.0,-228.0,-505.0,1
97.0,-500.0,-242.0,-1153.0,-235.0,-674.0,1
111.0,-482.0,-251.0,-882.0,-242.0,-856.0,1
110.0,-453.0,-258.0,-571.0,-264.0,-1025.0,1
96.0,-410.0,-264.0,-261.0,-288.0,-1149.0,1
79.0,-365.0,-269.0,23.0,-304.0,-1199.0,1
70.0,-322.0,-266.0,281.0,-314.0,-1195.0,1
67.0,-274.0,-258.0,527.0,-292.0,-1153.0,1
68.0,-230.0,-239.0,765.0,-222.0,-1076.0,1
76.0,-190.0,-224.0,994.0,-134.0,-999.0,1
68.0,-153.0,-207.0,1192.0,-66.0,-936.0,1
61.0,-128.0,-195.0,1335.0,-37.0,-861.0,1
47.0,-104.0,-181.0,1393.0,-35.0,-772.0,1
25.0,-89.0,-166.0,1352.0,-48.0,-684.0,1
1.0,-87.0,-156.0,1218.0,-62.0,-585.0,1
-14.0,-87.0,-140.0,996.0,-88.0,-468.0,1
-23.0,-98.0,-120.0,722.0,-133.0,-336.0,1
-25.0,-119.0,-97.0,447.0,-193.0,-191.0,1
-25.0,-140.0,-80.0,206.0,-263.0,-41.0,1
-18.0,-170.0,-77.0,21.0,-335.0,107.0,1
-7.0,-196.0,-80.0,-120.0,-396.0,241.0,1
-1.0,-219.0,-83.0,-229.0,-439.0,352.0,1
5.0,-236.0,-92.0,-308.0,-463.0,447.0,1
19.0,-247.0,-101.0,-368.0,-479.0,529.0,1
37.0,-257.0,-119.0,-417.0,-485.0,600.0,1
60.0,-258.0,-128.0,-461.0,-472.0,666.0,1
90.0,-257.0,-136.0,-488.0,-436.0,720.0,1
121.0,-254.0,-131.0,-497.0,-383.0,766.0,1
150.0,-253.0,-139.0,-482.0,-321.0,809.0,1
177.0,-242.0,-135.0,-445.0,-251.0,838.0,1
193.0,-242.0,-138.0,-397.0,-170.0,842.0,1
206.0,-236.0,-137.0,-366.0,-73.0,829.0,1
201.0,-226.0,-132.0,-342.0,36.0,801.0,1
203.0,-222.0,-124.0,-326.0,149.0,760.0,1
193.0,-212.0,-120.0,-303.0,260.0,708.0,1
174.0,-207.0,-113.0,-274.0,366.0,659.0,1
148.0,-204.0,-105.0,-245.0,460.0,631.0,1
125.0,-207.0,-103.0,-226.0,532.0,620.0,1
99.0,-209.0,-102.0,-217.0,583.0,619.0,1
74.0,-210.0,-101.0,-210.0,626.0,617.0,1
50.0,-215.0,-102.0,-193.0,670.0,609.0,1
21.0,-219.0,-106.0,-171.0,715.0,600.0,1
-2.0,-225.0,-106.0,-147.0,745.0,598.0,1
-22.0,-229.0,-97.0,-113.0,758.0,600.0,1
-36.0,-228.0,-88.0,-48.0,764.0,595.0,1
-53.0,-226.0,-98.0,30.0,766.0,583.0,1
-60.0,-223.0,-97.0,80.0,758.0,576.0,1
-67.0,-219.0,-93.0,96.0,733.0,579.0,1
-72.0,-216.0,-93.0,80.0,692.0,592.0,1
-68.0,-202.0,-98.0,35.0,638.0,606.0,1
-59.0,-197.0,-93.0,-33.0,582.0,612.0,1
-46.0,-195.0,-93.0,-111.0,527.0,604.0,1
-34.0,-195.0,-88.0,-186.0,475.0,586.0,1
-21.0,-197.0,-82.0,-264.0,424.0,563.0,1
-3.0,-204.0,-71.0,-324.0,381.0,539.0,1
17.0,-215.0,-67.0,-357.0,350.0,507.0,1
28.0,-225.0,-67.0,-371.0,330.0,471.0,1
37.0,-230.0,-62.0,-367.0,321.0,433.0,1
49.0,-233.0,-60.0,-351.0,319.0,387.0,1
51.0,-235.0,-62.0,-321.0,322.0,340.0,1
52.0,-231.0,-61.0,-287.0,329.0,293.0,1
57.0,-232.0,-57.0,-252.0,340.0,249.0,1
49.0,-230.0,-61.0,-215.0,356.0,206.0,1
46.0,-227.0,-60.0,-186.0,367.0,174.0,1
38.0,-222.0,-59.0,-168.0,368.0,151.0,1
31.0,-216.0,-59.0,-156.0,363.0,136.0,1
35.0,-226.0,-58.0,-152.0,353.0,124.0,1
36.0,-228.0,-58.0,-148.0,344.0,113.0,1
37.0,-226.0,-59.0,-141.0,343.0,100.0,1
36.0,-227.0,-59.0,-132.0,352.0,88.0,1
38.0,-230.0,-57.0,-124.0,365.0,75.0,1
42.0,-237.0,-55.0,-114.0,384.0,63.0,1
48.0,-243.0,-57.0,-102.0,410.0,50.0,1
58.0,-251.0,-55.0,-82.0,440.0,37.0,1
61.0,-258.0,-56.0,-56.0,471.0,25.0,1
63.0,-263.0,-55.0,-22.0,504.0,18.0,1
70.0,-281.0,-47.0,16.0,540.0,14.0,1
65.0,-278.0,-53.0,57.0,577.0,11.0,1
64.0,-290.0,-56.0,99.0,611.0,11.0,1
60.0,-288.0,-47.0,151.0,639.0,15.0,1
51.0,-294.0,-42.0,215.0,656.0,21.0,1
45.0,-295.0,-41.0,288.0,663.0,36.0,1
42.0,-295.0,-38.0,357.0,662.0,57.0,1
31.0,-295.0,-45.0,412.0,656.0,85.0,1
15.0,-292.0,-57.0,443.0,640.0,111.0,1
-12.0,-288.0,-72.0,427.0,611.0,149.0,1
-36.0,-294.0,-84.0,339.0,557.0,205.0,1
-50.0,-296.0,-89.0,199.0,488.0,277.0,1
-45.0,-311.0,-71.0,61.0,429.0,358.0,1
-31.0,-323.0,-52.0,-31.0,384.0,428.0,1
-11.0,-325.0,-25.0,-48.0,353.0,484.0,1
6.0,-327.0,-1.0,13.0,330.0,520.0,1
29.0,-322.0,4.0,121.0,318.0,529.0,1
53.0,-313.0,11.0,236.0,333.0,508.0,1
74.0,-299.0,9.0,332.0,382.0,470.0,1
106.0,-294.0,1.0,401.0,462.0,419.0,1
127.0,-291.0,-28.0,442.0,565.0,376.0,1
144.0,-300.0,-81.0,429.0,678.0,361.0,1
142.0,-304.0,-158.0,269.0,772.0,381.0,1
125.0,-323.0,-223.0,-78.0,842.0,419.0,1
88.0,-357.0,-235.0,-539.0,873.0,460.0,1
57.0,-400.0,-207.0,-908.0,852.0,507.0,1
25.0,-448.0,-184.0,-1029.0,781.0,561.0,1
-4.0,-461.0,-179.0,-920.0,679.0,627.0,1
-30.0,-459.0,-181.0,-698.0,568.0,720.0,1
-50.0,-445.0,-184.0,-459.0,463.0,846.0,1
-63.0,-418.0,-188.0,-231.0,383.0,984.0,1
-61.0,-383.0,-192.0,-26.0,324.0,1116.0,1
-46.0,-341.0,-201.0,152.0,273.0,1228.0,1
-22.0,-306.0,-193.0,319.0,219.0,1296.0,1
2.0,-273.0,-201.0,488.0,179.0,1308.0,1
24.0,-241.0,-206.0,649.0,174.0,1280.0,1
44.0,-217.0,-200.0,780.0,199.0,1220.0,1
63.0,-195.0,-193.0,879.0,239.0,1125.0,1
82.0,-184.0,-191.0,931.0,293.0,993.0,1
91.0,-175.0,-179.0,921.0,362.0,839.0,1
104.0,-172.0,-165.0,853.0,443.0,666.0,1
114.0,-170.0,-146.0,750.0,530.0,495.0,1
123.0,-172.0,-130.0,638.0,608.0,336.0,1
132.0,-175.0,-116.0,537.0,675.0,188.0,1
129.0,-180.0,-110.0,452.0,739.0,46.0,1
124.0,-193.0,-106.0,367.0,808.0,-82.0,1
109.0,-201.0,-103.0,286.0,882.0,-195.0,1
89.0,-215.0,-106.0,210.0,943.0,-296.0,1
64.0,-220.0,-104.0,132.0,981.0,-386.0,1
40.0,-227.0,-99.0,68.0,997.0,-465.0,1
11.0,-231.0,-102.0,10.0,993.0,-531.0,1
-14.0,-238.0,-93.0,-35.0,968.0,-585.0,1
-42.0,-238.0,-94.0,-77.0,927.0,-625.0,1
-64.0,-241.0,-90.0,-114.0,869.0,-649.0,1
-84.0,-242.0,-95.0,-156.0,794.0,-656.0,1
-99.0,-240.0,-98.0,-197.0,708.0,-650.0,1
-119.0,-235.0,-90.0,-229.0,611.0,-637.0,1
-121.0,-230.0,-91.0,-248.0,494.0,-622.0,1
-126.0,-222.0,-94.0,-256.0,366.0,-607.0,1
-119.0,-217.0,-94.0,-262.0,235.0,-599.0,1
-104.0,-209.0,-95.0,-270.0,108.0,-594.0,1
-82.0,-201.0,-89.0,-283.0,-19.0,-593.0,1
-61.0,-200.0,-84.0,-299.0,-138.0,-610.0,1
-31.0,-203.0,-79.0,-320.0,-247.0,-637.0,1
-5.0,-200.0,-80.0,-349.0,-334.0,-660.0,1
10.0,-206.0,-81.0,-382.0,-398.0,-673.0,1
29.0,-206.0,-84.0,-414.0,-438.0,-685.0,1
47.0,-209.0,-90.0,-439.0,-459.0,-695.0,1
70.0,-212.0,-97.0,-455.0,-460.0,-704.0,1
82.0,-215.0,-97.0,-456.0,-439.0,-705.0,1
94.0,-218.0,-91.0,-450.0,-404.0,-699.0,1
100.0,-225.0,-87.0,-446.0,-372.0,-687.0,1
104.0,-229.0,-79.0,-440.0,-337.0,-673.0,1
106.0,-228.0,-73.0,-417.0,-300.0,-659.0,1
100.0,-227.0,-68.0,-368.0,-262.0,-640.0,1
93.0,-226.0,-72.0,-318.0,-236.0,-612.0,1
83.0,-221.0,-66.0,-265.0,-228.0,-583.0,1
85.0,-216.0,-69.0,-209.0,-229.0,-556.0,1
82.0,-211.0,-73.0,-148.0,-229.0,-541.0,1
78.0,-207.0,-65.0,-93.0,-219.0,-526.0,1
68.0,-204.0,-66.0,-51.0,-199.0,-497.0,1
56.0,-199.0,-64.0,-21.0,-183.0,-457.0,1
45.0,-196.0,-61.0,-12.0,-182.0,-406.0,1
39.0,-196.0,-64.0,-24.0,-193.0,-351.0,1
33.0,-200.0,-61.0,-50.0,-207.0,-304.0,1
32.0,-203.0,-65.0,-90.0,-220.0,-263.0,1
31.0,-205.0,-61.0,-131.0,-224.0,-230.0,1
31.0,-207.0,-62.0,-165.0,-225.0,-206.0,1
32.0,-214.0,-58.0,-191.0,-226.0,-186.0,1
35.0,-224.0,-54.0,-210.0,-231.0,-170.0,1
33.0,-229.0,-56.0,-222.0,-241.0,-155.0,1
34.0,-231.0,-53.0,-224.0,-259.0,-138.0,1
32.0,-239.0,-52.0,-216.0,-284.0,-122.0,1
34.0,-243.0,-52.0,-201.0,-308.0,-108.0,1
31.0,-241.0,-52.0,-179.0,-330.0,-94.0,1
31.0,-245.0,-53.0,-153.0,-348.0,-86.0,1
34.0,-249.0,-57.0,-128.0,-364.0,-82.0,1
43.0,-260.0,-48.0,-106.0,-375.0,-82.0,1
34.0,-263.0,-55.0,-83.0,-381.0,-81.0,1
33.0,-265.0,-59.0,-60.0,-391.0,-78.0,1
36.0,-274.0,-59.0,-46.0,-406.0,-74.0,1
35.0,-282.0,-59.0,-33.0,-420.0,-62.0,1
38.0,-289.0,-60.0,-23.0,-433.0,-47.0,1
41.0,-296.0,-54.0,-5.0,-444.0,-27.0,1
46.0,-301.0,-50.0,25.0,-447.0,-8.0,1
53.0,-306.0,-45.0,72.0,-443.0,12.0,1
62.0,-308.0,-46.0,129.0,-422.0,29.0,1
74.0,-307.0,-44.0,193.0,-390.0,42.0,1
76.0,-305.0,-51.0,245.0,-350.0,50.0,1
95.0,-300.0,-59.0,281.0,-312.0,47.0,1
103.0,-298.0,-62.0,288.0,-276.0,17.0,1
105.0,-291.0,-62.0,259.0,-246.0,-35.0,1
103.0,-292.0,-43.0,212.0,-232.0,-96.0,1
98.0,-294.0,-22.0,172.0,-235.0,-159.0,1
84.0,-296.0,2.0,155.0,-245.0,-217.0,1
73.0,-299.0,16.0,161.0,-249.0,-262.0,1
53.0,-305.0,28.0,187.0,-244.0,-288.0,1
44.0,-301.0,36.0,223.0,-234.0,-296.0,1
31.0,-296.0,37.0,255.0,-236.0,-293.0,1
23.0,-292.0,28.0,268.0,-254.0,-287.0,1
12.0,-281.0,11.0,244.0,-284.0,-278.0,1
20.0,-282.0,-22.0,163.0,-322.0,-263.0,1
37.0,-291.0,-67.0,4.0,-358.0,-241.0,1
48.0,-305.0,-126.0,-255.0,-384.0,-231.0,1
46.0,-327.0,-173.0,-591.0,-399.0,-250.0,1
48.0,-360.0,-200.0,-944.0,-401.0,-298.0,1
53.0,-400.0,-209.0,-1231.0,-389.0,-367.0,1
78.0,-437.0,-209.0,-1386.0,-367.0,-444.0,1
114.0,-459.0,-213.0,-1385.0,-341.0,-535.0,1
153.0,-467.0,-221.0,-1249.0,-305.0,-641.0,1
178.0,-457.0,-236.0,-1033.0,-268.0,-755.0,1
183.0,-442.0,-250.0,-787.0,-239.0,-876.0,1
165.0,-419.0,-258.0,-537.0,-226.0,-982.0,1
136.0,-388.0,-264.0,-293.0,-232.0,-1042.0,1
110.0,-356.0,-261.0,-44.0,-242.0,-1056.0,1
98.0,-323.0,-254.0,231.0,-239.0,-1027.0,1
102.0,-291.0,-253.0,518.0,-204.0,-969.0,1
99.0,-252.0,-247.0,790.0,-141.0,-913.0,1
91.0,-214.0,-230.0,1023.0,-68.0,-862.0,1
73.0,-182.0,-213.0,1192.0,-7.0,-808.0,1
63.0,-154.0,-195.0,1296.0,30.0,-754.0,1
37.0,-127.0,-179.0,1340.0,51.0,-692.0,1
18.0,-111.0,-151.0,1317.0,60.0,-613.0,1
-4.0,-98.0,-136.0,1228.0,56.0,-514.0,1
-21.0,-86.0,-119.0,1076.0,35.0,-393.0,1
-30.0,-91.0,-103.0,872.0,-2.0,-259.0,1
-29.0,-100.0,-96.0,641.0,-47.0,-115.0,1
-25.0,-113.0,-86.0,388.0,-92.0,28.0,1
-13.0,-133.0,-80.0,140.0,-128.0,163.0,1
1.0,-155.0,-84.0,-80.0,-152.0,279.0,1
18.0,-176.0,-88.0,-266.0,-162.0,376.0,1
42.0,-194.0,-91.0,-415.0,-162.0,458.0,1
63.0,-212.0,-99.0,-523.0,-149.0,530.0,1
79.0,-227.0,-108.0,-600.0,-120.0,590.0,1
99.0,-237.0,-113.0,-657.0,-77.0,638.0,1
119.0,-243.0,-123.0,-691.0,-20.0,669.0,1
129.0,-252.0,-127.0,-719.0,45.0,681.0,1
147.0,-258.0,-128.0,-742.0,106.0,688.0,1
156.0,-263.0,-126.0,-757.0,164.0,683.0,1
167.0,-262.0,-121.0,-745.0,223.0,669.0,1
175.0,-270.0,-120.0,-703.0,295.0,653.0,1
164.0,-262.0,-122.0,-632.0,381.0,634.0,1
146.0,-257.0,-120.0,-541.0,466.0,613.0,1
116.0,-259.0,-116.0,-443.0,540.0,594.0,1
76.0,-247.0,-116.0,-368.0,584.0,558.0,1
58.0,-240.0,-115.0,-318.0,607.0,538.0,1
45.0,-236.0,-111.0,-280.0,626.0,550.0,1
36.0,-238.0,-104.0,-247.0,644.0,562.0,1
23.0,-229.0,-104.0,-214.0,670.0,569.0,1
11.0,-226.0,-100.0,-179.0,711.0,589.0,1
7.0,-229.0,-103.0,-146.0,755.0,615.0,1
-12.0,-229.0,-97.0,-121.0,786.0,613.0,1
-21.0,-227.0,-97.0,-104.0,797.0,597.0,1
-31.0,-228.0,-99.0,-101.0,798.0,581.0,1
-36.0,-224.0,-93.0,-99.0,790.0,568.0,1
-40.0,-224.0,-90.0,-90.0,769.0,548.0,1
-39.0,-216.0,-90.0,-83.0,733.0,524.0,1
-37.0,-214.0,-86.0,-98.0,683.0,506.0,1
-25.0,-209.0,-88.0,-129.0,631.0,507.0,1
-8.0,-206.0,-86.0,-162.0,585.0,507.0,1
7.0,-205.0,-83.0,-186.0,558.0,499.0,1
22.0,-205.0,-81.0,-199.0,545.0,489.0,1
35.0,-210.0,-78.0,-202.0,542.0,474.0,1
41.0,-210.0,-74.0,-202.0,546.0,452.0,1
46.0,-210.0,-64.0,-198.0,552.0,419.0,1
45.0,-212.0,-67.0,-192.0,557.0,382.0,1
48.0,-212.0,-59.0,-192.0,557.0,340.0,1
46.0,-221.0,-63.0,-190.0,557.0,306.0,1
31.0,-216.0,-59.0,-189.0,555.0,281.0,1
31.0,-221.0,-53.0,-191.0,544.0,263.0,1
31.0,-220.0,-58.0,-187.0,527.0,236.0,1
34.0,-218.0,-58.0,-179.0,516.0,214.0,1
35.0,-220.0,-60.0,-170.0,510.0,190.0,1
33.0,-221.0,-61.0,-168.0,510.0,163.0,1
27.0,-222.0,-54.0,-177.0,516.0,143.0,1
32.0,-220.0,-56.0,-195.0,522.0,131.0,1
35.0,-228.0,-56.0,-214.0,527.0,121.0,1
37.0,-234.0,-54.0,-226.0,530.0,102.0,1
45.0,-246.0,-55.0,-225.0,536.0,76.0,1
46.0,-257.0,-56.0,-211.0,549.0,55.0,1
47.0,-265.0,-56.0,-184.0,565.0,37.0,1
49.0,-271.0,-55.0,-148.0,581.0,24.0,1
49.0,-284.0,-56.0,-101.0,604.0,15.0,1
42.0,-292.0,-53.0,-48.0,626.0,10.0,1
40.0,-299.0,-51.0,20.0,647.0,10.0,1
36.0,-303.0,-55.0,95.0,662.0,20.0,1
31.0,-308.0,-51.0,167.0,673.0,40.0,1
34.0,-315.0,-48.0,238.0,685.0,67.0,1
33.0,-316.0,-44.0,305.0,702.0,103.0,1
35.0,-314.0,-36.0,362.0,724.0,134.0,1
32.0,-310.0,-43.0,406.0,737.0,166.0,1
28.0,-307.0,-54.0,432.0,726.0,207.0,1
18.0,-301.0,-64.0,423.0,696.0,250.0,1
1.0,-297.0,-71.0,359.0,649.0,298.0,1
-5.0,-298.0,-71.0,255.0,597.0,340.0,1
-7.0,-303.0,-63.0,150.0,552.0,374.0,1
-8.0,-304.0,-44.0,81.0,516.0,399.0,1
3.0,-309.0,-32.0,62.0,490.0,412.0,1
18.0,-306.0,-14.0,92.0,476.0,415.0,1
33.0,-297.0,-10.0,143.0,480.0,401.0,1
58.0,-289.0,-17.0,198.0,511.0,368.0,1
74.0,-285.0,-26.0,244.0,570.0,335.0,1
95.0,-289.0,-43.0,252.0,645.0,310.0,1
103.0,-298.0,-83.0,197.0,724.0,300.0,1
103.0,-313.0,-129.0,41.0,798.0,311.0,1
94.0,-327.0,-180.0,-223.0,864.0,316.0,1
65.0,-347.0,-211.0,-549.0,905.0,311.0,1
38.0,-378.0,-223.0,-849.0,887.0,328.0,1
14.0,-414.0,-231.0,-1039.0,803.0,377.0,1
-19.0,-428.0,-240.0,-1088.0,678.0,442.0,1
-42.0,-430.0,-247.0,-1012.0,544.0,515.0,1
-40.0,-423.0,-244.0,-850.0,424.0,609.0,1
-38.0,-407.0,-240.0,-643.0,329.0,725.0,1
-31.0,-383.0,-239.0,-418.0,266.0,835.0,1
-3.0,-346.0,-233.0,-237.0,234.0,926.0,1
20.0,-317.0,-230.0,-19.0,217.0,991.0,1
44.0,-287.0,-218.0,188.0,215.0,1008.0,1
66.0,-255.0,-207.0,379.0,221.0,987.0,1
84.0,-220.0,-199.0,552.0,234.0,941.0,1
101.0,-190.0,-196.0,701.0,260.0,869.0,1
112.0,-167.0,-196.0,806.0,309.0,772.0,1
111.0,-145.0,-192.0,847.0,384.0,655.0,1
111.0,-132.0,-188.0,815.0,469.0,527.0,1
109.0,-124.0,-175.0,719.0,542.0,398.0,1
113.0,-129.0,-155.0,575.0,586.0,276.0,1
109.0,-137.0,-138.0,411.0,599.0,164.0,1
104.0,-150.0,-127.0,247.0,600.0,57.0,1
99.0,-165.0,-118.0,102.0,612.0,-44.0,1
89.0,-186.0,-106.0,-16.0,632.0,-143.0,1
83.0,-203.0,-107.0,-107.0,651.0,-235.0,1
62.0,-217.0,-115.0,-183.0,658.0,-316.0,1
42.0,-233.0,-117.0,-259.0,653.0,-391.0,1
13.0,-239.0,-128.0,-332.0,637.0,-458.0,1
-9.0,-248.0,-133.0,-405.0,614.0,-520.0,1
-29.0,-254.0,-135.0,-473.0,592.0,-574.0,1
-52.0,-256.0,-134.0,-538.0,566.0,-623.0,1
-70.0,-260.0,-132.0,-584.0,534.0,-666.0,1
-84.0,-259.0,-130.0,-605.0,486.0,-711.0,1
-94.0,-260.0,-119.0,-595.0,414.0,-749.0,1
-91.0,-254.0,-119.0,-551.0,316.0,-776.0,1
-91.0,-253.0,-116.0,-511.0,194.0,-780.0,1
-82.0,-250.0,-108.0,-475.0,65.0,-765.0,1
-68.0,-244.0,-103.0,-430.0,-56.0,-749.0,1
-53.0,-242.0,-97.0,-365.0,-170.0,-741.0,1
-37.0,-239.0,-97.0,-291.0,-278.0,-741.0,1
-8.0,-237.0,-93.0,-214.0,-373.0,-748.0,1
14.0,-234.0,-96.0,-144.0,-449.0,-759.0,1
39.0,-230.0,-99.0,-86.0,-504.0,-761.0,1
60.0,-228.0,-99.0,-52.0,-531.0,-755.0,1
76.0,-223.0,-103.0,-33.0,-546.0,-741.0,1
87.0,-220.0,-105.0,-22.0,-544.0,-734.0,1
83.0,-215.0,-105.0,-11.0,-533.0,-725.0,1
101.0,-221.0,-108.0,-17.0,-518.0,-714.0,1
106.0,-220.0,-104.0,-37.0,-499.0,-709.0,1
110.0,-219.0,-102.0,-55.0,-468.0,-699.0,1
117.0,-223.0,-102.0,-64.0,-428.0,-684.0,1
115.0,-219.0,-98.0,-73.0,-382.0,-673.0,1
113.0,-217.0,-95.0,-97.0,-339.0,-656.0,1
102.0,-220.0,-96.0,-124.0,-308.0,-640.0,1
99.0,-217.0,-88.0,-148.0,-292.0,-627.0,1
96.0,-217.0,-88.0,-163.0,-281.0,-616.0,1
89.0,-220.0,-86.0,-168.0,-271.0,-612.0,1
81.0,-219.0,-78.0,-157.0,-257.0,-602.0,1
79.0,-227.0,-80.0,-137.0,-240.0,-591.0,1
67.0,-220.0,-74.0,-113.0,-224.0,-570.0,1
66.0,-230.0,-73.0,-98.0,-215.0,-543.0,1
63.0,-227.0,-72.0,-90.0,-205.0,-512.0,1
62.0,-228.0,-71.0,-82.0,-190.0,-475.0,1
57.0,-227.0,-73.0,-67.0,-174.0,-449.0,1
59.0,-229.0,-71.0,-50.0,-159.0,-412.0,1
57.0,-233.0,-69.0,-40.0,-155.0,-381.0,1
59.0,-230.0,-73.0,-37.0,-159.0,-352.0,1
62.0,-229.0,-79.0,-36.0,-164.0,-330.0,1
61.0,-227.0,-68.0,-39.0,-166.0,-317.0,1
60.0,-227.0,-73.0,-43.0,-168.0,-307.0,1
61.0,-226.0,-68.0,-61.0,-169.0,-300.0,1
60.0,-226.0,-71.0,-86.0,-168.0,-294.0,1
58.0,-222.0,-67.0,-111.0,-165.0,-293.0,1
66.0,-226.0,-69.0,-138.0,-158.0,-297.0,1
64.0,-228.0,-67.0,-170.0,-154.0,-297.0,1
67.0,-229.0,-67.0,-200.0,-153.0,-297.0,1
65.0,-231.0,-68.0,-230.0,-154.0,-293.0,1
76.0,-243.0,-55.0,-253.0,-158.0,-284.0,1
67.0,-242.0,-64.0,-266.0,-161.0,-276.0,1
65.0,-245.0,-61.0,-265.0,-158.0,-270.0,1
64.0,-250.0,-66.0,-257.0,-155.0,-262.0,1
62.0,-254.0,-62.0,-247.0,-160.0,-252.0,1
59.0,-262.0,-65.0,-231.0,-170.0,-243.0,1
56.0,-265.0,-60.0,-208.0,-181.0,-236.0,1
52.0,-274.0,-62.0,-175.0,-195.0,-229.0,1
51.0,-280.0,-60.0,-138.0,-214.0,-223.0,1
44.0,-286.0,-54.0,-93.0,-243.0,-219.0,1
35.0,-288.0,-58.0,-47.0,-282.0,-206.0,1
35.0,-291.0,-54.0,1.0,-331.0,-186.0,1
33.0,-297.0,-48.0,58.0,-375.0,-165.0,1
24.0,-296.0,-39.0,124.0,-412.0,-146.0,1
29.0,-298.0,-36.0,188.0,-445.0,-123.0,1
26.0,-293.0,-37.0,238.0,-475.0,-99.0,1
25.0,-294.0,-30.0,276.0,-501.0,-76.0,1
25.0,-289.0,-30.0,301.0,-525.0,-56.0,1
25.0,-284.0,-32.0,307.0,-546.0,-36.0,1
25.0,-278.0,-24.0,300.0,-560.0,-23.0,1
24.0,-274.0,-30.0,275.0,-572.0,-15.0,1
29.0,-272.0,-33.0,240.0,-579.0,-11.0,1
29.0,-266.0,-32.0,190.0,-587.0,-15.0,1
36.0,-257.0,-34.0,132.0,-597.0,-29.0,1
41.0,-256.0,-39.0,69.0,-608.0,-49.0,1
55.0,-255.0,-44.0,1.0,-620.0,-70.0,1
67.0,-254.0,-51.0,-71.0,-624.0,-88.0,1
80.0,-251.0,-64.0,-148.0,-623.0,-100.0,1
98.0,-255.0,-77.0,-235.0,-619.0,-112.0,1
115.0,-254.0,-106.0,-340.0,-614.0,-121.0,1
139.0,-259.0,-132.0,-457.0,-603.0,-132.0,1
169.0,-266.0,-151.0,-571.0,-571.0,-158.0,1
201.0,-279.0,-174.0,-663.0,-503.0,-198.0,1
221.0,-297.0,-189.0,-757.0,-409.0,-248.0,1
223.0,-315.0,-201.0,-869.0,-313.0,-322.0,1
218.0,-338.0,-207.0,-997.0,-218.0,-411.0,1
204.0,-362.0,-192.0,-1114.0,-118.0,-504.0,1
192.0,-386.0,-184.0,-1176.0,-5.0,-586.0,1
182.0,-404.0,-173.0,-1140.0,117.0,-646.0,1
164.0,-412.0,-179.0,-1008.0,233.0,-686.0,1
146.0,-409.0,-178.0,-809.0,326.0,-695.0,1
131.0,-403.0,-187.0,-583.0,384.0,-670.0,1
112.0,-387.0,-208.0,-362.0,400.0,-619.0,1
82.0,-372.0,-222.0,-174.0,380.0,-543.0,1
53.0,-350.0,-233.0,-20.0,329.0,-449.0,1
30.0,-330.0,-243.0,102.0,247.0,-351.0,1
11.0,-305.0,-242.0,208.0,135.0,-265.0,1
1.0,-276.0,-237.0,300.0,6.0,-197.0,1
-5.0,-252.0,-235.0,372.0,-121.0,-153.0,1
-11.0,-228.0,-222.0,413.0,-237.0,-128.0,1
-8.0,-212.0,-218.0,406.0,-340.0,-117.0,1
3.0,-207.0,-215.0,347.0,-428.0,-114.0,1
12.0,-203.0,-205.0,245.0,-492.0,-109.0,1
30.0,-204.0,-201.0,117.0,-537.0,-102.0,1
54.0,-211.0,-203.0,-13.0,-556.0,-91.0,1
69.0,-223.0,-198.0,-126.0,-542.0,-75.0,1
92.0,-229.0,-188.0,-202.0,-496.0,-53.0,1
105.0,-237.0,-186.0,-239.0,-429.0,-19.0,1
124.0,-242.0,-183.0,-246.0,-352.0,18.0,1
128.0,-242.0,-180.0,-231.0,-274.0,57.0,1
134.0,-245.0,-177.0,-198.0,-204.0,96.0,1
139.0,-253.0,-168.0,-156.0,-141.0,133.0,1
138.0,-250.0,-165.0,-111.0,-88.0,169.0,1
139.0,-255.0,-165.0,-73.0,-43.0,207.0,1
136.0,-258.0,-156.0,-37.0,-1.0,251.0,1
135.0,-259.0,-152.0,-8.0,41.0,298.0,1
130.0,-258.0,-141.0,21.0,77.0,347.0,1
125.0,-264.0,-139.0,45.0,107.0,402.0,1
116.0,-259.0,-134.0,58.0,128.0,458.0,1
111.0,-259.0,-134.0,66.0,142.0,517.0,1
102.0,-255.0,-130.0,72.0,148.0,571.0,1
93.0,-251.0,-132.0,83.0,153.0,623.0,1
86.0,-249.0,-134.0,100.0,159.0,668.0,1
82.0,-240.0,-133.0,110.0,165.0,711.0,1
73.0,-236.0,-134.0,114.0,173.0,750.0,1
65.0,-229.0,-137.0,118.0,178.0,785.0,1
59.0,-223.0,-135.0,118.0,181.0,810.0,1
38.0,-212.0,-136.0,121.0,183.0,828.0,1
35.0,-208.0,-128.0,129.0,183.0,828.0,1
31.0,-203.0,-124.0,133.0,185.0,816.0,1
26.0,-194.0,-121.0,133.0,191.0,800.0,1
23.0,-191.0,-117.0,139.0,209.0,782.0,1
17.0,-183.0,-111.0,144.0,230.0,760.0,1
18.0,-181.0,-107.0,149.0,252.0,736.0,1
18.0,-174.0,-107.0,154.0,278.0,717.0,1
23.0,-171.0,-106.0,149.0,305.0,700.0,1
24.0,-166.0,-109.0,134.0,330.0,694.0,1
21.0,-165.0,-108.0,103.0,354.0,692.0,1
16.0,-167.0,-107.0,59.0,367.0,693.0,1
5.0,-169.0,-108.0,3.0,364.0,707.0,1
0.0,-167.0,-111.0,-60.0,348.0,728.0,1
-7.0,-170.0,-112.0,-116.0,323.0,744.0,1
-10.0,-171.0,-108.0,-151.0,296.0,755.0,1
-13.0,-169.0,-112.0,-162.0,267.0,760.0,1
-11.0,-172.0,-109.0,-164.0,238.0,765.0,1
-9.0,-170.0,-107.0,-160.0,210.0,764.0,1
0.0,-174.0,-104.0,-152.0,191.0,749.0,1
1.0,-176.0,-103.0,-134.0,179.0,723.0,1
7.0,-190.0,-116.0,-116.0,174.0,694.0,1
12.0,-186.0,-89.0,-113.0,170.0,665.0,1
15.0,-187.0,-93.0,-112.0,167.0,630.0,1
16.0,-192.0,-96.0,-115.0,171.0,591.0,1
19.0,-196.0,-92.0,-131.0,185.0,552.0,1
20.0,-203.0,-92.0,-148.0,205.0,518.0,1
20.0,-207.0,-87.0,-153.0,223.0,488.0,1
24.0,-208.0,-88.0,-147.0,239.0,461.0,1
26.0,-210.0,-87.0,-132.0,254.0,436.0,1
32.0,-212.0,-87.0,-111.0,267.0,419.0,1
40.0,-216.0,-82.0,-78.0,277.0,408.0,1
38.0,-216.0,-81.0,-43.0,287.0,390.0,1
42.0,-217.0,-82.0,-16.0,304.0,373.0,1
46.0,-217.0,-81.0,2.0,323.0,360.0,1
45.0,-209.0,-76.0,20.0,345.0,340.0,1
47.0,-207.0,-74.0,46.0,376.0,314.0,1
44.0,-201.0,-73.0,66.0,405.0,291.0,1
44.0,-198.0,-73.0,76.0,429.0,268.0,1
43.0,-200.0,-67.0,72.0,446.0,244.0,1
41.0,-196.0,-68.0,56.0,458.0,223.0,1
43.0,-198.0,-66.0,31.0,468.0,207.0,1
43.0,-200.0,-65.0,-2.0,473.0,193.0,1
42.0,-201.0,-64.0,-40.0,479.0,180.0,1
43.0,-204.0,-68.0,-73.0,485.0,162.0,1
48.0,-210.0,-65.0,-101.0,497.0,140.0,1
49.0,-223.0,-64.0,-116.0,509.0,111.0,1
53.0,-233.0,-62.0,-115.0,523.0,78.0,1
53.0,-241.0,-57.0,-97.0,541.0,46.0,1
58.0,-255.0,-57.0,-58.0,568.0,17.0,1
52.0,-267.0,-60.0,0.0,600.0,-6.0,1
50.0,-280.0,-52.0,71.0,636.0,-25.0,1
46.0,-292.0,-56.0,156.0,674.0,-36.0,1
43.0,-302.0,-64.0,244.0,712.0,-41.0,1
43.0,-305.0,-66.0,330.0,755.0,-40.0,1
44.0,-306.0,-64.0,401.0,804.0,-27.0,1
49.0,-307.0,-68.0,462.0,860.0,-11.0,1
51.0,-302.0,-64.0,513.0,922.0,11.0,1
60.0,-299.0,-56.0,552.0,986.0,36.0,1
61.0,-290.0,-47.0,590.0,1038.0,58.0,1
69.0,-288.0,-40.0,638.0,1053.0,81.0,1
69.0,-282.0,-36.0,690.0,1032.0,102.0,1
71.0,-279.0,-42.0,727.0,992.0,124.0,1
58.0,-268.0,-48.0,722.0,959.0,138.0,1
40.0,-257.0,-54.0,669.0,935.0,153.0,1
25.0,-256.0,-55.0,577.0,920.0,174.0,1
11.0,-253.0,-49.0,457.0,909.0,199.0,1
4.0,-254.0,-33.0,333.0,906.0,224.0,1
9.0,-258.0,-15.0,239.0,911.0,247.0,1
18.0,-262.0,0.0,195.0,926.0,262.0,1
22.0,-268.0,-5.0,187.0,951.0,275.0,1
30.0,-279.0,-20.0,173.0,992.0,294.0,1
32.0,-292.0,-41.0,111.0,1038.0,323.0,1
31.0,-308.0,-69.0,-16.0,1072.0,364.0,1
29.0,-324.0,-102.0,-192.0,1082.0,403.0,1
19.0,-339.0,-136.0,-388.0,1060.0,439.0,1
7.0,-362.0,-167.0,-578.0,1012.0,469.0,1
-4.0,-374.0,-193.0,-739.0,933.0,486.0,1
-20.0,-385.0,-218.0,-845.0,820.0,490.0,1
-29.0,-399.0,-235.0,-882.0,679.0,495.0,1
-33.0,-407.0,-242.0,-838.0,529.0,496.0,1
-31.0,-413.0,-249.0,-716.0,390.0,498.0,1
-33.0,-414.0,-253.0,-545.0,292.0,509.0,1
-19.0,-413.0,-257.0,-365.0,236.0,537.0,1
-17.0,-403.0,-259.0,-200.0,211.0,578.0,1
-5.0,-387.0,-259.0,-51.0,192.0,624.0,1
11.0,-367.0,-265.0,86.0,167.0,654.0,1
35.0,-350.0,-255.0,221.0,145.0,665.0,1
56.0,-320.0,-262.0,353.0,135.0,663.0,1
74.0,-305.0,-260.0,473.0,138.0,645.0,1
83.0,-280.0,-258.0,579.0,145.0,608.0,1
90.0,-258.0,-248.0,670.0,155.0,553.0,1
93.0,-239.0,-241.0,748.0,172.0,489.0,1
90.0,-215.0,-234.0,805.0,197.0,421.0,1
92.0,-194.0,-217.0,834.0,232.0,355.0,1
96.0,-178.0,-208.0,832.0,273.0,295.0,1
96.0,-158.0,-194.0,806.0,320.0,238.0,1
95.0,-149.0,-180.0,753.0,367.0,177.0,1
89.0,-138.0,-163.0,675.0,406.0,116.0,1
86.0,-140.0,-152.0,571.0,437.0,53.0,1
76.0,-140.0,-139.0,449.0,456.0,-12.0,1
66.0,-156.0,-134.0,310.0,465.0,-72.0,1
57.0,-168.0,-131.0,166.0,469.0,-131.0,1
42.0,-184.0,-131.0,27.0,464.0,-187.0,1
27.0,-203.0,-129.0,-100.0,454.0,-244.0,1
12.0,-218.0,-123.0,-205.0,434.0,-302.0,1
0.0,-234.0,-124.0,-282.0,403.0,-361.0,1
-12.0,-245.0,-121.0,-332.0,368.0,-418.0,1
-27.0,-248.0,-125.0,-354.0,323.0,-472.0,1
-31.0,-258.0,-116.0,-357.0,273.0,-521.0,1
-40.0,-261.0,-114.0,-347.0,216.0,-564.0,1
-45.0,-265.0,-109.0,-333.0,156.0,-596.0,1
-48.0,-264.0,-107.0,-312.0,96.0,-623.0,1
-51.0,-259.0,-106.0,-283.0,37.0,-640.0,1
-46.0,-252.0,-106.0,-249.0,-18.0,-649.0,1
-34.0,-252.0,-105.0,-213.0,-72.0,-656.0,1
-20.0,-248.0,-105.0,-170.0,-120.0,-665.0,1
-1.0,-242.0,-100.0,-125.0,-161.0,-672.0,1
8.0,-240.0,-95.0,-86.0,-193.0,-680.0,1
25.0,-231.0,-104.0,-55.0,-222.0,-683.0,1
43.0,-226.0,-97.0,-23.0,-241.0,-683.0,1
48.0,-222.0,-97.0,6.0,-255.0,-679.0,1
61.0,-219.0,-99.0,30.0,-267.0,-670.0,1
67.0,-214.0,-99.0,50.0,-277.0,-657.0,1
71.0,-211.0,-98.0,67.0,-284.0,-640.0,1
75.0,-209.0,-92.0,84.0,-289.0,-621.0,1
83.0,-207.0,-91.0,92.0,-296.0,-603.0,1
87.0,-205.0,-90.0,100.0,-297.0,-588.0,1
90.0,-205.0,-92.0,96.0,-292.0,-568.0,1
91.0,-203.0,-98.0,84.0,-282.0,-544.0,1
89.0,-205.0,-93.0,55.0,-268.0,-520.0,1
87.0,-208.0,-87.0,25.0,-251.0,-495.0,1
87.0,-212.0,-87.0,-7.0,-235.0,-472.0,1
87.0,-207.0,-82.0,-38.0,-219.0,-451.0,1
85.0,-213.0,-76.0,-60.0,-207.0,-431.0,1
82.0,-217.0,-76.0,-79.0,-196.0,-414.0,1
74.0,-217.0,-74.0,-91.0,-191.0,-400.0,1
70.0,-220.0,-76.0,-98.0,-191.0,-388.0,1
65.0,-220.0,-77.0,-108.0,-196.0,-375.0,1
61.0,-223.0,-72.0,-126.0,-208.0,-362.0,1
54.0,-226.0,-70.0,-144.0,-224.0,-350.0,1
49.0,-226.0,-69.0,-156.0,-242.0,-340.0,1
40.0,-234.0,-66.0,-153.0,-256.0,-329.0,1
37.0,-234.0,-70.0,-152.0,-266.0,-305.0,1
34.0,-236.0,-68.0,-153.0,-275.0,-280.0,1
30.0,-238.0,-71.0,-151.0,-278.0,-251.0,1
27.0,-239.0,-74.0,-143.0,-281.0,-219.0,1
27.0,-235.0,-78.0,-137.0,-286.0,-183.0,1
29.0,-233.0,-82.0,-135.0,-290.0,-150.0,1
32.0,-229.0,-85.0,-136.0,-293.0,-117.0,1
38.0,-229.0,-87.0,-146.0,-294.0,-87.0,1
39.0,-223.0,-90.0,-162.0,-292.0,-63.0,1
48.0,-228.0,-91.0,-179.0,-288.0,-43.0,1
50.0,-230.0,-87.0,-192.0,-284.0,-24.0,1
57.0,-233.0,-82.0,-197.0,-283.0,-5.0,1
53.0,-242.0,-79.0,-194.0,-287.0,12.0,1
48.0,-241.0,-78.0,-186.0,-295.0,32.0,1
48.0,-245.0,-76.0,-169.0,-308.0,53.0,1
53.0,-253.0,-70.0,-150.0,-319.0,72.0,1
48.0,-256.0,-74.0,-129.0,-326.0,87.0,1
47.0,-259.0,-67.0,-99.0,-330.0,96.0,1
47.0,-263.0,-60.0,-61.0,-333.0,106.0,1
53.0,-266.0,-63.0,-11.0,-332.0,118.0,1
54.0,-266.0,-56.0,47.0,-324.0,131.0,1
59.0,-268.0,-59.0,111.0,-307.0,144.0,1
66.0,-264.0,-63.0,174.0,-284.0,157.0,1
67.0,-260.0,-74.0,223.0,-253.0,161.0,1
66.0,-260.0,-73.0,252.0,-220.0,160.0,1
62.0,-256.0,-74.0,255.0,-200.0,157.0,1
60.0,-253.0,-72.0,232.0,-200.0,152.0,1
49.0,-248.0,-74.0,187.0,-220.0,140.0,1
44.0,-245.0,-69.0,130.0,-251.0,128.0,1
40.0,-238.0,-62.0,79.0,-272.0,127.0,1
42.0,-238.0,-57.0,50.0,-275.0,133.0,1
45.0,-235.0,-58.0,46.0,-260.0,143.0,1
53.0,-238.0,-52.0,59.0,-229.0,156.0,1
56.0,-232.0,-45.0,80.0,-196.0,171.0,1
59.0,-228.0,-42.0,97.0,-167.0,184.0,1
63.0,-225.0,-36.0,107.0,-143.0,197.0,1
63.0,-226.0,-32.0,101.0,-126.0,208.0,1
60.0,-226.0,-28.0,82.0,-119.0,215.0,1
57.0,-233.0,-25.0,46.0,-120.0,215.0,1
53.0,-239.0,-25.0,1.0,-129.0,213.0,1
45.0,-243.0,-28.0,-51.0,-145.0,206.0,1
37.0,-252.0,-35.0,-115.0,-170.0,201.0,1
35.0,-257.0,-51.0,-189.0,-195.0,203.0,1
34.0,-265.0,-63.0,-266.0,-221.0,210.0,1
29.0,-267.0,-81.0,-341.0,-241.0,222.0,1
27.0,-277.0,-99.0,-415.0,-252.0,230.0,1
26.0,-279.0,-123.0,-480.0,-255.0,237.0,1
33.0,-284.0,-142.0,-539.0,-250.0,238.0,1
36.0,-287.0,-156.0,-587.0,-241.0,234.0,1
44.0,-293.0,-168.0,-614.0,-233.0,222.0,1
53.0,-302.0,-171.0,-614.0,-230.0,204.0,1
64.0,-307.0,-173.0,-588.0,-233.0,184.0,1
73.0,-312.0,-179.0,-534.0,-238.0,157.0,1
74.0,-317.0,-175.0,-464.0,-244.0,128.0,1
80.0,-321.0,-182.0,-389.0,-241.0,102.0,1
88.0,-321.0,-184.0,-313.0,-220.0,82.0,1
88.0,-323.0,-190.0,-242.0,-180.0,62.0,1
85.0,-322.0,-192.0,-177.0,-132.0,44.0,1
79.0,-316.0,-194.0,-121.0,-85.0,27.0,1
78.0,-315.0,-205.0,-81.0,-44.0,11.0,1
73.0,-310.0,-211.0,-55.0,-8.0,-19.0,1
65.0,-304.0,-211.0,-40.0,26.0,-58.0,1
58.0,-299.0,-212.0,-18.0,54.0,-107.0,1
52.0,-290.0,-214.0,14.0,77.0,-156.0,1
43.0,-282.0,-212.0,54.0,92.0,-201.0,1
34.0,-267.0,-210.0,99.0,99.0,-244.0,1
23.0,-259.0,-204.0,137.0,99.0,-287.0,1
13.0,-248.0,-201.0,170.0,90.0,-315.0,1
5.0,-241.0,-198.0,186.0,70.0,-332.0,1
0.0,-229.0,-192.0,186.0,41.0,-335.0,1
-1.0,-225.0,-188.0,170.0,14.0,-324.0,1
-7.0,-217.0,-184.0,142.0,-9.0,-298.0,1
-4.0,-216.0,-179.0,105.0,-24.0,-260.0,1
2.0,-214.0,-183.0,62.0,-30.0,-211.0,1
10.0,-225.0,-172.0,24.0,-28.0,-160.0,1
17.0,-233.0,-164.0,0.0,-14.0,-108.0,1
25.0,-238.0,-157.0,-2.0,3.0,-53.0,1
32.0,-245.0,-155.0,12.0,19.0,6.0,1
43.0,-251.0,-154.0,32.0,29.0,71.0,1
51.0,-252.0,-155.0,45.0,30.0,134.0,1
57.0,-255.0,-151.0,51.0,29.0,198.0,1
59.0,-254.0,-157.0,52.0,30.0,257.0,1
63.0,-253.0,-155.0,44.0,35.0,309.0,1
73.0,-240.0,-162.0,23.0,48.0,355.0,1
66.0,-246.0,-152.0,-8.0,61.0,393.0,1
67.0,-244.0,-150.0,-44.0,73.0,424.0,1
66.0,-244.0,-151.0,-79.0,84.0,452.0,1
64.0,-243.0,-155.0,-116.0,98.0,475.0,1
63.0,-248.0,-147.0,-145.0,116.0,498.0,1
59.0,-244.0,-140.0,-170.0,135.0,519.0,1
55.0,-246.0,-142.0,-190.0,157.0,537.0,1
50.0,-248.0,-143.0,-205.0,179.0,549.0,1
47.0,-245.0,-143.0,-220.0,205.0,558.0,1
43.0,-249.0,-140.0,-229.0,235.0,562.0,1
36.0,-246.0,-136.0,-232.0,266.0,562.0,1
33.0,-247.0,-141.0,-225.0,297.0,561.0,1
26.0,-247.0,-134.0,-209.0,330.0,557.0,1
17.0,-247.0,-134.0,-189.0,363.0,553.0,1
11.0,-245.0,-136.0,-167.0,391.0,552.0,1
5.0,-244.0,-133.0,-150.0,416.0,543.0,1
3.0,-247.0,-133.0,-130.0,440.0,534.0,1
-1.0,-248.0,-133.0,-110.0,460.0,524.0,1
-1.0,-246.0,-130.0,-91.0,475.0,515.0,1
-8.0,-243.0,-127.0,-76.0,487.0,508.0,1
-5.0,-244.0,-128.0,-60.0,494.0,508.0,1
-3.0,-242.0,-124.0,-53.0,504.0,509.0,1
-1.0,-240.0,-128.0,-45.0,515.0,505.0,1
0.0,-235.0,-122.0,-41.0,524.0,501.0,1
2.0,-233.0,-118.0,-39.0,530.0,497.0,1
10.0,-235.0,-112.0,-37.0,531.0,490.0,1
15.0,-229.0,-111.0,-41.0,527.0,484.0,1
20.0,-230.0,-107.0,-42.0,524.0,473.0,1
21.0,-227.0,-106.0,-43.0,522.0,459.0,1
20.0,-229.0,-104.0,-50.0,514.0,446.0,1
19.0,-225.0,-108.0,-54.0,501.0,431.0,1
19.0,-224.0,-106.0,-58.0,482.0,412.0,1
22.0,-227.0,-108.0,-58.0,462.0,391.0,1
19.0,-221.0,-109.0,-54.0,449.0,361.0,1
19.0,-222.0,-115.0,-52.0,448.0,334.0,1
21.0,-221.0,-118.0,-53.0,454.0,301.0,1
19.0,-219.0,-120.0,-55.0,464.0,267.0,1
21.0,-222.0,-117.0,-58.0,476.0,231.0,1
23.0,-219.0,-123.0,-55.0,490.0,194.0,1
23.0,-220.0,-117.0,-50.0,504.0,162.0,1
21.0,-223.0,-119.0,-41.0,522.0,127.0,1
25.0,-225.0,-114.0,-31.0,538.0,95.0,1
19.0,-230.0,-115.0,-21.0,551.0,65.0,1
21.0,-235.0,-111.0,-14.0,560.0,37.0,1
16.0,-232.0,-112.0,-8.0,566.0,16.0,1
24.0,-240.0,-109.0,-6.0,566.0,-2.0,1
20.0,-244.0,-112.0,1.0,568.0,-16.0,1
21.0,-246.0,-110.0,4.0,573.0,-27.0,1
19.0,-248.0,-110.0,9.0,576.0,-38.0,1
21.0,-252.0,-112.0,12.0,582.0,-50.0,1
18.0,-253.0,-104.0,18.0,589.0,-61.0,1
21.0,-255.0,-105.0,31.0,597.0,-68.0,1
23.0,-256.0,-107.0,50.0,605.0,-74.0,1
24.0,-255.0,-106.0,70.0,611.0,-80.0,1
27.0,-253.0,-101.0,92.0,615.0,-85.0,1
31.0,-257.0,-104.0,108.0,613.0,-87.0,1
30.0,-253.0,-101.0,115.0,607.0,-90.0,1
28.0,-254.0,-102.0,114.0,598.0,-93.0,1
30.0,-252.0,-101.0,101.0,583.0,-92.0,1
31.0,-252.0,-106.0,77.0,566.0,-88.0,1
33.0,-248.0,-105.0,44.0,550.0,-84.0,1
32.0,-248.0,-104.0,6.0,537.0,-82.0,1
28.0,-248.0,-109.0,-30.0,525.0,-82.0,1
27.0,-251.0,-109.0,-57.0,510.0,-89.0,1
22.0,-249.0,-109.0,-75.0,494.0,-99.0,1
17.0,-249.0,-117.0,-81.0,475.0,-110.0,1
15.0,-246.0,-115.0,-81.0,456.0,-121.0,1
12.0,-244.0,-117.0,-73.0,446.0,-135.0,1
11.0,-238.0,-119.0,-66.0,440.0,-147.0,1
10.0,-242.0,-118.0,-62.0,441.0,-159.0,1
5.0,-237.0,-122.0,-63.0,446.0,-168.0,1
4.0,-239.0,-125.0,-69.0,455.0,-172.0,1
10.0,-237.0,-130.0,-86.0,467.0,-171.0,1
5.0,-238.0,-132.0,-112.0,478.0,-165.0,1
9.0,-239.0,-130.0,-144.0,488.0,-157.0,1
8.0,-242.0,-134.0,-177.0,494.0,-147.0,1
11.0,-245.0,-133.0,-208.0,495.0,-133.0,1
11.0,-242.0,-135.0,-231.0,494.0,-123.0,1
21.0,-255.0,-126.0,-245.0,490.0,-112.0,1
24.0,-252.0,-123.0,-249.0,483.0,-103.0,1
33.0,-258.0,-119.0,-237.0,476.0,-98.0,1
37.0,-259.0,-114.0,-217.0,469.0,-100.0,1
35.0,-259.0,-112.0,-187.0,461.0,-102.0,1
38.0,-258.0,-105.0,-153.0,451.0,-108.0,1
44.0,-257.0,-104.0,-115.0,442.0,-112.0,1
44.0,-254.0,-109.0,-78.0,433.0,-119.0,1
43.0,-253.0,-107.0,-41.0,431.0,-127.0,1
41.0,-252.0,-108.0,-19.0,431.0,-130.0,1
36.0,-246.0,-110.0,-12.0,433.0,-135.0,1
35.0,-241.0,-108.0,-18.0,437.0,-136.0,1
35.0,-238.0,-113.0,-35.0,447.0,-134.0,1
32.0,-237.0,-116.0,-55.0,463.0,-132.0,1
32.0,-237.0,-114.0,-82.0,487.0,-131.0,1
24.0,-236.0,-110.0,-104.0,512.0,-129.0,1
23.0,-231.0,-116.0,-127.0,537.0,-125.0,1
18.0,-229.0,-112.0,-147.0,556.0,-119.0,1
18.0,-227.0,-107.0,-164.0,575.0,-113.0,1
26.0,-220.0,-123.0,-180.0,594.0,-105.0,1
21.0,-230.0,-106.0,-192.0,614.0,-97.0,1
25.0,-231.0,-105.0,-206.0,633.0,-95.0,1
25.0,-235.0,-104.0,-221.0,650.0,-92.0,1
30.0,-234.0,-97.0,-231.0,665.0,-96.0,1
29.0,-239.0,-95.0,-231.0,676.0,-101.0,1
32.0,-243.0,-96.0,-224.0,690.0,-110.0,1
33.0,-244.0,-91.0,-210.0,705.0,-114.0,1
33.0,-248.0,-92.0,-193.0,719.0,-124.0,1
31.0,-254.0,-89.0,-169.0,734.0,-134.0,1
29.0,-251.0,-93.0,-149.0,745.0,-143.0,1
37.0,-240.0,-101.0,-129.0,751.0,-151.0,1
29.0,-248.0,-97.0,-113.0,759.0,-160.0,1
27.0,-252.0,-96.0,-100.0,772.0,-166.0,1
27.0,-247.0,-97.0,-87.0,792.0,-170.0,1
29.0,-242.0,-97.0,-76.0,821.0,-174.0,1
32.0,-241.0,-97.0,-70.0,853.0,-176.0,1
34.0,-241.0,-95.0,-76.0,883.0,-175.0,1
37.0,-243.0,-91.0,-65.0,910.0,-176.0,1
38.0,-241.0,-90.0,-47.0,936.0,-178.0,1
40.0,-243.0,-92.0,-32.0,964.0,-184.0,1
41.0,-244.0,-92.0,-20.0,997.0,-185.0,1
38.0,-243.0,-92.0,-14.0,1031.0,-190.0,1
39.0,-250.0,-88.0,1.0,1064.0,-197.0,1
37.0,-255.0,-86.0,23.0,1091.0,-208.0,1
32.0,-256.0,-84.0,56.0,1105.0,-217.0,1
31.0,-260.0,-84.0,99.0,1112.0,-225.0,1
26.0,-260.0,-82.0,143.0,1115.0,-234.0,1
26.0,-261.0,-79.0,182.0,1118.0,-242.0,1
23.0,-257.0,-89.0,213.0,1126.0,-249.0,1
23.0,-258.0,-86.0,234.0,1127.0,-255.0,1
23.0,-254.0,-86.0,249.0,1121.0,-260.0,1
19.0,-250.0,-87.0,255.0,1114.0,-263.0,1
20.0,-243.0,-93.0,251.0,1107.0,-262.0,1
22.0,-243.0,-94.0,239.0,1101.0,-255.0,1
19.0,-237.0,-96.0,231.0,1094.0,-246.0,1
22.0,-234.0,-98.0,234.0,1079.0,-237.0,1
25.0,-236.0,-91.0,252.0,1054.0,-231.0,1
29.0,-233.0,-85.0,282.0,1023.0,-225.0,1
31.0,-237.0,-74.0,323.0,992.0,-222.0,1
34.0,-234.0,-67.0,373.0,964.0,-219.0,1
35.0,-235.0,-61.0,434.0,945.0,-217.0,1
35.0,-237.0,-53.0,489.0,933.0,-223.0,1
38.0,-234.0,-55.0,520.0,930.0,-229.0,1
31.0,-228.0,-55.0,524.0,933.0,-234.0,1
33.0,-226.0,-51.0,495.0,942.0,-240.0,1
35.0,-213.0,-58.0,437.0,942.0,-249.0,1
35.0,-225.0,-66.0,383.0,942.0,-236.0,1
36.0,-219.0,-75.0,294.0,934.0,-268.0,1
36.0,-214.0,-83.0,183.0,929.0,-297.0,1
40.0,-211.0,-85.0,80.0,943.0,-299.0,1
42.0,-209.0,-88.0,4.0,968.0,-288.0,1
46.0,-209.0,-90.0,-36.0,998.0,-267.0,1
49.0,-211.0,-86.0,-43.0,1024.0,-242.0,1
51.0,-208.0,-88.0,-31.0,1041.0,-214.0,1
50.0,-205.0,-95.0,-10.0,1056.0,-187.0,1
50.0,-203.0,-96.0,9.0,1068.0,-159.0,1
43.0,-193.0,-99.0,18.0,1079.0,-130.0,1
45.0,-191.0,-99.0,22.0,1085.0,-104.0,1
42.0,-186.0,-94.0,12.0,1087.0,-82.0,1
43.0,-185.0,-99.0,-8.0,1097.0,-66.0,1
37.0,-178.0,-97.0,-40.0,1120.0,-55.0,1
36.0,-180.0,-95.0,-85.0,1160.0,-47.0,1
30.0,-176.0,-91.0,-134.0,1199.0,-39.0,1
29.0,-177.0,-88.0,-177.0,1231.0,-33.0,1
28.0,-173.0,-81.0,-214.0,1257.0,-28.0,1
24.0,-172.0,-85.0,-246.0,1284.0,-20.0,1
32.0,-171.0,-81.0,-280.0,1313.0,-8.0,1
22.0,-170.0,-81.0,-317.0,1340.0,7.0,1
13.0,-167.0,-83.0,-357.0,1369.0,23.0,1
2.0,-163.0,-83.0,-397.0,1394.0,39.0,1
0.0,-163.0,-77.0,-424.0,1407.0,50.0,1
-1.0,-159.0,-75.0,-436.0,1402.0,57.0,1
-2.0,-159.0,-71.0,-434.0,1385.0,58.0,1
-1.0,-163.0,-61.0,-433.0,1368.0,55.0,1
-4.0,-163.0,-53.0,-435.0,1352.0,52.0,1
3.0,-169.0,-47.0,-438.0,1337.0,49.0,1
2.0,-175.0,-38.0,-450.0,1330.0,35.0,1
0.0,-177.0,-39.0,-479.0,1333.0,14.0,1
0.0,-186.0,-37.0,-516.0,1343.0,1.0,1
-1.0,-190.0,-36.0,-554.0,1354.0,-15.0,1
1.0,-192.0,-38.0,-579.0,1355.0,-27.0,1
1.0,-192.0,-42.0,-589.0,1347.0,-41.0,1
10.0,-198.0,-45.0,-579.0,1331.0,-56.0,1
10.0,-198.0,-47.0,-556.0,1317.0,-71.0,1
10.0,-193.0,-52.0,-532.0,1310.0,-85.0,1
14.0,-195.0,-58.0,-513.0,1308.0,-103.0,1
12.0,-189.0,-57.0,-506.0,1305.0,-120.0,1
10.0,-187.0,-64.0,-506.0,1300.0,-129.0,1
16.0,-176.0,-65.0,-513.0,1283.0,-131.0,1
20.0,-171.0,-66.0,-527.0,1254.0,-125.0,1
18.0,-165.0,-62.0,-551.0,1216.0,-116.0,1
23.0,-163.0,-64.0,-577.0,1175.0,-107.0,1
23.0,-163.0,-60.0,-610.0,1144.0,-99.0,1
19.0,-162.0,-61.0,-646.0,1119.0,-97.0,1
19.0,-164.0,-63.0,-688.0,1107.0,-99.0,1
19.0,-169.0,-68.0,-732.0,1104.0,-105.0,1
16.0,-173.0,-66.0,-781.0,1108.0,-115.0,1
13.0,-170.0,-74.0,-832.0,1110.0,-125.0,1
17.0,-170.0,-79.0,-874.0,1105.0,-130.0,1
18.0,-171.0,-84.0,-909.0,1096.0,-134.0,1
25.0,-167.0,-94.0,-934.0,1089.0,-137.0,1
28.0,-159.0,-93.0,-952.0,1083.0,-135.0,1
26.0,-148.0,-90.0,-948.0,1068.0,-132.0,1
23.0,-142.0,-87.0,-925.0,1046.0,-128.0,1
23.0,-136.0,-79.0,-893.0,1019.0,-118.0,1
22.0,-134.0,-70.0,-861.0,995.0,-108.0,1
22.0,-131.0,-62.0,-846.0,982.0,-104.0,1
17.0,-129.0,-57.0,-847.0,980.0,-105.0,1
9.0,-118.0,-65.0,-867.0,988.0,-116.0,1
3.0,-129.0,-57.0,-907.0,1003.0,-134.0,1
3.0,-132.0,-58.0,-958.0,1024.0,-162.0,1
2.0,-132.0,-63.0,-1006.0,1042.0,-196.0,1
5.0,-141.0,-64.0,-1039.0,1055.0,-234.0,1
7.0,-145.0,-67.0,-1056.0,1067.0,-279.0,1
7.0,-150.0,-68.0,-1065.0,1075.0,-322.0,1
9.0,-152.0,-79.0,-1068.0,1078.0,-362.0,1
9.0,-151.0,-79.0,-1070.0,1076.0,-412.0,1
13.0,-145.0,-87.0,-1066.0,1061.0,-459.0,1
20.0,-136.0,-90.0,-1058.0,1027.0,-481.0,1
16.0,-127.0,-91.0,-1059.0,983.0,-494.0,1
20.0,-122.0,-80.0,-1067.0,935.0,-511.0,1
28.0,-121.0,-76.0,-1081.0,897.0,-537.0,1
30.0,-111.0,-72.0,-1105.0,872.0,-563.0,1
29.0,-105.0,-72.0,-1140.0,857.0,-589.0,1
27.0,-101.0,-72.0,-1181.0,846.0,-611.0,1
28.0,-101.0,-78.0,-1229.0,839.0,-633.0,1
28.0,-100.0,-89.0,-1288.0,841.0,-657.0,1
31.0,-101.0,-99.0,-1355.0,858.0,-691.0,1
28.0,-105.0,-110.0,-1432.0,895.0,-732.0,1
30.0,-107.0,-122.0,-1523.0,954.0,-774.0,1
35.0,-114.0,-126.0,-1623.0,1028.0,-824.0,1
48.0,-125.0,-131.0,-1717.0,1097.0,-873.0,1
57.0,-137.0,-136.0,-1801.0,1167.0,-923.0,1
70.0,-144.0,-149.0,-1877.0,1240.0,-978.0,1
91.0,-163.0,-156.0,-1938.0,1317.0,-1029.0,1
115.0,-162.0,-165.0,-1979.0,1403.0,-1081.0,1
128.0,-177.0,-163.0,-2001.0,1507.0,-1136.0,1
144.0,-190.0,-167.0,-1994.0,1625.0,-1193.0,1
163.0,-193.0,-171.0,-1957.0,1751.0,-1257.0,1
183.0,-200.0,-178.0,-1908.0,1901.0,-1326.0,1
195.0,-203.0,-170.0,-1844.0,2066.0,-1400.0,1
207.0,-197.0,-168.0,-1766.0,2212.0,-1467.0,1
216.0,-196.0,-163.0,-1686.0,2336.0,-1527.0,1
222.0,-192.0,-178.0,-1608.0,2451.0,-1583.0,1
218.0,-189.0,-184.0,-1550.0,2572.0,-1637.0,1
212.0,-181.0,-193.0,-1518.0,2683.0,-1689.0,1
211.0,-179.0,-204.0,-1508.0,2785.0,-1740.0,1
204.0,-173.0,-209.0,-1519.0,2889.0,-1796.0,1
212.0,-170.0,-206.0,-1543.0,2999.0,-1858.0,1
221.0,-168.0,-217.0,-1569.0,3121.0,-1919.0,1
238.0,-174.0,-221.0,-1611.0,3248.0,-1997.0,1
256.0,-183.0,-214.0,-1676.0,3388.0,-2092.0,1
280.0,-194.0,-202.0,-1742.0,3520.0,-2206.0,1
299.0,-210.0,-196.0,-1767.0,3644.0,-2334.0,1
326.0,-232.0,-198.0,-1750.0,3778.0,-2480.0,1
352.0,-262.0,-187.0,-1700.0,3922.0,-2642.0,1
373.0,-262.0,-190.0,-1601.0,4039.0,-2817.0,1
415.0,-270.0,-182.0,-1503.0,4096.0,-3002.0,1
499.0,-281.0,-182.0,-1390.0,4108.0,-3183.0,1
557.0,-294.0,-176.0,-1271.0,4116.0,-3370.0,1
596.0,-316.0,-170.0,-1171.0,4139.0,-3559.0,1
600.0,-339.0,-167.0,-1109.0,4135.0,-3749.0,1
575.0,-354.0,-174.0,-1112.0,4012.0,-3908.0,1
547.0,-369.0,-170.0,-1189.0,3800.0,-4025.0,1
506.0,-368.0,-165.0,-1289.0,3565.0,-4104.0,1
470.0,-380.0,-179.0,-1362.0,3367.0,-4125.0,1
459.0,-392.0,-186.0,-1432.0,3250.0,-4063.0,1
529.0,-400.0,-178.0,-1485.0,3210.0,-3934.0,1
569.0,-398.0,-162.0,-1456.0,3229.0,-3805.0,1
580.0,-403.0,-144.0,-1340.0,3307.0,-3666.0,1
604.0,-394.0,-124.0,-1195.0,3336.0,-3617.0,1
639.0,-370.0,-105.0,-1042.0,3253.0,-3647.0,1
662.0,-341.0,-96.0,-909.0,3080.0,-3759.0,1
673.0,-314.0,-88.0,-819.0,2954.0,-3900.0,1
700.0,-279.0,-73.0,-734.0,2944.0,-4008.0,1
684.0,-266.0,-50.0,-589.0,3034.0,-4060.0,1
655.0,-261.0,-16.0,-459.0,3113.0,-4068.0,1
622.0,-245.0,14.0,-328.0,3111.0,-4008.0,1
552.0,-224.0,46.0,-139.0,3024.0,-3871.0,1
432.0,-204.0,71.0,103.0,2863.0,-3663.0,1
287.0,-190.0,97.0,370.0,2617.0,-3397.0,1
199.0,-167.0,86.0,666.0,2258.0,-3121.0,1
158.0,-134.0,65.0,958.0,1881.0,-2809.0,1
206.0,-120.0,49.0,1172.0,1634.0,-2420.0,1
318.0,-124.0,25.0,1274.0,1600.0,-2025.0,1
439.0,-131.0,23.0,1253.0,1751.0,-1774.0,1
546.0,-124.0,25.0,1174.0,1970.0,-1715.0,1
619.0,-117.0,32.0,1146.0,2144.0,-1789.0,1
647.0,-102.0,25.0,1233.0,2183.0,-1911.0,1
676.0,-72.0,-4.0,1443.0,2109.0,-2046.0,1
673.0,-28.0,-18.0,1715.0,2043.0,-2217.0,1
628.0,21.0,-25.0,1979.0,2071.0,-2394.0,1
546.0,63.0,-38.0,2173.0,2165.0,-2494.0,1
481.0,109.0,-50.0,2223.0,2229.0,-2488.0,1
430.0,144.0,-37.0,2180.0,2266.0,-2363.0,1
384.0,174.0,-14.0,2135.0,2248.0,-2204.0,1
338.0,175.0,-22.0,2105.0,2174.0,-2026.0,1
322.0,162.0,-26.0,1994.0,2034.0,-1819.0,1
312.0,131.0,-26.0,1822.0,1873.0,-1607.0,1
304.0,90.0,-47.0,1605.0,1772.0,-1335.0,1
293.0,55.0,-58.0,1265.0,1759.0,-1030.0,1
257.0,33.0,-59.0,927.0,1811.0,-757.0,1
207.0,24.0,-62.0,748.0,1861.0,-542.0,1
174.0,14.0,-57.0,746.0,1859.0,-371.0,1
139.0,10.0,-64.0,877.0,1795.0,-217.0,1
127.0,3.0,-74.0,1070.0,1702.0,-64.0,1
117.0,6.0,-81.0,1301.0,1617.0,64.0,1
117.0,22.0,-83.0,1570.0,1563.0,131.0,1
125.0,52.0,-88.0,1821.0,1564.0,136.0,1
127.0,90.0,-77.0,2005.0,1620.0,82.0,1
124.0,127.0,-58.0,2080.0,1697.0,6.0,1
131.0,159.0,-31.0,2042.0,1770.0,-39.0,1
149.0,190.0,-7.0,1912.0,1841.0,-40.0,1
171.0,211.0,17.0,1709.0,1900.0,-5.0,1
194.0,241.0,46.0,1474.0,1936.0,44.0,1
207.0,256.0,49.0,1243.0,1953.0,98.0,1
205.0,271.0,56.0,1016.0,1960.0,167.0,1
211.0,282.0,55.0,785.0,1954.0,246.0,1
220.0,282.0,52.0,544.0,1933.0,342.0,1
238.0,279.0,43.0,313.0,1902.0,425.0,1
253.0,267.0,44.0,94.0,1874.0,475.0,1
256.0,251.0,59.0,-113.0,1871.0,530.0,1
281.0,224.0,70.0,-272.0,1859.0,606.0,1
271.0,198.0,65.0,-353.0,1824.0,676.0,1
255.0,172.0,46.0,-378.0,1789.0,757.0,1
225.0,147.0,35.0,-409.0,1760.0,886.0,1
205.0,119.0,32.0,-431.0,1720.0,1042.0,1
190.0,105.0,34.0,-419.0,1663.0,1192.0,1
209.0,100.0,35.0,-377.0,1588.0,1333.0,1
220.0,104.0,41.0,-285.0,1553.0,1448.0,1
222.0,111.0,49.0,-148.0,1578.0,1520.0,1
206.0,122.0,67.0,3.0,1624.0,1585.0,1
205.0,129.0,66.0,126.0,1656.0,1664.0,1
191.0,149.0,75.0,185.0,1673.0,1757.0,1
194.0,162.0,74.0,188.0,1673.0,1879.0,1
201.0,167.0,70.0,130.0,1692.0,1985.0,1
193.0,155.0,73.0,9.0,1724.0,2026.0,1
188.0,145.0,84.0,-179.0,1726.0,1960.0,1
177.0,146.0,102.0,-391.0,1698.0,1826.0,1
168.0,143.0,121.0,-543.0,1669.0,1732.0,1
165.0,130.0,123.0,-614.0,1644.0,1702.0,1
159.0,121.0,118.0,-632.0,1635.0,1707.0,1
151.0,108.0,118.0,-631.0,1643.0,1721.0,1
143.0,96.0,125.0,-615.0,1638.0,1726.0,1
132.0,93.0,138.0,-573.0,1596.0,1733.0,1
128.0,88.0,144.0,-478.0,1524.0,1738.0,1
114.0,89.0,152.0,-349.0,1436.0,1714.0,1
91.0,96.0,158.0,-235.0,1338.0,1670.0,1
78.0,97.0,167.0,-183.0,1235.0,1630.0,1
70.0,101.0,174.0,-179.0,1126.0,1573.0,1
66.0,114.0,181.0,-207.0,1020.0,1505.0,1
66.0,121.0,189.0,-258.0,915.0,1426.0,1
78.0,126.0,194.0,-324.0,813.0,1339.0,1
97.0,135.0,195.0,-404.0,722.0,1253.0,1
115.0,139.0,190.0,-500.0,653.0,1173.0,1
130.0,140.0,190.0,-592.0,615.0,1098.0,1
142.0,136.0,184.0,-677.0,612.0,1007.0,1
149.0,127.0,190.0,-751.0,625.0,897.0,1
147.0,122.0,189.0,-823.0,629.0,789.0,1
139.0,106.0,192.0,-896.0,608.0,686.0,1
137.0,79.0,185.0,-940.0,555.0,588.0,1
142.0,53.0,186.0,-944.0,497.0,496.0,1
147.0,27.0,190.0,-906.0,453.0,403.0,1
154.0,2.0,201.0,-822.0,416.0,316.0,1
165.0,-13.0,203.0,-703.0,381.0,238.0,1
166.0,-22.0,207.0,-554.0,348.0,166.0,1
139.0,-27.0,213.0,-393.0,308.0,99.0,1
113.0,-16.0,209.0,-213.0,226.0,40.0,1
101.0,-8.0,197.0,-42.0,110.0,-2.0,1
100.0,0.0,182.0,77.0,-12.0,-32.0,1
104.0,10.0,175.0,127.0,-119.0,-65.0,1
107.0,12.0,172.0,129.0,-210.0,-91.0,1
107.0,15.0,176.0,104.0,-288.0,-115.0,1
115.0,12.0,180.0,73.0,-358.0,-145.0,1
121.0,9.0,182.0,48.0,-414.0,-169.0,1
137.0,-1.0,191.0,29.0,-448.0,-193.0,1
151.0,-9.0,197.0,12.0,-463.0,-227.0,1
165.0,-20.0,202.0,-6.0,-461.0,-256.0,1
178.0,-31.0,215.0,-28.0,-444.0,-277.0,1
189.0,-40.0,216.0,-56.0,-419.0,-277.0,1
193.0,-40.0,202.0,-89.0,-382.0,-250.0,1
200.0,-43.0,207.0,-120.0,-334.0,-212.0,1
200.0,-41.0,205.0,-145.0,-285.0,-164.0,1
210.0,-45.0,200.0,-170.0,-241.0,-108.0,1
211.0,-51.0,199.0,-199.0,-195.0,-51.0,1
206.0,-52.0,192.0,-222.0,-168.0,9.0,1
204.0,-59.0,186.0,-238.0,-156.0,82.0,1
200.0,-66.0,176.0,-251.0,-156.0,164.0,1
197.0,-72.0,170.0,-267.0,-165.0,243.0,1
194.0,-78.0,162.0,-285.0,-185.0,315.0,1
191.0,-77.0,158.0,-292.0,-210.0,379.0,1
192.0,-83.0,150.0,-276.0,-240.0,430.0,1
192.0,-83.0,142.0,-233.0,-267.0,453.0,1
189.0,-81.0,141.0,-173.0,-292.0,460.0,1
184.0,-80.0,134.0,-100.0,-307.0,463.0,1
186.0,-77.0,132.0,-34.0,-319.0,467.0,1
182.0,-72.0,129.0,27.0,-329.0,457.0,1
174.0,-62.0,126.0,76.0,-340.0,437.0,1
167.0,-53.0,117.0,102.0,-350.0,420.0,1
165.0,-44.0,115.0,104.0,-361.0,409.0,1
171.0,-33.0,110.0,84.0,-373.0,396.0,1
175.0,-24.0,107.0,52.0,-391.0,379.0,1
165.0,-11.0,94.0,17.0,-395.0,371.0,1
168.0,-14.0,99.0,-25.0,-399.0,365.0,1
175.0,-16.0,98.0,-82.0,-398.0,354.0,1
188.0,-16.0,93.0,-142.0,-399.0,337.0,1
209.0,-28.0,93.0,-202.0,-417.0,308.0,1
214.0,-34.0,96.0,-262.0,-438.0,267.0,1
228.0,-48.0,89.0,-302.0,-466.0,241.0,1
231.0,-58.0,92.0,-336.0,-477.0,220.0,1
241.0,-66.0,94.0,-362.0,-468.0,200.0,1
248.0,-71.0,93.0,-369.0,-437.0,187.0,1
257.0,-80.0,106.0,-355.0,-417.0,169.0,1
255.0,-87.0,93.0,-328.0,-424.0,151.0,1
259.0,-91.0,88.0,-292.0,-422.0,139.0,1
260.0,-95.0,86.0,-256.0,-408.0,121.0,1
254.0,-94.0,88.0,-210.0,-386.0,104.0,1
254.0,-93.0,87.0,-161.0,-361.0,92.0,1
250.0,-91.0,89.0,-112.0,-345.0,84.0,1
251.0,-88.0,91.0,-67.0,-333.0,81.0,1
244.0,-80.0,91.0,-32.0,-321.0,78.0,1
254.0,-79.0,93.0,-9.0,-294.0,82.0,1
254.0,-78.0,94.0,3.0,-262.0,81.0,1
252.0,-75.0,98.0,16.0,-233.0,74.0,1
255.0,-77.0,101.0,31.0,-204.0,71.0,1
254.0,-73.0,101.0,42.0,-182.0,61.0,1
249.0,-73.0,104.0,50.0,-171.0,56.0,1
249.0,-71.0,103.0,53.0,-165.0,49.0,1
243.0,-67.0,99.0,52.0,-155.0,34.0,1
242.0,-67.0,95.0,48.0,-137.0,22.0,1
236.0,-66.0,93.0,39.0,-110.0,14.0,1
236.0,-69.0,100.0,23.0,-81.0,6.0,1
237.0,-65.0,99.0,7.0,-53.0,-2.0,1
232.0,-66.0,95.0,-12.0,-27.0,-12.0,1
234.0,-63.0,97.0,-25.0,-2.0,-18.0,1
235.0,-69.0,98.0,-34.0,23.0,-21.0,1
236.0,-67.0,99.0,-38.0,49.0,-25.0,1
237.0,-66.0,94.0,-33.0,71.0,-30.0,1
238.0,-66.0,96.0,-25.0,95.0,-32.0,1
237.0,-63.0,94.0,-14.0,117.0,-32.0,1
235.0,-62.0,92.0,-1.0,141.0,-32.0,1
232.0,-60.0,94.0,11.0,160.0,-35.0,1
234.0,-58.0,96.0,21.0,175.0,-37.0,1
232.0,-52.0,94.0,29.0,190.0,-41.0,1
233.0,-49.0,94.0,32.0,204.0,-46.0,1
232.0,-46.0,95.0,31.0,220.0,-50.0,1
230.0,-41.0,90.0,25.0,236.0,-53.0,1
230.0,-41.0,94.0,16.0,252.0,-59.0,1
231.0,-37.0,97.0,3.0,268.0,-60.0,1
231.0,-39.0,97.0,-11.0,276.0,-65.0,1
233.0,-39.0,100.0,-27.0,279.0,-68.0,1
233.0,-39.0,105.0,-40.0,278.0,-72.0,1
234.0,-38.0,109.0,-50.0,278.0,-72.0,1
233.0,-39.0,108.0,-59.0,276.0,-73.0,1
235.0,-35.0,111.0,-65.0,275.0,-71.0,1
232.0,-37.0,114.0,-70.0,272.0,-72.0,1
232.0,-38.0,112.0,-72.0,274.0,-71.0,1
230.0,-35.0,116.0,-69.0,273.0,-71.0,1
230.0,-34.0,114.0,-66.0,273.0,-74.0,1
229.0,-35.0,116.0,-61.0,269.0,-70.0,1
227.0,-34.0,118.0,-57.0,264.0,-67.0,1
226.0,-33.0,118.0,-54.0,259.0,-67.0,1
228.0,-35.0,122.0,-49.0,255.0,-65.0,1
222.0,-38.0,119.0,-41.0,253.0,-61.0,1
225.0,-37.0,122.0,-33.0,247.0,-53.0,1
221.0,-37.0,121.0,-22.0,242.0,-44.0,1
220.0,-37.0,126.0,-7.0,236.0,-37.0,1
215.0,-36.0,125.0,13.0,233.0,-34.0,1
215.0,-42.0,131.0,38.0,232.0,-27.0,1
212.0,-37.0,128.0,63.0,230.0,-20.0,1
208.0,-39.0,132.0,84.0,228.0,-13.0,1
209.0,-33.0,127.0,103.0,225.0,-3.0,1
208.0,-31.0,126.0,109.0,224.0,6.0,1
205.0,-30.0,129.0,111.0,222.0,13.0,1
204.0,-34.0,131.0,106.0,221.0,20.0,1
206.0,-31.0,132.0,96.0,219.0,30.0,1
200.0,-33.0,133.0,84.0,219.0,39.0,1
203.0,-33.0,137.0,69.0,215.0,43.0,1
202.0,-35.0,137.0,58.0,213.0,47.0,1
202.0,-38.0,138.0,51.0,210.0,48.0,1
198.0,-39.0,140.0,49.0,207.0,50.0,1
201.0,-42.0,139.0,50.0,206.0,50.0,1
199.0,-41.0,139.0,52.0,202.0,50.0,1
196.0,-41.0,136.0,52.0,199.0,53.0,1
194.0,-39.0,135.0,51.0,193.0,55.0,1
194.0,-44.0,137.0,49.0,187.0,58.0,1
193.0,-41.0,138.0,44.0,176.0,59.0,1
192.0,-44.0,141.0,39.0,162.0,59.0,1
193.0,-44.0,140.0,33.0,152.0,62.0,1
197.0,-54.0,144.0,31.0,139.0,62.0,1
192.0,-44.0,142.0,30.0,125.0,62.0,1
192.0,-49.0,139.0,33.0,112.0,63.0,1
192.0,-46.0,144.0,37.0,102.0,61.0,1
194.0,-45.0,137.0,38.0,91.0,57.0,1
194.0,-46.0,141.0,39.0,82.0,53.0,1
197.0,-48.0,141.0,36.0,73.0,51.0,1
195.0,-46.0,137.0,33.0,64.0,50.0,1
196.0,-46.0,138.0,28.0,56.0,46.0,1
196.0,-45.0,137.0,21.0,48.0,43.0,1
197.0,-47.0,138.0,17.0,42.0,43.0,1
201.0,-51.0,137.0,18.0,36.0,44.0,1
201.0,-52.0,131.0,21.0,30.0,42.0,1
201.0,-53.0,133.0,24.0,24.0,42.0,1
205.0,-54.0,136.0,34.0,16.0,42.0,1
205.0,-49.0,136.0,48.0,8.0,38.0,1
203.0,-50.0,132.0,64.0,2.0,38.0,1
204.0,-48.0,131.0,79.0,-3.0,38.0,1
205.0,-45.0,128.0,91.0,-2.0,36.0,1
206.0,-47.0,128.0,98.0,-2.0,36.0,1
208.0,-45.0,129.0,101.0,1.0,36.0,1
206.0,-41.0,124.0,100.0,2.0,36.0,1
206.0,-42.0,116.0,94.0,4.0,37.0,1
208.0,-41.0,123.0,85.0,8.0,36.0,1
208.0,-42.0,125.0,77.0,13.0,39.0,1
211.0,-44.0,127.0,67.0,14.0,39.0,1
212.0,-49.0,127.0,62.0,13.0,40.0,1
209.0,-46.0,127.0,58.0,6.0,37.0,1
213.0,-48.0,126.0,61.0,0.0,37.0,1
213.0,-46.0,127.0,66.0,-7.0,38.0,1
210.0,-42.0,127.0,72.0,-11.0,37.0,1
213.0,-42.0,128.0,75.0,-13.0,36.0,1
222.0,-40.0,118.0,76.0,-12.0,33.0,1
215.0,-41.0,127.0,78.0,-10.0,30.0,1
214.0,-41.0,125.0,73.0,-4.0,28.0,1
213.0,-38.0,128.0,68.0,4.0,29.0,1
215.0,-45.0,127.0,61.0,13.0,29.0,1
215.0,-40.0,127.0,55.0,22.0,29.0,1
214.0,-41.0,129.0,51.0,28.0,25.0,1
216.0,-40.0,127.0,47.0,31.0,22.0,1
215.0,-42.0,129.0,45.0,30.0,20.0,1
214.0,-43.0,130.0,45.0,28.0,16.0,1
212.0,-41.0,129.0,45.0,24.0,12.0,1
213.0,-44.0,127.0,43.0,23.0,10.0,1
213.0,-43.0,129.0,40.0,24.0,9.0,1
210.0,-50.0,130.0,41.0,23.0,7.0,1
212.0,-48.0,127.0,43.0,24.0,6.0,1
211.0,-42.0,127.0,43.0,24.0,5.0,1
208.0,-46.0,127.0,45.0,24.0,5.0,1
205.0,-45.0,130.0,45.0,26.0,6.0,1
206.0,-46.0,127.0,51.0,29.0,8.0,1
207.0,-49.0,130.0,56.0,32.0,9.0,1
207.0,-51.0,125.0,61.0,34.0,11.0,1
203.0,-53.0,129.0,71.0,34.0,12.0,1
203.0,-56.0,126.0,89.0,31.0,15.0,1
206.0,-64.0,124.0,112.0,31.0,19.0,1
207.0,-70.0,126.0,148.0,30.0,24.0,1
206.0,-78.0,130.0,197.0,19.0,30.0,1
206.0,-81.0,132.0,259.0,-9.0,36.0,1
206.0,-84.0,132.0,332.0,-48.0,47.0,1
205.0,-80.0,136.0,410.0,-111.0,53.0,1
201.0,-73.0,124.0,492.0,-184.0,54.0,1
198.0,-65.0,110.0,571.0,-247.0,49.0,1
191.0,-56.0,99.0,643.0,-272.0,33.0,1
188.0,-45.0,96.0,698.0,-267.0,15.0,1
182.0,-32.0,102.0,737.0,-234.0,-4.0,1
177.0,-20.0,113.0,759.0,-184.0,-25.0,1
185.0,-19.0,116.0,768.0,-144.0,-43.0,1
182.0,-12.0,126.0,751.0,-117.0,-69.0,1
182.0,-12.0,131.0,709.0,-92.0,-97.0,1
180.0,-14.0,127.0,654.0,-68.0,-127.0,1
181.0,-11.0,120.0,579.0,-61.0,-155.0,1
189.0,-15.0,119.0,476.0,-65.0,-173.0,1
198.0,-18.0,113.0,350.0,-64.0,-185.0,1
212.0,-15.0,118.0,217.0,-46.0,-193.0,1
225.0,-15.0,123.0,101.0,-19.0,-198.0,1
235.0,-11.0,131.0,11.0,13.0,-205.0,1
246.0,-8.0,138.0,-44.0,40.0,-215.0,1
253.0,-1.0,144.0,-66.0,64.0,-224.0,1
257.0,4.0,143.0,-71.0,87.0,-230.0,1
256.0,11.0,148.0,-70.0,107.0,-226.0,1
251.0,16.0,143.0,-77.0,126.0,-217.0,1
254.0,21.0,145.0,-99.0,144.0,-200.0,1
249.0,23.0,142.0,-143.0,165.0,-174.0,1
245.0,19.0,141.0,-199.0,182.0,-134.0,1
239.0,12.0,144.0,-268.0,187.0,-92.0,1
236.0,4.0,145.0,-336.0,187.0,-56.0,1
228.0,-1.0,147.0,-388.0,179.0,-27.0,1
220.0,-11.0,146.0,-423.0,162.0,-1.0,1
221.0,-26.0,141.0,-432.0,143.0,17.0,1
213.0,-30.0,130.0,-420.0,126.0,26.0,1
212.0,-33.0,133.0,-395.0,126.0,30.0,1
207.0,-41.0,134.0,-366.0,136.0,31.0,1
202.0,-47.0,139.0,-332.0,137.0,28.0,1
197.0,-58.0,141.0,-284.0,112.0,24.0,1
194.0,-65.0,147.0,-221.0,70.0,22.0,1
191.0,-72.0,152.0,-144.0,23.0,18.0,1
190.0,-75.0,140.0,-55.0,-21.0,12.0,1
182.0,-66.0,133.0,41.0,-45.0,-1.0,1
182.0,-59.0,125.0,126.0,-44.0,-17.0,1
181.0,-46.0,123.0,188.0,-28.0,-36.0,1
181.0,-37.0,120.0,221.0,-17.0,-55.0,1
178.0,-26.0,122.0,229.0,-23.0,-72.0,1
179.0,-21.0,118.0,220.0,-39.0,-84.0,1
185.0,-16.0,123.0,194.0,-49.0,-97.0,1
192.0,-12.0,124.0,153.0,-50.0,-105.0,1
202.0,-9.0,126.0,103.0,-42.0,-112.0,1
203.0,-3.0,128.0,54.0,-20.0,-123.0,1
207.0,-1.0,130.0,11.0,10.0,-130.0,1
207.0,7.0,136.0,-23.0,40.0,-133.0,1
213.0,0.0,135.0,-51.0,68.0,-128.0,1
216.0,1.0,136.0,-80.0,93.0,-119.0,1
216.0,5.0,134.0,-109.0,115.0,-102.0,1
222.0,1.0,132.0,-142.0,131.0,-79.0,1
226.0,4.0,132.0,-168.0,140.0,-51.0,1
229.0,0.0,130.0,-198.0,142.0,-23.0,1
230.0,-2.0,135.0,-226.0,140.0,3.0,1
231.0,-3.0,139.0,-251.0,142.0,28.0,1
230.0,-12.0,142.0,-273.0,150.0,51.0,1
229.0,-21.0,138.0,-290.0,152.0,73.0,1
226.0,-31.0,138.0,-297.0,152.0,91.0,1
223.0,-39.0,137.0,-287.0,150.0,105.0,1
220.0,-50.0,134.0,-260.0,142.0,116.0,1
218.0,-55.0,137.0,-219.0,133.0,126.0,1
214.0,-60.0,137.0,-169.0,127.0,127.0,1
211.0,-65.0,129.0,-112.0,120.0,124.0,1
209.0,-67.0,137.0,-52.0,108.0,117.0,1
203.0,-70.0,132.0,12.0,89.0,107.0,1
200.0,-66.0,133.0,74.0,65.0,91.0,1
196.0,-62.0,125.0,137.0,42.0,73.0,1
191.0,-43.0,109.0,195.0,31.0,53.0,1
190.0,-44.0,122.0,245.0,32.0,32.0,1
192.0,-35.0,118.0,282.0,40.0,8.0,1
187.0,-25.0,125.0,298.0,47.0,-15.0,1
189.0,-18.0,124.0,297.0,53.0,-34.0,1
190.0,-16.0,131.0,281.0,53.0,-48.0,1
192.0,-8.0,129.0,249.0,52.0,-52.0,1
198.0,-2.0,131.0,198.0,51.0,-57.0,1
204.0,0.0,129.0,137.0,57.0,-59.0,1
211.0,1.0,133.0,69.0,72.0,-61.0,1
214.0,0.0,141.0,5.0,87.0,-63.0,1
218.0,0.0,131.0,-51.0,98.0,-65.0,1
224.0,0.0,141.0,-96.0,111.0,-63.0,1
227.0,-1.0,140.0,-133.0,126.0,-56.0,1
227.0,-3.0,135.0,-152.0,139.0,-45.0,1
227.0,-4.0,137.0,-164.0,143.0,-31.0,1
227.0,-7.0,137.0,-173.0,134.0,-16.0,1
227.0,-3.0,131.0,-183.0,121.0,-4.0,1
222.0,-7.0,135.0,-203.0,122.0,9.0,1
225.0,-18.0,136.0,-222.0,131.0,22.0,1
220.0,-23.0,135.0,-232.0,135.0,32.0,1
216.0,-30.0,135.0,-233.0,130.0,41.0,1
211.0,-31.0,138.0,-226.0,123.0,49.0,1
207.0,-38.0,137.0,-212.0,121.0,52.0,1
205.0,-40.0,139.0,-191.0,125.0,51.0,1
202.0,-42.0,134.0,-172.0,128.0,49.0,1
199.0,-45.0,136.0,-154.0,128.0,42.0,1
195.0,-49.0,142.0,-134.0,125.0,35.0,1
194.0,-50.0,136.0,-109.0,109.0,25.0,1
193.0,-57.0,142.0,-77.0,81.0,17.0,1
190.0,-57.0,144.0,-40.0,46.0,10.0,1
187.0,-55.0,142.0,-1.0,15.0,2.0,1
186.0,-49.0,142.0,33.0,-4.0,-5.0,1
183.0,-45.0,137.0,63.0,-9.0,-11.0,1
180.0,-40.0,133.0,85.0,-7.0,-22.0,1
181.0,-40.0,130.0,104.0,-7.0,-34.0,1
183.0,-34.0,132.0,116.0,-13.0,-45.0,1
183.0,-27.0,129.0,125.0,-25.0,-54.0,1
183.0,-23.0,131.0,128.0,-37.0,-61.0,1
187.0,-22.0,130.0,120.0,-44.0,-64.0,1
192.0,-15.0,132.0,107.0,-43.0,-65.0,1
196.0,-10.0,133.0,78.0,-31.0,-71.0,1
203.0,-11.0,131.0,40.0,-15.0,-73.0,1
209.0,-9.0,135.0,-6.0,4.0,-69.0,1
215.0,-9.0,137.0,-52.0,22.0,-66.0,1
217.0,-15.0,143.0,-88.0,42.0,-62.0,1
217.0,-8.0,144.0,-113.0,62.0,-54.0,1
219.0,-10.0,146.0,-128.0,81.0,-43.0,1
218.0,-13.0,146.0,-135.0,91.0,-28.0,1
214.0,-10.0,142.0,-139.0,90.0,-15.0,1
219.0,-15.0,138.0,-145.0,74.0,-2.0,1
215.0,-20.0,138.0,-148.0,62.0,13.0,1
214.0,-21.0,133.0,-146.0,57.0,28.0,1
210.0,-28.0,139.0,-140.0,58.0,38.0,1
210.0,-29.0,139.0,-129.0,59.0,46.0,1
205.0,-34.0,139.0,-114.0,59.0,48.0,1
204.0,-34.0,137.0,-97.0,57.0,50.0,1
202.0,-39.0,142.0,-77.0,60.0,49.0,1
202.0,-42.0,138.0,-55.0,60.0,45.0,1
201.0,-39.0,137.0,-39.0,56.0,38.0,1
204.0,-37.0,135.0,-30.0,48.0,29.0,1
201.0,-32.0,138.0,-25.0,36.0,23.0,1
200.0,-33.0,138.0,-21.0,27.0,16.0,1
202.0,-28.0,135.0,-16.0,23.0,11.0,1
199.0,-27.0,135.0,-16.0,27.0,8.0,1
198.0,-25.0,135.0,-19.0,33.0,6.0,1
202.0,-25.0,135.0,-26.0,35.0,8.0,1
195.0,-26.0,140.0,-28.0,25.0,10.0,1
197.0,-32.0,140.0,-24.0,1.0,13.0,1
193.0,-30.0,136.0,-17.0,-26.0,17.0,1
195.0,-34.0,133.0,-7.0,-44.0,18.0,1
196.0,-29.0,130.0,-1.0,-52.0,17.0,1
197.0,-29.0,129.0,2.0,-58.0,14.0,1
200.0,-27.0,131.0,1.0,-63.0,8.0,1
201.0,-28.0,132.0,-1.0,-69.0,-2.0,1
201.0,-27.0,123.0,1.0,-76.0,-12.0,1
203.0,-22.0,126.0,2.0,-74.0,-24.0,1
206.0,-18.0,126.0,-5.0,-63.0,-35.0,1
210.0,-15.0,133.0,-20.0,-48.0,-43.0,1
211.0,-13.0,134.0,-39.0,-34.0,-48.0,1
210.0,-12.0,131.0,-63.0,-16.0,-50.0,1
211.0,-13.0,137.0,-89.0,-5.0,-50.0,1
217.0,-17.0,138.0,-112.0,4.0,-45.0,1
218.0,-20.0,138.0,-136.0,14.0,-37.0,1
218.0,-18.0,143.0,-157.0,25.0,-25.0,1
216.0,-22.0,141.0,-169.0,38.0,-14.0,1
213.0,-22.0,143.0,-176.0,46.0,-5.0,1
214.0,-29.0,144.0,-178.0,52.0,7.0,1
214.0,-30.0,134.0,-178.0,52.0,16.0,1
210.0,-30.0,138.0,-174.0,45.0,27.0,1
210.0,-31.0,135.0,-170.0,37.0,35.0,1
213.0,-36.0,138.0,-163.0,36.0,41.0,1
212.0,-38.0,134.0,-152.0,44.0,45.0,1
207.0,-38.0,132.0,-138.0,51.0,46.0,1
205.0,-41.0,133.0,-119.0,53.0,46.0,1
202.0,-42.0,139.0,-97.0,52.0,43.0,1
201.0,-39.0,137.0,-74.0,48.0,40.0,1
196.0,-38.0,138.0,-55.0,44.0,36.0,1
200.0,-39.0,133.0,-41.0,38.0,31.0,1
194.0,-32.0,139.0,-30.0,35.0,28.0,1
196.0,-29.0,137.0,-28.0,31.0,24.0,1
197.0,-31.0,135.0,-26.0,31.0,19.0,1
198.0,-29.0,137.0,-30.0,33.0,14.0,1
198.0,-28.0,140.0,-35.0,35.0,13.0,1
196.0,-26.0,140.0,-44.0,32.0,10.0,1
200.0,-24.0,137.0,-51.0,25.0,11.0,1
201.0,-27.0,136.0,-58.0,16.0,11.0,1
200.0,-26.0,133.0,-65.0,6.0,13.0,1
204.0,-29.0,135.0,-75.0,2.0,16.0,1
201.0,-24.0,135.0,-81.0,0.0,20.0,1
204.0,-27.0,134.0,-88.0,1.0,23.0,1
204.0,-28.0,134.0,-92.0,-1.0,27.0,1
207.0,-33.0,134.0,-92.0,-1.0,30.0,1
201.0,-36.0,136.0,-87.0,-3.0,31.0,1
202.0,-40.0,133.0,-72.0,-3.0,31.0,1
205.0,-46.0,136.0,-55.0,-7.0,30.0,1
201.0,-46.0,137.0,-36.0,-13.0,29.0,1
204.0,-45.0,133.0,-17.0,-25.0,28.0,1
202.0,-40.0,132.0,3.0,-34.0,23.0,1
206.0,-38.0,130.0,25.0,-42.0,19.0,1
206.0,-36.0,130.0,39.0,-40.0,12.0,1
205.0,-29.0,128.0,50.0,-33.0,3.0,1
205.0,-28.0,130.0,56.0,-22.0,-8.0,1
205.0,-22.0,130.0,54.0,-11.0,-14.0,1
203.0,-20.0,134.0,45.0,-4.0,-19.0,1
204.0,-17.0,131.0,30.0,3.0,-22.0,1
205.0,-15.0,137.0,10.0,8.0,-22.0,1
205.0,-17.0,139.0,-12.0,11.0,-19.0,1
206.0,-15.0,136.0,-33.0,11.0,-11.0,1
209.0,-23.0,135.0,-53.0,12.0,-5.0,1
208.0,-20.0,134.0,-71.0,11.0,3.0,1
210.0,-21.0,135.0,-89.0,8.0,10.0,1
205.0,-21.0,136.0,-103.0,6.0,17.0,1
208.0,-19.0,135.0,-117.0,9.0,22.0,1
212.0,-23.0,138.0,-134.0,13.0,28.0,1
209.0,-23.0,137.0,-147.0,20.0,33.0,1
208.0,-27.0,141.0,-158.0,26.0,36.0,1
205.0,-33.0,141.0,-165.0,30.0,39.0,1
203.0,-39.0,142.0,-161.0,29.0,39.0,1
202.0,-46.0,143.0,-148.0,23.0,42.0,1
201.0,-51.0,139.0,-122.0,13.0,42.0,1
201.0,-54.0,140.0,-86.0,-7.0,41.0,1
203.0,-55.0,137.0,-45.0,-29.0,40.0,1
202.0,-52.0,135.0,-1.0,-44.0,35.0,1
205.0,-51.0,131.0,42.0,-49.0,29.0,1
202.0,-44.0,132.0,75.0,-45.0,20.0,1
201.0,-38.0,128.0,101.0,-39.0,11.0,1
202.0,-31.0,126.0,119.0,-35.0,1.0,1
204.0,-24.0,124.0,127.0,-33.0,-9.0,1
203.0,-22.0,124.0,127.0,-30.0,-19.0,1
204.0,-17.0,126.0,120.0,-26.0,-29.0,1
206.0,-12.0,127.0,104.0,-22.0,-34.0,1
208.0,-14.0,128.0,78.0,-14.0,-37.0,1
206.0,-14.0,131.0,45.0,-9.0,-38.0,1
207.0,-11.0,130.0,8.0,-5.0,-35.0,1
206.0,-13.0,136.0,-28.0,-2.0,-29.0,1
209.0,-14.0,133.0,-62.0,-1.0,-24.0,1
208.0,-16.0,135.0,-91.0,1.0,-18.0,1
202.0,-22.0,133.0,-114.0,0.0,-11.0,1
209.0,-24.0,135.0,-132.0,-5.0,-4.0,1
208.0,-25.0,132.0,-141.0,-9.0,0.0,1
207.0,-23.0,135.0,-146.0,-14.0,4.0,1
208.0,-23.0,131.0,-146.0,-19.0,7.0,1
210.0,-24.0,135.0,-147.0,-24.0,10.0,1
207.0,-24.0,134.0,-147.0,-28.0,14.0,1
207.0,-22.0,135.0,-149.0,-31.0,17.0,1
208.0,-22.0,138.0,-155.0,-27.0,21.0,1
208.0,-23.0,139.0,-165.0,-24.0,23.0,1
207.0,-21.0,144.0,-183.0,-15.0,25.0,1
208.0,-24.0,148.0,-205.0,-7.0,30.0,1
207.0,-27.0,148.0,-229.0,2.0,40.0,1
205.0,-29.0,151.0,-250.0,13.0,49.0,1
207.0,-37.0,148.0,-265.0,20.0,55.0,1
204.0,-38.0,148.0,-268.0,19.0,59.0,1
203.0,-39.0,146.0,-258.0,17.0,64.0,1
199.0,-49.0,134.0,-240.0,15.0,68.0,1
203.0,-45.0,141.0,-210.0,14.0,70.0,1
200.0,-48.0,139.0,-176.0,14.0,71.0,1
196.0,-48.0,138.0,-139.0,11.0,71.0,1
196.0,-50.0,140.0,-97.0,1.0,68.0,1
196.0,-53.0,136.0,-51.0,-14.0,66.0,1
195.0,-54.0,137.0,-1.0,-34.0,64.0,1
197.0,-58.0,130.0,49.0,-60.0,61.0,1
197.0,-53.0,127.0,100.0,-85.0,56.0,1
198.0,-46.0,127.0,141.0,-108.0,47.0,1
200.0,-39.0,121.0,172.0,-120.0,36.0,1
202.0,-33.0,122.0,185.0,-118.0,25.0,1
202.0,-28.0,125.0,180.0,-103.0,14.0,1
204.0,-24.0,119.0,159.0,-82.0,7.0,1
201.0,-23.0,123.0,129.0,-58.0,0.0,1
206.0,-21.0,121.0,99.0,-39.0,-4.0,1
207.0,-22.0,122.0,72.0,-23.0,-7.0,1
206.0,-17.0,124.0,45.0,-12.0,-9.0,1
211.0,-22.0,125.0,22.0,-3.0,-7.0,1
209.0,-16.0,128.0,0.0,4.0,-7.0,1
211.0,-21.0,127.0,-19.0,8.0,-2.0,1
213.0,-20.0,129.0,-36.0,9.0,5.0,1
212.0,-24.0,128.0,-52.0,6.0,11.0,1
216.0,-27.0,129.0,-66.0,-1.0,17.0,1
212.0,-26.0,129.0,-79.0,-10.0,23.0,1
216.0,-26.0,129.0,-91.0,-18.0,28.0,1
216.0,-26.0,133.0,-101.0,-24.0,31.0,1
215.0,-26.0,131.0,-110.0,-26.0,34.0,1
216.0,-26.0,134.0,-119.0,-25.0,37.0,1
216.0,-30.0,133.0,-128.0,-21.0,40.0,1
215.0,-27.0,133.0,-135.0,-17.0,40.0,1
214.0,-34.0,135.0,-141.0,-12.0,40.0,1
223.0,-34.0,148.0,-147.0,-6.0,41.0,1
213.0,-32.0,138.0,-150.0,2.0,40.0,1
210.0,-33.0,141.0,-153.0,10.0,41.0,1
212.0,-36.0,141.0,-157.0,18.0,39.0,1
211.0,-36.0,140.0,-156.0,26.0,39.0,1
205.0,-34.0,139.0,-152.0,32.0,38.0,1
204.0,-38.0,140.0,-148.0,40.0,37.0,1
203.0,-41.0,136.0,-145.0,42.0,34.0,1
198.0,-46.0,140.0,-135.0,35.0,35.0,1
200.0,-49.0,139.0,-123.0,21.0,35.0,1
198.0,-50.0,138.0,-100.0,0.0,35.0,1
194.0,-55.0,136.0,-66.0,-24.0,30.0,1
199.0,-56.0,135.0,-25.0,-51.0,28.0,1
195.0,-55.0,130.0,22.0,-78.0,22.0,1
199.0,-53.0,133.0,69.0,-100.0,15.0,1
197.0,-50.0,130.0,109.0,-112.0,4.0,1
197.0,-42.0,129.0,138.0,-116.0,-6.0,1
203.0,-38.0,129.0,156.0,-109.0,-16.0,1
201.0,-29.0,123.0,161.0,-98.0,-25.0,1
200.0,-25.0,121.0,154.0,-84.0,-33.0,1
201.0,-22.0,118.0,135.0,-68.0,-35.0,1
204.0,-16.0,121.0,110.0,-52.0,-39.0,1
207.0,-17.0,119.0,74.0,-39.0,-38.0,1
209.0,-15.0,121.0,33.0,-23.0,-34.0,1
208.0,-14.0,118.0,-12.0,-8.0,-29.0,1
211.0,-16.0,122.0,-52.0,8.0,-22.0,1
211.0,-22.0,127.0,-88.0,17.0,-16.0,1
214.0,-25.0,129.0,-119.0,22.0,-10.0,1
214.0,-27.0,129.0,-138.0,23.0,-3.0,1
214.0,-32.0,131.0,-149.0,22.0,2.0,1
215.0,-34.0,129.0,-152.0,22.0,9.0,1
217.0,-35.0,132.0,-154.0,24.0,10.0,1
214.0,-38.0,131.0,-150.0,25.0,13.0,1
214.0,-37.0,131.0,-145.0,27.0,16.0,1
215.0,-39.0,138.0,-139.0,26.0,19.0,1
220.0,-39.0,133.0,-132.0,30.0,19.0,1
215.0,-41.0,133.0,-123.0,34.0,19.0,1
213.0,-39.0,135.0,-114.0,37.0,18.0,1
210.0,-38.0,132.0,-103.0,39.0,15.0,1
212.0,-39.0,135.0,-90.0,41.0,16.0,1
208.0,-35.0,136.0,-81.0,42.0,14.0,1
209.0,-33.0,130.0,-74.0,43.0,15.0,1
207.0,-34.0,130.0,-69.0,44.0,15.0,1
209.0,-35.0,137.0,-67.0,46.0,16.0,1
210.0,-33.0,131.0,-71.0,49.0,17.0,1
204.0,-36.0,134.0,-80.0,53.0,17.0,1
208.0,-39.0,136.0,-90.0,57.0,18.0,1
207.0,-47.0,132.0,-89.0,56.0,17.0,1
209.0,-53.0,137.0,-75.0,45.0,17.0,1
205.0,-52.0,137.0,-45.0,27.0,17.0,1
206.0,-56.0,135.0,2.0,2.0,15.0,1
206.0,-54.0,132.0,59.0,-28.0,11.0,1
208.0,-51.0,137.0,117.0,-59.0,6.0,1
205.0,-46.0,127.0,168.0,-85.0,-2.0,1
208.0,-41.0,125.0,208.0,-98.0,-11.0,1
211.0,-36.0,125.0,234.0,-101.0,-21.0,1
212.0,-29.0,124.0,241.0,-95.0,-30.0,1
210.0,-24.0,120.0,233.0,-82.0,-38.0,1
207.0,-17.0,119.0,212.0,-66.0,-43.0,1
208.0,-21.0,120.0,177.0,-47.0,-46.0,1
209.0,-12.0,123.0,133.0,-24.0,-47.0,1
208.0,-11.0,122.0,83.0,-3.0,-45.0,1
207.0,-14.0,123.0,29.0,15.0,-43.0,1
211.0,-15.0,124.0,-24.0,29.0,-38.0,1
211.0,-18.0,125.0,-69.0,40.0,-33.0,1
212.0,-20.0,131.0,-106.0,47.0,-28.0,1
213.0,-25.0,131.0,-132.0,48.0,-22.0,1
213.0,-27.0,131.0,-147.0,50.0,-17.0,1
216.0,-29.0,132.0,-155.0,50.0,-11.0,1
212.0,-32.0,133.0,-153.0,48.0,-7.0,1
214.0,-33.0,130.0,-148.0,50.0,-3.0,1
212.0,-35.0,133.0,-141.0,52.0,1.0,1
211.0,-34.0,133.0,-131.0,55.0,5.0,1
210.0,-37.0,136.0,-124.0,59.0,9.0,1
211.0,-34.0,135.0,-116.0,63.0,13.0,1
210.0,-33.0,135.0,-111.0,65.0,16.0,1
208.0,-37.0,138.0,-106.0,68.0,19.0,1
211.0,-39.0,132.0,-106.0,74.0,19.0,1
202.0,-36.0,135.0,-105.0,79.0,20.0,1
203.0,-42.0,134.0,-102.0,80.0,18.0,1
203.0,-45.0,134.0,-95.0,80.0,18.0,1
203.0,-50.0,135.0,-75.0,70.0,16.0,1
204.0,-53.0,140.0,-36.0,49.0,16.0,1
203.0,-57.0,141.0,17.0,21.0,14.0,1
202.0,-52.0,133.0,78.0,-9.0,8.0,1
206.0,-52.0,132.0,136.0,-34.0,0.0,1
205.0,-44.0,130.0,185.0,-54.0,-8.0,1
204.0,-35.0,125.0,219.0,-65.0,-18.0,1
206.0,-34.0,120.0,240.0,-69.0,-27.0,1
206.0,-28.0,120.0,244.0,-69.0,-36.0,1
205.0,-24.0,114.0,231.0,-65.0,-43.0,1
204.0,-16.0,119.0,208.0,-56.0,-49.0,1
206.0,-14.0,115.0,172.0,-43.0,-53.0,1
208.0,-13.0,119.0,128.0,-23.0,-55.0,1
208.0,-13.0,125.0,76.0,-1.0,-57.0,1
208.0,-10.0,127.0,19.0,21.0,-56.0,1
211.0,-15.0,129.0,-38.0,39.0,-50.0,1
213.0,-19.0,132.0,-88.0,48.0,-45.0,1
215.0,-17.0,119.0,-121.0,52.0,-36.0,1
215.0,-24.0,136.0,-141.0,51.0,-32.0,1
218.0,-28.0,135.0,-148.0,49.0,-25.0,1
219.0,-31.0,139.0,-145.0,46.0,-20.0,1
219.0,-30.0,135.0,-136.0,45.0,-16.0,1
215.0,-31.0,133.0,-127.0,48.0,-10.0,1
218.0,-31.0,134.0,-119.0,47.0,-4.0,1
212.0,-27.0,132.0,-114.0,48.0,2.0,1
214.0,-27.0,136.0,-115.0,51.0,7.0,1
212.0,-26.0,137.0,-123.0,54.0,11.0,1
211.0,-27.0,137.0,-129.0,59.0,15.0,1
214.0,-27.0,148.0,-139.0,65.0,18.0,1
210.0,-26.0,137.0,-152.0,73.0,18.0,1
209.0,-30.0,134.0,-164.0,78.0,22.0,1
209.0,-32.0,133.0,-176.0,80.0,23.0,1
206.0,-33.0,133.0,-185.0,79.0,24.0,1
204.0,-37.0,136.0,-193.0,79.0,23.0,1
200.0,-40.0,141.0,-196.0,76.0,23.0,1
201.0,-46.0,135.0,-187.0,74.0,23.0,1
202.0,-52.0,139.0,-164.0,70.0,25.0,1
204.0,-59.0,140.0,-122.0,55.0,25.0,1
201.0,-61.0,136.0,-62.0,31.0,23.0,1
201.0,-60.0,135.0,10.0,-2.0,21.0,1
201.0,-56.0,129.0,86.0,-38.0,13.0,1
204.0,-50.0,128.0,153.0,-67.0,3.0,1
204.0,-49.0,124.0,210.0,-86.0,-6.0,1
205.0,-35.0,119.0,247.0,-96.0,-16.0,1
206.0,-29.0,112.0,268.0,-97.0,-25.0,1
208.0,-23.0,113.0,271.0,-94.0,-34.0,1
207.0,-16.0,115.0,257.0,-84.0,-42.0,1
209.0,-13.0,115.0,230.0,-69.0,-48.0,1
211.0,-5.0,119.0,192.0,-50.0,-53.0,1
212.0,-6.0,123.0,141.0,-25.0,-53.0,1
212.0,-6.0,125.0,85.0,-1.0,-53.0,1
211.0,-7.0,127.0,28.0,18.0,-51.0,1
210.0,-9.0,130.0,-24.0,30.0,-46.0,1
216.0,-17.0,131.0,-66.0,38.0,-39.0,1
215.0,-18.0,131.0,-98.0,40.0,-31.0,1
216.0,-19.0,136.0,-120.0,41.0,-24.0,1
216.0,-25.0,134.0,-131.0,42.0,-18.0,1
216.0,-25.0,135.0,-140.0,45.0,-13.0,1
218.0,-26.0,136.0,-141.0,49.0,-9.0,1
218.0,-27.0,137.0,-145.0,54.0,-2.0,1
215.0,-29.0,132.0,-147.0,60.0,1.0,1
213.0,-31.0,134.0,-152.0,66.0,8.0,1
214.0,-32.0,134.0,-157.0,73.0,14.0,1
211.0,-30.0,133.0,-163.0,78.0,17.0,1
212.0,-30.0,135.0,-168.0,83.0,19.0,1
210.0,-31.0,135.0,-172.0,88.0,21.0,1
207.0,-32.0,136.0,-175.0,93.0,24.0,1
209.0,-33.0,138.0,-175.0,94.0,24.0,1
204.0,-31.0,138.0,-174.0,93.0,24.0,1
202.0,-33.0,137.0,-170.0,90.0,25.0,1
202.0,-37.0,136.0,-166.0,85.0,22.0,1
202.0,-33.0,134.0,-163.0,82.0,22.0,1
203.0,-33.0,131.0,-164.0,77.0,22.0,1
201.0,-36.0,136.0,-170.0,72.0,21.0,1
201.0,-40.0,132.0,-175.0,64.0,18.0,1
199.0,-44.0,134.0,-173.0,56.0,17.0,1
201.0,-50.0,131.0,-159.0,45.0,17.0,1
200.0,-57.0,133.0,-127.0,31.0,18.0,1
203.0,-60.0,134.0,-75.0,9.0,15.0,1
202.0,-62.0,138.0,-5.0,-19.0,12.0,1
204.0,-59.0,133.0,72.0,-48.0,5.0,1
207.0,-53.0,129.0,146.0,-71.0,-4.0,1
207.0,-46.0,125.0,202.0,-86.0,-12.0,1
207.0,-39.0,125.0,245.0,-91.0,-20.0,1
204.0,-35.0,120.0,270.0,-90.0,-30.0,1
210.0,-26.0,116.0,281.0,-82.0,-38.0,1
212.0,-21.0,120.0,275.0,-68.0,-44.0,1
209.0,-11.0,119.0,252.0,-50.0,-48.0,1
211.0,-4.0,119.0,213.0,-29.0,-50.0,1
212.0,-1.0,124.0,162.0,-4.0,-52.0,1
211.0,-1.0,127.0,100.0,17.0,-50.0,1
210.0,-1.0,130.0,36.0,34.0,-45.0,1
212.0,-7.0,128.0,-26.0,44.0,-38.0,1
214.0,-14.0,131.0,-79.0,48.0,-29.0,1
217.0,-19.0,135.0,-120.0,48.0,-20.0,1
212.0,-21.0,138.0,-146.0,46.0,-12.0,1
213.0,-25.0,137.0,-165.0,45.0,-6.0,1
211.0,-26.0,132.0,-172.0,46.0,-2.0,1
214.0,-29.0,135.0,-176.0,48.0,3.0,1
214.0,-30.0,135.0,-177.0,52.0,7.0,1
212.0,-29.0,136.0,-177.0,56.0,12.0,1
212.0,-32.0,138.0,-175.0,61.0,11.0,1
207.0,-30.0,137.0,-171.0,66.0,14.0,1
209.0,-34.0,135.0,-166.0,71.0,16.0,1
209.0,-34.0,137.0,-162.0,76.0,17.0,1
204.0,-36.0,133.0,-156.0,76.0,18.0,1
206.0,-33.0,138.0,-149.0,78.0,18.0,1
204.0,-32.0,137.0,-145.0,79.0,19.0,1
201.0,-33.0,136.0,-141.0,77.0,19.0,1
200.0,-33.0,134.0,-139.0,74.0,18.0,1
202.0,-33.0,141.0,-138.0,70.0,16.0,1
198.0,-31.0,135.0,-138.0,67.0,17.0,1
198.0,-29.0,134.0,-138.0,63.0,15.0,1
199.0,-34.0,136.0,-142.0,56.0,14.0,1
203.0,-33.0,135.0,-145.0,47.0,12.0,1
202.0,-36.0,134.0,-146.0,40.0,12.0,1
205.0,-39.0,133.0,-137.0,36.0,12.0,1
203.0,-48.0,135.0,-119.0,31.0,12.0,1
206.0,-48.0,134.0,-84.0,19.0,10.0,1
205.0,-49.0,131.0,-42.0,5.0,7.0,1
206.0,-46.0,131.0,4.0,-15.0,3.0,1
207.0,-42.0,127.0,46.0,-30.0,0.0,1
210.0,-38.0,123.0,79.0,-38.0,-7.0,1
211.0,-34.0,124.0,101.0,-37.0,-12.0,1
211.0,-29.0,122.0,109.0,-29.0,-18.0,1
210.0,-26.0,122.0,103.0,-18.0,-22.0,1
217.0,-18.0,118.0,89.0,-3.0,-24.0,1
209.0,-18.0,124.0,66.0,10.0,-25.0,1
210.0,-18.0,122.0,38.0,24.0,-23.0,1
211.0,-20.0,129.0,1.0,35.0,-20.0,1
211.0,-18.0,126.0,-38.0,43.0,-15.0,1
209.0,-20.0,132.0,-76.0,46.0,-9.0,1
210.0,-24.0,136.0,-107.0,46.0,-5.0,1
209.0,-29.0,139.0,-129.0,40.0,0.0,1
206.0,-33.0,139.0,-139.0,36.0,4.0,1
207.0,-36.0,135.0,-136.0,30.0,8.0,1
208.0,-34.0,135.0,-128.0,25.0,11.0,1
206.0,-36.0,140.0,-115.0,24.0,10.0,1
206.0,-34.0,131.0,-103.0,27.0,8.0,1
206.0,-34.0,138.0,-93.0,29.0,7.0,1
205.0,-35.0,133.0,-85.0,29.0,6.0,1
208.0,-35.0,136.0,-79.0,28.0,5.0,1
204.0,-35.0,134.0,-76.0,28.0,4.0,1
207.0,-36.0,136.0,-76.0,26.0,3.0,1
205.0,-41.0,134.0,-75.0,27.0,3.0,1
206.0,-40.0,134.0,-71.0,27.0,2.0,1
205.0,-42.0,136.0,-56.0,26.0,2.0,1
206.0,-47.0,135.0,-33.0,21.0,2.0,1
205.0,-44.0,134.0,1.0,13.0,-1.0,1
205.0,-42.0,133.0,34.0,0.0,-4.0,1
202.0,-38.0,132.0,67.0,-12.0,-8.0,1
204.0,-32.0,129.0,96.0,-21.0,-14.0,1
203.0,-31.0,131.0,115.0,-27.0,-19.0,1
205.0,-26.0,127.0,123.0,-30.0,-23.0,1
204.0,-21.0,128.0,119.0,-32.0,-26.0,1
205.0,-20.0,125.0,104.0,-31.0,-29.0,1
203.0,-16.0,126.0,82.0,-25.0,-30.0,1
209.0,-16.0,125.0,50.0,-19.0,-32.0,1
207.0,-15.0,126.0,14.0,-11.0,-30.0,1
210.0,-16.0,126.0,-25.0,1.0,-26.0,1
209.0,-20.0,125.0,-63.0,10.0,-23.0,1
208.0,-22.0,129.0,-96.0,21.0,-19.0,1
209.0,-26.0,130.0,-122.0,27.0,-14.0,1
209.0,-27.0,133.0,-138.0,30.0,-11.0,1
211.0,-33.0,135.0,-142.0,32.0,-7.0,1
212.0,-35.0,137.0,-142.0,34.0,-4.0,1
212.0,-35.0,133.0,-136.0,33.0,-1.0,1
211.0,-36.0,132.0,-125.0,34.0,2.0,1
211.0,-37.0,134.0,-116.0,36.0,2.0,1
209.0,-36.0,133.0,-106.0,38.0,4.0,1
210.0,-35.0,136.0,-100.0,39.0,5.0,1
207.0,-28.0,133.0,-95.0,40.0,6.0,1
207.0,-32.0,132.0,-91.0,42.0,8.0,1
207.0,-32.0,134.0,-89.0,44.0,9.0,1
207.0,-33.0,130.0,-89.0,48.0,8.0,1
207.0,-31.0,135.0,-91.0,48.0,9.0,1
206.0,-33.0,133.0,-96.0,49.0,9.0,1
205.0,-32.0,137.0,-100.0,49.0,11.0,1
204.0,-31.0,136.0,-107.0,46.0,10.0,1
206.0,-33.0,134.0,-112.0,46.0,12.0,1
201.0,-36.0,135.0,-116.0,46.0,13.0,1
203.0,-43.0,135.0,-114.0,43.0,12.0,1
204.0,-50.0,134.0,-104.0,39.0,12.0,1
202.0,-50.0,136.0,-79.0,30.0,9.0,1
198.0,-51.0,133.0,-43.0,12.0,7.0,1
203.0,-55.0,132.0,7.0,-10.0,2.0,1
203.0,-52.0,132.0,60.0,-29.0,-3.0,1
204.0,-51.0,129.0,112.0,-42.0,-10.0,1
204.0,-46.0,128.0,157.0,-52.0,-18.0,1
205.0,-38.0,128.0,192.0,-58.0,-23.0,1
206.0,-36.0,125.0,216.0,-66.0,-33.0,1
205.0,-32.0,124.0,228.0,-72.0,-37.0,1
206.0,-22.0,126.0,230.0,-76.0,-42.0,1
208.0,-21.0,122.0,219.0,-72.0,-46.0,1
207.0,-10.0,123.0,193.0,-58.0,-51.0,1
208.0,-10.0,124.0,157.0,-34.0,-56.0,1
210.0,-6.0,123.0,109.0,-9.0,-55.0,1
212.0,-5.0,125.0,55.0,12.0,-54.0,1
212.0,-7.0,130.0,0.0,29.0,-50.0,1
215.0,-11.0,134.0,-51.0,41.0,-43.0,1
214.0,-15.0,133.0,-93.0,49.0,-37.0,1
217.0,-21.0,138.0,-123.0,54.0,-31.0,1
217.0,-21.0,135.0,-142.0,57.0,-24.0,1
213.0,-24.0,138.0,-149.0,58.0,-17.0,1
215.0,-23.0,133.0,-152.0,59.0,-11.0,1
214.0,-28.0,137.0,-150.0,58.0,-5.0,1
211.0,-29.0,136.0,-149.0,57.0,1.0,1
209.0,-29.0,138.0,-151.0,59.0,4.0,1
211.0,-27.0,138.0,-150.0,61.0,9.0,1
208.0,-27.0,136.0,-153.0,63.0,12.0,1
209.0,-28.0,133.0,-156.0,68.0,15.0,1
207.0,-26.0,137.0,-161.0,73.0,18.0,1
206.0,-28.0,133.0,-167.0,78.0,20.0,1
206.0,-28.0,139.0,-175.0,81.0,22.0,1
199.0,-23.0,140.0,-179.0,81.0,23.0,1
203.0,-31.0,137.0,-186.0,82.0,24.0,1
201.0,-35.0,138.0,-195.0,80.0,24.0,1
199.0,-39.0,141.0,-197.0,75.0,22.0,1
200.0,-43.0,138.0,-196.0,68.0,21.0,1
200.0,-53.0,135.0,-180.0,60.0,21.0,1
200.0,-60.0,137.0,-146.0,45.0,19.0,1
199.0,-64.0,136.0,-87.0,23.0,17.0,1
198.0,-64.0,133.0,-12.0,-8.0,14.0,1
198.0,-60.0,129.0,77.0,-44.0,8.0,1
206.0,-68.0,122.0,161.0,-74.0,-1.0,1
201.0,-51.0,125.0,235.0,-95.0,-12.0,1
204.0,-44.0,121.0,286.0,-108.0,-23.0,1
205.0,-39.0,116.0,316.0,-118.0,-31.0,1
205.0,-28.0,119.0,326.0,-119.0,-40.0,1
209.0,-21.0,113.0,317.0,-115.0,-49.0,1
205.0,-13.0,117.0,294.0,-106.0,-57.0,1
