ax,ay,az,gx,gy,gz,label
-32.0,-253.0,-20.0,-38.0,94.0,-2.0,1
-31.0,-257.0,-19.0,-39.0,92.0,-2.0,1
-31.0,-256.0,-19.0,-40.0,91.0,-1.0,1
-29.0,-255.0,-20.0,-40.0,91.0,0.0,1
-32.0,-255.0,-20.0,-42.0,92.0,1.0,1
-35.0,-261.0,-17.0,-42.0,93.0,0.0,1
-33.0,-254.0,-20.0,-48.0,94.0,-1.0,1
-32.0,-254.0,-17.0,-49.0,96.0,-1.0,1
-32.0,-254.0,-22.0,-52.0,98.0,-3.0,1
-32.0,-254.0,-20.0,-53.0,99.0,-3.0,1
-29.0,-256.0,-22.0,-54.0,100.0,-4.0,1
-29.0,-253.0,-19.0,-55.0,103.0,-4.0,1
-27.0,-259.0,-19.0,-53.0,104.0,-4.0,1
-30.0,-257.0,-21.0,-56.0,105.0,-5.0,1
-28.0,-255.0,-22.0,-57.0,105.0,-3.0,1
-22.0,-258.0,-22.0,-58.0,108.0,-3.0,1
-23.0,-265.0,-20.0,-56.0,111.0,-1.0,1
-26.0,-260.0,-21.0,-54.0,112.0,1.0,1
-22.0,-262.0,-20.0,-51.0,117.0,4.0,1
-23.0,-256.0,-21.0,-52.0,120.0,8.0,1
-25.0,-258.0,-20.0,-56.0,122.0,9.0,1
-21.0,-259.0,-21.0,-63.0,127.0,8.0,1
-20.0,-260.0,-21.0,-72.0,128.0,8.0,1
-21.0,-257.0,-20.0,-81.0,129.0,6.0,1
-21.0,-257.0,-20.0,-86.0,128.0,2.0,1
-21.0,-257.0,-19.0,-90.0,130.0,-1.0,1
-21.0,-258.0,-20.0,-92.0,132.0,-7.0,1
-25.0,-255.0,-20.0,-93.0,132.0,-13.0,1
-23.0,-258.0,-23.0,-91.0,131.0,-15.0,1
-24.0,-256.0,-19.0,-89.0,131.0,-17.0,1
-25.0,-257.0,-18.0,-86.0,127.0,-19.0,1
-22.0,-259.0,-19.0,-86.0,125.0,-18.0,1
-26.0,-256.0,-19.0,-85.0,121.0,-10.0,1
-26.0,-257.0,-25.0,-86.0,117.0,-1.0,1
-27.0,-254.0,-21.0,-90.0,115.0,8.0,1
-26.0,-255.0,-21.0,-94.0,112.0,18.0,1
-31.0,-252.0,-22.0,-100.0,108.0,25.0,1
-31.0,-253.0,-23.0,-105.0,104.0,29.0,1
-31.0,-254.0,-25.0,-112.0,99.0,30.0,1
-33.0,-253.0,-23.0,-117.0,93.0,30.0,1
-32.0,-255.0,-22.0,-119.0,89.0,27.0,1
-32.0,-255.0,-21.0,-121.0,85.0,24.0,1
-34.0,-256.0,-26.0,-119.0,81.0,20.0,1
-37.0,-254.0,-23.0,-119.0,78.0,14.0,1
-37.0,-255.0,-22.0,-115.0,72.0,6.0,1
-38.0,-256.0,-20.0,-112.0,68.0,5.0,1
-36.0,-260.0,-22.0,-105.0,58.0,2.0,1
-35.0,-259.0,-25.0,-98.0,47.0,0.0,1
-34.0,-262.0,-25.0,-89.0,37.0,-2.0,1
-33.0,-262.0,-24.0,-82.0,25.0,-1.0,1
-34.0,-260.0,-21.0,-74.0,13.0,2.0,1
-32.0,-265.0,-26.0,-61.0,0.0,5.0,1
-31.0,-267.0,-26.0,-51.0,-14.0,9.0,1
-30.0,-266.0,-26.0,-41.0,-29.0,12.0,1
-28.0,-264.0,-23.0,-29.0,-44.0,16.0,1
-25.0,-263.0,-21.0,-19.0,-56.0,18.0,1
-30.0,-261.0,-20.0,-11.0,-70.0,20.0,1
-26.0,-263.0,-19.0,-4.0,-83.0,25.0,1
-29.0,-261.0,-18.0,2.0,-94.0,32.0,1
-26.0,-255.0,-20.0,9.0,-102.0,38.0,1
-25.0,-251.0,-20.0,14.0,-108.0,47.0,1
-25.0,-248.0,-23.0,20.0,-114.0,53.0,1
-21.0,-251.0,-19.0,23.0,-120.0,58.0,1
-24.0,-249.0,-21.0,21.0,-126.0,66.0,1
-23.0,-248.0,-20.0,17.0,-133.0,70.0,1
-23.0,-246.0,-20.0,8.0,-142.0,76.0,1
-25.0,-246.0,-20.0,-3.0,-153.0,80.0,1
-22.0,-248.0,-18.0,-14.0,-163.0,83.0,1
-24.0,-248.0,-19.0,-26.0,-174.0,85.0,1
-27.0,-248.0,-17.0,-39.0,-185.0,88.0,1
-26.0,-245.0,-18.0,-55.0,-193.0,89.0,1
-30.0,-247.0,-17.0,-75.0,-200.0,90.0,1
-26.0,-248.0,-18.0,-92.0,-205.0,92.0,1
-29.0,-245.0,-15.0,-112.0,-209.0,92.0,1
-26.0,-244.0,-16.0,-134.0,-211.0,91.0,1
-25.0,-246.0,-18.0,-156.0,-213.0,90.0,1
-27.0,-246.0,-17.0,-178.0,-214.0,88.0,1
-28.0,-243.0,-20.0,-198.0,-215.0,86.0,1
-29.0,-240.0,-20.0,-214.0,-216.0,81.0,1
-29.0,-238.0,-18.0,-231.0,-215.0,77.0,1
-29.0,-240.0,-22.0,-242.0,-210.0,71.0,1
-27.0,-241.0,-18.0,-251.0,-206.0,64.0,1
-28.0,-238.0,-20.0,-258.0,-202.0,55.0,1
-27.0,-238.0,-22.0,-261.0,-198.0,43.0,1
-25.0,-239.0,-22.0,-268.0,-194.0,32.0,1
-23.0,-239.0,-22.0,-276.0,-194.0,20.0,1
-22.0,-240.0,-22.0,-283.0,-194.0,8.0,1
-23.0,-237.0,-32.0,-290.0,-193.0,-4.0,1
-21.0,-237.0,-29.0,-296.0,-194.0,-15.0,1
-17.0,-233.0,-32.0,-302.0,-196.0,-30.0,1
-20.0,-233.0,-34.0,-306.0,-196.0,-44.0,1
-21.0,-232.0,-34.0,-312.0,-198.0,-59.0,1
-23.0,-231.0,-37.0,-320.0,-199.0,-74.0,1
-29.0,-226.0,-34.0,-327.0,-202.0,-90.0,1
-28.0,-226.0,-36.0,-337.0,-203.0,-106.0,1
-32.0,-232.0,-33.0,-348.0,-204.0,-121.0,1
-32.0,-232.0,-30.0,-353.0,-201.0,-136.0,1
-39.0,-234.0,-30.0,-356.0,-195.0,-150.0,1
-38.0,-239.0,-31.0,-356.0,-186.0,-162.0,1
-36.0,-245.0,-33.0,-357.0,-176.0,-171.0,1
-41.0,-249.0,-36.0,-361.0,-162.0,-176.0,1
-36.0,-259.0,-39.0,-369.0,-148.0,-177.0,1
-45.0,-266.0,-44.0,-379.0,-130.0,-174.0,1
-40.0,-273.0,-44.0,-386.0,-113.0,-168.0,1
-36.0,-277.0,-46.0,-392.0,-97.0,-158.0,1
-32.0,-287.0,-50.0,-402.0,-84.0,-144.0,1
-36.0,-289.0,-47.0,-410.0,-72.0,-130.0,1
-34.0,-287.0,-46.0,-413.0,-63.0,-112.0,1
-32.0,-290.0,-46.0,-411.0,-60.0,-89.0,1
-30.0,-286.0,-48.0,-406.0,-60.0,-62.0,1
-35.0,-279.0,-44.0,-394.0,-64.0,-36.0,1
-35.0,-277.0,-45.0,-378.0,-72.0,-5.0,1
-38.0,-273.0,-44.0,-359.0,-82.0,19.0,1
-40.0,-265.0,-44.0,-338.0,-90.0,42.0,1
-36.0,-263.0,-39.0,-318.0,-97.0,65.0,1
-39.0,-258.0,-36.0,-300.0,-103.0,81.0,1
-42.0,-255.0,-36.0,-284.0,-104.0,93.0,1
-43.0,-254.0,-33.0,-274.0,-106.0,103.0,1
-41.0,-255.0,-30.0,-261.0,-105.0,107.0,1
-43.0,-249.0,-28.0,-245.0,-96.0,106.0,1
-42.0,-249.0,-30.0,-229.0,-86.0,107.0,1
-41.0,-247.0,-24.0,-219.0,-72.0,107.0,1
-42.0,-250.0,-24.0,-212.0,-57.0,105.0,1
-38.0,-243.0,-19.0,-208.0,-38.0,101.0,1
-39.0,-248.0,-20.0,-202.0,-17.0,97.0,1
-37.0,-248.0,-18.0,-195.0,5.0,93.0,1
-38.0,-248.0,-17.0,-184.0,31.0,90.0,1
-35.0,-248.0,-14.0,-174.0,51.0,88.0,1
-33.0,-250.0,-13.0,-165.0,72.0,82.0,1
-34.0,-249.0,-12.0,-154.0,91.0,73.0,1
-29.0,-251.0,-9.0,-146.0,109.0,65.0,1
-27.0,-254.0,-10.0,-138.0,131.0,56.0,1
-27.0,-254.0,-10.0,-132.0,152.0,50.0,1
-21.0,-260.0,-13.0,-130.0,176.0,49.0,1
-25.0,-261.0,-13.0,-133.0,200.0,52.0,1
-23.0,-260.0,-16.0,-140.0,223.0,51.0,1
-23.0,-263.0,-16.0,-146.0,244.0,54.0,1
-26.0,-260.0,-17.0,-153.0,264.0,59.0,1
-31.0,-259.0,-17.0,-161.0,280.0,65.0,1
-31.0,-260.0,-20.0,-170.0,289.0,71.0,1
-35.0,-258.0,-22.0,-178.0,294.0,79.0,1
-37.0,-258.0,-19.0,-187.0,295.0,85.0,1
-42.0,-256.0,-20.0,-193.0,291.0,89.0,1
-46.0,-255.0,-20.0,-194.0,286.0,95.0,1
-50.0,-255.0,-19.0,-187.0,276.0,102.0,1
-53.0,-255.0,-18.0,-178.0,266.0,107.0,1
-55.0,-254.0,-17.0,-164.0,254.0,110.0,1
-61.0,-253.0,-16.0,-146.0,240.0,112.0,1
-64.0,-250.0,-15.0,-123.0,225.0,111.0,1
-65.0,-251.0,-16.0,-102.0,211.0,112.0,1
-66.0,-249.0,-16.0,-84.0,193.0,112.0,1
-65.0,-249.0,-18.0,-70.0,178.0,113.0,1
-64.0,-246.0,-20.0,-61.0,162.0,110.0,1
-65.0,-245.0,-18.0,-55.0,149.0,108.0,1
-66.0,-245.0,-18.0,-52.0,135.0,104.0,1
-62.0,-245.0,-18.0,-49.0,121.0,100.0,1
-62.0,-245.0,-19.0,-47.0,108.0,95.0,1
-62.0,-243.0,-18.0,-45.0,95.0,91.0,1
-58.0,-244.0,-19.0,-42.0,86.0,86.0,1
-57.0,-246.0,-18.0,-39.0,77.0,81.0,1
-51.0,-248.0,-20.0,-36.0,73.0,76.0,1
-47.0,-248.0,-20.0,-35.0,70.0,71.0,1
-43.0,-248.0,-21.0,-37.0,70.0,66.0,1
-40.0,-249.0,-17.0,-41.0,73.0,60.0,1
-38.0,-251.0,-20.0,-41.0,78.0,56.0,1
-30.0,-250.0,-18.0,-39.0,86.0,50.0,1
-34.0,-248.0,-19.0,-36.0,97.0,45.0,1
-29.0,-255.0,-14.0,-32.0,111.0,41.0,1
-24.0,-254.0,-15.0,-23.0,127.0,39.0,1
-21.0,-256.0,-17.0,-12.0,143.0,37.0,1
-18.0,-252.0,-13.0,7.0,163.0,38.0,1
-17.0,-252.0,-16.0,26.0,182.0,38.0,1
-12.0,-251.0,-13.0,46.0,203.0,34.0,1
-13.0,-253.0,-11.0,64.0,226.0,28.0,1
-10.0,-252.0,-14.0,88.0,249.0,18.0,1
-11.0,-251.0,-12.0,107.0,271.0,15.0,1
-11.0,-251.0,-13.0,128.0,291.0,6.0,1
-14.0,-249.0,-14.0,144.0,311.0,1.0,1
-16.0,-249.0,-12.0,155.0,332.0,-5.0,1
-20.0,-250.0,-15.0,161.0,348.0,-9.0,1
-24.0,-248.0,-13.0,161.0,365.0,-7.0,1
-26.0,-250.0,-14.0,161.0,386.0,-5.0,1
-30.0,-250.0,-14.0,156.0,405.0,-2.0,1
-35.0,-249.0,-13.0,151.0,423.0,3.0,1
-36.0,-250.0,-17.0,146.0,443.0,10.0,1
-40.0,-252.0,-17.0,142.0,462.0,17.0,1
-40.0,-256.0,-14.0,138.0,475.0,26.0,1
-40.0,-257.0,-17.0,137.0,494.0,34.0,1
-45.0,-259.0,-16.0,137.0,508.0,43.0,1
-42.0,-261.0,-12.0,141.0,520.0,48.0,1
-42.0,-262.0,-15.0,145.0,530.0,52.0,1
-41.0,-262.0,-17.0,155.0,537.0,53.0,1
-41.0,-266.0,-17.0,169.0,542.0,57.0,1
-38.0,-263.0,-14.0,183.0,547.0,61.0,1
-40.0,-262.0,-13.0,200.0,550.0,62.0,1
-41.0,-261.0,-15.0,223.0,556.0,69.0,1
-40.0,-263.0,-19.0,245.0,561.0,72.0,1
-41.0,-257.0,-13.0,267.0,562.0,75.0,1
-44.0,-254.0,-20.0,283.0,565.0,82.0,1
-46.0,-255.0,-18.0,295.0,560.0,81.0,1
-53.0,-251.0,-16.0,300.0,560.0,84.0,1
-55.0,-252.0,-16.0,304.0,558.0,85.0,1
-55.0,-255.0,-15.0,307.0,554.0,89.0,1
-63.0,-253.0,-14.0,315.0,553.0,96.0,1
-65.0,-255.0,-18.0,316.0,551.0,98.0,1
-67.0,-261.0,-14.0,319.0,553.0,105.0,1
-67.0,-263.0,-16.0,319.0,555.0,113.0,1
-70.0,-265.0,-16.0,320.0,559.0,118.0,1
-68.0,-266.0,-10.0,326.0,561.0,120.0,1
-65.0,-272.0,-12.0,335.0,564.0,122.0,1
-69.0,-272.0,-6.0,341.0,569.0,121.0,1
-68.0,-271.0,-13.0,345.0,580.0,122.0,1
-69.0,-271.0,-11.0,342.0,591.0,120.0,1
-66.0,-274.0,-9.0,337.0,600.0,115.0,1
-67.0,-274.0,-10.0,333.0,608.0,108.0,1
-67.0,-274.0,-4.0,334.0,615.0,99.0,1
-68.0,-277.0,2.0,342.0,613.0,86.0,1
-70.0,-274.0,5.0,351.0,603.0,70.0,1
-70.0,-274.0,4.0,361.0,588.0,53.0,1
-73.0,-271.0,6.0,371.0,570.0,42.0,1
-77.0,-268.0,5.0,379.0,555.0,36.0,1
-84.0,-268.0,0.0,382.0,545.0,35.0,1
-84.0,-269.0,-1.0,376.0,536.0,39.0,1
-81.0,-277.0,-11.0,345.0,538.0,49.0,1
-70.0,-291.0,-16.0,294.0,540.0,65.0,1
-73.0,-302.0,-22.0,259.0,529.0,85.0,1
-82.0,-308.0,-33.0,234.0,511.0,103.0,1
-82.0,-307.0,-33.0,185.0,491.0,118.0,1
-80.0,-314.0,-24.0,124.0,467.0,136.0,1
-79.0,-311.0,-15.0,96.0,429.0,156.0,1
-84.0,-301.0,-11.0,118.0,381.0,186.0,1
-97.0,-290.0,-11.0,169.0,329.0,218.0,1
-90.0,-287.0,-18.0,221.0,278.0,244.0,1
-89.0,-277.0,-21.0,247.0,227.0,261.0,1
-88.0,-266.0,-23.0,257.0,175.0,271.0,1
-90.0,-260.0,-23.0,261.0,121.0,274.0,1
-90.0,-252.0,-19.0,268.0,75.0,275.0,1
-93.0,-248.0,-18.0,280.0,41.0,275.0,1
-88.0,-249.0,-20.0,291.0,20.0,272.0,1
-85.0,-249.0,-18.0,290.0,3.0,270.0,1
-88.0,-250.0,-20.0,289.0,-14.0,272.0,1
-89.0,-254.0,-22.0,284.0,-35.0,275.0,1
-84.0,-256.0,-22.0,277.0,-52.0,278.0,1
-82.0,-258.0,-20.0,266.0,-70.0,279.0,1
-78.0,-254.0,-24.0,259.0,-84.0,283.0,1
-72.0,-249.0,-21.0,252.0,-93.0,283.0,1
-71.0,-245.0,-28.0,243.0,-97.0,283.0,1
-70.0,-238.0,-35.0,228.0,-97.0,281.0,1
-65.0,-236.0,-37.0,206.0,-92.0,276.0,1
-63.0,-229.0,-40.0,182.0,-86.0,266.0,1
-53.0,-222.0,-40.0,156.0,-73.0,250.0,1
-45.0,-221.0,-47.0,128.0,-56.0,228.0,1
-40.0,-219.0,-47.0,104.0,-31.0,203.0,1
-38.0,-217.0,-51.0,85.0,2.0,174.0,1
-27.0,-214.0,-52.0,72.0,43.0,143.0,1
-21.0,-209.0,-59.0,56.0,89.0,107.0,1
-9.0,-208.0,-68.0,27.0,140.0,76.0,1
-1.0,-206.0,-71.0,-12.0,196.0,51.0,1
2.0,-207.0,-77.0,-53.0,255.0,27.0,1
9.0,-208.0,-79.0,-96.0,312.0,8.0,1
19.0,-209.0,-76.0,-136.0,364.0,-6.0,1
26.0,-215.0,-82.0,-167.0,412.0,-20.0,1
32.0,-219.0,-77.0,-190.0,453.0,-32.0,1
32.0,-227.0,-74.0,-197.0,484.0,-38.0,1
36.0,-234.0,-77.0,-194.0,504.0,-44.0,1
34.0,-242.0,-72.0,-184.0,510.0,-46.0,1
32.0,-248.0,-65.0,-166.0,503.0,-43.0,1
20.0,-254.0,-65.0,-145.0,485.0,-32.0,1
14.0,-261.0,-62.0,-127.0,459.0,-16.0,1
5.0,-268.0,-54.0,-109.0,434.0,1.0,1
0.0,-279.0,-56.0,-91.0,407.0,22.0,1
-17.0,-285.0,-52.0,-70.0,386.0,42.0,1
-26.0,-293.0,-46.0,-46.0,373.0,60.0,1
-35.0,-297.0,-48.0,-21.0,365.0,78.0,1
-47.0,-298.0,-49.0,3.0,362.0,90.0,1
-59.0,-304.0,-44.0,23.0,361.0,96.0,1
-56.0,-296.0,-46.0,34.0,362.0,94.0,1
-61.0,-299.0,-49.0,38.0,360.0,80.0,1
-65.0,-295.0,-43.0,34.0,356.0,58.0,1
-70.0,-295.0,-43.0,24.0,349.0,31.0,1
-72.0,-288.0,-36.0,9.0,341.0,-1.0,1
-69.0,-284.0,-39.0,-1.0,336.0,-38.0,1
-70.0,-272.0,-32.0,-7.0,332.0,-79.0,1
-68.0,-266.0,-34.0,-4.0,327.0,-123.0,1
-65.0,-257.0,-31.0,7.0,321.0,-163.0,1
-61.0,-251.0,-24.0,18.0,316.0,-201.0,1
-57.0,-246.0,-27.0,30.0,310.0,-237.0,1
-52.0,-241.0,-24.0,32.0,303.0,-267.0,1
-41.0,-233.0,-23.0,32.0,295.0,-293.0,1
-37.0,-226.0,-23.0,29.0,286.0,-311.0,1
-32.0,-224.0,-22.0,23.0,277.0,-327.0,1
-30.0,-224.0,-25.0,16.0,265.0,-339.0,1
-25.0,-222.0,-19.0,8.0,252.0,-351.0,1
-21.0,-220.0,-22.0,-7.0,241.0,-360.0,1
-19.0,-218.0,-23.0,-23.0,230.0,-368.0,1
-17.0,-220.0,-21.0,-45.0,219.0,-373.0,1
-18.0,-218.0,-20.0,-67.0,209.0,-375.0,1
-16.0,-220.0,-20.0,-92.0,198.0,-374.0,1
-17.0,-219.0,-22.0,-112.0,189.0,-371.0,1
-18.0,-217.0,-22.0,-130.0,174.0,-366.0,1
-19.0,-219.0,-21.0,-143.0,164.0,-362.0,1
-18.0,-218.0,-20.0,-155.0,159.0,-351.0,1
-21.0,-221.0,-20.0,-169.0,154.0,-336.0,1
-28.0,-219.0,-23.0,-181.0,148.0,-322.0,1
-25.0,-221.0,-22.0,-187.0,137.0,-320.0,1
-24.0,-223.0,-24.0,-195.0,131.0,-315.0,1
-24.0,-224.0,-27.0,-204.0,133.0,-303.0,1
-27.0,-226.0,-25.0,-219.0,134.0,-287.0,1
-27.0,-229.0,-23.0,-228.0,128.0,-280.0,1
-22.0,-232.0,-24.0,-234.0,119.0,-274.0,1
-24.0,-238.0,-22.0,-242.0,112.0,-262.0,1
-21.0,-239.0,-19.0,-243.0,102.0,-256.0,1
-17.0,-244.0,-15.0,-245.0,92.0,-250.0,1
-14.0,-246.0,-18.0,-246.0,78.0,-242.0,1
-11.0,-245.0,-15.0,-235.0,71.0,-230.0,1
-9.0,-244.0,-7.0,-215.0,66.0,-214.0,1
-6.0,-247.0,-12.0,-193.0,62.0,-197.0,1
-9.0,-245.0,-14.0,-178.0,60.0,-179.0,1
-7.0,-244.0,-8.0,-165.0,58.0,-161.0,1
-6.0,-245.0,-10.0,-149.0,58.0,-146.0,1
-3.0,-242.0,-11.0,-134.0,62.0,-130.0,1
-4.0,-241.0,-10.0,-123.0,63.0,-116.0,1
-1.0,-240.0,-12.0,-117.0,63.0,-102.0,1
-7.0,-243.0,-6.0,-111.0,63.0,-84.0,1
-8.0,-244.0,-11.0,-106.0,63.0,-71.0,1
-6.0,-245.0,-7.0,-100.0,63.0,-56.0,1
-9.0,-243.0,-8.0,-97.0,64.0,-45.0,1
-14.0,-243.0,-7.0,-97.0,63.0,-34.0,1
-13.0,-242.0,-9.0,-98.0,61.0,-23.0,1
-16.0,-245.0,-9.0,-100.0,55.0,-11.0,1
-20.0,-243.0,-11.0,-103.0,49.0,0.0,1
-26.0,-246.0,-15.0,-112.0,44.0,11.0,1
-29.0,-245.0,-16.0,-122.0,38.0,29.0,1
-30.0,-243.0,-18.0,-136.0,30.0,48.0,1
-35.0,-242.0,-18.0,-152.0,24.0,68.0,1
-37.0,-244.0,-17.0,-168.0,15.0,89.0,1
-39.0,-247.0,-20.0,-187.0,6.0,109.0,1
-42.0,-249.0,-17.0,-206.0,-7.0,129.0,1
-52.0,-248.0,-16.0,-223.0,-25.0,151.0,1
-51.0,-253.0,-19.0,-243.0,-45.0,170.0,1
-66.0,-253.0,-9.0,-261.0,-65.0,186.0,1
-60.0,-257.0,-10.0,-278.0,-87.0,195.0,1
-64.0,-256.0,-11.0,-291.0,-114.0,196.0,1
-60.0,-263.0,-14.0,-301.0,-135.0,198.0,1
-64.0,-263.0,-9.0,-304.0,-145.0,198.0,1
-63.0,-265.0,-8.0,-300.0,-145.0,194.0,1
-59.0,-271.0,-4.0,-292.0,-143.0,173.0,1
-50.0,-278.0,-2.0,-277.0,-142.0,138.0,1
-45.0,-280.0,-2.0,-251.0,-141.0,94.0,1
-37.0,-288.0,-2.0,-212.0,-142.0,56.0,1
-29.0,-289.0,6.0,-168.0,-154.0,11.0,1
-26.0,-294.0,4.0,-118.0,-173.0,-32.0,1
-22.0,-298.0,9.0,-58.0,-198.0,-71.0,1
-14.0,-298.0,13.0,-3.0,-224.0,-104.0,1
-19.0,-299.0,13.0,37.0,-247.0,-130.0,1
-17.0,-302.0,22.0,69.0,-270.0,-156.0,1
-18.0,-299.0,21.0,108.0,-290.0,-166.0,1
-19.0,-297.0,25.0,153.0,-303.0,-164.0,1
-23.0,-291.0,28.0,198.0,-319.0,-157.0,1
-25.0,-289.0,24.0,239.0,-333.0,-155.0,1
-26.0,-298.0,12.0,267.0,-341.0,-152.0,1
-30.0,-314.0,-15.0,282.0,-322.0,-152.0,1
-41.0,-326.0,-28.0,267.0,-276.0,-150.0,1
-52.0,-335.0,-39.0,208.0,-256.0,-164.0,1
-51.0,-341.0,-62.0,107.0,-266.0,-199.0,1
-46.0,-361.0,-75.0,-51.0,-247.0,-244.0,1
-47.0,-374.0,-69.0,-255.0,-231.0,-286.0,1
-39.0,-389.0,-44.0,-428.0,-221.0,-329.0,1
-26.0,-389.0,-26.0,-471.0,-190.0,-384.0,1
-19.0,-379.0,-17.0,-359.0,-131.0,-427.0,1
-7.0,-363.0,-17.0,-172.0,-65.0,-464.0,1
0.0,-345.0,-26.0,10.0,-6.0,-485.0,1
13.0,-329.0,-36.0,155.0,33.0,-491.0,1
18.0,-311.0,-50.0,271.0,68.0,-479.0,1
22.0,-295.0,-60.0,362.0,84.0,-461.0,1
30.0,-279.0,-71.0,423.0,93.0,-428.0,1
35.0,-264.0,-77.0,445.0,90.0,-397.0,1
34.0,-252.0,-78.0,430.0,78.0,-373.0,1
39.0,-251.0,-77.0,387.0,52.0,-349.0,1
35.0,-243.0,-77.0,336.0,19.0,-325.0,1
23.0,-243.0,-64.0,291.0,-20.0,-300.0,1
15.0,-239.0,-63.0,265.0,-63.0,-271.0,1
5.0,-233.0,-70.0,254.0,-100.0,-240.0,1
0.0,-229.0,-73.0,248.0,-137.0,-210.0,1
-13.0,-221.0,-77.0,238.0,-170.0,-173.0,1
-28.0,-213.0,-82.0,217.0,-204.0,-137.0,1
-42.0,-200.0,-86.0,187.0,-240.0,-102.0,1
-57.0,-188.0,-90.0,153.0,-277.0,-68.0,1
-64.0,-185.0,-93.0,116.0,-316.0,-41.0,1
-78.0,-175.0,-93.0,77.0,-359.0,-16.0,1
-88.0,-165.0,-96.0,37.0,-401.0,-1.0,1
-97.0,-161.0,-97.0,-5.0,-438.0,8.0,1
-99.0,-158.0,-98.0,-47.0,-465.0,10.0,1
-104.0,-158.0,-96.0,-87.0,-480.0,6.0,1
-104.0,-162.0,-95.0,-126.0,-483.0,-3.0,1
-102.0,-170.0,-95.0,-167.0,-475.0,-17.0,1
-93.0,-183.0,-96.0,-212.0,-460.0,-35.0,1
-82.0,-197.0,-94.0,-253.0,-447.0,-57.0,1
-70.0,-212.0,-90.0,-290.0,-432.0,-77.0,1
-60.0,-222.0,-87.0,-317.0,-414.0,-94.0,1
-45.0,-236.0,-87.0,-340.0,-391.0,-106.0,1
-34.0,-247.0,-85.0,-354.0,-365.0,-109.0,1
-21.0,-256.0,-79.0,-359.0,-335.0,-112.0,1
-9.0,-260.0,-81.0,-358.0,-301.0,-108.0,1
-3.0,-266.0,-79.0,-353.0,-268.0,-102.0,1
8.0,-273.0,-79.0,-346.0,-236.0,-92.0,1
15.0,-279.0,-78.0,-336.0,-203.0,-76.0,1
20.0,-279.0,-76.0,-323.0,-174.0,-56.0,1
29.0,-286.0,-74.0,-304.0,-145.0,-35.0,1
31.0,-288.0,-77.0,-283.0,-118.0,-10.0,1
33.0,-288.0,-69.0,-258.0,-91.0,18.0,1
30.0,-290.0,-66.0,-222.0,-66.0,50.0,1
29.0,-288.0,-64.0,-177.0,-40.0,80.0,1
26.0,-286.0,-56.0,-120.0,-15.0,116.0,1
23.0,-282.0,-55.0,-57.0,10.0,152.0,1
18.0,-273.0,-50.0,17.0,38.0,184.0,1
4.0,-265.0,-46.0,87.0,63.0,206.0,1
5.0,-258.0,-43.0,147.0,80.0,210.0,1
1.0,-253.0,-44.0,203.0,99.0,218.0,1
-8.0,-246.0,-43.0,246.0,119.0,225.0,1
-14.0,-238.0,-43.0,277.0,134.0,224.0,1
-19.0,-237.0,-41.0,298.0,151.0,230.0,1
-26.0,-235.0,-43.0,311.0,160.0,236.0,1
-28.0,-228.0,-37.0,317.0,169.0,244.0,1
-31.0,-232.0,-37.0,321.0,191.0,273.0,1
-45.0,-225.0,-39.0,313.0,206.0,290.0,1
-51.0,-227.0,-33.0,294.0,195.0,281.0,1
-52.0,-223.0,-38.0,279.0,194.0,274.0,1
-54.0,-222.0,-36.0,267.0,198.0,276.0,1
-57.0,-227.0,-36.0,249.0,204.0,281.0,1
-58.0,-223.0,-38.0,226.0,212.0,284.0,1
-57.0,-223.0,-34.0,197.0,217.0,281.0,1
-60.0,-221.0,-36.0,166.0,222.0,275.0,1
-59.0,-218.0,-30.0,137.0,228.0,269.0,1
-56.0,-218.0,-31.0,110.0,236.0,263.0,1
-59.0,-218.0,-33.0,85.0,239.0,253.0,1
-56.0,-216.0,-27.0,58.0,242.0,239.0,1
-56.0,-217.0,-30.0,35.0,250.0,228.0,1
-54.0,-212.0,-25.0,15.0,257.0,219.0,1
-51.0,-218.0,-25.0,0.0,267.0,211.0,1
-50.0,-220.0,-22.0,-17.0,271.0,198.0,1
-49.0,-225.0,-20.0,-31.0,271.0,181.0,1
-50.0,-225.0,-19.0,-40.0,271.0,167.0,1
-49.0,-231.0,-18.0,-47.0,271.0,154.0,1
-48.0,-235.0,-13.0,-50.0,273.0,143.0,1
-47.0,-239.0,-16.0,-47.0,275.0,136.0,1
-50.0,-240.0,-14.0,-41.0,276.0,128.0,1
-50.0,-242.0,-14.0,-26.0,277.0,120.0,1
-52.0,-243.0,-14.0,-10.0,279.0,114.0,1
-52.0,-245.0,-12.0,7.0,281.0,107.0,1
-50.0,-247.0,-13.0,23.0,280.0,99.0,1
-47.0,-247.0,-11.0,37.0,281.0,93.0,1
-47.0,-248.0,-14.0,49.0,280.0,86.0,1
-49.0,-248.0,-11.0,60.0,280.0,78.0,1
-46.0,-245.0,-13.0,71.0,280.0,73.0,1
-44.0,-244.0,-12.0,79.0,278.0,68.0,1
-45.0,-244.0,-10.0,85.0,278.0,59.0,1
-47.0,-238.0,-13.0,94.0,277.0,53.0,1
-43.0,-241.0,-12.0,105.0,276.0,43.0,1
-43.0,-233.0,-9.0,112.0,274.0,35.0,1
-42.0,-231.0,-7.0,120.0,271.0,22.0,1
-44.0,-233.0,-6.0,133.0,269.0,11.0,1
-46.0,-231.0,-9.0,146.0,265.0,-5.0,1
-47.0,-234.0,-9.0,157.0,263.0,-21.0,1
-44.0,-237.0,-6.0,164.0,258.0,-35.0,1
-45.0,-241.0,-13.0,167.0,253.0,-49.0,1
-45.0,-240.0,-11.0,166.0,252.0,-59.0,1
-45.0,-247.0,-9.0,167.0,252.0,-70.0,1
-43.0,-248.0,-10.0,167.0,253.0,-78.0,1
-42.0,-250.0,-6.0,161.0,250.0,-81.0,1
-44.0,-253.0,-11.0,154.0,247.0,-81.0,1
-42.0,-256.0,-17.0,146.0,243.0,-80.0,1
-40.0,-258.0,-14.0,139.0,242.0,-75.0,1
-39.0,-259.0,-11.0,129.0,238.0,-66.0,1
-38.0,-263.0,-18.0,118.0,234.0,-55.0,1
-38.0,-265.0,-15.0,111.0,227.0,-44.0,1
-39.0,-268.0,-11.0,110.0,229.0,-28.0,1
-45.0,-265.0,-16.0,120.0,239.0,-16.0,1
-44.0,-268.0,-10.0,135.0,246.0,-5.0,1
-45.0,-269.0,-8.0,158.0,259.0,5.0,1
-43.0,-271.0,-7.0,189.0,276.0,12.0,1
-44.0,-274.0,-1.0,224.0,296.0,17.0,1
-46.0,-275.0,7.0,256.0,315.0,19.0,1
-43.0,-279.0,8.0,298.0,331.0,18.0,1
-44.0,-281.0,15.0,337.0,345.0,14.0,1
-47.0,-281.0,18.0,375.0,357.0,9.0,1
-47.0,-280.0,22.0,409.0,369.0,5.0,1
-47.0,-278.0,23.0,442.0,380.0,1.0,1
-44.0,-283.0,31.0,473.0,392.0,-1.0,1
-51.0,-279.0,33.0,498.0,398.0,-3.0,1
-47.0,-280.0,34.0,518.0,402.0,1.0,1
-59.0,-282.0,37.0,530.0,401.0,8.0,1
-54.0,-276.0,40.0,537.0,398.0,17.0,1
-58.0,-271.0,38.0,534.0,389.0,33.0,1
-58.0,-270.0,41.0,527.0,385.0,50.0,1
-61.0,-267.0,41.0,521.0,379.0,69.0,1
-64.0,-261.0,38.0,510.0,372.0,87.0,1
-70.0,-258.0,35.0,488.0,368.0,104.0,1
-76.0,-257.0,22.0,452.0,368.0,122.0,1
-66.0,-260.0,8.0,375.0,380.0,141.0,1
-64.0,-274.0,0.0,259.0,406.0,159.0,1
-69.0,-297.0,1.0,165.0,421.0,192.0,1
-80.0,-316.0,-8.0,118.0,422.0,232.0,1
-81.0,-332.0,-23.0,80.0,419.0,269.0,1
-74.0,-346.0,-31.0,31.0,421.0,288.0,1
-66.0,-359.0,-23.0,-16.0,425.0,295.0,1
-78.0,-360.0,-19.0,-35.0,413.0,303.0,1
-89.0,-350.0,-17.0,-4.0,364.0,326.0,1
-92.0,-337.0,-23.0,37.0,296.0,360.0,1
-85.0,-334.0,-35.0,52.0,227.0,395.0,1
-84.0,-329.0,-49.0,67.0,163.0,415.0,1
-87.0,-319.0,-57.0,85.0,105.0,437.0,1
-81.0,-312.0,-69.0,94.0,51.0,464.0,1
-87.0,-297.0,-81.0,102.0,7.0,487.0,1
-87.0,-282.0,-85.0,107.0,-25.0,500.0,1
-85.0,-269.0,-84.0,122.0,-39.0,498.0,1
-79.0,-252.0,-85.0,145.0,-34.0,486.0,1
-74.0,-239.0,-78.0,174.0,-18.0,464.0,1
-63.0,-220.0,-73.0,203.0,6.0,437.0,1
-50.0,-208.0,-71.0,226.0,34.0,400.0,1
-33.0,-192.0,-72.0,241.0,74.0,362.0,1
-18.0,-182.0,-76.0,239.0,124.0,322.0,1
1.0,-170.0,-78.0,220.0,185.0,276.0,1
12.0,-164.0,-87.0,189.0,257.0,225.0,1
37.0,-158.0,-83.0,150.0,336.0,176.0,1
49.0,-153.0,-83.0,108.0,413.0,132.0,1
61.0,-152.0,-84.0,65.0,488.0,95.0,1
69.0,-154.0,-82.0,18.0,554.0,63.0,1
72.0,-163.0,-80.0,-36.0,610.0,34.0,1
68.0,-176.0,-75.0,-85.0,655.0,6.0,1
59.0,-191.0,-73.0,-127.0,688.0,-13.0,1
39.0,-209.0,-72.0,-167.0,707.0,-23.0,1
20.0,-234.0,-67.0,-210.0,715.0,-20.0,1
-5.0,-253.0,-67.0,-262.0,715.0,-17.0,1
-29.0,-281.0,-52.0,-318.0,702.0,-17.0,1
-39.0,-291.0,-56.0,-367.0,682.0,-17.0,1
-74.0,-301.0,-41.0,-395.0,657.0,-16.0,1
-82.0,-317.0,-42.0,-404.0,622.0,-12.0,1
-101.0,-337.0,-34.0,-401.0,583.0,-10.0,1
-110.0,-337.0,-35.0,-393.0,543.0,-14.0,1
-119.0,-336.0,-50.0,-381.0,496.0,-18.0,1
-109.0,-334.0,-29.0,-354.0,445.0,-28.0,1
-97.0,-327.0,-34.0,-313.0,391.0,-43.0,1
-98.0,-300.0,-14.0,-261.0,337.0,-61.0,1
-96.0,-291.0,-39.0,-201.0,281.0,-84.0,1
-89.0,-273.0,-48.0,-143.0,224.0,-108.0,1
-72.0,-260.0,-45.0,-92.0,168.0,-131.0,1
-67.0,-249.0,-45.0,-51.0,112.0,-155.0,1
-60.0,-239.0,-41.0,-18.0,62.0,-180.0,1
-56.0,-229.0,-46.0,4.0,19.0,-203.0,1
-51.0,-226.0,-45.0,19.0,-13.0,-223.0,1
-38.0,-214.0,-41.0,25.0,-39.0,-241.0,1
-41.0,-213.0,-37.0,23.0,-56.0,-253.0,1
-34.0,-207.0,-38.0,11.0,-67.0,-264.0,1
-23.0,-197.0,-33.0,-7.0,-69.0,-268.0,1
-39.0,-214.0,-41.0,-29.0,-67.0,-275.0,1
4.0,-197.0,-28.0,-49.0,-59.0,-278.0,1
-12.0,-201.0,-31.0,-70.0,-46.0,-279.0,1
-12.0,-215.0,-17.0,-98.0,-36.0,-280.0,1
-20.0,-213.0,-30.0,-128.0,-27.0,-282.0,1
-4.0,-219.0,-21.0,-154.0,-16.0,-283.0,1
-6.0,-222.0,-20.0,-168.0,-2.0,-284.0,1
0.0,-224.0,-23.0,-176.0,11.0,-286.0,1
2.0,-232.0,-21.0,-191.0,26.0,-287.0,1
8.0,-233.0,-20.0,-209.0,42.0,-288.0,1
-2.0,-244.0,-22.0,-233.0,57.0,-288.0,1
-6.0,-239.0,-8.0,-253.0,69.0,-293.0,1
3.0,-226.0,-25.0,-262.0,83.0,-295.0,1
3.0,-246.0,-17.0,-272.0,91.0,-294.0,1
11.0,-246.0,-12.0,-283.0,94.0,-294.0,1
1.0,-241.0,-17.0,-292.0,95.0,-294.0,1
-10.0,-238.0,-9.0,-299.0,94.0,-293.0,1
-8.0,-236.0,-14.0,-302.0,91.0,-287.0,1
-5.0,-237.0,-15.0,-303.0,80.0,-282.0,1
-11.0,-229.0,-18.0,-308.0,64.0,-278.0,1
-13.0,-232.0,-14.0,-309.0,54.0,-259.0,1
-15.0,-230.0,-11.0,-308.0,44.0,-238.0,1
-16.0,-233.0,-7.0,-302.0,32.0,-214.0,1
-17.0,-225.0,-3.0,-292.0,22.0,-190.0,1
-11.0,-225.0,-10.0,-279.0,9.0,-167.0,1
-16.0,-225.0,-3.0,-262.0,-4.0,-141.0,1
-22.0,-227.0,0.0,-242.0,-15.0,-112.0,1
-22.0,-221.0,-4.0,-221.0,-26.0,-90.0,1
-13.0,-225.0,6.0,-199.0,-37.0,-66.0,1
-29.0,-209.0,-3.0,-180.0,-46.0,-49.0,1
-17.0,-238.0,-6.0,-162.0,-57.0,-35.0,1
-28.0,-225.0,-8.0,-143.0,-66.0,-23.0,1
-28.0,-242.0,-6.0,-127.0,-74.0,-16.0,1
-31.0,-238.0,-3.0,-117.0,-78.0,-6.0,1
-28.0,-231.0,-7.0,-112.0,-80.0,1.0,1
-25.0,-241.0,-4.0,-108.0,-82.0,4.0,1
-26.0,-241.0,0.0,-105.0,-82.0,11.0,1
-29.0,-246.0,-3.0,-103.0,-81.0,18.0,1
-28.0,-244.0,-3.0,-100.0,-80.0,25.0,1
-24.0,-242.0,-3.0,-101.0,-80.0,36.0,1
-29.0,-244.0,-10.0,-98.0,-84.0,47.0,1
-37.0,-250.0,-8.0,-94.0,-92.0,60.0,1
-30.0,-249.0,-7.0,-88.0,-100.0,76.0,1
-28.0,-243.0,9.0,-82.0,-112.0,91.0,1
-26.0,-246.0,7.0,-78.0,-128.0,109.0,1
-40.0,-239.0,-1.0,-78.0,-142.0,123.0,1
-39.0,-247.0,-3.0,-81.0,-151.0,140.0,1
-42.0,-250.0,-4.0,-84.0,-166.0,154.0,1
-36.0,-249.0,11.0,-90.0,-182.0,167.0,1
-43.0,-253.0,1.0,-97.0,-201.0,175.0,1
-40.0,-254.0,9.0,-109.0,-209.0,179.0,1
-44.0,-254.0,3.0,-121.0,-208.0,181.0,1
-42.0,-261.0,4.0,-126.0,-207.0,177.0,1
-40.0,-261.0,2.0,-128.0,-204.0,164.0,1
-44.0,-268.0,3.0,-129.0,-199.0,142.0,1
-42.0,-260.0,3.0,-132.0,-196.0,111.0,1
-27.0,-270.0,-1.0,-131.0,-192.0,72.0,1
-40.0,-281.0,5.0,-129.0,-194.0,23.0,1
-43.0,-286.0,1.0,-119.0,-202.0,-23.0,1
-42.0,-279.0,3.0,-111.0,-221.0,-79.0,1
-44.0,-286.0,9.0,-99.0,-244.0,-125.0,1
-47.0,-286.0,10.0,-86.0,-267.0,-157.0,1
-45.0,-286.0,13.0,-65.0,-293.0,-177.0,1
-50.0,-299.0,17.0,-33.0,-319.0,-186.0,1
-55.0,-288.0,22.0,3.0,-347.0,-191.0,1
-51.0,-302.0,19.0,48.0,-369.0,-190.0,1
-52.0,-300.0,31.0,105.0,-386.0,-172.0,1
-51.0,-298.0,25.0,161.0,-411.0,-159.0,1
-48.0,-296.0,23.0,206.0,-441.0,-155.0,1
-48.0,-306.0,13.0,237.0,-453.0,-151.0,1
-36.0,-320.0,-11.0,239.0,-442.0,-150.0,1
-60.0,-338.0,-24.0,204.0,-452.0,-164.0,1
-47.0,-360.0,-53.0,144.0,-505.0,-203.0,1
-58.0,-375.0,-80.0,6.0,-531.0,-262.0,1
-56.0,-403.0,-88.0,-224.0,-538.0,-328.0,1
-40.0,-427.0,-79.0,-467.0,-529.0,-388.0,1
-33.0,-439.0,-47.0,-585.0,-477.0,-453.0,1
-18.0,-432.0,-22.0,-512.0,-381.0,-537.0,1
-1.0,-414.0,-16.0,-294.0,-261.0,-608.0,1
8.0,-392.0,-20.0,-44.0,-152.0,-657.0,1
32.0,-367.0,-19.0,175.0,-55.0,-678.0,1
28.0,-344.0,-41.0,363.0,32.0,-670.0,1
32.0,-312.0,-57.0,505.0,104.0,-648.0,1
43.0,-287.0,-75.0,587.0,157.0,-628.0,1
48.0,-263.0,-75.0,611.0,191.0,-605.0,1
43.0,-255.0,-77.0,592.0,195.0,-574.0,1
53.0,-238.0,-67.0,543.0,172.0,-528.0,1
48.0,-231.0,-53.0,490.0,123.0,-473.0,1
35.0,-219.0,-45.0,436.0,55.0,-429.0,1
29.0,-214.0,-40.0,395.0,-9.0,-373.0,1
16.0,-207.0,-42.0,375.0,-71.0,-291.0,1
1.0,-203.0,-49.0,352.0,-139.0,-219.0,1
-16.0,-195.0,-57.0,314.0,-219.0,-158.0,1
-33.0,-192.0,-68.0,260.0,-295.0,-102.0,1
-49.0,-186.0,-70.0,199.0,-369.0,-58.0,1
-69.0,-178.0,-76.0,134.0,-441.0,-22.0,1
-82.0,-173.0,-83.0,72.0,-506.0,5.0,1
-96.0,-161.0,-91.0,16.0,-562.0,24.0,1
-109.0,-159.0,-89.0,-40.0,-603.0,33.0,1
-118.0,-162.0,-94.0,-94.0,-631.0,37.0,1
-125.0,-160.0,-99.0,-149.0,-638.0,32.0,1
-127.0,-171.0,-100.0,-191.0,-625.0,18.0,1
-118.0,-186.0,-96.0,-240.0,-597.0,-6.0,1
-107.0,-205.0,-94.0,-283.0,-563.0,-39.0,1
-93.0,-223.0,-89.0,-317.0,-530.0,-78.0,1
-79.0,-243.0,-89.0,-345.0,-498.0,-110.0,1
-63.0,-256.0,-79.0,-366.0,-466.0,-134.0,1
-47.0,-269.0,-78.0,-374.0,-438.0,-147.0,1
-30.0,-281.0,-65.0,-369.0,-414.0,-152.0,1
-18.0,-286.0,-68.0,-351.0,-382.0,-151.0,1
-3.0,-293.0,-66.0,-324.0,-346.0,-142.0,1
6.0,-295.0,-67.0,-295.0,-306.0,-124.0,1
15.0,-301.0,-69.0,-266.0,-267.0,-98.0,1
23.0,-299.0,-69.0,-244.0,-229.0,-63.0,1
31.0,-298.0,-69.0,-227.0,-194.0,-23.0,1
35.0,-297.0,-71.0,-206.0,-165.0,14.0,1
38.0,-294.0,-66.0,-178.0,-143.0,65.0,1
35.0,-284.0,-60.0,-145.0,-127.0,123.0,1
35.0,-279.0,-57.0,-102.0,-117.0,187.0,1
29.0,-270.0,-53.0,-50.0,-110.0,242.0,1
25.0,-262.0,-50.0,5.0,-101.0,290.0,1
17.0,-250.0,-48.0,58.0,-94.0,331.0,1
7.0,-243.0,-46.0,110.0,-85.0,358.0,1
5.0,-236.0,-47.0,159.0,-75.0,372.0,1
0.0,-233.0,-45.0,207.0,-61.0,377.0,1
-10.0,-223.0,-39.0,253.0,-40.0,379.0,1
-14.0,-221.0,-41.0,293.0,-19.0,383.0,1
-18.0,-223.0,-43.0,319.0,0.0,396.0,1
-33.0,-219.0,-40.0,331.0,19.0,400.0,1
-43.0,-218.0,-36.0,325.0,20.0,377.0,1
-47.0,-227.0,-32.0,308.0,22.0,344.0,1
-48.0,-223.0,-37.0,293.0,31.0,322.0,1
-57.0,-226.0,-33.0,279.0,43.0,304.0,1
-62.0,-229.0,-32.0,260.0,48.0,285.0,1
-59.0,-234.0,-33.0,238.0,56.0,275.0,1
-62.0,-232.0,-34.0,215.0,65.0,279.0,1
-64.0,-232.0,-35.0,192.0,74.0,280.0,1
-66.0,-228.0,-35.0,167.0,75.0,279.0,1
-65.0,-227.0,-31.0,144.0,76.0,274.0,1
-67.0,-226.0,-35.0,120.0,81.0,272.0,1
-65.0,-221.0,-35.0,95.0,79.0,269.0,1
-64.0,-218.0,-27.0,72.0,81.0,267.0,1
-64.0,-214.0,-25.0,47.0,78.0,263.0,1
-65.0,-209.0,-21.0,19.0,76.0,255.0,1
-65.0,-209.0,-20.0,-3.0,73.0,247.0,1
-65.0,-210.0,-18.0,-19.0,72.0,237.0,1
-62.0,-211.0,-12.0,-36.0,69.0,224.0,1
-63.0,-211.0,-15.0,-52.0,68.0,209.0,1
-62.0,-212.0,-12.0,-66.0,71.0,193.0,1
-62.0,-215.0,-7.0,-78.0,75.0,173.0,1
-60.0,-221.0,-5.0,-81.0,81.0,151.0,1
-58.0,-224.0,-4.0,-75.0,89.0,134.0,1
-57.0,-232.0,-10.0,-65.0,95.0,113.0,1
-51.0,-231.0,-9.0,-48.0,101.0,95.0,1
-49.0,-237.0,-10.0,-31.0,108.0,82.0,1
-51.0,-238.0,-10.0,-14.0,112.0,70.0,1
-48.0,-240.0,-12.0,3.0,114.0,58.0,1
-46.0,-241.0,-11.0,18.0,115.0,49.0,1
-44.0,-240.0,-8.0,31.0,114.0,40.0,1
-48.0,-243.0,-12.0,43.0,112.0,34.0,1
-45.0,-245.0,-10.0,47.0,109.0,28.0,1
-48.0,-244.0,-7.0,49.0,109.0,21.0,1
-46.0,-241.0,-4.0,55.0,112.0,15.0,1
-48.0,-238.0,-8.0,58.0,117.0,9.0,1
-46.0,-238.0,-11.0,62.0,124.0,4.0,1
-47.0,-237.0,-7.0,66.0,131.0,-3.0,1
-48.0,-233.0,-8.0,67.0,141.0,-10.0,1
-46.0,-234.0,-8.0,67.0,150.0,-18.0,1
-43.0,-237.0,-5.0,65.0,160.0,-29.0,1
-43.0,-238.0,-4.0,63.0,173.0,-40.0,1
-41.0,-237.0,-5.0,62.0,181.0,-51.0,1
-44.0,-240.0,-3.0,61.0,189.0,-63.0,1
-43.0,-240.0,-4.0,61.0,196.0,-75.0,1
-41.0,-241.0,3.0,65.0,203.0,-86.0,1
-36.0,-249.0,2.0,71.0,210.0,-97.0,1
-45.0,-243.0,-3.0,78.0,219.0,-105.0,1
-42.0,-246.0,-6.0,83.0,226.0,-111.0,1
-40.0,-247.0,-7.0,83.0,235.0,-113.0,1
-42.0,-247.0,-10.0,81.0,246.0,-114.0,1
-41.0,-253.0,-8.0,74.0,256.0,-113.0,1
-43.0,-254.0,-15.0,61.0,268.0,-107.0,1
-46.0,-262.0,-14.0,45.0,284.0,-100.0,1
-46.0,-267.0,-13.0,31.0,305.0,-90.0,1
-46.0,-274.0,-13.0,23.0,328.0,-79.0,1
-45.0,-278.0,-9.0,21.0,354.0,-68.0,1
-43.0,-281.0,-6.0,34.0,383.0,-59.0,1
-43.0,-285.0,-2.0,54.0,411.0,-51.0,1
-45.0,-286.0,1.0,79.0,433.0,-43.0,1
-44.0,-289.0,6.0,109.0,452.0,-40.0,1
-40.0,-292.0,6.0,141.0,465.0,-39.0,1
-41.0,-293.0,14.0,173.0,474.0,-40.0,1
-38.0,-293.0,15.0,207.0,479.0,-41.0,1
-40.0,-289.0,15.0,242.0,482.0,-43.0,1
-41.0,-283.0,16.0,271.0,483.0,-43.0,1
-41.0,-282.0,24.0,303.0,485.0,-42.0,1
-37.0,-273.0,23.0,335.0,492.0,-41.0,1
-48.0,-275.0,33.0,365.0,501.0,-40.0,1
-54.0,-270.0,33.0,391.0,504.0,-35.0,1
-55.0,-271.0,37.0,413.0,509.0,-25.0,1
-60.0,-271.0,41.0,431.0,511.0,-14.0,1
-59.0,-266.0,42.0,442.0,513.0,0.0,1
-64.0,-263.0,44.0,449.0,514.0,18.0,1
-70.0,-258.0,46.0,453.0,516.0,35.0,1
-78.0,-255.0,41.0,452.0,521.0,54.0,1
-85.0,-251.0,27.0,431.0,527.0,74.0,1
-76.0,-254.0,11.0,377.0,543.0,94.0,1
-68.0,-269.0,11.0,268.0,574.0,116.0,1
-78.0,-286.0,8.0,163.0,591.0,142.0,1
-86.0,-308.0,-2.0,109.0,592.0,177.0,1
-93.0,-316.0,-13.0,57.0,588.0,216.0,1
-88.0,-327.0,-19.0,-19.0,601.0,241.0,1
-78.0,-337.0,-18.0,-93.0,611.0,246.0,1
-85.0,-336.0,-11.0,-135.0,596.0,250.0,1
-94.0,-330.0,-4.0,-133.0,538.0,280.0,1
-96.0,-322.0,2.0,-92.0,448.0,317.0,1
-100.0,-311.0,-8.0,-26.0,349.0,341.0,1
-101.0,-302.0,-16.0,38.0,253.0,361.0,1
-87.0,-288.0,-34.0,74.0,170.0,370.0,1
-84.0,-278.0,-45.0,62.0,115.0,370.0,1
-86.0,-273.0,-52.0,35.0,70.0,368.0,1
-88.0,-268.0,-58.0,22.0,21.0,367.0,1
-84.0,-266.0,-66.0,19.0,-17.0,374.0,1
-86.0,-262.0,-73.0,22.0,-40.0,379.0,1
-79.0,-256.0,-80.0,27.0,-47.0,378.0,1
-77.0,-253.0,-81.0,37.0,-37.0,371.0,1
-73.0,-245.0,-74.0,58.0,-16.0,359.0,1
-66.0,-237.0,-66.0,86.0,8.0,347.0,1
-57.0,-227.0,-65.0,112.0,34.0,333.0,1
-43.0,-222.0,-64.0,129.0,61.0,311.0,1
-27.0,-213.0,-66.0,138.0,96.0,286.0,1
-12.0,-207.0,-67.0,139.0,139.0,257.0,1
1.0,-195.0,-69.0,128.0,193.0,227.0,1
22.0,-189.0,-77.0,110.0,257.0,193.0,1
40.0,-186.0,-76.0,85.0,330.0,159.0,1
58.0,-185.0,-74.0,56.0,404.0,127.0,1
65.0,-183.0,-77.0,28.0,472.0,99.0,1
71.0,-185.0,-75.0,-5.0,532.0,73.0,1
73.0,-191.0,-76.0,-42.0,578.0,50.0,1
69.0,-203.0,-80.0,-85.0,610.0,30.0,1
60.0,-214.0,-72.0,-129.0,629.0,14.0,1
46.0,-228.0,-69.0,-176.0,640.0,6.0,1
29.0,-242.0,-66.0,-229.0,643.0,1.0,1
7.0,-255.0,-62.0,-283.0,641.0,-3.0,1
-9.0,-276.0,-52.0,-333.0,631.0,-2.0,1
-29.0,-294.0,-48.0,-374.0,613.0,-2.0,1
-43.0,-307.0,-42.0,-402.0,591.0,-5.0,1
-59.0,-318.0,-36.0,-416.0,560.0,-6.0,1
-66.0,-326.0,-33.0,-412.0,521.0,-12.0,1
-77.0,-327.0,-33.0,-396.0,475.0,-23.0,1
-85.0,-327.0,-32.0,-366.0,421.0,-37.0,1
-88.0,-319.0,-32.0,-329.0,366.0,-56.0,1
-89.0,-310.0,-41.0,-287.0,314.0,-76.0,1
-88.0,-298.0,-41.0,-246.0,263.0,-95.0,1
-79.0,-287.0,-44.0,-206.0,214.0,-115.0,1
-77.0,-269.0,-50.0,-176.0,174.0,-134.0,1
-71.0,-256.0,-50.0,-149.0,137.0,-153.0,1
-65.0,-246.0,-40.0,-125.0,111.0,-170.0,1
-62.0,-237.0,-43.0,-99.0,89.0,-185.0,1
-53.0,-226.0,-40.0,-78.0,74.0,-197.0,1
-57.0,-225.0,-47.0,-63.0,59.0,-207.0,1
-42.0,-217.0,-35.0,-52.0,52.0,-211.0,1
-37.0,-215.0,-31.0,-46.0,48.0,-211.0,1
-35.0,-215.0,-25.0,-41.0,49.0,-208.0,1
-29.0,-213.0,-26.0,-44.0,54.0,-204.0,1
-24.0,-213.0,-24.0,-52.0,62.0,-204.0,1
-16.0,-216.0,-20.0,-63.0,74.0,-199.0,1
-15.0,-218.0,-19.0,-76.0,89.0,-198.0,1
-10.0,-221.0,-18.0,-91.0,104.0,-197.0,1
-7.0,-222.0,-20.0,-106.0,115.0,-198.0,1
-4.0,-227.0,-18.0,-119.0,126.0,-202.0,1
-2.0,-229.0,-17.0,-129.0,137.0,-209.0,1
-1.0,-235.0,-15.0,-138.0,144.0,-218.0,1
0.0,-241.0,-17.0,-147.0,150.0,-228.0,1
0.0,-244.0,-13.0,-158.0,152.0,-239.0,1
-1.0,-243.0,-14.0,-170.0,153.0,-251.0,1
-3.0,-241.0,-11.0,-185.0,151.0,-260.0,1
-4.0,-240.0,-17.0,-200.0,149.0,-265.0,1
-7.0,-241.0,-16.0,-215.0,143.0,-270.0,1
-15.0,-237.0,-18.0,-231.0,136.0,-271.0,1
-14.0,-236.0,-18.0,-248.0,127.0,-270.0,1
-18.0,-234.0,-18.0,-262.0,116.0,-267.0,1
-32.0,-227.0,-22.0,-273.0,102.0,-261.0,1
-26.0,-227.0,-15.0,-280.0,88.0,-253.0,1
-30.0,-225.0,-18.0,-282.0,71.0,-240.0,1
-30.0,-224.0,-16.0,-282.0,57.0,-227.0,1
-32.0,-225.0,-17.0,-280.0,44.0,-215.0,1
-37.0,-228.0,-14.0,-277.0,29.0,-202.0,1
-42.0,-229.0,-17.0,-272.0,12.0,-188.0,1
-38.0,-235.0,-19.0,-272.0,-8.0,-175.0,1
-38.0,-233.0,-11.0,-268.0,-26.0,-160.0,1
-41.0,-237.0,-14.0,-263.0,-42.0,-147.0,1
-42.0,-234.0,-8.0,-254.0,-61.0,-136.0,1
-37.0,-238.0,-12.0,-236.0,-71.0,-118.0,1
-41.0,-237.0,-9.0,-211.0,-86.0,-99.0,1
-40.0,-243.0,-15.0,-184.0,-97.0,-83.0,1
-37.0,-243.0,-13.0,-166.0,-112.0,-73.0,1
-34.0,-246.0,-13.0,-146.0,-128.0,-71.0,1
-32.0,-245.0,-12.0,-129.0,-145.0,-67.0,1
-32.0,-246.0,-7.0,-111.0,-156.0,-62.0,1
-30.0,-248.0,-13.0,-93.0,-169.0,-57.0,1
-29.0,-248.0,-6.0,-75.0,-180.0,-55.0,1
-27.0,-250.0,-5.0,-58.0,-191.0,-52.0,1
-27.0,-252.0,-7.0,-45.0,-199.0,-49.0,1
-30.0,-249.0,-10.0,-30.0,-206.0,-43.0,1
-24.0,-246.0,-6.0,-19.0,-211.0,-38.0,1
-25.0,-247.0,-2.0,-10.0,-219.0,-31.0,1
-26.0,-246.0,-3.0,-3.0,-229.0,-23.0,1
-29.0,-246.0,-1.0,6.0,-238.0,-13.0,1
-29.0,-242.0,2.0,16.0,-250.0,-2.0,1
-32.0,-246.0,1.0,27.0,-265.0,10.0,1
-33.0,-245.0,5.0,33.0,-282.0,23.0,1
-38.0,-243.0,5.0,39.0,-304.0,38.0,1
-42.0,-245.0,7.0,44.0,-324.0,50.0,1
-45.0,-244.0,7.0,48.0,-344.0,67.0,1
-45.0,-246.0,6.0,48.0,-361.0,88.0,1
-52.0,-241.0,4.0,46.0,-371.0,107.0,1
-50.0,-243.0,1.0,42.0,-375.0,125.0,1
-50.0,-243.0,0.0,37.0,-373.0,136.0,1
-48.0,-242.0,-3.0,28.0,-367.0,142.0,1
-40.0,-243.0,-7.0,18.0,-360.0,139.0,1
-37.0,-240.0,-7.0,9.0,-354.0,124.0,1
-28.0,-243.0,-4.0,-2.0,-352.0,99.0,1
-28.0,-246.0,-4.0,-13.0,-353.0,66.0,1
-21.0,-247.0,-4.0,-21.0,-363.0,30.0,1
-17.0,-253.0,-3.0,-27.0,-376.0,-6.0,1
-20.0,-249.0,3.0,-33.0,-397.0,-37.0,1
-23.0,-261.0,2.0,-40.0,-427.0,-71.0,1
-29.0,-267.0,4.0,-49.0,-456.0,-99.0,1
-31.0,-273.0,10.0,-52.0,-487.0,-111.0,1
-35.0,-284.0,13.0,-49.0,-511.0,-117.0,1
-40.0,-288.0,19.0,-39.0,-533.0,-120.0,1
-44.0,-294.0,23.0,-19.0,-546.0,-120.0,1
-47.0,-300.0,32.0,1.0,-560.0,-128.0,1
-45.0,-306.0,32.0,32.0,-570.0,-126.0,1
-41.0,-310.0,32.0,79.0,-568.0,-112.0,1
-40.0,-314.0,21.0,123.0,-568.0,-107.0,1
-37.0,-334.0,1.0,161.0,-557.0,-103.0,1
-50.0,-348.0,-10.0,178.0,-533.0,-113.0,1
-63.0,-363.0,-6.0,150.0,-542.0,-143.0,1
-55.0,-376.0,-20.0,79.0,-593.0,-182.0,1
-42.0,-393.0,-48.0,-46.0,-626.0,-235.0,1
-45.0,-405.0,-66.0,-208.0,-642.0,-305.0,1
-32.0,-419.0,-72.0,-369.0,-639.0,-371.0,1
-11.0,-424.0,-53.0,-446.0,-583.0,-439.0,1
7.0,-416.0,-39.0,-394.0,-475.0,-516.0,1
17.0,-398.0,-30.0,-246.0,-346.0,-587.0,1
19.0,-387.0,-25.0,-65.0,-221.0,-637.0,1
31.0,-365.0,-31.0,99.0,-103.0,-672.0,1
28.0,-341.0,-27.0,239.0,5.0,-690.0,1
32.0,-315.0,-38.0,367.0,101.0,-691.0,1
37.0,-291.0,-41.0,468.0,177.0,-677.0,1
41.0,-274.0,-47.0,530.0,233.0,-644.0,1
42.0,-258.0,-46.0,550.0,264.0,-593.0,1
40.0,-246.0,-44.0,531.0,264.0,-539.0,1
36.0,-239.0,-36.0,496.0,248.0,-480.0,1
28.0,-229.0,-29.0,466.0,216.0,-414.0,1
22.0,-221.0,-32.0,444.0,180.0,-346.0,1
8.0,-214.0,-32.0,427.0,137.0,-277.0,1
-1.0,-208.0,-37.0,402.0,80.0,-205.0,1
-13.0,-210.0,-48.0,351.0,17.0,-134.0,1
-22.0,-205.0,-51.0,281.0,-56.0,-65.0,1
-39.0,-206.0,-55.0,203.0,-131.0,-6.0,1
-45.0,-201.0,-64.0,125.0,-206.0,45.0,1
-61.0,-197.0,-68.0,48.0,-280.0,80.0,1
-65.0,-197.0,-78.0,-18.0,-346.0,101.0,1
-78.0,-187.0,-83.0,-78.0,-410.0,111.0,1
-81.0,-183.0,-84.0,-133.0,-461.0,113.0,1
-90.0,-176.0,-88.0,-184.0,-503.0,106.0,1
-99.0,-175.0,-82.0,-228.0,-531.0,91.0,1
-98.0,-169.0,-91.0,-268.0,-548.0,75.0,1
-102.0,-168.0,-97.0,-300.0,-549.0,55.0,1
-101.0,-171.0,-91.0,-330.0,-532.0,35.0,1
-96.0,-182.0,-90.0,-357.0,-508.0,13.0,1
-85.0,-196.0,-85.0,-375.0,-475.0,-12.0,1
-73.0,-209.0,-81.0,-388.0,-434.0,-41.0,1
-58.0,-228.0,-79.0,-395.0,-389.0,-70.0,1
-50.0,-243.0,-76.0,-396.0,-343.0,-91.0,1
-37.0,-257.0,-69.0,-392.0,-297.0,-105.0,1
-29.0,-268.0,-60.0,-380.0,-249.0,-112.0,1
-13.0,-281.0,-57.0,-359.0,-197.0,-116.0,1
1.0,-290.0,-52.0,-329.0,-144.0,-113.0,1
9.0,-291.0,-49.0,-291.0,-93.0,-107.0,1
13.0,-290.0,-50.0,-251.0,-47.0,-97.0,1
15.0,-287.0,-52.0,-211.0,-8.0,-79.0,1
19.0,-286.0,-53.0,-175.0,27.0,-55.0,1
22.0,-283.0,-51.0,-145.0,52.0,-28.0,1
22.0,-275.0,-55.0,-125.0,74.0,4.0,1
21.0,-272.0,-57.0,-106.0,92.0,37.0,1
17.0,-270.0,-55.0,-88.0,106.0,75.0,1
24.0,-263.0,-44.0,-72.0,115.0,111.0,1
11.0,-259.0,-54.0,-55.0,121.0,144.0,1
10.0,-260.0,-44.0,-35.0,124.0,179.0,1
2.0,-252.0,-44.0,-13.0,127.0,207.0,1
0.0,-252.0,-43.0,12.0,125.0,232.0,1
-13.0,-252.0,-42.0,39.0,124.0,254.0,1
-20.0,-250.0,-35.0,63.0,121.0,270.0,1
-28.0,-248.0,-34.0,86.0,121.0,287.0,1
-36.0,-246.0,-30.0,102.0,119.0,301.0,1
-38.0,-245.0,-28.0,112.0,117.0,313.0,1
-47.0,-243.0,-34.0,115.0,116.0,319.0,1
-50.0,-245.0,-34.0,110.0,114.0,322.0,1
-54.0,-240.0,-29.0,99.0,113.0,325.0,1
-53.0,-243.0,-31.0,85.0,114.0,330.0,1
-54.0,-239.0,-28.0,76.0,119.0,335.0,1
-59.0,-235.0,-32.0,69.0,125.0,329.0,1
-54.0,-236.0,-32.0,63.0,135.0,321.0,1
-49.0,-232.0,-30.0,57.0,149.0,308.0,1
-46.0,-228.0,-31.0,55.0,163.0,297.0,1
-42.0,-226.0,-29.0,48.0,177.0,283.0,1
-39.0,-227.0,-27.0,42.0,193.0,276.0,1
-37.0,-222.0,-24.0,33.0,206.0,268.0,1
-30.0,-225.0,-23.0,17.0,214.0,259.0,1
-32.0,-220.0,-23.0,-4.0,221.0,252.0,1
-32.0,-222.0,-20.0,-27.0,226.0,250.0,1
-29.0,-222.0,-20.0,-51.0,229.0,251.0,1
-30.0,-220.0,-16.0,-78.0,233.0,247.0,1
-35.0,-220.0,-18.0,-104.0,234.0,242.0,1
-34.0,-222.0,-14.0,-126.0,237.0,246.0,1
-38.0,-223.0,-10.0,-145.0,240.0,246.0,1
-45.0,-228.0,-11.0,-162.0,246.0,238.0,1
-45.0,-231.0,-7.0,-173.0,255.0,230.0,1
-45.0,-236.0,-6.0,-173.0,268.0,221.0,1
-43.0,-241.0,-9.0,-160.0,286.0,215.0,1
-48.0,-241.0,-6.0,-142.0,305.0,213.0,1
-47.0,-241.0,-6.0,-126.0,322.0,209.0,1
-51.0,-246.0,-7.0,-111.0,336.0,195.0,1
-45.0,-248.0,-5.0,-94.0,353.0,184.0,1
-45.0,-246.0,-8.0,-79.0,365.0,172.0,1
-44.0,-245.0,-6.0,-60.0,379.0,162.0,1
-41.0,-246.0,-7.0,-36.0,393.0,150.0,1
-40.0,-246.0,-4.0,-14.0,403.0,140.0,1
-40.0,-247.0,-3.0,6.0,411.0,128.0,1
-37.0,-245.0,-2.0,28.0,416.0,118.0,1
-31.0,-242.0,2.0,47.0,423.0,111.0,1
-40.0,-244.0,-2.0,64.0,429.0,103.0,1
-41.0,-239.0,-2.0,79.0,437.0,95.0,1
-39.0,-237.0,-6.0,94.0,446.0,88.0,1
-41.0,-234.0,-1.0,102.0,456.0,79.0,1
-38.0,-232.0,-4.0,109.0,466.0,72.0,1
-41.0,-231.0,-3.0,115.0,478.0,64.0,1
-41.0,-225.0,-2.0,117.0,492.0,53.0,1
-43.0,-229.0,-4.0,116.0,509.0,44.0,1
-40.0,-231.0,-2.0,115.0,525.0,36.0,1
-40.0,-231.0,-3.0,111.0,543.0,29.0,1
-37.0,-235.0,0.0,109.0,561.0,21.0,1
-41.0,-234.0,-3.0,110.0,577.0,12.0,1
-45.0,-236.0,-7.0,111.0,590.0,5.0,1
-42.0,-238.0,-3.0,113.0,604.0,-2.0,1
-45.0,-240.0,-6.0,116.0,617.0,-8.0,1
-48.0,-242.0,-7.0,119.0,631.0,-14.0,1
-48.0,-242.0,-15.0,123.0,641.0,-22.0,1
-52.0,-242.0,-14.0,123.0,648.0,-27.0,1
-54.0,-239.0,-19.0,119.0,652.0,-31.0,1
-60.0,-236.0,-19.0,114.0,651.0,-32.0,1
-62.0,-239.0,-18.0,107.0,649.0,-34.0,1
-68.0,-241.0,-14.0,102.0,643.0,-34.0,1
-68.0,-245.0,-17.0,94.0,635.0,-31.0,1
-68.0,-250.0,-20.0,88.0,627.0,-25.0,1
-74.0,-251.0,-20.0,85.0,619.0,-20.0,1
-74.0,-257.0,-19.0,86.0,609.0,-12.0,1
-78.0,-258.0,-16.0,89.0,598.0,-8.0,1
-80.0,-264.0,-14.0,96.0,589.0,-4.0,1
-80.0,-266.0,-13.0,106.0,576.0,3.0,1
-83.0,-270.0,-7.0,115.0,563.0,5.0,1
-84.0,-274.0,-7.0,129.0,552.0,7.0,1
-90.0,-272.0,-5.0,142.0,538.0,8.0,1
-87.0,-276.0,-7.0,151.0,522.0,10.0,1
-86.0,-282.0,-1.0,160.0,508.0,13.0,1
-91.0,-285.0,1.0,174.0,495.0,14.0,1
-89.0,-287.0,5.0,183.0,480.0,18.0,1
-88.0,-288.0,7.0,194.0,467.0,26.0,1
-86.0,-284.0,12.0,213.0,458.0,29.0,1
-84.0,-288.0,15.0,233.0,448.0,37.0,1
-82.0,-280.0,20.0,252.0,437.0,46.0,1
-80.0,-278.0,18.0,269.0,428.0,56.0,1
-78.0,-270.0,24.0,287.0,424.0,65.0,1
-76.0,-272.0,27.0,301.0,418.0,72.0,1
-76.0,-266.0,17.0,308.0,419.0,79.0,1
-79.0,-263.0,3.0,304.0,426.0,88.0,1
-64.0,-269.0,-5.0,259.0,453.0,98.0,1
-54.0,-290.0,1.0,175.0,494.0,106.0,1
-57.0,-314.0,-8.0,120.0,518.0,117.0,1
-62.0,-326.0,-26.0,105.0,531.0,129.0,1
-64.0,-337.0,-44.0,61.0,534.0,139.0,1
-63.0,-352.0,-53.0,-32.0,529.0,139.0,1
-63.0,-362.0,-53.0,-139.0,497.0,141.0,1
-74.0,-364.0,-37.0,-198.0,428.0,165.0,1
-92.0,-353.0,-20.0,-175.0,352.0,219.0,1
-102.0,-337.0,-17.0,-92.0,253.0,285.0,1
-112.0,-317.0,-14.0,8.0,160.0,341.0,1
-102.0,-305.0,-17.0,91.0,79.0,387.0,1
-92.0,-297.0,-14.0,153.0,15.0,415.0,1
-82.0,-294.0,-10.0,216.0,-38.0,433.0,1
-78.0,-281.0,-18.0,293.0,-96.0,454.0,1
-74.0,-266.0,-32.0,354.0,-149.0,480.0,1
-68.0,-249.0,-42.0,382.0,-188.0,497.0,1
-62.0,-234.0,-49.0,373.0,-205.0,503.0,1
-53.0,-220.0,-46.0,341.0,-200.0,496.0,1
-47.0,-207.0,-45.0,300.0,-177.0,479.0,1
-46.0,-194.0,-47.0,250.0,-145.0,447.0,1
-34.0,-185.0,-47.0,183.0,-112.0,404.0,1
-28.0,-186.0,-45.0,111.0,-70.0,367.0,1
-18.0,-185.0,-47.0,42.0,-17.0,317.0,1
-5.0,-196.0,-47.0,-18.0,43.0,273.0,1
8.0,-203.0,-47.0,-67.0,114.0,224.0,1
22.0,-209.0,-59.0,-110.0,190.0,183.0,1
31.0,-213.0,-64.0,-147.0,270.0,146.0,1
39.0,-210.0,-67.0,-180.0,348.0,113.0,1
45.0,-213.0,-74.0,-214.0,424.0,84.0,1
50.0,-217.0,-75.0,-250.0,495.0,63.0,1
50.0,-215.0,-84.0,-287.0,556.0,46.0,1
46.0,-221.0,-84.0,-323.0,605.0,36.0,1
39.0,-231.0,-84.0,-354.0,644.0,33.0,1
31.0,-235.0,-83.0,-383.0,663.0,37.0,1
23.0,-245.0,-75.0,-412.0,666.0,44.0,1
7.0,-254.0,-68.0,-442.0,659.0,58.0,1
1.0,-264.0,-69.0,-468.0,641.0,73.0,1
-11.0,-272.0,-62.0,-486.0,618.0,86.0,1
-16.0,-283.0,-57.0,-498.0,586.0,98.0,1
-31.0,-288.0,-49.0,-501.0,549.0,105.0,1
-37.0,-289.0,-48.0,-499.0,509.0,107.0,1
-45.0,-289.0,-41.0,-486.0,467.0,99.0,1
-51.0,-289.0,-46.0,-466.0,426.0,86.0,1
-60.0,-284.0,-47.0,-445.0,386.0,65.0,1
-61.0,-282.0,-54.0,-425.0,351.0,40.0,1
-64.0,-272.0,-56.0,-411.0,321.0,9.0,1
-64.0,-264.0,-63.0,-403.0,295.0,-21.0,1
-64.0,-260.0,-63.0,-402.0,274.0,-49.0,1
-60.0,-255.0,-65.0,-405.0,257.0,-74.0,1
-56.0,-246.0,-64.0,-408.0,248.0,-99.0,1
-52.0,-244.0,-58.0,-405.0,242.0,-122.0,1
-45.0,-236.0,-60.0,-395.0,237.0,-139.0,1
-40.0,-230.0,-53.0,-382.0,234.0,-152.0,1
-36.0,-224.0,-54.0,-369.0,226.0,-164.0,1
-29.0,-218.0,-56.0,-358.0,216.0,-171.0,1
-30.0,-215.0,-51.0,-351.0,206.0,-175.0,1
-25.0,-214.0,-48.0,-350.0,197.0,-180.0,1
-20.0,-219.0,-47.0,-354.0,190.0,-180.0,1
-22.0,-217.0,-43.0,-368.0,184.0,-178.0,1
-21.0,-217.0,-41.0,-383.0,178.0,-177.0,1
-19.0,-219.0,-42.0,-397.0,172.0,-175.0,1
-15.0,-224.0,-39.0,-411.0,169.0,-176.0,1
-15.0,-222.0,-35.0,-422.0,165.0,-180.0,1
-14.0,-227.0,-40.0,-433.0,160.0,-185.0,1
-15.0,-226.0,-44.0,-449.0,155.0,-192.0,1
-14.0,-229.0,-46.0,-471.0,150.0,-203.0,1
-15.0,-232.0,-46.0,-497.0,142.0,-216.0,1
-14.0,-234.0,-50.0,-523.0,133.0,-231.0,1
-16.0,-236.0,-52.0,-552.0,122.0,-242.0,1
-19.0,-240.0,-50.0,-575.0,109.0,-257.0,1
-26.0,-241.0,-49.0,-597.0,92.0,-270.0,1
-29.0,-244.0,-52.0,-612.0,71.0,-280.0,1
-33.0,-241.0,-50.0,-627.0,45.0,-289.0,1
-40.0,-244.0,-52.0,-640.0,17.0,-293.0,1
-44.0,-244.0,-43.0,-649.0,-16.0,-288.0,1
-50.0,-243.0,-44.0,-653.0,-54.0,-280.0,1
-50.0,-244.0,-43.0,-654.0,-94.0,-267.0,1
-58.0,-243.0,-40.0,-652.0,-131.0,-250.0,1
-56.0,-242.0,-41.0,-648.0,-165.0,-229.0,1
-58.0,-239.0,-41.0,-644.0,-196.0,-208.0,1
-55.0,-233.0,-40.0,-635.0,-227.0,-186.0,1
-54.0,-230.0,-38.0,-625.0,-251.0,-165.0,1
-51.0,-220.0,-45.0,-616.0,-272.0,-149.0,1
-42.0,-217.0,-51.0,-610.0,-293.0,-137.0,1
-38.0,-211.0,-47.0,-605.0,-313.0,-132.0,1
-33.0,-209.0,-47.0,-603.0,-330.0,-132.0,1
-29.0,-206.0,-49.0,-605.0,-343.0,-137.0,1
-24.0,-210.0,-52.0,-608.0,-353.0,-143.0,1
-18.0,-215.0,-49.0,-612.0,-358.0,-152.0,1
-17.0,-221.0,-49.0,-616.0,-361.0,-157.0,1
-16.0,-225.0,-45.0,-621.0,-360.0,-163.0,1
-16.0,-233.0,-47.0,-628.0,-357.0,-165.0,1
-13.0,-238.0,-42.0,-633.0,-354.0,-164.0,1
-9.0,-244.0,-46.0,-635.0,-347.0,-160.0,1
-12.0,-248.0,-42.0,-634.0,-343.0,-157.0,1
-8.0,-253.0,-42.0,-630.0,-340.0,-150.0,1
-10.0,-256.0,-42.0,-617.0,-333.0,-144.0,1
-8.0,-257.0,-43.0,-598.0,-322.0,-134.0,1
-10.0,-260.0,-38.0,-576.0,-316.0,-123.0,1
-12.0,-257.0,-44.0,-553.0,-312.0,-112.0,1
-10.0,-254.0,-41.0,-529.0,-309.0,-103.0,1
-8.0,-250.0,-42.0,-502.0,-308.0,-97.0,1
-9.0,-242.0,-38.0,-475.0,-311.0,-91.0,1
-14.0,-240.0,-36.0,-446.0,-316.0,-87.0,1
-11.0,-224.0,-45.0,-423.0,-322.0,-84.0,1
-18.0,-223.0,-41.0,-406.0,-334.0,-81.0,1
-25.0,-215.0,-46.0,-396.0,-347.0,-78.0,1
-28.0,-215.0,-47.0,-397.0,-362.0,-78.0,1
-30.0,-211.0,-49.0,-412.0,-379.0,-79.0,1
-34.0,-211.0,-52.0,-434.0,-395.0,-75.0,1
-39.0,-211.0,-54.0,-467.0,-410.0,-73.0,1
-40.0,-212.0,-57.0,-507.0,-423.0,-71.0,1
-40.0,-216.0,-58.0,-551.0,-431.0,-67.0,1
-35.0,-217.0,-64.0,-590.0,-434.0,-67.0,1
-36.0,-218.0,-65.0,-626.0,-432.0,-68.0,1
-35.0,-221.0,-67.0,-656.0,-425.0,-71.0,1
-28.0,-223.0,-70.0,-679.0,-418.0,-73.0,1
-22.0,-221.0,-73.0,-695.0,-407.0,-75.0,1
-16.0,-221.0,-73.0,-708.0,-398.0,-81.0,1
-14.0,-221.0,-76.0,-715.0,-390.0,-83.0,1
-9.0,-213.0,-80.0,-723.0,-383.0,-86.0,1
-4.0,-214.0,-82.0,-726.0,-378.0,-87.0,1
-2.0,-210.0,-83.0,-730.0,-376.0,-88.0,1
0.0,-209.0,-86.0,-736.0,-371.0,-87.0,1
1.0,-209.0,-89.0,-744.0,-365.0,-87.0,1
1.0,-211.0,-100.0,-756.0,-355.0,-87.0,1
7.0,-220.0,-94.0,-774.0,-342.0,-88.0,1
2.0,-216.0,-101.0,-798.0,-321.0,-91.0,1
2.0,-214.0,-104.0,-826.0,-299.0,-96.0,1
0.0,-218.0,-102.0,-856.0,-275.0,-102.0,1
-2.0,-222.0,-107.0,-887.0,-252.0,-110.0,1
-8.0,-222.0,-100.0,-912.0,-230.0,-117.0,1
-11.0,-226.0,-100.0,-935.0,-211.0,-123.0,1
-16.0,-224.0,-97.0,-948.0,-197.0,-128.0,1
-18.0,-227.0,-97.0,-960.0,-188.0,-133.0,1
-20.0,-224.0,-96.0,-969.0,-179.0,-136.0,1
-25.0,-222.0,-92.0,-978.0,-171.0,-134.0,1
-29.0,-223.0,-90.0,-988.0,-166.0,-130.0,1
-32.0,-224.0,-85.0,-994.0,-160.0,-124.0,1
-36.0,-221.0,-86.0,-999.0,-153.0,-117.0,1
-33.0,-217.0,-86.0,-1002.0,-147.0,-110.0,1
-37.0,-218.0,-84.0,-1009.0,-144.0,-98.0,1
-38.0,-213.0,-85.0,-1015.0,-137.0,-83.0,1
-34.0,-210.0,-82.0,-1026.0,-134.0,-67.0,1
-31.0,-209.0,-82.0,-1036.0,-128.0,-51.0,1
-31.0,-205.0,-81.0,-1049.0,-126.0,-33.0,1
-24.0,-206.0,-84.0,-1063.0,-124.0,-17.0,1
-25.0,-200.0,-80.0,-1084.0,-125.0,1.0,1
-21.0,-198.0,-81.0,-1102.0,-121.0,20.0,1
-19.0,-199.0,-82.0,-1117.0,-119.0,37.0,1
-17.0,-201.0,-76.0,-1130.0,-113.0,53.0,1
-14.0,-197.0,-76.0,-1142.0,-102.0,67.0,1
-15.0,-202.0,-76.0,-1154.0,-93.0,83.0,1
-9.0,-203.0,-77.0,-1172.0,-88.0,96.0,1
-6.0,-207.0,-79.0,-1192.0,-82.0,111.0,1
-4.0,-213.0,-76.0,-1209.0,-74.0,125.0,1
-2.0,-216.0,-79.0,-1222.0,-67.0,140.0,1
0.0,-222.0,-76.0,-1235.0,-57.0,155.0,1
1.0,-227.0,-78.0,-1241.0,-51.0,168.0,1
-1.0,-232.0,-79.0,-1234.0,-44.0,178.0,1
1.0,-239.0,-73.0,-1213.0,-38.0,186.0,1
-7.0,-241.0,-66.0,-1176.0,-29.0,191.0,1
-5.0,-247.0,-65.0,-1132.0,-26.0,194.0,1
-9.0,-250.0,-61.0,-1085.0,-26.0,198.0,1
-10.0,-247.0,-66.0,-1047.0,-33.0,202.0,1
-13.0,-246.0,-68.0,-1019.0,-41.0,209.0,1
-18.0,-235.0,-66.0,-1013.0,-52.0,220.0,1
-15.0,-231.0,-67.0,-1027.0,-62.0,235.0,1
-24.0,-220.0,-67.0,-1052.0,-64.0,253.0,1
-27.0,-216.0,-68.0,-1078.0,-57.0,271.0,1
-29.0,-202.0,-69.0,-1110.0,-42.0,284.0,1
-31.0,-192.0,-66.0,-1148.0,-24.0,290.0,1
-39.0,-186.0,-62.0,-1187.0,-4.0,288.0,1
-42.0,-183.0,-56.0,-1222.0,10.0,278.0,1
-49.0,-179.0,-48.0,-1253.0,16.0,258.0,1
-55.0,-178.0,-51.0,-1282.0,15.0,226.0,1
-58.0,-179.0,-53.0,-1326.0,2.0,194.0,1
-61.0,-179.0,-59.0,-1392.0,-24.0,155.0,1
-62.0,-177.0,-68.0,-1483.0,-69.0,115.0,1
-64.0,-171.0,-82.0,-1604.0,-134.0,81.0,1
-68.0,-168.0,-91.0,-1747.0,-206.0,60.0,1
-74.0,-165.0,-107.0,-1895.0,-266.0,51.0,1
-77.0,-172.0,-115.0,-2028.0,-308.0,54.0,1
-85.0,-180.0,-122.0,-2122.0,-331.0,64.0,1
-92.0,-197.0,-135.0,-2166.0,-341.0,83.0,1
-97.0,-226.0,-145.0,-2142.0,-345.0,109.0,1
-104.0,-258.0,-168.0,-2042.0,-336.0,131.0,1
-99.0,-291.0,-195.0,-1900.0,-315.0,140.0,1
-94.0,-319.0,-200.0,-1737.0,-305.0,129.0,1
-91.0,-334.0,-203.0,-1540.0,-292.0,89.0,1
-88.0,-343.0,-212.0,-1267.0,-260.0,23.0,1
-85.0,-347.0,-242.0,-893.0,-194.0,-60.0,1
-65.0,-340.0,-282.0,-441.0,-76.0,-136.0,1
-40.0,-308.0,-325.0,-6.0,73.0,-174.0,1
-11.0,-256.0,-348.0,308.0,198.0,-148.0,1
12.0,-208.0,-340.0,447.0,269.0,-72.0,1
21.0,-155.0,-324.0,458.0,280.0,2.0,1
14.0,-115.0,-306.0,396.0,239.0,45.0,1
1.0,-77.0,-296.0,307.0,194.0,57.0,1
-11.0,-52.0,-286.0,205.0,166.0,39.0,1
-26.0,-26.0,-268.0,88.0,165.0,0.0,1
-45.0,-1.0,-255.0,-39.0,194.0,-53.0,1
-49.0,10.0,-240.0,-168.0,244.0,-100.0,1
-56.0,7.0,-239.0,-275.0,311.0,-146.0,1
-59.0,-14.0,-226.0,-344.0,386.0,-190.0,1
-60.0,-34.0,-220.0,-348.0,461.0,-234.0,1
-55.0,-58.0,-217.0,-274.0,540.0,-273.0,1
-44.0,-74.0,-225.0,-152.0,611.0,-300.0,1
-37.0,-85.0,-231.0,-20.0,656.0,-313.0,1
-29.0,-95.0,-233.0,107.0,670.0,-312.0,1
-26.0,-98.0,-244.0,230.0,658.0,-298.0,1
-32.0,-107.0,-254.0,339.0,622.0,-275.0,1
-42.0,-109.0,-276.0,425.0,568.0,-244.0,1
-39.0,-115.0,-274.0,476.0,509.0,-215.0,1
-47.0,-116.0,-280.0,501.0,454.0,-192.0,1
-57.0,-121.0,-289.0,509.0,405.0,-165.0,1
-67.0,-127.0,-302.0,516.0,351.0,-130.0,1
-75.0,-128.0,-312.0,529.0,294.0,-89.0,1
-85.0,-121.0,-318.0,540.0,241.0,-52.0,1
-96.0,-109.0,-321.0,538.0,199.0,-16.0,1
-93.0,-95.0,-318.0,520.0,191.0,15.0,1
-94.0,-80.0,-313.0,493.0,209.0,40.0,1
-88.0,-68.0,-306.0,469.0,227.0,56.0,1
-87.0,-60.0,-295.0,449.0,236.0,61.0,1
-85.0,-56.0,-295.0,429.0,238.0,53.0,1
-79.0,-58.0,-291.0,403.0,223.0,37.0,1
-72.0,-64.0,-289.0,374.0,189.0,12.0,1
-71.0,-76.0,-288.0,350.0,135.0,-14.0,1
-72.0,-90.0,-281.0,337.0,53.0,-38.0,1
-75.0,-105.0,-273.0,335.0,-44.0,-54.0,1
-75.0,-122.0,-274.0,342.0,-139.0,-59.0,1
-76.0,-132.0,-273.0,357.0,-222.0,-55.0,1
-80.0,-146.0,-270.0,373.0,-286.0,-45.0,1
-76.0,-157.0,-251.0,385.0,-332.0,-33.0,1
-86.0,-161.0,-270.0,388.0,-362.0,-18.0,1
-83.0,-161.0,-272.0,389.0,-384.0,-1.0,1
-89.0,-166.0,-275.0,388.0,-388.0,17.0,1
-90.0,-159.0,-274.0,388.0,-400.0,22.0,1
-84.0,-150.0,-284.0,385.0,-398.0,28.0,1
-78.0,-139.0,-290.0,360.0,-382.0,35.0,1
-72.0,-123.0,-288.0,310.0,-361.0,44.0,1
-65.0,-116.0,-281.0,245.0,-344.0,54.0,1
-60.0,-116.0,-277.0,170.0,-342.0,60.0,1
-55.0,-113.0,-276.0,96.0,-352.0,61.0,1
-53.0,-121.0,-264.0,28.0,-379.0,54.0,1
-52.0,-126.0,-255.0,-18.0,-415.0,49.0,1
-47.0,-139.0,-249.0,-39.0,-458.0,44.0,1
-49.0,-146.0,-241.0,-42.0,-503.0,44.0,1
-43.0,-158.0,-240.0,-34.0,-548.0,49.0,1
-38.0,-167.0,-242.0,-21.0,-584.0,58.0,1
-34.0,-171.0,-241.0,-7.0,-608.0,62.0,1
-30.0,-172.0,-239.0,-1.0,-616.0,66.0,1
-25.0,-169.0,-234.0,-1.0,-610.0,73.0,1
-20.0,-166.0,-236.0,-5.0,-588.0,79.0,1
-16.0,-156.0,-233.0,-8.0,-553.0,87.0,1
-12.0,-152.0,-227.0,-16.0,-512.0,94.0,1
-10.0,-146.0,-222.0,-32.0,-476.0,92.0,1
-10.0,-138.0,-213.0,-46.0,-443.0,87.0,1
-11.0,-137.0,-209.0,-56.0,-424.0,79.0,1
-14.0,-138.0,-212.0,-59.0,-421.0,68.0,1
-15.0,-147.0,-211.0,-57.0,-433.0,58.0,1
-22.0,-157.0,-216.0,-41.0,-457.0,53.0,1
-25.0,-160.0,-217.0,-21.0,-483.0,51.0,1
-32.0,-162.0,-216.0,-7.0,-502.0,55.0,1
-32.0,-173.0,-213.0,-3.0,-509.0,63.0,1
-29.0,-168.0,-213.0,-5.0,-509.0,67.0,1
-31.0,-170.0,-212.0,-13.0,-499.0,74.0,1
-35.0,-166.0,-211.0,-27.0,-479.0,81.0,1
-28.0,-169.0,-207.0,-47.0,-461.0,91.0,1
-31.0,-167.0,-199.0,-65.0,-442.0,99.0,1
-30.0,-165.0,-191.0,-74.0,-428.0,105.0,1
-29.0,-165.0,-187.0,-74.0,-420.0,109.0,1
-33.0,-158.0,-189.0,-73.0,-421.0,115.0,1
-33.0,-156.0,-186.0,-71.0,-426.0,121.0,1
-35.0,-152.0,-182.0,-71.0,-433.0,126.0,1
-37.0,-151.0,-175.0,-75.0,-439.0,135.0,1
-39.0,-148.0,-173.0,-80.0,-444.0,145.0,1
-41.0,-149.0,-175.0,-88.0,-449.0,156.0,1
-39.0,-150.0,-170.0,-99.0,-454.0,167.0,1
-42.0,-149.0,-168.0,-110.0,-458.0,174.0,1
-43.0,-154.0,-166.0,-121.0,-462.0,181.0,1
-44.0,-155.0,-163.0,-137.0,-470.0,184.0,1
-42.0,-155.0,-159.0,-159.0,-478.0,184.0,1
-42.0,-158.0,-159.0,-183.0,-488.0,180.0,1
-43.0,-161.0,-161.0,-203.0,-501.0,176.0,1
-39.0,-162.0,-164.0,-215.0,-516.0,167.0,1
-41.0,-160.0,-162.0,-221.0,-538.0,157.0,1
-36.0,-160.0,-160.0,-221.0,-564.0,144.0,1
-40.0,-164.0,-159.0,-213.0,-599.0,135.0,1
-44.0,-161.0,-152.0,-199.0,-645.0,123.0,1
-44.0,-162.0,-150.0,-178.0,-694.0,111.0,1
-54.0,-155.0,-148.0,-154.0,-743.0,100.0,1
-53.0,-152.0,-152.0,-137.0,-789.0,97.0,1
-57.0,-145.0,-148.0,-131.0,-830.0,98.0,1
-57.0,-141.0,-148.0,-137.0,-870.0,105.0,1
-54.0,-137.0,-149.0,-151.0,-902.0,112.0,1
-51.0,-132.0,-145.0,-171.0,-925.0,120.0,1
-48.0,-134.0,-144.0,-186.0,-942.0,125.0,1
-44.0,-136.0,-144.0,-188.0,-956.0,131.0,1
-36.0,-134.0,-140.0,-179.0,-966.0,133.0,1
-33.0,-136.0,-136.0,-160.0,-981.0,135.0,1
-29.0,-133.0,-142.0,-139.0,-996.0,136.0,1
-27.0,-131.0,-137.0,-120.0,-1017.0,137.0,1
-25.0,-128.0,-138.0,-104.0,-1045.0,139.0,1
-24.0,-127.0,-137.0,-88.0,-1081.0,139.0,1
-28.0,-124.0,-130.0,-75.0,-1122.0,137.0,1
-28.0,-122.0,-127.0,-65.0,-1169.0,135.0,1
-31.0,-114.0,-125.0,-63.0,-1217.0,128.0,1
-34.0,-112.0,-121.0,-67.0,-1265.0,120.0,1
-33.0,-102.0,-122.0,-80.0,-1312.0,113.0,1
-36.0,-93.0,-127.0,-102.0,-1355.0,110.0,1
-39.0,-83.0,-129.0,-130.0,-1387.0,111.0,1
-33.0,-69.0,-129.0,-167.0,-1403.0,113.0,1
-35.0,-59.0,-128.0,-206.0,-1406.0,115.0,1
-32.0,-53.0,-124.0,-240.0,-1403.0,117.0,1
-31.0,-47.0,-117.0,-265.0,-1412.0,114.0,1
-28.0,-43.0,-112.0,-282.0,-1426.0,111.0,1
-23.0,-41.0,-107.0,-282.0,-1452.0,108.0,1
-22.0,-42.0,-104.0,-274.0,-1486.0,106.0,1
-23.0,-34.0,-97.0,-265.0,-1528.0,102.0,1
-22.0,-42.0,-94.0,-266.0,-1580.0,94.0,1
-16.0,-43.0,-93.0,-273.0,-1639.0,90.0,1
-18.0,-44.0,-85.0,-286.0,-1699.0,87.0,1
-7.0,-50.0,-87.0,-302.0,-1764.0,86.0,1
-8.0,-55.0,-87.0,-320.0,-1820.0,85.0,1
-9.0,-58.0,-82.0,-339.0,-1868.0,92.0,1
-11.0,-65.0,-79.0,-371.0,-1921.0,99.0,1
-14.0,-69.0,-73.0,-393.0,-1965.0,106.0,1
-20.0,-73.0,-62.0,-410.0,-1992.0,111.0,1
-25.0,-76.0,-63.0,-413.0,-1996.0,125.0,1
-24.0,-77.0,-65.0,-393.0,-1986.0,151.0,1
-26.0,-79.0,-67.0,-361.0,-1959.0,185.0,1
-35.0,-81.0,-77.0,-325.0,-1945.0,227.0,1
-43.0,-80.0,-72.0,-311.0,-1944.0,270.0,1
-45.0,-79.0,-74.0,-304.0,-1947.0,298.0,1
-50.0,-84.0,-71.0,-284.0,-1942.0,331.0,1
-55.0,-79.0,-62.0,-262.0,-1948.0,358.0,1
-59.0,-78.0,-56.0,-225.0,-1952.0,387.0,1
-67.0,-79.0,-50.0,-168.0,-1958.0,412.0,1
-73.0,-83.0,-45.0,-94.0,-1985.0,440.0,1
-81.0,-80.0,-49.0,-17.0,-2017.0,479.0,1
-88.0,-90.0,-63.0,36.0,-2046.0,526.0,1
-87.0,-81.0,-60.0,60.0,-2067.0,571.0,1
-87.0,-72.0,-68.0,53.0,-2081.0,613.0,1
-88.0,-74.0,-70.0,21.0,-2090.0,654.0,1
-91.0,-75.0,-74.0,-18.0,-2086.0,696.0,1
-104.0,-75.0,-72.0,-66.0,-2072.0,741.0,1
-114.0,-77.0,-71.0,-131.0,-2072.0,789.0,1
-135.0,-83.0,-74.0,-197.0,-2086.0,835.0,1
-154.0,-88.0,-73.0,-267.0,-2110.0,875.0,1
-176.0,-93.0,-80.0,-352.0,-2140.0,912.0,1
-195.0,-106.0,-79.0,-448.0,-2190.0,942.0,1
-219.0,-112.0,-74.0,-533.0,-2244.0,978.0,1
-239.0,-125.0,-71.0,-602.0,-2293.0,1012.0,1
-256.0,-141.0,-69.0,-661.0,-2351.0,1043.0,1
-278.0,-162.0,-67.0,-702.0,-2420.0,1069.0,1
-309.0,-183.0,-63.0,-724.0,-2488.0,1097.0,1
-372.0,-209.0,-69.0,-745.0,-2547.0,1125.0,1
-424.0,-238.0,-75.0,-772.0,-2616.0,1161.0,1
-503.0,-257.0,-93.0,-801.0,-2691.0,1221.0,1
-615.0,-282.0,-120.0,-837.0,-2786.0,1335.0,1
-747.0,-324.0,-175.0,-879.0,-2890.0,1530.0,1
-966.0,-380.0,-251.0,-934.0,-3020.0,1834.0,1
-1222.0,-477.0,-320.0,-1011.0,-3219.0,2285.0,1
-1545.0,-646.0,-384.0,-1076.0,-3646.0,2910.0,1
-1806.0,-867.0,-403.0,-1067.0,-4134.0,3779.0,1
-1849.0,-1061.0,-432.0,-776.0,-4284.0,5164.0,1
-1485.0,-1174.0,-444.0,-179.0,-3456.0,6255.0,1
-1111.0,-1014.0,-351.0,428.0,-2210.0,5965.0,1
-699.0,-851.0,-274.0,897.0,-1314.0,4933.0,1
-407.0,-748.0,-195.0,1229.0,-986.0,3493.0,1
-155.0,-662.0,-132.0,1522.0,-1312.0,1794.0,1
-97.0,-586.0,-75.0,1886.0,-1870.0,138.0,1
41.0,-461.0,-33.0,2418.0,-2324.0,-935.0,1
135.0,-335.0,-36.0,2931.0,-2580.0,-1253.0,1
254.0,-177.0,-56.0,3067.0,-2694.0,-1052.0,1
416.0,-28.0,-39.0,2658.0,-2652.0,-543.0,1
489.0,148.0,18.0,2009.0,-2345.0,147.0,1
506.0,327.0,97.0,1414.0,-1850.0,867.0,1
440.0,383.0,122.0,896.0,-1369.0,1388.0,1
357.0,363.0,138.0,276.0,-938.0,1749.0,1
253.0,283.0,178.0,-504.0,-511.0,2004.0,1
132.0,185.0,217.0,-1221.0,-123.0,2160.0,1
20.0,96.0,236.0,-1631.0,111.0,2208.0,1
-134.0,0.0,215.0,-1617.0,98.0,2144.0,1
-226.0,-84.0,169.0,-1289.0,-129.0,2002.0,1
-297.0,-170.0,112.0,-718.0,-448.0,1800.0,1
-407.0,-240.0,97.0,-6.0,-747.0,1614.0,1
-409.0,-301.0,81.0,724.0,-1086.0,1535.0,1
-367.0,-332.0,84.0,1333.0,-1371.0,1590.0,1
-329.0,-333.0,84.0,1726.0,-1507.0,1710.0,1
-328.0,-320.0,70.0,1855.0,-1602.0,1779.0,1
-305.0,-293.0,47.0,1785.0,-1702.0,1780.0,1
-281.0,-254.0,20.0,1629.0,-1759.0,1770.0,1
-263.0,-214.0,-7.0,1446.0,-1784.0,1789.0,1
-231.0,-183.0,-15.0,1278.0,-1787.0,1803.0,1
-197.0,-148.0,-19.0,1142.0,-1764.0,1775.0,1
-156.0,-113.0,-20.0,1051.0,-1729.0,1727.0,1
-125.0,-69.0,-17.0,1005.0,-1692.0,1693.0,1
-98.0,-33.0,0.0,1018.0,-1659.0,1707.0,1
-63.0,-5.0,19.0,1128.0,-1643.0,1765.0,1
-54.0,17.0,42.0,1320.0,-1642.0,1835.0,1
-80.0,58.0,69.0,1557.0,-1668.0,1943.0,1
-126.0,76.0,91.0,1758.0,-1728.0,2113.0,1
-136.0,69.0,103.0,1876.0,-1815.0,2266.0,1
-181.0,63.0,113.0,1951.0,-1885.0,2344.0,1
-257.0,85.0,132.0,2002.0,-1956.0,2387.0,1
-260.0,95.0,148.0,2012.0,-2016.0,2437.0,1
-259.0,76.0,145.0,2005.0,-2004.0,2471.0,1
-288.0,65.0,142.0,1970.0,-1935.0,2454.0,1
-319.0,67.0,122.0,1900.0,-1861.0,2438.0,1
-354.0,89.0,90.0,1802.0,-1783.0,2449.0,1
-370.0,106.0,97.0,1656.0,-1728.0,2485.0,1
-416.0,169.0,105.0,1511.0,-1672.0,2541.0,1
-379.0,139.0,139.0,1331.0,-1691.0,2621.0,1
-383.0,150.0,138.0,1231.0,-1650.0,2600.0,1
-423.0,216.0,128.0,1156.0,-1499.0,2609.0,1
-437.0,298.0,139.0,911.0,-1375.0,2717.0,1
-475.0,337.0,158.0,521.0,-1257.0,2837.0,1
-484.0,345.0,161.0,151.0,-1085.0,2893.0,1
-481.0,347.0,155.0,-146.0,-862.0,2756.0,1
-468.0,337.0,154.0,-280.0,-529.0,2478.0,1
-441.0,315.0,142.0,-228.0,-152.0,2101.0,1
-380.0,296.0,125.0,-79.0,239.0,1626.0,1
-328.0,271.0,108.0,78.0,698.0,1083.0,1
-277.0,229.0,103.0,257.0,1153.0,557.0,1
-196.0,183.0,95.0,451.0,1500.0,104.0,1
-175.0,166.0,81.0,704.0,1740.0,-253.0,1
-153.0,128.0,65.0,933.0,1847.0,-427.0,1
-157.0,82.0,62.0,1128.0,1858.0,-516.0,1
-183.0,53.0,60.0,1253.0,1763.0,-535.0,1
-212.0,16.0,84.0,1248.0,1573.0,-480.0,1
-249.0,-7.0,87.0,1144.0,1282.0,-412.0,1
-234.0,-28.0,94.0,975.0,957.0,-320.0,1
-211.0,-35.0,93.0,797.0,670.0,-208.0,1
-180.0,-34.0,91.0,646.0,408.0,-89.0,1
-121.0,-29.0,88.0,503.0,196.0,22.0,1
-83.0,-10.0,74.0,369.0,98.0,121.0,1
-60.0,11.0,65.0,224.0,86.0,205.0,1
-40.0,32.0,54.0,76.0,117.0,276.0,1
-27.0,59.0,53.0,-70.0,156.0,316.0,1
-24.0,84.0,52.0,-194.0,196.0,330.0,1
-19.0,105.0,58.0,-260.0,237.0,326.0,1
-25.0,119.0,65.0,-248.0,276.0,309.0,1
-42.0,130.0,70.0,-157.0,321.0,280.0,1
-64.0,135.0,83.0,-11.0,359.0,235.0,1
-87.0,151.0,87.0,175.0,388.0,167.0,1
-100.0,151.0,85.0,367.0,419.0,85.0,1
-124.0,166.0,80.0,544.0,460.0,17.0,1
-144.0,177.0,77.0,684.0,500.0,-31.0,1
-161.0,188.0,71.0,783.0,532.0,-58.0,1
-173.0,202.0,66.0,833.0,564.0,-60.0,1
-198.0,217.0,63.0,834.0,591.0,-45.0,1
-219.0,237.0,63.0,792.0,580.0,2.0,1
-227.0,247.0,64.0,692.0,526.0,42.0,1
-248.0,253.0,66.0,544.0,455.0,88.0,1
-250.0,254.0,60.0,352.0,368.0,107.0,1
-240.0,239.0,66.0,133.0,279.0,86.0,1
-229.0,219.0,66.0,-85.0,229.0,49.0,1
-223.0,197.0,71.0,-286.0,219.0,-13.0,1
-216.0,168.0,72.0,-433.0,233.0,-61.0,1
-220.0,139.0,69.0,-524.0,248.0,-97.0,1
-230.0,122.0,77.0,-568.0,247.0,-134.0,1
-240.0,102.0,80.0,-563.0,234.0,-167.0,1
-239.0,91.0,92.0,-515.0,219.0,-201.0,1
-247.0,83.0,92.0,-416.0,195.0,-242.0,1
-262.0,74.0,91.0,-287.0,158.0,-286.0,1
-268.0,73.0,88.0,-171.0,132.0,-327.0,1
-273.0,75.0,77.0,-80.0,122.0,-357.0,1
-277.0,77.0,79.0,36.0,135.0,-374.0,1
-281.0,80.0,80.0,141.0,172.0,-386.0,1
-279.0,89.0,82.0,249.0,225.0,-398.0,1
-277.0,96.0,88.0,374.0,290.0,-411.0,1
-280.0,113.0,88.0,507.0,362.0,-421.0,1
-269.0,117.0,85.0,630.0,434.0,-430.0,1
-260.0,123.0,86.0,731.0,507.0,-444.0,1
-258.0,121.0,81.0,801.0,573.0,-465.0,1
-258.0,124.0,82.0,835.0,630.0,-493.0,1
-252.0,116.0,84.0,843.0,679.0,-520.0,1
-253.0,111.0,78.0,847.0,713.0,-546.0,1
-252.0,106.0,79.0,851.0,734.0,-572.0,1
-244.0,105.0,84.0,856.0,749.0,-589.0,1
-238.0,97.0,76.0,870.0,776.0,-603.0,1
-245.0,91.0,76.0,901.0,813.0,-610.0,1
-237.0,81.0,65.0,947.0,855.0,-614.0,1
-244.0,71.0,63.0,988.0,917.0,-629.0,1
-259.0,66.0,55.0,1025.0,986.0,-642.0,1
-257.0,61.0,56.0,1042.0,1045.0,-647.0,1
-253.0,51.0,46.0,1044.0,1088.0,-661.0,1
-248.0,44.0,51.0,1040.0,1125.0,-672.0,1
-251.0,43.0,41.0,1039.0,1169.0,-667.0,1
-231.0,39.0,43.0,1046.0,1218.0,-641.0,1
-217.0,38.0,32.0,1057.0,1255.0,-626.0,1
-211.0,46.0,24.0,1064.0,1291.0,-606.0,1
-213.0,56.0,18.0,1058.0,1311.0,-564.0,1
-206.0,64.0,13.0,1029.0,1299.0,-507.0,1
-196.0,63.0,13.0,976.0,1264.0,-438.0,1
-191.0,69.0,0.0,901.0,1221.0,-365.0,1
-192.0,74.0,-1.0,795.0,1179.0,-296.0,1
-196.0,77.0,-10.0,671.0,1132.0,-222.0,1
-202.0,80.0,-19.0,529.0,1084.0,-147.0,1
-207.0,84.0,-28.0,375.0,1035.0,-69.0,1
-212.0,86.0,-37.0,227.0,985.0,23.0,1
-219.0,93.0,-45.0,94.0,926.0,120.0,1
-224.0,92.0,-52.0,-20.0,861.0,187.0,1
-238.0,90.0,-61.0,-103.0,787.0,253.0,1
-247.0,89.0,-71.0,-163.0,714.0,308.0,1
-255.0,71.0,-74.0,-212.0,639.0,351.0,1
-265.0,51.0,-84.0,-239.0,579.0,357.0,1
-286.0,28.0,-86.0,-261.0,547.0,318.0,1
-301.0,17.0,-88.0,-274.0,539.0,252.0,1
-313.0,13.0,-93.0,-276.0,547.0,178.0,1
-321.0,4.0,-95.0,-266.0,561.0,96.0,1
-333.0,6.0,-99.0,-246.0,573.0,20.0,1
-334.0,2.0,-97.0,-241.0,564.0,-43.0,1
-337.0,-7.0,-98.0,-240.0,549.0,-111.0,1
-345.0,-15.0,-84.0,-241.0,530.0,-181.0,1
-350.0,-5.0,-85.0,-203.0,509.0,-211.0,1
-350.0,0.0,-82.0,-162.0,471.0,-218.0,1
-349.0,4.0,-81.0,-131.0,417.0,-217.0,1
-339.0,12.0,-76.0,-109.0,353.0,-206.0,1
-332.0,20.0,-72.0,-94.0,270.0,-174.0,1
-315.0,24.0,-74.0,-78.0,188.0,-113.0,1
-306.0,42.0,-74.0,-70.0,114.0,-65.0,1
-287.0,50.0,-71.0,-96.0,55.0,-20.0,1
-275.0,54.0,-61.0,-150.0,14.0,21.0,1
-271.0,56.0,-52.0,-203.0,-18.0,49.0,1
-262.0,59.0,-42.0,-243.0,-54.0,62.0,1
-254.0,56.0,-34.0,-265.0,-94.0,76.0,1
-256.0,63.0,-24.0,-266.0,-126.0,84.0,1
-247.0,58.0,-20.0,-257.0,-154.0,84.0,1
-251.0,64.0,-16.0,-238.0,-181.0,77.0,1
-240.0,62.0,-9.0,-227.0,-214.0,70.0,1
-235.0,61.0,-5.0,-206.0,-230.0,65.0,1
-231.0,66.0,3.0,-181.0,-221.0,56.0,1
-228.0,73.0,0.0,-162.0,-196.0,54.0,1
-225.0,69.0,2.0,-162.0,-163.0,59.0,1
-227.0,72.0,8.0,-174.0,-127.0,68.0,1
-227.0,71.0,9.0,-203.0,-94.0,79.0,1
-227.0,68.0,14.0,-249.0,-70.0,87.0,1
-227.0,71.0,12.0,-289.0,-48.0,97.0,1
-230.0,67.0,11.0,-310.0,-21.0,108.0,1
-236.0,66.0,5.0,-326.0,-1.0,123.0,1
-237.0,60.0,9.0,-345.0,10.0,143.0,1
-243.0,63.0,5.0,-354.0,17.0,163.0,1
-244.0,58.0,2.0,-355.0,19.0,184.0,1
-243.0,61.0,-1.0,-350.0,13.0,206.0,1
-250.0,66.0,-2.0,-334.0,9.0,224.0,1
-252.0,65.0,-8.0,-314.0,4.0,237.0,1
-253.0,65.0,-5.0,-300.0,-8.0,241.0,1
-256.0,68.0,-7.0,-282.0,-24.0,238.0,1
-258.0,68.0,-6.0,-264.0,-42.0,226.0,1
-259.0,70.0,-7.0,-248.0,-67.0,211.0,1
-264.0,69.0,-9.0,-237.0,-89.0,198.0,1
-259.0,68.0,-4.0,-226.0,-109.0,186.0,1
-263.0,69.0,-10.0,-216.0,-123.0,175.0,1
-268.0,71.0,-13.0,-206.0,-131.0,161.0,1
-266.0,72.0,-7.0,-203.0,-133.0,145.0,1
-267.0,70.0,-9.0,-199.0,-128.0,130.0,1
-265.0,73.0,-6.0,-196.0,-120.0,116.0,1
-262.0,73.0,-12.0,-192.0,-108.0,101.0,1
-263.0,74.0,-3.0,-185.0,-96.0,86.0,1
-261.0,73.0,-10.0,-181.0,-88.0,70.0,1
-258.0,73.0,-8.0,-178.0,-85.0,56.0,1
-258.0,72.0,-7.0,-171.0,-85.0,46.0,1
-254.0,69.0,-3.0,-161.0,-86.0,38.0,1
-250.0,68.0,-5.0,-149.0,-88.0,30.0,1
-252.0,70.0,-1.0,-134.0,-93.0,24.0,1
-251.0,67.0,2.0,-113.0,-98.0,19.0,1
-249.0,67.0,1.0,-86.0,-101.0,14.0,1
-247.0,69.0,8.0,-58.0,-105.0,9.0,1
-245.0,71.0,10.0,-33.0,-109.0,2.0,1
-244.0,69.0,8.0,-7.0,-110.0,-6.0,1
-244.0,71.0,10.0,15.0,-105.0,-15.0,1
-243.0,73.0,10.0,33.0,-101.0,-24.0,1
-240.0,76.0,16.0,42.0,-99.0,-31.0,1
-234.0,76.0,17.0,48.0,-94.0,-36.0,1
-239.0,76.0,16.0,47.0,-89.0,-40.0,1
-239.0,77.0,15.0,49.0,-77.0,-43.0,1
-241.0,78.0,14.0,43.0,-67.0,-44.0,1
-237.0,76.0,20.0,32.0,-64.0,-44.0,1
-239.0,74.0,21.0,17.0,-55.0,-46.0,1
-240.0,74.0,21.0,8.0,-42.0,-47.0,1
-237.0,71.0,17.0,-1.0,-29.0,-48.0,1
-243.0,73.0,18.0,-10.0,-16.0,-51.0,1
-241.0,69.0,13.0,-18.0,-11.0,-51.0,1
-246.0,68.0,13.0,-17.0,-5.0,-52.0,1
-246.0,67.0,11.0,-11.0,1.0,-56.0,1
-246.0,68.0,9.0,0.0,9.0,-56.0,1
-251.0,66.0,9.0,16.0,19.0,-55.0,1
-251.0,71.0,7.0,35.0,30.0,-55.0,1
-255.0,69.0,9.0,55.0,37.0,-55.0,1
-254.0,66.0,8.0,77.0,47.0,-56.0,1
-252.0,68.0,6.0,98.0,62.0,-54.0,1
-252.0,66.0,4.0,118.0,85.0,-53.0,1
-257.0,69.0,5.0,131.0,108.0,-52.0,1
-255.0,68.0,3.0,136.0,125.0,-48.0,1
-249.0,77.0,-5.0,132.0,137.0,-43.0,1
-254.0,68.0,-2.0,124.0,144.0,-38.0,1
-250.0,70.0,1.0,113.0,145.0,-33.0,1
-252.0,70.0,-1.0,91.0,139.0,-26.0,1
-250.0,72.0,-2.0,84.0,138.0,-25.0,1
-251.0,72.0,-5.0,81.0,135.0,-28.0,1
-249.0,70.0,-4.0,79.0,129.0,-35.0,1
-250.0,71.0,-6.0,73.0,118.0,-37.0,1
-253.0,70.0,-6.0,67.0,110.0,-42.0,1
-254.0,72.0,-2.0,60.0,101.0,-45.0,1
-250.0,68.0,-2.0,54.0,91.0,-49.0,1
-254.0,70.0,-3.0,51.0,87.0,-49.0,1
-255.0,70.0,-1.0,45.0,83.0,-46.0,1
-255.0,65.0,-5.0,42.0,84.0,-47.0,1
-255.0,66.0,-1.0,37.0,87.0,-45.0,1
-256.0,68.0,-1.0,29.0,91.0,-41.0,1
-256.0,67.0,-4.0,23.0,95.0,-39.0,1
-257.0,69.0,-4.0,9.0,94.0,-34.0,1
-257.0,67.0,-5.0,-9.0,93.0,-29.0,1
-258.0,67.0,-4.0,-25.0,90.0,-26.0,1
-257.0,66.0,-10.0,-37.0,86.0,-21.0,1
-259.0,66.0,-6.0,-43.0,84.0,-18.0,1
-257.0,70.0,-9.0,-41.0,84.0,-15.0,1
-256.0,64.0,-4.0,-33.0,84.0,-12.0,1
-257.0,60.0,-7.0,-23.0,85.0,-8.0,1
-257.0,66.0,-7.0,-11.0,86.0,-6.0,1
-254.0,64.0,-7.0,-1.0,86.0,-3.0,1
-252.0,62.0,-8.0,7.0,86.0,0.0,1
-252.0,66.0,-2.0,10.0,85.0,2.0,1
-255.0,66.0,-1.0,9.0,82.0,4.0,1
-251.0,69.0,-3.0,1.0,78.0,7.0,1
-252.0,71.0,-6.0,-11.0,71.0,10.0,1
-252.0,70.0,0.0,-23.0,64.0,8.0,1
-252.0,71.0,1.0,-36.0,56.0,9.0,1
-254.0,70.0,-4.0,-47.0,48.0,8.0,1
-252.0,71.0,0.0,-54.0,41.0,6.0,1
-253.0,67.0,0.0,-57.0,35.0,3.0,1
-252.0,68.0,1.0,-55.0,33.0,4.0,1
-251.0,66.0,-1.0,-49.0,30.0,3.0,1
-252.0,68.0,2.0,-44.0,30.0,0.0,1
-252.0,66.0,0.0,-37.0,31.0,0.0,1
-250.0,65.0,4.0,-29.0,32.0,-3.0,1
-251.0,69.0,1.0,-23.0,35.0,-6.0,1
-250.0,69.0,0.0,-20.0,37.0,-6.0,1
-252.0,67.0,1.0,-28.0,35.0,-6.0,1
-248.0,68.0,4.0,-38.0,31.0,-4.0,1
-251.0,66.0,7.0,-44.0,33.0,-4.0,1
-252.0,69.0,6.0,-49.0,38.0,-2.0,1
-250.0,66.0,4.0,-52.0,42.0,0.0,1
-250.0,68.0,3.0,-56.0,48.0,4.0,1
-250.0,69.0,5.0,-61.0,54.0,8.0,1
-249.0,67.0,3.0,-64.0,62.0,12.0,1
-253.0,67.0,5.0,-67.0,67.0,14.0,1
-252.0,65.0,2.0,-65.0,69.0,14.0,1
-252.0,68.0,2.0,-63.0,75.0,15.0,1
-251.0,66.0,3.0,-59.0,78.0,15.0,1
-253.0,66.0,0.0,-53.0,81.0,15.0,1
-255.0,68.0,1.0,-48.0,84.0,14.0,1
-250.0,70.0,-1.0,-44.0,85.0,13.0,1
-252.0,68.0,-2.0,-42.0,84.0,13.0,1
-255.0,69.0,4.0,-41.0,81.0,13.0,1
-253.0,69.0,4.0,-41.0,77.0,13.0,1
-253.0,66.0,-3.0,-39.0,71.0,13.0,1
-253.0,69.0,-4.0,-37.0,66.0,14.0,1
-254.0,67.0,0.0,-35.0,59.0,13.0,1
-254.0,71.0,2.0,-31.0,54.0,13.0,1
-253.0,67.0,0.0,-28.0,49.0,12.0,1
-253.0,70.0,-2.0,-22.0,48.0,11.0,1
-251.0,70.0,-1.0,-15.0,47.0,9.0,1
-252.0,70.0,5.0,-8.0,47.0,6.0,1
-255.0,70.0,0.0,-1.0,48.0,2.0,1
-254.0,67.0,0.0,4.0,48.0,-2.0,1
-252.0,68.0,-3.0,10.0,50.0,-3.0,1
-253.0,69.0,-6.0,16.0,51.0,-5.0,1
-255.0,68.0,-2.0,21.0,52.0,-5.0,1
-254.0,66.0,-3.0,25.0,51.0,-7.0,1
-257.0,70.0,-2.0,27.0,47.0,-9.0,1
-255.0,71.0,-3.0,31.0,41.0,-11.0,1
-254.0,70.0,-3.0,22.0,27.0,-9.0,1
-253.0,67.0,-5.0,18.0,18.0,-6.0,1
-249.0,67.0,-1.0,16.0,13.0,-6.0,1
-250.0,69.0,1.0,17.0,11.0,-6.0,1
-255.0,70.0,1.0,18.0,10.0,-6.0,1
-254.0,71.0,1.0,11.0,7.0,-7.0,1
-252.0,67.0,3.0,2.0,2.0,-9.0,1
-255.0,67.0,1.0,-3.0,3.0,-12.0,1
-251.0,67.0,1.0,-8.0,2.0,-16.0,1
-244.0,76.0,5.0,-9.0,4.0,-20.0,1
-253.0,67.0,5.0,-5.0,11.0,-24.0,1
-251.0,65.0,7.0,8.0,22.0,-30.0,1
-250.0,64.0,2.0,13.0,31.0,-29.0,1
-254.0,66.0,5.0,13.0,34.0,-29.0,1
-254.0,66.0,5.0,9.0,35.0,-25.0,1
-251.0,65.0,8.0,-1.0,34.0,-21.0,1
-252.0,67.0,8.0,-7.0,36.0,-15.0,1
-250.0,67.0,3.0,-11.0,42.0,-12.0,1
-250.0,67.0,4.0,-14.0,48.0,-7.0,1
-252.0,71.0,5.0,-13.0,54.0,-3.0,1
-251.0,62.0,5.0,-12.0,60.0,-2.0,1
-251.0,65.0,1.0,-11.0,65.0,1.0,1
-253.0,64.0,3.0,-9.0,70.0,3.0,1
-251.0,65.0,6.0,-8.0,71.0,3.0,1
-253.0,65.0,-1.0,-4.0,74.0,3.0,1
-253.0,69.0,0.0,0.0,77.0,4.0,1
-252.0,67.0,5.0,2.0,79.0,5.0,1
-252.0,69.0,6.0,3.0,82.0,7.0,1
-251.0,67.0,5.0,4.0,87.0,8.0,1
-253.0,68.0,1.0,4.0,92.0,9.0,1
-256.0,71.0,2.0,0.0,94.0,15.0,1
-249.0,70.0,-7.0,-8.0,89.0,20.0,1
-247.0,66.0,6.0,-8.0,81.0,15.0,1
-248.0,65.0,4.0,2.0,81.0,13.0,1
-253.0,69.0,1.0,9.0,79.0,14.0,1
-252.0,68.0,3.0,11.0,76.0,11.0,1
-253.0,70.0,-2.0,6.0,69.0,9.0,1
-251.0,69.0,2.0,3.0,59.0,8.0,1
-253.0,68.0,0.0,-1.0,48.0,8.0,1
-250.0,69.0,1.0,-5.0,37.0,6.0,1
-251.0,65.0,0.0,-4.0,33.0,3.0,1
-254.0,70.0,2.0,-3.0,31.0,2.0,1
-253.0,68.0,1.0,-2.0,34.0,2.0,1
-253.0,68.0,5.0,0.0,34.0,-1.0,1
-252.0,69.0,3.0,-2.0,36.0,-2.0,1
-256.0,69.0,4.0,-8.0,36.0,-1.0,1
-252.0,70.0,3.0,-10.0,40.0,-3.0,1
-254.0,68.0,3.0,-7.0,49.0,-6.0,1
-257.0,71.0,1.0,-4.0,59.0,-8.0,1
-252.0,67.0,2.0,-7.0,66.0,-7.0,1
-253.0,71.0,6.0,-11.0,67.0,-8.0,1
-255.0,68.0,4.0,-16.0,70.0,-8.0,1
-251.0,69.0,3.0,-18.0,72.0,-7.0,1
-254.0,68.0,6.0,-20.0,74.0,-6.0,1
-252.0,71.0,2.0,-24.0,76.0,-7.0,1
-251.0,69.0,3.0,-25.0,77.0,-8.0,1
-253.0,71.0,2.0,-28.0,75.0,-7.0,1
-253.0,69.0,3.0,-29.0,73.0,-7.0,1
-255.0,67.0,2.0,-31.0,72.0,-8.0,1
-252.0,66.0,2.0,-29.0,72.0,-9.0,1
-252.0,65.0,2.0,-28.0,73.0,-9.0,1
-253.0,68.0,3.0,-28.0,73.0,-8.0,1
-251.0,66.0,-1.0,-27.0,73.0,-8.0,1
-253.0,67.0,3.0,-25.0,75.0,-7.0,1
-254.0,68.0,4.0,-25.0,77.0,-7.0,1
-252.0,67.0,7.0,-24.0,78.0,-4.0,1
-256.0,70.0,2.0,-23.0,79.0,-3.0,1
-255.0,69.0,5.0,-22.0,80.0,-4.0,1
-251.0,66.0,5.0,-21.0,82.0,-4.0,1
-255.0,70.0,0.0,-20.0,83.0,-3.0,1
-249.0,66.0,4.0,-19.0,84.0,-2.0,1
-253.0,64.0,1.0,-18.0,84.0,-4.0,1
-253.0,68.0,-1.0,-18.0,84.0,-4.0,1
-250.0,67.0,1.0,-20.0,80.0,-5.0,1
-247.0,69.0,0.0,-20.0,77.0,-7.0,1
-251.0,67.0,-1.0,-22.0,73.0,-9.0,1
-254.0,70.0,3.0,-23.0,71.0,-10.0,1
-252.0,69.0,4.0,-23.0,69.0,-10.0,1
-254.0,69.0,0.0,-26.0,67.0,-10.0,1
-253.0,69.0,4.0,-29.0,65.0,-10.0,1
-253.0,69.0,1.0,-31.0,66.0,-10.0,1
-252.0,69.0,4.0,-32.0,65.0,-10.0,1
-252.0,68.0,-2.0,-31.0,64.0,-10.0,1
-252.0,68.0,4.0,-32.0,62.0,-8.0,1
-251.0,70.0,-1.0,-32.0,61.0,-7.0,1
-249.0,67.0,1.0,-30.0,60.0,-5.0,1
-253.0,67.0,4.0,-29.0,61.0,-4.0,1
-251.0,68.0,3.0,-29.0,60.0,-3.0,1
-252.0,68.0,3.0,-28.0,61.0,-1.0,1
-252.0,70.0,2.0,-27.0,63.0,0.0,1
-252.0,68.0,1.0,-26.0,66.0,1.0,1
-250.0,69.0,5.0,-28.0,68.0,2.0,1
-252.0,71.0,3.0,-29.0,68.0,1.0,1
-250.0,71.0,4.0,-30.0,69.0,-1.0,1
-249.0,66.0,5.0,-32.0,69.0,-1.0,1
-252.0,69.0,3.0,-32.0,69.0,-3.0,1
-252.0,65.0,5.0,-33.0,67.0,-4.0,1
-253.0,70.0,3.0,-32.0,65.0,-4.0,1
-254.0,71.0,1.0,-31.0,64.0,-5.0,1
-254.0,68.0,6.0,-30.0,63.0,-3.0,1
-251.0,69.0,7.0,-31.0,65.0,-4.0,1
-254.0,68.0,3.0,-31.0,67.0,-4.0,1
-250.0,68.0,8.0,-32.0,69.0,-4.0,1
-251.0,70.0,7.0,-33.0,69.0,-5.0,1
-255.0,69.0,-1.0,-34.0,72.0,-5.0,1
-254.0,68.0,2.0,-33.0,76.0,-5.0,1
-253.0,70.0,1.0,-32.0,79.0,-5.0,1
-251.0,68.0,6.0,-31.0,80.0,-3.0,1
-251.0,64.0,5.0,-32.0,82.0,-2.0,1
-253.0,67.0,5.0,-31.0,82.0,0.0,1
-253.0,69.0,5.0,-29.0,82.0,-1.0,1
-251.0,68.0,5.0,-29.0,83.0,2.0,1
-250.0,67.0,-1.0,-29.0,85.0,2.0,1
-255.0,70.0,3.0,-27.0,88.0,0.0,1
-252.0,69.0,2.0,-28.0,92.0,2.0,1
-255.0,68.0,3.0,-28.0,93.0,0.0,1
-254.0,70.0,-3.0,-28.0,93.0,1.0,1
-253.0,67.0,4.0,-26.0,94.0,-1.0,1
-252.0,68.0,4.0,-23.0,95.0,-3.0,1
-250.0,67.0,0.0,-20.0,96.0,-3.0,1
-248.0,66.0,0.0,-18.0,97.0,-4.0,1
-253.0,67.0,6.0,-16.0,97.0,-4.0,1
-252.0,69.0,2.0,-14.0,96.0,-5.0,1
-254.0,70.0,1.0,-15.0,92.0,-6.0,1
-251.0,66.0,-1.0,-17.0,89.0,-6.0,1
-253.0,68.0,4.0,-19.0,88.0,-6.0,1
-253.0,67.0,1.0,-22.0,87.0,-6.0,1
-253.0,69.0,2.0,-24.0,88.0,-7.0,1
-255.0,66.0,-1.0,-26.0,88.0,-7.0,1
-254.0,68.0,3.0,-27.0,86.0,-6.0,1
-250.0,69.0,2.0,-27.0,89.0,-7.0,1
-253.0,69.0,2.0,-26.0,92.0,-7.0,1
-254.0,69.0,2.0,-22.0,94.0,-7.0,1
-255.0,71.0,1.0,-17.0,97.0,-7.0,1
-252.0,70.0,1.0,-14.0,97.0,-6.0,1
-254.0,70.0,-3.0,-10.0,97.0,-6.0,1
-255.0,68.0,0.0,-9.0,95.0,-3.0,1
-251.0,65.0,4.0,-8.0,95.0,-3.0,1
-252.0,63.0,0.0,-7.0,96.0,0.0,1
-253.0,65.0,4.0,-4.0,96.0,2.0,1
-259.0,61.0,2.0,-5.0,96.0,5.0,1
-254.0,65.0,-1.0,-4.0,93.0,7.0,1
-254.0,67.0,-1.0,-2.0,89.0,11.0,1
-252.0,67.0,-2.0,0.0,88.0,10.0,1
-251.0,71.0,2.0,2.0,84.0,11.0,1
-252.0,70.0,2.0,2.0,79.0,8.0,1
-253.0,67.0,0.0,-2.0,79.0,7.0,1
-251.0,70.0,1.0,-4.0,76.0,5.0,1
-251.0,68.0,0.0,-8.0,73.0,4.0,1
-252.0,69.0,3.0,-12.0,72.0,2.0,1
-254.0,69.0,2.0,-16.0,72.0,1.0,1
-255.0,70.0,-2.0,-19.0,70.0,-1.0,1
-254.0,69.0,4.0,-21.0,70.0,-1.0,1
-254.0,69.0,2.0,-22.0,72.0,-2.0,1
-253.0,70.0,4.0,-21.0,74.0,-2.0,1
-254.0,67.0,2.0,-21.0,76.0,-3.0,1
-252.0,66.0,2.0,-19.0,78.0,-3.0,1
-251.0,70.0,2.0,-19.0,80.0,-4.0,1
-253.0,69.0,3.0,-20.0,83.0,-2.0,1
-253.0,68.0,2.0,-18.0,82.0,-1.0,1
-253.0,67.0,-1.0,-18.0,83.0,-2.0,1
-256.0,68.0,0.0,-19.0,81.0,0.0,1
-250.0,64.0,4.0,-21.0,77.0,0.0,1
-253.0,69.0,-2.0,-21.0,72.0,-2.0,1
-255.0,69.0,2.0,-22.0,68.0,-1.0,1
-253.0,68.0,4.0,-21.0,65.0,-2.0,1
-254.0,70.0,2.0,-20.0,65.0,-3.0,1
-254.0,68.0,0.0,-18.0,64.0,-4.0,1
-254.0,66.0,3.0,-15.0,63.0,-4.0,1
-254.0,68.0,0.0,-13.0,67.0,-4.0,1
-251.0,69.0,-3.0,-13.0,68.0,-6.0,1
-251.0,68.0,4.0,-13.0,70.0,-5.0,1
-252.0,67.0,-3.0,-12.0,74.0,-5.0,1
-252.0,70.0,0.0,-11.0,75.0,-7.0,1
-251.0,66.0,0.0,-12.0,76.0,-7.0,1
-254.0,69.0,-2.0,-11.0,74.0,-9.0,1
-253.0,69.0,1.0,-11.0,70.0,-8.0,1
-252.0,67.0,-2.0,-12.0,66.0,-7.0,1
-254.0,69.0,1.0,-11.0,61.0,-7.0,1
-250.0,67.0,4.0,-12.0,56.0,-4.0,1
-254.0,70.0,1.0,-12.0,51.0,-3.0,1
-255.0,70.0,0.0,-12.0,48.0,-4.0,1
-253.0,70.0,-1.0,-13.0,47.0,-6.0,1
-250.0,68.0,-3.0,-15.0,44.0,-7.0,1
-254.0,70.0,0.0,-17.0,43.0,-9.0,1
-254.0,71.0,5.0,-19.0,43.0,-9.0,1
-254.0,68.0,3.0,-21.0,43.0,-10.0,1
-254.0,66.0,1.0,-22.0,45.0,-11.0,1
-254.0,65.0,1.0,-20.0,46.0,-10.0,1
-251.0,69.0,1.0,-18.0,48.0,-10.0,1
-253.0,68.0,1.0,-15.0,51.0,-9.0,1
-249.0,66.0,-1.0,-11.0,52.0,-7.0,1
-254.0,68.0,0.0,-7.0,52.0,-7.0,1
-255.0,67.0,2.0,-4.0,54.0,-5.0,1
-248.0,64.0,2.0,-1.0,54.0,-4.0,1
-254.0,70.0,0.0,0.0,54.0,-1.0,1
-249.0,66.0,1.0,2.0,53.0,0.0,1
-253.0,67.0,4.0,3.0,52.0,1.0,1
-252.0,66.0,1.0,2.0,51.0,1.0,1
-254.0,69.0,4.0,-3.0,51.0,0.0,1
-252.0,68.0,3.0,-7.0,47.0,2.0,1
-251.0,71.0,4.0,-11.0,46.0,-1.0,1
-253.0,70.0,3.0,-13.0,46.0,-2.0,1
-254.0,69.0,4.0,-16.0,46.0,-5.0,1
-252.0,66.0,3.0,-16.0,48.0,-6.0,1
-251.0,67.0,4.0,-15.0,49.0,-8.0,1
-253.0,67.0,1.0,-12.0,50.0,-9.0,1
-251.0,67.0,4.0,-8.0,53.0,-8.0,1
-253.0,66.0,2.0,-5.0,53.0,-8.0,1
-251.0,67.0,3.0,-2.0,55.0,-7.0,1
-250.0,66.0,1.0,-1.0,55.0,-7.0,1
-254.0,66.0,3.0,0.0,54.0,-7.0,1
-252.0,69.0,1.0,0.0,50.0,-5.0,1
-251.0,70.0,-1.0,-3.0,48.0,-4.0,1
-252.0,70.0,3.0,-6.0,48.0,-4.0,1
-251.0,69.0,2.0,-6.0,46.0,-3.0,1
-252.0,69.0,2.0,-8.0,46.0,-2.0,1
-253.0,70.0,2.0,-10.0,47.0,-2.0,1
-252.0,70.0,5.0,-10.0,49.0,-3.0,1
-251.0,67.0,3.0,-9.0,52.0,-4.0,1
-253.0,69.0,4.0,-8.0,56.0,-6.0,1
-253.0,70.0,5.0,-7.0,60.0,-7.0,1
-253.0,69.0,1.0,-7.0,64.0,-6.0,1
-249.0,71.0,2.0,-9.0,67.0,-7.0,1
-252.0,68.0,3.0,-10.0,71.0,-6.0,1
-250.0,68.0,3.0,-11.0,71.0,-6.0,1
-249.0,67.0,5.0,-13.0,72.0,-7.0,1
-251.0,61.0,9.0,-13.0,74.0,-6.0,1
-250.0,67.0,5.0,-14.0,76.0,-5.0,1
-254.0,66.0,3.0,-13.0,77.0,-4.0,1
-251.0,67.0,4.0,-13.0,78.0,-4.0,1
-253.0,67.0,4.0,-11.0,77.0,-3.0,1
-252.0,65.0,5.0,-10.0,76.0,-3.0,1
-254.0,69.0,3.0,-8.0,78.0,-1.0,1
-254.0,69.0,2.0,-9.0,79.0,-1.0,1
-252.0,66.0,2.0,-12.0,80.0,1.0,1
-253.0,69.0,0.0,-13.0,82.0,1.0,1
-250.0,65.0,-1.0,-14.0,79.0,2.0,1
-253.0,70.0,1.0,-15.0,78.0,-1.0,1
-255.0,69.0,3.0,-15.0,77.0,1.0,1
-255.0,69.0,0.0,-12.0,77.0,0.0,1
-254.0,69.0,1.0,-11.0,77.0,-1.0,1
-252.0,69.0,1.0,-8.0,77.0,-2.0,1
-253.0,70.0,1.0,-6.0,76.0,-2.0,1
-253.0,67.0,2.0,-3.0,75.0,-4.0,1
-253.0,68.0,5.0,0.0,74.0,-3.0,1
-252.0,67.0,3.0,1.0,70.0,-3.0,1
-252.0,68.0,3.0,1.0,69.0,-3.0,1
-251.0,66.0,5.0,2.0,68.0,-4.0,1
-260.0,62.0,-2.0,-2.0,66.0,-3.0,1
-252.0,67.0,2.0,-3.0,65.0,-2.0,1
-254.0,66.0,3.0,-5.0,64.0,-1.0,1
-253.0,65.0,0.0,-4.0,66.0,0.0,1
-254.0,67.0,-5.0,-3.0,67.0,1.0,1
-255.0,69.0,1.0,-3.0,65.0,2.0,1
-253.0,68.0,-2.0,-2.0,64.0,3.0,1
-250.0,68.0,-3.0,-2.0,64.0,3.0,1
-251.0,68.0,2.0,-1.0,61.0,2.0,1
-253.0,69.0,3.0,-1.0,61.0,2.0,1
-251.0,71.0,-1.0,-1.0,60.0,1.0,1
-252.0,71.0,0.0,-2.0,57.0,0.0,1
-253.0,69.0,-1.0,-4.0,55.0,0.0,1
-250.0,67.0,0.0,-5.0,52.0,-1.0,1
-252.0,71.0,0.0,-9.0,49.0,-1.0,1
-251.0,69.0,8.0,-9.0,48.0,-2.0,1
-252.0,67.0,3.0,-9.0,47.0,-4.0,1
-252.0,68.0,6.0,-9.0,50.0,-3.0,1
-255.0,69.0,4.0,-9.0,53.0,-3.0,1
-252.0,68.0,5.0,-10.0,54.0,-5.0,1
-254.0,69.0,1.0,-10.0,54.0,-9.0,1
-253.0,69.0,7.0,-10.0,54.0,-7.0,1
-253.0,65.0,5.0,-10.0,53.0,-6.0,1
-253.0,69.0,0.0,-8.0,53.0,-7.0,1
-254.0,69.0,-2.0,-6.0,51.0,-7.0,1
-255.0,68.0,2.0,-5.0,49.0,-5.0,1
-252.0,67.0,-2.0,-4.0,43.0,-4.0,1
-251.0,65.0,0.0,-5.0,38.0,-4.0,1
-251.0,67.0,-3.0,-1.0,33.0,-3.0,1
-254.0,68.0,2.0,1.0,29.0,-4.0,1
-254.0,70.0,-1.0,0.0,24.0,-3.0,1
-253.0,67.0,3.0,2.0,21.0,-6.0,1
-254.0,70.0,0.0,3.0,20.0,-7.0,1
-253.0,66.0,5.0,2.0,16.0,-8.0,1
-252.0,69.0,5.0,4.0,20.0,-9.0,1
-251.0,68.0,2.0,6.0,26.0,-10.0,1
-252.0,71.0,3.0,11.0,31.0,-11.0,1
-253.0,69.0,5.0,13.0,37.0,-13.0,1
-252.0,69.0,2.0,12.0,41.0,-12.0,1
-253.0,68.0,2.0,5.0,39.0,-11.0,1
-251.0,65.0,7.0,2.0,40.0,-8.0,1
-253.0,68.0,6.0,5.0,44.0,-9.0,1
-254.0,68.0,3.0,8.0,47.0,-10.0,1
-254.0,61.0,14.0,4.0,44.0,-7.0,1
-253.0,67.0,-3.0,-1.0,37.0,-6.0,1
-254.0,66.0,4.0,-8.0,28.0,-1.0,1
-251.0,65.0,1.0,-14.0,24.0,0.0,1
-253.0,68.0,2.0,-15.0,25.0,-1.0,1
-251.0,69.0,6.0,-15.0,31.0,-2.0,1
-254.0,68.0,5.0,-15.0,34.0,-3.0,1
-250.0,67.0,7.0,-17.0,32.0,-4.0,1
-253.0,69.0,5.0,-22.0,35.0,-5.0,1
-251.0,68.0,6.0,-25.0,39.0,-4.0,1
-250.0,68.0,5.0,-23.0,45.0,-4.0,1
-251.0,65.0,5.0,-19.0,51.0,-4.0,1
-254.0,67.0,4.0,-15.0,54.0,-5.0,1
-252.0,67.0,7.0,-12.0,56.0,-7.0,1
-255.0,68.0,4.0,-8.0,59.0,-5.0,1
-254.0,70.0,5.0,-8.0,59.0,-2.0,1
-251.0,68.0,6.0,-10.0,54.0,-1.0,1
-254.0,68.0,6.0,-5.0,55.0,-1.0,1
-255.0,67.0,6.0,-1.0,57.0,1.0,1
-251.0,67.0,3.0,0.0,54.0,2.0,1
-254.0,67.0,6.0,-2.0,55.0,3.0,1
-251.0,68.0,3.0,-8.0,52.0,4.0,1
-241.0,70.0,9.0,-12.0,52.0,4.0,1
-255.0,69.0,5.0,-15.0,51.0,3.0,1
-251.0,68.0,8.0,-16.0,55.0,1.0,1
-256.0,72.0,7.0,-15.0,59.0,0.0,1
-248.0,69.0,7.0,-18.0,64.0,-3.0,1
-253.0,67.0,4.0,-18.0,67.0,-5.0,1
-251.0,66.0,7.0,-15.0,70.0,-6.0,1
-254.0,70.0,2.0,-14.0,75.0,-9.0,1
-253.0,69.0,5.0,-12.0,75.0,-10.0,1
-253.0,65.0,5.0,-12.0,76.0,-11.0,1
-254.0,68.0,4.0,-12.0,74.0,-10.0,1
-250.0,69.0,3.0,-12.0,74.0,-10.0,1
-249.0,67.0,4.0,-14.0,72.0,-10.0,1
-251.0,67.0,4.0,-16.0,70.0,-8.0,1
-255.0,66.0,2.0,-16.0,68.0,-7.0,1
-254.0,72.0,4.0,-18.0,67.0,-7.0,1
-252.0,70.0,3.0,-18.0,65.0,-7.0,1
-253.0,69.0,7.0,-18.0,64.0,-9.0,1
-254.0,71.0,3.0,-20.0,63.0,-10.0,1
-252.0,65.0,4.0,-20.0,62.0,-11.0,1
-254.0,70.0,3.0,-21.0,61.0,-11.0,1
-254.0,67.0,0.0,-18.0,61.0,-12.0,1
-251.0,70.0,2.0,-15.0,63.0,-14.0,1
-254.0,68.0,1.0,-12.0,63.0,-15.0,1
-252.0,70.0,3.0,-10.0,63.0,-15.0,1
-252.0,68.0,5.0,-8.0,60.0,-14.0,1
-254.0,67.0,3.0,-8.0,61.0,-14.0,1
-252.0,67.0,3.0,-8.0,61.0,-15.0,1
-255.0,68.0,7.0,-7.0,63.0,-13.0,1
-253.0,67.0,0.0,-8.0,63.0,-13.0,1
-250.0,68.0,2.0,-9.0,62.0,-14.0,1
-252.0,68.0,3.0,-8.0,63.0,-14.0,1
-252.0,65.0,4.0,-8.0,61.0,-13.0,1
-255.0,68.0,2.0,-8.0,62.0,-11.0,1
-253.0,69.0,4.0,-9.0,63.0,-12.0,1
-252.0,66.0,5.0,-9.0,62.0,-13.0,1
-253.0,70.0,6.0,-9.0,63.0,-13.0,1
-252.0,66.0,0.0,-12.0,63.0,-12.0,1
-252.0,66.0,3.0,-14.0,63.0,-11.0,1
-252.0,66.0,4.0,-15.0,65.0,-11.0,1
-253.0,65.0,6.0,-18.0,63.0,-9.0,1
-252.0,69.0,4.0,-19.0,63.0,-8.0,1
-253.0,67.0,6.0,-20.0,62.0,-6.0,1
-247.0,60.0,7.0,-19.0,61.0,-5.0,1
-252.0,67.0,5.0,-17.0,61.0,-6.0,1
-250.0,66.0,7.0,-15.0,64.0,-6.0,1
-254.0,67.0,5.0,-14.0,63.0,-7.0,1
-253.0,67.0,4.0,-12.0,65.0,-7.0,1
-251.0,70.0,6.0,-11.0,64.0,-8.0,1
-251.0,67.0,4.0,-10.0,65.0,-8.0,1
-255.0,70.0,4.0,-10.0,64.0,-8.0,1
-250.0,67.0,2.0,-11.0,64.0,-7.0,1
-251.0,66.0,4.0,-10.0,65.0,-7.0,1
-254.0,65.0,3.0,-12.0,68.0,-5.0,1
-254.0,65.0,5.0,-11.0,68.0,-2.0,1
-251.0,65.0,4.0,-10.0,72.0,0.0,1
-253.0,65.0,5.0,-6.0,72.0,3.0,1
-250.0,65.0,0.0,-2.0,74.0,4.0,1
-252.0,65.0,7.0,-1.0,72.0,5.0,1
-251.0,71.0,3.0,0.0,72.0,4.0,1
-255.0,68.0,3.0,1.0,70.0,4.0,1
-252.0,68.0,2.0,1.0,68.0,3.0,1
-251.0,68.0,5.0,0.0,67.0,2.0,1
-252.0,68.0,5.0,0.0,64.0,2.0,1
-251.0,70.0,6.0,0.0,58.0,3.0,1
-260.0,61.0,16.0,-3.0,56.0,2.0,1
-253.0,69.0,2.0,-5.0,54.0,0.0,1
-254.0,67.0,5.0,-6.0,53.0,0.0,1
-252.0,67.0,5.0,-9.0,54.0,-3.0,1
-253.0,69.0,9.0,-16.0,51.0,-2.0,1
-253.0,68.0,10.0,-20.0,51.0,-4.0,1
-253.0,68.0,7.0,-17.0,58.0,-5.0,1
-253.0,67.0,4.0,-13.0,62.0,-6.0,1
-253.0,69.0,3.0,-14.0,68.0,-7.0,1
-251.0,68.0,6.0,-17.0,72.0,-5.0,1
-252.0,69.0,4.0,-18.0,74.0,-4.0,1
-254.0,71.0,6.0,-19.0,73.0,-4.0,1
-254.0,68.0,1.0,-19.0,70.0,-5.0,1
-252.0,69.0,3.0,-18.0,69.0,-6.0,1
-253.0,66.0,3.0,-16.0,67.0,-6.0,1
-251.0,69.0,7.0,-14.0,63.0,-4.0,1
-251.0,65.0,4.0,-16.0,59.0,-4.0,1
-253.0,67.0,3.0,-16.0,58.0,-4.0,1
-253.0,70.0,8.0,-18.0,56.0,-2.0,1
-254.0,70.0,1.0,-17.0,60.0,-4.0,1
-252.0,70.0,3.0,-15.0,60.0,-4.0,1
-252.0,71.0,5.0,-14.0,60.0,-5.0,1
-250.0,66.0,14.0,-19.0,60.0,-3.0,1
-251.0,69.0,6.0,-21.0,60.0,-4.0,1
-256.0,69.0,7.0,-19.0,61.0,-7.0,1
-254.0,67.0,1.0,-10.0,58.0,-11.0,1
-251.0,70.0,3.0,-10.0,53.0,-10.0,1
-254.0,67.0,5.0,-11.0,55.0,-6.0,1
-251.0,66.0,6.0,-7.0,60.0,-5.0,1
-253.0,69.0,5.0,-6.0,64.0,-5.0,1
-253.0,68.0,7.0,-6.0,65.0,-4.0,1
-252.0,65.0,6.0,-6.0,63.0,-3.0,1
-252.0,66.0,6.0,-6.0,64.0,-2.0,1
-250.0,65.0,6.0,-9.0,64.0,-1.0,1
-253.0,67.0,4.0,-14.0,63.0,-3.0,1
-249.0,68.0,7.0,-19.0,63.0,-2.0,1
-253.0,71.0,6.0,-20.0,64.0,-4.0,1
-252.0,69.0,5.0,-20.0,66.0,-4.0,1
-254.0,69.0,9.0,-21.0,68.0,-5.0,1
-254.0,70.0,7.0,-21.0,70.0,-6.0,1
-252.0,69.0,8.0,-21.0,70.0,-8.0,1
-255.0,68.0,9.0,-20.0,73.0,-8.0,1
-251.0,66.0,4.0,-20.0,75.0,-10.0,1
-254.0,65.0,7.0,-20.0,76.0,-8.0,1
-244.0,63.0,10.0,-19.0,77.0,-7.0,1
-254.0,67.0,6.0,-17.0,76.0,-6.0,1
-253.0,69.0,6.0,-14.0,75.0,-4.0,1
-251.0,66.0,6.0,-14.0,74.0,-5.0,1
-255.0,67.0,6.0,-14.0,73.0,-3.0,1
-253.0,70.0,9.0,-17.0,72.0,-2.0,1
-251.0,69.0,7.0,-19.0,73.0,-1.0,1
-252.0,69.0,7.0,-21.0,74.0,-3.0,1
-255.0,70.0,4.0,-23.0,75.0,-4.0,1
-254.0,67.0,2.0,-23.0,76.0,-4.0,1
-251.0,67.0,4.0,-21.0,76.0,-7.0,1
-250.0,66.0,5.0,-20.0,77.0,-7.0,1
-252.0,68.0,2.0,-17.0,78.0,-7.0,1
-253.0,67.0,6.0,-13.0,80.0,-8.0,1
-254.0,65.0,1.0,-12.0,80.0,-7.0,1
-252.0,70.0,4.0,-8.0,80.0,-6.0,1
-253.0,69.0,1.0,-6.0,80.0,-6.0,1
-253.0,66.0,7.0,-6.0,78.0,-5.0,1
-252.0,66.0,4.0,-5.0,78.0,-6.0,1
-251.0,67.0,4.0,-5.0,76.0,-5.0,1
-255.0,70.0,2.0,-7.0,75.0,-4.0,1
-251.0,67.0,6.0,-7.0,73.0,-5.0,1
-253.0,63.0,3.0,-9.0,72.0,-4.0,1
-255.0,68.0,5.0,-10.0,70.0,-5.0,1
-250.0,66.0,6.0,-12.0,71.0,-7.0,1
-253.0,67.0,4.0,-12.0,71.0,-6.0,1
-253.0,65.0,5.0,-12.0,72.0,-7.0,1
-251.0,68.0,5.0,-11.0,74.0,-7.0,1
-254.0,67.0,6.0,-12.0,75.0,-6.0,1
-250.0,66.0,0.0,-11.0,74.0,-6.0,1
-251.0,63.0,5.0,-12.0,74.0,-6.0,1
-251.0,68.0,7.0,-11.0,74.0,-7.0,1
-255.0,66.0,5.0,-11.0,76.0,-6.0,1
-252.0,67.0,5.0,-10.0,75.0,-5.0,1
-253.0,66.0,4.0,-11.0,76.0,-2.0,1
-252.0,67.0,5.0,-10.0,76.0,-3.0,1
-252.0,66.0,7.0,-12.0,76.0,-3.0,1
-254.0,66.0,6.0,-13.0,75.0,-2.0,1
-253.0,65.0,3.0,-13.0,74.0,-2.0,1
-251.0,65.0,8.0,-14.0,75.0,-2.0,1
-254.0,67.0,8.0,-14.0,75.0,-1.0,1
-250.0,69.0,6.0,-15.0,75.0,1.0,1
-252.0,69.0,1.0,-15.0,77.0,-1.0,1
-254.0,66.0,6.0,-16.0,77.0,-1.0,1
-254.0,68.0,4.0,-15.0,76.0,-2.0,1
-254.0,66.0,3.0,-14.0,75.0,-1.0,1
-252.0,67.0,2.0,-13.0,74.0,-2.0,1
-254.0,67.0,3.0,-12.0,74.0,-4.0,1
-255.0,69.0,2.0,-12.0,73.0,-2.0,1
-253.0,66.0,1.0,-13.0,73.0,-1.0,1
-255.0,68.0,5.0,-14.0,73.0,0.0,1
-254.0,67.0,7.0,-16.0,71.0,0.0,1
-253.0,69.0,3.0,-18.0,71.0,1.0,1
-253.0,68.0,5.0,-18.0,69.0,0.0,1
-254.0,68.0,5.0,-17.0,69.0,2.0,1
-252.0,68.0,3.0,-17.0,69.0,0.0,1
-253.0,70.0,7.0,-17.0,69.0,0.0,1
-254.0,67.0,3.0,-14.0,71.0,-2.0,1
-253.0,66.0,4.0,-13.0,70.0,-3.0,1
-250.0,67.0,3.0,-12.0,71.0,-4.0,1
-250.0,66.0,5.0,-11.0,70.0,-5.0,1
-252.0,69.0,0.0,-10.0,69.0,-5.0,1
-254.0,66.0,7.0,-11.0,68.0,-5.0,1
-252.0,68.0,2.0,-11.0,68.0,-6.0,1
-256.0,61.0,11.0,-11.0,69.0,-5.0,1
-252.0,63.0,2.0,-10.0,72.0,-2.0,1
-254.0,65.0,3.0,-9.0,74.0,-2.0,1
-254.0,64.0,3.0,-9.0,74.0,1.0,1
-254.0,67.0,3.0,-6.0,76.0,2.0,1
-252.0,66.0,4.0,-3.0,74.0,4.0,1
-252.0,66.0,2.0,0.0,73.0,6.0,1
-253.0,70.0,-1.0,2.0,70.0,7.0,1
-253.0,69.0,3.0,2.0,65.0,5.0,1
-253.0,69.0,3.0,1.0,62.0,4.0,1
-251.0,68.0,4.0,1.0,59.0,2.0,1
-250.0,69.0,4.0,-1.0,56.0,1.0,1
-251.0,69.0,6.0,-4.0,52.0,1.0,1
-253.0,71.0,4.0,-8.0,50.0,0.0,1
-252.0,69.0,6.0,-10.0,49.0,-2.0,1
-253.0,68.0,6.0,-15.0,49.0,-3.0,1
-253.0,68.0,7.0,-19.0,51.0,-5.0,1
-250.0,68.0,7.0,-18.0,53.0,-6.0,1
-255.0,69.0,7.0,-18.0,56.0,-7.0,1
-250.0,68.0,9.0,-19.0,60.0,-9.0,1
-253.0,67.0,8.0,-18.0,62.0,-8.0,1
-253.0,66.0,4.0,-17.0,67.0,-8.0,1
-253.0,66.0,7.0,-16.0,68.0,-7.0,1
-252.0,65.0,12.0,-16.0,69.0,-7.0,1
-252.0,64.0,6.0,-16.0,70.0,-5.0,1
-250.0,67.0,4.0,-14.0,69.0,-5.0,1
-254.0,66.0,5.0,-11.0,68.0,-5.0,1
-256.0,70.0,2.0,-9.0,65.0,-5.0,1
-253.0,67.0,4.0,-8.0,62.0,-7.0,1
-252.0,69.0,2.0,-6.0,59.0,-6.0,1
-255.0,67.0,5.0,-6.0,54.0,-5.0,1
-252.0,70.0,2.0,-8.0,51.0,-5.0,1
-255.0,69.0,3.0,-7.0,51.0,-5.0,1
-251.0,65.0,7.0,-7.0,52.0,-6.0,1
-252.0,66.0,8.0,-5.0,55.0,-6.0,1
-252.0,68.0,6.0,-4.0,57.0,-6.0,1
-251.0,65.0,5.0,-1.0,60.0,-6.0,1
-252.0,67.0,4.0,-2.0,63.0,-8.0,1
-252.0,67.0,5.0,-7.0,62.0,-6.0,1
-254.0,69.0,8.0,-6.0,62.0,-5.0,1
-254.0,65.0,5.0,-3.0,65.0,-6.0,1
-255.0,66.0,5.0,-3.0,65.0,-5.0,1
-253.0,70.0,4.0,-6.0,64.0,-4.0,1
-254.0,68.0,7.0,-9.0,61.0,-2.0,1
-251.0,67.0,6.0,-11.0,61.0,-3.0,1
-253.0,67.0,6.0,-10.0,61.0,-2.0,1
-254.0,69.0,4.0,-10.0,59.0,-5.0,1
-253.0,67.0,4.0,-14.0,57.0,-6.0,1
-254.0,70.0,2.0,-15.0,59.0,-5.0,1
-253.0,69.0,2.0,-18.0,62.0,-7.0,1
-254.0,68.0,3.0,-19.0,65.0,-6.0,1
-253.0,66.0,5.0,-18.0,66.0,-6.0,1
-254.0,68.0,5.0,-14.0,67.0,-7.0,1
-251.0,69.0,6.0,-10.0,67.0,-8.0,1
-254.0,66.0,3.0,-10.0,66.0,-9.0,1
-255.0,67.0,6.0,-8.0,66.0,-9.0,1
-253.0,67.0,4.0,-6.0,66.0,-6.0,1
-252.0,67.0,2.0,-5.0,67.0,-6.0,1
-254.0,70.0,7.0,-6.0,63.0,-4.0,1
-253.0,68.0,9.0,-9.0,59.0,-1.0,1
-255.0,69.0,6.0,-11.0,57.0,2.0,1
-250.0,68.0,5.0,-11.0,58.0,3.0,1
-254.0,68.0,2.0,-9.0,58.0,3.0,1
-252.0,69.0,4.0,-10.0,56.0,3.0,1
-253.0,69.0,8.0,-15.0,57.0,3.0,1
-255.0,71.0,4.0,-19.0,59.0,4.0,1
-256.0,71.0,7.0,-25.0,57.0,2.0,1
-250.0,65.0,4.0,-24.0,59.0,1.0,1
-256.0,68.0,4.0,-19.0,63.0,-1.0,1
-254.0,66.0,6.0,-13.0,67.0,-2.0,1
-254.0,65.0,3.0,-10.0,68.0,-2.0,1
-253.0,66.0,8.0,-7.0,70.0,-1.0,1
-252.0,65.0,3.0,-2.0,72.0,-1.0,1
-252.0,67.0,6.0,3.0,73.0,0.0,1
-252.0,66.0,4.0,8.0,75.0,2.0,1
-253.0,71.0,3.0,3.0,71.0,1.0,1
-254.0,67.0,7.0,-4.0,64.0,2.0,1
-253.0,67.0,7.0,-6.0,59.0,1.0,1
-251.0,65.0,8.0,-7.0,54.0,-1.0,1
-251.0,68.0,6.0,-11.0,51.0,-2.0,1
-253.0,67.0,6.0,-10.0,53.0,-1.0,1
-254.0,68.0,6.0,-8.0,56.0,-1.0,1
-253.0,69.0,4.0,-10.0,57.0,-1.0,1
-253.0,68.0,5.0,-13.0,57.0,-4.0,1
-251.0,67.0,9.0,-13.0,61.0,-2.0,1
-254.0,64.0,7.0,-13.0,62.0,-5.0,1
-252.0,66.0,3.0,-11.0,61.0,-6.0,1
-255.0,68.0,2.0,-10.0,64.0,-7.0,1
-247.0,64.0,16.0,-10.0,67.0,-5.0,1
-251.0,66.0,4.0,-13.0,66.0,-3.0,1
-250.0,69.0,6.0,-14.0,67.0,-3.0,1
-252.0,69.0,4.0,-12.0,68.0,-2.0,1
-252.0,69.0,4.0,-15.0,68.0,-3.0,1
-255.0,67.0,4.0,-21.0,66.0,-3.0,1
-252.0,65.0,3.0,-25.0,65.0,-2.0,1
-253.0,67.0,6.0,-26.0,63.0,-1.0,1
-251.0,66.0,7.0,-26.0,63.0,-3.0,1
-253.0,68.0,5.0,-26.0,64.0,-2.0,1
-250.0,68.0,5.0,-24.0,67.0,-3.0,1
-253.0,67.0,9.0,-20.0,69.0,-3.0,1
-256.0,66.0,10.0,-18.0,66.0,-4.0,1
-252.0,69.0,4.0,-17.0,65.0,-3.0,1
-255.0,67.0,3.0,-16.0,62.0,-3.0,1
-251.0,66.0,5.0,-18.0,62.0,-2.0,1
-254.0,68.0,0.0,-19.0,63.0,-3.0,1
-255.0,68.0,2.0,-21.0,63.0,-4.0,1
-255.0,69.0,2.0,-23.0,62.0,-6.0,1
-254.0,70.0,7.0,-25.0,62.0,-5.0,1
-252.0,67.0,5.0,-25.0,63.0,-5.0,1
-253.0,70.0,7.0,-22.0,64.0,-5.0,1
-244.0,67.0,10.0,-20.0,65.0,-6.0,1
-253.0,70.0,6.0,-20.0,67.0,-4.0,1
-252.0,67.0,7.0,-20.0,67.0,-4.0,1
-251.0,65.0,6.0,-20.0,69.0,-4.0,1
-252.0,67.0,5.0,-22.0,69.0,-4.0,1
-253.0,69.0,6.0,-26.0,68.0,-4.0,1
-252.0,67.0,7.0,-27.0,68.0,-1.0,1
-253.0,67.0,12.0,-30.0,68.0,0.0,1
-255.0,70.0,7.0,-30.0,67.0,-1.0,1
-252.0,67.0,4.0,-30.0,67.0,0.0,1
-250.0,66.0,8.0,-29.0,69.0,1.0,1
-254.0,66.0,3.0,-28.0,69.0,-1.0,1
-252.0,66.0,5.0,-28.0,71.0,-2.0,1
-252.0,68.0,9.0,-29.0,74.0,-4.0,1
-252.0,67.0,5.0,-29.0,77.0,-5.0,1
-254.0,69.0,9.0,-31.0,78.0,-5.0,1
-254.0,69.0,3.0,-31.0,80.0,-7.0,1
-253.0,66.0,6.0,-33.0,85.0,-8.0,1
-254.0,66.0,6.0,-32.0,88.0,-8.0,1
-251.0,64.0,9.0,-29.0,93.0,-6.0,1
-252.0,65.0,7.0,-28.0,98.0,-4.0,1
-251.0,63.0,1.0,-23.0,103.0,-1.0,1
-252.0,70.0,2.0,-22.0,106.0,1.0,1
-252.0,69.0,11.0,-17.0,106.0,3.0,1
-254.0,68.0,1.0,-9.0,104.0,5.0,1
-252.0,64.0,3.0,-2.0,101.0,4.0,1
-253.0,71.0,2.0,1.0,100.0,6.0,1
-252.0,69.0,7.0,1.0,93.0,6.0,1
-254.0,68.0,6.0,-2.0,86.0,8.0,1
-250.0,69.0,2.0,-5.0,81.0,6.0,1
-250.0,70.0,8.0,-6.0,75.0,5.0,1
-253.0,72.0,5.0,-11.0,71.0,5.0,1
-248.0,68.0,7.0,-14.0,70.0,3.0,1
-253.0,69.0,9.0,-20.0,70.0,1.0,1
-252.0,69.0,8.0,-25.0,71.0,-2.0,1
-250.0,68.0,10.0,-28.0,75.0,-5.0,1
-252.0,67.0,9.0,-29.0,80.0,-7.0,1
-252.0,68.0,8.0,-28.0,86.0,-10.0,1
-251.0,66.0,8.0,-30.0,93.0,-11.0,1
-251.0,67.0,6.0,-28.0,99.0,-12.0,1
-252.0,66.0,7.0,-25.0,105.0,-12.0,1
-253.0,69.0,3.0,-24.0,106.0,-10.0,1
-250.0,66.0,8.0,-23.0,109.0,-11.0,1
-262.0,72.0,1.0,-22.0,109.0,-11.0,1
-251.0,67.0,3.0,-21.0,108.0,-10.0,1
-255.0,67.0,7.0,-21.0,108.0,-10.0,1
-254.0,67.0,2.0,-19.0,105.0,-9.0,1
-253.0,67.0,5.0,-18.0,101.0,-8.0,1
-252.0,68.0,5.0,-16.0,97.0,-7.0,1
-252.0,67.0,-1.0,-15.0,94.0,-5.0,1
-254.0,67.0,2.0,-14.0,89.0,-5.0,1
-255.0,67.0,4.0,-14.0,85.0,-5.0,1
-255.0,64.0,3.0,-13.0,82.0,-7.0,1
-253.0,68.0,5.0,-11.0,80.0,-8.0,1
-251.0,66.0,3.0,-12.0,79.0,-8.0,1
-253.0,69.0,3.0,-12.0,83.0,-7.0,1
-253.0,67.0,6.0,-13.0,85.0,-9.0,1
-252.0,66.0,6.0,-14.0,86.0,-8.0,1
-254.0,66.0,3.0,-16.0,87.0,-7.0,1
-251.0,67.0,2.0,-20.0,87.0,-7.0,1
-254.0,68.0,2.0,-20.0,88.0,-5.0,1
-253.0,69.0,7.0,-18.0,92.0,-5.0,1
-252.0,66.0,6.0,-18.0,93.0,-3.0,1
-254.0,69.0,2.0,-22.0,92.0,-2.0,1
-255.0,67.0,5.0,-24.0,92.0,-1.0,1
-244.0,60.0,2.0,-28.0,94.0,-2.0,1
-249.0,70.0,3.0,-31.0,96.0,-3.0,1
-255.0,68.0,4.0,-35.0,96.0,-2.0,1
-254.0,69.0,4.0,-39.0,96.0,-3.0,1
-255.0,71.0,2.0,-41.0,96.0,-6.0,1
-252.0,68.0,4.0,-42.0,96.0,-6.0,1
-250.0,66.0,4.0,-39.0,97.0,-7.0,1
-253.0,67.0,4.0,-35.0,101.0,-7.0,1
-254.0,68.0,0.0,-29.0,101.0,-5.0,1
-254.0,64.0,3.0,-29.0,99.0,-4.0,1
-255.0,65.0,-1.0,-28.0,96.0,-1.0,1
-251.0,65.0,2.0,-23.0,91.0,-1.0,1
-254.0,67.0,2.0,-16.0,91.0,1.0,1
-250.0,65.0,1.0,-14.0,90.0,3.0,1
-255.0,68.0,2.0,-13.0,85.0,4.0,1
-252.0,69.0,4.0,-13.0,85.0,5.0,1
-252.0,68.0,1.0,-12.0,85.0,7.0,1
-252.0,65.0,3.0,-15.0,83.0,8.0,1
-253.0,67.0,1.0,-19.0,81.0,7.0,1
-250.0,69.0,4.0,-22.0,81.0,6.0,1
-252.0,67.0,5.0,-25.0,83.0,5.0,1
-252.0,68.0,4.0,-28.0,85.0,4.0,1
-251.0,67.0,5.0,-29.0,90.0,1.0,1
-253.0,68.0,4.0,-30.0,91.0,0.0,1
-253.0,66.0,1.0,-28.0,92.0,-1.0,1
-251.0,69.0,3.0,-28.0,94.0,-5.0,1
-251.0,66.0,5.0,-27.0,95.0,-4.0,1
-253.0,63.0,3.0,-23.0,95.0,-5.0,1
-253.0,66.0,4.0,-21.0,98.0,-4.0,1
-253.0,68.0,2.0,-20.0,97.0,-2.0,1
-250.0,65.0,3.0,-21.0,95.0,-1.0,1
-251.0,68.0,3.0,-23.0,92.0,-1.0,1
-250.0,67.0,3.0,-26.0,90.0,-1.0,1
-252.0,66.0,1.0,-27.0,87.0,1.0,1
-253.0,66.0,1.0,-28.0,87.0,0.0,1
-254.0,67.0,5.0,-25.0,88.0,1.0,1
-254.0,67.0,3.0,-26.0,88.0,0.0,1
-250.0,64.0,0.0,-26.0,86.0,1.0,1
-252.0,66.0,1.0,-25.0,85.0,0.0,1
-253.0,67.0,4.0,-24.0,85.0,1.0,1
-253.0,68.0,2.0,-21.0,86.0,-1.0,1
-250.0,66.0,4.0,-19.0,88.0,-1.0,1
-251.0,67.0,3.0,-13.0,95.0,-3.0,1
-254.0,68.0,6.0,-7.0,97.0,-3.0,1
-254.0,68.0,0.0,-8.0,99.0,-2.0,1
-255.0,69.0,-1.0,-12.0,96.0,-2.0,1
-252.0,67.0,5.0,-15.0,93.0,-2.0,1
-253.0,65.0,8.0,-17.0,92.0,-3.0,1
-255.0,67.0,4.0,-16.0,95.0,-2.0,1
-253.0,66.0,3.0,-14.0,97.0,-2.0,1
-251.0,67.0,-1.0,-12.0,94.0,0.0,1
-254.0,66.0,0.0,-13.0,95.0,0.0,1
-256.0,69.0,-2.0,-12.0,92.0,-1.0,1
-253.0,67.0,0.0,-12.0,93.0,-2.0,1
-255.0,69.0,-1.0,-13.0,92.0,-2.0,1
-252.0,66.0,-1.0,-15.0,87.0,0.0,1
-254.0,68.0,3.0,-17.0,83.0,-2.0,1
-252.0,66.0,3.0,-19.0,81.0,-1.0,1
-254.0,71.0,1.0,-18.0,80.0,-3.0,1
-253.0,69.0,3.0,-18.0,82.0,-2.0,1
-253.0,67.0,4.0,-15.0,81.0,-4.0,1
-254.0,67.0,1.0,-16.0,80.0,-2.0,1
-252.0,69.0,2.0,-17.0,79.0,-3.0,1
-252.0,67.0,4.0,-19.0,79.0,-4.0,1
-253.0,68.0,-2.0,-18.0,78.0,-4.0,1
-254.0,68.0,1.0,-19.0,78.0,-5.0,1
-255.0,68.0,2.0,-18.0,76.0,-3.0,1
-253.0,69.0,1.0,-18.0,74.0,-3.0,1
-255.0,67.0,1.0,-17.0,72.0,-3.0,1
-252.0,69.0,1.0,-16.0,70.0,-4.0,1
-254.0,70.0,1.0,-14.0,69.0,-3.0,1
-252.0,67.0,3.0,-12.0,67.0,-4.0,1
-251.0,67.0,-2.0,-8.0,67.0,-3.0,1
-252.0,66.0,1.0,-8.0,66.0,-3.0,1
-255.0,69.0,1.0,-7.0,65.0,-6.0,1
-253.0,68.0,2.0,-7.0,64.0,-5.0,1
-254.0,68.0,3.0,-6.0,63.0,-7.0,1
-251.0,67.0,-2.0,-6.0,61.0,-6.0,1
-249.0,68.0,2.0,-5.0,60.0,-7.0,1
-251.0,66.0,1.0,-4.0,61.0,-6.0,1
-250.0,66.0,6.0,-5.0,58.0,-8.0,1
-249.0,65.0,2.0,-4.0,58.0,-6.0,1
-251.0,69.0,-1.0,-5.0,57.0,-6.0,1
-252.0,63.0,-1.0,-5.0,56.0,-7.0,1
-255.0,71.0,6.0,-8.0,58.0,-7.0,1
-251.0,68.0,2.0,-11.0,60.0,-8.0,1
-252.0,66.0,2.0,-15.0,61.0,-6.0,1
-259.0,66.0,6.0,-17.0,62.0,-8.0,1
-254.0,68.0,2.0,-21.0,63.0,-6.0,1
-254.0,67.0,4.0,-25.0,65.0,-5.0,1
-255.0,68.0,1.0,-28.0,68.0,-6.0,1
-253.0,67.0,0.0,-30.0,70.0,-6.0,1
-253.0,66.0,2.0,-31.0,72.0,-4.0,1
-252.0,69.0,5.0,-32.0,74.0,-1.0,1
-250.0,65.0,8.0,-32.0,77.0,-2.0,1
-252.0,65.0,1.0,-28.0,82.0,-1.0,1
-250.0,65.0,2.0,-26.0,87.0,-2.0,1
-253.0,66.0,1.0,-25.0,90.0,0.0,1
-252.0,64.0,0.0,-24.0,89.0,1.0,1
-256.0,68.0,3.0,-23.0,91.0,2.0,1
-253.0,67.0,1.0,-24.0,91.0,2.0,1
-254.0,65.0,6.0,-26.0,91.0,4.0,1
-251.0,63.0,4.0,-28.0,93.0,5.0,1
-254.0,67.0,5.0,-25.0,97.0,7.0,1
-253.0,66.0,6.0,-22.0,105.0,10.0,1
-252.0,64.0,-1.0,-20.0,107.0,13.0,1
-253.0,66.0,0.0,-24.0,103.0,19.0,1
-252.0,66.0,1.0,-27.0,97.0,20.0,1
-249.0,67.0,3.0,-23.0,95.0,21.0,1
-260.0,64.0,-4.0,-12.0,97.0,20.0,1
-251.0,70.0,-3.0,-6.0,95.0,19.0,1
-252.0,70.0,1.0,-5.0,91.0,17.0,1
-252.0,71.0,-4.0,-5.0,88.0,13.0,1
-251.0,72.0,-3.0,-9.0,84.0,10.0,1
-250.0,69.0,-2.0,-16.0,80.0,9.0,1
-251.0,70.0,3.0,-20.0,77.0,8.0,1
-252.0,68.0,4.0,-24.0,74.0,7.0,1
-252.0,70.0,5.0,-26.0,73.0,6.0,1
-253.0,65.0,2.0,-27.0,71.0,6.0,1
-253.0,68.0,5.0,-28.0,72.0,5.0,1
-251.0,68.0,1.0,-28.0,72.0,3.0,1
-254.0,68.0,4.0,-26.0,75.0,1.0,1
-253.0,68.0,0.0,-22.0,78.0,0.0,1
-251.0,66.0,2.0,-19.0,82.0,-3.0,1
-252.0,65.0,1.0,-16.0,84.0,-3.0,1
-254.0,70.0,-2.0,-14.0,85.0,-2.0,1
-252.0,65.0,1.0,-13.0,85.0,-3.0,1
-255.0,69.0,-3.0,-9.0,84.0,-2.0,1
-253.0,70.0,0.0,-8.0,83.0,-2.0,1
-252.0,65.0,2.0,-6.0,80.0,-2.0,1
-255.0,70.0,0.0,-3.0,77.0,-1.0,1
-250.0,69.0,-5.0,0.0,74.0,-2.0,1
-252.0,69.0,-2.0,3.0,74.0,-6.0,1
-252.0,68.0,-4.0,7.0,74.0,-5.0,1
-251.0,69.0,2.0,11.0,71.0,-7.0,1
-252.0,66.0,1.0,15.0,71.0,-7.0,1
-254.0,69.0,0.0,16.0,69.0,-10.0,1
-253.0,67.0,-2.0,17.0,68.0,-10.0,1
-253.0,68.0,0.0,18.0,67.0,-9.0,1
-253.0,66.0,-3.0,21.0,65.0,-9.0,1
-254.0,65.0,-3.0,22.0,62.0,-8.0,1
-252.0,69.0,2.0,23.0,59.0,-7.0,1
-254.0,64.0,-2.0,24.0,56.0,-8.0,1
-253.0,67.0,-2.0,24.0,52.0,-8.0,1
-254.0,68.0,-1.0,24.0,48.0,-6.0,1
-255.0,66.0,2.0,22.0,46.0,-7.0,1
-253.0,69.0,-1.0,22.0,44.0,-7.0,1
-254.0,66.0,-2.0,18.0,41.0,-8.0,1
-255.0,70.0,-1.0,13.0,40.0,-9.0,1
-256.0,69.0,1.0,9.0,36.0,-8.0,1
-254.0,71.0,-1.0,3.0,36.0,-9.0,1
-251.0,68.0,2.0,-2.0,35.0,-7.0,1
-256.0,69.0,-1.0,-5.0,36.0,-8.0,1
-250.0,62.0,1.0,-9.0,36.0,-9.0,1
-253.0,65.0,0.0,-9.0,37.0,-9.0,1
-254.0,70.0,1.0,-9.0,37.0,-7.0,1
-255.0,67.0,-1.0,-10.0,39.0,-7.0,1
-254.0,68.0,0.0,-7.0,40.0,-8.0,1
-253.0,69.0,0.0,-5.0,44.0,-8.0,1
-256.0,69.0,-1.0,-6.0,45.0,-4.0,1
-251.0,66.0,3.0,-7.0,43.0,-2.0,1
-249.0,67.0,2.0,-5.0,45.0,-3.0,1
-253.0,70.0,3.0,-4.0,44.0,1.0,1
-250.0,66.0,1.0,-6.0,44.0,3.0,1
-254.0,67.0,1.0,-10.0,43.0,3.0,1
-252.0,67.0,2.0,-13.0,40.0,5.0,1
-251.0,68.0,7.0,-17.0,40.0,6.0,1
-251.0,65.0,2.0,-22.0,40.0,5.0,1
-251.0,69.0,6.0,-24.0,40.0,4.0,1
-254.0,69.0,6.0,-25.0,44.0,3.0,1
-253.0,67.0,3.0,-24.0,48.0,2.0,1
-254.0,66.0,4.0,-23.0,51.0,0.0,1
-251.0,66.0,5.0,-23.0,52.0,1.0,1
-254.0,67.0,6.0,-18.0,54.0,2.0,1
-254.0,67.0,1.0,-16.0,55.0,0.0,1
-251.0,66.0,4.0,-15.0,58.0,0.0,1
-254.0,69.0,2.0,-12.0,59.0,-1.0,1
-253.0,70.0,0.0,-9.0,61.0,-1.0,1
-253.0,68.0,4.0,-9.0,61.0,0.0,1
-253.0,70.0,2.0,-8.0,61.0,-2.0,1
-250.0,70.0,3.0,-7.0,63.0,-2.0,1
-255.0,68.0,8.0,-6.0,64.0,-2.0,1
-252.0,69.0,3.0,-6.0,65.0,-3.0,1
-252.0,67.0,2.0,-6.0,67.0,-4.0,1
-251.0,67.0,4.0,-5.0,68.0,-4.0,1
-254.0,70.0,3.0,-6.0,71.0,-6.0,1
-253.0,67.0,1.0,-5.0,73.0,-7.0,1
-253.0,67.0,2.0,-6.0,74.0,-6.0,1
-252.0,68.0,9.0,-6.0,75.0,-8.0,1
-251.0,68.0,4.0,-6.0,74.0,-9.0,1
-253.0,70.0,3.0,-6.0,74.0,-9.0,1
-252.0,69.0,2.0,-6.0,73.0,-9.0,1
-253.0,68.0,4.0,-7.0,73.0,-9.0,1
-250.0,70.0,3.0,-7.0,73.0,-7.0,1
-253.0,68.0,-3.0,-6.0,72.0,-9.0,1
-257.0,69.0,8.0,-6.0,71.0,-9.0,1
-252.0,68.0,-1.0,-5.0,71.0,-9.0,1
-252.0,66.0,2.0,-7.0,69.0,-8.0,1
-254.0,68.0,-1.0,-7.0,68.0,-7.0,1
-255.0,67.0,1.0,-7.0,68.0,-5.0,1
-252.0,65.0,1.0,-7.0,68.0,-4.0,1
-255.0,68.0,4.0,-8.0,67.0,-4.0,1
-253.0,67.0,0.0,-8.0,65.0,-4.0,1
-253.0,68.0,0.0,-9.0,65.0,-4.0,1
-253.0,69.0,2.0,-9.0,64.0,-5.0,1
-252.0,67.0,2.0,-9.0,63.0,-3.0,1
-255.0,69.0,-4.0,-10.0,62.0,-4.0,1
-251.0,66.0,-1.0,-10.0,62.0,-3.0,1
-254.0,68.0,-2.0,-11.0,63.0,-3.0,1
-251.0,68.0,2.0,-11.0,63.0,-3.0,1
-255.0,68.0,3.0,-12.0,63.0,-5.0,1
-252.0,68.0,1.0,-13.0,64.0,-3.0,1
-251.0,66.0,1.0,-13.0,62.0,-3.0,1
-253.0,68.0,4.0,-12.0,63.0,-3.0,1
-252.0,64.0,0.0,-12.0,63.0,-4.0,1
-252.0,68.0,2.0,-12.0,62.0,-3.0,1
-252.0,65.0,5.0,-11.0,62.0,-3.0,1
-253.0,67.0,4.0,-10.0,61.0,-5.0,1
-250.0,65.0,3.0,-11.0,61.0,-3.0,1
-250.0,68.0,4.0,-11.0,61.0,-4.0,1
-252.0,67.0,1.0,-11.0,59.0,-4.0,1
-252.0,68.0,2.0,-12.0,59.0,-3.0,1
-253.0,66.0,4.0,-13.0,57.0,-2.0,1
-252.0,69.0,2.0,-15.0,54.0,-2.0,1
-251.0,67.0,6.0,-16.0,53.0,-3.0,1
-252.0,67.0,3.0,-19.0,53.0,-3.0,1
-253.0,68.0,4.0,-20.0,53.0,-2.0,1
-252.0,68.0,5.0,-19.0,55.0,-3.0,1
-253.0,69.0,5.0,-19.0,57.0,-4.0,1
-252.0,66.0,-1.0,-18.0,59.0,-3.0,1
-253.0,65.0,5.0,-16.0,61.0,-4.0,1
-252.0,68.0,-1.0,-13.0,64.0,-5.0,1
-252.0,65.0,1.0,-12.0,66.0,-6.0,1
-253.0,68.0,3.0,-8.0,67.0,-7.0,1
-254.0,69.0,2.0,-6.0,67.0,-7.0,1
-252.0,69.0,-2.0,-2.0,65.0,-7.0,1
-251.0,67.0,5.0,-3.0,65.0,-6.0,1
-253.0,69.0,3.0,-4.0,64.0,-6.0,1
-254.0,68.0,3.0,-5.0,64.0,-4.0,1
-251.0,66.0,3.0,-8.0,66.0,-3.0,1
-258.0,68.0,-3.0,-10.0,67.0,-2.0,1
-254.0,68.0,1.0,-11.0,69.0,1.0,1
-253.0,67.0,3.0,-12.0,72.0,3.0,1
-254.0,68.0,1.0,-10.0,74.0,4.0,1
-253.0,67.0,2.0,-9.0,75.0,5.0,1
-250.0,69.0,4.0,-7.0,74.0,6.0,1
-253.0,69.0,5.0,-4.0,72.0,5.0,1
-252.0,69.0,3.0,-1.0,70.0,7.0,1
-254.0,71.0,0.0,-1.0,68.0,7.0,1
-252.0,67.0,1.0,1.0,62.0,7.0,1
-251.0,68.0,0.0,3.0,60.0,5.0,1
-251.0,68.0,1.0,4.0,56.0,3.0,1
-250.0,70.0,2.0,2.0,49.0,3.0,1
-254.0,71.0,1.0,1.0,42.0,3.0,1
-253.0,70.0,6.0,-1.0,36.0,4.0,1
-249.0,66.0,4.0,-4.0,34.0,3.0,1
-252.0,68.0,-1.0,-5.0,35.0,3.0,1
-253.0,67.0,6.0,-6.0,38.0,3.0,1
-255.0,69.0,4.0,-6.0,42.0,2.0,1
-254.0,70.0,-1.0,-6.0,45.0,0.0,1
-254.0,70.0,3.0,-7.0,47.0,-2.0,1
-254.0,70.0,2.0,-12.0,43.0,-1.0,1
-252.0,68.0,6.0,-20.0,36.0,-1.0,1
-253.0,69.0,1.0,-17.0,37.0,-1.0,1
-252.0,67.0,3.0,-11.0,41.0,-4.0,1
-254.0,69.0,-2.0,-8.0,44.0,-2.0,1
-252.0,69.0,4.0,-9.0,46.0,-3.0,1
-251.0,68.0,2.0,-9.0,45.0,-5.0,1
-253.0,71.0,1.0,-9.0,44.0,-3.0,1
-253.0,69.0,7.0,-12.0,41.0,-4.0,1
-251.0,64.0,3.0,-14.0,38.0,-2.0,1
-254.0,68.0,5.0,-14.0,39.0,-4.0,1
-254.0,69.0,6.0,-13.0,43.0,-5.0,1
-253.0,70.0,2.0,-14.0,46.0,-7.0,1
-255.0,68.0,3.0,-11.0,51.0,-7.0,1
-252.0,67.0,5.0,-10.0,54.0,-6.0,1
-253.0,70.0,6.0,-11.0,53.0,-7.0,1
-255.0,66.0,4.0,-12.0,51.0,-5.0,1
-251.0,67.0,6.0,-12.0,51.0,-5.0,1
-253.0,66.0,1.0,-6.0,55.0,-7.0,1
-253.0,66.0,2.0,-2.0,56.0,-4.0,1
-253.0,66.0,3.0,0.0,56.0,-5.0,1
-254.0,69.0,7.0,-2.0,52.0,-3.0,1
-252.0,66.0,3.0,-4.0,47.0,-5.0,1
-251.0,69.0,6.0,-1.0,47.0,-4.0,1
-254.0,68.0,2.0,0.0,48.0,-4.0,1
-253.0,67.0,7.0,-3.0,48.0,-3.0,1
-253.0,68.0,5.0,-6.0,47.0,-5.0,1
-254.0,68.0,4.0,-11.0,43.0,-3.0,1
-254.0,70.0,2.0,-14.0,45.0,-5.0,1
-253.0,69.0,2.0,-14.0,48.0,-7.0,1
-254.0,70.0,1.0,-15.0,47.0,-8.0,1
-252.0,67.0,3.0,-14.0,48.0,-9.0,1
-254.0,68.0,2.0,-11.0,50.0,-10.0,1
-249.0,64.0,3.0,-11.0,48.0,-10.0,1
-252.0,65.0,-1.0,-9.0,48.0,-10.0,1
-251.0,68.0,0.0,-4.0,49.0,-10.0,1
-255.0,69.0,4.0,0.0,51.0,-9.0,1
-253.0,69.0,3.0,3.0,53.0,-8.0,1
-252.0,65.0,6.0,5.0,52.0,-7.0,1
-253.0,68.0,4.0,2.0,49.0,-5.0,1
-254.0,67.0,4.0,-2.0,45.0,-2.0,1
-252.0,68.0,6.0,-6.0,45.0,-1.0,1
-251.0,68.0,6.0,-6.0,47.0,0.0,1
-252.0,68.0,8.0,-8.0,52.0,-1.0,1
-252.0,69.0,-2.0,-12.0,54.0,0.0,1
-253.0,70.0,7.0,-15.0,55.0,-1.0,1
-254.0,68.0,5.0,-17.0,54.0,-1.0,1
-254.0,66.0,4.0,-19.0,56.0,-2.0,1
-251.0,68.0,3.0,-21.0,55.0,0.0,1
-254.0,69.0,3.0,-21.0,57.0,-3.0,1
-252.0,68.0,6.0,-15.0,59.0,-4.0,1
-251.0,68.0,5.0,-12.0,60.0,-4.0,1
-254.0,67.0,4.0,-9.0,60.0,-5.0,1
-254.0,66.0,4.0,-8.0,60.0,-5.0,1
-253.0,67.0,5.0,-8.0,57.0,-2.0,1
-253.0,69.0,3.0,-10.0,56.0,-3.0,1
-251.0,69.0,4.0,-10.0,56.0,-3.0,1
-253.0,67.0,1.0,-10.0,58.0,-4.0,1
-250.0,66.0,1.0,-10.0,60.0,-3.0,1
-252.0,68.0,4.0,-11.0,62.0,-1.0,1
-252.0,66.0,4.0,-11.0,61.0,0.0,1
-251.0,66.0,5.0,-13.0,59.0,1.0,1
-252.0,67.0,4.0,-14.0,57.0,1.0,1
-254.0,67.0,6.0,-11.0,61.0,1.0,1
-253.0,69.0,2.0,-13.0,63.0,1.0,1
-254.0,67.0,8.0,-15.0,61.0,2.0,1
-245.0,74.0,10.0,-17.0,58.0,1.0,1
-253.0,69.0,2.0,-17.0,58.0,0.0,1
-252.0,71.0,4.0,-18.0,57.0,-1.0,1
-253.0,68.0,4.0,-17.0,57.0,-1.0,1
-255.0,66.0,1.0,-16.0,57.0,-1.0,1
-253.0,70.0,4.0,-18.0,55.0,-1.0,1
-253.0,68.0,6.0,-16.0,56.0,-2.0,1
-251.0,68.0,2.0,-14.0,58.0,-4.0,1
-252.0,70.0,2.0,-12.0,62.0,-3.0,1
-255.0,69.0,4.0,-14.0,65.0,-3.0,1
-253.0,66.0,5.0,-16.0,66.0,-2.0,1
-253.0,69.0,5.0,-18.0,63.0,-1.0,1
-252.0,67.0,4.0,-16.0,63.0,-4.0,1
-254.0,68.0,1.0,-15.0,65.0,-3.0,1
-255.0,67.0,3.0,-17.0,64.0,-1.0,1
-252.0,67.0,4.0,-21.0,63.0,-3.0,1
-252.0,68.0,2.0,-22.0,62.0,-2.0,1
-252.0,69.0,9.0,-24.0,59.0,-2.0,1
-250.0,67.0,9.0,-23.0,60.0,-1.0,1
-255.0,70.0,7.0,-20.0,59.0,-3.0,1
-254.0,69.0,3.0,-14.0,60.0,-4.0,1
-251.0,69.0,5.0,-11.0,61.0,-3.0,1
-254.0,66.0,7.0,-11.0,62.0,-4.0,1
-253.0,68.0,5.0,-8.0,65.0,-5.0,1
-250.0,69.0,6.0,-9.0,65.0,-3.0,1
-252.0,68.0,2.0,-11.0,64.0,-3.0,1
-255.0,68.0,5.0,-15.0,61.0,-3.0,1
-251.0,64.0,7.0,-16.0,59.0,-2.0,1
-253.0,69.0,4.0,-14.0,61.0,-2.0,1
-251.0,67.0,3.0,-12.0,62.0,-2.0,1
-251.0,65.0,7.0,-12.0,58.0,-1.0,1
-252.0,68.0,5.0,-8.0,57.0,0.0,1
-251.0,67.0,3.0,-4.0,60.0,1.0,1
-252.0,67.0,2.0,0.0,62.0,0.0,1
-253.0,67.0,8.0,1.0,59.0,0.0,1
-249.0,68.0,7.0,0.0,58.0,2.0,1
-252.0,68.0,9.0,-2.0,56.0,-1.0,1
-252.0,68.0,8.0,-3.0,55.0,-1.0,1
-250.0,68.0,4.0,-4.0,56.0,-2.0,1
-252.0,67.0,5.0,0.0,61.0,-3.0,1
-253.0,68.0,2.0,1.0,63.0,-3.0,1
-255.0,70.0,8.0,-2.0,64.0,-4.0,1
-253.0,67.0,6.0,-1.0,65.0,-3.0,1
-252.0,65.0,5.0,0.0,67.0,-2.0,1
-248.0,64.0,-2.0,3.0,68.0,-1.0,1
-252.0,67.0,3.0,5.0,69.0,-3.0,1
-251.0,68.0,8.0,6.0,70.0,-2.0,1
-252.0,69.0,4.0,5.0,71.0,0.0,1
-249.0,63.0,6.0,5.0,71.0,3.0,1
-250.0,69.0,8.0,4.0,69.0,3.0,1
-252.0,67.0,4.0,2.0,71.0,3.0,1
-252.0,69.0,9.0,2.0,70.0,3.0,1
-253.0,70.0,6.0,1.0,69.0,1.0,1
-252.0,69.0,3.0,1.0,71.0,1.0,1
-252.0,69.0,3.0,2.0,72.0,1.0,1
-253.0,69.0,8.0,0.0,73.0,0.0,1
-253.0,68.0,5.0,0.0,75.0,-1.0,1
-252.0,70.0,5.0,0.0,74.0,-2.0,1
-253.0,67.0,7.0,-2.0,74.0,-3.0,1
-254.0,67.0,7.0,-4.0,74.0,-4.0,1
-254.0,68.0,4.0,-5.0,77.0,-2.0,1
-253.0,66.0,7.0,-7.0,77.0,-3.0,1
-253.0,65.0,4.0,-7.0,81.0,-1.0,1
-254.0,68.0,5.0,-7.0,81.0,-1.0,1
-255.0,67.0,6.0,-6.0,84.0,2.0,1
-252.0,70.0,0.0,-3.0,82.0,3.0,1
-253.0,66.0,0.0,3.0,78.0,5.0,1
-254.0,70.0,0.0,8.0,74.0,6.0,1
-252.0,67.0,1.0,9.0,70.0,6.0,1
-250.0,69.0,0.0,11.0,68.0,5.0,1
-251.0,71.0,3.0,12.0,66.0,6.0,1
-250.0,68.0,2.0,11.0,63.0,7.0,1
-250.0,68.0,1.0,10.0,58.0,6.0,1
-255.0,73.0,-3.0,10.0,56.0,6.0,1
-251.0,67.0,3.0,8.0,55.0,4.0,1
-250.0,71.0,4.0,6.0,52.0,3.0,1
-251.0,70.0,9.0,3.0,51.0,0.0,1
-249.0,71.0,3.0,1.0,54.0,0.0,1
-252.0,69.0,7.0,-3.0,55.0,-1.0,1
-251.0,71.0,2.0,-2.0,57.0,-7.0,1
-252.0,68.0,5.0,-6.0,57.0,-8.0,1
-250.0,67.0,6.0,-10.0,59.0,-8.0,1
-254.0,67.0,3.0,-10.0,67.0,-8.0,1
-255.0,69.0,6.0,-12.0,74.0,-6.0,1
-252.0,70.0,7.0,-15.0,78.0,-6.0,1
-252.0,66.0,2.0,-16.0,79.0,-6.0,1
-255.0,68.0,6.0,-17.0,78.0,-5.0,1
-252.0,68.0,5.0,-20.0,77.0,-6.0,1
-252.0,67.0,5.0,-19.0,76.0,-6.0,1
-252.0,69.0,5.0,-20.0,72.0,-3.0,1
-253.0,67.0,5.0,-20.0,68.0,-3.0,1
-256.0,70.0,3.0,-19.0,62.0,-5.0,1
-251.0,67.0,5.0,-21.0,54.0,-5.0,1
-255.0,71.0,5.0,-24.0,48.0,-4.0,1
-253.0,69.0,4.0,-23.0,49.0,-4.0,1
-253.0,69.0,6.0,-24.0,49.0,-3.0,1
-253.0,68.0,3.0,-22.0,49.0,-3.0,1
-251.0,68.0,6.0,-16.0,55.0,-5.0,1
-254.0,67.0,5.0,-13.0,60.0,-6.0,1
-252.0,69.0,4.0,-14.0,65.0,-7.0,1
-251.0,70.0,5.0,-20.0,67.0,-9.0,1
-251.0,68.0,6.0,-25.0,68.0,-8.0,1
-253.0,69.0,7.0,-29.0,66.0,-7.0,1
-254.0,70.0,4.0,-30.0,65.0,-5.0,1
-252.0,68.0,5.0,-31.0,67.0,-6.0,1
-253.0,64.0,5.0,-32.0,68.0,-6.0,1
-253.0,71.0,9.0,-35.0,69.0,-7.0,1
-251.0,67.0,8.0,-39.0,71.0,-7.0,1
-253.0,67.0,8.0,-43.0,73.0,-8.0,1
-244.0,68.0,6.0,-47.0,75.0,-8.0,1
-253.0,67.0,5.0,-48.0,77.0,-9.0,1
-252.0,70.0,7.0,-47.0,78.0,-12.0,1
-252.0,67.0,7.0,-45.0,80.0,-14.0,1
-251.0,66.0,6.0,-44.0,83.0,-15.0,1
-251.0,66.0,6.0,-42.0,87.0,-15.0,1
-252.0,66.0,5.0,-40.0,90.0,-15.0,1
-252.0,68.0,7.0,-37.0,91.0,-14.0,1
-254.0,69.0,4.0,-34.0,91.0,-14.0,1
-252.0,67.0,9.0,-31.0,94.0,-13.0,1
-251.0,67.0,7.0,-30.0,92.0,-10.0,1
-251.0,68.0,7.0,-29.0,91.0,-9.0,1
-253.0,67.0,6.0,-29.0,90.0,-8.0,1
-254.0,68.0,5.0,-29.0,90.0,-8.0,1
-251.0,66.0,8.0,-31.0,92.0,-8.0,1
-253.0,69.0,9.0,-31.0,91.0,-7.0,1
-251.0,65.0,6.0,-32.0,92.0,-7.0,1
-252.0,69.0,8.0,-31.0,96.0,-9.0,1
-253.0,66.0,8.0,-31.0,100.0,-10.0,1
-248.0,68.0,8.0,-33.0,102.0,-9.0,1
-254.0,67.0,6.0,-33.0,104.0,-10.0,1
-253.0,68.0,3.0,-32.0,107.0,-11.0,1
-252.0,65.0,10.0,-32.0,107.0,-10.0,1
-252.0,67.0,5.0,-29.0,112.0,-11.0,1
-252.0,68.0,2.0,-28.0,114.0,-11.0,1
-254.0,71.0,3.0,-27.0,115.0,-11.0,1
-253.0,66.0,3.0,-26.0,113.0,-11.0,1
-253.0,67.0,2.0,-27.0,111.0,-9.0,1
-252.0,67.0,6.0,-28.0,111.0,-9.0,1
-254.0,66.0,3.0,-24.0,113.0,-10.0,1
-253.0,67.0,4.0,-25.0,115.0,-10.0,1
-251.0,67.0,3.0,-28.0,111.0,-10.0,1
-253.0,69.0,6.0,-29.0,113.0,-10.0,1
-251.0,66.0,6.0,-29.0,113.0,-9.0,1
-251.0,66.0,3.0,-30.0,114.0,-10.0,1
-255.0,67.0,2.0,-29.0,115.0,-9.0,1
-253.0,66.0,2.0,-31.0,113.0,-11.0,1
-254.0,70.0,6.0,-33.0,109.0,-9.0,1
-250.0,65.0,5.0,-32.0,107.0,-8.0,1
-254.0,71.0,0.0,-30.0,107.0,-7.0,1
-247.0,65.0,8.0,-27.0,106.0,-6.0,1
-255.0,68.0,0.0,-27.0,105.0,-7.0,1
-252.0,66.0,1.0,-26.0,105.0,-5.0,1
-255.0,64.0,9.0,-29.0,103.0,-5.0,1
-253.0,69.0,4.0,-29.0,102.0,-3.0,1
-252.0,69.0,5.0,-29.0,101.0,-3.0,1
-254.0,67.0,4.0,-29.0,102.0,-3.0,1
-252.0,68.0,3.0,-28.0,106.0,-6.0,1
-254.0,68.0,1.0,-28.0,110.0,-4.0,1
-255.0,71.0,6.0,-32.0,110.0,-4.0,1
-251.0,70.0,3.0,-37.0,108.0,-4.0,1
-254.0,69.0,5.0,-39.0,108.0,-6.0,1
-253.0,66.0,3.0,-39.0,111.0,-5.0,1
-253.0,68.0,2.0,-41.0,110.0,-5.0,1
-254.0,67.0,2.0,-42.0,110.0,-3.0,1
-253.0,67.0,3.0,-46.0,106.0,-4.0,1
-255.0,69.0,0.0,-47.0,105.0,-3.0,1
-252.0,66.0,4.0,-44.0,107.0,-4.0,1
-254.0,66.0,-1.0,-38.0,113.0,-3.0,1
-251.0,63.0,3.0,-37.0,113.0,-3.0,1
-251.0,67.0,-1.0,-37.0,113.0,-3.0,1
-253.0,68.0,3.0,-37.0,111.0,-3.0,1
-254.0,68.0,3.0,-38.0,107.0,-2.0,1
-255.0,68.0,2.0,-36.0,105.0,-3.0,1
-251.0,68.0,6.0,-38.0,103.0,-1.0,1
-249.0,72.0,2.0,-36.0,103.0,0.0,1
-253.0,70.0,3.0,-35.0,101.0,0.0,1
-254.0,67.0,2.0,-38.0,99.0,-1.0,1
-252.0,65.0,2.0,-37.0,98.0,-1.0,1
-252.0,68.0,3.0,-37.0,98.0,-2.0,1
-255.0,71.0,4.0,-37.0,97.0,-3.0,1
-252.0,68.0,-1.0,-35.0,96.0,-4.0,1
-254.0,67.0,2.0,-34.0,96.0,-5.0,1
-252.0,67.0,2.0,-33.0,97.0,-6.0,1
-248.0,65.0,1.0,-34.0,95.0,-6.0,1
-251.0,64.0,1.0,-34.0,95.0,-8.0,1
-253.0,69.0,0.0,-35.0,92.0,-7.0,1
-252.0,68.0,0.0,-33.0,92.0,-8.0,1
-255.0,67.0,3.0,-30.0,97.0,-10.0,1
-254.0,68.0,0.0,-30.0,98.0,-10.0,1
-255.0,66.0,3.0,-30.0,97.0,-8.0,1
-253.0,67.0,5.0,-30.0,97.0,-9.0,1
-252.0,67.0,2.0,-26.0,101.0,-9.0,1
-253.0,68.0,2.0,-24.0,102.0,-9.0,1
-250.0,65.0,4.0,-25.0,103.0,-7.0,1
-255.0,66.0,3.0,-28.0,102.0,-4.0,1
-253.0,66.0,2.0,-30.0,101.0,-1.0,1
-251.0,68.0,2.0,-35.0,97.0,-1.0,1
-252.0,69.0,-3.0,-37.0,94.0,-2.0,1
-253.0,66.0,2.0,-38.0,93.0,0.0,1
-252.0,70.0,2.0,-37.0,93.0,-1.0,1
-254.0,67.0,1.0,-30.0,96.0,-3.0,1
-254.0,66.0,1.0,-24.0,101.0,-5.0,1
-251.0,67.0,1.0,-18.0,107.0,-6.0,1
-255.0,68.0,0.0,-12.0,113.0,-8.0,1
-256.0,70.0,0.0,-11.0,115.0,-5.0,1
-256.0,70.0,-1.0,-12.0,113.0,-2.0,1
-256.0,69.0,-1.0,-10.0,113.0,0.0,1
-256.0,66.0,0.0,-8.0,115.0,1.0,1
-254.0,69.0,-2.0,-4.0,120.0,5.0,1
-255.0,66.0,-2.0,0.0,127.0,6.0,1
-253.0,64.0,0.0,4.0,135.0,8.0,1
-257.0,67.0,-3.0,5.0,139.0,12.0,1
-254.0,66.0,-2.0,7.0,145.0,13.0,1
-252.0,66.0,0.0,12.0,151.0,14.0,1
-253.0,66.0,-3.0,15.0,157.0,14.0,1
-254.0,70.0,0.0,21.0,160.0,13.0,1
-253.0,71.0,-1.0,24.0,160.0,13.0,1
-251.0,70.0,2.0,24.0,159.0,14.0,1
-247.0,67.0,-1.0,20.0,154.0,14.0,1
-250.0,66.0,1.0,17.0,149.0,13.0,1
-249.0,70.0,-3.0,12.0,146.0,13.0,1
-251.0,70.0,-2.0,6.0,140.0,13.0,1
-252.0,66.0,1.0,0.0,132.0,13.0,1
-250.0,64.0,-2.0,-3.0,123.0,12.0,1
-250.0,69.0,0.0,-6.0,116.0,12.0,1
-251.0,68.0,-1.0,-7.0,109.0,11.0,1
-253.0,67.0,-1.0,-9.0,103.0,8.0,1
-251.0,69.0,-1.0,-7.0,101.0,5.0,1
-252.0,66.0,-4.0,-6.0,98.0,3.0,1
-254.0,69.0,1.0,-5.0,96.0,0.0,1
-250.0,68.0,2.0,-4.0,94.0,-1.0,1
-252.0,65.0,-1.0,-2.0,95.0,-2.0,1
-255.0,70.0,-3.0,-2.0,94.0,-4.0,1
-250.0,67.0,-4.0,-3.0,95.0,-3.0,1
-253.0,69.0,-3.0,-3.0,94.0,-2.0,1
-251.0,69.0,2.0,-6.0,92.0,-2.0,1
-254.0,69.0,-1.0,-9.0,92.0,-1.0,1
-251.0,68.0,0.0,-11.0,92.0,-1.0,1
-253.0,68.0,1.0,-12.0,92.0,-1.0,1
-251.0,67.0,12.0,-12.0,93.0,-2.0,1
-251.0,67.0,-1.0,-13.0,93.0,-3.0,1
-253.0,66.0,-5.0,-12.0,92.0,-3.0,1
-255.0,67.0,-4.0,-11.0,90.0,-2.0,1
-255.0,68.0,-2.0,-10.0,92.0,-3.0,1
-252.0,68.0,-3.0,-7.0,95.0,-5.0,1
-252.0,68.0,2.0,-6.0,96.0,-6.0,1
-252.0,67.0,-2.0,-9.0,94.0,-6.0,1
-254.0,67.0,-1.0,-10.0,93.0,-6.0,1
-255.0,69.0,1.0,-10.0,90.0,-5.0,1
-252.0,67.0,0.0,-10.0,87.0,-4.0,1
-253.0,68.0,-3.0,-12.0,85.0,-4.0,1
-253.0,66.0,-2.0,-9.0,81.0,-3.0,1
-254.0,69.0,-3.0,-11.0,80.0,-3.0,1
-251.0,68.0,-1.0,-10.0,77.0,-2.0,1
-253.0,69.0,-2.0,-12.0,76.0,-1.0,1
-251.0,68.0,0.0,-14.0,76.0,-2.0,1
-255.0,69.0,2.0,-15.0,78.0,-2.0,1
-253.0,66.0,-6.0,-18.0,79.0,-3.0,1
-254.0,70.0,-3.0,-22.0,77.0,-4.0,1
-252.0,68.0,-1.0,-24.0,77.0,-5.0,1
-254.0,70.0,-3.0,-28.0,76.0,-5.0,1
-250.0,69.0,0.0,-27.0,76.0,-5.0,1
-255.0,65.0,-5.0,-25.0,79.0,-6.0,1
-255.0,70.0,-4.0,-24.0,79.0,-5.0,1
-255.0,67.0,-2.0,-23.0,77.0,-4.0,1
-250.0,65.0,0.0,-21.0,75.0,-4.0,1
-253.0,67.0,-2.0,-19.0,76.0,-3.0,1
-254.0,66.0,-2.0,-16.0,73.0,-2.0,1
-251.0,68.0,-3.0,-15.0,73.0,0.0,1
-252.0,67.0,-3.0,-15.0,72.0,0.0,1
-252.0,67.0,0.0,-17.0,70.0,2.0,1
-252.0,70.0,2.0,-20.0,69.0,2.0,1
-249.0,70.0,0.0,-23.0,70.0,4.0,1
-248.0,69.0,-4.0,-27.0,72.0,4.0,1
-253.0,68.0,-1.0,-30.0,74.0,2.0,1
-253.0,68.0,-1.0,-37.0,74.0,2.0,1
-253.0,70.0,0.0,-44.0,74.0,1.0,1
-250.0,66.0,-3.0,-46.0,74.0,0.0,1
-254.0,70.0,-1.0,-46.0,76.0,-1.0,1
-253.0,68.0,-4.0,-42.0,80.0,-2.0,1
-253.0,70.0,3.0,-38.0,84.0,-3.0,1
-253.0,68.0,-3.0,-34.0,87.0,-3.0,1
-248.0,65.0,-2.0,-27.0,89.0,-4.0,1
-246.0,70.0,-2.0,-22.0,92.0,-4.0,1
-252.0,67.0,-3.0,-17.0,94.0,-2.0,1
-253.0,67.0,0.0,-12.0,94.0,-1.0,1
-254.0,66.0,-2.0,-11.0,91.0,-1.0,1
-251.0,66.0,-2.0,-7.0,89.0,0.0,1
-250.0,67.0,-5.0,-1.0,88.0,2.0,1
-254.0,68.0,-2.0,5.0,87.0,2.0,1
-253.0,67.0,-3.0,7.0,84.0,5.0,1
-253.0,70.0,-4.0,10.0,81.0,3.0,1
-250.0,66.0,-4.0,12.0,79.0,3.0,1
-250.0,67.0,-2.0,12.0,77.0,1.0,1
-253.0,67.0,-6.0,15.0,75.0,1.0,1
-252.0,66.0,-3.0,16.0,73.0,1.0,1
-254.0,68.0,-4.0,18.0,70.0,1.0,1
-255.0,69.0,-6.0,17.0,69.0,-2.0,1
-253.0,70.0,-4.0,17.0,67.0,-1.0,1
-254.0,70.0,-6.0,15.0,65.0,-1.0,1
-251.0,67.0,-3.0,15.0,64.0,-2.0,1
