ax,ay,az,gx,gy,gz,label
-3.0,-229.0,51.0,-194.0,500.0,-177.0,1
-7.0,-232.0,54.0,-183.0,498.0,-180.0,1
-1.0,-232.0,57.0,-174.0,496.0,-185.0,1
0.0,-229.0,50.0,-169.0,490.0,-188.0,1
1.0,-233.0,48.0,-165.0,486.0,-189.0,1
-4.0,-225.0,53.0,-164.0,479.0,-186.0,1
-7.0,-222.0,51.0,-166.0,464.0,-183.0,1
-10.0,-224.0,49.0,-170.0,448.0,-172.0,1
-13.0,-221.0,48.0,-171.0,427.0,-162.0,1
-18.0,-220.0,48.0,-176.0,406.0,-150.0,1
-19.0,-219.0,46.0,-181.0,383.0,-136.0,1
-19.0,-220.0,51.0,-189.0,360.0,-119.0,1
-20.0,-217.0,45.0,-195.0,340.0,-104.0,1
-24.0,-213.0,43.0,-206.0,322.0,-90.0,1
-22.0,-214.0,41.0,-218.0,304.0,-75.0,1
-19.0,-215.0,51.0,-235.0,287.0,-62.0,1
-20.0,-207.0,37.0,-252.0,275.0,-50.0,1
-20.0,-208.0,38.0,-271.0,267.0,-36.0,1
-16.0,-209.0,41.0,-289.0,260.0,-24.0,1
-18.0,-207.0,37.0,-301.0,256.0,-13.0,1
-15.0,-209.0,38.0,-312.0,252.0,-3.0,1
-6.0,-217.0,42.0,-319.0,246.0,4.0,1
-5.0,-220.0,45.0,-323.0,240.0,9.0,1
-1.0,-228.0,49.0,-327.0,235.0,8.0,1
5.0,-240.0,51.0,-326.0,233.0,8.0,1
10.0,-244.0,62.0,-324.0,232.0,1.0,1
14.0,-258.0,60.0,-320.0,234.0,-9.0,1
19.0,-265.0,69.0,-308.0,244.0,-23.0,1
21.0,-270.0,68.0,-293.0,258.0,-42.0,1
25.0,-279.0,68.0,-276.0,280.0,-65.0,1
29.0,-283.0,72.0,-254.0,307.0,-91.0,1
32.0,-290.0,64.0,-227.0,340.0,-118.0,1
37.0,-289.0,61.0,-199.0,378.0,-148.0,1
40.0,-288.0,55.0,-178.0,424.0,-179.0,1
39.0,-279.0,55.0,-158.0,470.0,-206.0,1
44.0,-278.0,50.0,-137.0,517.0,-233.0,1
43.0,-268.0,42.0,-119.0,566.0,-255.0,1
39.0,-259.0,33.0,-102.0,619.0,-273.0,1
37.0,-253.0,38.0,-85.0,667.0,-283.0,1
37.0,-245.0,32.0,-69.0,709.0,-287.0,1
32.0,-242.0,33.0,-54.0,751.0,-289.0,1
28.0,-235.0,34.0,-40.0,791.0,-286.0,1
26.0,-229.0,33.0,-25.0,828.0,-280.0,1
23.0,-224.0,29.0,-16.0,861.0,-273.0,1
21.0,-220.0,38.0,-11.0,896.0,-268.0,1
17.0,-219.0,34.0,-13.0,928.0,-263.0,1
13.0,-221.0,38.0,-13.0,954.0,-262.0,1
11.0,-224.0,36.0,-18.0,973.0,-262.0,1
6.0,-223.0,31.0,-21.0,985.0,-267.0,1
0.0,-217.0,41.0,-29.0,993.0,-273.0,1
3.0,-216.0,36.0,-35.0,994.0,-279.0,1
-1.0,-218.0,41.0,-42.0,993.0,-285.0,1
-8.0,-210.0,41.0,-45.0,988.0,-289.0,1
-7.0,-213.0,44.0,-50.0,978.0,-291.0,1
-16.0,-213.0,49.0,-52.0,965.0,-289.0,1
-17.0,-213.0,52.0,-57.0,948.0,-280.0,1
-19.0,-214.0,55.0,-60.0,930.0,-268.0,1
-20.0,-214.0,58.0,-67.0,911.0,-252.0,1
-19.0,-221.0,58.0,-74.0,891.0,-232.0,1
-17.0,-225.0,62.0,-74.0,874.0,-212.0,1
-19.0,-225.0,61.0,-75.0,859.0,-194.0,1
-19.0,-225.0,65.0,-73.0,841.0,-172.0,1
-19.0,-227.0,64.0,-70.0,817.0,-155.0,1
-14.0,-232.0,65.0,-68.0,793.0,-136.0,1
-14.0,-241.0,68.0,-61.0,766.0,-122.0,1
-12.0,-245.0,74.0,-55.0,736.0,-108.0,1
-12.0,-254.0,76.0,-42.0,702.0,-97.0,1
-14.0,-256.0,84.0,-24.0,660.0,-85.0,1
-17.0,-262.0,98.0,6.0,616.0,-77.0,1
-15.0,-264.0,103.0,47.0,567.0,-66.0,1
-5.0,-271.0,100.0,83.0,519.0,-54.0,1
-16.0,-273.0,101.0,114.0,471.0,-40.0,1
-15.0,-265.0,105.0,143.0,428.0,-29.0,1
-16.0,-269.0,100.0,171.0,396.0,-22.0,1
-13.0,-267.0,98.0,194.0,365.0,-14.0,1
-17.0,-260.0,94.0,211.0,337.0,-9.0,1
-11.0,-255.0,93.0,225.0,309.0,-6.0,1
-10.0,-247.0,91.0,235.0,288.0,-5.0,1
-3.0,-247.0,94.0,244.0,272.0,-4.0,1
-5.0,-244.0,85.0,253.0,261.0,-9.0,1
-4.0,-231.0,90.0,259.0,255.0,-18.0,1
5.0,-232.0,83.0,262.0,255.0,-26.0,1
8.0,-228.0,83.0,259.0,258.0,-39.0,1
7.0,-227.0,81.0,251.0,262.0,-51.0,1
13.0,-224.0,79.0,239.0,266.0,-64.0,1
13.0,-226.0,78.0,224.0,272.0,-78.0,1
13.0,-226.0,77.0,201.0,281.0,-94.0,1
13.0,-223.0,79.0,177.0,291.0,-108.0,1
13.0,-227.0,78.0,150.0,300.0,-122.0,1
15.0,-225.0,78.0,124.0,301.0,-132.0,1
12.0,-226.0,77.0,100.0,302.0,-142.0,1
7.0,-223.0,75.0,80.0,296.0,-145.0,1
9.0,-221.0,73.0,60.0,288.0,-147.0,1
8.0,-220.0,72.0,37.0,276.0,-147.0,1
9.0,-221.0,72.0,15.0,267.0,-146.0,1
5.0,-217.0,68.0,-6.0,256.0,-145.0,1
9.0,-219.0,70.0,-28.0,252.0,-145.0,1
8.0,-220.0,67.0,-44.0,244.0,-144.0,1
12.0,-217.0,68.0,-58.0,239.0,-143.0,1
18.0,-222.0,64.0,-71.0,231.0,-145.0,1
18.0,-218.0,63.0,-87.0,228.0,-152.0,1
15.0,-219.0,61.0,-105.0,226.0,-155.0,1
26.0,-218.0,60.0,-122.0,229.0,-162.0,1
26.0,-222.0,62.0,-140.0,230.0,-169.0,1
30.0,-227.0,61.0,-156.0,230.0,-176.0,1
27.0,-224.0,56.0,-167.0,227.0,-180.0,1
31.0,-227.0,57.0,-177.0,227.0,-183.0,1
31.0,-226.0,54.0,-181.0,228.0,-185.0,1
31.0,-226.0,60.0,-182.0,229.0,-185.0,1
30.0,-224.0,55.0,-179.0,231.0,-184.0,1
29.0,-219.0,58.0,-172.0,232.0,-184.0,1
31.0,-218.0,61.0,-162.0,230.0,-182.0,1
27.0,-217.0,61.0,-154.0,228.0,-180.0,1
27.0,-217.0,63.0,-149.0,224.0,-178.0,1
24.0,-214.0,64.0,-143.0,219.0,-176.0,1
26.0,-215.0,59.0,-139.0,218.0,-173.0,1
26.0,-216.0,62.0,-138.0,215.0,-171.0,1
21.0,-212.0,59.0,-138.0,212.0,-168.0,1
25.0,-214.0,62.0,-138.0,211.0,-163.0,1
20.0,-216.0,63.0,-140.0,210.0,-160.0,1
21.0,-216.0,65.0,-146.0,209.0,-157.0,1
20.0,-217.0,61.0,-151.0,211.0,-154.0,1
23.0,-220.0,64.0,-156.0,216.0,-149.0,1
20.0,-215.0,72.0,-162.0,222.0,-150.0,1
20.0,-222.0,68.0,-166.0,229.0,-146.0,1
23.0,-218.0,65.0,-166.0,239.0,-142.0,1
29.0,-218.0,69.0,-170.0,250.0,-139.0,1
27.0,-217.0,68.0,-166.0,262.0,-135.0,1
31.0,-218.0,73.0,-163.0,272.0,-131.0,1
33.0,-216.0,73.0,-159.0,278.0,-126.0,1
33.0,-217.0,73.0,-158.0,286.0,-122.0,1
35.0,-216.0,76.0,-156.0,290.0,-118.0,1
36.0,-216.0,77.0,-153.0,294.0,-114.0,1
42.0,-217.0,76.0,-153.0,299.0,-112.0,1
40.0,-213.0,74.0,-152.0,305.0,-110.0,1
46.0,-211.0,71.0,-150.0,313.0,-110.0,1
42.0,-216.0,78.0,-148.0,321.0,-110.0,1
41.0,-220.0,77.0,-143.0,329.0,-111.0,1
43.0,-220.0,77.0,-138.0,336.0,-110.0,1
42.0,-221.0,82.0,-135.0,342.0,-108.0,1
40.0,-225.0,83.0,-135.0,343.0,-106.0,1
36.0,-228.0,85.0,-132.0,342.0,-102.0,1
37.0,-228.0,88.0,-125.0,339.0,-100.0,1
34.0,-229.0,86.0,-117.0,338.0,-96.0,1
33.0,-226.0,91.0,-106.0,333.0,-94.0,1
37.0,-227.0,91.0,-93.0,329.0,-94.0,1
35.0,-230.0,97.0,-81.0,326.0,-95.0,1
35.0,-232.0,95.0,-63.0,322.0,-98.0,1
35.0,-234.0,98.0,-40.0,317.0,-102.0,1
35.0,-231.0,99.0,-15.0,312.0,-106.0,1
38.0,-232.0,98.0,11.0,303.0,-112.0,1
40.0,-234.0,103.0,38.0,297.0,-117.0,1
39.0,-228.0,107.0,61.0,292.0,-121.0,1
41.0,-227.0,111.0,83.0,285.0,-127.0,1
43.0,-228.0,117.0,101.0,280.0,-129.0,1
43.0,-226.0,116.0,125.0,274.0,-133.0,1
42.0,-224.0,118.0,146.0,270.0,-138.0,1
49.0,-226.0,114.0,165.0,268.0,-142.0,1
45.0,-221.0,106.0,181.0,265.0,-147.0,1
43.0,-218.0,101.0,189.0,266.0,-149.0,1
47.0,-221.0,92.0,185.0,272.0,-150.0,1
51.0,-224.0,85.0,165.0,286.0,-153.0,1
59.0,-236.0,84.0,128.0,306.0,-163.0,1
68.0,-245.0,82.0,77.0,330.0,-179.0,1
66.0,-249.0,78.0,18.0,352.0,-204.0,1
75.0,-258.0,80.0,-40.0,368.0,-234.0,1
68.0,-272.0,79.0,-82.0,372.0,-264.0,1
59.0,-288.0,91.0,-107.0,364.0,-294.0,1
56.0,-300.0,94.0,-114.0,349.0,-323.0,1
49.0,-310.0,104.0,-108.0,339.0,-353.0,1
34.0,-323.0,109.0,-90.0,335.0,-383.0,1
23.0,-332.0,109.0,-70.0,331.0,-411.0,1
11.0,-337.0,113.0,-47.0,337.0,-440.0,1
-2.0,-333.0,108.0,-9.0,350.0,-467.0,1
-11.0,-325.0,104.0,50.0,367.0,-483.0,1
-18.0,-321.0,104.0,125.0,380.0,-485.0,1
-26.0,-308.0,93.0,212.0,387.0,-474.0,1
-31.0,-293.0,82.0,294.0,389.0,-453.0,1
-34.0,-277.0,73.0,354.0,379.0,-424.0,1
-36.0,-261.0,68.0,384.0,364.0,-388.0,1
-36.0,-250.0,66.0,391.0,345.0,-347.0,1
-34.0,-243.0,59.0,372.0,316.0,-305.0,1
-28.0,-239.0,55.0,332.0,278.0,-265.0,1
-21.0,-239.0,53.0,277.0,237.0,-233.0,1
-16.0,-235.0,50.0,221.0,194.0,-207.0,1
-8.0,-234.0,42.0,159.0,152.0,-191.0,1
5.0,-233.0,35.0,99.0,120.0,-181.0,1
12.0,-231.0,27.0,34.0,100.0,-175.0,1
18.0,-229.0,19.0,-28.0,91.0,-174.0,1
20.0,-221.0,11.0,-89.0,98.0,-176.0,1
28.0,-216.0,5.0,-129.0,126.0,-181.0,1
27.0,-215.0,-2.0,-165.0,160.0,-185.0,1
29.0,-211.0,-6.0,-195.0,194.0,-190.0,1
26.0,-204.0,-12.0,-221.0,225.0,-192.0,1
22.0,-201.0,-16.0,-245.0,249.0,-191.0,1
16.0,-193.0,-19.0,-271.0,258.0,-185.0,1
11.0,-191.0,-21.0,-293.0,258.0,-174.0,1
3.0,-184.0,-26.0,-311.0,247.0,-163.0,1
-2.0,-181.0,-29.0,-332.0,236.0,-153.0,1
-12.0,-175.0,-27.0,-348.0,218.0,-146.0,1
-21.0,-173.0,-25.0,-362.0,193.0,-135.0,1
-27.0,-173.0,-30.0,-381.0,152.0,-125.0,1
-36.0,-176.0,-29.0,-394.0,107.0,-114.0,1
-49.0,-179.0,-31.0,-404.0,61.0,-101.0,1
-60.0,-185.0,-24.0,-417.0,10.0,-88.0,1
-64.0,-203.0,-17.0,-426.0,-44.0,-67.0,1
-72.0,-214.0,-4.0,-425.0,-90.0,-47.0,1
-79.0,-228.0,3.0,-413.0,-132.0,-26.0,1
-82.0,-241.0,15.0,-391.0,-171.0,-4.0,1
-83.0,-249.0,23.0,-363.0,-203.0,18.0,1
-80.0,-263.0,26.0,-329.0,-225.0,36.0,1
-85.0,-272.0,32.0,-291.0,-238.0,52.0,1
-75.0,-281.0,38.0,-251.0,-250.0,63.0,1
-72.0,-284.0,41.0,-214.0,-262.0,69.0,1
-61.0,-294.0,47.0,-179.0,-276.0,74.0,1
-54.0,-296.0,49.0,-141.0,-286.0,77.0,1
-40.0,-299.0,53.0,-101.0,-291.0,78.0,1
-29.0,-298.0,48.0,-59.0,-288.0,74.0,1
-20.0,-289.0,48.0,-19.0,-281.0,72.0,1
-13.0,-281.0,45.0,20.0,-281.0,72.0,1
-7.0,-272.0,43.0,49.0,-286.0,74.0,1
-1.0,-267.0,45.0,68.0,-292.0,76.0,1
10.0,-253.0,35.0,81.0,-303.0,82.0,1
9.0,-244.0,34.0,89.0,-317.0,88.0,1
14.0,-233.0,30.0,95.0,-332.0,95.0,1
14.0,-225.0,29.0,89.0,-341.0,100.0,1
11.0,-215.0,27.0,76.0,-354.0,105.0,1
10.0,-209.0,31.0,58.0,-364.0,118.0,1
8.0,-200.0,34.0,37.0,-371.0,131.0,1
6.0,-201.0,33.0,11.0,-375.0,148.0,1
5.0,-202.0,38.0,-16.0,-376.0,166.0,1
3.0,-199.0,37.0,-43.0,-380.0,186.0,1
-2.0,-206.0,37.0,-69.0,-377.0,207.0,1
-1.0,-204.0,50.0,-93.0,-370.0,228.0,1
0.0,-206.0,51.0,-116.0,-363.0,248.0,1
5.0,-216.0,62.0,-140.0,-348.0,268.0,1
0.0,-219.0,67.0,-165.0,-332.0,286.0,1
-1.0,-220.0,72.0,-182.0,-322.0,297.0,1
2.0,-224.0,73.0,-197.0,-314.0,309.0,1
4.0,-224.0,73.0,-210.0,-307.0,317.0,1
-1.0,-225.0,76.0,-219.0,-302.0,325.0,1
7.0,-228.0,74.0,-224.0,-294.0,331.0,1
12.0,-229.0,69.0,-234.0,-279.0,332.0,1
17.0,-223.0,80.0,-242.0,-268.0,332.0,1
18.0,-222.0,71.0,-247.0,-253.0,329.0,1
21.0,-222.0,70.0,-250.0,-228.0,324.0,1
25.0,-221.0,72.0,-249.0,-202.0,319.0,1
31.0,-217.0,73.0,-241.0,-168.0,312.0,1
30.0,-215.0,74.0,-233.0,-127.0,303.0,1
36.0,-213.0,66.0,-225.0,-84.0,294.0,1
29.0,-208.0,72.0,-217.0,-35.0,281.0,1
37.0,-209.0,74.0,-215.0,11.0,270.0,1
34.0,-203.0,72.0,-215.0,51.0,259.0,1
38.0,-204.0,73.0,-211.0,87.0,249.0,1
31.0,-199.0,65.0,-201.0,120.0,234.0,1
42.0,-201.0,66.0,-199.0,157.0,218.0,1
36.0,-201.0,69.0,-200.0,200.0,202.0,1
36.0,-199.0,75.0,-205.0,234.0,186.0,1
36.0,-198.0,73.0,-208.0,262.0,170.0,1
40.0,-191.0,71.0,-222.0,293.0,152.0,1
33.0,-188.0,74.0,-244.0,338.0,131.0,1
31.0,-186.0,74.0,-271.0,378.0,113.0,1
36.0,-182.0,72.0,-299.0,420.0,99.0,1
33.0,-185.0,71.0,-340.0,462.0,87.0,1
29.0,-187.0,73.0,-384.0,489.0,78.0,1
37.0,-193.0,74.0,-415.0,507.0,72.0,1
33.0,-203.0,73.0,-434.0,519.0,68.0,1
30.0,-213.0,77.0,-442.0,529.0,60.0,1
29.0,-222.0,81.0,-436.0,534.0,51.0,1
26.0,-236.0,88.0,-415.0,533.0,39.0,1
26.0,-242.0,93.0,-379.0,524.0,24.0,1
26.0,-246.0,97.0,-327.0,516.0,6.0,1
22.0,-251.0,101.0,-264.0,515.0,-19.0,1
15.0,-248.0,102.0,-191.0,510.0,-47.0,1
17.0,-247.0,105.0,-110.0,498.0,-72.0,1
10.0,-241.0,106.0,-28.0,481.0,-98.0,1
10.0,-242.0,102.0,55.0,464.0,-120.0,1
16.0,-239.0,99.0,130.0,450.0,-141.0,1
10.0,-232.0,105.0,195.0,450.0,-161.0,1
10.0,-230.0,106.0,251.0,464.0,-179.0,1
5.0,-234.0,100.0,291.0,491.0,-197.0,1
0.0,-236.0,102.0,316.0,519.0,-213.0,1
-12.0,-241.0,100.0,328.0,537.0,-225.0,1
-25.0,-249.0,100.0,322.0,537.0,-222.0,1
-42.0,-267.0,98.0,305.0,511.0,-203.0,1
-66.0,-285.0,99.0,282.0,468.0,-170.0,1
-82.0,-306.0,95.0,251.0,414.0,-119.0,1
-87.0,-331.0,98.0,217.0,361.0,-52.0,1
-101.0,-351.0,89.0,172.0,301.0,27.0,1
-109.0,-373.0,83.0,119.0,244.0,117.0,1
-110.0,-394.0,77.0,63.0,192.0,210.0,1
-93.0,-417.0,72.0,3.0,142.0,303.0,1
-75.0,-424.0,74.0,-44.0,104.0,381.0,1
-44.0,-424.0,70.0,-58.0,73.0,430.0,1
-18.0,-419.0,61.0,-41.0,48.0,446.0,1
4.0,-403.0,61.0,15.0,17.0,432.0,1
25.0,-380.0,49.0,103.0,-30.0,388.0,1
34.0,-358.0,33.0,218.0,-95.0,328.0,1
44.0,-332.0,22.0,347.0,-157.0,272.0,1
51.0,-306.0,13.0,474.0,-196.0,225.0,1
50.0,-275.0,8.0,569.0,-207.0,192.0,1
47.0,-246.0,-6.0,625.0,-185.0,163.0,1
49.0,-224.0,-14.0,640.0,-134.0,137.0,1
43.0,-208.0,-16.0,619.0,-49.0,111.0,1
36.0,-190.0,-24.0,570.0,71.0,87.0,1
26.0,-183.0,-28.0,502.0,219.0,65.0,1
19.0,-178.0,-32.0,420.0,385.0,41.0,1
8.0,-168.0,-32.0,333.0,551.0,17.0,1
6.0,-172.0,-36.0,249.0,704.0,-8.0,1
-2.0,-171.0,-32.0,171.0,830.0,-35.0,1
0.0,-175.0,-29.0,113.0,919.0,-56.0,1
-4.0,-180.0,-25.0,67.0,976.0,-74.0,1
-5.0,-195.0,-24.0,22.0,1004.0,-89.0,1
-9.0,-209.0,-13.0,-19.0,1007.0,-105.0,1
-11.0,-227.0,1.0,-52.0,995.0,-120.0,1
-14.0,-243.0,10.0,-80.0,970.0,-132.0,1
-18.0,-251.0,18.0,-93.0,940.0,-146.0,1
-20.0,-259.0,26.0,-92.0,899.0,-165.0,1
-24.0,-264.0,34.0,-71.0,848.0,-182.0,1
-33.0,-258.0,34.0,-39.0,788.0,-200.0,1
-36.0,-252.0,32.0,0.0,725.0,-218.0,1
-40.0,-245.0,32.0,35.0,660.0,-236.0,1
-42.0,-239.0,27.0,59.0,597.0,-253.0,1
-44.0,-235.0,27.0,75.0,532.0,-265.0,1
-45.0,-231.0,28.0,80.0,477.0,-276.0,1
-49.0,-233.0,25.0,71.0,429.0,-283.0,1
-53.0,-232.0,26.0,60.0,390.0,-287.0,1
-53.0,-233.0,23.0,48.0,354.0,-286.0,1
-49.0,-228.0,27.0,34.0,316.0,-285.0,1
-44.0,-231.0,28.0,24.0,285.0,-282.0,1
-45.0,-229.0,24.0,25.0,266.0,-276.0,1
-40.0,-224.0,21.0,36.0,244.0,-265.0,1
-36.0,-215.0,18.0,41.0,227.0,-252.0,1
-31.0,-206.0,15.0,36.0,211.0,-238.0,1
-33.0,-199.0,16.0,31.0,190.0,-222.0,1
-24.0,-196.0,17.0,24.0,168.0,-208.0,1
-20.0,-191.0,22.0,22.0,152.0,-197.0,1
-20.0,-183.0,21.0,17.0,136.0,-192.0,1
-19.0,-180.0,20.0,10.0,127.0,-192.0,1
-16.0,-179.0,28.0,-2.0,121.0,-196.0,1
-17.0,-177.0,18.0,-22.0,123.0,-202.0,1
-13.0,-175.0,29.0,-49.0,130.0,-210.0,1
-19.0,-176.0,24.0,-73.0,138.0,-218.0,1
-17.0,-176.0,22.0,-101.0,149.0,-224.0,1
-19.0,-181.0,25.0,-129.0,157.0,-231.0,1
-20.0,-183.0,30.0,-151.0,157.0,-236.0,1
-21.0,-189.0,29.0,-167.0,144.0,-243.0,1
-20.0,-195.0,34.0,-176.0,130.0,-235.0,1
-20.0,-199.0,38.0,-180.0,117.0,-226.0,1
-20.0,-202.0,39.0,-180.0,105.0,-215.0,1
-18.0,-209.0,41.0,-177.0,91.0,-202.0,1
-15.0,-207.0,51.0,-175.0,76.0,-187.0,1
-12.0,-210.0,52.0,-173.0,59.0,-171.0,1
-10.0,-210.0,54.0,-177.0,39.0,-152.0,1
-6.0,-209.0,59.0,-179.0,15.0,-129.0,1
-5.0,-210.0,64.0,-175.0,-13.0,-110.0,1
5.0,-210.0,65.0,-170.0,-42.0,-94.0,1
4.0,-207.0,69.0,-165.0,-70.0,-78.0,1
4.0,-203.0,72.0,-158.0,-100.0,-65.0,1
7.0,-203.0,73.0,-152.0,-120.0,-51.0,1
9.0,-209.0,75.0,-148.0,-142.0,-43.0,1
8.0,-204.0,79.0,-142.0,-156.0,-34.0,1
13.0,-208.0,82.0,-133.0,-166.0,-25.0,1
1.0,-199.0,84.0,-122.0,-168.0,-16.0,1
6.0,-205.0,87.0,-109.0,-170.0,-8.0,1
-2.0,-200.0,83.0,-98.0,-174.0,0.0,1
-1.0,-200.0,81.0,-91.0,-174.0,7.0,1
-6.0,-197.0,80.0,-93.0,-175.0,19.0,1
-7.0,-192.0,79.0,-102.0,-179.0,30.0,1
-10.0,-190.0,79.0,-121.0,-180.0,44.0,1
-10.0,-188.0,79.0,-149.0,-182.0,56.0,1
-11.0,-197.0,78.0,-185.0,-180.0,70.0,1
-9.0,-201.0,76.0,-220.0,-183.0,83.0,1
-20.0,-210.0,77.0,-253.0,-193.0,96.0,1
-13.0,-220.0,76.0,-272.0,-207.0,115.0,1
-19.0,-229.0,78.0,-285.0,-225.0,135.0,1
-22.0,-240.0,85.0,-298.0,-241.0,158.0,1
-20.0,-250.0,94.0,-315.0,-257.0,181.0,1
-22.0,-263.0,104.0,-325.0,-284.0,205.0,1
-23.0,-271.0,102.0,-309.0,-313.0,229.0,1
-23.0,-280.0,110.0,-267.0,-344.0,245.0,1
-23.0,-282.0,118.0,-207.0,-377.0,263.0,1
-26.0,-282.0,118.0,-123.0,-421.0,274.0,1
-17.0,-287.0,129.0,-39.0,-468.0,280.0,1
-18.0,-283.0,134.0,47.0,-514.0,282.0,1
-14.0,-283.0,139.0,129.0,-557.0,278.0,1
-5.0,-277.0,142.0,204.0,-587.0,265.0,1
6.0,-270.0,146.0,275.0,-608.0,249.0,1
18.0,-266.0,150.0,339.0,-612.0,225.0,1
31.0,-258.0,156.0,394.0,-605.0,199.0,1
40.0,-248.0,159.0,444.0,-584.0,166.0,1
52.0,-244.0,160.0,483.0,-555.0,132.0,1
58.0,-236.0,158.0,509.0,-524.0,96.0,1
65.0,-229.0,157.0,527.0,-490.0,60.0,1
68.0,-221.0,146.0,530.0,-455.0,31.0,1
71.0,-221.0,134.0,523.0,-420.0,4.0,1
69.0,-218.0,122.0,502.0,-387.0,-21.0,1
63.0,-229.0,105.0,463.0,-364.0,-42.0,1
62.0,-249.0,94.0,411.0,-346.0,-56.0,1
57.0,-277.0,79.0,342.0,-330.0,-74.0,1
52.0,-303.0,72.0,255.0,-305.0,-100.0,1
46.0,-325.0,65.0,147.0,-264.0,-143.0,1
43.0,-342.0,49.0,22.0,-212.0,-202.0,1
40.0,-349.0,51.0,-95.0,-151.0,-273.0,1
35.0,-353.0,56.0,-164.0,-87.0,-343.0,1
28.0,-353.0,54.0,-160.0,-34.0,-400.0,1
14.0,-353.0,43.0,-105.0,-4.0,-438.0,1
-3.0,-351.0,43.0,-15.0,11.0,-450.0,1
-15.0,-351.0,33.0,93.0,19.0,-437.0,1
-29.0,-343.0,22.0,193.0,22.0,-409.0,1
-39.0,-338.0,7.0,264.0,11.0,-373.0,1
-48.0,-324.0,-9.0,309.0,-7.0,-340.0,1
-62.0,-313.0,-13.0,328.0,-43.0,-309.0,1
-79.0,-303.0,-22.0,334.0,-104.0,-279.0,1
-86.0,-286.0,-26.0,342.0,-195.0,-246.0,1
-92.0,-270.0,-37.0,358.0,-305.0,-212.0,1
-99.0,-251.0,-34.0,373.0,-420.0,-178.0,1
-94.0,-235.0,-42.0,379.0,-531.0,-148.0,1
-91.0,-222.0,-44.0,383.0,-646.0,-117.0,1
-84.0,-213.0,-39.0,381.0,-758.0,-94.0,1
-70.0,-205.0,-38.0,369.0,-857.0,-79.0,1
-60.0,-203.0,-40.0,344.0,-925.0,-71.0,1
-53.0,-201.0,-33.0,297.0,-958.0,-75.0,1
-46.0,-206.0,-26.0,225.0,-954.0,-82.0,1
-35.0,-215.0,-13.0,132.0,-921.0,-92.0,1
-32.0,-230.0,0.0,41.0,-874.0,-99.0,1
-16.0,-238.0,12.0,-33.0,-826.0,-101.0,1
-13.0,-240.0,18.0,-91.0,-777.0,-97.0,1
0.0,-244.0,23.0,-135.0,-737.0,-83.0,1
9.0,-247.0,29.0,-161.0,-702.0,-64.0,1
20.0,-247.0,25.0,-171.0,-672.0,-37.0,1
32.0,-244.0,30.0,-176.0,-638.0,-9.0,1
36.0,-246.0,29.0,-183.0,-594.0,15.0,1
43.0,-244.0,32.0,-186.0,-538.0,35.0,1
45.0,-242.0,28.0,-196.0,-475.0,54.0,1
53.0,-239.0,36.0,-206.0,-403.0,67.0,1
55.0,-239.0,38.0,-214.0,-329.0,75.0,1
61.0,-236.0,34.0,-213.0,-259.0,79.0,1
66.0,-226.0,36.0,-206.0,-194.0,79.0,1
64.0,-233.0,29.0,-198.0,-136.0,76.0,1
60.0,-231.0,29.0,-198.0,-88.0,70.0,1
55.0,-225.0,32.0,-194.0,-44.0,62.0,1
54.0,-222.0,29.0,-189.0,-9.0,52.0,1
45.0,-215.0,24.0,-189.0,26.0,44.0,1
40.0,-209.0,25.0,-200.0,65.0,34.0,1
29.0,-205.0,20.0,-200.0,106.0,30.0,1
19.0,-202.0,19.0,-190.0,146.0,31.0,1
7.0,-201.0,32.0,-178.0,183.0,33.0,1
3.0,-197.0,39.0,-161.0,210.0,35.0,1
4.0,-192.0,35.0,-138.0,224.0,35.0,1
5.0,-189.0,34.0,-126.0,235.0,31.0,1
4.0,-185.0,45.0,-125.0,245.0,31.0,1
6.0,-187.0,39.0,-131.0,254.0,36.0,1
11.0,-184.0,43.0,-143.0,264.0,43.0,1
11.0,-186.0,42.0,-157.0,280.0,52.0,1
16.0,-185.0,46.0,-171.0,300.0,57.0,1
23.0,-186.0,48.0,-174.0,322.0,60.0,1
26.0,-184.0,50.0,-170.0,348.0,62.0,1
27.0,-182.0,48.0,-165.0,374.0,64.0,1
34.0,-182.0,49.0,-160.0,404.0,61.0,1
31.0,-184.0,49.0,-159.0,437.0,52.0,1
40.0,-184.0,53.0,-157.0,468.0,40.0,1
40.0,-186.0,56.0,-154.0,511.0,19.0,1
37.0,-183.0,54.0,-144.0,553.0,-1.0,1
33.0,-185.0,53.0,-139.0,598.0,-22.0,1
28.0,-185.0,59.0,-130.0,648.0,-46.0,1
23.0,-185.0,63.0,-120.0,691.0,-67.0,1
20.0,-186.0,61.0,-105.0,730.0,-85.0,1
12.0,-186.0,64.0,-91.0,770.0,-102.0,1
7.0,-186.0,69.0,-71.0,803.0,-116.0,1
-1.0,-181.0,65.0,-47.0,828.0,-127.0,1
-2.0,-179.0,67.0,-23.0,845.0,-138.0,1
-6.0,-173.0,69.0,2.0,864.0,-146.0,1
-7.0,-171.0,70.0,20.0,877.0,-152.0,1
-15.0,-169.0,73.0,37.0,885.0,-156.0,1
-18.0,-165.0,71.0,54.0,884.0,-163.0,1
-17.0,-164.0,75.0,69.0,871.0,-170.0,1
-16.0,-162.0,79.0,82.0,849.0,-177.0,1
-11.0,-160.0,84.0,92.0,827.0,-189.0,1
-3.0,-161.0,90.0,96.0,807.0,-206.0,1
4.0,-163.0,88.0,97.0,788.0,-226.0,1
11.0,-165.0,88.0,105.0,767.0,-254.0,1
14.0,-179.0,85.0,108.0,749.0,-288.0,1
15.0,-181.0,86.0,97.0,730.0,-323.0,1
8.0,-192.0,88.0,72.0,708.0,-354.0,1
5.0,-204.0,81.0,44.0,678.0,-377.0,1
-1.0,-213.0,78.0,22.0,649.0,-392.0,1
-11.0,-220.0,77.0,-3.0,631.0,-397.0,1
-16.0,-227.0,79.0,-28.0,620.0,-397.0,1
-23.0,-235.0,77.0,-57.0,613.0,-393.0,1
-33.0,-245.0,75.0,-82.0,600.0,-381.0,1
-45.0,-253.0,85.0,-105.0,574.0,-361.0,1
-55.0,-264.0,87.0,-127.0,540.0,-339.0,1
-58.0,-269.0,112.0,-142.0,500.0,-310.0,1
-69.0,-280.0,122.0,-148.0,457.0,-274.0,1
-74.0,-281.0,139.0,-137.0,415.0,-229.0,1
-73.0,-277.0,151.0,-113.0,378.0,-180.0,1
-74.0,-275.0,169.0,-75.0,340.0,-131.0,1
-66.0,-267.0,180.0,-25.0,302.0,-87.0,1
-63.0,-259.0,185.0,29.0,266.0,-49.0,1
-49.0,-249.0,185.0,90.0,233.0,-21.0,1
-34.0,-239.0,185.0,145.0,203.0,-2.0,1
-16.0,-234.0,175.0,179.0,169.0,7.0,1
-1.0,-240.0,158.0,185.0,117.0,10.0,1
3.0,-255.0,147.0,163.0,45.0,17.0,1
-2.0,-287.0,140.0,109.0,-28.0,39.0,1
-13.0,-317.0,127.0,9.0,-86.0,92.0,1
-20.0,-345.0,114.0,-147.0,-131.0,182.0,1
-28.0,-364.0,97.0,-356.0,-180.0,304.0,1
-28.0,-385.0,76.0,-596.0,-227.0,434.0,1
-38.0,-393.0,78.0,-793.0,-259.0,549.0,1
-35.0,-404.0,87.0,-854.0,-295.0,657.0,1
-45.0,-399.0,88.0,-741.0,-336.0,741.0,1
-44.0,-396.0,69.0,-533.0,-398.0,808.0,1
-38.0,-388.0,41.0,-321.0,-472.0,835.0,1
-31.0,-371.0,17.0,-157.0,-536.0,828.0,1
-34.0,-352.0,11.0,-40.0,-574.0,800.0,1
-21.0,-337.0,3.0,63.0,-580.0,756.0,1
-16.0,-314.0,-5.0,161.0,-567.0,701.0,1
-1.0,-287.0,-18.0,247.0,-537.0,637.0,1
8.0,-255.0,-26.0,308.0,-474.0,561.0,1
33.0,-223.0,-31.0,333.0,-394.0,482.0,1
45.0,-194.0,-40.0,331.0,-296.0,400.0,1
57.0,-169.0,-51.0,302.0,-153.0,321.0,1
63.0,-153.0,-55.0,247.0,6.0,257.0,1
64.0,-140.0,-65.0,168.0,159.0,206.0,1
70.0,-145.0,-64.0,71.0,303.0,172.0,1
60.0,-164.0,-59.0,-40.0,419.0,153.0,1
56.0,-191.0,-42.0,-140.0,499.0,152.0,1
50.0,-218.0,-32.0,-194.0,545.0,160.0,1
44.0,-241.0,-15.0,-217.0,575.0,168.0,1
37.0,-262.0,-3.0,-225.0,589.0,170.0,1
28.0,-282.0,16.0,-219.0,588.0,166.0,1
10.0,-302.0,34.0,-201.0,570.0,155.0,1
-9.0,-308.0,45.0,-161.0,529.0,138.0,1
-29.0,-318.0,59.0,-103.0,467.0,123.0,1
-48.0,-321.0,53.0,-30.0,386.0,109.0,1
-61.0,-317.0,66.0,49.0,291.0,98.0,1
-71.0,-314.0,65.0,131.0,184.0,95.0,1
-86.0,-306.0,61.0,205.0,74.0,88.0,1
-95.0,-295.0,58.0,262.0,-35.0,86.0,1
-101.0,-280.0,59.0,307.0,-143.0,84.0,1
-106.0,-265.0,49.0,342.0,-249.0,84.0,1
-107.0,-249.0,48.0,363.0,-352.0,84.0,1
-104.0,-235.0,40.0,371.0,-447.0,87.0,1
-104.0,-216.0,35.0,366.0,-535.0,94.0,1
-101.0,-210.0,33.0,349.0,-611.0,111.0,1
-99.0,-192.0,30.0,333.0,-674.0,135.0,1
-91.0,-184.0,29.0,311.0,-729.0,163.0,1
-84.0,-179.0,18.0,283.0,-785.0,191.0,1
-75.0,-172.0,18.0,246.0,-839.0,215.0,1
-69.0,-167.0,19.0,202.0,-887.0,234.0,1
-56.0,-164.0,16.0,160.0,-925.0,245.0,1
-44.0,-164.0,15.0,118.0,-951.0,247.0,1
-30.0,-167.0,18.0,77.0,-967.0,245.0,1
-21.0,-166.0,18.0,39.0,-975.0,236.0,1
-19.0,-172.0,21.0,3.0,-971.0,226.0,1
-11.0,-169.0,20.0,-37.0,-968.0,215.0,1
-8.0,-177.0,30.0,-83.0,-961.0,208.0,1
-1.0,-179.0,35.0,-123.0,-958.0,201.0,1
1.0,-180.0,40.0,-156.0,-957.0,200.0,1
-3.0,-181.0,42.0,-187.0,-956.0,200.0,1
-2.0,-184.0,46.0,-208.0,-957.0,200.0,1
-3.0,-186.0,43.0,-232.0,-964.0,208.0,1
0.0,-183.0,50.0,-251.0,-974.0,220.0,1
-2.0,-184.0,42.0,-263.0,-983.0,236.0,1
-2.0,-182.0,39.0,-275.0,-994.0,250.0,1
-3.0,-181.0,35.0,-292.0,-1001.0,259.0,1
0.0,-183.0,49.0,-315.0,-1011.0,269.0,1
2.0,-187.0,40.0,-325.0,-1027.0,276.0,1
6.0,-188.0,39.0,-330.0,-1041.0,282.0,1
9.0,-191.0,45.0,-334.0,-1059.0,286.0,1
9.0,-191.0,50.0,-332.0,-1074.0,287.0,1
16.0,-194.0,49.0,-327.0,-1087.0,286.0,1
17.0,-195.0,60.0,-313.0,-1103.0,281.0,1
21.0,-195.0,59.0,-295.0,-1116.0,276.0,1
23.0,-195.0,61.0,-278.0,-1122.0,271.0,1
24.0,-195.0,60.0,-264.0,-1118.0,267.0,1
28.0,-192.0,66.0,-251.0,-1110.0,268.0,1
29.0,-198.0,66.0,-240.0,-1094.0,271.0,1
30.0,-193.0,66.0,-229.0,-1070.0,277.0,1
25.0,-192.0,70.0,-217.0,-1041.0,286.0,1
26.0,-194.0,70.0,-203.0,-1008.0,300.0,1
21.0,-192.0,72.0,-190.0,-972.0,318.0,1
22.0,-194.0,67.0,-181.0,-934.0,341.0,1
18.0,-196.0,71.0,-174.0,-897.0,364.0,1
14.0,-201.0,69.0,-169.0,-861.0,387.0,1
18.0,-202.0,71.0,-163.0,-824.0,409.0,1
16.0,-207.0,71.0,-159.0,-787.0,427.0,1
17.0,-214.0,79.0,-154.0,-754.0,438.0,1
17.0,-222.0,83.0,-138.0,-730.0,441.0,1
21.0,-223.0,78.0,-112.0,-712.0,443.0,1
25.0,-232.0,82.0,-88.0,-696.0,436.0,1
28.0,-240.0,88.0,-62.0,-689.0,421.0,1
32.0,-244.0,91.0,-34.0,-687.0,399.0,1
32.0,-246.0,96.0,-2.0,-692.0,372.0,1
30.0,-247.0,97.0,32.0,-699.0,342.0,1
35.0,-252.0,107.0,64.0,-704.0,309.0,1
29.0,-255.0,111.0,94.0,-703.0,276.0,1
33.0,-265.0,117.0,119.0,-695.0,243.0,1
35.0,-269.0,125.0,139.0,-676.0,209.0,1
40.0,-276.0,138.0,163.0,-646.0,170.0,1
44.0,-281.0,142.0,194.0,-612.0,125.0,1
48.0,-279.0,149.0,220.0,-576.0,72.0,1
58.0,-274.0,154.0,239.0,-538.0,13.0,1
64.0,-265.0,158.0,256.0,-494.0,-46.0,1
67.0,-251.0,155.0,269.0,-448.0,-102.0,1
73.0,-242.0,160.0,277.0,-402.0,-150.0,1
70.0,-227.0,163.0,288.0,-355.0,-186.0,1
68.0,-221.0,149.0,303.0,-313.0,-205.0,1
56.0,-219.0,147.0,309.0,-284.0,-211.0,1
39.0,-222.0,136.0,312.0,-279.0,-198.0,1
22.0,-234.0,122.0,304.0,-306.0,-161.0,1
10.0,-249.0,108.0,277.0,-356.0,-111.0,1
-2.0,-275.0,97.0,232.0,-417.0,-60.0,1
-10.0,-299.0,87.0,159.0,-482.0,-15.0,1
-22.0,-313.0,78.0,63.0,-532.0,12.0,1
-24.0,-331.0,73.0,-43.0,-556.0,22.0,1
-21.0,-340.0,66.0,-143.0,-550.0,1.0,1
-21.0,-341.0,72.0,-219.0,-523.0,-47.0,1
-23.0,-350.0,85.0,-243.0,-496.0,-112.0,1
-34.0,-353.0,93.0,-200.0,-482.0,-184.0,1
-51.0,-362.0,95.0,-100.0,-484.0,-244.0,1
-68.0,-366.0,85.0,34.0,-502.0,-284.0,1
-84.0,-367.0,80.0,188.0,-526.0,-304.0,1
-103.0,-359.0,66.0,341.0,-559.0,-314.0,1
-117.0,-350.0,51.0,469.0,-599.0,-310.0,1
-126.0,-338.0,36.0,548.0,-650.0,-297.0,1
-135.0,-325.0,19.0,587.0,-710.0,-271.0,1
-138.0,-307.0,5.0,602.0,-783.0,-239.0,1
-130.0,-283.0,-20.0,595.0,-870.0,-200.0,1
-122.0,-261.0,-27.0,568.0,-970.0,-160.0,1
-114.0,-240.0,-35.0,525.0,-1076.0,-119.0,1
-100.0,-224.0,-36.0,466.0,-1193.0,-81.0,1
-90.0,-215.0,-36.0,409.0,-1297.0,-42.0,1
-78.0,-207.0,-39.0,361.0,-1375.0,-1.0,1
-68.0,-208.0,-32.0,311.0,-1433.0,38.0,1
-55.0,-209.0,-27.0,250.0,-1471.0,77.0,1
-47.0,-209.0,-16.0,194.0,-1478.0,110.0,1
-38.0,-216.0,-6.0,139.0,-1452.0,141.0,1
-28.0,-220.0,2.0,85.0,-1413.0,170.0,1
-20.0,-221.0,10.0,50.0,-1358.0,197.0,1
-14.0,-222.0,12.0,19.0,-1278.0,222.0,1
0.0,-225.0,18.0,-31.0,-1192.0,248.0,1
8.0,-229.0,29.0,-86.0,-1110.0,278.0,1
16.0,-234.0,26.0,-136.0,-1038.0,306.0,1
25.0,-231.0,26.0,-190.0,-976.0,334.0,1
34.0,-230.0,28.0,-247.0,-918.0,358.0,1
44.0,-232.0,31.0,-298.0,-862.0,376.0,1
48.0,-230.0,36.0,-328.0,-805.0,385.0,1
50.0,-235.0,37.0,-346.0,-739.0,391.0,1
53.0,-233.0,42.0,-359.0,-672.0,393.0,1
54.0,-235.0,34.0,-369.0,-606.0,391.0,1
54.0,-235.0,39.0,-375.0,-545.0,385.0,1
49.0,-237.0,42.0,-379.0,-487.0,374.0,1
54.0,-232.0,33.0,-375.0,-437.0,361.0,1
57.0,-230.0,35.0,-372.0,-392.0,346.0,1
48.0,-226.0,27.0,-370.0,-347.0,335.0,1
43.0,-226.0,27.0,-365.0,-311.0,327.0,1
33.0,-223.0,29.0,-347.0,-282.0,326.0,1
26.0,-218.0,30.0,-316.0,-258.0,323.0,1
19.0,-209.0,27.0,-292.0,-234.0,321.0,1
11.0,-197.0,21.0,-278.0,-209.0,317.0,1
1.0,-196.0,21.0,-277.0,-179.0,313.0,1
-5.0,-190.0,32.0,-275.0,-154.0,311.0,1
-17.0,-193.0,32.0,-271.0,-132.0,311.0,1
-18.0,-185.0,30.0,-263.0,-121.0,313.0,1
-19.0,-182.0,36.0,-256.0,-104.0,310.0,1
-21.0,-184.0,38.0,-251.0,-90.0,304.0,1
-19.0,-179.0,37.0,-245.0,-91.0,301.0,1
-16.0,-181.0,40.0,-244.0,-80.0,293.0,1
-14.0,-182.0,41.0,-246.0,-61.0,285.0,1
-16.0,-181.0,40.0,-252.0,-43.0,281.0,1
-5.0,-185.0,48.0,-258.0,-26.0,278.0,1
-4.0,-183.0,47.0,-258.0,1.0,269.0,1
1.0,-185.0,49.0,-262.0,36.0,258.0,1
8.0,-187.0,62.0,-267.0,72.0,249.0,1
16.0,-188.0,51.0,-269.0,118.0,232.0,1
13.0,-192.0,55.0,-276.0,163.0,217.0,1
20.0,-192.0,55.0,-281.0,211.0,197.0,1
18.0,-191.0,59.0,-291.0,260.0,176.0,1
16.0,-194.0,59.0,-298.0,307.0,154.0,1
14.0,-198.0,65.0,-294.0,347.0,127.0,1
13.0,-200.0,62.0,-284.0,376.0,100.0,1
6.0,-200.0,67.0,-265.0,399.0,74.0,1
9.0,-198.0,72.0,-244.0,410.0,48.0,1
5.0,-195.0,73.0,-217.0,420.0,26.0,1
-6.0,-192.0,76.0,-192.0,422.0,5.0,1
-7.0,-196.0,77.0,-168.0,418.0,-13.0,1
-11.0,-189.0,76.0,-138.0,409.0,-28.0,1
-16.0,-186.0,79.0,-114.0,396.0,-43.0,1
-16.0,-183.0,81.0,-89.0,384.0,-55.0,1
-12.0,-185.0,81.0,-67.0,374.0,-69.0,1
-13.0,-183.0,83.0,-49.0,367.0,-85.0,1
-10.0,-179.0,86.0,-34.0,369.0,-101.0,1
-6.0,-176.0,84.0,-20.0,372.0,-120.0,1
-2.0,-170.0,87.0,-11.0,379.0,-142.0,1
6.0,-167.0,90.0,-9.0,390.0,-167.0,1
12.0,-162.0,91.0,-13.0,414.0,-196.0,1
20.0,-161.0,87.0,-24.0,439.0,-220.0,1
29.0,-162.0,89.0,-43.0,466.0,-251.0,1
36.0,-167.0,88.0,-71.0,492.0,-275.0,1
37.0,-169.0,85.0,-108.0,526.0,-301.0,1
48.0,-180.0,92.0,-154.0,568.0,-326.0,1
54.0,-193.0,92.0,-205.0,611.0,-358.0,1
57.0,-202.0,95.0,-256.0,655.0,-391.0,1
54.0,-211.0,96.0,-301.0,693.0,-423.0,1
46.0,-225.0,91.0,-338.0,721.0,-449.0,1
36.0,-233.0,92.0,-365.0,728.0,-463.0,1
27.0,-245.0,84.0,-381.0,713.0,-462.0,1
19.0,-253.0,84.0,-388.0,679.0,-449.0,1
5.0,-263.0,79.0,-383.0,633.0,-424.0,1
-10.0,-271.0,83.0,-367.0,585.0,-390.0,1
-24.0,-272.0,92.0,-339.0,539.0,-353.0,1
-37.0,-281.0,112.0,-293.0,507.0,-317.0,1
-47.0,-287.0,122.0,-226.0,481.0,-288.0,1
-56.0,-284.0,138.0,-145.0,470.0,-265.0,1
-59.0,-285.0,151.0,-54.0,472.0,-252.0,1
-61.0,-280.0,165.0,45.0,478.0,-251.0,1
-46.0,-283.0,175.0,145.0,485.0,-259.0,1
-44.0,-275.0,170.0,233.0,479.0,-265.0,1
-31.0,-278.0,162.0,292.0,449.0,-262.0,1
-24.0,-292.0,150.0,324.0,401.0,-259.0,1
-42.0,-310.0,138.0,325.0,363.0,-238.0,1
-50.0,-337.0,129.0,274.0,329.0,-187.0,1
-68.0,-358.0,113.0,164.0,294.0,-106.0,1
-73.0,-381.0,93.0,1.0,240.0,5.0,1
-73.0,-397.0,78.0,-180.0,185.0,128.0,1
-67.0,-409.0,66.0,-329.0,136.0,248.0,1
-57.0,-411.0,75.0,-381.0,104.0,359.0,1
-50.0,-411.0,76.0,-309.0,74.0,450.0,1
-18.0,-401.0,69.0,-157.0,19.0,512.0,1
-3.0,-386.0,54.0,8.0,-41.0,550.0,1
7.0,-369.0,32.0,154.0,-102.0,563.0,1
18.0,-348.0,14.0,274.0,-145.0,554.0,1
24.0,-326.0,11.0,379.0,-166.0,529.0,1
29.0,-306.0,6.0,481.0,-168.0,492.0,1
39.0,-282.0,-7.0,574.0,-151.0,444.0,1
43.0,-244.0,-25.0,635.0,-97.0,386.0,1
56.0,-214.0,-44.0,652.0,1.0,315.0,1
69.0,-175.0,-43.0,636.0,138.0,238.0,1
73.0,-145.0,-52.0,601.0,307.0,155.0,1
75.0,-125.0,-53.0,549.0,484.0,80.0,1
67.0,-120.0,-59.0,466.0,654.0,18.0,1
59.0,-132.0,-65.0,339.0,802.0,-21.0,1
47.0,-157.0,-48.0,191.0,910.0,-37.0,1
38.0,-189.0,-27.0,54.0,974.0,-42.0,1
27.0,-218.0,-10.0,-50.0,998.0,-33.0,1
13.0,-240.0,11.0,-114.0,983.0,-19.0,1
2.0,-258.0,16.0,-147.0,940.0,-3.0,1
-15.0,-274.0,26.0,-149.0,874.0,12.0,1
-32.0,-282.0,35.0,-131.0,794.0,24.0,1
-45.0,-289.0,44.0,-94.0,703.0,29.0,1
-62.0,-299.0,51.0,-43.0,609.0,28.0,1
-74.0,-302.0,53.0,15.0,508.0,23.0,1
-83.0,-296.0,56.0,72.0,401.0,15.0,1
-91.0,-292.0,57.0,129.0,292.0,9.0,1
-98.0,-288.0,61.0,180.0,181.0,5.0,1
-103.0,-278.0,56.0,225.0,70.0,1.0,1
-109.0,-262.0,46.0,266.0,-40.0,-1.0,1
-107.0,-251.0,46.0,299.0,-142.0,-2.0,1
-103.0,-241.0,37.0,320.0,-236.0,-1.0,1
-103.0,-232.0,32.0,328.0,-320.0,4.0,1
-97.0,-221.0,28.0,321.0,-399.0,10.0,1
-95.0,-212.0,21.0,307.0,-470.0,23.0,1
-86.0,-200.0,17.0,288.0,-540.0,40.0,1
-81.0,-194.0,17.0,270.0,-608.0,61.0,1
-68.0,-185.0,17.0,255.0,-673.0,81.0,1
-58.0,-179.0,21.0,240.0,-733.0,104.0,1
-54.0,-172.0,18.0,224.0,-792.0,124.0,1
-42.0,-171.0,17.0,197.0,-842.0,142.0,1
-31.0,-172.0,25.0,159.0,-882.0,155.0,1
-23.0,-178.0,28.0,118.0,-908.0,166.0,1
-17.0,-174.0,28.0,70.0,-928.0,174.0,1
-14.0,-175.0,27.0,16.0,-936.0,180.0,1
-6.0,-179.0,31.0,-46.0,-936.0,188.0,1
-8.0,-181.0,40.0,-111.0,-931.0,199.0,1
-7.0,-190.0,44.0,-166.0,-926.0,210.0,1
-3.0,-194.0,40.0,-214.0,-924.0,221.0,1
-2.0,-196.0,44.0,-256.0,-926.0,226.0,1
-1.0,-197.0,48.0,-288.0,-931.0,237.0,1
-3.0,-202.0,50.0,-300.0,-945.0,250.0,1
-2.0,-200.0,51.0,-297.0,-964.0,267.0,1
-3.0,-200.0,44.0,-287.0,-982.0,285.0,1
3.0,-202.0,61.0,-277.0,-999.0,298.0,1
-1.0,-196.0,54.0,-272.0,-1015.0,310.0,1
-2.0,-193.0,52.0,-271.0,-1031.0,317.0,1
1.0,-192.0,55.0,-271.0,-1046.0,319.0,1
0.0,-193.0,59.0,-271.0,-1068.0,318.0,1
3.0,-191.0,60.0,-264.0,-1090.0,315.0,1
5.0,-190.0,60.0,-253.0,-1108.0,312.0,1
17.0,-196.0,62.0,-243.0,-1124.0,307.0,1
18.0,-190.0,62.0,-234.0,-1128.0,304.0,1
18.0,-195.0,67.0,-222.0,-1127.0,298.0,1
19.0,-199.0,69.0,-211.0,-1124.0,294.0,1
26.0,-201.0,67.0,-197.0,-1115.0,291.0,1
30.0,-198.0,74.0,-178.0,-1101.0,288.0,1
32.0,-196.0,72.0,-162.0,-1080.0,289.0,1
33.0,-197.0,75.0,-147.0,-1051.0,292.0,1
36.0,-198.0,71.0,-135.0,-1019.0,298.0,1
32.0,-196.0,74.0,-126.0,-981.0,306.0,1
33.0,-200.0,74.0,-118.0,-947.0,316.0,1
28.0,-198.0,66.0,-114.0,-907.0,329.0,1
28.0,-199.0,70.0,-120.0,-870.0,342.0,1
25.0,-204.0,69.0,-123.0,-836.0,356.0,1
20.0,-208.0,71.0,-127.0,-804.0,372.0,1
11.0,-208.0,74.0,-127.0,-774.0,389.0,1
5.0,-215.0,80.0,-120.0,-757.0,405.0,1
1.0,-224.0,86.0,-107.0,-745.0,423.0,1
3.0,-226.0,93.0,-88.0,-738.0,440.0,1
-1.0,-226.0,94.0,-63.0,-732.0,456.0,1
-4.0,-227.0,101.0,-32.0,-729.0,470.0,1
-2.0,-228.0,107.0,4.0,-726.0,481.0,1
-1.0,-228.0,115.0,48.0,-729.0,488.0,1
6.0,-232.0,115.0,98.0,-728.0,490.0,1
20.0,-235.0,119.0,140.0,-717.0,479.0,1
31.0,-228.0,117.0,168.0,-692.0,449.0,1
43.0,-243.0,124.0,179.0,-654.0,409.0,1
58.0,-250.0,127.0,189.0,-609.0,355.0,1
64.0,-250.0,126.0,193.0,-560.0,293.0,1
76.0,-252.0,126.0,192.0,-510.0,229.0,1
82.0,-252.0,131.0,193.0,-462.0,168.0,1
85.0,-248.0,136.0,197.0,-414.0,111.0,1
85.0,-241.0,142.0,204.0,-371.0,62.0,1
86.0,-243.0,144.0,213.0,-332.0,22.0,1
84.0,-236.0,151.0,227.0,-292.0,-4.0,1
69.0,-227.0,148.0,240.0,-255.0,-25.0,1
50.0,-216.0,157.0,256.0,-223.0,-31.0,1
32.0,-209.0,154.0,270.0,-198.0,-27.0,1
8.0,-205.0,150.0,281.0,-186.0,-7.0,1
-13.0,-212.0,144.0,290.0,-209.0,23.0,1
-29.0,-226.0,139.0,279.0,-256.0,57.0,1
-39.0,-242.0,125.0,242.0,-302.0,88.0,1
-40.0,-264.0,110.0,178.0,-335.0,109.0,1
-48.0,-287.0,94.0,91.0,-351.0,113.0,1
-48.0,-316.0,88.0,-5.0,-351.0,98.0,1
-40.0,-342.0,79.0,-95.0,-347.0,71.0,1
-39.0,-362.0,80.0,-164.0,-338.0,31.0,1
-35.0,-377.0,83.0,-198.0,-337.0,-16.0,1
-36.0,-392.0,80.0,-200.0,-346.0,-64.0,1
-36.0,-395.0,85.0,-178.0,-362.0,-107.0,1
-32.0,-399.0,86.0,-127.0,-384.0,-141.0,1
-35.0,-398.0,86.0,-49.0,-411.0,-167.0,1
-45.0,-389.0,76.0,52.0,-448.0,-182.0,1
-51.0,-380.0,74.0,171.0,-498.0,-185.0,1
-60.0,-368.0,55.0,291.0,-568.0,-172.0,1
-67.0,-350.0,44.0,395.0,-645.0,-145.0,1
-73.0,-329.0,26.0,469.0,-730.0,-113.0,1
-77.0,-306.0,11.0,512.0,-820.0,-69.0,1
-78.0,-283.0,-9.0,526.0,-900.0,-21.0,1
-74.0,-256.0,-26.0,509.0,-976.0,24.0,1
-63.0,-240.0,-37.0,474.0,-1052.0,66.0,1
-59.0,-217.0,-43.0,429.0,-1122.0,102.0,1
-52.0,-200.0,-50.0,383.0,-1192.0,130.0,1
-41.0,-183.0,-47.0,334.0,-1252.0,156.0,1
-30.0,-165.0,-46.0,294.0,-1307.0,177.0,1
-28.0,-151.0,-48.0,255.0,-1348.0,197.0,1
-22.0,-148.0,-42.0,210.0,-1370.0,221.0,1
-14.0,-156.0,-42.0,152.0,-1367.0,243.0,1
-10.0,-159.0,-35.0,87.0,-1336.0,265.0,1
-1.0,-171.0,-29.0,8.0,-1278.0,285.0,1
4.0,-177.0,-17.0,-85.0,-1206.0,308.0,1
11.0,-190.0,-7.0,-181.0,-1124.0,330.0,1
23.0,-201.0,3.0,-267.0,-1037.0,350.0,1
26.0,-208.0,10.0,-348.0,-950.0,365.0,1
35.0,-216.0,14.0,-421.0,-874.0,378.0,1
38.0,-224.0,22.0,-483.0,-805.0,384.0,1
45.0,-225.0,27.0,-527.0,-745.0,385.0,1
52.0,-227.0,30.0,-553.0,-691.0,379.0,1
62.0,-231.0,39.0,-564.0,-636.0,370.0,1
63.0,-230.0,38.0,-557.0,-587.0,355.0,1
69.0,-234.0,37.0,-540.0,-536.0,338.0,1
71.0,-230.0,40.0,-516.0,-481.0,318.0,1
71.0,-233.0,39.0,-482.0,-418.0,297.0,1
71.0,-237.0,35.0,-450.0,-358.0,275.0,1
68.0,-232.0,36.0,-425.0,-300.0,255.0,1
68.0,-235.0,34.0,-407.0,-239.0,239.0,1
67.0,-234.0,34.0,-395.0,-182.0,221.0,1
65.0,-234.0,32.0,-389.0,-129.0,205.0,1
53.0,-234.0,34.0,-386.0,-76.0,194.0,1
45.0,-231.0,35.0,-384.0,-28.0,187.0,1
31.0,-228.0,33.0,-382.0,5.0,184.0,1
22.0,-226.0,39.0,-377.0,32.0,179.0,1
20.0,-223.0,35.0,-363.0,47.0,179.0,1
8.0,-215.0,34.0,-352.0,66.0,178.0,1
2.0,-214.0,35.0,-341.0,83.0,178.0,1
-8.0,-211.0,41.0,-328.0,92.0,178.0,1
-14.0,-208.0,40.0,-318.0,87.0,181.0,1
-22.0,-207.0,45.0,-309.0,72.0,186.0,1
-20.0,-204.0,49.0,-294.0,50.0,192.0,1
-19.0,-202.0,46.0,-275.0,23.0,199.0,1
-20.0,-198.0,54.0,-260.0,2.0,203.0,1
-21.0,-196.0,56.0,-246.0,-15.0,206.0,1
-22.0,-194.0,57.0,-234.0,-27.0,210.0,1
-24.0,-194.0,59.0,-233.0,-31.0,212.0,1
-20.0,-193.0,64.0,-233.0,-33.0,215.0,1
-20.0,-197.0,66.0,-229.0,-34.0,218.0,1
-24.0,-195.0,66.0,-227.0,-40.0,223.0,1
-24.0,-196.0,68.0,-226.0,-53.0,233.0,1
-27.0,-196.0,61.0,-228.0,-62.0,245.0,1
-26.0,-195.0,67.0,-237.0,-69.0,260.0,1
-23.0,-201.0,65.0,-243.0,-72.0,276.0,1
-22.0,-198.0,69.0,-250.0,-66.0,286.0,1
-22.0,-201.0,74.0,-258.0,-59.0,295.0,1
-19.0,-201.0,76.0,-262.0,-56.0,303.0,1
-18.0,-205.0,82.0,-258.0,-51.0,307.0,1
-16.0,-203.0,85.0,-245.0,-45.0,304.0,1
-13.0,-205.0,82.0,-232.0,-45.0,297.0,1
-8.0,-206.0,84.0,-213.0,-50.0,288.0,1
-4.0,-204.0,86.0,-189.0,-59.0,276.0,1
0.0,-204.0,88.0,-161.0,-74.0,261.0,1
1.0,-200.0,84.0,-139.0,-83.0,247.0,1
9.0,-198.0,83.0,-118.0,-95.0,231.0,1
11.0,-194.0,90.0,-101.0,-99.0,214.0,1
17.0,-192.0,83.0,-90.0,-98.0,193.0,1
18.0,-190.0,82.0,-83.0,-93.0,171.0,1
20.0,-184.0,85.0,-70.0,-84.0,147.0,1
31.0,-182.0,85.0,-70.0,-70.0,121.0,1
32.0,-181.0,83.0,-69.0,-54.0,88.0,1
37.0,-178.0,76.0,-75.0,-32.0,58.0,1
40.0,-177.0,75.0,-89.0,-13.0,30.0,1
38.0,-179.0,78.0,-112.0,10.0,-4.0,1
33.0,-182.0,74.0,-137.0,31.0,-34.0,1
35.0,-183.0,74.0,-167.0,54.0,-60.0,1
26.0,-191.0,75.0,-199.0,73.0,-86.0,1
23.0,-197.0,77.0,-224.0,83.0,-103.0,1
21.0,-205.0,82.0,-243.0,83.0,-117.0,1
15.0,-213.0,87.0,-252.0,76.0,-126.0,1
14.0,-219.0,87.0,-248.0,60.0,-127.0,1
8.0,-228.0,93.0,-228.0,42.0,-123.0,1
7.0,-232.0,96.0,-201.0,21.0,-114.0,1
10.0,-241.0,99.0,-170.0,4.0,-108.0,1
10.0,-242.0,107.0,-136.0,-2.0,-109.0,1
7.0,-245.0,106.0,-103.0,-1.0,-112.0,1
9.0,-245.0,112.0,-71.0,14.0,-123.0,1
11.0,-246.0,112.0,-41.0,39.0,-143.0,1
16.0,-246.0,116.0,-16.0,73.0,-170.0,1
16.0,-245.0,118.0,13.0,115.0,-202.0,1
16.0,-244.0,123.0,42.0,161.0,-238.0,1
22.0,-241.0,120.0,72.0,204.0,-275.0,1
24.0,-245.0,117.0,110.0,237.0,-309.0,1
20.0,-260.0,117.0,145.0,251.0,-337.0,1
10.0,-280.0,108.0,169.0,233.0,-345.0,1
-8.0,-305.0,104.0,181.0,207.0,-327.0,1
-19.0,-336.0,99.0,162.0,190.0,-283.0,1
-39.0,-370.0,90.0,102.0,191.0,-210.0,1
-48.0,-401.0,88.0,9.0,193.0,-115.0,1
-62.0,-426.0,72.0,-100.0,194.0,4.0,1
-62.0,-448.0,53.0,-210.0,176.0,137.0,1
-52.0,-465.0,47.0,-307.0,159.0,272.0,1
-42.0,-464.0,45.0,-344.0,146.0,396.0,1
-34.0,-460.0,41.0,-300.0,122.0,498.0,1
-23.0,-442.0,25.0,-165.0,82.0,578.0,1
-19.0,-422.0,24.0,17.0,35.0,630.0,1
-17.0,-380.0,-6.0,237.0,-31.0,663.0,1
-5.0,-342.0,-19.0,433.0,-96.0,674.0,1
5.0,-301.0,-37.0,591.0,-120.0,662.0,1
24.0,-253.0,-48.0,708.0,-97.0,628.0,1
33.0,-205.0,-58.0,777.0,-43.0,564.0,1
35.0,-159.0,-61.0,798.0,47.0,494.0,1
44.0,-124.0,-64.0,801.0,164.0,423.0,1
46.0,-97.0,-76.0,750.0,284.0,348.0,1
37.0,-86.0,-78.0,637.0,402.0,285.0,1
22.0,-98.0,-70.0,472.0,498.0,239.0,1
4.0,-127.0,-41.0,272.0,550.0,214.0,1
-13.0,-159.0,-23.0,91.0,542.0,209.0,1
-27.0,-192.0,3.0,-63.0,497.0,219.0,1
-39.0,-222.0,14.0,-195.0,436.0,240.0,1
-50.0,-253.0,31.0,-289.0,369.0,267.0,1
-75.0,-271.0,39.0,-344.0,299.0,296.0,1
-93.0,-293.0,46.0,-344.0,224.0,322.0,1
-109.0,-306.0,54.0,-307.0,145.0,344.0,1
-121.0,-315.0,54.0,-245.0,61.0,362.0,1
-131.0,-318.0,47.0,-160.0,-30.0,376.0,1
-138.0,-314.0,48.0,-71.0,-125.0,386.0,1
-141.0,-308.0,48.0,14.0,-225.0,394.0,1
-145.0,-299.0,40.0,92.0,-327.0,399.0,1
-138.0,-291.0,32.0,159.0,-431.0,402.0,1
-134.0,-275.0,33.0,212.0,-529.0,405.0,1
-118.0,-262.0,38.0,252.0,-623.0,408.0,1
-106.0,-244.0,24.0,280.0,-713.0,410.0,1
-89.0,-232.0,16.0,289.0,-794.0,411.0,1
-73.0,-220.0,13.0,285.0,-867.0,416.0,1
-59.0,-206.0,5.0,268.0,-936.0,423.0,1
-43.0,-193.0,4.0,236.0,-1003.0,430.0,1
-31.0,-189.0,3.0,190.0,-1061.0,435.0,1
-20.0,-182.0,-5.0,151.0,-1118.0,446.0,1
-15.0,-176.0,-9.0,121.0,-1163.0,456.0,1
-5.0,-176.0,-11.0,79.0,-1196.0,464.0,1
10.0,-172.0,0.0,22.0,-1212.0,472.0,1
10.0,-178.0,-11.0,-34.0,-1212.0,475.0,1
11.0,-179.0,2.0,-85.0,-1196.0,479.0,1
16.0,-184.0,4.0,-139.0,-1167.0,486.0,1
18.0,-192.0,13.0,-198.0,-1125.0,491.0,1
20.0,-203.0,23.0,-249.0,-1079.0,497.0,1
17.0,-214.0,31.0,-296.0,-1033.0,499.0,1
16.0,-223.0,41.0,-327.0,-999.0,499.0,1
9.0,-226.0,48.0,-341.0,-971.0,496.0,1
10.0,-231.0,52.0,-340.0,-953.0,490.0,1
7.0,-236.0,50.0,-326.0,-938.0,481.0,1
0.0,-230.0,54.0,-308.0,-925.0,476.0,1
-6.0,-232.0,62.0,-282.0,-915.0,471.0,1
-10.0,-235.0,57.0,-251.0,-907.0,464.0,1
-11.0,-231.0,60.0,-219.0,-898.0,456.0,1
-14.0,-229.0,59.0,-188.0,-893.0,454.0,1
-16.0,-227.0,56.0,-163.0,-885.0,453.0,1
-17.0,-224.0,59.0,-148.0,-882.0,452.0,1
-14.0,-224.0,59.0,-137.0,-882.0,451.0,1
-14.0,-222.0,64.0,-133.0,-886.0,452.0,1
-14.0,-216.0,58.0,-135.0,-891.0,451.0,1
-11.0,-214.0,54.0,-141.0,-895.0,451.0,1
-5.0,-217.0,57.0,-154.0,-895.0,448.0,1
-8.0,-215.0,53.0,-172.0,-894.0,448.0,1
-6.0,-215.0,58.0,-193.0,-894.0,447.0,1
-4.0,-219.0,60.0,-206.0,-897.0,449.0,1
-8.0,-221.0,59.0,-217.0,-898.0,449.0,1
-10.0,-222.0,58.0,-225.0,-904.0,452.0,1
-12.0,-227.0,61.0,-228.0,-909.0,455.0,1
-13.0,-230.0,67.0,-224.0,-911.0,462.0,1
-15.0,-235.0,64.0,-217.0,-913.0,471.0,1
-18.0,-236.0,62.0,-203.0,-913.0,477.0,1
-20.0,-238.0,66.0,-181.0,-911.0,486.0,1
-21.0,-230.0,72.0,-155.0,-905.0,491.0,1
-20.0,-228.0,66.0,-132.0,-894.0,496.0,1
-19.0,-223.0,70.0,-112.0,-883.0,499.0,1
-22.0,-214.0,73.0,-92.0,-870.0,501.0,1
-20.0,-210.0,68.0,-74.0,-855.0,505.0,1
-19.0,-204.0,69.0,-56.0,-840.0,506.0,1
-17.0,-199.0,73.0,-40.0,-820.0,506.0,1
-15.0,-195.0,76.0,-25.0,-797.0,503.0,1
-8.0,-190.0,76.0,-13.0,-770.0,497.0,1
-9.0,-187.0,82.0,-3.0,-739.0,488.0,1
-3.0,-182.0,78.0,4.0,-708.0,479.0,1
-4.0,-184.0,77.0,2.0,-678.0,468.0,1
0.0,-186.0,84.0,-3.0,-648.0,461.0,1
2.0,-188.0,88.0,-6.0,-624.0,453.0,1
-2.0,-194.0,93.0,-5.0,-607.0,447.0,1
-3.0,-196.0,94.0,6.0,-601.0,445.0,1
-3.0,-205.0,96.0,26.0,-600.0,444.0,1
-3.0,-207.0,100.0,54.0,-608.0,448.0,1
0.0,-207.0,103.0,89.0,-615.0,451.0,1
-3.0,-205.0,110.0,124.0,-622.0,451.0,1
-4.0,-210.0,114.0,159.0,-627.0,448.0,1
-6.0,-209.0,107.0,198.0,-625.0,444.0,1
-7.0,-214.0,101.0,226.0,-613.0,441.0,1
-13.0,-221.0,88.0,238.0,-588.0,432.0,1
-11.0,-235.0,76.0,228.0,-557.0,422.0,1
-13.0,-246.0,47.0,204.0,-532.0,407.0,1
-8.0,-251.0,31.0,151.0,-503.0,390.0,1
1.0,-259.0,16.0,63.0,-473.0,369.0,1
6.0,-256.0,0.0,-48.0,-434.0,342.0,1
24.0,-261.0,3.0,-172.0,-385.0,309.0,1
33.0,-262.0,22.0,-285.0,-334.0,264.0,1
28.0,-270.0,55.0,-348.0,-274.0,202.0,1
25.0,-282.0,82.0,-330.0,-229.0,137.0,1
9.0,-288.0,99.0,-245.0,-199.0,82.0,1
-20.0,-281.0,112.0,-134.0,-178.0,44.0,1
-47.0,-280.0,111.0,-38.0,-169.0,34.0,1
-66.0,-286.0,101.0,34.0,-156.0,41.0,1
-91.0,-286.0,90.0,84.0,-136.0,61.0,1
-112.0,-286.0,73.0,98.0,-120.0,92.0,1
-125.0,-283.0,61.0,74.0,-129.0,132.0,1
-120.0,-282.0,46.0,16.0,-162.0,174.0,1
-117.0,-272.0,39.0,-59.0,-219.0,212.0,1
-105.0,-269.0,35.0,-145.0,-294.0,245.0,1
-83.0,-262.0,34.0,-218.0,-379.0,272.0,1
-78.0,-262.0,33.0,-271.0,-464.0,292.0,1
-57.0,-257.0,33.0,-313.0,-541.0,307.0,1
-43.0,-254.0,29.0,-358.0,-607.0,317.0,1
-27.0,-251.0,28.0,-412.0,-666.0,323.0,1
-24.0,-244.0,24.0,-473.0,-714.0,327.0,1
-20.0,-243.0,16.0,-536.0,-748.0,332.0,1
-19.0,-242.0,20.0,-600.0,-775.0,342.0,1
-21.0,-241.0,16.0,-649.0,-795.0,358.0,1
-26.0,-241.0,16.0,-689.0,-811.0,377.0,1
-28.0,-238.0,12.0,-721.0,-826.0,397.0,1
-37.0,-241.0,7.0,-743.0,-841.0,416.0,1
-40.0,-239.0,10.0,-759.0,-858.0,436.0,1
-47.0,-241.0,9.0,-772.0,-879.0,459.0,1
-50.0,-240.0,5.0,-775.0,-904.0,483.0,1
-53.0,-244.0,3.0,-774.0,-931.0,509.0,1
-58.0,-242.0,3.0,-768.0,-962.0,535.0,1
-65.0,-239.0,10.0,-759.0,-996.0,562.0,1
-67.0,-240.0,5.0,-751.0,-1029.0,590.0,1
-66.0,-241.0,1.0,-739.0,-1065.0,619.0,1
-70.0,-240.0,5.0,-730.0,-1101.0,650.0,1
-67.0,-236.0,2.0,-721.0,-1135.0,680.0,1
-72.0,-232.0,-2.0,-708.0,-1167.0,706.0,1
-63.0,-231.0,-2.0,-695.0,-1194.0,732.0,1
-61.0,-233.0,-3.0,-682.0,-1216.0,754.0,1
-50.0,-232.0,-5.0,-670.0,-1229.0,775.0,1
-43.0,-230.0,-8.0,-655.0,-1235.0,792.0,1
-33.0,-236.0,-12.0,-636.0,-1229.0,807.0,1
-21.0,-237.0,-14.0,-600.0,-1218.0,816.0,1
-14.0,-242.0,-13.0,-554.0,-1196.0,817.0,1
-6.0,-244.0,-17.0,-498.0,-1162.0,814.0,1
5.0,-248.0,-18.0,-438.0,-1105.0,810.0,1
17.0,-245.0,-19.0,-386.0,-1026.0,803.0,1
28.0,-247.0,-16.0,-358.0,-911.0,796.0,1
17.0,-257.0,-15.0,-340.0,-813.0,782.0,1
24.0,-252.0,-16.0,-269.0,-771.0,754.0,1
31.0,-249.0,-13.0,-179.0,-709.0,737.0,1
38.0,-250.0,-3.0,-101.0,-636.0,716.0,1
39.0,-252.0,7.0,-48.0,-573.0,686.0,1
40.0,-248.0,5.0,-7.0,-526.0,655.0,1
31.0,-246.0,14.0,21.0,-481.0,627.0,1
28.0,-244.0,25.0,50.0,-446.0,604.0,1
24.0,-240.0,18.0,72.0,-414.0,581.0,1
18.0,-233.0,24.0,84.0,-371.0,565.0,1
4.0,-240.0,25.0,84.0,-320.0,551.0,1
8.0,-248.0,25.0,51.0,-270.0,539.0,1
7.0,-245.0,13.0,34.0,-226.0,555.0,1
10.0,-237.0,25.0,36.0,-213.0,548.0,1
3.0,-235.0,26.0,71.0,-182.0,537.0,1
-14.0,-235.0,23.0,134.0,-162.0,535.0,1
-16.0,-226.0,17.0,171.0,-145.0,539.0,1
-35.0,-225.0,27.0,167.0,-115.0,543.0,1
-39.0,-213.0,28.0,155.0,-96.0,540.0,1
-58.0,-202.0,35.0,148.0,-79.0,525.0,1
-69.0,-196.0,22.0,125.0,-59.0,523.0,1
-86.0,-184.0,38.0,77.0,-59.0,529.0,1
-87.0,-175.0,38.0,25.0,-99.0,545.0,1
-83.0,-169.0,26.0,-43.0,-141.0,561.0,1
-80.0,-161.0,25.0,-123.0,-161.0,564.0,1
-80.0,-162.0,23.0,-212.0,-159.0,557.0,1
-74.0,-166.0,22.0,-307.0,-150.0,540.0,1
-75.0,-171.0,23.0,-404.0,-127.0,509.0,1
-65.0,-178.0,20.0,-493.0,-88.0,468.0,1
-66.0,-186.0,19.0,-570.0,-38.0,417.0,1
-58.0,-198.0,21.0,-628.0,22.0,364.0,1
-57.0,-199.0,25.0,-669.0,84.0,311.0,1
-62.0,-213.0,24.0,-699.0,146.0,260.0,1
-61.0,-221.0,21.0,-714.0,195.0,221.0,1
-58.0,-229.0,21.0,-722.0,244.0,189.0,1
-62.0,-240.0,24.0,-719.0,277.0,169.0,1
-61.0,-244.0,21.0,-697.0,297.0,156.0,1
-63.0,-248.0,23.0,-666.0,313.0,145.0,1
-65.0,-254.0,24.0,-627.0,323.0,138.0,1
-69.0,-251.0,25.0,-587.0,328.0,135.0,1
-69.0,-253.0,24.0,-547.0,327.0,131.0,1
-72.0,-252.0,26.0,-506.0,315.0,129.0,1
-76.0,-244.0,22.0,-461.0,301.0,132.0,1
-79.0,-245.0,25.0,-419.0,281.0,133.0,1
-84.0,-243.0,19.0,-375.0,257.0,133.0,1
-83.0,-241.0,23.0,-339.0,230.0,130.0,1
-84.0,-238.0,20.0,-307.0,207.0,123.0,1
-85.0,-234.0,17.0,-277.0,190.0,119.0,1
-88.0,-228.0,15.0,-257.0,178.0,109.0,1
-86.0,-227.0,14.0,-246.0,174.0,102.0,1
-95.0,-226.0,14.0,-250.0,175.0,101.0,1
-107.0,-221.0,14.0,-260.0,171.0,111.0,1
-122.0,-219.0,17.0,-270.0,159.0,133.0,1
-139.0,-218.0,26.0,-270.0,136.0,166.0,1
-152.0,-220.0,29.0,-253.0,109.0,202.0,1
-164.0,-221.0,40.0,-219.0,84.0,245.0,1
-182.0,-223.0,38.0,-164.0,68.0,284.0,1
-187.0,-224.0,40.0,-102.0,69.0,317.0,1
-188.0,-218.0,28.0,-44.0,99.0,339.0,1
-177.0,-211.0,23.0,-1.0,165.0,347.0,1
-164.0,-202.0,19.0,28.0,266.0,337.0,1
-145.0,-191.0,16.0,39.0,387.0,310.0,1
-125.0,-187.0,18.0,33.0,508.0,268.0,1
-107.0,-185.0,20.0,24.0,614.0,215.0,1
-90.0,-186.0,26.0,17.0,699.0,159.0,1
-77.0,-188.0,32.0,4.0,765.0,108.0,1
-68.0,-190.0,40.0,-3.0,816.0,64.0,1
-64.0,-195.0,50.0,2.0,843.0,33.0,1
-55.0,-192.0,48.0,29.0,857.0,12.0,1
-48.0,-187.0,38.0,26.0,869.0,-17.0,1
-39.0,-188.0,31.0,-13.0,889.0,-41.0,1
-42.0,-185.0,23.0,-75.0,914.0,-66.0,1
-44.0,-191.0,23.0,-138.0,938.0,-88.0,1
-51.0,-201.0,23.0,-200.0,957.0,-111.0,1
-59.0,-202.0,30.0,-247.0,972.0,-129.0,1
-67.0,-207.0,28.0,-282.0,987.0,-145.0,1
-69.0,-211.0,28.0,-306.0,1005.0,-160.0,1
-74.0,-214.0,33.0,-318.0,1026.0,-171.0,1
-77.0,-212.0,36.0,-321.0,1053.0,-177.0,1
-75.0,-212.0,34.0,-320.0,1084.0,-183.0,1
-77.0,-210.0,39.0,-315.0,1123.0,-185.0,1
-76.0,-210.0,36.0,-306.0,1164.0,-183.0,1
-73.0,-207.0,35.0,-297.0,1206.0,-182.0,1
-65.0,-208.0,41.0,-288.0,1249.0,-183.0,1
-59.0,-206.0,34.0,-281.0,1290.0,-190.0,1
-56.0,-206.0,32.0,-279.0,1331.0,-197.0,1
-58.0,-208.0,34.0,-273.0,1360.0,-205.0,1
-33.0,-211.0,34.0,-266.0,1378.0,-217.0,1
-19.0,-218.0,40.0,-260.0,1395.0,-253.0,1
-51.0,-223.0,45.0,-241.0,1402.0,-297.0,1
-67.0,-225.0,44.0,-223.0,1384.0,-326.0,1
-63.0,-219.0,47.0,-207.0,1371.0,-340.0,1
-65.0,-207.0,43.0,-180.0,1366.0,-348.0,1
-62.0,-204.0,26.0,-157.0,1397.0,-350.0,1
-61.0,-195.0,14.0,-158.0,1454.0,-353.0,1
-64.0,-190.0,8.0,-175.0,1508.0,-351.0,1
-70.0,-194.0,13.0,-204.0,1538.0,-349.0,1
-75.0,-195.0,6.0,-249.0,1537.0,-342.0,1
-74.0,-196.0,11.0,-307.0,1525.0,-325.0,1
-87.0,-202.0,26.0,-355.0,1516.0,-302.0,1
-83.0,-214.0,19.0,-374.0,1510.0,-275.0,1
-65.0,-231.0,22.0,-371.0,1503.0,-259.0,1
-75.0,-234.0,43.0,-373.0,1501.0,-250.0,1
-70.0,-241.0,41.0,-357.0,1487.0,-243.0,1
-76.0,-242.0,41.0,-338.0,1477.0,-238.0,1
-76.0,-243.0,37.0,-333.0,1473.0,-237.0,1
-74.0,-245.0,34.0,-332.0,1476.0,-240.0,1
-78.0,-245.0,30.0,-327.0,1475.0,-245.0,1
-82.0,-245.0,36.0,-330.0,1472.0,-242.0,1
-87.0,-244.0,35.0,-327.0,1453.0,-234.0,1
-92.0,-240.0,32.0,-316.0,1425.0,-220.0,1
-90.0,-244.0,31.0,-296.0,1394.0,-207.0,1
-98.0,-246.0,34.0,-269.0,1364.0,-196.0,1
-99.0,-247.0,32.0,-238.0,1337.0,-190.0,1
-101.0,-256.0,24.0,-199.0,1312.0,-186.0,1
-110.0,-260.0,21.0,-160.0,1291.0,-186.0,1
-114.0,-267.0,12.0,-121.0,1275.0,-186.0,1
-110.0,-279.0,11.0,-84.0,1259.0,-184.0,1
-120.0,-292.0,15.0,-32.0,1244.0,-187.0,1
-118.0,-290.0,10.0,39.0,1222.0,-186.0,1
-123.0,-289.0,7.0,117.0,1197.0,-176.0,1
-119.0,-292.0,9.0,196.0,1162.0,-159.0,1
-118.0,-284.0,6.0,287.0,1110.0,-145.0,1
-110.0,-275.0,15.0,383.0,1054.0,-130.0,1
-101.0,-270.0,12.0,473.0,991.0,-116.0,1
-95.0,-251.0,6.0,552.0,924.0,-114.0,1
-83.0,-238.0,4.0,611.0,873.0,-112.0,1
-80.0,-228.0,1.0,643.0,830.0,-121.0,1
-70.0,-219.0,10.0,649.0,802.0,-137.0,1
-69.0,-212.0,5.0,636.0,778.0,-162.0,1
-63.0,-199.0,10.0,598.0,778.0,-189.0,1
-68.0,-192.0,10.0,545.0,783.0,-219.0,1
-63.0,-200.0,12.0,483.0,802.0,-241.0,1
-68.0,-205.0,12.0,425.0,820.0,-271.0,1
-61.0,-212.0,15.0,378.0,847.0,-296.0,1
-56.0,-218.0,16.0,347.0,878.0,-324.0,1
-57.0,-229.0,16.0,323.0,910.0,-346.0,1
-60.0,-231.0,23.0,313.0,934.0,-363.0,1
-61.0,-236.0,17.0,308.0,949.0,-377.0,1
-66.0,-231.0,18.0,308.0,962.0,-390.0,1
-60.0,-232.0,24.0,313.0,963.0,-400.0,1
-69.0,-233.0,25.0,327.0,953.0,-408.0,1
-75.0,-227.0,29.0,349.0,931.0,-417.0,1
-79.0,-229.0,37.0,379.0,897.0,-432.0,1
-84.0,-229.0,35.0,426.0,853.0,-444.0,1
-87.0,-226.0,32.0,473.0,802.0,-451.0,1
-94.0,-219.0,26.0,521.0,752.0,-462.0,1
-103.0,-211.0,27.0,566.0,708.0,-474.0,1
-104.0,-205.0,20.0,601.0,667.0,-479.0,1
-109.0,-200.0,24.0,631.0,631.0,-485.0,1
-113.0,-197.0,26.0,653.0,598.0,-489.0,1
-113.0,-194.0,17.0,673.0,570.0,-494.0,1
-114.0,-186.0,27.0,691.0,554.0,-494.0,1
-107.0,-186.0,22.0,719.0,539.0,-500.0,1
-101.0,-182.0,30.0,752.0,535.0,-508.0,1
-94.0,-180.0,23.0,789.0,537.0,-519.0,1
-84.0,-175.0,26.0,833.0,536.0,-540.0,1
-77.0,-171.0,19.0,871.0,541.0,-562.0,1
-63.0,-162.0,20.0,900.0,552.0,-583.0,1
-57.0,-154.0,22.0,926.0,569.0,-613.0,1
-54.0,-150.0,22.0,959.0,586.0,-653.0,1
-53.0,-143.0,33.0,986.0,594.0,-691.0,1
-44.0,-137.0,41.0,1012.0,593.0,-735.0,1
-41.0,-134.0,38.0,1033.0,585.0,-788.0,1
-34.0,-129.0,42.0,1050.0,573.0,-847.0,1
-33.0,-125.0,41.0,1068.0,569.0,-917.0,1
-31.0,-115.0,44.0,1084.0,583.0,-986.0,1
-20.0,-109.0,40.0,1094.0,607.0,-1054.0,1
-11.0,-108.0,36.0,1093.0,647.0,-1130.0,1
-1.0,-111.0,42.0,1088.0,696.0,-1212.0,1
8.0,-113.0,47.0,1082.0,748.0,-1305.0,1
13.0,-114.0,53.0,1087.0,799.0,-1401.0,1
25.0,-115.0,51.0,1100.0,847.0,-1501.0,1
39.0,-117.0,52.0,1115.0,909.0,-1604.0,1
42.0,-113.0,44.0,1119.0,985.0,-1711.0,1
43.0,-103.0,40.0,1116.0,1072.0,-1803.0,1
48.0,-94.0,26.0,1097.0,1159.0,-1882.0,1
58.0,-87.0,5.0,1050.0,1247.0,-1952.0,1
73.0,-78.0,-7.0,960.0,1336.0,-2020.0,1
84.0,-80.0,-15.0,853.0,1419.0,-2083.0,1
95.0,-85.0,-20.0,747.0,1492.0,-2141.0,1
94.0,-99.0,-27.0,652.0,1557.0,-2190.0,1
94.0,-111.0,-27.0,577.0,1615.0,-2230.0,1
95.0,-122.0,-37.0,524.0,1672.0,-2255.0,1
97.0,-140.0,-49.0,478.0,1733.0,-2279.0,1
100.0,-155.0,-61.0,422.0,1810.0,-2305.0,1
98.0,-163.0,-68.0,360.0,1895.0,-2329.0,1
91.0,-165.0,-89.0,299.0,1983.0,-2358.0,1
84.0,-173.0,-112.0,211.0,2077.0,-2383.0,1
66.0,-188.0,-132.0,88.0,2177.0,-2397.0,1
43.0,-219.0,-158.0,-71.0,2281.0,-2397.0,1
16.0,-254.0,-183.0,-262.0,2370.0,-2372.0,1
-11.0,-300.0,-216.0,-497.0,2434.0,-2325.0,1
-68.0,-359.0,-231.0,-782.0,2475.0,-2247.0,1
-145.0,-434.0,-232.0,-1092.0,2462.0,-2113.0,1
-178.0,-529.0,-228.0,-1399.0,2384.0,-1901.0,1
-267.0,-631.0,-206.0,-1718.0,2297.0,-1670.0,1
-358.0,-752.0,-179.0,-2060.0,2211.0,-1327.0,1
-376.0,-891.0,-175.0,-2466.0,2133.0,-872.0,1
-379.0,-1005.0,-153.0,-2904.0,2064.0,-488.0,1
-349.0,-1090.0,-100.0,-3242.0,1951.0,-245.0,1
-262.0,-1137.0,-23.0,-3260.0,1724.0,-157.0,1
-162.0,-1127.0,51.0,-2755.0,1345.0,-228.0,1
-96.0,-1022.0,45.0,-1774.0,904.0,-410.0,1
-39.0,-872.0,21.0,-688.0,457.0,-656.0,1
8.0,-718.0,-7.0,174.0,93.0,-951.0,1
51.0,-561.0,19.0,755.0,-121.0,-1268.0,1
107.0,-419.0,37.0,1131.0,-212.0,-1576.0,1
170.0,-264.0,40.0,1319.0,-166.0,-1849.0,1
228.0,-122.0,24.0,1299.0,59.0,-2086.0,1
258.0,14.0,13.0,1033.0,430.0,-2280.0,1
289.0,128.0,-16.0,561.0,903.0,-2430.0,1
284.0,199.0,-56.0,-56.0,1457.0,-2554.0,1
274.0,225.0,-83.0,-758.0,1997.0,-2662.0,1
247.0,208.0,-99.0,-1445.0,2471.0,-2753.0,1
249.0,167.0,-123.0,-2041.0,2847.0,-2830.0,1
228.0,117.0,-121.0,-2539.0,3104.0,-2913.0,1
217.0,55.0,-105.0,-2926.0,3254.0,-2989.0,1
182.0,-16.0,-63.0,-3173.0,3333.0,-3033.0,1
157.0,-91.0,-3.0,-3242.0,3333.0,-3003.0,1
118.0,-145.0,46.0,-3153.0,3242.0,-2914.0,1
90.0,-188.0,82.0,-2935.0,3075.0,-2786.0,1
55.0,-226.0,102.0,-2626.0,2851.0,-2621.0,1
24.0,-238.0,113.0,-2251.0,2603.0,-2445.0,1
-8.0,-238.0,96.0,-1857.0,2339.0,-2273.0,1
-36.0,-210.0,77.0,-1504.0,2083.0,-2109.0,1
-39.0,-186.0,54.0,-1208.0,1842.0,-1947.0,1
-32.0,-158.0,40.0,-951.0,1654.0,-1809.0,1
-22.0,-124.0,19.0,-733.0,1545.0,-1708.0,1
7.0,-92.0,13.0,-568.0,1502.0,-1638.0,1
37.0,-65.0,11.0,-441.0,1508.0,-1610.0,1
70.0,-47.0,3.0,-348.0,1557.0,-1618.0,1
96.0,-30.0,-3.0,-288.0,1639.0,-1657.0,1
122.0,-23.0,-5.0,-259.0,1727.0,-1719.0,1
131.0,-20.0,-12.0,-248.0,1827.0,-1794.0,1
156.0,-27.0,3.0,-240.0,1926.0,-1876.0,1
164.0,-45.0,12.0,-208.0,2024.0,-1960.0,1
172.0,-54.0,12.0,-147.0,2114.0,-2043.0,1
174.0,-77.0,16.0,-52.0,2191.0,-2116.0,1
169.0,-93.0,24.0,61.0,2249.0,-2171.0,1
162.0,-112.0,18.0,179.0,2290.0,-2207.0,1
156.0,-119.0,16.0,289.0,2320.0,-2237.0,1
147.0,-125.0,9.0,398.0,2338.0,-2258.0,1
137.0,-128.0,5.0,498.0,2349.0,-2277.0,1
122.0,-131.0,-4.0,582.0,2352.0,-2290.0,1
108.0,-125.0,-8.0,652.0,2347.0,-2299.0,1
102.0,-113.0,-17.0,707.0,2339.0,-2301.0,1
87.0,-98.0,-12.0,738.0,2321.0,-2297.0,1
85.0,-81.0,-27.0,726.0,2290.0,-2290.0,1
84.0,-60.0,-38.0,659.0,2247.0,-2288.0,1
92.0,-55.0,-47.0,532.0,2207.0,-2291.0,1
107.0,-57.0,-58.0,359.0,2178.0,-2304.0,1
119.0,-71.0,-61.0,171.0,2168.0,-2326.0,1
142.0,-91.0,-76.0,-3.0,2174.0,-2368.0,1
168.0,-126.0,-80.0,-147.0,2177.0,-2444.0,1
187.0,-153.0,-73.0,-243.0,2155.0,-2543.0,1
225.0,-180.0,-71.0,-295.0,2098.0,-2653.0,1
254.0,-219.0,-77.0,-303.0,2026.0,-2771.0,1
297.0,-260.0,-74.0,-280.0,1947.0,-2868.0,1
326.0,-305.0,-64.0,-238.0,1865.0,-2955.0,1
362.0,-347.0,-46.0,-168.0,1776.0,-3036.0,1
435.0,-406.0,-23.0,-66.0,1671.0,-3116.0,1
505.0,-473.0,3.0,45.0,1616.0,-3236.0,1
579.0,-550.0,44.0,179.0,1645.0,-3416.0,1
631.0,-635.0,111.0,352.0,1758.0,-3653.0,1
655.0,-711.0,206.0,622.0,1893.0,-3898.0,1
659.0,-776.0,297.0,1007.0,1940.0,-4080.0,1
655.0,-798.0,364.0,1526.0,1886.0,-4227.0,1
611.0,-784.0,395.0,2143.0,1756.0,-4315.0,1
503.0,-692.0,357.0,2786.0,1560.0,-4298.0,1
367.0,-561.0,302.0,3319.0,1287.0,-4156.0,1
274.0,-424.0,257.0,3691.0,971.0,-3874.0,1
183.0,-287.0,237.0,3951.0,597.0,-3588.0,1
107.0,-147.0,193.0,4138.0,206.0,-3335.0,1
43.0,-15.0,129.0,4169.0,-164.0,-3162.0,1
3.0,134.0,29.0,3968.0,-481.0,-3077.0,1
28.0,199.0,-20.0,3413.0,-690.0,-3047.0,1
90.0,204.0,-27.0,2653.0,-811.0,-3076.0,1
151.0,171.0,-17.0,1882.0,-878.0,-3176.0,1
191.0,92.0,37.0,1235.0,-854.0,-3249.0,1
224.0,43.0,82.0,821.0,-707.0,-3233.0,1
239.0,31.0,131.0,557.0,-463.0,-3176.0,1
235.0,3.0,153.0,419.0,-144.0,-3119.0,1
260.0,-57.0,171.0,366.0,200.0,-3083.0,1
294.0,-112.0,174.0,401.0,549.0,-3084.0,1
276.0,-141.0,166.0,484.0,857.0,-3116.0,1
275.0,-147.0,177.0,595.0,1064.0,-3168.0,1
258.0,-151.0,188.0,796.0,1180.0,-3240.0,1
217.0,-147.0,169.0,1091.0,1220.0,-3291.0,1
202.0,-117.0,146.0,1348.0,1205.0,-3314.0,1
204.0,-90.0,136.0,1523.0,1163.0,-3319.0,1
195.0,-63.0,128.0,1621.0,1137.0,-3332.0,1
178.0,-46.0,125.0,1676.0,1121.0,-3348.0,1
167.0,-33.0,117.0,1736.0,1091.0,-3363.0,1
159.0,-11.0,110.0,1748.0,1053.0,-3352.0,1
159.0,15.0,124.0,1657.0,1069.0,-3342.0,1
117.0,30.0,140.0,1535.0,1123.0,-3381.0,1
120.0,49.0,125.0,1453.0,1167.0,-3434.0,1
161.0,66.0,124.0,1376.0,1205.0,-3502.0,1
201.0,79.0,127.0,1300.0,1283.0,-3564.0,1
251.0,96.0,136.0,1257.0,1391.0,-3616.0,1
300.0,117.0,137.0,1301.0,1536.0,-3654.0,1
290.0,144.0,133.0,1429.0,1730.0,-3678.0,1
267.0,186.0,117.0,1568.0,1899.0,-3646.0,1
248.0,237.0,91.0,1566.0,1953.0,-3488.0,1
262.0,261.0,88.0,1399.0,1926.0,-3192.0,1
293.0,284.0,91.0,1099.0,1874.0,-2818.0,1
331.0,287.0,87.0,744.0,1809.0,-2373.0,1
389.0,281.0,114.0,430.0,1778.0,-1883.0,1
426.0,260.0,123.0,233.0,1776.0,-1392.0,1
424.0,248.0,161.0,165.0,1835.0,-990.0,1
424.0,223.0,159.0,158.0,1848.0,-707.0,1
391.0,194.0,158.0,209.0,1869.0,-502.0,1
344.0,190.0,164.0,310.0,1830.0,-310.0,1
337.0,162.0,109.0,474.0,1762.0,-57.0,1
353.0,156.0,97.0,519.0,1773.0,84.0,1
324.0,116.0,75.0,603.0,1858.0,63.0,1
292.0,76.0,42.0,651.0,1874.0,18.0,1
237.0,85.0,29.0,553.0,1863.0,-101.0,1
205.0,88.0,52.0,293.0,1878.0,-251.0,1
200.0,125.0,75.0,-6.0,2027.0,-416.0,1
173.0,158.0,102.0,-291.0,2302.0,-536.0,1
122.0,204.0,129.0,-517.0,2610.0,-571.0,1
106.0,220.0,132.0,-630.0,2883.0,-557.0,1
60.0,224.0,117.0,-645.0,3116.0,-507.0,1
19.0,202.0,92.0,-614.0,3233.0,-473.0,1
0.0,192.0,75.0,-567.0,3248.0,-444.0,1
-33.0,188.0,67.0,-513.0,3200.0,-419.0,1
-80.0,184.0,53.0,-446.0,3089.0,-388.0,1
-117.0,191.0,47.0,-379.0,2916.0,-348.0,1
-120.0,203.0,40.0,-312.0,2691.0,-272.0,1
-130.0,202.0,37.0,-251.0,2449.0,-185.0,1
-141.0,209.0,44.0,-184.0,2190.0,-110.0,1
-148.0,203.0,48.0,-124.0,1917.0,-34.0,1
-131.0,203.0,54.0,-70.0,1655.0,28.0,1
-123.0,202.0,51.0,-28.0,1427.0,69.0,1
-112.0,203.0,65.0,-2.0,1234.0,103.0,1
-88.0,199.0,72.0,22.0,1071.0,124.0,1
-69.0,192.0,84.0,40.0,934.0,132.0,1
-52.0,188.0,93.0,55.0,817.0,124.0,1
-32.0,178.0,110.0,58.0,717.0,110.0,1
-15.0,172.0,127.0,53.0,646.0,83.0,1
-8.0,166.0,151.0,46.0,585.0,49.0,1
8.0,161.0,167.0,48.0,540.0,7.0,1
-6.0,157.0,186.0,35.0,502.0,-40.0,1
-1.0,155.0,202.0,7.0,457.0,-78.0,1
10.0,151.0,217.0,-31.0,413.0,-103.0,1
2.0,149.0,239.0,-67.0,385.0,-137.0,1
17.0,150.0,256.0,-87.0,356.0,-156.0,1
27.0,151.0,263.0,-85.0,323.0,-176.0,1
22.0,151.0,274.0,-62.0,292.0,-205.0,1
12.0,162.0,259.0,-40.0,269.0,-225.0,1
17.0,177.0,260.0,-39.0,240.0,-236.0,1
11.0,193.0,245.0,-64.0,215.0,-251.0,1
6.0,202.0,242.0,-99.0,193.0,-274.0,1
-13.0,212.0,233.0,-149.0,173.0,-293.0,1
-22.0,220.0,231.0,-196.0,143.0,-280.0,1
-16.0,226.0,224.0,-234.0,102.0,-242.0,1
-14.0,235.0,214.0,-274.0,61.0,-204.0,1
-21.0,239.0,208.0,-327.0,18.0,-165.0,1
-21.0,237.0,210.0,-377.0,-26.0,-116.0,1
-21.0,229.0,207.0,-403.0,-89.0,-43.0,1
-16.0,221.0,206.0,-415.0,-163.0,26.0,1
-29.0,221.0,210.0,-432.0,-243.0,96.0,1
-30.0,215.0,218.0,-475.0,-348.0,182.0,1
-27.0,199.0,212.0,-539.0,-456.0,259.0,1
-27.0,184.0,213.0,-618.0,-550.0,319.0,1
-14.0,159.0,221.0,-709.0,-626.0,376.0,1
-5.0,142.0,228.0,-785.0,-696.0,417.0,1
0.0,125.0,239.0,-841.0,-760.0,446.0,1
21.0,106.0,239.0,-846.0,-808.0,473.0,1
42.0,94.0,252.0,-809.0,-841.0,485.0,1
54.0,80.0,255.0,-735.0,-864.0,489.0,1
68.0,71.0,251.0,-623.0,-882.0,484.0,1
68.0,65.0,249.0,-465.0,-896.0,481.0,1
77.0,55.0,243.0,-289.0,-926.0,483.0,1
77.0,59.0,238.0,-101.0,-950.0,484.0,1
76.0,58.0,221.0,92.0,-963.0,496.0,1
76.0,62.0,212.0,250.0,-972.0,503.0,1
73.0,65.0,202.0,381.0,-983.0,518.0,1
76.0,72.0,184.0,474.0,-991.0,537.0,1
86.0,76.0,174.0,524.0,-979.0,560.0,1
93.0,84.0,169.0,542.0,-950.0,589.0,1
107.0,94.0,161.0,545.0,-903.0,611.0,1
114.0,100.0,153.0,519.0,-850.0,622.0,1
130.0,98.0,150.0,476.0,-781.0,634.0,1
145.0,95.0,148.0,431.0,-706.0,634.0,1
153.0,94.0,149.0,393.0,-630.0,626.0,1
160.0,88.0,152.0,351.0,-563.0,625.0,1
166.0,81.0,152.0,315.0,-503.0,621.0,1
172.0,74.0,154.0,284.0,-448.0,614.0,1
173.0,76.0,154.0,256.0,-402.0,601.0,1
178.0,69.0,154.0,225.0,-355.0,594.0,1
179.0,62.0,158.0,191.0,-309.0,593.0,1
179.0,60.0,158.0,158.0,-273.0,596.0,1
178.0,58.0,156.0,127.0,-250.0,598.0,1
172.0,54.0,154.0,96.0,-235.0,604.0,1
169.0,48.0,157.0,69.0,-232.0,615.0,1
173.0,50.0,149.0,48.0,-235.0,628.0,1
176.0,47.0,144.0,23.0,-236.0,633.0,1
177.0,47.0,141.0,-1.0,-242.0,640.0,1
177.0,48.0,142.0,-11.0,-246.0,647.0,1
185.0,45.0,141.0,-16.0,-258.0,650.0,1
194.0,43.0,139.0,-18.0,-267.0,649.0,1
199.0,41.0,142.0,-25.0,-264.0,634.0,1
198.0,40.0,141.0,-34.0,-257.0,616.0,1
196.0,35.0,143.0,-46.0,-246.0,597.0,1
201.0,35.0,152.0,-57.0,-233.0,576.0,1
200.0,37.0,149.0,-65.0,-223.0,551.0,1
200.0,29.0,157.0,-68.0,-212.0,530.0,1
201.0,34.0,158.0,-59.0,-207.0,508.0,1
197.0,34.0,164.0,-49.0,-198.0,484.0,1
202.0,39.0,160.0,-33.0,-195.0,466.0,1
210.0,40.0,159.0,-13.0,-193.0,441.0,1
211.0,42.0,160.0,1.0,-177.0,411.0,1
207.0,43.0,164.0,16.0,-160.0,381.0,1
213.0,48.0,164.0,29.0,-147.0,348.0,1
211.0,44.0,153.0,43.0,-134.0,312.0,1
213.0,49.0,161.0,50.0,-119.0,273.0,1
210.0,49.0,152.0,57.0,-106.0,238.0,1
209.0,52.0,148.0,63.0,-97.0,201.0,1
211.0,55.0,143.0,62.0,-89.0,162.0,1
210.0,57.0,142.0,58.0,-81.0,123.0,1
208.0,59.0,143.0,48.0,-74.0,83.0,1
202.0,64.0,143.0,35.0,-69.0,46.0,1
196.0,70.0,140.0,19.0,-67.0,14.0,1
192.0,75.0,139.0,0.0,-66.0,-17.0,1
193.0,71.0,141.0,-22.0,-62.0,-48.0,1
190.0,75.0,143.0,-45.0,-57.0,-76.0,1
187.0,75.0,138.0,-59.0,-48.0,-102.0,1
185.0,79.0,142.0,-71.0,-37.0,-129.0,1
179.0,78.0,140.0,-76.0,-20.0,-152.0,1
177.0,82.0,138.0,-82.0,-2.0,-174.0,1
174.0,84.0,139.0,-88.0,19.0,-192.0,1
174.0,84.0,139.0,-98.0,44.0,-205.0,1
173.0,87.0,140.0,-109.0,73.0,-222.0,1
170.0,90.0,140.0,-119.0,102.0,-233.0,1
168.0,89.0,138.0,-129.0,134.0,-245.0,1
170.0,90.0,144.0,-142.0,166.0,-261.0,1
170.0,91.0,149.0,-150.0,198.0,-270.0,1
168.0,92.0,145.0,-159.0,228.0,-278.0,1
170.0,91.0,147.0,-167.0,254.0,-289.0,1
168.0,86.0,151.0,-174.0,277.0,-299.0,1
165.0,91.0,152.0,-182.0,300.0,-307.0,1
165.0,89.0,149.0,-189.0,322.0,-315.0,1
162.0,92.0,159.0,-196.0,343.0,-321.0,1
159.0,92.0,160.0,-199.0,363.0,-327.0,1
155.0,93.0,157.0,-201.0,378.0,-331.0,1
149.0,92.0,161.0,-202.0,391.0,-331.0,1
146.0,93.0,163.0,-204.0,399.0,-330.0,1
145.0,97.0,165.0,-204.0,406.0,-326.0,1
141.0,99.0,167.0,-206.0,411.0,-320.0,1
139.0,93.0,179.0,-204.0,412.0,-312.0,1
135.0,97.0,170.0,-201.0,412.0,-303.0,1
132.0,99.0,173.0,-202.0,410.0,-292.0,1
129.0,103.0,178.0,-201.0,406.0,-280.0,1
125.0,102.0,180.0,-202.0,402.0,-267.0,1
124.0,100.0,180.0,-200.0,395.0,-253.0,1
122.0,103.0,182.0,-197.0,390.0,-240.0,1
120.0,97.0,184.0,-191.0,382.0,-226.0,1
114.0,100.0,187.0,-184.0,371.0,-214.0,1
112.0,97.0,187.0,-175.0,359.0,-203.0,1
112.0,103.0,193.0,-164.0,348.0,-192.0,1
108.0,95.0,196.0,-153.0,334.0,-182.0,1
108.0,95.0,190.0,-142.0,318.0,-170.0,1
105.0,97.0,193.0,-132.0,302.0,-162.0,1
105.0,94.0,196.0,-122.0,285.0,-152.0,1
103.0,95.0,198.0,-112.0,265.0,-142.0,1
103.0,95.0,193.0,-101.0,247.0,-134.0,1
105.0,91.0,200.0,-92.0,227.0,-123.0,1
100.0,92.0,195.0,-82.0,208.0,-113.0,1
98.0,87.0,198.0,-77.0,189.0,-102.0,1
96.0,95.0,201.0,-66.0,169.0,-92.0,1
102.0,92.0,202.0,-58.0,150.0,-81.0,1
96.0,92.0,196.0,-50.0,132.0,-72.0,1
95.0,90.0,195.0,-47.0,115.0,-61.0,1
94.0,90.0,198.0,-41.0,97.0,-49.0,1
96.0,91.0,196.0,-35.0,82.0,-37.0,1
94.0,91.0,195.0,-33.0,67.0,-28.0,1
94.0,90.0,194.0,-29.0,52.0,-15.0,1
94.0,90.0,193.0,-27.0,39.0,-5.0,1
93.0,93.0,192.0,-24.0,26.0,6.0,1
98.0,95.0,194.0,-23.0,13.0,15.0,1
102.0,89.0,187.0,-25.0,0.0,25.0,1
101.0,95.0,192.0,-24.0,-10.0,33.0,1
103.0,91.0,184.0,-20.0,-20.0,45.0,1
105.0,95.0,192.0,-23.0,-30.0,57.0,1
107.0,92.0,185.0,-24.0,-37.0,68.0,1
109.0,90.0,188.0,-27.0,-45.0,74.0,1
113.0,90.0,185.0,-31.0,-52.0,79.0,1
113.0,90.0,185.0,-35.0,-59.0,85.0,1
115.0,91.0,181.0,-37.0,-65.0,88.0,1
112.0,90.0,182.0,-41.0,-70.0,89.0,1
123.0,87.0,183.0,-46.0,-76.0,91.0,1
124.0,88.0,180.0,-49.0,-78.0,96.0,1
126.0,87.0,179.0,-55.0,-80.0,98.0,1
126.0,88.0,177.0,-59.0,-84.0,100.0,1
131.0,88.0,179.0,-62.0,-85.0,100.0,1
133.0,87.0,172.0,-67.0,-85.0,100.0,1
133.0,87.0,173.0,-72.0,-86.0,98.0,1
137.0,81.0,172.0,-78.0,-88.0,97.0,1
138.0,85.0,173.0,-83.0,-87.0,90.0,1
137.0,87.0,175.0,-86.0,-87.0,93.0,1
142.0,87.0,174.0,-92.0,-88.0,90.0,1
144.0,86.0,169.0,-96.0,-87.0,89.0,1
144.0,82.0,174.0,-101.0,-83.0,86.0,1
144.0,81.0,168.0,-103.0,-82.0,83.0,1
146.0,80.0,173.0,-104.0,-78.0,80.0,1
148.0,80.0,174.0,-105.0,-73.0,75.0,1
149.0,79.0,167.0,-103.0,-70.0,71.0,1
150.0,79.0,165.0,-103.0,-67.0,65.0,1
152.0,81.0,170.0,-102.0,-63.0,62.0,1
153.0,80.0,164.0,-101.0,-58.0,55.0,1
151.0,79.0,168.0,-103.0,-52.0,47.0,1
151.0,80.0,168.0,-102.0,-46.0,42.0,1
154.0,79.0,169.0,-99.0,-40.0,38.0,1
155.0,77.0,164.0,-93.0,-37.0,35.0,1
157.0,81.0,170.0,-92.0,-31.0,31.0,1
153.0,80.0,171.0,-87.0,-27.0,23.0,1
155.0,78.0,166.0,-87.0,-22.0,18.0,1
154.0,78.0,166.0,-85.0,-15.0,12.0,1
150.0,79.0,166.0,-81.0,-7.0,6.0,1
153.0,77.0,165.0,-78.0,1.0,-1.0,1
149.0,78.0,167.0,-77.0,11.0,-6.0,1
152.0,78.0,167.0,-74.0,21.0,-12.0,1
150.0,77.0,168.0,-72.0,28.0,-18.0,1
147.0,76.0,163.0,-69.0,36.0,-25.0,1
145.0,80.0,174.0,-66.0,44.0,-28.0,1
143.0,84.0,170.0,-65.0,47.0,-31.0,1
143.0,79.0,171.0,-65.0,50.0,-33.0,1
144.0,76.0,170.0,-63.0,54.0,-36.0,1
143.0,78.0,171.0,-62.0,56.0,-38.0,1
144.0,78.0,169.0,-60.0,59.0,-39.0,1
143.0,77.0,172.0,-59.0,65.0,-43.0,1
143.0,81.0,173.0,-59.0,72.0,-45.0,1
137.0,83.0,173.0,-62.0,80.0,-48.0,1
140.0,80.0,169.0,-67.0,85.0,-52.0,1
141.0,83.0,174.0,-69.0,90.0,-53.0,1
139.0,80.0,177.0,-73.0,93.0,-57.0,1
137.0,82.0,177.0,-77.0,97.0,-59.0,1
137.0,83.0,178.0,-80.0,99.0,-59.0,1
134.0,87.0,178.0,-79.0,100.0,-60.0,1
134.0,83.0,177.0,-80.0,99.0,-59.0,1
135.0,84.0,176.0,-76.0,100.0,-59.0,1
134.0,88.0,177.0,-76.0,99.0,-59.0,1
134.0,80.0,178.0,-74.0,97.0,-58.0,1
130.0,81.0,178.0,-74.0,94.0,-57.0,1
127.0,87.0,178.0,-72.0,96.0,-56.0,1
130.0,86.0,179.0,-73.0,93.0,-56.0,1
129.0,83.0,174.0,-73.0,92.0,-55.0,1
130.0,84.0,171.0,-75.0,91.0,-54.0,1
125.0,86.0,176.0,-75.0,90.0,-51.0,1
126.0,83.0,181.0,-74.0,87.0,-50.0,1
125.0,85.0,179.0,-74.0,84.0,-46.0,1
124.0,85.0,180.0,-73.0,83.0,-44.0,1
122.0,87.0,184.0,-71.0,79.0,-43.0,1
120.0,86.0,184.0,-69.0,76.0,-40.0,1
123.0,84.0,184.0,-70.0,72.0,-37.0,1
123.0,86.0,180.0,-67.0,69.0,-33.0,1
124.0,88.0,185.0,-66.0,63.0,-30.0,1
125.0,85.0,182.0,-66.0,59.0,-27.0,1
122.0,85.0,179.0,-65.0,55.0,-22.0,1
122.0,83.0,184.0,-63.0,50.0,-21.0,1
123.0,83.0,183.0,-61.0,44.0,-17.0,1
123.0,83.0,183.0,-61.0,40.0,-14.0,1
123.0,86.0,185.0,-60.0,35.0,-12.0,1
123.0,86.0,185.0,-61.0,30.0,-10.0,1
123.0,84.0,180.0,-61.0,25.0,-7.0,1
122.0,84.0,181.0,-63.0,21.0,-3.0,1
123.0,85.0,182.0,-65.0,16.0,0.0,1
124.0,84.0,183.0,-66.0,13.0,2.0,1
122.0,86.0,185.0,-67.0,9.0,5.0,1
122.0,84.0,183.0,-64.0,7.0,8.0,1
123.0,86.0,180.0,-63.0,2.0,11.0,1
126.0,84.0,176.0,-62.0,-2.0,14.0,1
128.0,82.0,180.0,-61.0,-5.0,14.0,1
127.0,81.0,180.0,-59.0,-9.0,17.0,1
127.0,83.0,181.0,-57.0,-12.0,17.0,1
124.0,83.0,179.0,-58.0,-14.0,18.0,1
129.0,83.0,175.0,-55.0,-16.0,18.0,1
128.0,82.0,176.0,-56.0,-16.0,20.0,1
130.0,84.0,178.0,-56.0,-16.0,21.0,1
128.0,84.0,178.0,-55.0,-16.0,22.0,1
129.0,83.0,178.0,-54.0,-15.0,23.0,1
130.0,83.0,177.0,-53.0,-14.0,25.0,1
129.0,85.0,179.0,-53.0,-14.0,25.0,1
132.0,84.0,176.0,-55.0,-13.0,26.0,1
132.0,83.0,178.0,-59.0,-14.0,27.0,1
130.0,82.0,179.0,-61.0,-13.0,26.0,1
132.0,80.0,178.0,-64.0,-13.0,25.0,1
134.0,83.0,180.0,-65.0,-12.0,26.0,1
133.0,83.0,174.0,-67.0,-13.0,25.0,1
133.0,82.0,176.0,-66.0,-13.0,23.0,1
136.0,84.0,176.0,-64.0,-13.0,24.0,1
136.0,83.0,178.0,-64.0,-14.0,22.0,1
135.0,83.0,176.0,-65.0,-14.0,19.0,1
135.0,84.0,177.0,-66.0,-13.0,18.0,1
136.0,82.0,172.0,-66.0,-12.0,16.0,1
137.0,81.0,174.0,-66.0,-13.0,15.0,1
137.0,85.0,176.0,-68.0,-10.0,14.0,1
136.0,83.0,173.0,-71.0,-10.0,12.0,1
140.0,82.0,178.0,-73.0,-9.0,10.0,1
136.0,85.0,177.0,-77.0,-7.0,10.0,1
136.0,81.0,172.0,-80.0,-4.0,8.0,1
133.0,81.0,180.0,-83.0,-2.0,6.0,1
139.0,79.0,175.0,-85.0,1.0,4.0,1
137.0,79.0,177.0,-87.0,5.0,0.0,1
138.0,77.0,178.0,-85.0,5.0,1.0,1
137.0,78.0,175.0,-83.0,7.0,1.0,1
137.0,78.0,176.0,-78.0,9.0,1.0,1
137.0,78.0,180.0,-74.0,10.0,1.0,1
137.0,78.0,175.0,-68.0,11.0,0.0,1
135.0,81.0,177.0,-63.0,14.0,0.0,1
134.0,77.0,177.0,-58.0,15.0,1.0,1
137.0,77.0,176.0,-55.0,16.0,1.0,1
137.0,78.0,178.0,-54.0,19.0,1.0,1
137.0,80.0,176.0,-54.0,21.0,0.0,1
136.0,80.0,176.0,-54.0,21.0,1.0,1
136.0,82.0,173.0,-55.0,26.0,2.0,1
137.0,80.0,176.0,-57.0,28.0,0.0,1
135.0,80.0,176.0,-58.0,31.0,0.0,1
136.0,79.0,174.0,-60.0,32.0,0.0,1
137.0,78.0,177.0,-60.0,34.0,1.0,1
131.0,82.0,177.0,-59.0,37.0,1.0,1
135.0,81.0,178.0,-58.0,38.0,1.0,1
131.0,81.0,179.0,-55.0,41.0,2.0,1
132.0,83.0,173.0,-54.0,41.0,2.0,1
134.0,75.0,178.0,-53.0,43.0,2.0,1
133.0,79.0,175.0,-50.0,43.0,1.0,1
133.0,78.0,177.0,-46.0,43.0,0.0,1
135.0,77.0,177.0,-43.0,43.0,-1.0,1
135.0,77.0,178.0,-41.0,43.0,-2.0,1
135.0,78.0,174.0,-38.0,42.0,-3.0,1
135.0,76.0,176.0,-33.0,40.0,-5.0,1
136.0,79.0,181.0,-31.0,38.0,-8.0,1
136.0,78.0,175.0,-29.0,38.0,-8.0,1
134.0,80.0,177.0,-29.0,37.0,-10.0,1
139.0,83.0,180.0,-32.0,37.0,-11.0,1
137.0,82.0,176.0,-36.0,36.0,-12.0,1
133.0,85.0,177.0,-43.0,39.0,-13.0,1
136.0,84.0,179.0,-52.0,42.0,-13.0,1
134.0,84.0,178.0,-60.0,45.0,-16.0,1
135.0,84.0,183.0,-69.0,49.0,-16.0,1
133.0,85.0,183.0,-77.0,52.0,-16.0,1
134.0,88.0,183.0,-81.0,54.0,-16.0,1
132.0,87.0,185.0,-85.0,52.0,-16.0,1
129.0,85.0,182.0,-86.0,51.0,-15.0,1
130.0,84.0,180.0,-85.0,46.0,-16.0,1
124.0,81.0,182.0,-87.0,42.0,-16.0,1
132.0,87.0,178.0,-85.0,41.0,-17.0,1
124.0,84.0,180.0,-85.0,39.0,-17.0,1
124.0,86.0,176.0,-82.0,37.0,-16.0,1
119.0,85.0,176.0,-77.0,32.0,-15.0,1
121.0,82.0,177.0,-74.0,27.0,-13.0,1
120.0,83.0,178.0,-72.0,19.0,-7.0,1
117.0,86.0,180.0,-70.0,9.0,-5.0,1
121.0,85.0,185.0,-70.0,0.0,-2.0,1
122.0,85.0,180.0,-68.0,-8.0,2.0,1
123.0,83.0,178.0,-66.0,-10.0,5.0,1
125.0,84.0,182.0,-65.0,-10.0,5.0,1
122.0,87.0,178.0,-65.0,-8.0,6.0,1
122.0,86.0,181.0,-69.0,-4.0,6.0,1
126.0,85.0,182.0,-73.0,-1.0,8.0,1
125.0,87.0,180.0,-73.0,1.0,9.0,1
126.0,82.0,181.0,-76.0,4.0,6.0,1
125.0,85.0,178.0,-77.0,8.0,10.0,1
127.0,83.0,184.0,-77.0,10.0,11.0,1
128.0,80.0,183.0,-74.0,11.0,13.0,1
129.0,82.0,183.0,-68.0,12.0,17.0,1
122.0,82.0,185.0,-63.0,13.0,20.0,1
129.0,80.0,185.0,-55.0,15.0,24.0,1
130.0,78.0,179.0,-48.0,16.0,25.0,1
134.0,78.0,185.0,-42.0,16.0,27.0,1
133.0,79.0,179.0,-35.0,18.0,27.0,1
134.0,76.0,178.0,-30.0,18.0,27.0,1
135.0,75.0,180.0,-27.0,22.0,27.0,1
135.0,75.0,178.0,-20.0,24.0,27.0,1
134.0,77.0,175.0,-18.0,26.0,25.0,1
138.0,76.0,184.0,-18.0,28.0,22.0,1
134.0,75.0,177.0,-15.0,31.0,22.0,1
143.0,82.0,181.0,-16.0,31.0,18.0,1
137.0,77.0,177.0,-14.0,31.0,12.0,1
135.0,76.0,175.0,-15.0,33.0,10.0,1
134.0,78.0,179.0,-14.0,35.0,5.0,1
133.0,80.0,176.0,-17.0,35.0,1.0,1
132.0,77.0,178.0,-17.0,33.0,-2.0,1
133.0,76.0,177.0,-19.0,32.0,-4.0,1
129.0,77.0,177.0,-20.0,29.0,-4.0,1
129.0,80.0,178.0,-24.0,28.0,-7.0,1
132.0,79.0,172.0,-26.0,26.0,-8.0,1
132.0,79.0,177.0,-28.0,22.0,-9.0,1
130.0,78.0,173.0,-31.0,18.0,-10.0,1
133.0,80.0,180.0,-34.0,17.0,-10.0,1
132.0,80.0,178.0,-38.0,13.0,-13.0,1
133.0,81.0,173.0,-42.0,12.0,-14.0,1
137.0,82.0,176.0,-46.0,12.0,-17.0,1
131.0,81.0,176.0,-50.0,12.0,-18.0,1
134.0,82.0,179.0,-55.0,13.0,-19.0,1
137.0,78.0,176.0,-58.0,13.0,-22.0,1
136.0,79.0,182.0,-60.0,14.0,-23.0,1
134.0,80.0,179.0,-56.0,14.0,-24.0,1
140.0,78.0,178.0,-55.0,13.0,-24.0,1
130.0,85.0,178.0,-54.0,12.0,-23.0,1
134.0,78.0,179.0,-52.0,10.0,-23.0,1
134.0,77.0,177.0,-51.0,11.0,-25.0,1
133.0,80.0,175.0,-50.0,11.0,-23.0,1
135.0,78.0,176.0,-48.0,13.0,-25.0,1
134.0,83.0,177.0,-45.0,17.0,-25.0,1
133.0,81.0,173.0,-44.0,20.0,-24.0,1
135.0,78.0,177.0,-43.0,23.0,-27.0,1
134.0,80.0,177.0,-41.0,27.0,-27.0,1
131.0,82.0,176.0,-42.0,29.0,-28.0,1
134.0,78.0,178.0,-45.0,32.0,-26.0,1
136.0,82.0,183.0,-46.0,33.0,-26.0,1
132.0,82.0,177.0,-46.0,33.0,-29.0,1
131.0,81.0,178.0,-46.0,34.0,-28.0,1
132.0,80.0,178.0,-48.0,34.0,-26.0,1
130.0,83.0,181.0,-44.0,33.0,-27.0,1
132.0,83.0,174.0,-45.0,33.0,-26.0,1
130.0,83.0,179.0,-44.0,33.0,-24.0,1
131.0,80.0,181.0,-44.0,32.0,-22.0,1
132.0,84.0,182.0,-43.0,34.0,-22.0,1
132.0,80.0,180.0,-44.0,34.0,-22.0,1
130.0,81.0,175.0,-44.0,33.0,-22.0,1
131.0,85.0,184.0,-44.0,34.0,-22.0,1
129.0,82.0,179.0,-46.0,34.0,-21.0,1
131.0,80.0,177.0,-45.0,33.0,-22.0,1
131.0,82.0,181.0,-49.0,35.0,-22.0,1
129.0,82.0,176.0,-48.0,36.0,-21.0,1
130.0,82.0,178.0,-47.0,36.0,-21.0,1
128.0,81.0,178.0,-48.0,36.0,-21.0,1
126.0,81.0,180.0,-47.0,35.0,-23.0,1
130.0,82.0,184.0,-44.0,35.0,-21.0,1
128.0,82.0,180.0,-44.0,34.0,-20.0,1
126.0,84.0,179.0,-42.0,33.0,-20.0,1
126.0,88.0,169.0,-42.0,33.0,-18.0,1
131.0,79.0,182.0,-42.0,33.0,-17.0,1
128.0,81.0,179.0,-44.0,33.0,-18.0,1
130.0,80.0,180.0,-44.0,33.0,-17.0,1
130.0,83.0,179.0,-41.0,32.0,-16.0,1
130.0,79.0,178.0,-43.0,32.0,-15.0,1
127.0,80.0,182.0,-46.0,31.0,-14.0,1
127.0,83.0,178.0,-46.0,31.0,-14.0,1
131.0,83.0,182.0,-47.0,31.0,-14.0,1
132.0,83.0,178.0,-47.0,31.0,-13.0,1
128.0,83.0,179.0,-47.0,32.0,-12.0,1
131.0,80.0,180.0,-48.0,32.0,-12.0,1
132.0,78.0,177.0,-50.0,31.0,-11.0,1
129.0,80.0,177.0,-49.0,30.0,-11.0,1
132.0,78.0,180.0,-50.0,30.0,-10.0,1
131.0,81.0,180.0,-48.0,28.0,-10.0,1
129.0,78.0,178.0,-48.0,25.0,-8.0,1
128.0,78.0,178.0,-46.0,23.0,-8.0,1
128.0,79.0,184.0,-46.0,21.0,-8.0,1
129.0,80.0,179.0,-43.0,18.0,-6.0,1
128.0,79.0,180.0,-40.0,17.0,-6.0,1
126.0,79.0,180.0,-40.0,15.0,-5.0,1
128.0,80.0,174.0,-37.0,14.0,-6.0,1
131.0,79.0,181.0,-35.0,14.0,-5.0,1
130.0,80.0,179.0,-35.0,15.0,-7.0,1
130.0,80.0,178.0,-37.0,17.0,-6.0,1
131.0,79.0,179.0,-40.0,18.0,-6.0,1
130.0,82.0,177.0,-40.0,22.0,-8.0,1
129.0,81.0,176.0,-39.0,26.0,-8.0,1
131.0,81.0,182.0,-39.0,27.0,-8.0,1
130.0,83.0,179.0,-39.0,27.0,-9.0,1
130.0,80.0,181.0,-38.0,28.0,-8.0,1
134.0,78.0,181.0,-38.0,28.0,-10.0,1
127.0,83.0,180.0,-37.0,29.0,-8.0,1
132.0,82.0,175.0,-38.0,27.0,-18.0,1
132.0,81.0,176.0,-35.0,29.0,-12.0,1
131.0,80.0,176.0,-33.0,29.0,-9.0,1
127.0,81.0,179.0,-31.0,25.0,-7.0,1
132.0,81.0,180.0,-32.0,25.0,-5.0,1
130.0,84.0,180.0,-32.0,23.0,-5.0,1
131.0,86.0,178.0,-33.0,23.0,-4.0,1
131.0,81.0,183.0,-34.0,23.0,-3.0,1
129.0,82.0,175.0,-34.0,23.0,-2.0,1
124.0,79.0,183.0,-33.0,23.0,-3.0,1
131.0,82.0,180.0,-32.0,21.0,-3.0,1
127.0,83.0,182.0,-33.0,21.0,-2.0,1
130.0,83.0,176.0,-33.0,22.0,-2.0,1
132.0,83.0,176.0,-34.0,22.0,-1.0,1
132.0,83.0,178.0,-35.0,23.0,-2.0,1
129.0,84.0,179.0,-36.0,23.0,-3.0,1
134.0,84.0,179.0,-38.0,25.0,-3.0,1
131.0,81.0,181.0,-38.0,28.0,-5.0,1
129.0,82.0,183.0,-39.0,30.0,-4.0,1
131.0,77.0,179.0,-37.0,31.0,-3.0,1
129.0,80.0,179.0,-36.0,31.0,-2.0,1
130.0,81.0,177.0,-33.0,28.0,1.0,1
130.0,80.0,184.0,-34.0,25.0,2.0,1
128.0,81.0,181.0,-35.0,21.0,5.0,1
128.0,80.0,180.0,-36.0,17.0,6.0,1
127.0,78.0,181.0,-34.0,14.0,7.0,1
126.0,79.0,178.0,-32.0,14.0,7.0,1
123.0,81.0,176.0,-29.0,16.0,6.0,1
127.0,84.0,177.0,-28.0,19.0,5.0,1
126.0,82.0,180.0,-29.0,22.0,3.0,1
129.0,81.0,183.0,-30.0,22.0,1.0,1
131.0,79.0,180.0,-33.0,25.0,1.0,1
128.0,82.0,180.0,-38.0,24.0,0.0,1
127.0,83.0,181.0,-39.0,25.0,-1.0,1
128.0,82.0,183.0,-39.0,24.0,-1.0,1
131.0,77.0,181.0,-39.0,24.0,-3.0,1
131.0,79.0,179.0,-35.0,22.0,-1.0,1
132.0,81.0,178.0,-30.0,21.0,-2.0,1
130.0,82.0,183.0,-27.0,22.0,-1.0,1
131.0,83.0,177.0,-24.0,20.0,-2.0,1
130.0,83.0,181.0,-23.0,18.0,-1.0,1
130.0,82.0,180.0,-22.0,20.0,-1.0,1
130.0,86.0,173.0,-24.0,22.0,-2.0,1
132.0,83.0,179.0,-23.0,21.0,-2.0,1
130.0,81.0,176.0,-23.0,23.0,-2.0,1
131.0,81.0,180.0,-25.0,23.0,-4.0,1
131.0,82.0,178.0,-24.0,23.0,-3.0,1
129.0,82.0,178.0,-24.0,22.0,-3.0,1
131.0,83.0,177.0,-26.0,24.0,-3.0,1
130.0,84.0,179.0,-23.0,25.0,-2.0,1
131.0,83.0,181.0,-26.0,25.0,-2.0,1
132.0,80.0,180.0,-27.0,26.0,-2.0,1
134.0,80.0,175.0,-25.0,26.0,-3.0,1
134.0,79.0,182.0,-24.0,27.0,-4.0,1
130.0,81.0,177.0,-24.0,29.0,-6.0,1
131.0,81.0,174.0,-24.0,29.0,-8.0,1
133.0,82.0,180.0,-26.0,35.0,-10.0,1
131.0,82.0,179.0,-25.0,36.0,-12.0,1
133.0,81.0,175.0,-25.0,38.0,-14.0,1
135.0,84.0,179.0,-26.0,39.0,-16.0,1
130.0,82.0,178.0,-28.0,41.0,-18.0,1
131.0,82.0,177.0,-29.0,42.0,-19.0,1
130.0,84.0,183.0,-30.0,44.0,-20.0,1
129.0,83.0,177.0,-33.0,44.0,-22.0,1
134.0,84.0,179.0,-34.0,44.0,-21.0,1
129.0,83.0,176.0,-32.0,43.0,-21.0,1
127.0,86.0,177.0,-31.0,43.0,-20.0,1
129.0,82.0,175.0,-28.0,41.0,-19.0,1
127.0,82.0,179.0,-27.0,39.0,-18.0,1
127.0,83.0,178.0,-26.0,37.0,-16.0,1
127.0,85.0,176.0,-27.0,36.0,-16.0,1
129.0,85.0,177.0,-28.0,35.0,-15.0,1
129.0,86.0,180.0,-30.0,33.0,-14.0,1
129.0,84.0,182.0,-30.0,34.0,-16.0,1
129.0,80.0,181.0,-31.0,34.0,-17.0,1
133.0,78.0,182.0,-32.0,36.0,-19.0,1
128.0,81.0,182.0,-35.0,36.0,-20.0,1
128.0,81.0,180.0,-43.0,37.0,-23.0,1
124.0,85.0,183.0,-48.0,37.0,-29.0,1
127.0,85.0,185.0,-55.0,34.0,-30.0,1
124.0,86.0,182.0,-66.0,30.0,-29.0,1
125.0,85.0,183.0,-71.0,27.0,-30.0,1
125.0,83.0,183.0,-77.0,22.0,-30.0,1
125.0,85.0,179.0,-78.0,18.0,-29.0,1
126.0,84.0,181.0,-79.0,12.0,-27.0,1
126.0,84.0,184.0,-79.0,7.0,-25.0,1
128.0,82.0,181.0,-78.0,3.0,-21.0,1
126.0,84.0,180.0,-77.0,0.0,-18.0,1
126.0,83.0,184.0,-76.0,-3.0,-16.0,1
128.0,81.0,179.0,-76.0,-4.0,-14.0,1
129.0,80.0,178.0,-76.0,-5.0,-12.0,1
129.0,78.0,178.0,-74.0,-5.0,-10.0,1
128.0,80.0,180.0,-73.0,-5.0,-7.0,1
132.0,81.0,179.0,-70.0,-6.0,-6.0,1
130.0,82.0,183.0,-65.0,-4.0,-3.0,1
131.0,84.0,184.0,-62.0,-4.0,-3.0,1
134.0,80.0,176.0,-58.0,-4.0,-1.0,1
129.0,83.0,175.0,-52.0,-2.0,0.0,1
129.0,82.0,173.0,-48.0,-1.0,2.0,1
131.0,84.0,177.0,-44.0,0.0,1.0,1
132.0,81.0,178.0,-41.0,2.0,2.0,1
129.0,83.0,182.0,-40.0,6.0,3.0,1
131.0,83.0,176.0,-39.0,9.0,5.0,1
128.0,80.0,173.0,-37.0,10.0,5.0,1
128.0,82.0,177.0,-37.0,11.0,5.0,1
131.0,82.0,183.0,-36.0,11.0,4.0,1
132.0,80.0,176.0,-36.0,14.0,5.0,1
132.0,83.0,177.0,-33.0,15.0,3.0,1
134.0,83.0,179.0,-34.0,17.0,2.0,1
132.0,86.0,180.0,-32.0,18.0,1.0,1
133.0,82.0,179.0,-30.0,21.0,2.0,1
134.0,85.0,179.0,-31.0,22.0,0.0,1
132.0,84.0,176.0,-33.0,24.0,0.0,1
133.0,83.0,176.0,-32.0,24.0,1.0,1
135.0,85.0,178.0,-33.0,26.0,0.0,1
135.0,86.0,182.0,-34.0,27.0,-3.0,1
132.0,83.0,180.0,-37.0,28.0,-4.0,1
132.0,82.0,179.0,-37.0,27.0,-5.0,1
128.0,86.0,177.0,-37.0,28.0,-7.0,1
132.0,79.0,179.0,-39.0,29.0,-8.0,1
132.0,81.0,176.0,-40.0,28.0,-9.0,1
129.0,86.0,179.0,-41.0,29.0,-10.0,1
129.0,81.0,181.0,-43.0,30.0,-11.0,1
127.0,84.0,182.0,-42.0,30.0,-11.0,1
128.0,82.0,178.0,-44.0,31.0,-10.0,1
126.0,82.0,177.0,-45.0,30.0,-12.0,1
127.0,81.0,177.0,-46.0,29.0,-13.0,1
128.0,84.0,183.0,-48.0,30.0,-12.0,1
129.0,80.0,174.0,-48.0,30.0,-12.0,1
130.0,80.0,183.0,-47.0,29.0,-12.0,1
127.0,82.0,181.0,-47.0,30.0,-12.0,1
127.0,84.0,182.0,-48.0,30.0,-13.0,1
128.0,81.0,180.0,-51.0,31.0,-13.0,1
127.0,82.0,182.0,-47.0,31.0,-12.0,1
126.0,84.0,180.0,-49.0,30.0,-12.0,1
129.0,79.0,181.0,-48.0,30.0,-10.0,1
130.0,81.0,179.0,-47.0,29.0,-11.0,1
126.0,85.0,179.0,-46.0,28.0,-11.0,1
127.0,84.0,180.0,-46.0,28.0,-10.0,1
130.0,82.0,177.0,-46.0,28.0,-9.0,1
128.0,82.0,178.0,-44.0,28.0,-8.0,1
130.0,81.0,181.0,-45.0,27.0,-8.0,1
125.0,82.0,178.0,-43.0,26.0,-7.0,1
128.0,82.0,182.0,-42.0,26.0,-8.0,1
125.0,83.0,182.0,-41.0,25.0,-8.0,1
127.0,81.0,177.0,-41.0,28.0,-7.0,1
129.0,85.0,179.0,-38.0,26.0,-5.0,1
129.0,83.0,181.0,-38.0,25.0,-6.0,1
128.0,83.0,179.0,-37.0,24.0,-6.0,1
128.0,85.0,180.0,-38.0,24.0,-5.0,1
127.0,82.0,180.0,-38.0,24.0,-5.0,1
133.0,82.0,179.0,-38.0,23.0,-5.0,1
128.0,83.0,180.0,-38.0,23.0,-5.0,1
128.0,83.0,178.0,-37.0,22.0,-4.0,1
128.0,83.0,180.0,-37.0,22.0,-4.0,1
128.0,82.0,182.0,-39.0,22.0,-4.0,1
129.0,83.0,182.0,-39.0,23.0,-3.0,1
128.0,83.0,178.0,-41.0,22.0,-4.0,1
129.0,83.0,180.0,-42.0,21.0,-4.0,1
128.0,83.0,177.0,-43.0,20.0,-3.0,1
128.0,83.0,179.0,-42.0,21.0,-3.0,1
128.0,83.0,179.0,-43.0,21.0,-4.0,1
125.0,89.0,178.0,-43.0,19.0,-3.0,1
126.0,87.0,180.0,-44.0,19.0,-3.0,1
126.0,84.0,178.0,-45.0,18.0,-5.0,1
126.0,86.0,179.0,-48.0,18.0,-5.0,1
129.0,83.0,180.0,-49.0,17.0,-5.0,1
130.0,82.0,182.0,-50.0,18.0,-6.0,1
128.0,81.0,175.0,-49.0,18.0,-4.0,1
127.0,84.0,177.0,-50.0,18.0,-5.0,1
128.0,84.0,175.0,-51.0,18.0,-4.0,1
130.0,83.0,178.0,-53.0,18.0,-5.0,1
130.0,83.0,177.0,-53.0,18.0,-6.0,1
123.0,81.0,183.0,-54.0,18.0,-5.0,1
129.0,82.0,182.0,-54.0,18.0,-5.0,1
126.0,82.0,181.0,-54.0,19.0,-5.0,1
127.0,80.0,182.0,-51.0,20.0,-5.0,1
128.0,83.0,180.0,-49.0,18.0,-4.0,1
128.0,82.0,178.0,-47.0,17.0,-3.0,1
131.0,81.0,179.0,-46.0,17.0,-3.0,1
124.0,81.0,178.0,-46.0,17.0,-5.0,1
130.0,81.0,184.0,-44.0,16.0,-4.0,1
127.0,83.0,179.0,-44.0,17.0,-4.0,1
126.0,83.0,180.0,-42.0,15.0,-3.0,1
131.0,83.0,181.0,-43.0,16.0,-3.0,1
128.0,83.0,177.0,-41.0,14.0,-3.0,1
128.0,84.0,179.0,-43.0,13.0,-2.0,1
130.0,81.0,180.0,-45.0,14.0,-2.0,1
130.0,81.0,178.0,-46.0,16.0,-3.0,1
127.0,85.0,181.0,-47.0,15.0,-4.0,1
128.0,82.0,176.0,-46.0,19.0,-5.0,1
132.0,82.0,180.0,-46.0,22.0,-5.0,1
129.0,83.0,176.0,-45.0,23.0,-6.0,1
129.0,82.0,181.0,-41.0,25.0,-7.0,1
129.0,78.0,180.0,-38.0,24.0,-7.0,1
123.0,83.0,181.0,-36.0,23.0,-7.0,1
126.0,79.0,179.0,-37.0,23.0,-6.0,1
130.0,79.0,179.0,-38.0,20.0,-6.0,1
127.0,81.0,182.0,-40.0,17.0,-5.0,1
127.0,80.0,183.0,-40.0,15.0,-5.0,1
128.0,81.0,180.0,-38.0,14.0,-5.0,1
126.0,80.0,181.0,-36.0,16.0,-4.0,1
127.0,82.0,182.0,-38.0,18.0,-5.0,1
129.0,81.0,177.0,-42.0,21.0,-7.0,1
129.0,84.0,182.0,-45.0,26.0,-10.0,1
127.0,89.0,179.0,-50.0,26.0,-17.0,1
129.0,82.0,178.0,-54.0,27.0,-11.0,1
129.0,83.0,179.0,-56.0,27.0,-12.0,1
130.0,82.0,180.0,-58.0,24.0,-17.0,1
133.0,83.0,182.0,-58.0,26.0,-15.0,1
129.0,82.0,182.0,-54.0,24.0,-9.0,1
129.0,85.0,180.0,-48.0,18.0,-6.0,1
128.0,83.0,177.0,-46.0,16.0,-5.0,1
129.0,81.0,175.0,-44.0,14.0,-4.0,1
131.0,80.0,179.0,-41.0,12.0,-4.0,1
131.0,79.0,176.0,-41.0,13.0,-3.0,1
125.0,88.0,178.0,-42.0,13.0,-3.0,1
129.0,85.0,179.0,-43.0,16.0,-5.0,1
130.0,83.0,180.0,-44.0,16.0,-6.0,1
128.0,88.0,180.0,-47.0,18.0,-7.0,1
128.0,83.0,176.0,-48.0,20.0,-7.0,1
127.0,85.0,178.0,-52.0,21.0,-9.0,1
127.0,86.0,179.0,-52.0,23.0,-8.0,1
125.0,85.0,182.0,-53.0,22.0,-9.0,1
129.0,80.0,176.0,-54.0,22.0,-6.0,1
127.0,83.0,173.0,-54.0,22.0,-5.0,1
126.0,81.0,181.0,-54.0,21.0,-3.0,1
128.0,84.0,175.0,-56.0,20.0,-3.0,1
126.0,84.0,175.0,-54.0,19.0,-2.0,1
127.0,82.0,181.0,-54.0,18.0,-1.0,1
129.0,81.0,180.0,-53.0,17.0,-2.0,1
128.0,83.0,181.0,-53.0,17.0,-1.0,1
127.0,82.0,178.0,-53.0,16.0,-1.0,1
126.0,83.0,181.0,-53.0,16.0,-3.0,1
128.0,82.0,179.0,-55.0,15.0,-3.0,1
130.0,84.0,179.0,-56.0,15.0,-2.0,1
130.0,83.0,180.0,-57.0,16.0,-2.0,1
125.0,82.0,181.0,-60.0,16.0,-2.0,1
127.0,75.0,180.0,-59.0,15.0,-2.0,1
128.0,80.0,177.0,-58.0,15.0,-2.0,1
129.0,79.0,179.0,-56.0,14.0,-2.0,1
128.0,82.0,182.0,-56.0,13.0,0.0,1
127.0,82.0,179.0,-54.0,12.0,2.0,1
131.0,81.0,181.0,-52.0,12.0,1.0,1
129.0,80.0,174.0,-50.0,11.0,0.0,1
129.0,84.0,176.0,-50.0,11.0,0.0,1
131.0,81.0,183.0,-48.0,11.0,-3.0,1
130.0,81.0,178.0,-48.0,10.0,-1.0,1
131.0,79.0,183.0,-49.0,10.0,-1.0,1
125.0,81.0,178.0,-50.0,10.0,-3.0,1
130.0,83.0,181.0,-52.0,10.0,-4.0,1
133.0,81.0,177.0,-53.0,10.0,-4.0,1
127.0,79.0,178.0,-54.0,13.0,-4.0,1
130.0,82.0,180.0,-53.0,13.0,-5.0,1
127.0,81.0,178.0,-54.0,15.0,-3.0,1
130.0,81.0,180.0,-54.0,14.0,-4.0,1
129.0,82.0,179.0,-55.0,14.0,-5.0,1
131.0,82.0,182.0,-55.0,15.0,-6.0,1
130.0,81.0,184.0,-56.0,14.0,-5.0,1
127.0,86.0,177.0,-57.0,12.0,-6.0,1
127.0,85.0,185.0,-55.0,13.0,-4.0,1
131.0,79.0,179.0,-57.0,12.0,-4.0,1
127.0,85.0,178.0,-55.0,12.0,-4.0,1
128.0,83.0,179.0,-54.0,11.0,-3.0,1
128.0,84.0,177.0,-51.0,12.0,-4.0,1
130.0,80.0,177.0,-50.0,13.0,-2.0,1
128.0,83.0,179.0,-49.0,14.0,-3.0,1
129.0,80.0,177.0,-47.0,14.0,-3.0,1
129.0,79.0,178.0,-47.0,16.0,-5.0,1
130.0,81.0,179.0,-48.0,15.0,-5.0,1
132.0,80.0,183.0,-47.0,17.0,-6.0,1
128.0,79.0,180.0,-47.0,15.0,-6.0,1
129.0,81.0,180.0,-47.0,17.0,-5.0,1
128.0,84.0,177.0,-47.0,18.0,-6.0,1
129.0,82.0,178.0,-47.0,19.0,-6.0,1
130.0,81.0,181.0,-46.0,19.0,-6.0,1
129.0,82.0,178.0,-45.0,18.0,-5.0,1
128.0,82.0,180.0,-44.0,21.0,-5.0,1
123.0,84.0,178.0,-41.0,20.0,-6.0,1
130.0,82.0,179.0,-39.0,18.0,-6.0,1
129.0,82.0,181.0,-38.0,18.0,-7.0,1
126.0,81.0,179.0,-37.0,18.0,-6.0,1
129.0,91.0,175.0,-37.0,19.0,-6.0,1
128.0,82.0,183.0,-37.0,20.0,-7.0,1
128.0,84.0,177.0,-38.0,21.0,-7.0,1
129.0,82.0,178.0,-39.0,21.0,-7.0,1
128.0,82.0,177.0,-39.0,22.0,-8.0,1
128.0,82.0,182.0,-39.0,23.0,-8.0,1
130.0,83.0,178.0,-38.0,23.0,-9.0,1
128.0,82.0,183.0,-40.0,24.0,-10.0,1
128.0,83.0,179.0,-42.0,24.0,-9.0,1
127.0,83.0,183.0,-43.0,26.0,-10.0,1
127.0,87.0,183.0,-44.0,25.0,-10.0,1
123.0,88.0,174.0,-45.0,26.0,-11.0,1
126.0,85.0,179.0,-47.0,26.0,-11.0,1
127.0,84.0,179.0,-48.0,27.0,-10.0,1
128.0,84.0,178.0,-50.0,27.0,-9.0,1
126.0,84.0,181.0,-53.0,27.0,-11.0,1
130.0,79.0,179.0,-54.0,27.0,-11.0,1
129.0,80.0,178.0,-55.0,28.0,-10.0,1
126.0,82.0,182.0,-54.0,28.0,-10.0,1
128.0,80.0,179.0,-53.0,28.0,-8.0,1
130.0,81.0,183.0,-49.0,27.0,-7.0,1
125.0,78.0,173.0,-46.0,27.0,-6.0,1
131.0,79.0,176.0,-41.0,25.0,-8.0,1
127.0,81.0,183.0,-36.0,25.0,-5.0,1
128.0,81.0,181.0,-33.0,24.0,-4.0,1
129.0,81.0,183.0,-31.0,24.0,-3.0,1
128.0,82.0,178.0,-28.0,24.0,-3.0,1
128.0,84.0,177.0,-28.0,25.0,-2.0,1
128.0,80.0,178.0,-28.0,24.0,-1.0,1
128.0,84.0,184.0,-30.0,25.0,-2.0,1
129.0,83.0,176.0,-32.0,27.0,-2.0,1
127.0,85.0,180.0,-37.0,29.0,-3.0,1
140.0,81.0,181.0,-41.0,30.0,-3.0,1
127.0,84.0,182.0,-46.0,31.0,-5.0,1
130.0,83.0,179.0,-51.0,31.0,-4.0,1
129.0,81.0,180.0,-59.0,31.0,-5.0,1
125.0,86.0,173.0,-68.0,28.0,-4.0,1
124.0,83.0,183.0,-77.0,26.0,-5.0,1
128.0,81.0,186.0,-89.0,22.0,-5.0,1
123.0,81.0,183.0,-100.0,18.0,-6.0,1
127.0,76.0,183.0,-109.0,16.0,-9.0,1
123.0,81.0,184.0,-113.0,15.0,-12.0,1
126.0,75.0,183.0,-117.0,16.0,-13.0,1
118.0,74.0,181.0,-124.0,17.0,-24.0,1
131.0,76.0,179.0,-142.0,23.0,-36.0,1
120.0,81.0,183.0,-152.0,26.0,-37.0,1
129.0,78.0,185.0,-161.0,30.0,-30.0,1
131.0,72.0,181.0,-155.0,35.0,-29.0,1
133.0,75.0,181.0,-145.0,44.0,-31.0,1
135.0,71.0,179.0,-132.0,51.0,-30.0,1
134.0,70.0,182.0,-119.0,57.0,-34.0,1
134.0,70.0,181.0,-99.0,59.0,-45.0,1
133.0,71.0,177.0,-74.0,59.0,-45.0,1
132.0,71.0,178.0,-46.0,59.0,-53.0,1
132.0,76.0,188.0,-18.0,59.0,-55.0,1
129.0,76.0,176.0,3.0,59.0,-57.0,1
130.0,78.0,169.0,21.0,62.0,-59.0,1
129.0,82.0,176.0,27.0,67.0,-62.0,1
126.0,83.0,172.0,25.0,71.0,-62.0,1
125.0,85.0,175.0,17.0,77.0,-64.0,1
127.0,86.0,179.0,6.0,79.0,-64.0,1
120.0,90.0,185.0,-7.0,81.0,-63.0,1
123.0,85.0,185.0,-18.0,77.0,-64.0,1
127.0,91.0,187.0,-30.0,72.0,-58.0,1
128.0,88.0,189.0,-40.0,71.0,-51.0,1
126.0,88.0,182.0,-53.0,70.0,-49.0,1
127.0,91.0,186.0,-65.0,65.0,-43.0,1
133.0,89.0,188.0,-69.0,55.0,-37.0,1
129.0,87.0,185.0,-65.0,40.0,-31.0,1
130.0,90.0,182.0,-57.0,28.0,-27.0,1
129.0,87.0,182.0,-50.0,17.0,-25.0,1
128.0,88.0,177.0,-45.0,7.0,-22.0,1
121.0,92.0,177.0,-44.0,1.0,-20.0,1
125.0,89.0,174.0,-47.0,-2.0,-21.0,1
122.0,91.0,178.0,-51.0,-1.0,-22.0,1
124.0,85.0,174.0,-58.0,5.0,-27.0,1
125.0,93.0,177.0,-62.0,10.0,-32.0,1
121.0,89.0,177.0,-62.0,18.0,-34.0,1
123.0,87.0,176.0,-62.0,26.0,-36.0,1
120.0,85.0,178.0,-59.0,33.0,-37.0,1
124.0,86.0,175.0,-59.0,41.0,-38.0,1
124.0,84.0,177.0,-58.0,47.0,-37.0,1
122.0,85.0,177.0,-58.0,53.0,-35.0,1
123.0,89.0,183.0,-62.0,53.0,-32.0,1
120.0,87.0,184.0,-69.0,51.0,-29.0,1
121.0,86.0,187.0,-76.0,48.0,-27.0,1
121.0,85.0,187.0,-83.0,42.0,-25.0,1
124.0,80.0,180.0,-85.0,37.0,-23.0,1
124.0,82.0,186.0,-86.0,32.0,-20.0,1
122.0,81.0,185.0,-84.0,30.0,-21.0,1
124.0,81.0,183.0,-86.0,31.0,-22.0,1
124.0,82.0,185.0,-87.0,30.0,-24.0,1
125.0,81.0,185.0,-90.0,31.0,-25.0,1
125.0,80.0,181.0,-94.0,29.0,-26.0,1
125.0,82.0,185.0,-92.0,25.0,-27.0,1
124.0,81.0,183.0,-90.0,21.0,-25.0,1
126.0,83.0,184.0,-86.0,16.0,-23.0,1
123.0,80.0,184.0,-85.0,13.0,-21.0,1
126.0,79.0,185.0,-81.0,10.0,-20.0,1
124.0,80.0,185.0,-76.0,7.0,-16.0,1
126.0,79.0,182.0,-70.0,6.0,-16.0,1
129.0,79.0,181.0,-65.0,7.0,-14.0,1
127.0,82.0,178.0,-60.0,7.0,-12.0,1
126.0,81.0,179.0,-60.0,8.0,-9.0,1
126.0,82.0,183.0,-57.0,8.0,-7.0,1
128.0,83.0,172.0,-56.0,9.0,-5.0,1
127.0,84.0,177.0,-57.0,11.0,-4.0,1
129.0,81.0,177.0,-60.0,13.0,-1.0,1
129.0,82.0,175.0,-64.0,15.0,-1.0,1
129.0,80.0,173.0,-69.0,18.0,-3.0,1
125.0,83.0,183.0,-76.0,20.0,-5.0,1
125.0,82.0,184.0,-81.0,24.0,-3.0,1
127.0,80.0,182.0,-84.0,25.0,-2.0,1
125.0,80.0,182.0,-84.0,24.0,0.0,1
126.0,78.0,183.0,-84.0,22.0,2.0,1
128.0,79.0,181.0,-82.0,20.0,3.0,1
125.0,82.0,186.0,-82.0,17.0,7.0,1
125.0,80.0,185.0,-80.0,14.0,9.0,1
121.0,82.0,179.0,-78.0,10.0,9.0,1
127.0,76.0,187.0,-80.0,9.0,10.0,1
127.0,79.0,179.0,-78.0,7.0,11.0,1
126.0,79.0,183.0,-77.0,8.0,10.0,1
127.0,78.0,180.0,-76.0,11.0,8.0,1
128.0,80.0,183.0,-73.0,14.0,8.0,1
127.0,80.0,184.0,-73.0,15.0,8.0,1
125.0,78.0,182.0,-71.0,17.0,7.0,1
128.0,80.0,182.0,-72.0,16.0,9.0,1
127.0,84.0,186.0,-72.0,16.0,10.0,1
125.0,78.0,181.0,-72.0,15.0,11.0,1
122.0,81.0,187.0,-73.0,13.0,11.0,1
124.0,79.0,182.0,-75.0,12.0,12.0,1
124.0,80.0,182.0,-74.0,11.0,13.0,1
125.0,79.0,181.0,-77.0,10.0,12.0,1
123.0,81.0,182.0,-79.0,8.0,10.0,1
124.0,80.0,180.0,-84.0,9.0,4.0,1
126.0,80.0,185.0,-92.0,8.0,4.0,1
123.0,81.0,185.0,-92.0,3.0,7.0,1
124.0,82.0,182.0,-92.0,1.0,9.0,1
123.0,77.0,178.0,-93.0,-1.0,12.0,1
118.0,83.0,180.0,-96.0,-2.0,8.0,1
116.0,84.0,182.0,-102.0,-6.0,8.0,1
122.0,78.0,186.0,-94.0,-9.0,13.0,1
122.0,81.0,181.0,-91.0,-8.0,15.0,1
124.0,78.0,183.0,-96.0,-5.0,12.0,1
122.0,78.0,182.0,-94.0,-9.0,16.0,1
125.0,79.0,179.0,-93.0,-12.0,16.0,1
127.0,77.0,180.0,-91.0,-13.0,15.0,1
123.0,78.0,182.0,-92.0,-14.0,10.0,1
123.0,84.0,180.0,-91.0,-13.0,13.0,1
119.0,81.0,179.0,-88.0,-13.0,14.0,1
126.0,79.0,180.0,-85.0,-10.0,15.0,1
123.0,81.0,182.0,-83.0,-5.0,8.0,1
126.0,80.0,176.0,-79.0,-5.0,13.0,1
126.0,77.0,180.0,-72.0,-3.0,14.0,1
123.0,81.0,180.0,-67.0,-2.0,14.0,1
125.0,80.0,179.0,-64.0,1.0,11.0,1
123.0,81.0,181.0,-61.0,4.0,8.0,1
127.0,80.0,180.0,-60.0,8.0,8.0,1
124.0,82.0,182.0,-62.0,12.0,3.0,1
129.0,78.0,181.0,-65.0,13.0,6.0,1
123.0,79.0,181.0,-65.0,14.0,8.0,1
124.0,81.0,184.0,-63.0,13.0,9.0,1
126.0,81.0,181.0,-62.0,12.0,12.0,1
129.0,77.0,186.0,-60.0,10.0,14.0,1
127.0,76.0,186.0,-59.0,10.0,17.0,1
127.0,76.0,181.0,-56.0,9.0,17.0,1
130.0,77.0,182.0,-48.0,8.0,19.0,1
128.0,75.0,181.0,-46.0,8.0,18.0,1
132.0,78.0,185.0,-44.0,11.0,16.0,1
133.0,76.0,184.0,-42.0,13.0,17.0,1
128.0,76.0,183.0,-42.0,15.0,15.0,1
134.0,76.0,182.0,-41.0,17.0,11.0,1
132.0,76.0,183.0,-42.0,17.0,8.0,1
132.0,76.0,181.0,-45.0,19.0,4.0,1
126.0,78.0,176.0,-48.0,19.0,2.0,1
130.0,79.0,184.0,-51.0,17.0,1.0,1
128.0,79.0,183.0,-56.0,15.0,-2.0,1
128.0,80.0,183.0,-61.0,13.0,-5.0,1
130.0,80.0,186.0,-66.0,10.0,-6.0,1
127.0,78.0,184.0,-70.0,7.0,-5.0,1
126.0,78.0,180.0,-72.0,4.0,-6.0,1
127.0,79.0,184.0,-76.0,2.0,-7.0,1
122.0,80.0,183.0,-77.0,-1.0,-8.0,1
125.0,78.0,189.0,-76.0,-2.0,-6.0,1
123.0,77.0,180.0,-75.0,-3.0,-7.0,1
126.0,78.0,178.0,-71.0,-5.0,-6.0,1
124.0,77.0,180.0,-67.0,-5.0,-4.0,1
121.0,75.0,181.0,-63.0,-5.0,-6.0,1
125.0,76.0,179.0,-57.0,-4.0,-5.0,1
122.0,78.0,183.0,-53.0,-1.0,-5.0,1
123.0,76.0,180.0,-45.0,2.0,-3.0,1
124.0,75.0,180.0,-41.0,3.0,-4.0,1
123.0,74.0,182.0,-38.0,4.0,-3.0,1
122.0,74.0,179.0,-35.0,7.0,-2.0,1
123.0,77.0,177.0,-33.0,8.0,-2.0,1
126.0,75.0,182.0,-31.0,12.0,2.0,1
124.0,79.0,185.0,-28.0,13.0,2.0,1
128.0,75.0,182.0,-26.0,14.0,3.0,1
128.0,76.0,181.0,-25.0,15.0,5.0,1
124.0,77.0,184.0,-25.0,15.0,5.0,1
126.0,78.0,181.0,-23.0,14.0,6.0,1
125.0,78.0,182.0,-21.0,15.0,8.0,1
129.0,78.0,184.0,-21.0,15.0,7.0,1
126.0,77.0,177.0,-21.0,15.0,8.0,1
129.0,79.0,180.0,-23.0,14.0,9.0,1
125.0,78.0,186.0,-22.0,12.0,8.0,1
130.0,77.0,182.0,-23.0,14.0,5.0,1
139.0,80.0,179.0,-22.0,15.0,6.0,1
127.0,77.0,181.0,-22.0,16.0,4.0,1
127.0,78.0,181.0,-23.0,16.0,4.0,1
125.0,78.0,182.0,-24.0,17.0,4.0,1
128.0,75.0,178.0,-23.0,18.0,1.0,1
127.0,79.0,182.0,-24.0,19.0,1.0,1
130.0,80.0,183.0,-25.0,18.0,1.0,1
127.0,78.0,181.0,-26.0,18.0,1.0,1
126.0,78.0,180.0,-26.0,18.0,0.0,1
129.0,78.0,181.0,-28.0,19.0,0.0,1
127.0,78.0,179.0,-29.0,20.0,0.0,1
131.0,76.0,188.0,-31.0,18.0,-1.0,1
130.0,78.0,181.0,-30.0,20.0,-2.0,1
128.0,76.0,180.0,-32.0,21.0,-2.0,1
129.0,79.0,178.0,-34.0,22.0,-3.0,1
129.0,77.0,183.0,-34.0,22.0,-3.0,1
128.0,79.0,182.0,-34.0,22.0,-4.0,1
127.0,80.0,179.0,-35.0,22.0,-3.0,1
126.0,77.0,183.0,-36.0,22.0,-4.0,1
126.0,78.0,175.0,-36.0,22.0,-4.0,1
128.0,77.0,181.0,-35.0,20.0,-5.0,1
123.0,81.0,178.0,-35.0,21.0,-5.0,1
129.0,76.0,180.0,-34.0,21.0,-7.0,1
127.0,78.0,183.0,-37.0,23.0,-10.0,1
126.0,80.0,181.0,-35.0,22.0,-7.0,1
127.0,78.0,179.0,-35.0,22.0,-8.0,1
127.0,81.0,181.0,-32.0,25.0,-8.0,1
127.0,79.0,183.0,-34.0,26.0,-10.0,1
128.0,78.0,181.0,-35.0,29.0,-13.0,1
128.0,79.0,178.0,-33.0,32.0,-14.0,1
126.0,82.0,182.0,-33.0,35.0,-15.0,1
123.0,77.0,186.0,-32.0,37.0,-17.0,1
127.0,78.0,187.0,-32.0,38.0,-18.0,1
126.0,77.0,181.0,-30.0,37.0,-18.0,1
128.0,77.0,181.0,-32.0,37.0,-17.0,1
126.0,79.0,182.0,-32.0,34.0,-17.0,1
125.0,78.0,183.0,-34.0,29.0,-14.0,1
123.0,77.0,184.0,-38.0,26.0,-10.0,1
124.0,77.0,185.0,-40.0,22.0,-9.0,1
126.0,76.0,182.0,-39.0,20.0,-10.0,1
126.0,78.0,181.0,-37.0,18.0,-9.0,1
126.0,78.0,180.0,-38.0,20.0,-20.0,1
126.0,77.0,181.0,-39.0,22.0,-13.0,1
128.0,76.0,175.0,-44.0,23.0,-13.0,1
124.0,78.0,181.0,-47.0,23.0,-12.0,1
125.0,78.0,182.0,-48.0,25.0,-11.0,1
128.0,78.0,183.0,-49.0,23.0,-11.0,1
129.0,78.0,185.0,-48.0,21.0,-12.0,1
128.0,78.0,181.0,-47.0,21.0,-11.0,1
127.0,77.0,182.0,-43.0,21.0,-12.0,1
127.0,77.0,183.0,-38.0,19.0,-9.0,1
129.0,78.0,184.0,-33.0,18.0,-10.0,1
128.0,79.0,180.0,-30.0,18.0,-8.0,1
128.0,79.0,181.0,-26.0,16.0,-8.0,1
129.0,80.0,182.0,-26.0,17.0,-7.0,1
125.0,80.0,180.0,-27.0,18.0,-5.0,1
127.0,77.0,179.0,-27.0,19.0,-5.0,1
130.0,80.0,178.0,-28.0,20.0,-7.0,1
128.0,82.0,178.0,-29.0,22.0,-6.0,1
127.0,81.0,183.0,-29.0,23.0,-5.0,1
126.0,82.0,182.0,-30.0,24.0,-6.0,1
125.0,82.0,182.0,-30.0,24.0,-6.0,1
125.0,82.0,179.0,-34.0,26.0,-5.0,1
125.0,82.0,181.0,-34.0,27.0,-5.0,1
128.0,78.0,184.0,-34.0,28.0,-5.0,1
128.0,83.0,183.0,-36.0,26.0,-3.0,1
125.0,79.0,178.0,-36.0,26.0,-2.0,1
126.0,77.0,182.0,-36.0,25.0,-1.0,1
127.0,79.0,180.0,-38.0,26.0,-2.0,1
125.0,81.0,180.0,-38.0,25.0,-1.0,1
128.0,81.0,183.0,-37.0,26.0,-2.0,1
130.0,76.0,183.0,-37.0,25.0,-3.0,1
128.0,80.0,180.0,-38.0,25.0,-5.0,1
128.0,78.0,181.0,-38.0,24.0,-4.0,1
131.0,79.0,177.0,-40.0,25.0,-5.0,1
124.0,78.0,184.0,-42.0,24.0,-6.0,1
129.0,79.0,182.0,-41.0,22.0,-5.0,1
127.0,79.0,178.0,-44.0,23.0,-7.0,1
123.0,80.0,181.0,-45.0,24.0,-7.0,1
125.0,80.0,183.0,-44.0,25.0,-7.0,1
128.0,78.0,178.0,-45.0,25.0,-7.0,1
126.0,78.0,184.0,-44.0,25.0,-6.0,1
128.0,80.0,181.0,-42.0,24.0,-6.0,1
125.0,81.0,186.0,-41.0,21.0,-6.0,1
128.0,79.0,179.0,-40.0,22.0,-5.0,1
127.0,80.0,179.0,-41.0,21.0,-4.0,1
121.0,81.0,181.0,-41.0,19.0,-5.0,1
129.0,77.0,173.0,-39.0,20.0,-5.0,1
128.0,77.0,184.0,-40.0,20.0,-6.0,1
126.0,77.0,182.0,-40.0,20.0,-6.0,1
127.0,76.0,180.0,-41.0,23.0,-6.0,1
122.0,78.0,186.0,-40.0,25.0,-7.0,1
124.0,81.0,181.0,-42.0,25.0,-9.0,1
125.0,79.0,179.0,-43.0,25.0,-9.0,1
122.0,76.0,179.0,-46.0,26.0,-10.0,1
124.0,80.0,178.0,-46.0,25.0,-10.0,1
125.0,76.0,180.0,-46.0,24.0,-10.0,1
122.0,76.0,182.0,-45.0,23.0,-16.0,1
128.0,84.0,191.0,-44.0,22.0,-10.0,1
126.0,79.0,185.0,-43.0,20.0,-9.0,1
127.0,78.0,183.0,-44.0,20.0,-8.0,1
124.0,83.0,183.0,-42.0,18.0,-7.0,1
129.0,77.0,182.0,-42.0,17.0,-6.0,1
125.0,79.0,182.0,-42.0,16.0,-5.0,1
129.0,77.0,182.0,-41.0,16.0,-6.0,1
129.0,79.0,187.0,-42.0,15.0,-6.0,1
124.0,81.0,182.0,-40.0,17.0,-8.0,1
123.0,80.0,181.0,-41.0,19.0,-7.0,1
123.0,79.0,181.0,-41.0,18.0,-5.0,1
129.0,79.0,180.0,-41.0,19.0,-7.0,1
128.0,78.0,180.0,-41.0,20.0,-7.0,1
127.0,81.0,187.0,-38.0,19.0,-7.0,1
124.0,80.0,183.0,-40.0,20.0,-7.0,1
126.0,80.0,178.0,-38.0,21.0,-7.0,1
129.0,80.0,185.0,-38.0,22.0,-6.0,1
129.0,78.0,180.0,-37.0,22.0,-6.0,1
127.0,80.0,181.0,-36.0,21.0,-4.0,1
125.0,80.0,181.0,-35.0,20.0,-6.0,1
129.0,79.0,186.0,-35.0,20.0,-6.0,1
126.0,81.0,192.0,-33.0,19.0,-6.0,1
126.0,82.0,181.0,-36.0,20.0,-5.0,1
125.0,81.0,182.0,-37.0,20.0,-5.0,1
128.0,81.0,181.0,-35.0,20.0,-6.0,1
128.0,82.0,180.0,-36.0,21.0,-6.0,1
124.0,80.0,183.0,-38.0,22.0,-7.0,1
126.0,78.0,180.0,-40.0,23.0,-7.0,1
124.0,80.0,180.0,-41.0,23.0,-7.0,1
121.0,81.0,179.0,-45.0,26.0,-13.0,1
122.0,82.0,185.0,-50.0,26.0,-10.0,1
121.0,81.0,183.0,-46.0,22.0,-7.0,1
127.0,74.0,173.0,-46.0,21.0,-5.0,1
128.0,79.0,184.0,-44.0,22.0,-6.0,1
126.0,82.0,181.0,-44.0,21.0,-5.0,1
127.0,78.0,182.0,-44.0,21.0,-5.0,1
125.0,80.0,183.0,-42.0,20.0,-6.0,1
127.0,80.0,183.0,-42.0,20.0,-4.0,1
126.0,79.0,182.0,-42.0,19.0,-4.0,1
123.0,78.0,184.0,-43.0,21.0,-3.0,1
128.0,79.0,181.0,-43.0,21.0,-3.0,1
124.0,78.0,180.0,-45.0,23.0,-4.0,1
125.0,78.0,181.0,-41.0,24.0,-4.0,1
123.0,81.0,185.0,-41.0,23.0,-5.0,1
124.0,78.0,184.0,-41.0,23.0,-5.0,1
126.0,79.0,181.0,-41.0,24.0,-6.0,1
125.0,81.0,179.0,-41.0,23.0,-4.0,1
124.0,78.0,182.0,-40.0,23.0,-6.0,1
127.0,78.0,181.0,-40.0,23.0,-6.0,1
127.0,77.0,181.0,-41.0,23.0,-5.0,1
125.0,77.0,182.0,-39.0,23.0,-6.0,1
130.0,80.0,184.0,-38.0,22.0,-6.0,1
130.0,80.0,181.0,-39.0,22.0,-6.0,1
124.0,78.0,179.0,-38.0,23.0,-7.0,1
131.0,79.0,181.0,-36.0,22.0,-6.0,1
125.0,82.0,182.0,-34.0,21.0,-6.0,1
126.0,78.0,180.0,-35.0,21.0,-6.0,1
126.0,80.0,181.0,-35.0,22.0,-7.0,1
125.0,81.0,181.0,-34.0,22.0,-7.0,1
125.0,79.0,178.0,-34.0,22.0,-8.0,1
124.0,82.0,187.0,-35.0,21.0,-10.0,1
130.0,78.0,182.0,-35.0,21.0,-9.0,1
124.0,84.0,182.0,-34.0,23.0,-8.0,1
123.0,82.0,180.0,-36.0,22.0,-7.0,1
128.0,78.0,184.0,-39.0,22.0,-7.0,1
124.0,81.0,180.0,-39.0,21.0,-7.0,1
126.0,82.0,181.0,-42.0,21.0,-4.0,1
124.0,81.0,182.0,-42.0,20.0,-5.0,1
126.0,85.0,183.0,-44.0,21.0,-4.0,1
124.0,80.0,179.0,-41.0,21.0,-3.0,1
126.0,82.0,182.0,-43.0,22.0,-5.0,1
126.0,81.0,182.0,-44.0,22.0,-6.0,1
123.0,81.0,180.0,-45.0,24.0,-7.0,1
124.0,82.0,183.0,-50.0,23.0,-13.0,1
127.0,80.0,183.0,-51.0,24.0,-8.0,1
127.0,77.0,181.0,-48.0,22.0,-6.0,1
124.0,76.0,178.0,-46.0,21.0,-7.0,1
126.0,80.0,185.0,-44.0,22.0,-8.0,1
126.0,83.0,183.0,-44.0,22.0,-8.0,1
124.0,79.0,180.0,-43.0,21.0,-7.0,1
122.0,80.0,185.0,-41.0,22.0,-6.0,1
125.0,82.0,183.0,-43.0,22.0,-4.0,1
127.0,78.0,184.0,-42.0,21.0,-6.0,1
127.0,79.0,186.0,-42.0,20.0,-6.0,1
124.0,78.0,182.0,-41.0,20.0,-5.0,1
125.0,82.0,182.0,-40.0,18.0,-5.0,1
127.0,79.0,184.0,-39.0,19.0,-5.0,1
136.0,78.0,177.0,-40.0,19.0,-5.0,1
126.0,81.0,180.0,-43.0,17.0,-4.0,1
127.0,81.0,185.0,-44.0,18.0,-5.0,1
126.0,81.0,179.0,-44.0,19.0,-6.0,1
125.0,80.0,182.0,-45.0,22.0,-7.0,1
126.0,81.0,180.0,-48.0,24.0,-8.0,1
125.0,80.0,184.0,-46.0,24.0,-8.0,1
123.0,80.0,182.0,-42.0,25.0,-7.0,1
124.0,80.0,182.0,-41.0,27.0,-7.0,1
127.0,79.0,181.0,-42.0,26.0,-8.0,1
128.0,77.0,185.0,-41.0,21.0,-6.0,1
125.0,81.0,182.0,-41.0,20.0,-5.0,1
126.0,77.0,186.0,-42.0,17.0,-4.0,1
124.0,78.0,185.0,-45.0,14.0,-4.0,1
126.0,78.0,181.0,-43.0,11.0,-5.0,1
121.0,78.0,181.0,-38.0,10.0,-3.0,1
124.0,77.0,179.0,-38.0,12.0,-2.0,1
124.0,78.0,180.0,-39.0,15.0,-5.0,1
125.0,82.0,182.0,-43.0,17.0,-6.0,1
127.0,78.0,178.0,-47.0,20.0,-7.0,1
124.0,79.0,184.0,-51.0,22.0,-8.0,1
121.0,80.0,181.0,-53.0,21.0,-8.0,1
124.0,78.0,183.0,-53.0,21.0,-10.0,1
126.0,78.0,184.0,-52.0,20.0,-9.0,1
124.0,81.0,183.0,-48.0,19.0,-10.0,1
125.0,78.0,183.0,-44.0,16.0,-7.0,1
125.0,79.0,181.0,-42.0,13.0,-7.0,1
126.0,78.0,181.0,-40.0,12.0,-6.0,1
123.0,83.0,184.0,-39.0,12.0,-7.0,1
126.0,78.0,182.0,-38.0,11.0,-6.0,1
125.0,79.0,180.0,-36.0,14.0,-6.0,1
126.0,80.0,182.0,-38.0,14.0,-6.0,1
125.0,82.0,180.0,-37.0,15.0,-6.0,1
128.0,80.0,186.0,-38.0,18.0,-6.0,1
123.0,78.0,181.0,-38.0,19.0,-7.0,1
125.0,82.0,182.0,-41.0,20.0,-6.0,1
126.0,79.0,181.0,-42.0,22.0,-7.0,1
125.0,80.0,181.0,-43.0,24.0,-5.0,1
124.0,80.0,184.0,-44.0,24.0,-5.0,1
125.0,82.0,181.0,-43.0,23.0,-5.0,1
126.0,85.0,183.0,-44.0,24.0,-5.0,1
126.0,79.0,182.0,-44.0,23.0,-3.0,1
125.0,81.0,182.0,-41.0,22.0,-2.0,1
126.0,79.0,178.0,-41.0,23.0,-3.0,1
125.0,78.0,181.0,-41.0,22.0,-4.0,1
128.0,80.0,181.0,-42.0,21.0,-4.0,1
128.0,84.0,182.0,-42.0,20.0,-2.0,1
125.0,80.0,181.0,-40.0,22.0,-3.0,1
126.0,82.0,183.0,-41.0,21.0,-3.0,1
126.0,79.0,182.0,-43.0,22.0,-2.0,1
125.0,82.0,179.0,-44.0,22.0,-2.0,1
124.0,82.0,179.0,-45.0,22.0,-2.0,1
127.0,83.0,184.0,-50.0,22.0,-2.0,1
124.0,79.0,179.0,-50.0,24.0,-5.0,1
129.0,85.0,177.0,-51.0,24.0,-6.0,1
125.0,79.0,181.0,-52.0,22.0,-5.0,1
124.0,79.0,182.0,-51.0,22.0,-3.0,1
124.0,81.0,180.0,-49.0,20.0,-4.0,1
122.0,78.0,181.0,-47.0,18.0,-3.0,1
125.0,81.0,177.0,-43.0,17.0,-4.0,1
126.0,81.0,180.0,-44.0,16.0,-3.0,1
123.0,83.0,183.0,-46.0,18.0,-4.0,1
126.0,82.0,184.0,-47.0,17.0,-5.0,1
125.0,79.0,182.0,-49.0,18.0,-6.0,1
125.0,81.0,181.0,-50.0,16.0,-4.0,1
119.0,77.0,182.0,-50.0,17.0,-4.0,1
123.0,81.0,181.0,-53.0,17.0,-5.0,1
124.0,81.0,182.0,-53.0,18.0,-5.0,1
129.0,78.0,182.0,-52.0,18.0,-6.0,1
124.0,82.0,180.0,-53.0,19.0,-5.0,1
124.0,79.0,181.0,-54.0,19.0,-7.0,1
122.0,81.0,180.0,-58.0,18.0,-6.0,1
121.0,77.0,181.0,-58.0,17.0,-7.0,1
123.0,79.0,178.0,-59.0,15.0,-7.0,1
124.0,79.0,179.0,-60.0,14.0,-7.0,1
124.0,81.0,183.0,-61.0,13.0,-5.0,1
130.0,78.0,182.0,-61.0,13.0,-5.0,1
125.0,80.0,185.0,-58.0,13.0,-5.0,1
127.0,80.0,186.0,-56.0,12.0,-4.0,1
123.0,82.0,184.0,-55.0,11.0,-4.0,1
127.0,79.0,185.0,-53.0,12.0,-3.0,1
123.0,81.0,183.0,-52.0,12.0,-4.0,1
126.0,79.0,182.0,-53.0,13.0,-3.0,1
127.0,79.0,182.0,-53.0,14.0,-3.0,1
126.0,78.0,185.0,-54.0,13.0,-2.0,1
126.0,80.0,181.0,-53.0,13.0,-3.0,1
128.0,79.0,186.0,-56.0,13.0,-4.0,1
123.0,74.0,186.0,-56.0,13.0,-3.0,1
128.0,78.0,183.0,-54.0,13.0,-4.0,1
126.0,80.0,181.0,-54.0,13.0,-4.0,1
126.0,82.0,181.0,-55.0,13.0,-3.0,1
125.0,79.0,180.0,-53.0,13.0,-2.0,1
125.0,80.0,181.0,-52.0,13.0,-2.0,1
126.0,80.0,180.0,-51.0,13.0,-3.0,1
126.0,77.0,182.0,-52.0,12.0,-2.0,1
124.0,80.0,177.0,-52.0,11.0,-1.0,1
123.0,80.0,179.0,-53.0,10.0,0.0,1
123.0,80.0,185.0,-54.0,10.0,-1.0,1
128.0,81.0,188.0,-54.0,10.0,-1.0,1
127.0,78.0,184.0,-52.0,11.0,-1.0,1
126.0,80.0,181.0,-54.0,13.0,-2.0,1
126.0,79.0,181.0,-53.0,13.0,-2.0,1
129.0,77.0,182.0,-54.0,13.0,-2.0,1
126.0,79.0,183.0,-56.0,15.0,-2.0,1
128.0,79.0,182.0,-57.0,15.0,-3.0,1
127.0,80.0,180.0,-57.0,16.0,-2.0,1
126.0,78.0,181.0,-59.0,14.0,-2.0,1
122.0,83.0,181.0,-59.0,14.0,-2.0,1
126.0,77.0,182.0,-59.0,15.0,-2.0,1
128.0,74.0,183.0,-60.0,13.0,-2.0,1
125.0,80.0,185.0,-61.0,13.0,-2.0,1
124.0,80.0,181.0,-60.0,13.0,-1.0,1
126.0,79.0,186.0,-60.0,12.0,-1.0,1
125.0,80.0,182.0,-60.0,11.0,-2.0,1
126.0,77.0,183.0,-57.0,11.0,-2.0,1
125.0,77.0,180.0,-59.0,12.0,-1.0,1
124.0,80.0,181.0,-59.0,12.0,-2.0,1
126.0,78.0,184.0,-56.0,13.0,0.0,1
123.0,78.0,180.0,-57.0,11.0,-1.0,1
125.0,79.0,181.0,-57.0,12.0,-2.0,1
122.0,75.0,177.0,-58.0,10.0,-1.0,1
125.0,79.0,181.0,-58.0,12.0,-1.0,1
125.0,77.0,185.0,-59.0,12.0,-1.0,1
124.0,81.0,179.0,-60.0,10.0,-1.0,1
125.0,77.0,183.0,-61.0,11.0,-1.0,1
127.0,76.0,184.0,-63.0,10.0,-2.0,1
126.0,79.0,181.0,-64.0,8.0,0.0,1
127.0,80.0,182.0,-63.0,10.0,0.0,1
127.0,78.0,185.0,-63.0,10.0,0.0,1
128.0,76.0,185.0,-62.0,10.0,-1.0,1
127.0,78.0,184.0,-62.0,11.0,-1.0,1
125.0,79.0,178.0,-63.0,10.0,1.0,1
129.0,79.0,182.0,-63.0,8.0,0.0,1
127.0,79.0,181.0,-62.0,8.0,0.0,1
124.0,78.0,180.0,-63.0,8.0,0.0,1
124.0,78.0,185.0,-63.0,7.0,0.0,1
125.0,77.0,180.0,-63.0,6.0,0.0,1
124.0,78.0,180.0,-63.0,6.0,-1.0,1
126.0,78.0,185.0,-62.0,5.0,0.0,1
125.0,76.0,184.0,-63.0,6.0,0.0,1
126.0,75.0,183.0,-64.0,6.0,0.0,1
131.0,79.0,178.0,-61.0,5.0,-1.0,1
124.0,78.0,180.0,-61.0,4.0,-1.0,1
131.0,77.0,181.0,-63.0,5.0,-1.0,1
124.0,81.0,182.0,-63.0,3.0,-2.0,1
126.0,81.0,183.0,-64.0,6.0,-1.0,1
126.0,80.0,184.0,-65.0,6.0,-1.0,1
126.0,80.0,183.0,-66.0,6.0,-1.0,1
125.0,77.0,181.0,-65.0,5.0,0.0,1
123.0,78.0,180.0,-64.0,5.0,0.0,1
126.0,78.0,184.0,-62.0,5.0,1.0,1
126.0,78.0,181.0,-63.0,4.0,1.0,1
126.0,75.0,183.0,-63.0,6.0,0.0,1
127.0,79.0,183.0,-63.0,6.0,1.0,1
129.0,77.0,182.0,-63.0,6.0,-2.0,1
127.0,78.0,183.0,-61.0,6.0,-1.0,1
124.0,79.0,184.0,-60.0,8.0,-1.0,1
126.0,77.0,181.0,-58.0,8.0,-2.0,1
128.0,78.0,180.0,-57.0,6.0,-3.0,1
127.0,77.0,179.0,-58.0,7.0,-2.0,1
129.0,77.0,181.0,-58.0,8.0,-1.0,1
126.0,77.0,179.0,-58.0,7.0,-1.0,1
124.0,81.0,178.0,-58.0,5.0,-1.0,1
122.0,80.0,181.0,-58.0,5.0,-1.0,1
125.0,79.0,183.0,-57.0,5.0,0.0,1
127.0,77.0,180.0,-55.0,4.0,0.0,1
125.0,77.0,183.0,-54.0,5.0,0.0,1
126.0,78.0,182.0,-53.0,5.0,0.0,1
131.0,80.0,179.0,-52.0,5.0,-1.0,1
125.0,79.0,182.0,-51.0,5.0,0.0,1
127.0,78.0,178.0,-50.0,6.0,-1.0,1
128.0,81.0,181.0,-51.0,8.0,-2.0,1
128.0,79.0,187.0,-53.0,10.0,-3.0,1
125.0,78.0,181.0,-52.0,14.0,-4.0,1
123.0,78.0,181.0,-52.0,17.0,-6.0,1
125.0,79.0,182.0,-52.0,20.0,-8.0,1
124.0,80.0,180.0,-51.0,20.0,-7.0,1
123.0,77.0,179.0,-50.0,19.0,-7.0,1
126.0,75.0,181.0,-50.0,18.0,-6.0,1
123.0,78.0,183.0,-53.0,14.0,-5.0,1
126.0,78.0,186.0,-55.0,12.0,-3.0,1
125.0,75.0,183.0,-55.0,9.0,-2.0,1
125.0,77.0,177.0,-52.0,6.0,-1.0,1
126.0,77.0,180.0,-49.0,6.0,-1.0,1
125.0,76.0,177.0,-46.0,7.0,-2.0,1
126.0,77.0,183.0,-48.0,8.0,-3.0,1
128.0,76.0,179.0,-51.0,11.0,-7.0,1
129.0,78.0,179.0,-56.0,11.0,-5.0,1
127.0,79.0,181.0,-58.0,13.0,-6.0,1
127.0,79.0,183.0,-61.0,12.0,-7.0,1
126.0,78.0,181.0,-62.0,10.0,-4.0,1
129.0,77.0,182.0,-60.0,9.0,-5.0,1
128.0,80.0,183.0,-58.0,8.0,-5.0,1
126.0,75.0,178.0,-56.0,7.0,-4.0,1
126.0,78.0,186.0,-52.0,6.0,-4.0,1
129.0,78.0,179.0,-50.0,4.0,-3.0,1
123.0,78.0,175.0,-47.0,4.0,-2.0,1
123.0,82.0,182.0,-48.0,4.0,-2.0,1
125.0,77.0,184.0,-48.0,6.0,-4.0,1
125.0,78.0,179.0,-50.0,7.0,-4.0,1
126.0,76.0,182.0,-51.0,8.0,-4.0,1
126.0,80.0,180.0,-51.0,10.0,-4.0,1
126.0,78.0,182.0,-51.0,11.0,-4.0,1
128.0,80.0,182.0,-50.0,13.0,-3.0,1
126.0,78.0,181.0,-53.0,14.0,-3.0,1
127.0,76.0,184.0,-53.0,13.0,-2.0,1
126.0,78.0,178.0,-50.0,13.0,0.0,1
128.0,80.0,182.0,-49.0,14.0,0.0,1
126.0,77.0,186.0,-48.0,14.0,0.0,1
124.0,79.0,182.0,-46.0,13.0,3.0,1
126.0,77.0,179.0,-46.0,13.0,1.0,1
129.0,77.0,179.0,-46.0,13.0,0.0,1
126.0,77.0,177.0,-44.0,12.0,-1.0,1
127.0,80.0,182.0,-45.0,12.0,0.0,1
126.0,77.0,184.0,-45.0,13.0,0.0,1
125.0,78.0,181.0,-45.0,11.0,0.0,1
123.0,78.0,181.0,-45.0,12.0,0.0,1
128.0,77.0,184.0,-46.0,13.0,-1.0,1
125.0,78.0,181.0,-45.0,12.0,-2.0,1
127.0,77.0,182.0,-47.0,13.0,-3.0,1
125.0,77.0,183.0,-47.0,13.0,-3.0,1
123.0,78.0,184.0,-49.0,14.0,-3.0,1
129.0,76.0,179.0,-49.0,15.0,-4.0,1
125.0,76.0,180.0,-48.0,15.0,-3.0,1
127.0,75.0,179.0,-46.0,17.0,-1.0,1
129.0,78.0,180.0,-43.0,16.0,-3.0,1
126.0,78.0,182.0,-39.0,16.0,-3.0,1
127.0,79.0,181.0,-37.0,15.0,-3.0,1
125.0,76.0,183.0,-37.0,15.0,-4.0,1
126.0,75.0,177.0,-38.0,13.0,-5.0,1
124.0,77.0,182.0,-38.0,15.0,-6.0,1
127.0,76.0,180.0,-36.0,17.0,-6.0,1
126.0,77.0,184.0,-36.0,18.0,-7.0,1
126.0,79.0,182.0,-37.0,20.0,-8.0,1
126.0,77.0,176.0,-38.0,22.0,-10.0,1
127.0,79.0,179.0,-38.0,22.0,-8.0,1
126.0,76.0,180.0,-38.0,22.0,-9.0,1
125.0,76.0,185.0,-40.0,23.0,-10.0,1
125.0,78.0,180.0,-41.0,22.0,-11.0,1
125.0,76.0,183.0,-42.0,21.0,-11.0,1
126.0,77.0,179.0,-43.0,21.0,-9.0,1
127.0,76.0,182.0,-43.0,20.0,-8.0,1
126.0,76.0,183.0,-43.0,19.0,-7.0,1
124.0,79.0,182.0,-40.0,18.0,-7.0,1
129.0,77.0,178.0,-38.0,16.0,-5.0,1
128.0,76.0,185.0,-38.0,18.0,-4.0,1
130.0,77.0,176.0,-35.0,18.0,-5.0,1
129.0,77.0,185.0,-35.0,18.0,-6.0,1
127.0,77.0,179.0,-36.0,18.0,-6.0,1
123.0,77.0,183.0,-36.0,20.0,-5.0,1
133.0,77.0,181.0,-38.0,20.0,-6.0,1
128.0,78.0,178.0,-38.0,19.0,-8.0,1
125.0,80.0,178.0,-38.0,21.0,-7.0,1
128.0,78.0,177.0,-40.0,20.0,-6.0,1
126.0,80.0,184.0,-41.0,21.0,-7.0,1
128.0,80.0,182.0,-42.0,20.0,-6.0,1
124.0,81.0,178.0,-42.0,21.0,-6.0,1
127.0,80.0,182.0,-40.0,20.0,-6.0,1
124.0,79.0,181.0,-38.0,20.0,-5.0,1
126.0,78.0,178.0,-38.0,18.0,-5.0,1
123.0,78.0,180.0,-37.0,18.0,-5.0,1
129.0,77.0,182.0,-35.0,20.0,-5.0,1
128.0,82.0,183.0,-36.0,19.0,-5.0,1
128.0,77.0,184.0,-35.0,21.0,-5.0,1
124.0,78.0,182.0,-36.0,20.0,-5.0,1
126.0,79.0,179.0,-35.0,19.0,-6.0,1
129.0,77.0,181.0,-36.0,20.0,-6.0,1
125.0,76.0,182.0,-39.0,20.0,-6.0,1
128.0,79.0,185.0,-39.0,20.0,-7.0,1
126.0,78.0,184.0,-40.0,21.0,-7.0,1
126.0,79.0,181.0,-39.0,22.0,-6.0,1
126.0,76.0,185.0,-39.0,22.0,-7.0,1
125.0,78.0,181.0,-41.0,22.0,-4.0,1
127.0,76.0,182.0,-41.0,22.0,-5.0,1
124.0,78.0,182.0,-42.0,23.0,-4.0,1
126.0,79.0,179.0,-38.0,23.0,-4.0,1
129.0,76.0,185.0,-40.0,22.0,-3.0,1
125.0,77.0,182.0,-40.0,22.0,-4.0,1
127.0,81.0,181.0,-39.0,21.0,-6.0,1
124.0,77.0,183.0,-38.0,23.0,-4.0,1
125.0,79.0,185.0,-37.0,23.0,-6.0,1
127.0,79.0,184.0,-37.0,22.0,-6.0,1
127.0,78.0,183.0,-38.0,23.0,-6.0,1
127.0,73.0,181.0,-36.0,22.0,-6.0,1
126.0,78.0,182.0,-38.0,23.0,-5.0,1
125.0,79.0,185.0,-38.0,23.0,-6.0,1
127.0,78.0,183.0,-39.0,23.0,-4.0,1
128.0,76.0,182.0,-38.0,23.0,-6.0,1
124.0,79.0,181.0,-38.0,23.0,-6.0,1
127.0,79.0,182.0,-37.0,22.0,-6.0,1
124.0,79.0,181.0,-39.0,22.0,-6.0,1
126.0,79.0,180.0,-38.0,23.0,-6.0,1
126.0,76.0,182.0,-38.0,23.0,-5.0,1
128.0,76.0,181.0,-38.0,22.0,-4.0,1
121.0,79.0,188.0,-38.0,22.0,-5.0,1
126.0,79.0,181.0,-37.0,21.0,-7.0,1
128.0,77.0,180.0,-38.0,22.0,-7.0,1
125.0,77.0,182.0,-37.0,22.0,-6.0,1
125.0,78.0,177.0,-35.0,22.0,-6.0,1
127.0,77.0,181.0,-35.0,21.0,-5.0,1
126.0,76.0,183.0,-35.0,21.0,-6.0,1
126.0,81.0,182.0,-34.0,21.0,-7.0,1
128.0,74.0,181.0,-34.0,22.0,-9.0,1
126.0,83.0,179.0,-37.0,24.0,-9.0,1
124.0,79.0,184.0,-37.0,24.0,-8.0,1
124.0,83.0,181.0,-36.0,24.0,-8.0,1
127.0,77.0,178.0,-36.0,24.0,-6.0,1
128.0,78.0,182.0,-35.0,25.0,-8.0,1
128.0,79.0,179.0,-36.0,23.0,-7.0,1
127.0,79.0,178.0,-38.0,23.0,-7.0,1
126.0,80.0,185.0,-40.0,24.0,-7.0,1
128.0,77.0,183.0,-42.0,24.0,-7.0,1
128.0,79.0,182.0,-41.0,25.0,-8.0,1
127.0,79.0,179.0,-43.0,25.0,-7.0,1
124.0,78.0,183.0,-44.0,26.0,-7.0,1
127.0,79.0,184.0,-42.0,24.0,-5.0,1
127.0,78.0,181.0,-41.0,23.0,-7.0,1
127.0,80.0,185.0,-41.0,24.0,-7.0,1
127.0,78.0,182.0,-42.0,23.0,-7.0,1
127.0,77.0,183.0,-42.0,22.0,-6.0,1
125.0,79.0,178.0,-42.0,21.0,-5.0,1
125.0,80.0,183.0,-40.0,20.0,-5.0,1
126.0,77.0,180.0,-39.0,20.0,-4.0,1
129.0,78.0,187.0,-38.0,20.0,-5.0,1
127.0,78.0,184.0,-39.0,18.0,-4.0,1
125.0,79.0,183.0,-40.0,19.0,-4.0,1
128.0,79.0,179.0,-42.0,20.0,-5.0,1
127.0,84.0,181.0,-42.0,20.0,-5.0,1
126.0,77.0,182.0,-41.0,22.0,-7.0,1
127.0,80.0,185.0,-40.0,24.0,-7.0,1
125.0,79.0,176.0,-42.0,25.0,-7.0,1
125.0,81.0,181.0,-41.0,28.0,-7.0,1
125.0,77.0,182.0,-40.0,27.0,-9.0,1
123.0,77.0,184.0,-41.0,28.0,-9.0,1
123.0,78.0,183.0,-40.0,27.0,-9.0,1
124.0,83.0,186.0,-40.0,25.0,-8.0,1
127.0,78.0,182.0,-39.0,23.0,-6.0,1
120.0,83.0,180.0,-42.0,20.0,-5.0,1
123.0,81.0,182.0,-43.0,16.0,-5.0,1
125.0,76.0,182.0,-39.0,15.0,-4.0,1
125.0,78.0,182.0,-38.0,14.0,-4.0,1
125.0,79.0,181.0,-37.0,16.0,-4.0,1
127.0,79.0,178.0,-36.0,18.0,-6.0,1
126.0,77.0,182.0,-41.0,22.0,-6.0,1
126.0,78.0,180.0,-44.0,24.0,-8.0,1
125.0,76.0,177.0,-47.0,26.0,-10.0,1
126.0,79.0,178.0,-48.0,25.0,-8.0,1
131.0,79.0,184.0,-48.0,24.0,-10.0,1
123.0,80.0,181.0,-46.0,22.0,-9.0,1
129.0,80.0,186.0,-43.0,21.0,-8.0,1
130.0,78.0,182.0,-43.0,19.0,-7.0,1
125.0,77.0,184.0,-39.0,18.0,-5.0,1
127.0,79.0,183.0,-37.0,16.0,-5.0,1
127.0,77.0,184.0,-35.0,15.0,-4.0,1
126.0,80.0,183.0,-34.0,16.0,-4.0,1
125.0,78.0,188.0,-35.0,16.0,-3.0,1
125.0,81.0,184.0,-35.0,16.0,-2.0,1
124.0,81.0,182.0,-35.0,18.0,-4.0,1
127.0,80.0,183.0,-36.0,19.0,-5.0,1
122.0,78.0,182.0,-39.0,22.0,-6.0,1
123.0,81.0,185.0,-41.0,22.0,-6.0,1
123.0,80.0,184.0,-41.0,24.0,-6.0,1
124.0,78.0,183.0,-41.0,24.0,-6.0,1
125.0,79.0,179.0,-42.0,26.0,-5.0,1
122.0,80.0,182.0,-43.0,25.0,-6.0,1
123.0,80.0,180.0,-40.0,26.0,-5.0,1
123.0,77.0,180.0,-39.0,25.0,-6.0,1
124.0,78.0,183.0,-39.0,24.0,-5.0,1
123.0,79.0,182.0,-37.0,23.0,-5.0,1
124.0,80.0,184.0,-38.0,24.0,-4.0,1
125.0,82.0,187.0,-37.0,24.0,-6.0,1
125.0,78.0,182.0,-37.0,23.0,-4.0,1
126.0,78.0,182.0,-35.0,23.0,-4.0,1
126.0,78.0,184.0,-36.0,22.0,-6.0,1
129.0,76.0,183.0,-38.0,24.0,-4.0,1
124.0,79.0,180.0,-37.0,24.0,-4.0,1
126.0,77.0,180.0,-37.0,23.0,-5.0,1
125.0,78.0,182.0,-38.0,23.0,-5.0,1
126.0,80.0,185.0,-41.0,24.0,-5.0,1
123.0,79.0,181.0,-41.0,25.0,-14.0,1
126.0,79.0,181.0,-42.0,25.0,-10.0,1
127.0,77.0,189.0,-40.0,24.0,-9.0,1
126.0,78.0,179.0,-39.0,24.0,-7.0,1
129.0,76.0,182.0,-38.0,22.0,-5.0,1
124.0,80.0,184.0,-36.0,21.0,-5.0,1
130.0,78.0,181.0,-34.0,21.0,-6.0,1
127.0,78.0,179.0,-36.0,20.0,-6.0,1
127.0,79.0,182.0,-34.0,21.0,-6.0,1
128.0,78.0,185.0,-35.0,19.0,-8.0,1
127.0,81.0,183.0,-36.0,19.0,-9.0,1
125.0,79.0,181.0,-35.0,22.0,-9.0,1
126.0,80.0,182.0,-36.0,22.0,-9.0,1
125.0,76.0,179.0,-36.0,23.0,-9.0,1
124.0,77.0,181.0,-36.0,24.0,-10.0,1
124.0,77.0,182.0,-38.0,24.0,-10.0,1
122.0,81.0,182.0,-39.0,24.0,-10.0,1
126.0,77.0,182.0,-40.0,24.0,-10.0,1
125.0,78.0,183.0,-40.0,24.0,-10.0,1
123.0,78.0,183.0,-41.0,23.0,-11.0,1
125.0,78.0,180.0,-41.0,23.0,-9.0,1
126.0,78.0,181.0,-42.0,22.0,-8.0,1
122.0,78.0,182.0,-40.0,23.0,-10.0,1
125.0,78.0,185.0,-39.0,23.0,-9.0,1
123.0,78.0,175.0,-39.0,23.0,-10.0,1
125.0,81.0,182.0,-40.0,21.0,-9.0,1
125.0,78.0,184.0,-39.0,21.0,-10.0,1
127.0,80.0,182.0,-37.0,20.0,-9.0,1
124.0,79.0,183.0,-37.0,21.0,-10.0,1
126.0,78.0,185.0,-38.0,20.0,-10.0,1
126.0,78.0,178.0,-38.0,22.0,-10.0,1
126.0,81.0,180.0,-39.0,21.0,-10.0,1
125.0,81.0,182.0,-41.0,22.0,-8.0,1
127.0,79.0,180.0,-40.0,24.0,-8.0,1
124.0,79.0,178.0,-41.0,23.0,-8.0,1
139.0,79.0,185.0,-41.0,23.0,-6.0,1
125.0,79.0,182.0,-40.0,23.0,-8.0,1
126.0,77.0,184.0,-40.0,22.0,-7.0,1
125.0,78.0,180.0,-39.0,23.0,-7.0,1
127.0,78.0,182.0,-41.0,22.0,-6.0,1
122.0,80.0,178.0,-40.0,21.0,-6.0,1
124.0,80.0,180.0,-37.0,20.0,-7.0,1
129.0,78.0,183.0,-38.0,20.0,-6.0,1
127.0,81.0,182.0,-36.0,19.0,-5.0,1
124.0,79.0,180.0,-37.0,19.0,-7.0,1
127.0,79.0,180.0,-36.0,20.0,-7.0,1
126.0,83.0,188.0,-38.0,20.0,-6.0,1
126.0,78.0,181.0,-38.0,21.0,-7.0,1
125.0,80.0,183.0,-38.0,22.0,-7.0,1
127.0,79.0,180.0,-41.0,21.0,-6.0,1
127.0,78.0,184.0,-41.0,21.0,-6.0,1
126.0,79.0,182.0,-41.0,23.0,-5.0,1
129.0,78.0,183.0,-42.0,21.0,-7.0,1
122.0,79.0,185.0,-43.0,21.0,-6.0,1
126.0,79.0,181.0,-44.0,21.0,-5.0,1
127.0,81.0,185.0,-42.0,20.0,-5.0,1
124.0,80.0,183.0,-44.0,21.0,-5.0,1
122.0,82.0,179.0,-43.0,20.0,-6.0,1
123.0,80.0,183.0,-42.0,20.0,-5.0,1
124.0,80.0,183.0,-43.0,21.0,-5.0,1
125.0,78.0,182.0,-42.0,21.0,-6.0,1
127.0,78.0,186.0,-42.0,21.0,-5.0,1
123.0,82.0,183.0,-42.0,20.0,-4.0,1
126.0,80.0,180.0,-41.0,20.0,-4.0,1
126.0,77.0,186.0,-41.0,19.0,-5.0,1
127.0,80.0,182.0,-43.0,21.0,-5.0,1
126.0,79.0,182.0,-42.0,21.0,-5.0,1
126.0,83.0,188.0,-43.0,20.0,-6.0,1
125.0,80.0,180.0,-43.0,20.0,-6.0,1
122.0,80.0,183.0,-43.0,20.0,-5.0,1
126.0,81.0,182.0,-44.0,18.0,-5.0,1
129.0,79.0,182.0,-44.0,19.0,-4.0,1
124.0,80.0,179.0,-44.0,19.0,-5.0,1
123.0,82.0,182.0,-43.0,18.0,-5.0,1
123.0,83.0,182.0,-44.0,19.0,-5.0,1
122.0,81.0,182.0,-41.0,21.0,-4.0,1
128.0,80.0,186.0,-45.0,19.0,-5.0,1
126.0,82.0,185.0,-45.0,19.0,-3.0,1
126.0,82.0,184.0,-45.0,20.0,-3.0,1
