ax,ay,az,gx,gy,gz,label
-19.0,-255.0,14.0,27.0,23.0,10.0,1
-23.0,-251.0,14.0,27.0,25.0,9.0,1
-20.0,-256.0,15.0,28.0,28.0,12.0,1
-19.0,-257.0,13.0,26.0,28.0,11.0,1
-20.0,-250.0,11.0,24.0,30.0,11.0,1
-17.0,-254.0,10.0,23.0,30.0,11.0,1
-18.0,-252.0,11.0,21.0,30.0,9.0,1
-18.0,-256.0,11.0,17.0,32.0,9.0,1
-17.0,-252.0,8.0,14.0,34.0,8.0,1
-18.0,-256.0,16.0,15.0,34.0,7.0,1
-17.0,-256.0,15.0,15.0,35.0,7.0,1
-21.0,-253.0,14.0,18.0,39.0,6.0,1
-21.0,-252.0,13.0,21.0,41.0,5.0,1
-20.0,-254.0,15.0,25.0,43.0,3.0,1
-17.0,-254.0,14.0,27.0,47.0,4.0,1
-19.0,-253.0,13.0,26.0,50.0,4.0,1
-18.0,-255.0,15.0,25.0,52.0,5.0,1
-18.0,-255.0,14.0,24.0,56.0,4.0,1
-19.0,-255.0,11.0,23.0,58.0,3.0,1
-18.0,-254.0,11.0,20.0,60.0,3.0,1
-16.0,-253.0,15.0,16.0,61.0,3.0,1
-21.0,-253.0,12.0,11.0,60.0,4.0,1
-21.0,-255.0,9.0,6.0,58.0,4.0,1
-18.0,-252.0,13.0,3.0,58.0,3.0,1
-19.0,-254.0,11.0,2.0,57.0,4.0,1
-20.0,-254.0,13.0,2.0,58.0,2.0,1
-20.0,-252.0,22.0,2.0,58.0,0.0,1
-21.0,-255.0,17.0,0.0,62.0,-2.0,1
-23.0,-252.0,16.0,-3.0,64.0,-3.0,1
-21.0,-252.0,13.0,-3.0,67.0,-5.0,1
-21.0,-256.0,17.0,-3.0,71.0,-6.0,1
-20.0,-255.0,15.0,-1.0,74.0,-6.0,1
-19.0,-253.0,13.0,1.0,77.0,-9.0,1
-16.0,-259.0,15.0,0.0,79.0,-13.0,1
-16.0,-257.0,15.0,-1.0,81.0,-16.0,1
-13.0,-253.0,15.0,-3.0,82.0,-20.0,1
-15.0,-252.0,15.0,-5.0,82.0,-24.0,1
-14.0,-252.0,16.0,-9.0,80.0,-27.0,1
-16.0,-251.0,20.0,-11.0,78.0,-32.0,1
-14.0,-255.0,18.0,-12.0,77.0,-37.0,1
-15.0,-252.0,20.0,-12.0,77.0,-42.0,1
-16.0,-251.0,17.0,-12.0,76.0,-43.0,1
-17.0,-252.0,19.0,-13.0,77.0,-47.0,1
-15.0,-253.0,17.0,-12.0,77.0,-48.0,1
-14.0,-257.0,21.0,-11.0,78.0,-47.0,1
-18.0,-253.0,19.0,-11.0,77.0,-45.0,1
-18.0,-255.0,21.0,-11.0,77.0,-43.0,1
-17.0,-251.0,19.0,-16.0,75.0,-40.0,1
-24.0,-247.0,18.0,-25.0,69.0,-37.0,1
-15.0,-255.0,18.0,-39.0,67.0,-34.0,1
-14.0,-260.0,20.0,-48.0,67.0,-33.0,1
-14.0,-264.0,17.0,-53.0,69.0,-33.0,1
-13.0,-264.0,18.0,-54.0,73.0,-36.0,1
-7.0,-265.0,17.0,-50.0,82.0,-39.0,1
-5.0,-264.0,16.0,-44.0,91.0,-42.0,1
-1.0,-260.0,15.0,-32.0,102.0,-48.0,1
-5.0,-259.0,14.0,-19.0,117.0,-52.0,1
-3.0,-259.0,17.0,-6.0,132.0,-55.0,1
2.0,-259.0,18.0,6.0,146.0,-60.0,1
-1.0,-253.0,18.0,18.0,155.0,-64.0,1
0.0,-255.0,13.0,28.0,162.0,-66.0,1
0.0,-255.0,14.0,39.0,166.0,-67.0,1
0.0,-252.0,15.0,47.0,165.0,-68.0,1
1.0,-252.0,16.0,51.0,164.0,-66.0,1
-4.0,-250.0,15.0,51.0,160.0,-62.0,1
-6.0,-249.0,17.0,44.0,157.0,-61.0,1
-7.0,-252.0,14.0,36.0,158.0,-56.0,1
-11.0,-257.0,16.0,28.0,159.0,-53.0,1
-12.0,-259.0,19.0,21.0,162.0,-49.0,1
-13.0,-257.0,15.0,18.0,169.0,-46.0,1
-12.0,-255.0,15.0,20.0,175.0,-41.0,1
-14.0,-255.0,13.0,23.0,181.0,-38.0,1
-17.0,-258.0,14.0,29.0,183.0,-36.0,1
-14.0,-257.0,14.0,39.0,184.0,-32.0,1
-14.0,-258.0,15.0,47.0,183.0,-25.0,1
-14.0,-256.0,17.0,55.0,181.0,-21.0,1
-15.0,-256.0,16.0,65.0,175.0,-19.0,1
-16.0,-256.0,22.0,79.0,167.0,-17.0,1
-15.0,-257.0,26.0,91.0,157.0,-13.0,1
-16.0,-255.0,28.0,103.0,145.0,-11.0,1
-18.0,-256.0,31.0,117.0,132.0,-10.0,1
-11.0,-259.0,35.0,133.0,119.0,-9.0,1
-11.0,-259.0,39.0,150.0,110.0,-7.0,1
-10.0,-258.0,42.0,174.0,100.0,-9.0,1
-12.0,-260.0,39.0,196.0,93.0,-7.0,1
-12.0,-264.0,43.0,217.0,86.0,-4.0,1
-13.0,-261.0,41.0,232.0,75.0,-4.0,1
-16.0,-260.0,42.0,240.0,67.0,1.0,1
-15.0,-260.0,37.0,238.0,57.0,4.0,1
-18.0,-258.0,34.0,233.0,50.0,11.0,1
-16.0,-259.0,33.0,222.0,47.0,16.0,1
-19.0,-257.0,24.0,211.0,47.0,20.0,1
-13.0,-258.0,25.0,198.0,51.0,25.0,1
-8.0,-258.0,23.0,184.0,60.0,26.0,1
-7.0,-256.0,27.0,171.0,70.0,24.0,1
-5.0,-256.0,29.0,157.0,84.0,22.0,1
-2.0,-255.0,29.0,145.0,101.0,17.0,1
0.0,-257.0,29.0,138.0,117.0,8.0,1
0.0,-254.0,29.0,135.0,132.0,-4.0,1
3.0,-250.0,26.0,135.0,144.0,-16.0,1
1.0,-252.0,24.0,134.0,157.0,-28.0,1
1.0,-250.0,24.0,131.0,167.0,-40.0,1
-3.0,-249.0,19.0,125.0,177.0,-49.0,1
-1.0,-249.0,18.0,118.0,188.0,-57.0,1
0.0,-250.0,15.0,109.0,198.0,-64.0,1
-5.0,-247.0,13.0,100.0,208.0,-68.0,1
-10.0,-247.0,12.0,90.0,215.0,-70.0,1
-10.0,-244.0,15.0,82.0,222.0,-71.0,1
-11.0,-246.0,11.0,71.0,228.0,-68.0,1
-14.0,-243.0,13.0,65.0,233.0,-61.0,1
-12.0,-241.0,13.0,60.0,237.0,-57.0,1
-15.0,-242.0,12.0,56.0,243.0,-52.0,1
-15.0,-240.0,12.0,55.0,249.0,-47.0,1
-16.0,-237.0,19.0,53.0,252.0,-44.0,1
-11.0,-235.0,15.0,50.0,254.0,-43.0,1
-11.0,-234.0,16.0,46.0,256.0,-42.0,1
-6.0,-235.0,15.0,36.0,258.0,-43.0,1
-6.0,-232.0,17.0,24.0,259.0,-45.0,1
-5.0,-232.0,17.0,10.0,261.0,-45.0,1
-4.0,-233.0,18.0,-4.0,261.0,-48.0,1
-8.0,-234.0,18.0,-17.0,261.0,-47.0,1
-7.0,-233.0,21.0,-30.0,261.0,-42.0,1
-9.0,-238.0,21.0,-41.0,259.0,-38.0,1
-6.0,-239.0,16.0,-47.0,259.0,-32.0,1
-17.0,-246.0,25.0,-53.0,261.0,-23.0,1
-17.0,-248.0,24.0,-55.0,263.0,-15.0,1
-16.0,-251.0,26.0,-54.0,267.0,-7.0,1
-19.0,-250.0,21.0,-52.0,270.0,1.0,1
-19.0,-252.0,20.0,-50.0,274.0,8.0,1
-23.0,-254.0,19.0,-46.0,277.0,13.0,1
-24.0,-257.0,23.0,-43.0,276.0,18.0,1
-21.0,-260.0,28.0,-36.0,274.0,20.0,1
-24.0,-260.0,28.0,-28.0,269.0,24.0,1
-19.0,-264.0,31.0,-15.0,260.0,24.0,1
-24.0,-261.0,25.0,-4.0,244.0,25.0,1
-24.0,-266.0,27.0,8.0,224.0,26.0,1
-18.0,-271.0,25.0,20.0,198.0,25.0,1
-20.0,-267.0,21.0,32.0,169.0,23.0,1
-16.0,-267.0,24.0,45.0,136.0,17.0,1
-18.0,-263.0,23.0,57.0,104.0,13.0,1
-16.0,-265.0,17.0,70.0,76.0,12.0,1
-15.0,-259.0,21.0,80.0,53.0,11.0,1
-16.0,-252.0,18.0,84.0,39.0,10.0,1
-19.0,-249.0,22.0,85.0,30.0,7.0,1
-23.0,-246.0,25.0,87.0,19.0,10.0,1
-17.0,-243.0,21.0,90.0,4.0,8.0,1
-17.0,-242.0,24.0,92.0,-7.0,-4.0,1
-21.0,-235.0,24.0,92.0,-20.0,-16.0,1
-19.0,-233.0,25.0,86.0,-44.0,-24.0,1
-21.0,-223.0,21.0,73.0,-78.0,-35.0,1
-24.0,-222.0,19.0,54.0,-118.0,-46.0,1
-29.0,-216.0,10.0,30.0,-161.0,-52.0,1
-34.0,-210.0,13.0,-3.0,-201.0,-56.0,1
-37.0,-209.0,16.0,-41.0,-230.0,-62.0,1
-43.0,-201.0,21.0,-72.0,-244.0,-68.0,1
-49.0,-201.0,25.0,-103.0,-250.0,-73.0,1
-49.0,-205.0,35.0,-134.0,-245.0,-78.0,1
-48.0,-209.0,33.0,-167.0,-234.0,-80.0,1
-42.0,-218.0,40.0,-195.0,-221.0,-81.0,1
-43.0,-224.0,41.0,-216.0,-213.0,-79.0,1
-36.0,-239.0,48.0,-230.0,-209.0,-74.0,1
-34.0,-248.0,47.0,-234.0,-212.0,-66.0,1
-32.0,-256.0,50.0,-231.0,-215.0,-58.0,1
-25.0,-267.0,47.0,-225.0,-213.0,-54.0,1
-25.0,-276.0,50.0,-219.0,-199.0,-52.0,1
-22.0,-281.0,45.0,-217.0,-174.0,-48.0,1
-25.0,-286.0,48.0,-219.0,-132.0,-42.0,1
-26.0,-291.0,48.0,-225.0,-83.0,-39.0,1
-24.0,-296.0,52.0,-233.0,-28.0,-31.0,1
-25.0,-297.0,48.0,-242.0,23.0,-25.0,1
-24.0,-299.0,46.0,-245.0,68.0,-10.0,1
-25.0,-301.0,46.0,-239.0,101.0,0.0,1
-29.0,-302.0,51.0,-228.0,121.0,9.0,1
-34.0,-297.0,53.0,-208.0,128.0,18.0,1
-36.0,-297.0,55.0,-182.0,127.0,30.0,1
-37.0,-291.0,58.0,-157.0,117.0,41.0,1
-38.0,-287.0,62.0,-135.0,106.0,54.0,1
-44.0,-279.0,61.0,-118.0,95.0,66.0,1
-54.0,-279.0,59.0,-108.0,84.0,77.0,1
-42.0,-272.0,58.0,-105.0,77.0,88.0,1
-46.0,-270.0,58.0,-107.0,74.0,100.0,1
-49.0,-271.0,60.0,-118.0,78.0,104.0,1
-52.0,-266.0,59.0,-130.0,83.0,111.0,1
-54.0,-263.0,55.0,-139.0,86.0,118.0,1
-58.0,-262.0,54.0,-143.0,84.0,125.0,1
-60.0,-252.0,57.0,-147.0,75.0,134.0,1
-60.0,-249.0,53.0,-153.0,61.0,144.0,1
-55.0,-243.0,48.0,-161.0,40.0,154.0,1
-55.0,-238.0,50.0,-179.0,16.0,162.0,1
-50.0,-229.0,46.0,-204.0,-14.0,168.0,1
-44.0,-225.0,39.0,-241.0,-43.0,173.0,1
-41.0,-219.0,42.0,-285.0,-70.0,173.0,1
-36.0,-219.0,38.0,-336.0,-92.0,169.0,1
-31.0,-218.0,43.0,-388.0,-108.0,161.0,1
-27.0,-218.0,43.0,-432.0,-118.0,150.0,1
-25.0,-217.0,39.0,-468.0,-121.0,143.0,1
-18.0,-224.0,41.0,-494.0,-117.0,127.0,1
-16.0,-221.0,37.0,-509.0,-98.0,101.0,1
-18.0,-226.0,42.0,-513.0,-69.0,72.0,1
-20.0,-226.0,41.0,-508.0,-33.0,52.0,1
-22.0,-237.0,40.0,-494.0,2.0,35.0,1
-19.0,-239.0,37.0,-482.0,39.0,22.0,1
-21.0,-238.0,38.0,-464.0,74.0,10.0,1
-20.0,-246.0,40.0,-453.0,108.0,-2.0,1
-20.0,-248.0,38.0,-444.0,134.0,-10.0,1
-24.0,-247.0,37.0,-436.0,155.0,-15.0,1
-23.0,-248.0,34.0,-430.0,168.0,-21.0,1
-24.0,-251.0,32.0,-421.0,175.0,-29.0,1
-28.0,-252.0,31.0,-412.0,175.0,-41.0,1
-31.0,-253.0,33.0,-401.0,174.0,-51.0,1
-32.0,-252.0,29.0,-385.0,175.0,-63.0,1
-36.0,-252.0,29.0,-365.0,181.0,-71.0,1
-38.0,-253.0,27.0,-344.0,192.0,-77.0,1
-43.0,-253.0,39.0,-321.0,206.0,-85.0,1
-47.0,-251.0,41.0,-298.0,221.0,-84.0,1
-46.0,-250.0,39.0,-275.0,230.0,-84.0,1
-50.0,-254.0,41.0,-253.0,235.0,-80.0,1
-49.0,-252.0,42.0,-230.0,230.0,-78.0,1
-51.0,-252.0,39.0,-206.0,217.0,-73.0,1
-54.0,-253.0,43.0,-180.0,195.0,-73.0,1
-53.0,-251.0,44.0,-152.0,172.0,-75.0,1
-51.0,-248.0,43.0,-124.0,148.0,-76.0,1
-56.0,-248.0,39.0,-95.0,128.0,-77.0,1
-56.0,-251.0,42.0,-69.0,109.0,-79.0,1
-57.0,-251.0,43.0,-46.0,94.0,-80.0,1
-56.0,-248.0,42.0,-26.0,81.0,-81.0,1
-58.0,-248.0,45.0,-9.0,74.0,-79.0,1
-56.0,-247.0,45.0,4.0,67.0,-77.0,1
-56.0,-243.0,49.0,14.0,58.0,-75.0,1
-53.0,-246.0,46.0,19.0,52.0,-76.0,1
-54.0,-245.0,50.0,21.0,44.0,-76.0,1
-54.0,-240.0,49.0,24.0,34.0,-75.0,1
-50.0,-243.0,51.0,24.0,26.0,-75.0,1
-50.0,-240.0,48.0,28.0,18.0,-75.0,1
-51.0,-241.0,47.0,32.0,13.0,-75.0,1
-54.0,-237.0,53.0,35.0,6.0,-75.0,1
-50.0,-235.0,51.0,39.0,2.0,-75.0,1
-51.0,-234.0,51.0,44.0,-3.0,-75.0,1
-47.0,-234.0,52.0,49.0,-7.0,-73.0,1
-45.0,-233.0,50.0,52.0,-11.0,-70.0,1
-47.0,-231.0,49.0,54.0,-14.0,-68.0,1
-51.0,-229.0,49.0,55.0,-15.0,-67.0,1
-47.0,-231.0,49.0,54.0,-14.0,-70.0,1
-49.0,-229.0,44.0,55.0,-10.0,-67.0,1
-54.0,-234.0,51.0,61.0,-7.0,-64.0,1
-52.0,-235.0,51.0,68.0,-4.0,-61.0,1
-55.0,-236.0,50.0,74.0,0.0,-62.0,1
-58.0,-237.0,44.0,80.0,1.0,-63.0,1
-61.0,-237.0,42.0,83.0,1.0,-63.0,1
-60.0,-237.0,42.0,82.0,-1.0,-63.0,1
-62.0,-241.0,39.0,78.0,-6.0,-63.0,1
-65.0,-241.0,34.0,71.0,-10.0,-60.0,1
-66.0,-248.0,28.0,62.0,-14.0,-57.0,1
-71.0,-248.0,27.0,50.0,-19.0,-51.0,1
-74.0,-250.0,21.0,33.0,-25.0,-45.0,1
-74.0,-259.0,19.0,13.0,-34.0,-37.0,1
-75.0,-260.0,9.0,-5.0,-39.0,-28.0,1
-75.0,-267.0,9.0,-30.0,-50.0,-17.0,1
-77.0,-280.0,9.0,-61.0,-68.0,-4.0,1
-74.0,-287.0,5.0,-90.0,-90.0,7.0,1
-69.0,-299.0,9.0,-124.0,-119.0,20.0,1
-69.0,-308.0,10.0,-155.0,-149.0,31.0,1
-64.0,-321.0,11.0,-179.0,-181.0,46.0,1
-59.0,-330.0,19.0,-182.0,-208.0,58.0,1
-50.0,-343.0,24.0,-159.0,-235.0,72.0,1
-41.0,-348.0,32.0,-113.0,-258.0,86.0,1
-33.0,-353.0,28.0,-61.0,-279.0,100.0,1
-22.0,-357.0,33.0,18.0,-298.0,115.0,1
-11.0,-358.0,28.0,100.0,-314.0,125.0,1
2.0,-355.0,23.0,176.0,-327.0,135.0,1
13.0,-350.0,17.0,229.0,-333.0,138.0,1
19.0,-342.0,6.0,255.0,-332.0,135.0,1
27.0,-334.0,-4.0,254.0,-316.0,125.0,1
31.0,-331.0,-8.0,227.0,-290.0,108.0,1
30.0,-318.0,-19.0,180.0,-257.0,86.0,1
32.0,-312.0,-24.0,110.0,-221.0,68.0,1
26.0,-310.0,-22.0,34.0,-176.0,48.0,1
16.0,-309.0,-19.0,-43.0,-130.0,35.0,1
13.0,-310.0,-19.0,-111.0,-98.0,31.0,1
9.0,-313.0,-22.0,-168.0,-67.0,25.0,1
7.0,-315.0,-18.0,-213.0,-37.0,17.0,1
4.0,-316.0,-20.0,-250.0,-4.0,9.0,1
7.0,-315.0,-25.0,-275.0,30.0,3.0,1
6.0,-313.0,-29.0,-290.0,68.0,-2.0,1
13.0,-311.0,-32.0,-296.0,104.0,-3.0,1
19.0,-306.0,-44.0,-291.0,136.0,-5.0,1
22.0,-286.0,-49.0,-278.0,166.0,-7.0,1
27.0,-286.0,-48.0,-252.0,195.0,-6.0,1
37.0,-276.0,-48.0,-218.0,225.0,-7.0,1
42.0,-268.0,-51.0,-182.0,250.0,-11.0,1
47.0,-253.0,-53.0,-147.0,277.0,-16.0,1
49.0,-244.0,-47.0,-117.0,308.0,-17.0,1
53.0,-230.0,-43.0,-89.0,344.0,-17.0,1
56.0,-221.0,-42.0,-68.0,381.0,-19.0,1
55.0,-213.0,-32.0,-57.0,431.0,-10.0,1
45.0,-205.0,-23.0,-54.0,475.0,-4.0,1
34.0,-204.0,-20.0,-53.0,502.0,-6.0,1
27.0,-205.0,-14.0,-55.0,517.0,-11.0,1
13.0,-201.0,-7.0,-58.0,519.0,-11.0,1
6.0,-203.0,-7.0,-72.0,518.0,-11.0,1
-2.0,-205.0,-5.0,-105.0,516.0,-11.0,1
-14.0,-210.0,-1.0,-160.0,515.0,-16.0,1
-18.0,-216.0,1.0,-219.0,484.0,-30.0,1
-23.0,-224.0,2.0,-268.0,426.0,-48.0,1
-16.0,-228.0,-6.0,-296.0,373.0,-66.0,1
-17.0,-238.0,-7.0,-308.0,340.0,-80.0,1
-15.0,-240.0,-8.0,-310.0,320.0,-98.0,1
-19.0,-245.0,-9.0,-298.0,305.0,-117.0,1
-11.0,-246.0,-16.0,-277.0,295.0,-134.0,1
-6.0,-242.0,-16.0,-249.0,289.0,-147.0,1
0.0,-239.0,-17.0,-216.0,288.0,-153.0,1
1.0,-237.0,-17.0,-184.0,295.0,-156.0,1
7.0,-234.0,-18.0,-156.0,306.0,-159.0,1
13.0,-232.0,-16.0,-137.0,321.0,-159.0,1
15.0,-226.0,-18.0,-123.0,339.0,-160.0,1
21.0,-224.0,-16.0,-115.0,363.0,-159.0,1
27.0,-219.0,-12.0,-113.0,388.0,-158.0,1
32.0,-219.0,-13.0,-119.0,417.0,-161.0,1
36.0,-223.0,-10.0,-128.0,447.0,-162.0,1
38.0,-224.0,-8.0,-140.0,480.0,-165.0,1
43.0,-223.0,-7.0,-151.0,514.0,-170.0,1
43.0,-226.0,-8.0,-159.0,544.0,-179.0,1
44.0,-228.0,-2.0,-164.0,572.0,-190.0,1
44.0,-230.0,-3.0,-167.0,594.0,-201.0,1
44.0,-235.0,-1.0,-171.0,608.0,-212.0,1
40.0,-240.0,2.0,-173.0,613.0,-222.0,1
37.0,-242.0,7.0,-178.0,610.0,-232.0,1
29.0,-246.0,6.0,-187.0,606.0,-244.0,1
16.0,-248.0,8.0,-197.0,601.0,-250.0,1
8.0,-246.0,-1.0,-205.0,593.0,-242.0,1
4.0,-251.0,9.0,-212.0,585.0,-229.0,1
-2.0,-252.0,3.0,-217.0,579.0,-214.0,1
-8.0,-250.0,5.0,-223.0,577.0,-199.0,1
-14.0,-249.0,3.0,-229.0,574.0,-183.0,1
-21.0,-246.0,2.0,-232.0,573.0,-158.0,1
-24.0,-246.0,3.0,-238.0,561.0,-129.0,1
-27.0,-240.0,-1.0,-247.0,545.0,-104.0,1
-22.0,-239.0,-1.0,-257.0,523.0,-82.0,1
-18.0,-238.0,-4.0,-265.0,501.0,-66.0,1
-17.0,-237.0,-2.0,-271.0,480.0,-57.0,1
-14.0,-236.0,1.0,-277.0,458.0,-56.0,1
-8.0,-237.0,-5.0,-275.0,437.0,-58.0,1
-3.0,-240.0,-1.0,-270.0,416.0,-65.0,1
-1.0,-242.0,-2.0,-254.0,399.0,-72.0,1
1.0,-244.0,2.0,-228.0,383.0,-80.0,1
4.0,-246.0,4.0,-195.0,367.0,-87.0,1
5.0,-246.0,3.0,-154.0,347.0,-95.0,1
9.0,-249.0,6.0,-107.0,325.0,-98.0,1
13.0,-250.0,4.0,-59.0,302.0,-98.0,1
11.0,-252.0,9.0,-10.0,275.0,-93.0,1
9.0,-252.0,9.0,35.0,242.0,-85.0,1
7.0,-250.0,9.0,68.0,210.0,-74.0,1
3.0,-249.0,15.0,91.0,180.0,-61.0,1
1.0,-247.0,19.0,104.0,155.0,-46.0,1
-4.0,-243.0,21.0,105.0,134.0,-32.0,1
-2.0,-242.0,24.0,100.0,118.0,-18.0,1
-1.0,-240.0,28.0,92.0,110.0,-8.0,1
-1.0,-235.0,29.0,85.0,105.0,0.0,1
-1.0,-236.0,32.0,79.0,102.0,5.0,1
1.0,-231.0,34.0,69.0,99.0,8.0,1
2.0,-228.0,33.0,58.0,96.0,8.0,1
5.0,-227.0,35.0,42.0,94.0,5.0,1
2.0,-225.0,34.0,28.0,92.0,2.0,1
2.0,-229.0,36.0,14.0,90.0,2.0,1
3.0,-229.0,39.0,0.0,86.0,0.0,1
1.0,-229.0,34.0,-11.0,81.0,-1.0,1
0.0,-233.0,37.0,-20.0,75.0,0.0,1
-7.0,-235.0,34.0,-28.0,68.0,5.0,1
-3.0,-238.0,35.0,-36.0,61.0,12.0,1
-8.0,-238.0,35.0,-42.0,52.0,23.0,1
-10.0,-243.0,33.0,-49.0,43.0,35.0,1
-11.0,-243.0,29.0,-54.0,35.0,50.0,1
-10.0,-246.0,33.0,-56.0,22.0,63.0,1
-13.0,-247.0,35.0,-58.0,6.0,78.0,1
-10.0,-246.0,35.0,-51.0,-10.0,95.0,1
-13.0,-246.0,35.0,-43.0,-24.0,112.0,1
-8.0,-249.0,37.0,-28.0,-45.0,118.0,1
-8.0,-249.0,39.0,-15.0,-58.0,130.0,1
-4.0,-249.0,40.0,2.0,-69.0,145.0,1
-6.0,-248.0,42.0,20.0,-82.0,158.0,1
-5.0,-249.0,43.0,42.0,-98.0,166.0,1
-4.0,-246.0,46.0,58.0,-120.0,171.0,1
-7.0,-246.0,45.0,68.0,-142.0,178.0,1
-8.0,-244.0,51.0,73.0,-166.0,183.0,1
-12.0,-244.0,52.0,77.0,-194.0,187.0,1
-14.0,-248.0,53.0,79.0,-224.0,196.0,1
-17.0,-250.0,60.0,89.0,-260.0,196.0,1
-15.0,-251.0,64.0,107.0,-299.0,190.0,1
-17.0,-254.0,69.0,130.0,-338.0,197.0,1
-24.0,-255.0,73.0,161.0,-377.0,205.0,1
-26.0,-263.0,84.0,189.0,-416.0,211.0,1
-33.0,-270.0,82.0,217.0,-452.0,217.0,1
-36.0,-275.0,85.0,245.0,-482.0,220.0,1
-33.0,-277.0,85.0,269.0,-510.0,226.0,1
-36.0,-282.0,82.0,288.0,-531.0,232.0,1
-30.0,-284.0,68.0,294.0,-544.0,238.0,1
-27.0,-292.0,64.0,281.0,-553.0,241.0,1
-23.0,-302.0,48.0,247.0,-560.0,231.0,1
-11.0,-312.0,40.0,198.0,-557.0,222.0,1
-1.0,-327.0,28.0,130.0,-545.0,208.0,1
10.0,-338.0,4.0,50.0,-521.0,186.0,1
22.0,-352.0,-12.0,-45.0,-489.0,156.0,1
31.0,-364.0,-32.0,-150.0,-445.0,114.0,1
47.0,-378.0,-60.0,-257.0,-392.0,68.0,1
56.0,-397.0,-74.0,-350.0,-331.0,18.0,1
66.0,-408.0,-89.0,-395.0,-276.0,-36.0,1
72.0,-418.0,-107.0,-401.0,-212.0,-100.0,1
69.0,-422.0,-120.0,-384.0,-141.0,-176.0,1
72.0,-420.0,-130.0,-342.0,-62.0,-229.0,1
65.0,-408.0,-135.0,-290.0,17.0,-270.0,1
56.0,-393.0,-133.0,-227.0,79.0,-303.0,1
47.0,-373.0,-131.0,-158.0,117.0,-337.0,1
31.0,-346.0,-121.0,-79.0,132.0,-366.0,1
18.0,-324.0,-110.0,5.0,138.0,-387.0,1
-1.0,-296.0,-97.0,86.0,133.0,-400.0,1
-21.0,-269.0,-86.0,159.0,118.0,-412.0,1
-35.0,-237.0,-84.0,227.0,96.0,-422.0,1
-63.0,-220.0,-68.0,290.0,67.0,-431.0,1
-81.0,-200.0,-66.0,351.0,33.0,-433.0,1
-109.0,-180.0,-62.0,410.0,-9.0,-424.0,1
-126.0,-169.0,-63.0,451.0,-74.0,-409.0,1
-136.0,-157.0,-65.0,464.0,-161.0,-381.0,1
-147.0,-152.0,-64.0,434.0,-270.0,-339.0,1
-148.0,-159.0,-63.0,347.0,-401.0,-287.0,1
-140.0,-165.0,-60.0,222.0,-542.0,-224.0,1
-124.0,-184.0,-58.0,81.0,-674.0,-161.0,1
-99.0,-203.0,-46.0,-54.0,-788.0,-102.0,1
-72.0,-219.0,-44.0,-160.0,-873.0,-55.0,1
-46.0,-240.0,-35.0,-237.0,-915.0,-15.0,1
-23.0,-252.0,-30.0,-286.0,-916.0,16.0,1
0.0,-271.0,-22.0,-303.0,-878.0,43.0,1
21.0,-286.0,-21.0,-289.0,-810.0,71.0,1
44.0,-300.0,-22.0,-250.0,-727.0,95.0,1
63.0,-312.0,-20.0,-194.0,-626.0,122.0,1
74.0,-315.0,-19.0,-133.0,-513.0,151.0,1
84.0,-321.0,-20.0,-74.0,-403.0,175.0,1
85.0,-319.0,-19.0,-22.0,-299.0,197.0,1
80.0,-311.0,-22.0,20.0,-214.0,214.0,1
69.0,-299.0,-20.0,50.0,-142.0,225.0,1
67.0,-280.0,-26.0,70.0,-77.0,229.0,1
51.0,-265.0,-30.0,87.0,-15.0,230.0,1
37.0,-247.0,-28.0,109.0,38.0,242.0,1
21.0,-227.0,-31.0,136.0,74.0,258.0,1
5.0,-211.0,-29.0,161.0,92.0,269.0,1
-13.0,-194.0,-30.0,189.0,96.0,281.0,1
-18.0,-188.0,-24.0,215.0,89.0,296.0,1
-29.0,-179.0,-25.0,220.0,70.0,283.0,1
-35.0,-176.0,-25.0,212.0,45.0,256.0,1
-40.0,-180.0,-21.0,192.0,21.0,231.0,1
-43.0,-185.0,-19.0,169.0,5.0,210.0,1
-43.0,-197.0,-14.0,148.0,-1.0,200.0,1
-41.0,-211.0,-13.0,122.0,0.0,191.0,1
-36.0,-220.0,-10.0,92.0,0.0,188.0,1
-32.0,-232.0,-2.0,57.0,0.0,189.0,1
-26.0,-244.0,4.0,29.0,10.0,194.0,1
-22.0,-252.0,6.0,4.0,25.0,206.0,1
-17.0,-259.0,5.0,-16.0,37.0,218.0,1
-6.0,-264.0,4.0,-34.0,53.0,225.0,1
1.0,-267.0,4.0,-53.0,67.0,225.0,1
4.0,-267.0,5.0,-69.0,77.0,222.0,1
8.0,-264.0,3.0,-73.0,92.0,218.0,1
11.0,-260.0,0.0,-67.0,114.0,213.0,1
16.0,-251.0,0.0,-51.0,140.0,205.0,1
13.0,-246.0,-2.0,-22.0,174.0,194.0,1
16.0,-238.0,-2.0,19.0,220.0,186.0,1
14.0,-233.0,-1.0,71.0,278.0,179.0,1
6.0,-225.0,-1.0,124.0,336.0,180.0,1
7.0,-221.0,1.0,166.0,386.0,184.0,1
6.0,-215.0,-2.0,196.0,438.0,190.0,1
1.0,-210.0,5.0,214.0,492.0,194.0,1
-3.0,-213.0,1.0,223.0,545.0,200.0,1
-10.0,-209.0,0.0,220.0,594.0,198.0,1
-12.0,-211.0,5.0,207.0,631.0,189.0,1
-19.0,-211.0,15.0,195.0,661.0,178.0,1
-22.0,-219.0,19.0,179.0,678.0,156.0,1
-29.0,-221.0,23.0,165.0,684.0,129.0,1
-35.0,-226.0,21.0,156.0,677.0,97.0,1
-36.0,-229.0,27.0,156.0,659.0,63.0,1
-39.0,-232.0,30.0,159.0,635.0,29.0,1
-41.0,-236.0,30.0,170.0,607.0,1.0,1
-42.0,-243.0,32.0,182.0,583.0,-22.0,1
-40.0,-240.0,36.0,198.0,561.0,-40.0,1
-44.0,-243.0,36.0,210.0,543.0,-57.0,1
-49.0,-239.0,35.0,224.0,526.0,-69.0,1
-47.0,-242.0,34.0,236.0,513.0,-75.0,1
-48.0,-240.0,36.0,249.0,502.0,-81.0,1
-49.0,-240.0,36.0,262.0,491.0,-83.0,1
-45.0,-238.0,34.0,272.0,481.0,-85.0,1
-47.0,-236.0,33.0,280.0,469.0,-88.0,1
-45.0,-233.0,32.0,286.0,455.0,-93.0,1
-44.0,-232.0,31.0,290.0,437.0,-101.0,1
-44.0,-229.0,30.0,292.0,413.0,-112.0,1
-45.0,-226.0,28.0,294.0,386.0,-122.0,1
-48.0,-226.0,28.0,301.0,354.0,-132.0,1
-45.0,-229.0,26.0,306.0,315.0,-140.0,1
-43.0,-232.0,27.0,309.0,272.0,-147.0,1
-46.0,-230.0,27.0,312.0,228.0,-161.0,1
-51.0,-228.0,31.0,310.0,185.0,-171.0,1
-47.0,-229.0,31.0,313.0,140.0,-181.0,1
-49.0,-227.0,31.0,318.0,95.0,-186.0,1
-42.0,-225.0,29.0,322.0,50.0,-185.0,1
-43.0,-229.0,30.0,316.0,20.0,-195.0,1
-42.0,-231.0,32.0,297.0,-1.0,-200.0,1
-45.0,-232.0,33.0,270.0,-15.0,-195.0,1
-39.0,-239.0,33.0,239.0,-18.0,-182.0,1
-34.0,-243.0,36.0,199.0,-5.0,-167.0,1
-33.0,-253.0,41.0,155.0,25.0,-149.0,1
-25.0,-263.0,49.0,117.0,66.0,-130.0,1
-18.0,-273.0,58.0,91.0,113.0,-112.0,1
-10.0,-286.0,63.0,75.0,159.0,-95.0,1
-1.0,-302.0,69.0,62.0,210.0,-87.0,1
0.0,-316.0,74.0,45.0,256.0,-88.0,1
5.0,-332.0,72.0,19.0,294.0,-90.0,1
0.0,-349.0,63.0,-14.0,316.0,-90.0,1
0.0,-367.0,46.0,-57.0,320.0,-86.0,1
-7.0,-384.0,42.0,-112.0,299.0,-82.0,1
-19.0,-397.0,24.0,-180.0,254.0,-64.0,1
-30.0,-415.0,14.0,-253.0,185.0,-27.0,1
-35.0,-437.0,2.0,-298.0,110.0,29.0,1
-45.0,-452.0,6.0,-286.0,35.0,99.0,1
-52.0,-459.0,10.0,-199.0,-48.0,185.0,1
-60.0,-461.0,22.0,-57.0,-145.0,283.0,1
-62.0,-451.0,23.0,120.0,-249.0,386.0,1
-62.0,-440.0,24.0,265.0,-361.0,493.0,1
-51.0,-414.0,13.0,416.0,-468.0,582.0,1
-63.0,-388.0,1.0,515.0,-566.0,647.0,1
-63.0,-360.0,-10.0,563.0,-631.0,689.0,1
-62.0,-335.0,-19.0,559.0,-656.0,714.0,1
-52.0,-307.0,-26.0,514.0,-631.0,733.0,1
-41.0,-283.0,-35.0,445.0,-555.0,717.0,1
-36.0,-260.0,-33.0,377.0,-444.0,677.0,1
-32.0,-243.0,-35.0,318.0,-314.0,611.0,1
-20.0,-224.0,-37.0,275.0,-181.0,526.0,1
-14.0,-211.0,-31.0,252.0,-57.0,433.0,1
-3.0,-200.0,-42.0,239.0,52.0,332.0,1
4.0,-189.0,-48.0,229.0,153.0,222.0,1
16.0,-182.0,-56.0,220.0,246.0,108.0,1
33.0,-172.0,-67.0,224.0,342.0,-10.0,1
51.0,-172.0,-74.0,234.0,444.0,-122.0,1
62.0,-165.0,-81.0,238.0,553.0,-224.0,1
74.0,-162.0,-86.0,230.0,666.0,-311.0,1
82.0,-164.0,-82.0,211.0,780.0,-380.0,1
86.0,-170.0,-81.0,176.0,886.0,-425.0,1
84.0,-177.0,-70.0,139.0,979.0,-437.0,1
79.0,-186.0,-65.0,86.0,1043.0,-419.0,1
62.0,-197.0,-50.0,16.0,1076.0,-377.0,1
40.0,-209.0,-37.0,-60.0,1079.0,-319.0,1
18.0,-234.0,-20.0,-119.0,1046.0,-258.0,1
-1.0,-246.0,-5.0,-148.0,994.0,-199.0,1
-25.0,-257.0,10.0,-141.0,922.0,-149.0,1
-40.0,-265.0,18.0,-104.0,849.0,-103.0,1
-56.0,-263.0,20.0,-42.0,781.0,-54.0,1
-67.0,-264.0,21.0,21.0,727.0,-8.0,1
-75.0,-262.0,14.0,67.0,683.0,33.0,1
-82.0,-261.0,2.0,92.0,649.0,61.0,1
-83.0,-256.0,-6.0,90.0,620.0,76.0,1
-79.0,-255.0,-16.0,64.0,592.0,74.0,1
-78.0,-251.0,-21.0,21.0,565.0,54.0,1
-68.0,-250.0,-28.0,-31.0,525.0,21.0,1
-62.0,-246.0,-32.0,-79.0,486.0,-25.0,1
-49.0,-246.0,-34.0,-109.0,446.0,-78.0,1
-37.0,-243.0,-33.0,-116.0,409.0,-131.0,1
-25.0,-239.0,-26.0,-101.0,378.0,-178.0,1
-12.0,-237.0,-16.0,-75.0,355.0,-217.0,1
-3.0,-237.0,-10.0,-45.0,334.0,-246.0,1
5.0,-235.0,-3.0,-16.0,320.0,-259.0,1
8.0,-237.0,7.0,2.0,319.0,-270.0,1
9.0,-236.0,8.0,12.0,327.0,-263.0,1
11.0,-241.0,15.0,9.0,348.0,-245.0,1
12.0,-245.0,20.0,2.0,371.0,-219.0,1
11.0,-250.0,16.0,-8.0,399.0,-194.0,1
7.0,-255.0,10.0,-24.0,436.0,-166.0,1
1.0,-257.0,8.0,-42.0,473.0,-144.0,1
0.0,-261.0,6.0,-61.0,499.0,-135.0,1
-13.0,-263.0,4.0,-78.0,511.0,-137.0,1
-15.0,-265.0,1.0,-91.0,512.0,-148.0,1
-23.0,-261.0,4.0,-95.0,502.0,-162.0,1
-28.0,-259.0,4.0,-92.0,480.0,-176.0,1
-30.0,-254.0,10.0,-85.0,455.0,-191.0,1
-32.0,-251.0,10.0,-76.0,425.0,-204.0,1
-37.0,-246.0,9.0,-69.0,393.0,-221.0,1
-42.0,-243.0,15.0,-55.0,359.0,-235.0,1
-39.0,-245.0,15.0,-37.0,319.0,-243.0,1
-35.0,-245.0,18.0,-18.0,276.0,-257.0,1
-36.0,-241.0,22.0,6.0,236.0,-273.0,1
-34.0,-239.0,28.0,36.0,196.0,-285.0,1
-29.0,-239.0,27.0,65.0,160.0,-295.0,1
-23.0,-235.0,29.0,93.0,124.0,-303.0,1
-19.0,-240.0,29.0,116.0,96.0,-304.0,1
-6.0,-236.0,24.0,133.0,75.0,-308.0,1
-7.0,-233.0,34.0,145.0,58.0,-311.0,1
0.0,-235.0,25.0,148.0,42.0,-308.0,1
1.0,-232.0,31.0,146.0,29.0,-302.0,1
6.0,-231.0,32.0,141.0,19.0,-289.0,1
13.0,-233.0,30.0,134.0,12.0,-273.0,1
13.0,-230.0,32.0,127.0,11.0,-256.0,1
13.0,-232.0,32.0,120.0,9.0,-238.0,1
14.0,-232.0,28.0,112.0,12.0,-217.0,1
15.0,-226.0,31.0,111.0,16.0,-198.0,1
15.0,-224.0,31.0,107.0,20.0,-177.0,1
17.0,-214.0,40.0,109.0,25.0,-156.0,1
12.0,-219.0,34.0,113.0,29.0,-131.0,1
8.0,-214.0,39.0,116.0,34.0,-110.0,1
6.0,-213.0,43.0,118.0,35.0,-89.0,1
6.0,-213.0,43.0,117.0,36.0,-70.0,1
4.0,-215.0,44.0,112.0,37.0,-54.0,1
3.0,-215.0,46.0,104.0,37.0,-40.0,1
0.0,-214.0,48.0,98.0,36.0,-26.0,1
-4.0,-217.0,49.0,92.0,32.0,-15.0,1
-5.0,-219.0,47.0,87.0,24.0,-3.0,1
-8.0,-223.0,53.0,84.0,15.0,9.0,1
-7.0,-220.0,62.0,85.0,8.0,20.0,1
-7.0,-230.0,60.0,87.0,1.0,29.0,1
-12.0,-228.0,63.0,90.0,-11.0,37.0,1
-13.0,-233.0,64.0,97.0,-23.0,48.0,1
-14.0,-236.0,67.0,109.0,-38.0,56.0,1
-16.0,-242.0,65.0,125.0,-55.0,64.0,1
-18.0,-241.0,71.0,147.0,-76.0,68.0,1
-19.0,-246.0,72.0,179.0,-97.0,71.0,1
-18.0,-246.0,70.0,216.0,-116.0,79.0,1
-19.0,-247.0,71.0,259.0,-130.0,86.0,1
-18.0,-247.0,69.0,303.0,-141.0,97.0,1
-17.0,-243.0,66.0,344.0,-143.0,109.0,1
-16.0,-239.0,63.0,380.0,-137.0,124.0,1
-11.0,-235.0,59.0,409.0,-124.0,139.0,1
-6.0,-224.0,57.0,427.0,-110.0,150.0,1
-4.0,-214.0,49.0,431.0,-94.0,158.0,1
0.0,-203.0,52.0,420.0,-82.0,163.0,1
1.0,-198.0,50.0,392.0,-74.0,166.0,1
1.0,-191.0,52.0,342.0,-73.0,166.0,1
9.0,-192.0,55.0,280.0,-81.0,160.0,1
7.0,-193.0,55.0,207.0,-93.0,148.0,1
9.0,-196.0,58.0,139.0,-105.0,127.0,1
12.0,-200.0,59.0,77.0,-114.0,98.0,1
15.0,-219.0,77.0,26.0,-128.0,64.0,1
8.0,-233.0,86.0,-11.0,-152.0,27.0,1
6.0,-245.0,101.0,-29.0,-179.0,-12.0,1
3.0,-256.0,109.0,-26.0,-211.0,-38.0,1
1.0,-267.0,119.0,-10.0,-250.0,-51.0,1
-6.0,-274.0,128.0,19.0,-294.0,-49.0,1
-14.0,-283.0,127.0,55.0,-337.0,-33.0,1
-23.0,-289.0,120.0,91.0,-365.0,-9.0,1
-31.0,-292.0,111.0,120.0,-369.0,25.0,1
-36.0,-300.0,107.0,122.0,-355.0,66.0,1
-38.0,-312.0,86.0,96.0,-324.0,102.0,1
-34.0,-326.0,70.0,13.0,-302.0,130.0,1
-28.0,-351.0,47.0,-139.0,-283.0,146.0,1
-20.0,-366.0,17.0,-349.0,-263.0,140.0,1
-1.0,-385.0,-16.0,-572.0,-218.0,126.0,1
3.0,-406.0,-26.0,-763.0,-150.0,79.0,1
10.0,-427.0,-33.0,-892.0,-64.0,-2.0,1
27.0,-444.0,-26.0,-936.0,18.0,-93.0,1
46.0,-455.0,-21.0,-873.0,104.0,-192.0,1
61.0,-455.0,-18.0,-718.0,200.0,-291.0,1
59.0,-447.0,-18.0,-526.0,299.0,-376.0,1
77.0,-420.0,-29.0,-357.0,382.0,-431.0,1
81.0,-391.0,-37.0,-247.0,449.0,-458.0,1
78.0,-369.0,-50.0,-206.0,498.0,-463.0,1
68.0,-350.0,-60.0,-220.0,526.0,-467.0,1
64.0,-334.0,-77.0,-249.0,530.0,-468.0,1
52.0,-325.0,-78.0,-273.0,515.0,-469.0,1
33.0,-317.0,-79.0,-272.0,482.0,-470.0,1
15.0,-306.0,-71.0,-245.0,427.0,-472.0,1
-4.0,-291.0,-71.0,-196.0,352.0,-468.0,1
-26.0,-273.0,-65.0,-126.0,263.0,-453.0,1
-48.0,-255.0,-61.0,-42.0,167.0,-426.0,1
-75.0,-236.0,-60.0,46.0,69.0,-389.0,1
-102.0,-211.0,-58.0,124.0,-25.0,-341.0,1
-126.0,-191.0,-55.0,178.0,-120.0,-289.0,1
-143.0,-172.0,-52.0,205.0,-209.0,-228.0,1
-158.0,-159.0,-50.0,202.0,-294.0,-160.0,1
-169.0,-151.0,-45.0,166.0,-382.0,-84.0,1
-162.0,-151.0,-42.0,97.0,-479.0,-2.0,1
-161.0,-157.0,-32.0,-9.0,-576.0,79.0,1
-143.0,-176.0,-22.0,-129.0,-664.0,162.0,1
-112.0,-192.0,-18.0,-247.0,-731.0,230.0,1
-85.0,-212.0,-15.0,-349.0,-763.0,279.0,1
-63.0,-239.0,-2.0,-420.0,-765.0,302.0,1
-40.0,-253.0,0.0,-464.0,-756.0,307.0,1
-12.0,-269.0,7.0,-490.0,-738.0,300.0,1
10.0,-285.0,10.0,-504.0,-699.0,273.0,1
32.0,-294.0,11.0,-518.0,-639.0,232.0,1
61.0,-306.0,10.0,-524.0,-555.0,196.0,1
76.0,-310.0,4.0,-509.0,-443.0,154.0,1
98.0,-310.0,1.0,-480.0,-315.0,120.0,1
104.0,-302.0,-5.0,-442.0,-190.0,98.0,1
104.0,-287.0,-13.0,-406.0,-84.0,89.0,1
92.0,-275.0,-18.0,-367.0,0.0,93.0,1
77.0,-256.0,-26.0,-326.0,60.0,106.0,1
64.0,-245.0,-30.0,-294.0,97.0,124.0,1
50.0,-233.0,-33.0,-271.0,122.0,150.0,1
30.0,-219.0,-38.0,-250.0,135.0,186.0,1
13.0,-209.0,-38.0,-229.0,140.0,226.0,1
-2.0,-198.0,-35.0,-210.0,133.0,257.0,1
-17.0,-193.0,-33.0,-193.0,122.0,279.0,1
-30.0,-190.0,-23.0,-184.0,109.0,284.0,1
-39.0,-189.0,-24.0,-179.0,95.0,280.0,1
-45.0,-203.0,-16.0,-177.0,83.0,267.0,1
-46.0,-205.0,-12.0,-179.0,76.0,254.0,1
-50.0,-217.0,-8.0,-186.0,73.0,238.0,1
-50.0,-225.0,-2.0,-199.0,70.0,217.0,1
-48.0,-234.0,-1.0,-216.0,68.0,197.0,1
-41.0,-246.0,4.0,-234.0,68.0,185.0,1
-41.0,-254.0,6.0,-250.0,70.0,179.0,1
-36.0,-262.0,11.0,-259.0,71.0,175.0,1
-41.0,-266.0,10.0,-266.0,75.0,177.0,1
-28.0,-269.0,7.0,-266.0,80.0,182.0,1
-28.0,-271.0,9.0,-261.0,88.0,186.0,1
-22.0,-265.0,11.0,-246.0,97.0,185.0,1
-23.0,-259.0,8.0,-225.0,108.0,183.0,1
-19.0,-252.0,9.0,-202.0,118.0,181.0,1
-16.0,-245.0,4.0,-177.0,128.0,179.0,1
-12.0,-235.0,2.0,-152.0,138.0,175.0,1
-14.0,-229.0,2.0,-133.0,151.0,169.0,1
-11.0,-220.0,3.0,-111.0,168.0,168.0,1
-8.0,-213.0,4.0,-94.0,192.0,165.0,1
-8.0,-214.0,6.0,-76.0,219.0,156.0,1
-11.0,-208.0,6.0,-63.0,246.0,143.0,1
-7.0,-207.0,7.0,-60.0,271.0,127.0,1
-9.0,-202.0,11.0,-59.0,297.0,106.0,1
-15.0,-207.0,9.0,-57.0,320.0,85.0,1
-10.0,-211.0,14.0,-53.0,343.0,71.0,1
-15.0,-212.0,13.0,-48.0,364.0,52.0,1
-23.0,-217.0,18.0,-45.0,379.0,19.0,1
-27.0,-220.0,20.0,-42.0,383.0,-17.0,1
-31.0,-226.0,23.0,-37.0,385.0,-49.0,1
-34.0,-229.0,25.0,-30.0,381.0,-78.0,1
-35.0,-229.0,26.0,-22.0,379.0,-100.0,1
-44.0,-235.0,32.0,-15.0,372.0,-122.0,1
-46.0,-244.0,31.0,-2.0,356.0,-142.0,1
-49.0,-248.0,33.0,22.0,332.0,-156.0,1
-51.0,-248.0,35.0,51.0,307.0,-167.0,1
-54.0,-249.0,36.0,84.0,281.0,-172.0,1
-56.0,-248.0,39.0,112.0,255.0,-177.0,1
-56.0,-245.0,38.0,140.0,232.0,-180.0,1
-61.0,-241.0,43.0,169.0,211.0,-181.0,1
-58.0,-240.0,43.0,197.0,195.0,-188.0,1
-56.0,-234.0,36.0,225.0,180.0,-197.0,1
-52.0,-229.0,40.0,253.0,167.0,-210.0,1
-51.0,-226.0,36.0,279.0,157.0,-227.0,1
-45.0,-229.0,37.0,297.0,147.0,-245.0,1
-38.0,-226.0,37.0,308.0,138.0,-270.0,1
-37.0,-232.0,37.0,316.0,125.0,-301.0,1
-38.0,-231.0,33.0,319.0,110.0,-332.0,1
-35.0,-234.0,26.0,320.0,87.0,-366.0,1
-35.0,-238.0,21.0,317.0,58.0,-396.0,1
-34.0,-234.0,16.0,315.0,17.0,-426.0,1
-35.0,-233.0,17.0,311.0,-39.0,-450.0,1
-43.0,-229.0,12.0,303.0,-104.0,-466.0,1
-49.0,-220.0,9.0,292.0,-183.0,-466.0,1
-60.0,-216.0,5.0,271.0,-266.0,-450.0,1
-63.0,-214.0,6.0,237.0,-353.0,-416.0,1
-69.0,-211.0,4.0,193.0,-429.0,-364.0,1
-70.0,-215.0,7.0,144.0,-485.0,-296.0,1
-65.0,-228.0,17.0,95.0,-514.0,-215.0,1
-58.0,-241.0,29.0,55.0,-508.0,-135.0,1
-48.0,-258.0,43.0,29.0,-472.0,-63.0,1
-39.0,-275.0,58.0,25.0,-416.0,-8.0,1
-27.0,-286.0,76.0,45.0,-346.0,29.0,1
-9.0,-298.0,93.0,82.0,-269.0,48.0,1
2.0,-308.0,98.0,132.0,-193.0,54.0,1
18.0,-311.0,103.0,181.0,-124.0,39.0,1
32.0,-316.0,95.0,215.0,-62.0,6.0,1
39.0,-316.0,97.0,224.0,-8.0,-38.0,1
45.0,-315.0,85.0,211.0,37.0,-81.0,1
45.0,-319.0,73.0,179.0,67.0,-114.0,1
44.0,-325.0,62.0,139.0,89.0,-143.0,1
29.0,-333.0,53.0,95.0,101.0,-161.0,1
17.0,-344.0,43.0,56.0,123.0,-161.0,1
1.0,-348.0,37.0,35.0,150.0,-138.0,1
-4.0,-356.0,28.0,35.0,180.0,-98.0,1
-20.0,-364.0,18.0,51.0,210.0,-51.0,1
-36.0,-369.0,18.0,87.0,236.0,5.0,1
-40.0,-367.0,13.0,142.0,252.0,68.0,1
-51.0,-371.0,14.0,202.0,249.0,141.0,1
-63.0,-363.0,-1.0,261.0,209.0,206.0,1
-65.0,-354.0,-7.0,304.0,136.0,254.0,1
-76.0,-340.0,-13.0,316.0,35.0,289.0,1
-76.0,-332.0,-20.0,296.0,-73.0,319.0,1
-81.0,-321.0,-26.0,248.0,-170.0,343.0,1
-76.0,-309.0,-36.0,184.0,-242.0,372.0,1
-76.0,-302.0,-39.0,109.0,-289.0,400.0,1
-66.0,-296.0,-44.0,38.0,-309.0,428.0,1
-62.0,-288.0,-45.0,-19.0,-303.0,452.0,1
-47.0,-278.0,-58.0,-56.0,-276.0,472.0,1
-34.0,-270.0,-51.0,-68.0,-233.0,489.0,1
-14.0,-264.0,-55.0,-60.0,-179.0,502.0,1
2.0,-250.0,-57.0,-32.0,-109.0,507.0,1
23.0,-234.0,-60.0,10.0,-30.0,510.0,1
50.0,-218.0,-62.0,50.0,50.0,500.0,1
68.0,-196.0,-71.0,82.0,130.0,469.0,1
94.0,-183.0,-75.0,106.0,209.0,427.0,1
115.0,-170.0,-83.0,120.0,293.0,372.0,1
129.0,-154.0,-91.0,116.0,378.0,300.0,1
143.0,-152.0,-94.0,90.0,467.0,220.0,1
147.0,-148.0,-99.0,37.0,559.0,123.0,1
143.0,-151.0,-98.0,-36.0,652.0,19.0,1
134.0,-160.0,-98.0,-117.0,752.0,-75.0,1
121.0,-174.0,-91.0,-193.0,841.0,-165.0,1
83.0,-197.0,-71.0,-262.0,928.0,-238.0,1
46.0,-216.0,-53.0,-307.0,992.0,-284.0,1
20.0,-235.0,-42.0,-325.0,1023.0,-304.0,1
-6.0,-253.0,-20.0,-331.0,1031.0,-291.0,1
-38.0,-273.0,-8.0,-331.0,1024.0,-266.0,1
-66.0,-286.0,6.0,-318.0,990.0,-230.0,1
-95.0,-303.0,29.0,-307.0,942.0,-164.0,1
-127.0,-318.0,26.0,-281.0,833.0,-91.0,1
-133.0,-330.0,25.0,-245.0,687.0,-38.0,1
-137.0,-333.0,18.0,-205.0,540.0,-4.0,1
-139.0,-332.0,14.0,-172.0,413.0,30.0,1
-130.0,-331.0,5.0,-152.0,292.0,60.0,1
-116.0,-322.0,-1.0,-143.0,180.0,77.0,1
-98.0,-313.0,-5.0,-138.0,78.0,84.0,1
-77.0,-294.0,-6.0,-133.0,-11.0,84.0,1
-58.0,-272.0,-18.0,-124.0,-85.0,77.0,1
-43.0,-256.0,-19.0,-107.0,-145.0,67.0,1
-29.0,-248.0,-20.0,-87.0,-190.0,56.0,1
-16.0,-237.0,-19.0,-64.0,-225.0,42.0,1
-3.0,-230.0,-13.0,-40.0,-255.0,30.0,1
0.0,-222.0,-16.0,-20.0,-274.0,18.0,1
6.0,-223.0,-8.0,3.0,-279.0,9.0,1
10.0,-224.0,-4.0,19.0,-274.0,0.0,1
16.0,-228.0,-1.0,29.0,-260.0,-13.0,1
18.0,-231.0,-1.0,29.0,-235.0,-28.0,1
21.0,-242.0,-2.0,18.0,-211.0,-62.0,1
21.0,-244.0,3.0,0.0,-182.0,-99.0,1
19.0,-251.0,2.0,-21.0,-139.0,-125.0,1
23.0,-257.0,10.0,-46.0,-92.0,-143.0,1
15.0,-261.0,7.0,-76.0,-55.0,-160.0,1
8.0,-259.0,6.0,-110.0,-31.0,-187.0,1
3.0,-258.0,12.0,-146.0,-23.0,-216.0,1
1.0,-257.0,10.0,-183.0,-21.0,-234.0,1
-8.0,-251.0,15.0,-214.0,-24.0,-244.0,1
-7.0,-251.0,15.0,-240.0,-34.0,-254.0,1
-12.0,-247.0,19.0,-256.0,-52.0,-268.0,1
-15.0,-242.0,16.0,-263.0,-76.0,-281.0,1
-17.0,-242.0,16.0,-260.0,-101.0,-285.0,1
-22.0,-239.0,17.0,-252.0,-126.0,-281.0,1
-21.0,-233.0,11.0,-240.0,-153.0,-281.0,1
-17.0,-230.0,13.0,-224.0,-175.0,-278.0,1
-18.0,-228.0,10.0,-210.0,-200.0,-276.0,1
-18.0,-223.0,11.0,-197.0,-224.0,-272.0,1
-18.0,-221.0,7.0,-188.0,-244.0,-264.0,1
-11.0,-222.0,7.0,-181.0,-265.0,-251.0,1
-10.0,-222.0,8.0,-179.0,-281.0,-237.0,1
-9.0,-222.0,10.0,-179.0,-297.0,-228.0,1
-7.0,-226.0,13.0,-182.0,-311.0,-217.0,1
-6.0,-229.0,14.0,-181.0,-325.0,-202.0,1
-5.0,-232.0,17.0,-180.0,-337.0,-191.0,1
-3.0,-234.0,18.0,-178.0,-346.0,-168.0,1
-7.0,-235.0,17.0,-176.0,-353.0,-145.0,1
-6.0,-236.0,26.0,-173.0,-360.0,-121.0,1
-7.0,-236.0,20.0,-170.0,-361.0,-95.0,1
-11.0,-235.0,24.0,-164.0,-363.0,-68.0,1
-12.0,-235.0,21.0,-156.0,-359.0,-44.0,1
-14.0,-232.0,24.0,-149.0,-351.0,-17.0,1
-13.0,-229.0,28.0,-143.0,-340.0,8.0,1
-15.0,-227.0,31.0,-137.0,-329.0,32.0,1
-9.0,-222.0,30.0,-131.0,-317.0,55.0,1
-8.0,-224.0,36.0,-124.0,-308.0,77.0,1
-4.0,-227.0,39.0,-120.0,-301.0,98.0,1
-4.0,-226.0,43.0,-117.0,-299.0,114.0,1
0.0,-227.0,43.0,-117.0,-300.0,124.0,1
-1.0,-235.0,44.0,-119.0,-302.0,125.0,1
-4.0,-232.0,45.0,-120.0,-303.0,127.0,1
-7.0,-234.0,43.0,-121.0,-300.0,132.0,1
-8.0,-239.0,46.0,-119.0,-293.0,140.0,1
-10.0,-236.0,47.0,-113.0,-284.0,150.0,1
-13.0,-238.0,45.0,-103.0,-276.0,160.0,1
-14.0,-244.0,50.0,-88.0,-268.0,165.0,1
-12.0,-242.0,48.0,-69.0,-259.0,172.0,1
-17.0,-241.0,50.0,-47.0,-252.0,180.0,1
-19.0,-244.0,50.0,-23.0,-245.0,187.0,1
-19.0,-239.0,47.0,0.0,-238.0,192.0,1
-15.0,-241.0,44.0,19.0,-232.0,197.0,1
-15.0,-234.0,45.0,34.0,-225.0,196.0,1
-11.0,-236.0,41.0,42.0,-222.0,195.0,1
-11.0,-234.0,36.0,43.0,-223.0,191.0,1
-8.0,-227.0,33.0,41.0,-229.0,180.0,1
-3.0,-224.0,34.0,35.0,-239.0,173.0,1
0.0,-224.0,31.0,29.0,-257.0,164.0,1
-1.0,-219.0,29.0,23.0,-282.0,157.0,1
-5.0,-223.0,32.0,15.0,-315.0,154.0,1
-11.0,-225.0,31.0,7.0,-349.0,153.0,1
-18.0,-231.0,36.0,-3.0,-383.0,158.0,1
-24.0,-239.0,36.0,-14.0,-411.0,169.0,1
-29.0,-247.0,37.0,-22.0,-436.0,185.0,1
-39.0,-254.0,46.0,-24.0,-458.0,204.0,1
-38.0,-263.0,45.0,-16.0,-474.0,226.0,1
-42.0,-268.0,54.0,2.0,-493.0,246.0,1
-49.0,-273.0,63.0,28.0,-514.0,261.0,1
-52.0,-276.0,62.0,68.0,-542.0,275.0,1
-46.0,-279.0,59.0,114.0,-569.0,285.0,1
-55.0,-285.0,62.0,163.0,-598.0,293.0,1
-53.0,-285.0,58.0,205.0,-621.0,297.0,1
-51.0,-290.0,49.0,231.0,-634.0,296.0,1
-41.0,-300.0,48.0,234.0,-639.0,293.0,1
-35.0,-311.0,39.0,205.0,-631.0,282.0,1
-31.0,-324.0,27.0,144.0,-611.0,266.0,1
-23.0,-338.0,16.0,56.0,-587.0,249.0,1
-14.0,-351.0,2.0,-55.0,-554.0,226.0,1
-6.0,-367.0,-4.0,-183.0,-512.0,191.0,1
1.0,-382.0,-7.0,-304.0,-461.0,152.0,1
6.0,-395.0,-5.0,-391.0,-398.0,99.0,1
13.0,-406.0,-12.0,-433.0,-334.0,38.0,1
21.0,-410.0,-25.0,-427.0,-258.0,-32.0,1
31.0,-408.0,-32.0,-387.0,-187.0,-103.0,1
39.0,-399.0,-47.0,-331.0,-112.0,-165.0,1
56.0,-383.0,-63.0,-287.0,-51.0,-235.0,1
74.0,-374.0,-84.0,-263.0,9.0,-305.0,1
80.0,-359.0,-91.0,-257.0,71.0,-373.0,1
89.0,-343.0,-98.0,-250.0,122.0,-431.0,1
86.0,-328.0,-91.0,-227.0,143.0,-464.0,1
78.0,-307.0,-95.0,-174.0,119.0,-475.0,1
65.0,-296.0,-84.0,-97.0,69.0,-477.0,1
48.0,-281.0,-80.0,-14.0,8.0,-477.0,1
27.0,-265.0,-74.0,73.0,-57.0,-467.0,1
1.0,-248.0,-66.0,156.0,-128.0,-429.0,1
-25.0,-233.0,-65.0,226.0,-209.0,-371.0,1
-58.0,-218.0,-69.0,266.0,-299.0,-289.0,1
-86.0,-208.0,-68.0,268.0,-396.0,-200.0,1
-115.0,-193.0,-73.0,239.0,-491.0,-118.0,1
-133.0,-189.0,-75.0,194.0,-581.0,-36.0,1
-148.0,-196.0,-72.0,146.0,-668.0,30.0,1
-154.0,-197.0,-68.0,94.0,-757.0,81.0,1
-145.0,-208.0,-65.0,38.0,-838.0,120.0,1
-129.0,-223.0,-59.0,-17.0,-894.0,158.0,1
-104.0,-238.0,-51.0,-66.0,-919.0,189.0,1
-68.0,-252.0,-46.0,-110.0,-913.0,204.0,1
-37.0,-266.0,-38.0,-145.0,-874.0,199.0,1
-3.0,-275.0,-33.0,-168.0,-809.0,178.0,1
21.0,-287.0,-28.0,-177.0,-724.0,143.0,1
47.0,-294.0,-19.0,-165.0,-627.0,106.0,1
75.0,-302.0,-18.0,-136.0,-520.0,64.0,1
103.0,-306.0,-15.0,-94.0,-402.0,19.0,1
126.0,-298.0,-12.0,-50.0,-274.0,-22.0,1
140.0,-301.0,-12.0,-6.0,-151.0,-52.0,1
145.0,-290.0,-10.0,41.0,-33.0,-72.0,1
140.0,-283.0,-10.0,82.0,67.0,-86.0,1
122.0,-268.0,-16.0,107.0,140.0,-96.0,1
104.0,-258.0,-15.0,128.0,186.0,-90.0,1
80.0,-243.0,-20.0,151.0,220.0,-53.0,1
59.0,-235.0,-20.0,180.0,250.0,16.0,1
30.0,-226.0,-19.0,203.0,277.0,100.0,1
6.0,-219.0,-25.0,209.0,296.0,176.0,1
-13.0,-213.0,-28.0,212.0,307.0,241.0,1
-35.0,-212.0,-25.0,206.0,308.0,288.0,1
-51.0,-212.0,-26.0,196.0,298.0,324.0,1
-65.0,-215.0,-22.0,187.0,287.0,349.0,1
-73.0,-218.0,-17.0,170.0,269.0,355.0,1
-78.0,-222.0,-19.0,156.0,249.0,347.0,1
-79.0,-227.0,-13.0,146.0,228.0,334.0,1
-77.0,-234.0,-10.0,138.0,205.0,307.0,1
-71.0,-242.0,-6.0,129.0,176.0,275.0,1
-67.0,-243.0,-12.0,119.0,150.0,244.0,1
-54.0,-247.0,-5.0,105.0,123.0,224.0,1
-47.0,-248.0,1.0,94.0,109.0,215.0,1
-46.0,-245.0,-7.0,84.0,104.0,210.0,1
-28.0,-250.0,-2.0,71.0,102.0,208.0,1
-17.0,-245.0,0.0,61.0,104.0,204.0,1
-9.0,-242.0,2.0,53.0,113.0,197.0,1
-3.0,-235.0,4.0,47.0,132.0,190.0,1
0.0,-228.0,5.0,48.0,160.0,187.0,1
6.0,-224.0,6.0,57.0,193.0,188.0,1
5.0,-224.0,3.0,68.0,234.0,184.0,1
6.0,-220.0,9.0,83.0,277.0,180.0,1
0.0,-215.0,9.0,97.0,318.0,183.0,1
3.0,-213.0,6.0,109.0,349.0,191.0,1
3.0,-210.0,14.0,109.0,377.0,194.0,1
5.0,-210.0,10.0,97.0,401.0,188.0,1
0.0,-209.0,15.0,91.0,428.0,173.0,1
-10.0,-210.0,14.0,88.0,451.0,156.0,1
-12.0,-210.0,17.0,88.0,465.0,142.0,1
-20.0,-212.0,18.0,81.0,475.0,116.0,1
-22.0,-217.0,18.0,77.0,481.0,86.0,1
-31.0,-223.0,22.0,79.0,489.0,53.0,1
-38.0,-225.0,28.0,88.0,498.0,20.0,1
-42.0,-234.0,28.0,103.0,503.0,-10.0,1
-39.0,-233.0,25.0,126.0,510.0,-36.0,1
-47.0,-241.0,30.0,152.0,510.0,-54.0,1
-51.0,-244.0,35.0,180.0,506.0,-65.0,1
-51.0,-245.0,38.0,205.0,499.0,-72.0,1
-51.0,-247.0,36.0,226.0,489.0,-78.0,1
-45.0,-248.0,36.0,237.0,476.0,-82.0,1
-48.0,-245.0,39.0,245.0,461.0,-87.0,1
-49.0,-241.0,38.0,247.0,445.0,-93.0,1
-45.0,-240.0,39.0,250.0,427.0,-100.0,1
-43.0,-237.0,43.0,256.0,409.0,-110.0,1
-40.0,-232.0,43.0,265.0,391.0,-122.0,1
-38.0,-230.0,43.0,276.0,376.0,-138.0,1
-37.0,-230.0,40.0,288.0,361.0,-156.0,1
-40.0,-226.0,40.0,303.0,346.0,-172.0,1
-40.0,-226.0,43.0,318.0,331.0,-185.0,1
-42.0,-229.0,39.0,330.0,317.0,-200.0,1
-45.0,-227.0,40.0,343.0,303.0,-213.0,1
-46.0,-230.0,38.0,357.0,291.0,-221.0,1
-50.0,-227.0,39.0,370.0,276.0,-226.0,1
-47.0,-228.0,42.0,378.0,264.0,-230.0,1
-42.0,-228.0,45.0,384.0,250.0,-232.0,1
-45.0,-226.0,45.0,387.0,236.0,-233.0,1
-46.0,-228.0,52.0,390.0,221.0,-236.0,1
-45.0,-230.0,52.0,392.0,205.0,-237.0,1
-45.0,-232.0,56.0,394.0,183.0,-242.0,1
-47.0,-233.0,58.0,395.0,148.0,-245.0,1
-51.0,-236.0,61.0,397.0,100.0,-243.0,1
-51.0,-232.0,61.0,407.0,41.0,-239.0,1
-54.0,-232.0,59.0,421.0,-23.0,-229.0,1
-62.0,-229.0,59.0,434.0,-82.0,-213.0,1
-61.0,-231.0,53.0,439.0,-136.0,-191.0,1
-63.0,-233.0,49.0,431.0,-175.0,-160.0,1
-62.0,-235.0,47.0,398.0,-193.0,-126.0,1
-64.0,-240.0,40.0,342.0,-201.0,-90.0,1
-59.0,-247.0,36.0,256.0,-196.0,-55.0,1
-59.0,-252.0,31.0,153.0,-184.0,-29.0,1
-55.0,-264.0,27.0,41.0,-176.0,-1.0,1
-57.0,-278.0,21.0,-66.0,-173.0,24.0,1
-55.0,-295.0,16.0,-166.0,-183.0,47.0,1
-51.0,-312.0,11.0,-255.0,-214.0,67.0,1
-49.0,-327.0,11.0,-335.0,-268.0,88.0,1
-46.0,-339.0,3.0,-405.0,-339.0,117.0,1
-43.0,-358.0,8.0,-457.0,-424.0,159.0,1
-40.0,-370.0,7.0,-487.0,-517.0,213.0,1
-40.0,-380.0,9.0,-487.0,-605.0,279.0,1
-35.0,-396.0,15.0,-456.0,-679.0,357.0,1
-34.0,-403.0,15.0,-402.0,-739.0,434.0,1
-33.0,-406.0,14.0,-329.0,-787.0,501.0,1
-29.0,-401.0,20.0,-246.0,-823.0,554.0,1
-24.0,-395.0,16.0,-156.0,-834.0,597.0,1
-12.0,-382.0,13.0,-61.0,-814.0,621.0,1
-3.0,-369.0,17.0,41.0,-765.0,628.0,1
4.0,-348.0,20.0,145.0,-686.0,615.0,1
7.0,-329.0,18.0,243.0,-585.0,592.0,1
16.0,-307.0,15.0,325.0,-470.0,560.0,1
24.0,-291.0,12.0,383.0,-348.0,513.0,1
29.0,-272.0,5.0,412.0,-228.0,455.0,1
37.0,-255.0,1.0,415.0,-112.0,379.0,1
39.0,-248.0,-7.0,394.0,-9.0,293.0,1
40.0,-237.0,-13.0,357.0,79.0,198.0,1
41.0,-231.0,-20.0,312.0,156.0,103.0,1
34.0,-224.0,-32.0,268.0,228.0,17.0,1
35.0,-218.0,-39.0,223.0,298.0,-56.0,1
28.0,-212.0,-49.0,178.0,367.0,-119.0,1
22.0,-207.0,-45.0,132.0,439.0,-166.0,1
25.0,-207.0,-57.0,83.0,514.0,-200.0,1
23.0,-201.0,-47.0,30.0,596.0,-219.0,1
22.0,-200.0,-46.0,-17.0,680.0,-223.0,1
20.0,-200.0,-45.0,-54.0,757.0,-208.0,1
13.0,-200.0,-33.0,-84.0,821.0,-175.0,1
6.0,-209.0,-29.0,-116.0,845.0,-127.0,1
7.0,-218.0,-26.0,-149.0,829.0,-77.0,1
0.0,-228.0,-20.0,-178.0,792.0,-38.0,1
-1.0,-236.0,-16.0,-196.0,732.0,-9.0,1
-1.0,-253.0,-17.0,-199.0,664.0,13.0,1
-3.0,-262.0,-15.0,-185.0,606.0,22.0,1
-3.0,-275.0,-12.0,-162.0,565.0,24.0,1
-8.0,-275.0,-14.0,-133.0,540.0,26.0,1
-3.0,-274.0,-9.0,-104.0,529.0,28.0,1
-1.0,-270.0,-6.0,-85.0,527.0,30.0,1
0.0,-267.0,0.0,-70.0,527.0,26.0,1
-1.0,-262.0,-4.0,-65.0,525.0,20.0,1
-4.0,-256.0,-2.0,-65.0,515.0,10.0,1
-6.0,-257.0,1.0,-71.0,506.0,-7.0,1
-6.0,-258.0,-5.0,-79.0,495.0,-25.0,1
-12.0,-257.0,-3.0,-86.0,488.0,-49.0,1
-13.0,-256.0,-6.0,-89.0,484.0,-79.0,1
-17.0,-256.0,-6.0,-84.0,486.0,-114.0,1
-13.0,-256.0,-4.0,-76.0,494.0,-144.0,1
-7.0,-259.0,-7.0,-61.0,507.0,-170.0,1
-4.0,-253.0,-9.0,-42.0,524.0,-190.0,1
1.0,-256.0,0.0,-23.0,547.0,-207.0,1
2.0,-252.0,1.0,-7.0,573.0,-216.0,1
7.0,-254.0,4.0,9.0,603.0,-219.0,1
4.0,-252.0,6.0,22.0,633.0,-218.0,1
11.0,-253.0,9.0,38.0,656.0,-215.0,1
6.0,-248.0,14.0,51.0,672.0,-210.0,1
1.0,-247.0,11.0,57.0,684.0,-205.0,1
5.0,-244.0,15.0,59.0,693.0,-201.0,1
3.0,-243.0,15.0,56.0,700.0,-200.0,1
-1.0,-239.0,13.0,47.0,703.0,-201.0,1
-6.0,-238.0,5.0,35.0,705.0,-205.0,1
-10.0,-237.0,13.0,21.0,706.0,-214.0,1
-17.0,-235.0,11.0,4.0,704.0,-224.0,1
-17.0,-238.0,15.0,-12.0,693.0,-232.0,1
-23.0,-236.0,18.0,-26.0,677.0,-243.0,1
-22.0,-239.0,18.0,-36.0,651.0,-252.0,1
-25.0,-239.0,20.0,-43.0,620.0,-259.0,1
-27.0,-241.0,24.0,-45.0,585.0,-269.0,1
-20.0,-235.0,15.0,-42.0,542.0,-277.0,1
-24.0,-241.0,28.0,-37.0,498.0,-285.0,1
-22.0,-241.0,28.0,-29.0,461.0,-293.0,1
-20.0,-240.0,36.0,-20.0,427.0,-300.0,1
-18.0,-237.0,35.0,-12.0,393.0,-306.0,1
-15.0,-238.0,33.0,-1.0,363.0,-309.0,1
-14.0,-236.0,32.0,4.0,333.0,-308.0,1
-14.0,-237.0,30.0,5.0,301.0,-307.0,1
-10.0,-236.0,33.0,1.0,268.0,-301.0,1
-10.0,-235.0,30.0,-6.0,240.0,-293.0,1
-6.0,-237.0,27.0,-12.0,215.0,-280.0,1
-3.0,-237.0,29.0,-18.0,197.0,-264.0,1
-5.0,-237.0,28.0,-23.0,188.0,-246.0,1
-3.0,-232.0,30.0,-29.0,183.0,-229.0,1
0.0,-236.0,29.0,-33.0,188.0,-213.0,1
0.0,-233.0,27.0,-40.0,191.0,-195.0,1
2.0,-227.0,27.0,-44.0,196.0,-177.0,1
3.0,-230.0,31.0,-50.0,199.0,-159.0,1
1.0,-229.0,37.0,-55.0,197.0,-142.0,1
5.0,-230.0,35.0,-59.0,188.0,-125.0,1
4.0,-230.0,36.0,-60.0,177.0,-109.0,1
2.0,-229.0,38.0,-54.0,166.0,-91.0,1
0.0,-229.0,41.0,-47.0,158.0,-76.0,1
0.0,-230.0,42.0,-40.0,153.0,-59.0,1
-1.0,-226.0,46.0,-33.0,149.0,-43.0,1
-6.0,-227.0,51.0,-30.0,149.0,-29.0,1
-6.0,-226.0,52.0,-30.0,151.0,-15.0,1
-5.0,-230.0,57.0,-34.0,151.0,-3.0,1
-10.0,-227.0,55.0,-43.0,148.0,6.0,1
-12.0,-230.0,58.0,-54.0,142.0,14.0,1
-12.0,-229.0,65.0,-64.0,131.0,20.0,1
-15.0,-234.0,65.0,-73.0,111.0,29.0,1
-15.0,-236.0,65.0,-77.0,90.0,31.0,1
-21.0,-238.0,69.0,-81.0,71.0,30.0,1
-22.0,-243.0,74.0,-80.0,49.0,28.0,1
-26.0,-246.0,71.0,-71.0,29.0,33.0,1
-27.0,-246.0,76.0,-60.0,8.0,46.0,1
-31.0,-245.0,77.0,-46.0,-12.0,56.0,1
-32.0,-249.0,72.0,-29.0,-30.0,69.0,1
-33.0,-249.0,72.0,-9.0,-49.0,88.0,1
-31.0,-252.0,73.0,14.0,-61.0,104.0,1
-29.0,-254.0,71.0,44.0,-69.0,124.0,1
-29.0,-255.0,64.0,79.0,-74.0,141.0,1
-21.0,-255.0,64.0,113.0,-71.0,155.0,1
-14.0,-256.0,55.0,145.0,-61.0,165.0,1
-5.0,-251.0,49.0,170.0,-47.0,173.0,1
2.0,-248.0,44.0,194.0,-27.0,176.0,1
12.0,-247.0,39.0,208.0,-3.0,174.0,1
25.0,-242.0,39.0,224.0,26.0,173.0,1
31.0,-241.0,36.0,237.0,64.0,165.0,1
43.0,-234.0,36.0,239.0,100.0,154.0,1
50.0,-233.0,33.0,227.0,137.0,139.0,1
56.0,-228.0,38.0,200.0,171.0,120.0,1
57.0,-225.0,36.0,170.0,205.0,94.0,1
58.0,-226.0,39.0,136.0,240.0,60.0,1
55.0,-232.0,43.0,105.0,273.0,21.0,1
49.0,-239.0,47.0,71.0,306.0,-25.0,1
40.0,-247.0,52.0,33.0,337.0,-80.0,1
32.0,-262.0,54.0,-8.0,365.0,-139.0,1
16.0,-275.0,56.0,-55.0,383.0,-198.0,1
2.0,-290.0,53.0,-110.0,379.0,-254.0,1
-14.0,-311.0,50.0,-162.0,355.0,-304.0,1
-32.0,-321.0,48.0,-203.0,320.0,-340.0,1
-50.0,-338.0,43.0,-220.0,277.0,-353.0,1
-59.0,-349.0,32.0,-210.0,232.0,-338.0,1
-81.0,-355.0,32.0,-183.0,184.0,-322.0,1
-98.0,-356.0,29.0,-128.0,131.0,-290.0,1
-111.0,-345.0,21.0,-55.0,73.0,-226.0,1
-121.0,-332.0,15.0,15.0,11.0,-149.0,1
-125.0,-311.0,9.0,59.0,-50.0,-63.0,1
-124.0,-293.0,1.0,72.0,-113.0,22.0,1
-112.0,-282.0,-11.0,60.0,-183.0,106.0,1
-100.0,-274.0,-18.0,27.0,-259.0,182.0,1
-78.0,-265.0,-20.0,-24.0,-342.0,232.0,1
-62.0,-260.0,-30.0,-86.0,-430.0,249.0,1
-38.0,-255.0,-35.0,-151.0,-514.0,240.0,1
-16.0,-255.0,-38.0,-220.0,-589.0,210.0,1
2.0,-257.0,-45.0,-290.0,-660.0,162.0,1
15.0,-264.0,-49.0,-355.0,-723.0,104.0,1
25.0,-268.0,-49.0,-402.0,-773.0,45.0,1
30.0,-270.0,-53.0,-431.0,-811.0,-16.0,1
31.0,-274.0,-57.0,-446.0,-843.0,-79.0,1
25.0,-271.0,-61.0,-452.0,-868.0,-141.0,1
17.0,-266.0,-66.0,-454.0,-897.0,-205.0,1
5.0,-259.0,-70.0,-443.0,-919.0,-250.0,1
-1.0,-250.0,-75.0,-409.0,-916.0,-249.0,1
-13.0,-246.0,-65.0,-375.0,-898.0,-222.0,1
-24.0,-229.0,-83.0,-362.0,-872.0,-195.0,1
-41.0,-219.0,-82.0,-382.0,-841.0,-170.0,1
-51.0,-219.0,-79.0,-414.0,-804.0,-137.0,1
-55.0,-221.0,-73.0,-457.0,-759.0,-102.0,1
-52.0,-224.0,-61.0,-494.0,-710.0,-70.0,1
-47.0,-237.0,-53.0,-517.0,-654.0,-43.0,1
-41.0,-246.0,-41.0,-522.0,-602.0,-29.0,1
-34.0,-256.0,-31.0,-509.0,-552.0,-25.0,1
-23.0,-267.0,-25.0,-483.0,-501.0,-25.0,1
-14.0,-277.0,-20.0,-455.0,-449.0,-23.0,1
-1.0,-288.0,-21.0,-427.0,-399.0,-28.0,1
2.0,-292.0,-19.0,-402.0,-353.0,-34.0,1
12.0,-295.0,-15.0,-376.0,-311.0,-34.0,1
17.0,-294.0,-16.0,-345.0,-275.0,-35.0,1
21.0,-293.0,-15.0,-311.0,-245.0,-32.0,1
25.0,-291.0,-13.0,-275.0,-222.0,-23.0,1
23.0,-282.0,-11.0,-243.0,-207.0,-10.0,1
24.0,-276.0,-9.0,-217.0,-203.0,12.0,1
18.0,-267.0,-12.0,-201.0,-204.0,37.0,1
15.0,-259.0,-11.0,-194.0,-209.0,61.0,1
8.0,-250.0,-11.0,-198.0,-215.0,87.0,1
5.0,-245.0,-15.0,-210.0,-223.0,107.0,1
2.0,-236.0,-18.0,-228.0,-229.0,123.0,1
-2.0,-231.0,-18.0,-250.0,-235.0,132.0,1
-9.0,-226.0,-16.0,-274.0,-238.0,135.0,1
-11.0,-228.0,-13.0,-300.0,-240.0,129.0,1
-15.0,-226.0,-14.0,-328.0,-234.0,116.0,1
-16.0,-230.0,-11.0,-354.0,-225.0,104.0,1
-18.0,-234.0,-7.0,-375.0,-210.0,89.0,1
-18.0,-232.0,-10.0,-389.0,-192.0,76.0,1
-16.0,-242.0,-8.0,-400.0,-167.0,63.0,1
-17.0,-246.0,-8.0,-404.0,-137.0,53.0,1
-16.0,-250.0,-2.0,-403.0,-97.0,47.0,1
-17.0,-255.0,-8.0,-398.0,-52.0,48.0,1
-16.0,-257.0,-4.0,-390.0,-4.0,53.0,1
-19.0,-262.0,-3.0,-380.0,44.0,57.0,1
-17.0,-262.0,-1.0,-366.0,96.0,66.0,1
-17.0,-260.0,-3.0,-347.0,144.0,77.0,1
-17.0,-258.0,-3.0,-328.0,189.0,87.0,1
-16.0,-255.0,-1.0,-303.0,233.0,95.0,1
-15.0,-247.0,0.0,-279.0,268.0,103.0,1
-15.0,-244.0,-1.0,-258.0,300.0,109.0,1
-24.0,-237.0,-9.0,-242.0,321.0,110.0,1
-15.0,-230.0,-3.0,-232.0,339.0,109.0,1
-15.0,-222.0,-4.0,-229.0,353.0,108.0,1
-16.0,-215.0,-5.0,-231.0,362.0,105.0,1
-20.0,-210.0,-6.0,-239.0,368.0,97.0,1
-20.0,-207.0,-10.0,-253.0,371.0,91.0,1
-24.0,-205.0,-4.0,-268.0,373.0,84.0,1
-23.0,-203.0,-2.0,-283.0,373.0,77.0,1
-29.0,-209.0,0.0,-293.0,374.0,64.0,1
-33.0,-211.0,-2.0,-295.0,372.0,59.0,1
-32.0,-217.0,4.0,-290.0,368.0,53.0,1
-36.0,-215.0,8.0,-280.0,363.0,48.0,1
-36.0,-220.0,10.0,-265.0,358.0,45.0,1
-37.0,-220.0,10.0,-245.0,351.0,45.0,1
-33.0,-224.0,14.0,-223.0,346.0,43.0,1
-34.0,-222.0,13.0,-201.0,344.0,39.0,1
-31.0,-227.0,11.0,-178.0,346.0,35.0,1
-31.0,-222.0,12.0,-159.0,350.0,29.0,1
-28.0,-228.0,12.0,-143.0,355.0,21.0,1
-27.0,-229.0,15.0,-130.0,359.0,7.0,1
-23.0,-233.0,12.0,-120.0,365.0,-10.0,1
-18.0,-234.0,9.0,-112.0,377.0,-28.0,1
-10.0,-226.0,8.0,-108.0,392.0,-47.0,1
-10.0,-246.0,6.0,-103.0,410.0,-70.0,1
-12.0,-246.0,6.0,-98.0,429.0,-94.0,1
-10.0,-248.0,5.0,-89.0,447.0,-118.0,1
-14.0,-245.0,5.0,-78.0,463.0,-142.0,1
-13.0,-247.0,4.0,-68.0,475.0,-166.0,1
-20.0,-245.0,9.0,-59.0,480.0,-188.0,1
-19.0,-245.0,8.0,-52.0,479.0,-210.0,1
-28.0,-244.0,13.0,-46.0,473.0,-228.0,1
-37.0,-242.0,8.0,-36.0,460.0,-239.0,1
-44.0,-242.0,8.0,-25.0,442.0,-240.0,1
-52.0,-241.0,11.0,-14.0,424.0,-229.0,1
-56.0,-244.0,13.0,-4.0,403.0,-210.0,1
-60.0,-244.0,14.0,0.0,379.0,-177.0,1
-64.0,-252.0,10.0,-5.0,352.0,-146.0,1
-66.0,-255.0,7.0,-22.0,323.0,-97.0,1
-71.0,-259.0,0.0,-53.0,295.0,-44.0,1
-68.0,-267.0,-10.0,-100.0,271.0,13.0,1
-64.0,-267.0,-15.0,-154.0,249.0,64.0,1
-57.0,-274.0,-20.0,-206.0,229.0,105.0,1
-52.0,-276.0,-20.0,-249.0,209.0,138.0,1
-43.0,-279.0,-20.0,-276.0,184.0,160.0,1
-36.0,-272.0,-24.0,-293.0,149.0,174.0,1
-28.0,-278.0,-21.0,-299.0,109.0,182.0,1
-19.0,-281.0,-23.0,-303.0,61.0,180.0,1
-19.0,-278.0,-23.0,-308.0,7.0,170.0,1
-17.0,-273.0,-28.0,-316.0,-52.0,152.0,1
-19.0,-268.0,-29.0,-324.0,-111.0,127.0,1
-23.0,-260.0,-32.0,-337.0,-168.0,102.0,1
-27.0,-257.0,-33.0,-353.0,-216.0,71.0,1
-27.0,-254.0,-37.0,-377.0,-254.0,44.0,1
-34.0,-253.0,-38.0,-407.0,-282.0,22.0,1
-34.0,-258.0,-38.0,-443.0,-300.0,5.0,1
-41.0,-262.0,-43.0,-479.0,-310.0,-8.0,1
-40.0,-271.0,-46.0,-508.0,-316.0,-19.0,1
-41.0,-276.0,-35.0,-524.0,-319.0,-24.0,1
-40.0,-284.0,-37.0,-522.0,-324.0,-26.0,1
-38.0,-291.0,-36.0,-502.0,-326.0,-26.0,1
-36.0,-294.0,-34.0,-468.0,-326.0,-23.0,1
-29.0,-292.0,-32.0,-433.0,-324.0,-21.0,1
-26.0,-292.0,-31.0,-399.0,-324.0,-20.0,1
-21.0,-286.0,-32.0,-371.0,-325.0,-20.0,1
-14.0,-285.0,-30.0,-350.0,-332.0,-19.0,1
-5.0,-287.0,-33.0,-332.0,-352.0,-20.0,1
1.0,-284.0,-27.0,-314.0,-390.0,-24.0,1
4.0,-281.0,-26.0,-294.0,-448.0,-29.0,1
8.0,-285.0,-26.0,-280.0,-528.0,-46.0,1
6.0,-285.0,-32.0,-270.0,-616.0,-75.0,1
3.0,-287.0,-28.0,-265.0,-703.0,-108.0,1
-1.0,-294.0,-34.0,-261.0,-790.0,-136.0,1
0.0,-305.0,-31.0,-259.0,-870.0,-165.0,1
-18.0,-312.0,-30.0,-253.0,-939.0,-201.0,1
-18.0,-316.0,-40.0,-230.0,-1000.0,-206.0,1
-24.0,-318.0,-43.0,-197.0,-1045.0,-196.0,1
-30.0,-322.0,-45.0,-160.0,-1062.0,-170.0,1
-34.0,-329.0,-50.0,-118.0,-1051.0,-113.0,1
-38.0,-321.0,-49.0,-71.0,-1019.0,-40.0,1
-38.0,-324.0,-49.0,-30.0,-997.0,8.0,1
-45.0,-332.0,-49.0,24.0,-1005.0,41.0,1
-47.0,-334.0,-53.0,72.0,-1048.0,85.0,1
-46.0,-328.0,-58.0,117.0,-1107.0,146.0,1
-36.0,-311.0,-68.0,141.0,-1155.0,216.0,1
-33.0,-298.0,-56.0,129.0,-1186.0,283.0,1
-21.0,-276.0,-55.0,96.0,-1221.0,306.0,1
-15.0,-256.0,-61.0,40.0,-1241.0,326.0,1
-35.0,-263.0,-53.0,-29.0,-1297.0,314.0,1
-34.0,-247.0,-57.0,-97.0,-1338.0,327.0,1
-22.0,-238.0,-58.0,-179.0,-1352.0,350.0,1
-19.0,-225.0,-56.0,-275.0,-1373.0,343.0,1
-12.0,-217.0,-58.0,-376.0,-1417.0,297.0,1
-8.0,-215.0,-66.0,-462.0,-1465.0,243.0,1
-4.0,-220.0,-73.0,-529.0,-1502.0,206.0,1
-5.0,-228.0,-83.0,-578.0,-1521.0,185.0,1
-1.0,-242.0,-78.0,-605.0,-1525.0,182.0,1
0.0,-251.0,-79.0,-609.0,-1523.0,187.0,1
0.0,-261.0,-80.0,-602.0,-1519.0,192.0,1
-3.0,-269.0,-81.0,-592.0,-1515.0,193.0,1
-4.0,-276.0,-80.0,-582.0,-1511.0,191.0,1
-3.0,-281.0,-82.0,-580.0,-1507.0,190.0,1
-8.0,-283.0,-84.0,-595.0,-1497.0,190.0,1
-9.0,-285.0,-83.0,-628.0,-1497.0,197.0,1
-17.0,-281.0,-84.0,-671.0,-1495.0,203.0,1
-18.0,-278.0,-85.0,-708.0,-1492.0,211.0,1
-17.0,-277.0,-83.0,-734.0,-1479.0,214.0,1
-20.0,-274.0,-80.0,-742.0,-1458.0,213.0,1
-17.0,-268.0,-78.0,-732.0,-1431.0,205.0,1
-19.0,-253.0,-77.0,-706.0,-1408.0,197.0,1
-18.0,-249.0,-81.0,-668.0,-1389.0,185.0,1
-16.0,-246.0,-88.0,-635.0,-1373.0,175.0,1
-10.0,-241.0,-93.0,-617.0,-1351.0,165.0,1
-3.0,-237.0,-94.0,-626.0,-1323.0,156.0,1
0.0,-242.0,-92.0,-653.0,-1294.0,144.0,1
2.0,-249.0,-95.0,-687.0,-1265.0,128.0,1
3.0,-256.0,-94.0,-712.0,-1230.0,106.0,1
8.0,-268.0,-98.0,-712.0,-1185.0,85.0,1
11.0,-286.0,-104.0,-678.0,-1122.0,51.0,1
8.0,-297.0,-106.0,-610.0,-1032.0,1.0,1
7.0,-302.0,-113.0,-517.0,-930.0,-45.0,1
10.0,-307.0,-118.0,-422.0,-832.0,-92.0,1
10.0,-307.0,-119.0,-333.0,-748.0,-122.0,1
18.0,-302.0,-119.0,-263.0,-676.0,-143.0,1
21.0,-290.0,-120.0,-221.0,-611.0,-162.0,1
25.0,-274.0,-118.0,-212.0,-543.0,-182.0,1
28.0,-260.0,-112.0,-228.0,-473.0,-210.0,1
23.0,-251.0,-105.0,-254.0,-402.0,-245.0,1
25.0,-241.0,-98.0,-276.0,-329.0,-277.0,1
17.0,-234.0,-97.0,-281.0,-259.0,-303.0,1
19.0,-224.0,-90.0,-273.0,-194.0,-330.0,1
6.0,-219.0,-86.0,-252.0,-142.0,-357.0,1
0.0,-216.0,-88.0,-220.0,-101.0,-371.0,1
-6.0,-207.0,-85.0,-180.0,-77.0,-374.0,1
-15.0,-202.0,-87.0,-148.0,-76.0,-381.0,1
-20.0,-198.0,-90.0,-136.0,-96.0,-390.0,1
-33.0,-198.0,-91.0,-147.0,-128.0,-399.0,1
-37.0,-194.0,-93.0,-164.0,-175.0,-394.0,1
-35.0,-187.0,-95.0,-223.0,-216.0,-403.0,1
-35.0,-193.0,-90.0,-309.0,-228.0,-419.0,1
-41.0,-198.0,-87.0,-372.0,-226.0,-416.0,1
-42.0,-209.0,-82.0,-421.0,-215.0,-405.0,1
-38.0,-220.0,-78.0,-460.0,-187.0,-395.0,1
-36.0,-225.0,-70.0,-483.0,-158.0,-386.0,1
-29.0,-232.0,-70.0,-481.0,-140.0,-372.0,1
-31.0,-240.0,-64.0,-455.0,-131.0,-362.0,1
-29.0,-247.0,-67.0,-409.0,-129.0,-357.0,1
-29.0,-251.0,-64.0,-349.0,-136.0,-355.0,1
-32.0,-254.0,-62.0,-285.0,-137.0,-355.0,1
-32.0,-248.0,-68.0,-227.0,-142.0,-354.0,1
-28.0,-247.0,-68.0,-189.0,-160.0,-356.0,1
-30.0,-231.0,-72.0,-175.0,-191.0,-358.0,1
-26.0,-233.0,-74.0,-180.0,-234.0,-351.0,1
-28.0,-232.0,-78.0,-202.0,-270.0,-335.0,1
-27.0,-227.0,-84.0,-234.0,-297.0,-320.0,1
-35.0,-233.0,-85.0,-260.0,-317.0,-304.0,1
-38.0,-233.0,-86.0,-274.0,-334.0,-294.0,1
-39.0,-238.0,-86.0,-276.0,-354.0,-289.0,1
-43.0,-238.0,-85.0,-265.0,-375.0,-286.0,1
-45.0,-238.0,-86.0,-251.0,-391.0,-282.0,1
-44.0,-236.0,-83.0,-237.0,-406.0,-274.0,1
-45.0,-239.0,-85.0,-227.0,-417.0,-264.0,1
-41.0,-237.0,-85.0,-224.0,-425.0,-246.0,1
-41.0,-234.0,-84.0,-224.0,-429.0,-225.0,1
-39.0,-235.0,-86.0,-223.0,-434.0,-201.0,1
-31.0,-240.0,-88.0,-219.0,-440.0,-182.0,1
-35.0,-237.0,-85.0,-211.0,-449.0,-168.0,1
-33.0,-237.0,-92.0,-206.0,-460.0,-147.0,1
-30.0,-242.0,-91.0,-200.0,-466.0,-121.0,1
-31.0,-241.0,-88.0,-189.0,-478.0,-109.0,1
-32.0,-239.0,-87.0,-170.0,-490.0,-107.0,1
-33.0,-240.0,-89.0,-143.0,-498.0,-107.0,1
-28.0,-241.0,-87.0,-116.0,-493.0,-104.0,1
-28.0,-231.0,-84.0,-88.0,-474.0,-99.0,1
-29.0,-235.0,-91.0,-65.0,-452.0,-90.0,1
-31.0,-232.0,-90.0,-43.0,-429.0,-81.0,1
-33.0,-231.0,-92.0,-23.0,-413.0,-73.0,1
-32.0,-228.0,-95.0,-11.0,-403.0,-64.0,1
-34.0,-227.0,-95.0,-6.0,-398.0,-54.0,1
-28.0,-229.0,-98.0,-3.0,-400.0,-43.0,1
-32.0,-229.0,-96.0,1.0,-402.0,-31.0,1
-30.0,-234.0,-88.0,7.0,-404.0,-16.0,1
-28.0,-235.0,-95.0,13.0,-401.0,-4.0,1
-25.0,-234.0,-93.0,22.0,-401.0,-1.0,1
-28.0,-236.0,-95.0,30.0,-401.0,-2.0,1
-25.0,-229.0,-95.0,38.0,-398.0,5.0,1
-28.0,-228.0,-93.0,43.0,-393.0,12.0,1
-28.0,-225.0,-98.0,41.0,-393.0,21.0,1
-21.0,-232.0,-94.0,37.0,-386.0,30.0,1
-27.0,-227.0,-92.0,37.0,-370.0,32.0,1
-26.0,-231.0,-88.0,42.0,-348.0,34.0,1
-28.0,-232.0,-85.0,48.0,-331.0,41.0,1
-26.0,-236.0,-81.0,57.0,-322.0,50.0,1
-25.0,-229.0,-81.0,68.0,-321.0,58.0,1
-25.0,-231.0,-82.0,82.0,-325.0,59.0,1
-21.0,-224.0,-76.0,101.0,-329.0,51.0,1
-24.0,-225.0,-79.0,120.0,-320.0,39.0,1
-30.0,-225.0,-81.0,135.0,-321.0,14.0,1
-23.0,-223.0,-81.0,142.0,-337.0,-12.0,1
-23.0,-218.0,-87.0,137.0,-343.0,-26.0,1
-28.0,-222.0,-90.0,135.0,-337.0,-31.0,1
-28.0,-225.0,-88.0,136.0,-339.0,-35.0,1
-29.0,-229.0,-84.0,135.0,-355.0,-48.0,1
-27.0,-229.0,-83.0,124.0,-377.0,-67.0,1
-19.0,-234.0,-84.0,119.0,-384.0,-66.0,1
-14.0,-236.0,-77.0,142.0,-379.0,-60.0,1
-11.0,-237.0,-81.0,175.0,-370.0,-70.0,1
-5.0,-233.0,-83.0,188.0,-343.0,-57.0,1
-3.0,-233.0,-84.0,175.0,-293.0,-34.0,1
-4.0,-231.0,-80.0,145.0,-241.0,-24.0,1
-6.0,-232.0,-76.0,118.0,-194.0,-25.0,1
-9.0,-232.0,-75.0,110.0,-163.0,-28.0,1
-15.0,-237.0,-69.0,118.0,-148.0,-36.0,1
-21.0,-244.0,-67.0,142.0,-150.0,-44.0,1
-20.0,-243.0,-63.0,183.0,-174.0,-49.0,1
-18.0,-244.0,-70.0,228.0,-199.0,-48.0,1
-16.0,-243.0,-73.0,263.0,-216.0,-50.0,1
-23.0,-249.0,-73.0,277.0,-222.0,-57.0,1
-14.0,-244.0,-78.0,271.0,-204.0,-65.0,1
-15.0,-246.0,-81.0,253.0,-170.0,-75.0,1
-18.0,-245.0,-79.0,234.0,-129.0,-82.0,1
-18.0,-247.0,-73.0,216.0,-89.0,-86.0,1
-24.0,-248.0,-68.0,206.0,-56.0,-91.0,1
-27.0,-247.0,-68.0,202.0,-36.0,-96.0,1
-28.0,-245.0,-64.0,208.0,-30.0,-101.0,1
-27.0,-248.0,-64.0,216.0,-30.0,-103.0,1
-26.0,-247.0,-66.0,223.0,-32.0,-105.0,1
-19.0,-249.0,-69.0,228.0,-33.0,-109.0,1
-23.0,-247.0,-70.0,224.0,-33.0,-115.0,1
-18.0,-247.0,-70.0,216.0,-26.0,-118.0,1
-19.0,-249.0,-76.0,207.0,-10.0,-126.0,1
-19.0,-248.0,-74.0,202.0,11.0,-133.0,1
-16.0,-249.0,-76.0,204.0,36.0,-137.0,1
-16.0,-249.0,-77.0,214.0,64.0,-136.0,1
-17.0,-246.0,-75.0,233.0,88.0,-135.0,1
-12.0,-248.0,-72.0,259.0,108.0,-128.0,1
-9.0,-245.0,-80.0,283.0,127.0,-117.0,1
-10.0,-246.0,-75.0,303.0,142.0,-108.0,1
-11.0,-245.0,-76.0,311.0,146.0,-104.0,1
-9.0,-239.0,-72.0,304.0,143.0,-101.0,1
-17.0,-241.0,-71.0,285.0,137.0,-104.0,1
-16.0,-239.0,-69.0,268.0,132.0,-113.0,1
-17.0,-240.0,-61.0,250.0,123.0,-120.0,1
-19.0,-233.0,-67.0,242.0,119.0,-125.0,1
-9.0,-235.0,-71.0,237.0,127.0,-121.0,1
-11.0,-235.0,-76.0,242.0,152.0,-112.0,1
0.0,-240.0,-84.0,251.0,190.0,-99.0,1
2.0,-241.0,-86.0,258.0,232.0,-85.0,1
6.0,-242.0,-83.0,269.0,271.0,-72.0,1
11.0,-245.0,-85.0,287.0,305.0,-64.0,1
12.0,-250.0,-78.0,306.0,331.0,-66.0,1
13.0,-248.0,-72.0,341.0,345.0,-83.0,1
6.0,-246.0,-67.0,380.0,351.0,-102.0,1
1.0,-243.0,-63.0,402.0,356.0,-124.0,1
1.0,-240.0,-60.0,419.0,359.0,-146.0,1
-5.0,-235.0,-61.0,439.0,368.0,-174.0,1
-11.0,-226.0,-64.0,446.0,378.0,-196.0,1
-11.0,-225.0,-71.0,435.0,391.0,-210.0,1
-4.0,-227.0,-77.0,414.0,407.0,-216.0,1
-2.0,-231.0,-81.0,390.0,428.0,-213.0,1
4.0,-234.0,-83.0,363.0,453.0,-199.0,1
9.0,-234.0,-87.0,331.0,485.0,-181.0,1
14.0,-237.0,-85.0,299.0,516.0,-163.0,1
16.0,-237.0,-79.0,267.0,544.0,-141.0,1
20.0,-245.0,-66.0,246.0,565.0,-128.0,1
18.0,-245.0,-60.0,250.0,575.0,-130.0,1
17.0,-248.0,-53.0,276.0,567.0,-149.0,1
13.0,-245.0,-44.0,306.0,545.0,-173.0,1
8.0,-243.0,-41.0,343.0,512.0,-209.0,1
2.0,-234.0,-48.0,370.0,472.0,-241.0,1
3.0,-235.0,-48.0,361.0,434.0,-270.0,1
-3.0,-230.0,-57.0,336.0,405.0,-306.0,1
0.0,-228.0,-59.0,281.0,390.0,-334.0,1
-1.0,-226.0,-62.0,213.0,399.0,-356.0,1
1.0,-226.0,-66.0,155.0,416.0,-375.0,1
0.0,-225.0,-63.0,108.0,433.0,-394.0,1
0.0,-231.0,-62.0,83.0,438.0,-403.0,1
0.0,-229.0,-59.0,70.0,433.0,-404.0,1
1.0,-233.0,-57.0,60.0,417.0,-400.0,1
0.0,-239.0,-46.0,58.0,391.0,-393.0,1
1.0,-243.0,-34.0,71.0,359.0,-391.0,1
1.0,-246.0,-26.0,101.0,325.0,-387.0,1
-1.0,-252.0,-24.0,138.0,293.0,-384.0,1
1.0,-255.0,-23.0,170.0,272.0,-376.0,1
2.0,-258.0,-22.0,189.0,255.0,-351.0,1
1.0,-263.0,-22.0,204.0,244.0,-322.0,1
4.0,-261.0,-29.0,225.0,231.0,-295.0,1
8.0,-264.0,-36.0,251.0,221.0,-273.0,1
10.0,-258.0,-38.0,270.0,209.0,-248.0,1
5.0,-265.0,-34.0,271.0,196.0,-219.0,1
5.0,-289.0,-32.0,301.0,179.0,-186.0,1
-6.0,-293.0,-31.0,385.0,159.0,-170.0,1
-5.0,-291.0,-32.0,503.0,96.0,-132.0,1
-5.0,-272.0,-29.0,633.0,-12.0,-104.0,1
-3.0,-251.0,-29.0,772.0,-122.0,-113.0,1
-3.0,-231.0,-27.0,893.0,-200.0,-129.0,1
-15.0,-230.0,-16.0,957.0,-246.0,-145.0,1
-70.0,-322.0,25.0,1097.0,-281.0,-19.0,1
-61.0,-375.0,12.0,1585.0,-387.0,490.0,1
24.0,-327.0,-18.0,2069.0,-528.0,946.0,1
23.0,-269.0,-22.0,2177.0,-562.0,928.0,1
17.0,-212.0,-5.0,2031.0,-522.0,703.0,1
16.0,-177.0,-31.0,1793.0,-471.0,556.0,1
33.0,-160.0,-54.0,1442.0,-488.0,544.0,1
119.0,-104.0,-57.0,1013.0,-513.0,514.0,1
128.0,-101.0,-19.0,581.0,-461.0,249.0,1
87.0,-79.0,-25.0,231.0,-461.0,33.0,1
118.0,13.0,-24.0,-165.0,-384.0,-287.0,1
98.0,28.0,14.0,-605.0,-209.0,-639.0,1
64.0,-6.0,40.0,-931.0,67.0,-903.0,1
71.0,-82.0,31.0,-1065.0,321.0,-937.0,1
66.0,-154.0,4.0,-1056.0,501.0,-817.0,1
70.0,-206.0,-20.0,-985.0,561.0,-592.0,1
62.0,-240.0,-32.0,-888.0,481.0,-323.0,1
63.0,-268.0,-36.0,-731.0,311.0,-84.0,1
57.0,-280.0,-42.0,-507.0,127.0,68.0,1
45.0,-290.0,-40.0,-241.0,-28.0,132.0,1
29.0,-303.0,-36.0,19.0,-134.0,149.0,1
17.0,-314.0,-26.0,255.0,-202.0,143.0,1
11.0,-321.0,-26.0,456.0,-241.0,140.0,1
6.0,-324.0,-15.0,610.0,-265.0,139.0,1
10.0,-319.0,-6.0,725.0,-290.0,144.0,1
6.0,-304.0,4.0,809.0,-324.0,154.0,1
15.0,-284.0,5.0,872.0,-359.0,188.0,1
19.0,-262.0,11.0,917.0,-384.0,233.0,1
34.0,-236.0,14.0,945.0,-407.0,272.0,1
35.0,-220.0,11.0,962.0,-440.0,297.0,1
46.0,-204.0,3.0,976.0,-495.0,312.0,1
57.0,-183.0,-14.0,988.0,-573.0,320.0,1
70.0,-167.0,-23.0,963.0,-640.0,323.0,1
75.0,-151.0,-28.0,889.0,-683.0,311.0,1
74.0,-144.0,-28.0,783.0,-711.0,303.0,1
71.0,-148.0,-25.0,666.0,-727.0,303.0,1
64.0,-150.0,-9.0,569.0,-731.0,308.0,1
64.0,-162.0,-11.0,501.0,-726.0,314.0,1
56.0,-175.0,-6.0,466.0,-709.0,314.0,1
54.0,-182.0,-6.0,455.0,-690.0,321.0,1
52.0,-190.0,-6.0,455.0,-671.0,336.0,1
51.0,-197.0,-7.0,462.0,-654.0,352.0,1
55.0,-201.0,-8.0,470.0,-650.0,362.0,1
54.0,-207.0,-14.0,469.0,-653.0,365.0,1
61.0,-207.0,-18.0,440.0,-659.0,375.0,1
65.0,-207.0,-10.0,387.0,-668.0,378.0,1
74.0,-207.0,-15.0,320.0,-675.0,376.0,1
76.0,-203.0,-11.0,254.0,-677.0,363.0,1
85.0,-205.0,-10.0,200.0,-670.0,348.0,1
84.0,-205.0,-19.0,162.0,-650.0,334.0,1
96.0,-198.0,-11.0,136.0,-623.0,321.0,1
96.0,-205.0,-18.0,122.0,-591.0,310.0,1
98.0,-207.0,-19.0,113.0,-562.0,302.0,1
100.0,-205.0,-23.0,102.0,-539.0,294.0,1
102.0,-205.0,-26.0,87.0,-526.0,285.0,1
98.0,-202.0,-26.0,55.0,-520.0,302.0,1
99.0,-205.0,-23.0,13.0,-514.0,320.0,1
92.0,-202.0,-24.0,-36.0,-510.0,343.0,1
81.0,-199.0,-18.0,-100.0,-508.0,366.0,1
67.0,-189.0,-11.0,-179.0,-509.0,388.0,1
52.0,-181.0,-10.0,-274.0,-515.0,409.0,1
42.0,-175.0,-8.0,-381.0,-526.0,428.0,1
27.0,-171.0,-3.0,-495.0,-549.0,448.0,1
12.0,-163.0,-2.0,-616.0,-582.0,463.0,1
-2.0,-164.0,-6.0,-733.0,-621.0,474.0,1
-19.0,-163.0,-4.0,-841.0,-660.0,484.0,1
-29.0,-171.0,-9.0,-946.0,-708.0,485.0,1
-43.0,-184.0,-4.0,-1038.0,-758.0,491.0,1
-48.0,-200.0,-6.0,-1116.0,-820.0,501.0,1
-53.0,-218.0,-5.0,-1176.0,-893.0,519.0,1
-55.0,-231.0,-9.0,-1214.0,-970.0,558.0,1
-55.0,-247.0,-15.0,-1238.0,-1050.0,620.0,1
-64.0,-257.0,-37.0,-1265.0,-1139.0,693.0,1
-51.0,-262.0,-36.0,-1301.0,-1226.0,767.0,1
-38.0,-271.0,-45.0,-1344.0,-1310.0,835.0,1
-22.0,-273.0,-53.0,-1374.0,-1375.0,890.0,1
-15.0,-274.0,-53.0,-1405.0,-1430.0,925.0,1
0.0,-276.0,-57.0,-1432.0,-1474.0,939.0,1
5.0,-271.0,-48.0,-1459.0,-1501.0,937.0,1
13.0,-277.0,-49.0,-1477.0,-1514.0,935.0,1
13.0,-275.0,-43.0,-1500.0,-1507.0,924.0,1
14.0,-278.0,-44.0,-1519.0,-1474.0,911.0,1
11.0,-280.0,-42.0,-1534.0,-1422.0,899.0,1
7.0,-283.0,-47.0,-1539.0,-1352.0,885.0,1
2.0,-286.0,-43.0,-1536.0,-1280.0,877.0,1
-13.0,-288.0,-52.0,-1511.0,-1220.0,887.0,1
-15.0,-292.0,-41.0,-1464.0,-1179.0,919.0,1
-28.0,-294.0,-48.0,-1374.0,-1154.0,966.0,1
-40.0,-291.0,-49.0,-1249.0,-1144.0,1019.0,1
-51.0,-287.0,-49.0,-1110.0,-1144.0,1058.0,1
-62.0,-276.0,-45.0,-974.0,-1149.0,1070.0,1
-77.0,-267.0,-38.0,-850.0,-1160.0,1059.0,1
-97.0,-262.0,-31.0,-733.0,-1185.0,1034.0,1
-111.0,-254.0,-17.0,-617.0,-1227.0,1004.0,1
-127.0,-251.0,-5.0,-499.0,-1285.0,988.0,1
-127.0,-245.0,4.0,-384.0,-1355.0,984.0,1
-134.0,-238.0,9.0,-273.0,-1426.0,986.0,1
-132.0,-227.0,13.0,-165.0,-1480.0,997.0,1
-125.0,-223.0,8.0,-59.0,-1512.0,1030.0,1
-115.0,-213.0,-3.0,48.0,-1539.0,1082.0,1
-95.0,-207.0,-8.0,160.0,-1555.0,1138.0,1
-79.0,-206.0,-15.0,274.0,-1586.0,1182.0,1
-67.0,-203.0,-7.0,384.0,-1635.0,1199.0,1
-51.0,-197.0,-11.0,492.0,-1697.0,1211.0,1
-41.0,-190.0,-10.0,585.0,-1747.0,1240.0,1
-33.0,-183.0,-7.0,652.0,-1773.0,1273.0,1
-38.0,-176.0,1.0,692.0,-1777.0,1324.0,1
-36.0,-165.0,-3.0,700.0,-1780.0,1368.0,1
-42.0,-157.0,2.0,682.0,-1794.0,1402.0,1
-41.0,-149.0,11.0,656.0,-1829.0,1424.0,1
-46.0,-147.0,17.0,646.0,-1884.0,1437.0,1
-53.0,-149.0,33.0,669.0,-1948.0,1445.0,1
-62.0,-142.0,49.0,740.0,-1992.0,1471.0,1
-62.0,-146.0,59.0,841.0,-2003.0,1515.0,1
-63.0,-140.0,77.0,942.0,-2002.0,1573.0,1
-67.0,-131.0,74.0,1032.0,-2010.0,1627.0,1
-70.0,-124.0,72.0,1093.0,-2035.0,1669.0,1
-64.0,-106.0,71.0,1122.0,-2072.0,1692.0,1
-68.0,-92.0,79.0,1109.0,-2093.0,1711.0,1
-74.0,-82.0,83.0,1037.0,-2082.0,1746.0,1
-94.0,-72.0,85.0,887.0,-2038.0,1801.0,1
-131.0,-88.0,62.0,701.0,-1993.0,1875.0,1
-177.0,-116.0,19.0,571.0,-1992.0,1934.0,1
-221.0,-152.0,-18.0,584.0,-2040.0,1969.0,1
-265.0,-187.0,-28.0,771.0,-2104.0,1993.0,1
-296.0,-219.0,-18.0,1080.0,-2175.0,2007.0,1
-330.0,-241.0,3.0,1395.0,-2235.0,2017.0,1
-354.0,-259.0,41.0,1626.0,-2278.0,2039.0,1
-375.0,-285.0,77.0,1782.0,-2317.0,2083.0,1
-390.0,-310.0,103.0,1910.0,-2358.0,2160.0,1
-417.0,-332.0,117.0,2039.0,-2411.0,2273.0,1
-437.0,-359.0,139.0,2188.0,-2452.0,2430.0,1
-453.0,-380.0,159.0,2346.0,-2446.0,2607.0,1
-469.0,-412.0,178.0,2504.0,-2376.0,2804.0,1
-476.0,-441.0,198.0,2639.0,-2248.0,3023.0,1
-475.0,-487.0,201.0,2722.0,-2056.0,3255.0,1
-457.0,-518.0,196.0,2743.0,-1797.0,3412.0,1
-437.0,-538.0,207.0,2730.0,-1493.0,3477.0,1
-423.0,-557.0,216.0,2692.0,-1209.0,3442.0,1
-394.0,-575.0,226.0,2616.0,-988.0,3292.0,1
-375.0,-577.0,232.0,2484.0,-847.0,3049.0,1
-319.0,-554.0,239.0,2323.0,-806.0,2766.0,1
-298.0,-531.0,225.0,2210.0,-824.0,2545.0,1
-257.0,-481.0,202.0,2141.0,-830.0,2366.0,1
-204.0,-444.0,171.0,2141.0,-696.0,2286.0,1
-157.0,-374.0,176.0,2175.0,-454.0,2238.0,1
-109.0,-292.0,160.0,2178.0,-204.0,2216.0,1
-81.0,-208.0,143.0,2123.0,22.0,2262.0,1
-45.0,-146.0,139.0,2017.0,202.0,2374.0,1
-15.0,-105.0,131.0,1884.0,357.0,2560.0,1
-14.0,-75.0,131.0,1733.0,477.0,2750.0,1
-22.0,-54.0,144.0,1593.0,547.0,2875.0,1
-47.0,-34.0,158.0,1483.0,538.0,2932.0,1
-70.0,-20.0,154.0,1375.0,446.0,2922.0,1
-103.0,-18.0,144.0,1283.0,299.0,2861.0,1
-133.0,-31.0,121.0,1251.0,123.0,2758.0,1
-156.0,-39.0,97.0,1318.0,-73.0,2638.0,1
-190.0,-57.0,92.0,1463.0,-266.0,2515.0,1
-216.0,-69.0,99.0,1616.0,-451.0,2404.0,1
-237.0,-62.0,102.0,1729.0,-643.0,2296.0,1
-272.0,-56.0,116.0,1756.0,-834.0,2198.0,1
-316.0,-48.0,134.0,1672.0,-1024.0,2111.0,1
-353.0,-47.0,157.0,1508.0,-1214.0,2008.0,1
-386.0,-36.0,184.0,1298.0,-1422.0,1871.0,1
-404.0,-47.0,216.0,1074.0,-1653.0,1709.0,1
-404.0,-64.0,243.0,895.0,-1891.0,1567.0,1
-392.0,-83.0,246.0,790.0,-2091.0,1394.0,1
-371.0,-110.0,245.0,734.0,-2251.0,1213.0,1
-335.0,-137.0,216.0,747.0,-2403.0,1071.0,1
-308.0,-153.0,196.0,798.0,-2513.0,985.0,1
-284.0,-140.0,187.0,853.0,-2558.0,908.0,1
-272.0,-122.0,179.0,859.0,-2576.0,827.0,1
-248.0,-108.0,172.0,815.0,-2611.0,741.0,1
-212.0,-103.0,169.0,751.0,-2657.0,622.0,1
-180.0,-100.0,153.0,710.0,-2699.0,473.0,1
-151.0,-94.0,134.0,696.0,-2703.0,320.0,1
-147.0,-80.0,132.0,715.0,-2655.0,183.0,1
-151.0,-58.0,119.0,764.0,-2593.0,79.0,1
-184.0,-54.0,135.0,827.0,-2533.0,57.0,1
-184.0,-44.0,136.0,904.0,-2540.0,80.0,1
-179.0,-41.0,131.0,999.0,-2582.0,127.0,1
-147.0,-39.0,110.0,1109.0,-2634.0,144.0,1
-136.0,-38.0,83.0,1233.0,-2632.0,160.0,1
-128.0,-50.0,71.0,1343.0,-2585.0,173.0,1
-123.0,-54.0,59.0,1433.0,-2546.0,173.0,1
-116.0,-51.0,66.0,1502.0,-2524.0,165.0,1
-116.0,-50.0,83.0,1539.0,-2519.0,150.0,1
-121.0,-43.0,100.0,1567.0,-2532.0,136.0,1
-134.0,-29.0,116.0,1609.0,-2573.0,148.0,1
-144.0,-17.0,131.0,1673.0,-2633.0,177.0,1
-148.0,-1.0,147.0,1763.0,-2673.0,211.0,1
-149.0,15.0,157.0,1853.0,-2665.0,236.0,1
-148.0,39.0,177.0,1911.0,-2607.0,270.0,1
-142.0,66.0,189.0,1915.0,-2512.0,311.0,1
-138.0,81.0,193.0,1872.0,-2373.0,354.0,1
-128.0,98.0,190.0,1811.0,-2241.0,395.0,1
-119.0,115.0,205.0,1712.0,-2210.0,437.0,1
-110.0,121.0,195.0,1597.0,-2259.0,471.0,1
-94.0,133.0,199.0,1496.0,-2290.0,477.0,1
-95.0,140.0,209.0,1447.0,-2298.0,467.0,1
-95.0,149.0,221.0,1454.0,-2257.0,410.0,1
-104.0,178.0,234.0,1497.0,-2189.0,325.0,1
-113.0,187.0,249.0,1523.0,-2133.0,262.0,1
-116.0,192.0,258.0,1532.0,-2091.0,234.0,1
-118.0,197.0,281.0,1529.0,-2050.0,199.0,1
-113.0,201.0,306.0,1528.0,-1995.0,173.0,1
-127.0,212.0,334.0,1510.0,-1944.0,127.0,1
-132.0,237.0,364.0,1456.0,-1893.0,85.0,1
-120.0,250.0,381.0,1326.0,-1846.0,48.0,1
-118.0,263.0,391.0,1124.0,-1805.0,-17.0,1
-110.0,271.0,387.0,898.0,-1776.0,-82.0,1
-77.0,268.0,362.0,691.0,-1746.0,-154.0,1
-61.0,263.0,345.0,514.0,-1686.0,-243.0,1
-55.0,254.0,316.0,402.0,-1625.0,-336.0,1
-55.0,244.0,285.0,352.0,-1598.0,-392.0,1
-59.0,230.0,262.0,342.0,-1596.0,-407.0,1
-67.0,219.0,253.0,344.0,-1628.0,-389.0,1
-50.0,208.0,246.0,324.0,-1703.0,-340.0,1
-33.0,201.0,234.0,252.0,-1782.0,-310.0,1
-25.0,190.0,237.0,130.0,-1836.0,-275.0,1
0.0,178.0,240.0,-29.0,-1856.0,-242.0,1
3.0,156.0,244.0,-193.0,-1843.0,-217.0,1
26.0,138.0,246.0,-335.0,-1800.0,-170.0,1
45.0,114.0,248.0,-443.0,-1737.0,-109.0,1
56.0,85.0,247.0,-504.0,-1647.0,-71.0,1
63.0,66.0,248.0,-523.0,-1545.0,-49.0,1
64.0,36.0,252.0,-489.0,-1446.0,-39.0,1
68.0,12.0,236.0,-402.0,-1373.0,-27.0,1
67.0,-3.0,218.0,-266.0,-1316.0,-19.0,1
60.0,-14.0,198.0,-87.0,-1272.0,-26.0,1
54.0,-21.0,174.0,107.0,-1232.0,-49.0,1
45.0,-9.0,164.0,285.0,-1179.0,-89.0,1
35.0,8.0,159.0,438.0,-1117.0,-133.0,1
34.0,31.0,156.0,528.0,-1061.0,-159.0,1
40.0,58.0,151.0,542.0,-1020.0,-167.0,1
42.0,79.0,153.0,497.0,-1000.0,-147.0,1
52.0,102.0,151.0,413.0,-997.0,-99.0,1
60.0,117.0,148.0,323.0,-999.0,-38.0,1
70.0,130.0,152.0,242.0,-993.0,21.0,1
79.0,139.0,153.0,182.0,-970.0,76.0,1
91.0,142.0,150.0,130.0,-926.0,116.0,1
101.0,156.0,151.0,80.0,-872.0,131.0,1
111.0,152.0,147.0,28.0,-809.0,127.0,1
119.0,155.0,148.0,-25.0,-736.0,109.0,1
128.0,150.0,153.0,-88.0,-649.0,81.0,1
133.0,147.0,155.0,-150.0,-548.0,48.0,1
138.0,142.0,159.0,-216.0,-445.0,18.0,1
146.0,132.0,161.0,-277.0,-342.0,-6.0,1
144.0,123.0,165.0,-317.0,-247.0,-35.0,1
145.0,113.0,172.0,-349.0,-168.0,-53.0,1
143.0,108.0,175.0,-379.0,-104.0,-64.0,1
136.0,96.0,180.0,-407.0,-49.0,-75.0,1
128.0,93.0,183.0,-431.0,-1.0,-83.0,1
121.0,87.0,186.0,-464.0,39.0,-87.0,1
118.0,85.0,184.0,-490.0,84.0,-99.0,1
121.0,74.0,184.0,-508.0,145.0,-122.0,1
121.0,69.0,186.0,-534.0,231.0,-141.0,1
123.0,57.0,187.0,-575.0,325.0,-146.0,1
122.0,39.0,200.0,-608.0,411.0,-132.0,1
124.0,27.0,207.0,-599.0,496.0,-119.0,1
123.0,13.0,218.0,-544.0,574.0,-115.0,1
120.0,-5.0,223.0,-440.0,639.0,-126.0,1
115.0,-14.0,230.0,-314.0,696.0,-139.0,1
109.0,-26.0,238.0,-168.0,744.0,-142.0,1
99.0,-22.0,244.0,-15.0,782.0,-139.0,1
92.0,-18.0,250.0,133.0,803.0,-132.0,1
85.0,-11.0,256.0,265.0,807.0,-130.0,1
84.0,-4.0,257.0,367.0,802.0,-129.0,1
74.0,9.0,265.0,432.0,795.0,-128.0,1
68.0,25.0,276.0,462.0,796.0,-129.0,1
64.0,42.0,283.0,454.0,802.0,-126.0,1
59.0,53.0,290.0,413.0,807.0,-125.0,1
49.0,66.0,299.0,352.0,816.0,-130.0,1
37.0,74.0,302.0,281.0,826.0,-146.0,1
19.0,77.0,302.0,214.0,843.0,-170.0,1
5.0,82.0,301.0,149.0,877.0,-197.0,1
-14.0,85.0,298.0,81.0,913.0,-217.0,1
-30.0,87.0,293.0,7.0,935.0,-233.0,1
-45.0,83.0,282.0,-79.0,935.0,-249.0,1
-55.0,78.0,276.0,-186.0,917.0,-257.0,1
-60.0,68.0,273.0,-327.0,885.0,-258.0,1
-66.0,56.0,266.0,-499.0,851.0,-259.0,1
-63.0,36.0,271.0,-706.0,819.0,-269.0,1
-55.0,18.0,274.0,-903.0,815.0,-293.0,1
-45.0,2.0,279.0,-1051.0,843.0,-317.0,1
-32.0,-17.0,273.0,-1131.0,920.0,-335.0,1
-6.0,-38.0,266.0,-1133.0,1053.0,-358.0,1
6.0,-70.0,253.0,-1072.0,1217.0,-389.0,1
11.0,-99.0,251.0,-965.0,1377.0,-432.0,1
4.0,-128.0,244.0,-830.0,1494.0,-478.0,1
-16.0,-150.0,239.0,-656.0,1537.0,-509.0,1
-48.0,-160.0,237.0,-438.0,1487.0,-509.0,1
-74.0,-156.0,225.0,-185.0,1350.0,-478.0,1
-116.0,-124.0,226.0,67.0,1148.0,-424.0,1
-144.0,-103.0,225.0,301.0,914.0,-352.0,1
-171.0,-64.0,227.0,497.0,688.0,-263.0,1
-188.0,-27.0,235.0,645.0,501.0,-163.0,1
-205.0,4.0,246.0,719.0,341.0,-40.0,1
-225.0,23.0,255.0,717.0,184.0,84.0,1
-236.0,40.0,258.0,671.0,10.0,211.0,1
-225.0,64.0,261.0,604.0,-176.0,323.0,1
-210.0,82.0,259.0,516.0,-354.0,428.0,1
-180.0,90.0,254.0,418.0,-520.0,528.0,1
-144.0,86.0,249.0,335.0,-659.0,623.0,1
-110.0,75.0,235.0,275.0,-752.0,684.0,1
-73.0,59.0,229.0,217.0,-797.0,678.0,1
-37.0,46.0,220.0,149.0,-793.0,617.0,1
-14.0,28.0,221.0,68.0,-752.0,517.0,1
12.0,17.0,224.0,-16.0,-690.0,402.0,1
32.0,6.0,222.0,-96.0,-617.0,284.0,1
47.0,-11.0,219.0,-157.0,-536.0,169.0,1
58.0,-27.0,224.0,-200.0,-451.0,70.0,1
64.0,-40.0,230.0,-228.0,-367.0,-9.0,1
64.0,-53.0,231.0,-237.0,-279.0,-66.0,1
58.0,-58.0,235.0,-227.0,-181.0,-99.0,1
44.0,-61.0,236.0,-199.0,-77.0,-111.0,1
22.0,-56.0,236.0,-152.0,31.0,-106.0,1
2.0,-49.0,237.0,-89.0,145.0,-94.0,1
-18.0,-37.0,234.0,-24.0,260.0,-75.0,1
-41.0,-20.0,231.0,40.0,367.0,-56.0,1
-67.0,-4.0,226.0,96.0,460.0,-33.0,1
-87.0,9.0,221.0,136.0,527.0,-8.0,1
-105.0,27.0,222.0,160.0,558.0,22.0,1
-114.0,40.0,220.0,171.0,555.0,53.0,1
-121.0,50.0,214.0,171.0,522.0,81.0,1
-117.0,55.0,215.0,165.0,468.0,107.0,1
-104.0,59.0,215.0,147.0,405.0,122.0,1
-98.0,56.0,219.0,126.0,346.0,123.0,1
-83.0,51.0,223.0,82.0,296.0,104.0,1
-76.0,48.0,236.0,17.0,257.0,68.0,1
-68.0,43.0,242.0,-63.0,232.0,22.0,1
-59.0,35.0,251.0,-151.0,217.0,-28.0,1
-59.0,30.0,262.0,-239.0,208.0,-72.0,1
-55.0,22.0,270.0,-319.0,202.0,-102.0,1
-58.0,13.0,283.0,-372.0,204.0,-117.0,1
-61.0,9.0,284.0,-389.0,209.0,-120.0,1
-64.0,3.0,283.0,-369.0,212.0,-111.0,1
-67.0,-3.0,279.0,-315.0,201.0,-94.0,1
-73.0,-7.0,281.0,-237.0,173.0,-74.0,1
-81.0,-4.0,278.0,-141.0,129.0,-45.0,1
-83.0,5.0,271.0,-42.0,73.0,-11.0,1
-82.0,10.0,265.0,47.0,9.0,19.0,1
-85.0,18.0,260.0,114.0,-55.0,44.0,1
-79.0,27.0,253.0,154.0,-114.0,69.0,1
-73.0,33.0,245.0,166.0,-162.0,87.0,1
-66.0,38.0,237.0,153.0,-196.0,98.0,1
-63.0,43.0,235.0,121.0,-218.0,98.0,1
-55.0,42.0,227.0,79.0,-229.0,84.0,1
-51.0,43.0,232.0,35.0,-232.0,67.0,1
-42.0,42.0,228.0,-5.0,-227.0,47.0,1
-40.0,35.0,227.0,-44.0,-216.0,27.0,1
-28.0,40.0,231.0,-80.0,-195.0,12.0,1
-20.0,36.0,231.0,-110.0,-167.0,-1.0,1
-19.0,36.0,235.0,-136.0,-135.0,-10.0,1
-11.0,32.0,236.0,-151.0,-99.0,-14.0,1
-9.0,29.0,234.0,-155.0,-66.0,-12.0,1
-7.0,22.0,237.0,-146.0,-38.0,-5.0,1
-8.0,23.0,238.0,-131.0,-18.0,2.0,1
-6.0,21.0,239.0,-110.0,-7.0,10.0,1
-10.0,21.0,239.0,-86.0,-4.0,16.0,1
-9.0,20.0,239.0,-62.0,-5.0,24.0,1
-12.0,18.0,243.0,-42.0,-12.0,28.0,1
-12.0,19.0,242.0,-26.0,-19.0,29.0,1
-16.0,18.0,242.0,-16.0,-28.0,27.0,1
-17.0,20.0,245.0,-6.0,-34.0,22.0,1
-16.0,24.0,243.0,-1.0,-39.0,18.0,1
-17.0,22.0,247.0,2.0,-40.0,14.0,1
-21.0,24.0,251.0,1.0,-40.0,13.0,1
-21.0,22.0,252.0,-1.0,-35.0,11.0,1
-19.0,24.0,246.0,-5.0,-28.0,11.0,1
-23.0,25.0,250.0,-13.0,-20.0,13.0,1
-17.0,26.0,251.0,-21.0,-13.0,13.0,1
-18.0,22.0,254.0,-27.0,-7.0,18.0,1
-19.0,26.0,248.0,-32.0,-4.0,18.0,1
-20.0,26.0,253.0,-37.0,-2.0,21.0,1
-19.0,25.0,251.0,-40.0,-2.0,20.0,1
-22.0,24.0,248.0,-43.0,-3.0,23.0,1
-17.0,22.0,248.0,-43.0,-4.0,26.0,1
-20.0,22.0,249.0,-43.0,-6.0,27.0,1
-18.0,20.0,250.0,-42.0,-10.0,25.0,1
-21.0,20.0,247.0,-41.0,-13.0,22.0,1
-17.0,19.0,250.0,-38.0,-16.0,22.0,1
-18.0,16.0,247.0,-35.0,-16.0,21.0,1
-20.0,16.0,249.0,-28.0,-13.0,22.0,1
-22.0,12.0,244.0,-22.0,-8.0,21.0,1
-23.0,13.0,245.0,-18.0,-4.0,22.0,1
-24.0,14.0,246.0,-14.0,-3.0,22.0,1
-25.0,12.0,245.0,-9.0,-2.0,24.0,1
-29.0,14.0,244.0,-5.0,-4.0,27.0,1
-26.0,14.0,245.0,-2.0,-8.0,30.0,1
-30.0,14.0,245.0,0.0,-11.0,31.0,1
-27.0,19.0,245.0,3.0,-13.0,33.0,1
-24.0,23.0,245.0,5.0,-12.0,39.0,1
-25.0,18.0,241.0,5.0,-13.0,42.0,1
-25.0,19.0,242.0,3.0,-10.0,43.0,1
-24.0,22.0,241.0,-4.0,-4.0,44.0,1
-23.0,21.0,240.0,-12.0,2.0,42.0,1
-21.0,18.0,241.0,-22.0,7.0,38.0,1
-19.0,18.0,239.0,-32.0,13.0,35.0,1
-25.0,18.0,238.0,-41.0,13.0,31.0,1
-23.0,16.0,236.0,-49.0,10.0,29.0,1
-28.0,16.0,238.0,-50.0,-1.0,27.0,1
-26.0,16.0,237.0,-48.0,-14.0,25.0,1
-25.0,14.0,237.0,-41.0,-30.0,24.0,1
-22.0,13.0,238.0,-33.0,-42.0,21.0,1
-20.0,16.0,235.0,-26.0,-49.0,20.0,1
-19.0,19.0,239.0,-24.0,-44.0,21.0,1
-19.0,16.0,242.0,-27.0,-33.0,18.0,1
-16.0,17.0,244.0,-32.0,-12.0,16.0,1
-14.0,17.0,244.0,-36.0,13.0,14.0,1
-16.0,18.0,248.0,-37.0,38.0,12.0,1
-14.0,19.0,249.0,-35.0,60.0,5.0,1
-15.0,21.0,247.0,-31.0,76.0,-1.0,1
-14.0,17.0,250.0,-22.0,88.0,-10.0,1
-17.0,18.0,253.0,-12.0,92.0,-18.0,1
-13.0,32.0,250.0,-2.0,91.0,-23.0,1
-17.0,20.0,249.0,5.0,86.0,-28.0,1
-16.0,21.0,246.0,11.0,78.0,-30.0,1
-19.0,17.0,244.0,16.0,70.0,-32.0,1
-15.0,18.0,242.0,16.0,63.0,-34.0,1
-18.0,21.0,240.0,14.0,57.0,-36.0,1
-19.0,20.0,240.0,9.0,53.0,-37.0,1
-20.0,22.0,243.0,5.0,51.0,-37.0,1
-22.0,19.0,243.0,0.0,50.0,-38.0,1
-23.0,21.0,241.0,-4.0,48.0,-33.0,1
-21.0,20.0,245.0,-9.0,46.0,-33.0,1
-14.0,18.0,250.0,-11.0,49.0,-33.0,1
-25.0,20.0,248.0,-8.0,50.0,-34.0,1
-23.0,19.0,249.0,-4.0,51.0,-34.0,1
-24.0,23.0,248.0,0.0,54.0,-36.0,1
-26.0,25.0,244.0,0.0,58.0,-37.0,1
-25.0,25.0,249.0,-15.0,64.0,-36.0,1
-24.0,24.0,249.0,-36.0,78.0,-32.0,1
-25.0,25.0,250.0,-62.0,99.0,-28.0,1
-23.0,24.0,254.0,-86.0,123.0,-23.0,1
-23.0,19.0,248.0,-94.0,145.0,-20.0,1
-25.0,17.0,250.0,-83.0,163.0,-18.0,1
-29.0,1.0,254.0,-55.0,169.0,-17.0,1
-22.0,9.0,247.0,-13.0,166.0,-14.0,1
-23.0,9.0,243.0,36.0,153.0,-12.0,1
-22.0,8.0,242.0,83.0,135.0,-11.0,1
-27.0,10.0,240.0,120.0,120.0,-9.0,1
-21.0,15.0,240.0,140.0,109.0,-12.0,1
-23.0,15.0,236.0,146.0,107.0,-14.0,1
-23.0,18.0,238.0,137.0,109.0,-17.0,1
-21.0,19.0,236.0,117.0,112.0,-19.0,1
-25.0,18.0,235.0,91.0,112.0,-21.0,1
-24.0,23.0,237.0,60.0,108.0,-21.0,1
-24.0,23.0,239.0,30.0,102.0,-22.0,1
-29.0,25.0,239.0,5.0,96.0,-24.0,1
-31.0,24.0,244.0,-18.0,90.0,-25.0,1
-32.0,26.0,244.0,-32.0,85.0,-26.0,1
-27.0,22.0,244.0,-42.0,83.0,-30.0,1
-31.0,22.0,246.0,-49.0,82.0,-32.0,1
-31.0,21.0,246.0,-51.0,81.0,-32.0,1
-29.0,22.0,245.0,-54.0,77.0,-31.0,1
-25.0,22.0,248.0,-55.0,74.0,-28.0,1
-28.0,21.0,247.0,-53.0,70.0,-25.0,1
-22.0,19.0,246.0,-48.0,67.0,-20.0,1
-26.0,17.0,249.0,-41.0,65.0,-15.0,1
-22.0,19.0,249.0,-33.0,67.0,-11.0,1
-21.0,18.0,247.0,-25.0,73.0,-9.0,1
-21.0,20.0,248.0,-20.0,80.0,-6.0,1
-21.0,17.0,248.0,-14.0,90.0,-4.0,1
-21.0,20.0,244.0,-10.0,98.0,-3.0,1
-26.0,17.0,243.0,-8.0,103.0,-2.0,1
-21.0,20.0,245.0,-6.0,107.0,-2.0,1
-23.0,22.0,244.0,-6.0,110.0,-2.0,1
-27.0,19.0,241.0,-7.0,110.0,-1.0,1
-27.0,21.0,239.0,-7.0,107.0,-1.0,1
-31.0,19.0,243.0,-2.0,105.0,0.0,1
-29.0,21.0,245.0,1.0,101.0,2.0,1
-29.0,19.0,246.0,5.0,100.0,4.0,1
-29.0,19.0,244.0,9.0,99.0,7.0,1
-29.0,20.0,246.0,12.0,99.0,9.0,1
-26.0,19.0,243.0,12.0,102.0,13.0,1
-25.0,24.0,244.0,11.0,105.0,17.0,1
-24.0,22.0,244.0,10.0,107.0,19.0,1
-25.0,23.0,248.0,3.0,110.0,19.0,1
-25.0,23.0,246.0,-1.0,109.0,19.0,1
-30.0,19.0,248.0,-4.0,105.0,18.0,1
-31.0,19.0,244.0,-8.0,101.0,15.0,1
-31.0,20.0,244.0,-11.0,96.0,10.0,1
-35.0,19.0,246.0,-16.0,92.0,3.0,1
-37.0,22.0,242.0,-19.0,88.0,-2.0,1
-33.0,21.0,243.0,-25.0,83.0,-4.0,1
-30.0,19.0,246.0,-30.0,84.0,-7.0,1
-31.0,20.0,242.0,-37.0,85.0,-9.0,1
-33.0,23.0,247.0,-42.0,89.0,-8.0,1
-31.0,20.0,245.0,-43.0,93.0,-8.0,1
-29.0,19.0,249.0,-38.0,93.0,-7.0,1
-24.0,17.0,246.0,-25.0,93.0,-3.0,1
-24.0,15.0,242.0,-7.0,91.0,0.0,1
-24.0,14.0,243.0,11.0,88.0,0.0,1
-25.0,13.0,242.0,28.0,82.0,1.0,1
-26.0,15.0,241.0,44.0,73.0,0.0,1
-28.0,11.0,239.0,59.0,63.0,-3.0,1
-28.0,18.0,238.0,69.0,53.0,-6.0,1
-26.0,20.0,240.0,74.0,48.0,-7.0,1
-26.0,21.0,239.0,70.0,47.0,-5.0,1
-24.0,22.0,238.0,59.0,48.0,-3.0,1
-23.0,23.0,244.0,44.0,51.0,0.0,1
-31.0,25.0,239.0,23.0,56.0,2.0,1
-23.0,24.0,240.0,0.0,62.0,5.0,1
-24.0,23.0,243.0,-23.0,69.0,7.0,1
-20.0,24.0,243.0,-44.0,77.0,6.0,1
-19.0,22.0,243.0,-62.0,87.0,6.0,1
-25.0,20.0,245.0,-73.0,95.0,4.0,1
-24.0,18.0,249.0,-79.0,101.0,1.0,1
-24.0,18.0,250.0,-76.0,105.0,-1.0,1
-24.0,17.0,247.0,-67.0,107.0,-3.0,1
-22.0,15.0,249.0,-55.0,105.0,-2.0,1
-27.0,19.0,248.0,-39.0,105.0,-4.0,1
-25.0,19.0,243.0,-23.0,101.0,-5.0,1
-22.0,21.0,246.0,-10.0,97.0,-4.0,1
-24.0,18.0,243.0,-2.0,93.0,-1.0,1
-22.0,19.0,242.0,0.0,91.0,0.0,1
-24.0,20.0,239.0,0.0,90.0,1.0,1
-23.0,24.0,241.0,-4.0,89.0,0.0,1
-23.0,23.0,239.0,-13.0,88.0,0.0,1
-26.0,22.0,244.0,-20.0,89.0,0.0,1
-27.0,21.0,244.0,-29.0,90.0,-3.0,1
-29.0,23.0,245.0,-36.0,89.0,-6.0,1
-25.0,22.0,241.0,-39.0,89.0,-8.0,1
-19.0,24.0,245.0,-38.0,88.0,-9.0,1
-27.0,21.0,246.0,-40.0,83.0,-9.0,1
-24.0,21.0,247.0,-40.0,80.0,-10.0,1
-22.0,20.0,244.0,-36.0,84.0,-12.0,1
-21.0,19.0,245.0,-31.0,91.0,-10.0,1
-18.0,21.0,248.0,-28.0,100.0,-11.0,1
-21.0,18.0,250.0,-24.0,106.0,-11.0,1
-25.0,26.0,246.0,-24.0,110.0,-12.0,1
-21.0,22.0,250.0,-29.0,116.0,-12.0,1
-24.0,24.0,251.0,-37.0,124.0,-14.0,1
-27.0,22.0,253.0,-47.0,129.0,-16.0,1
-28.0,22.0,253.0,-56.0,135.0,-16.0,1
-26.0,23.0,246.0,-61.0,137.0,-21.0,1
-29.0,24.0,243.0,-69.0,139.0,-23.0,1
-27.0,20.0,246.0,-75.0,139.0,-24.0,1
-28.0,18.0,245.0,-73.0,140.0,-25.0,1
-30.0,18.0,243.0,-68.0,141.0,-25.0,1
-30.0,17.0,242.0,-57.0,140.0,-25.0,1
-34.0,16.0,243.0,-37.0,138.0,-26.0,1
-34.0,16.0,240.0,-14.0,132.0,-30.0,1
-35.0,18.0,239.0,8.0,123.0,-32.0,1
-38.0,15.0,237.0,29.0,111.0,-33.0,1
-34.0,18.0,244.0,43.0,100.0,-36.0,1
-43.0,14.0,237.0,49.0,89.0,-36.0,1
-46.0,20.0,240.0,49.0,78.0,-36.0,1
-44.0,18.0,238.0,44.0,70.0,-35.0,1
-45.0,21.0,241.0,36.0,59.0,-34.0,1
-41.0,24.0,241.0,27.0,51.0,-31.0,1
-40.0,21.0,238.0,18.0,41.0,-27.0,1
-39.0,23.0,243.0,11.0,31.0,-23.0,1
-35.0,21.0,241.0,3.0,24.0,-20.0,1
-32.0,22.0,240.0,-7.0,20.0,-17.0,1
-32.0,26.0,240.0,-18.0,19.0,-12.0,1
-31.0,25.0,242.0,-30.0,21.0,-6.0,1
-27.0,22.0,240.0,-44.0,29.0,-4.0,1
-23.0,19.0,242.0,-56.0,38.0,-2.0,1
-24.0,22.0,251.0,-66.0,47.0,2.0,1
-24.0,17.0,244.0,-71.0,54.0,4.0,1
-28.0,16.0,248.0,-71.0,61.0,3.0,1
-29.0,14.0,249.0,-65.0,68.0,1.0,1
-29.0,14.0,250.0,-56.0,73.0,-1.0,1
-31.0,17.0,249.0,-43.0,74.0,-2.0,1
-32.0,16.0,245.0,-29.0,74.0,-2.0,1
-32.0,13.0,246.0,-13.0,73.0,2.0,1
-36.0,8.0,246.0,1.0,69.0,4.0,1
-31.0,18.0,244.0,11.0,65.0,8.0,1
-26.0,14.0,243.0,16.0,61.0,10.0,1
-25.0,15.0,246.0,18.0,59.0,11.0,1
-21.0,18.0,245.0,16.0,60.0,12.0,1
-29.0,21.0,241.0,9.0,68.0,7.0,1
-28.0,21.0,245.0,2.0,70.0,7.0,1
-30.0,19.0,239.0,-2.0,66.0,6.0,1
-32.0,20.0,242.0,-2.0,61.0,4.0,1
-29.0,17.0,242.0,3.0,54.0,1.0,1
-30.0,15.0,243.0,11.0,46.0,4.0,1
-30.0,19.0,241.0,18.0,41.0,6.0,1
-29.0,19.0,247.0,25.0,38.0,9.0,1
-28.0,21.0,244.0,27.0,39.0,11.0,1
-27.0,19.0,246.0,25.0,39.0,9.0,1
-26.0,22.0,247.0,19.0,44.0,8.0,1
-26.0,20.0,243.0,7.0,47.0,3.0,1
-24.0,22.0,247.0,-12.0,53.0,-3.0,1
-23.0,27.0,247.0,-39.0,63.0,-9.0,1
-21.0,26.0,244.0,-63.0,79.0,-9.0,1
-21.0,22.0,249.0,-82.0,99.0,-13.0,1
-21.0,22.0,248.0,-88.0,121.0,-15.0,1
-25.0,17.0,250.0,-84.0,138.0,-15.0,1
-21.0,13.0,248.0,-66.0,145.0,-13.0,1
-20.0,14.0,245.0,-38.0,141.0,-8.0,1
-22.0,10.0,243.0,-4.0,130.0,-2.0,1
-25.0,12.0,244.0,29.0,116.0,2.0,1
-27.0,12.0,240.0,59.0,105.0,2.0,1
-23.0,13.0,238.0,79.0,97.0,0.0,1
-21.0,13.0,241.0,90.0,97.0,-4.0,1
-22.0,17.0,239.0,95.0,105.0,-6.0,1
-24.0,18.0,243.0,94.0,116.0,-8.0,1
-25.0,17.0,239.0,89.0,124.0,-13.0,1
-24.0,22.0,242.0,81.0,126.0,-13.0,1
-25.0,23.0,238.0,66.0,126.0,-13.0,1
-25.0,21.0,240.0,50.0,123.0,-14.0,1
-29.0,27.0,241.0,32.0,120.0,-15.0,1
-28.0,27.0,242.0,15.0,118.0,-17.0,1
-30.0,24.0,243.0,-1.0,118.0,-19.0,1
-30.0,25.0,246.0,-17.0,118.0,-21.0,1
-31.0,26.0,246.0,-34.0,117.0,-24.0,1
-33.0,22.0,245.0,-49.0,115.0,-26.0,1
-34.0,22.0,247.0,-58.0,111.0,-31.0,1
-38.0,23.0,245.0,-61.0,109.0,-32.0,1
-38.0,22.0,247.0,-57.0,106.0,-31.0,1
-38.0,24.0,247.0,-50.0,103.0,-30.0,1
-37.0,20.0,245.0,-40.0,99.0,-29.0,1
-33.0,24.0,248.0,-29.0,95.0,-30.0,1
-36.0,23.0,242.0,-17.0,92.0,-28.0,1
-33.0,20.0,244.0,-6.0,91.0,-25.0,1
-31.0,20.0,242.0,0.0,89.0,-22.0,1
-29.0,22.0,239.0,1.0,89.0,-18.0,1
-29.0,24.0,242.0,-2.0,90.0,-13.0,1
-26.0,25.0,239.0,-8.0,89.0,-10.0,1
-27.0,20.0,242.0,-15.0,90.0,-8.0,1
-24.0,23.0,240.0,-22.0,89.0,-7.0,1
-26.0,19.0,240.0,-27.0,90.0,-5.0,1
-26.0,17.0,238.0,-28.0,90.0,-4.0,1
-27.0,17.0,242.0,-27.0,89.0,-4.0,1
-29.0,19.0,241.0,-24.0,91.0,-6.0,1
-29.0,19.0,243.0,-20.0,90.0,-5.0,1
-29.0,17.0,244.0,-16.0,93.0,-5.0,1
-31.0,19.0,245.0,-11.0,94.0,-5.0,1
-32.0,19.0,251.0,-4.0,99.0,-4.0,1
-37.0,17.0,248.0,2.0,101.0,-3.0,1
-34.0,17.0,246.0,8.0,102.0,-2.0,1
-33.0,19.0,247.0,12.0,101.0,-2.0,1
-35.0,21.0,246.0,14.0,99.0,-2.0,1
-35.0,21.0,246.0,15.0,97.0,-1.0,1
-38.0,21.0,246.0,13.0,93.0,-1.0,1
-38.0,21.0,243.0,8.0,93.0,-2.0,1
-35.0,23.0,243.0,1.0,91.0,-1.0,1
-31.0,18.0,242.0,-6.0,89.0,1.0,1
-35.0,20.0,245.0,-12.0,85.0,2.0,1
-35.0,20.0,245.0,-16.0,80.0,3.0,1
-36.0,20.0,242.0,-16.0,75.0,3.0,1
-33.0,20.0,247.0,-14.0,69.0,2.0,1
-36.0,21.0,241.0,-8.0,62.0,1.0,1
-33.0,19.0,241.0,-2.0,60.0,1.0,1
-34.0,16.0,239.0,5.0,59.0,-2.0,1
-33.0,19.0,238.0,9.0,59.0,-4.0,1
-31.0,16.0,241.0,12.0,61.0,-5.0,1
-31.0,18.0,239.0,16.0,62.0,-7.0,1
-31.0,17.0,238.0,17.0,63.0,-9.0,1
-32.0,18.0,242.0,17.0,64.0,-9.0,1
-31.0,18.0,237.0,20.0,66.0,-10.0,1
-32.0,19.0,243.0,20.0,68.0,-10.0,1
-26.0,18.0,240.0,22.0,72.0,-10.0,1
-32.0,19.0,244.0,25.0,74.0,-11.0,1
-32.0,19.0,243.0,27.0,74.0,-14.0,1
-33.0,22.0,244.0,27.0,76.0,-14.0,1
-35.0,22.0,245.0,23.0,76.0,-13.0,1
-32.0,20.0,246.0,16.0,71.0,-15.0,1
-31.0,23.0,244.0,10.0,67.0,-14.0,1
-31.0,23.0,242.0,2.0,62.0,-13.0,1
-31.0,23.0,246.0,-3.0,57.0,-11.0,1
-33.0,23.0,245.0,-8.0,55.0,-12.0,1
-33.0,24.0,246.0,-11.0,52.0,-11.0,1
-34.0,26.0,242.0,-12.0,48.0,-12.0,1
-34.0,21.0,242.0,-14.0,48.0,-12.0,1
-32.0,23.0,238.0,-13.0,47.0,-13.0,1
-33.0,20.0,244.0,-15.0,44.0,-15.0,1
-37.0,22.0,242.0,-15.0,43.0,-16.0,1
-33.0,21.0,244.0,-11.0,42.0,-16.0,1
-32.0,22.0,244.0,-10.0,42.0,-18.0,1
-33.0,22.0,239.0,-7.0,44.0,-18.0,1
-30.0,23.0,243.0,-3.0,46.0,-18.0,1
-33.0,21.0,242.0,3.0,47.0,-16.0,1
-31.0,22.0,243.0,6.0,50.0,-15.0,1
-34.0,21.0,237.0,8.0,52.0,-15.0,1
-28.0,18.0,243.0,11.0,52.0,-11.0,1
-31.0,23.0,243.0,11.0,53.0,-9.0,1
-30.0,20.0,244.0,14.0,55.0,-7.0,1
-28.0,22.0,245.0,13.0,54.0,-2.0,1
-28.0,17.0,241.0,15.0,54.0,0.0,1
-28.0,22.0,242.0,17.0,53.0,2.0,1
-29.0,22.0,242.0,18.0,51.0,0.0,1
-30.0,22.0,245.0,19.0,50.0,1.0,1
-27.0,20.0,241.0,20.0,49.0,2.0,1
-28.0,22.0,243.0,16.0,48.0,1.0,1
-30.0,24.0,245.0,11.0,47.0,4.0,1
-26.0,22.0,245.0,3.0,47.0,5.0,1
-28.0,23.0,248.0,-4.0,48.0,8.0,1
-27.0,21.0,245.0,-11.0,48.0,9.0,1
-24.0,22.0,244.0,-15.0,49.0,7.0,1
-25.0,20.0,245.0,-20.0,48.0,7.0,1
-25.0,23.0,246.0,-21.0,48.0,8.0,1
-26.0,24.0,246.0,-22.0,49.0,4.0,1
-27.0,24.0,248.0,-16.0,52.0,3.0,1
-27.0,20.0,243.0,-11.0,56.0,1.0,1
-22.0,20.0,246.0,-7.0,62.0,-2.0,1
-30.0,23.0,243.0,-4.0,68.0,-7.0,1
-31.0,22.0,245.0,-1.0,75.0,-6.0,1
-28.0,23.0,241.0,4.0,80.0,-8.0,1
-31.0,21.0,245.0,8.0,83.0,-9.0,1
-31.0,23.0,244.0,13.0,89.0,-10.0,1
-34.0,22.0,243.0,16.0,90.0,-10.0,1
-32.0,23.0,245.0,17.0,91.0,-11.0,1
-32.0,25.0,244.0,18.0,92.0,-10.0,1
-34.0,23.0,244.0,20.0,91.0,-8.0,1
-31.0,22.0,244.0,21.0,90.0,-8.0,1
-30.0,18.0,239.0,24.0,88.0,-8.0,1
-34.0,23.0,240.0,28.0,86.0,-7.0,1
-34.0,25.0,243.0,32.0,80.0,-4.0,1
-34.0,23.0,242.0,34.0,74.0,-5.0,1
-34.0,25.0,243.0,37.0,68.0,-2.0,1
-31.0,23.0,239.0,40.0,61.0,-2.0,1
-33.0,24.0,244.0,41.0,57.0,-2.0,1
-29.0,23.0,244.0,42.0,51.0,-2.0,1
-29.0,20.0,238.0,41.0,49.0,-1.0,1
-31.0,20.0,240.0,41.0,46.0,-3.0,1
-28.0,19.0,238.0,41.0,45.0,-3.0,1
-36.0,25.0,237.0,40.0,45.0,-3.0,1
-33.0,20.0,241.0,36.0,44.0,-2.0,1
-31.0,28.0,251.0,30.0,44.0,-3.0,1
-30.0,19.0,252.0,25.0,46.0,-2.0,1
-29.0,24.0,237.0,17.0,49.0,-1.0,1
-32.0,20.0,245.0,9.0,52.0,-1.0,1
-34.0,21.0,242.0,0.0,54.0,2.0,1
-27.0,23.0,244.0,-8.0,57.0,0.0,1
-31.0,22.0,250.0,-19.0,61.0,0.0,1
-23.0,17.0,241.0,-30.0,61.0,1.0,1
-17.0,36.0,250.0,-39.0,62.0,3.0,1
-28.0,24.0,245.0,-45.0,63.0,3.0,1
-31.0,23.0,252.0,-46.0,65.0,2.0,1
-32.0,19.0,247.0,-47.0,66.0,0.0,1
-28.0,21.0,252.0,-42.0,68.0,-1.0,1
-25.0,17.0,264.0,-35.0,68.0,-2.0,1
-32.0,26.0,245.0,-24.0,67.0,-3.0,1
-35.0,16.0,253.0,-13.0,69.0,-2.0,1
-32.0,26.0,253.0,-3.0,71.0,-3.0,1
-30.0,25.0,242.0,3.0,71.0,-2.0,1
-35.0,23.0,243.0,9.0,71.0,-4.0,1
-32.0,26.0,242.0,11.0,69.0,-3.0,1
-32.0,22.0,263.0,14.0,66.0,-4.0,1
-27.0,32.0,242.0,16.0,63.0,-6.0,1
-31.0,20.0,239.0,18.0,59.0,-9.0,1
-43.0,25.0,241.0,14.0,54.0,-9.0,1
-34.0,25.0,239.0,8.0,52.0,-9.0,1
-32.0,25.0,242.0,-2.0,55.0,-7.0,1
-33.0,26.0,244.0,-12.0,56.0,-3.0,1
-31.0,28.0,248.0,-22.0,60.0,2.0,1
-29.0,24.0,243.0,-29.0,61.0,5.0,1
-24.0,19.0,246.0,-26.0,61.0,5.0,1
-23.0,22.0,251.0,-18.0,59.0,6.0,1
-29.0,22.0,246.0,-3.0,57.0,3.0,1
-24.0,11.0,244.0,15.0,55.0,1.0,1
-19.0,27.0,250.0,33.0,54.0,0.0,1
-35.0,20.0,242.0,44.0,56.0,-3.0,1
-32.0,15.0,243.0,53.0,60.0,-6.0,1
-37.0,18.0,240.0,63.0,68.0,-6.0,1
-30.0,23.0,246.0,71.0,77.0,-7.0,1
-47.0,20.0,247.0,77.0,83.0,-8.0,1
-27.0,21.0,242.0,84.0,86.0,-4.0,1
-33.0,24.0,241.0,88.0,84.0,0.0,1
-27.0,23.0,241.0,84.0,76.0,4.0,1
-29.0,27.0,239.0,76.0,66.0,7.0,1
-27.0,23.0,238.0,62.0,54.0,8.0,1
-35.0,30.0,245.0,41.0,42.0,10.0,1
-33.0,29.0,239.0,13.0,32.0,11.0,1
-33.0,24.0,248.0,-16.0,25.0,11.0,1
-27.0,25.0,243.0,-42.0,19.0,8.0,1
-24.0,32.0,256.0,-62.0,18.0,8.0,1
-32.0,23.0,246.0,-75.0,19.0,6.0,1
-25.0,24.0,253.0,-78.0,26.0,3.0,1
-31.0,24.0,253.0,-75.0,33.0,2.0,1
-37.0,24.0,249.0,-67.0,42.0,0.0,1
-32.0,22.0,246.0,-56.0,50.0,0.0,1
-26.0,25.0,248.0,-43.0,58.0,-2.0,1
-33.0,25.0,247.0,-30.0,67.0,-4.0,1
-28.0,28.0,244.0,-19.0,73.0,-4.0,1
-28.0,28.0,246.0,-15.0,76.0,-6.0,1
-26.0,29.0,248.0,-17.0,77.0,-7.0,1
-23.0,24.0,249.0,-24.0,76.0,-9.0,1
-31.0,28.0,248.0,-32.0,72.0,-11.0,1
-32.0,18.0,238.0,-42.0,69.0,-13.0,1
-36.0,24.0,245.0,-49.0,66.0,-14.0,1
-34.0,29.0,248.0,-55.0,62.0,-12.0,1
-31.0,25.0,242.0,-63.0,59.0,-13.0,1
-26.0,22.0,244.0,-68.0,57.0,-12.0,1
-31.0,29.0,243.0,-73.0,53.0,-11.0,1
-30.0,25.0,241.0,-76.0,52.0,-8.0,1
-29.0,14.0,246.0,-80.0,51.0,-6.0,1
-32.0,25.0,249.0,-83.0,52.0,-5.0,1
-33.0,26.0,247.0,-84.0,52.0,-4.0,1
-31.0,25.0,249.0,-84.0,55.0,-3.0,1
-31.0,20.0,250.0,-82.0,57.0,-4.0,1
-34.0,29.0,243.0,-81.0,59.0,-1.0,1
-21.0,19.0,253.0,-80.0,60.0,0.0,1
-24.0,26.0,247.0,-76.0,63.0,1.0,1
-24.0,19.0,245.0,-71.0,64.0,2.0,1
-23.0,27.0,247.0,-67.0,67.0,2.0,1
-31.0,30.0,240.0,-66.0,68.0,5.0,1
-32.0,20.0,247.0,-65.0,70.0,6.0,1
-32.0,18.0,243.0,-67.0,72.0,8.0,1
-28.0,19.0,242.0,-72.0,74.0,8.0,1
-25.0,24.0,240.0,-73.0,77.0,8.0,1
-29.0,15.0,239.0,-74.0,81.0,9.0,1
-21.0,16.0,237.0,-75.0,82.0,9.0,1
-27.0,19.0,249.0,-74.0,85.0,9.0,1
-26.0,17.0,243.0,-71.0,87.0,8.0,1
-30.0,20.0,244.0,-68.0,88.0,8.0,1
-26.0,15.0,242.0,-63.0,90.0,8.0,1
-31.0,21.0,243.0,-55.0,90.0,8.0,1
-27.0,19.0,238.0,-47.0,89.0,7.0,1
-30.0,21.0,239.0,-39.0,86.0,8.0,1
-34.0,25.0,236.0,-34.0,83.0,7.0,1
-28.0,16.0,247.0,-30.0,81.0,5.0,1
-30.0,22.0,242.0,-29.0,76.0,5.0,1
-31.0,21.0,244.0,-34.0,72.0,5.0,1
-30.0,21.0,246.0,-41.0,70.0,4.0,1
-34.0,17.0,240.0,-51.0,68.0,3.0,1
-28.0,20.0,247.0,-63.0,67.0,3.0,1
-29.0,21.0,240.0,-73.0,67.0,3.0,1
-28.0,23.0,245.0,-83.0,69.0,2.0,1
-30.0,21.0,244.0,-87.0,71.0,3.0,1
-32.0,15.0,251.0,-90.0,73.0,2.0,1
-30.0,17.0,248.0,-91.0,77.0,2.0,1
-29.0,20.0,242.0,-88.0,80.0,2.0,1
-31.0,20.0,246.0,-84.0,83.0,1.0,1
-32.0,21.0,242.0,-77.0,89.0,2.0,1
-31.0,20.0,246.0,-70.0,91.0,0.0,1
-30.0,21.0,243.0,-62.0,93.0,0.0,1
-34.0,21.0,244.0,-55.0,92.0,-2.0,1
-32.0,21.0,242.0,-51.0,91.0,-3.0,1
-23.0,20.0,248.0,-47.0,92.0,-4.0,1
-31.0,20.0,242.0,-48.0,90.0,-4.0,1
-30.0,22.0,242.0,-51.0,88.0,-4.0,1
-32.0,24.0,243.0,-54.0,88.0,-4.0,1
-28.0,19.0,243.0,-60.0,87.0,-2.0,1
-31.0,22.0,242.0,-67.0,89.0,0.0,1
-29.0,20.0,243.0,-75.0,89.0,0.0,1
-33.0,20.0,241.0,-82.0,90.0,0.0,1
-30.0,18.0,245.0,-87.0,89.0,1.0,1
-28.0,17.0,244.0,-90.0,90.0,2.0,1
-31.0,19.0,242.0,-90.0,91.0,3.0,1
-29.0,16.0,247.0,-89.0,92.0,3.0,1
-32.0,19.0,243.0,-85.0,92.0,1.0,1
-31.0,17.0,247.0,-77.0,94.0,3.0,1
-29.0,16.0,246.0,-70.0,95.0,3.0,1
-30.0,18.0,245.0,-63.0,96.0,4.0,1
-32.0,17.0,239.0,-55.0,99.0,3.0,1
-25.0,14.0,249.0,-48.0,100.0,4.0,1
-32.0,17.0,244.0,-44.0,99.0,6.0,1
-33.0,18.0,242.0,-40.0,99.0,6.0,1
-31.0,14.0,243.0,-38.0,97.0,6.0,1
-31.0,15.0,244.0,-36.0,94.0,7.0,1
-31.0,16.0,246.0,-35.0,93.0,6.0,1
-30.0,16.0,241.0,-31.0,91.0,7.0,1
-29.0,17.0,243.0,-31.0,90.0,7.0,1
-30.0,15.0,241.0,-25.0,89.0,7.0,1
-30.0,17.0,246.0,-23.0,88.0,6.0,1
-31.0,16.0,242.0,-20.0,86.0,7.0,1
-27.0,16.0,239.0,-19.0,86.0,6.0,1
-29.0,19.0,243.0,-19.0,85.0,6.0,1
-34.0,19.0,245.0,-19.0,82.0,6.0,1
-29.0,13.0,245.0,-20.0,79.0,6.0,1
-32.0,17.0,241.0,-23.0,78.0,6.0,1
-30.0,19.0,242.0,-23.0,76.0,6.0,1
-31.0,16.0,245.0,-25.0,74.0,4.0,1
-35.0,15.0,246.0,-27.0,74.0,4.0,1
-33.0,19.0,239.0,-28.0,74.0,4.0,1
-32.0,18.0,241.0,-31.0,74.0,5.0,1
-32.0,17.0,246.0,-36.0,75.0,6.0,1
-29.0,18.0,242.0,-38.0,78.0,7.0,1
-34.0,18.0,243.0,-42.0,80.0,7.0,1
-28.0,16.0,244.0,-44.0,80.0,7.0,1
-31.0,14.0,242.0,-44.0,83.0,10.0,1
-31.0,14.0,241.0,-43.0,85.0,12.0,1
-28.0,14.0,242.0,-39.0,86.0,12.0,1
-31.0,15.0,246.0,-32.0,86.0,13.0,1
-31.0,15.0,239.0,-26.0,83.0,14.0,1
-32.0,18.0,242.0,-18.0,80.0,15.0,1
-30.0,16.0,240.0,-11.0,75.0,16.0,1
-32.0,20.0,243.0,-9.0,71.0,16.0,1
-33.0,18.0,243.0,-14.0,67.0,15.0,1
-33.0,20.0,241.0,-20.0,63.0,14.0,1
-30.0,21.0,242.0,-31.0,59.0,13.0,1
-30.0,18.0,239.0,-39.0,58.0,12.0,1
-31.0,19.0,243.0,-45.0,56.0,11.0,1
-29.0,21.0,245.0,-45.0,56.0,11.0,1
-31.0,19.0,242.0,-37.0,56.0,9.0,1
-31.0,16.0,242.0,-25.0,57.0,9.0,1
-26.0,14.0,242.0,-11.0,60.0,9.0,1
-26.0,12.0,246.0,5.0,62.0,8.0,1
-30.0,19.0,243.0,18.0,64.0,9.0,1
-30.0,16.0,240.0,26.0,69.0,10.0,1
-35.0,16.0,234.0,24.0,72.0,10.0,1
-31.0,18.0,244.0,17.0,74.0,9.0,1
-28.0,16.0,241.0,4.0,77.0,8.0,1
-31.0,22.0,243.0,-13.0,78.0,9.0,1
-31.0,17.0,248.0,-33.0,80.0,6.0,1
-34.0,16.0,248.0,-55.0,82.0,5.0,1
-29.0,16.0,251.0,-74.0,86.0,2.0,1
-34.0,18.0,249.0,-89.0,90.0,4.0,1
-32.0,16.0,244.0,-94.0,95.0,3.0,1
-33.0,16.0,249.0,-93.0,99.0,5.0,1
-29.0,13.0,246.0,-85.0,99.0,5.0,1
-29.0,15.0,248.0,-73.0,100.0,7.0,1
-30.0,14.0,243.0,-61.0,99.0,7.0,1
-30.0,12.0,247.0,-47.0,93.0,9.0,1
-34.0,12.0,246.0,-38.0,87.0,6.0,1
-32.0,16.0,242.0,-30.0,82.0,3.0,1
-32.0,17.0,245.0,-23.0,78.0,1.0,1
-34.0,16.0,244.0,-21.0,74.0,1.0,1
-31.0,15.0,242.0,-19.0,70.0,0.0,1
-32.0,18.0,241.0,-20.0,69.0,2.0,1
-32.0,19.0,241.0,-20.0,69.0,3.0,1
-33.0,19.0,238.0,-17.0,69.0,2.0,1
-32.0,19.0,241.0,-13.0,67.0,2.0,1
-30.0,15.0,240.0,-8.0,66.0,4.0,1
-30.0,18.0,243.0,-4.0,68.0,6.0,1
-32.0,20.0,243.0,-1.0,69.0,6.0,1
-34.0,20.0,241.0,2.0,71.0,5.0,1
-32.0,16.0,244.0,2.0,74.0,6.0,1
-30.0,18.0,242.0,0.0,76.0,4.0,1
-34.0,18.0,242.0,-5.0,78.0,4.0,1
-31.0,17.0,242.0,-11.0,79.0,3.0,1
-33.0,16.0,244.0,-17.0,78.0,1.0,1
-33.0,20.0,245.0,-23.0,74.0,0.0,1
-32.0,19.0,242.0,-28.0,73.0,0.0,1
-32.0,17.0,243.0,-31.0,71.0,1.0,1
-32.0,18.0,245.0,-33.0,69.0,1.0,1
-29.0,15.0,241.0,-36.0,67.0,2.0,1
-32.0,15.0,244.0,-38.0,68.0,3.0,1
-32.0,15.0,246.0,-40.0,68.0,3.0,1
-33.0,16.0,248.0,-40.0,68.0,4.0,1
-30.0,15.0,247.0,-41.0,69.0,4.0,1
-33.0,14.0,245.0,-38.0,68.0,2.0,1
-31.0,15.0,245.0,-33.0,70.0,2.0,1
-24.0,13.0,250.0,-26.0,71.0,0.0,1
-35.0,16.0,241.0,-20.0,73.0,-1.0,1
-32.0,14.0,245.0,-13.0,74.0,1.0,1
-34.0,12.0,240.0,-9.0,73.0,1.0,1
-28.0,17.0,242.0,-9.0,74.0,0.0,1
-30.0,17.0,241.0,-14.0,74.0,1.0,1
-31.0,15.0,241.0,-18.0,75.0,1.0,1
-33.0,13.0,243.0,-24.0,72.0,1.0,1
-35.0,14.0,241.0,-29.0,72.0,0.0,1
-35.0,13.0,243.0,-31.0,72.0,1.0,1
-35.0,14.0,241.0,-31.0,71.0,-2.0,1
-33.0,13.0,246.0,-30.0,71.0,-1.0,1
-33.0,13.0,239.0,-29.0,73.0,-2.0,1
-31.0,14.0,242.0,-29.0,74.0,-1.0,1
-32.0,14.0,240.0,-26.0,76.0,0.0,1
-31.0,12.0,240.0,-18.0,79.0,-3.0,1
-35.0,15.0,244.0,-8.0,80.0,-2.0,1
-30.0,10.0,243.0,4.0,79.0,-1.0,1
-29.0,11.0,241.0,14.0,77.0,-1.0,1
-34.0,16.0,240.0,22.0,74.0,-2.0,1
-33.0,13.0,241.0,25.0,70.0,-2.0,1
-33.0,19.0,243.0,24.0,66.0,-4.0,1
-30.0,15.0,242.0,19.0,65.0,-5.0,1
-31.0,16.0,239.0,13.0,62.0,-5.0,1
-32.0,17.0,238.0,8.0,61.0,-6.0,1
-32.0,19.0,239.0,2.0,60.0,-5.0,1
-33.0,16.0,243.0,0.0,58.0,-5.0,1
-31.0,18.0,241.0,-1.0,56.0,-3.0,1
-29.0,17.0,244.0,0.0,54.0,-2.0,1
-33.0,19.0,241.0,1.0,52.0,-1.0,1
-30.0,18.0,242.0,6.0,49.0,-2.0,1
-29.0,19.0,244.0,10.0,49.0,-3.0,1
-28.0,19.0,242.0,11.0,49.0,-2.0,1
-29.0,20.0,242.0,13.0,47.0,-2.0,1
-29.0,20.0,241.0,12.0,49.0,-3.0,1
-27.0,19.0,243.0,10.0,49.0,-3.0,1
-31.0,21.0,244.0,7.0,52.0,-3.0,1
-27.0,21.0,243.0,2.0,56.0,-3.0,1
-28.0,18.0,246.0,-4.0,58.0,-3.0,1
-31.0,19.0,241.0,-8.0,61.0,-3.0,1
-30.0,18.0,240.0,-14.0,64.0,-2.0,1
-29.0,16.0,242.0,-17.0,65.0,-2.0,1
-29.0,17.0,245.0,-19.0,66.0,-3.0,1
-28.0,16.0,245.0,-18.0,65.0,-2.0,1
-30.0,13.0,244.0,-17.0,64.0,-4.0,1
-31.0,16.0,244.0,-11.0,62.0,-5.0,1
-32.0,17.0,242.0,-8.0,61.0,-6.0,1
-30.0,15.0,244.0,-3.0,58.0,-5.0,1
-32.0,17.0,249.0,3.0,58.0,-7.0,1
-29.0,13.0,244.0,9.0,56.0,-8.0,1
-32.0,14.0,243.0,14.0,56.0,-9.0,1
-29.0,17.0,243.0,19.0,53.0,-11.0,1
-32.0,14.0,244.0,23.0,52.0,-12.0,1
-32.0,15.0,243.0,24.0,55.0,-13.0,1
-34.0,17.0,239.0,24.0,58.0,-12.0,1
-34.0,16.0,244.0,23.0,58.0,-13.0,1
-36.0,18.0,245.0,24.0,60.0,-11.0,1
-37.0,19.0,246.0,23.0,61.0,-14.0,1
-35.0,18.0,241.0,24.0,63.0,-15.0,1
-36.0,17.0,246.0,26.0,62.0,-14.0,1
-36.0,19.0,242.0,28.0,59.0,-14.0,1
-34.0,21.0,242.0,30.0,57.0,-13.0,1
-33.0,20.0,241.0,31.0,56.0,-14.0,1
-34.0,18.0,239.0,28.0,55.0,-13.0,1
-35.0,25.0,241.0,20.0,55.0,-11.0,1
-35.0,20.0,243.0,10.0,56.0,-10.0,1
-35.0,20.0,242.0,-2.0,56.0,-9.0,1
-34.0,20.0,242.0,-10.0,57.0,-7.0,1
-31.0,17.0,244.0,-18.0,57.0,-7.0,1
-31.0,17.0,241.0,-23.0,59.0,-4.0,1
-29.0,15.0,242.0,-26.0,60.0,-4.0,1
-31.0,19.0,241.0,-24.0,61.0,-2.0,1
-30.0,14.0,243.0,-22.0,61.0,-1.0,1
-31.0,15.0,244.0,-17.0,62.0,0.0,1
-29.0,15.0,243.0,-12.0,61.0,2.0,1
-26.0,14.0,242.0,-7.0,59.0,2.0,1
-28.0,17.0,244.0,-3.0,59.0,2.0,1
-30.0,19.0,246.0,-3.0,58.0,1.0,1
-27.0,18.0,242.0,-7.0,59.0,2.0,1
-29.0,18.0,242.0,-12.0,60.0,0.0,1
-29.0,20.0,242.0,-13.0,60.0,-1.0,1
-29.0,21.0,248.0,-16.0,61.0,-2.0,1
-29.0,18.0,245.0,-14.0,61.0,-2.0,1
-28.0,19.0,244.0,-7.0,63.0,-4.0,1
-30.0,16.0,243.0,4.0,62.0,-5.0,1
-30.0,16.0,243.0,15.0,60.0,-6.0,1
-29.0,15.0,245.0,29.0,61.0,-8.0,1
-32.0,14.0,243.0,40.0,62.0,-8.0,1
-33.0,15.0,243.0,49.0,58.0,-9.0,1
-32.0,18.0,242.0,53.0,57.0,-10.0,1
-32.0,19.0,244.0,53.0,57.0,-10.0,1
-32.0,16.0,242.0,48.0,58.0,-10.0,1
-32.0,15.0,245.0,43.0,60.0,-11.0,1
-35.0,19.0,240.0,33.0,60.0,-11.0,1
-31.0,17.0,244.0,23.0,62.0,-13.0,1
-29.0,14.0,242.0,13.0,66.0,-12.0,1
-29.0,17.0,248.0,8.0,70.0,-13.0,1
-30.0,14.0,246.0,7.0,75.0,-13.0,1
-31.0,18.0,244.0,14.0,80.0,-12.0,1
-31.0,18.0,244.0,26.0,81.0,-12.0,1
-30.0,20.0,245.0,42.0,80.0,-9.0,1
-31.0,16.0,243.0,55.0,75.0,-8.0,1
-32.0,16.0,240.0,66.0,69.0,-8.0,1
-32.0,18.0,242.0,70.0,60.0,-9.0,1
-31.0,19.0,243.0,68.0,48.0,-10.0,1
-33.0,23.0,240.0,58.0,37.0,-11.0,1
-34.0,19.0,239.0,44.0,30.0,-12.0,1
-30.0,20.0,244.0,28.0,23.0,-13.0,1
-28.0,22.0,241.0,14.0,21.0,-12.0,1
-41.0,23.0,245.0,0.0,21.0,-12.0,1
-32.0,23.0,245.0,-10.0,24.0,-11.0,1
-27.0,22.0,245.0,-14.0,27.0,-11.0,1
-29.0,19.0,243.0,-11.0,31.0,-9.0,1
-29.0,20.0,241.0,-5.0,36.0,-7.0,1
-27.0,18.0,245.0,0.0,43.0,-5.0,1
-30.0,19.0,245.0,7.0,49.0,-4.0,1
-31.0,20.0,244.0,12.0,55.0,-5.0,1
-29.0,18.0,245.0,18.0,61.0,-7.0,1
-31.0,22.0,245.0,19.0,64.0,-10.0,1
-33.0,23.0,241.0,18.0,66.0,-10.0,1
-27.0,20.0,245.0,15.0,64.0,-11.0,1
-28.0,22.0,243.0,12.0,63.0,-12.0,1
-27.0,19.0,246.0,6.0,62.0,-12.0,1
-29.0,20.0,244.0,-1.0,59.0,-14.0,1
-31.0,21.0,243.0,-7.0,57.0,-13.0,1
-31.0,21.0,244.0,-7.0,55.0,-13.0,1
-29.0,18.0,246.0,-6.0,54.0,-11.0,1
-29.0,21.0,243.0,-5.0,54.0,-9.0,1
-26.0,15.0,246.0,-5.0,55.0,-8.0,1
-28.0,18.0,243.0,-2.0,56.0,-9.0,1
-31.0,20.0,246.0,1.0,59.0,-11.0,1
-29.0,18.0,246.0,5.0,61.0,-8.0,1
-32.0,20.0,246.0,9.0,60.0,-8.0,1
-30.0,20.0,243.0,12.0,60.0,-7.0,1
-31.0,18.0,245.0,15.0,59.0,-9.0,1
-30.0,18.0,245.0,19.0,60.0,-7.0,1
-31.0,21.0,244.0,23.0,57.0,-6.0,1
-29.0,21.0,241.0,27.0,55.0,-4.0,1
-31.0,20.0,243.0,26.0,53.0,-4.0,1
-29.0,19.0,241.0,24.0,53.0,-4.0,1
-31.0,23.0,241.0,20.0,53.0,-2.0,1
-30.0,22.0,243.0,12.0,52.0,2.0,1
-29.0,23.0,243.0,1.0,50.0,1.0,1
-29.0,20.0,246.0,-9.0,50.0,-1.0,1
-32.0,22.0,241.0,-19.0,49.0,-3.0,1
-29.0,22.0,244.0,-25.0,49.0,-4.0,1
-30.0,20.0,249.0,-28.0,50.0,-5.0,1
-29.0,17.0,244.0,-26.0,54.0,-6.0,1
-32.0,18.0,244.0,-21.0,57.0,-7.0,1
-29.0,20.0,245.0,-12.0,61.0,-9.0,1
-29.0,15.0,245.0,-4.0,64.0,-10.0,1
-32.0,18.0,245.0,7.0,67.0,-10.0,1
-29.0,19.0,243.0,20.0,70.0,-9.0,1
-29.0,15.0,248.0,29.0,69.0,-10.0,1
-33.0,17.0,243.0,36.0,68.0,-9.0,1
-31.0,20.0,243.0,40.0,67.0,-7.0,1
-30.0,20.0,239.0,41.0,68.0,-9.0,1
-29.0,22.0,242.0,41.0,68.0,-9.0,1
-29.0,20.0,243.0,38.0,67.0,-8.0,1
-29.0,23.0,238.0,34.0,66.0,-7.0,1
-33.0,23.0,241.0,28.0,64.0,-5.0,1
-31.0,20.0,242.0,26.0,63.0,-7.0,1
-30.0,23.0,244.0,22.0,59.0,-6.0,1
-30.0,25.0,241.0,16.0,57.0,-6.0,1
-30.0,24.0,246.0,15.0,55.0,-7.0,1
-28.0,22.0,242.0,13.0,50.0,-9.0,1
-28.0,23.0,242.0,18.0,49.0,-7.0,1
-31.0,22.0,243.0,20.0,48.0,-8.0,1
-29.0,21.0,242.0,21.0,46.0,-7.0,1
-28.0,22.0,244.0,23.0,48.0,-7.0,1
-30.0,24.0,243.0,21.0,50.0,-7.0,1
-28.0,23.0,246.0,19.0,53.0,-6.0,1
-29.0,25.0,245.0,14.0,54.0,-5.0,1
-27.0,20.0,243.0,8.0,55.0,-5.0,1
-17.0,34.0,248.0,0.0,55.0,-6.0,1
-29.0,22.0,243.0,-7.0,57.0,-7.0,1
-27.0,25.0,244.0,-11.0,58.0,-7.0,1
-27.0,21.0,244.0,-11.0,62.0,-10.0,1
-30.0,19.0,246.0,-6.0,64.0,-7.0,1
-29.0,24.0,244.0,-1.0,67.0,-7.0,1
-28.0,17.0,242.0,5.0,68.0,-6.0,1
-30.0,20.0,245.0,10.0,68.0,-6.0,1
-32.0,22.0,242.0,15.0,68.0,-5.0,1
-29.0,25.0,243.0,20.0,68.0,-5.0,1
-29.0,21.0,245.0,22.0,68.0,-2.0,1
-29.0,21.0,246.0,24.0,66.0,-2.0,1
-27.0,24.0,242.0,22.0,65.0,-3.0,1
-27.0,24.0,245.0,21.0,63.0,-4.0,1
-27.0,20.0,246.0,21.0,60.0,-4.0,1
-31.0,21.0,241.0,21.0,59.0,-4.0,1
-27.0,23.0,240.0,22.0,56.0,-4.0,1
-30.0,23.0,243.0,23.0,54.0,-4.0,1
-32.0,23.0,245.0,23.0,52.0,-7.0,1
-27.0,21.0,244.0,20.0,52.0,-4.0,1
-29.0,21.0,242.0,18.0,50.0,-2.0,1
-30.0,22.0,246.0,14.0,48.0,-2.0,1
-27.0,20.0,243.0,11.0,48.0,-1.0,1
-31.0,25.0,238.0,7.0,47.0,-2.0,1
-27.0,21.0,244.0,3.0,48.0,-1.0,1
-27.0,22.0,243.0,-2.0,50.0,0.0,1
-31.0,22.0,245.0,-5.0,51.0,0.0,1
-29.0,23.0,244.0,-8.0,51.0,0.0,1
-27.0,23.0,243.0,-9.0,54.0,-1.0,1
-29.0,22.0,241.0,-11.0,55.0,-2.0,1
-28.0,23.0,243.0,-14.0,57.0,-3.0,1
-31.0,21.0,247.0,-17.0,59.0,-2.0,1
-29.0,22.0,247.0,-20.0,60.0,-3.0,1
-29.0,21.0,241.0,-22.0,61.0,-3.0,1
-32.0,24.0,247.0,-23.0,63.0,-4.0,1
-29.0,22.0,240.0,-25.0,63.0,-2.0,1
-30.0,23.0,248.0,-25.0,64.0,-2.0,1
-29.0,22.0,245.0,-24.0,63.0,-1.0,1
-29.0,27.0,245.0,-24.0,62.0,0.0,1
-26.0,23.0,245.0,-25.0,61.0,-1.0,1
-28.0,21.0,241.0,-29.0,61.0,-2.0,1
-30.0,20.0,246.0,-29.0,61.0,-4.0,1
-29.0,21.0,244.0,-28.0,63.0,-6.0,1
-28.0,24.0,245.0,-22.0,62.0,-6.0,1
-30.0,21.0,244.0,-14.0,61.0,-8.0,1
-26.0,20.0,246.0,-5.0,59.0,-12.0,1
-30.0,22.0,247.0,2.0,57.0,-10.0,1
-26.0,22.0,246.0,8.0,58.0,-10.0,1
-28.0,21.0,244.0,13.0,61.0,-10.0,1
-28.0,24.0,245.0,15.0,65.0,-9.0,1
-29.0,26.0,246.0,18.0,71.0,-9.0,1
-28.0,19.0,244.0,20.0,76.0,-9.0,1
-27.0,19.0,243.0,24.0,82.0,-8.0,1
-28.0,19.0,242.0,28.0,86.0,-10.0,1
-28.0,18.0,244.0,32.0,89.0,-11.0,1
-30.0,22.0,247.0,34.0,92.0,-13.0,1
-31.0,20.0,247.0,38.0,94.0,-15.0,1
-29.0,21.0,245.0,41.0,98.0,-18.0,1
-28.0,20.0,244.0,49.0,102.0,-18.0,1
-29.0,22.0,237.0,58.0,106.0,-18.0,1
-31.0,22.0,246.0,69.0,103.0,-15.0,1
-28.0,23.0,244.0,79.0,101.0,-12.0,1
-31.0,24.0,241.0,87.0,94.0,-10.0,1
-31.0,23.0,239.0,90.0,80.0,-8.0,1
-29.0,24.0,243.0,85.0,67.0,-5.0,1
-35.0,23.0,243.0,71.0,48.0,-4.0,1
-44.0,25.0,232.0,55.0,28.0,-3.0,1
-32.0,28.0,241.0,35.0,11.0,-4.0,1
-34.0,28.0,245.0,17.0,-3.0,-4.0,1
-33.0,27.0,242.0,-3.0,-10.0,-6.0,1
-30.0,26.0,245.0,-18.0,-13.0,-5.0,1
-33.0,28.0,245.0,-28.0,-12.0,-4.0,1
-31.0,26.0,244.0,-32.0,-6.0,-2.0,1
-33.0,24.0,245.0,-31.0,0.0,-1.0,1
-28.0,26.0,247.0,-25.0,8.0,-1.0,1
-27.0,27.0,247.0,-17.0,20.0,0.0,1
-25.0,28.0,241.0,-8.0,34.0,2.0,1
-29.0,26.0,245.0,-1.0,46.0,-1.0,1
-27.0,25.0,244.0,6.0,56.0,-2.0,1
-24.0,25.0,247.0,10.0,64.0,-2.0,1
-27.0,28.0,242.0,9.0,69.0,-1.0,1
-25.0,22.0,243.0,8.0,73.0,-1.0,1
-24.0,24.0,244.0,6.0,71.0,-1.0,1
-24.0,26.0,246.0,1.0,70.0,-3.0,1
-26.0,23.0,242.0,-3.0,68.0,-4.0,1
-25.0,25.0,242.0,-5.0,65.0,-3.0,1
-30.0,24.0,241.0,-6.0,63.0,-3.0,1
-26.0,24.0,246.0,-7.0,59.0,-2.0,1
-30.0,23.0,242.0,-7.0,57.0,-2.0,1
-27.0,27.0,247.0,-9.0,57.0,-1.0,1
-28.0,25.0,247.0,-10.0,54.0,0.0,1
-27.0,26.0,245.0,-11.0,53.0,-2.0,1
-28.0,24.0,243.0,-11.0,53.0,-1.0,1
-26.0,23.0,243.0,-13.0,52.0,-2.0,1
-29.0,25.0,241.0,-14.0,52.0,-1.0,1
-31.0,28.0,249.0,-15.0,50.0,-1.0,1
-30.0,22.0,244.0,-16.0,48.0,-1.0,1
-28.0,24.0,248.0,-18.0,47.0,-2.0,1
-29.0,25.0,244.0,-20.0,45.0,-4.0,1
-28.0,24.0,244.0,-19.0,47.0,-4.0,1
-31.0,25.0,247.0,-18.0,48.0,-2.0,1
-27.0,22.0,245.0,-18.0,49.0,-2.0,1
-27.0,23.0,245.0,-16.0,51.0,-2.0,1
-29.0,27.0,239.0,-15.0,53.0,-2.0,1
-24.0,22.0,243.0,-14.0,54.0,0.0,1
-29.0,27.0,244.0,-17.0,55.0,0.0,1
-27.0,25.0,242.0,-21.0,58.0,1.0,1
-27.0,27.0,244.0,-27.0,61.0,2.0,1
-27.0,26.0,242.0,-30.0,66.0,-1.0,1
-29.0,25.0,243.0,-30.0,71.0,-2.0,1
-25.0,22.0,242.0,-27.0,76.0,-5.0,1
-25.0,22.0,246.0,-22.0,80.0,-9.0,1
-26.0,24.0,244.0,-13.0,81.0,-10.0,1
-29.0,21.0,244.0,-3.0,83.0,-9.0,1
-27.0,20.0,245.0,3.0,81.0,-13.0,1
-27.0,24.0,242.0,9.0,80.0,-13.0,1
-28.0,22.0,243.0,11.0,76.0,-15.0,1
-26.0,23.0,242.0,8.0,71.0,-15.0,1
-26.0,24.0,242.0,5.0,67.0,-15.0,1
-28.0,24.0,247.0,-1.0,62.0,-16.0,1
-27.0,22.0,243.0,-9.0,57.0,-16.0,1
-26.0,23.0,244.0,-18.0,55.0,-14.0,1
-30.0,25.0,244.0,-20.0,54.0,-12.0,1
-27.0,29.0,238.0,-23.0,52.0,-12.0,1
-32.0,25.0,245.0,-25.0,52.0,-10.0,1
-29.0,28.0,242.0,-27.0,53.0,-10.0,1
-26.0,23.0,245.0,-29.0,52.0,-7.0,1
-27.0,25.0,249.0,-31.0,53.0,-6.0,1
-27.0,26.0,244.0,-30.0,52.0,-4.0,1
-28.0,26.0,240.0,-30.0,53.0,-5.0,1
-24.0,25.0,245.0,-28.0,53.0,-4.0,1
-28.0,24.0,250.0,-26.0,55.0,-6.0,1
-25.0,22.0,244.0,-23.0,56.0,-4.0,1
-27.0,24.0,242.0,-22.0,59.0,-4.0,1
-27.0,23.0,244.0,-23.0,61.0,-3.0,1
-28.0,26.0,244.0,-25.0,63.0,-2.0,1
-25.0,24.0,244.0,-27.0,66.0,-2.0,1
-28.0,25.0,246.0,-30.0,68.0,-2.0,1
-28.0,27.0,244.0,-33.0,71.0,-2.0,1
-27.0,25.0,245.0,-36.0,73.0,-1.0,1
-26.0,23.0,248.0,-37.0,75.0,-2.0,1
-27.0,26.0,242.0,-35.0,76.0,-1.0,1
-26.0,24.0,241.0,-36.0,77.0,-3.0,1
-30.0,26.0,245.0,-32.0,80.0,0.0,1
-27.0,25.0,246.0,-29.0,79.0,-1.0,1
-27.0,24.0,243.0,-27.0,78.0,0.0,1
-27.0,23.0,243.0,-25.0,77.0,2.0,1
-27.0,20.0,244.0,-26.0,76.0,2.0,1
-26.0,25.0,246.0,-26.0,73.0,3.0,1
-26.0,22.0,244.0,-27.0,73.0,3.0,1
-26.0,26.0,243.0,-29.0,70.0,2.0,1
-27.0,23.0,244.0,-30.0,69.0,0.0,1
-23.0,23.0,244.0,-30.0,67.0,0.0,1
-26.0,25.0,236.0,-32.0,67.0,2.0,1
-28.0,24.0,244.0,-33.0,66.0,0.0,1
-27.0,23.0,244.0,-35.0,69.0,0.0,1
-26.0,24.0,246.0,-38.0,68.0,-2.0,1
-26.0,25.0,244.0,-41.0,69.0,0.0,1
-27.0,25.0,246.0,-44.0,69.0,0.0,1
-24.0,23.0,243.0,-47.0,71.0,-2.0,1
-28.0,25.0,248.0,-51.0,70.0,-1.0,1
-28.0,21.0,244.0,-57.0,72.0,0.0,1
-27.0,24.0,245.0,-63.0,74.0,-2.0,1
-27.0,21.0,247.0,-69.0,74.0,-3.0,1
-28.0,26.0,246.0,-75.0,74.0,-3.0,1
-27.0,21.0,243.0,-80.0,76.0,-3.0,1
-28.0,20.0,244.0,-83.0,77.0,-4.0,1
-27.0,21.0,241.0,-88.0,79.0,-3.0,1
-29.0,18.0,246.0,-91.0,80.0,-2.0,1
-30.0,25.0,242.0,-95.0,83.0,-5.0,1
-26.0,19.0,246.0,-101.0,85.0,-4.0,1
-28.0,23.0,244.0,-107.0,86.0,-5.0,1
-25.0,23.0,244.0,-112.0,90.0,-4.0,1
-29.0,23.0,246.0,-118.0,93.0,-3.0,1
-29.0,20.0,247.0,-122.0,95.0,-3.0,1
-34.0,22.0,239.0,-122.0,98.0,-1.0,1
-28.0,19.0,244.0,-120.0,100.0,1.0,1
-26.0,18.0,244.0,-116.0,98.0,3.0,1
-28.0,18.0,246.0,-111.0,95.0,2.0,1
-27.0,22.0,244.0,-107.0,93.0,2.0,1
-26.0,22.0,244.0,-104.0,90.0,3.0,1
-29.0,23.0,243.0,-104.0,91.0,2.0,1
-28.0,19.0,244.0,-102.0,90.0,2.0,1
-29.0,22.0,246.0,-100.0,91.0,2.0,1
-27.0,19.0,243.0,-98.0,91.0,-1.0,1
-27.0,21.0,246.0,-91.0,90.0,-4.0,1
-29.0,20.0,243.0,-82.0,91.0,-6.0,1
-31.0,22.0,244.0,-76.0,90.0,-6.0,1
-29.0,21.0,243.0,-71.0,90.0,-8.0,1
-29.0,20.0,243.0,-69.0,95.0,-9.0,1
-30.0,19.0,245.0,-69.0,99.0,-8.0,1
-29.0,21.0,244.0,-68.0,107.0,-6.0,1
-31.0,22.0,246.0,-68.0,113.0,-6.0,1
-29.0,17.0,241.0,-65.0,119.0,-5.0,1
-31.0,18.0,242.0,-61.0,126.0,-5.0,1
-30.0,14.0,247.0,-55.0,131.0,-5.0,1
-31.0,14.0,247.0,-48.0,135.0,-4.0,1
-30.0,13.0,242.0,-39.0,139.0,-6.0,1
-32.0,11.0,246.0,-28.0,143.0,-7.0,1
-31.0,15.0,244.0,-18.0,147.0,-6.0,1
-31.0,19.0,240.0,-5.0,148.0,-3.0,1
-30.0,16.0,239.0,4.0,145.0,0.0,1
-30.0,15.0,241.0,9.0,138.0,3.0,1
-32.0,18.0,245.0,9.0,126.0,7.0,1
-31.0,22.0,243.0,3.0,111.0,8.0,1
-29.0,20.0,243.0,-9.0,92.0,7.0,1
-35.0,22.0,242.0,-26.0,77.0,8.0,1
-31.0,23.0,241.0,-46.0,62.0,8.0,1
-31.0,21.0,243.0,-65.0,52.0,5.0,1
-32.0,23.0,243.0,-82.0,48.0,4.0,1
-30.0,23.0,244.0,-96.0,48.0,5.0,1
-27.0,21.0,244.0,-105.0,52.0,3.0,1
-28.0,21.0,244.0,-111.0,56.0,4.0,1
-27.0,18.0,243.0,-108.0,64.0,4.0,1
-25.0,19.0,244.0,-101.0,76.0,6.0,1
-27.0,16.0,246.0,-89.0,86.0,6.0,1
-25.0,19.0,245.0,-75.0,95.0,10.0,1
-27.0,17.0,245.0,-60.0,105.0,10.0,1
-26.0,17.0,246.0,-46.0,112.0,9.0,1
-28.0,17.0,248.0,-36.0,115.0,8.0,1
-30.0,16.0,246.0,-29.0,115.0,6.0,1
-26.0,17.0,246.0,-29.0,113.0,3.0,1
-29.0,18.0,242.0,-30.0,109.0,0.0,1
-31.0,17.0,241.0,-34.0,105.0,-2.0,1
-31.0,20.0,242.0,-41.0,99.0,-3.0,1
-30.0,19.0,240.0,-47.0,94.0,-4.0,1
-31.0,16.0,242.0,-54.0,90.0,-4.0,1
-30.0,16.0,241.0,-59.0,87.0,-4.0,1
-31.0,18.0,244.0,-63.0,87.0,-3.0,1
-29.0,16.0,242.0,-65.0,85.0,-1.0,1
-32.0,17.0,242.0,-64.0,83.0,0.0,1
-29.0,13.0,243.0,-61.0,86.0,3.0,1
-32.0,17.0,247.0,-57.0,84.0,3.0,1
-33.0,15.0,247.0,-53.0,83.0,5.0,1
-30.0,14.0,242.0,-50.0,83.0,5.0,1
-29.0,17.0,242.0,-45.0,83.0,5.0,1
-30.0,16.0,245.0,-43.0,83.0,6.0,1
-28.0,16.0,243.0,-43.0,83.0,7.0,1
-29.0,17.0,245.0,-43.0,83.0,6.0,1
-31.0,14.0,244.0,-43.0,83.0,5.0,1
-31.0,14.0,245.0,-43.0,83.0,4.0,1
-34.0,14.0,243.0,-41.0,83.0,2.0,1
-32.0,14.0,248.0,-39.0,83.0,1.0,1
-28.0,14.0,243.0,-37.0,80.0,1.0,1
-28.0,14.0,244.0,-37.0,80.0,-1.0,1
-30.0,19.0,240.0,-37.0,79.0,2.0,1
-30.0,17.0,244.0,-43.0,81.0,1.0,1
-29.0,15.0,245.0,-52.0,84.0,1.0,1
-30.0,18.0,244.0,-61.0,87.0,2.0,1
-30.0,15.0,246.0,-66.0,90.0,3.0,1
-31.0,14.0,245.0,-68.0,94.0,1.0,1
-29.0,14.0,245.0,-63.0,97.0,1.0,1
-32.0,14.0,243.0,-55.0,99.0,0.0,1
-29.0,12.0,242.0,-46.0,102.0,0.0,1
-30.0,13.0,247.0,-36.0,101.0,0.0,1
-29.0,11.0,243.0,-28.0,99.0,-1.0,1
-31.0,14.0,242.0,-24.0,98.0,0.0,1
-32.0,11.0,239.0,-23.0,94.0,1.0,1
-31.0,17.0,245.0,-25.0,92.0,1.0,1
-30.0,15.0,245.0,-32.0,87.0,0.0,1
-32.0,17.0,244.0,-39.0,85.0,1.0,1
-37.0,15.0,242.0,-48.0,82.0,0.0,1
-32.0,15.0,246.0,-55.0,80.0,-2.0,1
-31.0,15.0,243.0,-63.0,77.0,-2.0,1
-32.0,15.0,245.0,-71.0,76.0,-3.0,1
-31.0,16.0,244.0,-75.0,75.0,-3.0,1
-34.0,17.0,244.0,-77.0,75.0,-4.0,1
-28.0,17.0,244.0,-78.0,77.0,-3.0,1
-31.0,14.0,242.0,-75.0,80.0,-1.0,1
-32.0,15.0,247.0,-68.0,83.0,1.0,1
-30.0,15.0,243.0,-58.0,85.0,3.0,1
-30.0,13.0,245.0,-48.0,88.0,1.0,1
-32.0,15.0,241.0,-39.0,88.0,2.0,1
-28.0,15.0,241.0,-30.0,88.0,2.0,1
-30.0,14.0,242.0,-24.0,89.0,2.0,1
-30.0,14.0,243.0,-24.0,90.0,1.0,1
-30.0,15.0,243.0,-26.0,91.0,1.0,1
-28.0,14.0,244.0,-31.0,91.0,1.0,1
-31.0,15.0,245.0,-37.0,90.0,1.0,1
-33.0,15.0,240.0,-43.0,89.0,2.0,1
-32.0,17.0,242.0,-50.0,87.0,2.0,1
-32.0,16.0,243.0,-55.0,86.0,2.0,1
-31.0,14.0,245.0,-58.0,85.0,5.0,1
-31.0,16.0,246.0,-60.0,85.0,5.0,1
-31.0,8.0,245.0,-58.0,85.0,5.0,1
-30.0,14.0,243.0,-53.0,84.0,6.0,1
-31.0,11.0,243.0,-51.0,83.0,7.0,1
-32.0,16.0,245.0,-47.0,84.0,6.0,1
-34.0,12.0,242.0,-41.0,84.0,6.0,1
-31.0,17.0,246.0,-35.0,82.0,6.0,1
-31.0,11.0,240.0,-31.0,81.0,3.0,1
-30.0,11.0,244.0,-27.0,82.0,3.0,1
-33.0,13.0,243.0,-23.0,81.0,3.0,1
-33.0,12.0,248.0,-19.0,80.0,3.0,1
-31.0,14.0,243.0,-15.0,81.0,2.0,1
-31.0,13.0,242.0,-13.0,80.0,1.0,1
-35.0,13.0,243.0,-13.0,81.0,0.0,1
-31.0,15.0,242.0,-11.0,80.0,-2.0,1
-32.0,14.0,245.0,-13.0,80.0,-1.0,1
-32.0,11.0,247.0,-15.0,80.0,-1.0,1
-34.0,14.0,247.0,-17.0,79.0,-2.0,1
-33.0,13.0,243.0,-19.0,79.0,-1.0,1
-30.0,14.0,242.0,-21.0,79.0,0.0,1
-34.0,15.0,241.0,-24.0,78.0,0.0,1
-32.0,11.0,243.0,-27.0,79.0,0.0,1
-32.0,19.0,237.0,-28.0,78.0,0.0,1
-32.0,11.0,243.0,-30.0,76.0,1.0,1
-35.0,14.0,244.0,-32.0,76.0,2.0,1
-33.0,12.0,242.0,-32.0,76.0,2.0,1
-36.0,15.0,242.0,-35.0,75.0,2.0,1
-34.0,14.0,243.0,-37.0,72.0,2.0,1
-31.0,12.0,243.0,-39.0,74.0,-1.0,1
-33.0,14.0,246.0,-42.0,75.0,0.0,1
-34.0,16.0,247.0,-44.0,79.0,-1.0,1
-34.0,14.0,244.0,-45.0,83.0,-2.0,1
-31.0,12.0,244.0,-45.0,89.0,0.0,1
-33.0,12.0,245.0,-43.0,92.0,0.0,1
-32.0,13.0,245.0,-41.0,94.0,2.0,1
-30.0,11.0,241.0,-38.0,94.0,3.0,1
-31.0,13.0,244.0,-36.0,94.0,3.0,1
-30.0,12.0,243.0,-38.0,93.0,3.0,1
-34.0,14.0,243.0,-42.0,90.0,3.0,1
-31.0,15.0,243.0,-48.0,88.0,3.0,1
-32.0,16.0,248.0,-55.0,87.0,2.0,1
-33.0,14.0,244.0,-59.0,85.0,-2.0,1
-30.0,13.0,243.0,-58.0,83.0,-2.0,1
-31.0,11.0,250.0,-51.0,81.0,-2.0,1
-32.0,15.0,240.0,-35.0,81.0,-2.0,1
-30.0,12.0,241.0,-17.0,85.0,-4.0,1
-31.0,10.0,241.0,4.0,86.0,-1.0,1
-31.0,9.0,240.0,22.0,87.0,0.0,1
-32.0,12.0,238.0,36.0,87.0,2.0,1
-31.0,10.0,241.0,43.0,86.0,2.0,1
-32.0,10.0,238.0,45.0,86.0,1.0,1
-35.0,9.0,240.0,41.0,85.0,0.0,1
-34.0,12.0,243.0,34.0,85.0,0.0,1
-34.0,11.0,244.0,22.0,86.0,-2.0,1
-35.0,12.0,248.0,3.0,87.0,-3.0,1
-33.0,15.0,243.0,-17.0,89.0,-5.0,1
-32.0,12.0,245.0,-34.0,92.0,-3.0,1
-33.0,15.0,247.0,-49.0,94.0,-1.0,1
-33.0,13.0,245.0,-56.0,96.0,1.0,1
-36.0,13.0,243.0,-59.0,97.0,2.0,1
-33.0,11.0,245.0,-53.0,95.0,4.0,1
-32.0,10.0,243.0,-45.0,95.0,5.0,1
-31.0,13.0,242.0,-36.0,90.0,5.0,1
-34.0,10.0,249.0,-28.0,82.0,4.0,1
-32.0,13.0,244.0,-21.0,75.0,2.0,1
-33.0,9.0,242.0,-16.0,71.0,2.0,1
-29.0,13.0,243.0,-11.0,69.0,1.0,1
-37.0,13.0,247.0,-5.0,66.0,-2.0,1
-29.0,13.0,241.0,1.0,67.0,-2.0,1
-32.0,12.0,244.0,9.0,68.0,-3.0,1
-32.0,12.0,241.0,18.0,70.0,-2.0,1
-34.0,15.0,241.0,28.0,71.0,1.0,1
-32.0,11.0,240.0,40.0,72.0,2.0,1
-34.0,15.0,242.0,51.0,73.0,1.0,1
-32.0,12.0,239.0,59.0,74.0,3.0,1
-31.0,12.0,244.0,63.0,76.0,1.0,1
-30.0,14.0,241.0,63.0,78.0,0.0,1
-33.0,17.0,239.0,59.0,78.0,-3.0,1
-31.0,14.0,243.0,50.0,77.0,-5.0,1
-34.0,17.0,238.0,41.0,73.0,-6.0,1
-30.0,14.0,245.0,31.0,71.0,-6.0,1
-33.0,17.0,244.0,18.0,67.0,-7.0,1
-30.0,14.0,240.0,9.0,65.0,-8.0,1
-34.0,15.0,241.0,-3.0,62.0,-7.0,1
-33.0,15.0,245.0,-9.0,62.0,-8.0,1
-36.0,18.0,243.0,-15.0,61.0,-7.0,1
-34.0,15.0,246.0,-16.0,63.0,-5.0,1
-33.0,12.0,242.0,-17.0,62.0,-5.0,1
-31.0,15.0,240.0,-14.0,61.0,-5.0,1
-34.0,13.0,243.0,-9.0,63.0,-3.0,1
-33.0,13.0,241.0,-3.0,63.0,-4.0,1
-34.0,13.0,245.0,4.0,64.0,-4.0,1
-33.0,11.0,244.0,12.0,64.0,-3.0,1
