ax,ay,az,gx,gy,gz,label
-15.0,-246.0,69.0,-10.0,67.0,-3.0,1
-14.0,-246.0,63.0,-11.0,67.0,-2.0,1
-13.0,-246.0,68.0,-10.0,68.0,-2.0,1
-12.0,-246.0,68.0,-7.0,69.0,0.0,1
-8.0,-245.0,66.0,-4.0,69.0,-1.0,1
-15.0,-246.0,68.0,3.0,69.0,-1.0,1
-16.0,-247.0,67.0,10.0,67.0,-1.0,1
-14.0,-248.0,71.0,19.0,64.0,-2.0,1
-10.0,-247.0,68.0,29.0,62.0,-2.0,1
-15.0,-246.0,67.0,27.0,66.0,-1.0,1
-14.0,-243.0,68.0,26.0,66.0,-1.0,1
-14.0,-243.0,67.0,25.0,65.0,-1.0,1
-14.0,-243.0,68.0,21.0,66.0,-1.0,1
-16.0,-246.0,72.0,18.0,67.0,-3.0,1
-11.0,-241.0,66.0,14.0,67.0,-3.0,1
-13.0,-245.0,68.0,8.0,68.0,-1.0,1
-13.0,-244.0,73.0,2.0,68.0,-1.0,1
-15.0,-243.0,68.0,-4.0,69.0,0.0,1
-15.0,-242.0,70.0,-10.0,70.0,0.0,1
-11.0,-244.0,70.0,-15.0,69.0,-2.0,1
-14.0,-243.0,70.0,-17.0,69.0,-3.0,1
-12.0,-242.0,66.0,-17.0,70.0,-1.0,1
-16.0,-246.0,67.0,-17.0,71.0,-2.0,1
-15.0,-247.0,66.0,-17.0,70.0,-2.0,1
-14.0,-245.0,67.0,-19.0,70.0,-1.0,1
-11.0,-248.0,69.0,-19.0,70.0,-1.0,1
-14.0,-243.0,69.0,-17.0,70.0,-1.0,1
-16.0,-249.0,65.0,-16.0,70.0,-1.0,1
-12.0,-245.0,68.0,-12.0,69.0,-1.0,1
-10.0,-248.0,67.0,-8.0,67.0,0.0,1
-13.0,-247.0,68.0,-4.0,67.0,-1.0,1
-11.0,-247.0,67.0,-1.0,66.0,-1.0,1
-15.0,-245.0,70.0,1.0,64.0,-1.0,1
-15.0,-244.0,67.0,4.0,65.0,-1.0,1
-15.0,-243.0,67.0,5.0,65.0,-2.0,1
-10.0,-249.0,71.0,6.0,66.0,-3.0,1
-14.0,-244.0,74.0,12.0,64.0,-4.0,1
-13.0,-244.0,69.0,13.0,67.0,-4.0,1
-16.0,-246.0,66.0,10.0,68.0,-5.0,1
-15.0,-243.0,72.0,5.0,70.0,-4.0,1
-14.0,-243.0,67.0,0.0,70.0,-4.0,1
-13.0,-246.0,69.0,-5.0,72.0,-4.0,1
-19.0,-243.0,68.0,-10.0,72.0,-5.0,1
-17.0,-242.0,71.0,-13.0,73.0,-6.0,1
-13.0,-245.0,68.0,-16.0,73.0,-5.0,1
-15.0,-246.0,70.0,-18.0,73.0,-3.0,1
-10.0,-247.0,70.0,-19.0,72.0,-2.0,1
-14.0,-247.0,67.0,-18.0,71.0,0.0,1
-16.0,-243.0,67.0,-16.0,69.0,1.0,1
-15.0,-248.0,72.0,-12.0,68.0,3.0,1
-13.0,-251.0,71.0,-6.0,66.0,5.0,1
-12.0,-248.0,73.0,1.0,63.0,4.0,1
-16.0,-248.0,69.0,6.0,60.0,4.0,1
-17.0,-248.0,70.0,10.0,60.0,3.0,1
-18.0,-248.0,68.0,12.0,62.0,1.0,1
-15.0,-245.0,67.0,15.0,61.0,0.0,1
-13.0,-247.0,68.0,16.0,62.0,-1.0,1
-15.0,-245.0,69.0,16.0,63.0,-1.0,1
-16.0,-243.0,69.0,18.0,64.0,-2.0,1
-16.0,-245.0,64.0,20.0,64.0,-3.0,1
-16.0,-240.0,69.0,23.0,65.0,-3.0,1
-16.0,-240.0,69.0,23.0,67.0,-2.0,1
-14.0,-240.0,66.0,21.0,69.0,-1.0,1
-13.0,-243.0,67.0,19.0,70.0,-2.0,1
-16.0,-243.0,69.0,16.0,72.0,1.0,1
-15.0,-244.0,71.0,14.0,73.0,0.0,1
-17.0,-245.0,67.0,11.0,72.0,2.0,1
-15.0,-246.0,76.0,7.0,71.0,2.0,1
-14.0,-247.0,67.0,7.0,69.0,2.0,1
-15.0,-248.0,71.0,9.0,68.0,2.0,1
-17.0,-246.0,73.0,13.0,68.0,1.0,1
-13.0,-248.0,70.0,21.0,67.0,0.0,1
-15.0,-249.0,70.0,27.0,67.0,-1.0,1
-13.0,-247.0,69.0,35.0,67.0,-1.0,1
-13.0,-248.0,69.0,39.0,68.0,-2.0,1
-16.0,-244.0,70.0,41.0,66.0,-4.0,1
-15.0,-244.0,67.0,39.0,65.0,-5.0,1
-14.0,-244.0,66.0,37.0,64.0,-6.0,1
-12.0,-245.0,72.0,32.0,64.0,-8.0,1
-14.0,-244.0,72.0,27.0,62.0,-7.0,1
-15.0,-245.0,72.0,23.0,62.0,-9.0,1
-15.0,-244.0,70.0,17.0,62.0,-8.0,1
-13.0,-240.0,71.0,15.0,63.0,-9.0,1
-15.0,-241.0,73.0,13.0,63.0,-11.0,1
-12.0,-243.0,68.0,10.0,64.0,-11.0,1
-11.0,-242.0,69.0,8.0,65.0,-11.0,1
-13.0,-242.0,71.0,5.0,67.0,-10.0,1
-15.0,-242.0,67.0,2.0,69.0,-10.0,1
-13.0,-240.0,69.0,-1.0,70.0,-10.0,1
-13.0,-243.0,70.0,-5.0,71.0,-7.0,1
-14.0,-242.0,69.0,-8.0,72.0,-6.0,1
-15.0,-244.0,67.0,-10.0,71.0,-4.0,1
-6.0,-251.0,71.0,-13.0,71.0,-4.0,1
-12.0,-245.0,72.0,-15.0,69.0,-3.0,1
-12.0,-243.0,70.0,-16.0,69.0,-1.0,1
-11.0,-247.0,73.0,-17.0,69.0,-2.0,1
-13.0,-243.0,76.0,-16.0,68.0,0.0,1
-13.0,-245.0,69.0,-16.0,68.0,-1.0,1
-13.0,-246.0,67.0,-14.0,67.0,-3.0,1
-11.0,-246.0,74.0,-13.0,69.0,-2.0,1
-13.0,-247.0,71.0,-14.0,69.0,-3.0,1
-13.0,-245.0,70.0,-13.0,69.0,-2.0,1
-16.0,-247.0,68.0,-12.0,67.0,-3.0,1
-13.0,-248.0,70.0,-10.0,68.0,-4.0,1
-14.0,-244.0,67.0,-9.0,68.0,-3.0,1
-13.0,-242.0,67.0,-8.0,67.0,-2.0,1
-16.0,-240.0,72.0,-8.0,68.0,-2.0,1
-15.0,-241.0,73.0,-8.0,68.0,-2.0,1
-15.0,-245.0,65.0,-11.0,70.0,-2.0,1
-14.0,-244.0,70.0,-13.0,70.0,-1.0,1
-13.0,-247.0,66.0,-14.0,70.0,0.0,1
-15.0,-244.0,72.0,-13.0,70.0,2.0,1
-14.0,-244.0,65.0,-12.0,70.0,1.0,1
-15.0,-242.0,71.0,-11.0,70.0,1.0,1
-12.0,-245.0,74.0,-10.0,71.0,1.0,1
-14.0,-246.0,68.0,-9.0,71.0,1.0,1
-15.0,-243.0,70.0,-8.0,71.0,1.0,1
-14.0,-244.0,67.0,-5.0,70.0,0.0,1
-12.0,-245.0,72.0,-4.0,70.0,1.0,1
-14.0,-247.0,70.0,-3.0,71.0,2.0,1
-16.0,-245.0,70.0,-1.0,71.0,1.0,1
-13.0,-245.0,71.0,-1.0,71.0,1.0,1
-15.0,-244.0,68.0,-1.0,68.0,3.0,1
-14.0,-245.0,66.0,0.0,67.0,2.0,1
-13.0,-245.0,69.0,0.0,68.0,1.0,1
-14.0,-243.0,68.0,0.0,67.0,2.0,1
-15.0,-244.0,68.0,0.0,68.0,1.0,1
-15.0,-246.0,66.0,1.0,69.0,1.0,1
-17.0,-241.0,72.0,1.0,70.0,1.0,1
-16.0,-243.0,72.0,0.0,70.0,1.0,1
-14.0,-245.0,73.0,0.0,69.0,2.0,1
-12.0,-244.0,73.0,0.0,69.0,2.0,1
-19.0,-244.0,70.0,0.0,70.0,1.0,1
-16.0,-245.0,70.0,0.0,69.0,3.0,1
-14.0,-245.0,67.0,-2.0,68.0,1.0,1
-13.0,-246.0,72.0,-2.0,69.0,2.0,1
-16.0,-244.0,72.0,-2.0,69.0,2.0,1
-17.0,-241.0,72.0,-4.0,68.0,2.0,1
-14.0,-244.0,74.0,-4.0,67.0,2.0,1
-14.0,-244.0,72.0,-6.0,67.0,1.0,1
-13.0,-245.0,74.0,-6.0,69.0,0.0,1
-10.0,-244.0,73.0,-5.0,69.0,1.0,1
-16.0,-245.0,74.0,-6.0,69.0,2.0,1
-14.0,-244.0,73.0,-6.0,69.0,2.0,1
-14.0,-245.0,71.0,-7.0,68.0,1.0,1
-16.0,-245.0,74.0,-6.0,68.0,2.0,1
-15.0,-244.0,69.0,-6.0,69.0,2.0,1
-16.0,-241.0,72.0,-8.0,70.0,0.0,1
-16.0,-243.0,68.0,-8.0,69.0,0.0,1
-13.0,-246.0,72.0,-9.0,70.0,-1.0,1
-13.0,-243.0,69.0,-8.0,69.0,-1.0,1
-14.0,-247.0,73.0,-9.0,69.0,-1.0,1
-18.0,-240.0,70.0,-10.0,68.0,-1.0,1
-10.0,-245.0,66.0,-9.0,68.0,-2.0,1
-14.0,-246.0,71.0,-10.0,69.0,-2.0,1
-12.0,-244.0,70.0,-11.0,68.0,-2.0,1
-14.0,-245.0,69.0,-11.0,70.0,-2.0,1
-11.0,-244.0,69.0,-14.0,71.0,-2.0,1
-17.0,-243.0,73.0,-16.0,70.0,-2.0,1
-12.0,-242.0,73.0,-20.0,71.0,-2.0,1
-14.0,-243.0,70.0,-22.0,71.0,-5.0,1
-15.0,-246.0,71.0,-22.0,72.0,-5.0,1
-12.0,-245.0,71.0,-24.0,72.0,-4.0,1
-13.0,-246.0,70.0,-23.0,72.0,-2.0,1
-16.0,-243.0,72.0,-19.0,70.0,0.0,1
-13.0,-243.0,70.0,-13.0,68.0,1.0,1
-16.0,-247.0,73.0,-5.0,69.0,3.0,1
-14.0,-245.0,71.0,2.0,67.0,4.0,1
-15.0,-248.0,73.0,10.0,66.0,5.0,1
-15.0,-246.0,73.0,14.0,65.0,6.0,1
-16.0,-248.0,71.0,17.0,65.0,5.0,1
-14.0,-248.0,70.0,18.0,65.0,4.0,1
-16.0,-247.0,64.0,20.0,64.0,4.0,1
-17.0,-247.0,68.0,22.0,63.0,3.0,1
-15.0,-247.0,69.0,25.0,65.0,2.0,1
-15.0,-246.0,69.0,27.0,66.0,0.0,1
-13.0,-245.0,68.0,29.0,67.0,1.0,1
-12.0,-243.0,66.0,28.0,67.0,0.0,1
-18.0,-240.0,71.0,26.0,66.0,-1.0,1
-9.0,-234.0,66.0,24.0,68.0,-2.0,1
-15.0,-237.0,70.0,20.0,68.0,-3.0,1
-13.0,-240.0,71.0,14.0,67.0,-1.0,1
-13.0,-239.0,71.0,8.0,69.0,-1.0,1
-15.0,-239.0,72.0,1.0,70.0,-2.0,1
-13.0,-244.0,74.0,-5.0,71.0,0.0,1
-16.0,-241.0,72.0,-11.0,73.0,-1.0,1
-14.0,-242.0,70.0,-14.0,74.0,2.0,1
-14.0,-244.0,70.0,-17.0,75.0,2.0,1
-14.0,-246.0,69.0,-17.0,74.0,2.0,1
-13.0,-244.0,71.0,-16.0,76.0,3.0,1
-13.0,-248.0,73.0,-13.0,76.0,3.0,1
-15.0,-245.0,74.0,-9.0,76.0,5.0,1
-15.0,-246.0,72.0,-4.0,74.0,3.0,1
-14.0,-246.0,74.0,0.0,74.0,3.0,1
-15.0,-248.0,72.0,2.0,73.0,4.0,1
-13.0,-245.0,73.0,7.0,71.0,3.0,1
-14.0,-246.0,70.0,7.0,69.0,2.0,1
-15.0,-247.0,71.0,8.0,70.0,1.0,1
-13.0,-245.0,70.0,9.0,66.0,0.0,1
-14.0,-243.0,69.0,8.0,66.0,1.0,1
-15.0,-242.0,71.0,8.0,66.0,-1.0,1
-15.0,-246.0,70.0,7.0,66.0,-1.0,1
-16.0,-242.0,75.0,7.0,68.0,-2.0,1
-16.0,-241.0,71.0,7.0,68.0,-2.0,1
-15.0,-243.0,72.0,6.0,69.0,-2.0,1
-17.0,-242.0,71.0,3.0,69.0,-3.0,1
-15.0,-243.0,79.0,2.0,71.0,-3.0,1
-15.0,-243.0,73.0,1.0,71.0,-3.0,1
-15.0,-243.0,73.0,-3.0,72.0,-3.0,1
-12.0,-246.0,72.0,-5.0,72.0,-3.0,1
-15.0,-242.0,73.0,-6.0,73.0,-2.0,1
-15.0,-242.0,73.0,-8.0,72.0,-2.0,1
-15.0,-244.0,69.0,-10.0,72.0,-2.0,1
-15.0,-246.0,71.0,-11.0,71.0,-2.0,1
-13.0,-245.0,72.0,-12.0,70.0,-2.0,1
-15.0,-246.0,69.0,-11.0,69.0,-1.0,1
-17.0,-247.0,72.0,-10.0,70.0,0.0,1
-14.0,-244.0,70.0,-8.0,69.0,-2.0,1
-14.0,-247.0,73.0,-6.0,68.0,-1.0,1
-13.0,-244.0,73.0,-2.0,68.0,-3.0,1
-14.0,-246.0,72.0,1.0,68.0,-3.0,1
-16.0,-244.0,75.0,2.0,68.0,-4.0,1
-12.0,-245.0,65.0,3.0,66.0,-5.0,1
-17.0,-245.0,76.0,2.0,66.0,-7.0,1
-15.0,-242.0,74.0,0.0,65.0,-8.0,1
-17.0,-242.0,73.0,-5.0,66.0,-8.0,1
-14.0,-243.0,69.0,-9.0,65.0,-11.0,1
-15.0,-245.0,75.0,-12.0,67.0,-12.0,1
-14.0,-241.0,74.0,-16.0,67.0,-12.0,1
-13.0,-243.0,73.0,-18.0,68.0,-12.0,1
-15.0,-243.0,73.0,-19.0,69.0,-12.0,1
-17.0,-244.0,71.0,-18.0,69.0,-13.0,1
-16.0,-242.0,74.0,-17.0,71.0,-11.0,1
-15.0,-244.0,76.0,-16.0,70.0,-10.0,1
-14.0,-244.0,71.0,-15.0,69.0,-9.0,1
-13.0,-244.0,73.0,-13.0,71.0,-8.0,1
-15.0,-242.0,76.0,-11.0,72.0,-8.0,1
-12.0,-244.0,75.0,-8.0,71.0,-8.0,1
-13.0,-244.0,72.0,-6.0,71.0,-7.0,1
-12.0,-244.0,67.0,-4.0,73.0,-8.0,1
-14.0,-242.0,70.0,-2.0,71.0,-7.0,1
-13.0,-246.0,75.0,-1.0,72.0,-6.0,1
-13.0,-247.0,65.0,-1.0,74.0,-6.0,1
-14.0,-242.0,69.0,-1.0,71.0,-7.0,1
-14.0,-247.0,71.0,0.0,73.0,-7.0,1
-15.0,-244.0,71.0,-1.0,72.0,-5.0,1
-14.0,-246.0,71.0,0.0,71.0,-4.0,1
-16.0,-243.0,73.0,1.0,72.0,-3.0,1
-13.0,-244.0,71.0,2.0,71.0,-3.0,1
-12.0,-243.0,73.0,2.0,72.0,-2.0,1
-16.0,-242.0,70.0,4.0,73.0,-2.0,1
-11.0,-245.0,74.0,3.0,73.0,-2.0,1
-15.0,-242.0,74.0,2.0,73.0,-1.0,1
-14.0,-241.0,73.0,0.0,74.0,-1.0,1
-15.0,-243.0,75.0,-2.0,75.0,0.0,1
-16.0,-242.0,75.0,-4.0,75.0,0.0,1
-13.0,-242.0,74.0,-7.0,77.0,1.0,1
-15.0,-243.0,76.0,-8.0,76.0,0.0,1
-14.0,-245.0,74.0,-10.0,76.0,0.0,1
-13.0,-243.0,69.0,-11.0,76.0,1.0,1
-15.0,-242.0,74.0,-11.0,77.0,1.0,1
-13.0,-246.0,75.0,-10.0,78.0,1.0,1
-16.0,-243.0,73.0,-8.0,77.0,2.0,1
-15.0,-245.0,75.0,-5.0,76.0,2.0,1
-15.0,-244.0,73.0,-1.0,76.0,3.0,1
-14.0,-248.0,72.0,3.0,75.0,4.0,1
-18.0,-238.0,69.0,9.0,76.0,4.0,1
-17.0,-245.0,73.0,13.0,76.0,7.0,1
-15.0,-246.0,73.0,18.0,76.0,7.0,1
-13.0,-249.0,76.0,25.0,76.0,7.0,1
-16.0,-246.0,72.0,30.0,76.0,7.0,1
-13.0,-246.0,72.0,34.0,75.0,8.0,1
-16.0,-247.0,74.0,37.0,74.0,8.0,1
-14.0,-245.0,73.0,39.0,71.0,9.0,1
-15.0,-243.0,73.0,42.0,72.0,7.0,1
-14.0,-242.0,74.0,45.0,70.0,6.0,1
-13.0,-245.0,73.0,49.0,71.0,6.0,1
-15.0,-243.0,73.0,50.0,70.0,5.0,1
-15.0,-242.0,73.0,52.0,67.0,7.0,1
-18.0,-244.0,75.0,54.0,69.0,7.0,1
-17.0,-240.0,72.0,54.0,71.0,6.0,1
-15.0,-243.0,75.0,51.0,72.0,5.0,1
-16.0,-241.0,77.0,48.0,72.0,4.0,1
-14.0,-239.0,75.0,43.0,73.0,3.0,1
-15.0,-240.0,74.0,35.0,74.0,2.0,1
-16.0,-237.0,76.0,28.0,72.0,1.0,1
-11.0,-241.0,74.0,23.0,71.0,0.0,1
-15.0,-242.0,76.0,16.0,71.0,0.0,1
-15.0,-237.0,72.0,12.0,70.0,0.0,1
-18.0,-243.0,74.0,9.0,70.0,0.0,1
-14.0,-247.0,75.0,10.0,70.0,0.0,1
-17.0,-246.0,79.0,10.0,70.0,-1.0,1
-15.0,-244.0,73.0,12.0,70.0,0.0,1
-14.0,-245.0,79.0,14.0,70.0,1.0,1
-17.0,-247.0,72.0,16.0,70.0,0.0,1
-16.0,-246.0,75.0,18.0,71.0,0.0,1
-14.0,-247.0,71.0,19.0,71.0,1.0,1
-13.0,-247.0,75.0,23.0,72.0,0.0,1
-14.0,-247.0,73.0,27.0,72.0,1.0,1
-15.0,-244.0,74.0,32.0,71.0,2.0,1
-14.0,-242.0,71.0,34.0,71.0,1.0,1
-15.0,-243.0,73.0,36.0,71.0,1.0,1
-17.0,-243.0,74.0,38.0,70.0,2.0,1
-15.0,-241.0,71.0,39.0,69.0,3.0,1
-14.0,-240.0,73.0,38.0,67.0,2.0,1
-15.0,-240.0,75.0,34.0,67.0,0.0,1
-12.0,-240.0,75.0,31.0,65.0,1.0,1
-15.0,-241.0,73.0,25.0,66.0,2.0,1
-14.0,-241.0,78.0,19.0,69.0,3.0,1
-16.0,-239.0,73.0,14.0,70.0,3.0,1
-19.0,-241.0,74.0,9.0,71.0,4.0,1
-15.0,-242.0,76.0,5.0,72.0,5.0,1
-14.0,-245.0,80.0,1.0,74.0,5.0,1
-14.0,-245.0,76.0,-1.0,75.0,4.0,1
-11.0,-245.0,77.0,-1.0,76.0,4.0,1
-14.0,-242.0,77.0,-1.0,76.0,5.0,1
-13.0,-243.0,77.0,0.0,77.0,3.0,1
-18.0,-242.0,76.0,0.0,75.0,4.0,1
-17.0,-246.0,75.0,1.0,74.0,3.0,1
-14.0,-243.0,76.0,1.0,74.0,1.0,1
-13.0,-244.0,75.0,-1.0,72.0,2.0,1
-17.0,-242.0,78.0,-1.0,70.0,1.0,1
-13.0,-244.0,77.0,-2.0,70.0,0.0,1
-15.0,-243.0,72.0,-3.0,67.0,-1.0,1
-16.0,-242.0,74.0,-2.0,68.0,-1.0,1
-16.0,-242.0,77.0,-3.0,66.0,0.0,1
-14.0,-240.0,78.0,-3.0,67.0,-1.0,1
-14.0,-244.0,79.0,-3.0,68.0,-1.0,1
-16.0,-244.0,75.0,-1.0,67.0,-1.0,1
-14.0,-243.0,74.0,-1.0,68.0,-1.0,1
-12.0,-237.0,76.0,-1.0,68.0,-2.0,1
-14.0,-240.0,78.0,-3.0,69.0,-1.0,1
-16.0,-241.0,74.0,-3.0,70.0,-2.0,1
-16.0,-241.0,70.0,-7.0,70.0,-2.0,1
-16.0,-242.0,77.0,-9.0,70.0,-2.0,1
-18.0,-240.0,77.0,-14.0,71.0,-3.0,1
-14.0,-242.0,78.0,-14.0,69.0,-2.0,1
-13.0,-243.0,77.0,-18.0,71.0,-3.0,1
-15.0,-239.0,78.0,-22.0,70.0,-2.0,1
-15.0,-241.0,73.0,-23.0,71.0,-2.0,1
-17.0,-243.0,73.0,-23.0,70.0,-2.0,1
-13.0,-245.0,82.0,-25.0,70.0,-3.0,1
-13.0,-244.0,76.0,-24.0,70.0,-3.0,1
-16.0,-246.0,73.0,-22.0,70.0,-1.0,1
-17.0,-244.0,76.0,-19.0,70.0,-3.0,1
-13.0,-244.0,75.0,-17.0,70.0,-4.0,1
-16.0,-243.0,75.0,-14.0,71.0,-3.0,1
-20.0,-240.0,76.0,-14.0,71.0,-4.0,1
-15.0,-241.0,80.0,-11.0,69.0,-5.0,1
-17.0,-242.0,73.0,-11.0,69.0,-5.0,1
-13.0,-243.0,76.0,-11.0,70.0,-6.0,1
-17.0,-244.0,76.0,-12.0,69.0,-5.0,1
-13.0,-243.0,75.0,-11.0,70.0,-6.0,1
-13.0,-243.0,73.0,-13.0,69.0,-7.0,1
-15.0,-240.0,78.0,-14.0,67.0,-8.0,1
-11.0,-242.0,82.0,-15.0,68.0,-6.0,1
-14.0,-243.0,76.0,-16.0,68.0,-7.0,1
-19.0,-239.0,75.0,-17.0,70.0,-5.0,1
-14.0,-243.0,75.0,-18.0,70.0,-4.0,1
-14.0,-245.0,80.0,-18.0,71.0,-2.0,1
-14.0,-239.0,75.0,-19.0,71.0,-2.0,1
-14.0,-245.0,79.0,-18.0,71.0,-1.0,1
-16.0,-242.0,76.0,-19.0,72.0,-1.0,1
-16.0,-243.0,81.0,-19.0,72.0,-1.0,1
-14.0,-246.0,76.0,-20.0,73.0,0.0,1
-13.0,-242.0,78.0,-20.0,72.0,-1.0,1
-17.0,-244.0,74.0,-22.0,71.0,0.0,1
-15.0,-240.0,77.0,-22.0,71.0,-3.0,1
-17.0,-243.0,73.0,-22.0,71.0,-3.0,1
-16.0,-244.0,74.0,-22.0,70.0,-2.0,1
-14.0,-246.0,77.0,-22.0,70.0,-5.0,1
-15.0,-242.0,76.0,-20.0,70.0,-5.0,1
-15.0,-243.0,75.0,-18.0,69.0,-7.0,1
-14.0,-243.0,74.0,-18.0,68.0,-7.0,1
-15.0,-242.0,76.0,-18.0,68.0,-6.0,1
-15.0,-242.0,73.0,-15.0,70.0,-5.0,1
-14.0,-243.0,77.0,-15.0,69.0,-5.0,1
-17.0,-243.0,77.0,-13.0,69.0,-4.0,1
-16.0,-243.0,76.0,-13.0,68.0,-3.0,1
-14.0,-245.0,76.0,-12.0,68.0,-4.0,1
-18.0,-244.0,70.0,-11.0,68.0,-4.0,1
-16.0,-243.0,77.0,-13.0,69.0,-2.0,1
-16.0,-240.0,74.0,-14.0,69.0,-3.0,1
-13.0,-247.0,72.0,-14.0,69.0,-2.0,1
-14.0,-244.0,74.0,-14.0,69.0,-3.0,1
-16.0,-244.0,75.0,-15.0,70.0,-4.0,1
-16.0,-240.0,72.0,-15.0,70.0,-4.0,1
-16.0,-242.0,78.0,-17.0,71.0,-5.0,1
-14.0,-243.0,75.0,-19.0,72.0,-4.0,1
-12.0,-242.0,74.0,-19.0,70.0,-4.0,1
-12.0,-244.0,78.0,-19.0,72.0,-4.0,1
-13.0,-243.0,77.0,-19.0,71.0,-5.0,1
-18.0,-243.0,74.0,-20.0,71.0,-5.0,1
-16.0,-242.0,76.0,-19.0,72.0,-3.0,1
-11.0,-244.0,75.0,-18.0,72.0,-5.0,1
-14.0,-242.0,75.0,-17.0,72.0,-6.0,1
-13.0,-242.0,73.0,-17.0,73.0,-5.0,1
-13.0,-243.0,75.0,-16.0,74.0,-4.0,1
-15.0,-242.0,76.0,-15.0,72.0,-5.0,1
-15.0,-245.0,73.0,-13.0,71.0,-5.0,1
-13.0,-246.0,75.0,-14.0,70.0,-5.0,1
-12.0,-246.0,77.0,-13.0,70.0,-5.0,1
-14.0,-244.0,77.0,-13.0,70.0,-5.0,1
-14.0,-245.0,74.0,-11.0,68.0,-5.0,1
-15.0,-242.0,75.0,-12.0,69.0,-6.0,1
-14.0,-244.0,74.0,-12.0,69.0,-6.0,1
-16.0,-243.0,75.0,-11.0,70.0,-5.0,1
-14.0,-244.0,77.0,-11.0,68.0,-2.0,1
-14.0,-245.0,77.0,-13.0,69.0,-2.0,1
-14.0,-240.0,75.0,-15.0,68.0,-3.0,1
-15.0,-242.0,78.0,-18.0,68.0,-3.0,1
-17.0,-245.0,79.0,-19.0,69.0,-4.0,1
-15.0,-243.0,77.0,-19.0,69.0,-4.0,1
-17.0,-244.0,76.0,-18.0,69.0,-5.0,1
-16.0,-242.0,76.0,-18.0,69.0,-5.0,1
-14.0,-242.0,77.0,-16.0,68.0,-3.0,1
-15.0,-246.0,79.0,-13.0,67.0,-3.0,1
-15.0,-243.0,75.0,-10.0,66.0,-3.0,1
-16.0,-244.0,71.0,-9.0,67.0,-3.0,1
-15.0,-243.0,78.0,-9.0,68.0,-3.0,1
-16.0,-244.0,74.0,-11.0,69.0,-5.0,1
-15.0,-244.0,74.0,-16.0,68.0,-5.0,1
-14.0,-240.0,78.0,-20.0,67.0,-6.0,1
-14.0,-241.0,75.0,-23.0,67.0,-7.0,1
-13.0,-243.0,72.0,-24.0,68.0,-5.0,1
-14.0,-244.0,75.0,-24.0,67.0,-6.0,1
-13.0,-243.0,80.0,-23.0,66.0,-5.0,1
-15.0,-247.0,79.0,-19.0,67.0,-3.0,1
-10.0,-244.0,75.0,-15.0,65.0,-3.0,1
-16.0,-246.0,75.0,-14.0,65.0,-4.0,1
-15.0,-245.0,77.0,-12.0,66.0,-4.0,1
-16.0,-246.0,74.0,-12.0,65.0,-3.0,1
-14.0,-242.0,74.0,-12.0,66.0,-5.0,1
-16.0,-243.0,75.0,-11.0,66.0,-5.0,1
-16.0,-243.0,79.0,-9.0,68.0,-5.0,1
-17.0,-245.0,72.0,-6.0,68.0,-7.0,1
-15.0,-244.0,70.0,-3.0,68.0,-5.0,1
-15.0,-245.0,73.0,0.0,69.0,-6.0,1
-15.0,-238.0,74.0,1.0,67.0,-7.0,1
-17.0,-238.0,69.0,1.0,66.0,-7.0,1
-10.0,-236.0,77.0,1.0,64.0,-8.0,1
-17.0,-242.0,75.0,-1.0,62.0,-8.0,1
-18.0,-239.0,77.0,-3.0,60.0,-7.0,1
-14.0,-241.0,74.0,-7.0,60.0,-7.0,1
-15.0,-239.0,72.0,-14.0,62.0,-6.0,1
-16.0,-243.0,76.0,-19.0,63.0,-6.0,1
-17.0,-239.0,74.0,-26.0,64.0,-8.0,1
-15.0,-243.0,78.0,-30.0,67.0,-7.0,1
-15.0,-243.0,80.0,-35.0,70.0,-7.0,1
-18.0,-241.0,79.0,-38.0,70.0,-5.0,1
-16.0,-244.0,78.0,-40.0,71.0,-5.0,1
-15.0,-245.0,80.0,-40.0,73.0,-6.0,1
-15.0,-243.0,78.0,-40.0,72.0,-6.0,1
-14.0,-245.0,75.0,-39.0,72.0,-5.0,1
-12.0,-244.0,76.0,-38.0,70.0,-6.0,1
-13.0,-243.0,78.0,-38.0,71.0,-6.0,1
-16.0,-243.0,75.0,-39.0,70.0,-7.0,1
-18.0,-242.0,75.0,-40.0,68.0,-7.0,1
-13.0,-243.0,76.0,-41.0,67.0,-8.0,1
-17.0,-242.0,71.0,-41.0,65.0,-8.0,1
-11.0,-243.0,74.0,-42.0,63.0,-9.0,1
-16.0,-242.0,76.0,-41.0,63.0,-9.0,1
-15.0,-242.0,76.0,-40.0,62.0,-8.0,1
-15.0,-245.0,74.0,-38.0,62.0,-7.0,1
-12.0,-242.0,71.0,-34.0,62.0,-7.0,1
-13.0,-244.0,75.0,-31.0,62.0,-6.0,1
-15.0,-246.0,76.0,-26.0,63.0,-6.0,1
-15.0,-245.0,73.0,-24.0,64.0,-7.0,1
-12.0,-242.0,73.0,-22.0,64.0,-6.0,1
-16.0,-243.0,70.0,-22.0,64.0,-5.0,1
-13.0,-244.0,74.0,-22.0,66.0,-6.0,1
-15.0,-242.0,72.0,-24.0,65.0,-7.0,1
-13.0,-241.0,71.0,-27.0,66.0,-8.0,1
-12.0,-243.0,78.0,-29.0,66.0,-8.0,1
-17.0,-243.0,73.0,-32.0,65.0,-7.0,1
-15.0,-242.0,73.0,-34.0,64.0,-8.0,1
-18.0,-241.0,75.0,-33.0,64.0,-9.0,1
-15.0,-245.0,79.0,-32.0,65.0,-9.0,1
-16.0,-245.0,74.0,-33.0,65.0,-8.0,1
-12.0,-244.0,74.0,-33.0,65.0,-8.0,1
-14.0,-245.0,72.0,-33.0,64.0,-9.0,1
-15.0,-247.0,75.0,-33.0,64.0,-9.0,1
-15.0,-246.0,76.0,-30.0,67.0,-10.0,1
-15.0,-245.0,75.0,-31.0,68.0,-12.0,1
-14.0,-247.0,73.0,-28.0,68.0,-12.0,1
-14.0,-246.0,74.0,-28.0,70.0,-12.0,1
-14.0,-245.0,70.0,-25.0,69.0,-14.0,1
-14.0,-245.0,69.0,-23.0,68.0,-15.0,1
-14.0,-245.0,74.0,-21.0,67.0,-16.0,1
-15.0,-246.0,72.0,-17.0,68.0,-17.0,1
-17.0,-243.0,77.0,-14.0,67.0,-18.0,1
-17.0,-245.0,76.0,-9.0,67.0,-18.0,1
-15.0,-246.0,75.0,-4.0,65.0,-18.0,1
-13.0,-243.0,73.0,2.0,65.0,-16.0,1
-15.0,-242.0,75.0,7.0,65.0,-16.0,1
-18.0,-239.0,76.0,9.0,64.0,-15.0,1
-15.0,-244.0,73.0,8.0,65.0,-14.0,1
-14.0,-240.0,73.0,7.0,65.0,-15.0,1
-14.0,-239.0,74.0,3.0,67.0,-13.0,1
-13.0,-239.0,76.0,1.0,68.0,-13.0,1
-14.0,-240.0,74.0,-4.0,71.0,-12.0,1
-15.0,-242.0,74.0,-9.0,70.0,-13.0,1
-15.0,-242.0,74.0,-13.0,72.0,-13.0,1
-15.0,-244.0,72.0,-17.0,73.0,-12.0,1
-14.0,-243.0,71.0,-20.0,70.0,-13.0,1
-15.0,-243.0,79.0,-23.0,71.0,-14.0,1
-15.0,-240.0,76.0,-25.0,69.0,-15.0,1
-16.0,-242.0,77.0,-28.0,68.0,-15.0,1
-14.0,-244.0,74.0,-30.0,65.0,-15.0,1
-13.0,-244.0,74.0,-29.0,65.0,-15.0,1
-10.0,-245.0,72.0,-29.0,63.0,-16.0,1
-12.0,-246.0,72.0,-28.0,60.0,-15.0,1
-14.0,-245.0,75.0,-25.0,60.0,-16.0,1
-15.0,-244.0,77.0,-21.0,58.0,-17.0,1
-13.0,-248.0,75.0,-16.0,58.0,-14.0,1
-14.0,-245.0,75.0,-13.0,57.0,-14.0,1
-12.0,-246.0,78.0,-9.0,58.0,-13.0,1
-13.0,-244.0,75.0,-5.0,58.0,-12.0,1
-12.0,-243.0,74.0,-1.0,58.0,-10.0,1
-14.0,-244.0,73.0,-1.0,59.0,-11.0,1
-13.0,-241.0,75.0,2.0,60.0,-10.0,1
-15.0,-243.0,74.0,1.0,62.0,-10.0,1
-15.0,-241.0,73.0,0.0,61.0,-9.0,1
-9.0,-242.0,74.0,-2.0,62.0,-9.0,1
-14.0,-244.0,76.0,-4.0,62.0,-9.0,1
-11.0,-245.0,75.0,-5.0,63.0,-8.0,1
-15.0,-242.0,76.0,-7.0,63.0,-6.0,1
-10.0,-242.0,71.0,-7.0,65.0,-7.0,1
-11.0,-239.0,72.0,-9.0,64.0,-8.0,1
-17.0,-243.0,75.0,-12.0,66.0,-8.0,1
-12.0,-243.0,74.0,-13.0,66.0,-9.0,1
-13.0,-242.0,71.0,-16.0,68.0,-10.0,1
-14.0,-242.0,72.0,-16.0,67.0,-10.0,1
-14.0,-242.0,73.0,-21.0,67.0,-11.0,1
-10.0,-242.0,70.0,-24.0,68.0,-11.0,1
-12.0,-241.0,73.0,-26.0,68.0,-10.0,1
-16.0,-243.0,75.0,-27.0,67.0,-11.0,1
-15.0,-242.0,72.0,-27.0,66.0,-10.0,1
-16.0,-244.0,71.0,-28.0,65.0,-10.0,1
-15.0,-243.0,74.0,-27.0,64.0,-10.0,1
-17.0,-241.0,72.0,-26.0,63.0,-10.0,1
-14.0,-243.0,74.0,-23.0,63.0,-11.0,1
-15.0,-244.0,74.0,-23.0,63.0,-10.0,1
-15.0,-244.0,74.0,-21.0,64.0,-8.0,1
-12.0,-244.0,74.0,-18.0,64.0,-8.0,1
-14.0,-246.0,76.0,-15.0,65.0,-7.0,1
-14.0,-246.0,74.0,-11.0,66.0,-5.0,1
-14.0,-244.0,74.0,-8.0,66.0,-5.0,1
-12.0,-243.0,74.0,-5.0,67.0,-5.0,1
-18.0,-246.0,78.0,-3.0,67.0,-3.0,1
-13.0,-247.0,73.0,-1.0,68.0,-6.0,1
-14.0,-244.0,74.0,1.0,67.0,-6.0,1
-14.0,-244.0,75.0,2.0,67.0,-5.0,1
-12.0,-244.0,77.0,3.0,66.0,-4.0,1
-14.0,-244.0,78.0,1.0,67.0,-7.0,1
-12.0,-246.0,73.0,1.0,67.0,-7.0,1
-15.0,-244.0,73.0,0.0,67.0,-6.0,1
-13.0,-245.0,74.0,-2.0,68.0,-4.0,1
-15.0,-243.0,72.0,-5.0,68.0,-4.0,1
-15.0,-244.0,73.0,-7.0,67.0,-4.0,1
-11.0,-245.0,75.0,-11.0,67.0,-6.0,1
-13.0,-241.0,76.0,-11.0,68.0,-6.0,1
-10.0,-243.0,72.0,-13.0,68.0,-5.0,1
-12.0,-240.0,71.0,-13.0,67.0,-6.0,1
-12.0,-241.0,74.0,-14.0,68.0,-6.0,1
-13.0,-239.0,74.0,-15.0,66.0,-5.0,1
-11.0,-244.0,76.0,-13.0,66.0,-5.0,1
-14.0,-245.0,75.0,-10.0,68.0,-3.0,1
-14.0,-243.0,75.0,-5.0,67.0,-2.0,1
-13.0,-244.0,75.0,-5.0,65.0,-1.0,1
-12.0,-245.0,76.0,-4.0,66.0,0.0,1
-15.0,-241.0,72.0,-4.0,67.0,-1.0,1
-13.0,-244.0,72.0,-7.0,70.0,-1.0,1
-17.0,-243.0,76.0,-8.0,71.0,-3.0,1
-14.0,-244.0,74.0,-9.0,70.0,-3.0,1
-14.0,-242.0,75.0,-10.0,72.0,-4.0,1
-15.0,-243.0,73.0,-11.0,70.0,-8.0,1
-16.0,-242.0,72.0,-11.0,69.0,-8.0,1
-15.0,-241.0,72.0,-9.0,69.0,-9.0,1
-15.0,-242.0,75.0,-7.0,67.0,-10.0,1
-15.0,-243.0,70.0,-6.0,66.0,-11.0,1
-12.0,-242.0,72.0,-6.0,63.0,-10.0,1
-18.0,-240.0,77.0,-6.0,63.0,-11.0,1
-12.0,-241.0,74.0,-10.0,63.0,-10.0,1
-10.0,-242.0,75.0,-14.0,65.0,-8.0,1
-15.0,-240.0,73.0,-21.0,67.0,-6.0,1
-14.0,-243.0,77.0,-26.0,68.0,-6.0,1
-12.0,-242.0,73.0,-28.0,68.0,-6.0,1
-12.0,-245.0,78.0,-31.0,73.0,-4.0,1
-12.0,-244.0,75.0,-32.0,74.0,-5.0,1
-12.0,-244.0,77.0,-30.0,75.0,-5.0,1
-13.0,-241.0,78.0,-29.0,76.0,-3.0,1
-17.0,-245.0,82.0,-29.0,76.0,-4.0,1
-13.0,-246.0,76.0,-29.0,75.0,-1.0,1
-15.0,-243.0,76.0,-28.0,74.0,-3.0,1
-11.0,-242.0,77.0,-27.0,71.0,-2.0,1
-12.0,-244.0,73.0,-30.0,68.0,-2.0,1
-15.0,-242.0,77.0,-35.0,66.0,-1.0,1
-16.0,-241.0,74.0,-40.0,63.0,-4.0,1
-13.0,-244.0,71.0,-42.0,62.0,-4.0,1
-14.0,-244.0,72.0,-44.0,61.0,-5.0,1
-14.0,-245.0,73.0,-44.0,61.0,-6.0,1
-14.0,-243.0,73.0,-44.0,57.0,-7.0,1
-13.0,-243.0,75.0,-44.0,57.0,-6.0,1
-16.0,-246.0,74.0,-43.0,56.0,-8.0,1
-14.0,-243.0,74.0,-42.0,56.0,-10.0,1
-14.0,-240.0,76.0,-41.0,59.0,-10.0,1
-13.0,-244.0,71.0,-40.0,61.0,-11.0,1
-12.0,-241.0,70.0,-42.0,61.0,-9.0,1
-12.0,-246.0,73.0,-42.0,60.0,-10.0,1
-13.0,-242.0,74.0,-44.0,63.0,-11.0,1
-10.0,-245.0,74.0,-45.0,63.0,-10.0,1
-15.0,-242.0,74.0,-44.0,64.0,-8.0,1
-15.0,-242.0,72.0,-46.0,65.0,-9.0,1
-12.0,-244.0,74.0,-48.0,66.0,-8.0,1
-7.0,-250.0,74.0,-52.0,66.0,-7.0,1
-12.0,-244.0,72.0,-55.0,65.0,-8.0,1
-14.0,-243.0,71.0,-60.0,64.0,-7.0,1
-16.0,-243.0,76.0,-59.0,65.0,-7.0,1
-12.0,-244.0,74.0,-57.0,66.0,-7.0,1
-11.0,-246.0,73.0,-56.0,66.0,-7.0,1
-13.0,-246.0,73.0,-52.0,66.0,-7.0,1
-15.0,-243.0,73.0,-49.0,65.0,-7.0,1
-14.0,-246.0,77.0,-46.0,63.0,-6.0,1
-13.0,-243.0,77.0,-44.0,63.0,-7.0,1
-12.0,-245.0,74.0,-40.0,63.0,-7.0,1
-16.0,-242.0,70.0,-40.0,63.0,-8.0,1
-15.0,-244.0,74.0,-39.0,63.0,-8.0,1
-13.0,-245.0,71.0,-41.0,63.0,-8.0,1
-14.0,-243.0,73.0,-42.0,64.0,-9.0,1
-16.0,-240.0,73.0,-43.0,64.0,-10.0,1
-14.0,-244.0,71.0,-42.0,64.0,-8.0,1
-13.0,-243.0,72.0,-43.0,65.0,-9.0,1
-12.0,-245.0,70.0,-41.0,66.0,-7.0,1
-14.0,-244.0,74.0,-37.0,67.0,-6.0,1
-15.0,-244.0,75.0,-34.0,68.0,-5.0,1
-19.0,-246.0,69.0,-29.0,69.0,-5.0,1
-15.0,-244.0,70.0,-23.0,70.0,-3.0,1
-14.0,-244.0,68.0,-18.0,70.0,-2.0,1
-12.0,-244.0,72.0,-15.0,71.0,-1.0,1
-12.0,-244.0,74.0,-10.0,71.0,-2.0,1
-11.0,-246.0,72.0,-7.0,71.0,0.0,1
-11.0,-244.0,74.0,-5.0,69.0,0.0,1
-13.0,-243.0,69.0,-2.0,69.0,1.0,1
-12.0,-245.0,69.0,1.0,70.0,1.0,1
-12.0,-243.0,70.0,2.0,70.0,1.0,1
-12.0,-245.0,70.0,4.0,70.0,0.0,1
-14.0,-246.0,71.0,6.0,72.0,0.0,1
-13.0,-244.0,70.0,9.0,72.0,1.0,1
-14.0,-247.0,71.0,12.0,72.0,1.0,1
-14.0,-242.0,72.0,14.0,70.0,2.0,1
-14.0,-242.0,73.0,16.0,68.0,2.0,1
-11.0,-244.0,74.0,16.0,69.0,0.0,1
-14.0,-239.0,72.0,17.0,70.0,0.0,1
-14.0,-242.0,71.0,16.0,71.0,-1.0,1
-16.0,-241.0,73.0,15.0,70.0,-1.0,1
-13.0,-242.0,72.0,14.0,71.0,-1.0,1
-15.0,-241.0,73.0,13.0,70.0,-1.0,1
-9.0,-245.0,77.0,10.0,71.0,-1.0,1
-13.0,-242.0,73.0,5.0,70.0,-2.0,1
-16.0,-243.0,72.0,1.0,70.0,-2.0,1
-12.0,-246.0,72.0,-2.0,69.0,-2.0,1
-18.0,-243.0,76.0,-4.0,69.0,-2.0,1
-14.0,-245.0,77.0,-7.0,68.0,-1.0,1
-12.0,-243.0,77.0,-7.0,68.0,-3.0,1
-14.0,-245.0,72.0,-7.0,69.0,-2.0,1
-14.0,-244.0,74.0,-7.0,69.0,0.0,1
-12.0,-246.0,72.0,-9.0,67.0,-1.0,1
-12.0,-248.0,74.0,-9.0,66.0,-3.0,1
-13.0,-247.0,71.0,-10.0,68.0,-4.0,1
-15.0,-244.0,72.0,-9.0,67.0,-4.0,1
-14.0,-243.0,73.0,-10.0,67.0,-3.0,1
-15.0,-243.0,71.0,-11.0,68.0,-3.0,1
-15.0,-242.0,74.0,-10.0,66.0,-3.0,1
-14.0,-244.0,78.0,-10.0,68.0,-4.0,1
-12.0,-243.0,73.0,-10.0,69.0,-3.0,1
-14.0,-241.0,75.0,-10.0,69.0,-4.0,1
-12.0,-243.0,74.0,-9.0,70.0,-5.0,1
-13.0,-246.0,74.0,-9.0,72.0,-4.0,1
-19.0,-237.0,73.0,-10.0,74.0,-4.0,1
-13.0,-244.0,72.0,-12.0,73.0,-2.0,1
-11.0,-245.0,74.0,-12.0,73.0,-3.0,1
-12.0,-247.0,73.0,-14.0,72.0,-2.0,1
-15.0,-244.0,71.0,-14.0,72.0,-3.0,1
-13.0,-243.0,73.0,-15.0,72.0,-4.0,1
-12.0,-243.0,73.0,-16.0,71.0,-2.0,1
-13.0,-247.0,72.0,-14.0,71.0,-3.0,1
-13.0,-243.0,69.0,-14.0,70.0,-2.0,1
-14.0,-243.0,71.0,-13.0,70.0,-1.0,1
-14.0,-246.0,72.0,-10.0,67.0,-4.0,1
-13.0,-247.0,73.0,-7.0,68.0,-4.0,1
-15.0,-244.0,70.0,-5.0,69.0,-5.0,1
-13.0,-244.0,70.0,-3.0,67.0,-5.0,1
-12.0,-246.0,72.0,-6.0,66.0,-5.0,1
-13.0,-243.0,74.0,-8.0,64.0,-9.0,1
-13.0,-245.0,74.0,-10.0,63.0,-12.0,1
-11.0,-242.0,73.0,-11.0,63.0,-14.0,1
-15.0,-242.0,76.0,-10.0,61.0,-15.0,1
-13.0,-242.0,72.0,-12.0,63.0,-16.0,1
-9.0,-243.0,74.0,-12.0,61.0,-17.0,1
-10.0,-242.0,77.0,-14.0,58.0,-18.0,1
-12.0,-243.0,74.0,-12.0,58.0,-16.0,1
-13.0,-244.0,75.0,-6.0,59.0,-17.0,1
-13.0,-247.0,74.0,0.0,59.0,-17.0,1
-15.0,-245.0,76.0,4.0,61.0,-19.0,1
-14.0,-242.0,70.0,2.0,62.0,-20.0,1
-13.0,-243.0,70.0,-3.0,62.0,-21.0,1
-9.0,-244.0,73.0,-8.0,64.0,-22.0,1
-13.0,-242.0,73.0,-15.0,64.0,-22.0,1
-14.0,-244.0,71.0,-20.0,65.0,-24.0,1
-13.0,-244.0,68.0,-21.0,65.0,-25.0,1
-13.0,-243.0,66.0,-21.0,63.0,-25.0,1
-11.0,-241.0,69.0,-18.0,61.0,-25.0,1
-13.0,-245.0,66.0,-15.0,57.0,-28.0,1
-9.0,-243.0,68.0,-12.0,56.0,-28.0,1
-15.0,-240.0,71.0,-9.0,54.0,-28.0,1
-16.0,-241.0,67.0,-6.0,55.0,-26.0,1
-12.0,-241.0,65.0,-2.0,57.0,-22.0,1
-14.0,-247.0,67.0,2.0,61.0,-17.0,1
-14.0,-248.0,67.0,5.0,64.0,-11.0,1
-14.0,-246.0,67.0,8.0,70.0,-3.0,1
-14.0,-248.0,67.0,12.0,77.0,3.0,1
-13.0,-250.0,72.0,21.0,84.0,12.0,1
-11.0,-255.0,51.0,33.0,88.0,19.0,1
-8.0,-253.0,82.0,49.0,94.0,24.0,1
-23.0,-252.0,81.0,70.0,96.0,29.0,1
-8.0,-236.0,74.0,93.0,97.0,31.0,1
-16.0,-251.0,80.0,117.0,96.0,33.0,1
-5.0,-258.0,69.0,137.0,91.0,34.0,1
9.0,-242.0,85.0,150.0,85.0,37.0,1
-21.0,-238.0,82.0,161.0,80.0,36.0,1
-19.0,-251.0,83.0,168.0,74.0,36.0,1
-10.0,-237.0,92.0,171.0,68.0,34.0,1
-8.0,-247.0,75.0,170.0,64.0,30.0,1
-13.0,-245.0,81.0,163.0,57.0,25.0,1
-10.0,-243.0,78.0,150.0,50.0,18.0,1
-8.0,-242.0,74.0,131.0,46.0,11.0,1
-10.0,-234.0,68.0,109.0,43.0,3.0,1
-16.0,-242.0,77.0,87.0,43.0,-3.0,1
-5.0,-247.0,82.0,61.0,46.0,-9.0,1
-15.0,-229.0,89.0,34.0,51.0,-12.0,1
-15.0,-231.0,72.0,8.0,57.0,-16.0,1
-18.0,-234.0,74.0,-17.0,64.0,-20.0,1
-18.0,-231.0,84.0,-41.0,69.0,-24.0,1
-34.0,-220.0,77.0,-63.0,70.0,-25.0,1
-23.0,-225.0,80.0,-76.0,69.0,-25.0,1
-27.0,-216.0,84.0,-83.0,64.0,-22.0,1
-9.0,-238.0,89.0,-87.0,60.0,-20.0,1
-22.0,-224.0,86.0,-92.0,54.0,-16.0,1
-17.0,-222.0,79.0,-108.0,51.0,-12.0,1
-16.0,-221.0,82.0,-127.0,45.0,-9.0,1
-20.0,-216.0,78.0,-147.0,42.0,-7.0,1
-17.0,-220.0,87.0,-170.0,40.0,-5.0,1
-18.0,-211.0,64.0,-200.0,42.0,-5.0,1
-14.0,-218.0,61.0,-237.0,50.0,-7.0,1
-20.0,-216.0,64.0,-289.0,62.0,-11.0,1
-23.0,-215.0,53.0,-345.0,74.0,-20.0,1
-20.0,-220.0,46.0,-410.0,94.0,-26.0,1
-19.0,-225.0,51.0,-476.0,112.0,-33.0,1
-19.0,-224.0,54.0,-542.0,122.0,-43.0,1
-21.0,-227.0,55.0,-609.0,135.0,-52.0,1
-27.0,-240.0,64.0,-668.0,150.0,-53.0,1
-28.0,-243.0,68.0,-670.0,135.0,-56.0,1
-13.0,-258.0,94.0,-641.0,108.0,-60.0,1
-24.0,-247.0,69.0,-596.0,86.0,-64.0,1
-22.0,-247.0,70.0,-555.0,62.0,-69.0,1
-21.0,-242.0,70.0,-521.0,41.0,-71.0,1
-23.0,-237.0,71.0,-495.0,27.0,-70.0,1
-29.0,-252.0,69.0,-467.0,15.0,-66.0,1
-10.0,-246.0,67.0,-440.0,4.0,-60.0,1
-7.0,-241.0,65.0,-421.0,0.0,-55.0,1
-10.0,-261.0,62.0,-404.0,-3.0,-50.0,1
-7.0,-252.0,50.0,-396.0,-2.0,-48.0,1
-2.0,-265.0,42.0,-394.0,2.0,-45.0,1
-6.0,-249.0,41.0,-394.0,6.0,-46.0,1
-4.0,-258.0,59.0,-400.0,7.0,-49.0,1
-8.0,-259.0,60.0,-409.0,6.0,-55.0,1
16.0,-256.0,77.0,-420.0,8.0,-62.0,1
1.0,-251.0,60.0,-433.0,8.0,-68.0,1
0.0,-254.0,60.0,-451.0,9.0,-76.0,1
0.0,-251.0,60.0,-471.0,12.0,-79.0,1
0.0,-249.0,61.0,-493.0,13.0,-82.0,1
0.0,-250.0,61.0,-518.0,12.0,-89.0,1
4.0,-253.0,59.0,-543.0,9.0,-94.0,1
0.0,-245.0,61.0,-572.0,2.0,-99.0,1
-14.0,-245.0,67.0,-589.0,3.0,-99.0,1
0.0,-247.0,71.0,-597.0,10.0,-97.0,1
2.0,-249.0,68.0,-603.0,14.0,-96.0,1
-1.0,-245.0,62.0,-608.0,18.0,-97.0,1
0.0,-242.0,54.0,-615.0,20.0,-92.0,1
-7.0,-249.0,56.0,-623.0,18.0,-91.0,1
-16.0,-245.0,58.0,-634.0,19.0,-90.0,1
-18.0,-237.0,52.0,-649.0,11.0,-86.0,1
5.0,-232.0,47.0,-665.0,-5.0,-80.0,1
2.0,-246.0,46.0,-697.0,16.0,-94.0,1
0.0,-247.0,45.0,-739.0,28.0,-98.0,1
-1.0,-241.0,45.0,-772.0,27.0,-93.0,1
1.0,-241.0,48.0,-804.0,30.0,-92.0,1
15.0,-248.0,48.0,-830.0,44.0,-95.0,1
-6.0,-244.0,51.0,-863.0,58.0,-101.0,1
18.0,-254.0,61.0,-898.0,53.0,-92.0,1
-2.0,-245.0,37.0,-939.0,63.0,-92.0,1
-2.0,-249.0,41.0,-966.0,74.0,-92.0,1
-3.0,-241.0,55.0,-980.0,79.0,-88.0,1
2.0,-248.0,53.0,-986.0,85.0,-87.0,1
0.0,-252.0,34.0,-999.0,96.0,-92.0,1
-14.0,-264.0,37.0,-1015.0,101.0,-91.0,1
11.0,-258.0,14.0,-1032.0,108.0,-98.0,1
-11.0,-270.0,28.0,-1050.0,119.0,-104.0,1
-5.0,-255.0,26.0,-1065.0,122.0,-102.0,1
-15.0,-253.0,24.0,-1082.0,136.0,-107.0,1
-13.0,-252.0,16.0,-1103.0,138.0,-109.0,1
-14.0,-251.0,18.0,-1141.0,131.0,-112.0,1
5.0,-250.0,14.0,-1166.0,139.0,-110.0,1
-18.0,-256.0,20.0,-1175.0,152.0,-105.0,1
-11.0,-251.0,12.0,-1188.0,157.0,-97.0,1
-5.0,-251.0,12.0,-1208.0,157.0,-101.0,1
-6.0,-253.0,13.0,-1234.0,158.0,-104.0,1
-10.0,-258.0,11.0,-1258.0,157.0,-99.0,1
-12.0,-263.0,11.0,-1267.0,156.0,-98.0,1
-13.0,-261.0,11.0,-1259.0,161.0,-93.0,1
-7.0,-260.0,12.0,-1252.0,159.0,-87.0,1
-10.0,-253.0,9.0,-1261.0,155.0,-84.0,1
-4.0,-254.0,9.0,-1269.0,159.0,-77.0,1
-7.0,-252.0,6.0,-1262.0,178.0,-57.0,1
-10.0,-250.0,3.0,-1258.0,190.0,-45.0,1
-4.0,-249.0,4.0,-1270.0,194.0,-37.0,1
-11.0,-240.0,2.0,-1290.0,193.0,-34.0,1
-6.0,-245.0,1.0,-1313.0,185.0,-33.0,1
-5.0,-249.0,1.0,-1336.0,179.0,-34.0,1
-7.0,-246.0,0.0,-1359.0,170.0,-37.0,1
-2.0,-248.0,-8.0,-1380.0,164.0,-42.0,1
-5.0,-247.0,-1.0,-1400.0,160.0,-44.0,1
-2.0,-249.0,-5.0,-1416.0,159.0,-48.0,1
-8.0,-248.0,-9.0,-1431.0,157.0,-54.0,1
-8.0,-250.0,-12.0,-1444.0,156.0,-59.0,1
-4.0,-253.0,-13.0,-1451.0,156.0,-63.0,1
-4.0,-252.0,-9.0,-1457.0,153.0,-69.0,1
-7.0,-256.0,-11.0,-1458.0,154.0,-76.0,1
0.0,-256.0,-13.0,-1461.0,154.0,-82.0,1
-2.0,-259.0,-11.0,-1461.0,160.0,-89.0,1
0.0,-259.0,-17.0,-1466.0,167.0,-95.0,1
2.0,-259.0,-17.0,-1473.0,172.0,-100.0,1
2.0,-258.0,-20.0,-1479.0,174.0,-108.0,1
-2.0,-253.0,-25.0,-1490.0,173.0,-114.0,1
1.0,-253.0,-29.0,-1501.0,175.0,-120.0,1
1.0,-252.0,-33.0,-1522.0,176.0,-123.0,1
1.0,-248.0,-38.0,-1547.0,177.0,-128.0,1
0.0,-246.0,-42.0,-1572.0,180.0,-128.0,1
-2.0,-245.0,-47.0,-1603.0,185.0,-125.0,1
0.0,-244.0,-51.0,-1642.0,189.0,-124.0,1
-2.0,-242.0,-52.0,-1684.0,190.0,-122.0,1
-1.0,-239.0,-56.0,-1731.0,190.0,-120.0,1
-2.0,-237.0,-55.0,-1782.0,187.0,-112.0,1
-3.0,-240.0,-59.0,-1832.0,179.0,-101.0,1
-4.0,-240.0,-58.0,-1880.0,172.0,-89.0,1
-6.0,-240.0,-63.0,-1926.0,164.0,-83.0,1
-5.0,-239.0,-66.0,-1968.0,158.0,-80.0,1
-2.0,-238.0,-71.0,-2010.0,151.0,-75.0,1
-2.0,-238.0,-72.0,-2048.0,145.0,-71.0,1
-7.0,-234.0,-74.0,-2087.0,143.0,-75.0,1
-6.0,-235.0,-76.0,-2137.0,138.0,-79.0,1
-5.0,-236.0,-78.0,-2190.0,133.0,-80.0,1
-5.0,-237.0,-82.0,-2232.0,134.0,-84.0,1
-3.0,-234.0,-87.0,-2263.0,143.0,-86.0,1
-1.0,-231.0,-87.0,-2286.0,158.0,-81.0,1
0.0,-232.0,-90.0,-2304.0,172.0,-76.0,1
2.0,-233.0,-95.0,-2317.0,177.0,-78.0,1
2.0,-226.0,-100.0,-2335.0,190.0,-80.0,1
1.0,-224.0,-103.0,-2356.0,194.0,-80.0,1
3.0,-223.0,-106.0,-2391.0,189.0,-77.0,1
4.0,-227.0,-107.0,-2430.0,177.0,-84.0,1
2.0,-228.0,-111.0,-2472.0,167.0,-90.0,1
4.0,-229.0,-116.0,-2512.0,161.0,-95.0,1
2.0,-232.0,-125.0,-2549.0,155.0,-96.0,1
2.0,-223.0,-129.0,-2583.0,147.0,-103.0,1
5.0,-221.0,-135.0,-2604.0,142.0,-110.0,1
8.0,-217.0,-142.0,-2620.0,144.0,-119.0,1
5.0,-215.0,-150.0,-2636.0,150.0,-124.0,1
10.0,-213.0,-159.0,-2664.0,146.0,-119.0,1
12.0,-215.0,-167.0,-2688.0,146.0,-117.0,1
9.0,-219.0,-178.0,-2728.0,143.0,-124.0,1
8.0,-225.0,-180.0,-2782.0,138.0,-130.0,1
9.0,-236.0,-191.0,-2827.0,140.0,-126.0,1
5.0,-244.0,-189.0,-2860.0,135.0,-139.0,1
3.0,-252.0,-192.0,-2892.0,132.0,-157.0,1
3.0,-266.0,-186.0,-2917.0,137.0,-159.0,1
1.0,-277.0,-190.0,-2925.0,133.0,-170.0,1
6.0,-282.0,-198.0,-2919.0,138.0,-182.0,1
0.0,-278.0,-206.0,-2929.0,159.0,-193.0,1
1.0,-273.0,-208.0,-2941.0,178.0,-177.0,1
-3.0,-265.0,-216.0,-2947.0,187.0,-194.0,1
-3.0,-261.0,-224.0,-2957.0,202.0,-199.0,1
1.0,-255.0,-225.0,-3000.0,228.0,-163.0,1
-1.0,-231.0,-230.0,-3048.0,228.0,-142.0,1
7.0,-234.0,-241.0,-3059.0,191.0,-148.0,1
9.0,-219.0,-244.0,-3090.0,148.0,-124.0,1
22.0,-209.0,-245.0,-3106.0,94.0,-96.0,1
28.0,-213.0,-240.0,-3090.0,30.0,-115.0,1
20.0,-206.0,-254.0,-3045.0,-15.0,-184.0,1
28.0,-189.0,-275.0,-3003.0,-26.0,-256.0,1
16.0,-184.0,-279.0,-2985.0,5.0,-318.0,1
31.0,-166.0,-277.0,-2967.0,65.0,-334.0,1
16.0,-157.0,-283.0,-2834.0,101.0,-399.0,1
12.0,-165.0,-289.0,-2623.0,142.0,-418.0,1
4.0,-173.0,-297.0,-2394.0,202.0,-428.0,1
3.0,-176.0,-301.0,-2201.0,276.0,-421.0,1
3.0,-170.0,-304.0,-2037.0,338.0,-389.0,1
10.0,-170.0,-298.0,-1885.0,364.0,-337.0,1
10.0,-174.0,-295.0,-1728.0,350.0,-271.0,1
7.0,-167.0,-301.0,-1607.0,317.0,-231.0,1
12.0,-158.0,-305.0,-1475.0,245.0,-239.0,1
18.0,-145.0,-304.0,-1364.0,170.0,-228.0,1
19.0,-150.0,-309.0,-1267.0,112.0,-219.0,1
17.0,-151.0,-309.0,-1181.0,61.0,-224.0,1
15.0,-145.0,-308.0,-1112.0,32.0,-239.0,1
13.0,-137.0,-310.0,-1049.0,21.0,-260.0,1
21.0,-127.0,-292.0,-975.0,32.0,-280.0,1
20.0,-129.0,-292.0,-891.0,45.0,-295.0,1
19.0,-131.0,-280.0,-799.0,60.0,-308.0,1
21.0,-130.0,-273.0,-722.0,73.0,-309.0,1
24.0,-126.0,-274.0,-658.0,87.0,-303.0,1
28.0,-120.0,-269.0,-612.0,94.0,-292.0,1
29.0,-113.0,-271.0,-577.0,95.0,-273.0,1
19.0,-104.0,-269.0,-549.0,90.0,-249.0,1
21.0,-100.0,-268.0,-533.0,81.0,-223.0,1
22.0,-97.0,-267.0,-520.0,70.0,-204.0,1
22.0,-92.0,-268.0,-509.0,64.0,-188.0,1
17.0,-86.0,-264.0,-499.0,63.0,-169.0,1
18.0,-88.0,-264.0,-477.0,64.0,-153.0,1
18.0,-89.0,-265.0,-457.0,67.0,-133.0,1
17.0,-88.0,-264.0,-426.0,68.0,-116.0,1
21.0,-89.0,-264.0,-394.0,66.0,-100.0,1
21.0,-91.0,-262.0,-354.0,65.0,-92.0,1
20.0,-91.0,-255.0,-314.0,63.0,-81.0,1
19.0,-91.0,-255.0,-267.0,55.0,-76.0,1
19.0,-95.0,-252.0,-218.0,42.0,-74.0,1
19.0,-94.0,-254.0,-169.0,25.0,-74.0,1
12.0,-96.0,-251.0,-125.0,13.0,-77.0,1
15.0,-92.0,-244.0,-83.0,-1.0,-79.0,1
16.0,-93.0,-243.0,-44.0,-12.0,-83.0,1
12.0,-92.0,-245.0,-13.0,-14.0,-90.0,1
15.0,-92.0,-242.0,10.0,-15.0,-91.0,1
8.0,-88.0,-241.0,35.0,-13.0,-93.0,1
13.0,-89.0,-238.0,54.0,-15.0,-89.0,1
14.0,-90.0,-231.0,70.0,-12.0,-85.0,1
15.0,-88.0,-236.0,93.0,-3.0,-80.0,1
12.0,-86.0,-231.0,107.0,1.0,-71.0,1
10.0,-88.0,-231.0,122.0,0.0,-58.0,1
12.0,-90.0,-233.0,142.0,5.0,-46.0,1
20.0,-94.0,-225.0,157.0,7.0,-36.0,1
15.0,-88.0,-223.0,180.0,17.0,-25.0,1
16.0,-89.0,-225.0,199.0,29.0,-14.0,1
18.0,-91.0,-221.0,219.0,35.0,-2.0,1
19.0,-91.0,-218.0,233.0,39.0,9.0,1
20.0,-89.0,-217.0,247.0,44.0,17.0,1
19.0,-89.0,-217.0,260.0,43.0,26.0,1
20.0,-87.0,-213.0,270.0,42.0,34.0,1
19.0,-90.0,-214.0,282.0,41.0,35.0,1
15.0,-92.0,-212.0,292.0,38.0,37.0,1
19.0,-91.0,-213.0,305.0,40.0,38.0,1
17.0,-91.0,-211.0,318.0,41.0,34.0,1
16.0,-93.0,-209.0,333.0,41.0,31.0,1
17.0,-93.0,-208.0,351.0,44.0,31.0,1
12.0,-92.0,-213.0,373.0,46.0,33.0,1
16.0,-94.0,-207.0,389.0,49.0,37.0,1
15.0,-92.0,-211.0,400.0,55.0,41.0,1
14.0,-91.0,-209.0,414.0,59.0,48.0,1
13.0,-94.0,-207.0,420.0,59.0,54.0,1
11.0,-90.0,-210.0,424.0,64.0,59.0,1
15.0,-93.0,-204.0,427.0,72.0,67.0,1
15.0,-93.0,-206.0,437.0,84.0,77.0,1
16.0,-93.0,-204.0,451.0,98.0,88.0,1
10.0,-93.0,-204.0,465.0,114.0,94.0,1
12.0,-96.0,-205.0,473.0,123.0,98.0,1
10.0,-93.0,-205.0,481.0,135.0,102.0,1
10.0,-93.0,-207.0,485.0,144.0,107.0,1
9.0,-93.0,-204.0,490.0,153.0,117.0,1
12.0,-90.0,-202.0,489.0,159.0,122.0,1
12.0,-92.0,-204.0,491.0,166.0,121.0,1
11.0,-95.0,-195.0,490.0,174.0,120.0,1
10.0,-92.0,-198.0,495.0,180.0,121.0,1
10.0,-89.0,-198.0,495.0,186.0,119.0,1
12.0,-92.0,-204.0,484.0,196.0,121.0,1
10.0,-91.0,-202.0,472.0,203.0,119.0,1
10.0,-92.0,-199.0,460.0,211.0,121.0,1
12.0,-94.0,-203.0,449.0,217.0,122.0,1
12.0,-95.0,-202.0,435.0,222.0,122.0,1
13.0,-97.0,-204.0,418.0,229.0,123.0,1
9.0,-98.0,-200.0,398.0,236.0,127.0,1
13.0,-100.0,-203.0,378.0,244.0,132.0,1
13.0,-102.0,-201.0,361.0,255.0,136.0,1
14.0,-104.0,-204.0,352.0,264.0,141.0,1
15.0,-108.0,-200.0,345.0,274.0,145.0,1
13.0,-106.0,-202.0,335.0,281.0,145.0,1
9.0,-109.0,-199.0,326.0,291.0,149.0,1
13.0,-113.0,-203.0,325.0,301.0,151.0,1
16.0,-114.0,-200.0,324.0,306.0,153.0,1
16.0,-118.0,-198.0,325.0,312.0,157.0,1
14.0,-117.0,-196.0,330.0,316.0,159.0,1
15.0,-119.0,-196.0,336.0,323.0,163.0,1
13.0,-119.0,-196.0,346.0,330.0,165.0,1
16.0,-122.0,-191.0,348.0,333.0,164.0,1
11.0,-118.0,-197.0,350.0,333.0,161.0,1
12.0,-121.0,-189.0,356.0,333.0,160.0,1
13.0,-120.0,-194.0,362.0,332.0,160.0,1
12.0,-121.0,-192.0,363.0,329.0,159.0,1
13.0,-120.0,-191.0,360.0,330.0,159.0,1
13.0,-122.0,-189.0,357.0,330.0,158.0,1
10.0,-120.0,-189.0,356.0,327.0,155.0,1
12.0,-121.0,-196.0,352.0,323.0,156.0,1
14.0,-122.0,-195.0,346.0,321.0,156.0,1
13.0,-119.0,-192.0,337.0,318.0,155.0,1
10.0,-121.0,-192.0,328.0,316.0,155.0,1
12.0,-120.0,-188.0,316.0,316.0,156.0,1
15.0,-120.0,-189.0,305.0,315.0,151.0,1
13.0,-123.0,-185.0,301.0,311.0,146.0,1
11.0,-122.0,-186.0,303.0,305.0,139.0,1
10.0,-120.0,-186.0,306.0,303.0,134.0,1
10.0,-123.0,-185.0,308.0,302.0,129.0,1
13.0,-126.0,-184.0,311.0,302.0,127.0,1
15.0,-126.0,-187.0,308.0,302.0,125.0,1
12.0,-126.0,-181.0,295.0,304.0,122.0,1
12.0,-132.0,-181.0,287.0,313.0,122.0,1
11.0,-130.0,-185.0,290.0,310.0,122.0,1
10.0,-142.0,-180.0,290.0,308.0,121.0,1
14.0,-129.0,-186.0,288.0,309.0,121.0,1
16.0,-131.0,-181.0,264.0,320.0,118.0,1
16.0,-133.0,-181.0,250.0,323.0,120.0,1
16.0,-136.0,-181.0,250.0,322.0,121.0,1
15.0,-134.0,-178.0,257.0,317.0,120.0,1
20.0,-134.0,-184.0,261.0,317.0,118.0,1
16.0,-134.0,-178.0,248.0,325.0,118.0,1
16.0,-133.0,-178.0,248.0,324.0,118.0,1
21.0,-131.0,-181.0,257.0,318.0,120.0,1
16.0,-134.0,-181.0,265.0,314.0,119.0,1
16.0,-132.0,-181.0,267.0,316.0,122.0,1
14.0,-132.0,-178.0,260.0,317.0,124.0,1
13.0,-131.0,-177.0,253.0,322.0,124.0,1
12.0,-130.0,-179.0,246.0,327.0,125.0,1
15.0,-130.0,-178.0,241.0,333.0,130.0,1
14.0,-126.0,-179.0,229.0,342.0,130.0,1
17.0,-130.0,-177.0,215.0,352.0,131.0,1
14.0,-130.0,-173.0,204.0,360.0,133.0,1
16.0,-130.0,-173.0,196.0,363.0,137.0,1
17.0,-129.0,-173.0,195.0,363.0,141.0,1
15.0,-128.0,-172.0,190.0,373.0,146.0,1
18.0,-125.0,-171.0,186.0,382.0,152.0,1
18.0,-130.0,-172.0,176.0,395.0,162.0,1
13.0,-129.0,-170.0,170.0,399.0,166.0,1
16.0,-131.0,-169.0,169.0,396.0,170.0,1
20.0,-132.0,-172.0,173.0,395.0,170.0,1
17.0,-129.0,-167.0,176.0,396.0,172.0,1
20.0,-126.0,-168.0,179.0,395.0,172.0,1
19.0,-125.0,-166.0,173.0,398.0,175.0,1
24.0,-130.0,-163.0,168.0,392.0,180.0,1
23.0,-125.0,-166.0,167.0,386.0,179.0,1
22.0,-127.0,-164.0,170.0,385.0,180.0,1
22.0,-125.0,-164.0,175.0,387.0,182.0,1
23.0,-124.0,-170.0,176.0,388.0,185.0,1
25.0,-124.0,-168.0,171.0,395.0,189.0,1
21.0,-124.0,-170.0,159.0,403.0,194.0,1
27.0,-124.0,-170.0,143.0,412.0,197.0,1
22.0,-125.0,-169.0,123.0,422.0,199.0,1
23.0,-123.0,-167.0,108.0,427.0,198.0,1
21.0,-125.0,-162.0,100.0,430.0,193.0,1
23.0,-125.0,-165.0,99.0,433.0,190.0,1
23.0,-125.0,-167.0,98.0,437.0,185.0,1
26.0,-124.0,-163.0,97.0,447.0,182.0,1
28.0,-126.0,-164.0,99.0,458.0,180.0,1
28.0,-124.0,-159.0,99.0,471.0,176.0,1
29.0,-124.0,-157.0,99.0,483.0,172.0,1
29.0,-123.0,-159.0,97.0,493.0,166.0,1
30.0,-125.0,-158.0,91.0,506.0,161.0,1
27.0,-120.0,-156.0,84.0,519.0,157.0,1
27.0,-121.0,-161.0,79.0,531.0,155.0,1
30.0,-128.0,-156.0,70.0,539.0,149.0,1
27.0,-127.0,-155.0,66.0,548.0,146.0,1
30.0,-129.0,-160.0,62.0,560.0,143.0,1
29.0,-129.0,-158.0,55.0,572.0,140.0,1
27.0,-132.0,-162.0,44.0,587.0,140.0,1
29.0,-136.0,-161.0,35.0,603.0,138.0,1
28.0,-140.0,-159.0,29.0,625.0,138.0,1
28.0,-144.0,-161.0,25.0,643.0,139.0,1
27.0,-146.0,-162.0,24.0,657.0,143.0,1
27.0,-148.0,-164.0,25.0,677.0,147.0,1
30.0,-151.0,-160.0,28.0,697.0,149.0,1
31.0,-153.0,-163.0,37.0,710.0,150.0,1
37.0,-158.0,-158.0,51.0,720.0,150.0,1
32.0,-158.0,-155.0,68.0,730.0,151.0,1
31.0,-164.0,-151.0,89.0,738.0,149.0,1
36.0,-162.0,-150.0,116.0,740.0,148.0,1
41.0,-163.0,-150.0,144.0,740.0,144.0,1
43.0,-162.0,-148.0,168.0,743.0,140.0,1
50.0,-158.0,-147.0,178.0,756.0,135.0,1
49.0,-157.0,-141.0,174.0,781.0,137.0,1
47.0,-157.0,-139.0,164.0,799.0,135.0,1
52.0,-158.0,-136.0,154.0,812.0,127.0,1
48.0,-159.0,-127.0,148.0,827.0,121.0,1
48.0,-159.0,-130.0,159.0,834.0,110.0,1
53.0,-162.0,-121.0,182.0,846.0,100.0,1
53.0,-162.0,-126.0,203.0,873.0,92.0,1
58.0,-159.0,-123.0,217.0,906.0,92.0,1
50.0,-165.0,-121.0,226.0,945.0,91.0,1
53.0,-166.0,-126.0,238.0,974.0,85.0,1
55.0,-169.0,-121.0,254.0,1006.0,79.0,1
54.0,-171.0,-122.0,271.0,1043.0,76.0,1
54.0,-169.0,-119.0,286.0,1078.0,74.0,1
50.0,-172.0,-125.0,306.0,1116.0,71.0,1
47.0,-172.0,-123.0,328.0,1155.0,63.0,1
47.0,-174.0,-123.0,346.0,1194.0,68.0,1
50.0,-167.0,-126.0,353.0,1227.0,74.0,1
49.0,-167.0,-124.0,355.0,1259.0,71.0,1
52.0,-165.0,-124.0,351.0,1287.0,61.0,1
55.0,-168.0,-119.0,345.0,1314.0,45.0,1
57.0,-166.0,-119.0,345.0,1334.0,26.0,1
54.0,-166.0,-114.0,349.0,1346.0,6.0,1
57.0,-166.0,-113.0,356.0,1355.0,-21.0,1
61.0,-172.0,-109.0,365.0,1360.0,-52.0,1
60.0,-172.0,-104.0,379.0,1361.0,-81.0,1
60.0,-173.0,-100.0,393.0,1352.0,-108.0,1
59.0,-176.0,-99.0,404.0,1334.0,-135.0,1
58.0,-175.0,-96.0,404.0,1305.0,-173.0,1
45.0,-178.0,-98.0,394.0,1260.0,-213.0,1
40.0,-177.0,-96.0,378.0,1186.0,-235.0,1
33.0,-183.0,-101.0,355.0,1098.0,-253.0,1
22.0,-178.0,-100.0,313.0,1013.0,-275.0,1
7.0,-182.0,-101.0,264.0,926.0,-287.0,1
-4.0,-179.0,-99.0,213.0,839.0,-293.0,1
-22.0,-175.0,-92.0,176.0,754.0,-287.0,1
-34.0,-172.0,-93.0,151.0,681.0,-271.0,1
-47.0,-162.0,-95.0,135.0,620.0,-248.0,1
-48.0,-154.0,-96.0,124.0,574.0,-224.0,1
-54.0,-144.0,-105.0,108.0,547.0,-203.0,1
-61.0,-129.0,-103.0,91.0,535.0,-191.0,1
-37.0,-123.0,-96.0,85.0,508.0,-202.0,1
-38.0,-119.0,-90.0,80.0,472.0,-245.0,1
-25.0,-115.0,-84.0,67.0,422.0,-292.0,1
-19.0,-111.0,-83.0,48.0,340.0,-367.0,1
-5.0,-108.0,-84.0,2.0,249.0,-462.0,1
7.0,-106.0,-81.0,-66.0,163.0,-556.0,1
24.0,-107.0,-85.0,-161.0,110.0,-639.0,1
12.0,-116.0,-74.0,-284.0,83.0,-722.0,1
28.0,-119.0,-77.0,-386.0,44.0,-803.0,1
37.0,-121.0,-72.0,-481.0,22.0,-885.0,1
35.0,-126.0,-68.0,-581.0,12.0,-956.0,1
67.0,-135.0,-74.0,-656.0,43.0,-991.0,1
51.0,-135.0,-74.0,-717.0,112.0,-1031.0,1
54.0,-144.0,-71.0,-770.0,170.0,-1039.0,1
58.0,-149.0,-78.0,-820.0,188.0,-1037.0,1
50.0,-149.0,-72.0,-894.0,211.0,-1026.0,1
45.0,-154.0,-79.0,-961.0,197.0,-1023.0,1
36.0,-159.0,-78.0,-999.0,143.0,-1032.0,1
51.0,-152.0,-98.0,-995.0,66.0,-1032.0,1
31.0,-147.0,-107.0,-982.0,30.0,-1036.0,1
45.0,-144.0,-114.0,-944.0,-20.0,-1022.0,1
24.0,-128.0,-123.0,-915.0,-47.0,-1001.0,1
34.0,-127.0,-123.0,-896.0,-61.0,-975.0,1
32.0,-119.0,-109.0,-870.0,-68.0,-972.0,1
28.0,-103.0,-122.0,-819.0,-91.0,-953.0,1
36.0,-93.0,-128.0,-786.0,-124.0,-926.0,1
31.0,-76.0,-141.0,-785.0,-159.0,-923.0,1
50.0,-68.0,-157.0,-827.0,-214.0,-936.0,1
37.0,-56.0,-190.0,-914.0,-251.0,-964.0,1
54.0,-46.0,-215.0,-1055.0,-281.0,-975.0,1
60.0,-37.0,-244.0,-1253.0,-281.0,-991.0,1
65.0,-42.0,-263.0,-1509.0,-244.0,-986.0,1
94.0,-56.0,-283.0,-1797.0,-172.0,-981.0,1
105.0,-77.0,-268.0,-2109.0,-65.0,-1005.0,1
107.0,-106.0,-247.0,-2422.0,69.0,-1056.0,1
112.0,-139.0,-211.0,-2695.0,127.0,-1114.0,1
131.0,-170.0,-161.0,-2867.0,103.0,-1159.0,1
120.0,-193.0,-115.0,-2897.0,48.0,-1219.0,1
144.0,-203.0,-77.0,-2823.0,18.0,-1297.0,1
153.0,-197.0,-45.0,-2661.0,-6.0,-1355.0,1
173.0,-204.0,-15.0,-2443.0,-10.0,-1376.0,1
165.0,-191.0,4.0,-2243.0,28.0,-1397.0,1
194.0,-178.0,5.0,-2075.0,82.0,-1395.0,1
165.0,-168.0,22.0,-1957.0,178.0,-1438.0,1
157.0,-131.0,8.0,-1895.0,287.0,-1493.0,1
154.0,-92.0,-4.0,-1876.0,415.0,-1564.0,1
101.0,-65.0,6.0,-1886.0,525.0,-1619.0,1
101.0,-25.0,15.0,-1880.0,527.0,-1603.0,1
117.0,4.0,18.0,-1849.0,473.0,-1583.0,1
68.0,31.0,10.0,-1812.0,356.0,-1573.0,1
61.0,44.0,-14.0,-1763.0,199.0,-1547.0,1
24.0,62.0,-49.0,-1660.0,89.0,-1496.0,1
7.0,71.0,-93.0,-1453.0,74.0,-1402.0,1
-6.0,103.0,-157.0,-1163.0,198.0,-1323.0,1
13.0,145.0,-207.0,-833.0,426.0,-1243.0,1
79.0,186.0,-262.0,-512.0,636.0,-1143.0,1
146.0,221.0,-300.0,-317.0,784.0,-1086.0,1
193.0,262.0,-285.0,-256.0,883.0,-1071.0,1
207.0,271.0,-274.0,-222.0,901.0,-1075.0,1
449.0,376.0,-547.0,-281.0,759.0,-1136.0,1
617.0,466.0,-426.0,-241.0,-2325.0,-2104.0,1
47.0,450.0,-513.0,1226.0,-4758.0,-2590.0,1
-359.0,604.0,-994.0,624.0,-4150.0,-2151.0,1
247.0,399.0,-407.0,-1436.0,-829.0,-1098.0,1
807.0,1606.0,-1817.0,-1279.0,186.0,-925.0,1
521.0,1035.0,-1179.0,-3362.0,-1900.0,-1980.0,1
215.0,605.0,676.0,-6513.0,-1528.0,-2029.0,1
561.0,783.0,-715.0,-5094.0,-681.0,-1493.0,1
-113.0,158.0,-179.0,-4063.0,44.0,-1046.0,1
-83.0,212.0,-462.0,-3376.0,-357.0,-1006.0,1
296.0,-9.0,-792.0,-2959.0,-577.0,-910.0,1
514.0,24.0,-923.0,-2978.0,-731.0,-1099.0,1
742.0,585.0,-928.0,-2763.0,-1098.0,-1303.0,1
471.0,297.0,-936.0,-2514.0,-1731.0,-1244.0,1
397.0,192.0,-953.0,-2467.0,-2358.0,-1219.0,1
117.0,-165.0,-1067.0,-1973.0,-2819.0,-886.0,1
85.0,-167.0,-918.0,-1353.0,-2898.0,-522.0,1
66.0,-12.0,-732.0,-933.0,-2431.0,-363.0,1
-9.0,10.0,-493.0,-642.0,-1792.0,-160.0,1
33.0,-30.0,-283.0,-549.0,-1143.0,70.0,1
23.0,-146.0,-330.0,-531.0,-556.0,119.0,1
-40.0,-171.0,-228.0,-699.0,-191.0,38.0,1
193.0,-119.0,-363.0,-756.0,-16.0,-37.0,1
80.0,-43.0,-302.0,-677.0,136.0,-381.0,1
77.0,-91.0,-283.0,-958.0,43.0,-446.0,1
153.0,93.0,-342.0,-1224.0,17.0,-330.0,1
162.0,146.0,-369.0,-1416.0,-46.0,-196.0,1
27.0,50.0,-230.0,-1420.0,-95.0,-47.0,1
162.0,81.0,-248.0,-1499.0,-165.0,49.0,1
95.0,138.0,-202.0,-1396.0,-218.0,81.0,1
83.0,-36.0,-90.0,-1358.0,-351.0,114.0,1
132.0,119.0,-168.0,-1279.0,-500.0,70.0,1
119.0,53.0,-145.0,-1150.0,-691.0,124.0,1
68.0,65.0,-130.0,-998.0,-851.0,-11.0,1
75.0,74.0,-128.0,-902.0,-972.0,-53.0,1
93.0,55.0,-96.0,-723.0,-1042.0,-113.0,1
137.0,161.0,-162.0,-424.0,-992.0,-197.0,1
140.0,128.0,-118.0,-159.0,-901.0,-308.0,1
114.0,224.0,-137.0,62.0,-755.0,-437.0,1
112.0,218.0,-118.0,87.0,-593.0,-545.0,1
155.0,297.0,-140.0,141.0,-453.0,-606.0,1
129.0,258.0,-102.0,125.0,-331.0,-596.0,1
133.0,241.0,-73.0,73.0,-303.0,-636.0,1
113.0,193.0,-40.0,76.0,-273.0,-557.0,1
119.0,206.0,-55.0,165.0,-321.0,-609.0,1
100.0,240.0,-84.0,227.0,-320.0,-582.0,1
75.0,264.0,-116.0,308.0,-297.0,-452.0,1
87.0,261.0,-140.0,446.0,-289.0,-305.0,1
40.0,252.0,-113.0,459.0,-266.0,-317.0,1
61.0,244.0,-121.0,368.0,-318.0,-283.0,1
39.0,149.0,-89.0,357.0,-406.0,-252.0,1
42.0,123.0,-79.0,483.0,-444.0,-244.0,1
66.0,144.0,-99.0,697.0,-425.0,-249.0,1
59.0,141.0,-105.0,810.0,-417.0,-248.0,1
42.0,108.0,-116.0,855.0,-488.0,-198.0,1
16.0,67.0,-124.0,893.0,-487.0,-145.0,1
37.0,64.0,-134.0,911.0,-452.0,-140.0,1
58.0,104.0,-171.0,857.0,-450.0,-156.0,1
61.0,131.0,-204.0,732.0,-437.0,-194.0,1
45.0,146.0,-226.0,601.0,-418.0,-243.0,1
24.0,157.0,-235.0,525.0,-390.0,-246.0,1
9.0,163.0,-239.0,538.0,-336.0,-213.0,1
21.0,146.0,-231.0,615.0,-290.0,-140.0,1
42.0,134.0,-251.0,720.0,-249.0,-57.0,1
53.0,125.0,-246.0,768.0,-222.0,-2.0,1
55.0,117.0,-260.0,792.0,-232.0,22.0,1
72.0,115.0,-263.0,798.0,-249.0,34.0,1
75.0,122.0,-277.0,798.0,-273.0,40.0,1
75.0,130.0,-300.0,810.0,-284.0,49.0,1
70.0,122.0,-302.0,821.0,-278.0,55.0,1
66.0,118.0,-303.0,820.0,-275.0,52.0,1
73.0,112.0,-297.0,794.0,-284.0,59.0,1
73.0,109.0,-296.0,767.0,-297.0,69.0,1
76.0,100.0,-298.0,740.0,-310.0,80.0,1
71.0,101.0,-305.0,697.0,-325.0,88.0,1
62.0,90.0,-307.0,642.0,-330.0,95.0,1
59.0,86.0,-312.0,587.0,-315.0,101.0,1
58.0,74.0,-313.0,533.0,-283.0,103.0,1
50.0,65.0,-301.0,481.0,-242.0,90.0,1
43.0,55.0,-290.0,447.0,-188.0,82.0,1
54.0,42.0,-281.0,429.0,-154.0,69.0,1
45.0,41.0,-265.0,412.0,-151.0,45.0,1
30.0,34.0,-262.0,395.0,-130.0,37.0,1
44.0,37.0,-262.0,383.0,-119.0,34.0,1
52.0,41.0,-251.0,358.0,-129.0,34.0,1
40.0,35.0,-250.0,345.0,-124.0,32.0,1
47.0,38.0,-248.0,350.0,-128.0,29.0,1
48.0,57.0,-249.0,346.0,-140.0,29.0,1
49.0,65.0,-242.0,342.0,-141.0,33.0,1
52.0,62.0,-244.0,344.0,-142.0,42.0,1
54.0,62.0,-239.0,344.0,-138.0,46.0,1
51.0,50.0,-241.0,361.0,-129.0,49.0,1
62.0,48.0,-242.0,382.0,-122.0,52.0,1
56.0,39.0,-234.0,391.0,-110.0,56.0,1
57.0,38.0,-237.0,396.0,-104.0,56.0,1
54.0,29.0,-236.0,393.0,-90.0,57.0,1
48.0,30.0,-232.0,392.0,-81.0,59.0,1
51.0,28.0,-230.0,390.0,-78.0,57.0,1
50.0,18.0,-231.0,385.0,-78.0,55.0,1
49.0,19.0,-234.0,375.0,-76.0,51.0,1
50.0,15.0,-241.0,349.0,-72.0,51.0,1
42.0,12.0,-237.0,320.0,-68.0,48.0,1
40.0,21.0,-241.0,300.0,-64.0,44.0,1
44.0,21.0,-231.0,267.0,-62.0,38.0,1
43.0,24.0,-236.0,240.0,-56.0,35.0,1
38.0,26.0,-235.0,212.0,-48.0,32.0,1
44.0,31.0,-239.0,188.0,-38.0,32.0,1
46.0,35.0,-240.0,165.0,-36.0,30.0,1
48.0,30.0,-245.0,149.0,-38.0,27.0,1
45.0,23.0,-248.0,142.0,-38.0,26.0,1
42.0,34.0,-253.0,137.0,-41.0,23.0,1
49.0,41.0,-251.0,123.0,-41.0,21.0,1
47.0,35.0,-247.0,113.0,-45.0,16.0,1
43.0,30.0,-251.0,109.0,-55.0,13.0,1
47.0,27.0,-256.0,101.0,-65.0,10.0,1
42.0,32.0,-257.0,83.0,-76.0,3.0,1
43.0,29.0,-257.0,66.0,-81.0,-2.0,1
46.0,29.0,-261.0,51.0,-82.0,-6.0,1
44.0,30.0,-262.0,36.0,-76.0,-9.0,1
44.0,28.0,-267.0,18.0,-68.0,-12.0,1
40.0,31.0,-265.0,2.0,-56.0,-17.0,1
42.0,31.0,-263.0,-15.0,-44.0,-20.0,1
39.0,31.0,-268.0,-29.0,-31.0,-23.0,1
43.0,32.0,-267.0,-40.0,-17.0,-23.0,1
44.0,30.0,-264.0,-48.0,-6.0,-22.0,1
40.0,33.0,-263.0,-55.0,2.0,-22.0,1
41.0,32.0,-260.0,-58.0,8.0,-24.0,1
44.0,34.0,-258.0,-60.0,12.0,-24.0,1
42.0,34.0,-260.0,-63.0,14.0,-23.0,1
38.0,34.0,-260.0,-68.0,16.0,-22.0,1
45.0,33.0,-253.0,-77.0,18.0,-24.0,1
42.0,35.0,-254.0,-83.0,19.0,-23.0,1
43.0,35.0,-249.0,-92.0,21.0,-24.0,1
46.0,37.0,-254.0,-102.0,22.0,-24.0,1
41.0,39.0,-249.0,-109.0,25.0,-23.0,1
41.0,37.0,-249.0,-113.0,29.0,-24.0,1
41.0,37.0,-246.0,-117.0,31.0,-23.0,1
40.0,38.0,-246.0,-120.0,34.0,-21.0,1
40.0,39.0,-250.0,-123.0,34.0,-23.0,1
42.0,40.0,-243.0,-124.0,34.0,-23.0,1
41.0,41.0,-248.0,-124.0,33.0,-20.0,1
44.0,40.0,-246.0,-122.0,31.0,-18.0,1
42.0,38.0,-241.0,-119.0,31.0,-18.0,1
43.0,36.0,-240.0,-112.0,28.0,-18.0,1
40.0,44.0,-237.0,-107.0,24.0,-19.0,1
39.0,45.0,-238.0,-95.0,20.0,-19.0,1
36.0,44.0,-244.0,-80.0,16.0,-17.0,1
40.0,40.0,-244.0,-75.0,11.0,-17.0,1
41.0,44.0,-238.0,-71.0,4.0,-18.0,1
43.0,43.0,-240.0,-50.0,2.0,-17.0,1
39.0,41.0,-246.0,-35.0,-2.0,-15.0,1
40.0,43.0,-243.0,-32.0,-6.0,-14.0,1
38.0,48.0,-248.0,-29.0,-11.0,-15.0,1
40.0,42.0,-246.0,-28.0,-14.0,-14.0,1
37.0,46.0,-248.0,-24.0,-18.0,-14.0,1
39.0,43.0,-249.0,-17.0,-21.0,-13.0,1
38.0,41.0,-251.0,-11.0,-22.0,-12.0,1
37.0,45.0,-250.0,-5.0,-21.0,-12.0,1
39.0,41.0,-248.0,1.0,-20.0,-12.0,1
38.0,45.0,-249.0,9.0,-19.0,-11.0,1
38.0,39.0,-250.0,14.0,-17.0,-11.0,1
39.0,38.0,-249.0,21.0,-16.0,-9.0,1
36.0,43.0,-248.0,28.0,-15.0,-8.0,1
38.0,40.0,-248.0,33.0,-15.0,-7.0,1
37.0,40.0,-251.0,37.0,-13.0,-7.0,1
36.0,39.0,-250.0,40.0,-12.0,-7.0,1
35.0,40.0,-249.0,44.0,-9.0,-5.0,1
37.0,38.0,-254.0,47.0,-4.0,-4.0,1
34.0,39.0,-253.0,49.0,1.0,-2.0,1
37.0,39.0,-252.0,48.0,5.0,-2.0,1
40.0,39.0,-252.0,48.0,11.0,-1.0,1
38.0,37.0,-250.0,49.0,11.0,-1.0,1
38.0,39.0,-250.0,51.0,11.0,-1.0,1
42.0,37.0,-251.0,51.0,12.0,-1.0,1
38.0,33.0,-251.0,51.0,13.0,0.0,1
37.0,35.0,-252.0,50.0,14.0,-2.0,1
34.0,38.0,-249.0,47.0,14.0,-2.0,1
33.0,37.0,-253.0,46.0,18.0,-2.0,1
35.0,36.0,-249.0,47.0,20.0,-1.0,1
35.0,38.0,-251.0,45.0,21.0,-4.0,1
39.0,37.0,-253.0,44.0,20.0,-4.0,1
35.0,33.0,-251.0,44.0,22.0,-2.0,1
34.0,33.0,-253.0,41.0,24.0,-4.0,1
32.0,37.0,-252.0,38.0,26.0,-3.0,1
36.0,36.0,-256.0,36.0,29.0,-4.0,1
35.0,36.0,-252.0,33.0,36.0,-2.0,1
38.0,34.0,-251.0,31.0,39.0,-2.0,1
37.0,33.0,-253.0,28.0,38.0,-5.0,1
36.0,34.0,-254.0,24.0,37.0,-6.0,1
36.0,36.0,-255.0,19.0,38.0,-8.0,1
38.0,34.0,-250.0,15.0,40.0,-7.0,1
37.0,35.0,-252.0,13.0,40.0,-7.0,1
36.0,36.0,-249.0,11.0,41.0,-8.0,1
35.0,42.0,-252.0,6.0,40.0,-8.0,1
35.0,35.0,-248.0,4.0,41.0,-8.0,1
34.0,34.0,-248.0,3.0,39.0,-9.0,1
35.0,34.0,-249.0,3.0,39.0,-8.0,1
34.0,33.0,-250.0,3.0,36.0,-9.0,1
36.0,32.0,-252.0,1.0,36.0,-8.0,1
36.0,37.0,-250.0,1.0,37.0,-9.0,1
37.0,38.0,-249.0,0.0,36.0,-8.0,1
39.0,35.0,-257.0,2.0,38.0,-8.0,1
33.0,34.0,-253.0,0.0,43.0,-7.0,1
37.0,33.0,-248.0,-2.0,40.0,-8.0,1
38.0,35.0,-250.0,0.0,35.0,-11.0,1
35.0,34.0,-251.0,-1.0,33.0,-11.0,1
36.0,36.0,-249.0,-2.0,32.0,-10.0,1
35.0,37.0,-250.0,-3.0,33.0,-9.0,1
36.0,34.0,-250.0,-5.0,33.0,-9.0,1
36.0,34.0,-250.0,-5.0,33.0,-10.0,1
35.0,35.0,-252.0,-4.0,31.0,-9.0,1
35.0,37.0,-251.0,-4.0,30.0,-9.0,1
32.0,36.0,-254.0,-3.0,33.0,-7.0,1
35.0,37.0,-250.0,-5.0,32.0,-8.0,1
37.0,34.0,-249.0,-3.0,28.0,-8.0,1
34.0,34.0,-250.0,-3.0,23.0,-8.0,1
35.0,39.0,-250.0,-2.0,22.0,-8.0,1
33.0,39.0,-252.0,-2.0,22.0,-7.0,1
33.0,37.0,-254.0,0.0,21.0,-8.0,1
34.0,34.0,-252.0,2.0,20.0,-7.0,1
33.0,35.0,-250.0,1.0,18.0,-7.0,1
36.0,37.0,-251.0,5.0,19.0,-8.0,1
35.0,38.0,-254.0,5.0,20.0,-8.0,1
31.0,38.0,-257.0,5.0,23.0,-6.0,1
31.0,36.0,-250.0,6.0,29.0,-5.0,1
37.0,34.0,-242.0,7.0,28.0,-6.0,1
37.0,35.0,-254.0,10.0,26.0,-7.0,1
34.0,36.0,-253.0,12.0,26.0,-6.0,1
37.0,37.0,-249.0,13.0,27.0,-6.0,1
34.0,32.0,-253.0,17.0,30.0,-6.0,1
36.0,33.0,-251.0,14.0,27.0,-6.0,1
36.0,35.0,-251.0,13.0,26.0,-6.0,1
34.0,37.0,-248.0,14.0,27.0,-5.0,1
33.0,36.0,-250.0,14.0,27.0,-4.0,1
33.0,34.0,-249.0,10.0,25.0,-7.0,1
34.0,33.0,-251.0,7.0,28.0,-6.0,1
33.0,34.0,-249.0,3.0,30.0,-6.0,1
34.0,34.0,-250.0,3.0,31.0,-5.0,1
33.0,33.0,-251.0,1.0,29.0,-5.0,1
33.0,36.0,-249.0,2.0,30.0,-6.0,1
34.0,34.0,-251.0,3.0,30.0,-5.0,1
36.0,36.0,-258.0,7.0,31.0,-4.0,1
31.0,33.0,-258.0,8.0,30.0,-7.0,1
33.0,37.0,-255.0,7.0,31.0,-7.0,1
35.0,33.0,-251.0,6.0,31.0,-7.0,1
27.0,35.0,-253.0,4.0,32.0,-7.0,1
33.0,37.0,-251.0,4.0,33.0,-7.0,1
33.0,34.0,-251.0,8.0,25.0,-7.0,1
30.0,35.0,-249.0,6.0,25.0,-10.0,1
33.0,35.0,-253.0,4.0,29.0,-9.0,1
33.0,36.0,-256.0,2.0,33.0,-7.0,1
33.0,32.0,-253.0,3.0,33.0,-8.0,1
28.0,35.0,-254.0,4.0,40.0,-6.0,1
28.0,34.0,-252.0,6.0,40.0,-5.0,1
31.0,34.0,-250.0,6.0,39.0,-7.0,1
32.0,36.0,-254.0,6.0,39.0,-7.0,1
29.0,38.0,-251.0,6.0,44.0,-8.0,1
31.0,33.0,-247.0,9.0,45.0,-6.0,1
34.0,35.0,-253.0,7.0,41.0,-7.0,1
31.0,36.0,-249.0,7.0,45.0,-6.0,1
30.0,37.0,-256.0,8.0,45.0,-6.0,1
33.0,35.0,-248.0,9.0,48.0,-5.0,1
32.0,37.0,-250.0,8.0,47.0,-6.0,1
33.0,37.0,-252.0,8.0,43.0,-7.0,1
32.0,36.0,-251.0,7.0,46.0,-7.0,1
34.0,34.0,-247.0,9.0,49.0,-6.0,1
32.0,35.0,-247.0,8.0,48.0,-6.0,1
34.0,37.0,-250.0,6.0,47.0,-5.0,1
35.0,35.0,-258.0,7.0,46.0,-6.0,1
33.0,32.0,-249.0,7.0,53.0,-4.0,1
33.0,34.0,-245.0,6.0,52.0,-5.0,1
33.0,31.0,-250.0,4.0,52.0,-5.0,1
29.0,33.0,-250.0,2.0,47.0,-7.0,1
32.0,38.0,-249.0,6.0,46.0,-5.0,1
31.0,36.0,-259.0,6.0,47.0,-5.0,1
31.0,35.0,-245.0,8.0,53.0,-4.0,1
34.0,33.0,-248.0,6.0,49.0,-5.0,1
32.0,32.0,-255.0,3.0,48.0,-5.0,1
32.0,35.0,-251.0,1.0,47.0,-4.0,1
32.0,34.0,-250.0,2.0,46.0,-4.0,1
36.0,30.0,-251.0,5.0,53.0,-2.0,1
33.0,34.0,-250.0,4.0,52.0,-4.0,1
31.0,35.0,-248.0,2.0,49.0,-4.0,1
34.0,36.0,-251.0,-1.0,48.0,-4.0,1
32.0,34.0,-255.0,-1.0,50.0,-4.0,1
34.0,33.0,-251.0,-2.0,49.0,-5.0,1
34.0,35.0,-253.0,1.0,40.0,-6.0,1
30.0,39.0,-241.0,4.0,22.0,-8.0,1
27.0,34.0,-253.0,10.0,33.0,-6.0,1
37.0,33.0,-251.0,7.0,44.0,-4.0,1
29.0,33.0,-251.0,3.0,49.0,-3.0,1
27.0,36.0,-253.0,0.0,50.0,-4.0,1
32.0,33.0,-250.0,-2.0,55.0,-4.0,1
25.0,39.0,-256.0,-3.0,56.0,-4.0,1
35.0,29.0,-253.0,1.0,61.0,-3.0,1
31.0,36.0,-255.0,-2.0,58.0,-4.0,1
33.0,32.0,-252.0,-4.0,59.0,-5.0,1
29.0,34.0,-250.0,-4.0,57.0,-5.0,1
32.0,34.0,-250.0,-5.0,55.0,-6.0,1
31.0,35.0,-248.0,-4.0,54.0,-5.0,1
29.0,37.0,-252.0,-4.0,56.0,-5.0,1
29.0,36.0,-252.0,-5.0,55.0,-5.0,1
29.0,34.0,-251.0,-5.0,56.0,-4.0,1
35.0,33.0,-251.0,-6.0,57.0,-4.0,1
29.0,34.0,-250.0,-5.0,54.0,-5.0,1
32.0,35.0,-250.0,0.0,55.0,-4.0,1
29.0,35.0,-248.0,-2.0,56.0,-3.0,1
32.0,33.0,-246.0,-4.0,53.0,-4.0,1
34.0,33.0,-251.0,-2.0,51.0,-5.0,1
29.0,34.0,-252.0,-2.0,50.0,-5.0,1
31.0,33.0,-250.0,-3.0,51.0,-5.0,1
28.0,33.0,-251.0,-2.0,53.0,-5.0,1
28.0,34.0,-247.0,-2.0,55.0,-5.0,1
32.0,34.0,-250.0,-3.0,53.0,-5.0,1
30.0,33.0,-252.0,-1.0,52.0,-4.0,1
28.0,34.0,-251.0,1.0,56.0,-4.0,1
36.0,32.0,-247.0,0.0,59.0,-4.0,1
31.0,34.0,-250.0,-2.0,55.0,-3.0,1
31.0,29.0,-253.0,-1.0,54.0,-4.0,1
32.0,35.0,-254.0,0.0,54.0,-5.0,1
28.0,33.0,-253.0,0.0,55.0,-5.0,1
29.0,39.0,-249.0,-2.0,58.0,-4.0,1
30.0,31.0,-255.0,-1.0,59.0,-4.0,1
31.0,30.0,-248.0,-1.0,58.0,-3.0,1
28.0,36.0,-253.0,-1.0,60.0,-3.0,1
31.0,34.0,-250.0,0.0,68.0,-3.0,1
31.0,33.0,-248.0,1.0,64.0,-3.0,1
26.0,35.0,-249.0,-1.0,60.0,-3.0,1
29.0,33.0,-250.0,-2.0,61.0,-5.0,1
31.0,36.0,-252.0,-3.0,64.0,-5.0,1
29.0,32.0,-249.0,-5.0,67.0,-2.0,1
29.0,34.0,-251.0,-5.0,66.0,-2.0,1
31.0,34.0,-254.0,-6.0,66.0,-3.0,1
32.0,34.0,-251.0,-6.0,64.0,-3.0,1
30.0,35.0,-250.0,-7.0,60.0,-5.0,1
29.0,34.0,-252.0,-6.0,63.0,-4.0,1
29.0,37.0,-250.0,-7.0,64.0,-3.0,1
29.0,34.0,-250.0,-8.0,68.0,-2.0,1
28.0,34.0,-249.0,-8.0,70.0,-3.0,1
29.0,34.0,-250.0,-9.0,70.0,-2.0,1
28.0,35.0,-252.0,-9.0,71.0,-2.0,1
30.0,32.0,-247.0,-8.0,70.0,-2.0,1
30.0,35.0,-251.0,-7.0,69.0,-1.0,1
32.0,31.0,-247.0,-7.0,69.0,-3.0,1
22.0,29.0,-251.0,-8.0,67.0,-3.0,1
29.0,35.0,-250.0,-6.0,67.0,-2.0,1
31.0,34.0,-251.0,-6.0,68.0,-2.0,1
29.0,34.0,-252.0,-6.0,67.0,-2.0,1
30.0,31.0,-248.0,-6.0,66.0,-1.0,1
30.0,31.0,-250.0,-8.0,67.0,-3.0,1
31.0,36.0,-250.0,-11.0,69.0,-4.0,1
28.0,32.0,-251.0,-12.0,70.0,-2.0,1
31.0,32.0,-249.0,-12.0,72.0,-1.0,1
28.0,34.0,-252.0,-10.0,72.0,-2.0,1
30.0,34.0,-249.0,-9.0,73.0,-3.0,1
31.0,32.0,-249.0,-7.0,72.0,-2.0,1
32.0,31.0,-253.0,-3.0,68.0,-3.0,1
30.0,35.0,-253.0,-3.0,64.0,-3.0,1
30.0,35.0,-253.0,-4.0,64.0,-3.0,1
31.0,34.0,-252.0,-6.0,67.0,-4.0,1
34.0,31.0,-248.0,-7.0,70.0,-4.0,1
26.0,32.0,-251.0,-7.0,68.0,-4.0,1
36.0,31.0,-248.0,-2.0,69.0,-3.0,1
32.0,31.0,-248.0,-6.0,66.0,-4.0,1
31.0,35.0,-248.0,-9.0,63.0,-5.0,1
27.0,28.0,-247.0,-7.0,64.0,-5.0,1
32.0,34.0,-252.0,-7.0,64.0,-5.0,1
32.0,34.0,-249.0,-9.0,67.0,-4.0,1
31.0,32.0,-251.0,-6.0,67.0,-5.0,1
32.0,36.0,-248.0,-5.0,65.0,-5.0,1
31.0,34.0,-252.0,-4.0,65.0,-6.0,1
30.0,31.0,-252.0,-3.0,65.0,-4.0,1
30.0,33.0,-252.0,-4.0,65.0,-4.0,1
28.0,35.0,-251.0,-4.0,64.0,-2.0,1
31.0,34.0,-250.0,-5.0,66.0,-2.0,1
30.0,32.0,-248.0,-7.0,66.0,-3.0,1
29.0,31.0,-251.0,-6.0,64.0,-3.0,1
30.0,32.0,-252.0,-5.0,65.0,-3.0,1
31.0,31.0,-250.0,-5.0,65.0,-4.0,1
32.0,33.0,-250.0,-6.0,67.0,-4.0,1
28.0,35.0,-252.0,-6.0,63.0,-3.0,1
29.0,35.0,-252.0,-4.0,61.0,-4.0,1
33.0,32.0,-254.0,-4.0,58.0,-4.0,1
31.0,35.0,-253.0,-4.0,57.0,-5.0,1
29.0,33.0,-250.0,-3.0,57.0,-4.0,1
34.0,30.0,-251.0,-4.0,57.0,-5.0,1
31.0,33.0,-252.0,-6.0,59.0,-5.0,1
33.0,32.0,-249.0,-4.0,65.0,-2.0,1
30.0,29.0,-250.0,-2.0,61.0,-4.0,1
30.0,33.0,-252.0,-5.0,58.0,-5.0,1
30.0,32.0,-254.0,-5.0,57.0,-6.0,1
27.0,33.0,-246.0,-10.0,49.0,-5.0,1
32.0,31.0,-247.0,-5.0,30.0,-9.0,1
21.0,29.0,-245.0,10.0,20.0,-11.0,1
27.0,30.0,-256.0,4.0,38.0,-6.0,1
31.0,31.0,-249.0,3.0,43.0,-5.0,1
28.0,32.0,-251.0,-1.0,48.0,-5.0,1
29.0,31.0,-250.0,-4.0,49.0,-5.0,1
29.0,33.0,-250.0,-5.0,54.0,-5.0,1
28.0,36.0,-251.0,-6.0,60.0,-6.0,1
30.0,33.0,-256.0,-6.0,63.0,-5.0,1
32.0,30.0,-247.0,-8.0,66.0,-4.0,1
30.0,29.0,-251.0,-6.0,63.0,-4.0,1
26.0,32.0,-251.0,-5.0,60.0,-5.0,1
30.0,34.0,-249.0,-6.0,60.0,-5.0,1
30.0,34.0,-249.0,-6.0,59.0,-4.0,1
27.0,33.0,-250.0,-6.0,58.0,-5.0,1
31.0,32.0,-253.0,-6.0,60.0,-5.0,1
31.0,32.0,-249.0,-9.0,63.0,-4.0,1
32.0,32.0,-249.0,-2.0,65.0,-3.0,1
30.0,32.0,-249.0,-4.0,59.0,-5.0,1
29.0,33.0,-247.0,-6.0,54.0,-6.0,1
29.0,31.0,-249.0,-6.0,55.0,-7.0,1
28.0,33.0,-255.0,-6.0,57.0,-4.0,1
30.0,32.0,-249.0,-7.0,57.0,-4.0,1
28.0,33.0,-252.0,-8.0,58.0,-3.0,1
31.0,31.0,-246.0,-10.0,63.0,-4.0,1
30.0,32.0,-251.0,-8.0,61.0,-4.0,1
29.0,36.0,-251.0,-6.0,60.0,-4.0,1
30.0,33.0,-250.0,-7.0,60.0,-5.0,1
28.0,32.0,-249.0,-7.0,61.0,-5.0,1
29.0,32.0,-252.0,-8.0,60.0,-5.0,1
29.0,33.0,-252.0,-9.0,61.0,-5.0,1
30.0,34.0,-255.0,-8.0,61.0,-5.0,1
28.0,31.0,-253.0,-8.0,61.0,-5.0,1
33.0,31.0,-252.0,-8.0,62.0,-4.0,1
30.0,30.0,-250.0,-8.0,63.0,-3.0,1
31.0,29.0,-249.0,-10.0,66.0,-5.0,1
30.0,31.0,-248.0,-11.0,64.0,-4.0,1
21.0,27.0,-252.0,-9.0,62.0,-5.0,1
30.0,30.0,-250.0,-9.0,61.0,-4.0,1
29.0,33.0,-253.0,-7.0,60.0,-4.0,1
29.0,33.0,-249.0,-7.0,62.0,-4.0,1
29.0,30.0,-248.0,-8.0,62.0,-5.0,1
25.0,34.0,-251.0,-10.0,63.0,-5.0,1
28.0,34.0,-249.0,-9.0,63.0,-4.0,1
29.0,34.0,-250.0,-8.0,64.0,-5.0,1
27.0,33.0,-250.0,-9.0,62.0,-4.0,1
30.0,30.0,-252.0,-10.0,63.0,-3.0,1
29.0,34.0,-253.0,-10.0,63.0,-4.0,1
29.0,33.0,-254.0,-10.0,64.0,-3.0,1
27.0,30.0,-251.0,-10.0,64.0,-4.0,1
28.0,34.0,-255.0,-10.0,63.0,-4.0,1
32.0,34.0,-248.0,-12.0,69.0,-4.0,1
28.0,32.0,-250.0,-11.0,65.0,-3.0,1
30.0,32.0,-249.0,-8.0,63.0,-4.0,1
29.0,34.0,-253.0,-10.0,63.0,-3.0,1
28.0,34.0,-252.0,-9.0,63.0,-3.0,1
31.0,32.0,-250.0,-10.0,64.0,-3.0,1
32.0,30.0,-247.0,-11.0,65.0,-3.0,1
28.0,34.0,-254.0,-12.0,64.0,-4.0,1
28.0,31.0,-251.0,-11.0,64.0,-4.0,1
29.0,35.0,-253.0,-12.0,64.0,-4.0,1
29.0,31.0,-248.0,-13.0,64.0,-3.0,1
30.0,34.0,-250.0,-15.0,63.0,-4.0,1
28.0,34.0,-254.0,-14.0,63.0,-4.0,1
28.0,31.0,-249.0,-10.0,65.0,-4.0,1
31.0,30.0,-253.0,-11.0,64.0,-4.0,1
26.0,33.0,-255.0,-10.0,64.0,-5.0,1
29.0,31.0,-251.0,-9.0,63.0,-4.0,1
27.0,36.0,-249.0,-8.0,63.0,-3.0,1
30.0,32.0,-251.0,-7.0,64.0,-3.0,1
28.0,35.0,-249.0,-7.0,63.0,-3.0,1
27.0,34.0,-248.0,-7.0,65.0,-4.0,1
31.0,30.0,-249.0,-7.0,64.0,-3.0,1
28.0,34.0,-249.0,-7.0,66.0,-4.0,1
26.0,34.0,-251.0,-8.0,66.0,-3.0,1
31.0,28.0,-253.0,-10.0,67.0,-4.0,1
28.0,33.0,-250.0,-11.0,66.0,-5.0,1
30.0,30.0,-247.0,-13.0,66.0,-4.0,1
30.0,29.0,-252.0,-14.0,67.0,-4.0,1
29.0,30.0,-249.0,-11.0,66.0,-5.0,1
40.0,35.0,-248.0,-6.0,62.0,-3.0,1
30.0,33.0,-250.0,-3.0,60.0,-5.0,1
28.0,30.0,-256.0,-4.0,61.0,-4.0,1
29.0,30.0,-253.0,-7.0,61.0,-4.0,1
27.0,32.0,-253.0,-8.0,64.0,-5.0,1
27.0,34.0,-251.0,-7.0,64.0,-5.0,1
24.0,31.0,-251.0,-8.0,65.0,-4.0,1
30.0,35.0,-242.0,-10.0,70.0,-4.0,1
28.0,34.0,-249.0,-7.0,66.0,-3.0,1
26.0,32.0,-248.0,-6.0,64.0,-3.0,1
29.0,30.0,-253.0,-9.0,64.0,-4.0,1
30.0,31.0,-252.0,-9.0,65.0,-4.0,1
30.0,30.0,-250.0,-9.0,63.0,-3.0,1
28.0,32.0,-253.0,-9.0,64.0,-3.0,1
29.0,31.0,-249.0,-8.0,64.0,-5.0,1
28.0,33.0,-250.0,-9.0,64.0,-4.0,1
27.0,35.0,-252.0,-7.0,65.0,-4.0,1
29.0,32.0,-248.0,-7.0,62.0,-4.0,1
28.0,34.0,-251.0,-8.0,61.0,-4.0,1
29.0,33.0,-250.0,-8.0,62.0,-3.0,1
29.0,33.0,-253.0,-9.0,62.0,-3.0,1
30.0,34.0,-248.0,-10.0,62.0,-5.0,1
30.0,32.0,-251.0,-9.0,62.0,-3.0,1
29.0,32.0,-251.0,-9.0,60.0,-4.0,1
26.0,35.0,-248.0,-10.0,60.0,-3.0,1
28.0,30.0,-253.0,-10.0,60.0,-4.0,1
27.0,33.0,-248.0,-11.0,60.0,-4.0,1
29.0,36.0,-255.0,-10.0,62.0,-4.0,1
27.0,34.0,-254.0,-8.0,63.0,-2.0,1
26.0,33.0,-255.0,-9.0,62.0,-3.0,1
26.0,33.0,-251.0,-8.0,64.0,-4.0,1
30.0,31.0,-257.0,-8.0,64.0,-4.0,1
29.0,33.0,-251.0,-9.0,69.0,-4.0,1
21.0,32.0,-253.0,-8.0,69.0,-3.0,1
27.0,29.0,-252.0,-1.0,71.0,-2.0,1
26.0,31.0,-251.0,-5.0,64.0,-3.0,1
26.0,32.0,-254.0,-6.0,63.0,-3.0,1
28.0,33.0,-256.0,-6.0,64.0,-4.0,1
26.0,30.0,-248.0,-7.0,63.0,-3.0,1
29.0,32.0,-254.0,-7.0,63.0,-5.0,1
27.0,31.0,-251.0,-7.0,62.0,-2.0,1
28.0,31.0,-251.0,-6.0,62.0,-4.0,1
26.0,34.0,-247.0,-6.0,63.0,-3.0,1
30.0,31.0,-256.0,-7.0,65.0,-4.0,1
26.0,32.0,-249.0,-8.0,66.0,-3.0,1
31.0,31.0,-252.0,-7.0,66.0,-3.0,1
27.0,31.0,-250.0,-7.0,65.0,-3.0,1
27.0,32.0,-249.0,-7.0,64.0,-3.0,1
30.0,32.0,-251.0,-8.0,65.0,-5.0,1
31.0,30.0,-251.0,-10.0,66.0,-3.0,1
26.0,34.0,-251.0,-10.0,66.0,-3.0,1
28.0,32.0,-250.0,-10.0,65.0,-3.0,1
27.0,31.0,-250.0,-9.0,63.0,-3.0,1
29.0,34.0,-253.0,-7.0,61.0,-3.0,1
42.0,29.0,-250.0,-8.0,44.0,-7.0,1
25.0,34.0,-249.0,-6.0,31.0,-8.0,1
23.0,32.0,-252.0,-5.0,41.0,-6.0,1
27.0,32.0,-253.0,-7.0,53.0,-3.0,1
27.0,32.0,-252.0,-8.0,58.0,-5.0,1
27.0,34.0,-249.0,-10.0,61.0,-4.0,1
27.0,33.0,-250.0,-12.0,63.0,-4.0,1
27.0,31.0,-250.0,-13.0,64.0,-4.0,1
28.0,32.0,-250.0,-11.0,67.0,-4.0,1
30.0,33.0,-244.0,-9.0,68.0,-4.0,1
30.0,31.0,-253.0,-10.0,68.0,-3.0,1
28.0,34.0,-251.0,-11.0,68.0,-3.0,1
30.0,31.0,-257.0,-11.0,68.0,-4.0,1
28.0,32.0,-252.0,-11.0,67.0,-3.0,1
30.0,32.0,-252.0,-10.0,66.0,-4.0,1
29.0,32.0,-249.0,-10.0,67.0,-4.0,1
28.0,34.0,-250.0,-9.0,65.0,-2.0,1
27.0,33.0,-253.0,-9.0,64.0,-3.0,1
32.0,31.0,-250.0,-10.0,65.0,-3.0,1
28.0,31.0,-250.0,-9.0,65.0,-4.0,1
29.0,31.0,-254.0,-9.0,65.0,-4.0,1
27.0,32.0,-254.0,-9.0,66.0,-4.0,1
28.0,33.0,-250.0,-14.0,70.0,-3.0,1
28.0,33.0,-249.0,-12.0,68.0,-3.0,1
27.0,32.0,-250.0,-9.0,64.0,-3.0,1
28.0,31.0,-252.0,-9.0,63.0,-2.0,1
29.0,34.0,-252.0,-9.0,60.0,-3.0,1
26.0,35.0,-251.0,-8.0,60.0,-3.0,1
27.0,33.0,-249.0,-8.0,60.0,-3.0,1
30.0,33.0,-247.0,-7.0,59.0,-2.0,1
28.0,32.0,-252.0,-7.0,59.0,-4.0,1
28.0,37.0,-249.0,-8.0,58.0,-4.0,1
28.0,32.0,-252.0,-7.0,60.0,-4.0,1
27.0,32.0,-248.0,-9.0,61.0,-3.0,1
29.0,29.0,-253.0,-9.0,62.0,-4.0,1
31.0,32.0,-251.0,-10.0,63.0,-2.0,1
27.0,31.0,-253.0,-9.0,63.0,-5.0,1
34.0,30.0,-246.0,-4.0,72.0,-1.0,1
28.0,32.0,-248.0,-9.0,64.0,-4.0,1
29.0,31.0,-250.0,-10.0,62.0,-4.0,1
29.0,29.0,-253.0,-10.0,61.0,-6.0,1
30.0,28.0,-254.0,-11.0,61.0,-6.0,1
29.0,30.0,-249.0,-11.0,62.0,-5.0,1
26.0,35.0,-254.0,-11.0,62.0,-5.0,1
28.0,31.0,-247.0,-10.0,61.0,-4.0,1
30.0,33.0,-249.0,-10.0,62.0,-5.0,1
27.0,32.0,-252.0,-11.0,63.0,-4.0,1
27.0,30.0,-249.0,-11.0,63.0,-5.0,1
28.0,32.0,-251.0,-11.0,65.0,-4.0,1
29.0,32.0,-250.0,-11.0,65.0,-5.0,1
26.0,30.0,-251.0,-11.0,64.0,-4.0,1
28.0,33.0,-252.0,-10.0,63.0,-3.0,1
27.0,33.0,-254.0,-12.0,63.0,-4.0,1
28.0,32.0,-249.0,-12.0,60.0,-5.0,1
29.0,31.0,-251.0,-11.0,60.0,-4.0,1
27.0,31.0,-249.0,-11.0,61.0,-4.0,1
26.0,30.0,-250.0,-10.0,60.0,-5.0,1
26.0,34.0,-252.0,-10.0,60.0,-4.0,1
27.0,29.0,-251.0,-10.0,61.0,-3.0,1
28.0,32.0,-252.0,-10.0,61.0,-4.0,1
29.0,28.0,-250.0,-12.0,61.0,-5.0,1
28.0,31.0,-250.0,-14.0,60.0,-4.0,1
29.0,32.0,-251.0,-14.0,61.0,-5.0,1
29.0,31.0,-249.0,-15.0,60.0,-4.0,1
28.0,32.0,-250.0,-16.0,61.0,-5.0,1
29.0,30.0,-249.0,-16.0,61.0,-6.0,1
28.0,30.0,-250.0,-16.0,61.0,-5.0,1
29.0,30.0,-252.0,-14.0,59.0,-4.0,1
26.0,29.0,-254.0,-9.0,57.0,-4.0,1
30.0,33.0,-253.0,-10.0,55.0,-6.0,1
28.0,32.0,-249.0,-13.0,54.0,-7.0,1
30.0,31.0,-250.0,-14.0,56.0,-6.0,1
31.0,34.0,-250.0,-14.0,57.0,-7.0,1
26.0,28.0,-254.0,-13.0,57.0,-7.0,1
28.0,34.0,-250.0,-12.0,58.0,-5.0,1
27.0,29.0,-253.0,-13.0,58.0,-6.0,1
26.0,33.0,-252.0,-13.0,59.0,-7.0,1
30.0,31.0,-248.0,-15.0,60.0,-7.0,1
27.0,32.0,-249.0,-15.0,59.0,-6.0,1
26.0,32.0,-251.0,-14.0,59.0,-5.0,1
29.0,31.0,-254.0,-13.0,60.0,-5.0,1
26.0,34.0,-251.0,-12.0,61.0,-5.0,1
29.0,32.0,-249.0,-10.0,60.0,-5.0,1
27.0,33.0,-251.0,-11.0,60.0,-5.0,1
26.0,30.0,-253.0,-10.0,60.0,-5.0,1
31.0,30.0,-252.0,-11.0,62.0,-4.0,1
28.0,34.0,-251.0,-11.0,60.0,-4.0,1
26.0,32.0,-252.0,-12.0,61.0,-3.0,1
26.0,32.0,-249.0,-11.0,62.0,-4.0,1
30.0,28.0,-250.0,-10.0,61.0,-5.0,1
24.0,33.0,-251.0,-11.0,61.0,-5.0,1
26.0,33.0,-252.0,-11.0,62.0,-5.0,1
26.0,31.0,-249.0,-10.0,62.0,-4.0,1
28.0,30.0,-253.0,-10.0,61.0,-3.0,1
24.0,31.0,-253.0,-11.0,60.0,-3.0,1
28.0,40.0,-254.0,-10.0,59.0,-3.0,1
26.0,32.0,-248.0,-11.0,60.0,-4.0,1
28.0,32.0,-252.0,-11.0,59.0,-4.0,1
28.0,32.0,-248.0,-8.0,59.0,-3.0,1
28.0,32.0,-251.0,-9.0,58.0,-4.0,1
25.0,32.0,-251.0,-11.0,60.0,-3.0,1
26.0,31.0,-250.0,-11.0,62.0,-4.0,1
25.0,33.0,-253.0,-13.0,61.0,-5.0,1
29.0,31.0,-250.0,-12.0,63.0,-4.0,1
25.0,32.0,-252.0,-13.0,62.0,-4.0,1
23.0,29.0,-247.0,-13.0,63.0,-4.0,1
27.0,30.0,-251.0,-12.0,64.0,-4.0,1
26.0,34.0,-252.0,-12.0,63.0,-3.0,1
26.0,32.0,-247.0,-12.0,62.0,-3.0,1
29.0,32.0,-254.0,-12.0,63.0,-3.0,1
27.0,31.0,-251.0,-10.0,63.0,-4.0,1
26.0,31.0,-255.0,-12.0,64.0,-3.0,1
29.0,34.0,-249.0,-13.0,64.0,-6.0,1
26.0,32.0,-252.0,-13.0,64.0,-4.0,1
27.0,33.0,-251.0,-12.0,64.0,-5.0,1
27.0,34.0,-251.0,-13.0,67.0,-4.0,1
28.0,28.0,-250.0,-13.0,66.0,-4.0,1
29.0,31.0,-253.0,-13.0,65.0,-4.0,1
28.0,32.0,-251.0,-13.0,65.0,-4.0,1
27.0,33.0,-249.0,-13.0,65.0,-4.0,1
25.0,34.0,-253.0,-14.0,66.0,-3.0,1
28.0,29.0,-253.0,-13.0,66.0,-4.0,1
29.0,28.0,-250.0,-13.0,64.0,-4.0,1
24.0,31.0,-252.0,-12.0,64.0,-4.0,1
26.0,30.0,-254.0,-11.0,63.0,-4.0,1
25.0,36.0,-252.0,-12.0,64.0,-3.0,1
28.0,31.0,-253.0,-11.0,64.0,-4.0,1
29.0,32.0,-252.0,-12.0,65.0,-6.0,1
26.0,32.0,-252.0,-13.0,65.0,-4.0,1
28.0,32.0,-252.0,-13.0,65.0,-3.0,1
26.0,29.0,-250.0,-13.0,66.0,-4.0,1
26.0,33.0,-253.0,-11.0,66.0,-4.0,1
28.0,35.0,-255.0,-10.0,67.0,-4.0,1
25.0,34.0,-252.0,-10.0,66.0,-4.0,1
27.0,32.0,-251.0,-9.0,66.0,-4.0,1
28.0,30.0,-254.0,-8.0,65.0,-4.0,1
26.0,31.0,-248.0,-9.0,64.0,-4.0,1
32.0,31.0,-248.0,-7.0,64.0,-2.0,1
26.0,33.0,-254.0,-9.0,65.0,-3.0,1
28.0,32.0,-253.0,-8.0,64.0,-3.0,1
25.0,33.0,-250.0,-8.0,63.0,-3.0,1
26.0,31.0,-253.0,-8.0,65.0,-4.0,1
25.0,30.0,-252.0,-9.0,64.0,-4.0,1
27.0,29.0,-250.0,-8.0,64.0,-5.0,1
24.0,32.0,-250.0,-10.0,64.0,-4.0,1
29.0,33.0,-249.0,-10.0,63.0,-3.0,1
28.0,29.0,-249.0,-10.0,65.0,-3.0,1
26.0,29.0,-251.0,-10.0,66.0,-3.0,1
27.0,31.0,-251.0,-11.0,68.0,-2.0,1
26.0,32.0,-256.0,-10.0,67.0,-3.0,1
28.0,32.0,-251.0,-11.0,67.0,-3.0,1
26.0,32.0,-252.0,-10.0,67.0,-3.0,1
28.0,31.0,-251.0,-11.0,67.0,-2.0,1
29.0,31.0,-253.0,-10.0,66.0,-3.0,1
27.0,30.0,-249.0,-10.0,68.0,-4.0,1
30.0,31.0,-249.0,-10.0,68.0,-3.0,1
27.0,31.0,-252.0,-10.0,67.0,-4.0,1
26.0,33.0,-249.0,-11.0,66.0,-4.0,1
25.0,32.0,-250.0,-10.0,66.0,-4.0,1
27.0,34.0,-251.0,-11.0,64.0,-3.0,1
29.0,29.0,-252.0,-12.0,65.0,-4.0,1
28.0,34.0,-251.0,-10.0,66.0,-3.0,1
27.0,32.0,-252.0,-11.0,65.0,-3.0,1
27.0,32.0,-249.0,-11.0,66.0,-3.0,1
27.0,33.0,-252.0,-11.0,66.0,-4.0,1
27.0,33.0,-253.0,-12.0,66.0,-3.0,1
25.0,28.0,-251.0,-10.0,66.0,-3.0,1
24.0,31.0,-254.0,-12.0,66.0,-4.0,1
26.0,30.0,-250.0,-11.0,66.0,-5.0,1
25.0,35.0,-250.0,-12.0,65.0,-5.0,1
29.0,31.0,-254.0,-12.0,65.0,-3.0,1
27.0,31.0,-251.0,-12.0,65.0,-2.0,1
28.0,32.0,-246.0,-11.0,65.0,-4.0,1
26.0,31.0,-252.0,-10.0,65.0,-4.0,1
26.0,32.0,-252.0,-10.0,64.0,-4.0,1
26.0,30.0,-250.0,-12.0,64.0,-5.0,1
29.0,31.0,-251.0,-10.0,63.0,-4.0,1
28.0,31.0,-247.0,-10.0,63.0,-5.0,1
26.0,31.0,-255.0,-10.0,63.0,-4.0,1
26.0,28.0,-252.0,-10.0,64.0,-4.0,1
25.0,30.0,-252.0,-9.0,65.0,-5.0,1
28.0,30.0,-251.0,-9.0,65.0,-5.0,1
25.0,31.0,-249.0,-11.0,66.0,-4.0,1
26.0,31.0,-252.0,-12.0,66.0,-4.0,1
25.0,33.0,-248.0,-14.0,66.0,-4.0,1
25.0,35.0,-248.0,-17.0,66.0,-3.0,1
26.0,33.0,-252.0,-15.0,66.0,-5.0,1
27.0,31.0,-252.0,-15.0,64.0,-5.0,1
26.0,32.0,-248.0,-14.0,63.0,-4.0,1
26.0,33.0,-253.0,-10.0,60.0,-5.0,1
26.0,30.0,-256.0,-7.0,59.0,-4.0,1
23.0,31.0,-253.0,-6.0,58.0,-4.0,1
25.0,32.0,-251.0,-7.0,58.0,-5.0,1
30.0,28.0,-251.0,-9.0,59.0,-5.0,1
26.0,30.0,-253.0,-10.0,60.0,-5.0,1
28.0,32.0,-250.0,-11.0,60.0,-5.0,1
25.0,31.0,-253.0,-10.0,60.0,-5.0,1
26.0,32.0,-250.0,-11.0,60.0,-5.0,1
26.0,29.0,-251.0,-14.0,61.0,-5.0,1
25.0,30.0,-252.0,-14.0,63.0,-4.0,1
24.0,33.0,-250.0,-14.0,62.0,-4.0,1
27.0,30.0,-255.0,-13.0,65.0,-4.0,1
26.0,29.0,-251.0,-13.0,64.0,-4.0,1
28.0,30.0,-251.0,-11.0,63.0,-4.0,1
28.0,30.0,-252.0,-9.0,63.0,-4.0,1
27.0,33.0,-253.0,-8.0,62.0,-5.0,1
29.0,33.0,-251.0,-7.0,61.0,-4.0,1
25.0,32.0,-253.0,-8.0,62.0,-4.0,1
22.0,31.0,-251.0,-9.0,63.0,-3.0,1
24.0,33.0,-249.0,-10.0,65.0,-4.0,1
23.0,31.0,-253.0,-10.0,64.0,-3.0,1
27.0,31.0,-249.0,-10.0,65.0,-2.0,1
27.0,34.0,-252.0,-9.0,63.0,-3.0,1
27.0,31.0,-251.0,-9.0,65.0,-3.0,1
23.0,31.0,-253.0,-8.0,65.0,-4.0,1
27.0,30.0,-254.0,-8.0,65.0,-3.0,1
26.0,32.0,-249.0,-7.0,64.0,-4.0,1
27.0,31.0,-253.0,-7.0,64.0,-3.0,1
23.0,32.0,-253.0,-6.0,63.0,-4.0,1
26.0,31.0,-254.0,-5.0,64.0,-4.0,1
25.0,31.0,-251.0,-6.0,65.0,-2.0,1
26.0,32.0,-249.0,-6.0,65.0,-3.0,1
25.0,29.0,-251.0,-7.0,65.0,-2.0,1
27.0,31.0,-250.0,-8.0,63.0,-4.0,1
26.0,31.0,-250.0,-7.0,63.0,-5.0,1
25.0,32.0,-250.0,-6.0,63.0,-4.0,1
28.0,31.0,-251.0,-6.0,64.0,-2.0,1
25.0,32.0,-247.0,-7.0,63.0,-3.0,1
27.0,32.0,-250.0,-9.0,63.0,-4.0,1
25.0,34.0,-252.0,-8.0,63.0,-3.0,1
29.0,28.0,-252.0,-7.0,63.0,-4.0,1
25.0,30.0,-253.0,-7.0,63.0,-3.0,1
27.0,33.0,-251.0,-8.0,63.0,-3.0,1
25.0,33.0,-252.0,-9.0,62.0,-3.0,1
26.0,30.0,-251.0,-9.0,64.0,-4.0,1
24.0,31.0,-253.0,-10.0,64.0,-3.0,1
26.0,31.0,-251.0,-11.0,65.0,-3.0,1
25.0,32.0,-250.0,-10.0,65.0,-2.0,1
24.0,29.0,-252.0,-10.0,64.0,-4.0,1
25.0,32.0,-253.0,-11.0,65.0,-4.0,1
23.0,32.0,-254.0,-11.0,65.0,-4.0,1
24.0,31.0,-251.0,-11.0,65.0,-3.0,1
28.0,32.0,-249.0,-10.0,64.0,-4.0,1
29.0,32.0,-249.0,-10.0,64.0,-3.0,1
24.0,34.0,-259.0,-10.0,63.0,-3.0,1
23.0,33.0,-252.0,-10.0,64.0,-2.0,1
24.0,32.0,-252.0,-10.0,65.0,-4.0,1
25.0,32.0,-250.0,-10.0,65.0,-4.0,1
27.0,32.0,-251.0,-12.0,65.0,-3.0,1
24.0,31.0,-249.0,-11.0,64.0,-4.0,1
26.0,31.0,-251.0,-11.0,65.0,-4.0,1
26.0,34.0,-252.0,-11.0,65.0,-4.0,1
26.0,33.0,-250.0,-11.0,63.0,-3.0,1
30.0,32.0,-250.0,-10.0,63.0,-3.0,1
24.0,33.0,-252.0,-9.0,62.0,-4.0,1
24.0,30.0,-251.0,-9.0,63.0,-4.0,1
28.0,31.0,-251.0,-9.0,63.0,-4.0,1
25.0,31.0,-253.0,-8.0,62.0,-3.0,1
25.0,32.0,-251.0,-8.0,63.0,-4.0,1
21.0,35.0,-252.0,-6.0,65.0,-4.0,1
27.0,32.0,-249.0,-3.0,69.0,-3.0,1
27.0,29.0,-252.0,-7.0,65.0,-2.0,1
26.0,32.0,-251.0,-7.0,65.0,-3.0,1
26.0,32.0,-249.0,-8.0,64.0,-3.0,1
27.0,33.0,-252.0,-10.0,63.0,-3.0,1
25.0,31.0,-253.0,-10.0,65.0,-3.0,1
25.0,33.0,-255.0,-10.0,66.0,-5.0,1
26.0,33.0,-251.0,-9.0,67.0,-5.0,1
26.0,33.0,-249.0,-10.0,65.0,-5.0,1
25.0,31.0,-253.0,-9.0,63.0,-4.0,1
25.0,32.0,-253.0,-10.0,64.0,-4.0,1
24.0,30.0,-255.0,-10.0,65.0,-3.0,1
24.0,30.0,-251.0,-11.0,66.0,-3.0,1
27.0,32.0,-252.0,-10.0,67.0,-3.0,1
26.0,31.0,-249.0,-11.0,65.0,-4.0,1
26.0,30.0,-252.0,-11.0,65.0,-4.0,1
23.0,32.0,-252.0,-11.0,66.0,-4.0,1
24.0,33.0,-250.0,-11.0,66.0,-2.0,1
26.0,32.0,-253.0,-9.0,65.0,-3.0,1
27.0,28.0,-253.0,-9.0,65.0,-2.0,1
26.0,32.0,-254.0,-11.0,66.0,-3.0,1
25.0,33.0,-256.0,-10.0,66.0,-3.0,1
26.0,32.0,-250.0,-9.0,66.0,-3.0,1
24.0,30.0,-256.0,-10.0,67.0,-3.0,1
25.0,30.0,-249.0,-11.0,67.0,-2.0,1
24.0,31.0,-258.0,-11.0,67.0,-4.0,1
25.0,31.0,-251.0,-12.0,67.0,-4.0,1
21.0,27.0,-246.0,-11.0,67.0,-4.0,1
24.0,33.0,-251.0,-12.0,67.0,-3.0,1
25.0,31.0,-254.0,-11.0,66.0,-3.0,1
24.0,32.0,-255.0,-13.0,66.0,-3.0,1
24.0,33.0,-248.0,-13.0,66.0,-4.0,1
24.0,30.0,-250.0,-12.0,64.0,-4.0,1
23.0,32.0,-253.0,-13.0,66.0,-3.0,1
25.0,32.0,-251.0,-12.0,66.0,-3.0,1
26.0,30.0,-251.0,-11.0,65.0,-5.0,1
28.0,31.0,-251.0,-12.0,64.0,-3.0,1
27.0,30.0,-253.0,-11.0,64.0,-3.0,1
25.0,32.0,-253.0,-9.0,65.0,-4.0,1
27.0,29.0,-250.0,-7.0,65.0,-3.0,1
26.0,31.0,-252.0,-8.0,65.0,-4.0,1
26.0,35.0,-253.0,-6.0,66.0,-2.0,1
26.0,31.0,-251.0,-8.0,65.0,-2.0,1
25.0,33.0,-251.0,-8.0,64.0,-2.0,1
25.0,32.0,-254.0,-9.0,65.0,-3.0,1
29.0,27.0,-253.0,-11.0,67.0,-3.0,1
25.0,30.0,-251.0,-13.0,68.0,-3.0,1
26.0,32.0,-251.0,-14.0,66.0,-4.0,1
31.0,30.0,-246.0,-15.0,66.0,-4.0,1
27.0,31.0,-252.0,-13.0,66.0,-4.0,1
24.0,32.0,-250.0,-10.0,65.0,-4.0,1
27.0,32.0,-256.0,-6.0,64.0,-5.0,1
25.0,32.0,-254.0,-6.0,64.0,-4.0,1
25.0,31.0,-253.0,-7.0,64.0,-4.0,1
25.0,28.0,-252.0,-10.0,65.0,-4.0,1
27.0,29.0,-252.0,-11.0,66.0,-3.0,1
26.0,30.0,-250.0,-10.0,67.0,-3.0,1
27.0,28.0,-250.0,-12.0,66.0,-4.0,1
27.0,31.0,-250.0,-11.0,65.0,-5.0,1
25.0,29.0,-252.0,-12.0,66.0,-5.0,1
28.0,32.0,-250.0,-13.0,68.0,-4.0,1
22.0,30.0,-251.0,-13.0,67.0,-3.0,1
27.0,32.0,-247.0,-12.0,69.0,-4.0,1
29.0,30.0,-255.0,-11.0,68.0,-5.0,1
27.0,28.0,-252.0,-12.0,67.0,-5.0,1
25.0,34.0,-253.0,-11.0,67.0,-4.0,1
19.0,36.0,-256.0,-11.0,68.0,-4.0,1
28.0,28.0,-250.0,-4.0,77.0,-2.0,1
30.0,30.0,-248.0,-10.0,70.0,-3.0,1
27.0,31.0,-250.0,-12.0,67.0,-3.0,1
25.0,31.0,-254.0,-11.0,65.0,-4.0,1
27.0,28.0,-249.0,-11.0,65.0,-3.0,1
25.0,31.0,-251.0,-12.0,65.0,-3.0,1
26.0,32.0,-253.0,-13.0,65.0,-5.0,1
26.0,32.0,-249.0,-12.0,65.0,-4.0,1
24.0,29.0,-251.0,-11.0,65.0,-4.0,1
27.0,32.0,-253.0,-10.0,66.0,-2.0,1
26.0,29.0,-249.0,-11.0,65.0,-4.0,1
27.0,31.0,-251.0,-9.0,65.0,-3.0,1
27.0,31.0,-253.0,-10.0,65.0,-3.0,1
24.0,33.0,-255.0,-10.0,66.0,-3.0,1
26.0,32.0,-252.0,-11.0,65.0,-3.0,1
25.0,30.0,-250.0,-10.0,67.0,-2.0,1
25.0,34.0,-251.0,-9.0,66.0,-2.0,1
26.0,29.0,-251.0,-10.0,67.0,-3.0,1
27.0,30.0,-250.0,-10.0,66.0,-3.0,1
27.0,30.0,-255.0,-10.0,67.0,-3.0,1
23.0,33.0,-251.0,-10.0,66.0,-2.0,1
27.0,33.0,-254.0,-10.0,65.0,-1.0,1
24.0,31.0,-253.0,-10.0,65.0,-3.0,1
27.0,32.0,-252.0,-10.0,65.0,-2.0,1
26.0,31.0,-253.0,-10.0,65.0,-2.0,1
26.0,32.0,-251.0,-9.0,65.0,-2.0,1
26.0,32.0,-251.0,-9.0,65.0,-3.0,1
27.0,31.0,-253.0,-10.0,65.0,-4.0,1
26.0,29.0,-255.0,-11.0,66.0,-3.0,1
25.0,33.0,-251.0,-10.0,67.0,-3.0,1
26.0,31.0,-248.0,-11.0,66.0,-2.0,1
23.0,32.0,-255.0,-10.0,65.0,-3.0,1
26.0,31.0,-250.0,-11.0,66.0,-3.0,1
24.0,31.0,-251.0,-10.0,65.0,-4.0,1
26.0,31.0,-254.0,-11.0,64.0,-3.0,1
24.0,32.0,-252.0,-12.0,66.0,-4.0,1
28.0,31.0,-251.0,-11.0,66.0,-3.0,1
24.0,31.0,-253.0,-9.0,65.0,-3.0,1
25.0,27.0,-252.0,-11.0,64.0,-4.0,1
25.0,36.0,-249.0,-10.0,64.0,-3.0,1
27.0,30.0,-254.0,-11.0,64.0,-4.0,1
22.0,33.0,-253.0,-10.0,64.0,-4.0,1
28.0,30.0,-251.0,-11.0,64.0,-4.0,1
25.0,31.0,-249.0,-12.0,64.0,-3.0,1
25.0,29.0,-248.0,-11.0,64.0,-4.0,1
25.0,31.0,-254.0,-12.0,63.0,-5.0,1
27.0,31.0,-251.0,-11.0,65.0,-5.0,1
25.0,33.0,-251.0,-12.0,64.0,-4.0,1
24.0,35.0,-250.0,-11.0,63.0,-3.0,1
26.0,30.0,-251.0,-11.0,64.0,-4.0,1
26.0,31.0,-252.0,-11.0,64.0,-3.0,1
28.0,32.0,-252.0,-11.0,64.0,-3.0,1
24.0,32.0,-254.0,-11.0,64.0,-2.0,1
26.0,32.0,-255.0,-12.0,64.0,-3.0,1
27.0,34.0,-253.0,-13.0,65.0,-4.0,1
27.0,33.0,-250.0,-12.0,64.0,-4.0,1
25.0,32.0,-252.0,-12.0,64.0,-3.0,1
27.0,29.0,-251.0,-11.0,64.0,-3.0,1
27.0,29.0,-252.0,-11.0,66.0,-4.0,1
26.0,31.0,-250.0,-10.0,64.0,-3.0,1
28.0,34.0,-251.0,-11.0,65.0,-2.0,1
27.0,32.0,-253.0,-11.0,66.0,-4.0,1
25.0,33.0,-252.0,-12.0,65.0,-4.0,1
24.0,27.0,-251.0,-11.0,65.0,-3.0,1
26.0,31.0,-252.0,-11.0,65.0,-3.0,1
23.0,34.0,-248.0,-11.0,65.0,-3.0,1
27.0,35.0,-254.0,-11.0,64.0,-2.0,1
26.0,33.0,-253.0,-11.0,64.0,-4.0,1
26.0,29.0,-251.0,-11.0,65.0,-4.0,1
26.0,31.0,-253.0,-10.0,65.0,-5.0,1
23.0,31.0,-254.0,-11.0,66.0,-5.0,1
23.0,30.0,-252.0,-9.0,65.0,-5.0,1
24.0,28.0,-250.0,-10.0,65.0,-4.0,1
23.0,31.0,-248.0,-10.0,64.0,-4.0,1
26.0,30.0,-253.0,-10.0,66.0,-3.0,1
27.0,33.0,-251.0,-11.0,66.0,-3.0,1
24.0,30.0,-252.0,-11.0,66.0,-4.0,1
23.0,31.0,-251.0,-13.0,66.0,-4.0,1
25.0,29.0,-254.0,-11.0,67.0,-4.0,1
25.0,34.0,-253.0,-13.0,66.0,-4.0,1
24.0,34.0,-252.0,-11.0,67.0,-4.0,1
28.0,32.0,-253.0,-11.0,66.0,-4.0,1
24.0,30.0,-253.0,-11.0,66.0,-3.0,1
26.0,30.0,-254.0,-12.0,66.0,-4.0,1
24.0,32.0,-251.0,-11.0,66.0,-4.0,1
26.0,34.0,-250.0,-11.0,67.0,-5.0,1
26.0,31.0,-249.0,-11.0,66.0,-3.0,1
24.0,31.0,-252.0,-11.0,66.0,-3.0,1
27.0,27.0,-248.0,-11.0,66.0,-3.0,1
23.0,30.0,-253.0,-12.0,67.0,-3.0,1
24.0,30.0,-251.0,-11.0,66.0,-4.0,1
24.0,31.0,-251.0,-12.0,67.0,-5.0,1
23.0,33.0,-254.0,-12.0,67.0,-4.0,1
23.0,31.0,-253.0,-13.0,66.0,-4.0,1
27.0,31.0,-249.0,-11.0,66.0,-4.0,1
27.0,32.0,-250.0,-8.0,66.0,-5.0,1
27.0,32.0,-251.0,-8.0,67.0,-3.0,1
25.0,30.0,-253.0,-7.0,68.0,-3.0,1
24.0,33.0,-251.0,-8.0,68.0,-3.0,1
26.0,28.0,-249.0,-8.0,69.0,-2.0,1
25.0,33.0,-249.0,-7.0,69.0,-3.0,1
26.0,32.0,-251.0,-10.0,69.0,-3.0,1
27.0,31.0,-255.0,-12.0,69.0,-3.0,1
23.0,33.0,-251.0,-14.0,70.0,-4.0,1
27.0,28.0,-250.0,-14.0,70.0,-3.0,1
22.0,33.0,-250.0,-15.0,69.0,-3.0,1
26.0,30.0,-251.0,-14.0,70.0,-4.0,1
25.0,30.0,-250.0,-11.0,68.0,-3.0,1
26.0,30.0,-250.0,-8.0,65.0,-4.0,1
25.0,23.0,-252.0,-7.0,64.0,-5.0,1
25.0,28.0,-257.0,-8.0,65.0,-3.0,1
26.0,31.0,-253.0,-9.0,65.0,-4.0,1
26.0,29.0,-249.0,-8.0,66.0,-5.0,1
25.0,30.0,-255.0,-8.0,67.0,-2.0,1
25.0,29.0,-256.0,-9.0,67.0,-2.0,1
25.0,33.0,-250.0,-10.0,66.0,-3.0,1
25.0,31.0,-250.0,-10.0,67.0,-2.0,1
25.0,33.0,-252.0,-12.0,68.0,-3.0,1
23.0,34.0,-250.0,-11.0,68.0,-4.0,1
20.0,32.0,-252.0,-12.0,67.0,-5.0,1
24.0,31.0,-253.0,-11.0,67.0,-4.0,1
24.0,30.0,-248.0,-10.0,67.0,-1.0,1
26.0,31.0,-250.0,-8.0,67.0,-4.0,1
27.0,30.0,-255.0,-8.0,67.0,-4.0,1
26.0,32.0,-255.0,-8.0,66.0,-3.0,1
24.0,30.0,-249.0,-10.0,66.0,-2.0,1
25.0,32.0,-250.0,-11.0,67.0,-2.0,1
23.0,29.0,-251.0,-10.0,67.0,-3.0,1
27.0,29.0,-254.0,-11.0,67.0,-4.0,1
26.0,33.0,-248.0,-10.0,66.0,-3.0,1
22.0,32.0,-254.0,-10.0,66.0,-3.0,1
26.0,33.0,-253.0,-11.0,66.0,-3.0,1
28.0,28.0,-249.0,-11.0,66.0,-5.0,1
24.0,28.0,-253.0,-11.0,66.0,-4.0,1
24.0,31.0,-252.0,-10.0,67.0,-3.0,1
24.0,35.0,-256.0,-10.0,66.0,-3.0,1
23.0,30.0,-253.0,-10.0,65.0,-2.0,1
29.0,30.0,-249.0,-10.0,67.0,-3.0,1
25.0,31.0,-253.0,-8.0,65.0,-3.0,1
25.0,31.0,-253.0,-9.0,66.0,-3.0,1
25.0,32.0,-253.0,-9.0,66.0,-2.0,1
22.0,30.0,-253.0,-10.0,67.0,-3.0,1
26.0,32.0,-254.0,-10.0,67.0,-3.0,1
25.0,30.0,-252.0,-9.0,68.0,-2.0,1
23.0,30.0,-250.0,-10.0,68.0,-3.0,1
23.0,32.0,-252.0,-10.0,68.0,-3.0,1
26.0,32.0,-252.0,-11.0,67.0,-4.0,1
26.0,32.0,-253.0,-11.0,66.0,-5.0,1
23.0,34.0,-249.0,-13.0,66.0,-4.0,1
27.0,30.0,-249.0,-11.0,65.0,-4.0,1
24.0,29.0,-251.0,-12.0,65.0,-3.0,1
27.0,30.0,-253.0,-10.0,67.0,-3.0,1
25.0,31.0,-253.0,-11.0,66.0,-4.0,1
23.0,29.0,-248.0,-12.0,65.0,-4.0,1
28.0,31.0,-255.0,-12.0,66.0,-4.0,1
24.0,32.0,-250.0,-12.0,67.0,-4.0,1
23.0,31.0,-250.0,-12.0,66.0,-3.0,1
26.0,33.0,-250.0,-11.0,67.0,-4.0,1
27.0,32.0,-250.0,-11.0,67.0,-3.0,1
24.0,33.0,-252.0,-11.0,67.0,-3.0,1
24.0,32.0,-253.0,-11.0,66.0,-5.0,1
25.0,33.0,-251.0,-12.0,68.0,-4.0,1
25.0,31.0,-256.0,-12.0,66.0,-4.0,1
25.0,34.0,-253.0,-13.0,67.0,-3.0,1
25.0,29.0,-252.0,-12.0,66.0,-4.0,1
23.0,30.0,-250.0,-11.0,66.0,-4.0,1
26.0,30.0,-251.0,-12.0,65.0,-5.0,1
23.0,31.0,-251.0,-11.0,64.0,-5.0,1
25.0,33.0,-251.0,-12.0,67.0,-4.0,1
24.0,28.0,-252.0,-13.0,66.0,-4.0,1
22.0,33.0,-253.0,-12.0,66.0,-4.0,1
27.0,32.0,-253.0,-12.0,66.0,-4.0,1
25.0,34.0,-253.0,-11.0,69.0,-3.0,1
28.0,27.0,-248.0,-11.0,68.0,-5.0,1
24.0,33.0,-253.0,-11.0,67.0,-4.0,1
26.0,30.0,-253.0,-11.0,67.0,-5.0,1
23.0,34.0,-249.0,-11.0,66.0,-3.0,1
25.0,32.0,-252.0,-10.0,67.0,-4.0,1
24.0,32.0,-251.0,-10.0,66.0,-3.0,1
25.0,34.0,-251.0,-11.0,65.0,-3.0,1
25.0,31.0,-250.0,-10.0,66.0,-4.0,1
25.0,29.0,-252.0,-10.0,65.0,-4.0,1
24.0,28.0,-249.0,-10.0,66.0,-3.0,1
25.0,31.0,-252.0,-10.0,68.0,-3.0,1
25.0,30.0,-250.0,-10.0,68.0,-2.0,1
24.0,33.0,-251.0,-10.0,69.0,-2.0,1
25.0,33.0,-250.0,-12.0,67.0,-2.0,1
24.0,30.0,-249.0,-11.0,67.0,-2.0,1
25.0,31.0,-254.0,-11.0,67.0,-3.0,1
22.0,29.0,-252.0,-11.0,66.0,-2.0,1
26.0,34.0,-253.0,-11.0,67.0,-3.0,1
26.0,30.0,-252.0,-10.0,67.0,-2.0,1
25.0,32.0,-251.0,-10.0,65.0,-3.0,1
24.0,30.0,-252.0,-10.0,67.0,-3.0,1
25.0,30.0,-250.0,-11.0,68.0,-3.0,1
26.0,37.0,-253.0,-12.0,66.0,-3.0,1
22.0,30.0,-251.0,-11.0,66.0,-4.0,1
24.0,30.0,-250.0,-10.0,67.0,-3.0,1
25.0,31.0,-254.0,-11.0,66.0,-3.0,1
26.0,32.0,-253.0,-10.0,66.0,-3.0,1
26.0,31.0,-251.0,-12.0,66.0,-2.0,1
23.0,31.0,-254.0,-11.0,65.0,-4.0,1
24.0,28.0,-252.0,-10.0,68.0,-2.0,1
25.0,31.0,-249.0,-11.0,67.0,-3.0,1
24.0,31.0,-250.0,-10.0,66.0,-3.0,1
24.0,30.0,-252.0,-12.0,68.0,-4.0,1
25.0,32.0,-248.0,-11.0,67.0,-4.0,1
25.0,29.0,-249.0,-12.0,66.0,-3.0,1
26.0,31.0,-251.0,-12.0,66.0,-4.0,1
25.0,31.0,-252.0,-10.0,67.0,-3.0,1
26.0,27.0,-252.0,-10.0,67.0,-3.0,1
26.0,29.0,-253.0,-10.0,67.0,-4.0,1
26.0,33.0,-250.0,-12.0,66.0,-3.0,1
27.0,30.0,-252.0,-11.0,68.0,-3.0,1
26.0,29.0,-251.0,-11.0,66.0,-4.0,1
25.0,31.0,-257.0,-11.0,67.0,-4.0,1
27.0,29.0,-253.0,-12.0,65.0,-4.0,1
24.0,28.0,-255.0,-12.0,65.0,-3.0,1
24.0,30.0,-252.0,-13.0,64.0,-2.0,1
25.0,29.0,-248.0,-13.0,64.0,-4.0,1
23.0,31.0,-255.0,-13.0,65.0,-4.0,1
22.0,32.0,-252.0,-11.0,67.0,-4.0,1
27.0,31.0,-249.0,-12.0,66.0,-4.0,1
27.0,33.0,-251.0,-12.0,65.0,-4.0,1
22.0,31.0,-251.0,-10.0,65.0,-4.0,1
21.0,29.0,-249.0,-10.0,64.0,-3.0,1
27.0,31.0,-251.0,-8.0,65.0,-3.0,1
24.0,31.0,-253.0,-9.0,66.0,-4.0,1
25.0,33.0,-255.0,-8.0,65.0,-3.0,1
25.0,30.0,-251.0,-9.0,65.0,-3.0,1
25.0,31.0,-250.0,-11.0,67.0,-2.0,1
24.0,32.0,-249.0,-11.0,68.0,-4.0,1
24.0,32.0,-254.0,-13.0,69.0,-4.0,1
26.0,31.0,-253.0,-15.0,70.0,-4.0,1
23.0,31.0,-249.0,-15.0,68.0,-5.0,1
24.0,32.0,-249.0,-15.0,69.0,-4.0,1
23.0,29.0,-249.0,-13.0,66.0,-4.0,1
24.0,28.0,-263.0,-10.0,65.0,-3.0,1
27.0,28.0,-252.0,-8.0,63.0,-3.0,1
24.0,30.0,-253.0,-8.0,62.0,-4.0,1
27.0,30.0,-253.0,-10.0,65.0,-3.0,1
23.0,29.0,-249.0,-11.0,66.0,-4.0,1
24.0,32.0,-250.0,-10.0,66.0,-2.0,1
23.0,32.0,-248.0,-11.0,66.0,-4.0,1
25.0,32.0,-250.0,-9.0,66.0,-3.0,1
23.0,31.0,-251.0,-10.0,66.0,-3.0,1
23.0,32.0,-250.0,-11.0,67.0,-2.0,1
18.0,29.0,-248.0,-12.0,67.0,-3.0,1
28.0,29.0,-253.0,-14.0,71.0,-3.0,1
24.0,32.0,-248.0,-14.0,73.0,-4.0,1
24.0,32.0,-253.0,-10.0,68.0,-3.0,1
11.0,38.0,-259.0,-9.0,68.0,-3.0,1
26.0,28.0,-246.0,-1.0,79.0,0.0,1
25.0,35.0,-251.0,-8.0,69.0,-2.0,1
24.0,28.0,-253.0,-9.0,64.0,-3.0,1
24.0,29.0,-251.0,-9.0,65.0,-4.0,1
23.0,31.0,-251.0,-10.0,64.0,-5.0,1
24.0,30.0,-251.0,-11.0,64.0,-4.0,1
24.0,28.0,-251.0,-10.0,65.0,-4.0,1
25.0,25.0,-250.0,-10.0,66.0,-3.0,1
23.0,29.0,-253.0,-10.0,67.0,-3.0,1
23.0,31.0,-251.0,-10.0,66.0,-3.0,1
25.0,32.0,-250.0,-10.0,65.0,-2.0,1
27.0,32.0,-250.0,-10.0,66.0,-2.0,1
23.0,34.0,-254.0,-10.0,66.0,-4.0,1
25.0,30.0,-252.0,-9.0,65.0,-3.0,1
25.0,29.0,-253.0,-9.0,64.0,-4.0,1
23.0,31.0,-252.0,-9.0,64.0,-4.0,1
24.0,28.0,-256.0,-11.0,65.0,-4.0,1
22.0,30.0,-251.0,-9.0,66.0,-2.0,1
22.0,31.0,-254.0,-10.0,66.0,-3.0,1
27.0,30.0,-251.0,-11.0,65.0,-3.0,1
26.0,30.0,-255.0,-11.0,66.0,-4.0,1
27.0,29.0,-250.0,-10.0,66.0,-3.0,1
23.0,29.0,-250.0,-11.0,66.0,-3.0,1
23.0,32.0,-253.0,-12.0,66.0,-3.0,1
25.0,29.0,-254.0,-11.0,65.0,-4.0,1
26.0,30.0,-251.0,-11.0,65.0,-5.0,1
25.0,31.0,-249.0,-11.0,63.0,-1.0,1
25.0,33.0,-250.0,-12.0,66.0,-3.0,1
27.0,31.0,-254.0,-11.0,65.0,-3.0,1
25.0,31.0,-251.0,-9.0,65.0,-4.0,1
23.0,31.0,-252.0,-11.0,64.0,-4.0,1
25.0,26.0,-250.0,-11.0,64.0,-3.0,1
25.0,31.0,-253.0,-13.0,62.0,-4.0,1
27.0,30.0,-250.0,-13.0,62.0,-4.0,1
24.0,31.0,-249.0,-10.0,62.0,-5.0,1
24.0,31.0,-251.0,-10.0,62.0,-5.0,1
24.0,31.0,-248.0,-8.0,62.0,-5.0,1
24.0,30.0,-249.0,-11.0,63.0,-4.0,1
45.0,31.0,-257.0,-11.0,57.0,-4.0,1
16.0,34.0,-243.0,-14.0,46.0,-7.0,1
21.0,32.0,-255.0,-6.0,55.0,-4.0,1
23.0,32.0,-254.0,-7.0,59.0,-4.0,1
23.0,30.0,-256.0,-9.0,61.0,-4.0,1
24.0,29.0,-249.0,-11.0,64.0,-4.0,1
23.0,29.0,-251.0,-13.0,66.0,-4.0,1
23.0,31.0,-254.0,-11.0,65.0,-3.0,1
26.0,30.0,-250.0,-11.0,66.0,-3.0,1
25.0,30.0,-255.0,-9.0,68.0,-3.0,1
26.0,33.0,-249.0,-12.0,68.0,-2.0,1
17.0,29.0,-255.0,-11.0,67.0,-3.0,1
26.0,30.0,-253.0,-10.0,64.0,-2.0,1
26.0,32.0,-254.0,-9.0,63.0,-4.0,1
24.0,32.0,-252.0,-11.0,66.0,-3.0,1
21.0,31.0,-252.0,-10.0,67.0,-2.0,1
22.0,29.0,-252.0,-9.0,67.0,-2.0,1
25.0,29.0,-250.0,-10.0,66.0,-3.0,1
25.0,28.0,-254.0,-10.0,64.0,-4.0,1
24.0,31.0,-250.0,-9.0,65.0,-4.0,1
22.0,31.0,-253.0,-10.0,64.0,-3.0,1
23.0,30.0,-254.0,-11.0,64.0,-3.0,1
22.0,31.0,-253.0,-11.0,65.0,-4.0,1
23.0,33.0,-250.0,-11.0,65.0,-5.0,1
25.0,30.0,-251.0,-9.0,66.0,-5.0,1
26.0,31.0,-253.0,-10.0,68.0,-4.0,1
24.0,28.0,-252.0,-9.0,66.0,-4.0,1
25.0,32.0,-256.0,-7.0,64.0,-4.0,1
22.0,32.0,-251.0,-7.0,65.0,-3.0,1
23.0,31.0,-251.0,-8.0,66.0,-3.0,1
26.0,29.0,-253.0,-10.0,67.0,-2.0,1
21.0,31.0,-250.0,-9.0,69.0,-3.0,1
25.0,28.0,-253.0,-9.0,69.0,-4.0,1
24.0,31.0,-245.0,-9.0,68.0,-4.0,1
24.0,29.0,-253.0,-9.0,68.0,-3.0,1
23.0,31.0,-251.0,-10.0,67.0,-3.0,1
23.0,31.0,-253.0,-10.0,66.0,-4.0,1
25.0,32.0,-252.0,-9.0,66.0,-2.0,1
24.0,29.0,-252.0,-9.0,67.0,-3.0,1
26.0,31.0,-252.0,-9.0,65.0,-3.0,1
26.0,29.0,-255.0,-9.0,67.0,-2.0,1
22.0,28.0,-251.0,-11.0,65.0,-3.0,1
23.0,32.0,-254.0,-10.0,65.0,-3.0,1
25.0,30.0,-257.0,-9.0,65.0,-4.0,1
24.0,30.0,-250.0,-9.0,65.0,-4.0,1
25.0,32.0,-254.0,-11.0,64.0,-4.0,1
25.0,29.0,-249.0,-11.0,64.0,-3.0,1
26.0,30.0,-253.0,-10.0,65.0,-2.0,1
25.0,28.0,-251.0,-10.0,65.0,-3.0,1
26.0,31.0,-252.0,-10.0,64.0,-4.0,1
22.0,30.0,-252.0,-11.0,65.0,-4.0,1
22.0,31.0,-252.0,-10.0,65.0,-4.0,1
22.0,30.0,-255.0,-10.0,65.0,-4.0,1
26.0,30.0,-253.0,-10.0,64.0,-3.0,1
25.0,31.0,-253.0,-10.0,65.0,-2.0,1
25.0,30.0,-251.0,-10.0,64.0,-4.0,1
26.0,31.0,-253.0,-12.0,65.0,-3.0,1
24.0,29.0,-250.0,-11.0,65.0,-4.0,1
23.0,33.0,-250.0,-10.0,64.0,-4.0,1
25.0,30.0,-250.0,-11.0,64.0,-5.0,1
24.0,31.0,-251.0,-11.0,64.0,-4.0,1
25.0,27.0,-251.0,-11.0,65.0,-4.0,1
22.0,31.0,-255.0,-11.0,65.0,-4.0,1
25.0,26.0,-252.0,-11.0,65.0,-3.0,1
21.0,30.0,-254.0,-11.0,65.0,-4.0,1
23.0,28.0,-253.0,-10.0,65.0,-4.0,1
22.0,31.0,-253.0,-11.0,64.0,-3.0,1
23.0,32.0,-252.0,-12.0,63.0,-3.0,1
23.0,30.0,-254.0,-13.0,65.0,-2.0,1
25.0,28.0,-257.0,-12.0,64.0,-2.0,1
27.0,31.0,-252.0,-12.0,64.0,-3.0,1
22.0,31.0,-253.0,-12.0,63.0,-4.0,1
22.0,32.0,-251.0,-13.0,64.0,-5.0,1
24.0,30.0,-248.0,-13.0,65.0,-6.0,1
21.0,29.0,-247.0,-12.0,64.0,-4.0,1
26.0,36.0,-249.0,-13.0,64.0,-4.0,1
25.0,29.0,-254.0,-13.0,64.0,-4.0,1
23.0,29.0,-252.0,-13.0,65.0,-4.0,1
22.0,31.0,-252.0,-14.0,65.0,-3.0,1
24.0,30.0,-248.0,-14.0,66.0,-3.0,1
26.0,30.0,-250.0,-14.0,65.0,-3.0,1
25.0,29.0,-250.0,-14.0,66.0,-2.0,1
25.0,30.0,-250.0,-14.0,66.0,-4.0,1
24.0,31.0,-253.0,-12.0,66.0,-3.0,1
24.0,29.0,-251.0,-9.0,64.0,-3.0,1
22.0,33.0,-253.0,-10.0,66.0,-3.0,1
26.0,30.0,-253.0,-10.0,66.0,-3.0,1
22.0,32.0,-253.0,-10.0,66.0,-3.0,1
24.0,33.0,-247.0,-11.0,66.0,-2.0,1
25.0,29.0,-250.0,-12.0,67.0,-2.0,1
23.0,31.0,-252.0,-15.0,68.0,-3.0,1
23.0,29.0,-249.0,-16.0,70.0,-3.0,1
23.0,31.0,-250.0,-17.0,70.0,-3.0,1
26.0,32.0,-248.0,-17.0,70.0,-3.0,1
27.0,28.0,-247.0,-17.0,70.0,-3.0,1
24.0,32.0,-251.0,-12.0,69.0,-3.0,1
25.0,32.0,-254.0,-9.0,67.0,-2.0,1
20.0,27.0,-253.0,-8.0,65.0,-5.0,1
21.0,32.0,-252.0,-10.0,63.0,-4.0,1
22.0,29.0,-248.0,-12.0,65.0,-5.0,1
24.0,31.0,-254.0,-12.0,66.0,-4.0,1
24.0,28.0,-251.0,-11.0,67.0,-4.0,1
26.0,31.0,-251.0,-10.0,65.0,-3.0,1
26.0,29.0,-251.0,-10.0,64.0,-4.0,1
21.0,30.0,-255.0,-10.0,65.0,-5.0,1
24.0,30.0,-254.0,-12.0,65.0,-5.0,1
23.0,30.0,-244.0,-12.0,66.0,-4.0,1
24.0,29.0,-250.0,-12.0,65.0,-3.0,1
23.0,32.0,-251.0,-10.0,65.0,-2.0,1
23.0,30.0,-250.0,-9.0,66.0,-3.0,1
23.0,31.0,-252.0,-10.0,66.0,-5.0,1
22.0,30.0,-248.0,-10.0,67.0,-4.0,1
22.0,29.0,-247.0,-10.0,66.0,-4.0,1
26.0,28.0,-252.0,-9.0,66.0,-2.0,1
26.0,28.0,-254.0,-9.0,66.0,-3.0,1
26.0,27.0,-254.0,-9.0,67.0,-3.0,1
23.0,33.0,-251.0,-9.0,67.0,-2.0,1
23.0,31.0,-252.0,-9.0,66.0,-2.0,1
21.0,31.0,-250.0,-9.0,66.0,-3.0,1
25.0,30.0,-255.0,-9.0,66.0,-4.0,1
23.0,29.0,-251.0,-9.0,65.0,-4.0,1
22.0,29.0,-255.0,-9.0,64.0,-3.0,1
23.0,30.0,-253.0,-9.0,63.0,-3.0,1
21.0,32.0,-252.0,-8.0,65.0,-4.0,1
23.0,34.0,-255.0,-9.0,65.0,-3.0,1
22.0,31.0,-252.0,-10.0,65.0,-2.0,1
23.0,31.0,-249.0,-9.0,66.0,-3.0,1
22.0,29.0,-253.0,-8.0,66.0,-5.0,1
24.0,30.0,-251.0,-9.0,68.0,-3.0,1
24.0,29.0,-252.0,-9.0,67.0,-3.0,1
22.0,31.0,-248.0,-10.0,66.0,-4.0,1
24.0,27.0,-255.0,-9.0,68.0,-4.0,1
24.0,31.0,-253.0,-9.0,67.0,-4.0,1
23.0,31.0,-248.0,-10.0,67.0,-4.0,1
22.0,29.0,-251.0,-11.0,65.0,-2.0,1
24.0,31.0,-251.0,-10.0,66.0,-2.0,1
26.0,29.0,-253.0,-10.0,65.0,-4.0,1
22.0,35.0,-253.0,-12.0,70.0,-3.0,1
24.0,32.0,-249.0,-11.0,68.0,-3.0,1
27.0,30.0,-256.0,-8.0,65.0,-3.0,1
23.0,31.0,-248.0,-8.0,64.0,-3.0,1
24.0,28.0,-249.0,-10.0,66.0,-3.0,1
24.0,30.0,-249.0,-11.0,66.0,-4.0,1
25.0,30.0,-253.0,-8.0,71.0,-1.0,1
22.0,27.0,-251.0,-9.0,72.0,-2.0,1
23.0,30.0,-249.0,-12.0,65.0,-5.0,1
24.0,29.0,-251.0,-12.0,64.0,-4.0,1
23.0,29.0,-256.0,-12.0,64.0,-3.0,1
24.0,28.0,-250.0,-13.0,64.0,-2.0,1
24.0,30.0,-251.0,-13.0,65.0,-3.0,1
24.0,28.0,-251.0,-15.0,65.0,-3.0,1
24.0,31.0,-249.0,-13.0,66.0,-4.0,1
21.0,30.0,-249.0,-14.0,65.0,-4.0,1
20.0,30.0,-258.0,-13.0,66.0,-4.0,1
22.0,30.0,-251.0,-14.0,64.0,-3.0,1
25.0,27.0,-252.0,-13.0,65.0,-3.0,1
22.0,28.0,-255.0,-14.0,66.0,-4.0,1
27.0,31.0,-252.0,-15.0,67.0,-4.0,1
23.0,32.0,-253.0,-15.0,67.0,-4.0,1
23.0,27.0,-252.0,-15.0,67.0,-5.0,1
23.0,30.0,-252.0,-16.0,66.0,-6.0,1
21.0,28.0,-255.0,-17.0,67.0,-5.0,1
25.0,30.0,-251.0,-16.0,68.0,-5.0,1
24.0,30.0,-251.0,-16.0,68.0,-4.0,1
24.0,32.0,-253.0,-16.0,67.0,-5.0,1
22.0,29.0,-249.0,-16.0,68.0,-3.0,1
24.0,29.0,-256.0,-16.0,68.0,-4.0,1
25.0,30.0,-251.0,-16.0,69.0,-4.0,1
23.0,31.0,-253.0,-15.0,69.0,-5.0,1
24.0,30.0,-254.0,-16.0,68.0,-4.0,1
21.0,29.0,-252.0,-16.0,69.0,-3.0,1
24.0,32.0,-253.0,-16.0,69.0,-3.0,1
24.0,31.0,-256.0,-15.0,69.0,-4.0,1
24.0,30.0,-250.0,-15.0,69.0,-4.0,1
26.0,31.0,-251.0,-14.0,68.0,-3.0,1
22.0,29.0,-253.0,-16.0,69.0,-6.0,1
21.0,31.0,-254.0,-16.0,69.0,-4.0,1
26.0,30.0,-250.0,-16.0,69.0,-4.0,1
22.0,31.0,-251.0,-17.0,67.0,-3.0,1
23.0,32.0,-249.0,-15.0,69.0,-2.0,1
24.0,31.0,-250.0,-15.0,68.0,-3.0,1
21.0,30.0,-250.0,-15.0,68.0,-2.0,1
22.0,30.0,-253.0,-16.0,68.0,-3.0,1
25.0,31.0,-250.0,-15.0,68.0,-4.0,1
23.0,31.0,-252.0,-16.0,67.0,-4.0,1
23.0,31.0,-252.0,-15.0,67.0,-4.0,1
24.0,30.0,-253.0,-15.0,67.0,-6.0,1
24.0,30.0,-251.0,-14.0,67.0,-5.0,1
25.0,32.0,-253.0,-15.0,67.0,-4.0,1
22.0,30.0,-252.0,-15.0,67.0,-5.0,1
23.0,30.0,-252.0,-15.0,67.0,-3.0,1
24.0,31.0,-254.0,-16.0,67.0,-3.0,1
23.0,32.0,-249.0,-15.0,65.0,-4.0,1
23.0,32.0,-250.0,-15.0,64.0,-3.0,1
25.0,29.0,-253.0,-15.0,64.0,-3.0,1
20.0,32.0,-250.0,-15.0,65.0,-2.0,1
22.0,30.0,-252.0,-15.0,64.0,-5.0,1
23.0,31.0,-251.0,-15.0,64.0,-4.0,1
24.0,30.0,-253.0,-15.0,64.0,-6.0,1
21.0,33.0,-252.0,-16.0,66.0,-4.0,1
23.0,30.0,-250.0,-15.0,68.0,-4.0,1
22.0,33.0,-249.0,-16.0,66.0,-3.0,1
24.0,30.0,-251.0,-16.0,67.0,-2.0,1
25.0,39.0,-248.0,-17.0,67.0,-2.0,1
25.0,31.0,-249.0,-14.0,68.0,-4.0,1
23.0,33.0,-252.0,-16.0,68.0,-4.0,1
23.0,28.0,-255.0,-16.0,69.0,-5.0,1
25.0,30.0,-253.0,-16.0,70.0,-5.0,1
23.0,29.0,-256.0,-15.0,70.0,-4.0,1
22.0,31.0,-249.0,-15.0,69.0,-4.0,1
22.0,30.0,-253.0,-15.0,69.0,-3.0,1
23.0,33.0,-248.0,-14.0,68.0,-2.0,1
25.0,28.0,-250.0,-14.0,68.0,-4.0,1
22.0,32.0,-250.0,-14.0,67.0,-4.0,1
23.0,32.0,-253.0,-14.0,68.0,-4.0,1
24.0,29.0,-253.0,-13.0,67.0,-4.0,1
23.0,30.0,-255.0,-14.0,66.0,-5.0,1
24.0,30.0,-255.0,-12.0,66.0,-3.0,1
24.0,32.0,-252.0,-12.0,66.0,-4.0,1
24.0,27.0,-251.0,-12.0,66.0,-4.0,1
25.0,31.0,-252.0,-13.0,66.0,-4.0,1
22.0,30.0,-253.0,-13.0,66.0,-3.0,1
22.0,31.0,-250.0,-13.0,66.0,-4.0,1
26.0,31.0,-253.0,-14.0,66.0,-4.0,1
25.0,31.0,-255.0,-12.0,67.0,-4.0,1
24.0,33.0,-250.0,-12.0,66.0,-4.0,1
27.0,30.0,-252.0,-12.0,67.0,-5.0,1
25.0,30.0,-250.0,-11.0,67.0,-3.0,1
26.0,31.0,-250.0,-11.0,65.0,-4.0,1
21.0,32.0,-252.0,-11.0,66.0,-4.0,1
25.0,32.0,-254.0,-10.0,66.0,-4.0,1
23.0,30.0,-253.0,-9.0,65.0,-4.0,1
24.0,33.0,-251.0,-11.0,66.0,-3.0,1
24.0,29.0,-251.0,-11.0,64.0,-2.0,1
23.0,30.0,-254.0,-12.0,64.0,-4.0,1
20.0,30.0,-255.0,-12.0,65.0,-3.0,1
23.0,30.0,-254.0,-12.0,66.0,-3.0,1
24.0,31.0,-253.0,-12.0,62.0,-4.0,1
25.0,30.0,-250.0,-14.0,62.0,-3.0,1
25.0,29.0,-253.0,-15.0,63.0,-4.0,1
26.0,27.0,-253.0,-13.0,64.0,-3.0,1
23.0,32.0,-248.0,-14.0,64.0,-3.0,1
22.0,33.0,-252.0,-15.0,63.0,-3.0,1
22.0,31.0,-254.0,-14.0,64.0,-4.0,1
25.0,34.0,-251.0,-14.0,64.0,-3.0,1
22.0,34.0,-252.0,-13.0,66.0,-3.0,1
20.0,33.0,-256.0,-12.0,66.0,-3.0,1
23.0,33.0,-252.0,-12.0,67.0,-2.0,1
22.0,30.0,-252.0,-13.0,68.0,-3.0,1
24.0,31.0,-253.0,-13.0,69.0,-5.0,1
23.0,30.0,-252.0,-13.0,68.0,-3.0,1
22.0,32.0,-252.0,-14.0,68.0,-2.0,1
25.0,28.0,-253.0,-16.0,69.0,-4.0,1
26.0,30.0,-254.0,-16.0,70.0,-3.0,1
21.0,32.0,-251.0,-17.0,70.0,-3.0,1
24.0,30.0,-252.0,-19.0,71.0,-4.0,1
23.0,29.0,-252.0,-17.0,69.0,-3.0,1
21.0,32.0,-251.0,-14.0,68.0,-4.0,1
26.0,26.0,-251.0,-11.0,66.0,-3.0,1
26.0,30.0,-254.0,-9.0,64.0,-4.0,1
23.0,28.0,-254.0,-9.0,64.0,-4.0,1
24.0,30.0,-253.0,-13.0,66.0,-5.0,1
22.0,32.0,-251.0,-13.0,66.0,-4.0,1
23.0,33.0,-253.0,-12.0,67.0,-4.0,1
24.0,30.0,-251.0,-11.0,67.0,-2.0,1
21.0,32.0,-249.0,-12.0,65.0,-3.0,1
23.0,30.0,-255.0,-12.0,64.0,-3.0,1
21.0,28.0,-257.0,-13.0,65.0,-2.0,1
22.0,31.0,-253.0,-16.0,65.0,-4.0,1
18.0,33.0,-252.0,-15.0,67.0,-4.0,1
24.0,33.0,-253.0,-14.0,68.0,-4.0,1
25.0,31.0,-252.0,-13.0,67.0,-4.0,1
24.0,32.0,-253.0,-11.0,67.0,-4.0,1
24.0,31.0,-253.0,-10.0,68.0,-3.0,1
21.0,33.0,-250.0,-10.0,67.0,-4.0,1
24.0,29.0,-252.0,-9.0,67.0,-4.0,1
24.0,33.0,-252.0,-10.0,66.0,-3.0,1
23.0,31.0,-253.0,-11.0,67.0,-2.0,1
23.0,31.0,-253.0,-11.0,66.0,-3.0,1
23.0,29.0,-254.0,-11.0,66.0,-4.0,1
24.0,28.0,-249.0,-12.0,66.0,-4.0,1
23.0,30.0,-254.0,-13.0,66.0,-3.0,1
23.0,29.0,-252.0,-12.0,66.0,-3.0,1
23.0,31.0,-250.0,-11.0,67.0,-5.0,1
24.0,31.0,-251.0,-11.0,66.0,-5.0,1
24.0,32.0,-251.0,-12.0,68.0,-4.0,1
25.0,32.0,-251.0,-12.0,67.0,-3.0,1
22.0,29.0,-252.0,-12.0,68.0,-1.0,1
22.0,27.0,-254.0,-13.0,68.0,-2.0,1
17.0,28.0,-242.0,-11.0,67.0,-3.0,1
24.0,29.0,-249.0,-11.0,67.0,-2.0,1
25.0,30.0,-252.0,-11.0,68.0,-3.0,1
23.0,30.0,-252.0,-11.0,70.0,-2.0,1
24.0,30.0,-252.0,-11.0,68.0,-3.0,1
22.0,31.0,-254.0,-10.0,68.0,-3.0,1
22.0,30.0,-253.0,-11.0,66.0,-2.0,1
22.0,30.0,-254.0,-11.0,65.0,-2.0,1
23.0,31.0,-254.0,-10.0,65.0,-4.0,1
24.0,29.0,-252.0,-11.0,63.0,-4.0,1
24.0,28.0,-257.0,-12.0,66.0,-4.0,1
19.0,33.0,-248.0,-12.0,65.0,-3.0,1
22.0,34.0,-251.0,-12.0,67.0,-3.0,1
20.0,32.0,-250.0,-12.0,67.0,-2.0,1
23.0,30.0,-251.0,-13.0,68.0,-3.0,1
25.0,30.0,-255.0,-12.0,67.0,-4.0,1
22.0,33.0,-250.0,-13.0,67.0,-3.0,1
23.0,27.0,-251.0,-13.0,66.0,-2.0,1
23.0,30.0,-251.0,-13.0,68.0,-3.0,1
26.0,28.0,-251.0,-13.0,67.0,-3.0,1
27.0,30.0,-256.0,-13.0,67.0,-3.0,1
22.0,29.0,-247.0,-13.0,66.0,-4.0,1
20.0,31.0,-253.0,-13.0,65.0,-2.0,1
23.0,28.0,-252.0,-12.0,65.0,-3.0,1
23.0,30.0,-250.0,-11.0,65.0,-3.0,1
24.0,29.0,-255.0,-13.0,65.0,-2.0,1
23.0,29.0,-248.0,-12.0,65.0,-4.0,1
23.0,34.0,-251.0,-12.0,66.0,-4.0,1
23.0,31.0,-252.0,-13.0,66.0,-4.0,1
22.0,29.0,-253.0,-13.0,65.0,-4.0,1
24.0,29.0,-252.0,-13.0,65.0,-3.0,1
22.0,29.0,-256.0,-13.0,67.0,-5.0,1
23.0,32.0,-248.0,-13.0,67.0,-4.0,1
24.0,31.0,-254.0,-13.0,66.0,-4.0,1
21.0,33.0,-253.0,-12.0,66.0,-4.0,1
25.0,30.0,-251.0,-12.0,66.0,-4.0,1
23.0,30.0,-253.0,-12.0,64.0,-4.0,1
22.0,31.0,-249.0,-12.0,66.0,-4.0,1
23.0,31.0,-255.0,-13.0,67.0,-4.0,1
23.0,29.0,-251.0,-12.0,65.0,-3.0,1
21.0,29.0,-254.0,-13.0,68.0,-4.0,1
22.0,35.0,-250.0,-12.0,67.0,-4.0,1
19.0,26.0,-250.0,-13.0,67.0,-2.0,1
24.0,29.0,-255.0,-12.0,68.0,-4.0,1
20.0,30.0,-253.0,-13.0,67.0,-4.0,1
24.0,29.0,-253.0,-14.0,68.0,-4.0,1
24.0,31.0,-252.0,-13.0,67.0,-4.0,1
23.0,33.0,-253.0,-13.0,66.0,-4.0,1
19.0,33.0,-251.0,-12.0,67.0,-3.0,1
21.0,30.0,-250.0,-11.0,66.0,-5.0,1
21.0,31.0,-251.0,-12.0,66.0,-4.0,1
21.0,31.0,-251.0,-11.0,66.0,-3.0,1
20.0,32.0,-249.0,-11.0,66.0,-5.0,1
22.0,31.0,-251.0,-11.0,67.0,-3.0,1
23.0,31.0,-251.0,-12.0,67.0,-3.0,1
22.0,31.0,-253.0,-12.0,66.0,-2.0,1
22.0,32.0,-252.0,-12.0,67.0,-3.0,1
22.0,30.0,-249.0,-12.0,67.0,-2.0,1
20.0,29.0,-252.0,-12.0,67.0,-2.0,1
23.0,31.0,-248.0,-11.0,67.0,-4.0,1
26.0,29.0,-250.0,-11.0,66.0,-3.0,1
21.0,31.0,-252.0,-12.0,66.0,-2.0,1
22.0,31.0,-252.0,-12.0,65.0,-2.0,1
23.0,30.0,-253.0,-13.0,68.0,-3.0,1
16.0,32.0,-247.0,-12.0,67.0,-3.0,1
20.0,33.0,-250.0,-12.0,66.0,-3.0,1
24.0,28.0,-251.0,-13.0,65.0,-3.0,1
24.0,28.0,-254.0,-12.0,67.0,-2.0,1
23.0,31.0,-255.0,-11.0,68.0,-3.0,1
22.0,30.0,-251.0,-11.0,67.0,-2.0,1
23.0,33.0,-251.0,-11.0,67.0,-3.0,1
22.0,32.0,-251.0,-11.0,67.0,-3.0,1
24.0,30.0,-251.0,-11.0,66.0,-2.0,1
22.0,27.0,-253.0,-12.0,68.0,-4.0,1
23.0,33.0,-252.0,-11.0,67.0,-3.0,1
23.0,33.0,-251.0,-11.0,68.0,-3.0,1
24.0,29.0,-249.0,-11.0,67.0,-3.0,1
25.0,31.0,-253.0,-13.0,67.0,-3.0,1
21.0,31.0,-254.0,-12.0,67.0,-2.0,1
25.0,32.0,-249.0,-12.0,67.0,-3.0,1
22.0,30.0,-251.0,-10.0,67.0,-2.0,1
24.0,33.0,-252.0,-10.0,66.0,-3.0,1
21.0,31.0,-249.0,-11.0,66.0,-3.0,1
22.0,32.0,-253.0,-11.0,66.0,-3.0,1
21.0,32.0,-254.0,-12.0,66.0,-3.0,1
22.0,30.0,-253.0,-11.0,65.0,-4.0,1
24.0,30.0,-251.0,-11.0,66.0,-3.0,1
26.0,30.0,-251.0,-11.0,66.0,-3.0,1
22.0,30.0,-250.0,-11.0,66.0,-4.0,1
21.0,30.0,-252.0,-10.0,66.0,-5.0,1
23.0,30.0,-251.0,-9.0,67.0,-3.0,1
25.0,30.0,-251.0,-10.0,67.0,-3.0,1
24.0,29.0,-254.0,-9.0,67.0,-3.0,1
23.0,29.0,-255.0,-9.0,67.0,-4.0,1
24.0,32.0,-253.0,-10.0,66.0,-5.0,1
24.0,32.0,-249.0,-9.0,67.0,-4.0,1
23.0,32.0,-255.0,-7.0,67.0,-4.0,1
23.0,31.0,-249.0,-6.0,66.0,-4.0,1
23.0,30.0,-253.0,-6.0,68.0,-2.0,1
22.0,33.0,-251.0,-8.0,69.0,-3.0,1
22.0,34.0,-252.0,-8.0,70.0,-3.0,1
25.0,30.0,-252.0,-7.0,68.0,-3.0,1
22.0,32.0,-257.0,-7.0,68.0,-4.0,1
24.0,30.0,-251.0,-9.0,69.0,-4.0,1
23.0,31.0,-254.0,-9.0,68.0,-2.0,1
26.0,27.0,-248.0,-11.0,67.0,-3.0,1
25.0,29.0,-246.0,-14.0,68.0,-3.0,1
23.0,29.0,-251.0,-13.0,68.0,-3.0,1
21.0,31.0,-251.0,-12.0,67.0,-4.0,1
25.0,30.0,-256.0,-10.0,67.0,-3.0,1
23.0,32.0,-251.0,-9.0,67.0,-4.0,1
23.0,26.0,-253.0,-7.0,66.0,-3.0,1
23.0,29.0,-253.0,-4.0,64.0,-4.0,1
22.0,32.0,-251.0,-5.0,64.0,-4.0,1
22.0,30.0,-252.0,-6.0,65.0,-4.0,1
22.0,29.0,-253.0,-7.0,65.0,-3.0,1
22.0,33.0,-251.0,-8.0,65.0,-4.0,1
23.0,31.0,-251.0,-8.0,64.0,-3.0,1
22.0,32.0,-254.0,-9.0,66.0,-4.0,1
22.0,31.0,-249.0,-11.0,66.0,-3.0,1
22.0,32.0,-253.0,-11.0,67.0,-2.0,1
24.0,30.0,-251.0,-12.0,68.0,-3.0,1
24.0,30.0,-249.0,-11.0,68.0,-3.0,1
22.0,32.0,-252.0,-11.0,67.0,-4.0,1
21.0,32.0,-254.0,-11.0,68.0,-3.0,1
25.0,33.0,-256.0,-9.0,67.0,-4.0,1
25.0,30.0,-250.0,-8.0,66.0,-3.0,1
24.0,29.0,-252.0,-7.0,68.0,-4.0,1
22.0,31.0,-252.0,-8.0,66.0,-3.0,1
24.0,32.0,-253.0,-9.0,67.0,-4.0,1
22.0,30.0,-253.0,-9.0,67.0,-4.0,1
21.0,32.0,-253.0,-9.0,67.0,-3.0,1
24.0,30.0,-253.0,-8.0,65.0,-4.0,1
21.0,31.0,-253.0,-10.0,66.0,-4.0,1
23.0,29.0,-251.0,-10.0,67.0,-4.0,1
24.0,31.0,-254.0,-10.0,68.0,-4.0,1
24.0,31.0,-251.0,-8.0,68.0,-4.0,1
22.0,32.0,-254.0,-9.0,68.0,-4.0,1
21.0,30.0,-251.0,-9.0,67.0,-3.0,1
20.0,27.0,-253.0,-8.0,67.0,-3.0,1
22.0,30.0,-253.0,-8.0,66.0,-1.0,1
22.0,33.0,-251.0,-9.0,67.0,-4.0,1
21.0,32.0,-250.0,-9.0,67.0,-2.0,1
23.0,31.0,-249.0,-8.0,67.0,-4.0,1
24.0,31.0,-252.0,-9.0,68.0,-3.0,1
20.0,31.0,-253.0,-9.0,67.0,-3.0,1
23.0,30.0,-251.0,-7.0,68.0,-3.0,1
22.0,31.0,-251.0,-7.0,68.0,-3.0,1
21.0,31.0,-251.0,-8.0,67.0,-2.0,1
21.0,29.0,-252.0,-10.0,67.0,-3.0,1
22.0,30.0,-252.0,-8.0,67.0,-3.0,1
23.0,33.0,-253.0,-10.0,66.0,-3.0,1
24.0,29.0,-250.0,-10.0,66.0,-3.0,1
20.0,29.0,-253.0,-10.0,67.0,-2.0,1
22.0,28.0,-251.0,-12.0,68.0,-3.0,1
23.0,32.0,-252.0,-13.0,67.0,-4.0,1
23.0,27.0,-249.0,-13.0,69.0,-2.0,1
20.0,31.0,-254.0,-13.0,68.0,-2.0,1
23.0,31.0,-252.0,-13.0,68.0,-2.0,1
24.0,29.0,-257.0,-12.0,68.0,-3.0,1
24.0,28.0,-251.0,-12.0,67.0,-3.0,1
21.0,30.0,-253.0,-12.0,68.0,-4.0,1
23.0,31.0,-251.0,-12.0,68.0,-3.0,1
23.0,25.0,-252.0,-13.0,67.0,-2.0,1
21.0,30.0,-252.0,-13.0,66.0,-3.0,1
23.0,31.0,-250.0,-12.0,66.0,-3.0,1
23.0,32.0,-253.0,-12.0,67.0,-3.0,1
23.0,29.0,-251.0,-12.0,66.0,-4.0,1
22.0,32.0,-251.0,-13.0,65.0,-3.0,1
26.0,27.0,-250.0,-12.0,66.0,-2.0,1
24.0,34.0,-245.0,-12.0,67.0,-2.0,1
23.0,30.0,-253.0,-12.0,67.0,-2.0,1
25.0,32.0,-253.0,-11.0,67.0,-3.0,1
19.0,32.0,-252.0,-11.0,68.0,-4.0,1
21.0,34.0,-248.0,-10.0,68.0,-4.0,1
22.0,32.0,-251.0,-10.0,69.0,-4.0,1
21.0,29.0,-249.0,-10.0,66.0,-2.0,1
21.0,32.0,-250.0,-10.0,66.0,-4.0,1
23.0,33.0,-250.0,-10.0,67.0,-4.0,1
24.0,31.0,-250.0,-10.0,67.0,-5.0,1
21.0,29.0,-250.0,-12.0,66.0,-3.0,1
24.0,33.0,-252.0,-11.0,66.0,-3.0,1
21.0,31.0,-254.0,-10.0,67.0,-3.0,1
20.0,30.0,-254.0,-10.0,67.0,-4.0,1
22.0,32.0,-252.0,-10.0,68.0,-4.0,1
24.0,31.0,-252.0,-11.0,67.0,-3.0,1
24.0,30.0,-254.0,-10.0,66.0,-3.0,1
21.0,31.0,-250.0,-10.0,67.0,-3.0,1
19.0,31.0,-253.0,-10.0,67.0,-2.0,1
22.0,30.0,-252.0,-9.0,67.0,-3.0,1
23.0,29.0,-250.0,-9.0,65.0,-4.0,1
21.0,31.0,-256.0,-10.0,65.0,-3.0,1
20.0,29.0,-251.0,-9.0,66.0,-3.0,1
22.0,29.0,-253.0,-9.0,67.0,-3.0,1
25.0,28.0,-251.0,-9.0,66.0,-2.0,1
22.0,32.0,-250.0,-10.0,67.0,-3.0,1
23.0,33.0,-250.0,-9.0,68.0,-4.0,1
20.0,32.0,-252.0,-9.0,67.0,-5.0,1
21.0,30.0,-253.0,-10.0,68.0,-5.0,1
24.0,32.0,-255.0,-10.0,67.0,-4.0,1
22.0,29.0,-251.0,-10.0,67.0,-3.0,1
22.0,29.0,-252.0,-11.0,66.0,-3.0,1
24.0,31.0,-254.0,-12.0,65.0,-2.0,1
23.0,30.0,-253.0,-10.0,67.0,-3.0,1
22.0,30.0,-250.0,-11.0,68.0,-4.0,1
21.0,32.0,-254.0,-11.0,68.0,-3.0,1
26.0,30.0,-253.0,-10.0,67.0,-4.0,1
23.0,32.0,-252.0,-10.0,66.0,-4.0,1
21.0,32.0,-255.0,-10.0,67.0,-4.0,1
23.0,29.0,-253.0,-10.0,67.0,-4.0,1
22.0,30.0,-250.0,-10.0,67.0,-3.0,1
21.0,32.0,-251.0,-11.0,69.0,-2.0,1
22.0,32.0,-250.0,-10.0,69.0,-5.0,1
22.0,34.0,-254.0,-11.0,68.0,-3.0,1
23.0,29.0,-251.0,-10.0,68.0,-3.0,1
22.0,32.0,-252.0,-12.0,68.0,-4.0,1
24.0,32.0,-253.0,-10.0,67.0,-4.0,1
25.0,30.0,-253.0,-10.0,66.0,-4.0,1
23.0,28.0,-251.0,-10.0,66.0,-4.0,1
27.0,29.0,-249.0,-11.0,67.0,-3.0,1
23.0,31.0,-249.0,-11.0,66.0,-3.0,1
25.0,30.0,-256.0,-11.0,67.0,-4.0,1
20.0,31.0,-252.0,-10.0,67.0,-5.0,1
20.0,32.0,-251.0,-10.0,68.0,-5.0,1
21.0,30.0,-253.0,-10.0,69.0,-4.0,1
20.0,30.0,-250.0,-11.0,69.0,-2.0,1
25.0,28.0,-252.0,-12.0,67.0,-3.0,1
21.0,34.0,-252.0,-12.0,67.0,-4.0,1
27.0,28.0,-250.0,-11.0,68.0,-4.0,1
21.0,33.0,-252.0,-10.0,67.0,-5.0,1
23.0,30.0,-249.0,-12.0,69.0,-3.0,1
22.0,31.0,-247.0,-12.0,69.0,-4.0,1
22.0,32.0,-249.0,-11.0,68.0,-3.0,1
23.0,34.0,-255.0,-8.0,68.0,-3.0,1
15.0,27.0,-258.0,-9.0,68.0,-4.0,1
23.0,29.0,-253.0,-10.0,69.0,-5.0,1
25.0,28.0,-253.0,-9.0,68.0,-3.0,1
22.0,31.0,-250.0,-9.0,68.0,-3.0,1
21.0,31.0,-251.0,-9.0,68.0,-2.0,1
25.0,29.0,-252.0,-10.0,68.0,-3.0,1
23.0,28.0,-250.0,-11.0,69.0,-4.0,1
22.0,28.0,-253.0,-13.0,68.0,-4.0,1
21.0,32.0,-251.0,-14.0,69.0,-5.0,1
21.0,31.0,-249.0,-15.0,69.0,-3.0,1
24.0,29.0,-251.0,-16.0,69.0,-4.0,1
22.0,28.0,-252.0,-16.0,68.0,-4.0,1
23.0,28.0,-247.0,-14.0,68.0,-4.0,1
25.0,28.0,-254.0,-9.0,67.0,-3.0,1
23.0,30.0,-254.0,-6.0,66.0,-3.0,1
23.0,32.0,-254.0,-6.0,65.0,-4.0,1
22.0,28.0,-256.0,-8.0,65.0,-5.0,1
22.0,31.0,-254.0,-9.0,67.0,-4.0,1
23.0,31.0,-251.0,-9.0,68.0,-2.0,1
26.0,31.0,-253.0,-9.0,68.0,-4.0,1
20.0,31.0,-255.0,-9.0,68.0,-5.0,1
20.0,34.0,-252.0,-10.0,67.0,-5.0,1
23.0,28.0,-256.0,-12.0,65.0,-4.0,1
23.0,32.0,-254.0,-11.0,66.0,-4.0,1
20.0,32.0,-252.0,-12.0,68.0,-5.0,1
23.0,30.0,-248.0,-11.0,68.0,-3.0,1
22.0,31.0,-251.0,-10.0,69.0,-3.0,1
23.0,31.0,-251.0,-8.0,68.0,-3.0,1
22.0,28.0,-250.0,-9.0,68.0,-4.0,1
26.0,32.0,-249.0,-9.0,68.0,-4.0,1
21.0,31.0,-250.0,-9.0,67.0,-3.0,1
22.0,31.0,-251.0,-9.0,66.0,-3.0,1
25.0,29.0,-253.0,-10.0,66.0,-3.0,1
23.0,31.0,-254.0,-10.0,67.0,-3.0,1
23.0,31.0,-252.0,-10.0,68.0,-3.0,1
21.0,29.0,-251.0,-10.0,68.0,-3.0,1
22.0,31.0,-253.0,-9.0,66.0,-3.0,1
22.0,31.0,-253.0,-10.0,68.0,-3.0,1
21.0,31.0,-249.0,-10.0,69.0,-2.0,1
23.0,31.0,-250.0,-10.0,68.0,-4.0,1
20.0,31.0,-251.0,-9.0,67.0,-3.0,1
23.0,29.0,-248.0,-10.0,68.0,-3.0,1
23.0,30.0,-255.0,-9.0,69.0,-2.0,1
20.0,28.0,-255.0,-9.0,67.0,-2.0,1
24.0,27.0,-254.0,-9.0,68.0,-4.0,1
20.0,28.0,-253.0,-8.0,68.0,-3.0,1
23.0,29.0,-255.0,-9.0,68.0,-2.0,1
23.0,29.0,-253.0,-9.0,68.0,-2.0,1
25.0,30.0,-253.0,-9.0,68.0,-2.0,1
22.0,28.0,-252.0,-9.0,68.0,-3.0,1
24.0,32.0,-248.0,-9.0,68.0,-2.0,1
22.0,33.0,-251.0,-11.0,68.0,-3.0,1
22.0,31.0,-250.0,-10.0,68.0,-3.0,1
23.0,30.0,-252.0,-9.0,66.0,-3.0,1
19.0,32.0,-248.0,-11.0,66.0,-4.0,1
23.0,28.0,-251.0,-9.0,67.0,-4.0,1
26.0,30.0,-250.0,-10.0,67.0,-4.0,1
21.0,30.0,-252.0,-10.0,68.0,-4.0,1
22.0,32.0,-251.0,-9.0,67.0,-3.0,1
22.0,33.0,-253.0,-12.0,67.0,-3.0,1
22.0,26.0,-251.0,-11.0,67.0,-2.0,1
22.0,27.0,-251.0,-12.0,68.0,-2.0,1
21.0,30.0,-254.0,-11.0,68.0,-2.0,1
22.0,28.0,-254.0,-11.0,67.0,-3.0,1
20.0,29.0,-254.0,-13.0,67.0,-2.0,1
22.0,29.0,-255.0,-12.0,68.0,-3.0,1
24.0,30.0,-252.0,-12.0,68.0,-3.0,1
21.0,29.0,-252.0,-10.0,68.0,-2.0,1
23.0,26.0,-253.0,-11.0,67.0,-2.0,1
20.0,31.0,-255.0,-10.0,67.0,-3.0,1
22.0,31.0,-250.0,-10.0,66.0,-3.0,1
24.0,32.0,-254.0,-11.0,67.0,-3.0,1
22.0,31.0,-255.0,-12.0,66.0,-3.0,1
21.0,30.0,-251.0,-13.0,66.0,-4.0,1
24.0,31.0,-253.0,-13.0,67.0,-2.0,1
24.0,32.0,-254.0,-13.0,68.0,-3.0,1
20.0,31.0,-250.0,-13.0,68.0,-2.0,1
22.0,29.0,-250.0,-13.0,68.0,-3.0,1
19.0,33.0,-250.0,-11.0,70.0,-3.0,1
23.0,28.0,-252.0,-11.0,70.0,-3.0,1
21.0,30.0,-249.0,-10.0,69.0,-3.0,1
22.0,30.0,-255.0,-11.0,69.0,-4.0,1
24.0,31.0,-252.0,-10.0,69.0,-3.0,1
23.0,30.0,-253.0,-10.0,68.0,-3.0,1
21.0,28.0,-250.0,-10.0,69.0,-4.0,1
21.0,28.0,-250.0,-11.0,69.0,-2.0,1
20.0,24.0,-249.0,-10.0,70.0,-4.0,1
23.0,29.0,-252.0,-11.0,67.0,-4.0,1
22.0,30.0,-251.0,-10.0,68.0,-3.0,1
23.0,30.0,-252.0,-11.0,69.0,-3.0,1
24.0,32.0,-251.0,-12.0,67.0,-4.0,1
22.0,30.0,-253.0,-12.0,68.0,-3.0,1
22.0,31.0,-253.0,-11.0,67.0,-2.0,1
19.0,32.0,-252.0,-10.0,68.0,-2.0,1
24.0,29.0,-250.0,-10.0,69.0,-2.0,1
22.0,32.0,-251.0,-10.0,68.0,-3.0,1
21.0,29.0,-249.0,-11.0,68.0,-3.0,1
19.0,29.0,-252.0,-10.0,69.0,-3.0,1
21.0,32.0,-252.0,-12.0,68.0,-3.0,1
22.0,29.0,-255.0,-13.0,67.0,-2.0,1
24.0,29.0,-253.0,-13.0,68.0,-2.0,1
22.0,28.0,-253.0,-13.0,69.0,-2.0,1
20.0,29.0,-251.0,-13.0,69.0,-4.0,1
23.0,31.0,-250.0,-12.0,69.0,-2.0,1
23.0,28.0,-253.0,-11.0,68.0,-2.0,1
22.0,32.0,-253.0,-12.0,67.0,-5.0,1
21.0,30.0,-253.0,-11.0,66.0,-3.0,1
20.0,31.0,-254.0,-12.0,67.0,-3.0,1
22.0,29.0,-254.0,-12.0,66.0,-4.0,1
20.0,28.0,-253.0,-13.0,68.0,-3.0,1
24.0,29.0,-253.0,-13.0,68.0,-4.0,1
22.0,32.0,-253.0,-13.0,69.0,-3.0,1
21.0,34.0,-249.0,-13.0,68.0,-5.0,1
24.0,31.0,-253.0,-14.0,67.0,-4.0,1
23.0,28.0,-254.0,-14.0,67.0,-2.0,1
22.0,31.0,-250.0,-14.0,68.0,-3.0,1
21.0,29.0,-251.0,-13.0,69.0,-3.0,1
22.0,30.0,-252.0,-12.0,69.0,-3.0,1
24.0,29.0,-252.0,-13.0,69.0,-3.0,1
20.0,31.0,-251.0,-13.0,69.0,-2.0,1
23.0,30.0,-252.0,-14.0,69.0,-2.0,1
21.0,30.0,-254.0,-14.0,69.0,-3.0,1
23.0,32.0,-249.0,-15.0,69.0,-4.0,1
25.0,28.0,-253.0,-14.0,68.0,-3.0,1
21.0,33.0,-256.0,-14.0,68.0,-3.0,1
24.0,29.0,-250.0,-14.0,68.0,-2.0,1
24.0,30.0,-249.0,-13.0,68.0,-4.0,1
20.0,30.0,-252.0,-13.0,67.0,-5.0,1
23.0,36.0,-244.0,-13.0,67.0,-3.0,1
23.0,31.0,-253.0,-14.0,66.0,-3.0,1
22.0,28.0,-250.0,-13.0,68.0,-4.0,1
23.0,29.0,-251.0,-14.0,69.0,-3.0,1
23.0,31.0,-251.0,-13.0,70.0,-4.0,1
19.0,32.0,-250.0,-13.0,70.0,-3.0,1
22.0,30.0,-249.0,-13.0,70.0,-3.0,1
24.0,34.0,-252.0,-13.0,69.0,-3.0,1
23.0,30.0,-252.0,-12.0,70.0,-3.0,1
23.0,29.0,-254.0,-13.0,70.0,-2.0,1
22.0,30.0,-251.0,-14.0,70.0,-2.0,1
