ax,ay,az,gx,gy,gz,label
-7.0,-243.0,60.0,-59.0,17.0,-6.0,1
-8.0,-243.0,60.0,-57.0,17.0,-7.0,1
-6.0,-247.0,58.0,-55.0,18.0,-6.0,1
-2.0,-245.0,60.0,-54.0,19.0,-6.0,1
-4.0,-241.0,64.0,-53.0,19.0,-6.0,1
-6.0,-246.0,57.0,-50.0,19.0,-7.0,1
-4.0,-244.0,60.0,-50.0,21.0,-6.0,1
-9.0,-247.0,60.0,-47.0,20.0,-5.0,1
-10.0,-247.0,54.0,-42.0,20.0,-5.0,1
-7.0,-246.0,61.0,-37.0,19.0,-4.0,1
-6.0,-245.0,58.0,-32.0,17.0,-2.0,1
-7.0,-245.0,58.0,-29.0,15.0,-3.0,1
-5.0,-248.0,60.0,-26.0,14.0,-2.0,1
-5.0,-246.0,60.0,-28.0,13.0,-2.0,1
-7.0,-239.0,60.0,-28.0,13.0,-1.0,1
-8.0,-237.0,67.0,-30.0,12.0,-2.0,1
-3.0,-246.0,61.0,-32.0,11.0,-1.0,1
-9.0,-241.0,60.0,-32.0,11.0,0.0,1
-6.0,-243.0,59.0,-34.0,11.0,-1.0,1
-4.0,-242.0,60.0,-34.0,10.0,-1.0,1
-5.0,-242.0,58.0,-33.0,10.0,-2.0,1
-3.0,-245.0,63.0,-34.0,12.0,-3.0,1
-6.0,-241.0,60.0,-35.0,11.0,-2.0,1
-4.0,-243.0,59.0,-36.0,13.0,-1.0,1
-7.0,-246.0,62.0,-37.0,13.0,-1.0,1
-8.0,-240.0,55.0,-38.0,12.0,0.0,1
-5.0,-238.0,59.0,-40.0,13.0,0.0,1
-5.0,-243.0,60.0,-39.0,14.0,1.0,1
-9.0,-245.0,61.0,-38.0,14.0,0.0,1
-7.0,-247.0,60.0,-38.0,14.0,3.0,1
-7.0,-243.0,59.0,-37.0,13.0,3.0,1
-2.0,-244.0,58.0,-40.0,10.0,4.0,1
-6.0,-241.0,59.0,-42.0,12.0,6.0,1
-6.0,-240.0,58.0,-47.0,13.0,6.0,1
-4.0,-246.0,59.0,-55.0,14.0,8.0,1
-6.0,-238.0,62.0,-60.0,11.0,7.0,1
-5.0,-240.0,56.0,-65.0,8.0,7.0,1
-5.0,-250.0,65.0,-73.0,6.0,11.0,1
-5.0,-243.0,61.0,-76.0,1.0,11.0,1
-7.0,-243.0,61.0,-79.0,-4.0,10.0,1
-5.0,-243.0,59.0,-110.0,-3.0,14.0,1
-7.0,-240.0,60.0,-146.0,-6.0,14.0,1
-6.0,-244.0,60.0,-149.0,-11.0,14.0,1
-7.0,-245.0,61.0,-144.0,-13.0,14.0,1
-8.0,-243.0,62.0,-141.0,-17.0,15.0,1
-9.0,-247.0,53.0,-138.0,-21.0,15.0,1
-6.0,-246.0,57.0,-129.0,-25.0,15.0,1
-2.0,-254.0,58.0,-117.0,-25.0,16.0,1
-8.0,-256.0,57.0,-102.0,-25.0,12.0,1
-11.0,-266.0,68.0,-74.0,-25.0,3.0,1
-7.0,-258.0,57.0,-17.0,-36.0,-9.0,1
-3.0,-250.0,57.0,13.0,-51.0,-5.0,1
-9.0,-242.0,58.0,21.0,-57.0,-4.0,1
-10.0,-243.0,51.0,18.0,-51.0,-3.0,1
-8.0,-241.0,51.0,16.0,-45.0,-2.0,1
-9.0,-240.0,53.0,13.0,-35.0,3.0,1
-8.0,-240.0,53.0,10.0,-27.0,6.0,1
-8.0,-242.0,53.0,6.0,-17.0,8.0,1
-6.0,-240.0,57.0,1.0,-9.0,7.0,1
6.0,-244.0,54.0,-8.0,0.0,5.0,1
-6.0,-243.0,60.0,-14.0,9.0,2.0,1
-7.0,-243.0,56.0,-15.0,16.0,0.0,1
-7.0,-243.0,58.0,-14.0,21.0,-4.0,1
-6.0,-243.0,60.0,-14.0,25.0,-5.0,1
-3.0,-244.0,59.0,-14.0,27.0,-5.0,1
-4.0,-244.0,60.0,-11.0,30.0,-6.0,1
-7.0,-243.0,59.0,-11.0,30.0,-7.0,1
-7.0,-244.0,61.0,-10.0,30.0,-7.0,1
-3.0,-245.0,57.0,-10.0,29.0,-8.0,1
-6.0,-243.0,60.0,-12.0,28.0,-8.0,1
-10.0,-241.0,64.0,-15.0,27.0,-8.0,1
-4.0,-243.0,56.0,-17.0,26.0,-9.0,1
-5.0,-241.0,57.0,-19.0,26.0,-9.0,1
-3.0,-243.0,59.0,-23.0,25.0,-10.0,1
-8.0,-242.0,61.0,-27.0,24.0,-11.0,1
-7.0,-243.0,60.0,-31.0,24.0,-12.0,1
-9.0,-242.0,62.0,-31.0,22.0,-11.0,1
-11.0,-246.0,58.0,-30.0,22.0,-10.0,1
-8.0,-246.0,59.0,-27.0,23.0,-12.0,1
-10.0,-244.0,62.0,-24.0,22.0,-11.0,1
-9.0,-244.0,59.0,-21.0,22.0,-10.0,1
-8.0,-249.0,60.0,-18.0,24.0,-9.0,1
-10.0,-244.0,60.0,-13.0,26.0,-10.0,1
-8.0,-246.0,60.0,-10.0,26.0,-10.0,1
-7.0,-247.0,63.0,-6.0,27.0,-9.0,1
-7.0,-245.0,56.0,-3.0,27.0,-11.0,1
-8.0,-243.0,60.0,-1.0,29.0,-12.0,1
-10.0,-241.0,59.0,-1.0,29.0,-12.0,1
-8.0,-245.0,61.0,1.0,28.0,-12.0,1
-7.0,-242.0,63.0,1.0,26.0,-13.0,1
-11.0,-240.0,63.0,-1.0,24.0,-12.0,1
-8.0,-244.0,59.0,-1.0,21.0,-10.0,1
-5.0,-242.0,61.0,-4.0,18.0,-10.0,1
-5.0,-245.0,60.0,-5.0,15.0,-9.0,1
-5.0,-241.0,62.0,-10.0,13.0,-10.0,1
-8.0,-244.0,60.0,-11.0,11.0,-8.0,1
-6.0,-241.0,63.0,-13.0,8.0,-6.0,1
-6.0,-245.0,62.0,-15.0,6.0,-5.0,1
-10.0,-241.0,62.0,-17.0,5.0,-4.0,1
-7.0,-242.0,61.0,-19.0,4.0,-3.0,1
-6.0,-241.0,58.0,-21.0,4.0,-2.0,1
-9.0,-243.0,60.0,-25.0,2.0,-2.0,1
-5.0,-242.0,64.0,-29.0,1.0,-1.0,1
-6.0,-243.0,65.0,-32.0,1.0,-3.0,1
-7.0,-243.0,60.0,-35.0,2.0,-2.0,1
-8.0,-240.0,62.0,-39.0,4.0,-2.0,1
-7.0,-244.0,64.0,-42.0,2.0,-1.0,1
-7.0,-241.0,66.0,-46.0,3.0,-4.0,1
-7.0,-241.0,64.0,-49.0,2.0,-4.0,1
-8.0,-244.0,64.0,-52.0,1.0,-5.0,1
-10.0,-243.0,63.0,-55.0,-1.0,-6.0,1
-9.0,-240.0,64.0,-57.0,-2.0,-6.0,1
-8.0,-240.0,67.0,-62.0,-5.0,-6.0,1
-10.0,-239.0,64.0,-65.0,-6.0,-6.0,1
-7.0,-242.0,61.0,-68.0,-9.0,-5.0,1
-11.0,-241.0,64.0,-70.0,-14.0,-3.0,1
-5.0,-243.0,61.0,-70.0,-15.0,-1.0,1
-6.0,-244.0,63.0,-72.0,-17.0,0.0,1
-7.0,-244.0,62.0,-72.0,-18.0,1.0,1
-4.0,-246.0,62.0,-73.0,-16.0,4.0,1
-6.0,-245.0,66.0,-74.0,-16.0,6.0,1
-5.0,-246.0,62.0,-75.0,-15.0,8.0,1
-8.0,-243.0,63.0,-74.0,-15.0,9.0,1
-7.0,-243.0,57.0,-71.0,-14.0,11.0,1
-11.0,-244.0,58.0,-70.0,-14.0,11.0,1
-7.0,-242.0,59.0,-66.0,-13.0,13.0,1
-7.0,-244.0,62.0,-60.0,-12.0,15.0,1
-3.0,-245.0,60.0,-52.0,-12.0,19.0,1
-3.0,-244.0,63.0,-44.0,-15.0,21.0,1
-5.0,-246.0,66.0,-35.0,-17.0,21.0,1
-8.0,-243.0,64.0,-26.0,-22.0,23.0,1
-5.0,-244.0,62.0,-15.0,-28.0,25.0,1
-3.0,-244.0,64.0,-4.0,-34.0,27.0,1
-4.0,-242.0,66.0,1.0,-38.0,26.0,1
-4.0,-240.0,63.0,1.0,-39.0,25.0,1
7.0,-245.0,62.0,1.0,-39.0,23.0,1
-4.0,-242.0,64.0,-2.0,-39.0,21.0,1
-2.0,-243.0,64.0,-10.0,-37.0,15.0,1
-4.0,-240.0,64.0,-17.0,-35.0,12.0,1
-3.0,-245.0,63.0,-25.0,-32.0,9.0,1
-1.0,-242.0,64.0,-36.0,-27.0,6.0,1
-2.0,-243.0,59.0,-47.0,-20.0,3.0,1
-2.0,-244.0,57.0,-62.0,-14.0,-2.0,1
-2.0,-245.0,57.0,-80.0,-6.0,-2.0,1
-5.0,-244.0,56.0,-94.0,2.0,-1.0,1
-6.0,-244.0,54.0,-107.0,14.0,0.0,1
-4.0,-237.0,54.0,-113.0,24.0,2.0,1
-5.0,-242.0,55.0,-115.0,32.0,6.0,1
-6.0,-243.0,55.0,-114.0,38.0,10.0,1
-4.0,-244.0,55.0,-105.0,43.0,13.0,1
-3.0,-243.0,56.0,-94.0,43.0,16.0,1
-3.0,-245.0,55.0,-84.0,43.0,14.0,1
-3.0,-244.0,58.0,-72.0,39.0,14.0,1
-2.0,-244.0,54.0,-62.0,36.0,11.0,1
-1.0,-246.0,56.0,-56.0,35.0,9.0,1
-3.0,-248.0,53.0,-50.0,33.0,7.0,1
-5.0,-244.0,55.0,-48.0,33.0,5.0,1
-4.0,-236.0,54.0,-49.0,32.0,4.0,1
-10.0,-244.0,54.0,-52.0,31.0,6.0,1
-9.0,-244.0,56.0,-56.0,34.0,6.0,1
-8.0,-244.0,53.0,-57.0,35.0,9.0,1
-8.0,-244.0,56.0,-58.0,36.0,8.0,1
-9.0,-243.0,57.0,-57.0,37.0,9.0,1
-5.0,-245.0,55.0,-57.0,37.0,8.0,1
-8.0,-244.0,56.0,-57.0,34.0,6.0,1
-5.0,-245.0,58.0,-55.0,33.0,3.0,1
-6.0,-237.0,58.0,-54.0,32.0,-1.0,1
-7.0,-243.0,58.0,-53.0,32.0,-5.0,1
-5.0,-235.0,60.0,-53.0,33.0,-9.0,1
-7.0,-244.0,59.0,-51.0,34.0,-15.0,1
-5.0,-245.0,59.0,-49.0,37.0,-20.0,1
-7.0,-245.0,59.0,-49.0,39.0,-25.0,1
-6.0,-246.0,60.0,-49.0,43.0,-29.0,1
-7.0,-246.0,57.0,-49.0,46.0,-33.0,1
-7.0,-245.0,61.0,-49.0,50.0,-35.0,1
-5.0,-246.0,60.0,-50.0,54.0,-35.0,1
-3.0,-250.0,56.0,-51.0,57.0,-35.0,1
-5.0,-250.0,57.0,-52.0,58.0,-35.0,1
-6.0,-249.0,61.0,-52.0,56.0,-32.0,1
-12.0,-247.0,57.0,-52.0,56.0,-30.0,1
-8.0,-246.0,59.0,-51.0,53.0,-28.0,1
-6.0,-247.0,62.0,-46.0,51.0,-24.0,1
-8.0,-248.0,59.0,-41.0,47.0,-22.0,1
-5.0,-247.0,59.0,-39.0,42.0,-21.0,1
-6.0,-244.0,63.0,-37.0,40.0,-19.0,1
-9.0,-241.0,61.0,-35.0,39.0,-17.0,1
-9.0,-241.0,58.0,-33.0,37.0,-17.0,1
-8.0,-243.0,57.0,-34.0,37.0,-16.0,1
-4.0,-243.0,61.0,-35.0,38.0,-15.0,1
-8.0,-244.0,60.0,-35.0,40.0,-16.0,1
-10.0,-246.0,58.0,-35.0,40.0,-16.0,1
-9.0,-240.0,60.0,-36.0,41.0,-17.0,1
-11.0,-242.0,56.0,-38.0,41.0,-18.0,1
-5.0,-243.0,60.0,-41.0,41.0,-18.0,1
-10.0,-239.0,59.0,-41.0,40.0,-17.0,1
-9.0,-243.0,60.0,-43.0,40.0,-16.0,1
-10.0,-241.0,62.0,-46.0,40.0,-16.0,1
-9.0,-243.0,59.0,-47.0,38.0,-15.0,1
-9.0,-244.0,60.0,-47.0,35.0,-14.0,1
-9.0,-242.0,62.0,-46.0,33.0,-14.0,1
-9.0,-241.0,62.0,-47.0,32.0,-12.0,1
-8.0,-240.0,60.0,-47.0,30.0,-12.0,1
-7.0,-245.0,61.0,-46.0,28.0,-10.0,1
-7.0,-243.0,62.0,-45.0,25.0,-9.0,1
-8.0,-244.0,61.0,-42.0,24.0,-7.0,1
-7.0,-242.0,65.0,-41.0,21.0,-6.0,1
-11.0,-243.0,61.0,-37.0,20.0,-5.0,1
-9.0,-242.0,64.0,-34.0,17.0,-4.0,1
-4.0,-245.0,60.0,-30.0,15.0,-2.0,1
-8.0,-243.0,56.0,-29.0,14.0,0.0,1
-8.0,-242.0,62.0,-27.0,12.0,0.0,1
-8.0,-246.0,61.0,-27.0,12.0,3.0,1
-7.0,-242.0,63.0,-26.0,11.0,3.0,1
-7.0,-243.0,63.0,-25.0,10.0,4.0,1
-10.0,-244.0,61.0,-25.0,10.0,6.0,1
-7.0,-246.0,59.0,-27.0,8.0,7.0,1
-11.0,-244.0,63.0,-27.0,8.0,7.0,1
-9.0,-242.0,65.0,-26.0,7.0,8.0,1
-11.0,-242.0,63.0,-30.0,7.0,6.0,1
-8.0,-243.0,64.0,-32.0,7.0,6.0,1
-8.0,-244.0,62.0,-31.0,8.0,7.0,1
-7.0,-243.0,57.0,-32.0,8.0,7.0,1
-9.0,-240.0,62.0,-31.0,7.0,8.0,1
-5.0,-242.0,63.0,-33.0,6.0,9.0,1
-8.0,-244.0,62.0,-32.0,2.0,10.0,1
-7.0,-245.0,63.0,-33.0,3.0,9.0,1
-7.0,-244.0,58.0,-33.0,3.0,9.0,1
-9.0,-247.0,58.0,-32.0,2.0,9.0,1
-7.0,-243.0,60.0,-33.0,3.0,9.0,1
-8.0,-245.0,59.0,-32.0,4.0,10.0,1
-10.0,-244.0,64.0,-33.0,2.0,10.0,1
-8.0,-241.0,57.0,-36.0,2.0,9.0,1
-6.0,-241.0,56.0,-37.0,1.0,9.0,1
-8.0,-246.0,60.0,-39.0,1.0,7.0,1
-8.0,-242.0,57.0,-42.0,3.0,6.0,1
-9.0,-242.0,64.0,-45.0,3.0,5.0,1
-10.0,-242.0,61.0,-49.0,2.0,3.0,1
-6.0,-245.0,58.0,-49.0,3.0,5.0,1
-5.0,-245.0,58.0,-50.0,4.0,5.0,1
-6.0,-243.0,61.0,-52.0,4.0,4.0,1
-9.0,-246.0,60.0,-54.0,5.0,3.0,1
-8.0,-243.0,60.0,-53.0,7.0,2.0,1
-9.0,-242.0,59.0,-55.0,8.0,2.0,1
-5.0,-242.0,63.0,-54.0,10.0,2.0,1
-7.0,-245.0,61.0,-52.0,11.0,1.0,1
-6.0,-246.0,61.0,-50.0,11.0,2.0,1
-5.0,-244.0,64.0,-46.0,12.0,1.0,1
-5.0,-244.0,60.0,-43.0,11.0,3.0,1
-6.0,-242.0,58.0,-42.0,11.0,3.0,1
-9.0,-245.0,61.0,-39.0,11.0,1.0,1
-5.0,-244.0,61.0,-37.0,9.0,2.0,1
-7.0,-244.0,58.0,-37.0,9.0,2.0,1
-5.0,-241.0,59.0,-38.0,7.0,3.0,1
-4.0,-242.0,62.0,-37.0,8.0,2.0,1
-4.0,-245.0,61.0,-37.0,8.0,1.0,1
-3.0,-244.0,65.0,-39.0,7.0,-1.0,1
-3.0,-243.0,62.0,-42.0,7.0,-1.0,1
-4.0,-244.0,63.0,-43.0,7.0,-1.0,1
-6.0,-242.0,62.0,-46.0,9.0,-1.0,1
-7.0,-244.0,61.0,-48.0,11.0,-2.0,1
-7.0,-241.0,61.0,-52.0,12.0,-3.0,1
-7.0,-243.0,63.0,-52.0,15.0,-3.0,1
-6.0,-242.0,62.0,-55.0,16.0,-4.0,1
-4.0,-240.0,65.0,-57.0,19.0,-5.0,1
-7.0,-245.0,63.0,-57.0,19.0,-5.0,1
-9.0,-243.0,65.0,-60.0,20.0,-5.0,1
-4.0,-241.0,68.0,-60.0,21.0,-5.0,1
-5.0,-243.0,62.0,-58.0,23.0,-7.0,1
-8.0,-241.0,64.0,-58.0,24.0,-7.0,1
-8.0,-241.0,66.0,-57.0,26.0,-6.0,1
-3.0,-243.0,61.0,-56.0,27.0,-7.0,1
-5.0,-243.0,60.0,-55.0,26.0,-9.0,1
-9.0,-242.0,61.0,-56.0,27.0,-10.0,1
-9.0,-244.0,56.0,-56.0,28.0,-12.0,1
-4.0,-248.0,60.0,-56.0,28.0,-12.0,1
-5.0,-243.0,59.0,-55.0,28.0,-13.0,1
-5.0,-244.0,60.0,-57.0,28.0,-14.0,1
-11.0,-242.0,62.0,-59.0,29.0,-14.0,1
-7.0,-244.0,60.0,-61.0,28.0,-14.0,1
-4.0,-246.0,61.0,-64.0,28.0,-14.0,1
-6.0,-242.0,57.0,-65.0,27.0,-13.0,1
-5.0,-245.0,61.0,-66.0,28.0,-13.0,1
-6.0,-246.0,62.0,-66.0,27.0,-14.0,1
-6.0,-241.0,58.0,-69.0,28.0,-14.0,1
-5.0,-245.0,58.0,-70.0,27.0,-12.0,1
-8.0,-241.0,56.0,-72.0,26.0,-11.0,1
-5.0,-243.0,62.0,-75.0,24.0,-13.0,1
-5.0,-249.0,61.0,-78.0,24.0,-14.0,1
-6.0,-236.0,56.0,-81.0,24.0,-14.0,1
-9.0,-243.0,56.0,-85.0,25.0,-13.0,1
-6.0,-245.0,61.0,-86.0,24.0,-14.0,1
-6.0,-242.0,60.0,-89.0,25.0,-13.0,1
-8.0,-243.0,59.0,-93.0,27.0,-14.0,1
-9.0,-245.0,60.0,-94.0,25.0,-15.0,1
-7.0,-244.0,60.0,-95.0,25.0,-15.0,1
-7.0,-245.0,58.0,-94.0,24.0,-14.0,1
-10.0,-241.0,56.0,-94.0,24.0,-14.0,1
-11.0,-245.0,56.0,-95.0,25.0,-15.0,1
-8.0,-246.0,62.0,-94.0,23.0,-15.0,1
-11.0,-244.0,54.0,-92.0,23.0,-15.0,1
-10.0,-244.0,59.0,-89.0,22.0,-14.0,1
-7.0,-244.0,59.0,-88.0,24.0,-16.0,1
-7.0,-247.0,61.0,-86.0,22.0,-17.0,1
-7.0,-246.0,57.0,-85.0,21.0,-17.0,1
-6.0,-246.0,62.0,-82.0,22.0,-18.0,1
-7.0,-244.0,61.0,-82.0,21.0,-18.0,1
-10.0,-244.0,56.0,-82.0,20.0,-19.0,1
-5.0,-243.0,57.0,-82.0,20.0,-18.0,1
-11.0,-245.0,59.0,-83.0,20.0,-17.0,1
-8.0,-237.0,53.0,-83.0,20.0,-16.0,1
-10.0,-243.0,61.0,-85.0,18.0,-15.0,1
-8.0,-243.0,57.0,-84.0,18.0,-15.0,1
-11.0,-243.0,61.0,-85.0,18.0,-15.0,1
-7.0,-244.0,58.0,-86.0,17.0,-14.0,1
-7.0,-243.0,59.0,-89.0,15.0,-15.0,1
-8.0,-242.0,62.0,-91.0,15.0,-14.0,1
-8.0,-245.0,58.0,-92.0,15.0,-14.0,1
-4.0,-243.0,61.0,-93.0,14.0,-14.0,1
-6.0,-244.0,58.0,-92.0,14.0,-14.0,1
-8.0,-244.0,57.0,-92.0,14.0,-15.0,1
-10.0,-242.0,50.0,-93.0,15.0,-16.0,1
-6.0,-245.0,60.0,-93.0,16.0,-15.0,1
-9.0,-246.0,61.0,-96.0,16.0,-18.0,1
-9.0,-243.0,57.0,-96.0,15.0,-18.0,1
-5.0,-244.0,60.0,-96.0,15.0,-18.0,1
-9.0,-244.0,59.0,-97.0,15.0,-18.0,1
-5.0,-248.0,58.0,-97.0,15.0,-18.0,1
-6.0,-247.0,57.0,-96.0,16.0,-18.0,1
-6.0,-246.0,56.0,-96.0,15.0,-18.0,1
-9.0,-244.0,58.0,-97.0,15.0,-18.0,1
-11.0,-243.0,55.0,-96.0,14.0,-18.0,1
-12.0,-245.0,63.0,-97.0,13.0,-17.0,1
-7.0,-247.0,58.0,-96.0,13.0,-18.0,1
-7.0,-246.0,58.0,-97.0,13.0,-17.0,1
-6.0,-248.0,55.0,-93.0,12.0,-16.0,1
-8.0,-242.0,56.0,-91.0,10.0,-15.0,1
-6.0,-246.0,59.0,-90.0,10.0,-16.0,1
-6.0,-245.0,56.0,-88.0,11.0,-17.0,1
-5.0,-243.0,55.0,-87.0,11.0,-15.0,1
-8.0,-244.0,55.0,-86.0,11.0,-13.0,1
-8.0,-246.0,54.0,-83.0,12.0,-14.0,1
-4.0,-246.0,53.0,-82.0,11.0,-14.0,1
-5.0,-247.0,50.0,-82.0,13.0,-16.0,1
-7.0,-248.0,57.0,-84.0,10.0,-16.0,1
-6.0,-246.0,54.0,-83.0,10.0,-17.0,1
-6.0,-246.0,58.0,-85.0,10.0,-16.0,1
-7.0,-246.0,53.0,-89.0,11.0,-17.0,1
-6.0,-246.0,55.0,-90.0,12.0,-18.0,1
-6.0,-244.0,51.0,-91.0,14.0,-19.0,1
-6.0,-245.0,51.0,-94.0,17.0,-19.0,1
-7.0,-247.0,54.0,-94.0,17.0,-18.0,1
-7.0,-242.0,55.0,-94.0,18.0,-19.0,1
-6.0,-244.0,53.0,-95.0,17.0,-19.0,1
-4.0,-245.0,54.0,-94.0,16.0,-20.0,1
-5.0,-246.0,57.0,-92.0,15.0,-20.0,1
-4.0,-245.0,51.0,-91.0,15.0,-20.0,1
-4.0,-246.0,55.0,-87.0,15.0,-19.0,1
-2.0,-249.0,57.0,-82.0,15.0,-18.0,1
-5.0,-249.0,54.0,-80.0,15.0,-16.0,1
-3.0,-245.0,59.0,-76.0,15.0,-15.0,1
-2.0,-248.0,56.0,-76.0,14.0,-14.0,1
-5.0,-244.0,57.0,-72.0,15.0,-15.0,1
-5.0,-243.0,59.0,-72.0,15.0,-16.0,1
-2.0,-246.0,56.0,-69.0,15.0,-17.0,1
1.0,-245.0,53.0,-69.0,17.0,-15.0,1
-4.0,-244.0,55.0,-69.0,16.0,-14.0,1
-3.0,-247.0,57.0,-71.0,17.0,-13.0,1
-5.0,-245.0,54.0,-74.0,17.0,-14.0,1
-6.0,-244.0,54.0,-72.0,18.0,-14.0,1
-4.0,-246.0,53.0,-74.0,18.0,-13.0,1
-4.0,-249.0,57.0,-74.0,17.0,-12.0,1
-2.0,-247.0,56.0,-75.0,16.0,-12.0,1
-3.0,-247.0,56.0,-77.0,17.0,-10.0,1
-5.0,-245.0,50.0,-75.0,17.0,-12.0,1
-8.0,-245.0,55.0,-75.0,18.0,-13.0,1
1.0,-241.0,53.0,-73.0,17.0,-14.0,1
-7.0,-244.0,53.0,-72.0,16.0,-14.0,1
-6.0,-246.0,56.0,-72.0,17.0,-14.0,1
-4.0,-246.0,54.0,-72.0,17.0,-14.0,1
-3.0,-247.0,52.0,-72.0,19.0,-16.0,1
-3.0,-248.0,56.0,-72.0,22.0,-16.0,1
-5.0,-246.0,53.0,-71.0,24.0,-16.0,1
-3.0,-249.0,57.0,-73.0,24.0,-17.0,1
-6.0,-247.0,59.0,-71.0,24.0,-18.0,1
-6.0,-243.0,60.0,-69.0,24.0,-18.0,1
-5.0,-248.0,57.0,-67.0,24.0,-19.0,1
-6.0,-245.0,51.0,-66.0,24.0,-17.0,1
-4.0,-246.0,55.0,-63.0,23.0,-16.0,1
-1.0,-247.0,52.0,-60.0,22.0,-17.0,1
-5.0,-246.0,54.0,-58.0,22.0,-16.0,1
-5.0,-245.0,53.0,-56.0,22.0,-15.0,1
-4.0,-245.0,54.0,-54.0,22.0,-14.0,1
-4.0,-244.0,54.0,-54.0,22.0,-14.0,1
-5.0,-245.0,52.0,-56.0,19.0,-14.0,1
-1.0,-246.0,52.0,-58.0,20.0,-14.0,1
-2.0,-243.0,58.0,-60.0,20.0,-14.0,1
-6.0,-243.0,52.0,-63.0,20.0,-15.0,1
-3.0,-250.0,53.0,-63.0,20.0,-18.0,1
-7.0,-246.0,52.0,-66.0,20.0,-18.0,1
-5.0,-246.0,54.0,-68.0,21.0,-16.0,1
-5.0,-244.0,54.0,-69.0,23.0,-17.0,1
-6.0,-246.0,52.0,-70.0,23.0,-16.0,1
-5.0,-248.0,51.0,-72.0,22.0,-17.0,1
-5.0,-246.0,52.0,-73.0,22.0,-18.0,1
-7.0,-245.0,55.0,-73.0,23.0,-17.0,1
-4.0,-245.0,53.0,-72.0,23.0,-17.0,1
-4.0,-247.0,52.0,-72.0,24.0,-17.0,1
-2.0,-247.0,52.0,-74.0,25.0,-16.0,1
-6.0,-251.0,52.0,-74.0,23.0,-15.0,1
-6.0,-247.0,54.0,-72.0,23.0,-15.0,1
-5.0,-248.0,55.0,-73.0,25.0,-15.0,1
-5.0,-248.0,54.0,-70.0,24.0,-15.0,1
-5.0,-246.0,48.0,-68.0,23.0,-14.0,1
-2.0,-247.0,56.0,-68.0,22.0,-14.0,1
-5.0,-245.0,49.0,-67.0,21.0,-14.0,1
-4.0,-249.0,56.0,-68.0,20.0,-14.0,1
-4.0,-248.0,57.0,-67.0,19.0,-13.0,1
-6.0,-246.0,50.0,-69.0,17.0,-13.0,1
-1.0,-242.0,65.0,-68.0,18.0,-12.0,1
-3.0,-246.0,52.0,-70.0,18.0,-13.0,1
-4.0,-246.0,51.0,-70.0,17.0,-13.0,1
-3.0,-246.0,51.0,-72.0,17.0,-12.0,1
-5.0,-244.0,55.0,-72.0,17.0,-14.0,1
-5.0,-244.0,51.0,-75.0,16.0,-12.0,1
-5.0,-245.0,51.0,-79.0,18.0,-13.0,1
-4.0,-244.0,52.0,-80.0,18.0,-13.0,1
-5.0,-244.0,52.0,-84.0,18.0,-12.0,1
-3.0,-243.0,48.0,-84.0,19.0,-12.0,1
-5.0,-249.0,46.0,-84.0,20.0,-13.0,1
-9.0,-249.0,43.0,-86.0,21.0,-14.0,1
-2.0,-251.0,53.0,-86.0,21.0,-13.0,1
-4.0,-248.0,50.0,-86.0,22.0,-13.0,1
-4.0,-248.0,51.0,-85.0,23.0,-13.0,1
-5.0,-247.0,52.0,-82.0,23.0,-11.0,1
-6.0,-247.0,51.0,-80.0,21.0,-10.0,1
-3.0,-251.0,48.0,-80.0,20.0,-12.0,1
-4.0,-249.0,54.0,-77.0,18.0,-12.0,1
-7.0,-246.0,47.0,-76.0,17.0,-10.0,1
-7.0,-249.0,52.0,-73.0,16.0,-11.0,1
-7.0,-247.0,51.0,-71.0,13.0,-10.0,1
-3.0,-242.0,61.0,-72.0,14.0,-11.0,1
-6.0,-244.0,54.0,-70.0,13.0,-10.0,1
-4.0,-248.0,55.0,-69.0,13.0,-9.0,1
-5.0,-246.0,49.0,-69.0,14.0,-9.0,1
-4.0,-249.0,51.0,-71.0,15.0,-9.0,1
-6.0,-246.0,53.0,-69.0,15.0,-8.0,1
-5.0,-249.0,51.0,-69.0,15.0,-8.0,1
-5.0,-249.0,53.0,-69.0,16.0,-9.0,1
-5.0,-246.0,53.0,-70.0,17.0,-9.0,1
-5.0,-246.0,53.0,-69.0,18.0,-10.0,1
-5.0,-248.0,56.0,-69.0,18.0,-11.0,1
-7.0,-253.0,56.0,-68.0,21.0,-9.0,1
-5.0,-245.0,54.0,-67.0,21.0,-8.0,1
-8.0,-248.0,54.0,-67.0,21.0,-9.0,1
-6.0,-248.0,54.0,-69.0,20.0,-11.0,1
-4.0,-245.0,51.0,-69.0,19.0,-10.0,1
-6.0,-244.0,57.0,-69.0,18.0,-11.0,1
-5.0,-249.0,53.0,-67.0,16.0,-11.0,1
-6.0,-249.0,52.0,-66.0,14.0,-8.0,1
-9.0,-247.0,52.0,-66.0,14.0,-6.0,1
-6.0,-248.0,50.0,-66.0,14.0,-5.0,1
-4.0,-248.0,51.0,-67.0,11.0,-3.0,1
-7.0,-241.0,51.0,-67.0,10.0,-1.0,1
-11.0,-246.0,54.0,-67.0,7.0,0.0,1
-6.0,-246.0,52.0,-70.0,5.0,3.0,1
-5.0,-248.0,53.0,-75.0,10.0,4.0,1
-8.0,-241.0,53.0,-82.0,12.0,6.0,1
-4.0,-246.0,48.0,-88.0,15.0,7.0,1
-3.0,-243.0,50.0,-96.0,17.0,11.0,1
-2.0,-246.0,49.0,-101.0,17.0,11.0,1
-5.0,-244.0,52.0,-106.0,17.0,12.0,1
-6.0,-243.0,48.0,-111.0,15.0,13.0,1
-5.0,-244.0,49.0,-112.0,14.0,15.0,1
-7.0,-244.0,49.0,-114.0,16.0,17.0,1
-4.0,-244.0,51.0,-117.0,20.0,19.0,1
-3.0,-247.0,53.0,-117.0,25.0,20.0,1
0.0,-246.0,52.0,-116.0,28.0,24.0,1
-2.0,-249.0,52.0,-114.0,29.0,25.0,1
-3.0,-247.0,52.0,-115.0,35.0,24.0,1
2.0,-247.0,48.0,-115.0,38.0,24.0,1
-2.0,-247.0,56.0,-116.0,42.0,23.0,1
-3.0,-247.0,51.0,-121.0,45.0,21.0,1
0.0,-248.0,54.0,-127.0,46.0,17.0,1
-2.0,-248.0,53.0,-134.0,47.0,11.0,1
1.0,-244.0,63.0,-140.0,49.0,9.0,1
-3.0,-247.0,54.0,-146.0,50.0,6.0,1
-2.0,-248.0,51.0,-149.0,50.0,1.0,1
-3.0,-246.0,50.0,-152.0,49.0,-2.0,1
-3.0,-249.0,50.0,-153.0,49.0,-5.0,1
-4.0,-249.0,52.0,-152.0,47.0,-5.0,1
-7.0,-245.0,53.0,-150.0,45.0,-7.0,1
-9.0,-243.0,45.0,-146.0,41.0,-7.0,1
-8.0,-248.0,48.0,-143.0,38.0,-7.0,1
-3.0,-246.0,52.0,-141.0,35.0,-5.0,1
-10.0,-243.0,51.0,-137.0,32.0,-4.0,1
-10.0,-247.0,48.0,-134.0,29.0,-2.0,1
-5.0,-243.0,50.0,-132.0,26.0,0.0,1
-8.0,-240.0,48.0,-130.0,26.0,0.0,1
-6.0,-240.0,44.0,-127.0,24.0,2.0,1
-6.0,-244.0,48.0,-128.0,24.0,3.0,1
-4.0,-242.0,45.0,-129.0,23.0,2.0,1
-4.0,-242.0,45.0,-133.0,22.0,1.0,1
-7.0,-241.0,46.0,-138.0,24.0,0.0,1
-4.0,-241.0,49.0,-145.0,26.0,-1.0,1
-2.0,-242.0,46.0,-153.0,28.0,-4.0,1
-4.0,-241.0,50.0,-162.0,31.0,-5.0,1
-2.0,-244.0,45.0,-173.0,35.0,-6.0,1
-5.0,-244.0,50.0,-183.0,39.0,-8.0,1
-5.0,-242.0,42.0,-193.0,42.0,-11.0,1
-5.0,-247.0,47.0,-202.0,45.0,-14.0,1
-6.0,-249.0,51.0,-212.0,48.0,-19.0,1
-4.0,-251.0,44.0,-222.0,48.0,-23.0,1
-1.0,-251.0,48.0,-227.0,48.0,-24.0,1
-5.0,-250.0,44.0,-234.0,50.0,-24.0,1
-4.0,-252.0,44.0,-238.0,50.0,-26.0,1
-8.0,-247.0,39.0,-241.0,46.0,-25.0,1
-5.0,-251.0,52.0,-242.0,43.0,-24.0,1
-3.0,-254.0,48.0,-242.0,39.0,-21.0,1
-8.0,-252.0,44.0,-243.0,34.0,-18.0,1
-7.0,-251.0,44.0,-239.0,29.0,-15.0,1
-8.0,-252.0,41.0,-237.0,25.0,-11.0,1
-7.0,-251.0,44.0,-236.0,21.0,-9.0,1
-4.0,-249.0,40.0,-236.0,18.0,-6.0,1
-7.0,-246.0,46.0,-234.0,16.0,-4.0,1
-7.0,-246.0,42.0,-238.0,13.0,0.0,1
-7.0,-245.0,43.0,-240.0,12.0,2.0,1
-3.0,-249.0,41.0,-250.0,13.0,1.0,1
-5.0,-245.0,36.0,-259.0,16.0,2.0,1
-1.0,-247.0,37.0,-269.0,18.0,0.0,1
-3.0,-248.0,35.0,-282.0,21.0,-1.0,1
-3.0,-246.0,39.0,-293.0,26.0,-4.0,1
-2.0,-247.0,42.0,-304.0,28.0,-6.0,1
-1.0,-248.0,43.0,-311.0,34.0,-10.0,1
-1.0,-250.0,38.0,-316.0,37.0,-11.0,1
1.0,-250.0,39.0,-318.0,39.0,-14.0,1
-1.0,-249.0,44.0,-319.0,44.0,-18.0,1
-2.0,-251.0,43.0,-321.0,48.0,-22.0,1
-6.0,-254.0,46.0,-322.0,50.0,-26.0,1
-2.0,-253.0,49.0,-322.0,53.0,-31.0,1
-2.0,-257.0,44.0,-320.0,54.0,-35.0,1
-5.0,-254.0,43.0,-320.0,54.0,-38.0,1
-5.0,-255.0,37.0,-319.0,55.0,-40.0,1
-6.0,-254.0,40.0,-319.0,55.0,-42.0,1
-5.0,-255.0,40.0,-318.0,55.0,-44.0,1
-3.0,-253.0,36.0,-319.0,56.0,-48.0,1
-5.0,-252.0,36.0,-320.0,56.0,-48.0,1
-2.0,-250.0,41.0,-320.0,56.0,-50.0,1
-2.0,-252.0,35.0,-320.0,55.0,-52.0,1
-2.0,-251.0,40.0,-321.0,54.0,-55.0,1
-5.0,-254.0,30.0,-318.0,53.0,-58.0,1
-5.0,-254.0,34.0,-316.0,53.0,-59.0,1
-1.0,-253.0,34.0,-312.0,51.0,-59.0,1
-2.0,-252.0,38.0,-309.0,50.0,-58.0,1
-1.0,-253.0,33.0,-307.0,49.0,-59.0,1
-4.0,-254.0,34.0,-303.0,50.0,-57.0,1
0.0,-255.0,34.0,-302.0,52.0,-53.0,1
-1.0,-254.0,31.0,-303.0,55.0,-48.0,1
-2.0,-256.0,32.0,-306.0,62.0,-41.0,1
-3.0,-254.0,32.0,-312.0,68.0,-37.0,1
1.0,-261.0,33.0,-319.0,73.0,-32.0,1
-2.0,-253.0,33.0,-325.0,78.0,-27.0,1
-1.0,-253.0,27.0,-332.0,82.0,-22.0,1
-6.0,-254.0,28.0,-343.0,85.0,-18.0,1
-2.0,-255.0,28.0,-355.0,87.0,-15.0,1
-3.0,-256.0,27.0,-360.0,92.0,-11.0,1
-3.0,-256.0,27.0,-371.0,95.0,-7.0,1
-6.0,-256.0,23.0,-379.0,96.0,-5.0,1
-6.0,-257.0,25.0,-386.0,98.0,-2.0,1
-8.0,-257.0,28.0,-389.0,97.0,-1.0,1
-8.0,-257.0,26.0,-393.0,96.0,-1.0,1
-10.0,-255.0,27.0,-395.0,94.0,0.0,1
-5.0,-259.0,23.0,-398.0,93.0,1.0,1
-10.0,-256.0,29.0,-400.0,93.0,0.0,1
-8.0,-257.0,26.0,-398.0,92.0,0.0,1
-7.0,-258.0,24.0,-400.0,92.0,-2.0,1
-10.0,-258.0,24.0,-399.0,94.0,-2.0,1
-9.0,-261.0,23.0,-402.0,96.0,-2.0,1
-10.0,-258.0,24.0,-405.0,98.0,-3.0,1
-5.0,-261.0,23.0,-407.0,103.0,-5.0,1
-9.0,-257.0,20.0,-410.0,107.0,-6.0,1
-9.0,-256.0,18.0,-415.0,109.0,-7.0,1
-3.0,-260.0,17.0,-422.0,112.0,-10.0,1
-2.0,-256.0,17.0,-428.0,115.0,-12.0,1
-6.0,-256.0,18.0,-433.0,118.0,-15.0,1
-6.0,-255.0,15.0,-437.0,120.0,-18.0,1
-7.0,-252.0,16.0,-443.0,123.0,-19.0,1
-3.0,-256.0,16.0,-447.0,125.0,-19.0,1
-2.0,-255.0,19.0,-449.0,125.0,-21.0,1
-5.0,-254.0,20.0,-450.0,122.0,-21.0,1
-3.0,-257.0,22.0,-449.0,122.0,-20.0,1
-2.0,-257.0,23.0,-447.0,117.0,-20.0,1
-4.0,-259.0,16.0,-445.0,112.0,-20.0,1
-3.0,-261.0,17.0,-443.0,107.0,-19.0,1
-3.0,-259.0,19.0,-444.0,99.0,-21.0,1
-5.0,-260.0,17.0,-445.0,95.0,-19.0,1
-7.0,-260.0,14.0,-449.0,90.0,-19.0,1
-6.0,-261.0,13.0,-458.0,85.0,-16.0,1
-6.0,-263.0,9.0,-468.0,83.0,-15.0,1
-6.0,-262.0,7.0,-479.0,79.0,-13.0,1
-7.0,-265.0,6.0,-491.0,77.0,-12.0,1
-11.0,-263.0,1.0,-506.0,75.0,-13.0,1
-9.0,-265.0,8.0,-522.0,74.0,-12.0,1
-8.0,-265.0,-3.0,-536.0,74.0,-10.0,1
-8.0,-263.0,2.0,-547.0,71.0,-12.0,1
-4.0,-260.0,4.0,-558.0,73.0,-12.0,1
-3.0,-261.0,-1.0,-566.0,74.0,-14.0,1
-1.0,-262.0,0.0,-572.0,76.0,-19.0,1
-1.0,-260.0,-5.0,-574.0,78.0,-22.0,1
2.0,-260.0,-1.0,-575.0,82.0,-26.0,1
2.0,-260.0,0.0,-575.0,85.0,-30.0,1
0.0,-261.0,-8.0,-573.0,89.0,-35.0,1
6.0,-262.0,-3.0,-570.0,92.0,-39.0,1
11.0,-262.0,-7.0,-569.0,97.0,-42.0,1
7.0,-262.0,-9.0,-565.0,100.0,-45.0,1
7.0,-260.0,-7.0,-562.0,100.0,-48.0,1
10.0,-260.0,-7.0,-556.0,101.0,-51.0,1
8.0,-261.0,-8.0,-556.0,103.0,-51.0,1
7.0,-258.0,-14.0,-554.0,106.0,-51.0,1
6.0,-258.0,-11.0,-554.0,111.0,-52.0,1
2.0,-259.0,-14.0,-556.0,114.0,-51.0,1
1.0,-258.0,-17.0,-564.0,116.0,-48.0,1
4.0,-258.0,-16.0,-573.0,120.0,-46.0,1
-1.0,-257.0,-17.0,-581.0,122.0,-43.0,1
4.0,-262.0,-15.0,-594.0,125.0,-40.0,1
-3.0,-263.0,-17.0,-603.0,125.0,-38.0,1
-2.0,-263.0,-16.0,-613.0,126.0,-37.0,1
-2.0,-268.0,-13.0,-623.0,127.0,-38.0,1
0.0,-269.0,-13.0,-631.0,127.0,-40.0,1
-2.0,-272.0,-11.0,-639.0,125.0,-43.0,1
-2.0,-278.0,-10.0,-643.0,122.0,-47.0,1
-4.0,-282.0,-13.0,-646.0,121.0,-52.0,1
-4.0,-286.0,-13.0,-647.0,118.0,-58.0,1
-2.0,-288.0,-11.0,-645.0,116.0,-64.0,1
-2.0,-296.0,-15.0,-642.0,114.0,-71.0,1
-4.0,-298.0,-13.0,-634.0,113.0,-77.0,1
-7.0,-302.0,-26.0,-620.0,112.0,-82.0,1
-9.0,-303.0,-21.0,-605.0,111.0,-89.0,1
-10.0,-308.0,-19.0,-583.0,110.0,-93.0,1
-8.0,-307.0,-22.0,-559.0,109.0,-96.0,1
-5.0,-311.0,-21.0,-531.0,106.0,-98.0,1
-8.0,-309.0,-24.0,-501.0,101.0,-95.0,1
-8.0,-308.0,-26.0,-469.0,94.0,-94.0,1
-7.0,-304.0,-28.0,-438.0,86.0,-90.0,1
-2.0,-303.0,-28.0,-405.0,76.0,-87.0,1
-5.0,-298.0,-30.0,-374.0,67.0,-83.0,1
-7.0,-298.0,-31.0,-341.0,58.0,-78.0,1
-3.0,-293.0,-32.0,-314.0,49.0,-71.0,1
-3.0,-286.0,-32.0,-287.0,40.0,-63.0,1
-2.0,-280.0,-31.0,-264.0,31.0,-54.0,1
-2.0,-280.0,-33.0,-246.0,23.0,-46.0,1
3.0,-278.0,-31.0,-232.0,16.0,-36.0,1
5.0,-275.0,-35.0,-223.0,6.0,-28.0,1
1.0,-267.0,-35.0,-217.0,-3.0,-22.0,1
2.0,-266.0,-37.0,-218.0,-11.0,-18.0,1
3.0,-266.0,-39.0,-223.0,-15.0,-13.0,1
2.0,-263.0,-40.0,-230.0,-22.0,-11.0,1
3.0,-262.0,-42.0,-238.0,-27.0,-8.0,1
3.0,-264.0,-42.0,-252.0,-31.0,-5.0,1
1.0,-260.0,-44.0,-269.0,-32.0,-4.0,1
3.0,-266.0,-46.0,-283.0,-36.0,-3.0,1
0.0,-263.0,-48.0,-299.0,-39.0,-3.0,1
-2.0,-261.0,-46.0,-312.0,-43.0,-2.0,1
-1.0,-262.0,-51.0,-321.0,-49.0,-1.0,1
-5.0,-261.0,-48.0,-326.0,-54.0,1.0,1
-3.0,-262.0,-51.0,-328.0,-59.0,2.0,1
-5.0,-265.0,-48.0,-324.0,-68.0,4.0,1
-5.0,-263.0,-48.0,-321.0,-75.0,5.0,1
-8.0,-263.0,-43.0,-317.0,-83.0,6.0,1
-3.0,-264.0,-41.0,-312.0,-87.0,8.0,1
-3.0,-262.0,-47.0,-303.0,-92.0,8.0,1
-5.0,-251.0,-49.0,-297.0,-94.0,6.0,1
0.0,-265.0,-48.0,-291.0,-97.0,5.0,1
3.0,-262.0,-56.0,-289.0,-100.0,-1.0,1
-3.0,-263.0,-58.0,-287.0,-103.0,-4.0,1
8.0,-259.0,-44.0,-286.0,-107.0,-10.0,1
-4.0,-262.0,-57.0,-286.0,-112.0,-16.0,1
0.0,-265.0,-41.0,-284.0,-119.0,-20.0,1
-6.0,-267.0,-52.0,-282.0,-126.0,-25.0,1
0.0,-263.0,-58.0,-281.0,-134.0,-28.0,1
-2.0,-265.0,-50.0,-278.0,-143.0,-29.0,1
4.0,-265.0,-50.0,-276.0,-152.0,-30.0,1
-2.0,-277.0,-54.0,-275.0,-162.0,-29.0,1
4.0,-265.0,-53.0,-275.0,-173.0,-26.0,1
0.0,-264.0,-57.0,-273.0,-184.0,-26.0,1
4.0,-265.0,-43.0,-274.0,-191.0,-23.0,1
-1.0,-269.0,-48.0,-275.0,-196.0,-21.0,1
1.0,-269.0,-57.0,-278.0,-202.0,-20.0,1
2.0,-264.0,-52.0,-277.0,-207.0,-18.0,1
-6.0,-269.0,-57.0,-279.0,-211.0,-16.0,1
2.0,-267.0,-54.0,-280.0,-217.0,-16.0,1
-7.0,-267.0,-54.0,-280.0,-221.0,-16.0,1
-9.0,-260.0,-53.0,-281.0,-223.0,-16.0,1
-11.0,-271.0,-51.0,-281.0,-226.0,-15.0,1
-3.0,-263.0,-46.0,-282.0,-231.0,-14.0,1
-9.0,-270.0,-54.0,-280.0,-234.0,-13.0,1
-2.0,-264.0,-55.0,-279.0,-238.0,-12.0,1
-2.0,-261.0,-46.0,-278.0,-243.0,-9.0,1
-6.0,-263.0,-50.0,-275.0,-248.0,-8.0,1
-7.0,-260.0,-52.0,-273.0,-252.0,-4.0,1
-1.0,-264.0,-52.0,-270.0,-257.0,-1.0,1
-1.0,-260.0,-50.0,-267.0,-260.0,3.0,1
-4.0,-274.0,-47.0,-266.0,-264.0,6.0,1
-1.0,-262.0,-50.0,-264.0,-266.0,10.0,1
-2.0,-259.0,-51.0,-262.0,-270.0,14.0,1
2.0,-259.0,-51.0,-261.0,-272.0,16.0,1
-1.0,-260.0,-52.0,-259.0,-274.0,19.0,1
-1.0,-251.0,-57.0,-254.0,-273.0,20.0,1
1.0,-256.0,-53.0,-253.0,-272.0,21.0,1
-1.0,-255.0,-53.0,-252.0,-271.0,20.0,1
5.0,-258.0,-54.0,-250.0,-270.0,23.0,1
2.0,-255.0,-52.0,-250.0,-266.0,24.0,1
5.0,-256.0,-51.0,-250.0,-262.0,26.0,1
4.0,-259.0,-55.0,-252.0,-259.0,26.0,1
3.0,-258.0,-49.0,-250.0,-253.0,25.0,1
7.0,-260.0,-50.0,-251.0,-248.0,25.0,1
7.0,-262.0,-51.0,-250.0,-245.0,25.0,1
8.0,-264.0,-51.0,-247.0,-243.0,23.0,1
4.0,-261.0,-52.0,-243.0,-238.0,21.0,1
4.0,-258.0,-51.0,-237.0,-235.0,21.0,1
1.0,-260.0,-53.0,-231.0,-234.0,18.0,1
3.0,-266.0,-51.0,-228.0,-233.0,18.0,1
-1.0,-259.0,-52.0,-224.0,-231.0,15.0,1
1.0,-261.0,-57.0,-218.0,-231.0,14.0,1
2.0,-263.0,-56.0,-212.0,-230.0,14.0,1
0.0,-261.0,-54.0,-206.0,-228.0,15.0,1
2.0,-260.0,-56.0,-198.0,-228.0,16.0,1
2.0,-257.0,-56.0,-193.0,-227.0,17.0,1
6.0,-258.0,-57.0,-187.0,-226.0,18.0,1
1.0,-260.0,-57.0,-183.0,-225.0,17.0,1
5.0,-261.0,-54.0,-179.0,-224.0,16.0,1
2.0,-258.0,-56.0,-175.0,-224.0,14.0,1
6.0,-260.0,-55.0,-174.0,-226.0,11.0,1
2.0,-258.0,-56.0,-169.0,-229.0,8.0,1
1.0,-258.0,-54.0,-168.0,-232.0,6.0,1
4.0,-259.0,-55.0,-165.0,-237.0,4.0,1
4.0,-260.0,-56.0,-162.0,-241.0,4.0,1
2.0,-259.0,-56.0,-159.0,-241.0,5.0,1
-1.0,-264.0,-55.0,-160.0,-243.0,8.0,1
-1.0,-261.0,-60.0,-151.0,-247.0,8.0,1
-2.0,-263.0,-59.0,-142.0,-250.0,11.0,1
-2.0,-263.0,-55.0,-134.0,-251.0,15.0,1
2.0,-264.0,-61.0,-125.0,-252.0,17.0,1
-2.0,-260.0,-56.0,-115.0,-251.0,22.0,1
1.0,-263.0,-55.0,-110.0,-249.0,28.0,1
-3.0,-264.0,-61.0,-107.0,-245.0,30.0,1
-4.0,-262.0,-57.0,-101.0,-240.0,34.0,1
-2.0,-260.0,-57.0,-94.0,-236.0,36.0,1
-2.0,-259.0,-60.0,-94.0,-230.0,38.0,1
-5.0,-261.0,-57.0,-91.0,-224.0,39.0,1
-4.0,-256.0,-56.0,-89.0,-220.0,38.0,1
-3.0,-257.0,-61.0,-87.0,-215.0,38.0,1
-3.0,-255.0,-57.0,-86.0,-211.0,34.0,1
-3.0,-253.0,-55.0,-86.0,-207.0,32.0,1
-5.0,-253.0,-56.0,-86.0,-202.0,31.0,1
-5.0,-254.0,-56.0,-83.0,-193.0,28.0,1
-6.0,-251.0,-56.0,-84.0,-189.0,26.0,1
-10.0,-250.0,-53.0,-87.0,-186.0,21.0,1
-9.0,-254.0,-52.0,-84.0,-181.0,19.0,1
-10.0,-255.0,-58.0,-81.0,-179.0,18.0,1
-11.0,-250.0,-57.0,-83.0,-175.0,18.0,1
-10.0,-252.0,-56.0,-86.0,-172.0,19.0,1
-12.0,-246.0,-59.0,-97.0,-166.0,24.0,1
-11.0,-245.0,-55.0,-121.0,-157.0,31.0,1
-19.0,-251.0,-53.0,-145.0,-152.0,31.0,1
-10.0,-253.0,-57.0,-161.0,-148.0,33.0,1
-13.0,-252.0,-54.0,-164.0,-147.0,27.0,1
-9.0,-253.0,-52.0,-150.0,-151.0,22.0,1
-12.0,-252.0,-54.0,-136.0,-153.0,18.0,1
-11.0,-249.0,-58.0,-127.0,-151.0,21.0,1
-10.0,-247.0,-57.0,-130.0,-143.0,25.0,1
-11.0,-254.0,-52.0,-136.0,-139.0,24.0,1
-12.0,-248.0,-53.0,-137.0,-138.0,20.0,1
-11.0,-253.0,-55.0,-128.0,-139.0,18.0,1
-14.0,-249.0,-55.0,-117.0,-137.0,16.0,1
-6.0,-246.0,-59.0,-105.0,-138.0,16.0,1
-7.0,-245.0,-56.0,-103.0,-134.0,18.0,1
-9.0,-246.0,-55.0,-111.0,-128.0,21.0,1
-9.0,-243.0,-55.0,-121.0,-124.0,24.0,1
-8.0,-244.0,-55.0,-131.0,-124.0,25.0,1
-10.0,-243.0,-53.0,-136.0,-124.0,26.0,1
-10.0,-239.0,-55.0,-129.0,-127.0,21.0,1
-6.0,-242.0,-52.0,-131.0,-127.0,27.0,1
-9.0,-241.0,-55.0,-137.0,-124.0,26.0,1
-9.0,-242.0,-53.0,-145.0,-128.0,25.0,1
-9.0,-242.0,-58.0,-151.0,-129.0,26.0,1
-10.0,-242.0,-56.0,-149.0,-127.0,30.0,1
-8.0,-237.0,-57.0,-151.0,-124.0,35.0,1
-9.0,-232.0,-61.0,-173.0,-119.0,45.0,1
-14.0,-238.0,-53.0,-199.0,-114.0,48.0,1
-13.0,-237.0,-58.0,-208.0,-118.0,45.0,1
-11.0,-241.0,-55.0,-208.0,-121.0,47.0,1
-15.0,-241.0,-54.0,-208.0,-122.0,49.0,1
-10.0,-237.0,-56.0,-208.0,-124.0,51.0,1
-15.0,-243.0,-52.0,-210.0,-125.0,55.0,1
-13.0,-241.0,-55.0,-211.0,-122.0,58.0,1
-14.0,-242.0,-56.0,-213.0,-122.0,61.0,1
-15.0,-239.0,-54.0,-218.0,-125.0,65.0,1
-10.0,-241.0,-54.0,-226.0,-123.0,68.0,1
-12.0,-240.0,-55.0,-230.0,-121.0,71.0,1
-14.0,-238.0,-55.0,-235.0,-123.0,72.0,1
-12.0,-239.0,-58.0,-245.0,-124.0,74.0,1
-13.0,-235.0,-63.0,-263.0,-120.0,78.0,1
-9.0,-237.0,-60.0,-286.0,-117.0,82.0,1
-12.0,-236.0,-59.0,-310.0,-118.0,79.0,1
-13.0,-242.0,-57.0,-329.0,-118.0,79.0,1
-10.0,-245.0,-55.0,-335.0,-124.0,75.0,1
-8.0,-238.0,-61.0,-334.0,-129.0,71.0,1
-12.0,-243.0,-58.0,-330.0,-134.0,67.0,1
-14.0,-240.0,-62.0,-335.0,-137.0,67.0,1
-13.0,-248.0,-58.0,-351.0,-141.0,66.0,1
-9.0,-246.0,-60.0,-353.0,-145.0,60.0,1
-11.0,-242.0,-69.0,-353.0,-147.0,62.0,1
-13.0,-246.0,-68.0,-360.0,-149.0,63.0,1
-12.0,-243.0,-67.0,-369.0,-148.0,62.0,1
-14.0,-240.0,-63.0,-384.0,-147.0,67.0,1
-12.0,-236.0,-67.0,-403.0,-148.0,68.0,1
-11.0,-245.0,-66.0,-442.0,-141.0,76.0,1
-15.0,-249.0,-57.0,-468.0,-140.0,71.0,1
-15.0,-244.0,-63.0,-471.0,-146.0,63.0,1
-15.0,-250.0,-60.0,-469.0,-155.0,57.0,1
-15.0,-245.0,-65.0,-463.0,-158.0,54.0,1
-14.0,-245.0,-68.0,-472.0,-156.0,59.0,1
-13.0,-241.0,-67.0,-492.0,-156.0,57.0,1
-13.0,-242.0,-62.0,-512.0,-152.0,57.0,1
-13.0,-244.0,-63.0,-527.0,-154.0,54.0,1
-14.0,-245.0,-67.0,-529.0,-162.0,53.0,1
-12.0,-245.0,-67.0,-531.0,-164.0,51.0,1
-12.0,-250.0,-70.0,-530.0,-165.0,53.0,1
-8.0,-246.0,-69.0,-529.0,-166.0,53.0,1
-14.0,-249.0,-68.0,-528.0,-167.0,55.0,1
-10.0,-240.0,-75.0,-533.0,-169.0,60.0,1
-9.0,-250.0,-68.0,-558.0,-166.0,68.0,1
-11.0,-248.0,-68.0,-572.0,-169.0,65.0,1
-13.0,-248.0,-71.0,-571.0,-178.0,60.0,1
-11.0,-237.0,-74.0,-571.0,-187.0,67.0,1
-10.0,-241.0,-71.0,-606.0,-191.0,79.0,1
-9.0,-244.0,-71.0,-644.0,-194.0,82.0,1
-8.0,-243.0,-75.0,-665.0,-197.0,86.0,1
-7.0,-247.0,-68.0,-687.0,-193.0,94.0,1
-5.0,-248.0,-65.0,-703.0,-193.0,99.0,1
-9.0,-245.0,-69.0,-699.0,-195.0,97.0,1
-11.0,-248.0,-74.0,-694.0,-201.0,104.0,1
-9.0,-248.0,-70.0,-695.0,-209.0,105.0,1
-7.0,-255.0,-75.0,-696.0,-214.0,107.0,1
-9.0,-252.0,-77.0,-690.0,-226.0,101.0,1
-12.0,-250.0,-74.0,-680.0,-232.0,95.0,1
-11.0,-245.0,-76.0,-676.0,-239.0,99.0,1
-14.0,-245.0,-79.0,-683.0,-240.0,105.0,1
-13.0,-249.0,-75.0,-693.0,-243.0,109.0,1
-13.0,-251.0,-78.0,-691.0,-248.0,106.0,1
-14.0,-247.0,-79.0,-684.0,-252.0,105.0,1
-15.0,-248.0,-80.0,-683.0,-254.0,108.0,1
-15.0,-253.0,-73.0,-676.0,-261.0,100.0,1
-16.0,-253.0,-73.0,-645.0,-270.0,89.0,1
-16.0,-250.0,-76.0,-612.0,-279.0,82.0,1
-15.0,-248.0,-79.0,-590.0,-287.0,78.0,1
-16.0,-244.0,-76.0,-576.0,-292.0,76.0,1
-16.0,-243.0,-79.0,-570.0,-295.0,74.0,1
-17.0,-243.0,-79.0,-574.0,-299.0,74.0,1
-19.0,-245.0,-75.0,-577.0,-305.0,69.0,1
-17.0,-242.0,-79.0,-577.0,-309.0,65.0,1
-16.0,-239.0,-82.0,-577.0,-315.0,61.0,1
-19.0,-241.0,-78.0,-583.0,-321.0,60.0,1
-19.0,-236.0,-81.0,-591.0,-326.0,59.0,1
-23.0,-235.0,-76.0,-601.0,-333.0,59.0,1
-18.0,-232.0,-76.0,-610.0,-340.0,59.0,1
-23.0,-229.0,-76.0,-621.0,-347.0,60.0,1
-23.0,-232.0,-74.0,-632.0,-355.0,62.0,1
-25.0,-230.0,-72.0,-647.0,-364.0,63.0,1
-18.0,-234.0,-75.0,-660.0,-374.0,69.0,1
-20.0,-229.0,-72.0,-674.0,-384.0,69.0,1
-24.0,-229.0,-70.0,-687.0,-394.0,70.0,1
-29.0,-225.0,-78.0,-700.0,-405.0,72.0,1
-22.0,-228.0,-70.0,-713.0,-414.0,75.0,1
-26.0,-226.0,-71.0,-725.0,-424.0,75.0,1
-25.0,-228.0,-76.0,-736.0,-436.0,72.0,1
-24.0,-228.0,-72.0,-748.0,-443.0,72.0,1
-25.0,-230.0,-74.0,-756.0,-451.0,72.0,1
-25.0,-230.0,-74.0,-766.0,-459.0,73.0,1
-22.0,-228.0,-69.0,-773.0,-469.0,68.0,1
-24.0,-232.0,-70.0,-782.0,-479.0,72.0,1
-25.0,-230.0,-72.0,-787.0,-489.0,73.0,1
-23.0,-231.0,-71.0,-793.0,-501.0,75.0,1
-19.0,-236.0,-78.0,-794.0,-513.0,77.0,1
-23.0,-233.0,-77.0,-793.0,-529.0,79.0,1
-23.0,-230.0,-74.0,-795.0,-542.0,86.0,1
-24.0,-231.0,-73.0,-799.0,-556.0,91.0,1
-23.0,-232.0,-74.0,-795.0,-566.0,94.0,1
-24.0,-225.0,-76.0,-799.0,-578.0,100.0,1
-21.0,-232.0,-72.0,-805.0,-591.0,106.0,1
-21.0,-230.0,-72.0,-803.0,-602.0,105.0,1
-19.0,-229.0,-71.0,-799.0,-608.0,105.0,1
-24.0,-231.0,-72.0,-793.0,-613.0,102.0,1
-24.0,-229.0,-71.0,-783.0,-621.0,99.0,1
-23.0,-227.0,-70.0,-773.0,-625.0,98.0,1
-25.0,-227.0,-73.0,-768.0,-628.0,98.0,1
-26.0,-224.0,-67.0,-764.0,-631.0,99.0,1
-23.0,-224.0,-69.0,-765.0,-634.0,100.0,1
-24.0,-221.0,-68.0,-770.0,-634.0,105.0,1
-25.0,-220.0,-67.0,-771.0,-636.0,103.0,1
-26.0,-219.0,-65.0,-767.0,-642.0,101.0,1
-24.0,-216.0,-67.0,-766.0,-649.0,99.0,1
-24.0,-210.0,-61.0,-771.0,-657.0,103.0,1
-19.0,-214.0,-63.0,-778.0,-664.0,108.0,1
-17.0,-210.0,-66.0,-775.0,-672.0,109.0,1
-21.0,-207.0,-63.0,-772.0,-684.0,110.0,1
-16.0,-211.0,-62.0,-774.0,-694.0,115.0,1
-19.0,-206.0,-58.0,-774.0,-705.0,119.0,1
-19.0,-203.0,-59.0,-773.0,-716.0,122.0,1
-16.0,-203.0,-60.0,-774.0,-724.0,126.0,1
-16.0,-196.0,-55.0,-775.0,-730.0,131.0,1
-19.0,-198.0,-57.0,-778.0,-735.0,131.0,1
-16.0,-200.0,-56.0,-780.0,-738.0,133.0,1
-16.0,-195.0,-56.0,-775.0,-743.0,129.0,1
-17.0,-194.0,-56.0,-779.0,-743.0,130.0,1
-16.0,-200.0,-65.0,-785.0,-746.0,127.0,1
-18.0,-193.0,-53.0,-787.0,-745.0,123.0,1
-20.0,-191.0,-55.0,-790.0,-747.0,119.0,1
-16.0,-193.0,-53.0,-799.0,-749.0,117.0,1
-16.0,-192.0,-54.0,-809.0,-750.0,116.0,1
-14.0,-193.0,-50.0,-820.0,-753.0,117.0,1
-17.0,-193.0,-51.0,-827.0,-759.0,117.0,1
-16.0,-193.0,-49.0,-833.0,-769.0,116.0,1
-17.0,-191.0,-50.0,-834.0,-781.0,117.0,1
-16.0,-191.0,-50.0,-838.0,-793.0,116.0,1
-15.0,-191.0,-48.0,-842.0,-802.0,117.0,1
-15.0,-192.0,-49.0,-842.0,-810.0,115.0,1
-12.0,-190.0,-49.0,-840.0,-817.0,113.0,1
-11.0,-191.0,-42.0,-839.0,-824.0,113.0,1
-15.0,-186.0,-42.0,-833.0,-829.0,108.0,1
-14.0,-188.0,-44.0,-826.0,-835.0,107.0,1
-15.0,-182.0,-43.0,-819.0,-839.0,107.0,1
-15.0,-182.0,-45.0,-809.0,-844.0,106.0,1
-17.0,-177.0,-44.0,-796.0,-852.0,104.0,1
-15.0,-178.0,-46.0,-777.0,-868.0,99.0,1
-15.0,-177.0,-47.0,-753.0,-885.0,95.0,1
-14.0,-167.0,-48.0,-737.0,-904.0,93.0,1
-13.0,-159.0,-45.0,-726.0,-921.0,95.0,1
-16.0,-156.0,-45.0,-716.0,-938.0,92.0,1
-18.0,-148.0,-45.0,-712.0,-956.0,91.0,1
-15.0,-141.0,-45.0,-717.0,-971.0,89.0,1
-16.0,-132.0,-41.0,-733.0,-986.0,90.0,1
-16.0,-126.0,-38.0,-758.0,-1003.0,95.0,1
-18.0,-113.0,-33.0,-796.0,-1017.0,98.0,1
-20.0,-100.0,-33.0,-854.0,-1037.0,103.0,1
-19.0,-92.0,-24.0,-932.0,-1057.0,111.0,1
-29.0,-74.0,-35.0,-1024.0,-1080.0,112.0,1
-30.0,-63.0,-36.0,-1143.0,-1102.0,127.0,1
-34.0,-36.0,-40.0,-1284.0,-1122.0,147.0,1
-35.0,-47.0,-42.0,-1449.0,-1132.0,164.0,1
-41.0,-34.0,-56.0,-1595.0,-1151.0,148.0,1
-44.0,-25.0,-70.0,-1737.0,-1158.0,135.0,1
-51.0,-14.0,-94.0,-1870.0,-1135.0,135.0,1
-49.0,-21.0,-104.0,-2004.0,-1086.0,150.0,1
-68.0,-17.0,-126.0,-2092.0,-1030.0,140.0,1
-69.0,-13.0,-144.0,-2132.0,-1003.0,126.0,1
-73.0,-17.0,-152.0,-2140.0,-984.0,120.0,1
-74.0,-10.0,-164.0,-2112.0,-1006.0,114.0,1
-70.0,-17.0,-149.0,-2067.0,-1040.0,121.0,1
-63.0,-16.0,-153.0,-2000.0,-1082.0,132.0,1
-59.0,-5.0,-159.0,-1951.0,-1125.0,158.0,1
-63.0,-25.0,-149.0,-1939.0,-1189.0,194.0,1
-54.0,-29.0,-155.0,-1923.0,-1289.0,211.0,1
-57.0,-30.0,-152.0,-1893.0,-1395.0,229.0,1
-43.0,-27.0,-171.0,-1869.0,-1491.0,255.0,1
-53.0,-21.0,-168.0,-1870.0,-1560.0,300.0,1
-59.0,-20.0,-174.0,-1903.0,-1673.0,335.0,1
-52.0,-18.0,-185.0,-1965.0,-1814.0,358.0,1
-58.0,-18.0,-193.0,-2052.0,-1940.0,391.0,1
-60.0,-16.0,-206.0,-2160.0,-2052.0,430.0,1
-62.0,-22.0,-211.0,-2277.0,-2154.0,471.0,1
-69.0,-27.0,-219.0,-2392.0,-2248.0,516.0,1
-80.0,-31.0,-221.0,-2507.0,-2337.0,569.0,1
-91.0,-42.0,-211.0,-2617.0,-2430.0,625.0,1
-112.0,-50.0,-201.0,-2720.0,-2532.0,688.0,1
-131.0,-63.0,-184.0,-2812.0,-2649.0,754.0,1
-154.0,-70.0,-169.0,-2887.0,-2783.0,826.0,1
-182.0,-75.0,-147.0,-2943.0,-2936.0,898.0,1
-210.0,-76.0,-126.0,-2980.0,-3110.0,977.0,1
-245.0,-68.0,-95.0,-2994.0,-3305.0,1066.0,1
-283.0,-69.0,-89.0,-2985.0,-3525.0,1163.0,1
-321.0,-61.0,-88.0,-2957.0,-3754.0,1268.0,1
-348.0,-42.0,-82.0,-2916.0,-3984.0,1380.0,1
-371.0,-7.0,-91.0,-2865.0,-4203.0,1493.0,1
-391.0,18.0,-117.0,-2804.0,-4406.0,1621.0,1
-405.0,68.0,-175.0,-2724.0,-4594.0,1748.0,1
-397.0,69.0,-259.0,-2729.0,-4576.0,1881.0,1
-561.0,66.0,-197.0,-2699.0,-4539.0,1987.0,1
-485.0,77.0,-313.0,-2580.0,-4774.0,2197.0,1
-530.0,80.0,-372.0,-2569.0,-4668.0,2378.0,1
-897.0,253.0,-644.0,-2506.0,-4502.0,2656.0,1
-986.0,442.0,-1048.0,-3223.0,-4099.0,3305.0,1
-1084.0,624.0,-635.0,-5223.0,-3269.0,4501.0,1
-1295.0,487.0,-632.0,-6971.0,-3244.0,5474.0,1
-913.0,111.0,-538.0,-7079.0,-2335.0,5171.0,1
-1083.0,57.0,-583.0,-5907.0,-1426.0,4103.0,1
-1456.0,284.0,-795.0,-4979.0,-1174.0,3912.0,1
-1154.0,10.0,-806.0,-4404.0,-983.0,4179.0,1
-1021.0,-50.0,-890.0,-4143.0,-1323.0,3871.0,1
-965.0,-13.0,-853.0,-4186.0,-2020.0,3813.0,1
-1072.0,-78.0,-808.0,-4097.0,-2882.0,3772.0,1
-1103.0,-138.0,-831.0,-3557.0,-3958.0,3523.0,1
-964.0,-175.0,-851.0,-2738.0,-4738.0,3226.0,1
-848.0,-234.0,-770.0,-1787.0,-5001.0,3021.0,1
-736.0,-261.0,-712.0,-474.0,-4885.0,2953.0,1
-674.0,-210.0,-642.0,889.0,-4517.0,3086.0,1
-640.0,-136.0,-586.0,1730.0,-4199.0,3284.0,1
-513.0,-147.0,-509.0,1884.0,-3857.0,3260.0,1
-447.0,-221.0,-365.0,1710.0,-3366.0,2595.0,1
-414.0,-220.0,-264.0,1608.0,-2875.0,1392.0,1
-385.0,-124.0,-267.0,1888.0,-2357.0,173.0,1
-309.0,-37.0,-278.0,2539.0,-1609.0,-756.0,1
-252.0,2.0,-262.0,3142.0,-923.0,-1427.0,1
-214.0,62.0,-260.0,3434.0,-431.0,-1881.0,1
-152.0,80.0,-226.0,3391.0,-35.0,-2146.0,1
-85.0,86.0,-177.0,3019.0,230.0,-2395.0,1
-24.0,63.0,-102.0,2401.0,433.0,-2642.0,1
39.0,30.0,-33.0,1631.0,500.0,-2924.0,1
49.0,33.0,34.0,815.0,462.0,-3201.0,1
46.0,93.0,91.0,78.0,364.0,-3302.0,1
35.0,185.0,126.0,-479.0,217.0,-3154.0,1
16.0,254.0,151.0,-826.0,45.0,-2837.0,1
-21.0,314.0,165.0,-1035.0,-151.0,-2463.0,1
-10.0,332.0,156.0,-1192.0,-384.0,-2054.0,1
-26.0,306.0,137.0,-1333.0,-605.0,-1660.0,1
-51.0,266.0,112.0,-1448.0,-807.0,-1344.0,1
-104.0,239.0,102.0,-1504.0,-1005.0,-1011.0,1
-97.0,208.0,68.0,-1431.0,-1246.0,-616.0,1
-39.0,193.0,2.0,-1333.0,-1498.0,-241.0,1
-72.0,163.0,-43.0,-1224.0,-1592.0,165.0,1
-92.0,89.0,-82.0,-1018.0,-1525.0,588.0,1
-113.0,21.0,-120.0,-708.0,-1370.0,890.0,1
-93.0,23.0,-152.0,-475.0,-1225.0,1074.0,1
-81.0,10.0,-129.0,-445.0,-1125.0,1221.0,1
-102.0,4.0,-98.0,-523.0,-1074.0,1289.0,1
-111.0,17.0,-71.0,-602.0,-1054.0,1277.0,1
-88.0,47.0,-57.0,-655.0,-1045.0,1206.0,1
-62.0,68.0,-37.0,-697.0,-1001.0,1064.0,1
-39.0,78.0,-9.0,-716.0,-963.0,868.0,1
-45.0,83.0,29.0,-712.0,-960.0,638.0,1
-61.0,74.0,50.0,-695.0,-1004.0,371.0,1
-83.0,38.0,66.0,-685.0,-1082.0,117.0,1
-111.0,4.0,87.0,-663.0,-1180.0,-85.0,1
-118.0,-10.0,78.0,-643.0,-1342.0,-229.0,1
-118.0,-22.0,65.0,-711.0,-1580.0,-334.0,1
-113.0,-36.0,48.0,-847.0,-1849.0,-371.0,1
-100.0,-31.0,21.0,-997.0,-2064.0,-392.0,1
-118.0,-14.0,-1.0,-1183.0,-2224.0,-390.0,1
-137.0,15.0,-9.0,-1391.0,-2353.0,-375.0,1
-145.0,45.0,-9.0,-1588.0,-2432.0,-321.0,1
-143.0,60.0,10.0,-1751.0,-2479.0,-229.0,1
-156.0,81.0,22.0,-1819.0,-2490.0,-85.0,1
-177.0,93.0,34.0,-1776.0,-2464.0,97.0,1
-184.0,100.0,48.0,-1634.0,-2424.0,303.0,1
-224.0,123.0,61.0,-1410.0,-2386.0,525.0,1
-271.0,147.0,78.0,-1175.0,-2383.0,732.0,1
-286.0,157.0,96.0,-978.0,-2423.0,926.0,1
-318.0,171.0,103.0,-846.0,-2483.0,1112.0,1
-346.0,176.0,111.0,-807.0,-2568.0,1277.0,1
-370.0,170.0,120.0,-826.0,-2667.0,1401.0,1
-386.0,157.0,119.0,-870.0,-2753.0,1462.0,1
-391.0,148.0,103.0,-908.0,-2796.0,1483.0,1
-394.0,149.0,90.0,-958.0,-2771.0,1448.0,1
-398.0,119.0,101.0,-1026.0,-2698.0,1384.0,1
-392.0,105.0,105.0,-1084.0,-2580.0,1273.0,1
-377.0,89.0,125.0,-1134.0,-2429.0,1157.0,1
-363.0,80.0,136.0,-1164.0,-2260.0,1013.0,1
-365.0,78.0,140.0,-1158.0,-2073.0,866.0,1
-363.0,77.0,150.0,-1118.0,-1896.0,755.0,1
-379.0,83.0,150.0,-1048.0,-1759.0,658.0,1
-359.0,106.0,139.0,-975.0,-1641.0,598.0,1
-386.0,110.0,140.0,-900.0,-1507.0,588.0,1
-365.0,125.0,134.0,-783.0,-1373.0,571.0,1
-377.0,133.0,116.0,-649.0,-1217.0,573.0,1
-347.0,135.0,133.0,-520.0,-1044.0,528.0,1
-306.0,129.0,140.0,-362.0,-870.0,457.0,1
-270.0,124.0,141.0,-168.0,-682.0,372.0,1
-226.0,116.0,150.0,23.0,-485.0,274.0,1
-199.0,111.0,161.0,193.0,-311.0,168.0,1
-160.0,106.0,164.0,325.0,-168.0,60.0,1
-122.0,98.0,173.0,421.0,-45.0,-51.0,1
-98.0,94.0,172.0,500.0,52.0,-162.0,1
-78.0,79.0,168.0,572.0,130.0,-280.0,1
-58.0,67.0,168.0,643.0,200.0,-402.0,1
-47.0,60.0,163.0,725.0,262.0,-524.0,1
-43.0,52.0,153.0,820.0,308.0,-641.0,1
-46.0,50.0,150.0,920.0,345.0,-751.0,1
-56.0,46.0,142.0,1019.0,375.0,-822.0,1
-68.0,47.0,135.0,1119.0,394.0,-888.0,1
-92.0,50.0,130.0,1208.0,395.0,-927.0,1
-107.0,52.0,119.0,1277.0,372.0,-939.0,1
-118.0,55.0,104.0,1305.0,349.0,-921.0,1
-124.0,56.0,90.0,1311.0,322.0,-879.0,1
-142.0,53.0,81.0,1299.0,304.0,-838.0,1
-151.0,45.0,75.0,1268.0,273.0,-804.0,1
-157.0,53.0,67.0,1231.0,259.0,-765.0,1
-172.0,52.0,64.0,1199.0,244.0,-732.0,1
-183.0,53.0,61.0,1175.0,224.0,-709.0,1
-185.0,53.0,53.0,1151.0,214.0,-677.0,1
-194.0,58.0,57.0,1123.0,214.0,-652.0,1
-199.0,56.0,51.0,1097.0,222.0,-636.0,1
-204.0,53.0,54.0,1076.0,232.0,-622.0,1
-207.0,61.0,48.0,1054.0,246.0,-611.0,1
-210.0,62.0,54.0,1021.0,261.0,-605.0,1
-210.0,65.0,49.0,985.0,268.0,-592.0,1
-197.0,73.0,41.0,947.0,279.0,-576.0,1
-210.0,75.0,44.0,899.0,297.0,-567.0,1
-227.0,73.0,48.0,838.0,318.0,-566.0,1
-210.0,70.0,42.0,776.0,336.0,-546.0,1
-231.0,73.0,40.0,718.0,360.0,-539.0,1
-244.0,74.0,46.0,666.0,391.0,-534.0,1
-250.0,82.0,44.0,623.0,427.0,-532.0,1
-245.0,77.0,40.0,589.0,464.0,-535.0,1
-255.0,77.0,40.0,545.0,497.0,-552.0,1
-255.0,72.0,40.0,491.0,526.0,-574.0,1
-262.0,70.0,34.0,439.0,554.0,-603.0,1
-268.0,65.0,39.0,393.0,581.0,-625.0,1
-266.0,67.0,32.0,349.0,599.0,-641.0,1
-276.0,66.0,33.0,299.0,610.0,-659.0,1
-283.0,59.0,28.0,255.0,608.0,-667.0,1
-277.0,54.0,17.0,198.0,599.0,-653.0,1
-279.0,49.0,18.0,130.0,597.0,-640.0,1
-287.0,43.0,19.0,76.0,597.0,-615.0,1
-289.0,36.0,17.0,42.0,603.0,-579.0,1
-288.0,29.0,20.0,33.0,613.0,-551.0,1
-285.0,21.0,20.0,41.0,626.0,-522.0,1
-283.0,16.0,12.0,56.0,649.0,-488.0,1
-275.0,14.0,9.0,64.0,672.0,-448.0,1
-272.0,8.0,10.0,65.0,700.0,-412.0,1
-273.0,8.0,8.0,59.0,725.0,-376.0,1
-269.0,4.0,9.0,55.0,749.0,-341.0,1
-262.0,-1.0,4.0,50.0,771.0,-310.0,1
-262.0,1.0,6.0,47.0,781.0,-284.0,1
-253.0,0.0,6.0,47.0,786.0,-269.0,1
-243.0,0.0,1.0,52.0,787.0,-253.0,1
-239.0,-1.0,2.0,54.0,791.0,-235.0,1
-234.0,-3.0,-2.0,59.0,790.0,-217.0,1
-232.0,-3.0,1.0,60.0,789.0,-202.0,1
-232.0,1.0,-1.0,60.0,777.0,-198.0,1
-227.0,1.0,-3.0,63.0,759.0,-194.0,1
-233.0,3.0,-4.0,56.0,740.0,-191.0,1
-229.0,2.0,-7.0,48.0,715.0,-192.0,1
-230.0,3.0,-10.0,38.0,679.0,-199.0,1
-232.0,3.0,-10.0,26.0,647.0,-203.0,1
-236.0,3.0,-10.0,8.0,616.0,-205.0,1
-242.0,4.0,-18.0,-14.0,582.0,-211.0,1
-246.0,5.0,-16.0,-40.0,549.0,-216.0,1
-244.0,1.0,-14.0,-72.0,517.0,-214.0,1
-251.0,4.0,-22.0,-100.0,485.0,-214.0,1
-257.0,-1.0,-22.0,-130.0,451.0,-214.0,1
-252.0,0.0,-28.0,-160.0,408.0,-218.0,1
-258.0,1.0,-29.0,-191.0,376.0,-217.0,1
-261.0,0.0,-31.0,-216.0,353.0,-206.0,1
-264.0,-5.0,-31.0,-240.0,335.0,-192.0,1
-273.0,-3.0,-28.0,-265.0,315.0,-175.0,1
-275.0,-8.0,-28.0,-287.0,290.0,-160.0,1
-285.0,-1.0,-26.0,-304.0,264.0,-146.0,1
-285.0,-6.0,-23.0,-314.0,237.0,-134.0,1
-295.0,-6.0,-23.0,-315.0,216.0,-122.0,1
-290.0,-7.0,-25.0,-313.0,205.0,-111.0,1
-293.0,0.0,-24.0,-315.0,206.0,-97.0,1
-295.0,-4.0,-25.0,-316.0,215.0,-83.0,1
-294.0,-5.0,-25.0,-317.0,226.0,-66.0,1
-296.0,-2.0,-32.0,-319.0,232.0,-54.0,1
-296.0,-1.0,-31.0,-320.0,232.0,-46.0,1
-293.0,-1.0,-31.0,-323.0,228.0,-43.0,1
-289.0,1.0,-36.0,-326.0,226.0,-37.0,1
-292.0,2.0,-36.0,-339.0,232.0,-26.0,1
-289.0,0.0,-39.0,-356.0,235.0,-11.0,1
-287.0,2.0,-39.0,-369.0,225.0,-1.0,1
-293.0,8.0,-48.0,-382.0,201.0,3.0,1
-286.0,8.0,-43.0,-391.0,175.0,6.0,1
-282.0,8.0,-39.0,-399.0,158.0,11.0,1
-278.0,8.0,-36.0,-403.0,145.0,23.0,1
-279.0,5.0,-34.0,-407.0,128.0,33.0,1
-278.0,9.0,-31.0,-401.0,100.0,34.0,1
-278.0,7.0,-28.0,-394.0,76.0,41.0,1
-275.0,6.0,-23.0,-384.0,56.0,50.0,1
-274.0,8.0,-18.0,-374.0,36.0,60.0,1
-272.0,12.0,-14.0,-364.0,16.0,72.0,1
-273.0,3.0,-21.0,-355.0,-5.0,81.0,1
-269.0,7.0,-13.0,-344.0,-25.0,91.0,1
-270.0,8.0,-17.0,-334.0,-38.0,103.0,1
-267.0,8.0,-12.0,-327.0,-51.0,114.0,1
-263.0,11.0,-14.0,-319.0,-61.0,125.0,1
-267.0,10.0,-11.0,-311.0,-71.0,135.0,1
-262.0,9.0,-9.0,-306.0,-82.0,144.0,1
-257.0,9.0,-5.0,-299.0,-90.0,150.0,1
-261.0,9.0,-11.0,-293.0,-96.0,156.0,1
-255.0,10.0,-11.0,-290.0,-106.0,160.0,1
-256.0,12.0,-4.0,-290.0,-112.0,160.0,1
-254.0,14.0,-9.0,-293.0,-112.0,162.0,1
-254.0,16.0,-1.0,-297.0,-113.0,161.0,1
-251.0,21.0,-9.0,-304.0,-112.0,160.0,1
-253.0,21.0,-10.0,-309.0,-112.0,160.0,1
-251.0,21.0,-6.0,-320.0,-113.0,158.0,1
-251.0,23.0,-6.0,-331.0,-113.0,155.0,1
-248.0,23.0,-8.0,-341.0,-112.0,153.0,1
-250.0,24.0,-6.0,-350.0,-113.0,149.0,1
-245.0,22.0,-4.0,-357.0,-115.0,147.0,1
-247.0,23.0,-4.0,-361.0,-116.0,142.0,1
-247.0,21.0,-1.0,-361.0,-117.0,139.0,1
-250.0,26.0,-1.0,-362.0,-119.0,135.0,1
-247.0,27.0,0.0,-356.0,-120.0,130.0,1
-250.0,23.0,-2.0,-349.0,-121.0,126.0,1
-252.0,23.0,3.0,-339.0,-120.0,122.0,1
-252.0,22.0,2.0,-328.0,-120.0,117.0,1
-254.0,24.0,3.0,-312.0,-117.0,111.0,1
-255.0,24.0,4.0,-294.0,-112.0,103.0,1
-256.0,23.0,8.0,-274.0,-108.0,93.0,1
-259.0,26.0,4.0,-256.0,-106.0,85.0,1
-257.0,20.0,8.0,-236.0,-101.0,75.0,1
-258.0,24.0,12.0,-217.0,-91.0,64.0,1
-257.0,23.0,13.0,-196.0,-78.0,52.0,1
-261.0,21.0,10.0,-175.0,-66.0,42.0,1
-265.0,20.0,9.0,-156.0,-53.0,31.0,1
-263.0,22.0,8.0,-136.0,-39.0,21.0,1
-264.0,23.0,9.0,-116.0,-23.0,11.0,1
-260.0,19.0,8.0,-98.0,-6.0,2.0,1
-267.0,23.0,9.0,-78.0,10.0,-9.0,1
-266.0,20.0,7.0,-57.0,25.0,-18.0,1
-267.0,18.0,3.0,-35.0,41.0,-25.0,1
-265.0,18.0,4.0,-17.0,55.0,-33.0,1
-262.0,24.0,-1.0,1.0,71.0,-39.0,1
-265.0,16.0,4.0,19.0,82.0,-44.0,1
-261.0,19.0,7.0,32.0,95.0,-48.0,1
-259.0,15.0,6.0,47.0,105.0,-52.0,1
-260.0,20.0,6.0,62.0,115.0,-55.0,1
-258.0,16.0,-2.0,73.0,123.0,-58.0,1
-256.0,15.0,-2.0,85.0,128.0,-61.0,1
-254.0,17.0,-1.0,97.0,132.0,-63.0,1
-257.0,22.0,-2.0,106.0,135.0,-63.0,1
-257.0,15.0,1.0,116.0,137.0,-63.0,1
-256.0,15.0,-3.0,121.0,137.0,-64.0,1
-252.0,14.0,4.0,127.0,136.0,-63.0,1
-254.0,15.0,-6.0,134.0,134.0,-65.0,1
-254.0,17.0,-5.0,140.0,130.0,-65.0,1
-256.0,16.0,-5.0,147.0,126.0,-64.0,1
-254.0,13.0,-3.0,153.0,123.0,-63.0,1
-256.0,14.0,-5.0,155.0,119.0,-63.0,1
-260.0,17.0,-6.0,156.0,113.0,-62.0,1
-260.0,19.0,-10.0,158.0,109.0,-60.0,1
-256.0,16.0,-11.0,158.0,104.0,-59.0,1
-264.0,21.0,-8.0,160.0,101.0,-57.0,1
-259.0,14.0,-9.0,159.0,98.0,-55.0,1
-257.0,19.0,-11.0,157.0,93.0,-53.0,1
-263.0,21.0,-8.0,154.0,88.0,-50.0,1
-263.0,17.0,-12.0,151.0,83.0,-48.0,1
-263.0,18.0,-12.0,146.0,77.0,-47.0,1
-263.0,16.0,-13.0,140.0,72.0,-43.0,1
-265.0,22.0,-17.0,134.0,68.0,-39.0,1
-267.0,21.0,-13.0,127.0,60.0,-38.0,1
-268.0,20.0,-18.0,122.0,53.0,-34.0,1
-265.0,19.0,-21.0,114.0,44.0,-31.0,1
-265.0,18.0,-17.0,108.0,35.0,-28.0,1
-269.0,27.0,-22.0,100.0,23.0,-27.0,1
-267.0,20.0,-16.0,93.0,12.0,-24.0,1
-268.0,21.0,-19.0,83.0,2.0,-20.0,1
-268.0,16.0,-23.0,76.0,-11.0,-18.0,1
-266.0,18.0,-16.0,67.0,-22.0,-13.0,1
-266.0,20.0,-19.0,59.0,-34.0,-10.0,1
-265.0,19.0,-19.0,53.0,-45.0,-6.0,1
-266.0,20.0,-18.0,46.0,-59.0,-3.0,1
-263.0,17.0,-15.0,39.0,-71.0,0.0,1
-268.0,20.0,-18.0,35.0,-83.0,4.0,1
-266.0,13.0,-15.0,29.0,-95.0,9.0,1
-269.0,23.0,-20.0,25.0,-107.0,12.0,1
-263.0,17.0,-14.0,19.0,-117.0,13.0,1
-267.0,15.0,-15.0,13.0,-127.0,17.0,1
-265.0,17.0,-15.0,10.0,-135.0,20.0,1
-266.0,18.0,-16.0,6.0,-143.0,23.0,1
-262.0,15.0,-14.0,1.0,-150.0,25.0,1
-263.0,18.0,-9.0,-1.0,-156.0,27.0,1
-260.0,18.0,-8.0,-4.0,-162.0,29.0,1
-261.0,17.0,-10.0,-7.0,-169.0,31.0,1
-258.0,16.0,-11.0,-12.0,-173.0,33.0,1
-263.0,18.0,-9.0,-14.0,-178.0,33.0,1
-261.0,17.0,-3.0,-17.0,-183.0,33.0,1
-259.0,19.0,-4.0,-22.0,-183.0,34.0,1
-259.0,18.0,-5.0,-24.0,-186.0,36.0,1
-261.0,20.0,-5.0,-28.0,-185.0,37.0,1
-259.0,20.0,-7.0,-31.0,-186.0,37.0,1
-257.0,22.0,-3.0,-34.0,-185.0,38.0,1
-258.0,20.0,2.0,-37.0,-183.0,38.0,1
-256.0,18.0,-4.0,-42.0,-183.0,38.0,1
-257.0,20.0,1.0,-44.0,-181.0,38.0,1
-254.0,19.0,4.0,-46.0,-179.0,37.0,1
-255.0,18.0,2.0,-47.0,-176.0,37.0,1
-255.0,19.0,6.0,-50.0,-173.0,38.0,1
-255.0,19.0,3.0,-51.0,-169.0,38.0,1
-254.0,24.0,6.0,-53.0,-165.0,41.0,1
-258.0,22.0,5.0,-55.0,-159.0,40.0,1
-255.0,23.0,6.0,-57.0,-155.0,39.0,1
-253.0,23.0,7.0,-58.0,-150.0,38.0,1
-256.0,23.0,8.0,-59.0,-146.0,39.0,1
-255.0,26.0,8.0,-63.0,-143.0,39.0,1
-256.0,23.0,6.0,-67.0,-140.0,39.0,1
-250.0,25.0,9.0,-70.0,-137.0,40.0,1
-251.0,23.0,1.0,-72.0,-135.0,40.0,1
-254.0,26.0,5.0,-74.0,-133.0,39.0,1
-254.0,23.0,9.0,-75.0,-129.0,39.0,1
-251.0,23.0,9.0,-74.0,-123.0,40.0,1
-254.0,23.0,9.0,-78.0,-118.0,38.0,1
-254.0,26.0,11.0,-75.0,-114.0,35.0,1
-254.0,26.0,11.0,-75.0,-106.0,32.0,1
-253.0,24.0,11.0,-74.0,-96.0,30.0,1
-255.0,26.0,12.0,-72.0,-88.0,26.0,1
-253.0,23.0,9.0,-70.0,-76.0,23.0,1
-252.0,25.0,10.0,-69.0,-65.0,18.0,1
-254.0,29.0,9.0,-66.0,-53.0,15.0,1
-255.0,23.0,9.0,-62.0,-42.0,9.0,1
-254.0,25.0,10.0,-60.0,-31.0,5.0,1
-254.0,27.0,11.0,-59.0,-21.0,3.0,1
-252.0,22.0,8.0,-57.0,-10.0,-1.0,1
-252.0,22.0,9.0,-54.0,0.0,-3.0,1
-252.0,22.0,13.0,-50.0,7.0,-6.0,1
-250.0,23.0,9.0,-49.0,14.0,-7.0,1
-251.0,22.0,8.0,-49.0,21.0,-9.0,1
-253.0,21.0,9.0,-45.0,27.0,-13.0,1
-257.0,21.0,7.0,-45.0,33.0,-14.0,1
-252.0,24.0,4.0,-43.0,39.0,-17.0,1
-253.0,19.0,8.0,-41.0,44.0,-18.0,1
-257.0,24.0,8.0,-40.0,48.0,-21.0,1
-253.0,23.0,8.0,-39.0,54.0,-22.0,1
-254.0,24.0,8.0,-37.0,57.0,-23.0,1
-256.0,23.0,7.0,-37.0,60.0,-24.0,1
-256.0,22.0,5.0,-37.0,63.0,-25.0,1
-254.0,21.0,5.0,-36.0,65.0,-26.0,1
-258.0,22.0,7.0,-34.0,66.0,-28.0,1
-254.0,19.0,8.0,-35.0,69.0,-28.0,1
-260.0,23.0,6.0,-36.0,71.0,-28.0,1
-257.0,22.0,2.0,-38.0,74.0,-29.0,1
-258.0,21.0,6.0,-37.0,77.0,-30.0,1
-258.0,23.0,6.0,-40.0,78.0,-32.0,1
-256.0,18.0,4.0,-40.0,80.0,-32.0,1
-258.0,21.0,6.0,-39.0,82.0,-32.0,1
-257.0,21.0,3.0,-38.0,82.0,-32.0,1
-257.0,19.0,7.0,-39.0,84.0,-32.0,1
-255.0,20.0,2.0,-40.0,87.0,-31.0,1
-260.0,20.0,6.0,-42.0,89.0,-30.0,1
-258.0,20.0,2.0,-45.0,89.0,-29.0,1
-259.0,20.0,3.0,-45.0,90.0,-28.0,1
-257.0,18.0,6.0,-47.0,90.0,-26.0,1
-256.0,17.0,6.0,-46.0,91.0,-25.0,1
-258.0,21.0,7.0,-47.0,92.0,-23.0,1
-258.0,21.0,2.0,-49.0,92.0,-22.0,1
-259.0,17.0,3.0,-50.0,91.0,-20.0,1
-258.0,20.0,5.0,-52.0,90.0,-17.0,1
-257.0,21.0,0.0,-54.0,90.0,-17.0,1
-258.0,17.0,1.0,-57.0,89.0,-14.0,1
-260.0,18.0,2.0,-57.0,86.0,-13.0,1
-258.0,16.0,-1.0,-56.0,83.0,-11.0,1
-259.0,25.0,-2.0,-58.0,81.0,-8.0,1
-259.0,16.0,-1.0,-59.0,77.0,-5.0,1
-258.0,17.0,-2.0,-60.0,74.0,-2.0,1
-259.0,19.0,-1.0,-61.0,72.0,-2.0,1
-260.0,17.0,-1.0,-62.0,71.0,-1.0,1
-260.0,20.0,-2.0,-62.0,67.0,1.0,1
-260.0,20.0,-1.0,-64.0,65.0,2.0,1
-262.0,18.0,1.0,-63.0,63.0,4.0,1
-260.0,19.0,0.0,-65.0,60.0,5.0,1
-262.0,21.0,1.0,-65.0,58.0,6.0,1
-258.0,13.0,1.0,-65.0,56.0,6.0,1
-259.0,22.0,-1.0,-63.0,55.0,8.0,1
-261.0,20.0,-5.0,-66.0,52.0,9.0,1
-262.0,20.0,0.0,-64.0,49.0,10.0,1
-261.0,20.0,-1.0,-66.0,48.0,11.0,1
-261.0,20.0,-2.0,-66.0,46.0,10.0,1
-257.0,18.0,0.0,-64.0,43.0,11.0,1
-259.0,19.0,-3.0,-66.0,40.0,12.0,1
-260.0,15.0,-3.0,-65.0,37.0,13.0,1
-261.0,19.0,-2.0,-66.0,34.0,12.0,1
-260.0,21.0,-3.0,-67.0,32.0,11.0,1
-257.0,23.0,1.0,-68.0,29.0,11.0,1
-259.0,21.0,-1.0,-67.0,26.0,12.0,1
-262.0,21.0,-3.0,-66.0,23.0,12.0,1
-260.0,22.0,-4.0,-64.0,21.0,11.0,1
-258.0,21.0,1.0,-63.0,18.0,10.0,1
-259.0,22.0,-2.0,-62.0,14.0,10.0,1
-260.0,22.0,-1.0,-61.0,11.0,11.0,1
-260.0,22.0,-1.0,-60.0,10.0,11.0,1
-258.0,22.0,0.0,-60.0,7.0,10.0,1
-259.0,23.0,1.0,-59.0,4.0,10.0,1
-260.0,22.0,1.0,-57.0,3.0,8.0,1
-260.0,21.0,0.0,-57.0,3.0,9.0,1
-260.0,21.0,-5.0,-58.0,1.0,8.0,1
-259.0,23.0,-2.0,-56.0,1.0,6.0,1
-259.0,22.0,0.0,-56.0,-1.0,2.0,1
-257.0,22.0,-1.0,-53.0,-2.0,1.0,1
-256.0,20.0,2.0,-52.0,0.0,0.0,1
-261.0,20.0,-4.0,-47.0,-1.0,0.0,1
-259.0,20.0,0.0,-47.0,-1.0,1.0,1
-262.0,23.0,-3.0,-47.0,-2.0,-1.0,1
-261.0,21.0,-5.0,-45.0,-2.0,-1.0,1
-262.0,25.0,3.0,-45.0,0.0,-3.0,1
-261.0,23.0,4.0,-44.0,-2.0,-5.0,1
-260.0,23.0,-1.0,-42.0,-1.0,-6.0,1
-259.0,21.0,2.0,-40.0,0.0,-9.0,1
-259.0,23.0,3.0,-39.0,1.0,-12.0,1
-259.0,23.0,-2.0,-39.0,0.0,-12.0,1
-259.0,22.0,0.0,-36.0,1.0,-12.0,1
-261.0,25.0,3.0,-35.0,1.0,-11.0,1
-258.0,23.0,2.0,-31.0,0.0,-11.0,1
-258.0,18.0,3.0,-30.0,-1.0,-10.0,1
-262.0,22.0,3.0,-28.0,-2.0,-10.0,1
-263.0,22.0,-2.0,-26.0,-3.0,-9.0,1
-256.0,21.0,3.0,-25.0,-3.0,-9.0,1
-258.0,21.0,6.0,-22.0,-2.0,-9.0,1
-258.0,20.0,0.0,-22.0,-3.0,-8.0,1
-259.0,20.0,3.0,-22.0,-3.0,-7.0,1
-258.0,20.0,1.0,-23.0,-3.0,-6.0,1
-259.0,20.0,4.0,-24.0,-5.0,-5.0,1
-257.0,21.0,0.0,-26.0,-9.0,-5.0,1
-259.0,22.0,-6.0,-30.0,-12.0,-4.0,1
-259.0,21.0,-2.0,-33.0,-15.0,-4.0,1
-259.0,26.0,4.0,-34.0,-18.0,-3.0,1
-257.0,22.0,4.0,-35.0,-19.0,-3.0,1
-258.0,18.0,-1.0,-37.0,-20.0,-3.0,1
-259.0,20.0,3.0,-37.0,-21.0,-2.0,1
-259.0,21.0,2.0,-39.0,-21.0,-2.0,1
-259.0,22.0,0.0,-39.0,-22.0,-1.0,1
-257.0,19.0,3.0,-39.0,-20.0,-2.0,1
-257.0,21.0,-1.0,-38.0,-17.0,-4.0,1
-259.0,21.0,1.0,-39.0,-15.0,-4.0,1
-258.0,21.0,2.0,-37.0,-13.0,-5.0,1
-260.0,21.0,2.0,-36.0,-9.0,-6.0,1
-261.0,25.0,7.0,-38.0,-7.0,-7.0,1
-266.0,17.0,8.0,-37.0,-5.0,-6.0,1
-258.0,22.0,3.0,-38.0,-1.0,-7.0,1
-257.0,18.0,5.0,-39.0,2.0,-6.0,1
-257.0,21.0,2.0,-40.0,3.0,-6.0,1
-256.0,23.0,5.0,-40.0,5.0,-4.0,1
-256.0,19.0,3.0,-40.0,7.0,-4.0,1
-257.0,19.0,7.0,-41.0,6.0,-2.0,1
-257.0,21.0,5.0,-40.0,7.0,-2.0,1
-258.0,18.0,5.0,-39.0,6.0,-1.0,1
-257.0,21.0,4.0,-38.0,7.0,0.0,1
-251.0,23.0,2.0,-38.0,8.0,0.0,1
-258.0,19.0,4.0,-38.0,7.0,2.0,1
-258.0,20.0,3.0,-38.0,9.0,1.0,1
-256.0,21.0,6.0,-39.0,9.0,1.0,1
-259.0,24.0,3.0,-38.0,9.0,2.0,1
-259.0,24.0,8.0,-39.0,9.0,4.0,1
-258.0,24.0,3.0,-40.0,10.0,2.0,1
-256.0,23.0,7.0,-41.0,12.0,2.0,1
-257.0,20.0,7.0,-43.0,12.0,2.0,1
-257.0,22.0,6.0,-42.0,12.0,2.0,1
-258.0,23.0,4.0,-44.0,13.0,2.0,1
-256.0,16.0,-1.0,-44.0,16.0,2.0,1
-257.0,21.0,2.0,-44.0,16.0,1.0,1
-260.0,21.0,0.0,-45.0,16.0,0.0,1
-261.0,24.0,6.0,-46.0,18.0,-1.0,1
-256.0,23.0,3.0,-47.0,19.0,-1.0,1
-258.0,23.0,4.0,-46.0,19.0,-1.0,1
-258.0,24.0,5.0,-47.0,19.0,-3.0,1
-256.0,22.0,2.0,-48.0,20.0,-2.0,1
-257.0,23.0,1.0,-50.0,20.0,-1.0,1
-259.0,23.0,4.0,-50.0,21.0,-2.0,1
-254.0,26.0,5.0,-49.0,21.0,-2.0,1
-257.0,21.0,5.0,-50.0,22.0,-1.0,1
-258.0,21.0,4.0,-50.0,22.0,-3.0,1
-257.0,19.0,3.0,-50.0,21.0,-3.0,1
-259.0,22.0,0.0,-49.0,22.0,-4.0,1
-260.0,22.0,3.0,-50.0,22.0,-2.0,1
-257.0,21.0,5.0,-52.0,22.0,-3.0,1
-260.0,22.0,-1.0,-51.0,22.0,-4.0,1
-258.0,21.0,-2.0,-51.0,20.0,-3.0,1
-257.0,19.0,4.0,-50.0,19.0,-3.0,1
-257.0,24.0,6.0,-51.0,19.0,-3.0,1
-264.0,13.0,-3.0,-51.0,18.0,-3.0,1
-258.0,20.0,2.0,-53.0,18.0,-3.0,1
-260.0,19.0,3.0,-51.0,18.0,-2.0,1
-259.0,21.0,2.0,-54.0,18.0,-3.0,1
-261.0,21.0,1.0,-55.0,19.0,-3.0,1
-256.0,21.0,4.0,-54.0,18.0,-3.0,1
-258.0,23.0,1.0,-53.0,19.0,-5.0,1
-259.0,24.0,2.0,-52.0,19.0,-6.0,1
-260.0,23.0,4.0,-52.0,20.0,-6.0,1
-259.0,20.0,7.0,-52.0,20.0,-7.0,1
-261.0,24.0,4.0,-52.0,21.0,-7.0,1
-260.0,22.0,0.0,-49.0,22.0,-6.0,1
-257.0,21.0,3.0,-48.0,24.0,-6.0,1
-257.0,23.0,0.0,-50.0,23.0,-8.0,1
-259.0,21.0,2.0,-50.0,25.0,-7.0,1
-259.0,21.0,3.0,-48.0,24.0,-6.0,1
-257.0,20.0,2.0,-48.0,25.0,-5.0,1
-257.0,19.0,4.0,-49.0,24.0,-7.0,1
-256.0,22.0,3.0,-47.0,24.0,-5.0,1
-259.0,20.0,2.0,-48.0,22.0,-6.0,1
-258.0,22.0,4.0,-50.0,22.0,-6.0,1
-257.0,28.0,1.0,-50.0,22.0,-6.0,1
-258.0,20.0,1.0,-49.0,18.0,-5.0,1
-263.0,21.0,0.0,-48.0,17.0,-6.0,1
-257.0,20.0,-2.0,-48.0,17.0,-5.0,1
-259.0,24.0,6.0,-47.0,17.0,-5.0,1
-258.0,19.0,2.0,-47.0,16.0,-4.0,1
-258.0,23.0,0.0,-48.0,16.0,-5.0,1
-255.0,17.0,0.0,-47.0,14.0,-6.0,1
-260.0,23.0,2.0,-45.0,12.0,-5.0,1
-259.0,18.0,2.0,-46.0,13.0,-6.0,1
-259.0,23.0,3.0,-44.0,13.0,-5.0,1
-256.0,24.0,-1.0,-45.0,11.0,-4.0,1
-257.0,18.0,4.0,-45.0,11.0,-3.0,1
-257.0,21.0,3.0,-45.0,10.0,-3.0,1
-256.0,21.0,3.0,-45.0,11.0,-5.0,1
-256.0,21.0,-2.0,-44.0,10.0,-5.0,1
-262.0,22.0,2.0,-44.0,10.0,-5.0,1
-258.0,17.0,4.0,-44.0,9.0,-6.0,1
-258.0,20.0,5.0,-46.0,9.0,-5.0,1
-257.0,16.0,4.0,-43.0,9.0,-4.0,1
-258.0,20.0,0.0,-43.0,9.0,-5.0,1
-258.0,19.0,5.0,-41.0,9.0,-4.0,1
-264.0,14.0,0.0,-42.0,8.0,-4.0,1
-259.0,23.0,5.0,-40.0,8.0,-2.0,1
-257.0,19.0,4.0,-40.0,8.0,-2.0,1
-259.0,20.0,1.0,-40.0,6.0,-2.0,1
-261.0,20.0,0.0,-41.0,7.0,-3.0,1
-256.0,21.0,3.0,-44.0,7.0,-5.0,1
-261.0,20.0,3.0,-43.0,8.0,-4.0,1
-256.0,20.0,7.0,-43.0,9.0,-5.0,1
-258.0,20.0,7.0,-43.0,11.0,-5.0,1
-261.0,23.0,1.0,-42.0,13.0,-6.0,1
-259.0,15.0,-8.0,-41.0,13.0,-6.0,1
-257.0,23.0,3.0,-42.0,13.0,-5.0,1
-257.0,18.0,5.0,-42.0,13.0,-4.0,1
-258.0,21.0,5.0,-39.0,11.0,-3.0,1
-257.0,20.0,4.0,-38.0,10.0,-1.0,1
-258.0,21.0,5.0,-39.0,11.0,1.0,1
-257.0,19.0,2.0,-39.0,12.0,1.0,1
-257.0,18.0,0.0,-38.0,11.0,0.0,1
-258.0,21.0,3.0,-39.0,10.0,2.0,1
-257.0,18.0,3.0,-40.0,9.0,3.0,1
-256.0,20.0,-1.0,-41.0,8.0,4.0,1
-252.0,26.0,3.0,-43.0,5.0,3.0,1
-256.0,19.0,-2.0,-45.0,3.0,4.0,1
-258.0,22.0,4.0,-48.0,-1.0,4.0,1
-261.0,19.0,-1.0,-50.0,-4.0,7.0,1
-257.0,22.0,0.0,-50.0,-5.0,7.0,1
-259.0,22.0,3.0,-53.0,-8.0,8.0,1
-257.0,21.0,3.0,-52.0,-10.0,9.0,1
-258.0,24.0,3.0,-52.0,-11.0,10.0,1
-256.0,23.0,2.0,-51.0,-12.0,9.0,1
-257.0,21.0,4.0,-50.0,-10.0,10.0,1
-258.0,24.0,5.0,-49.0,-11.0,7.0,1
-261.0,26.0,6.0,-50.0,-10.0,5.0,1
-259.0,19.0,5.0,-46.0,-6.0,3.0,1
-258.0,21.0,1.0,-46.0,-3.0,1.0,1
-258.0,23.0,5.0,-44.0,0.0,-1.0,1
-259.0,20.0,2.0,-44.0,4.0,-3.0,1
-261.0,23.0,5.0,-41.0,7.0,-5.0,1
-255.0,22.0,5.0,-42.0,11.0,-5.0,1
-261.0,19.0,3.0,-41.0,11.0,-4.0,1
-258.0,26.0,5.0,-41.0,12.0,-5.0,1
-259.0,23.0,6.0,-41.0,13.0,-4.0,1
-256.0,19.0,2.0,-40.0,12.0,-5.0,1
-257.0,19.0,7.0,-39.0,12.0,-4.0,1
-258.0,18.0,4.0,-38.0,12.0,-4.0,1
-256.0,20.0,-1.0,-37.0,11.0,-3.0,1
-261.0,23.0,3.0,-36.0,10.0,-4.0,1
-257.0,24.0,5.0,-36.0,9.0,-3.0,1
-256.0,22.0,3.0,-35.0,9.0,-2.0,1
-258.0,23.0,-2.0,-33.0,7.0,-3.0,1
-260.0,23.0,1.0,-34.0,7.0,-5.0,1
-257.0,21.0,3.0,-34.0,7.0,-4.0,1
-257.0,22.0,6.0,-35.0,5.0,-3.0,1
-259.0,19.0,-5.0,-36.0,6.0,-4.0,1
-256.0,22.0,3.0,-36.0,6.0,-4.0,1
-257.0,21.0,8.0,-36.0,7.0,-4.0,1
-258.0,24.0,7.0,-38.0,7.0,-5.0,1
-258.0,17.0,-3.0,-40.0,8.0,-4.0,1
-259.0,22.0,5.0,-43.0,8.0,-6.0,1
-259.0,24.0,4.0,-42.0,10.0,-7.0,1
-260.0,24.0,7.0,-42.0,11.0,-7.0,1
-254.0,19.0,3.0,-44.0,12.0,-7.0,1
-258.0,26.0,6.0,-43.0,13.0,-7.0,1
-255.0,22.0,3.0,-45.0,14.0,-7.0,1
-261.0,19.0,0.0,-46.0,14.0,-7.0,1
-257.0,21.0,3.0,-46.0,14.0,-7.0,1
-260.0,21.0,2.0,-46.0,15.0,-7.0,1
-260.0,22.0,3.0,-46.0,15.0,-6.0,1
-257.0,22.0,3.0,-46.0,13.0,-5.0,1
-258.0,21.0,3.0,-46.0,15.0,-5.0,1
-259.0,23.0,4.0,-47.0,14.0,-5.0,1
-258.0,20.0,4.0,-47.0,13.0,-3.0,1
-258.0,22.0,4.0,-46.0,12.0,-3.0,1
-256.0,20.0,6.0,-47.0,10.0,-3.0,1
-257.0,16.0,-3.0,-49.0,9.0,-3.0,1
-256.0,19.0,8.0,-49.0,9.0,-3.0,1
-260.0,21.0,5.0,-48.0,8.0,-2.0,1
-257.0,19.0,6.0,-47.0,7.0,-4.0,1
-258.0,22.0,3.0,-48.0,5.0,-4.0,1
-259.0,18.0,2.0,-48.0,5.0,-3.0,1
-257.0,21.0,2.0,-48.0,4.0,-4.0,1
-261.0,24.0,3.0,-49.0,2.0,-4.0,1
-258.0,22.0,2.0,-50.0,2.0,-2.0,1
-257.0,21.0,0.0,-50.0,3.0,-2.0,1
-260.0,22.0,1.0,-49.0,2.0,-1.0,1
-259.0,19.0,1.0,-50.0,2.0,-1.0,1
-259.0,20.0,9.0,-50.0,2.0,-2.0,1
-258.0,20.0,1.0,-50.0,2.0,-2.0,1
-259.0,19.0,2.0,-51.0,4.0,-2.0,1
-260.0,22.0,2.0,-50.0,5.0,-2.0,1
-257.0,22.0,5.0,-49.0,4.0,-3.0,1
-259.0,21.0,6.0,-49.0,5.0,-2.0,1
-257.0,21.0,5.0,-50.0,8.0,-2.0,1
-260.0,23.0,4.0,-47.0,9.0,-1.0,1
-257.0,22.0,5.0,-48.0,10.0,-2.0,1
-257.0,23.0,-2.0,-49.0,12.0,-2.0,1
-261.0,22.0,8.0,-49.0,12.0,-1.0,1
-256.0,20.0,7.0,-48.0,11.0,0.0,1
-257.0,19.0,8.0,-47.0,10.0,-1.0,1
-258.0,20.0,1.0,-47.0,10.0,-1.0,1
-257.0,22.0,1.0,-48.0,10.0,-2.0,1
-258.0,23.0,2.0,-47.0,9.0,-2.0,1
-257.0,20.0,6.0,-47.0,9.0,-3.0,1
-259.0,21.0,2.0,-46.0,8.0,-2.0,1
-258.0,18.0,4.0,-46.0,8.0,-3.0,1
-256.0,21.0,5.0,-46.0,6.0,-4.0,1
-257.0,23.0,2.0,-44.0,7.0,-2.0,1
-257.0,22.0,6.0,-44.0,7.0,-2.0,1
-259.0,24.0,4.0,-42.0,5.0,-1.0,1
-258.0,22.0,4.0,-40.0,6.0,-4.0,1
-257.0,22.0,8.0,-40.0,5.0,-3.0,1
-258.0,20.0,1.0,-40.0,5.0,-3.0,1
-259.0,21.0,1.0,-39.0,3.0,-3.0,1
-258.0,20.0,3.0,-38.0,5.0,-2.0,1
-258.0,22.0,4.0,-37.0,4.0,-2.0,1
-256.0,21.0,1.0,-37.0,2.0,-2.0,1
-258.0,18.0,-1.0,-34.0,1.0,-1.0,1
-263.0,17.0,-2.0,-36.0,-1.0,0.0,1
-259.0,20.0,3.0,-37.0,-3.0,-1.0,1
-256.0,17.0,0.0,-35.0,-5.0,1.0,1
-259.0,24.0,2.0,-35.0,-6.0,1.0,1
-259.0,20.0,0.0,-37.0,-10.0,0.0,1
-257.0,20.0,3.0,-37.0,-11.0,0.0,1
-259.0,21.0,4.0,-37.0,-11.0,1.0,1
-257.0,21.0,2.0,-37.0,-12.0,3.0,1
-256.0,20.0,1.0,-36.0,-12.0,5.0,1
-257.0,22.0,7.0,-36.0,-13.0,3.0,1
-259.0,21.0,7.0,-37.0,-11.0,3.0,1
-258.0,21.0,1.0,-33.0,-12.0,4.0,1
-257.0,21.0,3.0,-35.0,-11.0,3.0,1
-259.0,25.0,5.0,-37.0,-10.0,5.0,1
-261.0,22.0,7.0,-40.0,-9.0,4.0,1
-257.0,21.0,9.0,-41.0,-7.0,2.0,1
-258.0,25.0,6.0,-43.0,-5.0,1.0,1
-258.0,24.0,5.0,-42.0,-1.0,-1.0,1
-256.0,22.0,6.0,-43.0,3.0,-4.0,1
-257.0,23.0,4.0,-42.0,7.0,-5.0,1
-257.0,20.0,7.0,-42.0,9.0,-6.0,1
-260.0,23.0,3.0,-42.0,12.0,-7.0,1
-257.0,22.0,2.0,-42.0,14.0,-4.0,1
-258.0,17.0,6.0,-43.0,14.0,-5.0,1
-261.0,21.0,9.0,-40.0,15.0,-3.0,1
-256.0,22.0,2.0,-40.0,14.0,-1.0,1
-258.0,21.0,5.0,-39.0,14.0,0.0,1
-260.0,20.0,8.0,-38.0,14.0,3.0,1
-257.0,20.0,10.0,-39.0,14.0,2.0,1
-257.0,22.0,5.0,-38.0,15.0,1.0,1
-257.0,23.0,7.0,-40.0,13.0,3.0,1
-257.0,23.0,3.0,-41.0,12.0,3.0,1
-251.0,21.0,9.0,-43.0,8.0,4.0,1
-257.0,23.0,1.0,-45.0,4.0,9.0,1
-256.0,21.0,0.0,-47.0,0.0,9.0,1
-254.0,21.0,5.0,-51.0,-5.0,11.0,1
-259.0,21.0,6.0,-50.0,-8.0,13.0,1
-258.0,23.0,5.0,-50.0,-12.0,15.0,1
-260.0,20.0,6.0,-50.0,-14.0,15.0,1
-258.0,22.0,4.0,-51.0,-15.0,17.0,1
-260.0,21.0,1.0,-52.0,-17.0,17.0,1
-260.0,25.0,8.0,-52.0,-19.0,18.0,1
-258.0,20.0,5.0,-52.0,-20.0,16.0,1
-261.0,26.0,7.0,-50.0,-20.0,13.0,1
-259.0,23.0,1.0,-48.0,-16.0,10.0,1
-260.0,22.0,6.0,-45.0,-14.0,8.0,1
-258.0,21.0,7.0,-44.0,-9.0,4.0,1
-259.0,22.0,7.0,-47.0,-6.0,3.0,1
-257.0,23.0,5.0,-46.0,-2.0,-1.0,1
-258.0,22.0,5.0,-46.0,1.0,-3.0,1
-258.0,22.0,5.0,-46.0,6.0,-3.0,1
-257.0,22.0,6.0,-46.0,8.0,-4.0,1
-259.0,23.0,4.0,-45.0,10.0,-5.0,1
-257.0,20.0,4.0,-46.0,11.0,-4.0,1
-256.0,22.0,8.0,-47.0,11.0,-4.0,1
-257.0,23.0,5.0,-44.0,10.0,-5.0,1
-255.0,22.0,2.0,-42.0,9.0,-4.0,1
-256.0,21.0,6.0,-43.0,11.0,-4.0,1
-258.0,20.0,6.0,-41.0,11.0,-3.0,1
-259.0,21.0,4.0,-42.0,10.0,-3.0,1
-256.0,21.0,5.0,-40.0,12.0,-4.0,1
-256.0,22.0,6.0,-39.0,12.0,-4.0,1
-258.0,25.0,8.0,-41.0,13.0,-5.0,1
-257.0,22.0,4.0,-41.0,14.0,-4.0,1
-254.0,24.0,7.0,-40.0,12.0,-6.0,1
-258.0,23.0,8.0,-40.0,14.0,-6.0,1
-258.0,21.0,6.0,-40.0,14.0,-5.0,1
-258.0,22.0,5.0,-42.0,14.0,-6.0,1
-257.0,21.0,7.0,-42.0,16.0,-5.0,1
-257.0,24.0,8.0,-43.0,17.0,-8.0,1
-260.0,24.0,9.0,-45.0,18.0,-8.0,1
-259.0,23.0,9.0,-46.0,18.0,-7.0,1
-258.0,26.0,3.0,-45.0,18.0,-8.0,1
-257.0,24.0,7.0,-44.0,19.0,-8.0,1
-258.0,24.0,5.0,-44.0,19.0,-8.0,1
-254.0,26.0,1.0,-45.0,18.0,-8.0,1
-260.0,23.0,5.0,-45.0,19.0,-8.0,1
-257.0,25.0,6.0,-46.0,20.0,-6.0,1
-256.0,23.0,7.0,-45.0,20.0,-6.0,1
-259.0,21.0,8.0,-45.0,18.0,-5.0,1
-256.0,23.0,8.0,-45.0,17.0,-5.0,1
-259.0,23.0,5.0,-46.0,18.0,-5.0,1
-258.0,23.0,4.0,-47.0,18.0,-5.0,1
-257.0,20.0,6.0,-46.0,18.0,-5.0,1
-260.0,20.0,9.0,-46.0,17.0,-4.0,1
-257.0,20.0,2.0,-46.0,16.0,-5.0,1
-256.0,20.0,6.0,-46.0,15.0,-4.0,1
-259.0,24.0,4.0,-47.0,15.0,-4.0,1
-258.0,21.0,9.0,-48.0,15.0,-4.0,1
-260.0,24.0,5.0,-50.0,14.0,-3.0,1
-259.0,24.0,6.0,-50.0,14.0,-3.0,1
-256.0,20.0,6.0,-50.0,12.0,-4.0,1
-257.0,21.0,8.0,-48.0,12.0,-5.0,1
-261.0,24.0,8.0,-50.0,12.0,-5.0,1
-259.0,20.0,4.0,-50.0,12.0,-3.0,1
-259.0,26.0,11.0,-49.0,11.0,-3.0,1
-257.0,21.0,8.0,-50.0,11.0,-4.0,1
-256.0,21.0,9.0,-50.0,12.0,-4.0,1
-257.0,21.0,8.0,-50.0,14.0,-4.0,1
-257.0,23.0,-1.0,-51.0,14.0,-3.0,1
-255.0,23.0,9.0,-52.0,14.0,-4.0,1
-257.0,24.0,3.0,-49.0,15.0,-3.0,1
-258.0,20.0,4.0,-49.0,16.0,-4.0,1
-260.0,25.0,9.0,-50.0,16.0,-4.0,1
-261.0,22.0,8.0,-52.0,15.0,-3.0,1
-255.0,21.0,4.0,-50.0,16.0,-5.0,1
-251.0,18.0,6.0,-50.0,16.0,-4.0,1
-258.0,25.0,9.0,-50.0,18.0,-5.0,1
-262.0,28.0,7.0,-51.0,18.0,-4.0,1
-257.0,21.0,7.0,-51.0,17.0,-4.0,1
-256.0,24.0,3.0,-49.0,17.0,-3.0,1
-258.0,22.0,5.0,-50.0,18.0,-5.0,1
-257.0,22.0,5.0,-49.0,18.0,-5.0,1
-260.0,20.0,4.0,-48.0,18.0,-3.0,1
-260.0,20.0,6.0,-49.0,19.0,-5.0,1
-257.0,22.0,5.0,-48.0,17.0,-4.0,1
-259.0,24.0,8.0,-49.0,18.0,-6.0,1
-255.0,23.0,4.0,-48.0,18.0,-5.0,1
-258.0,21.0,4.0,-48.0,17.0,-5.0,1
-258.0,25.0,4.0,-46.0,17.0,-6.0,1
-256.0,23.0,7.0,-45.0,16.0,-7.0,1
-258.0,20.0,5.0,-43.0,17.0,-6.0,1
-260.0,25.0,6.0,-44.0,17.0,-5.0,1
-258.0,22.0,7.0,-45.0,18.0,-7.0,1
-260.0,21.0,2.0,-43.0,18.0,-7.0,1
-261.0,22.0,4.0,-43.0,19.0,-6.0,1
-256.0,24.0,9.0,-44.0,19.0,-7.0,1
-259.0,21.0,8.0,-44.0,19.0,-6.0,1
-260.0,18.0,6.0,-44.0,18.0,-6.0,1
-256.0,21.0,0.0,-44.0,18.0,-7.0,1
-257.0,24.0,3.0,-42.0,18.0,-5.0,1
-257.0,22.0,8.0,-42.0,18.0,-5.0,1
-255.0,20.0,7.0,-43.0,18.0,-4.0,1
-259.0,22.0,7.0,-45.0,18.0,-6.0,1
-257.0,24.0,5.0,-45.0,19.0,-6.0,1
-258.0,24.0,5.0,-46.0,18.0,-7.0,1
-256.0,23.0,6.0,-46.0,19.0,-7.0,1
-255.0,24.0,8.0,-47.0,19.0,-6.0,1
-253.0,24.0,10.0,-46.0,19.0,-6.0,1
-256.0,22.0,10.0,-45.0,20.0,-6.0,1
-256.0,24.0,3.0,-44.0,20.0,-7.0,1
-257.0,21.0,4.0,-44.0,19.0,-6.0,1
-257.0,23.0,5.0,-45.0,21.0,-6.0,1
-257.0,22.0,8.0,-47.0,22.0,-6.0,1
-256.0,21.0,1.0,-47.0,23.0,-7.0,1
-258.0,20.0,6.0,-47.0,25.0,-7.0,1
-257.0,22.0,5.0,-47.0,25.0,-9.0,1
-259.0,23.0,0.0,-46.0,27.0,-10.0,1
-258.0,19.0,8.0,-47.0,27.0,-12.0,1
-259.0,23.0,8.0,-47.0,28.0,-10.0,1
-258.0,21.0,4.0,-48.0,27.0,-10.0,1
-258.0,24.0,4.0,-46.0,25.0,-9.0,1
-259.0,25.0,6.0,-43.0,23.0,-8.0,1
-259.0,23.0,5.0,-41.0,22.0,-6.0,1
-258.0,20.0,5.0,-41.0,22.0,-5.0,1
-257.0,23.0,5.0,-41.0,20.0,-4.0,1
-257.0,21.0,5.0,-40.0,19.0,-2.0,1
-258.0,22.0,6.0,-40.0,18.0,-1.0,1
-257.0,21.0,4.0,-39.0,16.0,0.0,1
-258.0,19.0,9.0,-41.0,14.0,1.0,1
-257.0,24.0,5.0,-41.0,11.0,1.0,1
-258.0,23.0,4.0,-41.0,9.0,1.0,1
-258.0,21.0,4.0,-44.0,6.0,2.0,1
-255.0,21.0,5.0,-49.0,3.0,2.0,1
-257.0,18.0,4.0,-51.0,2.0,5.0,1
-257.0,24.0,3.0,-51.0,-1.0,4.0,1
-258.0,18.0,4.0,-53.0,-3.0,6.0,1
-258.0,23.0,8.0,-57.0,-5.0,6.0,1
-260.0,23.0,3.0,-56.0,-5.0,5.0,1
-259.0,21.0,7.0,-57.0,-5.0,4.0,1
-259.0,22.0,10.0,-57.0,-4.0,4.0,1
-259.0,19.0,3.0,-55.0,-1.0,3.0,1
-258.0,21.0,8.0,-55.0,2.0,1.0,1
-258.0,22.0,2.0,-51.0,4.0,0.0,1
-258.0,21.0,5.0,-49.0,8.0,-3.0,1
-259.0,25.0,9.0,-47.0,11.0,-3.0,1
-256.0,24.0,6.0,-47.0,14.0,-4.0,1
-257.0,22.0,8.0,-47.0,17.0,-4.0,1
-260.0,22.0,7.0,-47.0,18.0,-5.0,1
-257.0,22.0,7.0,-46.0,18.0,-4.0,1
-253.0,19.0,8.0,-45.0,19.0,-4.0,1
-263.0,16.0,11.0,-46.0,20.0,-3.0,1
-258.0,24.0,4.0,-45.0,19.0,-2.0,1
-257.0,24.0,6.0,-43.0,19.0,-2.0,1
-255.0,20.0,3.0,-42.0,18.0,-2.0,1
-259.0,21.0,9.0,-43.0,18.0,-2.0,1
-259.0,25.0,6.0,-40.0,18.0,-1.0,1
-256.0,23.0,8.0,-39.0,17.0,-2.0,1
-256.0,21.0,8.0,-40.0,17.0,-2.0,1
-258.0,19.0,7.0,-39.0,16.0,-3.0,1
-255.0,22.0,8.0,-37.0,16.0,-3.0,1
-261.0,26.0,7.0,-38.0,15.0,-2.0,1
-260.0,23.0,-2.0,-38.0,15.0,-3.0,1
-258.0,25.0,8.0,-39.0,15.0,-4.0,1
-256.0,23.0,7.0,-39.0,16.0,-7.0,1
-259.0,22.0,2.0,-39.0,17.0,-6.0,1
-257.0,26.0,8.0,-39.0,17.0,-5.0,1
-257.0,25.0,2.0,-43.0,17.0,-5.0,1
-258.0,23.0,6.0,-42.0,18.0,-6.0,1
-258.0,25.0,7.0,-44.0,19.0,-7.0,1
-261.0,23.0,4.0,-45.0,19.0,-7.0,1
-256.0,22.0,6.0,-44.0,20.0,-7.0,1
-256.0,19.0,5.0,-44.0,18.0,-8.0,1
-250.0,25.0,9.0,-43.0,19.0,-8.0,1
-260.0,21.0,7.0,-44.0,20.0,-10.0,1
-257.0,24.0,6.0,-47.0,20.0,-7.0,1
-257.0,24.0,7.0,-46.0,20.0,-7.0,1
-257.0,23.0,6.0,-46.0,20.0,-7.0,1
-258.0,22.0,3.0,-45.0,19.0,-6.0,1
-256.0,20.0,7.0,-46.0,18.0,-6.0,1
-258.0,19.0,6.0,-46.0,19.0,-7.0,1
-255.0,22.0,4.0,-45.0,19.0,-5.0,1
-256.0,23.0,7.0,-46.0,18.0,-5.0,1
-257.0,21.0,7.0,-47.0,18.0,-4.0,1
-253.0,22.0,6.0,-49.0,17.0,-5.0,1
-257.0,22.0,8.0,-49.0,16.0,-5.0,1
-258.0,22.0,4.0,-48.0,16.0,-4.0,1
-259.0,23.0,3.0,-49.0,16.0,-4.0,1
-256.0,22.0,7.0,-51.0,13.0,-5.0,1
-257.0,22.0,6.0,-50.0,13.0,-3.0,1
-257.0,23.0,2.0,-50.0,12.0,-3.0,1
-258.0,22.0,7.0,-50.0,12.0,-3.0,1
-260.0,21.0,3.0,-50.0,11.0,-4.0,1
-260.0,21.0,8.0,-49.0,12.0,-3.0,1
-264.0,21.0,10.0,-49.0,13.0,-3.0,1
-258.0,21.0,8.0,-51.0,13.0,-4.0,1
-257.0,22.0,4.0,-51.0,14.0,-4.0,1
-259.0,24.0,6.0,-52.0,15.0,-4.0,1
-258.0,22.0,10.0,-50.0,16.0,-3.0,1
-259.0,24.0,4.0,-51.0,17.0,-4.0,1
-257.0,22.0,8.0,-51.0,16.0,-3.0,1
-258.0,22.0,8.0,-52.0,17.0,-2.0,1
-257.0,21.0,7.0,-50.0,19.0,-4.0,1
-257.0,25.0,-2.0,-51.0,20.0,-3.0,1
-255.0,21.0,7.0,-52.0,19.0,-3.0,1
-243.0,28.0,15.0,-51.0,20.0,-4.0,1
-260.0,21.0,7.0,-51.0,19.0,-4.0,1
-257.0,25.0,0.0,-51.0,19.0,-3.0,1
-256.0,22.0,5.0,-51.0,19.0,-4.0,1
-258.0,22.0,5.0,-52.0,19.0,-5.0,1
-259.0,22.0,7.0,-52.0,20.0,-4.0,1
-259.0,21.0,7.0,-50.0,20.0,-3.0,1
-261.0,23.0,4.0,-49.0,18.0,-5.0,1
-255.0,22.0,3.0,-48.0,18.0,-5.0,1
-257.0,23.0,7.0,-47.0,19.0,-5.0,1
-261.0,27.0,3.0,-46.0,19.0,-4.0,1
-261.0,25.0,9.0,-45.0,19.0,-5.0,1
-260.0,21.0,8.0,-44.0,18.0,-5.0,1
-261.0,27.0,4.0,-43.0,19.0,-5.0,1
-258.0,25.0,5.0,-43.0,18.0,-5.0,1
-258.0,21.0,7.0,-43.0,19.0,-5.0,1
-256.0,21.0,5.0,-43.0,18.0,-5.0,1
-258.0,22.0,8.0,-42.0,18.0,-5.0,1
-258.0,23.0,6.0,-41.0,19.0,-6.0,1
-259.0,25.0,5.0,-41.0,19.0,-5.0,1
-254.0,20.0,4.0,-40.0,18.0,-6.0,1
-255.0,22.0,6.0,-41.0,18.0,-6.0,1
-258.0,24.0,7.0,-40.0,17.0,-6.0,1
-258.0,17.0,8.0,-41.0,17.0,-6.0,1
-261.0,23.0,8.0,-40.0,17.0,-5.0,1
-259.0,19.0,5.0,-40.0,17.0,-4.0,1
-258.0,21.0,8.0,-42.0,19.0,-4.0,1
-261.0,22.0,4.0,-42.0,19.0,-7.0,1
-254.0,21.0,4.0,-44.0,17.0,-6.0,1
-256.0,21.0,7.0,-45.0,17.0,-6.0,1
-257.0,23.0,7.0,-43.0,18.0,-7.0,1
-257.0,24.0,1.0,-44.0,19.0,-6.0,1
-263.0,21.0,7.0,-42.0,18.0,-5.0,1
-257.0,22.0,2.0,-42.0,18.0,-5.0,1
-258.0,21.0,5.0,-41.0,19.0,-5.0,1
-254.0,19.0,4.0,-41.0,21.0,-5.0,1
-258.0,24.0,7.0,-41.0,20.0,-5.0,1
-258.0,26.0,8.0,-42.0,19.0,-4.0,1
-256.0,19.0,9.0,-44.0,20.0,-5.0,1
-255.0,23.0,6.0,-44.0,20.0,-7.0,1
-257.0,23.0,4.0,-45.0,22.0,-8.0,1
-258.0,25.0,7.0,-44.0,23.0,-9.0,1
-257.0,15.0,9.0,-45.0,24.0,-9.0,1
-258.0,22.0,5.0,-45.0,26.0,-10.0,1
-260.0,22.0,3.0,-45.0,25.0,-8.0,1
-260.0,24.0,7.0,-44.0,23.0,-8.0,1
-255.0,21.0,8.0,-43.0,22.0,-5.0,1
-258.0,20.0,7.0,-42.0,20.0,-4.0,1
-257.0,22.0,4.0,-42.0,20.0,-5.0,1
-260.0,24.0,9.0,-41.0,19.0,-3.0,1
-257.0,22.0,8.0,-41.0,18.0,-2.0,1
-255.0,19.0,6.0,-42.0,18.0,0.0,1
-259.0,23.0,3.0,-41.0,15.0,0.0,1
-254.0,25.0,0.0,-44.0,14.0,1.0,1
-258.0,22.0,6.0,-45.0,10.0,1.0,1
-256.0,23.0,2.0,-46.0,9.0,1.0,1
-258.0,21.0,2.0,-48.0,5.0,2.0,1
-260.0,26.0,6.0,-51.0,2.0,4.0,1
-258.0,25.0,6.0,-52.0,1.0,5.0,1
-260.0,21.0,4.0,-53.0,-2.0,5.0,1
-258.0,24.0,7.0,-57.0,-2.0,4.0,1
-258.0,22.0,7.0,-59.0,-4.0,4.0,1
-258.0,19.0,3.0,-58.0,-3.0,5.0,1
-256.0,24.0,7.0,-59.0,-3.0,5.0,1
-261.0,23.0,0.0,-56.0,0.0,3.0,1
-260.0,22.0,7.0,-57.0,0.0,2.0,1
-259.0,23.0,8.0,-53.0,2.0,1.0,1
-259.0,21.0,6.0,-50.0,6.0,0.0,1
-261.0,23.0,4.0,-49.0,8.0,-3.0,1
-257.0,23.0,5.0,-47.0,11.0,-3.0,1
-256.0,26.0,9.0,-45.0,14.0,-3.0,1
-259.0,20.0,8.0,-45.0,17.0,-4.0,1
-258.0,22.0,3.0,-45.0,18.0,-5.0,1
-259.0,22.0,6.0,-45.0,19.0,-5.0,1
-258.0,20.0,5.0,-46.0,20.0,-5.0,1
-258.0,19.0,9.0,-45.0,19.0,-3.0,1
-260.0,20.0,8.0,-43.0,20.0,-3.0,1
-258.0,21.0,5.0,-41.0,19.0,-3.0,1
-256.0,21.0,6.0,-40.0,18.0,-2.0,1
-259.0,21.0,7.0,-40.0,18.0,-2.0,1
-259.0,23.0,3.0,-38.0,18.0,-2.0,1
-256.0,18.0,7.0,-37.0,17.0,-4.0,1
-260.0,21.0,2.0,-37.0,16.0,-3.0,1
-256.0,20.0,8.0,-34.0,16.0,-2.0,1
-256.0,28.0,6.0,-37.0,15.0,-4.0,1
-254.0,23.0,11.0,-36.0,14.0,-5.0,1
-258.0,21.0,4.0,-37.0,14.0,-3.0,1
-255.0,23.0,6.0,-36.0,15.0,-4.0,1
-257.0,22.0,2.0,-39.0,15.0,-5.0,1
-256.0,21.0,8.0,-39.0,16.0,-5.0,1
-258.0,24.0,6.0,-42.0,17.0,-6.0,1
-259.0,26.0,8.0,-43.0,18.0,-8.0,1
-254.0,17.0,8.0,-42.0,19.0,-7.0,1
-255.0,21.0,5.0,-43.0,20.0,-8.0,1
-257.0,20.0,2.0,-44.0,21.0,-8.0,1
-256.0,22.0,6.0,-45.0,20.0,-7.0,1
-252.0,21.0,16.0,-46.0,20.0,-6.0,1
-261.0,22.0,4.0,-46.0,20.0,-8.0,1
-257.0,23.0,6.0,-46.0,19.0,-8.0,1
-256.0,21.0,5.0,-48.0,21.0,-7.0,1
-257.0,19.0,4.0,-47.0,21.0,-8.0,1
-260.0,21.0,7.0,-47.0,20.0,-6.0,1
-256.0,22.0,4.0,-46.0,19.0,-5.0,1
-257.0,20.0,6.0,-47.0,18.0,-6.0,1
-256.0,19.0,8.0,-48.0,21.0,-4.0,1
-256.0,20.0,4.0,-51.0,19.0,-5.0,1
-255.0,22.0,4.0,-49.0,18.0,-4.0,1
-257.0,21.0,6.0,-50.0,17.0,-1.0,1
-257.0,23.0,6.0,-52.0,14.0,-1.0,1
-256.0,23.0,3.0,-54.0,13.0,0.0,1
-259.0,23.0,5.0,-55.0,11.0,1.0,1
-254.0,19.0,8.0,-54.0,9.0,2.0,1
-256.0,23.0,5.0,-55.0,7.0,4.0,1
-260.0,24.0,4.0,-54.0,4.0,5.0,1
-260.0,24.0,0.0,-53.0,1.0,5.0,1
-259.0,21.0,3.0,-53.0,-1.0,5.0,1
-258.0,23.0,5.0,-51.0,-3.0,9.0,1
-256.0,20.0,2.0,-49.0,-5.0,10.0,1
-257.0,22.0,5.0,-49.0,-6.0,11.0,1
-258.0,23.0,7.0,-49.0,-8.0,12.0,1
-256.0,20.0,9.0,-48.0,-9.0,10.0,1
-258.0,23.0,10.0,-48.0,-10.0,11.0,1
-259.0,19.0,4.0,-47.0,-11.0,9.0,1
-258.0,24.0,5.0,-48.0,-10.0,8.0,1
-259.0,21.0,7.0,-50.0,-9.0,8.0,1
-259.0,23.0,5.0,-52.0,-8.0,8.0,1
-260.0,23.0,4.0,-55.0,-9.0,7.0,1
-258.0,23.0,3.0,-58.0,-7.0,6.0,1
-258.0,31.0,7.0,-60.0,-7.0,6.0,1
-257.0,24.0,8.0,-62.0,-5.0,5.0,1
-260.0,25.0,8.0,-63.0,-5.0,4.0,1
-254.0,22.0,5.0,-64.0,-4.0,5.0,1
-255.0,21.0,7.0,-66.0,-3.0,6.0,1
-257.0,21.0,7.0,-63.0,-4.0,6.0,1
-256.0,23.0,3.0,-61.0,-7.0,8.0,1
-259.0,21.0,4.0,-60.0,-8.0,10.0,1
-257.0,22.0,8.0,-59.0,-11.0,12.0,1
-253.0,22.0,6.0,-57.0,-15.0,14.0,1
-259.0,27.0,8.0,-56.0,-19.0,17.0,1
-254.0,22.0,6.0,-56.0,-22.0,19.0,1
-256.0,24.0,8.0,-54.0,-25.0,21.0,1
-255.0,25.0,6.0,-53.0,-28.0,23.0,1
-256.0,22.0,5.0,-54.0,-31.0,25.0,1
-258.0,22.0,6.0,-54.0,-32.0,26.0,1
-255.0,24.0,8.0,-53.0,-34.0,26.0,1
-257.0,24.0,5.0,-53.0,-36.0,26.0,1
-256.0,20.0,6.0,-53.0,-38.0,26.0,1
-257.0,22.0,8.0,-54.0,-38.0,24.0,1
-255.0,22.0,4.0,-55.0,-38.0,23.0,1
-257.0,19.0,-4.0,-57.0,-36.0,19.0,1
-257.0,26.0,6.0,-56.0,-35.0,19.0,1
-256.0,25.0,8.0,-56.0,-33.0,16.0,1
-257.0,23.0,9.0,-56.0,-32.0,16.0,1
-258.0,24.0,8.0,-55.0,-31.0,16.0,1
-259.0,23.0,8.0,-56.0,-30.0,15.0,1
-258.0,22.0,5.0,-55.0,-30.0,17.0,1
-259.0,25.0,6.0,-56.0,-30.0,16.0,1
-258.0,22.0,5.0,-58.0,-29.0,17.0,1
-257.0,21.0,8.0,-57.0,-26.0,18.0,1
-261.0,23.0,6.0,-57.0,-27.0,18.0,1
-255.0,15.0,7.0,-57.0,-27.0,18.0,1
-258.0,24.0,9.0,-57.0,-27.0,18.0,1
-259.0,25.0,6.0,-59.0,-26.0,18.0,1
-258.0,25.0,9.0,-60.0,-26.0,19.0,1
-254.0,23.0,10.0,-60.0,-26.0,20.0,1
-258.0,25.0,9.0,-61.0,-27.0,21.0,1
-258.0,27.0,8.0,-60.0,-24.0,21.0,1
-256.0,25.0,8.0,-58.0,-26.0,21.0,1
-255.0,22.0,7.0,-58.0,-24.0,19.0,1
-259.0,23.0,6.0,-57.0,-26.0,20.0,1
-259.0,23.0,9.0,-58.0,-26.0,19.0,1
-258.0,23.0,9.0,-59.0,-26.0,16.0,1
-256.0,23.0,9.0,-57.0,-26.0,16.0,1
-255.0,23.0,8.0,-57.0,-24.0,15.0,1
-257.0,24.0,5.0,-58.0,-23.0,14.0,1
-257.0,25.0,11.0,-57.0,-23.0,14.0,1
-255.0,25.0,10.0,-58.0,-22.0,12.0,1
-257.0,24.0,11.0,-57.0,-20.0,12.0,1
-256.0,25.0,7.0,-58.0,-19.0,12.0,1
-255.0,23.0,9.0,-56.0,-18.0,12.0,1
-254.0,22.0,8.0,-55.0,-16.0,12.0,1
-257.0,26.0,9.0,-57.0,-15.0,12.0,1
-256.0,23.0,12.0,-56.0,-15.0,11.0,1
-254.0,25.0,10.0,-54.0,-14.0,12.0,1
-257.0,24.0,9.0,-56.0,-13.0,12.0,1
-259.0,23.0,9.0,-55.0,-11.0,13.0,1
-256.0,23.0,7.0,-54.0,-13.0,14.0,1
-255.0,21.0,12.0,-54.0,-13.0,14.0,1
-257.0,26.0,8.0,-55.0,-14.0,15.0,1
-258.0,29.0,10.0,-58.0,-15.0,18.0,1
-255.0,23.0,7.0,-61.0,-17.0,18.0,1
-258.0,24.0,6.0,-64.0,-16.0,20.0,1
-255.0,27.0,7.0,-63.0,-17.0,22.0,1
-256.0,26.0,8.0,-62.0,-18.0,24.0,1
-257.0,26.0,8.0,-63.0,-20.0,23.0,1
-256.0,24.0,10.0,-63.0,-20.0,22.0,1
-257.0,25.0,8.0,-62.0,-23.0,21.0,1
-258.0,28.0,8.0,-62.0,-22.0,21.0,1
-260.0,26.0,4.0,-62.0,-22.0,20.0,1
-255.0,22.0,4.0,-61.0,-22.0,19.0,1
-254.0,26.0,9.0,-58.0,-20.0,18.0,1
-257.0,24.0,10.0,-54.0,-18.0,16.0,1
-256.0,23.0,10.0,-53.0,-17.0,14.0,1
-256.0,22.0,8.0,-50.0,-14.0,13.0,1
-257.0,27.0,12.0,-51.0,-13.0,11.0,1
-255.0,26.0,11.0,-51.0,-11.0,9.0,1
-257.0,23.0,9.0,-51.0,-10.0,8.0,1
-254.0,24.0,9.0,-50.0,-10.0,8.0,1
-258.0,27.0,11.0,-50.0,-10.0,6.0,1
-255.0,26.0,9.0,-50.0,-9.0,6.0,1
-256.0,25.0,11.0,-49.0,-8.0,5.0,1
-257.0,26.0,7.0,-50.0,-11.0,5.0,1
-258.0,28.0,12.0,-51.0,-14.0,5.0,1
-259.0,21.0,12.0,-53.0,-16.0,4.0,1
-256.0,24.0,10.0,-51.0,-16.0,3.0,1
-256.0,21.0,7.0,-52.0,-17.0,6.0,1
-257.0,27.0,10.0,-49.0,-16.0,7.0,1
-258.0,25.0,7.0,-49.0,-18.0,7.0,1
-255.0,22.0,5.0,-52.0,-18.0,7.0,1
-257.0,24.0,11.0,-51.0,-17.0,8.0,1
-256.0,23.0,9.0,-50.0,-18.0,6.0,1
-256.0,24.0,11.0,-51.0,-16.0,5.0,1
-257.0,26.0,13.0,-51.0,-16.0,6.0,1
-259.0,26.0,8.0,-51.0,-17.0,6.0,1
-257.0,27.0,11.0,-53.0,-13.0,6.0,1
-258.0,25.0,9.0,-53.0,-14.0,6.0,1
-257.0,26.0,11.0,-53.0,-13.0,7.0,1
-254.0,25.0,7.0,-54.0,-14.0,7.0,1
-256.0,22.0,11.0,-54.0,-15.0,7.0,1
-255.0,24.0,11.0,-52.0,-14.0,7.0,1
-253.0,24.0,12.0,-53.0,-14.0,7.0,1
-258.0,24.0,12.0,-52.0,-13.0,8.0,1
-257.0,27.0,10.0,-55.0,-11.0,7.0,1
-258.0,24.0,9.0,-55.0,-10.0,5.0,1
-254.0,25.0,8.0,-56.0,-10.0,5.0,1
-259.0,24.0,9.0,-56.0,-9.0,5.0,1
-255.0,28.0,10.0,-57.0,-10.0,5.0,1
-253.0,25.0,11.0,-58.0,-11.0,6.0,1
-255.0,26.0,11.0,-57.0,-10.0,7.0,1
-258.0,28.0,11.0,-57.0,-9.0,7.0,1
-255.0,23.0,11.0,-59.0,-9.0,9.0,1
-257.0,26.0,13.0,-61.0,-9.0,8.0,1
-255.0,25.0,10.0,-59.0,-7.0,11.0,1
-257.0,22.0,9.0,-60.0,-9.0,11.0,1
-254.0,26.0,13.0,-64.0,-10.0,10.0,1
-254.0,28.0,14.0,-64.0,-12.0,11.0,1
-256.0,23.0,12.0,-64.0,-15.0,12.0,1
-255.0,25.0,13.0,-62.0,-16.0,13.0,1
-255.0,25.0,12.0,-63.0,-17.0,14.0,1
-258.0,27.0,11.0,-62.0,-19.0,17.0,1
-255.0,27.0,9.0,-63.0,-19.0,15.0,1
-258.0,28.0,12.0,-62.0,-20.0,13.0,1
-257.0,22.0,12.0,-61.0,-20.0,14.0,1
-258.0,26.0,13.0,-61.0,-19.0,14.0,1
-256.0,28.0,11.0,-59.0,-17.0,12.0,1
-257.0,28.0,10.0,-60.0,-18.0,11.0,1
-256.0,17.0,5.0,-62.0,-17.0,11.0,1
-255.0,27.0,10.0,-63.0,-16.0,11.0,1
-257.0,22.0,10.0,-63.0,-16.0,9.0,1
-256.0,23.0,10.0,-63.0,-14.0,8.0,1
-255.0,28.0,13.0,-62.0,-13.0,9.0,1
-257.0,26.0,12.0,-64.0,-12.0,8.0,1
-255.0,26.0,11.0,-63.0,-10.0,8.0,1
-257.0,24.0,11.0,-61.0,-10.0,8.0,1
-258.0,27.0,11.0,-62.0,-8.0,6.0,1
-253.0,26.0,10.0,-62.0,-9.0,7.0,1
-256.0,25.0,12.0,-63.0,-8.0,6.0,1
-256.0,26.0,12.0,-64.0,-6.0,5.0,1
-254.0,24.0,15.0,-62.0,-6.0,5.0,1
-255.0,24.0,10.0,-62.0,-6.0,5.0,1
-253.0,27.0,14.0,-62.0,-4.0,3.0,1
-254.0,28.0,10.0,-60.0,-4.0,4.0,1
-258.0,24.0,13.0,-59.0,-3.0,4.0,1
-257.0,25.0,13.0,-58.0,-3.0,4.0,1
-256.0,30.0,10.0,-56.0,-2.0,4.0,1
-256.0,23.0,14.0,-54.0,-2.0,2.0,1
-257.0,25.0,15.0,-53.0,-2.0,3.0,1
-256.0,25.0,15.0,-52.0,-2.0,3.0,1
-253.0,25.0,12.0,-53.0,-4.0,2.0,1
-258.0,25.0,11.0,-52.0,-4.0,3.0,1
-258.0,25.0,14.0,-50.0,-3.0,2.0,1
-256.0,28.0,13.0,-52.0,-1.0,2.0,1
-256.0,24.0,11.0,-51.0,-2.0,2.0,1
-260.0,27.0,13.0,-52.0,0.0,2.0,1
-257.0,25.0,14.0,-52.0,0.0,1.0,1
-256.0,26.0,14.0,-54.0,-1.0,2.0,1
-256.0,27.0,12.0,-53.0,-1.0,2.0,1
-255.0,27.0,13.0,-52.0,-1.0,0.0,1
-255.0,34.0,12.0,-52.0,-1.0,0.0,1
-255.0,22.0,15.0,-53.0,1.0,1.0,1
-255.0,25.0,14.0,-52.0,3.0,0.0,1
-255.0,25.0,13.0,-49.0,3.0,0.0,1
-252.0,23.0,12.0,-50.0,4.0,1.0,1
-256.0,24.0,17.0,-48.0,4.0,-1.0,1
-255.0,29.0,10.0,-48.0,5.0,0.0,1
-256.0,24.0,13.0,-48.0,6.0,-2.0,1
-258.0,23.0,15.0,-47.0,6.0,-3.0,1
-255.0,24.0,15.0,-46.0,7.0,-4.0,1
-254.0,20.0,17.0,-45.0,9.0,-2.0,1
-257.0,27.0,14.0,-47.0,10.0,-3.0,1
-255.0,29.0,12.0,-47.0,10.0,-3.0,1
-256.0,26.0,9.0,-48.0,11.0,-4.0,1
-259.0,28.0,8.0,-49.0,9.0,-4.0,1
-256.0,28.0,10.0,-50.0,9.0,-3.0,1
-257.0,26.0,10.0,-50.0,7.0,-3.0,1
-254.0,26.0,13.0,-49.0,6.0,-2.0,1
-257.0,28.0,7.0,-49.0,3.0,-2.0,1
-252.0,24.0,12.0,-49.0,2.0,-1.0,1
-256.0,25.0,12.0,-46.0,-2.0,-1.0,1
-256.0,20.0,13.0,-44.0,-2.0,0.0,1
-254.0,26.0,13.0,-45.0,-3.0,1.0,1
-254.0,25.0,13.0,-44.0,-7.0,1.0,1
-256.0,29.0,14.0,-42.0,-8.0,2.0,1
-252.0,24.0,9.0,-42.0,-10.0,3.0,1
-259.0,27.0,11.0,-40.0,-13.0,5.0,1
-255.0,27.0,12.0,-40.0,-15.0,6.0,1
-255.0,23.0,11.0,-45.0,-20.0,9.0,1
-257.0,24.0,11.0,-46.0,-23.0,12.0,1
-257.0,27.0,12.0,-47.0,-27.0,15.0,1
-256.0,30.0,11.0,-50.0,-31.0,17.0,1
-251.0,27.0,23.0,-51.0,-34.0,17.0,1
-257.0,28.0,11.0,-51.0,-35.0,18.0,1
-257.0,28.0,12.0,-51.0,-36.0,19.0,1
-256.0,27.0,12.0,-52.0,-40.0,17.0,1
-257.0,25.0,9.0,-55.0,-41.0,17.0,1
-255.0,25.0,16.0,-52.0,-39.0,17.0,1
-255.0,26.0,11.0,-47.0,-36.0,15.0,1
-258.0,26.0,11.0,-44.0,-33.0,12.0,1
-256.0,26.0,16.0,-40.0,-27.0,7.0,1
-257.0,26.0,15.0,-36.0,-23.0,2.0,1
-254.0,29.0,16.0,-31.0,-18.0,-3.0,1
-256.0,25.0,16.0,-30.0,-10.0,-3.0,1
-256.0,25.0,11.0,-32.0,-3.0,-6.0,1
-254.0,27.0,17.0,-33.0,2.0,-6.0,1
-256.0,28.0,17.0,-33.0,3.0,-8.0,1
-257.0,28.0,14.0,-31.0,5.0,-9.0,1
-253.0,25.0,13.0,-32.0,5.0,-11.0,1
-256.0,27.0,16.0,-34.0,4.0,-11.0,1
-257.0,23.0,13.0,-32.0,4.0,-12.0,1
-257.0,29.0,14.0,-31.0,2.0,-10.0,1
-256.0,26.0,10.0,-32.0,1.0,-10.0,1
-257.0,23.0,11.0,-34.0,0.0,-11.0,1
-254.0,27.0,14.0,-33.0,1.0,-11.0,1
-254.0,25.0,16.0,-34.0,1.0,-11.0,1
-255.0,26.0,17.0,-33.0,0.0,-11.0,1
-253.0,27.0,14.0,-34.0,1.0,-11.0,1
-255.0,26.0,16.0,-35.0,3.0,-10.0,1
-256.0,28.0,13.0,-34.0,4.0,-12.0,1
-257.0,28.0,14.0,-32.0,5.0,-12.0,1
-257.0,27.0,17.0,-31.0,6.0,-13.0,1
-255.0,25.0,14.0,-33.0,7.0,-13.0,1
-253.0,26.0,18.0,-34.0,9.0,-14.0,1
-256.0,28.0,17.0,-35.0,10.0,-14.0,1
-255.0,24.0,18.0,-34.0,10.0,-14.0,1
-254.0,28.0,14.0,-33.0,8.0,-15.0,1
-253.0,28.0,16.0,-32.0,9.0,-15.0,1
-254.0,25.0,13.0,-33.0,8.0,-15.0,1
-256.0,25.0,17.0,-33.0,8.0,-15.0,1
-258.0,25.0,13.0,-30.0,8.0,-17.0,1
-256.0,28.0,12.0,-30.0,8.0,-15.0,1
-252.0,26.0,11.0,-31.0,9.0,-16.0,1
-255.0,26.0,15.0,-30.0,9.0,-16.0,1
-259.0,25.0,18.0,-31.0,8.0,-16.0,1
-254.0,27.0,13.0,-33.0,10.0,-15.0,1
-255.0,26.0,14.0,-34.0,11.0,-15.0,1
-256.0,27.0,16.0,-34.0,11.0,-15.0,1
-255.0,27.0,11.0,-35.0,12.0,-15.0,1
-254.0,26.0,12.0,-36.0,13.0,-15.0,1
-255.0,26.0,11.0,-37.0,14.0,-14.0,1
-254.0,26.0,12.0,-39.0,13.0,-14.0,1
-256.0,31.0,12.0,-40.0,13.0,-15.0,1
-254.0,23.0,18.0,-40.0,15.0,-14.0,1
-254.0,25.0,16.0,-40.0,16.0,-15.0,1
-262.0,25.0,11.0,-38.0,16.0,-14.0,1
-256.0,26.0,12.0,-39.0,16.0,-15.0,1
-256.0,23.0,12.0,-40.0,16.0,-15.0,1
-257.0,25.0,15.0,-37.0,17.0,-16.0,1
-256.0,26.0,16.0,-38.0,17.0,-17.0,1
-257.0,26.0,17.0,-36.0,16.0,-15.0,1
-257.0,25.0,14.0,-37.0,18.0,-16.0,1
-255.0,25.0,16.0,-37.0,18.0,-15.0,1
-257.0,25.0,15.0,-34.0,20.0,-15.0,1
-257.0,28.0,14.0,-34.0,19.0,-14.0,1
-259.0,27.0,15.0,-33.0,18.0,-15.0,1
-252.0,24.0,13.0,-33.0,18.0,-15.0,1
-254.0,27.0,11.0,-32.0,19.0,-15.0,1
-256.0,27.0,13.0,-33.0,17.0,-12.0,1
-254.0,26.0,17.0,-33.0,16.0,-13.0,1
-253.0,24.0,16.0,-31.0,16.0,-13.0,1
-256.0,28.0,17.0,-29.0,16.0,-14.0,1
-257.0,28.0,16.0,-29.0,15.0,-14.0,1
-256.0,27.0,12.0,-30.0,15.0,-15.0,1
-253.0,28.0,16.0,-31.0,16.0,-15.0,1
-254.0,25.0,15.0,-29.0,16.0,-17.0,1
-253.0,22.0,16.0,-29.0,17.0,-16.0,1
-255.0,27.0,11.0,-28.0,19.0,-17.0,1
-256.0,26.0,14.0,-28.0,20.0,-18.0,1
-256.0,26.0,12.0,-28.0,22.0,-18.0,1
-256.0,26.0,13.0,-25.0,23.0,-19.0,1
-252.0,23.0,15.0,-27.0,24.0,-20.0,1
-255.0,23.0,15.0,-25.0,28.0,-19.0,1
-256.0,27.0,15.0,-25.0,29.0,-20.0,1
-254.0,27.0,16.0,-26.0,30.0,-20.0,1
-258.0,29.0,19.0,-25.0,31.0,-21.0,1
-255.0,27.0,15.0,-24.0,31.0,-21.0,1
-249.0,25.0,22.0,-26.0,33.0,-21.0,1
-254.0,27.0,14.0,-25.0,34.0,-22.0,1
-254.0,25.0,16.0,-26.0,35.0,-23.0,1
-254.0,25.0,14.0,-25.0,34.0,-21.0,1
-255.0,26.0,16.0,-24.0,34.0,-20.0,1
-255.0,24.0,16.0,-21.0,34.0,-21.0,1
-257.0,27.0,15.0,-23.0,34.0,-21.0,1
-253.0,26.0,15.0,-22.0,35.0,-21.0,1
-257.0,26.0,13.0,-21.0,34.0,-23.0,1
-256.0,25.0,14.0,-22.0,33.0,-21.0,1
-257.0,26.0,19.0,-23.0,33.0,-21.0,1
-255.0,28.0,10.0,-23.0,32.0,-22.0,1
-251.0,24.0,14.0,-22.0,35.0,-22.0,1
-254.0,26.0,13.0,-21.0,35.0,-22.0,1
-255.0,30.0,14.0,-21.0,36.0,-22.0,1
-251.0,25.0,16.0,-20.0,35.0,-23.0,1
-257.0,24.0,15.0,-20.0,36.0,-22.0,1
-257.0,22.0,13.0,-21.0,37.0,-23.0,1
-258.0,27.0,15.0,-21.0,36.0,-23.0,1
-254.0,24.0,13.0,-22.0,38.0,-23.0,1
-257.0,24.0,19.0,-22.0,39.0,-23.0,1
-250.0,19.0,15.0,-21.0,40.0,-24.0,1
-254.0,26.0,14.0,-20.0,40.0,-25.0,1
-258.0,28.0,16.0,-20.0,43.0,-24.0,1
-255.0,28.0,15.0,-20.0,45.0,-25.0,1
-256.0,25.0,13.0,-19.0,47.0,-26.0,1
-256.0,24.0,13.0,-18.0,48.0,-26.0,1
-255.0,23.0,14.0,-18.0,49.0,-27.0,1
-255.0,22.0,14.0,-20.0,47.0,-29.0,1
-256.0,24.0,14.0,-20.0,48.0,-29.0,1
-256.0,23.0,12.0,-21.0,49.0,-28.0,1
-256.0,25.0,14.0,-21.0,48.0,-27.0,1
-258.0,24.0,11.0,-20.0,48.0,-25.0,1
-257.0,27.0,9.0,-22.0,47.0,-25.0,1
-258.0,25.0,13.0,-22.0,47.0,-23.0,1
-255.0,22.0,16.0,-25.0,44.0,-24.0,1
-255.0,25.0,15.0,-25.0,42.0,-22.0,1
-254.0,22.0,12.0,-24.0,37.0,-19.0,1
-254.0,24.0,15.0,-24.0,33.0,-18.0,1
-257.0,25.0,11.0,-23.0,32.0,-17.0,1
-254.0,25.0,13.0,-24.0,30.0,-18.0,1
-257.0,24.0,16.0,-21.0,29.0,-18.0,1
-256.0,22.0,11.0,-21.0,29.0,-18.0,1
-258.0,28.0,20.0,-20.0,28.0,-18.0,1
-257.0,25.0,15.0,-17.0,28.0,-19.0,1
-255.0,22.0,13.0,-18.0,29.0,-19.0,1
-257.0,23.0,9.0,-17.0,28.0,-20.0,1
-253.0,22.0,10.0,-18.0,30.0,-19.0,1
-256.0,24.0,9.0,-21.0,31.0,-18.0,1
-258.0,24.0,9.0,-22.0,32.0,-18.0,1
-255.0,24.0,9.0,-23.0,32.0,-19.0,1
-257.0,24.0,12.0,-23.0,34.0,-18.0,1
-257.0,25.0,12.0,-23.0,35.0,-18.0,1
-254.0,21.0,14.0,-22.0,34.0,-17.0,1
-257.0,25.0,10.0,-21.0,36.0,-18.0,1
-260.0,22.0,12.0,-20.0,37.0,-18.0,1
-257.0,23.0,13.0,-19.0,36.0,-18.0,1
-257.0,25.0,11.0,-18.0,38.0,-19.0,1
-257.0,23.0,13.0,-17.0,38.0,-19.0,1
-257.0,27.0,12.0,-17.0,40.0,-18.0,1
-258.0,26.0,11.0,-16.0,44.0,-19.0,1
-251.0,24.0,13.0,-14.0,45.0,-20.0,1
-257.0,24.0,15.0,-13.0,48.0,-21.0,1
-257.0,26.0,17.0,-15.0,51.0,-21.0,1
-260.0,22.0,13.0,-13.0,53.0,-21.0,1
-256.0,26.0,13.0,-13.0,54.0,-22.0,1
-259.0,27.0,9.0,-14.0,54.0,-22.0,1
-258.0,24.0,15.0,-14.0,54.0,-23.0,1
-256.0,27.0,12.0,-14.0,53.0,-24.0,1
-255.0,24.0,11.0,-14.0,52.0,-24.0,1
-256.0,25.0,14.0,-13.0,50.0,-25.0,1
-255.0,27.0,11.0,-13.0,49.0,-27.0,1
-254.0,27.0,13.0,-14.0,47.0,-24.0,1
-255.0,22.0,10.0,-15.0,46.0,-25.0,1
-254.0,23.0,10.0,-16.0,45.0,-25.0,1
-253.0,23.0,11.0,-15.0,45.0,-24.0,1
-254.0,24.0,13.0,-16.0,45.0,-25.0,1
-258.0,25.0,11.0,-16.0,43.0,-25.0,1
-257.0,27.0,12.0,-16.0,43.0,-25.0,1
-255.0,21.0,12.0,-16.0,42.0,-25.0,1
-257.0,21.0,9.0,-16.0,42.0,-25.0,1
-255.0,23.0,11.0,-13.0,41.0,-26.0,1
-254.0,23.0,8.0,-15.0,42.0,-26.0,1
-256.0,24.0,10.0,-16.0,41.0,-25.0,1
-258.0,24.0,6.0,-16.0,39.0,-25.0,1
-257.0,22.0,10.0,-19.0,38.0,-23.0,1
-255.0,23.0,10.0,-20.0,36.0,-22.0,1
-258.0,24.0,8.0,-19.0,35.0,-22.0,1
-254.0,22.0,11.0,-19.0,34.0,-22.0,1
-256.0,23.0,11.0,-19.0,32.0,-22.0,1
-255.0,23.0,9.0,-19.0,32.0,-21.0,1
-256.0,21.0,10.0,-19.0,32.0,-21.0,1
-257.0,26.0,10.0,-20.0,30.0,-20.0,1
-253.0,26.0,10.0,-21.0,28.0,-19.0,1
-258.0,24.0,10.0,-21.0,28.0,-20.0,1
-254.0,21.0,9.0,-21.0,29.0,-18.0,1
-256.0,23.0,10.0,-25.0,27.0,-18.0,1
-257.0,24.0,10.0,-26.0,26.0,-17.0,1
-257.0,24.0,13.0,-28.0,27.0,-18.0,1
-255.0,23.0,13.0,-30.0,26.0,-18.0,1
-255.0,24.0,11.0,-32.0,26.0,-17.0,1
-258.0,26.0,10.0,-31.0,26.0,-16.0,1
-257.0,23.0,9.0,-33.0,27.0,-17.0,1
-256.0,22.0,12.0,-34.0,28.0,-16.0,1
-254.0,21.0,11.0,-35.0,27.0,-17.0,1
-254.0,23.0,13.0,-35.0,28.0,-17.0,1
-258.0,27.0,12.0,-36.0,28.0,-17.0,1
-252.0,21.0,10.0,-36.0,30.0,-16.0,1
-256.0,24.0,10.0,-37.0,31.0,-17.0,1
-256.0,23.0,13.0,-35.0,32.0,-17.0,1
-255.0,21.0,10.0,-34.0,34.0,-16.0,1
-255.0,23.0,14.0,-34.0,36.0,-14.0,1
-257.0,25.0,8.0,-33.0,37.0,-15.0,1
-254.0,24.0,11.0,-33.0,38.0,-16.0,1
-256.0,21.0,9.0,-31.0,38.0,-15.0,1
-257.0,27.0,14.0,-32.0,39.0,-17.0,1
-260.0,25.0,12.0,-34.0,40.0,-17.0,1
-256.0,24.0,12.0,-34.0,41.0,-15.0,1
-258.0,23.0,6.0,-35.0,41.0,-16.0,1
-257.0,25.0,10.0,-35.0,41.0,-15.0,1
-255.0,24.0,10.0,-35.0,41.0,-15.0,1
-257.0,25.0,9.0,-35.0,41.0,-14.0,1
-257.0,23.0,9.0,-34.0,43.0,-16.0,1
-254.0,22.0,12.0,-33.0,41.0,-14.0,1
-254.0,20.0,10.0,-34.0,41.0,-15.0,1
-255.0,24.0,8.0,-34.0,39.0,-16.0,1
-258.0,25.0,13.0,-34.0,40.0,-14.0,1
-255.0,24.0,15.0,-33.0,39.0,-16.0,1
-255.0,21.0,11.0,-32.0,39.0,-15.0,1
-255.0,24.0,12.0,-33.0,41.0,-16.0,1
-255.0,25.0,10.0,-31.0,42.0,-17.0,1
-255.0,24.0,12.0,-31.0,42.0,-18.0,1
-257.0,23.0,11.0,-32.0,44.0,-18.0,1
-258.0,27.0,12.0,-33.0,44.0,-20.0,1
-256.0,24.0,12.0,-34.0,44.0,-20.0,1
-255.0,27.0,8.0,-32.0,47.0,-20.0,1
-256.0,24.0,9.0,-32.0,46.0,-21.0,1
-257.0,23.0,9.0,-30.0,46.0,-22.0,1
-260.0,23.0,10.0,-31.0,48.0,-22.0,1
-258.0,24.0,9.0,-33.0,50.0,-22.0,1
-256.0,23.0,9.0,-33.0,52.0,-22.0,1
-256.0,22.0,8.0,-34.0,52.0,-24.0,1
-258.0,23.0,10.0,-33.0,52.0,-22.0,1
-254.0,22.0,9.0,-35.0,52.0,-21.0,1
-255.0,23.0,11.0,-35.0,52.0,-21.0,1
-257.0,24.0,7.0,-35.0,51.0,-20.0,1
-256.0,21.0,7.0,-35.0,51.0,-20.0,1
-256.0,22.0,9.0,-35.0,51.0,-19.0,1
-260.0,23.0,11.0,-35.0,50.0,-19.0,1
-253.0,20.0,10.0,-34.0,48.0,-19.0,1
-261.0,27.0,9.0,-33.0,48.0,-20.0,1
-256.0,23.0,8.0,-31.0,49.0,-20.0,1
-256.0,20.0,11.0,-31.0,49.0,-21.0,1
-259.0,22.0,8.0,-31.0,48.0,-20.0,1
-254.0,20.0,8.0,-30.0,46.0,-21.0,1
-257.0,18.0,7.0,-29.0,44.0,-20.0,1
-258.0,22.0,9.0,-28.0,44.0,-19.0,1
-258.0,24.0,7.0,-27.0,43.0,-18.0,1
-253.0,20.0,8.0,-28.0,41.0,-16.0,1
-256.0,23.0,5.0,-28.0,38.0,-16.0,1
-263.0,18.0,13.0,-29.0,35.0,-15.0,1
-257.0,22.0,7.0,-31.0,32.0,-14.0,1
-256.0,24.0,7.0,-30.0,29.0,-13.0,1
-255.0,24.0,9.0,-30.0,25.0,-12.0,1
-257.0,26.0,8.0,-32.0,22.0,-11.0,1
-255.0,22.0,11.0,-33.0,21.0,-10.0,1
-254.0,22.0,4.0,-34.0,17.0,-8.0,1
-257.0,25.0,7.0,-35.0,16.0,-8.0,1
-260.0,21.0,7.0,-38.0,15.0,-5.0,1
-257.0,23.0,9.0,-37.0,15.0,-5.0,1
-258.0,24.0,11.0,-38.0,16.0,-5.0,1
-262.0,22.0,4.0,-40.0,18.0,-5.0,1
-258.0,22.0,8.0,-39.0,20.0,-5.0,1
-258.0,23.0,8.0,-39.0,19.0,-3.0,1
-259.0,21.0,9.0,-38.0,20.0,-2.0,1
-259.0,20.0,8.0,-40.0,19.0,-2.0,1
-257.0,21.0,9.0,-39.0,21.0,-1.0,1
-257.0,24.0,9.0,-37.0,20.0,-2.0,1
-256.0,23.0,8.0,-38.0,20.0,0.0,1
-258.0,22.0,8.0,-37.0,20.0,0.0,1
-259.0,21.0,8.0,-38.0,18.0,2.0,1
-251.0,25.0,2.0,-38.0,16.0,3.0,1
-255.0,17.0,8.0,-39.0,14.0,4.0,1
-256.0,22.0,9.0,-42.0,14.0,3.0,1
-256.0,21.0,8.0,-41.0,14.0,5.0,1
-256.0,24.0,9.0,-42.0,13.0,5.0,1
-254.0,20.0,9.0,-41.0,13.0,7.0,1
-258.0,23.0,10.0,-41.0,13.0,6.0,1
-257.0,23.0,10.0,-40.0,12.0,5.0,1
-259.0,26.0,10.0,-41.0,12.0,5.0,1
-255.0,21.0,10.0,-40.0,11.0,5.0,1
-259.0,23.0,4.0,-39.0,12.0,5.0,1
-255.0,24.0,13.0,-37.0,10.0,5.0,1
-256.0,25.0,9.0,-38.0,11.0,6.0,1
-254.0,22.0,8.0,-38.0,9.0,6.0,1
-257.0,24.0,8.0,-38.0,9.0,4.0,1
-258.0,23.0,9.0,-36.0,7.0,5.0,1
-258.0,23.0,6.0,-37.0,7.0,5.0,1
-257.0,22.0,10.0,-36.0,7.0,4.0,1
-259.0,24.0,12.0,-38.0,8.0,3.0,1
-259.0,22.0,11.0,-37.0,9.0,2.0,1
-256.0,24.0,11.0,-37.0,10.0,1.0,1
-256.0,19.0,9.0,-38.0,11.0,1.0,1
-255.0,17.0,12.0,-41.0,13.0,0.0,1
-256.0,23.0,5.0,-40.0,14.0,-1.0,1
-256.0,23.0,8.0,-42.0,16.0,-1.0,1
-259.0,23.0,8.0,-43.0,17.0,-2.0,1
-259.0,24.0,10.0,-45.0,16.0,-1.0,1
-257.0,27.0,10.0,-45.0,18.0,-3.0,1
-257.0,24.0,10.0,-47.0,18.0,-5.0,1
-257.0,25.0,8.0,-47.0,19.0,-3.0,1
-259.0,26.0,7.0,-49.0,17.0,-4.0,1
-255.0,21.0,8.0,-48.0,16.0,-3.0,1
-252.0,33.0,5.0,-47.0,14.0,-2.0,1
-257.0,22.0,9.0,-47.0,12.0,-1.0,1
-254.0,23.0,8.0,-46.0,10.0,-1.0,1
-257.0,21.0,8.0,-46.0,9.0,-2.0,1
-255.0,23.0,7.0,-44.0,7.0,0.0,1
-258.0,25.0,9.0,-45.0,6.0,0.0,1
-255.0,23.0,8.0,-46.0,3.0,1.0,1
-253.0,22.0,11.0,-46.0,1.0,2.0,1
-258.0,25.0,8.0,-49.0,1.0,3.0,1
-257.0,22.0,11.0,-52.0,-1.0,4.0,1
-257.0,24.0,9.0,-53.0,-2.0,3.0,1
-261.0,20.0,8.0,-55.0,-3.0,4.0,1
-255.0,24.0,10.0,-58.0,-2.0,2.0,1
-256.0,24.0,8.0,-62.0,-1.0,4.0,1
-259.0,25.0,9.0,-64.0,0.0,3.0,1
-257.0,23.0,9.0,-66.0,-1.0,3.0,1
-256.0,24.0,8.0,-66.0,0.0,2.0,1
-258.0,24.0,10.0,-67.0,0.0,0.0,1
-259.0,24.0,6.0,-66.0,2.0,1.0,1
-258.0,25.0,8.0,-66.0,4.0,-1.0,1
-257.0,18.0,9.0,-66.0,5.0,1.0,1
-259.0,20.0,9.0,-65.0,5.0,-1.0,1
-255.0,27.0,8.0,-64.0,7.0,1.0,1
-259.0,24.0,9.0,-63.0,6.0,0.0,1
-257.0,24.0,11.0,-61.0,10.0,0.0,1
-257.0,21.0,8.0,-60.0,12.0,0.0,1
-255.0,23.0,11.0,-61.0,13.0,0.0,1
-258.0,23.0,9.0,-60.0,13.0,2.0,1
-257.0,21.0,7.0,-60.0,12.0,2.0,1
-258.0,25.0,11.0,-60.0,13.0,4.0,1
-257.0,22.0,10.0,-59.0,13.0,4.0,1
-257.0,23.0,12.0,-59.0,15.0,4.0,1
-262.0,16.0,14.0,-60.0,14.0,4.0,1
-256.0,23.0,10.0,-60.0,14.0,3.0,1
-256.0,21.0,9.0,-60.0,13.0,2.0,1
-256.0,25.0,9.0,-59.0,13.0,2.0,1
-259.0,25.0,9.0,-59.0,13.0,3.0,1
-256.0,23.0,9.0,-60.0,13.0,4.0,1
-253.0,24.0,10.0,-58.0,12.0,3.0,1
-256.0,24.0,11.0,-58.0,13.0,3.0,1
-256.0,23.0,11.0,-56.0,12.0,2.0,1
-258.0,22.0,9.0,-55.0,12.0,2.0,1
-256.0,21.0,9.0,-54.0,13.0,2.0,1
-256.0,22.0,9.0,-55.0,12.0,1.0,1
-257.0,25.0,9.0,-56.0,13.0,1.0,1
-256.0,23.0,9.0,-56.0,15.0,0.0,1
-259.0,24.0,11.0,-56.0,16.0,-1.0,1
-257.0,24.0,8.0,-55.0,17.0,-2.0,1
-256.0,23.0,11.0,-55.0,17.0,-1.0,1
-256.0,23.0,9.0,-55.0,18.0,-1.0,1
-256.0,21.0,9.0,-54.0,19.0,-2.0,1
-257.0,23.0,9.0,-52.0,18.0,-1.0,1
-257.0,24.0,8.0,-51.0,17.0,-3.0,1
-257.0,24.0,9.0,-50.0,18.0,-3.0,1
-259.0,20.0,8.0,-50.0,19.0,-4.0,1
-254.0,22.0,8.0,-50.0,18.0,-3.0,1
-257.0,24.0,7.0,-49.0,19.0,-1.0,1
-256.0,22.0,8.0,-48.0,19.0,-3.0,1
-258.0,22.0,9.0,-50.0,20.0,-1.0,1
-255.0,20.0,9.0,-51.0,18.0,1.0,1
-257.0,23.0,11.0,-50.0,17.0,1.0,1
-258.0,25.0,7.0,-50.0,17.0,0.0,1
-257.0,24.0,9.0,-52.0,18.0,1.0,1
-257.0,23.0,10.0,-52.0,17.0,1.0,1
-258.0,23.0,-2.0,-52.0,17.0,0.0,1
-258.0,24.0,9.0,-52.0,18.0,-1.0,1
-257.0,25.0,9.0,-52.0,17.0,-2.0,1
-256.0,23.0,8.0,-54.0,18.0,1.0,1
-254.0,21.0,10.0,-53.0,15.0,0.0,1
-258.0,26.0,10.0,-52.0,17.0,0.0,1
-260.0,25.0,10.0,-50.0,17.0,0.0,1
-259.0,24.0,10.0,-49.0,17.0,-1.0,1
-260.0,23.0,10.0,-50.0,17.0,-1.0,1
-257.0,24.0,13.0,-49.0,16.0,-1.0,1
-253.0,23.0,7.0,-49.0,16.0,-1.0,1
-254.0,28.0,25.0,-51.0,16.0,-1.0,1
-258.0,19.0,6.0,-49.0,15.0,-2.0,1
-258.0,23.0,8.0,-49.0,15.0,-1.0,1
-257.0,24.0,8.0,-49.0,14.0,-1.0,1
-256.0,22.0,7.0,-48.0,13.0,0.0,1
-256.0,23.0,9.0,-50.0,10.0,1.0,1
-259.0,22.0,6.0,-51.0,9.0,2.0,1
-259.0,24.0,11.0,-52.0,7.0,3.0,1
-258.0,24.0,9.0,-53.0,5.0,3.0,1
-255.0,21.0,9.0,-53.0,1.0,4.0,1
-253.0,25.0,9.0,-53.0,-1.0,7.0,1
-259.0,15.0,12.0,-54.0,-4.0,6.0,1
-259.0,26.0,8.0,-55.0,-6.0,7.0,1
-257.0,23.0,8.0,-57.0,-7.0,10.0,1
-255.0,26.0,8.0,-57.0,-8.0,9.0,1
-257.0,22.0,11.0,-57.0,-7.0,9.0,1
-254.0,24.0,10.0,-55.0,-6.0,8.0,1
-257.0,21.0,13.0,-57.0,-6.0,9.0,1
-259.0,21.0,11.0,-57.0,-6.0,7.0,1
-258.0,16.0,11.0,-57.0,-7.0,6.0,1
-256.0,23.0,11.0,-59.0,-4.0,6.0,1
-259.0,29.0,8.0,-59.0,-3.0,6.0,1
-258.0,22.0,9.0,-60.0,-2.0,6.0,1
-258.0,23.0,11.0,-60.0,-2.0,7.0,1
-256.0,20.0,8.0,-61.0,-1.0,6.0,1
-256.0,23.0,8.0,-58.0,1.0,8.0,1
-259.0,23.0,11.0,-58.0,1.0,8.0,1
-255.0,22.0,12.0,-56.0,1.0,8.0,1
-256.0,26.0,13.0,-57.0,3.0,8.0,1
-256.0,28.0,9.0,-55.0,3.0,8.0,1
-256.0,24.0,12.0,-54.0,5.0,7.0,1
-257.0,24.0,9.0,-52.0,6.0,7.0,1
-254.0,29.0,9.0,-50.0,6.0,8.0,1
-258.0,25.0,9.0,-49.0,9.0,6.0,1
-256.0,25.0,11.0,-49.0,8.0,7.0,1
-256.0,26.0,12.0,-48.0,10.0,6.0,1
-258.0,24.0,9.0,-49.0,9.0,5.0,1
-258.0,25.0,11.0,-47.0,8.0,3.0,1
-255.0,23.0,9.0,-46.0,9.0,3.0,1
-256.0,23.0,13.0,-46.0,8.0,3.0,1
-256.0,24.0,12.0,-45.0,5.0,4.0,1
-255.0,25.0,13.0,-46.0,5.0,4.0,1
-253.0,22.0,7.0,-46.0,5.0,3.0,1
-260.0,15.0,10.0,-47.0,5.0,2.0,1
-258.0,23.0,10.0,-48.0,4.0,2.0,1
-255.0,25.0,12.0,-47.0,4.0,2.0,1
-256.0,26.0,11.0,-47.0,4.0,3.0,1
-255.0,27.0,9.0,-45.0,4.0,2.0,1
-255.0,24.0,9.0,-47.0,5.0,1.0,1
-257.0,24.0,8.0,-48.0,6.0,1.0,1
-257.0,24.0,11.0,-49.0,6.0,0.0,1
-259.0,25.0,10.0,-51.0,7.0,1.0,1
-256.0,23.0,13.0,-51.0,8.0,0.0,1
-255.0,17.0,13.0,-55.0,10.0,3.0,1
-256.0,26.0,9.0,-54.0,10.0,2.0,1
-255.0,25.0,8.0,-53.0,11.0,2.0,1
-257.0,24.0,14.0,-56.0,11.0,3.0,1
-255.0,26.0,11.0,-56.0,11.0,2.0,1
-258.0,25.0,10.0,-56.0,11.0,3.0,1
-255.0,21.0,10.0,-57.0,11.0,2.0,1
-257.0,22.0,9.0,-58.0,12.0,3.0,1
-256.0,24.0,6.0,-60.0,10.0,4.0,1
-259.0,24.0,9.0,-61.0,9.0,5.0,1
-257.0,27.0,9.0,-60.0,9.0,5.0,1
-254.0,20.0,-2.0,-58.0,8.0,5.0,1
-255.0,20.0,7.0,-59.0,8.0,4.0,1
-256.0,25.0,8.0,-61.0,8.0,3.0,1
-256.0,24.0,8.0,-59.0,7.0,5.0,1
-256.0,21.0,8.0,-59.0,7.0,5.0,1
-259.0,24.0,10.0,-60.0,7.0,7.0,1
-258.0,25.0,11.0,-59.0,6.0,8.0,1
-256.0,27.0,10.0,-60.0,4.0,8.0,1
-256.0,24.0,12.0,-61.0,4.0,8.0,1
-256.0,22.0,13.0,-62.0,3.0,9.0,1
-256.0,22.0,10.0,-62.0,2.0,10.0,1
-260.0,27.0,7.0,-64.0,0.0,10.0,1
-255.0,24.0,10.0,-66.0,-2.0,11.0,1
-257.0,22.0,8.0,-68.0,-6.0,12.0,1
-257.0,24.0,11.0,-66.0,-7.0,12.0,1
-256.0,24.0,6.0,-67.0,-10.0,13.0,1
-256.0,25.0,8.0,-67.0,-14.0,15.0,1
-257.0,24.0,14.0,-65.0,-16.0,14.0,1
-260.0,25.0,8.0,-64.0,-17.0,16.0,1
-256.0,26.0,11.0,-61.0,-19.0,16.0,1
-254.0,28.0,11.0,-59.0,-19.0,17.0,1
-259.0,29.0,10.0,-59.0,-19.0,16.0,1
-255.0,24.0,13.0,-58.0,-21.0,18.0,1
-256.0,26.0,11.0,-58.0,-18.0,17.0,1
-254.0,27.0,12.0,-59.0,-18.0,16.0,1
-256.0,25.0,12.0,-59.0,-17.0,14.0,1
-255.0,25.0,12.0,-58.0,-14.0,14.0,1
-257.0,24.0,8.0,-61.0,-13.0,12.0,1
-254.0,25.0,9.0,-63.0,-12.0,12.0,1
-256.0,24.0,12.0,-64.0,-9.0,12.0,1
-256.0,24.0,11.0,-66.0,-7.0,11.0,1
-254.0,27.0,14.0,-65.0,-5.0,9.0,1
-260.0,26.0,9.0,-68.0,-3.0,7.0,1
-257.0,27.0,14.0,-68.0,-1.0,8.0,1
-257.0,25.0,11.0,-68.0,1.0,8.0,1
-256.0,23.0,11.0,-69.0,2.0,6.0,1
-257.0,27.0,14.0,-69.0,4.0,6.0,1
-255.0,25.0,10.0,-69.0,6.0,5.0,1
-255.0,25.0,12.0,-67.0,7.0,5.0,1
-255.0,26.0,14.0,-66.0,8.0,5.0,1
-254.0,22.0,10.0,-65.0,8.0,5.0,1
-256.0,23.0,15.0,-64.0,8.0,4.0,1
-256.0,28.0,11.0,-63.0,8.0,5.0,1
-251.0,20.0,14.0,-61.0,9.0,5.0,1
-257.0,25.0,13.0,-60.0,10.0,6.0,1
-256.0,24.0,12.0,-61.0,9.0,6.0,1
-254.0,24.0,16.0,-60.0,10.0,6.0,1
-255.0,26.0,12.0,-58.0,11.0,4.0,1
-254.0,27.0,12.0,-58.0,10.0,2.0,1
-254.0,24.0,10.0,-58.0,11.0,1.0,1
-255.0,25.0,12.0,-58.0,12.0,2.0,1
-257.0,29.0,8.0,-58.0,13.0,1.0,1
-256.0,24.0,11.0,-57.0,12.0,2.0,1
-260.0,28.0,17.0,-57.0,14.0,1.0,1
-256.0,25.0,11.0,-58.0,15.0,1.0,1
-258.0,25.0,14.0,-58.0,16.0,2.0,1
-254.0,25.0,12.0,-58.0,17.0,1.0,1
-255.0,24.0,11.0,-57.0,17.0,0.0,1
-255.0,25.0,12.0,-57.0,19.0,-2.0,1
-256.0,26.0,10.0,-56.0,19.0,0.0,1
-257.0,25.0,10.0,-55.0,18.0,0.0,1
-258.0,25.0,11.0,-55.0,18.0,1.0,1
-257.0,23.0,12.0,-52.0,18.0,0.0,1
-253.0,25.0,14.0,-52.0,15.0,0.0,1
-250.0,26.0,13.0,-52.0,14.0,3.0,1
-259.0,25.0,9.0,-50.0,12.0,3.0,1
-257.0,24.0,10.0,-50.0,10.0,1.0,1
-255.0,25.0,10.0,-50.0,8.0,2.0,1
-257.0,21.0,10.0,-50.0,4.0,3.0,1
-258.0,24.0,12.0,-49.0,-1.0,5.0,1
-257.0,24.0,10.0,-49.0,-1.0,4.0,1
-257.0,21.0,11.0,-48.0,-3.0,4.0,1
-255.0,25.0,13.0,-48.0,-4.0,4.0,1
-257.0,23.0,11.0,-49.0,-5.0,5.0,1
-260.0,24.0,9.0,-49.0,-6.0,7.0,1
-256.0,24.0,12.0,-51.0,-7.0,5.0,1
-257.0,24.0,11.0,-52.0,-5.0,5.0,1
-255.0,28.0,14.0,-53.0,-5.0,6.0,1
-257.0,25.0,10.0,-54.0,-4.0,5.0,1
-255.0,26.0,13.0,-57.0,-3.0,5.0,1
-255.0,26.0,12.0,-61.0,-3.0,4.0,1
-254.0,24.0,12.0,-64.0,-4.0,6.0,1
-256.0,24.0,9.0,-62.0,-3.0,6.0,1
-260.0,26.0,13.0,-62.0,-3.0,6.0,1
-256.0,23.0,10.0,-61.0,-3.0,7.0,1
-254.0,19.0,12.0,-63.0,-1.0,7.0,1
-254.0,25.0,12.0,-61.0,0.0,8.0,1
-254.0,25.0,9.0,-63.0,-1.0,8.0,1
-254.0,26.0,9.0,-63.0,-1.0,8.0,1
-257.0,26.0,11.0,-64.0,-3.0,8.0,1
-254.0,26.0,9.0,-64.0,-4.0,10.0,1
-254.0,25.0,11.0,-64.0,-4.0,9.0,1
-257.0,27.0,10.0,-62.0,-6.0,9.0,1
-255.0,25.0,13.0,-63.0,-7.0,10.0,1
-256.0,25.0,15.0,-63.0,-9.0,9.0,1
-253.0,24.0,14.0,-64.0,-9.0,11.0,1
-257.0,23.0,13.0,-62.0,-9.0,12.0,1
-257.0,24.0,12.0,-61.0,-9.0,9.0,1
-257.0,25.0,10.0,-59.0,-9.0,8.0,1
-255.0,27.0,12.0,-60.0,-9.0,9.0,1
-257.0,26.0,12.0,-59.0,-10.0,11.0,1
-255.0,27.0,12.0,-60.0,-10.0,11.0,1
-259.0,25.0,15.0,-60.0,-11.0,10.0,1
-257.0,27.0,12.0,-59.0,-10.0,11.0,1
-257.0,26.0,12.0,-60.0,-11.0,9.0,1
-255.0,27.0,14.0,-61.0,-12.0,9.0,1
-253.0,26.0,10.0,-60.0,-11.0,9.0,1
-263.0,30.0,14.0,-61.0,-10.0,8.0,1
-255.0,24.0,12.0,-60.0,-11.0,10.0,1
-255.0,26.0,15.0,-60.0,-9.0,10.0,1
-254.0,29.0,11.0,-59.0,-9.0,10.0,1
-253.0,26.0,12.0,-60.0,-9.0,9.0,1
-253.0,26.0,13.0,-61.0,-8.0,7.0,1
-258.0,29.0,16.0,-63.0,-7.0,6.0,1
-255.0,25.0,17.0,-61.0,-4.0,6.0,1
-258.0,25.0,15.0,-61.0,-3.0,6.0,1
-256.0,26.0,12.0,-61.0,-1.0,5.0,1
-261.0,25.0,11.0,-60.0,1.0,3.0,1
-255.0,23.0,10.0,-59.0,1.0,3.0,1
-255.0,26.0,12.0,-57.0,1.0,4.0,1
-256.0,25.0,10.0,-58.0,2.0,4.0,1
-256.0,28.0,12.0,-56.0,3.0,4.0,1
-253.0,27.0,13.0,-54.0,2.0,5.0,1
-254.0,26.0,12.0,-52.0,2.0,3.0,1
-256.0,26.0,14.0,-51.0,2.0,4.0,1
-256.0,24.0,10.0,-49.0,2.0,4.0,1
-256.0,25.0,15.0,-46.0,1.0,4.0,1
-257.0,26.0,14.0,-45.0,0.0,5.0,1
-251.0,23.0,10.0,-42.0,0.0,6.0,1
-255.0,27.0,14.0,-42.0,0.0,5.0,1
-256.0,28.0,15.0,-41.0,0.0,5.0,1
-255.0,29.0,11.0,-40.0,-2.0,6.0,1
-255.0,25.0,13.0,-38.0,-2.0,6.0,1
-257.0,27.0,16.0,-39.0,0.0,5.0,1
-255.0,28.0,14.0,-41.0,4.0,4.0,1
-251.0,25.0,16.0,-43.0,7.0,4.0,1
-257.0,26.0,13.0,-46.0,9.0,3.0,1
-252.0,24.0,17.0,-47.0,12.0,1.0,1
-255.0,26.0,12.0,-51.0,15.0,-1.0,1
-255.0,23.0,22.0,-54.0,20.0,-1.0,1
-259.0,25.0,17.0,-55.0,23.0,-3.0,1
-252.0,26.0,17.0,-55.0,24.0,-4.0,1
-254.0,24.0,14.0,-56.0,27.0,-4.0,1
-254.0,24.0,15.0,-56.0,30.0,-4.0,1
-254.0,23.0,14.0,-57.0,32.0,-6.0,1
-257.0,27.0,18.0,-55.0,34.0,-5.0,1
-253.0,25.0,12.0,-54.0,34.0,-5.0,1
-255.0,25.0,13.0,-53.0,34.0,-6.0,1
-255.0,26.0,15.0,-51.0,34.0,-6.0,1
-255.0,22.0,16.0,-52.0,34.0,-6.0,1
-256.0,27.0,13.0,-51.0,33.0,-7.0,1
-253.0,27.0,12.0,-50.0,31.0,-5.0,1
-258.0,27.0,9.0,-50.0,31.0,-6.0,1
-255.0,25.0,11.0,-48.0,29.0,-6.0,1
-257.0,26.0,16.0,-48.0,28.0,-5.0,1
-259.0,29.0,12.0,-47.0,26.0,-5.0,1
-257.0,23.0,12.0,-45.0,27.0,-4.0,1
-256.0,27.0,15.0,-43.0,24.0,-5.0,1
-257.0,28.0,13.0,-43.0,25.0,-5.0,1
-254.0,24.0,13.0,-43.0,25.0,-4.0,1
-251.0,29.0,13.0,-41.0,26.0,-4.0,1
-256.0,29.0,14.0,-39.0,26.0,-4.0,1
-256.0,23.0,11.0,-38.0,27.0,-5.0,1
-257.0,27.0,11.0,-37.0,24.0,-6.0,1
-256.0,25.0,16.0,-38.0,22.0,-3.0,1
-255.0,28.0,12.0,-39.0,20.0,-3.0,1
-256.0,26.0,11.0,-42.0,19.0,-2.0,1
-255.0,29.0,10.0,-46.0,16.0,1.0,1
-253.0,22.0,13.0,-46.0,12.0,2.0,1
-258.0,27.0,13.0,-45.0,10.0,5.0,1
-255.0,25.0,14.0,-44.0,7.0,6.0,1
-257.0,25.0,15.0,-45.0,4.0,7.0,1
-256.0,24.0,14.0,-46.0,-1.0,8.0,1
-259.0,26.0,15.0,-43.0,-3.0,9.0,1
-257.0,28.0,11.0,-40.0,-7.0,12.0,1
-254.0,26.0,12.0,-42.0,-10.0,12.0,1
-254.0,26.0,11.0,-42.0,-12.0,10.0,1
-257.0,26.0,10.0,-42.0,-10.0,10.0,1
-258.0,31.0,14.0,-43.0,-6.0,10.0,1
-256.0,28.0,13.0,-45.0,-6.0,9.0,1
-256.0,29.0,20.0,-46.0,0.0,6.0,1
-253.0,23.0,16.0,-45.0,5.0,5.0,1
-252.0,30.0,16.0,-49.0,9.0,2.0,1
-257.0,23.0,10.0,-50.0,14.0,0.0,1
-252.0,25.0,11.0,-52.0,17.0,0.0,1
-258.0,26.0,24.0,-53.0,19.0,-2.0,1
-253.0,22.0,16.0,-52.0,22.0,-3.0,1
-256.0,24.0,14.0,-52.0,23.0,-3.0,1
-259.0,28.0,16.0,-50.0,22.0,-3.0,1
-259.0,24.0,21.0,-51.0,20.0,-3.0,1
-247.0,27.0,15.0,-49.0,20.0,-3.0,1
-252.0,23.0,15.0,-49.0,19.0,-2.0,1
-249.0,27.0,14.0,-48.0,18.0,-2.0,1
-252.0,22.0,11.0,-45.0,16.0,-1.0,1
-256.0,27.0,10.0,-45.0,14.0,-1.0,1
-256.0,19.0,13.0,-45.0,14.0,0.0,1
-253.0,25.0,32.0,-44.0,12.0,0.0,1
-257.0,29.0,12.0,-44.0,11.0,1.0,1
-261.0,21.0,12.0,-45.0,12.0,0.0,1
-251.0,24.0,12.0,-47.0,11.0,1.0,1
-254.0,24.0,16.0,-46.0,11.0,1.0,1
-249.0,42.0,14.0,-47.0,11.0,1.0,1
-246.0,28.0,19.0,-47.0,10.0,0.0,1
-253.0,33.0,13.0,-48.0,13.0,1.0,1
-264.0,25.0,-2.0,-48.0,13.0,1.0,1
-257.0,25.0,10.0,-48.0,14.0,0.0,1
-247.0,28.0,6.0,-48.0,15.0,0.0,1
-260.0,25.0,18.0,-47.0,16.0,0.0,1
-260.0,26.0,17.0,-48.0,15.0,-1.0,1
-255.0,29.0,13.0,-49.0,13.0,1.0,1
-254.0,20.0,19.0,-49.0,12.0,0.0,1
-257.0,25.0,13.0,-48.0,12.0,0.0,1
-256.0,25.0,15.0,-46.0,11.0,0.0,1
-258.0,28.0,13.0,-45.0,10.0,1.0,1
-255.0,24.0,13.0,-46.0,10.0,3.0,1
-256.0,26.0,11.0,-44.0,9.0,1.0,1
-255.0,26.0,14.0,-43.0,7.0,0.0,1
-259.0,28.0,16.0,-42.0,8.0,0.0,1
-255.0,24.0,16.0,-41.0,8.0,0.0,1
-253.0,26.0,14.0,-41.0,8.0,-2.0,1
-254.0,23.0,15.0,-41.0,10.0,-1.0,1
-258.0,28.0,12.0,-41.0,11.0,-1.0,1
-256.0,30.0,13.0,-41.0,10.0,-2.0,1
-257.0,31.0,14.0,-42.0,11.0,-3.0,1
-256.0,27.0,12.0,-41.0,13.0,-4.0,1
-264.0,28.0,9.0,-42.0,13.0,-4.0,1
-257.0,29.0,14.0,-43.0,14.0,-4.0,1
-256.0,24.0,14.0,-43.0,15.0,-4.0,1
-256.0,28.0,12.0,-42.0,15.0,-5.0,1
-253.0,21.0,13.0,-42.0,17.0,-5.0,1
-256.0,21.0,15.0,-43.0,18.0,-6.0,1
-252.0,26.0,17.0,-41.0,19.0,-7.0,1
-255.0,28.0,12.0,-39.0,20.0,-7.0,1
-255.0,25.0,14.0,-37.0,22.0,-8.0,1
-253.0,26.0,11.0,-35.0,24.0,-10.0,1
-255.0,29.0,12.0,-34.0,26.0,-10.0,1
-257.0,26.0,14.0,-32.0,26.0,-10.0,1
-258.0,29.0,14.0,-32.0,26.0,-11.0,1
-256.0,30.0,17.0,-31.0,28.0,-12.0,1
-256.0,29.0,11.0,-32.0,29.0,-14.0,1
-253.0,25.0,16.0,-33.0,28.0,-14.0,1
-254.0,24.0,14.0,-32.0,28.0,-15.0,1
-256.0,27.0,10.0,-32.0,27.0,-14.0,1
-254.0,27.0,15.0,-33.0,27.0,-14.0,1
-255.0,27.0,16.0,-33.0,29.0,-14.0,1
-254.0,26.0,13.0,-34.0,29.0,-15.0,1
-257.0,29.0,13.0,-34.0,30.0,-15.0,1
-254.0,25.0,13.0,-34.0,29.0,-16.0,1
-256.0,24.0,15.0,-32.0,30.0,-17.0,1
-254.0,28.0,15.0,-31.0,30.0,-17.0,1
-255.0,27.0,16.0,-29.0,28.0,-18.0,1
-255.0,27.0,13.0,-30.0,29.0,-19.0,1
-252.0,26.0,13.0,-27.0,28.0,-17.0,1
-254.0,28.0,15.0,-27.0,27.0,-16.0,1
-257.0,26.0,12.0,-26.0,27.0,-18.0,1
-255.0,28.0,11.0,-26.0,25.0,-18.0,1
-256.0,28.0,16.0,-25.0,25.0,-20.0,1
-257.0,26.0,12.0,-26.0,26.0,-20.0,1
-258.0,31.0,12.0,-24.0,27.0,-23.0,1
-259.0,27.0,18.0,-22.0,27.0,-25.0,1
-254.0,25.0,15.0,-20.0,29.0,-26.0,1
-257.0,24.0,13.0,-19.0,30.0,-28.0,1
-256.0,26.0,14.0,-18.0,32.0,-30.0,1
-258.0,26.0,12.0,-18.0,34.0,-31.0,1
-254.0,25.0,14.0,-20.0,36.0,-31.0,1
-256.0,26.0,13.0,-20.0,37.0,-33.0,1
-255.0,25.0,12.0,-22.0,40.0,-33.0,1
-257.0,23.0,15.0,-24.0,41.0,-31.0,1
-255.0,26.0,15.0,-25.0,43.0,-32.0,1
-252.0,24.0,12.0,-25.0,43.0,-30.0,1
-256.0,24.0,11.0,-25.0,43.0,-30.0,1
-254.0,24.0,11.0,-25.0,43.0,-29.0,1
-257.0,24.0,12.0,-25.0,43.0,-27.0,1
-255.0,23.0,13.0,-22.0,43.0,-25.0,1
-255.0,24.0,11.0,-23.0,40.0,-23.0,1
-255.0,25.0,16.0,-22.0,38.0,-24.0,1
-255.0,26.0,10.0,-22.0,37.0,-23.0,1
-255.0,24.0,15.0,-21.0,35.0,-22.0,1
-256.0,28.0,13.0,-23.0,33.0,-22.0,1
-255.0,24.0,12.0,-22.0,34.0,-20.0,1
-258.0,30.0,13.0,-22.0,33.0,-19.0,1
-258.0,25.0,13.0,-24.0,33.0,-19.0,1
-253.0,24.0,13.0,-23.0,33.0,-22.0,1
-256.0,25.0,8.0,-25.0,32.0,-21.0,1
-255.0,24.0,12.0,-23.0,31.0,-21.0,1
-255.0,29.0,13.0,-25.0,32.0,-20.0,1
-255.0,27.0,12.0,-28.0,34.0,-21.0,1
-255.0,26.0,13.0,-29.0,33.0,-20.0,1
-254.0,25.0,11.0,-28.0,33.0,-20.0,1
-255.0,25.0,10.0,-27.0,33.0,-20.0,1
-256.0,23.0,11.0,-28.0,34.0,-21.0,1
-253.0,25.0,13.0,-27.0,33.0,-22.0,1
-257.0,27.0,14.0,-27.0,33.0,-21.0,1
-255.0,27.0,13.0,-27.0,32.0,-21.0,1
-255.0,25.0,15.0,-27.0,33.0,-21.0,1
-257.0,27.0,9.0,-26.0,33.0,-20.0,1
-256.0,29.0,11.0,-28.0,34.0,-21.0,1
-257.0,25.0,10.0,-30.0,34.0,-22.0,1
-257.0,24.0,11.0,-30.0,35.0,-22.0,1
-257.0,22.0,11.0,-31.0,36.0,-22.0,1
-255.0,24.0,12.0,-31.0,35.0,-21.0,1
-255.0,25.0,11.0,-32.0,36.0,-21.0,1
-256.0,24.0,12.0,-33.0,36.0,-20.0,1
-253.0,20.0,10.0,-30.0,36.0,-20.0,1
-258.0,25.0,9.0,-30.0,37.0,-19.0,1
-256.0,24.0,11.0,-26.0,36.0,-20.0,1
-256.0,23.0,10.0,-26.0,37.0,-20.0,1
-255.0,22.0,12.0,-24.0,36.0,-20.0,1
-256.0,25.0,12.0,-22.0,36.0,-21.0,1
-250.0,27.0,8.0,-21.0,37.0,-18.0,1
-259.0,27.0,11.0,-20.0,34.0,-18.0,1
-257.0,25.0,10.0,-18.0,33.0,-16.0,1
-257.0,24.0,11.0,-19.0,32.0,-16.0,1
-256.0,24.0,11.0,-19.0,32.0,-16.0,1
-258.0,23.0,11.0,-20.0,30.0,-16.0,1
-255.0,23.0,13.0,-19.0,29.0,-15.0,1
-258.0,21.0,8.0,-18.0,29.0,-14.0,1
-258.0,27.0,11.0,-20.0,29.0,-18.0,1
-254.0,23.0,11.0,-20.0,29.0,-18.0,1
-259.0,25.0,12.0,-20.0,30.0,-18.0,1
-252.0,26.0,15.0,-21.0,30.0,-20.0,1
-256.0,26.0,14.0,-20.0,31.0,-19.0,1
-255.0,23.0,11.0,-19.0,32.0,-22.0,1
-254.0,24.0,16.0,-18.0,34.0,-21.0,1
-259.0,25.0,11.0,-17.0,34.0,-21.0,1
-256.0,27.0,14.0,-18.0,35.0,-21.0,1
-256.0,24.0,12.0,-18.0,35.0,-20.0,1
-253.0,26.0,11.0,-19.0,35.0,-20.0,1
-258.0,25.0,15.0,-21.0,34.0,-19.0,1
-257.0,22.0,11.0,-20.0,35.0,-21.0,1
-259.0,28.0,12.0,-21.0,34.0,-19.0,1
-256.0,25.0,11.0,-23.0,35.0,-20.0,1
-255.0,23.0,10.0,-22.0,35.0,-20.0,1
-256.0,23.0,12.0,-22.0,37.0,-18.0,1
-255.0,24.0,9.0,-22.0,36.0,-17.0,1
-256.0,25.0,12.0,-24.0,37.0,-18.0,1
-258.0,24.0,9.0,-24.0,37.0,-18.0,1
-255.0,26.0,10.0,-23.0,38.0,-20.0,1
-258.0,27.0,10.0,-21.0,40.0,-20.0,1
-256.0,23.0,12.0,-23.0,41.0,-21.0,1
-257.0,25.0,10.0,-22.0,42.0,-21.0,1
-258.0,23.0,8.0,-21.0,43.0,-22.0,1
-255.0,20.0,9.0,-20.0,43.0,-22.0,1
-258.0,24.0,12.0,-20.0,42.0,-22.0,1
-256.0,24.0,12.0,-21.0,41.0,-22.0,1
-257.0,22.0,10.0,-19.0,40.0,-20.0,1
-257.0,27.0,9.0,-19.0,38.0,-20.0,1
-255.0,24.0,12.0,-21.0,36.0,-18.0,1
-257.0,26.0,8.0,-21.0,35.0,-18.0,1
-257.0,23.0,9.0,-22.0,32.0,-17.0,1
-252.0,28.0,9.0,-23.0,32.0,-17.0,1
-251.0,24.0,14.0,-25.0,30.0,-15.0,1
-257.0,27.0,12.0,-25.0,28.0,-15.0,1
-255.0,24.0,7.0,-25.0,25.0,-15.0,1
-255.0,24.0,12.0,-25.0,24.0,-16.0,1
-256.0,24.0,10.0,-27.0,24.0,-17.0,1
-257.0,23.0,9.0,-26.0,26.0,-16.0,1
-258.0,22.0,12.0,-28.0,29.0,-18.0,1
-254.0,22.0,13.0,-29.0,31.0,-19.0,1
-254.0,23.0,12.0,-28.0,32.0,-19.0,1
-255.0,22.0,10.0,-28.0,32.0,-18.0,1
-256.0,23.0,15.0,-31.0,33.0,-18.0,1
-257.0,27.0,12.0,-31.0,35.0,-17.0,1
-256.0,24.0,12.0,-31.0,37.0,-16.0,1
-258.0,23.0,11.0,-32.0,40.0,-17.0,1
-254.0,23.0,8.0,-32.0,40.0,-15.0,1
-255.0,24.0,9.0,-32.0,39.0,-15.0,1
-252.0,22.0,10.0,-30.0,39.0,-13.0,1
-256.0,22.0,8.0,-30.0,38.0,-13.0,1
-256.0,24.0,12.0,-31.0,37.0,-12.0,1
-259.0,26.0,11.0,-30.0,37.0,-14.0,1
-257.0,24.0,14.0,-28.0,37.0,-12.0,1
-258.0,24.0,10.0,-25.0,36.0,-11.0,1
-253.0,24.0,11.0,-23.0,37.0,-12.0,1
-257.0,26.0,10.0,-23.0,38.0,-13.0,1
-258.0,23.0,10.0,-20.0,39.0,-13.0,1
-259.0,27.0,10.0,-22.0,41.0,-14.0,1
-256.0,28.0,10.0,-20.0,44.0,-13.0,1
-253.0,24.0,9.0,-19.0,44.0,-14.0,1
