ax,ay,az,gx,gy,gz,label
1.0,-239.0,-65.0,39.0,16.0,-2.0,1
4.0,-243.0,-60.0,38.0,15.0,-1.0,1
6.0,-242.0,-64.0,37.0,17.0,-1.0,1
4.0,-242.0,-59.0,37.0,15.0,-2.0,1
6.0,-239.0,-63.0,38.0,14.0,-2.0,1
4.0,-247.0,-67.0,37.0,14.0,-4.0,1
5.0,-243.0,-60.0,37.0,14.0,-1.0,1
7.0,-243.0,-65.0,38.0,14.0,-4.0,1
3.0,-245.0,-58.0,38.0,13.0,-2.0,1
3.0,-240.0,-64.0,38.0,14.0,-3.0,1
5.0,-243.0,-61.0,39.0,12.0,-3.0,1
4.0,-243.0,-61.0,39.0,13.0,-2.0,1
4.0,-244.0,-67.0,38.0,13.0,-2.0,1
6.0,-244.0,-65.0,41.0,14.0,0.0,1
6.0,-240.0,-64.0,41.0,13.0,-2.0,1
-1.0,-248.0,-64.0,40.0,14.0,0.0,1
7.0,-244.0,-64.0,41.0,17.0,0.0,1
5.0,-241.0,-63.0,42.0,17.0,1.0,1
1.0,-242.0,-63.0,41.0,19.0,0.0,1
3.0,-240.0,-64.0,41.0,17.0,1.0,1
2.0,-242.0,-63.0,42.0,18.0,1.0,1
3.0,-245.0,-63.0,42.0,18.0,0.0,1
2.0,-242.0,-63.0,44.0,17.0,-1.0,1
5.0,-242.0,-60.0,44.0,16.0,-3.0,1
5.0,-241.0,-63.0,47.0,17.0,-3.0,1
3.0,-243.0,-60.0,46.0,16.0,-3.0,1
1.0,-238.0,-62.0,49.0,15.0,-5.0,1
3.0,-244.0,-62.0,50.0,15.0,-6.0,1
2.0,-242.0,-63.0,52.0,15.0,-7.0,1
1.0,-244.0,-61.0,55.0,13.0,-7.0,1
4.0,-239.0,-62.0,56.0,13.0,-7.0,1
5.0,-244.0,-59.0,59.0,14.0,-10.0,1
2.0,-244.0,-65.0,60.0,13.0,-9.0,1
1.0,-241.0,-60.0,64.0,13.0,-9.0,1
3.0,-243.0,-61.0,65.0,13.0,-8.0,1
3.0,-243.0,-62.0,66.0,16.0,-9.0,1
0.0,-244.0,-64.0,68.0,15.0,-7.0,1
10.0,-248.0,-63.0,70.0,15.0,-7.0,1
4.0,-242.0,-63.0,71.0,15.0,-7.0,1
3.0,-241.0,-66.0,73.0,16.0,-8.0,1
0.0,-241.0,-61.0,75.0,15.0,-9.0,1
1.0,-243.0,-62.0,76.0,15.0,-8.0,1
3.0,-242.0,-62.0,78.0,15.0,-7.0,1
5.0,-243.0,-66.0,78.0,16.0,-8.0,1
1.0,-244.0,-63.0,80.0,15.0,-9.0,1
2.0,-246.0,-65.0,79.0,14.0,-9.0,1
3.0,-243.0,-64.0,78.0,13.0,-11.0,1
1.0,-243.0,-64.0,77.0,13.0,-11.0,1
4.0,-243.0,-66.0,76.0,14.0,-10.0,1
1.0,-239.0,-62.0,73.0,13.0,-11.0,1
2.0,-240.0,-63.0,72.0,13.0,-12.0,1
5.0,-242.0,-63.0,72.0,14.0,-12.0,1
1.0,-244.0,-59.0,73.0,12.0,-12.0,1
3.0,-242.0,-63.0,72.0,13.0,-15.0,1
3.0,-243.0,-61.0,71.0,11.0,-16.0,1
4.0,-241.0,-60.0,69.0,14.0,-14.0,1
2.0,-239.0,-61.0,69.0,13.0,-12.0,1
6.0,-242.0,-61.0,69.0,13.0,-14.0,1
6.0,-245.0,-64.0,68.0,12.0,-15.0,1
1.0,-238.0,-58.0,69.0,12.0,-14.0,1
4.0,-243.0,-59.0,71.0,13.0,-14.0,1
4.0,-239.0,-65.0,72.0,11.0,-15.0,1
5.0,-242.0,-63.0,72.0,11.0,-15.0,1
3.0,-243.0,-60.0,73.0,11.0,-15.0,1
4.0,-243.0,-61.0,73.0,9.0,-14.0,1
5.0,-247.0,-60.0,74.0,9.0,-15.0,1
7.0,-245.0,-65.0,74.0,9.0,-12.0,1
4.0,-244.0,-62.0,77.0,9.0,-11.0,1
3.0,-243.0,-60.0,77.0,9.0,-11.0,1
3.0,-240.0,-59.0,78.0,8.0,-12.0,1
1.0,-244.0,-62.0,78.0,9.0,-12.0,1
3.0,-244.0,-60.0,78.0,10.0,-11.0,1
5.0,-244.0,-59.0,79.0,11.0,-11.0,1
5.0,-243.0,-58.0,77.0,12.0,-10.0,1
5.0,-243.0,-57.0,77.0,13.0,-10.0,1
4.0,-242.0,-58.0,76.0,12.0,-11.0,1
5.0,-242.0,-63.0,77.0,12.0,-11.0,1
7.0,-242.0,-60.0,78.0,13.0,-12.0,1
5.0,-243.0,-58.0,82.0,13.0,-12.0,1
5.0,-243.0,-59.0,85.0,12.0,-11.0,1
6.0,-244.0,-60.0,89.0,10.0,-11.0,1
3.0,-245.0,-64.0,94.0,11.0,-10.0,1
4.0,-244.0,-61.0,98.0,12.0,-10.0,1
5.0,-241.0,-61.0,101.0,12.0,-9.0,1
5.0,-247.0,-61.0,103.0,12.0,-10.0,1
2.0,-242.0,-63.0,106.0,11.0,-8.0,1
5.0,-243.0,-60.0,106.0,11.0,-8.0,1
1.0,-241.0,-59.0,106.0,10.0,-7.0,1
4.0,-244.0,-58.0,106.0,9.0,-8.0,1
5.0,-246.0,-59.0,105.0,10.0,-9.0,1
4.0,-243.0,-59.0,105.0,11.0,-11.0,1
7.0,-244.0,-59.0,104.0,11.0,-9.0,1
2.0,-245.0,-65.0,105.0,12.0,-11.0,1
5.0,-245.0,-59.0,102.0,13.0,-12.0,1
7.0,-244.0,-57.0,102.0,13.0,-12.0,1
6.0,-242.0,-57.0,103.0,13.0,-11.0,1
8.0,-244.0,-59.0,106.0,13.0,-11.0,1
3.0,-243.0,-63.0,110.0,12.0,-11.0,1
4.0,-243.0,-56.0,116.0,13.0,-11.0,1
8.0,-243.0,-58.0,119.0,15.0,-10.0,1
5.0,-241.0,-56.0,121.0,17.0,-8.0,1
3.0,-240.0,-57.0,122.0,17.0,-8.0,1
4.0,-240.0,-57.0,122.0,18.0,-7.0,1
3.0,-243.0,-67.0,121.0,17.0,-8.0,1
6.0,-244.0,-61.0,119.0,18.0,-7.0,1
3.0,-243.0,-57.0,116.0,16.0,-8.0,1
5.0,-243.0,-54.0,115.0,17.0,-9.0,1
3.0,-243.0,-59.0,110.0,17.0,-11.0,1
7.0,-243.0,-55.0,106.0,17.0,-13.0,1
1.0,-242.0,-58.0,103.0,16.0,-13.0,1
5.0,-244.0,-56.0,98.0,16.0,-13.0,1
3.0,-243.0,-61.0,93.0,15.0,-13.0,1
3.0,-242.0,-55.0,90.0,15.0,-14.0,1
5.0,-243.0,-58.0,88.0,13.0,-14.0,1
3.0,-244.0,-56.0,88.0,12.0,-15.0,1
2.0,-241.0,-54.0,86.0,13.0,-13.0,1
3.0,-244.0,-56.0,85.0,14.0,-12.0,1
3.0,-243.0,-57.0,85.0,14.0,-10.0,1
4.0,-242.0,-56.0,85.0,15.0,-8.0,1
3.0,-244.0,-53.0,84.0,15.0,-8.0,1
4.0,-242.0,-53.0,82.0,16.0,-6.0,1
4.0,-246.0,-60.0,82.0,15.0,-7.0,1
4.0,-245.0,-57.0,79.0,15.0,-6.0,1
6.0,-244.0,-57.0,80.0,15.0,-6.0,1
5.0,-246.0,-58.0,79.0,15.0,-7.0,1
4.0,-244.0,-56.0,78.0,14.0,-6.0,1
3.0,-243.0,-54.0,78.0,13.0,-5.0,1
5.0,-241.0,-57.0,76.0,12.0,-4.0,1
4.0,-242.0,-52.0,73.0,11.0,-6.0,1
3.0,-243.0,-55.0,72.0,12.0,-7.0,1
2.0,-244.0,-56.0,69.0,12.0,-7.0,1
8.0,-242.0,-57.0,64.0,12.0,-7.0,1
3.0,-241.0,-56.0,61.0,13.0,-6.0,1
2.0,-242.0,-55.0,59.0,13.0,-8.0,1
1.0,-236.0,-59.0,55.0,13.0,-8.0,1
-2.0,-240.0,-54.0,52.0,13.0,-8.0,1
3.0,-244.0,-53.0,51.0,13.0,-6.0,1
2.0,-242.0,-57.0,49.0,11.0,-6.0,1
4.0,-245.0,-57.0,50.0,12.0,-8.0,1
4.0,-244.0,-58.0,51.0,12.0,-11.0,1
3.0,-242.0,-56.0,50.0,11.0,-9.0,1
4.0,-244.0,-57.0,50.0,12.0,-9.0,1
5.0,-242.0,-56.0,49.0,11.0,-11.0,1
2.0,-247.0,-55.0,50.0,11.0,-9.0,1
3.0,-244.0,-59.0,50.0,11.0,-10.0,1
2.0,-239.0,-58.0,50.0,11.0,-12.0,1
8.0,-244.0,-54.0,51.0,11.0,-12.0,1
4.0,-245.0,-56.0,50.0,11.0,-13.0,1
4.0,-246.0,-57.0,51.0,10.0,-13.0,1
2.0,-242.0,-56.0,52.0,10.0,-12.0,1
1.0,-245.0,-55.0,54.0,10.0,-12.0,1
1.0,-244.0,-55.0,55.0,10.0,-12.0,1
2.0,-244.0,-60.0,58.0,10.0,-11.0,1
3.0,-245.0,-52.0,59.0,11.0,-10.0,1
3.0,-245.0,-59.0,60.0,11.0,-10.0,1
4.0,-244.0,-57.0,62.0,11.0,-9.0,1
2.0,-244.0,-54.0,64.0,11.0,-10.0,1
4.0,-242.0,-55.0,63.0,11.0,-10.0,1
8.0,-246.0,-55.0,66.0,11.0,-9.0,1
3.0,-245.0,-54.0,67.0,11.0,-8.0,1
4.0,-245.0,-56.0,67.0,11.0,-10.0,1
3.0,-243.0,-58.0,68.0,10.0,-10.0,1
6.0,-242.0,-56.0,69.0,11.0,-9.0,1
3.0,-244.0,-55.0,70.0,11.0,-11.0,1
3.0,-243.0,-57.0,71.0,11.0,-10.0,1
3.0,-241.0,-55.0,74.0,10.0,-13.0,1
3.0,-244.0,-54.0,74.0,10.0,-12.0,1
4.0,-243.0,-58.0,75.0,11.0,-11.0,1
6.0,-246.0,-62.0,76.0,11.0,-11.0,1
3.0,-245.0,-53.0,80.0,11.0,-12.0,1
3.0,-245.0,-57.0,82.0,11.0,-11.0,1
3.0,-246.0,-55.0,86.0,12.0,-11.0,1
5.0,-245.0,-56.0,89.0,12.0,-9.0,1
3.0,-248.0,-54.0,92.0,14.0,-9.0,1
5.0,-247.0,-55.0,94.0,15.0,-8.0,1
0.0,-246.0,-57.0,97.0,15.0,-7.0,1
2.0,-245.0,-56.0,99.0,16.0,-7.0,1
4.0,-243.0,-53.0,100.0,16.0,-7.0,1
7.0,-243.0,-56.0,102.0,16.0,-9.0,1
1.0,-242.0,-64.0,103.0,16.0,-10.0,1
7.0,-245.0,-57.0,105.0,15.0,-9.0,1
3.0,-242.0,-55.0,105.0,15.0,-11.0,1
5.0,-240.0,-56.0,103.0,14.0,-11.0,1
6.0,-245.0,-56.0,101.0,13.0,-11.0,1
6.0,-243.0,-55.0,97.0,14.0,-12.0,1
5.0,-242.0,-54.0,93.0,11.0,-13.0,1
4.0,-244.0,-54.0,89.0,11.0,-13.0,1
3.0,-239.0,-55.0,85.0,11.0,-14.0,1
4.0,-244.0,-55.0,81.0,12.0,-13.0,1
2.0,-239.0,-57.0,78.0,10.0,-12.0,1
4.0,-241.0,-59.0,75.0,11.0,-14.0,1
7.0,-244.0,-55.0,72.0,10.0,-14.0,1
6.0,-244.0,-53.0,70.0,9.0,-13.0,1
6.0,-244.0,-55.0,69.0,11.0,-13.0,1
4.0,-241.0,-55.0,67.0,9.0,-14.0,1
5.0,-244.0,-57.0,66.0,10.0,-14.0,1
4.0,-245.0,-54.0,65.0,10.0,-13.0,1
4.0,-243.0,-57.0,67.0,10.0,-14.0,1
3.0,-241.0,-56.0,66.0,11.0,-15.0,1
3.0,-245.0,-58.0,66.0,9.0,-15.0,1
2.0,-245.0,-55.0,68.0,9.0,-14.0,1
-1.0,-240.0,-56.0,68.0,9.0,-13.0,1
5.0,-242.0,-56.0,69.0,11.0,-13.0,1
3.0,-244.0,-56.0,71.0,10.0,-15.0,1
3.0,-245.0,-52.0,72.0,10.0,-16.0,1
2.0,-246.0,-52.0,75.0,11.0,-14.0,1
4.0,-245.0,-56.0,78.0,10.0,-14.0,1
3.0,-242.0,-55.0,79.0,12.0,-13.0,1
3.0,-245.0,-56.0,79.0,12.0,-13.0,1
4.0,-245.0,-52.0,80.0,11.0,-13.0,1
4.0,-245.0,-58.0,79.0,12.0,-13.0,1
6.0,-246.0,-53.0,78.0,12.0,-13.0,1
3.0,-240.0,-54.0,79.0,11.0,-12.0,1
4.0,-242.0,-57.0,75.0,11.0,-11.0,1
2.0,-243.0,-56.0,74.0,12.0,-11.0,1
5.0,-244.0,-53.0,70.0,13.0,-10.0,1
5.0,-247.0,-56.0,67.0,13.0,-12.0,1
5.0,-242.0,-57.0,66.0,12.0,-13.0,1
3.0,-244.0,-55.0,64.0,12.0,-12.0,1
3.0,-247.0,-58.0,64.0,12.0,-15.0,1
4.0,-246.0,-53.0,65.0,12.0,-13.0,1
3.0,-243.0,-54.0,68.0,11.0,-14.0,1
-1.0,-249.0,-50.0,70.0,13.0,-14.0,1
5.0,-245.0,-53.0,73.0,12.0,-12.0,1
4.0,-245.0,-56.0,75.0,12.0,-11.0,1
6.0,-243.0,-54.0,73.0,12.0,-10.0,1
5.0,-245.0,-53.0,71.0,12.0,-8.0,1
4.0,-244.0,-54.0,71.0,11.0,-8.0,1
4.0,-243.0,-54.0,69.0,11.0,-7.0,1
5.0,-247.0,-55.0,68.0,11.0,-8.0,1
4.0,-247.0,-55.0,67.0,10.0,-7.0,1
4.0,-245.0,-54.0,67.0,11.0,-8.0,1
3.0,-241.0,-54.0,65.0,11.0,-10.0,1
2.0,-249.0,-57.0,65.0,13.0,-10.0,1
4.0,-248.0,-51.0,66.0,13.0,-11.0,1
3.0,-246.0,-56.0,69.0,12.0,-11.0,1
4.0,-245.0,-51.0,71.0,12.0,-11.0,1
6.0,-244.0,-54.0,74.0,11.0,-10.0,1
6.0,-243.0,-55.0,79.0,12.0,-9.0,1
3.0,-244.0,-53.0,82.0,12.0,-8.0,1
4.0,-241.0,-49.0,84.0,13.0,-7.0,1
2.0,-241.0,-54.0,85.0,12.0,-5.0,1
3.0,-242.0,-49.0,83.0,14.0,-6.0,1
3.0,-243.0,-49.0,82.0,14.0,-6.0,1
1.0,-244.0,-52.0,79.0,15.0,-6.0,1
4.0,-242.0,-51.0,75.0,15.0,-7.0,1
2.0,-242.0,-54.0,73.0,15.0,-6.0,1
3.0,-244.0,-52.0,69.0,15.0,-7.0,1
5.0,-243.0,-49.0,66.0,14.0,-11.0,1
4.0,-244.0,-51.0,61.0,14.0,-12.0,1
5.0,-243.0,-54.0,57.0,14.0,-14.0,1
5.0,-243.0,-49.0,55.0,13.0,-15.0,1
5.0,-241.0,-53.0,53.0,11.0,-13.0,1
3.0,-240.0,-50.0,52.0,10.0,-14.0,1
6.0,-244.0,-57.0,52.0,9.0,-16.0,1
2.0,-247.0,-58.0,54.0,8.0,-15.0,1
5.0,-245.0,-53.0,55.0,9.0,-14.0,1
7.0,-245.0,-49.0,55.0,10.0,-13.0,1
3.0,-243.0,-52.0,57.0,11.0,-12.0,1
7.0,-244.0,-48.0,56.0,11.0,-11.0,1
5.0,-245.0,-54.0,56.0,11.0,-9.0,1
4.0,-245.0,-52.0,57.0,12.0,-9.0,1
5.0,-246.0,-54.0,56.0,11.0,-8.0,1
5.0,-245.0,-57.0,55.0,12.0,-8.0,1
5.0,-246.0,-54.0,55.0,10.0,-6.0,1
3.0,-244.0,-54.0,54.0,11.0,-6.0,1
5.0,-246.0,-47.0,53.0,10.0,-6.0,1
7.0,-245.0,-49.0,52.0,9.0,-8.0,1
4.0,-245.0,-51.0,52.0,9.0,-8.0,1
4.0,-243.0,-53.0,51.0,11.0,-8.0,1
4.0,-242.0,-54.0,47.0,11.0,-7.0,1
5.0,-242.0,-54.0,43.0,11.0,-8.0,1
6.0,-244.0,-54.0,40.0,12.0,-10.0,1
3.0,-241.0,-49.0,38.0,12.0,-13.0,1
3.0,-243.0,-51.0,36.0,13.0,-10.0,1
4.0,-244.0,-53.0,35.0,14.0,-10.0,1
4.0,-246.0,-52.0,33.0,14.0,-11.0,1
1.0,-247.0,-56.0,31.0,12.0,-12.0,1
5.0,-244.0,-55.0,31.0,12.0,-12.0,1
5.0,-245.0,-56.0,33.0,13.0,-12.0,1
0.0,-242.0,-53.0,34.0,15.0,-11.0,1
2.0,-245.0,-50.0,34.0,14.0,-11.0,1
3.0,-244.0,-52.0,35.0,13.0,-11.0,1
5.0,-245.0,-58.0,36.0,12.0,-11.0,1
4.0,-243.0,-54.0,37.0,11.0,-12.0,1
7.0,-242.0,-52.0,37.0,10.0,-14.0,1
2.0,-241.0,-52.0,37.0,10.0,-13.0,1
3.0,-246.0,-52.0,36.0,11.0,-12.0,1
10.0,-239.0,-61.0,36.0,10.0,-12.0,1
2.0,-245.0,-54.0,35.0,11.0,-12.0,1
5.0,-245.0,-51.0,36.0,11.0,-14.0,1
3.0,-246.0,-54.0,36.0,10.0,-14.0,1
1.0,-245.0,-49.0,36.0,11.0,-12.0,1
4.0,-244.0,-54.0,37.0,10.0,-11.0,1
4.0,-243.0,-52.0,38.0,11.0,-13.0,1
3.0,-243.0,-50.0,38.0,10.0,-12.0,1
6.0,-242.0,-49.0,37.0,12.0,-12.0,1
4.0,-242.0,-50.0,36.0,13.0,-12.0,1
7.0,-244.0,-50.0,34.0,12.0,-14.0,1
4.0,-241.0,-56.0,32.0,11.0,-15.0,1
4.0,-246.0,-55.0,30.0,11.0,-15.0,1
3.0,-243.0,-53.0,30.0,12.0,-14.0,1
6.0,-245.0,-52.0,26.0,12.0,-14.0,1
6.0,-246.0,-50.0,25.0,11.0,-13.0,1
5.0,-246.0,-51.0,24.0,12.0,-16.0,1
6.0,-242.0,-57.0,21.0,10.0,-14.0,1
5.0,-245.0,-49.0,19.0,10.0,-12.0,1
3.0,-241.0,-52.0,17.0,11.0,-12.0,1
4.0,-244.0,-55.0,16.0,9.0,-12.0,1
6.0,-245.0,-48.0,16.0,9.0,-14.0,1
3.0,-243.0,-52.0,16.0,9.0,-14.0,1
4.0,-246.0,-51.0,16.0,9.0,-12.0,1
3.0,-245.0,-52.0,17.0,8.0,-13.0,1
4.0,-246.0,-50.0,16.0,8.0,-13.0,1
4.0,-244.0,-52.0,17.0,8.0,-12.0,1
2.0,-244.0,-53.0,18.0,8.0,-11.0,1
5.0,-248.0,-51.0,19.0,9.0,-12.0,1
5.0,-248.0,-53.0,20.0,9.0,-13.0,1
2.0,-245.0,-54.0,21.0,8.0,-12.0,1
6.0,-243.0,-55.0,20.0,8.0,-12.0,1
2.0,-246.0,-52.0,21.0,8.0,-12.0,1
5.0,-244.0,-54.0,21.0,9.0,-13.0,1
7.0,-243.0,-54.0,23.0,9.0,-14.0,1
8.0,-244.0,-56.0,22.0,8.0,-15.0,1
6.0,-246.0,-56.0,22.0,8.0,-15.0,1
3.0,-245.0,-54.0,19.0,7.0,-16.0,1
5.0,-247.0,-54.0,18.0,6.0,-14.0,1
2.0,-245.0,-55.0,18.0,6.0,-15.0,1
5.0,-243.0,-55.0,16.0,6.0,-16.0,1
2.0,-239.0,-51.0,15.0,5.0,-15.0,1
3.0,-243.0,-53.0,14.0,5.0,-16.0,1
3.0,-247.0,-53.0,12.0,5.0,-16.0,1
6.0,-245.0,-57.0,10.0,6.0,-17.0,1
5.0,-245.0,-55.0,10.0,5.0,-16.0,1
7.0,-248.0,-55.0,8.0,5.0,-15.0,1
7.0,-246.0,-53.0,8.0,4.0,-12.0,1
4.0,-241.0,-54.0,8.0,5.0,-12.0,1
5.0,-245.0,-53.0,10.0,6.0,-11.0,1
1.0,-242.0,-55.0,13.0,9.0,-12.0,1
6.0,-244.0,-53.0,17.0,9.0,-12.0,1
5.0,-242.0,-56.0,20.0,9.0,-12.0,1
2.0,-245.0,-58.0,24.0,10.0,-11.0,1
6.0,-243.0,-58.0,29.0,12.0,-12.0,1
5.0,-246.0,-56.0,32.0,12.0,-10.0,1
4.0,-242.0,-56.0,34.0,13.0,-10.0,1
7.0,-244.0,-55.0,35.0,14.0,-11.0,1
4.0,-243.0,-56.0,38.0,13.0,-11.0,1
5.0,-241.0,-58.0,38.0,11.0,-11.0,1
4.0,-245.0,-54.0,41.0,12.0,-10.0,1
4.0,-244.0,-54.0,42.0,12.0,-9.0,1
6.0,-245.0,-56.0,44.0,11.0,-9.0,1
5.0,-246.0,-59.0,46.0,10.0,-10.0,1
4.0,-244.0,-54.0,47.0,11.0,-10.0,1
3.0,-243.0,-53.0,47.0,10.0,-10.0,1
4.0,-245.0,-54.0,49.0,10.0,-12.0,1
3.0,-242.0,-56.0,50.0,10.0,-12.0,1
5.0,-244.0,-56.0,49.0,10.0,-12.0,1
5.0,-240.0,-56.0,47.0,10.0,-12.0,1
5.0,-243.0,-52.0,47.0,10.0,-13.0,1
5.0,-242.0,-54.0,45.0,10.0,-12.0,1
3.0,-241.0,-56.0,42.0,10.0,-13.0,1
6.0,-243.0,-54.0,40.0,12.0,-10.0,1
4.0,-244.0,-56.0,36.0,11.0,-11.0,1
3.0,-243.0,-53.0,35.0,12.0,-11.0,1
5.0,-248.0,-55.0,34.0,12.0,-11.0,1
17.0,-247.0,-58.0,35.0,11.0,-14.0,1
5.0,-246.0,-55.0,37.0,9.0,-14.0,1
3.0,-242.0,-57.0,40.0,10.0,-13.0,1
3.0,-245.0,-55.0,45.0,10.0,-13.0,1
4.0,-243.0,-58.0,50.0,11.0,-12.0,1
5.0,-244.0,-59.0,52.0,11.0,-9.0,1
9.0,-244.0,-55.0,55.0,12.0,-8.0,1
7.0,-241.0,-56.0,56.0,13.0,-6.0,1
8.0,-247.0,-59.0,58.0,12.0,-6.0,1
3.0,-243.0,-56.0,58.0,13.0,-3.0,1
3.0,-247.0,-57.0,57.0,13.0,-2.0,1
6.0,-242.0,-55.0,58.0,11.0,-4.0,1
4.0,-248.0,-55.0,57.0,11.0,-5.0,1
2.0,-243.0,-54.0,57.0,11.0,-9.0,1
7.0,-245.0,-57.0,55.0,13.0,-10.0,1
3.0,-246.0,-55.0,51.0,14.0,-12.0,1
3.0,-244.0,-54.0,50.0,14.0,-14.0,1
6.0,-245.0,-55.0,49.0,14.0,-14.0,1
5.0,-245.0,-56.0,50.0,14.0,-15.0,1
1.0,-245.0,-58.0,52.0,13.0,-15.0,1
5.0,-247.0,-59.0,54.0,12.0,-13.0,1
1.0,-251.0,-52.0,55.0,14.0,-12.0,1
6.0,-246.0,-52.0,57.0,14.0,-14.0,1
3.0,-244.0,-52.0,55.0,14.0,-12.0,1
3.0,-245.0,-56.0,51.0,13.0,-11.0,1
3.0,-246.0,-52.0,48.0,14.0,-11.0,1
4.0,-242.0,-57.0,43.0,14.0,-11.0,1
2.0,-244.0,-51.0,39.0,15.0,-12.0,1
5.0,-246.0,-56.0,33.0,14.0,-11.0,1
1.0,-241.0,-54.0,30.0,13.0,-12.0,1
6.0,-242.0,-56.0,25.0,13.0,-12.0,1
3.0,-240.0,-56.0,19.0,13.0,-12.0,1
10.0,-244.0,-62.0,15.0,11.0,-11.0,1
5.0,-244.0,-52.0,12.0,10.0,-12.0,1
7.0,-245.0,-53.0,9.0,9.0,-13.0,1
8.0,-246.0,-52.0,6.0,10.0,-13.0,1
5.0,-244.0,-51.0,4.0,9.0,-13.0,1
4.0,-245.0,-55.0,5.0,8.0,-11.0,1
4.0,-247.0,-57.0,5.0,9.0,-11.0,1
3.0,-247.0,-57.0,4.0,8.0,-12.0,1
8.0,-248.0,-56.0,4.0,8.0,-10.0,1
5.0,-242.0,-53.0,4.0,7.0,-10.0,1
4.0,-249.0,-51.0,3.0,6.0,-12.0,1
2.0,-240.0,-59.0,2.0,5.0,-10.0,1
4.0,-242.0,-60.0,2.0,5.0,-9.0,1
2.0,-243.0,-56.0,2.0,4.0,-11.0,1
8.0,-246.0,-56.0,2.0,3.0,-10.0,1
6.0,-244.0,-58.0,2.0,4.0,-8.0,1
3.0,-239.0,-59.0,2.0,5.0,-9.0,1
3.0,-246.0,-55.0,2.0,6.0,-9.0,1
3.0,-243.0,-59.0,0.0,6.0,-12.0,1
6.0,-241.0,-58.0,-3.0,6.0,-13.0,1
5.0,-242.0,-55.0,-5.0,7.0,-13.0,1
8.0,-242.0,-55.0,-10.0,7.0,-16.0,1
5.0,-244.0,-57.0,-15.0,8.0,-16.0,1
4.0,-244.0,-57.0,-20.0,9.0,-17.0,1
7.0,-245.0,-57.0,-25.0,9.0,-16.0,1
4.0,-242.0,-57.0,-27.0,9.0,-16.0,1
3.0,-242.0,-56.0,-32.0,8.0,-15.0,1
2.0,-241.0,-55.0,-36.0,6.0,-17.0,1
3.0,-240.0,-57.0,-41.0,5.0,-17.0,1
6.0,-240.0,-59.0,-44.0,3.0,-15.0,1
9.0,-244.0,-58.0,-47.0,3.0,-16.0,1
3.0,-241.0,-61.0,-51.0,2.0,-17.0,1
7.0,-245.0,-61.0,-55.0,2.0,-16.0,1
5.0,-244.0,-59.0,-59.0,0.0,-16.0,1
6.0,-244.0,-59.0,-60.0,-2.0,-15.0,1
5.0,-242.0,-61.0,-63.0,-3.0,-16.0,1
2.0,-244.0,-58.0,-64.0,-2.0,-16.0,1
6.0,-244.0,-57.0,-65.0,-2.0,-15.0,1
5.0,-245.0,-63.0,-66.0,-3.0,-13.0,1
5.0,-244.0,-57.0,-66.0,-3.0,-12.0,1
3.0,-245.0,-58.0,-67.0,-3.0,-15.0,1
7.0,-245.0,-63.0,-66.0,-3.0,-13.0,1
4.0,-240.0,-63.0,-62.0,-3.0,-14.0,1
-1.0,-245.0,-56.0,-58.0,-1.0,-11.0,1
1.0,-246.0,-62.0,-53.0,0.0,-9.0,1
3.0,-243.0,-61.0,-50.0,2.0,-9.0,1
0.0,-244.0,-62.0,-44.0,2.0,-8.0,1
4.0,-245.0,-62.0,-41.0,5.0,-7.0,1
1.0,-245.0,-61.0,-36.0,6.0,-8.0,1
4.0,-245.0,-59.0,-32.0,6.0,-6.0,1
-1.0,-242.0,-59.0,-29.0,7.0,-7.0,1
7.0,-242.0,-65.0,-29.0,7.0,-8.0,1
7.0,-242.0,-61.0,-28.0,9.0,-9.0,1
6.0,-243.0,-65.0,-28.0,10.0,-9.0,1
11.0,-240.0,-66.0,-28.0,9.0,-8.0,1
9.0,-244.0,-60.0,-28.0,8.0,-10.0,1
5.0,-245.0,-62.0,-29.0,8.0,-11.0,1
5.0,-243.0,-62.0,-29.0,8.0,-11.0,1
5.0,-242.0,-60.0,-31.0,5.0,-10.0,1
7.0,-241.0,-62.0,-32.0,5.0,-11.0,1
7.0,-244.0,-59.0,-32.0,4.0,-13.0,1
4.0,-242.0,-59.0,-33.0,3.0,-12.0,1
8.0,-243.0,-62.0,-36.0,2.0,-11.0,1
7.0,-240.0,-62.0,-38.0,1.0,-10.0,1
5.0,-243.0,-62.0,-40.0,-2.0,-9.0,1
4.0,-241.0,-54.0,-44.0,-2.0,-11.0,1
6.0,-245.0,-64.0,-46.0,0.0,-9.0,1
5.0,-243.0,-66.0,-49.0,-3.0,-9.0,1
3.0,-239.0,-60.0,-53.0,-3.0,-9.0,1
4.0,-242.0,-65.0,-57.0,-2.0,-10.0,1
5.0,-242.0,-64.0,-61.0,-1.0,-8.0,1
4.0,-241.0,-61.0,-63.0,0.0,-7.0,1
2.0,-242.0,-62.0,-66.0,2.0,-8.0,1
2.0,-238.0,-65.0,-68.0,3.0,-6.0,1
5.0,-239.0,-61.0,-71.0,6.0,-4.0,1
2.0,-241.0,-62.0,-71.0,9.0,-4.0,1
8.0,-244.0,-67.0,-70.0,10.0,-3.0,1
5.0,-243.0,-67.0,-67.0,13.0,-1.0,1
5.0,-242.0,-66.0,-63.0,16.0,0.0,1
2.0,-242.0,-70.0,-56.0,16.0,-1.0,1
6.0,-245.0,-68.0,-49.0,17.0,0.0,1
5.0,-245.0,-70.0,-39.0,17.0,-1.0,1
6.0,-245.0,-66.0,-30.0,16.0,0.0,1
7.0,-241.0,-68.0,-21.0,15.0,-1.0,1
5.0,-243.0,-67.0,-12.0,16.0,-2.0,1
6.0,-241.0,-69.0,-3.0,13.0,-3.0,1
3.0,-242.0,-70.0,1.0,14.0,-3.0,1
11.0,-248.0,-59.0,5.0,14.0,-3.0,1
6.0,-241.0,-63.0,6.0,11.0,-4.0,1
6.0,-241.0,-70.0,5.0,11.0,-6.0,1
5.0,-239.0,-66.0,6.0,9.0,-2.0,1
6.0,-240.0,-68.0,6.0,9.0,-4.0,1
3.0,-239.0,-61.0,8.0,10.0,-5.0,1
8.0,-243.0,-67.0,10.0,8.0,-5.0,1
7.0,-244.0,-64.0,12.0,8.0,-6.0,1
3.0,-242.0,-62.0,13.0,8.0,-5.0,1
2.0,-241.0,-66.0,12.0,8.0,-3.0,1
4.0,-240.0,-65.0,11.0,7.0,-3.0,1
1.0,-241.0,-69.0,11.0,10.0,-3.0,1
2.0,-240.0,-65.0,9.0,8.0,-2.0,1
4.0,-243.0,-67.0,7.0,10.0,-3.0,1
6.0,-244.0,-63.0,6.0,8.0,-3.0,1
3.0,-243.0,-67.0,5.0,9.0,-3.0,1
4.0,-244.0,-67.0,3.0,9.0,-4.0,1
2.0,-240.0,-66.0,3.0,9.0,-5.0,1
4.0,-243.0,-68.0,6.0,11.0,-5.0,1
4.0,-245.0,-65.0,8.0,9.0,-7.0,1
2.0,-242.0,-66.0,12.0,11.0,-7.0,1
5.0,-239.0,-66.0,19.0,9.0,-8.0,1
6.0,-244.0,-67.0,25.0,11.0,-9.0,1
4.0,-244.0,-68.0,34.0,11.0,-8.0,1
6.0,-248.0,-70.0,38.0,12.0,-5.0,1
5.0,-244.0,-69.0,44.0,13.0,-3.0,1
8.0,-241.0,-67.0,47.0,14.0,-2.0,1
4.0,-239.0,-67.0,50.0,14.0,-1.0,1
5.0,-242.0,-70.0,54.0,13.0,-1.0,1
7.0,-244.0,-67.0,55.0,13.0,-1.0,1
4.0,-241.0,-64.0,56.0,13.0,-2.0,1
3.0,-240.0,-70.0,55.0,14.0,-4.0,1
8.0,-240.0,-65.0,55.0,14.0,-4.0,1
6.0,-240.0,-71.0,54.0,13.0,-6.0,1
8.0,-242.0,-66.0,52.0,13.0,-9.0,1
3.0,-243.0,-65.0,50.0,12.0,-11.0,1
5.0,-238.0,-69.0,46.0,12.0,-11.0,1
5.0,-245.0,-66.0,45.0,11.0,-11.0,1
4.0,-243.0,-64.0,45.0,10.0,-13.0,1
7.0,-241.0,-67.0,45.0,11.0,-12.0,1
2.0,-242.0,-68.0,44.0,11.0,-9.0,1
0.0,-238.0,-71.0,44.0,11.0,-10.0,1
3.0,-240.0,-66.0,44.0,11.0,-9.0,1
2.0,-242.0,-66.0,43.0,11.0,-7.0,1
1.0,-239.0,-70.0,40.0,12.0,-5.0,1
2.0,-237.0,-69.0,39.0,13.0,-7.0,1
5.0,-238.0,-67.0,35.0,13.0,-7.0,1
2.0,-238.0,-67.0,31.0,15.0,-6.0,1
3.0,-239.0,-67.0,29.0,15.0,-4.0,1
5.0,-239.0,-66.0,28.0,15.0,-8.0,1
1.0,-238.0,-67.0,27.0,14.0,-7.0,1
-1.0,-237.0,-68.0,26.0,14.0,-8.0,1
5.0,-243.0,-68.0,25.0,13.0,-9.0,1
6.0,-241.0,-69.0,26.0,14.0,-8.0,1
1.0,-242.0,-61.0,27.0,13.0,-8.0,1
3.0,-239.0,-70.0,29.0,11.0,-9.0,1
4.0,-243.0,-68.0,33.0,9.0,-10.0,1
1.0,-243.0,-70.0,35.0,8.0,-12.0,1
3.0,-241.0,-69.0,38.0,9.0,-13.0,1
3.0,-241.0,-66.0,41.0,8.0,-12.0,1
4.0,-241.0,-69.0,44.0,9.0,-11.0,1
4.0,-241.0,-70.0,48.0,10.0,-10.0,1
4.0,-242.0,-71.0,50.0,9.0,-10.0,1
6.0,-240.0,-69.0,54.0,10.0,-11.0,1
2.0,-239.0,-71.0,55.0,11.0,-12.0,1
-3.0,-244.0,-69.0,57.0,12.0,-10.0,1
1.0,-240.0,-73.0,58.0,11.0,-8.0,1
0.0,-241.0,-70.0,59.0,12.0,-8.0,1
3.0,-239.0,-67.0,59.0,11.0,-8.0,1
3.0,-237.0,-68.0,60.0,11.0,-8.0,1
4.0,-241.0,-68.0,59.0,11.0,-10.0,1
3.0,-240.0,-71.0,59.0,11.0,-11.0,1
5.0,-239.0,-68.0,58.0,13.0,-10.0,1
6.0,-237.0,-68.0,57.0,14.0,-10.0,1
1.0,-241.0,-70.0,56.0,14.0,-10.0,1
3.0,-239.0,-67.0,54.0,14.0,-11.0,1
5.0,-239.0,-69.0,51.0,14.0,-10.0,1
6.0,-239.0,-67.0,49.0,14.0,-10.0,1
4.0,-239.0,-67.0,47.0,14.0,-10.0,1
3.0,-237.0,-70.0,43.0,13.0,-13.0,1
3.0,-243.0,-70.0,42.0,15.0,-11.0,1
6.0,-241.0,-69.0,42.0,14.0,-12.0,1
5.0,-243.0,-70.0,44.0,14.0,-13.0,1
5.0,-242.0,-66.0,45.0,13.0,-14.0,1
5.0,-245.0,-67.0,47.0,14.0,-13.0,1
4.0,-241.0,-71.0,50.0,12.0,-14.0,1
2.0,-236.0,-66.0,51.0,11.0,-13.0,1
5.0,-244.0,-66.0,52.0,10.0,-15.0,1
4.0,-244.0,-69.0,55.0,11.0,-15.0,1
5.0,-242.0,-70.0,56.0,12.0,-14.0,1
5.0,-242.0,-66.0,58.0,10.0,-13.0,1
2.0,-241.0,-70.0,59.0,10.0,-13.0,1
4.0,-242.0,-68.0,60.0,9.0,-12.0,1
3.0,-241.0,-67.0,60.0,11.0,-12.0,1
4.0,-239.0,-66.0,62.0,10.0,-9.0,1
4.0,-239.0,-64.0,60.0,11.0,-9.0,1
3.0,-242.0,-68.0,59.0,10.0,-9.0,1
3.0,-241.0,-65.0,58.0,11.0,-8.0,1
4.0,-248.0,-64.0,58.0,11.0,-8.0,1
4.0,-244.0,-67.0,57.0,11.0,-9.0,1
5.0,-241.0,-69.0,56.0,12.0,-9.0,1
6.0,-242.0,-66.0,55.0,12.0,-9.0,1
5.0,-242.0,-69.0,55.0,14.0,-8.0,1
4.0,-242.0,-64.0,54.0,14.0,-8.0,1
3.0,-239.0,-66.0,56.0,13.0,-8.0,1
2.0,-239.0,-65.0,56.0,13.0,-10.0,1
4.0,-242.0,-68.0,54.0,13.0,-9.0,1
3.0,-240.0,-68.0,57.0,13.0,-9.0,1
5.0,-243.0,-68.0,56.0,14.0,-9.0,1
-1.0,-241.0,-67.0,55.0,13.0,-8.0,1
3.0,-241.0,-65.0,57.0,13.0,-8.0,1
4.0,-243.0,-69.0,56.0,13.0,-7.0,1
2.0,-242.0,-64.0,55.0,14.0,-8.0,1
5.0,-242.0,-68.0,57.0,13.0,-10.0,1
4.0,-242.0,-67.0,57.0,12.0,-8.0,1
9.0,-244.0,-68.0,57.0,12.0,-9.0,1
3.0,-240.0,-64.0,56.0,13.0,-9.0,1
3.0,-239.0,-69.0,56.0,12.0,-9.0,1
5.0,-241.0,-69.0,55.0,12.0,-10.0,1
4.0,-244.0,-71.0,55.0,13.0,-10.0,1
2.0,-242.0,-69.0,54.0,12.0,-10.0,1
3.0,-240.0,-64.0,54.0,13.0,-8.0,1
4.0,-240.0,-70.0,56.0,13.0,-9.0,1
3.0,-239.0,-65.0,55.0,13.0,-9.0,1
7.0,-240.0,-66.0,55.0,14.0,-9.0,1
5.0,-240.0,-68.0,55.0,12.0,-7.0,1
5.0,-241.0,-67.0,56.0,13.0,-7.0,1
5.0,-238.0,-67.0,56.0,11.0,-7.0,1
4.0,-238.0,-67.0,56.0,13.0,-7.0,1
4.0,-244.0,-66.0,57.0,14.0,-7.0,1
5.0,-243.0,-62.0,58.0,13.0,-6.0,1
3.0,-242.0,-66.0,58.0,12.0,-9.0,1
3.0,-243.0,-64.0,57.0,12.0,-7.0,1
4.0,-242.0,-69.0,60.0,12.0,-7.0,1
5.0,-244.0,-65.0,60.0,13.0,-8.0,1
3.0,-243.0,-67.0,61.0,14.0,-8.0,1
6.0,-240.0,-70.0,64.0,13.0,-9.0,1
2.0,-240.0,-69.0,64.0,14.0,-7.0,1
-1.0,-242.0,-69.0,65.0,14.0,-8.0,1
5.0,-241.0,-71.0,65.0,15.0,-6.0,1
4.0,-242.0,-70.0,66.0,14.0,-7.0,1
2.0,-237.0,-71.0,67.0,14.0,-6.0,1
3.0,-241.0,-68.0,65.0,14.0,-7.0,1
0.0,-239.0,-68.0,66.0,14.0,-6.0,1
3.0,-239.0,-65.0,64.0,14.0,-6.0,1
3.0,-242.0,-68.0,63.0,14.0,-7.0,1
5.0,-241.0,-67.0,62.0,14.0,-7.0,1
3.0,-245.0,-69.0,59.0,14.0,-6.0,1
3.0,-243.0,-65.0,57.0,14.0,-9.0,1
1.0,-238.0,-67.0,55.0,13.0,-9.0,1
0.0,-242.0,-69.0,53.0,13.0,-9.0,1
3.0,-241.0,-67.0,53.0,14.0,-10.0,1
-1.0,-243.0,-71.0,56.0,13.0,-10.0,1
0.0,-239.0,-67.0,60.0,13.0,-10.0,1
3.0,-243.0,-71.0,65.0,13.0,-7.0,1
1.0,-243.0,-68.0,70.0,14.0,-8.0,1
6.0,-243.0,-70.0,73.0,14.0,-8.0,1
4.0,-245.0,-64.0,78.0,13.0,-6.0,1
3.0,-244.0,-66.0,81.0,14.0,-5.0,1
3.0,-242.0,-67.0,84.0,14.0,-5.0,1
4.0,-240.0,-68.0,86.0,15.0,-4.0,1
0.0,-238.0,-70.0,88.0,16.0,-6.0,1
3.0,-242.0,-69.0,89.0,15.0,-8.0,1
2.0,-236.0,-68.0,91.0,15.0,-9.0,1
1.0,-241.0,-69.0,92.0,15.0,-9.0,1
4.0,-243.0,-64.0,92.0,15.0,-11.0,1
6.0,-242.0,-67.0,93.0,16.0,-13.0,1
3.0,-240.0,-68.0,93.0,17.0,-14.0,1
5.0,-245.0,-66.0,91.0,16.0,-14.0,1
5.0,-241.0,-69.0,91.0,15.0,-14.0,1
1.0,-241.0,-64.0,92.0,16.0,-13.0,1
3.0,-244.0,-68.0,92.0,16.0,-11.0,1
2.0,-239.0,-67.0,95.0,16.0,-12.0,1
2.0,-242.0,-67.0,95.0,16.0,-10.0,1
0.0,-239.0,-66.0,97.0,16.0,-9.0,1
3.0,-243.0,-63.0,96.0,17.0,-10.0,1
3.0,-242.0,-63.0,96.0,17.0,-11.0,1
4.0,-243.0,-68.0,94.0,17.0,-12.0,1
5.0,-240.0,-63.0,93.0,18.0,-12.0,1
0.0,-239.0,-70.0,91.0,18.0,-14.0,1
3.0,-241.0,-62.0,90.0,18.0,-15.0,1
4.0,-242.0,-64.0,88.0,18.0,-15.0,1
3.0,-241.0,-65.0,87.0,17.0,-15.0,1
2.0,-244.0,-66.0,86.0,19.0,-15.0,1
3.0,-243.0,-66.0,86.0,18.0,-14.0,1
6.0,-243.0,-67.0,86.0,17.0,-12.0,1
7.0,-242.0,-69.0,86.0,17.0,-11.0,1
5.0,-236.0,-66.0,83.0,18.0,-9.0,1
7.0,-242.0,-65.0,82.0,17.0,-4.0,1
4.0,-241.0,-65.0,81.0,17.0,-3.0,1
3.0,-238.0,-63.0,82.0,18.0,2.0,1
6.0,-241.0,-64.0,83.0,19.0,7.0,1
6.0,-241.0,-65.0,83.0,19.0,9.0,1
8.0,-240.0,-63.0,82.0,20.0,10.0,1
4.0,-241.0,-69.0,84.0,18.0,15.0,1
5.0,-240.0,-62.0,85.0,21.0,18.0,1
5.0,-238.0,-69.0,86.0,19.0,20.0,1
7.0,-241.0,-64.0,88.0,19.0,21.0,1
5.0,-240.0,-63.0,90.0,18.0,22.0,1
6.0,-241.0,-64.0,91.0,18.0,22.0,1
5.0,-243.0,-65.0,92.0,15.0,21.0,1
6.0,-242.0,-65.0,92.0,15.0,22.0,1
3.0,-243.0,-66.0,91.0,14.0,21.0,1
6.0,-244.0,-63.0,92.0,12.0,19.0,1
3.0,-239.0,-64.0,89.0,12.0,19.0,1
2.0,-244.0,-69.0,87.0,13.0,20.0,1
4.0,-241.0,-61.0,85.0,13.0,16.0,1
4.0,-251.0,-57.0,82.0,14.0,16.0,1
4.0,-243.0,-63.0,80.0,14.0,15.0,1
2.0,-241.0,-65.0,78.0,15.0,14.0,1
0.0,-240.0,-60.0,74.0,13.0,15.0,1
2.0,-245.0,-66.0,70.0,14.0,14.0,1
3.0,-244.0,-67.0,69.0,15.0,13.0,1
3.0,-241.0,-60.0,68.0,17.0,11.0,1
8.0,-243.0,-63.0,67.0,18.0,10.0,1
8.0,-246.0,-58.0,68.0,17.0,8.0,1
7.0,-241.0,-62.0,69.0,19.0,6.0,1
3.0,-242.0,-57.0,71.0,19.0,6.0,1
3.0,-244.0,-65.0,72.0,20.0,1.0,1
4.0,-245.0,-62.0,74.0,21.0,2.0,1
3.0,-242.0,-62.0,77.0,23.0,0.0,1
2.0,-244.0,-61.0,80.0,24.0,-1.0,1
2.0,-244.0,-64.0,81.0,23.0,-2.0,1
1.0,-243.0,-57.0,85.0,22.0,0.0,1
4.0,-244.0,-64.0,88.0,22.0,-1.0,1
2.0,-243.0,-64.0,92.0,22.0,-2.0,1
2.0,-244.0,-65.0,94.0,22.0,-2.0,1
2.0,-242.0,-55.0,95.0,23.0,-1.0,1
4.0,-241.0,-54.0,96.0,22.0,1.0,1
0.0,-240.0,-53.0,95.0,22.0,1.0,1
3.0,-245.0,-58.0,95.0,20.0,1.0,1
2.0,-244.0,-61.0,95.0,20.0,1.0,1
4.0,-242.0,-63.0,93.0,19.0,2.0,1
4.0,-243.0,-61.0,92.0,20.0,3.0,1
1.0,-241.0,-60.0,92.0,20.0,3.0,1
1.0,-243.0,-62.0,95.0,20.0,3.0,1
3.0,-241.0,-58.0,96.0,18.0,5.0,1
4.0,-244.0,-63.0,99.0,17.0,2.0,1
1.0,-243.0,-62.0,100.0,17.0,2.0,1
0.0,-241.0,-70.0,100.0,16.0,5.0,1
2.0,-243.0,-63.0,101.0,17.0,3.0,1
4.0,-247.0,-66.0,105.0,18.0,3.0,1
1.0,-245.0,-64.0,107.0,18.0,3.0,1
1.0,-245.0,-62.0,111.0,17.0,3.0,1
-1.0,-239.0,-59.0,115.0,17.0,3.0,1
0.0,-242.0,-63.0,119.0,17.0,4.0,1
2.0,-244.0,-63.0,123.0,18.0,2.0,1
5.0,-246.0,-66.0,127.0,16.0,3.0,1
3.0,-244.0,-65.0,131.0,17.0,3.0,1
2.0,-243.0,-61.0,130.0,16.0,2.0,1
0.0,-245.0,-61.0,130.0,16.0,2.0,1
-1.0,-244.0,-63.0,130.0,15.0,0.0,1
0.0,-247.0,-63.0,130.0,16.0,-2.0,1
1.0,-245.0,-62.0,131.0,17.0,-3.0,1
-1.0,-242.0,-66.0,131.0,16.0,-4.0,1
0.0,-242.0,-60.0,131.0,17.0,-4.0,1
0.0,-244.0,-62.0,132.0,17.0,-5.0,1
2.0,-243.0,-65.0,133.0,15.0,-7.0,1
1.0,-241.0,-58.0,132.0,15.0,-8.0,1
6.0,-241.0,-63.0,132.0,15.0,-9.0,1
-2.0,-242.0,-57.0,131.0,15.0,-10.0,1
2.0,-243.0,-62.0,129.0,13.0,-9.0,1
4.0,-242.0,-59.0,125.0,13.0,-9.0,1
3.0,-242.0,-57.0,123.0,13.0,-10.0,1
4.0,-242.0,-61.0,119.0,11.0,-10.0,1
1.0,-241.0,-59.0,116.0,11.0,-8.0,1
2.0,-242.0,-63.0,114.0,12.0,-7.0,1
1.0,-241.0,-62.0,113.0,12.0,-8.0,1
4.0,-244.0,-60.0,110.0,10.0,-7.0,1
0.0,-243.0,-55.0,110.0,12.0,-8.0,1
7.0,-246.0,-55.0,109.0,11.0,-8.0,1
4.0,-244.0,-60.0,109.0,10.0,-7.0,1
4.0,-242.0,-52.0,111.0,9.0,-8.0,1
1.0,-247.0,-56.0,113.0,9.0,-9.0,1
4.0,-247.0,-58.0,117.0,9.0,-8.0,1
3.0,-244.0,-56.0,123.0,9.0,-9.0,1
1.0,-246.0,-61.0,130.0,8.0,-9.0,1
-1.0,-247.0,-61.0,136.0,10.0,-11.0,1
1.0,-248.0,-58.0,142.0,11.0,-13.0,1
-1.0,-249.0,-55.0,149.0,11.0,-15.0,1
0.0,-249.0,-64.0,158.0,12.0,-19.0,1
3.0,-250.0,-57.0,168.0,13.0,-19.0,1
0.0,-252.0,-62.0,182.0,14.0,-21.0,1
-1.0,-255.0,-62.0,197.0,12.0,-21.0,1
2.0,-252.0,-57.0,211.0,14.0,-19.0,1
4.0,-248.0,-59.0,229.0,15.0,-17.0,1
3.0,-249.0,-57.0,246.0,17.0,-15.0,1
8.0,-249.0,-57.0,264.0,19.0,-14.0,1
7.0,-246.0,-53.0,280.0,22.0,-11.0,1
6.0,-244.0,-51.0,296.0,21.0,-9.0,1
5.0,-243.0,-56.0,311.0,22.0,-6.0,1
9.0,-243.0,-56.0,324.0,23.0,-4.0,1
5.0,-249.0,-56.0,340.0,23.0,-3.0,1
9.0,-251.0,-58.0,352.0,26.0,-1.0,1
4.0,-251.0,-55.0,366.0,29.0,1.0,1
7.0,-249.0,-53.0,379.0,32.0,3.0,1
4.0,-249.0,-52.0,398.0,33.0,3.0,1
6.0,-245.0,-55.0,414.0,35.0,2.0,1
4.0,-245.0,-50.0,428.0,36.0,4.0,1
7.0,-249.0,-52.0,440.0,37.0,5.0,1
1.0,-244.0,-53.0,449.0,35.0,6.0,1
3.0,-240.0,-53.0,451.0,34.0,8.0,1
2.0,-242.0,-48.0,448.0,31.0,12.0,1
8.0,-241.0,-50.0,438.0,29.0,10.0,1
7.0,-242.0,-50.0,423.0,25.0,13.0,1
3.0,-234.0,-43.0,403.0,21.0,14.0,1
2.0,-239.0,-43.0,380.0,16.0,14.0,1
3.0,-238.0,-39.0,353.0,11.0,16.0,1
7.0,-239.0,-37.0,326.0,6.0,14.0,1
5.0,-238.0,-39.0,296.0,0.0,13.0,1
4.0,-240.0,-39.0,264.0,-2.0,10.0,1
4.0,-238.0,-40.0,234.0,-5.0,8.0,1
5.0,-245.0,-38.0,207.0,-8.0,5.0,1
2.0,-239.0,-38.0,183.0,-7.0,3.0,1
6.0,-240.0,-38.0,163.0,-8.0,0.0,1
5.0,-241.0,-37.0,148.0,-6.0,-2.0,1
-2.0,-240.0,-40.0,133.0,-6.0,-4.0,1
4.0,-244.0,-42.0,120.0,-3.0,-4.0,1
0.0,-243.0,-44.0,107.0,1.0,-4.0,1
-2.0,-242.0,-44.0,95.0,2.0,-2.0,1
0.0,-244.0,-42.0,87.0,2.0,-1.0,1
2.0,-245.0,-41.0,81.0,5.0,-2.0,1
2.0,-243.0,-46.0,76.0,7.0,-1.0,1
2.0,-247.0,-40.0,70.0,7.0,1.0,1
4.0,-247.0,-44.0,66.0,6.0,1.0,1
2.0,-247.0,-42.0,60.0,5.0,-1.0,1
4.0,-250.0,-42.0,57.0,4.0,-2.0,1
2.0,-247.0,-45.0,52.0,3.0,-3.0,1
-1.0,-245.0,-40.0,48.0,0.0,-4.0,1
0.0,-243.0,-39.0,44.0,-3.0,-5.0,1
1.0,-246.0,-40.0,40.0,-3.0,-7.0,1
0.0,-244.0,-42.0,36.0,-5.0,-6.0,1
1.0,-244.0,-43.0,33.0,-5.0,-6.0,1
1.0,-244.0,-39.0,30.0,-3.0,-8.0,1
0.0,-242.0,-40.0,27.0,-2.0,-9.0,1
-1.0,-247.0,-41.0,26.0,1.0,-9.0,1
4.0,-247.0,-43.0,22.0,4.0,-10.0,1
-3.0,-252.0,-42.0,20.0,7.0,-12.0,1
2.0,-248.0,-42.0,18.0,9.0,-10.0,1
-1.0,-248.0,-38.0,17.0,12.0,-12.0,1
0.0,-250.0,-42.0,16.0,15.0,-13.0,1
0.0,-247.0,-40.0,15.0,17.0,-14.0,1
2.0,-250.0,-44.0,14.0,17.0,-12.0,1
0.0,-247.0,-39.0,12.0,16.0,-11.0,1
0.0,-246.0,-40.0,11.0,17.0,-13.0,1
0.0,-247.0,-40.0,9.0,18.0,-12.0,1
1.0,-250.0,-44.0,8.0,18.0,-15.0,1
2.0,-247.0,-47.0,5.0,17.0,-14.0,1
1.0,-241.0,-38.0,5.0,16.0,-13.0,1
-1.0,-245.0,-42.0,6.0,16.0,-13.0,1
6.0,-247.0,-40.0,7.0,15.0,-11.0,1
1.0,-245.0,-44.0,8.0,14.0,-12.0,1
1.0,-248.0,-39.0,11.0,12.0,-9.0,1
1.0,-247.0,-44.0,12.0,12.0,-8.0,1
2.0,-247.0,-42.0,13.0,10.0,-7.0,1
0.0,-244.0,-44.0,14.0,10.0,-8.0,1
1.0,-244.0,-44.0,16.0,11.0,-8.0,1
-1.0,-243.0,-47.0,15.0,9.0,-7.0,1
1.0,-244.0,-39.0,15.0,10.0,-7.0,1
2.0,-245.0,-43.0,13.0,12.0,-7.0,1
1.0,-245.0,-46.0,12.0,12.0,-6.0,1
1.0,-242.0,-44.0,12.0,13.0,-5.0,1
0.0,-246.0,-43.0,9.0,14.0,-5.0,1
1.0,-245.0,-42.0,8.0,13.0,-5.0,1
2.0,-245.0,-42.0,4.0,12.0,-5.0,1
1.0,-246.0,-39.0,1.0,12.0,-6.0,1
0.0,-244.0,-45.0,-1.0,13.0,-5.0,1
-3.0,-242.0,-45.0,-5.0,12.0,-6.0,1
2.0,-245.0,-41.0,-9.0,11.0,-6.0,1
2.0,-243.0,-45.0,-14.0,12.0,-6.0,1
2.0,-244.0,-44.0,-21.0,12.0,-6.0,1
4.0,-245.0,-45.0,-26.0,12.0,-6.0,1
0.0,-246.0,-41.0,-33.0,12.0,-6.0,1
4.0,-250.0,-42.0,-39.0,13.0,-4.0,1
1.0,-244.0,-40.0,-43.0,12.0,-3.0,1
3.0,-248.0,-41.0,-47.0,12.0,-3.0,1
3.0,-244.0,-43.0,-47.0,12.0,-3.0,1
2.0,-247.0,-39.0,-49.0,13.0,-3.0,1
-1.0,-245.0,-45.0,-49.0,15.0,-2.0,1
-4.0,-243.0,-51.0,-49.0,14.0,-2.0,1
3.0,-246.0,-49.0,-47.0,13.0,1.0,1
2.0,-245.0,-45.0,-44.0,15.0,2.0,1
3.0,-247.0,-48.0,-42.0,15.0,3.0,1
0.0,-247.0,-46.0,-37.0,15.0,2.0,1
2.0,-246.0,-45.0,-33.0,14.0,4.0,1
-1.0,-246.0,-46.0,-30.0,15.0,3.0,1
3.0,-246.0,-48.0,-25.0,14.0,2.0,1
2.0,-246.0,-47.0,-18.0,13.0,0.0,1
1.0,-245.0,-47.0,-13.0,13.0,1.0,1
3.0,-248.0,-46.0,-9.0,13.0,-1.0,1
4.0,-249.0,-46.0,-2.0,13.0,-2.0,1
7.0,-252.0,-49.0,5.0,12.0,-3.0,1
3.0,-247.0,-48.0,10.0,11.0,-2.0,1
3.0,-245.0,-50.0,15.0,13.0,-2.0,1
1.0,-245.0,-49.0,21.0,12.0,-2.0,1
3.0,-245.0,-47.0,26.0,12.0,-4.0,1
4.0,-247.0,-51.0,30.0,11.0,-4.0,1
3.0,-244.0,-50.0,33.0,11.0,-2.0,1
3.0,-245.0,-49.0,35.0,12.0,-2.0,1
4.0,-247.0,-49.0,36.0,12.0,-2.0,1
3.0,-242.0,-48.0,36.0,13.0,-2.0,1
-2.0,-242.0,-47.0,37.0,12.0,-2.0,1
0.0,-244.0,-51.0,36.0,12.0,-4.0,1
2.0,-244.0,-49.0,35.0,13.0,-6.0,1
1.0,-243.0,-52.0,33.0,14.0,-7.0,1
0.0,-243.0,-49.0,32.0,13.0,-8.0,1
0.0,-241.0,-53.0,31.0,14.0,-8.0,1
2.0,-243.0,-47.0,29.0,14.0,-8.0,1
-1.0,-243.0,-50.0,27.0,15.0,-9.0,1
1.0,-247.0,-53.0,25.0,15.0,-9.0,1
-1.0,-246.0,-50.0,25.0,16.0,-10.0,1
2.0,-246.0,-54.0,26.0,15.0,-9.0,1
0.0,-247.0,-51.0,28.0,16.0,-10.0,1
-1.0,-245.0,-54.0,32.0,16.0,-12.0,1
-1.0,-245.0,-51.0,35.0,15.0,-12.0,1
1.0,-246.0,-50.0,39.0,16.0,-10.0,1
1.0,-246.0,-52.0,42.0,15.0,-9.0,1
2.0,-245.0,-47.0,47.0,14.0,-10.0,1
2.0,-245.0,-52.0,49.0,14.0,-11.0,1
1.0,-242.0,-51.0,50.0,15.0,-10.0,1
-2.0,-243.0,-51.0,51.0,14.0,-9.0,1
-2.0,-245.0,-53.0,52.0,14.0,-11.0,1
-1.0,-242.0,-51.0,52.0,13.0,-14.0,1
4.0,-243.0,-44.0,52.0,12.0,-13.0,1
-2.0,-242.0,-49.0,50.0,13.0,-12.0,1
-1.0,-245.0,-48.0,50.0,12.0,-13.0,1
-1.0,-247.0,-48.0,48.0,13.0,-17.0,1
2.0,-245.0,-47.0,48.0,14.0,-17.0,1
4.0,-249.0,-48.0,48.0,14.0,-17.0,1
-2.0,-244.0,-49.0,49.0,15.0,-16.0,1
2.0,-247.0,-45.0,52.0,15.0,-16.0,1
4.0,-249.0,-47.0,55.0,15.0,-14.0,1
2.0,-250.0,-50.0,60.0,14.0,-13.0,1
0.0,-246.0,-53.0,63.0,15.0,-13.0,1
-2.0,-245.0,-50.0,64.0,15.0,-11.0,1
1.0,-244.0,-48.0,64.0,16.0,-11.0,1
-1.0,-240.0,-48.0,62.0,15.0,-10.0,1
0.0,-244.0,-43.0,59.0,18.0,-11.0,1
1.0,-243.0,-45.0,55.0,17.0,-10.0,1
2.0,-246.0,-45.0,51.0,16.0,-11.0,1
2.0,-245.0,-45.0,46.0,15.0,-12.0,1
0.0,-244.0,-46.0,43.0,13.0,-15.0,1
-1.0,-244.0,-39.0,40.0,13.0,-15.0,1
-1.0,-246.0,-44.0,36.0,11.0,-16.0,1
-1.0,-243.0,-49.0,33.0,10.0,-15.0,1
2.0,-242.0,-53.0,30.0,10.0,-18.0,1
2.0,-247.0,-50.0,29.0,11.0,-19.0,1
0.0,-244.0,-42.0,25.0,11.0,-19.0,1
0.0,-246.0,-46.0,24.0,10.0,-20.0,1
1.0,-246.0,-44.0,23.0,11.0,-20.0,1
1.0,-244.0,-46.0,21.0,12.0,-20.0,1
0.0,-247.0,-46.0,21.0,12.0,-19.0,1
1.0,-247.0,-46.0,21.0,15.0,-18.0,1
1.0,-245.0,-47.0,20.0,12.0,-16.0,1
0.0,-248.0,-49.0,20.0,11.0,-16.0,1
4.0,-247.0,-49.0,20.0,12.0,-14.0,1
0.0,-247.0,-50.0,18.0,12.0,-14.0,1
1.0,-245.0,-52.0,18.0,12.0,-14.0,1
1.0,-245.0,-48.0,17.0,10.0,-15.0,1
0.0,-241.0,-46.0,15.0,10.0,-13.0,1
1.0,-246.0,-44.0,15.0,10.0,-12.0,1
1.0,-247.0,-45.0,12.0,10.0,-13.0,1
3.0,-244.0,-49.0,11.0,8.0,-15.0,1
3.0,-246.0,-47.0,8.0,7.0,-14.0,1
-2.0,-240.0,-47.0,6.0,8.0,-14.0,1
0.0,-245.0,-49.0,5.0,7.0,-14.0,1
2.0,-245.0,-51.0,1.0,7.0,-15.0,1
-2.0,-245.0,-48.0,-2.0,9.0,-16.0,1
1.0,-242.0,-51.0,-3.0,8.0,-16.0,1
0.0,-243.0,-52.0,-6.0,9.0,-16.0,1
0.0,-244.0,-50.0,-9.0,9.0,-16.0,1
0.0,-245.0,-50.0,-10.0,9.0,-16.0,1
3.0,-247.0,-50.0,-11.0,7.0,-17.0,1
-1.0,-241.0,-49.0,-10.0,8.0,-17.0,1
-1.0,-245.0,-52.0,-11.0,8.0,-18.0,1
-1.0,-242.0,-49.0,-11.0,8.0,-18.0,1
1.0,-243.0,-52.0,-12.0,6.0,-20.0,1
-2.0,-244.0,-47.0,-13.0,6.0,-20.0,1
-1.0,-246.0,-50.0,-12.0,5.0,-21.0,1
1.0,-248.0,-50.0,-12.0,6.0,-22.0,1
1.0,-247.0,-48.0,-14.0,6.0,-23.0,1
1.0,-246.0,-54.0,-14.0,5.0,-24.0,1
0.0,-243.0,-52.0,-13.0,5.0,-25.0,1
3.0,-244.0,-52.0,-16.0,5.0,-24.0,1
0.0,-244.0,-46.0,-17.0,5.0,-24.0,1
3.0,-245.0,-53.0,-20.0,5.0,-24.0,1
0.0,-246.0,-49.0,-22.0,4.0,-25.0,1
2.0,-239.0,-50.0,-25.0,4.0,-24.0,1
2.0,-244.0,-54.0,-32.0,4.0,-24.0,1
0.0,-240.0,-50.0,-36.0,4.0,-24.0,1
2.0,-244.0,-54.0,-42.0,4.0,-23.0,1
4.0,-243.0,-51.0,-47.0,4.0,-23.0,1
0.0,-243.0,-55.0,-51.0,5.0,-23.0,1
-2.0,-242.0,-50.0,-52.0,5.0,-23.0,1
0.0,-245.0,-52.0,-54.0,5.0,-21.0,1
0.0,-245.0,-55.0,-56.0,4.0,-17.0,1
5.0,-240.0,-50.0,-55.0,3.0,-16.0,1
1.0,-248.0,-52.0,-56.0,4.0,-16.0,1
3.0,-243.0,-61.0,-56.0,2.0,-15.0,1
0.0,-246.0,-54.0,-56.0,2.0,-14.0,1
-2.0,-244.0,-53.0,-56.0,2.0,-14.0,1
2.0,-246.0,-53.0,-55.0,2.0,-15.0,1
6.0,-246.0,-54.0,-52.0,1.0,-18.0,1
2.0,-245.0,-57.0,-51.0,1.0,-18.0,1
4.0,-243.0,-56.0,-46.0,1.0,-19.0,1
3.0,-249.0,-55.0,-43.0,2.0,-21.0,1
-1.0,-242.0,-57.0,-38.0,1.0,-23.0,1
-2.0,-247.0,-57.0,-36.0,-1.0,-25.0,1
2.0,-245.0,-52.0,-33.0,-1.0,-28.0,1
0.0,-241.0,-57.0,-33.0,-2.0,-28.0,1
-1.0,-243.0,-60.0,-31.0,-1.0,-28.0,1
1.0,-243.0,-59.0,-31.0,-3.0,-30.0,1
-2.0,-242.0,-56.0,-31.0,-4.0,-32.0,1
4.0,-246.0,-53.0,-32.0,-6.0,-33.0,1
3.0,-245.0,-54.0,-33.0,-7.0,-32.0,1
1.0,-243.0,-54.0,-32.0,-9.0,-32.0,1
2.0,-246.0,-56.0,-34.0,-9.0,-32.0,1
2.0,-244.0,-52.0,-34.0,-10.0,-31.0,1
0.0,-245.0,-56.0,-34.0,-11.0,-31.0,1
0.0,-247.0,-50.0,-35.0,-13.0,-31.0,1
2.0,-243.0,-52.0,-34.0,-13.0,-30.0,1
-1.0,-245.0,-48.0,-34.0,-14.0,-32.0,1
1.0,-245.0,-55.0,-33.0,-11.0,-32.0,1
-1.0,-241.0,-55.0,-35.0,-12.0,-31.0,1
0.0,-245.0,-54.0,-34.0,-12.0,-31.0,1
1.0,-244.0,-55.0,-34.0,-14.0,-30.0,1
3.0,-241.0,-52.0,-36.0,-15.0,-29.0,1
1.0,-239.0,-54.0,-37.0,-17.0,-30.0,1
0.0,-238.0,-52.0,-40.0,-19.0,-30.0,1
1.0,-241.0,-49.0,-43.0,-21.0,-30.0,1
0.0,-243.0,-56.0,-47.0,-24.0,-29.0,1
4.0,-237.0,-52.0,-53.0,-25.0,-32.0,1
-1.0,-241.0,-56.0,-57.0,-29.0,-33.0,1
-5.0,-241.0,-53.0,-60.0,-31.0,-34.0,1
-1.0,-246.0,-49.0,-63.0,-32.0,-37.0,1
4.0,-238.0,-62.0,-67.0,-36.0,-37.0,1
-5.0,-225.0,-62.0,-68.0,-36.0,-38.0,1
3.0,-233.0,-67.0,-71.0,-39.0,-39.0,1
-3.0,-238.0,-57.0,-75.0,-37.0,-41.0,1
6.0,-242.0,-55.0,-78.0,-38.0,-44.0,1
-3.0,-239.0,-56.0,-81.0,-37.0,-46.0,1
-3.0,-241.0,-63.0,-83.0,-36.0,-50.0,1
-4.0,-245.0,-59.0,-86.0,-36.0,-51.0,1
-1.0,-241.0,-59.0,-86.0,-35.0,-57.0,1
-3.0,-245.0,-68.0,-85.0,-34.0,-61.0,1
2.0,-250.0,-56.0,-87.0,-33.0,-66.0,1
0.0,-245.0,-60.0,-86.0,-33.0,-73.0,1
-3.0,-249.0,-62.0,-87.0,-33.0,-79.0,1
7.0,-247.0,-63.0,-88.0,-33.0,-85.0,1
-1.0,-249.0,-71.0,-90.0,-32.0,-91.0,1
5.0,-240.0,-78.0,-93.0,-32.0,-97.0,1
0.0,-244.0,-64.0,-96.0,-35.0,-103.0,1
6.0,-248.0,-60.0,-99.0,-38.0,-109.0,1
3.0,-237.0,-56.0,-100.0,-41.0,-113.0,1
-1.0,-239.0,-75.0,-102.0,-42.0,-116.0,1
-2.0,-240.0,-61.0,-104.0,-44.0,-116.0,1
1.0,-239.0,-66.0,-106.0,-43.0,-117.0,1
-4.0,-235.0,-77.0,-108.0,-46.0,-118.0,1
4.0,-240.0,-64.0,-111.0,-46.0,-119.0,1
1.0,-229.0,-75.0,-114.0,-46.0,-119.0,1
3.0,-236.0,-70.0,-119.0,-48.0,-119.0,1
3.0,-237.0,-65.0,-127.0,-47.0,-117.0,1
6.0,-242.0,-72.0,-134.0,-47.0,-115.0,1
2.0,-235.0,-67.0,-142.0,-49.0,-116.0,1
6.0,-236.0,-72.0,-152.0,-50.0,-115.0,1
8.0,-241.0,-70.0,-160.0,-50.0,-111.0,1
6.0,-240.0,-75.0,-169.0,-48.0,-105.0,1
10.0,-241.0,-74.0,-177.0,-46.0,-101.0,1
9.0,-240.0,-70.0,-181.0,-46.0,-95.0,1
6.0,-242.0,-70.0,-179.0,-45.0,-92.0,1
9.0,-241.0,-70.0,-173.0,-45.0,-89.0,1
6.0,-240.0,-71.0,-166.0,-45.0,-86.0,1
10.0,-242.0,-67.0,-159.0,-44.0,-81.0,1
8.0,-235.0,-70.0,-151.0,-43.0,-78.0,1
5.0,-240.0,-73.0,-144.0,-39.0,-75.0,1
5.0,-237.0,-63.0,-139.0,-36.0,-71.0,1
6.0,-240.0,-66.0,-139.0,-34.0,-66.0,1
8.0,-239.0,-65.0,-143.0,-32.0,-63.0,1
9.0,-236.0,-63.0,-152.0,-29.0,-57.0,1
10.0,-240.0,-63.0,-164.0,-24.0,-49.0,1
4.0,-237.0,-66.0,-175.0,-22.0,-44.0,1
12.0,-242.0,-60.0,-191.0,-20.0,-39.0,1
9.0,-240.0,-63.0,-207.0,-19.0,-33.0,1
13.0,-237.0,-59.0,-225.0,-18.0,-27.0,1
13.0,-238.0,-62.0,-247.0,-16.0,-20.0,1
12.0,-233.0,-64.0,-271.0,-13.0,-11.0,1
14.0,-234.0,-62.0,-301.0,-13.0,-2.0,1
17.0,-231.0,-59.0,-333.0,-14.0,5.0,1
15.0,-228.0,-61.0,-367.0,-15.0,13.0,1
19.0,-229.0,-62.0,-402.0,-19.0,16.0,1
16.0,-227.0,-62.0,-438.0,-24.0,20.0,1
18.0,-229.0,-66.0,-472.0,-31.0,25.0,1
19.0,-227.0,-68.0,-501.0,-38.0,27.0,1
18.0,-227.0,-68.0,-527.0,-45.0,27.0,1
17.0,-231.0,-66.0,-552.0,-51.0,27.0,1
13.0,-228.0,-70.0,-578.0,-53.0,15.0,1
15.0,-230.0,-68.0,-593.0,-55.0,19.0,1
15.0,-239.0,-68.0,-601.0,-51.0,24.0,1
11.0,-235.0,-69.0,-612.0,-46.0,20.0,1
12.0,-240.0,-70.0,-614.0,-43.0,15.0,1
8.0,-238.0,-71.0,-612.0,-38.0,2.0,1
10.0,-236.0,-69.0,-615.0,-34.0,-10.0,1
7.0,-231.0,-69.0,-613.0,-33.0,-15.0,1
7.0,-230.0,-73.0,-621.0,-28.0,-17.0,1
10.0,-227.0,-76.0,-633.0,-25.0,-17.0,1
8.0,-224.0,-73.0,-648.0,-24.0,-21.0,1
8.0,-221.0,-77.0,-671.0,-24.0,-22.0,1
8.0,-215.0,-78.0,-702.0,-23.0,-14.0,1
7.0,-212.0,-80.0,-736.0,-21.0,-11.0,1
8.0,-213.0,-83.0,-769.0,-18.0,-1.0,1
9.0,-215.0,-83.0,-800.0,-16.0,16.0,1
7.0,-216.0,-84.0,-831.0,-14.0,28.0,1
8.0,-220.0,-86.0,-861.0,-11.0,36.0,1
7.0,-225.0,-89.0,-892.0,-9.0,41.0,1
6.0,-225.0,-97.0,-921.0,-8.0,52.0,1
9.0,-224.0,-98.0,-948.0,-10.0,63.0,1
10.0,-225.0,-101.0,-973.0,-15.0,78.0,1
10.0,-219.0,-99.0,-1003.0,-21.0,101.0,1
12.0,-222.0,-105.0,-1025.0,-30.0,110.0,1
15.0,-222.0,-107.0,-1048.0,-41.0,119.0,1
15.0,-217.0,-109.0,-1076.0,-49.0,120.0,1
11.0,-215.0,-113.0,-1107.0,-51.0,115.0,1
6.0,-213.0,-115.0,-1137.0,-45.0,111.0,1
1.0,-211.0,-115.0,-1166.0,-33.0,110.0,1
2.0,-211.0,-116.0,-1190.0,-19.0,120.0,1
-4.0,-217.0,-122.0,-1216.0,-9.0,132.0,1
0.0,-216.0,-125.0,-1247.0,-2.0,157.0,1
-2.0,-219.0,-128.0,-1273.0,-3.0,166.0,1
-1.0,-224.0,-127.0,-1294.0,-9.0,180.0,1
1.0,-221.0,-134.0,-1310.0,-13.0,184.0,1
-3.0,-217.0,-135.0,-1324.0,-20.0,187.0,1
-8.0,-224.0,-137.0,-1337.0,-26.0,190.0,1
-4.0,-213.0,-135.0,-1359.0,-30.0,198.0,1
-5.0,-214.0,-137.0,-1373.0,-33.0,197.0,1
-5.0,-213.0,-137.0,-1389.0,-39.0,195.0,1
-4.0,-208.0,-136.0,-1407.0,-38.0,184.0,1
-5.0,-205.0,-137.0,-1421.0,-36.0,205.0,1
-4.0,-206.0,-136.0,-1428.0,-40.0,195.0,1
0.0,-207.0,-135.0,-1436.0,-39.0,192.0,1
-2.0,-205.0,-139.0,-1447.0,-37.0,185.0,1
-2.0,-205.0,-138.0,-1466.0,-37.0,189.0,1
-4.0,-195.0,-138.0,-1480.0,-33.0,165.0,1
-1.0,-203.0,-140.0,-1490.0,-33.0,162.0,1
-3.0,-199.0,-140.0,-1496.0,-34.0,165.0,1
-3.0,-199.0,-140.0,-1509.0,-35.0,163.0,1
-1.0,-197.0,-140.0,-1520.0,-34.0,148.0,1
0.0,-202.0,-147.0,-1529.0,-34.0,149.0,1
-4.0,-196.0,-146.0,-1540.0,-34.0,153.0,1
-1.0,-199.0,-144.0,-1548.0,-35.0,143.0,1
3.0,-201.0,-149.0,-1568.0,-38.0,137.0,1
0.0,-199.0,-152.0,-1585.0,-39.0,140.0,1
0.0,-195.0,-150.0,-1602.0,-42.0,134.0,1
5.0,-192.0,-156.0,-1627.0,-45.0,132.0,1
-2.0,-195.0,-155.0,-1655.0,-45.0,132.0,1
2.0,-198.0,-158.0,-1668.0,-47.0,127.0,1
3.0,-196.0,-158.0,-1686.0,-51.0,128.0,1
3.0,-193.0,-157.0,-1695.0,-52.0,126.0,1
7.0,-196.0,-161.0,-1699.0,-55.0,140.0,1
4.0,-190.0,-163.0,-1714.0,-59.0,140.0,1
7.0,-192.0,-160.0,-1716.0,-60.0,139.0,1
10.0,-191.0,-166.0,-1713.0,-64.0,144.0,1
3.0,-188.0,-163.0,-1713.0,-72.0,138.0,1
-1.0,-206.0,-169.0,-1709.0,-78.0,139.0,1
2.0,-188.0,-168.0,-1724.0,-83.0,170.0,1
-3.0,-188.0,-170.0,-1723.0,-85.0,151.0,1
-1.0,-189.0,-173.0,-1719.0,-85.0,137.0,1
-6.0,-187.0,-179.0,-1722.0,-81.0,136.0,1
-4.0,-188.0,-179.0,-1718.0,-79.0,133.0,1
-10.0,-191.0,-180.0,-1716.0,-78.0,133.0,1
-7.0,-181.0,-173.0,-1729.0,-79.0,147.0,1
-14.0,-183.0,-179.0,-1733.0,-85.0,137.0,1
-12.0,-176.0,-185.0,-1715.0,-87.0,127.0,1
-3.0,-179.0,-191.0,-1702.0,-93.0,119.0,1
-8.0,-178.0,-194.0,-1694.0,-94.0,110.0,1
-5.0,-175.0,-195.0,-1695.0,-95.0,107.0,1
-5.0,-164.0,-203.0,-1703.0,-92.0,93.0,1
-3.0,-163.0,-204.0,-1714.0,-84.0,87.0,1
-5.0,-159.0,-205.0,-1735.0,-75.0,83.0,1
-3.0,-154.0,-210.0,-1765.0,-62.0,78.0,1
-4.0,-153.0,-212.0,-1797.0,-50.0,79.0,1
-3.0,-146.0,-214.0,-1835.0,-38.0,87.0,1
-4.0,-142.0,-220.0,-1878.0,-31.0,90.0,1
-5.0,-139.0,-222.0,-1918.0,-27.0,94.0,1
-5.0,-134.0,-228.0,-1962.0,-23.0,99.0,1
-6.0,-128.0,-228.0,-2004.0,-21.0,103.0,1
-6.0,-127.0,-230.0,-2045.0,-21.0,110.0,1
-8.0,-119.0,-230.0,-2084.0,-18.0,115.0,1
-10.0,-110.0,-233.0,-2131.0,-21.0,155.0,1
-11.0,-104.0,-232.0,-2143.0,-23.0,143.0,1
-10.0,-104.0,-236.0,-2137.0,-26.0,143.0,1
-7.0,-106.0,-239.0,-2120.0,-34.0,150.0,1
-8.0,-98.0,-237.0,-2098.0,-40.0,158.0,1
-6.0,-101.0,-238.0,-2080.0,-39.0,169.0,1
-6.0,-103.0,-240.0,-2062.0,-35.0,184.0,1
-7.0,-103.0,-248.0,-2039.0,-28.0,196.0,1
-3.0,-101.0,-245.0,-2015.0,-22.0,206.0,1
-6.0,-101.0,-242.0,-1994.0,-18.0,211.0,1
-5.0,-100.0,-248.0,-1972.0,-21.0,220.0,1
-7.0,-102.0,-250.0,-1952.0,-30.0,229.0,1
-8.0,-108.0,-258.0,-1927.0,-41.0,233.0,1
-13.0,-111.0,-258.0,-1905.0,-57.0,234.0,1
-17.0,-112.0,-263.0,-1884.0,-77.0,229.0,1
-15.0,-113.0,-265.0,-1860.0,-101.0,227.0,1
-23.0,-115.0,-273.0,-1831.0,-126.0,223.0,1
-23.0,-116.0,-282.0,-1794.0,-147.0,220.0,1
-27.0,-118.0,-276.0,-1758.0,-169.0,215.0,1
-30.0,-120.0,-284.0,-1718.0,-184.0,207.0,1
-38.0,-121.0,-282.0,-1682.0,-189.0,197.0,1
-36.0,-121.0,-286.0,-1646.0,-191.0,187.0,1
-36.0,-122.0,-286.0,-1613.0,-186.0,182.0,1
-36.0,-121.0,-287.0,-1577.0,-181.0,180.0,1
-33.0,-124.0,-287.0,-1532.0,-174.0,179.0,1
-30.0,-123.0,-293.0,-1481.0,-174.0,179.0,1
-29.0,-121.0,-294.0,-1424.0,-175.0,173.0,1
-25.0,-119.0,-296.0,-1359.0,-179.0,165.0,1
-18.0,-122.0,-299.0,-1286.0,-188.0,152.0,1
-18.0,-112.0,-306.0,-1205.0,-203.0,142.0,1
-12.0,-106.0,-315.0,-1117.0,-224.0,130.0,1
-7.0,-102.0,-319.0,-1031.0,-246.0,123.0,1
-7.0,-94.0,-325.0,-945.0,-265.0,117.0,1
-4.0,-93.0,-330.0,-860.0,-276.0,113.0,1
-6.0,-82.0,-341.0,-774.0,-273.0,109.0,1
-6.0,-81.0,-343.0,-689.0,-262.0,108.0,1
-4.0,-79.0,-352.0,-608.0,-240.0,110.0,1
-8.0,-73.0,-348.0,-533.0,-204.0,114.0,1
-9.0,-63.0,-354.0,-465.0,-163.0,119.0,1
-8.0,-61.0,-352.0,-403.0,-117.0,128.0,1
-15.0,-49.0,-350.0,-344.0,-78.0,142.0,1
-13.0,-40.0,-349.0,-289.0,-46.0,158.0,1
-14.0,-36.0,-344.0,-241.0,-24.0,176.0,1
-15.0,-27.0,-338.0,-199.0,-9.0,196.0,1
-10.0,-22.0,-333.0,-165.0,2.0,219.0,1
-20.0,-16.0,-336.0,-136.0,10.0,242.0,1
-10.0,-15.0,-330.0,-113.0,21.0,264.0,1
-11.0,-19.0,-328.0,-94.0,30.0,282.0,1
-12.0,-20.0,-324.0,-75.0,41.0,293.0,1
-15.0,-17.0,-321.0,-56.0,55.0,300.0,1
-19.0,-17.0,-316.0,-37.0,70.0,298.0,1
-19.0,-16.0,-314.0,-18.0,82.0,294.0,1
-21.0,-16.0,-305.0,1.0,92.0,288.0,1
-20.0,-18.0,-304.0,17.0,95.0,284.0,1
-22.0,-24.0,-301.0,28.0,93.0,275.0,1
-21.0,-26.0,-298.0,37.0,90.0,266.0,1
-17.0,-30.0,-292.0,44.0,84.0,254.0,1
-17.0,-32.0,-286.0,48.0,79.0,242.0,1
-17.0,-35.0,-283.0,56.0,71.0,229.0,1
-16.0,-36.0,-281.0,61.0,66.0,214.0,1
-10.0,-41.0,-281.0,65.0,62.0,198.0,1
-11.0,-45.0,-269.0,68.0,58.0,178.0,1
-10.0,-50.0,-269.0,68.0,56.0,161.0,1
-10.0,-51.0,-265.0,63.0,57.0,143.0,1
-7.0,-52.0,-267.0,53.0,61.0,125.0,1
-6.0,-53.0,-266.0,42.0,71.0,113.0,1
-8.0,-52.0,-267.0,28.0,81.0,107.0,1
-4.0,-55.0,-265.0,14.0,90.0,98.0,1
-4.0,-54.0,-266.0,-2.0,96.0,90.0,1
-1.0,-59.0,-264.0,-14.0,102.0,84.0,1
-3.0,-56.0,-263.0,-17.0,103.0,76.0,1
1.0,-58.0,-263.0,-18.0,101.0,67.0,1
5.0,-61.0,-263.0,-10.0,97.0,61.0,1
4.0,-63.0,-263.0,6.0,95.0,54.0,1
5.0,-66.0,-259.0,30.0,94.0,51.0,1
5.0,-67.0,-262.0,63.0,98.0,55.0,1
5.0,-70.0,-262.0,102.0,104.0,57.0,1
1.0,-71.0,-259.0,145.0,112.0,60.0,1
6.0,-77.0,-260.0,198.0,121.0,64.0,1
4.0,-78.0,-253.0,270.0,129.0,68.0,1
3.0,-79.0,-254.0,337.0,137.0,72.0,1
9.0,-95.0,-248.0,411.0,142.0,76.0,1
6.0,-85.0,-246.0,487.0,146.0,73.0,1
6.0,-92.0,-243.0,563.0,151.0,69.0,1
5.0,-89.0,-240.0,634.0,153.0,65.0,1
4.0,-95.0,-235.0,705.0,156.0,64.0,1
5.0,-94.0,-232.0,771.0,160.0,62.0,1
1.0,-98.0,-226.0,830.0,166.0,59.0,1
6.0,-105.0,-219.0,885.0,174.0,55.0,1
-1.0,-102.0,-220.0,941.0,181.0,52.0,1
1.0,-103.0,-213.0,997.0,188.0,51.0,1
1.0,-109.0,-210.0,1048.0,196.0,55.0,1
3.0,-108.0,-209.0,1100.0,209.0,56.0,1
2.0,-111.0,-206.0,1158.0,220.0,53.0,1
1.0,-114.0,-202.0,1219.0,232.0,49.0,1
0.0,-113.0,-198.0,1285.0,246.0,52.0,1
-3.0,-113.0,-194.0,1357.0,257.0,51.0,1
0.0,-114.0,-191.0,1433.0,268.0,52.0,1
-3.0,-115.0,-189.0,1511.0,278.0,43.0,1
-4.0,-117.0,-185.0,1589.0,286.0,43.0,1
-2.0,-111.0,-175.0,1669.0,292.0,42.0,1
-4.0,-115.0,-171.0,1754.0,301.0,46.0,1
-2.0,-116.0,-162.0,1839.0,308.0,41.0,1
-5.0,-115.0,-158.0,1923.0,317.0,33.0,1
-7.0,-109.0,-157.0,2010.0,328.0,20.0,1
-3.0,-112.0,-155.0,2092.0,342.0,24.0,1
-4.0,-109.0,-144.0,2167.0,362.0,28.0,1
-3.0,-103.0,-142.0,2228.0,381.0,16.0,1
-6.0,-100.0,-140.0,2274.0,403.0,5.0,1
-10.0,-87.0,-131.0,2313.0,427.0,-3.0,1
-7.0,-101.0,-131.0,2359.0,454.0,-8.0,1
-5.0,-93.0,-121.0,2393.0,475.0,-10.0,1
-4.0,-92.0,-123.0,2420.0,494.0,-15.0,1
-5.0,-85.0,-115.0,2440.0,512.0,-21.0,1
-4.0,-76.0,-114.0,2462.0,528.0,-26.0,1
-3.0,-76.0,-111.0,2483.0,542.0,-38.0,1
-6.0,-72.0,-107.0,2478.0,556.0,-44.0,1
-4.0,-69.0,-105.0,2467.0,564.0,-52.0,1
-3.0,-65.0,-104.0,2453.0,572.0,-54.0,1
-6.0,-62.0,-104.0,2450.0,576.0,-76.0,1
-6.0,-62.0,-97.0,2441.0,582.0,-58.0,1
-12.0,-55.0,-94.0,2437.0,587.0,-47.0,1
-11.0,-56.0,-92.0,2422.0,597.0,-48.0,1
-16.0,-50.0,-89.0,2408.0,609.0,-56.0,1
-14.0,-49.0,-84.0,2404.0,625.0,-55.0,1
-18.0,-46.0,-82.0,2393.0,649.0,-32.0,1
-18.0,-49.0,-77.0,2385.0,678.0,-6.0,1
-14.0,-46.0,-72.0,2385.0,710.0,11.0,1
-19.0,-45.0,-73.0,2383.0,739.0,1.0,1
-12.0,-42.0,-73.0,2364.0,775.0,27.0,1
-11.0,-42.0,-69.0,2338.0,811.0,46.0,1
-8.0,-39.0,-64.0,2313.0,844.0,56.0,1
-7.0,-40.0,-61.0,2306.0,874.0,52.0,1
-3.0,-38.0,-53.0,2307.0,910.0,89.0,1
4.0,-50.0,-53.0,2330.0,952.0,132.0,1
15.0,-44.0,-41.0,2343.0,994.0,152.0,1
6.0,-52.0,-51.0,2371.0,1043.0,153.0,1
16.0,-57.0,-46.0,2401.0,1106.0,197.0,1
22.0,-61.0,-45.0,2424.0,1180.0,245.0,1
31.0,-64.0,-44.0,2435.0,1253.0,288.0,1
37.0,-59.0,-38.0,2444.0,1328.0,328.0,1
35.0,-65.0,-46.0,2466.0,1389.0,315.0,1
51.0,-70.0,-45.0,2489.0,1433.0,344.0,1
56.0,-68.0,-49.0,2492.0,1473.0,374.0,1
60.0,-68.0,-64.0,2461.0,1488.0,378.0,1
59.0,-68.0,-70.0,2372.0,1499.0,366.0,1
56.0,-75.0,-77.0,2277.0,1518.0,355.0,1
51.0,-83.0,-104.0,2173.0,1535.0,332.0,1
43.0,-101.0,-126.0,2082.0,1525.0,293.0,1
29.0,-105.0,-132.0,1979.0,1494.0,278.0,1
38.0,-131.0,-144.0,1883.0,1434.0,269.0,1
29.0,-147.0,-136.0,1790.0,1322.0,214.0,1
18.0,-157.0,-129.0,1735.0,1136.0,93.0,1
12.0,-180.0,-125.0,1723.0,916.0,-24.0,1
0.0,-197.0,-123.0,1711.0,711.0,-73.0,1
-1.0,-201.0,-119.0,1734.0,523.0,-107.0,1
-28.0,-215.0,-131.0,1778.0,372.0,-146.0,1
-43.0,-225.0,-132.0,1786.0,260.0,-154.0,1
-59.0,-228.0,-144.0,1768.0,162.0,-153.0,1
-61.0,-208.0,-155.0,1721.0,83.0,-152.0,1
-78.0,-209.0,-168.0,1664.0,23.0,-173.0,1
-77.0,-200.0,-162.0,1538.0,4.0,-82.0,1
-74.0,-190.0,-141.0,1400.0,-21.0,-2.0,1
-68.0,-171.0,-125.0,1295.0,-61.0,45.0,1
-64.0,-156.0,-119.0,1241.0,-120.0,55.0,1
-61.0,-138.0,-116.0,1231.0,-194.0,3.0,1
-52.0,-123.0,-116.0,1189.0,-265.0,-33.0,1
-11.0,-95.0,-93.0,1089.0,-326.0,-48.0,1
-60.0,-102.0,-110.0,984.0,-416.0,-141.0,1
-50.0,-94.0,-106.0,838.0,-514.0,-182.0,1
-41.0,-88.0,-107.0,655.0,-597.0,-198.0,1
-40.0,-81.0,-98.0,456.0,-685.0,-230.0,1
-44.0,-78.0,-102.0,253.0,-783.0,-306.0,1
-51.0,-73.0,-108.0,68.0,-879.0,-426.0,1
-47.0,-79.0,-112.0,-106.0,-943.0,-524.0,1
-42.0,-85.0,-111.0,-254.0,-978.0,-590.0,1
-37.0,-101.0,-115.0,-367.0,-1003.0,-640.0,1
-31.0,-114.0,-121.0,-457.0,-1034.0,-682.0,1
-24.0,-125.0,-122.0,-543.0,-1081.0,-730.0,1
-23.0,-133.0,-132.0,-630.0,-1140.0,-774.0,1
-21.0,-142.0,-134.0,-723.0,-1214.0,-814.0,1
-20.0,-155.0,-139.0,-819.0,-1301.0,-847.0,1
-20.0,-170.0,-147.0,-906.0,-1396.0,-876.0,1
-19.0,-177.0,-156.0,-982.0,-1498.0,-897.0,1
-5.0,-191.0,-174.0,-1049.0,-1601.0,-912.0,1
7.0,-194.0,-186.0,-1101.0,-1693.0,-926.0,1
23.0,-200.0,-214.0,-1145.0,-1771.0,-939.0,1
54.0,-200.0,-241.0,-1187.0,-1833.0,-955.0,1
70.0,-196.0,-258.0,-1240.0,-1887.0,-978.0,1
103.0,-194.0,-284.0,-1300.0,-1934.0,-1008.0,1
126.0,-190.0,-312.0,-1373.0,-1965.0,-1035.0,1
154.0,-191.0,-337.0,-1457.0,-1970.0,-1050.0,1
178.0,-189.0,-373.0,-1589.0,-1931.0,-1040.0,1
196.0,-190.0,-409.0,-1808.0,-1858.0,-1009.0,1
221.0,-200.0,-464.0,-2108.0,-1791.0,-967.0,1
242.0,-221.0,-535.0,-2463.0,-1760.0,-926.0,1
270.0,-261.0,-617.0,-2857.0,-1822.0,-918.0,1
278.0,-306.0,-669.0,-3239.0,-1982.0,-951.0,1
301.0,-381.0,-753.0,-3564.0,-2256.0,-1013.0,1
327.0,-517.0,-820.0,-3727.0,-2480.0,-1018.0,1
313.0,-630.0,-867.0,-3534.0,-2557.0,-1003.0,1
248.0,-680.0,-888.0,-3064.0,-2535.0,-963.0,1
186.0,-692.0,-844.0,-2626.0,-2504.0,-884.0,1
160.0,-653.0,-759.0,-2325.0,-2499.0,-866.0,1
155.0,-569.0,-666.0,-2124.0,-2386.0,-1027.0,1
133.0,-475.0,-572.0,-2022.0,-2123.0,-1208.0,1
108.0,-393.0,-458.0,-2012.0,-1791.0,-1333.0,1
90.0,-335.0,-375.0,-2032.0,-1412.0,-1401.0,1
61.0,-273.0,-276.0,-2012.0,-1151.0,-1453.0,1
42.0,-220.0,-197.0,-1930.0,-933.0,-1470.0,1
27.0,-171.0,-136.0,-1780.0,-748.0,-1439.0,1
25.0,-127.0,-102.0,-1653.0,-575.0,-1374.0,1
12.0,-104.0,-88.0,-1539.0,-419.0,-1321.0,1
-15.0,-65.0,-78.0,-1468.0,-296.0,-1278.0,1
-54.0,-33.0,-73.0,-1459.0,-201.0,-1222.0,1
-79.0,-3.0,-65.0,-1481.0,-142.0,-1141.0,1
-87.0,9.0,-61.0,-1485.0,-108.0,-1017.0,1
-90.0,30.0,-69.0,-1454.0,-91.0,-851.0,1
-85.0,43.0,-74.0,-1429.0,-107.0,-657.0,1
-72.0,55.0,-80.0,-1429.0,-136.0,-459.0,1
-55.0,60.0,-98.0,-1440.0,-156.0,-286.0,1
-31.0,63.0,-118.0,-1461.0,-145.0,-136.0,1
-8.0,69.0,-125.0,-1497.0,-109.0,-17.0,1
-1.0,70.0,-136.0,-1539.0,-86.0,86.0,1
8.0,76.0,-138.0,-1594.0,-116.0,184.0,1
20.0,73.0,-134.0,-1685.0,-219.0,271.0,1
27.0,64.0,-129.0,-1811.0,-378.0,341.0,1
27.0,44.0,-119.0,-1941.0,-568.0,384.0,1
32.0,14.0,-106.0,-2065.0,-762.0,392.0,1
25.0,-16.0,-97.0,-2181.0,-937.0,376.0,1
18.0,-47.0,-78.0,-2289.0,-1100.0,346.0,1
7.0,-76.0,-81.0,-2386.0,-1262.0,297.0,1
-2.0,-102.0,-67.0,-2484.0,-1417.0,232.0,1
-10.0,-131.0,-65.0,-2583.0,-1536.0,166.0,1
-25.0,-148.0,-80.0,-2705.0,-1605.0,110.0,1
-37.0,-152.0,-87.0,-2865.0,-1601.0,102.0,1
-54.0,-148.0,-95.0,-3038.0,-1527.0,142.0,1
-61.0,-141.0,-112.0,-3184.0,-1412.0,229.0,1
-64.0,-137.0,-119.0,-3310.0,-1283.0,314.0,1
-69.0,-123.0,-127.0,-3419.0,-1169.0,386.0,1
-69.0,-114.0,-136.0,-3498.0,-1076.0,440.0,1
-67.0,-98.0,-139.0,-3538.0,-1003.0,481.0,1
-54.0,-87.0,-147.0,-3536.0,-941.0,509.0,1
-44.0,-83.0,-145.0,-3511.0,-891.0,536.0,1
-26.0,-74.0,-151.0,-3481.0,-855.0,555.0,1
-12.0,-67.0,-156.0,-3444.0,-822.0,570.0,1
4.0,-62.0,-159.0,-3395.0,-788.0,577.0,1
25.0,-50.0,-161.0,-3333.0,-744.0,567.0,1
39.0,-44.0,-163.0,-3274.0,-693.0,532.0,1
51.0,-39.0,-171.0,-3216.0,-641.0,481.0,1
55.0,-30.0,-174.0,-3156.0,-594.0,431.0,1
54.0,-20.0,-179.0,-3096.0,-555.0,390.0,1
50.0,-19.0,-186.0,-3048.0,-516.0,361.0,1
38.0,-24.0,-204.0,-3018.0,-476.0,355.0,1
30.0,-31.0,-207.0,-3002.0,-437.0,368.0,1
16.0,-38.0,-218.0,-3001.0,-401.0,395.0,1
10.0,-51.0,-235.0,-3014.0,-375.0,432.0,1
1.0,-63.0,-248.0,-3031.0,-367.0,473.0,1
-9.0,-68.0,-261.0,-3049.0,-376.0,516.0,1
-7.0,-72.0,-265.0,-3062.0,-390.0,556.0,1
-19.0,-72.0,-282.0,-3065.0,-395.0,585.0,1
-18.0,-80.0,-288.0,-3059.0,-393.0,610.0,1
-16.0,-89.0,-278.0,-3040.0,-384.0,630.0,1
-19.0,-88.0,-286.0,-3003.0,-376.0,646.0,1
-22.0,-91.0,-286.0,-2947.0,-376.0,656.0,1
-19.0,-90.0,-277.0,-2864.0,-369.0,655.0,1
-10.0,-88.0,-265.0,-2767.0,-358.0,644.0,1
-5.0,-88.0,-251.0,-2663.0,-342.0,622.0,1
1.0,-89.0,-241.0,-2550.0,-320.0,595.0,1
15.0,-87.0,-223.0,-2439.0,-293.0,554.0,1
21.0,-88.0,-206.0,-2340.0,-266.0,509.0,1
27.0,-88.0,-194.0,-2244.0,-252.0,450.0,1
32.0,-87.0,-180.0,-2155.0,-243.0,386.0,1
34.0,-85.0,-153.0,-2078.0,-235.0,305.0,1
34.0,-90.0,-142.0,-2005.0,-238.0,224.0,1
35.0,-91.0,-123.0,-1917.0,-254.0,151.0,1
24.0,-99.0,-103.0,-1849.0,-285.0,70.0,1
11.0,-101.0,-89.0,-1787.0,-334.0,-6.0,1
3.0,-99.0,-69.0,-1735.0,-400.0,-75.0,1
-10.0,-92.0,-49.0,-1692.0,-462.0,-139.0,1
-18.0,-83.0,-24.0,-1655.0,-517.0,-195.0,1
-24.0,-80.0,8.0,-1610.0,-564.0,-243.0,1
-40.0,-70.0,26.0,-1535.0,-617.0,-284.0,1
-39.0,-63.0,51.0,-1423.0,-689.0,-336.0,1
-44.0,-38.0,48.0,-1292.0,-786.0,-406.0,1
-57.0,-7.0,32.0,-1178.0,-926.0,-511.0,1
-70.0,27.0,18.0,-1109.0,-1142.0,-648.0,1
-93.0,63.0,11.0,-1092.0,-1435.0,-809.0,1
-129.0,106.0,-19.0,-1104.0,-1754.0,-941.0,1
-163.0,139.0,-15.0,-1162.0,-2040.0,-1038.0,1
-190.0,168.0,5.0,-1214.0,-2309.0,-1098.0,1
-221.0,184.0,4.0,-1173.0,-2543.0,-1119.0,1
-242.0,197.0,-14.0,-1074.0,-2745.0,-1129.0,1
-313.0,432.0,-87.0,-1212.0,-3005.0,-1001.0,1
-256.0,456.0,-148.0,-1403.0,-2971.0,-477.0,1
-207.0,744.0,-246.0,-1157.0,-2961.0,-259.0,1
-197.0,738.0,-219.0,-1593.0,-3611.0,-763.0,1
-269.0,832.0,-283.0,-1952.0,-3462.0,-227.0,1
-265.0,817.0,-241.0,-1719.0,-2416.0,1018.0,1
-92.0,566.0,-294.0,-1345.0,-1470.0,1650.0,1
-75.0,637.0,-192.0,-1693.0,-445.0,1694.0,1
-10.0,610.0,-135.0,-1267.0,-33.0,1093.0,1
124.0,436.0,-221.0,528.0,4.0,925.0,1
-27.0,464.0,-312.0,1606.0,-211.0,626.0,1
-236.0,496.0,-383.0,1858.0,-576.0,276.0,1
-289.0,409.0,-431.0,1841.0,-1009.0,-97.0,1
-463.0,301.0,-455.0,1886.0,-1372.0,-397.0,1
-471.0,390.0,-604.0,1837.0,-1594.0,-573.0,1
-367.0,404.0,-695.0,1359.0,-1586.0,-604.0,1
-436.0,511.0,-744.0,563.0,-1441.0,-576.0,1
-458.0,737.0,-882.0,-264.0,-1322.0,-517.0,1
-366.0,843.0,-950.0,-1124.0,-1351.0,-336.0,1
-332.0,788.0,-893.0,-1686.0,-1664.0,-381.0,1
-330.0,645.0,-784.0,-2024.0,-2067.0,-486.0,1
-269.0,489.0,-717.0,-2337.0,-2409.0,-469.0,1
-224.0,314.0,-678.0,-2836.0,-2718.0,-413.0,1
-256.0,223.0,-648.0,-3584.0,-2942.0,-401.0,1
-317.0,178.0,-603.0,-4465.0,-3139.0,-387.0,1
-317.0,125.0,-495.0,-5256.0,-3311.0,-249.0,1
-169.0,-51.0,-402.0,-5791.0,-3320.0,46.0,1
-162.0,-61.0,-345.0,-5479.0,-2619.0,109.0,1
-140.0,-77.0,-275.0,-4886.0,-1767.0,279.0,1
-153.0,-41.0,-195.0,-4292.0,-1082.0,338.0,1
-135.0,-38.0,-116.0,-3863.0,-648.0,354.0,1
-97.0,-26.0,-54.0,-3487.0,-330.0,282.0,1
-66.0,-27.0,-17.0,-3001.0,21.0,75.0,1
-97.0,111.0,34.0,-2289.0,436.0,-259.0,1
-120.0,216.0,77.0,-1598.0,687.0,-546.0,1
-122.0,297.0,120.0,-1004.0,827.0,-715.0,1
-54.0,260.0,163.0,-370.0,939.0,-832.0,1
-34.0,233.0,186.0,406.0,1073.0,-977.0,1
-13.0,263.0,195.0,1256.0,1173.0,-1124.0,1
-17.0,320.0,197.0,1942.0,1146.0,-1209.0,1
-2.0,364.0,192.0,2357.0,1044.0,-1183.0,1
-11.0,412.0,172.0,2549.0,930.0,-1048.0,1
-29.0,438.0,143.0,2491.0,812.0,-811.0,1
-53.0,448.0,104.0,2164.0,783.0,-513.0,1
-92.0,392.0,72.0,1622.0,814.0,-211.0,1
-111.0,317.0,47.0,952.0,868.0,-24.0,1
-105.0,255.0,31.0,506.0,942.0,82.0,1
-98.0,168.0,22.0,153.0,1008.0,144.0,1
-96.0,96.0,15.0,-98.0,1056.0,193.0,1
-107.0,37.0,11.0,-243.0,1086.0,255.0,1
-124.0,-10.0,8.0,-305.0,1067.0,274.0,1
-136.0,-33.0,7.0,-331.0,994.0,279.0,1
-146.0,-49.0,-10.0,-323.0,916.0,281.0,1
-167.0,-70.0,-21.0,-311.0,861.0,290.0,1
-183.0,-66.0,-36.0,-254.0,807.0,288.0,1
-191.0,-65.0,-52.0,-126.0,745.0,279.0,1
-184.0,-64.0,-64.0,27.0,653.0,254.0,1
-179.0,-29.0,-77.0,211.0,569.0,205.0,1
-145.0,54.0,-95.0,388.0,486.0,229.0,1
-105.0,91.0,-104.0,472.0,420.0,375.0,1
-95.0,118.0,-93.0,506.0,435.0,511.0,1
-87.0,122.0,-87.0,522.0,478.0,601.0,1
-84.0,127.0,-69.0,546.0,540.0,638.0,1
-52.0,118.0,-57.0,576.0,599.0,647.0,1
-41.0,138.0,-61.0,654.0,697.0,636.0,1
-38.0,143.0,-70.0,759.0,826.0,594.0,1
-48.0,151.0,-81.0,891.0,931.0,526.0,1
-47.0,164.0,-91.0,1039.0,997.0,457.0,1
-68.0,166.0,-105.0,1198.0,1058.0,399.0,1
-124.0,183.0,-129.0,1354.0,1117.0,333.0,1
-147.0,225.0,-143.0,1479.0,1231.0,251.0,1
-120.0,254.0,-151.0,1639.0,1370.0,199.0,1
-95.0,238.0,-192.0,1911.0,1388.0,115.0,1
-101.0,222.0,-226.0,2179.0,1312.0,42.0,1
-105.0,197.0,-245.0,2359.0,1189.0,-21.0,1
-110.0,169.0,-258.0,2468.0,1039.0,-47.0,1
-111.0,145.0,-268.0,2463.0,945.0,-31.0,1
-109.0,137.0,-283.0,2339.0,905.0,9.0,1
-127.0,152.0,-300.0,2114.0,887.0,42.0,1
-126.0,155.0,-294.0,1867.0,870.0,70.0,1
-119.0,163.0,-297.0,1639.0,869.0,111.0,1
-108.0,180.0,-297.0,1442.0,871.0,145.0,1
-116.0,184.0,-303.0,1288.0,856.0,162.0,1
-119.0,188.0,-303.0,1175.0,834.0,178.0,1
-112.0,192.0,-305.0,1098.0,800.0,184.0,1
-112.0,197.0,-305.0,1024.0,758.0,180.0,1
-129.0,195.0,-309.0,948.0,706.0,171.0,1
-124.0,193.0,-304.0,868.0,660.0,172.0,1
-123.0,184.0,-296.0,790.0,615.0,170.0,1
-133.0,189.0,-295.0,710.0,569.0,169.0,1
-117.0,183.0,-289.0,633.0,521.0,187.0,1
-109.0,175.0,-289.0,561.0,473.0,199.0,1
-113.0,176.0,-285.0,479.0,436.0,219.0,1
-102.0,171.0,-276.0,399.0,406.0,231.0,1
-100.0,159.0,-269.0,320.0,363.0,226.0,1
-89.0,155.0,-265.0,259.0,327.0,226.0,1
-81.0,157.0,-258.0,201.0,292.0,219.0,1
-86.0,148.0,-242.0,152.0,258.0,212.0,1
-74.0,144.0,-238.0,111.0,222.0,203.0,1
-77.0,142.0,-227.0,75.0,193.0,190.0,1
-72.0,146.0,-221.0,47.0,164.0,181.0,1
-67.0,141.0,-218.0,28.0,142.0,166.0,1
-70.0,136.0,-211.0,14.0,117.0,147.0,1
-66.0,137.0,-211.0,1.0,89.0,132.0,1
-63.0,137.0,-200.0,-12.0,73.0,123.0,1
-65.0,135.0,-197.0,-18.0,63.0,111.0,1
-71.0,135.0,-192.0,-12.0,59.0,102.0,1
-64.0,136.0,-192.0,-1.0,53.0,91.0,1
-66.0,137.0,-196.0,16.0,48.0,82.0,1
-66.0,136.0,-190.0,22.0,48.0,74.0,1
-66.0,134.0,-188.0,37.0,53.0,69.0,1
-66.0,137.0,-184.0,62.0,60.0,65.0,1
-63.0,132.0,-191.0,84.0,61.0,57.0,1
-66.0,131.0,-191.0,95.0,63.0,49.0,1
-67.0,132.0,-192.0,99.0,67.0,43.0,1
-67.0,132.0,-191.0,95.0,70.0,42.0,1
-66.0,129.0,-193.0,88.0,76.0,40.0,1
-67.0,131.0,-192.0,83.0,84.0,40.0,1
-63.0,129.0,-197.0,77.0,90.0,38.0,1
-62.0,127.0,-189.0,66.0,95.0,35.0,1
-66.0,126.0,-193.0,59.0,100.0,34.0,1
-61.0,126.0,-190.0,49.0,103.0,31.0,1
-60.0,125.0,-191.0,40.0,102.0,30.0,1
-63.0,127.0,-188.0,38.0,100.0,25.0,1
-67.0,130.0,-184.0,45.0,98.0,20.0,1
-63.0,127.0,-191.0,56.0,97.0,16.0,1
-64.0,130.0,-188.0,66.0,95.0,11.0,1
-64.0,132.0,-188.0,79.0,96.0,9.0,1
-66.0,128.0,-190.0,92.0,97.0,7.0,1
-62.0,134.0,-197.0,105.0,99.0,5.0,1
-68.0,133.0,-195.0,121.0,103.0,2.0,1
-67.0,133.0,-199.0,135.0,108.0,5.0,1
-69.0,134.0,-198.0,146.0,113.0,5.0,1
-70.0,135.0,-200.0,157.0,120.0,4.0,1
-68.0,135.0,-202.0,164.0,125.0,4.0,1
-70.0,137.0,-205.0,170.0,132.0,5.0,1
-69.0,137.0,-207.0,173.0,135.0,4.0,1
-70.0,135.0,-209.0,174.0,138.0,4.0,1
-71.0,142.0,-211.0,174.0,138.0,0.0,1
-70.0,140.0,-212.0,171.0,137.0,-1.0,1
-72.0,137.0,-217.0,163.0,133.0,-5.0,1
-69.0,141.0,-221.0,154.0,130.0,-8.0,1
-68.0,142.0,-218.0,145.0,126.0,-11.0,1
-70.0,144.0,-219.0,136.0,119.0,-14.0,1
-71.0,146.0,-220.0,129.0,111.0,-19.0,1
-74.0,144.0,-222.0,126.0,101.0,-23.0,1
-73.0,146.0,-221.0,117.0,94.0,-25.0,1
-75.0,146.0,-224.0,106.0,87.0,-27.0,1
-73.0,145.0,-230.0,100.0,82.0,-29.0,1
-78.0,143.0,-224.0,95.0,73.0,-28.0,1
-79.0,145.0,-227.0,84.0,68.0,-27.0,1
-78.0,142.0,-229.0,73.0,65.0,-23.0,1
-80.0,147.0,-227.0,61.0,60.0,-22.0,1
-75.0,146.0,-227.0,54.0,55.0,-21.0,1
-76.0,148.0,-222.0,37.0,50.0,-17.0,1
-75.0,148.0,-223.0,24.0,46.0,-13.0,1
-76.0,143.0,-221.0,13.0,42.0,-12.0,1
-73.0,143.0,-223.0,4.0,36.0,-10.0,1
-80.0,144.0,-219.0,-4.0,32.0,-6.0,1
-75.0,147.0,-219.0,-11.0,28.0,-5.0,1
-73.0,147.0,-218.0,-15.0,22.0,-3.0,1
-74.0,140.0,-219.0,-26.0,17.0,-2.0,1
-76.0,141.0,-217.0,-33.0,16.0,2.0,1
-73.0,141.0,-212.0,-39.0,15.0,6.0,1
-75.0,140.0,-215.0,-43.0,15.0,9.0,1
-73.0,142.0,-212.0,-47.0,14.0,9.0,1
-69.0,138.0,-209.0,-52.0,16.0,11.0,1
-74.0,138.0,-206.0,-55.0,17.0,13.0,1
-71.0,138.0,-209.0,-60.0,19.0,14.0,1
-71.0,134.0,-206.0,-63.0,21.0,18.0,1
-71.0,134.0,-207.0,-67.0,23.0,21.0,1
-72.0,138.0,-205.0,-71.0,27.0,22.0,1
-72.0,136.0,-207.0,-71.0,30.0,22.0,1
-70.0,132.0,-204.0,-71.0,33.0,23.0,1
-69.0,137.0,-206.0,-73.0,36.0,27.0,1
-71.0,139.0,-202.0,-74.0,40.0,28.0,1
-68.0,137.0,-206.0,-75.0,42.0,31.0,1
-69.0,135.0,-202.0,-74.0,44.0,31.0,1
-72.0,139.0,-205.0,-74.0,47.0,34.0,1
-69.0,140.0,-205.0,-71.0,51.0,35.0,1
-70.0,143.0,-205.0,-69.0,55.0,37.0,1
-68.0,135.0,-208.0,-65.0,59.0,38.0,1
-68.0,138.0,-206.0,-60.0,63.0,40.0,1
-73.0,140.0,-204.0,-57.0,68.0,43.0,1
-64.0,139.0,-207.0,-51.0,73.0,49.0,1
-67.0,142.0,-204.0,-48.0,77.0,46.0,1
-68.0,143.0,-205.0,-44.0,77.0,42.0,1
-69.0,143.0,-204.0,-39.0,80.0,41.0,1
-67.0,139.0,-207.0,-38.0,82.0,41.0,1
-67.0,143.0,-207.0,-37.0,80.0,39.0,1
-67.0,141.0,-206.0,-37.0,79.0,38.0,1
-69.0,140.0,-210.0,-39.0,79.0,36.0,1
-70.0,137.0,-207.0,-43.0,80.0,36.0,1
-68.0,145.0,-212.0,-51.0,79.0,37.0,1
-69.0,137.0,-215.0,-65.0,77.0,39.0,1
-69.0,143.0,-215.0,-81.0,76.0,42.0,1
-69.0,138.0,-213.0,-102.0,74.0,45.0,1
-68.0,143.0,-212.0,-123.0,71.0,49.0,1
-69.0,143.0,-212.0,-139.0,68.0,56.0,1
-67.0,144.0,-207.0,-150.0,63.0,61.0,1
-63.0,141.0,-207.0,-155.0,54.0,67.0,1
-65.0,142.0,-208.0,-161.0,50.0,67.0,1
-66.0,149.0,-211.0,-161.0,45.0,70.0,1
-66.0,145.0,-209.0,-157.0,38.0,72.0,1
-66.0,150.0,-210.0,-154.0,35.0,76.0,1
-67.0,152.0,-204.0,-151.0,34.0,75.0,1
-65.0,148.0,-208.0,-143.0,31.0,70.0,1
-66.0,150.0,-204.0,-131.0,32.0,68.0,1
-60.0,150.0,-209.0,-117.0,33.0,64.0,1
-66.0,154.0,-207.0,-100.0,37.0,58.0,1
-65.0,152.0,-202.0,-86.0,37.0,51.0,1
-68.0,150.0,-207.0,-72.0,36.0,43.0,1
-62.0,144.0,-207.0,-65.0,32.0,40.0,1
-67.0,148.0,-206.0,-65.0,30.0,38.0,1
-66.0,148.0,-207.0,-68.0,23.0,37.0,1
-65.0,144.0,-204.0,-71.0,14.0,38.0,1
-65.0,148.0,-209.0,-80.0,9.0,37.0,1
-66.0,149.0,-205.0,-88.0,3.0,35.0,1
-67.0,150.0,-206.0,-92.0,-1.0,36.0,1
-67.0,152.0,-204.0,-101.0,-5.0,37.0,1
-69.0,150.0,-203.0,-106.0,-6.0,36.0,1
-68.0,149.0,-203.0,-108.0,-5.0,35.0,1
-68.0,150.0,-203.0,-106.0,-6.0,37.0,1
-67.0,150.0,-204.0,-104.0,-4.0,41.0,1
-66.0,152.0,-204.0,-103.0,-1.0,40.0,1
-69.0,156.0,-198.0,-98.0,2.0,42.0,1
-66.0,153.0,-198.0,-89.0,4.0,44.0,1
-66.0,157.0,-206.0,-80.0,7.0,44.0,1
-68.0,154.0,-200.0,-70.0,10.0,42.0,1
-65.0,153.0,-199.0,-61.0,10.0,42.0,1
-67.0,149.0,-200.0,-52.0,10.0,41.0,1
-67.0,151.0,-201.0,-44.0,8.0,38.0,1
-65.0,147.0,-201.0,-38.0,7.0,35.0,1
-63.0,151.0,-201.0,-31.0,3.0,32.0,1
-66.0,149.0,-200.0,-23.0,-1.0,30.0,1
-64.0,149.0,-200.0,-20.0,-2.0,27.0,1
-65.0,151.0,-203.0,-18.0,-4.0,25.0,1
-65.0,149.0,-201.0,-19.0,-7.0,23.0,1
-70.0,150.0,-206.0,-18.0,-5.0,22.0,1
-66.0,151.0,-205.0,-19.0,-4.0,21.0,1
-68.0,153.0,-204.0,-20.0,-5.0,20.0,1
-66.0,152.0,-201.0,-20.0,-4.0,19.0,1
-66.0,151.0,-208.0,-20.0,-6.0,21.0,1
-66.0,159.0,-203.0,-19.0,-8.0,19.0,1
-62.0,153.0,-201.0,-14.0,-6.0,16.0,1
-63.0,155.0,-202.0,-8.0,-6.0,12.0,1
-68.0,153.0,-201.0,-3.0,-5.0,8.0,1
-65.0,149.0,-201.0,7.0,-3.0,7.0,1
-67.0,154.0,-199.0,16.0,-3.0,6.0,1
-66.0,152.0,-199.0,25.0,0.0,3.0,1
-66.0,154.0,-201.0,32.0,1.0,0.0,1
-67.0,155.0,-201.0,39.0,2.0,-1.0,1
-66.0,154.0,-203.0,47.0,3.0,-2.0,1
-65.0,153.0,-201.0,51.0,6.0,-1.0,1
-64.0,150.0,-202.0,56.0,8.0,-1.0,1
-65.0,156.0,-206.0,60.0,8.0,-2.0,1
-69.0,157.0,-201.0,62.0,10.0,-1.0,1
-67.0,153.0,-205.0,62.0,12.0,1.0,1
-65.0,153.0,-199.0,62.0,16.0,2.0,1
-67.0,157.0,-200.0,65.0,19.0,0.0,1
-63.0,153.0,-200.0,65.0,19.0,1.0,1
-66.0,153.0,-209.0,68.0,18.0,-3.0,1
-67.0,155.0,-203.0,69.0,19.0,-3.0,1
-66.0,155.0,-206.0,66.0,19.0,-3.0,1
-66.0,151.0,-207.0,65.0,19.0,-4.0,1
-67.0,157.0,-209.0,66.0,17.0,-6.0,1
-67.0,155.0,-211.0,67.0,15.0,-7.0,1
-67.0,156.0,-214.0,65.0,11.0,-9.0,1
-68.0,157.0,-214.0,63.0,7.0,-9.0,1
-66.0,155.0,-211.0,58.0,-1.0,-11.0,1
-66.0,153.0,-212.0,51.0,-8.0,-11.0,1
-67.0,152.0,-213.0,34.0,-13.0,-11.0,1
-68.0,153.0,-211.0,14.0,-19.0,-10.0,1
-64.0,153.0,-215.0,-10.0,-27.0,-7.0,1
-68.0,152.0,-212.0,-33.0,-36.0,-3.0,1
-67.0,148.0,-211.0,-58.0,-48.0,6.0,1
-67.0,148.0,-205.0,-84.0,-60.0,12.0,1
-70.0,148.0,-208.0,-105.0,-75.0,22.0,1
-65.0,147.0,-208.0,-124.0,-94.0,34.0,1
-67.0,147.0,-210.0,-136.0,-115.0,47.0,1
-68.0,149.0,-208.0,-154.0,-128.0,55.0,1
-67.0,152.0,-206.0,-179.0,-135.0,63.0,1
-68.0,154.0,-198.0,-202.0,-135.0,70.0,1
-64.0,150.0,-197.0,-212.0,-141.0,78.0,1
-65.0,153.0,-198.0,-212.0,-148.0,86.0,1
-67.0,157.0,-193.0,-221.0,-137.0,83.0,1
-66.0,156.0,-191.0,-216.0,-130.0,83.0,1
-66.0,157.0,-197.0,-203.0,-126.0,84.0,1
-64.0,158.0,-186.0,-187.0,-116.0,76.0,1
-65.0,158.0,-188.0,-162.0,-104.0,65.0,1
-62.0,158.0,-193.0,-134.0,-96.0,57.0,1
-64.0,157.0,-185.0,-108.0,-82.0,44.0,1
-68.0,159.0,-189.0,-87.0,-71.0,35.0,1
-64.0,156.0,-187.0,-65.0,-60.0,27.0,1
-64.0,155.0,-190.0,-41.0,-52.0,19.0,1
-65.0,157.0,-186.0,-21.0,-44.0,12.0,1
-68.0,159.0,-190.0,-5.0,-37.0,7.0,1
-64.0,157.0,-193.0,8.0,-27.0,3.0,1
-66.0,157.0,-195.0,20.0,-18.0,0.0,1
-69.0,159.0,-193.0,26.0,-11.0,-4.0,1
-66.0,158.0,-198.0,32.0,-5.0,-4.0,1
-65.0,155.0,-195.0,38.0,0.0,-6.0,1
-66.0,158.0,-196.0,43.0,6.0,-3.0,1
-68.0,159.0,-195.0,44.0,11.0,-4.0,1
-68.0,157.0,-197.0,44.0,16.0,-2.0,1
-68.0,159.0,-196.0,44.0,20.0,-1.0,1
-67.0,160.0,-194.0,45.0,26.0,1.0,1
-67.0,160.0,-195.0,48.0,29.0,3.0,1
-69.0,160.0,-197.0,49.0,32.0,2.0,1
-65.0,161.0,-194.0,52.0,34.0,2.0,1
-66.0,158.0,-198.0,54.0,37.0,2.0,1
-68.0,157.0,-197.0,57.0,38.0,0.0,1
-66.0,159.0,-196.0,62.0,37.0,0.0,1
-64.0,158.0,-198.0,67.0,39.0,1.0,1
-65.0,171.0,-197.0,73.0,39.0,-1.0,1
-66.0,161.0,-200.0,79.0,39.0,-2.0,1
-67.0,161.0,-201.0,82.0,38.0,-4.0,1
-67.0,163.0,-199.0,84.0,39.0,-5.0,1
-68.0,162.0,-201.0,84.0,37.0,-6.0,1
-66.0,162.0,-199.0,82.0,35.0,-6.0,1
-68.0,158.0,-199.0,80.0,33.0,-6.0,1
-66.0,164.0,-204.0,78.0,30.0,-9.0,1
-67.0,161.0,-199.0,77.0,29.0,-9.0,1
-68.0,161.0,-202.0,76.0,26.0,-10.0,1
-67.0,159.0,-204.0,72.0,25.0,-10.0,1
-68.0,151.0,-200.0,69.0,23.0,-10.0,1
-67.0,158.0,-200.0,63.0,22.0,-9.0,1
-69.0,157.0,-202.0,57.0,21.0,-7.0,1
-68.0,157.0,-199.0,49.0,20.0,-4.0,1
-68.0,155.0,-206.0,43.0,19.0,-3.0,1
-69.0,160.0,-202.0,37.0,21.0,-2.0,1
-68.0,156.0,-200.0,32.0,22.0,-1.0,1
-68.0,160.0,-201.0,25.0,22.0,2.0,1
-66.0,155.0,-201.0,21.0,24.0,4.0,1
-70.0,159.0,-201.0,17.0,26.0,6.0,1
-68.0,158.0,-199.0,13.0,27.0,10.0,1
-68.0,158.0,-203.0,11.0,28.0,13.0,1
-66.0,157.0,-198.0,6.0,28.0,16.0,1
-67.0,158.0,-202.0,1.0,28.0,18.0,1
-67.0,160.0,-196.0,-2.0,30.0,19.0,1
-65.0,156.0,-197.0,-5.0,28.0,21.0,1
-67.0,158.0,-195.0,-7.0,29.0,22.0,1
-67.0,157.0,-198.0,-8.0,28.0,23.0,1
-63.0,161.0,-196.0,-8.0,29.0,23.0,1
-67.0,157.0,-198.0,-7.0,29.0,23.0,1
-66.0,158.0,-200.0,-7.0,30.0,25.0,1
-68.0,160.0,-200.0,-5.0,30.0,24.0,1
-67.0,157.0,-190.0,-3.0,31.0,24.0,1
-67.0,161.0,-199.0,-3.0,32.0,24.0,1
-67.0,158.0,-198.0,-2.0,32.0,24.0,1
-67.0,159.0,-196.0,1.0,34.0,26.0,1
-67.0,159.0,-195.0,1.0,34.0,26.0,1
-66.0,156.0,-200.0,4.0,36.0,28.0,1
-67.0,159.0,-195.0,5.0,40.0,29.0,1
-69.0,155.0,-197.0,8.0,42.0,29.0,1
-65.0,158.0,-195.0,12.0,46.0,30.0,1
-65.0,161.0,-198.0,16.0,48.0,30.0,1
-66.0,161.0,-199.0,22.0,50.0,30.0,1
-60.0,153.0,-198.0,28.0,52.0,30.0,1
-67.0,156.0,-200.0,33.0,55.0,31.0,1
-64.0,154.0,-198.0,37.0,58.0,31.0,1
-67.0,160.0,-197.0,42.0,60.0,32.0,1
-68.0,160.0,-194.0,46.0,62.0,36.0,1
-66.0,158.0,-191.0,49.0,65.0,36.0,1
-66.0,158.0,-197.0,51.0,66.0,38.0,1
-65.0,161.0,-197.0,51.0,67.0,38.0,1
-64.0,160.0,-199.0,54.0,70.0,39.0,1
-64.0,159.0,-196.0,58.0,72.0,39.0,1
-64.0,160.0,-196.0,61.0,72.0,40.0,1
-60.0,158.0,-198.0,64.0,71.0,40.0,1
-65.0,161.0,-196.0,67.0,72.0,40.0,1
-63.0,160.0,-197.0,69.0,72.0,40.0,1
-62.0,161.0,-197.0,72.0,73.0,41.0,1
-65.0,160.0,-197.0,74.0,72.0,39.0,1
-64.0,161.0,-201.0,76.0,70.0,36.0,1
-67.0,163.0,-199.0,78.0,70.0,36.0,1
-61.0,160.0,-200.0,81.0,69.0,35.0,1
-65.0,162.0,-200.0,81.0,68.0,35.0,1
-59.0,164.0,-202.0,84.0,67.0,31.0,1
-61.0,161.0,-202.0,84.0,62.0,26.0,1
-65.0,166.0,-204.0,82.0,57.0,19.0,1
-61.0,163.0,-200.0,80.0,53.0,16.0,1
-62.0,161.0,-200.0,79.0,52.0,15.0,1
-61.0,160.0,-201.0,79.0,49.0,11.0,1
-64.0,161.0,-200.0,78.0,46.0,9.0,1
-62.0,162.0,-202.0,79.0,43.0,7.0,1
-62.0,161.0,-202.0,79.0,39.0,4.0,1
-62.0,159.0,-201.0,79.0,37.0,1.0,1
-60.0,162.0,-201.0,78.0,33.0,0.0,1
-61.0,160.0,-198.0,78.0,29.0,-2.0,1
-64.0,163.0,-202.0,77.0,25.0,-4.0,1
-61.0,163.0,-202.0,76.0,22.0,-7.0,1
-65.0,162.0,-200.0,76.0,19.0,-9.0,1
-59.0,161.0,-199.0,75.0,16.0,-11.0,1
-61.0,159.0,-200.0,74.0,13.0,-13.0,1
-60.0,158.0,-197.0,74.0,10.0,-11.0,1
-65.0,160.0,-201.0,77.0,10.0,-14.0,1
-62.0,159.0,-200.0,79.0,7.0,-15.0,1
-61.0,159.0,-198.0,78.0,4.0,-16.0,1
-59.0,161.0,-201.0,81.0,3.0,-17.0,1
-60.0,158.0,-193.0,83.0,1.0,-18.0,1
-61.0,156.0,-198.0,84.0,1.0,-19.0,1
-64.0,159.0,-197.0,86.0,0.0,-19.0,1
-61.0,161.0,-198.0,87.0,-1.0,-18.0,1
-65.0,158.0,-199.0,89.0,-3.0,-21.0,1
-62.0,158.0,-197.0,91.0,-2.0,-22.0,1
-65.0,160.0,-200.0,93.0,-3.0,-24.0,1
-63.0,159.0,-199.0,95.0,-4.0,-23.0,1
-62.0,156.0,-197.0,95.0,-4.0,-23.0,1
-64.0,154.0,-199.0,96.0,-2.0,-23.0,1
-63.0,157.0,-196.0,95.0,-2.0,-23.0,1
-65.0,162.0,-199.0,94.0,-1.0,-22.0,1
-62.0,158.0,-201.0,95.0,1.0,-22.0,1
-65.0,160.0,-198.0,95.0,2.0,-23.0,1
-66.0,160.0,-198.0,96.0,4.0,-23.0,1
-64.0,161.0,-202.0,98.0,6.0,-21.0,1
-64.0,159.0,-201.0,99.0,7.0,-20.0,1
-63.0,159.0,-201.0,97.0,7.0,-20.0,1
-65.0,160.0,-200.0,97.0,9.0,-19.0,1
-62.0,158.0,-197.0,96.0,9.0,-19.0,1
-66.0,159.0,-200.0,95.0,8.0,-19.0,1
-64.0,155.0,-201.0,96.0,9.0,-19.0,1
-66.0,157.0,-201.0,97.0,10.0,-19.0,1
-67.0,157.0,-204.0,96.0,11.0,-16.0,1
-61.0,158.0,-200.0,95.0,10.0,-16.0,1
-66.0,156.0,-200.0,94.0,12.0,-16.0,1
-62.0,156.0,-202.0,90.0,14.0,-14.0,1
-67.0,161.0,-202.0,88.0,15.0,-15.0,1
-63.0,157.0,-202.0,84.0,19.0,-12.0,1
-63.0,156.0,-197.0,83.0,21.0,-11.0,1
-63.0,159.0,-199.0,83.0,22.0,-7.0,1
-64.0,157.0,-197.0,84.0,24.0,-5.0,1
-64.0,158.0,-199.0,84.0,27.0,-7.0,1
-63.0,154.0,-199.0,84.0,28.0,-5.0,1
-67.0,153.0,-204.0,85.0,32.0,-3.0,1
-61.0,158.0,-203.0,84.0,33.0,-2.0,1
-65.0,159.0,-202.0,82.0,35.0,-1.0,1
-63.0,161.0,-201.0,80.0,35.0,1.0,1
-64.0,160.0,-203.0,78.0,38.0,2.0,1
-64.0,159.0,-203.0,73.0,37.0,3.0,1
-62.0,157.0,-198.0,69.0,36.0,4.0,1
-64.0,157.0,-204.0,66.0,37.0,5.0,1
-65.0,158.0,-202.0,63.0,37.0,5.0,1
-62.0,158.0,-204.0,60.0,34.0,6.0,1
-63.0,156.0,-202.0,55.0,33.0,5.0,1
-61.0,156.0,-204.0,54.0,33.0,5.0,1
-64.0,155.0,-203.0,51.0,32.0,5.0,1
-63.0,156.0,-200.0,50.0,32.0,4.0,1
-64.0,159.0,-203.0,49.0,29.0,3.0,1
-59.0,155.0,-201.0,48.0,28.0,4.0,1
-65.0,157.0,-200.0,47.0,28.0,4.0,1
-63.0,157.0,-200.0,47.0,28.0,4.0,1
-59.0,159.0,-199.0,46.0,28.0,6.0,1
-63.0,158.0,-202.0,45.0,28.0,7.0,1
-64.0,159.0,-200.0,45.0,28.0,6.0,1
-63.0,159.0,-200.0,45.0,29.0,8.0,1
-65.0,157.0,-201.0,44.0,28.0,8.0,1
-60.0,157.0,-200.0,43.0,29.0,6.0,1
-62.0,156.0,-203.0,43.0,29.0,5.0,1
-60.0,158.0,-203.0,43.0,27.0,5.0,1
-64.0,157.0,-199.0,43.0,28.0,4.0,1
-61.0,158.0,-201.0,44.0,27.0,4.0,1
-61.0,156.0,-202.0,46.0,28.0,4.0,1
-63.0,156.0,-200.0,46.0,27.0,2.0,1
-63.0,158.0,-204.0,47.0,28.0,0.0,1
-63.0,159.0,-200.0,48.0,26.0,-1.0,1
-59.0,159.0,-201.0,49.0,25.0,-2.0,1
-62.0,156.0,-203.0,48.0,24.0,-2.0,1
-61.0,156.0,-204.0,47.0,23.0,-2.0,1
-62.0,157.0,-200.0,48.0,22.0,-4.0,1
-63.0,156.0,-199.0,49.0,20.0,-5.0,1
-64.0,160.0,-201.0,49.0,21.0,-6.0,1
-64.0,161.0,-201.0,48.0,19.0,-8.0,1
-61.0,159.0,-202.0,48.0,19.0,-10.0,1
-63.0,158.0,-200.0,48.0,17.0,-8.0,1
-62.0,159.0,-201.0,49.0,16.0,-11.0,1
-59.0,157.0,-201.0,48.0,13.0,-11.0,1
-60.0,155.0,-200.0,48.0,12.0,-13.0,1
-60.0,161.0,-193.0,47.0,11.0,-15.0,1
-62.0,158.0,-199.0,49.0,12.0,-15.0,1
-61.0,157.0,-200.0,51.0,10.0,-17.0,1
-61.0,158.0,-198.0,52.0,9.0,-19.0,1
-60.0,156.0,-201.0,53.0,8.0,-19.0,1
-60.0,155.0,-202.0,55.0,9.0,-19.0,1
-61.0,157.0,-203.0,55.0,7.0,-20.0,1
-59.0,154.0,-200.0,56.0,7.0,-20.0,1
-59.0,158.0,-202.0,57.0,7.0,-20.0,1
-62.0,157.0,-203.0,57.0,7.0,-20.0,1
-59.0,157.0,-201.0,61.0,7.0,-19.0,1
-61.0,156.0,-201.0,60.0,7.0,-20.0,1
-62.0,155.0,-201.0,57.0,8.0,-22.0,1
-62.0,156.0,-203.0,57.0,9.0,-20.0,1
-62.0,156.0,-203.0,59.0,7.0,-21.0,1
-63.0,154.0,-199.0,57.0,8.0,-22.0,1
-62.0,154.0,-200.0,58.0,8.0,-22.0,1
-62.0,158.0,-199.0,59.0,9.0,-20.0,1
-65.0,159.0,-200.0,56.0,10.0,-21.0,1
-60.0,155.0,-200.0,57.0,9.0,-20.0,1
-61.0,158.0,-201.0,57.0,9.0,-22.0,1
-60.0,149.0,-204.0,57.0,8.0,-23.0,1
-60.0,158.0,-201.0,56.0,8.0,-20.0,1
-62.0,157.0,-200.0,56.0,9.0,-21.0,1
-62.0,157.0,-203.0,57.0,10.0,-20.0,1
-61.0,158.0,-201.0,55.0,9.0,-20.0,1
-61.0,158.0,-200.0,53.0,9.0,-20.0,1
-61.0,155.0,-201.0,51.0,8.0,-20.0,1
-65.0,162.0,-203.0,51.0,8.0,-18.0,1
-64.0,156.0,-201.0,49.0,7.0,-20.0,1
-63.0,158.0,-200.0,46.0,8.0,-19.0,1
-63.0,158.0,-200.0,45.0,8.0,-17.0,1
-54.0,154.0,-203.0,45.0,10.0,-17.0,1
-63.0,160.0,-202.0,45.0,8.0,-15.0,1
-63.0,159.0,-201.0,43.0,8.0,-13.0,1
-62.0,158.0,-202.0,43.0,9.0,-15.0,1
-62.0,158.0,-203.0,44.0,9.0,-14.0,1
-64.0,158.0,-201.0,43.0,11.0,-14.0,1
-64.0,155.0,-200.0,42.0,12.0,-14.0,1
-63.0,158.0,-200.0,41.0,12.0,-12.0,1
-67.0,164.0,-201.0,41.0,13.0,-12.0,1
-61.0,157.0,-200.0,40.0,12.0,-9.0,1
-64.0,160.0,-205.0,41.0,13.0,-10.0,1
-64.0,159.0,-202.0,41.0,15.0,-9.0,1
-62.0,159.0,-201.0,40.0,14.0,-8.0,1
-64.0,156.0,-201.0,41.0,16.0,-9.0,1
-64.0,158.0,-199.0,41.0,16.0,-9.0,1
-62.0,157.0,-203.0,40.0,17.0,-8.0,1
-63.0,156.0,-199.0,41.0,18.0,-7.0,1
-64.0,157.0,-202.0,42.0,18.0,-7.0,1
-62.0,155.0,-203.0,41.0,18.0,-7.0,1
-62.0,153.0,-203.0,41.0,17.0,-7.0,1
-62.0,159.0,-202.0,39.0,17.0,-6.0,1
-64.0,155.0,-201.0,40.0,18.0,-7.0,1
-64.0,157.0,-199.0,39.0,18.0,-8.0,1
-59.0,157.0,-201.0,38.0,19.0,-8.0,1
-61.0,154.0,-199.0,38.0,18.0,-7.0,1
-61.0,157.0,-197.0,37.0,17.0,-9.0,1
-65.0,157.0,-200.0,38.0,15.0,-11.0,1
-63.0,159.0,-200.0,37.0,15.0,-12.0,1
-64.0,159.0,-199.0,36.0,16.0,-10.0,1
-60.0,159.0,-200.0,37.0,15.0,-10.0,1
-62.0,155.0,-196.0,37.0,14.0,-11.0,1
-62.0,156.0,-204.0,39.0,14.0,-11.0,1
-65.0,157.0,-202.0,38.0,15.0,-11.0,1
-65.0,156.0,-200.0,38.0,14.0,-11.0,1
-61.0,159.0,-200.0,39.0,14.0,-10.0,1
-64.0,157.0,-201.0,41.0,15.0,-12.0,1
-64.0,157.0,-199.0,41.0,14.0,-10.0,1
-65.0,159.0,-198.0,42.0,14.0,-9.0,1
-61.0,160.0,-200.0,43.0,15.0,-10.0,1
-62.0,160.0,-201.0,40.0,16.0,-11.0,1
-63.0,157.0,-199.0,40.0,16.0,-10.0,1
-62.0,157.0,-195.0,40.0,17.0,-9.0,1
-61.0,159.0,-199.0,40.0,16.0,-9.0,1
-64.0,158.0,-200.0,41.0,16.0,-11.0,1
-61.0,155.0,-192.0,42.0,16.0,-10.0,1
-62.0,157.0,-201.0,43.0,15.0,-12.0,1
-61.0,158.0,-201.0,44.0,16.0,-10.0,1
-64.0,160.0,-198.0,42.0,16.0,-11.0,1
-63.0,159.0,-202.0,42.0,14.0,-10.0,1
-60.0,158.0,-201.0,41.0,13.0,-11.0,1
-59.0,155.0,-201.0,39.0,12.0,-12.0,1
-63.0,156.0,-198.0,39.0,11.0,-14.0,1
-63.0,158.0,-206.0,39.0,10.0,-13.0,1
-60.0,159.0,-204.0,41.0,9.0,-15.0,1
-62.0,153.0,-202.0,44.0,9.0,-13.0,1
-60.0,159.0,-199.0,44.0,8.0,-14.0,1
-63.0,157.0,-203.0,44.0,8.0,-14.0,1
-62.0,156.0,-199.0,45.0,7.0,-14.0,1
-61.0,152.0,-200.0,44.0,10.0,-14.0,1
-62.0,155.0,-201.0,45.0,10.0,-14.0,1
-63.0,157.0,-199.0,44.0,11.0,-15.0,1
-61.0,154.0,-200.0,43.0,10.0,-15.0,1
-63.0,158.0,-201.0,45.0,10.0,-12.0,1
-63.0,154.0,-197.0,47.0,11.0,-11.0,1
-61.0,159.0,-203.0,47.0,12.0,-12.0,1
-62.0,157.0,-202.0,47.0,14.0,-14.0,1
-62.0,161.0,-200.0,48.0,16.0,-12.0,1
-61.0,158.0,-198.0,49.0,16.0,-11.0,1
-65.0,158.0,-199.0,51.0,16.0,-10.0,1
-60.0,155.0,-200.0,53.0,18.0,-7.0,1
-61.0,157.0,-204.0,50.0,18.0,-10.0,1
-64.0,159.0,-204.0,49.0,17.0,-9.0,1
-62.0,160.0,-200.0,46.0,16.0,-11.0,1
-62.0,158.0,-201.0,45.0,16.0,-12.0,1
-64.0,158.0,-201.0,44.0,14.0,-12.0,1
-65.0,159.0,-203.0,42.0,14.0,-11.0,1
-61.0,159.0,-199.0,43.0,14.0,-13.0,1
-67.0,159.0,-197.0,42.0,11.0,-13.0,1
-64.0,157.0,-202.0,42.0,11.0,-12.0,1
-61.0,160.0,-201.0,42.0,10.0,-11.0,1
-65.0,161.0,-201.0,41.0,10.0,-12.0,1
-61.0,158.0,-197.0,41.0,9.0,-12.0,1
-64.0,158.0,-203.0,40.0,10.0,-13.0,1
-62.0,156.0,-203.0,41.0,10.0,-14.0,1
-64.0,158.0,-198.0,42.0,9.0,-13.0,1
-63.0,156.0,-206.0,41.0,10.0,-12.0,1
-59.0,159.0,-202.0,40.0,10.0,-11.0,1
-61.0,155.0,-203.0,40.0,11.0,-13.0,1
-62.0,159.0,-201.0,40.0,11.0,-13.0,1
-64.0,159.0,-200.0,41.0,12.0,-13.0,1
-62.0,160.0,-199.0,41.0,12.0,-10.0,1
-63.0,157.0,-196.0,42.0,13.0,-11.0,1
-60.0,158.0,-198.0,43.0,13.0,-10.0,1
-60.0,155.0,-200.0,44.0,13.0,-11.0,1
-62.0,159.0,-201.0,45.0,13.0,-11.0,1
-63.0,160.0,-199.0,46.0,13.0,-9.0,1
-64.0,154.0,-203.0,47.0,14.0,-10.0,1
-62.0,154.0,-198.0,48.0,13.0,-10.0,1
-69.0,154.0,-203.0,47.0,14.0,-10.0,1
-59.0,156.0,-200.0,46.0,16.0,-9.0,1
-61.0,157.0,-201.0,45.0,15.0,-10.0,1
-62.0,160.0,-200.0,45.0,16.0,-10.0,1
-60.0,157.0,-200.0,44.0,15.0,-9.0,1
-65.0,159.0,-201.0,45.0,16.0,-12.0,1
-61.0,157.0,-202.0,46.0,14.0,-12.0,1
-61.0,156.0,-199.0,46.0,15.0,-11.0,1
-59.0,160.0,-201.0,46.0,14.0,-10.0,1
-61.0,160.0,-203.0,45.0,12.0,-11.0,1
-62.0,155.0,-199.0,45.0,11.0,-13.0,1
-62.0,155.0,-199.0,42.0,11.0,-14.0,1
-62.0,159.0,-199.0,41.0,11.0,-15.0,1
-60.0,155.0,-201.0,39.0,11.0,-13.0,1
-62.0,157.0,-200.0,37.0,10.0,-12.0,1
-63.0,158.0,-198.0,36.0,10.0,-11.0,1
-62.0,157.0,-198.0,37.0,11.0,-10.0,1
-62.0,157.0,-198.0,38.0,10.0,-12.0,1
-60.0,159.0,-201.0,38.0,10.0,-12.0,1
-64.0,156.0,-202.0,39.0,10.0,-14.0,1
-62.0,159.0,-199.0,40.0,11.0,-12.0,1
-65.0,159.0,-202.0,39.0,10.0,-12.0,1
-64.0,158.0,-204.0,40.0,11.0,-13.0,1
-62.0,160.0,-199.0,40.0,12.0,-12.0,1
-62.0,157.0,-199.0,40.0,11.0,-13.0,1
-64.0,156.0,-202.0,40.0,12.0,-12.0,1
-63.0,157.0,-201.0,40.0,12.0,-12.0,1
-61.0,161.0,-201.0,40.0,11.0,-12.0,1
-64.0,158.0,-200.0,39.0,11.0,-11.0,1
-63.0,159.0,-200.0,38.0,12.0,-11.0,1
-63.0,159.0,-202.0,37.0,12.0,-12.0,1
-64.0,161.0,-201.0,39.0,12.0,-13.0,1
-67.0,160.0,-201.0,40.0,12.0,-11.0,1
-63.0,156.0,-204.0,39.0,12.0,-11.0,1
-61.0,156.0,-200.0,41.0,10.0,-12.0,1
-62.0,161.0,-200.0,40.0,12.0,-11.0,1
-62.0,157.0,-197.0,41.0,13.0,-12.0,1
-62.0,158.0,-201.0,40.0,12.0,-11.0,1
-62.0,157.0,-199.0,40.0,13.0,-9.0,1
-65.0,157.0,-198.0,41.0,14.0,-11.0,1
-65.0,158.0,-199.0,41.0,12.0,-11.0,1
-63.0,161.0,-200.0,41.0,11.0,-10.0,1
-64.0,163.0,-200.0,41.0,12.0,-11.0,1
-64.0,158.0,-202.0,40.0,11.0,-12.0,1
-64.0,161.0,-196.0,40.0,12.0,-12.0,1
-65.0,159.0,-199.0,40.0,11.0,-10.0,1
-63.0,160.0,-202.0,41.0,12.0,-10.0,1
-63.0,158.0,-201.0,41.0,13.0,-11.0,1
-64.0,157.0,-199.0,41.0,12.0,-10.0,1
-62.0,157.0,-200.0,41.0,12.0,-11.0,1
-63.0,159.0,-198.0,42.0,12.0,-11.0,1
-60.0,155.0,-198.0,43.0,12.0,-12.0,1
-59.0,158.0,-201.0,42.0,12.0,-11.0,1
-68.0,161.0,-201.0,43.0,11.0,-11.0,1
-63.0,160.0,-204.0,43.0,12.0,-12.0,1
-63.0,155.0,-205.0,43.0,12.0,-10.0,1
-64.0,158.0,-200.0,44.0,12.0,-11.0,1
-62.0,154.0,-200.0,44.0,12.0,-11.0,1
-60.0,157.0,-199.0,45.0,11.0,-11.0,1
-64.0,158.0,-200.0,45.0,12.0,-10.0,1
-63.0,158.0,-199.0,45.0,13.0,-9.0,1
-63.0,159.0,-201.0,44.0,12.0,-12.0,1
-62.0,163.0,-202.0,44.0,13.0,-12.0,1
-63.0,159.0,-199.0,45.0,14.0,-10.0,1
-61.0,154.0,-200.0,45.0,13.0,-10.0,1
-62.0,159.0,-198.0,45.0,12.0,-11.0,1
-67.0,160.0,-197.0,42.0,12.0,-11.0,1
-63.0,160.0,-199.0,43.0,11.0,-11.0,1
-63.0,160.0,-200.0,42.0,11.0,-12.0,1
-63.0,157.0,-202.0,41.0,10.0,-11.0,1
-63.0,158.0,-201.0,41.0,10.0,-12.0,1
-63.0,157.0,-200.0,39.0,11.0,-12.0,1
-62.0,156.0,-200.0,39.0,10.0,-13.0,1
-63.0,156.0,-197.0,38.0,9.0,-13.0,1
-63.0,159.0,-201.0,38.0,8.0,-12.0,1
-63.0,160.0,-200.0,38.0,9.0,-12.0,1
-62.0,158.0,-200.0,37.0,10.0,-12.0,1
-62.0,155.0,-197.0,37.0,10.0,-10.0,1
-63.0,158.0,-199.0,37.0,10.0,-11.0,1
-66.0,161.0,-199.0,37.0,10.0,-11.0,1
-61.0,158.0,-203.0,37.0,10.0,-12.0,1
-61.0,163.0,-199.0,38.0,10.0,-13.0,1
-61.0,160.0,-198.0,38.0,9.0,-13.0,1
-61.0,156.0,-201.0,39.0,9.0,-12.0,1
-65.0,159.0,-200.0,40.0,11.0,-12.0,1
-63.0,158.0,-197.0,39.0,12.0,-12.0,1
-63.0,161.0,-199.0,41.0,11.0,-11.0,1
-67.0,161.0,-196.0,43.0,12.0,-12.0,1
-60.0,158.0,-200.0,41.0,11.0,-12.0,1
-61.0,159.0,-200.0,39.0,13.0,-12.0,1
-63.0,159.0,-200.0,38.0,11.0,-12.0,1
-62.0,157.0,-200.0,38.0,11.0,-12.0,1
-61.0,158.0,-200.0,37.0,13.0,-12.0,1
-64.0,160.0,-200.0,37.0,12.0,-10.0,1
-64.0,157.0,-201.0,35.0,12.0,-12.0,1
-63.0,160.0,-202.0,35.0,12.0,-12.0,1
-63.0,159.0,-198.0,35.0,12.0,-12.0,1
-66.0,160.0,-202.0,37.0,13.0,-13.0,1
-62.0,159.0,-201.0,38.0,11.0,-13.0,1
-63.0,159.0,-202.0,37.0,11.0,-13.0,1
-63.0,162.0,-200.0,36.0,10.0,-12.0,1
-63.0,160.0,-201.0,34.0,10.0,-13.0,1
-62.0,160.0,-202.0,34.0,11.0,-11.0,1
-62.0,158.0,-200.0,35.0,9.0,-12.0,1
-59.0,155.0,-200.0,36.0,7.0,-11.0,1
-64.0,163.0,-199.0,37.0,7.0,-12.0,1
-65.0,157.0,-204.0,36.0,7.0,-12.0,1
-61.0,159.0,-200.0,35.0,7.0,-12.0,1
-65.0,158.0,-197.0,35.0,5.0,-12.0,1
-65.0,158.0,-206.0,35.0,6.0,-11.0,1
-64.0,158.0,-198.0,35.0,7.0,-11.0,1
-62.0,157.0,-196.0,38.0,6.0,-12.0,1
-63.0,160.0,-198.0,41.0,9.0,-11.0,1
-62.0,160.0,-199.0,43.0,10.0,-11.0,1
-63.0,160.0,-199.0,43.0,11.0,-11.0,1
-65.0,163.0,-200.0,41.0,13.0,-9.0,1
-62.0,159.0,-199.0,43.0,15.0,-10.0,1
-61.0,156.0,-200.0,44.0,16.0,-10.0,1
-66.0,161.0,-200.0,44.0,16.0,-10.0,1
-60.0,159.0,-201.0,42.0,17.0,-7.0,1
-62.0,155.0,-194.0,41.0,17.0,-8.0,1
-63.0,158.0,-199.0,42.0,16.0,-8.0,1
-59.0,160.0,-200.0,42.0,16.0,-8.0,1
-62.0,159.0,-199.0,41.0,15.0,-7.0,1
-59.0,158.0,-200.0,41.0,15.0,-8.0,1
-63.0,159.0,-199.0,42.0,14.0,-7.0,1
-65.0,157.0,-200.0,42.0,13.0,-7.0,1
-61.0,160.0,-200.0,44.0,12.0,-8.0,1
-65.0,161.0,-201.0,44.0,11.0,-9.0,1
-66.0,162.0,-202.0,42.0,10.0,-9.0,1
-63.0,162.0,-198.0,41.0,10.0,-9.0,1
-61.0,156.0,-195.0,40.0,11.0,-8.0,1
-63.0,159.0,-200.0,39.0,11.0,-11.0,1
-60.0,161.0,-202.0,38.0,11.0,-12.0,1
-63.0,159.0,-196.0,39.0,10.0,-11.0,1
-62.0,159.0,-200.0,39.0,12.0,-10.0,1
-63.0,158.0,-198.0,41.0,10.0,-11.0,1
-63.0,159.0,-200.0,41.0,10.0,-10.0,1
-63.0,162.0,-195.0,40.0,10.0,-10.0,1
-63.0,158.0,-202.0,42.0,10.0,-9.0,1
-61.0,158.0,-197.0,42.0,11.0,-9.0,1
-59.0,158.0,-200.0,43.0,11.0,-10.0,1
-64.0,157.0,-203.0,44.0,10.0,-10.0,1
-61.0,158.0,-198.0,46.0,10.0,-11.0,1
-59.0,156.0,-197.0,48.0,9.0,-12.0,1
-64.0,156.0,-202.0,49.0,9.0,-11.0,1
-62.0,160.0,-202.0,49.0,11.0,-10.0,1
-61.0,156.0,-200.0,48.0,11.0,-11.0,1
-64.0,160.0,-199.0,48.0,10.0,-10.0,1
-64.0,159.0,-198.0,46.0,11.0,-9.0,1
-65.0,158.0,-199.0,47.0,11.0,-10.0,1
-61.0,161.0,-199.0,46.0,12.0,-11.0,1
-62.0,159.0,-203.0,45.0,13.0,-10.0,1
-60.0,160.0,-199.0,46.0,13.0,-9.0,1
-57.0,163.0,-197.0,50.0,12.0,-9.0,1
-62.0,161.0,-199.0,51.0,10.0,-11.0,1
-62.0,160.0,-202.0,50.0,10.0,-12.0,1
-62.0,159.0,-202.0,50.0,9.0,-11.0,1
-63.0,158.0,-204.0,49.0,9.0,-11.0,1
-63.0,161.0,-199.0,48.0,8.0,-11.0,1
-64.0,155.0,-200.0,47.0,7.0,-12.0,1
-63.0,159.0,-198.0,46.0,7.0,-11.0,1
-63.0,158.0,-194.0,46.0,7.0,-12.0,1
-62.0,155.0,-200.0,45.0,7.0,-12.0,1
-60.0,159.0,-201.0,46.0,6.0,-12.0,1
-64.0,159.0,-198.0,46.0,5.0,-13.0,1
-61.0,155.0,-200.0,48.0,8.0,-11.0,1
-65.0,162.0,-199.0,49.0,8.0,-11.0,1
-61.0,157.0,-197.0,50.0,9.0,-11.0,1
-63.0,159.0,-198.0,49.0,9.0,-10.0,1
-63.0,160.0,-199.0,50.0,10.0,-9.0,1
-66.0,159.0,-200.0,50.0,10.0,-10.0,1
-62.0,158.0,-199.0,51.0,12.0,-9.0,1
-64.0,160.0,-202.0,51.0,12.0,-9.0,1
-65.0,160.0,-200.0,52.0,13.0,-11.0,1
-61.0,154.0,-200.0,52.0,14.0,-10.0,1
-61.0,158.0,-199.0,53.0,14.0,-9.0,1
-65.0,158.0,-200.0,51.0,13.0,-9.0,1
-65.0,157.0,-201.0,52.0,12.0,-10.0,1
-61.0,158.0,-200.0,52.0,13.0,-9.0,1
-63.0,162.0,-199.0,52.0,13.0,-9.0,1
-62.0,160.0,-200.0,51.0,12.0,-10.0,1
-63.0,161.0,-199.0,52.0,12.0,-10.0,1
-62.0,159.0,-198.0,52.0,12.0,-7.0,1
-62.0,158.0,-197.0,51.0,13.0,-8.0,1
-62.0,161.0,-199.0,51.0,13.0,-9.0,1
-66.0,167.0,-193.0,50.0,13.0,-10.0,1
-63.0,159.0,-199.0,50.0,12.0,-10.0,1
-61.0,158.0,-196.0,50.0,12.0,-9.0,1
-61.0,158.0,-200.0,51.0,13.0,-8.0,1
-62.0,160.0,-199.0,50.0,12.0,-9.0,1
-61.0,159.0,-199.0,51.0,13.0,-8.0,1
-62.0,156.0,-195.0,52.0,13.0,-7.0,1
-60.0,159.0,-196.0,52.0,13.0,-7.0,1
-60.0,157.0,-200.0,52.0,14.0,-7.0,1
-63.0,159.0,-199.0,53.0,13.0,-7.0,1
-67.0,157.0,-197.0,52.0,11.0,-7.0,1
-59.0,157.0,-199.0,52.0,13.0,-6.0,1
-63.0,158.0,-201.0,53.0,13.0,-7.0,1
-65.0,159.0,-197.0,55.0,15.0,-6.0,1
-63.0,157.0,-198.0,54.0,15.0,-6.0,1
-61.0,158.0,-200.0,55.0,15.0,-8.0,1
-65.0,160.0,-200.0,55.0,15.0,-5.0,1
-65.0,161.0,-202.0,55.0,14.0,-6.0,1
-61.0,159.0,-204.0,55.0,16.0,-7.0,1
-63.0,159.0,-197.0,53.0,15.0,-7.0,1
-64.0,163.0,-197.0,55.0,15.0,-6.0,1
-61.0,153.0,-200.0,55.0,14.0,-5.0,1
-64.0,159.0,-200.0,55.0,16.0,-8.0,1
-63.0,157.0,-200.0,55.0,14.0,-6.0,1
-63.0,158.0,-198.0,55.0,13.0,-6.0,1
-64.0,162.0,-199.0,54.0,14.0,-7.0,1
-62.0,158.0,-198.0,54.0,13.0,-7.0,1
-61.0,159.0,-198.0,55.0,14.0,-7.0,1
-64.0,160.0,-200.0,55.0,15.0,-7.0,1
-67.0,161.0,-199.0,55.0,14.0,-8.0,1
-64.0,158.0,-199.0,54.0,13.0,-9.0,1
-65.0,161.0,-199.0,53.0,14.0,-7.0,1
-63.0,162.0,-201.0,53.0,14.0,-6.0,1
-60.0,156.0,-200.0,53.0,14.0,-6.0,1
-66.0,160.0,-200.0,53.0,13.0,-7.0,1
-60.0,159.0,-199.0,52.0,13.0,-8.0,1
-61.0,158.0,-199.0,51.0,13.0,-6.0,1
-61.0,159.0,-198.0,52.0,12.0,-7.0,1
-62.0,160.0,-198.0,52.0,13.0,-7.0,1
-65.0,159.0,-199.0,53.0,13.0,-6.0,1
-62.0,157.0,-199.0,53.0,12.0,-7.0,1
-61.0,160.0,-199.0,54.0,13.0,-7.0,1
-61.0,161.0,-200.0,54.0,12.0,-7.0,1
-59.0,157.0,-198.0,54.0,13.0,-6.0,1
-62.0,159.0,-201.0,54.0,13.0,-8.0,1
-62.0,159.0,-197.0,55.0,14.0,-5.0,1
-64.0,161.0,-198.0,54.0,14.0,-7.0,1
-62.0,160.0,-199.0,55.0,14.0,-5.0,1
-61.0,156.0,-200.0,55.0,16.0,-6.0,1
-64.0,158.0,-199.0,57.0,16.0,-5.0,1
-60.0,155.0,-198.0,57.0,16.0,-5.0,1
-62.0,156.0,-195.0,56.0,16.0,-5.0,1
-62.0,160.0,-197.0,55.0,15.0,-4.0,1
-61.0,158.0,-200.0,56.0,15.0,-6.0,1
-60.0,155.0,-198.0,55.0,16.0,-5.0,1
-62.0,160.0,-201.0,58.0,17.0,-5.0,1
-64.0,160.0,-198.0,55.0,18.0,-3.0,1
-62.0,159.0,-201.0,54.0,18.0,-4.0,1
-62.0,161.0,-201.0,54.0,17.0,-5.0,1
-61.0,157.0,-198.0,55.0,16.0,-5.0,1
-62.0,159.0,-201.0,54.0,18.0,-7.0,1
-62.0,163.0,-198.0,55.0,18.0,-5.0,1
-62.0,161.0,-201.0,56.0,19.0,-6.0,1
-61.0,160.0,-202.0,57.0,17.0,-7.0,1
-61.0,158.0,-199.0,58.0,16.0,-5.0,1
-65.0,159.0,-200.0,56.0,15.0,-4.0,1
-65.0,159.0,-200.0,56.0,14.0,-6.0,1
-58.0,158.0,-205.0,56.0,13.0,-6.0,1
-60.0,158.0,-201.0,56.0,14.0,-6.0,1
-63.0,158.0,-197.0,59.0,13.0,-4.0,1
-61.0,158.0,-198.0,58.0,14.0,-5.0,1
-65.0,159.0,-197.0,59.0,13.0,-5.0,1
-62.0,158.0,-200.0,58.0,13.0,-5.0,1
-61.0,159.0,-201.0,56.0,12.0,-5.0,1
-62.0,157.0,-200.0,56.0,15.0,-5.0,1
-63.0,159.0,-194.0,56.0,15.0,-5.0,1
-61.0,157.0,-200.0,56.0,18.0,-3.0,1
-62.0,160.0,-198.0,56.0,19.0,-2.0,1
-64.0,159.0,-195.0,57.0,20.0,-5.0,1
-63.0,160.0,-200.0,58.0,21.0,-4.0,1
-61.0,162.0,-201.0,60.0,21.0,-4.0,1
-61.0,158.0,-200.0,61.0,23.0,-3.0,1
-63.0,159.0,-200.0,62.0,24.0,-3.0,1
-64.0,161.0,-200.0,63.0,23.0,-2.0,1
-62.0,159.0,-198.0,61.0,22.0,-2.0,1
-65.0,161.0,-205.0,59.0,22.0,-1.0,1
-62.0,160.0,-199.0,57.0,21.0,0.0,1
-64.0,161.0,-204.0,55.0,22.0,-2.0,1
-61.0,158.0,-201.0,54.0,22.0,-3.0,1
-65.0,155.0,-199.0,51.0,21.0,-3.0,1
-61.0,159.0,-200.0,50.0,20.0,-3.0,1
-61.0,159.0,-202.0,49.0,17.0,-4.0,1
-65.0,159.0,-201.0,50.0,17.0,-4.0,1
-62.0,158.0,-200.0,50.0,17.0,-5.0,1
-62.0,161.0,-199.0,52.0,14.0,-4.0,1
-62.0,159.0,-197.0,51.0,14.0,-4.0,1
-64.0,160.0,-199.0,51.0,14.0,-5.0,1
-65.0,158.0,-202.0,52.0,15.0,-5.0,1
-51.0,160.0,-203.0,51.0,15.0,-4.0,1
-64.0,160.0,-201.0,53.0,15.0,-2.0,1
-62.0,155.0,-198.0,52.0,15.0,-2.0,1
-62.0,162.0,-200.0,55.0,15.0,-3.0,1
-62.0,161.0,-201.0,55.0,15.0,-2.0,1
-61.0,159.0,-199.0,54.0,16.0,-3.0,1
-61.0,156.0,-198.0,55.0,16.0,-2.0,1
-60.0,156.0,-201.0,56.0,17.0,-3.0,1
-58.0,158.0,-198.0,55.0,17.0,-3.0,1
-64.0,158.0,-196.0,59.0,18.0,-4.0,1
-64.0,151.0,-199.0,60.0,18.0,-4.0,1
-60.0,156.0,-203.0,61.0,18.0,-4.0,1
-63.0,160.0,-195.0,63.0,19.0,-4.0,1
-64.0,158.0,-200.0,62.0,19.0,-3.0,1
-59.0,158.0,-200.0,63.0,17.0,-2.0,1
-61.0,160.0,-200.0,61.0,18.0,-5.0,1
-61.0,160.0,-204.0,60.0,19.0,-3.0,1
-61.0,159.0,-200.0,59.0,19.0,-4.0,1
-60.0,157.0,-201.0,58.0,18.0,-4.0,1
-63.0,162.0,-199.0,58.0,18.0,-4.0,1
-63.0,157.0,-203.0,57.0,17.0,-6.0,1
-65.0,157.0,-201.0,57.0,18.0,-6.0,1
-60.0,160.0,-200.0,58.0,19.0,-8.0,1
-61.0,159.0,-202.0,59.0,17.0,-8.0,1
-61.0,158.0,-200.0,58.0,16.0,-10.0,1
-63.0,157.0,-201.0,55.0,14.0,-11.0,1
-59.0,158.0,-197.0,54.0,11.0,-9.0,1
-64.0,157.0,-199.0,52.0,9.0,-10.0,1
-62.0,161.0,-201.0,50.0,9.0,-11.0,1
-61.0,159.0,-198.0,50.0,8.0,-9.0,1
-63.0,159.0,-201.0,49.0,9.0,-10.0,1
-61.0,158.0,-199.0,50.0,7.0,-12.0,1
-60.0,156.0,-199.0,50.0,9.0,-12.0,1
-61.0,160.0,-200.0,51.0,8.0,-14.0,1
-59.0,159.0,-201.0,50.0,8.0,-12.0,1
-58.0,154.0,-202.0,50.0,7.0,-13.0,1
-60.0,158.0,-201.0,50.0,7.0,-13.0,1
-60.0,156.0,-200.0,49.0,7.0,-13.0,1
-61.0,158.0,-201.0,49.0,8.0,-14.0,1
-61.0,161.0,-202.0,49.0,9.0,-14.0,1
-63.0,159.0,-204.0,49.0,10.0,-14.0,1
-61.0,156.0,-199.0,49.0,10.0,-15.0,1
-61.0,160.0,-199.0,47.0,11.0,-14.0,1
-60.0,157.0,-204.0,48.0,10.0,-14.0,1
-62.0,158.0,-200.0,46.0,9.0,-15.0,1
-62.0,157.0,-199.0,46.0,9.0,-12.0,1
-61.0,160.0,-202.0,46.0,9.0,-14.0,1
-62.0,157.0,-201.0,47.0,10.0,-13.0,1
-63.0,158.0,-200.0,46.0,10.0,-16.0,1
-61.0,160.0,-202.0,47.0,9.0,-17.0,1
-63.0,160.0,-201.0,46.0,8.0,-15.0,1
-61.0,160.0,-201.0,46.0,8.0,-15.0,1
-61.0,158.0,-199.0,46.0,7.0,-15.0,1
-63.0,159.0,-202.0,46.0,7.0,-17.0,1
-62.0,163.0,-201.0,47.0,7.0,-19.0,1
-63.0,160.0,-201.0,48.0,6.0,-18.0,1
-58.0,158.0,-201.0,47.0,6.0,-19.0,1
-63.0,159.0,-200.0,46.0,4.0,-20.0,1
-62.0,158.0,-203.0,45.0,3.0,-20.0,1
-63.0,160.0,-201.0,44.0,1.0,-21.0,1
-61.0,160.0,-196.0,45.0,0.0,-21.0,1
-60.0,156.0,-199.0,42.0,-2.0,-21.0,1
-65.0,158.0,-198.0,41.0,-3.0,-21.0,1
-62.0,157.0,-199.0,40.0,-4.0,-23.0,1
-64.0,159.0,-202.0,39.0,-4.0,-22.0,1
-63.0,152.0,-198.0,40.0,-3.0,-22.0,1
-63.0,157.0,-202.0,40.0,-2.0,-23.0,1
-59.0,159.0,-200.0,38.0,-2.0,-21.0,1
-63.0,160.0,-201.0,36.0,0.0,-21.0,1
-64.0,158.0,-201.0,35.0,0.0,-21.0,1
-60.0,155.0,-200.0,36.0,1.0,-20.0,1
-64.0,159.0,-201.0,35.0,3.0,-18.0,1
-62.0,159.0,-199.0,33.0,3.0,-17.0,1
-64.0,158.0,-199.0,32.0,4.0,-15.0,1
-62.0,156.0,-200.0,31.0,5.0,-16.0,1
-62.0,161.0,-199.0,31.0,6.0,-14.0,1
-62.0,157.0,-200.0,30.0,6.0,-16.0,1
-62.0,161.0,-199.0,29.0,7.0,-14.0,1
-65.0,161.0,-199.0,29.0,7.0,-15.0,1
-60.0,157.0,-200.0,30.0,7.0,-15.0,1
-65.0,162.0,-200.0,32.0,8.0,-15.0,1
-60.0,159.0,-198.0,33.0,9.0,-14.0,1
-63.0,159.0,-198.0,34.0,9.0,-13.0,1
-64.0,160.0,-199.0,36.0,9.0,-13.0,1
-63.0,160.0,-198.0,37.0,10.0,-13.0,1
-62.0,159.0,-198.0,38.0,12.0,-12.0,1
-64.0,158.0,-199.0,40.0,12.0,-10.0,1
-62.0,153.0,-198.0,41.0,12.0,-10.0,1
-59.0,157.0,-205.0,41.0,13.0,-11.0,1
-65.0,163.0,-201.0,42.0,14.0,-11.0,1
-62.0,160.0,-200.0,43.0,13.0,-10.0,1
-62.0,159.0,-200.0,44.0,13.0,-10.0,1
-62.0,158.0,-200.0,46.0,15.0,-10.0,1
-61.0,158.0,-200.0,46.0,14.0,-10.0,1
-59.0,157.0,-199.0,47.0,13.0,-11.0,1
-63.0,156.0,-196.0,46.0,14.0,-10.0,1
-64.0,157.0,-201.0,48.0,15.0,-11.0,1
-62.0,160.0,-197.0,47.0,15.0,-10.0,1
-62.0,158.0,-197.0,48.0,13.0,-9.0,1
-62.0,158.0,-199.0,49.0,14.0,-12.0,1
-65.0,159.0,-198.0,50.0,15.0,-11.0,1
-62.0,158.0,-195.0,48.0,14.0,-10.0,1
-64.0,158.0,-198.0,47.0,13.0,-11.0,1
-64.0,161.0,-199.0,47.0,13.0,-11.0,1
-63.0,158.0,-199.0,48.0,14.0,-11.0,1
-63.0,159.0,-198.0,48.0,15.0,-11.0,1
-63.0,162.0,-205.0,50.0,15.0,-12.0,1
-62.0,160.0,-201.0,51.0,12.0,-12.0,1
-60.0,158.0,-204.0,50.0,14.0,-14.0,1
-61.0,162.0,-197.0,49.0,12.0,-13.0,1
-65.0,159.0,-198.0,48.0,11.0,-14.0,1
-62.0,158.0,-201.0,48.0,10.0,-14.0,1
-63.0,159.0,-200.0,46.0,10.0,-16.0,1
-60.0,158.0,-201.0,46.0,8.0,-16.0,1
-62.0,160.0,-198.0,46.0,10.0,-15.0,1
-63.0,158.0,-199.0,47.0,8.0,-16.0,1
-66.0,158.0,-198.0,49.0,7.0,-17.0,1
-61.0,159.0,-198.0,49.0,5.0,-18.0,1
-60.0,154.0,-198.0,49.0,6.0,-16.0,1
-61.0,155.0,-199.0,48.0,6.0,-18.0,1
-64.0,158.0,-198.0,48.0,6.0,-17.0,1
-63.0,156.0,-198.0,47.0,5.0,-17.0,1
-60.0,158.0,-201.0,46.0,6.0,-16.0,1
-62.0,157.0,-202.0,46.0,7.0,-17.0,1
-63.0,160.0,-195.0,47.0,8.0,-17.0,1
-61.0,159.0,-198.0,48.0,9.0,-16.0,1
-65.0,158.0,-196.0,50.0,10.0,-16.0,1
-62.0,162.0,-199.0,49.0,9.0,-17.0,1
-65.0,157.0,-201.0,50.0,11.0,-13.0,1
-65.0,158.0,-201.0,49.0,11.0,-13.0,1
-69.0,165.0,-201.0,50.0,12.0,-14.0,1
-62.0,158.0,-198.0,48.0,13.0,-13.0,1
-63.0,162.0,-200.0,48.0,13.0,-14.0,1
-65.0,158.0,-200.0,46.0,13.0,-13.0,1
-63.0,160.0,-199.0,45.0,12.0,-12.0,1
-61.0,160.0,-199.0,44.0,13.0,-13.0,1
-65.0,161.0,-203.0,44.0,11.0,-13.0,1
-64.0,160.0,-201.0,42.0,10.0,-14.0,1
-60.0,160.0,-197.0,39.0,9.0,-13.0,1
-64.0,159.0,-198.0,38.0,9.0,-13.0,1
-64.0,154.0,-199.0,36.0,8.0,-15.0,1
-61.0,157.0,-201.0,35.0,7.0,-15.0,1
-66.0,160.0,-199.0,34.0,7.0,-16.0,1
-65.0,158.0,-200.0,34.0,6.0,-15.0,1
-66.0,165.0,-199.0,34.0,6.0,-14.0,1
-64.0,158.0,-199.0,35.0,8.0,-14.0,1
-64.0,160.0,-200.0,35.0,8.0,-14.0,1
-66.0,161.0,-200.0,35.0,10.0,-13.0,1
-62.0,156.0,-199.0,34.0,10.0,-13.0,1
-60.0,159.0,-198.0,37.0,12.0,-10.0,1
-63.0,161.0,-200.0,37.0,11.0,-12.0,1
-64.0,160.0,-199.0,38.0,12.0,-10.0,1
-61.0,160.0,-196.0,40.0,13.0,-11.0,1
-63.0,160.0,-199.0,40.0,14.0,-10.0,1
-64.0,160.0,-200.0,42.0,16.0,-10.0,1
-63.0,158.0,-200.0,43.0,15.0,-11.0,1
-63.0,159.0,-201.0,45.0,14.0,-8.0,1
-66.0,162.0,-200.0,47.0,14.0,-9.0,1
-64.0,160.0,-200.0,48.0,14.0,-10.0,1
-63.0,162.0,-199.0,46.0,14.0,-10.0,1
-64.0,162.0,-200.0,46.0,15.0,-8.0,1
-66.0,159.0,-200.0,45.0,15.0,-7.0,1
-66.0,160.0,-201.0,45.0,15.0,-8.0,1
-63.0,156.0,-205.0,44.0,16.0,-9.0,1
-65.0,158.0,-200.0,44.0,16.0,-8.0,1
-64.0,159.0,-200.0,45.0,18.0,-10.0,1
-63.0,160.0,-200.0,47.0,16.0,-9.0,1
-61.0,159.0,-203.0,49.0,16.0,-7.0,1
-63.0,160.0,-198.0,49.0,16.0,-8.0,1
-60.0,158.0,-201.0,48.0,15.0,-9.0,1
-63.0,160.0,-202.0,46.0,15.0,-11.0,1
-62.0,159.0,-198.0,44.0,12.0,-12.0,1
-62.0,157.0,-203.0,45.0,12.0,-11.0,1
-66.0,160.0,-200.0,43.0,12.0,-11.0,1
-61.0,167.0,-197.0,41.0,11.0,-11.0,1
-65.0,158.0,-199.0,38.0,11.0,-12.0,1
-62.0,158.0,-198.0,39.0,10.0,-13.0,1
-62.0,161.0,-200.0,39.0,11.0,-11.0,1
-65.0,160.0,-200.0,43.0,11.0,-13.0,1
-62.0,158.0,-201.0,42.0,10.0,-12.0,1
-61.0,159.0,-198.0,44.0,11.0,-11.0,1
-61.0,161.0,-201.0,44.0,11.0,-13.0,1
-61.0,161.0,-198.0,44.0,10.0,-13.0,1
-63.0,161.0,-200.0,44.0,9.0,-13.0,1
-60.0,158.0,-201.0,44.0,10.0,-12.0,1
-61.0,158.0,-205.0,43.0,10.0,-12.0,1
-62.0,158.0,-200.0,43.0,11.0,-12.0,1
-66.0,160.0,-198.0,44.0,11.0,-12.0,1
-61.0,160.0,-199.0,45.0,10.0,-11.0,1
-64.0,158.0,-200.0,44.0,10.0,-13.0,1
-62.0,158.0,-198.0,43.0,11.0,-13.0,1
-63.0,158.0,-202.0,42.0,11.0,-14.0,1
-62.0,160.0,-199.0,41.0,12.0,-11.0,1
-61.0,158.0,-200.0,41.0,11.0,-12.0,1
-63.0,161.0,-200.0,41.0,9.0,-13.0,1
-63.0,159.0,-198.0,40.0,9.0,-11.0,1
-64.0,159.0,-208.0,39.0,9.0,-11.0,1
-66.0,161.0,-199.0,38.0,10.0,-12.0,1
-61.0,157.0,-201.0,37.0,9.0,-13.0,1
-64.0,157.0,-202.0,36.0,8.0,-13.0,1
-61.0,156.0,-199.0,36.0,9.0,-14.0,1
-63.0,163.0,-201.0,37.0,10.0,-12.0,1
-63.0,158.0,-198.0,37.0,9.0,-10.0,1
-63.0,158.0,-195.0,38.0,10.0,-11.0,1
-65.0,158.0,-199.0,37.0,9.0,-12.0,1
-63.0,161.0,-199.0,37.0,10.0,-12.0,1
-62.0,161.0,-200.0,38.0,10.0,-12.0,1
-59.0,161.0,-198.0,39.0,11.0,-11.0,1
-61.0,160.0,-199.0,38.0,10.0,-11.0,1
-61.0,159.0,-200.0,37.0,10.0,-11.0,1
-67.0,161.0,-198.0,39.0,11.0,-11.0,1
-64.0,159.0,-199.0,40.0,11.0,-9.0,1
-65.0,163.0,-198.0,40.0,12.0,-9.0,1
-61.0,158.0,-200.0,42.0,13.0,-9.0,1
-64.0,156.0,-202.0,43.0,11.0,-8.0,1
-62.0,160.0,-197.0,44.0,12.0,-9.0,1
-62.0,156.0,-198.0,45.0,13.0,-11.0,1
-61.0,158.0,-191.0,44.0,13.0,-9.0,1
-63.0,161.0,-199.0,45.0,12.0,-10.0,1
-62.0,159.0,-200.0,44.0,12.0,-10.0,1
-63.0,161.0,-199.0,45.0,12.0,-12.0,1
-62.0,160.0,-198.0,46.0,13.0,-12.0,1
-63.0,158.0,-200.0,46.0,14.0,-11.0,1
-64.0,159.0,-202.0,48.0,13.0,-10.0,1
-64.0,159.0,-201.0,47.0,14.0,-10.0,1
-61.0,159.0,-199.0,48.0,14.0,-9.0,1
-60.0,156.0,-197.0,48.0,14.0,-8.0,1
-64.0,160.0,-197.0,48.0,13.0,-10.0,1
-62.0,160.0,-203.0,48.0,14.0,-10.0,1
-60.0,159.0,-198.0,48.0,13.0,-8.0,1
-63.0,160.0,-198.0,46.0,14.0,-9.0,1
-62.0,159.0,-199.0,45.0,13.0,-10.0,1
-61.0,161.0,-199.0,48.0,13.0,-8.0,1
-62.0,160.0,-201.0,47.0,15.0,-10.0,1
-63.0,159.0,-199.0,47.0,13.0,-10.0,1
-62.0,161.0,-198.0,48.0,13.0,-9.0,1
-64.0,160.0,-201.0,48.0,13.0,-10.0,1
-64.0,161.0,-202.0,48.0,13.0,-10.0,1
-62.0,158.0,-200.0,47.0,13.0,-10.0,1
-60.0,153.0,-199.0,47.0,13.0,-11.0,1
-64.0,159.0,-200.0,48.0,13.0,-10.0,1
-62.0,157.0,-202.0,48.0,13.0,-11.0,1
-62.0,160.0,-200.0,47.0,13.0,-10.0,1
-65.0,160.0,-200.0,47.0,12.0,-10.0,1
-61.0,160.0,-198.0,46.0,13.0,-11.0,1
-65.0,158.0,-197.0,48.0,13.0,-11.0,1
-58.0,157.0,-199.0,47.0,13.0,-12.0,1
-61.0,157.0,-201.0,47.0,12.0,-11.0,1
-63.0,159.0,-201.0,49.0,13.0,-12.0,1
-66.0,159.0,-202.0,48.0,12.0,-11.0,1
-66.0,153.0,-200.0,48.0,13.0,-9.0,1
-62.0,160.0,-200.0,48.0,12.0,-11.0,1
-62.0,161.0,-199.0,48.0,12.0,-10.0,1
-62.0,161.0,-199.0,48.0,12.0,-11.0,1
-63.0,159.0,-200.0,49.0,11.0,-10.0,1
-62.0,160.0,-197.0,49.0,12.0,-8.0,1
-64.0,159.0,-199.0,48.0,13.0,-10.0,1
-64.0,162.0,-199.0,47.0,13.0,-10.0,1
-65.0,160.0,-201.0,46.0,13.0,-9.0,1
-65.0,161.0,-199.0,44.0,12.0,-9.0,1
-63.0,159.0,-199.0,45.0,13.0,-8.0,1
-66.0,161.0,-201.0,44.0,14.0,-9.0,1
-61.0,160.0,-200.0,44.0,15.0,-11.0,1
-62.0,162.0,-201.0,46.0,12.0,-12.0,1
-64.0,161.0,-200.0,46.0,12.0,-12.0,1
-60.0,159.0,-199.0,47.0,13.0,-12.0,1
-63.0,160.0,-199.0,43.0,13.0,-12.0,1
-59.0,156.0,-197.0,41.0,11.0,-12.0,1
-62.0,159.0,-198.0,41.0,10.0,-13.0,1
-60.0,161.0,-200.0,43.0,9.0,-14.0,1
-64.0,160.0,-201.0,43.0,6.0,-13.0,1
-64.0,158.0,-199.0,44.0,5.0,-14.0,1
-63.0,156.0,-196.0,46.0,2.0,-15.0,1
-62.0,159.0,-199.0,44.0,1.0,-15.0,1
-63.0,157.0,-198.0,44.0,2.0,-13.0,1
-64.0,158.0,-195.0,43.0,2.0,-13.0,1
-62.0,157.0,-195.0,45.0,3.0,-13.0,1
-63.0,157.0,-198.0,47.0,5.0,-13.0,1
-65.0,158.0,-198.0,49.0,7.0,-13.0,1
-65.0,164.0,-198.0,50.0,8.0,-13.0,1
-62.0,159.0,-200.0,50.0,9.0,-12.0,1
-63.0,161.0,-199.0,50.0,10.0,-11.0,1
-64.0,157.0,-201.0,48.0,11.0,-9.0,1
-66.0,163.0,-200.0,48.0,13.0,-10.0,1
-64.0,162.0,-200.0,49.0,13.0,-8.0,1
-64.0,163.0,-198.0,50.0,14.0,-7.0,1
-63.0,159.0,-201.0,48.0,13.0,-8.0,1
-64.0,159.0,-202.0,47.0,12.0,-9.0,1
-65.0,161.0,-198.0,46.0,10.0,-9.0,1
-63.0,159.0,-199.0,44.0,9.0,-10.0,1
-62.0,160.0,-196.0,44.0,8.0,-10.0,1
-65.0,164.0,-201.0,43.0,6.0,-10.0,1
-63.0,165.0,-202.0,43.0,7.0,-10.0,1
-65.0,160.0,-199.0,43.0,6.0,-12.0,1
-65.0,157.0,-196.0,43.0,8.0,-11.0,1
-64.0,160.0,-195.0,44.0,7.0,-11.0,1
-63.0,160.0,-201.0,43.0,9.0,-9.0,1
-61.0,162.0,-197.0,42.0,9.0,-10.0,1
-64.0,161.0,-197.0,41.0,9.0,-9.0,1
-64.0,160.0,-195.0,40.0,9.0,-9.0,1
-64.0,163.0,-198.0,40.0,10.0,-9.0,1
-61.0,161.0,-198.0,41.0,11.0,-9.0,1
-59.0,157.0,-200.0,41.0,12.0,-8.0,1
-63.0,158.0,-198.0,41.0,11.0,-7.0,1
-65.0,161.0,-198.0,42.0,12.0,-8.0,1
-64.0,164.0,-200.0,44.0,12.0,-7.0,1
-63.0,160.0,-200.0,46.0,11.0,-7.0,1
-63.0,161.0,-200.0,47.0,11.0,-8.0,1
-65.0,159.0,-198.0,49.0,13.0,-9.0,1
-65.0,161.0,-200.0,51.0,11.0,-8.0,1
-64.0,159.0,-198.0,54.0,13.0,-9.0,1
-64.0,159.0,-199.0,54.0,14.0,-9.0,1
-63.0,160.0,-200.0,55.0,12.0,-8.0,1
-65.0,162.0,-206.0,54.0,12.0,-8.0,1
-65.0,161.0,-198.0,53.0,12.0,-6.0,1
-63.0,161.0,-202.0,51.0,12.0,-8.0,1
-62.0,161.0,-196.0,50.0,13.0,-10.0,1
-66.0,160.0,-196.0,49.0,13.0,-8.0,1
-62.0,159.0,-199.0,50.0,13.0,-7.0,1
-62.0,162.0,-200.0,51.0,13.0,-8.0,1
-61.0,159.0,-202.0,54.0,12.0,-8.0,1
-64.0,162.0,-201.0,53.0,12.0,-8.0,1
-64.0,158.0,-196.0,54.0,13.0,-9.0,1
-58.0,162.0,-201.0,52.0,10.0,-9.0,1
-65.0,160.0,-198.0,50.0,10.0,-10.0,1
-65.0,161.0,-200.0,51.0,10.0,-10.0,1
-62.0,159.0,-205.0,50.0,8.0,-12.0,1
-61.0,161.0,-198.0,49.0,9.0,-11.0,1
-65.0,159.0,-197.0,48.0,9.0,-10.0,1
-62.0,159.0,-198.0,49.0,9.0,-9.0,1
-60.0,160.0,-197.0,50.0,10.0,-11.0,1
-65.0,161.0,-199.0,50.0,11.0,-11.0,1
-64.0,160.0,-202.0,51.0,11.0,-9.0,1
-65.0,161.0,-199.0,52.0,11.0,-9.0,1
-63.0,163.0,-199.0,54.0,12.0,-9.0,1
-67.0,159.0,-200.0,53.0,13.0,-8.0,1
-64.0,162.0,-198.0,55.0,13.0,-8.0,1
-61.0,161.0,-191.0,55.0,15.0,-7.0,1
-65.0,160.0,-200.0,56.0,14.0,-7.0,1
-63.0,160.0,-198.0,56.0,14.0,-7.0,1
-64.0,161.0,-199.0,56.0,15.0,-8.0,1
-64.0,161.0,-200.0,56.0,16.0,-7.0,1
-63.0,160.0,-200.0,56.0,16.0,-8.0,1
-63.0,160.0,-200.0,55.0,16.0,-9.0,1
-61.0,161.0,-202.0,55.0,15.0,-8.0,1
-66.0,162.0,-201.0,55.0,16.0,-8.0,1
-64.0,157.0,-199.0,55.0,16.0,-7.0,1
-63.0,159.0,-200.0,54.0,15.0,-9.0,1
-64.0,159.0,-200.0,55.0,14.0,-9.0,1
-62.0,159.0,-197.0,54.0,16.0,-8.0,1
-65.0,161.0,-202.0,52.0,15.0,-7.0,1
-60.0,158.0,-199.0,53.0,16.0,-6.0,1
-64.0,158.0,-198.0,53.0,17.0,-7.0,1
-64.0,160.0,-197.0,52.0,16.0,-6.0,1
-62.0,161.0,-199.0,50.0,16.0,-8.0,1
-60.0,160.0,-202.0,51.0,15.0,-8.0,1
-63.0,159.0,-200.0,51.0,15.0,-8.0,1
-64.0,160.0,-200.0,52.0,15.0,-6.0,1
-63.0,160.0,-195.0,52.0,14.0,-6.0,1
-64.0,154.0,-197.0,52.0,16.0,-5.0,1
-63.0,159.0,-203.0,53.0,15.0,-6.0,1
-65.0,158.0,-197.0,54.0,16.0,-5.0,1
-64.0,163.0,-199.0,54.0,16.0,-4.0,1
-60.0,159.0,-201.0,54.0,15.0,-5.0,1
-63.0,161.0,-200.0,55.0,16.0,-4.0,1
-62.0,161.0,-198.0,56.0,17.0,-4.0,1
-62.0,160.0,-201.0,57.0,17.0,-4.0,1
-63.0,157.0,-199.0,57.0,18.0,-5.0,1
-62.0,161.0,-199.0,56.0,18.0,-4.0,1
-58.0,158.0,-195.0,57.0,17.0,-5.0,1
-63.0,158.0,-198.0,58.0,19.0,-5.0,1
-63.0,159.0,-199.0,59.0,18.0,-5.0,1
-64.0,159.0,-195.0,59.0,18.0,-4.0,1
-62.0,159.0,-199.0,58.0,19.0,-5.0,1
-60.0,159.0,-198.0,58.0,19.0,-5.0,1
-60.0,157.0,-199.0,57.0,20.0,-5.0,1
-62.0,160.0,-204.0,59.0,19.0,-4.0,1
-64.0,160.0,-199.0,59.0,18.0,-5.0,1
-61.0,155.0,-199.0,58.0,19.0,-5.0,1
-60.0,158.0,-195.0,59.0,18.0,-5.0,1
-65.0,159.0,-199.0,58.0,19.0,-6.0,1
-66.0,158.0,-199.0,58.0,18.0,-5.0,1
-61.0,160.0,-198.0,58.0,19.0,-4.0,1
-63.0,161.0,-200.0,57.0,19.0,-5.0,1
-63.0,164.0,-198.0,57.0,17.0,-4.0,1
-62.0,157.0,-199.0,57.0,17.0,-5.0,1
-62.0,162.0,-203.0,57.0,18.0,-5.0,1
-64.0,158.0,-200.0,57.0,18.0,-6.0,1
-64.0,158.0,-198.0,57.0,18.0,-4.0,1
-63.0,159.0,-202.0,56.0,16.0,-6.0,1
-63.0,158.0,-196.0,56.0,16.0,-7.0,1
-63.0,159.0,-202.0,56.0,16.0,-6.0,1
-66.0,156.0,-197.0,56.0,17.0,-7.0,1
-63.0,161.0,-197.0,57.0,17.0,-5.0,1
-61.0,160.0,-200.0,56.0,16.0,-6.0,1
-62.0,160.0,-199.0,56.0,16.0,-5.0,1
-60.0,163.0,-200.0,56.0,17.0,-4.0,1
-62.0,159.0,-200.0,57.0,16.0,-6.0,1
-61.0,160.0,-200.0,57.0,15.0,-5.0,1
-64.0,161.0,-199.0,57.0,15.0,-5.0,1
-64.0,161.0,-197.0,57.0,16.0,-5.0,1
-62.0,159.0,-196.0,56.0,17.0,-5.0,1
-61.0,161.0,-196.0,56.0,17.0,-5.0,1
-63.0,157.0,-201.0,56.0,18.0,-5.0,1
-63.0,159.0,-200.0,56.0,18.0,-4.0,1
-62.0,161.0,-198.0,57.0,18.0,-6.0,1
-61.0,157.0,-200.0,58.0,17.0,-5.0,1
-61.0,159.0,-201.0,58.0,18.0,-4.0,1
-59.0,158.0,-200.0,56.0,18.0,-3.0,1
-62.0,157.0,-199.0,58.0,19.0,-2.0,1
-63.0,160.0,-199.0,58.0,19.0,-2.0,1
-62.0,157.0,-199.0,58.0,20.0,-2.0,1
-63.0,161.0,-196.0,59.0,21.0,-3.0,1
-65.0,164.0,-201.0,58.0,21.0,0.0,1
-62.0,162.0,-200.0,58.0,21.0,0.0,1
-64.0,161.0,-199.0,57.0,22.0,0.0,1
-63.0,161.0,-199.0,60.0,23.0,0.0,1
-64.0,158.0,-200.0,60.0,25.0,-3.0,1
-59.0,159.0,-201.0,61.0,25.0,-3.0,1
-63.0,161.0,-199.0,62.0,25.0,-1.0,1
-61.0,160.0,-201.0,62.0,24.0,-1.0,1
-64.0,160.0,-198.0,63.0,23.0,-2.0,1
-57.0,155.0,-199.0,62.0,23.0,-2.0,1
-62.0,158.0,-199.0,61.0,21.0,-4.0,1
-62.0,160.0,-204.0,60.0,21.0,-3.0,1
-61.0,157.0,-200.0,60.0,20.0,-4.0,1
-62.0,159.0,-201.0,60.0,20.0,-4.0,1
-63.0,157.0,-200.0,63.0,19.0,-4.0,1
-61.0,157.0,-198.0,63.0,18.0,-3.0,1
-61.0,162.0,-202.0,63.0,18.0,-3.0,1
-64.0,158.0,-198.0,63.0,18.0,-3.0,1
-61.0,157.0,-199.0,62.0,18.0,-3.0,1
-61.0,158.0,-200.0,61.0,18.0,-4.0,1
-61.0,157.0,-198.0,61.0,19.0,-3.0,1
-61.0,159.0,-199.0,61.0,19.0,-3.0,1
-64.0,159.0,-201.0,62.0,21.0,-4.0,1
-61.0,160.0,-203.0,63.0,22.0,-3.0,1
-63.0,158.0,-199.0,64.0,22.0,-2.0,1
-60.0,158.0,-199.0,66.0,23.0,-2.0,1
-60.0,157.0,-202.0,66.0,24.0,-2.0,1
-61.0,157.0,-201.0,67.0,25.0,-2.0,1
-61.0,157.0,-200.0,66.0,26.0,-1.0,1
-61.0,158.0,-198.0,65.0,25.0,0.0,1
-57.0,157.0,-198.0,64.0,24.0,0.0,1
-58.0,160.0,-202.0,64.0,24.0,-1.0,1
-64.0,160.0,-198.0,61.0,24.0,-3.0,1
-63.0,157.0,-191.0,60.0,23.0,-4.0,1
-60.0,158.0,-199.0,58.0,24.0,-3.0,1
-60.0,158.0,-198.0,56.0,23.0,-3.0,1
-58.0,159.0,-201.0,56.0,21.0,-4.0,1
-63.0,160.0,-200.0,54.0,19.0,-3.0,1
-61.0,160.0,-200.0,54.0,20.0,-3.0,1
-61.0,161.0,-198.0,53.0,18.0,-3.0,1
-60.0,158.0,-201.0,54.0,18.0,-5.0,1
-66.0,159.0,-198.0,53.0,17.0,-3.0,1
-61.0,160.0,-199.0,54.0,16.0,-3.0,1
-65.0,162.0,-200.0,56.0,15.0,-5.0,1
-66.0,161.0,-198.0,58.0,16.0,-3.0,1
-64.0,161.0,-200.0,58.0,16.0,-3.0,1
-63.0,159.0,-200.0,58.0,16.0,-4.0,1
-59.0,158.0,-200.0,60.0,16.0,-6.0,1
-61.0,161.0,-204.0,61.0,16.0,-7.0,1
-61.0,159.0,-202.0,62.0,15.0,-4.0,1
-62.0,159.0,-200.0,62.0,15.0,-5.0,1
-62.0,161.0,-202.0,61.0,13.0,-6.0,1
-61.0,159.0,-201.0,60.0,12.0,-7.0,1
-60.0,161.0,-202.0,60.0,10.0,-8.0,1
-59.0,158.0,-201.0,60.0,9.0,-8.0,1
-64.0,159.0,-205.0,60.0,8.0,-9.0,1
-63.0,158.0,-201.0,60.0,8.0,-8.0,1
-63.0,162.0,-199.0,62.0,8.0,-8.0,1
-59.0,157.0,-200.0,59.0,8.0,-9.0,1
-60.0,157.0,-203.0,59.0,8.0,-9.0,1
-61.0,160.0,-199.0,58.0,9.0,-9.0,1
-58.0,157.0,-200.0,58.0,10.0,-8.0,1
-63.0,161.0,-200.0,57.0,10.0,-9.0,1
-59.0,159.0,-203.0,57.0,8.0,-10.0,1
-61.0,159.0,-200.0,57.0,10.0,-9.0,1
-65.0,160.0,-201.0,57.0,8.0,-10.0,1
-63.0,155.0,-197.0,58.0,9.0,-11.0,1
-63.0,162.0,-198.0,58.0,8.0,-9.0,1
-61.0,159.0,-200.0,57.0,8.0,-9.0,1
-61.0,157.0,-200.0,55.0,7.0,-11.0,1
-61.0,159.0,-200.0,55.0,8.0,-11.0,1
-62.0,158.0,-200.0,53.0,7.0,-9.0,1
-62.0,158.0,-200.0,52.0,9.0,-10.0,1
-61.0,160.0,-203.0,52.0,8.0,-12.0,1
-62.0,158.0,-198.0,53.0,7.0,-12.0,1
-61.0,159.0,-199.0,54.0,7.0,-10.0,1
-61.0,159.0,-195.0,54.0,7.0,-12.0,1
-57.0,152.0,-205.0,54.0,6.0,-13.0,1
-60.0,156.0,-199.0,54.0,6.0,-14.0,1
-64.0,162.0,-200.0,54.0,6.0,-14.0,1
-61.0,158.0,-201.0,52.0,6.0,-13.0,1
-62.0,157.0,-200.0,53.0,7.0,-13.0,1
-63.0,157.0,-199.0,52.0,8.0,-14.0,1
-60.0,155.0,-201.0,53.0,9.0,-14.0,1
-63.0,161.0,-202.0,53.0,10.0,-14.0,1
-60.0,157.0,-201.0,51.0,10.0,-13.0,1
-60.0,158.0,-200.0,52.0,12.0,-14.0,1
-62.0,159.0,-203.0,52.0,10.0,-12.0,1
-67.0,159.0,-199.0,51.0,9.0,-13.0,1
-62.0,158.0,-201.0,51.0,11.0,-13.0,1
-63.0,160.0,-202.0,51.0,11.0,-12.0,1
-61.0,159.0,-199.0,50.0,10.0,-12.0,1
-61.0,159.0,-200.0,47.0,12.0,-12.0,1
-61.0,159.0,-202.0,47.0,12.0,-12.0,1
-62.0,159.0,-200.0,47.0,12.0,-13.0,1
-62.0,157.0,-201.0,46.0,12.0,-13.0,1
-64.0,158.0,-201.0,47.0,12.0,-12.0,1
-62.0,159.0,-202.0,46.0,12.0,-11.0,1
-63.0,159.0,-199.0,46.0,12.0,-10.0,1
-65.0,157.0,-206.0,45.0,12.0,-11.0,1
-62.0,161.0,-200.0,46.0,12.0,-10.0,1
-62.0,159.0,-200.0,46.0,10.0,-12.0,1
-60.0,159.0,-202.0,46.0,11.0,-11.0,1
-61.0,158.0,-200.0,47.0,12.0,-12.0,1
-62.0,158.0,-200.0,47.0,13.0,-13.0,1
-62.0,161.0,-201.0,47.0,12.0,-12.0,1
-62.0,161.0,-199.0,48.0,11.0,-13.0,1
-60.0,159.0,-202.0,47.0,11.0,-14.0,1
-65.0,159.0,-202.0,49.0,11.0,-14.0,1
-57.0,158.0,-203.0,50.0,9.0,-14.0,1
-61.0,158.0,-198.0,52.0,12.0,-13.0,1
-62.0,160.0,-201.0,52.0,10.0,-13.0,1
-61.0,158.0,-199.0,51.0,9.0,-14.0,1
-63.0,159.0,-201.0,51.0,9.0,-14.0,1
-62.0,158.0,-200.0,51.0,9.0,-14.0,1
-61.0,156.0,-199.0,51.0,8.0,-15.0,1
-63.0,157.0,-201.0,50.0,9.0,-13.0,1
-64.0,159.0,-204.0,49.0,9.0,-15.0,1
-61.0,158.0,-202.0,48.0,9.0,-16.0,1
-62.0,161.0,-205.0,47.0,7.0,-16.0,1
-60.0,155.0,-200.0,46.0,8.0,-17.0,1
-64.0,157.0,-200.0,44.0,8.0,-15.0,1
-62.0,158.0,-200.0,43.0,9.0,-16.0,1
-61.0,156.0,-200.0,42.0,8.0,-15.0,1
-62.0,159.0,-198.0,43.0,11.0,-14.0,1
-62.0,158.0,-198.0,43.0,10.0,-15.0,1
-60.0,159.0,-200.0,43.0,9.0,-15.0,1
-65.0,157.0,-199.0,42.0,9.0,-13.0,1
-63.0,161.0,-201.0,42.0,9.0,-14.0,1
-61.0,159.0,-202.0,41.0,9.0,-16.0,1
-63.0,159.0,-197.0,42.0,9.0,-15.0,1
-59.0,160.0,-202.0,43.0,8.0,-15.0,1
-60.0,158.0,-201.0,42.0,8.0,-15.0,1
-62.0,159.0,-201.0,41.0,10.0,-16.0,1
-63.0,159.0,-199.0,43.0,9.0,-15.0,1
-62.0,160.0,-197.0,42.0,10.0,-15.0,1
-62.0,159.0,-201.0,43.0,9.0,-12.0,1
-62.0,158.0,-198.0,44.0,10.0,-14.0,1
-63.0,159.0,-201.0,44.0,9.0,-12.0,1
-62.0,159.0,-201.0,46.0,9.0,-13.0,1
-59.0,156.0,-198.0,48.0,9.0,-13.0,1
-56.0,154.0,-200.0,47.0,11.0,-13.0,1
-62.0,155.0,-200.0,47.0,10.0,-15.0,1
-62.0,157.0,-199.0,49.0,10.0,-15.0,1
-61.0,159.0,-200.0,48.0,11.0,-14.0,1
-62.0,159.0,-199.0,49.0,11.0,-11.0,1
-63.0,163.0,-200.0,48.0,10.0,-13.0,1
-60.0,155.0,-200.0,48.0,11.0,-14.0,1
-62.0,158.0,-199.0,48.0,11.0,-14.0,1
-63.0,162.0,-199.0,48.0,13.0,-13.0,1
-64.0,162.0,-200.0,47.0,13.0,-14.0,1
-61.0,161.0,-202.0,48.0,13.0,-14.0,1
-60.0,160.0,-202.0,48.0,13.0,-14.0,1
-69.0,154.0,-201.0,48.0,11.0,-14.0,1
-63.0,161.0,-201.0,49.0,11.0,-14.0,1
-62.0,159.0,-200.0,50.0,10.0,-12.0,1
-60.0,160.0,-201.0,48.0,9.0,-14.0,1
-61.0,158.0,-199.0,47.0,10.0,-14.0,1
-64.0,160.0,-199.0,47.0,11.0,-12.0,1
-59.0,159.0,-198.0,46.0,10.0,-14.0,1
-61.0,158.0,-201.0,46.0,9.0,-16.0,1
-62.0,158.0,-201.0,47.0,8.0,-16.0,1
-64.0,160.0,-203.0,48.0,7.0,-16.0,1
-62.0,159.0,-201.0,49.0,7.0,-16.0,1
-54.0,155.0,-201.0,49.0,7.0,-16.0,1
-63.0,158.0,-201.0,50.0,5.0,-16.0,1
-61.0,159.0,-198.0,48.0,5.0,-16.0,1
-62.0,158.0,-197.0,49.0,5.0,-14.0,1
-62.0,156.0,-200.0,47.0,6.0,-15.0,1
-63.0,158.0,-199.0,47.0,6.0,-16.0,1
-63.0,157.0,-201.0,46.0,6.0,-16.0,1
-62.0,156.0,-201.0,48.0,6.0,-15.0,1
-63.0,161.0,-203.0,49.0,8.0,-15.0,1
-61.0,159.0,-200.0,48.0,10.0,-16.0,1
-64.0,158.0,-203.0,49.0,9.0,-15.0,1
-64.0,156.0,-200.0,47.0,11.0,-15.0,1
-63.0,158.0,-202.0,46.0,12.0,-15.0,1
-62.0,158.0,-200.0,45.0,12.0,-15.0,1
-63.0,159.0,-200.0,44.0,12.0,-15.0,1
-61.0,159.0,-201.0,44.0,11.0,-14.0,1
-63.0,161.0,-202.0,43.0,11.0,-14.0,1
-64.0,160.0,-199.0,41.0,11.0,-14.0,1
-63.0,163.0,-199.0,41.0,10.0,-15.0,1
-61.0,162.0,-201.0,40.0,8.0,-15.0,1
-62.0,159.0,-201.0,38.0,8.0,-13.0,1
-60.0,159.0,-201.0,38.0,8.0,-14.0,1
-63.0,155.0,-197.0,37.0,8.0,-14.0,1
-60.0,158.0,-202.0,37.0,6.0,-16.0,1
-64.0,159.0,-199.0,37.0,7.0,-15.0,1
-64.0,162.0,-199.0,38.0,7.0,-15.0,1
-62.0,158.0,-199.0,39.0,7.0,-15.0,1
-63.0,160.0,-199.0,38.0,7.0,-15.0,1
-62.0,160.0,-199.0,38.0,8.0,-14.0,1
-64.0,159.0,-202.0,38.0,8.0,-12.0,1
-61.0,160.0,-201.0,38.0,10.0,-13.0,1
-63.0,161.0,-202.0,39.0,10.0,-12.0,1
-60.0,156.0,-197.0,41.0,10.0,-11.0,1
-63.0,158.0,-201.0,40.0,10.0,-12.0,1
-60.0,159.0,-200.0,41.0,10.0,-12.0,1
-60.0,160.0,-200.0,41.0,12.0,-11.0,1
-61.0,158.0,-194.0,43.0,13.0,-12.0,1
-62.0,158.0,-195.0,45.0,13.0,-10.0,1
-63.0,160.0,-198.0,47.0,13.0,-11.0,1
-63.0,159.0,-199.0,48.0,13.0,-13.0,1
-60.0,157.0,-198.0,49.0,14.0,-12.0,1
-63.0,158.0,-201.0,51.0,14.0,-11.0,1
-63.0,158.0,-201.0,52.0,14.0,-9.0,1
-65.0,161.0,-197.0,51.0,14.0,-9.0,1
-63.0,153.0,-201.0,50.0,14.0,-11.0,1
-63.0,161.0,-201.0,49.0,15.0,-11.0,1
-62.0,158.0,-198.0,51.0,15.0,-13.0,1
-62.0,158.0,-200.0,51.0,14.0,-13.0,1
-62.0,159.0,-198.0,52.0,14.0,-12.0,1
-60.0,157.0,-196.0,53.0,14.0,-12.0,1
-62.0,159.0,-199.0,54.0,13.0,-13.0,1
-60.0,159.0,-199.0,55.0,13.0,-13.0,1
-59.0,157.0,-203.0,56.0,12.0,-15.0,1
-64.0,158.0,-199.0,56.0,11.0,-15.0,1
-65.0,159.0,-204.0,54.0,11.0,-15.0,1
-63.0,158.0,-200.0,53.0,9.0,-14.0,1
-61.0,157.0,-199.0,52.0,8.0,-15.0,1
-63.0,156.0,-200.0,51.0,9.0,-17.0,1
-63.0,158.0,-200.0,51.0,8.0,-16.0,1
-63.0,163.0,-201.0,51.0,8.0,-17.0,1
-62.0,160.0,-196.0,51.0,7.0,-16.0,1
-59.0,156.0,-198.0,52.0,7.0,-17.0,1
-60.0,157.0,-203.0,50.0,7.0,-16.0,1
-63.0,160.0,-203.0,50.0,8.0,-17.0,1
-61.0,160.0,-200.0,50.0,7.0,-17.0,1
-61.0,157.0,-200.0,50.0,8.0,-15.0,1
-64.0,159.0,-199.0,49.0,7.0,-15.0,1
