ax,ay,az,gx,gy,gz,label
11.0,-244.0,54.0,-59.0,36.0,-5.0,1
13.0,-243.0,55.0,-61.0,38.0,-4.0,1
12.0,-247.0,57.0,-63.0,43.0,-4.0,1
12.0,-246.0,51.0,-63.0,45.0,-4.0,1
12.0,-246.0,51.0,-63.0,49.0,-4.0,1
9.0,-247.0,53.0,-63.0,52.0,-5.0,1
13.0,-249.0,51.0,-62.0,54.0,-6.0,1
10.0,-247.0,53.0,-61.0,57.0,-10.0,1
13.0,-247.0,48.0,-59.0,58.0,-11.0,1
12.0,-248.0,49.0,-58.0,58.0,-12.0,1
8.0,-248.0,53.0,-54.0,60.0,-13.0,1
8.0,-244.0,51.0,-52.0,59.0,-15.0,1
8.0,-247.0,50.0,-49.0,58.0,-15.0,1
8.0,-244.0,52.0,-46.0,58.0,-14.0,1
4.0,-248.0,55.0,-45.0,55.0,-16.0,1
10.0,-249.0,52.0,-44.0,51.0,-14.0,1
8.0,-245.0,51.0,-43.0,50.0,-14.0,1
6.0,-247.0,52.0,-42.0,49.0,-12.0,1
7.0,-243.0,58.0,-42.0,50.0,-11.0,1
10.0,-246.0,56.0,-40.0,47.0,-11.0,1
9.0,-247.0,57.0,-38.0,46.0,-9.0,1
11.0,-248.0,52.0,-38.0,45.0,-8.0,1
7.0,-244.0,54.0,-39.0,45.0,-5.0,1
11.0,-245.0,51.0,-37.0,45.0,-4.0,1
12.0,-246.0,53.0,-38.0,44.0,-4.0,1
11.0,-246.0,53.0,-37.0,45.0,-3.0,1
9.0,-248.0,52.0,-37.0,43.0,-1.0,1
12.0,-247.0,57.0,-32.0,43.0,0.0,1
13.0,-249.0,54.0,-31.0,44.0,0.0,1
10.0,-248.0,53.0,-28.0,43.0,2.0,1
12.0,-246.0,53.0,-24.0,42.0,1.0,1
10.0,-246.0,56.0,-22.0,43.0,1.0,1
10.0,-247.0,53.0,-19.0,41.0,1.0,1
11.0,-249.0,54.0,-17.0,40.0,1.0,1
12.0,-243.0,49.0,-16.0,40.0,1.0,1
13.0,-244.0,55.0,-19.0,36.0,0.0,1
9.0,-244.0,52.0,-22.0,35.0,0.0,1
11.0,-248.0,53.0,-26.0,33.0,-3.0,1
10.0,-245.0,55.0,-29.0,30.0,-3.0,1
10.0,-245.0,55.0,-34.0,28.0,-5.0,1
12.0,-248.0,54.0,-39.0,28.0,-5.0,1
9.0,-242.0,50.0,-43.0,25.0,-7.0,1
12.0,-244.0,57.0,-45.0,26.0,-9.0,1
12.0,-246.0,57.0,-50.0,25.0,-8.0,1
9.0,-244.0,53.0,-51.0,26.0,-7.0,1
13.0,-243.0,56.0,-52.0,26.0,-8.0,1
13.0,-241.0,55.0,-53.0,27.0,-6.0,1
10.0,-242.0,53.0,-55.0,30.0,-5.0,1
12.0,-242.0,54.0,-54.0,35.0,-3.0,1
15.0,-245.0,59.0,-52.0,38.0,-2.0,1
13.0,-248.0,52.0,-51.0,42.0,0.0,1
11.0,-244.0,55.0,-48.0,45.0,2.0,1
10.0,-246.0,53.0,-47.0,45.0,3.0,1
13.0,-247.0,55.0,-46.0,47.0,5.0,1
10.0,-245.0,55.0,-44.0,48.0,6.0,1
11.0,-245.0,52.0,-41.0,49.0,7.0,1
11.0,-249.0,57.0,-39.0,51.0,10.0,1
12.0,-248.0,57.0,-36.0,51.0,9.0,1
9.0,-249.0,51.0,-34.0,52.0,11.0,1
8.0,-245.0,52.0,-31.0,53.0,9.0,1
9.0,-247.0,53.0,-30.0,54.0,11.0,1
8.0,-246.0,54.0,-27.0,54.0,9.0,1
10.0,-246.0,49.0,-24.0,52.0,9.0,1
7.0,-245.0,56.0,-22.0,53.0,9.0,1
10.0,-247.0,52.0,-22.0,55.0,9.0,1
11.0,-247.0,53.0,-20.0,53.0,7.0,1
10.0,-248.0,52.0,-18.0,53.0,9.0,1
9.0,-244.0,51.0,-18.0,53.0,7.0,1
9.0,-249.0,52.0,-18.0,52.0,8.0,1
8.0,-246.0,53.0,-18.0,53.0,4.0,1
11.0,-248.0,53.0,-19.0,51.0,6.0,1
8.0,-247.0,53.0,-19.0,51.0,4.0,1
9.0,-243.0,50.0,-20.0,52.0,5.0,1
10.0,-246.0,53.0,-19.0,53.0,3.0,1
10.0,-245.0,50.0,-17.0,55.0,6.0,1
9.0,-245.0,54.0,-17.0,55.0,3.0,1
10.0,-244.0,53.0,-19.0,58.0,6.0,1
11.0,-247.0,52.0,-16.0,59.0,3.0,1
13.0,-245.0,51.0,-16.0,61.0,7.0,1
13.0,-247.0,52.0,-15.0,64.0,4.0,1
10.0,-248.0,53.0,-17.0,66.0,7.0,1
9.0,-246.0,52.0,-13.0,69.0,5.0,1
9.0,-245.0,49.0,-13.0,70.0,5.0,1
10.0,-245.0,50.0,-13.0,74.0,3.0,1
13.0,-247.0,52.0,-10.0,76.0,3.0,1
13.0,-248.0,48.0,-9.0,81.0,-2.0,1
10.0,-248.0,47.0,-8.0,85.0,-2.0,1
11.0,-247.0,48.0,-10.0,90.0,-6.0,1
11.0,-246.0,52.0,-10.0,95.0,-8.0,1
16.0,-247.0,49.0,-10.0,99.0,-13.0,1
13.0,-244.0,53.0,-16.0,102.0,-14.0,1
14.0,-244.0,52.0,-21.0,106.0,-18.0,1
12.0,-240.0,54.0,-29.0,109.0,-17.0,1
12.0,-242.0,47.0,-34.0,114.0,-21.0,1
13.0,-240.0,52.0,-40.0,117.0,-23.0,1
11.0,-239.0,52.0,-47.0,120.0,-26.0,1
12.0,-243.0,52.0,-56.0,125.0,-25.0,1
15.0,-242.0,55.0,-63.0,130.0,-29.0,1
13.0,-244.0,51.0,-68.0,134.0,-28.0,1
11.0,-242.0,53.0,-74.0,141.0,-29.0,1
12.0,-243.0,55.0,-78.0,147.0,-31.0,1
14.0,-241.0,53.0,-85.0,153.0,-37.0,1
15.0,-246.0,54.0,-90.0,163.0,-39.0,1
16.0,-246.0,52.0,-97.0,171.0,-45.0,1
15.0,-246.0,49.0,-102.0,178.0,-46.0,1
16.0,-249.0,49.0,-107.0,187.0,-53.0,1
17.0,-249.0,52.0,-110.0,198.0,-53.0,1
17.0,-250.0,50.0,-109.0,207.0,-60.0,1
17.0,-253.0,50.0,-109.0,216.0,-61.0,1
15.0,-252.0,52.0,-109.0,223.0,-66.0,1
15.0,-253.0,47.0,-108.0,229.0,-66.0,1
14.0,-250.0,42.0,-103.0,234.0,-71.0,1
15.0,-254.0,53.0,-97.0,237.0,-70.0,1
12.0,-252.0,46.0,-88.0,242.0,-73.0,1
12.0,-251.0,45.0,-79.0,245.0,-69.0,1
9.0,-249.0,45.0,-70.0,247.0,-68.0,1
7.0,-250.0,43.0,-60.0,248.0,-63.0,1
4.0,-251.0,45.0,-52.0,246.0,-61.0,1
4.0,-248.0,41.0,-46.0,244.0,-55.0,1
6.0,-247.0,46.0,-40.0,240.0,-53.0,1
6.0,-247.0,46.0,-33.0,237.0,-47.0,1
5.0,-248.0,52.0,-28.0,231.0,-43.0,1
7.0,-246.0,47.0,-24.0,226.0,-37.0,1
7.0,-248.0,48.0,-21.0,220.0,-34.0,1
5.0,-249.0,50.0,-17.0,212.0,-28.0,1
5.0,-248.0,48.0,-14.0,206.0,-27.0,1
6.0,-250.0,50.0,-11.0,199.0,-19.0,1
7.0,-252.0,51.0,-7.0,192.0,-17.0,1
4.0,-251.0,52.0,-5.0,186.0,-12.0,1
6.0,-250.0,50.0,-1.0,180.0,-9.0,1
6.0,-249.0,49.0,4.0,175.0,-4.0,1
6.0,-249.0,51.0,6.0,169.0,-4.0,1
2.0,-250.0,53.0,10.0,165.0,1.0,1
6.0,-250.0,52.0,13.0,163.0,1.0,1
7.0,-248.0,45.0,16.0,158.0,3.0,1
6.0,-249.0,51.0,17.0,155.0,3.0,1
6.0,-248.0,49.0,19.0,151.0,6.0,1
6.0,-249.0,50.0,21.0,150.0,3.0,1
9.0,-250.0,50.0,22.0,150.0,7.0,1
5.0,-246.0,52.0,23.0,149.0,5.0,1
7.0,-247.0,51.0,25.0,148.0,8.0,1
9.0,-249.0,49.0,30.0,149.0,6.0,1
9.0,-247.0,49.0,33.0,150.0,8.0,1
7.0,-247.0,48.0,35.0,152.0,4.0,1
7.0,-249.0,46.0,38.0,154.0,7.0,1
9.0,-243.0,55.0,37.0,156.0,1.0,1
6.0,-245.0,50.0,37.0,161.0,2.0,1
10.0,-245.0,48.0,35.0,164.0,-1.0,1
10.0,-247.0,49.0,31.0,167.0,-2.0,1
9.0,-243.0,49.0,25.0,170.0,-6.0,1
10.0,-244.0,52.0,20.0,174.0,-8.0,1
12.0,-244.0,47.0,16.0,177.0,-15.0,1
11.0,-242.0,53.0,10.0,181.0,-16.0,1
10.0,-245.0,48.0,5.0,183.0,-24.0,1
13.0,-245.0,49.0,1.0,186.0,-26.0,1
8.0,-244.0,50.0,-5.0,188.0,-34.0,1
13.0,-246.0,48.0,-9.0,193.0,-39.0,1
10.0,-248.0,50.0,-11.0,196.0,-45.0,1
13.0,-246.0,51.0,-15.0,197.0,-48.0,1
10.0,-244.0,50.0,-16.0,201.0,-56.0,1
13.0,-247.0,50.0,-19.0,205.0,-57.0,1
14.0,-249.0,47.0,-19.0,209.0,-63.0,1
11.0,-250.0,48.0,-21.0,214.0,-63.0,1
14.0,-252.0,45.0,-21.0,216.0,-68.0,1
12.0,-251.0,44.0,-19.0,219.0,-67.0,1
12.0,-252.0,48.0,-18.0,221.0,-70.0,1
11.0,-251.0,45.0,-16.0,223.0,-65.0,1
9.0,-251.0,50.0,-11.0,224.0,-68.0,1
8.0,-248.0,47.0,-10.0,224.0,-64.0,1
8.0,-250.0,48.0,-7.0,225.0,-64.0,1
5.0,-249.0,46.0,-4.0,225.0,-62.0,1
7.0,-249.0,44.0,-3.0,223.0,-62.0,1
7.0,-249.0,46.0,0.0,222.0,-59.0,1
5.0,-249.0,48.0,2.0,223.0,-58.0,1
4.0,-252.0,47.0,6.0,222.0,-55.0,1
2.0,-249.0,49.0,7.0,221.0,-57.0,1
5.0,-251.0,46.0,11.0,217.0,-52.0,1
3.0,-246.0,48.0,12.0,214.0,-51.0,1
4.0,-250.0,48.0,15.0,211.0,-48.0,1
7.0,-250.0,50.0,16.0,206.0,-48.0,1
4.0,-247.0,48.0,18.0,199.0,-44.0,1
2.0,-246.0,49.0,17.0,195.0,-42.0,1
0.0,-248.0,47.0,16.0,189.0,-37.0,1
1.0,-247.0,45.0,16.0,183.0,-37.0,1
3.0,-244.0,49.0,20.0,177.0,-33.0,1
2.0,-244.0,52.0,22.0,171.0,-32.0,1
1.0,-242.0,50.0,21.0,164.0,-27.0,1
2.0,-244.0,52.0,23.0,161.0,-26.0,1
1.0,-246.0,51.0,23.0,155.0,-23.0,1
3.0,-242.0,48.0,25.0,150.0,-23.0,1
2.0,-245.0,49.0,24.0,146.0,-19.0,1
4.0,-245.0,52.0,23.0,143.0,-21.0,1
2.0,-241.0,52.0,22.0,140.0,-20.0,1
5.0,-247.0,53.0,19.0,138.0,-21.0,1
4.0,-244.0,50.0,17.0,136.0,-20.0,1
3.0,-243.0,48.0,15.0,133.0,-24.0,1
6.0,-245.0,55.0,11.0,132.0,-24.0,1
7.0,-246.0,50.0,7.0,132.0,-27.0,1
7.0,-244.0,50.0,7.0,131.0,-28.0,1
10.0,-248.0,55.0,6.0,132.0,-31.0,1
10.0,-250.0,50.0,4.0,132.0,-30.0,1
9.0,-250.0,53.0,3.0,134.0,-33.0,1
9.0,-248.0,52.0,0.0,135.0,-32.0,1
10.0,-248.0,51.0,0.0,136.0,-35.0,1
12.0,-248.0,48.0,-3.0,138.0,-33.0,1
12.0,-249.0,53.0,-5.0,140.0,-34.0,1
9.0,-247.0,51.0,-6.0,144.0,-32.0,1
9.0,-246.0,52.0,-6.0,146.0,-31.0,1
9.0,-245.0,52.0,-7.0,150.0,-32.0,1
11.0,-247.0,52.0,-7.0,153.0,-33.0,1
13.0,-245.0,53.0,-6.0,154.0,-31.0,1
9.0,-246.0,51.0,-4.0,157.0,-34.0,1
9.0,-246.0,51.0,-4.0,157.0,-34.0,1
7.0,-246.0,50.0,-2.0,156.0,-36.0,1
10.0,-247.0,49.0,0.0,155.0,-35.0,1
7.0,-245.0,52.0,1.0,155.0,-40.0,1
6.0,-245.0,52.0,0.0,153.0,-39.0,1
8.0,-244.0,52.0,0.0,151.0,-41.0,1
6.0,-244.0,48.0,-1.0,149.0,-42.0,1
8.0,-246.0,53.0,-4.0,147.0,-44.0,1
10.0,-242.0,52.0,-4.0,143.0,-43.0,1
8.0,-243.0,53.0,-7.0,141.0,-43.0,1
6.0,-244.0,52.0,-9.0,140.0,-41.0,1
6.0,-246.0,54.0,-11.0,136.0,-40.0,1
6.0,-244.0,54.0,-12.0,136.0,-36.0,1
8.0,-245.0,53.0,-14.0,133.0,-35.0,1
8.0,-246.0,54.0,-13.0,129.0,-31.0,1
7.0,-244.0,56.0,-13.0,126.0,-27.0,1
7.0,-244.0,52.0,-11.0,122.0,-23.0,1
6.0,-244.0,54.0,-10.0,120.0,-19.0,1
6.0,-242.0,54.0,-10.0,118.0,-17.0,1
4.0,-246.0,50.0,-11.0,115.0,-14.0,1
8.0,-245.0,56.0,-9.0,113.0,-12.0,1
5.0,-246.0,49.0,-10.0,111.0,-10.0,1
5.0,-246.0,51.0,-9.0,110.0,-8.0,1
4.0,-246.0,49.0,-11.0,107.0,-8.0,1
4.0,-246.0,52.0,-11.0,102.0,-8.0,1
4.0,-246.0,51.0,-14.0,101.0,-6.0,1
5.0,-245.0,52.0,-15.0,98.0,-4.0,1
3.0,-247.0,51.0,-14.0,94.0,-4.0,1
4.0,-247.0,53.0,-14.0,91.0,-1.0,1
5.0,-244.0,50.0,-16.0,88.0,-1.0,1
4.0,-247.0,52.0,-17.0,84.0,1.0,1
4.0,-247.0,51.0,-18.0,81.0,2.0,1
4.0,-248.0,52.0,-19.0,77.0,3.0,1
6.0,-248.0,53.0,-19.0,74.0,4.0,1
6.0,-247.0,54.0,-19.0,68.0,5.0,1
8.0,-244.0,52.0,-20.0,65.0,6.0,1
9.0,-247.0,52.0,-22.0,62.0,7.0,1
7.0,-247.0,55.0,-21.0,58.0,7.0,1
5.0,-248.0,56.0,-22.0,56.0,8.0,1
6.0,-251.0,53.0,-23.0,53.0,10.0,1
5.0,-246.0,51.0,-22.0,51.0,10.0,1
7.0,-246.0,53.0,-24.0,50.0,9.0,1
5.0,-245.0,51.0,-23.0,47.0,10.0,1
7.0,-247.0,52.0,-23.0,45.0,8.0,1
7.0,-243.0,51.0,-23.0,46.0,7.0,1
6.0,-247.0,53.0,-21.0,42.0,9.0,1
7.0,-244.0,51.0,-21.0,40.0,6.0,1
7.0,-244.0,48.0,-19.0,41.0,7.0,1
9.0,-247.0,52.0,-18.0,39.0,5.0,1
9.0,-247.0,50.0,-19.0,37.0,5.0,1
6.0,-245.0,53.0,-17.0,38.0,4.0,1
10.0,-248.0,53.0,-13.0,39.0,3.0,1
10.0,-250.0,51.0,-11.0,38.0,2.0,1
9.0,-244.0,53.0,-11.0,36.0,2.0,1
10.0,-249.0,54.0,-9.0,35.0,-1.0,1
5.0,-247.0,48.0,-10.0,36.0,-1.0,1
9.0,-245.0,54.0,-7.0,34.0,-3.0,1
9.0,-247.0,53.0,-8.0,32.0,-2.0,1
7.0,-247.0,51.0,-8.0,30.0,-4.0,1
9.0,-246.0,51.0,-7.0,30.0,-3.0,1
6.0,-247.0,52.0,-6.0,31.0,-5.0,1
10.0,-248.0,53.0,-6.0,30.0,-6.0,1
8.0,-247.0,53.0,-6.0,29.0,-6.0,1
8.0,-247.0,54.0,-6.0,29.0,-7.0,1
9.0,-247.0,51.0,-6.0,30.0,-7.0,1
9.0,-248.0,52.0,-6.0,32.0,-6.0,1
13.0,-248.0,59.0,-6.0,33.0,-8.0,1
9.0,-246.0,50.0,-5.0,32.0,-4.0,1
9.0,-244.0,52.0,-5.0,33.0,-6.0,1
10.0,-244.0,52.0,-3.0,34.0,-5.0,1
11.0,-244.0,54.0,-1.0,33.0,-6.0,1
8.0,-244.0,54.0,-2.0,34.0,-4.0,1
9.0,-244.0,54.0,-1.0,32.0,-5.0,1
7.0,-248.0,54.0,-1.0,32.0,-3.0,1
9.0,-246.0,56.0,2.0,32.0,-6.0,1
9.0,-246.0,52.0,2.0,30.0,-4.0,1
10.0,-246.0,51.0,3.0,29.0,-6.0,1
10.0,-246.0,51.0,2.0,28.0,-5.0,1
11.0,-245.0,51.0,2.0,27.0,-7.0,1
7.0,-244.0,54.0,0.0,26.0,-6.0,1
9.0,-243.0,53.0,-1.0,23.0,-6.0,1
9.0,-247.0,55.0,-4.0,23.0,-5.0,1
7.0,-243.0,52.0,-6.0,21.0,-5.0,1
8.0,-244.0,53.0,-10.0,21.0,-3.0,1
10.0,-248.0,49.0,-11.0,18.0,-5.0,1
8.0,-246.0,54.0,-14.0,17.0,-2.0,1
9.0,-246.0,51.0,-14.0,17.0,-4.0,1
11.0,-247.0,54.0,-16.0,17.0,-2.0,1
6.0,-246.0,52.0,-15.0,17.0,-3.0,1
10.0,-248.0,53.0,-14.0,17.0,1.0,1
12.0,-245.0,58.0,-15.0,15.0,0.0,1
9.0,-247.0,53.0,-15.0,16.0,3.0,1
11.0,-244.0,55.0,-17.0,15.0,3.0,1
8.0,-247.0,53.0,-17.0,15.0,6.0,1
11.0,-246.0,55.0,-19.0,15.0,6.0,1
8.0,-245.0,55.0,-20.0,15.0,9.0,1
13.0,-246.0,59.0,-21.0,14.0,7.0,1
12.0,-246.0,56.0,-20.0,15.0,9.0,1
13.0,-247.0,53.0,-20.0,18.0,6.0,1
14.0,-247.0,50.0,-21.0,20.0,8.0,1
9.0,-245.0,50.0,-20.0,19.0,4.0,1
9.0,-245.0,54.0,-19.0,21.0,5.0,1
13.0,-247.0,52.0,-19.0,20.0,2.0,1
12.0,-246.0,52.0,-17.0,22.0,2.0,1
11.0,-247.0,53.0,-16.0,23.0,0.0,1
12.0,-249.0,54.0,-14.0,24.0,2.0,1
9.0,-245.0,48.0,-13.0,24.0,-1.0,1
9.0,-246.0,53.0,-13.0,24.0,2.0,1
8.0,-246.0,52.0,-12.0,23.0,-1.0,1
7.0,-244.0,51.0,-11.0,23.0,2.0,1
11.0,-247.0,50.0,-12.0,24.0,-1.0,1
11.0,-246.0,52.0,-13.0,26.0,2.0,1
12.0,-247.0,52.0,-14.0,25.0,1.0,1
12.0,-247.0,49.0,-15.0,24.0,3.0,1
13.0,-246.0,53.0,-12.0,23.0,2.0,1
11.0,-246.0,53.0,-12.0,23.0,5.0,1
8.0,-245.0,54.0,-14.0,23.0,5.0,1
14.0,-248.0,50.0,-12.0,23.0,6.0,1
14.0,-247.0,51.0,-11.0,23.0,3.0,1
8.0,-247.0,56.0,-11.0,25.0,5.0,1
12.0,-245.0,50.0,-10.0,26.0,2.0,1
12.0,-245.0,51.0,-10.0,26.0,6.0,1
13.0,-247.0,53.0,-11.0,28.0,3.0,1
11.0,-246.0,50.0,-11.0,30.0,3.0,1
9.0,-245.0,53.0,-12.0,32.0,1.0,1
8.0,-244.0,52.0,-13.0,35.0,2.0,1
10.0,-242.0,53.0,-13.0,36.0,-1.0,1
11.0,-244.0,54.0,-12.0,38.0,2.0,1
11.0,-247.0,59.0,-12.0,39.0,0.0,1
12.0,-246.0,56.0,-10.0,40.0,2.0,1
10.0,-244.0,52.0,-7.0,41.0,-1.0,1
13.0,-221.0,49.0,-6.0,43.0,1.0,1
10.0,-246.0,53.0,-6.0,45.0,-1.0,1
11.0,-245.0,53.0,-5.0,46.0,1.0,1
10.0,-247.0,50.0,-7.0,43.0,-1.0,1
12.0,-247.0,53.0,-8.0,45.0,1.0,1
9.0,-246.0,53.0,-10.0,48.0,-3.0,1
11.0,-246.0,54.0,-10.0,49.0,-1.0,1
9.0,-246.0,52.0,-11.0,50.0,-2.0,1
14.0,-245.0,50.0,-13.0,51.0,0.0,1
10.0,-245.0,53.0,-16.0,51.0,-2.0,1
12.0,-247.0,53.0,-18.0,53.0,-1.0,1
10.0,-246.0,51.0,-21.0,53.0,-5.0,1
12.0,-244.0,56.0,-25.0,53.0,-3.0,1
9.0,-246.0,52.0,-28.0,52.0,-5.0,1
13.0,-247.0,49.0,-28.0,52.0,-3.0,1
9.0,-245.0,50.0,-27.0,51.0,-7.0,1
12.0,-247.0,54.0,-28.0,52.0,-6.0,1
11.0,-246.0,55.0,-29.0,51.0,-8.0,1
10.0,-247.0,51.0,-27.0,53.0,-5.0,1
13.0,-247.0,50.0,-27.0,54.0,-10.0,1
10.0,-245.0,53.0,-27.0,55.0,-7.0,1
12.0,-247.0,49.0,-25.0,56.0,-9.0,1
11.0,-248.0,52.0,-25.0,58.0,-6.0,1
11.0,-247.0,50.0,-25.0,59.0,-10.0,1
11.0,-248.0,54.0,-22.0,61.0,-8.0,1
11.0,-249.0,50.0,-22.0,63.0,-10.0,1
10.0,-246.0,49.0,-20.0,64.0,-8.0,1
13.0,-250.0,54.0,-19.0,65.0,-10.0,1
12.0,-249.0,54.0,-18.0,67.0,-7.0,1
10.0,-246.0,53.0,-17.0,67.0,-11.0,1
12.0,-248.0,51.0,-17.0,68.0,-9.0,1
6.0,-248.0,51.0,-16.0,69.0,-11.0,1
9.0,-246.0,52.0,-17.0,71.0,-9.0,1
11.0,-244.0,50.0,-17.0,71.0,-11.0,1
11.0,-245.0,52.0,-17.0,72.0,-9.0,1
7.0,-246.0,53.0,-18.0,72.0,-10.0,1
11.0,-246.0,50.0,-19.0,72.0,-9.0,1
8.0,-246.0,50.0,-19.0,69.0,-10.0,1
9.0,-247.0,51.0,-20.0,69.0,-6.0,1
12.0,-244.0,51.0,-20.0,67.0,-9.0,1
9.0,-247.0,50.0,-19.0,66.0,-4.0,1
10.0,-244.0,51.0,-19.0,65.0,-6.0,1
9.0,-247.0,50.0,-18.0,64.0,-3.0,1
9.0,-244.0,52.0,-18.0,63.0,-5.0,1
10.0,-244.0,48.0,-17.0,62.0,-2.0,1
9.0,-247.0,50.0,-17.0,60.0,-4.0,1
13.0,-247.0,51.0,-17.0,59.0,-4.0,1
9.0,-246.0,50.0,-17.0,59.0,-4.0,1
10.0,-247.0,53.0,-18.0,58.0,-4.0,1
11.0,-247.0,51.0,-18.0,59.0,-6.0,1
11.0,-247.0,49.0,-20.0,60.0,-5.0,1
8.0,-244.0,52.0,-21.0,61.0,-6.0,1
13.0,-249.0,53.0,-24.0,61.0,-8.0,1
13.0,-247.0,48.0,-25.0,65.0,-11.0,1
9.0,-247.0,50.0,-27.0,67.0,-10.0,1
10.0,-247.0,54.0,-26.0,67.0,-12.0,1
11.0,-247.0,50.0,-28.0,69.0,-10.0,1
9.0,-249.0,52.0,-28.0,69.0,-11.0,1
9.0,-248.0,53.0,-30.0,70.0,-9.0,1
9.0,-247.0,49.0,-31.0,70.0,-9.0,1
10.0,-245.0,49.0,-33.0,69.0,-6.0,1
11.0,-248.0,55.0,-35.0,69.0,-7.0,1
11.0,-245.0,51.0,-36.0,70.0,-5.0,1
13.0,-246.0,46.0,-40.0,68.0,-5.0,1
9.0,-250.0,49.0,-43.0,67.0,-4.0,1
11.0,-248.0,49.0,-45.0,67.0,-6.0,1
13.0,-247.0,50.0,-45.0,68.0,-5.0,1
11.0,-246.0,50.0,-45.0,71.0,-7.0,1
11.0,-246.0,48.0,-42.0,72.0,-7.0,1
10.0,-247.0,48.0,-42.0,73.0,-8.0,1
9.0,-244.0,48.0,-40.0,75.0,-9.0,1
7.0,-247.0,50.0,-35.0,76.0,-11.0,1
12.0,-246.0,45.0,-31.0,76.0,-10.0,1
9.0,-249.0,50.0,-27.0,77.0,-12.0,1
11.0,-246.0,48.0,-23.0,77.0,-12.0,1
11.0,-246.0,47.0,-19.0,77.0,-11.0,1
10.0,-246.0,50.0,-16.0,75.0,-12.0,1
10.0,-248.0,51.0,-14.0,75.0,-11.0,1
11.0,-247.0,47.0,-13.0,73.0,-8.0,1
7.0,-245.0,52.0,-14.0,72.0,-9.0,1
9.0,-246.0,49.0,-12.0,71.0,-6.0,1
10.0,-245.0,49.0,-12.0,71.0,-6.0,1
12.0,-247.0,49.0,-12.0,70.0,-2.0,1
10.0,-247.0,52.0,-12.0,70.0,-1.0,1
11.0,-248.0,52.0,-13.0,70.0,0.0,1
10.0,-249.0,52.0,-14.0,71.0,-1.0,1
10.0,-247.0,51.0,-12.0,72.0,-1.0,1
12.0,-247.0,55.0,-13.0,72.0,-1.0,1
9.0,-245.0,54.0,-15.0,72.0,-1.0,1
10.0,-246.0,51.0,-15.0,73.0,-3.0,1
11.0,-247.0,51.0,-16.0,74.0,-2.0,1
10.0,-244.0,52.0,-19.0,75.0,-6.0,1
10.0,-246.0,53.0,-19.0,76.0,-6.0,1
7.0,-243.0,49.0,-19.0,76.0,-9.0,1
10.0,-247.0,52.0,-19.0,76.0,-11.0,1
11.0,-247.0,52.0,-21.0,77.0,-12.0,1
11.0,-245.0,52.0,-21.0,81.0,-14.0,1
12.0,-247.0,55.0,-20.0,80.0,-17.0,1
7.0,-244.0,50.0,-20.0,81.0,-16.0,1
12.0,-247.0,54.0,-20.0,81.0,-18.0,1
10.0,-248.0,54.0,-21.0,82.0,-19.0,1
11.0,-249.0,49.0,-19.0,82.0,-20.0,1
10.0,-247.0,52.0,-20.0,80.0,-20.0,1
11.0,-247.0,48.0,-21.0,79.0,-19.0,1
11.0,-248.0,51.0,-22.0,79.0,-19.0,1
12.0,-245.0,54.0,-24.0,79.0,-19.0,1
13.0,-246.0,51.0,-23.0,79.0,-19.0,1
12.0,-244.0,49.0,-25.0,79.0,-18.0,1
9.0,-245.0,53.0,-28.0,80.0,-16.0,1
12.0,-247.0,54.0,-27.0,79.0,-16.0,1
11.0,-246.0,54.0,-27.0,79.0,-17.0,1
10.0,-246.0,53.0,-28.0,80.0,-16.0,1
10.0,-241.0,52.0,-28.0,82.0,-15.0,1
11.0,-246.0,53.0,-30.0,83.0,-14.0,1
12.0,-241.0,52.0,-31.0,85.0,-16.0,1
8.0,-244.0,53.0,-31.0,86.0,-14.0,1
10.0,-244.0,50.0,-31.0,83.0,-13.0,1
9.0,-242.0,54.0,-31.0,84.0,-12.0,1
8.0,-243.0,52.0,-29.0,84.0,-12.0,1
10.0,-242.0,50.0,-26.0,81.0,-10.0,1
9.0,-243.0,54.0,-29.0,82.0,-10.0,1
10.0,-242.0,49.0,-28.0,81.0,-9.0,1
11.0,-245.0,55.0,-26.0,81.0,-7.0,1
9.0,-246.0,52.0,-28.0,79.0,-6.0,1
9.0,-248.0,52.0,-26.0,77.0,-6.0,1
11.0,-243.0,55.0,-26.0,75.0,-5.0,1
11.0,-247.0,51.0,-27.0,73.0,-3.0,1
7.0,-245.0,53.0,-28.0,71.0,-1.0,1
9.0,-245.0,52.0,-28.0,71.0,-2.0,1
7.0,-244.0,53.0,-31.0,69.0,0.0,1
7.0,-246.0,51.0,-32.0,68.0,0.0,1
9.0,-247.0,52.0,-34.0,66.0,3.0,1
7.0,-247.0,55.0,-34.0,65.0,3.0,1
6.0,-246.0,53.0,-33.0,64.0,7.0,1
8.0,-245.0,51.0,-32.0,64.0,7.0,1
9.0,-245.0,51.0,-33.0,62.0,10.0,1
6.0,-245.0,51.0,-33.0,62.0,10.0,1
7.0,-244.0,49.0,-32.0,59.0,13.0,1
8.0,-244.0,54.0,-32.0,59.0,12.0,1
6.0,-244.0,55.0,-32.0,57.0,14.0,1
10.0,-246.0,54.0,-31.0,56.0,14.0,1
8.0,-246.0,50.0,-32.0,54.0,14.0,1
7.0,-244.0,53.0,-31.0,53.0,13.0,1
6.0,-244.0,53.0,-30.0,53.0,15.0,1
8.0,-245.0,52.0,-32.0,53.0,11.0,1
11.0,-247.0,49.0,-33.0,53.0,12.0,1
8.0,-248.0,52.0,-35.0,52.0,9.0,1
10.0,-248.0,49.0,-36.0,50.0,8.0,1
8.0,-246.0,49.0,-36.0,49.0,6.0,1
7.0,-249.0,53.0,-38.0,50.0,5.0,1
10.0,-248.0,50.0,-40.0,49.0,2.0,1
9.0,-249.0,54.0,-39.0,49.0,1.0,1
10.0,-249.0,52.0,-42.0,49.0,-2.0,1
10.0,-249.0,48.0,-42.0,52.0,-2.0,1
9.0,-245.0,55.0,-42.0,52.0,-5.0,1
10.0,-251.0,48.0,-42.0,53.0,-4.0,1
11.0,-249.0,49.0,-41.0,54.0,-6.0,1
12.0,-252.0,49.0,-40.0,53.0,-5.0,1
9.0,-247.0,52.0,-40.0,54.0,-5.0,1
13.0,-251.0,49.0,-41.0,53.0,-3.0,1
11.0,-249.0,50.0,-41.0,53.0,-4.0,1
10.0,-248.0,49.0,-41.0,53.0,-1.0,1
9.0,-251.0,48.0,-43.0,53.0,-2.0,1
10.0,-248.0,48.0,-41.0,52.0,1.0,1
12.0,-248.0,48.0,-40.0,51.0,-1.0,1
10.0,-250.0,47.0,-37.0,51.0,1.0,1
12.0,-250.0,46.0,-35.0,50.0,-2.0,1
9.0,-251.0,52.0,-32.0,51.0,-2.0,1
8.0,-249.0,50.0,-29.0,53.0,-6.0,1
10.0,-248.0,47.0,-25.0,53.0,-5.0,1
11.0,-247.0,49.0,-23.0,51.0,-7.0,1
9.0,-248.0,51.0,-18.0,51.0,-7.0,1
10.0,-248.0,54.0,-13.0,50.0,-9.0,1
7.0,-248.0,50.0,-7.0,50.0,-6.0,1
10.0,-249.0,48.0,-3.0,48.0,-9.0,1
8.0,-247.0,48.0,1.0,47.0,-6.0,1
10.0,-249.0,53.0,5.0,46.0,-7.0,1
8.0,-245.0,56.0,7.0,44.0,-5.0,1
8.0,-244.0,53.0,10.0,45.0,-6.0,1
9.0,-247.0,55.0,11.0,46.0,-3.0,1
12.0,-247.0,52.0,13.0,47.0,-3.0,1
11.0,-247.0,56.0,15.0,48.0,0.0,1
12.0,-247.0,49.0,17.0,46.0,0.0,1
12.0,-245.0,51.0,18.0,46.0,2.0,1
12.0,-244.0,54.0,18.0,47.0,1.0,1
9.0,-244.0,51.0,18.0,46.0,4.0,1
11.0,-248.0,53.0,19.0,45.0,2.0,1
14.0,-244.0,52.0,20.0,46.0,5.0,1
9.0,-247.0,55.0,20.0,44.0,3.0,1
12.0,-247.0,55.0,20.0,44.0,5.0,1
13.0,-248.0,55.0,18.0,43.0,3.0,1
12.0,-246.0,54.0,20.0,44.0,5.0,1
9.0,-245.0,53.0,19.0,43.0,1.0,1
9.0,-243.0,55.0,19.0,41.0,5.0,1
10.0,-245.0,55.0,16.0,41.0,0.0,1
9.0,-244.0,55.0,15.0,40.0,3.0,1
8.0,-246.0,51.0,15.0,40.0,2.0,1
7.0,-247.0,56.0,12.0,40.0,3.0,1
8.0,-246.0,48.0,12.0,41.0,0.0,1
8.0,-246.0,53.0,12.0,42.0,2.0,1
9.0,-246.0,53.0,13.0,42.0,1.0,1
10.0,-246.0,54.0,12.0,41.0,4.0,1
7.0,-244.0,56.0,12.0,43.0,3.0,1
9.0,-243.0,55.0,10.0,43.0,7.0,1
10.0,-248.0,56.0,11.0,45.0,6.0,1
9.0,-239.0,56.0,10.0,46.0,10.0,1
11.0,-242.0,54.0,9.0,47.0,7.0,1
13.0,-244.0,51.0,7.0,47.0,11.0,1
10.0,-245.0,51.0,6.0,48.0,10.0,1
11.0,-245.0,55.0,5.0,49.0,13.0,1
11.0,-245.0,49.0,5.0,50.0,10.0,1
11.0,-248.0,54.0,1.0,51.0,13.0,1
10.0,-246.0,49.0,1.0,52.0,9.0,1
8.0,-245.0,48.0,1.0,51.0,10.0,1
11.0,-244.0,52.0,0.0,49.0,8.0,1
10.0,-246.0,48.0,0.0,49.0,9.0,1
12.0,-248.0,55.0,-1.0,49.0,7.0,1
5.0,-245.0,40.0,-2.0,50.0,9.0,1
4.0,-249.0,54.0,-3.0,49.0,6.0,1
10.0,-246.0,52.0,-3.0,48.0,9.0,1
11.0,-244.0,49.0,-3.0,47.0,7.0,1
11.0,-246.0,51.0,-3.0,48.0,9.0,1
11.0,-248.0,48.0,-3.0,47.0,7.0,1
10.0,-248.0,50.0,-3.0,49.0,9.0,1
9.0,-248.0,54.0,-2.0,48.0,7.0,1
11.0,-247.0,52.0,-1.0,48.0,9.0,1
13.0,-248.0,49.0,-1.0,49.0,8.0,1
9.0,-247.0,53.0,0.0,51.0,11.0,1
10.0,-247.0,48.0,1.0,51.0,9.0,1
13.0,-247.0,52.0,2.0,52.0,11.0,1
11.0,-247.0,50.0,2.0,54.0,9.0,1
10.0,-248.0,51.0,3.0,55.0,12.0,1
13.0,-248.0,51.0,2.0,57.0,12.0,1
10.0,-247.0,52.0,1.0,59.0,13.0,1
11.0,-248.0,50.0,-2.0,59.0,12.0,1
12.0,-247.0,53.0,-3.0,59.0,15.0,1
9.0,-246.0,53.0,-3.0,59.0,11.0,1
10.0,-246.0,52.0,-5.0,60.0,15.0,1
12.0,-246.0,51.0,-6.0,60.0,13.0,1
11.0,-245.0,46.0,-6.0,60.0,15.0,1
9.0,-244.0,49.0,-7.0,59.0,12.0,1
11.0,-245.0,50.0,-7.0,59.0,14.0,1
9.0,-244.0,53.0,-6.0,60.0,13.0,1
11.0,-246.0,50.0,-4.0,60.0,13.0,1
7.0,-244.0,56.0,-5.0,60.0,12.0,1
11.0,-246.0,53.0,-5.0,59.0,12.0,1
10.0,-247.0,54.0,-6.0,59.0,10.0,1
10.0,-247.0,52.0,-7.0,59.0,10.0,1
11.0,-249.0,51.0,-8.0,58.0,7.0,1
9.0,-242.0,53.0,-9.0,58.0,7.0,1
9.0,-246.0,54.0,-12.0,58.0,4.0,1
8.0,-244.0,53.0,-14.0,59.0,6.0,1
12.0,-249.0,53.0,-15.0,59.0,3.0,1
11.0,-246.0,51.0,-19.0,58.0,4.0,1
11.0,-248.0,53.0,-21.0,59.0,3.0,1
10.0,-247.0,51.0,-23.0,61.0,5.0,1
11.0,-248.0,50.0,-24.0,63.0,3.0,1
10.0,-248.0,55.0,-25.0,64.0,5.0,1
10.0,-246.0,55.0,-27.0,64.0,4.0,1
10.0,-247.0,50.0,-29.0,66.0,7.0,1
10.0,-248.0,53.0,-31.0,67.0,7.0,1
9.0,-245.0,52.0,-31.0,68.0,9.0,1
10.0,-245.0,51.0,-32.0,70.0,8.0,1
9.0,-244.0,53.0,-31.0,71.0,10.0,1
10.0,-243.0,51.0,-30.0,74.0,10.0,1
8.0,-244.0,50.0,-28.0,73.0,10.0,1
10.0,-246.0,49.0,-27.0,74.0,10.0,1
8.0,-244.0,52.0,-25.0,74.0,11.0,1
10.0,-247.0,50.0,-22.0,74.0,8.0,1
10.0,-245.0,54.0,-21.0,73.0,7.0,1
11.0,-251.0,50.0,-19.0,74.0,4.0,1
9.0,-247.0,55.0,-18.0,72.0,3.0,1
9.0,-245.0,49.0,-17.0,72.0,0.0,1
9.0,-245.0,54.0,-16.0,73.0,0.0,1
9.0,-245.0,52.0,-16.0,75.0,-2.0,1
10.0,-245.0,51.0,-18.0,76.0,-2.0,1
9.0,-244.0,50.0,-18.0,77.0,-3.0,1
8.0,-243.0,50.0,-18.0,78.0,-3.0,1
10.0,-246.0,53.0,-19.0,80.0,-4.0,1
12.0,-245.0,56.0,-20.0,80.0,-3.0,1
9.0,-245.0,52.0,-20.0,82.0,-4.0,1
9.0,-244.0,51.0,-22.0,82.0,-2.0,1
8.0,-244.0,51.0,-23.0,80.0,-1.0,1
8.0,-247.0,49.0,-23.0,80.0,0.0,1
8.0,-244.0,48.0,-25.0,77.0,0.0,1
12.0,-247.0,53.0,-26.0,77.0,1.0,1
8.0,-245.0,50.0,-27.0,74.0,1.0,1
10.0,-248.0,57.0,-26.0,74.0,1.0,1
9.0,-247.0,51.0,-29.0,71.0,0.0,1
11.0,-247.0,50.0,-31.0,70.0,2.0,1
7.0,-246.0,50.0,-31.0,69.0,0.0,1
7.0,-247.0,51.0,-31.0,68.0,-2.0,1
9.0,-246.0,52.0,-31.0,67.0,-3.0,1
9.0,-247.0,51.0,-33.0,67.0,-4.0,1
9.0,-250.0,54.0,-33.0,66.0,-5.0,1
11.0,-248.0,49.0,-34.0,66.0,-6.0,1
8.0,-248.0,49.0,-33.0,68.0,-7.0,1
9.0,-250.0,50.0,-32.0,69.0,-7.0,1
10.0,-247.0,54.0,-32.0,70.0,-9.0,1
11.0,-248.0,51.0,-31.0,71.0,-10.0,1
9.0,-249.0,47.0,-29.0,71.0,-10.0,1
9.0,-246.0,50.0,-28.0,72.0,-12.0,1
10.0,-246.0,52.0,-27.0,73.0,-11.0,1
12.0,-247.0,54.0,-27.0,74.0,-12.0,1
13.0,-247.0,53.0,-26.0,76.0,-12.0,1
10.0,-245.0,49.0,-24.0,80.0,-13.0,1
9.0,-244.0,51.0,-24.0,82.0,-12.0,1
11.0,-247.0,50.0,-25.0,83.0,-12.0,1
14.0,-247.0,48.0,-27.0,84.0,-13.0,1
10.0,-247.0,47.0,-27.0,86.0,-13.0,1
8.0,-242.0,54.0,-29.0,86.0,-15.0,1
11.0,-249.0,51.0,-28.0,87.0,-15.0,1
7.0,-241.0,52.0,-30.0,87.0,-14.0,1
8.0,-242.0,52.0,-32.0,87.0,-16.0,1
8.0,-245.0,50.0,-33.0,88.0,-16.0,1
9.0,-246.0,55.0,-35.0,87.0,-18.0,1
8.0,-247.0,50.0,-34.0,87.0,-17.0,1
9.0,-243.0,48.0,-35.0,87.0,-18.0,1
7.0,-246.0,50.0,-36.0,85.0,-17.0,1
7.0,-247.0,48.0,-36.0,84.0,-17.0,1
8.0,-247.0,54.0,-37.0,83.0,-14.0,1
6.0,-247.0,51.0,-38.0,79.0,-15.0,1
8.0,-248.0,48.0,-37.0,77.0,-12.0,1
9.0,-247.0,51.0,-36.0,74.0,-13.0,1
8.0,-248.0,55.0,-35.0,71.0,-10.0,1
6.0,-248.0,49.0,-35.0,67.0,-11.0,1
6.0,-250.0,50.0,-35.0,68.0,-9.0,1
6.0,-251.0,48.0,-35.0,64.0,-9.0,1
6.0,-248.0,53.0,-36.0,61.0,-7.0,1
8.0,-250.0,47.0,-35.0,60.0,-8.0,1
8.0,-252.0,50.0,-35.0,58.0,-5.0,1
8.0,-245.0,47.0,-35.0,57.0,-6.0,1
7.0,-248.0,47.0,-35.0,58.0,-3.0,1
8.0,-248.0,50.0,-35.0,56.0,-4.0,1
7.0,-247.0,46.0,-37.0,57.0,-1.0,1
8.0,-246.0,46.0,-36.0,57.0,-3.0,1
7.0,-244.0,48.0,-34.0,59.0,-1.0,1
7.0,-247.0,48.0,-33.0,60.0,-2.0,1
7.0,-246.0,48.0,-32.0,59.0,0.0,1
8.0,-250.0,47.0,-31.0,58.0,-1.0,1
8.0,-245.0,49.0,-30.0,57.0,-1.0,1
8.0,-249.0,49.0,-30.0,59.0,-4.0,1
6.0,-244.0,49.0,-28.0,60.0,-1.0,1
8.0,-248.0,45.0,-27.0,59.0,-4.0,1
10.0,-248.0,48.0,-26.0,59.0,-3.0,1
9.0,-248.0,47.0,-26.0,60.0,-6.0,1
8.0,-247.0,50.0,-25.0,59.0,-5.0,1
9.0,-246.0,47.0,-28.0,60.0,-9.0,1
10.0,-246.0,48.0,-30.0,60.0,-9.0,1
10.0,-247.0,48.0,-31.0,60.0,-13.0,1
8.0,-248.0,49.0,-32.0,57.0,-12.0,1
10.0,-249.0,47.0,-36.0,57.0,-16.0,1
9.0,-245.0,50.0,-39.0,56.0,-13.0,1
9.0,-245.0,49.0,-37.0,56.0,-16.0,1
6.0,-245.0,47.0,-37.0,56.0,-15.0,1
8.0,-247.0,48.0,-38.0,56.0,-17.0,1
9.0,-247.0,48.0,-36.0,56.0,-12.0,1
7.0,-247.0,50.0,-36.0,58.0,-15.0,1
9.0,-247.0,49.0,-36.0,57.0,-11.0,1
8.0,-247.0,52.0,-37.0,59.0,-11.0,1
9.0,-246.0,48.0,-36.0,60.0,-7.0,1
7.0,-244.0,51.0,-35.0,61.0,-8.0,1
6.0,-245.0,52.0,-35.0,60.0,-3.0,1
9.0,-248.0,52.0,-32.0,64.0,-4.0,1
10.0,-245.0,47.0,-30.0,64.0,-2.0,1
11.0,-246.0,47.0,-30.0,66.0,-3.0,1
8.0,-245.0,49.0,-28.0,66.0,-1.0,1
9.0,-247.0,49.0,-27.0,66.0,-4.0,1
9.0,-246.0,48.0,-27.0,65.0,-1.0,1
9.0,-247.0,47.0,-27.0,65.0,-6.0,1
8.0,-247.0,49.0,-26.0,63.0,-4.0,1
11.0,-247.0,48.0,-26.0,61.0,-6.0,1
8.0,-247.0,49.0,-27.0,60.0,-5.0,1
6.0,-246.0,48.0,-28.0,59.0,-9.0,1
8.0,-247.0,45.0,-29.0,58.0,-5.0,1
9.0,-243.0,50.0,-31.0,56.0,-9.0,1
10.0,-245.0,45.0,-33.0,54.0,-7.0,1
8.0,-246.0,48.0,-36.0,53.0,-8.0,1
10.0,-246.0,47.0,-38.0,55.0,-4.0,1
6.0,-244.0,47.0,-40.0,53.0,-6.0,1
8.0,-247.0,47.0,-43.0,55.0,-1.0,1
8.0,-245.0,49.0,-43.0,53.0,-2.0,1
10.0,-247.0,48.0,-45.0,54.0,3.0,1
9.0,-247.0,45.0,-46.0,53.0,3.0,1
7.0,-246.0,51.0,-48.0,52.0,7.0,1
9.0,-244.0,46.0,-50.0,53.0,5.0,1
10.0,-246.0,51.0,-51.0,52.0,8.0,1
9.0,-246.0,49.0,-51.0,51.0,4.0,1
10.0,-244.0,43.0,-54.0,51.0,6.0,1
11.0,-246.0,48.0,-58.0,49.0,4.0,1
10.0,-248.0,46.0,-59.0,47.0,5.0,1
9.0,-246.0,46.0,-62.0,47.0,3.0,1
10.0,-247.0,44.0,-65.0,47.0,3.0,1
7.0,-248.0,44.0,-67.0,47.0,2.0,1
7.0,-245.0,46.0,-69.0,47.0,3.0,1
9.0,-249.0,44.0,-70.0,47.0,1.0,1
7.0,-249.0,46.0,-71.0,47.0,3.0,1
11.0,-248.0,44.0,-72.0,47.0,-2.0,1
10.0,-248.0,46.0,-72.0,48.0,2.0,1
7.0,-251.0,47.0,-74.0,47.0,0.0,1
9.0,-250.0,42.0,-74.0,47.0,2.0,1
9.0,-247.0,44.0,-77.0,48.0,1.0,1
8.0,-249.0,45.0,-80.0,47.0,4.0,1
8.0,-250.0,43.0,-81.0,45.0,2.0,1
9.0,-249.0,45.0,-84.0,45.0,5.0,1
8.0,-246.0,45.0,-85.0,47.0,4.0,1
10.0,-250.0,42.0,-87.0,47.0,6.0,1
7.0,-248.0,39.0,-88.0,48.0,4.0,1
9.0,-248.0,43.0,-89.0,48.0,7.0,1
9.0,-249.0,42.0,-90.0,50.0,4.0,1
6.0,-247.0,38.0,-88.0,51.0,3.0,1
11.0,-249.0,39.0,-89.0,51.0,1.0,1
10.0,-248.0,41.0,-91.0,51.0,2.0,1
10.0,-250.0,37.0,-89.0,53.0,-2.0,1
12.0,-251.0,40.0,-91.0,54.0,0.0,1
9.0,-249.0,40.0,-91.0,56.0,-2.0,1
14.0,-249.0,41.0,-91.0,57.0,-3.0,1
12.0,-251.0,38.0,-93.0,58.0,-7.0,1
13.0,-250.0,39.0,-92.0,59.0,-7.0,1
8.0,-249.0,40.0,-94.0,60.0,-12.0,1
11.0,-248.0,35.0,-95.0,62.0,-11.0,1
14.0,-250.0,38.0,-99.0,63.0,-15.0,1
15.0,-250.0,35.0,-102.0,64.0,-17.0,1
13.0,-249.0,36.0,-105.0,64.0,-21.0,1
11.0,-248.0,35.0,-109.0,65.0,-21.0,1
11.0,-247.0,33.0,-112.0,67.0,-25.0,1
9.0,-248.0,39.0,-116.0,66.0,-26.0,1
13.0,-245.0,35.0,-119.0,67.0,-30.0,1
12.0,-248.0,35.0,-122.0,69.0,-32.0,1
14.0,-249.0,35.0,-127.0,72.0,-35.0,1
12.0,-248.0,35.0,-131.0,73.0,-36.0,1
11.0,-245.0,35.0,-137.0,78.0,-37.0,1
9.0,-246.0,33.0,-139.0,79.0,-39.0,1
13.0,-247.0,31.0,-144.0,80.0,-42.0,1
8.0,-247.0,35.0,-150.0,83.0,-42.0,1
11.0,-248.0,34.0,-152.0,85.0,-46.0,1
9.0,-246.0,36.0,-155.0,86.0,-45.0,1
10.0,-246.0,31.0,-159.0,89.0,-47.0,1
8.0,-246.0,33.0,-163.0,89.0,-46.0,1
10.0,-249.0,30.0,-168.0,91.0,-47.0,1
10.0,-244.0,35.0,-170.0,91.0,-45.0,1
11.0,-247.0,29.0,-173.0,90.0,-44.0,1
9.0,-249.0,31.0,-178.0,90.0,-43.0,1
8.0,-246.0,33.0,-181.0,91.0,-43.0,1
5.0,-246.0,27.0,-185.0,90.0,-41.0,1
10.0,-248.0,30.0,-188.0,88.0,-43.0,1
7.0,-250.0,27.0,-192.0,86.0,-43.0,1
8.0,-250.0,27.0,-196.0,86.0,-44.0,1
7.0,-248.0,27.0,-203.0,84.0,-43.0,1
7.0,-250.0,27.0,-215.0,83.0,-43.0,1
8.0,-250.0,29.0,-224.0,82.0,-43.0,1
5.0,-247.0,28.0,-232.0,80.0,-43.0,1
12.0,-251.0,31.0,-243.0,78.0,-43.0,1
10.0,-250.0,26.0,-251.0,79.0,-43.0,1
13.0,-248.0,32.0,-259.0,78.0,-43.0,1
9.0,-251.0,30.0,-267.0,77.0,-45.0,1
13.0,-251.0,25.0,-274.0,78.0,-42.0,1
13.0,-250.0,27.0,-281.0,82.0,-43.0,1
12.0,-249.0,26.0,-288.0,85.0,-43.0,1
13.0,-248.0,29.0,-293.0,88.0,-42.0,1
14.0,-249.0,23.0,-297.0,91.0,-42.0,1
14.0,-248.0,22.0,-302.0,95.0,-42.0,1
11.0,-246.0,22.0,-309.0,97.0,-44.0,1
12.0,-246.0,23.0,-319.0,101.0,-46.0,1
12.0,-245.0,21.0,-330.0,103.0,-49.0,1
14.0,-245.0,18.0,-342.0,103.0,-52.0,1
14.0,-246.0,21.0,-353.0,103.0,-54.0,1
12.0,-244.0,16.0,-366.0,105.0,-58.0,1
15.0,-248.0,12.0,-383.0,104.0,-63.0,1
12.0,-247.0,15.0,-398.0,99.0,-66.0,1
8.0,-248.0,14.0,-411.0,98.0,-68.0,1
12.0,-246.0,13.0,-423.0,95.0,-71.0,1
12.0,-249.0,14.0,-432.0,90.0,-74.0,1
12.0,-246.0,12.0,-442.0,86.0,-75.0,1
12.0,-245.0,11.0,-452.0,87.0,-77.0,1
15.0,-244.0,8.0,-462.0,89.0,-77.0,1
14.0,-244.0,8.0,-473.0,90.0,-76.0,1
15.0,-247.0,8.0,-482.0,94.0,-77.0,1
15.0,-241.0,8.0,-491.0,106.0,-79.0,1
13.0,-239.0,8.0,-501.0,120.0,-80.0,1
15.0,-239.0,3.0,-513.0,135.0,-82.0,1
16.0,-238.0,8.0,-523.0,150.0,-83.0,1
18.0,-240.0,5.0,-532.0,164.0,-87.0,1
17.0,-233.0,2.0,-545.0,175.0,-88.0,1
15.0,-233.0,4.0,-557.0,185.0,-90.0,1
18.0,-230.0,3.0,-573.0,192.0,-90.0,1
16.0,-231.0,1.0,-591.0,197.0,-89.0,1
15.0,-231.0,6.0,-607.0,198.0,-83.0,1
15.0,-228.0,0.0,-626.0,199.0,-80.0,1
16.0,-229.0,5.0,-637.0,194.0,-70.0,1
14.0,-229.0,1.0,-645.0,188.0,-66.0,1
17.0,-230.0,5.0,-652.0,182.0,-59.0,1
16.0,-230.0,5.0,-659.0,178.0,-52.0,1
14.0,-230.0,2.0,-661.0,172.0,-43.0,1
15.0,-235.0,0.0,-659.0,167.0,-34.0,1
13.0,-235.0,1.0,-656.0,161.0,-21.0,1
12.0,-237.0,3.0,-649.0,153.0,-9.0,1
8.0,-238.0,0.0,-638.0,147.0,8.0,1
7.0,-240.0,2.0,-625.0,140.0,20.0,1
8.0,-242.0,2.0,-617.0,133.0,36.0,1
4.0,-244.0,-6.0,-609.0,127.0,47.0,1
1.0,-251.0,-3.0,-603.0,120.0,58.0,1
-3.0,-250.0,-2.0,-598.0,113.0,67.0,1
1.0,-258.0,-7.0,-598.0,105.0,77.0,1
-1.0,-259.0,-5.0,-601.0,94.0,81.0,1
-5.0,-260.0,-7.0,-602.0,86.0,87.0,1
-1.0,-261.0,-7.0,-605.0,74.0,86.0,1
1.0,-264.0,-8.0,-610.0,64.0,88.0,1
-1.0,-263.0,-9.0,-614.0,53.0,86.0,1
2.0,-268.0,-12.0,-619.0,46.0,86.0,1
5.0,-265.0,-13.0,-624.0,41.0,81.0,1
11.0,-269.0,-16.0,-628.0,42.0,80.0,1
14.0,-263.0,-13.0,-630.0,50.0,71.0,1
18.0,-263.0,-16.0,-632.0,63.0,62.0,1
17.0,-263.0,-15.0,-631.0,79.0,52.0,1
22.0,-262.0,-15.0,-629.0,98.0,43.0,1
24.0,-258.0,-14.0,-627.0,120.0,30.0,1
26.0,-258.0,-13.0,-620.0,148.0,21.0,1
24.0,-257.0,-12.0,-607.0,181.0,10.0,1
31.0,-255.0,-8.0,-599.0,207.0,3.0,1
29.0,-257.0,-10.0,-587.0,235.0,-7.0,1
31.0,-252.0,-9.0,-576.0,264.0,-13.0,1
27.0,-251.0,-14.0,-565.0,285.0,-22.0,1
31.0,-251.0,-15.0,-555.0,304.0,-25.0,1
28.0,-252.0,-16.0,-547.0,323.0,-33.0,1
24.0,-251.0,-16.0,-539.0,336.0,-35.0,1
21.0,-252.0,-17.0,-536.0,344.0,-42.0,1
22.0,-251.0,-22.0,-531.0,341.0,-40.0,1
20.0,-252.0,-21.0,-534.0,334.0,-44.0,1
15.0,-254.0,-22.0,-534.0,323.0,-36.0,1
18.0,-252.0,-24.0,-534.0,315.0,-41.0,1
15.0,-256.0,-24.0,-531.0,309.0,-37.0,1
7.0,-252.0,-27.0,-529.0,305.0,-40.0,1
12.0,-253.0,-28.0,-527.0,298.0,-36.0,1
7.0,-257.0,-25.0,-528.0,290.0,-37.0,1
0.0,-257.0,-23.0,-530.0,278.0,-34.0,1
5.0,-258.0,-23.0,-528.0,263.0,-31.0,1
5.0,-257.0,-28.0,-523.0,249.0,-26.0,1
7.0,-260.0,-24.0,-515.0,240.0,-25.0,1
0.0,-258.0,-25.0,-504.0,221.0,-18.0,1
-2.0,-260.0,-27.0,-495.0,195.0,-15.0,1
5.0,-262.0,-27.0,-485.0,173.0,-7.0,1
5.0,-261.0,-23.0,-480.0,158.0,-8.0,1
7.0,-260.0,-26.0,-471.0,146.0,-9.0,1
9.0,-261.0,-30.0,-468.0,137.0,-23.0,1
7.0,-259.0,-28.0,-467.0,132.0,-28.0,1
5.0,-260.0,-29.0,-467.0,126.0,-32.0,1
6.0,-261.0,-29.0,-464.0,119.0,-19.0,1
3.0,-260.0,-36.0,-457.0,114.0,-14.0,1
4.0,-259.0,-36.0,-448.0,110.0,-6.0,1
1.0,-260.0,-37.0,-441.0,104.0,-3.0,1
3.0,-258.0,-41.0,-433.0,101.0,3.0,1
3.0,-257.0,-44.0,-428.0,99.0,-2.0,1
4.0,-257.0,-37.0,-422.0,104.0,3.0,1
5.0,-258.0,-42.0,-419.0,112.0,5.0,1
6.0,-255.0,-44.0,-413.0,118.0,14.0,1
3.0,-253.0,-42.0,-415.0,123.0,16.0,1
6.0,-251.0,-41.0,-417.0,127.0,21.0,1
10.0,-250.0,-42.0,-422.0,127.0,21.0,1
9.0,-247.0,-39.0,-429.0,127.0,24.0,1
10.0,-249.0,-37.0,-437.0,126.0,22.0,1
9.0,-244.0,-33.0,-442.0,124.0,26.0,1
11.0,-246.0,-38.0,-452.0,123.0,29.0,1
13.0,-243.0,-40.0,-460.0,123.0,37.0,1
15.0,-241.0,-37.0,-468.0,126.0,43.0,1
15.0,-243.0,-39.0,-475.0,131.0,51.0,1
17.0,-246.0,-43.0,-482.0,146.0,66.0,1
20.0,-247.0,-39.0,-489.0,161.0,78.0,1
17.0,-247.0,-46.0,-491.0,164.0,74.0,1
17.0,-247.0,-47.0,-499.0,172.0,68.0,1
17.0,-245.0,-47.0,-494.0,174.0,58.0,1
18.0,-246.0,-48.0,-489.0,172.0,53.0,1
16.0,-247.0,-45.0,-484.0,170.0,47.0,1
18.0,-246.0,-50.0,-482.0,167.0,49.0,1
20.0,-246.0,-52.0,-479.0,162.0,47.0,1
16.0,-248.0,-44.0,-479.0,153.0,51.0,1
15.0,-249.0,-52.0,-479.0,140.0,50.0,1
15.0,-247.0,-52.0,-481.0,121.0,54.0,1
12.0,-248.0,-55.0,-482.0,106.0,53.0,1
11.0,-248.0,-50.0,-485.0,90.0,56.0,1
10.0,-253.0,-55.0,-486.0,77.0,56.0,1
12.0,-252.0,-57.0,-491.0,64.0,60.0,1
8.0,-250.0,-54.0,-494.0,55.0,59.0,1
11.0,-251.0,-61.0,-501.0,49.0,61.0,1
8.0,-251.0,-56.0,-508.0,47.0,59.0,1
10.0,-252.0,-58.0,-515.0,48.0,60.0,1
8.0,-249.0,-64.0,-520.0,51.0,60.0,1
10.0,-250.0,-61.0,-532.0,60.0,60.0,1
14.0,-251.0,-62.0,-540.0,69.0,55.0,1
14.0,-247.0,-64.0,-549.0,81.0,53.0,1
17.0,-246.0,-68.0,-557.0,96.0,49.0,1
18.0,-248.0,-64.0,-563.0,111.0,45.0,1
18.0,-243.0,-67.0,-564.0,124.0,40.0,1
19.0,-245.0,-63.0,-561.0,136.0,39.0,1
17.0,-245.0,-62.0,-556.0,145.0,35.0,1
19.0,-247.0,-66.0,-546.0,150.0,36.0,1
18.0,-247.0,-65.0,-536.0,152.0,38.0,1
17.0,-249.0,-64.0,-524.0,150.0,41.0,1
12.0,-250.0,-64.0,-517.0,145.0,43.0,1
10.0,-252.0,-64.0,-513.0,137.0,48.0,1
12.0,-251.0,-70.0,-511.0,128.0,48.0,1
7.0,-252.0,-72.0,-511.0,117.0,51.0,1
4.0,-249.0,-75.0,-515.0,104.0,51.0,1
7.0,-248.0,-76.0,-524.0,88.0,53.0,1
4.0,-246.0,-76.0,-536.0,75.0,48.0,1
-3.0,-246.0,-80.0,-555.0,60.0,44.0,1
2.0,-246.0,-78.0,-578.0,46.0,33.0,1
2.0,-241.0,-81.0,-611.0,34.0,22.0,1
2.0,-239.0,-82.0,-642.0,27.0,9.0,1
1.0,-236.0,-84.0,-672.0,24.0,-4.0,1
1.0,-234.0,-82.0,-699.0,23.0,-17.0,1
4.0,-231.0,-82.0,-720.0,28.0,-27.0,1
0.0,-224.0,-84.0,-739.0,36.0,-37.0,1
3.0,-229.0,-86.0,-755.0,44.0,-41.0,1
2.0,-225.0,-83.0,-768.0,52.0,-46.0,1
5.0,-223.0,-84.0,-778.0,62.0,-46.0,1
4.0,-225.0,-84.0,-791.0,74.0,-46.0,1
3.0,-222.0,-88.0,-794.0,85.0,-40.0,1
3.0,-219.0,-84.0,-797.0,93.0,-36.0,1
8.0,-224.0,-85.0,-799.0,98.0,-32.0,1
7.0,-219.0,-87.0,-801.0,102.0,-32.0,1
8.0,-225.0,-89.0,-806.0,104.0,-29.0,1
7.0,-224.0,-87.0,-811.0,102.0,-26.0,1
8.0,-229.0,-91.0,-814.0,100.0,-24.0,1
9.0,-227.0,-91.0,-821.0,94.0,-25.0,1
13.0,-232.0,-86.0,-828.0,91.0,-25.0,1
15.0,-234.0,-92.0,-837.0,87.0,-26.0,1
18.0,-238.0,-91.0,-842.0,84.0,-30.0,1
23.0,-236.0,-92.0,-849.0,84.0,-33.0,1
22.0,-238.0,-105.0,-854.0,85.0,-39.0,1
22.0,-238.0,-103.0,-859.0,88.0,-47.0,1
25.0,-243.0,-105.0,-861.0,94.0,-55.0,1
27.0,-240.0,-107.0,-863.0,100.0,-65.0,1
28.0,-240.0,-106.0,-863.0,107.0,-75.0,1
27.0,-240.0,-107.0,-860.0,115.0,-88.0,1
29.0,-239.0,-107.0,-857.0,121.0,-98.0,1
29.0,-240.0,-108.0,-851.0,126.0,-106.0,1
27.0,-243.0,-111.0,-845.0,135.0,-114.0,1
27.0,-237.0,-114.0,-838.0,140.0,-119.0,1
28.0,-240.0,-114.0,-831.0,147.0,-123.0,1
25.0,-238.0,-112.0,-822.0,153.0,-125.0,1
26.0,-242.0,-113.0,-813.0,159.0,-127.0,1
22.0,-241.0,-116.0,-803.0,163.0,-129.0,1
24.0,-238.0,-118.0,-795.0,170.0,-129.0,1
22.0,-241.0,-120.0,-786.0,179.0,-128.0,1
23.0,-241.0,-122.0,-781.0,188.0,-130.0,1
21.0,-235.0,-120.0,-770.0,196.0,-129.0,1
22.0,-239.0,-120.0,-761.0,204.0,-130.0,1
21.0,-238.0,-122.0,-752.0,213.0,-131.0,1
20.0,-238.0,-121.0,-745.0,224.0,-134.0,1
20.0,-236.0,-121.0,-738.0,235.0,-134.0,1
20.0,-229.0,-125.0,-733.0,247.0,-138.0,1
20.0,-232.0,-125.0,-725.0,259.0,-139.0,1
19.0,-229.0,-125.0,-718.0,273.0,-142.0,1
18.0,-225.0,-128.0,-712.0,290.0,-145.0,1
20.0,-227.0,-123.0,-707.0,309.0,-152.0,1
22.0,-226.0,-125.0,-702.0,323.0,-154.0,1
19.0,-219.0,-125.0,-697.0,333.0,-159.0,1
18.0,-219.0,-128.0,-691.0,344.0,-162.0,1
17.0,-220.0,-126.0,-688.0,348.0,-164.0,1
12.0,-220.0,-126.0,-683.0,352.0,-165.0,1
12.0,-219.0,-128.0,-677.0,352.0,-163.0,1
11.0,-217.0,-131.0,-675.0,348.0,-158.0,1
6.0,-218.0,-134.0,-674.0,343.0,-152.0,1
11.0,-218.0,-128.0,-674.0,332.0,-140.0,1
8.0,-218.0,-133.0,-676.0,316.0,-135.0,1
11.0,-219.0,-135.0,-680.0,299.0,-123.0,1
12.0,-220.0,-139.0,-686.0,281.0,-115.0,1
9.0,-221.0,-143.0,-692.0,260.0,-106.0,1
8.0,-222.0,-147.0,-699.0,237.0,-102.0,1
11.0,-222.0,-145.0,-705.0,212.0,-96.0,1
10.0,-222.0,-149.0,-710.0,187.0,-94.0,1
9.0,-221.0,-151.0,-711.0,165.0,-91.0,1
11.0,-222.0,-152.0,-710.0,145.0,-90.0,1
12.0,-219.0,-150.0,-707.0,128.0,-87.0,1
10.0,-217.0,-152.0,-699.0,109.0,-88.0,1
13.0,-216.0,-152.0,-693.0,95.0,-84.0,1
16.0,-211.0,-155.0,-688.0,85.0,-84.0,1
13.0,-210.0,-153.0,-685.0,80.0,-81.0,1
15.0,-206.0,-151.0,-682.0,79.0,-76.0,1
18.0,-207.0,-153.0,-683.0,78.0,-70.0,1
20.0,-203.0,-153.0,-690.0,74.0,-70.0,1
19.0,-200.0,-153.0,-700.0,73.0,-65.0,1
23.0,-203.0,-154.0,-706.0,75.0,-64.0,1
26.0,-205.0,-149.0,-707.0,78.0,-60.0,1
25.0,-203.0,-155.0,-704.0,83.0,-61.0,1
31.0,-209.0,-154.0,-697.0,92.0,-57.0,1
30.0,-211.0,-159.0,-694.0,101.0,-60.0,1
29.0,-212.0,-160.0,-690.0,114.0,-58.0,1
32.0,-213.0,-159.0,-686.0,122.0,-63.0,1
35.0,-216.0,-163.0,-678.0,138.0,-64.0,1
34.0,-216.0,-159.0,-665.0,153.0,-67.0,1
36.0,-220.0,-162.0,-657.0,165.0,-69.0,1
35.0,-218.0,-165.0,-652.0,177.0,-75.0,1
36.0,-216.0,-168.0,-646.0,192.0,-75.0,1
40.0,-216.0,-159.0,-640.0,203.0,-82.0,1
37.0,-212.0,-163.0,-635.0,213.0,-82.0,1
36.0,-211.0,-159.0,-633.0,221.0,-88.0,1
39.0,-209.0,-161.0,-633.0,230.0,-87.0,1
37.0,-209.0,-165.0,-632.0,234.0,-92.0,1
37.0,-206.0,-165.0,-628.0,239.0,-93.0,1
37.0,-206.0,-165.0,-623.0,245.0,-97.0,1
38.0,-207.0,-166.0,-616.0,253.0,-99.0,1
36.0,-203.0,-164.0,-608.0,261.0,-104.0,1
40.0,-202.0,-167.0,-597.0,270.0,-110.0,1
37.0,-200.0,-172.0,-588.0,277.0,-118.0,1
41.0,-201.0,-171.0,-580.0,282.0,-120.0,1
37.0,-199.0,-170.0,-576.0,283.0,-130.0,1
37.0,-197.0,-171.0,-574.0,284.0,-136.0,1
36.0,-197.0,-173.0,-572.0,280.0,-145.0,1
35.0,-196.0,-170.0,-574.0,275.0,-148.0,1
35.0,-198.0,-173.0,-574.0,270.0,-157.0,1
34.0,-192.0,-171.0,-575.0,267.0,-163.0,1
29.0,-193.0,-173.0,-575.0,264.0,-179.0,1
32.0,-192.0,-170.0,-571.0,264.0,-188.0,1
31.0,-194.0,-173.0,-564.0,266.0,-199.0,1
27.0,-190.0,-173.0,-555.0,268.0,-205.0,1
24.0,-191.0,-172.0,-548.0,270.0,-213.0,1
26.0,-186.0,-175.0,-544.0,271.0,-215.0,1
20.0,-187.0,-171.0,-541.0,273.0,-225.0,1
19.0,-186.0,-176.0,-537.0,273.0,-227.0,1
18.0,-185.0,-176.0,-538.0,271.0,-229.0,1
19.0,-184.0,-178.0,-537.0,266.0,-227.0,1
19.0,-184.0,-178.0,-535.0,259.0,-227.0,1
16.0,-185.0,-180.0,-532.0,250.0,-221.0,1
23.0,-184.0,-183.0,-526.0,244.0,-208.0,1
27.0,-190.0,-179.0,-514.0,255.0,-152.0,1
19.0,-191.0,-180.0,-497.0,255.0,-141.0,1
19.0,-189.0,-180.0,-490.0,245.0,-158.0,1
24.0,-190.0,-183.0,-480.0,226.0,-175.0,1
27.0,-192.0,-183.0,-475.0,212.0,-174.0,1
30.0,-193.0,-181.0,-481.0,194.0,-176.0,1
33.0,-188.0,-178.0,-481.0,181.0,-162.0,1
37.0,-187.0,-180.0,-483.0,176.0,-156.0,1
40.0,-187.0,-183.0,-493.0,179.0,-147.0,1
42.0,-180.0,-182.0,-511.0,185.0,-146.0,1
43.0,-180.0,-185.0,-533.0,191.0,-140.0,1
46.0,-176.0,-184.0,-550.0,204.0,-142.0,1
46.0,-176.0,-185.0,-559.0,225.0,-138.0,1
50.0,-174.0,-184.0,-562.0,247.0,-140.0,1
52.0,-171.0,-181.0,-561.0,274.0,-136.0,1
48.0,-168.0,-179.0,-555.0,303.0,-134.0,1
50.0,-170.0,-181.0,-544.0,331.0,-126.0,1
50.0,-172.0,-183.0,-531.0,373.0,-122.0,1
51.0,-167.0,-180.0,-513.0,405.0,-116.0,1
50.0,-168.0,-183.0,-497.0,434.0,-114.0,1
51.0,-167.0,-179.0,-483.0,460.0,-108.0,1
51.0,-168.0,-177.0,-469.0,484.0,-105.0,1
48.0,-167.0,-179.0,-456.0,503.0,-98.0,1
49.0,-166.0,-183.0,-447.0,517.0,-95.0,1
48.0,-164.0,-180.0,-438.0,527.0,-91.0,1
50.0,-167.0,-179.0,-431.0,532.0,-96.0,1
47.0,-164.0,-179.0,-419.0,537.0,-97.0,1
49.0,-169.0,-177.0,-413.0,537.0,-109.0,1
49.0,-166.0,-181.0,-416.0,536.0,-115.0,1
53.0,-165.0,-183.0,-428.0,526.0,-135.0,1
51.0,-162.0,-180.0,-439.0,520.0,-149.0,1
49.0,-158.0,-184.0,-445.0,518.0,-168.0,1
48.0,-163.0,-183.0,-445.0,519.0,-178.0,1
52.0,-160.0,-186.0,-445.0,519.0,-188.0,1
48.0,-156.0,-185.0,-448.0,513.0,-194.0,1
50.0,-155.0,-186.0,-459.0,506.0,-198.0,1
47.0,-153.0,-184.0,-479.0,494.0,-204.0,1
43.0,-149.0,-185.0,-510.0,476.0,-202.0,1
44.0,-152.0,-191.0,-532.0,461.0,-199.0,1
47.0,-151.0,-190.0,-556.0,450.0,-196.0,1
42.0,-151.0,-191.0,-577.0,442.0,-187.0,1
42.0,-154.0,-191.0,-596.0,434.0,-178.0,1
45.0,-157.0,-195.0,-613.0,430.0,-166.0,1
42.0,-162.0,-196.0,-628.0,428.0,-157.0,1
47.0,-164.0,-201.0,-641.0,423.0,-148.0,1
46.0,-164.0,-196.0,-651.0,421.0,-144.0,1
49.0,-169.0,-201.0,-654.0,424.0,-138.0,1
51.0,-185.0,-198.0,-650.0,449.0,-148.0,1
39.0,-144.0,-202.0,-635.0,465.0,-147.0,1
53.0,-163.0,-196.0,-652.0,461.0,-101.0,1
47.0,-160.0,-201.0,-645.0,454.0,-103.0,1
49.0,-155.0,-203.0,-659.0,446.0,-100.0,1
53.0,-159.0,-200.0,-691.0,439.0,-87.0,1
59.0,-163.0,-199.0,-712.0,433.0,-79.0,1
61.0,-157.0,-205.0,-720.0,434.0,-68.0,1
59.0,-155.0,-191.0,-738.0,442.0,-49.0,1
68.0,-172.0,-195.0,-767.0,417.0,-34.0,1
60.0,-169.0,-198.0,-728.0,408.0,-67.0,1
60.0,-176.0,-197.0,-685.0,417.0,-78.0,1
64.0,-173.0,-198.0,-645.0,428.0,-84.0,1
63.0,-174.0,-200.0,-605.0,434.0,-90.0,1
63.0,-170.0,-198.0,-568.0,438.0,-93.0,1
67.0,-173.0,-201.0,-530.0,443.0,-94.0,1
62.0,-165.0,-199.0,-495.0,443.0,-97.0,1
69.0,-166.0,-192.0,-464.0,442.0,-97.0,1
67.0,-166.0,-198.0,-439.0,439.0,-98.0,1
72.0,-167.0,-195.0,-417.0,429.0,-97.0,1
74.0,-168.0,-196.0,-398.0,418.0,-99.0,1
76.0,-169.0,-195.0,-380.0,415.0,-102.0,1
72.0,-166.0,-193.0,-358.0,416.0,-102.0,1
76.0,-166.0,-196.0,-335.0,415.0,-103.0,1
74.0,-161.0,-188.0,-315.0,410.0,-106.0,1
74.0,-158.0,-191.0,-297.0,400.0,-106.0,1
74.0,-155.0,-190.0,-283.0,388.0,-103.0,1
76.0,-153.0,-188.0,-274.0,372.0,-96.0,1
78.0,-153.0,-187.0,-271.0,359.0,-91.0,1
82.0,-155.0,-185.0,-265.0,344.0,-91.0,1
80.0,-153.0,-185.0,-261.0,333.0,-91.0,1
80.0,-152.0,-185.0,-249.0,327.0,-89.0,1
81.0,-151.0,-186.0,-235.0,322.0,-87.0,1
81.0,-153.0,-183.0,-217.0,320.0,-84.0,1
81.0,-152.0,-183.0,-193.0,319.0,-80.0,1
83.0,-154.0,-184.0,-168.0,315.0,-77.0,1
82.0,-153.0,-180.0,-141.0,314.0,-75.0,1
79.0,-151.0,-179.0,-118.0,310.0,-69.0,1
78.0,-151.0,-179.0,-96.0,307.0,-64.0,1
85.0,-150.0,-175.0,-72.0,306.0,-58.0,1
81.0,-151.0,-173.0,-57.0,304.0,-46.0,1
81.0,-153.0,-172.0,-43.0,298.0,-47.0,1
79.0,-149.0,-172.0,-35.0,292.0,-49.0,1
74.0,-149.0,-170.0,-27.0,286.0,-54.0,1
76.0,-152.0,-165.0,-17.0,282.0,-57.0,1
72.0,-150.0,-165.0,-9.0,277.0,-58.0,1
71.0,-151.0,-163.0,-2.0,275.0,-59.0,1
70.0,-154.0,-167.0,5.0,273.0,-59.0,1
64.0,-152.0,-161.0,9.0,267.0,-60.0,1
66.0,-157.0,-161.0,16.0,262.0,-59.0,1
62.0,-160.0,-163.0,25.0,253.0,-53.0,1
60.0,-159.0,-164.0,31.0,242.0,-46.0,1
59.0,-161.0,-166.0,37.0,225.0,-35.0,1
58.0,-161.0,-166.0,43.0,201.0,-24.0,1
55.0,-161.0,-170.0,41.0,172.0,-6.0,1
57.0,-160.0,-169.0,36.0,137.0,12.0,1
54.0,-159.0,-172.0,23.0,95.0,34.0,1
57.0,-158.0,-171.0,9.0,46.0,57.0,1
53.0,-157.0,-172.0,-9.0,-23.0,84.0,1
53.0,-153.0,-171.0,-33.0,-84.0,111.0,1
53.0,-153.0,-171.0,-53.0,-150.0,137.0,1
53.0,-151.0,-170.0,-77.0,-220.0,157.0,1
52.0,-148.0,-176.0,-105.0,-294.0,178.0,1
51.0,-147.0,-170.0,-132.0,-372.0,196.0,1
50.0,-146.0,-173.0,-153.0,-451.0,210.0,1
51.0,-140.0,-172.0,-167.0,-534.0,220.0,1
44.0,-142.0,-168.0,-177.0,-616.0,231.0,1
42.0,-141.0,-169.0,-174.0,-690.0,245.0,1
36.0,-143.0,-168.0,-148.0,-778.0,255.0,1
32.0,-136.0,-167.0,-113.0,-846.0,258.0,1
30.0,-136.0,-165.0,-71.0,-909.0,260.0,1
22.0,-135.0,-156.0,-20.0,-966.0,257.0,1
20.0,-136.0,-153.0,41.0,-1024.0,259.0,1
19.0,-133.0,-155.0,105.0,-1075.0,253.0,1
15.0,-131.0,-148.0,160.0,-1121.0,243.0,1
13.0,-130.0,-149.0,197.0,-1153.0,229.0,1
13.0,-128.0,-147.0,217.0,-1186.0,206.0,1
12.0,-121.0,-147.0,210.0,-1212.0,164.0,1
10.0,-120.0,-142.0,168.0,-1236.0,131.0,1
12.0,-116.0,-147.0,112.0,-1260.0,99.0,1
16.0,-116.0,-152.0,37.0,-1287.0,68.0,1
21.0,-114.0,-152.0,-53.0,-1308.0,27.0,1
20.0,-109.0,-152.0,-146.0,-1332.0,-10.0,1
26.0,-104.0,-154.0,-237.0,-1353.0,-48.0,1
26.0,-94.0,-150.0,-323.0,-1360.0,-66.0,1
27.0,-91.0,-155.0,-410.0,-1389.0,-71.0,1
39.0,-98.0,-150.0,-486.0,-1430.0,-71.0,1
40.0,-88.0,-150.0,-539.0,-1463.0,-94.0,1
52.0,-91.0,-148.0,-563.0,-1477.0,-93.0,1
61.0,-87.0,-143.0,-552.0,-1493.0,-82.0,1
59.0,-83.0,-128.0,-502.0,-1518.0,-78.0,1
66.0,-70.0,-133.0,-406.0,-1577.0,-132.0,1
63.0,-50.0,-123.0,-303.0,-1598.0,-143.0,1
70.0,-43.0,-109.0,-200.0,-1618.0,-122.0,1
75.0,-39.0,-113.0,-61.0,-1665.0,-88.0,1
70.0,-35.0,-117.0,58.0,-1722.0,-94.0,1
63.0,-25.0,-119.0,120.0,-1773.0,-109.0,1
53.0,-15.0,-124.0,99.0,-1827.0,-111.0,1
43.0,-26.0,-114.0,39.0,-1863.0,-93.0,1
28.0,-34.0,-100.0,11.0,-1921.0,-85.0,1
18.0,-40.0,-106.0,24.0,-1994.0,-76.0,1
17.0,-63.0,-132.0,-14.0,-2035.0,-80.0,1
4.0,-85.0,-138.0,-124.0,-2035.0,-91.0,1
-12.0,-103.0,-137.0,-258.0,-2025.0,-122.0,1
-29.0,-115.0,-132.0,-378.0,-2023.0,-143.0,1
-43.0,-118.0,-134.0,-461.0,-2030.0,-154.0,1
-49.0,-129.0,-132.0,-506.0,-2037.0,-139.0,1
-52.0,-133.0,-136.0,-517.0,-2039.0,-118.0,1
-50.0,-136.0,-139.0,-504.0,-2036.0,-84.0,1
-50.0,-133.0,-142.0,-490.0,-2020.0,-51.0,1
-37.0,-132.0,-143.0,-475.0,-1992.0,-12.0,1
-26.0,-131.0,-143.0,-446.0,-1947.0,18.0,1
-13.0,-130.0,-146.0,-390.0,-1890.0,53.0,1
2.0,-122.0,-146.0,-329.0,-1816.0,74.0,1
25.0,-112.0,-145.0,-280.0,-1730.0,84.0,1
34.0,-111.0,-145.0,-245.0,-1630.0,75.0,1
47.0,-103.0,-139.0,-231.0,-1499.0,61.0,1
68.0,-106.0,-146.0,-238.0,-1378.0,42.0,1
79.0,-104.0,-149.0,-255.0,-1245.0,25.0,1
92.0,-107.0,-148.0,-296.0,-1109.0,5.0,1
102.0,-118.0,-142.0,-363.0,-984.0,-11.0,1
97.0,-122.0,-138.0,-429.0,-882.0,-39.0,1
95.0,-126.0,-134.0,-495.0,-806.0,-55.0,1
94.0,-133.0,-126.0,-550.0,-757.0,-69.0,1
95.0,-137.0,-125.0,-570.0,-737.0,-83.0,1
86.0,-139.0,-119.0,-575.0,-718.0,-104.0,1
80.0,-146.0,-113.0,-568.0,-711.0,-109.0,1
75.0,-146.0,-105.0,-547.0,-717.0,-120.0,1
63.0,-137.0,-115.0,-514.0,-729.0,-140.0,1
37.0,-125.0,-118.0,-497.0,-761.0,-130.0,1
46.0,-128.0,-114.0,-514.0,-841.0,-41.0,1
53.0,-133.0,-109.0,-513.0,-926.0,22.0,1
43.0,-126.0,-114.0,-471.0,-985.0,21.0,1
-10.0,-108.0,-125.0,-454.0,-1037.0,56.0,1
16.0,-136.0,-122.0,-511.0,-1152.0,214.0,1
29.0,-147.0,-107.0,-529.0,-1269.0,320.0,1
-19.0,-141.0,-102.0,-474.0,-1387.0,367.0,1
-10.0,-172.0,-106.0,-452.0,-1540.0,495.0,1
-11.0,-177.0,-99.0,-430.0,-1677.0,580.0,1
-58.0,-181.0,-106.0,-403.0,-1790.0,622.0,1
-67.0,-200.0,-117.0,-387.0,-1901.0,646.0,1
-153.0,-211.0,-111.0,-362.0,-1975.0,620.0,1
-1348.0,328.0,-2154.0,-350.0,-2044.0,648.0,1
-1693.0,-693.0,-1224.0,-3976.0,925.0,1960.0,1
-1250.0,135.0,-755.0,-7769.0,4207.0,2422.0,1
-150.0,262.0,-105.0,-8789.0,8338.0,3552.0,1
995.0,31.0,570.0,-6671.0,8620.0,3271.0,1
317.0,506.0,-485.0,-4556.0,5603.0,2310.0,1
475.0,731.0,-923.0,-2738.0,3868.0,1814.0,1
465.0,348.0,-1166.0,-1010.0,843.0,293.0,1
103.0,72.0,-920.0,-845.0,-2226.0,-1061.0,1
-79.0,116.0,-546.0,-1351.0,-4015.0,-1443.0,1
11.0,206.0,-437.0,-2019.0,-5138.0,-1043.0,1
32.0,213.0,-457.0,-2062.0,-5451.0,-523.0,1
-39.0,179.0,-466.0,-1893.0,-5188.0,-303.0,1
-146.0,101.0,-529.0,-1726.0,-4633.0,-210.0,1
-283.0,-119.0,-511.0,-1702.0,-4045.0,-119.0,1
-388.0,-229.0,-574.0,-1642.0,-3448.0,12.0,1
-426.0,-256.0,-631.0,-1577.0,-2852.0,208.0,1
-419.0,-236.0,-640.0,-1478.0,-2170.0,387.0,1
-427.0,-180.0,-650.0,-1401.0,-1456.0,523.0,1
-440.0,-64.0,-723.0,-1293.0,-992.0,611.0,1
-365.0,-40.0,-702.0,-1287.0,-898.0,680.0,1
-355.0,4.0,-613.0,-1244.0,-948.0,681.0,1
-302.0,19.0,-514.0,-1108.0,-1003.0,702.0,1
-256.0,35.0,-476.0,-781.0,-978.0,708.0,1
-173.0,6.0,-421.0,-601.0,-942.0,726.0,1
-185.0,47.0,-379.0,-491.0,-982.0,726.0,1
-121.0,21.0,-345.0,-377.0,-1076.0,795.0,1
-126.0,-13.0,-307.0,-245.0,-1206.0,962.0,1
-106.0,16.0,-342.0,-185.0,-1514.0,1033.0,1
-98.0,9.0,-298.0,-213.0,-1986.0,921.0,1
-148.0,18.0,-292.0,-190.0,-2497.0,824.0,1
-186.0,16.0,-244.0,-162.0,-2946.0,825.0,1
-209.0,46.0,-200.0,-163.0,-3324.0,850.0,1
-220.0,74.0,-192.0,-196.0,-3590.0,901.0,1
-233.0,95.0,-147.0,-280.0,-3664.0,1015.0,1
-203.0,129.0,-123.0,-333.0,-3637.0,1149.0,1
-162.0,143.0,-116.0,-404.0,-3475.0,1229.0,1
-156.0,148.0,-110.0,-499.0,-3144.0,1215.0,1
-156.0,127.0,-92.0,-582.0,-2666.0,1104.0,1
-145.0,108.0,-79.0,-636.0,-2128.0,945.0,1
-147.0,95.0,-64.0,-664.0,-1583.0,807.0,1
-137.0,73.0,-53.0,-650.0,-1043.0,743.0,1
-140.0,65.0,-60.0,-596.0,-466.0,769.0,1
-122.0,56.0,-75.0,-503.0,-45.0,823.0,1
-107.0,41.0,-86.0,-459.0,287.0,837.0,1
-107.0,53.0,-95.0,-436.0,518.0,836.0,1
-98.0,43.0,-107.0,-394.0,612.0,851.0,1
-89.0,59.0,-124.0,-340.0,657.0,863.0,1
-98.0,73.0,-133.0,-366.0,666.0,858.0,1
-103.0,91.0,-126.0,-416.0,618.0,883.0,1
-108.0,92.0,-122.0,-411.0,545.0,899.0,1
-100.0,118.0,-137.0,-337.0,514.0,887.0,1
-104.0,120.0,-139.0,-283.0,554.0,780.0,1
-111.0,118.0,-151.0,-187.0,607.0,594.0,1
-133.0,102.0,-152.0,-81.0,686.0,423.0,1
-122.0,82.0,-158.0,116.0,777.0,349.0,1
-113.0,82.0,-162.0,303.0,901.0,254.0,1
-114.0,67.0,-159.0,449.0,1019.0,102.0,1
-122.0,45.0,-152.0,607.0,1118.0,-32.0,1
-145.0,35.0,-152.0,809.0,1195.0,-119.0,1
-142.0,32.0,-168.0,1019.0,1272.0,-148.0,1
-147.0,34.0,-191.0,1171.0,1384.0,-155.0,1
-135.0,22.0,-213.0,1206.0,1559.0,-166.0,1
-143.0,38.0,-221.0,1141.0,1718.0,-171.0,1
-158.0,58.0,-232.0,1018.0,1852.0,-160.0,1
-142.0,63.0,-238.0,801.0,1959.0,-168.0,1
-158.0,56.0,-225.0,602.0,2035.0,-184.0,1
-139.0,73.0,-236.0,500.0,2033.0,-129.0,1
-142.0,89.0,-236.0,382.0,2002.0,-96.0,1
-138.0,96.0,-230.0,281.0,1948.0,-82.0,1
-149.0,119.0,-243.0,221.0,1855.0,-56.0,1
-141.0,106.0,-237.0,156.0,1739.0,-21.0,1
-138.0,109.0,-238.0,112.0,1602.0,-9.0,1
-134.0,106.0,-235.0,87.0,1508.0,0.0,1
-131.0,92.0,-238.0,46.0,1420.0,-1.0,1
-124.0,94.0,-235.0,1.0,1318.0,3.0,1
-99.0,52.0,-229.0,-12.0,1206.0,2.0,1
-97.0,41.0,-281.0,17.0,1121.0,-15.0,1
-98.0,35.0,-264.0,60.0,1062.0,-29.0,1
-96.0,30.0,-250.0,94.0,1024.0,-35.0,1
-93.0,30.0,-254.0,148.0,971.0,-35.0,1
-91.0,26.0,-259.0,184.0,900.0,-43.0,1
-93.0,23.0,-266.0,204.0,843.0,-52.0,1
-91.0,23.0,-262.0,209.0,790.0,-52.0,1
-93.0,19.0,-257.0,205.0,745.0,-53.0,1
-96.0,11.0,-256.0,205.0,712.0,-55.0,1
-100.0,13.0,-256.0,213.0,688.0,-59.0,1
-93.0,13.0,-253.0,225.0,671.0,-61.0,1
-92.0,16.0,-257.0,237.0,657.0,-68.0,1
-89.0,11.0,-258.0,239.0,642.0,-73.0,1
-91.0,13.0,-256.0,229.0,615.0,-84.0,1
-98.0,14.0,-257.0,220.0,600.0,-90.0,1
-97.0,13.0,-253.0,215.0,592.0,-94.0,1
-84.0,14.0,-254.0,215.0,585.0,-99.0,1
-86.0,11.0,-253.0,224.0,570.0,-114.0,1
-93.0,10.0,-255.0,243.0,558.0,-120.0,1
-91.0,6.0,-259.0,250.0,555.0,-126.0,1
-85.0,12.0,-254.0,240.0,556.0,-121.0,1
-97.0,5.0,-251.0,229.0,555.0,-126.0,1
-93.0,9.0,-253.0,221.0,551.0,-113.0,1
-85.0,9.0,-250.0,216.0,550.0,-110.0,1
-88.0,12.0,-252.0,229.0,541.0,-111.0,1
-87.0,6.0,-257.0,234.0,538.0,-119.0,1
-87.0,3.0,-257.0,222.0,530.0,-112.0,1
-86.0,3.0,-257.0,195.0,511.0,-104.0,1
-89.0,5.0,-253.0,170.0,487.0,-85.0,1
-86.0,4.0,-253.0,156.0,473.0,-72.0,1
-86.0,1.0,-255.0,145.0,466.0,-56.0,1
-85.0,0.0,-254.0,129.0,455.0,-46.0,1
-85.0,3.0,-252.0,106.0,442.0,-33.0,1
-84.0,6.0,-257.0,86.0,425.0,-24.0,1
-78.0,7.0,-259.0,71.0,415.0,-15.0,1
-79.0,2.0,-262.0,57.0,407.0,-10.0,1
-79.0,6.0,-259.0,44.0,393.0,-2.0,1
-80.0,8.0,-260.0,31.0,375.0,0.0,1
-78.0,8.0,-256.0,23.0,362.0,6.0,1
-76.0,4.0,-265.0,17.0,351.0,5.0,1
-78.0,2.0,-257.0,5.0,351.0,9.0,1
-77.0,4.0,-263.0,-3.0,339.0,10.0,1
-76.0,7.0,-260.0,-9.0,324.0,11.0,1
-74.0,6.0,-262.0,-10.0,311.0,10.0,1
-75.0,5.0,-267.0,-9.0,301.0,11.0,1
-71.0,0.0,-261.0,-15.0,292.0,8.0,1
-80.0,4.0,-262.0,-20.0,286.0,8.0,1
-77.0,8.0,-258.0,-28.0,280.0,6.0,1
-75.0,8.0,-262.0,-25.0,268.0,6.0,1
-73.0,4.0,-256.0,-19.0,260.0,-2.0,1
-73.0,4.0,-259.0,-16.0,254.0,-5.0,1
-75.0,3.0,-262.0,-16.0,251.0,-14.0,1
-74.0,3.0,-259.0,-22.0,250.0,-18.0,1
-74.0,3.0,-262.0,-25.0,247.0,-25.0,1
-71.0,-1.0,-258.0,-28.0,247.0,-26.0,1
-75.0,-1.0,-262.0,-31.0,248.0,-31.0,1
-72.0,-1.0,-261.0,-35.0,246.0,-27.0,1
-74.0,3.0,-259.0,-38.0,238.0,-31.0,1
-72.0,1.0,-259.0,-43.0,234.0,-32.0,1
-74.0,1.0,-260.0,-42.0,229.0,-29.0,1
-55.0,10.0,-258.0,-49.0,222.0,-24.0,1
-75.0,1.0,-250.0,-52.0,211.0,-27.0,1
-78.0,8.0,-253.0,-52.0,202.0,-28.0,1
-75.0,6.0,-258.0,-48.0,186.0,-32.0,1
-75.0,5.0,-259.0,-45.0,174.0,-28.0,1
-74.0,6.0,-258.0,-49.0,161.0,-29.0,1
-74.0,4.0,-252.0,-50.0,148.0,-25.0,1
-73.0,2.0,-256.0,-47.0,141.0,-27.0,1
-72.0,3.0,-255.0,-48.0,133.0,-22.0,1
-71.0,3.0,-253.0,-50.0,124.0,-22.0,1
-72.0,1.0,-260.0,-53.0,114.0,-17.0,1
-71.0,8.0,-258.0,-58.0,106.0,-17.0,1
-74.0,8.0,-258.0,-61.0,98.0,-12.0,1
-73.0,9.0,-261.0,-64.0,90.0,-11.0,1
-70.0,9.0,-259.0,-67.0,79.0,-7.0,1
-72.0,9.0,-259.0,-69.0,68.0,-9.0,1
-72.0,9.0,-255.0,-72.0,60.0,-5.0,1
-72.0,10.0,-260.0,-74.0,52.0,-5.0,1
-74.0,12.0,-256.0,-75.0,44.0,-2.0,1
-72.0,9.0,-257.0,-73.0,36.0,-3.0,1
-74.0,13.0,-253.0,-70.0,30.0,0.0,1
-73.0,10.0,-254.0,-68.0,25.0,-4.0,1
-75.0,11.0,-251.0,-63.0,18.0,0.0,1
-76.0,13.0,-253.0,-59.0,15.0,-3.0,1
-73.0,6.0,-254.0,-54.0,13.0,-1.0,1
-75.0,9.0,-256.0,-50.0,10.0,-3.0,1
-74.0,12.0,-253.0,-48.0,10.0,1.0,1
-73.0,11.0,-254.0,-48.0,9.0,0.0,1
-73.0,8.0,-252.0,-46.0,8.0,2.0,1
-76.0,10.0,-255.0,-46.0,8.0,0.0,1
-76.0,11.0,-253.0,-45.0,5.0,4.0,1
-77.0,9.0,-254.0,-44.0,5.0,3.0,1
-73.0,11.0,-256.0,-42.0,5.0,5.0,1
-75.0,12.0,-254.0,-42.0,4.0,4.0,1
-77.0,13.0,-252.0,-41.0,5.0,6.0,1
-76.0,11.0,-253.0,-41.0,5.0,6.0,1
-73.0,8.0,-253.0,-42.0,7.0,8.0,1
-73.0,9.0,-255.0,-40.0,6.0,7.0,1
-74.0,12.0,-255.0,-42.0,7.0,10.0,1
-75.0,10.0,-253.0,-44.0,9.0,7.0,1
-74.0,11.0,-252.0,-44.0,11.0,10.0,1
-74.0,9.0,-253.0,-43.0,11.0,7.0,1
-76.0,16.0,-252.0,-43.0,11.0,7.0,1
-76.0,14.0,-249.0,-44.0,10.0,5.0,1
-72.0,9.0,-253.0,-40.0,13.0,7.0,1
-72.0,11.0,-255.0,-36.0,16.0,7.0,1
-75.0,9.0,-251.0,-34.0,14.0,8.0,1
-75.0,10.0,-252.0,-37.0,15.0,7.0,1
-74.0,10.0,-252.0,-42.0,19.0,9.0,1
-74.0,13.0,-252.0,-42.0,23.0,8.0,1
-75.0,13.0,-253.0,-40.0,25.0,10.0,1
-76.0,11.0,-251.0,-39.0,24.0,9.0,1
-73.0,13.0,-249.0,-36.0,27.0,7.0,1
-74.0,12.0,-257.0,-36.0,29.0,6.0,1
-75.0,12.0,-250.0,-35.0,30.0,7.0,1
-74.0,15.0,-252.0,-35.0,33.0,6.0,1
-75.0,13.0,-250.0,-33.0,36.0,6.0,1
-76.0,12.0,-252.0,-30.0,37.0,4.0,1
-73.0,9.0,-251.0,-30.0,39.0,4.0,1
-76.0,15.0,-250.0,-28.0,42.0,2.0,1
-75.0,13.0,-253.0,-26.0,43.0,3.0,1
-75.0,10.0,-252.0,-26.0,44.0,2.0,1
-75.0,12.0,-254.0,-24.0,44.0,3.0,1
-75.0,11.0,-253.0,-21.0,45.0,2.0,1
-75.0,13.0,-248.0,-22.0,45.0,2.0,1
-76.0,12.0,-257.0,-22.0,44.0,2.0,1
-77.0,11.0,-256.0,-21.0,45.0,0.0,1
-76.0,13.0,-251.0,-20.0,45.0,0.0,1
-74.0,12.0,-254.0,-20.0,46.0,1.0,1
-76.0,13.0,-256.0,-21.0,49.0,0.0,1
-76.0,15.0,-251.0,-22.0,51.0,1.0,1
-78.0,13.0,-256.0,-21.0,54.0,1.0,1
-76.0,13.0,-251.0,-23.0,59.0,0.0,1
-75.0,13.0,-255.0,-22.0,61.0,0.0,1
-76.0,11.0,-255.0,-21.0,62.0,1.0,1
-75.0,10.0,-250.0,-20.0,64.0,-1.0,1
-75.0,14.0,-251.0,-22.0,67.0,-1.0,1
-77.0,13.0,-252.0,-20.0,67.0,-2.0,1
-75.0,16.0,-256.0,-20.0,67.0,-1.0,1
-77.0,16.0,-251.0,-18.0,68.0,-4.0,1
-75.0,11.0,-250.0,-17.0,68.0,-5.0,1
-74.0,12.0,-251.0,-18.0,68.0,-4.0,1
-77.0,12.0,-251.0,-17.0,67.0,-6.0,1
-76.0,14.0,-252.0,-14.0,64.0,-6.0,1
-75.0,13.0,-251.0,-16.0,65.0,-6.0,1
-76.0,12.0,-250.0,-16.0,63.0,-8.0,1
-76.0,13.0,-251.0,-16.0,64.0,-9.0,1
-76.0,13.0,-250.0,-17.0,67.0,-8.0,1
-75.0,12.0,-250.0,-16.0,67.0,-9.0,1
-76.0,13.0,-251.0,-17.0,67.0,-9.0,1
-76.0,15.0,-254.0,-17.0,65.0,-9.0,1
-73.0,11.0,-253.0,-17.0,64.0,-7.0,1
-73.0,12.0,-253.0,-19.0,62.0,-8.0,1
-75.0,12.0,-250.0,-20.0,60.0,-6.0,1
-76.0,14.0,-250.0,-21.0,59.0,-7.0,1
-75.0,11.0,-250.0,-22.0,58.0,-5.0,1
-77.0,13.0,-253.0,-24.0,59.0,-6.0,1
-75.0,9.0,-250.0,-24.0,60.0,-5.0,1
-77.0,13.0,-255.0,-26.0,61.0,-5.0,1
-76.0,15.0,-250.0,-24.0,64.0,-6.0,1
-76.0,11.0,-250.0,-23.0,66.0,-6.0,1
-77.0,14.0,-248.0,-21.0,70.0,-6.0,1
-75.0,13.0,-255.0,-19.0,71.0,-6.0,1
-77.0,14.0,-258.0,-20.0,75.0,-4.0,1
-77.0,12.0,-255.0,-21.0,78.0,-6.0,1
-75.0,12.0,-252.0,-22.0,82.0,-5.0,1
-77.0,13.0,-251.0,-22.0,82.0,-4.0,1
-76.0,13.0,-252.0,-22.0,84.0,-4.0,1
-73.0,10.0,-257.0,-21.0,86.0,-4.0,1
-76.0,11.0,-255.0,-19.0,87.0,-2.0,1
-75.0,10.0,-249.0,-17.0,88.0,-4.0,1
-75.0,11.0,-254.0,-15.0,89.0,-2.0,1
-76.0,12.0,-253.0,-16.0,90.0,-3.0,1
-76.0,12.0,-253.0,-17.0,90.0,-3.0,1
-76.0,13.0,-253.0,-17.0,92.0,-3.0,1
-75.0,13.0,-256.0,-15.0,93.0,-3.0,1
-75.0,8.0,-253.0,-14.0,92.0,-4.0,1
-75.0,12.0,-255.0,-15.0,93.0,-2.0,1
-76.0,13.0,-256.0,-14.0,90.0,-3.0,1
-75.0,16.0,-253.0,-15.0,91.0,-2.0,1
-76.0,14.0,-252.0,-15.0,91.0,-4.0,1
-76.0,12.0,-255.0,-14.0,89.0,-3.0,1
-74.0,14.0,-254.0,-15.0,88.0,-4.0,1
-75.0,12.0,-254.0,-15.0,86.0,-1.0,1
-75.0,11.0,-256.0,-15.0,84.0,-4.0,1
-74.0,11.0,-256.0,-14.0,84.0,-1.0,1
-76.0,13.0,-252.0,-13.0,83.0,-3.0,1
-74.0,13.0,-252.0,-14.0,83.0,-3.0,1
-71.0,11.0,-254.0,-14.0,80.0,-4.0,1
-72.0,8.0,-253.0,-13.0,76.0,-3.0,1
-71.0,12.0,-252.0,-12.0,75.0,-5.0,1
-73.0,12.0,-254.0,-14.0,74.0,-4.0,1
-73.0,10.0,-251.0,-13.0,73.0,-5.0,1
-74.0,12.0,-254.0,-11.0,70.0,-4.0,1
-74.0,11.0,-254.0,-10.0,68.0,-5.0,1
-74.0,10.0,-250.0,-11.0,67.0,-3.0,1
-74.0,10.0,-257.0,-12.0,65.0,-4.0,1
-75.0,11.0,-252.0,-10.0,63.0,-2.0,1
-72.0,10.0,-251.0,-14.0,62.0,-4.0,1
-73.0,12.0,-253.0,-14.0,59.0,-2.0,1
-73.0,9.0,-253.0,-16.0,57.0,-5.0,1
-73.0,11.0,-254.0,-17.0,57.0,-2.0,1
-75.0,12.0,-253.0,-16.0,54.0,-5.0,1
-76.0,11.0,-255.0,-16.0,52.0,-2.0,1
-73.0,11.0,-256.0,-17.0,50.0,-3.0,1
-73.0,12.0,-253.0,-19.0,50.0,1.0,1
-75.0,12.0,-257.0,-18.0,51.0,-2.0,1
-75.0,15.0,-254.0,-18.0,51.0,1.0,1
-72.0,15.0,-254.0,-19.0,53.0,-1.0,1
-76.0,12.0,-255.0,-17.0,52.0,1.0,1
-75.0,11.0,-253.0,-18.0,52.0,-1.0,1
-73.0,13.0,-259.0,-18.0,53.0,2.0,1
-76.0,14.0,-255.0,-19.0,52.0,-1.0,1
-75.0,13.0,-256.0,-19.0,51.0,2.0,1
-73.0,9.0,-254.0,-19.0,50.0,-1.0,1
-74.0,12.0,-255.0,-20.0,49.0,2.0,1
-76.0,14.0,-252.0,-20.0,48.0,0.0,1
-76.0,11.0,-254.0,-21.0,47.0,3.0,1
-76.0,14.0,-255.0,-21.0,47.0,0.0,1
-76.0,14.0,-253.0,-21.0,45.0,3.0,1
-75.0,14.0,-253.0,-19.0,43.0,0.0,1
-75.0,15.0,-255.0,-19.0,45.0,3.0,1
-73.0,11.0,-252.0,-20.0,44.0,0.0,1
-76.0,13.0,-257.0,-18.0,43.0,1.0,1
-74.0,12.0,-250.0,-18.0,42.0,-3.0,1
-74.0,13.0,-253.0,-17.0,41.0,1.0,1
-75.0,13.0,-253.0,-16.0,40.0,-2.0,1
-75.0,13.0,-254.0,-17.0,38.0,0.0,1
-74.0,13.0,-255.0,-17.0,37.0,-2.0,1
-74.0,13.0,-254.0,-19.0,36.0,1.0,1
-77.0,13.0,-252.0,-18.0,35.0,-1.0,1
-76.0,14.0,-255.0,-19.0,34.0,0.0,1
-76.0,11.0,-253.0,-18.0,33.0,-2.0,1
-76.0,12.0,-252.0,-18.0,34.0,2.0,1
-74.0,11.0,-253.0,-19.0,34.0,-1.0,1
-74.0,13.0,-255.0,-18.0,35.0,2.0,1
-75.0,14.0,-255.0,-17.0,36.0,-1.0,1
-75.0,10.0,-252.0,-17.0,38.0,1.0,1
-76.0,12.0,-255.0,-16.0,37.0,-2.0,1
-76.0,12.0,-251.0,-15.0,39.0,1.0,1
-75.0,13.0,-250.0,-16.0,40.0,-1.0,1
-76.0,11.0,-250.0,-15.0,44.0,0.0,1
-76.0,15.0,-253.0,-15.0,44.0,-1.0,1
-78.0,12.0,-250.0,-14.0,45.0,2.0,1
-75.0,14.0,-255.0,-14.0,46.0,-1.0,1
-76.0,12.0,-253.0,-14.0,50.0,1.0,1
-74.0,13.0,-251.0,-14.0,50.0,-2.0,1
-77.0,14.0,-251.0,-14.0,51.0,0.0,1
-75.0,12.0,-252.0,-15.0,53.0,-3.0,1
-78.0,11.0,-252.0,-15.0,53.0,-1.0,1
-78.0,13.0,-251.0,-15.0,53.0,-3.0,1
-78.0,14.0,-251.0,-15.0,54.0,0.0,1
-77.0,12.0,-253.0,-14.0,57.0,-3.0,1
-75.0,14.0,-251.0,-14.0,57.0,0.0,1
-75.0,13.0,-253.0,-13.0,59.0,-3.0,1
-72.0,10.0,-253.0,-12.0,62.0,-1.0,1
-76.0,12.0,-252.0,-10.0,59.0,-3.0,1
-77.0,13.0,-252.0,-9.0,56.0,-1.0,1
-75.0,11.0,-255.0,-9.0,54.0,-4.0,1
-76.0,13.0,-253.0,-7.0,51.0,-3.0,1
-76.0,11.0,-252.0,-6.0,50.0,-4.0,1
-76.0,13.0,-252.0,-5.0,47.0,-3.0,1
-75.0,13.0,-253.0,-6.0,47.0,-4.0,1
-78.0,14.0,-252.0,-7.0,48.0,-4.0,1
-75.0,11.0,-250.0,-9.0,50.0,-5.0,1
-78.0,16.0,-253.0,-7.0,50.0,-3.0,1
-74.0,13.0,-257.0,-5.0,50.0,-5.0,1
-76.0,12.0,-254.0,-6.0,53.0,-5.0,1
-77.0,11.0,-254.0,-5.0,54.0,-6.0,1
-76.0,14.0,-253.0,-5.0,56.0,-4.0,1
-76.0,12.0,-252.0,-5.0,56.0,-5.0,1
-77.0,12.0,-253.0,-5.0,55.0,-2.0,1
-75.0,11.0,-253.0,-4.0,57.0,-3.0,1
-76.0,10.0,-253.0,-3.0,55.0,-2.0,1
-77.0,13.0,-251.0,-4.0,57.0,-4.0,1
-75.0,12.0,-250.0,-6.0,57.0,-4.0,1
-75.0,15.0,-250.0,-4.0,56.0,-3.0,1
-76.0,11.0,-250.0,-7.0,57.0,-2.0,1
-77.0,12.0,-252.0,-6.0,59.0,-3.0,1
-74.0,11.0,-251.0,-5.0,60.0,-3.0,1
-75.0,8.0,-255.0,-5.0,59.0,-4.0,1
-76.0,10.0,-255.0,-6.0,60.0,-3.0,1
-74.0,12.0,-253.0,-7.0,61.0,-3.0,1
-76.0,12.0,-254.0,-9.0,62.0,-2.0,1
-76.0,13.0,-257.0,-11.0,61.0,-3.0,1
-76.0,12.0,-253.0,-12.0,61.0,-2.0,1
-75.0,9.0,-252.0,-11.0,59.0,-1.0,1
-74.0,8.0,-255.0,-9.0,59.0,-2.0,1
-75.0,13.0,-250.0,-11.0,58.0,-1.0,1
-75.0,12.0,-253.0,-10.0,57.0,0.0,1
-76.0,13.0,-252.0,-10.0,57.0,-1.0,1
-76.0,13.0,-250.0,-10.0,57.0,0.0,1
-75.0,11.0,-254.0,-9.0,57.0,-1.0,1
-74.0,10.0,-255.0,-8.0,57.0,0.0,1
-76.0,13.0,-249.0,-10.0,57.0,-2.0,1
-77.0,11.0,-252.0,-10.0,56.0,-2.0,1
-75.0,12.0,-253.0,-8.0,56.0,-1.0,1
-76.0,12.0,-249.0,-8.0,56.0,-2.0,1
-76.0,13.0,-252.0,-10.0,57.0,-2.0,1
-76.0,16.0,-254.0,-9.0,56.0,-1.0,1
-76.0,13.0,-252.0,-10.0,55.0,-3.0,1
-77.0,11.0,-253.0,-10.0,56.0,-2.0,1
-75.0,14.0,-254.0,-10.0,57.0,-1.0,1
-77.0,15.0,-257.0,-12.0,56.0,-1.0,1
-77.0,13.0,-254.0,-12.0,57.0,-2.0,1
-76.0,13.0,-252.0,-12.0,56.0,-2.0,1
-78.0,14.0,-253.0,-14.0,57.0,-2.0,1
-76.0,11.0,-251.0,-13.0,57.0,-1.0,1
-75.0,11.0,-253.0,-13.0,56.0,-1.0,1
-76.0,11.0,-250.0,-13.0,56.0,-2.0,1
-75.0,11.0,-252.0,-13.0,56.0,-1.0,1
-78.0,12.0,-255.0,-14.0,55.0,-2.0,1
-77.0,12.0,-254.0,-14.0,57.0,-1.0,1
-76.0,13.0,-252.0,-14.0,55.0,-2.0,1
-75.0,11.0,-252.0,-14.0,55.0,-2.0,1
-74.0,12.0,-254.0,-13.0,55.0,-3.0,1
-76.0,14.0,-255.0,-13.0,54.0,-2.0,1
-77.0,11.0,-253.0,-12.0,52.0,-3.0,1
-75.0,11.0,-251.0,-12.0,53.0,-2.0,1
-76.0,11.0,-255.0,-14.0,52.0,-2.0,1
-74.0,11.0,-252.0,-13.0,51.0,-3.0,1
-77.0,15.0,-252.0,-14.0,52.0,-3.0,1
-75.0,13.0,-251.0,-13.0,53.0,-2.0,1
-76.0,12.0,-255.0,-11.0,51.0,-4.0,1
-76.0,10.0,-253.0,-12.0,52.0,-1.0,1
-75.0,14.0,-255.0,-11.0,52.0,-2.0,1
-76.0,12.0,-255.0,-11.0,52.0,-3.0,1
-76.0,11.0,-251.0,-11.0,52.0,-3.0,1
-75.0,10.0,-251.0,-12.0,53.0,-1.0,1
-78.0,12.0,-249.0,-12.0,51.0,-3.0,1
-76.0,14.0,-250.0,-12.0,53.0,-1.0,1
-76.0,12.0,-256.0,-12.0,53.0,-3.0,1
-76.0,13.0,-252.0,-12.0,55.0,-2.0,1
-75.0,10.0,-251.0,-14.0,55.0,-3.0,1
-77.0,13.0,-250.0,-12.0,55.0,-2.0,1
-76.0,11.0,-252.0,-14.0,54.0,-4.0,1
-75.0,11.0,-250.0,-16.0,56.0,-1.0,1
-77.0,13.0,-252.0,-15.0,57.0,-3.0,1
-76.0,13.0,-249.0,-14.0,57.0,-1.0,1
-77.0,14.0,-252.0,-15.0,57.0,-3.0,1
-78.0,13.0,-250.0,-17.0,59.0,-2.0,1
-77.0,12.0,-255.0,-17.0,59.0,-3.0,1
-77.0,12.0,-255.0,-18.0,59.0,-1.0,1
-76.0,10.0,-254.0,-16.0,61.0,-2.0,1
-77.0,12.0,-253.0,-15.0,61.0,0.0,1
-78.0,13.0,-253.0,-16.0,62.0,-5.0,1
-77.0,12.0,-253.0,-16.0,62.0,-2.0,1
-75.0,11.0,-254.0,-15.0,62.0,-4.0,1
-77.0,13.0,-253.0,-15.0,64.0,-3.0,1
-76.0,13.0,-255.0,-14.0,64.0,-4.0,1
-76.0,13.0,-253.0,-15.0,65.0,-3.0,1
-75.0,13.0,-256.0,-15.0,66.0,-5.0,1
-76.0,12.0,-256.0,-12.0,66.0,-3.0,1
-76.0,11.0,-255.0,-13.0,65.0,-5.0,1
-75.0,12.0,-251.0,-12.0,63.0,-2.0,1
-77.0,13.0,-255.0,-12.0,65.0,-4.0,1
-75.0,12.0,-254.0,-11.0,67.0,-3.0,1
-76.0,14.0,-256.0,-10.0,66.0,-5.0,1
-75.0,9.0,-249.0,-11.0,64.0,-2.0,1
-76.0,12.0,-252.0,-11.0,63.0,-4.0,1
-77.0,12.0,-249.0,-12.0,64.0,-2.0,1
-76.0,13.0,-253.0,-13.0,64.0,-4.0,1
-76.0,11.0,-251.0,-15.0,65.0,-2.0,1
-75.0,11.0,-254.0,-15.0,64.0,-4.0,1
-76.0,11.0,-254.0,-16.0,66.0,-1.0,1
-76.0,14.0,-254.0,-16.0,65.0,-4.0,1
-76.0,9.0,-251.0,-16.0,65.0,0.0,1
-76.0,13.0,-251.0,-16.0,65.0,-4.0,1
-75.0,11.0,-251.0,-17.0,66.0,-1.0,1
-77.0,13.0,-250.0,-17.0,66.0,-3.0,1
-76.0,12.0,-249.0,-16.0,65.0,-1.0,1
-76.0,12.0,-251.0,-14.0,64.0,-4.0,1
-75.0,10.0,-250.0,-16.0,64.0,-1.0,1
-76.0,11.0,-252.0,-15.0,64.0,-4.0,1
-76.0,11.0,-252.0,-15.0,64.0,-1.0,1
-75.0,10.0,-253.0,-15.0,64.0,-3.0,1
-76.0,11.0,-254.0,-14.0,63.0,0.0,1
-76.0,11.0,-253.0,-16.0,62.0,-3.0,1
-76.0,11.0,-255.0,-16.0,63.0,-2.0,1
-76.0,12.0,-254.0,-16.0,61.0,-4.0,1
-75.0,12.0,-250.0,-14.0,60.0,-2.0,1
-77.0,12.0,-254.0,-14.0,58.0,-4.0,1
-77.0,14.0,-255.0,-14.0,60.0,-3.0,1
-75.0,14.0,-251.0,-14.0,60.0,-4.0,1
-76.0,12.0,-251.0,-14.0,59.0,-2.0,1
-78.0,9.0,-261.0,-15.0,60.0,-3.0,1
-77.0,12.0,-251.0,-14.0,60.0,-1.0,1
-75.0,12.0,-252.0,-13.0,60.0,-3.0,1
-74.0,13.0,-249.0,-14.0,60.0,-2.0,1
-76.0,13.0,-254.0,-14.0,59.0,-5.0,1
-76.0,12.0,-254.0,-14.0,60.0,0.0,1
-76.0,12.0,-253.0,-13.0,59.0,-4.0,1
-76.0,13.0,-251.0,-13.0,60.0,1.0,1
-76.0,13.0,-258.0,-14.0,57.0,-2.0,1
-75.0,14.0,-255.0,-14.0,58.0,-1.0,1
-75.0,9.0,-251.0,-15.0,58.0,-3.0,1
-76.0,14.0,-252.0,-14.0,57.0,0.0,1
-76.0,13.0,-251.0,-13.0,59.0,-3.0,1
-76.0,13.0,-253.0,-12.0,59.0,0.0,1
-75.0,12.0,-252.0,-13.0,58.0,-2.0,1
-75.0,12.0,-250.0,-14.0,57.0,-1.0,1
-77.0,12.0,-251.0,-12.0,58.0,-4.0,1
-76.0,13.0,-252.0,-12.0,59.0,-2.0,1
-76.0,12.0,-251.0,-14.0,59.0,-3.0,1
-77.0,14.0,-255.0,-14.0,60.0,-2.0,1
-75.0,12.0,-250.0,-14.0,60.0,-3.0,1
-76.0,13.0,-252.0,-13.0,61.0,-2.0,1
-76.0,16.0,-260.0,-13.0,61.0,-4.0,1
-76.0,14.0,-253.0,-13.0,62.0,-1.0,1
-74.0,10.0,-253.0,-14.0,61.0,-3.0,1
-74.0,12.0,-250.0,-13.0,62.0,0.0,1
-75.0,10.0,-252.0,-14.0,60.0,-2.0,1
-75.0,14.0,-252.0,-14.0,59.0,0.0,1
-79.0,13.0,-250.0,-16.0,60.0,-4.0,1
-77.0,15.0,-251.0,-18.0,58.0,-2.0,1
-77.0,12.0,-251.0,-20.0,56.0,-3.0,1
-76.0,11.0,-250.0,-21.0,57.0,0.0,1
-76.0,13.0,-249.0,-20.0,60.0,-2.0,1
-75.0,13.0,-250.0,-20.0,62.0,-2.0,1
-75.0,10.0,-251.0,-19.0,62.0,-3.0,1
-76.0,11.0,-253.0,-19.0,62.0,0.0,1
-76.0,12.0,-250.0,-18.0,64.0,-3.0,1
-75.0,11.0,-257.0,-18.0,65.0,-2.0,1
-75.0,13.0,-254.0,-19.0,68.0,-2.0,1
-74.0,11.0,-257.0,-19.0,65.0,-1.0,1
-75.0,10.0,-253.0,-18.0,65.0,-4.0,1
-75.0,11.0,-251.0,-16.0,64.0,-1.0,1
-76.0,11.0,-252.0,-14.0,64.0,-3.0,1
-78.0,14.0,-252.0,-14.0,64.0,-1.0,1
-78.0,14.0,-251.0,-14.0,65.0,-3.0,1
-78.0,15.0,-251.0,-13.0,66.0,-1.0,1
-74.0,13.0,-253.0,-11.0,67.0,-3.0,1
-75.0,12.0,-254.0,-12.0,66.0,-3.0,1
-75.0,16.0,-255.0,-11.0,65.0,-4.0,1
-77.0,13.0,-256.0,-11.0,64.0,-3.0,1
-77.0,14.0,-252.0,-12.0,64.0,-3.0,1
-75.0,13.0,-255.0,-13.0,64.0,-3.0,1
-76.0,15.0,-257.0,-11.0,65.0,-4.0,1
-75.0,9.0,-253.0,-12.0,65.0,-3.0,1
-76.0,14.0,-254.0,-11.0,65.0,-3.0,1
-76.0,13.0,-254.0,-9.0,65.0,-3.0,1
-78.0,14.0,-255.0,-12.0,66.0,-3.0,1
-76.0,12.0,-252.0,-10.0,68.0,-3.0,1
-76.0,11.0,-255.0,-12.0,68.0,-2.0,1
-76.0,14.0,-255.0,-12.0,69.0,-3.0,1
-77.0,12.0,-252.0,-12.0,67.0,-4.0,1
-76.0,11.0,-250.0,-13.0,67.0,-3.0,1
-77.0,13.0,-252.0,-13.0,67.0,-5.0,1
-76.0,13.0,-253.0,-13.0,69.0,-2.0,1
-77.0,16.0,-253.0,-13.0,69.0,-2.0,1
-75.0,13.0,-255.0,-13.0,69.0,-2.0,1
-76.0,12.0,-252.0,-12.0,68.0,-3.0,1
-76.0,11.0,-254.0,-11.0,67.0,-5.0,1
-78.0,14.0,-252.0,-13.0,68.0,-6.0,1
-76.0,11.0,-249.0,-13.0,66.0,-4.0,1
-74.0,11.0,-253.0,-11.0,67.0,-4.0,1
-76.0,14.0,-255.0,-11.0,64.0,-3.0,1
-77.0,12.0,-252.0,-11.0,66.0,-3.0,1
-75.0,14.0,-252.0,-11.0,64.0,-4.0,1
-76.0,13.0,-250.0,-13.0,64.0,-4.0,1
-76.0,13.0,-250.0,-13.0,62.0,-4.0,1
-75.0,11.0,-254.0,-15.0,61.0,-3.0,1
-76.0,14.0,-253.0,-13.0,62.0,-3.0,1
-75.0,12.0,-251.0,-15.0,62.0,-2.0,1
-76.0,12.0,-251.0,-13.0,61.0,-3.0,1
-76.0,13.0,-252.0,-14.0,60.0,-3.0,1
-77.0,10.0,-252.0,-13.0,61.0,-3.0,1
-74.0,11.0,-254.0,-14.0,61.0,-2.0,1
-74.0,11.0,-249.0,-15.0,61.0,-2.0,1
-76.0,13.0,-255.0,-15.0,60.0,-2.0,1
-77.0,11.0,-256.0,-14.0,61.0,-3.0,1
-76.0,10.0,-253.0,-16.0,61.0,-2.0,1
-75.0,10.0,-253.0,-16.0,61.0,-4.0,1
-76.0,14.0,-249.0,-15.0,61.0,-2.0,1
-76.0,11.0,-247.0,-16.0,61.0,-4.0,1
-76.0,13.0,-253.0,-16.0,60.0,-3.0,1
-75.0,13.0,-255.0,-17.0,61.0,-4.0,1
-74.0,12.0,-253.0,-19.0,61.0,-2.0,1
-77.0,13.0,-254.0,-18.0,63.0,-3.0,1
-76.0,12.0,-254.0,-18.0,61.0,-1.0,1
-76.0,13.0,-253.0,-20.0,62.0,-3.0,1
-77.0,10.0,-255.0,-18.0,61.0,-2.0,1
-75.0,12.0,-254.0,-17.0,61.0,-3.0,1
-76.0,12.0,-252.0,-17.0,63.0,-1.0,1
-76.0,11.0,-254.0,-17.0,63.0,-3.0,1
-75.0,13.0,-255.0,-17.0,61.0,-3.0,1
-75.0,11.0,-250.0,-15.0,61.0,-4.0,1
-78.0,15.0,-252.0,-14.0,61.0,-2.0,1
-75.0,13.0,-254.0,-15.0,61.0,-3.0,1
-78.0,13.0,-254.0,-14.0,62.0,-3.0,1
-77.0,14.0,-254.0,-14.0,62.0,-4.0,1
-76.0,15.0,-256.0,-13.0,63.0,-2.0,1
-76.0,14.0,-253.0,-14.0,63.0,-4.0,1
-76.0,12.0,-252.0,-13.0,64.0,-4.0,1
-76.0,14.0,-250.0,-12.0,64.0,-3.0,1
-77.0,12.0,-253.0,-13.0,64.0,-1.0,1
-76.0,10.0,-252.0,-12.0,64.0,-3.0,1
-76.0,12.0,-252.0,-12.0,61.0,-2.0,1
-77.0,13.0,-253.0,-13.0,63.0,-3.0,1
-75.0,13.0,-251.0,-12.0,62.0,-1.0,1
-77.0,14.0,-252.0,-12.0,59.0,-4.0,1
-76.0,15.0,-251.0,-12.0,60.0,-1.0,1
-75.0,13.0,-252.0,-13.0,61.0,-3.0,1
-77.0,14.0,-254.0,-15.0,61.0,-1.0,1
-75.0,12.0,-251.0,-15.0,61.0,-2.0,1
-77.0,14.0,-251.0,-14.0,60.0,-1.0,1
-76.0,15.0,-253.0,-16.0,61.0,-3.0,1
-76.0,13.0,-255.0,-17.0,60.0,-1.0,1
-75.0,11.0,-251.0,-16.0,60.0,-2.0,1
-76.0,13.0,-252.0,-14.0,61.0,-1.0,1
-76.0,13.0,-253.0,-14.0,59.0,-2.0,1
-76.0,14.0,-255.0,-13.0,61.0,0.0,1
-75.0,12.0,-253.0,-13.0,60.0,-3.0,1
-75.0,12.0,-252.0,-13.0,63.0,-1.0,1
-77.0,12.0,-252.0,-14.0,60.0,-4.0,1
-76.0,13.0,-251.0,-14.0,60.0,-1.0,1
-75.0,11.0,-255.0,-15.0,61.0,-2.0,1
-76.0,12.0,-253.0,-14.0,62.0,-1.0,1
-75.0,10.0,-253.0,-15.0,60.0,-2.0,1
-76.0,11.0,-251.0,-15.0,60.0,-1.0,1
-76.0,12.0,-254.0,-15.0,59.0,-4.0,1
-75.0,13.0,-251.0,-15.0,60.0,-1.0,1
-75.0,11.0,-251.0,-14.0,60.0,-2.0,1
-76.0,13.0,-252.0,-14.0,61.0,-1.0,1
-76.0,13.0,-252.0,-15.0,61.0,-4.0,1
-76.0,11.0,-252.0,-14.0,59.0,-1.0,1
-75.0,12.0,-253.0,-15.0,61.0,-2.0,1
-78.0,15.0,-257.0,-15.0,61.0,0.0,1
-77.0,10.0,-253.0,-16.0,62.0,-3.0,1
-76.0,13.0,-252.0,-14.0,63.0,-2.0,1
-76.0,13.0,-253.0,-15.0,62.0,-4.0,1
-76.0,12.0,-253.0,-15.0,61.0,-2.0,1
-76.0,15.0,-254.0,-15.0,63.0,-4.0,1
-76.0,12.0,-253.0,-13.0,62.0,-3.0,1
-74.0,11.0,-255.0,-13.0,61.0,-5.0,1
-75.0,13.0,-258.0,-14.0,61.0,-1.0,1
-76.0,14.0,-253.0,-13.0,61.0,-4.0,1
-75.0,12.0,-255.0,-13.0,62.0,-1.0,1
-76.0,12.0,-252.0,-14.0,62.0,-4.0,1
-76.0,11.0,-253.0,-14.0,62.0,-1.0,1
-76.0,11.0,-253.0,-15.0,62.0,-4.0,1
-76.0,14.0,-255.0,-13.0,61.0,-1.0,1
-75.0,11.0,-250.0,-13.0,62.0,-3.0,1
-76.0,13.0,-250.0,-14.0,61.0,-1.0,1
-73.0,12.0,-251.0,-15.0,60.0,-4.0,1
-76.0,14.0,-255.0,-14.0,60.0,-2.0,1
-76.0,15.0,-255.0,-13.0,60.0,-4.0,1
-76.0,9.0,-252.0,-14.0,60.0,-2.0,1
-76.0,12.0,-252.0,-15.0,62.0,-4.0,1
-75.0,11.0,-252.0,-15.0,60.0,0.0,1
-76.0,14.0,-252.0,-16.0,61.0,-4.0,1
-76.0,14.0,-253.0,-16.0,61.0,-1.0,1
-76.0,11.0,-252.0,-15.0,61.0,-3.0,1
-75.0,12.0,-253.0,-15.0,61.0,-1.0,1
-75.0,12.0,-253.0,-14.0,60.0,-3.0,1
-76.0,13.0,-256.0,-14.0,59.0,-1.0,1
-77.0,12.0,-252.0,-16.0,59.0,-2.0,1
-75.0,11.0,-250.0,-17.0,58.0,0.0,1
-76.0,13.0,-255.0,-16.0,60.0,-3.0,1
-75.0,15.0,-254.0,-17.0,60.0,1.0,1
-76.0,12.0,-251.0,-16.0,59.0,-2.0,1
-76.0,13.0,-250.0,-15.0,58.0,0.0,1
-75.0,11.0,-249.0,-14.0,59.0,-3.0,1
-76.0,14.0,-254.0,-14.0,60.0,-1.0,1
-76.0,13.0,-257.0,-14.0,60.0,-3.0,1
-76.0,12.0,-254.0,-14.0,60.0,-2.0,1
-76.0,12.0,-250.0,-13.0,59.0,-5.0,1
-77.0,12.0,-252.0,-15.0,61.0,-3.0,1
-75.0,11.0,-254.0,-14.0,63.0,-3.0,1
-76.0,13.0,-254.0,-15.0,64.0,-1.0,1
-74.0,11.0,-253.0,-13.0,65.0,-2.0,1
-76.0,10.0,-252.0,-15.0,63.0,-2.0,1
-74.0,13.0,-252.0,-15.0,62.0,-3.0,1
-76.0,14.0,-251.0,-15.0,61.0,-1.0,1
-75.0,13.0,-253.0,-14.0,61.0,-2.0,1
-74.0,11.0,-255.0,-15.0,61.0,-1.0,1
-76.0,13.0,-254.0,-16.0,61.0,-4.0,1
-76.0,13.0,-250.0,-18.0,61.0,-1.0,1
-75.0,10.0,-253.0,-19.0,61.0,-3.0,1
-77.0,12.0,-251.0,-19.0,62.0,-2.0,1
-75.0,12.0,-254.0,-19.0,62.0,-3.0,1
-77.0,13.0,-250.0,-17.0,63.0,-2.0,1
-76.0,13.0,-254.0,-17.0,65.0,-3.0,1
-77.0,10.0,-253.0,-16.0,64.0,-2.0,1
-76.0,12.0,-257.0,-15.0,65.0,-2.0,1
-76.0,12.0,-254.0,-16.0,67.0,0.0,1
-74.0,12.0,-256.0,-20.0,68.0,-2.0,1
-74.0,13.0,-252.0,-20.0,67.0,-1.0,1
-76.0,13.0,-249.0,-19.0,65.0,-3.0,1
-76.0,10.0,-257.0,-15.0,65.0,-3.0,1
-76.0,11.0,-253.0,-14.0,63.0,-3.0,1
-76.0,15.0,-252.0,-13.0,65.0,-2.0,1
-76.0,10.0,-254.0,-13.0,64.0,-4.0,1
-76.0,11.0,-253.0,-13.0,64.0,-2.0,1
-76.0,13.0,-251.0,-13.0,64.0,-4.0,1
-76.0,13.0,-253.0,-11.0,63.0,-2.0,1
-74.0,14.0,-256.0,-12.0,63.0,-4.0,1
-75.0,12.0,-251.0,-12.0,63.0,-2.0,1
-77.0,14.0,-248.0,-12.0,63.0,-4.0,1
-76.0,10.0,-252.0,-12.0,62.0,-3.0,1
-77.0,14.0,-255.0,-10.0,62.0,-3.0,1
-76.0,12.0,-255.0,-12.0,63.0,-2.0,1
-73.0,10.0,-250.0,-11.0,62.0,-3.0,1
-80.0,13.0,-249.0,-12.0,61.0,-3.0,1
-75.0,12.0,-254.0,-14.0,60.0,-4.0,1
-76.0,13.0,-255.0,-12.0,60.0,-3.0,1
-75.0,13.0,-252.0,-12.0,60.0,-3.0,1
-75.0,10.0,-250.0,-13.0,61.0,-5.0,1
-75.0,15.0,-254.0,-13.0,62.0,-3.0,1
-75.0,11.0,-252.0,-14.0,63.0,-3.0,1
-74.0,13.0,-255.0,-13.0,61.0,-3.0,1
-75.0,12.0,-251.0,-13.0,62.0,-3.0,1
-77.0,14.0,-254.0,-14.0,65.0,-2.0,1
-76.0,11.0,-252.0,-13.0,62.0,-2.0,1
-76.0,14.0,-251.0,-12.0,62.0,-3.0,1
-76.0,11.0,-252.0,-13.0,61.0,-2.0,1
-75.0,14.0,-251.0,-12.0,61.0,-2.0,1
-76.0,16.0,-255.0,-13.0,61.0,-3.0,1
-75.0,13.0,-252.0,-13.0,60.0,-2.0,1
-73.0,11.0,-252.0,-13.0,59.0,-4.0,1
-73.0,12.0,-257.0,-10.0,60.0,-3.0,1
-75.0,12.0,-255.0,-3.0,56.0,-4.0,1
-76.0,14.0,-252.0,-11.0,58.0,-3.0,1
-76.0,14.0,-253.0,-13.0,62.0,-2.0,1
-76.0,12.0,-252.0,-15.0,64.0,-1.0,1
-75.0,14.0,-252.0,-16.0,62.0,-2.0,1
-75.0,11.0,-250.0,-15.0,64.0,-2.0,1
-77.0,13.0,-252.0,-14.0,62.0,-3.0,1
-76.0,13.0,-254.0,-17.0,64.0,-2.0,1
-76.0,12.0,-252.0,-16.0,66.0,-3.0,1
-76.0,12.0,-253.0,-17.0,67.0,-2.0,1
-74.0,11.0,-252.0,-16.0,68.0,-2.0,1
-76.0,13.0,-252.0,-17.0,67.0,-2.0,1
-75.0,11.0,-252.0,-17.0,68.0,-4.0,1
-73.0,13.0,-250.0,-18.0,66.0,-3.0,1
-76.0,13.0,-251.0,-17.0,66.0,-2.0,1
-76.0,13.0,-248.0,-16.0,67.0,-2.0,1
-76.0,9.0,-253.0,-17.0,66.0,-3.0,1
-74.0,11.0,-252.0,-18.0,66.0,-1.0,1
-75.0,13.0,-251.0,-18.0,66.0,-2.0,1
-76.0,13.0,-253.0,-19.0,65.0,-2.0,1
-74.0,14.0,-249.0,-21.0,63.0,-3.0,1
-75.0,13.0,-251.0,-21.0,63.0,-1.0,1
-74.0,11.0,-253.0,-21.0,61.0,-3.0,1
-76.0,11.0,-255.0,-22.0,60.0,-2.0,1
-76.0,14.0,-250.0,-21.0,61.0,-3.0,1
-75.0,15.0,-252.0,-21.0,59.0,-2.0,1
-76.0,14.0,-252.0,-20.0,59.0,-4.0,1
-75.0,10.0,-253.0,-20.0,61.0,-3.0,1
-76.0,11.0,-255.0,-18.0,60.0,-3.0,1
-76.0,14.0,-251.0,-18.0,59.0,-1.0,1
-77.0,16.0,-251.0,-17.0,60.0,-3.0,1
-76.0,14.0,-250.0,-17.0,59.0,-2.0,1
-75.0,9.0,-253.0,-16.0,59.0,-5.0,1
-76.0,12.0,-252.0,-15.0,60.0,-4.0,1
-75.0,12.0,-252.0,-15.0,59.0,-3.0,1
-76.0,14.0,-249.0,-14.0,60.0,-2.0,1
-78.0,15.0,-253.0,-13.0,61.0,-4.0,1
-76.0,13.0,-253.0,-12.0,61.0,-3.0,1
-75.0,13.0,-255.0,-12.0,61.0,-4.0,1
-75.0,11.0,-252.0,-12.0,60.0,-2.0,1
-75.0,12.0,-248.0,-11.0,62.0,-4.0,1
-76.0,14.0,-250.0,-11.0,62.0,-2.0,1
-76.0,14.0,-252.0,-13.0,63.0,-3.0,1
-74.0,15.0,-252.0,-11.0,63.0,-1.0,1
-76.0,13.0,-254.0,-12.0,63.0,-3.0,1
-77.0,15.0,-251.0,-12.0,63.0,0.0,1
-75.0,11.0,-250.0,-14.0,63.0,-4.0,1
-77.0,12.0,-254.0,-13.0,63.0,-1.0,1
-75.0,15.0,-253.0,-14.0,64.0,-4.0,1
-76.0,15.0,-253.0,-15.0,63.0,-1.0,1
-76.0,15.0,-253.0,-15.0,63.0,-3.0,1
-75.0,10.0,-252.0,-14.0,65.0,-1.0,1
-75.0,13.0,-250.0,-14.0,64.0,-3.0,1
-75.0,13.0,-253.0,-14.0,64.0,0.0,1
-76.0,13.0,-250.0,-13.0,62.0,-4.0,1
-76.0,15.0,-253.0,-14.0,62.0,-2.0,1
-76.0,11.0,-253.0,-14.0,61.0,-3.0,1
-76.0,15.0,-252.0,-15.0,61.0,-1.0,1
-76.0,12.0,-251.0,-15.0,62.0,-4.0,1
-75.0,13.0,-254.0,-14.0,60.0,-2.0,1
-77.0,14.0,-253.0,-16.0,59.0,-3.0,1
-65.0,14.0,-253.0,-15.0,60.0,-2.0,1
-75.0,12.0,-253.0,-15.0,58.0,-4.0,1
-75.0,13.0,-256.0,-14.0,59.0,-1.0,1
-75.0,13.0,-256.0,-14.0,60.0,-4.0,1
-76.0,12.0,-251.0,-14.0,59.0,-1.0,1
-76.0,12.0,-252.0,-13.0,59.0,-3.0,1
-75.0,14.0,-255.0,-14.0,59.0,-1.0,1
-76.0,13.0,-254.0,-15.0,56.0,-3.0,1
-77.0,14.0,-253.0,-16.0,58.0,-1.0,1
-76.0,14.0,-249.0,-14.0,58.0,-4.0,1
-77.0,12.0,-251.0,-15.0,58.0,-2.0,1
-76.0,13.0,-254.0,-14.0,57.0,-2.0,1
-77.0,13.0,-256.0,-17.0,57.0,-2.0,1
-77.0,14.0,-252.0,-15.0,57.0,-5.0,1
-74.0,12.0,-250.0,-15.0,59.0,-2.0,1
-75.0,13.0,-254.0,-14.0,58.0,-4.0,1
-76.0,11.0,-252.0,-14.0,59.0,-2.0,1
-77.0,13.0,-254.0,-16.0,58.0,-5.0,1
-73.0,8.0,-251.0,-16.0,59.0,-2.0,1
-69.0,10.0,-253.0,-15.0,59.0,-4.0,1
-77.0,11.0,-251.0,-15.0,59.0,-1.0,1
-76.0,15.0,-256.0,-16.0,58.0,-3.0,1
-76.0,12.0,-255.0,-14.0,58.0,0.0,1
-74.0,11.0,-251.0,-15.0,58.0,-3.0,1
-76.0,12.0,-252.0,-15.0,58.0,-1.0,1
-76.0,14.0,-254.0,-14.0,58.0,-5.0,1
-75.0,12.0,-255.0,-15.0,58.0,-1.0,1
-76.0,13.0,-250.0,-16.0,58.0,-3.0,1
-75.0,10.0,-251.0,-15.0,58.0,-1.0,1
-76.0,13.0,-254.0,-14.0,57.0,-4.0,1
-76.0,14.0,-252.0,-13.0,58.0,-1.0,1
-74.0,12.0,-255.0,-14.0,58.0,-4.0,1
-76.0,13.0,-251.0,-13.0,56.0,-1.0,1
-76.0,11.0,-256.0,-13.0,56.0,-2.0,1
-76.0,8.0,-251.0,-15.0,56.0,-1.0,1
-77.0,16.0,-251.0,-15.0,58.0,-2.0,1
-76.0,17.0,-256.0,-15.0,57.0,-1.0,1
-77.0,10.0,-254.0,-15.0,58.0,-3.0,1
-76.0,11.0,-252.0,-14.0,57.0,0.0,1
-77.0,12.0,-252.0,-14.0,58.0,-3.0,1
-78.0,14.0,-255.0,-14.0,58.0,-2.0,1
-78.0,15.0,-249.0,-15.0,57.0,-3.0,1
-76.0,14.0,-247.0,-15.0,58.0,-1.0,1
-77.0,11.0,-257.0,-16.0,58.0,-3.0,1
-76.0,16.0,-254.0,-15.0,58.0,0.0,1
-76.0,10.0,-256.0,-16.0,60.0,-2.0,1
-75.0,15.0,-250.0,-16.0,61.0,-1.0,1
-76.0,14.0,-251.0,-14.0,60.0,-3.0,1
-75.0,14.0,-252.0,-14.0,58.0,-1.0,1
-77.0,12.0,-253.0,-12.0,58.0,-3.0,1
-77.0,15.0,-254.0,-13.0,58.0,-2.0,1
-78.0,14.0,-254.0,-12.0,55.0,-4.0,1
-75.0,12.0,-255.0,-12.0,56.0,-3.0,1
-76.0,12.0,-252.0,-13.0,57.0,-4.0,1
-77.0,14.0,-252.0,-13.0,59.0,-3.0,1
-76.0,14.0,-250.0,-12.0,58.0,-4.0,1
-79.0,13.0,-250.0,-12.0,58.0,-5.0,1
-75.0,11.0,-251.0,-12.0,57.0,-4.0,1
-76.0,13.0,-254.0,-13.0,58.0,-1.0,1
-76.0,13.0,-252.0,-14.0,59.0,-3.0,1
-79.0,18.0,-253.0,-14.0,60.0,0.0,1
-74.0,11.0,-251.0,-15.0,60.0,-3.0,1
-75.0,13.0,-253.0,-15.0,59.0,-2.0,1
-75.0,13.0,-253.0,-15.0,59.0,-2.0,1
-75.0,10.0,-252.0,-15.0,58.0,-1.0,1
-77.0,12.0,-252.0,-17.0,57.0,-2.0,1
-76.0,12.0,-251.0,-16.0,59.0,-3.0,1
-77.0,12.0,-250.0,-18.0,59.0,-4.0,1
-77.0,14.0,-252.0,-17.0,60.0,-1.0,1
-74.0,10.0,-250.0,-16.0,62.0,-3.0,1
-75.0,12.0,-258.0,-16.0,62.0,-3.0,1
-76.0,13.0,-255.0,-14.0,61.0,-4.0,1
-77.0,13.0,-254.0,-14.0,63.0,-4.0,1
-76.0,12.0,-251.0,-15.0,65.0,-3.0,1
-75.0,13.0,-252.0,-16.0,65.0,-4.0,1
-76.0,13.0,-251.0,-16.0,63.0,-4.0,1
-77.0,15.0,-254.0,-16.0,63.0,-3.0,1
-76.0,11.0,-250.0,-15.0,60.0,-3.0,1
-77.0,13.0,-254.0,-13.0,60.0,-3.0,1
-76.0,11.0,-253.0,-13.0,60.0,-4.0,1
-75.0,13.0,-253.0,-13.0,61.0,-3.0,1
-77.0,16.0,-255.0,-12.0,62.0,-4.0,1
-76.0,15.0,-257.0,-10.0,62.0,-3.0,1
-76.0,14.0,-251.0,-9.0,63.0,-4.0,1
-76.0,13.0,-254.0,-10.0,62.0,-3.0,1
-76.0,10.0,-257.0,-9.0,63.0,-3.0,1
-75.0,13.0,-252.0,-9.0,62.0,-3.0,1
-76.0,13.0,-253.0,-9.0,62.0,-4.0,1
-76.0,11.0,-254.0,-9.0,61.0,-3.0,1
-77.0,13.0,-253.0,-9.0,61.0,-2.0,1
-77.0,12.0,-251.0,-11.0,60.0,-4.0,1
-75.0,14.0,-251.0,-10.0,60.0,-2.0,1
-76.0,14.0,-249.0,-11.0,59.0,-3.0,1
-76.0,15.0,-252.0,-11.0,59.0,-2.0,1
-76.0,11.0,-251.0,-11.0,61.0,-3.0,1
-76.0,10.0,-253.0,-11.0,61.0,-3.0,1
-75.0,12.0,-253.0,-11.0,60.0,-2.0,1
-76.0,13.0,-253.0,-12.0,62.0,-2.0,1
-78.0,16.0,-253.0,-12.0,62.0,-1.0,1
-76.0,10.0,-251.0,-12.0,61.0,-1.0,1
-77.0,13.0,-252.0,-12.0,62.0,-3.0,1
-77.0,11.0,-250.0,-12.0,61.0,-2.0,1
-76.0,14.0,-250.0,-12.0,62.0,-3.0,1
-76.0,13.0,-251.0,-14.0,62.0,-2.0,1
-76.0,14.0,-253.0,-14.0,61.0,-2.0,1
-77.0,15.0,-255.0,-13.0,63.0,-1.0,1
-76.0,10.0,-256.0,-12.0,62.0,-2.0,1
-76.0,13.0,-249.0,-12.0,61.0,-3.0,1
-76.0,12.0,-252.0,-13.0,62.0,-3.0,1
-75.0,13.0,-254.0,-12.0,62.0,-1.0,1
-76.0,13.0,-254.0,-11.0,61.0,-4.0,1
-76.0,13.0,-253.0,-12.0,60.0,-2.0,1
-75.0,12.0,-250.0,-14.0,60.0,-3.0,1
-77.0,13.0,-251.0,-14.0,61.0,-1.0,1
-78.0,14.0,-254.0,-15.0,59.0,-3.0,1
-76.0,13.0,-252.0,-13.0,60.0,-2.0,1
-75.0,13.0,-251.0,-13.0,60.0,-2.0,1
-77.0,13.0,-253.0,-14.0,60.0,-2.0,1
-76.0,14.0,-253.0,-14.0,59.0,-3.0,1
-76.0,10.0,-252.0,-15.0,59.0,-1.0,1
-76.0,14.0,-252.0,-14.0,59.0,-2.0,1
-76.0,13.0,-249.0,-13.0,60.0,-1.0,1
-76.0,14.0,-249.0,-13.0,61.0,-4.0,1
-75.0,14.0,-255.0,-13.0,62.0,-2.0,1
-76.0,11.0,-255.0,-12.0,62.0,-3.0,1
-74.0,11.0,-254.0,-14.0,61.0,-2.0,1
-76.0,12.0,-251.0,-13.0,62.0,-5.0,1
-76.0,11.0,-258.0,-13.0,61.0,-3.0,1
-76.0,13.0,-251.0,-15.0,62.0,-5.0,1
-75.0,12.0,-256.0,-14.0,63.0,-2.0,1
-75.0,10.0,-252.0,-15.0,63.0,-4.0,1
-77.0,12.0,-251.0,-15.0,62.0,-2.0,1
-77.0,13.0,-251.0,-15.0,62.0,-3.0,1
-75.0,14.0,-251.0,-15.0,62.0,-2.0,1
-75.0,10.0,-252.0,-16.0,61.0,-4.0,1
-77.0,15.0,-249.0,-14.0,60.0,-2.0,1
-75.0,15.0,-252.0,-13.0,60.0,-4.0,1
-76.0,12.0,-252.0,-14.0,61.0,-2.0,1
-77.0,13.0,-249.0,-14.0,60.0,-4.0,1
-76.0,13.0,-252.0,-14.0,61.0,-3.0,1
-78.0,12.0,-253.0,-14.0,61.0,-5.0,1
-76.0,11.0,-255.0,-12.0,62.0,-3.0,1
-75.0,13.0,-253.0,-13.0,61.0,-6.0,1
-76.0,14.0,-253.0,-12.0,60.0,-3.0,1
-78.0,14.0,-249.0,-14.0,60.0,-5.0,1
-77.0,13.0,-252.0,-13.0,62.0,-3.0,1
-77.0,12.0,-252.0,-12.0,62.0,-4.0,1
-78.0,15.0,-255.0,-13.0,64.0,-2.0,1
-77.0,13.0,-256.0,-12.0,63.0,-5.0,1
-76.0,14.0,-253.0,-12.0,63.0,-2.0,1
-77.0,15.0,-251.0,-11.0,63.0,-4.0,1
-77.0,14.0,-253.0,-11.0,62.0,-3.0,1
-76.0,13.0,-254.0,-12.0,63.0,-5.0,1
-76.0,13.0,-253.0,-11.0,62.0,-3.0,1
-76.0,12.0,-253.0,-12.0,61.0,-5.0,1
-77.0,14.0,-255.0,-13.0,63.0,-3.0,1
-74.0,13.0,-251.0,-13.0,64.0,-4.0,1
-73.0,11.0,-251.0,-13.0,64.0,-1.0,1
-74.0,12.0,-251.0,-13.0,61.0,-2.0,1
-78.0,14.0,-252.0,-14.0,61.0,1.0,1
-76.0,13.0,-251.0,-13.0,62.0,-3.0,1
-76.0,14.0,-249.0,-14.0,61.0,0.0,1
-78.0,12.0,-250.0,-14.0,61.0,-3.0,1
-77.0,11.0,-250.0,-14.0,62.0,-2.0,1
-74.0,13.0,-253.0,-13.0,62.0,-3.0,1
-78.0,16.0,-253.0,-13.0,61.0,-1.0,1
-77.0,13.0,-255.0,-13.0,60.0,-4.0,1
-76.0,14.0,-251.0,-14.0,61.0,-2.0,1
-76.0,13.0,-253.0,-14.0,61.0,-4.0,1
-77.0,11.0,-255.0,-15.0,61.0,-2.0,1
-77.0,11.0,-257.0,-14.0,60.0,-3.0,1
-76.0,11.0,-254.0,-15.0,61.0,-1.0,1
-76.0,13.0,-249.0,-14.0,61.0,-3.0,1
-77.0,15.0,-251.0,-13.0,61.0,-1.0,1
-76.0,14.0,-254.0,-14.0,59.0,-4.0,1
-74.0,13.0,-252.0,-13.0,61.0,-2.0,1
-75.0,14.0,-252.0,-12.0,60.0,-4.0,1
-76.0,12.0,-255.0,-13.0,60.0,-1.0,1
-77.0,14.0,-252.0,-13.0,59.0,-4.0,1
-77.0,11.0,-256.0,-12.0,59.0,-2.0,1
-76.0,11.0,-251.0,-12.0,59.0,-5.0,1
-76.0,15.0,-250.0,-11.0,60.0,-1.0,1
-75.0,12.0,-254.0,-12.0,59.0,-3.0,1
-75.0,14.0,-255.0,-13.0,59.0,-1.0,1
-77.0,13.0,-250.0,-12.0,59.0,-4.0,1
-77.0,15.0,-253.0,-12.0,60.0,-2.0,1
-77.0,14.0,-254.0,-12.0,59.0,-4.0,1
-74.0,12.0,-258.0,-13.0,59.0,-2.0,1
-76.0,14.0,-251.0,-13.0,59.0,-4.0,1
-76.0,11.0,-252.0,-13.0,59.0,-1.0,1
-77.0,13.0,-249.0,-13.0,58.0,-5.0,1
-76.0,16.0,-250.0,-13.0,60.0,-3.0,1
-76.0,14.0,-253.0,-12.0,60.0,-5.0,1
-77.0,13.0,-256.0,-12.0,59.0,-2.0,1
-75.0,13.0,-251.0,-12.0,61.0,-5.0,1
-75.0,8.0,-254.0,-11.0,60.0,-2.0,1
-76.0,17.0,-239.0,-12.0,60.0,-4.0,1
-76.0,14.0,-254.0,-13.0,60.0,-2.0,1
-77.0,12.0,-253.0,-14.0,61.0,-3.0,1
-75.0,13.0,-252.0,-13.0,61.0,-2.0,1
-75.0,12.0,-248.0,-14.0,61.0,-4.0,1
-76.0,13.0,-251.0,-14.0,61.0,-1.0,1
-75.0,11.0,-250.0,-15.0,60.0,-4.0,1
-76.0,15.0,-254.0,-14.0,60.0,-3.0,1
-77.0,13.0,-251.0,-14.0,59.0,-4.0,1
-75.0,11.0,-252.0,-13.0,61.0,-3.0,1
-76.0,13.0,-250.0,-13.0,61.0,-4.0,1
-75.0,12.0,-254.0,-13.0,61.0,-2.0,1
-75.0,15.0,-253.0,-12.0,60.0,-3.0,1
-76.0,14.0,-253.0,-13.0,61.0,-2.0,1
-76.0,9.0,-253.0,-15.0,61.0,-4.0,1
-76.0,15.0,-254.0,-14.0,61.0,-2.0,1
-75.0,15.0,-252.0,-15.0,60.0,-4.0,1
-75.0,14.0,-255.0,-15.0,59.0,-2.0,1
-74.0,12.0,-254.0,-13.0,60.0,-4.0,1
-76.0,13.0,-250.0,-12.0,61.0,-3.0,1
-78.0,14.0,-252.0,-14.0,59.0,-3.0,1
-76.0,15.0,-253.0,-15.0,60.0,-2.0,1
-76.0,12.0,-251.0,-14.0,60.0,-4.0,1
-76.0,12.0,-255.0,-14.0,59.0,-2.0,1
-75.0,14.0,-253.0,-14.0,60.0,-3.0,1
-77.0,11.0,-250.0,-15.0,58.0,-3.0,1
-77.0,13.0,-255.0,-14.0,57.0,-4.0,1
-78.0,13.0,-254.0,-14.0,60.0,-3.0,1
-75.0,12.0,-254.0,-14.0,60.0,-3.0,1
-76.0,15.0,-254.0,-13.0,60.0,-2.0,1
-77.0,14.0,-251.0,-12.0,60.0,-3.0,1
-76.0,13.0,-254.0,-13.0,61.0,-3.0,1
-77.0,12.0,-253.0,-14.0,60.0,-4.0,1
-76.0,16.0,-251.0,-15.0,61.0,-2.0,1
-76.0,14.0,-252.0,-13.0,62.0,-3.0,1
-77.0,14.0,-255.0,-14.0,62.0,-3.0,1
-77.0,14.0,-254.0,-14.0,62.0,-4.0,1
-76.0,12.0,-251.0,-13.0,61.0,-4.0,1
-76.0,14.0,-251.0,-12.0,62.0,-4.0,1
-78.0,16.0,-254.0,-12.0,60.0,-3.0,1
-75.0,10.0,-253.0,-13.0,59.0,-3.0,1
-75.0,11.0,-252.0,-13.0,59.0,-3.0,1
-76.0,16.0,-254.0,-14.0,59.0,-3.0,1
-76.0,14.0,-256.0,-12.0,60.0,-2.0,1
-75.0,11.0,-253.0,-12.0,59.0,-2.0,1
-76.0,14.0,-252.0,-12.0,59.0,-2.0,1
-75.0,12.0,-250.0,-11.0,59.0,-2.0,1
-76.0,15.0,-252.0,-11.0,58.0,-3.0,1
-76.0,11.0,-252.0,-12.0,59.0,-2.0,1
-76.0,15.0,-254.0,-13.0,60.0,-2.0,1
-77.0,13.0,-254.0,-13.0,60.0,-2.0,1
-77.0,11.0,-247.0,-13.0,62.0,-3.0,1
-77.0,15.0,-252.0,-14.0,62.0,-3.0,1
-78.0,17.0,-251.0,-14.0,63.0,-4.0,1
-76.0,12.0,-256.0,-15.0,62.0,-3.0,1
-77.0,14.0,-250.0,-14.0,61.0,-1.0,1
-76.0,12.0,-252.0,-13.0,62.0,-2.0,1
-75.0,12.0,-254.0,-14.0,62.0,-3.0,1
-76.0,13.0,-252.0,-15.0,62.0,-3.0,1
-76.0,13.0,-251.0,-15.0,59.0,-3.0,1
-75.0,12.0,-251.0,-14.0,59.0,-2.0,1
-76.0,11.0,-249.0,-16.0,61.0,-3.0,1
-76.0,10.0,-250.0,-17.0,59.0,-2.0,1
-76.0,12.0,-254.0,-18.0,60.0,-3.0,1
-77.0,14.0,-251.0,-17.0,61.0,-3.0,1
-76.0,12.0,-250.0,-15.0,62.0,-3.0,1
-79.0,15.0,-250.0,-13.0,64.0,-2.0,1
-75.0,14.0,-254.0,-13.0,62.0,-5.0,1
-75.0,12.0,-251.0,-13.0,63.0,-3.0,1
-75.0,11.0,-253.0,-14.0,63.0,-3.0,1
-76.0,11.0,-253.0,-13.0,64.0,-2.0,1
-77.0,13.0,-250.0,-15.0,64.0,-4.0,1
-76.0,12.0,-250.0,-14.0,63.0,-2.0,1
-76.0,14.0,-249.0,-14.0,64.0,-4.0,1
-76.0,13.0,-252.0,-12.0,63.0,-4.0,1
-75.0,12.0,-250.0,-12.0,59.0,-4.0,1
-75.0,14.0,-256.0,-14.0,60.0,-3.0,1
-76.0,11.0,-251.0,-14.0,59.0,-4.0,1
-76.0,13.0,-253.0,-13.0,59.0,-2.0,1
-76.0,12.0,-255.0,-14.0,60.0,-4.0,1
-76.0,12.0,-251.0,-13.0,61.0,-2.0,1
-76.0,14.0,-254.0,-12.0,60.0,-5.0,1
-76.0,14.0,-252.0,-10.0,60.0,-3.0,1
-77.0,15.0,-255.0,-11.0,60.0,-3.0,1
-76.0,12.0,-249.0,-10.0,61.0,-2.0,1
-77.0,14.0,-252.0,-10.0,60.0,-4.0,1
-77.0,15.0,-256.0,-10.0,61.0,-2.0,1
-75.0,13.0,-253.0,-10.0,61.0,-4.0,1
-76.0,14.0,-253.0,-11.0,60.0,-2.0,1
-78.0,15.0,-254.0,-11.0,60.0,-4.0,1
-77.0,9.0,-251.0,-10.0,61.0,-2.0,1
-76.0,14.0,-254.0,-11.0,62.0,-2.0,1
-78.0,15.0,-253.0,-11.0,62.0,-2.0,1
-76.0,12.0,-249.0,-12.0,61.0,-3.0,1
-75.0,12.0,-255.0,-12.0,61.0,-1.0,1
-76.0,11.0,-251.0,-13.0,60.0,-5.0,1
-77.0,14.0,-251.0,-14.0,62.0,-2.0,1
-75.0,12.0,-255.0,-13.0,63.0,-4.0,1
-75.0,15.0,-249.0,-12.0,63.0,-2.0,1
-77.0,11.0,-253.0,-12.0,61.0,-3.0,1
-76.0,17.0,-252.0,-12.0,61.0,-2.0,1
-75.0,14.0,-255.0,-13.0,63.0,-3.0,1
-74.0,13.0,-254.0,-16.0,62.0,-2.0,1
-77.0,14.0,-257.0,-15.0,61.0,-3.0,1
-77.0,10.0,-252.0,-15.0,61.0,-1.0,1
-77.0,13.0,-249.0,-14.0,62.0,-5.0,1
-75.0,14.0,-249.0,-13.0,61.0,-2.0,1
-75.0,10.0,-255.0,-14.0,61.0,-4.0,1
-76.0,12.0,-253.0,-15.0,60.0,-1.0,1
-76.0,11.0,-252.0,-15.0,60.0,-4.0,1
-76.0,12.0,-250.0,-14.0,61.0,-1.0,1
-75.0,13.0,-254.0,-15.0,60.0,-4.0,1
-72.0,14.0,-249.0,-16.0,59.0,-1.0,1
-79.0,14.0,-256.0,-14.0,61.0,-3.0,1
-76.0,10.0,-255.0,-10.0,56.0,-1.0,1
-77.0,13.0,-256.0,-15.0,55.0,-4.0,1
-78.0,11.0,-255.0,-15.0,58.0,-1.0,1
-77.0,11.0,-252.0,-15.0,61.0,-4.0,1
-77.0,15.0,-253.0,-17.0,61.0,-1.0,1
-74.0,14.0,-250.0,-16.0,62.0,-4.0,1
-75.0,11.0,-253.0,-18.0,62.0,-2.0,1
-76.0,11.0,-253.0,-15.0,61.0,-2.0,1
-77.0,13.0,-254.0,-18.0,61.0,0.0,1
-77.0,13.0,-254.0,-16.0,59.0,-3.0,1
-76.0,15.0,-255.0,-16.0,58.0,-2.0,1
-76.0,13.0,-254.0,-18.0,59.0,-4.0,1
-76.0,16.0,-252.0,-18.0,59.0,-2.0,1
-78.0,13.0,-250.0,-18.0,59.0,-4.0,1
-76.0,13.0,-253.0,-18.0,59.0,-1.0,1
-77.0,12.0,-251.0,-19.0,59.0,-2.0,1
-76.0,12.0,-251.0,-18.0,58.0,-1.0,1
-78.0,14.0,-251.0,-18.0,58.0,-3.0,1
-76.0,14.0,-251.0,-18.0,60.0,-2.0,1
-76.0,13.0,-251.0,-16.0,59.0,-5.0,1
-76.0,13.0,-250.0,-14.0,59.0,-2.0,1
-76.0,12.0,-253.0,-14.0,60.0,-5.0,1
-76.0,13.0,-253.0,-13.0,61.0,-3.0,1
-75.0,13.0,-250.0,-13.0,61.0,-5.0,1
-76.0,12.0,-253.0,-13.0,60.0,-3.0,1
-77.0,14.0,-252.0,-13.0,61.0,-4.0,1
-76.0,13.0,-252.0,-14.0,62.0,-3.0,1
-75.0,12.0,-252.0,-14.0,61.0,-5.0,1
-75.0,14.0,-253.0,-13.0,61.0,-3.0,1
-75.0,11.0,-254.0,-13.0,60.0,-4.0,1
-76.0,14.0,-255.0,-12.0,61.0,-2.0,1
-77.0,12.0,-250.0,-13.0,62.0,-3.0,1
-76.0,13.0,-256.0,-13.0,61.0,-3.0,1
-76.0,13.0,-253.0,-12.0,60.0,-5.0,1
-76.0,11.0,-251.0,-13.0,60.0,-2.0,1
-77.0,14.0,-250.0,-11.0,60.0,-4.0,1
-76.0,16.0,-253.0,-13.0,61.0,-2.0,1
-77.0,16.0,-249.0,-12.0,60.0,-3.0,1
-75.0,12.0,-251.0,-13.0,60.0,-2.0,1
-76.0,13.0,-251.0,-13.0,62.0,-4.0,1
-75.0,12.0,-254.0,-14.0,62.0,-2.0,1
-78.0,13.0,-253.0,-15.0,63.0,-5.0,1
-77.0,12.0,-250.0,-15.0,64.0,-2.0,1
-75.0,12.0,-253.0,-13.0,65.0,-5.0,1
-75.0,10.0,-252.0,-12.0,66.0,-3.0,1
-76.0,11.0,-253.0,-11.0,64.0,-5.0,1
-78.0,13.0,-249.0,-8.0,64.0,-3.0,1
-76.0,7.0,-260.0,-9.0,62.0,-4.0,1
-76.0,14.0,-257.0,-9.0,60.0,-4.0,1
-76.0,13.0,-252.0,-12.0,60.0,-3.0,1
-80.0,13.0,-250.0,-13.0,60.0,-2.0,1
-76.0,12.0,-250.0,-12.0,61.0,-4.0,1
-75.0,12.0,-250.0,-13.0,61.0,-2.0,1
-78.0,16.0,-255.0,-13.0,62.0,-5.0,1
-74.0,8.0,-252.0,-13.0,63.0,-2.0,1
-77.0,13.0,-249.0,-11.0,61.0,-5.0,1
-75.0,12.0,-254.0,-12.0,61.0,-3.0,1
-76.0,12.0,-253.0,-11.0,60.0,-4.0,1
-76.0,15.0,-250.0,-11.0,58.0,-3.0,1
-75.0,13.0,-252.0,-11.0,60.0,-4.0,1
-76.0,12.0,-253.0,-12.0,61.0,-2.0,1
-78.0,13.0,-255.0,-12.0,62.0,-3.0,1
-77.0,15.0,-253.0,-13.0,63.0,-2.0,1
-76.0,12.0,-256.0,-13.0,62.0,-4.0,1
-75.0,13.0,-250.0,-14.0,62.0,-3.0,1
-76.0,14.0,-255.0,-13.0,62.0,-4.0,1
-76.0,8.0,-256.0,-13.0,62.0,-3.0,1
-74.0,11.0,-252.0,-14.0,60.0,-3.0,1
-76.0,14.0,-253.0,-13.0,61.0,-2.0,1
-74.0,11.0,-253.0,-13.0,61.0,-3.0,1
-76.0,10.0,-251.0,-13.0,62.0,-3.0,1
-76.0,13.0,-253.0,-12.0,62.0,-3.0,1
-78.0,13.0,-251.0,-13.0,61.0,-3.0,1
-77.0,13.0,-253.0,-13.0,61.0,-4.0,1
-78.0,14.0,-255.0,-13.0,61.0,-2.0,1
-76.0,13.0,-250.0,-13.0,61.0,-3.0,1
-75.0,11.0,-250.0,-14.0,61.0,-2.0,1
-76.0,12.0,-253.0,-14.0,60.0,-2.0,1
-77.0,13.0,-253.0,-14.0,61.0,-2.0,1
-76.0,12.0,-255.0,-15.0,62.0,-2.0,1
-77.0,15.0,-249.0,-15.0,62.0,-2.0,1
-76.0,14.0,-254.0,-15.0,60.0,-2.0,1
-76.0,12.0,-254.0,-15.0,61.0,-3.0,1
-77.0,13.0,-252.0,-15.0,63.0,-3.0,1
-75.0,15.0,-256.0,-15.0,62.0,-2.0,1
-77.0,12.0,-254.0,-14.0,61.0,-1.0,1
-76.0,12.0,-251.0,-14.0,61.0,-2.0,1
-78.0,13.0,-255.0,-15.0,64.0,-1.0,1
-77.0,15.0,-250.0,-14.0,64.0,-2.0,1
-73.0,11.0,-252.0,-13.0,64.0,-1.0,1
-76.0,13.0,-254.0,-14.0,63.0,-2.0,1
-74.0,11.0,-254.0,-16.0,63.0,-2.0,1
-75.0,12.0,-256.0,-14.0,62.0,-1.0,1
-77.0,10.0,-252.0,-14.0,61.0,-2.0,1
-76.0,12.0,-253.0,-14.0,62.0,-2.0,1
-75.0,12.0,-256.0,-15.0,63.0,-3.0,1
-77.0,11.0,-252.0,-13.0,62.0,-2.0,1
-76.0,12.0,-253.0,-12.0,62.0,-1.0,1
-76.0,13.0,-255.0,-12.0,62.0,-2.0,1
-76.0,16.0,-251.0,-14.0,62.0,-2.0,1
-74.0,10.0,-251.0,-12.0,60.0,-2.0,1
-76.0,13.0,-251.0,-13.0,59.0,-2.0,1
-77.0,15.0,-254.0,-12.0,61.0,-2.0,1
-76.0,14.0,-253.0,-12.0,62.0,-2.0,1
-79.0,15.0,-253.0,-11.0,63.0,-1.0,1
-76.0,14.0,-252.0,-13.0,63.0,-2.0,1
-77.0,13.0,-257.0,-12.0,63.0,-2.0,1
-77.0,12.0,-250.0,-13.0,63.0,-1.0,1
-75.0,14.0,-253.0,-13.0,64.0,-3.0,1
-78.0,14.0,-253.0,-13.0,66.0,-2.0,1
-76.0,14.0,-250.0,-13.0,65.0,-2.0,1
-76.0,14.0,-251.0,-14.0,65.0,-3.0,1
-75.0,12.0,-252.0,-15.0,65.0,-2.0,1
-76.0,16.0,-254.0,-15.0,65.0,-1.0,1
-77.0,12.0,-255.0,-15.0,65.0,-1.0,1
-76.0,11.0,-252.0,-15.0,65.0,0.0,1
-77.0,13.0,-251.0,-14.0,64.0,-2.0,1
-75.0,13.0,-251.0,-15.0,64.0,-1.0,1
-77.0,14.0,-250.0,-14.0,64.0,-3.0,1
-77.0,11.0,-252.0,-15.0,63.0,-1.0,1
-77.0,14.0,-257.0,-14.0,65.0,-3.0,1
-77.0,13.0,-252.0,-14.0,63.0,-1.0,1
-76.0,11.0,-251.0,-16.0,64.0,-3.0,1
-76.0,14.0,-253.0,-16.0,63.0,-2.0,1
-75.0,12.0,-251.0,-15.0,63.0,-2.0,1
-74.0,12.0,-254.0,-16.0,62.0,0.0,1
-78.0,13.0,-254.0,-15.0,64.0,-3.0,1
-76.0,17.0,-253.0,-15.0,63.0,-1.0,1
-78.0,15.0,-253.0,-13.0,64.0,-3.0,1
-76.0,14.0,-254.0,-13.0,64.0,-2.0,1
-74.0,13.0,-253.0,-13.0,62.0,-2.0,1
-76.0,12.0,-250.0,-13.0,62.0,-1.0,1
-75.0,12.0,-254.0,-12.0,61.0,-2.0,1
-78.0,14.0,-255.0,-13.0,63.0,-1.0,1
-75.0,12.0,-250.0,-14.0,64.0,-4.0,1
-75.0,13.0,-257.0,-13.0,64.0,0.0,1
-76.0,13.0,-251.0,-12.0,65.0,-3.0,1
-76.0,12.0,-253.0,-11.0,66.0,-2.0,1
-76.0,14.0,-254.0,-12.0,67.0,-2.0,1
-76.0,13.0,-251.0,-11.0,68.0,-1.0,1
-76.0,14.0,-253.0,-12.0,68.0,-3.0,1
-75.0,12.0,-253.0,-13.0,65.0,-1.0,1
-75.0,12.0,-254.0,-12.0,64.0,-3.0,1
-77.0,13.0,-249.0,-13.0,64.0,-1.0,1
-76.0,14.0,-252.0,-15.0,64.0,-2.0,1
-76.0,15.0,-250.0,-16.0,63.0,-1.0,1
-77.0,13.0,-250.0,-18.0,63.0,-4.0,1
-74.0,8.0,-251.0,-18.0,64.0,-1.0,1
-77.0,14.0,-250.0,-20.0,64.0,-1.0,1
-75.0,11.0,-253.0,-19.0,64.0,-1.0,1
-76.0,11.0,-249.0,-18.0,66.0,-2.0,1
-74.0,10.0,-252.0,-19.0,65.0,-1.0,1
-75.0,11.0,-250.0,-17.0,67.0,-3.0,1
-76.0,8.0,-253.0,-17.0,69.0,-1.0,1
-75.0,13.0,-257.0,-18.0,70.0,-4.0,1
-76.0,15.0,-257.0,-20.0,69.0,-1.0,1
-76.0,14.0,-250.0,-20.0,68.0,-3.0,1
-74.0,13.0,-255.0,-17.0,67.0,-1.0,1
-77.0,15.0,-257.0,-16.0,66.0,-4.0,1
-76.0,10.0,-251.0,-17.0,63.0,-2.0,1
-77.0,15.0,-256.0,-15.0,63.0,-4.0,1
-76.0,14.0,-254.0,-14.0,64.0,-2.0,1
-77.0,13.0,-253.0,-13.0,64.0,-3.0,1
-76.0,14.0,-255.0,-12.0,64.0,-1.0,1
-75.0,13.0,-253.0,-13.0,64.0,-5.0,1
-77.0,12.0,-255.0,-14.0,66.0,-1.0,1
-77.0,16.0,-255.0,-14.0,66.0,-4.0,1
-74.0,15.0,-249.0,-14.0,64.0,-1.0,1
-76.0,13.0,-252.0,-14.0,64.0,-3.0,1
-77.0,16.0,-251.0,-15.0,64.0,-1.0,1
-75.0,12.0,-251.0,-15.0,64.0,-4.0,1
-74.0,13.0,-250.0,-13.0,63.0,1.0,1
-75.0,14.0,-251.0,-17.0,63.0,-3.0,1
-76.0,15.0,-248.0,-15.0,64.0,-1.0,1
-77.0,15.0,-252.0,-16.0,63.0,-2.0,1
-74.0,12.0,-253.0,-16.0,63.0,-1.0,1
-75.0,11.0,-250.0,-16.0,63.0,-3.0,1
-75.0,13.0,-252.0,-14.0,63.0,-1.0,1
-75.0,13.0,-252.0,-14.0,63.0,-3.0,1
-75.0,13.0,-254.0,-13.0,63.0,0.0,1
-76.0,16.0,-251.0,-15.0,62.0,-2.0,1
-78.0,14.0,-251.0,-16.0,64.0,0.0,1
-75.0,13.0,-255.0,-14.0,63.0,-2.0,1
-76.0,16.0,-250.0,-14.0,63.0,-2.0,1
-75.0,13.0,-252.0,-15.0,61.0,-4.0,1
-74.0,13.0,-251.0,-14.0,62.0,0.0,1
-76.0,12.0,-253.0,-15.0,64.0,-3.0,1
-77.0,17.0,-255.0,-16.0,61.0,0.0,1
-75.0,12.0,-252.0,-15.0,61.0,-3.0,1
-75.0,11.0,-254.0,-15.0,60.0,0.0,1
-76.0,11.0,-250.0,-14.0,61.0,-3.0,1
-79.0,14.0,-253.0,-15.0,61.0,0.0,1
-76.0,14.0,-249.0,-15.0,62.0,-4.0,1
-76.0,13.0,-254.0,-15.0,62.0,-2.0,1
-74.0,12.0,-250.0,-14.0,63.0,-3.0,1
-75.0,13.0,-248.0,-16.0,62.0,-1.0,1
-76.0,13.0,-253.0,-14.0,63.0,-4.0,1
-75.0,11.0,-250.0,-12.0,63.0,-2.0,1
-75.0,16.0,-253.0,-13.0,61.0,-3.0,1
-76.0,12.0,-254.0,-13.0,62.0,-1.0,1
-79.0,16.0,-251.0,-12.0,63.0,-3.0,1
-76.0,12.0,-251.0,-13.0,61.0,-1.0,1
-76.0,14.0,-252.0,-15.0,60.0,-2.0,1
-76.0,12.0,-251.0,-15.0,62.0,-2.0,1
-75.0,12.0,-253.0,-16.0,62.0,-2.0,1
-76.0,11.0,-255.0,-17.0,63.0,0.0,1
-75.0,9.0,-252.0,-17.0,63.0,-3.0,1
-76.0,13.0,-250.0,-19.0,62.0,0.0,1
-74.0,11.0,-251.0,-18.0,63.0,-3.0,1
-77.0,14.0,-253.0,-19.0,62.0,0.0,1
-75.0,11.0,-252.0,-18.0,62.0,-3.0,1
-75.0,11.0,-253.0,-17.0,62.0,-1.0,1
-74.0,10.0,-253.0,-18.0,60.0,-2.0,1
-76.0,13.0,-251.0,-17.0,62.0,-1.0,1
-75.0,11.0,-251.0,-18.0,61.0,-2.0,1
-75.0,12.0,-251.0,-16.0,60.0,-1.0,1
-76.0,16.0,-255.0,-16.0,60.0,-2.0,1
-76.0,13.0,-254.0,-17.0,60.0,-1.0,1
-76.0,14.0,-254.0,-17.0,60.0,-3.0,1
-76.0,11.0,-252.0,-15.0,58.0,-1.0,1
-76.0,16.0,-256.0,-15.0,61.0,-3.0,1
-77.0,14.0,-255.0,-15.0,62.0,-1.0,1
-75.0,13.0,-254.0,-16.0,62.0,-4.0,1
-76.0,16.0,-249.0,-14.0,62.0,-2.0,1
-76.0,10.0,-253.0,-14.0,63.0,-3.0,1
-73.0,13.0,-254.0,-14.0,63.0,-2.0,1
-75.0,12.0,-256.0,-13.0,62.0,-4.0,1
-76.0,15.0,-255.0,-12.0,63.0,-3.0,1
-76.0,14.0,-249.0,-12.0,63.0,-4.0,1
-76.0,13.0,-252.0,-11.0,64.0,-1.0,1
-76.0,17.0,-249.0,-12.0,63.0,-3.0,1
-76.0,16.0,-254.0,-11.0,63.0,-2.0,1
-77.0,13.0,-253.0,-14.0,66.0,-2.0,1
-75.0,13.0,-253.0,-14.0,65.0,-1.0,1
-75.0,15.0,-257.0,-13.0,64.0,-2.0,1
-75.0,12.0,-254.0,-14.0,63.0,-1.0,1
-74.0,10.0,-254.0,-13.0,64.0,-1.0,1
-76.0,15.0,-253.0,-15.0,64.0,-1.0,1
-76.0,14.0,-252.0,-15.0,63.0,-3.0,1
-75.0,13.0,-251.0,-14.0,64.0,-1.0,1
-75.0,12.0,-254.0,-14.0,64.0,-3.0,1
-75.0,12.0,-253.0,-15.0,64.0,-2.0,1
-76.0,14.0,-256.0,-14.0,63.0,-2.0,1
-75.0,11.0,-254.0,-15.0,63.0,-1.0,1
-76.0,14.0,-255.0,-14.0,63.0,-1.0,1
-74.0,13.0,-255.0,-14.0,64.0,-2.0,1
-75.0,16.0,-254.0,-14.0,64.0,-2.0,1
-76.0,13.0,-253.0,-15.0,63.0,0.0,1
-76.0,13.0,-253.0,-14.0,64.0,-3.0,1
-73.0,11.0,-252.0,-16.0,63.0,-2.0,1
-74.0,10.0,-252.0,-14.0,61.0,-2.0,1
-75.0,14.0,-251.0,-14.0,62.0,-4.0,1
-76.0,13.0,-251.0,-13.0,61.0,-3.0,1
-73.0,13.0,-253.0,-12.0,61.0,-3.0,1
-76.0,15.0,-253.0,-12.0,61.0,-2.0,1
-74.0,15.0,-251.0,-10.0,61.0,-3.0,1
-76.0,12.0,-254.0,-12.0,60.0,-3.0,1
-77.0,14.0,-255.0,-12.0,60.0,-2.0,1
-75.0,12.0,-251.0,-13.0,59.0,-2.0,1
-76.0,15.0,-251.0,-12.0,59.0,-3.0,1
-74.0,14.0,-253.0,-14.0,61.0,-2.0,1
-76.0,14.0,-250.0,-14.0,61.0,-2.0,1
-76.0,15.0,-257.0,-12.0,62.0,-2.0,1
-76.0,15.0,-250.0,-12.0,59.0,-4.0,1
-76.0,12.0,-256.0,-13.0,59.0,-2.0,1
-79.0,17.0,-250.0,-13.0,58.0,-3.0,1
-76.0,12.0,-249.0,-13.0,59.0,-3.0,1
-75.0,12.0,-253.0,-14.0,58.0,-3.0,1
-76.0,12.0,-253.0,-14.0,58.0,-3.0,1
-76.0,13.0,-254.0,-14.0,59.0,-4.0,1
-76.0,14.0,-254.0,-14.0,59.0,-2.0,1
-76.0,14.0,-253.0,-15.0,59.0,-3.0,1
-76.0,15.0,-251.0,-14.0,60.0,-2.0,1
-75.0,11.0,-250.0,-13.0,58.0,-4.0,1
-75.0,12.0,-249.0,-13.0,58.0,-1.0,1
-77.0,13.0,-254.0,-14.0,59.0,-3.0,1
-76.0,12.0,-250.0,-14.0,59.0,-2.0,1
-76.0,12.0,-251.0,-14.0,57.0,-4.0,1
-77.0,14.0,-253.0,-14.0,57.0,-3.0,1
-76.0,12.0,-253.0,-14.0,59.0,-5.0,1
-75.0,12.0,-254.0,-13.0,58.0,-1.0,1
-76.0,15.0,-249.0,-15.0,59.0,-2.0,1
-77.0,15.0,-250.0,-15.0,59.0,-2.0,1
-76.0,14.0,-253.0,-14.0,58.0,-4.0,1
-76.0,14.0,-252.0,-15.0,60.0,-1.0,1
-77.0,15.0,-255.0,-14.0,60.0,-3.0,1
-76.0,12.0,-254.0,-15.0,57.0,-1.0,1
-76.0,10.0,-258.0,-15.0,58.0,-2.0,1
-77.0,14.0,-254.0,-15.0,59.0,-2.0,1
-77.0,14.0,-251.0,-15.0,60.0,-3.0,1
-74.0,12.0,-254.0,-14.0,61.0,-1.0,1
-74.0,14.0,-251.0,-14.0,61.0,-3.0,1
-75.0,13.0,-255.0,-15.0,60.0,-2.0,1
-76.0,15.0,-252.0,-14.0,59.0,-4.0,1
-76.0,15.0,-256.0,-13.0,60.0,-1.0,1
-76.0,14.0,-254.0,-14.0,61.0,-3.0,1
-76.0,15.0,-251.0,-13.0,60.0,-1.0,1
-76.0,13.0,-255.0,-13.0,61.0,-5.0,1
-76.0,16.0,-253.0,-13.0,60.0,-1.0,1
-75.0,13.0,-250.0,-13.0,61.0,-3.0,1
-77.0,14.0,-256.0,-14.0,59.0,-2.0,1
-76.0,13.0,-255.0,-13.0,60.0,-3.0,1
-76.0,13.0,-250.0,-13.0,60.0,-1.0,1
-75.0,12.0,-254.0,-12.0,60.0,-4.0,1
-76.0,16.0,-252.0,-14.0,60.0,-3.0,1
-74.0,13.0,-252.0,-13.0,60.0,-4.0,1
-77.0,13.0,-249.0,-13.0,59.0,-1.0,1
-77.0,15.0,-250.0,-13.0,60.0,-3.0,1
-76.0,12.0,-252.0,-12.0,60.0,-1.0,1
-77.0,15.0,-252.0,-12.0,59.0,-3.0,1
-74.0,13.0,-253.0,-13.0,59.0,0.0,1
-77.0,13.0,-253.0,-12.0,60.0,-4.0,1
-76.0,13.0,-254.0,-12.0,61.0,-1.0,1
-76.0,11.0,-252.0,-12.0,60.0,-3.0,1
-75.0,10.0,-255.0,-11.0,61.0,-2.0,1
-74.0,15.0,-252.0,-12.0,60.0,-4.0,1
-77.0,13.0,-251.0,-12.0,58.0,0.0,1
-74.0,13.0,-250.0,-11.0,59.0,-4.0,1
-74.0,12.0,-252.0,-12.0,59.0,-2.0,1
-76.0,13.0,-251.0,-11.0,58.0,-5.0,1
-76.0,13.0,-251.0,-11.0,60.0,-3.0,1
-76.0,11.0,-253.0,-11.0,60.0,-5.0,1
-76.0,15.0,-253.0,-12.0,60.0,-2.0,1
-76.0,16.0,-251.0,-11.0,61.0,-5.0,1
-76.0,13.0,-255.0,-12.0,61.0,-1.0,1
-78.0,13.0,-252.0,-14.0,61.0,-4.0,1
-75.0,13.0,-250.0,-12.0,62.0,-2.0,1
-76.0,13.0,-252.0,-13.0,62.0,-2.0,1
-75.0,13.0,-252.0,-12.0,61.0,1.0,1
-76.0,14.0,-253.0,-13.0,61.0,-3.0,1
-75.0,13.0,-252.0,-13.0,60.0,-1.0,1
-76.0,13.0,-254.0,-13.0,59.0,-5.0,1
-76.0,13.0,-251.0,-15.0,58.0,-1.0,1
-78.0,13.0,-248.0,-16.0,58.0,-3.0,1
-77.0,15.0,-251.0,-16.0,59.0,-2.0,1
-77.0,11.0,-250.0,-17.0,59.0,-3.0,1
-75.0,13.0,-250.0,-16.0,60.0,-1.0,1
-75.0,14.0,-252.0,-15.0,60.0,-4.0,1
-76.0,13.0,-252.0,-14.0,61.0,-3.0,1
-77.0,16.0,-253.0,-14.0,62.0,-4.0,1
-74.0,14.0,-253.0,-14.0,62.0,-1.0,1
-76.0,10.0,-254.0,-15.0,61.0,-4.0,1
-76.0,14.0,-253.0,-15.0,62.0,-2.0,1
-76.0,15.0,-251.0,-14.0,61.0,-4.0,1
-76.0,12.0,-253.0,-12.0,60.0,-2.0,1
-75.0,14.0,-251.0,-11.0,58.0,-5.0,1
-76.0,13.0,-251.0,-9.0,57.0,-3.0,1
-77.0,15.0,-249.0,-10.0,59.0,-5.0,1
-78.0,15.0,-252.0,-11.0,59.0,-3.0,1
-76.0,13.0,-256.0,-10.0,58.0,-4.0,1
-76.0,16.0,-251.0,-9.0,58.0,-2.0,1
-76.0,15.0,-254.0,-9.0,58.0,-4.0,1
-75.0,16.0,-251.0,-10.0,58.0,-1.0,1
-76.0,14.0,-251.0,-10.0,59.0,-3.0,1
-78.0,14.0,-256.0,-11.0,59.0,-1.0,1
-77.0,13.0,-252.0,-12.0,60.0,-3.0,1
-73.0,10.0,-254.0,-11.0,60.0,-2.0,1
-75.0,13.0,-254.0,-10.0,61.0,-3.0,1
-75.0,15.0,-252.0,-12.0,60.0,-2.0,1
-74.0,13.0,-252.0,-12.0,60.0,-3.0,1
-75.0,17.0,-251.0,-13.0,60.0,-1.0,1
-75.0,11.0,-257.0,-11.0,60.0,-2.0,1
-76.0,15.0,-254.0,-12.0,60.0,-1.0,1
-76.0,13.0,-251.0,-12.0,60.0,-3.0,1
-77.0,16.0,-253.0,-12.0,60.0,-1.0,1
-75.0,13.0,-251.0,-12.0,59.0,-3.0,1
-76.0,14.0,-252.0,-11.0,59.0,-1.0,1
-77.0,12.0,-251.0,-11.0,60.0,-4.0,1
-75.0,16.0,-250.0,-10.0,58.0,-1.0,1
-76.0,12.0,-254.0,-10.0,58.0,-2.0,1
-78.0,15.0,-252.0,-10.0,58.0,-2.0,1
-76.0,13.0,-252.0,-10.0,57.0,-5.0,1
-76.0,16.0,-252.0,-10.0,57.0,-3.0,1
-76.0,13.0,-251.0,-9.0,58.0,-5.0,1
-76.0,14.0,-252.0,-10.0,57.0,-4.0,1
-76.0,13.0,-253.0,-10.0,58.0,-5.0,1
-76.0,14.0,-253.0,-10.0,58.0,-3.0,1
-76.0,14.0,-255.0,-11.0,57.0,-3.0,1
-75.0,11.0,-253.0,-12.0,57.0,-2.0,1
-76.0,16.0,-254.0,-11.0,57.0,-2.0,1
-76.0,13.0,-251.0,-11.0,58.0,-2.0,1
-75.0,15.0,-255.0,-13.0,58.0,-3.0,1
-75.0,12.0,-250.0,-15.0,58.0,-2.0,1
-77.0,15.0,-256.0,-14.0,59.0,-3.0,1
-75.0,13.0,-253.0,-14.0,60.0,-3.0,1
-78.0,17.0,-253.0,-12.0,58.0,-3.0,1
-76.0,11.0,-250.0,-14.0,57.0,-3.0,1
-75.0,16.0,-253.0,-12.0,58.0,-3.0,1
-74.0,11.0,-254.0,-12.0,57.0,-4.0,1
-77.0,15.0,-256.0,-12.0,57.0,-3.0,1
-78.0,15.0,-253.0,-11.0,58.0,-3.0,1
-76.0,14.0,-252.0,-12.0,57.0,-3.0,1
-75.0,14.0,-256.0,-13.0,58.0,-3.0,1
-76.0,10.0,-251.0,-15.0,59.0,-4.0,1
-74.0,14.0,-252.0,-16.0,59.0,-4.0,1
-76.0,14.0,-251.0,-17.0,60.0,-3.0,1
-76.0,13.0,-251.0,-17.0,60.0,-3.0,1
-76.0,13.0,-250.0,-18.0,59.0,-2.0,1
-76.0,13.0,-255.0,-17.0,58.0,-3.0,1
-75.0,12.0,-249.0,-19.0,58.0,-2.0,1
-77.0,14.0,-250.0,-17.0,55.0,-3.0,1
-77.0,12.0,-256.0,-16.0,57.0,-2.0,1
-76.0,13.0,-253.0,-16.0,58.0,-4.0,1
-76.0,11.0,-254.0,-15.0,59.0,-3.0,1
-77.0,14.0,-255.0,-16.0,60.0,-3.0,1
-76.0,15.0,-251.0,-15.0,59.0,-3.0,1
-76.0,12.0,-252.0,-16.0,59.0,-3.0,1
-75.0,11.0,-253.0,-15.0,61.0,-4.0,1
-76.0,17.0,-253.0,-15.0,60.0,-4.0,1
-76.0,14.0,-251.0,-15.0,62.0,-4.0,1
-75.0,15.0,-256.0,-15.0,62.0,-4.0,1
-77.0,14.0,-253.0,-14.0,61.0,-3.0,1
-76.0,18.0,-250.0,-12.0,60.0,-3.0,1
-74.0,14.0,-252.0,-13.0,58.0,-3.0,1
-76.0,12.0,-251.0,-12.0,60.0,-4.0,1
-78.0,12.0,-254.0,-11.0,60.0,-3.0,1
-76.0,12.0,-254.0,-11.0,59.0,-5.0,1
-78.0,16.0,-253.0,-11.0,59.0,-2.0,1
-75.0,11.0,-251.0,-9.0,58.0,-4.0,1
-76.0,12.0,-256.0,-11.0,60.0,-3.0,1
-75.0,14.0,-252.0,-12.0,59.0,-4.0,1
-76.0,11.0,-252.0,-11.0,60.0,-3.0,1
-77.0,16.0,-253.0,-13.0,60.0,-4.0,1
-76.0,12.0,-253.0,-12.0,60.0,-2.0,1
-75.0,13.0,-251.0,-13.0,61.0,-4.0,1
-75.0,13.0,-256.0,-11.0,61.0,-2.0,1
-76.0,14.0,-254.0,-12.0,62.0,-3.0,1
-77.0,14.0,-250.0,-12.0,60.0,-2.0,1
-77.0,13.0,-250.0,-11.0,61.0,-2.0,1
-76.0,14.0,-256.0,-12.0,61.0,-2.0,1
-74.0,10.0,-251.0,-11.0,60.0,-4.0,1
-74.0,13.0,-255.0,-11.0,61.0,-3.0,1
-77.0,13.0,-254.0,-11.0,59.0,-6.0,1
-74.0,12.0,-254.0,-12.0,60.0,-3.0,1
-78.0,14.0,-252.0,-11.0,58.0,-5.0,1
-78.0,16.0,-251.0,-11.0,59.0,-3.0,1
-76.0,14.0,-252.0,-11.0,58.0,-4.0,1
-74.0,13.0,-254.0,-11.0,60.0,-2.0,1
-75.0,13.0,-257.0,-10.0,59.0,-4.0,1
-75.0,13.0,-250.0,-11.0,59.0,-3.0,1
-76.0,11.0,-251.0,-10.0,59.0,-4.0,1
-79.0,14.0,-250.0,-10.0,60.0,-1.0,1
-77.0,12.0,-253.0,-12.0,57.0,-4.0,1
-76.0,12.0,-251.0,-12.0,56.0,-2.0,1
-75.0,13.0,-251.0,-11.0,56.0,-2.0,1
-76.0,13.0,-251.0,-12.0,56.0,-2.0,1
-76.0,12.0,-257.0,-13.0,57.0,-4.0,1
-76.0,12.0,-251.0,-13.0,57.0,-2.0,1
-72.0,12.0,-251.0,-12.0,58.0,-4.0,1
-77.0,13.0,-255.0,-12.0,58.0,-2.0,1
-76.0,13.0,-251.0,-13.0,57.0,-3.0,1
-78.0,15.0,-253.0,-13.0,57.0,-1.0,1
-75.0,12.0,-253.0,-13.0,57.0,-3.0,1
-76.0,10.0,-253.0,-13.0,59.0,-2.0,1
-75.0,15.0,-253.0,-13.0,57.0,-5.0,1
-77.0,13.0,-254.0,-13.0,57.0,-3.0,1
-75.0,15.0,-251.0,-12.0,56.0,-4.0,1
-76.0,13.0,-254.0,-13.0,57.0,-2.0,1
-76.0,15.0,-251.0,-15.0,58.0,-4.0,1
-76.0,13.0,-253.0,-14.0,57.0,-2.0,1
-78.0,13.0,-251.0,-14.0,57.0,-4.0,1
-77.0,16.0,-257.0,-15.0,57.0,-2.0,1
-78.0,17.0,-254.0,-15.0,57.0,-5.0,1
-75.0,15.0,-252.0,-15.0,57.0,-2.0,1
-75.0,13.0,-252.0,-17.0,57.0,-5.0,1
-76.0,14.0,-251.0,-14.0,58.0,-2.0,1
-76.0,14.0,-252.0,-14.0,58.0,-5.0,1
-76.0,14.0,-251.0,-14.0,57.0,-2.0,1
-77.0,14.0,-253.0,-15.0,58.0,-4.0,1
-78.0,15.0,-253.0,-16.0,58.0,0.0,1
-76.0,14.0,-253.0,-15.0,59.0,-3.0,1
-75.0,11.0,-253.0,-14.0,60.0,-2.0,1
-78.0,16.0,-257.0,-15.0,60.0,-4.0,1
-75.0,13.0,-249.0,-15.0,58.0,-1.0,1
-75.0,12.0,-251.0,-13.0,58.0,-4.0,1
-76.0,13.0,-256.0,-13.0,58.0,-1.0,1
-78.0,14.0,-252.0,-13.0,59.0,-4.0,1
-76.0,14.0,-253.0,-11.0,59.0,-3.0,1
-76.0,15.0,-255.0,-12.0,59.0,-4.0,1
-75.0,12.0,-251.0,-12.0,58.0,-1.0,1
-76.0,12.0,-255.0,-12.0,59.0,-4.0,1
-76.0,13.0,-253.0,-12.0,59.0,-1.0,1
-78.0,13.0,-252.0,-14.0,59.0,-3.0,1
-78.0,14.0,-253.0,-12.0,59.0,-1.0,1
-76.0,12.0,-252.0,-12.0,59.0,-4.0,1
-76.0,13.0,-254.0,-15.0,60.0,-2.0,1
-76.0,14.0,-251.0,-13.0,59.0,-3.0,1
-77.0,14.0,-250.0,-13.0,59.0,-2.0,1
-77.0,9.0,-254.0,-12.0,59.0,-3.0,1
-75.0,12.0,-255.0,-12.0,59.0,-2.0,1
-79.0,14.0,-251.0,-14.0,59.0,-3.0,1
-77.0,15.0,-255.0,-14.0,61.0,-2.0,1
-76.0,16.0,-251.0,-12.0,60.0,-2.0,1
-76.0,13.0,-251.0,-12.0,61.0,-1.0,1
-77.0,11.0,-250.0,-12.0,61.0,-4.0,1
-77.0,14.0,-250.0,-12.0,60.0,-2.0,1
-76.0,9.0,-255.0,-14.0,60.0,-4.0,1
-76.0,14.0,-252.0,-13.0,59.0,-2.0,1
-77.0,12.0,-253.0,-13.0,59.0,-4.0,1
-76.0,13.0,-252.0,-12.0,60.0,-1.0,1
-76.0,11.0,-251.0,-13.0,60.0,-4.0,1
-75.0,14.0,-256.0,-14.0,59.0,-2.0,1
-75.0,14.0,-252.0,-15.0,59.0,-4.0,1
-76.0,14.0,-255.0,-15.0,59.0,-2.0,1
-77.0,12.0,-251.0,-14.0,60.0,-4.0,1
-75.0,15.0,-249.0,-14.0,60.0,-2.0,1
-77.0,15.0,-250.0,-14.0,60.0,-4.0,1
-77.0,13.0,-252.0,-14.0,60.0,-1.0,1
-76.0,12.0,-254.0,-15.0,61.0,-3.0,1
-77.0,14.0,-253.0,-15.0,62.0,-2.0,1
-76.0,14.0,-255.0,-15.0,62.0,-4.0,1
-76.0,13.0,-253.0,-16.0,61.0,-2.0,1
-77.0,14.0,-251.0,-16.0,61.0,-4.0,1
-75.0,16.0,-252.0,-16.0,61.0,-2.0,1
-77.0,14.0,-251.0,-17.0,62.0,-4.0,1
-77.0,13.0,-250.0,-15.0,62.0,-2.0,1
-78.0,16.0,-253.0,-14.0,62.0,-3.0,1
-76.0,14.0,-254.0,-16.0,61.0,-2.0,1
-78.0,14.0,-256.0,-15.0,61.0,-3.0,1
-75.0,14.0,-250.0,-15.0,61.0,-2.0,1
-75.0,13.0,-254.0,-14.0,62.0,-3.0,1
-75.0,18.0,-249.0,-15.0,62.0,-1.0,1
-76.0,13.0,-254.0,-14.0,61.0,-2.0,1
-77.0,15.0,-255.0,-14.0,60.0,0.0,1
-76.0,12.0,-257.0,-13.0,61.0,-3.0,1
-77.0,13.0,-253.0,-12.0,60.0,0.0,1
-75.0,13.0,-257.0,-13.0,60.0,-3.0,1
-69.0,13.0,-267.0,-14.0,60.0,-2.0,1
-79.0,15.0,-243.0,-13.0,62.0,-3.0,1
-77.0,14.0,-250.0,-13.0,62.0,-3.0,1
-76.0,12.0,-251.0,-12.0,63.0,-2.0,1
-76.0,14.0,-250.0,-13.0,66.0,-2.0,1
-75.0,12.0,-251.0,-13.0,66.0,-3.0,1
-76.0,12.0,-252.0,-14.0,67.0,-2.0,1
-75.0,13.0,-252.0,-12.0,67.0,-3.0,1
-77.0,13.0,-255.0,-12.0,67.0,0.0,1
-77.0,15.0,-253.0,-13.0,68.0,-1.0,1
-75.0,13.0,-251.0,-12.0,68.0,-2.0,1
-76.0,15.0,-253.0,-13.0,67.0,-1.0,1
-77.0,13.0,-253.0,-13.0,67.0,-2.0,1
-76.0,11.0,-251.0,-14.0,67.0,-1.0,1
-77.0,14.0,-251.0,-16.0,67.0,-2.0,1
-77.0,14.0,-251.0,-16.0,69.0,-2.0,1
-76.0,11.0,-250.0,-16.0,67.0,-2.0,1
-75.0,12.0,-253.0,-15.0,68.0,-3.0,1
-77.0,13.0,-250.0,-15.0,69.0,-3.0,1
-75.0,16.0,-255.0,-14.0,67.0,-2.0,1
-77.0,14.0,-250.0,-14.0,67.0,-3.0,1
-77.0,11.0,-249.0,-15.0,67.0,-2.0,1
-76.0,13.0,-252.0,-15.0,67.0,-3.0,1
-77.0,13.0,-252.0,-17.0,67.0,-2.0,1
-75.0,16.0,-253.0,-17.0,66.0,-2.0,1
-76.0,15.0,-251.0,-17.0,65.0,-1.0,1
-73.0,9.0,-253.0,-15.0,64.0,-1.0,1
-76.0,15.0,-249.0,-15.0,64.0,-1.0,1
-75.0,13.0,-255.0,-14.0,63.0,-2.0,1
-75.0,11.0,-253.0,-14.0,63.0,-1.0,1
-76.0,9.0,-252.0,-13.0,62.0,-3.0,1
-76.0,13.0,-250.0,-14.0,59.0,-2.0,1
-76.0,11.0,-251.0,-12.0,61.0,-3.0,1
-76.0,14.0,-255.0,-11.0,62.0,-2.0,1
-76.0,15.0,-251.0,-11.0,61.0,-2.0,1
-77.0,15.0,-255.0,-11.0,61.0,-2.0,1
-76.0,12.0,-253.0,-12.0,63.0,-3.0,1
-75.0,15.0,-253.0,-12.0,62.0,-3.0,1
-78.0,12.0,-252.0,-11.0,60.0,-3.0,1
-76.0,13.0,-253.0,-11.0,61.0,-2.0,1
-77.0,13.0,-252.0,-12.0,62.0,-3.0,1
-75.0,14.0,-253.0,-12.0,61.0,-2.0,1
-76.0,17.0,-256.0,-11.0,62.0,-1.0,1
-77.0,14.0,-253.0,-12.0,62.0,-1.0,1
-75.0,14.0,-253.0,-11.0,62.0,-2.0,1
-77.0,13.0,-252.0,-11.0,62.0,-1.0,1
-76.0,14.0,-254.0,-11.0,61.0,-2.0,1
-76.0,13.0,-254.0,-10.0,62.0,0.0,1
-75.0,13.0,-252.0,-9.0,62.0,-2.0,1
-76.0,12.0,-252.0,-10.0,61.0,0.0,1
-74.0,12.0,-252.0,-9.0,62.0,-2.0,1
-77.0,14.0,-254.0,-9.0,62.0,0.0,1
-76.0,12.0,-252.0,-10.0,62.0,-2.0,1
-75.0,13.0,-256.0,-8.0,62.0,0.0,1
-73.0,14.0,-255.0,-9.0,61.0,-2.0,1
-76.0,18.0,-253.0,-9.0,63.0,-1.0,1
-76.0,11.0,-250.0,-9.0,62.0,-2.0,1
-74.0,12.0,-253.0,-10.0,63.0,-1.0,1
-77.0,14.0,-251.0,-8.0,62.0,-4.0,1
-76.0,13.0,-255.0,-10.0,62.0,-1.0,1
-76.0,15.0,-252.0,-10.0,62.0,-4.0,1
-76.0,15.0,-254.0,-12.0,62.0,-2.0,1
-76.0,11.0,-251.0,-13.0,63.0,-4.0,1
-76.0,12.0,-252.0,-11.0,61.0,-1.0,1
-76.0,16.0,-253.0,-13.0,61.0,-2.0,1
-75.0,11.0,-253.0,-13.0,61.0,-2.0,1
-76.0,12.0,-253.0,-12.0,63.0,-1.0,1
-76.0,15.0,-250.0,-12.0,62.0,0.0,1
-75.0,14.0,-253.0,-12.0,62.0,-2.0,1
-74.0,11.0,-250.0,-12.0,60.0,-1.0,1
-77.0,13.0,-255.0,-11.0,61.0,-3.0,1
-77.0,11.0,-253.0,-12.0,61.0,-2.0,1
-77.0,17.0,-253.0,-14.0,60.0,-5.0,1
-77.0,12.0,-256.0,-13.0,62.0,-1.0,1
-75.0,12.0,-255.0,-15.0,61.0,-3.0,1
-77.0,16.0,-252.0,-14.0,61.0,-2.0,1
-72.0,18.0,-254.0,-15.0,62.0,-4.0,1
-74.0,11.0,-253.0,-16.0,61.0,-3.0,1
-74.0,14.0,-254.0,-17.0,62.0,-3.0,1
-77.0,12.0,-253.0,-16.0,63.0,-2.0,1
-76.0,16.0,-250.0,-16.0,63.0,-3.0,1
-76.0,13.0,-252.0,-15.0,62.0,-1.0,1
-76.0,12.0,-253.0,-16.0,63.0,-2.0,1
-77.0,13.0,-252.0,-16.0,63.0,-1.0,1
-76.0,14.0,-255.0,-16.0,62.0,-2.0,1
-74.0,12.0,-254.0,-16.0,62.0,0.0,1
-76.0,15.0,-251.0,-17.0,60.0,-3.0,1
-76.0,15.0,-252.0,-15.0,61.0,-1.0,1
-76.0,12.0,-252.0,-16.0,62.0,-3.0,1
-75.0,13.0,-253.0,-14.0,62.0,-1.0,1
-75.0,14.0,-253.0,-14.0,61.0,-4.0,1
-77.0,14.0,-255.0,-14.0,62.0,-1.0,1
-76.0,11.0,-251.0,-16.0,63.0,-2.0,1
-78.0,13.0,-251.0,-15.0,62.0,-1.0,1
-77.0,14.0,-252.0,-15.0,63.0,-4.0,1
-75.0,10.0,-254.0,-14.0,62.0,0.0,1
-77.0,14.0,-250.0,-13.0,62.0,-2.0,1
-74.0,17.0,-252.0,-15.0,62.0,0.0,1
-76.0,14.0,-253.0,-15.0,61.0,-2.0,1
-76.0,13.0,-253.0,-15.0,60.0,0.0,1
-76.0,12.0,-251.0,-16.0,60.0,-3.0,1
-74.0,14.0,-252.0,-16.0,61.0,0.0,1
-75.0,12.0,-253.0,-15.0,61.0,-2.0,1
-77.0,13.0,-249.0,-17.0,62.0,0.0,1
-74.0,11.0,-253.0,-17.0,63.0,-2.0,1
-76.0,17.0,-256.0,-17.0,63.0,0.0,1
-75.0,14.0,-250.0,-17.0,63.0,-2.0,1
-75.0,12.0,-254.0,-17.0,62.0,0.0,1
-76.0,14.0,-257.0,-15.0,63.0,-2.0,1
-76.0,12.0,-253.0,-15.0,63.0,-1.0,1
-77.0,14.0,-254.0,-15.0,64.0,-3.0,1
-75.0,14.0,-248.0,-15.0,63.0,0.0,1
-77.0,15.0,-255.0,-14.0,64.0,-2.0,1
-76.0,13.0,-251.0,-14.0,63.0,1.0,1
-76.0,14.0,-251.0,-15.0,63.0,-3.0,1
-77.0,15.0,-253.0,-13.0,63.0,-1.0,1
-75.0,14.0,-256.0,-14.0,64.0,-3.0,1
-75.0,14.0,-252.0,-14.0,64.0,-1.0,1
-76.0,12.0,-252.0,-14.0,63.0,-2.0,1
-74.0,13.0,-251.0,-13.0,63.0,-1.0,1
-77.0,17.0,-249.0,-16.0,62.0,-5.0,1
-72.0,14.0,-251.0,-16.0,62.0,-2.0,1
-77.0,14.0,-249.0,-14.0,61.0,-3.0,1
-74.0,11.0,-251.0,-15.0,63.0,0.0,1
-75.0,13.0,-251.0,-14.0,64.0,-2.0,1
-75.0,12.0,-250.0,-14.0,63.0,0.0,1
-78.0,12.0,-251.0,-15.0,63.0,-2.0,1
-78.0,15.0,-253.0,-13.0,63.0,-2.0,1
-75.0,16.0,-252.0,-13.0,62.0,-4.0,1
-74.0,13.0,-254.0,-13.0,63.0,-2.0,1
-75.0,15.0,-250.0,-13.0,63.0,-5.0,1
-79.0,18.0,-253.0,-13.0,62.0,-1.0,1
-76.0,15.0,-253.0,-14.0,64.0,-3.0,1
-76.0,13.0,-251.0,-13.0,63.0,-1.0,1
-76.0,14.0,-250.0,-13.0,63.0,-3.0,1
-76.0,12.0,-254.0,-12.0,64.0,-3.0,1
-76.0,13.0,-255.0,-12.0,64.0,-3.0,1
-77.0,15.0,-253.0,-12.0,61.0,-1.0,1
-76.0,13.0,-252.0,-12.0,63.0,-2.0,1
-75.0,13.0,-251.0,-12.0,62.0,-2.0,1
-75.0,13.0,-253.0,-11.0,62.0,-4.0,1
-75.0,12.0,-254.0,-12.0,60.0,-2.0,1
-77.0,6.0,-249.0,-13.0,61.0,-4.0,1
-76.0,18.0,-244.0,-13.0,60.0,-1.0,1
-70.0,17.0,-237.0,-13.0,58.0,-1.0,1
-75.0,15.0,-250.0,-13.0,59.0,0.0,1
