ax,ay,az,gx,gy,gz,label
12.0,-244.0,-42.0,45.0,16.0,-9.0,1
17.0,-247.0,-40.0,48.0,17.0,-7.0,1
13.0,-242.0,-43.0,52.0,17.0,-6.0,1
13.0,-240.0,-42.0,52.0,18.0,-5.0,1
13.0,-244.0,-40.0,52.0,19.0,-6.0,1
10.0,-243.0,-41.0,49.0,17.0,-5.0,1
11.0,-242.0,-40.0,46.0,16.0,-4.0,1
10.0,-244.0,-40.0,41.0,15.0,-5.0,1
14.0,-246.0,-38.0,39.0,15.0,-5.0,1
12.0,-244.0,-41.0,36.0,15.0,-6.0,1
11.0,-245.0,-44.0,34.0,15.0,-6.0,1
8.0,-246.0,-40.0,35.0,13.0,-5.0,1
11.0,-244.0,-40.0,34.0,15.0,-6.0,1
10.0,-244.0,-36.0,32.0,16.0,-6.0,1
11.0,-245.0,-42.0,32.0,14.0,-7.0,1
10.0,-245.0,-42.0,32.0,14.0,-5.0,1
12.0,-245.0,-38.0,35.0,15.0,-5.0,1
12.0,-246.0,-37.0,38.0,13.0,-6.0,1
14.0,-246.0,-40.0,42.0,14.0,-5.0,1
12.0,-247.0,-41.0,44.0,14.0,-6.0,1
12.0,-243.0,-40.0,48.0,14.0,-6.0,1
14.0,-246.0,-40.0,48.0,13.0,-6.0,1
12.0,-245.0,-39.0,48.0,14.0,-5.0,1
8.0,-244.0,-39.0,48.0,15.0,-8.0,1
10.0,-246.0,-43.0,49.0,15.0,-7.0,1
9.0,-245.0,-40.0,48.0,16.0,-8.0,1
12.0,-246.0,-43.0,49.0,14.0,-8.0,1
8.0,-247.0,-41.0,50.0,14.0,-8.0,1
5.0,-246.0,-34.0,52.0,12.0,-10.0,1
9.0,-246.0,-40.0,55.0,10.0,-10.0,1
7.0,-246.0,-38.0,55.0,10.0,-9.0,1
10.0,-246.0,-42.0,54.0,9.0,-8.0,1
7.0,-244.0,-43.0,51.0,6.0,-7.0,1
10.0,-247.0,-40.0,49.0,4.0,-10.0,1
11.0,-240.0,-40.0,46.0,1.0,-9.0,1
14.0,-245.0,-40.0,45.0,1.0,-10.0,1
11.0,-245.0,-40.0,43.0,0.0,-10.0,1
10.0,-242.0,-41.0,43.0,0.0,-10.0,1
10.0,-244.0,-41.0,43.0,-1.0,-10.0,1
12.0,-245.0,-41.0,44.0,-2.0,-10.0,1
10.0,-243.0,-37.0,44.0,-1.0,-11.0,1
14.0,-243.0,-40.0,45.0,0.0,-10.0,1
14.0,-248.0,-42.0,46.0,0.0,-11.0,1
12.0,-245.0,-40.0,48.0,1.0,-11.0,1
12.0,-246.0,-42.0,48.0,2.0,-10.0,1
11.0,-243.0,-39.0,50.0,1.0,-11.0,1
13.0,-243.0,-42.0,51.0,1.0,-11.0,1
9.0,-243.0,-40.0,51.0,2.0,-11.0,1
13.0,-243.0,-41.0,51.0,2.0,-11.0,1
12.0,-246.0,-42.0,49.0,1.0,-13.0,1
11.0,-248.0,-40.0,48.0,1.0,-13.0,1
19.0,-241.0,-39.0,46.0,1.0,-13.0,1
14.0,-246.0,-41.0,45.0,2.0,-13.0,1
13.0,-244.0,-41.0,44.0,3.0,-13.0,1
12.0,-245.0,-39.0,42.0,4.0,-13.0,1
15.0,-246.0,-44.0,43.0,3.0,-13.0,1
13.0,-245.0,-46.0,44.0,4.0,-12.0,1
15.0,-248.0,-41.0,46.0,3.0,-14.0,1
11.0,-243.0,-42.0,46.0,5.0,-13.0,1
15.0,-245.0,-41.0,49.0,7.0,-13.0,1
14.0,-240.0,-41.0,51.0,8.0,-12.0,1
11.0,-247.0,-44.0,51.0,10.0,-11.0,1
13.0,-245.0,-44.0,51.0,11.0,-12.0,1
13.0,-241.0,-43.0,52.0,11.0,-11.0,1
13.0,-246.0,-38.0,50.0,11.0,-12.0,1
12.0,-243.0,-43.0,52.0,11.0,-12.0,1
14.0,-245.0,-45.0,51.0,11.0,-12.0,1
12.0,-243.0,-41.0,53.0,13.0,-13.0,1
12.0,-244.0,-42.0,51.0,14.0,-13.0,1
14.0,-244.0,-45.0,52.0,15.0,-12.0,1
12.0,-246.0,-41.0,53.0,17.0,-12.0,1
11.0,-245.0,-40.0,53.0,16.0,-11.0,1
10.0,-246.0,-43.0,52.0,17.0,-9.0,1
13.0,-243.0,-39.0,54.0,18.0,-9.0,1
10.0,-244.0,-42.0,55.0,19.0,-12.0,1
11.0,-246.0,-44.0,56.0,18.0,-11.0,1
12.0,-243.0,-43.0,57.0,19.0,-10.0,1
11.0,-247.0,-42.0,58.0,18.0,-11.0,1
11.0,-244.0,-38.0,59.0,18.0,-11.0,1
11.0,-242.0,-41.0,59.0,20.0,-10.0,1
12.0,-242.0,-40.0,58.0,19.0,-10.0,1
11.0,-243.0,-41.0,57.0,19.0,-9.0,1
12.0,-246.0,-43.0,58.0,21.0,-10.0,1
10.0,-243.0,-41.0,56.0,18.0,-9.0,1
11.0,-246.0,-44.0,57.0,20.0,-11.0,1
11.0,-243.0,-46.0,57.0,19.0,-9.0,1
10.0,-243.0,-41.0,55.0,18.0,-12.0,1
9.0,-246.0,-43.0,55.0,17.0,-11.0,1
11.0,-244.0,-40.0,55.0,16.0,-11.0,1
12.0,-244.0,-39.0,55.0,15.0,-11.0,1
16.0,-245.0,-41.0,55.0,16.0,-14.0,1
12.0,-247.0,-37.0,55.0,17.0,-13.0,1
12.0,-246.0,-40.0,57.0,17.0,-13.0,1
12.0,-246.0,-42.0,59.0,16.0,-13.0,1
10.0,-245.0,-28.0,58.0,15.0,-13.0,1
10.0,-239.0,-41.0,57.0,15.0,-13.0,1
11.0,-245.0,-38.0,56.0,15.0,-14.0,1
9.0,-244.0,-38.0,54.0,14.0,-13.0,1
10.0,-245.0,-43.0,52.0,13.0,-13.0,1
11.0,-245.0,-39.0,50.0,13.0,-11.0,1
10.0,-243.0,-40.0,50.0,13.0,-12.0,1
9.0,-241.0,-44.0,48.0,13.0,-12.0,1
12.0,-245.0,-39.0,44.0,12.0,-14.0,1
12.0,-244.0,-42.0,42.0,11.0,-13.0,1
11.0,-247.0,-32.0,43.0,10.0,-13.0,1
12.0,-243.0,-41.0,39.0,10.0,-14.0,1
10.0,-243.0,-37.0,40.0,10.0,-13.0,1
11.0,-243.0,-41.0,38.0,11.0,-13.0,1
10.0,-245.0,-41.0,38.0,10.0,-15.0,1
13.0,-247.0,-38.0,38.0,10.0,-13.0,1
13.0,-244.0,-41.0,38.0,9.0,-12.0,1
10.0,-244.0,-40.0,36.0,10.0,-12.0,1
10.0,-246.0,-43.0,36.0,9.0,-14.0,1
11.0,-248.0,-45.0,34.0,7.0,-13.0,1
11.0,-248.0,-40.0,34.0,6.0,-10.0,1
9.0,-247.0,-38.0,36.0,5.0,-10.0,1
13.0,-247.0,-43.0,37.0,4.0,-10.0,1
10.0,-244.0,-38.0,37.0,5.0,-12.0,1
15.0,-245.0,-41.0,38.0,5.0,-11.0,1
14.0,-248.0,-42.0,39.0,5.0,-10.0,1
14.0,-245.0,-37.0,41.0,5.0,-9.0,1
10.0,-246.0,-40.0,41.0,4.0,-9.0,1
13.0,-246.0,-39.0,43.0,4.0,-9.0,1
9.0,-243.0,-40.0,44.0,5.0,-8.0,1
11.0,-244.0,-42.0,45.0,5.0,-7.0,1
12.0,-242.0,-39.0,44.0,4.0,-7.0,1
12.0,-245.0,-39.0,41.0,3.0,-7.0,1
12.0,-243.0,-42.0,38.0,4.0,-8.0,1
12.0,-245.0,-40.0,36.0,3.0,-9.0,1
9.0,-243.0,-42.0,34.0,3.0,-8.0,1
12.0,-247.0,-41.0,33.0,3.0,-9.0,1
12.0,-246.0,-42.0,32.0,4.0,-12.0,1
12.0,-243.0,-39.0,30.0,5.0,-12.0,1
10.0,-246.0,-39.0,27.0,7.0,-14.0,1
11.0,-247.0,-41.0,28.0,6.0,-13.0,1
12.0,-243.0,-40.0,31.0,6.0,-12.0,1
12.0,-246.0,-42.0,37.0,4.0,-12.0,1
11.0,-243.0,-39.0,42.0,6.0,-12.0,1
10.0,-245.0,-40.0,46.0,6.0,-11.0,1
14.0,-246.0,-43.0,47.0,6.0,-11.0,1
11.0,-246.0,-44.0,49.0,6.0,-11.0,1
13.0,-243.0,-41.0,47.0,5.0,-11.0,1
10.0,-245.0,-45.0,49.0,7.0,-11.0,1
12.0,-246.0,-43.0,51.0,9.0,-13.0,1
14.0,-245.0,-48.0,51.0,10.0,-12.0,1
10.0,-247.0,-45.0,49.0,11.0,-13.0,1
11.0,-246.0,-38.0,49.0,11.0,-14.0,1
12.0,-244.0,-43.0,50.0,10.0,-15.0,1
13.0,-244.0,-40.0,51.0,10.0,-15.0,1
11.0,-247.0,-41.0,52.0,11.0,-14.0,1
9.0,-241.0,-40.0,52.0,12.0,-13.0,1
13.0,-245.0,-37.0,50.0,12.0,-14.0,1
9.0,-244.0,-37.0,46.0,10.0,-14.0,1
10.0,-243.0,-44.0,45.0,9.0,-15.0,1
11.0,-244.0,-45.0,42.0,8.0,-15.0,1
12.0,-245.0,-43.0,39.0,8.0,-14.0,1
13.0,-244.0,-40.0,39.0,9.0,-14.0,1
15.0,-245.0,-43.0,38.0,9.0,-13.0,1
20.0,-238.0,-41.0,37.0,10.0,-13.0,1
16.0,-247.0,-46.0,38.0,11.0,-12.0,1
14.0,-242.0,-43.0,39.0,12.0,-12.0,1
12.0,-247.0,-35.0,39.0,13.0,-13.0,1
14.0,-246.0,-42.0,38.0,13.0,-12.0,1
16.0,-245.0,-42.0,39.0,13.0,-11.0,1
13.0,-244.0,-42.0,40.0,15.0,-12.0,1
12.0,-247.0,-48.0,44.0,18.0,-14.0,1
11.0,-244.0,-47.0,47.0,19.0,-14.0,1
16.0,-245.0,-40.0,48.0,20.0,-14.0,1
15.0,-247.0,-43.0,49.0,21.0,-14.0,1
14.0,-247.0,-44.0,49.0,21.0,-13.0,1
13.0,-245.0,-44.0,49.0,22.0,-14.0,1
15.0,-246.0,-42.0,48.0,24.0,-14.0,1
15.0,-249.0,-43.0,51.0,28.0,-13.0,1
13.0,-245.0,-44.0,52.0,31.0,-13.0,1
17.0,-248.0,-45.0,56.0,34.0,-14.0,1
16.0,-249.0,-46.0,58.0,35.0,-15.0,1
15.0,-248.0,-40.0,59.0,37.0,-15.0,1
15.0,-248.0,-46.0,61.0,38.0,-14.0,1
14.0,-248.0,-44.0,63.0,40.0,-15.0,1
17.0,-250.0,-47.0,65.0,40.0,-14.0,1
17.0,-245.0,-45.0,65.0,42.0,-15.0,1
14.0,-246.0,-46.0,69.0,44.0,-13.0,1
18.0,-251.0,-44.0,73.0,47.0,-14.0,1
14.0,-245.0,-45.0,77.0,51.0,-14.0,1
16.0,-249.0,-45.0,81.0,53.0,-13.0,1
14.0,-246.0,-47.0,82.0,56.0,-14.0,1
19.0,-254.0,-47.0,83.0,57.0,-15.0,1
20.0,-249.0,-46.0,84.0,59.0,-16.0,1
17.0,-250.0,-46.0,88.0,60.0,-18.0,1
18.0,-247.0,-46.0,93.0,63.0,-20.0,1
17.0,-248.0,-44.0,99.0,65.0,-21.0,1
15.0,-249.0,-50.0,103.0,68.0,-22.0,1
16.0,-243.0,-52.0,106.0,70.0,-22.0,1
18.0,-248.0,-45.0,105.0,70.0,-22.0,1
15.0,-245.0,-46.0,107.0,72.0,-22.0,1
15.0,-242.0,-48.0,105.0,74.0,-23.0,1
14.0,-244.0,-45.0,103.0,75.0,-23.0,1
12.0,-247.0,-51.0,103.0,74.0,-26.0,1
15.0,-245.0,-49.0,103.0,70.0,-26.0,1
16.0,-249.0,-51.0,105.0,64.0,-27.0,1
15.0,-244.0,-49.0,104.0,61.0,-28.0,1
15.0,-244.0,-49.0,102.0,56.0,-28.0,1
15.0,-245.0,-47.0,98.0,55.0,-27.0,1
16.0,-242.0,-48.0,95.0,57.0,-26.0,1
15.0,-241.0,-45.0,92.0,64.0,-27.0,1
19.0,-246.0,-47.0,89.0,69.0,-27.0,1
16.0,-241.0,-44.0,91.0,72.0,-27.0,1
19.0,-245.0,-40.0,89.0,75.0,-29.0,1
19.0,-240.0,-45.0,90.0,79.0,-28.0,1
16.0,-237.0,-46.0,88.0,83.0,-27.0,1
17.0,-238.0,-48.0,84.0,84.0,-26.0,1
32.0,-243.0,-36.0,77.0,87.0,-24.0,1
20.0,-241.0,-46.0,70.0,90.0,-22.0,1
19.0,-239.0,-42.0,62.0,94.0,-20.0,1
18.0,-241.0,-43.0,55.0,97.0,-19.0,1
21.0,-244.0,-43.0,48.0,98.0,-20.0,1
24.0,-245.0,-42.0,43.0,101.0,-18.0,1
23.0,-241.0,-48.0,37.0,103.0,-19.0,1
27.0,-244.0,-47.0,33.0,105.0,-19.0,1
20.0,-244.0,-58.0,26.0,109.0,-22.0,1
28.0,-250.0,-22.0,21.0,116.0,-22.0,1
23.0,-242.0,-36.0,18.0,124.0,-23.0,1
29.0,-242.0,-47.0,14.0,132.0,-25.0,1
26.0,-242.0,-48.0,10.0,137.0,-28.0,1
29.0,-243.0,-47.0,3.0,144.0,-32.0,1
26.0,-244.0,-49.0,-5.0,151.0,-38.0,1
27.0,-244.0,-51.0,-17.0,159.0,-43.0,1
27.0,-244.0,-54.0,-27.0,163.0,-48.0,1
24.0,-244.0,-46.0,-36.0,166.0,-50.0,1
20.0,-245.0,-51.0,-45.0,169.0,-53.0,1
16.0,-242.0,-49.0,-53.0,169.0,-57.0,1
17.0,-245.0,-42.0,-61.0,168.0,-58.0,1
16.0,-244.0,-44.0,-67.0,166.0,-59.0,1
14.0,-246.0,-45.0,-74.0,164.0,-62.0,1
13.0,-247.0,-44.0,-77.0,162.0,-67.0,1
8.0,-249.0,-46.0,-78.0,158.0,-73.0,1
9.0,-249.0,-44.0,-74.0,153.0,-76.0,1
9.0,-251.0,-44.0,-67.0,147.0,-77.0,1
6.0,-249.0,-40.0,-59.0,139.0,-76.0,1
2.0,-247.0,-40.0,-47.0,133.0,-72.0,1
3.0,-249.0,-40.0,-29.0,125.0,-64.0,1
0.0,-248.0,-33.0,-11.0,116.0,-54.0,1
0.0,-243.0,-32.0,10.0,100.0,-40.0,1
-7.0,-241.0,-34.0,28.0,84.0,-27.0,1
-6.0,-239.0,-27.0,44.0,69.0,-11.0,1
-12.0,-235.0,-33.0,59.0,51.0,6.0,1
-10.0,-231.0,-28.0,70.0,31.0,24.0,1
-12.0,-235.0,-26.0,76.0,11.0,41.0,1
-4.0,-231.0,-28.0,76.0,-10.0,55.0,1
-3.0,-232.0,-29.0,69.0,-30.0,64.0,1
0.0,-233.0,-33.0,57.0,-48.0,67.0,1
1.0,-234.0,-34.0,40.0,-65.0,69.0,1
2.0,-235.0,-33.0,25.0,-78.0,68.0,1
6.0,-237.0,-34.0,16.0,-89.0,69.0,1
8.0,-236.0,-33.0,12.0,-97.0,72.0,1
15.0,-241.0,-35.0,12.0,-106.0,75.0,1
17.0,-243.0,-34.0,12.0,-111.0,80.0,1
17.0,-241.0,-39.0,10.0,-113.0,83.0,1
20.0,-243.0,-36.0,10.0,-113.0,83.0,1
22.0,-247.0,-39.0,12.0,-114.0,82.0,1
25.0,-247.0,-43.0,14.0,-110.0,81.0,1
27.0,-248.0,-44.0,20.0,-104.0,84.0,1
29.0,-249.0,-41.0,29.0,-95.0,81.0,1
30.0,-249.0,-43.0,38.0,-88.0,83.0,1
26.0,-250.0,-42.0,46.0,-84.0,82.0,1
12.0,-253.0,-39.0,54.0,-81.0,81.0,1
27.0,-249.0,-41.0,62.0,-80.0,82.0,1
18.0,-245.0,-44.0,71.0,-76.0,81.0,1
18.0,-242.0,-45.0,79.0,-73.0,81.0,1
19.0,-242.0,-53.0,86.0,-71.0,83.0,1
17.0,-241.0,-49.0,93.0,-67.0,81.0,1
17.0,-237.0,-52.0,93.0,-64.0,78.0,1
15.0,-235.0,-55.0,89.0,-60.0,76.0,1
14.0,-235.0,-51.0,83.0,-55.0,74.0,1
12.0,-233.0,-51.0,74.0,-53.0,70.0,1
9.0,-235.0,-51.0,62.0,-56.0,66.0,1
9.0,-235.0,-53.0,51.0,-64.0,61.0,1
8.0,-235.0,-52.0,38.0,-73.0,58.0,1
8.0,-233.0,-54.0,28.0,-81.0,58.0,1
8.0,-237.0,-54.0,23.0,-85.0,55.0,1
8.0,-236.0,-56.0,20.0,-90.0,54.0,1
8.0,-232.0,-55.0,22.0,-97.0,52.0,1
12.0,-235.0,-60.0,22.0,-104.0,51.0,1
11.0,-235.0,-58.0,23.0,-109.0,51.0,1
15.0,-234.0,-58.0,27.0,-109.0,51.0,1
16.0,-230.0,-60.0,27.0,-108.0,48.0,1
16.0,-233.0,-55.0,26.0,-108.0,45.0,1
15.0,-230.0,-53.0,21.0,-108.0,40.0,1
20.0,-229.0,-52.0,14.0,-110.0,36.0,1
18.0,-228.0,-55.0,4.0,-112.0,31.0,1
15.0,-227.0,-50.0,-10.0,-111.0,22.0,1
16.0,-229.0,-49.0,-24.0,-108.0,15.0,1
17.0,-231.0,-51.0,-38.0,-110.0,7.0,1
16.0,-230.0,-47.0,-54.0,-112.0,-5.0,1
19.0,-233.0,-51.0,-66.0,-115.0,-16.0,1
15.0,-231.0,-51.0,-77.0,-114.0,-28.0,1
16.0,-236.0,-48.0,-81.0,-112.0,-39.0,1
17.0,-236.0,-52.0,-77.0,-107.0,-48.0,1
11.0,-238.0,-51.0,-70.0,-107.0,-55.0,1
13.0,-239.0,-60.0,-64.0,-112.0,-65.0,1
10.0,-237.0,-60.0,-60.0,-119.0,-75.0,1
14.0,-237.0,-58.0,-58.0,-126.0,-81.0,1
10.0,-237.0,-58.0,-59.0,-128.0,-85.0,1
8.0,-243.0,-55.0,-63.0,-129.0,-88.0,1
6.0,-240.0,-61.0,-69.0,-134.0,-92.0,1
3.0,-240.0,-59.0,-74.0,-145.0,-91.0,1
3.0,-241.0,-59.0,-78.0,-157.0,-90.0,1
1.0,-240.0,-58.0,-81.0,-166.0,-87.0,1
0.0,-241.0,-55.0,-84.0,-171.0,-85.0,1
3.0,-247.0,-57.0,-87.0,-176.0,-86.0,1
0.0,-244.0,-57.0,-92.0,-183.0,-89.0,1
2.0,-244.0,-57.0,-101.0,-193.0,-92.0,1
4.0,-244.0,-56.0,-112.0,-205.0,-93.0,1
0.0,-244.0,-58.0,-123.0,-214.0,-92.0,1
3.0,-245.0,-61.0,-133.0,-222.0,-90.0,1
2.0,-246.0,-61.0,-141.0,-229.0,-87.0,1
0.0,-247.0,-60.0,-145.0,-232.0,-79.0,1
2.0,-250.0,-62.0,-146.0,-235.0,-70.0,1
0.0,-248.0,-56.0,-142.0,-242.0,-61.0,1
1.0,-248.0,-55.0,-139.0,-253.0,-55.0,1
2.0,-253.0,-57.0,-138.0,-265.0,-48.0,1
2.0,-251.0,-56.0,-137.0,-274.0,-38.0,1
1.0,-252.0,-51.0,-130.0,-283.0,-30.0,1
-2.0,-250.0,-51.0,-121.0,-291.0,-22.0,1
-3.0,-252.0,-48.0,-108.0,-303.0,-13.0,1
-1.0,-252.0,-50.0,-93.0,-314.0,0.0,1
-2.0,-253.0,-46.0,-79.0,-324.0,8.0,1
-4.0,-252.0,-44.0,-65.0,-329.0,13.0,1
-3.0,-252.0,-39.0,-54.0,-335.0,15.0,1
-6.0,-253.0,-41.0,-45.0,-341.0,17.0,1
-3.0,-253.0,-43.0,-39.0,-347.0,13.0,1
-7.0,-251.0,-47.0,-33.0,-354.0,7.0,1
-3.0,-253.0,-46.0,-35.0,-366.0,0.0,1
-4.0,-255.0,-46.0,-33.0,-373.0,-8.0,1
-3.0,-255.0,-46.0,-17.0,-374.0,-10.0,1
-1.0,-257.0,-49.0,4.0,-369.0,-15.0,1
-3.0,-258.0,-46.0,21.0,-367.0,-18.0,1
0.0,-256.0,-53.0,36.0,-364.0,-21.0,1
-1.0,-255.0,-50.0,53.0,-359.0,-24.0,1
-3.0,-254.0,-46.0,67.0,-353.0,-22.0,1
0.0,-250.0,-50.0,78.0,-345.0,-20.0,1
0.0,-249.0,-50.0,90.0,-339.0,-15.0,1
0.0,-246.0,-50.0,94.0,-334.0,-12.0,1
2.0,-242.0,-50.0,99.0,-326.0,-8.0,1
4.0,-241.0,-49.0,100.0,-318.0,-8.0,1
6.0,-238.0,-54.0,98.0,-309.0,-10.0,1
3.0,-236.0,-50.0,93.0,-302.0,-14.0,1
4.0,-235.0,-49.0,86.0,-291.0,-17.0,1
5.0,-234.0,-54.0,72.0,-278.0,-18.0,1
4.0,-236.0,-46.0,41.0,-265.0,-17.0,1
6.0,-238.0,-47.0,15.0,-250.0,-18.0,1
5.0,-239.0,-50.0,-2.0,-235.0,-20.0,1
2.0,-237.0,-44.0,-10.0,-220.0,-20.0,1
4.0,-240.0,-47.0,-8.0,-206.0,-20.0,1
4.0,-245.0,-46.0,-4.0,-195.0,-20.0,1
6.0,-246.0,-49.0,0.0,-184.0,-20.0,1
7.0,-246.0,-51.0,7.0,-170.0,-21.0,1
4.0,-249.0,-46.0,13.0,-152.0,-22.0,1
3.0,-250.0,-53.0,16.0,-139.0,-24.0,1
2.0,-250.0,-54.0,19.0,-128.0,-27.0,1
1.0,-249.0,-56.0,18.0,-117.0,-27.0,1
0.0,-247.0,-53.0,15.0,-104.0,-24.0,1
2.0,-248.0,-72.0,9.0,-90.0,-20.0,1
2.0,-251.0,-55.0,0.0,-76.0,-11.0,1
0.0,-245.0,-51.0,-7.0,-61.0,0.0,1
0.0,-247.0,-53.0,-11.0,-47.0,9.0,1
1.0,-247.0,-53.0,-13.0,-34.0,18.0,1
2.0,-244.0,-57.0,-14.0,-22.0,23.0,1
1.0,-242.0,-56.0,-18.0,-17.0,31.0,1
4.0,-247.0,-54.0,-18.0,-10.0,32.0,1
2.0,-239.0,-51.0,-17.0,-2.0,31.0,1
2.0,-243.0,-54.0,-12.0,4.0,25.0,1
0.0,-242.0,-54.0,-6.0,7.0,19.0,1
-3.0,-239.0,-55.0,-1.0,6.0,16.0,1
-6.0,-235.0,-58.0,0.0,7.0,8.0,1
-9.0,-237.0,-56.0,-3.0,9.0,1.0,1
-11.0,-234.0,-56.0,-11.0,10.0,-7.0,1
-11.0,-232.0,-59.0,-22.0,9.0,-14.0,1
-12.0,-232.0,-58.0,-38.0,8.0,-22.0,1
-14.0,-230.0,-62.0,-55.0,7.0,-33.0,1
-15.0,-228.0,-60.0,-75.0,6.0,-39.0,1
-16.0,-230.0,-62.0,-96.0,7.0,-36.0,1
-14.0,-229.0,-62.0,-115.0,9.0,-27.0,1
-14.0,-232.0,-62.0,-135.0,9.0,-21.0,1
-6.0,-234.0,-60.0,-152.0,7.0,-18.0,1
-9.0,-235.0,-59.0,-165.0,3.0,-13.0,1
-4.0,-238.0,-63.0,-175.0,4.0,-8.0,1
-6.0,-238.0,-65.0,-182.0,7.0,-3.0,1
0.0,-239.0,-63.0,-184.0,10.0,2.0,1
6.0,-247.0,-62.0,-186.0,14.0,8.0,1
2.0,-245.0,-61.0,-182.0,21.0,15.0,1
1.0,-247.0,-60.0,-172.0,27.0,20.0,1
8.0,-249.0,-60.0,-159.0,34.0,25.0,1
5.0,-246.0,-62.0,-149.0,42.0,31.0,1
3.0,-246.0,-60.0,-138.0,48.0,30.0,1
4.0,-246.0,-57.0,-127.0,55.0,29.0,1
2.0,-244.0,-50.0,-116.0,63.0,23.0,1
4.0,-246.0,-52.0,-103.0,71.0,15.0,1
0.0,-244.0,-54.0,-91.0,74.0,7.0,1
0.0,-243.0,-54.0,-80.0,79.0,0.0,1
-3.0,-242.0,-54.0,-69.0,84.0,-14.0,1
-3.0,-243.0,-60.0,-60.0,91.0,-29.0,1
-8.0,-238.0,-61.0,-51.0,101.0,-49.0,1
-8.0,-237.0,-61.0,-42.0,109.0,-62.0,1
-9.0,-234.0,-63.0,-34.0,119.0,-68.0,1
-11.0,-232.0,-65.0,-29.0,127.0,-70.0,1
-6.0,-234.0,-67.0,-26.0,133.0,-70.0,1
-7.0,-234.0,-67.0,-28.0,140.0,-68.0,1
-8.0,-232.0,-67.0,-36.0,146.0,-69.0,1
-11.0,-231.0,-70.0,-49.0,152.0,-71.0,1
-8.0,-236.0,-69.0,-64.0,156.0,-69.0,1
-7.0,-239.0,-72.0,-81.0,159.0,-68.0,1
-6.0,-243.0,-71.0,-96.0,160.0,-63.0,1
-1.0,-245.0,-71.0,-108.0,160.0,-54.0,1
0.0,-248.0,-70.0,-114.0,163.0,-43.0,1
1.0,-252.0,-70.0,-110.0,166.0,-28.0,1
0.0,-254.0,-65.0,-101.0,165.0,-13.0,1
0.0,-256.0,-60.0,-93.0,160.0,6.0,1
0.0,-256.0,-67.0,-86.0,149.0,22.0,1
0.0,-256.0,-71.0,-85.0,140.0,39.0,1
0.0,-258.0,-72.0,-82.0,135.0,54.0,1
0.0,-263.0,-72.0,-73.0,129.0,63.0,1
0.0,-263.0,-69.0,-55.0,126.0,68.0,1
0.0,-263.0,-68.0,-25.0,120.0,66.0,1
-3.0,-258.0,-64.0,15.0,110.0,63.0,1
-2.0,-257.0,-59.0,59.0,97.0,58.0,1
1.0,-253.0,-62.0,102.0,87.0,56.0,1
5.0,-247.0,-61.0,138.0,85.0,49.0,1
11.0,-243.0,-63.0,165.0,90.0,41.0,1
16.0,-238.0,-55.0,183.0,97.0,33.0,1
14.0,-230.0,-58.0,196.0,103.0,22.0,1
17.0,-229.0,-61.0,204.0,109.0,10.0,1
21.0,-223.0,-61.0,205.0,120.0,-1.0,1
25.0,-224.0,-62.0,201.0,131.0,-14.0,1
25.0,-222.0,-65.0,190.0,147.0,-26.0,1
21.0,-214.0,-63.0,170.0,158.0,-37.0,1
21.0,-215.0,-64.0,144.0,167.0,-45.0,1
23.0,-216.0,-65.0,117.0,175.0,-52.0,1
19.0,-215.0,-59.0,90.0,183.0,-61.0,1
19.0,-216.0,-61.0,68.0,192.0,-65.0,1
21.0,-218.0,-60.0,47.0,198.0,-67.0,1
21.0,-220.0,-63.0,28.0,199.0,-65.0,1
23.0,-223.0,-62.0,12.0,201.0,-64.0,1
21.0,-221.0,-62.0,-1.0,204.0,-63.0,1
23.0,-227.0,-60.0,-15.0,205.0,-65.0,1
21.0,-227.0,-63.0,-25.0,202.0,-68.0,1
19.0,-231.0,-62.0,-34.0,197.0,-72.0,1
16.0,-230.0,-60.0,-43.0,192.0,-79.0,1
16.0,-233.0,-63.0,-49.0,186.0,-86.0,1
14.0,-222.0,-65.0,-52.0,179.0,-91.0,1
10.0,-233.0,-63.0,-55.0,173.0,-97.0,1
10.0,-236.0,-61.0,-55.0,164.0,-100.0,1
8.0,-244.0,-64.0,-56.0,157.0,-101.0,1
7.0,-239.0,-65.0,-59.0,153.0,-100.0,1
6.0,-241.0,-64.0,-60.0,150.0,-98.0,1
7.0,-242.0,-70.0,-60.0,145.0,-94.0,1
3.0,-244.0,-70.0,-56.0,140.0,-90.0,1
4.0,-248.0,-68.0,-50.0,132.0,-83.0,1
5.0,-251.0,-67.0,-41.0,124.0,-74.0,1
5.0,-255.0,-69.0,-25.0,116.0,-64.0,1
6.0,-251.0,-64.0,-3.0,107.0,-55.0,1
7.0,-253.0,-66.0,26.0,95.0,-53.0,1
7.0,-253.0,-68.0,58.0,85.0,-48.0,1
10.0,-251.0,-66.0,91.0,74.0,-47.0,1
10.0,-248.0,-64.0,123.0,66.0,-47.0,1
10.0,-245.0,-64.0,153.0,58.0,-48.0,1
6.0,-240.0,-63.0,179.0,48.0,-51.0,1
10.0,-234.0,-61.0,200.0,40.0,-56.0,1
12.0,-230.0,-64.0,213.0,31.0,-60.0,1
15.0,-224.0,-64.0,214.0,24.0,-66.0,1
15.0,-222.0,-65.0,202.0,19.0,-70.0,1
16.0,-216.0,-67.0,183.0,19.0,-73.0,1
22.0,-217.0,-73.0,159.0,19.0,-72.0,1
22.0,-214.0,-74.0,130.0,24.0,-71.0,1
26.0,-217.0,-79.0,97.0,29.0,-67.0,1
31.0,-215.0,-77.0,61.0,33.0,-61.0,1
34.0,-217.0,-73.0,27.0,42.0,-55.0,1
38.0,-221.0,-70.0,0.0,53.0,-46.0,1
35.0,-221.0,-65.0,-23.0,63.0,-37.0,1
38.0,-229.0,-69.0,-41.0,68.0,-28.0,1
38.0,-231.0,-66.0,-51.0,69.0,-18.0,1
41.0,-234.0,-65.0,-50.0,69.0,-9.0,1
39.0,-240.0,-70.0,-41.0,70.0,1.0,1
39.0,-244.0,-74.0,-22.0,74.0,11.0,1
38.0,-245.0,-74.0,3.0,83.0,17.0,1
33.0,-245.0,-70.0,36.0,94.0,21.0,1
33.0,-246.0,-75.0,68.0,104.0,16.0,1
26.0,-246.0,-74.0,98.0,112.0,9.0,1
24.0,-244.0,-70.0,125.0,117.0,-3.0,1
19.0,-241.0,-71.0,152.0,121.0,-20.0,1
18.0,-239.0,-75.0,175.0,123.0,-33.0,1
17.0,-235.0,-71.0,193.0,125.0,-46.0,1
12.0,-228.0,-68.0,200.0,131.0,-60.0,1
14.0,-226.0,-70.0,201.0,145.0,-73.0,1
11.0,-220.0,-69.0,196.0,151.0,-81.0,1
16.0,-217.0,-68.0,187.0,150.0,-85.0,1
17.0,-216.0,-70.0,170.0,145.0,-89.0,1
19.0,-215.0,-79.0,144.0,143.0,-93.0,1
23.0,-213.0,-75.0,110.0,150.0,-92.0,1
27.0,-215.0,-80.0,78.0,158.0,-91.0,1
28.0,-216.0,-75.0,45.0,162.0,-88.0,1
30.0,-217.0,-76.0,16.0,162.0,-83.0,1
33.0,-219.0,-77.0,-11.0,161.0,-75.0,1
34.0,-220.0,-75.0,-35.0,162.0,-66.0,1
34.0,-228.0,-69.0,-57.0,160.0,-59.0,1
26.0,-230.0,-69.0,-72.0,154.0,-53.0,1
28.0,-232.0,-64.0,-75.0,143.0,-49.0,1
27.0,-239.0,-65.0,-73.0,131.0,-46.0,1
26.0,-243.0,-65.0,-62.0,123.0,-43.0,1
22.0,-240.0,-66.0,-44.0,118.0,-42.0,1
22.0,-242.0,-64.0,-27.0,115.0,-42.0,1
21.0,-243.0,-69.0,-10.0,108.0,-46.0,1
13.0,-241.0,-72.0,7.0,101.0,-55.0,1
14.0,-245.0,-72.0,25.0,97.0,-58.0,1
14.0,-243.0,-68.0,42.0,93.0,-60.0,1
20.0,-243.0,-69.0,55.0,90.0,-62.0,1
20.0,-244.0,-69.0,66.0,87.0,-66.0,1
24.0,-241.0,-69.0,72.0,84.0,-69.0,1
25.0,-243.0,-72.0,77.0,82.0,-68.0,1
24.0,-245.0,-73.0,82.0,80.0,-70.0,1
29.0,-247.0,-72.0,87.0,79.0,-71.0,1
27.0,-245.0,-68.0,90.0,80.0,-73.0,1
25.0,-244.0,-71.0,92.0,82.0,-70.0,1
25.0,-243.0,-69.0,94.0,79.0,-69.0,1
23.0,-240.0,-67.0,97.0,74.0,-68.0,1
20.0,-236.0,-66.0,100.0,68.0,-66.0,1
22.0,-234.0,-66.0,103.0,64.0,-64.0,1
22.0,-230.0,-66.0,103.0,60.0,-61.0,1
27.0,-230.0,-64.0,101.0,57.0,-56.0,1
22.0,-226.0,-64.0,97.0,55.0,-53.0,1
25.0,-228.0,-61.0,88.0,55.0,-46.0,1
25.0,-225.0,-65.0,72.0,54.0,-38.0,1
25.0,-228.0,-62.0,52.0,50.0,-32.0,1
24.0,-226.0,-64.0,34.0,43.0,-27.0,1
23.0,-229.0,-66.0,21.0,37.0,-22.0,1
24.0,-229.0,-64.0,9.0,31.0,-21.0,1
24.0,-234.0,-61.0,1.0,28.0,-17.0,1
25.0,-230.0,-64.0,1.0,29.0,-13.0,1
22.0,-231.0,-63.0,3.0,29.0,-10.0,1
24.0,-237.0,-61.0,3.0,28.0,-5.0,1
26.0,-238.0,-61.0,8.0,29.0,0.0,1
26.0,-238.0,-57.0,18.0,32.0,3.0,1
27.0,-240.0,-55.0,32.0,31.0,3.0,1
30.0,-238.0,-56.0,49.0,30.0,1.0,1
27.0,-240.0,-56.0,64.0,28.0,1.0,1
31.0,-237.0,-52.0,79.0,24.0,-4.0,1
26.0,-242.0,-56.0,88.0,22.0,-13.0,1
26.0,-237.0,-56.0,92.0,21.0,-23.0,1
24.0,-235.0,-57.0,91.0,21.0,-34.0,1
22.0,-237.0,-57.0,84.0,20.0,-48.0,1
22.0,-242.0,-58.0,72.0,15.0,-58.0,1
18.0,-238.0,-57.0,60.0,13.0,-66.0,1
16.0,-238.0,-59.0,46.0,12.0,-71.0,1
14.0,-238.0,-60.0,33.0,10.0,-69.0,1
15.0,-237.0,-58.0,20.0,5.0,-67.0,1
17.0,-240.0,-61.0,4.0,-4.0,-65.0,1
18.0,-244.0,-57.0,-6.0,-11.0,-59.0,1
15.0,-245.0,-61.0,-7.0,-19.0,-45.0,1
21.0,-247.0,-57.0,2.0,-30.0,-33.0,1
20.0,-245.0,-59.0,12.0,-40.0,-19.0,1
25.0,-252.0,-63.0,12.0,-50.0,-13.0,1
24.0,-256.0,-59.0,14.0,-49.0,-5.0,1
22.0,-254.0,-58.0,29.0,-41.0,5.0,1
23.0,-257.0,-57.0,54.0,-41.0,14.0,1
20.0,-257.0,-57.0,79.0,-49.0,19.0,1
23.0,-254.0,-57.0,107.0,-58.0,19.0,1
20.0,-256.0,-57.0,136.0,-67.0,18.0,1
21.0,-254.0,-57.0,163.0,-68.0,19.0,1
18.0,-250.0,-54.0,189.0,-68.0,20.0,1
21.0,-251.0,-54.0,210.0,-71.0,21.0,1
16.0,-246.0,-58.0,225.0,-75.0,22.0,1
19.0,-244.0,-58.0,233.0,-82.0,22.0,1
21.0,-241.0,-60.0,231.0,-89.0,18.0,1
22.0,-237.0,-54.0,225.0,-94.0,10.0,1
19.0,-237.0,-58.0,212.0,-100.0,-1.0,1
15.0,-235.0,-54.0,200.0,-106.0,-7.0,1
18.0,-233.0,-55.0,187.0,-108.0,-2.0,1
20.0,-234.0,-56.0,174.0,-110.0,7.0,1
19.0,-239.0,-58.0,160.0,-111.0,11.0,1
19.0,-236.0,-59.0,145.0,-112.0,8.0,1
26.0,-238.0,-52.0,132.0,-117.0,4.0,1
24.0,-239.0,-54.0,121.0,-121.0,-2.0,1
23.0,-238.0,-53.0,107.0,-123.0,-7.0,1
22.0,-239.0,-53.0,94.0,-123.0,-8.0,1
27.0,-245.0,-51.0,84.0,-124.0,-5.0,1
25.0,-247.0,-48.0,79.0,-125.0,-4.0,1
24.0,-252.0,-44.0,84.0,-125.0,-3.0,1
20.0,-254.0,-44.0,95.0,-128.0,-4.0,1
19.0,-252.0,-44.0,110.0,-132.0,-3.0,1
20.0,-256.0,-43.0,121.0,-132.0,-2.0,1
15.0,-251.0,-55.0,132.0,-131.0,-4.0,1
20.0,-257.0,-45.0,139.0,-130.0,-6.0,1
23.0,-258.0,-49.0,145.0,-134.0,-9.0,1
22.0,-257.0,-50.0,149.0,-137.0,-14.0,1
23.0,-255.0,-51.0,156.0,-131.0,-15.0,1
25.0,-253.0,-52.0,165.0,-124.0,-19.0,1
22.0,-250.0,-52.0,172.0,-119.0,-20.0,1
23.0,-244.0,-54.0,178.0,-117.0,-24.0,1
28.0,-243.0,-51.0,170.0,-116.0,-30.0,1
28.0,-241.0,-49.0,158.0,-108.0,-28.0,1
32.0,-244.0,-48.0,148.0,-95.0,-23.0,1
30.0,-241.0,-46.0,142.0,-85.0,-20.0,1
25.0,-240.0,-47.0,137.0,-84.0,-17.0,1
26.0,-239.0,-49.0,133.0,-84.0,-19.0,1
23.0,-241.0,-50.0,129.0,-80.0,-21.0,1
22.0,-239.0,-51.0,124.0,-75.0,-20.0,1
22.0,-242.0,-48.0,119.0,-70.0,-21.0,1
19.0,-241.0,-44.0,112.0,-67.0,-20.0,1
18.0,-241.0,-47.0,106.0,-62.0,-18.0,1
18.0,-242.0,-49.0,103.0,-58.0,-17.0,1
15.0,-242.0,-49.0,99.0,-58.0,-13.0,1
10.0,-241.0,-50.0,94.0,-59.0,-11.0,1
12.0,-243.0,-49.0,90.0,-59.0,-6.0,1
9.0,-243.0,-51.0,87.0,-61.0,-3.0,1
9.0,-245.0,-50.0,88.0,-65.0,0.0,1
10.0,-244.0,-52.0,90.0,-71.0,1.0,1
7.0,-243.0,-53.0,94.0,-76.0,2.0,1
10.0,-238.0,-52.0,102.0,-78.0,6.0,1
9.0,-243.0,-51.0,110.0,-83.0,9.0,1
12.0,-233.0,-50.0,118.0,-87.0,9.0,1
12.0,-236.0,-55.0,121.0,-91.0,9.0,1
12.0,-237.0,-51.0,127.0,-90.0,8.0,1
16.0,-233.0,-53.0,133.0,-86.0,5.0,1
16.0,-232.0,-51.0,136.0,-86.0,1.0,1
16.0,-229.0,-50.0,136.0,-86.0,0.0,1
14.0,-225.0,-49.0,136.0,-84.0,0.0,1
10.0,-227.0,-51.0,137.0,-84.0,2.0,1
13.0,-224.0,-50.0,134.0,-87.0,4.0,1
12.0,-222.0,-48.0,133.0,-86.0,6.0,1
12.0,-221.0,-51.0,130.0,-88.0,9.0,1
13.0,-223.0,-49.0,126.0,-86.0,15.0,1
10.0,-222.0,-46.0,123.0,-85.0,22.0,1
11.0,-225.0,-50.0,121.0,-85.0,28.0,1
11.0,-222.0,-50.0,117.0,-86.0,38.0,1
13.0,-225.0,-53.0,113.0,-86.0,48.0,1
13.0,-224.0,-50.0,111.0,-83.0,58.0,1
16.0,-227.0,-49.0,110.0,-83.0,70.0,1
19.0,-227.0,-54.0,105.0,-80.0,79.0,1
20.0,-229.0,-56.0,102.0,-68.0,88.0,1
18.0,-230.0,-56.0,98.0,-52.0,93.0,1
22.0,-231.0,-55.0,93.0,-35.0,95.0,1
23.0,-233.0,-59.0,91.0,-22.0,98.0,1
23.0,-231.0,-55.0,89.0,-16.0,99.0,1
23.0,-237.0,-58.0,94.0,-12.0,93.0,1
22.0,-240.0,-56.0,105.0,-3.0,88.0,1
18.0,-242.0,-53.0,120.0,6.0,80.0,1
16.0,-242.0,-59.0,132.0,15.0,74.0,1
15.0,-242.0,-58.0,138.0,24.0,67.0,1
15.0,-242.0,-61.0,139.0,32.0,61.0,1
15.0,-244.0,-58.0,141.0,41.0,55.0,1
15.0,-248.0,-55.0,146.0,49.0,48.0,1
14.0,-245.0,-62.0,154.0,54.0,44.0,1
10.0,-247.0,-62.0,159.0,56.0,38.0,1
7.0,-250.0,-57.0,161.0,62.0,33.0,1
11.0,-250.0,-58.0,160.0,64.0,28.0,1
6.0,-253.0,-59.0,162.0,64.0,28.0,1
8.0,-252.0,-59.0,171.0,68.0,26.0,1
8.0,-254.0,-59.0,187.0,71.0,28.0,1
3.0,-253.0,-57.0,207.0,72.0,29.0,1
6.0,-256.0,-58.0,233.0,70.0,33.0,1
0.0,-250.0,-60.0,257.0,67.0,37.0,1
2.0,-253.0,-55.0,276.0,63.0,40.0,1
3.0,-250.0,-55.0,291.0,57.0,41.0,1
-1.0,-249.0,-57.0,302.0,49.0,43.0,1
0.0,-247.0,-56.0,312.0,42.0,46.0,1
0.0,-248.0,-53.0,318.0,39.0,49.0,1
-1.0,-245.0,-51.0,322.0,34.0,52.0,1
0.0,-245.0,-50.0,317.0,21.0,56.0,1
2.0,-244.0,-53.0,301.0,11.0,60.0,1
1.0,-246.0,-50.0,280.0,3.0,62.0,1
1.0,-246.0,-50.0,253.0,-6.0,64.0,1
9.0,-252.0,-46.0,230.0,-11.0,66.0,1
8.0,-253.0,-46.0,208.0,-12.0,65.0,1
10.0,-255.0,-45.0,195.0,-12.0,63.0,1
8.0,-253.0,-42.0,190.0,-12.0,61.0,1
12.0,-256.0,-46.0,190.0,-12.0,57.0,1
9.0,-260.0,-40.0,194.0,-12.0,51.0,1
10.0,-256.0,-44.0,202.0,-13.0,44.0,1
16.0,-258.0,-39.0,202.0,-13.0,37.0,1
9.0,-255.0,-40.0,205.0,-6.0,30.0,1
10.0,-255.0,-40.0,207.0,-2.0,23.0,1
11.0,-256.0,-41.0,211.0,1.0,16.0,1
10.0,-253.0,-40.0,215.0,4.0,10.0,1
6.0,-251.0,-38.0,218.0,9.0,2.0,1
5.0,-250.0,-37.0,217.0,8.0,0.0,1
2.0,-246.0,-40.0,205.0,6.0,1.0,1
5.0,-249.0,-42.0,185.0,6.0,3.0,1
17.0,-244.0,-36.0,168.0,11.0,6.0,1
6.0,-244.0,-44.0,148.0,11.0,10.0,1
6.0,-248.0,-41.0,131.0,9.0,15.0,1
2.0,-248.0,-42.0,116.0,5.0,19.0,1
5.0,-247.0,-43.0,103.0,5.0,25.0,1
4.0,-248.0,-42.0,91.0,6.0,31.0,1
3.0,-251.0,-44.0,83.0,6.0,37.0,1
3.0,-250.0,-40.0,77.0,6.0,44.0,1
3.0,-249.0,-42.0,72.0,3.0,49.0,1
6.0,-251.0,-40.0,69.0,1.0,54.0,1
7.0,-255.0,-36.0,66.0,0.0,59.0,1
10.0,-252.0,-41.0,64.0,0.0,64.0,1
7.0,-255.0,-37.0,59.0,0.0,65.0,1
7.0,-253.0,-36.0,56.0,3.0,69.0,1
3.0,-251.0,-39.0,55.0,7.0,70.0,1
2.0,-247.0,-36.0,53.0,11.0,71.0,1
3.0,-247.0,-35.0,50.0,14.0,70.0,1
3.0,-244.0,-42.0,42.0,15.0,70.0,1
2.0,-244.0,-39.0,30.0,15.0,70.0,1
2.0,-243.0,-43.0,15.0,13.0,71.0,1
4.0,-244.0,-41.0,-2.0,13.0,69.0,1
3.0,-241.0,-47.0,-21.0,11.0,66.0,1
1.0,-242.0,-42.0,-41.0,11.0,66.0,1
3.0,-240.0,-44.0,-60.0,5.0,63.0,1
0.0,-241.0,-42.0,-78.0,-4.0,62.0,1
1.0,-241.0,-47.0,-100.0,-5.0,63.0,1
0.0,-243.0,-41.0,-125.0,-4.0,70.0,1
0.0,-243.0,-34.0,-151.0,4.0,75.0,1
-2.0,-247.0,-36.0,-172.0,8.0,82.0,1
0.0,-252.0,-32.0,-185.0,10.0,92.0,1
-2.0,-253.0,-34.0,-194.0,9.0,103.0,1
0.0,-254.0,-31.0,-199.0,10.0,109.0,1
4.0,-254.0,-31.0,-197.0,13.0,115.0,1
6.0,-256.0,-34.0,-193.0,15.0,119.0,1
13.0,-255.0,-30.0,-185.0,19.0,122.0,1
13.0,-252.0,-33.0,-176.0,26.0,123.0,1
15.0,-253.0,-33.0,-171.0,32.0,126.0,1
19.0,-252.0,-35.0,-176.0,33.0,126.0,1
19.0,-254.0,-35.0,-180.0,40.0,126.0,1
22.0,-255.0,-36.0,-185.0,48.0,120.0,1
20.0,-255.0,-34.0,-189.0,58.0,109.0,1
23.0,-254.0,-35.0,-194.0,68.0,93.0,1
18.0,-254.0,-41.0,-199.0,77.0,74.0,1
15.0,-255.0,-40.0,-202.0,89.0,54.0,1
10.0,-252.0,-40.0,-209.0,103.0,31.0,1
9.0,-251.0,-43.0,-218.0,115.0,15.0,1
6.0,-252.0,-42.0,-237.0,123.0,1.0,1
3.0,-248.0,-42.0,-258.0,127.0,-13.0,1
0.0,-246.0,-42.0,-279.0,133.0,-24.0,1
0.0,-246.0,-42.0,-299.0,136.0,-32.0,1
-1.0,-246.0,-45.0,-320.0,133.0,-37.0,1
-5.0,-246.0,-45.0,-344.0,124.0,-40.0,1
-7.0,-237.0,-53.0,-377.0,108.0,-42.0,1
-4.0,-236.0,-58.0,-414.0,91.0,-46.0,1
-3.0,-233.0,-59.0,-469.0,83.0,-49.0,1
-8.0,-230.0,-64.0,-537.0,79.0,-49.0,1
-8.0,-232.0,-63.0,-619.0,66.0,-49.0,1
-5.0,-235.0,-63.0,-702.0,49.0,-46.0,1
-2.0,-245.0,-63.0,-770.0,32.0,-38.0,1
-2.0,-243.0,-64.0,-816.0,19.0,-26.0,1
0.0,-244.0,-59.0,-839.0,9.0,-18.0,1
1.0,-244.0,-58.0,-848.0,3.0,-11.0,1
1.0,-243.0,-61.0,-849.0,4.0,-6.0,1
1.0,-241.0,-60.0,-849.0,5.0,-4.0,1
1.0,-231.0,-64.0,-861.0,12.0,-4.0,1
0.0,-222.0,-70.0,-902.0,18.0,-3.0,1
1.0,-221.0,-75.0,-980.0,21.0,2.0,1
1.0,-216.0,-78.0,-1079.0,23.0,3.0,1
2.0,-212.0,-78.0,-1191.0,25.0,-2.0,1
7.0,-218.0,-80.0,-1299.0,24.0,-8.0,1
10.0,-221.0,-73.0,-1392.0,24.0,-9.0,1
6.0,-231.0,-76.0,-1450.0,30.0,-10.0,1
8.0,-235.0,-68.0,-1470.0,42.0,-7.0,1
10.0,-248.0,-64.0,-1459.0,49.0,-2.0,1
9.0,-254.0,-57.0,-1415.0,56.0,7.0,1
7.0,-259.0,-61.0,-1350.0,61.0,15.0,1
9.0,-263.0,-64.0,-1265.0,60.0,21.0,1
11.0,-269.0,-70.0,-1170.0,57.0,30.0,1
14.0,-268.0,-73.0,-1070.0,61.0,41.0,1
15.0,-269.0,-75.0,-967.0,73.0,47.0,1
15.0,-265.0,-84.0,-861.0,79.0,47.0,1
21.0,-261.0,-84.0,-756.0,79.0,47.0,1
21.0,-258.0,-87.0,-655.0,81.0,45.0,1
14.0,-248.0,-89.0,-561.0,87.0,39.0,1
17.0,-240.0,-87.0,-484.0,94.0,33.0,1
14.0,-232.0,-80.0,-441.0,96.0,32.0,1
15.0,-232.0,-85.0,-392.0,96.0,20.0,1
16.0,-228.0,-86.0,-358.0,98.0,8.0,1
15.0,-226.0,-85.0,-328.0,99.0,-5.0,1
9.0,-222.0,-83.0,-308.0,101.0,-16.0,1
7.0,-218.0,-87.0,-303.0,103.0,-24.0,1
7.0,-216.0,-89.0,-322.0,103.0,-30.0,1
7.0,-222.0,-85.0,-350.0,103.0,-37.0,1
7.0,-227.0,-85.0,-375.0,107.0,-45.0,1
9.0,-234.0,-83.0,-382.0,108.0,-52.0,1
12.0,-240.0,-84.0,-373.0,109.0,-58.0,1
8.0,-236.0,-81.0,-357.0,115.0,-69.0,1
15.0,-239.0,-83.0,-355.0,125.0,-80.0,1
11.0,-237.0,-92.0,-370.0,129.0,-91.0,1
14.0,-243.0,-93.0,-388.0,126.0,-99.0,1
18.0,-244.0,-104.0,-400.0,121.0,-108.0,1
18.0,-243.0,-104.0,-396.0,118.0,-118.0,1
18.0,-242.0,-107.0,-383.0,121.0,-125.0,1
15.0,-237.0,-106.0,-369.0,132.0,-128.0,1
14.0,-239.0,-108.0,-357.0,143.0,-125.0,1
7.0,-236.0,-112.0,-352.0,149.0,-122.0,1
8.0,-235.0,-112.0,-361.0,144.0,-117.0,1
5.0,-234.0,-112.0,-370.0,138.0,-113.0,1
4.0,-231.0,-115.0,-371.0,135.0,-111.0,1
3.0,-232.0,-113.0,-370.0,136.0,-108.0,1
0.0,-227.0,-112.0,-380.0,137.0,-102.0,1
-1.0,-222.0,-117.0,-407.0,125.0,-93.0,1
-2.0,-235.0,-125.0,-450.0,107.0,-82.0,1
0.0,-222.0,-108.0,-512.0,75.0,-49.0,1
-7.0,-220.0,-112.0,-502.0,60.0,-55.0,1
-6.0,-221.0,-115.0,-504.0,56.0,-54.0,1
-8.0,-224.0,-112.0,-524.0,48.0,-51.0,1
-2.0,-226.0,-111.0,-539.0,31.0,-46.0,1
-2.0,-228.0,-114.0,-544.0,16.0,-41.0,1
2.0,-230.0,-112.0,-538.0,7.0,-36.0,1
6.0,-233.0,-112.0,-524.0,4.0,-31.0,1
1.0,-233.0,-108.0,-505.0,5.0,-24.0,1
7.0,-236.0,-112.0,-483.0,9.0,-15.0,1
8.0,-235.0,-110.0,-457.0,11.0,-6.0,1
9.0,-226.0,-115.0,-431.0,12.0,1.0,1
11.0,-216.0,-116.0,-421.0,12.0,9.0,1
12.0,-211.0,-116.0,-428.0,11.0,16.0,1
15.0,-208.0,-120.0,-448.0,10.0,19.0,1
17.0,-209.0,-121.0,-469.0,8.0,21.0,1
17.0,-212.0,-118.0,-476.0,11.0,23.0,1
17.0,-208.0,-116.0,-470.0,15.0,24.0,1
16.0,-207.0,-120.0,-463.0,17.0,23.0,1
13.0,-206.0,-117.0,-460.0,18.0,18.0,1
14.0,-210.0,-119.0,-462.0,21.0,12.0,1
12.0,-210.0,-118.0,-460.0,25.0,8.0,1
7.0,-213.0,-111.0,-461.0,24.0,8.0,1
2.0,-205.0,-113.0,-444.0,25.0,11.0,1
2.0,-201.0,-115.0,-409.0,29.0,6.0,1
2.0,-198.0,-117.0,-393.0,22.0,0.0,1
6.0,-195.0,-117.0,-391.0,19.0,-3.0,1
4.0,-197.0,-114.0,-394.0,20.0,-6.0,1
5.0,-197.0,-117.0,-397.0,21.0,-4.0,1
6.0,-193.0,-112.0,-391.0,21.0,-8.0,1
9.0,-192.0,-112.0,-379.0,19.0,-11.0,1
10.0,-189.0,-110.0,-360.0,17.0,-18.0,1
12.0,-186.0,-111.0,-341.0,21.0,-28.0,1
8.0,-181.0,-107.0,-328.0,29.0,-36.0,1
14.0,-179.0,-106.0,-323.0,37.0,-43.0,1
12.0,-179.0,-109.0,-327.0,40.0,-49.0,1
11.0,-171.0,-110.0,-338.0,41.0,-55.0,1
13.0,-171.0,-115.0,-355.0,40.0,-57.0,1
12.0,-164.0,-109.0,-373.0,42.0,-60.0,1
11.0,-167.0,-111.0,-388.0,48.0,-57.0,1
9.0,-169.0,-113.0,-394.0,56.0,-54.0,1
11.0,-175.0,-111.0,-386.0,64.0,-55.0,1
20.0,-181.0,-115.0,-368.0,67.0,-55.0,1
13.0,-189.0,-114.0,-358.0,72.0,-52.0,1
9.0,-180.0,-103.0,-329.0,82.0,-45.0,1
3.0,-173.0,-105.0,-285.0,96.0,-49.0,1
4.0,-179.0,-107.0,-267.0,107.0,-51.0,1
6.0,-183.0,-111.0,-258.0,112.0,-51.0,1
2.0,-182.0,-111.0,-243.0,115.0,-46.0,1
2.0,-186.0,-106.0,-224.0,115.0,-41.0,1
1.0,-184.0,-105.0,-208.0,113.0,-37.0,1
0.0,-188.0,-111.0,-188.0,106.0,-31.0,1
-2.0,-185.0,-107.0,-162.0,93.0,-27.0,1
1.0,-192.0,-110.0,-133.0,84.0,-28.0,1
3.0,-193.0,-106.0,-106.0,78.0,-30.0,1
4.0,-197.0,-105.0,-72.0,73.0,-33.0,1
6.0,-201.0,-106.0,-30.0,71.0,-35.0,1
11.0,-207.0,-100.0,13.0,71.0,-37.0,1
17.0,-213.0,-96.0,54.0,74.0,-40.0,1
24.0,-215.0,-94.0,98.0,75.0,-52.0,1
33.0,-218.0,-94.0,143.0,86.0,-66.0,1
35.0,-217.0,-94.0,193.0,110.0,-80.0,1
43.0,-215.0,-98.0,242.0,147.0,-89.0,1
41.0,-213.0,-94.0,289.0,192.0,-95.0,1
44.0,-208.0,-96.0,332.0,233.0,-98.0,1
40.0,-202.0,-89.0,367.0,273.0,-106.0,1
40.0,-201.0,-91.0,394.0,315.0,-118.0,1
36.0,-202.0,-93.0,417.0,361.0,-132.0,1
36.0,-201.0,-94.0,437.0,401.0,-148.0,1
15.0,-202.0,-88.0,453.0,445.0,-164.0,1
23.0,-212.0,-70.0,470.0,478.0,-166.0,1
113.0,-260.0,-59.0,496.0,484.0,-196.0,1
152.0,-329.0,-76.0,560.0,472.0,-287.0,1
164.0,-405.0,-86.0,700.0,528.0,-382.0,1
139.0,-365.0,-49.0,940.0,680.0,-427.0,1
-40.0,-287.0,-68.0,1133.0,839.0,-396.0,1
-212.0,-186.0,-154.0,1203.0,930.0,-218.0,1
-255.0,-134.0,-213.0,1098.0,1001.0,-3.0,1
-291.0,-122.0,-260.0,777.0,1009.0,109.0,1
-301.0,-178.0,-234.0,327.0,1020.0,134.0,1
-290.0,-259.0,-159.0,-83.0,986.0,87.0,1
-239.0,-323.0,-104.0,-331.0,807.0,8.0,1
-161.0,-383.0,-30.0,-360.0,530.0,-16.0,1
-83.0,-361.0,63.0,-129.0,352.0,30.0,1
2.0,-280.0,138.0,264.0,287.0,93.0,1
115.0,-202.0,113.0,679.0,191.0,106.0,1
181.0,-177.0,21.0,967.0,66.0,64.0,1
190.0,-169.0,-48.0,1070.0,29.0,20.0,1
170.0,-177.0,-99.0,1046.0,64.0,12.0,1
147.0,-196.0,-106.0,957.0,120.0,24.0,1
118.0,-217.0,-80.0,861.0,208.0,42.0,1
84.0,-241.0,-42.0,792.0,332.0,54.0,1
67.0,-266.0,-5.0,779.0,454.0,44.0,1
40.0,-289.0,26.0,854.0,529.0,28.0,1
18.0,-294.0,29.0,1036.0,546.0,25.0,1
11.0,-281.0,8.0,1293.0,524.0,31.0,1
8.0,-250.0,-20.0,1544.0,497.0,33.0,1
4.0,-214.0,-43.0,1721.0,503.0,33.0,1
-3.0,-166.0,-69.0,1793.0,553.0,39.0,1
-20.0,-122.0,-87.0,1763.0,633.0,47.0,1
-26.0,-83.0,-95.0,1648.0,722.0,45.0,1
-8.0,-46.0,-104.0,1494.0,808.0,38.0,1
19.0,-24.0,-109.0,1332.0,874.0,33.0,1
44.0,-11.0,-139.0,1170.0,944.0,16.0,1
82.0,-2.0,-141.0,993.0,1052.0,-1.0,1
113.0,-1.0,-134.0,829.0,1177.0,-8.0,1
155.0,-3.0,-127.0,648.0,1292.0,-4.0,1
164.0,-37.0,-113.0,427.0,1370.0,-6.0,1
165.0,-71.0,-87.0,203.0,1480.0,3.0,1
145.0,-103.0,-67.0,33.0,1598.0,24.0,1
130.0,-138.0,-53.0,-79.0,1689.0,51.0,1
126.0,-164.0,-52.0,-121.0,1752.0,70.0,1
109.0,-188.0,-61.0,-124.0,1817.0,67.0,1
81.0,-201.0,-63.0,-131.0,1924.0,35.0,1
51.0,-215.0,-46.0,-135.0,2050.0,-13.0,1
22.0,-206.0,-24.0,-124.0,2133.0,-95.0,1
10.0,-190.0,-14.0,-87.0,2141.0,-179.0,1
-18.0,-156.0,-7.0,-36.0,2119.0,-242.0,1
-35.0,-128.0,4.0,9.0,2118.0,-260.0,1
-29.0,-112.0,3.0,31.0,2113.0,-252.0,1
-22.0,-101.0,-11.0,19.0,2082.0,-272.0,1
-25.0,-95.0,-19.0,-20.0,2066.0,-314.0,1
-12.0,-78.0,-18.0,-57.0,2077.0,-350.0,1
26.0,-71.0,-17.0,-97.0,2074.0,-393.0,1
63.0,-70.0,-29.0,-140.0,2043.0,-449.0,1
94.0,-77.0,-44.0,-195.0,2020.0,-529.0,1
108.0,-74.0,-45.0,-276.0,2053.0,-643.0,1
103.0,-72.0,-25.0,-381.0,2149.0,-757.0,1
105.0,-72.0,-5.0,-479.0,2227.0,-841.0,1
101.0,-60.0,6.0,-560.0,2253.0,-920.0,1
94.0,-48.0,3.0,-662.0,2224.0,-1001.0,1
87.0,-42.0,-11.0,-811.0,2179.0,-1080.0,1
67.0,-54.0,-9.0,-1054.0,2153.0,-1153.0,1
61.0,-73.0,-8.0,-1251.0,2149.0,-1210.0,1
55.0,-92.0,0.0,-1403.0,2159.0,-1261.0,1
43.0,-112.0,9.0,-1520.0,2168.0,-1317.0,1
40.0,-122.0,4.0,-1608.0,2155.0,-1380.0,1
32.0,-139.0,-1.0,-1641.0,2113.0,-1434.0,1
33.0,-151.0,-11.0,-1606.0,2062.0,-1476.0,1
27.0,-150.0,-21.0,-1512.0,2024.0,-1524.0,1
27.0,-149.0,-17.0,-1383.0,2001.0,-1569.0,1
19.0,-136.0,-26.0,-1246.0,1974.0,-1616.0,1
4.0,-121.0,-41.0,-1143.0,1909.0,-1666.0,1
-6.0,-116.0,-52.0,-1101.0,1782.0,-1718.0,1
-6.0,-115.0,-73.0,-1083.0,1614.0,-1745.0,1
-8.0,-114.0,-93.0,-1078.0,1440.0,-1744.0,1
-14.0,-122.0,-117.0,-1093.0,1291.0,-1735.0,1
-15.0,-126.0,-128.0,-1137.0,1173.0,-1723.0,1
-24.0,-141.0,-139.0,-1206.0,1072.0,-1704.0,1
-33.0,-182.0,-161.0,-1264.0,947.0,-1666.0,1
-37.0,-211.0,-184.0,-1273.0,765.0,-1624.0,1
-49.0,-246.0,-229.0,-1247.0,532.0,-1577.0,1
-56.0,-285.0,-280.0,-1239.0,280.0,-1504.0,1
-71.0,-331.0,-322.0,-1265.0,55.0,-1406.0,1
-81.0,-387.0,-363.0,-1297.0,-109.0,-1277.0,1
-81.0,-433.0,-381.0,-1314.0,-237.0,-1118.0,1
-47.0,-496.0,-366.0,-1321.0,-346.0,-928.0,1
42.0,-561.0,-317.0,-1320.0,-411.0,-721.0,1
161.0,-597.0,-221.0,-1340.0,-373.0,-583.0,1
290.0,-644.0,-78.0,-1399.0,-174.0,-536.0,1
368.0,-669.0,15.0,-1392.0,163.0,-566.0,1
437.0,-657.0,77.0,-1186.0,535.0,-705.0,1
453.0,-522.0,51.0,-795.0,804.0,-1052.0,1
450.0,-298.0,-37.0,-402.0,935.0,-1614.0,1
421.0,-59.0,-154.0,-194.0,963.0,-2282.0,1
386.0,84.0,-243.0,-238.0,1013.0,-2913.0,1
265.0,108.0,-416.0,-533.0,1222.0,-3425.0,1
292.0,217.0,-345.0,-1248.0,1608.0,-3767.0,1
212.0,241.0,-328.0,-1784.0,2027.0,-4018.0,1
84.0,158.0,-282.0,-2325.0,2321.0,-4078.0,1
22.0,91.0,-217.0,-3004.0,2526.0,-3997.0,1
-31.0,-10.0,-122.0,-3603.0,2559.0,-3888.0,1
-65.0,-118.0,-47.0,-4010.0,2382.0,-3766.0,1
-83.0,-207.0,-7.0,-4174.0,2097.0,-3639.0,1
-87.0,-270.0,10.0,-4107.0,1843.0,-3450.0,1
-57.0,-345.0,39.0,-3826.0,1691.0,-3169.0,1
-9.0,-386.0,84.0,-3379.0,1640.0,-2850.0,1
72.0,-402.0,90.0,-2783.0,1609.0,-2531.0,1
176.0,-389.0,65.0,-2070.0,1521.0,-2294.0,1
254.0,-338.0,47.0,-1334.0,1436.0,-2175.0,1
323.0,-252.0,38.0,-656.0,1520.0,-2189.0,1
388.0,-146.0,32.0,-67.0,1722.0,-2328.0,1
452.0,-53.0,-3.0,382.0,1788.0,-2437.0,1
521.0,18.0,-62.0,708.0,1652.0,-2495.0,1
571.0,63.0,-109.0,931.0,1508.0,-2670.0,1
606.0,129.0,-179.0,1052.0,1495.0,-3067.0,1
588.0,186.0,-253.0,1098.0,1573.0,-3594.0,1
538.0,215.0,-309.0,1046.0,1702.0,-4041.0,1
508.0,229.0,-326.0,897.0,1908.0,-4277.0,1
496.0,225.0,-303.0,640.0,2154.0,-4253.0,1
451.0,164.0,-304.0,387.0,2382.0,-4107.0,1
514.0,107.0,-254.0,142.0,2516.0,-3929.0,1
532.0,29.0,-225.0,22.0,2344.0,-3774.0,1
449.0,-31.0,-248.0,-39.0,1982.0,-3840.0,1
393.0,-53.0,-252.0,-118.0,1692.0,-4090.0,1
389.0,-44.0,-221.0,-154.0,1467.0,-4239.0,1
418.0,1.0,-186.0,-97.0,1248.0,-4286.0,1
490.0,80.0,-145.0,40.0,976.0,-4303.0,1
579.0,174.0,-138.0,168.0,634.0,-4409.0,1
539.0,196.0,-205.0,196.0,192.0,-4558.0,1
604.0,221.0,-253.0,132.0,-66.0,-4651.0,1
615.0,195.0,-297.0,32.0,-222.0,-4367.0,1
611.0,131.0,-332.0,31.0,-307.0,-3771.0,1
634.0,84.0,-343.0,230.0,-286.0,-3199.0,1
632.0,96.0,-335.0,551.0,-167.0,-2821.0,1
605.0,114.0,-368.0,911.0,-18.0,-2598.0,1
542.0,161.0,-377.0,1133.0,93.0,-2420.0,1
457.0,211.0,-389.0,1220.0,161.0,-2044.0,1
409.0,248.0,-385.0,1198.0,274.0,-1402.0,1
358.0,285.0,-350.0,1103.0,473.0,-611.0,1
303.0,313.0,-275.0,942.0,722.0,158.0,1
256.0,320.0,-164.0,803.0,939.0,809.0,1
201.0,314.0,-63.0,774.0,1020.0,1394.0,1
178.0,297.0,-10.0,805.0,899.0,1737.0,1
161.0,267.0,39.0,812.0,527.0,1965.0,1
158.0,220.0,25.0,771.0,-27.0,2105.0,1
161.0,196.0,-4.0,663.0,-620.0,2173.0,1
172.0,181.0,-20.0,499.0,-867.0,2197.0,1
160.0,162.0,-27.0,304.0,-891.0,2184.0,1
133.0,138.0,-20.0,74.0,-790.0,2146.0,1
102.0,114.0,0.0,-226.0,-697.0,2078.0,1
79.0,87.0,21.0,-472.0,-688.0,1953.0,1
53.0,58.0,36.0,-683.0,-762.0,1759.0,1
38.0,48.0,38.0,-854.0,-876.0,1525.0,1
36.0,32.0,41.0,-972.0,-976.0,1306.0,1
46.0,6.0,39.0,-996.0,-1036.0,1136.0,1
58.0,-8.0,32.0,-900.0,-1035.0,1003.0,1
65.0,-24.0,16.0,-716.0,-974.0,895.0,1
74.0,-29.0,17.0,-506.0,-876.0,820.0,1
92.0,-36.0,23.0,-294.0,-765.0,781.0,1
126.0,-40.0,25.0,-97.0,-670.0,748.0,1
167.0,-30.0,27.0,74.0,-606.0,680.0,1
204.0,-19.0,25.0,209.0,-562.0,572.0,1
207.0,-3.0,11.0,305.0,-517.0,446.0,1
184.0,7.0,-8.0,345.0,-437.0,308.0,1
134.0,18.0,-34.0,360.0,-328.0,179.0,1
90.0,29.0,-55.0,346.0,-265.0,62.0,1
64.0,46.0,-67.0,299.0,-280.0,-29.0,1
76.0,50.0,-80.0,219.0,-357.0,-67.0,1
119.0,54.0,-92.0,125.0,-441.0,-97.0,1
158.0,52.0,-100.0,35.0,-497.0,-145.0,1
191.0,56.0,-112.0,-5.0,-506.0,-185.0,1
222.0,60.0,-109.0,10.0,-471.0,-185.0,1
244.0,62.0,-114.0,68.0,-418.0,-159.0,1
260.0,74.0,-126.0,138.0,-356.0,-145.0,1
266.0,83.0,-131.0,183.0,-305.0,-153.0,1
270.0,96.0,-147.0,192.0,-283.0,-142.0,1
271.0,101.0,-153.0,153.0,-287.0,-124.0,1
277.0,102.0,-171.0,72.0,-298.0,-118.0,1
293.0,104.0,-182.0,-23.0,-304.0,-121.0,1
305.0,102.0,-192.0,-110.0,-304.0,-120.0,1
319.0,96.0,-194.0,-171.0,-283.0,-108.0,1
334.0,92.0,-194.0,-202.0,-246.0,-79.0,1
349.0,84.0,-187.0,-189.0,-241.0,-41.0,1
364.0,85.0,-190.0,-151.0,-240.0,-23.0,1
357.0,79.0,-185.0,-118.0,-175.0,-15.0,1
349.0,74.0,-172.0,-95.0,-73.0,6.0,1
341.0,69.0,-169.0,-81.0,12.0,46.0,1
328.0,61.0,-157.0,-74.0,36.0,87.0,1
323.0,54.0,-150.0,-64.0,15.0,121.0,1
322.0,50.0,-147.0,-60.0,-11.0,126.0,1
315.0,46.0,-145.0,-66.0,-13.0,110.0,1
302.0,47.0,-138.0,-86.0,-10.0,103.0,1
296.0,40.0,-136.0,-113.0,-8.0,99.0,1
298.0,39.0,-127.0,-148.0,-5.0,85.0,1
288.0,46.0,-128.0,-184.0,-1.0,51.0,1
279.0,56.0,-118.0,-220.0,-8.0,11.0,1
270.0,61.0,-114.0,-250.0,-20.0,-3.0,1
263.0,59.0,-94.0,-273.0,-42.0,-22.0,1
243.0,72.0,-106.0,-295.0,-73.0,-29.0,1
234.0,69.0,-103.0,-315.0,-111.0,-23.0,1
233.0,66.0,-99.0,-328.0,-145.0,-10.0,1
226.0,65.0,-95.0,-330.0,-162.0,0.0,1
227.0,62.0,-90.0,-326.0,-157.0,12.0,1
221.0,60.0,-88.0,-313.0,-135.0,28.0,1
214.0,59.0,-79.0,-293.0,-105.0,45.0,1
210.0,53.0,-80.0,-264.0,-87.0,55.0,1
204.0,50.0,-71.0,-227.0,-82.0,62.0,1
208.0,54.0,-71.0,-187.0,-88.0,72.0,1
206.0,50.0,-69.0,-146.0,-91.0,78.0,1
200.0,54.0,-71.0,-104.0,-82.0,76.0,1
203.0,51.0,-72.0,-70.0,-67.0,77.0,1
204.0,55.0,-73.0,-38.0,-57.0,76.0,1
201.0,56.0,-72.0,-8.0,-49.0,73.0,1
198.0,59.0,-76.0,16.0,-41.0,69.0,1
192.0,60.0,-73.0,35.0,-36.0,61.0,1
197.0,58.0,-79.0,47.0,-39.0,56.0,1
198.0,63.0,-81.0,52.0,-42.0,45.0,1
200.0,63.0,-85.0,48.0,-40.0,37.0,1
208.0,70.0,-91.0,39.0,-35.0,27.0,1
203.0,59.0,-90.0,34.0,-28.0,15.0,1
204.0,62.0,-90.0,31.0,-27.0,8.0,1
208.0,58.0,-92.0,40.0,-36.0,-3.0,1
213.0,61.0,-102.0,49.0,-50.0,-13.0,1
216.0,63.0,-106.0,57.0,-63.0,-23.0,1
223.0,63.0,-111.0,59.0,-71.0,-30.0,1
226.0,64.0,-110.0,57.0,-72.0,-39.0,1
228.0,66.0,-113.0,52.0,-68.0,-47.0,1
234.0,67.0,-109.0,47.0,-71.0,-53.0,1
223.0,59.0,-106.0,36.0,-79.0,-57.0,1
243.0,68.0,-115.0,26.0,-92.0,-62.0,1
247.0,59.0,-131.0,14.0,-108.0,-67.0,1
242.0,60.0,-128.0,8.0,-115.0,-69.0,1
249.0,56.0,-115.0,7.0,-113.0,-70.0,1
253.0,43.0,-128.0,10.0,-101.0,-54.0,1
263.0,46.0,-137.0,16.0,-85.0,-6.0,1
254.0,48.0,-129.0,12.0,-57.0,36.0,1
248.0,14.0,-105.0,-2.0,-36.0,71.0,1
262.0,51.0,-112.0,-15.0,-30.0,95.0,1
244.0,40.0,-124.0,-23.0,-29.0,115.0,1
247.0,38.0,-124.0,-34.0,-27.0,135.0,1
249.0,32.0,-131.0,-48.0,-29.0,157.0,1
244.0,53.0,-115.0,-70.0,-28.0,180.0,1
249.0,42.0,-119.0,-96.0,-25.0,206.0,1
261.0,46.0,-109.0,-110.0,-26.0,228.0,1
253.0,33.0,-122.0,-116.0,-20.0,251.0,1
251.0,27.0,-119.0,-118.0,-10.0,267.0,1
244.0,31.0,-115.0,-119.0,-4.0,283.0,1
234.0,31.0,-115.0,-120.0,0.0,298.0,1
236.0,39.0,-123.0,-127.0,5.0,311.0,1
223.0,25.0,-114.0,-138.0,-1.0,323.0,1
235.0,26.0,-100.0,-151.0,-13.0,335.0,1
238.0,15.0,-114.0,-163.0,-29.0,346.0,1
230.0,17.0,-114.0,-167.0,-40.0,360.0,1
243.0,24.0,-102.0,-162.0,-43.0,369.0,1
234.0,14.0,-103.0,-149.0,-37.0,375.0,1
227.0,10.0,-108.0,-132.0,-25.0,379.0,1
234.0,10.0,-110.0,-116.0,-16.0,382.0,1
253.0,-1.0,-93.0,-104.0,-8.0,379.0,1
217.0,3.0,-102.0,-96.0,-5.0,376.0,1
227.0,-21.0,-85.0,-91.0,-8.0,369.0,1
226.0,2.0,-86.0,-91.0,-15.0,357.0,1
229.0,3.0,-111.0,-92.0,-27.0,346.0,1
224.0,-3.0,-97.0,-94.0,-36.0,333.0,1
236.0,-1.0,-103.0,-91.0,-41.0,322.0,1
233.0,-9.0,-99.0,-82.0,-40.0,306.0,1
226.0,6.0,-91.0,-66.0,-38.0,289.0,1
230.0,-8.0,-101.0,-51.0,-36.0,271.0,1
235.0,-10.0,-101.0,-38.0,-35.0,252.0,1
236.0,-5.0,-104.0,-32.0,-34.0,240.0,1
237.0,-7.0,-104.0,-27.0,-34.0,223.0,1
242.0,-8.0,-109.0,-19.0,-31.0,201.0,1
232.0,-5.0,-105.0,-13.0,-30.0,178.0,1
234.0,-4.0,-105.0,-13.0,-28.0,163.0,1
238.0,-3.0,-110.0,-16.0,-30.0,148.0,1
239.0,-4.0,-109.0,-20.0,-34.0,130.0,1
237.0,-11.0,-119.0,-20.0,-36.0,113.0,1
237.0,-8.0,-112.0,-21.0,-35.0,98.0,1
238.0,-4.0,-111.0,-21.0,-33.0,80.0,1
237.0,-7.0,-106.0,-16.0,-34.0,64.0,1
239.0,-7.0,-110.0,-6.0,-31.0,48.0,1
240.0,-9.0,-110.0,5.0,-26.0,32.0,1
235.0,-8.0,-108.0,18.0,-23.0,20.0,1
239.0,-8.0,-108.0,33.0,-22.0,6.0,1
240.0,-8.0,-112.0,46.0,-21.0,-8.0,1
237.0,1.0,-114.0,44.0,-20.0,-26.0,1
239.0,0.0,-110.0,35.0,-18.0,-39.0,1
239.0,2.0,-113.0,27.0,-15.0,-49.0,1
238.0,5.0,-116.0,23.0,-11.0,-59.0,1
236.0,3.0,-115.0,19.0,-6.0,-68.0,1
237.0,14.0,-88.0,17.0,0.0,-74.0,1
239.0,4.0,-114.0,17.0,6.0,-82.0,1
239.0,1.0,-112.0,20.0,8.0,-90.0,1
230.0,2.0,-109.0,28.0,5.0,-99.0,1
229.0,0.0,-103.0,48.0,-11.0,-95.0,1
244.0,2.0,-108.0,85.0,-42.0,-80.0,1
235.0,6.0,-110.0,110.0,-53.0,-93.0,1
235.0,6.0,-108.0,116.0,-51.0,-98.0,1
233.0,11.0,-109.0,116.0,-47.0,-99.0,1
233.0,10.0,-111.0,113.0,-45.0,-102.0,1
227.0,1.0,-108.0,111.0,-42.0,-103.0,1
231.0,11.0,-105.0,110.0,-41.0,-102.0,1
232.0,10.0,-112.0,110.0,-43.0,-101.0,1
234.0,9.0,-114.0,112.0,-45.0,-100.0,1
233.0,7.0,-110.0,118.0,-44.0,-99.0,1
237.0,4.0,-117.0,121.0,-45.0,-99.0,1
235.0,10.0,-111.0,129.0,-45.0,-98.0,1
233.0,12.0,-105.0,132.0,-45.0,-96.0,1
233.0,13.0,-110.0,134.0,-46.0,-96.0,1
232.0,14.0,-108.0,135.0,-46.0,-92.0,1
230.0,14.0,-112.0,137.0,-44.0,-86.0,1
234.0,12.0,-110.0,140.0,-44.0,-78.0,1
233.0,15.0,-111.0,144.0,-44.0,-70.0,1
233.0,12.0,-109.0,144.0,-44.0,-62.0,1
233.0,16.0,-111.0,143.0,-42.0,-57.0,1
234.0,17.0,-112.0,145.0,-41.0,-50.0,1
234.0,18.0,-113.0,146.0,-41.0,-44.0,1
235.0,15.0,-109.0,147.0,-41.0,-38.0,1
237.0,11.0,-115.0,146.0,-41.0,-31.0,1
236.0,11.0,-111.0,143.0,-42.0,-28.0,1
236.0,13.0,-109.0,141.0,-42.0,-26.0,1
235.0,9.0,-112.0,137.0,-43.0,-21.0,1
234.0,18.0,-98.0,136.0,-41.0,-18.0,1
236.0,13.0,-111.0,134.0,-41.0,-16.0,1
234.0,9.0,-114.0,133.0,-40.0,-14.0,1
233.0,12.0,-114.0,130.0,-37.0,-11.0,1
233.0,13.0,-115.0,123.0,-35.0,-7.0,1
224.0,15.0,-112.0,115.0,-31.0,-5.0,1
233.0,9.0,-118.0,108.0,-27.0,-5.0,1
233.0,12.0,-110.0,99.0,-21.0,-2.0,1
231.0,10.0,-116.0,90.0,-16.0,3.0,1
233.0,13.0,-112.0,85.0,-9.0,6.0,1
234.0,12.0,-116.0,81.0,-5.0,8.0,1
229.0,9.0,-112.0,79.0,-2.0,11.0,1
234.0,7.0,-115.0,77.0,0.0,14.0,1
232.0,10.0,-116.0,78.0,4.0,13.0,1
238.0,6.0,-115.0,78.0,8.0,15.0,1
235.0,8.0,-112.0,79.0,11.0,17.0,1
240.0,7.0,-115.0,83.0,13.0,20.0,1
235.0,8.0,-115.0,85.0,15.0,23.0,1
236.0,11.0,-118.0,87.0,12.0,22.0,1
232.0,5.0,-115.0,89.0,12.0,24.0,1
233.0,5.0,-110.0,89.0,14.0,23.0,1
233.0,7.0,-117.0,89.0,15.0,23.0,1
234.0,3.0,-112.0,89.0,13.0,20.0,1
234.0,5.0,-111.0,89.0,12.0,18.0,1
232.0,8.0,-111.0,87.0,14.0,15.0,1
233.0,5.0,-109.0,82.0,19.0,14.0,1
234.0,5.0,-112.0,78.0,23.0,11.0,1
233.0,7.0,-112.0,76.0,23.0,10.0,1
234.0,3.0,-113.0,75.0,20.0,6.0,1
233.0,8.0,-112.0,77.0,16.0,4.0,1
234.0,8.0,-117.0,80.0,14.0,2.0,1
232.0,5.0,-114.0,79.0,17.0,0.0,1
235.0,4.0,-112.0,78.0,19.0,-1.0,1
233.0,3.0,-112.0,80.0,14.0,-2.0,1
235.0,2.0,-111.0,86.0,10.0,-4.0,1
232.0,6.0,-111.0,90.0,3.0,-6.0,1
232.0,7.0,-113.0,94.0,3.0,-10.0,1
230.0,2.0,-108.0,95.0,3.0,-12.0,1
234.0,3.0,-112.0,94.0,4.0,-15.0,1
235.0,5.0,-111.0,92.0,4.0,-17.0,1
232.0,6.0,-110.0,86.0,2.0,-21.0,1
232.0,4.0,-107.0,79.0,2.0,-26.0,1
228.0,8.0,-109.0,76.0,0.0,-29.0,1
232.0,6.0,-112.0,75.0,-3.0,-30.0,1
228.0,6.0,-108.0,77.0,-7.0,-33.0,1
231.0,6.0,-111.0,80.0,-8.0,-34.0,1
231.0,7.0,-111.0,82.0,-11.0,-36.0,1
235.0,7.0,-112.0,83.0,-10.0,-34.0,1
234.0,6.0,-115.0,83.0,-10.0,-36.0,1
232.0,6.0,-114.0,84.0,-9.0,-36.0,1
233.0,9.0,-117.0,86.0,-8.0,-37.0,1
230.0,9.0,-115.0,87.0,-6.0,-36.0,1
230.0,9.0,-112.0,84.0,-5.0,-34.0,1
231.0,7.0,-110.0,80.0,-3.0,-35.0,1
234.0,9.0,-114.0,72.0,-2.0,-36.0,1
231.0,5.0,-112.0,66.0,-1.0,-37.0,1
232.0,7.0,-111.0,61.0,0.0,-36.0,1
232.0,10.0,-109.0,58.0,-1.0,-35.0,1
231.0,10.0,-112.0,53.0,-2.0,-35.0,1
233.0,8.0,-114.0,49.0,-4.0,-34.0,1
232.0,10.0,-112.0,44.0,-6.0,-36.0,1
231.0,10.0,-112.0,40.0,-8.0,-35.0,1
233.0,7.0,-117.0,39.0,-9.0,-37.0,1
234.0,8.0,-118.0,39.0,-7.0,-40.0,1
237.0,7.0,-115.0,40.0,-2.0,-41.0,1
235.0,2.0,-114.0,50.0,3.0,-35.0,1
235.0,4.0,-116.0,74.0,9.0,-27.0,1
239.0,3.0,-116.0,100.0,13.0,-24.0,1
235.0,14.0,-114.0,117.0,16.0,-22.0,1
233.0,10.0,-114.0,124.0,17.0,-24.0,1
236.0,12.0,-117.0,120.0,18.0,-24.0,1
235.0,14.0,-116.0,112.0,19.0,-22.0,1
233.0,15.0,-115.0,100.0,23.0,-17.0,1
229.0,10.0,-114.0,84.0,26.0,-13.0,1
230.0,13.0,-114.0,65.0,29.0,-13.0,1
231.0,5.0,-107.0,52.0,30.0,-9.0,1
231.0,3.0,-107.0,48.0,29.0,-11.0,1
233.0,6.0,-115.0,48.0,27.0,-17.0,1
244.0,3.0,-108.0,46.0,28.0,-26.0,1
229.0,-3.0,-109.0,53.0,33.0,-30.0,1
239.0,-6.0,-111.0,93.0,41.0,-18.0,1
237.0,0.0,-111.0,142.0,44.0,-22.0,1
235.0,1.0,-108.0,171.0,40.0,-33.0,1
233.0,8.0,-111.0,182.0,33.0,-42.0,1
235.0,10.0,-116.0,186.0,28.0,-45.0,1
232.0,14.0,-113.0,185.0,21.0,-44.0,1
234.0,15.0,-114.0,176.0,18.0,-40.0,1
232.0,17.0,-114.0,163.0,16.0,-33.0,1
233.0,23.0,-133.0,151.0,18.0,-26.0,1
232.0,16.0,-116.0,136.0,22.0,-18.0,1
228.0,12.0,-112.0,117.0,29.0,-16.0,1
229.0,13.0,-110.0,95.0,36.0,-14.0,1
228.0,10.0,-113.0,79.0,39.0,-14.0,1
230.0,3.0,-103.0,68.0,34.0,-17.0,1
229.0,1.0,-103.0,67.0,24.0,-22.0,1
232.0,1.0,-105.0,72.0,12.0,-27.0,1
230.0,0.0,-104.0,79.0,1.0,-33.0,1
229.0,3.0,-101.0,82.0,-8.0,-40.0,1
233.0,4.0,-109.0,82.0,-18.0,-47.0,1
230.0,8.0,-111.0,79.0,-26.0,-53.0,1
232.0,8.0,-113.0,73.0,-29.0,-56.0,1
233.0,9.0,-117.0,72.0,-31.0,-56.0,1
235.0,8.0,-114.0,76.0,-27.0,-54.0,1
236.0,9.0,-118.0,82.0,-23.0,-53.0,1
238.0,5.0,-118.0,91.0,-15.0,-49.0,1
239.0,8.0,-118.0,104.0,-7.0,-45.0,1
235.0,13.0,-116.0,113.0,-3.0,-39.0,1
236.0,12.0,-118.0,120.0,1.0,-34.0,1
236.0,11.0,-121.0,122.0,2.0,-29.0,1
233.0,10.0,-115.0,124.0,4.0,-26.0,1
235.0,8.0,-116.0,128.0,9.0,-21.0,1
233.0,5.0,-115.0,132.0,12.0,-17.0,1
234.0,7.0,-119.0,138.0,14.0,-13.0,1
234.0,6.0,-114.0,143.0,15.0,-11.0,1
233.0,6.0,-110.0,148.0,15.0,-9.0,1
228.0,10.0,-109.0,150.0,13.0,-9.0,1
231.0,9.0,-112.0,148.0,9.0,-8.0,1
232.0,8.0,-110.0,142.0,3.0,-9.0,1
231.0,9.0,-109.0,133.0,0.0,-12.0,1
229.0,9.0,-110.0,119.0,-1.0,-14.0,1
228.0,10.0,-109.0,100.0,-2.0,-20.0,1
228.0,8.0,-110.0,76.0,-1.0,-27.0,1
232.0,4.0,-108.0,57.0,-2.0,-32.0,1
231.0,5.0,-112.0,45.0,-6.0,-37.0,1
234.0,1.0,-112.0,45.0,-11.0,-40.0,1
233.0,2.0,-112.0,55.0,-15.0,-39.0,1
235.0,4.0,-115.0,74.0,-17.0,-36.0,1
237.0,1.0,-114.0,95.0,-17.0,-35.0,1
233.0,7.0,-115.0,111.0,-14.0,-36.0,1
241.0,7.0,-120.0,125.0,-11.0,-36.0,1
237.0,10.0,-117.0,134.0,-8.0,-34.0,1
239.0,11.0,-121.0,137.0,-2.0,-31.0,1
235.0,9.0,-116.0,140.0,3.0,-28.0,1
235.0,12.0,-118.0,140.0,8.0,-24.0,1
235.0,9.0,-117.0,138.0,14.0,-19.0,1
236.0,9.0,-118.0,138.0,21.0,-15.0,1
232.0,7.0,-114.0,139.0,26.0,-10.0,1
234.0,9.0,-113.0,141.0,30.0,-4.0,1
231.0,6.0,-118.0,147.0,30.0,-1.0,1
231.0,7.0,-112.0,154.0,30.0,2.0,1
234.0,1.0,-112.0,165.0,27.0,5.0,1
231.0,6.0,-111.0,176.0,19.0,4.0,1
232.0,2.0,-115.0,188.0,11.0,8.0,1
233.0,5.0,-113.0,195.0,3.0,7.0,1
233.0,7.0,-114.0,197.0,-1.0,9.0,1
231.0,5.0,-113.0,192.0,-4.0,7.0,1
230.0,7.0,-114.0,180.0,-2.0,4.0,1
228.0,6.0,-111.0,162.0,3.0,-1.0,1
228.0,2.0,-111.0,141.0,10.0,-9.0,1
229.0,0.0,-110.0,129.0,14.0,-16.0,1
231.0,-6.0,-105.0,132.0,12.0,-24.0,1
232.0,-10.0,-109.0,156.0,6.0,-31.0,1
236.0,-8.0,-111.0,198.0,0.0,-35.0,1
236.0,-9.0,-113.0,253.0,-3.0,-39.0,1
238.0,-10.0,-117.0,307.0,-5.0,-45.0,1
245.0,-5.0,-119.0,355.0,-7.0,-56.0,1
241.0,-1.0,-117.0,389.0,-6.0,-65.0,1
245.0,0.0,-120.0,413.0,-2.0,-74.0,1
239.0,6.0,-125.0,428.0,8.0,-81.0,1
237.0,11.0,-124.0,436.0,18.0,-82.0,1
240.0,10.0,-126.0,437.0,34.0,-80.0,1
241.0,15.0,-125.0,430.0,50.0,-73.0,1
238.0,16.0,-125.0,412.0,67.0,-63.0,1
233.0,21.0,-125.0,386.0,80.0,-50.0,1
231.0,19.0,-121.0,355.0,89.0,-35.0,1
243.0,12.0,-113.0,324.0,92.0,-22.0,1
230.0,13.0,-120.0,296.0,92.0,-8.0,1
233.0,13.0,-116.0,269.0,89.0,0.0,1
231.0,9.0,-116.0,249.0,85.0,9.0,1
227.0,4.0,-108.0,240.0,79.0,17.0,1
228.0,3.0,-109.0,237.0,72.0,25.0,1
227.0,2.0,-107.0,242.0,62.0,28.0,1
227.0,3.0,-102.0,246.0,46.0,28.0,1
223.0,3.0,-98.0,245.0,29.0,27.0,1
227.0,0.0,-105.0,239.0,13.0,22.0,1
226.0,5.0,-100.0,222.0,0.0,16.0,1
224.0,4.0,-101.0,202.0,-13.0,12.0,1
229.0,3.0,-104.0,178.0,-22.0,6.0,1
222.0,4.0,-100.0,152.0,-29.0,1.0,1
221.0,5.0,-101.0,124.0,-26.0,-5.0,1
223.0,5.0,-103.0,91.0,-19.0,-10.0,1
222.0,8.0,-98.0,50.0,-8.0,-16.0,1
221.0,3.0,-95.0,1.0,2.0,-24.0,1
227.0,1.0,-98.0,-29.0,5.0,-30.0,1
230.0,-2.0,-100.0,-43.0,5.0,-35.0,1
233.0,-6.0,-107.0,-36.0,2.0,-40.0,1
233.0,-7.0,-106.0,-11.0,-2.0,-41.0,1
239.0,-5.0,-115.0,25.0,-4.0,-45.0,1
238.0,-3.0,-117.0,59.0,-6.0,-48.0,1
243.0,-3.0,-122.0,91.0,-8.0,-50.0,1
240.0,0.0,-127.0,115.0,-7.0,-50.0,1
242.0,3.0,-124.0,130.0,-4.0,-49.0,1
241.0,6.0,-125.0,134.0,2.0,-47.0,1
236.0,6.0,-125.0,130.0,11.0,-43.0,1
236.0,9.0,-121.0,119.0,17.0,-38.0,1
235.0,9.0,-118.0,105.0,21.0,-30.0,1
235.0,9.0,-122.0,90.0,23.0,-22.0,1
235.0,7.0,-116.0,81.0,25.0,-15.0,1
233.0,5.0,-112.0,77.0,24.0,-8.0,1
233.0,3.0,-115.0,77.0,23.0,-4.0,1
231.0,3.0,-116.0,78.0,20.0,3.0,1
231.0,2.0,-114.0,83.0,13.0,6.0,1
229.0,3.0,-112.0,82.0,4.0,5.0,1
232.0,2.0,-106.0,81.0,2.0,8.0,1
230.0,4.0,-104.0,79.0,2.0,7.0,1
228.0,0.0,-110.0,68.0,3.0,5.0,1
227.0,3.0,-104.0,51.0,5.0,2.0,1
229.0,0.0,-105.0,32.0,8.0,-4.0,1
227.0,0.0,-104.0,14.0,11.0,-12.0,1
227.0,-2.0,-99.0,-1.0,15.0,-19.0,1
233.0,-2.0,-107.0,-6.0,15.0,-28.0,1
235.0,-1.0,-106.0,4.0,14.0,-31.0,1
236.0,0.0,-116.0,24.0,11.0,-33.0,1
232.0,0.0,-115.0,48.0,12.0,-36.0,1
233.0,3.0,-116.0,66.0,12.0,-36.0,1
235.0,5.0,-118.0,70.0,14.0,-36.0,1
235.0,2.0,-121.0,69.0,19.0,-34.0,1
238.0,4.0,-119.0,64.0,24.0,-33.0,1
236.0,6.0,-120.0,58.0,32.0,-31.0,1
233.0,3.0,-114.0,51.0,39.0,-29.0,1
237.0,1.0,-113.0,46.0,45.0,-29.0,1
231.0,0.0,-114.0,44.0,47.0,-28.0,1
234.0,0.0,-116.0,50.0,48.0,-29.0,1
234.0,1.0,-116.0,62.0,44.0,-27.0,1
235.0,0.0,-119.0,77.0,43.0,-27.0,1
240.0,1.0,-112.0,88.0,41.0,-25.0,1
234.0,4.0,-114.0,95.0,37.0,-24.0,1
232.0,4.0,-116.0,96.0,31.0,-21.0,1
230.0,6.0,-117.0,93.0,27.0,-20.0,1
228.0,5.0,-114.0,89.0,25.0,-18.0,1
233.0,2.0,-110.0,82.0,22.0,-15.0,1
233.0,1.0,-108.0,81.0,18.0,-14.0,1
231.0,2.0,-112.0,84.0,11.0,-12.0,1
233.0,1.0,-108.0,89.0,4.0,-12.0,1
232.0,3.0,-108.0,94.0,1.0,-11.0,1
229.0,2.0,-105.0,94.0,1.0,-7.0,1
226.0,4.0,-101.0,86.0,4.0,-6.0,1
229.0,4.0,-105.0,65.0,8.0,-11.0,1
226.0,4.0,-105.0,39.0,11.0,-15.0,1
227.0,1.0,-106.0,18.0,13.0,-22.0,1
229.0,1.0,-107.0,11.0,15.0,-22.0,1
233.0,-2.0,-109.0,19.0,15.0,-26.0,1
241.0,0.0,-111.0,36.0,16.0,-27.0,1
236.0,0.0,-118.0,58.0,15.0,-28.0,1
238.0,1.0,-116.0,76.0,14.0,-28.0,1
240.0,5.0,-116.0,87.0,12.0,-26.0,1
239.0,4.0,-116.0,91.0,14.0,-26.0,1
240.0,3.0,-123.0,91.0,17.0,-23.0,1
241.0,3.0,-120.0,86.0,21.0,-23.0,1
236.0,6.0,-117.0,81.0,24.0,-19.0,1
236.0,1.0,-114.0,78.0,27.0,-17.0,1
235.0,2.0,-116.0,77.0,27.0,-13.0,1
232.0,4.0,-108.0,78.0,24.0,-10.0,1
234.0,2.0,-114.0,81.0,21.0,-8.0,1
234.0,3.0,-111.0,84.0,17.0,-3.0,1
232.0,1.0,-114.0,88.0,12.0,-2.0,1
233.0,2.0,-114.0,92.0,8.0,2.0,1
231.0,4.0,-114.0,96.0,4.0,4.0,1
233.0,4.0,-111.0,99.0,0.0,7.0,1
236.0,-1.0,-112.0,103.0,-9.0,6.0,1
230.0,4.0,-115.0,107.0,-15.0,7.0,1
233.0,1.0,-111.0,113.0,-16.0,9.0,1
228.0,1.0,-112.0,116.0,-18.0,10.0,1
232.0,0.0,-113.0,118.0,-20.0,10.0,1
229.0,1.0,-108.0,121.0,-21.0,9.0,1
235.0,0.0,-111.0,122.0,-23.0,10.0,1
228.0,1.0,-107.0,117.0,-26.0,10.0,1
232.0,3.0,-108.0,108.0,-28.0,9.0,1
225.0,4.0,-110.0,93.0,-25.0,7.0,1
223.0,6.0,-107.0,71.0,-19.0,5.0,1
226.0,3.0,-105.0,45.0,-9.0,3.0,1
228.0,4.0,-99.0,15.0,0.0,-1.0,1
223.0,1.0,-101.0,-7.0,8.0,-7.0,1
232.0,0.0,-103.0,-19.0,14.0,-13.0,1
231.0,-1.0,-107.0,-14.0,13.0,-20.0,1
236.0,-5.0,-114.0,4.0,10.0,-25.0,1
237.0,-4.0,-111.0,28.0,9.0,-29.0,1
237.0,-1.0,-118.0,51.0,6.0,-33.0,1
240.0,0.0,-127.0,67.0,3.0,-35.0,1
239.0,3.0,-123.0,78.0,4.0,-38.0,1
242.0,3.0,-125.0,79.0,6.0,-37.0,1
238.0,7.0,-124.0,74.0,13.0,-34.0,1
237.0,4.0,-125.0,64.0,20.0,-29.0,1
237.0,3.0,-116.0,56.0,25.0,-24.0,1
238.0,2.0,-117.0,53.0,26.0,-17.0,1
233.0,5.0,-114.0,54.0,28.0,-10.0,1
232.0,2.0,-114.0,56.0,26.0,-6.0,1
234.0,1.0,-119.0,62.0,23.0,-2.0,1
236.0,3.0,-112.0,70.0,19.0,0.0,1
234.0,-1.0,-110.0,78.0,15.0,1.0,1
232.0,0.0,-113.0,86.0,10.0,1.0,1
231.0,2.0,-113.0,90.0,7.0,0.0,1
232.0,2.0,-110.0,93.0,5.0,0.0,1
231.0,4.0,-111.0,92.0,4.0,0.0,1
233.0,2.0,-108.0,89.0,4.0,0.0,1
231.0,1.0,-105.0,87.0,3.0,-3.0,1
228.0,3.0,-107.0,86.0,0.0,-3.0,1
228.0,1.0,-106.0,82.0,3.0,-2.0,1
227.0,2.0,-107.0,73.0,6.0,-2.0,1
227.0,2.0,-103.0,59.0,10.0,-5.0,1
228.0,1.0,-105.0,43.0,12.0,-8.0,1
229.0,-1.0,-104.0,32.0,15.0,-14.0,1
232.0,-2.0,-109.0,30.0,16.0,-18.0,1
233.0,-2.0,-111.0,32.0,17.0,-23.0,1
236.0,0.0,-113.0,40.0,19.0,-27.0,1
236.0,0.0,-114.0,53.0,18.0,-30.0,1
234.0,1.0,-123.0,64.0,19.0,-32.0,1
241.0,2.0,-119.0,72.0,24.0,-30.0,1
237.0,5.0,-122.0,75.0,33.0,-29.0,1
239.0,3.0,-120.0,73.0,41.0,-24.0,1
238.0,3.0,-119.0,69.0,51.0,-22.0,1
239.0,3.0,-122.0,66.0,55.0,-17.0,1
240.0,2.0,-122.0,65.0,59.0,-12.0,1
238.0,1.0,-120.0,61.0,60.0,-8.0,1
236.0,3.0,-116.0,57.0,58.0,-2.0,1
234.0,3.0,-115.0,58.0,58.0,2.0,1
232.0,1.0,-112.0,62.0,56.0,4.0,1
232.0,1.0,-109.0,66.0,53.0,7.0,1
235.0,2.0,-112.0,70.0,46.0,9.0,1
231.0,1.0,-112.0,75.0,39.0,9.0,1
230.0,1.0,-108.0,79.0,31.0,9.0,1
232.0,0.0,-109.0,81.0,24.0,10.0,1
232.0,1.0,-109.0,84.0,18.0,9.0,1
231.0,0.0,-104.0,86.0,15.0,9.0,1
231.0,2.0,-106.0,84.0,13.0,8.0,1
230.0,3.0,-107.0,81.0,9.0,5.0,1
229.0,2.0,-107.0,79.0,7.0,6.0,1
228.0,2.0,-104.0,76.0,2.0,4.0,1
228.0,1.0,-105.0,74.0,1.0,8.0,1
230.0,4.0,-106.0,72.0,2.0,10.0,1
229.0,3.0,-105.0,66.0,2.0,10.0,1
227.0,3.0,-106.0,58.0,-1.0,10.0,1
226.0,5.0,-106.0,44.0,-4.0,10.0,1
226.0,3.0,-105.0,27.0,-4.0,9.0,1
228.0,1.0,-104.0,7.0,-3.0,7.0,1
226.0,1.0,-102.0,-15.0,0.0,5.0,1
231.0,0.0,-104.0,-27.0,4.0,0.0,1
231.0,-1.0,-109.0,-29.0,7.0,-4.0,1
237.0,-6.0,-107.0,-21.0,7.0,-9.0,1
241.0,-4.0,-109.0,-6.0,6.0,-14.0,1
238.0,-1.0,-112.0,10.0,4.0,-19.0,1
239.0,-1.0,-115.0,24.0,1.0,-22.0,1
240.0,0.0,-120.0,36.0,-5.0,-24.0,1
242.0,1.0,-122.0,43.0,-5.0,-24.0,1
237.0,5.0,-125.0,45.0,-2.0,-22.0,1
240.0,4.0,-125.0,47.0,0.0,-19.0,1
240.0,1.0,-122.0,45.0,6.0,-17.0,1
237.0,6.0,-119.0,41.0,11.0,-11.0,1
235.0,5.0,-116.0,35.0,14.0,-6.0,1
236.0,2.0,-116.0,32.0,13.0,-2.0,1
237.0,0.0,-116.0,32.0,10.0,2.0,1
233.0,0.0,-110.0,38.0,8.0,6.0,1
232.0,1.0,-111.0,43.0,7.0,7.0,1
231.0,0.0,-108.0,48.0,9.0,9.0,1
234.0,-2.0,-109.0,50.0,4.0,6.0,1
232.0,-1.0,-106.0,54.0,2.0,2.0,1
229.0,1.0,-112.0,57.0,-1.0,-3.0,1
229.0,1.0,-110.0,57.0,-3.0,-4.0,1
230.0,0.0,-109.0,53.0,-3.0,-7.0,1
230.0,1.0,-109.0,46.0,-2.0,-9.0,1
229.0,0.0,-108.0,35.0,0.0,-12.0,1
228.0,1.0,-105.0,26.0,1.0,-12.0,1
228.0,0.0,-106.0,25.0,3.0,-15.0,1
229.0,-5.0,-105.0,27.0,7.0,-19.0,1
229.0,1.0,-104.0,31.0,10.0,-23.0,1
235.0,-2.0,-107.0,35.0,15.0,-25.0,1
230.0,0.0,-110.0,37.0,18.0,-28.0,1
234.0,-2.0,-115.0,44.0,20.0,-30.0,1
233.0,5.0,-111.0,49.0,22.0,-33.0,1
236.0,2.0,-116.0,53.0,25.0,-34.0,1
237.0,2.0,-120.0,56.0,27.0,-33.0,1
237.0,1.0,-118.0,56.0,25.0,-34.0,1
239.0,1.0,-120.0,61.0,26.0,-31.0,1
239.0,5.0,-122.0,64.0,28.0,-27.0,1
238.0,3.0,-121.0,67.0,34.0,-25.0,1
238.0,3.0,-117.0,66.0,39.0,-20.0,1
235.0,4.0,-118.0,63.0,38.0,-15.0,1
232.0,8.0,-117.0,61.0,35.0,-12.0,1
234.0,4.0,-111.0,59.0,34.0,-6.0,1
230.0,7.0,-113.0,61.0,32.0,-3.0,1
231.0,4.0,-113.0,64.0,26.0,0.0,1
231.0,1.0,-113.0,68.0,24.0,2.0,1
230.0,1.0,-110.0,73.0,22.0,3.0,1
234.0,0.0,-106.0,76.0,17.0,2.0,1
229.0,1.0,-112.0,78.0,15.0,0.0,1
232.0,1.0,-110.0,79.0,14.0,-2.0,1
232.0,3.0,-110.0,78.0,10.0,-4.0,1
231.0,2.0,-111.0,76.0,7.0,-3.0,1
234.0,2.0,-109.0,76.0,6.0,-4.0,1
231.0,2.0,-107.0,76.0,5.0,-6.0,1
230.0,0.0,-108.0,77.0,4.0,-2.0,1
229.0,3.0,-108.0,76.0,3.0,-2.0,1
229.0,2.0,-111.0,76.0,4.0,-2.0,1
228.0,1.0,-107.0,74.0,2.0,-2.0,1
230.0,4.0,-108.0,72.0,0.0,0.0,1
229.0,4.0,-108.0,69.0,1.0,0.0,1
231.0,1.0,-106.0,64.0,3.0,0.0,1
231.0,0.0,-109.0,57.0,7.0,1.0,1
232.0,1.0,-106.0,47.0,9.0,0.0,1
232.0,-1.0,-104.0,36.0,8.0,-2.0,1
231.0,0.0,-107.0,28.0,11.0,-5.0,1
231.0,-2.0,-109.0,25.0,12.0,-10.0,1
233.0,-3.0,-112.0,30.0,12.0,-12.0,1
235.0,-1.0,-113.0,39.0,11.0,-14.0,1
239.0,0.0,-114.0,51.0,10.0,-15.0,1
240.0,0.0,-116.0,59.0,8.0,-19.0,1
239.0,1.0,-118.0,66.0,7.0,-18.0,1
237.0,0.0,-120.0,68.0,6.0,-18.0,1
240.0,2.0,-119.0,68.0,7.0,-17.0,1
238.0,1.0,-121.0,64.0,10.0,-17.0,1
237.0,1.0,-118.0,59.0,11.0,-13.0,1
232.0,5.0,-116.0,55.0,11.0,-12.0,1
236.0,0.0,-111.0,52.0,13.0,-11.0,1
234.0,1.0,-115.0,50.0,13.0,-10.0,1
229.0,2.0,-116.0,48.0,12.0,-7.0,1
234.0,2.0,-108.0,48.0,11.0,-8.0,1
232.0,2.0,-108.0,49.0,8.0,-5.0,1
231.0,-1.0,-110.0,51.0,6.0,-5.0,1
232.0,0.0,-109.0,53.0,4.0,-6.0,1
229.0,2.0,-109.0,56.0,1.0,-5.0,1
231.0,0.0,-112.0,57.0,-1.0,-5.0,1
230.0,0.0,-116.0,56.0,-4.0,-5.0,1
233.0,0.0,-107.0,56.0,-6.0,-5.0,1
233.0,0.0,-110.0,59.0,-7.0,-4.0,1
230.0,2.0,-108.0,60.0,-6.0,-4.0,1
229.0,1.0,-109.0,60.0,-8.0,-6.0,1
233.0,0.0,-109.0,58.0,-8.0,-5.0,1
230.0,0.0,-110.0,53.0,-10.0,-6.0,1
230.0,2.0,-109.0,50.0,-12.0,-2.0,1
231.0,1.0,-112.0,49.0,-15.0,-1.0,1
231.0,1.0,-113.0,49.0,-16.0,-3.0,1
235.0,2.0,-117.0,49.0,-15.0,1.0,1
231.0,4.0,-113.0,49.0,-15.0,3.0,1
233.0,1.0,-115.0,50.0,-15.0,5.0,1
230.0,3.0,-111.0,48.0,-15.0,8.0,1
234.0,1.0,-115.0,45.0,-15.0,11.0,1
231.0,4.0,-111.0,41.0,-15.0,14.0,1
231.0,3.0,-112.0,35.0,-16.0,15.0,1
229.0,3.0,-112.0,30.0,-14.0,14.0,1
233.0,3.0,-111.0,27.0,-14.0,16.0,1
230.0,0.0,-114.0,25.0,-14.0,18.0,1
232.0,0.0,-113.0,26.0,-14.0,17.0,1
235.0,-1.0,-114.0,29.0,-15.0,17.0,1
235.0,1.0,-111.0,32.0,-17.0,15.0,1
235.0,-1.0,-114.0,35.0,-16.0,12.0,1
237.0,-3.0,-113.0,37.0,-17.0,8.0,1
235.0,-1.0,-111.0,37.0,-17.0,5.0,1
236.0,1.0,-112.0,38.0,-19.0,2.0,1
236.0,0.0,-115.0,40.0,-20.0,1.0,1
235.0,2.0,-113.0,41.0,-19.0,0.0,1
233.0,0.0,-114.0,43.0,-18.0,0.0,1
234.0,3.0,-115.0,44.0,-17.0,0.0,1
238.0,-1.0,-115.0,45.0,-15.0,2.0,1
234.0,3.0,-119.0,45.0,-13.0,2.0,1
229.0,1.0,-116.0,45.0,-12.0,3.0,1
232.0,1.0,-116.0,44.0,-10.0,3.0,1
232.0,0.0,-116.0,45.0,-9.0,2.0,1
233.0,0.0,-116.0,46.0,-7.0,4.0,1
235.0,0.0,-111.0,45.0,-4.0,5.0,1
230.0,0.0,-112.0,44.0,-4.0,4.0,1
231.0,3.0,-115.0,44.0,-5.0,2.0,1
232.0,1.0,-113.0,41.0,-7.0,2.0,1
230.0,-1.0,-114.0,38.0,-4.0,1.0,1
230.0,0.0,-111.0,34.0,-4.0,-2.0,1
233.0,-1.0,-108.0,27.0,-3.0,-4.0,1
231.0,-1.0,-113.0,23.0,-5.0,-9.0,1
234.0,0.0,-107.0,27.0,-2.0,-12.0,1
229.0,-1.0,-109.0,34.0,0.0,-15.0,1
230.0,0.0,-110.0,41.0,4.0,-18.0,1
233.0,0.0,-110.0,47.0,3.0,-23.0,1
231.0,-5.0,-113.0,50.0,1.0,-27.0,1
235.0,1.0,-119.0,55.0,0.0,-27.0,1
233.0,2.0,-114.0,59.0,3.0,-27.0,1
235.0,2.0,-118.0,61.0,6.0,-26.0,1
234.0,2.0,-120.0,62.0,8.0,-24.0,1
237.0,4.0,-120.0,61.0,13.0,-21.0,1
235.0,3.0,-119.0,55.0,16.0,-17.0,1
232.0,3.0,-113.0,48.0,18.0,-12.0,1
232.0,2.0,-114.0,42.0,19.0,-9.0,1
230.0,3.0,-115.0,39.0,22.0,-6.0,1
234.0,1.0,-117.0,37.0,22.0,-4.0,1
235.0,0.0,-115.0,38.0,23.0,-2.0,1
231.0,2.0,-110.0,38.0,26.0,0.0,1
233.0,2.0,-114.0,38.0,27.0,0.0,1
231.0,3.0,-114.0,35.0,26.0,0.0,1
235.0,3.0,-118.0,33.0,24.0,4.0,1
231.0,3.0,-113.0,32.0,23.0,3.0,1
232.0,1.0,-114.0,31.0,21.0,7.0,1
233.0,0.0,-118.0,33.0,21.0,10.0,1
230.0,1.0,-112.0,34.0,19.0,12.0,1
230.0,1.0,-113.0,34.0,18.0,12.0,1
231.0,0.0,-113.0,33.0,17.0,12.0,1
230.0,0.0,-110.0,32.0,15.0,12.0,1
229.0,4.0,-111.0,31.0,15.0,14.0,1
229.0,2.0,-113.0,26.0,13.0,14.0,1
227.0,3.0,-110.0,19.0,11.0,14.0,1
233.0,1.0,-111.0,8.0,5.0,14.0,1
231.0,0.0,-112.0,3.0,-1.0,11.0,1
229.0,0.0,-110.0,7.0,6.0,13.0,1
233.0,0.0,-114.0,16.0,5.0,14.0,1
234.0,-5.0,-112.0,21.0,2.0,13.0,1
233.0,-2.0,-112.0,18.0,-2.0,11.0,1
233.0,0.0,-113.0,13.0,-4.0,9.0,1
232.0,0.0,-111.0,12.0,-5.0,5.0,1
230.0,0.0,-112.0,11.0,-5.0,4.0,1
234.0,1.0,-112.0,11.0,-6.0,3.0,1
231.0,0.0,-112.0,12.0,-8.0,0.0,1
232.0,0.0,-113.0,13.0,-8.0,-2.0,1
231.0,0.0,-117.0,17.0,-7.0,-4.0,1
231.0,-2.0,-120.0,21.0,-4.0,-5.0,1
231.0,1.0,-116.0,28.0,-4.0,-8.0,1
235.0,0.0,-114.0,33.0,-4.0,-10.0,1
234.0,0.0,-117.0,37.0,-2.0,-11.0,1
240.0,-11.0,-114.0,42.0,2.0,-11.0,1
233.0,3.0,-116.0,45.0,2.0,-9.0,1
232.0,3.0,-120.0,46.0,5.0,-8.0,1
235.0,0.0,-119.0,49.0,6.0,-7.0,1
234.0,1.0,-121.0,53.0,7.0,-7.0,1
235.0,1.0,-119.0,54.0,8.0,-6.0,1
232.0,1.0,-113.0,57.0,11.0,-5.0,1
233.0,2.0,-116.0,60.0,11.0,-4.0,1
231.0,1.0,-115.0,63.0,10.0,-3.0,1
230.0,2.0,-117.0,64.0,12.0,-3.0,1
232.0,0.0,-120.0,64.0,11.0,-2.0,1
233.0,2.0,-115.0,63.0,12.0,-3.0,1
232.0,1.0,-118.0,62.0,13.0,0.0,1
233.0,0.0,-110.0,58.0,12.0,1.0,1
229.0,4.0,-113.0,58.0,11.0,1.0,1
232.0,0.0,-111.0,58.0,12.0,1.0,1
232.0,1.0,-114.0,58.0,12.0,3.0,1
231.0,1.0,-118.0,56.0,11.0,2.0,1
230.0,1.0,-113.0,54.0,11.0,2.0,1
236.0,0.0,-112.0,53.0,11.0,1.0,1
229.0,0.0,-113.0,53.0,10.0,2.0,1
233.0,0.0,-112.0,55.0,11.0,0.0,1
232.0,1.0,-115.0,56.0,10.0,-2.0,1
230.0,0.0,-111.0,58.0,11.0,-1.0,1
230.0,2.0,-110.0,58.0,10.0,-3.0,1
228.0,3.0,-117.0,56.0,10.0,0.0,1
230.0,3.0,-117.0,48.0,2.0,-3.0,1
233.0,0.0,-116.0,43.0,-3.0,-5.0,1
231.0,0.0,-111.0,47.0,6.0,-2.0,1
234.0,0.0,-112.0,55.0,9.0,1.0,1
233.0,-1.0,-114.0,62.0,6.0,-1.0,1
231.0,1.0,-113.0,63.0,5.0,-1.0,1
231.0,-1.0,-112.0,63.0,6.0,-2.0,1
231.0,1.0,-114.0,58.0,6.0,0.0,1
232.0,2.0,-111.0,50.0,3.0,-4.0,1
230.0,-1.0,-115.0,43.0,2.0,-4.0,1
233.0,0.0,-108.0,40.0,3.0,-2.0,1
230.0,0.0,-116.0,40.0,5.0,-1.0,1
230.0,0.0,-115.0,43.0,4.0,-2.0,1
234.0,2.0,-111.0,43.0,3.0,-5.0,1
232.0,0.0,-114.0,43.0,3.0,-5.0,1
231.0,1.0,-115.0,44.0,3.0,-5.0,1
229.0,3.0,-114.0,39.0,2.0,-4.0,1
233.0,1.0,-116.0,35.0,0.0,-5.0,1
234.0,2.0,-116.0,35.0,3.0,-5.0,1
231.0,1.0,-114.0,39.0,4.0,-3.0,1
234.0,0.0,-118.0,43.0,3.0,-2.0,1
234.0,0.0,-115.0,43.0,4.0,-3.0,1
232.0,0.0,-114.0,45.0,4.0,-5.0,1
233.0,0.0,-113.0,46.0,6.0,-3.0,1
232.0,1.0,-115.0,46.0,5.0,-5.0,1
233.0,2.0,-114.0,42.0,7.0,-3.0,1
230.0,2.0,-113.0,40.0,6.0,-1.0,1
231.0,0.0,-116.0,37.0,6.0,1.0,1
228.0,2.0,-114.0,37.0,5.0,-1.0,1
231.0,1.0,-117.0,35.0,6.0,1.0,1
233.0,1.0,-116.0,31.0,5.0,4.0,1
232.0,4.0,-116.0,28.0,0.0,0.0,1
233.0,0.0,-113.0,27.0,5.0,3.0,1
229.0,0.0,-113.0,31.0,7.0,3.0,1
233.0,0.0,-117.0,34.0,7.0,5.0,1
232.0,0.0,-114.0,35.0,9.0,6.0,1
234.0,1.0,-116.0,32.0,8.0,6.0,1
233.0,1.0,-113.0,29.0,3.0,5.0,1
231.0,-1.0,-115.0,26.0,3.0,6.0,1
232.0,0.0,-114.0,30.0,8.0,6.0,1
229.0,2.0,-114.0,33.0,9.0,7.0,1
231.0,1.0,-108.0,34.0,5.0,8.0,1
233.0,2.0,-113.0,36.0,4.0,9.0,1
229.0,1.0,-118.0,38.0,5.0,10.0,1
233.0,0.0,-116.0,37.0,5.0,8.0,1
233.0,2.0,-118.0,38.0,4.0,10.0,1
233.0,1.0,-115.0,38.0,5.0,12.0,1
230.0,4.0,-117.0,36.0,6.0,12.0,1
231.0,0.0,-112.0,33.0,9.0,13.0,1
229.0,3.0,-116.0,29.0,11.0,14.0,1
231.0,3.0,-119.0,25.0,10.0,14.0,1
228.0,8.0,-122.0,21.0,11.0,14.0,1
233.0,3.0,-114.0,18.0,14.0,16.0,1
233.0,1.0,-113.0,18.0,17.0,18.0,1
232.0,0.0,-111.0,18.0,17.0,22.0,1
231.0,3.0,-114.0,17.0,16.0,22.0,1
231.0,0.0,-117.0,17.0,16.0,23.0,1
231.0,2.0,-118.0,18.0,18.0,25.0,1
229.0,3.0,-115.0,16.0,18.0,28.0,1
229.0,3.0,-116.0,11.0,18.0,29.0,1
229.0,1.0,-113.0,1.0,15.0,29.0,1
226.0,6.0,-120.0,-9.0,9.0,28.0,1
230.0,2.0,-113.0,-20.0,7.0,25.0,1
230.0,0.0,-112.0,-25.0,6.0,24.0,1
231.0,-2.0,-112.0,-24.0,3.0,21.0,1
233.0,-5.0,-112.0,-17.0,2.0,17.0,1
232.0,-2.0,-110.0,-7.0,2.0,11.0,1
231.0,-3.0,-114.0,4.0,3.0,5.0,1
232.0,-4.0,-111.0,12.0,3.0,1.0,1
229.0,0.0,-118.0,18.0,3.0,-4.0,1
231.0,0.0,-115.0,19.0,3.0,-8.0,1
230.0,0.0,-115.0,20.0,0.0,-11.0,1
234.0,-5.0,-116.0,22.0,1.0,-13.0,1
234.0,-1.0,-118.0,28.0,1.0,-13.0,1
234.0,0.0,-120.0,34.0,0.0,-14.0,1
235.0,2.0,-114.0,39.0,2.0,-13.0,1
234.0,1.0,-115.0,44.0,4.0,-12.0,1
232.0,1.0,-115.0,42.0,5.0,-11.0,1
230.0,4.0,-119.0,37.0,9.0,-10.0,1
233.0,2.0,-115.0,31.0,11.0,-11.0,1
231.0,1.0,-114.0,27.0,11.0,-8.0,1
231.0,1.0,-114.0,24.0,11.0,-7.0,1
231.0,-2.0,-113.0,24.0,10.0,-8.0,1
233.0,0.0,-115.0,26.0,11.0,-8.0,1
230.0,-2.0,-116.0,32.0,12.0,-8.0,1
231.0,-3.0,-114.0,36.0,10.0,-12.0,1
230.0,-1.0,-113.0,39.0,10.0,-14.0,1
228.0,1.0,-117.0,40.0,10.0,-16.0,1
228.0,1.0,-114.0,39.0,10.0,-18.0,1
233.0,-2.0,-112.0,37.0,9.0,-20.0,1
230.0,-2.0,-117.0,37.0,9.0,-20.0,1
230.0,0.0,-114.0,44.0,7.0,-23.0,1
231.0,0.0,-117.0,51.0,8.0,-24.0,1
228.0,1.0,-117.0,56.0,9.0,-23.0,1
233.0,3.0,-117.0,56.0,8.0,-22.0,1
229.0,1.0,-115.0,51.0,8.0,-24.0,1
232.0,3.0,-114.0,47.0,8.0,-25.0,1
233.0,3.0,-115.0,40.0,8.0,-23.0,1
235.0,-2.0,-119.0,35.0,8.0,-23.0,1
236.0,2.0,-116.0,33.0,7.0,-23.0,1
232.0,1.0,-116.0,35.0,5.0,-21.0,1
234.0,1.0,-115.0,39.0,4.0,-20.0,1
232.0,2.0,-111.0,42.0,4.0,-19.0,1
231.0,2.0,-115.0,45.0,3.0,-17.0,1
232.0,1.0,-116.0,46.0,2.0,-17.0,1
229.0,5.0,-112.0,45.0,1.0,-16.0,1
236.0,1.0,-116.0,44.0,1.0,-14.0,1
233.0,2.0,-119.0,42.0,0.0,-13.0,1
234.0,1.0,-113.0,39.0,-1.0,-10.0,1
232.0,0.0,-115.0,37.0,0.0,-8.0,1
230.0,2.0,-114.0,37.0,0.0,-9.0,1
231.0,0.0,-116.0,38.0,-1.0,-9.0,1
232.0,1.0,-114.0,40.0,-2.0,-8.0,1
232.0,0.0,-114.0,45.0,-3.0,-6.0,1
234.0,0.0,-113.0,47.0,-4.0,-6.0,1
230.0,1.0,-113.0,50.0,-3.0,-6.0,1
231.0,2.0,-116.0,51.0,-6.0,-6.0,1
231.0,4.0,-116.0,50.0,-7.0,-5.0,1
232.0,3.0,-118.0,47.0,-11.0,-4.0,1
233.0,3.0,-117.0,41.0,-9.0,-4.0,1
231.0,0.0,-112.0,40.0,-3.0,-3.0,1
233.0,1.0,-114.0,42.0,-1.0,-1.0,1
233.0,1.0,-116.0,46.0,-1.0,0.0,1
229.0,0.0,-114.0,46.0,-1.0,1.0,1
231.0,0.0,-112.0,44.0,-5.0,-2.0,1
231.0,0.0,-118.0,41.0,-1.0,-2.0,1
229.0,-1.0,-115.0,43.0,4.0,-3.0,1
231.0,1.0,-116.0,47.0,4.0,-1.0,1
232.0,2.0,-116.0,49.0,1.0,-2.0,1
233.0,1.0,-114.0,49.0,2.0,-3.0,1
233.0,-1.0,-113.0,51.0,-1.0,-3.0,1
233.0,-4.0,-117.0,56.0,0.0,-3.0,1
234.0,0.0,-114.0,59.0,2.0,-4.0,1
232.0,1.0,-114.0,63.0,1.0,-5.0,1
230.0,1.0,-120.0,65.0,2.0,-7.0,1
230.0,4.0,-116.0,64.0,3.0,-10.0,1
231.0,0.0,-116.0,63.0,4.0,-10.0,1
232.0,2.0,-119.0,63.0,7.0,-10.0,1
231.0,9.0,-117.0,61.0,7.0,-8.0,1
233.0,0.0,-116.0,59.0,10.0,-8.0,1
230.0,1.0,-118.0,59.0,12.0,-8.0,1
230.0,-1.0,-114.0,59.0,12.0,-7.0,1
231.0,0.0,-112.0,61.0,13.0,-7.0,1
230.0,3.0,-117.0,59.0,13.0,-8.0,1
231.0,0.0,-114.0,58.0,15.0,-7.0,1
231.0,2.0,-118.0,56.0,13.0,-7.0,1
231.0,2.0,-116.0,53.0,14.0,-7.0,1
228.0,2.0,-115.0,52.0,12.0,-9.0,1
231.0,2.0,-112.0,48.0,11.0,-8.0,1
230.0,4.0,-116.0,45.0,10.0,-9.0,1
230.0,0.0,-113.0,42.0,9.0,-8.0,1
233.0,0.0,-112.0,41.0,6.0,-9.0,1
232.0,1.0,-116.0,43.0,5.0,-9.0,1
233.0,1.0,-112.0,46.0,4.0,-9.0,1
232.0,1.0,-118.0,49.0,4.0,-11.0,1
231.0,0.0,-113.0,51.0,4.0,-11.0,1
233.0,0.0,-117.0,53.0,3.0,-10.0,1
232.0,1.0,-114.0,50.0,4.0,-11.0,1
233.0,2.0,-115.0,50.0,4.0,-11.0,1
231.0,3.0,-122.0,47.0,5.0,-10.0,1
231.0,1.0,-116.0,45.0,6.0,-9.0,1
229.0,0.0,-114.0,46.0,8.0,-10.0,1
230.0,2.0,-115.0,47.0,8.0,-8.0,1
232.0,4.0,-119.0,46.0,9.0,-5.0,1
231.0,1.0,-113.0,45.0,11.0,-7.0,1
232.0,1.0,-112.0,45.0,11.0,-6.0,1
231.0,1.0,-116.0,45.0,12.0,-4.0,1
232.0,0.0,-117.0,45.0,12.0,-4.0,1
228.0,1.0,-117.0,45.0,11.0,-5.0,1
230.0,1.0,-117.0,46.0,13.0,-4.0,1
230.0,1.0,-118.0,46.0,14.0,-5.0,1
231.0,1.0,-113.0,47.0,13.0,-5.0,1
229.0,1.0,-115.0,48.0,14.0,-6.0,1
230.0,1.0,-114.0,47.0,14.0,-5.0,1
231.0,1.0,-116.0,48.0,15.0,-6.0,1
233.0,0.0,-115.0,47.0,15.0,-5.0,1
230.0,1.0,-115.0,48.0,14.0,-6.0,1
231.0,1.0,-112.0,48.0,15.0,-6.0,1
232.0,0.0,-118.0,49.0,14.0,-6.0,1
232.0,1.0,-112.0,49.0,13.0,-6.0,1
230.0,2.0,-116.0,51.0,14.0,-5.0,1
230.0,0.0,-116.0,51.0,13.0,-6.0,1
233.0,1.0,-117.0,50.0,15.0,-6.0,1
231.0,0.0,-115.0,48.0,14.0,-6.0,1
231.0,2.0,-115.0,48.0,14.0,-6.0,1
232.0,1.0,-114.0,47.0,14.0,-6.0,1
231.0,1.0,-115.0,47.0,14.0,-8.0,1
231.0,-1.0,-113.0,47.0,13.0,-8.0,1
233.0,0.0,-115.0,48.0,14.0,-8.0,1
230.0,0.0,-118.0,48.0,14.0,-7.0,1
230.0,-1.0,-114.0,48.0,14.0,-8.0,1
230.0,1.0,-116.0,49.0,14.0,-9.0,1
233.0,1.0,-114.0,50.0,14.0,-8.0,1
230.0,2.0,-111.0,48.0,15.0,-9.0,1
229.0,2.0,-113.0,47.0,14.0,-10.0,1
234.0,0.0,-113.0,44.0,13.0,-8.0,1
228.0,-2.0,-114.0,43.0,13.0,-9.0,1
229.0,1.0,-116.0,43.0,12.0,-10.0,1
231.0,1.0,-112.0,42.0,11.0,-9.0,1
230.0,0.0,-118.0,40.0,11.0,-8.0,1
232.0,2.0,-111.0,38.0,11.0,-9.0,1
231.0,0.0,-113.0,36.0,10.0,-11.0,1
232.0,-2.0,-113.0,35.0,10.0,-12.0,1
230.0,0.0,-116.0,37.0,9.0,-9.0,1
233.0,2.0,-115.0,43.0,7.0,-9.0,1
234.0,-2.0,-115.0,47.0,5.0,-9.0,1
231.0,1.0,-115.0,52.0,6.0,-8.0,1
231.0,1.0,-113.0,53.0,6.0,-8.0,1
233.0,2.0,-116.0,53.0,6.0,-7.0,1
233.0,4.0,-117.0,51.0,7.0,-7.0,1
234.0,0.0,-119.0,49.0,9.0,-4.0,1
232.0,2.0,-117.0,48.0,10.0,-3.0,1
229.0,2.0,-118.0,46.0,10.0,-3.0,1
232.0,0.0,-113.0,47.0,10.0,-2.0,1
229.0,0.0,-113.0,48.0,12.0,-2.0,1
229.0,0.0,-119.0,48.0,10.0,-1.0,1
231.0,2.0,-112.0,43.0,9.0,-2.0,1
233.0,0.0,-113.0,36.0,4.0,-6.0,1
226.0,0.0,-110.0,31.0,11.0,-5.0,1
234.0,-2.0,-115.0,33.0,9.0,-8.0,1
230.0,-3.0,-114.0,38.0,7.0,-11.0,1
230.0,-3.0,-120.0,44.0,5.0,-15.0,1
232.0,0.0,-118.0,47.0,4.0,-18.0,1
231.0,1.0,-116.0,50.0,4.0,-19.0,1
231.0,2.0,-118.0,49.0,6.0,-21.0,1
240.0,0.0,-117.0,48.0,9.0,-21.0,1
232.0,0.0,-115.0,47.0,10.0,-23.0,1
235.0,0.0,-117.0,44.0,10.0,-22.0,1
233.0,2.0,-115.0,44.0,10.0,-20.0,1
230.0,2.0,-118.0,44.0,12.0,-20.0,1
230.0,1.0,-117.0,43.0,13.0,-17.0,1
230.0,1.0,-117.0,45.0,13.0,-16.0,1
230.0,2.0,-119.0,46.0,13.0,-17.0,1
231.0,1.0,-117.0,45.0,14.0,-14.0,1
232.0,3.0,-115.0,43.0,17.0,-14.0,1
231.0,1.0,-118.0,41.0,16.0,-14.0,1
231.0,2.0,-116.0,38.0,17.0,-14.0,1
234.0,4.0,-118.0,34.0,18.0,-12.0,1
233.0,5.0,-118.0,29.0,17.0,-12.0,1
231.0,4.0,-115.0,21.0,17.0,-12.0,1
229.0,4.0,-114.0,14.0,16.0,-10.0,1
233.0,3.0,-113.0,5.0,17.0,-6.0,1
231.0,6.0,-117.0,-5.0,17.0,-6.0,1
230.0,6.0,-116.0,-16.0,17.0,-4.0,1
227.0,5.0,-117.0,-27.0,20.0,-1.0,1
228.0,5.0,-120.0,-40.0,19.0,1.0,1
227.0,4.0,-115.0,-47.0,17.0,1.0,1
230.0,3.0,-118.0,-51.0,18.0,2.0,1
230.0,3.0,-118.0,-53.0,19.0,4.0,1
231.0,3.0,-114.0,-53.0,19.0,6.0,1
230.0,3.0,-118.0,-50.0,18.0,8.0,1
232.0,2.0,-115.0,-49.0,16.0,9.0,1
227.0,4.0,-114.0,-47.0,13.0,12.0,1
231.0,7.0,-119.0,-50.0,9.0,18.0,1
230.0,4.0,-119.0,-62.0,-2.0,16.0,1
233.0,4.0,-118.0,-73.0,-5.0,18.0,1
229.0,6.0,-111.0,-78.0,-1.0,20.0,1
228.0,2.0,-115.0,-82.0,0.0,25.0,1
231.0,0.0,-115.0,-81.0,-3.0,25.0,1
232.0,0.0,-117.0,-83.0,-7.0,25.0,1
231.0,1.0,-116.0,-82.0,-7.0,23.0,1
230.0,0.0,-118.0,-76.0,-7.0,22.0,1
230.0,-1.0,-116.0,-66.0,-5.0,21.0,1
230.0,-4.0,-116.0,-57.0,-5.0,20.0,1
229.0,1.0,-115.0,-48.0,-6.0,17.0,1
232.0,0.0,-112.0,-44.0,-7.0,16.0,1
232.0,0.0,-117.0,-38.0,-9.0,13.0,1
233.0,0.0,-115.0,-33.0,-10.0,10.0,1
232.0,0.0,-123.0,-27.0,-9.0,8.0,1
233.0,1.0,-120.0,-20.0,-8.0,7.0,1
232.0,0.0,-115.0,-16.0,-7.0,6.0,1
231.0,1.0,-116.0,-12.0,-5.0,5.0,1
232.0,0.0,-118.0,-9.0,-2.0,4.0,1
232.0,1.0,-118.0,-6.0,-2.0,1.0,1
230.0,0.0,-115.0,-2.0,0.0,0.0,1
231.0,1.0,-118.0,0.0,4.0,-1.0,1
232.0,1.0,-115.0,4.0,6.0,-2.0,1
233.0,1.0,-118.0,7.0,8.0,-1.0,1
233.0,0.0,-116.0,10.0,8.0,-4.0,1
230.0,4.0,-115.0,12.0,8.0,-5.0,1
231.0,-1.0,-117.0,14.0,8.0,-6.0,1
234.0,1.0,-113.0,19.0,7.0,-8.0,1
231.0,1.0,-116.0,21.0,7.0,-10.0,1
232.0,1.0,-118.0,20.0,8.0,-10.0,1
234.0,0.0,-119.0,21.0,8.0,-11.0,1
231.0,1.0,-117.0,22.0,9.0,-12.0,1
231.0,1.0,-117.0,25.0,10.0,-11.0,1
231.0,2.0,-119.0,26.0,10.0,-12.0,1
232.0,1.0,-118.0,26.0,11.0,-13.0,1
229.0,4.0,-115.0,25.0,11.0,-12.0,1
232.0,0.0,-119.0,26.0,11.0,-11.0,1
231.0,2.0,-118.0,24.0,10.0,-13.0,1
232.0,2.0,-114.0,23.0,10.0,-12.0,1
230.0,3.0,-116.0,25.0,11.0,-13.0,1
230.0,5.0,-116.0,24.0,11.0,-15.0,1
232.0,0.0,-120.0,26.0,11.0,-14.0,1
230.0,1.0,-118.0,27.0,13.0,-13.0,1
232.0,1.0,-115.0,26.0,14.0,-13.0,1
230.0,3.0,-113.0,24.0,16.0,-13.0,1
230.0,6.0,-121.0,24.0,17.0,-15.0,1
230.0,5.0,-120.0,22.0,19.0,-15.0,1
233.0,5.0,-118.0,18.0,22.0,-15.0,1
236.0,4.0,-116.0,13.0,24.0,-15.0,1
230.0,5.0,-116.0,10.0,26.0,-15.0,1
229.0,4.0,-117.0,5.0,25.0,-15.0,1
227.0,4.0,-119.0,3.0,28.0,-22.0,1
231.0,3.0,-118.0,-3.0,28.0,-13.0,1
231.0,1.0,-117.0,-8.0,30.0,-11.0,1
230.0,3.0,-116.0,-9.0,28.0,-11.0,1
227.0,5.0,-116.0,-6.0,27.0,-12.0,1
228.0,5.0,-119.0,-8.0,26.0,-9.0,1
228.0,3.0,-119.0,-10.0,26.0,-7.0,1
232.0,18.0,-117.0,-14.0,26.0,-8.0,1
228.0,3.0,-114.0,-19.0,25.0,-7.0,1
229.0,4.0,-115.0,-24.0,27.0,-8.0,1
229.0,5.0,-116.0,-29.0,28.0,-7.0,1
230.0,3.0,-119.0,-33.0,29.0,-6.0,1
231.0,3.0,-116.0,-36.0,30.0,-5.0,1
229.0,5.0,-115.0,-37.0,32.0,-5.0,1
230.0,5.0,-114.0,-37.0,31.0,-5.0,1
229.0,3.0,-120.0,-36.0,30.0,-3.0,1
233.0,4.0,-113.0,-35.0,29.0,-4.0,1
230.0,2.0,-117.0,-34.0,29.0,-3.0,1
232.0,2.0,-115.0,-34.0,29.0,-2.0,1
231.0,5.0,-116.0,-34.0,30.0,-3.0,1
227.0,5.0,-117.0,-34.0,33.0,-3.0,1
233.0,3.0,-115.0,-35.0,33.0,-3.0,1
231.0,5.0,-119.0,-33.0,34.0,-1.0,1
232.0,6.0,-114.0,-34.0,33.0,-2.0,1
230.0,2.0,-117.0,-32.0,35.0,0.0,1
231.0,5.0,-119.0,-32.0,33.0,3.0,1
233.0,6.0,-117.0,-35.0,30.0,0.0,1
233.0,4.0,-121.0,-32.0,33.0,1.0,1
232.0,2.0,-115.0,-27.0,34.0,2.0,1
235.0,4.0,-116.0,-19.0,34.0,2.0,1
232.0,3.0,-119.0,-13.0,36.0,3.0,1
236.0,2.0,-117.0,-7.0,36.0,3.0,1
233.0,4.0,-120.0,-3.0,37.0,3.0,1
229.0,5.0,-116.0,2.0,38.0,3.0,1
231.0,3.0,-119.0,6.0,39.0,6.0,1
230.0,5.0,-117.0,7.0,37.0,6.0,1
231.0,3.0,-115.0,7.0,37.0,6.0,1
233.0,1.0,-116.0,5.0,36.0,5.0,1
231.0,2.0,-117.0,5.0,34.0,4.0,1
227.0,4.0,-113.0,6.0,31.0,3.0,1
230.0,1.0,-112.0,5.0,31.0,0.0,1
232.0,2.0,-113.0,2.0,28.0,-3.0,1
229.0,4.0,-113.0,-4.0,28.0,-6.0,1
230.0,1.0,-111.0,-11.0,25.0,-6.0,1
228.0,5.0,-115.0,-12.0,22.0,-8.0,1
229.0,3.0,-114.0,-8.0,18.0,-12.0,1
231.0,2.0,-116.0,-3.0,16.0,-13.0,1
234.0,1.0,-117.0,2.0,15.0,-15.0,1
229.0,3.0,-112.0,8.0,13.0,-14.0,1
228.0,2.0,-115.0,14.0,9.0,-17.0,1
231.0,4.0,-112.0,20.0,6.0,-18.0,1
221.0,6.0,-111.0,24.0,5.0,-20.0,1
232.0,7.0,-118.0,27.0,5.0,-20.0,1
233.0,7.0,-115.0,29.0,6.0,-21.0,1
232.0,7.0,-116.0,30.0,9.0,-20.0,1
233.0,4.0,-119.0,30.0,9.0,-18.0,1
231.0,4.0,-121.0,31.0,10.0,-17.0,1
230.0,5.0,-117.0,33.0,10.0,-15.0,1
232.0,3.0,-118.0,35.0,10.0,-15.0,1
234.0,5.0,-116.0,37.0,11.0,-12.0,1
232.0,3.0,-120.0,40.0,12.0,-12.0,1
236.0,4.0,-116.0,44.0,13.0,-10.0,1
233.0,5.0,-116.0,48.0,14.0,-8.0,1
232.0,4.0,-117.0,52.0,14.0,-7.0,1
232.0,6.0,-116.0,56.0,14.0,-5.0,1
231.0,4.0,-114.0,59.0,15.0,-6.0,1
232.0,4.0,-115.0,61.0,16.0,-4.0,1
231.0,3.0,-117.0,62.0,16.0,-2.0,1
232.0,5.0,-118.0,62.0,16.0,-2.0,1
229.0,3.0,-119.0,64.0,16.0,-2.0,1
231.0,3.0,-113.0,65.0,17.0,0.0,1
230.0,6.0,-113.0,66.0,16.0,-1.0,1
230.0,5.0,-115.0,65.0,18.0,-2.0,1
231.0,3.0,-115.0,65.0,18.0,0.0,1
232.0,7.0,-116.0,65.0,19.0,-1.0,1
229.0,8.0,-113.0,64.0,19.0,-2.0,1
231.0,4.0,-115.0,64.0,21.0,-1.0,1
230.0,5.0,-117.0,65.0,21.0,-4.0,1
232.0,4.0,-115.0,65.0,21.0,-2.0,1
231.0,2.0,-115.0,64.0,20.0,-2.0,1
231.0,5.0,-117.0,64.0,22.0,-1.0,1
232.0,3.0,-116.0,66.0,21.0,-2.0,1
231.0,5.0,-113.0,64.0,22.0,-3.0,1
231.0,2.0,-115.0,65.0,20.0,-2.0,1
229.0,2.0,-118.0,65.0,19.0,-2.0,1
231.0,4.0,-118.0,65.0,18.0,-2.0,1
234.0,5.0,-114.0,65.0,18.0,-3.0,1
233.0,2.0,-113.0,65.0,19.0,-5.0,1
230.0,3.0,-116.0,64.0,18.0,-5.0,1
234.0,4.0,-116.0,64.0,16.0,-4.0,1
233.0,4.0,-116.0,63.0,15.0,-6.0,1
232.0,1.0,-116.0,63.0,14.0,-7.0,1
234.0,3.0,-114.0,63.0,14.0,-6.0,1
231.0,4.0,-114.0,64.0,17.0,-6.0,1
232.0,16.0,-114.0,64.0,15.0,-6.0,1
235.0,3.0,-114.0,64.0,14.0,-6.0,1
230.0,5.0,-116.0,63.0,14.0,-7.0,1
233.0,4.0,-116.0,63.0,14.0,-8.0,1
233.0,1.0,-114.0,63.0,14.0,-7.0,1
231.0,2.0,-113.0,62.0,12.0,-8.0,1
232.0,3.0,-111.0,63.0,11.0,-8.0,1
231.0,3.0,-113.0,63.0,10.0,-9.0,1
232.0,3.0,-114.0,63.0,8.0,-11.0,1
232.0,6.0,-114.0,65.0,8.0,-12.0,1
229.0,4.0,-120.0,64.0,7.0,-10.0,1
231.0,3.0,-117.0,64.0,7.0,-9.0,1
234.0,1.0,-116.0,64.0,6.0,-10.0,1
233.0,6.0,-115.0,64.0,7.0,-10.0,1
234.0,3.0,-117.0,65.0,5.0,-10.0,1
232.0,4.0,-117.0,66.0,6.0,-11.0,1
230.0,4.0,-119.0,66.0,5.0,-11.0,1
232.0,3.0,-113.0,68.0,6.0,-12.0,1
234.0,5.0,-121.0,70.0,6.0,-10.0,1
230.0,3.0,-117.0,72.0,6.0,-11.0,1
233.0,6.0,-118.0,75.0,5.0,-10.0,1
232.0,6.0,-116.0,75.0,6.0,-9.0,1
228.0,3.0,-115.0,75.0,7.0,-11.0,1
233.0,4.0,-115.0,75.0,8.0,-10.0,1
232.0,1.0,-115.0,74.0,10.0,-11.0,1
233.0,3.0,-115.0,74.0,10.0,-10.0,1
232.0,3.0,-118.0,74.0,11.0,-9.0,1
232.0,4.0,-115.0,72.0,12.0,-8.0,1
233.0,2.0,-113.0,72.0,12.0,-10.0,1
229.0,6.0,-113.0,69.0,12.0,-9.0,1
233.0,3.0,-112.0,69.0,10.0,-8.0,1
231.0,4.0,-117.0,68.0,11.0,-10.0,1
231.0,5.0,-116.0,67.0,9.0,-10.0,1
231.0,3.0,-114.0,67.0,9.0,-11.0,1
229.0,5.0,-116.0,64.0,10.0,-13.0,1
231.0,4.0,-111.0,61.0,9.0,-13.0,1
232.0,4.0,-110.0,55.0,9.0,-12.0,1
230.0,4.0,-113.0,53.0,9.0,-12.0,1
231.0,4.0,-112.0,51.0,7.0,-13.0,1
231.0,3.0,-114.0,50.0,6.0,-15.0,1
231.0,5.0,-111.0,50.0,5.0,-16.0,1
231.0,6.0,-115.0,50.0,5.0,-15.0,1
232.0,5.0,-114.0,51.0,5.0,-14.0,1
232.0,3.0,-115.0,51.0,7.0,-13.0,1
232.0,5.0,-117.0,53.0,9.0,-13.0,1
232.0,2.0,-116.0,53.0,10.0,-13.0,1
229.0,6.0,-120.0,54.0,12.0,-11.0,1
232.0,6.0,-117.0,56.0,14.0,-8.0,1
231.0,3.0,-119.0,57.0,16.0,-8.0,1
233.0,3.0,-116.0,59.0,17.0,-6.0,1
231.0,6.0,-116.0,61.0,17.0,-4.0,1
232.0,5.0,-117.0,63.0,17.0,-1.0,1
231.0,0.0,-115.0,68.0,16.0,-3.0,1
231.0,3.0,-115.0,73.0,15.0,-3.0,1
233.0,3.0,-114.0,73.0,15.0,-3.0,1
233.0,4.0,-119.0,75.0,15.0,-4.0,1
232.0,3.0,-113.0,74.0,15.0,-2.0,1
229.0,7.0,-113.0,73.0,15.0,-3.0,1
231.0,2.0,-116.0,73.0,14.0,-4.0,1
233.0,2.0,-112.0,72.0,15.0,-5.0,1
231.0,1.0,-114.0,69.0,14.0,-6.0,1
229.0,7.0,-115.0,67.0,14.0,-4.0,1
228.0,6.0,-115.0,65.0,15.0,-6.0,1
230.0,3.0,-114.0,62.0,16.0,-7.0,1
232.0,2.0,-114.0,59.0,17.0,-7.0,1
232.0,3.0,-111.0,57.0,17.0,-7.0,1
232.0,5.0,-116.0,57.0,18.0,-7.0,1
232.0,1.0,-115.0,56.0,17.0,-5.0,1
231.0,4.0,-114.0,55.0,14.0,-8.0,1
232.0,5.0,-116.0,54.0,15.0,-7.0,1
229.0,3.0,-110.0,53.0,12.0,-8.0,1
229.0,1.0,-113.0,51.0,11.0,-9.0,1
232.0,4.0,-116.0,49.0,11.0,-11.0,1
230.0,2.0,-116.0,51.0,9.0,-14.0,1
235.0,2.0,-120.0,52.0,7.0,-15.0,1
231.0,2.0,-120.0,53.0,8.0,-17.0,1
229.0,3.0,-115.0,51.0,9.0,-18.0,1
228.0,3.0,-113.0,52.0,11.0,-18.0,1
233.0,-2.0,-113.0,58.0,9.0,-14.0,1
233.0,1.0,-113.0,70.0,6.0,-17.0,1
232.0,1.0,-114.0,79.0,5.0,-19.0,1
232.0,1.0,-117.0,84.0,7.0,-22.0,1
233.0,2.0,-117.0,86.0,6.0,-23.0,1
234.0,3.0,-115.0,89.0,8.0,-24.0,1
235.0,3.0,-115.0,89.0,6.0,-25.0,1
231.0,4.0,-119.0,89.0,8.0,-23.0,1
230.0,6.0,-115.0,89.0,8.0,-21.0,1
236.0,12.0,-135.0,89.0,8.0,-20.0,1
232.0,7.0,-113.0,90.0,9.0,-17.0,1
232.0,6.0,-117.0,88.0,10.0,-17.0,1
229.0,4.0,-116.0,87.0,11.0,-14.0,1
234.0,5.0,-111.0,86.0,10.0,-14.0,1
232.0,4.0,-120.0,84.0,9.0,-13.0,1
230.0,6.0,-118.0,83.0,10.0,-12.0,1
231.0,3.0,-119.0,82.0,11.0,-12.0,1
233.0,4.0,-116.0,83.0,11.0,-12.0,1
233.0,4.0,-115.0,85.0,12.0,-12.0,1
233.0,5.0,-116.0,85.0,12.0,-11.0,1
234.0,1.0,-119.0,84.0,13.0,-12.0,1
231.0,1.0,-116.0,85.0,15.0,-11.0,1
232.0,5.0,-116.0,85.0,16.0,-11.0,1
231.0,4.0,-117.0,84.0,18.0,-8.0,1
231.0,3.0,-116.0,82.0,18.0,-8.0,1
232.0,4.0,-113.0,81.0,18.0,-8.0,1
232.0,4.0,-116.0,80.0,18.0,-6.0,1
232.0,3.0,-114.0,79.0,19.0,-6.0,1
231.0,3.0,-115.0,81.0,19.0,-4.0,1
231.0,4.0,-117.0,79.0,19.0,-4.0,1
231.0,3.0,-113.0,80.0,20.0,-2.0,1
231.0,2.0,-116.0,79.0,18.0,-1.0,1
230.0,2.0,-114.0,79.0,19.0,-3.0,1
231.0,2.0,-113.0,79.0,19.0,-2.0,1
234.0,2.0,-115.0,79.0,16.0,0.0,1
229.0,2.0,-117.0,80.0,15.0,-1.0,1
231.0,2.0,-115.0,80.0,14.0,-1.0,1
232.0,3.0,-115.0,82.0,13.0,-2.0,1
231.0,3.0,-112.0,85.0,13.0,-3.0,1
231.0,3.0,-114.0,86.0,12.0,-2.0,1
230.0,1.0,-116.0,87.0,13.0,-2.0,1
230.0,2.0,-112.0,86.0,15.0,-1.0,1
230.0,2.0,-116.0,86.0,14.0,-4.0,1
231.0,4.0,-115.0,83.0,16.0,-6.0,1
233.0,2.0,-114.0,82.0,13.0,-7.0,1
229.0,3.0,-114.0,79.0,13.0,-8.0,1
232.0,1.0,-115.0,78.0,14.0,-11.0,1
230.0,2.0,-114.0,77.0,14.0,-9.0,1
228.0,7.0,-113.0,75.0,12.0,-11.0,1
231.0,1.0,-115.0,71.0,11.0,-11.0,1
232.0,1.0,-115.0,66.0,13.0,-13.0,1
233.0,3.0,-113.0,63.0,13.0,-12.0,1
228.0,4.0,-113.0,58.0,12.0,-11.0,1
228.0,4.0,-117.0,54.0,12.0,-13.0,1
231.0,3.0,-111.0,52.0,12.0,-12.0,1
231.0,5.0,-115.0,53.0,11.0,-13.0,1
236.0,1.0,-115.0,53.0,8.0,-14.0,1
230.0,3.0,-116.0,54.0,9.0,-14.0,1
231.0,3.0,-118.0,55.0,8.0,-14.0,1
232.0,0.0,-115.0,57.0,8.0,-15.0,1
233.0,3.0,-115.0,59.0,9.0,-14.0,1
232.0,1.0,-118.0,60.0,7.0,-13.0,1
232.0,3.0,-116.0,62.0,7.0,-13.0,1
230.0,4.0,-116.0,62.0,7.0,-12.0,1
233.0,4.0,-118.0,63.0,5.0,-12.0,1
231.0,2.0,-116.0,65.0,3.0,-12.0,1
229.0,2.0,-113.0,66.0,3.0,-13.0,1
234.0,3.0,-119.0,68.0,6.0,-11.0,1
231.0,4.0,-114.0,71.0,8.0,-11.0,1
232.0,3.0,-116.0,73.0,8.0,-9.0,1
231.0,3.0,-117.0,73.0,8.0,-9.0,1
232.0,2.0,-118.0,73.0,8.0,-9.0,1
230.0,5.0,-114.0,74.0,9.0,-7.0,1
229.0,2.0,-112.0,73.0,9.0,-6.0,1
228.0,2.0,-114.0,74.0,8.0,-7.0,1
234.0,1.0,-115.0,72.0,8.0,-9.0,1
230.0,0.0,-112.0,71.0,7.0,-8.0,1
230.0,3.0,-114.0,72.0,7.0,-8.0,1
230.0,1.0,-116.0,72.0,8.0,-8.0,1
228.0,2.0,-117.0,70.0,7.0,-6.0,1
233.0,2.0,-113.0,70.0,7.0,-8.0,1
232.0,3.0,-119.0,68.0,8.0,-7.0,1
228.0,3.0,-119.0,66.0,8.0,-7.0,1
231.0,4.0,-113.0,63.0,10.0,-7.0,1
230.0,2.0,-117.0,60.0,13.0,-6.0,1
231.0,2.0,-113.0,60.0,14.0,-6.0,1
237.0,4.0,-121.0,59.0,15.0,-7.0,1
231.0,4.0,-116.0,58.0,17.0,-5.0,1
232.0,2.0,-113.0,57.0,18.0,-6.0,1
229.0,2.0,-114.0,57.0,19.0,-6.0,1
232.0,3.0,-118.0,57.0,20.0,-4.0,1
233.0,3.0,-112.0,56.0,20.0,-4.0,1
231.0,2.0,-113.0,55.0,21.0,-4.0,1
230.0,1.0,-116.0,53.0,18.0,-2.0,1
227.0,7.0,-115.0,53.0,18.0,-3.0,1
230.0,3.0,-116.0,50.0,19.0,-4.0,1
229.0,1.0,-112.0,47.0,19.0,-3.0,1
230.0,3.0,-116.0,46.0,18.0,-2.0,1
231.0,4.0,-114.0,43.0,19.0,-4.0,1
233.0,3.0,-117.0,40.0,18.0,-4.0,1
230.0,2.0,-115.0,39.0,17.0,-4.0,1
232.0,0.0,-118.0,39.0,17.0,-3.0,1
233.0,2.0,-118.0,38.0,16.0,-4.0,1
232.0,3.0,-114.0,39.0,17.0,-5.0,1
229.0,1.0,-114.0,39.0,18.0,-4.0,1
230.0,3.0,-118.0,38.0,17.0,-5.0,1
231.0,4.0,-114.0,37.0,18.0,-5.0,1
229.0,7.0,-116.0,34.0,20.0,-4.0,1
231.0,6.0,-117.0,31.0,19.0,-2.0,1
231.0,2.0,-116.0,31.0,18.0,-2.0,1
235.0,3.0,-114.0,29.0,20.0,0.0,1
231.0,2.0,-116.0,29.0,20.0,-1.0,1
230.0,1.0,-117.0,30.0,20.0,-3.0,1
231.0,3.0,-118.0,31.0,21.0,-2.0,1
229.0,1.0,-113.0,30.0,21.0,-3.0,1
228.0,0.0,-112.0,30.0,23.0,-3.0,1
233.0,1.0,-111.0,28.0,22.0,-5.0,1
231.0,0.0,-118.0,27.0,21.0,-7.0,1
231.0,0.0,-115.0,30.0,19.0,-8.0,1
228.0,0.0,-112.0,37.0,18.0,-8.0,1
233.0,2.0,-116.0,44.0,17.0,-10.0,1
230.0,2.0,-111.0,50.0,17.0,-11.0,1
233.0,2.0,-114.0,52.0,15.0,-12.0,1
232.0,0.0,-117.0,53.0,15.0,-12.0,1
232.0,1.0,-113.0,52.0,14.0,-14.0,1
232.0,2.0,-116.0,50.0,15.0,-15.0,1
235.0,2.0,-118.0,49.0,17.0,-16.0,1
231.0,5.0,-114.0,50.0,16.0,-18.0,1
235.0,1.0,-116.0,51.0,18.0,-18.0,1
235.0,2.0,-116.0,53.0,16.0,-17.0,1
233.0,1.0,-118.0,56.0,15.0,-17.0,1
235.0,5.0,-115.0,59.0,16.0,-16.0,1
232.0,4.0,-118.0,61.0,15.0,-14.0,1
234.0,7.0,-114.0,63.0,14.0,-14.0,1
233.0,1.0,-118.0,61.0,15.0,-13.0,1
231.0,1.0,-116.0,61.0,15.0,-14.0,1
233.0,0.0,-114.0,62.0,16.0,-13.0,1
230.0,1.0,-115.0,62.0,16.0,-12.0,1
231.0,-1.0,-116.0,65.0,16.0,-13.0,1
236.0,0.0,-115.0,67.0,16.0,-11.0,1
232.0,3.0,-113.0,71.0,16.0,-12.0,1
232.0,1.0,-113.0,72.0,16.0,-13.0,1
230.0,1.0,-114.0,72.0,15.0,-11.0,1
231.0,1.0,-116.0,73.0,15.0,-11.0,1
231.0,1.0,-117.0,73.0,14.0,-11.0,1
230.0,3.0,-116.0,73.0,14.0,-10.0,1
230.0,4.0,-114.0,71.0,15.0,-9.0,1
232.0,7.0,-116.0,70.0,15.0,-9.0,1
231.0,1.0,-112.0,70.0,15.0,-10.0,1
234.0,1.0,-113.0,70.0,17.0,-8.0,1
232.0,4.0,-120.0,71.0,16.0,-10.0,1
231.0,2.0,-111.0,69.0,15.0,-9.0,1
232.0,2.0,-115.0,72.0,15.0,-10.0,1
235.0,1.0,-117.0,71.0,15.0,-10.0,1
233.0,0.0,-116.0,70.0,15.0,-10.0,1
231.0,3.0,-115.0,69.0,15.0,-9.0,1
233.0,2.0,-118.0,68.0,14.0,-8.0,1
230.0,3.0,-113.0,67.0,14.0,-8.0,1
231.0,4.0,-114.0,65.0,13.0,-8.0,1
228.0,1.0,-115.0,66.0,11.0,-8.0,1
230.0,2.0,-114.0,64.0,9.0,-9.0,1
232.0,3.0,-116.0,66.0,9.0,-7.0,1
232.0,4.0,-120.0,67.0,9.0,-8.0,1
232.0,3.0,-114.0,68.0,10.0,-7.0,1
232.0,1.0,-112.0,70.0,9.0,-7.0,1
229.0,5.0,-113.0,70.0,9.0,-10.0,1
232.0,2.0,-112.0,71.0,8.0,-10.0,1
235.0,0.0,-115.0,69.0,9.0,-8.0,1
232.0,3.0,-111.0,69.0,9.0,-10.0,1
235.0,3.0,-119.0,70.0,9.0,-10.0,1
234.0,3.0,-113.0,71.0,9.0,-9.0,1
232.0,0.0,-116.0,72.0,9.0,-9.0,1
230.0,2.0,-116.0,72.0,8.0,-10.0,1
232.0,3.0,-114.0,71.0,7.0,-10.0,1
231.0,1.0,-115.0,73.0,5.0,-8.0,1
231.0,2.0,-113.0,69.0,5.0,-9.0,1
231.0,2.0,-116.0,69.0,5.0,-9.0,1
230.0,3.0,-111.0,68.0,4.0,-9.0,1
232.0,4.0,-117.0,66.0,4.0,-9.0,1
233.0,2.0,-116.0,65.0,3.0,-10.0,1
232.0,1.0,-116.0,65.0,1.0,-12.0,1
229.0,1.0,-116.0,66.0,1.0,-13.0,1
234.0,1.0,-116.0,65.0,1.0,-14.0,1
234.0,2.0,-116.0,66.0,1.0,-14.0,1
233.0,1.0,-119.0,67.0,2.0,-12.0,1
235.0,1.0,-117.0,67.0,3.0,-13.0,1
231.0,3.0,-117.0,70.0,3.0,-12.0,1
232.0,2.0,-118.0,71.0,4.0,-13.0,1
232.0,1.0,-117.0,71.0,5.0,-12.0,1
231.0,1.0,-114.0,72.0,6.0,-12.0,1
231.0,2.0,-115.0,73.0,6.0,-11.0,1
231.0,1.0,-114.0,72.0,7.0,-11.0,1
231.0,3.0,-114.0,70.0,7.0,-11.0,1
229.0,4.0,-118.0,67.0,7.0,-9.0,1
231.0,1.0,-116.0,64.0,8.0,-11.0,1
232.0,3.0,-114.0,61.0,9.0,-11.0,1
233.0,5.0,-116.0,59.0,9.0,-11.0,1
232.0,3.0,-112.0,56.0,8.0,-11.0,1
232.0,1.0,-111.0,55.0,10.0,-11.0,1
231.0,0.0,-113.0,53.0,9.0,-11.0,1
233.0,3.0,-117.0,53.0,9.0,-12.0,1
232.0,3.0,-115.0,53.0,9.0,-11.0,1
233.0,2.0,-114.0,55.0,10.0,-11.0,1
231.0,4.0,-114.0,53.0,10.0,-10.0,1
230.0,1.0,-115.0,53.0,11.0,-10.0,1
229.0,2.0,-114.0,53.0,11.0,-11.0,1
232.0,1.0,-113.0,52.0,11.0,-10.0,1
233.0,1.0,-114.0,53.0,9.0,-9.0,1
233.0,2.0,-112.0,51.0,10.0,-10.0,1
229.0,2.0,-119.0,51.0,11.0,-10.0,1
230.0,2.0,-111.0,51.0,10.0,-10.0,1
232.0,2.0,-113.0,50.0,9.0,-9.0,1
234.0,4.0,-116.0,51.0,8.0,-9.0,1
232.0,2.0,-117.0,49.0,10.0,-9.0,1
229.0,2.0,-117.0,49.0,10.0,-8.0,1
231.0,2.0,-115.0,49.0,11.0,-9.0,1
233.0,1.0,-115.0,48.0,10.0,-10.0,1
229.0,4.0,-114.0,46.0,11.0,-10.0,1
233.0,2.0,-117.0,48.0,10.0,-8.0,1
232.0,2.0,-111.0,48.0,9.0,-10.0,1
234.0,0.0,-115.0,49.0,10.0,-9.0,1
234.0,2.0,-118.0,49.0,11.0,-12.0,1
231.0,2.0,-113.0,50.0,10.0,-11.0,1
234.0,3.0,-119.0,53.0,8.0,-12.0,1
232.0,1.0,-113.0,55.0,9.0,-12.0,1
232.0,1.0,-111.0,56.0,9.0,-12.0,1
233.0,2.0,-119.0,56.0,9.0,-13.0,1
229.0,1.0,-117.0,55.0,11.0,-13.0,1
231.0,4.0,-118.0,54.0,12.0,-11.0,1
232.0,0.0,-117.0,51.0,13.0,-10.0,1
230.0,2.0,-118.0,50.0,16.0,-8.0,1
231.0,1.0,-118.0,50.0,16.0,-7.0,1
231.0,2.0,-119.0,50.0,17.0,-8.0,1
233.0,1.0,-116.0,52.0,19.0,-7.0,1
233.0,1.0,-115.0,52.0,18.0,-7.0,1
233.0,0.0,-115.0,54.0,18.0,-7.0,1
229.0,0.0,-113.0,52.0,17.0,-7.0,1
228.0,2.0,-114.0,49.0,16.0,-7.0,1
230.0,0.0,-113.0,46.0,17.0,-9.0,1
231.0,0.0,-115.0,45.0,16.0,-12.0,1
228.0,0.0,-115.0,46.0,15.0,-13.0,1
230.0,2.0,-114.0,51.0,13.0,-16.0,1
231.0,0.0,-113.0,56.0,11.0,-16.0,1
229.0,4.0,-112.0,57.0,10.0,-16.0,1
232.0,3.0,-113.0,56.0,9.0,-18.0,1
231.0,3.0,-114.0,54.0,10.0,-18.0,1
232.0,3.0,-116.0,54.0,10.0,-18.0,1
230.0,2.0,-119.0,52.0,11.0,-19.0,1
233.0,2.0,-119.0,52.0,11.0,-19.0,1
233.0,5.0,-118.0,52.0,10.0,-17.0,1
233.0,3.0,-113.0,55.0,12.0,-18.0,1
231.0,1.0,-116.0,58.0,11.0,-16.0,1
232.0,4.0,-116.0,61.0,11.0,-17.0,1
232.0,2.0,-118.0,63.0,11.0,-15.0,1
231.0,5.0,-113.0,65.0,10.0,-15.0,1
232.0,4.0,-118.0,65.0,11.0,-16.0,1
234.0,3.0,-115.0,68.0,11.0,-14.0,1
232.0,1.0,-113.0,69.0,12.0,-14.0,1
234.0,1.0,-117.0,68.0,13.0,-14.0,1
231.0,1.0,-118.0,67.0,13.0,-13.0,1
233.0,3.0,-114.0,66.0,14.0,-12.0,1
234.0,4.0,-112.0,65.0,13.0,-11.0,1
232.0,2.0,-117.0,65.0,14.0,-12.0,1
231.0,2.0,-110.0,64.0,15.0,-11.0,1
235.0,2.0,-117.0,63.0,15.0,-10.0,1
232.0,1.0,-112.0,63.0,15.0,-11.0,1
233.0,1.0,-117.0,61.0,14.0,-9.0,1
233.0,1.0,-116.0,61.0,15.0,-9.0,1
232.0,1.0,-116.0,60.0,15.0,-9.0,1
232.0,1.0,-115.0,59.0,15.0,-10.0,1
231.0,1.0,-114.0,58.0,16.0,-9.0,1
229.0,2.0,-113.0,59.0,17.0,-10.0,1
231.0,4.0,-113.0,59.0,16.0,-8.0,1
232.0,4.0,-116.0,59.0,17.0,-7.0,1
232.0,1.0,-117.0,60.0,17.0,-8.0,1
229.0,5.0,-115.0,60.0,18.0,-8.0,1
231.0,2.0,-119.0,61.0,18.0,-8.0,1
231.0,0.0,-117.0,59.0,19.0,-9.0,1
232.0,2.0,-117.0,61.0,18.0,-9.0,1
229.0,0.0,-120.0,61.0,16.0,-10.0,1
234.0,1.0,-119.0,62.0,16.0,-9.0,1
232.0,0.0,-116.0,63.0,14.0,-8.0,1
230.0,2.0,-115.0,64.0,15.0,-10.0,1
233.0,3.0,-114.0,67.0,15.0,-9.0,1
233.0,1.0,-114.0,69.0,14.0,-10.0,1
232.0,2.0,-121.0,71.0,15.0,-11.0,1
232.0,1.0,-116.0,74.0,17.0,-10.0,1
231.0,1.0,-115.0,75.0,17.0,-9.0,1
234.0,3.0,-115.0,73.0,16.0,-9.0,1
232.0,2.0,-115.0,69.0,16.0,-9.0,1
231.0,2.0,-115.0,64.0,16.0,-12.0,1
235.0,1.0,-115.0,60.0,15.0,-12.0,1
230.0,0.0,-116.0,61.0,18.0,-10.0,1
230.0,3.0,-116.0,58.0,18.0,-9.0,1
229.0,3.0,-115.0,57.0,17.0,-10.0,1
231.0,1.0,-116.0,58.0,16.0,-9.0,1
233.0,0.0,-116.0,56.0,15.0,-9.0,1
233.0,3.0,-117.0,54.0,14.0,-10.0,1
228.0,3.0,-109.0,51.0,13.0,-12.0,1
230.0,3.0,-118.0,48.0,12.0,-12.0,1
229.0,3.0,-114.0,46.0,10.0,-13.0,1
229.0,4.0,-108.0,45.0,9.0,-14.0,1
230.0,2.0,-111.0,45.0,8.0,-14.0,1
224.0,-3.0,-115.0,46.0,8.0,-15.0,1
232.0,2.0,-116.0,47.0,8.0,-15.0,1
234.0,1.0,-116.0,49.0,6.0,-15.0,1
228.0,2.0,-118.0,51.0,7.0,-13.0,1
233.0,3.0,-117.0,51.0,7.0,-10.0,1
231.0,3.0,-118.0,53.0,6.0,-10.0,1
233.0,4.0,-115.0,56.0,6.0,-9.0,1
229.0,2.0,-113.0,55.0,8.0,-8.0,1
232.0,0.0,-117.0,58.0,6.0,-7.0,1
232.0,2.0,-118.0,59.0,5.0,-7.0,1
231.0,1.0,-115.0,61.0,4.0,-8.0,1
231.0,3.0,-118.0,63.0,3.0,-7.0,1
229.0,1.0,-117.0,65.0,1.0,-7.0,1
231.0,1.0,-114.0,69.0,-1.0,-7.0,1
232.0,2.0,-115.0,73.0,0.0,-6.0,1
232.0,2.0,-113.0,76.0,2.0,-4.0,1
231.0,1.0,-118.0,78.0,2.0,-4.0,1
232.0,0.0,-119.0,79.0,-1.0,-6.0,1
234.0,3.0,-116.0,80.0,-4.0,-9.0,1
231.0,0.0,-118.0,82.0,-3.0,-8.0,1
230.0,3.0,-116.0,84.0,-4.0,-10.0,1
230.0,1.0,-116.0,86.0,-3.0,-9.0,1
231.0,1.0,-117.0,88.0,-4.0,-10.0,1
233.0,1.0,-117.0,90.0,-3.0,-12.0,1
231.0,1.0,-114.0,91.0,-5.0,-14.0,1
231.0,0.0,-117.0,94.0,-6.0,-14.0,1
232.0,0.0,-115.0,94.0,-5.0,-16.0,1
228.0,0.0,-114.0,95.0,-3.0,-15.0,1
231.0,0.0,-115.0,95.0,-3.0,-17.0,1
229.0,3.0,-115.0,93.0,-3.0,-18.0,1
233.0,0.0,-113.0,87.0,-4.0,-20.0,1
232.0,0.0,-114.0,82.0,-5.0,-21.0,1
232.0,1.0,-116.0,83.0,-1.0,-21.0,1
233.0,3.0,-116.0,84.0,4.0,-19.0,1
231.0,1.0,-117.0,83.0,4.0,-19.0,1
231.0,3.0,-118.0,80.0,6.0,-20.0,1
228.0,4.0,-119.0,76.0,7.0,-18.0,1
233.0,5.0,-119.0,71.0,8.0,-18.0,1
228.0,3.0,-115.0,67.0,10.0,-17.0,1
229.0,6.0,-112.0,61.0,12.0,-16.0,1
227.0,5.0,-111.0,56.0,13.0,-14.0,1
229.0,3.0,-113.0,52.0,13.0,-11.0,1
231.0,3.0,-112.0,45.0,15.0,-11.0,1
234.0,-1.0,-117.0,42.0,14.0,-10.0,1
229.0,2.0,-116.0,39.0,13.0,-7.0,1
228.0,3.0,-115.0,38.0,12.0,-10.0,1
231.0,2.0,-114.0,38.0,11.0,-8.0,1
233.0,2.0,-111.0,39.0,11.0,-9.0,1
231.0,1.0,-118.0,40.0,11.0,-9.0,1
233.0,4.0,-115.0,42.0,11.0,-10.0,1
230.0,3.0,-120.0,41.0,11.0,-9.0,1
232.0,0.0,-117.0,41.0,12.0,-7.0,1
230.0,3.0,-114.0,39.0,15.0,-6.0,1
229.0,2.0,-119.0,38.0,16.0,-5.0,1
233.0,-2.0,-118.0,38.0,16.0,-2.0,1
228.0,5.0,-115.0,37.0,18.0,-1.0,1
228.0,2.0,-115.0,38.0,18.0,1.0,1
231.0,1.0,-117.0,37.0,19.0,1.0,1
231.0,1.0,-117.0,37.0,19.0,0.0,1
228.0,2.0,-113.0,34.0,19.0,0.0,1
230.0,0.0,-116.0,32.0,20.0,-2.0,1
233.0,0.0,-112.0,31.0,20.0,-4.0,1
231.0,1.0,-115.0,34.0,20.0,-6.0,1
232.0,-3.0,-115.0,41.0,19.0,-8.0,1
229.0,-2.0,-112.0,47.0,19.0,-10.0,1
230.0,-1.0,-117.0,52.0,20.0,-11.0,1
229.0,1.0,-116.0,56.0,19.0,-12.0,1
232.0,0.0,-116.0,57.0,18.0,-13.0,1
231.0,0.0,-114.0,57.0,19.0,-15.0,1
233.0,-2.0,-119.0,56.0,20.0,-18.0,1
232.0,0.0,-119.0,57.0,18.0,-19.0,1
232.0,0.0,-115.0,59.0,18.0,-19.0,1
231.0,0.0,-116.0,63.0,16.0,-19.0,1
230.0,0.0,-118.0,66.0,16.0,-20.0,1
231.0,1.0,-117.0,71.0,15.0,-20.0,1
231.0,1.0,-113.0,73.0,14.0,-20.0,1
230.0,3.0,-117.0,75.0,13.0,-20.0,1
237.0,5.0,-121.0,73.0,11.0,-19.0,1
234.0,3.0,-112.0,70.0,11.0,-21.0,1
232.0,0.0,-115.0,69.0,12.0,-20.0,1
233.0,1.0,-112.0,66.0,11.0,-20.0,1
232.0,0.0,-118.0,65.0,12.0,-21.0,1
232.0,1.0,-119.0,64.0,13.0,-20.0,1
233.0,2.0,-111.0,64.0,12.0,-19.0,1
234.0,0.0,-114.0,63.0,14.0,-20.0,1
232.0,0.0,-115.0,63.0,16.0,-17.0,1
231.0,2.0,-113.0,60.0,14.0,-17.0,1
231.0,0.0,-114.0,58.0,12.0,-14.0,1
231.0,2.0,-115.0,56.0,11.0,-12.0,1
232.0,1.0,-113.0,55.0,10.0,-13.0,1
231.0,2.0,-113.0,55.0,9.0,-11.0,1
231.0,1.0,-116.0,55.0,8.0,-10.0,1
232.0,1.0,-112.0,57.0,5.0,-12.0,1
233.0,3.0,-112.0,58.0,5.0,-11.0,1
234.0,3.0,-114.0,61.0,4.0,-10.0,1
231.0,5.0,-117.0,64.0,5.0,-9.0,1
231.0,3.0,-117.0,64.0,5.0,-8.0,1
232.0,1.0,-114.0,65.0,5.0,-8.0,1
233.0,2.0,-112.0,65.0,6.0,-5.0,1
232.0,1.0,-118.0,65.0,7.0,-4.0,1
230.0,1.0,-118.0,63.0,8.0,-2.0,1
230.0,3.0,-116.0,60.0,8.0,-1.0,1
232.0,1.0,-113.0,59.0,9.0,0.0,1
233.0,0.0,-117.0,59.0,9.0,1.0,1
232.0,1.0,-116.0,58.0,7.0,1.0,1
230.0,1.0,-114.0,58.0,6.0,-1.0,1
231.0,1.0,-116.0,58.0,5.0,-4.0,1
236.0,-1.0,-114.0,58.0,4.0,-4.0,1
231.0,1.0,-115.0,60.0,4.0,-6.0,1
232.0,0.0,-119.0,60.0,4.0,-7.0,1
230.0,2.0,-117.0,60.0,4.0,-9.0,1
231.0,2.0,-113.0,60.0,6.0,-10.0,1
233.0,3.0,-115.0,59.0,6.0,-11.0,1
231.0,2.0,-116.0,59.0,9.0,-10.0,1
233.0,1.0,-114.0,57.0,11.0,-9.0,1
230.0,3.0,-112.0,56.0,13.0,-10.0,1
234.0,1.0,-115.0,55.0,16.0,-8.0,1
230.0,6.0,-118.0,54.0,15.0,-7.0,1
233.0,1.0,-114.0,54.0,16.0,-6.0,1
233.0,0.0,-116.0,51.0,17.0,-7.0,1
232.0,9.0,-113.0,48.0,17.0,-4.0,1
230.0,1.0,-116.0,47.0,17.0,-5.0,1
232.0,1.0,-118.0,46.0,16.0,-4.0,1
234.0,3.0,-114.0,45.0,16.0,-4.0,1
230.0,1.0,-117.0,45.0,16.0,-6.0,1
230.0,3.0,-115.0,46.0,14.0,-8.0,1
232.0,0.0,-113.0,51.0,15.0,-10.0,1
230.0,2.0,-117.0,54.0,14.0,-10.0,1
231.0,1.0,-116.0,55.0,14.0,-12.0,1
232.0,2.0,-114.0,55.0,14.0,-10.0,1
229.0,1.0,-111.0,55.0,13.0,-10.0,1
230.0,1.0,-115.0,56.0,14.0,-12.0,1
232.0,1.0,-115.0,58.0,12.0,-11.0,1
231.0,1.0,-118.0,58.0,11.0,-12.0,1
233.0,0.0,-115.0,57.0,10.0,-13.0,1
232.0,0.0,-113.0,58.0,10.0,-12.0,1
231.0,2.0,-117.0,59.0,9.0,-11.0,1
234.0,2.0,-116.0,60.0,8.0,-10.0,1
230.0,2.0,-120.0,61.0,7.0,-10.0,1
231.0,0.0,-118.0,63.0,4.0,-11.0,1
231.0,0.0,-117.0,63.0,4.0,-9.0,1
231.0,2.0,-112.0,64.0,6.0,-9.0,1
228.0,3.0,-115.0,67.0,5.0,-9.0,1
231.0,2.0,-115.0,66.0,3.0,-11.0,1
229.0,0.0,-117.0,64.0,3.0,-8.0,1
231.0,2.0,-113.0,59.0,1.0,-10.0,1
230.0,0.0,-119.0,60.0,0.0,-11.0,1
230.0,3.0,-117.0,63.0,3.0,-10.0,1
231.0,2.0,-115.0,65.0,4.0,-9.0,1
228.0,0.0,-114.0,66.0,4.0,-8.0,1
230.0,0.0,-113.0,68.0,2.0,-9.0,1
228.0,3.0,-115.0,67.0,1.0,-10.0,1
228.0,2.0,-113.0,66.0,1.0,-11.0,1
230.0,1.0,-115.0,67.0,0.0,-10.0,1
231.0,2.0,-117.0,68.0,0.0,-10.0,1
230.0,0.0,-112.0,69.0,-1.0,-10.0,1
233.0,2.0,-116.0,68.0,-2.0,-10.0,1
229.0,2.0,-116.0,68.0,-3.0,-10.0,1
230.0,1.0,-118.0,67.0,-3.0,-9.0,1
232.0,1.0,-114.0,66.0,-2.0,-9.0,1
232.0,1.0,-117.0,64.0,-3.0,-9.0,1
231.0,2.0,-113.0,62.0,-2.0,-9.0,1
230.0,2.0,-119.0,60.0,0.0,-8.0,1
229.0,6.0,-114.0,59.0,1.0,-9.0,1
229.0,6.0,-117.0,57.0,2.0,-9.0,1
231.0,0.0,-117.0,55.0,1.0,-9.0,1
233.0,0.0,-119.0,54.0,3.0,-10.0,1
232.0,0.0,-117.0,51.0,3.0,-8.0,1
227.0,1.0,-115.0,51.0,4.0,-8.0,1
233.0,0.0,-118.0,50.0,5.0,-11.0,1
229.0,2.0,-119.0,48.0,6.0,-10.0,1
232.0,1.0,-116.0,49.0,6.0,-11.0,1
233.0,2.0,-120.0,50.0,7.0,-11.0,1
229.0,1.0,-117.0,48.0,8.0,-11.0,1
232.0,-1.0,-116.0,48.0,7.0,-10.0,1
234.0,1.0,-114.0,50.0,8.0,-9.0,1
231.0,3.0,-117.0,49.0,9.0,-9.0,1
231.0,3.0,-115.0,50.0,9.0,-9.0,1
231.0,0.0,-111.0,49.0,11.0,-10.0,1
231.0,1.0,-118.0,47.0,13.0,-11.0,1
229.0,4.0,-118.0,47.0,13.0,-9.0,1
232.0,1.0,-120.0,48.0,13.0,-9.0,1
233.0,0.0,-119.0,48.0,12.0,-8.0,1
230.0,2.0,-119.0,50.0,11.0,-9.0,1
234.0,-1.0,-115.0,53.0,11.0,-7.0,1
230.0,0.0,-120.0,54.0,11.0,-8.0,1
231.0,2.0,-116.0,54.0,12.0,-9.0,1
231.0,1.0,-115.0,53.0,14.0,-9.0,1
232.0,1.0,-118.0,51.0,15.0,-8.0,1
232.0,0.0,-117.0,51.0,15.0,-8.0,1
232.0,3.0,-115.0,50.0,15.0,-7.0,1
230.0,1.0,-116.0,51.0,14.0,-6.0,1
232.0,0.0,-109.0,51.0,14.0,-6.0,1
229.0,0.0,-115.0,50.0,15.0,-6.0,1
231.0,2.0,-115.0,47.0,17.0,-8.0,1
231.0,2.0,-113.0,42.0,16.0,-7.0,1
231.0,0.0,-116.0,38.0,17.0,-7.0,1
228.0,-2.0,-118.0,35.0,16.0,-9.0,1
230.0,0.0,-114.0,37.0,15.0,-11.0,1
231.0,1.0,-113.0,44.0,14.0,-12.0,1
231.0,0.0,-115.0,51.0,14.0,-15.0,1
232.0,0.0,-116.0,55.0,13.0,-17.0,1
234.0,1.0,-117.0,56.0,12.0,-18.0,1
232.0,0.0,-118.0,59.0,9.0,-17.0,1
230.0,2.0,-114.0,58.0,8.0,-19.0,1
232.0,0.0,-114.0,56.0,10.0,-18.0,1
229.0,3.0,-117.0,55.0,8.0,-18.0,1
230.0,-1.0,-118.0,55.0,7.0,-20.0,1
231.0,0.0,-116.0,57.0,5.0,-17.0,1
232.0,0.0,-116.0,59.0,3.0,-17.0,1
230.0,0.0,-117.0,62.0,4.0,-17.0,1
235.0,2.0,-116.0,65.0,3.0,-16.0,1
231.0,1.0,-114.0,66.0,4.0,-17.0,1
233.0,2.0,-115.0,64.0,3.0,-16.0,1
233.0,3.0,-113.0,60.0,2.0,-15.0,1
232.0,1.0,-118.0,57.0,1.0,-14.0,1
231.0,2.0,-122.0,55.0,2.0,-13.0,1
234.0,1.0,-120.0,54.0,1.0,-15.0,1
231.0,1.0,-116.0,54.0,2.0,-16.0,1
235.0,0.0,-119.0,55.0,4.0,-14.0,1
231.0,3.0,-115.0,56.0,3.0,-13.0,1
230.0,1.0,-120.0,57.0,3.0,-14.0,1
230.0,2.0,-116.0,59.0,4.0,-14.0,1
234.0,1.0,-112.0,60.0,3.0,-13.0,1
229.0,1.0,-117.0,59.0,4.0,-12.0,1
232.0,1.0,-116.0,59.0,5.0,-10.0,1
231.0,2.0,-117.0,58.0,5.0,-10.0,1
229.0,2.0,-115.0,57.0,6.0,-11.0,1
229.0,2.0,-117.0,57.0,6.0,-9.0,1
233.0,0.0,-118.0,57.0,6.0,-10.0,1
231.0,3.0,-117.0,56.0,8.0,-9.0,1
230.0,0.0,-116.0,56.0,10.0,-10.0,1
230.0,2.0,-117.0,56.0,12.0,-8.0,1
231.0,2.0,-118.0,54.0,13.0,-6.0,1
231.0,0.0,-117.0,52.0,15.0,-6.0,1
229.0,1.0,-116.0,52.0,14.0,-5.0,1
230.0,2.0,-122.0,52.0,14.0,-5.0,1
234.0,-1.0,-117.0,52.0,15.0,-5.0,1
232.0,1.0,-116.0,53.0,14.0,-5.0,1
232.0,0.0,-114.0,56.0,14.0,-7.0,1
232.0,1.0,-119.0,58.0,14.0,-8.0,1
231.0,3.0,-117.0,60.0,15.0,-6.0,1
231.0,1.0,-114.0,59.0,14.0,-6.0,1
230.0,3.0,-114.0,59.0,14.0,-8.0,1
234.0,1.0,-116.0,58.0,14.0,-8.0,1
230.0,3.0,-115.0,55.0,16.0,-9.0,1
231.0,1.0,-115.0,52.0,16.0,-8.0,1
229.0,1.0,-116.0,49.0,17.0,-9.0,1
230.0,0.0,-116.0,47.0,19.0,-7.0,1
228.0,0.0,-114.0,44.0,17.0,-8.0,1
228.0,1.0,-113.0,45.0,17.0,-9.0,1
233.0,1.0,-114.0,45.0,16.0,-10.0,1
232.0,1.0,-116.0,43.0,17.0,-13.0,1
230.0,2.0,-117.0,43.0,17.0,-13.0,1
229.0,0.0,-116.0,41.0,15.0,-15.0,1
232.0,1.0,-113.0,41.0,13.0,-16.0,1
234.0,0.0,-115.0,39.0,11.0,-17.0,1
234.0,0.0,-114.0,39.0,10.0,-17.0,1
230.0,0.0,-114.0,41.0,9.0,-18.0,1
231.0,0.0,-118.0,43.0,8.0,-18.0,1
232.0,0.0,-116.0,46.0,7.0,-19.0,1
231.0,0.0,-114.0,48.0,5.0,-19.0,1
233.0,1.0,-113.0,48.0,6.0,-19.0,1
233.0,2.0,-118.0,50.0,6.0,-19.0,1
230.0,2.0,-115.0,51.0,5.0,-19.0,1
233.0,0.0,-118.0,50.0,6.0,-20.0,1
231.0,1.0,-114.0,49.0,6.0,-20.0,1
229.0,0.0,-115.0,48.0,5.0,-19.0,1
230.0,1.0,-118.0,48.0,5.0,-21.0,1
228.0,2.0,-115.0,49.0,4.0,-21.0,1
231.0,1.0,-115.0,51.0,5.0,-20.0,1
231.0,0.0,-121.0,50.0,5.0,-20.0,1
233.0,1.0,-118.0,51.0,6.0,-20.0,1
230.0,1.0,-117.0,51.0,6.0,-20.0,1
232.0,2.0,-116.0,51.0,7.0,-20.0,1
231.0,2.0,-117.0,51.0,6.0,-21.0,1
230.0,3.0,-115.0,51.0,6.0,-20.0,1
230.0,3.0,-116.0,51.0,7.0,-19.0,1
230.0,1.0,-117.0,50.0,6.0,-18.0,1
229.0,3.0,-120.0,51.0,5.0,-17.0,1
231.0,1.0,-116.0,52.0,4.0,-17.0,1
230.0,2.0,-114.0,51.0,5.0,-17.0,1
228.0,2.0,-115.0,53.0,5.0,-16.0,1
229.0,2.0,-119.0,53.0,6.0,-17.0,1
233.0,5.0,-115.0,51.0,6.0,-16.0,1
232.0,1.0,-116.0,50.0,6.0,-14.0,1
231.0,3.0,-112.0,50.0,7.0,-14.0,1
230.0,1.0,-115.0,48.0,7.0,-13.0,1
230.0,2.0,-119.0,50.0,8.0,-12.0,1
230.0,3.0,-117.0,48.0,8.0,-11.0,1
235.0,1.0,-117.0,49.0,7.0,-11.0,1
228.0,2.0,-116.0,50.0,8.0,-11.0,1
229.0,0.0,-116.0,52.0,10.0,-10.0,1
229.0,1.0,-115.0,53.0,9.0,-9.0,1
231.0,1.0,-117.0,54.0,9.0,-9.0,1
233.0,2.0,-115.0,54.0,9.0,-8.0,1
231.0,3.0,-116.0,53.0,10.0,-6.0,1
231.0,1.0,-117.0,54.0,10.0,-8.0,1
231.0,2.0,-119.0,53.0,8.0,-6.0,1
230.0,3.0,-119.0,53.0,8.0,-5.0,1
229.0,2.0,-116.0,54.0,8.0,-6.0,1
231.0,1.0,-118.0,56.0,7.0,-5.0,1
230.0,1.0,-117.0,57.0,9.0,-6.0,1
234.0,2.0,-116.0,55.0,9.0,-7.0,1
229.0,2.0,-113.0,54.0,9.0,-7.0,1
232.0,0.0,-116.0,55.0,9.0,-7.0,1
234.0,1.0,-118.0,55.0,9.0,-6.0,1
232.0,0.0,-119.0,55.0,10.0,-8.0,1
232.0,0.0,-117.0,54.0,9.0,-7.0,1
231.0,1.0,-114.0,54.0,9.0,-6.0,1
232.0,3.0,-118.0,54.0,9.0,-7.0,1
231.0,1.0,-116.0,54.0,10.0,-6.0,1
231.0,1.0,-113.0,54.0,10.0,-7.0,1
232.0,0.0,-116.0,52.0,10.0,-7.0,1
229.0,2.0,-121.0,51.0,10.0,-7.0,1
233.0,0.0,-118.0,49.0,11.0,-8.0,1
229.0,1.0,-113.0,48.0,12.0,-8.0,1
231.0,2.0,-116.0,48.0,11.0,-10.0,1
231.0,2.0,-116.0,49.0,11.0,-11.0,1
233.0,-1.0,-116.0,49.0,11.0,-12.0,1
230.0,1.0,-116.0,50.0,10.0,-13.0,1
230.0,4.0,-120.0,51.0,11.0,-13.0,1
230.0,0.0,-118.0,51.0,11.0,-12.0,1
230.0,2.0,-120.0,50.0,13.0,-12.0,1
230.0,2.0,-120.0,50.0,13.0,-11.0,1
230.0,2.0,-116.0,49.0,15.0,-9.0,1
228.0,2.0,-115.0,50.0,18.0,-11.0,1
229.0,-2.0,-114.0,52.0,18.0,-8.0,1
232.0,1.0,-116.0,51.0,19.0,-8.0,1
230.0,1.0,-114.0,50.0,19.0,-6.0,1
232.0,2.0,-111.0,48.0,18.0,-7.0,1
231.0,2.0,-116.0,46.0,16.0,-8.0,1
229.0,2.0,-118.0,43.0,16.0,-9.0,1
231.0,0.0,-115.0,40.0,15.0,-10.0,1
231.0,0.0,-114.0,38.0,16.0,-11.0,1
231.0,-3.0,-113.0,38.0,16.0,-11.0,1
235.0,-2.0,-113.0,40.0,14.0,-12.0,1
231.0,-2.0,-117.0,47.0,12.0,-14.0,1
234.0,1.0,-119.0,50.0,12.0,-14.0,1
232.0,3.0,-118.0,53.0,12.0,-16.0,1
227.0,2.0,-114.0,55.0,10.0,-16.0,1
231.0,2.0,-117.0,57.0,10.0,-15.0,1
233.0,0.0,-117.0,59.0,10.0,-14.0,1
232.0,2.0,-119.0,59.0,10.0,-15.0,1
232.0,0.0,-116.0,57.0,10.0,-16.0,1
229.0,2.0,-119.0,56.0,10.0,-14.0,1
232.0,1.0,-115.0,57.0,9.0,-15.0,1
228.0,1.0,-117.0,59.0,9.0,-15.0,1
231.0,2.0,-119.0,60.0,8.0,-15.0,1
231.0,1.0,-111.0,63.0,9.0,-14.0,1
231.0,2.0,-115.0,62.0,8.0,-15.0,1
234.0,1.0,-117.0,61.0,6.0,-13.0,1
230.0,1.0,-116.0,60.0,7.0,-12.0,1
232.0,3.0,-118.0,58.0,8.0,-12.0,1
233.0,1.0,-119.0,58.0,9.0,-11.0,1
231.0,1.0,-116.0,58.0,9.0,-11.0,1
233.0,1.0,-119.0,59.0,10.0,-10.0,1
229.0,0.0,-117.0,61.0,10.0,-10.0,1
228.0,3.0,-117.0,61.0,11.0,-9.0,1
232.0,1.0,-118.0,63.0,11.0,-9.0,1
232.0,2.0,-115.0,63.0,11.0,-8.0,1
231.0,3.0,-116.0,63.0,11.0,-9.0,1
231.0,1.0,-115.0,63.0,12.0,-8.0,1
234.0,2.0,-118.0,63.0,11.0,-8.0,1
231.0,0.0,-113.0,65.0,12.0,-7.0,1
232.0,3.0,-117.0,65.0,11.0,-7.0,1
230.0,2.0,-118.0,66.0,12.0,-5.0,1
230.0,1.0,-116.0,66.0,12.0,-5.0,1
230.0,2.0,-119.0,66.0,13.0,-6.0,1
228.0,1.0,-116.0,65.0,15.0,-6.0,1
228.0,2.0,-118.0,64.0,14.0,-6.0,1
231.0,0.0,-110.0,64.0,15.0,-7.0,1
228.0,4.0,-114.0,64.0,14.0,-7.0,1
229.0,0.0,-120.0,63.0,12.0,-8.0,1
230.0,4.0,-116.0,64.0,13.0,-8.0,1
229.0,2.0,-114.0,63.0,14.0,-7.0,1
228.0,1.0,-119.0,64.0,13.0,-8.0,1
230.0,-2.0,-117.0,64.0,12.0,-9.0,1
233.0,0.0,-115.0,64.0,10.0,-9.0,1
229.0,0.0,-122.0,63.0,13.0,-9.0,1
232.0,1.0,-118.0,63.0,11.0,-9.0,1
229.0,3.0,-118.0,65.0,10.0,-10.0,1
226.0,5.0,-119.0,65.0,10.0,-8.0,1
229.0,2.0,-116.0,65.0,11.0,-7.0,1
231.0,0.0,-115.0,64.0,12.0,-8.0,1
228.0,2.0,-117.0,64.0,12.0,-10.0,1
230.0,3.0,-115.0,61.0,11.0,-8.0,1
230.0,1.0,-117.0,59.0,10.0,-8.0,1
234.0,3.0,-115.0,57.0,12.0,-9.0,1
232.0,1.0,-116.0,57.0,11.0,-8.0,1
228.0,0.0,-119.0,58.0,11.0,-8.0,1
231.0,1.0,-114.0,61.0,10.0,-8.0,1
231.0,3.0,-117.0,61.0,8.0,-8.0,1
227.0,4.0,-117.0,63.0,8.0,-10.0,1
230.0,0.0,-116.0,63.0,8.0,-9.0,1
235.0,2.0,-117.0,65.0,7.0,-9.0,1
232.0,2.0,-115.0,66.0,6.0,-10.0,1
230.0,2.0,-115.0,64.0,6.0,-9.0,1
231.0,1.0,-118.0,63.0,7.0,-10.0,1
230.0,2.0,-115.0,62.0,5.0,-11.0,1
228.0,0.0,-115.0,60.0,5.0,-10.0,1
235.0,0.0,-117.0,59.0,5.0,-9.0,1
228.0,1.0,-118.0,58.0,4.0,-9.0,1
232.0,0.0,-120.0,57.0,4.0,-9.0,1
233.0,1.0,-119.0,58.0,5.0,-10.0,1
233.0,2.0,-116.0,57.0,4.0,-10.0,1
232.0,0.0,-122.0,57.0,4.0,-12.0,1
229.0,1.0,-115.0,56.0,6.0,-12.0,1
229.0,0.0,-114.0,56.0,7.0,-12.0,1
229.0,1.0,-114.0,57.0,6.0,-11.0,1
233.0,0.0,-121.0,59.0,6.0,-11.0,1
230.0,-1.0,-116.0,60.0,6.0,-11.0,1
230.0,2.0,-119.0,61.0,7.0,-11.0,1
229.0,2.0,-115.0,62.0,6.0,-11.0,1
230.0,1.0,-116.0,62.0,5.0,-10.0,1
231.0,4.0,-117.0,64.0,7.0,-11.0,1
230.0,2.0,-115.0,64.0,8.0,-9.0,1
230.0,0.0,-119.0,63.0,10.0,-9.0,1
231.0,0.0,-119.0,65.0,11.0,-9.0,1
230.0,1.0,-114.0,64.0,11.0,-10.0,1
229.0,3.0,-119.0,64.0,12.0,-9.0,1
228.0,2.0,-119.0,63.0,12.0,-9.0,1
231.0,2.0,-116.0,63.0,12.0,-9.0,1
232.0,0.0,-117.0,62.0,12.0,-9.0,1
229.0,1.0,-116.0,61.0,12.0,-9.0,1
232.0,1.0,-115.0,60.0,13.0,-7.0,1
228.0,1.0,-115.0,60.0,13.0,-7.0,1
232.0,2.0,-117.0,59.0,13.0,-8.0,1
231.0,2.0,-120.0,58.0,12.0,-7.0,1
230.0,1.0,-119.0,59.0,13.0,-8.0,1
229.0,0.0,-117.0,59.0,13.0,-6.0,1
232.0,1.0,-119.0,58.0,14.0,-7.0,1
230.0,1.0,-117.0,58.0,15.0,-6.0,1
230.0,0.0,-119.0,59.0,13.0,-8.0,1
233.0,1.0,-117.0,59.0,13.0,-8.0,1
229.0,1.0,-119.0,60.0,13.0,-6.0,1
228.0,1.0,-114.0,59.0,13.0,-5.0,1
232.0,6.0,-115.0,58.0,11.0,-8.0,1
232.0,2.0,-117.0,58.0,9.0,-8.0,1
227.0,2.0,-116.0,58.0,8.0,-9.0,1
231.0,1.0,-114.0,59.0,9.0,-9.0,1
232.0,0.0,-116.0,59.0,9.0,-9.0,1
228.0,0.0,-116.0,58.0,11.0,-10.0,1
230.0,3.0,-116.0,56.0,10.0,-10.0,1
233.0,0.0,-117.0,54.0,10.0,-13.0,1
231.0,2.0,-117.0,52.0,9.0,-11.0,1
231.0,0.0,-119.0,52.0,9.0,-12.0,1
231.0,1.0,-116.0,51.0,8.0,-13.0,1
229.0,0.0,-114.0,50.0,9.0,-14.0,1
229.0,3.0,-117.0,51.0,9.0,-14.0,1
231.0,1.0,-117.0,51.0,9.0,-13.0,1
231.0,1.0,-114.0,53.0,11.0,-14.0,1
230.0,0.0,-118.0,53.0,13.0,-12.0,1
233.0,1.0,-120.0,54.0,13.0,-12.0,1
232.0,3.0,-118.0,54.0,12.0,-11.0,1
231.0,1.0,-120.0,54.0,13.0,-11.0,1
231.0,2.0,-118.0,54.0,12.0,-10.0,1
231.0,0.0,-117.0,53.0,13.0,-10.0,1
229.0,5.0,-122.0,55.0,13.0,-8.0,1
231.0,3.0,-119.0,55.0,14.0,-9.0,1
230.0,0.0,-114.0,55.0,13.0,-7.0,1
231.0,1.0,-118.0,55.0,12.0,-7.0,1
232.0,0.0,-117.0,57.0,11.0,-9.0,1
232.0,0.0,-118.0,57.0,11.0,-9.0,1
230.0,0.0,-114.0,58.0,12.0,-10.0,1
232.0,1.0,-117.0,58.0,12.0,-10.0,1
232.0,1.0,-120.0,58.0,11.0,-11.0,1
231.0,1.0,-116.0,59.0,12.0,-11.0,1
233.0,1.0,-116.0,60.0,12.0,-11.0,1
229.0,1.0,-116.0,59.0,9.0,-9.0,1
227.0,0.0,-113.0,61.0,11.0,-8.0,1
231.0,1.0,-115.0,62.0,14.0,-6.0,1
232.0,2.0,-117.0,62.0,14.0,-6.0,1
232.0,1.0,-119.0,60.0,14.0,-5.0,1
231.0,1.0,-116.0,58.0,14.0,-6.0,1
232.0,0.0,-116.0,55.0,14.0,-7.0,1
230.0,0.0,-115.0,52.0,15.0,-7.0,1
230.0,0.0,-115.0,49.0,16.0,-10.0,1
233.0,0.0,-116.0,47.0,16.0,-11.0,1
229.0,0.0,-119.0,48.0,16.0,-12.0,1
232.0,0.0,-112.0,53.0,15.0,-13.0,1
231.0,0.0,-118.0,57.0,15.0,-13.0,1
231.0,0.0,-120.0,61.0,15.0,-14.0,1
231.0,3.0,-116.0,63.0,15.0,-14.0,1
229.0,2.0,-118.0,66.0,14.0,-16.0,1
232.0,1.0,-118.0,66.0,15.0,-17.0,1
230.0,2.0,-116.0,66.0,14.0,-16.0,1
231.0,-2.0,-117.0,65.0,14.0,-16.0,1
246.0,-8.0,-118.0,66.0,13.0,-15.0,1
