ax,ay,az,gx,gy,gz,label
15.0,-208.0,-135.0,51.0,10.0,-16.0,1
13.0,-204.0,-133.0,50.0,12.0,-14.0,1
18.0,-207.0,-137.0,49.0,11.0,-14.0,1
15.0,-204.0,-136.0,50.0,13.0,-13.0,1
15.0,-205.0,-134.0,47.0,13.0,-13.0,1
15.0,-205.0,-136.0,46.0,14.0,-14.0,1
11.0,-208.0,-135.0,45.0,14.0,-16.0,1
16.0,-206.0,-135.0,44.0,13.0,-15.0,1
19.0,-209.0,-132.0,43.0,13.0,-15.0,1
17.0,-206.0,-137.0,44.0,13.0,-15.0,1
15.0,-207.0,-133.0,45.0,12.0,-13.0,1
14.0,-204.0,-132.0,44.0,13.0,-13.0,1
13.0,-206.0,-135.0,43.0,14.0,-14.0,1
18.0,-207.0,-137.0,42.0,13.0,-12.0,1
14.0,-206.0,-134.0,43.0,14.0,-11.0,1
13.0,-208.0,-135.0,43.0,14.0,-10.0,1
17.0,-206.0,-134.0,43.0,14.0,-11.0,1
15.0,-205.0,-139.0,45.0,14.0,-12.0,1
15.0,-206.0,-136.0,45.0,14.0,-10.0,1
14.0,-205.0,-137.0,46.0,14.0,-12.0,1
14.0,-206.0,-137.0,45.0,13.0,-13.0,1
13.0,-206.0,-134.0,46.0,13.0,-14.0,1
14.0,-205.0,-137.0,45.0,13.0,-14.0,1
12.0,-207.0,-136.0,46.0,14.0,-15.0,1
15.0,-210.0,-135.0,46.0,13.0,-16.0,1
13.0,-209.0,-134.0,48.0,12.0,-16.0,1
17.0,-211.0,-139.0,49.0,11.0,-19.0,1
15.0,-207.0,-134.0,51.0,11.0,-18.0,1
15.0,-206.0,-135.0,53.0,11.0,-16.0,1
16.0,-203.0,-137.0,54.0,10.0,-17.0,1
17.0,-204.0,-138.0,54.0,8.0,-16.0,1
15.0,-204.0,-138.0,55.0,8.0,-14.0,1
16.0,-204.0,-135.0,53.0,7.0,-13.0,1
15.0,-205.0,-137.0,50.0,8.0,-13.0,1
18.0,-202.0,-142.0,49.0,8.0,-10.0,1
15.0,-209.0,-136.0,47.0,9.0,-11.0,1
14.0,-204.0,-134.0,46.0,10.0,-11.0,1
13.0,-207.0,-135.0,46.0,11.0,-11.0,1
16.0,-206.0,-133.0,45.0,11.0,-12.0,1
18.0,-207.0,-134.0,43.0,12.0,-13.0,1
16.0,-209.0,-134.0,44.0,12.0,-12.0,1
15.0,-208.0,-133.0,47.0,12.0,-13.0,1
15.0,-208.0,-133.0,51.0,14.0,-13.0,1
14.0,-207.0,-135.0,54.0,13.0,-14.0,1
10.0,-208.0,-136.0,57.0,13.0,-15.0,1
12.0,-203.0,-135.0,60.0,13.0,-14.0,1
13.0,-205.0,-132.0,60.0,14.0,-14.0,1
14.0,-205.0,-136.0,61.0,14.0,-15.0,1
17.0,-208.0,-135.0,62.0,15.0,-15.0,1
15.0,-204.0,-133.0,61.0,13.0,-14.0,1
16.0,-204.0,-135.0,61.0,14.0,-14.0,1
18.0,-206.0,-135.0,60.0,14.0,-12.0,1
14.0,-203.0,-134.0,57.0,14.0,-12.0,1
18.0,-208.0,-134.0,58.0,13.0,-12.0,1
18.0,-206.0,-135.0,57.0,11.0,-11.0,1
14.0,-208.0,-133.0,55.0,11.0,-12.0,1
14.0,-207.0,-137.0,55.0,11.0,-11.0,1
17.0,-209.0,-131.0,55.0,11.0,-12.0,1
14.0,-205.0,-141.0,54.0,12.0,-13.0,1
13.0,-204.0,-144.0,54.0,12.0,-11.0,1
15.0,-206.0,-134.0,53.0,12.0,-11.0,1
17.0,-208.0,-134.0,54.0,11.0,-12.0,1
15.0,-205.0,-138.0,53.0,12.0,-12.0,1
15.0,-207.0,-136.0,54.0,12.0,-12.0,1
14.0,-205.0,-133.0,54.0,12.0,-10.0,1
15.0,-205.0,-137.0,54.0,12.0,-10.0,1
18.0,-206.0,-134.0,54.0,12.0,-9.0,1
17.0,-207.0,-137.0,55.0,11.0,-10.0,1
17.0,-207.0,-135.0,56.0,12.0,-11.0,1
14.0,-204.0,-137.0,56.0,11.0,-10.0,1
13.0,-203.0,-138.0,56.0,13.0,-9.0,1
18.0,-212.0,-137.0,57.0,13.0,-10.0,1
13.0,-205.0,-135.0,56.0,13.0,-10.0,1
16.0,-208.0,-137.0,55.0,13.0,-10.0,1
14.0,-206.0,-136.0,55.0,13.0,-9.0,1
18.0,-209.0,-135.0,56.0,11.0,-10.0,1
15.0,-208.0,-135.0,59.0,14.0,-11.0,1
14.0,-208.0,-137.0,61.0,14.0,-12.0,1
16.0,-210.0,-135.0,62.0,13.0,-10.0,1
13.0,-205.0,-136.0,64.0,13.0,-11.0,1
14.0,-206.0,-138.0,64.0,13.0,-11.0,1
12.0,-201.0,-131.0,63.0,12.0,-11.0,1
15.0,-206.0,-137.0,64.0,12.0,-12.0,1
16.0,-205.0,-136.0,65.0,11.0,-12.0,1
17.0,-209.0,-137.0,65.0,12.0,-12.0,1
15.0,-206.0,-134.0,66.0,11.0,-11.0,1
16.0,-208.0,-135.0,64.0,9.0,-12.0,1
16.0,-207.0,-135.0,65.0,10.0,-13.0,1
14.0,-208.0,-130.0,66.0,10.0,-12.0,1
15.0,-207.0,-138.0,66.0,10.0,-12.0,1
16.0,-207.0,-131.0,68.0,11.0,-11.0,1
15.0,-206.0,-134.0,68.0,10.0,-11.0,1
20.0,-206.0,-138.0,69.0,10.0,-12.0,1
15.0,-206.0,-136.0,69.0,11.0,-12.0,1
16.0,-209.0,-137.0,70.0,12.0,-11.0,1
15.0,-204.0,-137.0,71.0,11.0,-12.0,1
15.0,-206.0,-137.0,72.0,11.0,-11.0,1
16.0,-206.0,-137.0,71.0,10.0,-13.0,1
16.0,-204.0,-136.0,73.0,10.0,-9.0,1
16.0,-207.0,-133.0,73.0,10.0,-9.0,1
18.0,-205.0,-136.0,73.0,9.0,-9.0,1
17.0,-210.0,-138.0,73.0,10.0,-7.0,1
16.0,-210.0,-135.0,74.0,9.0,-6.0,1
14.0,-202.0,-133.0,74.0,9.0,-8.0,1
17.0,-206.0,-136.0,73.0,10.0,-6.0,1
16.0,-208.0,-134.0,73.0,9.0,-6.0,1
15.0,-205.0,-132.0,74.0,9.0,-5.0,1
15.0,-208.0,-135.0,75.0,8.0,-6.0,1
15.0,-212.0,-135.0,77.0,6.0,-6.0,1
15.0,-208.0,-134.0,79.0,7.0,-5.0,1
14.0,-208.0,-138.0,81.0,6.0,-6.0,1
15.0,-210.0,-135.0,83.0,4.0,-6.0,1
12.0,-205.0,-134.0,85.0,5.0,-5.0,1
20.0,-201.0,-137.0,87.0,4.0,-5.0,1
16.0,-207.0,-135.0,89.0,3.0,-5.0,1
13.0,-206.0,-134.0,89.0,3.0,-7.0,1
16.0,-207.0,-134.0,88.0,3.0,-8.0,1
14.0,-207.0,-133.0,88.0,4.0,-7.0,1
13.0,-204.0,-133.0,85.0,6.0,-7.0,1
13.0,-206.0,-131.0,81.0,6.0,-8.0,1
17.0,-206.0,-132.0,76.0,6.0,-8.0,1
14.0,-206.0,-131.0,73.0,6.0,-8.0,1
15.0,-207.0,-132.0,70.0,5.0,-7.0,1
12.0,-204.0,-132.0,69.0,6.0,-7.0,1
21.0,-206.0,-130.0,68.0,5.0,-7.0,1
18.0,-210.0,-130.0,68.0,4.0,-8.0,1
14.0,-205.0,-133.0,71.0,3.0,-8.0,1
12.0,-206.0,-135.0,73.0,2.0,-9.0,1
15.0,-205.0,-133.0,75.0,4.0,-9.0,1
18.0,-206.0,-133.0,78.0,6.0,-10.0,1
14.0,-205.0,-134.0,78.0,7.0,-10.0,1
17.0,-207.0,-133.0,79.0,7.0,-8.0,1
13.0,-203.0,-135.0,80.0,8.0,-8.0,1
13.0,-206.0,-135.0,79.0,8.0,-7.0,1
16.0,-204.0,-133.0,77.0,9.0,-7.0,1
11.0,-207.0,-138.0,77.0,8.0,-8.0,1
14.0,-206.0,-137.0,75.0,8.0,-7.0,1
14.0,-203.0,-136.0,71.0,9.0,-7.0,1
14.0,-206.0,-133.0,68.0,9.0,-7.0,1
14.0,-204.0,-133.0,68.0,11.0,-7.0,1
15.0,-209.0,-135.0,66.0,10.0,-6.0,1
16.0,-208.0,-136.0,65.0,10.0,-8.0,1
11.0,-208.0,-136.0,65.0,11.0,-7.0,1
18.0,-208.0,-133.0,64.0,10.0,-7.0,1
12.0,-204.0,-140.0,63.0,10.0,-6.0,1
15.0,-208.0,-138.0,63.0,11.0,-6.0,1
17.0,-209.0,-134.0,62.0,11.0,-5.0,1
13.0,-207.0,-134.0,63.0,10.0,-7.0,1
15.0,-206.0,-136.0,63.0,10.0,-7.0,1
14.0,-207.0,-132.0,62.0,10.0,-5.0,1
14.0,-206.0,-136.0,61.0,11.0,-5.0,1
13.0,-209.0,-134.0,62.0,9.0,-6.0,1
16.0,-207.0,-135.0,62.0,11.0,-5.0,1
13.0,-204.0,-136.0,61.0,11.0,-6.0,1
15.0,-209.0,-133.0,61.0,12.0,-6.0,1
16.0,-210.0,-133.0,61.0,13.0,-4.0,1
15.0,-208.0,-135.0,60.0,14.0,-2.0,1
18.0,-213.0,-129.0,59.0,14.0,-2.0,1
14.0,-206.0,-134.0,58.0,12.0,-4.0,1
16.0,-205.0,-134.0,57.0,12.0,-2.0,1
14.0,-208.0,-133.0,53.0,13.0,-2.0,1
14.0,-210.0,-133.0,53.0,13.0,-3.0,1
14.0,-209.0,-132.0,53.0,14.0,-2.0,1
13.0,-206.0,-133.0,53.0,13.0,-1.0,1
11.0,-208.0,-133.0,52.0,13.0,-3.0,1
12.0,-210.0,-135.0,52.0,12.0,-3.0,1
13.0,-212.0,-132.0,52.0,12.0,-3.0,1
11.0,-209.0,-132.0,53.0,11.0,-5.0,1
10.0,-210.0,-136.0,53.0,11.0,-5.0,1
12.0,-210.0,-130.0,54.0,9.0,-7.0,1
11.0,-210.0,-130.0,56.0,8.0,-8.0,1
12.0,-209.0,-129.0,57.0,7.0,-9.0,1
13.0,-210.0,-132.0,60.0,5.0,-10.0,1
15.0,-211.0,-136.0,64.0,2.0,-11.0,1
16.0,-209.0,-132.0,70.0,1.0,-10.0,1
14.0,-206.0,-136.0,73.0,-2.0,-9.0,1
16.0,-208.0,-136.0,73.0,-2.0,-9.0,1
13.0,-208.0,-133.0,71.0,-4.0,-8.0,1
13.0,-208.0,-136.0,68.0,-3.0,-9.0,1
13.0,-205.0,-133.0,65.0,-1.0,-8.0,1
16.0,-208.0,-132.0,62.0,-1.0,-10.0,1
17.0,-207.0,-132.0,60.0,-2.0,-9.0,1
16.0,-207.0,-135.0,58.0,-3.0,-11.0,1
18.0,-211.0,-130.0,58.0,-3.0,-13.0,1
13.0,-207.0,-135.0,56.0,-3.0,-13.0,1
11.0,-209.0,-134.0,56.0,-3.0,-16.0,1
12.0,-207.0,-132.0,56.0,-4.0,-16.0,1
16.0,-210.0,-133.0,57.0,-4.0,-17.0,1
13.0,-211.0,-134.0,58.0,-4.0,-17.0,1
14.0,-208.0,-134.0,58.0,-4.0,-18.0,1
15.0,-211.0,-136.0,59.0,-3.0,-17.0,1
15.0,-208.0,-134.0,60.0,-5.0,-18.0,1
15.0,-210.0,-132.0,61.0,-4.0,-19.0,1
17.0,-206.0,-132.0,61.0,-4.0,-18.0,1
12.0,-209.0,-132.0,61.0,-4.0,-17.0,1
17.0,-211.0,-133.0,61.0,-5.0,-16.0,1
16.0,-212.0,-134.0,61.0,-5.0,-16.0,1
15.0,-207.0,-132.0,60.0,-5.0,-16.0,1
15.0,-206.0,-136.0,60.0,-6.0,-16.0,1
19.0,-205.0,-130.0,61.0,-7.0,-16.0,1
14.0,-209.0,-132.0,62.0,-7.0,-15.0,1
14.0,-210.0,-133.0,62.0,-7.0,-15.0,1
16.0,-213.0,-131.0,62.0,-5.0,-13.0,1
13.0,-210.0,-135.0,64.0,-5.0,-14.0,1
16.0,-210.0,-134.0,65.0,-6.0,-14.0,1
15.0,-209.0,-133.0,65.0,-5.0,-15.0,1
14.0,-208.0,-131.0,65.0,-4.0,-14.0,1
14.0,-207.0,-136.0,67.0,-3.0,-12.0,1
14.0,-211.0,-131.0,68.0,-2.0,-11.0,1
15.0,-210.0,-134.0,68.0,-1.0,-12.0,1
12.0,-209.0,-134.0,69.0,0.0,-13.0,1
11.0,-207.0,-136.0,70.0,0.0,-13.0,1
12.0,-207.0,-133.0,71.0,-1.0,-12.0,1
12.0,-205.0,-134.0,72.0,0.0,-13.0,1
14.0,-206.0,-133.0,73.0,1.0,-13.0,1
15.0,-210.0,-132.0,73.0,0.0,-12.0,1
15.0,-207.0,-132.0,73.0,0.0,-12.0,1
12.0,-208.0,-130.0,73.0,1.0,-11.0,1
12.0,-209.0,-132.0,70.0,0.0,-12.0,1
13.0,-209.0,-131.0,70.0,1.0,-10.0,1
15.0,-212.0,-130.0,70.0,0.0,-12.0,1
14.0,-211.0,-133.0,70.0,-2.0,-12.0,1
11.0,-207.0,-133.0,70.0,0.0,-13.0,1
13.0,-206.0,-133.0,70.0,-2.0,-11.0,1
13.0,-204.0,-130.0,72.0,-1.0,-10.0,1
14.0,-211.0,-132.0,72.0,-2.0,-10.0,1
11.0,-207.0,-130.0,71.0,-3.0,-10.0,1
14.0,-209.0,-132.0,71.0,-3.0,-12.0,1
14.0,-207.0,-131.0,70.0,-4.0,-13.0,1
11.0,-203.0,-137.0,71.0,-3.0,-13.0,1
15.0,-209.0,-132.0,68.0,-5.0,-14.0,1
15.0,-207.0,-137.0,67.0,-4.0,-12.0,1
14.0,-212.0,-133.0,66.0,-4.0,-13.0,1
14.0,-205.0,-129.0,65.0,-3.0,-12.0,1
15.0,-209.0,-132.0,64.0,-4.0,-12.0,1
14.0,-207.0,-133.0,65.0,-4.0,-13.0,1
13.0,-207.0,-131.0,62.0,-3.0,-13.0,1
12.0,-207.0,-134.0,62.0,-2.0,-15.0,1
12.0,-207.0,-135.0,62.0,-2.0,-13.0,1
16.0,-210.0,-135.0,61.0,-2.0,-15.0,1
15.0,-209.0,-133.0,60.0,-3.0,-15.0,1
16.0,-211.0,-131.0,60.0,-1.0,-15.0,1
11.0,-207.0,-131.0,60.0,-3.0,-16.0,1
14.0,-212.0,-133.0,61.0,-3.0,-15.0,1
22.0,-206.0,-134.0,60.0,-4.0,-15.0,1
16.0,-209.0,-129.0,61.0,-4.0,-13.0,1
12.0,-207.0,-132.0,61.0,-4.0,-14.0,1
11.0,-207.0,-130.0,60.0,-5.0,-14.0,1
12.0,-206.0,-131.0,60.0,-5.0,-16.0,1
16.0,-212.0,-135.0,59.0,-5.0,-16.0,1
14.0,-208.0,-133.0,60.0,-7.0,-16.0,1
11.0,-209.0,-130.0,59.0,-7.0,-16.0,1
14.0,-208.0,-130.0,60.0,-7.0,-16.0,1
13.0,-208.0,-131.0,61.0,-7.0,-18.0,1
12.0,-208.0,-130.0,60.0,-6.0,-17.0,1
14.0,-209.0,-137.0,59.0,-7.0,-17.0,1
15.0,-211.0,-134.0,58.0,-8.0,-20.0,1
13.0,-207.0,-129.0,58.0,-7.0,-19.0,1
13.0,-208.0,-131.0,58.0,-7.0,-18.0,1
13.0,-208.0,-131.0,57.0,-7.0,-17.0,1
12.0,-209.0,-132.0,57.0,-9.0,-16.0,1
13.0,-207.0,-130.0,57.0,-9.0,-16.0,1
14.0,-210.0,-130.0,55.0,-10.0,-17.0,1
11.0,-206.0,-130.0,55.0,-12.0,-17.0,1
15.0,-210.0,-132.0,54.0,-12.0,-19.0,1
15.0,-209.0,-130.0,54.0,-13.0,-20.0,1
13.0,-212.0,-127.0,53.0,-14.0,-20.0,1
17.0,-211.0,-130.0,53.0,-14.0,-21.0,1
12.0,-209.0,-129.0,52.0,-15.0,-21.0,1
12.0,-209.0,-131.0,53.0,-15.0,-21.0,1
11.0,-209.0,-134.0,57.0,-15.0,-22.0,1
15.0,-211.0,-133.0,60.0,-15.0,-21.0,1
15.0,-209.0,-130.0,62.0,-15.0,-23.0,1
13.0,-212.0,-131.0,66.0,-14.0,-23.0,1
10.0,-212.0,-133.0,66.0,-15.0,-24.0,1
10.0,-208.0,-130.0,65.0,-15.0,-24.0,1
14.0,-210.0,-131.0,64.0,-16.0,-25.0,1
19.0,-213.0,-129.0,63.0,-15.0,-23.0,1
17.0,-212.0,-132.0,62.0,-14.0,-24.0,1
13.0,-208.0,-129.0,62.0,-14.0,-23.0,1
13.0,-208.0,-130.0,61.0,-13.0,-24.0,1
14.0,-209.0,-128.0,62.0,-13.0,-23.0,1
14.0,-209.0,-128.0,60.0,-12.0,-22.0,1
15.0,-209.0,-129.0,59.0,-12.0,-22.0,1
14.0,-209.0,-132.0,61.0,-11.0,-25.0,1
19.0,-211.0,-130.0,60.0,-9.0,-23.0,1
13.0,-207.0,-135.0,60.0,-8.0,-23.0,1
14.0,-211.0,-129.0,61.0,-8.0,-22.0,1
10.0,-208.0,-136.0,62.0,-7.0,-22.0,1
16.0,-207.0,-130.0,63.0,-5.0,-21.0,1
16.0,-207.0,-133.0,64.0,-3.0,-21.0,1
15.0,-208.0,-132.0,65.0,-3.0,-20.0,1
15.0,-211.0,-131.0,67.0,-2.0,-19.0,1
17.0,-209.0,-134.0,70.0,0.0,-18.0,1
17.0,-211.0,-134.0,72.0,1.0,-19.0,1
14.0,-207.0,-134.0,75.0,3.0,-18.0,1
14.0,-211.0,-134.0,76.0,4.0,-17.0,1
15.0,-208.0,-134.0,76.0,6.0,-19.0,1
13.0,-209.0,-132.0,76.0,7.0,-20.0,1
13.0,-208.0,-130.0,74.0,7.0,-20.0,1
12.0,-208.0,-131.0,73.0,8.0,-19.0,1
13.0,-208.0,-134.0,72.0,7.0,-19.0,1
16.0,-207.0,-135.0,72.0,7.0,-20.0,1
14.0,-206.0,-131.0,68.0,8.0,-17.0,1
14.0,-206.0,-130.0,66.0,9.0,-16.0,1
12.0,-207.0,-131.0,64.0,9.0,-15.0,1
14.0,-206.0,-131.0,63.0,10.0,-14.0,1
16.0,-207.0,-131.0,63.0,11.0,-14.0,1
12.0,-208.0,-129.0,63.0,12.0,-13.0,1
15.0,-208.0,-131.0,61.0,12.0,-13.0,1
11.0,-208.0,-129.0,61.0,13.0,-15.0,1
16.0,-206.0,-133.0,61.0,13.0,-14.0,1
14.0,-208.0,-132.0,60.0,13.0,-13.0,1
14.0,-209.0,-133.0,60.0,12.0,-13.0,1
14.0,-209.0,-131.0,60.0,11.0,-14.0,1
12.0,-209.0,-129.0,59.0,11.0,-14.0,1
15.0,-210.0,-131.0,60.0,10.0,-14.0,1
12.0,-212.0,-133.0,61.0,9.0,-12.0,1
12.0,-207.0,-133.0,63.0,8.0,-11.0,1
13.0,-210.0,-134.0,65.0,10.0,-10.0,1
7.0,-204.0,-134.0,66.0,8.0,-8.0,1
14.0,-207.0,-131.0,66.0,9.0,-9.0,1
14.0,-205.0,-129.0,65.0,9.0,-8.0,1
12.0,-208.0,-134.0,63.0,10.0,-8.0,1
16.0,-207.0,-132.0,61.0,10.0,-8.0,1
15.0,-211.0,-130.0,58.0,9.0,-6.0,1
14.0,-209.0,-129.0,57.0,10.0,-7.0,1
12.0,-209.0,-131.0,55.0,10.0,-7.0,1
15.0,-209.0,-127.0,53.0,10.0,-10.0,1
14.0,-209.0,-131.0,52.0,10.0,-12.0,1
13.0,-211.0,-129.0,51.0,10.0,-11.0,1
12.0,-204.0,-133.0,52.0,10.0,-11.0,1
14.0,-209.0,-129.0,53.0,10.0,-10.0,1
14.0,-209.0,-129.0,52.0,10.0,-13.0,1
14.0,-210.0,-131.0,52.0,10.0,-13.0,1
13.0,-207.0,-130.0,51.0,10.0,-13.0,1
16.0,-209.0,-130.0,52.0,11.0,-13.0,1
11.0,-210.0,-132.0,50.0,11.0,-14.0,1
13.0,-207.0,-134.0,50.0,12.0,-12.0,1
14.0,-208.0,-127.0,50.0,10.0,-10.0,1
14.0,-209.0,-129.0,47.0,10.0,-10.0,1
15.0,-210.0,-135.0,46.0,12.0,-11.0,1
18.0,-212.0,-137.0,43.0,11.0,-10.0,1
14.0,-208.0,-128.0,41.0,12.0,-9.0,1
16.0,-208.0,-128.0,39.0,11.0,-11.0,1
14.0,-208.0,-131.0,38.0,12.0,-10.0,1
15.0,-211.0,-134.0,36.0,12.0,-9.0,1
14.0,-209.0,-134.0,36.0,11.0,-10.0,1
13.0,-211.0,-130.0,37.0,11.0,-10.0,1
16.0,-212.0,-133.0,37.0,12.0,-8.0,1
15.0,-206.0,-131.0,38.0,12.0,-9.0,1
11.0,-208.0,-133.0,38.0,13.0,-9.0,1
11.0,-209.0,-134.0,40.0,13.0,-8.0,1
11.0,-208.0,-133.0,40.0,12.0,-7.0,1
16.0,-210.0,-129.0,43.0,14.0,-7.0,1
14.0,-210.0,-132.0,41.0,15.0,-8.0,1
14.0,-208.0,-134.0,41.0,15.0,-8.0,1
16.0,-209.0,-134.0,43.0,15.0,-6.0,1
15.0,-208.0,-131.0,43.0,16.0,-8.0,1
12.0,-209.0,-134.0,43.0,16.0,-6.0,1
12.0,-209.0,-131.0,42.0,16.0,-7.0,1
17.0,-206.0,-131.0,42.0,16.0,-7.0,1
14.0,-209.0,-134.0,42.0,17.0,-7.0,1
14.0,-210.0,-130.0,42.0,17.0,-8.0,1
14.0,-209.0,-130.0,44.0,17.0,-8.0,1
16.0,-208.0,-129.0,43.0,17.0,-6.0,1
8.0,-201.0,-140.0,43.0,17.0,-7.0,1
12.0,-207.0,-127.0,44.0,18.0,-6.0,1
12.0,-208.0,-136.0,45.0,17.0,-6.0,1
18.0,-216.0,-131.0,46.0,16.0,-4.0,1
11.0,-209.0,-134.0,44.0,17.0,-3.0,1
20.0,-204.0,-133.0,42.0,16.0,-4.0,1
12.0,-211.0,-131.0,39.0,16.0,-3.0,1
14.0,-214.0,-127.0,37.0,16.0,-3.0,1
11.0,-205.0,-130.0,33.0,16.0,-2.0,1
12.0,-206.0,-131.0,30.0,17.0,-3.0,1
14.0,-207.0,-134.0,25.0,16.0,-1.0,1
13.0,-208.0,-132.0,22.0,17.0,-2.0,1
9.0,-210.0,-123.0,19.0,17.0,-2.0,1
7.0,-204.0,-135.0,17.0,18.0,-2.0,1
13.0,-209.0,-129.0,15.0,18.0,-3.0,1
20.0,-209.0,-127.0,14.0,18.0,-2.0,1
22.0,-212.0,-121.0,12.0,18.0,-2.0,1
17.0,-208.0,-134.0,14.0,19.0,-1.0,1
12.0,-210.0,-125.0,16.0,19.0,-2.0,1
17.0,-218.0,-134.0,19.0,18.0,-3.0,1
7.0,-211.0,-125.0,24.0,19.0,-5.0,1
10.0,-216.0,-135.0,31.0,18.0,-6.0,1
10.0,-208.0,-124.0,36.0,16.0,-7.0,1
10.0,-204.0,-135.0,41.0,15.0,-8.0,1
7.0,-208.0,-133.0,47.0,15.0,-8.0,1
15.0,-211.0,-126.0,53.0,14.0,-7.0,1
10.0,-209.0,-133.0,59.0,14.0,-7.0,1
11.0,-213.0,-128.0,62.0,14.0,-7.0,1
15.0,-211.0,-132.0,67.0,14.0,-8.0,1
15.0,-209.0,-133.0,69.0,14.0,-7.0,1
11.0,-209.0,-135.0,74.0,14.0,-7.0,1
14.0,-212.0,-133.0,77.0,12.0,-6.0,1
10.0,-197.0,-133.0,78.0,11.0,-6.0,1
13.0,-208.0,-134.0,80.0,10.0,-8.0,1
14.0,-207.0,-132.0,82.0,8.0,-8.0,1
14.0,-207.0,-135.0,83.0,7.0,-10.0,1
16.0,-215.0,-123.0,83.0,6.0,-11.0,1
9.0,-203.0,-130.0,84.0,5.0,-11.0,1
10.0,-210.0,-137.0,83.0,5.0,-11.0,1
13.0,-209.0,-129.0,83.0,4.0,-11.0,1
12.0,-210.0,-132.0,84.0,3.0,-11.0,1
10.0,-211.0,-139.0,84.0,0.0,-12.0,1
6.0,-206.0,-137.0,83.0,1.0,-15.0,1
11.0,-209.0,-133.0,84.0,0.0,-13.0,1
12.0,-208.0,-133.0,83.0,-2.0,-16.0,1
14.0,-212.0,-132.0,82.0,-3.0,-14.0,1
13.0,-204.0,-127.0,83.0,-2.0,-16.0,1
12.0,-211.0,-139.0,81.0,-3.0,-16.0,1
16.0,-209.0,-132.0,82.0,-1.0,-17.0,1
14.0,-209.0,-132.0,81.0,-3.0,-18.0,1
14.0,-209.0,-131.0,80.0,-4.0,-17.0,1
11.0,-206.0,-133.0,79.0,-2.0,-15.0,1
8.0,-201.0,-130.0,79.0,-1.0,-14.0,1
13.0,-210.0,-133.0,79.0,-1.0,-12.0,1
14.0,-210.0,-136.0,81.0,-1.0,-12.0,1
13.0,-208.0,-138.0,80.0,0.0,-9.0,1
17.0,-212.0,-133.0,81.0,2.0,-9.0,1
14.0,-209.0,-132.0,81.0,2.0,-9.0,1
14.0,-208.0,-131.0,81.0,2.0,-6.0,1
13.0,-212.0,-129.0,81.0,2.0,-8.0,1
14.0,-208.0,-132.0,81.0,0.0,-5.0,1
12.0,-208.0,-132.0,80.0,0.0,-7.0,1
16.0,-210.0,-129.0,78.0,1.0,-6.0,1
10.0,-211.0,-128.0,76.0,1.0,-7.0,1
15.0,-209.0,-134.0,73.0,2.0,-6.0,1
13.0,-209.0,-128.0,70.0,2.0,-7.0,1
16.0,-209.0,-130.0,67.0,3.0,-6.0,1
17.0,-208.0,-129.0,67.0,6.0,-5.0,1
15.0,-211.0,-130.0,67.0,7.0,-4.0,1
14.0,-206.0,-132.0,67.0,9.0,-5.0,1
16.0,-208.0,-128.0,69.0,9.0,-3.0,1
14.0,-210.0,-129.0,71.0,11.0,-5.0,1
15.0,-208.0,-130.0,71.0,13.0,-4.0,1
14.0,-208.0,-132.0,70.0,12.0,-5.0,1
12.0,-208.0,-131.0,68.0,13.0,-4.0,1
14.0,-208.0,-129.0,68.0,12.0,-5.0,1
15.0,-210.0,-131.0,65.0,12.0,-6.0,1
16.0,-210.0,-130.0,64.0,13.0,-8.0,1
13.0,-208.0,-128.0,61.0,13.0,-7.0,1
11.0,-209.0,-129.0,57.0,14.0,-6.0,1
14.0,-209.0,-130.0,51.0,13.0,-6.0,1
13.0,-207.0,-127.0,47.0,13.0,-4.0,1
13.0,-207.0,-130.0,44.0,14.0,-4.0,1
16.0,-210.0,-129.0,41.0,14.0,-4.0,1
11.0,-208.0,-132.0,41.0,13.0,-4.0,1
21.0,-209.0,-127.0,40.0,14.0,-3.0,1
15.0,-212.0,-134.0,40.0,13.0,-3.0,1
11.0,-210.0,-133.0,39.0,13.0,-3.0,1
11.0,-211.0,-128.0,41.0,13.0,-4.0,1
15.0,-209.0,-131.0,42.0,12.0,-6.0,1
13.0,-214.0,-129.0,43.0,14.0,-6.0,1
14.0,-211.0,-132.0,43.0,14.0,-5.0,1
15.0,-210.0,-133.0,43.0,15.0,-8.0,1
13.0,-209.0,-131.0,42.0,16.0,-9.0,1
12.0,-210.0,-129.0,44.0,16.0,-10.0,1
14.0,-211.0,-126.0,44.0,15.0,-13.0,1
9.0,-211.0,-134.0,45.0,15.0,-12.0,1
13.0,-212.0,-128.0,46.0,15.0,-11.0,1
15.0,-212.0,-131.0,48.0,14.0,-11.0,1
14.0,-209.0,-133.0,50.0,12.0,-11.0,1
14.0,-209.0,-131.0,52.0,12.0,-11.0,1
12.0,-203.0,-130.0,54.0,12.0,-9.0,1
13.0,-205.0,-129.0,55.0,11.0,-7.0,1
11.0,-205.0,-131.0,55.0,11.0,-6.0,1
15.0,-208.0,-131.0,55.0,12.0,-7.0,1
12.0,-209.0,-127.0,54.0,12.0,-6.0,1
15.0,-208.0,-132.0,54.0,12.0,-6.0,1
13.0,-211.0,-137.0,53.0,13.0,-6.0,1
11.0,-211.0,-133.0,52.0,12.0,-6.0,1
13.0,-211.0,-132.0,51.0,11.0,-5.0,1
11.0,-209.0,-130.0,51.0,14.0,-8.0,1
12.0,-210.0,-129.0,53.0,15.0,-6.0,1
11.0,-210.0,-130.0,54.0,15.0,-6.0,1
10.0,-210.0,-131.0,56.0,15.0,-8.0,1
6.0,-206.0,-135.0,59.0,13.0,-8.0,1
10.0,-210.0,-130.0,60.0,15.0,-9.0,1
11.0,-209.0,-133.0,61.0,13.0,-9.0,1
11.0,-209.0,-130.0,63.0,14.0,-9.0,1
13.0,-211.0,-133.0,62.0,15.0,-9.0,1
13.0,-206.0,-127.0,63.0,14.0,-9.0,1
11.0,-210.0,-130.0,64.0,13.0,-7.0,1
11.0,-209.0,-131.0,65.0,12.0,-7.0,1
9.0,-208.0,-128.0,65.0,12.0,-5.0,1
13.0,-207.0,-133.0,65.0,12.0,-5.0,1
13.0,-212.0,-130.0,63.0,13.0,-6.0,1
10.0,-208.0,-131.0,65.0,13.0,-6.0,1
14.0,-207.0,-133.0,65.0,13.0,-6.0,1
14.0,-210.0,-133.0,66.0,13.0,-7.0,1
13.0,-211.0,-132.0,67.0,13.0,-5.0,1
14.0,-205.0,-131.0,68.0,12.0,-5.0,1
11.0,-209.0,-131.0,69.0,13.0,-4.0,1
13.0,-212.0,-130.0,69.0,13.0,-3.0,1
15.0,-211.0,-135.0,71.0,14.0,-2.0,1
14.0,-211.0,-131.0,70.0,15.0,-2.0,1
16.0,-211.0,-131.0,72.0,14.0,-1.0,1
14.0,-209.0,-130.0,73.0,14.0,-1.0,1
11.0,-210.0,-131.0,76.0,15.0,-3.0,1
13.0,-211.0,-134.0,78.0,15.0,-3.0,1
12.0,-210.0,-133.0,77.0,15.0,-5.0,1
15.0,-210.0,-131.0,76.0,14.0,-6.0,1
7.0,-211.0,-130.0,75.0,15.0,-3.0,1
12.0,-211.0,-133.0,75.0,15.0,-5.0,1
15.0,-208.0,-130.0,74.0,16.0,-7.0,1
12.0,-210.0,-133.0,74.0,14.0,-8.0,1
10.0,-209.0,-133.0,73.0,14.0,-7.0,1
13.0,-207.0,-134.0,72.0,13.0,-7.0,1
13.0,-205.0,-129.0,70.0,13.0,-8.0,1
14.0,-206.0,-135.0,68.0,11.0,-7.0,1
13.0,-208.0,-135.0,65.0,12.0,-8.0,1
9.0,-208.0,-134.0,60.0,11.0,-8.0,1
14.0,-211.0,-129.0,57.0,10.0,-7.0,1
14.0,-204.0,-126.0,55.0,10.0,-7.0,1
14.0,-210.0,-131.0,51.0,10.0,-8.0,1
13.0,-209.0,-129.0,51.0,11.0,-7.0,1
12.0,-209.0,-130.0,49.0,11.0,-9.0,1
12.0,-208.0,-133.0,49.0,12.0,-10.0,1
15.0,-211.0,-130.0,51.0,12.0,-10.0,1
15.0,-210.0,-131.0,52.0,12.0,-11.0,1
11.0,-209.0,-130.0,52.0,14.0,-11.0,1
11.0,-210.0,-132.0,53.0,13.0,-9.0,1
11.0,-212.0,-132.0,53.0,15.0,-11.0,1
18.0,-214.0,-134.0,53.0,15.0,-9.0,1
12.0,-207.0,-129.0,53.0,16.0,-10.0,1
12.0,-209.0,-131.0,54.0,15.0,-9.0,1
13.0,-210.0,-128.0,51.0,16.0,-8.0,1
12.0,-210.0,-131.0,51.0,16.0,-9.0,1
12.0,-210.0,-133.0,51.0,15.0,-10.0,1
16.0,-213.0,-130.0,52.0,16.0,-8.0,1
11.0,-210.0,-132.0,51.0,17.0,-9.0,1
14.0,-207.0,-131.0,51.0,17.0,-7.0,1
8.0,-209.0,-134.0,50.0,17.0,-7.0,1
15.0,-212.0,-130.0,50.0,17.0,-7.0,1
11.0,-212.0,-135.0,49.0,17.0,-6.0,1
13.0,-212.0,-128.0,49.0,17.0,-4.0,1
12.0,-209.0,-129.0,49.0,18.0,-5.0,1
12.0,-213.0,-129.0,49.0,17.0,-6.0,1
11.0,-211.0,-130.0,49.0,18.0,-7.0,1
12.0,-212.0,-129.0,48.0,17.0,-5.0,1
12.0,-211.0,-130.0,47.0,17.0,-5.0,1
13.0,-211.0,-130.0,47.0,17.0,-4.0,1
11.0,-212.0,-130.0,47.0,16.0,-4.0,1
8.0,-211.0,-130.0,46.0,15.0,-6.0,1
14.0,-212.0,-130.0,45.0,15.0,-5.0,1
8.0,-206.0,-130.0,45.0,14.0,-3.0,1
15.0,-212.0,-130.0,45.0,14.0,-4.0,1
13.0,-209.0,-130.0,45.0,15.0,-4.0,1
16.0,-209.0,-132.0,46.0,14.0,-4.0,1
10.0,-208.0,-131.0,46.0,15.0,-4.0,1
12.0,-208.0,-130.0,45.0,17.0,-4.0,1
12.0,-209.0,-130.0,46.0,16.0,-4.0,1
13.0,-210.0,-126.0,48.0,18.0,-7.0,1
14.0,-210.0,-131.0,48.0,18.0,-4.0,1
12.0,-208.0,-131.0,49.0,19.0,-5.0,1
12.0,-214.0,-132.0,49.0,20.0,-5.0,1
13.0,-209.0,-128.0,49.0,19.0,-5.0,1
14.0,-210.0,-127.0,50.0,18.0,-6.0,1
13.0,-210.0,-133.0,50.0,18.0,-6.0,1
13.0,-212.0,-128.0,50.0,18.0,-6.0,1
12.0,-214.0,-128.0,51.0,17.0,-4.0,1
13.0,-213.0,-132.0,52.0,17.0,-4.0,1
12.0,-213.0,-128.0,53.0,16.0,-6.0,1
15.0,-215.0,-129.0,56.0,16.0,-5.0,1
15.0,-210.0,-130.0,57.0,13.0,-5.0,1
11.0,-214.0,-131.0,60.0,13.0,-7.0,1
14.0,-213.0,-132.0,62.0,13.0,-7.0,1
8.0,-207.0,-135.0,64.0,12.0,-7.0,1
15.0,-214.0,-130.0,65.0,12.0,-7.0,1
12.0,-210.0,-129.0,66.0,11.0,-5.0,1
14.0,-210.0,-132.0,69.0,12.0,-6.0,1
12.0,-209.0,-131.0,69.0,12.0,-4.0,1
13.0,-210.0,-133.0,70.0,11.0,-5.0,1
14.0,-212.0,-133.0,70.0,12.0,-3.0,1
16.0,-213.0,-132.0,70.0,10.0,-4.0,1
15.0,-212.0,-129.0,72.0,12.0,-4.0,1
13.0,-211.0,-131.0,73.0,13.0,-5.0,1
11.0,-211.0,-132.0,74.0,13.0,-5.0,1
17.0,-212.0,-135.0,74.0,13.0,-6.0,1
12.0,-210.0,-129.0,74.0,13.0,-6.0,1
13.0,-212.0,-129.0,72.0,14.0,-7.0,1
14.0,-209.0,-128.0,72.0,14.0,-8.0,1
12.0,-208.0,-129.0,72.0,15.0,-9.0,1
10.0,-207.0,-128.0,71.0,16.0,-10.0,1
13.0,-206.0,-130.0,70.0,16.0,-10.0,1
13.0,-209.0,-131.0,70.0,17.0,-9.0,1
9.0,-208.0,-127.0,69.0,18.0,-11.0,1
8.0,-209.0,-129.0,68.0,16.0,-10.0,1
13.0,-205.0,-127.0,66.0,16.0,-10.0,1
10.0,-204.0,-127.0,62.0,14.0,-9.0,1
12.0,-206.0,-128.0,61.0,13.0,-8.0,1
14.0,-209.0,-129.0,60.0,13.0,-8.0,1
14.0,-209.0,-131.0,57.0,12.0,-8.0,1
12.0,-209.0,-132.0,54.0,9.0,-8.0,1
15.0,-210.0,-128.0,53.0,8.0,-7.0,1
12.0,-210.0,-129.0,54.0,7.0,-9.0,1
12.0,-212.0,-133.0,52.0,5.0,-8.0,1
9.0,-212.0,-130.0,50.0,4.0,-10.0,1
13.0,-211.0,-133.0,49.0,4.0,-10.0,1
12.0,-209.0,-130.0,49.0,3.0,-12.0,1
14.0,-216.0,-135.0,46.0,1.0,-15.0,1
12.0,-212.0,-130.0,46.0,1.0,-15.0,1
13.0,-211.0,-129.0,46.0,-2.0,-15.0,1
12.0,-210.0,-129.0,46.0,-3.0,-17.0,1
13.0,-211.0,-129.0,48.0,-5.0,-17.0,1
9.0,-208.0,-130.0,49.0,-4.0,-14.0,1
12.0,-207.0,-130.0,49.0,-4.0,-14.0,1
11.0,-208.0,-134.0,48.0,-5.0,-13.0,1
12.0,-208.0,-135.0,47.0,-5.0,-12.0,1
14.0,-211.0,-130.0,44.0,-6.0,-13.0,1
11.0,-208.0,-131.0,44.0,-5.0,-11.0,1
9.0,-219.0,-128.0,41.0,-5.0,-11.0,1
12.0,-209.0,-128.0,38.0,-5.0,-12.0,1
14.0,-208.0,-129.0,36.0,-3.0,-11.0,1
14.0,-211.0,-128.0,36.0,-4.0,-12.0,1
11.0,-211.0,-129.0,37.0,-4.0,-13.0,1
15.0,-212.0,-134.0,39.0,-4.0,-13.0,1
15.0,-215.0,-131.0,41.0,-4.0,-14.0,1
10.0,-209.0,-134.0,44.0,-2.0,-14.0,1
11.0,-208.0,-127.0,46.0,-1.0,-14.0,1
14.0,-213.0,-127.0,46.0,0.0,-16.0,1
12.0,-209.0,-129.0,48.0,1.0,-14.0,1
13.0,-210.0,-131.0,50.0,2.0,-15.0,1
13.0,-215.0,-129.0,50.0,4.0,-14.0,1
14.0,-211.0,-130.0,51.0,5.0,-13.0,1
13.0,-209.0,-130.0,51.0,3.0,-13.0,1
15.0,-213.0,-129.0,51.0,2.0,-14.0,1
14.0,-210.0,-131.0,51.0,2.0,-14.0,1
12.0,-210.0,-126.0,50.0,1.0,-13.0,1
15.0,-211.0,-130.0,51.0,1.0,-13.0,1
17.0,-208.0,-128.0,49.0,2.0,-13.0,1
13.0,-210.0,-130.0,47.0,2.0,-12.0,1
14.0,-208.0,-131.0,46.0,2.0,-11.0,1
15.0,-209.0,-130.0,45.0,2.0,-13.0,1
13.0,-213.0,-128.0,44.0,4.0,-12.0,1
12.0,-211.0,-130.0,45.0,4.0,-12.0,1
14.0,-211.0,-129.0,43.0,6.0,-12.0,1
13.0,-208.0,-128.0,43.0,7.0,-12.0,1
13.0,-209.0,-133.0,41.0,9.0,-12.0,1
14.0,-209.0,-130.0,41.0,10.0,-11.0,1
13.0,-210.0,-129.0,39.0,12.0,-11.0,1
17.0,-209.0,-127.0,37.0,15.0,-10.0,1
13.0,-209.0,-127.0,37.0,15.0,-9.0,1
10.0,-212.0,-130.0,37.0,17.0,-10.0,1
13.0,-211.0,-129.0,37.0,18.0,-10.0,1
13.0,-212.0,-130.0,37.0,18.0,-10.0,1
15.0,-212.0,-125.0,37.0,20.0,-10.0,1
12.0,-211.0,-129.0,40.0,19.0,-9.0,1
15.0,-212.0,-130.0,41.0,18.0,-10.0,1
10.0,-214.0,-128.0,43.0,18.0,-11.0,1
14.0,-214.0,-131.0,45.0,19.0,-10.0,1
13.0,-207.0,-132.0,48.0,17.0,-11.0,1
12.0,-210.0,-129.0,49.0,16.0,-11.0,1
12.0,-209.0,-129.0,49.0,16.0,-10.0,1
17.0,-209.0,-130.0,46.0,16.0,-10.0,1
13.0,-210.0,-129.0,44.0,15.0,-11.0,1
15.0,-211.0,-127.0,41.0,15.0,-11.0,1
12.0,-208.0,-129.0,39.0,15.0,-11.0,1
11.0,-208.0,-128.0,35.0,14.0,-11.0,1
15.0,-209.0,-129.0,31.0,14.0,-12.0,1
12.0,-212.0,-129.0,30.0,15.0,-13.0,1
14.0,-208.0,-128.0,31.0,15.0,-13.0,1
14.0,-206.0,-127.0,29.0,15.0,-13.0,1
13.0,-210.0,-129.0,30.0,14.0,-14.0,1
12.0,-213.0,-129.0,30.0,13.0,-15.0,1
15.0,-219.0,-129.0,32.0,12.0,-15.0,1
8.0,-211.0,-127.0,31.0,12.0,-15.0,1
11.0,-210.0,-128.0,32.0,12.0,-14.0,1
10.0,-211.0,-133.0,33.0,11.0,-14.0,1
12.0,-215.0,-129.0,33.0,12.0,-14.0,1
11.0,-213.0,-128.0,35.0,11.0,-13.0,1
13.0,-214.0,-131.0,36.0,11.0,-12.0,1
8.0,-209.0,-130.0,37.0,12.0,-13.0,1
8.0,-208.0,-128.0,39.0,10.0,-12.0,1
11.0,-210.0,-137.0,41.0,10.0,-12.0,1
12.0,-213.0,-133.0,43.0,9.0,-13.0,1
11.0,-209.0,-134.0,45.0,9.0,-12.0,1
13.0,-213.0,-130.0,48.0,9.0,-13.0,1
12.0,-210.0,-130.0,50.0,9.0,-11.0,1
11.0,-207.0,-130.0,51.0,10.0,-12.0,1
11.0,-208.0,-132.0,53.0,10.0,-13.0,1
8.0,-210.0,-129.0,53.0,9.0,-12.0,1
12.0,-208.0,-132.0,54.0,8.0,-12.0,1
12.0,-208.0,-132.0,52.0,7.0,-12.0,1
11.0,-209.0,-128.0,53.0,7.0,-13.0,1
14.0,-211.0,-134.0,51.0,7.0,-11.0,1
18.0,-207.0,-131.0,51.0,6.0,-11.0,1
13.0,-208.0,-126.0,51.0,5.0,-10.0,1
13.0,-213.0,-131.0,52.0,4.0,-12.0,1
12.0,-208.0,-131.0,51.0,5.0,-11.0,1
9.0,-211.0,-133.0,50.0,5.0,-11.0,1
14.0,-212.0,-130.0,50.0,5.0,-12.0,1
10.0,-209.0,-127.0,50.0,4.0,-13.0,1
8.0,-205.0,-130.0,50.0,2.0,-14.0,1
14.0,-212.0,-131.0,51.0,1.0,-12.0,1
18.0,-212.0,-134.0,51.0,2.0,-13.0,1
13.0,-209.0,-132.0,50.0,2.0,-13.0,1
12.0,-209.0,-131.0,49.0,2.0,-13.0,1
11.0,-208.0,-132.0,48.0,2.0,-13.0,1
12.0,-211.0,-129.0,48.0,1.0,-12.0,1
14.0,-207.0,-132.0,48.0,1.0,-13.0,1
14.0,-211.0,-129.0,49.0,3.0,-12.0,1
12.0,-207.0,-129.0,48.0,3.0,-12.0,1
15.0,-212.0,-130.0,47.0,4.0,-12.0,1
13.0,-211.0,-129.0,45.0,4.0,-13.0,1
11.0,-210.0,-129.0,47.0,4.0,-11.0,1
16.0,-208.0,-132.0,49.0,3.0,-10.0,1
13.0,-209.0,-130.0,51.0,4.0,-11.0,1
14.0,-208.0,-129.0,50.0,2.0,-11.0,1
17.0,-207.0,-130.0,51.0,0.0,-11.0,1
11.0,-209.0,-139.0,51.0,2.0,-10.0,1
10.0,-209.0,-130.0,50.0,1.0,-10.0,1
12.0,-208.0,-129.0,49.0,0.0,-10.0,1
13.0,-210.0,-130.0,49.0,1.0,-10.0,1
12.0,-210.0,-130.0,47.0,1.0,-10.0,1
13.0,-212.0,-135.0,46.0,0.0,-10.0,1
15.0,-210.0,-132.0,45.0,1.0,-8.0,1
12.0,-211.0,-133.0,44.0,0.0,-10.0,1
9.0,-207.0,-132.0,45.0,2.0,-10.0,1
19.0,-207.0,-130.0,45.0,3.0,-9.0,1
10.0,-210.0,-131.0,45.0,3.0,-11.0,1
13.0,-211.0,-130.0,46.0,3.0,-12.0,1
11.0,-211.0,-131.0,49.0,5.0,-13.0,1
11.0,-210.0,-131.0,49.0,7.0,-11.0,1
13.0,-210.0,-131.0,50.0,9.0,-11.0,1
13.0,-208.0,-129.0,51.0,7.0,-12.0,1
16.0,-211.0,-132.0,51.0,9.0,-10.0,1
11.0,-208.0,-132.0,50.0,10.0,-11.0,1
10.0,-209.0,-132.0,49.0,10.0,-11.0,1
14.0,-210.0,-131.0,48.0,10.0,-11.0,1
8.0,-208.0,-132.0,46.0,11.0,-12.0,1
13.0,-209.0,-129.0,43.0,12.0,-8.0,1
13.0,-209.0,-128.0,42.0,11.0,-8.0,1
13.0,-207.0,-131.0,41.0,12.0,-7.0,1
13.0,-211.0,-130.0,39.0,13.0,-6.0,1
13.0,-209.0,-131.0,38.0,12.0,-7.0,1
10.0,-210.0,-129.0,39.0,11.0,-6.0,1
13.0,-211.0,-133.0,39.0,12.0,-7.0,1
10.0,-212.0,-131.0,38.0,13.0,-7.0,1
12.0,-212.0,-131.0,38.0,13.0,-5.0,1
9.0,-213.0,-129.0,38.0,13.0,-8.0,1
9.0,-209.0,-133.0,39.0,13.0,-9.0,1
10.0,-209.0,-128.0,39.0,14.0,-10.0,1
12.0,-216.0,-129.0,40.0,14.0,-10.0,1
11.0,-213.0,-131.0,41.0,15.0,-9.0,1
13.0,-213.0,-133.0,45.0,14.0,-9.0,1
11.0,-211.0,-133.0,48.0,12.0,-8.0,1
11.0,-210.0,-133.0,51.0,12.0,-10.0,1
9.0,-211.0,-130.0,54.0,11.0,-8.0,1
10.0,-207.0,-131.0,55.0,10.0,-6.0,1
10.0,-207.0,-133.0,55.0,9.0,-6.0,1
11.0,-211.0,-131.0,55.0,8.0,-6.0,1
13.0,-206.0,-137.0,54.0,9.0,-5.0,1
14.0,-210.0,-128.0,53.0,11.0,-6.0,1
12.0,-208.0,-129.0,52.0,11.0,-4.0,1
11.0,-208.0,-131.0,50.0,14.0,-4.0,1
14.0,-213.0,-130.0,49.0,14.0,-6.0,1
9.0,-209.0,-126.0,48.0,12.0,-4.0,1
11.0,-209.0,-128.0,48.0,14.0,-5.0,1
10.0,-209.0,-133.0,49.0,14.0,-6.0,1
9.0,-204.0,-129.0,50.0,15.0,-6.0,1
14.0,-210.0,-129.0,51.0,15.0,-5.0,1
10.0,-209.0,-133.0,51.0,15.0,-5.0,1
10.0,-212.0,-131.0,53.0,15.0,-7.0,1
13.0,-214.0,-131.0,53.0,15.0,-7.0,1
12.0,-207.0,-131.0,52.0,16.0,-9.0,1
13.0,-210.0,-130.0,51.0,16.0,-7.0,1
11.0,-209.0,-127.0,50.0,15.0,-7.0,1
14.0,-210.0,-130.0,50.0,16.0,-6.0,1
11.0,-209.0,-132.0,49.0,15.0,-7.0,1
11.0,-206.0,-133.0,49.0,15.0,-6.0,1
13.0,-210.0,-133.0,48.0,14.0,-5.0,1
12.0,-208.0,-133.0,49.0,15.0,-3.0,1
12.0,-209.0,-130.0,48.0,14.0,-5.0,1
8.0,-214.0,-132.0,48.0,13.0,-5.0,1
10.0,-206.0,-134.0,48.0,14.0,-4.0,1
12.0,-210.0,-130.0,49.0,13.0,-4.0,1
11.0,-208.0,-129.0,49.0,14.0,-4.0,1
14.0,-210.0,-129.0,50.0,15.0,-2.0,1
12.0,-209.0,-131.0,51.0,15.0,-3.0,1
9.0,-210.0,-133.0,52.0,16.0,-4.0,1
11.0,-210.0,-133.0,53.0,15.0,-4.0,1
12.0,-210.0,-135.0,53.0,15.0,-2.0,1
15.0,-212.0,-130.0,54.0,15.0,-2.0,1
11.0,-209.0,-137.0,54.0,14.0,0.0,1
7.0,-205.0,-136.0,55.0,14.0,-2.0,1
11.0,-208.0,-132.0,54.0,13.0,-1.0,1
12.0,-209.0,-130.0,54.0,12.0,0.0,1
14.0,-210.0,-133.0,54.0,11.0,-1.0,1
14.0,-212.0,-132.0,53.0,9.0,-4.0,1
11.0,-211.0,-131.0,54.0,9.0,-4.0,1
9.0,-211.0,-129.0,56.0,8.0,-5.0,1
7.0,-208.0,-133.0,56.0,5.0,-7.0,1
7.0,-206.0,-128.0,57.0,4.0,-9.0,1
12.0,-212.0,-131.0,58.0,2.0,-12.0,1
7.0,-206.0,-130.0,57.0,2.0,-15.0,1
7.0,-208.0,-128.0,56.0,1.0,-15.0,1
3.0,-206.0,-130.0,54.0,1.0,-20.0,1
8.0,-209.0,-131.0,51.0,0.0,-22.0,1
7.0,-208.0,-130.0,49.0,-1.0,-24.0,1
8.0,-209.0,-132.0,45.0,-2.0,-25.0,1
6.0,-208.0,-130.0,41.0,-2.0,-27.0,1
6.0,-208.0,-130.0,39.0,-4.0,-28.0,1
9.0,-207.0,-131.0,36.0,-4.0,-28.0,1
10.0,-211.0,-134.0,35.0,-4.0,-28.0,1
10.0,-208.0,-132.0,34.0,-6.0,-28.0,1
7.0,-212.0,-130.0,33.0,-8.0,-27.0,1
10.0,-214.0,-133.0,35.0,-9.0,-27.0,1
14.0,-209.0,-131.0,34.0,-9.0,-27.0,1
12.0,-210.0,-131.0,35.0,-11.0,-25.0,1
14.0,-209.0,-130.0,36.0,-12.0,-25.0,1
13.0,-210.0,-129.0,35.0,-14.0,-24.0,1
13.0,-209.0,-131.0,35.0,-15.0,-23.0,1
13.0,-209.0,-128.0,35.0,-19.0,-22.0,1
13.0,-212.0,-132.0,36.0,-20.0,-20.0,1
13.0,-206.0,-128.0,36.0,-23.0,-18.0,1
14.0,-207.0,-130.0,37.0,-24.0,-19.0,1
17.0,-206.0,-132.0,35.0,-24.0,-18.0,1
14.0,-209.0,-135.0,33.0,-23.0,-18.0,1
11.0,-210.0,-130.0,32.0,-22.0,-16.0,1
9.0,-203.0,-133.0,30.0,-22.0,-16.0,1
13.0,-208.0,-132.0,29.0,-19.0,-17.0,1
12.0,-208.0,-134.0,27.0,-18.0,-17.0,1
9.0,-209.0,-131.0,26.0,-15.0,-19.0,1
13.0,-213.0,-134.0,25.0,-12.0,-19.0,1
15.0,-209.0,-128.0,23.0,-10.0,-19.0,1
15.0,-213.0,-131.0,23.0,-7.0,-19.0,1
14.0,-209.0,-131.0,22.0,-3.0,-19.0,1
12.0,-210.0,-127.0,23.0,-1.0,-20.0,1
15.0,-214.0,-132.0,24.0,1.0,-20.0,1
15.0,-212.0,-135.0,26.0,3.0,-22.0,1
16.0,-211.0,-134.0,29.0,5.0,-21.0,1
12.0,-208.0,-129.0,31.0,6.0,-19.0,1
14.0,-211.0,-132.0,32.0,6.0,-19.0,1
13.0,-212.0,-132.0,36.0,7.0,-19.0,1
13.0,-207.0,-133.0,37.0,8.0,-18.0,1
13.0,-210.0,-136.0,38.0,8.0,-15.0,1
16.0,-210.0,-135.0,38.0,9.0,-15.0,1
9.0,-207.0,-130.0,37.0,10.0,-13.0,1
17.0,-209.0,-127.0,38.0,9.0,-13.0,1
13.0,-210.0,-130.0,39.0,12.0,-12.0,1
12.0,-210.0,-132.0,38.0,12.0,-12.0,1
13.0,-209.0,-133.0,38.0,12.0,-11.0,1
13.0,-210.0,-130.0,38.0,14.0,-12.0,1
13.0,-211.0,-133.0,39.0,15.0,-10.0,1
14.0,-212.0,-130.0,39.0,15.0,-12.0,1
11.0,-215.0,-129.0,40.0,17.0,-11.0,1
8.0,-207.0,-129.0,42.0,17.0,-10.0,1
14.0,-211.0,-131.0,43.0,17.0,-11.0,1
10.0,-209.0,-129.0,45.0,16.0,-10.0,1
15.0,-210.0,-129.0,46.0,17.0,-11.0,1
11.0,-210.0,-130.0,44.0,17.0,-13.0,1
14.0,-206.0,-134.0,45.0,16.0,-12.0,1
11.0,-208.0,-131.0,44.0,15.0,-12.0,1
15.0,-210.0,-131.0,43.0,17.0,-13.0,1
13.0,-208.0,-127.0,42.0,17.0,-12.0,1
10.0,-209.0,-129.0,41.0,17.0,-12.0,1
14.0,-213.0,-130.0,39.0,16.0,-11.0,1
13.0,-206.0,-135.0,41.0,17.0,-9.0,1
8.0,-204.0,-128.0,40.0,19.0,-9.0,1
10.0,-206.0,-133.0,40.0,19.0,-9.0,1
13.0,-209.0,-131.0,39.0,18.0,-9.0,1
12.0,-207.0,-130.0,39.0,20.0,-10.0,1
11.0,-208.0,-130.0,39.0,21.0,-11.0,1
10.0,-206.0,-131.0,38.0,21.0,-11.0,1
11.0,-207.0,-133.0,36.0,21.0,-12.0,1
14.0,-204.0,-133.0,36.0,23.0,-12.0,1
14.0,-209.0,-132.0,35.0,22.0,-11.0,1
11.0,-208.0,-127.0,34.0,24.0,-12.0,1
11.0,-205.0,-136.0,34.0,23.0,-13.0,1
10.0,-209.0,-131.0,33.0,23.0,-12.0,1
18.0,-208.0,-129.0,33.0,23.0,-11.0,1
11.0,-207.0,-131.0,32.0,23.0,-12.0,1
9.0,-204.0,-130.0,30.0,24.0,-13.0,1
10.0,-204.0,-130.0,28.0,25.0,-14.0,1
12.0,-204.0,-132.0,25.0,25.0,-13.0,1
9.0,-207.0,-135.0,24.0,27.0,-14.0,1
10.0,-204.0,-134.0,23.0,28.0,-14.0,1
13.0,-202.0,-134.0,18.0,30.0,-15.0,1
17.0,-208.0,-130.0,13.0,31.0,-16.0,1
11.0,-203.0,-136.0,9.0,33.0,-17.0,1
13.0,-207.0,-135.0,6.0,31.0,-16.0,1
16.0,-206.0,-131.0,2.0,31.0,-16.0,1
14.0,-205.0,-129.0,-2.0,30.0,-16.0,1
13.0,-205.0,-133.0,-5.0,31.0,-15.0,1
12.0,-204.0,-134.0,-5.0,29.0,-16.0,1
12.0,-203.0,-135.0,-7.0,28.0,-14.0,1
12.0,-203.0,-137.0,-9.0,27.0,-13.0,1
16.0,-204.0,-134.0,-14.0,25.0,-10.0,1
12.0,-203.0,-135.0,-16.0,23.0,-8.0,1
13.0,-204.0,-136.0,-21.0,21.0,-7.0,1
12.0,-204.0,-132.0,-24.0,20.0,-6.0,1
14.0,-204.0,-134.0,-29.0,18.0,-3.0,1
15.0,-203.0,-132.0,-34.0,17.0,-3.0,1
10.0,-204.0,-141.0,-39.0,16.0,-2.0,1
16.0,-204.0,-135.0,-45.0,16.0,-1.0,1
15.0,-201.0,-133.0,-51.0,16.0,-2.0,1
12.0,-201.0,-134.0,-60.0,16.0,-3.0,1
15.0,-198.0,-135.0,-65.0,18.0,-1.0,1
12.0,-198.0,-139.0,-72.0,18.0,-1.0,1
9.0,-194.0,-138.0,-77.0,21.0,0.0,1
11.0,-195.0,-142.0,-85.0,19.0,1.0,1
12.0,-189.0,-142.0,-96.0,19.0,2.0,1
10.0,-188.0,-144.0,-109.0,18.0,4.0,1
14.0,-188.0,-140.0,-125.0,17.0,1.0,1
11.0,-184.0,-147.0,-139.0,17.0,2.0,1
13.0,-187.0,-142.0,-154.0,17.0,1.0,1
13.0,-178.0,-143.0,-168.0,17.0,2.0,1
16.0,-181.0,-144.0,-183.0,16.0,1.0,1
14.0,-176.0,-148.0,-197.0,17.0,2.0,1
13.0,-176.0,-141.0,-212.0,18.0,4.0,1
13.0,-178.0,-141.0,-227.0,18.0,5.0,1
8.0,-173.0,-145.0,-245.0,19.0,7.0,1
7.0,-175.0,-143.0,-261.0,20.0,8.0,1
13.0,-175.0,-147.0,-279.0,20.0,11.0,1
14.0,-177.0,-147.0,-297.0,25.0,14.0,1
13.0,-178.0,-143.0,-315.0,30.0,17.0,1
11.0,-175.0,-148.0,-337.0,34.0,23.0,1
12.0,-173.0,-145.0,-360.0,42.0,28.0,1
16.0,-174.0,-147.0,-384.0,48.0,32.0,1
13.0,-172.0,-146.0,-406.0,56.0,37.0,1
16.0,-174.0,-144.0,-427.0,62.0,41.0,1
12.0,-172.0,-149.0,-443.0,65.0,46.0,1
16.0,-170.0,-150.0,-461.0,67.0,51.0,1
18.0,-170.0,-147.0,-476.0,67.0,55.0,1
14.0,-164.0,-147.0,-491.0,67.0,59.0,1
14.0,-159.0,-152.0,-508.0,66.0,63.0,1
16.0,-156.0,-150.0,-522.0,65.0,69.0,1
17.0,-154.0,-154.0,-539.0,62.0,75.0,1
14.0,-150.0,-152.0,-554.0,59.0,81.0,1
14.0,-145.0,-150.0,-569.0,54.0,84.0,1
13.0,-145.0,-146.0,-586.0,47.0,88.0,1
11.0,-142.0,-146.0,-605.0,41.0,89.0,1
13.0,-133.0,-148.0,-625.0,34.0,89.0,1
9.0,-134.0,-149.0,-647.0,26.0,85.0,1
5.0,-131.0,-149.0,-671.0,18.0,82.0,1
6.0,-129.0,-147.0,-696.0,10.0,76.0,1
6.0,-124.0,-136.0,-718.0,1.0,68.0,1
1.0,-127.0,-135.0,-736.0,-8.0,58.0,1
0.0,-128.0,-130.0,-746.0,-21.0,49.0,1
-4.0,-131.0,-125.0,-751.0,-34.0,39.0,1
-2.0,-135.0,-121.0,-755.0,-44.0,28.0,1
-7.0,-142.0,-119.0,-764.0,-51.0,15.0,1
0.0,-147.0,-116.0,-776.0,-54.0,5.0,1
0.0,-156.0,-112.0,-795.0,-51.0,-7.0,1
3.0,-153.0,-120.0,-821.0,-44.0,-22.0,1
4.0,-157.0,-127.0,-848.0,-30.0,-34.0,1
2.0,-155.0,-130.0,-879.0,-11.0,-49.0,1
5.0,-160.0,-141.0,-907.0,14.0,-62.0,1
14.0,-166.0,-140.0,-928.0,43.0,-71.0,1
18.0,-168.0,-142.0,-941.0,76.0,-80.0,1
26.0,-175.0,-143.0,-944.0,107.0,-87.0,1
28.0,-176.0,-148.0,-940.0,137.0,-94.0,1
30.0,-174.0,-151.0,-934.0,161.0,-99.0,1
30.0,-179.0,-155.0,-930.0,181.0,-101.0,1
35.0,-180.0,-160.0,-922.0,195.0,-101.0,1
31.0,-181.0,-164.0,-916.0,207.0,-100.0,1
34.0,-178.0,-162.0,-909.0,218.0,-94.0,1
37.0,-183.0,-165.0,-899.0,227.0,-84.0,1
35.0,-182.0,-165.0,-886.0,232.0,-76.0,1
37.0,-186.0,-164.0,-872.0,237.0,-65.0,1
36.0,-189.0,-167.0,-859.0,237.0,-53.0,1
33.0,-188.0,-166.0,-845.0,233.0,-43.0,1
29.0,-185.0,-172.0,-833.0,227.0,-36.0,1
26.0,-185.0,-172.0,-823.0,220.0,-32.0,1
21.0,-180.0,-176.0,-813.0,213.0,-24.0,1
14.0,-175.0,-175.0,-801.0,205.0,-16.0,1
13.0,-176.0,-173.0,-781.0,197.0,-8.0,1
12.0,-171.0,-172.0,-758.0,187.0,-2.0,1
10.0,-172.0,-174.0,-736.0,178.0,0.0,1
5.0,-171.0,-173.0,-719.0,167.0,-2.0,1
4.0,-165.0,-171.0,-709.0,153.0,-7.0,1
4.0,-162.0,-172.0,-707.0,142.0,-15.0,1
2.0,-162.0,-179.0,-713.0,132.0,-23.0,1
2.0,-157.0,-177.0,-722.0,126.0,-33.0,1
7.0,-156.0,-178.0,-736.0,123.0,-42.0,1
5.0,-153.0,-183.0,-750.0,121.0,-52.0,1
6.0,-152.0,-185.0,-765.0,116.0,-62.0,1
5.0,-154.0,-184.0,-779.0,109.0,-68.0,1
7.0,-147.0,-189.0,-796.0,100.0,-75.0,1
5.0,-154.0,-187.0,-817.0,86.0,-82.0,1
7.0,-159.0,-199.0,-842.0,68.0,-90.0,1
3.0,-153.0,-194.0,-871.0,48.0,-95.0,1
4.0,-158.0,-201.0,-898.0,28.0,-99.0,1
5.0,-160.0,-197.0,-925.0,9.0,-99.0,1
5.0,-163.0,-201.0,-947.0,-7.0,-98.0,1
4.0,-166.0,-204.0,-967.0,-24.0,-98.0,1
4.0,-171.0,-203.0,-981.0,-40.0,-97.0,1
4.0,-171.0,-213.0,-992.0,-57.0,-98.0,1
10.0,-170.0,-214.0,-993.0,-72.0,-99.0,1
11.0,-176.0,-218.0,-987.0,-82.0,-100.0,1
9.0,-175.0,-217.0,-974.0,-91.0,-101.0,1
7.0,-177.0,-220.0,-956.0,-96.0,-101.0,1
13.0,-178.0,-220.0,-933.0,-99.0,-99.0,1
18.0,-179.0,-219.0,-905.0,-97.0,-97.0,1
20.0,-184.0,-218.0,-879.0,-93.0,-95.0,1
20.0,-183.0,-221.0,-860.0,-86.0,-95.0,1
25.0,-180.0,-227.0,-843.0,-79.0,-95.0,1
23.0,-178.0,-225.0,-828.0,-69.0,-97.0,1
26.0,-179.0,-225.0,-818.0,-58.0,-98.0,1
28.0,-177.0,-227.0,-801.0,-45.0,-102.0,1
22.0,-172.0,-228.0,-777.0,-32.0,-103.0,1
28.0,-179.0,-227.0,-742.0,-20.0,-102.0,1
29.0,-174.0,-220.0,-708.0,-11.0,-101.0,1
29.0,-173.0,-229.0,-677.0,-4.0,-102.0,1
29.0,-176.0,-228.0,-654.0,0.0,-106.0,1
26.0,-174.0,-232.0,-640.0,3.0,-112.0,1
25.0,-169.0,-234.0,-633.0,5.0,-115.0,1
23.0,-168.0,-236.0,-630.0,9.0,-116.0,1
24.0,-164.0,-235.0,-623.0,10.0,-117.0,1
23.0,-163.0,-233.0,-610.0,13.0,-115.0,1
22.0,-162.0,-234.0,-590.0,12.0,-110.0,1
21.0,-161.0,-239.0,-563.0,9.0,-108.0,1
16.0,-151.0,-243.0,-532.0,8.0,-107.0,1
15.0,-154.0,-243.0,-504.0,9.0,-106.0,1
15.0,-150.0,-242.0,-472.0,12.0,-104.0,1
17.0,-148.0,-243.0,-449.0,16.0,-102.0,1
17.0,-147.0,-240.0,-430.0,24.0,-100.0,1
20.0,-145.0,-237.0,-418.0,35.0,-99.0,1
21.0,-148.0,-233.0,-409.0,47.0,-99.0,1
21.0,-145.0,-234.0,-404.0,60.0,-101.0,1
18.0,-144.0,-232.0,-402.0,70.0,-101.0,1
23.0,-144.0,-231.0,-403.0,80.0,-102.0,1
22.0,-145.0,-230.0,-401.0,87.0,-101.0,1
24.0,-136.0,-233.0,-394.0,88.0,-100.0,1
18.0,-136.0,-231.0,-383.0,88.0,-96.0,1
24.0,-136.0,-234.0,-364.0,82.0,-95.0,1
24.0,-138.0,-232.0,-340.0,75.0,-91.0,1
30.0,-138.0,-229.0,-319.0,67.0,-86.0,1
30.0,-137.0,-227.0,-294.0,58.0,-81.0,1
25.0,-135.0,-224.0,-272.0,50.0,-76.0,1
24.0,-136.0,-220.0,-250.0,41.0,-71.0,1
22.0,-138.0,-225.0,-229.0,34.0,-67.0,1
22.0,-136.0,-220.0,-212.0,28.0,-63.0,1
19.0,-135.0,-220.0,-197.0,23.0,-59.0,1
14.0,-138.0,-219.0,-181.0,16.0,-55.0,1
13.0,-132.0,-214.0,-162.0,8.0,-51.0,1
11.0,-131.0,-215.0,-137.0,2.0,-46.0,1
11.0,-129.0,-213.0,-109.0,-6.0,-42.0,1
10.0,-131.0,-206.0,-80.0,-14.0,-37.0,1
7.0,-131.0,-206.0,-48.0,-23.0,-31.0,1
9.0,-129.0,-205.0,-16.0,-31.0,-28.0,1
11.0,-125.0,-201.0,14.0,-39.0,-24.0,1
13.0,-126.0,-199.0,44.0,-44.0,-21.0,1
13.0,-124.0,-201.0,69.0,-49.0,-18.0,1
15.0,-124.0,-201.0,92.0,-53.0,-15.0,1
14.0,-125.0,-198.0,111.0,-57.0,-14.0,1
13.0,-125.0,-200.0,128.0,-60.0,-14.0,1
16.0,-127.0,-196.0,143.0,-64.0,-10.0,1
17.0,-126.0,-198.0,156.0,-66.0,-8.0,1
15.0,-128.0,-197.0,169.0,-70.0,-8.0,1
14.0,-127.0,-199.0,184.0,-73.0,-8.0,1
17.0,-128.0,-197.0,199.0,-77.0,-10.0,1
17.0,-128.0,-198.0,220.0,-81.0,-11.0,1
16.0,-128.0,-203.0,242.0,-86.0,-11.0,1
11.0,-125.0,-200.0,268.0,-92.0,-13.0,1
14.0,-123.0,-204.0,292.0,-98.0,-13.0,1
19.0,-125.0,-205.0,315.0,-103.0,-14.0,1
14.0,-127.0,-199.0,338.0,-110.0,-14.0,1
12.0,-118.0,-204.0,358.0,-115.0,-15.0,1
13.0,-120.0,-207.0,372.0,-119.0,-16.0,1
13.0,-117.0,-206.0,382.0,-121.0,-21.0,1
11.0,-115.0,-207.0,385.0,-123.0,-27.0,1
16.0,-113.0,-204.0,383.0,-123.0,-34.0,1
14.0,-115.0,-203.0,380.0,-122.0,-40.0,1
18.0,-117.0,-203.0,378.0,-120.0,-44.0,1
15.0,-114.0,-208.0,376.0,-120.0,-49.0,1
17.0,-116.0,-203.0,374.0,-120.0,-55.0,1
20.0,-117.0,-206.0,373.0,-120.0,-56.0,1
18.0,-117.0,-209.0,371.0,-122.0,-58.0,1
18.0,-117.0,-212.0,371.0,-120.0,-60.0,1
20.0,-115.0,-212.0,374.0,-119.0,-60.0,1
20.0,-115.0,-214.0,376.0,-122.0,-63.0,1
20.0,-119.0,-210.0,379.0,-124.0,-63.0,1
19.0,-117.0,-212.0,383.0,-130.0,-67.0,1
21.0,-115.0,-211.0,387.0,-136.0,-68.0,1
20.0,-120.0,-211.0,391.0,-141.0,-70.0,1
17.0,-120.0,-215.0,395.0,-146.0,-69.0,1
19.0,-119.0,-225.0,396.0,-150.0,-67.0,1
10.0,-114.0,-226.0,395.0,-154.0,-67.0,1
14.0,-113.0,-222.0,393.0,-159.0,-68.0,1
10.0,-109.0,-218.0,384.0,-161.0,-70.0,1
8.0,-113.0,-219.0,373.0,-165.0,-74.0,1
8.0,-110.0,-220.0,358.0,-168.0,-80.0,1
6.0,-112.0,-220.0,341.0,-170.0,-87.0,1
7.0,-112.0,-225.0,323.0,-171.0,-92.0,1
8.0,-110.0,-225.0,306.0,-173.0,-98.0,1
8.0,-114.0,-224.0,289.0,-173.0,-102.0,1
10.0,-116.0,-228.0,269.0,-175.0,-106.0,1
9.0,-116.0,-224.0,249.0,-175.0,-110.0,1
14.0,-117.0,-229.0,227.0,-174.0,-113.0,1
11.0,-118.0,-226.0,208.0,-170.0,-118.0,1
14.0,-122.0,-229.0,191.0,-166.0,-124.0,1
15.0,-124.0,-225.0,175.0,-159.0,-128.0,1
19.0,-127.0,-227.0,159.0,-151.0,-131.0,1
20.0,-127.0,-230.0,147.0,-141.0,-136.0,1
22.0,-129.0,-227.0,140.0,-133.0,-139.0,1
20.0,-129.0,-230.0,134.0,-125.0,-141.0,1
16.0,-132.0,-230.0,131.0,-118.0,-141.0,1
16.0,-134.0,-222.0,129.0,-113.0,-140.0,1
17.0,-135.0,-225.0,127.0,-111.0,-139.0,1
9.0,-139.0,-228.0,127.0,-110.0,-138.0,1
12.0,-134.0,-223.0,128.0,-112.0,-137.0,1
11.0,-140.0,-224.0,127.0,-117.0,-134.0,1
10.0,-136.0,-224.0,126.0,-120.0,-134.0,1
8.0,-136.0,-222.0,122.0,-127.0,-134.0,1
4.0,-143.0,-223.0,118.0,-134.0,-135.0,1
5.0,-142.0,-224.0,111.0,-142.0,-136.0,1
1.0,-144.0,-222.0,106.0,-151.0,-141.0,1
0.0,-145.0,-221.0,98.0,-160.0,-143.0,1
1.0,-148.0,-221.0,91.0,-170.0,-145.0,1
-2.0,-148.0,-216.0,83.0,-179.0,-145.0,1
-4.0,-152.0,-223.0,78.0,-186.0,-145.0,1
-1.0,-153.0,-214.0,75.0,-192.0,-143.0,1
0.0,-151.0,-214.0,75.0,-199.0,-142.0,1
-4.0,-154.0,-213.0,78.0,-202.0,-140.0,1
0.0,-158.0,-215.0,82.0,-205.0,-137.0,1
-2.0,-162.0,-212.0,87.0,-205.0,-134.0,1
1.0,-164.0,-210.0,92.0,-202.0,-128.0,1
3.0,-165.0,-211.0,99.0,-197.0,-122.0,1
3.0,-169.0,-209.0,104.0,-194.0,-117.0,1
5.0,-170.0,-207.0,111.0,-191.0,-112.0,1
7.0,-172.0,-204.0,119.0,-193.0,-108.0,1
5.0,-179.0,-201.0,130.0,-199.0,-106.0,1
4.0,-178.0,-199.0,148.0,-207.0,-102.0,1
5.0,-172.0,-202.0,168.0,-219.0,-98.0,1
6.0,-170.0,-198.0,193.0,-232.0,-90.0,1
1.0,-172.0,-202.0,219.0,-243.0,-84.0,1
-1.0,-171.0,-206.0,243.0,-253.0,-75.0,1
0.0,-174.0,-196.0,263.0,-261.0,-67.0,1
-6.0,-170.0,-198.0,280.0,-267.0,-60.0,1
-6.0,-172.0,-194.0,296.0,-271.0,-55.0,1
-8.0,-174.0,-194.0,312.0,-270.0,-49.0,1
-5.0,-172.0,-188.0,327.0,-265.0,-42.0,1
-9.0,-176.0,-191.0,339.0,-260.0,-35.0,1
-9.0,-172.0,-188.0,348.0,-254.0,-29.0,1
-10.0,-171.0,-190.0,357.0,-248.0,-20.0,1
-5.0,-175.0,-187.0,365.0,-243.0,-12.0,1
-3.0,-170.0,-184.0,377.0,-237.0,-7.0,1
-1.0,-174.0,-179.0,391.0,-230.0,-3.0,1
-1.0,-173.0,-177.0,411.0,-225.0,1.0,1
0.0,-175.0,-176.0,433.0,-218.0,5.0,1
-1.0,-172.0,-177.0,460.0,-210.0,7.0,1
-2.0,-175.0,-173.0,486.0,-200.0,8.0,1
-6.0,-175.0,-171.0,511.0,-188.0,9.0,1
-8.0,-172.0,-166.0,535.0,-176.0,12.0,1
-8.0,-171.0,-163.0,560.0,-165.0,15.0,1
-6.0,-172.0,-161.0,584.0,-158.0,17.0,1
-6.0,-167.0,-155.0,603.0,-154.0,20.0,1
-7.0,-164.0,-155.0,617.0,-152.0,22.0,1
-8.0,-163.0,-152.0,624.0,-148.0,24.0,1
-13.0,-160.0,-150.0,629.0,-146.0,27.0,1
-12.0,-156.0,-150.0,636.0,-145.0,28.0,1
-9.0,-151.0,-141.0,646.0,-145.0,29.0,1
-8.0,-145.0,-134.0,661.0,-148.0,31.0,1
-18.0,-147.0,-142.0,678.0,-153.0,35.0,1
-13.0,-139.0,-128.0,696.0,-156.0,38.0,1
-13.0,-136.0,-125.0,715.0,-160.0,42.0,1
-15.0,-134.0,-122.0,733.0,-163.0,47.0,1
-15.0,-130.0,-122.0,748.0,-168.0,56.0,1
-16.0,-124.0,-115.0,765.0,-172.0,63.0,1
-15.0,-119.0,-113.0,776.0,-177.0,70.0,1
-10.0,-116.0,-106.0,782.0,-181.0,80.0,1
-8.0,-110.0,-105.0,780.0,-185.0,89.0,1
-6.0,-106.0,-105.0,769.0,-184.0,99.0,1
-6.0,-100.0,-102.0,752.0,-182.0,105.0,1
-1.0,-106.0,-92.0,738.0,-176.0,116.0,1
-1.0,-101.0,-82.0,730.0,-166.0,125.0,1
2.0,-99.0,-76.0,725.0,-151.0,133.0,1
7.0,-100.0,-73.0,720.0,-134.0,140.0,1
8.0,-97.0,-74.0,716.0,-115.0,143.0,1
15.0,-94.0,-77.0,717.0,-98.0,145.0,1
19.0,-88.0,-81.0,723.0,-88.0,149.0,1
19.0,-81.0,-95.0,726.0,-77.0,155.0,1
21.0,-73.0,-108.0,723.0,-60.0,157.0,1
18.0,-69.0,-114.0,711.0,-39.0,162.0,1
11.0,-56.0,-124.0,687.0,-16.0,169.0,1
13.0,-51.0,-116.0,648.0,4.0,178.0,1
6.0,-46.0,-113.0,598.0,23.0,184.0,1
4.0,-44.0,-106.0,543.0,39.0,189.0,1
0.0,-44.0,-98.0,486.0,50.0,197.0,1
-1.0,-44.0,-91.0,428.0,54.0,203.0,1
-5.0,-47.0,-83.0,372.0,52.0,210.0,1
-16.0,-39.0,-87.0,315.0,45.0,211.0,1
-13.0,-42.0,-91.0,250.0,37.0,213.0,1
-23.0,-39.0,-97.0,176.0,30.0,216.0,1
-30.0,-40.0,-95.0,100.0,20.0,218.0,1
-31.0,-41.0,-104.0,27.0,6.0,219.0,1
-36.0,-44.0,-93.0,-38.0,-19.0,220.0,1
-41.0,-37.0,-101.0,-96.0,-50.0,219.0,1
-45.0,-36.0,-107.0,-150.0,-87.0,218.0,1
-50.0,-34.0,-112.0,-208.0,-123.0,222.0,1
-49.0,-36.0,-119.0,-274.0,-158.0,226.0,1
-46.0,-34.0,-126.0,-349.0,-195.0,234.0,1
-43.0,-30.0,-132.0,-433.0,-234.0,243.0,1
-35.0,-31.0,-137.0,-526.0,-280.0,254.0,1
-27.0,-28.0,-147.0,-628.0,-328.0,261.0,1
-15.0,-31.0,-154.0,-741.0,-383.0,270.0,1
-13.0,-27.0,-171.0,-857.0,-435.0,279.0,1
-8.0,-32.0,-183.0,-973.0,-481.0,288.0,1
8.0,-27.0,-194.0,-1085.0,-521.0,292.0,1
17.0,-29.0,-207.0,-1191.0,-545.0,295.0,1
22.0,-28.0,-223.0,-1298.0,-549.0,292.0,1
24.0,-27.0,-231.0,-1406.0,-534.0,287.0,1
25.0,-33.0,-249.0,-1509.0,-500.0,280.0,1
23.0,-38.0,-259.0,-1607.0,-459.0,271.0,1
19.0,-48.0,-270.0,-1692.0,-417.0,255.0,1
8.0,-55.0,-280.0,-1762.0,-368.0,238.0,1
2.0,-64.0,-285.0,-1819.0,-317.0,217.0,1
-12.0,-70.0,-300.0,-1862.0,-268.0,189.0,1
-25.0,-81.0,-304.0,-1905.0,-225.0,155.0,1
-33.0,-93.0,-311.0,-1945.0,-195.0,120.0,1
-51.0,-101.0,-320.0,-1987.0,-182.0,88.0,1
-56.0,-105.0,-321.0,-2036.0,-182.0,60.0,1
-66.0,-114.0,-335.0,-2105.0,-191.0,43.0,1
-79.0,-126.0,-344.0,-2189.0,-225.0,17.0,1
-82.0,-129.0,-365.0,-2277.0,-275.0,-12.0,1
-82.0,-132.0,-367.0,-2368.0,-331.0,-36.0,1
-87.0,-137.0,-379.0,-2460.0,-385.0,-53.0,1
-76.0,-143.0,-384.0,-2553.0,-436.0,-56.0,1
-75.0,-145.0,-397.0,-2640.0,-477.0,-54.0,1
-63.0,-145.0,-415.0,-2722.0,-514.0,-46.0,1
-52.0,-143.0,-426.0,-2793.0,-540.0,-30.0,1
-49.0,-145.0,-440.0,-2857.0,-556.0,-9.0,1
-41.0,-138.0,-449.0,-2920.0,-560.0,16.0,1
-36.0,-135.0,-470.0,-2986.0,-551.0,42.0,1
-21.0,-130.0,-487.0,-3058.0,-528.0,73.0,1
-13.0,-123.0,-493.0,-3127.0,-481.0,108.0,1
-4.0,-118.0,-506.0,-3187.0,-413.0,145.0,1
1.0,-104.0,-505.0,-3228.0,-325.0,178.0,1
1.0,-105.0,-502.0,-3249.0,-220.0,208.0,1
3.0,-103.0,-506.0,-3245.0,-108.0,239.0,1
5.0,-110.0,-501.0,-3221.0,7.0,275.0,1
2.0,-119.0,-482.0,-3190.0,117.0,313.0,1
-16.0,-130.0,-461.0,-3163.0,215.0,346.0,1
-25.0,-148.0,-441.0,-3142.0,298.0,371.0,1
-42.0,-168.0,-417.0,-3129.0,364.0,377.0,1
-47.0,-173.0,-395.0,-3118.0,411.0,364.0,1
-62.0,-180.0,-371.0,-3102.0,443.0,333.0,1
-71.0,-190.0,-351.0,-3073.0,456.0,287.0,1
-75.0,-191.0,-324.0,-3027.0,456.0,237.0,1
-83.0,-193.0,-304.0,-2967.0,442.0,188.0,1
-77.0,-190.0,-294.0,-2890.0,413.0,140.0,1
-77.0,-183.0,-269.0,-2807.0,377.0,99.0,1
-71.0,-175.0,-256.0,-2724.0,330.0,57.0,1
-65.0,-163.0,-244.0,-2647.0,276.0,33.0,1
-55.0,-143.0,-232.0,-2578.0,224.0,19.0,1
-47.0,-121.0,-222.0,-2517.0,175.0,19.0,1
-35.0,-106.0,-223.0,-2472.0,134.0,32.0,1
-27.0,-91.0,-216.0,-2438.0,101.0,59.0,1
-17.0,-83.0,-210.0,-2414.0,91.0,92.0,1
-11.0,-81.0,-203.0,-2395.0,104.0,131.0,1
-4.0,-73.0,-194.0,-2361.0,136.0,168.0,1
0.0,-76.0,-180.0,-2307.0,189.0,197.0,1
2.0,-81.0,-172.0,-2218.0,259.0,214.0,1
4.0,-86.0,-174.0,-2128.0,346.0,225.0,1
4.0,-82.0,-177.0,-2024.0,440.0,236.0,1
10.0,-78.0,-178.0,-1913.0,532.0,252.0,1
10.0,-70.0,-186.0,-1795.0,627.0,285.0,1
6.0,-56.0,-193.0,-1691.0,727.0,335.0,1
9.0,-47.0,-197.0,-1582.0,835.0,403.0,1
13.0,-33.0,-198.0,-1475.0,941.0,474.0,1
9.0,-24.0,-205.0,-1390.0,1038.0,545.0,1
22.0,-15.0,-199.0,-1336.0,1140.0,597.0,1
26.0,-16.0,-185.0,-1299.0,1237.0,641.0,1
27.0,-19.0,-181.0,-1277.0,1332.0,677.0,1
27.0,-19.0,-176.0,-1271.0,1423.0,700.0,1
24.0,-12.0,-171.0,-1290.0,1502.0,708.0,1
14.0,-5.0,-172.0,-1336.0,1559.0,700.0,1
4.0,1.0,-167.0,-1385.0,1594.0,689.0,1
0.0,0.0,-167.0,-1429.0,1615.0,680.0,1
-6.0,4.0,-157.0,-1455.0,1625.0,678.0,1
-8.0,6.0,-148.0,-1462.0,1630.0,684.0,1
-18.0,14.0,-151.0,-1455.0,1631.0,701.0,1
-11.0,4.0,-146.0,-1431.0,1645.0,730.0,1
-14.0,5.0,-151.0,-1391.0,1672.0,765.0,1
-16.0,11.0,-149.0,-1340.0,1709.0,800.0,1
-10.0,22.0,-151.0,-1284.0,1746.0,829.0,1
0.0,31.0,-157.0,-1222.0,1777.0,848.0,1
3.0,49.0,-165.0,-1176.0,1794.0,856.0,1
4.0,60.0,-167.0,-1155.0,1810.0,862.0,1
9.0,71.0,-170.0,-1159.0,1830.0,865.0,1
5.0,83.0,-173.0,-1172.0,1857.0,861.0,1
10.0,98.0,-176.0,-1184.0,1883.0,846.0,1
-3.0,103.0,-182.0,-1192.0,1890.0,821.0,1
-16.0,105.0,-174.0,-1193.0,1867.0,789.0,1
-28.0,101.0,-167.0,-1178.0,1817.0,739.0,1
-40.0,84.0,-157.0,-1121.0,1746.0,671.0,1
-49.0,69.0,-149.0,-1014.0,1663.0,601.0,1
-61.0,56.0,-152.0,-863.0,1578.0,541.0,1
-65.0,44.0,-159.0,-694.0,1504.0,490.0,1
-66.0,36.0,-156.0,-535.0,1436.0,443.0,1
-64.0,39.0,-172.0,-360.0,1358.0,406.0,1
-59.0,52.0,-172.0,-192.0,1264.0,373.0,1
-45.0,80.0,-195.0,-38.0,1155.0,348.0,1
-29.0,110.0,-210.0,81.0,1035.0,333.0,1
-8.0,137.0,-223.0,157.0,904.0,324.0,1
22.0,164.0,-224.0,201.0,772.0,322.0,1
56.0,192.0,-233.0,274.0,634.0,340.0,1
86.0,223.0,-234.0,339.0,498.0,359.0,1
107.0,250.0,-242.0,379.0,370.0,372.0,1
129.0,271.0,-239.0,386.0,252.0,381.0,1
151.0,295.0,-239.0,367.0,157.0,389.0,1
162.0,307.0,-234.0,324.0,105.0,396.0,1
174.0,314.0,-234.0,272.0,90.0,407.0,1
171.0,318.0,-229.0,203.0,110.0,420.0,1
174.0,318.0,-224.0,122.0,162.0,440.0,1
170.0,308.0,-222.0,38.0,237.0,468.0,1
169.0,297.0,-217.0,-44.0,327.0,498.0,1
171.0,284.0,-217.0,-121.0,423.0,542.0,1
172.0,273.0,-212.0,-189.0,521.0,592.0,1
173.0,263.0,-218.0,-242.0,610.0,639.0,1
170.0,247.0,-219.0,-275.0,679.0,681.0,1
168.0,233.0,-232.0,-286.0,736.0,718.0,1
163.0,225.0,-232.0,-283.0,786.0,749.0,1
161.0,247.0,-242.0,-257.0,815.0,753.0,1
226.0,336.0,-267.0,-152.0,802.0,702.0,1
241.0,386.0,-290.0,87.0,699.0,546.0,1
218.0,365.0,-260.0,429.0,573.0,433.0,1
172.0,305.0,-230.0,732.0,545.0,395.0,1
166.0,255.0,-208.0,943.0,586.0,450.0,1
160.0,260.0,-209.0,1090.0,673.0,461.0,1
145.0,240.0,-212.0,1034.0,810.0,464.0,1
165.0,243.0,-211.0,850.0,932.0,548.0,1
184.0,264.0,-224.0,625.0,1025.0,515.0,1
149.0,230.0,-204.0,416.0,1076.0,450.0,1
153.0,220.0,-230.0,310.0,1073.0,426.0,1
151.0,197.0,-242.0,209.0,1092.0,437.0,1
163.0,195.0,-253.0,111.0,1148.0,503.0,1
181.0,232.0,-278.0,-21.0,1255.0,546.0,1
183.0,239.0,-276.0,-126.0,1391.0,559.0,1
163.0,228.0,-259.0,-194.0,1543.0,569.0,1
165.0,229.0,-260.0,-185.0,1694.0,609.0,1
187.0,193.0,-269.0,-166.0,1776.0,637.0,1
169.0,191.0,-268.0,-150.0,1803.0,707.0,1
184.0,183.0,-269.0,-195.0,1819.0,769.0,1
197.0,165.0,-270.0,-277.0,1833.0,823.0,1
158.0,166.0,-256.0,-374.0,1849.0,861.0,1
190.0,182.0,-245.0,-476.0,1845.0,885.0,1
173.0,184.0,-245.0,-546.0,1838.0,885.0,1
191.0,197.0,-251.0,-589.0,1837.0,897.0,1
181.0,203.0,-232.0,-637.0,1821.0,882.0,1
166.0,201.0,-210.0,-681.0,1792.0,869.0,1
169.0,196.0,-199.0,-740.0,1767.0,868.0,1
160.0,208.0,-184.0,-806.0,1774.0,884.0,1
174.0,203.0,-174.0,-908.0,1768.0,889.0,1
160.0,211.0,-166.0,-980.0,1758.0,914.0,1
181.0,221.0,-159.0,-997.0,1703.0,919.0,1
158.0,210.0,-158.0,-958.0,1631.0,870.0,1
174.0,206.0,-140.0,-939.0,1605.0,888.0,1
167.0,195.0,-139.0,-889.0,1541.0,915.0,1
167.0,199.0,-147.0,-830.0,1466.0,912.0,1
173.0,209.0,-143.0,-763.0,1371.0,906.0,1
172.0,208.0,-137.0,-707.0,1276.0,875.0,1
173.0,209.0,-132.0,-651.0,1189.0,850.0,1
173.0,198.0,-122.0,-594.0,1098.0,825.0,1
169.0,198.0,-117.0,-526.0,1006.0,798.0,1
171.0,191.0,-110.0,-463.0,926.0,772.0,1
162.0,187.0,-108.0,-403.0,853.0,732.0,1
158.0,180.0,-97.0,-342.0,791.0,690.0,1
162.0,178.0,-87.0,-283.0,735.0,637.0,1
159.0,168.0,-81.0,-231.0,689.0,588.0,1
163.0,160.0,-75.0,-206.0,659.0,559.0,1
166.0,158.0,-77.0,-191.0,628.0,528.0,1
172.0,158.0,-75.0,-169.0,595.0,483.0,1
178.0,156.0,-76.0,-154.0,570.0,436.0,1
184.0,153.0,-78.0,-134.0,554.0,395.0,1
192.0,148.0,-77.0,-112.0,549.0,357.0,1
208.0,139.0,-74.0,-75.0,556.0,324.0,1
222.0,139.0,-75.0,-26.0,579.0,286.0,1
218.0,143.0,-71.0,37.0,616.0,254.0,1
210.0,149.0,-76.0,68.0,633.0,247.0,1
203.0,155.0,-77.0,63.0,618.0,243.0,1
202.0,152.0,-65.0,23.0,589.0,244.0,1
202.0,149.0,-62.0,-29.0,561.0,250.0,1
202.0,144.0,-58.0,-80.0,530.0,261.0,1
203.0,139.0,-49.0,-118.0,503.0,270.0,1
197.0,129.0,-48.0,-141.0,475.0,282.0,1
186.0,123.0,-48.0,-149.0,446.0,288.0,1
184.0,109.0,-59.0,-158.0,413.0,300.0,1
184.0,94.0,-65.0,-174.0,392.0,317.0,1
181.0,82.0,-75.0,-187.0,390.0,340.0,1
177.0,71.0,-77.0,-188.0,392.0,359.0,1
171.0,65.0,-80.0,-173.0,394.0,368.0,1
173.0,55.0,-90.0,-143.0,386.0,375.0,1
172.0,42.0,-101.0,-99.0,382.0,375.0,1
175.0,39.0,-110.0,-51.0,371.0,366.0,1
187.0,36.0,-113.0,2.0,365.0,346.0,1
189.0,30.0,-114.0,69.0,362.0,322.0,1
190.0,26.0,-112.0,142.0,355.0,297.0,1
191.0,42.0,-117.0,200.0,333.0,272.0,1
194.0,40.0,-116.0,248.0,307.0,256.0,1
201.0,45.0,-113.0,290.0,276.0,236.0,1
200.0,50.0,-115.0,333.0,247.0,227.0,1
199.0,57.0,-113.0,370.0,222.0,219.0,1
200.0,62.0,-114.0,397.0,196.0,207.0,1
209.0,65.0,-113.0,416.0,169.0,197.0,1
207.0,73.0,-113.0,432.0,138.0,190.0,1
203.0,74.0,-118.0,434.0,95.0,185.0,1
205.0,74.0,-120.0,435.0,46.0,176.0,1
205.0,75.0,-119.0,430.0,8.0,163.0,1
197.0,76.0,-126.0,421.0,-19.0,147.0,1
201.0,80.0,-119.0,411.0,-35.0,131.0,1
201.0,79.0,-126.0,403.0,-44.0,119.0,1
202.0,74.0,-130.0,399.0,-50.0,106.0,1
197.0,78.0,-135.0,400.0,-47.0,92.0,1
204.0,80.0,-143.0,401.0,-44.0,83.0,1
202.0,79.0,-145.0,390.0,-32.0,79.0,1
201.0,82.0,-149.0,379.0,-25.0,76.0,1
200.0,80.0,-157.0,375.0,-24.0,64.0,1
210.0,79.0,-158.0,369.0,-22.0,53.0,1
215.0,81.0,-159.0,355.0,-21.0,48.0,1
217.0,78.0,-155.0,335.0,-27.0,44.0,1
215.0,78.0,-156.0,312.0,-41.0,39.0,1
217.0,82.0,-156.0,287.0,-63.0,37.0,1
223.0,73.0,-158.0,268.0,-82.0,35.0,1
223.0,81.0,-160.0,257.0,-101.0,22.0,1
222.0,80.0,-157.0,254.0,-118.0,10.0,1
223.0,74.0,-157.0,248.0,-129.0,-1.0,1
220.0,72.0,-150.0,245.0,-140.0,-13.0,1
215.0,71.0,-148.0,243.0,-146.0,-25.0,1
213.0,70.0,-152.0,234.0,-151.0,-38.0,1
216.0,69.0,-149.0,227.0,-155.0,-59.0,1
215.0,72.0,-150.0,222.0,-149.0,-80.0,1
210.0,68.0,-154.0,210.0,-138.0,-94.0,1
211.0,74.0,-152.0,186.0,-132.0,-106.0,1
214.0,73.0,-152.0,167.0,-127.0,-121.0,1
212.0,80.0,-148.0,151.0,-123.0,-136.0,1
217.0,78.0,-147.0,144.0,-123.0,-152.0,1
207.0,78.0,-150.0,144.0,-124.0,-167.0,1
206.0,79.0,-149.0,134.0,-127.0,-171.0,1
204.0,74.0,-148.0,124.0,-128.0,-177.0,1
205.0,77.0,-150.0,116.0,-129.0,-184.0,1
201.0,73.0,-149.0,115.0,-133.0,-196.0,1
199.0,71.0,-144.0,121.0,-137.0,-209.0,1
200.0,68.0,-142.0,126.0,-146.0,-225.0,1
197.0,70.0,-145.0,136.0,-156.0,-242.0,1
196.0,71.0,-142.0,144.0,-164.0,-259.0,1
194.0,71.0,-139.0,157.0,-170.0,-276.0,1
195.0,68.0,-141.0,174.0,-175.0,-292.0,1
196.0,71.0,-141.0,190.0,-180.0,-308.0,1
194.0,72.0,-141.0,201.0,-185.0,-326.0,1
192.0,73.0,-138.0,200.0,-190.0,-344.0,1
194.0,77.0,-142.0,195.0,-194.0,-360.0,1
191.0,82.0,-142.0,183.0,-196.0,-369.0,1
193.0,80.0,-132.0,174.0,-201.0,-374.0,1
189.0,83.0,-139.0,164.0,-204.0,-375.0,1
195.0,78.0,-141.0,150.0,-203.0,-374.0,1
193.0,83.0,-141.0,137.0,-203.0,-373.0,1
193.0,82.0,-145.0,126.0,-201.0,-373.0,1
191.0,78.0,-138.0,118.0,-198.0,-372.0,1
189.0,80.0,-141.0,110.0,-196.0,-375.0,1
192.0,80.0,-141.0,100.0,-197.0,-377.0,1
191.0,75.0,-141.0,92.0,-199.0,-381.0,1
193.0,76.0,-139.0,86.0,-202.0,-382.0,1
189.0,74.0,-138.0,83.0,-207.0,-385.0,1
194.0,74.0,-140.0,84.0,-214.0,-388.0,1
186.0,68.0,-139.0,95.0,-220.0,-388.0,1
188.0,70.0,-144.0,111.0,-226.0,-390.0,1
188.0,75.0,-148.0,129.0,-232.0,-392.0,1
192.0,78.0,-152.0,145.0,-237.0,-390.0,1
190.0,79.0,-153.0,149.0,-243.0,-393.0,1
186.0,81.0,-157.0,164.0,-241.0,-391.0,1
190.0,85.0,-156.0,179.0,-238.0,-387.0,1
193.0,91.0,-165.0,192.0,-232.0,-382.0,1
191.0,90.0,-153.0,196.0,-227.0,-378.0,1
189.0,93.0,-160.0,199.0,-226.0,-366.0,1
192.0,96.0,-158.0,188.0,-234.0,-358.0,1
191.0,101.0,-156.0,175.0,-235.0,-343.0,1
185.0,100.0,-157.0,176.0,-232.0,-334.0,1
190.0,106.0,-164.0,168.0,-228.0,-325.0,1
186.0,111.0,-159.0,156.0,-224.0,-318.0,1
190.0,111.0,-161.0,141.0,-219.0,-311.0,1
186.0,110.0,-156.0,127.0,-220.0,-305.0,1
186.0,109.0,-150.0,124.0,-225.0,-298.0,1
183.0,110.0,-153.0,119.0,-231.0,-292.0,1
179.0,112.0,-149.0,114.0,-233.0,-289.0,1
179.0,117.0,-147.0,113.0,-230.0,-286.0,1
178.0,114.0,-148.0,124.0,-223.0,-282.0,1
185.0,107.0,-156.0,139.0,-217.0,-280.0,1
185.0,113.0,-150.0,140.0,-216.0,-279.0,1
186.0,117.0,-160.0,122.0,-222.0,-275.0,1
185.0,120.0,-149.0,108.0,-227.0,-267.0,1
179.0,119.0,-153.0,120.0,-223.0,-260.0,1
183.0,124.0,-153.0,140.0,-218.0,-247.0,1
182.0,121.0,-158.0,163.0,-218.0,-238.0,1
182.0,121.0,-159.0,173.0,-221.0,-226.0,1
183.0,120.0,-160.0,167.0,-229.0,-217.0,1
175.0,119.0,-159.0,151.0,-234.0,-210.0,1
181.0,121.0,-159.0,141.0,-235.0,-201.0,1
174.0,114.0,-161.0,133.0,-230.0,-194.0,1
179.0,121.0,-158.0,115.0,-228.0,-191.0,1
179.0,121.0,-159.0,99.0,-225.0,-190.0,1
181.0,123.0,-159.0,81.0,-220.0,-184.0,1
174.0,124.0,-162.0,65.0,-216.0,-176.0,1
175.0,123.0,-157.0,55.0,-211.0,-167.0,1
177.0,117.0,-161.0,52.0,-211.0,-153.0,1
177.0,117.0,-154.0,53.0,-210.0,-139.0,1
175.0,112.0,-158.0,53.0,-205.0,-123.0,1
175.0,110.0,-162.0,57.0,-196.0,-112.0,1
174.0,108.0,-162.0,66.0,-188.0,-107.0,1
175.0,107.0,-166.0,69.0,-181.0,-99.0,1
178.0,106.0,-157.0,71.0,-176.0,-92.0,1
174.0,102.0,-157.0,73.0,-174.0,-86.0,1
172.0,104.0,-158.0,80.0,-176.0,-81.0,1
172.0,102.0,-160.0,86.0,-180.0,-77.0,1
174.0,105.0,-162.0,87.0,-180.0,-73.0,1
171.0,107.0,-163.0,87.0,-179.0,-67.0,1
172.0,105.0,-161.0,90.0,-177.0,-60.0,1
173.0,102.0,-155.0,94.0,-177.0,-55.0,1
169.0,103.0,-159.0,98.0,-177.0,-48.0,1
173.0,102.0,-162.0,102.0,-177.0,-42.0,1
167.0,101.0,-164.0,106.0,-177.0,-36.0,1
167.0,103.0,-163.0,112.0,-177.0,-30.0,1
170.0,102.0,-161.0,116.0,-174.0,-23.0,1
168.0,104.0,-165.0,119.0,-172.0,-19.0,1
172.0,102.0,-162.0,125.0,-170.0,-14.0,1
168.0,104.0,-166.0,131.0,-168.0,-7.0,1
170.0,103.0,-167.0,135.0,-164.0,-1.0,1
167.0,103.0,-164.0,137.0,-161.0,2.0,1
168.0,99.0,-162.0,139.0,-156.0,8.0,1
168.0,100.0,-166.0,142.0,-151.0,12.0,1
169.0,101.0,-170.0,144.0,-146.0,15.0,1
168.0,99.0,-166.0,143.0,-139.0,17.0,1
170.0,103.0,-165.0,140.0,-131.0,19.0,1
169.0,101.0,-167.0,137.0,-121.0,20.0,1
168.0,98.0,-170.0,136.0,-109.0,21.0,1
168.0,98.0,-174.0,131.0,-100.0,19.0,1
165.0,102.0,-173.0,129.0,-89.0,20.0,1
172.0,97.0,-175.0,130.0,-78.0,22.0,1
173.0,100.0,-171.0,130.0,-67.0,23.0,1
173.0,100.0,-175.0,130.0,-52.0,25.0,1
170.0,103.0,-177.0,128.0,-38.0,29.0,1
175.0,98.0,-167.0,128.0,-25.0,32.0,1
170.0,101.0,-174.0,125.0,-12.0,33.0,1
172.0,99.0,-178.0,120.0,0.0,36.0,1
172.0,100.0,-173.0,117.0,10.0,38.0,1
172.0,101.0,-174.0,112.0,20.0,38.0,1
171.0,98.0,-173.0,106.0,29.0,38.0,1
171.0,101.0,-177.0,101.0,37.0,39.0,1
170.0,98.0,-173.0,96.0,44.0,37.0,1
174.0,98.0,-177.0,91.0,51.0,38.0,1
176.0,96.0,-176.0,86.0,58.0,36.0,1
175.0,100.0,-174.0,82.0,62.0,33.0,1
182.0,100.0,-178.0,79.0,67.0,31.0,1
174.0,99.0,-174.0,76.0,73.0,28.0,1
173.0,99.0,-175.0,73.0,79.0,29.0,1
170.0,99.0,-172.0,71.0,84.0,31.0,1
174.0,98.0,-169.0,69.0,92.0,29.0,1
173.0,97.0,-171.0,67.0,98.0,28.0,1
173.0,96.0,-172.0,65.0,103.0,30.0,1
174.0,100.0,-172.0,62.0,110.0,27.0,1
174.0,96.0,-174.0,60.0,116.0,26.0,1
172.0,96.0,-164.0,56.0,121.0,24.0,1
175.0,97.0,-170.0,52.0,124.0,23.0,1
179.0,95.0,-167.0,50.0,126.0,19.0,1
175.0,98.0,-166.0,48.0,126.0,17.0,1
177.0,96.0,-165.0,47.0,127.0,15.0,1
176.0,96.0,-167.0,46.0,126.0,11.0,1
175.0,97.0,-164.0,44.0,125.0,9.0,1
173.0,100.0,-168.0,42.0,123.0,7.0,1
174.0,98.0,-167.0,41.0,120.0,3.0,1
175.0,95.0,-165.0,39.0,118.0,1.0,1
175.0,96.0,-160.0,38.0,115.0,0.0,1
175.0,98.0,-163.0,38.0,112.0,-1.0,1
174.0,94.0,-165.0,39.0,111.0,-4.0,1
175.0,98.0,-160.0,38.0,107.0,-5.0,1
175.0,97.0,-160.0,38.0,104.0,-7.0,1
172.0,100.0,-160.0,37.0,102.0,-8.0,1
176.0,96.0,-157.0,37.0,97.0,-9.0,1
173.0,99.0,-160.0,38.0,94.0,-10.0,1
176.0,99.0,-159.0,38.0,90.0,-10.0,1
176.0,98.0,-159.0,37.0,85.0,-11.0,1
179.0,94.0,-160.0,37.0,80.0,-7.0,1
175.0,93.0,-159.0,39.0,72.0,-5.0,1
175.0,98.0,-160.0,40.0,67.0,-6.0,1
177.0,99.0,-162.0,41.0,61.0,-6.0,1
173.0,90.0,-160.0,42.0,56.0,-5.0,1
176.0,96.0,-160.0,45.0,51.0,-2.0,1
177.0,100.0,-162.0,46.0,47.0,-2.0,1
174.0,97.0,-153.0,45.0,40.0,0.0,1
176.0,98.0,-156.0,46.0,35.0,-2.0,1
174.0,102.0,-158.0,44.0,29.0,-2.0,1
175.0,99.0,-160.0,44.0,23.0,-2.0,1
173.0,95.0,-162.0,44.0,18.0,-4.0,1
174.0,96.0,-160.0,44.0,15.0,-4.0,1
176.0,99.0,-156.0,44.0,11.0,-4.0,1
171.0,99.0,-159.0,45.0,7.0,-4.0,1
180.0,89.0,-157.0,47.0,4.0,-5.0,1
173.0,98.0,-159.0,48.0,1.0,-4.0,1
176.0,99.0,-162.0,52.0,-2.0,-4.0,1
176.0,97.0,-161.0,53.0,-3.0,-4.0,1
177.0,97.0,-161.0,57.0,-6.0,-4.0,1
176.0,99.0,-159.0,59.0,-9.0,-3.0,1
178.0,97.0,-163.0,58.0,-12.0,-4.0,1
174.0,96.0,-162.0,57.0,-16.0,-5.0,1
174.0,95.0,-165.0,55.0,-18.0,-7.0,1
176.0,93.0,-163.0,54.0,-22.0,-9.0,1
175.0,97.0,-162.0,53.0,-25.0,-13.0,1
173.0,90.0,-165.0,49.0,-29.0,-15.0,1
173.0,98.0,-161.0,48.0,-31.0,-17.0,1
174.0,99.0,-162.0,49.0,-33.0,-17.0,1
174.0,97.0,-164.0,49.0,-35.0,-17.0,1
169.0,101.0,-165.0,50.0,-36.0,-19.0,1
174.0,100.0,-168.0,51.0,-37.0,-20.0,1
175.0,98.0,-167.0,52.0,-37.0,-19.0,1
174.0,98.0,-166.0,54.0,-36.0,-19.0,1
174.0,98.0,-164.0,53.0,-35.0,-18.0,1
174.0,96.0,-168.0,53.0,-32.0,-18.0,1
173.0,97.0,-168.0,51.0,-31.0,-20.0,1
174.0,94.0,-167.0,50.0,-27.0,-20.0,1
175.0,96.0,-166.0,50.0,-25.0,-21.0,1
177.0,97.0,-170.0,49.0,-23.0,-22.0,1
173.0,94.0,-168.0,48.0,-19.0,-24.0,1
176.0,100.0,-169.0,46.0,-14.0,-23.0,1
173.0,100.0,-169.0,46.0,-9.0,-23.0,1
176.0,99.0,-168.0,43.0,-6.0,-23.0,1
172.0,100.0,-171.0,43.0,-2.0,-23.0,1
175.0,97.0,-166.0,42.0,4.0,-25.0,1
175.0,95.0,-167.0,42.0,8.0,-25.0,1
175.0,100.0,-169.0,42.0,11.0,-24.0,1
169.0,98.0,-165.0,41.0,14.0,-23.0,1
171.0,101.0,-166.0,41.0,16.0,-23.0,1
174.0,99.0,-163.0,42.0,18.0,-23.0,1
171.0,100.0,-163.0,41.0,16.0,-23.0,1
173.0,100.0,-165.0,41.0,16.0,-24.0,1
173.0,102.0,-161.0,42.0,15.0,-23.0,1
173.0,98.0,-162.0,43.0,16.0,-22.0,1
171.0,101.0,-168.0,43.0,16.0,-22.0,1
171.0,100.0,-164.0,44.0,17.0,-18.0,1
174.0,98.0,-164.0,46.0,17.0,-21.0,1
172.0,94.0,-160.0,47.0,17.0,-18.0,1
172.0,98.0,-162.0,48.0,17.0,-17.0,1
175.0,99.0,-161.0,51.0,15.0,-19.0,1
176.0,100.0,-164.0,51.0,14.0,-17.0,1
173.0,97.0,-163.0,51.0,13.0,-18.0,1
173.0,96.0,-163.0,49.0,12.0,-17.0,1
170.0,98.0,-162.0,49.0,13.0,-17.0,1
172.0,101.0,-166.0,48.0,12.0,-17.0,1
174.0,98.0,-164.0,46.0,11.0,-17.0,1
174.0,101.0,-162.0,46.0,11.0,-15.0,1
176.0,99.0,-167.0,51.0,12.0,-15.0,1
172.0,99.0,-164.0,52.0,13.0,-13.0,1
172.0,99.0,-165.0,54.0,12.0,-14.0,1
173.0,101.0,-164.0,56.0,13.0,-11.0,1
174.0,101.0,-164.0,58.0,11.0,-10.0,1
175.0,97.0,-166.0,60.0,10.0,-8.0,1
175.0,97.0,-161.0,61.0,11.0,-8.0,1
175.0,97.0,-166.0,61.0,12.0,-8.0,1
174.0,96.0,-163.0,63.0,12.0,-8.0,1
171.0,100.0,-165.0,62.0,12.0,-7.0,1
173.0,97.0,-165.0,62.0,13.0,-8.0,1
173.0,99.0,-167.0,60.0,14.0,-9.0,1
175.0,100.0,-158.0,58.0,14.0,-10.0,1
174.0,99.0,-163.0,56.0,14.0,-10.0,1
175.0,97.0,-161.0,54.0,14.0,-13.0,1
175.0,100.0,-167.0,52.0,13.0,-13.0,1
172.0,98.0,-161.0,51.0,12.0,-13.0,1
172.0,100.0,-163.0,51.0,13.0,-13.0,1
175.0,100.0,-159.0,52.0,10.0,-14.0,1
175.0,99.0,-164.0,52.0,8.0,-12.0,1
176.0,102.0,-164.0,53.0,7.0,-12.0,1
175.0,96.0,-163.0,52.0,7.0,-14.0,1
176.0,101.0,-162.0,52.0,6.0,-14.0,1
174.0,96.0,-168.0,53.0,6.0,-14.0,1
175.0,98.0,-166.0,52.0,6.0,-13.0,1
176.0,99.0,-165.0,53.0,5.0,-13.0,1
174.0,99.0,-162.0,53.0,6.0,-12.0,1
174.0,101.0,-168.0,51.0,6.0,-12.0,1
173.0,98.0,-161.0,50.0,6.0,-14.0,1
171.0,96.0,-162.0,49.0,5.0,-15.0,1
171.0,96.0,-161.0,49.0,4.0,-14.0,1
178.0,91.0,-161.0,47.0,3.0,-15.0,1
176.0,95.0,-158.0,48.0,2.0,-14.0,1
171.0,98.0,-166.0,49.0,0.0,-14.0,1
177.0,93.0,-165.0,50.0,-1.0,-16.0,1
172.0,96.0,-162.0,50.0,-3.0,-17.0,1
171.0,98.0,-164.0,50.0,-4.0,-18.0,1
176.0,99.0,-165.0,47.0,-6.0,-19.0,1
172.0,97.0,-162.0,46.0,-6.0,-20.0,1
174.0,98.0,-164.0,45.0,-7.0,-22.0,1
168.0,99.0,-162.0,44.0,-8.0,-23.0,1
169.0,100.0,-165.0,42.0,-8.0,-23.0,1
177.0,95.0,-164.0,39.0,-8.0,-23.0,1
172.0,96.0,-164.0,37.0,-9.0,-27.0,1
174.0,98.0,-165.0,35.0,-10.0,-27.0,1
177.0,96.0,-164.0,33.0,-11.0,-28.0,1
173.0,101.0,-165.0,34.0,-11.0,-27.0,1
171.0,102.0,-165.0,34.0,-12.0,-27.0,1
175.0,97.0,-161.0,33.0,-14.0,-25.0,1
172.0,100.0,-162.0,32.0,-16.0,-27.0,1
173.0,98.0,-161.0,32.0,-17.0,-28.0,1
173.0,98.0,-162.0,32.0,-19.0,-28.0,1
175.0,100.0,-163.0,32.0,-19.0,-28.0,1
177.0,100.0,-160.0,33.0,-23.0,-30.0,1
176.0,97.0,-161.0,32.0,-23.0,-29.0,1
170.0,100.0,-164.0,33.0,-25.0,-31.0,1
169.0,97.0,-165.0,33.0,-25.0,-29.0,1
173.0,97.0,-165.0,34.0,-26.0,-29.0,1
173.0,102.0,-165.0,34.0,-25.0,-30.0,1
174.0,96.0,-163.0,35.0,-23.0,-31.0,1
173.0,98.0,-166.0,38.0,-21.0,-29.0,1
173.0,100.0,-164.0,40.0,-20.0,-30.0,1
171.0,100.0,-166.0,41.0,-19.0,-30.0,1
175.0,96.0,-159.0,40.0,-19.0,-29.0,1
175.0,101.0,-163.0,40.0,-18.0,-30.0,1
172.0,101.0,-163.0,39.0,-19.0,-28.0,1
176.0,100.0,-163.0,39.0,-21.0,-29.0,1
172.0,99.0,-167.0,37.0,-24.0,-29.0,1
173.0,101.0,-164.0,39.0,-26.0,-29.0,1
173.0,99.0,-161.0,41.0,-29.0,-29.0,1
174.0,99.0,-166.0,42.0,-32.0,-29.0,1
170.0,100.0,-167.0,43.0,-32.0,-28.0,1
173.0,100.0,-165.0,45.0,-32.0,-29.0,1
169.0,101.0,-165.0,48.0,-31.0,-27.0,1
175.0,95.0,-162.0,48.0,-30.0,-26.0,1
172.0,97.0,-165.0,50.0,-28.0,-25.0,1
174.0,98.0,-167.0,49.0,-27.0,-26.0,1
171.0,103.0,-171.0,50.0,-25.0,-27.0,1
173.0,95.0,-163.0,48.0,-25.0,-25.0,1
171.0,102.0,-162.0,48.0,-23.0,-25.0,1
172.0,99.0,-168.0,48.0,-22.0,-26.0,1
171.0,101.0,-168.0,46.0,-21.0,-25.0,1
173.0,101.0,-169.0,47.0,-20.0,-23.0,1
174.0,99.0,-166.0,48.0,-19.0,-24.0,1
176.0,95.0,-167.0,50.0,-19.0,-22.0,1
172.0,102.0,-168.0,49.0,-18.0,-23.0,1
169.0,103.0,-164.0,48.0,-17.0,-24.0,1
171.0,98.0,-163.0,47.0,-17.0,-25.0,1
177.0,102.0,-166.0,46.0,-15.0,-24.0,1
175.0,99.0,-167.0,47.0,-13.0,-24.0,1
173.0,99.0,-167.0,46.0,-13.0,-24.0,1
169.0,102.0,-170.0,46.0,-12.0,-24.0,1
170.0,102.0,-162.0,47.0,-11.0,-24.0,1
170.0,100.0,-165.0,47.0,-9.0,-23.0,1
169.0,99.0,-163.0,49.0,-9.0,-22.0,1
172.0,100.0,-168.0,48.0,-7.0,-20.0,1
169.0,101.0,-172.0,46.0,-5.0,-19.0,1
171.0,107.0,-166.0,46.0,-4.0,-20.0,1
172.0,96.0,-168.0,45.0,-3.0,-19.0,1
170.0,102.0,-167.0,45.0,-3.0,-19.0,1
171.0,101.0,-166.0,44.0,-2.0,-20.0,1
171.0,99.0,-171.0,44.0,-3.0,-17.0,1
171.0,101.0,-168.0,44.0,-2.0,-18.0,1
172.0,99.0,-165.0,45.0,-2.0,-18.0,1
170.0,100.0,-164.0,45.0,-2.0,-19.0,1
172.0,99.0,-167.0,46.0,-3.0,-18.0,1
170.0,96.0,-164.0,46.0,-4.0,-17.0,1
169.0,100.0,-164.0,44.0,-3.0,-16.0,1
171.0,100.0,-167.0,46.0,-3.0,-17.0,1
169.0,102.0,-165.0,46.0,-3.0,-16.0,1
166.0,97.0,-172.0,46.0,-3.0,-17.0,1
170.0,101.0,-167.0,45.0,-3.0,-16.0,1
170.0,99.0,-165.0,45.0,-2.0,-17.0,1
173.0,97.0,-163.0,46.0,-1.0,-17.0,1
172.0,100.0,-169.0,46.0,-1.0,-17.0,1
173.0,99.0,-166.0,45.0,0.0,-16.0,1
170.0,99.0,-166.0,47.0,1.0,-16.0,1
172.0,102.0,-164.0,49.0,1.0,-14.0,1
171.0,99.0,-172.0,49.0,3.0,-12.0,1
174.0,101.0,-170.0,51.0,4.0,-13.0,1
171.0,104.0,-165.0,52.0,5.0,-13.0,1
173.0,95.0,-171.0,52.0,6.0,-12.0,1
169.0,103.0,-169.0,53.0,6.0,-12.0,1
173.0,100.0,-168.0,54.0,5.0,-11.0,1
171.0,101.0,-165.0,53.0,5.0,-12.0,1
169.0,101.0,-167.0,54.0,6.0,-11.0,1
170.0,102.0,-171.0,53.0,6.0,-11.0,1
169.0,99.0,-170.0,52.0,7.0,-12.0,1
172.0,98.0,-163.0,51.0,7.0,-10.0,1
172.0,99.0,-166.0,50.0,8.0,-9.0,1
171.0,96.0,-167.0,49.0,11.0,-10.0,1
172.0,103.0,-168.0,48.0,13.0,-9.0,1
176.0,95.0,-170.0,49.0,16.0,-8.0,1
171.0,100.0,-168.0,50.0,19.0,-8.0,1
172.0,100.0,-163.0,50.0,21.0,-7.0,1
171.0,103.0,-162.0,49.0,22.0,-8.0,1
171.0,100.0,-166.0,48.0,23.0,-7.0,1
170.0,103.0,-165.0,49.0,22.0,-7.0,1
171.0,101.0,-169.0,48.0,21.0,-7.0,1
175.0,98.0,-166.0,50.0,21.0,-7.0,1
171.0,101.0,-163.0,51.0,21.0,-7.0,1
172.0,100.0,-169.0,51.0,21.0,-8.0,1
170.0,99.0,-165.0,52.0,21.0,-8.0,1
168.0,106.0,-162.0,53.0,20.0,-7.0,1
169.0,99.0,-166.0,52.0,19.0,-7.0,1
171.0,99.0,-166.0,51.0,19.0,-8.0,1
169.0,98.0,-164.0,51.0,20.0,-9.0,1
170.0,103.0,-161.0,50.0,18.0,-8.0,1
170.0,99.0,-165.0,49.0,19.0,-10.0,1
168.0,100.0,-166.0,50.0,20.0,-10.0,1
171.0,100.0,-164.0,50.0,19.0,-9.0,1
171.0,99.0,-166.0,50.0,17.0,-10.0,1
171.0,102.0,-167.0,52.0,17.0,-10.0,1
173.0,98.0,-165.0,54.0,16.0,-11.0,1
171.0,97.0,-166.0,53.0,14.0,-9.0,1
170.0,102.0,-167.0,54.0,15.0,-11.0,1
172.0,100.0,-167.0,53.0,16.0,-10.0,1
172.0,100.0,-163.0,52.0,15.0,-10.0,1
171.0,100.0,-162.0,51.0,15.0,-10.0,1
173.0,100.0,-164.0,50.0,16.0,-12.0,1
170.0,101.0,-167.0,51.0,16.0,-11.0,1
171.0,100.0,-163.0,50.0,15.0,-10.0,1
168.0,101.0,-164.0,52.0,16.0,-11.0,1
173.0,99.0,-161.0,52.0,14.0,-10.0,1
172.0,98.0,-166.0,53.0,14.0,-10.0,1
167.0,100.0,-168.0,54.0,13.0,-8.0,1
172.0,100.0,-166.0,54.0,12.0,-9.0,1
173.0,100.0,-164.0,55.0,13.0,-11.0,1
169.0,101.0,-169.0,55.0,13.0,-11.0,1
173.0,100.0,-165.0,55.0,13.0,-8.0,1
169.0,99.0,-165.0,54.0,14.0,-9.0,1
171.0,101.0,-168.0,53.0,15.0,-10.0,1
168.0,101.0,-167.0,52.0,15.0,-11.0,1
172.0,105.0,-164.0,51.0,15.0,-11.0,1
173.0,102.0,-166.0,50.0,16.0,-13.0,1
171.0,99.0,-168.0,49.0,17.0,-13.0,1
168.0,93.0,-160.0,49.0,17.0,-14.0,1
170.0,102.0,-162.0,50.0,17.0,-14.0,1
173.0,96.0,-164.0,51.0,15.0,-14.0,1
167.0,104.0,-164.0,53.0,13.0,-16.0,1
173.0,98.0,-167.0,51.0,9.0,-15.0,1
171.0,101.0,-162.0,53.0,7.0,-15.0,1
171.0,101.0,-164.0,55.0,5.0,-16.0,1
175.0,102.0,-161.0,54.0,3.0,-16.0,1
172.0,98.0,-168.0,53.0,0.0,-17.0,1
170.0,103.0,-167.0,48.0,-4.0,-15.0,1
170.0,103.0,-163.0,53.0,1.0,-14.0,1
170.0,100.0,-163.0,56.0,4.0,-14.0,1
169.0,100.0,-164.0,56.0,5.0,-14.0,1
173.0,103.0,-165.0,55.0,5.0,-15.0,1
170.0,101.0,-170.0,54.0,6.0,-16.0,1
172.0,99.0,-165.0,54.0,6.0,-16.0,1
172.0,99.0,-167.0,54.0,6.0,-17.0,1
170.0,102.0,-164.0,53.0,5.0,-17.0,1
169.0,100.0,-166.0,53.0,5.0,-16.0,1
172.0,100.0,-168.0,52.0,3.0,-16.0,1
172.0,100.0,-162.0,54.0,3.0,-15.0,1
168.0,102.0,-166.0,54.0,3.0,-15.0,1
170.0,99.0,-163.0,55.0,3.0,-14.0,1
171.0,99.0,-167.0,56.0,3.0,-15.0,1
173.0,101.0,-163.0,57.0,5.0,-14.0,1
174.0,103.0,-168.0,59.0,4.0,-13.0,1
172.0,100.0,-168.0,59.0,5.0,-13.0,1
171.0,99.0,-165.0,58.0,7.0,-13.0,1
170.0,105.0,-166.0,58.0,7.0,-14.0,1
169.0,103.0,-168.0,57.0,8.0,-13.0,1
173.0,103.0,-169.0,56.0,8.0,-14.0,1
169.0,105.0,-165.0,56.0,9.0,-14.0,1
167.0,99.0,-163.0,55.0,9.0,-14.0,1
171.0,100.0,-167.0,54.0,10.0,-12.0,1
173.0,100.0,-166.0,54.0,9.0,-12.0,1
169.0,101.0,-169.0,55.0,8.0,-12.0,1
169.0,101.0,-167.0,55.0,9.0,-11.0,1
170.0,102.0,-165.0,56.0,10.0,-10.0,1
169.0,100.0,-164.0,58.0,11.0,-11.0,1
170.0,102.0,-164.0,57.0,12.0,-10.0,1
169.0,102.0,-168.0,56.0,12.0,-9.0,1
172.0,98.0,-166.0,58.0,13.0,-9.0,1
175.0,101.0,-167.0,57.0,13.0,-10.0,1
170.0,98.0,-171.0,57.0,14.0,-10.0,1
171.0,101.0,-166.0,55.0,15.0,-10.0,1
171.0,101.0,-166.0,54.0,16.0,-8.0,1
171.0,101.0,-168.0,55.0,18.0,-10.0,1
172.0,98.0,-162.0,56.0,20.0,-10.0,1
172.0,102.0,-168.0,53.0,20.0,-9.0,1
170.0,100.0,-166.0,55.0,20.0,-10.0,1
173.0,103.0,-167.0,55.0,19.0,-10.0,1
171.0,99.0,-165.0,56.0,20.0,-10.0,1
168.0,100.0,-169.0,56.0,19.0,-10.0,1
170.0,103.0,-168.0,57.0,19.0,-10.0,1
169.0,101.0,-162.0,57.0,20.0,-10.0,1
172.0,99.0,-165.0,57.0,18.0,-10.0,1
169.0,100.0,-165.0,55.0,18.0,-8.0,1
170.0,104.0,-164.0,54.0,16.0,-9.0,1
174.0,99.0,-167.0,54.0,15.0,-10.0,1
168.0,102.0,-170.0,53.0,16.0,-12.0,1
170.0,101.0,-164.0,52.0,16.0,-11.0,1
169.0,99.0,-164.0,54.0,16.0,-11.0,1
172.0,102.0,-169.0,53.0,15.0,-11.0,1
171.0,100.0,-170.0,54.0,16.0,-11.0,1
167.0,100.0,-164.0,55.0,17.0,-13.0,1
176.0,96.0,-170.0,56.0,17.0,-13.0,1
171.0,100.0,-163.0,52.0,15.0,-10.0,1
171.0,100.0,-168.0,54.0,13.0,-12.0,1
170.0,99.0,-166.0,56.0,14.0,-12.0,1
172.0,103.0,-165.0,56.0,14.0,-11.0,1
171.0,102.0,-167.0,57.0,13.0,-11.0,1
172.0,99.0,-165.0,56.0,13.0,-12.0,1
173.0,100.0,-168.0,56.0,12.0,-13.0,1
172.0,102.0,-165.0,57.0,12.0,-14.0,1
173.0,97.0,-167.0,57.0,10.0,-12.0,1
173.0,99.0,-168.0,56.0,9.0,-12.0,1
173.0,101.0,-169.0,53.0,7.0,-12.0,1
170.0,101.0,-168.0,55.0,9.0,-11.0,1
168.0,100.0,-169.0,57.0,9.0,-10.0,1
170.0,101.0,-167.0,56.0,11.0,-10.0,1
172.0,100.0,-165.0,57.0,11.0,-11.0,1
172.0,101.0,-169.0,57.0,11.0,-13.0,1
169.0,101.0,-163.0,58.0,11.0,-13.0,1
173.0,96.0,-164.0,57.0,11.0,-12.0,1
171.0,104.0,-160.0,58.0,11.0,-12.0,1
171.0,99.0,-170.0,58.0,10.0,-12.0,1
170.0,100.0,-166.0,59.0,10.0,-11.0,1
168.0,97.0,-171.0,60.0,10.0,-9.0,1
171.0,99.0,-167.0,60.0,10.0,-9.0,1
171.0,99.0,-166.0,60.0,11.0,-10.0,1
170.0,101.0,-164.0,61.0,12.0,-10.0,1
171.0,102.0,-163.0,61.0,11.0,-11.0,1
171.0,102.0,-167.0,60.0,11.0,-10.0,1
171.0,101.0,-166.0,59.0,13.0,-12.0,1
169.0,102.0,-167.0,59.0,13.0,-11.0,1
175.0,96.0,-163.0,59.0,13.0,-11.0,1
168.0,100.0,-163.0,60.0,13.0,-11.0,1
167.0,98.0,-167.0,61.0,13.0,-10.0,1
170.0,101.0,-166.0,59.0,13.0,-10.0,1
172.0,100.0,-166.0,58.0,12.0,-13.0,1
171.0,101.0,-164.0,58.0,13.0,-13.0,1
174.0,100.0,-169.0,59.0,12.0,-13.0,1
172.0,101.0,-165.0,59.0,12.0,-13.0,1
170.0,101.0,-163.0,58.0,11.0,-13.0,1
174.0,98.0,-165.0,58.0,10.0,-13.0,1
171.0,99.0,-163.0,58.0,10.0,-14.0,1
168.0,102.0,-165.0,58.0,11.0,-13.0,1
172.0,101.0,-167.0,58.0,11.0,-12.0,1
171.0,97.0,-167.0,58.0,12.0,-13.0,1
169.0,96.0,-168.0,58.0,11.0,-12.0,1
171.0,102.0,-167.0,57.0,11.0,-13.0,1
172.0,99.0,-165.0,54.0,11.0,-13.0,1
167.0,101.0,-171.0,55.0,11.0,-12.0,1
171.0,99.0,-166.0,56.0,11.0,-13.0,1
172.0,101.0,-166.0,55.0,12.0,-12.0,1
169.0,98.0,-165.0,54.0,11.0,-12.0,1
170.0,98.0,-164.0,54.0,11.0,-13.0,1
170.0,99.0,-166.0,55.0,11.0,-11.0,1
169.0,104.0,-170.0,54.0,11.0,-14.0,1
172.0,96.0,-169.0,54.0,12.0,-15.0,1
172.0,100.0,-167.0,56.0,11.0,-13.0,1
173.0,100.0,-168.0,56.0,11.0,-15.0,1
171.0,102.0,-168.0,54.0,10.0,-14.0,1
169.0,100.0,-169.0,54.0,10.0,-14.0,1
170.0,100.0,-164.0,54.0,11.0,-14.0,1
171.0,100.0,-165.0,54.0,11.0,-15.0,1
173.0,104.0,-165.0,48.0,11.0,-14.0,1
172.0,99.0,-169.0,48.0,7.0,-17.0,1
172.0,98.0,-167.0,46.0,5.0,-14.0,1
170.0,101.0,-167.0,47.0,7.0,-14.0,1
170.0,96.0,-167.0,50.0,9.0,-14.0,1
172.0,101.0,-167.0,51.0,11.0,-14.0,1
170.0,100.0,-168.0,53.0,12.0,-13.0,1
169.0,99.0,-169.0,54.0,10.0,-13.0,1
171.0,99.0,-168.0,56.0,11.0,-13.0,1
169.0,103.0,-166.0,56.0,11.0,-12.0,1
168.0,99.0,-163.0,57.0,10.0,-12.0,1
171.0,98.0,-169.0,58.0,11.0,-13.0,1
171.0,99.0,-167.0,57.0,12.0,-12.0,1
168.0,100.0,-169.0,57.0,12.0,-12.0,1
170.0,98.0,-169.0,58.0,13.0,-12.0,1
171.0,99.0,-159.0,58.0,13.0,-14.0,1
169.0,101.0,-170.0,58.0,14.0,-13.0,1
172.0,97.0,-164.0,58.0,13.0,-13.0,1
171.0,100.0,-164.0,57.0,14.0,-13.0,1
170.0,100.0,-165.0,57.0,13.0,-13.0,1
170.0,101.0,-168.0,58.0,12.0,-11.0,1
172.0,99.0,-162.0,58.0,9.0,-11.0,1
166.0,101.0,-168.0,55.0,7.0,-10.0,1
170.0,99.0,-165.0,58.0,8.0,-9.0,1
170.0,98.0,-163.0,57.0,8.0,-11.0,1
171.0,101.0,-165.0,57.0,7.0,-14.0,1
175.0,97.0,-167.0,52.0,-1.0,-11.0,1
168.0,102.0,-167.0,43.0,-5.0,-13.0,1
171.0,100.0,-164.0,55.0,2.0,-15.0,1
172.0,103.0,-165.0,57.0,6.0,-16.0,1
170.0,100.0,-163.0,56.0,6.0,-14.0,1
170.0,102.0,-166.0,58.0,7.0,-17.0,1
169.0,103.0,-167.0,57.0,5.0,-17.0,1
170.0,98.0,-166.0,54.0,4.0,-16.0,1
170.0,101.0,-164.0,54.0,5.0,-15.0,1
170.0,101.0,-168.0,53.0,4.0,-15.0,1
172.0,98.0,-167.0,51.0,4.0,-12.0,1
168.0,97.0,-163.0,52.0,5.0,-12.0,1
170.0,102.0,-167.0,52.0,6.0,-14.0,1
170.0,101.0,-164.0,51.0,7.0,-13.0,1
171.0,99.0,-166.0,51.0,7.0,-14.0,1
170.0,101.0,-163.0,50.0,7.0,-13.0,1
169.0,99.0,-167.0,51.0,7.0,-14.0,1
173.0,101.0,-164.0,48.0,8.0,-13.0,1
171.0,100.0,-169.0,50.0,8.0,-13.0,1
172.0,99.0,-167.0,50.0,6.0,-13.0,1
173.0,100.0,-162.0,50.0,6.0,-12.0,1
175.0,101.0,-168.0,50.0,6.0,-12.0,1
176.0,95.0,-164.0,50.0,5.0,-11.0,1
170.0,102.0,-168.0,51.0,6.0,-12.0,1
170.0,101.0,-163.0,51.0,6.0,-11.0,1
172.0,100.0,-168.0,50.0,7.0,-12.0,1
170.0,102.0,-167.0,49.0,9.0,-11.0,1
171.0,101.0,-166.0,49.0,10.0,-11.0,1
170.0,100.0,-167.0,49.0,11.0,-12.0,1
174.0,98.0,-165.0,49.0,12.0,-12.0,1
172.0,98.0,-165.0,49.0,12.0,-13.0,1
169.0,102.0,-169.0,49.0,12.0,-11.0,1
171.0,101.0,-168.0,49.0,12.0,-10.0,1
168.0,100.0,-174.0,49.0,11.0,-11.0,1
173.0,99.0,-164.0,50.0,10.0,-11.0,1
172.0,101.0,-168.0,50.0,11.0,-9.0,1
169.0,101.0,-165.0,48.0,10.0,-9.0,1
169.0,100.0,-168.0,49.0,8.0,-10.0,1
170.0,102.0,-168.0,50.0,9.0,-9.0,1
169.0,102.0,-167.0,49.0,8.0,-12.0,1
172.0,99.0,-166.0,50.0,9.0,-11.0,1
170.0,100.0,-164.0,49.0,8.0,-10.0,1
167.0,104.0,-168.0,49.0,8.0,-9.0,1
168.0,99.0,-167.0,51.0,8.0,-10.0,1
170.0,94.0,-168.0,51.0,8.0,-9.0,1
171.0,99.0,-167.0,52.0,8.0,-9.0,1
170.0,102.0,-163.0,52.0,8.0,-11.0,1
173.0,99.0,-165.0,52.0,9.0,-10.0,1
169.0,103.0,-168.0,52.0,7.0,-11.0,1
172.0,98.0,-169.0,50.0,8.0,-11.0,1
169.0,100.0,-163.0,50.0,9.0,-10.0,1
170.0,99.0,-169.0,50.0,9.0,-10.0,1
172.0,99.0,-166.0,49.0,9.0,-12.0,1
169.0,102.0,-168.0,51.0,8.0,-12.0,1
168.0,101.0,-170.0,52.0,10.0,-11.0,1
165.0,101.0,-168.0,51.0,9.0,-10.0,1
170.0,100.0,-168.0,51.0,9.0,-10.0,1
171.0,99.0,-166.0,51.0,9.0,-10.0,1
170.0,101.0,-164.0,53.0,10.0,-10.0,1
172.0,101.0,-171.0,52.0,12.0,-9.0,1
169.0,101.0,-165.0,51.0,12.0,-10.0,1
171.0,101.0,-168.0,51.0,12.0,-10.0,1
173.0,99.0,-164.0,51.0,11.0,-9.0,1
174.0,99.0,-168.0,51.0,11.0,-11.0,1
170.0,101.0,-168.0,51.0,11.0,-12.0,1
165.0,100.0,-160.0,50.0,10.0,-10.0,1
169.0,101.0,-170.0,51.0,9.0,-11.0,1
172.0,100.0,-167.0,50.0,9.0,-9.0,1
172.0,102.0,-166.0,50.0,9.0,-10.0,1
170.0,96.0,-164.0,49.0,8.0,-11.0,1
169.0,99.0,-169.0,49.0,8.0,-11.0,1
170.0,101.0,-166.0,48.0,8.0,-12.0,1
167.0,99.0,-165.0,48.0,9.0,-13.0,1
170.0,100.0,-167.0,48.0,8.0,-12.0,1
172.0,99.0,-168.0,49.0,8.0,-12.0,1
169.0,98.0,-167.0,49.0,8.0,-13.0,1
173.0,99.0,-166.0,47.0,8.0,-12.0,1
170.0,99.0,-164.0,47.0,8.0,-12.0,1
171.0,101.0,-165.0,47.0,8.0,-12.0,1
171.0,102.0,-166.0,47.0,8.0,-13.0,1
170.0,102.0,-167.0,48.0,7.0,-12.0,1
172.0,99.0,-167.0,48.0,7.0,-12.0,1
172.0,100.0,-167.0,49.0,7.0,-11.0,1
172.0,99.0,-167.0,49.0,7.0,-12.0,1
169.0,99.0,-164.0,50.0,4.0,-11.0,1
168.0,101.0,-168.0,50.0,6.0,-10.0,1
170.0,96.0,-167.0,51.0,4.0,-12.0,1
166.0,104.0,-166.0,50.0,5.0,-11.0,1
170.0,101.0,-166.0,51.0,4.0,-13.0,1
173.0,99.0,-165.0,53.0,3.0,-12.0,1
171.0,102.0,-168.0,53.0,3.0,-15.0,1
172.0,98.0,-166.0,53.0,2.0,-12.0,1
170.0,101.0,-167.0,54.0,3.0,-13.0,1
172.0,96.0,-165.0,54.0,1.0,-13.0,1
172.0,99.0,-168.0,54.0,2.0,-13.0,1
169.0,105.0,-167.0,53.0,1.0,-12.0,1
170.0,103.0,-164.0,53.0,2.0,-12.0,1
172.0,100.0,-167.0,54.0,1.0,-13.0,1
171.0,98.0,-167.0,56.0,1.0,-12.0,1
171.0,100.0,-164.0,55.0,1.0,-12.0,1
170.0,98.0,-167.0,55.0,0.0,-10.0,1
169.0,98.0,-167.0,56.0,1.0,-10.0,1
168.0,100.0,-166.0,57.0,1.0,-12.0,1
170.0,98.0,-164.0,55.0,3.0,-12.0,1
169.0,98.0,-166.0,54.0,3.0,-11.0,1
173.0,96.0,-166.0,54.0,4.0,-12.0,1
171.0,97.0,-166.0,56.0,5.0,-10.0,1
169.0,100.0,-164.0,55.0,4.0,-10.0,1
170.0,102.0,-165.0,54.0,2.0,-11.0,1
167.0,100.0,-163.0,55.0,2.0,-11.0,1
170.0,100.0,-166.0,55.0,1.0,-9.0,1
173.0,103.0,-167.0,56.0,2.0,-9.0,1
170.0,100.0,-166.0,56.0,2.0,-9.0,1
171.0,100.0,-163.0,58.0,0.0,-9.0,1
171.0,102.0,-170.0,57.0,1.0,-10.0,1
167.0,104.0,-166.0,58.0,2.0,-9.0,1
174.0,102.0,-166.0,58.0,3.0,-8.0,1
172.0,103.0,-167.0,58.0,6.0,-8.0,1
171.0,97.0,-167.0,58.0,7.0,-9.0,1
168.0,101.0,-165.0,57.0,9.0,-6.0,1
172.0,99.0,-167.0,57.0,8.0,-8.0,1
169.0,100.0,-165.0,57.0,9.0,-8.0,1
170.0,99.0,-169.0,56.0,9.0,-9.0,1
173.0,101.0,-171.0,56.0,9.0,-9.0,1
169.0,98.0,-167.0,55.0,8.0,-9.0,1
170.0,99.0,-165.0,55.0,8.0,-8.0,1
172.0,100.0,-165.0,54.0,11.0,-9.0,1
169.0,99.0,-169.0,53.0,11.0,-8.0,1
170.0,101.0,-170.0,52.0,10.0,-8.0,1
171.0,98.0,-165.0,53.0,11.0,-10.0,1
169.0,99.0,-168.0,52.0,11.0,-9.0,1
169.0,98.0,-168.0,52.0,11.0,-10.0,1
166.0,96.0,-170.0,54.0,10.0,-8.0,1
171.0,97.0,-168.0,53.0,10.0,-9.0,1
170.0,100.0,-169.0,52.0,11.0,-11.0,1
170.0,104.0,-170.0,52.0,10.0,-9.0,1
171.0,101.0,-165.0,52.0,11.0,-10.0,1
169.0,103.0,-165.0,52.0,10.0,-10.0,1
170.0,101.0,-170.0,51.0,9.0,-9.0,1
172.0,102.0,-162.0,53.0,8.0,-8.0,1
168.0,97.0,-166.0,54.0,10.0,-8.0,1
171.0,99.0,-170.0,54.0,11.0,-7.0,1
170.0,90.0,-165.0,55.0,10.0,-7.0,1
169.0,101.0,-168.0,53.0,10.0,-8.0,1
170.0,98.0,-165.0,54.0,11.0,-9.0,1
168.0,99.0,-167.0,52.0,11.0,-8.0,1
168.0,98.0,-165.0,51.0,12.0,-8.0,1
169.0,101.0,-166.0,51.0,11.0,-8.0,1
172.0,99.0,-168.0,51.0,13.0,-9.0,1
169.0,99.0,-164.0,51.0,13.0,-9.0,1
170.0,100.0,-168.0,51.0,12.0,-9.0,1
168.0,102.0,-169.0,50.0,12.0,-9.0,1
173.0,100.0,-162.0,50.0,10.0,-8.0,1
164.0,100.0,-172.0,51.0,8.0,-9.0,1
170.0,99.0,-167.0,50.0,8.0,-11.0,1
171.0,99.0,-165.0,50.0,7.0,-11.0,1
170.0,97.0,-163.0,50.0,5.0,-11.0,1
169.0,100.0,-170.0,49.0,4.0,-13.0,1
170.0,98.0,-169.0,48.0,4.0,-14.0,1
166.0,98.0,-165.0,48.0,3.0,-14.0,1
166.0,99.0,-169.0,48.0,5.0,-14.0,1
171.0,97.0,-168.0,49.0,5.0,-13.0,1
172.0,100.0,-169.0,47.0,5.0,-14.0,1
169.0,98.0,-164.0,47.0,6.0,-15.0,1
169.0,102.0,-171.0,47.0,5.0,-14.0,1
169.0,100.0,-170.0,49.0,5.0,-14.0,1
167.0,104.0,-167.0,49.0,5.0,-12.0,1
168.0,100.0,-168.0,50.0,5.0,-12.0,1
170.0,101.0,-165.0,50.0,5.0,-13.0,1
171.0,101.0,-168.0,51.0,4.0,-13.0,1
170.0,100.0,-165.0,51.0,4.0,-13.0,1
168.0,102.0,-162.0,52.0,5.0,-12.0,1
167.0,101.0,-163.0,53.0,5.0,-13.0,1
168.0,101.0,-169.0,53.0,5.0,-13.0,1
173.0,96.0,-160.0,52.0,6.0,-11.0,1
168.0,102.0,-168.0,52.0,7.0,-11.0,1
170.0,98.0,-165.0,51.0,7.0,-13.0,1
170.0,101.0,-166.0,51.0,8.0,-11.0,1
170.0,100.0,-170.0,50.0,9.0,-11.0,1
170.0,100.0,-167.0,51.0,8.0,-12.0,1
169.0,99.0,-168.0,51.0,9.0,-11.0,1
167.0,101.0,-166.0,53.0,9.0,-12.0,1
172.0,99.0,-166.0,53.0,10.0,-10.0,1
169.0,100.0,-168.0,53.0,9.0,-10.0,1
167.0,98.0,-166.0,54.0,9.0,-9.0,1
170.0,100.0,-170.0,54.0,8.0,-10.0,1
167.0,102.0,-166.0,55.0,10.0,-9.0,1
173.0,98.0,-166.0,54.0,9.0,-8.0,1
172.0,99.0,-171.0,54.0,11.0,-7.0,1
169.0,103.0,-168.0,54.0,12.0,-7.0,1
172.0,96.0,-168.0,54.0,13.0,-5.0,1
171.0,99.0,-167.0,55.0,15.0,-5.0,1
166.0,100.0,-162.0,53.0,15.0,-6.0,1
171.0,102.0,-167.0,53.0,17.0,-5.0,1
169.0,98.0,-163.0,53.0,19.0,-6.0,1
168.0,97.0,-162.0,52.0,19.0,-6.0,1
170.0,99.0,-165.0,52.0,20.0,-5.0,1
172.0,97.0,-170.0,50.0,19.0,-6.0,1
171.0,97.0,-169.0,50.0,19.0,-6.0,1
171.0,99.0,-165.0,50.0,19.0,-7.0,1
174.0,97.0,-168.0,50.0,19.0,-8.0,1
169.0,100.0,-165.0,49.0,18.0,-7.0,1
168.0,98.0,-167.0,49.0,19.0,-8.0,1
172.0,102.0,-162.0,49.0,17.0,-8.0,1
166.0,99.0,-172.0,50.0,17.0,-8.0,1
169.0,99.0,-168.0,51.0,16.0,-9.0,1
171.0,103.0,-166.0,49.0,17.0,-8.0,1
169.0,111.0,-171.0,49.0,16.0,-7.0,1
171.0,101.0,-170.0,48.0,18.0,-7.0,1
168.0,102.0,-169.0,48.0,19.0,-10.0,1
170.0,101.0,-169.0,48.0,19.0,-9.0,1
172.0,100.0,-167.0,47.0,19.0,-8.0,1
170.0,102.0,-169.0,47.0,20.0,-9.0,1
170.0,100.0,-165.0,47.0,19.0,-9.0,1
169.0,99.0,-165.0,46.0,19.0,-10.0,1
170.0,101.0,-167.0,46.0,19.0,-11.0,1
168.0,101.0,-172.0,46.0,19.0,-11.0,1
169.0,98.0,-168.0,45.0,19.0,-12.0,1
168.0,102.0,-173.0,44.0,18.0,-11.0,1
170.0,99.0,-166.0,45.0,18.0,-12.0,1
166.0,100.0,-168.0,47.0,19.0,-11.0,1
169.0,101.0,-164.0,47.0,19.0,-12.0,1
170.0,102.0,-164.0,47.0,18.0,-9.0,1
173.0,96.0,-164.0,48.0,17.0,-10.0,1
169.0,98.0,-165.0,49.0,17.0,-10.0,1
169.0,101.0,-165.0,50.0,17.0,-9.0,1
173.0,98.0,-167.0,49.0,18.0,-9.0,1
171.0,99.0,-166.0,50.0,17.0,-9.0,1
169.0,102.0,-170.0,50.0,16.0,-9.0,1
165.0,98.0,-174.0,50.0,14.0,-7.0,1
173.0,100.0,-165.0,49.0,15.0,-10.0,1
171.0,102.0,-172.0,49.0,15.0,-9.0,1
170.0,100.0,-168.0,51.0,14.0,-9.0,1
168.0,101.0,-166.0,51.0,14.0,-10.0,1
170.0,102.0,-168.0,51.0,15.0,-10.0,1
172.0,101.0,-168.0,52.0,12.0,-10.0,1
173.0,101.0,-165.0,52.0,13.0,-8.0,1
167.0,100.0,-166.0,53.0,13.0,-8.0,1
168.0,101.0,-165.0,51.0,13.0,-10.0,1
167.0,100.0,-164.0,52.0,13.0,-10.0,1
169.0,97.0,-167.0,52.0,13.0,-10.0,1
167.0,102.0,-165.0,52.0,12.0,-9.0,1
169.0,99.0,-165.0,52.0,12.0,-10.0,1
168.0,102.0,-168.0,52.0,13.0,-7.0,1
169.0,101.0,-166.0,53.0,13.0,-8.0,1
170.0,100.0,-168.0,53.0,13.0,-6.0,1
170.0,101.0,-163.0,53.0,12.0,-7.0,1
170.0,101.0,-168.0,54.0,12.0,-8.0,1
172.0,99.0,-167.0,53.0,11.0,-8.0,1
170.0,98.0,-166.0,55.0,10.0,-9.0,1
173.0,99.0,-168.0,53.0,10.0,-9.0,1
171.0,96.0,-169.0,54.0,10.0,-9.0,1
167.0,102.0,-167.0,54.0,10.0,-7.0,1
169.0,100.0,-171.0,53.0,11.0,-8.0,1
171.0,98.0,-169.0,53.0,11.0,-8.0,1
168.0,100.0,-168.0,52.0,10.0,-7.0,1
169.0,102.0,-168.0,52.0,11.0,-7.0,1
167.0,98.0,-167.0,51.0,11.0,-8.0,1
168.0,102.0,-171.0,52.0,13.0,-9.0,1
172.0,99.0,-168.0,52.0,13.0,-7.0,1
167.0,99.0,-165.0,54.0,13.0,-5.0,1
170.0,103.0,-162.0,55.0,14.0,-5.0,1
170.0,104.0,-172.0,54.0,14.0,-5.0,1
171.0,101.0,-167.0,55.0,15.0,-5.0,1
171.0,99.0,-171.0,55.0,15.0,-4.0,1
171.0,100.0,-166.0,55.0,16.0,-4.0,1
169.0,98.0,-167.0,53.0,16.0,-6.0,1
170.0,102.0,-166.0,50.0,16.0,-7.0,1
172.0,99.0,-170.0,52.0,15.0,-5.0,1
167.0,99.0,-166.0,51.0,18.0,-6.0,1
169.0,97.0,-169.0,51.0,19.0,-7.0,1
172.0,96.0,-167.0,51.0,20.0,-8.0,1
169.0,97.0,-168.0,50.0,21.0,-6.0,1
172.0,98.0,-168.0,50.0,22.0,-7.0,1
171.0,99.0,-168.0,49.0,21.0,-6.0,1
169.0,102.0,-167.0,50.0,22.0,-7.0,1
171.0,98.0,-167.0,50.0,22.0,-7.0,1
171.0,98.0,-167.0,50.0,21.0,-8.0,1
169.0,100.0,-164.0,50.0,20.0,-5.0,1
170.0,100.0,-167.0,50.0,21.0,-6.0,1
172.0,99.0,-170.0,52.0,20.0,-5.0,1
170.0,98.0,-165.0,52.0,21.0,-6.0,1
171.0,102.0,-168.0,51.0,21.0,-8.0,1
178.0,99.0,-171.0,50.0,20.0,-7.0,1
170.0,99.0,-167.0,49.0,22.0,-7.0,1
171.0,100.0,-164.0,49.0,22.0,-8.0,1
168.0,99.0,-169.0,47.0,22.0,-8.0,1
172.0,100.0,-168.0,48.0,22.0,-9.0,1
172.0,102.0,-160.0,48.0,23.0,-8.0,1
171.0,100.0,-169.0,48.0,21.0,-8.0,1
170.0,99.0,-164.0,46.0,21.0,-9.0,1
171.0,101.0,-162.0,48.0,20.0,-9.0,1
168.0,101.0,-168.0,47.0,19.0,-9.0,1
171.0,100.0,-164.0,49.0,18.0,-10.0,1
173.0,93.0,-173.0,50.0,16.0,-9.0,1
172.0,102.0,-167.0,51.0,15.0,-9.0,1
169.0,101.0,-167.0,50.0,15.0,-10.0,1
168.0,99.0,-167.0,50.0,15.0,-10.0,1
170.0,102.0,-167.0,51.0,15.0,-9.0,1
173.0,101.0,-165.0,50.0,16.0,-8.0,1
171.0,102.0,-164.0,50.0,16.0,-8.0,1
168.0,99.0,-168.0,51.0,17.0,-8.0,1
174.0,98.0,-164.0,51.0,16.0,-8.0,1
167.0,101.0,-167.0,50.0,16.0,-9.0,1
167.0,102.0,-164.0,50.0,17.0,-8.0,1
170.0,94.0,-163.0,49.0,17.0,-7.0,1
170.0,97.0,-165.0,50.0,16.0,-8.0,1
168.0,103.0,-168.0,50.0,17.0,-9.0,1
174.0,97.0,-166.0,51.0,16.0,-9.0,1
172.0,99.0,-165.0,51.0,15.0,-10.0,1
168.0,100.0,-161.0,51.0,15.0,-9.0,1
173.0,98.0,-166.0,51.0,13.0,-9.0,1
172.0,99.0,-163.0,51.0,13.0,-9.0,1
167.0,99.0,-170.0,51.0,12.0,-10.0,1
173.0,99.0,-165.0,51.0,11.0,-9.0,1
169.0,99.0,-167.0,52.0,11.0,-10.0,1
165.0,95.0,-176.0,53.0,10.0,-9.0,1
170.0,100.0,-167.0,53.0,10.0,-9.0,1
169.0,100.0,-164.0,53.0,9.0,-9.0,1
172.0,102.0,-168.0,53.0,12.0,-9.0,1
171.0,100.0,-165.0,52.0,12.0,-8.0,1
172.0,98.0,-166.0,51.0,13.0,-9.0,1
172.0,100.0,-166.0,51.0,13.0,-9.0,1
171.0,102.0,-168.0,49.0,12.0,-9.0,1
173.0,100.0,-161.0,51.0,13.0,-10.0,1
171.0,97.0,-166.0,49.0,13.0,-10.0,1
168.0,103.0,-163.0,50.0,13.0,-11.0,1
174.0,103.0,-161.0,50.0,11.0,-11.0,1
173.0,100.0,-166.0,50.0,12.0,-12.0,1
170.0,100.0,-169.0,49.0,11.0,-10.0,1
169.0,100.0,-163.0,49.0,9.0,-11.0,1
173.0,100.0,-166.0,51.0,9.0,-12.0,1
171.0,99.0,-166.0,52.0,8.0,-11.0,1
169.0,101.0,-164.0,51.0,9.0,-10.0,1
168.0,100.0,-166.0,50.0,9.0,-10.0,1
170.0,102.0,-166.0,49.0,11.0,-12.0,1
168.0,100.0,-163.0,48.0,11.0,-11.0,1
171.0,104.0,-170.0,48.0,11.0,-9.0,1
169.0,101.0,-165.0,50.0,11.0,-10.0,1
168.0,102.0,-170.0,50.0,11.0,-11.0,1
168.0,100.0,-168.0,51.0,10.0,-9.0,1
170.0,101.0,-164.0,52.0,11.0,-8.0,1
173.0,95.0,-166.0,53.0,12.0,-8.0,1
169.0,103.0,-168.0,53.0,12.0,-8.0,1
168.0,97.0,-166.0,53.0,13.0,-7.0,1
170.0,99.0,-166.0,53.0,11.0,-8.0,1
173.0,101.0,-164.0,53.0,12.0,-8.0,1
171.0,97.0,-170.0,54.0,13.0,-10.0,1
170.0,103.0,-169.0,53.0,13.0,-10.0,1
171.0,96.0,-166.0,53.0,14.0,-8.0,1
169.0,99.0,-165.0,53.0,15.0,-8.0,1
168.0,100.0,-170.0,51.0,17.0,-7.0,1
169.0,100.0,-168.0,52.0,18.0,-7.0,1
172.0,98.0,-169.0,52.0,19.0,-9.0,1
172.0,101.0,-168.0,52.0,19.0,-8.0,1
170.0,99.0,-164.0,51.0,18.0,-7.0,1
171.0,100.0,-168.0,51.0,17.0,-6.0,1
167.0,102.0,-163.0,52.0,17.0,-9.0,1
173.0,95.0,-163.0,51.0,15.0,-7.0,1
174.0,100.0,-163.0,51.0,15.0,-8.0,1
171.0,98.0,-166.0,50.0,14.0,-10.0,1
171.0,98.0,-166.0,48.0,9.0,-10.0,1
170.0,99.0,-166.0,49.0,11.0,-9.0,1
170.0,98.0,-164.0,51.0,13.0,-9.0,1
170.0,99.0,-169.0,50.0,14.0,-8.0,1
171.0,102.0,-167.0,51.0,16.0,-7.0,1
172.0,99.0,-168.0,52.0,15.0,-8.0,1
171.0,100.0,-165.0,51.0,16.0,-8.0,1
174.0,102.0,-164.0,52.0,15.0,-8.0,1
174.0,98.0,-168.0,52.0,14.0,-8.0,1
170.0,99.0,-169.0,52.0,15.0,-8.0,1
168.0,99.0,-166.0,53.0,15.0,-7.0,1
171.0,99.0,-168.0,53.0,15.0,-7.0,1
169.0,101.0,-168.0,53.0,17.0,-8.0,1
172.0,99.0,-164.0,53.0,17.0,-9.0,1
173.0,100.0,-165.0,53.0,16.0,-9.0,1
171.0,104.0,-167.0,53.0,14.0,-9.0,1
173.0,98.0,-166.0,54.0,15.0,-10.0,1
172.0,101.0,-168.0,53.0,15.0,-10.0,1
168.0,101.0,-165.0,52.0,15.0,-11.0,1
171.0,99.0,-166.0,52.0,15.0,-10.0,1
169.0,101.0,-168.0,52.0,14.0,-10.0,1
169.0,100.0,-164.0,50.0,13.0,-10.0,1
169.0,101.0,-168.0,50.0,14.0,-10.0,1
171.0,100.0,-166.0,51.0,13.0,-9.0,1
172.0,100.0,-166.0,51.0,14.0,-10.0,1
172.0,101.0,-168.0,52.0,12.0,-12.0,1
172.0,98.0,-164.0,51.0,11.0,-11.0,1
173.0,96.0,-165.0,51.0,11.0,-11.0,1
175.0,101.0,-167.0,51.0,11.0,-10.0,1
172.0,98.0,-167.0,52.0,11.0,-10.0,1
169.0,98.0,-166.0,52.0,10.0,-11.0,1
168.0,101.0,-160.0,52.0,11.0,-10.0,1
171.0,100.0,-164.0,53.0,12.0,-10.0,1
169.0,100.0,-166.0,53.0,12.0,-7.0,1
173.0,99.0,-167.0,53.0,13.0,-8.0,1
170.0,102.0,-163.0,53.0,14.0,-8.0,1
171.0,99.0,-161.0,53.0,13.0,-8.0,1
171.0,101.0,-169.0,52.0,13.0,-9.0,1
172.0,97.0,-168.0,53.0,12.0,-10.0,1
174.0,97.0,-166.0,52.0,12.0,-10.0,1
172.0,100.0,-166.0,49.0,12.0,-10.0,1
171.0,98.0,-167.0,49.0,12.0,-12.0,1
173.0,95.0,-169.0,48.0,11.0,-13.0,1
172.0,100.0,-166.0,48.0,11.0,-13.0,1
171.0,97.0,-167.0,47.0,11.0,-15.0,1
170.0,99.0,-169.0,48.0,10.0,-14.0,1
171.0,99.0,-166.0,48.0,10.0,-14.0,1
171.0,100.0,-170.0,49.0,10.0,-14.0,1
171.0,100.0,-166.0,49.0,10.0,-14.0,1
168.0,100.0,-170.0,49.0,10.0,-14.0,1
172.0,96.0,-170.0,49.0,10.0,-13.0,1
169.0,98.0,-167.0,51.0,10.0,-13.0,1
168.0,96.0,-165.0,51.0,11.0,-12.0,1
173.0,94.0,-174.0,50.0,12.0,-11.0,1
169.0,99.0,-169.0,49.0,14.0,-12.0,1
167.0,99.0,-170.0,48.0,17.0,-11.0,1
171.0,101.0,-167.0,47.0,17.0,-12.0,1
173.0,97.0,-165.0,47.0,16.0,-12.0,1
168.0,101.0,-166.0,48.0,16.0,-12.0,1
170.0,102.0,-167.0,47.0,17.0,-11.0,1
173.0,93.0,-166.0,47.0,15.0,-11.0,1
172.0,98.0,-171.0,48.0,15.0,-11.0,1
166.0,100.0,-164.0,50.0,15.0,-9.0,1
170.0,101.0,-164.0,50.0,14.0,-10.0,1
168.0,102.0,-163.0,51.0,15.0,-10.0,1
169.0,98.0,-167.0,51.0,15.0,-7.0,1
170.0,101.0,-169.0,52.0,15.0,-8.0,1
169.0,101.0,-167.0,52.0,14.0,-8.0,1
172.0,102.0,-167.0,52.0,14.0,-8.0,1
172.0,100.0,-168.0,52.0,13.0,-10.0,1
171.0,103.0,-166.0,52.0,13.0,-9.0,1
171.0,100.0,-167.0,52.0,12.0,-9.0,1
173.0,101.0,-168.0,52.0,12.0,-9.0,1
172.0,102.0,-167.0,52.0,12.0,-9.0,1
174.0,97.0,-168.0,52.0,13.0,-9.0,1
175.0,97.0,-160.0,52.0,12.0,-9.0,1
172.0,99.0,-168.0,53.0,13.0,-9.0,1
168.0,102.0,-169.0,53.0,12.0,-10.0,1
172.0,98.0,-164.0,53.0,12.0,-8.0,1
169.0,101.0,-168.0,53.0,13.0,-9.0,1
171.0,100.0,-168.0,52.0,13.0,-9.0,1
169.0,101.0,-167.0,53.0,14.0,-10.0,1
171.0,101.0,-164.0,53.0,13.0,-9.0,1
174.0,100.0,-164.0,53.0,13.0,-9.0,1
169.0,103.0,-168.0,54.0,14.0,-8.0,1
171.0,100.0,-168.0,54.0,16.0,-8.0,1
172.0,93.0,-161.0,53.0,15.0,-9.0,1
172.0,98.0,-164.0,53.0,15.0,-9.0,1
173.0,95.0,-166.0,54.0,15.0,-9.0,1
170.0,99.0,-168.0,53.0,14.0,-7.0,1
172.0,99.0,-163.0,53.0,13.0,-8.0,1
172.0,102.0,-163.0,53.0,13.0,-8.0,1
170.0,98.0,-166.0,53.0,13.0,-9.0,1
170.0,100.0,-165.0,53.0,13.0,-9.0,1
172.0,97.0,-166.0,55.0,12.0,-8.0,1
173.0,97.0,-168.0,54.0,12.0,-8.0,1
170.0,96.0,-169.0,54.0,12.0,-8.0,1
171.0,98.0,-168.0,53.0,13.0,-9.0,1
171.0,100.0,-171.0,54.0,14.0,-9.0,1
169.0,100.0,-167.0,53.0,14.0,-9.0,1
171.0,97.0,-166.0,53.0,14.0,-10.0,1
170.0,101.0,-164.0,52.0,14.0,-10.0,1
170.0,101.0,-170.0,52.0,14.0,-8.0,1
170.0,100.0,-165.0,53.0,14.0,-8.0,1
170.0,97.0,-161.0,52.0,14.0,-7.0,1
167.0,101.0,-167.0,54.0,15.0,-8.0,1
174.0,99.0,-167.0,52.0,16.0,-8.0,1
172.0,96.0,-168.0,52.0,15.0,-9.0,1
174.0,99.0,-168.0,52.0,15.0,-9.0,1
171.0,98.0,-167.0,54.0,14.0,-8.0,1
170.0,101.0,-166.0,53.0,15.0,-9.0,1
171.0,102.0,-170.0,54.0,15.0,-9.0,1
173.0,99.0,-164.0,52.0,15.0,-8.0,1
171.0,98.0,-165.0,51.0,16.0,-9.0,1
174.0,98.0,-161.0,51.0,17.0,-10.0,1
171.0,99.0,-166.0,51.0,17.0,-10.0,1
172.0,95.0,-170.0,51.0,18.0,-9.0,1
171.0,95.0,-167.0,52.0,18.0,-8.0,1
169.0,95.0,-161.0,52.0,17.0,-8.0,1
171.0,105.0,-169.0,52.0,17.0,-11.0,1
171.0,101.0,-166.0,52.0,16.0,-11.0,1
171.0,100.0,-166.0,52.0,15.0,-10.0,1
170.0,99.0,-168.0,53.0,16.0,-9.0,1
170.0,101.0,-164.0,54.0,16.0,-9.0,1
171.0,99.0,-167.0,52.0,15.0,-9.0,1
173.0,100.0,-166.0,53.0,15.0,-9.0,1
172.0,100.0,-161.0,53.0,15.0,-9.0,1
173.0,97.0,-164.0,53.0,15.0,-10.0,1
172.0,98.0,-166.0,53.0,14.0,-9.0,1
174.0,103.0,-165.0,53.0,15.0,-9.0,1
171.0,101.0,-167.0,51.0,14.0,-9.0,1
171.0,98.0,-167.0,52.0,15.0,-8.0,1
173.0,103.0,-164.0,52.0,14.0,-11.0,1
171.0,99.0,-164.0,52.0,15.0,-9.0,1
169.0,100.0,-171.0,54.0,14.0,-9.0,1
172.0,101.0,-164.0,53.0,14.0,-10.0,1
169.0,100.0,-166.0,54.0,13.0,-8.0,1
167.0,100.0,-164.0,54.0,12.0,-8.0,1
175.0,96.0,-164.0,54.0,11.0,-9.0,1
170.0,102.0,-166.0,54.0,9.0,-8.0,1
169.0,101.0,-162.0,53.0,9.0,-9.0,1
171.0,99.0,-171.0,53.0,9.0,-10.0,1
172.0,100.0,-166.0,53.0,9.0,-9.0,1
171.0,101.0,-166.0,52.0,9.0,-9.0,1
171.0,100.0,-166.0,53.0,10.0,-10.0,1
171.0,99.0,-170.0,51.0,10.0,-10.0,1
170.0,99.0,-163.0,52.0,11.0,-9.0,1
175.0,98.0,-166.0,52.0,12.0,-10.0,1
172.0,96.0,-163.0,53.0,14.0,-9.0,1
171.0,100.0,-164.0,52.0,12.0,-9.0,1
173.0,98.0,-163.0,52.0,12.0,-11.0,1
172.0,97.0,-154.0,52.0,13.0,-11.0,1
171.0,98.0,-165.0,51.0,13.0,-11.0,1
169.0,102.0,-166.0,51.0,12.0,-10.0,1
171.0,99.0,-163.0,50.0,12.0,-11.0,1
170.0,99.0,-166.0,51.0,12.0,-11.0,1
173.0,98.0,-168.0,52.0,11.0,-10.0,1
171.0,101.0,-172.0,51.0,11.0,-11.0,1
173.0,100.0,-171.0,51.0,11.0,-10.0,1
170.0,97.0,-164.0,52.0,12.0,-9.0,1
173.0,101.0,-169.0,52.0,12.0,-11.0,1
171.0,100.0,-166.0,51.0,14.0,-9.0,1
171.0,96.0,-161.0,50.0,14.0,-9.0,1
170.0,99.0,-165.0,49.0,13.0,-10.0,1
173.0,101.0,-166.0,48.0,12.0,-9.0,1
171.0,101.0,-169.0,51.0,12.0,-9.0,1
170.0,102.0,-167.0,52.0,14.0,-9.0,1
170.0,102.0,-166.0,52.0,14.0,-9.0,1
171.0,99.0,-166.0,53.0,15.0,-8.0,1
171.0,98.0,-167.0,53.0,17.0,-9.0,1
171.0,98.0,-166.0,53.0,17.0,-7.0,1
170.0,100.0,-168.0,54.0,17.0,-7.0,1
171.0,99.0,-162.0,54.0,18.0,-10.0,1
170.0,93.0,-169.0,53.0,18.0,-9.0,1
173.0,100.0,-165.0,55.0,18.0,-9.0,1
171.0,97.0,-165.0,54.0,18.0,-9.0,1
169.0,100.0,-167.0,53.0,19.0,-10.0,1
170.0,100.0,-165.0,54.0,19.0,-9.0,1
173.0,102.0,-166.0,54.0,20.0,-8.0,1
170.0,100.0,-163.0,55.0,20.0,-8.0,1
175.0,98.0,-166.0,53.0,21.0,-8.0,1
172.0,97.0,-164.0,52.0,21.0,-8.0,1
171.0,101.0,-165.0,52.0,21.0,-7.0,1
171.0,99.0,-163.0,53.0,23.0,-8.0,1
172.0,91.0,-165.0,53.0,22.0,-9.0,1
172.0,96.0,-163.0,53.0,21.0,-7.0,1
171.0,101.0,-164.0,53.0,21.0,-8.0,1
171.0,97.0,-164.0,53.0,23.0,-8.0,1
175.0,101.0,-164.0,51.0,20.0,-7.0,1
173.0,98.0,-167.0,50.0,17.0,-10.0,1
172.0,101.0,-167.0,48.0,15.0,-10.0,1
173.0,97.0,-161.0,52.0,17.0,-9.0,1
172.0,101.0,-166.0,50.0,16.0,-10.0,1
174.0,99.0,-167.0,52.0,15.0,-10.0,1
170.0,108.0,-166.0,52.0,14.0,-10.0,1
168.0,98.0,-170.0,52.0,13.0,-8.0,1
170.0,99.0,-167.0,52.0,13.0,-10.0,1
176.0,98.0,-165.0,51.0,15.0,-8.0,1
171.0,99.0,-166.0,51.0,14.0,-10.0,1
172.0,98.0,-168.0,51.0,15.0,-10.0,1
170.0,97.0,-167.0,51.0,14.0,-11.0,1
173.0,97.0,-165.0,51.0,13.0,-10.0,1
169.0,98.0,-166.0,49.0,14.0,-11.0,1
168.0,98.0,-165.0,49.0,13.0,-9.0,1
172.0,98.0,-166.0,49.0,13.0,-9.0,1
169.0,102.0,-173.0,49.0,14.0,-11.0,1
180.0,101.0,-175.0,49.0,13.0,-10.0,1
173.0,86.0,-154.0,50.0,12.0,-11.0,1
169.0,103.0,-173.0,51.0,11.0,-12.0,1
173.0,100.0,-169.0,51.0,9.0,-10.0,1
172.0,93.0,-165.0,52.0,10.0,-11.0,1
167.0,102.0,-165.0,51.0,11.0,-10.0,1
170.0,98.0,-164.0,51.0,11.0,-10.0,1
167.0,99.0,-168.0,52.0,11.0,-11.0,1
174.0,96.0,-163.0,51.0,12.0,-11.0,1
181.0,95.0,-170.0,51.0,12.0,-10.0,1
165.0,96.0,-173.0,51.0,12.0,-10.0,1
163.0,99.0,-168.0,52.0,13.0,-10.0,1
167.0,100.0,-163.0,51.0,14.0,-9.0,1
166.0,99.0,-164.0,52.0,14.0,-8.0,1
166.0,99.0,-165.0,52.0,12.0,-9.0,1
173.0,93.0,-166.0,52.0,12.0,-9.0,1
176.0,99.0,-168.0,53.0,12.0,-10.0,1
165.0,93.0,-167.0,50.0,13.0,-10.0,1
165.0,104.0,-166.0,50.0,14.0,-9.0,1
183.0,95.0,-163.0,50.0,15.0,-10.0,1
173.0,97.0,-159.0,50.0,14.0,-9.0,1
172.0,95.0,-163.0,49.0,14.0,-11.0,1
167.0,98.0,-177.0,47.0,14.0,-11.0,1
174.0,95.0,-170.0,46.0,14.0,-12.0,1
173.0,98.0,-166.0,46.0,13.0,-12.0,1
171.0,97.0,-166.0,46.0,14.0,-10.0,1
172.0,99.0,-170.0,47.0,12.0,-11.0,1
170.0,92.0,-170.0,47.0,12.0,-11.0,1
170.0,96.0,-171.0,48.0,12.0,-11.0,1
177.0,98.0,-164.0,48.0,11.0,-12.0,1
173.0,99.0,-169.0,47.0,12.0,-11.0,1
171.0,101.0,-166.0,46.0,13.0,-11.0,1
173.0,100.0,-166.0,46.0,13.0,-13.0,1
171.0,98.0,-169.0,47.0,14.0,-12.0,1
172.0,110.0,-168.0,46.0,15.0,-12.0,1
170.0,102.0,-165.0,44.0,16.0,-13.0,1
174.0,98.0,-167.0,43.0,18.0,-11.0,1
173.0,97.0,-166.0,43.0,17.0,-13.0,1
172.0,98.0,-170.0,43.0,17.0,-13.0,1
169.0,95.0,-162.0,43.0,17.0,-14.0,1
167.0,102.0,-168.0,42.0,17.0,-11.0,1
172.0,102.0,-167.0,43.0,17.0,-11.0,1
173.0,98.0,-167.0,45.0,17.0,-10.0,1
172.0,102.0,-164.0,45.0,18.0,-9.0,1
169.0,97.0,-159.0,46.0,18.0,-10.0,1
170.0,101.0,-166.0,47.0,16.0,-10.0,1
172.0,100.0,-160.0,47.0,16.0,-10.0,1
168.0,101.0,-169.0,46.0,15.0,-10.0,1
170.0,102.0,-165.0,48.0,15.0,-10.0,1
170.0,98.0,-166.0,50.0,14.0,-10.0,1
170.0,102.0,-168.0,48.0,12.0,-11.0,1
174.0,99.0,-164.0,48.0,11.0,-13.0,1
172.0,101.0,-159.0,48.0,11.0,-12.0,1
170.0,97.0,-167.0,49.0,9.0,-12.0,1
165.0,94.0,-167.0,49.0,8.0,-10.0,1
176.0,98.0,-163.0,49.0,8.0,-11.0,1
174.0,98.0,-163.0,49.0,8.0,-12.0,1
174.0,101.0,-169.0,49.0,7.0,-12.0,1
169.0,101.0,-167.0,50.0,7.0,-12.0,1
173.0,99.0,-165.0,49.0,7.0,-12.0,1
172.0,101.0,-164.0,48.0,7.0,-13.0,1
170.0,102.0,-165.0,50.0,7.0,-10.0,1
171.0,97.0,-166.0,50.0,8.0,-12.0,1
173.0,99.0,-166.0,49.0,7.0,-12.0,1
172.0,101.0,-168.0,48.0,7.0,-12.0,1
170.0,100.0,-169.0,48.0,7.0,-12.0,1
169.0,102.0,-169.0,49.0,7.0,-11.0,1
172.0,98.0,-165.0,49.0,7.0,-11.0,1
172.0,100.0,-168.0,49.0,6.0,-11.0,1
172.0,102.0,-166.0,49.0,5.0,-11.0,1
170.0,99.0,-162.0,50.0,5.0,-12.0,1
171.0,102.0,-166.0,49.0,6.0,-12.0,1
170.0,101.0,-166.0,50.0,5.0,-11.0,1
173.0,98.0,-169.0,50.0,4.0,-10.0,1
172.0,100.0,-167.0,50.0,5.0,-11.0,1
166.0,101.0,-166.0,50.0,5.0,-11.0,1
170.0,105.0,-169.0,49.0,6.0,-11.0,1
170.0,102.0,-173.0,50.0,7.0,-9.0,1
169.0,100.0,-167.0,49.0,8.0,-10.0,1
170.0,100.0,-167.0,50.0,10.0,-10.0,1
169.0,101.0,-166.0,49.0,11.0,-11.0,1
171.0,102.0,-167.0,49.0,12.0,-10.0,1
169.0,100.0,-169.0,50.0,12.0,-10.0,1
174.0,97.0,-165.0,49.0,13.0,-9.0,1
171.0,98.0,-166.0,49.0,12.0,-9.0,1
168.0,101.0,-163.0,51.0,11.0,-9.0,1
170.0,99.0,-166.0,50.0,11.0,-10.0,1
167.0,97.0,-173.0,50.0,11.0,-10.0,1
173.0,99.0,-167.0,49.0,10.0,-10.0,1
170.0,100.0,-165.0,48.0,10.0,-9.0,1
172.0,98.0,-168.0,50.0,12.0,-10.0,1
173.0,99.0,-170.0,48.0,12.0,-11.0,1
172.0,99.0,-164.0,48.0,11.0,-10.0,1
171.0,105.0,-166.0,47.0,10.0,-10.0,1
172.0,98.0,-166.0,48.0,10.0,-11.0,1
171.0,102.0,-166.0,50.0,10.0,-12.0,1
173.0,98.0,-164.0,49.0,9.0,-10.0,1
172.0,100.0,-166.0,48.0,10.0,-13.0,1
164.0,97.0,-169.0,49.0,11.0,-11.0,1
172.0,102.0,-165.0,48.0,10.0,-10.0,1
173.0,100.0,-163.0,48.0,11.0,-11.0,1
171.0,101.0,-166.0,48.0,11.0,-10.0,1
169.0,103.0,-163.0,48.0,11.0,-11.0,1
171.0,99.0,-167.0,49.0,9.0,-11.0,1
171.0,101.0,-167.0,50.0,8.0,-10.0,1
173.0,100.0,-167.0,50.0,8.0,-11.0,1
173.0,100.0,-168.0,51.0,9.0,-12.0,1
172.0,97.0,-165.0,51.0,7.0,-11.0,1
174.0,99.0,-165.0,50.0,6.0,-11.0,1
170.0,102.0,-169.0,51.0,7.0,-12.0,1
175.0,99.0,-165.0,52.0,7.0,-11.0,1
173.0,100.0,-162.0,50.0,7.0,-10.0,1
172.0,98.0,-166.0,51.0,8.0,-11.0,1
170.0,100.0,-165.0,50.0,8.0,-11.0,1
173.0,100.0,-166.0,50.0,7.0,-13.0,1
170.0,100.0,-166.0,51.0,8.0,-10.0,1
168.0,98.0,-167.0,51.0,8.0,-10.0,1
172.0,99.0,-163.0,51.0,5.0,-9.0,1
168.0,97.0,-166.0,51.0,6.0,-10.0,1
176.0,98.0,-169.0,53.0,6.0,-10.0,1
172.0,98.0,-163.0,52.0,6.0,-11.0,1
173.0,99.0,-165.0,51.0,4.0,-10.0,1
174.0,97.0,-164.0,52.0,3.0,-10.0,1
172.0,99.0,-165.0,52.0,3.0,-9.0,1
171.0,98.0,-162.0,52.0,3.0,-10.0,1
169.0,100.0,-165.0,52.0,2.0,-11.0,1
173.0,98.0,-167.0,51.0,2.0,-10.0,1
168.0,100.0,-165.0,52.0,3.0,-7.0,1
171.0,98.0,-169.0,52.0,2.0,-8.0,1
171.0,96.0,-163.0,52.0,4.0,-9.0,1
169.0,102.0,-166.0,52.0,4.0,-10.0,1
173.0,100.0,-169.0,52.0,3.0,-9.0,1
173.0,100.0,-167.0,52.0,6.0,-10.0,1
170.0,100.0,-165.0,52.0,6.0,-10.0,1
175.0,98.0,-166.0,51.0,6.0,-10.0,1
168.0,100.0,-168.0,51.0,6.0,-11.0,1
172.0,99.0,-166.0,50.0,7.0,-12.0,1
171.0,99.0,-165.0,48.0,8.0,-11.0,1
168.0,103.0,-168.0,48.0,5.0,-12.0,1
174.0,99.0,-166.0,48.0,6.0,-13.0,1
173.0,101.0,-163.0,48.0,3.0,-12.0,1
170.0,100.0,-161.0,48.0,4.0,-13.0,1
168.0,100.0,-166.0,48.0,4.0,-12.0,1
173.0,95.0,-165.0,49.0,3.0,-12.0,1
171.0,100.0,-166.0,49.0,4.0,-11.0,1
172.0,99.0,-168.0,49.0,4.0,-11.0,1
174.0,101.0,-166.0,48.0,4.0,-10.0,1
172.0,101.0,-167.0,50.0,5.0,-12.0,1
171.0,100.0,-171.0,48.0,6.0,-12.0,1
174.0,97.0,-165.0,47.0,7.0,-13.0,1
170.0,98.0,-164.0,47.0,7.0,-11.0,1
172.0,100.0,-166.0,49.0,8.0,-10.0,1
169.0,101.0,-161.0,48.0,7.0,-9.0,1
168.0,100.0,-166.0,50.0,8.0,-11.0,1
166.0,102.0,-162.0,50.0,7.0,-10.0,1
169.0,98.0,-167.0,50.0,7.0,-10.0,1
171.0,100.0,-169.0,49.0,7.0,-10.0,1
170.0,98.0,-167.0,48.0,7.0,-11.0,1
172.0,100.0,-164.0,48.0,7.0,-10.0,1
168.0,99.0,-165.0,48.0,6.0,-12.0,1
172.0,97.0,-161.0,47.0,6.0,-12.0,1
172.0,102.0,-166.0,46.0,7.0,-13.0,1
172.0,101.0,-166.0,46.0,6.0,-15.0,1
170.0,100.0,-166.0,46.0,6.0,-14.0,1
170.0,99.0,-165.0,46.0,5.0,-13.0,1
172.0,99.0,-167.0,45.0,6.0,-13.0,1
173.0,96.0,-166.0,47.0,6.0,-11.0,1
172.0,100.0,-167.0,47.0,6.0,-11.0,1
173.0,98.0,-167.0,47.0,6.0,-14.0,1
172.0,99.0,-168.0,46.0,3.0,-12.0,1
170.0,100.0,-171.0,46.0,2.0,-13.0,1
170.0,98.0,-169.0,46.0,2.0,-13.0,1
175.0,99.0,-167.0,46.0,0.0,-14.0,1
173.0,103.0,-165.0,46.0,0.0,-14.0,1
167.0,100.0,-170.0,47.0,0.0,-14.0,1
170.0,103.0,-168.0,47.0,0.0,-15.0,1
170.0,104.0,-167.0,47.0,-2.0,-15.0,1
172.0,101.0,-170.0,48.0,-2.0,-14.0,1
170.0,100.0,-170.0,48.0,-2.0,-14.0,1
171.0,101.0,-167.0,47.0,-2.0,-14.0,1
174.0,101.0,-165.0,47.0,0.0,-14.0,1
170.0,101.0,-169.0,47.0,1.0,-13.0,1
170.0,100.0,-166.0,47.0,1.0,-14.0,1
171.0,101.0,-171.0,49.0,2.0,-14.0,1
169.0,102.0,-165.0,49.0,3.0,-12.0,1
173.0,101.0,-170.0,50.0,2.0,-12.0,1
172.0,100.0,-167.0,49.0,3.0,-14.0,1
169.0,100.0,-162.0,50.0,3.0,-13.0,1
169.0,100.0,-164.0,50.0,4.0,-13.0,1
170.0,101.0,-171.0,50.0,4.0,-11.0,1
171.0,99.0,-169.0,50.0,4.0,-12.0,1
171.0,98.0,-164.0,50.0,4.0,-12.0,1
171.0,101.0,-168.0,49.0,4.0,-12.0,1
168.0,101.0,-166.0,49.0,4.0,-12.0,1
174.0,98.0,-166.0,50.0,3.0,-12.0,1
172.0,101.0,-163.0,52.0,3.0,-12.0,1
176.0,101.0,-165.0,52.0,2.0,-12.0,1
169.0,100.0,-166.0,51.0,0.0,-10.0,1
172.0,97.0,-167.0,51.0,0.0,-11.0,1
166.0,99.0,-167.0,51.0,1.0,-11.0,1
171.0,100.0,-171.0,51.0,0.0,-11.0,1
171.0,103.0,-165.0,51.0,1.0,-9.0,1
167.0,99.0,-163.0,50.0,3.0,-10.0,1
173.0,101.0,-165.0,51.0,4.0,-11.0,1
174.0,100.0,-165.0,50.0,7.0,-11.0,1
173.0,101.0,-168.0,49.0,7.0,-11.0,1
168.0,100.0,-161.0,48.0,8.0,-11.0,1
168.0,104.0,-167.0,50.0,9.0,-9.0,1
169.0,100.0,-168.0,51.0,10.0,-9.0,1
171.0,101.0,-171.0,52.0,11.0,-9.0,1
169.0,103.0,-172.0,51.0,11.0,-9.0,1
169.0,102.0,-167.0,51.0,12.0,-6.0,1
171.0,99.0,-167.0,51.0,12.0,-8.0,1
169.0,100.0,-164.0,51.0,11.0,-8.0,1
170.0,102.0,-169.0,51.0,11.0,-10.0,1
169.0,101.0,-163.0,51.0,10.0,-11.0,1
171.0,104.0,-162.0,51.0,11.0,-10.0,1
166.0,97.0,-167.0,50.0,12.0,-11.0,1
170.0,98.0,-168.0,50.0,11.0,-10.0,1
170.0,99.0,-167.0,52.0,13.0,-9.0,1
173.0,100.0,-165.0,52.0,12.0,-10.0,1
173.0,100.0,-172.0,53.0,12.0,-9.0,1
173.0,101.0,-165.0,51.0,13.0,-10.0,1
170.0,100.0,-167.0,50.0,15.0,-8.0,1
171.0,102.0,-168.0,50.0,15.0,-9.0,1
171.0,100.0,-169.0,49.0,16.0,-10.0,1
170.0,99.0,-168.0,49.0,18.0,-11.0,1
169.0,103.0,-172.0,47.0,17.0,-10.0,1
171.0,103.0,-171.0,47.0,18.0,-10.0,1
172.0,99.0,-169.0,48.0,16.0,-9.0,1
168.0,102.0,-167.0,50.0,15.0,-9.0,1
172.0,99.0,-166.0,49.0,15.0,-9.0,1
169.0,101.0,-167.0,51.0,14.0,-8.0,1
169.0,99.0,-167.0,50.0,14.0,-8.0,1
173.0,101.0,-168.0,49.0,15.0,-8.0,1
170.0,103.0,-167.0,50.0,14.0,-9.0,1
172.0,102.0,-165.0,51.0,15.0,-8.0,1
173.0,99.0,-167.0,52.0,15.0,-9.0,1
174.0,99.0,-163.0,50.0,15.0,-10.0,1
168.0,100.0,-165.0,51.0,15.0,-10.0,1
171.0,98.0,-166.0,51.0,16.0,-10.0,1
170.0,99.0,-163.0,50.0,16.0,-10.0,1
173.0,99.0,-167.0,50.0,16.0,-9.0,1
167.0,103.0,-168.0,52.0,16.0,-8.0,1
172.0,97.0,-169.0,51.0,14.0,-9.0,1
169.0,102.0,-166.0,51.0,15.0,-8.0,1
169.0,102.0,-164.0,51.0,15.0,-8.0,1
171.0,101.0,-166.0,50.0,14.0,-9.0,1
171.0,98.0,-166.0,50.0,13.0,-8.0,1
172.0,101.0,-169.0,52.0,13.0,-9.0,1
172.0,100.0,-165.0,52.0,13.0,-9.0,1
171.0,99.0,-171.0,52.0,14.0,-8.0,1
170.0,101.0,-168.0,52.0,12.0,-8.0,1
170.0,98.0,-165.0,51.0,13.0,-9.0,1
169.0,101.0,-170.0,52.0,14.0,-10.0,1
170.0,98.0,-167.0,51.0,13.0,-11.0,1
172.0,99.0,-168.0,52.0,15.0,-9.0,1
168.0,101.0,-165.0,51.0,14.0,-10.0,1
171.0,99.0,-165.0,51.0,14.0,-11.0,1
172.0,100.0,-170.0,50.0,13.0,-8.0,1
169.0,100.0,-172.0,51.0,12.0,-9.0,1
172.0,94.0,-169.0,52.0,13.0,-10.0,1
171.0,99.0,-166.0,51.0,13.0,-9.0,1
168.0,102.0,-166.0,51.0,13.0,-10.0,1
168.0,103.0,-168.0,51.0,14.0,-10.0,1
172.0,100.0,-165.0,50.0,14.0,-9.0,1
169.0,100.0,-163.0,51.0,13.0,-9.0,1
174.0,100.0,-165.0,51.0,13.0,-10.0,1
172.0,100.0,-163.0,51.0,12.0,-10.0,1
173.0,100.0,-165.0,51.0,13.0,-10.0,1
171.0,99.0,-164.0,51.0,14.0,-9.0,1
171.0,101.0,-167.0,52.0,13.0,-10.0,1
168.0,97.0,-174.0,51.0,13.0,-9.0,1
170.0,100.0,-171.0,52.0,13.0,-8.0,1
173.0,96.0,-164.0,52.0,13.0,-10.0,1
169.0,100.0,-167.0,52.0,14.0,-8.0,1
172.0,101.0,-162.0,52.0,14.0,-8.0,1
170.0,101.0,-168.0,51.0,13.0,-10.0,1
172.0,98.0,-167.0,50.0,13.0,-8.0,1
171.0,99.0,-168.0,52.0,14.0,-10.0,1
171.0,100.0,-165.0,51.0,14.0,-8.0,1
170.0,100.0,-166.0,50.0,13.0,-8.0,1
170.0,99.0,-167.0,51.0,14.0,-7.0,1
165.0,98.0,-164.0,51.0,15.0,-9.0,1
171.0,102.0,-167.0,51.0,15.0,-10.0,1
171.0,101.0,-164.0,51.0,15.0,-9.0,1
170.0,101.0,-167.0,48.0,16.0,-11.0,1
170.0,101.0,-166.0,49.0,16.0,-11.0,1
170.0,99.0,-166.0,51.0,17.0,-12.0,1
171.0,98.0,-163.0,48.0,16.0,-11.0,1
168.0,101.0,-171.0,49.0,17.0,-10.0,1
171.0,103.0,-163.0,48.0,17.0,-11.0,1
170.0,101.0,-169.0,49.0,17.0,-10.0,1
170.0,103.0,-164.0,49.0,15.0,-12.0,1
176.0,101.0,-168.0,49.0,16.0,-11.0,1
169.0,101.0,-166.0,50.0,15.0,-10.0,1
174.0,102.0,-166.0,49.0,15.0,-10.0,1
172.0,101.0,-165.0,49.0,14.0,-12.0,1
171.0,102.0,-165.0,50.0,12.0,-11.0,1
170.0,97.0,-166.0,50.0,12.0,-12.0,1
169.0,100.0,-167.0,49.0,13.0,-12.0,1
172.0,101.0,-174.0,50.0,12.0,-11.0,1
170.0,101.0,-165.0,50.0,14.0,-10.0,1
170.0,100.0,-166.0,51.0,14.0,-10.0,1
173.0,101.0,-166.0,50.0,14.0,-9.0,1
175.0,100.0,-160.0,50.0,15.0,-10.0,1
171.0,97.0,-169.0,51.0,16.0,-9.0,1
174.0,99.0,-167.0,51.0,16.0,-8.0,1
170.0,100.0,-168.0,51.0,18.0,-8.0,1
169.0,101.0,-167.0,52.0,19.0,-9.0,1
170.0,101.0,-164.0,52.0,19.0,-9.0,1
171.0,103.0,-164.0,51.0,19.0,-9.0,1
176.0,97.0,-165.0,51.0,20.0,-7.0,1
169.0,102.0,-163.0,51.0,19.0,-9.0,1
170.0,101.0,-168.0,53.0,19.0,-8.0,1
169.0,101.0,-165.0,52.0,19.0,-9.0,1
169.0,99.0,-171.0,51.0,18.0,-9.0,1
172.0,101.0,-162.0,51.0,18.0,-8.0,1
170.0,100.0,-167.0,51.0,17.0,-9.0,1
170.0,100.0,-161.0,53.0,16.0,-6.0,1
171.0,101.0,-163.0,53.0,16.0,-5.0,1
169.0,99.0,-166.0,53.0,15.0,-6.0,1
170.0,98.0,-166.0,54.0,16.0,-8.0,1
173.0,98.0,-166.0,54.0,16.0,-6.0,1
170.0,101.0,-166.0,54.0,17.0,-6.0,1
168.0,101.0,-168.0,54.0,17.0,-7.0,1
172.0,94.0,-171.0,54.0,16.0,-8.0,1
172.0,99.0,-168.0,53.0,17.0,-6.0,1
172.0,102.0,-165.0,52.0,17.0,-8.0,1
172.0,99.0,-166.0,51.0,17.0,-7.0,1
171.0,98.0,-164.0,51.0,16.0,-7.0,1
170.0,99.0,-165.0,50.0,17.0,-8.0,1
170.0,98.0,-165.0,50.0,15.0,-9.0,1
171.0,100.0,-165.0,51.0,14.0,-9.0,1
169.0,98.0,-159.0,52.0,14.0,-10.0,1
172.0,97.0,-167.0,52.0,13.0,-9.0,1
166.0,101.0,-163.0,54.0,13.0,-9.0,1
170.0,97.0,-167.0,53.0,15.0,-9.0,1
172.0,100.0,-166.0,53.0,15.0,-9.0,1
174.0,99.0,-164.0,51.0,15.0,-10.0,1
171.0,99.0,-166.0,50.0,14.0,-10.0,1
172.0,102.0,-165.0,50.0,14.0,-11.0,1
170.0,102.0,-168.0,49.0,12.0,-10.0,1
170.0,101.0,-167.0,50.0,13.0,-9.0,1
170.0,103.0,-170.0,51.0,13.0,-8.0,1
173.0,97.0,-166.0,52.0,12.0,-10.0,1
170.0,100.0,-166.0,51.0,13.0,-10.0,1
171.0,100.0,-165.0,50.0,14.0,-9.0,1
168.0,97.0,-173.0,51.0,15.0,-10.0,1
170.0,99.0,-164.0,52.0,15.0,-9.0,1
169.0,98.0,-169.0,52.0,14.0,-10.0,1
170.0,96.0,-164.0,53.0,15.0,-11.0,1
171.0,102.0,-163.0,52.0,15.0,-11.0,1
171.0,102.0,-167.0,52.0,15.0,-10.0,1
166.0,102.0,-168.0,53.0,15.0,-11.0,1
170.0,101.0,-167.0,54.0,15.0,-10.0,1
171.0,99.0,-168.0,54.0,16.0,-10.0,1
171.0,100.0,-166.0,52.0,18.0,-11.0,1
171.0,97.0,-167.0,53.0,18.0,-10.0,1
170.0,101.0,-165.0,55.0,18.0,-9.0,1
170.0,102.0,-166.0,54.0,20.0,-10.0,1
170.0,99.0,-164.0,54.0,19.0,-8.0,1
171.0,103.0,-167.0,53.0,20.0,-8.0,1
174.0,99.0,-166.0,52.0,20.0,-9.0,1
171.0,101.0,-166.0,52.0,19.0,-8.0,1
171.0,99.0,-164.0,51.0,21.0,-10.0,1
174.0,99.0,-171.0,52.0,19.0,-8.0,1
175.0,96.0,-162.0,51.0,19.0,-9.0,1
169.0,98.0,-167.0,51.0,19.0,-11.0,1
170.0,100.0,-165.0,50.0,18.0,-12.0,1
170.0,101.0,-164.0,49.0,17.0,-12.0,1
170.0,101.0,-167.0,49.0,16.0,-11.0,1
173.0,101.0,-166.0,50.0,15.0,-11.0,1
172.0,100.0,-165.0,50.0,14.0,-13.0,1
171.0,101.0,-163.0,50.0,14.0,-14.0,1
171.0,99.0,-166.0,49.0,14.0,-11.0,1
168.0,100.0,-165.0,50.0,14.0,-12.0,1
171.0,100.0,-164.0,49.0,15.0,-12.0,1
167.0,102.0,-170.0,50.0,15.0,-11.0,1
167.0,102.0,-163.0,50.0,14.0,-12.0,1
167.0,103.0,-168.0,51.0,15.0,-12.0,1
172.0,102.0,-163.0,50.0,15.0,-12.0,1
172.0,100.0,-163.0,50.0,14.0,-13.0,1
175.0,99.0,-166.0,52.0,15.0,-12.0,1
170.0,101.0,-165.0,51.0,15.0,-11.0,1
174.0,98.0,-167.0,52.0,15.0,-11.0,1
173.0,97.0,-166.0,53.0,13.0,-12.0,1
173.0,97.0,-165.0,53.0,12.0,-11.0,1
170.0,99.0,-165.0,53.0,13.0,-11.0,1
168.0,100.0,-165.0,52.0,13.0,-12.0,1
172.0,101.0,-168.0,52.0,12.0,-12.0,1
172.0,99.0,-158.0,52.0,11.0,-11.0,1
168.0,98.0,-169.0,53.0,11.0,-10.0,1
172.0,98.0,-162.0,53.0,11.0,-9.0,1
170.0,100.0,-165.0,52.0,12.0,-11.0,1
172.0,100.0,-167.0,53.0,14.0,-10.0,1
173.0,95.0,-164.0,52.0,13.0,-9.0,1
173.0,100.0,-166.0,53.0,13.0,-9.0,1
171.0,101.0,-166.0,54.0,14.0,-9.0,1
172.0,101.0,-164.0,53.0,14.0,-9.0,1
170.0,103.0,-168.0,54.0,15.0,-7.0,1
173.0,102.0,-166.0,55.0,16.0,-7.0,1
172.0,102.0,-167.0,55.0,15.0,-7.0,1
173.0,97.0,-166.0,52.0,18.0,-7.0,1
169.0,99.0,-163.0,52.0,17.0,-7.0,1
171.0,100.0,-166.0,52.0,18.0,-9.0,1
172.0,101.0,-162.0,52.0,17.0,-8.0,1
172.0,103.0,-165.0,51.0,17.0,-8.0,1
170.0,100.0,-158.0,52.0,17.0,-8.0,1
172.0,100.0,-168.0,50.0,17.0,-9.0,1
172.0,99.0,-162.0,51.0,17.0,-10.0,1
171.0,98.0,-164.0,53.0,16.0,-9.0,1
174.0,97.0,-165.0,54.0,15.0,-9.0,1
169.0,100.0,-168.0,54.0,15.0,-9.0,1
172.0,95.0,-171.0,55.0,15.0,-10.0,1
170.0,99.0,-168.0,52.0,13.0,-10.0,1
169.0,100.0,-164.0,51.0,14.0,-9.0,1
170.0,100.0,-167.0,52.0,15.0,-11.0,1
175.0,98.0,-167.0,51.0,16.0,-10.0,1
173.0,101.0,-165.0,51.0,17.0,-10.0,1
172.0,102.0,-165.0,49.0,18.0,-10.0,1
172.0,103.0,-165.0,50.0,18.0,-9.0,1
173.0,97.0,-159.0,51.0,19.0,-10.0,1
173.0,98.0,-163.0,50.0,19.0,-11.0,1
173.0,95.0,-168.0,50.0,21.0,-10.0,1
172.0,101.0,-164.0,50.0,21.0,-10.0,1
172.0,100.0,-168.0,50.0,20.0,-10.0,1
171.0,100.0,-168.0,50.0,19.0,-12.0,1
173.0,100.0,-162.0,51.0,19.0,-11.0,1
172.0,99.0,-165.0,50.0,17.0,-10.0,1
171.0,100.0,-163.0,50.0,16.0,-12.0,1
169.0,99.0,-161.0,50.0,16.0,-12.0,1
171.0,102.0,-165.0,51.0,15.0,-11.0,1
174.0,99.0,-167.0,52.0,14.0,-8.0,1
172.0,102.0,-164.0,52.0,15.0,-10.0,1
174.0,96.0,-161.0,52.0,14.0,-9.0,1
172.0,98.0,-167.0,52.0,12.0,-8.0,1
173.0,98.0,-166.0,53.0,14.0,-9.0,1
169.0,103.0,-168.0,53.0,15.0,-10.0,1
170.0,102.0,-166.0,52.0,14.0,-11.0,1
172.0,99.0,-165.0,53.0,14.0,-9.0,1
173.0,99.0,-162.0,52.0,14.0,-9.0,1
171.0,101.0,-162.0,53.0,15.0,-10.0,1
167.0,98.0,-167.0,51.0,14.0,-9.0,1
170.0,96.0,-164.0,51.0,13.0,-9.0,1
174.0,100.0,-168.0,51.0,13.0,-10.0,1
172.0,103.0,-166.0,52.0,13.0,-10.0,1
168.0,101.0,-164.0,52.0,12.0,-8.0,1
172.0,100.0,-165.0,51.0,12.0,-10.0,1
171.0,99.0,-168.0,52.0,13.0,-10.0,1
172.0,101.0,-163.0,51.0,13.0,-9.0,1
172.0,101.0,-163.0,52.0,13.0,-10.0,1
172.0,101.0,-165.0,52.0,12.0,-11.0,1
171.0,101.0,-164.0,52.0,11.0,-12.0,1
170.0,101.0,-172.0,51.0,11.0,-11.0,1
170.0,95.0,-167.0,50.0,10.0,-11.0,1
168.0,99.0,-163.0,51.0,11.0,-10.0,1
168.0,103.0,-171.0,52.0,11.0,-10.0,1
172.0,98.0,-163.0,52.0,11.0,-11.0,1
172.0,100.0,-167.0,51.0,10.0,-10.0,1
