ax,ay,az,gx,gy,gz,label
1.0,-252.0,-64.0,-21.0,42.0,-9.0,1
2.0,-254.0,-62.0,-19.0,42.0,-7.0,1
1.0,-248.0,-64.0,-19.0,43.0,-10.0,1
1.0,-249.0,-65.0,-18.0,44.0,-7.0,1
1.0,-248.0,-63.0,-21.0,43.0,-9.0,1
8.0,-249.0,-62.0,-25.0,45.0,-6.0,1
1.0,-248.0,-65.0,-29.0,45.0,-10.0,1
1.0,-249.0,-61.0,-31.0,47.0,-9.0,1
-1.0,-249.0,-62.0,-32.0,45.0,-11.0,1
1.0,-252.0,-62.0,-30.0,46.0,-8.0,1
2.0,-250.0,-64.0,-29.0,44.0,-10.0,1
4.0,-249.0,-63.0,-27.0,46.0,-9.0,1
1.0,-253.0,-61.0,-25.0,46.0,-10.0,1
3.0,-252.0,-66.0,-24.0,48.0,-7.0,1
0.0,-252.0,-62.0,-25.0,49.0,-9.0,1
2.0,-250.0,-69.0,-23.0,50.0,-7.0,1
2.0,-250.0,-66.0,-25.0,50.0,-10.0,1
2.0,-251.0,-58.0,-28.0,49.0,-7.0,1
2.0,-248.0,-63.0,-31.0,51.0,-10.0,1
1.0,-250.0,-60.0,-34.0,52.0,-9.0,1
4.0,-249.0,-66.0,-36.0,53.0,-11.0,1
0.0,-247.0,-63.0,-38.0,53.0,-9.0,1
2.0,-252.0,-67.0,-40.0,52.0,-12.0,1
0.0,-251.0,-61.0,-40.0,54.0,-9.0,1
2.0,-250.0,-66.0,-40.0,56.0,-11.0,1
3.0,-251.0,-60.0,-39.0,58.0,-9.0,1
-1.0,-249.0,-62.0,-38.0,59.0,-11.0,1
2.0,-251.0,-62.0,-38.0,59.0,-9.0,1
0.0,-250.0,-67.0,-38.0,58.0,-11.0,1
2.0,-251.0,-64.0,-37.0,57.0,-9.0,1
1.0,-252.0,-64.0,-36.0,56.0,-11.0,1
3.0,-252.0,-68.0,-35.0,57.0,-10.0,1
1.0,-251.0,-63.0,-38.0,56.0,-12.0,1
1.0,-249.0,-68.0,-38.0,56.0,-10.0,1
3.0,-249.0,-67.0,-39.0,57.0,-13.0,1
0.0,-249.0,-65.0,-40.0,57.0,-12.0,1
2.0,-249.0,-62.0,-41.0,57.0,-15.0,1
-1.0,-248.0,-62.0,-40.0,59.0,-13.0,1
3.0,-251.0,-64.0,-39.0,61.0,-15.0,1
4.0,-250.0,-61.0,-37.0,63.0,-12.0,1
0.0,-247.0,-62.0,-35.0,64.0,-14.0,1
3.0,-249.0,-62.0,-34.0,63.0,-12.0,1
4.0,-251.0,-67.0,-31.0,64.0,-12.0,1
5.0,-250.0,-63.0,-31.0,64.0,-11.0,1
1.0,-249.0,-68.0,-31.0,65.0,-11.0,1
1.0,-247.0,-66.0,-33.0,64.0,-9.0,1
0.0,-246.0,-66.0,-34.0,65.0,-10.0,1
0.0,-247.0,-62.0,-35.0,65.0,-7.0,1
-1.0,-250.0,-62.0,-37.0,67.0,-8.0,1
1.0,-249.0,-67.0,-38.0,68.0,-8.0,1
1.0,-251.0,-68.0,-39.0,69.0,-8.0,1
1.0,-252.0,-67.0,-41.0,70.0,-6.0,1
1.0,-253.0,-63.0,-39.0,70.0,-9.0,1
-1.0,-253.0,-64.0,-36.0,70.0,-10.0,1
1.0,-254.0,-66.0,-31.0,72.0,-10.0,1
2.0,-254.0,-64.0,-28.0,73.0,-10.0,1
-1.0,-248.0,-65.0,-24.0,72.0,-12.0,1
1.0,-248.0,-60.0,-23.0,72.0,-11.0,1
0.0,-251.0,-67.0,-23.0,71.0,-13.0,1
0.0,-248.0,-64.0,-25.0,69.0,-10.0,1
1.0,-252.0,-65.0,-28.0,68.0,-10.0,1
-2.0,-248.0,-66.0,-28.0,67.0,-9.0,1
0.0,-251.0,-63.0,-31.0,67.0,-10.0,1
1.0,-246.0,-65.0,-32.0,69.0,-11.0,1
2.0,-249.0,-65.0,-34.0,69.0,-11.0,1
0.0,-247.0,-61.0,-36.0,71.0,-12.0,1
2.0,-247.0,-64.0,-39.0,74.0,-12.0,1
0.0,-248.0,-63.0,-42.0,75.0,-10.0,1
-1.0,-248.0,-69.0,-46.0,76.0,-12.0,1
-4.0,-247.0,-61.0,-50.0,76.0,-10.0,1
-1.0,-247.0,-62.0,-56.0,75.0,-10.0,1
1.0,-256.0,-67.0,-59.0,75.0,-6.0,1
2.0,-254.0,-64.0,-59.0,74.0,-4.0,1
2.0,-251.0,-66.0,-55.0,74.0,-2.0,1
5.0,-252.0,-65.0,-49.0,70.0,-2.0,1
1.0,-250.0,-66.0,-45.0,68.0,-2.0,1
2.0,-247.0,-67.0,-42.0,65.0,-2.0,1
-1.0,-247.0,-66.0,-44.0,66.0,-1.0,1
0.0,-249.0,-65.0,-45.0,67.0,-2.0,1
2.0,-249.0,-68.0,-46.0,69.0,-2.0,1
2.0,-248.0,-66.0,-47.0,71.0,-4.0,1
0.0,-249.0,-64.0,-48.0,75.0,-3.0,1
-2.0,-249.0,-66.0,-47.0,75.0,-5.0,1
2.0,-249.0,-61.0,-45.0,77.0,-6.0,1
-2.0,-253.0,-64.0,-41.0,78.0,-7.0,1
0.0,-253.0,-64.0,-36.0,80.0,-7.0,1
-1.0,-252.0,-59.0,-32.0,79.0,-8.0,1
1.0,-250.0,-61.0,-30.0,77.0,-7.0,1
0.0,-250.0,-67.0,-28.0,74.0,-7.0,1
3.0,-254.0,-64.0,-30.0,75.0,-7.0,1
1.0,-249.0,-65.0,-30.0,72.0,-5.0,1
0.0,-247.0,-65.0,-32.0,69.0,-5.0,1
0.0,-251.0,-66.0,-33.0,67.0,-1.0,1
2.0,-249.0,-61.0,-34.0,64.0,-1.0,1
3.0,-252.0,-67.0,-34.0,63.0,3.0,1
3.0,-250.0,-63.0,-35.0,62.0,3.0,1
2.0,-251.0,-65.0,-34.0,62.0,4.0,1
1.0,-251.0,-65.0,-36.0,61.0,4.0,1
0.0,-247.0,-66.0,-35.0,62.0,4.0,1
0.0,-251.0,-67.0,-36.0,62.0,4.0,1
-2.0,-251.0,-67.0,-35.0,63.0,5.0,1
-2.0,-249.0,-67.0,-32.0,64.0,4.0,1
-1.0,-253.0,-66.0,-29.0,65.0,4.0,1
0.0,-252.0,-65.0,-26.0,64.0,0.0,1
-2.0,-249.0,-65.0,-22.0,64.0,0.0,1
1.0,-251.0,-65.0,-21.0,63.0,-3.0,1
-1.0,-252.0,-66.0,-20.0,63.0,-3.0,1
-2.0,-249.0,-67.0,-19.0,62.0,-5.0,1
2.0,-250.0,-66.0,-20.0,62.0,-6.0,1
1.0,-252.0,-67.0,-23.0,60.0,-8.0,1
-2.0,-250.0,-66.0,-22.0,60.0,-8.0,1
-1.0,-252.0,-69.0,-21.0,61.0,-10.0,1
0.0,-250.0,-68.0,-21.0,60.0,-7.0,1
3.0,-250.0,-66.0,-15.0,58.0,-8.0,1
-1.0,-252.0,-64.0,-13.0,55.0,-6.0,1
2.0,-251.0,-64.0,-12.0,54.0,-8.0,1
1.0,-251.0,-62.0,-11.0,52.0,-6.0,1
-1.0,-249.0,-64.0,-9.0,49.0,-7.0,1
4.0,-250.0,-65.0,-7.0,48.0,-5.0,1
-2.0,-249.0,-67.0,-4.0,48.0,-7.0,1
2.0,-248.0,-65.0,-4.0,47.0,-3.0,1
3.0,-250.0,-68.0,-5.0,46.0,-5.0,1
2.0,-251.0,-62.0,-6.0,45.0,-3.0,1
-1.0,-249.0,-64.0,-6.0,45.0,-4.0,1
2.0,-249.0,-63.0,-6.0,45.0,0.0,1
0.0,-249.0,-63.0,-5.0,43.0,-5.0,1
1.0,-253.0,-67.0,-5.0,43.0,-3.0,1
0.0,-248.0,-63.0,-3.0,42.0,-4.0,1
-2.0,-250.0,-62.0,-3.0,42.0,-2.0,1
-1.0,-248.0,-66.0,-2.0,41.0,-5.0,1
-1.0,-249.0,-64.0,-2.0,41.0,-4.0,1
0.0,-248.0,-68.0,-4.0,40.0,-8.0,1
0.0,-249.0,-63.0,-5.0,39.0,-6.0,1
1.0,-246.0,-68.0,-7.0,40.0,-9.0,1
5.0,-248.0,-60.0,-8.0,40.0,-8.0,1
3.0,-250.0,-65.0,-10.0,42.0,-13.0,1
3.0,-249.0,-62.0,-11.0,43.0,-10.0,1
2.0,-249.0,-65.0,-14.0,43.0,-12.0,1
1.0,-247.0,-68.0,-16.0,45.0,-10.0,1
0.0,-249.0,-65.0,-17.0,44.0,-12.0,1
4.0,-250.0,-68.0,-16.0,45.0,-10.0,1
3.0,-249.0,-63.0,-15.0,44.0,-13.0,1
3.0,-249.0,-66.0,-15.0,44.0,-10.0,1
0.0,-250.0,-64.0,-13.0,43.0,-13.0,1
4.0,-252.0,-67.0,-9.0,44.0,-10.0,1
2.0,-248.0,-67.0,-6.0,42.0,-11.0,1
3.0,-249.0,-64.0,-1.0,43.0,-7.0,1
2.0,-250.0,-65.0,0.0,42.0,-9.0,1
2.0,-249.0,-69.0,-1.0,40.0,-6.0,1
1.0,-249.0,-63.0,-5.0,38.0,-8.0,1
2.0,-246.0,-63.0,-7.0,38.0,-5.0,1
4.0,-249.0,-65.0,-8.0,40.0,-7.0,1
5.0,-252.0,-64.0,-9.0,42.0,-5.0,1
-1.0,-249.0,-65.0,-10.0,42.0,-9.0,1
2.0,-254.0,-67.0,-12.0,44.0,-6.0,1
2.0,-248.0,-68.0,-11.0,45.0,-8.0,1
1.0,-246.0,-66.0,-11.0,47.0,-5.0,1
0.0,-248.0,-63.0,-12.0,48.0,-9.0,1
3.0,-253.0,-65.0,-13.0,49.0,-6.0,1
7.0,-248.0,-65.0,-11.0,50.0,-7.0,1
-4.0,-249.0,-69.0,-9.0,50.0,-4.0,1
-8.0,-250.0,-60.0,-7.0,51.0,-6.0,1
4.0,-242.0,-62.0,-4.0,52.0,-3.0,1
2.0,-246.0,-76.0,-3.0,53.0,-4.0,1
14.0,-252.0,-57.0,-2.0,54.0,0.0,1
5.0,-234.0,-60.0,-3.0,54.0,-2.0,1
5.0,-253.0,-66.0,-4.0,54.0,-1.0,1
4.0,-249.0,-62.0,-4.0,56.0,-2.0,1
1.0,-248.0,-66.0,-5.0,57.0,1.0,1
2.0,-252.0,-64.0,-4.0,56.0,-1.0,1
1.0,-252.0,-67.0,-3.0,59.0,2.0,1
10.0,-249.0,-63.0,-4.0,60.0,0.0,1
1.0,-249.0,-65.0,-4.0,58.0,1.0,1
1.0,-250.0,-63.0,-2.0,60.0,-1.0,1
1.0,-248.0,-65.0,-1.0,60.0,1.0,1
2.0,-249.0,-67.0,-3.0,61.0,1.0,1
1.0,-250.0,-61.0,-3.0,62.0,3.0,1
2.0,-253.0,-67.0,-4.0,61.0,0.0,1
-1.0,-248.0,-64.0,-4.0,59.0,3.0,1
0.0,-250.0,-64.0,-5.0,59.0,1.0,1
2.0,-253.0,-65.0,-7.0,58.0,2.0,1
-1.0,-250.0,-63.0,-4.0,58.0,0.0,1
2.0,-253.0,-65.0,-1.0,57.0,3.0,1
2.0,-250.0,-60.0,3.0,55.0,0.0,1
1.0,-253.0,-65.0,6.0,54.0,1.0,1
3.0,-249.0,-63.0,8.0,53.0,0.0,1
1.0,-250.0,-63.0,7.0,53.0,3.0,1
0.0,-248.0,-61.0,8.0,50.0,0.0,1
2.0,-252.0,-66.0,8.0,49.0,2.0,1
-3.0,-248.0,-63.0,7.0,48.0,-1.0,1
-2.0,-248.0,-62.0,7.0,49.0,2.0,1
3.0,-252.0,-64.0,6.0,50.0,-1.0,1
-2.0,-249.0,-61.0,4.0,49.0,1.0,1
0.0,-249.0,-65.0,2.0,49.0,-5.0,1
0.0,-250.0,-64.0,0.0,49.0,-4.0,1
1.0,-248.0,-64.0,-2.0,50.0,-7.0,1
-2.0,-247.0,-60.0,-6.0,47.0,-5.0,1
-1.0,-249.0,-64.0,-9.0,45.0,-7.0,1
0.0,-251.0,-67.0,-14.0,44.0,-5.0,1
0.0,-251.0,-62.0,-16.0,44.0,-5.0,1
-1.0,-248.0,-66.0,-16.0,42.0,-3.0,1
2.0,-250.0,-66.0,-13.0,39.0,-5.0,1
1.0,-252.0,-65.0,-12.0,36.0,-2.0,1
1.0,-251.0,-68.0,-11.0,34.0,-3.0,1
4.0,-249.0,-68.0,-10.0,34.0,1.0,1
1.0,-248.0,-66.0,-10.0,35.0,0.0,1
4.0,-250.0,-68.0,-10.0,38.0,2.0,1
2.0,-250.0,-65.0,-8.0,40.0,0.0,1
3.0,-250.0,-67.0,-7.0,43.0,1.0,1
1.0,-249.0,-65.0,-6.0,43.0,-1.0,1
1.0,-247.0,-66.0,-7.0,47.0,0.0,1
5.0,-252.0,-66.0,-7.0,52.0,-4.0,1
0.0,-246.0,-66.0,-10.0,53.0,-2.0,1
1.0,-249.0,-64.0,-12.0,55.0,-5.0,1
2.0,-248.0,-62.0,-16.0,55.0,-6.0,1
-1.0,-251.0,-65.0,-21.0,55.0,-8.0,1
2.0,-250.0,-65.0,-25.0,53.0,-6.0,1
0.0,-250.0,-66.0,-26.0,52.0,-8.0,1
1.0,-249.0,-63.0,-26.0,52.0,-7.0,1
2.0,-252.0,-66.0,-26.0,54.0,-8.0,1
-2.0,-251.0,-67.0,-25.0,54.0,-5.0,1
1.0,-250.0,-63.0,-24.0,53.0,-6.0,1
2.0,-248.0,-66.0,-20.0,53.0,-3.0,1
2.0,-250.0,-69.0,-19.0,53.0,-4.0,1
4.0,-252.0,-66.0,-16.0,53.0,0.0,1
2.0,-250.0,-67.0,-15.0,54.0,1.0,1
3.0,-250.0,-66.0,-14.0,54.0,5.0,1
4.0,-252.0,-66.0,-14.0,53.0,5.0,1
1.0,-249.0,-69.0,-16.0,57.0,8.0,1
3.0,-250.0,-67.0,-17.0,57.0,7.0,1
-2.0,-248.0,-67.0,-19.0,61.0,9.0,1
1.0,-249.0,-66.0,-18.0,61.0,7.0,1
3.0,-252.0,-68.0,-19.0,61.0,8.0,1
-1.0,-249.0,-65.0,-21.0,62.0,5.0,1
5.0,-251.0,-63.0,-22.0,63.0,4.0,1
-2.0,-250.0,-65.0,-22.0,63.0,1.0,1
1.0,-248.0,-67.0,-23.0,62.0,1.0,1
-1.0,-248.0,-65.0,-22.0,64.0,0.0,1
-2.0,-249.0,-67.0,-20.0,64.0,-1.0,1
-3.0,-250.0,-67.0,-19.0,65.0,-1.0,1
1.0,-253.0,-64.0,-16.0,65.0,-2.0,1
-4.0,-248.0,-71.0,-14.0,63.0,-3.0,1
2.0,-249.0,-65.0,-12.0,63.0,-2.0,1
2.0,-248.0,-61.0,-13.0,62.0,-4.0,1
0.0,-248.0,-63.0,-14.0,60.0,-2.0,1
-2.0,-247.0,-66.0,-15.0,57.0,-4.0,1
0.0,-247.0,-65.0,-15.0,55.0,-2.0,1
3.0,-250.0,-66.0,-18.0,53.0,-2.0,1
1.0,-250.0,-64.0,-20.0,53.0,-2.0,1
2.0,-248.0,-63.0,-20.0,50.0,-1.0,1
0.0,-249.0,-67.0,-19.0,48.0,-1.0,1
0.0,-252.0,-67.0,-16.0,45.0,-2.0,1
0.0,-250.0,-63.0,-14.0,45.0,-2.0,1
0.0,-252.0,-64.0,-12.0,44.0,-4.0,1
0.0,-250.0,-65.0,-12.0,41.0,-4.0,1
-2.0,-249.0,-66.0,-11.0,41.0,-6.0,1
-2.0,-251.0,-65.0,-8.0,38.0,-6.0,1
-2.0,-248.0,-66.0,-8.0,38.0,-7.0,1
-2.0,-250.0,-65.0,-9.0,37.0,-7.0,1
-4.0,-249.0,-64.0,-8.0,39.0,-9.0,1
-5.0,-249.0,-64.0,-8.0,39.0,-8.0,1
1.0,-252.0,-63.0,-6.0,39.0,-8.0,1
1.0,-252.0,-62.0,-4.0,38.0,-7.0,1
0.0,-253.0,-64.0,-1.0,38.0,-6.0,1
0.0,-250.0,-63.0,2.0,36.0,-6.0,1
2.0,-249.0,-63.0,5.0,35.0,-5.0,1
0.0,-253.0,-63.0,7.0,36.0,-4.0,1
1.0,-253.0,-60.0,7.0,37.0,-2.0,1
1.0,-253.0,-64.0,10.0,36.0,-2.0,1
3.0,-251.0,-64.0,11.0,38.0,1.0,1
4.0,-250.0,-66.0,12.0,40.0,2.0,1
0.0,-250.0,-62.0,13.0,43.0,1.0,1
1.0,-249.0,-66.0,13.0,44.0,1.0,1
3.0,-250.0,-63.0,12.0,46.0,1.0,1
3.0,-251.0,-65.0,11.0,47.0,1.0,1
0.0,-248.0,-65.0,10.0,49.0,1.0,1
3.0,-249.0,-65.0,7.0,49.0,1.0,1
-1.0,-248.0,-63.0,4.0,48.0,0.0,1
2.0,-249.0,-65.0,0.0,49.0,0.0,1
1.0,-246.0,-63.0,-3.0,49.0,0.0,1
2.0,-246.0,-62.0,-10.0,47.0,0.0,1
0.0,-246.0,-62.0,-14.0,46.0,2.0,1
1.0,-248.0,-67.0,-18.0,47.0,1.0,1
-1.0,-249.0,-64.0,-22.0,48.0,1.0,1
1.0,-250.0,-63.0,-22.0,47.0,2.0,1
2.0,-254.0,-67.0,-22.0,49.0,3.0,1
-2.0,-251.0,-67.0,-22.0,49.0,2.0,1
-2.0,-248.0,-67.0,-20.0,50.0,3.0,1
-2.0,-251.0,-68.0,-18.0,51.0,2.0,1
3.0,-251.0,-70.0,-17.0,50.0,4.0,1
2.0,-251.0,-65.0,-15.0,49.0,2.0,1
1.0,-254.0,-63.0,-16.0,50.0,2.0,1
-1.0,-247.0,-63.0,-18.0,52.0,1.0,1
-1.0,-250.0,-67.0,-21.0,50.0,0.0,1
-1.0,-250.0,-66.0,-22.0,51.0,-1.0,1
-2.0,-248.0,-67.0,-23.0,49.0,0.0,1
-1.0,-247.0,-64.0,-24.0,49.0,-2.0,1
-3.0,-246.0,-64.0,-27.0,48.0,-1.0,1
0.0,-250.0,-67.0,-29.0,48.0,-1.0,1
-2.0,-248.0,-64.0,-31.0,48.0,0.0,1
-1.0,-247.0,-67.0,-34.0,47.0,-2.0,1
-1.0,-249.0,-65.0,-35.0,45.0,1.0,1
0.0,-248.0,-63.0,-36.0,46.0,0.0,1
-1.0,-249.0,-66.0,-37.0,45.0,0.0,1
1.0,-249.0,-65.0,-38.0,44.0,0.0,1
-2.0,-248.0,-65.0,-37.0,44.0,-1.0,1
-2.0,-250.0,-68.0,-38.0,43.0,-1.0,1
1.0,-252.0,-64.0,-36.0,42.0,0.0,1
0.0,-250.0,-66.0,-36.0,43.0,-1.0,1
-2.0,-248.0,-69.0,-35.0,43.0,0.0,1
0.0,-250.0,-65.0,-34.0,43.0,-3.0,1
0.0,-251.0,-67.0,-32.0,42.0,-2.0,1
1.0,-251.0,-66.0,-31.0,43.0,-2.0,1
1.0,-250.0,-67.0,-27.0,42.0,-1.0,1
4.0,-253.0,-68.0,-25.0,43.0,-3.0,1
0.0,-250.0,-65.0,-23.0,45.0,-1.0,1
1.0,-251.0,-63.0,-19.0,45.0,-2.0,1
-1.0,-251.0,-60.0,-18.0,45.0,0.0,1
0.0,-251.0,-62.0,-18.0,43.0,-2.0,1
0.0,-253.0,-66.0,-16.0,44.0,-1.0,1
1.0,-250.0,-66.0,-18.0,44.0,-5.0,1
3.0,-251.0,-69.0,-20.0,43.0,-5.0,1
1.0,-252.0,-65.0,-23.0,44.0,-6.0,1
1.0,-250.0,-65.0,-26.0,45.0,-6.0,1
0.0,-250.0,-65.0,-27.0,45.0,-8.0,1
1.0,-251.0,-64.0,-30.0,47.0,-7.0,1
-1.0,-246.0,-64.0,-30.0,50.0,-10.0,1
2.0,-249.0,-64.0,-30.0,51.0,-7.0,1
-1.0,-252.0,-62.0,-32.0,50.0,-9.0,1
3.0,-250.0,-63.0,-31.0,51.0,-5.0,1
3.0,-252.0,-68.0,-29.0,50.0,-5.0,1
2.0,-251.0,-65.0,-26.0,50.0,-2.0,1
-1.0,-250.0,-68.0,-21.0,48.0,-2.0,1
3.0,-250.0,-64.0,-18.0,45.0,0.0,1
2.0,-249.0,-65.0,-17.0,44.0,-2.0,1
2.0,-248.0,-66.0,-18.0,43.0,0.0,1
0.0,-245.0,-63.0,-20.0,45.0,-3.0,1
-1.0,-246.0,-65.0,-24.0,46.0,-1.0,1
0.0,-244.0,-70.0,-27.0,49.0,-5.0,1
1.0,-246.0,-62.0,-30.0,50.0,-3.0,1
1.0,-245.0,-65.0,-33.0,53.0,-6.0,1
-2.0,-250.0,-64.0,-35.0,56.0,-4.0,1
1.0,-248.0,-63.0,-35.0,57.0,-7.0,1
3.0,-248.0,-65.0,-35.0,57.0,-6.0,1
-1.0,-251.0,-62.0,-38.0,59.0,-9.0,1
2.0,-250.0,-65.0,-40.0,59.0,-7.0,1
-1.0,-250.0,-64.0,-42.0,58.0,-8.0,1
-2.0,-249.0,-67.0,-46.0,56.0,-8.0,1
0.0,-250.0,-63.0,-47.0,53.0,-10.0,1
1.0,-250.0,-68.0,-49.0,54.0,-9.0,1
1.0,-253.0,-62.0,-50.0,52.0,-10.0,1
2.0,-249.0,-66.0,-48.0,53.0,-7.0,1
0.0,-249.0,-66.0,-47.0,51.0,-7.0,1
1.0,-247.0,-70.0,-46.0,50.0,-4.0,1
2.0,-251.0,-67.0,-46.0,50.0,-6.0,1
2.0,-250.0,-70.0,-48.0,49.0,-2.0,1
2.0,-252.0,-70.0,-48.0,48.0,-5.0,1
-1.0,-251.0,-67.0,-52.0,49.0,-2.0,1
3.0,-250.0,-65.0,-56.0,49.0,-5.0,1
1.0,-246.0,-65.0,-58.0,52.0,-2.0,1
0.0,-251.0,-65.0,-58.0,52.0,-4.0,1
0.0,-245.0,-70.0,-61.0,53.0,-3.0,1
-2.0,-248.0,-71.0,-58.0,54.0,-5.0,1
-2.0,-250.0,-67.0,-60.0,53.0,-4.0,1
-1.0,-247.0,-69.0,-60.0,52.0,-7.0,1
-3.0,-248.0,-67.0,-61.0,54.0,-6.0,1
-4.0,-247.0,-73.0,-62.0,52.0,-9.0,1
0.0,-245.0,-73.0,-65.0,50.0,-9.0,1
0.0,-250.0,-71.0,-67.0,50.0,-12.0,1
-1.0,-245.0,-71.0,-69.0,48.0,-12.0,1
0.0,-249.0,-67.0,-72.0,47.0,-14.0,1
0.0,-249.0,-71.0,-76.0,44.0,-13.0,1
-3.0,-248.0,-75.0,-79.0,42.0,-17.0,1
0.0,-244.0,-71.0,-86.0,40.0,-15.0,1
-2.0,-245.0,-69.0,-92.0,38.0,-18.0,1
0.0,-247.0,-72.0,-98.0,35.0,-15.0,1
0.0,-245.0,-68.0,-103.0,33.0,-19.0,1
-4.0,-247.0,-68.0,-106.0,32.0,-17.0,1
-3.0,-248.0,-70.0,-109.0,30.0,-20.0,1
-3.0,-246.0,-72.0,-110.0,28.0,-17.0,1
-1.0,-247.0,-72.0,-111.0,26.0,-20.0,1
0.0,-251.0,-75.0,-110.0,27.0,-18.0,1
0.0,-247.0,-73.0,-109.0,28.0,-22.0,1
-4.0,-245.0,-71.0,-109.0,27.0,-21.0,1
-1.0,-246.0,-70.0,-110.0,29.0,-24.0,1
-1.0,-247.0,-70.0,-112.0,29.0,-22.0,1
-2.0,-248.0,-72.0,-115.0,31.0,-25.0,1
-1.0,-248.0,-76.0,-117.0,30.0,-24.0,1
-1.0,-248.0,-75.0,-118.0,29.0,-26.0,1
2.0,-246.0,-74.0,-119.0,30.0,-27.0,1
-2.0,-246.0,-76.0,-121.0,31.0,-30.0,1
-2.0,-246.0,-71.0,-125.0,30.0,-28.0,1
-1.0,-245.0,-71.0,-127.0,29.0,-32.0,1
-2.0,-249.0,-74.0,-133.0,28.0,-32.0,1
-1.0,-245.0,-76.0,-135.0,27.0,-37.0,1
0.0,-248.0,-72.0,-136.0,25.0,-36.0,1
-3.0,-248.0,-75.0,-139.0,24.0,-39.0,1
0.0,-248.0,-73.0,-139.0,21.0,-36.0,1
0.0,-246.0,-73.0,-140.0,21.0,-38.0,1
-1.0,-246.0,-76.0,-140.0,19.0,-36.0,1
-1.0,-247.0,-76.0,-139.0,19.0,-38.0,1
0.0,-248.0,-73.0,-138.0,18.0,-36.0,1
-1.0,-246.0,-73.0,-136.0,17.0,-38.0,1
2.0,-248.0,-75.0,-133.0,15.0,-35.0,1
-1.0,-247.0,-75.0,-134.0,13.0,-38.0,1
0.0,-247.0,-75.0,-134.0,10.0,-34.0,1
0.0,-245.0,-80.0,-136.0,8.0,-35.0,1
2.0,-244.0,-72.0,-137.0,6.0,-30.0,1
-1.0,-245.0,-77.0,-142.0,3.0,-30.0,1
-2.0,-243.0,-74.0,-149.0,3.0,-27.0,1
-2.0,-243.0,-74.0,-153.0,2.0,-26.0,1
1.0,-242.0,-74.0,-161.0,3.0,-25.0,1
-1.0,-242.0,-77.0,-167.0,3.0,-23.0,1
-2.0,-244.0,-78.0,-175.0,4.0,-21.0,1
0.0,-239.0,-76.0,-180.0,6.0,-22.0,1
-3.0,-239.0,-77.0,-185.0,9.0,-17.0,1
2.0,-238.0,-79.0,-190.0,10.0,-18.0,1
1.0,-245.0,-79.0,-194.0,12.0,-14.0,1
1.0,-239.0,-75.0,-201.0,14.0,-13.0,1
2.0,-240.0,-77.0,-207.0,15.0,-9.0,1
3.0,-237.0,-79.0,-215.0,16.0,-9.0,1
2.0,-239.0,-84.0,-222.0,15.0,-5.0,1
5.0,-238.0,-80.0,-230.0,16.0,-3.0,1
2.0,-239.0,-81.0,-241.0,16.0,2.0,1
4.0,-240.0,-81.0,-250.0,16.0,2.0,1
2.0,-238.0,-87.0,-259.0,18.0,7.0,1
2.0,-237.0,-83.0,-264.0,18.0,7.0,1
1.0,-236.0,-86.0,-269.0,21.0,12.0,1
-1.0,-238.0,-85.0,-269.0,23.0,13.0,1
0.0,-240.0,-85.0,-267.0,25.0,18.0,1
0.0,-240.0,-80.0,-265.0,28.0,19.0,1
0.0,-238.0,-85.0,-262.0,32.0,21.0,1
3.0,-238.0,-85.0,-258.0,34.0,21.0,1
1.0,-235.0,-86.0,-249.0,33.0,25.0,1
-1.0,-235.0,-85.0,-248.0,31.0,24.0,1
-1.0,-238.0,-87.0,-248.0,28.0,29.0,1
1.0,-236.0,-88.0,-251.0,25.0,29.0,1
3.0,-237.0,-89.0,-255.0,23.0,34.0,1
1.0,-230.0,-90.0,-261.0,19.0,37.0,1
-1.0,-234.0,-87.0,-266.0,18.0,42.0,1
-2.0,-231.0,-87.0,-274.0,17.0,44.0,1
5.0,-217.0,-98.0,-284.0,16.0,50.0,1
-1.0,-229.0,-89.0,-291.0,15.0,51.0,1
0.0,-230.0,-91.0,-303.0,16.0,55.0,1
1.0,-227.0,-90.0,-313.0,17.0,55.0,1
1.0,-227.0,-92.0,-322.0,18.0,57.0,1
1.0,-228.0,-92.0,-334.0,19.0,54.0,1
3.0,-229.0,-95.0,-342.0,18.0,54.0,1
2.0,-231.0,-93.0,-351.0,18.0,51.0,1
2.0,-231.0,-95.0,-358.0,17.0,49.0,1
2.0,-232.0,-97.0,-365.0,16.0,44.0,1
-1.0,-230.0,-95.0,-366.0,14.0,40.0,1
0.0,-233.0,-93.0,-364.0,9.0,37.0,1
-1.0,-235.0,-95.0,-360.0,3.0,36.0,1
-2.0,-234.0,-97.0,-359.0,0.0,30.0,1
-3.0,-233.0,-99.0,-362.0,-4.0,26.0,1
-3.0,-234.0,-102.0,-365.0,-7.0,22.0,1
-4.0,-234.0,-104.0,-367.0,-9.0,18.0,1
-1.0,-232.0,-102.0,-369.0,-11.0,13.0,1
0.0,-234.0,-104.0,-377.0,-14.0,13.0,1
-2.0,-233.0,-106.0,-393.0,-15.0,11.0,1
-3.0,-229.0,-104.0,-408.0,-16.0,8.0,1
-4.0,-229.0,-106.0,-423.0,-18.0,5.0,1
-2.0,-226.0,-106.0,-442.0,-16.0,5.0,1
-1.0,-226.0,-108.0,-458.0,-13.0,2.0,1
-3.0,-227.0,-108.0,-474.0,-11.0,2.0,1
-2.0,-225.0,-110.0,-487.0,-12.0,-1.0,1
0.0,-227.0,-112.0,-497.0,-10.0,-2.0,1
0.0,-224.0,-112.0,-506.0,-6.0,-6.0,1
1.0,-224.0,-108.0,-514.0,-3.0,-8.0,1
0.0,-224.0,-113.0,-521.0,-1.0,-11.0,1
1.0,-224.0,-113.0,-528.0,6.0,-13.0,1
0.0,-225.0,-115.0,-531.0,9.0,-15.0,1
1.0,-228.0,-113.0,-532.0,14.0,-18.0,1
3.0,-227.0,-112.0,-529.0,13.0,-22.0,1
4.0,-224.0,-115.0,-524.0,11.0,-25.0,1
2.0,-220.0,-116.0,-519.0,8.0,-32.0,1
0.0,-219.0,-111.0,-514.0,5.0,-35.0,1
2.0,-221.0,-115.0,-517.0,6.0,-38.0,1
5.0,-221.0,-115.0,-530.0,5.0,-40.0,1
3.0,-218.0,-113.0,-538.0,5.0,-42.0,1
5.0,-217.0,-115.0,-542.0,4.0,-46.0,1
6.0,-219.0,-114.0,-546.0,3.0,-46.0,1
3.0,-216.0,-115.0,-554.0,-1.0,-45.0,1
4.0,-216.0,-113.0,-566.0,-2.0,-44.0,1
7.0,-214.0,-119.0,-578.0,-1.0,-45.0,1
8.0,-213.0,-118.0,-591.0,-1.0,-44.0,1
7.0,-212.0,-118.0,-605.0,-2.0,-43.0,1
9.0,-211.0,-121.0,-621.0,-4.0,-42.0,1
3.0,-208.0,-122.0,-641.0,-6.0,-44.0,1
4.0,-206.0,-122.0,-660.0,-3.0,-44.0,1
3.0,-205.0,-126.0,-682.0,-3.0,-48.0,1
3.0,-207.0,-123.0,-709.0,-2.0,-53.0,1
-2.0,-202.0,-122.0,-736.0,1.0,-59.0,1
1.0,-201.0,-123.0,-755.0,-2.0,-60.0,1
1.0,-201.0,-123.0,-762.0,-6.0,-61.0,1
-4.0,-198.0,-121.0,-768.0,-8.0,-59.0,1
-1.0,-200.0,-121.0,-777.0,-8.0,-60.0,1
-5.0,-199.0,-122.0,-783.0,-8.0,-61.0,1
1.0,-199.0,-121.0,-788.0,-4.0,-64.0,1
-3.0,-203.0,-123.0,-789.0,4.0,-67.0,1
-1.0,-202.0,-121.0,-790.0,10.0,-73.0,1
2.0,-200.0,-123.0,-793.0,17.0,-75.0,1
4.0,-202.0,-128.0,-794.0,20.0,-76.0,1
7.0,-200.0,-134.0,-799.0,21.0,-76.0,1
4.0,-200.0,-135.0,-803.0,25.0,-78.0,1
6.0,-202.0,-135.0,-809.0,32.0,-77.0,1
7.0,-200.0,-136.0,-811.0,37.0,-78.0,1
9.0,-200.0,-139.0,-806.0,40.0,-74.0,1
8.0,-196.0,-135.0,-798.0,47.0,-75.0,1
3.0,-196.0,-133.0,-784.0,51.0,-69.0,1
6.0,-198.0,-133.0,-774.0,51.0,-61.0,1
2.0,-196.0,-136.0,-768.0,50.0,-52.0,1
2.0,-197.0,-139.0,-768.0,46.0,-41.0,1
4.0,-197.0,-140.0,-769.0,44.0,-34.0,1
8.0,-198.0,-140.0,-772.0,42.0,-32.0,1
6.0,-197.0,-142.0,-775.0,46.0,-33.0,1
8.0,-199.0,-143.0,-780.0,49.0,-37.0,1
4.0,-194.0,-142.0,-789.0,58.0,-44.0,1
1.0,-195.0,-143.0,-796.0,67.0,-45.0,1
2.0,-194.0,-142.0,-800.0,75.0,-39.0,1
1.0,-194.0,-139.0,-803.0,82.0,-38.0,1
2.0,-196.0,-144.0,-806.0,87.0,-34.0,1
1.0,-197.0,-138.0,-806.0,85.0,-29.0,1
-5.0,-195.0,-138.0,-801.0,84.0,-23.0,1
1.0,-197.0,-141.0,-796.0,78.0,-20.0,1
2.0,-195.0,-139.0,-794.0,77.0,-16.0,1
-1.0,-190.0,-140.0,-795.0,78.0,-16.0,1
0.0,-191.0,-145.0,-803.0,81.0,-15.0,1
-2.0,-189.0,-144.0,-813.0,85.0,-17.0,1
0.0,-187.0,-144.0,-823.0,86.0,-10.0,1
-3.0,-186.0,-147.0,-833.0,85.0,-3.0,1
-1.0,-190.0,-144.0,-839.0,83.0,8.0,1
-2.0,-192.0,-146.0,-843.0,78.0,19.0,1
-4.0,-193.0,-153.0,-840.0,75.0,27.0,1
0.0,-192.0,-156.0,-839.0,73.0,28.0,1
-3.0,-191.0,-156.0,-843.0,71.0,27.0,1
-5.0,-192.0,-155.0,-853.0,69.0,23.0,1
-4.0,-194.0,-159.0,-862.0,65.0,25.0,1
-5.0,-194.0,-162.0,-871.0,62.0,21.0,1
-8.0,-197.0,-160.0,-880.0,62.0,23.0,1
-7.0,-194.0,-155.0,-889.0,57.0,13.0,1
-8.0,-196.0,-162.0,-890.0,54.0,11.0,1
-8.0,-194.0,-157.0,-886.0,47.0,8.0,1
-10.0,-196.0,-158.0,-868.0,38.0,9.0,1
-9.0,-189.0,-165.0,-854.0,31.0,1.0,1
-7.0,-183.0,-163.0,-840.0,25.0,2.0,1
-2.0,-181.0,-169.0,-835.0,18.0,-3.0,1
-6.0,-177.0,-166.0,-840.0,13.0,-5.0,1
-8.0,-176.0,-171.0,-849.0,8.0,-5.0,1
-4.0,-175.0,-172.0,-865.0,1.0,0.0,1
-1.0,-176.0,-172.0,-892.0,-3.0,-7.0,1
-1.0,-175.0,-180.0,-920.0,-4.0,-7.0,1
-4.0,-174.0,-179.0,-938.0,0.0,-7.0,1
-5.0,-175.0,-184.0,-960.0,4.0,-2.0,1
-3.0,-179.0,-187.0,-981.0,11.0,0.0,1
-4.0,-178.0,-186.0,-1001.0,18.0,4.0,1
-3.0,-186.0,-186.0,-1025.0,24.0,6.0,1
-2.0,-191.0,-190.0,-1050.0,28.0,15.0,1
-1.0,-194.0,-187.0,-1068.0,33.0,21.0,1
-2.0,-201.0,-189.0,-1070.0,36.0,24.0,1
-1.0,-190.0,-190.0,-1071.0,39.0,6.0,1
2.0,-188.0,-186.0,-1049.0,39.0,16.0,1
3.0,-185.0,-191.0,-1025.0,43.0,21.0,1
4.0,-181.0,-191.0,-998.0,48.0,22.0,1
7.0,-178.0,-188.0,-972.0,53.0,18.0,1
3.0,-172.0,-189.0,-952.0,54.0,17.0,1
-2.0,-171.0,-198.0,-944.0,54.0,18.0,1
4.0,-170.0,-197.0,-941.0,52.0,21.0,1
0.0,-167.0,-200.0,-936.0,48.0,16.0,1
-4.0,-165.0,-204.0,-938.0,44.0,16.0,1
-3.0,-165.0,-203.0,-943.0,42.0,17.0,1
-2.0,-174.0,-211.0,-952.0,39.0,24.0,1
-4.0,-175.0,-213.0,-961.0,35.0,23.0,1
-8.0,-162.0,-229.0,-976.0,33.0,30.0,1
6.0,-170.0,-218.0,-996.0,33.0,33.0,1
0.0,-166.0,-214.0,-1012.0,34.0,40.0,1
0.0,-165.0,-203.0,-1028.0,33.0,32.0,1
8.0,-157.0,-214.0,-1048.0,39.0,19.0,1
9.0,-162.0,-212.0,-1052.0,40.0,31.0,1
3.0,-163.0,-217.0,-1054.0,44.0,37.0,1
2.0,-162.0,-214.0,-1054.0,52.0,30.0,1
3.0,-157.0,-212.0,-1045.0,63.0,31.0,1
0.0,-154.0,-212.0,-1044.0,78.0,27.0,1
3.0,-157.0,-212.0,-1050.0,93.0,29.0,1
2.0,-160.0,-204.0,-1059.0,108.0,28.0,1
-2.0,-150.0,-213.0,-1073.0,119.0,27.0,1
-5.0,-154.0,-213.0,-1087.0,127.0,13.0,1
-7.0,-152.0,-212.0,-1101.0,130.0,7.0,1
-1.0,-152.0,-218.0,-1104.0,131.0,8.0,1
-2.0,-155.0,-217.0,-1115.0,132.0,9.0,1
-8.0,-155.0,-219.0,-1128.0,130.0,9.0,1
-6.0,-151.0,-221.0,-1138.0,128.0,15.0,1
-8.0,-159.0,-221.0,-1149.0,125.0,-5.0,1
-13.0,-154.0,-224.0,-1170.0,118.0,-25.0,1
-10.0,-154.0,-221.0,-1183.0,112.0,-19.0,1
-11.0,-154.0,-218.0,-1176.0,96.0,-6.0,1
-10.0,-155.0,-226.0,-1166.0,86.0,-3.0,1
-5.0,-151.0,-225.0,-1157.0,80.0,0.0,1
-8.0,-148.0,-227.0,-1161.0,77.0,-7.0,1
-7.0,-149.0,-222.0,-1165.0,84.0,-2.0,1
-3.0,-148.0,-226.0,-1164.0,87.0,-11.0,1
-4.0,-147.0,-227.0,-1172.0,88.0,-9.0,1
-2.0,-137.0,-230.0,-1162.0,99.0,-27.0,1
-3.0,-137.0,-227.0,-1150.0,104.0,-24.0,1
-2.0,-134.0,-226.0,-1142.0,112.0,-18.0,1
-1.0,-136.0,-226.0,-1134.0,120.0,-9.0,1
3.0,-132.0,-230.0,-1125.0,131.0,-8.0,1
1.0,-142.0,-227.0,-1133.0,141.0,-12.0,1
5.0,-125.0,-229.0,-1153.0,150.0,-55.0,1
8.0,-129.0,-236.0,-1151.0,150.0,-45.0,1
9.0,-124.0,-231.0,-1175.0,149.0,-23.0,1
10.0,-123.0,-235.0,-1189.0,159.0,-29.0,1
7.0,-125.0,-228.0,-1203.0,159.0,-41.0,1
4.0,-135.0,-240.0,-1215.0,151.0,-44.0,1
8.0,-131.0,-239.0,-1248.0,143.0,-61.0,1
6.0,-129.0,-242.0,-1250.0,132.0,-36.0,1
3.0,-130.0,-246.0,-1254.0,126.0,-15.0,1
-3.0,-129.0,-248.0,-1279.0,117.0,9.0,1
-7.0,-127.0,-249.0,-1294.0,116.0,-3.0,1
-12.0,-113.0,-248.0,-1308.0,114.0,-16.0,1
-5.0,-116.0,-248.0,-1329.0,107.0,-18.0,1
-11.0,-109.0,-256.0,-1331.0,90.0,5.0,1
-8.0,-111.0,-254.0,-1356.0,80.0,35.0,1
-12.0,-108.0,-252.0,-1381.0,72.0,54.0,1
-13.0,-116.0,-258.0,-1382.0,70.0,37.0,1
-10.0,-95.0,-257.0,-1396.0,71.0,21.0,1
-7.0,-96.0,-262.0,-1402.0,64.0,33.0,1
-9.0,-101.0,-260.0,-1416.0,64.0,37.0,1
-9.0,-100.0,-264.0,-1432.0,66.0,32.0,1
-11.0,-95.0,-261.0,-1466.0,70.0,43.0,1
-6.0,-92.0,-257.0,-1488.0,76.0,8.0,1
-4.0,-90.0,-262.0,-1468.0,68.0,8.0,1
0.0,-92.0,-260.0,-1442.0,61.0,5.0,1
3.0,-88.0,-277.0,-1431.0,57.0,7.0,1
6.0,-85.0,-268.0,-1465.0,69.0,29.0,1
-2.0,-87.0,-270.0,-1498.0,87.0,10.0,1
7.0,-71.0,-267.0,-1540.0,106.0,-21.0,1
10.0,-71.0,-274.0,-1545.0,103.0,1.0,1
7.0,-73.0,-276.0,-1545.0,104.0,-1.0,1
12.0,-95.0,-285.0,-1561.0,111.0,0.0,1
2.0,-62.0,-284.0,-1629.0,118.0,-6.0,1
3.0,-63.0,-285.0,-1659.0,123.0,3.0,1
6.0,-59.0,-288.0,-1670.0,119.0,6.0,1
7.0,-69.0,-300.0,-1692.0,122.0,12.0,1
1.0,-51.0,-290.0,-1757.0,123.0,-2.0,1
9.0,-54.0,-298.0,-1785.0,134.0,-16.0,1
7.0,-49.0,-300.0,-1784.0,133.0,-8.0,1
6.0,-49.0,-305.0,-1785.0,139.0,-10.0,1
2.0,-43.0,-300.0,-1798.0,143.0,-40.0,1
10.0,-51.0,-306.0,-1812.0,155.0,-43.0,1
3.0,-46.0,-306.0,-1820.0,142.0,-1.0,1
4.0,-43.0,-302.0,-1801.0,155.0,-21.0,1
4.0,-46.0,-303.0,-1757.0,161.0,-36.0,1
-4.0,-36.0,-301.0,-1744.0,170.0,-68.0,1
6.0,-32.0,-299.0,-1718.0,172.0,-45.0,1
9.0,-37.0,-308.0,-1702.0,169.0,-10.0,1
-1.0,-25.0,-295.0,-1715.0,170.0,14.0,1
6.0,-23.0,-302.0,-1701.0,182.0,-14.0,1
8.0,-31.0,-304.0,-1686.0,193.0,-26.0,1
8.0,-8.0,-297.0,-1713.0,212.0,-71.0,1
16.0,-13.0,-305.0,-1711.0,213.0,-44.0,1
14.0,-11.0,-304.0,-1710.0,212.0,-25.0,1
27.0,-24.0,-305.0,-1727.0,227.0,12.0,1
15.0,-5.0,-297.0,-1746.0,241.0,7.0,1
3.0,-9.0,-295.0,-1759.0,268.0,-74.0,1
26.0,-2.0,-300.0,-1747.0,283.0,-84.0,1
18.0,-1.0,-303.0,-1715.0,277.0,-61.0,1
13.0,-3.0,-300.0,-1687.0,290.0,-55.0,1
16.0,-6.0,-304.0,-1666.0,304.0,-50.0,1
6.0,-2.0,-298.0,-1664.0,306.0,-38.0,1
3.0,21.0,-288.0,-1668.0,321.0,-108.0,1
8.0,11.0,-290.0,-1642.0,311.0,-88.0,1
3.0,12.0,-293.0,-1598.0,290.0,-83.0,1
2.0,13.0,-289.0,-1565.0,287.0,-83.0,1
2.0,11.0,-291.0,-1538.0,291.0,-83.0,1
-18.0,13.0,-292.0,-1527.0,292.0,-93.0,1
20.0,26.0,-284.0,-1542.0,296.0,-85.0,1
3.0,26.0,-285.0,-1534.0,280.0,-67.0,1
8.0,28.0,-280.0,-1510.0,291.0,-82.0,1
14.0,25.0,-281.0,-1487.0,299.0,-86.0,1
23.0,1.0,-287.0,-1480.0,304.0,-92.0,1
28.0,45.0,-273.0,-1500.0,319.0,-120.0,1
22.0,33.0,-271.0,-1490.0,315.0,-91.0,1
21.0,38.0,-275.0,-1485.0,325.0,-84.0,1
17.0,40.0,-272.0,-1473.0,334.0,-86.0,1
14.0,42.0,-273.0,-1462.0,339.0,-85.0,1
23.0,40.0,-269.0,-1464.0,344.0,-73.0,1
12.0,50.0,-270.0,-1468.0,343.0,-71.0,1
-3.0,55.0,-258.0,-1475.0,350.0,-91.0,1
12.0,53.0,-266.0,-1494.0,349.0,-102.0,1
2.0,52.0,-266.0,-1480.0,321.0,-71.0,1
2.0,54.0,-268.0,-1462.0,310.0,-61.0,1
0.0,57.0,-266.0,-1440.0,292.0,-59.0,1
10.0,48.0,-267.0,-1439.0,273.0,-42.0,1
-1.0,66.0,-265.0,-1454.0,252.0,-31.0,1
4.0,65.0,-264.0,-1446.0,239.0,-52.0,1
8.0,66.0,-259.0,-1427.0,224.0,-65.0,1
12.0,69.0,-257.0,-1408.0,217.0,-69.0,1
14.0,69.0,-260.0,-1399.0,211.0,-73.0,1
3.0,91.0,-256.0,-1419.0,215.0,-106.0,1
22.0,84.0,-253.0,-1424.0,215.0,-93.0,1
21.0,82.0,-253.0,-1423.0,211.0,-81.0,1
19.0,81.0,-250.0,-1422.0,220.0,-81.0,1
19.0,83.0,-254.0,-1420.0,229.0,-80.0,1
21.0,83.0,-255.0,-1425.0,238.0,-84.0,1
18.0,81.0,-253.0,-1432.0,248.0,-88.0,1
20.0,80.0,-254.0,-1435.0,252.0,-90.0,1
13.0,80.0,-254.0,-1429.0,253.0,-94.0,1
17.0,80.0,-254.0,-1414.0,251.0,-102.0,1
18.0,79.0,-252.0,-1395.0,250.0,-106.0,1
15.0,87.0,-253.0,-1389.0,248.0,-123.0,1
18.0,84.0,-255.0,-1368.0,239.0,-122.0,1
15.0,87.0,-253.0,-1346.0,233.0,-129.0,1
15.0,89.0,-258.0,-1310.0,226.0,-136.0,1
18.0,87.0,-256.0,-1272.0,221.0,-140.0,1
13.0,88.0,-254.0,-1229.0,212.0,-142.0,1
19.0,91.0,-249.0,-1191.0,202.0,-143.0,1
17.0,93.0,-247.0,-1153.0,194.0,-141.0,1
15.0,93.0,-248.0,-1119.0,185.0,-138.0,1
20.0,93.0,-252.0,-1090.0,175.0,-136.0,1
16.0,94.0,-247.0,-1063.0,169.0,-133.0,1
18.0,97.0,-247.0,-1040.0,165.0,-132.0,1
21.0,100.0,-246.0,-1015.0,163.0,-130.0,1
19.0,105.0,-243.0,-1003.0,165.0,-128.0,1
18.0,110.0,-239.0,-998.0,170.0,-127.0,1
18.0,112.0,-240.0,-998.0,175.0,-126.0,1
20.0,114.0,-240.0,-1003.0,178.0,-125.0,1
19.0,115.0,-235.0,-1017.0,180.0,-122.0,1
17.0,117.0,-239.0,-1031.0,177.0,-117.0,1
15.0,115.0,-243.0,-1044.0,175.0,-112.0,1
16.0,118.0,-238.0,-1052.0,169.0,-104.0,1
11.0,116.0,-240.0,-1053.0,162.0,-97.0,1
14.0,123.0,-241.0,-1058.0,155.0,-101.0,1
14.0,118.0,-245.0,-1045.0,138.0,-83.0,1
14.0,120.0,-246.0,-1032.0,129.0,-78.0,1
13.0,121.0,-244.0,-1020.0,119.0,-73.0,1
16.0,123.0,-245.0,-1010.0,112.0,-69.0,1
19.0,122.0,-246.0,-1006.0,111.0,-67.0,1
13.0,122.0,-248.0,-1001.0,112.0,-62.0,1
15.0,120.0,-243.0,-995.0,112.0,-55.0,1
19.0,118.0,-241.0,-989.0,110.0,-45.0,1
21.0,117.0,-246.0,-983.0,111.0,-34.0,1
25.0,117.0,-245.0,-974.0,107.0,-14.0,1
25.0,117.0,-242.0,-965.0,107.0,4.0,1
24.0,112.0,-237.0,-952.0,106.0,20.0,1
24.0,109.0,-229.0,-940.0,106.0,36.0,1
24.0,113.0,-235.0,-930.0,105.0,52.0,1
23.0,117.0,-236.0,-925.0,104.0,63.0,1
21.0,116.0,-233.0,-925.0,103.0,75.0,1
20.0,115.0,-228.0,-927.0,104.0,83.0,1
17.0,117.0,-224.0,-932.0,107.0,93.0,1
15.0,116.0,-227.0,-938.0,109.0,99.0,1
13.0,115.0,-225.0,-946.0,110.0,108.0,1
12.0,119.0,-225.0,-952.0,110.0,116.0,1
9.0,116.0,-224.0,-952.0,112.0,120.0,1
8.0,112.0,-227.0,-950.0,114.0,123.0,1
8.0,115.0,-225.0,-945.0,116.0,127.0,1
10.0,115.0,-228.0,-938.0,116.0,126.0,1
10.0,117.0,-221.0,-935.0,114.0,130.0,1
10.0,121.0,-220.0,-935.0,106.0,133.0,1
10.0,121.0,-219.0,-935.0,96.0,145.0,1
11.0,112.0,-219.0,-933.0,88.0,151.0,1
11.0,109.0,-218.0,-921.0,80.0,170.0,1
15.0,104.0,-214.0,-901.0,72.0,190.0,1
17.0,100.0,-215.0,-871.0,66.0,218.0,1
16.0,100.0,-216.0,-832.0,57.0,247.0,1
19.0,97.0,-218.0,-785.0,49.0,276.0,1
19.0,95.0,-221.0,-732.0,43.0,298.0,1
16.0,93.0,-219.0,-675.0,38.0,315.0,1
15.0,96.0,-229.0,-620.0,35.0,322.0,1
14.0,97.0,-225.0,-567.0,31.0,329.0,1
10.0,100.0,-228.0,-516.0,27.0,331.0,1
8.0,99.0,-235.0,-452.0,17.0,338.0,1
9.0,101.0,-237.0,-398.0,8.0,342.0,1
8.0,107.0,-238.0,-351.0,-6.0,348.0,1
10.0,109.0,-238.0,-302.0,-21.0,352.0,1
16.0,109.0,-242.0,-260.0,-35.0,363.0,1
14.0,112.0,-248.0,-224.0,-50.0,362.0,1
22.0,111.0,-249.0,-189.0,-68.0,374.0,1
17.0,113.0,-251.0,-155.0,-94.0,389.0,1
23.0,110.0,-247.0,-121.0,-124.0,411.0,1
22.0,110.0,-243.0,-80.0,-158.0,440.0,1
23.0,109.0,-246.0,-27.0,-195.0,466.0,1
25.0,108.0,-245.0,15.0,-228.0,492.0,1
23.0,102.0,-243.0,46.0,-251.0,520.0,1
19.0,101.0,-243.0,75.0,-268.0,534.0,1
17.0,93.0,-242.0,99.0,-280.0,542.0,1
16.0,81.0,-233.0,114.0,-286.0,533.0,1
22.0,70.0,-231.0,134.0,-286.0,530.0,1
25.0,54.0,-225.0,166.0,-264.0,519.0,1
24.0,40.0,-208.0,223.0,-239.0,506.0,1
18.0,12.0,-199.0,331.0,-222.0,490.0,1
20.0,-3.0,-197.0,479.0,-205.0,497.0,1
19.0,-15.0,-196.0,608.0,-189.0,488.0,1
24.0,-21.0,-197.0,721.0,-183.0,495.0,1
19.0,-23.0,-190.0,810.0,-184.0,505.0,1
20.0,-29.0,-185.0,864.0,-191.0,537.0,1
15.0,-27.0,-168.0,899.0,-185.0,563.0,1
15.0,-37.0,-149.0,935.0,-184.0,602.0,1
19.0,-57.0,-137.0,967.0,-156.0,646.0,1
22.0,-67.0,-117.0,984.0,-124.0,682.0,1
22.0,-67.0,-117.0,991.0,-115.0,681.0,1
29.0,-75.0,-120.0,973.0,-105.0,687.0,1
26.0,-78.0,-124.0,912.0,-98.0,658.0,1
17.0,-83.0,-116.0,826.0,-67.0,615.0,1
18.0,-107.0,-93.0,766.0,-3.0,585.0,1
14.0,-129.0,-63.0,792.0,92.0,574.0,1
9.0,-140.0,-47.0,892.0,209.0,605.0,1
-3.0,-134.0,-36.0,1021.0,321.0,636.0,1
2.0,-124.0,-25.0,1117.0,421.0,658.0,1
-2.0,-104.0,1.0,1140.0,536.0,661.0,1
-4.0,-84.0,20.0,1119.0,631.0,648.0,1
-12.0,-74.0,45.0,1072.0,678.0,638.0,1
-10.0,-78.0,70.0,1043.0,683.0,615.0,1
-20.0,-80.0,84.0,1033.0,691.0,586.0,1
-24.0,-75.0,89.0,1027.0,693.0,541.0,1
-32.0,-74.0,87.0,1023.0,700.0,515.0,1
-36.0,-74.0,80.0,1020.0,699.0,499.0,1
-37.0,-68.0,63.0,1033.0,686.0,500.0,1
-36.0,-66.0,49.0,1061.0,679.0,505.0,1
-42.0,-49.0,31.0,1095.0,704.0,524.0,1
-42.0,-32.0,32.0,1131.0,763.0,580.0,1
-33.0,-17.0,39.0,1193.0,858.0,651.0,1
-22.0,-1.0,60.0,1279.0,940.0,723.0,1
-12.0,13.0,66.0,1399.0,993.0,803.0,1
1.0,24.0,76.0,1510.0,1019.0,830.0,1
6.0,35.0,78.0,1610.0,1020.0,832.0,1
16.0,44.0,79.0,1704.0,1011.0,805.0,1
38.0,54.0,80.0,1798.0,1015.0,785.0,1
45.0,61.0,70.0,1919.0,1044.0,742.0,1
61.0,68.0,41.0,2046.0,1103.0,715.0,1
68.0,72.0,14.0,2170.0,1229.0,673.0,1
80.0,79.0,-24.0,2305.0,1457.0,657.0,1
84.0,86.0,-47.0,2398.0,1677.0,658.0,1
92.0,82.0,-56.0,2485.0,1872.0,677.0,1
103.0,82.0,-69.0,2570.0,2035.0,709.0,1
109.0,79.0,-80.0,2664.0,2127.0,750.0,1
131.0,83.0,-103.0,2731.0,2128.0,788.0,1
149.0,90.0,-158.0,2724.0,2074.0,803.0,1
171.0,108.0,-201.0,2592.0,2001.0,810.0,1
176.0,131.0,-211.0,2359.0,1922.0,808.0,1
189.0,151.0,-221.0,2131.0,1831.0,805.0,1
206.0,162.0,-247.0,1937.0,1751.0,853.0,1
214.0,177.0,-278.0,1819.0,1754.0,902.0,1
237.0,185.0,-299.0,1726.0,1835.0,974.0,1
247.0,207.0,-316.0,1672.0,1979.0,1035.0,1
262.0,217.0,-323.0,1645.0,2142.0,1084.0,1
268.0,229.0,-326.0,1659.0,2295.0,1117.0,1
272.0,237.0,-322.0,1721.0,2426.0,1155.0,1
267.0,237.0,-321.0,1806.0,2529.0,1202.0,1
254.0,236.0,-306.0,1884.0,2606.0,1298.0,1
244.0,239.0,-303.0,1968.0,2680.0,1465.0,1
232.0,240.0,-298.0,2102.0,2706.0,1626.0,1
441.0,386.0,-223.0,2213.0,2666.0,1706.0,1
1320.0,1052.0,-490.0,3571.0,-292.0,766.0,1
2242.0,766.0,-1028.0,5319.0,-7148.0,-1660.0,1
-1558.0,2543.0,-1890.0,7089.0,-5623.0,-1003.0,1
-1752.0,2224.0,-777.0,2540.0,2739.0,-1164.0,1
738.0,231.0,411.0,-752.0,6737.0,607.0,1
288.0,42.0,242.0,133.0,6060.0,867.0,1
888.0,611.0,-907.0,-669.0,3194.0,437.0,1
1079.0,624.0,-1188.0,-1579.0,791.0,4.0,1
1116.0,670.0,-1593.0,-1471.0,-547.0,-348.0,1
1094.0,609.0,-1983.0,-1723.0,-1728.0,-508.0,1
998.0,433.0,-1758.0,-2469.0,-1620.0,-690.0,1
740.0,28.0,-1309.0,-2982.0,-743.0,-1067.0,1
452.0,-546.0,-945.0,-2647.0,79.0,-1414.0,1
-364.0,-813.0,-954.0,-974.0,827.0,-1315.0,1
-314.0,-777.0,-1050.0,941.0,1662.0,20.0,1
-149.0,-631.0,-878.0,1541.0,2445.0,785.0,1
-209.0,-656.0,-421.0,1481.0,2866.0,539.0,1
-275.0,-515.0,-180.0,1717.0,2534.0,-254.0,1
-190.0,-346.0,80.0,1868.0,1760.0,-495.0,1
29.0,-73.0,345.0,1922.0,409.0,-543.0,1
72.0,115.0,350.0,2190.0,-1337.0,-453.0,1
161.0,309.0,82.0,2475.0,-3092.0,-15.0,1
212.0,423.0,-184.0,2427.0,-4266.0,668.0,1
257.0,480.0,-375.0,1942.0,-4698.0,1424.0,1
360.0,566.0,-419.0,1000.0,-4448.0,2114.0,1
414.0,638.0,-362.0,-77.0,-3861.0,2279.0,1
444.0,706.0,-272.0,-883.0,-2908.0,1815.0,1
517.0,730.0,-177.0,-1305.0,-1490.0,835.0,1
569.0,736.0,-125.0,-1211.0,-539.0,-50.0,1
609.0,709.0,-87.0,-907.0,-18.0,-824.0,1
587.0,618.0,-60.0,-619.0,169.0,-1430.0,1
485.0,529.0,-32.0,-492.0,216.0,-1778.0,1
397.0,411.0,7.0,-468.0,326.0,-1734.0,1
346.0,303.0,31.0,-455.0,483.0,-1374.0,1
276.0,164.0,43.0,-470.0,627.0,-892.0,1
170.0,24.0,47.0,-560.0,740.0,-445.0,1
98.0,-101.0,37.0,-716.0,759.0,41.0,1
-11.0,-206.0,35.0,-965.0,721.0,375.0,1
-77.0,-272.0,22.0,-1154.0,628.0,670.0,1
-126.0,-327.0,11.0,-1281.0,515.0,856.0,1
-124.0,-350.0,-30.0,-1280.0,361.0,909.0,1
-163.0,-350.0,-60.0,-1289.0,321.0,738.0,1
-173.0,-328.0,-67.0,-1241.0,425.0,516.0,1
-167.0,-280.0,-77.0,-1028.0,534.0,229.0,1
-137.0,-209.0,-89.0,-676.0,584.0,-65.0,1
-95.0,-141.0,-75.0,-320.0,636.0,-291.0,1
-65.0,-75.0,-56.0,-17.0,669.0,-499.0,1
-38.0,5.0,-35.0,295.0,592.0,-635.0,1
-7.0,66.0,-33.0,500.0,439.0,-721.0,1
32.0,144.0,-32.0,638.0,251.0,-744.0,1
66.0,221.0,-39.0,702.0,61.0,-684.0,1
99.0,280.0,-40.0,695.0,-105.0,-551.0,1
141.0,313.0,-50.0,648.0,-213.0,-364.0,1
160.0,320.0,-66.0,543.0,-265.0,-168.0,1
181.0,318.0,-98.0,370.0,-281.0,65.0,1
266.0,322.0,-23.0,199.0,-339.0,251.0,1
207.0,296.0,-178.0,905.0,-1062.0,633.0,1
294.0,215.0,-157.0,1320.0,-1077.0,950.0,1
327.0,240.0,-207.0,1773.0,-1323.0,993.0,1
276.0,153.0,-258.0,2053.0,-1823.0,797.0,1
114.0,65.0,-234.0,2031.0,-1732.0,853.0,1
34.0,1.0,-216.0,1789.0,-1494.0,873.0,1
-34.0,-12.0,-211.0,1329.0,-1500.0,704.0,1
34.0,47.0,-257.0,659.0,-1735.0,429.0,1
53.0,-46.0,-332.0,66.0,-1680.0,398.0,1
49.0,-12.0,-311.0,170.0,-1094.0,323.0,1
112.0,10.0,-230.0,115.0,-679.0,138.0,1
172.0,46.0,-265.0,-231.0,-626.0,70.0,1
180.0,53.0,-366.0,-242.0,-641.0,54.0,1
178.0,52.0,-382.0,-136.0,-566.0,72.0,1
194.0,54.0,-400.0,-8.0,-509.0,114.0,1
190.0,43.0,-410.0,70.0,-472.0,127.0,1
187.0,21.0,-391.0,145.0,-448.0,123.0,1
194.0,37.0,-375.0,169.0,-472.0,108.0,1
207.0,26.0,-393.0,118.0,-574.0,98.0,1
181.0,32.0,-403.0,67.0,-633.0,79.0,1
170.0,35.0,-405.0,35.0,-643.0,51.0,1
169.0,30.0,-395.0,16.0,-613.0,34.0,1
166.0,27.0,-384.0,24.0,-561.0,26.0,1
154.0,35.0,-364.0,46.0,-501.0,4.0,1
144.0,31.0,-333.0,71.0,-434.0,-10.0,1
130.0,29.0,-301.0,98.0,-373.0,-19.0,1
116.0,25.0,-275.0,134.0,-328.0,-23.0,1
113.0,29.0,-255.0,158.0,-300.0,-24.0,1
104.0,24.0,-246.0,174.0,-286.0,-22.0,1
106.0,20.0,-241.0,202.0,-290.0,-14.0,1
99.0,26.0,-238.0,233.0,-306.0,-5.0,1
91.0,31.0,-235.0,263.0,-319.0,6.0,1
92.0,29.0,-237.0,277.0,-333.0,20.0,1
94.0,34.0,-230.0,297.0,-338.0,34.0,1
88.0,35.0,-227.0,313.0,-342.0,54.0,1
89.0,37.0,-222.0,327.0,-345.0,61.0,1
92.0,40.0,-224.0,335.0,-350.0,74.0,1
86.0,35.0,-223.0,336.0,-349.0,84.0,1
89.0,34.0,-222.0,336.0,-352.0,91.0,1
91.0,36.0,-223.0,335.0,-355.0,89.0,1
94.0,27.0,-227.0,323.0,-355.0,73.0,1
97.0,22.0,-227.0,319.0,-355.0,52.0,1
98.0,24.0,-223.0,325.0,-354.0,35.0,1
92.0,23.0,-222.0,317.0,-358.0,17.0,1
98.0,10.0,-226.0,309.0,-362.0,3.0,1
97.0,3.0,-232.0,311.0,-363.0,-12.0,1
88.0,15.0,-234.0,303.0,-359.0,-31.0,1
89.0,18.0,-217.0,290.0,-342.0,-36.0,1
90.0,5.0,-223.0,296.0,-336.0,-22.0,1
82.0,1.0,-239.0,303.0,-340.0,-12.0,1
79.0,4.0,-226.0,261.0,-346.0,7.0,1
65.0,37.0,-229.0,265.0,-344.0,26.0,1
75.0,-9.0,-220.0,276.0,-379.0,53.0,1
80.0,0.0,-246.0,245.0,-395.0,37.0,1
76.0,10.0,-238.0,187.0,-390.0,32.0,1
72.0,5.0,-226.0,151.0,-392.0,38.0,1
87.0,-8.0,-246.0,188.0,-408.0,55.0,1
95.0,1.0,-271.0,195.0,-415.0,66.0,1
81.0,2.0,-270.0,155.0,-395.0,63.0,1
94.0,18.0,-280.0,136.0,-360.0,62.0,1
71.0,7.0,-278.0,118.0,-310.0,59.0,1
75.0,4.0,-275.0,95.0,-284.0,60.0,1
73.0,5.0,-264.0,78.0,-266.0,54.0,1
81.0,21.0,-276.0,73.0,-274.0,54.0,1
74.0,-6.0,-273.0,66.0,-279.0,53.0,1
77.0,4.0,-267.0,42.0,-263.0,51.0,1
74.0,5.0,-279.0,23.0,-253.0,52.0,1
77.0,2.0,-280.0,6.0,-240.0,51.0,1
76.0,6.0,-277.0,-8.0,-227.0,45.0,1
79.0,6.0,-275.0,-20.0,-218.0,39.0,1
81.0,8.0,-280.0,-32.0,-208.0,35.0,1
73.0,4.0,-267.0,-41.0,-202.0,33.0,1
77.0,7.0,-273.0,-34.0,-197.0,31.0,1
74.0,8.0,-271.0,-35.0,-186.0,28.0,1
77.0,10.0,-278.0,-40.0,-167.0,25.0,1
74.0,10.0,-277.0,-40.0,-140.0,22.0,1
76.0,7.0,-278.0,-40.0,-115.0,20.0,1
79.0,8.0,-275.0,-45.0,-93.0,21.0,1
72.0,11.0,-278.0,-42.0,-71.0,10.0,1
78.0,10.0,-277.0,-36.0,-48.0,7.0,1
80.0,9.0,-276.0,-37.0,-16.0,3.0,1
83.0,9.0,-271.0,-40.0,8.0,-3.0,1
78.0,11.0,-269.0,-45.0,31.0,-8.0,1
80.0,12.0,-270.0,-52.0,52.0,-11.0,1
76.0,12.0,-268.0,-61.0,70.0,-18.0,1
77.0,15.0,-267.0,-68.0,84.0,-19.0,1
78.0,18.0,-263.0,-76.0,97.0,-24.0,1
79.0,11.0,-257.0,-81.0,107.0,-27.0,1
76.0,11.0,-255.0,-83.0,116.0,-31.0,1
77.0,13.0,-254.0,-83.0,122.0,-30.0,1
76.0,11.0,-253.0,-81.0,130.0,-32.0,1
78.0,14.0,-254.0,-79.0,134.0,-31.0,1
74.0,16.0,-251.0,-79.0,137.0,-32.0,1
75.0,16.0,-252.0,-77.0,140.0,-31.0,1
76.0,16.0,-254.0,-75.0,143.0,-32.0,1
73.0,16.0,-256.0,-71.0,145.0,-30.0,1
77.0,14.0,-251.0,-67.0,144.0,-31.0,1
77.0,16.0,-249.0,-65.0,144.0,-27.0,1
78.0,17.0,-247.0,-59.0,141.0,-29.0,1
76.0,17.0,-253.0,-55.0,137.0,-25.0,1
76.0,17.0,-249.0,-47.0,133.0,-24.0,1
77.0,18.0,-250.0,-43.0,130.0,-21.0,1
74.0,16.0,-246.0,-38.0,125.0,-21.0,1
76.0,17.0,-245.0,-34.0,122.0,-17.0,1
77.0,17.0,-247.0,-29.0,118.0,-17.0,1
76.0,18.0,-245.0,-26.0,111.0,-13.0,1
74.0,17.0,-247.0,-23.0,105.0,-13.0,1
77.0,18.0,-247.0,-19.0,100.0,-9.0,1
77.0,15.0,-248.0,-15.0,93.0,-9.0,1
75.0,20.0,-247.0,-13.0,85.0,-5.0,1
77.0,18.0,-253.0,-8.0,78.0,-6.0,1
78.0,16.0,-251.0,-7.0,74.0,-3.0,1
79.0,16.0,-253.0,-4.0,70.0,-3.0,1
77.0,19.0,-252.0,-1.0,68.0,1.0,1
76.0,15.0,-252.0,0.0,64.0,-1.0,1
80.0,16.0,-252.0,2.0,60.0,1.0,1
77.0,17.0,-254.0,5.0,57.0,-1.0,1
79.0,17.0,-249.0,5.0,53.0,2.0,1
80.0,16.0,-250.0,7.0,49.0,1.0,1
78.0,14.0,-251.0,9.0,44.0,2.0,1
80.0,15.0,-249.0,9.0,40.0,2.0,1
79.0,13.0,-253.0,6.0,38.0,1.0,1
78.0,16.0,-257.0,5.0,39.0,0.0,1
79.0,14.0,-253.0,2.0,38.0,1.0,1
80.0,16.0,-251.0,1.0,40.0,-2.0,1
79.0,14.0,-256.0,-1.0,41.0,-1.0,1
77.0,14.0,-255.0,-2.0,42.0,-3.0,1
79.0,15.0,-257.0,-4.0,43.0,-2.0,1
81.0,12.0,-252.0,-5.0,43.0,-5.0,1
79.0,12.0,-256.0,-6.0,42.0,-3.0,1
76.0,13.0,-256.0,-7.0,40.0,-5.0,1
78.0,12.0,-252.0,-7.0,38.0,-4.0,1
77.0,15.0,-251.0,-6.0,39.0,-5.0,1
81.0,14.0,-254.0,-8.0,37.0,-4.0,1
79.0,16.0,-254.0,-8.0,36.0,-5.0,1
79.0,12.0,-257.0,-9.0,35.0,-3.0,1
77.0,16.0,-257.0,-10.0,34.0,-6.0,1
80.0,11.0,-256.0,-10.0,32.0,-3.0,1
75.0,14.0,-256.0,-11.0,30.0,-6.0,1
76.0,14.0,-256.0,-13.0,30.0,-5.0,1
76.0,15.0,-253.0,-16.0,29.0,-7.0,1
80.0,12.0,-256.0,-18.0,28.0,-5.0,1
73.0,14.0,-256.0,-21.0,25.0,-8.0,1
77.0,13.0,-254.0,-24.0,26.0,-6.0,1
78.0,12.0,-254.0,-25.0,25.0,-9.0,1
78.0,13.0,-252.0,-23.0,23.0,-4.0,1
77.0,13.0,-251.0,-24.0,22.0,-7.0,1
79.0,14.0,-252.0,-25.0,21.0,-3.0,1
76.0,14.0,-253.0,-22.0,19.0,-4.0,1
75.0,13.0,-252.0,-20.0,16.0,-2.0,1
76.0,14.0,-258.0,-17.0,14.0,-3.0,1
77.0,13.0,-253.0,-17.0,14.0,-1.0,1
75.0,15.0,-257.0,-17.0,12.0,-4.0,1
77.0,16.0,-251.0,-20.0,13.0,-2.0,1
73.0,14.0,-250.0,-23.0,11.0,-5.0,1
74.0,16.0,-248.0,-25.0,13.0,-3.0,1
73.0,13.0,-247.0,-27.0,14.0,-5.0,1
76.0,11.0,-251.0,-26.0,14.0,-2.0,1
73.0,16.0,-254.0,-20.0,13.0,-2.0,1
75.0,13.0,-253.0,-16.0,14.0,2.0,1
75.0,12.0,-254.0,-14.0,15.0,1.0,1
76.0,15.0,-253.0,-13.0,17.0,4.0,1
77.0,16.0,-255.0,-15.0,22.0,0.0,1
75.0,13.0,-252.0,-17.0,22.0,2.0,1
76.0,13.0,-251.0,-20.0,21.0,-2.0,1
76.0,15.0,-255.0,-24.0,20.0,1.0,1
77.0,11.0,-254.0,-26.0,18.0,-4.0,1
74.0,15.0,-251.0,-26.0,19.0,-2.0,1
77.0,13.0,-254.0,-27.0,18.0,-4.0,1
74.0,17.0,-254.0,-26.0,18.0,-2.0,1
72.0,14.0,-252.0,-27.0,17.0,-4.0,1
79.0,16.0,-256.0,-28.0,17.0,-3.0,1
74.0,14.0,-253.0,-29.0,16.0,-5.0,1
73.0,16.0,-254.0,-26.0,16.0,-3.0,1
79.0,16.0,-255.0,-26.0,17.0,-6.0,1
75.0,14.0,-254.0,-24.0,18.0,-3.0,1
74.0,14.0,-256.0,-22.0,20.0,-4.0,1
73.0,12.0,-250.0,-21.0,20.0,-3.0,1
75.0,16.0,-256.0,-18.0,22.0,-5.0,1
74.0,16.0,-259.0,-14.0,25.0,-2.0,1
73.0,15.0,-254.0,-14.0,26.0,-5.0,1
74.0,17.0,-256.0,-13.0,27.0,-2.0,1
74.0,17.0,-257.0,-13.0,27.0,-5.0,1
73.0,13.0,-257.0,-12.0,28.0,-2.0,1
73.0,14.0,-256.0,-11.0,30.0,-5.0,1
75.0,16.0,-254.0,-12.0,33.0,-2.0,1
77.0,16.0,-255.0,-12.0,36.0,-4.0,1
72.0,12.0,-263.0,-12.0,40.0,-3.0,1
74.0,16.0,-255.0,-14.0,40.0,-4.0,1
73.0,15.0,-258.0,-14.0,44.0,-3.0,1
77.0,11.0,-254.0,-13.0,45.0,-4.0,1
74.0,14.0,-255.0,-14.0,49.0,-1.0,1
73.0,15.0,-253.0,-14.0,51.0,-4.0,1
74.0,15.0,-252.0,-14.0,53.0,-2.0,1
71.0,16.0,-252.0,-14.0,54.0,-5.0,1
72.0,14.0,-251.0,-15.0,54.0,-3.0,1
75.0,12.0,-255.0,-16.0,54.0,-6.0,1
75.0,15.0,-255.0,-14.0,54.0,-3.0,1
74.0,16.0,-253.0,-14.0,53.0,-6.0,1
75.0,17.0,-256.0,-14.0,51.0,-4.0,1
75.0,11.0,-252.0,-13.0,51.0,-5.0,1
75.0,15.0,-258.0,-11.0,49.0,-3.0,1
73.0,13.0,-250.0,-10.0,50.0,-5.0,1
73.0,15.0,-253.0,-13.0,49.0,-2.0,1
73.0,13.0,-256.0,-11.0,48.0,-4.0,1
74.0,14.0,-250.0,-13.0,48.0,-1.0,1
72.0,13.0,-251.0,-13.0,49.0,-3.0,1
73.0,12.0,-252.0,-14.0,49.0,-1.0,1
73.0,13.0,-255.0,-13.0,49.0,-4.0,1
75.0,14.0,-255.0,-13.0,48.0,-1.0,1
74.0,15.0,-254.0,-12.0,50.0,-3.0,1
75.0,13.0,-252.0,-11.0,49.0,-1.0,1
76.0,12.0,-254.0,-11.0,49.0,-4.0,1
76.0,14.0,-254.0,-10.0,48.0,-1.0,1
76.0,16.0,-255.0,-13.0,47.0,-3.0,1
74.0,14.0,-256.0,-11.0,48.0,0.0,1
72.0,15.0,-256.0,-13.0,47.0,-3.0,1
73.0,15.0,-254.0,-14.0,45.0,-1.0,1
73.0,15.0,-252.0,-14.0,45.0,-3.0,1
73.0,14.0,-255.0,-15.0,46.0,-1.0,1
75.0,17.0,-259.0,-17.0,48.0,-3.0,1
73.0,16.0,-258.0,-16.0,47.0,-2.0,1
72.0,13.0,-255.0,-16.0,49.0,-3.0,1
74.0,13.0,-255.0,-17.0,50.0,-2.0,1
74.0,18.0,-257.0,-18.0,49.0,-3.0,1
69.0,16.0,-252.0,-19.0,50.0,-2.0,1
74.0,13.0,-254.0,-20.0,50.0,-4.0,1
78.0,11.0,-254.0,-18.0,48.0,-1.0,1
75.0,13.0,-253.0,-18.0,48.0,-3.0,1
72.0,15.0,-257.0,-20.0,49.0,-2.0,1
71.0,14.0,-252.0,-19.0,49.0,-5.0,1
72.0,17.0,-256.0,-20.0,48.0,-2.0,1
74.0,15.0,-257.0,-20.0,47.0,-5.0,1
74.0,15.0,-252.0,-20.0,47.0,-3.0,1
73.0,16.0,-254.0,-18.0,46.0,-5.0,1
74.0,13.0,-255.0,-17.0,45.0,-2.0,1
75.0,13.0,-250.0,-17.0,43.0,-3.0,1
73.0,14.0,-257.0,-15.0,40.0,-2.0,1
72.0,16.0,-258.0,-15.0,39.0,-4.0,1
70.0,15.0,-254.0,-15.0,41.0,-2.0,1
71.0,15.0,-251.0,-16.0,39.0,-4.0,1
73.0,13.0,-252.0,-16.0,41.0,-1.0,1
74.0,15.0,-253.0,-14.0,41.0,-4.0,1
71.0,15.0,-256.0,-14.0,41.0,-2.0,1
72.0,14.0,-254.0,-16.0,42.0,-3.0,1
73.0,18.0,-252.0,-16.0,43.0,0.0,1
70.0,15.0,-253.0,-16.0,41.0,-3.0,1
71.0,17.0,-257.0,-14.0,41.0,-2.0,1
74.0,16.0,-251.0,-16.0,42.0,-3.0,1
72.0,17.0,-255.0,-15.0,42.0,-1.0,1
73.0,14.0,-253.0,-14.0,42.0,-3.0,1
74.0,15.0,-254.0,-13.0,41.0,-1.0,1
72.0,17.0,-253.0,-13.0,42.0,-3.0,1
72.0,13.0,-252.0,-12.0,43.0,-2.0,1
71.0,15.0,-257.0,-12.0,42.0,-4.0,1
72.0,12.0,-256.0,-12.0,43.0,-2.0,1
73.0,15.0,-253.0,-14.0,44.0,-3.0,1
72.0,16.0,-257.0,-15.0,45.0,-2.0,1
71.0,14.0,-253.0,-14.0,45.0,-4.0,1
72.0,13.0,-252.0,-15.0,45.0,-1.0,1
73.0,14.0,-254.0,-15.0,47.0,-3.0,1
73.0,15.0,-253.0,-15.0,48.0,-1.0,1
71.0,16.0,-254.0,-15.0,48.0,-2.0,1
72.0,17.0,-254.0,-15.0,47.0,0.0,1
73.0,14.0,-253.0,-15.0,47.0,-1.0,1
70.0,17.0,-252.0,-14.0,49.0,-2.0,1
73.0,12.0,-256.0,-14.0,50.0,-2.0,1
71.0,14.0,-250.0,-13.0,51.0,-1.0,1
72.0,16.0,-253.0,-13.0,49.0,-2.0,1
73.0,16.0,-256.0,-14.0,49.0,-2.0,1
72.0,17.0,-258.0,-15.0,50.0,-3.0,1
71.0,17.0,-251.0,-14.0,49.0,-2.0,1
71.0,13.0,-256.0,-15.0,49.0,-2.0,1
72.0,15.0,-253.0,-14.0,49.0,-2.0,1
73.0,14.0,-255.0,-13.0,50.0,-3.0,1
73.0,15.0,-254.0,-13.0,50.0,-3.0,1
75.0,14.0,-253.0,-12.0,49.0,-2.0,1
74.0,14.0,-254.0,-13.0,49.0,-2.0,1
74.0,16.0,-255.0,-13.0,49.0,-4.0,1
74.0,17.0,-250.0,-13.0,50.0,-2.0,1
73.0,14.0,-253.0,-14.0,49.0,-2.0,1
70.0,15.0,-254.0,-13.0,49.0,-1.0,1
72.0,16.0,-252.0,-13.0,48.0,-3.0,1
72.0,15.0,-255.0,-13.0,49.0,0.0,1
71.0,17.0,-253.0,-14.0,49.0,-1.0,1
74.0,13.0,-254.0,-14.0,49.0,-2.0,1
73.0,16.0,-254.0,-13.0,50.0,-3.0,1
73.0,11.0,-253.0,-13.0,50.0,-2.0,1
70.0,17.0,-253.0,-14.0,49.0,-3.0,1
73.0,15.0,-255.0,-14.0,48.0,-1.0,1
73.0,15.0,-254.0,-13.0,49.0,-3.0,1
71.0,14.0,-256.0,-14.0,48.0,-2.0,1
72.0,12.0,-254.0,-12.0,48.0,-2.0,1
73.0,14.0,-254.0,-14.0,47.0,-3.0,1
70.0,13.0,-255.0,-12.0,46.0,-3.0,1
72.0,15.0,-255.0,-11.0,45.0,-2.0,1
72.0,15.0,-254.0,-12.0,44.0,-1.0,1
73.0,13.0,-253.0,-11.0,44.0,-3.0,1
73.0,15.0,-252.0,-10.0,45.0,-3.0,1
70.0,17.0,-259.0,-12.0,44.0,-3.0,1
72.0,13.0,-254.0,-13.0,44.0,-3.0,1
71.0,14.0,-251.0,-12.0,45.0,-3.0,1
71.0,14.0,-258.0,-13.0,46.0,-2.0,1
75.0,13.0,-253.0,-15.0,46.0,-2.0,1
72.0,12.0,-253.0,-13.0,47.0,-3.0,1
75.0,14.0,-257.0,-13.0,47.0,-4.0,1
71.0,13.0,-252.0,-13.0,46.0,-3.0,1
68.0,17.0,-257.0,-14.0,47.0,-3.0,1
70.0,15.0,-254.0,-13.0,46.0,-3.0,1
67.0,15.0,-255.0,-12.0,46.0,-2.0,1
70.0,14.0,-254.0,-11.0,46.0,-2.0,1
72.0,16.0,-255.0,-12.0,47.0,-1.0,1
69.0,16.0,-251.0,-11.0,47.0,-1.0,1
69.0,11.0,-255.0,-13.0,48.0,-2.0,1
72.0,16.0,-254.0,-12.0,48.0,-1.0,1
69.0,15.0,-256.0,-14.0,48.0,-2.0,1
73.0,14.0,-256.0,-16.0,48.0,-1.0,1
70.0,14.0,-254.0,-16.0,47.0,-4.0,1
71.0,15.0,-252.0,-17.0,47.0,-2.0,1
70.0,19.0,-254.0,-18.0,48.0,-1.0,1
69.0,15.0,-254.0,-18.0,48.0,-2.0,1
74.0,14.0,-253.0,-19.0,47.0,-3.0,1
71.0,14.0,-254.0,-18.0,47.0,-2.0,1
69.0,13.0,-255.0,-16.0,49.0,-3.0,1
72.0,17.0,-253.0,-13.0,51.0,-1.0,1
73.0,14.0,-257.0,-11.0,51.0,-2.0,1
68.0,18.0,-256.0,-8.0,51.0,-1.0,1
71.0,13.0,-258.0,-7.0,51.0,-1.0,1
72.0,15.0,-254.0,-8.0,51.0,-1.0,1
71.0,14.0,-254.0,-8.0,51.0,-1.0,1
70.0,13.0,-257.0,-10.0,53.0,-2.0,1
72.0,15.0,-256.0,-13.0,53.0,-3.0,1
69.0,14.0,-254.0,-16.0,53.0,-3.0,1
70.0,15.0,-252.0,-19.0,52.0,-4.0,1
69.0,15.0,-250.0,-18.0,52.0,-1.0,1
72.0,14.0,-255.0,-14.0,52.0,-3.0,1
74.0,15.0,-256.0,-10.0,52.0,0.0,1
72.0,16.0,-257.0,-5.0,52.0,-1.0,1
73.0,14.0,-258.0,-4.0,53.0,0.0,1
71.0,14.0,-258.0,-6.0,54.0,-1.0,1
70.0,17.0,-257.0,-8.0,53.0,0.0,1
71.0,16.0,-256.0,-11.0,54.0,-2.0,1
70.0,16.0,-250.0,-15.0,54.0,-1.0,1
68.0,15.0,-252.0,-17.0,54.0,-2.0,1
71.0,14.0,-252.0,-18.0,54.0,-2.0,1
71.0,16.0,-256.0,-19.0,55.0,-4.0,1
68.0,16.0,-253.0,-18.0,54.0,-2.0,1
69.0,14.0,-255.0,-19.0,53.0,-3.0,1
69.0,17.0,-255.0,-18.0,52.0,-2.0,1
70.0,11.0,-254.0,-17.0,52.0,-3.0,1
71.0,28.0,-264.0,-17.0,52.0,-2.0,1
71.0,15.0,-252.0,-15.0,51.0,-3.0,1
71.0,14.0,-252.0,-15.0,51.0,-1.0,1
71.0,16.0,-251.0,-14.0,50.0,-4.0,1
70.0,16.0,-252.0,-14.0,49.0,-2.0,1
70.0,15.0,-254.0,-14.0,49.0,-2.0,1
72.0,14.0,-256.0,-13.0,48.0,-2.0,1
70.0,14.0,-252.0,-14.0,47.0,-2.0,1
71.0,17.0,-256.0,-14.0,45.0,0.0,1
72.0,15.0,-253.0,-15.0,45.0,-3.0,1
69.0,17.0,-258.0,-14.0,44.0,-1.0,1
67.0,14.0,-253.0,-14.0,46.0,-3.0,1
69.0,15.0,-251.0,-14.0,44.0,-2.0,1
70.0,15.0,-253.0,-13.0,45.0,-4.0,1
71.0,15.0,-255.0,-13.0,45.0,-1.0,1
71.0,15.0,-260.0,-13.0,46.0,-3.0,1
69.0,16.0,-255.0,-13.0,47.0,-1.0,1
68.0,14.0,-256.0,-14.0,47.0,-3.0,1
70.0,14.0,-256.0,-14.0,46.0,-1.0,1
72.0,15.0,-260.0,-13.0,47.0,-3.0,1
67.0,15.0,-258.0,-13.0,46.0,-1.0,1
73.0,15.0,-255.0,-13.0,48.0,-2.0,1
71.0,15.0,-253.0,-13.0,49.0,-1.0,1
69.0,15.0,-254.0,-14.0,51.0,-3.0,1
71.0,14.0,-256.0,-14.0,49.0,-1.0,1
70.0,13.0,-253.0,-15.0,51.0,-4.0,1
71.0,16.0,-256.0,-15.0,53.0,-2.0,1
72.0,14.0,-257.0,-14.0,53.0,-3.0,1
69.0,15.0,-258.0,-13.0,51.0,-1.0,1
72.0,14.0,-252.0,-12.0,52.0,-2.0,1
72.0,15.0,-257.0,-12.0,51.0,-2.0,1
72.0,14.0,-255.0,-12.0,53.0,-3.0,1
70.0,13.0,-254.0,-13.0,51.0,-2.0,1
68.0,13.0,-252.0,-13.0,52.0,-4.0,1
71.0,16.0,-259.0,-13.0,52.0,-1.0,1
70.0,14.0,-256.0,-14.0,51.0,-4.0,1
70.0,14.0,-255.0,-13.0,52.0,-1.0,1
70.0,15.0,-253.0,-12.0,52.0,-3.0,1
68.0,18.0,-260.0,-10.0,54.0,-1.0,1
69.0,15.0,-252.0,-9.0,54.0,-4.0,1
71.0,13.0,-255.0,-9.0,55.0,-1.0,1
72.0,13.0,-255.0,-10.0,55.0,-3.0,1
69.0,15.0,-255.0,-9.0,55.0,-1.0,1
69.0,14.0,-254.0,-10.0,55.0,-4.0,1
70.0,14.0,-251.0,-12.0,56.0,-1.0,1
73.0,16.0,-250.0,-12.0,56.0,-4.0,1
72.0,15.0,-253.0,-12.0,57.0,0.0,1
68.0,15.0,-259.0,-14.0,58.0,-4.0,1
68.0,14.0,-255.0,-12.0,59.0,-1.0,1
68.0,13.0,-254.0,-14.0,59.0,-3.0,1
67.0,16.0,-252.0,-14.0,59.0,-1.0,1
71.0,14.0,-255.0,-14.0,58.0,-4.0,1
66.0,15.0,-257.0,-15.0,59.0,-1.0,1
69.0,16.0,-254.0,-15.0,59.0,-3.0,1
71.0,11.0,-252.0,-15.0,58.0,-2.0,1
67.0,17.0,-259.0,-15.0,57.0,-5.0,1
70.0,16.0,-255.0,-15.0,58.0,-2.0,1
71.0,12.0,-255.0,-16.0,57.0,-4.0,1
69.0,15.0,-253.0,-16.0,56.0,-2.0,1
71.0,15.0,-250.0,-15.0,56.0,-4.0,1
69.0,17.0,-257.0,-16.0,55.0,-1.0,1
72.0,15.0,-254.0,-15.0,55.0,-4.0,1
70.0,16.0,-257.0,-14.0,53.0,-1.0,1
72.0,16.0,-257.0,-14.0,54.0,-4.0,1
69.0,16.0,-252.0,-14.0,54.0,-1.0,1
71.0,16.0,-254.0,-13.0,54.0,-3.0,1
70.0,13.0,-254.0,-14.0,52.0,-1.0,1
71.0,16.0,-256.0,-13.0,54.0,-5.0,1
69.0,15.0,-253.0,-13.0,53.0,-1.0,1
70.0,15.0,-250.0,-15.0,53.0,-3.0,1
67.0,17.0,-256.0,-14.0,52.0,-2.0,1
72.0,17.0,-253.0,-14.0,52.0,-4.0,1
70.0,17.0,-254.0,-14.0,51.0,0.0,1
70.0,16.0,-255.0,-14.0,50.0,-3.0,1
70.0,11.0,-255.0,-14.0,50.0,-2.0,1
71.0,13.0,-254.0,-14.0,50.0,-4.0,1
72.0,15.0,-259.0,-13.0,52.0,-2.0,1
71.0,12.0,-257.0,-13.0,51.0,-5.0,1
71.0,12.0,-252.0,-13.0,50.0,-2.0,1
70.0,13.0,-255.0,-15.0,51.0,-4.0,1
69.0,15.0,-257.0,-14.0,51.0,-1.0,1
71.0,15.0,-254.0,-11.0,51.0,-3.0,1
71.0,14.0,-258.0,-14.0,51.0,-2.0,1
72.0,13.0,-254.0,-12.0,51.0,-4.0,1
69.0,14.0,-250.0,-12.0,50.0,-2.0,1
71.0,14.0,-261.0,-12.0,49.0,-3.0,1
70.0,11.0,-253.0,-13.0,48.0,-1.0,1
70.0,15.0,-256.0,-14.0,50.0,-5.0,1
71.0,14.0,-255.0,-14.0,50.0,-1.0,1
69.0,14.0,-251.0,-14.0,50.0,-3.0,1
69.0,15.0,-255.0,-14.0,51.0,0.0,1
70.0,15.0,-254.0,-15.0,50.0,-2.0,1
69.0,16.0,-256.0,-15.0,51.0,0.0,1
69.0,14.0,-254.0,-14.0,50.0,-2.0,1
70.0,14.0,-261.0,-13.0,51.0,-1.0,1
69.0,12.0,-256.0,-12.0,51.0,-3.0,1
70.0,16.0,-251.0,-13.0,51.0,-1.0,1
72.0,14.0,-259.0,-13.0,51.0,-4.0,1
67.0,17.0,-256.0,-13.0,51.0,-1.0,1
70.0,15.0,-254.0,-13.0,52.0,-4.0,1
70.0,11.0,-263.0,-14.0,51.0,-2.0,1
70.0,12.0,-249.0,-16.0,52.0,-4.0,1
68.0,15.0,-260.0,-15.0,52.0,-1.0,1
69.0,11.0,-255.0,-14.0,52.0,-4.0,1
70.0,16.0,-256.0,-14.0,54.0,-2.0,1
70.0,14.0,-259.0,-14.0,54.0,-6.0,1
70.0,15.0,-246.0,-15.0,56.0,-3.0,1
61.0,22.0,-256.0,-14.0,57.0,-7.0,1
79.0,21.0,-265.0,-15.0,59.0,-4.0,1
70.0,9.0,-248.0,-15.0,60.0,-6.0,1
74.0,20.0,-253.0,-17.0,60.0,-3.0,1
65.0,17.0,-247.0,-17.0,56.0,-5.0,1
63.0,12.0,-263.0,-16.0,54.0,-2.0,1
63.0,9.0,-249.0,-16.0,54.0,-4.0,1
77.0,23.0,-242.0,-16.0,56.0,-3.0,1
69.0,21.0,-259.0,-16.0,56.0,-5.0,1
68.0,19.0,-269.0,-15.0,55.0,-2.0,1
72.0,19.0,-249.0,-14.0,56.0,-4.0,1
73.0,20.0,-257.0,-14.0,57.0,-2.0,1
66.0,17.0,-260.0,-13.0,58.0,-4.0,1
68.0,10.0,-248.0,-13.0,56.0,-3.0,1
61.0,7.0,-250.0,-13.0,56.0,-3.0,1
75.0,15.0,-251.0,-12.0,56.0,-1.0,1
68.0,15.0,-250.0,-13.0,56.0,-4.0,1
71.0,11.0,-259.0,-14.0,57.0,-2.0,1
57.0,12.0,-256.0,-13.0,57.0,-4.0,1
66.0,6.0,-263.0,-13.0,56.0,-2.0,1
68.0,16.0,-253.0,-13.0,56.0,-4.0,1
68.0,15.0,-255.0,-14.0,58.0,-1.0,1
70.0,14.0,-255.0,-13.0,58.0,-3.0,1
69.0,11.0,-253.0,-14.0,59.0,-1.0,1
69.0,7.0,-257.0,-15.0,58.0,-4.0,1
70.0,21.0,-256.0,-14.0,57.0,-2.0,1
68.0,20.0,-252.0,-12.0,58.0,-3.0,1
73.0,13.0,-254.0,-11.0,58.0,-2.0,1
65.0,21.0,-257.0,-11.0,58.0,-3.0,1
75.0,12.0,-244.0,-9.0,56.0,0.0,1
63.0,14.0,-263.0,-10.0,55.0,-3.0,1
63.0,13.0,-262.0,-11.0,54.0,-2.0,1
68.0,10.0,-225.0,-12.0,54.0,-4.0,1
78.0,10.0,-256.0,-13.0,53.0,-1.0,1
88.0,11.0,-269.0,-14.0,55.0,-3.0,1
67.0,25.0,-255.0,-14.0,55.0,-1.0,1
72.0,14.0,-256.0,-15.0,56.0,-3.0,1
68.0,11.0,-249.0,-15.0,57.0,-2.0,1
75.0,8.0,-248.0,-17.0,58.0,-3.0,1
69.0,10.0,-251.0,-18.0,57.0,-1.0,1
72.0,16.0,-264.0,-18.0,58.0,-3.0,1
69.0,17.0,-263.0,-17.0,57.0,-2.0,1
65.0,16.0,-255.0,-14.0,56.0,-4.0,1
65.0,18.0,-254.0,-12.0,55.0,-2.0,1
78.0,15.0,-265.0,-11.0,55.0,-2.0,1
66.0,17.0,-248.0,-9.0,55.0,0.0,1
68.0,23.0,-259.0,-8.0,56.0,-2.0,1
68.0,15.0,-250.0,-7.0,56.0,-2.0,1
68.0,20.0,-275.0,-9.0,55.0,-3.0,1
61.0,12.0,-255.0,-10.0,55.0,-2.0,1
67.0,28.0,-254.0,-14.0,55.0,-5.0,1
61.0,10.0,-250.0,-16.0,55.0,-2.0,1
68.0,15.0,-254.0,-19.0,53.0,-4.0,1
69.0,13.0,-251.0,-17.0,53.0,-2.0,1
69.0,14.0,-254.0,-15.0,53.0,-3.0,1
67.0,15.0,-258.0,-10.0,51.0,0.0,1
60.0,11.0,-249.0,-6.0,52.0,-1.0,1
77.0,15.0,-263.0,-4.0,52.0,0.0,1
70.0,15.0,-258.0,-5.0,52.0,-1.0,1
66.0,20.0,-254.0,-6.0,53.0,1.0,1
70.0,20.0,-261.0,-10.0,55.0,-3.0,1
72.0,7.0,-247.0,-13.0,55.0,-2.0,1
69.0,7.0,-249.0,-17.0,53.0,-2.0,1
68.0,8.0,-255.0,-19.0,53.0,-2.0,1
81.0,13.0,-235.0,-20.0,54.0,-4.0,1
74.0,16.0,-249.0,-22.0,54.0,-3.0,1
64.0,4.0,-251.0,-21.0,55.0,-4.0,1
74.0,11.0,-253.0,-20.0,55.0,-2.0,1
62.0,20.0,-251.0,-19.0,53.0,-4.0,1
66.0,6.0,-253.0,-16.0,50.0,-1.0,1
72.0,12.0,-259.0,-15.0,50.0,-2.0,1
72.0,7.0,-263.0,-15.0,49.0,-2.0,1
63.0,19.0,-255.0,-15.0,50.0,-3.0,1
69.0,14.0,-263.0,-15.0,51.0,-2.0,1
64.0,20.0,-253.0,-15.0,50.0,-4.0,1
72.0,20.0,-267.0,-14.0,49.0,-1.0,1
66.0,15.0,-264.0,-13.0,51.0,-1.0,1
78.0,10.0,-252.0,-13.0,50.0,-1.0,1
65.0,13.0,-259.0,-14.0,50.0,-3.0,1
66.0,17.0,-257.0,-14.0,51.0,-2.0,1
64.0,20.0,-255.0,-14.0,51.0,-4.0,1
60.0,18.0,-264.0,-14.0,51.0,-1.0,1
66.0,14.0,-249.0,-15.0,49.0,-3.0,1
65.0,16.0,-261.0,-15.0,50.0,-2.0,1
70.0,14.0,-254.0,-14.0,51.0,-3.0,1
69.0,13.0,-253.0,-14.0,53.0,-2.0,1
67.0,16.0,-254.0,-14.0,52.0,-5.0,1
69.0,15.0,-252.0,-15.0,53.0,-4.0,1
70.0,20.0,-254.0,-16.0,52.0,-5.0,1
67.0,12.0,-257.0,-15.0,53.0,-3.0,1
66.0,12.0,-252.0,-16.0,55.0,-4.0,1
70.0,2.0,-244.0,-15.0,56.0,-3.0,1
81.0,8.0,-230.0,-15.0,56.0,-4.0,1
76.0,8.0,-260.0,-17.0,56.0,-3.0,1
63.0,11.0,-256.0,-17.0,56.0,-3.0,1
66.0,29.0,-266.0,-16.0,57.0,-4.0,1
78.0,21.0,-257.0,-14.0,57.0,-2.0,1
72.0,13.0,-246.0,-13.0,57.0,-2.0,1
69.0,14.0,-256.0,-10.0,56.0,-2.0,1
59.0,13.0,-257.0,-10.0,55.0,-1.0,1
73.0,18.0,-263.0,-11.0,55.0,-3.0,1
69.0,14.0,-259.0,-12.0,55.0,-2.0,1
66.0,16.0,-258.0,-14.0,56.0,-2.0,1
62.0,13.0,-254.0,-15.0,56.0,-2.0,1
68.0,16.0,-257.0,-13.0,57.0,-2.0,1
71.0,14.0,-248.0,-13.0,59.0,-2.0,1
62.0,17.0,-257.0,-13.0,59.0,-3.0,1
59.0,20.0,-258.0,-13.0,60.0,-2.0,1
70.0,15.0,-251.0,-12.0,58.0,-2.0,1
65.0,23.0,-270.0,-10.0,61.0,-1.0,1
67.0,18.0,-246.0,-11.0,60.0,-1.0,1
71.0,20.0,-256.0,-11.0,61.0,-2.0,1
78.0,13.0,-281.0,-12.0,61.0,-2.0,1
62.0,9.0,-250.0,-14.0,62.0,-3.0,1
70.0,16.0,-250.0,-14.0,62.0,-2.0,1
68.0,14.0,-266.0,-15.0,63.0,-3.0,1
69.0,12.0,-256.0,-14.0,62.0,-4.0,1
69.0,15.0,-252.0,-14.0,63.0,-4.0,1
67.0,18.0,-259.0,-15.0,63.0,-3.0,1
69.0,17.0,-257.0,-16.0,63.0,-4.0,1
64.0,15.0,-256.0,-16.0,63.0,-3.0,1
78.0,15.0,-254.0,-14.0,64.0,-2.0,1
69.0,13.0,-248.0,-15.0,63.0,-3.0,1
68.0,9.0,-253.0,-17.0,61.0,-2.0,1
69.0,17.0,-257.0,-14.0,60.0,-1.0,1
37.0,18.0,-255.0,-15.0,60.0,-2.0,1
70.0,13.0,-259.0,-14.0,59.0,-2.0,1
71.0,23.0,-262.0,-15.0,59.0,-4.0,1
64.0,8.0,-254.0,-16.0,59.0,-3.0,1
57.0,12.0,-243.0,-16.0,57.0,-4.0,1
68.0,17.0,-257.0,-15.0,57.0,-3.0,1
72.0,16.0,-251.0,-14.0,56.0,-2.0,1
84.0,20.0,-271.0,-14.0,56.0,-2.0,1
64.0,17.0,-261.0,-15.0,56.0,-2.0,1
73.0,27.0,-285.0,-14.0,57.0,-2.0,1
66.0,20.0,-252.0,-13.0,57.0,-3.0,1
76.0,8.0,-257.0,-13.0,56.0,-2.0,1
56.0,26.0,-270.0,-14.0,56.0,-3.0,1
66.0,12.0,-252.0,-15.0,56.0,-2.0,1
62.0,19.0,-257.0,-13.0,57.0,-2.0,1
60.0,18.0,-253.0,-15.0,56.0,-3.0,1
66.0,14.0,-255.0,-14.0,56.0,-3.0,1
79.0,11.0,-248.0,-14.0,58.0,-3.0,1
66.0,21.0,-253.0,-14.0,56.0,-3.0,1
78.0,21.0,-269.0,-15.0,55.0,-2.0,1
63.0,11.0,-252.0,-14.0,54.0,-5.0,1
68.0,12.0,-256.0,-14.0,55.0,-3.0,1
67.0,14.0,-255.0,-15.0,55.0,-3.0,1
68.0,14.0,-254.0,-14.0,56.0,-1.0,1
69.0,13.0,-256.0,-14.0,57.0,-3.0,1
71.0,14.0,-251.0,-14.0,56.0,-2.0,1
70.0,20.0,-259.0,-14.0,55.0,-3.0,1
66.0,20.0,-266.0,-13.0,55.0,-3.0,1
62.0,14.0,-240.0,-14.0,56.0,-3.0,1
57.0,8.0,-246.0,-13.0,57.0,-2.0,1
70.0,26.0,-271.0,-12.0,55.0,-2.0,1
64.0,22.0,-268.0,-14.0,56.0,-2.0,1
68.0,16.0,-258.0,-14.0,55.0,-3.0,1
66.0,14.0,-253.0,-14.0,57.0,-2.0,1
71.0,16.0,-248.0,-13.0,57.0,-2.0,1
66.0,21.0,-246.0,-14.0,58.0,-2.0,1
63.0,15.0,-262.0,-15.0,57.0,-3.0,1
68.0,14.0,-263.0,-14.0,57.0,-3.0,1
72.0,12.0,-254.0,-15.0,57.0,-4.0,1
75.0,12.0,-257.0,-14.0,57.0,-2.0,1
71.0,9.0,-263.0,-15.0,56.0,-2.0,1
72.0,9.0,-252.0,-14.0,55.0,-2.0,1
69.0,22.0,-263.0,-15.0,55.0,-4.0,1
58.0,14.0,-263.0,-14.0,55.0,-2.0,1
64.0,13.0,-255.0,-14.0,57.0,-2.0,1
66.0,22.0,-273.0,-14.0,58.0,-2.0,1
72.0,8.0,-249.0,-14.0,57.0,-2.0,1
71.0,15.0,-269.0,-14.0,58.0,-1.0,1
66.0,19.0,-268.0,-13.0,60.0,-4.0,1
63.0,14.0,-256.0,-12.0,58.0,-2.0,1
67.0,18.0,-257.0,-14.0,59.0,-2.0,1
74.0,9.0,-254.0,-15.0,58.0,-2.0,1
68.0,16.0,-256.0,-14.0,57.0,-4.0,1
65.0,15.0,-256.0,-14.0,56.0,-2.0,1
67.0,13.0,-254.0,-15.0,59.0,-3.0,1
70.0,14.0,-256.0,-16.0,59.0,-5.0,1
69.0,15.0,-257.0,-15.0,59.0,-2.0,1
70.0,12.0,-254.0,-16.0,60.0,-4.0,1
69.0,13.0,-256.0,-15.0,58.0,-1.0,1
65.0,14.0,-247.0,-14.0,59.0,-4.0,1
68.0,14.0,-258.0,-13.0,60.0,-1.0,1
69.0,17.0,-256.0,-13.0,59.0,-2.0,1
70.0,16.0,-253.0,-14.0,59.0,-2.0,1
68.0,13.0,-256.0,-13.0,59.0,-3.0,1
69.0,11.0,-252.0,-12.0,58.0,-2.0,1
69.0,14.0,-258.0,-12.0,59.0,-4.0,1
71.0,14.0,-251.0,-12.0,58.0,-2.0,1
67.0,14.0,-254.0,-12.0,58.0,-3.0,1
66.0,18.0,-256.0,-13.0,58.0,-1.0,1
69.0,15.0,-255.0,-13.0,58.0,-4.0,1
66.0,14.0,-259.0,-13.0,56.0,-2.0,1
70.0,16.0,-255.0,-14.0,57.0,-3.0,1
69.0,14.0,-255.0,-13.0,57.0,-1.0,1
65.0,17.0,-252.0,-13.0,56.0,-3.0,1
68.0,17.0,-253.0,-12.0,57.0,-2.0,1
67.0,17.0,-258.0,-13.0,57.0,-4.0,1
70.0,15.0,-254.0,-12.0,57.0,-2.0,1
68.0,15.0,-255.0,-10.0,59.0,-4.0,1
76.0,34.0,-262.0,-9.0,57.0,-2.0,1
70.0,12.0,-254.0,-10.0,58.0,-4.0,1
69.0,14.0,-254.0,-12.0,57.0,-2.0,1
68.0,14.0,-254.0,-12.0,58.0,-4.0,1
67.0,15.0,-253.0,-11.0,59.0,-1.0,1
69.0,15.0,-266.0,-12.0,58.0,-1.0,1
68.0,14.0,-256.0,-13.0,56.0,-2.0,1
69.0,14.0,-255.0,-13.0,57.0,-4.0,1
67.0,18.0,-257.0,-15.0,58.0,-2.0,1
73.0,22.0,-257.0,-16.0,58.0,-5.0,1
68.0,18.0,-255.0,-18.0,59.0,-3.0,1
71.0,15.0,-256.0,-18.0,58.0,-4.0,1
70.0,14.0,-258.0,-19.0,57.0,-3.0,1
64.0,14.0,-254.0,-17.0,56.0,-4.0,1
71.0,19.0,-256.0,-16.0,56.0,-3.0,1
67.0,16.0,-259.0,-13.0,56.0,-3.0,1
67.0,13.0,-254.0,-12.0,57.0,-2.0,1
71.0,13.0,-252.0,-10.0,58.0,-4.0,1
69.0,14.0,-253.0,-9.0,57.0,-1.0,1
69.0,11.0,-251.0,-8.0,56.0,-3.0,1
62.0,22.0,-259.0,-9.0,55.0,-1.0,1
64.0,7.0,-251.0,-11.0,54.0,-4.0,1
69.0,18.0,-257.0,-14.0,55.0,-2.0,1
65.0,10.0,-255.0,-17.0,56.0,-5.0,1
68.0,15.0,-253.0,-17.0,56.0,-2.0,1
67.0,13.0,-252.0,-18.0,57.0,-3.0,1
68.0,15.0,-254.0,-15.0,54.0,-3.0,1
68.0,16.0,-258.0,-9.0,54.0,-3.0,1
66.0,14.0,-261.0,-6.0,52.0,-1.0,1
69.0,13.0,-258.0,-3.0,52.0,-2.0,1
73.0,19.0,-259.0,-5.0,53.0,-1.0,1
69.0,16.0,-256.0,-5.0,53.0,-3.0,1
68.0,15.0,-254.0,-9.0,54.0,-1.0,1
68.0,15.0,-258.0,-13.0,54.0,-4.0,1
67.0,14.0,-253.0,-17.0,54.0,-2.0,1
69.0,13.0,-255.0,-19.0,55.0,-4.0,1
69.0,14.0,-253.0,-21.0,54.0,-3.0,1
68.0,15.0,-260.0,-20.0,56.0,-4.0,1
67.0,16.0,-255.0,-20.0,56.0,-2.0,1
70.0,14.0,-255.0,-21.0,54.0,-5.0,1
68.0,14.0,-248.0,-20.0,53.0,-3.0,1
66.0,11.0,-255.0,-17.0,51.0,-4.0,1
65.0,17.0,-256.0,-16.0,51.0,-1.0,1
66.0,15.0,-254.0,-14.0,52.0,-4.0,1
68.0,13.0,-254.0,-15.0,51.0,-1.0,1
70.0,17.0,-257.0,-14.0,52.0,-3.0,1
68.0,19.0,-256.0,-14.0,51.0,-1.0,1
68.0,14.0,-253.0,-12.0,50.0,-3.0,1
68.0,14.0,-257.0,-13.0,51.0,0.0,1
67.0,12.0,-275.0,-13.0,51.0,-3.0,1
70.0,17.0,-255.0,-14.0,51.0,-1.0,1
65.0,15.0,-259.0,-12.0,52.0,-4.0,1
69.0,15.0,-255.0,-14.0,53.0,0.0,1
71.0,14.0,-253.0,-14.0,52.0,-3.0,1
67.0,14.0,-257.0,-15.0,52.0,-3.0,1
64.0,18.0,-257.0,-14.0,52.0,-5.0,1
68.0,12.0,-255.0,-14.0,53.0,-2.0,1
67.0,13.0,-257.0,-13.0,52.0,-4.0,1
65.0,18.0,-255.0,-15.0,51.0,-2.0,1
67.0,18.0,-256.0,-15.0,51.0,-4.0,1
67.0,13.0,-252.0,-16.0,52.0,-2.0,1
68.0,16.0,-254.0,-15.0,52.0,-5.0,1
69.0,12.0,-256.0,-16.0,52.0,-2.0,1
70.0,13.0,-259.0,-15.0,53.0,-6.0,1
65.0,17.0,-257.0,-17.0,54.0,-3.0,1
66.0,13.0,-256.0,-16.0,55.0,-5.0,1
67.0,15.0,-256.0,-17.0,52.0,-2.0,1
66.0,15.0,-255.0,-15.0,53.0,-5.0,1
68.0,14.0,-260.0,-14.0,53.0,-2.0,1
71.0,16.0,-260.0,-13.0,52.0,-4.0,1
63.0,16.0,-269.0,-13.0,53.0,-3.0,1
67.0,15.0,-255.0,-11.0,54.0,-4.0,1
69.0,14.0,-258.0,-12.0,53.0,-1.0,1
66.0,16.0,-255.0,-13.0,54.0,-4.0,1
67.0,16.0,-252.0,-13.0,53.0,-1.0,1
68.0,13.0,-257.0,-13.0,54.0,-4.0,1
67.0,15.0,-259.0,-15.0,54.0,-1.0,1
68.0,15.0,-255.0,-16.0,56.0,-3.0,1
68.0,15.0,-255.0,-14.0,56.0,-1.0,1
68.0,16.0,-256.0,-12.0,56.0,-4.0,1
64.0,17.0,-256.0,-11.0,57.0,-1.0,1
65.0,14.0,-255.0,-13.0,58.0,-3.0,1
66.0,13.0,-260.0,-12.0,58.0,-1.0,1
66.0,14.0,-253.0,-14.0,58.0,-3.0,1
68.0,15.0,-255.0,-13.0,58.0,-1.0,1
68.0,14.0,-257.0,-13.0,57.0,-5.0,1
67.0,14.0,-256.0,-14.0,58.0,-1.0,1
66.0,14.0,-256.0,-15.0,60.0,-3.0,1
68.0,14.0,-257.0,-15.0,59.0,-1.0,1
68.0,15.0,-257.0,-16.0,61.0,-5.0,1
68.0,14.0,-255.0,-17.0,61.0,-2.0,1
69.0,15.0,-255.0,-17.0,60.0,-3.0,1
68.0,16.0,-253.0,-15.0,60.0,-2.0,1
66.0,17.0,-254.0,-15.0,59.0,-4.0,1
68.0,10.0,-258.0,-16.0,60.0,-2.0,1
70.0,16.0,-255.0,-17.0,59.0,-4.0,1
68.0,17.0,-257.0,-16.0,58.0,-3.0,1
67.0,18.0,-258.0,-15.0,58.0,-5.0,1
66.0,16.0,-256.0,-15.0,59.0,-3.0,1
67.0,12.0,-256.0,-15.0,58.0,-4.0,1
69.0,16.0,-254.0,-17.0,59.0,-3.0,1
65.0,15.0,-251.0,-17.0,60.0,-4.0,1
70.0,14.0,-251.0,-16.0,59.0,-3.0,1
66.0,15.0,-256.0,-14.0,59.0,-4.0,1
67.0,15.0,-253.0,-15.0,55.0,-1.0,1
66.0,14.0,-255.0,-14.0,56.0,-5.0,1
67.0,17.0,-255.0,-15.0,57.0,-2.0,1
68.0,13.0,-257.0,-14.0,57.0,-4.0,1
70.0,13.0,-254.0,-14.0,57.0,-1.0,1
67.0,16.0,-256.0,-13.0,56.0,-3.0,1
67.0,15.0,-258.0,-14.0,54.0,-1.0,1
69.0,16.0,-258.0,-13.0,54.0,-3.0,1
67.0,15.0,-263.0,-12.0,54.0,-2.0,1
68.0,12.0,-258.0,-14.0,54.0,-3.0,1
69.0,13.0,-256.0,-14.0,56.0,-2.0,1
68.0,14.0,-257.0,-14.0,56.0,-3.0,1
68.0,12.0,-255.0,-13.0,57.0,-2.0,1
71.0,13.0,-251.0,-14.0,56.0,-3.0,1
68.0,16.0,-258.0,-13.0,56.0,-1.0,1
65.0,17.0,-257.0,-13.0,57.0,-3.0,1
66.0,15.0,-256.0,-14.0,56.0,-2.0,1
67.0,18.0,-259.0,-14.0,57.0,-4.0,1
65.0,13.0,-255.0,-13.0,57.0,-3.0,1
66.0,15.0,-254.0,-13.0,58.0,-3.0,1
68.0,16.0,-257.0,-14.0,56.0,-2.0,1
67.0,15.0,-259.0,-14.0,58.0,-3.0,1
67.0,15.0,-254.0,-14.0,57.0,-1.0,1
67.0,14.0,-255.0,-14.0,58.0,-3.0,1
68.0,15.0,-256.0,-15.0,58.0,-1.0,1
66.0,15.0,-255.0,-14.0,58.0,-3.0,1
70.0,13.0,-255.0,-16.0,59.0,-2.0,1
69.0,13.0,-258.0,-15.0,59.0,-3.0,1
69.0,12.0,-258.0,-14.0,61.0,-2.0,1
68.0,14.0,-255.0,-14.0,60.0,-4.0,1
68.0,14.0,-256.0,-13.0,59.0,-2.0,1
65.0,17.0,-257.0,-14.0,60.0,-5.0,1
68.0,15.0,-256.0,-15.0,60.0,-3.0,1
69.0,16.0,-260.0,-13.0,60.0,-4.0,1
65.0,15.0,-257.0,-15.0,59.0,-2.0,1
68.0,12.0,-256.0,-14.0,59.0,-4.0,1
67.0,14.0,-257.0,-15.0,59.0,-2.0,1
66.0,13.0,-256.0,-14.0,57.0,-4.0,1
65.0,15.0,-257.0,-14.0,59.0,-2.0,1
66.0,14.0,-260.0,-14.0,59.0,-4.0,1
69.0,16.0,-258.0,-14.0,59.0,-2.0,1
68.0,11.0,-255.0,-14.0,58.0,-4.0,1
68.0,13.0,-256.0,-15.0,60.0,-2.0,1
66.0,15.0,-256.0,-14.0,58.0,-5.0,1
68.0,15.0,-259.0,-14.0,58.0,-3.0,1
70.0,13.0,-252.0,-12.0,58.0,-2.0,1
66.0,13.0,-255.0,-14.0,58.0,-2.0,1
64.0,18.0,-257.0,-13.0,58.0,-2.0,1
67.0,17.0,-252.0,-14.0,58.0,-1.0,1
67.0,13.0,-259.0,-14.0,57.0,-3.0,1
68.0,18.0,-259.0,-15.0,59.0,-2.0,1
66.0,15.0,-259.0,-14.0,58.0,-4.0,1
69.0,13.0,-256.0,-12.0,60.0,-1.0,1
69.0,15.0,-258.0,-14.0,60.0,-2.0,1
68.0,14.0,-256.0,-13.0,60.0,-3.0,1
66.0,15.0,-257.0,-13.0,60.0,-4.0,1
68.0,15.0,-254.0,-14.0,60.0,-3.0,1
66.0,15.0,-254.0,-12.0,60.0,-3.0,1
68.0,16.0,-256.0,-13.0,58.0,-2.0,1
66.0,14.0,-257.0,-14.0,58.0,-4.0,1
65.0,18.0,-257.0,-13.0,58.0,-2.0,1
68.0,13.0,-253.0,-12.0,58.0,-4.0,1
67.0,14.0,-259.0,-13.0,58.0,-2.0,1
67.0,16.0,-261.0,-15.0,58.0,-2.0,1
68.0,15.0,-250.0,-14.0,56.0,-3.0,1
66.0,16.0,-253.0,-14.0,57.0,-4.0,1
69.0,15.0,-255.0,-16.0,58.0,-3.0,1
67.0,17.0,-254.0,-14.0,59.0,-3.0,1
67.0,14.0,-252.0,-14.0,60.0,-3.0,1
68.0,17.0,-255.0,-15.0,60.0,-5.0,1
68.0,15.0,-255.0,-13.0,59.0,-2.0,1
67.0,14.0,-254.0,-12.0,58.0,-4.0,1
68.0,14.0,-251.0,-13.0,59.0,-2.0,1
66.0,16.0,-257.0,-11.0,58.0,-3.0,1
67.0,14.0,-256.0,-11.0,58.0,-1.0,1
66.0,15.0,-257.0,-12.0,59.0,-3.0,1
67.0,16.0,-256.0,-10.0,57.0,-2.0,1
68.0,14.0,-258.0,-12.0,56.0,-1.0,1
65.0,14.0,-257.0,-14.0,56.0,-3.0,1
67.0,14.0,-257.0,-15.0,56.0,-4.0,1
64.0,15.0,-252.0,-16.0,56.0,-3.0,1
65.0,16.0,-255.0,-18.0,58.0,-4.0,1
67.0,12.0,-252.0,-17.0,58.0,-2.0,1
68.0,15.0,-260.0,-17.0,59.0,-4.0,1
64.0,16.0,-256.0,-16.0,57.0,-3.0,1
65.0,15.0,-257.0,-17.0,58.0,-3.0,1
68.0,16.0,-255.0,-13.0,57.0,-2.0,1
70.0,15.0,-256.0,-12.0,60.0,-2.0,1
68.0,14.0,-257.0,-11.0,60.0,-2.0,1
69.0,13.0,-258.0,-10.0,59.0,-3.0,1
68.0,13.0,-256.0,-7.0,61.0,-1.0,1
64.0,16.0,-255.0,-5.0,60.0,-2.0,1
68.0,14.0,-257.0,-6.0,58.0,-2.0,1
65.0,16.0,-252.0,-8.0,58.0,-2.0,1
70.0,12.0,-253.0,-11.0,59.0,-3.0,1
69.0,15.0,-254.0,-16.0,58.0,-3.0,1
65.0,13.0,-252.0,-17.0,57.0,-3.0,1
66.0,15.0,-253.0,-18.0,58.0,-3.0,1
69.0,15.0,-257.0,-15.0,57.0,-2.0,1
67.0,15.0,-260.0,-12.0,58.0,-2.0,1
66.0,15.0,-259.0,-5.0,57.0,0.0,1
69.0,15.0,-261.0,-4.0,57.0,0.0,1
68.0,15.0,-255.0,-3.0,56.0,0.0,1
70.0,12.0,-257.0,-5.0,58.0,-2.0,1
66.0,15.0,-257.0,-7.0,60.0,-2.0,1
67.0,16.0,-257.0,-11.0,60.0,-2.0,1
68.0,15.0,-255.0,-17.0,60.0,-3.0,1
67.0,14.0,-255.0,-20.0,59.0,-3.0,1
67.0,16.0,-253.0,-21.0,60.0,-4.0,1
66.0,15.0,-257.0,-22.0,60.0,-3.0,1
66.0,15.0,-258.0,-21.0,60.0,-2.0,1
64.0,14.0,-253.0,-20.0,59.0,-3.0,1
67.0,15.0,-259.0,-18.0,57.0,-3.0,1
68.0,16.0,-254.0,-17.0,56.0,-3.0,1
68.0,17.0,-257.0,-18.0,54.0,-1.0,1
66.0,14.0,-255.0,-17.0,55.0,-1.0,1
64.0,15.0,-248.0,-15.0,55.0,-2.0,1
69.0,13.0,-259.0,-13.0,56.0,-2.0,1
65.0,18.0,-258.0,-14.0,56.0,-3.0,1
67.0,12.0,-262.0,-14.0,56.0,-2.0,1
65.0,15.0,-254.0,-14.0,55.0,-2.0,1
67.0,14.0,-250.0,-14.0,55.0,-3.0,1
66.0,17.0,-256.0,-13.0,56.0,-3.0,1
66.0,13.0,-256.0,-12.0,56.0,-3.0,1
67.0,19.0,-257.0,-13.0,55.0,-2.0,1
68.0,17.0,-258.0,-13.0,56.0,-3.0,1
67.0,14.0,-259.0,-14.0,55.0,-4.0,1
67.0,13.0,-255.0,-14.0,55.0,-3.0,1
68.0,12.0,-253.0,-13.0,54.0,-3.0,1
66.0,16.0,-252.0,-15.0,55.0,-3.0,1
67.0,13.0,-258.0,-14.0,56.0,-4.0,1
66.0,12.0,-255.0,-14.0,56.0,-3.0,1
64.0,16.0,-258.0,-15.0,57.0,-3.0,1
68.0,13.0,-253.0,-13.0,57.0,-3.0,1
67.0,15.0,-257.0,-15.0,58.0,-4.0,1
67.0,13.0,-255.0,-14.0,57.0,-3.0,1
68.0,15.0,-253.0,-14.0,57.0,-4.0,1
66.0,14.0,-254.0,-14.0,56.0,-2.0,1
66.0,15.0,-253.0,-14.0,56.0,-4.0,1
67.0,14.0,-257.0,-15.0,55.0,-3.0,1
65.0,16.0,-257.0,-14.0,56.0,-2.0,1
68.0,13.0,-258.0,-13.0,56.0,-3.0,1
66.0,15.0,-257.0,-10.0,57.0,-2.0,1
68.0,13.0,-258.0,-10.0,55.0,-2.0,1
65.0,14.0,-252.0,-10.0,53.0,-3.0,1
66.0,16.0,-257.0,-12.0,55.0,-2.0,1
66.0,13.0,-255.0,-13.0,56.0,-3.0,1
66.0,14.0,-256.0,-14.0,57.0,-1.0,1
68.0,13.0,-261.0,-14.0,57.0,-2.0,1
68.0,15.0,-256.0,-15.0,60.0,-2.0,1
67.0,13.0,-257.0,-12.0,59.0,-1.0,1
66.0,16.0,-255.0,-12.0,61.0,-1.0,1
67.0,12.0,-259.0,-13.0,61.0,-3.0,1
67.0,15.0,-256.0,-12.0,60.0,-2.0,1
67.0,14.0,-253.0,-11.0,61.0,-3.0,1
67.0,15.0,-256.0,-11.0,61.0,-2.0,1
67.0,16.0,-254.0,-12.0,60.0,-4.0,1
68.0,14.0,-255.0,-14.0,60.0,-2.0,1
66.0,15.0,-257.0,-14.0,62.0,-3.0,1
66.0,15.0,-254.0,-15.0,61.0,-3.0,1
68.0,13.0,-260.0,-16.0,62.0,-4.0,1
66.0,14.0,-257.0,-15.0,62.0,-4.0,1
67.0,13.0,-252.0,-17.0,62.0,-2.0,1
67.0,12.0,-254.0,-15.0,62.0,-2.0,1
67.0,18.0,-256.0,-16.0,62.0,-3.0,1
67.0,14.0,-255.0,-15.0,62.0,-2.0,1
65.0,15.0,-254.0,-17.0,60.0,-3.0,1
67.0,17.0,-257.0,-16.0,61.0,-1.0,1
69.0,14.0,-256.0,-16.0,60.0,-2.0,1
68.0,16.0,-251.0,-16.0,60.0,-3.0,1
68.0,15.0,-253.0,-16.0,58.0,-4.0,1
68.0,13.0,-257.0,-16.0,58.0,-2.0,1
65.0,15.0,-254.0,-15.0,57.0,-3.0,1
68.0,13.0,-258.0,-14.0,58.0,-1.0,1
66.0,15.0,-255.0,-15.0,57.0,-4.0,1
69.0,15.0,-252.0,-14.0,56.0,-2.0,1
66.0,12.0,-258.0,-15.0,57.0,-3.0,1
65.0,13.0,-254.0,-15.0,57.0,-2.0,1
68.0,15.0,-260.0,-14.0,57.0,-2.0,1
67.0,16.0,-255.0,-14.0,56.0,-1.0,1
65.0,16.0,-257.0,-12.0,58.0,-4.0,1
67.0,15.0,-256.0,-13.0,56.0,-3.0,1
67.0,13.0,-255.0,-14.0,58.0,-5.0,1
67.0,15.0,-256.0,-13.0,58.0,-3.0,1
67.0,12.0,-256.0,-13.0,57.0,-5.0,1
66.0,14.0,-257.0,-13.0,58.0,-3.0,1
67.0,14.0,-257.0,-12.0,57.0,-4.0,1
65.0,15.0,-255.0,-12.0,57.0,-3.0,1
67.0,15.0,-251.0,-13.0,58.0,-3.0,1
67.0,16.0,-257.0,-14.0,58.0,-2.0,1
68.0,15.0,-260.0,-13.0,58.0,-3.0,1
67.0,15.0,-253.0,-13.0,58.0,-2.0,1
66.0,15.0,-256.0,-12.0,58.0,-4.0,1
66.0,16.0,-260.0,-14.0,58.0,-3.0,1
64.0,18.0,-255.0,-14.0,57.0,-4.0,1
66.0,15.0,-257.0,-14.0,56.0,-1.0,1
65.0,17.0,-254.0,-14.0,57.0,-3.0,1
68.0,15.0,-256.0,-16.0,56.0,-2.0,1
66.0,17.0,-257.0,-13.0,57.0,-2.0,1
66.0,15.0,-254.0,-14.0,59.0,-2.0,1
65.0,13.0,-254.0,-13.0,57.0,-4.0,1
70.0,13.0,-259.0,-14.0,58.0,-1.0,1
68.0,16.0,-251.0,-14.0,57.0,-3.0,1
66.0,14.0,-260.0,-14.0,57.0,-1.0,1
65.0,15.0,-251.0,-14.0,57.0,-1.0,1
64.0,16.0,-255.0,-13.0,58.0,0.0,1
66.0,16.0,-256.0,-14.0,58.0,-3.0,1
67.0,14.0,-253.0,-13.0,57.0,-1.0,1
68.0,15.0,-253.0,-14.0,58.0,-2.0,1
69.0,14.0,-257.0,-14.0,58.0,-2.0,1
65.0,16.0,-254.0,-15.0,57.0,-4.0,1
67.0,14.0,-255.0,-14.0,57.0,-2.0,1
65.0,16.0,-258.0,-13.0,56.0,-3.0,1
67.0,17.0,-256.0,-14.0,58.0,0.0,1
65.0,16.0,-252.0,-13.0,57.0,-3.0,1
64.0,21.0,-253.0,-13.0,58.0,-1.0,1
67.0,14.0,-259.0,-11.0,59.0,-3.0,1
68.0,16.0,-255.0,-13.0,58.0,-2.0,1
68.0,13.0,-256.0,-14.0,58.0,-4.0,1
66.0,16.0,-253.0,-14.0,58.0,-2.0,1
65.0,16.0,-254.0,-15.0,57.0,-4.0,1
68.0,12.0,-254.0,-15.0,57.0,-3.0,1
67.0,17.0,-255.0,-14.0,59.0,-4.0,1
66.0,18.0,-258.0,-13.0,59.0,-3.0,1
68.0,13.0,-254.0,-14.0,59.0,-5.0,1
65.0,16.0,-255.0,-14.0,60.0,-2.0,1
67.0,13.0,-259.0,-13.0,60.0,-4.0,1
71.0,16.0,-255.0,-12.0,59.0,-2.0,1
66.0,15.0,-255.0,-12.0,60.0,-4.0,1
67.0,15.0,-255.0,-13.0,59.0,-3.0,1
68.0,15.0,-255.0,-13.0,60.0,-4.0,1
67.0,16.0,-256.0,-12.0,59.0,-2.0,1
65.0,15.0,-255.0,-11.0,59.0,-3.0,1
67.0,15.0,-254.0,-12.0,59.0,0.0,1
65.0,14.0,-255.0,-11.0,59.0,-3.0,1
65.0,13.0,-254.0,-11.0,60.0,-2.0,1
68.0,18.0,-256.0,-13.0,58.0,-3.0,1
68.0,15.0,-257.0,-14.0,58.0,-2.0,1
67.0,14.0,-258.0,-13.0,58.0,-3.0,1
65.0,12.0,-253.0,-12.0,57.0,-2.0,1
66.0,15.0,-254.0,-13.0,57.0,-4.0,1
67.0,16.0,-256.0,-13.0,57.0,-2.0,1
67.0,14.0,-254.0,-14.0,57.0,-4.0,1
67.0,15.0,-258.0,-12.0,56.0,-1.0,1
66.0,16.0,-260.0,-13.0,58.0,-3.0,1
66.0,16.0,-257.0,-12.0,57.0,-1.0,1
64.0,14.0,-255.0,-12.0,57.0,-4.0,1
68.0,13.0,-252.0,-12.0,57.0,-1.0,1
68.0,14.0,-258.0,-11.0,58.0,-3.0,1
67.0,12.0,-257.0,-12.0,59.0,-1.0,1
65.0,13.0,-257.0,-14.0,57.0,-3.0,1
64.0,15.0,-255.0,-14.0,56.0,-1.0,1
66.0,18.0,-258.0,-16.0,57.0,-3.0,1
65.0,17.0,-254.0,-16.0,56.0,-1.0,1
65.0,17.0,-253.0,-16.0,57.0,-4.0,1
66.0,16.0,-255.0,-16.0,58.0,-1.0,1
66.0,13.0,-254.0,-17.0,57.0,-4.0,1
68.0,14.0,-254.0,-19.0,57.0,-2.0,1
67.0,16.0,-258.0,-17.0,55.0,-4.0,1
65.0,14.0,-255.0,-15.0,55.0,0.0,1
65.0,14.0,-256.0,-14.0,56.0,-4.0,1
67.0,13.0,-257.0,-12.0,57.0,-1.0,1
67.0,16.0,-256.0,-11.0,57.0,-4.0,1
66.0,13.0,-255.0,-9.0,57.0,0.0,1
64.0,16.0,-257.0,-8.0,57.0,-3.0,1
67.0,14.0,-255.0,-8.0,57.0,-1.0,1
67.0,13.0,-253.0,-8.0,57.0,-3.0,1
66.0,14.0,-257.0,-11.0,57.0,-2.0,1
67.0,14.0,-255.0,-16.0,55.0,-4.0,1
63.0,14.0,-254.0,-17.0,56.0,-1.0,1
69.0,17.0,-254.0,-18.0,54.0,-4.0,1
65.0,17.0,-252.0,-16.0,54.0,-1.0,1
65.0,16.0,-256.0,-12.0,54.0,-2.0,1
68.0,18.0,-261.0,-7.0,53.0,1.0,1
65.0,15.0,-264.0,-4.0,54.0,-1.0,1
67.0,16.0,-256.0,-4.0,55.0,0.0,1
65.0,15.0,-258.0,-6.0,57.0,-3.0,1
64.0,16.0,-253.0,-8.0,59.0,0.0,1
66.0,18.0,-258.0,-11.0,59.0,-3.0,1
65.0,15.0,-255.0,-15.0,59.0,-1.0,1
68.0,12.0,-254.0,-19.0,60.0,-3.0,1
64.0,15.0,-255.0,-21.0,59.0,-3.0,1
67.0,16.0,-259.0,-22.0,59.0,-6.0,1
67.0,16.0,-258.0,-21.0,59.0,-2.0,1
66.0,15.0,-253.0,-21.0,58.0,-4.0,1
67.0,15.0,-257.0,-19.0,57.0,-2.0,1
67.0,14.0,-258.0,-18.0,56.0,-3.0,1
66.0,13.0,-254.0,-17.0,55.0,-1.0,1
68.0,13.0,-257.0,-15.0,54.0,-4.0,1
67.0,14.0,-256.0,-14.0,55.0,-1.0,1
63.0,16.0,-259.0,-13.0,54.0,-3.0,1
66.0,15.0,-257.0,-14.0,53.0,0.0,1
64.0,13.0,-257.0,-12.0,54.0,-3.0,1
65.0,14.0,-257.0,-14.0,56.0,0.0,1
67.0,17.0,-258.0,-14.0,55.0,-3.0,1
67.0,13.0,-256.0,-14.0,56.0,-1.0,1
67.0,17.0,-258.0,-14.0,55.0,-4.0,1
70.0,14.0,-255.0,-14.0,55.0,-2.0,1
64.0,17.0,-252.0,-13.0,55.0,-5.0,1
65.0,14.0,-254.0,-14.0,55.0,-2.0,1
66.0,13.0,-253.0,-12.0,54.0,-5.0,1
64.0,19.0,-257.0,-13.0,55.0,-2.0,1
67.0,16.0,-256.0,-13.0,55.0,-5.0,1
67.0,14.0,-255.0,-14.0,55.0,-2.0,1
66.0,15.0,-255.0,-13.0,56.0,-3.0,1
64.0,17.0,-256.0,-13.0,56.0,-2.0,1
67.0,16.0,-257.0,-13.0,58.0,-3.0,1
65.0,13.0,-257.0,-14.0,57.0,-2.0,1
64.0,15.0,-256.0,-15.0,57.0,-5.0,1
65.0,14.0,-257.0,-15.0,58.0,-2.0,1
64.0,17.0,-256.0,-15.0,56.0,-4.0,1
66.0,15.0,-256.0,-15.0,55.0,-3.0,1
67.0,17.0,-256.0,-15.0,56.0,-5.0,1
66.0,16.0,-257.0,-16.0,56.0,-3.0,1
66.0,15.0,-258.0,-14.0,57.0,-5.0,1
66.0,15.0,-259.0,-13.0,58.0,-1.0,1
66.0,17.0,-257.0,-11.0,58.0,-3.0,1
70.0,11.0,-255.0,-10.0,59.0,-2.0,1
68.0,14.0,-257.0,-12.0,58.0,-4.0,1
65.0,14.0,-253.0,-13.0,59.0,-2.0,1
65.0,14.0,-258.0,-14.0,59.0,-4.0,1
65.0,17.0,-255.0,-14.0,60.0,-1.0,1
66.0,15.0,-257.0,-13.0,61.0,-4.0,1
67.0,15.0,-257.0,-12.0,60.0,-2.0,1
66.0,13.0,-256.0,-13.0,60.0,-3.0,1
68.0,13.0,-256.0,-12.0,58.0,-1.0,1
63.0,13.0,-259.0,-11.0,60.0,-2.0,1
67.0,14.0,-255.0,-11.0,59.0,0.0,1
63.0,16.0,-253.0,-11.0,60.0,-4.0,1
63.0,16.0,-255.0,-10.0,59.0,-1.0,1
66.0,14.0,-259.0,-12.0,59.0,-3.0,1
65.0,16.0,-256.0,-13.0,60.0,-2.0,1
69.0,16.0,-255.0,-13.0,59.0,-3.0,1
68.0,14.0,-257.0,-15.0,59.0,-2.0,1
65.0,12.0,-259.0,-14.0,61.0,-2.0,1
65.0,17.0,-254.0,-15.0,61.0,-2.0,1
66.0,16.0,-256.0,-15.0,62.0,-2.0,1
64.0,17.0,-255.0,-15.0,61.0,-1.0,1
65.0,13.0,-256.0,-15.0,62.0,-4.0,1
66.0,14.0,-257.0,-15.0,61.0,-2.0,1
67.0,15.0,-258.0,-15.0,60.0,-3.0,1
64.0,13.0,-255.0,-15.0,60.0,-2.0,1
66.0,15.0,-259.0,-17.0,59.0,-4.0,1
66.0,16.0,-255.0,-15.0,60.0,-2.0,1
64.0,13.0,-250.0,-15.0,61.0,-3.0,1
66.0,14.0,-257.0,-16.0,60.0,-2.0,1
65.0,16.0,-254.0,-14.0,59.0,-3.0,1
67.0,15.0,-255.0,-14.0,58.0,-2.0,1
67.0,15.0,-252.0,-14.0,59.0,-3.0,1
66.0,16.0,-259.0,-13.0,57.0,0.0,1
65.0,16.0,-258.0,-14.0,58.0,-3.0,1
65.0,14.0,-254.0,-14.0,57.0,-2.0,1
67.0,16.0,-259.0,-14.0,56.0,-3.0,1
65.0,12.0,-255.0,-13.0,57.0,-2.0,1
67.0,16.0,-258.0,-14.0,55.0,-3.0,1
66.0,15.0,-260.0,-12.0,57.0,-1.0,1
67.0,13.0,-254.0,-13.0,58.0,-3.0,1
66.0,12.0,-257.0,-13.0,59.0,-2.0,1
68.0,14.0,-257.0,-13.0,58.0,-4.0,1
66.0,17.0,-259.0,-13.0,57.0,-4.0,1
67.0,12.0,-259.0,-14.0,58.0,-5.0,1
68.0,15.0,-256.0,-13.0,59.0,-3.0,1
65.0,16.0,-256.0,-14.0,60.0,-3.0,1
64.0,12.0,-258.0,-14.0,60.0,-4.0,1
67.0,17.0,-257.0,-15.0,60.0,-4.0,1
65.0,15.0,-261.0,-15.0,59.0,-3.0,1
65.0,15.0,-256.0,-13.0,59.0,-3.0,1
70.0,14.0,-254.0,-13.0,60.0,-2.0,1
67.0,15.0,-256.0,-13.0,59.0,-3.0,1
63.0,18.0,-257.0,-14.0,59.0,-2.0,1
65.0,15.0,-254.0,-12.0,58.0,-3.0,1
67.0,17.0,-255.0,-13.0,57.0,-3.0,1
67.0,14.0,-260.0,-14.0,58.0,-4.0,1
65.0,16.0,-256.0,-14.0,59.0,-3.0,1
67.0,16.0,-255.0,-12.0,59.0,-4.0,1
66.0,14.0,-254.0,-12.0,59.0,-3.0,1
68.0,13.0,-254.0,-13.0,60.0,-3.0,1
65.0,16.0,-254.0,-13.0,59.0,-1.0,1
67.0,13.0,-255.0,-13.0,58.0,-3.0,1
67.0,16.0,-254.0,-13.0,60.0,-3.0,1
65.0,14.0,-255.0,-13.0,60.0,-4.0,1
65.0,16.0,-258.0,-14.0,60.0,-2.0,1
66.0,11.0,-253.0,-13.0,58.0,-2.0,1
67.0,16.0,-257.0,-14.0,58.0,-1.0,1
66.0,16.0,-257.0,-13.0,59.0,-2.0,1
65.0,14.0,-254.0,-13.0,58.0,-3.0,1
68.0,13.0,-258.0,-11.0,58.0,-4.0,1
66.0,18.0,-252.0,-13.0,58.0,-2.0,1
67.0,14.0,-256.0,-12.0,58.0,-3.0,1
66.0,12.0,-257.0,-12.0,58.0,-2.0,1
65.0,14.0,-252.0,-13.0,58.0,-3.0,1
65.0,15.0,-255.0,-15.0,58.0,-2.0,1
69.0,15.0,-252.0,-14.0,60.0,-3.0,1
62.0,16.0,-255.0,-14.0,60.0,-3.0,1
66.0,13.0,-254.0,-13.0,60.0,-3.0,1
68.0,14.0,-257.0,-15.0,59.0,-3.0,1
67.0,15.0,-257.0,-14.0,59.0,-4.0,1
67.0,14.0,-259.0,-13.0,60.0,-3.0,1
66.0,15.0,-257.0,-14.0,59.0,-3.0,1
65.0,14.0,-256.0,-14.0,61.0,-2.0,1
65.0,15.0,-257.0,-14.0,62.0,-4.0,1
65.0,16.0,-258.0,-14.0,61.0,-3.0,1
66.0,14.0,-254.0,-13.0,61.0,-4.0,1
65.0,15.0,-255.0,-15.0,61.0,-2.0,1
66.0,14.0,-253.0,-14.0,61.0,-2.0,1
66.0,15.0,-252.0,-13.0,60.0,-2.0,1
66.0,15.0,-258.0,-12.0,59.0,-3.0,1
68.0,14.0,-259.0,-12.0,59.0,-2.0,1
66.0,13.0,-254.0,-13.0,60.0,-3.0,1
66.0,16.0,-253.0,-12.0,60.0,-2.0,1
65.0,16.0,-258.0,-12.0,60.0,-5.0,1
66.0,15.0,-253.0,-12.0,61.0,-4.0,1
68.0,15.0,-260.0,-13.0,60.0,-3.0,1
66.0,15.0,-257.0,-15.0,60.0,-3.0,1
67.0,14.0,-259.0,-13.0,59.0,-2.0,1
64.0,15.0,-254.0,-13.0,59.0,-2.0,1
62.0,13.0,-257.0,-11.0,59.0,-1.0,1
65.0,15.0,-252.0,-11.0,59.0,-1.0,1
66.0,13.0,-259.0,-10.0,59.0,-2.0,1
65.0,11.0,-252.0,-10.0,59.0,-2.0,1
65.0,16.0,-256.0,-11.0,60.0,-2.0,1
65.0,16.0,-253.0,-12.0,59.0,-1.0,1
67.0,13.0,-258.0,-12.0,61.0,-1.0,1
65.0,15.0,-255.0,-13.0,59.0,-1.0,1
65.0,14.0,-259.0,-12.0,59.0,-1.0,1
69.0,13.0,-251.0,-13.0,59.0,-3.0,1
64.0,12.0,-257.0,-14.0,58.0,-2.0,1
69.0,14.0,-254.0,-14.0,60.0,-2.0,1
64.0,15.0,-259.0,-16.0,61.0,-3.0,1
67.0,13.0,-253.0,-15.0,61.0,-2.0,1
64.0,18.0,-253.0,-18.0,63.0,-2.0,1
66.0,13.0,-258.0,-15.0,61.0,-3.0,1
67.0,13.0,-259.0,-14.0,60.0,-2.0,1
65.0,17.0,-255.0,-12.0,60.0,-2.0,1
65.0,14.0,-261.0,-12.0,61.0,-1.0,1
66.0,12.0,-258.0,-11.0,62.0,-2.0,1
67.0,13.0,-257.0,-8.0,62.0,-3.0,1
68.0,15.0,-260.0,-7.0,61.0,-2.0,1
66.0,14.0,-254.0,-6.0,62.0,-2.0,1
65.0,17.0,-255.0,-8.0,62.0,-3.0,1
67.0,14.0,-257.0,-12.0,62.0,-1.0,1
65.0,15.0,-252.0,-14.0,60.0,-2.0,1
68.0,13.0,-254.0,-17.0,59.0,-3.0,1
67.0,15.0,-255.0,-18.0,60.0,-4.0,1
66.0,12.0,-255.0,-16.0,59.0,-3.0,1
64.0,11.0,-253.0,-12.0,58.0,-2.0,1
67.0,14.0,-256.0,-7.0,57.0,-2.0,1
66.0,16.0,-260.0,-4.0,57.0,-2.0,1
70.0,14.0,-256.0,-4.0,57.0,-1.0,1
69.0,15.0,-258.0,-5.0,58.0,-2.0,1
67.0,15.0,-253.0,-7.0,59.0,-1.0,1
65.0,15.0,-257.0,-9.0,58.0,-2.0,1
69.0,13.0,-253.0,-13.0,58.0,-2.0,1
66.0,14.0,-251.0,-16.0,57.0,-2.0,1
67.0,14.0,-254.0,-20.0,60.0,-2.0,1
66.0,13.0,-258.0,-20.0,62.0,-4.0,1
64.0,18.0,-251.0,-20.0,61.0,-3.0,1
68.0,14.0,-256.0,-20.0,60.0,-4.0,1
66.0,15.0,-256.0,-18.0,60.0,-3.0,1
67.0,15.0,-252.0,-18.0,60.0,-4.0,1
65.0,16.0,-259.0,-17.0,59.0,-3.0,1
65.0,15.0,-254.0,-16.0,58.0,-3.0,1
64.0,15.0,-260.0,-14.0,57.0,-2.0,1
70.0,14.0,-254.0,-15.0,56.0,-3.0,1
66.0,15.0,-259.0,-15.0,56.0,-1.0,1
64.0,15.0,-255.0,-15.0,58.0,-3.0,1
66.0,14.0,-259.0,-14.0,56.0,-2.0,1
65.0,15.0,-255.0,-14.0,55.0,-3.0,1
67.0,13.0,-256.0,-12.0,57.0,-2.0,1
69.0,14.0,-255.0,-13.0,56.0,-4.0,1
68.0,13.0,-257.0,-15.0,58.0,-2.0,1
67.0,18.0,-252.0,-13.0,57.0,-4.0,1
66.0,16.0,-259.0,-13.0,56.0,-2.0,1
65.0,17.0,-255.0,-14.0,56.0,-4.0,1
66.0,14.0,-259.0,-15.0,56.0,-1.0,1
67.0,19.0,-256.0,-13.0,58.0,-4.0,1
67.0,11.0,-258.0,-14.0,58.0,-3.0,1
66.0,15.0,-254.0,-12.0,58.0,-4.0,1
67.0,14.0,-254.0,-14.0,57.0,-2.0,1
66.0,12.0,-254.0,-13.0,59.0,-4.0,1
65.0,13.0,-257.0,-12.0,58.0,-3.0,1
67.0,12.0,-255.0,-14.0,58.0,-3.0,1
65.0,13.0,-257.0,-13.0,60.0,-2.0,1
67.0,16.0,-257.0,-13.0,59.0,-3.0,1
66.0,14.0,-253.0,-15.0,59.0,-1.0,1
68.0,16.0,-254.0,-14.0,58.0,-2.0,1
66.0,16.0,-260.0,-14.0,56.0,-2.0,1
66.0,16.0,-256.0,-12.0,58.0,-2.0,1
65.0,15.0,-254.0,-11.0,58.0,-1.0,1
68.0,13.0,-255.0,-10.0,58.0,-2.0,1
69.0,14.0,-257.0,-9.0,58.0,1.0,1
68.0,16.0,-255.0,-12.0,58.0,-3.0,1
64.0,14.0,-258.0,-11.0,60.0,-1.0,1
65.0,12.0,-257.0,-12.0,60.0,-2.0,1
66.0,12.0,-256.0,-14.0,59.0,-2.0,1
67.0,15.0,-253.0,-14.0,59.0,-2.0,1
66.0,12.0,-260.0,-13.0,60.0,-1.0,1
67.0,12.0,-258.0,-11.0,61.0,-2.0,1
65.0,13.0,-259.0,-11.0,61.0,-2.0,1
65.0,16.0,-257.0,-13.0,62.0,-2.0,1
65.0,14.0,-255.0,-11.0,62.0,-1.0,1
65.0,16.0,-257.0,-11.0,62.0,-2.0,1
66.0,16.0,-255.0,-11.0,62.0,-1.0,1
65.0,13.0,-255.0,-12.0,62.0,-4.0,1
68.0,14.0,-256.0,-12.0,62.0,-1.0,1
64.0,15.0,-255.0,-13.0,61.0,-2.0,1
66.0,16.0,-257.0,-15.0,61.0,-2.0,1
70.0,13.0,-256.0,-15.0,62.0,-3.0,1
64.0,15.0,-256.0,-15.0,61.0,-2.0,1
65.0,14.0,-257.0,-15.0,63.0,-4.0,1
65.0,15.0,-256.0,-15.0,63.0,-2.0,1
64.0,16.0,-258.0,-15.0,62.0,-3.0,1
67.0,16.0,-257.0,-16.0,62.0,-1.0,1
64.0,15.0,-260.0,-15.0,63.0,-4.0,1
67.0,13.0,-259.0,-14.0,62.0,-2.0,1
66.0,14.0,-258.0,-15.0,63.0,-4.0,1
68.0,14.0,-254.0,-15.0,62.0,-3.0,1
65.0,15.0,-255.0,-15.0,61.0,-4.0,1
66.0,14.0,-253.0,-15.0,61.0,-3.0,1
64.0,17.0,-254.0,-15.0,60.0,-4.0,1
66.0,12.0,-253.0,-16.0,59.0,-2.0,1
67.0,14.0,-252.0,-16.0,58.0,-4.0,1
66.0,11.0,-258.0,-16.0,57.0,-2.0,1
66.0,17.0,-256.0,-15.0,57.0,-4.0,1
64.0,15.0,-255.0,-14.0,58.0,-2.0,1
67.0,14.0,-257.0,-14.0,56.0,-3.0,1
67.0,13.0,-257.0,-14.0,57.0,-1.0,1
65.0,15.0,-255.0,-12.0,56.0,-3.0,1
68.0,15.0,-256.0,-12.0,57.0,-2.0,1
68.0,13.0,-255.0,-13.0,59.0,-4.0,1
66.0,15.0,-254.0,-15.0,58.0,-1.0,1
67.0,14.0,-257.0,-14.0,58.0,-4.0,1
67.0,14.0,-260.0,-14.0,58.0,-2.0,1
67.0,19.0,-256.0,-14.0,57.0,-4.0,1
65.0,15.0,-254.0,-12.0,59.0,-3.0,1
66.0,13.0,-256.0,-13.0,58.0,-5.0,1
67.0,16.0,-255.0,-13.0,58.0,-3.0,1
66.0,13.0,-256.0,-13.0,59.0,-4.0,1
67.0,14.0,-254.0,-12.0,59.0,-3.0,1
63.0,14.0,-254.0,-12.0,59.0,-4.0,1
65.0,13.0,-260.0,-13.0,58.0,-2.0,1
65.0,17.0,-255.0,-13.0,58.0,-4.0,1
67.0,13.0,-257.0,-13.0,59.0,-1.0,1
66.0,15.0,-257.0,-13.0,60.0,-4.0,1
66.0,13.0,-253.0,-13.0,60.0,-1.0,1
65.0,15.0,-259.0,-14.0,59.0,-5.0,1
65.0,17.0,-254.0,-13.0,59.0,-3.0,1
65.0,17.0,-257.0,-13.0,60.0,-5.0,1
66.0,16.0,-255.0,-14.0,59.0,-2.0,1
67.0,15.0,-253.0,-13.0,59.0,-3.0,1
66.0,15.0,-253.0,-13.0,59.0,-1.0,1
67.0,13.0,-257.0,-14.0,59.0,-4.0,1
67.0,15.0,-258.0,-14.0,60.0,-1.0,1
66.0,16.0,-257.0,-12.0,60.0,-3.0,1
68.0,15.0,-260.0,-13.0,59.0,-2.0,1
63.0,14.0,-254.0,-12.0,60.0,-4.0,1
66.0,10.0,-255.0,-12.0,60.0,-2.0,1
64.0,15.0,-256.0,-13.0,60.0,-3.0,1
68.0,12.0,-257.0,-13.0,60.0,0.0,1
67.0,12.0,-257.0,-12.0,60.0,-3.0,1
67.0,14.0,-259.0,-12.0,61.0,-1.0,1
68.0,12.0,-256.0,-12.0,60.0,-3.0,1
65.0,13.0,-256.0,-14.0,60.0,-1.0,1
65.0,18.0,-257.0,-15.0,60.0,-4.0,1
67.0,16.0,-253.0,-14.0,60.0,-1.0,1
66.0,13.0,-256.0,-13.0,59.0,-5.0,1
66.0,16.0,-257.0,-14.0,60.0,-2.0,1
66.0,14.0,-256.0,-14.0,60.0,-4.0,1
67.0,17.0,-253.0,-13.0,60.0,-3.0,1
69.0,12.0,-255.0,-13.0,60.0,-4.0,1
67.0,15.0,-256.0,-14.0,60.0,-1.0,1
68.0,12.0,-258.0,-14.0,60.0,-4.0,1
65.0,16.0,-257.0,-14.0,59.0,-3.0,1
63.0,14.0,-255.0,-12.0,60.0,-5.0,1
66.0,12.0,-259.0,-13.0,59.0,-2.0,1
66.0,14.0,-257.0,-13.0,60.0,-4.0,1
66.0,13.0,-254.0,-13.0,59.0,-1.0,1
65.0,11.0,-256.0,-13.0,59.0,-3.0,1
63.0,13.0,-253.0,-14.0,59.0,0.0,1
69.0,12.0,-254.0,-13.0,58.0,-3.0,1
64.0,14.0,-259.0,-13.0,60.0,-2.0,1
66.0,13.0,-261.0,-12.0,59.0,-4.0,1
66.0,13.0,-256.0,-13.0,59.0,-2.0,1
67.0,14.0,-259.0,-13.0,59.0,-4.0,1
66.0,16.0,-254.0,-11.0,60.0,-2.0,1
63.0,16.0,-258.0,-13.0,59.0,-4.0,1
66.0,15.0,-256.0,-13.0,59.0,-2.0,1
64.0,14.0,-257.0,-14.0,58.0,-4.0,1
67.0,13.0,-258.0,-14.0,59.0,-1.0,1
65.0,15.0,-258.0,-13.0,59.0,-3.0,1
64.0,14.0,-258.0,-12.0,59.0,-3.0,1
67.0,15.0,-262.0,-12.0,59.0,-5.0,1
65.0,11.0,-254.0,-11.0,60.0,-1.0,1
66.0,16.0,-259.0,-11.0,59.0,-4.0,1
67.0,15.0,-258.0,-12.0,60.0,-2.0,1
65.0,16.0,-255.0,-12.0,60.0,-4.0,1
66.0,15.0,-256.0,-13.0,59.0,-1.0,1
66.0,15.0,-255.0,-13.0,59.0,-4.0,1
65.0,11.0,-257.0,-12.0,58.0,0.0,1
65.0,14.0,-257.0,-13.0,58.0,-3.0,1
68.0,13.0,-256.0,-14.0,59.0,-2.0,1
67.0,16.0,-255.0,-16.0,59.0,-4.0,1
65.0,13.0,-255.0,-15.0,60.0,-2.0,1
65.0,17.0,-256.0,-15.0,59.0,-3.0,1
64.0,16.0,-253.0,-16.0,59.0,-2.0,1
66.0,16.0,-258.0,-17.0,60.0,-4.0,1
67.0,12.0,-256.0,-16.0,60.0,-1.0,1
65.0,14.0,-258.0,-15.0,59.0,-4.0,1
67.0,14.0,-258.0,-14.0,60.0,-3.0,1
69.0,15.0,-257.0,-13.0,61.0,-3.0,1
66.0,14.0,-257.0,-11.0,61.0,-1.0,1
68.0,14.0,-259.0,-9.0,60.0,-4.0,1
67.0,15.0,-257.0,-7.0,62.0,-1.0,1
62.0,15.0,-258.0,-6.0,61.0,-4.0,1
65.0,15.0,-254.0,-7.0,60.0,-2.0,1
67.0,13.0,-258.0,-11.0,60.0,-3.0,1
66.0,15.0,-255.0,-13.0,61.0,-2.0,1
67.0,13.0,-255.0,-16.0,61.0,-4.0,1
64.0,12.0,-256.0,-17.0,61.0,-2.0,1
64.0,15.0,-255.0,-15.0,60.0,-3.0,1
67.0,11.0,-257.0,-11.0,61.0,-1.0,1
68.0,12.0,-260.0,-8.0,60.0,-3.0,1
64.0,17.0,-256.0,-5.0,59.0,-1.0,1
62.0,15.0,-260.0,-5.0,59.0,-2.0,1
66.0,16.0,-258.0,-6.0,61.0,1.0,1
67.0,12.0,-257.0,-8.0,60.0,-2.0,1
66.0,15.0,-255.0,-12.0,60.0,-1.0,1
67.0,13.0,-251.0,-15.0,59.0,-3.0,1
66.0,15.0,-256.0,-17.0,61.0,-1.0,1
64.0,16.0,-255.0,-19.0,61.0,-4.0,1
65.0,14.0,-256.0,-20.0,61.0,-2.0,1
66.0,12.0,-257.0,-20.0,61.0,-4.0,1
66.0,13.0,-257.0,-19.0,60.0,-2.0,1
69.0,13.0,-258.0,-20.0,59.0,-3.0,1
63.0,15.0,-257.0,-17.0,58.0,-1.0,1
65.0,16.0,-261.0,-16.0,56.0,-4.0,1
69.0,15.0,-258.0,-15.0,57.0,-1.0,1
65.0,11.0,-257.0,-14.0,57.0,-4.0,1
66.0,14.0,-257.0,-13.0,57.0,-1.0,1
66.0,15.0,-255.0,-13.0,57.0,-3.0,1
67.0,14.0,-252.0,-14.0,57.0,0.0,1
67.0,15.0,-256.0,-14.0,57.0,-2.0,1
66.0,18.0,-258.0,-15.0,56.0,-2.0,1
64.0,15.0,-254.0,-14.0,56.0,-3.0,1
68.0,15.0,-258.0,-14.0,56.0,-2.0,1
65.0,13.0,-254.0,-14.0,57.0,-4.0,1
67.0,17.0,-256.0,-13.0,58.0,-2.0,1
65.0,14.0,-254.0,-14.0,58.0,-4.0,1
65.0,16.0,-260.0,-14.0,59.0,-2.0,1
64.0,13.0,-254.0,-15.0,58.0,-4.0,1
64.0,14.0,-254.0,-14.0,59.0,-2.0,1
66.0,16.0,-255.0,-14.0,57.0,-4.0,1
63.0,13.0,-257.0,-14.0,57.0,-2.0,1
67.0,17.0,-258.0,-13.0,58.0,-5.0,1
63.0,13.0,-255.0,-13.0,59.0,-3.0,1
67.0,16.0,-257.0,-14.0,59.0,-5.0,1
67.0,16.0,-255.0,-13.0,59.0,-4.0,1
65.0,14.0,-253.0,-14.0,60.0,-4.0,1
67.0,14.0,-252.0,-14.0,60.0,-2.0,1
66.0,15.0,-255.0,-16.0,60.0,-5.0,1
66.0,17.0,-254.0,-15.0,59.0,-3.0,1
65.0,17.0,-254.0,-15.0,59.0,-3.0,1
64.0,15.0,-256.0,-14.0,57.0,-2.0,1
65.0,15.0,-253.0,-13.0,59.0,-4.0,1
66.0,12.0,-257.0,-11.0,58.0,-1.0,1
65.0,15.0,-253.0,-11.0,58.0,-3.0,1
65.0,17.0,-260.0,-13.0,60.0,-2.0,1
66.0,16.0,-257.0,-14.0,60.0,-4.0,1
67.0,13.0,-255.0,-13.0,59.0,-1.0,1
65.0,14.0,-259.0,-14.0,60.0,-3.0,1
67.0,12.0,-259.0,-14.0,60.0,-2.0,1
66.0,14.0,-258.0,-13.0,59.0,-4.0,1
66.0,15.0,-257.0,-14.0,58.0,-1.0,1
67.0,13.0,-259.0,-13.0,60.0,-3.0,1
68.0,13.0,-259.0,-12.0,62.0,-1.0,1
66.0,14.0,-256.0,-11.0,61.0,-3.0,1
65.0,14.0,-254.0,-12.0,62.0,-1.0,1
64.0,14.0,-256.0,-14.0,64.0,-2.0,1
65.0,15.0,-256.0,-14.0,66.0,-2.0,1
64.0,14.0,-258.0,-14.0,65.0,-3.0,1
63.0,18.0,-257.0,-16.0,64.0,-1.0,1
66.0,14.0,-257.0,-15.0,64.0,-3.0,1
66.0,15.0,-257.0,-17.0,64.0,-3.0,1
67.0,14.0,-255.0,-16.0,64.0,-4.0,1
64.0,17.0,-252.0,-17.0,64.0,-3.0,1
65.0,19.0,-257.0,-16.0,64.0,-4.0,1
64.0,17.0,-254.0,-15.0,64.0,-2.0,1
70.0,13.0,-254.0,-15.0,63.0,-3.0,1
68.0,12.0,-255.0,-15.0,64.0,-3.0,1
64.0,17.0,-257.0,-14.0,63.0,-2.0,1
67.0,14.0,-254.0,-14.0,63.0,-1.0,1
66.0,13.0,-255.0,-16.0,60.0,-3.0,1
66.0,16.0,-256.0,-15.0,60.0,-2.0,1
64.0,16.0,-253.0,-15.0,60.0,-4.0,1
65.0,15.0,-251.0,-14.0,60.0,-1.0,1
64.0,16.0,-252.0,-15.0,61.0,-2.0,1
65.0,15.0,-256.0,-15.0,58.0,-2.0,1
58.0,16.0,-250.0,-16.0,59.0,-4.0,1
63.0,15.0,-253.0,-15.0,59.0,-2.0,1
64.0,15.0,-254.0,-14.0,58.0,-3.0,1
66.0,13.0,-256.0,-14.0,58.0,-2.0,1
66.0,14.0,-258.0,-12.0,58.0,-3.0,1
66.0,16.0,-259.0,-13.0,57.0,-2.0,1
65.0,17.0,-257.0,-12.0,57.0,-3.0,1
65.0,15.0,-256.0,-14.0,59.0,-2.0,1
65.0,16.0,-252.0,-13.0,59.0,-3.0,1
67.0,15.0,-257.0,-12.0,58.0,-3.0,1
64.0,15.0,-254.0,-12.0,58.0,-3.0,1
66.0,16.0,-254.0,-12.0,60.0,-2.0,1
62.0,16.0,-255.0,-13.0,60.0,-4.0,1
66.0,15.0,-261.0,-13.0,61.0,-2.0,1
62.0,17.0,-252.0,-13.0,60.0,-4.0,1
65.0,14.0,-257.0,-13.0,59.0,-2.0,1
64.0,15.0,-256.0,-13.0,59.0,-3.0,1
67.0,15.0,-256.0,-12.0,59.0,-3.0,1
67.0,15.0,-250.0,-13.0,60.0,-3.0,1
67.0,16.0,-254.0,-12.0,60.0,-2.0,1
65.0,15.0,-256.0,-12.0,60.0,-4.0,1
65.0,14.0,-256.0,-13.0,59.0,-2.0,1
66.0,13.0,-254.0,-14.0,60.0,-2.0,1
64.0,15.0,-256.0,-14.0,62.0,-2.0,1
66.0,15.0,-259.0,-14.0,60.0,-3.0,1
69.0,17.0,-254.0,-13.0,61.0,-4.0,1
66.0,17.0,-257.0,-14.0,61.0,-3.0,1
67.0,16.0,-255.0,-13.0,60.0,-2.0,1
65.0,15.0,-251.0,-14.0,61.0,-3.0,1
66.0,14.0,-259.0,-14.0,60.0,-2.0,1
64.0,13.0,-260.0,-15.0,60.0,-3.0,1
63.0,15.0,-257.0,-14.0,61.0,-1.0,1
65.0,15.0,-258.0,-12.0,61.0,-2.0,1
68.0,14.0,-255.0,-14.0,61.0,-2.0,1
65.0,19.0,-256.0,-13.0,60.0,-3.0,1
66.0,14.0,-256.0,-13.0,61.0,-3.0,1
69.0,15.0,-259.0,-12.0,61.0,-4.0,1
66.0,13.0,-259.0,-13.0,61.0,-3.0,1
65.0,16.0,-256.0,-12.0,61.0,-3.0,1
63.0,17.0,-254.0,-13.0,61.0,-2.0,1
67.0,13.0,-255.0,-13.0,61.0,-3.0,1
64.0,14.0,-259.0,-15.0,61.0,-3.0,1
66.0,14.0,-258.0,-15.0,60.0,-2.0,1
64.0,15.0,-257.0,-14.0,62.0,-2.0,1
67.0,15.0,-252.0,-13.0,61.0,-2.0,1
67.0,13.0,-254.0,-13.0,62.0,-2.0,1
65.0,13.0,-256.0,-13.0,62.0,-3.0,1
65.0,15.0,-257.0,-13.0,61.0,-3.0,1
66.0,15.0,-257.0,-13.0,60.0,-3.0,1
64.0,18.0,-260.0,-14.0,61.0,-3.0,1
65.0,13.0,-255.0,-13.0,61.0,-3.0,1
66.0,15.0,-252.0,-14.0,60.0,-3.0,1
70.0,13.0,-257.0,-12.0,62.0,-4.0,1
64.0,15.0,-255.0,-12.0,62.0,-4.0,1
67.0,16.0,-254.0,-12.0,61.0,-3.0,1
64.0,14.0,-254.0,-13.0,60.0,-3.0,1
67.0,13.0,-254.0,-13.0,60.0,-3.0,1
67.0,16.0,-258.0,-13.0,61.0,-3.0,1
67.0,16.0,-262.0,-12.0,60.0,-3.0,1
66.0,13.0,-255.0,-14.0,61.0,-3.0,1
66.0,15.0,-257.0,-13.0,61.0,-2.0,1
68.0,17.0,-256.0,-13.0,61.0,-2.0,1
66.0,17.0,-254.0,-13.0,60.0,-3.0,1
66.0,15.0,-256.0,-12.0,61.0,-3.0,1
63.0,16.0,-254.0,-11.0,60.0,-2.0,1
68.0,19.0,-260.0,-12.0,60.0,-2.0,1
67.0,15.0,-262.0,-13.0,60.0,-2.0,1
66.0,17.0,-254.0,-13.0,61.0,-2.0,1
64.0,13.0,-256.0,-13.0,61.0,-3.0,1
65.0,15.0,-254.0,-13.0,61.0,-3.0,1
65.0,15.0,-255.0,-13.0,59.0,-3.0,1
65.0,17.0,-253.0,-13.0,60.0,-3.0,1
66.0,13.0,-253.0,-13.0,61.0,-1.0,1
68.0,14.0,-256.0,-13.0,61.0,-3.0,1
65.0,16.0,-257.0,-12.0,59.0,-2.0,1
66.0,14.0,-257.0,-13.0,58.0,-2.0,1
66.0,11.0,-256.0,-13.0,58.0,-3.0,1
65.0,14.0,-253.0,-13.0,59.0,-2.0,1
66.0,14.0,-255.0,-12.0,59.0,-3.0,1
66.0,15.0,-257.0,-14.0,59.0,-2.0,1
65.0,14.0,-255.0,-12.0,59.0,-1.0,1
68.0,15.0,-257.0,-11.0,58.0,-3.0,1
65.0,14.0,-261.0,-11.0,58.0,-2.0,1
68.0,11.0,-256.0,-12.0,58.0,-3.0,1
68.0,15.0,-260.0,-11.0,59.0,-2.0,1
66.0,15.0,-253.0,-12.0,60.0,-2.0,1
65.0,13.0,-257.0,-11.0,60.0,-2.0,1
67.0,13.0,-259.0,-14.0,60.0,-4.0,1
64.0,15.0,-257.0,-15.0,59.0,-3.0,1
67.0,15.0,-257.0,-16.0,59.0,-3.0,1
66.0,15.0,-258.0,-15.0,61.0,-3.0,1
64.0,14.0,-256.0,-15.0,60.0,-3.0,1
66.0,17.0,-251.0,-15.0,59.0,-2.0,1
67.0,15.0,-257.0,-17.0,57.0,-3.0,1
65.0,16.0,-255.0,-17.0,57.0,-3.0,1
68.0,13.0,-257.0,-16.0,59.0,-2.0,1
68.0,12.0,-257.0,-15.0,60.0,-4.0,1
64.0,16.0,-255.0,-13.0,61.0,-4.0,1
70.0,13.0,-257.0,-13.0,62.0,-3.0,1
65.0,16.0,-254.0,-12.0,62.0,-2.0,1
65.0,15.0,-257.0,-10.0,60.0,-2.0,1
68.0,17.0,-261.0,-9.0,61.0,-3.0,1
66.0,13.0,-252.0,-9.0,60.0,-2.0,1
64.0,12.0,-253.0,-12.0,60.0,-3.0,1
65.0,15.0,-255.0,-14.0,59.0,-3.0,1
66.0,17.0,-251.0,-16.0,58.0,-4.0,1
68.0,13.0,-252.0,-17.0,57.0,-3.0,1
64.0,15.0,-256.0,-17.0,59.0,-3.0,1
67.0,16.0,-258.0,-13.0,59.0,-1.0,1
66.0,14.0,-258.0,-10.0,59.0,-2.0,1
68.0,13.0,-256.0,-6.0,59.0,0.0,1
67.0,14.0,-257.0,-6.0,61.0,-2.0,1
66.0,14.0,-252.0,-6.0,61.0,0.0,1
68.0,14.0,-257.0,-7.0,61.0,-2.0,1
66.0,12.0,-253.0,-8.0,61.0,-2.0,1
64.0,15.0,-253.0,-13.0,60.0,-4.0,1
66.0,15.0,-255.0,-16.0,60.0,-3.0,1
67.0,14.0,-257.0,-18.0,61.0,-4.0,1
66.0,15.0,-257.0,-19.0,61.0,-2.0,1
66.0,14.0,-254.0,-18.0,61.0,-3.0,1
64.0,13.0,-257.0,-18.0,60.0,-3.0,1
67.0,11.0,-257.0,-18.0,59.0,-4.0,1
67.0,16.0,-256.0,-17.0,59.0,-2.0,1
66.0,18.0,-254.0,-15.0,59.0,-3.0,1
68.0,15.0,-255.0,-16.0,59.0,-2.0,1
64.0,12.0,-254.0,-16.0,59.0,-3.0,1
65.0,16.0,-255.0,-13.0,59.0,-2.0,1
64.0,16.0,-254.0,-13.0,57.0,-3.0,1
67.0,15.0,-259.0,-12.0,58.0,-2.0,1
65.0,15.0,-254.0,-13.0,56.0,-3.0,1
68.0,13.0,-252.0,-13.0,57.0,-2.0,1
67.0,15.0,-259.0,-13.0,57.0,-3.0,1
67.0,13.0,-258.0,-14.0,57.0,-2.0,1
67.0,15.0,-257.0,-14.0,57.0,-3.0,1
67.0,16.0,-255.0,-14.0,59.0,-4.0,1
66.0,15.0,-258.0,-14.0,58.0,-3.0,1
70.0,13.0,-250.0,-13.0,57.0,-2.0,1
66.0,15.0,-259.0,-14.0,56.0,-4.0,1
65.0,11.0,-255.0,-15.0,59.0,-2.0,1
63.0,16.0,-253.0,-15.0,58.0,-4.0,1
64.0,15.0,-259.0,-13.0,58.0,-2.0,1
67.0,13.0,-259.0,-15.0,58.0,-4.0,1
61.0,19.0,-246.0,-13.0,58.0,-2.0,1
64.0,17.0,-254.0,-13.0,58.0,-4.0,1
65.0,15.0,-253.0,-13.0,58.0,-1.0,1
65.0,14.0,-255.0,-13.0,59.0,-3.0,1
64.0,14.0,-255.0,-14.0,58.0,-2.0,1
65.0,15.0,-257.0,-14.0,57.0,-3.0,1
68.0,16.0,-253.0,-15.0,59.0,-1.0,1
66.0,16.0,-257.0,-16.0,58.0,-4.0,1
68.0,15.0,-256.0,-15.0,58.0,0.0,1
66.0,13.0,-253.0,-15.0,58.0,-3.0,1
67.0,13.0,-259.0,-14.0,58.0,-1.0,1
65.0,13.0,-257.0,-12.0,59.0,-4.0,1
66.0,13.0,-258.0,-12.0,58.0,-1.0,1
66.0,14.0,-258.0,-13.0,59.0,-2.0,1
66.0,15.0,-257.0,-13.0,60.0,-2.0,1
66.0,17.0,-254.0,-14.0,59.0,-3.0,1
69.0,13.0,-255.0,-15.0,58.0,-2.0,1
65.0,15.0,-255.0,-14.0,60.0,-4.0,1
66.0,12.0,-258.0,-14.0,59.0,-1.0,1
64.0,16.0,-257.0,-13.0,60.0,-3.0,1
66.0,14.0,-256.0,-11.0,59.0,-1.0,1
65.0,13.0,-252.0,-11.0,61.0,-4.0,1
66.0,13.0,-255.0,-11.0,61.0,-2.0,1
67.0,14.0,-255.0,-13.0,63.0,-4.0,1
68.0,13.0,-256.0,-14.0,62.0,-1.0,1
67.0,14.0,-256.0,-13.0,63.0,-3.0,1
64.0,15.0,-258.0,-14.0,63.0,-2.0,1
65.0,14.0,-259.0,-15.0,63.0,-3.0,1
65.0,13.0,-258.0,-16.0,64.0,-2.0,1
66.0,16.0,-253.0,-16.0,63.0,-3.0,1
62.0,15.0,-258.0,-14.0,62.0,-3.0,1
68.0,13.0,-260.0,-14.0,61.0,-3.0,1
65.0,15.0,-257.0,-15.0,62.0,-2.0,1
62.0,17.0,-258.0,-16.0,62.0,-4.0,1
64.0,16.0,-255.0,-15.0,62.0,-2.0,1
66.0,16.0,-254.0,-14.0,61.0,-4.0,1
64.0,17.0,-261.0,-15.0,60.0,-2.0,1
68.0,17.0,-253.0,-15.0,60.0,-3.0,1
68.0,14.0,-259.0,-15.0,60.0,0.0,1
65.0,14.0,-256.0,-14.0,59.0,-3.0,1
65.0,12.0,-254.0,-14.0,60.0,-1.0,1
65.0,13.0,-259.0,-14.0,59.0,-4.0,1
67.0,13.0,-257.0,-15.0,59.0,-2.0,1
67.0,14.0,-255.0,-14.0,59.0,-3.0,1
64.0,15.0,-251.0,-13.0,58.0,-2.0,1
66.0,14.0,-257.0,-14.0,58.0,-3.0,1
66.0,14.0,-253.0,-13.0,59.0,-2.0,1
64.0,12.0,-259.0,-12.0,58.0,-4.0,1
67.0,15.0,-257.0,-12.0,57.0,-1.0,1
69.0,13.0,-255.0,-13.0,58.0,-4.0,1
65.0,14.0,-258.0,-12.0,58.0,-1.0,1
66.0,14.0,-258.0,-12.0,57.0,-3.0,1
65.0,16.0,-256.0,-12.0,57.0,-2.0,1
65.0,15.0,-257.0,-13.0,59.0,-4.0,1
64.0,17.0,-256.0,-12.0,59.0,-1.0,1
67.0,13.0,-256.0,-11.0,59.0,-4.0,1
66.0,13.0,-260.0,-11.0,59.0,-1.0,1
65.0,15.0,-258.0,-11.0,58.0,-3.0,1
67.0,14.0,-257.0,-11.0,59.0,-1.0,1
64.0,10.0,-258.0,-13.0,60.0,-3.0,1
64.0,14.0,-255.0,-12.0,60.0,-2.0,1
66.0,11.0,-260.0,-13.0,59.0,-4.0,1
65.0,17.0,-256.0,-13.0,61.0,-2.0,1
66.0,14.0,-256.0,-15.0,59.0,-4.0,1
64.0,15.0,-253.0,-14.0,61.0,-2.0,1
64.0,14.0,-255.0,-12.0,60.0,-3.0,1
66.0,12.0,-256.0,-14.0,59.0,0.0,1
65.0,16.0,-255.0,-13.0,61.0,-5.0,1
66.0,13.0,-253.0,-13.0,61.0,-1.0,1
64.0,15.0,-254.0,-14.0,61.0,-3.0,1
66.0,13.0,-255.0,-13.0,59.0,-1.0,1
67.0,14.0,-258.0,-14.0,59.0,-3.0,1
69.0,13.0,-254.0,-14.0,59.0,0.0,1
66.0,15.0,-260.0,-13.0,60.0,-4.0,1
65.0,14.0,-256.0,-12.0,58.0,0.0,1
64.0,15.0,-258.0,-14.0,57.0,-4.0,1
68.0,15.0,-254.0,-13.0,59.0,0.0,1
66.0,13.0,-257.0,-12.0,59.0,-4.0,1
68.0,16.0,-256.0,-13.0,58.0,-2.0,1
66.0,13.0,-258.0,-14.0,58.0,-4.0,1
64.0,13.0,-252.0,-14.0,58.0,-2.0,1
64.0,17.0,-254.0,-14.0,58.0,-4.0,1
64.0,16.0,-256.0,-13.0,58.0,-2.0,1
65.0,15.0,-259.0,-14.0,59.0,-4.0,1
65.0,16.0,-257.0,-14.0,58.0,-1.0,1
66.0,13.0,-255.0,-13.0,59.0,-4.0,1
66.0,19.0,-258.0,-13.0,59.0,0.0,1
68.0,15.0,-259.0,-14.0,59.0,-3.0,1
67.0,14.0,-257.0,-13.0,58.0,-1.0,1
66.0,14.0,-251.0,-13.0,58.0,-3.0,1
66.0,13.0,-254.0,-13.0,59.0,-2.0,1
67.0,15.0,-256.0,-13.0,59.0,-3.0,1
68.0,15.0,-258.0,-12.0,59.0,-1.0,1
68.0,12.0,-261.0,-12.0,59.0,-4.0,1
66.0,17.0,-257.0,-13.0,59.0,-1.0,1
63.0,15.0,-257.0,-13.0,58.0,-4.0,1
68.0,16.0,-253.0,-12.0,60.0,0.0,1
67.0,13.0,-255.0,-13.0,59.0,-3.0,1
68.0,14.0,-255.0,-13.0,57.0,-1.0,1
66.0,16.0,-255.0,-14.0,57.0,-4.0,1
64.0,17.0,-255.0,-13.0,58.0,-1.0,1
68.0,16.0,-256.0,-13.0,58.0,-3.0,1
65.0,15.0,-254.0,-11.0,58.0,-1.0,1
65.0,14.0,-260.0,-13.0,58.0,-3.0,1
65.0,15.0,-253.0,-12.0,57.0,-2.0,1
68.0,16.0,-255.0,-12.0,59.0,-4.0,1
66.0,12.0,-255.0,-12.0,58.0,-2.0,1
66.0,13.0,-257.0,-13.0,58.0,-3.0,1
67.0,16.0,-257.0,-12.0,57.0,-1.0,1
66.0,13.0,-255.0,-13.0,57.0,-3.0,1
66.0,17.0,-256.0,-11.0,57.0,-2.0,1
65.0,14.0,-254.0,-13.0,58.0,-3.0,1
66.0,15.0,-255.0,-13.0,59.0,-1.0,1
64.0,14.0,-255.0,-14.0,59.0,-3.0,1
64.0,17.0,-258.0,-13.0,59.0,-2.0,1
67.0,15.0,-254.0,-13.0,59.0,-4.0,1
66.0,13.0,-254.0,-12.0,60.0,-1.0,1
67.0,13.0,-256.0,-13.0,59.0,-4.0,1
67.0,14.0,-259.0,-13.0,59.0,-2.0,1
67.0,14.0,-254.0,-13.0,59.0,-4.0,1
69.0,10.0,-256.0,-14.0,59.0,-1.0,1
65.0,12.0,-251.0,-13.0,59.0,-5.0,1
63.0,14.0,-255.0,-13.0,59.0,-2.0,1
67.0,17.0,-258.0,-12.0,60.0,-4.0,1
66.0,14.0,-259.0,-12.0,61.0,-2.0,1
66.0,13.0,-254.0,-14.0,60.0,-3.0,1
62.0,16.0,-260.0,-13.0,60.0,-1.0,1
68.0,14.0,-259.0,-14.0,60.0,-4.0,1
65.0,15.0,-256.0,-14.0,60.0,-2.0,1
64.0,17.0,-257.0,-13.0,61.0,-3.0,1
66.0,17.0,-251.0,-14.0,61.0,0.0,1
67.0,15.0,-254.0,-13.0,61.0,-3.0,1
65.0,12.0,-255.0,-13.0,61.0,-2.0,1
67.0,12.0,-258.0,-12.0,60.0,-4.0,1
66.0,15.0,-253.0,-12.0,61.0,-2.0,1
68.0,12.0,-256.0,-13.0,60.0,-5.0,1
65.0,14.0,-258.0,-13.0,60.0,-3.0,1
66.0,14.0,-260.0,-11.0,60.0,-4.0,1
66.0,13.0,-257.0,-12.0,60.0,-3.0,1
67.0,13.0,-251.0,-12.0,60.0,-4.0,1
68.0,14.0,-258.0,-12.0,61.0,-1.0,1
64.0,16.0,-255.0,-12.0,60.0,-4.0,1
66.0,14.0,-255.0,-13.0,60.0,-1.0,1
65.0,14.0,-257.0,-13.0,59.0,-3.0,1
66.0,15.0,-254.0,-13.0,59.0,-1.0,1
65.0,17.0,-255.0,-12.0,59.0,-2.0,1
64.0,16.0,-256.0,-12.0,59.0,-1.0,1
66.0,16.0,-256.0,-13.0,59.0,-3.0,1
66.0,16.0,-257.0,-13.0,60.0,-1.0,1
68.0,15.0,-258.0,-14.0,60.0,-3.0,1
66.0,13.0,-257.0,-12.0,60.0,-2.0,1
66.0,16.0,-256.0,-12.0,60.0,-3.0,1
66.0,14.0,-257.0,-13.0,60.0,-1.0,1
62.0,15.0,-254.0,-12.0,59.0,-3.0,1
64.0,16.0,-257.0,-12.0,59.0,-1.0,1
69.0,14.0,-256.0,-13.0,60.0,-3.0,1
66.0,13.0,-256.0,-13.0,60.0,-2.0,1
65.0,16.0,-260.0,-13.0,60.0,-3.0,1
65.0,17.0,-257.0,-14.0,59.0,-2.0,1
66.0,16.0,-258.0,-14.0,58.0,-3.0,1
67.0,16.0,-257.0,-14.0,59.0,-1.0,1
65.0,16.0,-255.0,-14.0,59.0,-4.0,1
65.0,13.0,-255.0,-13.0,61.0,-2.0,1
67.0,14.0,-254.0,-15.0,61.0,-5.0,1
65.0,15.0,-255.0,-14.0,59.0,-2.0,1
64.0,13.0,-258.0,-14.0,61.0,-3.0,1
65.0,13.0,-258.0,-14.0,60.0,-2.0,1
68.0,15.0,-258.0,-13.0,60.0,-3.0,1
65.0,14.0,-257.0,-13.0,61.0,-1.0,1
66.0,13.0,-260.0,-11.0,61.0,-4.0,1
65.0,18.0,-255.0,-9.0,60.0,-1.0,1
67.0,13.0,-256.0,-7.0,59.0,-3.0,1
65.0,12.0,-255.0,-10.0,59.0,-2.0,1
64.0,14.0,-256.0,-13.0,59.0,-4.0,1
65.0,16.0,-253.0,-14.0,59.0,-1.0,1
66.0,15.0,-256.0,-16.0,58.0,-4.0,1
65.0,15.0,-260.0,-16.0,57.0,-2.0,1
68.0,13.0,-255.0,-14.0,58.0,-3.0,1
66.0,13.0,-259.0,-9.0,57.0,0.0,1
66.0,16.0,-261.0,-6.0,59.0,-2.0,1
65.0,15.0,-258.0,-5.0,59.0,0.0,1
65.0,15.0,-257.0,-6.0,59.0,-2.0,1
68.0,13.0,-258.0,-5.0,59.0,-1.0,1
68.0,14.0,-253.0,-9.0,59.0,-3.0,1
66.0,17.0,-254.0,-12.0,59.0,-2.0,1
65.0,17.0,-253.0,-15.0,61.0,-3.0,1
66.0,14.0,-256.0,-19.0,61.0,-1.0,1
68.0,12.0,-254.0,-20.0,62.0,-4.0,1
66.0,14.0,-259.0,-19.0,62.0,-1.0,1
64.0,14.0,-258.0,-18.0,61.0,-4.0,1
64.0,14.0,-252.0,-18.0,60.0,-2.0,1
66.0,14.0,-258.0,-17.0,60.0,-3.0,1
65.0,15.0,-259.0,-15.0,59.0,-2.0,1
64.0,14.0,-258.0,-16.0,58.0,-3.0,1
66.0,15.0,-256.0,-15.0,57.0,-1.0,1
65.0,13.0,-259.0,-14.0,58.0,-3.0,1
64.0,14.0,-253.0,-13.0,58.0,-2.0,1
64.0,16.0,-256.0,-14.0,59.0,-3.0,1
68.0,16.0,-256.0,-12.0,59.0,-1.0,1
65.0,13.0,-256.0,-12.0,59.0,-3.0,1
67.0,15.0,-255.0,-13.0,58.0,0.0,1
66.0,16.0,-256.0,-13.0,58.0,-3.0,1
67.0,12.0,-256.0,-14.0,58.0,-2.0,1
66.0,14.0,-256.0,-13.0,58.0,-5.0,1
67.0,11.0,-258.0,-14.0,58.0,-2.0,1
67.0,14.0,-258.0,-13.0,58.0,-4.0,1
66.0,14.0,-260.0,-13.0,59.0,-2.0,1
64.0,15.0,-254.0,-13.0,59.0,-3.0,1
67.0,13.0,-257.0,-13.0,59.0,-2.0,1
64.0,17.0,-258.0,-12.0,59.0,-4.0,1
68.0,16.0,-254.0,-14.0,59.0,-2.0,1
66.0,12.0,-260.0,-14.0,60.0,-4.0,1
67.0,15.0,-255.0,-12.0,61.0,-2.0,1
67.0,13.0,-260.0,-13.0,62.0,-4.0,1
65.0,15.0,-256.0,-13.0,60.0,-3.0,1
65.0,15.0,-258.0,-12.0,60.0,-3.0,1
66.0,13.0,-255.0,-13.0,61.0,-2.0,1
69.0,15.0,-252.0,-15.0,60.0,-3.0,1
65.0,15.0,-259.0,-14.0,59.0,-2.0,1
66.0,11.0,-254.0,-15.0,59.0,-4.0,1
62.0,13.0,-256.0,-16.0,58.0,-2.0,1
68.0,13.0,-258.0,-13.0,59.0,-3.0,1
64.0,16.0,-253.0,-12.0,58.0,-3.0,1
65.0,15.0,-256.0,-11.0,58.0,-2.0,1
66.0,15.0,-256.0,-10.0,59.0,-1.0,1
65.0,15.0,-254.0,-12.0,59.0,-2.0,1
65.0,15.0,-255.0,-13.0,59.0,-2.0,1
65.0,15.0,-254.0,-14.0,61.0,-3.0,1
67.0,15.0,-254.0,-13.0,62.0,-2.0,1
67.0,11.0,-259.0,-13.0,60.0,-3.0,1
64.0,13.0,-254.0,-12.0,61.0,-1.0,1
67.0,14.0,-261.0,-12.0,61.0,-2.0,1
65.0,14.0,-260.0,-11.0,60.0,-2.0,1
68.0,15.0,-257.0,-11.0,63.0,-2.0,1
63.0,14.0,-257.0,-12.0,63.0,-2.0,1
64.0,13.0,-258.0,-12.0,62.0,-3.0,1
65.0,13.0,-255.0,-13.0,62.0,-2.0,1
64.0,16.0,-257.0,-13.0,63.0,-4.0,1
64.0,14.0,-254.0,-14.0,63.0,-3.0,1
66.0,12.0,-253.0,-14.0,63.0,-4.0,1
66.0,13.0,-255.0,-15.0,63.0,-2.0,1
68.0,13.0,-260.0,-14.0,62.0,-3.0,1
66.0,14.0,-258.0,-17.0,62.0,-2.0,1
66.0,14.0,-254.0,-16.0,62.0,-4.0,1
65.0,17.0,-254.0,-16.0,63.0,-3.0,1
67.0,12.0,-255.0,-15.0,63.0,-3.0,1
65.0,15.0,-255.0,-14.0,62.0,-1.0,1
64.0,15.0,-253.0,-14.0,62.0,-3.0,1
68.0,13.0,-258.0,-13.0,61.0,-2.0,1
62.0,17.0,-254.0,-13.0,61.0,-3.0,1
66.0,13.0,-251.0,-13.0,61.0,-3.0,1
66.0,15.0,-258.0,-14.0,60.0,-4.0,1
64.0,14.0,-254.0,-14.0,59.0,-2.0,1
64.0,14.0,-257.0,-14.0,59.0,-3.0,1
67.0,13.0,-256.0,-13.0,58.0,-3.0,1
66.0,14.0,-254.0,-13.0,58.0,-2.0,1
66.0,15.0,-254.0,-13.0,59.0,-2.0,1
63.0,15.0,-257.0,-13.0,58.0,-3.0,1
68.0,12.0,-256.0,-14.0,58.0,-1.0,1
66.0,15.0,-259.0,-12.0,58.0,-3.0,1
64.0,16.0,-258.0,-13.0,57.0,-4.0,1
67.0,13.0,-256.0,-11.0,57.0,-3.0,1
64.0,14.0,-255.0,-12.0,58.0,-3.0,1
65.0,12.0,-257.0,-13.0,58.0,-2.0,1
65.0,15.0,-254.0,-13.0,60.0,-1.0,1
63.0,15.0,-256.0,-13.0,60.0,-3.0,1
64.0,14.0,-258.0,-13.0,61.0,-2.0,1
67.0,14.0,-257.0,-13.0,60.0,-3.0,1
65.0,14.0,-257.0,-13.0,61.0,-2.0,1
64.0,15.0,-255.0,-14.0,61.0,-3.0,1
69.0,12.0,-256.0,-15.0,61.0,-3.0,1
67.0,16.0,-258.0,-14.0,61.0,-3.0,1
66.0,15.0,-258.0,-14.0,62.0,-4.0,1
66.0,14.0,-259.0,-14.0,60.0,-3.0,1
66.0,14.0,-255.0,-14.0,62.0,-3.0,1
66.0,13.0,-253.0,-16.0,62.0,-4.0,1
63.0,15.0,-259.0,-17.0,63.0,-4.0,1
64.0,13.0,-254.0,-16.0,61.0,-4.0,1
66.0,13.0,-257.0,-18.0,62.0,-2.0,1
66.0,14.0,-253.0,-17.0,62.0,-3.0,1
67.0,13.0,-256.0,-16.0,62.0,-4.0,1
68.0,14.0,-259.0,-16.0,62.0,-4.0,1
65.0,16.0,-254.0,-16.0,64.0,-3.0,1
68.0,15.0,-256.0,-17.0,63.0,-4.0,1
65.0,15.0,-259.0,-17.0,63.0,-4.0,1
66.0,15.0,-256.0,-17.0,64.0,-5.0,1
64.0,15.0,-259.0,-20.0,65.0,-4.0,1
68.0,13.0,-256.0,-20.0,66.0,-4.0,1
67.0,14.0,-261.0,-19.0,65.0,-5.0,1
66.0,14.0,-256.0,-18.0,67.0,-5.0,1
67.0,15.0,-260.0,-20.0,68.0,-5.0,1
69.0,14.0,-257.0,-17.0,68.0,-5.0,1
64.0,17.0,-263.0,-17.0,67.0,-5.0,1
66.0,13.0,-254.0,-17.0,69.0,-4.0,1
64.0,15.0,-258.0,-16.0,70.0,-6.0,1
66.0,16.0,-259.0,-16.0,71.0,-7.0,1
64.0,16.0,-255.0,-15.0,74.0,-5.0,1
67.0,14.0,-259.0,-15.0,76.0,-6.0,1
66.0,11.0,-259.0,-17.0,77.0,-7.0,1
66.0,13.0,-257.0,-16.0,81.0,-7.0,1
69.0,12.0,-257.0,-17.0,83.0,-8.0,1
65.0,17.0,-258.0,-18.0,87.0,-9.0,1
69.0,14.0,-257.0,-17.0,89.0,-9.0,1
66.0,15.0,-258.0,-17.0,92.0,-9.0,1
68.0,14.0,-260.0,-17.0,94.0,-10.0,1
67.0,15.0,-257.0,-19.0,96.0,-11.0,1
67.0,14.0,-255.0,-19.0,97.0,-12.0,1
66.0,16.0,-257.0,-20.0,96.0,-11.0,1
65.0,13.0,-258.0,-20.0,97.0,-10.0,1
67.0,17.0,-253.0,-19.0,99.0,-10.0,1
67.0,14.0,-252.0,-19.0,100.0,-12.0,1
64.0,15.0,-252.0,-18.0,100.0,-10.0,1
67.0,14.0,-257.0,-15.0,98.0,-9.0,1
65.0,18.0,-257.0,-15.0,98.0,-9.0,1
67.0,15.0,-255.0,-11.0,97.0,-9.0,1
68.0,16.0,-254.0,-11.0,97.0,-8.0,1
65.0,17.0,-253.0,-9.0,97.0,-7.0,1
65.0,16.0,-253.0,-10.0,96.0,-8.0,1
66.0,16.0,-251.0,-10.0,94.0,-9.0,1
68.0,15.0,-256.0,-10.0,94.0,-7.0,1
68.0,15.0,-254.0,-9.0,93.0,-8.0,1
67.0,15.0,-252.0,-9.0,92.0,-7.0,1
66.0,17.0,-254.0,-10.0,88.0,-9.0,1
68.0,15.0,-253.0,-10.0,85.0,-7.0,1
69.0,14.0,-252.0,-10.0,84.0,-7.0,1
70.0,12.0,-254.0,-9.0,77.0,-7.0,1
65.0,14.0,-254.0,-8.0,75.0,-5.0,1
67.0,18.0,-254.0,-9.0,75.0,-5.0,1
66.0,14.0,-252.0,-8.0,73.0,-5.0,1
67.0,13.0,-256.0,-5.0,71.0,-4.0,1
67.0,11.0,-254.0,-5.0,69.0,-5.0,1
65.0,13.0,-255.0,-6.0,67.0,-3.0,1
67.0,14.0,-254.0,-7.0,66.0,-5.0,1
65.0,14.0,-254.0,-9.0,67.0,-3.0,1
66.0,15.0,-250.0,-10.0,67.0,-5.0,1
66.0,15.0,-252.0,-12.0,67.0,-4.0,1
67.0,11.0,-253.0,-14.0,66.0,-5.0,1
69.0,15.0,-253.0,-16.0,65.0,-4.0,1
65.0,16.0,-250.0,-18.0,61.0,-5.0,1
68.0,12.0,-254.0,-22.0,59.0,-4.0,1
66.0,11.0,-255.0,-19.0,57.0,-5.0,1
67.0,15.0,-258.0,-23.0,55.0,-4.0,1
66.0,14.0,-253.0,-25.0,55.0,-5.0,1
71.0,12.0,-252.0,-28.0,55.0,-5.0,1
68.0,15.0,-251.0,-30.0,55.0,-5.0,1
66.0,13.0,-254.0,-32.0,53.0,-6.0,1
67.0,15.0,-258.0,-32.0,51.0,-6.0,1
66.0,13.0,-251.0,-31.0,50.0,-5.0,1
69.0,14.0,-257.0,-33.0,48.0,-6.0,1
67.0,16.0,-260.0,-31.0,47.0,-5.0,1
68.0,14.0,-256.0,-29.0,45.0,-5.0,1
69.0,15.0,-258.0,-28.0,42.0,-3.0,1
67.0,15.0,-255.0,-26.0,42.0,-5.0,1
69.0,13.0,-258.0,-27.0,42.0,-2.0,1
67.0,17.0,-260.0,-27.0,42.0,-4.0,1
68.0,16.0,-256.0,-26.0,40.0,-3.0,1
69.0,15.0,-257.0,-27.0,40.0,-4.0,1
69.0,18.0,-254.0,-28.0,41.0,-3.0,1
67.0,17.0,-254.0,-27.0,39.0,-4.0,1
69.0,15.0,-255.0,-26.0,39.0,-2.0,1
65.0,18.0,-259.0,-26.0,38.0,-3.0,1
67.0,16.0,-254.0,-26.0,37.0,-3.0,1
69.0,17.0,-255.0,-24.0,36.0,-3.0,1
69.0,16.0,-259.0,-23.0,34.0,-1.0,1
67.0,16.0,-253.0,-20.0,33.0,-2.0,1
65.0,14.0,-253.0,-18.0,32.0,-2.0,1
67.0,17.0,-255.0,-17.0,32.0,-3.0,1
66.0,15.0,-254.0,-16.0,32.0,-2.0,1
65.0,16.0,-255.0,-14.0,33.0,-1.0,1
67.0,17.0,-256.0,-13.0,35.0,-1.0,1
65.0,17.0,-257.0,-13.0,37.0,-3.0,1
66.0,15.0,-258.0,-11.0,38.0,-2.0,1
66.0,16.0,-258.0,-10.0,38.0,-4.0,1
66.0,16.0,-255.0,-11.0,41.0,-3.0,1
67.0,14.0,-257.0,-13.0,42.0,-5.0,1
67.0,15.0,-253.0,-13.0,45.0,-4.0,1
65.0,16.0,-259.0,-13.0,45.0,-5.0,1
66.0,14.0,-256.0,-15.0,45.0,-3.0,1
65.0,16.0,-260.0,-16.0,44.0,-5.0,1
67.0,15.0,-254.0,-15.0,45.0,-3.0,1
66.0,13.0,-262.0,-14.0,46.0,-4.0,1
67.0,17.0,-261.0,-10.0,48.0,-1.0,1
66.0,12.0,-257.0,-9.0,49.0,-4.0,1
67.0,15.0,-259.0,-6.0,53.0,-2.0,1
68.0,14.0,-258.0,-6.0,55.0,-4.0,1
67.0,13.0,-259.0,-7.0,61.0,-4.0,1
66.0,15.0,-258.0,-7.0,65.0,-5.0,1
66.0,16.0,-258.0,-9.0,68.0,-4.0,1
68.0,13.0,-256.0,-11.0,70.0,-6.0,1
62.0,16.0,-256.0,-12.0,73.0,-4.0,1
65.0,14.0,-256.0,-13.0,75.0,-6.0,1
63.0,14.0,-253.0,-15.0,76.0,-4.0,1
63.0,15.0,-254.0,-14.0,77.0,-6.0,1
65.0,17.0,-253.0,-14.0,76.0,-4.0,1
66.0,14.0,-256.0,-13.0,77.0,-5.0,1
67.0,14.0,-254.0,-14.0,78.0,-3.0,1
67.0,13.0,-255.0,-15.0,77.0,-5.0,1
68.0,16.0,-253.0,-14.0,75.0,-2.0,1
65.0,15.0,-251.0,-15.0,74.0,-3.0,1
65.0,14.0,-256.0,-14.0,73.0,-2.0,1
67.0,15.0,-256.0,-10.0,71.0,-2.0,1
66.0,14.0,-256.0,-6.0,71.0,1.0,1
67.0,17.0,-259.0,-2.0,71.0,0.0,1
67.0,14.0,-264.0,1.0,72.0,2.0,1
68.0,16.0,-255.0,0.0,73.0,1.0,1
66.0,16.0,-258.0,-1.0,75.0,1.0,1
66.0,16.0,-259.0,-3.0,77.0,-1.0,1
65.0,15.0,-258.0,-5.0,79.0,0.0,1
66.0,12.0,-255.0,-10.0,79.0,-1.0,1
66.0,13.0,-255.0,-14.0,80.0,-1.0,1
69.0,12.0,-257.0,-15.0,82.0,-3.0,1
69.0,16.0,-251.0,-17.0,81.0,-1.0,1
65.0,14.0,-257.0,-18.0,79.0,-2.0,1
68.0,18.0,-253.0,-17.0,75.0,-2.0,1
67.0,15.0,-256.0,-15.0,72.0,-3.0,1
71.0,15.0,-255.0,-14.0,69.0,0.0,1
67.0,15.0,-256.0,-15.0,65.0,-3.0,1
68.0,16.0,-256.0,-16.0,63.0,-2.0,1
69.0,16.0,-258.0,-13.0,63.0,-5.0,1
67.0,17.0,-255.0,-15.0,61.0,-2.0,1
65.0,19.0,-252.0,-14.0,62.0,-4.0,1
65.0,19.0,-256.0,-14.0,60.0,-2.0,1
66.0,13.0,-252.0,-14.0,60.0,-2.0,1
68.0,14.0,-252.0,-14.0,58.0,-2.0,1
68.0,14.0,-253.0,-14.0,58.0,-4.0,1
66.0,16.0,-252.0,-14.0,54.0,-1.0,1
66.0,16.0,-250.0,-14.0,51.0,-3.0,1
68.0,14.0,-252.0,-12.0,49.0,1.0,1
69.0,13.0,-254.0,-13.0,46.0,-2.0,1
68.0,16.0,-256.0,-10.0,43.0,0.0,1
66.0,17.0,-259.0,-10.0,41.0,-2.0,1
67.0,16.0,-252.0,-8.0,41.0,0.0,1
69.0,16.0,-261.0,-7.0,40.0,-2.0,1
66.0,14.0,-256.0,-5.0,40.0,1.0,1
68.0,16.0,-255.0,-4.0,40.0,-2.0,1
67.0,15.0,-256.0,-4.0,40.0,0.0,1
65.0,19.0,-258.0,-5.0,40.0,-2.0,1
66.0,14.0,-253.0,-4.0,41.0,1.0,1
68.0,15.0,-258.0,-3.0,42.0,-2.0,1
67.0,12.0,-257.0,-3.0,42.0,0.0,1
65.0,15.0,-257.0,-1.0,45.0,-2.0,1
67.0,14.0,-260.0,-3.0,47.0,0.0,1
65.0,18.0,-258.0,-3.0,47.0,-3.0,1
68.0,14.0,-256.0,-4.0,50.0,0.0,1
66.0,15.0,-256.0,-6.0,53.0,-2.0,1
65.0,15.0,-259.0,-7.0,55.0,-2.0,1
66.0,14.0,-257.0,-10.0,59.0,-3.0,1
65.0,16.0,-257.0,-12.0,59.0,-1.0,1
63.0,15.0,-258.0,-13.0,61.0,-4.0,1
70.0,14.0,-255.0,-13.0,61.0,-2.0,1
67.0,15.0,-258.0,-13.0,62.0,-5.0,1
65.0,14.0,-254.0,-11.0,63.0,-2.0,1
67.0,13.0,-257.0,-9.0,64.0,-4.0,1
63.0,16.0,-254.0,-9.0,66.0,-1.0,1
67.0,15.0,-253.0,-7.0,66.0,-3.0,1
67.0,14.0,-256.0,-6.0,66.0,0.0,1
67.0,18.0,-255.0,-4.0,65.0,-2.0,1
66.0,13.0,-259.0,-3.0,65.0,1.0,1
68.0,14.0,-255.0,-2.0,65.0,-2.0,1
66.0,13.0,-253.0,-4.0,66.0,0.0,1
67.0,15.0,-254.0,-3.0,67.0,-1.0,1
66.0,16.0,-257.0,-3.0,67.0,0.0,1
70.0,11.0,-256.0,-3.0,70.0,-2.0,1
67.0,15.0,-259.0,-4.0,69.0,1.0,1
67.0,12.0,-255.0,-4.0,69.0,-3.0,1
64.0,17.0,-255.0,-6.0,69.0,0.0,1
70.0,13.0,-260.0,-5.0,69.0,-2.0,1
67.0,13.0,-260.0,-6.0,70.0,0.0,1
67.0,14.0,-257.0,-6.0,70.0,-1.0,1
70.0,12.0,-255.0,-6.0,70.0,0.0,1
65.0,13.0,-258.0,-6.0,71.0,-2.0,1
68.0,12.0,-262.0,-7.0,72.0,-1.0,1
67.0,13.0,-256.0,-7.0,71.0,-4.0,1
67.0,12.0,-257.0,-7.0,72.0,-1.0,1
67.0,14.0,-254.0,-8.0,74.0,-4.0,1
66.0,15.0,-255.0,-9.0,73.0,-2.0,1
68.0,12.0,-255.0,-11.0,73.0,-4.0,1
68.0,12.0,-254.0,-10.0,73.0,-3.0,1
66.0,14.0,-254.0,-8.0,74.0,-3.0,1
67.0,13.0,-252.0,-8.0,73.0,-1.0,1
66.0,16.0,-255.0,-7.0,72.0,-4.0,1
66.0,16.0,-253.0,-7.0,70.0,0.0,1
70.0,13.0,-254.0,-7.0,69.0,-3.0,1
68.0,12.0,-251.0,-4.0,67.0,0.0,1
69.0,11.0,-255.0,-4.0,66.0,-2.0,1
