ax,ay,az,gx,gy,gz,label
-12.0,-250.0,60.0,-40.0,36.0,16.0,1
-15.0,-249.0,56.0,-42.0,37.0,12.0,1
-12.0,-246.0,57.0,-44.0,37.0,9.0,1
-12.0,-252.0,59.0,-44.0,37.0,6.0,1
-19.0,-251.0,56.0,-40.0,36.0,5.0,1
-17.0,-249.0,57.0,-38.0,35.0,2.0,1
-13.0,-248.0,61.0,-35.0,34.0,2.0,1
-15.0,-250.0,57.0,-31.0,29.0,1.0,1
-16.0,-249.0,60.0,-25.0,27.0,2.0,1
-14.0,-247.0,60.0,-20.0,24.0,1.0,1
-13.0,-250.0,59.0,-13.0,19.0,2.0,1
-14.0,-250.0,62.0,-7.0,14.0,2.0,1
-14.0,-246.0,60.0,-2.0,11.0,3.0,1
-11.0,-248.0,60.0,4.0,8.0,1.0,1
-9.0,-245.0,59.0,7.0,3.0,2.0,1
-12.0,-245.0,61.0,11.0,1.0,0.0,1
-10.0,-248.0,57.0,12.0,0.0,0.0,1
-12.0,-244.0,58.0,15.0,-3.0,-2.0,1
-11.0,-243.0,62.0,17.0,-3.0,-1.0,1
-11.0,-243.0,61.0,17.0,-3.0,-2.0,1
-10.0,-245.0,59.0,19.0,-5.0,-2.0,1
-9.0,-243.0,59.0,20.0,-8.0,0.0,1
-11.0,-242.0,63.0,21.0,-9.0,1.0,1
-11.0,-241.0,60.0,21.0,-11.0,1.0,1
-10.0,-240.0,58.0,20.0,-14.0,4.0,1
-11.0,-242.0,59.0,19.0,-16.0,4.0,1
-10.0,-241.0,62.0,19.0,-20.0,6.0,1
-12.0,-242.0,60.0,20.0,-25.0,7.0,1
-12.0,-241.0,58.0,20.0,-31.0,11.0,1
-12.0,-242.0,60.0,18.0,-37.0,14.0,1
-12.0,-241.0,63.0,16.0,-47.0,16.0,1
-16.0,-244.0,56.0,15.0,-56.0,19.0,1
-15.0,-244.0,61.0,12.0,-65.0,21.0,1
-14.0,-243.0,58.0,13.0,-69.0,22.0,1
-15.0,-246.0,61.0,11.0,-73.0,24.0,1
-18.0,-244.0,62.0,11.0,-78.0,27.0,1
-15.0,-249.0,63.0,11.0,-82.0,29.0,1
-13.0,-250.0,61.0,13.0,-85.0,33.0,1
-16.0,-249.0,61.0,14.0,-85.0,38.0,1
-14.0,-247.0,61.0,15.0,-86.0,44.0,1
-16.0,-247.0,67.0,19.0,-85.0,49.0,1
-12.0,-249.0,64.0,21.0,-84.0,56.0,1
-13.0,-248.0,67.0,22.0,-84.0,62.0,1
-12.0,-243.0,63.0,25.0,-83.0,68.0,1
-12.0,-242.0,59.0,30.0,-82.0,74.0,1
-12.0,-243.0,62.0,31.0,-82.0,77.0,1
-11.0,-240.0,61.0,33.0,-81.0,81.0,1
-8.0,-242.0,55.0,34.0,-81.0,81.0,1
-9.0,-239.0,59.0,35.0,-82.0,82.0,1
-10.0,-241.0,60.0,36.0,-81.0,80.0,1
-7.0,-240.0,56.0,34.0,-83.0,80.0,1
-8.0,-240.0,63.0,31.0,-82.0,78.0,1
-9.0,-242.0,62.0,31.0,-84.0,78.0,1
-6.0,-241.0,62.0,26.0,-85.0,75.0,1
-9.0,-239.0,63.0,23.0,-85.0,73.0,1
-6.0,-236.0,61.0,19.0,-87.0,71.0,1
-8.0,-238.0,63.0,13.0,-87.0,68.0,1
-7.0,-238.0,56.0,6.0,-87.0,66.0,1
-9.0,-238.0,60.0,-1.0,-87.0,65.0,1
-12.0,-238.0,63.0,-11.0,-87.0,62.0,1
-10.0,-238.0,63.0,-19.0,-84.0,59.0,1
-11.0,-241.0,60.0,-28.0,-83.0,58.0,1
-11.0,-243.0,62.0,-35.0,-78.0,55.0,1
-11.0,-240.0,59.0,-42.0,-73.0,54.0,1
-10.0,-244.0,62.0,-48.0,-72.0,51.0,1
-11.0,-242.0,61.0,-51.0,-69.0,51.0,1
-11.0,-244.0,60.0,-54.0,-64.0,48.0,1
-11.0,-245.0,62.0,-55.0,-61.0,46.0,1
-9.0,-245.0,59.0,-54.0,-59.0,43.0,1
-9.0,-243.0,62.0,-53.0,-56.0,40.0,1
-10.0,-244.0,63.0,-49.0,-54.0,37.0,1
-12.0,-245.0,62.0,-45.0,-52.0,36.0,1
-8.0,-248.0,58.0,-41.0,-51.0,32.0,1
-8.0,-247.0,58.0,-38.0,-49.0,31.0,1
-11.0,-244.0,60.0,-36.0,-49.0,29.0,1
-11.0,-245.0,59.0,-35.0,-49.0,26.0,1
-7.0,-245.0,59.0,-34.0,-48.0,23.0,1
-9.0,-245.0,61.0,-33.0,-46.0,21.0,1
-9.0,-247.0,59.0,-34.0,-44.0,17.0,1
-4.0,-248.0,61.0,-34.0,-40.0,15.0,1
-7.0,-245.0,58.0,-35.0,-36.0,11.0,1
-7.0,-244.0,60.0,-38.0,-30.0,11.0,1
-7.0,-246.0,62.0,-38.0,-26.0,5.0,1
-5.0,-245.0,60.0,-41.0,-23.0,4.0,1
-7.0,-244.0,61.0,-44.0,-19.0,1.0,1
-6.0,-244.0,61.0,-47.0,-14.0,1.0,1
-8.0,-241.0,61.0,-49.0,-11.0,-1.0,1
-7.0,-244.0,59.0,-48.0,-8.0,0.0,1
-6.0,-242.0,60.0,-47.0,-6.0,0.0,1
-9.0,-242.0,61.0,-47.0,-6.0,2.0,1
-8.0,-243.0,59.0,-47.0,-7.0,0.0,1
-6.0,-243.0,59.0,-48.0,-8.0,4.0,1
-9.0,-244.0,59.0,-46.0,-11.0,4.0,1
-9.0,-243.0,59.0,-44.0,-12.0,8.0,1
-8.0,-244.0,60.0,-44.0,-14.0,8.0,1
-10.0,-243.0,58.0,-42.0,-16.0,12.0,1
-11.0,-244.0,56.0,-40.0,-16.0,13.0,1
-9.0,-243.0,56.0,-38.0,-18.0,16.0,1
-10.0,-243.0,57.0,-35.0,-17.0,15.0,1
-9.0,-246.0,59.0,-33.0,-16.0,19.0,1
-10.0,-241.0,58.0,-30.0,-15.0,18.0,1
-9.0,-240.0,61.0,-27.0,-12.0,20.0,1
-9.0,-243.0,60.0,-23.0,-8.0,18.0,1
-8.0,-245.0,61.0,-21.0,-5.0,21.0,1
-7.0,-243.0,61.0,-17.0,0.0,18.0,1
-8.0,-247.0,60.0,-14.0,6.0,20.0,1
-8.0,-243.0,57.0,-11.0,8.0,18.0,1
-9.0,-245.0,56.0,-11.0,12.0,19.0,1
-8.0,-247.0,61.0,-9.0,15.0,18.0,1
-7.0,-247.0,58.0,-8.0,19.0,18.0,1
-9.0,-245.0,58.0,-7.0,21.0,16.0,1
-9.0,-245.0,58.0,-7.0,22.0,17.0,1
-5.0,-250.0,60.0,-10.0,23.0,15.0,1
-9.0,-248.0,57.0,-8.0,25.0,16.0,1
-10.0,-243.0,60.0,-10.0,27.0,15.0,1
-9.0,-247.0,59.0,-12.0,29.0,16.0,1
-10.0,-245.0,60.0,-17.0,32.0,15.0,1
-9.0,-246.0,57.0,-22.0,35.0,16.0,1
-8.0,-247.0,59.0,-24.0,38.0,14.0,1
-7.0,-245.0,58.0,-27.0,43.0,15.0,1
-9.0,-244.0,61.0,-30.0,47.0,12.0,1
-6.0,-243.0,59.0,-33.0,49.0,15.0,1
-8.0,-245.0,62.0,-33.0,53.0,11.0,1
-11.0,-244.0,55.0,-29.0,54.0,12.0,1
-9.0,-246.0,56.0,-27.0,54.0,9.0,1
-9.0,-245.0,57.0,-21.0,52.0,9.0,1
-10.0,-247.0,54.0,-15.0,52.0,6.0,1
-11.0,-245.0,58.0,-11.0,49.0,6.0,1
-10.0,-248.0,58.0,-7.0,46.0,3.0,1
-11.0,-246.0,55.0,-6.0,43.0,3.0,1
-11.0,-247.0,56.0,-4.0,41.0,-1.0,1
-10.0,-247.0,56.0,-6.0,37.0,1.0,1
-10.0,-247.0,56.0,-10.0,35.0,-2.0,1
-9.0,-247.0,59.0,-13.0,32.0,-1.0,1
-8.0,-246.0,56.0,-19.0,32.0,-5.0,1
-10.0,-247.0,57.0,-23.0,33.0,-5.0,1
-10.0,-244.0,54.0,-24.0,35.0,-9.0,1
-9.0,-244.0,60.0,-26.0,36.0,-9.0,1
-11.0,-245.0,57.0,-24.0,38.0,-13.0,1
-10.0,-244.0,60.0,-22.0,42.0,-10.0,1
-11.0,-245.0,57.0,-22.0,44.0,-14.0,1
-10.0,-240.0,61.0,-24.0,47.0,-13.0,1
-10.0,-243.0,58.0,-28.0,49.0,-17.0,1
-6.0,-243.0,61.0,-33.0,54.0,-16.0,1
-8.0,-241.0,59.0,-38.0,54.0,-20.0,1
-6.0,-244.0,55.0,-41.0,58.0,-19.0,1
-9.0,-245.0,60.0,-43.0,62.0,-23.0,1
-5.0,-245.0,59.0,-43.0,65.0,-24.0,1
-9.0,-244.0,62.0,-41.0,65.0,-29.0,1
-8.0,-247.0,57.0,-40.0,65.0,-31.0,1
-5.0,-244.0,59.0,-39.0,64.0,-37.0,1
-8.0,-246.0,55.0,-38.0,63.0,-38.0,1
-7.0,-244.0,56.0,-37.0,62.0,-44.0,1
-6.0,-247.0,58.0,-36.0,60.0,-46.0,1
-5.0,-245.0,58.0,-37.0,59.0,-51.0,1
-3.0,-247.0,59.0,-40.0,58.0,-51.0,1
-9.0,-247.0,57.0,-43.0,57.0,-57.0,1
-3.0,-247.0,59.0,-47.0,57.0,-59.0,1
-6.0,-246.0,60.0,-51.0,58.0,-65.0,1
-3.0,-242.0,53.0,-51.0,59.0,-67.0,1
-4.0,-244.0,55.0,-52.0,61.0,-71.0,1
-5.0,-244.0,59.0,-54.0,62.0,-72.0,1
-1.0,-246.0,57.0,-53.0,64.0,-76.0,1
-2.0,-245.0,59.0,-50.0,64.0,-76.0,1
-3.0,-246.0,59.0,-47.0,68.0,-81.0,1
0.0,-245.0,58.0,-43.0,69.0,-82.0,1
-4.0,-245.0,58.0,-38.0,74.0,-86.0,1
-3.0,-247.0,57.0,-32.0,76.0,-86.0,1
1.0,-245.0,57.0,-28.0,77.0,-89.0,1
0.0,-245.0,65.0,-25.0,84.0,-88.0,1
1.0,-250.0,61.0,-19.0,86.0,-91.0,1
-1.0,-247.0,60.0,-18.0,92.0,-89.0,1
2.0,-247.0,55.0,-15.0,98.0,-91.0,1
-1.0,-245.0,59.0,-15.0,101.0,-88.0,1
-1.0,-245.0,58.0,-13.0,106.0,-89.0,1
-4.0,-249.0,57.0,-10.0,107.0,-86.0,1
-2.0,-248.0,54.0,-8.0,109.0,-86.0,1
-1.0,-247.0,61.0,-7.0,113.0,-84.0,1
-3.0,-244.0,60.0,-4.0,114.0,-83.0,1
-3.0,-246.0,58.0,0.0,117.0,-80.0,1
-2.0,-245.0,57.0,4.0,121.0,-78.0,1
-7.0,-244.0,56.0,9.0,122.0,-73.0,1
-4.0,-243.0,58.0,14.0,123.0,-72.0,1
-8.0,-244.0,60.0,19.0,124.0,-66.0,1
-7.0,-243.0,60.0,23.0,123.0,-65.0,1
-7.0,-244.0,61.0,23.0,123.0,-58.0,1
-8.0,-241.0,56.0,26.0,121.0,-56.0,1
-11.0,-237.0,61.0,28.0,120.0,-50.0,1
-12.0,-240.0,57.0,29.0,120.0,-48.0,1
-10.0,-241.0,60.0,31.0,118.0,-42.0,1
-12.0,-237.0,57.0,33.0,114.0,-40.0,1
-12.0,-238.0,60.0,36.0,112.0,-37.0,1
-10.0,-235.0,61.0,37.0,108.0,-36.0,1
-8.0,-238.0,61.0,35.0,105.0,-33.0,1
-11.0,-238.0,61.0,35.0,99.0,-32.0,1
-7.0,-240.0,65.0,34.0,97.0,-29.0,1
-7.0,-241.0,62.0,31.0,93.0,-30.0,1
-9.0,-241.0,61.0,27.0,89.0,-30.0,1
-8.0,-241.0,59.0,24.0,86.0,-32.0,1
-7.0,-242.0,63.0,20.0,86.0,-29.0,1
-7.0,-241.0,62.0,16.0,85.0,-29.0,1
-5.0,-240.0,62.0,13.0,82.0,-29.0,1
-9.0,-238.0,62.0,12.0,82.0,-29.0,1
-7.0,-243.0,63.0,6.0,81.0,-27.0,1
-7.0,-243.0,61.0,1.0,80.0,-29.0,1
-5.0,-243.0,57.0,-5.0,81.0,-29.0,1
-5.0,-242.0,58.0,-12.0,82.0,-32.0,1
-8.0,-239.0,55.0,-19.0,83.0,-31.0,1
-5.0,-242.0,63.0,-24.0,85.0,-34.0,1
-9.0,-242.0,57.0,-32.0,88.0,-35.0,1
-8.0,-241.0,61.0,-35.0,90.0,-37.0,1
-9.0,-246.0,63.0,-38.0,94.0,-38.0,1
-7.0,-241.0,61.0,-38.0,97.0,-42.0,1
-7.0,-244.0,55.0,-37.0,100.0,-44.0,1
-9.0,-244.0,63.0,-33.0,106.0,-48.0,1
-3.0,-244.0,61.0,-28.0,111.0,-50.0,1
-7.0,-246.0,63.0,-21.0,114.0,-54.0,1
0.0,-245.0,60.0,-14.0,118.0,-55.0,1
-5.0,-242.0,60.0,-6.0,124.0,-57.0,1
-2.0,-245.0,58.0,2.0,129.0,-60.0,1
-2.0,-246.0,63.0,10.0,132.0,-63.0,1
-2.0,-244.0,59.0,17.0,133.0,-63.0,1
-2.0,-243.0,59.0,25.0,132.0,-66.0,1
-3.0,-246.0,58.0,28.0,132.0,-65.0,1
0.0,-246.0,66.0,33.0,132.0,-66.0,1
2.0,-246.0,61.0,36.0,128.0,-67.0,1
4.0,-246.0,61.0,40.0,126.0,-67.0,1
1.0,-245.0,57.0,41.0,124.0,-67.0,1
3.0,-247.0,62.0,39.0,120.0,-68.0,1
2.0,-248.0,58.0,39.0,121.0,-69.0,1
-3.0,-248.0,62.0,39.0,120.0,-70.0,1
0.0,-245.0,60.0,35.0,119.0,-70.0,1
1.0,-247.0,62.0,33.0,120.0,-70.0,1
-4.0,-246.0,61.0,29.0,121.0,-70.0,1
-2.0,-245.0,61.0,23.0,122.0,-69.0,1
-5.0,-241.0,60.0,17.0,123.0,-69.0,1
-5.0,-245.0,56.0,10.0,125.0,-71.0,1
-7.0,-243.0,65.0,4.0,127.0,-69.0,1
-5.0,-244.0,61.0,-1.0,129.0,-69.0,1
-6.0,-243.0,60.0,-6.0,129.0,-68.0,1
-6.0,-244.0,59.0,-9.0,130.0,-68.0,1
-6.0,-241.0,56.0,-11.0,131.0,-65.0,1
-6.0,-242.0,59.0,-14.0,132.0,-63.0,1
-7.0,-246.0,53.0,-15.0,134.0,-59.0,1
-8.0,-241.0,59.0,-18.0,134.0,-57.0,1
-7.0,-241.0,62.0,-19.0,135.0,-53.0,1
-6.0,-241.0,58.0,-19.0,134.0,-51.0,1
-4.0,-243.0,61.0,-20.0,134.0,-46.0,1
-6.0,-240.0,55.0,-21.0,135.0,-43.0,1
-5.0,-244.0,58.0,-20.0,135.0,-41.0,1
-2.0,-243.0,55.0,-20.0,135.0,-39.0,1
-6.0,-243.0,58.0,-23.0,135.0,-37.0,1
-7.0,-242.0,57.0,-24.0,134.0,-35.0,1
-5.0,-239.0,59.0,-26.0,130.0,-35.0,1
-8.0,-244.0,55.0,-26.0,128.0,-32.0,1
-8.0,-245.0,60.0,-27.0,125.0,-29.0,1
-7.0,-246.0,61.0,-28.0,119.0,-26.0,1
-11.0,-243.0,58.0,-28.0,115.0,-23.0,1
-8.0,-242.0,55.0,-27.0,108.0,-19.0,1
-9.0,-244.0,57.0,-30.0,99.0,-17.0,1
-10.0,-241.0,59.0,-32.0,92.0,-10.0,1
-11.0,-245.0,59.0,-32.0,87.0,-6.0,1
-11.0,-243.0,56.0,-34.0,82.0,-3.0,1
-10.0,-245.0,59.0,-35.0,76.0,-1.0,1
-10.0,-244.0,57.0,-35.0,72.0,4.0,1
-10.0,-246.0,59.0,-35.0,68.0,4.0,1
-10.0,-244.0,58.0,-34.0,67.0,7.0,1
-9.0,-244.0,60.0,-35.0,64.0,8.0,1
-7.0,-245.0,60.0,-34.0,61.0,11.0,1
-5.0,-245.0,63.0,-37.0,61.0,10.0,1
-3.0,-248.0,62.0,-36.0,60.0,12.0,1
-3.0,-244.0,65.0,-35.0,60.0,10.0,1
-4.0,-244.0,60.0,-36.0,58.0,12.0,1
-4.0,-244.0,62.0,-37.0,57.0,11.0,1
-6.0,-244.0,56.0,-37.0,55.0,13.0,1
-4.0,-244.0,57.0,-39.0,55.0,12.0,1
-4.0,-243.0,57.0,-40.0,55.0,13.0,1
-4.0,-242.0,62.0,-43.0,51.0,13.0,1
-5.0,-251.0,67.0,-42.0,49.0,14.0,1
-4.0,-245.0,57.0,-42.0,47.0,11.0,1
-1.0,-243.0,60.0,-42.0,46.0,12.0,1
-5.0,-245.0,62.0,-41.0,46.0,10.0,1
-3.0,-244.0,59.0,-40.0,46.0,10.0,1
-4.0,-246.0,58.0,-42.0,45.0,7.0,1
-4.0,-244.0,60.0,-42.0,46.0,10.0,1
-6.0,-245.0,56.0,-42.0,46.0,9.0,1
-8.0,-244.0,61.0,-44.0,44.0,11.0,1
-5.0,-247.0,59.0,-46.0,44.0,9.0,1
-6.0,-246.0,63.0,-47.0,43.0,11.0,1
-6.0,-247.0,60.0,-48.0,41.0,9.0,1
-6.0,-246.0,57.0,-49.0,37.0,10.0,1
-8.0,-244.0,56.0,-51.0,35.0,9.0,1
-7.0,-246.0,57.0,-54.0,30.0,11.0,1
-6.0,-245.0,57.0,-55.0,28.0,8.0,1
-9.0,-247.0,57.0,-57.0,24.0,8.0,1
-8.0,-244.0,57.0,-60.0,22.0,7.0,1
-6.0,-241.0,59.0,-61.0,20.0,7.0,1
-8.0,-245.0,56.0,-61.0,16.0,5.0,1
-6.0,-245.0,61.0,-61.0,15.0,6.0,1
-6.0,-246.0,57.0,-61.0,12.0,2.0,1
-6.0,-243.0,54.0,-60.0,11.0,4.0,1
-6.0,-245.0,56.0,-58.0,10.0,1.0,1
-3.0,-246.0,59.0,-56.0,9.0,1.0,1
-5.0,-246.0,59.0,-53.0,8.0,-3.0,1
-7.0,-247.0,59.0,-51.0,7.0,0.0,1
-6.0,-245.0,57.0,-50.0,7.0,-4.0,1
-5.0,-246.0,56.0,-51.0,7.0,-2.0,1
-8.0,-245.0,59.0,-47.0,7.0,-5.0,1
-3.0,-244.0,56.0,-46.0,6.0,-4.0,1
-1.0,-245.0,56.0,-44.0,6.0,-6.0,1
-5.0,-246.0,58.0,-42.0,5.0,-3.0,1
-5.0,-244.0,56.0,-39.0,8.0,-6.0,1
-4.0,-249.0,54.0,-38.0,9.0,-5.0,1
-2.0,-245.0,63.0,-37.0,12.0,-8.0,1
-1.0,-249.0,60.0,-34.0,16.0,-6.0,1
-2.0,-244.0,56.0,-34.0,19.0,-8.0,1
-1.0,-246.0,60.0,-29.0,24.0,-6.0,1
-1.0,-247.0,57.0,-25.0,28.0,-9.0,1
3.0,-247.0,57.0,-21.0,32.0,-7.0,1
2.0,-246.0,62.0,-14.0,36.0,-9.0,1
1.0,-247.0,61.0,-9.0,40.0,-7.0,1
1.0,-249.0,56.0,-5.0,43.0,-10.0,1
-1.0,-248.0,63.0,-1.0,46.0,-7.0,1
0.0,-249.0,55.0,3.0,49.0,-9.0,1
0.0,-247.0,60.0,5.0,51.0,-7.0,1
-1.0,-247.0,59.0,5.0,53.0,-10.0,1
-2.0,-252.0,58.0,6.0,55.0,-7.0,1
-2.0,-247.0,59.0,4.0,56.0,-10.0,1
-1.0,-246.0,59.0,3.0,57.0,-9.0,1
-4.0,-248.0,57.0,1.0,58.0,-12.0,1
-4.0,-245.0,58.0,-2.0,58.0,-12.0,1
-3.0,-246.0,58.0,-4.0,62.0,-16.0,1
0.0,-245.0,57.0,-7.0,65.0,-15.0,1
-2.0,-246.0,56.0,-10.0,68.0,-17.0,1
-1.0,-243.0,56.0,-11.0,72.0,-17.0,1
-2.0,-245.0,62.0,-12.0,80.0,-18.0,1
-1.0,-246.0,62.0,-13.0,83.0,-14.0,1
0.0,-243.0,61.0,-14.0,89.0,-16.0,1
-2.0,-242.0,57.0,-12.0,94.0,-12.0,1
-4.0,-242.0,60.0,-12.0,98.0,-12.0,1
-3.0,-244.0,60.0,-13.0,100.0,-6.0,1
-4.0,-240.0,59.0,-13.0,100.0,-5.0,1
-4.0,-238.0,61.0,-13.0,99.0,-1.0,1
-3.0,-243.0,59.0,-14.0,99.0,-1.0,1
-3.0,-244.0,60.0,-17.0,99.0,5.0,1
-1.0,-243.0,58.0,-21.0,100.0,3.0,1
-3.0,-241.0,58.0,-24.0,100.0,4.0,1
-6.0,-239.0,62.0,-29.0,101.0,2.0,1
-3.0,-243.0,56.0,-34.0,103.0,4.0,1
-3.0,-242.0,62.0,-38.0,105.0,1.0,1
-6.0,-243.0,60.0,-42.0,107.0,3.0,1
-7.0,-242.0,59.0,-44.0,110.0,0.0,1
-4.0,-245.0,59.0,-47.0,111.0,2.0,1
-9.0,-241.0,58.0,-49.0,112.0,-2.0,1
-7.0,-240.0,59.0,-51.0,114.0,1.0,1
-6.0,-241.0,58.0,-52.0,115.0,-2.0,1
-5.0,-241.0,60.0,-52.0,115.0,1.0,1
-6.0,-242.0,59.0,-55.0,116.0,-3.0,1
-7.0,-239.0,56.0,-58.0,116.0,0.0,1
-6.0,-240.0,56.0,-62.0,115.0,-2.0,1
-7.0,-240.0,57.0,-67.0,115.0,1.0,1
-7.0,-243.0,55.0,-72.0,114.0,1.0,1
-5.0,-240.0,52.0,-78.0,113.0,4.0,1
-7.0,-238.0,54.0,-84.0,112.0,6.0,1
-2.0,-239.0,51.0,-92.0,109.0,11.0,1
-6.0,-241.0,53.0,-98.0,107.0,11.0,1
-3.0,-240.0,58.0,-106.0,105.0,15.0,1
-3.0,-240.0,60.0,-112.0,103.0,16.0,1
-1.0,-241.0,58.0,-118.0,103.0,18.0,1
-4.0,-242.0,56.0,-119.0,105.0,17.0,1
-2.0,-244.0,58.0,-122.0,107.0,20.0,1
-5.0,-247.0,57.0,-123.0,109.0,17.0,1
-4.0,-247.0,55.0,-124.0,110.0,17.0,1
-4.0,-247.0,51.0,-125.0,110.0,13.0,1
-3.0,-253.0,54.0,-126.0,109.0,12.0,1
-5.0,-249.0,55.0,-123.0,110.0,8.0,1
-4.0,-250.0,53.0,-120.0,109.0,9.0,1
-4.0,-248.0,51.0,-114.0,110.0,8.0,1
-5.0,-249.0,50.0,-105.0,110.0,9.0,1
-6.0,-248.0,52.0,-94.0,111.0,7.0,1
-8.0,-248.0,47.0,-84.0,111.0,9.0,1
-4.0,-250.0,56.0,-76.0,112.0,9.0,1
-7.0,-246.0,53.0,-68.0,115.0,12.0,1
-5.0,-250.0,54.0,-61.0,116.0,11.0,1
-8.0,-248.0,50.0,-55.0,117.0,15.0,1
-5.0,-248.0,53.0,-48.0,118.0,13.0,1
-6.0,-247.0,54.0,-43.0,122.0,14.0,1
-5.0,-248.0,54.0,-39.0,125.0,10.0,1
-7.0,-248.0,51.0,-32.0,126.0,10.0,1
-7.0,-249.0,53.0,-30.0,129.0,8.0,1
-4.0,-247.0,53.0,-27.0,130.0,8.0,1
-4.0,-246.0,56.0,-26.0,131.0,5.0,1
-3.0,-251.0,53.0,-25.0,133.0,4.0,1
-3.0,-247.0,52.0,-25.0,136.0,2.0,1
-3.0,-244.0,55.0,-25.0,137.0,1.0,1
-1.0,-247.0,56.0,-27.0,139.0,-1.0,1
-3.0,-247.0,56.0,-28.0,139.0,0.0,1
-1.0,-246.0,55.0,-31.0,138.0,-2.0,1
-6.0,-242.0,53.0,-32.0,137.0,-2.0,1
-4.0,-244.0,55.0,-34.0,137.0,-3.0,1
-4.0,-243.0,52.0,-34.0,135.0,-2.0,1
-1.0,-247.0,52.0,-36.0,133.0,-3.0,1
-3.0,-245.0,53.0,-36.0,132.0,-1.0,1
-4.0,-245.0,52.0,-35.0,130.0,-1.0,1
-5.0,-248.0,54.0,-34.0,130.0,1.0,1
-4.0,-247.0,56.0,-30.0,128.0,2.0,1
-6.0,-246.0,52.0,-26.0,127.0,5.0,1
-5.0,-247.0,50.0,-21.0,126.0,6.0,1
-8.0,-245.0,52.0,-18.0,126.0,6.0,1
-6.0,-247.0,52.0,-16.0,124.0,7.0,1
-5.0,-249.0,56.0,-12.0,122.0,9.0,1
-5.0,-250.0,52.0,-10.0,121.0,10.0,1
-9.0,-248.0,56.0,-9.0,119.0,12.0,1
-6.0,-250.0,52.0,-6.0,118.0,11.0,1
-9.0,-247.0,55.0,-4.0,118.0,13.0,1
-8.0,-248.0,49.0,-2.0,117.0,13.0,1
-7.0,-248.0,55.0,0.0,117.0,13.0,1
-9.0,-247.0,57.0,0.0,116.0,16.0,1
-6.0,-244.0,52.0,-1.0,116.0,17.0,1
-8.0,-246.0,54.0,0.0,116.0,19.0,1
-9.0,-242.0,52.0,1.0,113.0,20.0,1
-9.0,-247.0,56.0,2.0,112.0,22.0,1
-10.0,-244.0,53.0,3.0,111.0,26.0,1
-10.0,-242.0,54.0,6.0,109.0,27.0,1
-8.0,-241.0,54.0,9.0,108.0,30.0,1
-6.0,-240.0,54.0,10.0,105.0,32.0,1
-10.0,-241.0,54.0,13.0,102.0,35.0,1
-12.0,-241.0,53.0,12.0,97.0,39.0,1
-10.0,-243.0,56.0,8.0,94.0,41.0,1
-11.0,-242.0,50.0,6.0,89.0,43.0,1
-12.0,-242.0,51.0,2.0,85.0,44.0,1
-12.0,-243.0,51.0,-1.0,80.0,46.0,1
-12.0,-243.0,49.0,-8.0,77.0,46.0,1
-11.0,-243.0,52.0,-13.0,73.0,48.0,1
-12.0,-245.0,52.0,-18.0,69.0,49.0,1
-12.0,-244.0,54.0,-23.0,65.0,51.0,1
-13.0,-243.0,56.0,-27.0,61.0,52.0,1
-11.0,-244.0,50.0,-32.0,57.0,55.0,1
-11.0,-245.0,56.0,-34.0,54.0,57.0,1
-14.0,-245.0,55.0,-38.0,54.0,59.0,1
-11.0,-246.0,53.0,-42.0,50.0,62.0,1
-12.0,-244.0,55.0,-45.0,47.0,66.0,1
-12.0,-244.0,56.0,-49.0,44.0,68.0,1
-11.0,-244.0,55.0,-49.0,43.0,70.0,1
-10.0,-245.0,53.0,-50.0,42.0,70.0,1
-9.0,-247.0,51.0,-50.0,40.0,70.0,1
-10.0,-246.0,50.0,-48.0,42.0,68.0,1
-8.0,-246.0,51.0,-45.0,41.0,68.0,1
-8.0,-245.0,53.0,-42.0,40.0,62.0,1
-6.0,-248.0,52.0,-42.0,42.0,60.0,1
-5.0,-247.0,53.0,-40.0,44.0,54.0,1
-6.0,-244.0,47.0,-37.0,47.0,50.0,1
-6.0,-249.0,51.0,-35.0,49.0,44.0,1
-3.0,-247.0,48.0,-33.0,51.0,40.0,1
-5.0,-248.0,50.0,-30.0,52.0,34.0,1
-3.0,-247.0,51.0,-29.0,56.0,32.0,1
-3.0,-250.0,51.0,-29.0,58.0,25.0,1
-8.0,-249.0,49.0,-29.0,61.0,24.0,1
-7.0,-250.0,55.0,-31.0,64.0,20.0,1
-4.0,-247.0,49.0,-33.0,66.0,19.0,1
-7.0,-248.0,53.0,-34.0,68.0,15.0,1
-7.0,-248.0,50.0,-37.0,70.0,14.0,1
-7.0,-250.0,49.0,-40.0,71.0,11.0,1
-9.0,-247.0,53.0,-42.0,73.0,11.0,1
-8.0,-249.0,53.0,-43.0,74.0,8.0,1
-7.0,-249.0,51.0,-47.0,75.0,9.0,1
-6.0,-247.0,53.0,-48.0,77.0,6.0,1
-8.0,-246.0,52.0,-48.0,78.0,7.0,1
-7.0,-246.0,51.0,-49.0,78.0,6.0,1
-10.0,-244.0,54.0,-50.0,77.0,8.0,1
-7.0,-249.0,52.0,-52.0,76.0,8.0,1
-8.0,-247.0,54.0,-50.0,75.0,11.0,1
-10.0,-244.0,49.0,-51.0,74.0,10.0,1
-9.0,-248.0,50.0,-50.0,73.0,11.0,1
-11.0,-248.0,51.0,-47.0,71.0,11.0,1
-10.0,-248.0,51.0,-43.0,70.0,14.0,1
-11.0,-247.0,51.0,-40.0,66.0,12.0,1
-11.0,-249.0,45.0,-34.0,65.0,16.0,1
-11.0,-245.0,53.0,-32.0,62.0,17.0,1
-12.0,-245.0,47.0,-28.0,60.0,22.0,1
-12.0,-247.0,50.0,-25.0,59.0,22.0,1
-12.0,-245.0,51.0,-23.0,56.0,27.0,1
-11.0,-246.0,49.0,-18.0,54.0,29.0,1
-12.0,-247.0,48.0,-14.0,53.0,33.0,1
-12.0,-245.0,50.0,-12.0,51.0,36.0,1
-12.0,-244.0,51.0,-10.0,47.0,41.0,1
-12.0,-247.0,51.0,-9.0,44.0,42.0,1
-12.0,-245.0,51.0,-8.0,40.0,47.0,1
-12.0,-246.0,43.0,-8.0,36.0,48.0,1
-12.0,-246.0,47.0,-7.0,30.0,53.0,1
-12.0,-244.0,47.0,-9.0,25.0,52.0,1
-13.0,-245.0,48.0,-9.0,19.0,57.0,1
-12.0,-246.0,50.0,-12.0,15.0,57.0,1
-12.0,-242.0,49.0,-13.0,9.0,59.0,1
-13.0,-243.0,48.0,-13.0,2.0,59.0,1
-13.0,-244.0,46.0,-14.0,-4.0,61.0,1
-15.0,-242.0,48.0,-16.0,-10.0,60.0,1
-15.0,-243.0,47.0,-14.0,-16.0,63.0,1
-14.0,-243.0,49.0,-16.0,-19.0,60.0,1
-12.0,-243.0,46.0,-17.0,-24.0,62.0,1
-12.0,-242.0,46.0,-19.0,-27.0,57.0,1
-12.0,-243.0,44.0,-19.0,-30.0,59.0,1
-12.0,-243.0,46.0,-24.0,-34.0,54.0,1
-14.0,-245.0,45.0,-27.0,-35.0,54.0,1
-12.0,-245.0,44.0,-29.0,-37.0,49.0,1
-12.0,-246.0,46.0,-30.0,-35.0,47.0,1
-15.0,-246.0,48.0,-28.0,-35.0,41.0,1
-13.0,-248.0,45.0,-26.0,-32.0,37.0,1
-11.0,-247.0,47.0,-27.0,-30.0,29.0,1
-11.0,-249.0,47.0,-27.0,-28.0,25.0,1
-9.0,-249.0,47.0,-28.0,-25.0,14.0,1
-7.0,-252.0,52.0,-33.0,-24.0,6.0,1
-8.0,-251.0,52.0,-36.0,-20.0,-5.0,1
-4.0,-250.0,51.0,-37.0,-15.0,-11.0,1
-4.0,-251.0,52.0,-34.0,-7.0,-22.0,1
-2.0,-254.0,57.0,-34.0,3.0,-29.0,1
1.0,-257.0,54.0,-35.0,12.0,-42.0,1
1.0,-255.0,52.0,-35.0,19.0,-51.0,1
2.0,-257.0,53.0,-34.0,28.0,-59.0,1
5.0,-255.0,51.0,-32.0,41.0,-62.0,1
3.0,-257.0,54.0,-31.0,52.0,-70.0,1
4.0,-257.0,52.0,-30.0,61.0,-74.0,1
3.0,-258.0,54.0,-30.0,73.0,-80.0,1
1.0,-258.0,52.0,-30.0,85.0,-80.0,1
6.0,-257.0,51.0,-29.0,102.0,-85.0,1
5.0,-256.0,51.0,-26.0,114.0,-85.0,1
3.0,-256.0,53.0,-23.0,124.0,-89.0,1
4.0,-257.0,47.0,-22.0,134.0,-88.0,1
0.0,-255.0,50.0,-18.0,144.0,-91.0,1
0.0,-254.0,49.0,-15.0,151.0,-88.0,1
-1.0,-256.0,50.0,-9.0,159.0,-87.0,1
-1.0,-254.0,45.0,-3.0,164.0,-82.0,1
0.0,-255.0,51.0,4.0,168.0,-78.0,1
-5.0,-250.0,48.0,12.0,168.0,-71.0,1
-6.0,-248.0,48.0,20.0,166.0,-68.0,1
-9.0,-248.0,49.0,29.0,163.0,-62.0,1
-11.0,-249.0,51.0,35.0,156.0,-61.0,1
-12.0,-246.0,49.0,40.0,148.0,-52.0,1
-15.0,-240.0,54.0,46.0,139.0,-49.0,1
-18.0,-241.0,52.0,49.0,129.0,-37.0,1
-19.0,-239.0,51.0,52.0,116.0,-30.0,1
-24.0,-238.0,53.0,53.0,104.0,-17.0,1
-22.0,-236.0,52.0,51.0,93.0,-8.0,1
-27.0,-233.0,49.0,48.0,85.0,5.0,1
-23.0,-231.0,53.0,43.0,75.0,16.0,1
-24.0,-229.0,55.0,35.0,68.0,29.0,1
-20.0,-230.0,54.0,27.0,63.0,37.0,1
-25.0,-225.0,54.0,20.0,60.0,47.0,1
-22.0,-230.0,58.0,9.0,58.0,54.0,1
-22.0,-227.0,56.0,-1.0,57.0,62.0,1
-25.0,-228.0,55.0,-14.0,53.0,65.0,1
-21.0,-231.0,56.0,-27.0,50.0,70.0,1
-16.0,-236.0,57.0,-39.0,45.0,72.0,1
-21.0,-234.0,55.0,-53.0,41.0,76.0,1
-19.0,-237.0,55.0,-68.0,34.0,75.0,1
-19.0,-236.0,53.0,-78.0,26.0,75.0,1
-20.0,-239.0,55.0,-89.0,20.0,70.0,1
-15.0,-239.0,51.0,-98.0,16.0,73.0,1
-14.0,-243.0,54.0,-104.0,11.0,75.0,1
-13.0,-246.0,51.0,-107.0,9.0,78.0,1
-13.0,-249.0,49.0,-107.0,5.0,79.0,1
-12.0,-248.0,55.0,-105.0,1.0,81.0,1
-12.0,-252.0,49.0,-100.0,-4.0,80.0,1
-11.0,-252.0,49.0,-93.0,-8.0,82.0,1
-12.0,-256.0,53.0,-85.0,-11.0,82.0,1
-10.0,-257.0,48.0,-77.0,-14.0,80.0,1
-11.0,-257.0,53.0,-66.0,-19.0,77.0,1
-10.0,-258.0,50.0,-56.0,-20.0,77.0,1
-9.0,-259.0,45.0,-44.0,-19.0,74.0,1
-7.0,-258.0,45.0,-33.0,-17.0,71.0,1
-11.0,-254.0,45.0,-21.0,-15.0,66.0,1
-10.0,-254.0,47.0,-11.0,-12.0,64.0,1
-8.0,-256.0,50.0,0.0,-9.0,59.0,1
-7.0,-256.0,47.0,7.0,-7.0,55.0,1
-8.0,-256.0,49.0,14.0,-5.0,49.0,1
-7.0,-254.0,49.0,19.0,-6.0,45.0,1
-10.0,-252.0,46.0,21.0,-8.0,43.0,1
-9.0,-252.0,47.0,24.0,-9.0,40.0,1
-8.0,-248.0,49.0,26.0,-13.0,37.0,1
-6.0,-251.0,48.0,27.0,-17.0,37.0,1
-4.0,-251.0,50.0,28.0,-24.0,32.0,1
-5.0,-251.0,49.0,27.0,-27.0,30.0,1
-8.0,-249.0,53.0,29.0,-30.0,28.0,1
-10.0,-250.0,51.0,33.0,-31.0,25.0,1
-4.0,-247.0,54.0,38.0,-31.0,24.0,1
-7.0,-247.0,49.0,46.0,-25.0,21.0,1
-7.0,-248.0,53.0,51.0,-19.0,19.0,1
-10.0,-248.0,56.0,59.0,-9.0,17.0,1
-11.0,-245.0,54.0,65.0,3.0,14.0,1
-11.0,-244.0,55.0,68.0,16.0,12.0,1
-10.0,-246.0,54.0,71.0,30.0,9.0,1
-12.0,-247.0,55.0,69.0,41.0,8.0,1
-11.0,-245.0,55.0,68.0,51.0,6.0,1
-12.0,-242.0,55.0,65.0,61.0,6.0,1
-13.0,-243.0,55.0,60.0,68.0,5.0,1
-12.0,-246.0,56.0,57.0,70.0,3.0,1
-13.0,-242.0,54.0,53.0,73.0,3.0,1
-12.0,-245.0,57.0,49.0,74.0,2.0,1
-12.0,-243.0,56.0,47.0,75.0,0.0,1
-13.0,-247.0,54.0,43.0,75.0,-2.0,1
-13.0,-245.0,54.0,41.0,78.0,-5.0,1
-14.0,-244.0,56.0,40.0,80.0,-5.0,1
-12.0,-245.0,56.0,38.0,79.0,-5.0,1
-12.0,-245.0,52.0,35.0,80.0,-6.0,1
-13.0,-245.0,55.0,29.0,79.0,-6.0,1
-12.0,-247.0,50.0,24.0,80.0,-4.0,1
-11.0,-246.0,49.0,19.0,79.0,-3.0,1
-11.0,-246.0,52.0,16.0,79.0,-2.0,1
-9.0,-246.0,47.0,14.0,79.0,0.0,1
-10.0,-248.0,48.0,17.0,78.0,1.0,1
-11.0,-245.0,50.0,20.0,77.0,1.0,1
-10.0,-244.0,45.0,24.0,75.0,4.0,1
-11.0,-244.0,48.0,27.0,76.0,5.0,1
-11.0,-245.0,49.0,30.0,76.0,4.0,1
-12.0,-243.0,48.0,33.0,72.0,7.0,1
-12.0,-246.0,60.0,35.0,71.0,4.0,1
-11.0,-245.0,50.0,37.0,71.0,5.0,1
-1.0,-245.0,55.0,40.0,69.0,3.0,1
-16.0,-247.0,55.0,40.0,65.0,4.0,1
-9.0,-251.0,59.0,42.0,59.0,2.0,1
-14.0,-243.0,43.0,42.0,55.0,3.0,1
-12.0,-248.0,55.0,42.0,49.0,3.0,1
-12.0,-247.0,51.0,41.0,42.0,6.0,1
-13.0,-248.0,51.0,40.0,37.0,5.0,1
-14.0,-247.0,50.0,39.0,33.0,7.0,1
-13.0,-248.0,50.0,37.0,29.0,5.0,1
-16.0,-247.0,50.0,37.0,27.0,6.0,1
-16.0,-250.0,56.0,37.0,23.0,4.0,1
-14.0,-247.0,52.0,37.0,24.0,4.0,1
-18.0,-248.0,50.0,38.0,24.0,2.0,1
-13.0,-250.0,52.0,40.0,23.0,3.0,1
-13.0,-251.0,53.0,42.0,23.0,2.0,1
-14.0,-250.0,52.0,45.0,25.0,3.0,1
-12.0,-247.0,51.0,49.0,26.0,0.0,1
-13.0,-247.0,53.0,52.0,26.0,3.0,1
-14.0,-248.0,55.0,54.0,27.0,1.0,1
-13.0,-248.0,55.0,57.0,28.0,3.0,1
-13.0,-247.0,55.0,59.0,26.0,4.0,1
-14.0,-247.0,53.0,62.0,27.0,6.0,1
-14.0,-245.0,52.0,64.0,28.0,7.0,1
-12.0,-245.0,53.0,64.0,28.0,10.0,1
-15.0,-245.0,52.0,62.0,28.0,11.0,1
-15.0,-246.0,57.0,62.0,28.0,14.0,1
-14.0,-248.0,54.0,58.0,27.0,14.0,1
-12.0,-249.0,54.0,57.0,28.0,19.0,1
-12.0,-245.0,56.0,54.0,28.0,19.0,1
-16.0,-242.0,54.0,53.0,28.0,23.0,1
-14.0,-244.0,51.0,51.0,27.0,22.0,1
-12.0,-245.0,56.0,49.0,27.0,24.0,1
-12.0,-243.0,58.0,48.0,25.0,21.0,1
-11.0,-243.0,56.0,49.0,26.0,22.0,1
-11.0,-241.0,56.0,49.0,25.0,19.0,1
-12.0,-242.0,55.0,50.0,25.0,19.0,1
-12.0,-242.0,56.0,52.0,23.0,14.0,1
-11.0,-244.0,52.0,53.0,22.0,14.0,1
-12.0,-242.0,53.0,52.0,20.0,10.0,1
-11.0,-245.0,55.0,53.0,19.0,11.0,1
-11.0,-242.0,55.0,54.0,17.0,6.0,1
-11.0,-245.0,52.0,55.0,15.0,7.0,1
-12.0,-240.0,54.0,53.0,14.0,2.0,1
-11.0,-243.0,56.0,52.0,16.0,4.0,1
-11.0,-243.0,60.0,52.0,18.0,-1.0,1
-9.0,-242.0,55.0,52.0,20.0,1.0,1
-7.0,-245.0,60.0,54.0,23.0,-3.0,1
-5.0,-247.0,59.0,55.0,28.0,-2.0,1
-10.0,-244.0,59.0,53.0,33.0,-7.0,1
-11.0,-242.0,58.0,51.0,37.0,-6.0,1
-11.0,-245.0,60.0,51.0,41.0,-10.0,1
-9.0,-246.0,60.0,49.0,45.0,-9.0,1
-8.0,-248.0,58.0,48.0,48.0,-14.0,1
-7.0,-246.0,58.0,44.0,51.0,-14.0,1
-10.0,-245.0,61.0,40.0,53.0,-19.0,1
-10.0,-246.0,60.0,35.0,54.0,-20.0,1
-10.0,-243.0,59.0,32.0,54.0,-24.0,1
-11.0,-246.0,60.0,30.0,55.0,-24.0,1
-9.0,-245.0,59.0,30.0,56.0,-30.0,1
-10.0,-246.0,58.0,29.0,56.0,-31.0,1
-10.0,-245.0,60.0,26.0,57.0,-35.0,1
-11.0,-246.0,59.0,27.0,59.0,-36.0,1
-12.0,-245.0,60.0,27.0,62.0,-40.0,1
-11.0,-246.0,62.0,28.0,65.0,-38.0,1
-12.0,-245.0,63.0,28.0,67.0,-42.0,1
-12.0,-245.0,60.0,29.0,69.0,-39.0,1
-11.0,-245.0,61.0,30.0,74.0,-41.0,1
-12.0,-244.0,64.0,31.0,75.0,-38.0,1
-12.0,-245.0,60.0,34.0,77.0,-40.0,1
-12.0,-244.0,62.0,35.0,77.0,-35.0,1
-12.0,-243.0,62.0,36.0,76.0,-35.0,1
-13.0,-241.0,61.0,36.0,75.0,-31.0,1
-12.0,-239.0,57.0,34.0,73.0,-30.0,1
-12.0,-240.0,64.0,33.0,72.0,-25.0,1
-17.0,-238.0,60.0,33.0,67.0,-26.0,1
-12.0,-240.0,64.0,32.0,65.0,-23.0,1
-15.0,-240.0,62.0,29.0,64.0,-24.0,1
-17.0,-239.0,63.0,26.0,60.0,-20.0,1
-14.0,-241.0,64.0,21.0,60.0,-23.0,1
-15.0,-239.0,64.0,15.0,58.0,-19.0,1
-13.0,-238.0,65.0,8.0,56.0,-21.0,1
-17.0,-238.0,59.0,1.0,53.0,-17.0,1
-14.0,-239.0,63.0,-5.0,51.0,-16.0,1
-14.0,-232.0,63.0,-9.0,48.0,-12.0,1
-17.0,-238.0,63.0,-11.0,45.0,-12.0,1
-15.0,-240.0,66.0,-15.0,42.0,-8.0,1
-15.0,-238.0,63.0,-18.0,41.0,-8.0,1
-17.0,-240.0,57.0,-22.0,39.0,-3.0,1
-12.0,-242.0,61.0,-24.0,37.0,-2.0,1
-13.0,-244.0,63.0,-28.0,37.0,5.0,1
-11.0,-243.0,59.0,-36.0,36.0,5.0,1
-11.0,-242.0,59.0,-41.0,33.0,9.0,1
-9.0,-246.0,61.0,-48.0,29.0,9.0,1
-10.0,-243.0,55.0,-56.0,23.0,11.0,1
-12.0,-243.0,57.0,-64.0,16.0,12.0,1
-12.0,-243.0,59.0,-70.0,12.0,14.0,1
-12.0,-239.0,56.0,-74.0,6.0,14.0,1
-11.0,-241.0,58.0,-75.0,-1.0,15.0,1
-12.0,-238.0,59.0,-73.0,-6.0,13.0,1
-12.0,-239.0,58.0,-68.0,-10.0,15.0,1
-10.0,-237.0,57.0,-60.0,-10.0,13.0,1
-12.0,-236.0,58.0,-50.0,-8.0,16.0,1
-10.0,-240.0,58.0,-42.0,-4.0,13.0,1
-10.0,-236.0,59.0,-35.0,8.0,13.0,1
-10.0,-240.0,60.0,-27.0,15.0,12.0,1
-9.0,-239.0,61.0,-22.0,27.0,13.0,1
-7.0,-241.0,61.0,-18.0,36.0,12.0,1
-7.0,-240.0,60.0,-18.0,48.0,13.0,1
-9.0,-244.0,60.0,-18.0,59.0,10.0,1
-8.0,-245.0,60.0,-20.0,66.0,11.0,1
-8.0,-246.0,61.0,-20.0,72.0,10.0,1
-6.0,-250.0,61.0,-21.0,78.0,11.0,1
-5.0,-252.0,62.0,-23.0,80.0,11.0,1
-7.0,-250.0,64.0,-22.0,81.0,10.0,1
-7.0,-253.0,64.0,-22.0,79.0,9.0,1
-4.0,-252.0,65.0,-21.0,79.0,10.0,1
-4.0,-253.0,63.0,-20.0,79.0,9.0,1
-11.0,-252.0,61.0,-20.0,79.0,9.0,1
-7.0,-254.0,61.0,-20.0,81.0,3.0,1
-7.0,-250.0,63.0,-18.0,82.0,1.0,1
-6.0,-255.0,64.0,-18.0,86.0,-6.0,1
-7.0,-252.0,63.0,-17.0,90.0,-11.0,1
-7.0,-253.0,60.0,-18.0,96.0,-17.0,1
-8.0,-249.0,61.0,-16.0,104.0,-22.0,1
-6.0,-247.0,61.0,-15.0,109.0,-26.0,1
-8.0,-244.0,59.0,-18.0,114.0,-29.0,1
-9.0,-244.0,62.0,-21.0,121.0,-32.0,1
-6.0,-242.0,57.0,-22.0,124.0,-33.0,1
-10.0,-241.0,64.0,-22.0,128.0,-35.0,1
-10.0,-239.0,64.0,-22.0,130.0,-36.0,1
-11.0,-241.0,64.0,-23.0,131.0,-36.0,1
-10.0,-236.0,55.0,-26.0,132.0,-36.0,1
-11.0,-239.0,57.0,-29.0,132.0,-37.0,1
-10.0,-238.0,65.0,-32.0,132.0,-37.0,1
-12.0,-236.0,59.0,-34.0,133.0,-39.0,1
-12.0,-237.0,62.0,-36.0,132.0,-39.0,1
-10.0,-237.0,58.0,-41.0,135.0,-40.0,1
-12.0,-237.0,61.0,-46.0,135.0,-40.0,1
-12.0,-235.0,64.0,-51.0,133.0,-43.0,1
-12.0,-240.0,62.0,-58.0,131.0,-44.0,1
-13.0,-240.0,64.0,-65.0,130.0,-46.0,1
-12.0,-240.0,63.0,-71.0,128.0,-48.0,1
-15.0,-237.0,59.0,-79.0,126.0,-48.0,1
-13.0,-240.0,60.0,-84.0,121.0,-50.0,1
-15.0,-241.0,64.0,-90.0,116.0,-51.0,1
-15.0,-241.0,67.0,-94.0,110.0,-53.0,1
-15.0,-239.0,62.0,-101.0,108.0,-54.0,1
-12.0,-243.0,63.0,-107.0,102.0,-55.0,1
-13.0,-246.0,62.0,-108.0,96.0,-54.0,1
-14.0,-246.0,64.0,-112.0,90.0,-54.0,1
-13.0,-244.0,62.0,-112.0,84.0,-53.0,1
-17.0,-245.0,62.0,-112.0,78.0,-50.0,1
-12.0,-245.0,65.0,-108.0,71.0,-46.0,1
-13.0,-245.0,59.0,-105.0,66.0,-44.0,1
-14.0,-246.0,58.0,-102.0,60.0,-38.0,1
-12.0,-248.0,60.0,-95.0,56.0,-38.0,1
-16.0,-245.0,60.0,-92.0,52.0,-33.0,1
-13.0,-245.0,58.0,-86.0,48.0,-28.0,1
-13.0,-245.0,59.0,-80.0,45.0,-24.0,1
-12.0,-247.0,56.0,-74.0,42.0,-21.0,1
-12.0,-246.0,59.0,-69.0,37.0,-19.0,1
-12.0,-243.0,55.0,-62.0,31.0,-16.0,1
-12.0,-246.0,55.0,-55.0,29.0,-10.0,1
-13.0,-244.0,54.0,-48.0,26.0,-9.0,1
-13.0,-243.0,55.0,-42.0,22.0,-4.0,1
-12.0,-245.0,56.0,-39.0,17.0,-4.0,1
-14.0,-243.0,56.0,-34.0,14.0,0.0,1
-12.0,-243.0,53.0,-31.0,8.0,0.0,1
-13.0,-241.0,53.0,-28.0,4.0,4.0,1
-12.0,-244.0,56.0,-24.0,1.0,3.0,1
-9.0,-246.0,58.0,-20.0,-2.0,6.0,1
-12.0,-246.0,57.0,-16.0,-4.0,6.0,1
-9.0,-251.0,57.0,-13.0,-4.0,10.0,1
-11.0,-247.0,57.0,-10.0,-5.0,10.0,1
-12.0,-246.0,58.0,-10.0,-4.0,12.0,1
-9.0,-248.0,57.0,-6.0,-2.0,12.0,1
-12.0,-248.0,60.0,-4.0,1.0,14.0,1
-9.0,-249.0,53.0,-4.0,5.0,13.0,1
-9.0,-248.0,56.0,-2.0,10.0,13.0,1
-9.0,-246.0,59.0,0.0,14.0,12.0,1
-10.0,-245.0,56.0,-2.0,19.0,13.0,1
-6.0,-247.0,56.0,-4.0,26.0,9.0,1
-7.0,-246.0,54.0,-6.0,30.0,9.0,1
-6.0,-250.0,59.0,-9.0,35.0,5.0,1
-5.0,-250.0,57.0,-12.0,41.0,3.0,1
-5.0,-247.0,61.0,-13.0,44.0,-1.0,1
-8.0,-245.0,57.0,-12.0,47.0,-4.0,1
-4.0,-248.0,60.0,-13.0,49.0,-9.0,1
-4.0,-245.0,53.0,-11.0,52.0,-11.0,1
-5.0,-246.0,56.0,-12.0,54.0,-16.0,1
-4.0,-246.0,54.0,-13.0,56.0,-19.0,1
-5.0,-246.0,57.0,-13.0,58.0,-25.0,1
-6.0,-247.0,57.0,-11.0,60.0,-27.0,1
-8.0,-244.0,55.0,-10.0,61.0,-31.0,1
-6.0,-242.0,58.0,-8.0,65.0,-34.0,1
-6.0,-245.0,55.0,-7.0,66.0,-40.0,1
-7.0,-244.0,57.0,-6.0,70.0,-41.0,1
-8.0,-244.0,58.0,-4.0,73.0,-45.0,1
-8.0,-243.0,56.0,-5.0,75.0,-45.0,1
-9.0,-242.0,56.0,-8.0,76.0,-50.0,1
-8.0,-243.0,53.0,-10.0,78.0,-49.0,1
-10.0,-243.0,55.0,-16.0,79.0,-50.0,1
-10.0,-244.0,58.0,-21.0,81.0,-47.0,1
-10.0,-244.0,53.0,-27.0,82.0,-49.0,1
-11.0,-238.0,51.0,-33.0,83.0,-47.0,1
-8.0,-243.0,50.0,-42.0,84.0,-48.0,1
-9.0,-240.0,56.0,-49.0,88.0,-44.0,1
-9.0,-240.0,52.0,-57.0,91.0,-45.0,1
-11.0,-241.0,55.0,-64.0,96.0,-42.0,1
-9.0,-241.0,52.0,-72.0,99.0,-43.0,1
-11.0,-241.0,56.0,-80.0,106.0,-42.0,1
-9.0,-243.0,54.0,-86.0,109.0,-43.0,1
-11.0,-241.0,56.0,-89.0,111.0,-41.0,1
-9.0,-241.0,51.0,-90.0,114.0,-43.0,1
-8.0,-242.0,53.0,-90.0,117.0,-40.0,1
-10.0,-240.0,55.0,-87.0,117.0,-42.0,1
-9.0,-243.0,53.0,-86.0,118.0,-40.0,1
-8.0,-240.0,53.0,-83.0,118.0,-41.0,1
-10.0,-241.0,53.0,-83.0,116.0,-37.0,1
-9.0,-243.0,57.0,-82.0,116.0,-39.0,1
-12.0,-244.0,56.0,-82.0,115.0,-36.0,1
-9.0,-245.0,54.0,-83.0,115.0,-37.0,1
-10.0,-245.0,51.0,-83.0,116.0,-34.0,1
-10.0,-243.0,53.0,-86.0,115.0,-36.0,1
-11.0,-244.0,51.0,-88.0,114.0,-33.0,1
-11.0,-244.0,49.0,-93.0,113.0,-36.0,1
-11.0,-244.0,53.0,-100.0,112.0,-32.0,1
-12.0,-243.0,51.0,-105.0,111.0,-35.0,1
-11.0,-245.0,53.0,-111.0,111.0,-33.0,1
-10.0,-245.0,52.0,-118.0,109.0,-36.0,1
-11.0,-244.0,48.0,-122.0,109.0,-34.0,1
-10.0,-242.0,46.0,-128.0,107.0,-37.0,1
-8.0,-244.0,46.0,-128.0,104.0,-36.0,1
-11.0,-244.0,49.0,-131.0,104.0,-40.0,1
-10.0,-246.0,50.0,-132.0,101.0,-39.0,1
-9.0,-247.0,49.0,-134.0,101.0,-43.0,1
-10.0,-244.0,51.0,-133.0,98.0,-42.0,1
-6.0,-249.0,48.0,-134.0,97.0,-47.0,1
-8.0,-243.0,49.0,-133.0,94.0,-46.0,1
-9.0,-243.0,52.0,-133.0,93.0,-50.0,1
-6.0,-248.0,48.0,-133.0,90.0,-50.0,1
-4.0,-247.0,49.0,-134.0,86.0,-53.0,1
-6.0,-246.0,45.0,-134.0,85.0,-51.0,1
-2.0,-248.0,47.0,-136.0,82.0,-56.0,1
-4.0,-252.0,47.0,-136.0,81.0,-55.0,1
-5.0,-247.0,47.0,-138.0,79.0,-58.0,1
-5.0,-248.0,45.0,-139.0,78.0,-55.0,1
-4.0,-249.0,46.0,-141.0,78.0,-57.0,1
-1.0,-249.0,44.0,-143.0,78.0,-55.0,1
-7.0,-249.0,49.0,-146.0,78.0,-57.0,1
-8.0,-250.0,44.0,-148.0,79.0,-55.0,1
-4.0,-247.0,51.0,-153.0,79.0,-54.0,1
-7.0,-245.0,45.0,-155.0,79.0,-52.0,1
-7.0,-250.0,46.0,-157.0,83.0,-52.0,1
-6.0,-248.0,43.0,-157.0,85.0,-46.0,1
-6.0,-247.0,45.0,-158.0,87.0,-46.0,1
-5.0,-246.0,45.0,-157.0,91.0,-41.0,1
-4.0,-243.0,49.0,-158.0,93.0,-40.0,1
-8.0,-243.0,46.0,-159.0,94.0,-35.0,1
-6.0,-245.0,49.0,-163.0,96.0,-33.0,1
-8.0,-244.0,47.0,-168.0,97.0,-30.0,1
-11.0,-241.0,44.0,-170.0,98.0,-29.0,1
-4.0,-245.0,44.0,-173.0,98.0,-25.0,1
-8.0,-246.0,48.0,-176.0,99.0,-25.0,1
-9.0,-248.0,42.0,-179.0,98.0,-22.0,1
-9.0,-246.0,48.0,-182.0,97.0,-23.0,1
-10.0,-245.0,47.0,-186.0,96.0,-17.0,1
-8.0,-243.0,46.0,-190.0,94.0,-18.0,1
-9.0,-244.0,40.0,-194.0,92.0,-13.0,1
-11.0,-243.0,46.0,-199.0,92.0,-13.0,1
-9.0,-245.0,44.0,-202.0,91.0,-12.0,1
-8.0,-246.0,47.0,-205.0,92.0,-11.0,1
-9.0,-245.0,43.0,-205.0,93.0,-9.0,1
-10.0,-246.0,40.0,-208.0,96.0,-11.0,1
-11.0,-247.0,43.0,-209.0,98.0,-9.0,1
-11.0,-247.0,43.0,-210.0,98.0,-10.0,1
-11.0,-247.0,46.0,-212.0,101.0,-8.0,1
-9.0,-249.0,45.0,-213.0,103.0,-9.0,1
-9.0,-251.0,43.0,-215.0,103.0,-8.0,1
-10.0,-250.0,44.0,-216.0,105.0,-9.0,1
-7.0,-250.0,42.0,-218.0,109.0,-11.0,1
-9.0,-250.0,43.0,-220.0,112.0,-12.0,1
-6.0,-253.0,41.0,-222.0,115.0,-14.0,1
-6.0,-248.0,39.0,-227.0,118.0,-18.0,1
-4.0,-250.0,40.0,-231.0,122.0,-20.0,1
-4.0,-253.0,42.0,-234.0,126.0,-23.0,1
-4.0,-249.0,39.0,-237.0,129.0,-24.0,1
0.0,-252.0,39.0,-240.0,135.0,-26.0,1
-1.0,-248.0,35.0,-242.0,138.0,-27.0,1
-4.0,-248.0,34.0,-242.0,140.0,-28.0,1
-5.0,-249.0,33.0,-241.0,142.0,-31.0,1
-3.0,-250.0,33.0,-240.0,145.0,-33.0,1
-2.0,-248.0,34.0,-239.0,147.0,-35.0,1
1.0,-251.0,36.0,-237.0,152.0,-39.0,1
2.0,-251.0,31.0,-233.0,153.0,-44.0,1
-1.0,-251.0,32.0,-231.0,156.0,-48.0,1
1.0,-252.0,31.0,-226.0,158.0,-52.0,1
0.0,-251.0,31.0,-222.0,161.0,-57.0,1
-2.0,-253.0,32.0,-216.0,163.0,-65.0,1
-1.0,-251.0,33.0,-212.0,165.0,-71.0,1
0.0,-255.0,34.0,-207.0,169.0,-80.0,1
-1.0,-258.0,35.0,-195.0,172.0,-94.0,1
-7.0,-249.0,32.0,-179.0,181.0,-112.0,1
-2.0,-250.0,32.0,-179.0,184.0,-107.0,1
-1.0,-250.0,32.0,-184.0,185.0,-103.0,1
2.0,-250.0,34.0,-185.0,187.0,-102.0,1
-3.0,-251.0,33.0,-184.0,190.0,-102.0,1
-2.0,-252.0,31.0,-184.0,194.0,-107.0,1
-3.0,-249.0,37.0,-178.0,198.0,-112.0,1
-2.0,-253.0,33.0,-175.0,201.0,-114.0,1
-4.0,-253.0,31.0,-170.0,205.0,-118.0,1
-4.0,-253.0,35.0,-167.0,207.0,-121.0,1
-3.0,-253.0,32.0,-163.0,211.0,-125.0,1
-3.0,-254.0,37.0,-164.0,213.0,-126.0,1
-4.0,-254.0,31.0,-164.0,217.0,-128.0,1
-2.0,-254.0,33.0,-163.0,220.0,-130.0,1
-3.0,-255.0,32.0,-164.0,224.0,-132.0,1
-2.0,-250.0,35.0,-167.0,227.0,-131.0,1
2.0,-251.0,33.0,-168.0,231.0,-133.0,1
-5.0,-250.0,34.0,-174.0,236.0,-132.0,1
-2.0,-248.0,31.0,-179.0,238.0,-133.0,1
-3.0,-249.0,33.0,-184.0,240.0,-129.0,1
-2.0,-246.0,32.0,-190.0,244.0,-131.0,1
-4.0,-244.0,32.0,-196.0,246.0,-127.0,1
-2.0,-244.0,30.0,-201.0,247.0,-125.0,1
-2.0,-244.0,30.0,-205.0,248.0,-123.0,1
-2.0,-243.0,31.0,-209.0,249.0,-120.0,1
-2.0,-241.0,31.0,-214.0,247.0,-118.0,1
1.0,-243.0,29.0,-218.0,248.0,-117.0,1
0.0,-244.0,28.0,-223.0,250.0,-114.0,1
3.0,-245.0,26.0,-228.0,251.0,-114.0,1
0.0,-243.0,27.0,-235.0,253.0,-110.0,1
1.0,-246.0,27.0,-240.0,253.0,-110.0,1
0.0,-247.0,26.0,-243.0,254.0,-108.0,1
2.0,-246.0,26.0,-247.0,254.0,-108.0,1
0.0,-249.0,28.0,-252.0,255.0,-107.0,1
1.0,-249.0,24.0,-254.0,254.0,-106.0,1
2.0,-249.0,23.0,-255.0,253.0,-102.0,1
0.0,-250.0,26.0,-257.0,252.0,-103.0,1
1.0,-249.0,23.0,-259.0,252.0,-99.0,1
1.0,-249.0,22.0,-261.0,251.0,-98.0,1
-1.0,-251.0,21.0,-264.0,249.0,-92.0,1
2.0,-250.0,17.0,-265.0,248.0,-93.0,1
2.0,-249.0,18.0,-268.0,247.0,-89.0,1
2.0,-250.0,14.0,-268.0,247.0,-89.0,1
3.0,-249.0,19.0,-269.0,246.0,-85.0,1
2.0,-250.0,15.0,-271.0,248.0,-84.0,1
0.0,-249.0,19.0,-271.0,247.0,-80.0,1
1.0,-253.0,17.0,-270.0,249.0,-81.0,1
3.0,-252.0,18.0,-271.0,250.0,-78.0,1
4.0,-254.0,17.0,-271.0,251.0,-80.0,1
3.0,-254.0,13.0,-274.0,252.0,-78.0,1
0.0,-254.0,15.0,-275.0,257.0,-82.0,1
2.0,-254.0,18.0,-276.0,260.0,-82.0,1
1.0,-255.0,19.0,-277.0,262.0,-85.0,1
1.0,-255.0,14.0,-276.0,267.0,-85.0,1
1.0,-255.0,13.0,-280.0,274.0,-89.0,1
3.0,-254.0,10.0,-278.0,280.0,-85.0,1
-1.0,-254.0,14.0,-278.0,283.0,-87.0,1
2.0,-255.0,14.0,-277.0,285.0,-84.0,1
2.0,-254.0,12.0,-277.0,288.0,-86.0,1
-2.0,-252.0,11.0,-278.0,287.0,-82.0,1
-1.0,-254.0,10.0,-281.0,287.0,-82.0,1
-1.0,-253.0,8.0,-283.0,286.0,-77.0,1
0.0,-252.0,7.0,-286.0,284.0,-74.0,1
0.0,-253.0,9.0,-290.0,278.0,-64.0,1
-2.0,-250.0,10.0,-296.0,271.0,-64.0,1
-8.0,-256.0,9.0,-297.0,261.0,-64.0,1
-5.0,-252.0,11.0,-297.0,252.0,-73.0,1
-2.0,-253.0,8.0,-295.0,245.0,-76.0,1
-3.0,-255.0,8.0,-293.0,238.0,-83.0,1
-5.0,-254.0,7.0,-291.0,231.0,-82.0,1
-7.0,-255.0,9.0,-288.0,223.0,-85.0,1
-7.0,-255.0,6.0,-289.0,217.0,-86.0,1
-6.0,-256.0,6.0,-290.0,208.0,-91.0,1
-8.0,-258.0,6.0,-291.0,196.0,-89.0,1
-6.0,-257.0,6.0,-294.0,189.0,-92.0,1
-10.0,-257.0,7.0,-294.0,178.0,-88.0,1
-9.0,-257.0,3.0,-292.0,167.0,-89.0,1
-9.0,-258.0,2.0,-291.0,154.0,-83.0,1
-11.0,-258.0,2.0,-288.0,142.0,-81.0,1
-11.0,-255.0,-1.0,-286.0,133.0,-73.0,1
-10.0,-257.0,-1.0,-283.0,125.0,-70.0,1
-9.0,-258.0,-4.0,-279.0,117.0,-63.0,1
-11.0,-254.0,3.0,-275.0,110.0,-59.0,1
-8.0,-256.0,3.0,-269.0,102.0,-50.0,1
-5.0,-255.0,4.0,-264.0,94.0,-43.0,1
-4.0,-256.0,4.0,-259.0,92.0,-32.0,1
-3.0,-252.0,5.0,-252.0,90.0,-28.0,1
-2.0,-251.0,5.0,-247.0,87.0,-21.0,1
-3.0,-249.0,4.0,-242.0,87.0,-18.0,1
-2.0,-252.0,1.0,-237.0,87.0,-12.0,1
-1.0,-250.0,5.0,-233.0,87.0,-13.0,1
1.0,-251.0,3.0,-230.0,84.0,-6.0,1
0.0,-254.0,-1.0,-226.0,85.0,-1.0,1
3.0,-253.0,0.0,-221.0,86.0,9.0,1
3.0,-253.0,2.0,-220.0,88.0,14.0,1
6.0,-254.0,4.0,-218.0,88.0,19.0,1
2.0,-250.0,3.0,-217.0,91.0,20.0,1
7.0,-253.0,5.0,-217.0,93.0,26.0,1
8.0,-257.0,7.0,-216.0,95.0,26.0,1
9.0,-257.0,6.0,-214.0,97.0,32.0,1
10.0,-255.0,7.0,-213.0,102.0,31.0,1
8.0,-256.0,3.0,-212.0,107.0,34.0,1
5.0,-255.0,-3.0,-210.0,104.0,36.0,1
12.0,-259.0,3.0,-213.0,87.0,44.0,1
11.0,-257.0,0.0,-214.0,77.0,49.0,1
11.0,-257.0,-2.0,-211.0,81.0,56.0,1
9.0,-257.0,1.0,-211.0,77.0,59.0,1
10.0,-255.0,-5.0,-217.0,72.0,62.0,1
9.0,-254.0,-6.0,-222.0,74.0,64.0,1
7.0,-254.0,-4.0,-224.0,75.0,65.0,1
2.0,-253.0,-5.0,-228.0,74.0,64.0,1
4.0,-254.0,-2.0,-232.0,68.0,67.0,1
4.0,-253.0,-3.0,-235.0,65.0,67.0,1
2.0,-250.0,-1.0,-240.0,62.0,70.0,1
0.0,-249.0,-5.0,-244.0,60.0,68.0,1
-2.0,-251.0,-2.0,-249.0,62.0,67.0,1
2.0,-250.0,-3.0,-255.0,65.0,65.0,1
-1.0,-248.0,-5.0,-260.0,69.0,67.0,1
2.0,-249.0,-9.0,-266.0,71.0,65.0,1
1.0,-246.0,-9.0,-273.0,71.0,63.0,1
3.0,-246.0,-7.0,-280.0,72.0,58.0,1
6.0,-250.0,-6.0,-289.0,74.0,50.0,1
5.0,-252.0,-7.0,-298.0,76.0,43.0,1
3.0,-248.0,-9.0,-303.0,80.0,39.0,1
5.0,-249.0,-11.0,-310.0,84.0,34.0,1
0.0,-249.0,-10.0,-316.0,87.0,32.0,1
4.0,-247.0,-12.0,-324.0,91.0,27.0,1
4.0,-251.0,-17.0,-330.0,94.0,24.0,1
4.0,-251.0,-18.0,-337.0,99.0,15.0,1
2.0,-249.0,-16.0,-344.0,105.0,11.0,1
0.0,-250.0,-19.0,-354.0,108.0,9.0,1
0.0,-253.0,-20.0,-366.0,118.0,7.0,1
0.0,-250.0,-21.0,-373.0,121.0,4.0,1
-2.0,-251.0,-27.0,-381.0,122.0,2.0,1
-4.0,-251.0,-23.0,-390.0,125.0,0.0,1
-2.0,-253.0,-23.0,-393.0,127.0,-4.0,1
3.0,-255.0,-16.0,-398.0,131.0,-8.0,1
1.0,-255.0,-22.0,-401.0,134.0,-11.0,1
2.0,-255.0,-25.0,-405.0,139.0,-17.0,1
3.0,-255.0,-22.0,-406.0,143.0,-23.0,1
4.0,-256.0,-21.0,-409.0,148.0,-32.0,1
1.0,-256.0,-16.0,-411.0,152.0,-39.0,1
2.0,-259.0,-20.0,-406.0,159.0,-43.0,1
5.0,-256.0,-15.0,-403.0,162.0,-48.0,1
6.0,-260.0,-14.0,-396.0,169.0,-55.0,1
8.0,-259.0,-14.0,-385.0,180.0,-59.0,1
9.0,-260.0,-18.0,-376.0,191.0,-62.0,1
8.0,-261.0,-13.0,-369.0,204.0,-63.0,1
10.0,-259.0,-21.0,-364.0,218.0,-65.0,1
13.0,-260.0,-14.0,-361.0,231.0,-65.0,1
14.0,-260.0,-19.0,-357.0,247.0,-66.0,1
9.0,-259.0,-19.0,-357.0,256.0,-65.0,1
9.0,-258.0,-22.0,-359.0,262.0,-63.0,1
7.0,-259.0,-22.0,-361.0,268.0,-64.0,1
7.0,-258.0,-28.0,-365.0,271.0,-63.0,1
7.0,-259.0,-29.0,-369.0,272.0,-62.0,1
6.0,-255.0,-29.0,-373.0,272.0,-60.0,1
4.0,-256.0,-30.0,-374.0,272.0,-59.0,1
4.0,-255.0,-32.0,-370.0,270.0,-56.0,1
1.0,-256.0,-33.0,-369.0,267.0,-51.0,1
-1.0,-252.0,-33.0,-367.0,263.0,-46.0,1
-1.0,-254.0,-35.0,-366.0,257.0,-42.0,1
1.0,-258.0,-37.0,-361.0,250.0,-37.0,1
-5.0,-249.0,-34.0,-358.0,244.0,-33.0,1
-3.0,-254.0,-35.0,-354.0,236.0,-28.0,1
-3.0,-254.0,-34.0,-350.0,229.0,-22.0,1
-3.0,-253.0,-34.0,-344.0,221.0,-17.0,1
-4.0,-253.0,-37.0,-342.0,215.0,-11.0,1
-5.0,-255.0,-36.0,-342.0,208.0,-6.0,1
-2.0,-259.0,-38.0,-342.0,203.0,-2.0,1
-4.0,-256.0,-38.0,-343.0,195.0,2.0,1
-3.0,-258.0,-40.0,-344.0,189.0,4.0,1
-3.0,-258.0,-38.0,-343.0,184.0,9.0,1
-7.0,-257.0,-42.0,-344.0,179.0,11.0,1
-7.0,-258.0,-43.0,-346.0,175.0,14.0,1
-9.0,-257.0,-39.0,-348.0,168.0,14.0,1
-8.0,-255.0,-42.0,-349.0,159.0,14.0,1
-10.0,-258.0,-42.0,-351.0,150.0,12.0,1
-11.0,-256.0,-42.0,-351.0,140.0,11.0,1
-11.0,-260.0,-45.0,-352.0,123.0,10.0,1
-10.0,-258.0,-48.0,-352.0,111.0,10.0,1
-14.0,-255.0,-43.0,-350.0,96.0,6.0,1
-14.0,-255.0,-45.0,-347.0,81.0,6.0,1
-15.0,-253.0,-44.0,-345.0,68.0,0.0,1
-12.0,-257.0,-44.0,-343.0,55.0,-1.0,1
-15.0,-252.0,-48.0,-342.0,46.0,-8.0,1
-18.0,-250.0,-46.0,-342.0,39.0,-11.0,1
-12.0,-248.0,-42.0,-342.0,36.0,-11.0,1
-12.0,-246.0,-44.0,-348.0,39.0,-13.0,1
-13.0,-242.0,-38.0,-355.0,45.0,-16.0,1
-11.0,-241.0,-44.0,-368.0,57.0,-11.0,1
-6.0,-242.0,-45.0,-378.0,71.0,-9.0,1
-5.0,-238.0,-47.0,-392.0,86.0,-3.0,1
-5.0,-237.0,-47.0,-405.0,102.0,-4.0,1
-1.0,-236.0,-48.0,-416.0,117.0,3.0,1
2.0,-236.0,-47.0,-427.0,132.0,7.0,1
2.0,-235.0,-47.0,-437.0,148.0,13.0,1
14.0,-237.0,-37.0,-442.0,161.0,16.0,1
7.0,-239.0,-48.0,-444.0,173.0,23.0,1
11.0,-242.0,-53.0,-442.0,187.0,22.0,1
8.0,-240.0,-52.0,-441.0,197.0,25.0,1
11.0,-246.0,-50.0,-435.0,205.0,24.0,1
15.0,-244.0,-50.0,-436.0,212.0,25.0,1
13.0,-242.0,-54.0,-440.0,218.0,24.0,1
16.0,-247.0,-55.0,-444.0,220.0,25.0,1
15.0,-245.0,-60.0,-452.0,221.0,22.0,1
12.0,-246.0,-59.0,-465.0,219.0,21.0,1
13.0,-247.0,-63.0,-477.0,220.0,15.0,1
12.0,-248.0,-66.0,-493.0,220.0,13.0,1
8.0,-245.0,-67.0,-518.0,219.0,6.0,1
11.0,-245.0,-68.0,-539.0,217.0,2.0,1
6.0,-244.0,-65.0,-556.0,213.0,-4.0,1
8.0,-245.0,-68.0,-571.0,209.0,-5.0,1
6.0,-245.0,-71.0,-582.0,204.0,-13.0,1
6.0,-243.0,-67.0,-591.0,204.0,-13.0,1
4.0,-247.0,-74.0,-600.0,202.0,-16.0,1
5.0,-246.0,-70.0,-606.0,201.0,-16.0,1
4.0,-243.0,-69.0,-609.0,202.0,-20.0,1
3.0,-243.0,-69.0,-612.0,204.0,-21.0,1
3.0,-244.0,-74.0,-611.0,204.0,-24.0,1
0.0,-240.0,-72.0,-609.0,206.0,-21.0,1
4.0,-246.0,-72.0,-609.0,209.0,-24.0,1
4.0,-241.0,-70.0,-609.0,211.0,-20.0,1
0.0,-243.0,-72.0,-611.0,218.0,-22.0,1
1.0,-241.0,-70.0,-618.0,223.0,-19.0,1
2.0,-240.0,-74.0,-629.0,227.0,-24.0,1
0.0,-238.0,-77.0,-642.0,233.0,-23.0,1
-1.0,-239.0,-78.0,-654.0,238.0,-25.0,1
-2.0,-235.0,-77.0,-667.0,243.0,-24.0,1
-3.0,-235.0,-76.0,-681.0,245.0,-26.0,1
-3.0,-238.0,-81.0,-693.0,246.0,-25.0,1
-3.0,-237.0,-76.0,-702.0,244.0,-27.0,1
-5.0,-235.0,-83.0,-713.0,242.0,-22.0,1
-7.0,-238.0,-82.0,-723.0,236.0,-23.0,1
-11.0,-238.0,-85.0,-732.0,229.0,-16.0,1
-11.0,-237.0,-82.0,-741.0,222.0,-12.0,1
-11.0,-237.0,-85.0,-745.0,213.0,0.0,1
-12.0,-240.0,-83.0,-747.0,205.0,11.0,1
-12.0,-240.0,-87.0,-752.0,189.0,23.0,1
-14.0,-240.0,-86.0,-753.0,177.0,34.0,1
-12.0,-241.0,-89.0,-758.0,160.0,47.0,1
-12.0,-241.0,-87.0,-763.0,147.0,56.0,1
-12.0,-242.0,-88.0,-766.0,132.0,68.0,1
-12.0,-239.0,-90.0,-775.0,120.0,71.0,1
-11.0,-239.0,-91.0,-782.0,107.0,78.0,1
-12.0,-241.0,-94.0,-791.0,98.0,79.0,1
-10.0,-236.0,-93.0,-802.0,88.0,83.0,1
-7.0,-235.0,-96.0,-814.0,84.0,84.0,1
-9.0,-232.0,-95.0,-831.0,80.0,86.0,1
-6.0,-232.0,-99.0,-845.0,81.0,86.0,1
-4.0,-226.0,-98.0,-864.0,84.0,86.0,1
1.0,-223.0,-103.0,-886.0,88.0,81.0,1
0.0,-219.0,-105.0,-911.0,95.0,78.0,1
2.0,-215.0,-110.0,-935.0,103.0,73.0,1
7.0,-213.0,-111.0,-961.0,110.0,71.0,1
6.0,-210.0,-112.0,-991.0,118.0,62.0,1
10.0,-209.0,-118.0,-1018.0,126.0,62.0,1
9.0,-203.0,-117.0,-1043.0,136.0,58.0,1
6.0,-199.0,-119.0,-1073.0,141.0,60.0,1
10.0,-201.0,-120.0,-1094.0,150.0,60.0,1
8.0,-198.0,-121.0,-1112.0,157.0,66.0,1
7.0,-199.0,-121.0,-1124.0,164.0,73.0,1
8.0,-198.0,-122.0,-1131.0,170.0,87.0,1
9.0,-197.0,-123.0,-1133.0,176.0,97.0,1
9.0,-200.0,-123.0,-1132.0,181.0,112.0,1
10.0,-203.0,-122.0,-1126.0,187.0,127.0,1
11.0,-203.0,-125.0,-1118.0,191.0,148.0,1
10.0,-208.0,-126.0,-1105.0,194.0,164.0,1
13.0,-213.0,-124.0,-1090.0,195.0,180.0,1
16.0,-215.0,-121.0,-1075.0,195.0,190.0,1
15.0,-216.0,-123.0,-1064.0,196.0,204.0,1
15.0,-219.0,-119.0,-1052.0,194.0,211.0,1
14.0,-219.0,-124.0,-1045.0,193.0,219.0,1
20.0,-226.0,-124.0,-1037.0,193.0,223.0,1
19.0,-227.0,-124.0,-1026.0,197.0,227.0,1
22.0,-229.0,-126.0,-1018.0,200.0,225.0,1
23.0,-229.0,-129.0,-1011.0,211.0,223.0,1
22.0,-228.0,-125.0,-1002.0,223.0,221.0,1
21.0,-230.0,-128.0,-998.0,237.0,216.0,1
24.0,-229.0,-129.0,-989.0,252.0,207.0,1
25.0,-231.0,-132.0,-979.0,265.0,198.0,1
23.0,-232.0,-132.0,-967.0,280.0,187.0,1
24.0,-232.0,-134.0,-949.0,295.0,179.0,1
22.0,-232.0,-134.0,-932.0,310.0,167.0,1
25.0,-230.0,-133.0,-914.0,323.0,161.0,1
22.0,-232.0,-136.0,-898.0,337.0,153.0,1
19.0,-231.0,-139.0,-880.0,344.0,151.0,1
18.0,-233.0,-141.0,-867.0,351.0,150.0,1
14.0,-231.0,-143.0,-854.0,357.0,151.0,1
12.0,-231.0,-145.0,-843.0,361.0,155.0,1
10.0,-231.0,-145.0,-837.0,365.0,162.0,1
11.0,-230.0,-150.0,-831.0,366.0,169.0,1
10.0,-230.0,-147.0,-829.0,366.0,177.0,1
8.0,-223.0,-150.0,-827.0,368.0,183.0,1
8.0,-222.0,-151.0,-824.0,372.0,190.0,1
6.0,-216.0,-152.0,-821.0,378.0,198.0,1
11.0,-211.0,-153.0,-819.0,385.0,203.0,1
9.0,-204.0,-156.0,-823.0,395.0,204.0,1
11.0,-201.0,-159.0,-829.0,409.0,204.0,1
14.0,-197.0,-157.0,-830.0,422.0,199.0,1
10.0,-194.0,-160.0,-835.0,436.0,194.0,1
14.0,-188.0,-155.0,-839.0,455.0,184.0,1
12.0,-185.0,-154.0,-846.0,476.0,173.0,1
17.0,-182.0,-157.0,-853.0,497.0,163.0,1
14.0,-182.0,-155.0,-860.0,520.0,146.0,1
12.0,-183.0,-154.0,-871.0,547.0,125.0,1
14.0,-181.0,-157.0,-882.0,565.0,104.0,1
14.0,-178.0,-157.0,-902.0,583.0,87.0,1
13.0,-182.0,-159.0,-931.0,601.0,68.0,1
15.0,-185.0,-160.0,-966.0,621.0,52.0,1
9.0,-180.0,-162.0,-997.0,637.0,26.0,1
10.0,-175.0,-159.0,-1028.0,639.0,-4.0,1
5.0,-171.0,-166.0,-1066.0,637.0,-32.0,1
2.0,-169.0,-165.0,-1106.0,622.0,-53.0,1
4.0,-169.0,-167.0,-1141.0,603.0,-67.0,1
-1.0,-163.0,-163.0,-1172.0,589.0,-82.0,1
-4.0,-158.0,-160.0,-1206.0,578.0,-94.0,1
-8.0,-151.0,-161.0,-1234.0,563.0,-100.0,1
-9.0,-146.0,-160.0,-1262.0,537.0,-105.0,1
-6.0,-141.0,-158.0,-1295.0,503.0,-105.0,1
-7.0,-135.0,-154.0,-1323.0,473.0,-111.0,1
-12.0,-132.0,-153.0,-1343.0,450.0,-118.0,1
-12.0,-128.0,-151.0,-1371.0,428.0,-114.0,1
-14.0,-123.0,-157.0,-1400.0,400.0,-108.0,1
-12.0,-121.0,-151.0,-1430.0,369.0,-100.0,1
-12.0,-122.0,-151.0,-1473.0,332.0,-88.0,1
-9.0,-120.0,-152.0,-1498.0,305.0,-82.0,1
-12.0,-115.0,-149.0,-1520.0,281.0,-77.0,1
-9.0,-117.0,-151.0,-1549.0,259.0,-67.0,1
-9.0,-121.0,-152.0,-1581.0,235.0,-55.0,1
-8.0,-119.0,-154.0,-1619.0,217.0,-46.0,1
-8.0,-118.0,-157.0,-1667.0,195.0,-32.0,1
-4.0,-123.0,-159.0,-1721.0,176.0,-22.0,1
-5.0,-123.0,-162.0,-1774.0,159.0,-12.0,1
-8.0,-122.0,-171.0,-1830.0,145.0,3.0,1
-3.0,-129.0,-176.0,-1920.0,132.0,16.0,1
-5.0,-126.0,-179.0,-2002.0,120.0,20.0,1
-1.0,-131.0,-183.0,-2074.0,110.0,24.0,1
-2.0,-136.0,-190.0,-2123.0,92.0,21.0,1
-1.0,-141.0,-191.0,-2148.0,75.0,13.0,1
-2.0,-153.0,-198.0,-2154.0,62.0,1.0,1
0.0,-155.0,-200.0,-2143.0,52.0,-5.0,1
0.0,-159.0,-208.0,-2126.0,38.0,-7.0,1
2.0,-159.0,-214.0,-2115.0,20.0,-4.0,1
3.0,-163.0,-215.0,-2116.0,-11.0,4.0,1
2.0,-174.0,-220.0,-2114.0,-37.0,5.0,1
6.0,-189.0,-225.0,-2062.0,-49.0,1.0,1
2.0,-199.0,-240.0,-1960.0,-48.0,-3.0,1
4.0,-209.0,-245.0,-1837.0,-40.0,-15.0,1
10.0,-218.0,-233.0,-1699.0,-33.0,-24.0,1
10.0,-218.0,-252.0,-1554.0,-25.0,-29.0,1
2.0,-214.0,-253.0,-1423.0,-24.0,-19.0,1
-2.0,-249.0,-244.0,-1289.0,-45.0,-12.0,1
3.0,-253.0,-256.0,-1092.0,-47.0,-29.0,1
3.0,-251.0,-262.0,-845.0,-74.0,-38.0,1
5.0,-247.0,-264.0,-690.0,-124.0,-32.0,1
-1.0,-240.0,-265.0,-577.0,-185.0,-39.0,1
-2.0,-229.0,-266.0,-493.0,-257.0,-48.0,1
-7.0,-223.0,-265.0,-423.0,-329.0,-66.0,1
-6.0,-220.0,-264.0,-354.0,-401.0,-78.0,1
-10.0,-213.0,-266.0,-289.0,-472.0,-88.0,1
-11.0,-208.0,-258.0,-224.0,-540.0,-96.0,1
-12.0,-204.0,-258.0,-151.0,-608.0,-102.0,1
-14.0,-198.0,-257.0,-74.0,-685.0,-93.0,1
-18.0,-192.0,-253.0,16.0,-744.0,-84.0,1
-19.0,-184.0,-251.0,82.0,-793.0,-66.0,1
-20.0,-184.0,-248.0,150.0,-838.0,-48.0,1
-24.0,-176.0,-245.0,218.0,-880.0,-21.0,1
-22.0,-173.0,-240.0,275.0,-917.0,-2.0,1
-28.0,-168.0,-238.0,327.0,-951.0,22.0,1
-30.0,-166.0,-237.0,369.0,-985.0,37.0,1
-31.0,-164.0,-238.0,401.0,-1015.0,51.0,1
-33.0,-162.0,-239.0,426.0,-1043.0,57.0,1
-37.0,-157.0,-235.0,442.0,-1076.0,65.0,1
-38.0,-154.0,-240.0,453.0,-1105.0,68.0,1
-40.0,-148.0,-236.0,457.0,-1131.0,75.0,1
-39.0,-146.0,-236.0,455.0,-1158.0,79.0,1
-39.0,-148.0,-235.0,449.0,-1184.0,86.0,1
-42.0,-138.0,-237.0,444.0,-1214.0,86.0,1
-42.0,-136.0,-230.0,435.0,-1242.0,90.0,1
-38.0,-134.0,-229.0,427.0,-1267.0,88.0,1
-41.0,-134.0,-229.0,413.0,-1288.0,90.0,1
-36.0,-132.0,-229.0,401.0,-1304.0,86.0,1
-36.0,-132.0,-222.0,382.0,-1314.0,81.0,1
-40.0,-131.0,-219.0,370.0,-1317.0,72.0,1
-39.0,-131.0,-219.0,363.0,-1318.0,64.0,1
-41.0,-129.0,-215.0,351.0,-1312.0,47.0,1
-41.0,-128.0,-213.0,332.0,-1302.0,35.0,1
-43.0,-129.0,-215.0,308.0,-1285.0,20.0,1
-41.0,-128.0,-213.0,277.0,-1261.0,5.0,1
-45.0,-126.0,-209.0,238.0,-1231.0,-10.0,1
-42.0,-121.0,-211.0,196.0,-1203.0,-22.0,1
-46.0,-116.0,-212.0,147.0,-1168.0,-32.0,1
-46.0,-115.0,-213.0,86.0,-1129.0,-39.0,1
-43.0,-116.0,-207.0,27.0,-1105.0,-60.0,1
-49.0,-112.0,-216.0,-30.0,-1092.0,-78.0,1
-46.0,-111.0,-213.0,-77.0,-1086.0,-101.0,1
-43.0,-114.0,-213.0,-113.0,-1073.0,-109.0,1
-45.0,-115.0,-214.0,-134.0,-1065.0,-120.0,1
-43.0,-115.0,-221.0,-150.0,-1058.0,-122.0,1
-44.0,-113.0,-215.0,-169.0,-1043.0,-128.0,1
-40.0,-115.0,-214.0,-178.0,-1036.0,-129.0,1
-45.0,-110.0,-213.0,-172.0,-1030.0,-126.0,1
-45.0,-115.0,-211.0,-164.0,-1022.0,-116.0,1
-46.0,-115.0,-210.0,-158.0,-1013.0,-107.0,1
-50.0,-119.0,-205.0,-154.0,-1008.0,-91.0,1
-55.0,-120.0,-213.0,-149.0,-1002.0,-80.0,1
-58.0,-127.0,-212.0,-146.0,-1001.0,-59.0,1
-60.0,-129.0,-216.0,-142.0,-1007.0,-41.0,1
-64.0,-130.0,-215.0,-143.0,-1016.0,-17.0,1
-67.0,-131.0,-215.0,-143.0,-1031.0,4.0,1
-68.0,-132.0,-219.0,-146.0,-1050.0,34.0,1
-74.0,-132.0,-217.0,-157.0,-1074.0,59.0,1
-74.0,-135.0,-216.0,-174.0,-1095.0,85.0,1
-77.0,-139.0,-216.0,-193.0,-1118.0,104.0,1
-79.0,-146.0,-212.0,-203.0,-1139.0,122.0,1
-81.0,-147.0,-218.0,-214.0,-1153.0,136.0,1
-87.0,-148.0,-212.0,-230.0,-1157.0,151.0,1
-88.0,-150.0,-207.0,-250.0,-1158.0,156.0,1
-87.0,-152.0,-205.0,-271.0,-1153.0,161.0,1
-86.0,-152.0,-202.0,-284.0,-1148.0,159.0,1
-87.0,-155.0,-205.0,-293.0,-1138.0,160.0,1
-85.0,-154.0,-202.0,-295.0,-1127.0,156.0,1
-88.0,-153.0,-195.0,-295.0,-1116.0,153.0,1
-82.0,-157.0,-198.0,-300.0,-1103.0,146.0,1
-84.0,-156.0,-195.0,-312.0,-1089.0,138.0,1
-86.0,-156.0,-191.0,-325.0,-1078.0,122.0,1
-81.0,-153.0,-189.0,-345.0,-1071.0,109.0,1
-78.0,-150.0,-185.0,-375.0,-1077.0,101.0,1
-73.0,-149.0,-184.0,-397.0,-1091.0,97.0,1
-71.0,-149.0,-185.0,-414.0,-1110.0,86.0,1
-73.0,-147.0,-185.0,-443.0,-1137.0,74.0,1
-74.0,-150.0,-185.0,-491.0,-1166.0,61.0,1
-71.0,-139.0,-187.0,-524.0,-1202.0,49.0,1
-66.0,-140.0,-190.0,-565.0,-1228.0,39.0,1
-65.0,-145.0,-189.0,-610.0,-1252.0,35.0,1
-66.0,-145.0,-185.0,-649.0,-1272.0,35.0,1
-65.0,-150.0,-184.0,-668.0,-1288.0,39.0,1
-63.0,-149.0,-182.0,-667.0,-1300.0,42.0,1
-59.0,-154.0,-184.0,-652.0,-1298.0,46.0,1
-55.0,-158.0,-183.0,-621.0,-1285.0,46.0,1
-51.0,-162.0,-179.0,-556.0,-1256.0,45.0,1
-45.0,-166.0,-176.0,-467.0,-1227.0,44.0,1
-45.0,-165.0,-182.0,-357.0,-1192.0,47.0,1
-41.0,-166.0,-171.0,-248.0,-1152.0,53.0,1
-40.0,-160.0,-176.0,-119.0,-1114.0,57.0,1
-28.0,-152.0,-176.0,6.0,-1077.0,65.0,1
-28.0,-144.0,-173.0,115.0,-1041.0,71.0,1
-29.0,-138.0,-172.0,208.0,-1010.0,75.0,1
-21.0,-133.0,-170.0,296.0,-992.0,84.0,1
-13.0,-124.0,-162.0,374.0,-974.0,94.0,1
-14.0,-112.0,-154.0,443.0,-963.0,95.0,1
-21.0,-95.0,-147.0,472.0,-959.0,84.0,1
-18.0,-80.0,-144.0,466.0,-970.0,81.0,1
-21.0,-66.0,-131.0,413.0,-986.0,69.0,1
-34.0,-56.0,-122.0,312.0,-1007.0,33.0,1
-35.0,-50.0,-118.0,165.0,-1032.0,-8.0,1
-48.0,-42.0,-100.0,-12.0,-1053.0,-49.0,1
-57.0,-36.0,-94.0,-212.0,-1070.0,-84.0,1
-64.0,-41.0,-82.0,-432.0,-1081.0,-122.0,1
-78.0,-38.0,-72.0,-643.0,-1085.0,-177.0,1
-104.0,-35.0,-61.0,-901.0,-1099.0,-188.0,1
-115.0,-46.0,-50.0,-1121.0,-1145.0,-145.0,1
-109.0,-62.0,-34.0,-1305.0,-1203.0,-103.0,1
-117.0,-75.0,-27.0,-1429.0,-1248.0,-80.0,1
-120.0,-92.0,-25.0,-1484.0,-1267.0,-56.0,1
-125.0,-102.0,-19.0,-1485.0,-1260.0,-27.0,1
-123.0,-116.0,-13.0,-1429.0,-1245.0,11.0,1
-121.0,-126.0,-13.0,-1347.0,-1221.0,52.0,1
-121.0,-132.0,-16.0,-1249.0,-1195.0,98.0,1
-111.0,-139.0,-18.0,-1119.0,-1171.0,141.0,1
-108.0,-142.0,-22.0,-1015.0,-1158.0,174.0,1
-101.0,-145.0,-22.0,-908.0,-1154.0,206.0,1
-93.0,-150.0,-28.0,-784.0,-1164.0,240.0,1
-80.0,-150.0,-29.0,-671.0,-1181.0,275.0,1
-70.0,-148.0,-32.0,-564.0,-1201.0,305.0,1
-62.0,-148.0,-29.0,-468.0,-1230.0,332.0,1
-51.0,-139.0,-33.0,-379.0,-1261.0,355.0,1
-39.0,-137.0,-34.0,-315.0,-1288.0,380.0,1
-28.0,-141.0,-31.0,-265.0,-1306.0,398.0,1
-17.0,-143.0,-29.0,-203.0,-1301.0,400.0,1
-6.0,-144.0,-42.0,-150.0,-1265.0,385.0,1
6.0,-143.0,-49.0,-111.0,-1195.0,370.0,1
13.0,-144.0,-48.0,-91.0,-1103.0,348.0,1
22.0,-141.0,-43.0,-59.0,-1007.0,326.0,1
26.0,-136.0,-25.0,-17.0,-921.0,297.0,1
27.0,-134.0,-4.0,20.0,-873.0,262.0,1
27.0,-130.0,14.0,73.0,-875.0,214.0,1
18.0,-124.0,20.0,126.0,-913.0,157.0,1
10.0,-117.0,21.0,153.0,-995.0,80.0,1
4.0,-98.0,13.0,115.0,-1091.0,5.0,1
0.0,-75.0,8.0,30.0,-1201.0,-40.0,1
-9.0,-56.0,-2.0,-85.0,-1311.0,-59.0,1
-9.0,-41.0,-14.0,-222.0,-1442.0,-79.0,1
-11.0,-34.0,-34.0,-366.0,-1582.0,-101.0,1
-91.0,7.0,-54.0,-514.0,-1713.0,-118.0,1
10.0,-40.0,-71.0,-635.0,-1899.0,-66.0,1
-51.0,-33.0,-88.0,-684.0,-2043.0,-163.0,1
-61.0,-28.0,-83.0,-675.0,-2257.0,-249.0,1
-267.0,139.0,-158.0,-745.0,-2507.0,-223.0,1
-1129.0,689.0,-643.0,-1201.0,-2760.0,128.0,1
-2380.0,1233.0,-866.0,-3148.0,-1365.0,2322.0,1
-1963.0,543.0,-784.0,-4371.0,990.0,5430.0,1
-1657.0,778.0,-776.0,-4023.0,3819.0,5235.0,1
-501.0,491.0,-443.0,-3839.0,6328.0,4676.0,1
750.0,124.0,-113.0,-2872.0,7754.0,4071.0,1
522.0,26.0,-329.0,-1744.0,6540.0,3435.0,1
-142.0,89.0,-809.0,-652.0,3959.0,2365.0,1
-531.0,-99.0,-903.0,-386.0,898.0,858.0,1
-659.0,-265.0,-797.0,-863.0,-616.0,256.0,1
-696.0,-53.0,-723.0,-1384.0,-1337.0,458.0,1
-857.0,122.0,-749.0,-2080.0,-1611.0,1103.0,1
-877.0,209.0,-727.0,-2520.0,-1714.0,1591.0,1
-805.0,253.0,-697.0,-2722.0,-1948.0,1960.0,1
-745.0,289.0,-671.0,-2720.0,-2332.0,2201.0,1
-657.0,288.0,-592.0,-2683.0,-2696.0,2322.0,1
-557.0,281.0,-482.0,-2658.0,-2979.0,2353.0,1
-420.0,191.0,-382.0,-2580.0,-3154.0,2209.0,1
-371.0,169.0,-310.0,-2368.0,-3229.0,1655.0,1
-336.0,75.0,-195.0,-2167.0,-3107.0,1090.0,1
-312.0,-9.0,-83.0,-1816.0,-2914.0,617.0,1
-351.0,-65.0,-17.0,-1342.0,-2794.0,298.0,1
-388.0,-122.0,23.0,-824.0,-2763.0,224.0,1
-425.0,-149.0,34.0,-354.0,-2832.0,363.0,1
-400.0,-152.0,30.0,-41.0,-2965.0,602.0,1
-400.0,-127.0,7.0,41.0,-3071.0,785.0,1
-394.0,-85.0,-4.0,-74.0,-3153.0,877.0,1
-339.0,-63.0,-25.0,-268.0,-3182.0,844.0,1
-281.0,-34.0,-69.0,-521.0,-3040.0,638.0,1
-230.0,-30.0,-82.0,-778.0,-2698.0,271.0,1
-224.0,2.0,-99.0,-924.0,-2169.0,-49.0,1
-168.0,-2.0,-83.0,-1067.0,-1528.0,-297.0,1
-190.0,14.0,-69.0,-1099.0,-714.0,-594.0,1
-211.0,24.0,-47.0,-1106.0,-37.0,-775.0,1
-204.0,42.0,-37.0,-1137.0,435.0,-845.0,1
-191.0,51.0,-30.0,-1205.0,747.0,-864.0,1
-198.0,58.0,-19.0,-1315.0,895.0,-856.0,1
-207.0,54.0,46.0,-1416.0,803.0,-802.0,1
-130.0,54.0,22.0,-1371.0,585.0,-730.0,1
-126.0,84.0,16.0,-1244.0,452.0,-782.0,1
-118.0,119.0,1.0,-969.0,338.0,-779.0,1
-87.0,164.0,-5.0,-616.0,240.0,-689.0,1
-64.0,190.0,-16.0,-247.0,124.0,-515.0,1
-60.0,207.0,-47.0,137.0,-17.0,-259.0,1
-2.0,223.0,-113.0,453.0,-132.0,23.0,1
-10.0,207.0,-115.0,541.0,-168.0,184.0,1
-32.0,182.0,-116.0,457.0,-194.0,269.0,1
-22.0,189.0,-126.0,234.0,-231.0,239.0,1
-27.0,181.0,-103.0,-3.0,-152.0,193.0,1
-52.0,170.0,-67.0,-174.0,-48.0,97.0,1
-76.0,157.0,-40.0,-214.0,44.0,1.0,1
-101.0,145.0,-24.0,-136.0,126.0,-92.0,1
-121.0,134.0,-23.0,-2.0,192.0,-143.0,1
-136.0,124.0,-25.0,165.0,219.0,-157.0,1
-145.0,111.0,-39.0,320.0,190.0,-136.0,1
-163.0,106.0,-49.0,426.0,114.0,-119.0,1
-192.0,110.0,-69.0,472.0,34.0,-82.0,1
-232.0,125.0,-76.0,459.0,13.0,-24.0,1
-267.0,132.0,-89.0,404.0,4.0,20.0,1
-275.0,130.0,-93.0,335.0,3.0,13.0,1
-288.0,124.0,-90.0,256.0,32.0,-1.0,1
-286.0,113.0,-90.0,175.0,59.0,-29.0,1
-294.0,101.0,-93.0,86.0,99.0,-61.0,1
-291.0,81.0,-97.0,7.0,160.0,-100.0,1
-297.0,78.0,-102.0,-27.0,258.0,-136.0,1
-299.0,72.0,-104.0,-55.0,376.0,-158.0,1
-293.0,76.0,-113.0,-93.0,496.0,-149.0,1
-271.0,73.0,-108.0,-147.0,570.0,-133.0,1
-260.0,72.0,-101.0,-147.0,616.0,-127.0,1
-248.0,76.0,-102.0,-76.0,658.0,-125.0,1
-252.0,85.0,-95.0,-48.0,670.0,-132.0,1
-253.0,87.0,-88.0,-24.0,640.0,-140.0,1
-245.0,98.0,-102.0,52.0,616.0,-133.0,1
-234.0,99.0,-100.0,141.0,607.0,-124.0,1
-223.0,91.0,-97.0,224.0,607.0,-119.0,1
-223.0,88.0,-99.0,309.0,624.0,-151.0,1
-217.0,77.0,-98.0,419.0,659.0,-183.0,1
-214.0,70.0,-99.0,526.0,696.0,-229.0,1
-214.0,69.0,-106.0,635.0,735.0,-287.0,1
-207.0,65.0,-106.0,716.0,778.0,-350.0,1
-209.0,68.0,-109.0,765.0,816.0,-416.0,1
-209.0,65.0,-109.0,791.0,849.0,-470.0,1
-211.0,61.0,-108.0,805.0,880.0,-512.0,1
-209.0,56.0,-117.0,819.0,911.0,-566.0,1
-208.0,47.0,-113.0,818.0,955.0,-636.0,1
-209.0,38.0,-119.0,841.0,1002.0,-706.0,1
-215.0,35.0,-122.0,855.0,1065.0,-758.0,1
-215.0,25.0,-130.0,850.0,1124.0,-817.0,1
-219.0,22.0,-122.0,842.0,1170.0,-902.0,1
-213.0,8.0,-115.0,861.0,1213.0,-1020.0,1
-233.0,3.0,-117.0,922.0,1245.0,-1150.0,1
-251.0,-3.0,-127.0,1034.0,1279.0,-1228.0,1
-286.0,-8.0,-161.0,1131.0,1324.0,-1245.0,1
-306.0,-26.0,-194.0,1095.0,1429.0,-1229.0,1
-289.0,-42.0,-193.0,936.0,1574.0,-1170.0,1
-263.0,-39.0,-191.0,724.0,1707.0,-1058.0,1
-259.0,-37.0,-187.0,472.0,1792.0,-947.0,1
-249.0,-29.0,-178.0,324.0,1835.0,-833.0,1
-230.0,-24.0,-182.0,204.0,1827.0,-759.0,1
-218.0,-19.0,-179.0,96.0,1804.0,-717.0,1
-214.0,-23.0,-173.0,25.0,1782.0,-673.0,1
-208.0,-27.0,-169.0,-3.0,1738.0,-623.0,1
-208.0,-27.0,-163.0,-2.0,1679.0,-575.0,1
-208.0,-28.0,-173.0,-2.0,1607.0,-551.0,1
-194.0,-27.0,-183.0,4.0,1539.0,-537.0,1
-195.0,-29.0,-185.0,27.0,1495.0,-524.0,1
-194.0,-29.0,-191.0,40.0,1468.0,-516.0,1
-191.0,-21.0,-192.0,29.0,1442.0,-508.0,1
-194.0,-13.0,-204.0,-7.0,1431.0,-490.0,1
-193.0,-15.0,-205.0,-55.0,1419.0,-482.0,1
-190.0,-18.0,-190.0,-87.0,1400.0,-478.0,1
-195.0,-22.0,-204.0,-91.0,1361.0,-466.0,1
-200.0,-27.0,-200.0,-81.0,1303.0,-461.0,1
-198.0,-29.0,-201.0,-70.0,1244.0,-466.0,1
-193.0,-30.0,-196.0,-64.0,1190.0,-461.0,1
-193.0,-33.0,-197.0,-54.0,1130.0,-441.0,1
-195.0,-32.0,-200.0,-50.0,1069.0,-425.0,1
-191.0,-33.0,-209.0,-54.0,1008.0,-417.0,1
-175.0,-23.0,-222.0,-71.0,965.0,-403.0,1
-166.0,-16.0,-224.0,-137.0,953.0,-378.0,1
-173.0,-32.0,-196.0,-227.0,949.0,-363.0,1
-193.0,-42.0,-194.0,-222.0,858.0,-360.0,1
-198.0,-48.0,-194.0,-145.0,733.0,-358.0,1
-202.0,-50.0,-198.0,-63.0,621.0,-339.0,1
-205.0,-52.0,-201.0,2.0,521.0,-299.0,1
-193.0,-44.0,-216.0,73.0,413.0,-240.0,1
-188.0,-35.0,-216.0,99.0,347.0,-182.0,1
-187.0,-29.0,-211.0,97.0,291.0,-139.0,1
-192.0,-24.0,-212.0,86.0,245.0,-114.0,1
-192.0,-22.0,-211.0,71.0,208.0,-94.0,1
-187.0,-20.0,-211.0,57.0,174.0,-75.0,1
-181.0,-23.0,-202.0,40.0,149.0,-65.0,1
-182.0,-22.0,-209.0,36.0,131.0,-62.0,1
-181.0,-30.0,-203.0,31.0,123.0,-56.0,1
-184.0,-32.0,-209.0,24.0,121.0,-50.0,1
-182.0,-26.0,-199.0,16.0,120.0,-37.0,1
-183.0,-25.0,-204.0,8.0,109.0,-26.0,1
-181.0,-24.0,-201.0,-4.0,96.0,-13.0,1
-181.0,-28.0,-206.0,-13.0,83.0,-5.0,1
-180.0,-28.0,-203.0,-27.0,66.0,6.0,1
-179.0,-25.0,-203.0,-39.0,43.0,13.0,1
-177.0,-28.0,-201.0,-52.0,19.0,23.0,1
-176.0,-27.0,-204.0,-68.0,-9.0,29.0,1
-178.0,-24.0,-202.0,-83.0,-36.0,38.0,1
-177.0,-21.0,-197.0,-100.0,-71.0,49.0,1
-176.0,-23.0,-205.0,-118.0,-100.0,60.0,1
-176.0,-25.0,-199.0,-133.0,-127.0,67.0,1
-177.0,-22.0,-200.0,-144.0,-154.0,80.0,1
-175.0,-20.0,-196.0,-155.0,-180.0,88.0,1
-177.0,-21.0,-196.0,-165.0,-204.0,101.0,1
-178.0,-17.0,-200.0,-173.0,-224.0,109.0,1
-179.0,-16.0,-195.0,-182.0,-242.0,120.0,1
-181.0,-15.0,-191.0,-188.0,-254.0,125.0,1
-183.0,-13.0,-194.0,-192.0,-265.0,131.0,1
-185.0,-15.0,-190.0,-194.0,-273.0,133.0,1
-183.0,-14.0,-187.0,-196.0,-278.0,140.0,1
-182.0,-12.0,-190.0,-198.0,-281.0,141.0,1
-184.0,-11.0,-185.0,-200.0,-282.0,146.0,1
-187.0,-11.0,-186.0,-203.0,-282.0,148.0,1
-185.0,-13.0,-188.0,-205.0,-280.0,154.0,1
-185.0,-9.0,-184.0,-209.0,-276.0,155.0,1
-187.0,-13.0,-186.0,-214.0,-273.0,162.0,1
-191.0,-11.0,-182.0,-215.0,-265.0,163.0,1
-188.0,-12.0,-187.0,-219.0,-260.0,169.0,1
-190.0,-9.0,-186.0,-220.0,-256.0,171.0,1
-190.0,-10.0,-186.0,-222.0,-255.0,179.0,1
-194.0,-5.0,-186.0,-223.0,-255.0,181.0,1
-195.0,-6.0,-188.0,-227.0,-259.0,189.0,1
-194.0,-13.0,-188.0,-230.0,-268.0,192.0,1
-196.0,-6.0,-192.0,-236.0,-276.0,200.0,1
-193.0,-8.0,-192.0,-237.0,-287.0,204.0,1
-195.0,-5.0,-190.0,-236.0,-303.0,211.0,1
-200.0,-5.0,-189.0,-233.0,-321.0,214.0,1
-197.0,-4.0,-186.0,-235.0,-341.0,225.0,1
-196.0,-4.0,-186.0,-234.0,-356.0,234.0,1
-197.0,-3.0,-184.0,-232.0,-371.0,242.0,1
-200.0,-1.0,-185.0,-228.0,-384.0,244.0,1
-197.0,0.0,-180.0,-221.0,-391.0,247.0,1
-194.0,-1.0,-174.0,-212.0,-394.0,246.0,1
-198.0,-2.0,-172.0,-202.0,-393.0,248.0,1
-198.0,-2.0,-171.0,-189.0,-385.0,239.0,1
-198.0,0.0,-172.0,-176.0,-373.0,234.0,1
-201.0,4.0,-169.0,-161.0,-350.0,222.0,1
-200.0,2.0,-168.0,-146.0,-318.0,209.0,1
-202.0,5.0,-167.0,-133.0,-285.0,190.0,1
-201.0,4.0,-165.0,-121.0,-244.0,173.0,1
-201.0,5.0,-161.0,-112.0,-201.0,150.0,1
-199.0,7.0,-162.0,-100.0,-159.0,132.0,1
-201.0,5.0,-161.0,-89.0,-115.0,110.0,1
-198.0,3.0,-161.0,-81.0,-74.0,91.0,1
-201.0,8.0,-161.0,-72.0,-35.0,70.0,1
-200.0,5.0,-162.0,-63.0,1.0,56.0,1
-197.0,4.0,-161.0,-54.0,33.0,35.0,1
-197.0,7.0,-166.0,-43.0,66.0,23.0,1
-199.0,7.0,-169.0,-34.0,90.0,10.0,1
-196.0,4.0,-165.0,-26.0,111.0,2.0,1
-198.0,5.0,-167.0,-17.0,130.0,-7.0,1
-196.0,4.0,-172.0,-7.0,148.0,-13.0,1
-194.0,0.0,-166.0,0.0,164.0,-24.0,1
-198.0,6.0,-173.0,10.0,182.0,-29.0,1
-197.0,5.0,-172.0,16.0,197.0,-36.0,1
-194.0,1.0,-173.0,22.0,212.0,-40.0,1
-195.0,2.0,-174.0,27.0,229.0,-46.0,1
-195.0,5.0,-172.0,33.0,245.0,-51.0,1
-194.0,-3.0,-175.0,36.0,260.0,-59.0,1
-196.0,1.0,-174.0,40.0,277.0,-60.0,1
-197.0,1.0,-173.0,43.0,292.0,-67.0,1
-196.0,-4.0,-175.0,46.0,304.0,-70.0,1
-194.0,-4.0,-177.0,51.0,323.0,-77.0,1
-199.0,3.0,-177.0,52.0,340.0,-81.0,1
-194.0,2.0,-177.0,51.0,349.0,-83.0,1
-194.0,5.0,-179.0,55.0,355.0,-83.0,1
-192.0,-3.0,-183.0,61.0,360.0,-89.0,1
-198.0,0.0,-183.0,63.0,367.0,-93.0,1
-193.0,-3.0,-184.0,64.0,374.0,-96.0,1
-195.0,-2.0,-184.0,68.0,379.0,-95.0,1
-193.0,-4.0,-181.0,68.0,378.0,-97.0,1
-194.0,-2.0,-183.0,70.0,378.0,-96.0,1
-194.0,-4.0,-183.0,71.0,377.0,-98.0,1
-192.0,-2.0,-188.0,70.0,375.0,-95.0,1
-194.0,-4.0,-186.0,68.0,372.0,-98.0,1
-194.0,-4.0,-188.0,69.0,367.0,-95.0,1
-191.0,-3.0,-189.0,66.0,356.0,-94.0,1
-190.0,-4.0,-192.0,64.0,347.0,-90.0,1
-191.0,-5.0,-189.0,61.0,334.0,-87.0,1
-190.0,-4.0,-189.0,61.0,322.0,-84.0,1
-188.0,-7.0,-186.0,57.0,308.0,-83.0,1
-189.0,-7.0,-193.0,55.0,293.0,-79.0,1
-189.0,-6.0,-186.0,53.0,278.0,-78.0,1
-188.0,-5.0,-191.0,52.0,264.0,-73.0,1
-189.0,-3.0,-194.0,50.0,249.0,-72.0,1
-187.0,-8.0,-190.0,48.0,231.0,-67.0,1
-190.0,-8.0,-189.0,43.0,216.0,-63.0,1
-190.0,-4.0,-190.0,42.0,201.0,-59.0,1
-187.0,-5.0,-189.0,36.0,187.0,-55.0,1
-188.0,-7.0,-190.0,33.0,174.0,-50.0,1
-188.0,-4.0,-187.0,28.0,163.0,-47.0,1
-189.0,-4.0,-189.0,25.0,152.0,-41.0,1
-190.0,-5.0,-189.0,19.0,140.0,-37.0,1
-189.0,-6.0,-189.0,16.0,130.0,-32.0,1
-189.0,-7.0,-187.0,12.0,120.0,-28.0,1
-188.0,-6.0,-189.0,6.0,110.0,-25.0,1
-186.0,-4.0,-193.0,3.0,100.0,-22.0,1
-189.0,-5.0,-190.0,-1.0,92.0,-17.0,1
-190.0,-5.0,-190.0,-6.0,84.0,-15.0,1
-186.0,-4.0,-192.0,-9.0,76.0,-12.0,1
-189.0,-7.0,-188.0,-14.0,68.0,-11.0,1
-189.0,-6.0,-190.0,-17.0,61.0,-7.0,1
-188.0,-3.0,-189.0,-18.0,53.0,-5.0,1
-188.0,-5.0,-189.0,-21.0,45.0,-2.0,1
-185.0,-9.0,-189.0,-23.0,35.0,0.0,1
-187.0,-7.0,-187.0,-25.0,28.0,1.0,1
-188.0,-4.0,-187.0,-28.0,25.0,5.0,1
-188.0,-4.0,-186.0,-32.0,20.0,6.0,1
-188.0,-5.0,-192.0,-34.0,18.0,9.0,1
-189.0,-4.0,-185.0,-37.0,16.0,12.0,1
-189.0,-4.0,-183.0,-40.0,12.0,14.0,1
-188.0,-5.0,-189.0,-40.0,10.0,15.0,1
-188.0,-5.0,-187.0,-41.0,10.0,15.0,1
-189.0,-4.0,-188.0,-42.0,10.0,17.0,1
-187.0,-4.0,-188.0,-43.0,12.0,17.0,1
-190.0,-4.0,-187.0,-42.0,13.0,17.0,1
-191.0,-4.0,-186.0,-43.0,15.0,19.0,1
-187.0,-4.0,-186.0,-44.0,18.0,18.0,1
-188.0,-4.0,-188.0,-43.0,20.0,21.0,1
-189.0,-4.0,-185.0,-44.0,20.0,21.0,1
-190.0,-4.0,-184.0,-46.0,20.0,24.0,1
-189.0,-4.0,-183.0,-48.0,20.0,26.0,1
-189.0,-6.0,-184.0,-51.0,20.0,27.0,1
-190.0,-3.0,-184.0,-53.0,19.0,29.0,1
-189.0,-3.0,-185.0,-54.0,21.0,31.0,1
-190.0,-4.0,-185.0,-53.0,24.0,30.0,1
-190.0,-3.0,-184.0,-53.0,29.0,28.0,1
-192.0,-3.0,-183.0,-51.0,35.0,25.0,1
-192.0,-4.0,-184.0,-48.0,41.0,24.0,1
-191.0,-2.0,-181.0,-45.0,48.0,21.0,1
-191.0,-4.0,-187.0,-42.0,53.0,20.0,1
-191.0,-2.0,-186.0,-39.0,58.0,17.0,1
-191.0,-4.0,-186.0,-39.0,61.0,15.0,1
-190.0,-4.0,-185.0,-36.0,66.0,13.0,1
-188.0,-4.0,-185.0,-34.0,69.0,14.0,1
-194.0,-2.0,-181.0,-35.0,73.0,11.0,1
-187.0,-4.0,-185.0,-32.0,76.0,12.0,1
-186.0,-4.0,-183.0,-30.0,77.0,8.0,1
-188.0,-3.0,-186.0,-28.0,81.0,7.0,1
-190.0,-3.0,-185.0,-26.0,82.0,4.0,1
-191.0,-3.0,-187.0,-23.0,82.0,2.0,1
-193.0,-3.0,-185.0,-20.0,85.0,-1.0,1
-192.0,-2.0,-187.0,-18.0,83.0,-2.0,1
-188.0,-1.0,-183.0,-15.0,83.0,-4.0,1
-192.0,-3.0,-186.0,-14.0,81.0,-4.0,1
-189.0,-2.0,-188.0,-10.0,79.0,-7.0,1
-191.0,-3.0,-185.0,-9.0,79.0,-7.0,1
-189.0,0.0,-186.0,-7.0,75.0,-10.0,1
-191.0,-3.0,-189.0,-7.0,76.0,-10.0,1
-188.0,-3.0,-187.0,-4.0,75.0,-11.0,1
-191.0,-2.0,-186.0,-5.0,74.0,-10.0,1
-191.0,-3.0,-185.0,-3.0,75.0,-12.0,1
-189.0,-3.0,-184.0,-3.0,75.0,-11.0,1
-190.0,-4.0,-185.0,-1.0,76.0,-13.0,1
-190.0,-2.0,-186.0,0.0,78.0,-12.0,1
-190.0,-4.0,-185.0,2.0,79.0,-15.0,1
-188.0,-4.0,-187.0,3.0,79.0,-13.0,1
-192.0,-3.0,-189.0,4.0,79.0,-16.0,1
-187.0,-6.0,-186.0,7.0,81.0,-18.0,1
-190.0,-4.0,-186.0,8.0,84.0,-19.0,1
-188.0,0.0,-184.0,4.0,82.0,-15.0,1
-190.0,-3.0,-187.0,6.0,77.0,-17.0,1
-188.0,-2.0,-187.0,5.0,73.0,-14.0,1
-187.0,-4.0,-189.0,6.0,72.0,-17.0,1
-190.0,-4.0,-184.0,5.0,74.0,-14.0,1
-190.0,-4.0,-187.0,4.0,72.0,-14.0,1
-190.0,-3.0,-188.0,4.0,71.0,-12.0,1
-189.0,-3.0,-190.0,4.0,71.0,-14.0,1
-189.0,-4.0,-188.0,5.0,70.0,-12.0,1
-188.0,-4.0,-185.0,5.0,70.0,-15.0,1
-190.0,-2.0,-187.0,5.0,71.0,-13.0,1
-189.0,-3.0,-188.0,5.0,71.0,-14.0,1
-187.0,-3.0,-186.0,5.0,69.0,-12.0,1
-184.0,-3.0,-185.0,5.0,66.0,-14.0,1
-188.0,-4.0,-182.0,4.0,66.0,-12.0,1
-190.0,-4.0,-187.0,4.0,66.0,-14.0,1
-188.0,-3.0,-190.0,4.0,67.0,-12.0,1
-189.0,-3.0,-184.0,4.0,67.0,-14.0,1
-187.0,-4.0,-187.0,4.0,68.0,-11.0,1
-188.0,-4.0,-187.0,2.0,70.0,-13.0,1
-187.0,-4.0,-190.0,0.0,70.0,-8.0,1
-190.0,-4.0,-187.0,-1.0,71.0,-9.0,1
-188.0,-6.0,-186.0,-4.0,71.0,-8.0,1
-187.0,-4.0,-187.0,-4.0,69.0,-9.0,1
-186.0,-4.0,-193.0,-5.0,67.0,-5.0,1
-194.0,-4.0,-186.0,-6.0,65.0,-6.0,1
-189.0,-4.0,-190.0,-7.0,63.0,-4.0,1
-187.0,-6.0,-188.0,-9.0,60.0,-7.0,1
-188.0,-4.0,-189.0,-9.0,58.0,-3.0,1
-190.0,-3.0,-186.0,-11.0,55.0,-5.0,1
-187.0,-5.0,-186.0,-12.0,51.0,-2.0,1
-190.0,-3.0,-190.0,-12.0,48.0,-5.0,1
-189.0,-4.0,-186.0,-13.0,43.0,0.0,1
-190.0,-6.0,-184.0,-14.0,38.0,-2.0,1
-190.0,-4.0,-190.0,-16.0,35.0,-1.0,1
-188.0,-4.0,-188.0,-18.0,31.0,-1.0,1
-190.0,-4.0,-189.0,-20.0,26.0,2.0,1
-189.0,-5.0,-186.0,-23.0,21.0,2.0,1
-190.0,-4.0,-188.0,-23.0,17.0,4.0,1
-192.0,-3.0,-185.0,-26.0,14.0,4.0,1
-189.0,-3.0,-187.0,-26.0,11.0,7.0,1
-190.0,-4.0,-190.0,-24.0,7.0,5.0,1
-189.0,-3.0,-188.0,-26.0,5.0,7.0,1
-190.0,-2.0,-187.0,-27.0,4.0,6.0,1
-190.0,-2.0,-190.0,-27.0,2.0,8.0,1
-190.0,-3.0,-185.0,-26.0,0.0,4.0,1
-188.0,-4.0,-184.0,-26.0,-2.0,6.0,1
-190.0,-4.0,-185.0,-24.0,-2.0,2.0,1
-190.0,-3.0,-183.0,-25.0,1.0,4.0,1
-190.0,-4.0,-183.0,-22.0,5.0,2.0,1
-190.0,-4.0,-184.0,-20.0,10.0,2.0,1
-191.0,-4.0,-187.0,-19.0,15.0,-1.0,1
-193.0,-3.0,-185.0,-19.0,22.0,1.0,1
-189.0,-4.0,-187.0,-18.0,28.0,0.0,1
-189.0,-3.0,-181.0,-18.0,33.0,2.0,1
-188.0,-4.0,-184.0,-17.0,38.0,0.0,1
-188.0,-4.0,-183.0,-19.0,41.0,3.0,1
-191.0,-4.0,-184.0,-20.0,46.0,1.0,1
-192.0,-1.0,-182.0,-19.0,51.0,3.0,1
-190.0,-4.0,-185.0,-17.0,55.0,2.0,1
-190.0,-4.0,-184.0,-18.0,61.0,2.0,1
-190.0,-3.0,-185.0,-15.0,67.0,-1.0,1
-191.0,-4.0,-187.0,-15.0,73.0,1.0,1
-189.0,-6.0,-184.0,-15.0,76.0,-1.0,1
-191.0,-3.0,-186.0,-13.0,78.0,-1.0,1
-189.0,-4.0,-186.0,-12.0,80.0,-3.0,1
-190.0,-3.0,-186.0,-13.0,80.0,-1.0,1
-189.0,-4.0,-185.0,-12.0,79.0,-3.0,1
-190.0,-2.0,-182.0,-13.0,80.0,-1.0,1
-190.0,-4.0,-185.0,-14.0,78.0,-3.0,1
-189.0,-5.0,-186.0,-15.0,78.0,-1.0,1
-191.0,-3.0,-186.0,-14.0,78.0,-2.0,1
-190.0,-4.0,-185.0,-14.0,76.0,-1.0,1
-189.0,-4.0,-185.0,-14.0,77.0,-1.0,1
-192.0,-4.0,-185.0,-12.0,77.0,-1.0,1
-191.0,-4.0,-188.0,-11.0,77.0,-3.0,1
-191.0,-3.0,-188.0,-10.0,77.0,-2.0,1
-192.0,-2.0,-187.0,-9.0,75.0,-5.0,1
-190.0,-3.0,-186.0,-7.0,75.0,-5.0,1
-190.0,-3.0,-185.0,-5.0,72.0,-8.0,1
-191.0,-4.0,-189.0,-4.0,72.0,-7.0,1
-189.0,-3.0,-189.0,-3.0,71.0,-8.0,1
-193.0,-2.0,-187.0,-2.0,69.0,-7.0,1
-191.0,-5.0,-187.0,-1.0,69.0,-9.0,1
-191.0,-3.0,-186.0,-3.0,71.0,-9.0,1
-190.0,-4.0,-186.0,-1.0,70.0,-10.0,1
-187.0,-3.0,-184.0,-1.0,69.0,-9.0,1
-193.0,-5.0,-185.0,-3.0,65.0,-10.0,1
-190.0,-4.0,-184.0,-5.0,64.0,-7.0,1
-188.0,-6.0,-183.0,-5.0,63.0,-6.0,1
-191.0,-4.0,-187.0,-7.0,63.0,-7.0,1
-190.0,-5.0,-188.0,-8.0,62.0,-6.0,1
-189.0,-4.0,-186.0,-8.0,62.0,-5.0,1
-188.0,-5.0,-183.0,-7.0,61.0,-5.0,1
-188.0,-2.0,-184.0,-7.0,60.0,-4.0,1
-188.0,-4.0,-186.0,-7.0,60.0,-4.0,1
-190.0,-4.0,-187.0,-7.0,59.0,-6.0,1
-190.0,-3.0,-184.0,-8.0,59.0,-5.0,1
-189.0,-4.0,-182.0,-7.0,58.0,-4.0,1
-189.0,-5.0,-186.0,-9.0,55.0,-4.0,1
-189.0,-4.0,-187.0,-10.0,55.0,-6.0,1
-187.0,-3.0,-185.0,-12.0,55.0,-4.0,1
-191.0,-1.0,-189.0,-10.0,54.0,-5.0,1
-189.0,-4.0,-188.0,-12.0,53.0,-5.0,1
-189.0,-6.0,-188.0,-11.0,52.0,-4.0,1
-189.0,-4.0,-187.0,-11.0,52.0,-4.0,1
-187.0,-4.0,-189.0,-12.0,49.0,-4.0,1
-191.0,-3.0,-187.0,-12.0,46.0,-5.0,1
-188.0,-4.0,-186.0,-12.0,44.0,-6.0,1
-189.0,-4.0,-186.0,-12.0,42.0,-4.0,1
-191.0,-5.0,-184.0,-11.0,41.0,-6.0,1
-189.0,-3.0,-184.0,-11.0,39.0,-5.0,1
-191.0,-4.0,-187.0,-10.0,38.0,-5.0,1
-190.0,-4.0,-186.0,-11.0,36.0,-3.0,1
-192.0,-4.0,-184.0,-14.0,36.0,-4.0,1
-193.0,-4.0,-185.0,-14.0,34.0,-4.0,1
-189.0,-4.0,-185.0,-14.0,33.0,-3.0,1
-191.0,-4.0,-182.0,-15.0,33.0,-2.0,1
-191.0,-4.0,-186.0,-15.0,34.0,-3.0,1
-194.0,-4.0,-184.0,-15.0,34.0,-3.0,1
-190.0,-6.0,-182.0,-16.0,34.0,-3.0,1
-186.0,-8.0,-184.0,-14.0,36.0,-2.0,1
-190.0,-4.0,-186.0,-10.0,38.0,-5.0,1
-196.0,-4.0,-187.0,-13.0,41.0,-1.0,1
-194.0,-2.0,-184.0,-15.0,40.0,-2.0,1
-190.0,-4.0,-184.0,-14.0,38.0,0.0,1
-190.0,-3.0,-185.0,-13.0,38.0,-2.0,1
-191.0,-3.0,-187.0,-15.0,37.0,-2.0,1
-193.0,-3.0,-184.0,-17.0,39.0,-4.0,1
-191.0,-4.0,-189.0,-17.0,39.0,0.0,1
-190.0,-5.0,-184.0,-15.0,39.0,-4.0,1
-190.0,-4.0,-185.0,-14.0,40.0,-2.0,1
-188.0,-3.0,-186.0,-14.0,41.0,-4.0,1
-192.0,-4.0,-184.0,-13.0,43.0,-2.0,1
-190.0,-3.0,-184.0,-13.0,43.0,-3.0,1
-190.0,-4.0,-185.0,-13.0,45.0,-2.0,1
-189.0,-3.0,-185.0,-15.0,45.0,-2.0,1
-190.0,-4.0,-184.0,-14.0,46.0,-1.0,1
-189.0,-4.0,-187.0,-14.0,46.0,-3.0,1
-192.0,-4.0,-186.0,-13.0,48.0,-1.0,1
-190.0,-3.0,-183.0,-15.0,49.0,-3.0,1
-190.0,-3.0,-186.0,-14.0,51.0,1.0,1
-192.0,-3.0,-184.0,-11.0,51.0,-2.0,1
-190.0,-6.0,-183.0,-11.0,51.0,-2.0,1
-189.0,-3.0,-184.0,-9.0,52.0,-1.0,1
-193.0,0.0,-182.0,-10.0,53.0,0.0,1
-187.0,-6.0,-185.0,-7.0,54.0,-4.0,1
-190.0,-4.0,-184.0,-8.0,56.0,-1.0,1
-190.0,-3.0,-183.0,-7.0,56.0,-5.0,1
-191.0,-5.0,-184.0,-7.0,56.0,-4.0,1
-191.0,-3.0,-185.0,-7.0,56.0,-6.0,1
-191.0,-4.0,-187.0,-8.0,55.0,-4.0,1
-191.0,-4.0,-186.0,-8.0,54.0,-8.0,1
-188.0,-6.0,-187.0,-7.0,56.0,-4.0,1
-191.0,-6.0,-186.0,-11.0,56.0,-7.0,1
-191.0,-4.0,-183.0,-11.0,55.0,-4.0,1
-192.0,-4.0,-184.0,-13.0,55.0,-5.0,1
-189.0,-4.0,-186.0,-14.0,55.0,-1.0,1
-192.0,-4.0,-183.0,-15.0,53.0,-3.0,1
-189.0,-4.0,-184.0,-16.0,50.0,0.0,1
-192.0,-4.0,-185.0,-16.0,45.0,-4.0,1
-190.0,-4.0,-185.0,-16.0,44.0,-2.0,1
-191.0,-2.0,-186.0,-16.0,43.0,-4.0,1
-193.0,-4.0,-183.0,-15.0,41.0,-2.0,1
-192.0,-4.0,-185.0,-13.0,41.0,-6.0,1
-191.0,-2.0,-183.0,-12.0,41.0,-4.0,1
-193.0,-3.0,-187.0,-13.0,42.0,-6.0,1
-192.0,-4.0,-186.0,-13.0,42.0,-3.0,1
-190.0,-4.0,-183.0,-12.0,41.0,-4.0,1
-190.0,-5.0,-183.0,-14.0,41.0,-1.0,1
-191.0,-5.0,-183.0,-15.0,41.0,-3.0,1
-190.0,-3.0,-183.0,-17.0,41.0,0.0,1
-191.0,-4.0,-186.0,-17.0,40.0,-2.0,1
-193.0,-4.0,-186.0,-17.0,41.0,0.0,1
-193.0,-4.0,-187.0,-16.0,46.0,-3.0,1
-194.0,-3.0,-184.0,-14.0,51.0,0.0,1
-194.0,-4.0,-181.0,-14.0,56.0,-3.0,1
-190.0,-3.0,-185.0,-13.0,63.0,-1.0,1
-189.0,-4.0,-184.0,-12.0,66.0,-5.0,1
-189.0,-6.0,-184.0,-13.0,67.0,-1.0,1
-187.0,-6.0,-183.0,-12.0,68.0,-4.0,1
-186.0,-6.0,-185.0,-12.0,70.0,-2.0,1
-192.0,-4.0,-185.0,-14.0,69.0,-3.0,1
-192.0,-2.0,-186.0,-15.0,70.0,1.0,1
-187.0,-4.0,-184.0,-17.0,67.0,-2.0,1
-192.0,-4.0,-184.0,-16.0,67.0,0.0,1
-190.0,-5.0,-184.0,-17.0,66.0,-1.0,1
-193.0,-2.0,-186.0,-18.0,67.0,3.0,1
-190.0,-4.0,-187.0,-18.0,65.0,-1.0,1
-189.0,-5.0,-188.0,-17.0,64.0,1.0,1
-193.0,0.0,-173.0,-18.0,64.0,-3.0,1
-182.0,3.0,-187.0,-16.0,65.0,1.0,1
-197.0,4.0,-182.0,-15.0,62.0,-2.0,1
-189.0,-7.0,-191.0,-12.0,60.0,-1.0,1
-200.0,5.0,-193.0,-11.0,59.0,-6.0,1
-190.0,10.0,-190.0,-11.0,59.0,-3.0,1
-192.0,-4.0,-185.0,-10.0,60.0,-6.0,1
-192.0,-4.0,-184.0,-10.0,59.0,-3.0,1
-191.0,-4.0,-186.0,-9.0,59.0,-5.0,1
-188.0,-6.0,-184.0,-10.0,61.0,-2.0,1
-193.0,-5.0,-185.0,-10.0,61.0,-5.0,1
-191.0,-3.0,-188.0,-10.0,59.0,-3.0,1
-193.0,-4.0,-186.0,-12.0,60.0,-5.0,1
-192.0,-4.0,-187.0,-13.0,60.0,-2.0,1
-191.0,-4.0,-184.0,-13.0,59.0,-4.0,1
-193.0,-3.0,-186.0,-12.0,57.0,-1.0,1
-190.0,-6.0,-186.0,-15.0,56.0,-3.0,1
-195.0,-1.0,-186.0,-14.0,55.0,0.0,1
-190.0,-4.0,-183.0,-13.0,53.0,-2.0,1
-191.0,-4.0,-186.0,-12.0,52.0,-1.0,1
-193.0,-4.0,-185.0,-12.0,52.0,-3.0,1
-191.0,-4.0,-183.0,-13.0,51.0,-2.0,1
-197.0,-24.0,-175.0,-12.0,51.0,-3.0,1
-192.0,-3.0,-182.0,-13.0,51.0,-2.0,1
-191.0,-3.0,-186.0,-12.0,50.0,-3.0,1
-190.0,-4.0,-186.0,-12.0,52.0,-2.0,1
-189.0,-4.0,-183.0,-12.0,52.0,-2.0,1
-192.0,-2.0,-184.0,-14.0,53.0,-2.0,1
-192.0,-4.0,-184.0,-15.0,53.0,-2.0,1
-189.0,-4.0,-187.0,-14.0,52.0,-2.0,1
-193.0,-2.0,-184.0,-14.0,54.0,-3.0,1
-191.0,-4.0,-187.0,-12.0,54.0,-3.0,1
-190.0,-6.0,-181.0,-12.0,54.0,-4.0,1
-189.0,-4.0,-188.0,-11.0,55.0,-3.0,1
-193.0,-4.0,-182.0,-11.0,56.0,-4.0,1
-192.0,-4.0,-186.0,-9.0,56.0,-5.0,1
-192.0,-3.0,-184.0,-8.0,56.0,-6.0,1
-190.0,-4.0,-184.0,-8.0,57.0,-6.0,1
-193.0,-2.0,-184.0,-10.0,56.0,-6.0,1
-190.0,-4.0,-184.0,-9.0,58.0,-5.0,1
-194.0,-4.0,-185.0,-10.0,58.0,-6.0,1
-190.0,-2.0,-184.0,-9.0,61.0,-3.0,1
-190.0,-4.0,-186.0,-11.0,62.0,-4.0,1
-192.0,-3.0,-184.0,-14.0,63.0,-3.0,1
-190.0,-4.0,-182.0,-15.0,63.0,-2.0,1
-191.0,-6.0,-185.0,-15.0,64.0,-2.0,1
-190.0,-4.0,-184.0,-16.0,65.0,-1.0,1
-191.0,-3.0,-185.0,-17.0,67.0,0.0,1
-191.0,-4.0,-182.0,-17.0,67.0,1.0,1
-191.0,-4.0,-183.0,-16.0,67.0,1.0,1
-192.0,-4.0,-183.0,-16.0,67.0,-1.0,1
-191.0,-4.0,-183.0,-16.0,69.0,-1.0,1
-191.0,-4.0,-187.0,-15.0,67.0,-3.0,1
-191.0,0.0,-189.0,-12.0,66.0,-2.0,1
-191.0,-6.0,-188.0,-13.0,65.0,-3.0,1
-191.0,-3.0,-186.0,-12.0,64.0,-4.0,1
-191.0,-4.0,-187.0,-13.0,63.0,-3.0,1
-194.0,-3.0,-185.0,-13.0,61.0,-3.0,1
-190.0,-4.0,-186.0,-13.0,61.0,-2.0,1
-192.0,-4.0,-184.0,-14.0,59.0,-3.0,1
-191.0,-5.0,-184.0,-14.0,60.0,-2.0,1
-189.0,-4.0,-183.0,-15.0,61.0,-2.0,1
-190.0,-4.0,-184.0,-15.0,61.0,-2.0,1
-193.0,-2.0,-185.0,-14.0,59.0,-2.0,1
-192.0,-4.0,-184.0,-15.0,59.0,-1.0,1
-191.0,-3.0,-183.0,-14.0,59.0,-2.0,1
-190.0,-2.0,-183.0,-15.0,56.0,-2.0,1
-190.0,-4.0,-184.0,-15.0,55.0,-2.0,1
-191.0,-3.0,-183.0,-17.0,55.0,-1.0,1
-193.0,-4.0,-183.0,-15.0,54.0,-2.0,1
-193.0,-3.0,-184.0,-16.0,53.0,-1.0,1
-192.0,-4.0,-185.0,-17.0,53.0,-1.0,1
-188.0,-4.0,-183.0,-16.0,53.0,0.0,1
-190.0,-4.0,-187.0,-15.0,54.0,-1.0,1
-192.0,-3.0,-182.0,-15.0,56.0,0.0,1
-191.0,-4.0,-186.0,-15.0,56.0,-2.0,1
-192.0,-3.0,-185.0,-13.0,59.0,-2.0,1
-191.0,-4.0,-186.0,-13.0,60.0,-2.0,1
-187.0,-6.0,-187.0,-13.0,59.0,-1.0,1
-190.0,-6.0,-184.0,-13.0,61.0,-3.0,1
-189.0,-3.0,-182.0,-12.0,62.0,-2.0,1
-192.0,-5.0,-185.0,-13.0,59.0,-2.0,1
-190.0,-4.0,-184.0,-15.0,59.0,-1.0,1
-191.0,-4.0,-186.0,-15.0,59.0,-2.0,1
-190.0,-4.0,-184.0,-13.0,59.0,0.0,1
-192.0,-4.0,-186.0,-14.0,58.0,-2.0,1
-191.0,-3.0,-182.0,-16.0,57.0,-1.0,1
-189.0,-4.0,-182.0,-15.0,57.0,-2.0,1
-193.0,-4.0,-185.0,-16.0,58.0,0.0,1
-193.0,-2.0,-184.0,-13.0,57.0,-2.0,1
-191.0,-4.0,-183.0,-14.0,59.0,0.0,1
-192.0,-4.0,-183.0,-12.0,60.0,-2.0,1
-191.0,-3.0,-184.0,-13.0,61.0,0.0,1
-191.0,-4.0,-184.0,-14.0,62.0,-3.0,1
-192.0,-3.0,-185.0,-13.0,62.0,-1.0,1
-191.0,-4.0,-184.0,-13.0,63.0,-2.0,1
-191.0,-4.0,-186.0,-14.0,63.0,-2.0,1
-194.0,-2.0,-184.0,-14.0,63.0,-5.0,1
-193.0,-1.0,-183.0,-13.0,61.0,-3.0,1
-191.0,-5.0,-185.0,-13.0,61.0,-3.0,1
-193.0,-4.0,-182.0,-13.0,62.0,-1.0,1
-192.0,-4.0,-184.0,-13.0,62.0,-4.0,1
-193.0,-2.0,-186.0,-13.0,60.0,-1.0,1
-190.0,-4.0,-187.0,-14.0,58.0,-3.0,1
-191.0,-4.0,-184.0,-16.0,57.0,1.0,1
-190.0,-3.0,-184.0,-17.0,57.0,-2.0,1
-188.0,-4.0,-184.0,-16.0,57.0,0.0,1
-187.0,-4.0,-184.0,-17.0,57.0,-3.0,1
-190.0,-4.0,-185.0,-16.0,56.0,1.0,1
-194.0,-3.0,-185.0,-15.0,55.0,-2.0,1
-190.0,-4.0,-182.0,-15.0,55.0,0.0,1
-190.0,-4.0,-184.0,-17.0,55.0,-2.0,1
-195.0,-3.0,-184.0,-15.0,56.0,0.0,1
-193.0,-4.0,-185.0,-17.0,56.0,-3.0,1
-193.0,-3.0,-183.0,-14.0,57.0,0.0,1
-192.0,-3.0,-184.0,-14.0,59.0,-4.0,1
-190.0,-5.0,-183.0,-15.0,61.0,-1.0,1
-193.0,-4.0,-183.0,-15.0,61.0,-4.0,1
-191.0,-4.0,-185.0,-15.0,61.0,-2.0,1
-190.0,-3.0,-184.0,-15.0,63.0,-3.0,1
-193.0,-2.0,-185.0,-15.0,63.0,1.0,1
-188.0,-4.0,-181.0,-15.0,63.0,-3.0,1
-191.0,-4.0,-183.0,-16.0,65.0,0.0,1
-191.0,-3.0,-183.0,-16.0,63.0,-2.0,1
-192.0,-4.0,-182.0,-17.0,63.0,1.0,1
-191.0,-4.0,-183.0,-19.0,63.0,0.0,1
-191.0,-4.0,-183.0,-21.0,62.0,3.0,1
-191.0,-4.0,-186.0,-22.0,62.0,1.0,1
-191.0,-4.0,-183.0,-21.0,60.0,3.0,1
-192.0,-2.0,-185.0,-20.0,61.0,0.0,1
-192.0,-5.0,-184.0,-19.0,61.0,1.0,1
-193.0,-3.0,-186.0,-17.0,65.0,-3.0,1
-194.0,-3.0,-184.0,-16.0,67.0,-2.0,1
-192.0,-1.0,-188.0,-11.0,70.0,-4.0,1
-190.0,-4.0,-185.0,-10.0,73.0,-3.0,1
-193.0,-3.0,-186.0,-10.0,73.0,-6.0,1
-194.0,-3.0,-184.0,-11.0,71.0,-3.0,1
-188.0,-4.0,-185.0,-11.0,70.0,-6.0,1
-189.0,-3.0,-183.0,-14.0,66.0,-1.0,1
-190.0,-5.0,-182.0,-15.0,63.0,-1.0,1
-191.0,-3.0,-182.0,-17.0,61.0,1.0,1
-190.0,-4.0,-184.0,-20.0,63.0,1.0,1
-190.0,-4.0,-182.0,-22.0,66.0,3.0,1
-191.0,-4.0,-183.0,-21.0,70.0,1.0,1
-190.0,-4.0,-184.0,-20.0,74.0,2.0,1
-192.0,-3.0,-188.0,-19.0,80.0,0.0,1
-194.0,-4.0,-184.0,-19.0,85.0,1.0,1
-191.0,-3.0,-183.0,-19.0,89.0,-2.0,1
-189.0,-4.0,-183.0,-17.0,94.0,0.0,1
-190.0,-4.0,-185.0,-14.0,96.0,-4.0,1
-191.0,-4.0,-185.0,-15.0,96.0,0.0,1
-192.0,-3.0,-185.0,-17.0,95.0,-1.0,1
-190.0,-3.0,-185.0,-19.0,94.0,3.0,1
-192.0,-3.0,-186.0,-19.0,93.0,0.0,1
-192.0,-4.0,-182.0,-21.0,91.0,3.0,1
-190.0,-4.0,-185.0,-22.0,89.0,1.0,1
-190.0,-5.0,-185.0,-21.0,88.0,4.0,1
-193.0,-4.0,-188.0,-22.0,85.0,1.0,1
-192.0,-4.0,-188.0,-22.0,82.0,4.0,1
-191.0,-3.0,-184.0,-22.0,78.0,2.0,1
-191.0,-5.0,-184.0,-20.0,76.0,2.0,1
-189.0,-3.0,-185.0,-16.0,72.0,0.0,1
-194.0,-2.0,-189.0,-15.0,67.0,0.0,1
-187.0,-4.0,-185.0,-14.0,65.0,-1.0,1
-189.0,-3.0,-186.0,-14.0,62.0,-1.0,1
-192.0,-4.0,-185.0,-13.0,59.0,-3.0,1
-192.0,-2.0,-187.0,-14.0,58.0,-1.0,1
-191.0,-3.0,-185.0,-13.0,59.0,-3.0,1
-190.0,-3.0,-186.0,-12.0,58.0,-2.0,1
-193.0,-3.0,-185.0,-13.0,58.0,-3.0,1
-191.0,-4.0,-183.0,-15.0,58.0,-1.0,1
-193.0,-2.0,-185.0,-16.0,59.0,0.0,1
-191.0,-4.0,-186.0,-18.0,59.0,1.0,1
-190.0,-2.0,-188.0,-19.0,61.0,0.0,1
-189.0,-4.0,-184.0,-20.0,60.0,2.0,1
-191.0,-4.0,-186.0,-19.0,62.0,1.0,1
-191.0,-4.0,-183.0,-18.0,62.0,2.0,1
-189.0,-4.0,-186.0,-20.0,61.0,0.0,1
-192.0,-4.0,-186.0,-19.0,60.0,1.0,1
-191.0,-3.0,-183.0,-17.0,59.0,0.0,1
-189.0,-4.0,-187.0,-16.0,60.0,0.0,1
-190.0,-4.0,-186.0,-15.0,59.0,1.0,1
-192.0,-4.0,-183.0,-15.0,60.0,1.0,1
-190.0,-4.0,-184.0,-15.0,60.0,-1.0,1
-190.0,-4.0,-185.0,-15.0,60.0,-2.0,1
-192.0,-4.0,-186.0,-15.0,61.0,-1.0,1
-191.0,-4.0,-185.0,-15.0,62.0,-1.0,1
-191.0,-3.0,-184.0,-14.0,64.0,-2.0,1
-190.0,-3.0,-185.0,-14.0,63.0,-2.0,1
-190.0,-4.0,-185.0,-13.0,63.0,-2.0,1
-192.0,-4.0,-187.0,-13.0,61.0,-2.0,1
-189.0,-4.0,-186.0,-14.0,62.0,-3.0,1
-191.0,-4.0,-186.0,-13.0,60.0,-3.0,1
-191.0,-3.0,-185.0,-15.0,61.0,-4.0,1
-191.0,-2.0,-185.0,-13.0,60.0,-3.0,1
-190.0,-4.0,-185.0,-14.0,61.0,-3.0,1
-190.0,-5.0,-185.0,-14.0,62.0,-3.0,1
-192.0,-4.0,-186.0,-13.0,63.0,-4.0,1
-191.0,-5.0,-187.0,-16.0,64.0,-5.0,1
-191.0,-4.0,-182.0,-15.0,65.0,-2.0,1
-191.0,-4.0,-186.0,-16.0,66.0,-1.0,1
-191.0,-5.0,-185.0,-16.0,67.0,0.0,1
-190.0,-4.0,-184.0,-17.0,67.0,-1.0,1
-191.0,-3.0,-185.0,-17.0,67.0,2.0,1
-190.0,-3.0,-184.0,-18.0,68.0,0.0,1
-188.0,-4.0,-183.0,-18.0,67.0,0.0,1
-188.0,-3.0,-186.0,-20.0,67.0,0.0,1
-191.0,-4.0,-182.0,-19.0,67.0,2.0,1
-194.0,-2.0,-182.0,-19.0,67.0,0.0,1
-188.0,-4.0,-184.0,-18.0,69.0,0.0,1
-192.0,-4.0,-185.0,-17.0,68.0,-2.0,1
-194.0,-2.0,-190.0,-16.0,67.0,-2.0,1
-190.0,-3.0,-186.0,-16.0,65.0,-2.0,1
-191.0,-3.0,-187.0,-15.0,65.0,0.0,1
-189.0,-4.0,-188.0,-14.0,64.0,-1.0,1
-191.0,-4.0,-187.0,-14.0,63.0,-2.0,1
-190.0,-3.0,-187.0,-15.0,62.0,-1.0,1
-191.0,-4.0,-186.0,-14.0,60.0,-1.0,1
-190.0,-5.0,-185.0,-14.0,59.0,-3.0,1
-189.0,-5.0,-188.0,-15.0,59.0,-2.0,1
-187.0,-3.0,-188.0,-15.0,59.0,-2.0,1
-190.0,-4.0,-183.0,-16.0,59.0,-1.0,1
-189.0,-4.0,-186.0,-16.0,60.0,-2.0,1
-189.0,-3.0,-185.0,-17.0,59.0,0.0,1
-189.0,-4.0,-185.0,-16.0,59.0,-1.0,1
-191.0,-4.0,-184.0,-16.0,59.0,-2.0,1
-191.0,-3.0,-185.0,-15.0,56.0,-2.0,1
-188.0,-4.0,-185.0,-14.0,57.0,-1.0,1
-190.0,-3.0,-183.0,-14.0,56.0,-2.0,1
-188.0,-4.0,-187.0,-14.0,56.0,-2.0,1
-190.0,-3.0,-185.0,-14.0,58.0,-4.0,1
-187.0,-5.0,-183.0,-11.0,58.0,-2.0,1
-190.0,-4.0,-189.0,-13.0,57.0,-4.0,1
-189.0,-4.0,-182.0,-12.0,58.0,-3.0,1
-191.0,-2.0,-183.0,-12.0,59.0,-4.0,1
-192.0,-3.0,-184.0,-12.0,58.0,-3.0,1
-191.0,-4.0,-184.0,-12.0,58.0,-6.0,1
-191.0,-4.0,-184.0,-11.0,59.0,-4.0,1
-194.0,-3.0,-184.0,-10.0,58.0,-6.0,1
-190.0,-3.0,-184.0,-10.0,59.0,-3.0,1
-189.0,-7.0,-183.0,-11.0,59.0,-5.0,1
-189.0,-3.0,-188.0,-10.0,59.0,-2.0,1
-191.0,-3.0,-184.0,-10.0,60.0,-5.0,1
-193.0,-4.0,-185.0,-10.0,58.0,-5.0,1
-190.0,-4.0,-183.0,-10.0,58.0,-6.0,1
-191.0,-4.0,-187.0,-9.0,58.0,-3.0,1
-191.0,-3.0,-187.0,-10.0,58.0,-6.0,1
-189.0,-3.0,-182.0,-11.0,58.0,-4.0,1
-190.0,-4.0,-183.0,-9.0,55.0,-7.0,1
-187.0,-4.0,-185.0,-10.0,56.0,-4.0,1
-191.0,-3.0,-186.0,-9.0,56.0,-7.0,1
-189.0,-3.0,-185.0,-10.0,55.0,-4.0,1
-191.0,-3.0,-187.0,-9.0,54.0,-6.0,1
-190.0,-5.0,-186.0,-9.0,53.0,-4.0,1
-190.0,-4.0,-184.0,-10.0,54.0,-5.0,1
-190.0,-3.0,-185.0,-11.0,55.0,-3.0,1
-189.0,-5.0,-184.0,-12.0,53.0,-5.0,1
-191.0,-4.0,-184.0,-11.0,53.0,-3.0,1
-190.0,-5.0,-186.0,-11.0,53.0,-5.0,1
-194.0,-4.0,-185.0,-12.0,53.0,-2.0,1
-191.0,-4.0,-184.0,-12.0,53.0,-6.0,1
-190.0,-4.0,-184.0,-12.0,54.0,-4.0,1
-192.0,-5.0,-188.0,-12.0,55.0,-6.0,1
-190.0,-4.0,-185.0,-12.0,56.0,-3.0,1
-194.0,-4.0,-185.0,-15.0,55.0,-3.0,1
-191.0,-4.0,-186.0,-13.0,55.0,0.0,1
-188.0,-4.0,-183.0,-14.0,53.0,-3.0,1
-190.0,-4.0,-184.0,-14.0,53.0,-2.0,1
-193.0,-3.0,-186.0,-13.0,52.0,-5.0,1
-191.0,-3.0,-184.0,-13.0,52.0,-3.0,1
-190.0,-4.0,-185.0,-12.0,53.0,-7.0,1
-193.0,-4.0,-182.0,-9.0,56.0,-4.0,1
-190.0,-3.0,-184.0,-8.0,56.0,-7.0,1
-192.0,-3.0,-186.0,-9.0,58.0,-4.0,1
-193.0,-3.0,-184.0,-8.0,59.0,-7.0,1
-191.0,-4.0,-186.0,-9.0,57.0,-4.0,1
-190.0,-4.0,-182.0,-10.0,57.0,-6.0,1
-190.0,-3.0,-185.0,-12.0,57.0,-2.0,1
-191.0,-3.0,-189.0,-13.0,55.0,-2.0,1
-190.0,-3.0,-181.0,-15.0,56.0,0.0,1
-189.0,-4.0,-184.0,-16.0,55.0,-2.0,1
-190.0,-4.0,-184.0,-16.0,56.0,1.0,1
-192.0,-2.0,-184.0,-16.0,61.0,-2.0,1
-191.0,-3.0,-186.0,-16.0,63.0,-1.0,1
-190.0,-3.0,-184.0,-16.0,67.0,-4.0,1
-191.0,-4.0,-184.0,-13.0,71.0,-3.0,1
-190.0,-6.0,-184.0,-12.0,71.0,-5.0,1
-191.0,-3.0,-183.0,-10.0,73.0,-3.0,1
-189.0,-4.0,-185.0,-10.0,73.0,-6.0,1
-190.0,-2.0,-187.0,-10.0,73.0,-3.0,1
-189.0,-4.0,-185.0,-10.0,72.0,-6.0,1
-190.0,-4.0,-185.0,-12.0,70.0,-2.0,1
-187.0,-4.0,-184.0,-14.0,69.0,-4.0,1
-190.0,-2.0,-190.0,-13.0,68.0,-2.0,1
-190.0,-4.0,-184.0,-15.0,66.0,-3.0,1
-192.0,-2.0,-185.0,-15.0,64.0,-1.0,1
-191.0,-4.0,-185.0,-15.0,60.0,-2.0,1
-190.0,-4.0,-188.0,-15.0,59.0,-2.0,1
-190.0,-4.0,-182.0,-14.0,58.0,-3.0,1
-192.0,-3.0,-185.0,-12.0,56.0,-1.0,1
-190.0,-3.0,-185.0,-12.0,54.0,-4.0,1
-190.0,-3.0,-185.0,-10.0,56.0,-3.0,1
-192.0,-4.0,-187.0,-9.0,54.0,-6.0,1
-189.0,-4.0,-186.0,-7.0,54.0,-5.0,1
-190.0,-4.0,-188.0,-7.0,53.0,-6.0,1
-187.0,-5.0,-184.0,-5.0,55.0,-6.0,1
-193.0,-3.0,-185.0,-7.0,55.0,-6.0,1
-191.0,-3.0,-185.0,-6.0,55.0,-5.0,1
-191.0,-4.0,-183.0,-6.0,55.0,-8.0,1
-192.0,-3.0,-181.0,-7.0,55.0,-6.0,1
-190.0,-2.0,-184.0,-7.0,55.0,-7.0,1
-190.0,-3.0,-185.0,-7.0,56.0,-6.0,1
-191.0,-4.0,-184.0,-8.0,56.0,-7.0,1
-189.0,-1.0,-185.0,-9.0,56.0,-4.0,1
-191.0,-4.0,-185.0,-10.0,56.0,-4.0,1
-192.0,-6.0,-185.0,-11.0,54.0,-4.0,1
-192.0,-4.0,-185.0,-11.0,53.0,-4.0,1
-192.0,-5.0,-183.0,-10.0,55.0,-3.0,1
-191.0,-4.0,-185.0,-10.0,55.0,-5.0,1
-190.0,-3.0,-186.0,-10.0,54.0,-3.0,1
-190.0,-3.0,-186.0,-9.0,54.0,-5.0,1
-191.0,-3.0,-185.0,-9.0,55.0,-4.0,1
-193.0,-4.0,-185.0,-8.0,54.0,-6.0,1
-190.0,-4.0,-184.0,-7.0,54.0,-5.0,1
-188.0,-5.0,-184.0,-9.0,54.0,-6.0,1
-191.0,-4.0,-184.0,-8.0,54.0,-5.0,1
-192.0,-3.0,-185.0,-8.0,53.0,-5.0,1
-192.0,-4.0,-183.0,-10.0,52.0,-4.0,1
-192.0,-2.0,-184.0,-10.0,53.0,-6.0,1
-192.0,-4.0,-185.0,-10.0,55.0,-4.0,1
-192.0,-4.0,-185.0,-11.0,56.0,-5.0,1
-189.0,-4.0,-184.0,-11.0,56.0,-5.0,1
-190.0,-4.0,-182.0,-11.0,54.0,-6.0,1
-188.0,-4.0,-185.0,-9.0,55.0,-5.0,1
-190.0,-2.0,-188.0,-9.0,54.0,-5.0,1
-191.0,-4.0,-186.0,-7.0,54.0,-7.0,1
-190.0,-3.0,-186.0,-7.0,54.0,-7.0,1
-191.0,-4.0,-186.0,-8.0,54.0,-7.0,1
-189.0,-3.0,-185.0,-7.0,56.0,-6.0,1
-189.0,-4.0,-185.0,-7.0,57.0,-5.0,1
-189.0,-4.0,-183.0,-9.0,58.0,-5.0,1
-192.0,-4.0,-184.0,-9.0,59.0,-6.0,1
-192.0,-4.0,-185.0,-11.0,59.0,-3.0,1
-192.0,-5.0,-183.0,-11.0,59.0,-3.0,1
-192.0,-4.0,-184.0,-11.0,60.0,-3.0,1
-192.0,-4.0,-182.0,-12.0,60.0,-3.0,1
-192.0,-3.0,-184.0,-14.0,62.0,-3.0,1
-192.0,-5.0,-186.0,-14.0,62.0,-3.0,1
-191.0,-4.0,-183.0,-14.0,62.0,-1.0,1
-190.0,-4.0,-185.0,-13.0,61.0,-3.0,1
-193.0,-3.0,-188.0,-13.0,61.0,-3.0,1
-192.0,-4.0,-184.0,-13.0,62.0,-3.0,1
-192.0,-2.0,-183.0,-13.0,61.0,-3.0,1
-193.0,-4.0,-187.0,-12.0,60.0,-5.0,1
-190.0,-4.0,-185.0,-11.0,58.0,-4.0,1
-193.0,-4.0,-187.0,-12.0,59.0,-4.0,1
-192.0,-6.0,-184.0,-11.0,60.0,-3.0,1
-190.0,-4.0,-184.0,-12.0,58.0,-5.0,1
-191.0,-4.0,-185.0,-12.0,58.0,-4.0,1
-190.0,-4.0,-181.0,-12.0,58.0,-3.0,1
-189.0,-4.0,-184.0,-11.0,58.0,-2.0,1
-191.0,-4.0,-184.0,-12.0,57.0,-3.0,1
-191.0,-4.0,-185.0,-12.0,58.0,-1.0,1
-192.0,-5.0,-184.0,-13.0,58.0,-4.0,1
-191.0,-4.0,-183.0,-14.0,59.0,-2.0,1
-190.0,-5.0,-189.0,-13.0,58.0,-3.0,1
-191.0,-4.0,-186.0,-13.0,56.0,-3.0,1
-193.0,-3.0,-186.0,-12.0,57.0,-3.0,1
-191.0,-4.0,-186.0,-13.0,57.0,-2.0,1
-191.0,-6.0,-185.0,-13.0,56.0,-4.0,1
-191.0,-4.0,-184.0,-12.0,56.0,-3.0,1
-191.0,-3.0,-186.0,-10.0,56.0,-5.0,1
-191.0,-4.0,-185.0,-11.0,55.0,-2.0,1
-190.0,-5.0,-187.0,-13.0,53.0,-5.0,1
-193.0,-5.0,-185.0,-12.0,52.0,-1.0,1
-189.0,-4.0,-185.0,-13.0,54.0,-3.0,1
-191.0,-4.0,-183.0,-12.0,55.0,-1.0,1
-189.0,-4.0,-184.0,-13.0,56.0,-3.0,1
-192.0,-4.0,-186.0,-11.0,55.0,-3.0,1
-193.0,-4.0,-184.0,-11.0,56.0,-3.0,1
-190.0,-4.0,-184.0,-10.0,56.0,1.0,1
-189.0,-4.0,-184.0,-9.0,56.0,0.0,1
-191.0,-4.0,-184.0,-8.0,56.0,5.0,1
-193.0,-2.0,-183.0,-12.0,55.0,-1.0,1
-190.0,-4.0,-186.0,-10.0,54.0,-1.0,1
-193.0,-4.0,-184.0,-13.0,54.0,-4.0,1
-193.0,-4.0,-186.0,-10.0,53.0,-2.0,1
-192.0,-4.0,-183.0,-10.0,55.0,-5.0,1
-192.0,-3.0,-185.0,-11.0,56.0,-3.0,1
-188.0,-4.0,-185.0,-10.0,55.0,-5.0,1
-191.0,-4.0,-184.0,-12.0,57.0,-1.0,1
-194.0,-2.0,-180.0,-12.0,55.0,-4.0,1
-191.0,-4.0,-185.0,-13.0,57.0,-1.0,1
-189.0,-6.0,-184.0,-13.0,56.0,-5.0,1
-193.0,-3.0,-185.0,-13.0,55.0,-2.0,1
-195.0,-3.0,-186.0,-11.0,57.0,-5.0,1
-191.0,-3.0,-184.0,-12.0,57.0,-2.0,1
-190.0,-3.0,-185.0,-11.0,56.0,-5.0,1
-190.0,-4.0,-184.0,-12.0,57.0,-3.0,1
-192.0,-2.0,-186.0,-11.0,57.0,-5.0,1
-193.0,-4.0,-185.0,-12.0,56.0,-3.0,1
-193.0,-4.0,-184.0,-12.0,57.0,-5.0,1
-191.0,-4.0,-184.0,-12.0,56.0,-3.0,1
-195.0,-2.0,-184.0,-12.0,58.0,-3.0,1
-194.0,-2.0,-185.0,-13.0,57.0,-4.0,1
-191.0,-4.0,-185.0,-12.0,56.0,-4.0,1
-191.0,-4.0,-185.0,-11.0,54.0,-1.0,1
-190.0,-6.0,-186.0,-13.0,54.0,-4.0,1
-194.0,-4.0,-184.0,-14.0,56.0,-2.0,1
-194.0,-3.0,-183.0,-14.0,55.0,-4.0,1
-193.0,-4.0,-186.0,-12.0,55.0,-2.0,1
-192.0,-3.0,-185.0,-14.0,56.0,-4.0,1
-190.0,-3.0,-188.0,-15.0,55.0,0.0,1
-190.0,-3.0,-178.0,-14.0,55.0,-3.0,1
-190.0,-5.0,-185.0,-13.0,55.0,-2.0,1
-192.0,-3.0,-183.0,-13.0,54.0,-3.0,1
-190.0,-4.0,-185.0,-14.0,55.0,-1.0,1
-192.0,-3.0,-186.0,-12.0,53.0,-4.0,1
-193.0,-4.0,-183.0,-12.0,54.0,-3.0,1
-192.0,-4.0,-184.0,-12.0,54.0,-4.0,1
-194.0,-4.0,-185.0,-13.0,55.0,-2.0,1
-189.0,-3.0,-187.0,-13.0,55.0,-4.0,1
-196.0,-4.0,-186.0,-14.0,56.0,-2.0,1
-191.0,-3.0,-186.0,-14.0,57.0,-5.0,1
-190.0,-4.0,-185.0,-14.0,57.0,-1.0,1
-191.0,-6.0,-184.0,-13.0,56.0,-5.0,1
-191.0,-5.0,-182.0,-13.0,57.0,-2.0,1
-191.0,-3.0,-187.0,-14.0,58.0,-5.0,1
-193.0,-3.0,-184.0,-14.0,58.0,-3.0,1
-192.0,-4.0,-185.0,-14.0,58.0,-3.0,1
-190.0,-4.0,-185.0,-14.0,59.0,0.0,1
-189.0,-4.0,-184.0,-14.0,59.0,-2.0,1
-191.0,-4.0,-185.0,-14.0,58.0,0.0,1
-191.0,-4.0,-183.0,-16.0,57.0,-1.0,1
-191.0,-4.0,-183.0,-16.0,58.0,1.0,1
-192.0,-4.0,-185.0,-16.0,57.0,-3.0,1
-191.0,-4.0,-184.0,-15.0,57.0,-3.0,1
-194.0,-4.0,-186.0,-13.0,59.0,-4.0,1
-193.0,-4.0,-185.0,-13.0,61.0,-4.0,1
-195.0,-3.0,-183.0,-12.0,64.0,-5.0,1
-193.0,-4.0,-186.0,-10.0,65.0,-3.0,1
-191.0,-5.0,-185.0,-11.0,64.0,-5.0,1
-193.0,-4.0,-184.0,-12.0,65.0,-2.0,1
-188.0,-5.0,-186.0,-13.0,64.0,-2.0,1
-190.0,-6.0,-186.0,-13.0,62.0,0.0,1
-191.0,-4.0,-182.0,-15.0,61.0,-1.0,1
-191.0,-4.0,-184.0,-17.0,62.0,1.0,1
-192.0,-3.0,-184.0,-18.0,61.0,1.0,1
-192.0,-4.0,-186.0,-18.0,64.0,1.0,1
-192.0,-3.0,-184.0,-15.0,66.0,1.0,1
-197.0,-2.0,-183.0,-14.0,70.0,1.0,1
-187.0,-4.0,-185.0,-14.0,72.0,0.0,1
-189.0,-6.0,-184.0,-16.0,76.0,1.0,1
-194.0,-4.0,-183.0,-15.0,79.0,-2.0,1
-191.0,-4.0,-184.0,-14.0,81.0,-1.0,1
-191.0,-3.0,-187.0,-13.0,81.0,-3.0,1
-189.0,-4.0,-182.0,-15.0,82.0,-2.0,1
-193.0,-2.0,-186.0,-15.0,81.0,-2.0,1
-192.0,-4.0,-182.0,-15.0,80.0,-2.0,1
-192.0,-4.0,-185.0,-15.0,78.0,-4.0,1
-191.0,-3.0,-183.0,-17.0,77.0,-2.0,1
-192.0,-4.0,-188.0,-18.0,75.0,-3.0,1
-194.0,-3.0,-184.0,-16.0,72.0,0.0,1
-193.0,-3.0,-185.0,-17.0,69.0,-2.0,1
-196.0,-2.0,-185.0,-15.0,67.0,-1.0,1
-190.0,-4.0,-183.0,-13.0,64.0,-3.0,1
-191.0,-4.0,-186.0,-11.0,62.0,-2.0,1
-192.0,-3.0,-185.0,-11.0,60.0,-4.0,1
-193.0,-4.0,-184.0,-10.0,59.0,-4.0,1
-192.0,-4.0,-186.0,-8.0,58.0,-5.0,1
-192.0,-4.0,-184.0,-9.0,58.0,-6.0,1
-194.0,-2.0,-188.0,-8.0,58.0,-7.0,1
-192.0,-3.0,-185.0,-7.0,58.0,-5.0,1
-192.0,-4.0,-184.0,-8.0,58.0,-6.0,1
-193.0,-3.0,-185.0,-9.0,59.0,-5.0,1
-190.0,-6.0,-184.0,-10.0,59.0,-4.0,1
-193.0,-2.0,-185.0,-11.0,60.0,-3.0,1
-191.0,-5.0,-186.0,-12.0,59.0,-3.0,1
-188.0,-4.0,-186.0,-11.0,58.0,-3.0,1
-190.0,-4.0,-182.0,-13.0,59.0,-4.0,1
-192.0,-4.0,-185.0,-12.0,59.0,-4.0,1
-192.0,-3.0,-187.0,-12.0,56.0,-3.0,1
-190.0,-3.0,-184.0,-11.0,57.0,-4.0,1
-191.0,-4.0,-184.0,-11.0,56.0,-4.0,1
-190.0,-4.0,-185.0,-9.0,56.0,-4.0,1
-192.0,-4.0,-184.0,-11.0,55.0,-3.0,1
-191.0,-3.0,-186.0,-10.0,56.0,-4.0,1
-189.0,-4.0,-183.0,-11.0,56.0,-3.0,1
-195.0,-4.0,-184.0,-12.0,55.0,-3.0,1
-192.0,-4.0,-184.0,-9.0,55.0,-3.0,1
-192.0,-3.0,-184.0,-11.0,54.0,-4.0,1
-194.0,-4.0,-185.0,-11.0,54.0,-3.0,1
-193.0,-4.0,-186.0,-12.0,52.0,-3.0,1
-190.0,-6.0,-183.0,-13.0,53.0,-2.0,1
-194.0,-2.0,-182.0,-13.0,52.0,-3.0,1
-193.0,-3.0,-185.0,-14.0,53.0,-1.0,1
-191.0,-4.0,-182.0,-15.0,51.0,-2.0,1
-191.0,-6.0,-185.0,-15.0,50.0,-3.0,1
-191.0,-2.0,-187.0,-14.0,50.0,-3.0,1
-191.0,-4.0,-187.0,-14.0,49.0,-2.0,1
-190.0,-5.0,-181.0,-15.0,49.0,-2.0,1
-191.0,-3.0,-184.0,-14.0,49.0,-2.0,1
-191.0,-4.0,-184.0,-13.0,49.0,-4.0,1
-193.0,-4.0,-185.0,-12.0,51.0,-4.0,1
-192.0,-3.0,-183.0,-11.0,53.0,-5.0,1
-191.0,-3.0,-181.0,-10.0,55.0,-2.0,1
-194.0,-4.0,-182.0,-11.0,56.0,-3.0,1
-191.0,-3.0,-184.0,-13.0,58.0,-2.0,1
-191.0,-3.0,-182.0,-14.0,58.0,-3.0,1
-191.0,-4.0,-184.0,-15.0,60.0,1.0,1
-190.0,-4.0,-184.0,-15.0,62.0,-1.0,1
-192.0,-4.0,-184.0,-17.0,63.0,0.0,1
-188.0,-3.0,-182.0,-17.0,65.0,-1.0,1
-191.0,-4.0,-184.0,-16.0,67.0,1.0,1
-192.0,-4.0,-186.0,-17.0,67.0,-1.0,1
-192.0,-4.0,-185.0,-17.0,68.0,0.0,1
-191.0,-3.0,-184.0,-17.0,68.0,-3.0,1
-189.0,-4.0,-183.0,-15.0,69.0,-2.0,1
-190.0,-4.0,-186.0,-15.0,68.0,-3.0,1
-194.0,-4.0,-182.0,-14.0,66.0,-2.0,1
-194.0,-2.0,-185.0,-15.0,67.0,-1.0,1
-193.0,-3.0,-185.0,-16.0,66.0,0.0,1
-188.0,-4.0,-184.0,-16.0,65.0,-2.0,1
-193.0,-4.0,-187.0,-16.0,65.0,0.0,1
-193.0,-4.0,-184.0,-16.0,64.0,-1.0,1
-194.0,-4.0,-184.0,-16.0,63.0,1.0,1
-194.0,-5.0,-184.0,-17.0,64.0,-1.0,1
-192.0,-4.0,-185.0,-16.0,65.0,3.0,1
-194.0,-4.0,-184.0,-18.0,66.0,0.0,1
-192.0,-4.0,-183.0,-17.0,66.0,1.0,1
-190.0,-4.0,-184.0,-15.0,65.0,-1.0,1
-192.0,-4.0,-183.0,-16.0,63.0,0.0,1
-194.0,-4.0,-182.0,-16.0,63.0,-2.0,1
-192.0,-3.0,-185.0,-15.0,65.0,1.0,1
-192.0,-4.0,-183.0,-16.0,65.0,-1.0,1
-192.0,-1.0,-184.0,-17.0,65.0,1.0,1
-190.0,-4.0,-184.0,-16.0,65.0,-2.0,1
-191.0,-3.0,-186.0,-14.0,64.0,-1.0,1
-193.0,-4.0,-184.0,-14.0,67.0,-3.0,1
-190.0,-3.0,-184.0,-13.0,66.0,-2.0,1
-193.0,-4.0,-184.0,-13.0,66.0,-3.0,1
-193.0,-4.0,-186.0,-15.0,69.0,0.0,1
-194.0,-4.0,-184.0,-15.0,69.0,-3.0,1
-189.0,-4.0,-183.0,-14.0,71.0,-1.0,1
-192.0,-3.0,-186.0,-14.0,70.0,-3.0,1
-193.0,-3.0,-186.0,-13.0,71.0,-2.0,1
-192.0,-4.0,-183.0,-14.0,70.0,-3.0,1
-190.0,-4.0,-185.0,-14.0,69.0,-2.0,1
-191.0,-4.0,-185.0,-16.0,69.0,-4.0,1
-193.0,-4.0,-186.0,-17.0,67.0,0.0,1
-190.0,-4.0,-185.0,-16.0,67.0,-1.0,1
-194.0,-3.0,-183.0,-16.0,67.0,1.0,1
-190.0,-6.0,-183.0,-18.0,66.0,-2.0,1
-193.0,-2.0,-185.0,-17.0,67.0,0.0,1
-191.0,-4.0,-186.0,-16.0,66.0,-2.0,1
-191.0,-4.0,-183.0,-15.0,67.0,0.0,1
-194.0,-4.0,-186.0,-15.0,67.0,-2.0,1
-192.0,-4.0,-185.0,-14.0,66.0,-1.0,1
-191.0,-3.0,-183.0,-14.0,68.0,-3.0,1
-192.0,-4.0,-184.0,-15.0,69.0,-1.0,1
-192.0,-4.0,-183.0,-15.0,67.0,-3.0,1
-190.0,-3.0,-184.0,-14.0,68.0,-1.0,1
-192.0,-6.0,-185.0,-14.0,69.0,-3.0,1
-192.0,-4.0,-185.0,-15.0,70.0,0.0,1
-189.0,-5.0,-186.0,-17.0,71.0,-2.0,1
-191.0,-3.0,-185.0,-16.0,72.0,0.0,1
-191.0,-4.0,-183.0,-16.0,73.0,-3.0,1
-191.0,-4.0,-184.0,-15.0,73.0,-1.0,1
-190.0,-3.0,-185.0,-15.0,73.0,-2.0,1
-192.0,-3.0,-182.0,-14.0,75.0,0.0,1
-190.0,-4.0,-185.0,-13.0,75.0,-2.0,1
-192.0,-4.0,-182.0,-12.0,76.0,-1.0,1
-192.0,-4.0,-184.0,-14.0,76.0,-3.0,1
-189.0,-4.0,-183.0,-12.0,77.0,-2.0,1
-190.0,-6.0,-185.0,-13.0,79.0,-5.0,1
-192.0,-3.0,-186.0,-13.0,80.0,-2.0,1
-190.0,-4.0,-182.0,-12.0,78.0,-6.0,1
-190.0,-4.0,-186.0,-12.0,79.0,-2.0,1
-189.0,-4.0,-185.0,-14.0,78.0,-4.0,1
-190.0,-4.0,-186.0,-13.0,77.0,-2.0,1
-190.0,-4.0,-186.0,-14.0,76.0,-2.0,1
-191.0,-4.0,-185.0,-16.0,76.0,0.0,1
-193.0,-4.0,-186.0,-18.0,74.0,-1.0,1
-191.0,-3.0,-185.0,-18.0,71.0,1.0,1
-189.0,-4.0,-185.0,-18.0,70.0,0.0,1
-191.0,-3.0,-183.0,-21.0,68.0,3.0,1
-193.0,-5.0,-184.0,-20.0,67.0,1.0,1
-191.0,-6.0,-184.0,-22.0,67.0,3.0,1
-189.0,-4.0,-185.0,-23.0,66.0,2.0,1
-193.0,-4.0,-187.0,-23.0,64.0,4.0,1
-192.0,-4.0,-183.0,-22.0,65.0,2.0,1
-189.0,-3.0,-182.0,-21.0,64.0,4.0,1
-193.0,-4.0,-184.0,-21.0,64.0,1.0,1
-191.0,-4.0,-187.0,-20.0,64.0,2.0,1
-194.0,-3.0,-184.0,-19.0,64.0,0.0,1
-191.0,-3.0,-185.0,-20.0,64.0,3.0,1
-192.0,-3.0,-186.0,-19.0,65.0,1.0,1
-192.0,-3.0,-185.0,-19.0,66.0,2.0,1
-190.0,-4.0,-185.0,-19.0,67.0,1.0,1
-191.0,-4.0,-187.0,-19.0,68.0,3.0,1
-192.0,-4.0,-183.0,-21.0,66.0,2.0,1
-192.0,-3.0,-187.0,-21.0,68.0,3.0,1
-191.0,-4.0,-184.0,-21.0,67.0,3.0,1
-191.0,-4.0,-188.0,-21.0,67.0,5.0,1
-192.0,-4.0,-182.0,-23.0,67.0,5.0,1
-191.0,-2.0,-185.0,-22.0,67.0,5.0,1
-192.0,-4.0,-186.0,-23.0,68.0,4.0,1
-189.0,-3.0,-184.0,-24.0,68.0,6.0,1
-190.0,-3.0,-184.0,-24.0,66.0,6.0,1
-191.0,-4.0,-185.0,-26.0,65.0,6.0,1
-191.0,-4.0,-184.0,-26.0,65.0,5.0,1
-192.0,-3.0,-184.0,-24.0,68.0,5.0,1
-192.0,-4.0,-187.0,-22.0,68.0,3.0,1
-191.0,-3.0,-186.0,-22.0,69.0,4.0,1
-192.0,-3.0,-186.0,-20.0,71.0,0.0,1
-193.0,-3.0,-185.0,-17.0,72.0,1.0,1
-192.0,-4.0,-184.0,-15.0,73.0,-1.0,1
-191.0,-2.0,-182.0,-15.0,74.0,0.0,1
-195.0,-2.0,-187.0,-13.0,72.0,0.0,1
-189.0,-4.0,-184.0,-15.0,69.0,1.0,1
-188.0,-3.0,-187.0,-17.0,67.0,3.0,1
-187.0,-4.0,-184.0,-19.0,66.0,4.0,1
-187.0,-2.0,-182.0,-22.0,65.0,4.0,1
-188.0,-4.0,-181.0,-24.0,64.0,4.0,1
-188.0,-4.0,-180.0,-26.0,66.0,7.0,1
-192.0,-4.0,-185.0,-28.0,70.0,7.0,1
-191.0,-2.0,-184.0,-29.0,74.0,5.0,1
-193.0,-3.0,-184.0,-29.0,79.0,7.0,1
-192.0,-5.0,-182.0,-27.0,86.0,7.0,1
-191.0,-3.0,-185.0,-26.0,90.0,5.0,1
-190.0,-2.0,-186.0,-25.0,94.0,5.0,1
-191.0,-3.0,-185.0,-23.0,96.0,4.0,1
-190.0,-1.0,-187.0,-22.0,98.0,5.0,1
-191.0,-2.0,-188.0,-23.0,99.0,5.0,1
-190.0,-4.0,-184.0,-23.0,100.0,5.0,1
-192.0,-3.0,-184.0,-24.0,99.0,4.0,1
-189.0,-3.0,-186.0,-25.0,97.0,5.0,1
-188.0,-3.0,-185.0,-24.0,96.0,4.0,1
-190.0,-4.0,-184.0,-26.0,93.0,5.0,1
-191.0,-2.0,-187.0,-26.0,90.0,6.0,1
-189.0,-4.0,-188.0,-26.0,88.0,7.0,1
-190.0,-4.0,-187.0,-26.0,84.0,6.0,1
-191.0,1.0,-190.0,-25.0,81.0,7.0,1
-189.0,-3.0,-188.0,-25.0,80.0,6.0,1
-183.0,-4.0,-191.0,-25.0,76.0,6.0,1
-192.0,-1.0,-184.0,-23.0,73.0,4.0,1
-192.0,-3.0,-184.0,-20.0,70.0,5.0,1
-190.0,3.0,-189.0,-17.0,67.0,1.0,1
-190.0,-3.0,-182.0,-16.0,66.0,2.0,1
-190.0,-4.0,-188.0,-17.0,66.0,-1.0,1
-192.0,-1.0,-187.0,-16.0,63.0,1.0,1
-189.0,-4.0,-186.0,-16.0,64.0,1.0,1
-188.0,-3.0,-184.0,-16.0,64.0,2.0,1
-190.0,-3.0,-185.0,-17.0,65.0,1.0,1
-190.0,-4.0,-183.0,-20.0,65.0,3.0,1
-191.0,-4.0,-188.0,-20.0,65.0,2.0,1
-191.0,-4.0,-184.0,-22.0,68.0,5.0,1
-189.0,-3.0,-184.0,-21.0,69.0,4.0,1
-191.0,-2.0,-185.0,-23.0,70.0,6.0,1
-192.0,-3.0,-185.0,-23.0,70.0,5.0,1
-188.0,-3.0,-185.0,-22.0,71.0,6.0,1
-189.0,-3.0,-188.0,-23.0,72.0,3.0,1
-189.0,-3.0,-188.0,-21.0,70.0,5.0,1
-190.0,-2.0,-187.0,-20.0,70.0,4.0,1
-189.0,-4.0,-186.0,-20.0,69.0,4.0,1
-189.0,-3.0,-186.0,-18.0,68.0,1.0,1
-191.0,-2.0,-187.0,-19.0,68.0,3.0,1
-191.0,-2.0,-186.0,-19.0,70.0,1.0,1
-190.0,-2.0,-188.0,-16.0,69.0,2.0,1
-190.0,-2.0,-187.0,-16.0,69.0,-1.0,1
-192.0,-3.0,-184.0,-15.0,70.0,0.0,1
-188.0,-3.0,-187.0,-15.0,71.0,-2.0,1
-191.0,-1.0,-186.0,-16.0,69.0,0.0,1
-190.0,-4.0,-187.0,-16.0,69.0,-1.0,1
-188.0,-4.0,-188.0,-16.0,69.0,0.0,1
-190.0,-1.0,-188.0,-15.0,67.0,-1.0,1
-191.0,-3.0,-183.0,-17.0,69.0,1.0,1
-191.0,-3.0,-187.0,-15.0,69.0,-1.0,1
-191.0,-3.0,-186.0,-15.0,68.0,0.0,1
-188.0,-4.0,-185.0,-15.0,69.0,-3.0,1
-190.0,-2.0,-184.0,-15.0,69.0,0.0,1
-191.0,-3.0,-188.0,-16.0,69.0,-2.0,1
-188.0,-2.0,-183.0,-14.0,72.0,0.0,1
-188.0,-3.0,-185.0,-16.0,71.0,-3.0,1
-190.0,-4.0,-188.0,-17.0,71.0,0.0,1
-188.0,-4.0,-185.0,-17.0,70.0,-2.0,1
-191.0,-2.0,-188.0,-18.0,70.0,1.0,1
-189.0,-3.0,-185.0,-18.0,71.0,-1.0,1
-190.0,-3.0,-187.0,-20.0,71.0,2.0,1
-187.0,-3.0,-186.0,-21.0,73.0,-1.0,1
-189.0,-4.0,-188.0,-19.0,73.0,2.0,1
-189.0,-3.0,-188.0,-20.0,72.0,1.0,1
-190.0,-4.0,-185.0,-21.0,72.0,2.0,1
-191.0,-4.0,-183.0,-20.0,71.0,0.0,1
-189.0,-1.0,-184.0,-20.0,71.0,2.0,1
-189.0,-3.0,-187.0,-20.0,70.0,0.0,1
-192.0,-4.0,-187.0,-21.0,68.0,1.0,1
-190.0,-4.0,-187.0,-20.0,67.0,-1.0,1
-190.0,-4.0,-186.0,-20.0,66.0,2.0,1
-190.0,-4.0,-185.0,-19.0,64.0,0.0,1
-190.0,-2.0,-187.0,-19.0,62.0,3.0,1
-191.0,-4.0,-187.0,-19.0,62.0,0.0,1
-190.0,-3.0,-186.0,-20.0,62.0,3.0,1
-189.0,-4.0,-185.0,-21.0,61.0,1.0,1
-188.0,-4.0,-187.0,-21.0,59.0,4.0,1
-190.0,-3.0,-187.0,-21.0,58.0,2.0,1
-190.0,-3.0,-186.0,-23.0,58.0,6.0,1
-190.0,-2.0,-186.0,-22.0,57.0,3.0,1
-190.0,-3.0,-188.0,-24.0,56.0,5.0,1
-191.0,-2.0,-186.0,-24.0,55.0,3.0,1
-189.0,-1.0,-187.0,-23.0,54.0,6.0,1
-191.0,-1.0,-185.0,-23.0,54.0,3.0,1
-188.0,-4.0,-187.0,-23.0,54.0,6.0,1
-190.0,-2.0,-185.0,-22.0,52.0,3.0,1
-189.0,-2.0,-187.0,-23.0,51.0,4.0,1
-189.0,-2.0,-186.0,-23.0,51.0,2.0,1
-188.0,-2.0,-185.0,-22.0,49.0,3.0,1
-189.0,-4.0,-184.0,-23.0,52.0,2.0,1
-189.0,-3.0,-186.0,-23.0,51.0,5.0,1
-188.0,-3.0,-187.0,-23.0,53.0,2.0,1
-189.0,-3.0,-188.0,-20.0,51.0,4.0,1
-190.0,-3.0,-186.0,-19.0,53.0,0.0,1
-188.0,-2.0,-184.0,-17.0,52.0,2.0,1
-192.0,-2.0,-185.0,-16.0,56.0,-2.0,1
-188.0,-1.0,-187.0,-16.0,57.0,0.0,1
-190.0,-2.0,-186.0,-15.0,59.0,-3.0,1
-188.0,-3.0,-185.0,-13.0,60.0,-2.0,1
-188.0,-4.0,-185.0,-12.0,62.0,-4.0,1
-193.0,3.0,-186.0,-13.0,62.0,-2.0,1
-188.0,-3.0,-187.0,-12.0,62.0,-5.0,1
-190.0,-2.0,-184.0,-12.0,63.0,-4.0,1
-188.0,-2.0,-185.0,-12.0,63.0,-5.0,1
-190.0,-3.0,-184.0,-11.0,63.0,-3.0,1
-190.0,-4.0,-184.0,-12.0,63.0,-4.0,1
-189.0,-3.0,-188.0,-12.0,63.0,-4.0,1
-188.0,-3.0,-187.0,-11.0,62.0,-4.0,1
-189.0,-3.0,-188.0,-11.0,61.0,-2.0,1
-190.0,-3.0,-186.0,-12.0,61.0,-5.0,1
-190.0,-4.0,-186.0,-13.0,60.0,-2.0,1
-190.0,-2.0,-189.0,-12.0,59.0,-3.0,1
-191.0,-2.0,-186.0,-14.0,59.0,-2.0,1
-190.0,-1.0,-186.0,-13.0,57.0,-3.0,1
-190.0,-4.0,-187.0,-14.0,56.0,-2.0,1
-189.0,-3.0,-185.0,-14.0,54.0,-2.0,1
-189.0,-1.0,-188.0,-14.0,54.0,-1.0,1
-190.0,-3.0,-187.0,-14.0,53.0,-1.0,1
-189.0,-3.0,-183.0,-16.0,55.0,-2.0,1
-189.0,-4.0,-185.0,-15.0,54.0,-3.0,1
-190.0,-4.0,-184.0,-14.0,54.0,-2.0,1
-190.0,-3.0,-186.0,-13.0,54.0,-3.0,1
-188.0,-4.0,-186.0,-13.0,55.0,-2.0,1
-190.0,-4.0,-184.0,-13.0,55.0,-4.0,1
-190.0,-3.0,-186.0,-11.0,57.0,-5.0,1
-188.0,-3.0,-184.0,-9.0,58.0,-4.0,1
-190.0,-3.0,-186.0,-9.0,57.0,-4.0,1
-191.0,-3.0,-186.0,-11.0,59.0,-6.0,1
-191.0,-4.0,-186.0,-11.0,59.0,-5.0,1
-191.0,-1.0,-187.0,-11.0,59.0,-5.0,1
-187.0,-4.0,-185.0,-13.0,58.0,-4.0,1
-191.0,-1.0,-187.0,-13.0,59.0,-4.0,1
-192.0,-3.0,-187.0,-12.0,58.0,-5.0,1
-189.0,-2.0,-186.0,-14.0,61.0,-4.0,1
-193.0,-3.0,-188.0,-12.0,61.0,-4.0,1
-188.0,-4.0,-186.0,-13.0,62.0,-3.0,1
-191.0,-2.0,-185.0,-14.0,59.0,-3.0,1
-188.0,-4.0,-183.0,-14.0,59.0,-3.0,1
-187.0,-3.0,-185.0,-14.0,57.0,-3.0,1
-193.0,-3.0,-186.0,-15.0,54.0,-2.0,1
-189.0,-3.0,-186.0,-17.0,55.0,-4.0,1
-189.0,-3.0,-183.0,-15.0,53.0,-3.0,1
-188.0,-2.0,-187.0,-15.0,51.0,-4.0,1
-191.0,-2.0,-187.0,-13.0,51.0,-4.0,1
-188.0,-3.0,-187.0,-12.0,50.0,-6.0,1
-192.0,-3.0,-188.0,-10.0,53.0,-6.0,1
-191.0,-3.0,-182.0,-9.0,54.0,-7.0,1
-192.0,-3.0,-185.0,-8.0,55.0,-6.0,1
-188.0,-3.0,-185.0,-7.0,55.0,-7.0,1
-189.0,-2.0,-187.0,-7.0,54.0,-6.0,1
-185.0,-4.0,-184.0,-9.0,53.0,-5.0,1
-189.0,-5.0,-185.0,-11.0,53.0,-4.0,1
-189.0,-3.0,-184.0,-13.0,52.0,-3.0,1
-190.0,-3.0,-184.0,-15.0,52.0,-1.0,1
-190.0,-2.0,-184.0,-18.0,52.0,-2.0,1
-190.0,-4.0,-183.0,-17.0,54.0,1.0,1
-189.0,-4.0,-186.0,-19.0,56.0,0.0,1
-193.0,-4.0,-184.0,-19.0,60.0,1.0,1
-189.0,-2.0,-185.0,-19.0,63.0,0.0,1
-190.0,-3.0,-185.0,-17.0,67.0,1.0,1
-190.0,-4.0,-184.0,-17.0,71.0,-1.0,1
-188.0,-2.0,-185.0,-15.0,74.0,-1.0,1
-190.0,0.0,-185.0,-15.0,80.0,-3.0,1
-190.0,-3.0,-186.0,-16.0,81.0,0.0,1
-189.0,-3.0,-188.0,-15.0,80.0,-3.0,1
-187.0,-3.0,-188.0,-15.0,81.0,-1.0,1
-188.0,0.0,-184.0,-16.0,80.0,-3.0,1
-191.0,-2.0,-183.0,-15.0,79.0,-1.0,1
-191.0,-4.0,-188.0,-15.0,78.0,-2.0,1
-192.0,-2.0,-188.0,-15.0,76.0,0.0,1
-188.0,-2.0,-183.0,-16.0,74.0,-1.0,1
-191.0,-1.0,-185.0,-16.0,72.0,0.0,1
-189.0,-2.0,-185.0,-16.0,68.0,-1.0,1
-190.0,-3.0,-187.0,-16.0,66.0,0.0,1
-190.0,-2.0,-190.0,-15.0,65.0,-3.0,1
-191.0,-2.0,-186.0,-13.0,65.0,-2.0,1
-193.0,-1.0,-189.0,-13.0,63.0,-3.0,1
-191.0,-2.0,-189.0,-12.0,60.0,-3.0,1
-190.0,-1.0,-186.0,-11.0,59.0,-3.0,1
-191.0,-3.0,-186.0,-10.0,60.0,-4.0,1
-190.0,-2.0,-189.0,-11.0,59.0,-6.0,1
-189.0,-3.0,-184.0,-10.0,59.0,-2.0,1
-193.0,-2.0,-186.0,-9.0,58.0,-4.0,1
-190.0,-3.0,-185.0,-9.0,56.0,-3.0,1
-191.0,-3.0,-188.0,-11.0,58.0,-6.0,1
-190.0,-2.0,-187.0,-10.0,57.0,-2.0,1
-187.0,-3.0,-188.0,-11.0,57.0,-5.0,1
-190.0,-3.0,-186.0,-12.0,56.0,-3.0,1
-190.0,-3.0,-185.0,-11.0,55.0,-4.0,1
-188.0,-2.0,-185.0,-12.0,54.0,-2.0,1
-188.0,-3.0,-184.0,-12.0,54.0,-5.0,1
-191.0,-3.0,-185.0,-12.0,53.0,-2.0,1
-190.0,-4.0,-186.0,-10.0,52.0,-6.0,1
-190.0,-4.0,-186.0,-10.0,52.0,-3.0,1
-191.0,-2.0,-186.0,-10.0,51.0,-5.0,1
-191.0,-4.0,-187.0,-8.0,52.0,-4.0,1
-190.0,-1.0,-185.0,-7.0,53.0,-7.0,1
-189.0,-4.0,-185.0,-7.0,54.0,-3.0,1
-190.0,0.0,-183.0,-8.0,53.0,-7.0,1
-190.0,-1.0,-187.0,-7.0,55.0,-5.0,1
-191.0,-3.0,-184.0,-8.0,54.0,-7.0,1
-189.0,-3.0,-186.0,-7.0,56.0,-5.0,1
-190.0,-3.0,-187.0,-7.0,57.0,-8.0,1
-190.0,0.0,-188.0,-8.0,57.0,-5.0,1
-188.0,-2.0,-182.0,-8.0,57.0,-8.0,1
-190.0,-6.0,-185.0,-7.0,57.0,-5.0,1
-190.0,-3.0,-188.0,-6.0,57.0,-9.0,1
-192.0,-2.0,-187.0,-7.0,57.0,-6.0,1
-191.0,-4.0,-185.0,-8.0,58.0,-8.0,1
-190.0,-4.0,-186.0,-8.0,56.0,-6.0,1
-191.0,-2.0,-186.0,-8.0,54.0,-9.0,1
-189.0,-3.0,-186.0,-7.0,55.0,-5.0,1
-191.0,-3.0,-187.0,-6.0,53.0,-7.0,1
-191.0,-4.0,-189.0,-8.0,53.0,-5.0,1
-189.0,-3.0,-187.0,-5.0,53.0,-8.0,1
-190.0,0.0,-186.0,-9.0,53.0,-5.0,1
-189.0,-4.0,-186.0,-9.0,52.0,-7.0,1
-192.0,-3.0,-185.0,-7.0,54.0,-5.0,1
-190.0,-2.0,-185.0,-7.0,56.0,-8.0,1
-188.0,-2.0,-186.0,-8.0,55.0,-6.0,1
-191.0,-4.0,-187.0,-8.0,57.0,-7.0,1
-189.0,-4.0,-186.0,-9.0,59.0,-5.0,1
-190.0,-3.0,-182.0,-9.0,60.0,-7.0,1
-186.0,-5.0,-185.0,-9.0,63.0,-4.0,1
-188.0,-3.0,-188.0,-9.0,62.0,-7.0,1
-191.0,-4.0,-185.0,-9.0,63.0,-5.0,1
-190.0,-2.0,-185.0,-7.0,64.0,-8.0,1
-191.0,-3.0,-188.0,-8.0,64.0,-6.0,1
-187.0,-3.0,-186.0,-8.0,63.0,-8.0,1
-187.0,-4.0,-184.0,-7.0,61.0,-6.0,1
-192.0,-3.0,-188.0,-8.0,61.0,-8.0,1
-190.0,-3.0,-188.0,-6.0,58.0,-5.0,1
-189.0,-4.0,-183.0,-6.0,57.0,-6.0,1
-192.0,4.0,-187.0,-8.0,56.0,-5.0,1
-191.0,-4.0,-187.0,-7.0,54.0,-8.0,1
-189.0,-3.0,-186.0,-8.0,52.0,-6.0,1
-191.0,-3.0,-186.0,-7.0,52.0,-7.0,1
-189.0,-4.0,-186.0,-7.0,50.0,-5.0,1
-192.0,-4.0,-187.0,-7.0,49.0,-7.0,1
-191.0,-3.0,-185.0,-8.0,48.0,-5.0,1
-191.0,-1.0,-184.0,-8.0,48.0,-7.0,1
-189.0,-4.0,-185.0,-9.0,47.0,-6.0,1
-194.0,-4.0,-189.0,-9.0,45.0,-7.0,1
-189.0,-2.0,-185.0,-8.0,43.0,-5.0,1
-189.0,0.0,-186.0,-7.0,42.0,-7.0,1
-190.0,-3.0,-186.0,-7.0,43.0,-5.0,1
-189.0,-3.0,-187.0,-7.0,43.0,-7.0,1
-188.0,-4.0,-184.0,-8.0,43.0,-6.0,1
-192.0,-3.0,-186.0,-7.0,42.0,-7.0,1
-189.0,-2.0,-185.0,-6.0,42.0,-5.0,1
-190.0,-3.0,-186.0,-7.0,44.0,-7.0,1
-192.0,-2.0,-188.0,-6.0,46.0,-5.0,1
-191.0,-3.0,-185.0,-7.0,47.0,-6.0,1
-194.0,-3.0,-183.0,-6.0,47.0,-5.0,1
-188.0,-4.0,-184.0,-7.0,47.0,-6.0,1
-193.0,-3.0,-188.0,-7.0,48.0,-5.0,1
-189.0,-4.0,-186.0,-7.0,50.0,-7.0,1
-191.0,-3.0,-185.0,-6.0,49.0,-7.0,1
-192.0,-3.0,-183.0,-7.0,48.0,-7.0,1
-191.0,-4.0,-185.0,-6.0,50.0,-6.0,1
-190.0,-1.0,-183.0,-5.0,51.0,-6.0,1
-189.0,-4.0,-187.0,-7.0,50.0,-5.0,1
-189.0,-3.0,-184.0,-7.0,51.0,-6.0,1
-191.0,-3.0,-186.0,-5.0,51.0,-6.0,1
-192.0,-2.0,-189.0,-6.0,50.0,-8.0,1
-191.0,-2.0,-186.0,-5.0,50.0,-7.0,1
-189.0,-2.0,-182.0,-6.0,50.0,-6.0,1
-191.0,-3.0,-183.0,-5.0,52.0,-6.0,1
-190.0,-3.0,-185.0,-6.0,52.0,-7.0,1
-192.0,-5.0,-184.0,-7.0,52.0,-7.0,1
-189.0,-3.0,-187.0,-7.0,51.0,-7.0,1
-191.0,-3.0,-185.0,-8.0,53.0,-7.0,1
-188.0,-3.0,-184.0,-7.0,53.0,-6.0,1
-189.0,-4.0,-185.0,-9.0,53.0,-5.0,1
-189.0,-2.0,-185.0,-9.0,54.0,-7.0,1
-191.0,-1.0,-185.0,-8.0,54.0,-8.0,1
-192.0,-3.0,-185.0,-7.0,55.0,-6.0,1
-189.0,-4.0,-186.0,-6.0,55.0,-7.0,1
-189.0,-3.0,-185.0,-6.0,56.0,-5.0,1
-190.0,-3.0,-185.0,-7.0,54.0,-5.0,1
-192.0,-3.0,-187.0,-6.0,54.0,-5.0,1
-192.0,0.0,-185.0,-9.0,54.0,-7.0,1
-190.0,-3.0,-186.0,-7.0,52.0,-7.0,1
-191.0,-3.0,-184.0,-7.0,53.0,-6.0,1
-193.0,-3.0,-188.0,-7.0,54.0,-6.0,1
-190.0,-4.0,-187.0,-7.0,52.0,-7.0,1
-186.0,-4.0,-184.0,-7.0,52.0,-5.0,1
-192.0,-4.0,-186.0,-7.0,52.0,-7.0,1
-190.0,-3.0,-185.0,-7.0,51.0,-5.0,1
-191.0,-5.0,-183.0,-8.0,50.0,-7.0,1
-191.0,-2.0,-187.0,-9.0,50.0,-6.0,1
-192.0,-2.0,-185.0,-9.0,51.0,-7.0,1
-191.0,-3.0,-185.0,-8.0,51.0,-6.0,1
-190.0,-4.0,-187.0,-9.0,52.0,-6.0,1
-191.0,-4.0,-186.0,-10.0,52.0,-4.0,1
-192.0,-4.0,-185.0,-9.0,53.0,-6.0,1
-190.0,-3.0,-186.0,-10.0,52.0,-4.0,1
-191.0,-4.0,-184.0,-9.0,53.0,-5.0,1
-192.0,-3.0,-185.0,-10.0,52.0,-3.0,1
-193.0,-3.0,-182.0,-10.0,53.0,-5.0,1
-192.0,-3.0,-185.0,-10.0,54.0,-4.0,1
-193.0,-4.0,-185.0,-11.0,54.0,-5.0,1
-191.0,-4.0,-184.0,-9.0,55.0,-4.0,1
-189.0,-3.0,-184.0,-10.0,54.0,-4.0,1
-191.0,-3.0,-184.0,-10.0,55.0,-2.0,1
-191.0,-4.0,-188.0,-11.0,54.0,-5.0,1
-190.0,-3.0,-184.0,-10.0,54.0,-4.0,1
-189.0,-3.0,-184.0,-10.0,55.0,-5.0,1
-192.0,-4.0,-185.0,-10.0,54.0,-4.0,1
-191.0,-6.0,-186.0,-11.0,54.0,-4.0,1
-187.0,-4.0,-186.0,-11.0,54.0,-3.0,1
-190.0,-4.0,-184.0,-10.0,53.0,-4.0,1
-188.0,-4.0,-184.0,-11.0,54.0,-4.0,1
-193.0,-4.0,-185.0,-11.0,52.0,-5.0,1
-192.0,-2.0,-182.0,-10.0,50.0,-4.0,1
-191.0,-1.0,-187.0,-11.0,49.0,-6.0,1
-189.0,-4.0,-184.0,-12.0,50.0,-2.0,1
-193.0,-3.0,-184.0,-13.0,50.0,-4.0,1
-192.0,-1.0,-183.0,-13.0,51.0,-2.0,1
-191.0,-4.0,-182.0,-13.0,49.0,-4.0,1
-191.0,-3.0,-183.0,-14.0,49.0,-3.0,1
-190.0,-3.0,-184.0,-13.0,48.0,-4.0,1
-188.0,-4.0,-186.0,-13.0,48.0,-3.0,1
-192.0,-3.0,-185.0,-12.0,48.0,-6.0,1
-191.0,-3.0,-184.0,-11.0,48.0,-4.0,1
-193.0,-4.0,-184.0,-12.0,49.0,-7.0,1
-193.0,-4.0,-184.0,-10.0,50.0,-4.0,1
-188.0,-3.0,-187.0,-12.0,50.0,-5.0,1
-193.0,-4.0,-186.0,-11.0,50.0,-4.0,1
-191.0,-3.0,-184.0,-12.0,48.0,-6.0,1
-190.0,-3.0,-181.0,-13.0,48.0,-2.0,1
-192.0,-4.0,-184.0,-13.0,47.0,-5.0,1
-194.0,-2.0,-185.0,-13.0,47.0,-3.0,1
-189.0,-4.0,-184.0,-13.0,47.0,-7.0,1
-190.0,-4.0,-184.0,-12.0,48.0,-4.0,1
-192.0,-3.0,-185.0,-11.0,50.0,-6.0,1
-191.0,-3.0,-183.0,-10.0,51.0,-4.0,1
-191.0,-3.0,-185.0,-10.0,53.0,-7.0,1
-192.0,-4.0,-182.0,-10.0,54.0,-6.0,1
-191.0,-3.0,-185.0,-10.0,55.0,-5.0,1
-193.0,-4.0,-182.0,-10.0,55.0,-4.0,1
-191.0,-4.0,-185.0,-11.0,56.0,-5.0,1
-191.0,-6.0,-182.0,-13.0,57.0,-1.0,1
-191.0,-4.0,-184.0,-13.0,57.0,-3.0,1
-192.0,-2.0,-183.0,-16.0,57.0,1.0,1
-191.0,-3.0,-184.0,-16.0,59.0,-2.0,1
-191.0,-3.0,-185.0,-16.0,60.0,1.0,1
-192.0,-4.0,-185.0,-16.0,64.0,-2.0,1
-191.0,-4.0,-184.0,-15.0,66.0,-1.0,1
-190.0,-4.0,-183.0,-15.0,70.0,-4.0,1
-194.0,-2.0,-185.0,-14.0,74.0,-1.0,1
-192.0,-3.0,-183.0,-13.0,78.0,-3.0,1
-191.0,-4.0,-186.0,-14.0,78.0,0.0,1
-189.0,-4.0,-181.0,-12.0,81.0,-2.0,1
-189.0,-5.0,-183.0,-14.0,80.0,-1.0,1
-191.0,-4.0,-187.0,-13.0,80.0,-4.0,1
-191.0,-2.0,-186.0,-13.0,79.0,-1.0,1
-190.0,-4.0,-184.0,-14.0,78.0,-3.0,1
-189.0,-4.0,-185.0,-14.0,76.0,-1.0,1
-192.0,-4.0,-185.0,-14.0,74.0,-3.0,1
-192.0,-2.0,-186.0,-14.0,72.0,-1.0,1
-188.0,-4.0,-186.0,-14.0,69.0,-3.0,1
-195.0,-2.0,-185.0,-14.0,63.0,-1.0,1
-192.0,-4.0,-188.0,-13.0,61.0,-4.0,1
-189.0,-4.0,-187.0,-13.0,60.0,-2.0,1
-192.0,-3.0,-184.0,-11.0,57.0,-4.0,1
-194.0,-3.0,-184.0,-11.0,56.0,-2.0,1
-190.0,-4.0,-186.0,-10.0,56.0,-5.0,1
-193.0,-3.0,-185.0,-10.0,56.0,-3.0,1
-190.0,-4.0,-184.0,-10.0,57.0,-4.0,1
-193.0,-2.0,-184.0,-10.0,57.0,-3.0,1
-192.0,-3.0,-183.0,-10.0,57.0,-4.0,1
-192.0,-3.0,-185.0,-12.0,58.0,-3.0,1
-190.0,-3.0,-184.0,-11.0,59.0,-4.0,1
-188.0,-4.0,-188.0,-12.0,61.0,-3.0,1
-190.0,-4.0,-184.0,-12.0,61.0,-5.0,1
-194.0,-4.0,-184.0,-13.0,60.0,-2.0,1
-189.0,-3.0,-188.0,-13.0,60.0,-2.0,1
-190.0,-2.0,-188.0,-13.0,59.0,-1.0,1
-189.0,-4.0,-184.0,-12.0,58.0,-1.0,1
-190.0,-4.0,-183.0,-14.0,58.0,0.0,1
-191.0,-2.0,-185.0,-13.0,57.0,-2.0,1
-189.0,-4.0,-181.0,-14.0,57.0,0.0,1
-191.0,-3.0,-185.0,-14.0,58.0,-2.0,1
-192.0,-4.0,-183.0,-13.0,59.0,-1.0,1
-190.0,-4.0,-185.0,-15.0,58.0,-3.0,1
-191.0,-3.0,-188.0,-13.0,58.0,-2.0,1
-192.0,-3.0,-188.0,-14.0,59.0,-3.0,1
-189.0,-4.0,-184.0,-14.0,60.0,0.0,1
-191.0,-3.0,-186.0,-13.0,61.0,-2.0,1
-190.0,-4.0,-184.0,-14.0,62.0,0.0,1
-193.0,-4.0,-187.0,-14.0,63.0,-2.0,1
-192.0,-3.0,-185.0,-15.0,63.0,-1.0,1
-191.0,-3.0,-187.0,-15.0,62.0,-2.0,1
-191.0,-4.0,-184.0,-15.0,63.0,-3.0,1
-192.0,-3.0,-187.0,-14.0,65.0,-3.0,1
-195.0,-2.0,-186.0,-14.0,64.0,-1.0,1
-188.0,-4.0,-184.0,-14.0,64.0,-2.0,1
-189.0,-3.0,-186.0,-15.0,63.0,-2.0,1
-190.0,-4.0,-182.0,-15.0,61.0,-2.0,1
-190.0,-4.0,-184.0,-14.0,62.0,-1.0,1
-191.0,-4.0,-183.0,-15.0,63.0,-3.0,1
-189.0,-4.0,-185.0,-14.0,64.0,-3.0,1
-191.0,-4.0,-184.0,-16.0,65.0,-3.0,1
-190.0,-4.0,-186.0,-16.0,66.0,-1.0,1
-190.0,-4.0,-185.0,-16.0,66.0,-2.0,1
-191.0,-3.0,-183.0,-15.0,69.0,0.0,1
-191.0,-3.0,-187.0,-15.0,71.0,-3.0,1
-189.0,-3.0,-184.0,-15.0,70.0,-1.0,1
-191.0,-3.0,-182.0,-16.0,73.0,1.0,1
-191.0,-4.0,-185.0,-16.0,75.0,1.0,1
-192.0,-3.0,-183.0,-15.0,79.0,1.0,1
-189.0,-4.0,-183.0,-17.0,79.0,0.0,1
-191.0,-6.0,-185.0,-16.0,83.0,-1.0,1
-190.0,-4.0,-185.0,-18.0,84.0,0.0,1
-190.0,-4.0,-185.0,-17.0,85.0,-1.0,1
-191.0,-1.0,-184.0,-16.0,88.0,0.0,1
-192.0,-2.0,-184.0,-16.0,88.0,0.0,1
-193.0,-3.0,-183.0,-15.0,88.0,-1.0,1
-191.0,-3.0,-188.0,-15.0,87.0,-1.0,1
-189.0,-4.0,-184.0,-14.0,85.0,-1.0,1
-191.0,-4.0,-186.0,-16.0,85.0,0.0,1
-191.0,-4.0,-186.0,-17.0,82.0,0.0,1
-190.0,-4.0,-185.0,-17.0,81.0,-1.0,1
-191.0,-4.0,-187.0,-16.0,80.0,-1.0,1
-192.0,-3.0,-189.0,-17.0,79.0,0.0,1
-189.0,-4.0,-184.0,-18.0,78.0,1.0,1
-189.0,-2.0,-186.0,-20.0,77.0,1.0,1
-195.0,-3.0,-185.0,-19.0,75.0,1.0,1
-191.0,-4.0,-185.0,-19.0,74.0,2.0,1
-189.0,-4.0,-183.0,-19.0,74.0,1.0,1
-190.0,-4.0,-188.0,-18.0,74.0,3.0,1
-189.0,-3.0,-187.0,-19.0,72.0,1.0,1
-191.0,-3.0,-183.0,-20.0,71.0,2.0,1
-189.0,-2.0,-184.0,-18.0,70.0,1.0,1
-191.0,-3.0,-187.0,-18.0,68.0,2.0,1
-191.0,-3.0,-185.0,-18.0,66.0,0.0,1
-190.0,-4.0,-190.0,-17.0,66.0,2.0,1
-190.0,-4.0,-183.0,-19.0,68.0,0.0,1
-190.0,-2.0,-183.0,-19.0,69.0,2.0,1
-193.0,-3.0,-184.0,-18.0,67.0,0.0,1
-191.0,-1.0,-187.0,-19.0,69.0,3.0,1
-191.0,-4.0,-186.0,-19.0,68.0,2.0,1
-193.0,-3.0,-185.0,-19.0,69.0,2.0,1
-188.0,-3.0,-188.0,-18.0,70.0,1.0,1
-191.0,-4.0,-186.0,-19.0,70.0,2.0,1
-189.0,-4.0,-188.0,-19.0,70.0,1.0,1
-189.0,-4.0,-186.0,-19.0,71.0,3.0,1
-188.0,-4.0,-186.0,-19.0,71.0,1.0,1
-191.0,-3.0,-184.0,-19.0,70.0,3.0,1
-194.0,-3.0,-186.0,-19.0,71.0,1.0,1
-190.0,-4.0,-185.0,-20.0,72.0,2.0,1
-190.0,-3.0,-187.0,-19.0,70.0,2.0,1
-191.0,-2.0,-187.0,-20.0,71.0,3.0,1
-190.0,-4.0,-186.0,-19.0,72.0,0.0,1
-192.0,-2.0,-187.0,-21.0,73.0,3.0,1
-191.0,-3.0,-184.0,-20.0,72.0,2.0,1
