ax,ay,az,gx,gy,gz,label
-19.0,-250.0,-69.0,9.0,70.0,-10.0,1
-18.0,-252.0,-69.0,7.0,70.0,-7.0,1
-20.0,-252.0,-70.0,5.0,69.0,-6.0,1
-20.0,-250.0,-70.0,5.0,70.0,-6.0,1
-17.0,-250.0,-69.0,4.0,70.0,-4.0,1
-20.0,-256.0,-64.0,2.0,69.0,-2.0,1
-17.0,-251.0,-70.0,3.0,68.0,-1.0,1
-18.0,-253.0,-67.0,3.0,67.0,0.0,1
-19.0,-252.0,-65.0,2.0,68.0,-1.0,1
-16.0,-251.0,-68.0,3.0,67.0,1.0,1
-18.0,-252.0,-68.0,4.0,67.0,2.0,1
-18.0,-250.0,-64.0,5.0,66.0,1.0,1
-21.0,-252.0,-66.0,3.0,67.0,2.0,1
-14.0,-252.0,-64.0,3.0,68.0,0.0,1
-20.0,-249.0,-65.0,3.0,71.0,1.0,1
-22.0,-248.0,-65.0,1.0,73.0,0.0,1
-19.0,-251.0,-66.0,0.0,76.0,0.0,1
-18.0,-251.0,-64.0,-1.0,79.0,1.0,1
-19.0,-253.0,-67.0,0.0,81.0,1.0,1
-19.0,-250.0,-72.0,0.0,84.0,2.0,1
-22.0,-249.0,-72.0,0.0,87.0,2.0,1
-20.0,-251.0,-67.0,-1.0,89.0,3.0,1
-19.0,-252.0,-68.0,-1.0,90.0,2.0,1
-20.0,-254.0,-68.0,1.0,90.0,2.0,1
-18.0,-252.0,-71.0,2.0,90.0,1.0,1
-19.0,-252.0,-69.0,4.0,89.0,0.0,1
-28.0,-253.0,-76.0,6.0,87.0,0.0,1
-23.0,-249.0,-67.0,7.0,85.0,0.0,1
-20.0,-252.0,-70.0,9.0,83.0,0.0,1
-18.0,-253.0,-68.0,10.0,81.0,-1.0,1
-21.0,-253.0,-66.0,11.0,79.0,0.0,1
-23.0,-249.0,-67.0,9.0,76.0,1.0,1
-20.0,-252.0,-70.0,9.0,74.0,0.0,1
-20.0,-252.0,-65.0,8.0,73.0,1.0,1
-19.0,-253.0,-69.0,6.0,70.0,-1.0,1
-21.0,-248.0,-68.0,4.0,69.0,0.0,1
-23.0,-248.0,-68.0,2.0,67.0,-1.0,1
-21.0,-250.0,-66.0,0.0,66.0,-2.0,1
-23.0,-250.0,-69.0,-3.0,66.0,-3.0,1
-18.0,-252.0,-67.0,-6.0,65.0,-3.0,1
-19.0,-251.0,-68.0,-10.0,64.0,-3.0,1
-22.0,-250.0,-67.0,-15.0,62.0,-5.0,1
-24.0,-252.0,-70.0,-16.0,63.0,-5.0,1
-22.0,-250.0,-71.0,-19.0,61.0,-6.0,1
-21.0,-249.0,-69.0,-21.0,61.0,-7.0,1
-19.0,-252.0,-66.0,-20.0,60.0,-6.0,1
-22.0,-248.0,-65.0,-22.0,59.0,-8.0,1
-20.0,-252.0,-64.0,-22.0,58.0,-10.0,1
-21.0,-253.0,-69.0,-21.0,56.0,-8.0,1
-19.0,-250.0,-66.0,-20.0,54.0,-8.0,1
-20.0,-254.0,-67.0,-18.0,54.0,-8.0,1
-21.0,-251.0,-70.0,-15.0,52.0,-8.0,1
-21.0,-252.0,-68.0,-14.0,51.0,-9.0,1
-19.0,-250.0,-69.0,-12.0,50.0,-9.0,1
-19.0,-253.0,-64.0,-10.0,50.0,-9.0,1
-22.0,-251.0,-67.0,-9.0,50.0,-9.0,1
-18.0,-252.0,-69.0,-7.0,48.0,-9.0,1
-22.0,-249.0,-68.0,-7.0,47.0,-7.0,1
-22.0,-253.0,-70.0,-7.0,48.0,-8.0,1
-19.0,-252.0,-67.0,-9.0,50.0,-7.0,1
-22.0,-251.0,-69.0,-9.0,50.0,-9.0,1
-18.0,-251.0,-65.0,-9.0,49.0,-8.0,1
-17.0,-252.0,-65.0,-9.0,51.0,-7.0,1
-19.0,-248.0,-68.0,-9.0,51.0,-8.0,1
-18.0,-251.0,-69.0,-11.0,52.0,-9.0,1
-18.0,-250.0,-68.0,-11.0,53.0,-9.0,1
-19.0,-245.0,-66.0,-13.0,54.0,-9.0,1
-21.0,-250.0,-65.0,-13.0,55.0,-9.0,1
-20.0,-250.0,-70.0,-14.0,56.0,-8.0,1
-21.0,-250.0,-65.0,-15.0,55.0,-9.0,1
-19.0,-253.0,-68.0,-15.0,56.0,-7.0,1
-19.0,-249.0,-70.0,-13.0,57.0,-8.0,1
-21.0,-250.0,-66.0,-14.0,58.0,-6.0,1
-21.0,-251.0,-68.0,-13.0,57.0,-6.0,1
-21.0,-251.0,-71.0,-14.0,56.0,-7.0,1
-20.0,-252.0,-68.0,-15.0,56.0,-6.0,1
-21.0,-249.0,-67.0,-15.0,56.0,-5.0,1
-22.0,-252.0,-66.0,-14.0,56.0,-5.0,1
-20.0,-251.0,-66.0,-14.0,57.0,-3.0,1
-19.0,-251.0,-68.0,-16.0,56.0,-4.0,1
-20.0,-253.0,-67.0,-14.0,56.0,-3.0,1
-22.0,-251.0,-65.0,-15.0,55.0,-3.0,1
-20.0,-251.0,-66.0,-15.0,55.0,-3.0,1
-21.0,-252.0,-65.0,-14.0,55.0,-3.0,1
-21.0,-250.0,-64.0,-14.0,54.0,-3.0,1
-20.0,-248.0,-67.0,-15.0,54.0,-2.0,1
-20.0,-251.0,-70.0,-17.0,54.0,-3.0,1
-21.0,-251.0,-67.0,-15.0,55.0,-4.0,1
-21.0,-253.0,-69.0,-15.0,54.0,-4.0,1
-20.0,-253.0,-69.0,-15.0,54.0,-4.0,1
-20.0,-253.0,-70.0,-14.0,56.0,-4.0,1
-22.0,-251.0,-67.0,-14.0,57.0,-5.0,1
-14.0,-250.0,-59.0,-14.0,57.0,-4.0,1
-18.0,-252.0,-62.0,-15.0,58.0,-5.0,1
-18.0,-250.0,-68.0,-15.0,57.0,-3.0,1
-21.0,-251.0,-67.0,-16.0,58.0,-4.0,1
-19.0,-249.0,-67.0,-16.0,58.0,-5.0,1
-20.0,-250.0,-66.0,-16.0,58.0,-5.0,1
-18.0,-252.0,-66.0,-17.0,59.0,-6.0,1
-17.0,-253.0,-67.0,-18.0,61.0,-5.0,1
-23.0,-251.0,-66.0,-19.0,61.0,-5.0,1
-20.0,-253.0,-66.0,-18.0,61.0,-5.0,1
-18.0,-252.0,-66.0,-17.0,61.0,-5.0,1
-20.0,-251.0,-69.0,-18.0,60.0,-4.0,1
-22.0,-252.0,-65.0,-17.0,61.0,-4.0,1
-22.0,-250.0,-69.0,-15.0,60.0,-5.0,1
-21.0,-252.0,-70.0,-13.0,58.0,-5.0,1
-22.0,-251.0,-67.0,-12.0,58.0,-5.0,1
-21.0,-253.0,-69.0,-13.0,59.0,-3.0,1
-20.0,-249.0,-67.0,-15.0,61.0,-3.0,1
-21.0,-247.0,-66.0,-16.0,62.0,-4.0,1
-23.0,-249.0,-67.0,-18.0,63.0,-6.0,1
-18.0,-253.0,-70.0,-19.0,64.0,-8.0,1
-18.0,-246.0,-63.0,-20.0,65.0,-7.0,1
-19.0,-254.0,-67.0,-20.0,64.0,-7.0,1
-21.0,-252.0,-69.0,-18.0,64.0,-7.0,1
-22.0,-252.0,-67.0,-17.0,63.0,-6.0,1
-22.0,-248.0,-67.0,-15.0,62.0,-6.0,1
-20.0,-251.0,-71.0,-15.0,63.0,-6.0,1
-23.0,-249.0,-66.0,-16.0,62.0,-7.0,1
-24.0,-252.0,-72.0,-15.0,61.0,-3.0,1
-21.0,-250.0,-69.0,-15.0,61.0,-3.0,1
-22.0,-250.0,-68.0,-15.0,62.0,-2.0,1
-21.0,-251.0,-68.0,-15.0,62.0,0.0,1
-19.0,-251.0,-72.0,-16.0,63.0,-1.0,1
-18.0,-253.0,-69.0,-14.0,62.0,-1.0,1
-23.0,-252.0,-65.0,-15.0,62.0,-2.0,1
-20.0,-249.0,-69.0,-16.0,63.0,-1.0,1
-20.0,-250.0,-67.0,-18.0,64.0,-1.0,1
-19.0,-250.0,-66.0,-17.0,66.0,-1.0,1
-19.0,-250.0,-67.0,-15.0,69.0,-3.0,1
-18.0,-252.0,-67.0,-11.0,70.0,-4.0,1
-20.0,-249.0,-66.0,-9.0,70.0,-4.0,1
-17.0,-249.0,-65.0,-8.0,71.0,-4.0,1
-18.0,-254.0,-65.0,-8.0,72.0,-6.0,1
-20.0,-251.0,-64.0,-10.0,74.0,-6.0,1
-22.0,-249.0,-63.0,-11.0,75.0,-4.0,1
-19.0,-252.0,-66.0,-12.0,77.0,-3.0,1
-21.0,-251.0,-65.0,-13.0,77.0,-3.0,1
-22.0,-252.0,-66.0,-13.0,78.0,-3.0,1
-21.0,-249.0,-65.0,-14.0,78.0,-1.0,1
-19.0,-253.0,-70.0,-14.0,75.0,1.0,1
-18.0,-250.0,-67.0,-14.0,74.0,3.0,1
-19.0,-251.0,-68.0,-12.0,75.0,1.0,1
-22.0,-251.0,-67.0,-11.0,73.0,3.0,1
-20.0,-252.0,-66.0,-9.0,72.0,4.0,1
-20.0,-251.0,-68.0,-10.0,70.0,4.0,1
-17.0,-253.0,-67.0,-9.0,69.0,2.0,1
-19.0,-250.0,-69.0,-8.0,69.0,2.0,1
-20.0,-251.0,-70.0,-8.0,68.0,2.0,1
-21.0,-251.0,-67.0,-8.0,68.0,2.0,1
-21.0,-251.0,-67.0,-7.0,69.0,0.0,1
-20.0,-253.0,-68.0,-7.0,69.0,0.0,1
-19.0,-250.0,-66.0,-9.0,69.0,1.0,1
-19.0,-251.0,-68.0,-9.0,68.0,1.0,1
-20.0,-249.0,-66.0,-8.0,70.0,-1.0,1
-20.0,-252.0,-70.0,-9.0,72.0,-1.0,1
-17.0,-253.0,-70.0,-10.0,73.0,-1.0,1
-20.0,-249.0,-66.0,-11.0,73.0,-1.0,1
-21.0,-249.0,-67.0,-11.0,73.0,-1.0,1
-20.0,-251.0,-69.0,-13.0,74.0,-1.0,1
-17.0,-251.0,-67.0,-12.0,73.0,-1.0,1
-23.0,-252.0,-64.0,-12.0,72.0,-2.0,1
-22.0,-249.0,-68.0,-12.0,72.0,-3.0,1
-19.0,-252.0,-67.0,-11.0,72.0,-2.0,1
-21.0,-249.0,-70.0,-10.0,70.0,-1.0,1
-19.0,-251.0,-69.0,-9.0,71.0,-2.0,1
-21.0,-253.0,-71.0,-6.0,70.0,-4.0,1
-20.0,-250.0,-68.0,-5.0,68.0,-4.0,1
-19.0,-253.0,-68.0,-6.0,66.0,-2.0,1
-23.0,-246.0,-65.0,-6.0,66.0,-3.0,1
-17.0,-252.0,-70.0,-7.0,66.0,-3.0,1
-20.0,-250.0,-68.0,-8.0,66.0,-4.0,1
-21.0,-250.0,-69.0,-9.0,65.0,-3.0,1
-22.0,-250.0,-66.0,-10.0,65.0,-3.0,1
-20.0,-250.0,-68.0,-10.0,65.0,-4.0,1
-19.0,-250.0,-69.0,-10.0,65.0,-3.0,1
-21.0,-251.0,-69.0,-9.0,65.0,-2.0,1
-22.0,-249.0,-66.0,-10.0,66.0,-2.0,1
-21.0,-244.0,-74.0,-10.0,68.0,-4.0,1
-22.0,-250.0,-68.0,-11.0,67.0,-4.0,1
-20.0,-249.0,-67.0,-11.0,68.0,-4.0,1
-20.0,-249.0,-65.0,-10.0,67.0,-4.0,1
-15.0,-254.0,-64.0,-11.0,66.0,-4.0,1
-20.0,-250.0,-66.0,-12.0,66.0,-6.0,1
-21.0,-250.0,-67.0,-12.0,67.0,-4.0,1
-22.0,-250.0,-65.0,-14.0,67.0,-4.0,1
-20.0,-251.0,-67.0,-13.0,66.0,-4.0,1
-22.0,-250.0,-69.0,-12.0,67.0,-5.0,1
-20.0,-251.0,-68.0,-12.0,65.0,-5.0,1
-21.0,-251.0,-70.0,-11.0,65.0,-4.0,1
-21.0,-251.0,-67.0,-10.0,66.0,-4.0,1
-21.0,-249.0,-67.0,-11.0,65.0,-5.0,1
-21.0,-250.0,-65.0,-10.0,65.0,-5.0,1
-22.0,-250.0,-68.0,-11.0,65.0,-4.0,1
-20.0,-251.0,-70.0,-12.0,65.0,-5.0,1
-20.0,-250.0,-65.0,-11.0,66.0,-6.0,1
-21.0,-249.0,-69.0,-11.0,67.0,-3.0,1
-20.0,-249.0,-65.0,-11.0,65.0,-3.0,1
-21.0,-250.0,-66.0,-12.0,68.0,-4.0,1
-20.0,-251.0,-69.0,-12.0,68.0,-5.0,1
-20.0,-249.0,-67.0,-12.0,67.0,-3.0,1
-21.0,-252.0,-71.0,-12.0,68.0,-3.0,1
-21.0,-252.0,-68.0,-13.0,69.0,-4.0,1
-20.0,-251.0,-70.0,-13.0,68.0,-5.0,1
-20.0,-249.0,-71.0,-14.0,69.0,-3.0,1
-19.0,-250.0,-66.0,-13.0,68.0,-4.0,1
-23.0,-252.0,-68.0,-15.0,69.0,-3.0,1
-21.0,-251.0,-66.0,-13.0,69.0,-3.0,1
-21.0,-251.0,-66.0,-14.0,69.0,-4.0,1
-22.0,-252.0,-70.0,-14.0,69.0,-4.0,1
-22.0,-250.0,-67.0,-13.0,67.0,-3.0,1
-21.0,-251.0,-71.0,-12.0,66.0,-3.0,1
-23.0,-253.0,-67.0,-12.0,65.0,-1.0,1
-17.0,-253.0,-67.0,-12.0,64.0,-1.0,1
-18.0,-253.0,-68.0,-13.0,65.0,-2.0,1
-23.0,-251.0,-67.0,-13.0,65.0,-1.0,1
-21.0,-250.0,-65.0,-13.0,63.0,-1.0,1
-20.0,-249.0,-71.0,-13.0,64.0,-1.0,1
-24.0,-250.0,-68.0,-13.0,65.0,-2.0,1
-20.0,-249.0,-68.0,-14.0,65.0,-3.0,1
-27.0,-248.0,-71.0,-14.0,65.0,-3.0,1
-23.0,-248.0,-65.0,-15.0,64.0,-2.0,1
-20.0,-252.0,-66.0,-15.0,64.0,-3.0,1
-21.0,-251.0,-66.0,-14.0,64.0,-3.0,1
-21.0,-250.0,-69.0,-15.0,64.0,-2.0,1
-20.0,-249.0,-71.0,-15.0,65.0,-2.0,1
-21.0,-250.0,-66.0,-16.0,63.0,-3.0,1
-19.0,-254.0,-69.0,-16.0,64.0,-3.0,1
-21.0,-251.0,-69.0,-17.0,65.0,-2.0,1
-22.0,-249.0,-69.0,-17.0,65.0,-1.0,1
-23.0,-252.0,-70.0,-19.0,63.0,-2.0,1
-19.0,-248.0,-65.0,-19.0,64.0,-1.0,1
-17.0,-252.0,-68.0,-19.0,63.0,-3.0,1
-20.0,-251.0,-67.0,-19.0,61.0,-3.0,1
-23.0,-250.0,-70.0,-20.0,61.0,-2.0,1
-21.0,-250.0,-67.0,-19.0,60.0,-2.0,1
-22.0,-251.0,-68.0,-21.0,61.0,-2.0,1
-23.0,-249.0,-70.0,-21.0,61.0,-3.0,1
-20.0,-250.0,-69.0,-20.0,62.0,-4.0,1
-23.0,-251.0,-69.0,-21.0,61.0,-4.0,1
-19.0,-251.0,-66.0,-22.0,60.0,-5.0,1
-21.0,-251.0,-67.0,-21.0,61.0,-4.0,1
-23.0,-248.0,-70.0,-20.0,61.0,-3.0,1
-25.0,-247.0,-71.0,-17.0,60.0,-3.0,1
-22.0,-251.0,-69.0,-15.0,58.0,-4.0,1
-21.0,-249.0,-68.0,-17.0,59.0,-2.0,1
-20.0,-249.0,-70.0,-18.0,62.0,-4.0,1
-18.0,-251.0,-71.0,-18.0,63.0,-3.0,1
-23.0,-249.0,-67.0,-19.0,62.0,-3.0,1
-18.0,-250.0,-67.0,-20.0,64.0,-6.0,1
-19.0,-251.0,-66.0,-23.0,63.0,-6.0,1
-19.0,-249.0,-71.0,-25.0,64.0,-7.0,1
-21.0,-250.0,-66.0,-24.0,63.0,-6.0,1
-17.0,-249.0,-65.0,-22.0,61.0,-6.0,1
-28.0,-251.0,-74.0,-20.0,60.0,-6.0,1
-20.0,-250.0,-70.0,-21.0,59.0,-6.0,1
-22.0,-249.0,-68.0,-20.0,59.0,-6.0,1
-19.0,-252.0,-69.0,-20.0,58.0,-4.0,1
-23.0,-250.0,-67.0,-21.0,59.0,-5.0,1
-20.0,-251.0,-71.0,-22.0,58.0,-5.0,1
-24.0,-250.0,-66.0,-23.0,59.0,-5.0,1
-23.0,-249.0,-66.0,-23.0,59.0,-3.0,1
-21.0,-254.0,-71.0,-24.0,57.0,-3.0,1
-21.0,-252.0,-67.0,-23.0,57.0,-3.0,1
-20.0,-254.0,-69.0,-22.0,58.0,-4.0,1
-24.0,-253.0,-64.0,-22.0,58.0,-3.0,1
-21.0,-251.0,-66.0,-21.0,60.0,-3.0,1
-21.0,-251.0,-64.0,-20.0,59.0,-4.0,1
-18.0,-253.0,-70.0,-16.0,60.0,-4.0,1
-18.0,-249.0,-67.0,-15.0,61.0,-6.0,1
-20.0,-253.0,-69.0,-14.0,62.0,-7.0,1
-20.0,-251.0,-66.0,-15.0,63.0,-8.0,1
-20.0,-250.0,-67.0,-16.0,63.0,-7.0,1
-21.0,-249.0,-67.0,-18.0,62.0,-8.0,1
-20.0,-250.0,-70.0,-20.0,62.0,-8.0,1
-19.0,-251.0,-66.0,-21.0,64.0,-7.0,1
-23.0,-252.0,-67.0,-22.0,65.0,-7.0,1
-20.0,-252.0,-68.0,-24.0,64.0,-7.0,1
-22.0,-247.0,-65.0,-24.0,65.0,-7.0,1
-21.0,-250.0,-68.0,-24.0,64.0,-4.0,1
-21.0,-251.0,-68.0,-24.0,64.0,-4.0,1
-19.0,-251.0,-67.0,-24.0,64.0,-4.0,1
-22.0,-250.0,-70.0,-22.0,62.0,-3.0,1
-21.0,-251.0,-66.0,-20.0,63.0,-5.0,1
-20.0,-252.0,-68.0,-19.0,62.0,-6.0,1
-22.0,-250.0,-67.0,-18.0,62.0,-6.0,1
-17.0,-243.0,-71.0,-18.0,61.0,-6.0,1
-19.0,-247.0,-70.0,-17.0,62.0,-6.0,1
-21.0,-249.0,-70.0,-16.0,62.0,-6.0,1
-20.0,-251.0,-72.0,-17.0,62.0,-6.0,1
-18.0,-250.0,-73.0,-17.0,63.0,-6.0,1
-23.0,-250.0,-69.0,-16.0,64.0,-5.0,1
-21.0,-250.0,-67.0,-16.0,65.0,-7.0,1
-20.0,-253.0,-67.0,-17.0,66.0,-7.0,1
-21.0,-250.0,-67.0,-17.0,67.0,-8.0,1
-20.0,-249.0,-70.0,-17.0,68.0,-8.0,1
-22.0,-251.0,-67.0,-17.0,68.0,-8.0,1
-22.0,-248.0,-69.0,-17.0,69.0,-7.0,1
-20.0,-248.0,-71.0,-18.0,69.0,-7.0,1
-18.0,-250.0,-68.0,-19.0,69.0,-7.0,1
-21.0,-249.0,-71.0,-18.0,69.0,-6.0,1
-19.0,-252.0,-66.0,-18.0,68.0,-6.0,1
-19.0,-254.0,-65.0,-17.0,69.0,-5.0,1
-20.0,-248.0,-68.0,-18.0,68.0,-5.0,1
-21.0,-251.0,-67.0,-18.0,66.0,-7.0,1
-19.0,-249.0,-68.0,-17.0,64.0,-7.0,1
-22.0,-251.0,-68.0,-16.0,65.0,-7.0,1
-18.0,-249.0,-73.0,-17.0,64.0,-6.0,1
-18.0,-249.0,-68.0,-17.0,63.0,-6.0,1
-20.0,-254.0,-74.0,-16.0,63.0,-5.0,1
-18.0,-251.0,-69.0,-15.0,63.0,-5.0,1
-24.0,-248.0,-73.0,-15.0,62.0,-6.0,1
-19.0,-251.0,-67.0,-15.0,63.0,-5.0,1
-18.0,-252.0,-70.0,-15.0,63.0,-5.0,1
-16.0,-252.0,-70.0,-15.0,65.0,-5.0,1
-21.0,-248.0,-67.0,-16.0,67.0,-5.0,1
-18.0,-251.0,-72.0,-15.0,68.0,-5.0,1
-21.0,-249.0,-64.0,-15.0,69.0,-6.0,1
-16.0,-252.0,-73.0,-15.0,68.0,-5.0,1
-17.0,-252.0,-68.0,-16.0,70.0,-6.0,1
-24.0,-250.0,-68.0,-19.0,71.0,-5.0,1
-18.0,-253.0,-70.0,-18.0,71.0,-6.0,1
-21.0,-251.0,-70.0,-19.0,73.0,-7.0,1
-20.0,-249.0,-67.0,-18.0,73.0,-6.0,1
-19.0,-251.0,-67.0,-18.0,74.0,-6.0,1
-19.0,-249.0,-65.0,-18.0,73.0,-8.0,1
-19.0,-251.0,-68.0,-18.0,74.0,-5.0,1
-19.0,-248.0,-67.0,-18.0,74.0,-5.0,1
-21.0,-247.0,-68.0,-18.0,74.0,-5.0,1
-22.0,-247.0,-68.0,-19.0,74.0,-5.0,1
-21.0,-249.0,-69.0,-19.0,74.0,-4.0,1
-19.0,-251.0,-69.0,-19.0,73.0,-4.0,1
-20.0,-251.0,-70.0,-18.0,74.0,-4.0,1
-22.0,-251.0,-69.0,-19.0,73.0,-3.0,1
-22.0,-253.0,-68.0,-18.0,74.0,-3.0,1
-23.0,-251.0,-68.0,-17.0,74.0,-2.0,1
-18.0,-250.0,-67.0,-17.0,76.0,-3.0,1
-22.0,-250.0,-69.0,-17.0,77.0,-2.0,1
-17.0,-252.0,-67.0,-15.0,78.0,-3.0,1
-17.0,-250.0,-70.0,-15.0,78.0,-2.0,1
-20.0,-250.0,-70.0,-14.0,78.0,-3.0,1
-21.0,-252.0,-71.0,-15.0,80.0,-2.0,1
-20.0,-252.0,-69.0,-17.0,80.0,-2.0,1
-21.0,-249.0,-70.0,-17.0,80.0,-1.0,1
-22.0,-251.0,-70.0,-17.0,81.0,-1.0,1
-20.0,-251.0,-70.0,-18.0,81.0,-2.0,1
-18.0,-253.0,-70.0,-18.0,83.0,-2.0,1
-18.0,-251.0,-70.0,-18.0,83.0,-1.0,1
-20.0,-253.0,-70.0,-20.0,84.0,0.0,1
-19.0,-250.0,-71.0,-19.0,85.0,0.0,1
-22.0,-250.0,-71.0,-21.0,85.0,0.0,1
-20.0,-250.0,-73.0,-21.0,85.0,0.0,1
-19.0,-250.0,-70.0,-22.0,85.0,1.0,1
-22.0,-246.0,-71.0,-23.0,86.0,1.0,1
-20.0,-250.0,-70.0,-22.0,84.0,0.0,1
-21.0,-253.0,-68.0,-22.0,85.0,-2.0,1
-18.0,-249.0,-69.0,-21.0,84.0,-1.0,1
-22.0,-250.0,-70.0,-22.0,84.0,0.0,1
-21.0,-251.0,-70.0,-21.0,83.0,-1.0,1
-21.0,-250.0,-68.0,-21.0,84.0,-1.0,1
-21.0,-251.0,-68.0,-20.0,83.0,0.0,1
-21.0,-250.0,-70.0,-19.0,83.0,0.0,1
-22.0,-252.0,-70.0,-19.0,82.0,-1.0,1
-21.0,-249.0,-71.0,-19.0,81.0,-2.0,1
-19.0,-250.0,-71.0,-19.0,80.0,-2.0,1
-23.0,-253.0,-71.0,-19.0,79.0,-3.0,1
-20.0,-252.0,-68.0,-20.0,79.0,-3.0,1
-24.0,-247.0,-72.0,-21.0,79.0,-3.0,1
-22.0,-248.0,-69.0,-19.0,77.0,-2.0,1
-22.0,-251.0,-65.0,-18.0,76.0,-2.0,1
-21.0,-248.0,-69.0,-18.0,76.0,-2.0,1
-21.0,-249.0,-69.0,-18.0,75.0,-4.0,1
-20.0,-251.0,-69.0,-19.0,75.0,-5.0,1
-18.0,-252.0,-71.0,-18.0,74.0,-4.0,1
-21.0,-241.0,-70.0,-18.0,73.0,-5.0,1
-20.0,-249.0,-73.0,-18.0,72.0,-3.0,1
-20.0,-251.0,-68.0,-18.0,72.0,-5.0,1
-19.0,-251.0,-67.0,-20.0,73.0,-5.0,1
-20.0,-250.0,-69.0,-22.0,74.0,-5.0,1
-21.0,-247.0,-69.0,-22.0,74.0,-3.0,1
-23.0,-248.0,-68.0,-22.0,74.0,-4.0,1
-19.0,-251.0,-67.0,-22.0,73.0,-4.0,1
-21.0,-251.0,-70.0,-21.0,73.0,-2.0,1
-21.0,-251.0,-68.0,-19.0,75.0,-2.0,1
-17.0,-246.0,-74.0,-16.0,73.0,-1.0,1
-20.0,-250.0,-69.0,-13.0,73.0,0.0,1
-17.0,-252.0,-73.0,-12.0,73.0,0.0,1
-18.0,-251.0,-70.0,-14.0,75.0,1.0,1
-19.0,-251.0,-67.0,-16.0,77.0,-1.0,1
-19.0,-246.0,-73.0,-19.0,80.0,-2.0,1
-18.0,-248.0,-71.0,-19.0,82.0,-3.0,1
-18.0,-248.0,-70.0,-21.0,83.0,-4.0,1
-22.0,-249.0,-69.0,-22.0,86.0,-4.0,1
-18.0,-250.0,-72.0,-23.0,89.0,-3.0,1
-22.0,-246.0,-68.0,-23.0,88.0,-3.0,1
-19.0,-249.0,-75.0,-24.0,89.0,-3.0,1
-18.0,-253.0,-67.0,-23.0,89.0,-2.0,1
-19.0,-251.0,-68.0,-22.0,91.0,-2.0,1
-20.0,-248.0,-70.0,-21.0,92.0,-2.0,1
-22.0,-248.0,-67.0,-19.0,93.0,0.0,1
-22.0,-251.0,-69.0,-19.0,92.0,0.0,1
-19.0,-252.0,-73.0,-19.0,92.0,1.0,1
-19.0,-249.0,-68.0,-20.0,89.0,1.0,1
-19.0,-252.0,-68.0,-19.0,87.0,3.0,1
-23.0,-249.0,-70.0,-18.0,86.0,3.0,1
-20.0,-251.0,-66.0,-16.0,87.0,3.0,1
-19.0,-246.0,-71.0,-16.0,86.0,4.0,1
-21.0,-249.0,-66.0,-14.0,87.0,3.0,1
-22.0,-251.0,-70.0,-12.0,87.0,4.0,1
-19.0,-249.0,-68.0,-10.0,86.0,3.0,1
-19.0,-248.0,-68.0,-8.0,85.0,1.0,1
-19.0,-249.0,-68.0,-7.0,84.0,-1.0,1
-20.0,-249.0,-69.0,-9.0,85.0,-2.0,1
-23.0,-252.0,-68.0,-10.0,84.0,-4.0,1
-20.0,-251.0,-67.0,-10.0,85.0,-5.0,1
-21.0,-249.0,-69.0,-12.0,86.0,-4.0,1
-22.0,-247.0,-70.0,-13.0,87.0,-5.0,1
-21.0,-250.0,-67.0,-14.0,86.0,-4.0,1
-19.0,-251.0,-67.0,-14.0,86.0,-3.0,1
-23.0,-249.0,-70.0,-14.0,84.0,-2.0,1
-20.0,-249.0,-72.0,-14.0,83.0,-2.0,1
-22.0,-249.0,-70.0,-13.0,82.0,-2.0,1
-20.0,-251.0,-69.0,-12.0,81.0,-2.0,1
-21.0,-249.0,-67.0,-11.0,79.0,-1.0,1
-18.0,-250.0,-67.0,-10.0,77.0,-1.0,1
-20.0,-251.0,-69.0,-8.0,76.0,-1.0,1
-19.0,-252.0,-69.0,-7.0,74.0,-2.0,1
-22.0,-249.0,-72.0,-7.0,72.0,-1.0,1
-20.0,-250.0,-69.0,-6.0,70.0,-2.0,1
-19.0,-249.0,-70.0,-6.0,68.0,-2.0,1
-21.0,-251.0,-70.0,-6.0,67.0,-3.0,1
-23.0,-249.0,-71.0,-5.0,68.0,-3.0,1
-20.0,-250.0,-72.0,-5.0,70.0,-4.0,1
-22.0,-252.0,-68.0,-6.0,69.0,-4.0,1
-21.0,-252.0,-69.0,-7.0,70.0,-5.0,1
-19.0,-249.0,-69.0,-10.0,72.0,-5.0,1
-19.0,-249.0,-72.0,-11.0,74.0,-6.0,1
-20.0,-250.0,-70.0,-12.0,73.0,-5.0,1
-18.0,-249.0,-70.0,-12.0,77.0,-6.0,1
-14.0,-249.0,-67.0,-16.0,78.0,-6.0,1
-21.0,-250.0,-70.0,-15.0,79.0,-5.0,1
-19.0,-252.0,-68.0,-16.0,79.0,-5.0,1
-20.0,-251.0,-72.0,-16.0,77.0,-6.0,1
-18.0,-251.0,-66.0,-15.0,75.0,-6.0,1
-22.0,-249.0,-70.0,-12.0,74.0,-5.0,1
-20.0,-251.0,-68.0,-13.0,75.0,-6.0,1
-21.0,-246.0,-68.0,-14.0,72.0,-5.0,1
-17.0,-252.0,-71.0,-16.0,71.0,-5.0,1
-19.0,-252.0,-70.0,-15.0,71.0,-4.0,1
-19.0,-250.0,-72.0,-15.0,70.0,-5.0,1
-21.0,-250.0,-69.0,-15.0,69.0,-4.0,1
-21.0,-250.0,-66.0,-14.0,68.0,-3.0,1
-20.0,-250.0,-70.0,-14.0,68.0,-3.0,1
-19.0,-250.0,-70.0,-13.0,69.0,-3.0,1
-19.0,-250.0,-71.0,-13.0,70.0,-4.0,1
-19.0,-249.0,-71.0,-14.0,71.0,-4.0,1
-20.0,-249.0,-66.0,-15.0,73.0,-5.0,1
-18.0,-249.0,-69.0,-16.0,73.0,-5.0,1
-18.0,-249.0,-68.0,-15.0,75.0,-6.0,1
-20.0,-251.0,-72.0,-16.0,76.0,-6.0,1
-20.0,-246.0,-71.0,-17.0,76.0,-7.0,1
-19.0,-249.0,-69.0,-17.0,75.0,-8.0,1
-22.0,-248.0,-74.0,-19.0,76.0,-7.0,1
-19.0,-251.0,-68.0,-19.0,77.0,-7.0,1
-18.0,-250.0,-70.0,-22.0,77.0,-7.0,1
-18.0,-250.0,-68.0,-21.0,76.0,-5.0,1
-20.0,-250.0,-71.0,-22.0,77.0,-6.0,1
-18.0,-246.0,-69.0,-22.0,77.0,-5.0,1
-17.0,-252.0,-68.0,-23.0,78.0,-5.0,1
-21.0,-250.0,-68.0,-24.0,78.0,-6.0,1
-19.0,-250.0,-68.0,-23.0,77.0,-5.0,1
-20.0,-248.0,-69.0,-23.0,77.0,-4.0,1
-22.0,-249.0,-69.0,-22.0,77.0,-4.0,1
-17.0,-253.0,-67.0,-22.0,77.0,-4.0,1
-17.0,-250.0,-70.0,-19.0,77.0,-5.0,1
-19.0,-254.0,-70.0,-19.0,78.0,-4.0,1
-18.0,-253.0,-67.0,-19.0,78.0,-5.0,1
-21.0,-252.0,-69.0,-20.0,77.0,-3.0,1
-19.0,-251.0,-68.0,-20.0,77.0,-4.0,1
-19.0,-252.0,-69.0,-20.0,77.0,-3.0,1
-17.0,-252.0,-72.0,-20.0,78.0,-5.0,1
-23.0,-251.0,-69.0,-18.0,79.0,-4.0,1
-22.0,-250.0,-71.0,-18.0,79.0,-4.0,1
-18.0,-249.0,-72.0,-17.0,80.0,-4.0,1
-19.0,-251.0,-71.0,-17.0,80.0,-3.0,1
-19.0,-249.0,-68.0,-18.0,82.0,-3.0,1
-18.0,-250.0,-71.0,-18.0,81.0,-3.0,1
-21.0,-248.0,-71.0,-19.0,81.0,-5.0,1
-18.0,-246.0,-73.0,-18.0,81.0,-3.0,1
-20.0,-251.0,-68.0,-20.0,81.0,-3.0,1
-19.0,-250.0,-71.0,-23.0,81.0,-4.0,1
-19.0,-249.0,-74.0,-22.0,81.0,-3.0,1
-19.0,-248.0,-70.0,-23.0,80.0,-4.0,1
-20.0,-250.0,-71.0,-24.0,80.0,-4.0,1
-19.0,-249.0,-69.0,-24.0,80.0,-4.0,1
-21.0,-250.0,-72.0,-23.0,80.0,-4.0,1
-20.0,-247.0,-70.0,-22.0,80.0,-4.0,1
-22.0,-251.0,-70.0,-22.0,79.0,-3.0,1
-18.0,-250.0,-68.0,-20.0,79.0,-3.0,1
-20.0,-245.0,-71.0,-19.0,78.0,-3.0,1
-19.0,-248.0,-71.0,-21.0,77.0,-4.0,1
-18.0,-250.0,-70.0,-21.0,78.0,-2.0,1
-18.0,-251.0,-71.0,-20.0,77.0,-2.0,1
-19.0,-250.0,-69.0,-21.0,78.0,-3.0,1
-19.0,-251.0,-71.0,-20.0,78.0,-4.0,1
-17.0,-251.0,-71.0,-19.0,78.0,-3.0,1
-20.0,-252.0,-67.0,-19.0,78.0,-3.0,1
-20.0,-249.0,-69.0,-19.0,78.0,-3.0,1
-19.0,-250.0,-72.0,-20.0,78.0,-3.0,1
-19.0,-252.0,-72.0,-21.0,78.0,-2.0,1
-17.0,-249.0,-70.0,-21.0,78.0,-1.0,1
-17.0,-252.0,-72.0,-21.0,77.0,0.0,1
-16.0,-251.0,-70.0,-21.0,77.0,-2.0,1
-16.0,-247.0,-72.0,-21.0,79.0,-1.0,1
-21.0,-249.0,-72.0,-20.0,79.0,-2.0,1
-19.0,-252.0,-71.0,-22.0,78.0,-2.0,1
-21.0,-249.0,-72.0,-23.0,79.0,-4.0,1
-20.0,-249.0,-72.0,-23.0,78.0,-1.0,1
-20.0,-248.0,-72.0,-24.0,79.0,-2.0,1
-19.0,-248.0,-71.0,-25.0,78.0,-4.0,1
-17.0,-248.0,-70.0,-24.0,77.0,-3.0,1
-18.0,-250.0,-72.0,-24.0,77.0,-3.0,1
-19.0,-250.0,-73.0,-25.0,75.0,-3.0,1
-22.0,-248.0,-71.0,-25.0,75.0,-3.0,1
-19.0,-250.0,-74.0,-23.0,76.0,-3.0,1
-16.0,-251.0,-71.0,-20.0,75.0,-2.0,1
-21.0,-253.0,-72.0,-19.0,75.0,-3.0,1
-19.0,-250.0,-73.0,-22.0,75.0,-3.0,1
-17.0,-249.0,-72.0,-23.0,77.0,-4.0,1
-21.0,-246.0,-71.0,-25.0,80.0,-6.0,1
-18.0,-249.0,-71.0,-28.0,82.0,-9.0,1
-17.0,-249.0,-73.0,-28.0,82.0,-7.0,1
-17.0,-250.0,-74.0,-28.0,83.0,-9.0,1
-17.0,-247.0,-73.0,-28.0,85.0,-10.0,1
-19.0,-248.0,-72.0,-26.0,85.0,-9.0,1
-19.0,-250.0,-68.0,-25.0,84.0,-10.0,1
-20.0,-250.0,-69.0,-22.0,85.0,-11.0,1
-17.0,-248.0,-70.0,-23.0,85.0,-10.0,1
-19.0,-248.0,-74.0,-25.0,85.0,-8.0,1
-20.0,-250.0,-72.0,-30.0,85.0,-8.0,1
-19.0,-249.0,-71.0,-32.0,84.0,-8.0,1
-17.0,-248.0,-71.0,-35.0,82.0,-6.0,1
-19.0,-249.0,-68.0,-38.0,80.0,-8.0,1
-20.0,-249.0,-68.0,-41.0,76.0,-7.0,1
-18.0,-251.0,-70.0,-42.0,73.0,-7.0,1
-22.0,-247.0,-71.0,-42.0,71.0,-8.0,1
-21.0,-247.0,-70.0,-41.0,69.0,-8.0,1
-16.0,-250.0,-69.0,-43.0,68.0,-9.0,1
-16.0,-246.0,-70.0,-43.0,69.0,-9.0,1
-18.0,-249.0,-73.0,-41.0,70.0,-9.0,1
-18.0,-251.0,-72.0,-39.0,72.0,-10.0,1
-18.0,-249.0,-72.0,-36.0,72.0,-10.0,1
-17.0,-250.0,-70.0,-34.0,73.0,-12.0,1
-20.0,-251.0,-69.0,-33.0,74.0,-13.0,1
-23.0,-250.0,-72.0,-32.0,76.0,-15.0,1
-19.0,-249.0,-73.0,-32.0,77.0,-15.0,1
-23.0,-249.0,-72.0,-34.0,78.0,-15.0,1
-19.0,-249.0,-73.0,-35.0,79.0,-15.0,1
-17.0,-249.0,-71.0,-36.0,80.0,-15.0,1
-19.0,-246.0,-72.0,-36.0,78.0,-15.0,1
-18.0,-249.0,-69.0,-37.0,78.0,-11.0,1
-22.0,-249.0,-75.0,-37.0,76.0,-9.0,1
-20.0,-249.0,-70.0,-36.0,75.0,-9.0,1
-16.0,-251.0,-72.0,-35.0,73.0,-9.0,1
-18.0,-249.0,-70.0,-33.0,69.0,-8.0,1
-19.0,-252.0,-73.0,-31.0,68.0,-8.0,1
-20.0,-248.0,-73.0,-28.0,63.0,-9.0,1
-21.0,-251.0,-75.0,-27.0,62.0,-7.0,1
-19.0,-249.0,-72.0,-26.0,59.0,-8.0,1
-20.0,-251.0,-73.0,-24.0,59.0,-8.0,1
-13.0,-249.0,-78.0,-22.0,58.0,-9.0,1
-18.0,-249.0,-72.0,-22.0,59.0,-9.0,1
-21.0,-248.0,-72.0,-21.0,58.0,-7.0,1
-20.0,-250.0,-75.0,-20.0,59.0,-8.0,1
-19.0,-249.0,-73.0,-21.0,58.0,-9.0,1
-17.0,-249.0,-70.0,-22.0,61.0,-8.0,1
-19.0,-249.0,-75.0,-21.0,62.0,-8.0,1
-17.0,-250.0,-74.0,-21.0,63.0,-8.0,1
-19.0,-249.0,-71.0,-20.0,65.0,-8.0,1
-20.0,-244.0,-72.0,-21.0,65.0,-8.0,1
-17.0,-250.0,-72.0,-21.0,66.0,-8.0,1
-17.0,-249.0,-76.0,-20.0,65.0,-7.0,1
-19.0,-249.0,-72.0,-18.0,66.0,-6.0,1
-18.0,-249.0,-73.0,-17.0,65.0,-6.0,1
-17.0,-250.0,-71.0,-15.0,64.0,-6.0,1
-17.0,-249.0,-71.0,-14.0,64.0,-6.0,1
-20.0,-249.0,-71.0,-13.0,63.0,-6.0,1
-20.0,-248.0,-74.0,-13.0,63.0,-6.0,1
-19.0,-249.0,-69.0,-13.0,63.0,-5.0,1
-19.0,-250.0,-70.0,-14.0,61.0,-5.0,1
-19.0,-248.0,-72.0,-13.0,61.0,-4.0,1
-24.0,-250.0,-70.0,-14.0,60.0,-4.0,1
-16.0,-241.0,-66.0,-14.0,60.0,-4.0,1
-13.0,-246.0,-81.0,-13.0,61.0,-6.0,1
-17.0,-249.0,-70.0,-14.0,61.0,-5.0,1
-17.0,-251.0,-65.0,-14.0,62.0,-6.0,1
-23.0,-243.0,-68.0,-14.0,63.0,-8.0,1
-17.0,-245.0,-70.0,-14.0,64.0,-8.0,1
-17.0,-254.0,-69.0,-15.0,65.0,-8.0,1
-11.0,-238.0,-86.0,-15.0,65.0,-9.0,1
-21.0,-252.0,-70.0,-15.0,68.0,-9.0,1
-25.0,-242.0,-81.0,-15.0,67.0,-7.0,1
-7.0,-245.0,-71.0,-15.0,69.0,-7.0,1
-18.0,-251.0,-72.0,-13.0,69.0,-8.0,1
-17.0,-249.0,-73.0,-13.0,70.0,-8.0,1
-17.0,-249.0,-77.0,-11.0,69.0,-6.0,1
-20.0,-250.0,-76.0,-11.0,69.0,-6.0,1
-18.0,-247.0,-72.0,-8.0,69.0,-4.0,1
-20.0,-248.0,-75.0,-8.0,68.0,-4.0,1
-21.0,-249.0,-77.0,-7.0,68.0,-3.0,1
-19.0,-249.0,-69.0,-5.0,68.0,-4.0,1
-21.0,-251.0,-73.0,-4.0,68.0,-4.0,1
-19.0,-248.0,-68.0,-3.0,67.0,-5.0,1
-17.0,-242.0,-71.0,-3.0,67.0,-4.0,1
-17.0,-253.0,-76.0,-3.0,68.0,-4.0,1
-21.0,-242.0,-80.0,-3.0,67.0,-4.0,1
-20.0,-250.0,-59.0,-2.0,67.0,-4.0,1
-20.0,-248.0,-75.0,-3.0,68.0,-3.0,1
-18.0,-250.0,-73.0,-1.0,68.0,-3.0,1
-18.0,-248.0,-74.0,-1.0,68.0,-4.0,1
-20.0,-247.0,-70.0,-2.0,69.0,-4.0,1
-22.0,-253.0,-69.0,-4.0,69.0,-3.0,1
-24.0,-248.0,-75.0,-5.0,69.0,-4.0,1
-26.0,-251.0,-68.0,-6.0,71.0,-5.0,1
-19.0,-244.0,-68.0,-6.0,72.0,-5.0,1
-18.0,-251.0,-72.0,-7.0,75.0,-3.0,1
-15.0,-247.0,-69.0,-8.0,77.0,-2.0,1
-22.0,-251.0,-70.0,-8.0,80.0,-3.0,1
-28.0,-249.0,-70.0,-8.0,87.0,-1.0,1
-22.0,-261.0,-72.0,-8.0,93.0,0.0,1
-22.0,-245.0,-82.0,-8.0,100.0,0.0,1
-16.0,-239.0,-69.0,-7.0,107.0,0.0,1
-20.0,-246.0,-65.0,-7.0,112.0,0.0,1
-18.0,-248.0,-72.0,-7.0,117.0,-2.0,1
-17.0,-247.0,-73.0,-6.0,119.0,-3.0,1
-20.0,-249.0,-69.0,-7.0,120.0,-6.0,1
-17.0,-252.0,-69.0,-6.0,118.0,-8.0,1
-23.0,-249.0,-76.0,-6.0,117.0,-10.0,1
-22.0,-248.0,-68.0,-6.0,117.0,-9.0,1
-10.0,-241.0,-63.0,-7.0,113.0,-9.0,1
-26.0,-245.0,-67.0,-7.0,111.0,-11.0,1
-21.0,-251.0,-71.0,-8.0,108.0,-12.0,1
-14.0,-245.0,-56.0,-10.0,104.0,-13.0,1
-17.0,-248.0,-88.0,-10.0,101.0,-13.0,1
-11.0,-246.0,-54.0,-11.0,99.0,-12.0,1
-26.0,-244.0,-62.0,-12.0,95.0,-11.0,1
-10.0,-246.0,-68.0,-12.0,94.0,-10.0,1
-24.0,-247.0,-69.0,-10.0,92.0,-10.0,1
-18.0,-251.0,-72.0,-10.0,93.0,-9.0,1
-19.0,-247.0,-72.0,-9.0,91.0,-10.0,1
-17.0,-251.0,-74.0,-6.0,90.0,-9.0,1
-18.0,-249.0,-69.0,-6.0,90.0,-8.0,1
-17.0,-257.0,-65.0,-7.0,89.0,-9.0,1
-12.0,-247.0,-70.0,-8.0,87.0,-9.0,1
-24.0,-245.0,-69.0,-12.0,85.0,-8.0,1
-26.0,-248.0,-80.0,-13.0,84.0,-9.0,1
-24.0,-248.0,-79.0,-14.0,82.0,-9.0,1
-16.0,-247.0,-68.0,-13.0,80.0,-7.0,1
-28.0,-245.0,-63.0,-14.0,77.0,-6.0,1
-33.0,-249.0,-67.0,-14.0,74.0,-6.0,1
-28.0,-251.0,-86.0,-15.0,74.0,-6.0,1
-16.0,-241.0,-82.0,-14.0,72.0,-5.0,1
-23.0,-242.0,-52.0,-14.0,69.0,-4.0,1
-23.0,-231.0,-81.0,-14.0,67.0,-4.0,1
-21.0,-247.0,-70.0,-13.0,65.0,-3.0,1
-20.0,-248.0,-71.0,-15.0,64.0,-4.0,1
-20.0,-249.0,-73.0,-17.0,63.0,-4.0,1
-18.0,-246.0,-71.0,-20.0,62.0,-6.0,1
-29.0,-250.0,-63.0,-23.0,64.0,-6.0,1
-16.0,-248.0,-66.0,-26.0,63.0,-8.0,1
-21.0,-250.0,-73.0,-25.0,62.0,-9.0,1
-16.0,-248.0,-68.0,-23.0,60.0,-10.0,1
-22.0,-251.0,-74.0,-20.0,59.0,-8.0,1
-25.0,-249.0,-78.0,-20.0,58.0,-7.0,1
-16.0,-247.0,-69.0,-17.0,55.0,-6.0,1
-17.0,-252.0,-78.0,-17.0,53.0,-5.0,1
-20.0,-252.0,-72.0,-17.0,52.0,-5.0,1
-17.0,-252.0,-77.0,-17.0,51.0,-4.0,1
-19.0,-253.0,-66.0,-19.0,48.0,-3.0,1
-18.0,-249.0,-73.0,-22.0,46.0,-4.0,1
-23.0,-245.0,-70.0,-24.0,45.0,-4.0,1
-15.0,-250.0,-71.0,-26.0,43.0,-4.0,1
-16.0,-253.0,-67.0,-26.0,41.0,-4.0,1
-23.0,-252.0,-68.0,-26.0,40.0,-1.0,1
-22.0,-253.0,-70.0,-25.0,41.0,-2.0,1
-13.0,-253.0,-64.0,-26.0,40.0,-3.0,1
-15.0,-249.0,-66.0,-25.0,41.0,-4.0,1
-19.0,-246.0,-68.0,-25.0,42.0,-5.0,1
-18.0,-238.0,-72.0,-22.0,43.0,-6.0,1
-20.0,-250.0,-76.0,-20.0,43.0,-6.0,1
-14.0,-247.0,-72.0,-18.0,42.0,-6.0,1
-21.0,-250.0,-69.0,-19.0,44.0,-6.0,1
-21.0,-250.0,-70.0,-19.0,44.0,-7.0,1
-21.0,-248.0,-77.0,-21.0,45.0,-7.0,1
-17.0,-250.0,-72.0,-23.0,46.0,-5.0,1
-17.0,-250.0,-71.0,-23.0,46.0,-4.0,1
-15.0,-250.0,-76.0,-24.0,47.0,-6.0,1
-10.0,-252.0,-82.0,-25.0,47.0,-4.0,1
-19.0,-248.0,-71.0,-24.0,47.0,-4.0,1
-18.0,-248.0,-71.0,-23.0,47.0,-5.0,1
-17.0,-249.0,-74.0,-21.0,47.0,-5.0,1
-19.0,-248.0,-74.0,-21.0,46.0,-4.0,1
-23.0,-244.0,-61.0,-21.0,46.0,-3.0,1
-16.0,-249.0,-76.0,-19.0,46.0,-4.0,1
-17.0,-251.0,-74.0,-18.0,45.0,-3.0,1
-15.0,-249.0,-72.0,-18.0,45.0,-3.0,1
-17.0,-248.0,-72.0,-19.0,46.0,-4.0,1
-7.0,-247.0,-81.0,-19.0,47.0,-3.0,1
-16.0,-253.0,-75.0,-20.0,47.0,-3.0,1
-17.0,-249.0,-72.0,-22.0,49.0,-2.0,1
-19.0,-248.0,-75.0,-24.0,50.0,-3.0,1
-16.0,-247.0,-73.0,-26.0,52.0,-4.0,1
-18.0,-249.0,-74.0,-26.0,55.0,-3.0,1
-18.0,-249.0,-76.0,-26.0,57.0,-3.0,1
-18.0,-248.0,-72.0,-27.0,59.0,-3.0,1
-17.0,-248.0,-71.0,-29.0,60.0,-3.0,1
-18.0,-246.0,-74.0,-29.0,62.0,-4.0,1
-17.0,-250.0,-71.0,-30.0,63.0,-4.0,1
-17.0,-248.0,-77.0,-28.0,64.0,-2.0,1
-16.0,-250.0,-75.0,-28.0,65.0,-2.0,1
-17.0,-251.0,-72.0,-29.0,67.0,-2.0,1
-18.0,-247.0,-75.0,-30.0,67.0,-1.0,1
-19.0,-248.0,-77.0,-33.0,68.0,-1.0,1
-18.0,-247.0,-77.0,-31.0,69.0,0.0,1
-18.0,-249.0,-72.0,-31.0,69.0,1.0,1
-17.0,-249.0,-76.0,-31.0,68.0,2.0,1
-16.0,-251.0,-75.0,-31.0,68.0,1.0,1
-18.0,-247.0,-73.0,-33.0,67.0,2.0,1
-19.0,-249.0,-76.0,-34.0,68.0,1.0,1
-19.0,-248.0,-71.0,-37.0,68.0,3.0,1
-16.0,-248.0,-75.0,-39.0,73.0,4.0,1
-18.0,-244.0,-76.0,-43.0,77.0,6.0,1
-17.0,-246.0,-77.0,-50.0,81.0,7.0,1
-17.0,-246.0,-77.0,-57.0,86.0,8.0,1
-15.0,-247.0,-78.0,-63.0,91.0,10.0,1
-19.0,-248.0,-78.0,-67.0,95.0,9.0,1
-16.0,-247.0,-77.0,-72.0,97.0,11.0,1
-20.0,-247.0,-77.0,-75.0,100.0,12.0,1
-18.0,-244.0,-77.0,-77.0,101.0,15.0,1
-18.0,-247.0,-76.0,-79.0,103.0,14.0,1
-17.0,-249.0,-75.0,-76.0,103.0,15.0,1
-18.0,-248.0,-79.0,-73.0,101.0,15.0,1
-20.0,-249.0,-77.0,-70.0,98.0,13.0,1
-18.0,-245.0,-79.0,-68.0,98.0,12.0,1
-13.0,-245.0,-81.0,-67.0,96.0,12.0,1
-20.0,-251.0,-77.0,-63.0,95.0,11.0,1
-21.0,-247.0,-80.0,-58.0,91.0,9.0,1
-22.0,-243.0,-82.0,-56.0,90.0,9.0,1
-20.0,-249.0,-81.0,-52.0,88.0,9.0,1
-19.0,-250.0,-83.0,-47.0,87.0,8.0,1
-17.0,-251.0,-81.0,-42.0,86.0,7.0,1
-19.0,-247.0,-86.0,-39.0,87.0,8.0,1
-21.0,-244.0,-84.0,-40.0,86.0,8.0,1
-19.0,-244.0,-80.0,-41.0,85.0,6.0,1
-21.0,-244.0,-85.0,-46.0,84.0,7.0,1
-21.0,-242.0,-88.0,-50.0,84.0,8.0,1
-19.0,-243.0,-84.0,-56.0,84.0,9.0,1
-21.0,-243.0,-82.0,-62.0,83.0,10.0,1
-21.0,-242.0,-88.0,-71.0,82.0,10.0,1
-20.0,-240.0,-85.0,-80.0,80.0,9.0,1
-17.0,-242.0,-86.0,-89.0,79.0,10.0,1
-20.0,-241.0,-86.0,-99.0,78.0,10.0,1
-20.0,-242.0,-89.0,-109.0,77.0,10.0,1
-19.0,-245.0,-90.0,-120.0,75.0,9.0,1
-19.0,-242.0,-84.0,-130.0,74.0,12.0,1
-16.0,-238.0,-88.0,-140.0,74.0,11.0,1
-21.0,-240.0,-91.0,-152.0,72.0,11.0,1
-18.0,-240.0,-91.0,-165.0,72.0,9.0,1
-19.0,-236.0,-93.0,-177.0,71.0,7.0,1
-19.0,-240.0,-92.0,-191.0,69.0,7.0,1
-19.0,-235.0,-95.0,-205.0,70.0,6.0,1
-17.0,-237.0,-93.0,-220.0,70.0,6.0,1
-20.0,-238.0,-94.0,-233.0,70.0,5.0,1
-17.0,-238.0,-96.0,-246.0,71.0,3.0,1
-19.0,-237.0,-95.0,-261.0,73.0,1.0,1
-18.0,-238.0,-96.0,-275.0,72.0,0.0,1
-17.0,-238.0,-94.0,-287.0,71.0,-3.0,1
-19.0,-233.0,-95.0,-301.0,70.0,-6.0,1
-22.0,-234.0,-95.0,-312.0,69.0,-8.0,1
-19.0,-234.0,-92.0,-323.0,68.0,-7.0,1
-20.0,-234.0,-97.0,-334.0,67.0,-8.0,1
-20.0,-231.0,-94.0,-344.0,68.0,-11.0,1
-22.0,-232.0,-94.0,-353.0,67.0,-13.0,1
-20.0,-232.0,-96.0,-362.0,68.0,-16.0,1
-18.0,-232.0,-97.0,-376.0,67.0,-18.0,1
-20.0,-231.0,-100.0,-390.0,68.0,-19.0,1
-23.0,-229.0,-98.0,-405.0,72.0,-23.0,1
-18.0,-230.0,-101.0,-419.0,75.0,-25.0,1
-21.0,-231.0,-104.0,-435.0,77.0,-29.0,1
-19.0,-228.0,-106.0,-454.0,79.0,-30.0,1
-19.0,-227.0,-106.0,-474.0,84.0,-31.0,1
-14.0,-230.0,-104.0,-495.0,86.0,-30.0,1
-15.0,-227.0,-103.0,-515.0,92.0,-31.0,1
-14.0,-232.0,-105.0,-530.0,95.0,-31.0,1
-16.0,-228.0,-102.0,-546.0,99.0,-31.0,1
-17.0,-229.0,-105.0,-557.0,101.0,-30.0,1
-13.0,-229.0,-108.0,-568.0,101.0,-28.0,1
-13.0,-233.0,-108.0,-579.0,101.0,-26.0,1
-13.0,-231.0,-106.0,-583.0,103.0,-25.0,1
-15.0,-232.0,-105.0,-583.0,106.0,-22.0,1
-19.0,-229.0,-103.0,-575.0,105.0,-21.0,1
-19.0,-229.0,-105.0,-567.0,105.0,-16.0,1
-15.0,-235.0,-109.0,-552.0,102.0,-6.0,1
-15.0,-239.0,-104.0,-538.0,102.0,3.0,1
-15.0,-236.0,-105.0,-513.0,101.0,10.0,1
-20.0,-229.0,-105.0,-475.0,103.0,20.0,1
-18.0,-226.0,-110.0,-429.0,104.0,37.0,1
-14.0,-222.0,-112.0,-406.0,103.0,45.0,1
-20.0,-220.0,-105.0,-435.0,109.0,33.0,1
-19.0,-221.0,-105.0,-458.0,110.0,27.0,1
-24.0,-218.0,-115.0,-446.0,103.0,26.0,1
-21.0,-218.0,-108.0,-427.0,103.0,29.0,1
-18.0,-213.0,-110.0,-405.0,101.0,39.0,1
-14.0,-217.0,-112.0,-410.0,102.0,34.0,1
-21.0,-215.0,-110.0,-434.0,115.0,32.0,1
-22.0,-216.0,-108.0,-465.0,120.0,38.0,1
-16.0,-222.0,-111.0,-485.0,114.0,52.0,1
-25.0,-220.0,-113.0,-479.0,98.0,59.0,1
-15.0,-225.0,-115.0,-461.0,86.0,60.0,1
-19.0,-223.0,-109.0,-458.0,83.0,58.0,1
-23.0,-225.0,-108.0,-451.0,74.0,62.0,1
-19.0,-218.0,-108.0,-433.0,66.0,60.0,1
-19.0,-217.0,-111.0,-429.0,50.0,65.0,1
-18.0,-207.0,-113.0,-442.0,34.0,68.0,1
-20.0,-208.0,-107.0,-481.0,36.0,73.0,1
-17.0,-206.0,-113.0,-535.0,40.0,78.0,1
-19.0,-206.0,-111.0,-589.0,46.0,79.0,1
-22.0,-205.0,-112.0,-629.0,56.0,75.0,1
-20.0,-205.0,-113.0,-646.0,63.0,79.0,1
-22.0,-208.0,-108.0,-655.0,64.0,84.0,1
-23.0,-208.0,-107.0,-651.0,63.0,82.0,1
-22.0,-208.0,-111.0,-648.0,60.0,83.0,1
-25.0,-213.0,-112.0,-648.0,58.0,86.0,1
-24.0,-211.0,-118.0,-624.0,54.0,84.0,1
-21.0,-213.0,-118.0,-603.0,51.0,80.0,1
-19.0,-213.0,-122.0,-595.0,47.0,78.0,1
-22.0,-214.0,-123.0,-599.0,48.0,70.0,1
-23.0,-210.0,-126.0,-607.0,43.0,69.0,1
-22.0,-213.0,-127.0,-624.0,32.0,67.0,1
-24.0,-215.0,-126.0,-629.0,26.0,60.0,1
-25.0,-213.0,-129.0,-620.0,25.0,53.0,1
-29.0,-211.0,-126.0,-612.0,17.0,49.0,1
-28.0,-209.0,-129.0,-604.0,12.0,44.0,1
-30.0,-201.0,-133.0,-603.0,10.0,42.0,1
-31.0,-198.0,-130.0,-619.0,13.0,34.0,1
-31.0,-198.0,-130.0,-630.0,20.0,34.0,1
-30.0,-200.0,-133.0,-632.0,24.0,28.0,1
-30.0,-198.0,-136.0,-627.0,23.0,19.0,1
-32.0,-199.0,-135.0,-619.0,23.0,9.0,1
-29.0,-200.0,-135.0,-614.0,30.0,1.0,1
-24.0,-203.0,-132.0,-609.0,36.0,-5.0,1
-30.0,-203.0,-136.0,-595.0,45.0,-20.0,1
-21.0,-205.0,-134.0,-590.0,54.0,-28.0,1
-25.0,-199.0,-138.0,-599.0,71.0,-39.0,1
-21.0,-204.0,-137.0,-613.0,94.0,-49.0,1
-20.0,-203.0,-139.0,-615.0,111.0,-60.0,1
-15.0,-199.0,-141.0,-618.0,125.0,-69.0,1
-17.0,-201.0,-139.0,-623.0,135.0,-76.0,1
-20.0,-193.0,-142.0,-627.0,142.0,-80.0,1
-16.0,-192.0,-139.0,-636.0,146.0,-82.0,1
-12.0,-191.0,-138.0,-642.0,146.0,-81.0,1
-8.0,-190.0,-134.0,-646.0,141.0,-77.0,1
-9.0,-191.0,-133.0,-657.0,147.0,-77.0,1
-3.0,-192.0,-134.0,-668.0,145.0,-72.0,1
-9.0,-189.0,-135.0,-671.0,141.0,-66.0,1
-1.0,-190.0,-140.0,-682.0,138.0,-63.0,1
-6.0,-190.0,-139.0,-703.0,140.0,-57.0,1
-4.0,-193.0,-137.0,-725.0,142.0,-48.0,1
-4.0,-199.0,-141.0,-742.0,149.0,-46.0,1
-5.0,-199.0,-149.0,-754.0,158.0,-43.0,1
-10.0,-194.0,-147.0,-762.0,167.0,-38.0,1
-9.0,-194.0,-150.0,-765.0,170.0,-30.0,1
-12.0,-195.0,-153.0,-763.0,174.0,-24.0,1
-12.0,-196.0,-151.0,-760.0,185.0,-12.0,1
-16.0,-192.0,-148.0,-759.0,194.0,-2.0,1
-19.0,-192.0,-149.0,-743.0,198.0,9.0,1
-16.0,-191.0,-148.0,-715.0,204.0,19.0,1
-14.0,-191.0,-152.0,-710.0,210.0,30.0,1
-15.0,-187.0,-150.0,-713.0,216.0,40.0,1
-12.0,-189.0,-149.0,-710.0,216.0,53.0,1
-13.0,-184.0,-153.0,-709.0,210.0,66.0,1
-9.0,-184.0,-155.0,-711.0,203.0,77.0,1
-12.0,-181.0,-157.0,-717.0,193.0,88.0,1
-12.0,-183.0,-156.0,-728.0,179.0,96.0,1
-13.0,-180.0,-159.0,-736.0,164.0,101.0,1
-19.0,-180.0,-162.0,-739.0,149.0,106.0,1
-20.0,-179.0,-163.0,-740.0,135.0,106.0,1
-22.0,-179.0,-161.0,-744.0,124.0,106.0,1
-27.0,-179.0,-157.0,-748.0,115.0,105.0,1
-31.0,-178.0,-158.0,-753.0,108.0,105.0,1
-34.0,-175.0,-160.0,-751.0,99.0,100.0,1
-33.0,-174.0,-157.0,-743.0,87.0,92.0,1
-35.0,-175.0,-156.0,-733.0,75.0,87.0,1
-36.0,-172.0,-154.0,-717.0,64.0,82.0,1
-33.0,-171.0,-152.0,-699.0,52.0,74.0,1
-32.0,-165.0,-155.0,-690.0,41.0,65.0,1
-27.0,-166.0,-157.0,-690.0,26.0,56.0,1
-28.0,-164.0,-164.0,-698.0,12.0,47.0,1
-24.0,-159.0,-166.0,-708.0,-3.0,38.0,1
-24.0,-160.0,-164.0,-719.0,-21.0,30.0,1
-26.0,-159.0,-166.0,-730.0,-36.0,17.0,1
-25.0,-160.0,-169.0,-736.0,-50.0,2.0,1
-26.0,-160.0,-168.0,-743.0,-61.0,-12.0,1
-22.0,-159.0,-168.0,-748.0,-72.0,-20.0,1
-27.0,-160.0,-166.0,-755.0,-78.0,-29.0,1
-29.0,-164.0,-165.0,-746.0,-85.0,-42.0,1
-31.0,-161.0,-163.0,-730.0,-85.0,-50.0,1
-32.0,-166.0,-158.0,-711.0,-85.0,-51.0,1
-31.0,-166.0,-157.0,-695.0,-88.0,-49.0,1
-28.0,-161.0,-159.0,-689.0,-89.0,-46.0,1
-27.0,-161.0,-163.0,-686.0,-91.0,-45.0,1
-25.0,-157.0,-161.0,-683.0,-94.0,-42.0,1
-23.0,-155.0,-169.0,-684.0,-97.0,-36.0,1
-17.0,-149.0,-173.0,-690.0,-102.0,-27.0,1
-19.0,-146.0,-175.0,-701.0,-107.0,-19.0,1
-14.0,-143.0,-183.0,-712.0,-113.0,-27.0,1
-11.0,-136.0,-183.0,-725.0,-122.0,-33.0,1
-10.0,-140.0,-185.0,-739.0,-126.0,-35.0,1
-10.0,-139.0,-186.0,-747.0,-129.0,-33.0,1
-9.0,-141.0,-189.0,-747.0,-130.0,-33.0,1
-12.0,-144.0,-184.0,-745.0,-129.0,-37.0,1
-12.0,-144.0,-184.0,-743.0,-121.0,-39.0,1
-9.0,-148.0,-178.0,-746.0,-114.0,-39.0,1
-14.0,-145.0,-179.0,-750.0,-109.0,-29.0,1
-16.0,-144.0,-166.0,-737.0,-108.0,-30.0,1
-16.0,-147.0,-161.0,-714.0,-106.0,-30.0,1
-16.0,-146.0,-161.0,-689.0,-106.0,-27.0,1
-14.0,-142.0,-166.0,-676.0,-104.0,-25.0,1
-15.0,-140.0,-173.0,-666.0,-98.0,-23.0,1
-13.0,-135.0,-175.0,-661.0,-89.0,-17.0,1
-17.0,-131.0,-188.0,-662.0,-79.0,-12.0,1
-16.0,-123.0,-192.0,-680.0,-67.0,-8.0,1
-16.0,-120.0,-192.0,-711.0,-55.0,-17.0,1
-15.0,-116.0,-194.0,-732.0,-46.0,-25.0,1
-15.0,-109.0,-192.0,-747.0,-46.0,-26.0,1
-16.0,-110.0,-192.0,-741.0,-48.0,-23.0,1
-20.0,-111.0,-192.0,-725.0,-47.0,-13.0,1
-17.0,-106.0,-186.0,-717.0,-42.0,0.0,1
-21.0,-107.0,-182.0,-713.0,-38.0,0.0,1
-24.0,-104.0,-175.0,-716.0,-36.0,2.0,1
-23.0,-105.0,-180.0,-726.0,-33.0,5.0,1
-25.0,-103.0,-167.0,-746.0,-33.0,10.0,1
-23.0,-105.0,-175.0,-786.0,-37.0,20.0,1
-23.0,-111.0,-158.0,-875.0,-63.0,32.0,1
-23.0,-115.0,-162.0,-928.0,-92.0,36.0,1
-23.0,-114.0,-169.0,-960.0,-114.0,40.0,1
-19.0,-112.0,-183.0,-971.0,-124.0,53.0,1
-22.0,-111.0,-198.0,-975.0,-140.0,69.0,1
-20.0,-112.0,-216.0,-942.0,-148.0,82.0,1
-16.0,-107.0,-227.0,-864.0,-122.0,118.0,1
-16.0,-106.0,-228.0,-750.0,-62.0,144.0,1
-20.0,-101.0,-238.0,-578.0,-7.0,168.0,1
-11.0,-95.0,-241.0,-392.0,64.0,191.0,1
-3.0,-87.0,-239.0,-192.0,162.0,239.0,1
-6.0,-79.0,-224.0,-23.0,261.0,265.0,1
-2.0,-76.0,-210.0,68.0,332.0,258.0,1
4.0,-69.0,-187.0,81.0,365.0,240.0,1
5.0,-55.0,-168.0,44.0,378.0,214.0,1
6.0,-34.0,-153.0,-57.0,374.0,187.0,1
10.0,-17.0,-135.0,-220.0,361.0,159.0,1
10.0,-2.0,-118.0,-433.0,329.0,134.0,1
12.0,1.0,-107.0,-669.0,266.0,110.0,1
14.0,3.0,-95.0,-911.0,184.0,88.0,1
11.0,4.0,-101.0,-1155.0,103.0,81.0,1
2.0,5.0,-97.0,-1404.0,37.0,58.0,1
-9.0,-4.0,-93.0,-1632.0,-11.0,20.0,1
-14.0,-23.0,-85.0,-1831.0,-63.0,-24.0,1
-22.0,-27.0,-104.0,-2020.0,-148.0,-91.0,1
-26.0,-42.0,-105.0,-2179.0,-208.0,-133.0,1
-35.0,-47.0,-124.0,-2289.0,-255.0,-174.0,1
-42.0,-56.0,-128.0,-2330.0,-257.0,-180.0,1
-53.0,-57.0,-153.0,-2258.0,-231.0,-185.0,1
-48.0,-52.0,-179.0,-2167.0,-213.0,-177.0,1
-61.0,-59.0,-189.0,-2079.0,-152.0,-145.0,1
-77.0,-73.0,-196.0,-1979.0,-106.0,-131.0,1
-62.0,-75.0,-202.0,-1901.0,-129.0,-127.0,1
-61.0,-83.0,-218.0,-1808.0,-132.0,-110.0,1
-61.0,-82.0,-206.0,-1760.0,-120.0,-91.0,1
-47.0,-79.0,-200.0,-1763.0,-103.0,-60.0,1
-32.0,-93.0,-203.0,-1841.0,-85.0,-18.0,1
-31.0,-79.0,-187.0,-1965.0,-46.0,-25.0,1
2.0,-87.0,-160.0,-2090.0,-27.0,-5.0,1
-12.0,-76.0,-147.0,-2168.0,-6.0,-26.0,1
-8.0,-61.0,-147.0,-2208.0,23.0,-52.0,1
6.0,-49.0,-137.0,-2295.0,25.0,-61.0,1
12.0,-39.0,-138.0,-2367.0,31.0,-91.0,1
24.0,-25.0,-128.0,-2425.0,48.0,-153.0,1
25.0,-29.0,-129.0,-2380.0,85.0,-148.0,1
24.0,-29.0,-129.0,-2291.0,131.0,-129.0,1
34.0,-30.0,-149.0,-2162.0,161.0,-110.0,1
15.0,-27.0,-153.0,-2063.0,210.0,-109.0,1
21.0,-50.0,-170.0,-1978.0,296.0,-84.0,1
6.0,-30.0,-170.0,-1875.0,380.0,-106.0,1
6.0,-45.0,-173.0,-1771.0,451.0,-76.0,1
2.0,-45.0,-189.0,-1724.0,501.0,-60.0,1
-4.0,-52.0,-183.0,-1690.0,549.0,-38.0,1
-13.0,-64.0,-179.0,-1596.0,547.0,-8.0,1
-13.0,-60.0,-184.0,-1430.0,525.0,16.0,1
-19.0,-55.0,-170.0,-1285.0,511.0,22.0,1
-16.0,-50.0,-166.0,-1164.0,490.0,4.0,1
-23.0,-48.0,-170.0,-1057.0,498.0,25.0,1
-29.0,-35.0,-180.0,-981.0,520.0,49.0,1
-20.0,-34.0,-172.0,-942.0,565.0,96.0,1
-13.0,-23.0,-168.0,-870.0,584.0,122.0,1
-8.0,-29.0,-160.0,-765.0,563.0,157.0,1
-19.0,-22.0,-156.0,-670.0,493.0,151.0,1
-9.0,-6.0,-158.0,-595.0,422.0,150.0,1
-18.0,-10.0,-149.0,-523.0,396.0,229.0,1
-28.0,-21.0,-146.0,-439.0,331.0,288.0,1
-40.0,-26.0,-152.0,-351.0,262.0,274.0,1
-47.0,-30.0,-166.0,-260.0,202.0,243.0,1
-50.0,-27.0,-185.0,-149.0,161.0,220.0,1
-43.0,-36.0,-185.0,-50.0,117.0,219.0,1
-36.0,-32.0,-192.0,44.0,65.0,204.0,1
-39.0,-20.0,-203.0,148.0,22.0,197.0,1
-28.0,-26.0,-196.0,270.0,4.0,184.0,1
-13.0,-19.0,-209.0,403.0,13.0,192.0,1
-10.0,-29.0,-204.0,531.0,21.0,234.0,1
-16.0,-27.0,-211.0,665.0,11.0,240.0,1
-21.0,-22.0,-201.0,777.0,-2.0,246.0,1
-45.0,-17.0,-192.0,860.0,-28.0,254.0,1
-45.0,-21.0,-193.0,921.0,-69.0,256.0,1
-53.0,-16.0,-193.0,978.0,-97.0,245.0,1
-48.0,-33.0,-200.0,1033.0,-134.0,230.0,1
-46.0,-33.0,-203.0,1122.0,-170.0,202.0,1
-48.0,-53.0,-211.0,1243.0,-204.0,175.0,1
-47.0,-64.0,-223.0,1403.0,-239.0,144.0,1
-33.0,-67.0,-229.0,1584.0,-259.0,115.0,1
-31.0,-68.0,-259.0,1776.0,-252.0,102.0,1
-31.0,-63.0,-269.0,1982.0,-223.0,100.0,1
-27.0,-57.0,-266.0,2176.0,-173.0,116.0,1
-34.0,-49.0,-268.0,2363.0,-122.0,150.0,1
-27.0,-44.0,-258.0,2541.0,-84.0,203.0,1
-27.0,-43.0,-238.0,2717.0,-66.0,250.0,1
-33.0,-51.0,-233.0,2888.0,-87.0,280.0,1
-34.0,-60.0,-236.0,3059.0,-135.0,300.0,1
-41.0,-67.0,-232.0,3216.0,-192.0,307.0,1
-44.0,-76.0,-230.0,3373.0,-251.0,308.0,1
-46.0,-91.0,-235.0,3538.0,-313.0,299.0,1
-46.0,-108.0,-245.0,3711.0,-375.0,277.0,1
-68.0,-131.0,-242.0,3890.0,-435.0,256.0,1
-55.0,-154.0,-253.0,4078.0,-499.0,228.0,1
-101.0,-179.0,-262.0,4273.0,-550.0,205.0,1
-102.0,-213.0,-286.0,4469.0,-609.0,184.0,1
-31.0,-227.0,-310.0,4684.0,-645.0,128.0,1
-3.0,-213.0,-350.0,4913.0,-609.0,73.0,1
-38.0,-196.0,-398.0,5092.0,-563.0,105.0,1
-40.0,-180.0,-441.0,5141.0,-565.0,134.0,1
18.0,-166.0,-454.0,5066.0,-540.0,117.0,1
25.0,-163.0,-481.0,4989.0,-503.0,98.0,1
49.0,-156.0,-504.0,4919.0,-483.0,80.0,1
34.0,-203.0,-527.0,4842.0,-419.0,56.0,1
17.0,-212.0,-517.0,4716.0,-290.0,29.0,1
29.0,-305.0,-516.0,4564.0,-158.0,69.0,1
35.0,-385.0,-534.0,4429.0,-46.0,56.0,1
33.0,-458.0,-555.0,4311.0,35.0,40.0,1
12.0,-486.0,-574.0,4160.0,70.0,56.0,1
-12.0,-498.0,-591.0,3957.0,60.0,121.0,1
-23.0,-541.0,-596.0,3876.0,-20.0,48.0,1
-99.0,-622.0,-595.0,3926.0,-72.0,11.0,1
-123.0,-630.0,-605.0,4042.0,-104.0,-28.0,1
-108.0,-620.0,-616.0,4160.0,-52.0,-157.0,1
-118.0,-638.0,-570.0,4290.0,136.0,-283.0,1
-102.0,-607.0,-538.0,4576.0,364.0,-386.0,1
-73.0,-560.0,-480.0,4924.0,568.0,-537.0,1
-39.0,-517.0,-398.0,5311.0,770.0,-681.0,1
-34.0,-479.0,-316.0,5719.0,969.0,-828.0,1
-57.0,-447.0,-214.0,6104.0,1139.0,-937.0,1
-55.0,-430.0,-128.0,6474.0,1299.0,-944.0,1
-86.0,-401.0,-62.0,6754.0,1433.0,-900.0,1
-82.0,-329.0,-28.0,6888.0,1504.0,-790.0,1
-122.0,-262.0,-2.0,6897.0,1519.0,-639.0,1
-126.0,-155.0,-15.0,6702.0,1513.0,-563.0,1
-143.0,-84.0,22.0,6248.0,1546.0,-477.0,1
-146.0,-57.0,44.0,5735.0,1555.0,-330.0,1
-139.0,-26.0,44.0,5248.0,1470.0,-201.0,1
-158.0,-15.0,56.0,4698.0,1283.0,-101.0,1
-170.0,-10.0,60.0,4109.0,1023.0,19.0,1
-160.0,-35.0,63.0,3514.0,671.0,158.0,1
-150.0,-56.0,62.0,2964.0,299.0,264.0,1
-125.0,-67.0,69.0,2485.0,-16.0,351.0,1
-101.0,-84.0,54.0,2128.0,-242.0,426.0,1
-62.0,-68.0,20.0,1860.0,-381.0,434.0,1
-40.0,-56.0,2.0,1613.0,-436.0,426.0,1
-21.0,-56.0,-8.0,1357.0,-419.0,418.0,1
-13.0,-63.0,-13.0,1112.0,-353.0,401.0,1
-5.0,-87.0,-15.0,912.0,-273.0,366.0,1
0.0,-105.0,-18.0,786.0,-190.0,313.0,1
-5.0,-123.0,-11.0,720.0,-116.0,254.0,1
-1.0,-131.0,-11.0,687.0,-51.0,195.0,1
4.0,-137.0,1.0,674.0,6.0,134.0,1
12.0,-145.0,4.0,675.0,40.0,78.0,1
6.0,-145.0,11.0,669.0,53.0,32.0,1
-5.0,-147.0,26.0,648.0,49.0,8.0,1
-5.0,-152.0,39.0,629.0,28.0,-9.0,1
-2.0,-154.0,52.0,606.0,0.0,-23.0,1
-3.0,-154.0,60.0,571.0,-16.0,-32.0,1
-5.0,-158.0,68.0,525.0,-34.0,-30.0,1
-12.0,-170.0,86.0,491.0,-50.0,-31.0,1
-20.0,-190.0,97.0,483.0,-53.0,-20.0,1
-36.0,-209.0,99.0,486.0,-47.0,1.0,1
-33.0,-228.0,102.0,468.0,-54.0,26.0,1
-36.0,-238.0,97.0,432.0,-69.0,43.0,1
-22.0,-249.0,106.0,401.0,-77.0,63.0,1
-12.0,-259.0,103.0,389.0,-82.0,64.0,1
-9.0,-277.0,106.0,406.0,-74.0,62.0,1
-37.0,-305.0,120.0,474.0,-65.0,54.0,1
-35.0,-335.0,126.0,603.0,-78.0,54.0,1
-36.0,-344.0,126.0,759.0,-90.0,36.0,1
-37.0,-358.0,137.0,933.0,-96.0,5.0,1
-39.0,-375.0,145.0,1158.0,-108.0,-39.0,1
-56.0,-384.0,165.0,1437.0,-120.0,-81.0,1
-54.0,-394.0,161.0,1767.0,-141.0,-123.0,1
-42.0,-402.0,174.0,2113.0,-155.0,-173.0,1
-42.0,-390.0,176.0,2438.0,-156.0,-223.0,1
-43.0,-374.0,187.0,2711.0,-156.0,-254.0,1
-43.0,-337.0,191.0,2921.0,-149.0,-287.0,1
-45.0,-314.0,186.0,3063.0,-126.0,-335.0,1
-34.0,-303.0,190.0,3144.0,-86.0,-390.0,1
-23.0,-288.0,180.0,3178.0,-37.0,-458.0,1
-11.0,-274.0,173.0,3178.0,41.0,-516.0,1
-25.0,-255.0,164.0,3162.0,144.0,-545.0,1
-33.0,-246.0,160.0,3169.0,227.0,-550.0,1
-25.0,-244.0,154.0,3203.0,264.0,-538.0,1
-30.0,-241.0,153.0,3249.0,276.0,-528.0,1
-34.0,-245.0,149.0,3300.0,275.0,-503.0,1
-27.0,-240.0,148.0,3339.0,269.0,-484.0,1
-25.0,-227.0,133.0,3342.0,266.0,-477.0,1
-27.0,-218.0,128.0,3294.0,272.0,-458.0,1
-29.0,-205.0,125.0,3191.0,286.0,-431.0,1
-21.0,-199.0,124.0,3040.0,305.0,-399.0,1
-20.0,-194.0,131.0,2865.0,329.0,-370.0,1
-29.0,-183.0,132.0,2684.0,348.0,-351.0,1
-29.0,-182.0,136.0,2501.0,370.0,-314.0,1
-26.0,-179.0,148.0,2312.0,381.0,-278.0,1
-16.0,-173.0,157.0,2125.0,388.0,-236.0,1
-19.0,-171.0,159.0,1938.0,419.0,-164.0,1
-33.0,-174.0,166.0,1767.0,451.0,-81.0,1
-27.0,-177.0,173.0,1636.0,455.0,-11.0,1
-31.0,-179.0,178.0,1525.0,465.0,47.0,1
-34.0,-180.0,190.0,1422.0,474.0,113.0,1
-38.0,-186.0,192.0,1315.0,470.0,184.0,1
-56.0,-188.0,196.0,1202.0,457.0,268.0,1
-62.0,-193.0,204.0,1098.0,438.0,351.0,1
-63.0,-194.0,204.0,1000.0,422.0,417.0,1
-59.0,-201.0,200.0,899.0,389.0,453.0,1
-32.0,-183.0,203.0,803.0,358.0,457.0,1
-70.0,-187.0,188.0,731.0,382.0,469.0,1
-76.0,-186.0,185.0,649.0,323.0,492.0,1
-72.0,-190.0,191.0,588.0,244.0,490.0,1
-68.0,-197.0,199.0,561.0,167.0,476.0,1
-59.0,-205.0,193.0,555.0,87.0,450.0,1
-54.0,-208.0,198.0,611.0,49.0,416.0,1
-56.0,-195.0,195.0,688.0,3.0,391.0,1
-47.0,-197.0,189.0,721.0,-63.0,363.0,1
-44.0,-196.0,193.0,702.0,-119.0,314.0,1
-40.0,-196.0,193.0,668.0,-144.0,254.0,1
-34.0,-197.0,190.0,641.0,-142.0,204.0,1
-28.0,-196.0,192.0,622.0,-131.0,167.0,1
-18.0,-192.0,192.0,605.0,-127.0,141.0,1
-8.0,-194.0,198.0,591.0,-124.0,116.0,1
0.0,-192.0,199.0,582.0,-119.0,94.0,1
4.0,-190.0,205.0,578.0,-118.0,84.0,1
15.0,-196.0,197.0,580.0,-127.0,97.0,1
14.0,-195.0,187.0,584.0,-136.0,99.0,1
20.0,-195.0,191.0,565.0,-132.0,104.0,1
24.0,-193.0,189.0,543.0,-126.0,115.0,1
17.0,-197.0,187.0,537.0,-119.0,128.0,1
16.0,-194.0,189.0,535.0,-117.0,136.0,1
6.0,-202.0,188.0,546.0,-120.0,158.0,1
8.0,-205.0,184.0,542.0,-121.0,169.0,1
11.0,-197.0,179.0,513.0,-113.0,171.0,1
9.0,-195.0,176.0,456.0,-100.0,168.0,1
11.0,-193.0,177.0,404.0,-98.0,170.0,1
14.0,-190.0,173.0,369.0,-107.0,161.0,1
18.0,-191.0,173.0,356.0,-120.0,155.0,1
10.0,-192.0,172.0,341.0,-129.0,140.0,1
12.0,-191.0,165.0,318.0,-133.0,123.0,1
19.0,-196.0,167.0,284.0,-120.0,98.0,1
16.0,-186.0,163.0,226.0,-85.0,71.0,1
15.0,-186.0,169.0,168.0,-52.0,61.0,1
13.0,-182.0,170.0,128.0,-22.0,51.0,1
1.0,-184.0,175.0,118.0,-2.0,43.0,1
20.0,-195.0,181.0,120.0,6.0,44.0,1
7.0,-195.0,183.0,133.0,17.0,30.0,1
6.0,-191.0,183.0,131.0,27.0,19.0,1
8.0,-191.0,172.0,132.0,25.0,25.0,1
-6.0,-195.0,172.0,118.0,53.0,43.0,1
-7.0,-199.0,174.0,100.0,88.0,50.0,1
-6.0,-188.0,181.0,94.0,113.0,57.0,1
-3.0,-188.0,179.0,121.0,135.0,120.0,1
-30.0,-208.0,202.0,143.0,147.0,164.0,1
-1.0,-204.0,171.0,168.0,93.0,163.0,1
-24.0,-205.0,190.0,147.0,101.0,151.0,1
-17.0,-193.0,188.0,113.0,100.0,153.0,1
-18.0,-192.0,194.0,116.0,99.0,176.0,1
-31.0,-193.0,195.0,127.0,94.0,175.0,1
-32.0,-192.0,194.0,143.0,73.0,174.0,1
-28.0,-191.0,193.0,162.0,60.0,178.0,1
-26.0,-193.0,196.0,175.0,57.0,175.0,1
-36.0,-191.0,193.0,193.0,69.0,174.0,1
-39.0,-189.0,195.0,207.0,75.0,187.0,1
-43.0,-188.0,193.0,228.0,74.0,202.0,1
-49.0,-190.0,188.0,254.0,67.0,208.0,1
-39.0,-190.0,191.0,269.0,58.0,218.0,1
-26.0,-187.0,198.0,287.0,49.0,213.0,1
-42.0,-192.0,198.0,345.0,58.0,222.0,1
-44.0,-187.0,195.0,381.0,52.0,253.0,1
-46.0,-179.0,190.0,385.0,24.0,284.0,1
-31.0,-176.0,191.0,380.0,-8.0,293.0,1
-18.0,-184.0,196.0,390.0,-15.0,301.0,1
-9.0,-181.0,198.0,424.0,5.0,303.0,1
-23.0,-180.0,202.0,455.0,31.0,312.0,1
-40.0,-169.0,198.0,464.0,32.0,316.0,1
-52.0,-163.0,193.0,448.0,7.0,307.0,1
-51.0,-169.0,194.0,445.0,-17.0,310.0,1
-49.0,-170.0,200.0,443.0,-25.0,297.0,1
-52.0,-175.0,205.0,449.0,-19.0,295.0,1
-47.0,-178.0,210.0,459.0,-15.0,297.0,1
-48.0,-177.0,210.0,465.0,-19.0,289.0,1
-60.0,-156.0,213.0,469.0,-33.0,275.0,1
-50.0,-173.0,203.0,475.0,-49.0,268.0,1
-51.0,-170.0,196.0,463.0,-60.0,253.0,1
-60.0,-160.0,199.0,434.0,-72.0,239.0,1
-49.0,-163.0,198.0,395.0,-83.0,245.0,1
-43.0,-164.0,195.0,349.0,-92.0,244.0,1
-37.0,-155.0,193.0,295.0,-110.0,229.0,1
-36.0,-155.0,196.0,243.0,-131.0,212.0,1
-31.0,-154.0,197.0,202.0,-150.0,196.0,1
-35.0,-156.0,200.0,176.0,-170.0,172.0,1
-31.0,-158.0,201.0,161.0,-188.0,148.0,1
-18.0,-169.0,208.0,162.0,-196.0,127.0,1
-13.0,-179.0,214.0,175.0,-184.0,96.0,1
-12.0,-188.0,214.0,183.0,-163.0,47.0,1
-13.0,-191.0,216.0,194.0,-143.0,11.0,1
-9.0,-195.0,212.0,209.0,-130.0,-19.0,1
-12.0,-195.0,210.0,223.0,-119.0,-46.0,1
-21.0,-192.0,210.0,235.0,-109.0,-54.0,1
-21.0,-192.0,203.0,239.0,-108.0,-53.0,1
-25.0,-188.0,199.0,242.0,-101.0,-45.0,1
-20.0,-177.0,199.0,240.0,-86.0,-30.0,1
-31.0,-178.0,208.0,210.0,-47.0,-49.0,1
-21.0,-178.0,209.0,208.0,-1.0,-44.0,1
-13.0,-175.0,216.0,230.0,36.0,9.0,1
-25.0,-175.0,211.0,239.0,63.0,65.0,1
-24.0,-176.0,207.0,214.0,86.0,127.0,1
-26.0,-176.0,207.0,168.0,100.0,185.0,1
-26.0,-177.0,206.0,123.0,111.0,239.0,1
-33.0,-174.0,208.0,100.0,127.0,300.0,1
-38.0,-173.0,209.0,94.0,141.0,358.0,1
-31.0,-175.0,213.0,101.0,148.0,401.0,1
-31.0,-172.0,210.0,117.0,153.0,421.0,1
-25.0,-172.0,204.0,135.0,154.0,425.0,1
-19.0,-172.0,203.0,151.0,155.0,419.0,1
-17.0,-172.0,199.0,162.0,160.0,397.0,1
-20.0,-172.0,198.0,163.0,163.0,368.0,1
-15.0,-176.0,203.0,166.0,167.0,326.0,1
-17.0,-177.0,201.0,174.0,170.0,273.0,1
-21.0,-180.0,198.0,183.0,174.0,222.0,1
-23.0,-180.0,195.0,191.0,173.0,173.0,1
-24.0,-183.0,197.0,196.0,177.0,127.0,1
-24.0,-184.0,200.0,199.0,182.0,87.0,1
-30.0,-189.0,193.0,203.0,189.0,42.0,1
-27.0,-188.0,191.0,204.0,196.0,16.0,1
-30.0,-192.0,192.0,184.0,205.0,7.0,1
-26.0,-182.0,189.0,161.0,216.0,1.0,1
-33.0,-192.0,187.0,138.0,227.0,-3.0,1
-33.0,-191.0,192.0,112.0,243.0,-9.0,1
-32.0,-190.0,191.0,88.0,262.0,-8.0,1
-36.0,-189.0,186.0,75.0,280.0,1.0,1
-33.0,-184.0,192.0,68.0,293.0,13.0,1
-38.0,-179.0,192.0,72.0,306.0,20.0,1
-36.0,-180.0,192.0,73.0,319.0,33.0,1
-39.0,-174.0,195.0,71.0,329.0,50.0,1
-37.0,-176.0,196.0,62.0,336.0,65.0,1
-40.0,-172.0,198.0,47.0,336.0,74.0,1
-45.0,-171.0,195.0,31.0,332.0,72.0,1
-42.0,-172.0,197.0,19.0,319.0,79.0,1
-43.0,-174.0,200.0,-2.0,311.0,94.0,1
-44.0,-173.0,202.0,-16.0,303.0,92.0,1
-45.0,-176.0,204.0,-23.0,293.0,82.0,1
-46.0,-177.0,204.0,-30.0,285.0,69.0,1
-46.0,-180.0,201.0,-37.0,279.0,53.0,1
-44.0,-182.0,201.0,-38.0,276.0,39.0,1
-46.0,-178.0,198.0,-34.0,280.0,29.0,1
-47.0,-179.0,200.0,-22.0,289.0,18.0,1
-47.0,-182.0,198.0,-14.0,301.0,4.0,1
-55.0,-176.0,194.0,-6.0,317.0,-4.0,1
-58.0,-180.0,196.0,-6.0,331.0,-5.0,1
-60.0,-179.0,193.0,-7.0,337.0,-4.0,1
-63.0,-179.0,191.0,-8.0,331.0,-2.0,1
-64.0,-180.0,188.0,-12.0,325.0,14.0,1
-67.0,-177.0,189.0,-19.0,322.0,30.0,1
-68.0,-177.0,185.0,-28.0,316.0,52.0,1
-74.0,-181.0,187.0,-37.0,308.0,69.0,1
-75.0,-179.0,188.0,-42.0,300.0,88.0,1
-73.0,-175.0,191.0,-44.0,280.0,105.0,1
-75.0,-176.0,191.0,-46.0,253.0,115.0,1
-76.0,-173.0,190.0,-49.0,226.0,120.0,1
-75.0,-170.0,189.0,-55.0,203.0,124.0,1
-77.0,-167.0,191.0,-63.0,185.0,125.0,1
-75.0,-168.0,193.0,-70.0,170.0,126.0,1
-75.0,-164.0,195.0,-76.0,156.0,123.0,1
-76.0,-165.0,197.0,-86.0,146.0,119.0,1
-73.0,-163.0,196.0,-94.0,128.0,115.0,1
-75.0,-160.0,195.0,-103.0,106.0,110.0,1
-73.0,-163.0,195.0,-109.0,82.0,99.0,1
-72.0,-167.0,195.0,-114.0,60.0,89.0,1
-77.0,-169.0,197.0,-111.0,41.0,76.0,1
-71.0,-170.0,193.0,-105.0,27.0,64.0,1
-66.0,-169.0,192.0,-97.0,18.0,51.0,1
-67.0,-172.0,195.0,-87.0,13.0,42.0,1
-64.0,-173.0,193.0,-77.0,11.0,33.0,1
-63.0,-174.0,194.0,-66.0,10.0,25.0,1
-59.0,-174.0,197.0,-53.0,9.0,21.0,1
-57.0,-176.0,197.0,-39.0,8.0,14.0,1
-55.0,-173.0,199.0,-25.0,8.0,9.0,1
-56.0,-175.0,200.0,-11.0,9.0,5.0,1
-55.0,-175.0,203.0,5.0,9.0,3.0,1
-53.0,-177.0,203.0,18.0,9.0,-3.0,1
-52.0,-177.0,205.0,28.0,11.0,-10.0,1
-53.0,-177.0,201.0,36.0,13.0,-15.0,1
-48.0,-172.0,203.0,39.0,17.0,-23.0,1
-51.0,-170.0,206.0,39.0,24.0,-29.0,1
-48.0,-170.0,204.0,35.0,31.0,-36.0,1
-47.0,-169.0,205.0,33.0,38.0,-41.0,1
-48.0,-169.0,209.0,31.0,43.0,-43.0,1
-46.0,-165.0,204.0,30.0,45.0,-43.0,1
-43.0,-168.0,204.0,27.0,44.0,-42.0,1
-44.0,-166.0,204.0,25.0,45.0,-38.0,1
-39.0,-169.0,211.0,28.0,46.0,-36.0,1
-44.0,-168.0,205.0,36.0,46.0,-32.0,1
-42.0,-168.0,211.0,42.0,47.0,-30.0,1
-45.0,-168.0,206.0,49.0,50.0,-27.0,1
-48.0,-169.0,208.0,52.0,53.0,-27.0,1
-46.0,-169.0,208.0,50.0,57.0,-27.0,1
-48.0,-166.0,208.0,47.0,61.0,-27.0,1
-48.0,-166.0,205.0,40.0,65.0,-24.0,1
-46.0,-168.0,200.0,31.0,74.0,-15.0,1
-52.0,-163.0,203.0,23.0,79.0,-10.0,1
-48.0,-167.0,205.0,15.0,82.0,-7.0,1
-50.0,-164.0,203.0,13.0,80.0,-8.0,1
-49.0,-161.0,204.0,14.0,77.0,-4.0,1
-50.0,-162.0,203.0,16.0,72.0,0.0,1
-48.0,-161.0,204.0,19.0,69.0,8.0,1
-49.0,-161.0,205.0,25.0,63.0,18.0,1
-49.0,-163.0,206.0,34.0,61.0,27.0,1
-49.0,-165.0,206.0,45.0,58.0,33.0,1
-51.0,-164.0,210.0,57.0,57.0,38.0,1
-50.0,-167.0,211.0,65.0,52.0,39.0,1
-46.0,-169.0,207.0,73.0,44.0,38.0,1
-50.0,-169.0,212.0,80.0,37.0,33.0,1
-48.0,-168.0,210.0,82.0,31.0,26.0,1
-49.0,-170.0,207.0,77.0,27.0,17.0,1
-46.0,-170.0,207.0,67.0,24.0,7.0,1
-47.0,-169.0,204.0,55.0,25.0,-2.0,1
-44.0,-169.0,207.0,45.0,31.0,-8.0,1
-47.0,-168.0,207.0,34.0,34.0,-15.0,1
-43.0,-166.0,203.0,28.0,38.0,-18.0,1
-42.0,-165.0,205.0,23.0,44.0,-20.0,1
-45.0,-167.0,202.0,22.0,49.0,-23.0,1
-45.0,-167.0,201.0,23.0,55.0,-22.0,1
-44.0,-171.0,201.0,28.0,59.0,-22.0,1
-44.0,-167.0,198.0,36.0,63.0,-22.0,1
-46.0,-170.0,203.0,42.0,67.0,-20.0,1
-46.0,-170.0,206.0,48.0,68.0,-17.0,1
-47.0,-167.0,206.0,52.0,69.0,-17.0,1
-47.0,-175.0,206.0,53.0,71.0,-15.0,1
-47.0,-170.0,207.0,52.0,70.0,-15.0,1
-44.0,-169.0,209.0,47.0,69.0,-15.0,1
-44.0,-168.0,207.0,44.0,68.0,-16.0,1
-47.0,-167.0,205.0,38.0,69.0,-17.0,1
-46.0,-167.0,205.0,32.0,70.0,-17.0,1
-46.0,-169.0,201.0,25.0,74.0,-20.0,1
-45.0,-168.0,213.0,23.0,77.0,-18.0,1
-47.0,-168.0,204.0,19.0,82.0,-17.0,1
-48.0,-168.0,205.0,16.0,88.0,-17.0,1
-48.0,-167.0,202.0,14.0,93.0,-16.0,1
-46.0,-168.0,199.0,13.0,96.0,-14.0,1
-49.0,-166.0,201.0,13.0,97.0,-13.0,1
-48.0,-168.0,202.0,11.0,98.0,-11.0,1
-47.0,-167.0,197.0,6.0,96.0,-9.0,1
-50.0,-164.0,196.0,0.0,94.0,-5.0,1
-44.0,-168.0,200.0,-7.0,90.0,-3.0,1
-49.0,-164.0,204.0,-18.0,85.0,0.0,1
-50.0,-166.0,199.0,-29.0,79.0,2.0,1
-49.0,-167.0,201.0,-42.0,74.0,4.0,1
-50.0,-168.0,200.0,-51.0,70.0,5.0,1
-53.0,-168.0,200.0,-57.0,66.0,6.0,1
-49.0,-169.0,206.0,-61.0,62.0,5.0,1
-51.0,-170.0,207.0,-63.0,59.0,5.0,1
-53.0,-167.0,204.0,-65.0,61.0,6.0,1
-53.0,-169.0,206.0,-62.0,61.0,7.0,1
-52.0,-174.0,203.0,-55.0,61.0,5.0,1
-54.0,-178.0,202.0,-47.0,58.0,1.0,1
-53.0,-173.0,209.0,-39.0,54.0,-4.0,1
-52.0,-177.0,202.0,-31.0,51.0,-7.0,1
-51.0,-173.0,201.0,-20.0,50.0,-8.0,1
-50.0,-173.0,202.0,-16.0,48.0,-9.0,1
-49.0,-171.0,203.0,-18.0,44.0,-9.0,1
-45.0,-174.0,201.0,-23.0,42.0,-7.0,1
-50.0,-169.0,202.0,-31.0,45.0,-8.0,1
-51.0,-168.0,200.0,-42.0,44.0,-6.0,1
-48.0,-169.0,201.0,-54.0,39.0,-6.0,1
-50.0,-166.0,198.0,-65.0,34.0,-6.0,1
-52.0,-165.0,197.0,-72.0,28.0,-10.0,1
-49.0,-168.0,197.0,-75.0,22.0,-12.0,1
-52.0,-168.0,200.0,-77.0,22.0,-14.0,1
-49.0,-164.0,200.0,-72.0,23.0,-15.0,1
-54.0,-167.0,204.0,-64.0,28.0,-17.0,1
-51.0,-169.0,202.0,-59.0,29.0,-17.0,1
-52.0,-168.0,203.0,-52.0,28.0,-20.0,1
-51.0,-166.0,202.0,-45.0,28.0,-24.0,1
-49.0,-170.0,205.0,-41.0,29.0,-24.0,1
-51.0,-170.0,204.0,-37.0,26.0,-26.0,1
-49.0,-169.0,202.0,-34.0,25.0,-30.0,1
-51.0,-174.0,201.0,-36.0,24.0,-31.0,1
-52.0,-177.0,200.0,-39.0,22.0,-33.0,1
-49.0,-173.0,206.0,-43.0,20.0,-34.0,1
-52.0,-174.0,201.0,-45.0,20.0,-35.0,1
-48.0,-176.0,201.0,-45.0,17.0,-35.0,1
-48.0,-175.0,198.0,-44.0,15.0,-34.0,1
-50.0,-172.0,200.0,-41.0,14.0,-35.0,1
-50.0,-173.0,197.0,-38.0,9.0,-34.0,1
-47.0,-172.0,197.0,-34.0,4.0,-35.0,1
-46.0,-170.0,196.0,-27.0,2.0,-35.0,1
-47.0,-169.0,200.0,-19.0,3.0,-36.0,1
-48.0,-165.0,199.0,-8.0,4.0,-36.0,1
-46.0,-169.0,201.0,4.0,7.0,-35.0,1
-46.0,-168.0,204.0,15.0,11.0,-34.0,1
-43.0,-169.0,204.0,23.0,12.0,-35.0,1
-44.0,-170.0,202.0,25.0,15.0,-35.0,1
-44.0,-169.0,205.0,23.0,19.0,-35.0,1
-45.0,-169.0,202.0,18.0,25.0,-34.0,1
-44.0,-162.0,208.0,9.0,32.0,-33.0,1
-41.0,-166.0,206.0,-1.0,34.0,-31.0,1
-42.0,-164.0,206.0,-13.0,36.0,-28.0,1
-43.0,-163.0,209.0,-19.0,36.0,-24.0,1
-43.0,-166.0,208.0,-20.0,34.0,-19.0,1
-45.0,-165.0,206.0,-17.0,32.0,-13.0,1
-43.0,-171.0,206.0,-12.0,27.0,-6.0,1
-41.0,-171.0,207.0,-1.0,22.0,-1.0,1
-38.0,-175.0,206.0,13.0,16.0,4.0,1
-41.0,-173.0,201.0,27.0,13.0,7.0,1
-38.0,-175.0,200.0,40.0,13.0,8.0,1
-38.0,-178.0,199.0,47.0,15.0,6.0,1
-39.0,-174.0,203.0,52.0,21.0,4.0,1
-40.0,-173.0,202.0,50.0,28.0,0.0,1
-40.0,-175.0,202.0,44.0,34.0,-6.0,1
-43.0,-169.0,204.0,36.0,42.0,-8.0,1
-42.0,-172.0,204.0,31.0,48.0,-11.0,1
-41.0,-169.0,203.0,24.0,54.0,-10.0,1
-42.0,-167.0,203.0,21.0,59.0,-8.0,1
-40.0,-167.0,202.0,19.0,62.0,-6.0,1
-40.0,-168.0,201.0,23.0,66.0,1.0,1
-37.0,-169.0,201.0,29.0,68.0,6.0,1
-41.0,-167.0,199.0,35.0,66.0,10.0,1
-40.0,-170.0,205.0,41.0,64.0,15.0,1
-39.0,-170.0,203.0,51.0,63.0,19.0,1
-41.0,-174.0,202.0,62.0,61.0,20.0,1
-42.0,-172.0,203.0,72.0,56.0,20.0,1
-42.0,-171.0,198.0,77.0,53.0,15.0,1
-46.0,-171.0,201.0,74.0,53.0,13.0,1
-48.0,-170.0,200.0,66.0,48.0,6.0,1
-44.0,-168.0,205.0,57.0,48.0,0.0,1
-49.0,-167.0,204.0,48.0,53.0,-5.0,1
-47.0,-166.0,203.0,40.0,60.0,-8.0,1
-48.0,-164.0,199.0,30.0,63.0,-9.0,1
-47.0,-163.0,202.0,23.0,70.0,-8.0,1
-48.0,-166.0,204.0,16.0,76.0,-6.0,1
-50.0,-164.0,207.0,14.0,81.0,-3.0,1
-49.0,-167.0,206.0,13.0,83.0,0.0,1
-47.0,-166.0,203.0,11.0,85.0,3.0,1
-49.0,-165.0,206.0,14.0,86.0,6.0,1
-49.0,-164.0,199.0,17.0,84.0,10.0,1
-49.0,-168.0,205.0,23.0,81.0,11.0,1
-50.0,-167.0,203.0,26.0,80.0,11.0,1
-49.0,-170.0,205.0,31.0,78.0,12.0,1
-49.0,-166.0,205.0,35.0,73.0,13.0,1
-51.0,-169.0,205.0,33.0,71.0,11.0,1
-47.0,-167.0,202.0,28.0,70.0,10.0,1
-50.0,-166.0,204.0,21.0,70.0,9.0,1
-47.0,-170.0,210.0,10.0,71.0,10.0,1
-48.0,-167.0,204.0,-3.0,73.0,11.0,1
-47.0,-167.0,209.0,-12.0,73.0,13.0,1
-47.0,-164.0,205.0,-20.0,73.0,17.0,1
-42.0,-166.0,201.0,-24.0,74.0,17.0,1
-48.0,-167.0,201.0,-26.0,74.0,19.0,1
-46.0,-166.0,200.0,-28.0,76.0,17.0,1
-46.0,-167.0,207.0,-27.0,76.0,16.0,1
-50.0,-166.0,205.0,-21.0,76.0,13.0,1
-46.0,-167.0,206.0,-15.0,75.0,12.0,1
-47.0,-167.0,204.0,-10.0,75.0,8.0,1
-50.0,-169.0,202.0,-9.0,74.0,5.0,1
-45.0,-166.0,204.0,-12.0,72.0,2.0,1
-44.0,-169.0,202.0,-16.0,75.0,-3.0,1
-46.0,-169.0,206.0,-21.0,75.0,-5.0,1
-49.0,-167.0,205.0,-30.0,76.0,-6.0,1
-46.0,-161.0,205.0,-40.0,77.0,-7.0,1
-44.0,-163.0,205.0,-49.0,78.0,-9.0,1
-48.0,-163.0,206.0,-56.0,79.0,-9.0,1
-45.0,-165.0,207.0,-60.0,80.0,-11.0,1
-47.0,-163.0,205.0,-63.0,82.0,-9.0,1
-46.0,-167.0,206.0,-63.0,81.0,-9.0,1
-53.0,-161.0,200.0,-60.0,80.0,-9.0,1
-45.0,-168.0,205.0,-58.0,77.0,-7.0,1
-46.0,-168.0,207.0,-52.0,74.0,-7.0,1
-49.0,-168.0,204.0,-44.0,69.0,-5.0,1
-47.0,-171.0,204.0,-37.0,67.0,-3.0,1
-49.0,-169.0,201.0,-29.0,64.0,-1.0,1
-46.0,-171.0,204.0,-22.0,62.0,1.0,1
-47.0,-171.0,204.0,-19.0,61.0,4.0,1
-47.0,-169.0,199.0,-17.0,61.0,5.0,1
-44.0,-171.0,200.0,-17.0,62.0,6.0,1
-46.0,-174.0,206.0,-19.0,64.0,7.0,1
-44.0,-166.0,199.0,-18.0,66.0,7.0,1
-47.0,-169.0,201.0,-14.0,66.0,7.0,1
-47.0,-168.0,203.0,-10.0,67.0,7.0,1
-45.0,-172.0,201.0,-1.0,69.0,7.0,1
-46.0,-172.0,202.0,8.0,69.0,7.0,1
-47.0,-171.0,201.0,14.0,69.0,6.0,1
-44.0,-173.0,198.0,19.0,68.0,4.0,1
-44.0,-170.0,200.0,21.0,70.0,4.0,1
-44.0,-168.0,199.0,21.0,71.0,7.0,1
-46.0,-168.0,202.0,22.0,70.0,7.0,1
-46.0,-167.0,199.0,22.0,69.0,10.0,1
-41.0,-171.0,200.0,22.0,68.0,13.0,1
-42.0,-168.0,203.0,21.0,66.0,15.0,1
-45.0,-169.0,204.0,20.0,65.0,18.0,1
-41.0,-168.0,200.0,19.0,63.0,19.0,1
-43.0,-168.0,203.0,19.0,63.0,21.0,1
-43.0,-169.0,201.0,20.0,64.0,21.0,1
-45.0,-167.0,204.0,20.0,66.0,21.0,1
-46.0,-167.0,209.0,21.0,68.0,21.0,1
-48.0,-165.0,207.0,20.0,70.0,19.0,1
-47.0,-168.0,205.0,21.0,73.0,15.0,1
-46.0,-168.0,205.0,21.0,76.0,13.0,1
-47.0,-169.0,201.0,19.0,79.0,10.0,1
-51.0,-166.0,204.0,19.0,82.0,9.0,1
-43.0,-167.0,207.0,15.0,85.0,12.0,1
-48.0,-166.0,205.0,11.0,86.0,14.0,1
-43.0,-167.0,206.0,5.0,87.0,16.0,1
-43.0,-164.0,203.0,-1.0,89.0,21.0,1
-45.0,-163.0,205.0,-5.0,88.0,26.0,1
-42.0,-166.0,211.0,-8.0,84.0,31.0,1
-45.0,-168.0,207.0,-5.0,82.0,35.0,1
-45.0,-170.0,206.0,0.0,77.0,38.0,1
-49.0,-164.0,201.0,9.0,72.0,38.0,1
-46.0,-168.0,205.0,20.0,66.0,36.0,1
-44.0,-175.0,202.0,33.0,62.0,33.0,1
-49.0,-169.0,205.0,42.0,59.0,28.0,1
-47.0,-168.0,203.0,46.0,61.0,21.0,1
-50.0,-171.0,205.0,46.0,66.0,13.0,1
-46.0,-167.0,201.0,41.0,73.0,5.0,1
-46.0,-169.0,208.0,35.0,79.0,0.0,1
-46.0,-165.0,205.0,33.0,84.0,-2.0,1
-46.0,-162.0,202.0,32.0,88.0,-4.0,1
-47.0,-165.0,206.0,31.0,91.0,-1.0,1
-44.0,-166.0,203.0,27.0,96.0,2.0,1
-46.0,-166.0,205.0,24.0,99.0,5.0,1
-44.0,-165.0,205.0,22.0,100.0,10.0,1
-45.0,-167.0,205.0,20.0,100.0,16.0,1
-44.0,-166.0,204.0,20.0,99.0,18.0,1
-46.0,-167.0,203.0,19.0,96.0,20.0,1
-48.0,-164.0,206.0,18.0,89.0,22.0,1
-48.0,-166.0,202.0,18.0,82.0,19.0,1
-47.0,-167.0,203.0,22.0,76.0,17.0,1
-50.0,-168.0,204.0,26.0,70.0,14.0,1
-49.0,-173.0,204.0,32.0,65.0,10.0,1
-50.0,-170.0,207.0,30.0,63.0,6.0,1
-57.0,-173.0,201.0,28.0,63.0,0.0,1
-48.0,-168.0,205.0,25.0,65.0,-2.0,1
-45.0,-166.0,208.0,22.0,68.0,-5.0,1
-47.0,-167.0,204.0,18.0,76.0,-7.0,1
-48.0,-166.0,203.0,11.0,82.0,-2.0,1
-51.0,-162.0,208.0,-2.0,82.0,1.0,1
-46.0,-165.0,204.0,-9.0,84.0,1.0,1
-43.0,-166.0,208.0,-8.0,86.0,5.0,1
-46.0,-166.0,208.0,-5.0,89.0,9.0,1
-47.0,-169.0,206.0,-2.0,91.0,15.0,1
-46.0,-173.0,204.0,2.0,85.0,15.0,1
-46.0,-168.0,207.0,6.0,78.0,15.0,1
-47.0,-168.0,201.0,14.0,76.0,12.0,1
-48.0,-164.0,209.0,20.0,75.0,11.0,1
-49.0,-165.0,205.0,25.0,74.0,11.0,1
-48.0,-166.0,209.0,24.0,75.0,11.0,1
-50.0,-167.0,211.0,23.0,75.0,11.0,1
-48.0,-166.0,205.0,15.0,77.0,10.0,1
-49.0,-163.0,207.0,6.0,76.0,8.0,1
-50.0,-161.0,209.0,-6.0,77.0,9.0,1
-48.0,-165.0,209.0,-18.0,76.0,10.0,1
-50.0,-162.0,206.0,-26.0,73.0,10.0,1
-52.0,-161.0,207.0,-29.0,73.0,11.0,1
-52.0,-163.0,199.0,-30.0,69.0,13.0,1
-47.0,-163.0,206.0,-27.0,67.0,14.0,1
-49.0,-165.0,205.0,-24.0,66.0,12.0,1
-47.0,-170.0,201.0,-22.0,67.0,12.0,1
-48.0,-169.0,204.0,-19.0,68.0,8.0,1
-50.0,-166.0,206.0,-14.0,68.0,9.0,1
-49.0,-166.0,201.0,-7.0,69.0,7.0,1
-47.0,-168.0,204.0,-3.0,69.0,8.0,1
-48.0,-165.0,205.0,0.0,70.0,8.0,1
-45.0,-165.0,207.0,3.0,69.0,8.0,1
-44.0,-165.0,208.0,8.0,71.0,3.0,1
-50.0,-167.0,205.0,9.0,77.0,9.0,1
-49.0,-167.0,202.0,-7.0,69.0,16.0,1
-45.0,-164.0,201.0,-20.0,62.0,13.0,1
-49.0,-162.0,206.0,-26.0,63.0,11.0,1
-46.0,-162.0,205.0,-33.0,63.0,12.0,1
-47.0,-160.0,204.0,-38.0,61.0,9.0,1
-46.0,-161.0,204.0,-38.0,63.0,7.0,1
-49.0,-162.0,206.0,-33.0,66.0,6.0,1
-47.0,-164.0,209.0,-24.0,68.0,4.0,1
-43.0,-166.0,203.0,-13.0,70.0,2.0,1
-48.0,-165.0,205.0,-1.0,71.0,0.0,1
-48.0,-167.0,207.0,10.0,72.0,-3.0,1
-47.0,-166.0,203.0,16.0,73.0,-5.0,1
-47.0,-169.0,206.0,20.0,73.0,-5.0,1
-49.0,-165.0,206.0,19.0,73.0,-5.0,1
-46.0,-166.0,204.0,14.0,73.0,-4.0,1
-47.0,-164.0,204.0,8.0,73.0,-1.0,1
-47.0,-163.0,204.0,1.0,71.0,-1.0,1
-49.0,-163.0,208.0,-5.0,70.0,0.0,1
-48.0,-162.0,208.0,-10.0,69.0,2.0,1
-44.0,-162.0,205.0,-14.0,68.0,2.0,1
-49.0,-161.0,208.0,-14.0,69.0,4.0,1
-49.0,-164.0,207.0,-11.0,70.0,3.0,1
-50.0,-165.0,208.0,-3.0,72.0,3.0,1
-50.0,-165.0,203.0,6.0,73.0,1.0,1
-53.0,-164.0,208.0,16.0,72.0,-2.0,1
-49.0,-168.0,209.0,26.0,73.0,-4.0,1
-54.0,-165.0,206.0,36.0,74.0,-8.0,1
-49.0,-165.0,204.0,38.0,74.0,-8.0,1
-52.0,-164.0,206.0,39.0,76.0,-8.0,1
-51.0,-168.0,207.0,36.0,76.0,-7.0,1
-43.0,-163.0,206.0,31.0,77.0,-5.0,1
-48.0,-164.0,208.0,24.0,77.0,-3.0,1
-47.0,-163.0,207.0,16.0,75.0,0.0,1
-48.0,-165.0,209.0,6.0,75.0,2.0,1
-46.0,-164.0,205.0,-2.0,74.0,3.0,1
-49.0,-162.0,206.0,-8.0,71.0,3.0,1
-49.0,-163.0,207.0,-13.0,71.0,3.0,1
-47.0,-166.0,203.0,-14.0,71.0,2.0,1
-48.0,-167.0,207.0,-13.0,70.0,0.0,1
-49.0,-164.0,201.0,-9.0,69.0,-1.0,1
-49.0,-165.0,204.0,-1.0,67.0,-4.0,1
-48.0,-166.0,204.0,9.0,66.0,-4.0,1
-51.0,-166.0,205.0,16.0,68.0,-6.0,1
-51.0,-165.0,204.0,20.0,68.0,-4.0,1
-49.0,-167.0,204.0,22.0,70.0,-3.0,1
-47.0,-166.0,206.0,23.0,69.0,0.0,1
-44.0,-166.0,206.0,20.0,70.0,1.0,1
-48.0,-164.0,206.0,12.0,69.0,1.0,1
-48.0,-159.0,206.0,2.0,70.0,3.0,1
-44.0,-166.0,206.0,-10.0,67.0,3.0,1
-46.0,-163.0,211.0,-20.0,64.0,3.0,1
-48.0,-166.0,205.0,-28.0,63.0,3.0,1
-49.0,-164.0,205.0,-33.0,61.0,2.0,1
-50.0,-161.0,206.0,-32.0,60.0,-1.0,1
-51.0,-166.0,209.0,-30.0,61.0,-2.0,1
-49.0,-167.0,206.0,-25.0,60.0,-4.0,1
-48.0,-167.0,205.0,-19.0,59.0,-6.0,1
-52.0,-166.0,203.0,-8.0,58.0,-7.0,1
-50.0,-166.0,205.0,1.0,58.0,-8.0,1
-48.0,-167.0,204.0,9.0,60.0,-10.0,1
-50.0,-167.0,206.0,14.0,62.0,-8.0,1
-49.0,-167.0,204.0,17.0,65.0,-7.0,1
-44.0,-165.0,206.0,15.0,68.0,-5.0,1
-49.0,-164.0,204.0,8.0,69.0,-4.0,1
-46.0,-165.0,206.0,0.0,69.0,-3.0,1
-50.0,-161.0,208.0,-12.0,67.0,-3.0,1
-48.0,-162.0,207.0,-19.0,67.0,-2.0,1
-46.0,-164.0,211.0,-24.0,66.0,-2.0,1
-46.0,-165.0,208.0,-26.0,65.0,-4.0,1
-46.0,-164.0,206.0,-27.0,62.0,-5.0,1
-50.0,-164.0,206.0,-23.0,60.0,-4.0,1
-50.0,-164.0,205.0,-15.0,57.0,-4.0,1
-50.0,-168.0,208.0,-6.0,54.0,-5.0,1
-48.0,-163.0,204.0,5.0,53.0,-5.0,1
-53.0,-163.0,195.0,15.0,54.0,-3.0,1
-45.0,-165.0,203.0,19.0,55.0,-4.0,1
-49.0,-162.0,205.0,18.0,57.0,-4.0,1
-46.0,-165.0,205.0,13.0,60.0,-3.0,1
-44.0,-165.0,211.0,13.0,61.0,-2.0,1
-46.0,-163.0,205.0,11.0,61.0,-3.0,1
-45.0,-161.0,205.0,10.0,64.0,0.0,1
-45.0,-163.0,206.0,8.0,66.0,0.0,1
-47.0,-160.0,209.0,6.0,67.0,0.0,1
-46.0,-164.0,210.0,0.0,69.0,0.0,1
-46.0,-164.0,207.0,-5.0,71.0,0.0,1
-46.0,-164.0,210.0,-9.0,75.0,-1.0,1
-49.0,-165.0,210.0,-10.0,76.0,-1.0,1
-48.0,-163.0,208.0,-8.0,77.0,0.0,1
-50.0,-164.0,204.0,-5.0,77.0,1.0,1
-48.0,-163.0,205.0,0.0,78.0,1.0,1
-50.0,-166.0,205.0,3.0,79.0,0.0,1
-47.0,-165.0,205.0,6.0,78.0,-1.0,1
-48.0,-164.0,206.0,7.0,78.0,0.0,1
-48.0,-162.0,208.0,8.0,78.0,1.0,1
-49.0,-165.0,204.0,8.0,76.0,2.0,1
-51.0,-162.0,212.0,4.0,75.0,2.0,1
-49.0,-162.0,209.0,1.0,75.0,1.0,1
-47.0,-167.0,208.0,-2.0,75.0,0.0,1
-49.0,-167.0,208.0,-6.0,74.0,1.0,1
-51.0,-163.0,208.0,-8.0,73.0,-1.0,1
-50.0,-163.0,208.0,-10.0,70.0,-5.0,1
-49.0,-166.0,208.0,-9.0,69.0,-7.0,1
-51.0,-167.0,205.0,-8.0,70.0,-8.0,1
-49.0,-165.0,208.0,-5.0,72.0,-8.0,1
-49.0,-166.0,208.0,-7.0,74.0,-8.0,1
-47.0,-164.0,206.0,-6.0,76.0,-6.0,1
-49.0,-165.0,207.0,-7.0,79.0,-5.0,1
-50.0,-161.0,207.0,-6.0,79.0,-2.0,1
-45.0,-166.0,203.0,-5.0,80.0,1.0,1
-49.0,-164.0,203.0,-4.0,79.0,5.0,1
-50.0,-162.0,207.0,-1.0,78.0,8.0,1
-46.0,-166.0,203.0,-1.0,76.0,11.0,1
-49.0,-162.0,205.0,0.0,73.0,10.0,1
-47.0,-165.0,206.0,1.0,72.0,10.0,1
-48.0,-163.0,207.0,0.0,69.0,12.0,1
-47.0,-166.0,206.0,-1.0,66.0,10.0,1
-49.0,-166.0,206.0,-2.0,65.0,6.0,1
-48.0,-165.0,206.0,-4.0,66.0,4.0,1
-49.0,-166.0,207.0,-6.0,65.0,1.0,1
-47.0,-166.0,211.0,-3.0,66.0,-1.0,1
-50.0,-167.0,209.0,0.0,67.0,-2.0,1
-48.0,-165.0,205.0,2.0,67.0,-4.0,1
-49.0,-162.0,207.0,4.0,70.0,-5.0,1
-47.0,-163.0,203.0,7.0,74.0,-5.0,1
-48.0,-160.0,208.0,9.0,78.0,-4.0,1
-48.0,-160.0,208.0,10.0,81.0,-2.0,1
-47.0,-163.0,208.0,13.0,82.0,0.0,1
-47.0,-163.0,206.0,11.0,82.0,2.0,1
-48.0,-161.0,210.0,9.0,82.0,1.0,1
-46.0,-165.0,207.0,8.0,83.0,3.0,1
-48.0,-161.0,207.0,6.0,82.0,2.0,1
-50.0,-161.0,208.0,9.0,80.0,0.0,1
-48.0,-166.0,207.0,9.0,79.0,0.0,1
-51.0,-163.0,208.0,5.0,76.0,-2.0,1
-50.0,-164.0,210.0,2.0,73.0,-5.0,1
-51.0,-164.0,211.0,4.0,71.0,-7.0,1
-49.0,-167.0,205.0,7.0,69.0,-8.0,1
-52.0,-166.0,206.0,11.0,69.0,-13.0,1
-53.0,-163.0,203.0,15.0,67.0,-13.0,1
-45.0,-165.0,203.0,17.0,68.0,-14.0,1
-49.0,-166.0,204.0,16.0,71.0,-13.0,1
-47.0,-165.0,205.0,13.0,75.0,-12.0,1
-46.0,-164.0,207.0,9.0,78.0,-9.0,1
-50.0,-162.0,206.0,6.0,79.0,-6.0,1
-47.0,-161.0,208.0,4.0,79.0,-3.0,1
-50.0,-160.0,205.0,4.0,79.0,2.0,1
-47.0,-161.0,206.0,1.0,78.0,4.0,1
-47.0,-163.0,208.0,-1.0,76.0,5.0,1
-48.0,-162.0,208.0,-1.0,76.0,4.0,1
-48.0,-162.0,208.0,1.0,74.0,3.0,1
-51.0,-164.0,204.0,2.0,72.0,-1.0,1
-49.0,-165.0,206.0,4.0,71.0,-3.0,1
-50.0,-162.0,208.0,6.0,69.0,-6.0,1
-49.0,-166.0,205.0,8.0,69.0,-8.0,1
-52.0,-166.0,203.0,8.0,71.0,-10.0,1
-51.0,-163.0,205.0,5.0,72.0,-10.0,1
-49.0,-163.0,204.0,1.0,72.0,-9.0,1
-49.0,-163.0,209.0,-3.0,76.0,-8.0,1
-49.0,-161.0,203.0,-8.0,74.0,-6.0,1
-52.0,-161.0,204.0,-10.0,74.0,-5.0,1
-52.0,-162.0,210.0,-14.0,72.0,-2.0,1
-51.0,-161.0,211.0,-15.0,73.0,0.0,1
-48.0,-162.0,207.0,-15.0,72.0,3.0,1
-49.0,-161.0,209.0,-16.0,71.0,3.0,1
-47.0,-163.0,207.0,-18.0,69.0,5.0,1
-48.0,-163.0,207.0,-16.0,67.0,9.0,1
-50.0,-164.0,209.0,-9.0,66.0,11.0,1
-50.0,-164.0,210.0,-4.0,64.0,15.0,1
-48.0,-165.0,208.0,1.0,64.0,17.0,1
-48.0,-163.0,207.0,8.0,64.0,20.0,1
-46.0,-167.0,207.0,11.0,66.0,25.0,1
-46.0,-163.0,206.0,11.0,68.0,30.0,1
-47.0,-164.0,209.0,10.0,68.0,35.0,1
-46.0,-166.0,209.0,9.0,69.0,39.0,1
-43.0,-165.0,207.0,11.0,69.0,42.0,1
-45.0,-164.0,210.0,14.0,72.0,45.0,1
-46.0,-162.0,204.0,10.0,69.0,52.0,1
-46.0,-160.0,203.0,1.0,62.0,54.0,1
-44.0,-164.0,206.0,-3.0,59.0,52.0,1
-46.0,-160.0,206.0,-3.0,58.0,49.0,1
-47.0,-163.0,208.0,0.0,60.0,46.0,1
-45.0,-163.0,208.0,4.0,62.0,41.0,1
-40.0,-168.0,207.0,8.0,63.0,36.0,1
-46.0,-162.0,206.0,11.0,65.0,27.0,1
-45.0,-163.0,205.0,10.0,66.0,20.0,1
-47.0,-162.0,209.0,13.0,70.0,12.0,1
-50.0,-162.0,207.0,15.0,73.0,5.0,1
-49.0,-164.0,210.0,18.0,77.0,-3.0,1
-50.0,-162.0,208.0,19.0,79.0,-10.0,1
-51.0,-160.0,212.0,17.0,80.0,-15.0,1
-51.0,-161.0,211.0,11.0,79.0,-19.0,1
-46.0,-164.0,209.0,7.0,79.0,-23.0,1
-52.0,-160.0,210.0,4.0,79.0,-24.0,1
-51.0,-159.0,209.0,-3.0,82.0,-23.0,1
-51.0,-160.0,209.0,-11.0,84.0,-23.0,1
-53.0,-158.0,208.0,-12.0,86.0,-22.0,1
-53.0,-162.0,208.0,-15.0,86.0,-19.0,1
-51.0,-159.0,209.0,-17.0,86.0,-17.0,1
-53.0,-158.0,208.0,-16.0,87.0,-13.0,1
-53.0,-161.0,209.0,-13.0,87.0,-10.0,1
-52.0,-160.0,208.0,-10.0,84.0,-8.0,1
-52.0,-161.0,207.0,-8.0,83.0,-5.0,1
-52.0,-163.0,209.0,-3.0,79.0,-4.0,1
-53.0,-165.0,209.0,6.0,73.0,-2.0,1
-53.0,-158.0,215.0,15.0,68.0,-3.0,1
-50.0,-164.0,210.0,20.0,63.0,-2.0,1
-53.0,-163.0,206.0,18.0,57.0,-4.0,1
-49.0,-164.0,208.0,15.0,51.0,-4.0,1
-51.0,-161.0,202.0,11.0,48.0,-7.0,1
-48.0,-162.0,206.0,1.0,50.0,-8.0,1
-51.0,-160.0,208.0,-12.0,52.0,-11.0,1
-51.0,-158.0,204.0,-21.0,56.0,-12.0,1
-48.0,-160.0,207.0,-25.0,60.0,-12.0,1
-49.0,-158.0,208.0,-26.0,66.0,-11.0,1
-48.0,-159.0,210.0,-21.0,71.0,-10.0,1
-48.0,-159.0,212.0,-15.0,76.0,-9.0,1
-51.0,-162.0,214.0,-7.0,82.0,-8.0,1
-50.0,-163.0,212.0,1.0,85.0,-7.0,1
-50.0,-166.0,209.0,5.0,86.0,-4.0,1
-50.0,-165.0,212.0,7.0,85.0,-5.0,1
-50.0,-165.0,207.0,7.0,83.0,-4.0,1
-48.0,-165.0,210.0,5.0,80.0,-3.0,1
-50.0,-164.0,211.0,0.0,76.0,0.0,1
-48.0,-160.0,211.0,-7.0,69.0,1.0,1
-47.0,-161.0,212.0,-15.0,67.0,1.0,1
-50.0,-163.0,210.0,-18.0,62.0,1.0,1
-50.0,-163.0,212.0,-18.0,59.0,1.0,1
-48.0,-162.0,209.0,-21.0,58.0,1.0,1
-47.0,-162.0,206.0,-21.0,57.0,-1.0,1
-48.0,-160.0,203.0,-19.0,59.0,1.0,1
-48.0,-163.0,206.0,-13.0,59.0,-2.0,1
-50.0,-163.0,209.0,-4.0,60.0,-3.0,1
-52.0,-167.0,206.0,4.0,59.0,-5.0,1
-47.0,-165.0,203.0,12.0,59.0,-7.0,1
-48.0,-165.0,207.0,19.0,59.0,-8.0,1
-49.0,-167.0,206.0,22.0,61.0,-13.0,1
-49.0,-166.0,209.0,18.0,63.0,-13.0,1
-51.0,-163.0,202.0,12.0,64.0,-16.0,1
-50.0,-160.0,206.0,4.0,64.0,-18.0,1
-48.0,-161.0,205.0,-2.0,63.0,-19.0,1
-49.0,-160.0,209.0,-8.0,64.0,-17.0,1
-48.0,-162.0,206.0,-15.0,66.0,-16.0,1
-48.0,-160.0,210.0,-17.0,68.0,-15.0,1
-52.0,-157.0,205.0,-19.0,69.0,-14.0,1
-52.0,-158.0,206.0,-18.0,69.0,-12.0,1
-49.0,-160.0,207.0,-13.0,69.0,-10.0,1
-52.0,-161.0,210.0,-6.0,67.0,-8.0,1
-47.0,-164.0,213.0,0.0,62.0,-6.0,1
-53.0,-161.0,207.0,5.0,57.0,-6.0,1
-52.0,-163.0,209.0,10.0,52.0,-7.0,1
-54.0,-162.0,208.0,13.0,45.0,-8.0,1
-55.0,-166.0,209.0,13.0,41.0,-9.0,1
-57.0,-163.0,211.0,10.0,38.0,-8.0,1
-51.0,-164.0,210.0,2.0,35.0,-8.0,1
-53.0,-165.0,210.0,-6.0,32.0,-8.0,1
-51.0,-165.0,211.0,-13.0,30.0,-9.0,1
-52.0,-165.0,212.0,-19.0,30.0,-7.0,1
-48.0,-164.0,210.0,-22.0,30.0,-5.0,1
-52.0,-165.0,209.0,-24.0,32.0,-4.0,1
-50.0,-158.0,206.0,-25.0,34.0,-1.0,1
-48.0,-161.0,201.0,-20.0,38.0,3.0,1
-45.0,-163.0,205.0,-13.0,43.0,5.0,1
-43.0,-162.0,203.0,-3.0,46.0,7.0,1
-42.0,-166.0,203.0,7.0,50.0,8.0,1
-47.0,-163.0,203.0,18.0,52.0,7.0,1
-43.0,-162.0,204.0,28.0,52.0,5.0,1
-47.0,-163.0,206.0,35.0,53.0,-1.0,1
-46.0,-164.0,205.0,36.0,53.0,-8.0,1
-48.0,-160.0,204.0,35.0,58.0,-16.0,1
-50.0,-162.0,206.0,32.0,58.0,-22.0,1
-57.0,-159.0,213.0,28.0,58.0,-29.0,1
-51.0,-161.0,211.0,25.0,57.0,-36.0,1
-53.0,-161.0,210.0,23.0,56.0,-41.0,1
-51.0,-163.0,210.0,20.0,54.0,-46.0,1
-50.0,-161.0,207.0,14.0,56.0,-47.0,1
-49.0,-159.0,207.0,8.0,59.0,-46.0,1
-50.0,-156.0,208.0,-1.0,60.0,-42.0,1
-47.0,-156.0,212.0,-7.0,61.0,-34.0,1
-46.0,-159.0,210.0,-9.0,62.0,-25.0,1
-46.0,-157.0,211.0,-11.0,61.0,-15.0,1
-44.0,-160.0,211.0,-12.0,62.0,-7.0,1
-45.0,-159.0,212.0,-10.0,59.0,0.0,1
-47.0,-160.0,208.0,-7.0,58.0,5.0,1
-46.0,-159.0,205.0,-3.0,57.0,7.0,1
-46.0,-160.0,211.0,2.0,55.0,7.0,1
-48.0,-163.0,212.0,5.0,52.0,5.0,1
-50.0,-159.0,210.0,4.0,51.0,1.0,1
-48.0,-161.0,210.0,0.0,51.0,-7.0,1
-49.0,-160.0,211.0,-4.0,52.0,-12.0,1
-48.0,-160.0,208.0,-8.0,51.0,-17.0,1
-47.0,-163.0,211.0,-13.0,52.0,-22.0,1
-49.0,-160.0,210.0,-18.0,53.0,-25.0,1
-49.0,-159.0,206.0,-22.0,56.0,-26.0,1
-48.0,-160.0,206.0,-25.0,61.0,-25.0,1
-45.0,-158.0,204.0,-27.0,67.0,-22.0,1
-46.0,-155.0,209.0,-27.0,71.0,-18.0,1
-48.0,-160.0,212.0,-24.0,75.0,-12.0,1
-44.0,-162.0,210.0,-18.0,75.0,-6.0,1
-43.0,-163.0,206.0,-8.0,74.0,1.0,1
-47.0,-159.0,206.0,2.0,75.0,6.0,1
-45.0,-163.0,211.0,7.0,70.0,8.0,1
-45.0,-164.0,213.0,9.0,67.0,7.0,1
-44.0,-164.0,209.0,9.0,63.0,7.0,1
-47.0,-162.0,210.0,7.0,58.0,5.0,1
-49.0,-163.0,210.0,4.0,55.0,2.0,1
-49.0,-161.0,209.0,1.0,51.0,-1.0,1
-49.0,-163.0,210.0,-2.0,47.0,-5.0,1
-47.0,-162.0,207.0,-4.0,46.0,-9.0,1
-50.0,-163.0,207.0,-5.0,46.0,-12.0,1
-48.0,-160.0,205.0,-6.0,47.0,-15.0,1
-50.0,-158.0,205.0,-6.0,51.0,-17.0,1
-46.0,-159.0,209.0,-6.0,58.0,-18.0,1
-47.0,-156.0,202.0,-3.0,64.0,-15.0,1
-48.0,-160.0,209.0,1.0,70.0,-12.0,1
-47.0,-162.0,207.0,6.0,74.0,-6.0,1
-45.0,-160.0,205.0,11.0,74.0,-2.0,1
-48.0,-160.0,207.0,14.0,74.0,3.0,1
-45.0,-161.0,211.0,18.0,76.0,4.0,1
-48.0,-165.0,211.0,20.0,74.0,5.0,1
-49.0,-161.0,211.0,20.0,71.0,6.0,1
-49.0,-162.0,206.0,18.0,64.0,5.0,1
-47.0,-162.0,207.0,14.0,59.0,1.0,1
-48.0,-160.0,211.0,11.0,57.0,-1.0,1
-50.0,-162.0,209.0,5.0,57.0,-5.0,1
-49.0,-161.0,212.0,-1.0,58.0,-9.0,1
-48.0,-159.0,208.0,-6.0,57.0,-13.0,1
-51.0,-161.0,209.0,-9.0,58.0,-17.0,1
-48.0,-160.0,208.0,-10.0,60.0,-18.0,1
-49.0,-158.0,207.0,-6.0,66.0,-18.0,1
-47.0,-161.0,206.0,-4.0,69.0,-17.0,1
-49.0,-157.0,204.0,0.0,72.0,-14.0,1
-45.0,-162.0,203.0,4.0,73.0,-13.0,1
-47.0,-162.0,206.0,5.0,75.0,-10.0,1
-43.0,-164.0,205.0,6.0,76.0,-8.0,1
-49.0,-162.0,208.0,4.0,78.0,-6.0,1
-53.0,-154.0,217.0,-6.0,75.0,-6.0,1
-48.0,-161.0,208.0,-13.0,72.0,-8.0,1
-49.0,-160.0,201.0,-18.0,69.0,-9.0,1
-47.0,-159.0,210.0,-20.0,67.0,-8.0,1
-47.0,-159.0,211.0,-21.0,64.0,-7.0,1
-48.0,-161.0,212.0,-22.0,63.0,-6.0,1
-48.0,-158.0,207.0,-20.0,60.0,-5.0,1
-49.0,-161.0,208.0,-16.0,58.0,-3.0,1
-47.0,-160.0,209.0,-10.0,56.0,0.0,1
-44.0,-162.0,212.0,-6.0,55.0,3.0,1
-44.0,-155.0,207.0,-3.0,57.0,6.0,1
-46.0,-161.0,203.0,-2.0,58.0,8.0,1
-40.0,-163.0,208.0,-3.0,60.0,9.0,1
-44.0,-162.0,210.0,-6.0,62.0,10.0,1
-46.0,-158.0,211.0,-6.0,62.0,9.0,1
-47.0,-160.0,211.0,-5.0,66.0,6.0,1
-46.0,-162.0,208.0,-3.0,69.0,0.0,1
-46.0,-162.0,210.0,-3.0,74.0,-5.0,1
-45.0,-161.0,209.0,-4.0,76.0,-12.0,1
-47.0,-160.0,208.0,-5.0,79.0,-17.0,1
-47.0,-161.0,211.0,-6.0,80.0,-19.0,1
-48.0,-159.0,212.0,-4.0,82.0,-21.0,1
-44.0,-161.0,206.0,-1.0,82.0,-20.0,1
-49.0,-159.0,210.0,1.0,80.0,-18.0,1
-48.0,-160.0,206.0,3.0,79.0,-12.0,1
-45.0,-159.0,206.0,4.0,77.0,-4.0,1
-48.0,-162.0,208.0,8.0,76.0,2.0,1
-45.0,-162.0,208.0,11.0,75.0,7.0,1
-48.0,-161.0,207.0,13.0,72.0,12.0,1
-48.0,-160.0,208.0,13.0,73.0,13.0,1
-47.0,-164.0,207.0,12.0,72.0,13.0,1
-49.0,-162.0,211.0,10.0,71.0,9.0,1
-48.0,-164.0,208.0,10.0,73.0,6.0,1
-47.0,-162.0,211.0,9.0,74.0,1.0,1
-49.0,-163.0,210.0,8.0,76.0,-3.0,1
-50.0,-161.0,211.0,7.0,77.0,-7.0,1
-50.0,-160.0,207.0,7.0,77.0,-11.0,1
-49.0,-158.0,207.0,6.0,80.0,-14.0,1
-46.0,-160.0,204.0,4.0,84.0,-13.0,1
-50.0,-161.0,208.0,2.0,88.0,-11.0,1
-45.0,-161.0,207.0,-1.0,90.0,-5.0,1
-49.0,-161.0,203.0,-2.0,93.0,1.0,1
-46.0,-159.0,209.0,-6.0,90.0,8.0,1
-44.0,-158.0,207.0,-12.0,86.0,10.0,1
-49.0,-159.0,211.0,-11.0,86.0,10.0,1
-48.0,-158.0,207.0,-8.0,86.0,13.0,1
-46.0,-160.0,209.0,-6.0,87.0,15.0,1
-47.0,-162.0,213.0,-4.0,84.0,14.0,1
-47.0,-161.0,212.0,-2.0,81.0,11.0,1
-51.0,-162.0,211.0,-1.0,78.0,8.0,1
-48.0,-164.0,210.0,0.0,75.0,6.0,1
-51.0,-161.0,212.0,1.0,73.0,-3.0,1
-48.0,-161.0,208.0,-1.0,74.0,-8.0,1
-47.0,-159.0,210.0,-1.0,73.0,-12.0,1
-49.0,-159.0,208.0,0.0,73.0,-16.0,1
-49.0,-164.0,212.0,-2.0,75.0,-16.0,1
-49.0,-159.0,207.0,-1.0,77.0,-15.0,1
-47.0,-158.0,208.0,2.0,81.0,-13.0,1
-48.0,-157.0,208.0,3.0,80.0,-10.0,1
-48.0,-159.0,208.0,3.0,78.0,-5.0,1
-47.0,-157.0,211.0,5.0,79.0,0.0,1
-50.0,-157.0,208.0,4.0,78.0,3.0,1
-48.0,-160.0,210.0,5.0,78.0,4.0,1
-50.0,-158.0,210.0,8.0,77.0,3.0,1
-44.0,-158.0,212.0,12.0,77.0,2.0,1
-47.0,-153.0,211.0,13.0,79.0,1.0,1
-46.0,-160.0,211.0,14.0,80.0,-1.0,1
-47.0,-158.0,212.0,12.0,79.0,0.0,1
-47.0,-157.0,210.0,10.0,79.0,-2.0,1
-47.0,-158.0,213.0,8.0,79.0,1.0,1
-49.0,-158.0,212.0,11.0,78.0,1.0,1
-47.0,-162.0,213.0,10.0,77.0,3.0,1
-48.0,-159.0,213.0,8.0,74.0,3.0,1
-43.0,-161.0,209.0,4.0,70.0,1.0,1
-45.0,-163.0,206.0,-2.0,69.0,0.0,1
-48.0,-160.0,209.0,-5.0,67.0,-1.0,1
-49.0,-160.0,207.0,-9.0,67.0,-3.0,1
-47.0,-160.0,212.0,-11.0,67.0,-4.0,1
-48.0,-159.0,210.0,-14.0,68.0,-6.0,1
-47.0,-160.0,209.0,-17.0,69.0,-7.0,1
-47.0,-161.0,212.0,-19.0,71.0,-9.0,1
-47.0,-161.0,210.0,-18.0,73.0,-8.0,1
-45.0,-162.0,213.0,-15.0,73.0,-6.0,1
-48.0,-159.0,209.0,-13.0,74.0,-4.0,1
-46.0,-160.0,211.0,-12.0,74.0,-5.0,1
-48.0,-160.0,210.0,-11.0,74.0,-2.0,1
-45.0,-160.0,208.0,-11.0,76.0,-4.0,1
-44.0,-164.0,208.0,-13.0,75.0,-5.0,1
-50.0,-161.0,211.0,-17.0,74.0,-7.0,1
-47.0,-162.0,213.0,-20.0,73.0,-8.0,1
-45.0,-163.0,208.0,-27.0,72.0,-10.0,1
-48.0,-161.0,210.0,-30.0,70.0,-13.0,1
-45.0,-159.0,210.0,-33.0,70.0,-14.0,1
-47.0,-159.0,211.0,-36.0,70.0,-15.0,1
-45.0,-160.0,210.0,-35.0,69.0,-15.0,1
-45.0,-160.0,213.0,-30.0,71.0,-16.0,1
-47.0,-162.0,206.0,-23.0,70.0,-17.0,1
-45.0,-165.0,206.0,-15.0,71.0,-19.0,1
-48.0,-161.0,213.0,-6.0,70.0,-21.0,1
-45.0,-166.0,209.0,4.0,69.0,-23.0,1
-52.0,-160.0,208.0,12.0,70.0,-24.0,1
-51.0,-161.0,208.0,17.0,71.0,-23.0,1
-49.0,-161.0,206.0,22.0,73.0,-22.0,1
-48.0,-162.0,208.0,23.0,73.0,-18.0,1
-51.0,-163.0,205.0,25.0,74.0,-15.0,1
-51.0,-160.0,208.0,27.0,73.0,-12.0,1
-50.0,-159.0,210.0,25.0,70.0,-10.0,1
-49.0,-160.0,207.0,24.0,67.0,-10.0,1
-48.0,-160.0,212.0,24.0,65.0,-11.0,1
-50.0,-158.0,210.0,26.0,63.0,-10.0,1
-52.0,-156.0,211.0,28.0,62.0,-11.0,1
-52.0,-159.0,207.0,31.0,62.0,-12.0,1
-46.0,-161.0,208.0,33.0,61.0,-15.0,1
-50.0,-159.0,210.0,32.0,62.0,-15.0,1
-48.0,-159.0,212.0,32.0,64.0,-15.0,1
-50.0,-158.0,209.0,29.0,64.0,-15.0,1
-46.0,-154.0,213.0,30.0,65.0,-13.0,1
-47.0,-159.0,209.0,32.0,67.0,-9.0,1
-50.0,-159.0,209.0,31.0,70.0,-5.0,1
-47.0,-158.0,210.0,30.0,71.0,1.0,1
-49.0,-156.0,214.0,28.0,72.0,3.0,1
-46.0,-158.0,213.0,22.0,73.0,5.0,1
-47.0,-159.0,211.0,16.0,72.0,6.0,1
-48.0,-158.0,214.0,10.0,70.0,5.0,1
-46.0,-157.0,213.0,4.0,70.0,4.0,1
-45.0,-159.0,214.0,1.0,69.0,1.0,1
-47.0,-158.0,215.0,-2.0,67.0,-1.0,1
-52.0,-159.0,212.0,-1.0,68.0,-5.0,1
-48.0,-160.0,210.0,-2.0,69.0,-8.0,1
-49.0,-160.0,214.0,-3.0,68.0,-8.0,1
-46.0,-158.0,211.0,-3.0,70.0,-11.0,1
-56.0,-161.0,209.0,-2.0,71.0,-12.0,1
-45.0,-159.0,210.0,1.0,72.0,-11.0,1
-47.0,-157.0,211.0,1.0,75.0,-8.0,1
-44.0,-159.0,214.0,4.0,79.0,-4.0,1
-45.0,-160.0,215.0,6.0,80.0,-1.0,1
-44.0,-162.0,212.0,9.0,80.0,2.0,1
-44.0,-160.0,208.0,9.0,80.0,1.0,1
-46.0,-160.0,212.0,4.0,79.0,2.0,1
-47.0,-162.0,211.0,-2.0,78.0,1.0,1
-48.0,-159.0,208.0,-8.0,76.0,2.0,1
-46.0,-159.0,213.0,-10.0,74.0,-1.0,1
-47.0,-160.0,210.0,-8.0,69.0,-3.0,1
-49.0,-157.0,213.0,-3.0,68.0,-6.0,1
-50.0,-160.0,211.0,2.0,67.0,-9.0,1
-45.0,-162.0,209.0,10.0,64.0,-11.0,1
-51.0,-159.0,208.0,18.0,63.0,-12.0,1
-49.0,-160.0,208.0,22.0,65.0,-14.0,1
-50.0,-156.0,206.0,21.0,67.0,-14.0,1
-49.0,-153.0,209.0,15.0,70.0,-13.0,1
-45.0,-156.0,210.0,6.0,72.0,-10.0,1
-47.0,-157.0,210.0,0.0,74.0,-6.0,1
-46.0,-158.0,210.0,-1.0,76.0,-1.0,1
-46.0,-157.0,210.0,-1.0,79.0,3.0,1
-46.0,-158.0,210.0,-3.0,81.0,7.0,1
-47.0,-158.0,211.0,-5.0,85.0,7.0,1
-50.0,-159.0,214.0,-7.0,88.0,6.0,1
-48.0,-163.0,211.0,-4.0,90.0,5.0,1
-50.0,-161.0,211.0,-1.0,91.0,1.0,1
-51.0,-161.0,211.0,0.0,91.0,-2.0,1
-49.0,-163.0,210.0,0.0,90.0,-5.0,1
-51.0,-160.0,213.0,-2.0,88.0,-9.0,1
-48.0,-160.0,211.0,-2.0,87.0,-10.0,1
-48.0,-158.0,208.0,-2.0,85.0,-11.0,1
-49.0,-155.0,213.0,-5.0,82.0,-8.0,1
-49.0,-156.0,208.0,-9.0,81.0,-6.0,1
-45.0,-157.0,210.0,-12.0,78.0,-2.0,1
-45.0,-158.0,210.0,-15.0,74.0,-1.0,1
-47.0,-153.0,212.0,-18.0,70.0,2.0,1
-47.0,-159.0,211.0,-16.0,67.0,2.0,1
-45.0,-159.0,211.0,-14.0,65.0,5.0,1
-43.0,-157.0,210.0,-10.0,63.0,2.0,1
-49.0,-159.0,213.0,-7.0,61.0,1.0,1
-46.0,-162.0,212.0,-2.0,62.0,-2.0,1
-40.0,-158.0,213.0,3.0,62.0,-7.0,1
-49.0,-160.0,210.0,7.0,62.0,-12.0,1
-51.0,-162.0,209.0,10.0,62.0,-15.0,1
-51.0,-156.0,212.0,10.0,63.0,-18.0,1
-50.0,-158.0,208.0,9.0,67.0,-20.0,1
-46.0,-160.0,208.0,3.0,68.0,-19.0,1
-47.0,-155.0,207.0,-5.0,73.0,-15.0,1
-45.0,-156.0,208.0,-10.0,78.0,-10.0,1
-49.0,-153.0,207.0,-15.0,82.0,-4.0,1
-46.0,-154.0,210.0,-19.0,85.0,1.0,1
-48.0,-152.0,210.0,-21.0,86.0,7.0,1
-48.0,-155.0,211.0,-19.0,84.0,12.0,1
-47.0,-154.0,213.0,-17.0,81.0,17.0,1
-47.0,-158.0,213.0,-12.0,79.0,20.0,1
-49.0,-160.0,213.0,-7.0,74.0,22.0,1
-47.0,-160.0,214.0,3.0,69.0,22.0,1
-50.0,-158.0,209.0,11.0,66.0,21.0,1
-49.0,-161.0,212.0,17.0,62.0,22.0,1
-48.0,-160.0,211.0,20.0,60.0,18.0,1
-50.0,-159.0,208.0,21.0,60.0,16.0,1
-49.0,-157.0,213.0,19.0,61.0,12.0,1
-43.0,-163.0,210.0,14.0,60.0,9.0,1
-51.0,-164.0,211.0,9.0,60.0,6.0,1
-47.0,-157.0,208.0,1.0,59.0,5.0,1
-49.0,-157.0,210.0,-6.0,60.0,2.0,1
-50.0,-158.0,210.0,-9.0,64.0,2.0,1
-47.0,-157.0,210.0,-10.0,65.0,2.0,1
-45.0,-159.0,213.0,-9.0,68.0,3.0,1
-50.0,-156.0,214.0,-6.0,69.0,4.0,1
-52.0,-158.0,210.0,2.0,70.0,6.0,1
-52.0,-158.0,208.0,7.0,69.0,7.0,1
-50.0,-156.0,213.0,12.0,68.0,8.0,1
-49.0,-158.0,208.0,17.0,69.0,8.0,1
-52.0,-157.0,216.0,21.0,68.0,7.0,1
-49.0,-158.0,212.0,23.0,64.0,5.0,1
-51.0,-158.0,213.0,25.0,62.0,2.0,1
-50.0,-161.0,213.0,24.0,61.0,-2.0,1
-51.0,-157.0,214.0,20.0,61.0,-5.0,1
-52.0,-156.0,213.0,14.0,60.0,-8.0,1
-54.0,-157.0,213.0,8.0,60.0,-12.0,1
-50.0,-157.0,208.0,1.0,62.0,-16.0,1
-49.0,-154.0,212.0,-3.0,67.0,-16.0,1
-51.0,-157.0,213.0,-3.0,69.0,-15.0,1
-49.0,-155.0,208.0,-1.0,71.0,-12.0,1
-50.0,-159.0,210.0,4.0,72.0,-10.0,1
-49.0,-158.0,210.0,9.0,72.0,-7.0,1
-47.0,-157.0,211.0,14.0,71.0,-6.0,1
-49.0,-158.0,210.0,18.0,71.0,-6.0,1
-48.0,-158.0,210.0,21.0,71.0,-5.0,1
-49.0,-158.0,210.0,22.0,71.0,-4.0,1
-48.0,-159.0,208.0,22.0,70.0,-4.0,1
-47.0,-160.0,211.0,20.0,69.0,-6.0,1
-49.0,-162.0,208.0,17.0,70.0,-6.0,1
-48.0,-155.0,213.0,12.0,70.0,-6.0,1
-48.0,-154.0,210.0,6.0,68.0,-9.0,1
-50.0,-157.0,214.0,0.0,69.0,-11.0,1
-48.0,-153.0,211.0,-5.0,69.0,-12.0,1
-49.0,-154.0,213.0,-10.0,69.0,-13.0,1
-48.0,-154.0,214.0,-12.0,65.0,-12.0,1
-47.0,-155.0,210.0,-12.0,66.0,-11.0,1
-47.0,-155.0,214.0,-11.0,64.0,-9.0,1
-48.0,-157.0,213.0,-6.0,66.0,-7.0,1
-46.0,-154.0,213.0,0.0,65.0,-3.0,1
-46.0,-160.0,210.0,7.0,67.0,-3.0,1
-45.0,-158.0,209.0,11.0,66.0,-1.0,1
-45.0,-160.0,212.0,13.0,67.0,1.0,1
-43.0,-165.0,205.0,14.0,70.0,3.0,1
-45.0,-159.0,209.0,12.0,70.0,3.0,1
-44.0,-156.0,217.0,8.0,69.0,2.0,1
-45.0,-158.0,210.0,2.0,69.0,1.0,1
-47.0,-155.0,212.0,-5.0,68.0,-1.0,1
-45.0,-157.0,212.0,-11.0,68.0,-2.0,1
-44.0,-157.0,211.0,-15.0,67.0,-3.0,1
-50.0,-156.0,219.0,-17.0,67.0,-6.0,1
-46.0,-157.0,212.0,-17.0,68.0,-8.0,1
-45.0,-158.0,214.0,-13.0,68.0,-9.0,1
-46.0,-155.0,214.0,-9.0,67.0,-11.0,1
-44.0,-160.0,215.0,-3.0,66.0,-10.0,1
-45.0,-157.0,213.0,0.0,65.0,-9.0,1
-45.0,-160.0,212.0,4.0,64.0,-9.0,1
-48.0,-157.0,215.0,7.0,62.0,-11.0,1
-44.0,-163.0,216.0,9.0,63.0,-11.0,1
-44.0,-157.0,214.0,12.0,61.0,-11.0,1
-49.0,-158.0,211.0,10.0,60.0,-13.0,1
-50.0,-154.0,213.0,7.0,58.0,-12.0,1
-47.0,-156.0,212.0,6.0,59.0,-12.0,1
-44.0,-156.0,215.0,7.0,59.0,-11.0,1
-45.0,-158.0,215.0,7.0,60.0,-12.0,1
-42.0,-157.0,217.0,7.0,61.0,-11.0,1
-45.0,-159.0,212.0,9.0,60.0,-10.0,1
-46.0,-159.0,214.0,13.0,57.0,-10.0,1
-47.0,-160.0,213.0,21.0,55.0,-9.0,1
-47.0,-160.0,213.0,30.0,54.0,-8.0,1
-45.0,-160.0,209.0,41.0,52.0,-7.0,1
-48.0,-161.0,208.0,53.0,49.0,-6.0,1
-51.0,-158.0,209.0,58.0,45.0,-5.0,1
-51.0,-156.0,207.0,60.0,43.0,-6.0,1
-51.0,-155.0,208.0,62.0,44.0,-9.0,1
-46.0,-154.0,209.0,64.0,49.0,-11.0,1
-49.0,-153.0,207.0,61.0,53.0,-12.0,1
-51.0,-151.0,212.0,53.0,56.0,-12.0,1
-50.0,-152.0,209.0,45.0,57.0,-10.0,1
-47.0,-153.0,210.0,37.0,59.0,-9.0,1
-48.0,-151.0,214.0,28.0,60.0,-6.0,1
-51.0,-150.0,215.0,23.0,61.0,-2.0,1
-46.0,-150.0,216.0,17.0,60.0,4.0,1
-47.0,-155.0,216.0,13.0,56.0,8.0,1
-49.0,-156.0,216.0,13.0,53.0,10.0,1
-47.0,-156.0,218.0,13.0,50.0,12.0,1
-48.0,-156.0,212.0,12.0,48.0,14.0,1
-49.0,-157.0,214.0,15.0,41.0,14.0,1
-49.0,-159.0,208.0,18.0,35.0,14.0,1
-50.0,-157.0,208.0,23.0,32.0,13.0,1
-46.0,-158.0,210.0,26.0,27.0,13.0,1
-46.0,-158.0,208.0,25.0,26.0,9.0,1
-46.0,-156.0,209.0,18.0,31.0,7.0,1
-47.0,-154.0,213.0,7.0,39.0,4.0,1
-45.0,-150.0,212.0,-5.0,45.0,2.0,1
-48.0,-151.0,216.0,-13.0,52.0,-1.0,1
-45.0,-152.0,216.0,-17.0,55.0,-1.0,1
-51.0,-151.0,219.0,-21.0,59.0,-3.0,1
-51.0,-148.0,219.0,-26.0,60.0,-4.0,1
-46.0,-152.0,223.0,-27.0,63.0,-7.0,1
-48.0,-154.0,220.0,-21.0,67.0,-9.0,1
-46.0,-154.0,215.0,-14.0,69.0,-9.0,1
-47.0,-152.0,218.0,-8.0,73.0,-10.0,1
-47.0,-155.0,217.0,-2.0,72.0,-10.0,1
-46.0,-158.0,215.0,3.0,69.0,-11.0,1
-45.0,-159.0,215.0,6.0,66.0,-10.0,1
-47.0,-157.0,214.0,7.0,63.0,-9.0,1
-47.0,-155.0,211.0,9.0,61.0,-8.0,1
-46.0,-155.0,221.0,10.0,60.0,-7.0,1
-46.0,-160.0,213.0,10.0,57.0,-4.0,1
-47.0,-158.0,215.0,8.0,57.0,-4.0,1
-46.0,-155.0,215.0,6.0,58.0,-5.0,1
-46.0,-159.0,210.0,6.0,58.0,-6.0,1
-44.0,-160.0,211.0,4.0,58.0,-9.0,1
-46.0,-154.0,212.0,4.0,57.0,-11.0,1
-49.0,-156.0,214.0,7.0,60.0,-13.0,1
-48.0,-155.0,212.0,10.0,63.0,-14.0,1
-46.0,-154.0,213.0,15.0,67.0,-13.0,1
-44.0,-158.0,212.0,21.0,70.0,-15.0,1
-47.0,-157.0,213.0,27.0,73.0,-11.0,1
-42.0,-155.0,213.0,31.0,76.0,-9.0,1
-48.0,-156.0,210.0,35.0,77.0,-7.0,1
-43.0,-157.0,213.0,35.0,80.0,-4.0,1
-44.0,-153.0,213.0,34.0,81.0,-1.0,1
-45.0,-154.0,212.0,30.0,78.0,0.0,1
-47.0,-153.0,215.0,26.0,76.0,-1.0,1
-47.0,-156.0,212.0,19.0,74.0,-3.0,1
-49.0,-154.0,217.0,13.0,72.0,-4.0,1
-45.0,-155.0,216.0,8.0,69.0,-7.0,1
-44.0,-151.0,213.0,5.0,67.0,-10.0,1
-45.0,-153.0,218.0,5.0,65.0,-8.0,1
-47.0,-157.0,213.0,6.0,64.0,-7.0,1
-49.0,-154.0,214.0,8.0,64.0,-6.0,1
-47.0,-154.0,215.0,13.0,68.0,-7.0,1
-46.0,-154.0,215.0,14.0,70.0,-8.0,1
-48.0,-157.0,214.0,11.0,73.0,-11.0,1
-49.0,-155.0,214.0,17.0,69.0,-11.0,1
-47.0,-157.0,216.0,21.0,67.0,-15.0,1
-49.0,-156.0,213.0,23.0,65.0,-20.0,1
-51.0,-155.0,214.0,22.0,63.0,-27.0,1
-50.0,-153.0,212.0,23.0,62.0,-32.0,1
-50.0,-155.0,213.0,18.0,61.0,-38.0,1
-51.0,-152.0,209.0,14.0,62.0,-43.0,1
-47.0,-152.0,212.0,12.0,62.0,-44.0,1
-49.0,-153.0,211.0,6.0,61.0,-44.0,1
-46.0,-151.0,214.0,-4.0,62.0,-40.0,1
-48.0,-150.0,216.0,-11.0,63.0,-39.0,1
-45.0,-152.0,217.0,-15.0,65.0,-35.0,1
-48.0,-152.0,217.0,-16.0,64.0,-32.0,1
-46.0,-151.0,220.0,-15.0,64.0,-28.0,1
-49.0,-150.0,216.0,-13.0,65.0,-25.0,1
-44.0,-154.0,213.0,-9.0,65.0,-21.0,1
-44.0,-153.0,219.0,-6.0,63.0,-22.0,1
-48.0,-155.0,216.0,1.0,61.0,-23.0,1
-44.0,-155.0,215.0,10.0,57.0,-24.0,1
-47.0,-158.0,214.0,20.0,53.0,-24.0,1
-43.0,-159.0,215.0,31.0,49.0,-25.0,1
-45.0,-157.0,211.0,39.0,47.0,-25.0,1
-44.0,-154.0,215.0,45.0,48.0,-21.0,1
-41.0,-157.0,213.0,47.0,49.0,-17.0,1
-39.0,-156.0,209.0,50.0,51.0,-12.0,1
-40.0,-154.0,214.0,49.0,52.0,-5.0,1
-42.0,-155.0,214.0,49.0,54.0,0.0,1
-43.0,-156.0,216.0,47.0,54.0,4.0,1
-44.0,-154.0,215.0,44.0,55.0,5.0,1
-42.0,-153.0,215.0,40.0,55.0,1.0,1
-38.0,-153.0,221.0,37.0,53.0,-3.0,1
-49.0,-154.0,217.0,51.0,50.0,-26.0,1
-43.0,-153.0,215.0,52.0,53.0,-18.0,1
-48.0,-151.0,215.0,44.0,55.0,-19.0,1
-46.0,-154.0,219.0,32.0,58.0,-22.0,1
-45.0,-152.0,213.0,24.0,55.0,-23.0,1
-43.0,-150.0,218.0,20.0,55.0,-23.0,1
-40.0,-152.0,224.0,16.0,58.0,-21.0,1
-42.0,-148.0,216.0,11.0,62.0,-17.0,1
-42.0,-151.0,216.0,10.0,64.0,-13.0,1
-43.0,-150.0,214.0,7.0,65.0,-10.0,1
-43.0,-153.0,220.0,9.0,67.0,-7.0,1
-44.0,-151.0,216.0,10.0,68.0,-3.0,1
-45.0,-156.0,217.0,12.0,68.0,-1.0,1
-42.0,-154.0,217.0,13.0,64.0,-2.0,1
-44.0,-156.0,217.0,12.0,64.0,-4.0,1
-46.0,-155.0,214.0,7.0,60.0,-9.0,1
-52.0,-152.0,209.0,-2.0,59.0,-12.0,1
-48.0,-154.0,216.0,-10.0,58.0,-16.0,1
-50.0,-150.0,216.0,-20.0,58.0,-18.0,1
-49.0,-151.0,217.0,-28.0,60.0,-20.0,1
-45.0,-150.0,215.0,-34.0,60.0,-22.0,1
-42.0,-151.0,216.0,-36.0,62.0,-22.0,1
-47.0,-149.0,217.0,-34.0,64.0,-22.0,1
-46.0,-153.0,212.0,-32.0,66.0,-21.0,1
-47.0,-153.0,216.0,-29.0,68.0,-19.0,1
-43.0,-154.0,216.0,-20.0,67.0,-16.0,1
-44.0,-155.0,218.0,-11.0,65.0,-13.0,1
-44.0,-153.0,216.0,-3.0,62.0,-10.0,1
-45.0,-154.0,216.0,0.0,59.0,-10.0,1
-49.0,-155.0,216.0,2.0,55.0,-12.0,1
-46.0,-157.0,215.0,0.0,50.0,-13.0,1
-48.0,-154.0,214.0,-3.0,47.0,-17.0,1
-47.0,-154.0,221.0,-8.0,44.0,-21.0,1
-44.0,-157.0,216.0,-16.0,44.0,-25.0,1
-47.0,-153.0,213.0,-23.0,43.0,-29.0,1
-47.0,-152.0,211.0,-30.0,44.0,-34.0,1
-47.0,-151.0,212.0,-34.0,47.0,-38.0,1
-47.0,-153.0,209.0,-37.0,50.0,-42.0,1
-42.0,-154.0,212.0,-37.0,51.0,-43.0,1
-44.0,-155.0,210.0,-34.0,54.0,-45.0,1
-46.0,-155.0,214.0,-29.0,56.0,-45.0,1
-46.0,-154.0,212.0,-23.0,56.0,-43.0,1
-47.0,-152.0,216.0,-15.0,55.0,-42.0,1
-46.0,-153.0,213.0,-13.0,58.0,-41.0,1
-50.0,-154.0,212.0,-9.0,60.0,-37.0,1
-48.0,-152.0,215.0,-7.0,60.0,-32.0,1
-47.0,-152.0,216.0,-3.0,60.0,-31.0,1
-57.0,-151.0,211.0,-4.0,61.0,-26.0,1
-49.0,-149.0,213.0,-9.0,69.0,-13.0,1
-39.0,-151.0,211.0,-9.0,75.0,-12.0,1
-44.0,-150.0,216.0,-9.0,71.0,-18.0,1
-42.0,-152.0,216.0,-17.0,64.0,-19.0,1
-43.0,-150.0,217.0,-24.0,60.0,-17.0,1
-41.0,-152.0,217.0,-30.0,58.0,-11.0,1
-41.0,-149.0,213.0,-31.0,58.0,-4.0,1
-40.0,-152.0,217.0,-35.0,54.0,7.0,1
-38.0,-150.0,217.0,-36.0,51.0,13.0,1
-39.0,-151.0,215.0,-32.0,53.0,22.0,1
-39.0,-151.0,213.0,-27.0,51.0,30.0,1
-41.0,-155.0,218.0,-20.0,47.0,33.0,1
-43.0,-154.0,218.0,-8.0,45.0,33.0,1
-43.0,-157.0,214.0,4.0,41.0,28.0,1
-48.0,-156.0,214.0,18.0,36.0,20.0,1
-42.0,-159.0,216.0,28.0,33.0,16.0,1
-43.0,-153.0,208.0,38.0,35.0,4.0,1
-42.0,-150.0,213.0,37.0,41.0,-5.0,1
-45.0,-150.0,211.0,29.0,48.0,-10.0,1
-43.0,-148.0,213.0,23.0,57.0,-12.0,1
-43.0,-148.0,220.0,19.0,68.0,-10.0,1
-45.0,-147.0,213.0,18.0,77.0,-8.0,1
-45.0,-151.0,216.0,17.0,86.0,-3.0,1
-40.0,-148.0,220.0,15.0,93.0,1.0,1
-43.0,-145.0,213.0,12.0,97.0,8.0,1
-41.0,-151.0,215.0,12.0,97.0,9.0,1
-44.0,-154.0,220.0,14.0,95.0,12.0,1
-46.0,-153.0,219.0,13.0,91.0,9.0,1
-45.0,-158.0,219.0,15.0,85.0,3.0,1
-44.0,-160.0,218.0,16.0,75.0,-4.0,1
-48.0,-156.0,218.0,17.0,69.0,-9.0,1
-46.0,-152.0,216.0,17.0,65.0,-14.0,1
-47.0,-155.0,214.0,15.0,61.0,-19.0,1
-45.0,-151.0,213.0,12.0,61.0,-21.0,1
-50.0,-158.0,207.0,7.0,63.0,-21.0,1
-42.0,-153.0,215.0,0.0,65.0,-21.0,1
-44.0,-153.0,214.0,-7.0,70.0,-17.0,1
-43.0,-152.0,212.0,-11.0,77.0,-14.0,1
-44.0,-152.0,216.0,-17.0,83.0,-8.0,1
-41.0,-151.0,213.0,-21.0,86.0,-4.0,1
-39.0,-154.0,220.0,-26.0,89.0,-1.0,1
-40.0,-152.0,217.0,-29.0,90.0,2.0,1
-42.0,-156.0,216.0,-33.0,91.0,4.0,1
-42.0,-156.0,219.0,-35.0,91.0,3.0,1
-44.0,-154.0,216.0,-36.0,88.0,0.0,1
-45.0,-151.0,218.0,-35.0,87.0,-4.0,1
-43.0,-154.0,217.0,-35.0,85.0,-9.0,1
-43.0,-154.0,212.0,-33.0,85.0,-13.0,1
-44.0,-153.0,214.0,-30.0,84.0,-18.0,1
-44.0,-151.0,210.0,-28.0,84.0,-20.0,1
-46.0,-152.0,212.0,-25.0,86.0,-21.0,1
-46.0,-152.0,213.0,-19.0,85.0,-20.0,1
-44.0,-153.0,215.0,-15.0,85.0,-17.0,1
-45.0,-152.0,217.0,-11.0,86.0,-14.0,1
-45.0,-153.0,215.0,-7.0,86.0,-10.0,1
-41.0,-152.0,215.0,-4.0,87.0,-8.0,1
-47.0,-154.0,215.0,1.0,88.0,-4.0,1
-47.0,-152.0,213.0,-3.0,85.0,0.0,1
-47.0,-152.0,217.0,-11.0,79.0,-2.0,1
-40.0,-152.0,218.0,-17.0,74.0,-2.0,1
-46.0,-152.0,215.0,-21.0,76.0,-5.0,1
-47.0,-151.0,214.0,-28.0,75.0,-3.0,1
-46.0,-150.0,215.0,-35.0,71.0,-5.0,1
-48.0,-151.0,213.0,-37.0,71.0,-5.0,1
-46.0,-146.0,215.0,-35.0,67.0,-4.0,1
-46.0,-151.0,211.0,-27.0,69.0,-6.0,1
-45.0,-153.0,217.0,-15.0,72.0,-2.0,1
-43.0,-149.0,217.0,-2.0,75.0,0.0,1
-44.0,-155.0,217.0,9.0,78.0,5.0,1
-46.0,-152.0,216.0,18.0,80.0,10.0,1
-46.0,-152.0,215.0,26.0,80.0,13.0,1
-43.0,-153.0,215.0,30.0,79.0,16.0,1
-45.0,-153.0,213.0,32.0,81.0,17.0,1
-46.0,-152.0,216.0,30.0,80.0,17.0,1
-44.0,-153.0,216.0,22.0,80.0,15.0,1
-44.0,-150.0,218.0,12.0,79.0,14.0,1
-43.0,-153.0,219.0,5.0,78.0,12.0,1
-41.0,-153.0,218.0,0.0,75.0,9.0,1
-44.0,-153.0,216.0,-5.0,73.0,6.0,1
-44.0,-152.0,217.0,-8.0,71.0,4.0,1
-48.0,-153.0,214.0,-9.0,71.0,1.0,1
-46.0,-154.0,220.0,-6.0,72.0,-2.0,1
-43.0,-154.0,216.0,1.0,72.0,-1.0,1
-43.0,-154.0,217.0,10.0,71.0,-3.0,1
-46.0,-155.0,214.0,19.0,70.0,-2.0,1
-41.0,-153.0,212.0,25.0,70.0,-1.0,1
-46.0,-154.0,217.0,26.0,71.0,0.0,1
-44.0,-153.0,217.0,26.0,74.0,0.0,1
-43.0,-154.0,218.0,22.0,73.0,-1.0,1
-44.0,-155.0,219.0,16.0,73.0,-2.0,1
-41.0,-155.0,216.0,9.0,72.0,-4.0,1
-44.0,-151.0,220.0,0.0,72.0,-6.0,1
-45.0,-152.0,215.0,-10.0,72.0,-10.0,1
-46.0,-154.0,215.0,-24.0,73.0,-12.0,1
-42.0,-152.0,216.0,-36.0,76.0,-13.0,1
-44.0,-153.0,213.0,-44.0,79.0,-13.0,1
-45.0,-148.0,216.0,-47.0,81.0,-14.0,1
-47.0,-150.0,213.0,-47.0,83.0,-11.0,1
-46.0,-151.0,214.0,-43.0,83.0,-9.0,1
-47.0,-148.0,212.0,-35.0,84.0,-5.0,1
-44.0,-154.0,213.0,-25.0,84.0,0.0,1
-44.0,-153.0,213.0,-17.0,83.0,2.0,1
-45.0,-156.0,215.0,-7.0,82.0,6.0,1
-42.0,-159.0,211.0,2.0,80.0,6.0,1
-44.0,-155.0,212.0,9.0,75.0,7.0,1
-48.0,-154.0,216.0,14.0,73.0,7.0,1
-44.0,-153.0,214.0,14.0,70.0,5.0,1
-48.0,-152.0,215.0,11.0,71.0,1.0,1
-45.0,-154.0,214.0,7.0,73.0,-1.0,1
-44.0,-149.0,214.0,2.0,74.0,-1.0,1
-47.0,-150.0,213.0,-5.0,75.0,-2.0,1
-46.0,-154.0,213.0,-11.0,77.0,0.0,1
-44.0,-153.0,213.0,-14.0,78.0,3.0,1
-45.0,-153.0,214.0,-12.0,81.0,5.0,1
-45.0,-148.0,213.0,-9.0,82.0,10.0,1
-45.0,-151.0,218.0,-4.0,82.0,13.0,1
-46.0,-154.0,216.0,1.0,80.0,15.0,1
-46.0,-154.0,213.0,8.0,78.0,16.0,1
-47.0,-153.0,216.0,17.0,76.0,16.0,1
-46.0,-154.0,210.0,24.0,73.0,14.0,1
-46.0,-151.0,216.0,27.0,72.0,12.0,1
-47.0,-150.0,215.0,30.0,68.0,10.0,1
-47.0,-154.0,218.0,31.0,66.0,6.0,1
-45.0,-152.0,218.0,28.0,66.0,1.0,1
-45.0,-152.0,217.0,22.0,65.0,-2.0,1
-45.0,-150.0,218.0,15.0,66.0,-4.0,1
-46.0,-154.0,217.0,7.0,67.0,-7.0,1
-45.0,-150.0,221.0,-1.0,69.0,-9.0,1
-47.0,-151.0,218.0,-5.0,70.0,-8.0,1
-46.0,-150.0,222.0,-7.0,70.0,-11.0,1
-49.0,-151.0,217.0,-10.0,72.0,-10.0,1
-47.0,-153.0,220.0,-9.0,72.0,-13.0,1
-47.0,-153.0,220.0,-9.0,73.0,-13.0,1
-41.0,-151.0,214.0,-7.0,73.0,-14.0,1
-46.0,-152.0,216.0,-2.0,75.0,-13.0,1
-45.0,-154.0,217.0,4.0,76.0,-11.0,1
-48.0,-152.0,213.0,8.0,76.0,-11.0,1
-48.0,-153.0,213.0,15.0,75.0,-11.0,1
-48.0,-152.0,214.0,19.0,75.0,-12.0,1
-45.0,-152.0,210.0,21.0,75.0,-11.0,1
-46.0,-150.0,213.0,20.0,75.0,-8.0,1
-48.0,-150.0,214.0,19.0,75.0,-5.0,1
-47.0,-148.0,213.0,15.0,76.0,-4.0,1
-45.0,-148.0,210.0,9.0,76.0,-4.0,1
-44.0,-148.0,217.0,0.0,76.0,-2.0,1
-47.0,-146.0,219.0,-8.0,77.0,1.0,1
-47.0,-146.0,219.0,-14.0,75.0,4.0,1
-47.0,-148.0,218.0,-17.0,72.0,6.0,1
-44.0,-152.0,220.0,-16.0,72.0,6.0,1
-46.0,-148.0,220.0,-19.0,71.0,7.0,1
-48.0,-153.0,217.0,-19.0,73.0,6.0,1
-48.0,-151.0,220.0,-19.0,73.0,4.0,1
-50.0,-151.0,214.0,-18.0,74.0,-1.0,1
-48.0,-152.0,216.0,-17.0,75.0,-3.0,1
-45.0,-152.0,214.0,-12.0,77.0,-6.0,1
-45.0,-155.0,211.0,-3.0,77.0,-5.0,1
-45.0,-154.0,213.0,5.0,76.0,-4.0,1
-45.0,-153.0,213.0,15.0,73.0,-6.0,1
-44.0,-153.0,214.0,25.0,73.0,-5.0,1
-45.0,-150.0,217.0,28.0,70.0,-5.0,1
-46.0,-154.0,216.0,28.0,70.0,-3.0,1
-45.0,-152.0,214.0,21.0,70.0,-3.0,1
-45.0,-150.0,216.0,11.0,71.0,-3.0,1
-43.0,-148.0,220.0,-1.0,72.0,-2.0,1
-44.0,-148.0,218.0,-9.0,74.0,-1.0,1
-47.0,-149.0,213.0,-12.0,73.0,0.0,1
-46.0,-150.0,219.0,-13.0,74.0,-3.0,1
-48.0,-151.0,217.0,-10.0,76.0,-5.0,1
-47.0,-151.0,218.0,-6.0,77.0,-6.0,1
-47.0,-153.0,212.0,-2.0,79.0,-5.0,1
-46.0,-151.0,216.0,6.0,81.0,-8.0,1
-44.0,-154.0,218.0,9.0,81.0,-8.0,1
-47.0,-151.0,217.0,12.0,81.0,-8.0,1
-42.0,-151.0,215.0,16.0,80.0,-6.0,1
-47.0,-151.0,215.0,22.0,77.0,-4.0,1
-48.0,-154.0,214.0,24.0,75.0,-2.0,1
-45.0,-152.0,218.0,24.0,73.0,1.0,1
-47.0,-151.0,216.0,22.0,70.0,4.0,1
-45.0,-150.0,218.0,19.0,66.0,5.0,1
-46.0,-149.0,219.0,15.0,64.0,5.0,1
-45.0,-152.0,219.0,10.0,63.0,3.0,1
-48.0,-150.0,212.0,6.0,65.0,2.0,1
-47.0,-151.0,220.0,1.0,67.0,-1.0,1
-45.0,-149.0,220.0,-2.0,68.0,-3.0,1
-44.0,-150.0,217.0,-5.0,73.0,-5.0,1
-46.0,-151.0,216.0,-7.0,78.0,-4.0,1
-44.0,-149.0,219.0,-6.0,84.0,-3.0,1
-43.0,-150.0,216.0,-5.0,87.0,1.0,1
-43.0,-149.0,216.0,-3.0,86.0,4.0,1
-43.0,-150.0,218.0,-2.0,85.0,7.0,1
-43.0,-152.0,215.0,-1.0,83.0,10.0,1
-40.0,-153.0,221.0,4.0,79.0,10.0,1
-44.0,-151.0,216.0,7.0,77.0,10.0,1
-44.0,-151.0,217.0,7.0,71.0,10.0,1
-46.0,-152.0,215.0,7.0,66.0,10.0,1
-44.0,-151.0,217.0,6.0,63.0,6.0,1
-47.0,-152.0,215.0,3.0,61.0,2.0,1
-46.0,-149.0,215.0,2.0,61.0,1.0,1
-49.0,-141.0,216.0,1.0,63.0,0.0,1
-46.0,-153.0,216.0,2.0,66.0,-3.0,1
-47.0,-152.0,216.0,6.0,69.0,-6.0,1
-47.0,-148.0,214.0,8.0,72.0,-6.0,1
-46.0,-150.0,216.0,10.0,72.0,-6.0,1
-45.0,-148.0,218.0,11.0,75.0,-7.0,1
-45.0,-150.0,215.0,11.0,77.0,-6.0,1
-46.0,-151.0,214.0,11.0,77.0,-4.0,1
-46.0,-147.0,220.0,11.0,77.0,-6.0,1
-49.0,-149.0,215.0,10.0,76.0,-4.0,1
-50.0,-150.0,218.0,10.0,76.0,-5.0,1
-47.0,-152.0,219.0,6.0,74.0,-4.0,1
-47.0,-148.0,220.0,2.0,72.0,-5.0,1
-47.0,-150.0,220.0,0.0,68.0,-3.0,1
-46.0,-151.0,219.0,-1.0,66.0,-5.0,1
-48.0,-150.0,216.0,-4.0,65.0,-4.0,1
-50.0,-149.0,217.0,-6.0,65.0,-4.0,1
-48.0,-149.0,216.0,-7.0,67.0,-3.0,1
-49.0,-149.0,216.0,-9.0,68.0,-4.0,1
-47.0,-149.0,215.0,-10.0,70.0,-3.0,1
-49.0,-149.0,213.0,-10.0,73.0,-2.0,1
-46.0,-151.0,219.0,-14.0,74.0,1.0,1
-46.0,-149.0,215.0,-16.0,73.0,0.0,1
-47.0,-146.0,219.0,-22.0,72.0,1.0,1
-45.0,-149.0,220.0,-29.0,70.0,1.0,1
-46.0,-150.0,218.0,-29.0,67.0,2.0,1
-46.0,-149.0,217.0,-25.0,63.0,3.0,1
-45.0,-150.0,218.0,-21.0,60.0,4.0,1
-45.0,-149.0,218.0,-20.0,59.0,1.0,1
-46.0,-148.0,213.0,-24.0,57.0,-2.0,1
-47.0,-149.0,217.0,-25.0,57.0,-4.0,1
-45.0,-151.0,218.0,-26.0,59.0,-8.0,1
-48.0,-153.0,217.0,-26.0,60.0,-9.0,1
-50.0,-150.0,222.0,-22.0,62.0,-10.0,1
-46.0,-149.0,216.0,-18.0,66.0,-11.0,1
-46.0,-149.0,218.0,-17.0,67.0,-10.0,1
-47.0,-149.0,220.0,-16.0,73.0,-10.0,1
-46.0,-148.0,218.0,-19.0,78.0,-9.0,1
-46.0,-150.0,217.0,-18.0,80.0,-6.0,1
-43.0,-149.0,218.0,-16.0,82.0,-5.0,1
-46.0,-150.0,217.0,-15.0,83.0,-2.0,1
-44.0,-148.0,215.0,-18.0,82.0,-1.0,1
-44.0,-149.0,220.0,-21.0,79.0,0.0,1
-46.0,-154.0,216.0,-24.0,75.0,1.0,1
-45.0,-148.0,216.0,-26.0,72.0,-1.0,1
-47.0,-151.0,217.0,-30.0,68.0,-2.0,1
-47.0,-149.0,216.0,-32.0,62.0,-4.0,1
-48.0,-148.0,215.0,-32.0,57.0,-8.0,1
-48.0,-149.0,216.0,-32.0,56.0,-10.0,1
-46.0,-150.0,214.0,-30.0,59.0,-12.0,1
-45.0,-151.0,217.0,-27.0,64.0,-14.0,1
-47.0,-150.0,217.0,-25.0,66.0,-15.0,1
-45.0,-152.0,215.0,-24.0,71.0,-16.0,1
-47.0,-148.0,217.0,-24.0,75.0,-14.0,1
-48.0,-149.0,217.0,-22.0,77.0,-9.0,1
-45.0,-148.0,215.0,-19.0,79.0,-6.0,1
-44.0,-150.0,213.0,-15.0,80.0,0.0,1
-47.0,-148.0,219.0,-10.0,78.0,4.0,1
-45.0,-150.0,217.0,-7.0,75.0,7.0,1
-45.0,-150.0,216.0,-7.0,68.0,8.0,1
-48.0,-152.0,218.0,-6.0,63.0,9.0,1
-46.0,-151.0,216.0,-6.0,60.0,8.0,1
-45.0,-152.0,217.0,-4.0,59.0,8.0,1
-46.0,-150.0,219.0,-2.0,58.0,6.0,1
-49.0,-149.0,220.0,0.0,60.0,4.0,1
-48.0,-149.0,216.0,3.0,62.0,1.0,1
-45.0,-152.0,211.0,7.0,67.0,0.0,1
-45.0,-154.0,217.0,12.0,71.0,-1.0,1
-46.0,-150.0,218.0,15.0,75.0,-1.0,1
-45.0,-152.0,218.0,19.0,77.0,-1.0,1
-44.0,-152.0,219.0,19.0,78.0,0.0,1
-44.0,-151.0,220.0,17.0,76.0,-1.0,1
-45.0,-151.0,216.0,13.0,75.0,0.0,1
-46.0,-150.0,219.0,6.0,71.0,-1.0,1
-47.0,-149.0,218.0,0.0,68.0,-3.0,1
-47.0,-152.0,219.0,-5.0,66.0,-4.0,1
-48.0,-147.0,219.0,-10.0,62.0,-6.0,1
-46.0,-150.0,219.0,-13.0,60.0,-6.0,1
-46.0,-149.0,217.0,-14.0,59.0,-7.0,1
-47.0,-149.0,216.0,-13.0,60.0,-10.0,1
-47.0,-151.0,215.0,-11.0,63.0,-10.0,1
-49.0,-152.0,214.0,-8.0,66.0,-10.0,1
-45.0,-152.0,214.0,-6.0,70.0,-10.0,1
-48.0,-149.0,214.0,-3.0,72.0,-8.0,1
-50.0,-154.0,216.0,0.0,74.0,-6.0,1
-47.0,-152.0,219.0,5.0,75.0,-3.0,1
-46.0,-154.0,217.0,6.0,75.0,-1.0,1
-47.0,-150.0,216.0,9.0,75.0,0.0,1
-44.0,-156.0,216.0,9.0,73.0,2.0,1
-46.0,-150.0,217.0,5.0,71.0,3.0,1
-47.0,-149.0,220.0,0.0,69.0,0.0,1
-45.0,-150.0,213.0,-4.0,69.0,0.0,1
-44.0,-151.0,217.0,-11.0,66.0,-3.0,1
-45.0,-151.0,218.0,-17.0,64.0,-5.0,1
-46.0,-151.0,218.0,-21.0,62.0,-6.0,1
-45.0,-151.0,214.0,-23.0,60.0,-6.0,1
-48.0,-152.0,216.0,-23.0,61.0,-6.0,1
-46.0,-153.0,216.0,-21.0,61.0,-5.0,1
-46.0,-154.0,215.0,-18.0,65.0,-4.0,1
-44.0,-153.0,220.0,-13.0,66.0,-3.0,1
-45.0,-151.0,219.0,-7.0,67.0,1.0,1
-45.0,-151.0,219.0,-4.0,69.0,3.0,1
-42.0,-155.0,217.0,-2.0,68.0,5.0,1
-45.0,-151.0,218.0,-2.0,67.0,7.0,1
-44.0,-149.0,218.0,-3.0,63.0,7.0,1
-44.0,-149.0,219.0,-5.0,59.0,5.0,1
-47.0,-148.0,222.0,-7.0,55.0,1.0,1
-46.0,-153.0,221.0,-7.0,52.0,-2.0,1
-43.0,-156.0,216.0,-7.0,51.0,-5.0,1
-46.0,-150.0,214.0,-4.0,51.0,-9.0,1
-44.0,-150.0,219.0,-1.0,54.0,-13.0,1
-51.0,-148.0,214.0,1.0,59.0,-16.0,1
-45.0,-147.0,219.0,3.0,63.0,-16.0,1
-46.0,-150.0,216.0,6.0,67.0,-16.0,1
-44.0,-149.0,218.0,6.0,69.0,-16.0,1
-47.0,-149.0,219.0,9.0,71.0,-14.0,1
-45.0,-147.0,219.0,8.0,72.0,-10.0,1
-47.0,-147.0,218.0,8.0,74.0,-7.0,1
-47.0,-151.0,218.0,9.0,70.0,-3.0,1
-43.0,-149.0,221.0,9.0,68.0,2.0,1
-45.0,-147.0,221.0,11.0,63.0,5.0,1
-46.0,-149.0,221.0,13.0,57.0,6.0,1
-48.0,-152.0,219.0,14.0,52.0,8.0,1
-48.0,-150.0,218.0,15.0,44.0,7.0,1
-48.0,-152.0,219.0,15.0,39.0,2.0,1
-47.0,-150.0,216.0,9.0,38.0,-3.0,1
-50.0,-152.0,215.0,1.0,40.0,-8.0,1
-47.0,-151.0,214.0,-9.0,46.0,-14.0,1
-47.0,-149.0,214.0,-16.0,52.0,-18.0,1
-46.0,-150.0,217.0,-15.0,57.0,-20.0,1
-46.0,-148.0,216.0,-14.0,63.0,-21.0,1
-48.0,-146.0,216.0,-10.0,68.0,-20.0,1
-46.0,-149.0,214.0,-7.0,72.0,-18.0,1
-46.0,-147.0,216.0,-3.0,75.0,-15.0,1
-47.0,-146.0,215.0,1.0,78.0,-9.0,1
-46.0,-146.0,217.0,2.0,80.0,-6.0,1
-45.0,-150.0,214.0,3.0,78.0,-1.0,1
-46.0,-150.0,219.0,2.0,76.0,1.0,1
-46.0,-146.0,221.0,2.0,71.0,2.0,1
-46.0,-152.0,223.0,-1.0,68.0,2.0,1
-47.0,-150.0,220.0,-4.0,62.0,0.0,1
-48.0,-149.0,220.0,-8.0,57.0,-4.0,1
-49.0,-151.0,219.0,-10.0,54.0,-8.0,1
-43.0,-151.0,216.0,-11.0,51.0,-12.0,1
-46.0,-154.0,215.0,-12.0,51.0,-14.0,1
-46.0,-152.0,215.0,-13.0,52.0,-16.0,1
-47.0,-149.0,218.0,-14.0,56.0,-18.0,1
-45.0,-151.0,215.0,-11.0,60.0,-18.0,1
-46.0,-150.0,215.0,-9.0,62.0,-18.0,1
-42.0,-153.0,216.0,-4.0,66.0,-16.0,1
-45.0,-149.0,216.0,1.0,69.0,-12.0,1
-42.0,-152.0,215.0,8.0,71.0,-7.0,1
-43.0,-154.0,213.0,15.0,72.0,-2.0,1
-45.0,-150.0,219.0,18.0,72.0,-1.0,1
-45.0,-148.0,219.0,19.0,71.0,1.0,1
-47.0,-151.0,220.0,18.0,69.0,1.0,1
-44.0,-150.0,218.0,16.0,67.0,0.0,1
-47.0,-148.0,222.0,13.0,63.0,-1.0,1
-45.0,-147.0,221.0,8.0,59.0,-5.0,1
-44.0,-149.0,218.0,4.0,60.0,-9.0,1
-45.0,-147.0,218.0,2.0,60.0,-11.0,1
-48.0,-148.0,219.0,-1.0,60.0,-13.0,1
-47.0,-148.0,218.0,-5.0,64.0,-15.0,1
-47.0,-146.0,220.0,-9.0,64.0,-15.0,1
-47.0,-146.0,221.0,-11.0,65.0,-16.0,1
-43.0,-147.0,220.0,-9.0,68.0,-17.0,1
-45.0,-147.0,218.0,-10.0,70.0,-15.0,1
-47.0,-148.0,218.0,-8.0,72.0,-9.0,1
-46.0,-150.0,222.0,-4.0,71.0,-5.0,1
-44.0,-151.0,221.0,-1.0,68.0,-2.0,1
-45.0,-151.0,218.0,-2.0,66.0,2.0,1
-43.0,-148.0,220.0,-2.0,64.0,3.0,1
-46.0,-149.0,221.0,-3.0,61.0,5.0,1
-49.0,-147.0,219.0,-7.0,58.0,6.0,1
-41.0,-158.0,221.0,-11.0,55.0,4.0,1
-47.0,-152.0,220.0,-13.0,52.0,1.0,1
-46.0,-153.0,216.0,-15.0,50.0,-2.0,1
-47.0,-149.0,216.0,-16.0,52.0,-6.0,1
-46.0,-153.0,218.0,-17.0,56.0,-8.0,1
-49.0,-151.0,219.0,-19.0,59.0,-10.0,1
-46.0,-151.0,213.0,-21.0,62.0,-10.0,1
-42.0,-148.0,213.0,-20.0,66.0,-9.0,1
-43.0,-150.0,218.0,-20.0,69.0,-7.0,1
-39.0,-151.0,216.0,-18.0,71.0,-4.0,1
-42.0,-148.0,219.0,-16.0,71.0,-2.0,1
-42.0,-149.0,217.0,-17.0,71.0,2.0,1
-44.0,-148.0,217.0,-18.0,70.0,5.0,1
-44.0,-148.0,222.0,-18.0,67.0,7.0,1
-44.0,-149.0,219.0,-16.0,65.0,10.0,1
-41.0,-148.0,217.0,-7.0,60.0,10.0,1
-43.0,-149.0,214.0,3.0,55.0,12.0,1
-46.0,-152.0,214.0,9.0,52.0,9.0,1
-42.0,-151.0,218.0,12.0,51.0,4.0,1
-46.0,-147.0,217.0,12.0,52.0,-2.0,1
-47.0,-149.0,217.0,10.0,52.0,-8.0,1
-47.0,-149.0,222.0,10.0,56.0,-12.0,1
-46.0,-144.0,213.0,9.0,59.0,-15.0,1
-45.0,-149.0,212.0,9.0,63.0,-15.0,1
-42.0,-149.0,220.0,11.0,66.0,-14.0,1
-46.0,-151.0,221.0,12.0,69.0,-13.0,1
-46.0,-148.0,222.0,15.0,72.0,-10.0,1
-44.0,-149.0,219.0,14.0,73.0,-8.0,1
-43.0,-150.0,219.0,11.0,74.0,-5.0,1
-43.0,-150.0,220.0,12.0,73.0,0.0,1
-46.0,-150.0,219.0,11.0,72.0,2.0,1
-45.0,-148.0,216.0,9.0,73.0,3.0,1
-46.0,-146.0,219.0,9.0,70.0,4.0,1
-46.0,-152.0,220.0,10.0,69.0,1.0,1
-48.0,-150.0,214.0,12.0,66.0,-1.0,1
-48.0,-149.0,221.0,15.0,64.0,-3.0,1
-45.0,-151.0,214.0,18.0,62.0,-6.0,1
-46.0,-151.0,217.0,19.0,64.0,-11.0,1
-46.0,-149.0,215.0,16.0,67.0,-12.0,1
-45.0,-151.0,214.0,12.0,66.0,-15.0,1
-46.0,-148.0,217.0,9.0,68.0,-15.0,1
-43.0,-145.0,215.0,7.0,69.0,-16.0,1
-44.0,-149.0,217.0,5.0,71.0,-17.0,1
-48.0,-146.0,213.0,3.0,74.0,-14.0,1
-43.0,-149.0,220.0,1.0,75.0,-12.0,1
-45.0,-150.0,219.0,-3.0,77.0,-10.0,1
-47.0,-146.0,218.0,-7.0,77.0,-7.0,1
-46.0,-150.0,216.0,-11.0,77.0,-6.0,1
-45.0,-151.0,221.0,-12.0,78.0,-5.0,1
-43.0,-150.0,217.0,-11.0,76.0,-4.0,1
-42.0,-152.0,218.0,-9.0,74.0,-4.0,1
-45.0,-146.0,219.0,-6.0,71.0,-5.0,1
-45.0,-149.0,219.0,-1.0,69.0,-5.0,1
-46.0,-149.0,217.0,2.0,66.0,-6.0,1
-47.0,-148.0,218.0,5.0,63.0,-6.0,1
-47.0,-147.0,220.0,6.0,61.0,-7.0,1
-41.0,-149.0,220.0,4.0,59.0,-7.0,1
-43.0,-148.0,221.0,1.0,58.0,-8.0,1
-47.0,-146.0,222.0,1.0,59.0,-10.0,1
-48.0,-147.0,223.0,-8.0,60.0,-2.0,1
-47.0,-146.0,222.0,-15.0,58.0,-3.0,1
-48.0,-148.0,218.0,-20.0,62.0,0.0,1
-41.0,-148.0,219.0,-21.0,71.0,-2.0,1
-43.0,-147.0,218.0,-21.0,73.0,-11.0,1
-46.0,-148.0,220.0,-24.0,72.0,-14.0,1
-47.0,-147.0,222.0,-23.0,74.0,-13.0,1
-43.0,-138.0,220.0,-35.0,85.0,-9.0,1
-47.0,-146.0,224.0,-73.0,110.0,11.0,1
-49.0,-151.0,221.0,-64.0,101.0,9.0,1
-45.0,-151.0,217.0,-40.0,82.0,5.0,1
-45.0,-148.0,220.0,-18.0,72.0,0.0,1
-44.0,-146.0,220.0,-8.0,68.0,1.0,1
-42.0,-151.0,218.0,-2.0,64.0,3.0,1
-44.0,-148.0,217.0,-2.0,61.0,3.0,1
-45.0,-148.0,219.0,-6.0,58.0,3.0,1
-49.0,-149.0,222.0,-11.0,56.0,5.0,1
-45.0,-151.0,219.0,-10.0,54.0,1.0,1
-46.0,-150.0,217.0,-10.0,52.0,-3.0,1
-49.0,-149.0,222.0,-11.0,50.0,-8.0,1
-47.0,-152.0,216.0,-11.0,50.0,-11.0,1
-45.0,-152.0,220.0,-10.0,52.0,-12.0,1
-46.0,-148.0,216.0,-6.0,53.0,-14.0,1
-46.0,-149.0,216.0,-2.0,54.0,-15.0,1
-47.0,-150.0,215.0,-1.0,58.0,-14.0,1
-43.0,-146.0,215.0,-5.0,61.0,-12.0,1
-43.0,-145.0,217.0,-6.0,64.0,-9.0,1
-43.0,-146.0,219.0,-10.0,64.0,-5.0,1
-40.0,-148.0,217.0,-11.0,66.0,-1.0,1
-45.0,-144.0,221.0,-12.0,67.0,1.0,1
-41.0,-147.0,219.0,-14.0,67.0,3.0,1
-45.0,-146.0,218.0,-16.0,67.0,4.0,1
-40.0,-147.0,219.0,-15.0,68.0,3.0,1
-44.0,-146.0,217.0,-13.0,65.0,0.0,1
-46.0,-146.0,219.0,-11.0,64.0,-1.0,1
-47.0,-150.0,218.0,-9.0,62.0,-4.0,1
-48.0,-151.0,219.0,-6.0,63.0,-6.0,1
-46.0,-151.0,218.0,-2.0,63.0,-9.0,1
-46.0,-152.0,215.0,-1.0,65.0,-11.0,1
-40.0,-151.0,217.0,0.0,68.0,-13.0,1
-45.0,-150.0,217.0,-1.0,69.0,-12.0,1
-46.0,-145.0,216.0,-3.0,70.0,-11.0,1
-42.0,-147.0,218.0,-4.0,71.0,-7.0,1
-44.0,-148.0,220.0,-3.0,72.0,-5.0,1
-42.0,-149.0,217.0,-3.0,71.0,-2.0,1
-44.0,-146.0,218.0,-6.0,73.0,-1.0,1
-44.0,-148.0,217.0,-9.0,71.0,2.0,1
-44.0,-146.0,215.0,-8.0,72.0,1.0,1
-43.0,-147.0,215.0,-6.0,70.0,1.0,1
-46.0,-149.0,222.0,-1.0,70.0,0.0,1
-45.0,-151.0,217.0,3.0,65.0,-2.0,1
-46.0,-149.0,220.0,11.0,62.0,-3.0,1
-46.0,-150.0,216.0,16.0,60.0,-4.0,1
-48.0,-147.0,217.0,21.0,60.0,-6.0,1
-46.0,-149.0,217.0,21.0,62.0,-6.0,1
-44.0,-147.0,212.0,17.0,65.0,-6.0,1
-45.0,-150.0,216.0,7.0,69.0,-4.0,1
-45.0,-141.0,216.0,-5.0,72.0,-2.0,1
-42.0,-145.0,216.0,-17.0,74.0,1.0,1
-44.0,-147.0,220.0,-24.0,78.0,7.0,1
-40.0,-147.0,219.0,-27.0,81.0,11.0,1
-45.0,-149.0,222.0,-32.0,84.0,13.0,1
-42.0,-148.0,220.0,-36.0,87.0,18.0,1
-44.0,-146.0,218.0,-41.0,91.0,21.0,1
-46.0,-148.0,220.0,-43.0,91.0,21.0,1
-43.0,-150.0,220.0,-45.0,90.0,21.0,1
-47.0,-147.0,221.0,-44.0,87.0,21.0,1
-45.0,-151.0,222.0,-41.0,84.0,17.0,1
-47.0,-152.0,219.0,-38.0,82.0,13.0,1
-47.0,-153.0,222.0,-38.0,78.0,11.0,1
-39.0,-154.0,218.0,-34.0,78.0,5.0,1
-39.0,-154.0,223.0,-32.0,78.0,-2.0,1
-47.0,-155.0,213.0,-39.0,80.0,0.0,1
-44.0,-149.0,213.0,-50.0,72.0,-1.0,1
-48.0,-151.0,214.0,-54.0,74.0,2.0,1
-43.0,-151.0,216.0,-55.0,73.0,5.0,1
-44.0,-146.0,216.0,-53.0,74.0,7.0,1
-37.0,-151.0,219.0,-47.0,77.0,8.0,1
-49.0,-153.0,220.0,-33.0,84.0,7.0,1
-45.0,-150.0,218.0,-29.0,83.0,16.0,1
-44.0,-153.0,214.0,-28.0,78.0,14.0,1
-47.0,-148.0,214.0,-23.0,76.0,9.0,1
-43.0,-148.0,214.0,-17.0,77.0,4.0,1
-46.0,-150.0,217.0,-13.0,76.0,0.0,1
-49.0,-147.0,217.0,-10.0,74.0,-1.0,1
-44.0,-148.0,215.0,-11.0,70.0,0.0,1
-45.0,-149.0,218.0,-5.0,68.0,-4.0,1
-46.0,-149.0,213.0,3.0,70.0,-5.0,1
-45.0,-148.0,217.0,9.0,72.0,-3.0,1
-44.0,-148.0,222.0,13.0,74.0,-1.0,1
-47.0,-147.0,221.0,19.0,74.0,1.0,1
-48.0,-150.0,221.0,22.0,76.0,5.0,1
-45.0,-146.0,220.0,23.0,77.0,8.0,1
-44.0,-147.0,223.0,21.0,78.0,9.0,1
-47.0,-147.0,221.0,18.0,78.0,12.0,1
-46.0,-151.0,220.0,18.0,78.0,12.0,1
-48.0,-146.0,219.0,18.0,77.0,12.0,1
-47.0,-148.0,220.0,15.0,77.0,10.0,1
-51.0,-148.0,224.0,14.0,77.0,8.0,1
-49.0,-149.0,220.0,14.0,76.0,6.0,1
-48.0,-148.0,216.0,12.0,76.0,3.0,1
-46.0,-148.0,217.0,11.0,74.0,2.0,1
-48.0,-147.0,219.0,8.0,75.0,-1.0,1
-44.0,-148.0,217.0,6.0,76.0,-2.0,1
-43.0,-145.0,218.0,6.0,76.0,0.0,1
-45.0,-144.0,215.0,4.0,76.0,0.0,1
-48.0,-143.0,218.0,5.0,76.0,1.0,1
-44.0,-145.0,220.0,5.0,78.0,4.0,1
-50.0,-141.0,222.0,5.0,81.0,5.0,1
-46.0,-148.0,219.0,7.0,82.0,7.0,1
-47.0,-151.0,219.0,7.0,85.0,7.0,1
-49.0,-146.0,218.0,7.0,86.0,6.0,1
-47.0,-152.0,220.0,3.0,87.0,3.0,1
-47.0,-149.0,218.0,-4.0,86.0,2.0,1
-49.0,-146.0,218.0,-12.0,87.0,2.0,1
-48.0,-149.0,223.0,-18.0,84.0,2.0,1
-47.0,-148.0,220.0,-22.0,84.0,1.0,1
-45.0,-148.0,215.0,-21.0,82.0,1.0,1
-46.0,-148.0,213.0,-17.0,79.0,1.0,1
-44.0,-147.0,217.0,-16.0,76.0,2.0,1
-45.0,-151.0,217.0,-12.0,75.0,3.0,1
-42.0,-149.0,215.0,-8.0,75.0,4.0,1
-48.0,-150.0,217.0,-4.0,75.0,5.0,1
-47.0,-146.0,216.0,3.0,72.0,5.0,1
-44.0,-151.0,218.0,6.0,72.0,6.0,1
-48.0,-145.0,214.0,9.0,72.0,6.0,1
-46.0,-149.0,218.0,12.0,72.0,4.0,1
-48.0,-148.0,217.0,13.0,73.0,1.0,1
-48.0,-147.0,221.0,9.0,74.0,0.0,1
-47.0,-147.0,225.0,5.0,74.0,-3.0,1
-48.0,-149.0,219.0,3.0,73.0,-6.0,1
-46.0,-146.0,219.0,-2.0,73.0,-6.0,1
-47.0,-147.0,220.0,-7.0,75.0,-5.0,1
-44.0,-145.0,220.0,-11.0,75.0,-5.0,1
-46.0,-147.0,217.0,-12.0,75.0,-3.0,1
-44.0,-146.0,219.0,-13.0,77.0,-2.0,1
-42.0,-148.0,219.0,-13.0,79.0,1.0,1
-45.0,-146.0,220.0,-14.0,81.0,2.0,1
-39.0,-146.0,222.0,-11.0,82.0,5.0,1
-46.0,-149.0,217.0,-10.0,82.0,6.0,1
-49.0,-149.0,219.0,-7.0,83.0,6.0,1
-46.0,-150.0,220.0,-6.0,82.0,6.0,1
-45.0,-152.0,216.0,-3.0,82.0,7.0,1
-44.0,-151.0,218.0,4.0,81.0,6.0,1
-49.0,-149.0,215.0,3.0,78.0,4.0,1
-47.0,-150.0,216.0,0.0,76.0,1.0,1
-45.0,-151.0,219.0,-6.0,73.0,0.0,1
-46.0,-147.0,223.0,-13.0,71.0,-2.0,1
-48.0,-148.0,218.0,-21.0,71.0,-3.0,1
-46.0,-145.0,215.0,-26.0,70.0,-3.0,1
-42.0,-150.0,219.0,-33.0,71.0,-2.0,1
-46.0,-148.0,215.0,-36.0,71.0,0.0,1
-42.0,-145.0,217.0,-36.0,69.0,4.0,1
-43.0,-148.0,215.0,-35.0,68.0,5.0,1
-45.0,-150.0,218.0,-32.0,66.0,10.0,1
-44.0,-150.0,219.0,-29.0,64.0,11.0,1
-45.0,-151.0,216.0,-24.0,65.0,15.0,1
-46.0,-146.0,218.0,-22.0,63.0,16.0,1
-43.0,-151.0,217.0,-19.0,58.0,16.0,1
-46.0,-146.0,218.0,-15.0,55.0,14.0,1
-44.0,-150.0,218.0,-14.0,53.0,10.0,1
-52.0,-147.0,219.0,-13.0,52.0,6.0,1
-48.0,-147.0,218.0,-11.0,53.0,2.0,1
-45.0,-150.0,219.0,-8.0,56.0,-1.0,1
-43.0,-150.0,221.0,-6.0,59.0,-6.0,1
-46.0,-150.0,216.0,-1.0,65.0,-11.0,1
-49.0,-146.0,217.0,0.0,73.0,-4.0,1
-44.0,-148.0,219.0,-6.0,71.0,-2.0,1
-45.0,-146.0,217.0,-8.0,74.0,-5.0,1
-44.0,-149.0,219.0,-6.0,78.0,-4.0,1
-44.0,-146.0,217.0,0.0,82.0,-2.0,1
-48.0,-147.0,218.0,4.0,84.0,1.0,1
-45.0,-149.0,217.0,9.0,84.0,4.0,1
-45.0,-146.0,217.0,14.0,85.0,5.0,1
-50.0,-149.0,218.0,15.0,83.0,7.0,1
-46.0,-147.0,218.0,15.0,81.0,6.0,1
-48.0,-148.0,220.0,13.0,77.0,5.0,1
-51.0,-147.0,221.0,10.0,75.0,4.0,1
-49.0,-149.0,217.0,7.0,77.0,4.0,1
-51.0,-151.0,216.0,1.0,75.0,1.0,1
-47.0,-145.0,217.0,-5.0,73.0,-1.0,1
-49.0,-148.0,213.0,-12.0,75.0,-3.0,1
-50.0,-146.0,220.0,-16.0,74.0,-3.0,1
-47.0,-147.0,219.0,-20.0,74.0,-2.0,1
-44.0,-152.0,218.0,-22.0,75.0,0.0,1
-48.0,-146.0,216.0,-23.0,78.0,2.0,1
-44.0,-147.0,217.0,-23.0,78.0,4.0,1
-46.0,-147.0,218.0,-22.0,77.0,5.0,1
-46.0,-147.0,219.0,-22.0,76.0,9.0,1
-47.0,-147.0,219.0,-22.0,76.0,9.0,1
-45.0,-146.0,221.0,-19.0,75.0,10.0,1
-47.0,-145.0,220.0,-16.0,73.0,9.0,1
-51.0,-148.0,219.0,-14.0,71.0,9.0,1
-46.0,-147.0,219.0,-13.0,71.0,7.0,1
-48.0,-148.0,219.0,-14.0,71.0,2.0,1
-51.0,-148.0,217.0,-12.0,72.0,0.0,1
-48.0,-149.0,218.0,-11.0,73.0,-4.0,1
-48.0,-149.0,220.0,-8.0,75.0,-7.0,1
-45.0,-150.0,221.0,-7.0,78.0,-8.0,1
-46.0,-146.0,220.0,-7.0,78.0,-7.0,1
-44.0,-150.0,218.0,-6.0,77.0,-6.0,1
-43.0,-150.0,221.0,-4.0,78.0,-4.0,1
-46.0,-149.0,220.0,-2.0,76.0,-1.0,1
-45.0,-148.0,215.0,-1.0,77.0,1.0,1
-46.0,-146.0,221.0,1.0,76.0,2.0,1
-47.0,-148.0,219.0,3.0,75.0,0.0,1
-46.0,-150.0,220.0,7.0,71.0,1.0,1
-47.0,-149.0,217.0,14.0,71.0,1.0,1
-46.0,-149.0,214.0,21.0,70.0,2.0,1
-47.0,-152.0,218.0,28.0,67.0,2.0,1
-48.0,-151.0,218.0,32.0,64.0,1.0,1
-48.0,-147.0,215.0,33.0,64.0,-2.0,1
-49.0,-148.0,217.0,28.0,63.0,-6.0,1
-45.0,-146.0,215.0,20.0,67.0,-6.0,1
-45.0,-148.0,214.0,9.0,69.0,-4.0,1
-46.0,-144.0,221.0,0.0,72.0,-4.0,1
