ax,ay,az,gx,gy,gz,label
-4.0,-242.0,-110.0,-83.0,-15.0,-18.0,1
-5.0,-243.0,-111.0,-84.0,-15.0,-20.0,1
-5.0,-240.0,-110.0,-83.0,-16.0,-21.0,1
-4.0,-241.0,-108.0,-81.0,-13.0,-21.0,1
-1.0,-242.0,-108.0,-81.0,-11.0,-23.0,1
-5.0,-240.0,-108.0,-78.0,-9.0,-22.0,1
-5.0,-241.0,-108.0,-79.0,-8.0,-21.0,1
-3.0,-242.0,-111.0,-77.0,-7.0,-20.0,1
-6.0,-241.0,-111.0,-77.0,-5.0,-16.0,1
-5.0,-244.0,-106.0,-73.0,-3.0,-14.0,1
-6.0,-245.0,-108.0,-71.0,-2.0,-11.0,1
-13.0,-244.0,-112.0,-70.0,-1.0,-10.0,1
-7.0,-243.0,-109.0,-70.0,-1.0,-9.0,1
-8.0,-245.0,-116.0,-71.0,-2.0,-6.0,1
-6.0,-244.0,-110.0,-70.0,-2.0,-5.0,1
-8.0,-243.0,-110.0,-69.0,-2.0,-6.0,1
-12.0,-239.0,-114.0,-67.0,-4.0,-5.0,1
-11.0,-245.0,-109.0,-65.0,-5.0,-4.0,1
-10.0,-243.0,-111.0,-64.0,-5.0,-4.0,1
-9.0,-244.0,-110.0,-61.0,-6.0,-6.0,1
-7.0,-245.0,-109.0,-61.0,-5.0,-5.0,1
-9.0,-243.0,-111.0,-60.0,-4.0,-4.0,1
-9.0,-246.0,-111.0,-59.0,-1.0,-4.0,1
-11.0,-243.0,-109.0,-54.0,3.0,-2.0,1
-6.0,-247.0,-114.0,-52.0,5.0,-1.0,1
-7.0,-245.0,-110.0,-48.0,6.0,-2.0,1
-7.0,-243.0,-108.0,-45.0,8.0,-1.0,1
-6.0,-244.0,-112.0,-44.0,7.0,-1.0,1
-7.0,-245.0,-113.0,-41.0,6.0,-3.0,1
-4.0,-245.0,-113.0,-40.0,6.0,-2.0,1
-3.0,-244.0,-109.0,-37.0,7.0,-1.0,1
-6.0,-245.0,-108.0,-34.0,6.0,-1.0,1
-4.0,-242.0,-110.0,-32.0,6.0,0.0,1
-4.0,-245.0,-113.0,-32.0,6.0,1.0,1
-5.0,-247.0,-109.0,-32.0,5.0,1.0,1
-6.0,-244.0,-106.0,-34.0,4.0,2.0,1
-5.0,-244.0,-108.0,-37.0,6.0,3.0,1
-5.0,-243.0,-108.0,-40.0,7.0,4.0,1
-7.0,-245.0,-107.0,-43.0,8.0,6.0,1
-7.0,-240.0,-104.0,-44.0,8.0,6.0,1
-7.0,-242.0,-109.0,-49.0,8.0,9.0,1
-11.0,-239.0,-109.0,-49.0,7.0,11.0,1
-10.0,-240.0,-104.0,-51.0,5.0,14.0,1
-9.0,-241.0,-105.0,-51.0,4.0,16.0,1
-9.0,-244.0,-107.0,-52.0,3.0,17.0,1
-10.0,-242.0,-107.0,-54.0,2.0,20.0,1
-9.0,-244.0,-104.0,-50.0,1.0,21.0,1
-7.0,-246.0,-108.0,-45.0,0.0,21.0,1
-8.0,-243.0,-103.0,-44.0,1.0,21.0,1
-10.0,-240.0,-109.0,-41.0,1.0,21.0,1
-8.0,-240.0,-106.0,-46.0,0.0,20.0,1
-10.0,-239.0,-104.0,-53.0,0.0,18.0,1
-10.0,-242.0,-110.0,-57.0,1.0,20.0,1
-9.0,-241.0,-104.0,-63.0,2.0,17.0,1
-12.0,-245.0,-105.0,-65.0,0.0,16.0,1
-10.0,-244.0,-105.0,-62.0,0.0,15.0,1
-11.0,-247.0,-102.0,-59.0,-2.0,14.0,1
-13.0,-246.0,-108.0,-50.0,-4.0,14.0,1
-10.0,-247.0,-108.0,-37.0,-5.0,14.0,1
-10.0,-245.0,-114.0,-24.0,-6.0,14.0,1
-11.0,-246.0,-108.0,-9.0,-6.0,12.0,1
-9.0,-245.0,-115.0,2.0,-4.0,9.0,1
-11.0,-241.0,-115.0,-2.0,-2.0,7.0,1
-11.0,-243.0,-112.0,-10.0,-3.0,4.0,1
-13.0,-242.0,-112.0,-17.0,-3.0,2.0,1
-10.0,-242.0,-107.0,-20.0,2.0,-2.0,1
-11.0,-239.0,-110.0,-20.0,2.0,-5.0,1
-10.0,-243.0,-108.0,-21.0,4.0,-6.0,1
-13.0,-244.0,-111.0,-20.0,4.0,-7.0,1
-10.0,-244.0,-106.0,-18.0,4.0,-8.0,1
-11.0,-243.0,-108.0,-16.0,5.0,-8.0,1
-10.0,-243.0,-108.0,-14.0,4.0,-9.0,1
-11.0,-243.0,-108.0,-9.0,2.0,-10.0,1
-9.0,-244.0,-107.0,-8.0,2.0,-11.0,1
-11.0,-246.0,-110.0,-7.0,0.0,-11.0,1
-11.0,-245.0,-107.0,-7.0,-3.0,-9.0,1
-9.0,-246.0,-113.0,-9.0,-7.0,-9.0,1
-11.0,-244.0,-108.0,-8.0,-12.0,-6.0,1
-11.0,-245.0,-110.0,-12.0,-15.0,-6.0,1
-11.0,-248.0,-110.0,-15.0,-18.0,-5.0,1
-10.0,-245.0,-107.0,-16.0,-18.0,-4.0,1
-12.0,-246.0,-111.0,-19.0,-17.0,-4.0,1
-11.0,-244.0,-109.0,-24.0,-14.0,-3.0,1
-13.0,-245.0,-107.0,-26.0,-12.0,-2.0,1
-14.0,-245.0,-111.0,-30.0,-9.0,-2.0,1
-13.0,-245.0,-107.0,-37.0,-5.0,0.0,1
-10.0,-247.0,-106.0,-36.0,-4.0,0.0,1
-13.0,-245.0,-110.0,-40.0,-1.0,1.0,1
-11.0,-245.0,-109.0,-40.0,1.0,2.0,1
-8.0,-245.0,-110.0,-38.0,4.0,3.0,1
-8.0,-246.0,-108.0,-35.0,8.0,3.0,1
-10.0,-247.0,-105.0,-35.0,9.0,4.0,1
-6.0,-245.0,-110.0,-33.0,11.0,3.0,1
-7.0,-244.0,-108.0,-35.0,13.0,4.0,1
-8.0,-244.0,-105.0,-36.0,16.0,2.0,1
-6.0,-244.0,-108.0,-36.0,18.0,2.0,1
-9.0,-244.0,-104.0,-35.0,20.0,0.0,1
-12.0,-244.0,-103.0,-35.0,24.0,-3.0,1
-8.0,-242.0,-107.0,-37.0,25.0,-3.0,1
-9.0,-243.0,-106.0,-38.0,28.0,-7.0,1
-9.0,-242.0,-106.0,-42.0,33.0,-9.0,1
-10.0,-240.0,-106.0,-47.0,35.0,-9.0,1
-7.0,-240.0,-104.0,-53.0,40.0,-10.0,1
-8.0,-240.0,-106.0,-59.0,44.0,-12.0,1
-9.0,-238.0,-103.0,-65.0,48.0,-12.0,1
-11.0,-240.0,-104.0,-70.0,51.0,-12.0,1
-8.0,-243.0,-102.0,-74.0,55.0,-12.0,1
-11.0,-238.0,-102.0,-77.0,58.0,-11.0,1
-11.0,-241.0,-102.0,-82.0,60.0,-11.0,1
-8.0,-244.0,-106.0,-86.0,63.0,-9.0,1
-11.0,-243.0,-105.0,-88.0,64.0,-12.0,1
-10.0,-243.0,-103.0,-89.0,65.0,-12.0,1
-9.0,-244.0,-105.0,-89.0,67.0,-11.0,1
-10.0,-244.0,-106.0,-88.0,69.0,-10.0,1
-8.0,-245.0,-109.0,-90.0,73.0,-9.0,1
-9.0,-245.0,-108.0,-94.0,75.0,-11.0,1
-7.0,-243.0,-108.0,-100.0,79.0,-12.0,1
-7.0,-246.0,-110.0,-101.0,81.0,-13.0,1
-7.0,-245.0,-107.0,-101.0,81.0,-14.0,1
-7.0,-241.0,-105.0,-102.0,82.0,-15.0,1
-7.0,-244.0,-106.0,-103.0,81.0,-16.0,1
-7.0,-243.0,-106.0,-102.0,80.0,-17.0,1
-8.0,-241.0,-108.0,-102.0,80.0,-20.0,1
-5.0,-243.0,-109.0,-102.0,80.0,-21.0,1
-7.0,-242.0,-109.0,-102.0,80.0,-20.0,1
-8.0,-241.0,-107.0,-105.0,80.0,-22.0,1
-6.0,-241.0,-111.0,-105.0,79.0,-22.0,1
-8.0,-242.0,-112.0,-110.0,79.0,-22.0,1
-4.0,-241.0,-114.0,-114.0,79.0,-21.0,1
-6.0,-244.0,-115.0,-116.0,78.0,-19.0,1
-7.0,-239.0,-114.0,-122.0,80.0,-20.0,1
-9.0,-238.0,-117.0,-125.0,79.0,-18.0,1
-8.0,-240.0,-112.0,-127.0,80.0,-18.0,1
-5.0,-238.0,-118.0,-130.0,80.0,-18.0,1
-3.0,-240.0,-114.0,-131.0,80.0,-17.0,1
-6.0,-240.0,-115.0,-134.0,78.0,-16.0,1
-7.0,-241.0,-113.0,-136.0,77.0,-17.0,1
-7.0,-241.0,-118.0,-141.0,75.0,-15.0,1
-5.0,-245.0,-117.0,-141.0,73.0,-16.0,1
-5.0,-240.0,-117.0,-144.0,73.0,-16.0,1
-7.0,-244.0,-121.0,-148.0,74.0,-15.0,1
-6.0,-244.0,-120.0,-148.0,74.0,-14.0,1
-5.0,-243.0,-120.0,-148.0,76.0,-13.0,1
-1.0,-244.0,-120.0,-148.0,76.0,-13.0,1
-2.0,-244.0,-119.0,-146.0,79.0,-14.0,1
0.0,-243.0,-118.0,-141.0,80.0,-15.0,1
-4.0,-242.0,-118.0,-136.0,81.0,-16.0,1
-3.0,-244.0,-119.0,-131.0,82.0,-18.0,1
1.0,-244.0,-116.0,-124.0,83.0,-20.0,1
-2.0,-247.0,-120.0,-117.0,83.0,-25.0,1
1.0,-246.0,-120.0,-114.0,86.0,-22.0,1
-1.0,-248.0,-119.0,-110.0,90.0,-22.0,1
0.0,-246.0,-119.0,-108.0,95.0,-22.0,1
-1.0,-246.0,-119.0,-103.0,99.0,-23.0,1
2.0,-247.0,-119.0,-101.0,101.0,-23.0,1
3.0,-245.0,-117.0,-97.0,104.0,-22.0,1
-2.0,-244.0,-120.0,-95.0,106.0,-21.0,1
-1.0,-246.0,-118.0,-92.0,108.0,-20.0,1
-1.0,-247.0,-123.0,-87.0,108.0,-17.0,1
1.0,-246.0,-119.0,-84.0,105.0,-17.0,1
1.0,-247.0,-122.0,-81.0,106.0,-17.0,1
-1.0,-243.0,-122.0,-76.0,107.0,-17.0,1
-2.0,-244.0,-120.0,-73.0,104.0,-15.0,1
-1.0,-241.0,-122.0,-70.0,103.0,-17.0,1
3.0,-245.0,-121.0,-67.0,102.0,-16.0,1
0.0,-243.0,-117.0,-63.0,102.0,-16.0,1
1.0,-240.0,-119.0,-57.0,103.0,-17.0,1
1.0,-243.0,-120.0,-54.0,107.0,-16.0,1
4.0,-245.0,-117.0,-50.0,113.0,-16.0,1
4.0,-246.0,-113.0,-46.0,117.0,-15.0,1
3.0,-242.0,-117.0,-41.0,121.0,-14.0,1
2.0,-241.0,-120.0,-39.0,125.0,-15.0,1
5.0,-245.0,-117.0,-37.0,126.0,-14.0,1
4.0,-241.0,-116.0,-33.0,129.0,-11.0,1
4.0,-240.0,-114.0,-30.0,130.0,-8.0,1
6.0,-242.0,-116.0,-27.0,132.0,-8.0,1
6.0,-242.0,-118.0,-25.0,131.0,-8.0,1
4.0,-239.0,-114.0,-21.0,131.0,-9.0,1
2.0,-241.0,-114.0,-22.0,129.0,-10.0,1
2.0,-242.0,-115.0,-21.0,126.0,-12.0,1
0.0,-240.0,-114.0,-20.0,122.0,-13.0,1
1.0,-242.0,-115.0,-22.0,118.0,-15.0,1
4.0,-240.0,-115.0,-24.0,113.0,-15.0,1
-1.0,-239.0,-114.0,-32.0,109.0,-16.0,1
-3.0,-238.0,-113.0,-40.0,105.0,-15.0,1
1.0,-243.0,-114.0,-46.0,103.0,-14.0,1
-3.0,-243.0,-110.0,-48.0,102.0,-11.0,1
1.0,-247.0,-113.0,-42.0,98.0,-8.0,1
3.0,-245.0,-117.0,-36.0,99.0,-6.0,1
3.0,-246.0,-115.0,-25.0,96.0,-2.0,1
7.0,-245.0,-115.0,-12.0,96.0,0.0,1
4.0,-245.0,-112.0,-3.0,94.0,3.0,1
5.0,-245.0,-119.0,2.0,94.0,4.0,1
9.0,-246.0,-119.0,6.0,94.0,9.0,1
5.0,-244.0,-117.0,14.0,94.0,11.0,1
6.0,-247.0,-114.0,23.0,95.0,12.0,1
10.0,-243.0,-114.0,31.0,97.0,13.0,1
12.0,-243.0,-118.0,39.0,102.0,13.0,1
11.0,-239.0,-112.0,45.0,107.0,10.0,1
11.0,-238.0,-111.0,47.0,113.0,9.0,1
11.0,-239.0,-107.0,48.0,119.0,7.0,1
11.0,-242.0,-112.0,44.0,121.0,4.0,1
8.0,-237.0,-106.0,42.0,123.0,4.0,1
8.0,-238.0,-110.0,39.0,122.0,1.0,1
4.0,-239.0,-103.0,37.0,120.0,-3.0,1
5.0,-243.0,-106.0,31.0,118.0,-6.0,1
4.0,-244.0,-106.0,26.0,115.0,-8.0,1
5.0,-243.0,-103.0,18.0,110.0,-13.0,1
9.0,-246.0,-106.0,10.0,105.0,-16.0,1
9.0,-246.0,-109.0,-1.0,104.0,-21.0,1
9.0,-247.0,-110.0,-12.0,106.0,-22.0,1
8.0,-245.0,-113.0,-21.0,111.0,-23.0,1
4.0,-240.0,-110.0,-25.0,116.0,-19.0,1
4.0,-242.0,-110.0,-24.0,119.0,-12.0,1
3.0,-241.0,-114.0,-21.0,123.0,-8.0,1
-4.0,-239.0,-112.0,-19.0,128.0,-4.0,1
-7.0,-238.0,-109.0,-11.0,126.0,0.0,1
-7.0,-229.0,-103.0,1.0,123.0,7.0,1
-3.0,-235.0,-108.0,13.0,120.0,10.0,1
-9.0,-239.0,-101.0,18.0,118.0,9.0,1
-5.0,-241.0,-105.0,26.0,111.0,13.0,1
-9.0,-242.0,-109.0,32.0,100.0,9.0,1
-10.0,-246.0,-107.0,40.0,89.0,6.0,1
-8.0,-247.0,-106.0,50.0,76.0,-2.0,1
-10.0,-244.0,-102.0,56.0,68.0,-9.0,1
-3.0,-247.0,-107.0,67.0,60.0,-14.0,1
-2.0,-248.0,-105.0,77.0,55.0,-26.0,1
0.0,-252.0,-104.0,84.0,49.0,-39.0,1
19.0,-254.0,-117.0,81.0,45.0,-55.0,1
21.0,-248.0,-116.0,64.0,62.0,-82.0,1
25.0,-246.0,-119.0,39.0,89.0,-84.0,1
21.0,-241.0,-117.0,20.0,113.0,-75.0,1
34.0,-238.0,-117.0,5.0,127.0,-65.0,1
36.0,-231.0,-120.0,-10.0,137.0,-60.0,1
24.0,-232.0,-116.0,-28.0,143.0,-60.0,1
21.0,-242.0,-110.0,-42.0,136.0,-62.0,1
18.0,-241.0,-112.0,-46.0,123.0,-70.0,1
12.0,-244.0,-113.0,-35.0,112.0,-77.0,1
8.0,-246.0,-112.0,-18.0,101.0,-76.0,1
8.0,-248.0,-116.0,-6.0,92.0,-83.0,1
10.0,-250.0,-120.0,-2.0,85.0,-100.0,1
8.0,-258.0,-120.0,-6.0,91.0,-124.0,1
-7.0,-269.0,-117.0,-13.0,107.0,-145.0,1
-1.0,-282.0,-107.0,-12.0,119.0,-178.0,1
-6.0,-266.0,-113.0,19.0,133.0,-217.0,1
-7.0,-252.0,-119.0,71.0,157.0,-221.0,1
9.0,-215.0,-118.0,114.0,193.0,-205.0,1
3.0,-204.0,-115.0,149.0,223.0,-153.0,1
-15.0,-225.0,-103.0,158.0,234.0,-130.0,1
-21.0,-239.0,-104.0,134.0,211.0,-150.0,1
-7.0,-248.0,-109.0,94.0,190.0,-168.0,1
1.0,-242.0,-112.0,63.0,197.0,-174.0,1
11.0,-243.0,-106.0,59.0,209.0,-168.0,1
13.0,-242.0,-109.0,76.0,208.0,-160.0,1
15.0,-243.0,-113.0,95.0,202.0,-139.0,1
14.0,-248.0,-110.0,95.0,194.0,-123.0,1
15.0,-244.0,-113.0,84.0,189.0,-113.0,1
17.0,-244.0,-108.0,79.0,184.0,-98.0,1
18.0,-246.0,-113.0,75.0,180.0,-80.0,1
18.0,-242.0,-113.0,67.0,178.0,-64.0,1
14.0,-242.0,-114.0,62.0,179.0,-55.0,1
21.0,-246.0,-108.0,59.0,178.0,-51.0,1
15.0,-245.0,-111.0,59.0,181.0,-58.0,1
15.0,-244.0,-110.0,63.0,183.0,-59.0,1
15.0,-245.0,-111.0,66.0,187.0,-58.0,1
13.0,-243.0,-111.0,71.0,188.0,-55.0,1
11.0,-243.0,-114.0,79.0,190.0,-52.0,1
10.0,-243.0,-110.0,84.0,187.0,-46.0,1
9.0,-240.0,-113.0,90.0,185.0,-37.0,1
-1.0,-234.0,-108.0,95.0,184.0,-25.0,1
1.0,-238.0,-108.0,98.0,177.0,-14.0,1
-1.0,-242.0,-112.0,100.0,172.0,-9.0,1
-6.0,-244.0,-112.0,90.0,168.0,-9.0,1
-5.0,-244.0,-115.0,77.0,166.0,-12.0,1
-4.0,-244.0,-108.0,69.0,166.0,-6.0,1
-7.0,-243.0,-108.0,69.0,167.0,0.0,1
-9.0,-240.0,-105.0,69.0,163.0,5.0,1
-14.0,-239.0,-103.0,63.0,159.0,10.0,1
-14.0,-239.0,-103.0,53.0,154.0,15.0,1
-11.0,-241.0,-103.0,42.0,148.0,16.0,1
-12.0,-242.0,-100.0,28.0,139.0,17.0,1
-12.0,-243.0,-102.0,9.0,133.0,18.0,1
-13.0,-242.0,-101.0,-13.0,121.0,18.0,1
-12.0,-244.0,-99.0,-32.0,110.0,17.0,1
-13.0,-241.0,-98.0,-49.0,99.0,18.0,1
-12.0,-244.0,-99.0,-62.0,87.0,20.0,1
-8.0,-246.0,-100.0,-70.0,76.0,21.0,1
-9.0,-244.0,-98.0,-76.0,65.0,22.0,1
-7.0,-246.0,-102.0,-79.0,53.0,26.0,1
-7.0,-248.0,-107.0,-79.0,39.0,27.0,1
-10.0,-248.0,-106.0,-80.0,27.0,28.0,1
-10.0,-248.0,-111.0,-76.0,15.0,29.0,1
-8.0,-246.0,-106.0,-72.0,4.0,32.0,1
-8.0,-247.0,-108.0,-71.0,-6.0,33.0,1
-8.0,-248.0,-110.0,-63.0,-14.0,37.0,1
-8.0,-246.0,-105.0,-56.0,-17.0,37.0,1
-6.0,-248.0,-110.0,-48.0,-19.0,40.0,1
-7.0,-247.0,-105.0,-43.0,-22.0,41.0,1
-10.0,-245.0,-106.0,-42.0,-27.0,41.0,1
-4.0,-242.0,-107.0,-46.0,-33.0,43.0,1
-9.0,-241.0,-104.0,-52.0,-41.0,42.0,1
-6.0,-245.0,-105.0,-57.0,-48.0,43.0,1
-2.0,-236.0,-104.0,-62.0,-56.0,45.0,1
-2.0,-239.0,-110.0,-61.0,-64.0,51.0,1
-4.0,-234.0,-103.0,-60.0,-73.0,52.0,1
0.0,-237.0,-104.0,-60.0,-81.0,59.0,1
-3.0,-241.0,-105.0,-57.0,-88.0,62.0,1
-2.0,-243.0,-103.0,-55.0,-95.0,61.0,1
-2.0,-244.0,-104.0,-53.0,-101.0,61.0,1
-1.0,-244.0,-109.0,-55.0,-98.0,60.0,1
4.0,-242.0,-111.0,-55.0,-94.0,56.0,1
6.0,-239.0,-105.0,-55.0,-86.0,55.0,1
8.0,-240.0,-101.0,-61.0,-75.0,52.0,1
2.0,-237.0,-105.0,-69.0,-69.0,54.0,1
5.0,-234.0,-100.0,-84.0,-65.0,56.0,1
5.0,-240.0,-100.0,-101.0,-63.0,57.0,1
0.0,-238.0,-98.0,-117.0,-61.0,60.0,1
-1.0,-238.0,-101.0,-134.0,-59.0,61.0,1
1.0,-239.0,-102.0,-145.0,-61.0,68.0,1
3.0,-252.0,-98.0,-150.0,-61.0,71.0,1
3.0,-247.0,-112.0,-152.0,-60.0,74.0,1
8.0,-247.0,-105.0,-150.0,-54.0,75.0,1
6.0,-246.0,-112.0,-144.0,-49.0,72.0,1
8.0,-245.0,-109.0,-140.0,-46.0,70.0,1
9.0,-248.0,-110.0,-145.0,-45.0,66.0,1
8.0,-246.0,-112.0,-153.0,-44.0,64.0,1
5.0,-241.0,-110.0,-156.0,-39.0,61.0,1
5.0,-240.0,-112.0,-155.0,-34.0,58.0,1
5.0,-242.0,-110.0,-161.0,-29.0,57.0,1
3.0,-241.0,-110.0,-166.0,-21.0,55.0,1
16.0,-234.0,-115.0,-173.0,-17.0,54.0,1
6.0,-242.0,-113.0,-177.0,-9.0,54.0,1
4.0,-237.0,-113.0,-180.0,-1.0,55.0,1
7.0,-242.0,-115.0,-185.0,7.0,54.0,1
5.0,-241.0,-112.0,-192.0,13.0,55.0,1
4.0,-243.0,-115.0,-195.0,16.0,59.0,1
6.0,-241.0,-116.0,-199.0,20.0,59.0,1
2.0,-240.0,-116.0,-204.0,20.0,59.0,1
1.0,-238.0,-112.0,-208.0,18.0,60.0,1
4.0,-238.0,-113.0,-212.0,17.0,61.0,1
5.0,-237.0,-112.0,-212.0,16.0,61.0,1
3.0,-228.0,-123.0,-209.0,14.0,60.0,1
5.0,-241.0,-117.0,-210.0,14.0,59.0,1
3.0,-241.0,-114.0,-205.0,11.0,59.0,1
3.0,-234.0,-119.0,-207.0,12.0,56.0,1
3.0,-241.0,-116.0,-208.0,13.0,54.0,1
6.0,-237.0,-115.0,-208.0,16.0,53.0,1
5.0,-239.0,-116.0,-210.0,17.0,51.0,1
7.0,-235.0,-122.0,-211.0,20.0,51.0,1
5.0,-236.0,-119.0,-215.0,23.0,51.0,1
6.0,-235.0,-117.0,-222.0,28.0,50.0,1
10.0,-236.0,-119.0,-226.0,33.0,49.0,1
-1.0,-236.0,-115.0,-234.0,36.0,49.0,1
7.0,-233.0,-121.0,-241.0,42.0,47.0,1
9.0,-232.0,-123.0,-252.0,48.0,46.0,1
8.0,-234.0,-123.0,-261.0,54.0,46.0,1
9.0,-232.0,-122.0,-267.0,60.0,43.0,1
9.0,-228.0,-124.0,-273.0,66.0,42.0,1
9.0,-232.0,-122.0,-280.0,74.0,41.0,1
7.0,-230.0,-122.0,-288.0,81.0,41.0,1
9.0,-234.0,-122.0,-294.0,91.0,41.0,1
6.0,-230.0,-125.0,-303.0,101.0,41.0,1
5.0,-229.0,-125.0,-311.0,108.0,43.0,1
7.0,-230.0,-124.0,-312.0,119.0,44.0,1
4.0,-232.0,-122.0,-313.0,126.0,49.0,1
2.0,-233.0,-123.0,-320.0,129.0,51.0,1
1.0,-231.0,-125.0,-325.0,133.0,54.0,1
3.0,-231.0,-125.0,-327.0,132.0,56.0,1
-1.0,-229.0,-124.0,-331.0,128.0,57.0,1
1.0,-228.0,-126.0,-339.0,125.0,57.0,1
1.0,-228.0,-125.0,-350.0,122.0,58.0,1
-2.0,-223.0,-126.0,-364.0,116.0,57.0,1
-2.0,-224.0,-123.0,-382.0,111.0,57.0,1
-4.0,-225.0,-123.0,-396.0,107.0,60.0,1
-4.0,-223.0,-125.0,-405.0,99.0,64.0,1
-5.0,-226.0,-122.0,-413.0,91.0,65.0,1
-4.0,-227.0,-125.0,-423.0,79.0,66.0,1
-8.0,-223.0,-125.0,-435.0,69.0,65.0,1
-7.0,-224.0,-131.0,-448.0,58.0,65.0,1
-5.0,-226.0,-127.0,-460.0,48.0,64.0,1
-5.0,-227.0,-130.0,-471.0,38.0,61.0,1
-5.0,-228.0,-129.0,-476.0,30.0,61.0,1
-5.0,-228.0,-132.0,-480.0,24.0,59.0,1
-6.0,-228.0,-130.0,-480.0,21.0,56.0,1
-6.0,-230.0,-132.0,-480.0,16.0,53.0,1
-5.0,-230.0,-131.0,-477.0,11.0,46.0,1
-5.0,-231.0,-132.0,-474.0,6.0,41.0,1
-3.0,-236.0,-132.0,-465.0,0.0,35.0,1
-3.0,-232.0,-126.0,-460.0,-5.0,25.0,1
-5.0,-237.0,-132.0,-456.0,-9.0,15.0,1
-3.0,-232.0,-128.0,-451.0,-11.0,1.0,1
-7.0,-231.0,-131.0,-446.0,-18.0,-5.0,1
-8.0,-228.0,-132.0,-446.0,-26.0,-16.0,1
-8.0,-226.0,-134.0,-453.0,-33.0,-27.0,1
-8.0,-224.0,-134.0,-462.0,-37.0,-37.0,1
-8.0,-220.0,-136.0,-466.0,-40.0,-47.0,1
-5.0,-220.0,-129.0,-471.0,-37.0,-54.0,1
-3.0,-219.0,-133.0,-479.0,-33.0,-64.0,1
-5.0,-216.0,-131.0,-490.0,-26.0,-73.0,1
-4.0,-215.0,-134.0,-503.0,-16.0,-79.0,1
-2.0,-211.0,-138.0,-515.0,-10.0,-84.0,1
1.0,-214.0,-137.0,-524.0,-5.0,-88.0,1
5.0,-216.0,-140.0,-539.0,4.0,-96.0,1
5.0,-219.0,-140.0,-554.0,11.0,-101.0,1
3.0,-219.0,-140.0,-566.0,18.0,-103.0,1
1.0,-217.0,-142.0,-579.0,21.0,-102.0,1
3.0,-218.0,-140.0,-587.0,23.0,-105.0,1
3.0,-218.0,-143.0,-595.0,21.0,-107.0,1
2.0,-221.0,-141.0,-602.0,14.0,-111.0,1
6.0,-222.0,-147.0,-605.0,8.0,-114.0,1
2.0,-220.0,-138.0,-605.0,3.0,-118.0,1
-2.0,-225.0,-140.0,-600.0,-2.0,-124.0,1
1.0,-225.0,-137.0,-593.0,-5.0,-128.0,1
-3.0,-225.0,-140.0,-584.0,-8.0,-130.0,1
1.0,-221.0,-142.0,-573.0,-7.0,-132.0,1
4.0,-224.0,-141.0,-563.0,0.0,-138.0,1
2.0,-222.0,-138.0,-560.0,10.0,-145.0,1
6.0,-221.0,-142.0,-551.0,22.0,-144.0,1
4.0,-219.0,-139.0,-546.0,31.0,-136.0,1
7.0,-221.0,-142.0,-535.0,43.0,-129.0,1
3.0,-218.0,-147.0,-529.0,62.0,-127.0,1
16.0,-221.0,-148.0,-526.0,81.0,-125.0,1
16.0,-218.0,-150.0,-525.0,107.0,-118.0,1
15.0,-221.0,-151.0,-524.0,133.0,-111.0,1
15.0,-219.0,-155.0,-524.0,157.0,-100.0,1
12.0,-219.0,-161.0,-531.0,169.0,-92.0,1
8.0,-217.0,-156.0,-546.0,175.0,-83.0,1
13.0,-222.0,-158.0,-556.0,181.0,-82.0,1
7.0,-220.0,-166.0,-560.0,183.0,-81.0,1
-15.0,-220.0,-166.0,-565.0,176.0,-77.0,1
-16.0,-225.0,-167.0,-582.0,144.0,-52.0,1
-35.0,-223.0,-166.0,-602.0,102.0,-34.0,1
-28.0,-228.0,-164.0,-612.0,42.0,-11.0,1
-18.0,-222.0,-166.0,-614.0,-15.0,-4.0,1
-28.0,-220.0,-163.0,-612.0,-76.0,4.0,1
-27.0,-217.0,-166.0,-616.0,-142.0,15.0,1
-7.0,-216.0,-162.0,-624.0,-205.0,22.0,1
0.0,-212.0,-156.0,-619.0,-245.0,6.0,1
9.0,-204.0,-161.0,-604.0,-268.0,-11.0,1
8.0,-200.0,-163.0,-600.0,-266.0,-26.0,1
11.0,-204.0,-157.0,-609.0,-254.0,-39.0,1
-4.0,-200.0,-159.0,-623.0,-236.0,-43.0,1
-10.0,-203.0,-165.0,-643.0,-231.0,-39.0,1
-18.0,-200.0,-164.0,-675.0,-243.0,-30.0,1
-12.0,-208.0,-167.0,-710.0,-262.0,-33.0,1
-5.0,-206.0,-171.0,-727.0,-272.0,-53.0,1
-5.0,-214.0,-168.0,-711.0,-248.0,-57.0,1
0.0,-209.0,-174.0,-664.0,-219.0,-47.0,1
-9.0,-203.0,-174.0,-625.0,-185.0,-43.0,1
-6.0,-199.0,-174.0,-610.0,-164.0,-46.0,1
-7.0,-195.0,-179.0,-614.0,-149.0,-54.0,1
-9.0,-205.0,-176.0,-629.0,-148.0,-59.0,1
-4.0,-205.0,-176.0,-648.0,-152.0,-58.0,1
1.0,-209.0,-177.0,-659.0,-152.0,-61.0,1
14.0,-209.0,-175.0,-655.0,-138.0,-63.0,1
11.0,-203.0,-167.0,-648.0,-116.0,-78.0,1
12.0,-199.0,-169.0,-638.0,-88.0,-89.0,1
12.0,-204.0,-168.0,-633.0,-72.0,-83.0,1
20.0,-203.0,-166.0,-628.0,-63.0,-87.0,1
25.0,-202.0,-169.0,-621.0,-52.0,-99.0,1
26.0,-203.0,-168.0,-611.0,-41.0,-108.0,1
24.0,-201.0,-169.0,-607.0,-31.0,-121.0,1
26.0,-203.0,-169.0,-604.0,-17.0,-139.0,1
10.0,-192.0,-171.0,-597.0,-7.0,-157.0,1
-2.0,-194.0,-172.0,-599.0,-8.0,-148.0,1
27.0,-209.0,-174.0,-627.0,-24.0,-138.0,1
8.0,-201.0,-174.0,-636.0,-31.0,-160.0,1
14.0,-196.0,-168.0,-615.0,-30.0,-171.0,1
0.0,-202.0,-177.0,-599.0,-15.0,-182.0,1
-16.0,-206.0,-177.0,-606.0,-1.0,-166.0,1
-6.0,-217.0,-179.0,-635.0,-3.0,-151.0,1
-16.0,-218.0,-179.0,-659.0,-8.0,-151.0,1
-15.0,-214.0,-172.0,-671.0,-15.0,-152.0,1
-16.0,-219.0,-181.0,-672.0,-23.0,-147.0,1
-21.0,-221.0,-176.0,-667.0,-21.0,-154.0,1
-25.0,-217.0,-180.0,-655.0,-13.0,-162.0,1
-30.0,-219.0,-177.0,-644.0,-4.0,-170.0,1
-27.0,-219.0,-176.0,-635.0,1.0,-175.0,1
-30.0,-221.0,-184.0,-626.0,6.0,-180.0,1
-32.0,-219.0,-184.0,-608.0,11.0,-185.0,1
-38.0,-218.0,-184.0,-587.0,16.0,-192.0,1
-37.0,-219.0,-188.0,-570.0,24.0,-201.0,1
-40.0,-218.0,-186.0,-547.0,38.0,-208.0,1
-41.0,-216.0,-188.0,-520.0,52.0,-215.0,1
-44.0,-212.0,-192.0,-486.0,66.0,-228.0,1
-44.0,-214.0,-188.0,-452.0,80.0,-243.0,1
-49.0,-213.0,-187.0,-416.0,89.0,-264.0,1
-53.0,-218.0,-183.0,-375.0,95.0,-285.0,1
-53.0,-218.0,-181.0,-337.0,94.0,-305.0,1
-57.0,-221.0,-182.0,-298.0,90.0,-322.0,1
-57.0,-223.0,-177.0,-257.0,88.0,-338.0,1
-67.0,-227.0,-178.0,-216.0,89.0,-349.0,1
-68.0,-231.0,-178.0,-171.0,95.0,-359.0,1
-70.0,-233.0,-174.0,-124.0,103.0,-367.0,1
-67.0,-232.0,-172.0,-75.0,113.0,-374.0,1
-67.0,-233.0,-174.0,-28.0,120.0,-374.0,1
-63.0,-235.0,-171.0,12.0,131.0,-385.0,1
-58.0,-232.0,-171.0,50.0,147.0,-395.0,1
-51.0,-230.0,-171.0,83.0,166.0,-411.0,1
-40.0,-234.0,-168.0,112.0,190.0,-431.0,1
-29.0,-224.0,-175.0,137.0,221.0,-439.0,1
-28.0,-225.0,-178.0,155.0,253.0,-445.0,1
-23.0,-220.0,-176.0,161.0,283.0,-455.0,1
-19.0,-219.0,-182.0,158.0,316.0,-459.0,1
-11.0,-219.0,-186.0,154.0,354.0,-457.0,1
-5.0,-213.0,-191.0,136.0,385.0,-454.0,1
-7.0,-203.0,-184.0,115.0,413.0,-452.0,1
-12.0,-206.0,-192.0,105.0,436.0,-426.0,1
-15.0,-204.0,-186.0,92.0,450.0,-406.0,1
-15.0,-202.0,-184.0,83.0,458.0,-382.0,1
-18.0,-204.0,-184.0,80.0,458.0,-350.0,1
-20.0,-200.0,-182.0,79.0,451.0,-319.0,1
-23.0,-198.0,-183.0,81.0,439.0,-285.0,1
-29.0,-196.0,-184.0,79.0,422.0,-254.0,1
-26.0,-194.0,-183.0,81.0,405.0,-225.0,1
-23.0,-196.0,-183.0,84.0,391.0,-196.0,1
-20.0,-202.0,-175.0,85.0,383.0,-169.0,1
-14.0,-204.0,-178.0,84.0,381.0,-147.0,1
-7.0,-205.0,-173.0,88.0,379.0,-125.0,1
-5.0,-205.0,-172.0,98.0,387.0,-108.0,1
-1.0,-207.0,-164.0,114.0,399.0,-98.0,1
3.0,-208.0,-162.0,136.0,423.0,-87.0,1
10.0,-213.0,-164.0,158.0,449.0,-80.0,1
13.0,-211.0,-160.0,171.0,476.0,-73.0,1
4.0,-201.0,-164.0,164.0,503.0,-77.0,1
1.0,-203.0,-162.0,161.0,524.0,-60.0,1
1.0,-202.0,-162.0,145.0,537.0,-42.0,1
-2.0,-196.0,-164.0,114.0,542.0,-27.0,1
-10.0,-191.0,-168.0,72.0,543.0,-13.0,1
-9.0,-195.0,-166.0,31.0,543.0,1.0,1
-11.0,-194.0,-165.0,-5.0,549.0,17.0,1
-9.0,-193.0,-168.0,-36.0,553.0,27.0,1
-13.0,-189.0,-169.0,-60.0,555.0,31.0,1
-13.0,-187.0,-166.0,-85.0,554.0,39.0,1
-6.0,-187.0,-170.0,-105.0,551.0,39.0,1
-1.0,-186.0,-171.0,-117.0,550.0,39.0,1
-4.0,-185.0,-166.0,-116.0,549.0,33.0,1
-1.0,-180.0,-168.0,-111.0,545.0,20.0,1
1.0,-178.0,-174.0,-104.0,548.0,12.0,1
3.0,-176.0,-173.0,-98.0,552.0,4.0,1
4.0,-174.0,-173.0,-91.0,554.0,-6.0,1
10.0,-174.0,-175.0,-89.0,560.0,-12.0,1
5.0,-171.0,-170.0,-86.0,569.0,-18.0,1
5.0,-165.0,-170.0,-84.0,581.0,-18.0,1
8.0,-169.0,-166.0,-80.0,590.0,-19.0,1
31.0,-159.0,-169.0,-78.0,598.0,-24.0,1
8.0,-148.0,-154.0,-78.0,604.0,-24.0,1
13.0,-159.0,-156.0,-79.0,604.0,-26.0,1
11.0,-160.0,-154.0,-91.0,604.0,-36.0,1
18.0,-154.0,-150.0,-113.0,607.0,-53.0,1
23.0,-160.0,-150.0,-123.0,611.0,-55.0,1
26.0,-162.0,-151.0,-130.0,615.0,-65.0,1
27.0,-163.0,-149.0,-147.0,623.0,-79.0,1
26.0,-168.0,-144.0,-164.0,626.0,-86.0,1
26.0,-173.0,-147.0,-181.0,622.0,-99.0,1
31.0,-174.0,-148.0,-201.0,612.0,-111.0,1
33.0,-170.0,-153.0,-225.0,596.0,-125.0,1
29.0,-167.0,-152.0,-239.0,580.0,-126.0,1
29.0,-167.0,-155.0,-246.0,560.0,-131.0,1
24.0,-164.0,-158.0,-254.0,541.0,-133.0,1
27.0,-162.0,-163.0,-269.0,521.0,-133.0,1
24.0,-166.0,-167.0,-286.0,504.0,-136.0,1
33.0,-164.0,-164.0,-302.0,492.0,-138.0,1
28.0,-156.0,-167.0,-305.0,485.0,-131.0,1
32.0,-161.0,-165.0,-297.0,486.0,-123.0,1
33.0,-155.0,-170.0,-284.0,498.0,-122.0,1
34.0,-152.0,-168.0,-266.0,516.0,-115.0,1
37.0,-152.0,-168.0,-242.0,537.0,-100.0,1
42.0,-146.0,-165.0,-219.0,564.0,-99.0,1
48.0,-146.0,-167.0,-187.0,602.0,-83.0,1
53.0,-146.0,-162.0,-152.0,642.0,-68.0,1
52.0,-148.0,-162.0,-127.0,683.0,-53.0,1
60.0,-147.0,-160.0,-113.0,721.0,-42.0,1
54.0,-137.0,-159.0,-104.0,749.0,-32.0,1
55.0,-136.0,-161.0,-102.0,774.0,-23.0,1
54.0,-131.0,-154.0,-115.0,781.0,-11.0,1
52.0,-135.0,-153.0,-141.0,775.0,-6.0,1
47.0,-132.0,-143.0,-160.0,758.0,-3.0,1
47.0,-131.0,-140.0,-176.0,730.0,1.0,1
38.0,-129.0,-138.0,-189.0,695.0,1.0,1
37.0,-124.0,-137.0,-198.0,657.0,2.0,1
35.0,-126.0,-141.0,-208.0,629.0,3.0,1
33.0,-123.0,-143.0,-220.0,609.0,6.0,1
32.0,-118.0,-146.0,-230.0,603.0,10.0,1
28.0,-118.0,-138.0,-236.0,609.0,18.0,1
32.0,-115.0,-146.0,-240.0,617.0,25.0,1
34.0,-114.0,-142.0,-253.0,624.0,33.0,1
34.0,-108.0,-144.0,-274.0,627.0,36.0,1
38.0,-112.0,-144.0,-292.0,621.0,34.0,1
41.0,-112.0,-143.0,-306.0,608.0,25.0,1
44.0,-114.0,-144.0,-312.0,598.0,11.0,1
48.0,-113.0,-148.0,-323.0,597.0,-9.0,1
47.0,-113.0,-152.0,-336.0,612.0,-29.0,1
49.0,-114.0,-148.0,-345.0,640.0,-37.0,1
51.0,-119.0,-152.0,-351.0,672.0,-40.0,1
51.0,-122.0,-147.0,-363.0,703.0,-51.0,1
52.0,-130.0,-145.0,-383.0,726.0,-64.0,1
50.0,-132.0,-141.0,-399.0,740.0,-87.0,1
49.0,-134.0,-135.0,-393.0,748.0,-104.0,1
49.0,-140.0,-130.0,-358.0,745.0,-120.0,1
42.0,-134.0,-129.0,-301.0,744.0,-134.0,1
39.0,-129.0,-127.0,-232.0,737.0,-143.0,1
37.0,-125.0,-129.0,-165.0,720.0,-156.0,1
31.0,-118.0,-130.0,-107.0,696.0,-170.0,1
32.0,-112.0,-130.0,-57.0,666.0,-180.0,1
27.0,-106.0,-136.0,-15.0,628.0,-196.0,1
25.0,-94.0,-136.0,15.0,590.0,-215.0,1
25.0,-87.0,-139.0,23.0,556.0,-234.0,1
28.0,-81.0,-136.0,18.0,528.0,-245.0,1
33.0,-73.0,-138.0,1.0,510.0,-256.0,1
33.0,-66.0,-133.0,-14.0,510.0,-263.0,1
40.0,-69.0,-135.0,-32.0,519.0,-265.0,1
45.0,-72.0,-130.0,-57.0,536.0,-267.0,1
45.0,-73.0,-127.0,-86.0,562.0,-271.0,1
48.0,-78.0,-129.0,-119.0,594.0,-272.0,1
51.0,-82.0,-129.0,-152.0,634.0,-272.0,1
55.0,-82.0,-129.0,-196.0,684.0,-270.0,1
56.0,-86.0,-137.0,-242.0,738.0,-268.0,1
57.0,-90.0,-137.0,-283.0,793.0,-263.0,1
62.0,-97.0,-139.0,-309.0,833.0,-257.0,1
59.0,-103.0,-149.0,-322.0,867.0,-255.0,1
63.0,-109.0,-156.0,-329.0,890.0,-249.0,1
58.0,-111.0,-161.0,-330.0,906.0,-244.0,1
57.0,-116.0,-169.0,-330.0,917.0,-242.0,1
53.0,-109.0,-177.0,-324.0,921.0,-247.0,1
52.0,-113.0,-175.0,-313.0,934.0,-246.0,1
46.0,-106.0,-167.0,-271.0,942.0,-265.0,1
53.0,-95.0,-175.0,-196.0,953.0,-291.0,1
48.0,-94.0,-191.0,-175.0,968.0,-310.0,1
39.0,-102.0,-191.0,-216.0,992.0,-311.0,1
39.0,-112.0,-184.0,-245.0,1017.0,-321.0,1
45.0,-118.0,-186.0,-228.0,1039.0,-349.0,1
45.0,-128.0,-186.0,-210.0,1052.0,-378.0,1
39.0,-135.0,-191.0,-234.0,1076.0,-405.0,1
38.0,-146.0,-199.0,-261.0,1123.0,-420.0,1
32.0,-137.0,-202.0,-283.0,1201.0,-449.0,1
48.0,-130.0,-211.0,-284.0,1274.0,-448.0,1
51.0,-122.0,-222.0,-283.0,1335.0,-447.0,1
64.0,-124.0,-232.0,-294.0,1404.0,-469.0,1
75.0,-121.0,-233.0,-315.0,1480.0,-509.0,1
79.0,-128.0,-227.0,-337.0,1556.0,-541.0,1
75.0,-153.0,-210.0,-357.0,1612.0,-588.0,1
65.0,-144.0,-204.0,-373.0,1646.0,-640.0,1
50.0,-160.0,-195.0,-366.0,1663.0,-665.0,1
46.0,-167.0,-195.0,-336.0,1681.0,-704.0,1
47.0,-184.0,-192.0,-295.0,1704.0,-765.0,1
69.0,-176.0,-195.0,-259.0,1740.0,-850.0,1
102.0,-179.0,-205.0,-223.0,1778.0,-923.0,1
132.0,-172.0,-214.0,-219.0,1831.0,-1014.0,1
166.0,-171.0,-221.0,-233.0,1910.0,-1084.0,1
180.0,-175.0,-222.0,-263.0,2001.0,-1137.0,1
196.0,-157.0,-211.0,-281.0,2115.0,-1167.0,1
214.0,-146.0,-209.0,-265.0,2238.0,-1173.0,1
213.0,-137.0,-211.0,-264.0,2353.0,-1134.0,1
199.0,-116.0,-207.0,-307.0,2444.0,-1084.0,1
197.0,-115.0,-211.0,-342.0,2518.0,-992.0,1
194.0,-138.0,-207.0,-367.0,2578.0,-872.0,1
182.0,-140.0,-198.0,-391.0,2617.0,-763.0,1
186.0,-159.0,-218.0,-374.0,2647.0,-646.0,1
190.0,-197.0,-234.0,-354.0,2671.0,-577.0,1
201.0,-204.0,-240.0,-350.0,2714.0,-533.0,1
234.0,-247.0,-234.0,-319.0,2818.0,-464.0,1
248.0,-324.0,-229.0,-283.0,2959.0,-408.0,1
288.0,-365.0,-200.0,-310.0,3112.0,-361.0,1
322.0,-401.0,-188.0,-293.0,3252.0,-303.0,1
372.0,-405.0,-190.0,-214.0,3343.0,-232.0,1
400.0,-405.0,-198.0,-41.0,3370.0,-179.0,1
434.0,-350.0,-208.0,222.0,3326.0,-274.0,1
464.0,-324.0,-217.0,468.0,3245.0,-400.0,1
508.0,-295.0,-234.0,563.0,3148.0,-480.0,1
550.0,-305.0,-237.0,442.0,3123.0,-527.0,1
625.0,-366.0,-258.0,251.0,3232.0,-544.0,1
727.0,-470.0,-256.0,177.0,3442.0,-623.0,1
828.0,-573.0,-273.0,312.0,3675.0,-874.0,1
1014.0,-680.0,-299.0,621.0,3900.0,-1109.0,1
1127.0,-679.0,-287.0,952.0,4092.0,-1450.0,1
1118.0,-634.0,-258.0,1327.0,4136.0,-1886.0,1
1001.0,-527.0,-184.0,1743.0,4034.0,-2258.0,1
727.0,-454.0,-112.0,2274.0,3868.0,-2490.0,1
612.0,-391.0,-58.0,2777.0,3609.0,-2581.0,1
373.0,-300.0,-30.0,3241.0,3329.0,-2687.0,1
292.0,-238.0,12.0,3519.0,3016.0,-2681.0,1
115.0,-173.0,19.0,3604.0,2720.0,-2721.0,1
126.0,-137.0,51.0,3427.0,2402.0,-2667.0,1
82.0,-97.0,72.0,3060.0,2168.0,-2684.0,1
52.0,-74.0,55.0,2662.0,1989.0,-2671.0,1
112.0,-91.0,43.0,2311.0,1859.0,-2639.0,1
162.0,-120.0,22.0,2141.0,1883.0,-2675.0,1
205.0,-139.0,-17.0,2142.0,1991.0,-2736.0,1
217.0,-150.0,-39.0,2177.0,2087.0,-2751.0,1
229.0,-155.0,-38.0,2170.0,2165.0,-2693.0,1
202.0,-166.0,-29.0,2173.0,2238.0,-2592.0,1
196.0,-190.0,12.0,2150.0,2217.0,-2418.0,1
113.0,-205.0,37.0,2177.0,2145.0,-2253.0,1
83.0,-211.0,47.0,2306.0,2044.0,-2042.0,1
7.0,-165.0,49.0,2463.0,1937.0,-1873.0,1
-57.0,-88.0,65.0,2469.0,1746.0,-1718.0,1
-65.0,-25.0,91.0,2219.0,1483.0,-1582.0,1
-30.0,23.0,111.0,1831.0,1235.0,-1516.0,1
16.0,72.0,116.0,1474.0,1090.0,-1508.0,1
81.0,104.0,121.0,1260.0,1036.0,-1520.0,1
119.0,126.0,121.0,1210.0,1038.0,-1522.0,1
168.0,135.0,129.0,1264.0,1014.0,-1547.0,1
195.0,136.0,142.0,1322.0,991.0,-1559.0,1
228.0,127.0,147.0,1321.0,920.0,-1552.0,1
269.0,90.0,148.0,1255.0,829.0,-1556.0,1
289.0,67.0,138.0,1159.0,764.0,-1563.0,1
274.0,37.0,139.0,1047.0,783.0,-1530.0,1
240.0,-5.0,135.0,918.0,896.0,-1427.0,1
217.0,-29.0,123.0,799.0,1057.0,-1296.0,1
218.0,-45.0,111.0,702.0,1222.0,-1221.0,1
176.0,-45.0,112.0,655.0,1416.0,-1170.0,1
127.0,-39.0,127.0,644.0,1536.0,-1148.0,1
125.0,-28.0,145.0,682.0,1582.0,-1102.0,1
127.0,1.0,173.0,774.0,1571.0,-1113.0,1
111.0,41.0,181.0,925.0,1520.0,-1157.0,1
176.0,60.0,197.0,1028.0,1410.0,-1149.0,1
226.0,90.0,218.0,1061.0,1337.0,-1193.0,1
235.0,94.0,235.0,1068.0,1322.0,-1251.0,1
285.0,93.0,248.0,1028.0,1257.0,-1215.0,1
311.0,84.0,228.0,955.0,1162.0,-1187.0,1
311.0,54.0,178.0,906.0,1066.0,-1159.0,1
281.0,42.0,128.0,879.0,939.0,-1097.0,1
290.0,50.0,111.0,797.0,782.0,-1003.0,1
278.0,67.0,120.0,733.0,662.0,-945.0,1
241.0,64.0,126.0,769.0,608.0,-859.0,1
233.0,76.0,125.0,854.0,519.0,-700.0,1
247.0,127.0,137.0,885.0,361.0,-499.0,1
281.0,148.0,161.0,854.0,227.0,-376.0,1
246.0,136.0,195.0,838.0,109.0,-283.0,1
255.0,140.0,198.0,827.0,-94.0,-95.0,1
286.0,151.0,185.0,767.0,-329.0,66.0,1
281.0,167.0,163.0,635.0,-603.0,152.0,1
273.0,140.0,166.0,522.0,-799.0,251.0,1
266.0,108.0,156.0,456.0,-947.0,375.0,1
263.0,87.0,146.0,428.0,-1053.0,475.0,1
249.0,53.0,119.0,407.0,-1109.0,510.0,1
245.0,25.0,105.0,315.0,-1097.0,492.0,1
242.0,10.0,91.0,194.0,-1016.0,460.0,1
222.0,-5.0,83.0,64.0,-889.0,442.0,1
199.0,-11.0,86.0,-38.0,-766.0,419.0,1
194.0,-18.0,77.0,-119.0,-643.0,406.0,1
204.0,-17.0,70.0,-184.0,-485.0,371.0,1
159.0,-9.0,71.0,-239.0,-321.0,308.0,1
161.0,4.0,67.0,-269.0,-160.0,244.0,1
158.0,10.0,63.0,-291.0,-13.0,168.0,1
158.0,23.0,55.0,-293.0,90.0,99.0,1
167.0,24.0,51.0,-288.0,154.0,45.0,1
165.0,26.0,32.0,-286.0,208.0,0.0,1
158.0,28.0,31.0,-293.0,272.0,-32.0,1
163.0,28.0,24.0,-318.0,338.0,-37.0,1
168.0,30.0,28.0,-375.0,414.0,-50.0,1
159.0,29.0,36.0,-447.0,497.0,-53.0,1
144.0,36.0,54.0,-524.0,544.0,-45.0,1
172.0,49.0,67.0,-598.0,568.0,-42.0,1
200.0,49.0,91.0,-620.0,598.0,-75.0,1
212.0,29.0,112.0,-606.0,626.0,-71.0,1
235.0,24.0,127.0,-578.0,644.0,-75.0,1
266.0,14.0,138.0,-560.0,643.0,-76.0,1
217.0,17.0,130.0,-555.0,618.0,-53.0,1
229.0,36.0,131.0,-612.0,554.0,0.0,1
245.0,44.0,134.0,-680.0,501.0,-24.0,1
258.0,47.0,136.0,-719.0,458.0,-56.0,1
269.0,45.0,133.0,-715.0,411.0,-82.0,1
251.0,42.0,130.0,-696.0,342.0,-83.0,1
292.0,37.0,129.0,-676.0,269.0,-90.0,1
266.0,32.0,118.0,-629.0,207.0,-110.0,1
262.0,31.0,102.0,-592.0,127.0,-73.0,1
260.0,27.0,97.0,-571.0,42.0,-69.0,1
260.0,21.0,90.0,-525.0,-33.0,-70.0,1
280.0,9.0,89.0,-477.0,-101.0,-38.0,1
250.0,9.0,83.0,-408.0,-155.0,-27.0,1
253.0,11.0,84.0,-334.0,-222.0,-42.0,1
251.0,9.0,77.0,-238.0,-280.0,-51.0,1
259.0,8.0,82.0,-127.0,-325.0,-66.0,1
260.0,11.0,78.0,-17.0,-359.0,-83.0,1
249.0,5.0,86.0,83.0,-395.0,-87.0,1
254.0,10.0,81.0,176.0,-428.0,-90.0,1
246.0,7.0,90.0,257.0,-462.0,-82.0,1
243.0,4.0,93.0,325.0,-493.0,-84.0,1
241.0,9.0,99.0,382.0,-502.0,-96.0,1
245.0,-2.0,105.0,425.0,-511.0,-80.0,1
240.0,-1.0,104.0,455.0,-526.0,-64.0,1
231.0,3.0,100.0,463.0,-538.0,-73.0,1
243.0,3.0,100.0,472.0,-553.0,-80.0,1
242.0,4.0,95.0,478.0,-564.0,-87.0,1
242.0,6.0,97.0,484.0,-568.0,-95.0,1
249.0,4.0,92.0,485.0,-565.0,-104.0,1
231.0,12.0,89.0,479.0,-563.0,-114.0,1
227.0,13.0,96.0,458.0,-582.0,-120.0,1
240.0,15.0,100.0,428.0,-603.0,-138.0,1
233.0,18.0,91.0,400.0,-618.0,-151.0,1
223.0,17.0,90.0,358.0,-644.0,-157.0,1
221.0,13.0,84.0,313.0,-668.0,-160.0,1
250.0,6.0,86.0,286.0,-674.0,-171.0,1
187.0,-1.0,75.0,286.0,-658.0,-161.0,1
201.0,12.0,68.0,243.0,-694.0,-132.0,1
210.0,10.0,68.0,215.0,-707.0,-132.0,1
223.0,10.0,64.0,202.0,-712.0,-128.0,1
219.0,11.0,62.0,202.0,-703.0,-127.0,1
225.0,11.0,66.0,208.0,-685.0,-123.0,1
225.0,0.0,64.0,223.0,-657.0,-122.0,1
205.0,9.0,57.0,228.0,-656.0,-86.0,1
210.0,13.0,52.0,218.0,-681.0,-85.0,1
224.0,7.0,46.0,233.0,-677.0,-78.0,1
222.0,4.0,47.0,261.0,-670.0,-69.0,1
220.0,6.0,45.0,298.0,-655.0,-57.0,1
227.0,3.0,41.0,327.0,-649.0,-38.0,1
229.0,3.0,38.0,356.0,-645.0,-24.0,1
227.0,4.0,42.0,372.0,-645.0,-1.0,1
228.0,7.0,40.0,380.0,-660.0,25.0,1
235.0,8.0,43.0,387.0,-667.0,50.0,1
276.0,7.0,42.0,399.0,-663.0,70.0,1
219.0,10.0,40.0,428.0,-626.0,88.0,1
240.0,24.0,32.0,411.0,-659.0,128.0,1
247.0,24.0,35.0,396.0,-669.0,125.0,1
262.0,17.0,39.0,390.0,-670.0,125.0,1
257.0,16.0,40.0,391.0,-666.0,124.0,1
270.0,18.0,37.0,382.0,-671.0,130.0,1
298.0,17.0,43.0,366.0,-680.0,122.0,1
266.0,25.0,33.0,349.0,-670.0,101.0,1
275.0,36.0,20.0,309.0,-698.0,119.0,1
274.0,39.0,26.0,253.0,-734.0,120.0,1
286.0,28.0,20.0,213.0,-739.0,116.0,1
279.0,25.0,22.0,189.0,-733.0,115.0,1
269.0,27.0,23.0,177.0,-729.0,128.0,1
271.0,30.0,21.0,173.0,-746.0,133.0,1
303.0,26.0,23.0,181.0,-767.0,120.0,1
332.0,17.0,28.0,205.0,-746.0,91.0,1
232.0,36.0,10.0,245.0,-715.0,98.0,1
264.0,37.0,13.0,195.0,-785.0,123.0,1
281.0,31.0,11.0,131.0,-804.0,97.0,1
277.0,22.0,18.0,73.0,-806.0,87.0,1
275.0,10.0,29.0,44.0,-801.0,92.0,1
270.0,10.0,23.0,42.0,-784.0,73.0,1
281.0,11.0,24.0,35.0,-758.0,30.0,1
273.0,10.0,22.0,2.0,-731.0,-10.0,1
359.0,-1.0,40.0,-61.0,-711.0,-62.0,1
231.0,-4.0,19.0,-40.0,-622.0,-120.0,1
240.0,-8.0,26.0,-54.0,-641.0,-104.0,1
338.0,-30.0,17.0,-52.0,-616.0,-157.0,1
226.0,-15.0,-4.0,108.0,-495.0,-246.0,1
249.0,-12.0,1.0,247.0,-452.0,-237.0,1
303.0,-3.0,30.0,398.0,-393.0,-273.0,1
241.0,8.0,12.0,582.0,-381.0,-252.0,1
269.0,19.0,15.0,643.0,-491.0,-197.0,1
260.0,39.0,29.0,690.0,-572.0,-215.0,1
269.0,40.0,9.0,764.0,-665.0,-182.0,1
288.0,48.0,5.0,788.0,-761.0,-153.0,1
267.0,64.0,9.0,817.0,-783.0,-172.0,1
283.0,60.0,-18.0,825.0,-805.0,-131.0,1
295.0,61.0,-19.0,766.0,-826.0,-101.0,1
322.0,51.0,-14.0,695.0,-816.0,-86.0,1
293.0,47.0,-25.0,638.0,-787.0,-86.0,1
289.0,37.0,-28.0,571.0,-780.0,-63.0,1
289.0,27.0,-30.0,503.0,-773.0,-53.0,1
292.0,19.0,-33.0,445.0,-757.0,-51.0,1
274.0,8.0,-35.0,408.0,-743.0,-58.0,1
262.0,4.0,-38.0,369.0,-734.0,-47.0,1
257.0,-10.0,-46.0,329.0,-724.0,-39.0,1
249.0,-18.0,-47.0,305.0,-705.0,-39.0,1
242.0,-28.0,-43.0,309.0,-676.0,-40.0,1
238.0,-31.0,-43.0,333.0,-647.0,-48.0,1
226.0,-32.0,-39.0,369.0,-619.0,-58.0,1
221.0,-33.0,-36.0,401.0,-599.0,-64.0,1
220.0,-22.0,-28.0,436.0,-581.0,-69.0,1
220.0,-8.0,-29.0,472.0,-564.0,-79.0,1
220.0,8.0,-28.0,487.0,-545.0,-80.0,1
229.0,18.0,-26.0,476.0,-530.0,-74.0,1
236.0,32.0,-24.0,444.0,-513.0,-74.0,1
243.0,38.0,-26.0,392.0,-495.0,-71.0,1
249.0,43.0,-23.0,322.0,-483.0,-70.0,1
248.0,39.0,-19.0,239.0,-482.0,-65.0,1
244.0,33.0,-19.0,144.0,-490.0,-55.0,1
241.0,27.0,-24.0,46.0,-512.0,-45.0,1
248.0,24.0,-32.0,-36.0,-538.0,-27.0,1
250.0,18.0,-43.0,-106.0,-554.0,-9.0,1
248.0,12.0,-63.0,-180.0,-569.0,6.0,1
252.0,12.0,-70.0,-241.0,-569.0,28.0,1
271.0,8.0,-76.0,-255.0,-537.0,33.0,1
282.0,8.0,-76.0,-247.0,-474.0,28.0,1
293.0,9.0,-82.0,-252.0,-401.0,20.0,1
301.0,10.0,-89.0,-287.0,-331.0,10.0,1
307.0,9.0,-81.0,-326.0,-265.0,-8.0,1
312.0,8.0,-81.0,-350.0,-209.0,-29.0,1
317.0,-2.0,-84.0,-364.0,-157.0,-38.0,1
319.0,2.0,-81.0,-372.0,-111.0,-60.0,1
315.0,-2.0,-74.0,-365.0,-56.0,-83.0,1
316.0,-6.0,-70.0,-338.0,-6.0,-96.0,1
316.0,-3.0,-66.0,-311.0,57.0,-102.0,1
313.0,1.0,-64.0,-281.0,127.0,-94.0,1
307.0,0.0,-52.0,-275.0,198.0,-77.0,1
301.0,10.0,-50.0,-271.0,245.0,-82.0,1
299.0,12.0,-42.0,-271.0,280.0,-79.0,1
294.0,18.0,-33.0,-277.0,295.0,-65.0,1
283.0,26.0,-28.0,-289.0,285.0,-57.0,1
280.0,28.0,-18.0,-287.0,273.0,-53.0,1
280.0,33.0,-18.0,-286.0,258.0,-46.0,1
279.0,33.0,-11.0,-295.0,246.0,-32.0,1
276.0,30.0,-11.0,-305.0,225.0,-22.0,1
274.0,29.0,-13.0,-314.0,199.0,-20.0,1
271.0,22.0,-16.0,-323.0,176.0,-14.0,1
269.0,19.0,-18.0,-324.0,155.0,-13.0,1
266.0,17.0,-20.0,-325.0,134.0,-10.0,1
266.0,15.0,-19.0,-324.0,125.0,-6.0,1
263.0,9.0,-20.0,-320.0,115.0,1.0,1
256.0,10.0,-25.0,-307.0,103.0,6.0,1
257.0,9.0,-21.0,-287.0,97.0,9.0,1
254.0,9.0,-20.0,-261.0,90.0,9.0,1
258.0,9.0,-19.0,-232.0,90.0,5.0,1
253.0,14.0,-16.0,-208.0,92.0,4.0,1
257.0,15.0,-26.0,-191.0,96.0,3.0,1
260.0,16.0,-21.0,-180.0,101.0,0.0,1
257.0,18.0,-22.0,-170.0,107.0,-3.0,1
256.0,22.0,-22.0,-164.0,113.0,-3.0,1
256.0,21.0,-25.0,-158.0,117.0,-3.0,1
258.0,19.0,-25.0,-151.0,123.0,2.0,1
254.0,20.0,-26.0,-142.0,128.0,5.0,1
254.0,20.0,-24.0,-129.0,134.0,7.0,1
255.0,16.0,-25.0,-118.0,140.0,7.0,1
256.0,14.0,-31.0,-102.0,147.0,4.0,1
253.0,16.0,-25.0,-84.0,152.0,0.0,1
258.0,18.0,-24.0,-64.0,157.0,-4.0,1
260.0,15.0,-24.0,-48.0,166.0,-8.0,1
258.0,18.0,-27.0,-36.0,176.0,-13.0,1
261.0,20.0,-22.0,-26.0,184.0,-16.0,1
266.0,17.0,-23.0,-21.0,192.0,-21.0,1
268.0,21.0,-21.0,-23.0,202.0,-25.0,1
273.0,21.0,-20.0,-30.0,209.0,-29.0,1
271.0,17.0,-20.0,-38.0,217.0,-29.0,1
274.0,20.0,-20.0,-53.0,222.0,-32.0,1
277.0,18.0,-21.0,-68.0,225.0,-38.0,1
278.0,21.0,-15.0,-76.0,222.0,-41.0,1
278.0,23.0,-16.0,-82.0,212.0,-40.0,1
277.0,23.0,-18.0,-83.0,198.0,-36.0,1
277.0,25.0,-17.0,-86.0,184.0,-29.0,1
275.0,27.0,-19.0,-84.0,173.0,-23.0,1
273.0,25.0,-18.0,-79.0,169.0,-21.0,1
274.0,22.0,-20.0,-69.0,163.0,-13.0,1
271.0,19.0,-13.0,-54.0,159.0,-4.0,1
271.0,18.0,-16.0,-36.0,152.0,1.0,1
268.0,18.0,-16.0,-11.0,144.0,6.0,1
265.0,20.0,-12.0,15.0,138.0,14.0,1
265.0,15.0,-10.0,42.0,135.0,23.0,1
261.0,19.0,-11.0,65.0,132.0,33.0,1
261.0,18.0,-12.0,86.0,132.0,40.0,1
261.0,19.0,-10.0,102.0,130.0,46.0,1
259.0,24.0,-6.0,117.0,130.0,53.0,1
261.0,25.0,-7.0,130.0,126.0,59.0,1
261.0,29.0,0.0,147.0,120.0,65.0,1
260.0,27.0,-3.0,163.0,113.0,71.0,1
261.0,27.0,-5.0,177.0,102.0,74.0,1
263.0,26.0,-3.0,183.0,90.0,78.0,1
265.0,29.0,0.0,186.0,73.0,83.0,1
268.0,23.0,-6.0,185.0,54.0,90.0,1
268.0,19.0,-5.0,182.0,35.0,95.0,1
268.0,20.0,-9.0,178.0,19.0,98.0,1
266.0,21.0,-15.0,170.0,7.0,99.0,1
267.0,20.0,-12.0,165.0,-2.0,101.0,1
267.0,16.0,-11.0,159.0,-9.0,98.0,1
268.0,20.0,-13.0,159.0,-13.0,95.0,1
266.0,22.0,-13.0,159.0,-15.0,92.0,1
267.0,18.0,-15.0,156.0,-13.0,88.0,1
267.0,20.0,-18.0,150.0,-9.0,86.0,1
267.0,16.0,-15.0,145.0,-6.0,85.0,1
267.0,17.0,-14.0,144.0,-1.0,85.0,1
266.0,15.0,-16.0,145.0,4.0,86.0,1
270.0,18.0,-17.0,146.0,7.0,87.0,1
266.0,16.0,-12.0,154.0,16.0,91.0,1
260.0,17.0,-15.0,160.0,17.0,86.0,1
263.0,18.0,-15.0,158.0,18.0,77.0,1
264.0,15.0,-15.0,158.0,23.0,72.0,1
265.0,15.0,-9.0,160.0,25.0,67.0,1
266.0,12.0,-15.0,161.0,26.0,61.0,1
263.0,16.0,-15.0,161.0,25.0,51.0,1
263.0,15.0,-14.0,162.0,20.0,47.0,1
266.0,16.0,-18.0,163.0,21.0,44.0,1
268.0,14.0,-17.0,159.0,21.0,40.0,1
265.0,14.0,-15.0,149.0,24.0,34.0,1
263.0,14.0,-18.0,141.0,29.0,26.0,1
265.0,17.0,-17.0,136.0,35.0,21.0,1
261.0,16.0,-23.0,133.0,39.0,16.0,1
261.0,15.0,-19.0,127.0,44.0,12.0,1
266.0,16.0,-19.0,118.0,49.0,5.0,1
266.0,16.0,-24.0,112.0,55.0,3.0,1
266.0,14.0,-17.0,110.0,63.0,3.0,1
266.0,16.0,-19.0,108.0,70.0,2.0,1
268.0,16.0,-20.0,104.0,79.0,2.0,1
273.0,16.0,-22.0,102.0,86.0,3.0,1
271.0,19.0,-19.0,97.0,93.0,7.0,1
270.0,18.0,-20.0,92.0,101.0,12.0,1
269.0,19.0,-22.0,91.0,105.0,14.0,1
269.0,21.0,-20.0,85.0,110.0,15.0,1
269.0,20.0,-19.0,80.0,116.0,17.0,1
266.0,23.0,-17.0,72.0,120.0,15.0,1
273.0,21.0,-21.0,59.0,124.0,12.0,1
273.0,24.0,-20.0,42.0,129.0,14.0,1
274.0,21.0,-15.0,27.0,131.0,17.0,1
271.0,18.0,-18.0,14.0,131.0,17.0,1
272.0,18.0,-13.0,3.0,130.0,15.0,1
268.0,17.0,-16.0,-7.0,128.0,14.0,1
271.0,16.0,-14.0,-19.0,123.0,14.0,1
269.0,16.0,-14.0,-31.0,120.0,15.0,1
269.0,16.0,-14.0,-42.0,114.0,14.0,1
268.0,16.0,-11.0,-51.0,111.0,14.0,1
268.0,14.0,-9.0,-59.0,106.0,15.0,1
266.0,17.0,-11.0,-65.0,102.0,16.0,1
266.0,14.0,-9.0,-71.0,98.0,14.0,1
263.0,14.0,-9.0,-70.0,94.0,15.0,1
264.0,16.0,-11.0,-70.0,91.0,17.0,1
266.0,13.0,-9.0,-66.0,87.0,17.0,1
263.0,10.0,-11.0,-62.0,85.0,17.0,1
265.0,11.0,-12.0,-51.0,82.0,13.0,1
260.0,15.0,-9.0,-41.0,80.0,11.0,1
263.0,12.0,-10.0,-30.0,78.0,7.0,1
258.0,13.0,-8.0,-18.0,75.0,2.0,1
263.0,13.0,-8.0,-5.0,73.0,0.0,1
259.0,16.0,-7.0,8.0,73.0,-6.0,1
262.0,13.0,-7.0,19.0,69.0,-7.0,1
261.0,14.0,-9.0,30.0,67.0,-10.0,1
261.0,16.0,-8.0,34.0,68.0,-12.0,1
258.0,17.0,-3.0,36.0,66.0,-10.0,1
258.0,17.0,-3.0,38.0,64.0,-11.0,1
263.0,16.0,-2.0,35.0,60.0,-14.0,1
262.0,17.0,-4.0,27.0,57.0,-17.0,1
262.0,16.0,-5.0,18.0,52.0,-16.0,1
260.0,19.0,-2.0,13.0,50.0,-17.0,1
262.0,18.0,-2.0,4.0,45.0,-18.0,1
262.0,18.0,2.0,-6.0,39.0,-20.0,1
262.0,14.0,-1.0,-16.0,30.0,-18.0,1
264.0,15.0,-6.0,-25.0,23.0,-18.0,1
261.0,15.0,-3.0,-27.0,16.0,-20.0,1
264.0,14.0,-3.0,-28.0,8.0,-22.0,1
261.0,17.0,-5.0,-28.0,1.0,-23.0,1
263.0,15.0,-3.0,-27.0,-7.0,-23.0,1
263.0,17.0,-6.0,-27.0,-14.0,-27.0,1
266.0,17.0,-7.0,-31.0,-18.0,-32.0,1
266.0,14.0,-5.0,-35.0,-24.0,-33.0,1
263.0,17.0,-6.0,-40.0,-27.0,-34.0,1
266.0,17.0,-6.0,-43.0,-28.0,-34.0,1
269.0,17.0,-8.0,-44.0,-28.0,-33.0,1
266.0,17.0,-3.0,-39.0,-30.0,-33.0,1
265.0,15.0,-10.0,-33.0,-29.0,-33.0,1
266.0,16.0,-10.0,-20.0,-31.0,-36.0,1
267.0,16.0,-12.0,-5.0,-30.0,-37.0,1
268.0,16.0,-13.0,10.0,-30.0,-41.0,1
265.0,15.0,-13.0,20.0,-28.0,-41.0,1
267.0,14.0,-11.0,28.0,-25.0,-42.0,1
265.0,18.0,-8.0,36.0,-23.0,-42.0,1
266.0,17.0,-15.0,41.0,-22.0,-42.0,1
267.0,17.0,-9.0,41.0,-21.0,-41.0,1
268.0,19.0,-10.0,32.0,-21.0,-39.0,1
269.0,16.0,-12.0,24.0,-20.0,-38.0,1
268.0,17.0,-12.0,13.0,-16.0,-35.0,1
268.0,16.0,-9.0,4.0,-14.0,-31.0,1
266.0,18.0,-9.0,-3.0,-13.0,-25.0,1
268.0,18.0,-12.0,-6.0,-14.0,-24.0,1
268.0,18.0,-13.0,-5.0,-19.0,-25.0,1
267.0,19.0,-15.0,-1.0,-21.0,-26.0,1
266.0,21.0,-12.0,4.0,-23.0,-26.0,1
267.0,21.0,-13.0,12.0,-24.0,-27.0,1
265.0,19.0,-17.0,14.0,-22.0,-28.0,1
265.0,22.0,-18.0,18.0,-14.0,-31.0,1
262.0,18.0,-18.0,29.0,-10.0,-33.0,1
265.0,21.0,-18.0,30.0,-7.0,-34.0,1
269.0,18.0,-14.0,25.0,-4.0,-33.0,1
266.0,16.0,-11.0,10.0,0.0,-34.0,1
267.0,20.0,-15.0,-8.0,8.0,-28.0,1
267.0,16.0,-14.0,-7.0,20.0,-24.0,1
264.0,20.0,-14.0,1.0,26.0,-24.0,1
264.0,21.0,-19.0,4.0,29.0,-23.0,1
265.0,21.0,-11.0,-3.0,27.0,-23.0,1
264.0,20.0,-12.0,-13.0,25.0,-26.0,1
269.0,20.0,-11.0,-20.0,26.0,-26.0,1
267.0,20.0,-14.0,-24.0,29.0,-22.0,1
265.0,23.0,-16.0,-26.0,32.0,-16.0,1
269.0,19.0,-15.0,-31.0,31.0,-15.0,1
266.0,18.0,-14.0,-31.0,34.0,-15.0,1
266.0,21.0,-13.0,-21.0,42.0,-14.0,1
267.0,18.0,-16.0,-10.0,47.0,-12.0,1
264.0,19.0,-5.0,-8.0,44.0,-12.0,1
267.0,17.0,-14.0,-15.0,37.0,-13.0,1
270.0,21.0,-13.0,-23.0,34.0,-11.0,1
266.0,20.0,-15.0,-29.0,37.0,-7.0,1
265.0,19.0,-11.0,-32.0,41.0,-3.0,1
269.0,23.0,-14.0,-35.0,41.0,-3.0,1
270.0,21.0,-11.0,-37.0,41.0,-1.0,1
265.0,21.0,-14.0,-33.0,45.0,1.0,1
267.0,18.0,-11.0,-24.0,45.0,5.0,1
268.0,21.0,-9.0,-22.0,45.0,5.0,1
266.0,20.0,-15.0,-21.0,44.0,6.0,1
264.0,16.0,2.0,-17.0,42.0,8.0,1
266.0,19.0,-10.0,-11.0,47.0,12.0,1
263.0,19.0,-11.0,-3.0,47.0,12.0,1
261.0,18.0,-8.0,2.0,49.0,9.0,1
265.0,17.0,-13.0,-1.0,48.0,5.0,1
265.0,19.0,-9.0,-8.0,44.0,4.0,1
266.0,18.0,-8.0,-15.0,43.0,7.0,1
269.0,19.0,-12.0,-22.0,43.0,10.0,1
262.0,20.0,-8.0,-24.0,42.0,11.0,1
266.0,17.0,-10.0,-25.0,38.0,9.0,1
263.0,21.0,-10.0,-24.0,37.0,9.0,1
277.0,17.0,-10.0,-23.0,36.0,9.0,1
263.0,19.0,-6.0,-25.0,37.0,11.0,1
262.0,15.0,-11.0,-27.0,37.0,13.0,1
262.0,19.0,-11.0,-31.0,37.0,10.0,1
265.0,15.0,-6.0,-33.0,35.0,9.0,1
265.0,18.0,-7.0,-34.0,34.0,8.0,1
263.0,20.0,-9.0,-32.0,34.0,10.0,1
262.0,16.0,-5.0,-31.0,33.0,6.0,1
265.0,19.0,-9.0,-30.0,33.0,4.0,1
263.0,18.0,-10.0,-28.0,31.0,3.0,1
266.0,17.0,-8.0,-28.0,25.0,1.0,1
269.0,27.0,-20.0,-26.0,23.0,1.0,1
265.0,18.0,-7.0,-27.0,22.0,0.0,1
264.0,17.0,-3.0,-27.0,20.0,-2.0,1
265.0,15.0,-2.0,-28.0,17.0,-5.0,1
266.0,17.0,-6.0,-28.0,16.0,-5.0,1
267.0,15.0,-11.0,-28.0,16.0,-8.0,1
264.0,20.0,-14.0,-28.0,17.0,-6.0,1
264.0,20.0,-11.0,-25.0,19.0,-7.0,1
265.0,17.0,-8.0,-25.0,19.0,-5.0,1
267.0,16.0,-9.0,-21.0,20.0,-5.0,1
266.0,18.0,-10.0,-21.0,21.0,-7.0,1
255.0,23.0,-11.0,-20.0,21.0,-8.0,1
269.0,17.0,-13.0,-17.0,23.0,-7.0,1
269.0,16.0,-7.0,-9.0,28.0,-5.0,1
263.0,22.0,-12.0,7.0,33.0,1.0,1
266.0,21.0,-6.0,25.0,38.0,4.0,1
284.0,23.0,-4.0,35.0,44.0,5.0,1
263.0,17.0,-16.0,55.0,37.0,35.0,1
256.0,14.0,-10.0,82.0,38.0,32.0,1
263.0,20.0,-10.0,73.0,38.0,4.0,1
268.0,18.0,-10.0,40.0,40.0,-7.0,1
269.0,16.0,-10.0,10.0,37.0,-8.0,1
269.0,6.0,-5.0,-9.0,38.0,-4.0,1
265.0,18.0,-9.0,-18.0,37.0,-1.0,1
265.0,21.0,-8.0,-23.0,30.0,-4.0,1
265.0,19.0,-9.0,-17.0,25.0,-8.0,1
267.0,15.0,-11.0,-9.0,20.0,-9.0,1
263.0,20.0,-14.0,-5.0,16.0,-12.0,1
263.0,19.0,-8.0,-5.0,14.0,-10.0,1
262.0,15.0,-12.0,-4.0,13.0,-12.0,1
264.0,16.0,-11.0,0.0,11.0,-9.0,1
265.0,21.0,-14.0,9.0,11.0,-10.0,1
264.0,16.0,-13.0,17.0,10.0,-13.0,1
265.0,20.0,-13.0,25.0,13.0,-14.0,1
265.0,18.0,-11.0,33.0,16.0,-20.0,1
266.0,20.0,-7.0,38.0,18.0,-19.0,1
266.0,19.0,-8.0,36.0,19.0,-15.0,1
266.0,17.0,-9.0,26.0,15.0,-12.0,1
263.0,20.0,-14.0,14.0,16.0,-14.0,1
268.0,17.0,-9.0,7.0,18.0,-12.0,1
262.0,20.0,-4.0,6.0,18.0,-11.0,1
266.0,18.0,-10.0,0.0,18.0,-14.0,1
264.0,20.0,-9.0,-3.0,21.0,-19.0,1
266.0,18.0,-9.0,-10.0,26.0,-19.0,1
268.0,21.0,-7.0,-12.0,27.0,-18.0,1
266.0,20.0,-10.0,-16.0,25.0,-19.0,1
266.0,19.0,-8.0,-20.0,20.0,-15.0,1
266.0,17.0,-9.0,-24.0,13.0,-15.0,1
262.0,19.0,-10.0,-23.0,12.0,-18.0,1
264.0,16.0,-12.0,-18.0,8.0,-20.0,1
264.0,22.0,-9.0,-17.0,6.0,-22.0,1
265.0,20.0,-6.0,-16.0,6.0,-23.0,1
266.0,19.0,-5.0,-16.0,5.0,-24.0,1
266.0,22.0,-11.0,-16.0,6.0,-23.0,1
265.0,20.0,-9.0,-17.0,4.0,-24.0,1
266.0,20.0,-12.0,-18.0,4.0,-23.0,1
267.0,21.0,-12.0,-19.0,6.0,-22.0,1
266.0,21.0,-13.0,-17.0,8.0,-20.0,1
268.0,23.0,-14.0,-15.0,9.0,-20.0,1
264.0,19.0,-14.0,-10.0,12.0,-19.0,1
266.0,18.0,-14.0,-3.0,13.0,-22.0,1
266.0,19.0,-16.0,11.0,16.0,-23.0,1
267.0,22.0,-14.0,24.0,18.0,-24.0,1
266.0,23.0,-4.0,35.0,18.0,-25.0,1
269.0,22.0,-12.0,49.0,16.0,-29.0,1
267.0,18.0,-8.0,44.0,20.0,-21.0,1
265.0,23.0,-6.0,31.0,23.0,-19.0,1
265.0,22.0,-7.0,18.0,28.0,-16.0,1
265.0,21.0,-11.0,10.0,35.0,-14.0,1
268.0,20.0,-10.0,1.0,39.0,-12.0,1
268.0,19.0,-10.0,-3.0,41.0,-8.0,1
267.0,18.0,-6.0,3.0,45.0,-6.0,1
264.0,16.0,-11.0,11.0,46.0,-4.0,1
266.0,16.0,-12.0,14.0,42.0,-4.0,1
265.0,13.0,-14.0,14.0,37.0,-3.0,1
267.0,19.0,-14.0,23.0,35.0,-5.0,1
267.0,21.0,-10.0,35.0,35.0,-2.0,1
266.0,24.0,-11.0,46.0,36.0,-1.0,1
268.0,24.0,-10.0,49.0,37.0,-3.0,1
265.0,23.0,-13.0,46.0,35.0,-6.0,1
267.0,24.0,-8.0,42.0,35.0,-5.0,1
268.0,23.0,-9.0,32.0,30.0,-3.0,1
267.0,22.0,-12.0,29.0,31.0,-5.0,1
268.0,20.0,-10.0,26.0,33.0,-8.0,1
262.0,24.0,-10.0,16.0,33.0,-3.0,1
267.0,24.0,-9.0,7.0,34.0,-3.0,1
261.0,21.0,-10.0,8.0,38.0,-5.0,1
264.0,21.0,-5.0,5.0,37.0,-5.0,1
268.0,25.0,-8.0,-6.0,30.0,-3.0,1
260.0,19.0,-9.0,-19.0,28.0,0.0,1
261.0,20.0,-9.0,-24.0,26.0,-2.0,1
264.0,19.0,-9.0,-22.0,22.0,-4.0,1
262.0,21.0,-7.0,-25.0,20.0,-5.0,1
262.0,19.0,-5.0,-23.0,21.0,-5.0,1
262.0,17.0,-6.0,-23.0,19.0,-4.0,1
263.0,17.0,-6.0,-26.0,19.0,-6.0,1
264.0,17.0,-9.0,-25.0,22.0,-7.0,1
262.0,19.0,-9.0,-19.0,27.0,-6.0,1
265.0,17.0,-6.0,-13.0,30.0,-8.0,1
264.0,17.0,-8.0,-17.0,32.0,-8.0,1
266.0,18.0,-3.0,-22.0,31.0,-9.0,1
264.0,19.0,-8.0,-23.0,32.0,-7.0,1
262.0,17.0,-7.0,-22.0,32.0,-11.0,1
264.0,19.0,-3.0,-21.0,37.0,-13.0,1
265.0,17.0,-9.0,-20.0,38.0,-15.0,1
264.0,20.0,-8.0,-18.0,37.0,-15.0,1
264.0,18.0,-8.0,-17.0,36.0,-15.0,1
263.0,19.0,-7.0,-20.0,32.0,-17.0,1
266.0,18.0,-7.0,-20.0,31.0,-17.0,1
265.0,19.0,-7.0,-22.0,31.0,-17.0,1
267.0,17.0,-7.0,-20.0,29.0,-18.0,1
267.0,17.0,-10.0,-17.0,25.0,-19.0,1
267.0,19.0,-7.0,-10.0,24.0,-20.0,1
263.0,19.0,-13.0,-5.0,23.0,-20.0,1
266.0,16.0,-14.0,-6.0,20.0,-19.0,1
268.0,21.0,-10.0,-7.0,20.0,-20.0,1
263.0,23.0,-7.0,-2.0,20.0,-22.0,1
265.0,21.0,-12.0,3.0,22.0,-23.0,1
268.0,20.0,-8.0,5.0,23.0,-23.0,1
268.0,20.0,-12.0,5.0,16.0,-26.0,1
265.0,22.0,-10.0,3.0,14.0,-25.0,1
265.0,22.0,-12.0,1.0,13.0,-24.0,1
263.0,22.0,-9.0,6.0,14.0,-26.0,1
263.0,21.0,-10.0,8.0,18.0,-26.0,1
267.0,22.0,-10.0,5.0,19.0,-24.0,1
259.0,19.0,-8.0,-4.0,18.0,-23.0,1
263.0,26.0,-10.0,-12.0,18.0,-23.0,1
268.0,22.0,-7.0,-25.0,16.0,-17.0,1
262.0,19.0,-6.0,-34.0,18.0,-14.0,1
264.0,24.0,-7.0,-36.0,18.0,-14.0,1
263.0,22.0,-9.0,-35.0,20.0,-15.0,1
264.0,24.0,-11.0,-36.0,15.0,-14.0,1
264.0,22.0,-12.0,-41.0,14.0,-16.0,1
266.0,21.0,-11.0,-45.0,11.0,-18.0,1
264.0,23.0,-12.0,-49.0,9.0,-18.0,1
262.0,26.0,-7.0,-52.0,10.0,-17.0,1
265.0,31.0,-9.0,-51.0,10.0,-19.0,1
268.0,23.0,-7.0,-49.0,11.0,-19.0,1
266.0,21.0,-8.0,-45.0,11.0,-19.0,1
264.0,26.0,-9.0,-45.0,12.0,-18.0,1
263.0,24.0,-9.0,-47.0,13.0,-17.0,1
267.0,25.0,-11.0,-48.0,15.0,-17.0,1
264.0,23.0,-10.0,-46.0,17.0,-14.0,1
266.0,22.0,-9.0,-41.0,21.0,-14.0,1
264.0,22.0,-7.0,-35.0,23.0,-13.0,1
266.0,24.0,-9.0,-27.0,27.0,-12.0,1
263.0,23.0,-10.0,-22.0,28.0,-11.0,1
265.0,20.0,-9.0,-16.0,30.0,-11.0,1
262.0,23.0,-10.0,-8.0,30.0,-8.0,1
265.0,25.0,-8.0,-1.0,33.0,-9.0,1
266.0,24.0,-10.0,-4.0,32.0,-11.0,1
266.0,20.0,-6.0,-13.0,30.0,-11.0,1
267.0,22.0,-9.0,-24.0,27.0,-6.0,1
267.0,21.0,-9.0,-30.0,30.0,-7.0,1
266.0,18.0,-8.0,-28.0,36.0,-4.0,1
269.0,19.0,-5.0,-25.0,40.0,-3.0,1
265.0,21.0,-7.0,-22.0,37.0,-1.0,1
265.0,22.0,-9.0,-30.0,34.0,-1.0,1
263.0,23.0,-9.0,-38.0,33.0,-1.0,1
263.0,21.0,-10.0,-42.0,32.0,-1.0,1
265.0,20.0,-10.0,-41.0,30.0,-1.0,1
265.0,22.0,-8.0,-46.0,29.0,0.0,1
263.0,19.0,-10.0,-46.0,25.0,1.0,1
264.0,21.0,-8.0,-45.0,27.0,-1.0,1
265.0,19.0,-14.0,-44.0,27.0,-4.0,1
264.0,21.0,-6.0,-45.0,27.0,-3.0,1
264.0,20.0,-4.0,-41.0,31.0,-4.0,1
266.0,18.0,-6.0,-38.0,32.0,-5.0,1
265.0,21.0,-4.0,-38.0,33.0,-5.0,1
266.0,22.0,-6.0,-43.0,30.0,-4.0,1
265.0,23.0,-5.0,-47.0,28.0,-5.0,1
264.0,21.0,-8.0,-49.0,27.0,-7.0,1
268.0,21.0,-7.0,-51.0,27.0,-6.0,1
262.0,20.0,-3.0,-50.0,23.0,-8.0,1
264.0,21.0,-6.0,-50.0,22.0,-9.0,1
266.0,20.0,-3.0,-49.0,19.0,-9.0,1
262.0,22.0,-8.0,-50.0,17.0,-10.0,1
266.0,21.0,-9.0,-50.0,14.0,-10.0,1
266.0,20.0,-11.0,-50.0,12.0,-9.0,1
263.0,21.0,-7.0,-53.0,10.0,-9.0,1
262.0,23.0,-4.0,-53.0,9.0,-11.0,1
265.0,21.0,-6.0,-54.0,8.0,-10.0,1
265.0,19.0,-8.0,-56.0,7.0,-10.0,1
264.0,20.0,-7.0,-57.0,5.0,-12.0,1
264.0,21.0,-8.0,-56.0,4.0,-11.0,1
263.0,21.0,-7.0,-55.0,4.0,-11.0,1
267.0,21.0,-9.0,-55.0,3.0,-9.0,1
264.0,23.0,-5.0,-54.0,1.0,-9.0,1
265.0,22.0,-5.0,-52.0,0.0,-10.0,1
263.0,22.0,-8.0,-52.0,1.0,-12.0,1
266.0,24.0,-2.0,-55.0,3.0,-13.0,1
264.0,22.0,-7.0,-59.0,-1.0,-14.0,1
262.0,25.0,-4.0,-62.0,-3.0,-14.0,1
268.0,22.0,-9.0,-74.0,-7.0,-16.0,1
265.0,23.0,-6.0,-83.0,-10.0,-17.0,1
266.0,24.0,-3.0,-90.0,-14.0,-18.0,1
268.0,23.0,-8.0,-95.0,-18.0,-18.0,1
267.0,21.0,-11.0,-96.0,-22.0,-17.0,1
267.0,20.0,-13.0,-95.0,-25.0,-17.0,1
266.0,19.0,-11.0,-87.0,-24.0,-15.0,1
265.0,22.0,-14.0,-79.0,-22.0,-15.0,1
265.0,18.0,-12.0,-71.0,-18.0,-14.0,1
266.0,18.0,-12.0,-66.0,-14.0,-13.0,1
265.0,22.0,-12.0,-59.0,-8.0,-10.0,1
268.0,22.0,-9.0,-51.0,1.0,-9.0,1
266.0,20.0,-15.0,-46.0,8.0,-8.0,1
266.0,23.0,-14.0,-40.0,14.0,-5.0,1
266.0,22.0,-12.0,-37.0,19.0,-4.0,1
266.0,23.0,-10.0,-30.0,22.0,-1.0,1
267.0,24.0,-9.0,-24.0,25.0,1.0,1
266.0,22.0,-10.0,-21.0,29.0,2.0,1
266.0,22.0,-11.0,-18.0,33.0,2.0,1
266.0,22.0,-12.0,-19.0,34.0,4.0,1
266.0,22.0,-9.0,-20.0,36.0,3.0,1
263.0,23.0,-12.0,-22.0,38.0,2.0,1
261.0,25.0,-7.0,-26.0,42.0,2.0,1
262.0,25.0,-9.0,-30.0,44.0,4.0,1
263.0,22.0,-9.0,-38.0,47.0,6.0,1
262.0,21.0,-10.0,-41.0,45.0,7.0,1
264.0,19.0,-4.0,-44.0,44.0,5.0,1
263.0,17.0,-7.0,-44.0,42.0,4.0,1
262.0,20.0,-2.0,-43.0,37.0,4.0,1
266.0,15.0,-7.0,-39.0,32.0,4.0,1
266.0,18.0,-6.0,-33.0,27.0,4.0,1
265.0,21.0,-11.0,-30.0,27.0,3.0,1
267.0,24.0,-9.0,-23.0,30.0,0.0,1
265.0,23.0,-5.0,-22.0,32.0,-1.0,1
266.0,24.0,-14.0,-28.0,33.0,-3.0,1
268.0,22.0,-9.0,-37.0,33.0,-4.0,1
267.0,21.0,-7.0,-46.0,34.0,-3.0,1
266.0,22.0,-6.0,-51.0,37.0,-5.0,1
263.0,23.0,-4.0,-56.0,37.0,-6.0,1
264.0,20.0,-7.0,-61.0,38.0,-4.0,1
268.0,21.0,-4.0,-62.0,37.0,-6.0,1
264.0,23.0,0.0,-63.0,36.0,-7.0,1
265.0,20.0,-8.0,-62.0,32.0,-7.0,1
264.0,22.0,-5.0,-59.0,29.0,-5.0,1
266.0,22.0,-6.0,-56.0,27.0,-4.0,1
266.0,23.0,-7.0,-52.0,25.0,-2.0,1
264.0,24.0,-6.0,-49.0,22.0,-1.0,1
264.0,23.0,-10.0,-48.0,21.0,-1.0,1
262.0,21.0,-8.0,-48.0,22.0,1.0,1
266.0,22.0,-7.0,-50.0,22.0,3.0,1
264.0,24.0,-8.0,-50.0,25.0,5.0,1
265.0,21.0,-10.0,-49.0,26.0,5.0,1
265.0,22.0,-7.0,-48.0,28.0,8.0,1
268.0,21.0,-11.0,-49.0,30.0,10.0,1
263.0,23.0,-8.0,-51.0,30.0,11.0,1
267.0,24.0,-4.0,-57.0,29.0,12.0,1
263.0,25.0,-11.0,-58.0,29.0,13.0,1
267.0,22.0,-8.0,-56.0,31.0,16.0,1
265.0,23.0,-8.0,-56.0,29.0,19.0,1
264.0,20.0,-9.0,-57.0,26.0,18.0,1
266.0,22.0,-7.0,-60.0,22.0,18.0,1
263.0,23.0,-6.0,-62.0,17.0,19.0,1
266.0,20.0,-6.0,-65.0,13.0,17.0,1
265.0,21.0,-8.0,-67.0,8.0,16.0,1
264.0,22.0,-5.0,-68.0,6.0,16.0,1
263.0,20.0,-7.0,-71.0,5.0,14.0,1
265.0,20.0,-9.0,-71.0,4.0,14.0,1
263.0,20.0,-9.0,-74.0,7.0,12.0,1
264.0,21.0,-9.0,-73.0,7.0,13.0,1
266.0,18.0,-9.0,-73.0,7.0,11.0,1
264.0,23.0,-9.0,-72.0,9.0,10.0,1
267.0,17.0,-11.0,-72.0,10.0,10.0,1
264.0,20.0,-9.0,-69.0,11.0,9.0,1
264.0,23.0,-9.0,-69.0,13.0,8.0,1
265.0,20.0,-7.0,-67.0,14.0,7.0,1
265.0,21.0,-12.0,-67.0,14.0,6.0,1
265.0,20.0,-9.0,-69.0,15.0,4.0,1
263.0,21.0,-6.0,-72.0,15.0,2.0,1
265.0,22.0,-6.0,-74.0,14.0,-1.0,1
264.0,19.0,-5.0,-77.0,14.0,-1.0,1
264.0,23.0,-4.0,-81.0,15.0,-3.0,1
266.0,21.0,-9.0,-85.0,14.0,-2.0,1
265.0,18.0,-1.0,-85.0,12.0,-4.0,1
267.0,19.0,-6.0,-84.0,12.0,-4.0,1
263.0,20.0,-8.0,-83.0,11.0,-4.0,1
264.0,19.0,-9.0,-77.0,11.0,-6.0,1
263.0,18.0,-12.0,-72.0,13.0,-8.0,1
264.0,21.0,-10.0,-70.0,11.0,-9.0,1
264.0,21.0,-10.0,-70.0,9.0,-9.0,1
266.0,21.0,-6.0,-73.0,9.0,-8.0,1
264.0,20.0,-6.0,-74.0,10.0,-7.0,1
264.0,22.0,-6.0,-79.0,9.0,-7.0,1
264.0,22.0,-7.0,-82.0,8.0,-9.0,1
263.0,25.0,-8.0,-88.0,8.0,-6.0,1
265.0,22.0,-11.0,-92.0,6.0,-5.0,1
266.0,21.0,-12.0,-96.0,5.0,-5.0,1
263.0,22.0,-7.0,-99.0,4.0,-3.0,1
266.0,22.0,-8.0,-101.0,4.0,-2.0,1
267.0,20.0,-10.0,-101.0,1.0,-2.0,1
263.0,21.0,-11.0,-96.0,4.0,-3.0,1
265.0,20.0,-8.0,-90.0,5.0,-3.0,1
269.0,20.0,-5.0,-85.0,6.0,-2.0,1
266.0,19.0,-12.0,-80.0,5.0,-1.0,1
263.0,23.0,-9.0,-76.0,6.0,-1.0,1
265.0,20.0,-9.0,-74.0,3.0,-3.0,1
264.0,21.0,-7.0,-75.0,2.0,-2.0,1
265.0,24.0,-12.0,-75.0,2.0,-2.0,1
266.0,20.0,-8.0,-75.0,1.0,-1.0,1
265.0,21.0,-5.0,-71.0,0.0,-1.0,1
266.0,22.0,-7.0,-70.0,0.0,-1.0,1
266.0,21.0,-10.0,-68.0,1.0,-1.0,1
266.0,20.0,-6.0,-68.0,1.0,0.0,1
264.0,21.0,-9.0,-69.0,4.0,0.0,1
267.0,21.0,-9.0,-68.0,6.0,1.0,1
266.0,21.0,-9.0,-68.0,6.0,1.0,1
266.0,17.0,-8.0,-68.0,7.0,2.0,1
264.0,20.0,-5.0,-63.0,8.0,3.0,1
265.0,20.0,-10.0,-58.0,12.0,1.0,1
264.0,21.0,-8.0,-54.0,12.0,1.0,1
265.0,22.0,-10.0,-50.0,13.0,1.0,1
265.0,22.0,-7.0,-49.0,14.0,3.0,1
268.0,20.0,-12.0,-48.0,13.0,2.0,1
267.0,21.0,-9.0,-47.0,11.0,2.0,1
265.0,22.0,-7.0,-48.0,12.0,3.0,1
265.0,18.0,-8.0,-44.0,15.0,3.0,1
267.0,20.0,-11.0,-41.0,17.0,5.0,1
268.0,22.0,-10.0,-36.0,20.0,5.0,1
267.0,22.0,-6.0,-36.0,20.0,5.0,1
267.0,21.0,-9.0,-37.0,20.0,6.0,1
264.0,24.0,-11.0,-41.0,21.0,5.0,1
264.0,24.0,-7.0,-43.0,22.0,6.0,1
266.0,19.0,-7.0,-47.0,20.0,6.0,1
263.0,21.0,-10.0,-50.0,21.0,5.0,1
265.0,21.0,-11.0,-50.0,20.0,7.0,1
266.0,21.0,-7.0,-53.0,20.0,7.0,1
265.0,23.0,-6.0,-55.0,20.0,6.0,1
268.0,22.0,-7.0,-60.0,19.0,9.0,1
267.0,20.0,-12.0,-62.0,20.0,10.0,1
264.0,18.0,-7.0,-65.0,19.0,9.0,1
269.0,21.0,-8.0,-67.0,17.0,10.0,1
263.0,19.0,-6.0,-70.0,16.0,9.0,1
267.0,19.0,-11.0,-70.0,16.0,10.0,1
262.0,22.0,-7.0,-68.0,15.0,8.0,1
264.0,21.0,-4.0,-65.0,13.0,8.0,1
264.0,20.0,-9.0,-60.0,15.0,9.0,1
264.0,32.0,-12.0,-57.0,16.0,9.0,1
265.0,16.0,-10.0,-57.0,16.0,8.0,1
266.0,21.0,-7.0,-56.0,19.0,8.0,1
265.0,20.0,-6.0,-57.0,20.0,8.0,1
262.0,23.0,-9.0,-60.0,21.0,8.0,1
265.0,21.0,-1.0,-66.0,23.0,9.0,1
265.0,19.0,-6.0,-73.0,23.0,8.0,1
264.0,21.0,-7.0,-79.0,22.0,8.0,1
265.0,20.0,-5.0,-85.0,20.0,9.0,1
264.0,18.0,-7.0,-88.0,19.0,10.0,1
265.0,16.0,-2.0,-95.0,14.0,9.0,1
263.0,16.0,-6.0,-97.0,12.0,9.0,1
262.0,22.0,-9.0,-100.0,11.0,8.0,1
263.0,16.0,-4.0,-100.0,8.0,7.0,1
263.0,18.0,-7.0,-102.0,7.0,6.0,1
265.0,21.0,-6.0,-106.0,3.0,4.0,1
263.0,22.0,-7.0,-109.0,1.0,4.0,1
267.0,21.0,-9.0,-110.0,1.0,3.0,1
267.0,20.0,-12.0,-109.0,1.0,6.0,1
266.0,19.0,-8.0,-107.0,-1.0,6.0,1
265.0,17.0,-12.0,-101.0,-3.0,7.0,1
272.0,15.0,-9.0,-88.0,-3.0,8.0,1
262.0,23.0,-13.0,-74.0,-4.0,6.0,1
264.0,15.0,-13.0,-70.0,-10.0,6.0,1
262.0,19.0,-8.0,-62.0,-7.0,2.0,1
264.0,18.0,-4.0,-50.0,2.0,2.0,1
264.0,22.0,-10.0,-40.0,10.0,1.0,1
264.0,19.0,-12.0,-37.0,15.0,2.0,1
264.0,21.0,-8.0,-42.0,20.0,0.0,1
264.0,19.0,-6.0,-47.0,22.0,1.0,1
264.0,18.0,-5.0,-55.0,21.0,1.0,1
264.0,16.0,-10.0,-62.0,22.0,1.0,1
258.0,24.0,-11.0,-67.0,21.0,1.0,1
263.0,17.0,-7.0,-67.0,17.0,0.0,1
264.0,18.0,-7.0,-67.0,11.0,-1.0,1
263.0,20.0,-5.0,-66.0,5.0,-1.0,1
265.0,20.0,-9.0,-63.0,3.0,-5.0,1
267.0,20.0,-12.0,-61.0,2.0,-6.0,1
264.0,19.0,-13.0,-61.0,4.0,-6.0,1
267.0,25.0,-8.0,-63.0,7.0,-8.0,1
263.0,25.0,-8.0,-68.0,10.0,-9.0,1
265.0,19.0,-7.0,-72.0,11.0,-9.0,1
267.0,18.0,-10.0,-78.0,14.0,-8.0,1
252.0,23.0,-20.0,-82.0,19.0,-9.0,1
265.0,18.0,-7.0,-80.0,21.0,-9.0,1
263.0,20.0,-9.0,-78.0,23.0,-10.0,1
267.0,18.0,-9.0,-73.0,23.0,-9.0,1
264.0,21.0,-8.0,-66.0,23.0,-11.0,1
267.0,17.0,-10.0,-62.0,22.0,-11.0,1
266.0,18.0,-10.0,-56.0,21.0,-9.0,1
266.0,20.0,-6.0,-51.0,22.0,-8.0,1
265.0,22.0,-7.0,-49.0,21.0,-6.0,1
266.0,19.0,-7.0,-47.0,22.0,-8.0,1
265.0,20.0,-8.0,-44.0,20.0,-6.0,1
278.0,24.0,-8.0,-42.0,20.0,-4.0,1
264.0,21.0,-7.0,-41.0,20.0,-4.0,1
266.0,19.0,-6.0,-40.0,19.0,-4.0,1
265.0,20.0,-11.0,-39.0,21.0,-3.0,1
265.0,17.0,-10.0,-39.0,20.0,-2.0,1
266.0,22.0,-10.0,-40.0,19.0,-2.0,1
266.0,19.0,-9.0,-39.0,20.0,-2.0,1
268.0,17.0,-11.0,-38.0,20.0,-1.0,1
269.0,20.0,-11.0,-37.0,19.0,1.0,1
267.0,19.0,-14.0,-36.0,19.0,1.0,1
265.0,20.0,-7.0,-36.0,20.0,-1.0,1
267.0,21.0,-7.0,-34.0,19.0,-1.0,1
263.0,20.0,-9.0,-34.0,18.0,-2.0,1
266.0,20.0,-8.0,-34.0,18.0,-2.0,1
267.0,17.0,-9.0,-34.0,19.0,-3.0,1
269.0,15.0,-5.0,-34.0,19.0,-4.0,1
266.0,19.0,-10.0,-33.0,19.0,-4.0,1
264.0,20.0,-11.0,-33.0,21.0,-3.0,1
263.0,19.0,-9.0,-29.0,21.0,-4.0,1
264.0,18.0,-8.0,-27.0,23.0,-5.0,1
265.0,18.0,-5.0,-25.0,23.0,-5.0,1
266.0,21.0,-10.0,-25.0,24.0,-6.0,1
265.0,19.0,-10.0,-24.0,26.0,-6.0,1
266.0,18.0,-10.0,-23.0,29.0,-5.0,1
265.0,18.0,-9.0,-25.0,29.0,-5.0,1
267.0,21.0,-7.0,-25.0,28.0,-6.0,1
265.0,21.0,-7.0,-27.0,28.0,-6.0,1
264.0,20.0,-9.0,-27.0,28.0,-6.0,1
263.0,21.0,-9.0,-31.0,27.0,-7.0,1
264.0,18.0,-4.0,-35.0,29.0,-6.0,1
265.0,20.0,-8.0,-41.0,30.0,-6.0,1
264.0,19.0,-11.0,-43.0,30.0,-6.0,1
263.0,20.0,-7.0,-45.0,31.0,-6.0,1
264.0,20.0,-9.0,-42.0,31.0,-6.0,1
265.0,18.0,-6.0,-40.0,31.0,-7.0,1
265.0,22.0,-5.0,-38.0,30.0,-6.0,1
264.0,17.0,-8.0,-37.0,31.0,-8.0,1
266.0,20.0,-6.0,-35.0,30.0,-9.0,1
262.0,20.0,-5.0,-36.0,29.0,-10.0,1
262.0,18.0,-9.0,-39.0,29.0,-12.0,1
264.0,20.0,-4.0,-45.0,27.0,-13.0,1
265.0,19.0,-7.0,-47.0,27.0,-14.0,1
262.0,22.0,-5.0,-50.0,26.0,-15.0,1
265.0,18.0,-8.0,-52.0,25.0,-16.0,1
265.0,20.0,-5.0,-56.0,23.0,-16.0,1
265.0,20.0,-8.0,-55.0,23.0,-17.0,1
265.0,19.0,-10.0,-53.0,23.0,-16.0,1
265.0,18.0,-8.0,-50.0,22.0,-16.0,1
262.0,21.0,-7.0,-49.0,23.0,-15.0,1
265.0,18.0,-6.0,-45.0,24.0,-14.0,1
267.0,22.0,-2.0,-41.0,24.0,-16.0,1
267.0,18.0,-8.0,-39.0,25.0,-14.0,1
265.0,18.0,-5.0,-37.0,25.0,-13.0,1
267.0,18.0,-10.0,-34.0,23.0,-14.0,1
268.0,19.0,-7.0,-30.0,21.0,-13.0,1
263.0,21.0,-4.0,-30.0,20.0,-13.0,1
261.0,21.0,-8.0,-29.0,18.0,-13.0,1
266.0,22.0,-2.0,-31.0,17.0,-13.0,1
265.0,22.0,-6.0,-31.0,14.0,-13.0,1
269.0,20.0,-11.0,-31.0,14.0,-12.0,1
264.0,21.0,-9.0,-31.0,15.0,-11.0,1
267.0,24.0,-10.0,-29.0,13.0,-9.0,1
268.0,19.0,-11.0,-26.0,15.0,-8.0,1
265.0,20.0,-9.0,-23.0,14.0,-8.0,1
266.0,20.0,-9.0,-18.0,16.0,-7.0,1
265.0,18.0,-11.0,-14.0,17.0,-7.0,1
267.0,19.0,-7.0,-11.0,19.0,-6.0,1
266.0,21.0,-7.0,-10.0,21.0,-4.0,1
262.0,22.0,-8.0,-7.0,22.0,-3.0,1
264.0,22.0,-8.0,-7.0,23.0,-3.0,1
266.0,19.0,-4.0,-9.0,23.0,-2.0,1
266.0,21.0,-6.0,-11.0,22.0,-2.0,1
265.0,21.0,-8.0,-12.0,23.0,-2.0,1
267.0,20.0,-4.0,-16.0,22.0,-2.0,1
266.0,21.0,-5.0,-21.0,21.0,-1.0,1
262.0,21.0,-3.0,-26.0,18.0,-1.0,1
264.0,22.0,-6.0,-31.0,18.0,0.0,1
265.0,21.0,-9.0,-35.0,15.0,0.0,1
263.0,19.0,-5.0,-37.0,14.0,-1.0,1
266.0,19.0,-10.0,-40.0,13.0,0.0,1
267.0,18.0,-9.0,-41.0,14.0,0.0,1
267.0,17.0,-11.0,-42.0,14.0,-3.0,1
264.0,21.0,-9.0,-44.0,15.0,-4.0,1
265.0,17.0,-8.0,-47.0,15.0,-5.0,1
264.0,18.0,-8.0,-48.0,15.0,-5.0,1
266.0,15.0,-9.0,-47.0,17.0,-6.0,1
262.0,19.0,-7.0,-46.0,18.0,-6.0,1
265.0,18.0,-7.0,-46.0,18.0,-6.0,1
263.0,20.0,-6.0,-46.0,18.0,-5.0,1
264.0,23.0,-8.0,-46.0,18.0,-6.0,1
263.0,21.0,-12.0,-44.0,17.0,-8.0,1
265.0,17.0,-7.0,-42.0,16.0,-7.0,1
264.0,21.0,-4.0,-40.0,16.0,-8.0,1
267.0,19.0,-11.0,-39.0,16.0,-10.0,1
267.0,16.0,-10.0,-37.0,17.0,-11.0,1
264.0,17.0,-9.0,-36.0,18.0,-10.0,1
267.0,22.0,-10.0,-36.0,18.0,-10.0,1
267.0,19.0,-8.0,-37.0,18.0,-10.0,1
264.0,20.0,-11.0,-35.0,18.0,-11.0,1
264.0,20.0,-8.0,-33.0,20.0,-9.0,1
266.0,19.0,-9.0,-30.0,22.0,-9.0,1
263.0,19.0,-8.0,-29.0,23.0,-8.0,1
267.0,20.0,-9.0,-27.0,23.0,-7.0,1
263.0,19.0,-7.0,-25.0,24.0,-9.0,1
265.0,16.0,-9.0,-25.0,25.0,-9.0,1
264.0,19.0,-5.0,-25.0,25.0,-8.0,1
267.0,24.0,-8.0,-27.0,23.0,-8.0,1
265.0,20.0,-10.0,-30.0,23.0,-8.0,1
265.0,21.0,-8.0,-34.0,21.0,-7.0,1
265.0,19.0,-4.0,-36.0,20.0,-7.0,1
269.0,19.0,-7.0,-35.0,18.0,-6.0,1
265.0,20.0,-7.0,-34.0,16.0,-7.0,1
261.0,19.0,-8.0,-33.0,13.0,-6.0,1
265.0,16.0,-8.0,-31.0,11.0,-7.0,1
267.0,22.0,-4.0,-30.0,10.0,-8.0,1
264.0,22.0,-11.0,-29.0,11.0,-9.0,1
267.0,21.0,-6.0,-26.0,11.0,-11.0,1
267.0,21.0,-7.0,-26.0,10.0,-10.0,1
263.0,22.0,-4.0,-29.0,12.0,-11.0,1
265.0,21.0,-10.0,-29.0,12.0,-10.0,1
265.0,22.0,-7.0,-25.0,14.0,-11.0,1
265.0,21.0,-8.0,-21.0,14.0,-12.0,1
265.0,21.0,-7.0,-15.0,15.0,-10.0,1
264.0,20.0,-9.0,-11.0,17.0,-12.0,1
264.0,18.0,-9.0,-4.0,18.0,-12.0,1
265.0,20.0,-10.0,3.0,20.0,-12.0,1
265.0,22.0,-10.0,6.0,19.0,-13.0,1
266.0,19.0,-4.0,7.0,21.0,-11.0,1
266.0,20.0,-8.0,5.0,22.0,-11.0,1
263.0,21.0,-7.0,2.0,27.0,-9.0,1
266.0,19.0,-11.0,-4.0,29.0,-9.0,1
265.0,21.0,-7.0,-12.0,30.0,-6.0,1
267.0,16.0,-6.0,-21.0,29.0,-6.0,1
267.0,13.0,-9.0,-25.0,27.0,-6.0,1
266.0,18.0,-6.0,-25.0,25.0,-7.0,1
264.0,17.0,-8.0,-24.0,21.0,-9.0,1
265.0,16.0,-7.0,-20.0,17.0,-9.0,1
263.0,19.0,-12.0,-19.0,17.0,-11.0,1
266.0,21.0,-9.0,-16.0,17.0,-12.0,1
264.0,24.0,-10.0,-13.0,19.0,-12.0,1
268.0,26.0,-13.0,-9.0,22.0,-12.0,1
268.0,23.0,-12.0,-8.0,25.0,-14.0,1
266.0,23.0,-7.0,-5.0,30.0,-14.0,1
268.0,20.0,-9.0,-10.0,28.0,-14.0,1
264.0,19.0,-5.0,-20.0,24.0,-13.0,1
263.0,23.0,-1.0,-33.0,25.0,-13.0,1
262.0,23.0,-6.0,-42.0,26.0,-12.0,1
264.0,20.0,-6.0,-46.0,26.0,-12.0,1
265.0,19.0,-2.0,-48.0,26.0,-11.0,1
265.0,24.0,-7.0,-49.0,23.0,-11.0,1
263.0,22.0,-8.0,-45.0,22.0,-9.0,1
265.0,20.0,-10.0,-40.0,21.0,-8.0,1
266.0,21.0,-9.0,-35.0,20.0,-8.0,1
267.0,21.0,-9.0,-30.0,19.0,-8.0,1
264.0,22.0,-8.0,-22.0,20.0,-7.0,1
267.0,21.0,-6.0,-20.0,19.0,-7.0,1
265.0,25.0,-9.0,-19.0,18.0,-7.0,1
264.0,22.0,-3.0,-18.0,17.0,-7.0,1
267.0,21.0,-4.0,-17.0,17.0,-6.0,1
265.0,19.0,-5.0,-15.0,19.0,-5.0,1
264.0,22.0,-5.0,-13.0,18.0,-6.0,1
264.0,20.0,-6.0,-10.0,19.0,-6.0,1
265.0,22.0,-9.0,-5.0,21.0,-6.0,1
264.0,20.0,-8.0,0.0,21.0,-6.0,1
264.0,23.0,-3.0,0.0,21.0,-5.0,1
261.0,22.0,-7.0,-3.0,19.0,-4.0,1
267.0,21.0,-4.0,-5.0,18.0,-5.0,1
266.0,20.0,-4.0,-15.0,14.0,-5.0,1
262.0,21.0,-5.0,-23.0,13.0,-4.0,1
268.0,22.0,-10.0,-25.0,15.0,-3.0,1
268.0,22.0,-5.0,-25.0,13.0,-4.0,1
265.0,23.0,-2.0,-29.0,9.0,-5.0,1
265.0,20.0,-3.0,-32.0,8.0,-5.0,1
264.0,23.0,-6.0,-34.0,8.0,-6.0,1
262.0,24.0,-8.0,-34.0,6.0,-5.0,1
264.0,20.0,-9.0,-30.0,6.0,-5.0,1
267.0,22.0,-13.0,-29.0,5.0,-6.0,1
264.0,18.0,-8.0,-24.0,6.0,-8.0,1
267.0,21.0,-4.0,-18.0,7.0,-9.0,1
266.0,22.0,-8.0,-14.0,9.0,-9.0,1
267.0,22.0,-13.0,-12.0,10.0,-9.0,1
264.0,21.0,-7.0,-6.0,11.0,-9.0,1
265.0,23.0,-6.0,-5.0,14.0,-11.0,1
265.0,23.0,-10.0,-2.0,14.0,-12.0,1
266.0,23.0,-6.0,-7.0,14.0,-12.0,1
263.0,22.0,-9.0,-15.0,13.0,-13.0,1
265.0,18.0,-9.0,-23.0,14.0,-13.0,1
265.0,21.0,-3.0,-32.0,15.0,-13.0,1
267.0,21.0,-7.0,-38.0,17.0,-14.0,1
263.0,20.0,-6.0,-39.0,19.0,-13.0,1
265.0,15.0,-9.0,-41.0,19.0,-12.0,1
264.0,18.0,-9.0,-39.0,20.0,-12.0,1
266.0,23.0,-9.0,-37.0,20.0,-12.0,1
265.0,21.0,-7.0,-34.0,22.0,-12.0,1
263.0,22.0,-7.0,-33.0,22.0,-12.0,1
263.0,24.0,-9.0,-33.0,21.0,-14.0,1
264.0,21.0,-4.0,-31.0,22.0,-13.0,1
265.0,19.0,-9.0,-32.0,22.0,-13.0,1
263.0,21.0,-9.0,-30.0,21.0,-15.0,1
267.0,21.0,-10.0,-31.0,19.0,-15.0,1
266.0,21.0,-8.0,-33.0,19.0,-14.0,1
266.0,22.0,-7.0,-36.0,18.0,-14.0,1
266.0,25.0,-6.0,-40.0,17.0,-14.0,1
267.0,21.0,-5.0,-42.0,16.0,-13.0,1
266.0,21.0,-9.0,-43.0,17.0,-13.0,1
259.0,22.0,-6.0,-42.0,18.0,-13.0,1
265.0,20.0,-8.0,-40.0,20.0,-12.0,1
266.0,23.0,-9.0,-37.0,22.0,-10.0,1
264.0,21.0,-10.0,-37.0,23.0,-11.0,1
268.0,21.0,-8.0,-33.0,20.0,-9.0,1
263.0,22.0,-8.0,-29.0,20.0,-9.0,1
264.0,22.0,-5.0,-26.0,19.0,-10.0,1
263.0,22.0,-9.0,-19.0,18.0,-10.0,1
263.0,23.0,-3.0,-15.0,18.0,-9.0,1
264.0,20.0,-7.0,-12.0,16.0,-10.0,1
267.0,20.0,-7.0,-14.0,14.0,-9.0,1
267.0,24.0,-7.0,-13.0,15.0,-5.0,1
264.0,24.0,-4.0,-9.0,12.0,-2.0,1
268.0,21.0,-8.0,-4.0,10.0,-5.0,1
264.0,26.0,-7.0,-8.0,13.0,-8.0,1
266.0,21.0,-7.0,-9.0,16.0,-7.0,1
264.0,20.0,-6.0,-6.0,16.0,-6.0,1
265.0,21.0,-7.0,-6.0,14.0,-3.0,1
264.0,22.0,-10.0,-4.0,13.0,-3.0,1
265.0,19.0,-4.0,-4.0,12.0,-5.0,1
266.0,23.0,-10.0,-4.0,13.0,-5.0,1
266.0,24.0,-10.0,-5.0,15.0,-5.0,1
267.0,22.0,-10.0,-5.0,15.0,-4.0,1
262.0,22.0,-8.0,-3.0,15.0,-4.0,1
266.0,21.0,-6.0,-3.0,18.0,-6.0,1
264.0,23.0,-8.0,0.0,21.0,-6.0,1
262.0,23.0,-11.0,6.0,23.0,-6.0,1
266.0,20.0,-8.0,14.0,22.0,-7.0,1
265.0,24.0,-12.0,13.0,22.0,-11.0,1
264.0,22.0,-8.0,12.0,20.0,-11.0,1
261.0,24.0,-8.0,4.0,16.0,-9.0,1
267.0,19.0,-4.0,-6.0,12.0,-6.0,1
266.0,23.0,-9.0,-9.0,15.0,-9.0,1
265.0,21.0,-8.0,-8.0,17.0,-8.0,1
264.0,21.0,-6.0,-12.0,20.0,-10.0,1
265.0,23.0,-6.0,-12.0,20.0,-10.0,1
264.0,21.0,-8.0,-12.0,19.0,-9.0,1
262.0,23.0,-5.0,-12.0,18.0,-9.0,1
266.0,23.0,-5.0,-13.0,19.0,-10.0,1
266.0,23.0,-4.0,-14.0,23.0,-10.0,1
265.0,23.0,-4.0,-17.0,22.0,-9.0,1
264.0,22.0,-6.0,-25.0,20.0,-9.0,1
266.0,22.0,-5.0,-33.0,18.0,-10.0,1
266.0,22.0,-7.0,-39.0,17.0,-10.0,1
267.0,22.0,-6.0,-43.0,16.0,-7.0,1
266.0,20.0,-7.0,-47.0,18.0,-8.0,1
263.0,23.0,-10.0,-48.0,17.0,-8.0,1
263.0,21.0,-5.0,-47.0,16.0,-7.0,1
265.0,21.0,-7.0,-45.0,16.0,-7.0,1
266.0,19.0,-5.0,-45.0,17.0,-8.0,1
264.0,21.0,-11.0,-45.0,18.0,-7.0,1
266.0,21.0,-7.0,-46.0,17.0,-8.0,1
264.0,19.0,-7.0,-44.0,16.0,-9.0,1
268.0,20.0,-9.0,-46.0,17.0,-10.0,1
265.0,20.0,-10.0,-45.0,17.0,-10.0,1
265.0,21.0,-4.0,-43.0,17.0,-11.0,1
266.0,20.0,-6.0,-41.0,17.0,-9.0,1
264.0,25.0,-8.0,-38.0,18.0,-10.0,1
265.0,22.0,-8.0,-37.0,19.0,-9.0,1
263.0,23.0,-7.0,-36.0,19.0,-7.0,1
264.0,23.0,-7.0,-34.0,17.0,-6.0,1
265.0,24.0,-5.0,-35.0,16.0,-7.0,1
264.0,23.0,-5.0,-35.0,16.0,-5.0,1
267.0,21.0,-6.0,-35.0,15.0,-4.0,1
262.0,24.0,-6.0,-36.0,13.0,-3.0,1
263.0,22.0,-7.0,-34.0,9.0,-4.0,1
263.0,23.0,-10.0,-33.0,8.0,-4.0,1
265.0,21.0,-5.0,-35.0,7.0,-3.0,1
263.0,26.0,-6.0,-34.0,8.0,-3.0,1
268.0,23.0,-7.0,-33.0,7.0,-4.0,1
265.0,20.0,-8.0,-33.0,6.0,-3.0,1
263.0,23.0,-8.0,-33.0,5.0,-5.0,1
265.0,21.0,-7.0,-33.0,5.0,-4.0,1
264.0,24.0,-6.0,-31.0,5.0,-4.0,1
262.0,22.0,-7.0,-31.0,7.0,-4.0,1
265.0,21.0,-3.0,-31.0,7.0,-6.0,1
265.0,24.0,-5.0,-29.0,8.0,-5.0,1
265.0,23.0,-8.0,-30.0,10.0,-6.0,1
263.0,23.0,-6.0,-31.0,10.0,-5.0,1
266.0,20.0,-10.0,-33.0,11.0,-4.0,1
266.0,22.0,-8.0,-35.0,12.0,-5.0,1
268.0,24.0,-8.0,-38.0,12.0,-4.0,1
265.0,23.0,-7.0,-36.0,14.0,-4.0,1
266.0,21.0,-11.0,-37.0,13.0,-4.0,1
264.0,20.0,-11.0,-36.0,11.0,-4.0,1
264.0,20.0,-8.0,-38.0,11.0,-6.0,1
268.0,22.0,-9.0,-38.0,14.0,-8.0,1
264.0,22.0,-7.0,-37.0,15.0,-7.0,1
263.0,24.0,-6.0,-38.0,14.0,-7.0,1
265.0,25.0,-7.0,-38.0,14.0,-7.0,1
264.0,21.0,-9.0,-40.0,17.0,-4.0,1
265.0,24.0,-7.0,-40.0,19.0,-5.0,1
266.0,24.0,-7.0,-40.0,19.0,-6.0,1
265.0,24.0,-6.0,-37.0,20.0,-4.0,1
267.0,24.0,-9.0,-35.0,22.0,-5.0,1
265.0,23.0,-10.0,-33.0,23.0,-3.0,1
263.0,23.0,-9.0,-30.0,25.0,-6.0,1
265.0,21.0,-9.0,-27.0,26.0,-6.0,1
265.0,24.0,-10.0,-22.0,27.0,-7.0,1
263.0,25.0,-7.0,-21.0,25.0,-7.0,1
266.0,27.0,-4.0,-20.0,27.0,-5.0,1
266.0,22.0,-13.0,-19.0,27.0,-7.0,1
265.0,19.0,-9.0,-22.0,31.0,-6.0,1
264.0,24.0,-4.0,-24.0,32.0,-6.0,1
268.0,21.0,-6.0,-26.0,32.0,-4.0,1
263.0,19.0,-5.0,-27.0,32.0,-6.0,1
264.0,20.0,-6.0,-29.0,29.0,-5.0,1
262.0,18.0,-7.0,-26.0,28.0,-5.0,1
263.0,18.0,-8.0,-22.0,26.0,-8.0,1
263.0,22.0,-7.0,-15.0,23.0,-10.0,1
265.0,23.0,-11.0,-7.0,20.0,-10.0,1
267.0,20.0,8.0,-4.0,20.0,-11.0,1
265.0,25.0,-11.0,0.0,23.0,-12.0,1
268.0,25.0,-7.0,0.0,24.0,-11.0,1
263.0,24.0,-10.0,-4.0,23.0,-11.0,1
267.0,25.0,-14.0,-9.0,21.0,-14.0,1
269.0,21.0,-9.0,-10.0,18.0,-9.0,1
266.0,23.0,-4.0,-8.0,19.0,-10.0,1
267.0,21.0,-10.0,-11.0,22.0,-12.0,1
264.0,24.0,-4.0,-13.0,27.0,-13.0,1
263.0,22.0,-4.0,-17.0,28.0,-13.0,1
266.0,23.0,-8.0,-21.0,28.0,-13.0,1
276.0,24.0,-1.0,-24.0,25.0,-12.0,1
266.0,24.0,-6.0,-25.0,25.0,-10.0,1
266.0,21.0,-8.0,-26.0,27.0,-9.0,1
267.0,22.0,-9.0,-24.0,24.0,-8.0,1
268.0,25.0,-3.0,-21.0,22.0,-5.0,1
264.0,25.0,-7.0,-19.0,20.0,-5.0,1
265.0,24.0,0.0,-17.0,19.0,-4.0,1
266.0,23.0,-8.0,-16.0,20.0,-2.0,1
266.0,27.0,-6.0,-7.0,26.0,1.0,1
262.0,22.0,-4.0,0.0,25.0,3.0,1
266.0,24.0,-8.0,1.0,21.0,4.0,1
278.0,19.0,-10.0,-4.0,17.0,2.0,1
264.0,22.0,-5.0,-11.0,17.0,2.0,1
264.0,21.0,-5.0,-16.0,16.0,3.0,1
265.0,25.0,-6.0,-17.0,16.0,5.0,1
264.0,23.0,-7.0,-18.0,15.0,7.0,1
262.0,25.0,-5.0,-20.0,14.0,9.0,1
266.0,21.0,-8.0,-28.0,9.0,10.0,1
268.0,26.0,-8.0,-29.0,6.0,8.0,1
264.0,27.0,-4.0,-25.0,9.0,10.0,1
266.0,23.0,-11.0,-21.0,10.0,9.0,1
267.0,23.0,-6.0,-24.0,10.0,6.0,1
259.0,20.0,-2.0,-26.0,11.0,6.0,1
265.0,24.0,-7.0,-27.0,10.0,6.0,1
267.0,23.0,-7.0,-28.0,10.0,6.0,1
268.0,21.0,-8.0,-30.0,10.0,4.0,1
264.0,23.0,-10.0,-28.0,9.0,6.0,1
264.0,24.0,-6.0,-26.0,8.0,5.0,1
262.0,21.0,-9.0,-25.0,5.0,3.0,1
266.0,21.0,-6.0,-24.0,2.0,2.0,1
262.0,24.0,-10.0,-14.0,7.0,-2.0,1
264.0,22.0,-9.0,-3.0,11.0,-2.0,1
266.0,23.0,-9.0,3.0,13.0,-2.0,1
262.0,24.0,-15.0,1.0,13.0,-5.0,1
265.0,26.0,-11.0,-6.0,7.0,-3.0,1
265.0,24.0,-5.0,-25.0,1.0,-1.0,1
265.0,19.0,-10.0,-35.0,6.0,-2.0,1
265.0,19.0,-4.0,-42.0,13.0,-2.0,1
264.0,22.0,-6.0,-49.0,16.0,1.0,1
269.0,22.0,-9.0,-51.0,20.0,3.0,1
265.0,18.0,-8.0,-51.0,23.0,4.0,1
262.0,23.0,-5.0,-50.0,23.0,4.0,1
265.0,19.0,-6.0,-49.0,24.0,5.0,1
262.0,22.0,-10.0,-48.0,26.0,4.0,1
266.0,20.0,-3.0,-49.0,27.0,0.0,1
266.0,22.0,-6.0,-48.0,28.0,-1.0,1
265.0,23.0,-9.0,-47.0,27.0,-2.0,1
264.0,21.0,-9.0,-43.0,31.0,-3.0,1
266.0,21.0,-8.0,-36.0,35.0,-4.0,1
265.0,21.0,-3.0,-36.0,34.0,-5.0,1
265.0,22.0,-7.0,-42.0,30.0,-4.0,1
265.0,21.0,-8.0,-51.0,28.0,-4.0,1
268.0,23.0,-9.0,-57.0,26.0,-4.0,1
264.0,25.0,-6.0,-60.0,28.0,-4.0,1
265.0,21.0,-6.0,-62.0,28.0,-3.0,1
266.0,21.0,-9.0,-64.0,28.0,-3.0,1
263.0,27.0,-10.0,-61.0,26.0,-2.0,1
263.0,21.0,-9.0,-58.0,28.0,-3.0,1
265.0,18.0,-6.0,-55.0,27.0,-3.0,1
263.0,23.0,-6.0,-57.0,29.0,-3.0,1
264.0,24.0,-7.0,-55.0,28.0,-2.0,1
264.0,21.0,-4.0,-54.0,29.0,-2.0,1
263.0,20.0,-3.0,-53.0,28.0,-3.0,1
264.0,22.0,-4.0,-51.0,27.0,-3.0,1
264.0,23.0,-4.0,-51.0,24.0,-3.0,1
264.0,23.0,-7.0,-50.0,22.0,-2.0,1
264.0,22.0,-4.0,-53.0,20.0,-3.0,1
266.0,22.0,-5.0,-54.0,20.0,-3.0,1
261.0,22.0,-5.0,-55.0,19.0,-2.0,1
266.0,23.0,-2.0,-55.0,17.0,0.0,1
264.0,24.0,-7.0,-56.0,16.0,1.0,1
265.0,26.0,-10.0,-58.0,14.0,2.0,1
264.0,22.0,-5.0,-60.0,13.0,5.0,1
263.0,24.0,-8.0,-60.0,13.0,5.0,1
264.0,23.0,-6.0,-60.0,11.0,5.0,1
265.0,21.0,-8.0,-59.0,10.0,3.0,1
263.0,23.0,-5.0,-59.0,8.0,5.0,1
264.0,21.0,-5.0,-57.0,10.0,6.0,1
266.0,25.0,-3.0,-57.0,10.0,6.0,1
268.0,21.0,-4.0,-56.0,10.0,5.0,1
267.0,22.0,-4.0,-54.0,9.0,4.0,1
267.0,24.0,-10.0,-54.0,8.0,5.0,1
263.0,23.0,-7.0,-56.0,8.0,5.0,1
265.0,27.0,-7.0,-55.0,7.0,4.0,1
265.0,22.0,-9.0,-57.0,7.0,5.0,1
265.0,21.0,-7.0,-57.0,5.0,5.0,1
265.0,26.0,-4.0,-58.0,2.0,4.0,1
265.0,21.0,-6.0,-59.0,1.0,4.0,1
264.0,21.0,-7.0,-59.0,0.0,4.0,1
265.0,22.0,-6.0,-59.0,-2.0,3.0,1
266.0,21.0,-3.0,-60.0,-3.0,2.0,1
264.0,22.0,-11.0,-61.0,-4.0,2.0,1
266.0,20.0,-9.0,-61.0,-4.0,2.0,1
267.0,22.0,-7.0,-63.0,-4.0,2.0,1
264.0,21.0,-8.0,-64.0,-1.0,1.0,1
263.0,20.0,-7.0,-64.0,0.0,2.0,1
266.0,19.0,-3.0,-67.0,1.0,0.0,1
265.0,22.0,-10.0,-67.0,0.0,0.0,1
267.0,23.0,-7.0,-69.0,1.0,0.0,1
267.0,21.0,-8.0,-71.0,-1.0,-2.0,1
264.0,21.0,-8.0,-68.0,0.0,-1.0,1
266.0,17.0,-12.0,-69.0,2.0,-2.0,1
263.0,24.0,-7.0,-70.0,-1.0,-3.0,1
267.0,20.0,-5.0,-68.0,-2.0,-3.0,1
266.0,21.0,-7.0,-67.0,0.0,-3.0,1
266.0,20.0,-9.0,-67.0,0.0,-2.0,1
265.0,14.0,-9.0,-64.0,-1.0,-3.0,1
273.0,35.0,-4.0,-62.0,-3.0,-4.0,1
267.0,17.0,-11.0,-60.0,-2.0,-4.0,1
267.0,22.0,-5.0,-59.0,-3.0,-4.0,1
268.0,22.0,-8.0,-59.0,-5.0,-4.0,1
268.0,19.0,-9.0,-59.0,-2.0,-5.0,1
265.0,20.0,-7.0,-59.0,-1.0,-6.0,1
267.0,23.0,-9.0,-59.0,1.0,-3.0,1
265.0,21.0,-10.0,-57.0,4.0,-4.0,1
263.0,21.0,-7.0,-58.0,6.0,-4.0,1
267.0,20.0,-12.0,-58.0,7.0,-4.0,1
266.0,23.0,-9.0,-58.0,9.0,-4.0,1
265.0,22.0,-5.0,-59.0,11.0,-2.0,1
267.0,23.0,-9.0,-60.0,11.0,-2.0,1
267.0,21.0,-7.0,-62.0,10.0,-1.0,1
267.0,22.0,-12.0,-63.0,10.0,-2.0,1
265.0,22.0,-5.0,-64.0,9.0,0.0,1
264.0,23.0,-6.0,-66.0,8.0,0.0,1
265.0,23.0,-13.0,-69.0,8.0,1.0,1
267.0,21.0,-9.0,-68.0,9.0,2.0,1
267.0,20.0,-5.0,-72.0,10.0,2.0,1
263.0,23.0,-8.0,-72.0,10.0,2.0,1
264.0,21.0,-9.0,-73.0,10.0,5.0,1
264.0,24.0,-8.0,-74.0,10.0,3.0,1
263.0,22.0,-7.0,-76.0,10.0,4.0,1
265.0,24.0,-9.0,-77.0,11.0,6.0,1
263.0,23.0,-12.0,-80.0,11.0,5.0,1
266.0,23.0,-5.0,-81.0,14.0,6.0,1
266.0,21.0,-7.0,-80.0,16.0,6.0,1
266.0,23.0,-7.0,-78.0,16.0,8.0,1
265.0,20.0,-10.0,-78.0,17.0,7.0,1
265.0,22.0,-5.0,-79.0,17.0,8.0,1
267.0,18.0,-6.0,-78.0,15.0,7.0,1
268.0,20.0,-6.0,-81.0,14.0,7.0,1
263.0,23.0,-8.0,-80.0,14.0,7.0,1
266.0,24.0,-4.0,-81.0,13.0,7.0,1
264.0,22.0,-1.0,-80.0,14.0,7.0,1
265.0,21.0,-7.0,-82.0,13.0,5.0,1
265.0,22.0,-9.0,-83.0,13.0,5.0,1
264.0,20.0,-9.0,-83.0,12.0,5.0,1
265.0,21.0,-8.0,-83.0,11.0,5.0,1
263.0,21.0,-9.0,-84.0,9.0,5.0,1
266.0,22.0,-7.0,-80.0,9.0,6.0,1
265.0,20.0,-8.0,-78.0,7.0,3.0,1
267.0,18.0,-10.0,-74.0,7.0,4.0,1
263.0,21.0,-8.0,-67.0,6.0,4.0,1
266.0,18.0,-6.0,-62.0,5.0,3.0,1
265.0,19.0,-9.0,-56.0,6.0,3.0,1
265.0,23.0,-8.0,-55.0,4.0,1.0,1
267.0,22.0,-10.0,-54.0,7.0,2.0,1
263.0,22.0,-8.0,-57.0,7.0,3.0,1
263.0,24.0,-7.0,-57.0,7.0,2.0,1
264.0,20.0,-6.0,-60.0,6.0,3.0,1
266.0,20.0,-7.0,-63.0,6.0,4.0,1
264.0,21.0,-12.0,-65.0,6.0,3.0,1
266.0,22.0,-8.0,-68.0,5.0,3.0,1
267.0,22.0,-9.0,-71.0,3.0,2.0,1
266.0,21.0,-8.0,-74.0,3.0,2.0,1
266.0,20.0,-8.0,-75.0,3.0,3.0,1
264.0,25.0,-9.0,-77.0,2.0,3.0,1
266.0,23.0,-8.0,-80.0,2.0,2.0,1
264.0,22.0,-8.0,-83.0,0.0,1.0,1
267.0,23.0,-6.0,-87.0,-1.0,1.0,1
261.0,23.0,-9.0,-90.0,-2.0,1.0,1
265.0,23.0,-9.0,-93.0,-2.0,0.0,1
266.0,20.0,-8.0,-90.0,-2.0,1.0,1
266.0,19.0,-9.0,-90.0,-3.0,2.0,1
264.0,22.0,-12.0,-82.0,3.0,3.0,1
264.0,23.0,-13.0,-72.0,6.0,2.0,1
264.0,22.0,-9.0,-65.0,8.0,-1.0,1
264.0,21.0,-13.0,-61.0,12.0,1.0,1
264.0,20.0,-8.0,-58.0,19.0,2.0,1
262.0,22.0,-11.0,-57.0,23.0,1.0,1
263.0,20.0,-12.0,-59.0,26.0,3.0,1
265.0,18.0,-9.0,-65.0,27.0,3.0,1
265.0,18.0,-8.0,-70.0,26.0,4.0,1
267.0,15.0,-8.0,-72.0,24.0,6.0,1
263.0,18.0,-9.0,-73.0,19.0,6.0,1
265.0,18.0,-8.0,-73.0,16.0,5.0,1
262.0,21.0,-3.0,-70.0,11.0,5.0,1
264.0,20.0,-9.0,-70.0,4.0,4.0,1
264.0,26.0,-7.0,-69.0,2.0,0.0,1
268.0,24.0,-13.0,-65.0,2.0,0.0,1
265.0,27.0,-10.0,-66.0,5.0,-2.0,1
265.0,25.0,-12.0,-72.0,7.0,-2.0,1
267.0,23.0,-9.0,-77.0,11.0,-1.0,1
267.0,22.0,-16.0,-83.0,14.0,0.0,1
265.0,21.0,-8.0,-90.0,15.0,2.0,1
264.0,21.0,-6.0,-96.0,16.0,0.0,1
265.0,20.0,-9.0,-101.0,17.0,1.0,1
265.0,20.0,-10.0,-101.0,19.0,1.0,1
264.0,20.0,-8.0,-98.0,19.0,0.0,1
262.0,19.0,-9.0,-90.0,18.0,0.0,1
261.0,19.0,-11.0,-80.0,18.0,1.0,1
267.0,18.0,-8.0,-72.0,17.0,0.0,1
264.0,19.0,-4.0,-66.0,15.0,1.0,1
263.0,20.0,-3.0,-64.0,13.0,2.0,1
266.0,18.0,-4.0,-68.0,12.0,3.0,1
267.0,22.0,-6.0,-68.0,12.0,5.0,1
266.0,22.0,-8.0,-65.0,15.0,6.0,1
265.0,20.0,-9.0,-58.0,18.0,8.0,1
261.0,23.0,-10.0,-52.0,20.0,8.0,1
265.0,21.0,-10.0,-48.0,20.0,9.0,1
266.0,22.0,-7.0,-45.0,19.0,11.0,1
266.0,21.0,-9.0,-42.0,19.0,11.0,1
264.0,21.0,-10.0,-42.0,19.0,11.0,1
266.0,20.0,-4.0,-41.0,21.0,11.0,1
268.0,20.0,-8.0,-41.0,19.0,13.0,1
265.0,23.0,-9.0,-42.0,18.0,12.0,1
262.0,22.0,-12.0,-43.0,16.0,13.0,1
267.0,21.0,-7.0,-47.0,14.0,13.0,1
266.0,21.0,-9.0,-51.0,14.0,14.0,1
265.0,19.0,-6.0,-55.0,12.0,13.0,1
265.0,21.0,-3.0,-57.0,11.0,13.0,1
266.0,23.0,-9.0,-61.0,10.0,12.0,1
264.0,19.0,-7.0,-64.0,7.0,11.0,1
262.0,23.0,-7.0,-70.0,4.0,11.0,1
266.0,19.0,-9.0,-72.0,3.0,10.0,1
266.0,21.0,-8.0,-74.0,3.0,9.0,1
266.0,20.0,-9.0,-73.0,3.0,10.0,1
265.0,16.0,-9.0,-70.0,2.0,9.0,1
263.0,22.0,-10.0,-69.0,3.0,8.0,1
265.0,19.0,-10.0,-66.0,3.0,7.0,1
268.0,20.0,-9.0,-62.0,7.0,5.0,1
266.0,19.0,-12.0,-58.0,11.0,5.0,1
265.0,23.0,-11.0,-56.0,14.0,3.0,1
264.0,19.0,-8.0,-57.0,15.0,3.0,1
268.0,19.0,-10.0,-56.0,15.0,2.0,1
268.0,20.0,-7.0,-58.0,15.0,1.0,1
264.0,20.0,-8.0,-61.0,14.0,0.0,1
261.0,21.0,-4.0,-64.0,16.0,-1.0,1
264.0,21.0,-11.0,-68.0,18.0,-1.0,1
263.0,19.0,-10.0,-69.0,19.0,-1.0,1
263.0,21.0,-5.0,-68.0,21.0,-3.0,1
264.0,18.0,-12.0,-68.0,22.0,-2.0,1
262.0,18.0,-8.0,-66.0,23.0,-1.0,1
264.0,20.0,-8.0,-64.0,22.0,-2.0,1
265.0,19.0,-13.0,-63.0,22.0,-3.0,1
264.0,17.0,-9.0,-61.0,20.0,-3.0,1
266.0,20.0,-10.0,-61.0,17.0,-6.0,1
265.0,20.0,-8.0,-64.0,18.0,-7.0,1
267.0,20.0,-5.0,-66.0,16.0,-8.0,1
264.0,19.0,-11.0,-71.0,15.0,-9.0,1
263.0,21.0,-7.0,-74.0,13.0,-10.0,1
265.0,19.0,-6.0,-76.0,11.0,-9.0,1
262.0,21.0,-11.0,-79.0,11.0,-9.0,1
266.0,20.0,-5.0,-80.0,10.0,-9.0,1
265.0,16.0,-5.0,-83.0,9.0,-10.0,1
267.0,17.0,-9.0,-87.0,8.0,-10.0,1
264.0,21.0,-11.0,-82.0,11.0,-10.0,1
263.0,17.0,-6.0,-74.0,13.0,-10.0,1
263.0,19.0,-8.0,-63.0,14.0,-11.0,1
265.0,18.0,-9.0,-55.0,17.0,-12.0,1
262.0,20.0,-12.0,-48.0,16.0,-11.0,1
265.0,20.0,-10.0,-45.0,17.0,-11.0,1
267.0,18.0,-10.0,-42.0,15.0,-10.0,1
267.0,17.0,-13.0,-38.0,17.0,-10.0,1
265.0,22.0,-10.0,-36.0,16.0,-9.0,1
265.0,19.0,-9.0,-34.0,15.0,-9.0,1
263.0,21.0,-8.0,-31.0,15.0,-10.0,1
266.0,19.0,-9.0,-32.0,16.0,-10.0,1
265.0,25.0,-7.0,-31.0,15.0,-9.0,1
266.0,21.0,-10.0,-31.0,15.0,-7.0,1
264.0,23.0,-12.0,-32.0,17.0,-6.0,1
265.0,20.0,-6.0,-32.0,16.0,-4.0,1
264.0,21.0,-8.0,-31.0,17.0,-3.0,1
268.0,19.0,-7.0,-32.0,17.0,-3.0,1
263.0,22.0,-9.0,-30.0,14.0,-3.0,1
265.0,21.0,-9.0,-28.0,16.0,-2.0,1
263.0,21.0,-11.0,-28.0,17.0,-3.0,1
265.0,19.0,-10.0,-26.0,18.0,-3.0,1
264.0,20.0,-6.0,-27.0,19.0,-4.0,1
263.0,21.0,-7.0,-27.0,19.0,-3.0,1
265.0,22.0,-11.0,-28.0,21.0,-2.0,1
265.0,24.0,-10.0,-28.0,22.0,-1.0,1
260.0,23.0,-11.0,-29.0,22.0,-1.0,1
263.0,20.0,-9.0,-29.0,22.0,0.0,1
267.0,21.0,-7.0,-28.0,22.0,0.0,1
261.0,21.0,-9.0,-31.0,21.0,1.0,1
264.0,19.0,-10.0,-32.0,21.0,2.0,1
267.0,20.0,-9.0,-33.0,20.0,2.0,1
266.0,22.0,-5.0,-33.0,21.0,2.0,1
268.0,21.0,-9.0,-33.0,22.0,1.0,1
264.0,21.0,-8.0,-35.0,23.0,0.0,1
264.0,18.0,-8.0,-34.0,24.0,-1.0,1
265.0,20.0,-9.0,-37.0,25.0,-1.0,1
265.0,21.0,-7.0,-41.0,27.0,-2.0,1
265.0,20.0,-9.0,-43.0,28.0,-1.0,1
267.0,18.0,-7.0,-45.0,28.0,-2.0,1
268.0,20.0,-11.0,-48.0,28.0,-2.0,1
264.0,17.0,-5.0,-48.0,28.0,-2.0,1
262.0,19.0,-6.0,-49.0,28.0,-4.0,1
265.0,17.0,-8.0,-49.0,25.0,-3.0,1
265.0,19.0,-6.0,-51.0,25.0,-2.0,1
266.0,21.0,-5.0,-52.0,23.0,-4.0,1
263.0,23.0,-4.0,-51.0,22.0,-4.0,1
263.0,24.0,-4.0,-51.0,23.0,-5.0,1
267.0,19.0,-8.0,-52.0,21.0,-5.0,1
266.0,21.0,-5.0,-52.0,19.0,-5.0,1
266.0,20.0,-6.0,-55.0,18.0,-6.0,1
267.0,18.0,-6.0,-53.0,17.0,-5.0,1
265.0,20.0,-6.0,-53.0,17.0,-6.0,1
261.0,19.0,-9.0,-54.0,16.0,-6.0,1
263.0,22.0,-5.0,-53.0,15.0,-6.0,1
265.0,21.0,-10.0,-51.0,16.0,-6.0,1
264.0,19.0,-7.0,-48.0,18.0,-4.0,1
267.0,20.0,-12.0,-48.0,19.0,-6.0,1
265.0,20.0,-9.0,-45.0,19.0,-4.0,1
266.0,19.0,-8.0,-44.0,17.0,-5.0,1
264.0,20.0,-7.0,-42.0,18.0,-4.0,1
264.0,22.0,-8.0,-38.0,17.0,-4.0,1
267.0,17.0,-8.0,-38.0,15.0,-6.0,1
264.0,19.0,-10.0,-37.0,17.0,-4.0,1
267.0,18.0,-6.0,-34.0,14.0,-5.0,1
266.0,18.0,-6.0,-31.0,14.0,-8.0,1
266.0,17.0,-10.0,-31.0,15.0,-9.0,1
265.0,22.0,-8.0,-31.0,14.0,-9.0,1
265.0,23.0,-4.0,-31.0,15.0,-8.0,1
265.0,24.0,-8.0,-35.0,14.0,-8.0,1
266.0,19.0,-12.0,-38.0,14.0,-7.0,1
265.0,21.0,-10.0,-42.0,14.0,-8.0,1
266.0,18.0,-8.0,-45.0,12.0,-5.0,1
263.0,20.0,-6.0,-46.0,10.0,-6.0,1
263.0,19.0,-9.0,-46.0,9.0,-6.0,1
263.0,19.0,-9.0,-44.0,7.0,-7.0,1
265.0,19.0,-8.0,-44.0,8.0,-8.0,1
267.0,19.0,-8.0,-44.0,8.0,-9.0,1
264.0,20.0,-8.0,-43.0,6.0,-9.0,1
266.0,18.0,-8.0,-44.0,6.0,-9.0,1
265.0,23.0,-8.0,-43.0,7.0,-9.0,1
267.0,21.0,-11.0,-43.0,6.0,-9.0,1
268.0,20.0,-7.0,-43.0,9.0,-7.0,1
258.0,17.0,5.0,-40.0,10.0,-7.0,1
267.0,18.0,-10.0,-37.0,13.0,-8.0,1
265.0,22.0,-3.0,-35.0,15.0,-8.0,1
268.0,24.0,-10.0,-30.0,15.0,-11.0,1
266.0,24.0,-10.0,-26.0,16.0,-12.0,1
264.0,22.0,-13.0,-21.0,20.0,-12.0,1
264.0,23.0,-7.0,-20.0,22.0,-14.0,1
265.0,18.0,-8.0,-16.0,26.0,-12.0,1
266.0,19.0,-11.0,-16.0,29.0,-11.0,1
265.0,22.0,-9.0,-20.0,32.0,-11.0,1
256.0,24.0,-18.0,-23.0,31.0,-9.0,1
266.0,21.0,-6.0,-28.0,31.0,-8.0,1
267.0,18.0,-5.0,-31.0,33.0,-7.0,1
265.0,18.0,-6.0,-32.0,35.0,-8.0,1
266.0,19.0,-6.0,-32.0,32.0,-8.0,1
265.0,16.0,-6.0,-34.0,30.0,-8.0,1
263.0,19.0,0.0,-34.0,27.0,-10.0,1
262.0,17.0,-9.0,-32.0,23.0,-11.0,1
263.0,19.0,-9.0,-28.0,19.0,-10.0,1
264.0,24.0,-9.0,-25.0,17.0,-13.0,1
264.0,22.0,-6.0,-25.0,17.0,-14.0,1
261.0,34.0,-21.0,-27.0,20.0,-15.0,1
267.0,21.0,-11.0,-32.0,24.0,-14.0,1
266.0,25.0,-14.0,-38.0,28.0,-13.0,1
268.0,22.0,-8.0,-41.0,31.0,-12.0,1
265.0,19.0,-9.0,-47.0,33.0,-13.0,1
265.0,22.0,-6.0,-50.0,33.0,-13.0,1
263.0,21.0,-5.0,-51.0,36.0,-13.0,1
266.0,21.0,-10.0,-50.0,35.0,-14.0,1
267.0,20.0,-9.0,-48.0,35.0,-13.0,1
268.0,18.0,-6.0,-42.0,33.0,-14.0,1
265.0,20.0,-12.0,-37.0,32.0,-12.0,1
256.0,22.0,-2.0,-30.0,30.0,-11.0,1
266.0,23.0,-8.0,-25.0,27.0,-12.0,1
264.0,23.0,-7.0,-22.0,27.0,-12.0,1
264.0,22.0,-5.0,-22.0,25.0,-9.0,1
262.0,21.0,-4.0,-23.0,25.0,-8.0,1
264.0,19.0,-6.0,-22.0,25.0,-8.0,1
263.0,24.0,-6.0,-24.0,25.0,-7.0,1
264.0,21.0,-3.0,-24.0,25.0,-5.0,1
265.0,21.0,-7.0,-27.0,23.0,-6.0,1
265.0,22.0,-8.0,-28.0,21.0,-4.0,1
267.0,21.0,-10.0,-30.0,23.0,-3.0,1
255.0,18.0,-11.0,-28.0,21.0,-2.0,1
262.0,22.0,-9.0,-30.0,21.0,0.0,1
266.0,22.0,-6.0,-29.0,19.0,0.0,1
268.0,21.0,-8.0,-30.0,18.0,1.0,1
267.0,20.0,-8.0,-30.0,20.0,1.0,1
265.0,20.0,-6.0,-31.0,19.0,1.0,1
260.0,24.0,-4.0,-30.0,19.0,2.0,1
266.0,17.0,-13.0,-31.0,17.0,1.0,1
265.0,19.0,-4.0,-32.0,18.0,0.0,1
267.0,21.0,-9.0,-32.0,17.0,0.0,1
265.0,20.0,-9.0,-34.0,17.0,-1.0,1
258.0,22.0,-20.0,-34.0,18.0,-1.0,1
265.0,18.0,-5.0,-32.0,19.0,0.0,1
267.0,22.0,-8.0,-30.0,20.0,0.0,1
268.0,18.0,-9.0,-27.0,20.0,-1.0,1
264.0,21.0,-7.0,-24.0,19.0,-2.0,1
265.0,18.0,-9.0,-23.0,21.0,-4.0,1
266.0,21.0,-9.0,-21.0,21.0,-5.0,1
266.0,20.0,-10.0,-15.0,22.0,-5.0,1
264.0,21.0,-7.0,-15.0,24.0,-6.0,1
266.0,20.0,-12.0,-18.0,24.0,-6.0,1
266.0,21.0,-7.0,-20.0,26.0,-5.0,1
265.0,20.0,-8.0,-19.0,28.0,-4.0,1
265.0,20.0,-6.0,-18.0,29.0,-5.0,1
264.0,20.0,-8.0,-20.0,27.0,-5.0,1
264.0,22.0,-7.0,-24.0,28.0,-5.0,1
264.0,21.0,-7.0,-24.0,30.0,-5.0,1
258.0,20.0,-8.0,-28.0,29.0,-5.0,1
264.0,19.0,-5.0,-31.0,31.0,-3.0,1
262.0,21.0,-5.0,-33.0,32.0,-5.0,1
264.0,18.0,-9.0,-32.0,33.0,-5.0,1
262.0,20.0,-11.0,-31.0,34.0,-4.0,1
265.0,19.0,-4.0,-27.0,33.0,-5.0,1
266.0,19.0,-7.0,-24.0,30.0,-6.0,1
264.0,19.0,-5.0,-25.0,28.0,-7.0,1
266.0,21.0,-6.0,-26.0,27.0,-6.0,1
265.0,23.0,-5.0,-29.0,25.0,-8.0,1
265.0,19.0,-11.0,-35.0,25.0,-7.0,1
268.0,23.0,-5.0,-42.0,23.0,-8.0,1
264.0,28.0,-4.0,-46.0,21.0,-7.0,1
266.0,21.0,-7.0,-49.0,19.0,-8.0,1
268.0,19.0,-7.0,-53.0,18.0,-8.0,1
264.0,23.0,-6.0,-54.0,16.0,-9.0,1
261.0,20.0,-7.0,-53.0,14.0,-10.0,1
266.0,18.0,-7.0,-54.0,14.0,-11.0,1
263.0,21.0,-6.0,-53.0,13.0,-10.0,1
262.0,19.0,-7.0,-52.0,15.0,-10.0,1
264.0,20.0,-10.0,-49.0,15.0,-9.0,1
265.0,24.0,-6.0,-45.0,14.0,-11.0,1
264.0,18.0,-7.0,-42.0,12.0,-11.0,1
266.0,20.0,-7.0,-40.0,12.0,-11.0,1
264.0,21.0,-9.0,-36.0,11.0,-12.0,1
267.0,18.0,-7.0,-31.0,11.0,-12.0,1
264.0,22.0,-10.0,-31.0,10.0,-13.0,1
267.0,19.0,-7.0,-30.0,10.0,-12.0,1
266.0,22.0,-11.0,-28.0,12.0,-10.0,1
264.0,21.0,-10.0,-27.0,14.0,-8.0,1
265.0,23.0,-7.0,-27.0,14.0,-9.0,1
266.0,22.0,-5.0,-28.0,13.0,-9.0,1
264.0,21.0,-9.0,-30.0,13.0,-9.0,1
264.0,24.0,-4.0,-29.0,13.0,-8.0,1
268.0,24.0,-5.0,-27.0,14.0,-7.0,1
265.0,23.0,-7.0,-26.0,13.0,-7.0,1
262.0,21.0,-8.0,-24.0,12.0,-6.0,1
268.0,20.0,-6.0,-23.0,12.0,-7.0,1
263.0,22.0,-8.0,-24.0,10.0,-7.0,1
265.0,21.0,-5.0,-24.0,9.0,-8.0,1
262.0,22.0,-7.0,-29.0,7.0,-7.0,1
266.0,23.0,-7.0,-33.0,9.0,-7.0,1
266.0,19.0,-10.0,-37.0,8.0,-7.0,1
265.0,22.0,-11.0,-44.0,8.0,-5.0,1
266.0,22.0,-5.0,-49.0,9.0,-5.0,1
267.0,23.0,-5.0,-53.0,8.0,-4.0,1
263.0,24.0,-5.0,-57.0,9.0,-5.0,1
263.0,21.0,-6.0,-59.0,7.0,-3.0,1
267.0,20.0,-5.0,-61.0,7.0,-4.0,1
266.0,20.0,-9.0,-59.0,7.0,-5.0,1
266.0,20.0,-7.0,-59.0,6.0,-5.0,1
266.0,24.0,-6.0,-61.0,5.0,-5.0,1
265.0,24.0,-10.0,-59.0,6.0,-4.0,1
271.0,19.0,-8.0,-60.0,6.0,-4.0,1
266.0,21.0,-5.0,-58.0,8.0,-5.0,1
268.0,19.0,-8.0,-58.0,9.0,-5.0,1
267.0,19.0,-9.0,-56.0,9.0,-6.0,1
265.0,21.0,-7.0,-55.0,12.0,-5.0,1
263.0,21.0,-7.0,-54.0,14.0,-6.0,1
265.0,19.0,-7.0,-52.0,14.0,-7.0,1
269.0,20.0,-10.0,-51.0,14.0,-7.0,1
264.0,21.0,-5.0,-51.0,15.0,-5.0,1
266.0,22.0,-6.0,-47.0,15.0,-7.0,1
264.0,23.0,-6.0,-45.0,16.0,-7.0,1
263.0,21.0,-9.0,-44.0,16.0,-7.0,1
265.0,19.0,-7.0,-45.0,17.0,-5.0,1
261.0,21.0,-12.0,-44.0,15.0,-6.0,1
265.0,22.0,-5.0,-44.0,15.0,-5.0,1
265.0,25.0,-9.0,-46.0,17.0,-5.0,1
262.0,22.0,-5.0,-48.0,16.0,-5.0,1
264.0,23.0,-6.0,-45.0,15.0,-5.0,1
265.0,19.0,-5.0,-45.0,16.0,-5.0,1
265.0,19.0,-9.0,-47.0,16.0,-3.0,1
266.0,22.0,-7.0,-47.0,14.0,-2.0,1
267.0,21.0,-8.0,-48.0,16.0,-2.0,1
267.0,20.0,-9.0,-48.0,15.0,-3.0,1
267.0,26.0,-8.0,-47.0,15.0,-3.0,1
267.0,22.0,-7.0,-45.0,15.0,-2.0,1
265.0,21.0,-6.0,-46.0,16.0,-3.0,1
262.0,23.0,-6.0,-42.0,15.0,-3.0,1
264.0,21.0,-9.0,-41.0,15.0,-4.0,1
264.0,21.0,-10.0,-39.0,15.0,-5.0,1
265.0,22.0,-8.0,-34.0,15.0,-5.0,1
266.0,19.0,-5.0,-31.0,15.0,-8.0,1
264.0,21.0,-13.0,-28.0,16.0,-9.0,1
264.0,23.0,-8.0,-27.0,17.0,-8.0,1
267.0,22.0,-8.0,-27.0,17.0,-10.0,1
264.0,21.0,-5.0,-28.0,18.0,-9.0,1
263.0,23.0,-6.0,-28.0,18.0,-10.0,1
266.0,18.0,-5.0,-31.0,18.0,-11.0,1
264.0,21.0,-6.0,-31.0,16.0,-10.0,1
267.0,21.0,-7.0,-30.0,16.0,-10.0,1
266.0,18.0,-8.0,-30.0,14.0,-11.0,1
262.0,19.0,-10.0,-29.0,13.0,-11.0,1
263.0,23.0,-12.0,-27.0,13.0,-13.0,1
265.0,23.0,-7.0,-25.0,12.0,-13.0,1
264.0,22.0,-7.0,-24.0,15.0,-12.0,1
262.0,22.0,-8.0,-23.0,17.0,-12.0,1
268.0,22.0,-11.0,-25.0,17.0,-14.0,1
265.0,23.0,-7.0,-27.0,19.0,-13.0,1
267.0,23.0,-8.0,-25.0,18.0,-15.0,1
263.0,23.0,-8.0,-22.0,21.0,-14.0,1
265.0,19.0,-8.0,-16.0,23.0,-12.0,1
265.0,21.0,-8.0,-10.0,23.0,-11.0,1
266.0,22.0,-8.0,-5.0,23.0,-12.0,1
264.0,23.0,-10.0,-2.0,21.0,-13.0,1
265.0,26.0,-9.0,0.0,20.0,-12.0,1
267.0,21.0,-11.0,0.0,21.0,-13.0,1
267.0,23.0,-10.0,-3.0,24.0,-12.0,1
264.0,22.0,-5.0,-6.0,26.0,-13.0,1
264.0,23.0,-7.0,-8.0,29.0,-12.0,1
265.0,22.0,-8.0,-10.0,30.0,-10.0,1
268.0,21.0,-5.0,-12.0,31.0,-8.0,1
266.0,21.0,-7.0,-12.0,32.0,-8.0,1
264.0,20.0,-8.0,-11.0,34.0,-8.0,1
262.0,21.0,-10.0,-8.0,32.0,-8.0,1
262.0,20.0,-2.0,-12.0,28.0,-11.0,1
262.0,19.0,-7.0,-12.0,23.0,-12.0,1
265.0,19.0,-12.0,-8.0,21.0,-12.0,1
266.0,20.0,-8.0,-4.0,20.0,-14.0,1
265.0,22.0,-12.0,3.0,23.0,-13.0,1
267.0,26.0,-10.0,7.0,25.0,-14.0,1
270.0,23.0,-6.0,11.0,26.0,-13.0,1
267.0,22.0,-9.0,9.0,27.0,-14.0,1
264.0,24.0,-10.0,9.0,30.0,-16.0,1
267.0,21.0,-10.0,6.0,30.0,-16.0,1
265.0,21.0,-7.0,3.0,33.0,-17.0,1
265.0,22.0,-6.0,2.0,34.0,-17.0,1
264.0,19.0,-6.0,0.0,31.0,-15.0,1
266.0,21.0,-9.0,-8.0,31.0,-15.0,1
262.0,19.0,-5.0,-9.0,37.0,-14.0,1
265.0,21.0,-4.0,-5.0,39.0,-12.0,1
262.0,24.0,-1.0,-7.0,35.0,-11.0,1
265.0,22.0,-6.0,-9.0,29.0,-10.0,1
265.0,23.0,-2.0,-13.0,27.0,-10.0,1
263.0,24.0,-6.0,-18.0,24.0,-9.0,1
267.0,27.0,-8.0,-25.0,21.0,-7.0,1
265.0,23.0,-3.0,-27.0,19.0,-5.0,1
264.0,24.0,-8.0,-26.0,23.0,-5.0,1
266.0,24.0,-6.0,-21.0,25.0,-4.0,1
263.0,25.0,-6.0,-19.0,25.0,-3.0,1
265.0,24.0,-8.0,-19.0,25.0,-2.0,1
268.0,20.0,-6.0,-20.0,25.0,0.0,1
263.0,22.0,-6.0,-14.0,21.0,0.0,1
264.0,23.0,-8.0,-11.0,24.0,-2.0,1
264.0,22.0,-8.0,-11.0,24.0,-2.0,1
266.0,22.0,-5.0,-12.0,23.0,-3.0,1
263.0,23.0,-6.0,-13.0,21.0,-1.0,1
263.0,26.0,-4.0,-16.0,20.0,-1.0,1
262.0,23.0,-3.0,-17.0,19.0,-1.0,1
263.0,24.0,-4.0,-20.0,16.0,-1.0,1
267.0,24.0,-6.0,-20.0,17.0,-1.0,1
265.0,24.0,-9.0,-22.0,15.0,-2.0,1
264.0,20.0,-5.0,-27.0,12.0,-1.0,1
266.0,23.0,-5.0,-30.0,13.0,-1.0,1
264.0,23.0,-6.0,-28.0,13.0,-2.0,1
266.0,24.0,-7.0,-26.0,14.0,-3.0,1
267.0,22.0,-8.0,-25.0,10.0,-4.0,1
265.0,21.0,-8.0,-20.0,6.0,-2.0,1
261.0,22.0,-8.0,-10.0,12.0,-3.0,1
265.0,21.0,-11.0,-4.0,11.0,-8.0,1
264.0,22.0,-9.0,-4.0,11.0,-10.0,1
264.0,23.0,-9.0,-10.0,9.0,-12.0,1
262.0,24.0,-9.0,-15.0,6.0,-11.0,1
263.0,24.0,-9.0,-17.0,9.0,-11.0,1
266.0,22.0,-6.0,-17.0,15.0,-13.0,1
264.0,23.0,-7.0,-16.0,18.0,-12.0,1
266.0,23.0,-6.0,-15.0,22.0,-10.0,1
262.0,23.0,-7.0,-14.0,26.0,-10.0,1
263.0,23.0,-4.0,-18.0,23.0,-11.0,1
262.0,25.0,-4.0,-25.0,19.0,-9.0,1
259.0,25.0,-5.0,-29.0,22.0,-9.0,1
263.0,21.0,-8.0,-36.0,22.0,-11.0,1
263.0,24.0,-7.0,-39.0,22.0,-10.0,1
267.0,22.0,-7.0,-40.0,23.0,-10.0,1
264.0,21.0,-8.0,-38.0,24.0,-9.0,1
264.0,21.0,-6.0,-32.0,28.0,-10.0,1
264.0,22.0,-5.0,-26.0,30.0,-11.0,1
265.0,22.0,-8.0,-26.0,28.0,-12.0,1
268.0,21.0,-6.0,-29.0,28.0,-13.0,1
266.0,23.0,-9.0,-34.0,27.0,-13.0,1
266.0,23.0,-6.0,-37.0,26.0,-12.0,1
267.0,22.0,-6.0,-35.0,26.0,-10.0,1
263.0,24.0,-4.0,-39.0,24.0,-10.0,1
265.0,25.0,-5.0,-43.0,22.0,-8.0,1
263.0,25.0,-5.0,-48.0,17.0,-8.0,1
267.0,20.0,-2.0,-53.0,14.0,-9.0,1
267.0,23.0,-4.0,-53.0,14.0,-9.0,1
264.0,23.0,-8.0,-53.0,13.0,-8.0,1
263.0,22.0,-5.0,-53.0,13.0,-7.0,1
265.0,23.0,-5.0,-50.0,13.0,-6.0,1
263.0,24.0,-3.0,-47.0,13.0,-6.0,1
265.0,24.0,-8.0,-45.0,13.0,-6.0,1
265.0,26.0,-3.0,-43.0,13.0,-6.0,1
264.0,23.0,-6.0,-40.0,11.0,-6.0,1
263.0,23.0,-7.0,-38.0,12.0,-7.0,1
260.0,23.0,-7.0,-36.0,11.0,-7.0,1
262.0,25.0,-6.0,-32.0,13.0,-8.0,1
263.0,22.0,-6.0,-32.0,12.0,-8.0,1
265.0,23.0,-3.0,-37.0,5.0,-5.0,1
266.0,26.0,-6.0,-35.0,9.0,-5.0,1
266.0,24.0,-5.0,-31.0,11.0,-3.0,1
266.0,22.0,-3.0,-29.0,12.0,-4.0,1
264.0,23.0,-5.0,-29.0,10.0,-4.0,1
266.0,22.0,-6.0,-32.0,12.0,-2.0,1
267.0,24.0,-6.0,-34.0,10.0,-1.0,1
264.0,25.0,-4.0,-34.0,10.0,-1.0,1
265.0,24.0,-5.0,-35.0,11.0,-1.0,1
267.0,23.0,-8.0,-36.0,12.0,-1.0,1
268.0,21.0,-10.0,-27.0,15.0,-2.0,1
266.0,23.0,-7.0,-20.0,18.0,0.0,1
264.0,23.0,-9.0,-20.0,16.0,0.0,1
265.0,21.0,-8.0,-27.0,17.0,-1.0,1
266.0,24.0,-6.0,-33.0,17.0,-2.0,1
266.0,25.0,-7.0,-38.0,15.0,-1.0,1
264.0,25.0,-6.0,-43.0,17.0,0.0,1
266.0,24.0,-6.0,-45.0,15.0,0.0,1
266.0,24.0,-6.0,-47.0,15.0,-1.0,1
264.0,25.0,-9.0,-46.0,15.0,-2.0,1
265.0,21.0,-7.0,-45.0,15.0,-3.0,1
266.0,22.0,-7.0,-45.0,14.0,-2.0,1
266.0,22.0,-7.0,-42.0,16.0,-3.0,1
265.0,20.0,-7.0,-41.0,17.0,-2.0,1
266.0,22.0,-8.0,-43.0,15.0,-3.0,1
262.0,23.0,-10.0,-45.0,15.0,-4.0,1
262.0,25.0,-8.0,-46.0,17.0,-2.0,1
266.0,19.0,-7.0,-45.0,16.0,-4.0,1
266.0,20.0,-8.0,-46.0,18.0,-5.0,1
263.0,22.0,-5.0,-44.0,18.0,-4.0,1
262.0,24.0,-7.0,-44.0,19.0,-3.0,1
264.0,25.0,-8.0,-41.0,19.0,-5.0,1
264.0,24.0,-6.0,-30.0,20.0,-2.0,1
265.0,22.0,-8.0,-24.0,20.0,-3.0,1
265.0,23.0,-5.0,-28.0,19.0,-5.0,1
265.0,22.0,-7.0,-35.0,17.0,-6.0,1
263.0,22.0,-5.0,-43.0,15.0,-7.0,1
265.0,24.0,-2.0,-45.0,17.0,-5.0,1
265.0,23.0,-6.0,-46.0,16.0,-6.0,1
265.0,19.0,-10.0,-45.0,17.0,-8.0,1
265.0,25.0,-5.0,-44.0,17.0,-7.0,1
262.0,22.0,-5.0,-44.0,16.0,-7.0,1
262.0,22.0,-5.0,-45.0,17.0,-4.0,1
266.0,23.0,-7.0,-44.0,15.0,-5.0,1
266.0,24.0,-11.0,-45.0,14.0,-5.0,1
266.0,22.0,-3.0,-45.0,15.0,-6.0,1
263.0,23.0,-6.0,-45.0,16.0,-3.0,1
266.0,24.0,-10.0,-42.0,16.0,-4.0,1
266.0,21.0,-9.0,-44.0,16.0,-3.0,1
265.0,22.0,-6.0,-41.0,16.0,-3.0,1
265.0,23.0,-6.0,-40.0,16.0,-4.0,1
265.0,23.0,-4.0,-39.0,16.0,-4.0,1
266.0,22.0,-9.0,-37.0,16.0,-4.0,1
267.0,24.0,-3.0,-39.0,15.0,-5.0,1
266.0,22.0,-7.0,-40.0,16.0,-4.0,1
264.0,20.0,-5.0,-42.0,14.0,-4.0,1
265.0,25.0,-4.0,-45.0,13.0,-4.0,1
262.0,22.0,-4.0,-49.0,12.0,-3.0,1
264.0,22.0,-5.0,-52.0,12.0,-3.0,1
264.0,22.0,-5.0,-56.0,12.0,-2.0,1
264.0,23.0,-8.0,-61.0,11.0,-1.0,1
267.0,23.0,-3.0,-64.0,9.0,-2.0,1
264.0,21.0,-6.0,-66.0,6.0,-3.0,1
267.0,20.0,-5.0,-68.0,4.0,-3.0,1
266.0,23.0,-8.0,-71.0,5.0,-3.0,1
264.0,23.0,-6.0,-72.0,6.0,-4.0,1
263.0,21.0,-9.0,-73.0,4.0,-5.0,1
262.0,26.0,-9.0,-74.0,5.0,-6.0,1
265.0,22.0,-10.0,-76.0,7.0,-3.0,1
267.0,21.0,-10.0,-75.0,8.0,-4.0,1
270.0,24.0,-7.0,-70.0,9.0,-3.0,1
264.0,24.0,-6.0,-65.0,10.0,-3.0,1
266.0,25.0,-7.0,-59.0,10.0,-2.0,1
265.0,22.0,-14.0,-54.0,11.0,-1.0,1
263.0,23.0,-8.0,-51.0,11.0,0.0,1
263.0,25.0,-7.0,-47.0,13.0,-2.0,1
264.0,24.0,-6.0,-46.0,14.0,-3.0,1
266.0,20.0,-5.0,-46.0,17.0,-2.0,1
266.0,23.0,-7.0,-46.0,18.0,-2.0,1
265.0,23.0,-7.0,-48.0,19.0,1.0,1
264.0,23.0,-9.0,-53.0,21.0,3.0,1
262.0,23.0,-1.0,-58.0,23.0,3.0,1
264.0,23.0,-4.0,-62.0,23.0,3.0,1
265.0,19.0,-7.0,-69.0,22.0,4.0,1
268.0,25.0,-2.0,-72.0,21.0,3.0,1
262.0,19.0,-4.0,-74.0,19.0,2.0,1
266.0,16.0,-6.0,-74.0,17.0,1.0,1
264.0,20.0,-8.0,-74.0,14.0,0.0,1
263.0,21.0,-8.0,-72.0,9.0,-1.0,1
265.0,22.0,-5.0,-67.0,7.0,-3.0,1
266.0,31.0,-20.0,-63.0,6.0,-4.0,1
265.0,27.0,-6.0,-61.0,8.0,-5.0,1
266.0,23.0,-7.0,-59.0,6.0,-4.0,1
270.0,23.0,-8.0,-64.0,8.0,-3.0,1
266.0,24.0,-9.0,-67.0,8.0,-5.0,1
267.0,23.0,-11.0,-73.0,10.0,-3.0,1
265.0,22.0,-5.0,-75.0,13.0,-5.0,1
265.0,23.0,-8.0,-75.0,16.0,-5.0,1
267.0,22.0,-6.0,-74.0,16.0,-4.0,1
266.0,20.0,-5.0,-72.0,19.0,-7.0,1
265.0,21.0,-9.0,-69.0,20.0,-6.0,1
260.0,28.0,-23.0,-62.0,20.0,-5.0,1
264.0,26.0,-8.0,-60.0,20.0,-4.0,1
263.0,24.0,-3.0,-57.0,21.0,-3.0,1
267.0,22.0,-8.0,-54.0,21.0,-1.0,1
265.0,25.0,-6.0,-52.0,20.0,-1.0,1
264.0,22.0,-8.0,-52.0,21.0,1.0,1
265.0,27.0,-8.0,-51.0,21.0,3.0,1
264.0,23.0,-9.0,-52.0,20.0,5.0,1
267.0,21.0,-4.0,-52.0,18.0,4.0,1
266.0,23.0,-9.0,-54.0,18.0,5.0,1
264.0,24.0,-8.0,-56.0,16.0,7.0,1
272.0,19.0,-15.0,-56.0,15.0,7.0,1
264.0,23.0,-4.0,-56.0,11.0,7.0,1
266.0,23.0,-5.0,-58.0,9.0,8.0,1
262.0,24.0,-7.0,-60.0,8.0,7.0,1
263.0,24.0,-4.0,-62.0,8.0,7.0,1
265.0,22.0,-5.0,-62.0,8.0,8.0,1
265.0,23.0,-4.0,-65.0,8.0,8.0,1
266.0,22.0,-6.0,-68.0,7.0,9.0,1
267.0,22.0,-6.0,-71.0,6.0,9.0,1
266.0,21.0,-2.0,-73.0,7.0,8.0,1
265.0,21.0,-4.0,-74.0,7.0,8.0,1
256.0,29.0,-9.0,-74.0,6.0,9.0,1
267.0,18.0,-6.0,-71.0,7.0,8.0,1
265.0,24.0,-6.0,-67.0,8.0,7.0,1
265.0,23.0,-8.0,-65.0,10.0,6.0,1
263.0,20.0,-9.0,-61.0,10.0,6.0,1
263.0,20.0,-9.0,-57.0,11.0,6.0,1
267.0,23.0,-8.0,-56.0,13.0,4.0,1
265.0,19.0,-6.0,-54.0,12.0,5.0,1
264.0,22.0,-7.0,-51.0,12.0,2.0,1
265.0,20.0,-2.0,-50.0,12.0,1.0,1
266.0,22.0,-6.0,-50.0,12.0,1.0,1
264.0,25.0,-5.0,-49.0,14.0,1.0,1
266.0,21.0,-5.0,-49.0,16.0,2.0,1
266.0,22.0,-6.0,-55.0,16.0,2.0,1
265.0,22.0,-5.0,-58.0,16.0,1.0,1
265.0,23.0,-8.0,-63.0,17.0,2.0,1
264.0,23.0,-6.0,-68.0,17.0,2.0,1
266.0,21.0,-5.0,-71.0,17.0,4.0,1
266.0,22.0,-2.0,-75.0,19.0,4.0,1
264.0,24.0,-5.0,-76.0,21.0,4.0,1
264.0,20.0,-5.0,-76.0,21.0,3.0,1
264.0,23.0,-6.0,-75.0,23.0,3.0,1
265.0,21.0,-4.0,-74.0,23.0,3.0,1
266.0,23.0,-9.0,-70.0,21.0,3.0,1
262.0,25.0,-8.0,-70.0,21.0,3.0,1
264.0,21.0,-5.0,-72.0,19.0,2.0,1
265.0,22.0,-1.0,-72.0,19.0,2.0,1
266.0,22.0,-5.0,-75.0,18.0,2.0,1
264.0,23.0,-2.0,-82.0,14.0,1.0,1
265.0,23.0,-2.0,-89.0,13.0,2.0,1
266.0,22.0,-7.0,-97.0,12.0,2.0,1
266.0,22.0,-7.0,-101.0,9.0,1.0,1
265.0,24.0,-2.0,-104.0,10.0,2.0,1
268.0,19.0,-3.0,-104.0,10.0,2.0,1
262.0,20.0,-6.0,-106.0,8.0,3.0,1
267.0,21.0,-5.0,-104.0,10.0,1.0,1
264.0,19.0,-7.0,-104.0,8.0,1.0,1
267.0,24.0,-6.0,-104.0,6.0,0.0,1
265.0,21.0,-4.0,-103.0,6.0,1.0,1
266.0,24.0,-6.0,-100.0,8.0,0.0,1
265.0,22.0,-3.0,-96.0,8.0,1.0,1
263.0,20.0,-7.0,-93.0,9.0,0.0,1
266.0,22.0,-7.0,-92.0,7.0,1.0,1
266.0,22.0,-4.0,-91.0,3.0,0.0,1
264.0,23.0,-4.0,-90.0,3.0,2.0,1
260.0,23.0,-7.0,-88.0,3.0,1.0,1
263.0,25.0,-7.0,-88.0,3.0,1.0,1
265.0,20.0,-7.0,-90.0,1.0,2.0,1
263.0,22.0,-3.0,-94.0,-2.0,2.0,1
263.0,26.0,-5.0,-100.0,-3.0,4.0,1
271.0,21.0,-7.0,-100.0,0.0,8.0,1
264.0,22.0,-10.0,-93.0,4.0,7.0,1
267.0,18.0,-10.0,-86.0,6.0,7.0,1
269.0,19.0,-6.0,-78.0,5.0,7.0,1
263.0,23.0,-8.0,-74.0,5.0,8.0,1
267.0,19.0,-10.0,-71.0,4.0,6.0,1
266.0,21.0,-6.0,-72.0,4.0,7.0,1
263.0,25.0,-7.0,-73.0,2.0,7.0,1
261.0,25.0,-6.0,-75.0,2.0,8.0,1
265.0,21.0,-6.0,-78.0,1.0,7.0,1
266.0,23.0,-9.0,-77.0,4.0,7.0,1
266.0,21.0,-10.0,-77.0,5.0,6.0,1
264.0,24.0,-9.0,-73.0,5.0,8.0,1
264.0,22.0,-9.0,-72.0,5.0,8.0,1
266.0,24.0,-12.0,-71.0,5.0,6.0,1
266.0,23.0,-12.0,-75.0,5.0,6.0,1
264.0,22.0,-6.0,-76.0,6.0,7.0,1
267.0,20.0,-8.0,-78.0,5.0,6.0,1
263.0,20.0,-7.0,-80.0,6.0,5.0,1
267.0,20.0,-7.0,-82.0,5.0,7.0,1
264.0,21.0,-6.0,-84.0,7.0,6.0,1
263.0,23.0,-8.0,-88.0,11.0,9.0,1
264.0,22.0,-7.0,-89.0,11.0,8.0,1
266.0,20.0,-8.0,-89.0,11.0,6.0,1
265.0,20.0,-6.0,-89.0,11.0,6.0,1
261.0,22.0,-7.0,-88.0,12.0,5.0,1
263.0,21.0,-6.0,-89.0,11.0,6.0,1
267.0,21.0,-2.0,-92.0,10.0,5.0,1
266.0,19.0,-7.0,-97.0,9.0,5.0,1
264.0,20.0,-8.0,-100.0,8.0,4.0,1
266.0,23.0,-8.0,-106.0,8.0,6.0,1
265.0,19.0,-2.0,-110.0,7.0,6.0,1
266.0,19.0,-9.0,-120.0,-1.0,8.0,1
266.0,20.0,-6.0,-126.0,-1.0,7.0,1
266.0,19.0,-6.0,-127.0,2.0,8.0,1
266.0,20.0,-9.0,-118.0,4.0,6.0,1
265.0,21.0,-7.0,-110.0,3.0,6.0,1
266.0,20.0,-11.0,-102.0,4.0,4.0,1
263.0,19.0,-6.0,-95.0,3.0,4.0,1
266.0,18.0,-8.0,-94.0,2.0,5.0,1
264.0,19.0,-11.0,-90.0,6.0,4.0,1
264.0,19.0,-8.0,-84.0,6.0,5.0,1
263.0,24.0,-9.0,-79.0,6.0,4.0,1
266.0,19.0,-10.0,-71.0,9.0,5.0,1
267.0,20.0,-8.0,-64.0,9.0,6.0,1
265.0,21.0,-8.0,-57.0,9.0,5.0,1
265.0,21.0,-9.0,-52.0,10.0,4.0,1
264.0,22.0,-10.0,-47.0,10.0,5.0,1
269.0,20.0,-8.0,-44.0,9.0,6.0,1
266.0,20.0,-9.0,-39.0,9.0,7.0,1
268.0,20.0,-11.0,-35.0,10.0,7.0,1
263.0,24.0,-7.0,-33.0,11.0,8.0,1
265.0,19.0,-10.0,-30.0,14.0,8.0,1
266.0,20.0,-12.0,-31.0,14.0,8.0,1
263.0,22.0,-8.0,-34.0,13.0,6.0,1
266.0,22.0,-6.0,-37.0,13.0,7.0,1
265.0,22.0,-8.0,-41.0,14.0,7.0,1
267.0,22.0,-6.0,-43.0,12.0,8.0,1
265.0,21.0,-5.0,-47.0,10.0,9.0,1
264.0,23.0,-6.0,-52.0,8.0,7.0,1
268.0,20.0,-6.0,-54.0,5.0,8.0,1
262.0,23.0,-6.0,-56.0,3.0,6.0,1
267.0,19.0,-11.0,-58.0,3.0,7.0,1
264.0,18.0,-8.0,-55.0,4.0,6.0,1
264.0,20.0,-9.0,-52.0,3.0,5.0,1
263.0,19.0,-8.0,-46.0,5.0,3.0,1
263.0,20.0,-10.0,-41.0,10.0,2.0,1
264.0,19.0,-7.0,-37.0,14.0,4.0,1
265.0,20.0,-9.0,-38.0,19.0,4.0,1
262.0,20.0,-8.0,-37.0,25.0,7.0,1
265.0,19.0,-6.0,-39.0,26.0,7.0,1
267.0,15.0,-8.0,-42.0,26.0,7.0,1
264.0,19.0,-9.0,-43.0,28.0,8.0,1
263.0,15.0,-8.0,-45.0,27.0,8.0,1
264.0,18.0,-6.0,-46.0,25.0,7.0,1
264.0,19.0,-7.0,-50.0,24.0,5.0,1
264.0,18.0,-5.0,-53.0,19.0,3.0,1
262.0,17.0,-5.0,-57.0,15.0,3.0,1
262.0,20.0,-9.0,-60.0,11.0,2.0,1
262.0,21.0,-6.0,-59.0,8.0,1.0,1
265.0,22.0,-8.0,-57.0,7.0,-1.0,1
265.0,23.0,-8.0,-58.0,8.0,-3.0,1
263.0,23.0,-10.0,-61.0,10.0,-3.0,1
267.0,20.0,-13.0,-65.0,12.0,-2.0,1
266.0,23.0,-6.0,-74.0,16.0,-2.0,1
266.0,23.0,-7.0,-80.0,20.0,-1.0,1
266.0,21.0,-13.0,-83.0,23.0,0.0,1
264.0,19.0,-9.0,-86.0,25.0,0.0,1
263.0,20.0,-4.0,-86.0,28.0,0.0,1
265.0,19.0,-5.0,-83.0,29.0,1.0,1
264.0,20.0,-10.0,-79.0,30.0,2.0,1
268.0,20.0,-8.0,-74.0,31.0,2.0,1
264.0,21.0,-2.0,-71.0,27.0,2.0,1
265.0,18.0,-9.0,-71.0,24.0,3.0,1
265.0,22.0,-8.0,-69.0,26.0,3.0,1
264.0,21.0,-8.0,-68.0,23.0,5.0,1
268.0,21.0,-4.0,-69.0,20.0,4.0,1
265.0,23.0,-8.0,-71.0,18.0,7.0,1
263.0,22.0,-5.0,-73.0,14.0,5.0,1
266.0,21.0,-5.0,-76.0,12.0,5.0,1
264.0,20.0,-5.0,-77.0,11.0,7.0,1
263.0,19.0,-5.0,-79.0,11.0,9.0,1
268.0,20.0,-6.0,-79.0,11.0,9.0,1
264.0,19.0,-7.0,-80.0,9.0,11.0,1
266.0,19.0,-8.0,-80.0,9.0,12.0,1
264.0,20.0,-3.0,-80.0,7.0,12.0,1
267.0,19.0,-2.0,-78.0,7.0,12.0,1
266.0,20.0,-9.0,-77.0,7.0,13.0,1
267.0,19.0,-8.0,-76.0,6.0,13.0,1
264.0,19.0,-3.0,-75.0,6.0,12.0,1
264.0,18.0,-7.0,-76.0,5.0,11.0,1
263.0,19.0,-7.0,-77.0,5.0,12.0,1
262.0,20.0,-3.0,-79.0,6.0,12.0,1
266.0,18.0,-4.0,-79.0,3.0,11.0,1
265.0,17.0,-1.0,-79.0,4.0,11.0,1
268.0,18.0,-6.0,-79.0,4.0,12.0,1
264.0,20.0,-6.0,-77.0,4.0,12.0,1
266.0,17.0,-15.0,-73.0,4.0,12.0,1
269.0,15.0,-10.0,-70.0,2.0,8.0,1
265.0,21.0,-13.0,-67.0,2.0,9.0,1
267.0,20.0,-6.0,-68.0,2.0,7.0,1
264.0,16.0,-6.0,-68.0,4.0,7.0,1
265.0,17.0,-9.0,-70.0,4.0,7.0,1
265.0,19.0,-9.0,-71.0,6.0,7.0,1
264.0,20.0,-11.0,-71.0,8.0,6.0,1
264.0,19.0,-9.0,-73.0,8.0,6.0,1
265.0,20.0,-8.0,-77.0,7.0,5.0,1
266.0,20.0,-4.0,-82.0,9.0,5.0,1
266.0,18.0,-6.0,-88.0,11.0,5.0,1
265.0,20.0,-14.0,-92.0,11.0,5.0,1
265.0,16.0,-6.0,-101.0,9.0,5.0,1
266.0,20.0,-4.0,-113.0,10.0,4.0,1
264.0,17.0,-10.0,-118.0,11.0,6.0,1
264.0,16.0,-5.0,-118.0,16.0,8.0,1
266.0,18.0,-5.0,-116.0,13.0,8.0,1
263.0,18.0,-8.0,-119.0,9.0,6.0,1
264.0,19.0,-7.0,-126.0,5.0,7.0,1
268.0,18.0,-5.0,-140.0,-2.0,7.0,1
267.0,16.0,-5.0,-146.0,0.0,6.0,1
262.0,21.0,-8.0,-152.0,-2.0,6.0,1
264.0,22.0,-7.0,-146.0,-2.0,6.0,1
263.0,20.0,-7.0,-138.0,-2.0,4.0,1
267.0,16.0,-4.0,-130.0,-2.0,2.0,1
264.0,18.0,-4.0,-126.0,-5.0,1.0,1
266.0,18.0,-9.0,-125.0,-6.0,2.0,1
266.0,18.0,-10.0,-127.0,-5.0,1.0,1
268.0,20.0,-9.0,-126.0,-2.0,2.0,1
266.0,18.0,-8.0,-125.0,-2.0,3.0,1
263.0,17.0,-11.0,-118.0,-1.0,3.0,1
268.0,17.0,-10.0,-111.0,0.0,3.0,1
265.0,19.0,-12.0,-102.0,1.0,4.0,1
267.0,16.0,-10.0,-94.0,2.0,6.0,1
263.0,19.0,-8.0,-86.0,-1.0,6.0,1
264.0,17.0,-7.0,-81.0,-2.0,8.0,1
263.0,20.0,-9.0,-77.0,-1.0,7.0,1
264.0,20.0,-4.0,-76.0,-2.0,7.0,1
263.0,19.0,-6.0,-77.0,-2.0,7.0,1
263.0,22.0,-6.0,-82.0,-2.0,8.0,1
265.0,19.0,-7.0,-90.0,-3.0,7.0,1
264.0,18.0,-5.0,-96.0,-5.0,7.0,1
265.0,22.0,-11.0,-105.0,-7.0,8.0,1
266.0,17.0,-4.0,-113.0,-7.0,11.0,1
264.0,21.0,-9.0,-117.0,-5.0,12.0,1
264.0,19.0,-9.0,-117.0,-3.0,12.0,1
265.0,18.0,-11.0,-116.0,-4.0,11.0,1
266.0,19.0,-8.0,-113.0,-8.0,9.0,1
266.0,18.0,-9.0,-106.0,-11.0,8.0,1
267.0,16.0,-8.0,-101.0,-8.0,8.0,1
265.0,18.0,-7.0,-97.0,-8.0,8.0,1
262.0,20.0,-8.0,-95.0,-6.0,7.0,1
265.0,15.0,-8.0,-99.0,-4.0,5.0,1
263.0,18.0,-10.0,-100.0,-4.0,5.0,1
264.0,16.0,-8.0,-106.0,-4.0,5.0,1
266.0,15.0,-9.0,-115.0,-3.0,7.0,1
266.0,18.0,-10.0,-121.0,-1.0,9.0,1
264.0,18.0,-7.0,-121.0,1.0,7.0,1
269.0,17.0,-7.0,-116.0,2.0,8.0,1
265.0,16.0,-11.0,-109.0,6.0,7.0,1
268.0,15.0,-8.0,-107.0,8.0,6.0,1
269.0,16.0,-11.0,-104.0,7.0,5.0,1
262.0,18.0,-7.0,-108.0,5.0,5.0,1
264.0,17.0,-5.0,-115.0,2.0,6.0,1
265.0,18.0,-7.0,-119.0,1.0,6.0,1
268.0,18.0,-9.0,-124.0,1.0,8.0,1
264.0,17.0,-10.0,-123.0,3.0,8.0,1
264.0,19.0,-10.0,-117.0,4.0,6.0,1
267.0,18.0,-9.0,-115.0,3.0,6.0,1
267.0,15.0,-12.0,-114.0,1.0,4.0,1
267.0,18.0,-12.0,-114.0,0.0,4.0,1
266.0,16.0,-7.0,-113.0,0.0,5.0,1
264.0,15.0,-11.0,-109.0,-1.0,4.0,1
266.0,17.0,-9.0,-105.0,-4.0,2.0,1
265.0,18.0,-8.0,-103.0,-5.0,1.0,1
266.0,18.0,-11.0,-99.0,-4.0,1.0,1
264.0,18.0,-11.0,-98.0,-4.0,3.0,1
265.0,16.0,-10.0,-98.0,-3.0,4.0,1
266.0,16.0,-7.0,-95.0,-1.0,4.0,1
265.0,13.0,-8.0,-92.0,0.0,4.0,1
263.0,16.0,-8.0,-85.0,2.0,5.0,1
266.0,15.0,-14.0,-82.0,2.0,4.0,1
265.0,18.0,-8.0,-81.0,3.0,4.0,1
266.0,15.0,-7.0,-80.0,4.0,4.0,1
265.0,16.0,-6.0,-78.0,2.0,4.0,1
269.0,17.0,-14.0,-82.0,3.0,2.0,1
267.0,17.0,-13.0,-86.0,4.0,4.0,1
270.0,13.0,-11.0,-87.0,4.0,3.0,1
266.0,17.0,-8.0,-85.0,9.0,6.0,1
267.0,17.0,-8.0,-82.0,10.0,7.0,1
265.0,16.0,-11.0,-79.0,8.0,6.0,1
267.0,19.0,-8.0,-77.0,6.0,6.0,1
264.0,15.0,-7.0,-82.0,2.0,6.0,1
267.0,15.0,-2.0,-85.0,-3.0,7.0,1
266.0,18.0,-6.0,-82.0,-1.0,6.0,1
265.0,16.0,-10.0,-73.0,1.0,4.0,1
265.0,15.0,-14.0,-65.0,-1.0,4.0,1
263.0,17.0,-9.0,-65.0,-1.0,2.0,1
265.0,16.0,-10.0,-65.0,-3.0,1.0,1
267.0,15.0,-6.0,-66.0,-3.0,1.0,1
265.0,20.0,-9.0,-64.0,-3.0,1.0,1
269.0,18.0,-12.0,-63.0,-2.0,2.0,1
266.0,17.0,-13.0,-59.0,0.0,2.0,1
265.0,16.0,-12.0,-53.0,4.0,2.0,1
262.0,12.0,-2.0,-45.0,7.0,2.0,1
265.0,16.0,-13.0,-40.0,10.0,2.0,1
267.0,15.0,-13.0,-35.0,12.0,1.0,1
266.0,18.0,-10.0,-31.0,15.0,-1.0,1
266.0,15.0,-12.0,-32.0,17.0,0.0,1
266.0,18.0,-15.0,-33.0,20.0,0.0,1
264.0,14.0,-12.0,-34.0,21.0,0.0,1
268.0,17.0,-5.0,-37.0,20.0,0.0,1
265.0,15.0,-8.0,-40.0,19.0,2.0,1
267.0,15.0,-9.0,-44.0,17.0,4.0,1
266.0,15.0,-9.0,-48.0,14.0,4.0,1
262.0,21.0,-15.0,-50.0,13.0,2.0,1
268.0,11.0,-7.0,-54.0,11.0,2.0,1
263.0,10.0,-7.0,-57.0,9.0,1.0,1
263.0,14.0,-8.0,-61.0,8.0,0.0,1
265.0,15.0,-9.0,-63.0,5.0,-1.0,1
267.0,16.0,-8.0,-64.0,3.0,-4.0,1
265.0,18.0,-11.0,-63.0,1.0,-4.0,1
267.0,20.0,-13.0,-63.0,3.0,-5.0,1
266.0,18.0,-10.0,-66.0,4.0,-5.0,1
266.0,15.0,-13.0,-71.0,9.0,-6.0,1
266.0,18.0,-12.0,-76.0,12.0,-5.0,1
271.0,28.0,-22.0,-78.0,16.0,-3.0,1
265.0,17.0,-8.0,-80.0,19.0,-4.0,1
267.0,15.0,-11.0,-81.0,20.0,-5.0,1
265.0,17.0,-10.0,-76.0,21.0,-5.0,1
265.0,16.0,-9.0,-71.0,22.0,-3.0,1
264.0,15.0,-9.0,-67.0,24.0,-5.0,1
263.0,19.0,-7.0,-62.0,25.0,-4.0,1
264.0,17.0,-11.0,-60.0,24.0,-4.0,1
266.0,19.0,-8.0,-59.0,23.0,-5.0,1
266.0,20.0,-10.0,-60.0,21.0,-4.0,1
266.0,18.0,-3.0,-59.0,17.0,-4.0,1
262.0,26.0,-30.0,-65.0,15.0,-2.0,1
266.0,14.0,-8.0,-68.0,14.0,-2.0,1
267.0,13.0,-11.0,-68.0,15.0,0.0,1
265.0,18.0,-12.0,-64.0,17.0,2.0,1
267.0,16.0,-10.0,-61.0,17.0,3.0,1
266.0,15.0,-7.0,-57.0,19.0,3.0,1
269.0,16.0,-13.0,-51.0,17.0,2.0,1
264.0,17.0,-12.0,-49.0,17.0,3.0,1
263.0,18.0,-8.0,-48.0,15.0,3.0,1
264.0,15.0,-9.0,-48.0,15.0,4.0,1
264.0,17.0,-13.0,-48.0,15.0,4.0,1
276.0,20.0,-7.0,-47.0,13.0,4.0,1
266.0,20.0,-7.0,-47.0,11.0,4.0,1
265.0,19.0,-11.0,-51.0,11.0,4.0,1
267.0,20.0,-7.0,-56.0,8.0,3.0,1
266.0,17.0,-6.0,-62.0,9.0,3.0,1
266.0,16.0,-7.0,-68.0,9.0,4.0,1
267.0,15.0,-7.0,-74.0,7.0,4.0,1
265.0,16.0,-8.0,-76.0,5.0,4.0,1
264.0,14.0,-11.0,-75.0,5.0,5.0,1
265.0,17.0,-13.0,-73.0,3.0,4.0,1
265.0,17.0,-12.0,-67.0,3.0,3.0,1
266.0,14.0,-14.0,-66.0,3.0,0.0,1
265.0,15.0,-12.0,-62.0,3.0,-1.0,1
264.0,14.0,-12.0,-63.0,8.0,-2.0,1
266.0,18.0,-12.0,-63.0,14.0,-3.0,1
266.0,15.0,-12.0,-62.0,15.0,-1.0,1
264.0,17.0,-9.0,-59.0,16.0,1.0,1
268.0,15.0,-14.0,-55.0,17.0,-1.0,1
267.0,14.0,-9.0,-55.0,16.0,-4.0,1
263.0,16.0,-8.0,-53.0,17.0,-4.0,1
263.0,16.0,-11.0,-55.0,17.0,-3.0,1
264.0,17.0,-10.0,-58.0,19.0,-3.0,1
268.0,17.0,-13.0,-62.0,19.0,-3.0,1
262.0,17.0,-11.0,-67.0,18.0,-4.0,1
265.0,15.0,-9.0,-69.0,17.0,-3.0,1
266.0,17.0,-10.0,-75.0,18.0,-3.0,1
263.0,18.0,-9.0,-79.0,16.0,-4.0,1
266.0,18.0,-8.0,-82.0,16.0,-6.0,1
264.0,18.0,-8.0,-87.0,12.0,-6.0,1
266.0,13.0,-7.0,-91.0,10.0,-7.0,1
267.0,17.0,-10.0,-96.0,10.0,-9.0,1
265.0,17.0,-9.0,-100.0,9.0,-8.0,1
263.0,16.0,-9.0,-102.0,6.0,-7.0,1
265.0,18.0,-8.0,-106.0,5.0,-8.0,1
265.0,14.0,-10.0,-108.0,3.0,-8.0,1
268.0,13.0,-17.0,-102.0,2.0,-5.0,1
268.0,14.0,-11.0,-97.0,4.0,-7.0,1
266.0,14.0,-13.0,-92.0,5.0,-8.0,1
263.0,17.0,-13.0,-90.0,6.0,-7.0,1
269.0,14.0,-9.0,-87.0,5.0,-6.0,1
263.0,19.0,-11.0,-82.0,5.0,-6.0,1
264.0,13.0,-10.0,-80.0,8.0,-7.0,1
264.0,12.0,-8.0,-74.0,11.0,-6.0,1
266.0,13.0,-6.0,-66.0,11.0,-6.0,1
265.0,15.0,-11.0,-61.0,9.0,-8.0,1
265.0,15.0,-7.0,-64.0,8.0,-6.0,1
266.0,16.0,-10.0,-64.0,8.0,-6.0,1
265.0,14.0,-4.0,-63.0,8.0,-6.0,1
266.0,19.0,-10.0,-64.0,7.0,-6.0,1
265.0,17.0,-9.0,-67.0,5.0,-5.0,1
270.0,14.0,-8.0,-71.0,3.0,-2.0,1
265.0,18.0,-11.0,-73.0,1.0,-2.0,1
264.0,17.0,-8.0,-76.0,-2.0,0.0,1
262.0,17.0,-10.0,-75.0,-3.0,1.0,1
267.0,15.0,-8.0,-71.0,-4.0,0.0,1
267.0,13.0,-12.0,-67.0,-5.0,1.0,1
266.0,18.0,-15.0,-63.0,-3.0,1.0,1
268.0,15.0,-12.0,-59.0,-2.0,1.0,1
264.0,16.0,-9.0,-56.0,-1.0,-1.0,1
265.0,18.0,-10.0,-54.0,0.0,-2.0,1
263.0,14.0,-8.0,-49.0,3.0,0.0,1
261.0,17.0,-9.0,-48.0,4.0,-1.0,1
263.0,18.0,-8.0,-48.0,6.0,-2.0,1
264.0,17.0,-11.0,-49.0,10.0,-3.0,1
266.0,18.0,-13.0,-48.0,12.0,-2.0,1
266.0,16.0,-11.0,-49.0,12.0,-1.0,1
267.0,17.0,-12.0,-51.0,13.0,-1.0,1
264.0,17.0,-13.0,-53.0,13.0,0.0,1
265.0,17.0,-8.0,-56.0,13.0,1.0,1
265.0,18.0,-14.0,-58.0,10.0,0.0,1
267.0,17.0,-6.0,-64.0,8.0,0.0,1
267.0,17.0,-12.0,-66.0,8.0,-1.0,1
265.0,14.0,-12.0,-71.0,7.0,-2.0,1
266.0,14.0,-8.0,-73.0,7.0,-2.0,1
268.0,15.0,-12.0,-74.0,5.0,-3.0,1
264.0,15.0,-12.0,-76.0,6.0,-3.0,1
266.0,15.0,-12.0,-78.0,8.0,-3.0,1
266.0,16.0,-12.0,-76.0,8.0,-4.0,1
266.0,15.0,-12.0,-74.0,8.0,-4.0,1
267.0,16.0,-11.0,-71.0,10.0,-6.0,1
266.0,14.0,-14.0,-71.0,11.0,-6.0,1
267.0,16.0,-10.0,-70.0,13.0,-6.0,1
266.0,16.0,-14.0,-67.0,13.0,-5.0,1
266.0,15.0,-14.0,-68.0,14.0,-6.0,1
265.0,14.0,-11.0,-66.0,14.0,-4.0,1
264.0,16.0,-11.0,-63.0,15.0,-4.0,1
265.0,16.0,-9.0,-62.0,16.0,-3.0,1
261.0,19.0,-8.0,-61.0,18.0,-4.0,1
268.0,16.0,-8.0,-58.0,17.0,-5.0,1
265.0,18.0,-9.0,-60.0,18.0,-4.0,1
264.0,19.0,-12.0,-61.0,17.0,-4.0,1
267.0,18.0,-10.0,-62.0,17.0,-5.0,1
264.0,17.0,-9.0,-63.0,17.0,-4.0,1
266.0,15.0,-12.0,-63.0,16.0,-1.0,1
267.0,11.0,-9.0,-65.0,15.0,-1.0,1
263.0,16.0,-11.0,-65.0,13.0,0.0,1
268.0,13.0,-9.0,-62.0,13.0,0.0,1
264.0,17.0,-13.0,-60.0,12.0,-2.0,1
264.0,16.0,-10.0,-56.0,12.0,0.0,1
264.0,13.0,-12.0,-54.0,10.0,0.0,1
266.0,18.0,-12.0,-54.0,9.0,-1.0,1
266.0,16.0,-12.0,-54.0,10.0,-3.0,1
266.0,15.0,-12.0,-54.0,8.0,-2.0,1
263.0,14.0,-9.0,-54.0,8.0,-2.0,1
266.0,17.0,-12.0,-52.0,7.0,-2.0,1
263.0,20.0,-14.0,-51.0,7.0,-1.0,1
266.0,18.0,-10.0,-48.0,7.0,-2.0,1
264.0,13.0,-11.0,-45.0,9.0,0.0,1
263.0,15.0,-12.0,-39.0,11.0,-1.0,1
264.0,15.0,-12.0,-34.0,14.0,-3.0,1
263.0,13.0,-12.0,-32.0,15.0,-4.0,1
261.0,15.0,-13.0,-28.0,19.0,-6.0,1
264.0,14.0,-7.0,-27.0,23.0,-5.0,1
265.0,17.0,-8.0,-30.0,27.0,-6.0,1
263.0,15.0,-11.0,-33.0,29.0,-6.0,1
263.0,14.0,-8.0,-36.0,28.0,-4.0,1
265.0,17.0,-6.0,-39.0,28.0,-3.0,1
263.0,15.0,-13.0,-43.0,24.0,-5.0,1
265.0,13.0,-10.0,-44.0,23.0,-4.0,1
267.0,15.0,-7.0,-45.0,22.0,-3.0,1
265.0,12.0,-8.0,-47.0,19.0,-5.0,1
262.0,13.0,-9.0,-51.0,15.0,-5.0,1
