ax,ay,az,gx,gy,gz,label
26.0,-252.0,19.0,46.0,16.0,-6.0,1
24.0,-253.0,18.0,48.0,17.0,-7.0,1
23.0,-250.0,16.0,48.0,16.0,-9.0,1
28.0,-253.0,20.0,46.0,16.0,-9.0,1
27.0,-249.0,21.0,47.0,17.0,-8.0,1
25.0,-250.0,24.0,46.0,18.0,-9.0,1
27.0,-251.0,21.0,44.0,17.0,-7.0,1
24.0,-249.0,17.0,45.0,17.0,-8.0,1
25.0,-250.0,23.0,46.0,17.0,-10.0,1
26.0,-251.0,21.0,48.0,20.0,-8.0,1
28.0,-249.0,22.0,48.0,19.0,-9.0,1
27.0,-252.0,19.0,49.0,20.0,-9.0,1
25.0,-248.0,19.0,48.0,21.0,-9.0,1
27.0,-250.0,21.0,49.0,22.0,-9.0,1
25.0,-251.0,15.0,49.0,22.0,-9.0,1
22.0,-247.0,19.0,49.0,21.0,-8.0,1
26.0,-250.0,18.0,45.0,21.0,-11.0,1
29.0,-251.0,20.0,45.0,23.0,-11.0,1
26.0,-249.0,18.0,43.0,23.0,-11.0,1
26.0,-252.0,19.0,43.0,22.0,-12.0,1
23.0,-250.0,23.0,40.0,22.0,-13.0,1
27.0,-250.0,22.0,38.0,22.0,-12.0,1
28.0,-250.0,18.0,36.0,19.0,-13.0,1
27.0,-250.0,20.0,36.0,19.0,-13.0,1
26.0,-252.0,23.0,36.0,18.0,-12.0,1
27.0,-251.0,21.0,36.0,18.0,-12.0,1
28.0,-250.0,19.0,36.0,18.0,-11.0,1
30.0,-254.0,22.0,37.0,19.0,-11.0,1
24.0,-255.0,20.0,37.0,19.0,-13.0,1
26.0,-251.0,19.0,36.0,17.0,-13.0,1
25.0,-247.0,20.0,36.0,16.0,-13.0,1
29.0,-249.0,17.0,35.0,17.0,-12.0,1
26.0,-249.0,20.0,33.0,17.0,-14.0,1
27.0,-252.0,24.0,30.0,16.0,-13.0,1
30.0,-251.0,19.0,29.0,16.0,-13.0,1
26.0,-251.0,23.0,28.0,16.0,-14.0,1
19.0,-251.0,20.0,28.0,15.0,-13.0,1
27.0,-250.0,21.0,27.0,13.0,-11.0,1
27.0,-251.0,18.0,28.0,13.0,-11.0,1
26.0,-251.0,17.0,29.0,13.0,-12.0,1
22.0,-249.0,15.0,29.0,12.0,-12.0,1
26.0,-248.0,21.0,27.0,12.0,-12.0,1
29.0,-249.0,17.0,26.0,12.0,-12.0,1
27.0,-250.0,21.0,25.0,11.0,-10.0,1
28.0,-252.0,18.0,23.0,10.0,-9.0,1
24.0,-254.0,18.0,23.0,8.0,-8.0,1
26.0,-250.0,18.0,24.0,9.0,-9.0,1
28.0,-252.0,21.0,23.0,8.0,-9.0,1
27.0,-249.0,18.0,23.0,8.0,-8.0,1
26.0,-252.0,17.0,23.0,7.0,-9.0,1
26.0,-252.0,17.0,23.0,7.0,-8.0,1
24.0,-251.0,17.0,22.0,7.0,-9.0,1
24.0,-250.0,24.0,23.0,7.0,-9.0,1
28.0,-251.0,17.0,24.0,9.0,-8.0,1
25.0,-250.0,20.0,25.0,9.0,-6.0,1
23.0,-250.0,17.0,25.0,9.0,-8.0,1
25.0,-254.0,16.0,27.0,10.0,-5.0,1
28.0,-248.0,14.0,26.0,10.0,-7.0,1
27.0,-245.0,14.0,25.0,10.0,-7.0,1
25.0,-251.0,16.0,22.0,9.0,-7.0,1
25.0,-251.0,16.0,21.0,8.0,-8.0,1
25.0,-250.0,16.0,21.0,8.0,-7.0,1
29.0,-252.0,15.0,18.0,7.0,-8.0,1
26.0,-248.0,16.0,17.0,8.0,-6.0,1
29.0,-250.0,17.0,17.0,7.0,-6.0,1
27.0,-251.0,16.0,16.0,5.0,-7.0,1
25.0,-249.0,18.0,16.0,5.0,-4.0,1
27.0,-251.0,17.0,16.0,5.0,-5.0,1
26.0,-249.0,19.0,15.0,5.0,-5.0,1
25.0,-250.0,18.0,16.0,7.0,-4.0,1
26.0,-251.0,14.0,15.0,6.0,-4.0,1
26.0,-251.0,17.0,14.0,5.0,-1.0,1
22.0,-251.0,11.0,12.0,4.0,-2.0,1
27.0,-249.0,17.0,12.0,2.0,-2.0,1
25.0,-252.0,19.0,9.0,4.0,-1.0,1
29.0,-248.0,20.0,7.0,5.0,0.0,1
27.0,-250.0,16.0,3.0,5.0,0.0,1
26.0,-249.0,17.0,0.0,5.0,0.0,1
24.0,-248.0,27.0,-3.0,6.0,-1.0,1
25.0,-254.0,18.0,-5.0,6.0,1.0,1
29.0,-253.0,18.0,-7.0,7.0,2.0,1
24.0,-251.0,20.0,-6.0,7.0,0.0,1
29.0,-252.0,18.0,-6.0,7.0,2.0,1
28.0,-251.0,19.0,-3.0,8.0,1.0,1
27.0,-252.0,19.0,-1.0,7.0,1.0,1
28.0,-253.0,14.0,0.0,5.0,3.0,1
25.0,-250.0,17.0,2.0,5.0,2.0,1
27.0,-251.0,16.0,2.0,5.0,1.0,1
26.0,-254.0,17.0,1.0,7.0,1.0,1
26.0,-251.0,15.0,1.0,9.0,0.0,1
23.0,-248.0,16.0,-1.0,10.0,-1.0,1
24.0,-248.0,18.0,-4.0,11.0,0.0,1
27.0,-249.0,16.0,-6.0,13.0,-2.0,1
24.0,-250.0,20.0,-7.0,13.0,-3.0,1
25.0,-250.0,18.0,-8.0,15.0,-2.0,1
27.0,-254.0,17.0,-8.0,15.0,-1.0,1
24.0,-252.0,19.0,-6.0,17.0,-3.0,1
28.0,-249.0,15.0,-3.0,16.0,-2.0,1
26.0,-248.0,21.0,-1.0,16.0,-4.0,1
27.0,-256.0,18.0,1.0,15.0,-4.0,1
26.0,-250.0,15.0,4.0,15.0,-6.0,1
24.0,-251.0,14.0,5.0,15.0,-7.0,1
23.0,-250.0,12.0,5.0,14.0,-8.0,1
24.0,-249.0,13.0,5.0,12.0,-11.0,1
24.0,-247.0,14.0,4.0,13.0,-10.0,1
26.0,-249.0,17.0,3.0,14.0,-9.0,1
24.0,-252.0,12.0,2.0,14.0,-11.0,1
23.0,-250.0,16.0,0.0,15.0,-12.0,1
25.0,-249.0,12.0,1.0,14.0,-14.0,1
22.0,-249.0,17.0,2.0,14.0,-16.0,1
21.0,-251.0,13.0,1.0,14.0,-17.0,1
23.0,-250.0,12.0,1.0,13.0,-17.0,1
27.0,-251.0,12.0,1.0,14.0,-18.0,1
21.0,-248.0,14.0,3.0,13.0,-17.0,1
24.0,-251.0,10.0,3.0,13.0,-19.0,1
21.0,-249.0,9.0,5.0,13.0,-19.0,1
22.0,-252.0,11.0,5.0,12.0,-18.0,1
21.0,-249.0,10.0,6.0,12.0,-19.0,1
23.0,-251.0,12.0,7.0,11.0,-20.0,1
26.0,-254.0,12.0,8.0,10.0,-20.0,1
26.0,-251.0,12.0,7.0,9.0,-20.0,1
25.0,-251.0,3.0,8.0,7.0,-21.0,1
26.0,-249.0,12.0,9.0,5.0,-20.0,1
24.0,-251.0,13.0,9.0,6.0,-20.0,1
23.0,-252.0,16.0,7.0,6.0,-21.0,1
24.0,-249.0,11.0,7.0,5.0,-19.0,1
26.0,-250.0,12.0,7.0,3.0,-21.0,1
24.0,-247.0,11.0,8.0,4.0,-19.0,1
29.0,-252.0,13.0,8.0,3.0,-19.0,1
30.0,-250.0,18.0,8.0,2.0,-20.0,1
28.0,-249.0,12.0,7.0,2.0,-19.0,1
27.0,-247.0,16.0,8.0,3.0,-15.0,1
28.0,-248.0,14.0,8.0,3.0,-16.0,1
27.0,-248.0,11.0,8.0,3.0,-15.0,1
31.0,-252.0,13.0,7.0,3.0,-15.0,1
28.0,-253.0,12.0,8.0,3.0,-13.0,1
31.0,-252.0,12.0,7.0,4.0,-12.0,1
35.0,-253.0,13.0,8.0,3.0,-12.0,1
28.0,-252.0,15.0,8.0,1.0,-11.0,1
28.0,-252.0,9.0,9.0,0.0,-11.0,1
31.0,-251.0,12.0,9.0,0.0,-11.0,1
29.0,-251.0,12.0,8.0,-1.0,-11.0,1
25.0,-249.0,9.0,8.0,-1.0,-9.0,1
30.0,-251.0,10.0,6.0,0.0,-8.0,1
29.0,-254.0,15.0,8.0,-1.0,-8.0,1
26.0,-248.0,13.0,9.0,-1.0,-7.0,1
30.0,-250.0,12.0,11.0,-1.0,-9.0,1
28.0,-251.0,13.0,12.0,-1.0,-10.0,1
29.0,-253.0,12.0,13.0,-2.0,-10.0,1
29.0,-253.0,14.0,14.0,-2.0,-10.0,1
29.0,-253.0,10.0,16.0,-3.0,-10.0,1
26.0,-252.0,12.0,19.0,-3.0,-9.0,1
29.0,-253.0,13.0,22.0,-2.0,-11.0,1
29.0,-250.0,12.0,26.0,-2.0,-11.0,1
27.0,-255.0,14.0,29.0,-2.0,-10.0,1
28.0,-252.0,13.0,31.0,-2.0,-11.0,1
27.0,-253.0,13.0,35.0,-1.0,-12.0,1
28.0,-255.0,10.0,38.0,-2.0,-12.0,1
27.0,-249.0,10.0,41.0,-1.0,-13.0,1
28.0,-253.0,12.0,45.0,-2.0,-13.0,1
27.0,-250.0,17.0,48.0,-1.0,-12.0,1
28.0,-254.0,10.0,50.0,-1.0,-13.0,1
22.0,-252.0,12.0,51.0,0.0,-14.0,1
22.0,-252.0,11.0,55.0,2.0,-15.0,1
26.0,-253.0,13.0,56.0,3.0,-16.0,1
27.0,-250.0,9.0,58.0,4.0,-16.0,1
26.0,-254.0,12.0,59.0,6.0,-17.0,1
25.0,-250.0,12.0,63.0,7.0,-18.0,1
27.0,-251.0,13.0,65.0,9.0,-18.0,1
26.0,-251.0,12.0,70.0,8.0,-19.0,1
28.0,-251.0,10.0,71.0,9.0,-19.0,1
26.0,-252.0,8.0,74.0,11.0,-20.0,1
22.0,-252.0,10.0,74.0,12.0,-20.0,1
25.0,-255.0,11.0,77.0,12.0,-22.0,1
22.0,-252.0,10.0,79.0,13.0,-18.0,1
23.0,-252.0,12.0,80.0,11.0,-19.0,1
26.0,-252.0,10.0,79.0,12.0,-21.0,1
24.0,-252.0,14.0,81.0,10.0,-23.0,1
26.0,-253.0,12.0,81.0,10.0,-23.0,1
27.0,-251.0,14.0,83.0,11.0,-24.0,1
23.0,-251.0,11.0,83.0,11.0,-24.0,1
27.0,-253.0,10.0,83.0,10.0,-23.0,1
26.0,-253.0,10.0,83.0,11.0,-25.0,1
23.0,-253.0,13.0,83.0,10.0,-26.0,1
27.0,-253.0,11.0,83.0,10.0,-28.0,1
27.0,-254.0,12.0,82.0,9.0,-30.0,1
25.0,-252.0,12.0,81.0,8.0,-30.0,1
27.0,-251.0,13.0,82.0,9.0,-29.0,1
25.0,-248.0,11.0,81.0,11.0,-29.0,1
26.0,-251.0,16.0,82.0,11.0,-30.0,1
28.0,-252.0,13.0,83.0,13.0,-33.0,1
27.0,-250.0,14.0,84.0,13.0,-33.0,1
27.0,-252.0,13.0,83.0,14.0,-33.0,1
6.0,-250.0,9.0,84.0,15.0,-33.0,1
33.0,-255.0,11.0,84.0,16.0,-33.0,1
25.0,-252.0,15.0,86.0,15.0,-34.0,1
27.0,-253.0,14.0,87.0,16.0,-34.0,1
28.0,-251.0,13.0,88.0,16.0,-33.0,1
28.0,-250.0,11.0,88.0,17.0,-31.0,1
27.0,-251.0,14.0,88.0,15.0,-29.0,1
28.0,-251.0,15.0,87.0,16.0,-30.0,1
25.0,-249.0,17.0,87.0,14.0,-30.0,1
29.0,-252.0,13.0,86.0,14.0,-29.0,1
26.0,-249.0,16.0,87.0,13.0,-26.0,1
27.0,-253.0,14.0,84.0,15.0,-26.0,1
29.0,-250.0,15.0,82.0,13.0,-26.0,1
25.0,-249.0,13.0,80.0,15.0,-27.0,1
30.0,-252.0,15.0,79.0,13.0,-27.0,1
27.0,-248.0,14.0,78.0,14.0,-23.0,1
28.0,-249.0,15.0,78.0,15.0,-25.0,1
29.0,-248.0,15.0,76.0,15.0,-27.0,1
28.0,-251.0,14.0,75.0,14.0,-28.0,1
27.0,-248.0,13.0,75.0,15.0,-26.0,1
29.0,-250.0,13.0,76.0,15.0,-24.0,1
30.0,-251.0,14.0,77.0,15.0,-26.0,1
29.0,-252.0,16.0,80.0,16.0,-28.0,1
28.0,-252.0,14.0,81.0,17.0,-27.0,1
30.0,-249.0,12.0,84.0,17.0,-27.0,1
31.0,-250.0,12.0,83.0,16.0,-27.0,1
27.0,-251.0,15.0,84.0,17.0,-27.0,1
28.0,-249.0,16.0,82.0,17.0,-27.0,1
29.0,-251.0,16.0,81.0,17.0,-25.0,1
28.0,-248.0,12.0,78.0,16.0,-25.0,1
27.0,-250.0,14.0,76.0,17.0,-23.0,1
26.0,-251.0,15.0,73.0,17.0,-23.0,1
28.0,-249.0,13.0,70.0,17.0,-22.0,1
32.0,-251.0,14.0,68.0,16.0,-22.0,1
27.0,-247.0,13.0,66.0,15.0,-21.0,1
27.0,-251.0,13.0,65.0,15.0,-20.0,1
27.0,-247.0,18.0,66.0,12.0,-20.0,1
28.0,-249.0,16.0,65.0,13.0,-21.0,1
29.0,-248.0,18.0,67.0,12.0,-21.0,1
30.0,-248.0,16.0,65.0,11.0,-24.0,1
27.0,-250.0,16.0,64.0,10.0,-24.0,1
26.0,-245.0,15.0,64.0,9.0,-26.0,1
28.0,-250.0,20.0,62.0,7.0,-25.0,1
27.0,-249.0,15.0,60.0,4.0,-25.0,1
26.0,-251.0,14.0,58.0,2.0,-23.0,1
28.0,-249.0,14.0,54.0,0.0,-22.0,1
26.0,-250.0,14.0,50.0,-4.0,-23.0,1
27.0,-248.0,14.0,44.0,-7.0,-21.0,1
29.0,-249.0,13.0,36.0,-11.0,-20.0,1
28.0,-246.0,11.0,26.0,-14.0,-20.0,1
29.0,-245.0,10.0,15.0,-16.0,-19.0,1
27.0,-245.0,10.0,3.0,-19.0,-18.0,1
28.0,-246.0,14.0,-8.0,-21.0,-15.0,1
31.0,-249.0,16.0,-18.0,-20.0,-13.0,1
34.0,-247.0,17.0,-27.0,-19.0,-12.0,1
32.0,-250.0,16.0,-35.0,-18.0,-10.0,1
31.0,-252.0,16.0,-41.0,-15.0,-10.0,1
34.0,-252.0,14.0,-43.0,-13.0,-9.0,1
35.0,-252.0,15.0,-43.0,-8.0,-7.0,1
33.0,-254.0,14.0,-41.0,-5.0,-5.0,1
32.0,-254.0,17.0,-39.0,0.0,-4.0,1
38.0,-256.0,16.0,-35.0,5.0,-3.0,1
33.0,-256.0,16.0,-31.0,10.0,-3.0,1
34.0,-252.0,15.0,-26.0,13.0,-1.0,1
32.0,-253.0,17.0,-22.0,18.0,-3.0,1
32.0,-256.0,19.0,-17.0,22.0,-2.0,1
30.0,-255.0,17.0,-11.0,27.0,-1.0,1
34.0,-255.0,10.0,-5.0,29.0,-1.0,1
28.0,-255.0,14.0,2.0,32.0,0.0,1
31.0,-254.0,11.0,7.0,34.0,-1.0,1
28.0,-253.0,13.0,10.0,35.0,0.0,1
26.0,-254.0,15.0,14.0,35.0,1.0,1
27.0,-252.0,14.0,15.0,33.0,3.0,1
26.0,-251.0,11.0,14.0,33.0,5.0,1
25.0,-252.0,11.0,14.0,31.0,7.0,1
25.0,-251.0,11.0,14.0,30.0,5.0,1
24.0,-252.0,14.0,15.0,27.0,5.0,1
24.0,-248.0,13.0,14.0,25.0,4.0,1
23.0,-248.0,14.0,13.0,23.0,4.0,1
27.0,-250.0,19.0,15.0,21.0,1.0,1
25.0,-250.0,11.0,15.0,17.0,0.0,1
24.0,-247.0,19.0,14.0,17.0,-3.0,1
24.0,-249.0,11.0,14.0,15.0,-6.0,1
24.0,-247.0,11.0,12.0,12.0,-5.0,1
25.0,-248.0,11.0,11.0,11.0,-7.0,1
25.0,-247.0,10.0,9.0,10.0,-6.0,1
23.0,-249.0,10.0,6.0,11.0,-9.0,1
27.0,-251.0,9.0,4.0,12.0,-11.0,1
24.0,-251.0,8.0,2.0,13.0,-13.0,1
24.0,-254.0,13.0,3.0,15.0,-15.0,1
24.0,-252.0,9.0,6.0,17.0,-17.0,1
23.0,-252.0,8.0,11.0,19.0,-19.0,1
26.0,-258.0,12.0,15.0,19.0,-21.0,1
23.0,-250.0,9.0,20.0,21.0,-23.0,1
24.0,-254.0,10.0,25.0,21.0,-24.0,1
27.0,-255.0,7.0,32.0,21.0,-24.0,1
25.0,-254.0,6.0,39.0,21.0,-25.0,1
26.0,-251.0,10.0,45.0,19.0,-26.0,1
24.0,-250.0,9.0,50.0,17.0,-27.0,1
22.0,-252.0,9.0,54.0,15.0,-28.0,1
25.0,-253.0,9.0,59.0,12.0,-28.0,1
30.0,-250.0,9.0,61.0,11.0,-27.0,1
26.0,-250.0,8.0,63.0,10.0,-26.0,1
27.0,-247.0,8.0,63.0,7.0,-26.0,1
26.0,-248.0,8.0,63.0,4.0,-28.0,1
27.0,-248.0,8.0,63.0,4.0,-28.0,1
29.0,-250.0,8.0,63.0,4.0,-28.0,1
32.0,-252.0,9.0,61.0,2.0,-28.0,1
29.0,-252.0,11.0,62.0,-1.0,-29.0,1
30.0,-249.0,9.0,62.0,0.0,-27.0,1
30.0,-253.0,9.0,63.0,1.0,-26.0,1
27.0,-250.0,8.0,63.0,0.0,-24.0,1
29.0,-250.0,12.0,64.0,0.0,-25.0,1
28.0,-251.0,10.0,63.0,0.0,-25.0,1
35.0,-253.0,12.0,64.0,-1.0,-24.0,1
30.0,-251.0,9.0,64.0,-2.0,-23.0,1
29.0,-254.0,12.0,64.0,-2.0,-24.0,1
32.0,-250.0,8.0,62.0,-3.0,-23.0,1
32.0,-252.0,10.0,61.0,-4.0,-23.0,1
32.0,-251.0,11.0,59.0,-4.0,-23.0,1
31.0,-249.0,9.0,58.0,-4.0,-23.0,1
31.0,-250.0,13.0,58.0,-5.0,-25.0,1
30.0,-253.0,11.0,58.0,-5.0,-27.0,1
30.0,-248.0,10.0,57.0,-6.0,-27.0,1
32.0,-248.0,12.0,57.0,-7.0,-28.0,1
30.0,-248.0,12.0,56.0,-7.0,-31.0,1
29.0,-251.0,15.0,55.0,-7.0,-33.0,1
29.0,-250.0,15.0,55.0,-6.0,-35.0,1
28.0,-250.0,15.0,55.0,-4.0,-37.0,1
28.0,-252.0,14.0,55.0,-5.0,-39.0,1
24.0,-249.0,15.0,57.0,-4.0,-41.0,1
36.0,-251.0,13.0,58.0,-3.0,-42.0,1
26.0,-247.0,13.0,59.0,-3.0,-41.0,1
29.0,-250.0,16.0,61.0,-3.0,-42.0,1
28.0,-252.0,15.0,63.0,-3.0,-43.0,1
28.0,-248.0,16.0,63.0,-1.0,-43.0,1
25.0,-251.0,15.0,64.0,-1.0,-44.0,1
26.0,-251.0,16.0,65.0,-2.0,-42.0,1
28.0,-249.0,13.0,65.0,-2.0,-42.0,1
28.0,-250.0,19.0,65.0,-3.0,-43.0,1
28.0,-253.0,14.0,65.0,-2.0,-44.0,1
29.0,-249.0,12.0,64.0,-4.0,-43.0,1
25.0,-251.0,15.0,64.0,-5.0,-42.0,1
26.0,-253.0,14.0,64.0,-7.0,-40.0,1
29.0,-252.0,17.0,64.0,-7.0,-42.0,1
25.0,-249.0,12.0,65.0,-6.0,-41.0,1
33.0,-252.0,15.0,64.0,-7.0,-41.0,1
30.0,-250.0,16.0,65.0,-7.0,-41.0,1
30.0,-252.0,14.0,67.0,-8.0,-40.0,1
27.0,-253.0,13.0,67.0,-5.0,-41.0,1
29.0,-250.0,12.0,67.0,-6.0,-42.0,1
30.0,-248.0,12.0,66.0,-4.0,-40.0,1
27.0,-251.0,13.0,65.0,-3.0,-39.0,1
29.0,-244.0,14.0,64.0,-4.0,-39.0,1
32.0,-252.0,9.0,62.0,-3.0,-38.0,1
31.0,-247.0,13.0,60.0,-2.0,-37.0,1
30.0,-252.0,11.0,60.0,0.0,-36.0,1
32.0,-248.0,10.0,57.0,0.0,-34.0,1
30.0,-253.0,11.0,56.0,1.0,-35.0,1
29.0,-250.0,13.0,56.0,2.0,-34.0,1
34.0,-252.0,9.0,54.0,2.0,-32.0,1
31.0,-250.0,11.0,54.0,3.0,-33.0,1
31.0,-250.0,12.0,54.0,3.0,-32.0,1
30.0,-251.0,7.0,55.0,3.0,-31.0,1
32.0,-253.0,11.0,53.0,4.0,-29.0,1
33.0,-250.0,10.0,53.0,4.0,-28.0,1
32.0,-248.0,10.0,54.0,4.0,-25.0,1
33.0,-252.0,10.0,54.0,6.0,-24.0,1
36.0,-251.0,9.0,55.0,6.0,-22.0,1
35.0,-249.0,9.0,55.0,7.0,-20.0,1
36.0,-253.0,11.0,56.0,8.0,-18.0,1
34.0,-249.0,9.0,58.0,7.0,-19.0,1
35.0,-251.0,12.0,60.0,7.0,-19.0,1
38.0,-252.0,9.0,60.0,7.0,-17.0,1
37.0,-252.0,9.0,62.0,9.0,-18.0,1
32.0,-252.0,9.0,63.0,10.0,-16.0,1
36.0,-249.0,9.0,62.0,10.0,-16.0,1
35.0,-250.0,9.0,61.0,9.0,-15.0,1
34.0,-250.0,9.0,59.0,10.0,-14.0,1
36.0,-249.0,9.0,58.0,10.0,-14.0,1
36.0,-251.0,11.0,56.0,10.0,-13.0,1
31.0,-249.0,11.0,56.0,11.0,-12.0,1
32.0,-249.0,10.0,56.0,13.0,-11.0,1
33.0,-249.0,13.0,56.0,13.0,-12.0,1
34.0,-250.0,9.0,55.0,14.0,-11.0,1
32.0,-251.0,9.0,56.0,17.0,-9.0,1
34.0,-249.0,14.0,59.0,18.0,-9.0,1
34.0,-251.0,10.0,62.0,19.0,-9.0,1
33.0,-250.0,12.0,63.0,21.0,-8.0,1
35.0,-250.0,13.0,64.0,21.0,-7.0,1
30.0,-248.0,13.0,67.0,21.0,-7.0,1
34.0,-251.0,13.0,69.0,21.0,-7.0,1
32.0,-249.0,12.0,69.0,22.0,-7.0,1
32.0,-252.0,10.0,68.0,20.0,-7.0,1
30.0,-249.0,15.0,67.0,21.0,-5.0,1
33.0,-252.0,17.0,65.0,19.0,-6.0,1
28.0,-249.0,13.0,63.0,19.0,-5.0,1
30.0,-248.0,17.0,60.0,17.0,-5.0,1
29.0,-247.0,16.0,59.0,18.0,-8.0,1
29.0,-251.0,15.0,57.0,19.0,-7.0,1
31.0,-252.0,13.0,57.0,20.0,-7.0,1
28.0,-249.0,15.0,57.0,20.0,-8.0,1
31.0,-250.0,11.0,56.0,20.0,-8.0,1
29.0,-254.0,17.0,55.0,20.0,-11.0,1
26.0,-250.0,13.0,54.0,19.0,-13.0,1
28.0,-249.0,18.0,54.0,19.0,-16.0,1
30.0,-253.0,13.0,53.0,19.0,-17.0,1
30.0,-251.0,14.0,51.0,21.0,-18.0,1
27.0,-251.0,14.0,50.0,22.0,-21.0,1
25.0,-252.0,16.0,50.0,22.0,-21.0,1
28.0,-253.0,12.0,51.0,22.0,-23.0,1
31.0,-251.0,16.0,53.0,21.0,-24.0,1
31.0,-256.0,16.0,56.0,24.0,-25.0,1
29.0,-254.0,14.0,57.0,24.0,-25.0,1
26.0,-252.0,15.0,59.0,24.0,-24.0,1
26.0,-252.0,11.0,60.0,22.0,-23.0,1
29.0,-243.0,10.0,60.0,22.0,-21.0,1
27.0,-247.0,14.0,59.0,24.0,-20.0,1
26.0,-250.0,10.0,57.0,22.0,-19.0,1
30.0,-250.0,11.0,54.0,22.0,-19.0,1
28.0,-253.0,12.0,51.0,18.0,-17.0,1
28.0,-252.0,11.0,51.0,16.0,-18.0,1
27.0,-252.0,13.0,49.0,18.0,-19.0,1
26.0,-248.0,14.0,47.0,17.0,-17.0,1
25.0,-249.0,9.0,47.0,16.0,-17.0,1
26.0,-250.0,12.0,46.0,15.0,-16.0,1
28.0,-256.0,12.0,46.0,12.0,-15.0,1
26.0,-250.0,12.0,46.0,11.0,-16.0,1
32.0,-252.0,12.0,45.0,10.0,-16.0,1
31.0,-251.0,15.0,46.0,9.0,-17.0,1
31.0,-252.0,10.0,47.0,8.0,-18.0,1
30.0,-250.0,11.0,46.0,8.0,-20.0,1
35.0,-250.0,14.0,47.0,7.0,-19.0,1
31.0,-250.0,10.0,46.0,6.0,-18.0,1
31.0,-251.0,11.0,47.0,7.0,-19.0,1
34.0,-247.0,12.0,46.0,6.0,-18.0,1
34.0,-253.0,10.0,47.0,6.0,-18.0,1
36.0,-248.0,13.0,46.0,6.0,-16.0,1
34.0,-251.0,11.0,48.0,7.0,-17.0,1
32.0,-248.0,12.0,49.0,8.0,-16.0,1
32.0,-250.0,9.0,48.0,7.0,-15.0,1
33.0,-252.0,10.0,48.0,7.0,-15.0,1
32.0,-249.0,9.0,50.0,8.0,-16.0,1
31.0,-247.0,11.0,51.0,8.0,-15.0,1
34.0,-250.0,12.0,51.0,7.0,-16.0,1
36.0,-245.0,9.0,52.0,8.0,-15.0,1
34.0,-252.0,10.0,52.0,9.0,-16.0,1
32.0,-249.0,13.0,52.0,10.0,-16.0,1
36.0,-249.0,9.0,52.0,11.0,-16.0,1
37.0,-250.0,9.0,53.0,11.0,-16.0,1
36.0,-251.0,12.0,53.0,11.0,-16.0,1
35.0,-252.0,10.0,54.0,11.0,-16.0,1
34.0,-248.0,12.0,53.0,11.0,-17.0,1
34.0,-247.0,10.0,53.0,11.0,-16.0,1
35.0,-252.0,15.0,52.0,12.0,-17.0,1
36.0,-250.0,9.0,53.0,13.0,-16.0,1
35.0,-248.0,8.0,55.0,14.0,-15.0,1
35.0,-248.0,14.0,55.0,14.0,-14.0,1
31.0,-250.0,13.0,55.0,15.0,-14.0,1
31.0,-251.0,10.0,56.0,17.0,-16.0,1
33.0,-248.0,15.0,58.0,18.0,-15.0,1
31.0,-251.0,15.0,58.0,19.0,-14.0,1
35.0,-253.0,16.0,58.0,19.0,-13.0,1
33.0,-252.0,18.0,54.0,19.0,-13.0,1
32.0,-252.0,17.0,55.0,21.0,-12.0,1
32.0,-251.0,11.0,52.0,21.0,-11.0,1
34.0,-251.0,14.0,49.0,23.0,-11.0,1
27.0,-251.0,14.0,48.0,23.0,-12.0,1
31.0,-252.0,16.0,50.0,24.0,-11.0,1
30.0,-252.0,11.0,51.0,25.0,-12.0,1
30.0,-249.0,17.0,51.0,25.0,-12.0,1
31.0,-253.0,15.0,53.0,27.0,-13.0,1
32.0,-253.0,15.0,53.0,27.0,-11.0,1
33.0,-253.0,12.0,55.0,29.0,-12.0,1
28.0,-253.0,15.0,55.0,28.0,-11.0,1
30.0,-253.0,15.0,56.0,29.0,-11.0,1
30.0,-252.0,11.0,55.0,26.0,-12.0,1
31.0,-253.0,14.0,53.0,25.0,-11.0,1
29.0,-251.0,15.0,54.0,23.0,-9.0,1
26.0,-251.0,15.0,54.0,20.0,-8.0,1
29.0,-250.0,14.0,53.0,20.0,-7.0,1
29.0,-252.0,14.0,53.0,18.0,-7.0,1
29.0,-250.0,14.0,52.0,16.0,-6.0,1
33.0,-252.0,12.0,50.0,14.0,-5.0,1
34.0,-253.0,12.0,50.0,13.0,-5.0,1
29.0,-252.0,13.0,52.0,10.0,-5.0,1
31.0,-249.0,12.0,54.0,8.0,-5.0,1
28.0,-250.0,17.0,55.0,7.0,-6.0,1
30.0,-248.0,14.0,57.0,6.0,-5.0,1
28.0,-250.0,12.0,61.0,5.0,-6.0,1
33.0,-250.0,16.0,63.0,3.0,-5.0,1
30.0,-251.0,17.0,65.0,3.0,-4.0,1
30.0,-250.0,14.0,65.0,3.0,-5.0,1
31.0,-249.0,16.0,65.0,3.0,-5.0,1
34.0,-252.0,14.0,64.0,3.0,-5.0,1
31.0,-249.0,14.0,63.0,3.0,-5.0,1
32.0,-252.0,16.0,62.0,3.0,-6.0,1
31.0,-248.0,18.0,62.0,4.0,-6.0,1
33.0,-249.0,18.0,60.0,5.0,-5.0,1
31.0,-253.0,14.0,60.0,6.0,-5.0,1
32.0,-248.0,16.0,59.0,5.0,-6.0,1
34.0,-255.0,12.0,60.0,5.0,-6.0,1
34.0,-250.0,13.0,61.0,6.0,-7.0,1
33.0,-250.0,17.0,63.0,7.0,-6.0,1
36.0,-251.0,14.0,62.0,6.0,-5.0,1
31.0,-251.0,11.0,62.0,6.0,-7.0,1
32.0,-251.0,15.0,60.0,6.0,-6.0,1
31.0,-250.0,13.0,60.0,6.0,-5.0,1
32.0,-248.0,9.0,59.0,7.0,-5.0,1
30.0,-250.0,12.0,59.0,6.0,-5.0,1
32.0,-250.0,13.0,57.0,6.0,-5.0,1
28.0,-251.0,12.0,55.0,6.0,-5.0,1
31.0,-250.0,12.0,52.0,6.0,-8.0,1
31.0,-250.0,10.0,52.0,8.0,-9.0,1
31.0,-250.0,12.0,51.0,8.0,-8.0,1
32.0,-249.0,14.0,51.0,9.0,-11.0,1
34.0,-251.0,12.0,51.0,8.0,-12.0,1
32.0,-252.0,14.0,51.0,11.0,-13.0,1
33.0,-251.0,13.0,50.0,11.0,-14.0,1
31.0,-253.0,17.0,50.0,13.0,-17.0,1
31.0,-250.0,12.0,51.0,13.0,-17.0,1
32.0,-250.0,15.0,50.0,16.0,-17.0,1
29.0,-252.0,15.0,53.0,17.0,-19.0,1
32.0,-249.0,14.0,55.0,18.0,-21.0,1
33.0,-251.0,20.0,60.0,18.0,-21.0,1
31.0,-253.0,15.0,64.0,21.0,-22.0,1
31.0,-252.0,16.0,68.0,22.0,-24.0,1
31.0,-251.0,13.0,73.0,23.0,-29.0,1
29.0,-252.0,12.0,78.0,24.0,-29.0,1
30.0,-251.0,11.0,82.0,26.0,-29.0,1
34.0,-251.0,12.0,87.0,26.0,-29.0,1
27.0,-252.0,13.0,92.0,26.0,-30.0,1
32.0,-253.0,14.0,95.0,26.0,-30.0,1
33.0,-250.0,9.0,97.0,25.0,-30.0,1
30.0,-249.0,9.0,97.0,24.0,-27.0,1
35.0,-251.0,9.0,97.0,22.0,-26.0,1
31.0,-250.0,12.0,97.0,21.0,-23.0,1
32.0,-249.0,14.0,93.0,20.0,-21.0,1
30.0,-247.0,14.0,90.0,18.0,-22.0,1
31.0,-245.0,15.0,85.0,16.0,-17.0,1
31.0,-248.0,15.0,79.0,15.0,-16.0,1
31.0,-243.0,16.0,71.0,16.0,-16.0,1
29.0,-249.0,18.0,65.0,15.0,-15.0,1
30.0,-246.0,15.0,57.0,15.0,-15.0,1
30.0,-244.0,16.0,53.0,15.0,-16.0,1
30.0,-248.0,16.0,48.0,14.0,-13.0,1
32.0,-250.0,15.0,46.0,15.0,-13.0,1
30.0,-250.0,16.0,45.0,16.0,-13.0,1
31.0,-252.0,14.0,46.0,15.0,-12.0,1
30.0,-251.0,13.0,48.0,15.0,-14.0,1
34.0,-249.0,17.0,49.0,15.0,-14.0,1
28.0,-252.0,14.0,53.0,13.0,-14.0,1
33.0,-254.0,14.0,56.0,13.0,-12.0,1
34.0,-251.0,16.0,60.0,13.0,-11.0,1
33.0,-247.0,14.0,62.0,12.0,-10.0,1
34.0,-247.0,14.0,64.0,11.0,-11.0,1
33.0,-253.0,13.0,65.0,9.0,-12.0,1
33.0,-251.0,11.0,66.0,8.0,-11.0,1
35.0,-249.0,18.0,66.0,7.0,-12.0,1
37.0,-252.0,15.0,63.0,5.0,-10.0,1
35.0,-251.0,17.0,61.0,5.0,-8.0,1
34.0,-247.0,11.0,59.0,4.0,-8.0,1
33.0,-248.0,12.0,59.0,4.0,-6.0,1
32.0,-247.0,12.0,57.0,6.0,-6.0,1
33.0,-251.0,14.0,56.0,6.0,-6.0,1
36.0,-247.0,10.0,55.0,6.0,-4.0,1
35.0,-248.0,13.0,54.0,5.0,-6.0,1
30.0,-251.0,15.0,54.0,6.0,-6.0,1
34.0,-250.0,12.0,52.0,5.0,-7.0,1
35.0,-250.0,12.0,49.0,7.0,-6.0,1
34.0,-250.0,12.0,47.0,8.0,-7.0,1
35.0,-251.0,16.0,46.0,9.0,-7.0,1
32.0,-251.0,14.0,46.0,12.0,-7.0,1
34.0,-248.0,17.0,46.0,13.0,-5.0,1
32.0,-251.0,11.0,46.0,14.0,-5.0,1
30.0,-251.0,14.0,46.0,16.0,-6.0,1
34.0,-248.0,19.0,47.0,15.0,-7.0,1
30.0,-249.0,16.0,48.0,17.0,-4.0,1
31.0,-250.0,14.0,50.0,16.0,-5.0,1
33.0,-251.0,12.0,53.0,17.0,-5.0,1
31.0,-250.0,17.0,52.0,19.0,-5.0,1
36.0,-254.0,11.0,55.0,19.0,-6.0,1
33.0,-254.0,13.0,57.0,20.0,-6.0,1
31.0,-250.0,14.0,59.0,20.0,-7.0,1
33.0,-254.0,17.0,61.0,20.0,-7.0,1
29.0,-249.0,14.0,62.0,23.0,-11.0,1
33.0,-251.0,12.0,61.0,23.0,-10.0,1
31.0,-250.0,14.0,59.0,22.0,-9.0,1
33.0,-249.0,15.0,58.0,23.0,-10.0,1
31.0,-250.0,18.0,57.0,23.0,-9.0,1
32.0,-248.0,17.0,55.0,23.0,-8.0,1
31.0,-253.0,15.0,54.0,22.0,-8.0,1
30.0,-248.0,18.0,56.0,21.0,-8.0,1
32.0,-253.0,19.0,57.0,20.0,-8.0,1
31.0,-254.0,19.0,62.0,20.0,-6.0,1
29.0,-252.0,16.0,65.0,19.0,-8.0,1
31.0,-253.0,12.0,68.0,18.0,-7.0,1
32.0,-254.0,18.0,68.0,16.0,-7.0,1
33.0,-252.0,12.0,68.0,14.0,-5.0,1
33.0,-250.0,15.0,68.0,13.0,-4.0,1
30.0,-249.0,14.0,65.0,10.0,-5.0,1
33.0,-247.0,21.0,63.0,10.0,-4.0,1
31.0,-249.0,14.0,63.0,10.0,-5.0,1
32.0,-252.0,17.0,62.0,11.0,-5.0,1
31.0,-250.0,17.0,61.0,11.0,-5.0,1
29.0,-248.0,16.0,62.0,13.0,-8.0,1
32.0,-250.0,20.0,62.0,13.0,-6.0,1
32.0,-250.0,19.0,64.0,16.0,-8.0,1
30.0,-249.0,14.0,64.0,16.0,-9.0,1
31.0,-249.0,17.0,64.0,15.0,-9.0,1
28.0,-247.0,16.0,64.0,14.0,-11.0,1
34.0,-251.0,16.0,63.0,15.0,-10.0,1
33.0,-250.0,15.0,61.0,14.0,-9.0,1
30.0,-248.0,16.0,59.0,13.0,-10.0,1
29.0,-247.0,18.0,56.0,13.0,-9.0,1
32.0,-249.0,17.0,53.0,13.0,-9.0,1
32.0,-252.0,11.0,53.0,11.0,-9.0,1
29.0,-253.0,14.0,50.0,11.0,-7.0,1
34.0,-251.0,15.0,51.0,12.0,-7.0,1
37.0,-260.0,5.0,52.0,11.0,-5.0,1
30.0,-249.0,16.0,53.0,11.0,-6.0,1
30.0,-251.0,14.0,55.0,11.0,-6.0,1
33.0,-250.0,12.0,56.0,12.0,-6.0,1
33.0,-251.0,14.0,56.0,12.0,-7.0,1
32.0,-248.0,14.0,55.0,13.0,-5.0,1
32.0,-249.0,17.0,58.0,13.0,-6.0,1
31.0,-253.0,14.0,58.0,14.0,-6.0,1
36.0,-248.0,14.0,58.0,14.0,-7.0,1
33.0,-250.0,12.0,59.0,15.0,-7.0,1
30.0,-249.0,11.0,62.0,14.0,-8.0,1
32.0,-250.0,12.0,62.0,16.0,-7.0,1
33.0,-249.0,14.0,62.0,16.0,-10.0,1
31.0,-252.0,11.0,65.0,17.0,-10.0,1
32.0,-249.0,14.0,64.0,18.0,-9.0,1
30.0,-249.0,11.0,64.0,20.0,-9.0,1
31.0,-251.0,13.0,66.0,19.0,-10.0,1
32.0,-250.0,14.0,67.0,21.0,-9.0,1
33.0,-250.0,16.0,68.0,22.0,-10.0,1
35.0,-253.0,16.0,69.0,22.0,-9.0,1
30.0,-248.0,13.0,72.0,22.0,-9.0,1
34.0,-252.0,14.0,74.0,22.0,-7.0,1
34.0,-249.0,12.0,75.0,23.0,-8.0,1
33.0,-249.0,12.0,76.0,23.0,-7.0,1
32.0,-249.0,16.0,77.0,20.0,-7.0,1
32.0,-247.0,12.0,74.0,20.0,-6.0,1
31.0,-249.0,13.0,71.0,19.0,-6.0,1
31.0,-246.0,12.0,69.0,17.0,-6.0,1
31.0,-251.0,13.0,67.0,16.0,-5.0,1
28.0,-251.0,16.0,67.0,15.0,-5.0,1
33.0,-250.0,14.0,67.0,15.0,-5.0,1
28.0,-247.0,16.0,67.0,15.0,-5.0,1
32.0,-249.0,12.0,68.0,16.0,-7.0,1
32.0,-249.0,15.0,66.0,15.0,-7.0,1
32.0,-251.0,19.0,65.0,16.0,-8.0,1
30.0,-249.0,16.0,64.0,16.0,-7.0,1
33.0,-250.0,14.0,65.0,16.0,-8.0,1
30.0,-249.0,15.0,66.0,14.0,-9.0,1
33.0,-248.0,13.0,66.0,12.0,-9.0,1
30.0,-249.0,16.0,65.0,12.0,-9.0,1
33.0,-250.0,18.0,64.0,12.0,-9.0,1
31.0,-250.0,20.0,65.0,12.0,-9.0,1
31.0,-246.0,20.0,63.0,12.0,-9.0,1
32.0,-251.0,17.0,61.0,13.0,-8.0,1
32.0,-249.0,18.0,59.0,13.0,-10.0,1
30.0,-249.0,15.0,58.0,12.0,-9.0,1
32.0,-249.0,22.0,56.0,12.0,-9.0,1
31.0,-250.0,18.0,55.0,11.0,-9.0,1
30.0,-249.0,20.0,53.0,11.0,-10.0,1
32.0,-252.0,18.0,53.0,11.0,-10.0,1
33.0,-252.0,16.0,54.0,11.0,-10.0,1
33.0,-252.0,20.0,56.0,11.0,-11.0,1
32.0,-254.0,15.0,57.0,10.0,-10.0,1
29.0,-253.0,16.0,58.0,11.0,-11.0,1
32.0,-251.0,22.0,58.0,10.0,-10.0,1
33.0,-250.0,14.0,61.0,11.0,-12.0,1
31.0,-251.0,18.0,64.0,12.0,-11.0,1
34.0,-252.0,16.0,67.0,11.0,-12.0,1
33.0,-251.0,22.0,70.0,11.0,-12.0,1
31.0,-251.0,16.0,72.0,10.0,-12.0,1
32.0,-251.0,14.0,74.0,10.0,-10.0,1
32.0,-251.0,18.0,75.0,11.0,-10.0,1
26.0,-248.0,15.0,75.0,13.0,-11.0,1
32.0,-251.0,21.0,74.0,12.0,-12.0,1
31.0,-250.0,20.0,73.0,14.0,-12.0,1
32.0,-250.0,14.0,72.0,14.0,-14.0,1
31.0,-251.0,21.0,71.0,14.0,-16.0,1
31.0,-251.0,19.0,70.0,16.0,-16.0,1
30.0,-249.0,19.0,71.0,16.0,-15.0,1
28.0,-249.0,16.0,71.0,15.0,-13.0,1
33.0,-251.0,17.0,71.0,14.0,-14.0,1
29.0,-248.0,15.0,71.0,13.0,-13.0,1
31.0,-248.0,20.0,70.0,14.0,-14.0,1
30.0,-248.0,20.0,70.0,13.0,-14.0,1
31.0,-248.0,18.0,70.0,13.0,-14.0,1
35.0,-251.0,15.0,69.0,12.0,-15.0,1
34.0,-247.0,18.0,67.0,12.0,-14.0,1
34.0,-252.0,15.0,67.0,12.0,-14.0,1
34.0,-251.0,15.0,66.0,11.0,-13.0,1
32.0,-249.0,15.0,67.0,11.0,-15.0,1
31.0,-250.0,18.0,69.0,11.0,-16.0,1
33.0,-253.0,18.0,69.0,12.0,-15.0,1
29.0,-251.0,16.0,70.0,11.0,-13.0,1
32.0,-249.0,18.0,70.0,12.0,-14.0,1
31.0,-250.0,17.0,69.0,14.0,-14.0,1
42.0,-253.0,20.0,68.0,12.0,-14.0,1
32.0,-249.0,18.0,67.0,13.0,-13.0,1
33.0,-248.0,14.0,66.0,12.0,-13.0,1
34.0,-247.0,15.0,67.0,12.0,-13.0,1
32.0,-250.0,13.0,66.0,14.0,-13.0,1
28.0,-251.0,15.0,65.0,13.0,-13.0,1
34.0,-249.0,17.0,66.0,13.0,-14.0,1
32.0,-249.0,14.0,67.0,14.0,-14.0,1
32.0,-250.0,17.0,67.0,15.0,-15.0,1
32.0,-245.0,20.0,67.0,16.0,-14.0,1
33.0,-251.0,17.0,67.0,15.0,-14.0,1
30.0,-250.0,15.0,67.0,16.0,-14.0,1
33.0,-250.0,17.0,67.0,17.0,-13.0,1
31.0,-252.0,16.0,69.0,19.0,-12.0,1
29.0,-252.0,17.0,72.0,20.0,-12.0,1
32.0,-251.0,13.0,74.0,21.0,-12.0,1
33.0,-251.0,14.0,78.0,21.0,-13.0,1
31.0,-252.0,12.0,81.0,22.0,-15.0,1
32.0,-248.0,18.0,86.0,21.0,-15.0,1
36.0,-250.0,14.0,89.0,20.0,-15.0,1
28.0,-249.0,13.0,90.0,22.0,-15.0,1
34.0,-250.0,16.0,90.0,22.0,-14.0,1
33.0,-248.0,18.0,90.0,23.0,-14.0,1
30.0,-249.0,17.0,89.0,23.0,-15.0,1
31.0,-248.0,17.0,86.0,23.0,-12.0,1
32.0,-248.0,19.0,84.0,23.0,-11.0,1
32.0,-246.0,18.0,81.0,22.0,-10.0,1
29.0,-248.0,19.0,78.0,22.0,-9.0,1
32.0,-249.0,18.0,77.0,21.0,-12.0,1
29.0,-250.0,20.0,77.0,21.0,-13.0,1
32.0,-250.0,24.0,78.0,23.0,-12.0,1
33.0,-252.0,18.0,78.0,23.0,-13.0,1
31.0,-251.0,20.0,78.0,23.0,-14.0,1
33.0,-252.0,22.0,78.0,22.0,-15.0,1
29.0,-248.0,16.0,77.0,23.0,-13.0,1
33.0,-249.0,24.0,75.0,23.0,-13.0,1
31.0,-248.0,22.0,74.0,22.0,-13.0,1
31.0,-252.0,24.0,72.0,23.0,-13.0,1
33.0,-251.0,19.0,72.0,23.0,-12.0,1
29.0,-250.0,24.0,72.0,22.0,-13.0,1
32.0,-249.0,19.0,72.0,21.0,-14.0,1
33.0,-250.0,17.0,73.0,21.0,-14.0,1
32.0,-250.0,19.0,73.0,20.0,-13.0,1
36.0,-253.0,-1.0,75.0,20.0,-13.0,1
35.0,-253.0,19.0,75.0,19.0,-14.0,1
34.0,-254.0,20.0,77.0,19.0,-13.0,1
30.0,-250.0,20.0,76.0,17.0,-12.0,1
31.0,-249.0,20.0,77.0,16.0,-13.0,1
31.0,-248.0,19.0,77.0,17.0,-12.0,1
31.0,-247.0,20.0,77.0,16.0,-11.0,1
30.0,-249.0,22.0,75.0,16.0,-11.0,1
31.0,-247.0,20.0,73.0,14.0,-12.0,1
33.0,-252.0,21.0,72.0,15.0,-12.0,1
30.0,-249.0,24.0,70.0,14.0,-11.0,1
32.0,-248.0,24.0,68.0,14.0,-9.0,1
29.0,-250.0,22.0,67.0,14.0,-10.0,1
30.0,-251.0,21.0,64.0,11.0,-11.0,1
30.0,-248.0,20.0,63.0,12.0,-12.0,1
30.0,-248.0,19.0,62.0,12.0,-10.0,1
31.0,-250.0,21.0,59.0,13.0,-11.0,1
31.0,-250.0,20.0,56.0,13.0,-8.0,1
31.0,-250.0,19.0,55.0,11.0,-9.0,1
32.0,-250.0,16.0,52.0,11.0,-8.0,1
31.0,-249.0,20.0,49.0,10.0,-9.0,1
34.0,-247.0,17.0,47.0,9.0,-7.0,1
35.0,-252.0,18.0,46.0,8.0,-7.0,1
34.0,-250.0,21.0,43.0,7.0,-7.0,1
33.0,-249.0,18.0,41.0,5.0,-7.0,1
34.0,-249.0,22.0,39.0,5.0,-5.0,1
33.0,-249.0,19.0,38.0,6.0,-5.0,1
32.0,-250.0,22.0,39.0,7.0,-7.0,1
33.0,-250.0,17.0,40.0,8.0,-7.0,1
33.0,-251.0,17.0,41.0,9.0,-8.0,1
31.0,-248.0,21.0,39.0,12.0,-6.0,1
36.0,-249.0,19.0,39.0,12.0,-7.0,1
29.0,-248.0,20.0,38.0,13.0,-8.0,1
32.0,-249.0,18.0,36.0,12.0,-8.0,1
36.0,-253.0,19.0,35.0,11.0,-9.0,1
36.0,-250.0,16.0,34.0,11.0,-8.0,1
34.0,-249.0,21.0,35.0,10.0,-8.0,1
33.0,-252.0,21.0,35.0,11.0,-9.0,1
31.0,-252.0,18.0,37.0,9.0,-9.0,1
35.0,-251.0,18.0,40.0,9.0,-8.0,1
32.0,-249.0,19.0,44.0,10.0,-10.0,1
31.0,-250.0,19.0,45.0,9.0,-11.0,1
32.0,-250.0,5.0,46.0,8.0,-10.0,1
29.0,-248.0,18.0,43.0,7.0,-9.0,1
33.0,-250.0,16.0,41.0,6.0,-9.0,1
31.0,-252.0,20.0,37.0,6.0,-10.0,1
31.0,-246.0,17.0,34.0,7.0,-11.0,1
30.0,-247.0,21.0,32.0,7.0,-9.0,1
30.0,-247.0,20.0,31.0,7.0,-8.0,1
31.0,-249.0,18.0,30.0,8.0,-8.0,1
29.0,-248.0,15.0,29.0,8.0,-9.0,1
30.0,-251.0,20.0,31.0,10.0,-9.0,1
31.0,-249.0,19.0,33.0,11.0,-11.0,1
32.0,-250.0,23.0,33.0,11.0,-10.0,1
31.0,-249.0,20.0,34.0,11.0,-10.0,1
33.0,-246.0,17.0,35.0,11.0,-9.0,1
31.0,-251.0,21.0,34.0,12.0,-10.0,1
31.0,-248.0,22.0,31.0,12.0,-8.0,1
31.0,-250.0,20.0,30.0,8.0,-9.0,1
31.0,-249.0,21.0,26.0,7.0,-11.0,1
33.0,-248.0,19.0,23.0,6.0,-11.0,1
30.0,-246.0,24.0,19.0,5.0,-10.0,1
32.0,-249.0,22.0,16.0,5.0,-9.0,1
32.0,-249.0,20.0,12.0,7.0,-9.0,1
28.0,-245.0,14.0,8.0,7.0,-9.0,1
34.0,-251.0,21.0,3.0,8.0,-6.0,1
33.0,-250.0,21.0,-1.0,9.0,-8.0,1
31.0,-250.0,17.0,-4.0,9.0,-7.0,1
32.0,-249.0,23.0,-5.0,10.0,-7.0,1
32.0,-250.0,17.0,-9.0,8.0,-6.0,1
33.0,-249.0,19.0,-11.0,7.0,-7.0,1
33.0,-247.0,12.0,-15.0,6.0,-7.0,1
31.0,-251.0,16.0,-19.0,6.0,-8.0,1
32.0,-249.0,19.0,-24.0,6.0,-8.0,1
33.0,-248.0,17.0,-28.0,6.0,-8.0,1
32.0,-248.0,18.0,-31.0,4.0,-8.0,1
35.0,-250.0,17.0,-33.0,4.0,-8.0,1
32.0,-254.0,13.0,-34.0,3.0,-8.0,1
31.0,-251.0,17.0,-34.0,2.0,-9.0,1
33.0,-254.0,19.0,-35.0,0.0,-8.0,1
33.0,-251.0,22.0,-35.0,2.0,-10.0,1
31.0,-253.0,17.0,-32.0,3.0,-11.0,1
32.0,-250.0,19.0,-29.0,5.0,-10.0,1
32.0,-251.0,15.0,-22.0,7.0,-11.0,1
34.0,-252.0,13.0,-14.0,9.0,-13.0,1
29.0,-255.0,16.0,-7.0,10.0,-15.0,1
30.0,-252.0,12.0,-1.0,12.0,-15.0,1
31.0,-252.0,14.0,6.0,12.0,-16.0,1
30.0,-252.0,13.0,11.0,13.0,-14.0,1
33.0,-254.0,15.0,15.0,13.0,-15.0,1
30.0,-251.0,13.0,15.0,13.0,-16.0,1
32.0,-250.0,17.0,17.0,12.0,-16.0,1
30.0,-250.0,11.0,17.0,11.0,-17.0,1
29.0,-248.0,16.0,14.0,11.0,-17.0,1
30.0,-249.0,14.0,12.0,11.0,-18.0,1
31.0,-250.0,12.0,12.0,10.0,-17.0,1
31.0,-251.0,18.0,10.0,11.0,-14.0,1
30.0,-247.0,14.0,9.0,12.0,-15.0,1
33.0,-249.0,16.0,9.0,11.0,-16.0,1
31.0,-247.0,17.0,7.0,12.0,-16.0,1
29.0,-248.0,13.0,3.0,12.0,-15.0,1
32.0,-250.0,15.0,0.0,15.0,-14.0,1
29.0,-251.0,12.0,-3.0,17.0,-14.0,1
32.0,-251.0,13.0,-4.0,17.0,-14.0,1
30.0,-252.0,14.0,-3.0,17.0,-15.0,1
32.0,-251.0,17.0,-2.0,19.0,-17.0,1
30.0,-253.0,10.0,0.0,18.0,-16.0,1
32.0,-252.0,14.0,2.0,15.0,-14.0,1
31.0,-250.0,15.0,4.0,15.0,-16.0,1
33.0,-249.0,15.0,5.0,12.0,-13.0,1
30.0,-252.0,13.0,8.0,11.0,-14.0,1
31.0,-250.0,16.0,12.0,10.0,-13.0,1
32.0,-251.0,10.0,16.0,9.0,-14.0,1
32.0,-249.0,11.0,19.0,8.0,-13.0,1
32.0,-248.0,11.0,22.0,7.0,-11.0,1
34.0,-249.0,13.0,25.0,6.0,-11.0,1
33.0,-248.0,15.0,28.0,6.0,-11.0,1
33.0,-251.0,26.0,29.0,6.0,-11.0,1
33.0,-249.0,13.0,31.0,7.0,-11.0,1
33.0,-249.0,14.0,31.0,8.0,-13.0,1
33.0,-248.0,12.0,31.0,8.0,-12.0,1
32.0,-249.0,13.0,28.0,10.0,-11.0,1
31.0,-249.0,15.0,26.0,11.0,-12.0,1
33.0,-246.0,13.0,23.0,11.0,-13.0,1
31.0,-246.0,12.0,18.0,11.0,-11.0,1
35.0,-250.0,14.0,14.0,13.0,-11.0,1
33.0,-247.0,13.0,10.0,13.0,-12.0,1
31.0,-248.0,15.0,6.0,14.0,-13.0,1
31.0,-251.0,12.0,2.0,13.0,-12.0,1
34.0,-252.0,14.0,0.0,13.0,-10.0,1
36.0,-252.0,15.0,-3.0,10.0,-11.0,1
35.0,-249.0,11.0,-4.0,12.0,-10.0,1
33.0,-252.0,13.0,-5.0,11.0,-10.0,1
30.0,-249.0,15.0,-6.0,11.0,-9.0,1
33.0,-252.0,13.0,-4.0,12.0,-8.0,1
33.0,-251.0,15.0,-2.0,13.0,-10.0,1
30.0,-250.0,11.0,-2.0,12.0,-7.0,1
30.0,-251.0,14.0,1.0,11.0,-9.0,1
32.0,-252.0,11.0,1.0,10.0,-8.0,1
31.0,-250.0,13.0,3.0,11.0,-9.0,1
32.0,-251.0,13.0,5.0,10.0,-9.0,1
31.0,-253.0,10.0,7.0,9.0,-9.0,1
35.0,-253.0,13.0,7.0,10.0,-10.0,1
33.0,-252.0,14.0,8.0,10.0,-8.0,1
32.0,-249.0,16.0,10.0,10.0,-7.0,1
34.0,-250.0,10.0,10.0,10.0,-6.0,1
32.0,-250.0,13.0,9.0,12.0,-6.0,1
33.0,-252.0,11.0,10.0,11.0,-6.0,1
32.0,-249.0,14.0,9.0,11.0,-5.0,1
31.0,-251.0,13.0,7.0,11.0,-5.0,1
29.0,-248.0,10.0,9.0,10.0,-5.0,1
29.0,-247.0,13.0,8.0,10.0,-8.0,1
28.0,-251.0,10.0,7.0,11.0,-9.0,1
32.0,-252.0,12.0,7.0,10.0,-7.0,1
33.0,-255.0,14.0,5.0,9.0,-9.0,1
30.0,-248.0,11.0,5.0,9.0,-11.0,1
29.0,-249.0,9.0,6.0,9.0,-10.0,1
32.0,-251.0,12.0,6.0,7.0,-11.0,1
30.0,-253.0,12.0,6.0,8.0,-10.0,1
33.0,-250.0,10.0,7.0,7.0,-9.0,1
34.0,-247.0,8.0,7.0,8.0,-9.0,1
32.0,-248.0,13.0,7.0,8.0,-10.0,1
32.0,-248.0,10.0,7.0,9.0,-9.0,1
31.0,-247.0,11.0,7.0,9.0,-10.0,1
35.0,-250.0,12.0,4.0,9.0,-7.0,1
32.0,-251.0,12.0,3.0,9.0,-7.0,1
30.0,-249.0,12.0,3.0,9.0,-6.0,1
33.0,-249.0,10.0,3.0,8.0,-7.0,1
31.0,-251.0,8.0,3.0,8.0,-5.0,1
31.0,-251.0,13.0,4.0,6.0,-5.0,1
34.0,-252.0,12.0,4.0,4.0,-6.0,1
31.0,-249.0,12.0,5.0,5.0,-6.0,1
30.0,-249.0,9.0,6.0,4.0,-7.0,1
30.0,-247.0,8.0,7.0,4.0,-9.0,1
33.0,-250.0,9.0,7.0,4.0,-9.0,1
32.0,-250.0,9.0,7.0,5.0,-6.0,1
31.0,-249.0,11.0,7.0,6.0,-7.0,1
31.0,-248.0,11.0,7.0,7.0,-6.0,1
32.0,-250.0,10.0,6.0,8.0,-7.0,1
34.0,-249.0,11.0,4.0,8.0,-5.0,1
29.0,-248.0,9.0,3.0,9.0,-7.0,1
31.0,-250.0,9.0,2.0,9.0,-8.0,1
31.0,-251.0,10.0,0.0,8.0,-7.0,1
31.0,-248.0,12.0,-1.0,8.0,-6.0,1
32.0,-250.0,9.0,-3.0,7.0,-6.0,1
32.0,-250.0,6.0,-3.0,7.0,-4.0,1
32.0,-250.0,8.0,-2.0,6.0,-3.0,1
31.0,-249.0,9.0,-1.0,5.0,-2.0,1
27.0,-247.0,8.0,-1.0,4.0,-2.0,1
29.0,-249.0,6.0,-4.0,4.0,-1.0,1
34.0,-249.0,11.0,-6.0,4.0,-3.0,1
30.0,-246.0,9.0,-9.0,5.0,0.0,1
35.0,-250.0,7.0,-11.0,3.0,1.0,1
32.0,-248.0,7.0,-15.0,3.0,2.0,1
32.0,-248.0,9.0,-19.0,3.0,2.0,1
32.0,-248.0,9.0,-21.0,3.0,3.0,1
30.0,-251.0,8.0,-23.0,3.0,2.0,1
30.0,-251.0,8.0,-24.0,3.0,2.0,1
28.0,-249.0,8.0,-23.0,2.0,2.0,1
34.0,-251.0,11.0,-21.0,2.0,4.0,1
30.0,-248.0,7.0,-18.0,4.0,5.0,1
32.0,-245.0,7.0,-16.0,4.0,2.0,1
28.0,-243.0,0.0,-15.0,5.0,3.0,1
30.0,-249.0,11.0,-13.0,7.0,2.0,1
31.0,-249.0,10.0,-11.0,6.0,3.0,1
35.0,-251.0,10.0,-12.0,6.0,4.0,1
35.0,-250.0,8.0,-11.0,6.0,5.0,1
30.0,-251.0,9.0,-11.0,5.0,5.0,1
33.0,-251.0,9.0,-10.0,5.0,6.0,1
32.0,-252.0,7.0,-9.0,4.0,5.0,1
29.0,-250.0,7.0,-11.0,3.0,5.0,1
32.0,-252.0,13.0,-11.0,2.0,5.0,1
33.0,-254.0,8.0,-11.0,3.0,6.0,1
34.0,-251.0,9.0,-12.0,4.0,7.0,1
34.0,-250.0,9.0,-11.0,3.0,7.0,1
33.0,-249.0,9.0,-9.0,3.0,4.0,1
33.0,-253.0,8.0,-7.0,2.0,6.0,1
31.0,-252.0,8.0,-5.0,4.0,5.0,1
32.0,-252.0,10.0,-3.0,5.0,4.0,1
33.0,-249.0,11.0,-3.0,5.0,5.0,1
33.0,-249.0,10.0,-3.0,5.0,5.0,1
31.0,-250.0,8.0,-3.0,6.0,6.0,1
28.0,-250.0,10.0,-4.0,6.0,3.0,1
35.0,-252.0,10.0,-4.0,6.0,3.0,1
31.0,-251.0,9.0,-2.0,5.0,4.0,1
32.0,-252.0,8.0,-1.0,7.0,5.0,1
30.0,-253.0,11.0,1.0,6.0,5.0,1
32.0,-253.0,8.0,2.0,6.0,5.0,1
33.0,-251.0,10.0,5.0,6.0,4.0,1
33.0,-249.0,8.0,7.0,4.0,4.0,1
29.0,-249.0,8.0,7.0,4.0,5.0,1
34.0,-250.0,6.0,6.0,3.0,7.0,1
30.0,-249.0,8.0,2.0,2.0,6.0,1
33.0,-250.0,5.0,-3.0,2.0,8.0,1
34.0,-247.0,10.0,-8.0,2.0,8.0,1
32.0,-248.0,10.0,-10.0,1.0,10.0,1
31.0,-249.0,4.0,-15.0,1.0,9.0,1
30.0,-247.0,8.0,-15.0,1.0,8.0,1
30.0,-251.0,4.0,-16.0,0.0,10.0,1
29.0,-248.0,7.0,-17.0,0.0,8.0,1
30.0,-250.0,11.0,-17.0,0.0,9.0,1
33.0,-250.0,9.0,-16.0,1.0,10.0,1
32.0,-252.0,5.0,-15.0,2.0,9.0,1
29.0,-250.0,9.0,-14.0,0.0,9.0,1
31.0,-250.0,5.0,-14.0,1.0,8.0,1
30.0,-250.0,10.0,-14.0,0.0,7.0,1
28.0,-248.0,6.0,-14.0,1.0,8.0,1
32.0,-250.0,8.0,-15.0,1.0,7.0,1
31.0,-248.0,5.0,-16.0,2.0,7.0,1
29.0,-252.0,9.0,-18.0,1.0,6.0,1
30.0,-250.0,4.0,-18.0,2.0,7.0,1
28.0,-251.0,7.0,-18.0,3.0,5.0,1
28.0,-246.0,4.0,-18.0,3.0,4.0,1
27.0,-254.0,8.0,-16.0,3.0,5.0,1
27.0,-250.0,8.0,-15.0,3.0,6.0,1
29.0,-251.0,5.0,-15.0,4.0,6.0,1
27.0,-249.0,5.0,-14.0,4.0,6.0,1
28.0,-251.0,8.0,-14.0,2.0,6.0,1
29.0,-251.0,6.0,-12.0,2.0,5.0,1
29.0,-251.0,4.0,-13.0,1.0,5.0,1
30.0,-251.0,7.0,-16.0,0.0,5.0,1
28.0,-250.0,3.0,-17.0,1.0,3.0,1
29.0,-247.0,4.0,-18.0,1.0,3.0,1
31.0,-252.0,4.0,-19.0,-1.0,3.0,1
26.0,-248.0,2.0,-21.0,1.0,3.0,1
28.0,-249.0,4.0,-22.0,0.0,2.0,1
26.0,-249.0,3.0,-21.0,1.0,1.0,1
31.0,-248.0,2.0,-22.0,1.0,1.0,1
28.0,-250.0,5.0,-22.0,1.0,1.0,1
31.0,-249.0,5.0,-21.0,0.0,2.0,1
26.0,-246.0,1.0,-24.0,1.0,3.0,1
32.0,-250.0,4.0,-25.0,1.0,4.0,1
31.0,-252.0,4.0,-28.0,-1.0,5.0,1
28.0,-250.0,7.0,-29.0,0.0,6.0,1
30.0,-251.0,4.0,-32.0,-2.0,6.0,1
29.0,-248.0,0.0,-36.0,-3.0,6.0,1
28.0,-247.0,6.0,-37.0,-3.0,6.0,1
28.0,-250.0,5.0,-38.0,-5.0,8.0,1
32.0,-250.0,3.0,-41.0,-5.0,5.0,1
29.0,-248.0,3.0,-42.0,-6.0,8.0,1
31.0,-250.0,-3.0,-42.0,-8.0,6.0,1
28.0,-252.0,-2.0,-42.0,-8.0,7.0,1
31.0,-251.0,0.0,-44.0,-9.0,5.0,1
29.0,-248.0,2.0,-44.0,-8.0,5.0,1
31.0,-249.0,-2.0,-47.0,-6.0,5.0,1
31.0,-250.0,0.0,-49.0,-8.0,4.0,1
32.0,-249.0,6.0,-52.0,-9.0,4.0,1
31.0,-248.0,-5.0,-54.0,-9.0,6.0,1
32.0,-249.0,4.0,-56.0,-9.0,7.0,1
32.0,-249.0,-1.0,-60.0,-10.0,7.0,1
34.0,-251.0,3.0,-62.0,-10.0,8.0,1
29.0,-248.0,-1.0,-64.0,-10.0,10.0,1
32.0,-249.0,5.0,-66.0,-10.0,10.0,1
29.0,-248.0,2.0,-67.0,-10.0,10.0,1
31.0,-251.0,1.0,-67.0,-11.0,13.0,1
31.0,-249.0,0.0,-67.0,-11.0,13.0,1
29.0,-254.0,-1.0,-69.0,-11.0,13.0,1
31.0,-249.0,1.0,-71.0,-11.0,14.0,1
31.0,-247.0,0.0,-71.0,-11.0,14.0,1
30.0,-251.0,2.0,-71.0,-10.0,14.0,1
33.0,-251.0,0.0,-72.0,-9.0,15.0,1
32.0,-250.0,1.0,-73.0,-10.0,14.0,1
32.0,-250.0,2.0,-75.0,-10.0,14.0,1
32.0,-253.0,-3.0,-78.0,-10.0,13.0,1
31.0,-250.0,0.0,-81.0,-9.0,13.0,1
27.0,-248.0,0.0,-83.0,-8.0,13.0,1
32.0,-250.0,2.0,-85.0,-9.0,13.0,1
30.0,-251.0,-2.0,-89.0,-8.0,14.0,1
29.0,-249.0,-1.0,-91.0,-8.0,15.0,1
31.0,-249.0,0.0,-92.0,-8.0,14.0,1
30.0,-252.0,-1.0,-94.0,-8.0,16.0,1
31.0,-251.0,-1.0,-94.0,-8.0,15.0,1
27.0,-251.0,-3.0,-95.0,-7.0,14.0,1
28.0,-247.0,0.0,-95.0,-7.0,14.0,1
28.0,-249.0,-3.0,-96.0,-8.0,14.0,1
27.0,-248.0,-1.0,-96.0,-9.0,15.0,1
28.0,-250.0,-3.0,-96.0,-10.0,15.0,1
29.0,-251.0,-2.0,-97.0,-11.0,14.0,1
31.0,-250.0,-7.0,-100.0,-11.0,13.0,1
30.0,-250.0,-5.0,-101.0,-11.0,13.0,1
27.0,-253.0,-1.0,-102.0,-13.0,13.0,1
31.0,-251.0,-9.0,-104.0,-12.0,12.0,1
27.0,-247.0,-6.0,-109.0,-13.0,11.0,1
27.0,-249.0,-8.0,-113.0,-13.0,12.0,1
29.0,-253.0,-5.0,-113.0,-13.0,11.0,1
26.0,-247.0,-7.0,-114.0,-14.0,9.0,1
27.0,-250.0,-7.0,-113.0,-13.0,8.0,1
29.0,-252.0,-7.0,-111.0,-12.0,8.0,1
30.0,-253.0,-6.0,-108.0,-11.0,6.0,1
27.0,-251.0,-5.0,-104.0,-11.0,8.0,1
28.0,-250.0,-7.0,-101.0,-10.0,6.0,1
29.0,-250.0,-11.0,-97.0,-9.0,8.0,1
29.0,-251.0,-9.0,-93.0,-9.0,7.0,1
29.0,-251.0,-9.0,-88.0,-7.0,5.0,1
30.0,-249.0,-14.0,-85.0,-5.0,6.0,1
29.0,-250.0,-15.0,-80.0,-4.0,6.0,1
26.0,-253.0,-13.0,-76.0,-2.0,6.0,1
28.0,-252.0,-15.0,-72.0,-1.0,5.0,1
28.0,-251.0,-8.0,-69.0,0.0,5.0,1
28.0,-251.0,-12.0,-65.0,0.0,5.0,1
26.0,-249.0,-10.0,-61.0,1.0,4.0,1
27.0,-249.0,-9.0,-57.0,-1.0,5.0,1
25.0,-250.0,-11.0,-53.0,-4.0,3.0,1
27.0,-250.0,-12.0,-50.0,-4.0,4.0,1
29.0,-249.0,-13.0,-48.0,-5.0,4.0,1
27.0,-247.0,-15.0,-47.0,-6.0,4.0,1
29.0,-247.0,-12.0,-46.0,-8.0,4.0,1
27.0,-250.0,-14.0,-48.0,-10.0,3.0,1
26.0,-248.0,-11.0,-51.0,-11.0,3.0,1
27.0,-245.0,-10.0,-57.0,-15.0,1.0,1
25.0,-246.0,-9.0,-63.0,-16.0,2.0,1
27.0,-246.0,-11.0,-70.0,-16.0,1.0,1
25.0,-249.0,-8.0,-78.0,-17.0,0.0,1
25.0,-249.0,-11.0,-83.0,-16.0,-1.0,1
27.0,-249.0,-9.0,-85.0,-14.0,-2.0,1
28.0,-251.0,-7.0,-86.0,-14.0,-2.0,1
27.0,-251.0,-9.0,-87.0,-13.0,1.0,1
29.0,-251.0,-14.0,-86.0,-12.0,-1.0,1
27.0,-251.0,-14.0,-84.0,-13.0,-1.0,1
28.0,-252.0,-15.0,-84.0,-13.0,0.0,1
30.0,-249.0,-12.0,-83.0,-16.0,-1.0,1
28.0,-251.0,-12.0,-86.0,-18.0,-1.0,1
25.0,-255.0,-15.0,-88.0,-19.0,0.0,1
28.0,-254.0,-12.0,-92.0,-17.0,2.0,1
32.0,-260.0,-4.0,-97.0,-9.0,1.0,1
27.0,-257.0,-6.0,-98.0,0.0,1.0,1
30.0,-260.0,4.0,-93.0,11.0,0.0,1
30.0,-264.0,7.0,-75.0,23.0,-2.0,1
32.0,-269.0,7.0,-47.0,34.0,0.0,1
32.0,-272.0,9.0,-14.0,42.0,5.0,1
37.0,-269.0,-2.0,24.0,43.0,24.0,1
43.0,-266.0,-4.0,57.0,35.0,45.0,1
43.0,-267.0,-14.0,68.0,17.0,68.0,1
37.0,-263.0,-12.0,64.0,-7.0,89.0,1
38.0,-267.0,-27.0,61.0,-34.0,107.0,1
36.0,-271.0,-35.0,72.0,-58.0,121.0,1
31.0,-267.0,-50.0,93.0,-72.0,128.0,1
28.0,-263.0,-53.0,103.0,-69.0,126.0,1
24.0,-260.0,-54.0,109.0,-51.0,115.0,1
22.0,-257.0,-42.0,122.0,-21.0,95.0,1
18.0,-248.0,-30.0,144.0,17.0,71.0,1
16.0,-236.0,-20.0,162.0,50.0,47.0,1
17.0,-229.0,-16.0,169.0,78.0,18.0,1
15.0,-218.0,-14.0,158.0,98.0,-6.0,1
11.0,-218.0,-20.0,133.0,110.0,-27.0,1
13.0,-221.0,-19.0,100.0,110.0,-40.0,1
12.0,-226.0,-15.0,69.0,98.0,-46.0,1
13.0,-226.0,-10.0,43.0,75.0,-45.0,1
15.0,-224.0,-10.0,21.0,47.0,-37.0,1
17.0,-224.0,-8.0,-3.0,22.0,-25.0,1
15.0,-226.0,-7.0,-33.0,3.0,-14.0,1
16.0,-230.0,-8.0,-64.0,-11.0,-1.0,1
16.0,-233.0,-17.0,-97.0,-24.0,10.0,1
18.0,-237.0,-16.0,-124.0,-33.0,18.0,1
17.0,-238.0,-17.0,-147.0,-42.0,25.0,1
16.0,-239.0,-16.0,-166.0,-47.0,29.0,1
20.0,-240.0,-18.0,-182.0,-50.0,31.0,1
23.0,-243.0,-13.0,-196.0,-55.0,33.0,1
26.0,-242.0,-17.0,-209.0,-57.0,34.0,1
28.0,-247.0,-21.0,-222.0,-60.0,33.0,1
27.0,-248.0,-18.0,-238.0,-60.0,34.0,1
28.0,-245.0,-23.0,-248.0,-62.0,34.0,1
25.0,-247.0,-22.0,-258.0,-63.0,31.0,1
28.0,-251.0,-25.0,-266.0,-63.0,32.0,1
30.0,-252.0,-21.0,-273.0,-64.0,31.0,1
28.0,-254.0,-22.0,-276.0,-68.0,31.0,1
28.0,-250.0,-21.0,-279.0,-68.0,30.0,1
24.0,-250.0,-16.0,-283.0,-69.0,31.0,1
23.0,-251.0,-23.0,-292.0,-70.0,31.0,1
23.0,-247.0,-22.0,-300.0,-72.0,33.0,1
21.0,-246.0,-27.0,-312.0,-74.0,32.0,1
21.0,-247.0,-21.0,-326.0,-77.0,33.0,1
23.0,-244.0,-24.0,-341.0,-81.0,37.0,1
24.0,-244.0,-29.0,-357.0,-88.0,38.0,1
22.0,-246.0,-23.0,-371.0,-92.0,39.0,1
22.0,-246.0,-23.0,-384.0,-97.0,40.0,1
18.0,-243.0,-23.0,-395.0,-99.0,40.0,1
23.0,-244.0,-26.0,-405.0,-101.0,43.0,1
22.0,-243.0,-25.0,-416.0,-102.0,44.0,1
24.0,-246.0,-28.0,-425.0,-106.0,44.0,1
21.0,-243.0,-28.0,-432.0,-108.0,46.0,1
22.0,-246.0,-29.0,-438.0,-109.0,46.0,1
20.0,-244.0,-27.0,-447.0,-109.0,50.0,1
23.0,-247.0,-29.0,-458.0,-108.0,54.0,1
23.0,-244.0,-28.0,-465.0,-111.0,56.0,1
27.0,-247.0,-31.0,-470.0,-113.0,59.0,1
26.0,-247.0,-32.0,-475.0,-111.0,65.0,1
24.0,-247.0,-33.0,-481.0,-110.0,73.0,1
25.0,-246.0,-30.0,-488.0,-111.0,78.0,1
29.0,-248.0,-31.0,-493.0,-109.0,83.0,1
25.0,-246.0,-30.0,-498.0,-107.0,86.0,1
26.0,-244.0,-32.0,-503.0,-102.0,88.0,1
28.0,-247.0,-32.0,-511.0,-97.0,91.0,1
31.0,-247.0,-34.0,-515.0,-90.0,93.0,1
31.0,-245.0,-25.0,-516.0,-83.0,95.0,1
24.0,-243.0,-26.0,-517.0,-73.0,98.0,1
26.0,-245.0,-25.0,-519.0,-63.0,99.0,1
26.0,-245.0,-27.0,-525.0,-54.0,101.0,1
29.0,-242.0,-27.0,-536.0,-43.0,105.0,1
27.0,-240.0,-28.0,-551.0,-31.0,110.0,1
25.0,-242.0,-28.0,-574.0,-18.0,114.0,1
27.0,-239.0,-33.0,-597.0,-10.0,121.0,1
27.0,-242.0,-34.0,-625.0,-2.0,127.0,1
25.0,-238.0,-37.0,-654.0,2.0,130.0,1
29.0,-241.0,-39.0,-679.0,2.0,134.0,1
28.0,-243.0,-40.0,-700.0,3.0,134.0,1
27.0,-244.0,-43.0,-718.0,4.0,137.0,1
28.0,-251.0,-46.0,-731.0,5.0,135.0,1
25.0,-250.0,-50.0,-738.0,4.0,134.0,1
25.0,-253.0,-52.0,-741.0,6.0,131.0,1
24.0,-254.0,-53.0,-739.0,4.0,127.0,1
24.0,-257.0,-59.0,-733.0,3.0,122.0,1
21.0,-254.0,-57.0,-721.0,4.0,117.0,1
19.0,-257.0,-58.0,-704.0,4.0,113.0,1
20.0,-251.0,-61.0,-680.0,3.0,111.0,1
20.0,-254.0,-61.0,-660.0,4.0,108.0,1
18.0,-252.0,-63.0,-641.0,5.0,106.0,1
15.0,-250.0,-61.0,-617.0,5.0,103.0,1
13.0,-247.0,-67.0,-596.0,0.0,99.0,1
16.0,-250.0,-60.0,-580.0,-4.0,97.0,1
12.0,-243.0,-66.0,-571.0,-7.0,94.0,1
15.0,-240.0,-68.0,-565.0,-10.0,89.0,1
11.0,-238.0,-66.0,-559.0,-14.0,86.0,1
8.0,-235.0,-68.0,-558.0,-16.0,86.0,1
6.0,-233.0,-65.0,-565.0,-20.0,85.0,1
8.0,-232.0,-68.0,-574.0,-22.0,86.0,1
12.0,-232.0,-68.0,-587.0,-24.0,84.0,1
11.0,-229.0,-65.0,-602.0,-24.0,83.0,1
7.0,-232.0,-68.0,-621.0,-22.0,81.0,1
8.0,-231.0,-67.0,-639.0,-19.0,81.0,1
9.0,-231.0,-58.0,-655.0,-14.0,81.0,1
9.0,-229.0,-72.0,-671.0,-11.0,84.0,1
10.0,-233.0,-73.0,-689.0,-9.0,88.0,1
7.0,-232.0,-78.0,-705.0,-6.0,92.0,1
8.0,-233.0,-73.0,-717.0,-6.0,95.0,1
11.0,-235.0,-76.0,-725.0,-6.0,101.0,1
7.0,-235.0,-77.0,-731.0,-7.0,105.0,1
5.0,-237.0,-78.0,-734.0,-8.0,107.0,1
7.0,-235.0,-80.0,-736.0,-9.0,110.0,1
6.0,-234.0,-81.0,-738.0,-13.0,114.0,1
7.0,-236.0,-83.0,-739.0,-19.0,119.0,1
2.0,-238.0,-83.0,-741.0,-22.0,118.0,1
4.0,-234.0,-84.0,-744.0,-27.0,118.0,1
3.0,-233.0,-90.0,-749.0,-30.0,119.0,1
1.0,-234.0,-89.0,-752.0,-35.0,120.0,1
2.0,-235.0,-91.0,-753.0,-43.0,120.0,1
1.0,-234.0,-91.0,-756.0,-50.0,119.0,1
2.0,-230.0,-95.0,-758.0,-58.0,118.0,1
0.0,-229.0,-94.0,-762.0,-63.0,115.0,1
5.0,-230.0,-99.0,-766.0,-70.0,113.0,1
1.0,-230.0,-99.0,-770.0,-76.0,107.0,1
5.0,-228.0,-99.0,-776.0,-80.0,102.0,1
5.0,-225.0,-102.0,-782.0,-81.0,97.0,1
7.0,-222.0,-104.0,-790.0,-82.0,92.0,1
6.0,-219.0,-106.0,-796.0,-82.0,89.0,1
8.0,-222.0,-106.0,-802.0,-83.0,85.0,1
6.0,-220.0,-107.0,-811.0,-84.0,79.0,1
6.0,-219.0,-108.0,-821.0,-85.0,79.0,1
12.0,-217.0,-110.0,-830.0,-82.0,77.0,1
10.0,-217.0,-113.0,-839.0,-79.0,74.0,1
12.0,-216.0,-113.0,-850.0,-77.0,72.0,1
12.0,-218.0,-111.0,-863.0,-75.0,72.0,1
10.0,-218.0,-109.0,-875.0,-75.0,75.0,1
21.0,-210.0,-105.0,-888.0,-75.0,78.0,1
10.0,-216.0,-112.0,-899.0,-77.0,80.0,1
11.0,-223.0,-114.0,-905.0,-78.0,83.0,1
12.0,-223.0,-113.0,-905.0,-78.0,83.0,1
9.0,-221.0,-117.0,-901.0,-79.0,85.0,1
10.0,-221.0,-117.0,-892.0,-76.0,86.0,1
11.0,-220.0,-116.0,-882.0,-71.0,87.0,1
12.0,-224.0,-114.0,-869.0,-65.0,89.0,1
10.0,-221.0,-117.0,-850.0,-64.0,92.0,1
11.0,-220.0,-120.0,-827.0,-59.0,90.0,1
11.0,-225.0,-118.0,-807.0,-54.0,89.0,1
11.0,-216.0,-120.0,-791.0,-46.0,90.0,1
18.0,-218.0,-119.0,-777.0,-37.0,91.0,1
10.0,-216.0,-119.0,-768.0,-26.0,92.0,1
13.0,-218.0,-120.0,-759.0,-18.0,92.0,1
18.0,-214.0,-119.0,-751.0,-14.0,93.0,1
13.0,-218.0,-122.0,-747.0,-5.0,97.0,1
14.0,-218.0,-124.0,-734.0,-4.0,98.0,1
11.0,-216.0,-123.0,-721.0,-6.0,101.0,1
12.0,-218.0,-127.0,-711.0,-1.0,103.0,1
14.0,-213.0,-125.0,-704.0,3.0,106.0,1
9.0,-214.0,-130.0,-699.0,3.0,110.0,1
12.0,-212.0,-133.0,-695.0,5.0,113.0,1
12.0,-210.0,-129.0,-694.0,4.0,116.0,1
10.0,-208.0,-139.0,-696.0,1.0,118.0,1
9.0,-209.0,-137.0,-698.0,-1.0,120.0,1
8.0,-210.0,-141.0,-701.0,-6.0,122.0,1
8.0,-206.0,-141.0,-706.0,-9.0,125.0,1
6.0,-206.0,-144.0,-712.0,-11.0,125.0,1
12.0,-207.0,-140.0,-721.0,-15.0,126.0,1
7.0,-204.0,-141.0,-732.0,-17.0,123.0,1
7.0,-201.0,-142.0,-745.0,-18.0,124.0,1
7.0,-202.0,-148.0,-760.0,-20.0,122.0,1
6.0,-203.0,-154.0,-774.0,-18.0,119.0,1
6.0,-201.0,-144.0,-792.0,-15.0,115.0,1
7.0,-203.0,-147.0,-804.0,-17.0,113.0,1
6.0,-199.0,-149.0,-812.0,-20.0,110.0,1
6.0,-200.0,-150.0,-821.0,-19.0,105.0,1
1.0,-199.0,-149.0,-826.0,-21.0,100.0,1
2.0,-199.0,-154.0,-831.0,-20.0,98.0,1
0.0,-198.0,-152.0,-835.0,-16.0,96.0,1
-2.0,-197.0,-154.0,-834.0,-15.0,93.0,1
-3.0,-197.0,-157.0,-824.0,-19.0,92.0,1
-2.0,-196.0,-157.0,-816.0,-18.0,89.0,1
-2.0,-194.0,-153.0,-809.0,-17.0,86.0,1
-10.0,-198.0,-152.0,-803.0,-15.0,84.0,1
-2.0,-197.0,-159.0,-800.0,-30.0,83.0,1
-3.0,-195.0,-164.0,-787.0,-27.0,85.0,1
-6.0,-194.0,-162.0,-770.0,-25.0,87.0,1
-4.0,-192.0,-160.0,-756.0,-26.0,86.0,1
-5.0,-188.0,-158.0,-746.0,-26.0,84.0,1
-4.0,-187.0,-164.0,-730.0,-29.0,86.0,1
-4.0,-187.0,-162.0,-714.0,-32.0,87.0,1
-5.0,-183.0,-166.0,-698.0,-33.0,86.0,1
-4.0,-181.0,-165.0,-687.0,-36.0,85.0,1
-3.0,-179.0,-165.0,-672.0,-40.0,86.0,1
-3.0,-179.0,-162.0,-658.0,-43.0,89.0,1
-5.0,-180.0,-167.0,-649.0,-44.0,91.0,1
-4.0,-177.0,-168.0,-644.0,-46.0,93.0,1
7.0,-170.0,-168.0,-638.0,-45.0,95.0,1
-7.0,-171.0,-168.0,-636.0,-41.0,100.0,1
-4.0,-173.0,-173.0,-623.0,-51.0,99.0,1
-2.0,-169.0,-175.0,-608.0,-50.0,99.0,1
-3.0,-169.0,-158.0,-608.0,-31.0,108.0,1
-8.0,-170.0,-171.0,-599.0,-41.0,107.0,1
-6.0,-168.0,-173.0,-579.0,-44.0,106.0,1
-3.0,-161.0,-172.0,-567.0,-38.0,109.0,1
-3.0,-161.0,-173.0,-568.0,-30.0,114.0,1
27.0,-154.0,-170.0,-582.0,-12.0,122.0,1
-4.0,-159.0,-171.0,-622.0,28.0,130.0,1
-21.0,-164.0,-184.0,-624.0,17.0,122.0,1
-9.0,-165.0,-183.0,-599.0,9.0,123.0,1
-2.0,-162.0,-177.0,-579.0,15.0,131.0,1
0.0,-163.0,-180.0,-570.0,29.0,140.0,1
5.0,-163.0,-181.0,-553.0,38.0,145.0,1
19.0,-158.0,-172.0,-552.0,70.0,152.0,1
13.0,-150.0,-169.0,-581.0,101.0,168.0,1
-12.0,-153.0,-183.0,-605.0,102.0,179.0,1
-17.0,-155.0,-189.0,-602.0,89.0,191.0,1
-20.0,-153.0,-191.0,-604.0,91.0,209.0,1
-3.0,-156.0,-190.0,-614.0,96.0,225.0,1
-21.0,-161.0,-200.0,-622.0,111.0,240.0,1
-21.0,-162.0,-202.0,-602.0,105.0,237.0,1
-16.0,-158.0,-204.0,-578.0,111.0,233.0,1
-5.0,-153.0,-210.0,-549.0,129.0,231.0,1
5.0,-142.0,-202.0,-538.0,153.0,241.0,1
0.0,-139.0,-210.0,-564.0,185.0,258.0,1
-3.0,-135.0,-212.0,-592.0,193.0,269.0,1
-11.0,-139.0,-212.0,-611.0,191.0,276.0,1
-16.0,-145.0,-217.0,-613.0,187.0,285.0,1
-15.0,-144.0,-212.0,-620.0,187.0,296.0,1
-19.0,-144.0,-212.0,-626.0,192.0,307.0,1
-12.0,-142.0,-215.0,-632.0,203.0,323.0,1
-8.0,-140.0,-212.0,-640.0,214.0,334.0,1
-4.0,-135.0,-215.0,-652.0,224.0,343.0,1
-12.0,-139.0,-216.0,-666.0,228.0,351.0,1
-13.0,-141.0,-219.0,-679.0,227.0,355.0,1
-13.0,-142.0,-218.0,-690.0,223.0,357.0,1
-14.0,-144.0,-217.0,-694.0,227.0,356.0,1
-22.0,-141.0,-210.0,-701.0,227.0,357.0,1
-16.0,-143.0,-214.0,-711.0,223.0,353.0,1
-18.0,-146.0,-213.0,-720.0,224.0,358.0,1
-17.0,-143.0,-210.0,-732.0,224.0,360.0,1
-19.0,-143.0,-210.0,-747.0,224.0,365.0,1
-20.0,-142.0,-214.0,-758.0,220.0,368.0,1
-19.0,-142.0,-216.0,-760.0,218.0,371.0,1
-15.0,-140.0,-216.0,-760.0,221.0,371.0,1
-19.0,-142.0,-217.0,-755.0,227.0,371.0,1
-13.0,-142.0,-216.0,-749.0,231.0,370.0,1
-14.0,-140.0,-212.0,-742.0,236.0,372.0,1
-13.0,-139.0,-213.0,-737.0,238.0,370.0,1
-19.0,-139.0,-210.0,-734.0,238.0,370.0,1
-18.0,-139.0,-207.0,-732.0,234.0,366.0,1
-24.0,-135.0,-208.0,-724.0,232.0,361.0,1
-29.0,-135.0,-212.0,-717.0,214.0,355.0,1
-7.0,-131.0,-208.0,-710.0,208.0,351.0,1
-4.0,-132.0,-204.0,-708.0,225.0,353.0,1
-20.0,-133.0,-200.0,-711.0,233.0,351.0,1
-19.0,-130.0,-206.0,-706.0,220.0,343.0,1
-17.0,-133.0,-199.0,-699.0,212.0,339.0,1
-22.0,-132.0,-193.0,-692.0,207.0,334.0,1
-6.0,-131.0,-195.0,-681.0,212.0,327.0,1
-16.0,-127.0,-193.0,-665.0,232.0,320.0,1
-17.0,-126.0,-191.0,-653.0,245.0,310.0,1
-15.0,-124.0,-191.0,-647.0,253.0,300.0,1
-15.0,-122.0,-193.0,-642.0,259.0,290.0,1
-12.0,-125.0,-188.0,-641.0,262.0,284.0,1
-12.0,-122.0,-185.0,-641.0,265.0,270.0,1
-18.0,-121.0,-184.0,-638.0,263.0,261.0,1
-18.0,-120.0,-186.0,-632.0,255.0,253.0,1
-14.0,-120.0,-184.0,-626.0,254.0,248.0,1
-14.0,-119.0,-180.0,-623.0,258.0,240.0,1
-14.0,-118.0,-181.0,-617.0,260.0,233.0,1
-12.0,-116.0,-179.0,-617.0,261.0,225.0,1
-10.0,-117.0,-180.0,-613.0,262.0,217.0,1
-9.0,-117.0,-176.0,-610.0,264.0,211.0,1
-8.0,-116.0,-175.0,-606.0,264.0,203.0,1
-6.0,-117.0,-173.0,-609.0,267.0,194.0,1
-9.0,-112.0,-173.0,-611.0,270.0,186.0,1
-12.0,-111.0,-167.0,-600.0,266.0,182.0,1
-12.0,-118.0,-173.0,-582.0,261.0,174.0,1
-1.0,-119.0,-166.0,-565.0,264.0,167.0,1
-8.0,-116.0,-168.0,-550.0,268.0,163.0,1
-5.0,-116.0,-176.0,-533.0,269.0,157.0,1
-7.0,-115.0,-170.0,-522.0,273.0,155.0,1
-4.0,-108.0,-170.0,-511.0,278.0,150.0,1
-7.0,-114.0,-176.0,-500.0,282.0,145.0,1
-4.0,-114.0,-170.0,-490.0,282.0,142.0,1
-4.0,-114.0,-174.0,-482.0,292.0,142.0,1
-1.0,-112.0,-168.0,-476.0,295.0,142.0,1
-2.0,-112.0,-173.0,-471.0,299.0,139.0,1
-1.0,-112.0,-171.0,-466.0,302.0,137.0,1
-3.0,-113.0,-172.0,-465.0,303.0,134.0,1
-4.0,-110.0,-173.0,-458.0,304.0,130.0,1
-3.0,-110.0,-169.0,-456.0,313.0,124.0,1
0.0,-110.0,-169.0,-449.0,323.0,118.0,1
-2.0,-109.0,-170.0,-444.0,335.0,111.0,1
2.0,-108.0,-172.0,-442.0,349.0,108.0,1
0.0,-106.0,-169.0,-441.0,363.0,106.0,1
-3.0,-107.0,-172.0,-440.0,377.0,99.0,1
2.0,-108.0,-174.0,-431.0,388.0,95.0,1
4.0,-111.0,-166.0,-423.0,400.0,91.0,1
-4.0,-111.0,-176.0,-416.0,399.0,83.0,1
2.0,-108.0,-169.0,-403.0,403.0,81.0,1
-4.0,-103.0,-168.0,-411.0,414.0,79.0,1
-1.0,-103.0,-166.0,-437.0,423.0,77.0,1
0.0,-102.0,-163.0,-453.0,437.0,78.0,1
-3.0,-102.0,-165.0,-462.0,448.0,79.0,1
5.0,-99.0,-165.0,-466.0,459.0,90.0,1
3.0,-95.0,-165.0,-467.0,472.0,86.0,1
2.0,-92.0,-166.0,-466.0,487.0,82.0,1
2.0,-92.0,-167.0,-474.0,505.0,85.0,1
11.0,-88.0,-167.0,-486.0,524.0,89.0,1
13.0,-85.0,-165.0,-492.0,545.0,99.0,1
19.0,-84.0,-168.0,-497.0,568.0,106.0,1
16.0,-83.0,-164.0,-505.0,588.0,113.0,1
11.0,-82.0,-164.0,-511.0,598.0,119.0,1
14.0,-83.0,-165.0,-518.0,605.0,124.0,1
14.0,-82.0,-167.0,-525.0,610.0,126.0,1
13.0,-85.0,-170.0,-537.0,612.0,130.0,1
16.0,-87.0,-173.0,-547.0,614.0,133.0,1
15.0,-90.0,-177.0,-548.0,616.0,135.0,1
11.0,-85.0,-179.0,-535.0,612.0,134.0,1
6.0,-81.0,-189.0,-522.0,600.0,131.0,1
6.0,-76.0,-184.0,-516.0,584.0,127.0,1
4.0,-79.0,-193.0,-527.0,562.0,122.0,1
4.0,-78.0,-198.0,-532.0,543.0,114.0,1
3.0,-79.0,-207.0,-525.0,532.0,102.0,1
-4.0,-75.0,-211.0,-518.0,517.0,87.0,1
0.0,-78.0,-219.0,-523.0,501.0,70.0,1
6.0,-80.0,-217.0,-531.0,496.0,50.0,1
9.0,-81.0,-219.0,-538.0,495.0,27.0,1
12.0,-84.0,-218.0,-548.0,494.0,-2.0,1
11.0,-87.0,-214.0,-565.0,489.0,-37.0,1
11.0,-88.0,-212.0,-589.0,479.0,-76.0,1
18.0,-89.0,-212.0,-612.0,470.0,-116.0,1
23.0,-91.0,-210.0,-629.0,466.0,-155.0,1
30.0,-94.0,-215.0,-646.0,462.0,-198.0,1
30.0,-95.0,-211.0,-661.0,457.0,-241.0,1
31.0,-102.0,-210.0,-676.0,452.0,-287.0,1
34.0,-101.0,-217.0,-687.0,449.0,-333.0,1
34.0,-103.0,-213.0,-698.0,452.0,-383.0,1
37.0,-98.0,-218.0,-708.0,458.0,-435.0,1
38.0,-103.0,-220.0,-716.0,464.0,-490.0,1
38.0,-102.0,-218.0,-727.0,472.0,-543.0,1
42.0,-101.0,-223.0,-742.0,478.0,-599.0,1
46.0,-101.0,-232.0,-764.0,481.0,-651.0,1
49.0,-98.0,-227.0,-794.0,476.0,-700.0,1
52.0,-96.0,-239.0,-835.0,464.0,-746.0,1
45.0,-94.0,-242.0,-884.0,442.0,-788.0,1
47.0,-93.0,-246.0,-941.0,412.0,-829.0,1
47.0,-89.0,-247.0,-1012.0,379.0,-866.0,1
49.0,-87.0,-252.0,-1087.0,340.0,-900.0,1
45.0,-84.0,-256.0,-1170.0,294.0,-933.0,1
52.0,-83.0,-256.0,-1264.0,247.0,-963.0,1
58.0,-78.0,-263.0,-1363.0,195.0,-987.0,1
64.0,-75.0,-264.0,-1466.0,127.0,-1004.0,1
69.0,-71.0,-276.0,-1574.0,68.0,-1016.0,1
71.0,-74.0,-278.0,-1679.0,7.0,-1029.0,1
75.0,-72.0,-281.0,-1804.0,-62.0,-1044.0,1
79.0,-76.0,-279.0,-1899.0,-134.0,-1062.0,1
71.0,-74.0,-285.0,-1988.0,-212.0,-1080.0,1
68.0,-73.0,-283.0,-2071.0,-294.0,-1095.0,1
68.0,-71.0,-286.0,-2148.0,-376.0,-1116.0,1
62.0,-71.0,-286.0,-2213.0,-459.0,-1140.0,1
61.0,-69.0,-284.0,-2264.0,-540.0,-1167.0,1
60.0,-65.0,-281.0,-2302.0,-626.0,-1189.0,1
58.0,-62.0,-283.0,-2327.0,-709.0,-1213.0,1
58.0,-57.0,-273.0,-2345.0,-784.0,-1240.0,1
59.0,-53.0,-272.0,-2357.0,-853.0,-1262.0,1
58.0,-47.0,-258.0,-2346.0,-915.0,-1293.0,1
56.0,-35.0,-256.0,-2336.0,-958.0,-1323.0,1
60.0,-38.0,-250.0,-2325.0,-993.0,-1354.0,1
48.0,-25.0,-249.0,-2288.0,-1024.0,-1399.0,1
50.0,-24.0,-246.0,-2239.0,-1058.0,-1462.0,1
37.0,-28.0,-233.0,-2175.0,-1062.0,-1500.0,1
16.0,-11.0,-238.0,-2100.0,-1100.0,-1555.0,1
10.0,-17.0,-227.0,-2042.0,-1165.0,-1615.0,1
9.0,-11.0,-229.0,-1941.0,-1225.0,-1642.0,1
-2.0,-9.0,-211.0,-1849.0,-1316.0,-1668.0,1
-4.0,-15.0,-201.0,-1771.0,-1441.0,-1664.0,1
-13.0,-19.0,-183.0,-1725.0,-1572.0,-1650.0,1
-13.0,-16.0,-172.0,-1703.0,-1702.0,-1621.0,1
-13.0,-9.0,-165.0,-1697.0,-1840.0,-1553.0,1
-19.0,-15.0,-151.0,-1740.0,-1986.0,-1476.0,1
-17.0,-17.0,-146.0,-1784.0,-2178.0,-1433.0,1
7.0,-2.0,-162.0,-1853.0,-2345.0,-1370.0,1
-28.0,-21.0,-147.0,-1941.0,-2397.0,-1172.0,1
-9.0,-13.0,-154.0,-2011.0,-2523.0,-1080.0,1
27.0,24.0,-173.0,-2099.0,-2607.0,-971.0,1
23.0,-12.0,-154.0,-2221.0,-2502.0,-709.0,1
28.0,0.0,-153.0,-2301.0,-2424.0,-565.0,1
46.0,8.0,-171.0,-2399.0,-2304.0,-446.0,1
65.0,4.0,-147.0,-2506.0,-2115.0,-272.0,1
61.0,20.0,-136.0,-2549.0,-1902.0,-78.0,1
50.0,-10.0,-103.0,-2519.0,-1743.0,9.0,1
39.0,-17.0,-103.0,-2389.0,-1683.0,17.0,1
46.0,-8.0,-115.0,-2217.0,-1645.0,12.0,1
61.0,-3.0,-133.0,-2031.0,-1508.0,90.0,1
50.0,4.0,-144.0,-1828.0,-1223.0,290.0,1
26.0,5.0,-156.0,-1560.0,-919.0,527.0,1
22.0,-5.0,-173.0,-1253.0,-708.0,728.0,1
8.0,1.0,-182.0,-984.0,-598.0,819.0,1
8.0,14.0,-168.0,-823.0,-539.0,833.0,1
8.0,28.0,-156.0,-757.0,-478.0,845.0,1
-1.0,40.0,-106.0,-758.0,-414.0,848.0,1
-13.0,61.0,-55.0,-795.0,-367.0,833.0,1
-21.0,76.0,-14.0,-801.0,-321.0,855.0,1
-26.0,96.0,10.0,-729.0,-258.0,869.0,1
-17.0,97.0,14.0,-613.0,-221.0,872.0,1
-4.0,95.0,10.0,-474.0,-154.0,870.0,1
-5.0,90.0,3.0,-313.0,-81.0,837.0,1
-20.0,98.0,0.0,-192.0,-56.0,753.0,1
-37.0,100.0,-24.0,-55.0,-81.0,627.0,1
-68.0,106.0,-45.0,149.0,-183.0,469.0,1
-84.0,121.0,-72.0,405.0,-303.0,313.0,1
-105.0,140.0,-107.0,670.0,-399.0,146.0,1
-96.0,179.0,-136.0,893.0,-414.0,20.0,1
-110.0,242.0,-161.0,1214.0,-430.0,-102.0,1
-131.0,443.0,-260.0,1785.0,-495.0,-252.0,1
-167.0,671.0,-306.0,2741.0,-400.0,-227.0,1
-310.0,976.0,-446.0,4166.0,-180.0,-104.0,1
-253.0,760.0,-311.0,5733.0,629.0,408.0,1
-84.0,576.0,-449.0,6044.0,1011.0,353.0,1
-58.0,637.0,-568.0,4203.0,1113.0,-97.0,1
-190.0,687.0,-377.0,2168.0,986.0,-558.0,1
-121.0,424.0,-273.0,1113.0,978.0,-459.0,1
-99.0,234.0,-275.0,573.0,814.0,-384.0,1
-65.0,1.0,-278.0,128.0,575.0,-133.0,1
-123.0,14.0,-305.0,-48.0,478.0,362.0,1
-147.0,302.0,-503.0,74.0,315.0,1109.0,1
-49.0,-57.0,-667.0,342.0,272.0,1537.0,1
-250.0,229.0,-398.0,722.0,379.0,1263.0,1
-198.0,193.0,-601.0,1061.0,249.0,947.0,1
-122.0,168.0,-602.0,1322.0,283.0,558.0,1
-63.0,198.0,-526.0,1395.0,455.0,212.0,1
92.0,52.0,-431.0,1362.0,441.0,59.0,1
-42.0,418.0,-561.0,1569.0,533.0,-136.0,1
46.0,464.0,-557.0,1557.0,576.0,100.0,1
-59.0,549.0,-453.0,1379.0,748.0,76.0,1
-131.0,604.0,-358.0,1001.0,710.0,245.0,1
-42.0,647.0,-362.0,432.0,483.0,615.0,1
-248.0,449.0,-269.0,-503.0,197.0,859.0,1
9.0,328.0,-271.0,-1075.0,7.0,1014.0,1
-87.0,350.0,-229.0,-1537.0,-174.0,1018.0,1
106.0,189.0,-206.0,-1928.0,-375.0,1135.0,1
-26.0,183.0,-204.0,-2132.0,-475.0,1007.0,1
-27.0,154.0,-185.0,-2274.0,-572.0,855.0,1
-2.0,178.0,-170.0,-2358.0,-662.0,772.0,1
-12.0,162.0,-180.0,-2453.0,-702.0,695.0,1
-2.0,104.0,-155.0,-2485.0,-662.0,562.0,1
-16.0,119.0,-156.0,-2531.0,-592.0,486.0,1
-8.0,154.0,-154.0,-2425.0,-449.0,354.0,1
-25.0,146.0,-145.0,-2282.0,-348.0,291.0,1
-34.0,119.0,-142.0,-2086.0,-312.0,256.0,1
-21.0,163.0,-130.0,-1693.0,-285.0,221.0,1
-15.0,161.0,-121.0,-1335.0,-267.0,227.0,1
-21.0,162.0,-115.0,-1055.0,-210.0,217.0,1
-18.0,184.0,-108.0,-842.0,-155.0,218.0,1
-23.0,227.0,-100.0,-740.0,-116.0,241.0,1
-15.0,220.0,-93.0,-722.0,-96.0,257.0,1
-11.0,184.0,-95.0,-693.0,-73.0,217.0,1
-20.0,172.0,-96.0,-606.0,-49.0,161.0,1
-7.0,138.0,-96.0,-500.0,-38.0,106.0,1
-23.0,127.0,-102.0,-405.0,-19.0,34.0,1
-22.0,101.0,-116.0,-301.0,22.0,-31.0,1
-22.0,112.0,-115.0,-198.0,50.0,-53.0,1
-29.0,128.0,-112.0,-146.0,43.0,-69.0,1
-33.0,128.0,-112.0,-89.0,36.0,-81.0,1
-30.0,108.0,-114.0,-10.0,47.0,-96.0,1
-37.0,118.0,-110.0,120.0,83.0,-114.0,1
-2.0,137.0,-124.0,220.0,121.0,-94.0,1
-13.0,119.0,-122.0,298.0,156.0,-98.0,1
-17.0,124.0,-127.0,405.0,189.0,-119.0,1
-17.0,121.0,-131.0,488.0,225.0,-135.0,1
-32.0,118.0,-144.0,568.0,265.0,-154.0,1
24.0,105.0,-176.0,678.0,307.0,-115.0,1
-16.0,122.0,-169.0,737.0,325.0,-158.0,1
-32.0,124.0,-172.0,777.0,297.0,-200.0,1
-36.0,117.0,-182.0,806.0,279.0,-212.0,1
-31.0,106.0,-190.0,843.0,267.0,-226.0,1
-28.0,108.0,-211.0,895.0,259.0,-220.0,1
-32.0,116.0,-217.0,902.0,250.0,-194.0,1
-244.0,117.0,-205.0,898.0,254.0,-143.0,1
131.0,92.0,-225.0,988.0,321.0,-18.0,1
-38.0,82.0,-229.0,949.0,275.0,-103.0,1
-53.0,121.0,-243.0,918.0,220.0,-86.0,1
-23.0,108.0,-245.0,868.0,210.0,-73.0,1
-19.0,82.0,-239.0,865.0,248.0,-69.0,1
-29.0,107.0,-247.0,886.0,265.0,-72.0,1
-28.0,89.0,-245.0,857.0,266.0,-52.0,1
-35.0,120.0,-254.0,852.0,287.0,-48.0,1
-24.0,93.0,-248.0,837.0,298.0,-41.0,1
-30.0,118.0,-258.0,831.0,308.0,-42.0,1
-23.0,115.0,-258.0,776.0,305.0,-27.0,1
-20.0,114.0,-247.0,736.0,307.0,-26.0,1
-31.0,117.0,-255.0,711.0,300.0,-32.0,1
-26.0,101.0,-257.0,662.0,283.0,-31.0,1
-24.0,104.0,-256.0,616.0,274.0,-33.0,1
-22.0,112.0,-250.0,582.0,266.0,-38.0,1
-25.0,104.0,-250.0,540.0,250.0,-42.0,1
-22.0,99.0,-251.0,480.0,232.0,-41.0,1
-25.0,98.0,-251.0,419.0,207.0,-42.0,1
-19.0,98.0,-230.0,374.0,185.0,-50.0,1
-26.0,106.0,-245.0,368.0,175.0,-61.0,1
-29.0,96.0,-248.0,324.0,155.0,-54.0,1
-27.0,94.0,-240.0,252.0,127.0,-44.0,1
-21.0,99.0,-242.0,178.0,101.0,-31.0,1
-22.0,101.0,-238.0,121.0,86.0,-27.0,1
-23.0,96.0,-234.0,80.0,77.0,-23.0,1
-20.0,94.0,-234.0,52.0,70.0,-19.0,1
-22.0,103.0,-233.0,29.0,65.0,-17.0,1
-20.0,101.0,-234.0,5.0,61.0,-16.0,1
-20.0,97.0,-231.0,-17.0,55.0,-15.0,1
-22.0,97.0,-229.0,-39.0,47.0,-18.0,1
-22.0,97.0,-228.0,-57.0,39.0,-19.0,1
-22.0,100.0,-225.0,-70.0,32.0,-19.0,1
-15.0,92.0,-224.0,-81.0,25.0,-17.0,1
-16.0,96.0,-222.0,-89.0,19.0,-21.0,1
-21.0,97.0,-221.0,-96.0,13.0,-20.0,1
-20.0,101.0,-224.0,-108.0,6.0,-18.0,1
-20.0,96.0,-219.0,-120.0,2.0,-17.0,1
-18.0,97.0,-219.0,-129.0,0.0,-17.0,1
-21.0,98.0,-225.0,-135.0,-4.0,-19.0,1
-19.0,98.0,-223.0,-141.0,-6.0,-20.0,1
-22.0,101.0,-223.0,-146.0,-7.0,-21.0,1
-18.0,99.0,-220.0,-150.0,-11.0,-21.0,1
-26.0,105.0,-216.0,-148.0,-15.0,-21.0,1
-16.0,102.0,-218.0,-149.0,-19.0,-24.0,1
-20.0,104.0,-219.0,-151.0,-26.0,-23.0,1
-20.0,104.0,-219.0,-154.0,-32.0,-22.0,1
-21.0,105.0,-217.0,-153.0,-36.0,-23.0,1
-20.0,106.0,-217.0,-152.0,-41.0,-23.0,1
-19.0,104.0,-213.0,-151.0,-48.0,-25.0,1
-19.0,105.0,-215.0,-149.0,-52.0,-25.0,1
-21.0,110.0,-216.0,-148.0,-61.0,-24.0,1
-20.0,112.0,-214.0,-149.0,-68.0,-21.0,1
-22.0,107.0,-219.0,-151.0,-76.0,-21.0,1
-19.0,105.0,-213.0,-151.0,-82.0,-22.0,1
-21.0,109.0,-208.0,-148.0,-87.0,-22.0,1
-21.0,107.0,-214.0,-145.0,-91.0,-22.0,1
-22.0,113.0,-214.0,-143.0,-94.0,-21.0,1
-22.0,108.0,-212.0,-138.0,-97.0,-21.0,1
-21.0,110.0,-214.0,-131.0,-101.0,-24.0,1
-20.0,112.0,-213.0,-126.0,-105.0,-24.0,1
-24.0,111.0,-214.0,-121.0,-108.0,-24.0,1
-22.0,113.0,-216.0,-117.0,-111.0,-25.0,1
-25.0,113.0,-215.0,-114.0,-112.0,-26.0,1
-18.0,111.0,-216.0,-112.0,-113.0,-27.0,1
-21.0,114.0,-210.0,-111.0,-114.0,-28.0,1
-23.0,117.0,-216.0,-110.0,-113.0,-29.0,1
-27.0,115.0,-216.0,-106.0,-113.0,-27.0,1
-24.0,116.0,-215.0,-102.0,-114.0,-28.0,1
-25.0,117.0,-214.0,-99.0,-114.0,-28.0,1
-25.0,116.0,-213.0,-95.0,-111.0,-28.0,1
-28.0,114.0,-211.0,-92.0,-111.0,-29.0,1
-26.0,116.0,-210.0,-88.0,-108.0,-29.0,1
-27.0,116.0,-212.0,-82.0,-106.0,-28.0,1
-30.0,114.0,-207.0,-76.0,-100.0,-28.0,1
-28.0,115.0,-210.0,-70.0,-94.0,-30.0,1
-28.0,118.0,-209.0,-64.0,-87.0,-31.0,1
-29.0,116.0,-208.0,-57.0,-78.0,-31.0,1
-27.0,119.0,-208.0,-49.0,-73.0,-32.0,1
-28.0,118.0,-211.0,-40.0,-68.0,-35.0,1
-31.0,116.0,-210.0,-32.0,-62.0,-37.0,1
-28.0,117.0,-206.0,-25.0,-58.0,-38.0,1
-29.0,117.0,-207.0,-17.0,-52.0,-39.0,1
-30.0,116.0,-205.0,-9.0,-47.0,-39.0,1
-29.0,116.0,-209.0,-3.0,-42.0,-39.0,1
-29.0,113.0,-208.0,3.0,-39.0,-38.0,1
-29.0,114.0,-208.0,8.0,-36.0,-36.0,1
-29.0,115.0,-210.0,12.0,-33.0,-38.0,1
-29.0,113.0,-208.0,18.0,-30.0,-36.0,1
-32.0,115.0,-206.0,23.0,-26.0,-35.0,1
-38.0,115.0,-206.0,31.0,-19.0,-33.0,1
-30.0,116.0,-210.0,37.0,-11.0,-32.0,1
-27.0,112.0,-212.0,40.0,-11.0,-31.0,1
-32.0,114.0,-212.0,44.0,-6.0,-30.0,1
-30.0,114.0,-211.0,48.0,-2.0,-30.0,1
-27.0,115.0,-208.0,54.0,3.0,-28.0,1
-30.0,115.0,-210.0,60.0,9.0,-27.0,1
-26.0,113.0,-209.0,65.0,15.0,-25.0,1
-27.0,109.0,-210.0,72.0,20.0,-23.0,1
-27.0,114.0,-206.0,78.0,24.0,-20.0,1
-29.0,111.0,-213.0,82.0,28.0,-20.0,1
-28.0,111.0,-209.0,86.0,29.0,-19.0,1
-28.0,114.0,-213.0,88.0,32.0,-17.0,1
-28.0,113.0,-214.0,91.0,34.0,-15.0,1
-25.0,110.0,-209.0,95.0,37.0,-14.0,1
-27.0,108.0,-211.0,97.0,38.0,-13.0,1
-27.0,114.0,-214.0,99.0,41.0,-13.0,1
-29.0,109.0,-212.0,99.0,41.0,-11.0,1
-28.0,113.0,-214.0,100.0,44.0,-10.0,1
-27.0,112.0,-214.0,102.0,46.0,-9.0,1
-27.0,110.0,-214.0,102.0,47.0,-10.0,1
-28.0,112.0,-215.0,103.0,46.0,-7.0,1
-27.0,111.0,-216.0,102.0,47.0,-6.0,1
-26.0,111.0,-219.0,100.0,49.0,-5.0,1
-27.0,115.0,-217.0,97.0,49.0,-5.0,1
-28.0,112.0,-215.0,94.0,49.0,-3.0,1
-30.0,113.0,-217.0,94.0,49.0,-4.0,1
-27.0,113.0,-213.0,90.0,52.0,-3.0,1
-25.0,110.0,-218.0,87.0,52.0,-3.0,1
-27.0,114.0,-219.0,85.0,52.0,-2.0,1
-29.0,113.0,-220.0,84.0,52.0,-2.0,1
-25.0,111.0,-216.0,80.0,52.0,-1.0,1
-27.0,111.0,-221.0,76.0,50.0,-1.0,1
-23.0,110.0,-218.0,73.0,49.0,-1.0,1
-26.0,111.0,-219.0,71.0,48.0,0.0,1
-27.0,110.0,-216.0,67.0,47.0,2.0,1
-26.0,110.0,-220.0,66.0,47.0,0.0,1
-29.0,113.0,-217.0,65.0,45.0,1.0,1
-24.0,109.0,-219.0,63.0,44.0,2.0,1
-25.0,111.0,-216.0,61.0,43.0,0.0,1
-26.0,111.0,-216.0,60.0,40.0,0.0,1
-28.0,113.0,-213.0,59.0,37.0,0.0,1
-24.0,111.0,-219.0,56.0,34.0,-2.0,1
-27.0,112.0,-218.0,55.0,34.0,-3.0,1
-25.0,113.0,-216.0,53.0,31.0,-3.0,1
-28.0,115.0,-216.0,51.0,29.0,-2.0,1
-25.0,115.0,-213.0,51.0,30.0,-4.0,1
-24.0,114.0,-216.0,50.0,28.0,-4.0,1
-24.0,112.0,-216.0,48.0,28.0,-5.0,1
-28.0,114.0,-215.0,49.0,24.0,-6.0,1
-22.0,111.0,-213.0,48.0,22.0,-6.0,1
-25.0,115.0,-214.0,48.0,18.0,-6.0,1
-26.0,111.0,-215.0,48.0,16.0,-5.0,1
-22.0,113.0,-213.0,48.0,14.0,-7.0,1
-24.0,113.0,-215.0,46.0,14.0,-8.0,1
-24.0,114.0,-217.0,47.0,14.0,-8.0,1
-27.0,113.0,-215.0,47.0,14.0,-9.0,1
-25.0,115.0,-215.0,49.0,14.0,-10.0,1
-24.0,113.0,-216.0,49.0,16.0,-9.0,1
-25.0,114.0,-212.0,50.0,17.0,-7.0,1
-23.0,111.0,-214.0,51.0,19.0,-9.0,1
-25.0,113.0,-215.0,53.0,17.0,-8.0,1
-27.0,114.0,-215.0,54.0,18.0,-6.0,1
-27.0,113.0,-216.0,56.0,19.0,-7.0,1
-28.0,113.0,-213.0,59.0,19.0,-9.0,1
-24.0,111.0,-215.0,61.0,19.0,-10.0,1
-28.0,113.0,-217.0,64.0,18.0,-10.0,1
-26.0,115.0,-214.0,66.0,18.0,-9.0,1
-29.0,114.0,-216.0,70.0,18.0,-10.0,1
-28.0,114.0,-211.0,72.0,19.0,-11.0,1
-25.0,112.0,-211.0,75.0,19.0,-12.0,1
-26.0,111.0,-211.0,77.0,19.0,-10.0,1
-27.0,112.0,-214.0,79.0,20.0,-11.0,1
-26.0,112.0,-212.0,81.0,17.0,-10.0,1
-27.0,114.0,-212.0,80.0,16.0,-11.0,1
-27.0,113.0,-215.0,80.0,15.0,-9.0,1
-25.0,113.0,-218.0,80.0,15.0,-9.0,1
-27.0,114.0,-213.0,80.0,14.0,-10.0,1
-26.0,109.0,-212.0,78.0,15.0,-10.0,1
-27.0,114.0,-215.0,76.0,16.0,-9.0,1
-25.0,114.0,-216.0,76.0,16.0,-8.0,1
-24.0,111.0,-216.0,75.0,17.0,-9.0,1
-28.0,115.0,-211.0,75.0,17.0,-9.0,1
-26.0,112.0,-216.0,75.0,19.0,-10.0,1
-25.0,115.0,-218.0,75.0,20.0,-11.0,1
-26.0,111.0,-214.0,75.0,19.0,-8.0,1
-27.0,113.0,-217.0,75.0,18.0,-10.0,1
-28.0,112.0,-218.0,75.0,18.0,-11.0,1
-24.0,110.0,-217.0,76.0,18.0,-10.0,1
-25.0,111.0,-216.0,75.0,20.0,-10.0,1
-26.0,111.0,-219.0,75.0,18.0,-10.0,1
-25.0,112.0,-214.0,73.0,18.0,-11.0,1
-26.0,114.0,-215.0,72.0,17.0,-12.0,1
-24.0,111.0,-219.0,71.0,17.0,-12.0,1
-23.0,112.0,-215.0,69.0,16.0,-12.0,1
-26.0,109.0,-216.0,68.0,15.0,-13.0,1
-26.0,111.0,-216.0,67.0,12.0,-13.0,1
-22.0,113.0,-217.0,66.0,11.0,-13.0,1
-26.0,111.0,-217.0,64.0,9.0,-13.0,1
-26.0,113.0,-220.0,61.0,8.0,-13.0,1
-26.0,117.0,-216.0,61.0,8.0,-14.0,1
-25.0,112.0,-215.0,59.0,8.0,-16.0,1
-25.0,110.0,-220.0,57.0,7.0,-16.0,1
-27.0,113.0,-217.0,55.0,7.0,-15.0,1
-24.0,108.0,-218.0,53.0,7.0,-17.0,1
-25.0,114.0,-220.0,53.0,8.0,-15.0,1
-22.0,106.0,-205.0,52.0,8.0,-15.0,1
-27.0,109.0,-216.0,51.0,9.0,-15.0,1
-24.0,111.0,-217.0,50.0,10.0,-15.0,1
-28.0,109.0,-210.0,49.0,10.0,-13.0,1
-23.0,108.0,-217.0,48.0,10.0,-15.0,1
-25.0,109.0,-213.0,47.0,11.0,-13.0,1
-26.0,109.0,-217.0,48.0,12.0,-14.0,1
-25.0,111.0,-212.0,49.0,11.0,-13.0,1
-26.0,108.0,-216.0,50.0,11.0,-13.0,1
-27.0,108.0,-213.0,51.0,10.0,-12.0,1
-26.0,111.0,-217.0,51.0,12.0,-12.0,1
-24.0,109.0,-215.0,52.0,13.0,-13.0,1
-26.0,109.0,-215.0,52.0,13.0,-12.0,1
-25.0,111.0,-211.0,53.0,15.0,-12.0,1
-23.0,109.0,-213.0,54.0,16.0,-11.0,1
-24.0,110.0,-219.0,54.0,15.0,-10.0,1
-26.0,113.0,-213.0,53.0,16.0,-11.0,1
-25.0,111.0,-213.0,54.0,15.0,-11.0,1
-27.0,112.0,-217.0,55.0,16.0,-8.0,1
-28.0,110.0,-215.0,57.0,16.0,-9.0,1
-24.0,110.0,-212.0,57.0,16.0,-9.0,1
-27.0,114.0,-214.0,58.0,14.0,-10.0,1
-25.0,111.0,-214.0,58.0,15.0,-9.0,1
-26.0,112.0,-215.0,58.0,16.0,-10.0,1
-23.0,111.0,-214.0,59.0,19.0,-8.0,1
-22.0,109.0,-217.0,58.0,20.0,-10.0,1
-25.0,110.0,-214.0,60.0,20.0,-9.0,1
-25.0,110.0,-217.0,62.0,20.0,-9.0,1
-25.0,111.0,-217.0,63.0,20.0,-9.0,1
-24.0,112.0,-214.0,64.0,19.0,-8.0,1
-24.0,109.0,-215.0,64.0,18.0,-8.0,1
-25.0,111.0,-215.0,64.0,19.0,-10.0,1
-25.0,111.0,-212.0,63.0,18.0,-9.0,1
-38.0,114.0,-213.0,61.0,19.0,-8.0,1
-27.0,113.0,-217.0,60.0,18.0,-8.0,1
-24.0,113.0,-213.0,58.0,18.0,-9.0,1
-27.0,112.0,-215.0,56.0,18.0,-9.0,1
-24.0,111.0,-217.0,53.0,19.0,-9.0,1
-28.0,110.0,-216.0,51.0,19.0,-7.0,1
-28.0,114.0,-215.0,51.0,19.0,-7.0,1
-26.0,107.0,-215.0,50.0,19.0,-7.0,1
-24.0,110.0,-218.0,49.0,20.0,-6.0,1
-24.0,109.0,-219.0,49.0,20.0,-8.0,1
-25.0,112.0,-216.0,51.0,20.0,-7.0,1
-24.0,109.0,-217.0,55.0,19.0,-6.0,1
-26.0,112.0,-217.0,60.0,20.0,-7.0,1
-28.0,114.0,-218.0,64.0,20.0,-8.0,1
-26.0,115.0,-217.0,64.0,17.0,-7.0,1
-29.0,114.0,-217.0,61.0,16.0,-7.0,1
-25.0,112.0,-222.0,59.0,18.0,-9.0,1
-26.0,113.0,-218.0,57.0,18.0,-9.0,1
-26.0,112.0,-220.0,54.0,17.0,-8.0,1
-23.0,110.0,-220.0,53.0,18.0,-9.0,1
-25.0,113.0,-215.0,52.0,17.0,-9.0,1
-25.0,117.0,-214.0,51.0,17.0,-10.0,1
-27.0,110.0,-216.0,49.0,17.0,-10.0,1
-28.0,114.0,-219.0,49.0,16.0,-11.0,1
-25.0,112.0,-216.0,49.0,15.0,-11.0,1
-26.0,113.0,-217.0,47.0,13.0,-10.0,1
-23.0,109.0,-215.0,46.0,13.0,-10.0,1
-24.0,113.0,-218.0,47.0,13.0,-10.0,1
-25.0,111.0,-212.0,45.0,13.0,-10.0,1
-24.0,110.0,-216.0,44.0,13.0,-10.0,1
-29.0,111.0,-216.0,45.0,14.0,-11.0,1
-26.0,112.0,-216.0,45.0,13.0,-10.0,1
-22.0,110.0,-215.0,47.0,14.0,-12.0,1
-25.0,112.0,-220.0,47.0,15.0,-12.0,1
-26.0,112.0,-216.0,49.0,14.0,-12.0,1
-25.0,112.0,-214.0,48.0,14.0,-11.0,1
-24.0,109.0,-215.0,49.0,14.0,-12.0,1
-25.0,113.0,-215.0,50.0,13.0,-12.0,1
-25.0,111.0,-213.0,50.0,14.0,-12.0,1
-24.0,113.0,-216.0,51.0,14.0,-11.0,1
-23.0,111.0,-216.0,52.0,16.0,-11.0,1
-23.0,108.0,-216.0,52.0,15.0,-11.0,1
-26.0,112.0,-219.0,52.0,15.0,-10.0,1
-25.0,110.0,-216.0,53.0,16.0,-10.0,1
-24.0,111.0,-215.0,53.0,16.0,-10.0,1
-24.0,109.0,-215.0,54.0,16.0,-12.0,1
-24.0,114.0,-218.0,54.0,16.0,-11.0,1
-24.0,109.0,-214.0,54.0,15.0,-9.0,1
-25.0,113.0,-216.0,53.0,15.0,-10.0,1
-25.0,112.0,-216.0,54.0,14.0,-11.0,1
-27.0,111.0,-215.0,53.0,15.0,-11.0,1
-28.0,110.0,-217.0,52.0,15.0,-10.0,1
-22.0,112.0,-214.0,51.0,17.0,-11.0,1
-23.0,109.0,-215.0,51.0,18.0,-9.0,1
-26.0,112.0,-214.0,50.0,19.0,-9.0,1
-25.0,111.0,-218.0,50.0,19.0,-10.0,1
-26.0,109.0,-216.0,50.0,20.0,-9.0,1
-25.0,111.0,-214.0,52.0,19.0,-8.0,1
-27.0,112.0,-214.0,53.0,20.0,-9.0,1
-22.0,109.0,-212.0,53.0,20.0,-9.0,1
-25.0,112.0,-216.0,53.0,21.0,-9.0,1
-24.0,107.0,-214.0,52.0,21.0,-9.0,1
-25.0,112.0,-213.0,51.0,19.0,-9.0,1
-24.0,115.0,-217.0,49.0,20.0,-9.0,1
-25.0,111.0,-212.0,48.0,19.0,-9.0,1
-24.0,109.0,-218.0,47.0,19.0,-9.0,1
-26.0,114.0,-217.0,44.0,19.0,-9.0,1
-26.0,112.0,-217.0,45.0,18.0,-9.0,1
-28.0,110.0,-218.0,45.0,18.0,-10.0,1
-26.0,112.0,-214.0,45.0,19.0,-10.0,1
-25.0,114.0,-217.0,46.0,20.0,-10.0,1
-27.0,114.0,-215.0,46.0,19.0,-8.0,1
-27.0,111.0,-215.0,45.0,17.0,-9.0,1
-25.0,111.0,-217.0,43.0,15.0,-8.0,1
-24.0,108.0,-217.0,42.0,16.0,-8.0,1
-24.0,110.0,-212.0,40.0,18.0,-9.0,1
-24.0,111.0,-213.0,41.0,19.0,-8.0,1
-26.0,115.0,-216.0,43.0,20.0,-8.0,1
-26.0,112.0,-210.0,45.0,18.0,-8.0,1
-25.0,114.0,-214.0,45.0,19.0,-8.0,1
-24.0,113.0,-218.0,45.0,18.0,-10.0,1
-25.0,114.0,-216.0,45.0,17.0,-10.0,1
-27.0,114.0,-216.0,46.0,17.0,-12.0,1
-25.0,110.0,-212.0,45.0,16.0,-12.0,1
-25.0,115.0,-218.0,45.0,16.0,-10.0,1
-26.0,111.0,-220.0,45.0,15.0,-10.0,1
-23.0,112.0,-217.0,45.0,16.0,-9.0,1
-26.0,113.0,-214.0,44.0,15.0,-11.0,1
-28.0,112.0,-216.0,42.0,15.0,-8.0,1
-25.0,111.0,-214.0,43.0,15.0,-8.0,1
-26.0,112.0,-218.0,42.0,14.0,-11.0,1
-26.0,111.0,-215.0,40.0,12.0,-10.0,1
-23.0,111.0,-213.0,41.0,12.0,-11.0,1
-21.0,110.0,-213.0,42.0,12.0,-11.0,1
-23.0,110.0,-217.0,41.0,10.0,-13.0,1
-26.0,113.0,-215.0,40.0,11.0,-12.0,1
-28.0,111.0,-217.0,41.0,10.0,-13.0,1
-25.0,112.0,-216.0,43.0,11.0,-12.0,1
-25.0,109.0,-203.0,42.0,11.0,-12.0,1
-26.0,111.0,-215.0,42.0,13.0,-12.0,1
-24.0,113.0,-216.0,43.0,12.0,-13.0,1
-25.0,114.0,-215.0,43.0,11.0,-12.0,1
-27.0,112.0,-215.0,43.0,10.0,-13.0,1
-28.0,115.0,-213.0,43.0,10.0,-10.0,1
-23.0,110.0,-211.0,42.0,11.0,-11.0,1
-24.0,113.0,-212.0,43.0,10.0,-12.0,1
-27.0,110.0,-217.0,43.0,10.0,-13.0,1
-24.0,113.0,-214.0,43.0,12.0,-12.0,1
-24.0,109.0,-215.0,44.0,12.0,-12.0,1
-24.0,112.0,-218.0,45.0,12.0,-12.0,1
-21.0,112.0,-213.0,45.0,13.0,-12.0,1
-25.0,112.0,-215.0,46.0,12.0,-12.0,1
-26.0,111.0,-215.0,46.0,13.0,-12.0,1
-25.0,109.0,-217.0,46.0,13.0,-12.0,1
-26.0,113.0,-217.0,47.0,12.0,-12.0,1
-24.0,113.0,-217.0,47.0,12.0,-12.0,1
-26.0,112.0,-217.0,49.0,12.0,-12.0,1
-26.0,109.0,-219.0,48.0,14.0,-10.0,1
-25.0,109.0,-216.0,49.0,14.0,-11.0,1
-26.0,113.0,-214.0,49.0,16.0,-11.0,1
-27.0,112.0,-216.0,50.0,17.0,-12.0,1
-24.0,112.0,-213.0,51.0,15.0,-11.0,1
-27.0,110.0,-213.0,52.0,16.0,-11.0,1
-27.0,113.0,-213.0,52.0,17.0,-10.0,1
-26.0,111.0,-215.0,52.0,17.0,-11.0,1
-22.0,112.0,-218.0,52.0,16.0,-10.0,1
-24.0,111.0,-216.0,53.0,18.0,-10.0,1
-28.0,112.0,-215.0,53.0,19.0,-10.0,1
-26.0,109.0,-214.0,54.0,19.0,-9.0,1
-25.0,110.0,-221.0,55.0,19.0,-10.0,1
-25.0,113.0,-218.0,56.0,21.0,-8.0,1
-16.0,119.0,-216.0,55.0,21.0,-8.0,1
-23.0,110.0,-216.0,54.0,21.0,-8.0,1
-28.0,115.0,-216.0,55.0,20.0,-7.0,1
-20.0,110.0,-214.0,56.0,22.0,-7.0,1
-24.0,113.0,-214.0,56.0,22.0,-8.0,1
-23.0,109.0,-213.0,56.0,22.0,-7.0,1
-26.0,114.0,-211.0,56.0,22.0,-8.0,1
-26.0,108.0,-213.0,54.0,22.0,-7.0,1
-26.0,110.0,-216.0,54.0,21.0,-8.0,1
-27.0,111.0,-218.0,54.0,22.0,-8.0,1
-24.0,110.0,-214.0,54.0,23.0,-7.0,1
-27.0,112.0,-214.0,54.0,22.0,-7.0,1
-27.0,113.0,-218.0,54.0,22.0,-8.0,1
-23.0,113.0,-216.0,54.0,22.0,-7.0,1
-24.0,112.0,-217.0,53.0,22.0,-8.0,1
-27.0,113.0,-216.0,53.0,22.0,-7.0,1
-27.0,113.0,-220.0,54.0,22.0,-9.0,1
-24.0,112.0,-212.0,53.0,22.0,-8.0,1
-21.0,108.0,-214.0,53.0,23.0,-8.0,1
-25.0,108.0,-214.0,53.0,23.0,-8.0,1
-24.0,112.0,-219.0,53.0,22.0,-9.0,1
-22.0,112.0,-214.0,53.0,21.0,-9.0,1
-24.0,111.0,-217.0,53.0,22.0,-8.0,1
-26.0,114.0,-217.0,52.0,20.0,-7.0,1
-23.0,110.0,-215.0,51.0,21.0,-7.0,1
-26.0,114.0,-218.0,51.0,20.0,-7.0,1
-26.0,113.0,-216.0,51.0,18.0,-8.0,1
-24.0,112.0,-213.0,51.0,18.0,-10.0,1
-27.0,111.0,-218.0,50.0,17.0,-9.0,1
-24.0,111.0,-216.0,50.0,14.0,-10.0,1
-23.0,111.0,-215.0,49.0,16.0,-10.0,1
-23.0,112.0,-218.0,48.0,14.0,-11.0,1
-25.0,111.0,-218.0,48.0,14.0,-10.0,1
-26.0,112.0,-216.0,48.0,13.0,-10.0,1
-23.0,112.0,-215.0,47.0,12.0,-9.0,1
-24.0,113.0,-215.0,46.0,12.0,-9.0,1
-22.0,114.0,-213.0,45.0,12.0,-8.0,1
-25.0,112.0,-219.0,46.0,10.0,-9.0,1
-21.0,114.0,-215.0,44.0,11.0,-9.0,1
-25.0,112.0,-218.0,45.0,11.0,-12.0,1
-27.0,114.0,-215.0,46.0,11.0,-13.0,1
-23.0,110.0,-213.0,45.0,9.0,-13.0,1
-26.0,114.0,-217.0,44.0,9.0,-13.0,1
-27.0,112.0,-215.0,45.0,10.0,-11.0,1
-25.0,112.0,-215.0,44.0,9.0,-11.0,1
-22.0,113.0,-211.0,44.0,10.0,-12.0,1
-26.0,110.0,-218.0,45.0,11.0,-10.0,1
-27.0,114.0,-215.0,45.0,10.0,-12.0,1
-27.0,112.0,-214.0,45.0,10.0,-13.0,1
-23.0,113.0,-217.0,45.0,11.0,-13.0,1
-26.0,111.0,-213.0,47.0,11.0,-12.0,1
-24.0,109.0,-215.0,47.0,12.0,-13.0,1
-27.0,110.0,-216.0,47.0,12.0,-12.0,1
-25.0,108.0,-212.0,49.0,12.0,-12.0,1
-24.0,109.0,-213.0,48.0,12.0,-12.0,1
-25.0,112.0,-213.0,50.0,11.0,-12.0,1
-25.0,111.0,-214.0,49.0,11.0,-11.0,1
-24.0,109.0,-221.0,51.0,13.0,-10.0,1
-24.0,110.0,-214.0,49.0,13.0,-13.0,1
-25.0,111.0,-215.0,49.0,12.0,-11.0,1
-26.0,112.0,-213.0,46.0,13.0,-11.0,1
-22.0,110.0,-216.0,49.0,14.0,-10.0,1
-24.0,111.0,-213.0,49.0,14.0,-10.0,1
-25.0,110.0,-212.0,50.0,15.0,-10.0,1
-25.0,112.0,-215.0,51.0,16.0,-10.0,1
-27.0,109.0,-213.0,54.0,18.0,-8.0,1
-25.0,110.0,-215.0,57.0,19.0,-8.0,1
-23.0,114.0,-215.0,61.0,20.0,-10.0,1
-22.0,113.0,-214.0,65.0,20.0,-8.0,1
-27.0,112.0,-220.0,66.0,19.0,-10.0,1
-23.0,113.0,-219.0,66.0,19.0,-9.0,1
-25.0,113.0,-217.0,64.0,17.0,-7.0,1
-27.0,110.0,-221.0,60.0,17.0,-9.0,1
-25.0,114.0,-214.0,58.0,17.0,-8.0,1
-26.0,113.0,-219.0,56.0,17.0,-8.0,1
-25.0,111.0,-216.0,55.0,16.0,-9.0,1
-24.0,111.0,-216.0,53.0,17.0,-11.0,1
-23.0,113.0,-214.0,53.0,16.0,-10.0,1
-21.0,113.0,-216.0,53.0,18.0,-11.0,1
-25.0,111.0,-217.0,52.0,17.0,-11.0,1
-24.0,109.0,-216.0,52.0,17.0,-10.0,1
-25.0,114.0,-215.0,50.0,17.0,-8.0,1
-28.0,112.0,-212.0,49.0,15.0,-8.0,1
-25.0,110.0,-215.0,48.0,14.0,-8.0,1
-24.0,109.0,-217.0,48.0,14.0,-9.0,1
-22.0,109.0,-217.0,48.0,15.0,-9.0,1
-23.0,113.0,-216.0,48.0,14.0,-8.0,1
-26.0,112.0,-218.0,47.0,15.0,-7.0,1
-23.0,113.0,-220.0,49.0,15.0,-9.0,1
-29.0,112.0,-212.0,48.0,15.0,-9.0,1
-23.0,110.0,-216.0,48.0,14.0,-9.0,1
-25.0,111.0,-214.0,48.0,14.0,-11.0,1
-23.0,111.0,-215.0,48.0,15.0,-10.0,1
-24.0,114.0,-218.0,48.0,15.0,-9.0,1
-23.0,109.0,-217.0,47.0,16.0,-9.0,1
-26.0,112.0,-217.0,48.0,16.0,-11.0,1
-26.0,112.0,-218.0,47.0,15.0,-11.0,1
-24.0,109.0,-219.0,45.0,14.0,-10.0,1
-22.0,109.0,-217.0,44.0,14.0,-11.0,1
-26.0,112.0,-213.0,43.0,14.0,-10.0,1
-24.0,109.0,-215.0,42.0,13.0,-11.0,1
-24.0,111.0,-217.0,42.0,12.0,-11.0,1
-24.0,112.0,-214.0,42.0,12.0,-11.0,1
-25.0,113.0,-217.0,41.0,11.0,-11.0,1
-26.0,110.0,-215.0,40.0,10.0,-11.0,1
-23.0,112.0,-215.0,41.0,10.0,-11.0,1
-27.0,115.0,-215.0,41.0,9.0,-12.0,1
-26.0,114.0,-216.0,40.0,9.0,-12.0,1
-23.0,109.0,-216.0,40.0,9.0,-11.0,1
-25.0,115.0,-215.0,41.0,9.0,-13.0,1
-26.0,112.0,-218.0,42.0,9.0,-12.0,1
-26.0,112.0,-215.0,43.0,8.0,-11.0,1
-24.0,110.0,-212.0,43.0,7.0,-12.0,1
-29.0,113.0,-213.0,42.0,8.0,-12.0,1
-25.0,113.0,-217.0,42.0,8.0,-13.0,1
-21.0,110.0,-212.0,42.0,9.0,-11.0,1
-27.0,112.0,-212.0,40.0,9.0,-11.0,1
-23.0,113.0,-218.0,38.0,10.0,-12.0,1
-22.0,109.0,-215.0,36.0,10.0,-12.0,1
-24.0,113.0,-215.0,35.0,9.0,-11.0,1
-24.0,109.0,-218.0,35.0,9.0,-11.0,1
-27.0,108.0,-213.0,37.0,10.0,-10.0,1
-22.0,110.0,-213.0,41.0,11.0,-10.0,1
-25.0,113.0,-213.0,42.0,13.0,-11.0,1
-21.0,112.0,-211.0,45.0,12.0,-12.0,1
-25.0,109.0,-214.0,48.0,13.0,-12.0,1
-22.0,111.0,-216.0,48.0,11.0,-12.0,1
-25.0,109.0,-213.0,49.0,11.0,-11.0,1
-26.0,112.0,-213.0,49.0,11.0,-10.0,1
-21.0,110.0,-215.0,50.0,12.0,-11.0,1
-26.0,110.0,-217.0,50.0,13.0,-11.0,1
-22.0,105.0,-211.0,52.0,13.0,-10.0,1
-24.0,111.0,-211.0,53.0,13.0,-9.0,1
-30.0,114.0,-213.0,53.0,13.0,-10.0,1
-26.0,112.0,-216.0,55.0,15.0,-9.0,1
-24.0,110.0,-217.0,55.0,16.0,-10.0,1
-24.0,112.0,-214.0,56.0,17.0,-9.0,1
-26.0,114.0,-215.0,58.0,18.0,-9.0,1
-24.0,112.0,-218.0,57.0,18.0,-9.0,1
-25.0,108.0,-214.0,56.0,17.0,-9.0,1
-23.0,110.0,-213.0,57.0,17.0,-9.0,1
-23.0,113.0,-218.0,58.0,18.0,-7.0,1
-23.0,110.0,-216.0,58.0,17.0,-8.0,1
-21.0,111.0,-215.0,57.0,18.0,-8.0,1
-26.0,111.0,-220.0,59.0,19.0,-7.0,1
-28.0,113.0,-216.0,58.0,18.0,-7.0,1
-24.0,110.0,-213.0,57.0,17.0,-10.0,1
-25.0,110.0,-218.0,58.0,17.0,-9.0,1
-24.0,110.0,-218.0,58.0,19.0,-9.0,1
-22.0,114.0,-210.0,58.0,19.0,-8.0,1
-25.0,113.0,-216.0,58.0,18.0,-7.0,1
-26.0,111.0,-217.0,58.0,19.0,-9.0,1
-24.0,109.0,-217.0,58.0,18.0,-10.0,1
-26.0,113.0,-212.0,57.0,20.0,-9.0,1
-26.0,114.0,-212.0,57.0,20.0,-8.0,1
-26.0,113.0,-215.0,57.0,20.0,-9.0,1
-26.0,112.0,-216.0,57.0,21.0,-7.0,1
-27.0,113.0,-218.0,57.0,20.0,-8.0,1
-27.0,112.0,-221.0,57.0,21.0,-7.0,1
-26.0,110.0,-216.0,56.0,20.0,-9.0,1
-27.0,110.0,-218.0,56.0,21.0,-9.0,1
-26.0,111.0,-213.0,57.0,21.0,-6.0,1
-27.0,113.0,-215.0,55.0,21.0,-9.0,1
-25.0,113.0,-213.0,55.0,21.0,-8.0,1
-22.0,111.0,-216.0,55.0,21.0,-7.0,1
-25.0,113.0,-214.0,56.0,20.0,-9.0,1
-26.0,108.0,-210.0,55.0,20.0,-9.0,1
-23.0,112.0,-215.0,54.0,21.0,-9.0,1
-26.0,111.0,-216.0,53.0,20.0,-9.0,1
-25.0,111.0,-216.0,52.0,20.0,-10.0,1
-23.0,111.0,-213.0,53.0,20.0,-9.0,1
-24.0,111.0,-213.0,53.0,20.0,-8.0,1
-24.0,112.0,-215.0,53.0,20.0,-9.0,1
-26.0,109.0,-219.0,53.0,20.0,-9.0,1
-19.0,106.0,-210.0,54.0,18.0,-8.0,1
-25.0,111.0,-217.0,55.0,19.0,-9.0,1
-25.0,114.0,-213.0,55.0,18.0,-9.0,1
-21.0,112.0,-217.0,56.0,17.0,-10.0,1
-27.0,114.0,-218.0,56.0,17.0,-9.0,1
-26.0,111.0,-216.0,55.0,15.0,-8.0,1
-25.0,115.0,-219.0,56.0,13.0,-10.0,1
-24.0,112.0,-215.0,56.0,14.0,-10.0,1
-25.0,112.0,-217.0,57.0,13.0,-11.0,1
-25.0,109.0,-215.0,58.0,12.0,-11.0,1
-23.0,108.0,-216.0,59.0,11.0,-10.0,1
-23.0,109.0,-213.0,59.0,8.0,-11.0,1
-24.0,115.0,-216.0,60.0,7.0,-13.0,1
-25.0,111.0,-215.0,62.0,5.0,-13.0,1
-23.0,108.0,-217.0,63.0,4.0,-12.0,1
-23.0,111.0,-217.0,63.0,2.0,-14.0,1
-25.0,112.0,-215.0,65.0,2.0,-15.0,1
-26.0,109.0,-215.0,66.0,0.0,-16.0,1
-24.0,113.0,-213.0,68.0,-3.0,-18.0,1
-23.0,108.0,-216.0,70.0,-5.0,-17.0,1
-26.0,109.0,-221.0,72.0,-6.0,-17.0,1
-22.0,109.0,-215.0,73.0,-7.0,-18.0,1
-25.0,108.0,-217.0,72.0,-5.0,-17.0,1
-23.0,113.0,-218.0,72.0,-5.0,-17.0,1
-22.0,109.0,-217.0,71.0,-4.0,-18.0,1
-27.0,113.0,-217.0,70.0,-2.0,-17.0,1
-24.0,110.0,-214.0,68.0,-2.0,-15.0,1
-25.0,110.0,-215.0,66.0,0.0,-14.0,1
-21.0,109.0,-217.0,63.0,0.0,-15.0,1
-25.0,110.0,-214.0,62.0,2.0,-15.0,1
-28.0,109.0,-212.0,61.0,4.0,-15.0,1
-22.0,108.0,-210.0,59.0,4.0,-13.0,1
-27.0,111.0,-212.0,60.0,4.0,-14.0,1
-36.0,110.0,-214.0,59.0,6.0,-14.0,1
-29.0,115.0,-217.0,59.0,6.0,-13.0,1
-26.0,109.0,-212.0,59.0,7.0,-13.0,1
-25.0,113.0,-214.0,59.0,8.0,-11.0,1
-25.0,111.0,-218.0,57.0,8.0,-12.0,1
-26.0,113.0,-217.0,58.0,7.0,-12.0,1
-23.0,113.0,-216.0,55.0,8.0,-13.0,1
-29.0,111.0,-216.0,52.0,10.0,-13.0,1
-24.0,112.0,-218.0,50.0,10.0,-12.0,1
-24.0,110.0,-221.0,48.0,11.0,-12.0,1
-25.0,111.0,-216.0,45.0,11.0,-10.0,1
-24.0,112.0,-216.0,44.0,11.0,-10.0,1
-27.0,110.0,-219.0,42.0,11.0,-9.0,1
-25.0,111.0,-219.0,42.0,13.0,-11.0,1
-25.0,112.0,-218.0,42.0,13.0,-10.0,1
-23.0,112.0,-216.0,40.0,12.0,-9.0,1
-23.0,111.0,-214.0,41.0,13.0,-10.0,1
-23.0,112.0,-216.0,41.0,16.0,-9.0,1
-26.0,112.0,-221.0,44.0,15.0,-11.0,1
-28.0,113.0,-214.0,42.0,15.0,-10.0,1
-26.0,109.0,-216.0,43.0,15.0,-10.0,1
-23.0,108.0,-214.0,43.0,15.0,-10.0,1
-28.0,110.0,-219.0,42.0,16.0,-7.0,1
-25.0,112.0,-212.0,44.0,17.0,-8.0,1
-26.0,111.0,-215.0,44.0,17.0,-8.0,1
-25.0,112.0,-213.0,44.0,18.0,-8.0,1
-24.0,110.0,-214.0,45.0,19.0,-8.0,1
-24.0,112.0,-214.0,44.0,19.0,-9.0,1
-25.0,111.0,-215.0,46.0,20.0,-9.0,1
-24.0,111.0,-211.0,47.0,21.0,-9.0,1
-24.0,113.0,-210.0,49.0,22.0,-8.0,1
-23.0,106.0,-213.0,51.0,23.0,-7.0,1
-25.0,110.0,-215.0,53.0,24.0,-7.0,1
-25.0,110.0,-214.0,55.0,25.0,-7.0,1
-25.0,111.0,-215.0,54.0,26.0,-6.0,1
-22.0,108.0,-212.0,53.0,25.0,-6.0,1
-26.0,113.0,-214.0,53.0,25.0,-7.0,1
-27.0,110.0,-214.0,52.0,25.0,-7.0,1
-23.0,108.0,-219.0,54.0,25.0,-6.0,1
-23.0,112.0,-215.0,54.0,24.0,-6.0,1
-23.0,110.0,-213.0,56.0,25.0,-5.0,1
-26.0,112.0,-213.0,59.0,26.0,-4.0,1
-23.0,112.0,-216.0,63.0,27.0,-4.0,1
-27.0,113.0,-216.0,67.0,28.0,-3.0,1
-23.0,109.0,-218.0,72.0,29.0,-3.0,1
-23.0,112.0,-221.0,75.0,30.0,-4.0,1
-26.0,110.0,-220.0,77.0,28.0,-3.0,1
-25.0,113.0,-220.0,78.0,28.0,-5.0,1
-23.0,111.0,-216.0,73.0,27.0,-5.0,1
-23.0,115.0,-219.0,70.0,26.0,-4.0,1
-24.0,111.0,-220.0,67.0,27.0,-4.0,1
-23.0,112.0,-215.0,65.0,26.0,-5.0,1
-27.0,113.0,-217.0,66.0,24.0,-5.0,1
-25.0,113.0,-220.0,64.0,23.0,-6.0,1
-22.0,114.0,-217.0,64.0,22.0,-7.0,1
-23.0,112.0,-220.0,62.0,21.0,-7.0,1
-24.0,109.0,-216.0,60.0,19.0,-7.0,1
-25.0,110.0,-219.0,59.0,18.0,-8.0,1
-25.0,109.0,-216.0,58.0,17.0,-7.0,1
-24.0,113.0,-219.0,57.0,18.0,-6.0,1
-24.0,114.0,-217.0,54.0,17.0,-6.0,1
-25.0,109.0,-219.0,53.0,17.0,-8.0,1
-24.0,111.0,-215.0,51.0,16.0,-7.0,1
-25.0,115.0,-213.0,50.0,17.0,-7.0,1
-22.0,112.0,-216.0,49.0,15.0,-8.0,1
-25.0,130.0,-216.0,48.0,16.0,-9.0,1
-21.0,110.0,-212.0,47.0,15.0,-9.0,1
-26.0,109.0,-213.0,49.0,16.0,-10.0,1
-23.0,112.0,-217.0,49.0,14.0,-11.0,1
-24.0,110.0,-214.0,51.0,13.0,-10.0,1
-23.0,112.0,-215.0,52.0,14.0,-9.0,1
-21.0,111.0,-213.0,52.0,14.0,-10.0,1
-26.0,113.0,-218.0,52.0,13.0,-9.0,1
-26.0,109.0,-215.0,53.0,13.0,-10.0,1
-23.0,111.0,-218.0,52.0,14.0,-9.0,1
-21.0,109.0,-219.0,51.0,12.0,-9.0,1
-23.0,108.0,-217.0,53.0,14.0,-11.0,1
-22.0,109.0,-214.0,52.0,13.0,-10.0,1
-25.0,112.0,-215.0,52.0,12.0,-11.0,1
-26.0,110.0,-216.0,51.0,12.0,-9.0,1
-25.0,110.0,-216.0,51.0,12.0,-10.0,1
-26.0,112.0,-215.0,51.0,10.0,-10.0,1
-23.0,111.0,-219.0,51.0,11.0,-10.0,1
-23.0,110.0,-217.0,51.0,11.0,-10.0,1
-25.0,108.0,-216.0,52.0,12.0,-11.0,1
-24.0,112.0,-214.0,52.0,12.0,-11.0,1
-25.0,110.0,-217.0,53.0,11.0,-11.0,1
-25.0,112.0,-215.0,55.0,11.0,-11.0,1
-22.0,112.0,-216.0,55.0,12.0,-12.0,1
-23.0,108.0,-217.0,54.0,11.0,-12.0,1
-24.0,112.0,-214.0,55.0,11.0,-12.0,1
-26.0,111.0,-213.0,55.0,12.0,-9.0,1
-23.0,109.0,-213.0,56.0,12.0,-9.0,1
-24.0,110.0,-217.0,55.0,14.0,-9.0,1
-23.0,111.0,-217.0,54.0,12.0,-9.0,1
-25.0,111.0,-216.0,55.0,13.0,-10.0,1
-20.0,109.0,-213.0,54.0,14.0,-8.0,1
-27.0,112.0,-214.0,53.0,16.0,-9.0,1
-27.0,113.0,-213.0,53.0,15.0,-9.0,1
-28.0,110.0,-215.0,53.0,16.0,-9.0,1
-23.0,109.0,-217.0,55.0,17.0,-9.0,1
-25.0,110.0,-214.0,55.0,16.0,-9.0,1
-22.0,109.0,-214.0,58.0,17.0,-9.0,1
-24.0,112.0,-219.0,60.0,17.0,-10.0,1
-23.0,111.0,-215.0,60.0,17.0,-9.0,1
-23.0,111.0,-212.0,60.0,16.0,-9.0,1
-25.0,109.0,-219.0,59.0,15.0,-8.0,1
-25.0,109.0,-216.0,60.0,15.0,-10.0,1
-25.0,113.0,-217.0,61.0,14.0,-8.0,1
-27.0,112.0,-216.0,59.0,14.0,-9.0,1
-26.0,111.0,-218.0,60.0,15.0,-9.0,1
-24.0,110.0,-213.0,59.0,15.0,-8.0,1
-23.0,110.0,-216.0,59.0,17.0,-8.0,1
-22.0,109.0,-218.0,58.0,16.0,-8.0,1
-25.0,110.0,-216.0,58.0,15.0,-8.0,1
-24.0,112.0,-214.0,57.0,15.0,-7.0,1
-24.0,110.0,-216.0,57.0,16.0,-9.0,1
-23.0,110.0,-216.0,58.0,15.0,-8.0,1
-24.0,108.0,-216.0,59.0,15.0,-9.0,1
-23.0,115.0,-215.0,59.0,16.0,-9.0,1
-25.0,109.0,-217.0,59.0,16.0,-7.0,1
-22.0,110.0,-216.0,57.0,15.0,-7.0,1
-22.0,110.0,-215.0,57.0,16.0,-9.0,1
-27.0,110.0,-213.0,56.0,15.0,-10.0,1
-25.0,112.0,-216.0,58.0,16.0,-8.0,1
-21.0,111.0,-215.0,56.0,14.0,-8.0,1
-24.0,112.0,-218.0,56.0,13.0,-10.0,1
-23.0,110.0,-214.0,55.0,14.0,-9.0,1
-24.0,110.0,-216.0,56.0,14.0,-8.0,1
-20.0,110.0,-215.0,55.0,15.0,-8.0,1
-23.0,109.0,-216.0,55.0,15.0,-8.0,1
-25.0,98.0,-217.0,55.0,15.0,-9.0,1
-25.0,110.0,-213.0,55.0,17.0,-9.0,1
-23.0,109.0,-221.0,55.0,14.0,-8.0,1
-25.0,113.0,-218.0,56.0,15.0,-10.0,1
-27.0,110.0,-216.0,56.0,14.0,-9.0,1
-24.0,109.0,-219.0,56.0,15.0,-8.0,1
-24.0,110.0,-214.0,54.0,14.0,-9.0,1
-27.0,110.0,-216.0,56.0,14.0,-9.0,1
-25.0,112.0,-221.0,56.0,13.0,-10.0,1
-25.0,108.0,-218.0,57.0,14.0,-11.0,1
-26.0,113.0,-215.0,60.0,16.0,-9.0,1
-24.0,110.0,-219.0,60.0,17.0,-7.0,1
-23.0,111.0,-215.0,59.0,16.0,-8.0,1
-20.0,106.0,-216.0,60.0,16.0,-9.0,1
-23.0,110.0,-215.0,60.0,17.0,-9.0,1
-22.0,111.0,-215.0,59.0,17.0,-8.0,1
-23.0,111.0,-217.0,61.0,17.0,-8.0,1
-24.0,110.0,-215.0,60.0,16.0,-8.0,1
-26.0,112.0,-216.0,61.0,15.0,-9.0,1
-25.0,112.0,-219.0,61.0,14.0,-8.0,1
-25.0,111.0,-217.0,60.0,14.0,-10.0,1
-23.0,110.0,-219.0,60.0,15.0,-10.0,1
-26.0,108.0,-217.0,61.0,14.0,-8.0,1
-26.0,112.0,-217.0,61.0,14.0,-10.0,1
-21.0,110.0,-218.0,62.0,14.0,-9.0,1
-23.0,108.0,-217.0,61.0,15.0,-9.0,1
-21.0,109.0,-213.0,62.0,15.0,-9.0,1
-19.0,110.0,-218.0,62.0,15.0,-8.0,1
-23.0,109.0,-217.0,62.0,15.0,-9.0,1
-25.0,110.0,-214.0,63.0,14.0,-9.0,1
-26.0,112.0,-212.0,64.0,14.0,-8.0,1
-21.0,108.0,-219.0,63.0,15.0,-9.0,1
-22.0,110.0,-216.0,63.0,14.0,-9.0,1
-21.0,109.0,-218.0,62.0,14.0,-9.0,1
-26.0,111.0,-220.0,63.0,13.0,-9.0,1
-26.0,110.0,-213.0,63.0,12.0,-10.0,1
-23.0,111.0,-216.0,61.0,13.0,-9.0,1
-23.0,110.0,-220.0,61.0,14.0,-9.0,1
-23.0,110.0,-220.0,60.0,14.0,-10.0,1
-24.0,112.0,-213.0,59.0,14.0,-12.0,1
-21.0,108.0,-222.0,59.0,12.0,-9.0,1
-25.0,112.0,-215.0,59.0,13.0,-10.0,1
-24.0,106.0,-214.0,58.0,13.0,-9.0,1
-26.0,110.0,-213.0,58.0,13.0,-9.0,1
-25.0,113.0,-216.0,58.0,13.0,-10.0,1
-24.0,111.0,-217.0,57.0,15.0,-11.0,1
-24.0,112.0,-219.0,57.0,14.0,-8.0,1
-25.0,112.0,-218.0,57.0,14.0,-8.0,1
-24.0,112.0,-215.0,58.0,14.0,-9.0,1
-26.0,113.0,-215.0,58.0,15.0,-9.0,1
-25.0,109.0,-217.0,58.0,14.0,-9.0,1
-26.0,110.0,-215.0,58.0,14.0,-8.0,1
-24.0,108.0,-219.0,57.0,14.0,-10.0,1
-23.0,107.0,-218.0,59.0,13.0,-11.0,1
-25.0,107.0,-219.0,59.0,12.0,-10.0,1
-26.0,110.0,-217.0,59.0,11.0,-9.0,1
-26.0,110.0,-217.0,59.0,11.0,-10.0,1
-23.0,109.0,-219.0,61.0,11.0,-11.0,1
-25.0,110.0,-213.0,61.0,10.0,-11.0,1
-22.0,109.0,-214.0,62.0,11.0,-12.0,1
-23.0,108.0,-219.0,62.0,12.0,-13.0,1
-25.0,109.0,-218.0,62.0,12.0,-12.0,1
-23.0,106.0,-217.0,63.0,13.0,-12.0,1
-25.0,110.0,-221.0,62.0,13.0,-12.0,1
-20.0,105.0,-218.0,63.0,12.0,-10.0,1
-27.0,107.0,-220.0,60.0,13.0,-10.0,1
-27.0,107.0,-217.0,60.0,13.0,-9.0,1
-23.0,108.0,-216.0,58.0,14.0,-9.0,1
-25.0,111.0,-217.0,58.0,15.0,-8.0,1
-22.0,107.0,-218.0,59.0,14.0,-8.0,1
-25.0,110.0,-215.0,57.0,15.0,-10.0,1
-25.0,110.0,-213.0,58.0,17.0,-10.0,1
-25.0,107.0,-216.0,58.0,18.0,-9.0,1
-22.0,109.0,-218.0,59.0,18.0,-9.0,1
-24.0,111.0,-213.0,60.0,19.0,-9.0,1
-24.0,107.0,-218.0,60.0,17.0,-8.0,1
-24.0,108.0,-218.0,60.0,18.0,-8.0,1
-23.0,110.0,-218.0,61.0,17.0,-8.0,1
-22.0,113.0,-219.0,62.0,18.0,-8.0,1
-24.0,110.0,-217.0,64.0,19.0,-8.0,1
-27.0,110.0,-218.0,65.0,17.0,-7.0,1
-20.0,107.0,-221.0,64.0,19.0,-8.0,1
-24.0,109.0,-217.0,65.0,19.0,-8.0,1
-21.0,108.0,-216.0,64.0,19.0,-8.0,1
-23.0,108.0,-216.0,64.0,21.0,-8.0,1
-20.0,103.0,-216.0,63.0,21.0,-9.0,1
-23.0,110.0,-221.0,63.0,21.0,-8.0,1
-19.0,105.0,-219.0,62.0,21.0,-7.0,1
-22.0,107.0,-218.0,62.0,22.0,-7.0,1
-22.0,109.0,-215.0,61.0,21.0,-6.0,1
-21.0,108.0,-216.0,62.0,21.0,-5.0,1
-24.0,110.0,-217.0,61.0,21.0,-7.0,1
-22.0,106.0,-215.0,63.0,20.0,-7.0,1
-22.0,109.0,-217.0,64.0,19.0,-6.0,1
-25.0,108.0,-220.0,67.0,19.0,-6.0,1
-23.0,105.0,-216.0,70.0,17.0,-6.0,1
-26.0,111.0,-217.0,75.0,18.0,-6.0,1
-24.0,108.0,-216.0,76.0,17.0,-6.0,1
-23.0,111.0,-219.0,77.0,16.0,-7.0,1
-23.0,108.0,-219.0,75.0,15.0,-9.0,1
-24.0,109.0,-220.0,71.0,13.0,-8.0,1
-21.0,110.0,-222.0,67.0,14.0,-10.0,1
-22.0,105.0,-219.0,64.0,14.0,-8.0,1
-22.0,109.0,-220.0,60.0,15.0,-7.0,1
-28.0,110.0,-218.0,59.0,15.0,-7.0,1
-24.0,111.0,-219.0,55.0,14.0,-9.0,1
-22.0,106.0,-218.0,55.0,15.0,-9.0,1
-24.0,111.0,-219.0,53.0,15.0,-10.0,1
-28.0,105.0,-211.0,54.0,15.0,-9.0,1
-23.0,106.0,-213.0,53.0,15.0,-9.0,1
-23.0,107.0,-218.0,52.0,16.0,-8.0,1
-22.0,111.0,-213.0,51.0,15.0,-7.0,1
-26.0,109.0,-216.0,52.0,14.0,-9.0,1
-23.0,115.0,-221.0,51.0,14.0,-10.0,1
-26.0,109.0,-219.0,52.0,14.0,-11.0,1
-22.0,105.0,-215.0,53.0,14.0,-9.0,1
-27.0,109.0,-219.0,51.0,13.0,-10.0,1
-23.0,108.0,-215.0,53.0,13.0,-10.0,1
-25.0,108.0,-216.0,54.0,14.0,-8.0,1
-23.0,107.0,-217.0,54.0,15.0,-9.0,1
-22.0,106.0,-213.0,54.0,14.0,-10.0,1
-24.0,108.0,-215.0,54.0,12.0,-10.0,1
-22.0,106.0,-217.0,53.0,12.0,-8.0,1
-24.0,108.0,-216.0,53.0,11.0,-9.0,1
-24.0,109.0,-212.0,54.0,11.0,-9.0,1
-25.0,109.0,-217.0,55.0,12.0,-11.0,1
-20.0,108.0,-210.0,54.0,13.0,-10.0,1
-23.0,108.0,-215.0,53.0,13.0,-8.0,1
-20.0,108.0,-216.0,54.0,14.0,-8.0,1
-25.0,107.0,-219.0,52.0,11.0,-9.0,1
-23.0,106.0,-220.0,52.0,11.0,-9.0,1
-27.0,111.0,-217.0,52.0,11.0,-9.0,1
-24.0,107.0,-217.0,52.0,11.0,-10.0,1
-25.0,109.0,-215.0,51.0,10.0,-11.0,1
-20.0,109.0,-219.0,53.0,11.0,-9.0,1
-22.0,110.0,-217.0,52.0,11.0,-10.0,1
-22.0,111.0,-220.0,51.0,11.0,-9.0,1
-22.0,111.0,-217.0,50.0,12.0,-9.0,1
-23.0,107.0,-217.0,50.0,12.0,-11.0,1
-24.0,111.0,-219.0,50.0,11.0,-13.0,1
-23.0,109.0,-218.0,51.0,11.0,-11.0,1
-28.0,107.0,-217.0,50.0,11.0,-11.0,1
-24.0,107.0,-217.0,50.0,9.0,-12.0,1
-22.0,109.0,-220.0,50.0,10.0,-10.0,1
-24.0,109.0,-215.0,50.0,10.0,-11.0,1
-22.0,108.0,-214.0,49.0,11.0,-11.0,1
-23.0,111.0,-220.0,49.0,11.0,-12.0,1
-24.0,108.0,-219.0,49.0,11.0,-10.0,1
-22.0,107.0,-217.0,48.0,13.0,-11.0,1
-26.0,107.0,-216.0,47.0,13.0,-9.0,1
-25.0,107.0,-217.0,48.0,13.0,-11.0,1
-25.0,105.0,-215.0,47.0,12.0,-11.0,1
-25.0,107.0,-215.0,48.0,11.0,-12.0,1
-25.0,108.0,-215.0,49.0,11.0,-10.0,1
-22.0,111.0,-218.0,48.0,11.0,-10.0,1
-27.0,111.0,-218.0,51.0,13.0,-11.0,1
-23.0,109.0,-216.0,51.0,13.0,-9.0,1
-24.0,107.0,-214.0,51.0,13.0,-9.0,1
-24.0,110.0,-217.0,51.0,12.0,-10.0,1
-23.0,108.0,-215.0,52.0,14.0,-10.0,1
-23.0,106.0,-216.0,52.0,13.0,-10.0,1
-23.0,111.0,-216.0,52.0,14.0,-9.0,1
-25.0,110.0,-214.0,52.0,15.0,-10.0,1
-23.0,109.0,-214.0,51.0,13.0,-9.0,1
-26.0,107.0,-217.0,52.0,13.0,-10.0,1
-22.0,104.0,-214.0,52.0,14.0,-11.0,1
-22.0,108.0,-217.0,52.0,14.0,-10.0,1
-23.0,110.0,-216.0,49.0,15.0,-10.0,1
-27.0,109.0,-217.0,48.0,13.0,-8.0,1
-25.0,109.0,-216.0,48.0,12.0,-9.0,1
-27.0,106.0,-216.0,49.0,14.0,-10.0,1
-25.0,108.0,-218.0,51.0,15.0,-10.0,1
-25.0,106.0,-220.0,55.0,18.0,-10.0,1
-23.0,107.0,-214.0,56.0,18.0,-8.0,1
-26.0,107.0,-217.0,58.0,17.0,-9.0,1
-24.0,110.0,-215.0,55.0,18.0,-6.0,1
-23.0,110.0,-220.0,55.0,18.0,-8.0,1
-24.0,110.0,-214.0,51.0,17.0,-7.0,1
-27.0,111.0,-218.0,48.0,16.0,-7.0,1
-25.0,109.0,-216.0,48.0,16.0,-8.0,1
-24.0,105.0,-219.0,47.0,16.0,-7.0,1
-23.0,108.0,-215.0,48.0,17.0,-7.0,1
-22.0,108.0,-214.0,49.0,19.0,-6.0,1
-23.0,108.0,-215.0,51.0,20.0,-6.0,1
-25.0,109.0,-212.0,52.0,21.0,-8.0,1
-23.0,111.0,-218.0,53.0,19.0,-7.0,1
-22.0,107.0,-216.0,53.0,18.0,-8.0,1
-21.0,107.0,-221.0,52.0,18.0,-6.0,1
-24.0,111.0,-214.0,51.0,17.0,-8.0,1
-23.0,110.0,-217.0,51.0,17.0,-8.0,1
-21.0,108.0,-217.0,52.0,16.0,-8.0,1
-22.0,106.0,-216.0,51.0,16.0,-9.0,1
-25.0,111.0,-218.0,51.0,16.0,-8.0,1
-23.0,107.0,-214.0,52.0,15.0,-10.0,1
-25.0,109.0,-214.0,52.0,16.0,-9.0,1
-24.0,109.0,-217.0,53.0,15.0,-8.0,1
-24.0,109.0,-219.0,54.0,15.0,-9.0,1
-20.0,108.0,-217.0,53.0,16.0,-9.0,1
-22.0,108.0,-215.0,53.0,14.0,-9.0,1
-22.0,111.0,-221.0,53.0,14.0,-9.0,1
-24.0,106.0,-216.0,52.0,14.0,-8.0,1
-23.0,110.0,-214.0,53.0,13.0,-8.0,1
-21.0,108.0,-216.0,53.0,13.0,-9.0,1
-24.0,109.0,-214.0,53.0,13.0,-9.0,1
-24.0,106.0,-219.0,53.0,13.0,-10.0,1
-22.0,106.0,-215.0,53.0,13.0,-10.0,1
-23.0,129.0,-222.0,53.0,13.0,-12.0,1
-21.0,108.0,-215.0,53.0,13.0,-12.0,1
-24.0,112.0,-215.0,54.0,13.0,-11.0,1
-23.0,105.0,-214.0,56.0,12.0,-10.0,1
-22.0,109.0,-216.0,55.0,13.0,-11.0,1
-23.0,107.0,-218.0,55.0,12.0,-12.0,1
-23.0,109.0,-219.0,56.0,12.0,-10.0,1
-24.0,110.0,-216.0,55.0,12.0,-10.0,1
-26.0,108.0,-219.0,55.0,12.0,-10.0,1
-22.0,109.0,-218.0,55.0,12.0,-11.0,1
-26.0,107.0,-216.0,55.0,13.0,-9.0,1
-22.0,108.0,-220.0,57.0,13.0,-9.0,1
-22.0,104.0,-218.0,56.0,12.0,-11.0,1
-23.0,106.0,-218.0,55.0,12.0,-11.0,1
-25.0,109.0,-217.0,55.0,13.0,-11.0,1
-21.0,108.0,-219.0,54.0,12.0,-9.0,1
-23.0,105.0,-218.0,56.0,12.0,-11.0,1
-24.0,105.0,-216.0,55.0,12.0,-10.0,1
-22.0,107.0,-218.0,55.0,11.0,-8.0,1
-24.0,106.0,-217.0,55.0,10.0,-9.0,1
-20.0,109.0,-216.0,53.0,10.0,-9.0,1
-20.0,107.0,-215.0,53.0,11.0,-10.0,1
-21.0,109.0,-218.0,51.0,11.0,-8.0,1
-23.0,106.0,-219.0,51.0,12.0,-10.0,1
-25.0,110.0,-219.0,51.0,13.0,-9.0,1
-23.0,110.0,-217.0,52.0,14.0,-10.0,1
-26.0,109.0,-220.0,51.0,14.0,-10.0,1
-22.0,108.0,-216.0,52.0,14.0,-10.0,1
-26.0,110.0,-216.0,51.0,15.0,-10.0,1
-27.0,108.0,-217.0,51.0,13.0,-11.0,1
-23.0,108.0,-214.0,51.0,15.0,-9.0,1
-23.0,107.0,-214.0,50.0,15.0,-8.0,1
-22.0,110.0,-219.0,50.0,16.0,-8.0,1
-24.0,103.0,-214.0,51.0,17.0,-8.0,1
-23.0,110.0,-222.0,52.0,15.0,-7.0,1
-24.0,107.0,-216.0,53.0,15.0,-9.0,1
-25.0,109.0,-217.0,54.0,16.0,-8.0,1
-25.0,111.0,-218.0,53.0,17.0,-8.0,1
-22.0,110.0,-217.0,51.0,16.0,-9.0,1
-23.0,107.0,-214.0,52.0,17.0,-9.0,1
-27.0,109.0,-220.0,53.0,16.0,-10.0,1
-25.0,107.0,-217.0,52.0,16.0,-9.0,1
-22.0,108.0,-216.0,52.0,16.0,-9.0,1
-19.0,106.0,-217.0,52.0,14.0,-8.0,1
-27.0,109.0,-218.0,52.0,15.0,-8.0,1
-23.0,110.0,-218.0,52.0,15.0,-8.0,1
-24.0,105.0,-218.0,51.0,15.0,-9.0,1
-24.0,106.0,-220.0,51.0,16.0,-7.0,1
-23.0,106.0,-217.0,52.0,16.0,-8.0,1
-21.0,107.0,-216.0,50.0,15.0,-8.0,1
-24.0,107.0,-217.0,51.0,15.0,-9.0,1
-20.0,107.0,-220.0,51.0,15.0,-9.0,1
-25.0,109.0,-214.0,51.0,15.0,-9.0,1
-23.0,108.0,-217.0,51.0,14.0,-10.0,1
-24.0,111.0,-219.0,50.0,14.0,-10.0,1
-26.0,106.0,-216.0,51.0,14.0,-12.0,1
-23.0,110.0,-219.0,50.0,14.0,-12.0,1
-22.0,109.0,-220.0,49.0,14.0,-10.0,1
-24.0,111.0,-213.0,51.0,14.0,-12.0,1
-22.0,107.0,-223.0,50.0,15.0,-11.0,1
-23.0,109.0,-218.0,52.0,14.0,-11.0,1
-23.0,110.0,-221.0,52.0,14.0,-11.0,1
-21.0,108.0,-214.0,52.0,13.0,-11.0,1
-27.0,108.0,-217.0,51.0,14.0,-11.0,1
-25.0,110.0,-217.0,51.0,13.0,-10.0,1
-26.0,109.0,-217.0,51.0,13.0,-10.0,1
-25.0,109.0,-220.0,50.0,14.0,-11.0,1
-25.0,111.0,-215.0,51.0,15.0,-10.0,1
-21.0,106.0,-212.0,51.0,15.0,-10.0,1
-22.0,109.0,-221.0,49.0,16.0,-11.0,1
-24.0,108.0,-218.0,48.0,16.0,-10.0,1
-23.0,109.0,-217.0,48.0,15.0,-10.0,1
-22.0,109.0,-217.0,49.0,16.0,-9.0,1
-24.0,106.0,-214.0,49.0,15.0,-11.0,1
-23.0,105.0,-213.0,49.0,15.0,-10.0,1
-25.0,109.0,-219.0,51.0,15.0,-10.0,1
-20.0,105.0,-214.0,54.0,17.0,-8.0,1
-24.0,107.0,-214.0,57.0,17.0,-9.0,1
-24.0,106.0,-218.0,59.0,16.0,-9.0,1
-22.0,105.0,-219.0,62.0,15.0,-7.0,1
-22.0,109.0,-219.0,64.0,13.0,-9.0,1
-24.0,106.0,-220.0,63.0,14.0,-9.0,1
-21.0,103.0,-215.0,61.0,16.0,-9.0,1
-22.0,109.0,-220.0,58.0,18.0,-10.0,1
-24.0,109.0,-220.0,55.0,20.0,-9.0,1
-24.0,106.0,-217.0,54.0,21.0,-9.0,1
-22.0,107.0,-218.0,52.0,18.0,-9.0,1
-22.0,106.0,-218.0,50.0,17.0,-10.0,1
-25.0,103.0,-218.0,44.0,16.0,-10.0,1
-22.0,109.0,-219.0,44.0,15.0,-10.0,1
-22.0,106.0,-219.0,45.0,15.0,-10.0,1
-24.0,111.0,-217.0,45.0,15.0,-10.0,1
-22.0,109.0,-218.0,45.0,14.0,-9.0,1
-23.0,109.0,-217.0,45.0,16.0,-9.0,1
-23.0,110.0,-216.0,43.0,17.0,-9.0,1
-23.0,109.0,-217.0,44.0,17.0,-10.0,1
-23.0,107.0,-220.0,45.0,16.0,-11.0,1
-28.0,113.0,-214.0,44.0,17.0,-10.0,1
-22.0,108.0,-217.0,43.0,16.0,-11.0,1
-18.0,111.0,-215.0,44.0,17.0,-10.0,1
-22.0,108.0,-215.0,43.0,18.0,-8.0,1
-24.0,108.0,-214.0,44.0,18.0,-9.0,1
-22.0,111.0,-216.0,44.0,16.0,-11.0,1
-22.0,107.0,-215.0,44.0,17.0,-10.0,1
-24.0,110.0,-219.0,45.0,17.0,-11.0,1
-24.0,110.0,-219.0,46.0,17.0,-10.0,1
-23.0,110.0,-213.0,45.0,16.0,-10.0,1
-21.0,108.0,-215.0,46.0,17.0,-10.0,1
-23.0,106.0,-217.0,47.0,17.0,-11.0,1
-22.0,107.0,-219.0,48.0,18.0,-11.0,1
-24.0,109.0,-214.0,48.0,17.0,-11.0,1
-22.0,108.0,-218.0,48.0,17.0,-9.0,1
-24.0,109.0,-219.0,48.0,18.0,-9.0,1
-23.0,108.0,-219.0,48.0,18.0,-10.0,1
-21.0,106.0,-218.0,49.0,19.0,-11.0,1
-22.0,108.0,-218.0,49.0,19.0,-9.0,1
-22.0,105.0,-221.0,50.0,18.0,-11.0,1
-25.0,108.0,-216.0,50.0,19.0,-11.0,1
-25.0,108.0,-217.0,50.0,19.0,-10.0,1
-24.0,107.0,-216.0,49.0,19.0,-10.0,1
-22.0,108.0,-215.0,49.0,18.0,-9.0,1
-24.0,110.0,-218.0,48.0,18.0,-10.0,1
-23.0,111.0,-216.0,49.0,19.0,-9.0,1
-23.0,108.0,-214.0,51.0,18.0,-8.0,1
-23.0,110.0,-219.0,51.0,20.0,-9.0,1
-23.0,109.0,-220.0,51.0,19.0,-8.0,1
-23.0,112.0,-217.0,49.0,20.0,-8.0,1
-25.0,112.0,-216.0,50.0,19.0,-8.0,1
-22.0,108.0,-216.0,49.0,19.0,-10.0,1
-23.0,106.0,-217.0,48.0,19.0,-9.0,1
-25.0,109.0,-216.0,47.0,17.0,-9.0,1
-26.0,111.0,-216.0,45.0,17.0,-9.0,1
-23.0,105.0,-215.0,44.0,15.0,-9.0,1
-21.0,107.0,-216.0,44.0,16.0,-8.0,1
-23.0,106.0,-217.0,44.0,15.0,-11.0,1
-25.0,108.0,-223.0,44.0,14.0,-10.0,1
-24.0,110.0,-216.0,43.0,16.0,-9.0,1
-23.0,109.0,-217.0,43.0,15.0,-10.0,1
-24.0,109.0,-214.0,44.0,15.0,-9.0,1
-24.0,107.0,-221.0,43.0,16.0,-11.0,1
-23.0,105.0,-218.0,43.0,15.0,-10.0,1
-24.0,107.0,-219.0,43.0,16.0,-9.0,1
-21.0,111.0,-213.0,43.0,16.0,-9.0,1
-20.0,108.0,-216.0,44.0,16.0,-9.0,1
-23.0,109.0,-214.0,43.0,16.0,-9.0,1
-24.0,111.0,-216.0,43.0,16.0,-9.0,1
-21.0,107.0,-218.0,43.0,15.0,-9.0,1
-22.0,110.0,-215.0,44.0,15.0,-10.0,1
-19.0,108.0,-215.0,46.0,15.0,-8.0,1
-22.0,107.0,-216.0,45.0,16.0,-9.0,1
-21.0,108.0,-220.0,44.0,15.0,-9.0,1
-22.0,109.0,-212.0,44.0,15.0,-9.0,1
-24.0,110.0,-219.0,46.0,15.0,-9.0,1
-23.0,107.0,-217.0,45.0,15.0,-10.0,1
-24.0,110.0,-213.0,46.0,15.0,-10.0,1
-22.0,106.0,-216.0,45.0,14.0,-10.0,1
-20.0,104.0,-220.0,46.0,15.0,-7.0,1
-23.0,109.0,-221.0,46.0,14.0,-9.0,1
-21.0,109.0,-219.0,48.0,14.0,-7.0,1
-23.0,110.0,-219.0,47.0,15.0,-9.0,1
-25.0,113.0,-216.0,47.0,15.0,-8.0,1
-16.0,105.0,-216.0,46.0,15.0,-8.0,1
-24.0,106.0,-220.0,46.0,15.0,-10.0,1
-23.0,109.0,-215.0,46.0,14.0,-7.0,1
-23.0,111.0,-217.0,47.0,14.0,-9.0,1
-26.0,110.0,-216.0,47.0,14.0,-10.0,1
-22.0,109.0,-218.0,48.0,14.0,-10.0,1
-20.0,110.0,-218.0,49.0,16.0,-10.0,1
-22.0,108.0,-217.0,49.0,16.0,-9.0,1
-21.0,108.0,-215.0,50.0,17.0,-10.0,1
-23.0,108.0,-217.0,50.0,17.0,-10.0,1
-24.0,109.0,-216.0,52.0,17.0,-9.0,1
-20.0,108.0,-214.0,52.0,18.0,-9.0,1
-22.0,108.0,-216.0,52.0,18.0,-8.0,1
-23.0,109.0,-220.0,53.0,16.0,-8.0,1
-23.0,111.0,-217.0,53.0,18.0,-7.0,1
-23.0,107.0,-216.0,54.0,18.0,-6.0,1
-22.0,108.0,-216.0,55.0,18.0,-8.0,1
-22.0,108.0,-215.0,55.0,18.0,-7.0,1
-20.0,106.0,-214.0,54.0,17.0,-7.0,1
-22.0,109.0,-217.0,54.0,18.0,-7.0,1
-22.0,106.0,-215.0,52.0,17.0,-8.0,1
-22.0,106.0,-216.0,51.0,18.0,-8.0,1
-25.0,109.0,-217.0,50.0,18.0,-8.0,1
-21.0,107.0,-217.0,50.0,18.0,-8.0,1
-25.0,109.0,-218.0,49.0,19.0,-9.0,1
-22.0,108.0,-215.0,49.0,18.0,-8.0,1
-20.0,107.0,-218.0,49.0,18.0,-9.0,1
-24.0,109.0,-217.0,49.0,19.0,-8.0,1
-22.0,113.0,-218.0,48.0,19.0,-9.0,1
-21.0,109.0,-216.0,48.0,19.0,-9.0,1
-19.0,109.0,-219.0,47.0,19.0,-9.0,1
-22.0,110.0,-217.0,46.0,18.0,-9.0,1
-24.0,111.0,-217.0,45.0,17.0,-9.0,1
-21.0,107.0,-221.0,45.0,17.0,-10.0,1
-21.0,106.0,-219.0,44.0,16.0,-9.0,1
-22.0,106.0,-220.0,43.0,15.0,-10.0,1
-21.0,111.0,-221.0,44.0,15.0,-10.0,1
-22.0,105.0,-217.0,44.0,14.0,-10.0,1
-22.0,109.0,-219.0,43.0,14.0,-10.0,1
-21.0,109.0,-216.0,43.0,13.0,-13.0,1
-23.0,110.0,-218.0,42.0,12.0,-12.0,1
-20.0,107.0,-217.0,42.0,13.0,-12.0,1
-23.0,110.0,-215.0,41.0,13.0,-11.0,1
-22.0,106.0,-218.0,42.0,13.0,-11.0,1
-20.0,109.0,-217.0,43.0,13.0,-10.0,1
-21.0,105.0,-219.0,43.0,12.0,-10.0,1
-17.0,104.0,-207.0,43.0,13.0,-10.0,1
-20.0,109.0,-217.0,43.0,13.0,-10.0,1
-19.0,107.0,-216.0,42.0,13.0,-10.0,1
-19.0,110.0,-217.0,42.0,13.0,-11.0,1
-20.0,109.0,-216.0,43.0,12.0,-11.0,1
-24.0,111.0,-218.0,45.0,13.0,-11.0,1
-22.0,109.0,-216.0,43.0,13.0,-12.0,1
-21.0,105.0,-215.0,45.0,13.0,-11.0,1
-24.0,110.0,-217.0,45.0,14.0,-11.0,1
-22.0,111.0,-214.0,45.0,14.0,-10.0,1
-23.0,109.0,-215.0,45.0,14.0,-11.0,1
-21.0,110.0,-216.0,45.0,13.0,-12.0,1
-24.0,107.0,-217.0,47.0,14.0,-10.0,1
-21.0,109.0,-219.0,45.0,15.0,-11.0,1
-22.0,108.0,-219.0,47.0,15.0,-10.0,1
-26.0,112.0,-217.0,47.0,14.0,-11.0,1
-22.0,110.0,-218.0,47.0,14.0,-12.0,1
-21.0,110.0,-215.0,48.0,15.0,-12.0,1
-21.0,108.0,-219.0,49.0,14.0,-11.0,1
-25.0,108.0,-217.0,47.0,13.0,-9.0,1
-22.0,109.0,-215.0,49.0,16.0,-10.0,1
-23.0,110.0,-217.0,50.0,16.0,-9.0,1
-21.0,109.0,-217.0,50.0,15.0,-8.0,1
-22.0,107.0,-220.0,50.0,16.0,-10.0,1
-22.0,107.0,-216.0,49.0,15.0,-9.0,1
-24.0,107.0,-219.0,50.0,14.0,-9.0,1
-20.0,108.0,-223.0,49.0,15.0,-9.0,1
-21.0,108.0,-218.0,51.0,15.0,-10.0,1
-21.0,108.0,-214.0,50.0,16.0,-8.0,1
-20.0,107.0,-217.0,51.0,15.0,-10.0,1
-22.0,108.0,-221.0,50.0,15.0,-10.0,1
-22.0,108.0,-215.0,50.0,15.0,-10.0,1
-24.0,111.0,-218.0,51.0,16.0,-8.0,1
-23.0,100.0,-210.0,50.0,16.0,-9.0,1
-24.0,108.0,-215.0,51.0,15.0,-8.0,1
-26.0,110.0,-219.0,52.0,15.0,-8.0,1
-24.0,110.0,-218.0,51.0,14.0,-9.0,1
-16.0,108.0,-218.0,51.0,14.0,-9.0,1
-21.0,109.0,-217.0,50.0,14.0,-10.0,1
-22.0,112.0,-213.0,50.0,15.0,-10.0,1
-26.0,111.0,-215.0,51.0,17.0,-10.0,1
-25.0,107.0,-216.0,50.0,15.0,-10.0,1
-23.0,106.0,-220.0,52.0,16.0,-10.0,1
-22.0,111.0,-216.0,52.0,15.0,-10.0,1
-23.0,107.0,-215.0,50.0,14.0,-10.0,1
-25.0,110.0,-215.0,50.0,14.0,-10.0,1
-20.0,108.0,-219.0,50.0,14.0,-10.0,1
-20.0,108.0,-216.0,49.0,13.0,-10.0,1
-21.0,107.0,-216.0,47.0,13.0,-10.0,1
-24.0,109.0,-216.0,47.0,14.0,-11.0,1
-21.0,107.0,-214.0,46.0,14.0,-9.0,1
-26.0,112.0,-217.0,47.0,15.0,-11.0,1
-24.0,110.0,-215.0,47.0,15.0,-10.0,1
-25.0,107.0,-215.0,49.0,15.0,-8.0,1
-22.0,108.0,-216.0,50.0,15.0,-10.0,1
-25.0,111.0,-216.0,54.0,15.0,-8.0,1
-20.0,108.0,-215.0,56.0,13.0,-9.0,1
-25.0,113.0,-218.0,58.0,13.0,-8.0,1
-22.0,107.0,-219.0,58.0,13.0,-8.0,1
-19.0,107.0,-217.0,56.0,12.0,-9.0,1
-20.0,109.0,-221.0,54.0,12.0,-10.0,1
-22.0,107.0,-219.0,52.0,12.0,-10.0,1
-22.0,108.0,-218.0,51.0,13.0,-10.0,1
-23.0,110.0,-219.0,50.0,11.0,-8.0,1
-21.0,108.0,-215.0,50.0,13.0,-10.0,1
-22.0,109.0,-218.0,47.0,13.0,-11.0,1
-28.0,108.0,-214.0,48.0,12.0,-10.0,1
-19.0,107.0,-216.0,48.0,13.0,-11.0,1
-22.0,108.0,-218.0,47.0,13.0,-11.0,1
-24.0,109.0,-216.0,47.0,12.0,-10.0,1
-24.0,109.0,-213.0,48.0,12.0,-10.0,1
-21.0,105.0,-217.0,48.0,13.0,-11.0,1
-20.0,110.0,-220.0,49.0,13.0,-11.0,1
-22.0,109.0,-215.0,49.0,12.0,-11.0,1
-19.0,107.0,-212.0,50.0,11.0,-11.0,1
-21.0,110.0,-217.0,50.0,12.0,-11.0,1
-20.0,106.0,-216.0,51.0,11.0,-12.0,1
-20.0,110.0,-218.0,51.0,12.0,-9.0,1
-21.0,108.0,-218.0,51.0,13.0,-10.0,1
-24.0,108.0,-216.0,50.0,14.0,-10.0,1
-21.0,109.0,-216.0,51.0,13.0,-10.0,1
-23.0,110.0,-214.0,52.0,13.0,-9.0,1
-23.0,108.0,-216.0,53.0,13.0,-9.0,1
-21.0,108.0,-221.0,55.0,15.0,-10.0,1
-24.0,110.0,-217.0,55.0,15.0,-10.0,1
-23.0,111.0,-217.0,55.0,13.0,-12.0,1
-23.0,110.0,-217.0,54.0,14.0,-9.0,1
-25.0,107.0,-215.0,54.0,14.0,-9.0,1
-23.0,107.0,-219.0,56.0,13.0,-9.0,1
-23.0,108.0,-218.0,57.0,14.0,-8.0,1
-24.0,107.0,-213.0,58.0,14.0,-9.0,1
-21.0,110.0,-220.0,59.0,15.0,-9.0,1
-22.0,112.0,-219.0,61.0,17.0,-7.0,1
-20.0,109.0,-215.0,59.0,19.0,-8.0,1
-21.0,107.0,-217.0,60.0,18.0,-8.0,1
-21.0,108.0,-217.0,60.0,17.0,-8.0,1
-22.0,105.0,-215.0,60.0,16.0,-9.0,1
-24.0,106.0,-220.0,59.0,18.0,-8.0,1
-23.0,108.0,-217.0,59.0,18.0,-8.0,1
-24.0,107.0,-219.0,62.0,17.0,-7.0,1
-26.0,112.0,-218.0,62.0,17.0,-8.0,1
-22.0,112.0,-221.0,62.0,18.0,-9.0,1
-25.0,110.0,-218.0,61.0,18.0,-8.0,1
-24.0,108.0,-218.0,61.0,19.0,-8.0,1
-23.0,105.0,-218.0,60.0,19.0,-8.0,1
-23.0,105.0,-215.0,60.0,19.0,-7.0,1
-22.0,105.0,-216.0,58.0,18.0,-7.0,1
-23.0,106.0,-217.0,55.0,18.0,-8.0,1
-23.0,110.0,-216.0,54.0,17.0,-6.0,1
-24.0,105.0,-217.0,55.0,18.0,-7.0,1
-21.0,106.0,-218.0,54.0,19.0,-8.0,1
-21.0,111.0,-212.0,55.0,18.0,-8.0,1
-24.0,109.0,-216.0,55.0,17.0,-7.0,1
-23.0,106.0,-216.0,55.0,17.0,-8.0,1
-19.0,107.0,-213.0,57.0,17.0,-7.0,1
-22.0,104.0,-216.0,56.0,16.0,-7.0,1
-19.0,106.0,-219.0,55.0,16.0,-8.0,1
-19.0,107.0,-218.0,54.0,16.0,-7.0,1
-21.0,106.0,-216.0,54.0,16.0,-8.0,1
-21.0,109.0,-220.0,55.0,16.0,-7.0,1
-21.0,107.0,-217.0,53.0,15.0,-9.0,1
-25.0,108.0,-219.0,53.0,14.0,-10.0,1
-23.0,109.0,-217.0,52.0,14.0,-10.0,1
-21.0,107.0,-218.0,52.0,14.0,-9.0,1
-23.0,112.0,-217.0,52.0,13.0,-9.0,1
-20.0,112.0,-217.0,51.0,13.0,-9.0,1
-25.0,112.0,-216.0,50.0,13.0,-9.0,1
-20.0,109.0,-219.0,50.0,13.0,-10.0,1
-20.0,105.0,-215.0,53.0,12.0,-10.0,1
-23.0,107.0,-217.0,51.0,12.0,-9.0,1
-20.0,108.0,-216.0,52.0,11.0,-10.0,1
-23.0,105.0,-218.0,52.0,13.0,-8.0,1
-21.0,110.0,-220.0,52.0,13.0,-10.0,1
-20.0,108.0,-216.0,51.0,13.0,-9.0,1
-24.0,111.0,-216.0,51.0,13.0,-8.0,1
-20.0,106.0,-219.0,51.0,13.0,-9.0,1
-23.0,112.0,-215.0,50.0,13.0,-9.0,1
-23.0,111.0,-217.0,50.0,12.0,-10.0,1
-23.0,109.0,-221.0,51.0,12.0,-9.0,1
-21.0,107.0,-215.0,51.0,11.0,-10.0,1
-18.0,106.0,-215.0,52.0,11.0,-12.0,1
-21.0,111.0,-215.0,51.0,11.0,-11.0,1
-21.0,107.0,-215.0,52.0,11.0,-11.0,1
-20.0,108.0,-215.0,52.0,10.0,-10.0,1
-21.0,109.0,-219.0,53.0,11.0,-11.0,1
-20.0,109.0,-214.0,53.0,10.0,-11.0,1
-20.0,107.0,-220.0,54.0,11.0,-10.0,1
-20.0,108.0,-220.0,53.0,10.0,-9.0,1
-22.0,108.0,-218.0,53.0,11.0,-12.0,1
-24.0,109.0,-220.0,54.0,10.0,-11.0,1
-24.0,109.0,-211.0,54.0,12.0,-9.0,1
-24.0,108.0,-215.0,54.0,12.0,-9.0,1
-20.0,108.0,-214.0,55.0,12.0,-12.0,1
-21.0,111.0,-219.0,55.0,13.0,-12.0,1
-23.0,109.0,-220.0,56.0,14.0,-11.0,1
-26.0,108.0,-219.0,55.0,14.0,-10.0,1
-21.0,107.0,-217.0,55.0,14.0,-9.0,1
-24.0,111.0,-217.0,55.0,15.0,-10.0,1
-19.0,107.0,-217.0,56.0,14.0,-8.0,1
-22.0,109.0,-214.0,55.0,13.0,-10.0,1
-20.0,107.0,-218.0,57.0,15.0,-9.0,1
-24.0,107.0,-220.0,57.0,14.0,-8.0,1
-22.0,107.0,-218.0,58.0,14.0,-8.0,1
-24.0,106.0,-219.0,58.0,14.0,-9.0,1
-20.0,113.0,-224.0,57.0,13.0,-8.0,1
-22.0,106.0,-215.0,57.0,14.0,-8.0,1
-21.0,110.0,-219.0,58.0,15.0,-9.0,1
-23.0,109.0,-216.0,58.0,13.0,-8.0,1
-22.0,109.0,-217.0,58.0,13.0,-9.0,1
-23.0,108.0,-215.0,58.0,14.0,-10.0,1
-24.0,111.0,-219.0,58.0,15.0,-8.0,1
-23.0,111.0,-218.0,58.0,15.0,-9.0,1
-23.0,112.0,-216.0,58.0,15.0,-9.0,1
-24.0,110.0,-215.0,57.0,16.0,-10.0,1
-22.0,108.0,-217.0,57.0,17.0,-10.0,1
-22.0,105.0,-217.0,56.0,15.0,-8.0,1
-27.0,110.0,-215.0,55.0,15.0,-9.0,1
-22.0,108.0,-219.0,56.0,15.0,-9.0,1
-20.0,108.0,-214.0,56.0,14.0,-9.0,1
-22.0,106.0,-215.0,56.0,14.0,-9.0,1
-26.0,109.0,-220.0,56.0,14.0,-8.0,1
-23.0,108.0,-215.0,56.0,14.0,-8.0,1
-23.0,107.0,-221.0,55.0,14.0,-9.0,1
-21.0,106.0,-214.0,55.0,13.0,-10.0,1
-22.0,107.0,-218.0,54.0,13.0,-10.0,1
-23.0,108.0,-218.0,53.0,13.0,-10.0,1
-22.0,108.0,-216.0,54.0,13.0,-10.0,1
-21.0,106.0,-216.0,54.0,13.0,-10.0,1
-21.0,109.0,-217.0,54.0,14.0,-9.0,1
-23.0,112.0,-216.0,53.0,14.0,-8.0,1
-22.0,105.0,-217.0,54.0,13.0,-9.0,1
-23.0,108.0,-216.0,53.0,14.0,-8.0,1
-21.0,108.0,-215.0,53.0,13.0,-10.0,1
-21.0,107.0,-216.0,53.0,13.0,-11.0,1
-24.0,106.0,-218.0,53.0,14.0,-12.0,1
-22.0,106.0,-217.0,55.0,14.0,-8.0,1
-23.0,106.0,-216.0,54.0,14.0,-9.0,1
-12.0,103.0,-219.0,53.0,14.0,-9.0,1
-22.0,109.0,-219.0,54.0,14.0,-8.0,1
-24.0,106.0,-219.0,54.0,14.0,-9.0,1
-20.0,109.0,-217.0,54.0,14.0,-8.0,1
-21.0,105.0,-219.0,54.0,14.0,-7.0,1
-22.0,107.0,-219.0,54.0,13.0,-7.0,1
-20.0,107.0,-214.0,55.0,14.0,-8.0,1
-23.0,108.0,-217.0,54.0,15.0,-9.0,1
-20.0,107.0,-217.0,52.0,15.0,-10.0,1
-24.0,107.0,-218.0,53.0,14.0,-8.0,1
-20.0,108.0,-217.0,52.0,14.0,-8.0,1
-23.0,108.0,-219.0,52.0,13.0,-9.0,1
-21.0,108.0,-217.0,53.0,14.0,-9.0,1
-18.0,108.0,-218.0,54.0,14.0,-10.0,1
-22.0,109.0,-216.0,54.0,14.0,-10.0,1
-21.0,105.0,-217.0,55.0,15.0,-8.0,1
-22.0,108.0,-215.0,56.0,15.0,-8.0,1
-20.0,107.0,-223.0,56.0,14.0,-8.0,1
-18.0,107.0,-218.0,55.0,14.0,-9.0,1
-18.0,105.0,-215.0,54.0,14.0,-9.0,1
-19.0,107.0,-219.0,55.0,14.0,-8.0,1
-23.0,106.0,-217.0,54.0,12.0,-8.0,1
-20.0,111.0,-218.0,53.0,12.0,-10.0,1
-23.0,109.0,-216.0,53.0,10.0,-11.0,1
-20.0,113.0,-219.0,52.0,11.0,-10.0,1
-22.0,108.0,-219.0,53.0,11.0,-10.0,1
-22.0,109.0,-218.0,53.0,12.0,-11.0,1
-24.0,106.0,-215.0,54.0,12.0,-10.0,1
-22.0,108.0,-219.0,55.0,11.0,-11.0,1
-24.0,110.0,-220.0,55.0,10.0,-11.0,1
-21.0,107.0,-218.0,55.0,10.0,-11.0,1
-22.0,107.0,-219.0,57.0,12.0,-10.0,1
-22.0,106.0,-221.0,55.0,13.0,-10.0,1
-21.0,109.0,-215.0,54.0,12.0,-10.0,1
-23.0,109.0,-218.0,53.0,12.0,-9.0,1
-20.0,106.0,-218.0,51.0,12.0,-10.0,1
-21.0,104.0,-217.0,50.0,12.0,-10.0,1
-21.0,108.0,-217.0,49.0,12.0,-11.0,1
-25.0,109.0,-220.0,50.0,13.0,-10.0,1
-21.0,105.0,-218.0,50.0,13.0,-9.0,1
-23.0,106.0,-215.0,52.0,13.0,-8.0,1
-22.0,107.0,-216.0,55.0,13.0,-9.0,1
-23.0,106.0,-219.0,57.0,14.0,-7.0,1
-22.0,106.0,-215.0,60.0,14.0,-9.0,1
-21.0,108.0,-219.0,63.0,13.0,-8.0,1
-23.0,104.0,-219.0,66.0,12.0,-8.0,1
-22.0,108.0,-222.0,65.0,12.0,-9.0,1
-23.0,108.0,-220.0,63.0,12.0,-9.0,1
-21.0,105.0,-217.0,62.0,13.0,-9.0,1
-23.0,108.0,-217.0,59.0,14.0,-8.0,1
-24.0,109.0,-220.0,58.0,14.0,-9.0,1
-21.0,105.0,-217.0,57.0,15.0,-10.0,1
-22.0,109.0,-219.0,56.0,14.0,-10.0,1
-20.0,109.0,-220.0,55.0,14.0,-8.0,1
-20.0,112.0,-219.0,54.0,14.0,-8.0,1
-23.0,106.0,-215.0,53.0,14.0,-9.0,1
-22.0,104.0,-214.0,55.0,13.0,-11.0,1
-23.0,107.0,-218.0,54.0,14.0,-9.0,1
-20.0,105.0,-221.0,54.0,14.0,-10.0,1
-22.0,106.0,-217.0,54.0,15.0,-9.0,1
-25.0,108.0,-219.0,54.0,15.0,-9.0,1
-20.0,106.0,-218.0,54.0,16.0,-10.0,1
-20.0,107.0,-217.0,54.0,15.0,-9.0,1
-20.0,104.0,-217.0,54.0,16.0,-10.0,1
-23.0,105.0,-219.0,56.0,17.0,-10.0,1
-22.0,106.0,-218.0,57.0,17.0,-10.0,1
-21.0,107.0,-217.0,57.0,17.0,-9.0,1
-21.0,106.0,-217.0,57.0,17.0,-7.0,1
-20.0,108.0,-217.0,59.0,16.0,-9.0,1
-24.0,107.0,-213.0,59.0,16.0,-10.0,1
-21.0,108.0,-219.0,58.0,16.0,-8.0,1
-24.0,108.0,-218.0,59.0,16.0,-10.0,1
-21.0,107.0,-218.0,61.0,17.0,-10.0,1
-19.0,103.0,-217.0,61.0,18.0,-7.0,1
-22.0,110.0,-216.0,61.0,17.0,-8.0,1
-21.0,105.0,-215.0,61.0,16.0,-9.0,1
-20.0,104.0,-217.0,61.0,16.0,-7.0,1
-21.0,111.0,-219.0,62.0,16.0,-7.0,1
-21.0,104.0,-215.0,61.0,16.0,-7.0,1
-22.0,108.0,-222.0,61.0,17.0,-8.0,1
-20.0,104.0,-219.0,60.0,16.0,-7.0,1
-26.0,110.0,-218.0,59.0,17.0,-7.0,1
-21.0,109.0,-215.0,58.0,17.0,-7.0,1
-23.0,108.0,-217.0,58.0,18.0,-8.0,1
-21.0,98.0,-223.0,57.0,19.0,-9.0,1
-20.0,103.0,-213.0,57.0,18.0,-8.0,1
-21.0,105.0,-216.0,56.0,17.0,-9.0,1
-22.0,105.0,-223.0,55.0,16.0,-8.0,1
-20.0,108.0,-217.0,55.0,14.0,-10.0,1
-23.0,107.0,-221.0,55.0,14.0,-10.0,1
-22.0,105.0,-218.0,55.0,16.0,-10.0,1
-23.0,106.0,-221.0,55.0,15.0,-9.0,1
-20.0,107.0,-219.0,52.0,15.0,-10.0,1
-23.0,105.0,-219.0,51.0,14.0,-9.0,1
-21.0,110.0,-221.0,52.0,15.0,-10.0,1
-23.0,106.0,-220.0,51.0,16.0,-10.0,1
-21.0,110.0,-220.0,49.0,14.0,-11.0,1
-21.0,106.0,-221.0,48.0,13.0,-10.0,1
-20.0,106.0,-216.0,49.0,12.0,-10.0,1
-23.0,107.0,-220.0,47.0,13.0,-9.0,1
-20.0,107.0,-220.0,47.0,14.0,-10.0,1
-22.0,105.0,-219.0,47.0,13.0,-9.0,1
-21.0,107.0,-216.0,47.0,11.0,-9.0,1
-20.0,106.0,-215.0,48.0,12.0,-9.0,1
-20.0,107.0,-217.0,48.0,13.0,-9.0,1
