ax,ay,az,gx,gy,gz,label
-10.0,-253.0,29.0,15.0,72.0,5.0,1
-14.0,-252.0,31.0,12.0,70.0,4.0,1
-11.0,-253.0,34.0,9.0,72.0,4.0,1
-14.0,-253.0,31.0,10.0,71.0,5.0,1
-12.0,-254.0,33.0,11.0,72.0,5.0,1
-13.0,-254.0,30.0,16.0,70.0,5.0,1
-13.0,-252.0,32.0,18.0,68.0,7.0,1
-12.0,-251.0,30.0,20.0,68.0,8.0,1
-11.0,-253.0,33.0,20.0,67.0,8.0,1
-14.0,-253.0,31.0,21.0,65.0,7.0,1
-15.0,-251.0,32.0,20.0,66.0,9.0,1
-12.0,-254.0,31.0,19.0,67.0,9.0,1
-13.0,-252.0,35.0,18.0,67.0,8.0,1
-12.0,-251.0,29.0,18.0,69.0,8.0,1
-11.0,-251.0,31.0,14.0,70.0,5.0,1
-13.0,-253.0,30.0,12.0,71.0,5.0,1
-11.0,-253.0,30.0,7.0,71.0,4.0,1
-16.0,-254.0,31.0,-2.0,71.0,2.0,1
-13.0,-255.0,34.0,-10.0,72.0,1.0,1
-12.0,-251.0,33.0,-13.0,73.0,2.0,1
-15.0,-255.0,32.0,-11.0,75.0,1.0,1
-11.0,-254.0,34.0,-7.0,75.0,2.0,1
-11.0,-253.0,31.0,-4.0,73.0,1.0,1
-11.0,-253.0,31.0,-3.0,73.0,2.0,1
-11.0,-256.0,32.0,-1.0,74.0,1.0,1
-14.0,-252.0,30.0,0.0,73.0,0.0,1
-11.0,-256.0,21.0,2.0,71.0,0.0,1
-14.0,-253.0,30.0,5.0,69.0,1.0,1
-12.0,-252.0,31.0,7.0,69.0,1.0,1
-15.0,-253.0,30.0,6.0,71.0,2.0,1
-12.0,-250.0,30.0,3.0,72.0,2.0,1
-14.0,-250.0,32.0,2.0,73.0,1.0,1
-12.0,-252.0,32.0,0.0,73.0,-1.0,1
-11.0,-250.0,32.0,-1.0,73.0,0.0,1
-12.0,-252.0,28.0,-1.0,73.0,0.0,1
-13.0,-254.0,31.0,-1.0,74.0,-1.0,1
-10.0,-256.0,30.0,-2.0,72.0,-1.0,1
-13.0,-252.0,32.0,-3.0,72.0,0.0,1
-15.0,-255.0,32.0,-3.0,73.0,1.0,1
-12.0,-254.0,28.0,-1.0,72.0,1.0,1
-12.0,-254.0,29.0,1.0,72.0,1.0,1
-15.0,-252.0,31.0,1.0,74.0,3.0,1
-12.0,-253.0,33.0,-1.0,75.0,4.0,1
-14.0,-257.0,30.0,-1.0,77.0,5.0,1
-14.0,-254.0,27.0,-1.0,78.0,6.0,1
-12.0,-252.0,30.0,1.0,77.0,8.0,1
-10.0,-258.0,32.0,2.0,77.0,7.0,1
-12.0,-254.0,27.0,3.0,76.0,8.0,1
-13.0,-252.0,29.0,4.0,74.0,8.0,1
-13.0,-252.0,35.0,5.0,72.0,6.0,1
-11.0,-255.0,34.0,6.0,72.0,5.0,1
-11.0,-256.0,34.0,7.0,70.0,3.0,1
-13.0,-255.0,32.0,9.0,70.0,0.0,1
-13.0,-255.0,32.0,9.0,72.0,-2.0,1
-16.0,-252.0,35.0,9.0,71.0,-4.0,1
-13.0,-253.0,33.0,9.0,73.0,-5.0,1
-15.0,-252.0,31.0,8.0,73.0,-6.0,1
-14.0,-253.0,29.0,7.0,74.0,-8.0,1
-13.0,-252.0,31.0,5.0,77.0,-8.0,1
-13.0,-252.0,31.0,3.0,77.0,-8.0,1
-15.0,-252.0,30.0,-1.0,77.0,-7.0,1
-14.0,-252.0,34.0,-5.0,78.0,-7.0,1
-13.0,-253.0,31.0,-10.0,79.0,-6.0,1
-14.0,-250.0,33.0,-11.0,79.0,-8.0,1
-13.0,-253.0,32.0,-14.0,76.0,-8.0,1
-11.0,-254.0,28.0,-15.0,74.0,-10.0,1
-15.0,-251.0,31.0,-17.0,72.0,-9.0,1
-15.0,-254.0,31.0,-17.0,69.0,-10.0,1
-11.0,-252.0,33.0,-15.0,66.0,-11.0,1
-12.0,-255.0,36.0,-14.0,64.0,-8.0,1
-9.0,-254.0,32.0,-12.0,64.0,-7.0,1
-14.0,-255.0,32.0,-9.0,62.0,-8.0,1
-15.0,-257.0,33.0,-6.0,64.0,-6.0,1
-12.0,-252.0,31.0,-3.0,65.0,-5.0,1
-15.0,-251.0,30.0,1.0,66.0,-4.0,1
-13.0,-255.0,36.0,4.0,67.0,-4.0,1
-12.0,-256.0,33.0,6.0,69.0,-4.0,1
-11.0,-255.0,39.0,7.0,71.0,-4.0,1
-14.0,-255.0,33.0,8.0,73.0,-4.0,1
-11.0,-254.0,35.0,9.0,73.0,-3.0,1
-14.0,-254.0,28.0,11.0,72.0,-3.0,1
-12.0,-253.0,33.0,11.0,71.0,-2.0,1
-12.0,-254.0,32.0,11.0,70.0,-2.0,1
-12.0,-253.0,34.0,13.0,69.0,-3.0,1
-12.0,-253.0,31.0,14.0,68.0,-2.0,1
-13.0,-252.0,33.0,11.0,68.0,0.0,1
-13.0,-249.0,32.0,7.0,68.0,1.0,1
-15.0,-252.0,32.0,3.0,70.0,1.0,1
-8.0,-253.0,36.0,1.0,70.0,2.0,1
-12.0,-252.0,37.0,1.0,71.0,2.0,1
-13.0,-251.0,36.0,2.0,70.0,4.0,1
-13.0,-252.0,36.0,5.0,70.0,3.0,1
-12.0,-255.0,36.0,5.0,69.0,3.0,1
-14.0,-253.0,34.0,8.0,68.0,2.0,1
-14.0,-254.0,36.0,13.0,68.0,2.0,1
-12.0,-255.0,37.0,18.0,67.0,2.0,1
-13.0,-252.0,36.0,21.0,67.0,2.0,1
-12.0,-252.0,38.0,21.0,68.0,2.0,1
-12.0,-252.0,33.0,19.0,67.0,4.0,1
-12.0,-252.0,33.0,17.0,67.0,2.0,1
-15.0,-253.0,35.0,15.0,67.0,3.0,1
-16.0,-251.0,31.0,14.0,68.0,4.0,1
-12.0,-253.0,39.0,11.0,70.0,4.0,1
-12.0,-250.0,34.0,8.0,70.0,3.0,1
-14.0,-252.0,33.0,6.0,72.0,3.0,1
-13.0,-252.0,32.0,3.0,73.0,1.0,1
-12.0,-253.0,30.0,1.0,75.0,2.0,1
-15.0,-250.0,36.0,-2.0,76.0,0.0,1
-14.0,-253.0,33.0,-4.0,78.0,0.0,1
-12.0,-255.0,32.0,-5.0,80.0,-1.0,1
-11.0,-254.0,34.0,-5.0,80.0,-3.0,1
-15.0,-254.0,35.0,-5.0,81.0,-6.0,1
-12.0,-251.0,30.0,-4.0,80.0,-7.0,1
-17.0,-257.0,29.0,-3.0,80.0,-9.0,1
-11.0,-255.0,31.0,-4.0,81.0,-9.0,1
-13.0,-252.0,31.0,-7.0,80.0,-8.0,1
-14.0,-252.0,29.0,-8.0,78.0,-9.0,1
-13.0,-251.0,29.0,-12.0,76.0,-9.0,1
-13.0,-248.0,34.0,-18.0,74.0,-8.0,1
-6.0,-254.0,30.0,-20.0,74.0,-7.0,1
-13.0,-256.0,35.0,-21.0,73.0,-7.0,1
-13.0,-254.0,33.0,-21.0,72.0,-5.0,1
-14.0,-252.0,35.0,-16.0,70.0,-5.0,1
-12.0,-254.0,29.0,-11.0,70.0,-3.0,1
-12.0,-256.0,35.0,-9.0,68.0,-2.0,1
-14.0,-255.0,32.0,-5.0,70.0,-2.0,1
-13.0,-255.0,29.0,-1.0,70.0,-1.0,1
-13.0,-253.0,32.0,4.0,70.0,1.0,1
-11.0,-255.0,33.0,10.0,71.0,3.0,1
-12.0,-252.0,30.0,14.0,71.0,4.0,1
-10.0,-254.0,33.0,16.0,73.0,4.0,1
-16.0,-250.0,34.0,14.0,73.0,6.0,1
-14.0,-250.0,31.0,10.0,74.0,10.0,1
-13.0,-252.0,29.0,4.0,74.0,9.0,1
-12.0,-252.0,31.0,-2.0,75.0,9.0,1
-13.0,-253.0,31.0,-4.0,74.0,7.0,1
-12.0,-255.0,34.0,-5.0,71.0,8.0,1
-14.0,-253.0,37.0,-5.0,69.0,7.0,1
-14.0,-253.0,38.0,-6.0,69.0,8.0,1
-11.0,-255.0,37.0,-6.0,67.0,7.0,1
-12.0,-255.0,36.0,-6.0,66.0,7.0,1
-13.0,-253.0,33.0,-3.0,67.0,6.0,1
-11.0,-254.0,37.0,2.0,66.0,6.0,1
-13.0,-251.0,32.0,6.0,66.0,7.0,1
-14.0,-252.0,37.0,8.0,66.0,7.0,1
-13.0,-251.0,38.0,11.0,67.0,8.0,1
-11.0,-252.0,36.0,14.0,66.0,8.0,1
-14.0,-251.0,36.0,16.0,66.0,9.0,1
-12.0,-253.0,32.0,18.0,67.0,9.0,1
-11.0,-249.0,36.0,18.0,65.0,8.0,1
-10.0,-250.0,37.0,15.0,64.0,8.0,1
-15.0,-251.0,36.0,10.0,66.0,8.0,1
-12.0,-252.0,34.0,6.0,65.0,6.0,1
-9.0,-254.0,35.0,6.0,66.0,7.0,1
-13.0,-256.0,37.0,5.0,65.0,9.0,1
-12.0,-251.0,34.0,9.0,63.0,9.0,1
-11.0,-255.0,39.0,12.0,60.0,8.0,1
-9.0,-257.0,40.0,13.0,58.0,8.0,1
-14.0,-254.0,37.0,13.0,59.0,7.0,1
-13.0,-254.0,36.0,12.0,59.0,10.0,1
-13.0,-252.0,40.0,10.0,61.0,9.0,1
-14.0,-255.0,34.0,12.0,64.0,9.0,1
-14.0,-253.0,35.0,12.0,68.0,10.0,1
-13.0,-251.0,35.0,12.0,70.0,9.0,1
-11.0,-250.0,40.0,10.0,73.0,10.0,1
-14.0,-251.0,38.0,9.0,74.0,10.0,1
-13.0,-254.0,36.0,9.0,74.0,9.0,1
-19.0,-254.0,42.0,8.0,74.0,8.0,1
-16.0,-252.0,35.0,8.0,74.0,6.0,1
-14.0,-250.0,36.0,8.0,73.0,5.0,1
-12.0,-253.0,33.0,6.0,72.0,5.0,1
-14.0,-252.0,33.0,1.0,73.0,5.0,1
-15.0,-252.0,32.0,-6.0,73.0,5.0,1
-14.0,-255.0,36.0,-10.0,73.0,3.0,1
-15.0,-251.0,33.0,-10.0,73.0,3.0,1
-15.0,-253.0,35.0,-9.0,73.0,3.0,1
-13.0,-253.0,35.0,-8.0,73.0,4.0,1
-14.0,-255.0,35.0,-9.0,74.0,4.0,1
-14.0,-251.0,34.0,-11.0,74.0,5.0,1
-12.0,-258.0,37.0,-11.0,73.0,4.0,1
-17.0,-254.0,31.0,-13.0,72.0,2.0,1
-15.0,-252.0,34.0,-13.0,73.0,1.0,1
-16.0,-251.0,38.0,-14.0,73.0,1.0,1
-9.0,-252.0,34.0,-15.0,73.0,1.0,1
-11.0,-253.0,32.0,-17.0,72.0,2.0,1
-14.0,-252.0,36.0,-19.0,70.0,1.0,1
-13.0,-252.0,38.0,-21.0,70.0,1.0,1
-14.0,-253.0,33.0,-22.0,70.0,-1.0,1
-15.0,-250.0,27.0,-24.0,70.0,-2.0,1
-15.0,-251.0,32.0,-25.0,70.0,-2.0,1
-14.0,-252.0,33.0,-25.0,70.0,0.0,1
-14.0,-255.0,35.0,-25.0,68.0,0.0,1
-11.0,-252.0,35.0,-23.0,69.0,-1.0,1
-16.0,-253.0,38.0,-21.0,68.0,0.0,1
-16.0,-252.0,36.0,-20.0,68.0,0.0,1
-16.0,-251.0,33.0,-19.0,69.0,0.0,1
-16.0,-249.0,36.0,-18.0,67.0,-1.0,1
-14.0,-251.0,34.0,-18.0,67.0,0.0,1
-17.0,-251.0,39.0,-18.0,65.0,-2.0,1
-15.0,-252.0,33.0,-19.0,65.0,-2.0,1
-14.0,-252.0,35.0,-17.0,66.0,-3.0,1
-13.0,-252.0,28.0,-16.0,66.0,-1.0,1
-15.0,-251.0,36.0,-13.0,66.0,-1.0,1
-13.0,-255.0,32.0,-9.0,66.0,-1.0,1
-14.0,-254.0,33.0,-5.0,65.0,0.0,1
-14.0,-254.0,34.0,-5.0,65.0,0.0,1
-12.0,-251.0,35.0,-6.0,66.0,2.0,1
-16.0,-253.0,34.0,-8.0,67.0,2.0,1
-11.0,-252.0,35.0,-9.0,68.0,1.0,1
-15.0,-253.0,35.0,-10.0,69.0,-1.0,1
-9.0,-253.0,34.0,-9.0,68.0,0.0,1
-14.0,-257.0,35.0,-10.0,68.0,-2.0,1
-14.0,-254.0,35.0,-10.0,69.0,-1.0,1
-17.0,-253.0,35.0,-11.0,69.0,-2.0,1
-15.0,-254.0,36.0,-10.0,69.0,-2.0,1
-13.0,-255.0,35.0,-9.0,69.0,-1.0,1
-16.0,-253.0,37.0,-7.0,67.0,-1.0,1
-15.0,-255.0,32.0,-1.0,67.0,0.0,1
-14.0,-254.0,32.0,0.0,66.0,0.0,1
-13.0,-252.0,33.0,-1.0,65.0,0.0,1
-15.0,-254.0,36.0,-2.0,65.0,0.0,1
-16.0,-254.0,34.0,-4.0,65.0,-2.0,1
-14.0,-255.0,32.0,-5.0,66.0,-3.0,1
-13.0,-255.0,37.0,-5.0,66.0,-3.0,1
-13.0,-253.0,38.0,-5.0,66.0,-4.0,1
-15.0,-254.0,37.0,-5.0,67.0,-4.0,1
-14.0,-252.0,33.0,-5.0,67.0,-3.0,1
-17.0,-252.0,32.0,-3.0,69.0,-4.0,1
-13.0,-254.0,37.0,0.0,71.0,-5.0,1
-15.0,-250.0,37.0,1.0,71.0,-3.0,1
-12.0,-252.0,35.0,1.0,70.0,-2.0,1
-13.0,-253.0,37.0,0.0,70.0,-3.0,1
-12.0,-252.0,33.0,-2.0,70.0,-4.0,1
-13.0,-250.0,38.0,-5.0,69.0,-5.0,1
-16.0,-253.0,36.0,-7.0,68.0,-5.0,1
-15.0,-251.0,35.0,-7.0,66.0,-5.0,1
-13.0,-256.0,35.0,-6.0,66.0,-5.0,1
-14.0,-251.0,31.0,-8.0,66.0,-6.0,1
-15.0,-254.0,31.0,-7.0,64.0,-6.0,1
-11.0,-256.0,33.0,-8.0,61.0,-5.0,1
-15.0,-255.0,34.0,-9.0,61.0,-5.0,1
-12.0,-255.0,35.0,-7.0,62.0,-7.0,1
-17.0,-252.0,34.0,-3.0,62.0,-6.0,1
-14.0,-251.0,33.0,2.0,62.0,-7.0,1
-21.0,-265.0,43.0,5.0,62.0,-8.0,1
-14.0,-255.0,36.0,8.0,62.0,-8.0,1
-15.0,-253.0,36.0,9.0,62.0,-8.0,1
-13.0,-255.0,35.0,11.0,61.0,-10.0,1
-13.0,-252.0,33.0,12.0,60.0,-11.0,1
-15.0,-251.0,36.0,15.0,60.0,-12.0,1
-14.0,-255.0,34.0,20.0,58.0,-11.0,1
-18.0,-255.0,35.0,21.0,57.0,-13.0,1
-14.0,-253.0,34.0,21.0,58.0,-13.0,1
-14.0,-255.0,35.0,20.0,56.0,-13.0,1
-16.0,-252.0,38.0,15.0,56.0,-15.0,1
-15.0,-253.0,35.0,12.0,56.0,-17.0,1
-19.0,-250.0,36.0,5.0,57.0,-18.0,1
-18.0,-249.0,39.0,1.0,57.0,-20.0,1
-16.0,-252.0,34.0,-2.0,56.0,-21.0,1
-18.0,-252.0,38.0,-5.0,57.0,-22.0,1
-13.0,-251.0,40.0,-5.0,58.0,-22.0,1
-16.0,-250.0,38.0,-6.0,60.0,-21.0,1
-16.0,-248.0,38.0,-8.0,61.0,-22.0,1
-12.0,-250.0,40.0,-11.0,61.0,-23.0,1
-12.0,-252.0,39.0,-15.0,63.0,-22.0,1
-14.0,-252.0,40.0,-20.0,66.0,-20.0,1
-12.0,-252.0,36.0,-22.0,68.0,-17.0,1
-9.0,-251.0,38.0,-23.0,69.0,-14.0,1
-11.0,-253.0,38.0,-23.0,69.0,-11.0,1
-11.0,-251.0,38.0,-22.0,70.0,-7.0,1
-9.0,-254.0,39.0,-21.0,69.0,-5.0,1
-12.0,-253.0,37.0,-20.0,67.0,-5.0,1
-10.0,-254.0,38.0,-18.0,66.0,-3.0,1
-9.0,-252.0,40.0,-17.0,65.0,-3.0,1
-11.0,-255.0,37.0,-17.0,67.0,-2.0,1
-13.0,-252.0,40.0,-14.0,66.0,-2.0,1
-14.0,-251.0,39.0,-12.0,66.0,-1.0,1
-11.0,-251.0,39.0,-10.0,65.0,-1.0,1
-9.0,-250.0,39.0,-12.0,65.0,-1.0,1
-12.0,-251.0,39.0,-17.0,66.0,-2.0,1
-10.0,-252.0,37.0,-23.0,68.0,-1.0,1
-10.0,-250.0,39.0,-33.0,68.0,0.0,1
-10.0,-252.0,35.0,-39.0,68.0,-1.0,1
-10.0,-253.0,35.0,-41.0,68.0,0.0,1
-10.0,-255.0,39.0,-40.0,68.0,0.0,1
-8.0,-250.0,37.0,-38.0,67.0,3.0,1
-10.0,-256.0,35.0,-35.0,67.0,4.0,1
-14.0,-255.0,34.0,-32.0,65.0,4.0,1
-15.0,-262.0,24.0,-31.0,65.0,4.0,1
-17.0,-251.0,34.0,-30.0,64.0,6.0,1
-12.0,-254.0,34.0,-31.0,62.0,5.0,1
-13.0,-253.0,31.0,-32.0,62.0,4.0,1
-14.0,-250.0,36.0,-32.0,61.0,3.0,1
-15.0,-252.0,31.0,-34.0,61.0,2.0,1
-12.0,-252.0,36.0,-34.0,60.0,1.0,1
-12.0,-251.0,31.0,-37.0,59.0,1.0,1
-15.0,-255.0,33.0,-42.0,59.0,-1.0,1
-12.0,-252.0,31.0,-47.0,58.0,-2.0,1
-16.0,-248.0,27.0,-50.0,57.0,-2.0,1
-14.0,-254.0,30.0,-48.0,57.0,-3.0,1
-17.0,-252.0,33.0,-46.0,56.0,-7.0,1
-15.0,-255.0,32.0,-44.0,54.0,-7.0,1
-14.0,-253.0,32.0,-46.0,52.0,-10.0,1
-16.0,-252.0,32.0,-48.0,51.0,-13.0,1
-15.0,-251.0,28.0,-54.0,52.0,-16.0,1
-14.0,-253.0,33.0,-58.0,51.0,-19.0,1
-17.0,-252.0,30.0,-59.0,52.0,-19.0,1
-15.0,-253.0,32.0,-57.0,53.0,-21.0,1
-16.0,-251.0,29.0,-55.0,53.0,-22.0,1
-15.0,-251.0,31.0,-55.0,51.0,-21.0,1
-14.0,-251.0,31.0,-56.0,53.0,-21.0,1
-15.0,-254.0,30.0,-56.0,54.0,-21.0,1
-16.0,-252.0,34.0,-56.0,57.0,-20.0,1
-11.0,-251.0,33.0,-56.0,60.0,-19.0,1
-15.0,-252.0,35.0,-55.0,61.0,-18.0,1
-14.0,-256.0,34.0,-55.0,63.0,-16.0,1
-13.0,-253.0,34.0,-54.0,62.0,-13.0,1
-12.0,-252.0,36.0,-52.0,63.0,-12.0,1
-14.0,-256.0,34.0,-50.0,64.0,-10.0,1
-15.0,-252.0,35.0,-51.0,65.0,-8.0,1
-14.0,-253.0,33.0,-52.0,65.0,-9.0,1
-9.0,-254.0,37.0,-55.0,67.0,-7.0,1
-12.0,-255.0,38.0,-57.0,68.0,-8.0,1
-10.0,-252.0,37.0,-57.0,70.0,-6.0,1
-8.0,-255.0,35.0,-54.0,70.0,-5.0,1
-13.0,-251.0,37.0,-51.0,72.0,-4.0,1
-12.0,-251.0,35.0,-49.0,71.0,-2.0,1
-12.0,-252.0,36.0,-47.0,72.0,-2.0,1
-15.0,-252.0,39.0,-44.0,73.0,-1.0,1
-13.0,-253.0,37.0,-40.0,73.0,-1.0,1
-11.0,-252.0,38.0,-38.0,75.0,0.0,1
-12.0,-252.0,44.0,-37.0,75.0,1.0,1
-12.0,-250.0,40.0,-37.0,75.0,2.0,1
-12.0,-255.0,39.0,-39.0,76.0,3.0,1
-9.0,-254.0,34.0,-38.0,77.0,4.0,1
-14.0,-251.0,38.0,-39.0,78.0,4.0,1
-13.0,-253.0,34.0,-40.0,77.0,4.0,1
-15.0,-250.0,38.0,-41.0,76.0,5.0,1
-8.0,-253.0,38.0,-43.0,75.0,5.0,1
-13.0,-255.0,37.0,-46.0,74.0,4.0,1
-13.0,-250.0,41.0,-50.0,72.0,4.0,1
-14.0,-260.0,41.0,-52.0,71.0,2.0,1
-13.0,-252.0,38.0,-55.0,70.0,2.0,1
-13.0,-252.0,33.0,-58.0,70.0,0.0,1
-10.0,-251.0,35.0,-62.0,70.0,-2.0,1
-13.0,-252.0,34.0,-64.0,68.0,-5.0,1
-13.0,-251.0,36.0,-68.0,67.0,-6.0,1
-12.0,-251.0,37.0,-72.0,66.0,-9.0,1
-10.0,-250.0,35.0,-79.0,66.0,-11.0,1
-13.0,-254.0,34.0,-85.0,65.0,-10.0,1
-12.0,-254.0,33.0,-94.0,64.0,-14.0,1
-13.0,-252.0,31.0,-103.0,63.0,-16.0,1
-9.0,-253.0,29.0,-108.0,65.0,-18.0,1
-14.0,-252.0,33.0,-113.0,65.0,-19.0,1
-14.0,-252.0,33.0,-114.0,64.0,-20.0,1
-10.0,-252.0,34.0,-116.0,62.0,-20.0,1
-16.0,-254.0,33.0,-116.0,62.0,-21.0,1
-14.0,-253.0,29.0,-115.0,61.0,-18.0,1
-16.0,-251.0,33.0,-113.0,62.0,-20.0,1
-15.0,-253.0,31.0,-114.0,61.0,-21.0,1
-14.0,-251.0,32.0,-114.0,60.0,-22.0,1
-16.0,-254.0,33.0,-116.0,58.0,-21.0,1
-14.0,-253.0,34.0,-118.0,58.0,-23.0,1
-16.0,-253.0,31.0,-119.0,58.0,-22.0,1
-16.0,-252.0,29.0,-123.0,57.0,-22.0,1
-15.0,-255.0,33.0,-125.0,58.0,-22.0,1
-15.0,-255.0,31.0,-132.0,57.0,-21.0,1
-16.0,-251.0,32.0,-139.0,61.0,-21.0,1
-16.0,-250.0,29.0,-148.0,61.0,-23.0,1
-15.0,-251.0,25.0,-152.0,62.0,-24.0,1
-14.0,-253.0,29.0,-153.0,63.0,-23.0,1
-15.0,-254.0,28.0,-152.0,64.0,-24.0,1
-12.0,-253.0,29.0,-149.0,63.0,-24.0,1
-15.0,-256.0,31.0,-146.0,62.0,-25.0,1
-15.0,-251.0,28.0,-142.0,63.0,-25.0,1
-24.0,-255.0,20.0,-137.0,62.0,-25.0,1
-13.0,-254.0,26.0,-135.0,61.0,-25.0,1
-15.0,-251.0,27.0,-135.0,59.0,-26.0,1
-15.0,-251.0,24.0,-138.0,58.0,-25.0,1
-15.0,-252.0,30.0,-143.0,58.0,-26.0,1
-15.0,-252.0,29.0,-145.0,59.0,-28.0,1
-13.0,-255.0,24.0,-150.0,61.0,-28.0,1
-13.0,-253.0,26.0,-154.0,62.0,-27.0,1
-16.0,-253.0,26.0,-161.0,62.0,-28.0,1
-14.0,-254.0,26.0,-167.0,61.0,-31.0,1
-10.0,-254.0,27.0,-174.0,60.0,-31.0,1
-12.0,-253.0,24.0,-176.0,60.0,-32.0,1
-13.0,-254.0,24.0,-175.0,58.0,-32.0,1
-13.0,-254.0,25.0,-171.0,59.0,-33.0,1
-13.0,-257.0,24.0,-167.0,58.0,-33.0,1
-11.0,-256.0,25.0,-163.0,58.0,-34.0,1
-10.0,-253.0,23.0,-161.0,56.0,-35.0,1
-8.0,-251.0,19.0,-160.0,58.0,-35.0,1
-11.0,-255.0,15.0,-158.0,58.0,-34.0,1
-10.0,-253.0,19.0,-153.0,58.0,-34.0,1
-11.0,-255.0,17.0,-147.0,59.0,-30.0,1
-11.0,-255.0,16.0,-140.0,61.0,-28.0,1
-9.0,-255.0,16.0,-133.0,64.0,-27.0,1
-10.0,-256.0,17.0,-128.0,66.0,-26.0,1
-12.0,-255.0,18.0,-122.0,68.0,-24.0,1
-10.0,-252.0,18.0,-117.0,69.0,-22.0,1
-10.0,-256.0,19.0,-115.0,70.0,-20.0,1
-11.0,-252.0,21.0,-114.0,70.0,-21.0,1
-13.0,-252.0,20.0,-117.0,70.0,-21.0,1
-13.0,-255.0,19.0,-126.0,68.0,-21.0,1
-12.0,-253.0,21.0,-136.0,67.0,-22.0,1
-12.0,-251.0,20.0,-146.0,66.0,-23.0,1
-8.0,-254.0,17.0,-154.0,64.0,-25.0,1
-10.0,-255.0,21.0,-162.0,63.0,-27.0,1
-8.0,-253.0,18.0,-171.0,63.0,-26.0,1
-10.0,-256.0,16.0,-176.0,63.0,-25.0,1
-10.0,-256.0,17.0,-182.0,62.0,-26.0,1
-10.0,-257.0,17.0,-183.0,62.0,-26.0,1
-9.0,-258.0,20.0,-182.0,62.0,-29.0,1
-11.0,-256.0,18.0,-179.0,62.0,-30.0,1
-5.0,-256.0,21.0,-178.0,63.0,-31.0,1
-7.0,-255.0,16.0,-176.0,63.0,-32.0,1
-8.0,-254.0,18.0,-176.0,65.0,-34.0,1
-6.0,-257.0,20.0,-177.0,65.0,-35.0,1
-6.0,-255.0,18.0,-180.0,67.0,-37.0,1
-7.0,-252.0,14.0,-185.0,68.0,-37.0,1
-5.0,-253.0,15.0,-187.0,70.0,-40.0,1
-9.0,-254.0,21.0,-189.0,70.0,-41.0,1
-7.0,-252.0,16.0,-189.0,69.0,-41.0,1
-6.0,-254.0,20.0,-190.0,67.0,-42.0,1
-6.0,-251.0,20.0,-192.0,67.0,-43.0,1
-8.0,-250.0,20.0,-197.0,68.0,-44.0,1
-6.0,-252.0,18.0,-202.0,69.0,-44.0,1
-3.0,-253.0,11.0,-207.0,73.0,-44.0,1
-2.0,-255.0,21.0,-215.0,76.0,-45.0,1
-7.0,-251.0,22.0,-222.0,77.0,-47.0,1
-6.0,-251.0,16.0,-229.0,77.0,-47.0,1
-9.0,-251.0,18.0,-234.0,75.0,-48.0,1
-11.0,-255.0,12.0,-239.0,74.0,-46.0,1
-9.0,-256.0,17.0,-243.0,74.0,-45.0,1
-9.0,-258.0,16.0,-247.0,73.0,-44.0,1
-10.0,-259.0,16.0,-249.0,72.0,-43.0,1
-7.0,-259.0,13.0,-250.0,72.0,-42.0,1
-12.0,-258.0,14.0,-248.0,74.0,-42.0,1
-7.0,-262.0,16.0,-243.0,75.0,-39.0,1
-11.0,-256.0,14.0,-239.0,74.0,-36.0,1
-11.0,-253.0,15.0,-238.0,74.0,-36.0,1
-13.0,-252.0,13.0,-238.0,73.0,-32.0,1
-13.0,-254.0,11.0,-241.0,72.0,-31.0,1
-13.0,-251.0,13.0,-247.0,70.0,-30.0,1
-11.0,-253.0,14.0,-252.0,68.0,-28.0,1
-11.0,-253.0,8.0,-256.0,68.0,-27.0,1
-13.0,-253.0,9.0,-262.0,68.0,-29.0,1
-10.0,-257.0,10.0,-264.0,65.0,-26.0,1
-12.0,-256.0,11.0,-262.0,64.0,-26.0,1
-8.0,-259.0,8.0,-258.0,65.0,-25.0,1
-7.0,-258.0,7.0,-255.0,64.0,-24.0,1
-10.0,-255.0,7.0,-253.0,63.0,-22.0,1
-8.0,-253.0,11.0,-251.0,64.0,-20.0,1
-8.0,-254.0,7.0,-252.0,64.0,-19.0,1
-6.0,-254.0,8.0,-254.0,64.0,-19.0,1
-8.0,-254.0,7.0,-260.0,64.0,-15.0,1
-9.0,-251.0,5.0,-264.0,64.0,-16.0,1
-7.0,-253.0,4.0,-269.0,64.0,-16.0,1
-9.0,-254.0,4.0,-274.0,63.0,-16.0,1
-4.0,-254.0,1.0,-280.0,62.0,-18.0,1
-6.0,-251.0,-3.0,-284.0,63.0,-19.0,1
-5.0,-251.0,-9.0,-290.0,63.0,-20.0,1
-7.0,-256.0,1.0,-295.0,63.0,-20.0,1
-9.0,-254.0,-1.0,-299.0,62.0,-20.0,1
-11.0,-259.0,-3.0,-300.0,63.0,-21.0,1
-8.0,-256.0,-5.0,-302.0,62.0,-22.0,1
-7.0,-257.0,-4.0,-302.0,62.0,-24.0,1
-10.0,-255.0,-7.0,-304.0,62.0,-25.0,1
-7.0,-255.0,-12.0,-305.0,63.0,-26.0,1
-7.0,-257.0,-8.0,-306.0,64.0,-31.0,1
-8.0,-257.0,-12.0,-305.0,60.0,-34.0,1
-3.0,-259.0,-9.0,-307.0,56.0,-36.0,1
-9.0,-255.0,-12.0,-308.0,53.0,-38.0,1
-4.0,-256.0,-10.0,-310.0,53.0,-42.0,1
-7.0,-258.0,-10.0,-312.0,54.0,-45.0,1
-8.0,-257.0,-13.0,-315.0,54.0,-48.0,1
-10.0,-255.0,-9.0,-316.0,55.0,-49.0,1
-4.0,-260.0,-14.0,-317.0,55.0,-50.0,1
-10.0,-259.0,-15.0,-317.0,57.0,-53.0,1
-8.0,-262.0,-9.0,-315.0,56.0,-52.0,1
-6.0,-260.0,-9.0,-311.0,55.0,-55.0,1
-8.0,-261.0,-13.0,-309.0,55.0,-58.0,1
-4.0,-260.0,-10.0,-301.0,54.0,-57.0,1
-7.0,-258.0,-10.0,-296.0,54.0,-57.0,1
-9.0,-258.0,-14.0,-291.0,54.0,-57.0,1
-8.0,-258.0,-10.0,-284.0,55.0,-57.0,1
-10.0,-257.0,-10.0,-282.0,57.0,-59.0,1
-5.0,-259.0,-12.0,-281.0,56.0,-59.0,1
-6.0,-254.0,-10.0,-283.0,57.0,-61.0,1
-7.0,-257.0,-12.0,-286.0,56.0,-64.0,1
-7.0,-258.0,-10.0,-287.0,58.0,-64.0,1
-8.0,-255.0,-12.0,-285.0,61.0,-64.0,1
-9.0,-261.0,-11.0,-284.0,60.0,-65.0,1
-6.0,-264.0,-9.0,-284.0,60.0,-67.0,1
-5.0,-259.0,-13.0,-284.0,60.0,-66.0,1
-3.0,-261.0,-8.0,-284.0,58.0,-70.0,1
-5.0,-260.0,-12.0,-291.0,53.0,-71.0,1
-5.0,-257.0,-9.0,-310.0,45.0,-77.0,1
-9.0,-257.0,-6.0,-330.0,34.0,-78.0,1
-3.0,-253.0,-4.0,-354.0,23.0,-85.0,1
-6.0,-258.0,-6.0,-379.0,16.0,-89.0,1
-6.0,-256.0,0.0,-400.0,7.0,-95.0,1
-6.0,-253.0,0.0,-417.0,-1.0,-96.0,1
-7.0,-253.0,-3.0,-429.0,-8.0,-99.0,1
-4.0,-262.0,-3.0,-435.0,-14.0,-104.0,1
-3.0,-251.0,-4.0,-435.0,-16.0,-98.0,1
-2.0,-255.0,-7.0,-429.0,-16.0,-90.0,1
-3.0,-250.0,-9.0,-417.0,-13.0,-84.0,1
0.0,-254.0,-14.0,-399.0,-10.0,-81.0,1
-1.0,-255.0,-18.0,-378.0,-4.0,-79.0,1
0.0,-254.0,-20.0,-359.0,3.0,-76.0,1
-1.0,-258.0,-27.0,-339.0,7.0,-72.0,1
0.0,-257.0,-26.0,-319.0,9.0,-67.0,1
-2.0,-261.0,-29.0,-299.0,13.0,-61.0,1
-8.0,-259.0,-22.0,-285.0,20.0,-55.0,1
-1.0,-258.0,-32.0,-270.0,24.0,-52.0,1
0.0,-258.0,-32.0,-258.0,31.0,-48.0,1
-3.0,-256.0,-34.0,-248.0,43.0,-45.0,1
-7.0,-259.0,-33.0,-240.0,53.0,-43.0,1
-4.0,-257.0,-30.0,-231.0,63.0,-39.0,1
-8.0,-258.0,-29.0,-221.0,72.0,-37.0,1
-7.0,-257.0,-29.0,-209.0,79.0,-35.0,1
-5.0,-256.0,-29.0,-194.0,83.0,-33.0,1
-9.0,-255.0,-26.0,-182.0,87.0,-33.0,1
-7.0,-256.0,-32.0,-173.0,87.0,-33.0,1
-7.0,-258.0,-27.0,-164.0,86.0,-31.0,1
-5.0,-253.0,-24.0,-155.0,84.0,-34.0,1
0.0,-254.0,-29.0,-151.0,80.0,-35.0,1
-1.0,-252.0,-26.0,-148.0,78.0,-34.0,1
-7.0,-254.0,-27.0,-144.0,73.0,-36.0,1
-5.0,-253.0,-36.0,-142.0,74.0,-37.0,1
-5.0,-255.0,-30.0,-143.0,72.0,-36.0,1
-7.0,-255.0,-34.0,-143.0,72.0,-36.0,1
-5.0,-255.0,-31.0,-146.0,72.0,-37.0,1
-5.0,-256.0,-37.0,-148.0,72.0,-36.0,1
-2.0,-254.0,-35.0,-150.0,74.0,-36.0,1
-2.0,-256.0,-34.0,-148.0,75.0,-37.0,1
-1.0,-258.0,-34.0,-145.0,77.0,-35.0,1
-1.0,-259.0,-38.0,-138.0,82.0,-34.0,1
0.0,-259.0,-39.0,-133.0,84.0,-32.0,1
0.0,-258.0,-40.0,-127.0,84.0,-31.0,1
-3.0,-258.0,-36.0,-119.0,87.0,-28.0,1
-2.0,-257.0,-34.0,-114.0,88.0,-27.0,1
-2.0,-259.0,-35.0,-111.0,88.0,-27.0,1
1.0,-256.0,-30.0,-107.0,87.0,-24.0,1
0.0,-257.0,-32.0,-108.0,84.0,-25.0,1
2.0,-254.0,-31.0,-111.0,80.0,-26.0,1
-1.0,-251.0,-27.0,-115.0,77.0,-26.0,1
0.0,-253.0,-32.0,-121.0,74.0,-30.0,1
0.0,-251.0,-35.0,-128.0,72.0,-32.0,1
0.0,-255.0,-33.0,-134.0,68.0,-33.0,1
1.0,-255.0,-31.0,-140.0,67.0,-33.0,1
-3.0,-252.0,-34.0,-145.0,67.0,-33.0,1
1.0,-253.0,-32.0,-149.0,65.0,-35.0,1
0.0,-256.0,-32.0,-152.0,64.0,-36.0,1
1.0,-254.0,-32.0,-155.0,64.0,-36.0,1
0.0,-255.0,-31.0,-159.0,65.0,-38.0,1
-1.0,-256.0,-33.0,-159.0,65.0,-37.0,1
0.0,-257.0,-30.0,-159.0,67.0,-36.0,1
2.0,-257.0,-34.0,-158.0,67.0,-38.0,1
0.0,-255.0,-33.0,-157.0,66.0,-37.0,1
0.0,-253.0,-34.0,-154.0,66.0,-38.0,1
1.0,-258.0,-33.0,-151.0,64.0,-38.0,1
-1.0,-254.0,-33.0,-147.0,65.0,-36.0,1
1.0,-255.0,-35.0,-142.0,65.0,-36.0,1
-2.0,-254.0,-32.0,-137.0,67.0,-36.0,1
2.0,-253.0,-32.0,-133.0,68.0,-35.0,1
0.0,-255.0,-29.0,-130.0,70.0,-35.0,1
2.0,-255.0,-35.0,-129.0,71.0,-34.0,1
-2.0,-256.0,-32.0,-128.0,71.0,-33.0,1
0.0,-255.0,-33.0,-128.0,71.0,-31.0,1
1.0,-254.0,-33.0,-126.0,72.0,-31.0,1
2.0,-256.0,-33.0,-125.0,72.0,-31.0,1
0.0,-253.0,-36.0,-124.0,72.0,-31.0,1
1.0,-251.0,-36.0,-122.0,73.0,-30.0,1
-2.0,-255.0,-40.0,-120.0,75.0,-29.0,1
1.0,-254.0,-37.0,-115.0,76.0,-26.0,1
-1.0,-255.0,-37.0,-111.0,77.0,-25.0,1
1.0,-257.0,-36.0,-108.0,78.0,-22.0,1
1.0,-255.0,-38.0,-106.0,79.0,-21.0,1
0.0,-253.0,-37.0,-105.0,79.0,-18.0,1
-1.0,-256.0,-39.0,-103.0,80.0,-17.0,1
0.0,-254.0,-37.0,-101.0,79.0,-15.0,1
0.0,-254.0,-36.0,-102.0,78.0,-12.0,1
0.0,-252.0,-38.0,-104.0,78.0,-10.0,1
0.0,-254.0,-40.0,-104.0,77.0,-10.0,1
0.0,-253.0,-39.0,-106.0,76.0,-10.0,1
-1.0,-253.0,-39.0,-106.0,77.0,-9.0,1
0.0,-253.0,-40.0,-106.0,78.0,-9.0,1
-1.0,-256.0,-38.0,-106.0,77.0,-9.0,1
1.0,-252.0,-35.0,-107.0,77.0,-7.0,1
-2.0,-254.0,-47.0,-106.0,78.0,-8.0,1
-1.0,-252.0,-40.0,-104.0,77.0,-7.0,1
0.0,-253.0,-42.0,-103.0,77.0,-7.0,1
0.0,-253.0,-42.0,-103.0,76.0,-7.0,1
0.0,-253.0,-41.0,-106.0,76.0,-6.0,1
0.0,-253.0,-42.0,-110.0,76.0,-6.0,1
0.0,-254.0,-38.0,-113.0,77.0,-4.0,1
0.0,-254.0,-45.0,-116.0,75.0,-4.0,1
-2.0,-254.0,-42.0,-118.0,77.0,-4.0,1
-1.0,-255.0,-38.0,-122.0,78.0,-3.0,1
4.0,-256.0,-39.0,-123.0,79.0,-3.0,1
0.0,-254.0,-41.0,-124.0,78.0,-4.0,1
0.0,-253.0,-42.0,-125.0,80.0,-4.0,1
0.0,-257.0,-44.0,-126.0,80.0,-6.0,1
0.0,-254.0,-42.0,-126.0,81.0,-6.0,1
0.0,-254.0,-42.0,-125.0,80.0,-6.0,1
1.0,-252.0,-42.0,-123.0,79.0,-7.0,1
1.0,-255.0,-44.0,-121.0,79.0,-6.0,1
0.0,-252.0,-43.0,-122.0,78.0,-4.0,1
-1.0,-255.0,-44.0,-122.0,78.0,-5.0,1
0.0,-253.0,-43.0,-122.0,75.0,-5.0,1
0.0,-255.0,-44.0,-123.0,75.0,-6.0,1
-2.0,-253.0,-48.0,-124.0,75.0,-6.0,1
0.0,-255.0,-41.0,-124.0,74.0,-5.0,1
0.0,-255.0,-44.0,-125.0,73.0,-6.0,1
0.0,-251.0,-40.0,-126.0,74.0,-6.0,1
-2.0,-255.0,-43.0,-129.0,74.0,-6.0,1
-4.0,-253.0,-43.0,-131.0,71.0,-7.0,1
0.0,-253.0,-46.0,-131.0,68.0,-7.0,1
-1.0,-253.0,-49.0,-130.0,67.0,-6.0,1
0.0,-255.0,-43.0,-131.0,67.0,-6.0,1
0.0,-255.0,-41.0,-133.0,67.0,-6.0,1
0.0,-253.0,-46.0,-132.0,68.0,-6.0,1
0.0,-250.0,-43.0,-131.0,68.0,-3.0,1
0.0,-255.0,-43.0,-131.0,67.0,-6.0,1
1.0,-253.0,-46.0,-132.0,66.0,-7.0,1
2.0,-252.0,-44.0,-131.0,66.0,-8.0,1
1.0,-253.0,-43.0,-131.0,64.0,-9.0,1
0.0,-254.0,-43.0,-131.0,65.0,-9.0,1
0.0,-254.0,-44.0,-131.0,66.0,-8.0,1
0.0,-250.0,-45.0,-132.0,66.0,-10.0,1
-1.0,-254.0,-43.0,-132.0,67.0,-10.0,1
-2.0,-255.0,-44.0,-134.0,67.0,-9.0,1
0.0,-250.0,-47.0,-134.0,69.0,-8.0,1
1.0,-247.0,-43.0,-134.0,68.0,-6.0,1
-1.0,-251.0,-46.0,-136.0,70.0,-12.0,1
1.0,-253.0,-42.0,-135.0,70.0,-7.0,1
0.0,-253.0,-44.0,-136.0,70.0,-7.0,1
0.0,-252.0,-48.0,-135.0,71.0,-5.0,1
-2.0,-253.0,-48.0,-137.0,71.0,-4.0,1
-1.0,-252.0,-47.0,-138.0,70.0,-4.0,1
-1.0,-253.0,-45.0,-138.0,70.0,-3.0,1
1.0,-253.0,-48.0,-138.0,71.0,-4.0,1
-1.0,-253.0,-45.0,-139.0,70.0,-4.0,1
-1.0,-252.0,-51.0,-141.0,71.0,-5.0,1
2.0,-252.0,-45.0,-144.0,72.0,-5.0,1
1.0,-253.0,-48.0,-148.0,72.0,-5.0,1
0.0,-254.0,-48.0,-148.0,73.0,-5.0,1
0.0,-252.0,-49.0,-149.0,76.0,-4.0,1
-1.0,-251.0,-50.0,-149.0,73.0,-5.0,1
2.0,-254.0,-48.0,-147.0,73.0,-5.0,1
1.0,-253.0,-48.0,-146.0,75.0,-5.0,1
0.0,-251.0,-48.0,-147.0,77.0,-4.0,1
2.0,-253.0,-50.0,-147.0,76.0,-4.0,1
0.0,-250.0,-50.0,-150.0,74.0,-5.0,1
0.0,-249.0,-46.0,-153.0,74.0,-7.0,1
0.0,-249.0,-49.0,-157.0,75.0,-6.0,1
-5.0,-248.0,-49.0,-161.0,75.0,-6.0,1
1.0,-254.0,-52.0,-162.0,73.0,-5.0,1
0.0,-251.0,-55.0,-167.0,73.0,-5.0,1
0.0,-252.0,-49.0,-170.0,73.0,-4.0,1
0.0,-252.0,-51.0,-170.0,72.0,-4.0,1
-2.0,-250.0,-50.0,-170.0,74.0,-4.0,1
-1.0,-251.0,-54.0,-169.0,75.0,-2.0,1
0.0,-251.0,-56.0,-166.0,75.0,-3.0,1
0.0,-248.0,-50.0,-164.0,74.0,-4.0,1
0.0,-252.0,-53.0,-168.0,74.0,-5.0,1
0.0,-253.0,-50.0,-172.0,74.0,-6.0,1
0.0,-252.0,-52.0,-178.0,71.0,-8.0,1
-2.0,-251.0,-54.0,-180.0,70.0,-7.0,1
0.0,-251.0,-53.0,-180.0,70.0,-7.0,1
1.0,-254.0,-56.0,-179.0,69.0,-9.0,1
0.0,-254.0,-54.0,-177.0,69.0,-8.0,1
0.0,-253.0,-58.0,-173.0,70.0,-8.0,1
-3.0,-250.0,-53.0,-168.0,69.0,-7.0,1
0.0,-252.0,-54.0,-165.0,70.0,-6.0,1
0.0,-252.0,-52.0,-160.0,70.0,-5.0,1
-1.0,-253.0,-46.0,-157.0,70.0,-5.0,1
0.0,-255.0,-54.0,-155.0,70.0,-4.0,1
0.0,-252.0,-53.0,-157.0,71.0,-5.0,1
0.0,-252.0,-48.0,-160.0,70.0,-6.0,1
1.0,-251.0,-57.0,-164.0,69.0,-7.0,1
0.0,-249.0,-56.0,-168.0,68.0,-7.0,1
0.0,-254.0,-54.0,-174.0,70.0,-7.0,1
0.0,-249.0,-58.0,-178.0,70.0,-7.0,1
-2.0,-250.0,-56.0,-182.0,68.0,-7.0,1
1.0,-249.0,-57.0,-186.0,70.0,-7.0,1
5.0,-253.0,-58.0,-190.0,70.0,-7.0,1
0.0,-251.0,-56.0,-193.0,70.0,-6.0,1
0.0,-250.0,-61.0,-198.0,71.0,-7.0,1
0.0,-250.0,-61.0,-202.0,71.0,-7.0,1
0.0,-253.0,-59.0,-204.0,72.0,-7.0,1
0.0,-251.0,-59.0,-207.0,72.0,-6.0,1
0.0,-252.0,-58.0,-207.0,74.0,-5.0,1
2.0,-249.0,-60.0,-210.0,71.0,-5.0,1
1.0,-249.0,-58.0,-213.0,71.0,-7.0,1
0.0,-252.0,-61.0,-216.0,73.0,-8.0,1
1.0,-249.0,-58.0,-218.0,71.0,-7.0,1
1.0,-250.0,-62.0,-221.0,69.0,-6.0,1
3.0,-257.0,-65.0,-224.0,70.0,-7.0,1
1.0,-248.0,-60.0,-233.0,68.0,-21.0,1
0.0,-249.0,-61.0,-235.0,66.0,-14.0,1
0.0,-247.0,-59.0,-235.0,62.0,-11.0,1
-1.0,-248.0,-65.0,-234.0,62.0,-9.0,1
1.0,-251.0,-60.0,-235.0,61.0,-7.0,1
1.0,-251.0,-61.0,-236.0,60.0,-8.0,1
0.0,-249.0,-64.0,-233.0,62.0,-8.0,1
1.0,-249.0,-65.0,-235.0,63.0,-7.0,1
0.0,-251.0,-64.0,-234.0,62.0,-6.0,1
1.0,-251.0,-59.0,-235.0,62.0,-10.0,1
0.0,-249.0,-64.0,-232.0,62.0,-9.0,1
-3.0,-249.0,-63.0,-231.0,64.0,-10.0,1
1.0,-249.0,-69.0,-227.0,65.0,-11.0,1
0.0,-249.0,-63.0,-226.0,65.0,-12.0,1
1.0,-252.0,-67.0,-222.0,67.0,-13.0,1
-1.0,-251.0,-69.0,-215.0,66.0,-14.0,1
0.0,-251.0,-67.0,-210.0,66.0,-15.0,1
1.0,-251.0,-67.0,-208.0,68.0,-15.0,1
1.0,-248.0,-68.0,-206.0,70.0,-16.0,1
0.0,-249.0,-65.0,-209.0,72.0,-15.0,1
1.0,-247.0,-68.0,-212.0,75.0,-17.0,1
-7.0,-247.0,-71.0,-216.0,77.0,-17.0,1
0.0,-248.0,-68.0,-224.0,77.0,-15.0,1
0.0,-247.0,-70.0,-233.0,78.0,-16.0,1
1.0,-247.0,-69.0,-242.0,79.0,-16.0,1
1.0,-247.0,-65.0,-252.0,80.0,-15.0,1
2.0,-248.0,-64.0,-257.0,81.0,-16.0,1
0.0,-248.0,-67.0,-262.0,80.0,-17.0,1
0.0,-249.0,-65.0,-267.0,80.0,-17.0,1
1.0,-247.0,-69.0,-272.0,78.0,-16.0,1
1.0,-246.0,-71.0,-279.0,76.0,-15.0,1
1.0,-241.0,-70.0,-284.0,75.0,-13.0,1
0.0,-245.0,-67.0,-288.0,75.0,-12.0,1
0.0,-248.0,-70.0,-293.0,73.0,-12.0,1
0.0,-247.0,-71.0,-297.0,71.0,-12.0,1
-3.0,-246.0,-76.0,-299.0,70.0,-12.0,1
0.0,-248.0,-74.0,-303.0,70.0,-13.0,1
0.0,-248.0,-70.0,-308.0,68.0,-13.0,1
-3.0,-246.0,-76.0,-312.0,69.0,-14.0,1
1.0,-247.0,-74.0,-316.0,69.0,-14.0,1
0.0,-246.0,-76.0,-318.0,69.0,-14.0,1
1.0,-249.0,-76.0,-319.0,72.0,-13.0,1
0.0,-247.0,-80.0,-318.0,74.0,-13.0,1
1.0,-247.0,-76.0,-314.0,75.0,-11.0,1
2.0,-248.0,-78.0,-309.0,76.0,-9.0,1
0.0,-248.0,-77.0,-304.0,79.0,-9.0,1
1.0,-249.0,-74.0,-301.0,79.0,-6.0,1
4.0,-246.0,-76.0,-300.0,80.0,-7.0,1
0.0,-250.0,-81.0,-300.0,81.0,-6.0,1
1.0,-245.0,-81.0,-305.0,81.0,-9.0,1
0.0,-246.0,-79.0,-306.0,81.0,-7.0,1
1.0,-247.0,-83.0,-307.0,80.0,-5.0,1
0.0,-246.0,-79.0,-309.0,78.0,-5.0,1
1.0,-246.0,-78.0,-311.0,77.0,-7.0,1
0.0,-244.0,-81.0,-314.0,75.0,-9.0,1
0.0,-244.0,-81.0,-318.0,74.0,-12.0,1
0.0,-243.0,-82.0,-324.0,74.0,-12.0,1
0.0,-244.0,-80.0,-329.0,75.0,-13.0,1
0.0,-244.0,-82.0,-332.0,74.0,-15.0,1
0.0,-244.0,-82.0,-337.0,76.0,-18.0,1
1.0,-242.0,-83.0,-340.0,76.0,-17.0,1
1.0,-246.0,-90.0,-343.0,76.0,-18.0,1
0.0,-241.0,-89.0,-344.0,76.0,-19.0,1
1.0,-251.0,-92.0,-348.0,76.0,-20.0,1
8.0,-242.0,-88.0,-361.0,73.0,-34.0,1
0.0,-242.0,-86.0,-362.0,68.0,-26.0,1
-1.0,-242.0,-89.0,-366.0,65.0,-25.0,1
0.0,-243.0,-91.0,-370.0,62.0,-27.0,1
-1.0,-242.0,-89.0,-374.0,58.0,-29.0,1
-1.0,-244.0,-92.0,-378.0,54.0,-29.0,1
1.0,-242.0,-93.0,-381.0,52.0,-29.0,1
0.0,-241.0,-92.0,-382.0,49.0,-31.0,1
0.0,-240.0,-92.0,-383.0,47.0,-33.0,1
2.0,-241.0,-95.0,-382.0,47.0,-32.0,1
1.0,-240.0,-91.0,-381.0,46.0,-32.0,1
2.0,-237.0,-98.0,-380.0,48.0,-30.0,1
3.0,-241.0,-97.0,-381.0,50.0,-28.0,1
2.0,-241.0,-97.0,-384.0,52.0,-28.0,1
2.0,-238.0,-94.0,-386.0,54.0,-28.0,1
4.0,-241.0,-100.0,-387.0,56.0,-29.0,1
3.0,-240.0,-98.0,-390.0,60.0,-26.0,1
3.0,-238.0,-93.0,-394.0,64.0,-24.0,1
4.0,-243.0,-96.0,-394.0,65.0,-24.0,1
4.0,-244.0,-96.0,-394.0,68.0,-22.0,1
4.0,-242.0,-95.0,-393.0,70.0,-20.0,1
1.0,-239.0,-94.0,-394.0,71.0,-18.0,1
2.0,-242.0,-96.0,-393.0,70.0,-19.0,1
4.0,-241.0,-97.0,-389.0,71.0,-18.0,1
1.0,-243.0,-98.0,-387.0,70.0,-18.0,1
4.0,-242.0,-97.0,-385.0,70.0,-18.0,1
1.0,-239.0,-100.0,-380.0,70.0,-20.0,1
0.0,-237.0,-100.0,-380.0,70.0,-18.0,1
3.0,-239.0,-102.0,-379.0,69.0,-16.0,1
3.0,-237.0,-103.0,-379.0,68.0,-14.0,1
5.0,-233.0,-107.0,-383.0,69.0,-12.0,1
2.0,-232.0,-103.0,-386.0,71.0,-10.0,1
8.0,-234.0,-103.0,-385.0,73.0,-3.0,1
5.0,-230.0,-107.0,-384.0,75.0,1.0,1
4.0,-235.0,-102.0,-383.0,76.0,4.0,1
5.0,-234.0,-108.0,-383.0,78.0,8.0,1
5.0,-238.0,-105.0,-384.0,81.0,13.0,1
3.0,-236.0,-108.0,-386.0,81.0,15.0,1
2.0,-236.0,-109.0,-388.0,81.0,15.0,1
3.0,-236.0,-108.0,-394.0,81.0,17.0,1
3.0,-238.0,-110.0,-400.0,82.0,18.0,1
3.0,-238.0,-110.0,-405.0,81.0,18.0,1
2.0,-236.0,-114.0,-404.0,81.0,19.0,1
7.0,-238.0,-110.0,-397.0,81.0,19.0,1
6.0,-238.0,-110.0,-384.0,80.0,20.0,1
3.0,-235.0,-106.0,-372.0,79.0,21.0,1
1.0,-235.0,-113.0,-360.0,79.0,21.0,1
1.0,-236.0,-111.0,-349.0,79.0,20.0,1
1.0,-235.0,-115.0,-339.0,78.0,19.0,1
1.0,-234.0,-110.0,-332.0,75.0,20.0,1
1.0,-234.0,-108.0,-327.0,75.0,19.0,1
4.0,-232.0,-107.0,-324.0,72.0,18.0,1
-1.0,-236.0,-110.0,-323.0,73.0,16.0,1
2.0,-235.0,-108.0,-321.0,74.0,13.0,1
4.0,-231.0,-120.0,-318.0,75.0,12.0,1
0.0,-234.0,-114.0,-315.0,75.0,10.0,1
2.0,-231.0,-112.0,-316.0,78.0,9.0,1
-1.0,-232.0,-111.0,-316.0,79.0,6.0,1
1.0,-233.0,-115.0,-318.0,79.0,4.0,1
0.0,-228.0,-116.0,-322.0,80.0,2.0,1
0.0,-228.0,-116.0,-331.0,79.0,1.0,1
0.0,-228.0,-114.0,-341.0,77.0,1.0,1
1.0,-227.0,-115.0,-353.0,74.0,0.0,1
0.0,-224.0,-116.0,-372.0,72.0,-10.0,1
0.0,-226.0,-119.0,-384.0,67.0,-5.0,1
0.0,-226.0,-121.0,-392.0,64.0,-1.0,1
0.0,-230.0,-119.0,-397.0,62.0,0.0,1
1.0,-226.0,-121.0,-403.0,58.0,2.0,1
0.0,-225.0,-121.0,-410.0,55.0,1.0,1
3.0,-227.0,-122.0,-412.0,55.0,4.0,1
0.0,-224.0,-122.0,-422.0,53.0,-2.0,1
0.0,-223.0,-123.0,-429.0,52.0,-3.0,1
4.0,-220.0,-125.0,-437.0,52.0,-10.0,1
2.0,-225.0,-124.0,-442.0,54.0,-6.0,1
0.0,-222.0,-128.0,-446.0,56.0,-5.0,1
2.0,-225.0,-128.0,-451.0,57.0,-8.0,1
4.0,-223.0,-127.0,-457.0,60.0,-7.0,1
1.0,-223.0,-133.0,-464.0,62.0,-6.0,1
3.0,-224.0,-132.0,-471.0,67.0,-4.0,1
2.0,-223.0,-132.0,-485.0,75.0,0.0,1
3.0,-224.0,-129.0,-495.0,76.0,-1.0,1
1.0,-218.0,-132.0,-496.0,73.0,-12.0,1
1.0,-222.0,-134.0,-486.0,71.0,-13.0,1
1.0,-221.0,-131.0,-481.0,70.0,-12.0,1
0.0,-225.0,-132.0,-473.0,69.0,-8.0,1
0.0,-219.0,-131.0,-466.0,66.0,-9.0,1
0.0,-221.0,-133.0,-462.0,62.0,-7.0,1
0.0,-223.0,-131.0,-460.0,59.0,-6.0,1
2.0,-216.0,-126.0,-455.0,56.0,-4.0,1
0.0,-222.0,-133.0,-450.0,53.0,-4.0,1
0.0,-221.0,-134.0,-449.0,49.0,-5.0,1
0.0,-218.0,-139.0,-455.0,47.0,-4.0,1
1.0,-222.0,-134.0,-460.0,44.0,-5.0,1
0.0,-219.0,-135.0,-456.0,41.0,-7.0,1
0.0,-222.0,-133.0,-453.0,40.0,-6.0,1
1.0,-220.0,-133.0,-456.0,39.0,-8.0,1
1.0,-219.0,-135.0,-462.0,40.0,-7.0,1
4.0,-214.0,-130.0,-469.0,38.0,-6.0,1
0.0,-218.0,-137.0,-477.0,38.0,-5.0,1
-2.0,-217.0,-136.0,-484.0,40.0,-6.0,1
0.0,-214.0,-136.0,-495.0,40.0,-14.0,1
2.0,-214.0,-138.0,-498.0,38.0,-12.0,1
3.0,-213.0,-137.0,-502.0,40.0,-3.0,1
2.0,-212.0,-139.0,-510.0,44.0,0.0,1
1.0,-211.0,-141.0,-521.0,47.0,2.0,1
2.0,-212.0,-139.0,-537.0,49.0,2.0,1
1.0,-208.0,-142.0,-550.0,48.0,2.0,1
3.0,-209.0,-141.0,-561.0,48.0,3.0,1
2.0,-209.0,-146.0,-571.0,47.0,2.0,1
2.0,-208.0,-145.0,-585.0,48.0,6.0,1
1.0,-207.0,-146.0,-599.0,49.0,8.0,1
1.0,-211.0,-146.0,-610.0,49.0,8.0,1
2.0,-208.0,-145.0,-616.0,49.0,9.0,1
0.0,-208.0,-150.0,-624.0,47.0,7.0,1
-1.0,-205.0,-152.0,-628.0,46.0,6.0,1
5.0,-213.0,-152.0,-633.0,44.0,4.0,1
2.0,-198.0,-154.0,-649.0,48.0,2.0,1
0.0,-206.0,-150.0,-683.0,61.0,14.0,1
0.0,-210.0,-153.0,-692.0,59.0,10.0,1
2.0,-204.0,-155.0,-683.0,54.0,1.0,1
1.0,-206.0,-155.0,-669.0,50.0,-2.0,1
0.0,-202.0,-157.0,-666.0,52.0,-3.0,1
2.0,-205.0,-157.0,-671.0,55.0,-4.0,1
2.0,-201.0,-155.0,-676.0,58.0,-1.0,1
4.0,-202.0,-157.0,-690.0,67.0,1.0,1
-2.0,-206.0,-156.0,-700.0,68.0,1.0,1
0.0,-198.0,-155.0,-699.0,65.0,2.0,1
3.0,-197.0,-158.0,-700.0,70.0,-9.0,1
2.0,-202.0,-156.0,-707.0,72.0,-19.0,1
2.0,-207.0,-162.0,-710.0,74.0,-32.0,1
5.0,-186.0,-159.0,-731.0,83.0,-49.0,1
10.0,-195.0,-162.0,-752.0,89.0,-35.0,1
1.0,-198.0,-165.0,-769.0,95.0,-33.0,1
2.0,-194.0,-162.0,-775.0,98.0,-37.0,1
0.0,-192.0,-165.0,-785.0,104.0,-40.0,1
4.0,-194.0,-159.0,-798.0,108.0,-39.0,1
0.0,-191.0,-169.0,-812.0,108.0,-37.0,1
0.0,-186.0,-168.0,-829.0,109.0,-34.0,1
-1.0,-188.0,-169.0,-858.0,112.0,-32.0,1
0.0,-190.0,-169.0,-880.0,110.0,-34.0,1
2.0,-187.0,-169.0,-892.0,104.0,-37.0,1
-1.0,-186.0,-175.0,-905.0,97.0,-36.0,1
-5.0,-184.0,-166.0,-898.0,86.0,-46.0,1
-5.0,-185.0,-172.0,-893.0,76.0,-47.0,1
-4.0,-197.0,-171.0,-898.0,66.0,-55.0,1
-4.0,-177.0,-173.0,-913.0,56.0,-66.0,1
-8.0,-181.0,-176.0,-925.0,45.0,-51.0,1
-9.0,-179.0,-177.0,-941.0,35.0,-45.0,1
-7.0,-179.0,-180.0,-953.0,24.0,-42.0,1
-11.0,-180.0,-175.0,-969.0,9.0,-40.0,1
-11.0,-179.0,-181.0,-977.0,-10.0,-43.0,1
-13.0,-178.0,-179.0,-989.0,-25.0,-49.0,1
-5.0,-174.0,-186.0,-1007.0,-38.0,-60.0,1
-6.0,-177.0,-182.0,-1027.0,-45.0,-61.0,1
-4.0,-172.0,-188.0,-1043.0,-50.0,-65.0,1
-8.0,-169.0,-187.0,-1067.0,-54.0,-64.0,1
-3.0,-168.0,-186.0,-1078.0,-56.0,-75.0,1
0.0,-165.0,-186.0,-1094.0,-56.0,-77.0,1
0.0,-165.0,-188.0,-1119.0,-59.0,-80.0,1
-6.0,-165.0,-189.0,-1151.0,-58.0,-82.0,1
-2.0,-151.0,-186.0,-1197.0,-56.0,-94.0,1
0.0,-155.0,-194.0,-1240.0,-53.0,-69.0,1
0.0,-163.0,-193.0,-1258.0,-61.0,-57.0,1
0.0,-157.0,-195.0,-1262.0,-68.0,-53.0,1
2.0,-154.0,-197.0,-1279.0,-63.0,-47.0,1
5.0,-155.0,-209.0,-1315.0,-53.0,-37.0,1
2.0,-158.0,-194.0,-1381.0,-31.0,-10.0,1
7.0,-163.0,-204.0,-1411.0,-30.0,-17.0,1
5.0,-158.0,-205.0,-1409.0,-27.0,-34.0,1
7.0,-157.0,-205.0,-1413.0,-20.0,-38.0,1
13.0,-158.0,-206.0,-1418.0,-15.0,-46.0,1
7.0,-159.0,-212.0,-1429.0,-7.0,-50.0,1
5.0,-161.0,-203.0,-1431.0,-2.0,-51.0,1
11.0,-163.0,-209.0,-1417.0,-5.0,-63.0,1
8.0,-138.0,-206.0,-1424.0,-3.0,-93.0,1
1.0,-147.0,-210.0,-1419.0,-2.0,-74.0,1
6.0,-152.0,-207.0,-1406.0,-1.0,-68.0,1
2.0,-146.0,-210.0,-1394.0,2.0,-66.0,1
4.0,-141.0,-211.0,-1388.0,7.0,-69.0,1
3.0,-144.0,-209.0,-1385.0,6.0,-68.0,1
2.0,-139.0,-210.0,-1377.0,3.0,-71.0,1
2.0,-139.0,-212.0,-1373.0,-1.0,-82.0,1
0.0,-132.0,-210.0,-1379.0,-6.0,-90.0,1
1.0,-129.0,-212.0,-1388.0,-8.0,-107.0,1
2.0,-126.0,-213.0,-1413.0,-7.0,-121.0,1
1.0,-127.0,-221.0,-1446.0,-8.0,-132.0,1
2.0,-118.0,-222.0,-1479.0,-11.0,-144.0,1
1.0,-120.0,-219.0,-1520.0,-10.0,-145.0,1
7.0,-119.0,-224.0,-1561.0,-11.0,-149.0,1
7.0,-122.0,-220.0,-1586.0,-11.0,-136.0,1
11.0,-121.0,-225.0,-1587.0,-13.0,-135.0,1
9.0,-113.0,-228.0,-1575.0,-14.0,-141.0,1
12.0,-116.0,-224.0,-1564.0,-13.0,-138.0,1
13.0,-113.0,-227.0,-1559.0,-11.0,-137.0,1
13.0,-115.0,-227.0,-1553.0,-7.0,-134.0,1
11.0,-110.0,-229.0,-1542.0,-4.0,-134.0,1
12.0,-110.0,-230.0,-1529.0,-1.0,-131.0,1
13.0,-86.0,-219.0,-1529.0,5.0,-140.0,1
11.0,-99.0,-221.0,-1532.0,10.0,-145.0,1
3.0,-95.0,-221.0,-1521.0,16.0,-128.0,1
13.0,-101.0,-221.0,-1505.0,19.0,-127.0,1
6.0,-108.0,-244.0,-1495.0,19.0,-132.0,1
7.0,-95.0,-233.0,-1495.0,18.0,-134.0,1
-7.0,-81.0,-224.0,-1499.0,18.0,-136.0,1
6.0,-96.0,-251.0,-1505.0,19.0,-137.0,1
1.0,-77.0,-212.0,-1519.0,21.0,-142.0,1
4.0,-83.0,-241.0,-1539.0,24.0,-147.0,1
1.0,-76.0,-242.0,-1568.0,27.0,-149.0,1
1.0,-75.0,-247.0,-1603.0,33.0,-150.0,1
5.0,-74.0,-245.0,-1647.0,39.0,-152.0,1
3.0,-71.0,-244.0,-1692.0,46.0,-152.0,1
-1.0,-71.0,-240.0,-1734.0,50.0,-152.0,1
7.0,-68.0,-244.0,-1768.0,56.0,-147.0,1
6.0,-68.0,-245.0,-1801.0,59.0,-148.0,1
6.0,-63.0,-245.0,-1834.0,66.0,-149.0,1
3.0,-59.0,-249.0,-1862.0,71.0,-150.0,1
6.0,-59.0,-243.0,-1872.0,75.0,-148.0,1
7.0,-65.0,-264.0,-1875.0,80.0,-148.0,1
8.0,-53.0,-254.0,-1883.0,88.0,-169.0,1
5.0,-54.0,-283.0,-1870.0,88.0,-148.0,1
7.0,-80.0,-262.0,-1845.0,80.0,-140.0,1
2.0,-58.0,-277.0,-1819.0,74.0,-140.0,1
1.0,-46.0,-266.0,-1797.0,70.0,-144.0,1
0.0,-42.0,-266.0,-1777.0,68.0,-145.0,1
-1.0,-38.0,-268.0,-1757.0,60.0,-150.0,1
0.0,-36.0,-271.0,-1740.0,52.0,-151.0,1
0.0,-31.0,-273.0,-1726.0,47.0,-152.0,1
-2.0,-28.0,-270.0,-1714.0,45.0,-151.0,1
-3.0,-17.0,-268.0,-1704.0,41.0,-149.0,1
0.0,-10.0,-276.0,-1697.0,37.0,-145.0,1
-4.0,-12.0,-267.0,-1686.0,39.0,-142.0,1
-1.0,-17.0,-274.0,-1675.0,39.0,-123.0,1
6.0,-7.0,-268.0,-1657.0,45.0,-135.0,1
3.0,-14.0,-269.0,-1641.0,54.0,-138.0,1
4.0,7.0,-269.0,-1629.0,60.0,-136.0,1
-8.0,8.0,-266.0,-1621.0,65.0,-135.0,1
2.0,1.0,-266.0,-1616.0,70.0,-130.0,1
0.0,7.0,-267.0,-1617.0,73.0,-126.0,1
1.0,5.0,-272.0,-1619.0,78.0,-109.0,1
-5.0,9.0,-271.0,-1612.0,74.0,-109.0,1
1.0,-2.0,-273.0,-1595.0,68.0,-114.0,1
1.0,14.0,-274.0,-1588.0,66.0,-141.0,1
-1.0,18.0,-272.0,-1562.0,53.0,-119.0,1
-2.0,16.0,-270.0,-1534.0,46.0,-112.0,1
2.0,17.0,-275.0,-1513.0,46.0,-113.0,1
1.0,18.0,-270.0,-1495.0,47.0,-111.0,1
0.0,23.0,-265.0,-1465.0,47.0,-108.0,1
-1.0,23.0,-269.0,-1438.0,48.0,-106.0,1
-1.0,21.0,-264.0,-1413.0,49.0,-107.0,1
1.0,20.0,-270.0,-1390.0,48.0,-106.0,1
3.0,30.0,-263.0,-1373.0,49.0,-111.0,1
-5.0,29.0,-264.0,-1361.0,51.0,-114.0,1
3.0,38.0,-256.0,-1351.0,51.0,-117.0,1
-4.0,44.0,-265.0,-1342.0,49.0,-122.0,1
-4.0,45.0,-264.0,-1336.0,50.0,-127.0,1
-1.0,48.0,-264.0,-1328.0,55.0,-132.0,1
-5.0,54.0,-265.0,-1318.0,62.0,-136.0,1
-4.0,53.0,-273.0,-1307.0,69.0,-138.0,1
-5.0,53.0,-263.0,-1295.0,76.0,-141.0,1
0.0,47.0,-247.0,-1282.0,84.0,-143.0,1
3.0,59.0,-251.0,-1272.0,93.0,-148.0,1
0.0,73.0,-247.0,-1255.0,93.0,-142.0,1
-4.0,66.0,-260.0,-1237.0,90.0,-136.0,1
15.0,52.0,-238.0,-1217.0,92.0,-133.0,1
-1.0,62.0,-247.0,-1193.0,94.0,-132.0,1
6.0,56.0,-251.0,-1173.0,94.0,-135.0,1
3.0,59.0,-248.0,-1153.0,92.0,-139.0,1
-5.0,48.0,-256.0,-1132.0,91.0,-143.0,1
-4.0,68.0,-252.0,-1109.0,91.0,-146.0,1
1.0,65.0,-253.0,-1084.0,92.0,-149.0,1
0.0,70.0,-250.0,-1060.0,93.0,-154.0,1
0.0,72.0,-248.0,-1034.0,94.0,-155.0,1
8.0,71.0,-234.0,-1010.0,91.0,-156.0,1
6.0,79.0,-238.0,-988.0,87.0,-157.0,1
2.0,78.0,-234.0,-968.0,84.0,-159.0,1
-1.0,77.0,-230.0,-949.0,86.0,-161.0,1
0.0,75.0,-231.0,-931.0,88.0,-158.0,1
5.0,80.0,-240.0,-916.0,90.0,-157.0,1
5.0,72.0,-248.0,-904.0,91.0,-152.0,1
6.0,84.0,-260.0,-888.0,96.0,-150.0,1
-1.0,78.0,-248.0,-865.0,101.0,-146.0,1
4.0,85.0,-231.0,-836.0,101.0,-146.0,1
0.0,77.0,-233.0,-811.0,103.0,-144.0,1
0.0,78.0,-234.0,-783.0,107.0,-141.0,1
1.0,80.0,-232.0,-756.0,112.0,-140.0,1
0.0,80.0,-232.0,-725.0,118.0,-140.0,1
3.0,83.0,-226.0,-692.0,124.0,-139.0,1
4.0,75.0,-227.0,-658.0,129.0,-140.0,1
1.0,78.0,-222.0,-628.0,136.0,-141.0,1
2.0,81.0,-228.0,-601.0,140.0,-140.0,1
5.0,84.0,-221.0,-578.0,143.0,-139.0,1
9.0,91.0,-202.0,-557.0,144.0,-141.0,1
2.0,87.0,-219.0,-538.0,144.0,-143.0,1
4.0,89.0,-219.0,-523.0,141.0,-144.0,1
3.0,88.0,-217.0,-504.0,137.0,-147.0,1
2.0,88.0,-220.0,-489.0,133.0,-147.0,1
6.0,85.0,-211.0,-477.0,129.0,-149.0,1
4.0,94.0,-223.0,-464.0,127.0,-150.0,1
1.0,91.0,-223.0,-448.0,126.0,-150.0,1
2.0,91.0,-220.0,-433.0,125.0,-149.0,1
3.0,93.0,-220.0,-415.0,127.0,-146.0,1
1.0,96.0,-222.0,-399.0,129.0,-144.0,1
-1.0,85.0,-229.0,-383.0,128.0,-144.0,1
0.0,98.0,-223.0,-368.0,123.0,-141.0,1
2.0,97.0,-220.0,-356.0,121.0,-143.0,1
2.0,97.0,-218.0,-347.0,118.0,-143.0,1
1.0,99.0,-220.0,-341.0,113.0,-143.0,1
2.0,96.0,-221.0,-336.0,109.0,-143.0,1
2.0,100.0,-219.0,-334.0,107.0,-140.0,1
2.0,100.0,-220.0,-330.0,109.0,-136.0,1
3.0,104.0,-226.0,-325.0,111.0,-133.0,1
3.0,106.0,-232.0,-316.0,114.0,-127.0,1
3.0,102.0,-225.0,-309.0,115.0,-121.0,1
3.0,107.0,-220.0,-302.0,116.0,-117.0,1
6.0,104.0,-229.0,-295.0,116.0,-112.0,1
5.0,108.0,-224.0,-289.0,115.0,-110.0,1
1.0,107.0,-252.0,-288.0,111.0,-108.0,1
8.0,109.0,-228.0,-288.0,106.0,-108.0,1
3.0,107.0,-228.0,-288.0,102.0,-106.0,1
4.0,106.0,-228.0,-290.0,96.0,-107.0,1
5.0,107.0,-232.0,-289.0,91.0,-109.0,1
2.0,107.0,-229.0,-287.0,85.0,-109.0,1
2.0,105.0,-230.0,-286.0,82.0,-107.0,1
1.0,107.0,-231.0,-284.0,79.0,-105.0,1
2.0,107.0,-228.0,-279.0,78.0,-104.0,1
2.0,108.0,-232.0,-275.0,76.0,-105.0,1
5.0,108.0,-232.0,-272.0,76.0,-106.0,1
2.0,107.0,-231.0,-269.0,77.0,-106.0,1
3.0,106.0,-228.0,-264.0,77.0,-110.0,1
5.0,107.0,-232.0,-263.0,76.0,-114.0,1
6.0,105.0,-230.0,-260.0,75.0,-116.0,1
2.0,107.0,-230.0,-261.0,74.0,-120.0,1
3.0,106.0,-231.0,-259.0,72.0,-123.0,1
1.0,110.0,-229.0,-258.0,70.0,-125.0,1
5.0,108.0,-233.0,-260.0,69.0,-128.0,1
3.0,111.0,-234.0,-263.0,68.0,-131.0,1
8.0,114.0,-232.0,-269.0,68.0,-134.0,1
4.0,113.0,-231.0,-274.0,66.0,-137.0,1
5.0,118.0,-235.0,-280.0,64.0,-140.0,1
5.0,119.0,-226.0,-289.0,61.0,-143.0,1
5.0,116.0,-232.0,-299.0,59.0,-145.0,1
3.0,118.0,-230.0,-310.0,55.0,-150.0,1
3.0,115.0,-233.0,-318.0,54.0,-155.0,1
3.0,114.0,-231.0,-326.0,53.0,-160.0,1
1.0,113.0,-232.0,-329.0,50.0,-167.0,1
4.0,115.0,-232.0,-330.0,48.0,-173.0,1
3.0,114.0,-231.0,-330.0,47.0,-179.0,1
4.0,108.0,-228.0,-328.0,43.0,-183.0,1
4.0,112.0,-232.0,-327.0,40.0,-187.0,1
5.0,113.0,-227.0,-330.0,38.0,-192.0,1
5.0,114.0,-231.0,-333.0,35.0,-198.0,1
4.0,112.0,-230.0,-337.0,32.0,-202.0,1
6.0,116.0,-228.0,-340.0,30.0,-207.0,1
7.0,112.0,-228.0,-344.0,27.0,-215.0,1
7.0,116.0,-226.0,-347.0,23.0,-218.0,1
7.0,112.0,-230.0,-350.0,20.0,-224.0,1
6.0,113.0,-229.0,-358.0,18.0,-231.0,1
6.0,112.0,-227.0,-367.0,16.0,-240.0,1
2.0,116.0,-232.0,-376.0,15.0,-248.0,1
1.0,116.0,-230.0,-386.0,13.0,-258.0,1
2.0,115.0,-227.0,-392.0,9.0,-266.0,1
0.0,115.0,-232.0,-401.0,4.0,-276.0,1
2.0,118.0,-231.0,-410.0,0.0,-287.0,1
3.0,114.0,-227.0,-419.0,-6.0,-296.0,1
1.0,118.0,-230.0,-429.0,-10.0,-306.0,1
1.0,115.0,-230.0,-438.0,-15.0,-318.0,1
3.0,117.0,-232.0,-446.0,-21.0,-329.0,1
1.0,114.0,-229.0,-451.0,-26.0,-338.0,1
2.0,112.0,-229.0,-457.0,-31.0,-348.0,1
5.0,114.0,-231.0,-462.0,-35.0,-357.0,1
5.0,112.0,-231.0,-467.0,-37.0,-366.0,1
5.0,118.0,-228.0,-473.0,-41.0,-375.0,1
4.0,116.0,-225.0,-480.0,-46.0,-383.0,1
2.0,117.0,-235.0,-487.0,-50.0,-392.0,1
1.0,118.0,-230.0,-497.0,-52.0,-403.0,1
3.0,115.0,-236.0,-513.0,-52.0,-414.0,1
0.0,121.0,-231.0,-530.0,-52.0,-425.0,1
1.0,119.0,-232.0,-543.0,-51.0,-437.0,1
1.0,119.0,-230.0,-552.0,-51.0,-448.0,1
0.0,119.0,-230.0,-558.0,-53.0,-460.0,1
2.0,123.0,-235.0,-564.0,-57.0,-473.0,1
1.0,124.0,-232.0,-571.0,-62.0,-484.0,1
2.0,124.0,-233.0,-578.0,-68.0,-498.0,1
0.0,124.0,-237.0,-585.0,-70.0,-512.0,1
0.0,125.0,-231.0,-594.0,-73.0,-525.0,1
-1.0,121.0,-238.0,-602.0,-73.0,-538.0,1
0.0,120.0,-237.0,-611.0,-72.0,-553.0,1
0.0,125.0,-235.0,-623.0,-70.0,-566.0,1
0.0,122.0,-230.0,-634.0,-68.0,-582.0,1
-1.0,125.0,-233.0,-648.0,-68.0,-598.0,1
-5.0,124.0,-233.0,-664.0,-68.0,-614.0,1
0.0,121.0,-230.0,-682.0,-68.0,-631.0,1
1.0,123.0,-234.0,-699.0,-71.0,-648.0,1
0.0,121.0,-233.0,-712.0,-73.0,-663.0,1
2.0,120.0,-234.0,-723.0,-75.0,-678.0,1
0.0,120.0,-231.0,-732.0,-78.0,-692.0,1
3.0,114.0,-230.0,-739.0,-80.0,-705.0,1
2.0,114.0,-230.0,-747.0,-77.0,-718.0,1
1.0,113.0,-229.0,-753.0,-75.0,-732.0,1
0.0,113.0,-226.0,-756.0,-74.0,-745.0,1
0.0,112.0,-224.0,-758.0,-74.0,-760.0,1
0.0,109.0,-223.0,-760.0,-78.0,-778.0,1
-7.0,109.0,-226.0,-759.0,-83.0,-798.0,1
-3.0,106.0,-221.0,-755.0,-89.0,-816.0,1
-7.0,105.0,-223.0,-750.0,-93.0,-838.0,1
-4.0,106.0,-220.0,-747.0,-94.0,-861.0,1
0.0,107.0,-220.0,-743.0,-91.0,-883.0,1
-2.0,106.0,-220.0,-744.0,-89.0,-902.0,1
0.0,104.0,-216.0,-749.0,-87.0,-919.0,1
5.0,103.0,-212.0,-755.0,-82.0,-937.0,1
0.0,105.0,-217.0,-761.0,-76.0,-953.0,1
-1.0,102.0,-214.0,-767.0,-69.0,-968.0,1
-1.0,99.0,-214.0,-768.0,-60.0,-983.0,1
-5.0,99.0,-212.0,-770.0,-57.0,-998.0,1
-4.0,95.0,-210.0,-770.0,-58.0,-1015.0,1
-7.0,93.0,-212.0,-767.0,-60.0,-1033.0,1
-9.0,91.0,-211.0,-757.0,-69.0,-1054.0,1
-7.0,86.0,-209.0,-742.0,-77.0,-1077.0,1
-12.0,86.0,-208.0,-722.0,-88.0,-1098.0,1
-7.0,87.0,-201.0,-702.0,-100.0,-1121.0,1
-6.0,86.0,-207.0,-681.0,-109.0,-1141.0,1
-5.0,86.0,-205.0,-662.0,-115.0,-1161.0,1
-6.0,86.0,-203.0,-644.0,-122.0,-1176.0,1
-8.0,85.0,-202.0,-632.0,-134.0,-1192.0,1
-11.0,86.0,-208.0,-619.0,-143.0,-1204.0,1
-11.0,84.0,-203.0,-599.0,-151.0,-1218.0,1
-8.0,80.0,-202.0,-574.0,-155.0,-1231.0,1
-12.0,79.0,-201.0,-548.0,-158.0,-1243.0,1
-12.0,77.0,-195.0,-523.0,-164.0,-1256.0,1
-7.0,74.0,-194.0,-498.0,-171.0,-1266.0,1
-9.0,76.0,-196.0,-473.0,-179.0,-1276.0,1
-12.0,72.0,-193.0,-454.0,-182.0,-1285.0,1
-16.0,70.0,-192.0,-420.0,-185.0,-1292.0,1
-16.0,64.0,-189.0,-374.0,-190.0,-1304.0,1
-18.0,58.0,-186.0,-324.0,-193.0,-1319.0,1
-13.0,56.0,-181.0,-267.0,-196.0,-1338.0,1
-3.0,51.0,-175.0,-198.0,-197.0,-1360.0,1
-8.0,48.0,-172.0,-128.0,-203.0,-1378.0,1
-7.0,38.0,-164.0,-58.0,-216.0,-1398.0,1
-12.0,28.0,-154.0,8.0,-227.0,-1413.0,1
-11.0,17.0,-146.0,66.0,-245.0,-1430.0,1
-17.0,10.0,-140.0,113.0,-267.0,-1449.0,1
-21.0,8.0,-135.0,153.0,-291.0,-1468.0,1
-19.0,8.0,-133.0,183.0,-315.0,-1487.0,1
-21.0,8.0,-133.0,204.0,-339.0,-1503.0,1
-19.0,8.0,-131.0,229.0,-364.0,-1522.0,1
-13.0,4.0,-128.0,264.0,-390.0,-1537.0,1
-10.0,-12.0,-118.0,327.0,-414.0,-1551.0,1
-13.0,-28.0,-116.0,415.0,-443.0,-1560.0,1
-13.0,-33.0,-113.0,528.0,-481.0,-1549.0,1
-15.0,-43.0,-104.0,666.0,-520.0,-1513.0,1
-17.0,-38.0,-106.0,836.0,-564.0,-1464.0,1
-9.0,-48.0,-101.0,1036.0,-599.0,-1402.0,1
-10.0,-49.0,-111.0,1240.0,-631.0,-1337.0,1
-10.0,-45.0,-111.0,1415.0,-666.0,-1268.0,1
-7.0,-28.0,-107.0,1552.0,-694.0,-1200.0,1
-11.0,-14.0,-92.0,1663.0,-717.0,-1146.0,1
-19.0,8.0,-87.0,1764.0,-733.0,-1094.0,1
-19.0,14.0,-78.0,1836.0,-747.0,-1046.0,1
-30.0,36.0,-85.0,1883.0,-749.0,-963.0,1
-32.0,58.0,-96.0,1862.0,-753.0,-909.0,1
-28.0,65.0,-109.0,1804.0,-760.0,-843.0,1
-40.0,62.0,-109.0,1707.0,-743.0,-816.0,1
-37.0,38.0,-107.0,1550.0,-743.0,-841.0,1
-25.0,30.0,-102.0,1433.0,-743.0,-855.0,1
-10.0,32.0,-100.0,1332.0,-736.0,-843.0,1
-8.0,33.0,-95.0,1207.0,-761.0,-850.0,1
-8.0,42.0,-94.0,1075.0,-810.0,-856.0,1
-7.0,53.0,-95.0,920.0,-879.0,-848.0,1
2.0,57.0,-102.0,765.0,-926.0,-786.0,1
-24.0,65.0,-109.0,564.0,-954.0,-730.0,1
-35.0,94.0,-143.0,376.0,-983.0,-697.0,1
-50.0,118.0,-159.0,172.0,-1005.0,-662.0,1
-55.0,122.0,-177.0,-1.0,-994.0,-630.0,1
-65.0,134.0,-190.0,-57.0,-957.0,-597.0,1
-85.0,157.0,-206.0,-19.0,-913.0,-555.0,1
-116.0,197.0,-237.0,-28.0,-894.0,-538.0,1
-120.0,236.0,-274.0,-180.0,-894.0,-517.0,1
-129.0,276.0,-317.0,-446.0,-937.0,-487.0,1
-128.0,291.0,-347.0,-781.0,-1016.0,-498.0,1
-132.0,292.0,-376.0,-1080.0,-1109.0,-560.0,1
-130.0,283.0,-389.0,-1318.0,-1199.0,-638.0,1
-118.0,233.0,-370.0,-1504.0,-1266.0,-712.0,1
-108.0,184.0,-341.0,-1620.0,-1296.0,-796.0,1
-115.0,135.0,-297.0,-1674.0,-1310.0,-891.0,1
-139.0,104.0,-255.0,-1679.0,-1346.0,-1001.0,1
-180.0,86.0,-210.0,-1666.0,-1426.0,-1124.0,1
-214.0,91.0,-150.0,-1632.0,-1529.0,-1251.0,1
-246.0,114.0,-91.0,-1551.0,-1653.0,-1365.0,1
-259.0,139.0,-42.0,-1457.0,-1814.0,-1460.0,1
-264.0,159.0,-6.0,-1402.0,-2002.0,-1542.0,1
-264.0,174.0,16.0,-1394.0,-2206.0,-1618.0,1
-256.0,168.0,30.0,-1438.0,-2398.0,-1686.0,1
-229.0,157.0,40.0,-1517.0,-2567.0,-1748.0,1
-194.0,131.0,43.0,-1594.0,-2712.0,-1802.0,1
-169.0,101.0,35.0,-1641.0,-2834.0,-1833.0,1
-82.0,88.0,-14.0,-1662.0,-2927.0,-1833.0,1
-89.0,72.0,-13.0,-1729.0,-2965.0,-1856.0,1
-75.0,77.0,-22.0,-1730.0,-3037.0,-1833.0,1
-114.0,111.0,-46.0,-1723.0,-3081.0,-1802.0,1
-158.0,85.0,-33.0,-1786.0,-3126.0,-1752.0,1
-298.0,136.0,-22.0,-1841.0,-3165.0,-1758.0,1
-350.0,226.0,-73.0,-1848.0,-3213.0,-1780.0,1
-374.0,336.0,-69.0,-1737.0,-3200.0,-1774.0,1
-422.0,421.0,-83.0,-1493.0,-3181.0,-1681.0,1
-606.0,445.0,-37.0,-1269.0,-3135.0,-1479.0,1
-769.0,452.0,0.0,-989.0,-3137.0,-1316.0,1
-836.0,440.0,34.0,-596.0,-3082.0,-1318.0,1
-936.0,433.0,42.0,-127.0,-2998.0,-1710.0,1
-1007.0,466.0,30.0,299.0,-2879.0,-2387.0,1
-1024.0,530.0,6.0,485.0,-2764.0,-3167.0,1
-1009.0,553.0,2.0,336.0,-2683.0,-3783.0,1
-981.0,586.0,45.0,-12.0,-2642.0,-4212.0,1
-933.0,602.0,101.0,-537.0,-2557.0,-4307.0,1
-896.0,559.0,161.0,-1233.0,-2472.0,-4074.0,1
-851.0,478.0,219.0,-1928.0,-2426.0,-3680.0,1
-791.0,414.0,246.0,-2414.0,-2378.0,-3273.0,1
-705.0,360.0,282.0,-2655.0,-2297.0,-2883.0,1
-611.0,314.0,285.0,-2706.0,-2220.0,-2521.0,1
-487.0,265.0,267.0,-2668.0,-2181.0,-2226.0,1
-355.0,188.0,253.0,-2497.0,-2113.0,-1993.0,1
-255.0,101.0,235.0,-2061.0,-1986.0,-1758.0,1
-194.0,20.0,203.0,-1409.0,-1817.0,-1467.0,1
-170.0,-66.0,177.0,-712.0,-1621.0,-1104.0,1
-147.0,-139.0,166.0,-85.0,-1412.0,-693.0,1
-119.0,-179.0,131.0,399.0,-1216.0,-292.0,1
-89.0,-191.0,83.0,705.0,-1003.0,16.0,1
-88.0,-167.0,41.0,837.0,-755.0,211.0,1
-87.0,-128.0,9.0,860.0,-504.0,336.0,1
-95.0,-83.0,1.0,899.0,-270.0,418.0,1
-124.0,-38.0,7.0,1014.0,-62.0,463.0,1
-168.0,16.0,11.0,1158.0,90.0,512.0,1
-204.0,54.0,29.0,1251.0,194.0,568.0,1
-236.0,69.0,55.0,1269.0,252.0,614.0,1
-249.0,67.0,76.0,1246.0,267.0,625.0,1
-246.0,55.0,89.0,1188.0,234.0,589.0,1
-229.0,40.0,101.0,1103.0,179.0,523.0,1
-220.0,26.0,95.0,990.0,126.0,431.0,1
-213.0,10.0,92.0,851.0,94.0,343.0,1
-203.0,-7.0,88.0,714.0,71.0,266.0,1
-195.0,-15.0,89.0,612.0,60.0,179.0,1
-181.0,-28.0,86.0,551.0,65.0,97.0,1
-169.0,-39.0,82.0,527.0,81.0,28.0,1
-156.0,-48.0,88.0,528.0,99.0,-32.0,1
-167.0,-46.0,88.0,531.0,98.0,-97.0,1
-157.0,-52.0,86.0,526.0,74.0,-152.0,1
-126.0,-61.0,73.0,501.0,34.0,-226.0,1
-127.0,-54.0,61.0,434.0,15.0,-323.0,1
-141.0,-51.0,55.0,334.0,3.0,-389.0,1
-161.0,-47.0,58.0,234.0,-22.0,-427.0,1
-183.0,-43.0,60.0,174.0,-54.0,-440.0,1
-203.0,-38.0,61.0,158.0,-85.0,-439.0,1
-223.0,-26.0,57.0,157.0,-120.0,-427.0,1
-246.0,-21.0,66.0,152.0,-157.0,-411.0,1
-261.0,-16.0,61.0,135.0,-193.0,-404.0,1
-279.0,-14.0,64.0,101.0,-215.0,-397.0,1
-293.0,-2.0,60.0,60.0,-237.0,-400.0,1
-306.0,-2.0,56.0,23.0,-248.0,-393.0,1
-303.0,-13.0,59.0,2.0,-260.0,-379.0,1
-282.0,-11.0,53.0,-7.0,-275.0,-377.0,1
-257.0,-11.0,48.0,-22.0,-255.0,-389.0,1
-243.0,-5.0,49.0,-30.0,-195.0,-385.0,1
-240.0,-5.0,45.0,-24.0,-108.0,-352.0,1
-242.0,3.0,47.0,-2.0,-16.0,-302.0,1
-248.0,7.0,48.0,28.0,84.0,-243.0,1
-256.0,4.0,47.0,54.0,187.0,-185.0,1
-265.0,8.0,44.0,72.0,293.0,-128.0,1
-275.0,8.0,44.0,75.0,393.0,-75.0,1
-285.0,9.0,43.0,67.0,489.0,-22.0,1
-286.0,8.0,36.0,54.0,573.0,34.0,1
-287.0,9.0,28.0,42.0,640.0,90.0,1
-284.0,17.0,26.0,40.0,695.0,151.0,1
-279.0,11.0,29.0,54.0,740.0,214.0,1
-279.0,15.0,29.0,79.0,776.0,274.0,1
-271.0,15.0,29.0,103.0,806.0,331.0,1
-266.0,15.0,25.0,119.0,830.0,382.0,1
-263.0,16.0,22.0,128.0,855.0,431.0,1
-260.0,18.0,19.0,137.0,878.0,466.0,1
-256.0,19.0,19.0,146.0,898.0,492.0,1
-255.0,10.0,12.0,155.0,917.0,514.0,1
-249.0,11.0,11.0,170.0,932.0,532.0,1
-247.0,14.0,11.0,182.0,950.0,540.0,1
-241.0,14.0,11.0,195.0,965.0,548.0,1
-236.0,22.0,3.0,205.0,984.0,551.0,1
-233.0,25.0,4.0,207.0,1008.0,553.0,1
-234.0,28.0,-5.0,204.0,1032.0,554.0,1
-242.0,31.0,0.0,197.0,1051.0,554.0,1
-244.0,29.0,-6.0,191.0,1056.0,549.0,1
-239.0,34.0,-18.0,174.0,1066.0,541.0,1
-241.0,35.0,-27.0,150.0,1082.0,538.0,1
-229.0,41.0,-28.0,130.0,1105.0,539.0,1
-233.0,48.0,-40.0,122.0,1125.0,544.0,1
-231.0,46.0,-39.0,127.0,1140.0,558.0,1
-231.0,46.0,-40.0,137.0,1148.0,569.0,1
-233.0,53.0,-45.0,143.0,1155.0,577.0,1
-245.0,49.0,-42.0,143.0,1159.0,590.0,1
-234.0,51.0,-50.0,147.0,1163.0,589.0,1
-238.0,63.0,-55.0,135.0,1180.0,580.0,1
-229.0,64.0,-54.0,121.0,1198.0,577.0,1
-236.0,69.0,-53.0,112.0,1211.0,571.0,1
-240.0,73.0,-55.0,122.0,1208.0,573.0,1
-237.0,74.0,-56.0,123.0,1199.0,576.0,1
-243.0,75.0,-58.0,113.0,1185.0,575.0,1
-245.0,81.0,-65.0,104.0,1170.0,571.0,1
-251.0,84.0,-65.0,96.0,1152.0,568.0,1
-250.0,82.0,-72.0,86.0,1136.0,569.0,1
-252.0,80.0,-76.0,76.0,1117.0,569.0,1
-256.0,87.0,-76.0,66.0,1091.0,569.0,1
-257.0,91.0,-83.0,53.0,1066.0,569.0,1
-259.0,87.0,-82.0,41.0,1038.0,572.0,1
-254.0,93.0,-94.0,40.0,1007.0,572.0,1
-256.0,98.0,-89.0,34.0,976.0,569.0,1
-255.0,96.0,-95.0,29.0,945.0,562.0,1
-255.0,97.0,-95.0,28.0,911.0,551.0,1
-251.0,98.0,-102.0,33.0,882.0,538.0,1
-254.0,101.0,-103.0,34.0,861.0,525.0,1
-252.0,103.0,-109.0,36.0,840.0,514.0,1
-252.0,104.0,-108.0,37.0,815.0,498.0,1
-246.0,108.0,-118.0,44.0,793.0,481.0,1
-251.0,111.0,-115.0,46.0,769.0,463.0,1
-249.0,103.0,-120.0,53.0,737.0,445.0,1
-252.0,109.0,-121.0,65.0,696.0,418.0,1
-256.0,106.0,-118.0,72.0,655.0,395.0,1
-256.0,105.0,-125.0,78.0,611.0,373.0,1
-248.0,108.0,-129.0,74.0,571.0,340.0,1
-253.0,106.0,-131.0,70.0,536.0,303.0,1
-250.0,104.0,-123.0,67.0,498.0,266.0,1
-244.0,108.0,-130.0,67.0,458.0,229.0,1
-244.0,103.0,-124.0,61.0,421.0,201.0,1
-244.0,100.0,-127.0,53.0,377.0,171.0,1
-234.0,95.0,-128.0,45.0,334.0,143.0,1
-236.0,95.0,-125.0,34.0,296.0,116.0,1
-237.0,94.0,-127.0,23.0,258.0,90.0,1
-232.0,91.0,-115.0,9.0,219.0,64.0,1
-230.0,92.0,-120.0,-3.0,179.0,36.0,1
-228.0,86.0,-121.0,-14.0,141.0,10.0,1
-223.0,83.0,-119.0,-20.0,105.0,-17.0,1
-224.0,81.0,-116.0,-21.0,71.0,-41.0,1
-223.0,77.0,-112.0,-21.0,36.0,-64.0,1
-223.0,81.0,-108.0,-23.0,-1.0,-87.0,1
-226.0,82.0,-106.0,-26.0,-34.0,-109.0,1
-224.0,79.0,-106.0,-33.0,-67.0,-128.0,1
-224.0,76.0,-101.0,-42.0,-96.0,-141.0,1
-225.0,76.0,-96.0,-52.0,-120.0,-154.0,1
-227.0,75.0,-94.0,-63.0,-141.0,-165.0,1
-228.0,74.0,-94.0,-73.0,-160.0,-167.0,1
-227.0,73.0,-90.0,-86.0,-182.0,-168.0,1
-230.0,75.0,-91.0,-97.0,-198.0,-166.0,1
-231.0,72.0,-87.0,-103.0,-212.0,-165.0,1
-230.0,71.0,-86.0,-105.0,-223.0,-163.0,1
-232.0,69.0,-84.0,-103.0,-231.0,-163.0,1
-232.0,70.0,-84.0,-103.0,-238.0,-160.0,1
-234.0,70.0,-85.0,-103.0,-244.0,-154.0,1
-236.0,68.0,-85.0,-98.0,-254.0,-151.0,1
-240.0,66.0,-82.0,-91.0,-263.0,-146.0,1
-236.0,68.0,-84.0,-79.0,-270.0,-142.0,1
-242.0,69.0,-87.0,-69.0,-274.0,-140.0,1
-243.0,72.0,-82.0,-57.0,-278.0,-138.0,1
-244.0,73.0,-84.0,-45.0,-280.0,-135.0,1
-243.0,70.0,-86.0,-34.0,-281.0,-135.0,1
-246.0,72.0,-82.0,-25.0,-278.0,-131.0,1
-244.0,71.0,-74.0,-14.0,-275.0,-128.0,1
-245.0,70.0,-73.0,-4.0,-270.0,-126.0,1
-247.0,72.0,-70.0,7.0,-265.0,-125.0,1
-245.0,71.0,-70.0,18.0,-256.0,-123.0,1
-248.0,72.0,-68.0,25.0,-246.0,-120.0,1
-245.0,77.0,-75.0,33.0,-236.0,-116.0,1
-247.0,72.0,-70.0,41.0,-229.0,-115.0,1
-249.0,71.0,-67.0,49.0,-221.0,-114.0,1
-248.0,71.0,-69.0,63.0,-214.0,-118.0,1
-246.0,71.0,-65.0,77.0,-201.0,-113.0,1
-245.0,71.0,-68.0,83.0,-186.0,-103.0,1
-244.0,70.0,-63.0,86.0,-172.0,-96.0,1
-243.0,72.0,-66.0,89.0,-158.0,-91.0,1
-246.0,70.0,-62.0,94.0,-146.0,-90.0,1
-243.0,71.0,-62.0,100.0,-133.0,-87.0,1
-238.0,68.0,-57.0,107.0,-122.0,-83.0,1
-240.0,69.0,-56.0,109.0,-108.0,-75.0,1
-239.0,65.0,-60.0,105.0,-91.0,-66.0,1
-237.0,68.0,-55.0,98.0,-78.0,-59.0,1
-241.0,67.0,-59.0,92.0,-64.0,-50.0,1
-237.0,67.0,-55.0,88.0,-50.0,-40.0,1
-236.0,66.0,-56.0,86.0,-38.0,-35.0,1
-238.0,65.0,-58.0,90.0,-27.0,-31.0,1
-241.0,65.0,-55.0,87.0,-18.0,-23.0,1
-240.0,63.0,-56.0,80.0,-10.0,-18.0,1
-240.0,66.0,-58.0,71.0,-4.0,-12.0,1
-236.0,65.0,-59.0,64.0,3.0,-6.0,1
-241.0,67.0,-57.0,59.0,9.0,-1.0,1
-240.0,64.0,-58.0,57.0,17.0,4.0,1
-238.0,69.0,-60.0,61.0,22.0,10.0,1
-240.0,67.0,-58.0,62.0,34.0,19.0,1
-242.0,70.0,-58.0,58.0,43.0,27.0,1
-243.0,72.0,-63.0,51.0,52.0,31.0,1
-242.0,71.0,-61.0,45.0,60.0,38.0,1
-241.0,66.0,-63.0,44.0,68.0,44.0,1
-240.0,71.0,-63.0,56.0,74.0,50.0,1
-243.0,75.0,-65.0,49.0,77.0,53.0,1
-246.0,76.0,-63.0,43.0,79.0,52.0,1
-243.0,74.0,-73.0,42.0,81.0,54.0,1
-246.0,77.0,-68.0,43.0,81.0,54.0,1
-245.0,68.0,-64.0,49.0,82.0,53.0,1
-243.0,75.0,-72.0,67.0,84.0,52.0,1
-243.0,75.0,-69.0,68.0,84.0,48.0,1
-242.0,78.0,-68.0,65.0,83.0,41.0,1
-243.0,78.0,-71.0,63.0,84.0,36.0,1
-243.0,78.0,-70.0,64.0,86.0,33.0,1
-243.0,83.0,-70.0,49.0,86.0,26.0,1
-249.0,80.0,-66.0,39.0,91.0,24.0,1
-244.0,79.0,-69.0,33.0,97.0,21.0,1
-243.0,78.0,-69.0,29.0,103.0,14.0,1
-245.0,77.0,-70.0,24.0,105.0,9.0,1
-244.0,79.0,-68.0,19.0,107.0,0.0,1
-243.0,76.0,-69.0,10.0,110.0,-5.0,1
-244.0,75.0,-71.0,3.0,112.0,-13.0,1
-241.0,75.0,-67.0,0.0,114.0,-17.0,1
-242.0,76.0,-71.0,-4.0,116.0,-21.0,1
-242.0,74.0,-71.0,-5.0,118.0,-27.0,1
-239.0,73.0,-68.0,-6.0,119.0,-32.0,1
-241.0,73.0,-69.0,-7.0,118.0,-37.0,1
-241.0,73.0,-70.0,-6.0,119.0,-35.0,1
-241.0,74.0,-68.0,-3.0,120.0,-36.0,1
-239.0,72.0,-68.0,-4.0,120.0,-34.0,1
-243.0,71.0,-73.0,-5.0,117.0,-34.0,1
-238.0,72.0,-74.0,-4.0,113.0,-34.0,1
-242.0,71.0,-68.0,-4.0,107.0,-34.0,1
-238.0,70.0,-71.0,-2.0,99.0,-35.0,1
-240.0,71.0,-71.0,-1.0,90.0,-37.0,1
-241.0,70.0,-72.0,-2.0,83.0,-36.0,1
-241.0,69.0,-71.0,1.0,77.0,-33.0,1
-242.0,68.0,-67.0,1.0,72.0,-32.0,1
-240.0,69.0,-70.0,-2.0,73.0,-29.0,1
-242.0,73.0,-70.0,-2.0,73.0,-23.0,1
-241.0,68.0,-73.0,-4.0,71.0,-20.0,1
-242.0,69.0,-68.0,-6.0,69.0,-17.0,1
-242.0,69.0,-71.0,-7.0,65.0,-16.0,1
-243.0,70.0,-72.0,-3.0,61.0,-15.0,1
-245.0,70.0,-70.0,-1.0,58.0,-13.0,1
-244.0,68.0,-79.0,1.0,59.0,-12.0,1
-242.0,71.0,-71.0,1.0,60.0,-13.0,1
-243.0,72.0,-72.0,2.0,62.0,-12.0,1
-245.0,71.0,-75.0,4.0,64.0,-10.0,1
-242.0,70.0,-73.0,7.0,66.0,-8.0,1
-244.0,71.0,-73.0,10.0,68.0,-6.0,1
-241.0,69.0,-75.0,12.0,66.0,-7.0,1
-243.0,71.0,-75.0,12.0,63.0,-9.0,1
-243.0,72.0,-72.0,14.0,60.0,-9.0,1
-240.0,71.0,-76.0,17.0,59.0,-8.0,1
-241.0,70.0,-74.0,18.0,57.0,-9.0,1
-242.0,69.0,-71.0,21.0,54.0,-8.0,1
-241.0,69.0,-73.0,24.0,54.0,-9.0,1
-244.0,68.0,-72.0,28.0,55.0,-10.0,1
-240.0,69.0,-77.0,31.0,53.0,-9.0,1
-242.0,75.0,-75.0,31.0,55.0,-9.0,1
-241.0,66.0,-72.0,32.0,52.0,-8.0,1
-243.0,71.0,-71.0,34.0,52.0,-8.0,1
-239.0,68.0,-69.0,36.0,50.0,-7.0,1
-242.0,66.0,-73.0,37.0,50.0,-6.0,1
-244.0,70.0,-69.0,36.0,49.0,-5.0,1
-240.0,69.0,-73.0,33.0,46.0,-5.0,1
-242.0,71.0,-71.0,33.0,45.0,-4.0,1
-242.0,69.0,-73.0,32.0,43.0,-5.0,1
-244.0,71.0,-71.0,30.0,44.0,-2.0,1
-241.0,70.0,-72.0,29.0,44.0,-2.0,1
-238.0,66.0,-67.0,28.0,44.0,1.0,1
-241.0,69.0,-72.0,34.0,43.0,2.0,1
-241.0,70.0,-71.0,28.0,42.0,3.0,1
-242.0,72.0,-70.0,23.0,43.0,5.0,1
-242.0,72.0,-71.0,15.0,38.0,5.0,1
-240.0,70.0,-69.0,11.0,36.0,5.0,1
-243.0,71.0,-70.0,8.0,34.0,5.0,1
-243.0,71.0,-73.0,7.0,34.0,5.0,1
-242.0,69.0,-69.0,7.0,36.0,5.0,1
-246.0,69.0,-69.0,19.0,38.0,5.0,1
-243.0,72.0,-67.0,19.0,39.0,5.0,1
-242.0,73.0,-68.0,17.0,43.0,6.0,1
-243.0,73.0,-68.0,15.0,46.0,6.0,1
-241.0,72.0,-70.0,10.0,49.0,7.0,1
-242.0,71.0,-66.0,6.0,50.0,8.0,1
-241.0,71.0,-72.0,11.0,51.0,6.0,1
-241.0,70.0,-70.0,12.0,51.0,4.0,1
-245.0,70.0,-69.0,10.0,51.0,2.0,1
-243.0,70.0,-73.0,13.0,52.0,2.0,1
-242.0,72.0,-69.0,19.0,49.0,1.0,1
-243.0,67.0,-70.0,24.0,47.0,-1.0,1
-244.0,70.0,-69.0,29.0,47.0,-2.0,1
-243.0,71.0,-70.0,40.0,50.0,-3.0,1
-240.0,74.0,-66.0,44.0,53.0,-5.0,1
-244.0,72.0,-68.0,44.0,57.0,-5.0,1
-240.0,69.0,-65.0,40.0,58.0,-3.0,1
-240.0,70.0,-70.0,39.0,59.0,-3.0,1
-239.0,70.0,-67.0,34.0,58.0,-5.0,1
-243.0,70.0,-70.0,33.0,59.0,-6.0,1
-243.0,71.0,-67.0,33.0,61.0,-5.0,1
-244.0,71.0,-68.0,31.0,63.0,-3.0,1
-243.0,72.0,-71.0,31.0,65.0,-3.0,1
-243.0,72.0,-68.0,30.0,69.0,-3.0,1
-238.0,77.0,-74.0,29.0,69.0,-2.0,1
-243.0,73.0,-72.0,26.0,67.0,-4.0,1
-242.0,71.0,-70.0,21.0,68.0,-5.0,1
-241.0,72.0,-69.0,18.0,68.0,-4.0,1
-244.0,71.0,-69.0,12.0,69.0,-5.0,1
-241.0,70.0,-69.0,6.0,69.0,-5.0,1
-241.0,71.0,-69.0,1.0,70.0,-7.0,1
-243.0,70.0,-74.0,-1.0,69.0,-9.0,1
-244.0,68.0,-70.0,-3.0,68.0,-8.0,1
-242.0,68.0,-66.0,0.0,69.0,-6.0,1
-244.0,70.0,-69.0,4.0,71.0,-5.0,1
-243.0,72.0,-70.0,10.0,71.0,-3.0,1
-238.0,68.0,-69.0,10.0,73.0,-1.0,1
-243.0,69.0,-76.0,8.0,77.0,0.0,1
-242.0,69.0,-70.0,5.0,78.0,0.0,1
-241.0,69.0,-73.0,6.0,76.0,0.0,1
-243.0,71.0,-71.0,6.0,75.0,-1.0,1
-244.0,73.0,-69.0,6.0,72.0,-3.0,1
-241.0,69.0,-70.0,4.0,69.0,-1.0,1
-242.0,71.0,-72.0,2.0,66.0,-3.0,1
-244.0,69.0,-69.0,1.0,61.0,-7.0,1
-243.0,69.0,-71.0,-1.0,62.0,-9.0,1
-239.0,67.0,-66.0,-1.0,64.0,-7.0,1
-244.0,70.0,-67.0,-2.0,65.0,-5.0,1
-242.0,70.0,-68.0,-3.0,65.0,-3.0,1
-239.0,69.0,-69.0,-4.0,65.0,-2.0,1
-240.0,71.0,-71.0,-5.0,65.0,0.0,1
-242.0,70.0,-73.0,-5.0,64.0,-2.0,1
-243.0,70.0,-70.0,-7.0,63.0,0.0,1
-239.0,66.0,-72.0,-8.0,65.0,-2.0,1
-244.0,70.0,-70.0,-7.0,64.0,-2.0,1
-245.0,73.0,-67.0,-6.0,66.0,-2.0,1
-241.0,67.0,-69.0,-6.0,65.0,-2.0,1
-244.0,69.0,-70.0,-7.0,64.0,-2.0,1
-245.0,67.0,-68.0,-6.0,64.0,-1.0,1
-243.0,70.0,-70.0,-6.0,64.0,0.0,1
-240.0,69.0,-70.0,-7.0,65.0,-1.0,1
-243.0,70.0,-71.0,-8.0,66.0,-1.0,1
-243.0,65.0,-67.0,-9.0,69.0,0.0,1
-242.0,69.0,-72.0,-9.0,71.0,0.0,1
-244.0,71.0,-73.0,-10.0,70.0,-1.0,1
-240.0,72.0,-71.0,-10.0,65.0,-1.0,1
-243.0,72.0,-69.0,-11.0,60.0,-2.0,1
-242.0,70.0,-72.0,-12.0,55.0,-3.0,1
-244.0,73.0,-77.0,-12.0,52.0,-3.0,1
-244.0,70.0,-70.0,-10.0,50.0,-4.0,1
-243.0,70.0,-67.0,-7.0,49.0,-5.0,1
-241.0,71.0,-71.0,-5.0,51.0,-5.0,1
-240.0,71.0,-70.0,-3.0,50.0,-4.0,1
-242.0,70.0,-69.0,-4.0,48.0,-5.0,1
-242.0,70.0,-69.0,-5.0,48.0,-6.0,1
-245.0,70.0,-70.0,-6.0,49.0,-5.0,1
-245.0,71.0,-71.0,-8.0,50.0,-6.0,1
-244.0,72.0,-65.0,-10.0,51.0,-6.0,1
-245.0,71.0,-69.0,-14.0,52.0,-6.0,1
-245.0,70.0,-68.0,-16.0,55.0,-4.0,1
-242.0,69.0,-71.0,-18.0,57.0,-2.0,1
-242.0,71.0,-68.0,-22.0,60.0,-1.0,1
-238.0,71.0,-68.0,-24.0,62.0,0.0,1
-240.0,68.0,-67.0,-24.0,63.0,1.0,1
-241.0,67.0,-67.0,-23.0,66.0,1.0,1
-241.0,67.0,-66.0,-20.0,68.0,1.0,1
-244.0,70.0,-65.0,-20.0,70.0,0.0,1
-244.0,68.0,-68.0,-22.0,70.0,2.0,1
-238.0,71.0,-78.0,-25.0,70.0,2.0,1
-247.0,67.0,-67.0,-24.0,71.0,3.0,1
-243.0,71.0,-68.0,-24.0,71.0,2.0,1
-244.0,71.0,-70.0,-24.0,70.0,3.0,1
-238.0,70.0,-71.0,-26.0,69.0,4.0,1
-242.0,68.0,-68.0,-27.0,70.0,2.0,1
-242.0,71.0,-68.0,-30.0,68.0,1.0,1
-245.0,72.0,-70.0,-29.0,68.0,2.0,1
-244.0,72.0,-67.0,-29.0,68.0,2.0,1
-242.0,70.0,-70.0,-29.0,67.0,3.0,1
-241.0,71.0,-68.0,-29.0,67.0,1.0,1
-242.0,69.0,-70.0,-27.0,65.0,0.0,1
-243.0,70.0,-68.0,-26.0,66.0,0.0,1
-245.0,70.0,-70.0,-26.0,68.0,0.0,1
-242.0,71.0,-69.0,-27.0,69.0,-2.0,1
-246.0,72.0,-68.0,-30.0,70.0,-2.0,1
-243.0,72.0,-68.0,-30.0,71.0,-3.0,1
-244.0,71.0,-67.0,-31.0,74.0,-1.0,1
-241.0,70.0,-68.0,-34.0,75.0,-1.0,1
-243.0,71.0,-66.0,-36.0,76.0,-2.0,1
-245.0,70.0,-71.0,-37.0,76.0,-3.0,1
-243.0,73.0,-69.0,-39.0,75.0,-3.0,1
-241.0,72.0,-71.0,-41.0,75.0,-3.0,1
-248.0,65.0,-65.0,-42.0,74.0,-3.0,1
-243.0,70.0,-67.0,-43.0,73.0,-4.0,1
-241.0,71.0,-69.0,-42.0,72.0,-2.0,1
-239.0,68.0,-72.0,-42.0,73.0,-2.0,1
-244.0,72.0,-70.0,-42.0,72.0,-3.0,1
-242.0,69.0,-68.0,-42.0,74.0,-3.0,1
-243.0,67.0,-70.0,-42.0,75.0,-3.0,1
-241.0,70.0,-67.0,-44.0,78.0,-2.0,1
-243.0,71.0,-69.0,-47.0,78.0,-3.0,1
-242.0,71.0,-67.0,-50.0,80.0,-2.0,1
-243.0,68.0,-67.0,-49.0,78.0,-3.0,1
-239.0,69.0,-71.0,-50.0,75.0,-3.0,1
-242.0,71.0,-69.0,-51.0,74.0,-4.0,1
-241.0,70.0,-70.0,-55.0,75.0,-4.0,1
-243.0,72.0,-66.0,-55.0,74.0,-2.0,1
-242.0,71.0,-70.0,-54.0,73.0,-3.0,1
-243.0,70.0,-68.0,-53.0,72.0,-3.0,1
-242.0,71.0,-71.0,-57.0,71.0,-4.0,1
-243.0,72.0,-71.0,-58.0,69.0,-3.0,1
-242.0,71.0,-67.0,-57.0,69.0,-2.0,1
-244.0,71.0,-73.0,-58.0,68.0,-2.0,1
-243.0,72.0,-69.0,-60.0,69.0,-2.0,1
-241.0,70.0,-70.0,-61.0,70.0,-2.0,1
-245.0,70.0,-67.0,-59.0,72.0,-1.0,1
-243.0,71.0,-72.0,-59.0,75.0,-1.0,1
-240.0,71.0,-70.0,-60.0,77.0,0.0,1
-243.0,71.0,-70.0,-62.0,78.0,1.0,1
-242.0,71.0,-68.0,-62.0,77.0,2.0,1
-242.0,72.0,-73.0,-60.0,76.0,1.0,1
-243.0,71.0,-71.0,-59.0,75.0,2.0,1
-243.0,70.0,-75.0,-59.0,75.0,1.0,1
-242.0,70.0,-67.0,-60.0,75.0,2.0,1
-245.0,72.0,-71.0,-59.0,75.0,2.0,1
-241.0,70.0,-72.0,-57.0,72.0,1.0,1
-243.0,73.0,-68.0,-57.0,70.0,0.0,1
-241.0,71.0,-70.0,-58.0,68.0,1.0,1
-241.0,72.0,-72.0,-57.0,67.0,-1.0,1
-242.0,72.0,-73.0,-55.0,67.0,1.0,1
-244.0,71.0,-67.0,-56.0,68.0,1.0,1
-243.0,69.0,-70.0,-57.0,70.0,1.0,1
-243.0,72.0,-70.0,-58.0,71.0,0.0,1
-242.0,71.0,-72.0,-62.0,71.0,-1.0,1
-244.0,71.0,-66.0,-64.0,71.0,0.0,1
-242.0,71.0,-64.0,-65.0,71.0,0.0,1
-236.0,72.0,-63.0,-68.0,72.0,0.0,1
-241.0,72.0,-69.0,-66.0,72.0,0.0,1
-241.0,69.0,-72.0,-66.0,72.0,0.0,1
-243.0,70.0,-71.0,-65.0,71.0,-2.0,1
-244.0,72.0,-70.0,-62.0,72.0,-2.0,1
-243.0,70.0,-70.0,-61.0,70.0,-3.0,1
-244.0,73.0,-71.0,-59.0,70.0,-3.0,1
-241.0,71.0,-67.0,-57.0,71.0,-2.0,1
-244.0,71.0,-65.0,-54.0,71.0,-2.0,1
-242.0,69.0,-67.0,-54.0,71.0,-2.0,1
-243.0,71.0,-68.0,-52.0,72.0,-1.0,1
-245.0,72.0,-70.0,-50.0,73.0,-1.0,1
-242.0,72.0,-66.0,-51.0,76.0,-2.0,1
-243.0,72.0,-72.0,-53.0,77.0,-2.0,1
-244.0,74.0,-70.0,-54.0,78.0,-3.0,1
-242.0,71.0,-71.0,-56.0,77.0,-4.0,1
-244.0,74.0,-72.0,-56.0,78.0,-4.0,1
-244.0,70.0,-73.0,-56.0,77.0,-3.0,1
-243.0,71.0,-73.0,-54.0,76.0,-4.0,1
-242.0,72.0,-71.0,-51.0,74.0,-6.0,1
-243.0,71.0,-69.0,-52.0,70.0,-6.0,1
-240.0,70.0,-66.0,-52.0,68.0,-6.0,1
-240.0,71.0,-73.0,-54.0,65.0,-6.0,1
-241.0,73.0,-69.0,-51.0,65.0,-4.0,1
-243.0,73.0,-73.0,-51.0,65.0,-2.0,1
-241.0,70.0,-71.0,-51.0,66.0,-4.0,1
-243.0,72.0,-69.0,-51.0,66.0,-2.0,1
-243.0,71.0,-66.0,-52.0,66.0,-4.0,1
-244.0,70.0,-69.0,-54.0,67.0,-4.0,1
-242.0,72.0,-70.0,-55.0,68.0,-5.0,1
-242.0,70.0,-68.0,-54.0,71.0,-5.0,1
-241.0,71.0,-70.0,-51.0,72.0,-4.0,1
-243.0,74.0,-73.0,-51.0,72.0,-6.0,1
-241.0,71.0,-66.0,-48.0,72.0,-4.0,1
-242.0,71.0,-72.0,-47.0,73.0,-4.0,1
-242.0,70.0,-71.0,-49.0,74.0,-3.0,1
-247.0,72.0,-67.0,-51.0,73.0,-2.0,1
-245.0,72.0,-66.0,-51.0,72.0,-2.0,1
-242.0,71.0,-69.0,-50.0,70.0,-2.0,1
-240.0,71.0,-65.0,-49.0,68.0,-3.0,1
-242.0,70.0,-68.0,-48.0,67.0,-4.0,1
-241.0,71.0,-68.0,-47.0,66.0,-5.0,1
-244.0,69.0,-66.0,-48.0,67.0,-4.0,1
-241.0,73.0,-69.0,-49.0,68.0,-3.0,1
-245.0,70.0,-70.0,-49.0,71.0,-2.0,1
-243.0,71.0,-70.0,-44.0,75.0,-2.0,1
-241.0,71.0,-68.0,-42.0,76.0,-2.0,1
-240.0,72.0,-71.0,-40.0,77.0,-2.0,1
-240.0,70.0,-68.0,-40.0,76.0,-1.0,1
-244.0,75.0,-70.0,-39.0,72.0,-1.0,1
-242.0,71.0,-69.0,-43.0,69.0,0.0,1
-244.0,73.0,-68.0,-43.0,68.0,0.0,1
-241.0,71.0,-68.0,-43.0,65.0,-1.0,1
-243.0,72.0,-72.0,-42.0,66.0,-1.0,1
-240.0,70.0,-72.0,-40.0,67.0,-1.0,1
-242.0,74.0,-73.0,-39.0,66.0,1.0,1
-240.0,75.0,-71.0,-38.0,68.0,1.0,1
-241.0,70.0,-69.0,-35.0,69.0,0.0,1
-243.0,70.0,-68.0,-36.0,69.0,-1.0,1
-245.0,72.0,-72.0,-36.0,69.0,-2.0,1
-244.0,72.0,-73.0,-33.0,69.0,-3.0,1
-241.0,72.0,-68.0,-33.0,67.0,-3.0,1
-241.0,72.0,-71.0,-32.0,66.0,-2.0,1
-241.0,72.0,-71.0,-30.0,66.0,-5.0,1
-246.0,73.0,-65.0,-28.0,65.0,-5.0,1
-241.0,73.0,-75.0,-25.0,63.0,-3.0,1
-242.0,72.0,-71.0,-24.0,62.0,-5.0,1
-242.0,72.0,-68.0,-22.0,59.0,-6.0,1
-242.0,72.0,-71.0,-20.0,61.0,-7.0,1
-243.0,72.0,-68.0,-20.0,61.0,-6.0,1
-243.0,72.0,-67.0,-22.0,63.0,-6.0,1
-243.0,70.0,-67.0,-26.0,65.0,-4.0,1
-243.0,71.0,-65.0,-29.0,65.0,-4.0,1
-241.0,69.0,-70.0,-30.0,66.0,-4.0,1
-241.0,70.0,-64.0,-34.0,67.0,-3.0,1
-243.0,71.0,-69.0,-37.0,66.0,-4.0,1
-241.0,72.0,-69.0,-37.0,65.0,-3.0,1
-243.0,73.0,-69.0,-36.0,66.0,-2.0,1
-241.0,71.0,-70.0,-33.0,67.0,-2.0,1
-241.0,73.0,-66.0,-33.0,68.0,-2.0,1
-243.0,73.0,-69.0,-32.0,65.0,0.0,1
-244.0,74.0,-69.0,-31.0,66.0,0.0,1
-242.0,71.0,-71.0,-31.0,67.0,2.0,1
-245.0,74.0,-67.0,-32.0,65.0,0.0,1
-244.0,71.0,-71.0,-31.0,63.0,-1.0,1
-240.0,72.0,-65.0,-29.0,61.0,-1.0,1
-240.0,71.0,-70.0,-26.0,60.0,-2.0,1
-243.0,74.0,-63.0,-22.0,60.0,-1.0,1
-245.0,73.0,-68.0,-19.0,62.0,-1.0,1
-245.0,74.0,-68.0,-15.0,62.0,-1.0,1
-244.0,74.0,-67.0,-16.0,61.0,-1.0,1
-242.0,72.0,-68.0,-15.0,61.0,-2.0,1
-240.0,74.0,-67.0,-14.0,63.0,-3.0,1
-245.0,74.0,-70.0,-14.0,65.0,-4.0,1
-244.0,72.0,-70.0,-15.0,65.0,-6.0,1
-244.0,74.0,-70.0,-14.0,64.0,-5.0,1
-241.0,73.0,-66.0,-14.0,65.0,-5.0,1
-245.0,72.0,-65.0,-14.0,65.0,-5.0,1
-242.0,72.0,-67.0,-14.0,67.0,-5.0,1
-244.0,74.0,-69.0,-12.0,68.0,-5.0,1
-244.0,72.0,-65.0,-11.0,67.0,-6.0,1
-242.0,71.0,-68.0,-11.0,67.0,-5.0,1
-243.0,71.0,-65.0,-12.0,68.0,-5.0,1
-240.0,72.0,-72.0,-11.0,68.0,-5.0,1
-242.0,71.0,-67.0,-11.0,69.0,-4.0,1
-242.0,72.0,-68.0,-8.0,67.0,-4.0,1
-243.0,72.0,-68.0,-9.0,67.0,-3.0,1
-242.0,72.0,-68.0,-9.0,67.0,-4.0,1
-243.0,73.0,-66.0,-8.0,68.0,-3.0,1
-242.0,72.0,-67.0,-8.0,68.0,-5.0,1
-243.0,72.0,-69.0,-7.0,66.0,-5.0,1
-243.0,73.0,-71.0,-8.0,66.0,-4.0,1
-241.0,71.0,-71.0,-5.0,65.0,-3.0,1
-244.0,72.0,-69.0,-4.0,63.0,-4.0,1
-244.0,73.0,-70.0,-4.0,63.0,-3.0,1
-240.0,72.0,-71.0,-3.0,63.0,-4.0,1
-242.0,71.0,-66.0,-3.0,62.0,-3.0,1
-244.0,71.0,-70.0,-1.0,62.0,-3.0,1
-245.0,74.0,-65.0,-3.0,63.0,-2.0,1
-241.0,71.0,-70.0,-4.0,64.0,-4.0,1
-239.0,72.0,-70.0,-4.0,64.0,-5.0,1
-244.0,70.0,-72.0,-1.0,65.0,-4.0,1
-242.0,72.0,-68.0,2.0,62.0,-4.0,1
-239.0,69.0,-72.0,5.0,61.0,-5.0,1
-242.0,71.0,-66.0,9.0,62.0,-4.0,1
-240.0,72.0,-67.0,12.0,63.0,-6.0,1
-242.0,72.0,-66.0,14.0,63.0,-4.0,1
-243.0,70.0,-69.0,16.0,64.0,-4.0,1
-244.0,74.0,-71.0,18.0,64.0,-4.0,1
-243.0,72.0,-68.0,19.0,64.0,-3.0,1
-242.0,74.0,-72.0,19.0,64.0,-3.0,1
-243.0,71.0,-67.0,17.0,63.0,-3.0,1
-245.0,73.0,-69.0,17.0,63.0,-3.0,1
-243.0,72.0,-70.0,17.0,62.0,-4.0,1
-244.0,74.0,-68.0,15.0,63.0,-4.0,1
-242.0,73.0,-69.0,14.0,62.0,-4.0,1
-243.0,71.0,-68.0,12.0,63.0,-3.0,1
-243.0,73.0,-68.0,12.0,63.0,-4.0,1
-241.0,72.0,-69.0,13.0,63.0,-5.0,1
-242.0,71.0,-67.0,14.0,64.0,-4.0,1
-239.0,71.0,-70.0,14.0,65.0,-4.0,1
-242.0,71.0,-65.0,15.0,65.0,-2.0,1
-242.0,70.0,-67.0,16.0,66.0,-2.0,1
-246.0,72.0,-71.0,15.0,64.0,0.0,1
-243.0,71.0,-65.0,15.0,64.0,0.0,1
-243.0,73.0,-70.0,14.0,65.0,-1.0,1
-245.0,72.0,-66.0,13.0,63.0,-1.0,1
-242.0,72.0,-70.0,13.0,62.0,-1.0,1
-242.0,73.0,-69.0,12.0,60.0,-2.0,1
-244.0,72.0,-68.0,11.0,59.0,-3.0,1
-243.0,73.0,-72.0,11.0,59.0,-2.0,1
-246.0,70.0,-69.0,14.0,59.0,-4.0,1
-242.0,71.0,-71.0,16.0,60.0,-3.0,1
-245.0,72.0,-70.0,18.0,62.0,-3.0,1
-245.0,72.0,-69.0,20.0,62.0,-3.0,1
-240.0,73.0,-69.0,19.0,64.0,-2.0,1
-242.0,73.0,-68.0,20.0,63.0,-4.0,1
-242.0,71.0,-69.0,19.0,62.0,-5.0,1
-241.0,71.0,-66.0,21.0,62.0,-3.0,1
-242.0,72.0,-68.0,20.0,63.0,-4.0,1
-243.0,72.0,-70.0,19.0,64.0,-4.0,1
-241.0,73.0,-71.0,20.0,64.0,-4.0,1
-243.0,73.0,-67.0,20.0,65.0,-3.0,1
-240.0,71.0,-69.0,18.0,64.0,-3.0,1
-239.0,71.0,-70.0,17.0,63.0,-4.0,1
-240.0,71.0,-69.0,16.0,60.0,-4.0,1
-243.0,72.0,-73.0,15.0,60.0,-5.0,1
-242.0,71.0,-70.0,16.0,61.0,-4.0,1
-241.0,71.0,-71.0,15.0,61.0,-4.0,1
-242.0,71.0,-68.0,14.0,62.0,-3.0,1
-244.0,73.0,-64.0,14.0,62.0,-4.0,1
-244.0,70.0,-68.0,14.0,62.0,-5.0,1
-244.0,73.0,-71.0,15.0,62.0,-4.0,1
-242.0,71.0,-66.0,14.0,62.0,-4.0,1
-241.0,74.0,-68.0,14.0,61.0,-6.0,1
-243.0,73.0,-69.0,15.0,60.0,-7.0,1
-243.0,71.0,-70.0,16.0,60.0,-6.0,1
-245.0,71.0,-65.0,18.0,59.0,-7.0,1
-244.0,73.0,-68.0,15.0,59.0,-6.0,1
-241.0,71.0,-68.0,15.0,58.0,-6.0,1
-244.0,72.0,-66.0,13.0,58.0,-7.0,1
-241.0,70.0,-65.0,12.0,59.0,-8.0,1
-244.0,70.0,-70.0,13.0,59.0,-7.0,1
-243.0,74.0,-67.0,13.0,60.0,-8.0,1
-242.0,71.0,-67.0,13.0,60.0,-8.0,1
-242.0,73.0,-70.0,11.0,60.0,-8.0,1
-244.0,71.0,-68.0,10.0,59.0,-7.0,1
-242.0,71.0,-67.0,10.0,61.0,-7.0,1
-243.0,70.0,-68.0,8.0,61.0,-7.0,1
-243.0,70.0,-66.0,9.0,62.0,-5.0,1
-242.0,69.0,-71.0,10.0,62.0,-5.0,1
-244.0,72.0,-68.0,8.0,62.0,-4.0,1
-242.0,71.0,-70.0,10.0,60.0,-5.0,1
-243.0,72.0,-70.0,9.0,60.0,-5.0,1
-244.0,71.0,-68.0,10.0,60.0,-7.0,1
-242.0,72.0,-69.0,11.0,62.0,-7.0,1
-246.0,71.0,-67.0,10.0,61.0,-6.0,1
-243.0,71.0,-67.0,11.0,62.0,-6.0,1
-241.0,71.0,-67.0,12.0,62.0,-7.0,1
-243.0,72.0,-69.0,12.0,60.0,-6.0,1
-242.0,71.0,-68.0,12.0,59.0,-6.0,1
-241.0,71.0,-65.0,10.0,58.0,-8.0,1
-239.0,71.0,-70.0,12.0,57.0,-9.0,1
-245.0,71.0,-68.0,12.0,57.0,-8.0,1
-244.0,72.0,-67.0,11.0,57.0,-7.0,1
-242.0,71.0,-65.0,8.0,58.0,-6.0,1
-244.0,73.0,-71.0,6.0,57.0,-6.0,1
-241.0,70.0,-72.0,4.0,58.0,-6.0,1
-245.0,70.0,-71.0,3.0,60.0,-5.0,1
-242.0,71.0,-69.0,4.0,62.0,-5.0,1
-241.0,74.0,-66.0,4.0,63.0,-7.0,1
-244.0,71.0,-67.0,2.0,56.0,-8.0,1
-241.0,71.0,-71.0,1.0,59.0,-5.0,1
-243.0,72.0,-66.0,5.0,63.0,-3.0,1
-244.0,71.0,-69.0,6.0,64.0,-4.0,1
-240.0,70.0,-66.0,6.0,64.0,-3.0,1
-241.0,73.0,-70.0,7.0,63.0,-3.0,1
-244.0,71.0,-68.0,6.0,63.0,-3.0,1
-242.0,83.0,-65.0,4.0,61.0,-2.0,1
-244.0,71.0,-65.0,4.0,61.0,-4.0,1
-243.0,68.0,-66.0,5.0,60.0,-4.0,1
-243.0,69.0,-71.0,5.0,59.0,-3.0,1
-244.0,73.0,-69.0,6.0,59.0,-2.0,1
-242.0,72.0,-67.0,5.0,60.0,-4.0,1
-243.0,72.0,-72.0,7.0,60.0,-5.0,1
-241.0,74.0,-69.0,8.0,60.0,-6.0,1
-244.0,71.0,-68.0,12.0,61.0,-7.0,1
-244.0,69.0,-72.0,14.0,62.0,-7.0,1
-241.0,71.0,-67.0,11.0,60.0,-7.0,1
-242.0,72.0,-66.0,7.0,59.0,-9.0,1
-242.0,72.0,-66.0,6.0,58.0,-8.0,1
-243.0,72.0,-67.0,8.0,58.0,-8.0,1
-243.0,71.0,-73.0,12.0,57.0,-7.0,1
-242.0,69.0,-69.0,16.0,55.0,-8.0,1
-243.0,71.0,-69.0,21.0,55.0,-9.0,1
-243.0,70.0,-71.0,24.0,55.0,-10.0,1
-240.0,71.0,-68.0,26.0,54.0,-10.0,1
-241.0,71.0,-68.0,27.0,55.0,-12.0,1
-243.0,74.0,-73.0,28.0,54.0,-12.0,1
-243.0,71.0,-71.0,33.0,57.0,-12.0,1
-242.0,71.0,-63.0,31.0,58.0,-11.0,1
-242.0,68.0,-66.0,29.0,63.0,-10.0,1
-244.0,70.0,-70.0,24.0,65.0,-10.0,1
-243.0,70.0,-65.0,19.0,66.0,-9.0,1
-241.0,68.0,-69.0,12.0,66.0,-7.0,1
-244.0,71.0,-68.0,11.0,65.0,-7.0,1
-244.0,70.0,-66.0,15.0,63.0,-4.0,1
-242.0,69.0,-71.0,14.0,63.0,-5.0,1
-241.0,70.0,-64.0,14.0,63.0,-3.0,1
-245.0,71.0,-69.0,15.0,65.0,-2.0,1
-243.0,70.0,-68.0,17.0,64.0,-4.0,1
-244.0,71.0,-68.0,16.0,65.0,-4.0,1
-237.0,67.0,-69.0,12.0,63.0,-2.0,1
-241.0,72.0,-67.0,12.0,62.0,-3.0,1
-244.0,72.0,-68.0,8.0,55.0,-6.0,1
-243.0,72.0,-68.0,6.0,53.0,-7.0,1
-241.0,71.0,-67.0,5.0,50.0,-8.0,1
-240.0,70.0,-66.0,5.0,49.0,-9.0,1
-241.0,68.0,-70.0,4.0,50.0,-10.0,1
-243.0,70.0,-66.0,6.0,51.0,-10.0,1
-246.0,68.0,-66.0,6.0,55.0,-9.0,1
-240.0,62.0,-69.0,6.0,56.0,-7.0,1
-244.0,69.0,-71.0,8.0,57.0,-6.0,1
-244.0,69.0,-70.0,8.0,59.0,-5.0,1
-245.0,71.0,-68.0,10.0,59.0,-7.0,1
-245.0,71.0,-65.0,12.0,59.0,-6.0,1
-243.0,71.0,-70.0,11.0,58.0,-8.0,1
-245.0,71.0,-67.0,11.0,60.0,-8.0,1
-245.0,70.0,-66.0,11.0,61.0,-6.0,1
-242.0,71.0,-67.0,11.0,60.0,-5.0,1
-242.0,70.0,-67.0,10.0,60.0,-8.0,1
-242.0,69.0,-70.0,10.0,58.0,-9.0,1
-242.0,71.0,-68.0,8.0,57.0,-8.0,1
-243.0,72.0,-66.0,5.0,53.0,-9.0,1
-242.0,71.0,-69.0,6.0,55.0,-10.0,1
-243.0,70.0,-66.0,5.0,56.0,-9.0,1
-242.0,70.0,-66.0,2.0,58.0,-7.0,1
-242.0,72.0,-71.0,3.0,61.0,-8.0,1
-243.0,70.0,-69.0,1.0,63.0,-6.0,1
-245.0,72.0,-69.0,0.0,62.0,-6.0,1
-243.0,71.0,-68.0,-1.0,61.0,-6.0,1
-243.0,69.0,-65.0,0.0,64.0,-6.0,1
-239.0,71.0,-73.0,0.0,64.0,-5.0,1
-241.0,70.0,-67.0,1.0,64.0,-5.0,1
-244.0,70.0,-68.0,1.0,64.0,-4.0,1
-246.0,72.0,-67.0,0.0,61.0,-5.0,1
-244.0,69.0,-70.0,-1.0,61.0,-6.0,1
-244.0,71.0,-68.0,-3.0,60.0,-5.0,1
-240.0,72.0,-68.0,-5.0,59.0,-5.0,1
-241.0,71.0,-67.0,-9.0,58.0,-5.0,1
-243.0,70.0,-67.0,-12.0,57.0,-6.0,1
-243.0,70.0,-71.0,-14.0,55.0,-6.0,1
-242.0,67.0,-72.0,-12.0,56.0,-6.0,1
-242.0,70.0,-68.0,-10.0,57.0,-6.0,1
-245.0,69.0,-69.0,-8.0,57.0,-6.0,1
-244.0,72.0,-69.0,-6.0,59.0,-6.0,1
-242.0,70.0,-71.0,-3.0,58.0,-6.0,1
-246.0,71.0,-66.0,-1.0,57.0,-6.0,1
-242.0,71.0,-71.0,-1.0,55.0,-4.0,1
-244.0,71.0,-71.0,-2.0,55.0,-5.0,1
-248.0,71.0,-72.0,-1.0,56.0,-5.0,1
-245.0,71.0,-69.0,-3.0,57.0,-6.0,1
-242.0,70.0,-67.0,-4.0,60.0,-7.0,1
-243.0,70.0,-69.0,-5.0,61.0,-6.0,1
-245.0,70.0,-65.0,-9.0,62.0,-5.0,1
-241.0,61.0,-73.0,-14.0,64.0,-3.0,1
-244.0,71.0,-65.0,-18.0,64.0,-1.0,1
-244.0,70.0,-69.0,-17.0,64.0,-1.0,1
-243.0,70.0,-67.0,-15.0,67.0,-3.0,1
-246.0,72.0,-69.0,-14.0,70.0,-2.0,1
-244.0,68.0,-69.0,-11.0,71.0,-1.0,1
-245.0,70.0,-68.0,-9.0,72.0,-1.0,1
-243.0,68.0,-70.0,-7.0,72.0,0.0,1
-243.0,72.0,-69.0,-5.0,73.0,-2.0,1
-242.0,70.0,-70.0,-4.0,71.0,-1.0,1
-243.0,73.0,-67.0,-5.0,69.0,-2.0,1
-243.0,70.0,-72.0,-5.0,65.0,-3.0,1
-244.0,71.0,-68.0,-6.0,62.0,-2.0,1
-243.0,72.0,-66.0,-10.0,59.0,-3.0,1
-244.0,71.0,-68.0,-11.0,59.0,-4.0,1
-242.0,72.0,-69.0,-13.0,59.0,-3.0,1
-243.0,70.0,-65.0,-11.0,58.0,-4.0,1
-240.0,69.0,-66.0,-11.0,58.0,-4.0,1
-244.0,71.0,-68.0,-9.0,59.0,-4.0,1
-242.0,69.0,-69.0,-8.0,61.0,-6.0,1
-244.0,68.0,-64.0,-6.0,65.0,-3.0,1
-246.0,71.0,-73.0,-5.0,68.0,-4.0,1
-243.0,70.0,-69.0,-4.0,70.0,-4.0,1
-246.0,71.0,-68.0,-5.0,73.0,-4.0,1
-245.0,72.0,-69.0,-6.0,72.0,-3.0,1
-243.0,71.0,-67.0,-5.0,71.0,-3.0,1
-241.0,69.0,-67.0,-7.0,70.0,-2.0,1
-244.0,70.0,-68.0,-9.0,69.0,-3.0,1
-244.0,72.0,-68.0,-10.0,67.0,-3.0,1
-243.0,69.0,-68.0,-9.0,68.0,-2.0,1
-242.0,72.0,-62.0,-8.0,65.0,-3.0,1
-242.0,70.0,-68.0,-8.0,64.0,-3.0,1
-242.0,72.0,-73.0,-6.0,62.0,-3.0,1
-244.0,73.0,-67.0,-3.0,63.0,-3.0,1
-243.0,71.0,-67.0,-2.0,61.0,-5.0,1
-242.0,72.0,-67.0,-6.0,60.0,-6.0,1
-243.0,71.0,-70.0,-8.0,61.0,-6.0,1
-243.0,70.0,-68.0,-8.0,61.0,-5.0,1
-243.0,69.0,-65.0,-8.0,62.0,-5.0,1
-244.0,72.0,-66.0,-8.0,61.0,-6.0,1
-243.0,70.0,-70.0,-8.0,58.0,-5.0,1
-242.0,71.0,-67.0,-9.0,59.0,-5.0,1
-245.0,70.0,-69.0,-10.0,58.0,-8.0,1
-242.0,75.0,-64.0,-8.0,57.0,-8.0,1
-241.0,69.0,-71.0,-8.0,57.0,-9.0,1
-244.0,67.0,-68.0,-10.0,57.0,-9.0,1
-246.0,68.0,-66.0,-11.0,57.0,-9.0,1
-242.0,70.0,-70.0,-12.0,60.0,-8.0,1
-245.0,69.0,-65.0,-11.0,59.0,-7.0,1
-243.0,70.0,-67.0,-10.0,61.0,-6.0,1
-245.0,70.0,-66.0,-11.0,61.0,-6.0,1
-245.0,72.0,-67.0,-8.0,61.0,-6.0,1
-243.0,71.0,-64.0,-9.0,60.0,-6.0,1
-245.0,71.0,-68.0,-11.0,62.0,-4.0,1
-244.0,70.0,-65.0,-12.0,61.0,-5.0,1
-245.0,72.0,-66.0,-12.0,62.0,-5.0,1
-245.0,71.0,-69.0,-12.0,60.0,-7.0,1
-244.0,69.0,-66.0,-11.0,60.0,-7.0,1
-246.0,69.0,-66.0,-9.0,63.0,-5.0,1
-244.0,70.0,-68.0,-9.0,62.0,-6.0,1
-243.0,70.0,-67.0,-11.0,64.0,-5.0,1
-245.0,73.0,-66.0,-10.0,64.0,-5.0,1
-242.0,69.0,-67.0,-9.0,64.0,-5.0,1
-245.0,71.0,-69.0,-8.0,63.0,-5.0,1
-242.0,70.0,-67.0,-9.0,66.0,-5.0,1
-242.0,67.0,-67.0,-8.0,68.0,-5.0,1
-244.0,71.0,-64.0,-8.0,67.0,-4.0,1
-244.0,70.0,-65.0,-8.0,67.0,-3.0,1
-245.0,70.0,-70.0,-9.0,66.0,-2.0,1
-245.0,70.0,-68.0,-9.0,66.0,-4.0,1
-243.0,68.0,-66.0,-10.0,66.0,-2.0,1
-242.0,70.0,-67.0,-11.0,65.0,-3.0,1
-243.0,70.0,-68.0,-13.0,64.0,-1.0,1
-242.0,70.0,-66.0,-14.0,65.0,-2.0,1
-242.0,70.0,-70.0,-13.0,65.0,-1.0,1
-244.0,69.0,-67.0,-12.0,67.0,-2.0,1
-243.0,70.0,-70.0,-11.0,68.0,-3.0,1
-243.0,71.0,-66.0,-12.0,67.0,-2.0,1
-244.0,70.0,-66.0,-12.0,68.0,-2.0,1
-240.0,67.0,-67.0,-12.0,68.0,-1.0,1
-246.0,72.0,-68.0,-13.0,70.0,-2.0,1
-243.0,69.0,-67.0,-12.0,68.0,-3.0,1
-244.0,71.0,-67.0,-11.0,66.0,-3.0,1
-246.0,69.0,-69.0,-12.0,66.0,-2.0,1
-245.0,70.0,-67.0,-12.0,66.0,-2.0,1
-244.0,71.0,-67.0,-13.0,66.0,-2.0,1
-242.0,71.0,-69.0,-12.0,68.0,-3.0,1
-243.0,67.0,-65.0,-12.0,69.0,-2.0,1
-243.0,70.0,-60.0,-14.0,70.0,-3.0,1
-242.0,69.0,-69.0,-14.0,69.0,-3.0,1
-244.0,72.0,-70.0,-13.0,68.0,-3.0,1
-242.0,69.0,-67.0,-13.0,68.0,-2.0,1
-243.0,69.0,-69.0,-12.0,68.0,-3.0,1
-243.0,70.0,-70.0,-11.0,65.0,-3.0,1
-242.0,68.0,-62.0,-10.0,65.0,-3.0,1
-243.0,69.0,-65.0,-9.0,65.0,-3.0,1
-246.0,70.0,-66.0,-8.0,64.0,-4.0,1
-246.0,73.0,-67.0,-10.0,65.0,-5.0,1
-243.0,67.0,-70.0,-10.0,66.0,-5.0,1
-241.0,70.0,-69.0,-10.0,64.0,-5.0,1
-244.0,71.0,-68.0,-11.0,63.0,-4.0,1
-245.0,71.0,-71.0,-10.0,65.0,-4.0,1
-244.0,72.0,-68.0,-9.0,65.0,-5.0,1
-245.0,71.0,-66.0,-10.0,64.0,-6.0,1
-244.0,70.0,-66.0,-9.0,63.0,-6.0,1
-242.0,70.0,-68.0,-10.0,61.0,-6.0,1
-245.0,71.0,-69.0,-10.0,62.0,-5.0,1
-243.0,71.0,-69.0,-12.0,60.0,-6.0,1
-243.0,70.0,-66.0,-12.0,60.0,-6.0,1
-244.0,69.0,-65.0,-11.0,61.0,-7.0,1
-245.0,70.0,-64.0,-14.0,60.0,-7.0,1
-241.0,70.0,-67.0,-16.0,61.0,-7.0,1
-242.0,67.0,-63.0,-16.0,63.0,-7.0,1
-243.0,69.0,-64.0,-16.0,64.0,-4.0,1
-243.0,68.0,-67.0,-17.0,66.0,-4.0,1
-240.0,68.0,-69.0,-17.0,66.0,-3.0,1
-243.0,68.0,-69.0,-17.0,66.0,-4.0,1
-245.0,70.0,-68.0,-16.0,68.0,-5.0,1
-243.0,70.0,-65.0,-14.0,68.0,-3.0,1
-245.0,70.0,-67.0,-13.0,68.0,-4.0,1
-245.0,71.0,-68.0,-14.0,67.0,-4.0,1
-242.0,72.0,-69.0,-13.0,66.0,-4.0,1
-245.0,72.0,-68.0,-14.0,66.0,-3.0,1
-242.0,69.0,-64.0,-17.0,67.0,-3.0,1
-242.0,70.0,-68.0,-21.0,67.0,-2.0,1
-241.0,68.0,-65.0,-23.0,69.0,0.0,1
-244.0,69.0,-65.0,-26.0,69.0,0.0,1
-243.0,70.0,-68.0,-26.0,69.0,0.0,1
-241.0,70.0,-68.0,-25.0,68.0,-1.0,1
-238.0,69.0,-66.0,-25.0,68.0,-1.0,1
-244.0,69.0,-67.0,-26.0,70.0,-1.0,1
-247.0,70.0,-69.0,-25.0,71.0,-2.0,1
-247.0,72.0,-66.0,-25.0,72.0,-2.0,1
-245.0,71.0,-69.0,-24.0,72.0,-2.0,1
-244.0,72.0,-65.0,-23.0,71.0,-4.0,1
-243.0,69.0,-69.0,-23.0,70.0,-5.0,1
-244.0,70.0,-67.0,-21.0,70.0,-6.0,1
-242.0,70.0,-68.0,-21.0,70.0,-6.0,1
-244.0,69.0,-70.0,-21.0,70.0,-6.0,1
-243.0,70.0,-67.0,-20.0,69.0,-6.0,1
-243.0,71.0,-66.0,-18.0,67.0,-6.0,1
-243.0,69.0,-67.0,-18.0,68.0,-6.0,1
-247.0,70.0,-68.0,-13.0,68.0,-7.0,1
-242.0,69.0,-68.0,-13.0,67.0,-7.0,1
-239.0,71.0,-66.0,-12.0,68.0,-7.0,1
-242.0,70.0,-69.0,-13.0,69.0,-7.0,1
-240.0,68.0,-67.0,-17.0,70.0,-7.0,1
-244.0,70.0,-65.0,-20.0,70.0,-6.0,1
-242.0,70.0,-65.0,-24.0,70.0,-6.0,1
-246.0,70.0,-69.0,-27.0,71.0,-5.0,1
-242.0,67.0,-64.0,-31.0,72.0,-2.0,1
-242.0,70.0,-67.0,-32.0,75.0,0.0,1
-248.0,73.0,-68.0,-32.0,75.0,-1.0,1
-242.0,69.0,-71.0,-33.0,75.0,1.0,1
-244.0,71.0,-68.0,-33.0,79.0,0.0,1
-244.0,71.0,-70.0,-34.0,79.0,1.0,1
-244.0,71.0,-68.0,-37.0,80.0,0.0,1
-244.0,72.0,-71.0,-38.0,80.0,0.0,1
-243.0,70.0,-66.0,-42.0,78.0,0.0,1
-242.0,68.0,-66.0,-43.0,74.0,1.0,1
-243.0,68.0,-66.0,-42.0,73.0,0.0,1
-241.0,69.0,-65.0,-39.0,69.0,1.0,1
-246.0,72.0,-69.0,-37.0,67.0,2.0,1
-244.0,71.0,-67.0,-36.0,65.0,1.0,1
-243.0,67.0,-66.0,-34.0,65.0,1.0,1
-245.0,71.0,-66.0,-33.0,65.0,0.0,1
-244.0,71.0,-68.0,-32.0,64.0,-1.0,1
-247.0,73.0,-66.0,-32.0,64.0,-1.0,1
-244.0,69.0,-70.0,-32.0,65.0,-2.0,1
-243.0,69.0,-69.0,-33.0,67.0,-1.0,1
-242.0,70.0,-68.0,-34.0,68.0,-3.0,1
-243.0,72.0,-67.0,-37.0,70.0,-1.0,1
-244.0,70.0,-68.0,-39.0,72.0,-2.0,1
-244.0,69.0,-66.0,-39.0,72.0,-2.0,1
-238.0,69.0,-68.0,-39.0,74.0,0.0,1
-241.0,71.0,-68.0,-39.0,74.0,-1.0,1
-241.0,69.0,-68.0,-41.0,77.0,-2.0,1
-240.0,69.0,-63.0,-43.0,77.0,-3.0,1
-244.0,71.0,-70.0,-44.0,76.0,-4.0,1
-244.0,71.0,-67.0,-43.0,74.0,-5.0,1
-244.0,71.0,-66.0,-45.0,76.0,-4.0,1
-240.0,69.0,-65.0,-46.0,77.0,-4.0,1
-243.0,70.0,-69.0,-49.0,78.0,-5.0,1
-241.0,70.0,-66.0,-51.0,79.0,-4.0,1
-241.0,70.0,-67.0,-50.0,78.0,-3.0,1
-246.0,72.0,-65.0,-49.0,78.0,-5.0,1
-245.0,68.0,-65.0,-49.0,77.0,-5.0,1
-244.0,70.0,-67.0,-48.0,76.0,-3.0,1
-243.0,70.0,-67.0,-50.0,75.0,-3.0,1
-241.0,68.0,-69.0,-50.0,72.0,-3.0,1
-242.0,70.0,-66.0,-51.0,72.0,-4.0,1
-243.0,71.0,-66.0,-52.0,70.0,-4.0,1
-244.0,72.0,-66.0,-53.0,70.0,-4.0,1
-244.0,72.0,-66.0,-52.0,69.0,-5.0,1
-242.0,71.0,-66.0,-53.0,69.0,-5.0,1
-246.0,72.0,-66.0,-55.0,67.0,-4.0,1
-245.0,71.0,-64.0,-59.0,67.0,-3.0,1
-243.0,69.0,-62.0,-64.0,68.0,-2.0,1
-244.0,71.0,-62.0,-64.0,69.0,-1.0,1
-242.0,69.0,-62.0,-65.0,71.0,-2.0,1
-242.0,68.0,-62.0,-64.0,72.0,-3.0,1
-241.0,70.0,-67.0,-66.0,75.0,-4.0,1
-244.0,69.0,-70.0,-66.0,78.0,-3.0,1
-244.0,70.0,-66.0,-69.0,78.0,-2.0,1
-243.0,71.0,-68.0,-69.0,78.0,-2.0,1
-242.0,71.0,-68.0,-65.0,81.0,-1.0,1
-242.0,70.0,-65.0,-64.0,81.0,-1.0,1
-243.0,73.0,-65.0,-65.0,81.0,-2.0,1
-244.0,71.0,-66.0,-66.0,83.0,0.0,1
-242.0,73.0,-67.0,-67.0,81.0,-1.0,1
-244.0,72.0,-66.0,-66.0,81.0,-1.0,1
-245.0,73.0,-67.0,-67.0,80.0,0.0,1
-242.0,72.0,-66.0,-68.0,78.0,-1.0,1
-244.0,71.0,-71.0,-69.0,79.0,0.0,1
-246.0,70.0,-63.0,-73.0,79.0,0.0,1
-241.0,70.0,-65.0,-77.0,81.0,2.0,1
-244.0,70.0,-68.0,-77.0,81.0,0.0,1
-243.0,69.0,-66.0,-79.0,82.0,0.0,1
-245.0,71.0,-66.0,-79.0,82.0,0.0,1
-243.0,72.0,-68.0,-78.0,81.0,-1.0,1
-243.0,71.0,-67.0,-78.0,80.0,-2.0,1
-241.0,73.0,-67.0,-77.0,79.0,-2.0,1
-244.0,73.0,-69.0,-74.0,82.0,-1.0,1
-241.0,71.0,-67.0,-72.0,82.0,-1.0,1
-244.0,71.0,-67.0,-70.0,83.0,0.0,1
-243.0,74.0,-68.0,-72.0,81.0,-1.0,1
-244.0,71.0,-60.0,-73.0,77.0,-2.0,1
-241.0,72.0,-69.0,-79.0,67.0,-6.0,1
-242.0,70.0,-67.0,-84.0,71.0,-3.0,1
-247.0,72.0,-68.0,-77.0,74.0,-3.0,1
-244.0,71.0,-68.0,-71.0,74.0,-3.0,1
-244.0,72.0,-67.0,-65.0,76.0,-4.0,1
-243.0,72.0,-68.0,-61.0,75.0,-2.0,1
-242.0,72.0,-67.0,-57.0,75.0,-4.0,1
-243.0,73.0,-62.0,-55.0,74.0,-3.0,1
-242.0,71.0,-66.0,-53.0,72.0,-5.0,1
-243.0,71.0,-67.0,-54.0,71.0,-5.0,1
-242.0,71.0,-68.0,-52.0,71.0,-4.0,1
-243.0,73.0,-66.0,-53.0,72.0,-1.0,1
-243.0,75.0,-71.0,-56.0,73.0,-2.0,1
-245.0,71.0,-68.0,-58.0,73.0,-1.0,1
-242.0,71.0,-66.0,-59.0,77.0,-1.0,1
-244.0,72.0,-65.0,-57.0,80.0,-2.0,1
-243.0,74.0,-73.0,-59.0,81.0,0.0,1
-243.0,71.0,-64.0,-59.0,83.0,0.0,1
-242.0,70.0,-67.0,-61.0,81.0,0.0,1
-242.0,71.0,-70.0,-59.0,81.0,0.0,1
-244.0,71.0,-73.0,-56.0,79.0,1.0,1
-241.0,72.0,-63.0,-55.0,77.0,-2.0,1
-243.0,72.0,-67.0,-53.0,75.0,0.0,1
-241.0,70.0,-67.0,-52.0,73.0,-2.0,1
-242.0,72.0,-67.0,-51.0,70.0,-1.0,1
-242.0,68.0,-69.0,-47.0,68.0,-1.0,1
-245.0,74.0,-67.0,-44.0,68.0,-2.0,1
-245.0,72.0,-69.0,-44.0,68.0,-3.0,1
-242.0,73.0,-67.0,-44.0,67.0,-5.0,1
-243.0,71.0,-66.0,-44.0,67.0,-4.0,1
-246.0,70.0,-69.0,-44.0,67.0,-3.0,1
-246.0,72.0,-66.0,-43.0,68.0,-4.0,1
-243.0,72.0,-65.0,-41.0,69.0,-4.0,1
-242.0,70.0,-66.0,-39.0,70.0,-4.0,1
-239.0,73.0,-63.0,-38.0,71.0,-3.0,1
-245.0,69.0,-64.0,-40.0,71.0,-1.0,1
-243.0,72.0,-71.0,-38.0,73.0,-3.0,1
-245.0,72.0,-65.0,-37.0,72.0,-3.0,1
-242.0,72.0,-70.0,-37.0,71.0,-4.0,1
-243.0,71.0,-65.0,-35.0,71.0,-3.0,1
-243.0,71.0,-66.0,-34.0,70.0,-2.0,1
-243.0,74.0,-68.0,-34.0,69.0,-2.0,1
-241.0,72.0,-67.0,-34.0,69.0,-4.0,1
-244.0,72.0,-67.0,-32.0,69.0,-3.0,1
-241.0,70.0,-68.0,-30.0,69.0,-2.0,1
-241.0,73.0,-67.0,-28.0,68.0,-3.0,1
-243.0,74.0,-66.0,-27.0,70.0,-3.0,1
-243.0,70.0,-65.0,-29.0,72.0,-2.0,1
-242.0,71.0,-66.0,-30.0,73.0,-2.0,1
-244.0,73.0,-68.0,-31.0,71.0,-2.0,1
-245.0,73.0,-67.0,-30.0,69.0,0.0,1
-241.0,72.0,-65.0,-29.0,68.0,-1.0,1
-244.0,71.0,-64.0,-28.0,67.0,-1.0,1
-247.0,74.0,-68.0,-29.0,66.0,-2.0,1
-244.0,72.0,-67.0,-27.0,66.0,-2.0,1
-244.0,72.0,-66.0,-24.0,67.0,-3.0,1
-249.0,72.0,-70.0,-24.0,67.0,-2.0,1
-242.0,71.0,-66.0,-23.0,68.0,-3.0,1
-244.0,73.0,-65.0,-21.0,68.0,-1.0,1
-244.0,72.0,-66.0,-21.0,68.0,-2.0,1
-243.0,69.0,-64.0,-21.0,68.0,-1.0,1
-242.0,73.0,-64.0,-21.0,69.0,-1.0,1
-239.0,72.0,-67.0,-22.0,69.0,0.0,1
-243.0,72.0,-67.0,-23.0,70.0,-2.0,1
-244.0,74.0,-65.0,-23.0,70.0,-2.0,1
-242.0,74.0,-67.0,-22.0,69.0,-1.0,1
-243.0,71.0,-68.0,-21.0,68.0,-1.0,1
-243.0,71.0,-66.0,-20.0,69.0,0.0,1
-244.0,72.0,-66.0,-20.0,68.0,-2.0,1
-243.0,72.0,-62.0,-20.0,67.0,-1.0,1
-241.0,72.0,-71.0,-19.0,66.0,-1.0,1
-242.0,75.0,-63.0,-18.0,66.0,-2.0,1
-241.0,69.0,-66.0,-18.0,64.0,-2.0,1
-240.0,70.0,-68.0,-17.0,65.0,-3.0,1
-239.0,73.0,-61.0,-17.0,65.0,-2.0,1
-241.0,71.0,-67.0,-16.0,65.0,-2.0,1
-243.0,72.0,-66.0,-16.0,67.0,-3.0,1
-245.0,73.0,-69.0,-15.0,67.0,-3.0,1
-244.0,71.0,-69.0,-14.0,68.0,-2.0,1
-243.0,73.0,-66.0,-12.0,69.0,-4.0,1
-242.0,72.0,-65.0,-11.0,68.0,-3.0,1
-243.0,75.0,-65.0,-11.0,68.0,-4.0,1
-242.0,72.0,-67.0,-10.0,70.0,-4.0,1
-245.0,72.0,-67.0,-10.0,69.0,-3.0,1
-240.0,71.0,-65.0,-10.0,68.0,-3.0,1
-245.0,73.0,-67.0,-12.0,67.0,-3.0,1
-243.0,72.0,-65.0,-12.0,66.0,-3.0,1
-242.0,71.0,-66.0,-12.0,68.0,-1.0,1
-242.0,71.0,-67.0,-13.0,69.0,-2.0,1
-243.0,74.0,-64.0,-13.0,68.0,-2.0,1
-242.0,72.0,-64.0,-11.0,68.0,-3.0,1
-245.0,72.0,-67.0,-10.0,70.0,-3.0,1
-240.0,71.0,-69.0,-9.0,72.0,-2.0,1
-243.0,71.0,-66.0,-6.0,71.0,-2.0,1
-245.0,72.0,-65.0,-7.0,70.0,-2.0,1
-246.0,72.0,-66.0,-6.0,70.0,-1.0,1
-243.0,72.0,-67.0,-6.0,70.0,0.0,1
-245.0,72.0,-64.0,-7.0,69.0,0.0,1
-243.0,72.0,-69.0,-7.0,69.0,-1.0,1
-242.0,74.0,-66.0,-7.0,68.0,-1.0,1
-243.0,78.0,-68.0,-9.0,68.0,-1.0,1
-242.0,72.0,-68.0,-11.0,65.0,-3.0,1
-240.0,70.0,-64.0,-9.0,65.0,-1.0,1
-242.0,72.0,-65.0,-9.0,64.0,-1.0,1
-244.0,71.0,-68.0,-5.0,64.0,-2.0,1
-243.0,73.0,-67.0,-1.0,65.0,-1.0,1
-245.0,72.0,-62.0,3.0,65.0,-2.0,1
-243.0,71.0,-70.0,4.0,65.0,-2.0,1
-241.0,73.0,-67.0,6.0,65.0,-4.0,1
-246.0,72.0,-66.0,10.0,62.0,-5.0,1
-245.0,72.0,-69.0,13.0,63.0,-6.0,1
-245.0,72.0,-66.0,15.0,62.0,-5.0,1
-245.0,72.0,-67.0,17.0,62.0,-6.0,1
-246.0,73.0,-69.0,17.0,61.0,-8.0,1
-246.0,71.0,-68.0,18.0,63.0,-7.0,1
-244.0,71.0,-69.0,19.0,64.0,-5.0,1
-245.0,72.0,-68.0,21.0,65.0,-8.0,1
-245.0,71.0,-66.0,24.0,65.0,-7.0,1
-241.0,73.0,-67.0,29.0,63.0,-7.0,1
-243.0,71.0,-67.0,30.0,63.0,-5.0,1
-244.0,70.0,-65.0,32.0,64.0,-6.0,1
-242.0,72.0,-65.0,30.0,63.0,-6.0,1
-241.0,72.0,-63.0,25.0,63.0,-5.0,1
-241.0,72.0,-65.0,22.0,62.0,-3.0,1
-244.0,70.0,-65.0,20.0,60.0,-2.0,1
-243.0,71.0,-66.0,20.0,60.0,-2.0,1
-243.0,71.0,-66.0,19.0,57.0,-1.0,1
-245.0,72.0,-65.0,17.0,60.0,0.0,1
-245.0,70.0,-65.0,18.0,61.0,2.0,1
-243.0,72.0,-67.0,16.0,64.0,3.0,1
-244.0,73.0,-68.0,16.0,66.0,1.0,1
-241.0,71.0,-67.0,15.0,68.0,1.0,1
-243.0,72.0,-66.0,15.0,67.0,1.0,1
-245.0,73.0,-66.0,14.0,66.0,2.0,1
-246.0,72.0,-69.0,12.0,64.0,1.0,1
-242.0,71.0,-66.0,10.0,61.0,0.0,1
-243.0,72.0,-67.0,11.0,58.0,-2.0,1
-240.0,72.0,-68.0,13.0,56.0,-2.0,1
-242.0,71.0,-69.0,14.0,56.0,-1.0,1
-241.0,71.0,-66.0,18.0,55.0,-3.0,1
-245.0,71.0,-65.0,21.0,54.0,-2.0,1
-244.0,73.0,-64.0,21.0,55.0,-2.0,1
-242.0,70.0,-68.0,20.0,56.0,-2.0,1
-240.0,71.0,-74.0,19.0,59.0,-2.0,1
-243.0,71.0,-66.0,19.0,60.0,-3.0,1
-242.0,71.0,-68.0,17.0,61.0,-3.0,1
-245.0,72.0,-65.0,15.0,62.0,-3.0,1
-244.0,72.0,-69.0,15.0,64.0,-4.0,1
-243.0,74.0,-65.0,15.0,65.0,-5.0,1
-243.0,72.0,-67.0,17.0,64.0,-5.0,1
-241.0,73.0,-66.0,18.0,64.0,-5.0,1
-246.0,74.0,-66.0,19.0,63.0,-5.0,1
-246.0,71.0,-61.0,20.0,65.0,-6.0,1
-244.0,73.0,-67.0,22.0,63.0,-7.0,1
-240.0,71.0,-46.0,21.0,63.0,-7.0,1
-243.0,72.0,-63.0,19.0,62.0,-6.0,1
-242.0,69.0,-67.0,16.0,63.0,-6.0,1
-243.0,70.0,-67.0,13.0,63.0,-6.0,1
-242.0,71.0,-66.0,10.0,64.0,-5.0,1
-242.0,71.0,-66.0,9.0,66.0,-5.0,1
-245.0,73.0,-67.0,8.0,68.0,-6.0,1
-243.0,71.0,-67.0,7.0,69.0,-6.0,1
-244.0,71.0,-64.0,7.0,70.0,-5.0,1
-243.0,72.0,-70.0,8.0,70.0,-6.0,1
-243.0,72.0,-69.0,9.0,70.0,-5.0,1
-242.0,72.0,-81.0,9.0,68.0,-5.0,1
-245.0,74.0,-67.0,13.0,67.0,-5.0,1
-243.0,74.0,-67.0,15.0,67.0,-4.0,1
-246.0,74.0,-67.0,17.0,66.0,-4.0,1
-244.0,71.0,-68.0,19.0,64.0,-6.0,1
-243.0,71.0,-67.0,17.0,61.0,-4.0,1
-242.0,73.0,-67.0,15.0,58.0,-7.0,1
-244.0,73.0,-69.0,12.0,58.0,-7.0,1
-244.0,72.0,-68.0,13.0,58.0,-7.0,1
-242.0,70.0,-69.0,13.0,58.0,-5.0,1
-240.0,71.0,-68.0,12.0,58.0,-4.0,1
-244.0,69.0,-69.0,17.0,60.0,-3.0,1
-243.0,70.0,-63.0,19.0,60.0,-4.0,1
-239.0,71.0,-65.0,18.0,58.0,-5.0,1
-241.0,70.0,-71.0,18.0,58.0,-4.0,1
-243.0,67.0,-66.0,21.0,60.0,-2.0,1
-243.0,72.0,-62.0,21.0,61.0,-3.0,1
-242.0,71.0,-67.0,21.0,62.0,-1.0,1
-246.0,73.0,-68.0,18.0,63.0,-2.0,1
-242.0,72.0,-62.0,13.0,65.0,0.0,1
-243.0,70.0,-67.0,11.0,65.0,-1.0,1
-242.0,71.0,-66.0,8.0,66.0,-1.0,1
-239.0,75.0,-60.0,6.0,66.0,-1.0,1
-241.0,71.0,-69.0,5.0,69.0,1.0,1
-243.0,69.0,-63.0,2.0,70.0,1.0,1
-241.0,69.0,-68.0,1.0,72.0,2.0,1
-242.0,69.0,-67.0,2.0,72.0,1.0,1
-244.0,70.0,-68.0,3.0,71.0,1.0,1
-244.0,69.0,-69.0,6.0,69.0,1.0,1
-244.0,70.0,-70.0,9.0,68.0,0.0,1
-243.0,73.0,-65.0,10.0,65.0,0.0,1
-243.0,70.0,-69.0,12.0,63.0,0.0,1
-245.0,72.0,-65.0,13.0,61.0,0.0,1
-243.0,71.0,-69.0,12.0,60.0,0.0,1
-243.0,71.0,-65.0,12.0,57.0,0.0,1
-245.0,71.0,-67.0,14.0,55.0,-2.0,1
-241.0,71.0,-65.0,15.0,55.0,-2.0,1
-245.0,72.0,-63.0,13.0,54.0,-3.0,1
-242.0,72.0,-68.0,13.0,57.0,-3.0,1
-246.0,71.0,-68.0,12.0,57.0,-4.0,1
-243.0,72.0,-70.0,15.0,59.0,-6.0,1
-245.0,72.0,-65.0,18.0,63.0,-5.0,1
-245.0,71.0,-67.0,16.0,64.0,-5.0,1
-240.0,71.0,-62.0,16.0,65.0,-4.0,1
-243.0,72.0,-67.0,16.0,64.0,-6.0,1
-242.0,72.0,-65.0,13.0,66.0,-4.0,1
-242.0,69.0,-67.0,11.0,64.0,-5.0,1
-241.0,71.0,-66.0,9.0,63.0,-5.0,1
-242.0,70.0,-67.0,8.0,62.0,-6.0,1
-245.0,71.0,-65.0,7.0,60.0,-4.0,1
-243.0,71.0,-67.0,6.0,61.0,-6.0,1
-244.0,70.0,-63.0,7.0,59.0,-5.0,1
-244.0,72.0,-69.0,5.0,58.0,-6.0,1
-243.0,69.0,-65.0,5.0,56.0,-5.0,1
-241.0,71.0,-66.0,5.0,56.0,-6.0,1
-245.0,72.0,-68.0,5.0,58.0,-7.0,1
-242.0,72.0,-64.0,3.0,57.0,-6.0,1
-243.0,70.0,-65.0,2.0,59.0,-6.0,1
-245.0,72.0,-68.0,2.0,60.0,-6.0,1
-241.0,72.0,-67.0,1.0,63.0,-6.0,1
-243.0,69.0,-66.0,2.0,65.0,-6.0,1
-242.0,72.0,-63.0,0.0,66.0,-4.0,1
-244.0,72.0,-63.0,-1.0,67.0,-5.0,1
-244.0,73.0,-66.0,-1.0,65.0,-4.0,1
-242.0,72.0,-67.0,-1.0,65.0,-3.0,1
-240.0,67.0,-62.0,-2.0,64.0,-4.0,1
-245.0,69.0,-67.0,0.0,63.0,-4.0,1
-245.0,72.0,-66.0,1.0,62.0,-4.0,1
-243.0,70.0,-67.0,2.0,60.0,-5.0,1
-242.0,72.0,-67.0,3.0,59.0,-4.0,1
-242.0,72.0,-65.0,3.0,61.0,-5.0,1
-246.0,71.0,-68.0,4.0,62.0,-6.0,1
-244.0,72.0,-65.0,3.0,64.0,-5.0,1
-247.0,72.0,-65.0,1.0,64.0,-4.0,1
-245.0,73.0,-67.0,-2.0,65.0,-4.0,1
-243.0,68.0,-66.0,-4.0,68.0,-4.0,1
-244.0,72.0,-67.0,-6.0,68.0,-3.0,1
-241.0,69.0,-66.0,-6.0,67.0,-4.0,1
-242.0,71.0,-66.0,-5.0,68.0,-2.0,1
-242.0,69.0,-68.0,-4.0,65.0,-4.0,1
-243.0,71.0,-64.0,-3.0,65.0,-2.0,1
-244.0,71.0,-64.0,-3.0,64.0,-4.0,1
-242.0,69.0,-68.0,-2.0,62.0,-4.0,1
-245.0,72.0,-66.0,-2.0,60.0,-4.0,1
-244.0,73.0,-67.0,-2.0,60.0,-5.0,1
-240.0,70.0,-65.0,-2.0,60.0,-5.0,1
-242.0,69.0,-64.0,-2.0,58.0,-5.0,1
-241.0,71.0,-64.0,-3.0,59.0,-5.0,1
-246.0,70.0,-68.0,-4.0,60.0,-6.0,1
-244.0,70.0,-64.0,-6.0,60.0,-6.0,1
-242.0,70.0,-69.0,-8.0,62.0,-6.0,1
-244.0,71.0,-65.0,-9.0,64.0,-6.0,1
-243.0,72.0,-68.0,-9.0,64.0,-5.0,1
-240.0,71.0,-66.0,-7.0,66.0,-4.0,1
-246.0,71.0,-64.0,-7.0,67.0,-3.0,1
-242.0,71.0,-65.0,-6.0,66.0,-3.0,1
-241.0,71.0,-64.0,-6.0,65.0,-2.0,1
-242.0,72.0,-66.0,-6.0,65.0,-3.0,1
-244.0,71.0,-65.0,-6.0,64.0,-4.0,1
-240.0,71.0,-70.0,-6.0,64.0,-4.0,1
-244.0,71.0,-69.0,-7.0,63.0,-5.0,1
-243.0,70.0,-64.0,-6.0,62.0,-5.0,1
-242.0,69.0,-65.0,-5.0,60.0,-5.0,1
-245.0,71.0,-67.0,-4.0,60.0,-5.0,1
-240.0,69.0,-65.0,-4.0,63.0,-5.0,1
-242.0,70.0,-69.0,-5.0,63.0,-5.0,1
-243.0,70.0,-67.0,-7.0,62.0,-6.0,1
-246.0,71.0,-66.0,-7.0,63.0,-6.0,1
-244.0,71.0,-69.0,-6.0,63.0,-7.0,1
-243.0,72.0,-61.0,-5.0,63.0,-6.0,1
-241.0,71.0,-63.0,-4.0,64.0,-5.0,1
-244.0,71.0,-68.0,-5.0,65.0,-4.0,1
-241.0,71.0,-65.0,-5.0,65.0,-4.0,1
-243.0,71.0,-67.0,-4.0,63.0,-4.0,1
-242.0,71.0,-67.0,-3.0,61.0,-4.0,1
-242.0,73.0,-68.0,-3.0,61.0,-5.0,1
-246.0,71.0,-68.0,-2.0,62.0,-5.0,1
-244.0,73.0,-67.0,-3.0,61.0,-5.0,1
-241.0,70.0,-66.0,-3.0,61.0,-5.0,1
-244.0,70.0,-66.0,-3.0,61.0,-6.0,1
-242.0,70.0,-69.0,-3.0,61.0,-6.0,1
-242.0,70.0,-67.0,-1.0,62.0,-5.0,1
-244.0,71.0,-69.0,1.0,63.0,-6.0,1
-243.0,70.0,-65.0,5.0,63.0,-5.0,1
-244.0,72.0,-67.0,5.0,62.0,-6.0,1
-242.0,74.0,-68.0,3.0,64.0,-5.0,1
-246.0,72.0,-66.0,2.0,63.0,-5.0,1
-244.0,71.0,-66.0,2.0,62.0,-7.0,1
-243.0,72.0,-70.0,1.0,60.0,-7.0,1
-243.0,70.0,-66.0,-1.0,59.0,-9.0,1
-244.0,74.0,-63.0,-1.0,59.0,-7.0,1
-245.0,71.0,-59.0,-4.0,57.0,-6.0,1
-245.0,70.0,-67.0,-6.0,58.0,-7.0,1
-243.0,68.0,-63.0,-6.0,58.0,-6.0,1
-241.0,68.0,-64.0,-5.0,59.0,-6.0,1
-246.0,72.0,-65.0,-4.0,60.0,-6.0,1
-244.0,72.0,-66.0,-3.0,62.0,-4.0,1
-243.0,72.0,-65.0,-2.0,64.0,-5.0,1
-241.0,71.0,-64.0,-1.0,63.0,-5.0,1
-246.0,73.0,-69.0,-3.0,60.0,-7.0,1
-246.0,72.0,-67.0,-6.0,61.0,-3.0,1
-245.0,72.0,-63.0,-3.0,66.0,-4.0,1
-243.0,70.0,-67.0,-2.0,67.0,-4.0,1
-245.0,72.0,-64.0,-5.0,67.0,-3.0,1
-242.0,71.0,-66.0,-6.0,66.0,-3.0,1
-243.0,72.0,-66.0,-7.0,65.0,-1.0,1
-242.0,68.0,-64.0,-9.0,64.0,-1.0,1
-245.0,71.0,-66.0,-9.0,63.0,0.0,1
-245.0,72.0,-66.0,-8.0,63.0,-1.0,1
-244.0,73.0,-67.0,-6.0,63.0,-2.0,1
-245.0,71.0,-70.0,-8.0,67.0,-1.0,1
-244.0,70.0,-65.0,-6.0,66.0,-1.0,1
-249.0,62.0,-66.0,-7.0,67.0,-1.0,1
-244.0,71.0,-67.0,-6.0,69.0,-3.0,1
-245.0,73.0,-65.0,-6.0,70.0,-3.0,1
-242.0,71.0,-67.0,-4.0,69.0,-3.0,1
-244.0,70.0,-64.0,-4.0,67.0,-3.0,1
-248.0,71.0,-67.0,-3.0,66.0,-4.0,1
-243.0,71.0,-69.0,-2.0,65.0,-4.0,1
-248.0,72.0,-64.0,3.0,63.0,-4.0,1
-244.0,71.0,-66.0,5.0,61.0,-4.0,1
-242.0,68.0,-68.0,8.0,62.0,-5.0,1
-241.0,64.0,-65.0,10.0,61.0,-5.0,1
-242.0,68.0,-68.0,18.0,64.0,-5.0,1
-242.0,70.0,-67.0,19.0,63.0,-5.0,1
-243.0,72.0,-63.0,17.0,65.0,-5.0,1
-245.0,70.0,-62.0,14.0,66.0,-6.0,1
-244.0,72.0,-66.0,11.0,65.0,-5.0,1
-244.0,70.0,-64.0,7.0,66.0,-4.0,1
-242.0,70.0,-66.0,4.0,64.0,-4.0,1
-242.0,67.0,-65.0,3.0,62.0,-3.0,1
-241.0,69.0,-68.0,7.0,62.0,-3.0,1
-245.0,71.0,-69.0,8.0,60.0,-4.0,1
-244.0,70.0,-68.0,9.0,61.0,-4.0,1
-241.0,70.0,-66.0,9.0,59.0,-5.0,1
-246.0,72.0,-66.0,7.0,58.0,-7.0,1
-245.0,72.0,-63.0,7.0,59.0,-6.0,1
-246.0,71.0,-66.0,6.0,63.0,-5.0,1
-242.0,70.0,-65.0,2.0,65.0,-4.0,1
-244.0,70.0,-63.0,2.0,65.0,-4.0,1
-244.0,69.0,-67.0,0.0,65.0,-6.0,1
-241.0,71.0,-69.0,1.0,63.0,-6.0,1
-244.0,71.0,-70.0,2.0,62.0,-5.0,1
-243.0,71.0,-66.0,5.0,59.0,-4.0,1
-243.0,68.0,-68.0,8.0,56.0,-5.0,1
-244.0,69.0,-69.0,11.0,55.0,-5.0,1
-245.0,72.0,-69.0,15.0,55.0,-6.0,1
-244.0,72.0,-71.0,18.0,53.0,-7.0,1
-244.0,69.0,-65.0,21.0,53.0,-8.0,1
-245.0,71.0,-66.0,18.0,52.0,-10.0,1
-243.0,71.0,-68.0,15.0,54.0,-10.0,1
-245.0,73.0,-66.0,13.0,53.0,-11.0,1
-244.0,73.0,-69.0,10.0,50.0,-15.0,1
-245.0,71.0,-65.0,6.0,50.0,-14.0,1
-244.0,72.0,-68.0,6.0,53.0,-12.0,1
-241.0,69.0,-68.0,4.0,58.0,-9.0,1
-243.0,75.0,-65.0,4.0,62.0,-8.0,1
-244.0,71.0,-65.0,4.0,63.0,-6.0,1
-247.0,71.0,-63.0,6.0,64.0,-4.0,1
-245.0,68.0,-67.0,8.0,64.0,-3.0,1
-242.0,72.0,-64.0,7.0,65.0,-5.0,1
-247.0,70.0,-64.0,5.0,65.0,-5.0,1
-247.0,73.0,-65.0,4.0,65.0,-5.0,1
-242.0,71.0,-67.0,1.0,65.0,-5.0,1
-241.0,72.0,-65.0,0.0,64.0,-4.0,1
-245.0,70.0,-69.0,-2.0,62.0,-5.0,1
-244.0,71.0,-69.0,-3.0,62.0,-5.0,1
-247.0,69.0,-64.0,-3.0,62.0,-7.0,1
-243.0,70.0,-67.0,-4.0,64.0,-5.0,1
-242.0,70.0,-65.0,-6.0,63.0,-5.0,1
-246.0,71.0,-69.0,-8.0,64.0,-5.0,1
-242.0,68.0,-66.0,-7.0,68.0,-4.0,1
-246.0,69.0,-64.0,-5.0,69.0,-6.0,1
-244.0,69.0,-66.0,-4.0,71.0,-3.0,1
-245.0,71.0,-67.0,-5.0,69.0,-5.0,1
-240.0,70.0,-64.0,-7.0,68.0,-4.0,1
-241.0,70.0,-65.0,-10.0,66.0,-2.0,1
-241.0,70.0,-64.0,-11.0,64.0,-3.0,1
-244.0,65.0,-63.0,-14.0,63.0,-2.0,1
-244.0,69.0,-64.0,-13.0,61.0,-4.0,1
-244.0,71.0,-67.0,-13.0,61.0,-5.0,1
-245.0,71.0,-66.0,-14.0,63.0,-5.0,1
-243.0,67.0,-66.0,-14.0,62.0,-6.0,1
-242.0,72.0,-66.0,-14.0,63.0,-7.0,1
-246.0,71.0,-67.0,-11.0,65.0,-6.0,1
-239.0,68.0,-64.0,-10.0,66.0,-6.0,1
-245.0,71.0,-64.0,-9.0,68.0,-5.0,1
-245.0,70.0,-66.0,-10.0,69.0,-5.0,1
-241.0,70.0,-64.0,-11.0,72.0,-4.0,1
-243.0,69.0,-61.0,-14.0,73.0,-4.0,1
-242.0,65.0,-63.0,-16.0,73.0,-2.0,1
-244.0,70.0,-64.0,-20.0,74.0,-2.0,1
-241.0,68.0,-65.0,-22.0,75.0,-1.0,1
-244.0,66.0,-64.0,-24.0,77.0,-1.0,1
-244.0,70.0,-64.0,-25.0,76.0,1.0,1
-242.0,71.0,-65.0,-25.0,78.0,0.0,1
-246.0,72.0,-65.0,-26.0,79.0,1.0,1
-243.0,70.0,-63.0,-25.0,78.0,1.0,1
-244.0,71.0,-67.0,-24.0,77.0,1.0,1
-243.0,68.0,-69.0,-22.0,74.0,0.0,1
-242.0,69.0,-63.0,-21.0,73.0,1.0,1
-242.0,71.0,-68.0,-20.0,71.0,-1.0,1
-244.0,71.0,-68.0,-20.0,70.0,-1.0,1
-244.0,66.0,-66.0,-20.0,68.0,-2.0,1
-246.0,71.0,-66.0,-22.0,69.0,-1.0,1
-245.0,70.0,-65.0,-23.0,70.0,0.0,1
-246.0,72.0,-63.0,-24.0,73.0,-1.0,1
-245.0,70.0,-63.0,-26.0,74.0,-1.0,1
-246.0,71.0,-64.0,-27.0,74.0,0.0,1
-244.0,70.0,-66.0,-29.0,76.0,-2.0,1
-244.0,72.0,-66.0,-30.0,77.0,-2.0,1
-244.0,72.0,-68.0,-30.0,76.0,-2.0,1
-246.0,71.0,-65.0,-31.0,77.0,-3.0,1
-243.0,69.0,-68.0,-30.0,77.0,-4.0,1
-243.0,70.0,-65.0,-30.0,76.0,-4.0,1
-242.0,69.0,-69.0,-28.0,73.0,-4.0,1
-246.0,70.0,-66.0,-29.0,72.0,-6.0,1
-244.0,69.0,-65.0,-28.0,70.0,-6.0,1
-242.0,72.0,-65.0,-28.0,70.0,-5.0,1
-242.0,69.0,-69.0,-30.0,69.0,-5.0,1
-242.0,70.0,-66.0,-30.0,68.0,-5.0,1
-245.0,72.0,-64.0,-30.0,68.0,-4.0,1
-244.0,71.0,-64.0,-33.0,69.0,-4.0,1
-244.0,69.0,-65.0,-37.0,70.0,-3.0,1
-241.0,68.0,-62.0,-41.0,72.0,-2.0,1
-243.0,71.0,-68.0,-45.0,72.0,-2.0,1
-243.0,70.0,-64.0,-46.0,73.0,-2.0,1
-245.0,71.0,-66.0,-47.0,73.0,-3.0,1
-245.0,71.0,-64.0,-50.0,72.0,-2.0,1
-242.0,67.0,-68.0,-49.0,71.0,-3.0,1
-244.0,68.0,-64.0,-51.0,71.0,-2.0,1
-242.0,70.0,-65.0,-52.0,71.0,-2.0,1
-245.0,70.0,-66.0,-52.0,69.0,-2.0,1
-242.0,68.0,-65.0,-51.0,68.0,-3.0,1
-244.0,69.0,-64.0,-49.0,69.0,-2.0,1
-243.0,70.0,-64.0,-47.0,69.0,-1.0,1
-244.0,71.0,-63.0,-44.0,70.0,-1.0,1
-245.0,70.0,-66.0,-44.0,69.0,-1.0,1
-243.0,72.0,-65.0,-43.0,68.0,1.0,1
-244.0,71.0,-65.0,-41.0,71.0,0.0,1
-241.0,70.0,-62.0,-40.0,72.0,3.0,1
-243.0,70.0,-64.0,-39.0,72.0,1.0,1
-243.0,72.0,-62.0,-41.0,73.0,1.0,1
-241.0,67.0,-63.0,-42.0,73.0,1.0,1
-241.0,70.0,-64.0,-43.0,74.0,0.0,1
-242.0,69.0,-62.0,-46.0,74.0,2.0,1
-243.0,68.0,-64.0,-49.0,74.0,1.0,1
-243.0,68.0,-65.0,-49.0,74.0,1.0,1
-242.0,70.0,-66.0,-49.0,76.0,0.0,1
-245.0,68.0,-67.0,-49.0,75.0,0.0,1
-248.0,70.0,-62.0,-48.0,74.0,1.0,1
-242.0,71.0,-64.0,-46.0,74.0,1.0,1
-245.0,68.0,-67.0,-47.0,75.0,1.0,1
-244.0,74.0,-63.0,-47.0,75.0,1.0,1
-247.0,72.0,-67.0,-47.0,77.0,2.0,1
-242.0,72.0,-63.0,-49.0,79.0,1.0,1
-243.0,70.0,-67.0,-49.0,79.0,1.0,1
-241.0,72.0,-67.0,-49.0,79.0,0.0,1
-243.0,71.0,-61.0,-51.0,78.0,1.0,1
-244.0,71.0,-66.0,-50.0,76.0,1.0,1
-246.0,71.0,-66.0,-51.0,77.0,1.0,1
-241.0,73.0,-66.0,-52.0,75.0,-1.0,1
-242.0,71.0,-65.0,-53.0,74.0,0.0,1
-244.0,72.0,-62.0,-52.0,74.0,0.0,1
-246.0,71.0,-63.0,-54.0,75.0,0.0,1
-245.0,71.0,-66.0,-54.0,77.0,1.0,1
-245.0,71.0,-66.0,-55.0,80.0,0.0,1
-243.0,71.0,-62.0,-55.0,81.0,-1.0,1
-240.0,70.0,-68.0,-56.0,82.0,0.0,1
-246.0,74.0,-65.0,-58.0,82.0,-1.0,1
-243.0,74.0,-67.0,-59.0,84.0,0.0,1
-244.0,73.0,-66.0,-61.0,83.0,-1.0,1
-239.0,70.0,-66.0,-60.0,82.0,-1.0,1
-245.0,72.0,-66.0,-60.0,80.0,-1.0,1
-244.0,72.0,-62.0,-58.0,79.0,-2.0,1
-243.0,69.0,-64.0,-58.0,77.0,-3.0,1
-245.0,71.0,-63.0,-57.0,76.0,-4.0,1
-242.0,70.0,-66.0,-59.0,76.0,-2.0,1
-244.0,71.0,-62.0,-58.0,78.0,-3.0,1
-246.0,71.0,-64.0,-56.0,79.0,-4.0,1
-244.0,72.0,-64.0,-57.0,79.0,-5.0,1
-246.0,74.0,-69.0,-56.0,80.0,-5.0,1
-241.0,72.0,-71.0,-55.0,80.0,-6.0,1
-244.0,72.0,-64.0,-55.0,78.0,-7.0,1
-243.0,72.0,-68.0,-55.0,78.0,-6.0,1
-243.0,73.0,-68.0,-52.0,79.0,-7.0,1
-242.0,72.0,-70.0,-49.0,79.0,-6.0,1
-243.0,78.0,-72.0,-48.0,76.0,-7.0,1
-245.0,72.0,-68.0,-48.0,76.0,-9.0,1
-241.0,70.0,-68.0,-47.0,75.0,-9.0,1
-244.0,71.0,-67.0,-47.0,72.0,-8.0,1
-244.0,71.0,-67.0,-48.0,74.0,-7.0,1
-243.0,71.0,-64.0,-49.0,74.0,-7.0,1
-243.0,72.0,-66.0,-49.0,75.0,-7.0,1
-243.0,71.0,-65.0,-51.0,77.0,-6.0,1
-242.0,72.0,-66.0,-53.0,75.0,-5.0,1
-243.0,68.0,-66.0,-56.0,73.0,-5.0,1
-243.0,68.0,-63.0,-61.0,71.0,-2.0,1
-242.0,72.0,-67.0,-67.0,70.0,-3.0,1
-242.0,70.0,-65.0,-72.0,68.0,-1.0,1
-241.0,69.0,-63.0,-73.0,67.0,0.0,1
-242.0,70.0,-67.0,-74.0,69.0,1.0,1
-246.0,72.0,-66.0,-75.0,68.0,0.0,1
-242.0,70.0,-65.0,-76.0,69.0,-2.0,1
-244.0,72.0,-66.0,-74.0,69.0,-1.0,1
-245.0,72.0,-64.0,-71.0,71.0,1.0,1
-244.0,72.0,-65.0,-67.0,71.0,-1.0,1
-244.0,71.0,-62.0,-62.0,71.0,-1.0,1
-245.0,72.0,-65.0,-60.0,72.0,2.0,1
-241.0,74.0,-64.0,-56.0,75.0,0.0,1
-244.0,71.0,-70.0,-54.0,77.0,2.0,1
-245.0,71.0,-64.0,-52.0,78.0,2.0,1
-246.0,70.0,-67.0,-52.0,79.0,2.0,1
-240.0,71.0,-67.0,-53.0,80.0,4.0,1
-242.0,72.0,-65.0,-53.0,78.0,3.0,1
-244.0,72.0,-67.0,-51.0,77.0,2.0,1
-245.0,71.0,-64.0,-51.0,78.0,2.0,1
-243.0,70.0,-68.0,-50.0,77.0,2.0,1
-241.0,70.0,-63.0,-49.0,77.0,1.0,1
-244.0,72.0,-68.0,-48.0,77.0,-1.0,1
-244.0,72.0,-64.0,-48.0,75.0,-1.0,1
-243.0,71.0,-63.0,-46.0,75.0,-1.0,1
-242.0,71.0,-65.0,-43.0,76.0,0.0,1
-242.0,72.0,-64.0,-41.0,74.0,-1.0,1
-242.0,71.0,-63.0,-41.0,75.0,0.0,1
-243.0,71.0,-67.0,-43.0,76.0,0.0,1
-242.0,72.0,-63.0,-43.0,79.0,0.0,1
-246.0,74.0,-66.0,-44.0,78.0,1.0,1
-244.0,72.0,-64.0,-45.0,80.0,1.0,1
-244.0,71.0,-62.0,-46.0,81.0,-1.0,1
-245.0,72.0,-76.0,-50.0,80.0,0.0,1
-244.0,73.0,-63.0,-54.0,81.0,3.0,1
-240.0,71.0,-67.0,-58.0,79.0,1.0,1
-242.0,74.0,-66.0,-59.0,78.0,1.0,1
-244.0,72.0,-66.0,-59.0,78.0,0.0,1
-244.0,71.0,-65.0,-59.0,79.0,0.0,1
-244.0,71.0,-65.0,-55.0,78.0,0.0,1
-244.0,70.0,-65.0,-53.0,79.0,-1.0,1
-244.0,73.0,-69.0,-52.0,78.0,0.0,1
-244.0,74.0,-68.0,-51.0,75.0,0.0,1
-245.0,69.0,-69.0,-47.0,73.0,-2.0,1
-243.0,72.0,-69.0,-41.0,73.0,-3.0,1
-243.0,72.0,-69.0,-37.0,73.0,-4.0,1
-243.0,71.0,-68.0,-35.0,72.0,-5.0,1
-242.0,71.0,-64.0,-33.0,73.0,-5.0,1
-246.0,71.0,-65.0,-32.0,74.0,-5.0,1
-244.0,72.0,-64.0,-33.0,74.0,-6.0,1
-243.0,72.0,-63.0,-32.0,73.0,-6.0,1
-244.0,71.0,-65.0,-30.0,75.0,-6.0,1
-243.0,70.0,-66.0,-28.0,76.0,-9.0,1
-242.0,71.0,-62.0,-28.0,78.0,-7.0,1
-242.0,72.0,-62.0,-28.0,79.0,-5.0,1
-241.0,69.0,-65.0,-31.0,81.0,-3.0,1
-243.0,70.0,-67.0,-33.0,81.0,-3.0,1
-243.0,70.0,-63.0,-37.0,80.0,-2.0,1
-242.0,70.0,-69.0,-38.0,80.0,-1.0,1
-244.0,71.0,-69.0,-37.0,79.0,0.0,1
-244.0,72.0,-67.0,-35.0,77.0,1.0,1
-246.0,72.0,-66.0,-34.0,76.0,2.0,1
-242.0,70.0,-69.0,-32.0,75.0,2.0,1
-241.0,74.0,-68.0,-31.0,72.0,4.0,1
-244.0,72.0,-65.0,-30.0,74.0,4.0,1
-244.0,72.0,-68.0,-32.0,75.0,4.0,1
-243.0,72.0,-63.0,-35.0,75.0,3.0,1
-242.0,73.0,-63.0,-38.0,74.0,2.0,1
-243.0,71.0,-68.0,-38.0,73.0,3.0,1
-244.0,72.0,-64.0,-38.0,72.0,3.0,1
-245.0,72.0,-67.0,-35.0,70.0,3.0,1
-244.0,73.0,-66.0,-34.0,70.0,4.0,1
-243.0,73.0,-64.0,-31.0,67.0,3.0,1
-243.0,72.0,-68.0,-27.0,65.0,3.0,1
-247.0,73.0,-65.0,-23.0,64.0,1.0,1
-243.0,73.0,-64.0,-21.0,63.0,-1.0,1
-245.0,74.0,-68.0,-21.0,65.0,0.0,1
-252.0,67.0,-63.0,-22.0,65.0,-1.0,1
-245.0,71.0,-66.0,-23.0,67.0,-2.0,1
-243.0,72.0,-64.0,-21.0,68.0,-3.0,1
-246.0,74.0,-62.0,-21.0,69.0,-3.0,1
-243.0,71.0,-63.0,-20.0,71.0,-3.0,1
-243.0,73.0,-64.0,-19.0,71.0,-2.0,1
-243.0,73.0,-65.0,-17.0,72.0,-3.0,1
-244.0,71.0,-63.0,-15.0,72.0,-3.0,1
-242.0,71.0,-62.0,-15.0,74.0,-4.0,1
-243.0,73.0,-66.0,-13.0,73.0,-4.0,1
-246.0,72.0,-63.0,-11.0,72.0,-3.0,1
-244.0,72.0,-66.0,-10.0,71.0,-1.0,1
-243.0,71.0,-68.0,-10.0,67.0,-3.0,1
-243.0,72.0,-66.0,-10.0,67.0,-3.0,1
-248.0,74.0,-66.0,-8.0,67.0,-4.0,1
-240.0,71.0,-65.0,-10.0,67.0,-4.0,1
-242.0,71.0,-68.0,-10.0,67.0,-4.0,1
-241.0,70.0,-63.0,-10.0,67.0,-4.0,1
-243.0,72.0,-63.0,-8.0,69.0,-4.0,1
-242.0,70.0,-63.0,-7.0,69.0,-3.0,1
-244.0,75.0,-68.0,-7.0,69.0,-5.0,1
-243.0,72.0,-67.0,-5.0,68.0,-5.0,1
-242.0,73.0,-70.0,-4.0,68.0,-3.0,1
-243.0,71.0,-66.0,-1.0,66.0,-3.0,1
-244.0,72.0,-68.0,1.0,65.0,-3.0,1
-243.0,74.0,-67.0,2.0,64.0,-4.0,1
-243.0,72.0,-67.0,1.0,63.0,-4.0,1
-244.0,69.0,-63.0,1.0,64.0,-5.0,1
-244.0,72.0,-66.0,-1.0,63.0,-5.0,1
-246.0,74.0,-61.0,-1.0,63.0,-3.0,1
-243.0,72.0,-64.0,0.0,63.0,-3.0,1
-241.0,73.0,-68.0,2.0,60.0,-2.0,1
-241.0,72.0,-67.0,3.0,63.0,-3.0,1
-243.0,71.0,-69.0,6.0,64.0,-3.0,1
-244.0,72.0,-63.0,7.0,65.0,-3.0,1
-243.0,71.0,-65.0,8.0,64.0,-4.0,1
-245.0,72.0,-68.0,9.0,64.0,-2.0,1
-243.0,70.0,-65.0,11.0,64.0,-2.0,1
-245.0,73.0,-62.0,15.0,62.0,-2.0,1
-244.0,73.0,-65.0,13.0,61.0,0.0,1
-244.0,73.0,-63.0,13.0,60.0,-1.0,1
-245.0,71.0,-60.0,13.0,61.0,-1.0,1
-245.0,72.0,-59.0,11.0,61.0,-1.0,1
-241.0,79.0,-66.0,10.0,60.0,-1.0,1
-243.0,73.0,-67.0,8.0,61.0,-2.0,1
-243.0,69.0,-63.0,7.0,61.0,-3.0,1
-244.0,71.0,-63.0,9.0,61.0,-2.0,1
-247.0,73.0,-64.0,8.0,61.0,-2.0,1
-243.0,72.0,-66.0,9.0,60.0,-2.0,1
-243.0,70.0,-65.0,9.0,62.0,-1.0,1
-244.0,72.0,-65.0,8.0,63.0,-1.0,1
-243.0,72.0,-66.0,10.0,64.0,-1.0,1
-244.0,73.0,-66.0,11.0,64.0,-3.0,1
-248.0,69.0,-62.0,13.0,62.0,-2.0,1
-241.0,74.0,-66.0,12.0,62.0,-4.0,1
-243.0,72.0,-68.0,13.0,61.0,-4.0,1
-242.0,70.0,-67.0,13.0,61.0,-3.0,1
-242.0,71.0,-68.0,12.0,61.0,-2.0,1
-244.0,72.0,-63.0,14.0,62.0,-3.0,1
-245.0,71.0,-66.0,14.0,62.0,-3.0,1
-241.0,71.0,-62.0,13.0,63.0,-4.0,1
-243.0,70.0,-67.0,14.0,63.0,-4.0,1
-246.0,72.0,-64.0,15.0,64.0,-5.0,1
-243.0,71.0,-64.0,15.0,64.0,-5.0,1
-246.0,73.0,-62.0,18.0,65.0,-6.0,1
-241.0,71.0,-62.0,18.0,64.0,-5.0,1
-244.0,72.0,-65.0,19.0,64.0,-4.0,1
-242.0,72.0,-68.0,18.0,64.0,-4.0,1
-244.0,72.0,-68.0,18.0,64.0,-5.0,1
-241.0,72.0,-66.0,17.0,63.0,-5.0,1
-243.0,72.0,-63.0,15.0,61.0,-4.0,1
-244.0,73.0,-65.0,15.0,60.0,-4.0,1
-242.0,75.0,-66.0,15.0,60.0,-5.0,1
-243.0,73.0,-64.0,12.0,60.0,-5.0,1
-245.0,73.0,-64.0,12.0,59.0,-5.0,1
-243.0,70.0,-68.0,11.0,59.0,-6.0,1
-243.0,70.0,-64.0,11.0,58.0,-6.0,1
-241.0,70.0,-64.0,10.0,59.0,-6.0,1
-243.0,73.0,-65.0,10.0,61.0,-7.0,1
-242.0,72.0,-64.0,9.0,62.0,-6.0,1
-244.0,70.0,-67.0,9.0,63.0,-5.0,1
-242.0,74.0,-66.0,10.0,63.0,-6.0,1
-246.0,72.0,-63.0,9.0,65.0,-6.0,1
-244.0,72.0,-66.0,9.0,64.0,-6.0,1
-242.0,72.0,-65.0,10.0,63.0,-5.0,1
-246.0,72.0,-65.0,9.0,63.0,-4.0,1
-245.0,72.0,-67.0,9.0,63.0,-5.0,1
-244.0,65.0,-57.0,7.0,63.0,-4.0,1
-244.0,73.0,-63.0,8.0,63.0,-6.0,1
-242.0,72.0,-67.0,8.0,64.0,-6.0,1
-241.0,70.0,-63.0,9.0,64.0,-5.0,1
-244.0,73.0,-69.0,9.0,63.0,-5.0,1
-244.0,72.0,-64.0,11.0,64.0,-4.0,1
-244.0,72.0,-66.0,12.0,65.0,-5.0,1
-244.0,71.0,-65.0,12.0,66.0,-4.0,1
-246.0,73.0,-64.0,11.0,65.0,-2.0,1
-243.0,72.0,-66.0,11.0,66.0,-2.0,1
-242.0,68.0,-64.0,13.0,66.0,-4.0,1
-245.0,73.0,-68.0,15.0,66.0,-4.0,1
-244.0,73.0,-66.0,12.0,64.0,-2.0,1
-244.0,72.0,-69.0,12.0,64.0,-3.0,1
-244.0,73.0,-64.0,12.0,64.0,-2.0,1
-245.0,73.0,-62.0,11.0,64.0,-3.0,1
-244.0,72.0,-66.0,11.0,64.0,-2.0,1
-243.0,72.0,-67.0,12.0,63.0,-3.0,1
-242.0,72.0,-66.0,11.0,63.0,-3.0,1
-245.0,72.0,-67.0,13.0,61.0,-3.0,1
-242.0,71.0,-64.0,13.0,61.0,-4.0,1
-243.0,73.0,-64.0,14.0,61.0,-3.0,1
-244.0,72.0,-66.0,15.0,62.0,-2.0,1
-244.0,71.0,-65.0,14.0,63.0,-2.0,1
-244.0,72.0,-66.0,14.0,63.0,-3.0,1
-243.0,70.0,-66.0,14.0,64.0,-2.0,1
-243.0,71.0,-63.0,14.0,63.0,-2.0,1
-244.0,73.0,-64.0,16.0,63.0,-3.0,1
-243.0,69.0,-63.0,16.0,63.0,-2.0,1
-245.0,70.0,-64.0,16.0,63.0,-3.0,1
-240.0,70.0,-66.0,13.0,63.0,-3.0,1
-246.0,73.0,-67.0,11.0,62.0,-3.0,1
-243.0,72.0,-64.0,12.0,63.0,-4.0,1
-246.0,72.0,-71.0,12.0,62.0,-3.0,1
-242.0,71.0,-70.0,14.0,62.0,-3.0,1
-242.0,71.0,-63.0,14.0,62.0,-4.0,1
-242.0,70.0,-65.0,12.0,62.0,-3.0,1
-242.0,68.0,-65.0,12.0,62.0,-3.0,1
-243.0,72.0,-61.0,12.0,63.0,-2.0,1
-244.0,73.0,-67.0,13.0,64.0,-3.0,1
-244.0,71.0,-65.0,11.0,64.0,-1.0,1
-246.0,72.0,-68.0,10.0,64.0,-1.0,1
-244.0,71.0,-63.0,7.0,63.0,-1.0,1
-244.0,72.0,-63.0,6.0,60.0,-1.0,1
-243.0,76.0,-75.0,3.0,59.0,-3.0,1
-247.0,73.0,-67.0,2.0,59.0,-1.0,1
-245.0,74.0,-68.0,4.0,58.0,-2.0,1
-243.0,70.0,-66.0,6.0,56.0,-2.0,1
-244.0,71.0,-62.0,7.0,54.0,-3.0,1
-242.0,70.0,-66.0,10.0,55.0,-3.0,1
-243.0,71.0,-64.0,12.0,58.0,-4.0,1
-246.0,74.0,-64.0,14.0,59.0,-5.0,1
-245.0,71.0,-65.0,15.0,57.0,-6.0,1
-245.0,73.0,-68.0,16.0,57.0,-5.0,1
-250.0,69.0,-59.0,13.0,56.0,-5.0,1
-243.0,71.0,-68.0,13.0,57.0,-5.0,1
-242.0,72.0,-65.0,12.0,59.0,-6.0,1
-244.0,72.0,-64.0,15.0,62.0,-6.0,1
-244.0,71.0,-65.0,17.0,61.0,-8.0,1
-242.0,71.0,-67.0,19.0,61.0,-8.0,1
-241.0,70.0,-65.0,21.0,62.0,-9.0,1
-246.0,70.0,-70.0,27.0,60.0,-8.0,1
-244.0,70.0,-67.0,29.0,59.0,-9.0,1
-243.0,72.0,-66.0,27.0,62.0,-8.0,1
-245.0,68.0,-69.0,25.0,61.0,-8.0,1
-242.0,68.0,-67.0,23.0,65.0,-8.0,1
-243.0,72.0,-65.0,23.0,65.0,-7.0,1
-242.0,69.0,-62.0,22.0,68.0,-6.0,1
-241.0,68.0,-62.0,21.0,69.0,-5.0,1
-241.0,68.0,-65.0,16.0,69.0,-3.0,1
-244.0,72.0,-65.0,12.0,71.0,-2.0,1
-246.0,70.0,-64.0,13.0,71.0,0.0,1
-242.0,72.0,-69.0,13.0,72.0,1.0,1
-245.0,71.0,-70.0,14.0,73.0,2.0,1
-245.0,73.0,-66.0,17.0,75.0,3.0,1
-242.0,71.0,-65.0,18.0,71.0,2.0,1
-245.0,73.0,-67.0,16.0,68.0,2.0,1
-242.0,72.0,-68.0,13.0,65.0,1.0,1
-243.0,67.0,-65.0,12.0,62.0,0.0,1
-244.0,72.0,-64.0,16.0,61.0,1.0,1
-244.0,73.0,-67.0,17.0,59.0,0.0,1
-244.0,71.0,-70.0,18.0,57.0,-1.0,1
-246.0,73.0,-64.0,18.0,55.0,-1.0,1
-243.0,72.0,-62.0,18.0,53.0,0.0,1
-242.0,73.0,-67.0,22.0,55.0,0.0,1
-241.0,71.0,-64.0,23.0,57.0,0.0,1
-245.0,72.0,-65.0,25.0,59.0,-2.0,1
-247.0,76.0,-69.0,24.0,59.0,-3.0,1
-245.0,73.0,-63.0,25.0,62.0,-2.0,1
-244.0,71.0,-64.0,25.0,61.0,-1.0,1
-240.0,65.0,-66.0,23.0,60.0,-2.0,1
-243.0,71.0,-64.0,24.0,61.0,-2.0,1
-241.0,68.0,-65.0,22.0,60.0,-4.0,1
-245.0,71.0,-65.0,18.0,61.0,-4.0,1
-247.0,73.0,-66.0,18.0,60.0,-3.0,1
-241.0,70.0,-62.0,18.0,60.0,-4.0,1
-241.0,71.0,-64.0,16.0,59.0,-6.0,1
-241.0,67.0,-60.0,14.0,60.0,-7.0,1
-239.0,71.0,-64.0,14.0,62.0,-6.0,1
-241.0,70.0,-64.0,13.0,62.0,-5.0,1
-247.0,71.0,-65.0,12.0,61.0,-6.0,1
-242.0,72.0,-64.0,13.0,60.0,-6.0,1
-244.0,73.0,-65.0,12.0,61.0,-6.0,1
-242.0,72.0,-67.0,12.0,60.0,-8.0,1
-244.0,71.0,-69.0,12.0,60.0,-8.0,1
-241.0,71.0,-67.0,15.0,60.0,-8.0,1
-243.0,71.0,-66.0,16.0,59.0,-10.0,1
-243.0,71.0,-64.0,16.0,57.0,-9.0,1
