ax,ay,az,gx,gy,gz,label
16.0,-203.0,116.0,-26.0,5.0,-6.0,1
15.0,-200.0,113.0,-25.0,6.0,-5.0,1
15.0,-202.0,112.0,-21.0,9.0,-5.0,1
13.0,-201.0,116.0,-20.0,10.0,-5.0,1
14.0,-203.0,111.0,-20.0,10.0,-4.0,1
14.0,-202.0,115.0,-19.0,10.0,-3.0,1
14.0,-200.0,114.0,-20.0,11.0,-1.0,1
12.0,-200.0,115.0,-21.0,10.0,-2.0,1
16.0,-198.0,114.0,-24.0,12.0,-2.0,1
16.0,-202.0,114.0,-25.0,11.0,-2.0,1
13.0,-200.0,114.0,-26.0,13.0,-3.0,1
15.0,-202.0,114.0,-28.0,14.0,-3.0,1
15.0,-200.0,113.0,-29.0,13.0,-4.0,1
11.0,-203.0,114.0,-32.0,14.0,-5.0,1
11.0,-202.0,117.0,-32.0,15.0,-6.0,1
13.0,-202.0,110.0,-31.0,17.0,-7.0,1
15.0,-205.0,117.0,-32.0,18.0,-9.0,1
16.0,-201.0,112.0,-34.0,18.0,-10.0,1
14.0,-201.0,116.0,-34.0,18.0,-10.0,1
13.0,-202.0,113.0,-35.0,19.0,-13.0,1
14.0,-203.0,114.0,-34.0,19.0,-12.0,1
13.0,-205.0,117.0,-34.0,18.0,-11.0,1
15.0,-203.0,116.0,-36.0,19.0,-11.0,1
16.0,-204.0,114.0,-35.0,17.0,-11.0,1
15.0,-202.0,115.0,-36.0,17.0,-12.0,1
14.0,-204.0,121.0,-38.0,15.0,-12.0,1
13.0,-203.0,118.0,-38.0,15.0,-14.0,1
15.0,-203.0,112.0,-37.0,15.0,-13.0,1
16.0,-205.0,111.0,-31.0,16.0,-12.0,1
17.0,-206.0,114.0,-27.0,14.0,-12.0,1
15.0,-204.0,115.0,-20.0,15.0,-11.0,1
17.0,-205.0,117.0,-18.0,13.0,-10.0,1
13.0,-203.0,115.0,-16.0,12.0,-10.0,1
16.0,-201.0,112.0,-16.0,11.0,-10.0,1
16.0,-205.0,112.0,-17.0,11.0,-8.0,1
13.0,-200.0,112.0,-18.0,10.0,-9.0,1
14.0,-201.0,108.0,-24.0,9.0,-12.0,1
13.0,-202.0,112.0,-28.0,9.0,-11.0,1
15.0,-200.0,112.0,-29.0,9.0,-11.0,1
14.0,-199.0,113.0,-34.0,9.0,-12.0,1
15.0,-200.0,113.0,-39.0,9.0,-12.0,1
12.0,-200.0,116.0,-45.0,10.0,-13.0,1
14.0,-201.0,111.0,-51.0,11.0,-12.0,1
14.0,-199.0,113.0,-55.0,9.0,-10.0,1
15.0,-199.0,111.0,-59.0,8.0,-10.0,1
14.0,-201.0,112.0,-63.0,10.0,-10.0,1
13.0,-202.0,111.0,-66.0,10.0,-9.0,1
10.0,-201.0,111.0,-66.0,10.0,-8.0,1
15.0,-203.0,110.0,-66.0,11.0,-8.0,1
13.0,-202.0,113.0,-67.0,13.0,-6.0,1
15.0,-203.0,113.0,-67.0,15.0,-5.0,1
12.0,-204.0,115.0,-66.0,15.0,-4.0,1
14.0,-200.0,114.0,-64.0,15.0,-3.0,1
13.0,-203.0,108.0,-63.0,15.0,-4.0,1
15.0,-203.0,114.0,-60.0,15.0,-2.0,1
14.0,-203.0,115.0,-60.0,12.0,-1.0,1
14.0,-203.0,114.0,-59.0,12.0,0.0,1
18.0,-203.0,115.0,-58.0,11.0,-1.0,1
18.0,-202.0,114.0,-59.0,10.0,-2.0,1
15.0,-202.0,115.0,-58.0,8.0,-3.0,1
15.0,-202.0,113.0,-58.0,7.0,-3.0,1
17.0,-202.0,113.0,-57.0,8.0,-4.0,1
15.0,-202.0,114.0,-58.0,10.0,-6.0,1
18.0,-203.0,114.0,-60.0,11.0,-7.0,1
14.0,-201.0,114.0,-59.0,11.0,-8.0,1
14.0,-199.0,113.0,-61.0,12.0,-9.0,1
16.0,-201.0,118.0,-61.0,11.0,-10.0,1
16.0,-201.0,112.0,-62.0,11.0,-10.0,1
14.0,-203.0,116.0,-64.0,12.0,-9.0,1
15.0,-206.0,111.0,-63.0,10.0,-10.0,1
15.0,-203.0,114.0,-65.0,11.0,-9.0,1
14.0,-204.0,117.0,-65.0,11.0,-8.0,1
18.0,-205.0,115.0,-63.0,9.0,-9.0,1
17.0,-203.0,112.0,-61.0,9.0,-7.0,1
15.0,-208.0,114.0,-60.0,8.0,-8.0,1
18.0,-205.0,112.0,-60.0,7.0,-8.0,1
16.0,-204.0,108.0,-58.0,8.0,-8.0,1
16.0,-204.0,110.0,-57.0,8.0,-10.0,1
12.0,-203.0,108.0,-58.0,9.0,-10.0,1
16.0,-206.0,114.0,-59.0,11.0,-10.0,1
13.0,-204.0,109.0,-59.0,12.0,-12.0,1
14.0,-203.0,111.0,-62.0,13.0,-11.0,1
13.0,-204.0,110.0,-64.0,14.0,-11.0,1
14.0,-205.0,112.0,-67.0,12.0,-11.0,1
16.0,-207.0,111.0,-66.0,12.0,-12.0,1
14.0,-203.0,111.0,-66.0,12.0,-10.0,1
15.0,-205.0,113.0,-66.0,11.0,-9.0,1
14.0,-205.0,111.0,-68.0,11.0,-6.0,1
15.0,-206.0,115.0,-71.0,10.0,-4.0,1
15.0,-208.0,114.0,-69.0,11.0,-4.0,1
16.0,-207.0,112.0,-64.0,10.0,-3.0,1
17.0,-208.0,116.0,-62.0,9.0,-4.0,1
16.0,-205.0,112.0,-61.0,10.0,-5.0,1
14.0,-205.0,109.0,-63.0,7.0,-4.0,1
12.0,-204.0,112.0,-64.0,6.0,-3.0,1
17.0,-204.0,109.0,-66.0,5.0,-3.0,1
14.0,-204.0,112.0,-65.0,6.0,-3.0,1
19.0,-204.0,112.0,-64.0,8.0,-4.0,1
15.0,-206.0,107.0,-64.0,8.0,-5.0,1
18.0,-206.0,109.0,-61.0,9.0,-6.0,1
17.0,-202.0,114.0,-55.0,11.0,-5.0,1
19.0,-209.0,113.0,-51.0,12.0,-6.0,1
19.0,-205.0,110.0,-49.0,15.0,-9.0,1
15.0,-204.0,112.0,-44.0,16.0,-8.0,1
16.0,-206.0,114.0,-38.0,14.0,-7.0,1
14.0,-204.0,111.0,-30.0,11.0,-8.0,1
18.0,-206.0,113.0,-21.0,7.0,-7.0,1
17.0,-205.0,109.0,-11.0,3.0,-5.0,1
8.0,-211.0,113.0,-2.0,5.0,10.0,1
19.0,-207.0,110.0,6.0,1.0,15.0,1
21.0,-209.0,111.0,10.0,9.0,15.0,1
21.0,-208.0,111.0,10.0,13.0,24.0,1
17.0,-205.0,111.0,2.0,6.0,40.0,1
9.0,-196.0,98.0,-4.0,-3.0,49.0,1
2.0,-198.0,109.0,-5.0,-8.0,61.0,1
9.0,-202.0,111.0,-14.0,-10.0,73.0,1
12.0,-206.0,109.0,-33.0,-6.0,74.0,1
10.0,-205.0,110.0,-51.0,-4.0,76.0,1
14.0,-205.0,107.0,-71.0,-6.0,77.0,1
15.0,-203.0,109.0,-82.0,-13.0,74.0,1
17.0,-204.0,108.0,-81.0,-19.0,69.0,1
20.0,-203.0,113.0,-73.0,-23.0,60.0,1
23.0,-199.0,113.0,-62.0,-23.0,46.0,1
18.0,-201.0,115.0,-47.0,-16.0,30.0,1
14.0,-197.0,116.0,-32.0,-5.0,17.0,1
12.0,-201.0,112.0,-21.0,2.0,13.0,1
3.0,-200.0,111.0,-22.0,3.0,10.0,1
4.0,-202.0,113.0,-37.0,3.0,18.0,1
7.0,-199.0,115.0,-63.0,-1.0,29.0,1
19.0,-223.0,104.0,-115.0,-3.0,87.0,1
29.0,-209.0,117.0,-182.0,3.0,79.0,1
8.0,-211.0,113.0,-200.0,0.0,77.0,1
12.0,-204.0,98.0,-216.0,-35.0,113.0,1
34.0,-197.0,105.0,-249.0,-59.0,119.0,1
23.0,-198.0,117.0,-243.0,-37.0,89.0,1
16.0,-196.0,113.0,-208.0,-8.0,64.0,1
1.0,-203.0,120.0,-162.0,21.0,49.0,1
22.0,-212.0,116.0,-132.0,40.0,58.0,1
15.0,-215.0,112.0,-118.0,45.0,45.0,1
14.0,-213.0,115.0,-106.0,47.0,34.0,1
14.0,-206.0,106.0,-101.0,28.0,37.0,1
8.0,-206.0,103.0,-117.0,2.0,41.0,1
9.0,-202.0,111.0,-113.0,-4.0,39.0,1
12.0,-202.0,119.0,-99.0,3.0,23.0,1
15.0,-205.0,124.0,-71.0,21.0,13.0,1
8.0,-206.0,112.0,-43.0,35.0,7.0,1
9.0,-201.0,105.0,-39.0,33.0,8.0,1
2.0,-201.0,107.0,-55.0,31.0,18.0,1
4.0,-203.0,111.0,-67.0,28.0,27.0,1
8.0,-201.0,112.0,-66.0,26.0,38.0,1
15.0,-203.0,105.0,-68.0,22.0,30.0,1
7.0,-201.0,111.0,-68.0,23.0,25.0,1
13.0,-204.0,113.0,-61.0,22.0,31.0,1
-2.0,-198.0,111.0,-59.0,19.0,21.0,1
3.0,-204.0,111.0,-45.0,17.0,27.0,1
7.0,-203.0,107.0,-37.0,11.0,30.0,1
7.0,-205.0,112.0,-46.0,4.0,36.0,1
6.0,-207.0,107.0,-60.0,4.0,44.0,1
18.0,-206.0,108.0,-72.0,3.0,43.0,1
15.0,-206.0,107.0,-86.0,-2.0,39.0,1
15.0,-209.0,110.0,-90.0,-4.0,34.0,1
18.0,-210.0,110.0,-82.0,-4.0,32.0,1
18.0,-209.0,110.0,-69.0,-3.0,28.0,1
14.0,-210.0,113.0,-53.0,1.0,22.0,1
15.0,-207.0,110.0,-41.0,5.0,15.0,1
15.0,-208.0,107.0,-30.0,7.0,10.0,1
15.0,-207.0,111.0,-17.0,5.0,2.0,1
15.0,-209.0,112.0,-8.0,3.0,-4.0,1
14.0,-208.0,109.0,5.0,-1.0,-10.0,1
15.0,-209.0,112.0,18.0,-1.0,-16.0,1
15.0,-208.0,109.0,28.0,-3.0,-21.0,1
14.0,-206.0,109.0,34.0,-7.0,-27.0,1
17.0,-206.0,108.0,38.0,-8.0,-30.0,1
18.0,-206.0,107.0,42.0,-12.0,-31.0,1
16.0,-202.0,106.0,45.0,-15.0,-33.0,1
18.0,-201.0,107.0,44.0,-20.0,-36.0,1
18.0,-202.0,111.0,43.0,-22.0,-38.0,1
17.0,-198.0,110.0,46.0,-24.0,-39.0,1
17.0,-199.0,112.0,53.0,-25.0,-41.0,1
16.0,-200.0,122.0,60.0,-24.0,-44.0,1
15.0,-198.0,116.0,64.0,-24.0,-47.0,1
15.0,-198.0,118.0,65.0,-23.0,-45.0,1
13.0,-199.0,113.0,60.0,-23.0,-42.0,1
16.0,-199.0,112.0,53.0,-26.0,-38.0,1
11.0,-197.0,117.0,42.0,-28.0,-31.0,1
15.0,-201.0,114.0,27.0,-28.0,-25.0,1
15.0,-201.0,113.0,14.0,-28.0,-16.0,1
14.0,-202.0,114.0,5.0,-25.0,-7.0,1
14.0,-204.0,117.0,-3.0,-22.0,2.0,1
17.0,-203.0,115.0,-10.0,-19.0,11.0,1
15.0,-205.0,120.0,-16.0,-12.0,17.0,1
19.0,-206.0,122.0,-18.0,-10.0,22.0,1
17.0,-208.0,119.0,-17.0,-4.0,21.0,1
15.0,-204.0,119.0,-9.0,-2.0,21.0,1
15.0,-204.0,120.0,-3.0,-1.0,18.0,1
18.0,-205.0,117.0,3.0,1.0,13.0,1
19.0,-202.0,114.0,7.0,2.0,7.0,1
15.0,-201.0,114.0,8.0,4.0,1.0,1
17.0,-204.0,109.0,11.0,6.0,-7.0,1
14.0,-203.0,112.0,9.0,12.0,-15.0,1
14.0,-202.0,107.0,6.0,16.0,-22.0,1
11.0,-208.0,109.0,3.0,20.0,-31.0,1
16.0,-206.0,109.0,-4.0,22.0,-37.0,1
15.0,-203.0,109.0,-12.0,24.0,-44.0,1
16.0,-207.0,109.0,-19.0,26.0,-48.0,1
17.0,-205.0,114.0,-28.0,29.0,-50.0,1
16.0,-204.0,109.0,-36.0,31.0,-53.0,1
28.0,-205.0,116.0,-42.0,34.0,-60.0,1
22.0,-203.0,118.0,-32.0,49.0,-75.0,1
22.0,-204.0,116.0,-17.0,63.0,-79.0,1
17.0,-201.0,113.0,-1.0,68.0,-76.0,1
16.0,-199.0,116.0,11.0,72.0,-73.0,1
18.0,-200.0,116.0,13.0,74.0,-74.0,1
15.0,-196.0,115.0,13.0,77.0,-71.0,1
15.0,-201.0,111.0,9.0,78.0,-63.0,1
15.0,-199.0,110.0,0.0,82.0,-58.0,1
14.0,-196.0,112.0,-15.0,86.0,-48.0,1
12.0,-195.0,111.0,-35.0,89.0,-38.0,1
13.0,-198.0,111.0,-52.0,89.0,-27.0,1
10.0,-197.0,110.0,-68.0,88.0,-18.0,1
12.0,-201.0,107.0,-81.0,84.0,-10.0,1
7.0,-202.0,107.0,-95.0,80.0,-2.0,1
4.0,-208.0,113.0,-103.0,75.0,2.0,1
8.0,-206.0,109.0,-106.0,70.0,6.0,1
6.0,-208.0,111.0,-107.0,68.0,5.0,1
8.0,-205.0,112.0,-105.0,68.0,0.0,1
7.0,-207.0,112.0,-96.0,69.0,-8.0,1
7.0,-204.0,113.0,-87.0,70.0,-17.0,1
9.0,-205.0,115.0,-76.0,70.0,-25.0,1
11.0,-202.0,120.0,-67.0,70.0,-32.0,1
12.0,-205.0,114.0,-60.0,72.0,-37.0,1
10.0,-203.0,115.0,-51.0,73.0,-40.0,1
10.0,-201.0,119.0,-45.0,73.0,-43.0,1
13.0,-203.0,118.0,-40.0,75.0,-45.0,1
8.0,-201.0,112.0,-39.0,74.0,-44.0,1
12.0,-204.0,112.0,-38.0,73.0,-41.0,1
11.0,-199.0,112.0,-45.0,68.0,-35.0,1
11.0,-203.0,110.0,-52.0,63.0,-30.0,1
13.0,-204.0,114.0,-57.0,57.0,-23.0,1
13.0,-204.0,108.0,-62.0,51.0,-20.0,1
13.0,-202.0,113.0,-64.0,46.0,-11.0,1
10.0,-202.0,108.0,-65.0,40.0,-6.0,1
13.0,-204.0,110.0,-65.0,37.0,-2.0,1
10.0,-207.0,109.0,-64.0,37.0,3.0,1
5.0,-204.0,110.0,-58.0,35.0,6.0,1
10.0,-204.0,113.0,-56.0,35.0,10.0,1
11.0,-204.0,112.0,-51.0,37.0,10.0,1
9.0,-201.0,112.0,-48.0,38.0,9.0,1
12.0,-201.0,112.0,-48.0,41.0,8.0,1
13.0,-200.0,114.0,-48.0,42.0,9.0,1
10.0,-200.0,113.0,-52.0,41.0,8.0,1
12.0,-205.0,111.0,-51.0,41.0,5.0,1
11.0,-203.0,115.0,-53.0,38.0,4.0,1
12.0,-204.0,114.0,-52.0,36.0,2.0,1
12.0,-204.0,114.0,-53.0,35.0,-2.0,1
11.0,-203.0,115.0,-51.0,32.0,-4.0,1
16.0,-207.0,116.0,-52.0,28.0,-6.0,1
13.0,-207.0,118.0,-54.0,24.0,-7.0,1
14.0,-207.0,117.0,-53.0,20.0,-7.0,1
13.0,-205.0,115.0,-50.0,16.0,-8.0,1
13.0,-205.0,114.0,-45.0,10.0,-7.0,1
14.0,-208.0,108.0,-42.0,6.0,-6.0,1
15.0,-206.0,113.0,-38.0,2.0,-4.0,1
13.0,-208.0,109.0,-37.0,0.0,-3.0,1
15.0,-204.0,112.0,-33.0,-2.0,-3.0,1
15.0,-206.0,111.0,-30.0,-4.0,0.0,1
16.0,-204.0,109.0,-27.0,-5.0,2.0,1
15.0,-204.0,111.0,-24.0,-6.0,5.0,1
16.0,-204.0,108.0,-21.0,-7.0,7.0,1
13.0,-204.0,112.0,-20.0,-9.0,9.0,1
13.0,-203.0,111.0,-17.0,-9.0,10.0,1
14.0,-204.0,112.0,-16.0,-8.0,10.0,1
14.0,-203.0,112.0,-16.0,-9.0,12.0,1
11.0,-202.0,114.0,-18.0,-10.0,13.0,1
14.0,-206.0,112.0,-20.0,-11.0,13.0,1
11.0,-204.0,113.0,-24.0,-12.0,15.0,1
8.0,-202.0,114.0,-25.0,-13.0,14.0,1
15.0,-202.0,116.0,-30.0,-13.0,16.0,1
11.0,-200.0,111.0,-31.0,-16.0,15.0,1
13.0,-202.0,116.0,-35.0,-18.0,16.0,1
15.0,-203.0,111.0,-36.0,-19.0,16.0,1
13.0,-205.0,117.0,-37.0,-20.0,16.0,1
15.0,-200.0,111.0,-37.0,-21.0,16.0,1
12.0,-202.0,113.0,-40.0,-25.0,16.0,1
14.0,-200.0,115.0,-39.0,-26.0,18.0,1
13.0,-199.0,116.0,-38.0,-27.0,17.0,1
13.0,-199.0,112.0,-36.0,-27.0,18.0,1
15.0,-201.0,114.0,-33.0,-27.0,18.0,1
16.0,-199.0,117.0,-30.0,-27.0,18.0,1
15.0,-198.0,111.0,-28.0,-25.0,18.0,1
13.0,-201.0,117.0,-27.0,-26.0,18.0,1
14.0,-200.0,118.0,-26.0,-27.0,18.0,1
12.0,-200.0,118.0,-25.0,-29.0,18.0,1
10.0,-200.0,115.0,-27.0,-30.0,19.0,1
13.0,-204.0,116.0,-28.0,-31.0,20.0,1
14.0,-200.0,115.0,-31.0,-31.0,21.0,1
15.0,-199.0,113.0,-35.0,-33.0,21.0,1
13.0,-201.0,113.0,-36.0,-33.0,21.0,1
12.0,-203.0,119.0,-37.0,-31.0,23.0,1
14.0,-201.0,116.0,-39.0,-32.0,23.0,1
13.0,-201.0,116.0,-40.0,-32.0,25.0,1
13.0,-200.0,115.0,-44.0,-32.0,25.0,1
14.0,-203.0,117.0,-45.0,-32.0,25.0,1
13.0,-199.0,114.0,-48.0,-32.0,28.0,1
13.0,-200.0,117.0,-48.0,-33.0,30.0,1
12.0,-199.0,115.0,-49.0,-32.0,31.0,1
16.0,-199.0,116.0,-48.0,-30.0,32.0,1
15.0,-200.0,114.0,-48.0,-29.0,35.0,1
13.0,-202.0,114.0,-47.0,-27.0,36.0,1
13.0,-202.0,113.0,-51.0,-24.0,38.0,1
13.0,-207.0,113.0,-50.0,-23.0,38.0,1
16.0,-206.0,115.0,-52.0,-22.0,37.0,1
13.0,-204.0,114.0,-52.0,-22.0,35.0,1
12.0,-205.0,111.0,-55.0,-21.0,33.0,1
12.0,-204.0,113.0,-54.0,-21.0,30.0,1
14.0,-203.0,113.0,-54.0,-20.0,27.0,1
14.0,-205.0,114.0,-55.0,-21.0,24.0,1
14.0,-205.0,115.0,-56.0,-22.0,20.0,1
14.0,-204.0,113.0,-58.0,-22.0,17.0,1
15.0,-204.0,109.0,-57.0,-23.0,15.0,1
11.0,-203.0,111.0,-57.0,-21.0,13.0,1
14.0,-201.0,111.0,-54.0,-21.0,11.0,1
15.0,-204.0,111.0,-54.0,-18.0,12.0,1
15.0,-205.0,113.0,-54.0,-17.0,11.0,1
14.0,-203.0,116.0,-53.0,-15.0,10.0,1
13.0,-205.0,115.0,-53.0,-13.0,10.0,1
14.0,-205.0,115.0,-51.0,-11.0,9.0,1
11.0,-203.0,113.0,-51.0,-7.0,10.0,1
11.0,-201.0,114.0,-50.0,-4.0,10.0,1
12.0,-200.0,115.0,-50.0,-3.0,12.0,1
15.0,-203.0,114.0,-50.0,-1.0,10.0,1
14.0,-201.0,116.0,-49.0,2.0,11.0,1
13.0,-202.0,117.0,-49.0,1.0,13.0,1
14.0,-200.0,113.0,-52.0,3.0,14.0,1
14.0,-203.0,110.0,-54.0,3.0,13.0,1
15.0,-200.0,118.0,-59.0,3.0,14.0,1
13.0,-201.0,111.0,-62.0,5.0,13.0,1
14.0,-206.0,113.0,-65.0,4.0,12.0,1
12.0,-202.0,113.0,-67.0,5.0,10.0,1
11.0,-203.0,114.0,-70.0,5.0,7.0,1
8.0,-201.0,113.0,-71.0,6.0,6.0,1
11.0,-201.0,115.0,-73.0,6.0,4.0,1
14.0,-206.0,113.0,-73.0,8.0,1.0,1
14.0,-205.0,117.0,-74.0,8.0,-2.0,1
14.0,-205.0,109.0,-70.0,9.0,-6.0,1
13.0,-204.0,115.0,-67.0,10.0,-8.0,1
14.0,-203.0,113.0,-65.0,10.0,-11.0,1
16.0,-206.0,114.0,-65.0,12.0,-15.0,1
13.0,-205.0,114.0,-64.0,11.0,-15.0,1
14.0,-202.0,108.0,-64.0,10.0,-18.0,1
17.0,-203.0,113.0,-64.0,12.0,-18.0,1
15.0,-202.0,113.0,-64.0,11.0,-19.0,1
15.0,-199.0,110.0,-64.0,9.0,-18.0,1
11.0,-201.0,116.0,-64.0,10.0,-16.0,1
16.0,-206.0,106.0,-66.0,10.0,-16.0,1
16.0,-204.0,111.0,-65.0,11.0,-15.0,1
14.0,-203.0,110.0,-66.0,10.0,-12.0,1
13.0,-202.0,112.0,-67.0,12.0,-9.0,1
13.0,-201.0,112.0,-69.0,12.0,-8.0,1
14.0,-202.0,113.0,-72.0,14.0,-5.0,1
13.0,-202.0,115.0,-71.0,16.0,-2.0,1
13.0,-199.0,114.0,-72.0,14.0,-2.0,1
11.0,-201.0,116.0,-74.0,15.0,1.0,1
12.0,-200.0,115.0,-76.0,15.0,3.0,1
16.0,-202.0,115.0,-79.0,13.0,2.0,1
15.0,-201.0,116.0,-82.0,10.0,1.0,1
16.0,-205.0,113.0,-82.0,9.0,0.0,1
16.0,-202.0,112.0,-85.0,8.0,0.0,1
13.0,-202.0,110.0,-86.0,8.0,-2.0,1
19.0,-206.0,109.0,-86.0,8.0,-3.0,1
18.0,-204.0,111.0,-86.0,8.0,-4.0,1
19.0,-207.0,111.0,-85.0,8.0,-4.0,1
16.0,-205.0,111.0,-80.0,8.0,-7.0,1
21.0,-208.0,112.0,-78.0,8.0,-7.0,1
13.0,-211.0,117.0,-76.0,9.0,-7.0,1
16.0,-207.0,110.0,-74.0,8.0,-8.0,1
18.0,-207.0,112.0,-73.0,6.0,-10.0,1
16.0,-207.0,111.0,-75.0,6.0,-10.0,1
15.0,-208.0,113.0,-75.0,4.0,-9.0,1
14.0,-204.0,111.0,-73.0,2.0,-8.0,1
16.0,-204.0,113.0,-67.0,1.0,-6.0,1
17.0,-206.0,114.0,-64.0,-1.0,-5.0,1
14.0,-202.0,110.0,-62.0,-4.0,-6.0,1
15.0,-203.0,112.0,-60.0,-4.0,-3.0,1
12.0,-205.0,110.0,-57.0,-5.0,-2.0,1
22.0,-202.0,112.0,-56.0,-5.0,-1.0,1
15.0,-200.0,111.0,-56.0,-5.0,-2.0,1
13.0,-202.0,113.0,-57.0,-6.0,0.0,1
15.0,-204.0,113.0,-60.0,-5.0,1.0,1
13.0,-203.0,108.0,-64.0,-4.0,2.0,1
14.0,-202.0,115.0,-69.0,-4.0,3.0,1
15.0,-202.0,112.0,-71.0,-3.0,5.0,1
13.0,-205.0,114.0,-77.0,-2.0,7.0,1
14.0,-200.0,115.0,-79.0,-1.0,9.0,1
16.0,-202.0,111.0,-83.0,0.0,10.0,1
15.0,-202.0,116.0,-84.0,1.0,12.0,1
13.0,-202.0,114.0,-86.0,2.0,12.0,1
13.0,-204.0,115.0,-85.0,3.0,14.0,1
15.0,-205.0,113.0,-87.0,4.0,14.0,1
16.0,-204.0,113.0,-87.0,4.0,16.0,1
13.0,-200.0,114.0,-88.0,5.0,16.0,1
13.0,-203.0,111.0,-89.0,3.0,18.0,1
12.0,-199.0,113.0,-89.0,3.0,19.0,1
13.0,-204.0,114.0,-92.0,4.0,18.0,1
12.0,-201.0,113.0,-91.0,2.0,16.0,1
14.0,-204.0,112.0,-89.0,3.0,15.0,1
14.0,-202.0,113.0,-90.0,5.0,14.0,1
14.0,-200.0,108.0,-90.0,6.0,13.0,1
15.0,-202.0,115.0,-90.0,6.0,11.0,1
13.0,-200.0,112.0,-88.0,6.0,12.0,1
15.0,-201.0,114.0,-87.0,7.0,8.0,1
15.0,-202.0,107.0,-88.0,8.0,5.0,1
16.0,-202.0,113.0,-88.0,8.0,4.0,1
19.0,-204.0,109.0,-89.0,9.0,4.0,1
18.0,-205.0,107.0,-90.0,8.0,3.0,1
15.0,-202.0,111.0,-93.0,6.0,2.0,1
11.0,-204.0,113.0,-95.0,6.0,2.0,1
12.0,-204.0,112.0,-99.0,6.0,3.0,1
13.0,-205.0,112.0,-104.0,6.0,3.0,1
14.0,-205.0,112.0,-105.0,5.0,4.0,1
12.0,-205.0,113.0,-109.0,5.0,4.0,1
14.0,-206.0,111.0,-111.0,7.0,5.0,1
13.0,-207.0,110.0,-108.0,8.0,8.0,1
13.0,-207.0,115.0,-107.0,8.0,8.0,1
13.0,-211.0,110.0,-103.0,6.0,8.0,1
13.0,-207.0,115.0,-102.0,7.0,9.0,1
16.0,-212.0,113.0,-98.0,7.0,10.0,1
13.0,-208.0,111.0,-95.0,9.0,9.0,1
16.0,-210.0,110.0,-92.0,7.0,9.0,1
14.0,-205.0,111.0,-90.0,5.0,10.0,1
15.0,-207.0,105.0,-91.0,3.0,9.0,1
13.0,-209.0,112.0,-88.0,3.0,11.0,1
13.0,-207.0,106.0,-85.0,1.0,11.0,1
13.0,-207.0,111.0,-83.0,-2.0,14.0,1
15.0,-208.0,105.0,-84.0,-4.0,13.0,1
15.0,-204.0,111.0,-83.0,-3.0,13.0,1
15.0,-209.0,110.0,-84.0,-6.0,13.0,1
14.0,-207.0,109.0,-84.0,-6.0,12.0,1
13.0,-204.0,109.0,-85.0,-6.0,12.0,1
14.0,-208.0,103.0,-87.0,-4.0,11.0,1
16.0,-209.0,116.0,-88.0,-3.0,10.0,1
13.0,-206.0,109.0,-89.0,-2.0,9.0,1
12.0,-203.0,108.0,-91.0,-1.0,9.0,1
14.0,-207.0,108.0,-93.0,0.0,9.0,1
11.0,-210.0,110.0,-95.0,0.0,9.0,1
13.0,-207.0,108.0,-96.0,-1.0,10.0,1
13.0,-207.0,108.0,-98.0,-1.0,9.0,1
10.0,-207.0,109.0,-99.0,-2.0,12.0,1
11.0,-206.0,108.0,-102.0,-4.0,13.0,1
12.0,-207.0,109.0,-105.0,-4.0,15.0,1
11.0,-208.0,110.0,-107.0,-7.0,17.0,1
15.0,-208.0,103.0,-112.0,-5.0,18.0,1
15.0,-208.0,105.0,-114.0,-5.0,20.0,1
13.0,-208.0,105.0,-116.0,-5.0,21.0,1
12.0,-209.0,107.0,-117.0,-3.0,22.0,1
14.0,-205.0,104.0,-118.0,-3.0,23.0,1
14.0,-208.0,102.0,-118.0,-2.0,23.0,1
14.0,-206.0,107.0,-118.0,-1.0,21.0,1
12.0,-207.0,107.0,-116.0,-2.0,19.0,1
13.0,-205.0,108.0,-115.0,0.0,18.0,1
15.0,-205.0,102.0,-113.0,0.0,18.0,1
16.0,-208.0,107.0,-110.0,1.0,16.0,1
14.0,-216.0,113.0,-110.0,3.0,13.0,1
16.0,-203.0,110.0,-110.0,5.0,9.0,1
14.0,-208.0,106.0,-107.0,7.0,10.0,1
15.0,-207.0,109.0,-105.0,6.0,7.0,1
18.0,-207.0,109.0,-106.0,8.0,5.0,1
16.0,-209.0,110.0,-108.0,7.0,3.0,1
16.0,-205.0,109.0,-107.0,8.0,0.0,1
17.0,-210.0,110.0,-106.0,9.0,-3.0,1
16.0,-208.0,106.0,-107.0,9.0,-5.0,1
18.0,-207.0,109.0,-105.0,8.0,-6.0,1
16.0,-207.0,109.0,-106.0,10.0,-8.0,1
13.0,-207.0,111.0,-109.0,10.0,-9.0,1
12.0,-210.0,111.0,-112.0,12.0,-9.0,1
13.0,-205.0,108.0,-115.0,12.0,-8.0,1
9.0,-207.0,108.0,-117.0,12.0,-6.0,1
12.0,-208.0,107.0,-119.0,12.0,-6.0,1
10.0,-208.0,109.0,-121.0,15.0,-4.0,1
9.0,-205.0,107.0,-121.0,17.0,-4.0,1
10.0,-204.0,108.0,-120.0,18.0,-4.0,1
10.0,-206.0,101.0,-121.0,20.0,-2.0,1
12.0,-209.0,106.0,-122.0,19.0,-2.0,1
7.0,-208.0,104.0,-124.0,21.0,-1.0,1
7.0,-209.0,107.0,-121.0,20.0,-2.0,1
12.0,-209.0,107.0,-121.0,20.0,-2.0,1
14.0,-211.0,105.0,-120.0,18.0,-2.0,1
15.0,-211.0,105.0,-120.0,17.0,-3.0,1
16.0,-211.0,105.0,-121.0,15.0,-4.0,1
15.0,-210.0,104.0,-122.0,13.0,-5.0,1
16.0,-209.0,102.0,-123.0,10.0,-7.0,1
17.0,-213.0,106.0,-124.0,7.0,-8.0,1
18.0,-210.0,103.0,-124.0,3.0,-7.0,1
18.0,-216.0,102.0,-125.0,-1.0,-7.0,1
18.0,-214.0,106.0,-127.0,-6.0,-8.0,1
14.0,-216.0,103.0,-128.0,-11.0,-7.0,1
16.0,-216.0,101.0,-132.0,-15.0,-5.0,1
16.0,-214.0,98.0,-138.0,-18.0,0.0,1
14.0,-215.0,99.0,-145.0,-21.0,3.0,1
14.0,-218.0,100.0,-154.0,-21.0,4.0,1
16.0,-217.0,102.0,-158.0,-21.0,6.0,1
13.0,-215.0,102.0,-163.0,-17.0,7.0,1
14.0,-217.0,98.0,-163.0,-14.0,7.0,1
16.0,-212.0,98.0,-163.0,-8.0,8.0,1
14.0,-213.0,98.0,-161.0,-4.0,6.0,1
13.0,-213.0,100.0,-161.0,-1.0,6.0,1
9.0,-210.0,97.0,-157.0,3.0,5.0,1
13.0,-210.0,102.0,-155.0,8.0,5.0,1
13.0,-213.0,97.0,-151.0,10.0,5.0,1
14.0,-212.0,96.0,-153.0,11.0,4.0,1
14.0,-211.0,98.0,-151.0,13.0,4.0,1
13.0,-210.0,97.0,-153.0,14.0,4.0,1
14.0,-211.0,96.0,-152.0,14.0,3.0,1
13.0,-208.0,99.0,-156.0,13.0,2.0,1
13.0,-208.0,98.0,-160.0,12.0,0.0,1
13.0,-210.0,99.0,-165.0,10.0,-1.0,1
14.0,-209.0,98.0,-170.0,9.0,-2.0,1
15.0,-210.0,96.0,-174.0,6.0,-5.0,1
15.0,-212.0,103.0,-175.0,5.0,-5.0,1
16.0,-207.0,99.0,-178.0,5.0,-8.0,1
14.0,-208.0,99.0,-181.0,4.0,-9.0,1
15.0,-210.0,98.0,-180.0,3.0,-12.0,1
13.0,-210.0,104.0,-178.0,3.0,-13.0,1
14.0,-210.0,101.0,-175.0,5.0,-14.0,1
12.0,-211.0,105.0,-170.0,7.0,-15.0,1
12.0,-209.0,103.0,-166.0,8.0,-15.0,1
16.0,-209.0,100.0,-163.0,9.0,-15.0,1
17.0,-212.0,110.0,-160.0,12.0,-14.0,1
16.0,-208.0,106.0,-158.0,14.0,-14.0,1
14.0,-210.0,103.0,-152.0,16.0,-14.0,1
14.0,-208.0,100.0,-151.0,19.0,-14.0,1
15.0,-210.0,104.0,-149.0,21.0,-14.0,1
17.0,-208.0,102.0,-148.0,23.0,-12.0,1
13.0,-209.0,101.0,-148.0,24.0,-12.0,1
15.0,-206.0,105.0,-150.0,24.0,-11.0,1
14.0,-210.0,103.0,-151.0,23.0,-10.0,1
16.0,-208.0,103.0,-153.0,22.0,-10.0,1
16.0,-209.0,100.0,-159.0,21.0,-9.0,1
16.0,-211.0,105.0,-164.0,21.0,-9.0,1
16.0,-205.0,99.0,-166.0,21.0,-8.0,1
17.0,-212.0,99.0,-171.0,19.0,-10.0,1
16.0,-209.0,100.0,-176.0,16.0,-12.0,1
16.0,-209.0,99.0,-180.0,14.0,-11.0,1
18.0,-213.0,102.0,-188.0,14.0,-13.0,1
15.0,-213.0,100.0,-192.0,12.0,-12.0,1
15.0,-214.0,104.0,-195.0,9.0,-13.0,1
13.0,-215.0,100.0,-197.0,7.0,-13.0,1
11.0,-213.0,99.0,-200.0,5.0,-13.0,1
14.0,-216.0,102.0,-206.0,6.0,-16.0,1
20.0,-218.0,104.0,-211.0,4.0,-17.0,1
15.0,-218.0,98.0,-215.0,4.0,-18.0,1
13.0,-216.0,97.0,-215.0,8.0,-19.0,1
16.0,-220.0,99.0,-215.0,10.0,-20.0,1
13.0,-218.0,93.0,-214.0,9.0,-20.0,1
15.0,-216.0,94.0,-215.0,8.0,-21.0,1
14.0,-219.0,94.0,-217.0,8.0,-20.0,1
14.0,-217.0,93.0,-221.0,8.0,-20.0,1
13.0,-214.0,93.0,-226.0,7.0,-18.0,1
14.0,-216.0,89.0,-232.0,6.0,-16.0,1
17.0,-215.0,92.0,-239.0,5.0,-14.0,1
13.0,-214.0,94.0,-245.0,5.0,-11.0,1
13.0,-215.0,94.0,-246.0,4.0,-9.0,1
14.0,-218.0,92.0,-242.0,2.0,-7.0,1
14.0,-219.0,89.0,-233.0,0.0,-6.0,1
16.0,-218.0,90.0,-227.0,-1.0,-6.0,1
13.0,-217.0,87.0,-225.0,-2.0,-4.0,1
15.0,-219.0,85.0,-225.0,0.0,-1.0,1
16.0,-218.0,89.0,-224.0,-1.0,-1.0,1
15.0,-217.0,89.0,-221.0,0.0,0.0,1
14.0,-219.0,91.0,-219.0,1.0,1.0,1
13.0,-217.0,90.0,-218.0,1.0,1.0,1
16.0,-209.0,94.0,-219.0,1.0,1.0,1
17.0,-218.0,87.0,-218.0,-1.0,3.0,1
16.0,-218.0,92.0,-218.0,-3.0,3.0,1
15.0,-216.0,87.0,-224.0,-6.0,3.0,1
16.0,-220.0,86.0,-230.0,-9.0,3.0,1
15.0,-218.0,85.0,-237.0,-11.0,5.0,1
13.0,-216.0,81.0,-249.0,-15.0,6.0,1
16.0,-217.0,88.0,-265.0,-18.0,6.0,1
15.0,-219.0,87.0,-278.0,-19.0,7.0,1
16.0,-222.0,83.0,-282.0,-16.0,7.0,1
14.0,-219.0,87.0,-289.0,-15.0,7.0,1
10.0,-218.0,88.0,-294.0,-16.0,5.0,1
12.0,-220.0,82.0,-295.0,-15.0,5.0,1
17.0,-222.0,85.0,-296.0,-15.0,6.0,1
15.0,-219.0,83.0,-298.0,-14.0,7.0,1
16.0,-220.0,84.0,-301.0,-11.0,8.0,1
15.0,-223.0,85.0,-301.0,-10.0,8.0,1
13.0,-221.0,84.0,-297.0,-9.0,8.0,1
14.0,-220.0,85.0,-293.0,-9.0,10.0,1
14.0,-223.0,85.0,-291.0,-9.0,11.0,1
15.0,-229.0,81.0,-288.0,-7.0,13.0,1
13.0,-228.0,83.0,-284.0,-7.0,14.0,1
14.0,-230.0,84.0,-278.0,-7.0,12.0,1
13.0,-230.0,84.0,-271.0,-5.0,11.0,1
12.0,-231.0,81.0,-265.0,-4.0,9.0,1
14.0,-230.0,81.0,-260.0,0.0,6.0,1
13.0,-232.0,78.0,-252.0,2.0,5.0,1
14.0,-232.0,77.0,-248.0,5.0,4.0,1
13.0,-231.0,82.0,-244.0,8.0,1.0,1
12.0,-230.0,76.0,-237.0,10.0,-1.0,1
12.0,-228.0,77.0,-231.0,11.0,-4.0,1
16.0,-228.0,74.0,-227.0,14.0,-6.0,1
14.0,-225.0,78.0,-221.0,15.0,-7.0,1
13.0,-227.0,74.0,-214.0,17.0,-6.0,1
14.0,-225.0,75.0,-208.0,19.0,-6.0,1
14.0,-228.0,76.0,-201.0,18.0,-7.0,1
18.0,-228.0,73.0,-194.0,17.0,-9.0,1
15.0,-227.0,73.0,-185.0,18.0,-6.0,1
17.0,-228.0,76.0,-177.0,18.0,-6.0,1
18.0,-225.0,78.0,-170.0,17.0,-5.0,1
19.0,-225.0,72.0,-164.0,16.0,-4.0,1
18.0,-227.0,77.0,-161.0,17.0,-5.0,1
18.0,-222.0,75.0,-158.0,19.0,-4.0,1
19.0,-226.0,74.0,-155.0,21.0,-4.0,1
12.0,-223.0,76.0,-153.0,21.0,-2.0,1
17.0,-222.0,77.0,-149.0,23.0,-4.0,1
18.0,-224.0,76.0,-143.0,23.0,-5.0,1
19.0,-226.0,76.0,-140.0,22.0,-5.0,1
18.0,-224.0,78.0,-138.0,21.0,-5.0,1
15.0,-226.0,75.0,-137.0,20.0,-3.0,1
17.0,-228.0,82.0,-138.0,17.0,-3.0,1
18.0,-228.0,77.0,-143.0,15.0,-4.0,1
17.0,-230.0,74.0,-146.0,12.0,-3.0,1
14.0,-226.0,75.0,-149.0,11.0,-1.0,1
16.0,-229.0,75.0,-152.0,7.0,-2.0,1
13.0,-224.0,75.0,-155.0,6.0,-3.0,1
12.0,-227.0,74.0,-155.0,5.0,-4.0,1
15.0,-226.0,75.0,-153.0,4.0,-4.0,1
15.0,-229.0,76.0,-153.0,2.0,-4.0,1
14.0,-227.0,74.0,-151.0,3.0,-6.0,1
14.0,-229.0,76.0,-150.0,3.0,-6.0,1
15.0,-227.0,76.0,-147.0,5.0,-7.0,1
12.0,-228.0,76.0,-143.0,7.0,-8.0,1
14.0,-227.0,75.0,-141.0,7.0,-10.0,1
14.0,-228.0,76.0,-137.0,9.0,-12.0,1
17.0,-231.0,77.0,-132.0,10.0,-13.0,1
17.0,-231.0,75.0,-127.0,11.0,-14.0,1
15.0,-229.0,74.0,-123.0,12.0,-15.0,1
15.0,-228.0,72.0,-121.0,12.0,-14.0,1
18.0,-230.0,73.0,-122.0,13.0,-14.0,1
17.0,-230.0,74.0,-122.0,12.0,-12.0,1
15.0,-231.0,73.0,-119.0,12.0,-11.0,1
15.0,-232.0,73.0,-119.0,14.0,-10.0,1
16.0,-228.0,72.0,-119.0,14.0,-7.0,1
15.0,-231.0,71.0,-121.0,16.0,-6.0,1
13.0,-226.0,76.0,-123.0,17.0,-3.0,1
15.0,-227.0,72.0,-125.0,17.0,-1.0,1
14.0,-227.0,72.0,-127.0,18.0,0.0,1
11.0,-226.0,72.0,-126.0,16.0,2.0,1
13.0,-225.0,74.0,-127.0,18.0,3.0,1
15.0,-228.0,73.0,-128.0,17.0,3.0,1
15.0,-228.0,73.0,-128.0,18.0,2.0,1
15.0,-225.0,69.0,-130.0,16.0,2.0,1
15.0,-228.0,73.0,-130.0,17.0,3.0,1
13.0,-227.0,71.0,-129.0,15.0,2.0,1
14.0,-227.0,74.0,-129.0,15.0,4.0,1
13.0,-228.0,72.0,-131.0,14.0,1.0,1
17.0,-228.0,67.0,-132.0,13.0,2.0,1
14.0,-228.0,69.0,-131.0,13.0,1.0,1
13.0,-229.0,73.0,-132.0,12.0,1.0,1
15.0,-228.0,72.0,-134.0,12.0,2.0,1
15.0,-230.0,72.0,-136.0,12.0,2.0,1
14.0,-229.0,72.0,-136.0,12.0,2.0,1
15.0,-230.0,73.0,-138.0,12.0,1.0,1
14.0,-229.0,70.0,-137.0,13.0,0.0,1
14.0,-228.0,73.0,-138.0,12.0,-2.0,1
14.0,-228.0,74.0,-139.0,13.0,-4.0,1
14.0,-228.0,71.0,-143.0,13.0,-4.0,1
17.0,-229.0,74.0,-147.0,13.0,-8.0,1
15.0,-230.0,74.0,-149.0,11.0,-9.0,1
14.0,-225.0,72.0,-152.0,8.0,-11.0,1
19.0,-228.0,73.0,-155.0,8.0,-13.0,1
17.0,-227.0,70.0,-159.0,7.0,-14.0,1
16.0,-228.0,67.0,-160.0,4.0,-16.0,1
15.0,-228.0,70.0,-161.0,3.0,-17.0,1
16.0,-227.0,73.0,-165.0,0.0,-15.0,1
16.0,-229.0,67.0,-170.0,-3.0,-15.0,1
15.0,-227.0,70.0,-173.0,-3.0,-16.0,1
15.0,-230.0,67.0,-177.0,-5.0,-13.0,1
13.0,-231.0,69.0,-183.0,-8.0,-11.0,1
11.0,-229.0,70.0,-190.0,-11.0,-7.0,1
13.0,-232.0,71.0,-191.0,-13.0,-7.0,1
14.0,-235.0,71.0,-190.0,-12.0,-7.0,1
12.0,-232.0,70.0,-189.0,-12.0,-4.0,1
12.0,-230.0,66.0,-191.0,-15.0,-2.0,1
11.0,-232.0,71.0,-192.0,-17.0,-1.0,1
10.0,-232.0,72.0,-188.0,-18.0,0.0,1
12.0,-231.0,68.0,-184.0,-20.0,2.0,1
11.0,-231.0,68.0,-185.0,-22.0,3.0,1
12.0,-231.0,67.0,-185.0,-21.0,2.0,1
13.0,-229.0,68.0,-186.0,-20.0,4.0,1
15.0,-233.0,70.0,-184.0,-20.0,6.0,1
17.0,-232.0,69.0,-181.0,-18.0,7.0,1
16.0,-230.0,66.0,-180.0,-17.0,5.0,1
19.0,-232.0,70.0,-178.0,-17.0,5.0,1
18.0,-232.0,66.0,-178.0,-16.0,4.0,1
18.0,-232.0,64.0,-178.0,-15.0,3.0,1
22.0,-234.0,66.0,-180.0,-15.0,2.0,1
19.0,-230.0,66.0,-180.0,-17.0,2.0,1
18.0,-231.0,67.0,-180.0,-17.0,3.0,1
16.0,-229.0,69.0,-181.0,-18.0,4.0,1
17.0,-232.0,69.0,-184.0,-16.0,3.0,1
17.0,-233.0,65.0,-185.0,-15.0,4.0,1
16.0,-230.0,68.0,-187.0,-15.0,4.0,1
16.0,-232.0,64.0,-190.0,-14.0,5.0,1
15.0,-232.0,69.0,-190.0,-13.0,5.0,1
17.0,-230.0,67.0,-190.0,-13.0,7.0,1
15.0,-229.0,64.0,-191.0,-13.0,10.0,1
16.0,-229.0,68.0,-191.0,-10.0,9.0,1
12.0,-226.0,67.0,-188.0,-10.0,9.0,1
12.0,-228.0,64.0,-187.0,-9.0,7.0,1
13.0,-229.0,67.0,-186.0,-10.0,6.0,1
15.0,-228.0,70.0,-186.0,-10.0,5.0,1
13.0,-232.0,64.0,-185.0,-13.0,1.0,1
13.0,-231.0,65.0,-186.0,-14.0,-1.0,1
14.0,-230.0,68.0,-189.0,-16.0,-4.0,1
14.0,-233.0,65.0,-188.0,-17.0,-4.0,1
14.0,-234.0,68.0,-185.0,-19.0,-7.0,1
11.0,-231.0,69.0,-186.0,-21.0,-9.0,1
17.0,-231.0,64.0,-189.0,-22.0,-13.0,1
15.0,-232.0,64.0,-192.0,-21.0,-13.0,1
14.0,-231.0,62.0,-194.0,-20.0,-15.0,1
15.0,-233.0,61.0,-194.0,-21.0,-15.0,1
16.0,-232.0,59.0,-198.0,-18.0,-13.0,1
16.0,-232.0,62.0,-198.0,-18.0,-11.0,1
16.0,-230.0,63.0,-195.0,-18.0,-9.0,1
19.0,-231.0,57.0,-193.0,-19.0,-9.0,1
13.0,-232.0,61.0,-194.0,-20.0,-7.0,1
18.0,-233.0,57.0,-199.0,-25.0,-3.0,1
17.0,-232.0,62.0,-203.0,-29.0,1.0,1
13.0,-233.0,64.0,-211.0,-32.0,2.0,1
14.0,-230.0,60.0,-218.0,-35.0,4.0,1
20.0,-232.0,62.0,-228.0,-37.0,6.0,1
13.0,-231.0,63.0,-233.0,-41.0,6.0,1
13.0,-235.0,62.0,-238.0,-42.0,5.0,1
11.0,-233.0,57.0,-242.0,-43.0,4.0,1
16.0,-236.0,59.0,-244.0,-45.0,3.0,1
13.0,-233.0,57.0,-247.0,-46.0,0.0,1
14.0,-234.0,60.0,-251.0,-46.0,-4.0,1
14.0,-233.0,57.0,-257.0,-46.0,-7.0,1
17.0,-234.0,56.0,-260.0,-45.0,-11.0,1
18.0,-237.0,58.0,-263.0,-45.0,-14.0,1
16.0,-235.0,58.0,-265.0,-44.0,-16.0,1
15.0,-241.0,58.0,-266.0,-41.0,-19.0,1
21.0,-238.0,58.0,-267.0,-38.0,-20.0,1
17.0,-237.0,56.0,-266.0,-35.0,-21.0,1
19.0,-238.0,56.0,-265.0,-34.0,-23.0,1
18.0,-236.0,53.0,-263.0,-33.0,-21.0,1
17.0,-235.0,52.0,-263.0,-33.0,-18.0,1
20.0,-236.0,55.0,-264.0,-32.0,-13.0,1
21.0,-236.0,51.0,-263.0,-34.0,-9.0,1
17.0,-237.0,58.0,-262.0,-34.0,-5.0,1
19.0,-239.0,52.0,-262.0,-35.0,0.0,1
19.0,-236.0,53.0,-263.0,-36.0,3.0,1
12.0,-238.0,59.0,-266.0,-37.0,9.0,1
18.0,-238.0,51.0,-264.0,-39.0,11.0,1
16.0,-238.0,51.0,-264.0,-39.0,13.0,1
15.0,-238.0,48.0,-265.0,-38.0,11.0,1
16.0,-236.0,50.0,-269.0,-39.0,11.0,1
15.0,-233.0,45.0,-271.0,-40.0,10.0,1
15.0,-232.0,55.0,-273.0,-41.0,7.0,1
15.0,-234.0,50.0,-276.0,-43.0,5.0,1
15.0,-231.0,49.0,-280.0,-45.0,2.0,1
16.0,-234.0,50.0,-284.0,-46.0,0.0,1
19.0,-235.0,51.0,-287.0,-47.0,-3.0,1
24.0,-231.0,42.0,-290.0,-49.0,-5.0,1
19.0,-233.0,49.0,-290.0,-51.0,-7.0,1
19.0,-236.0,49.0,-291.0,-53.0,-9.0,1
16.0,-234.0,48.0,-292.0,-53.0,-8.0,1
16.0,-234.0,47.0,-292.0,-53.0,-9.0,1
18.0,-235.0,48.0,-294.0,-54.0,-11.0,1
20.0,-235.0,49.0,-300.0,-53.0,-13.0,1
20.0,-235.0,50.0,-305.0,-53.0,-10.0,1
17.0,-234.0,47.0,-311.0,-54.0,-9.0,1
16.0,-238.0,48.0,-318.0,-56.0,-6.0,1
18.0,-239.0,46.0,-325.0,-56.0,-4.0,1
13.0,-240.0,48.0,-332.0,-56.0,-2.0,1
17.0,-239.0,45.0,-340.0,-55.0,0.0,1
15.0,-238.0,48.0,-346.0,-53.0,3.0,1
15.0,-240.0,40.0,-350.0,-52.0,4.0,1
13.0,-237.0,43.0,-351.0,-48.0,5.0,1
13.0,-238.0,44.0,-355.0,-44.0,4.0,1
10.0,-235.0,43.0,-356.0,-40.0,5.0,1
13.0,-241.0,40.0,-355.0,-38.0,4.0,1
15.0,-236.0,37.0,-356.0,-36.0,5.0,1
13.0,-240.0,40.0,-355.0,-33.0,4.0,1
15.0,-240.0,39.0,-352.0,-32.0,3.0,1
17.0,-239.0,39.0,-349.0,-34.0,3.0,1
15.0,-235.0,30.0,-349.0,-37.0,3.0,1
20.0,-238.0,33.0,-353.0,-38.0,-1.0,1
21.0,-239.0,36.0,-356.0,-40.0,-2.0,1
21.0,-242.0,39.0,-362.0,-44.0,-2.0,1
21.0,-238.0,32.0,-366.0,-45.0,-3.0,1
24.0,-241.0,31.0,-366.0,-48.0,-2.0,1
22.0,-238.0,39.0,-365.0,-47.0,0.0,1
22.0,-241.0,34.0,-366.0,-45.0,1.0,1
21.0,-240.0,37.0,-367.0,-45.0,0.0,1
22.0,-244.0,36.0,-363.0,-44.0,1.0,1
22.0,-241.0,32.0,-362.0,-41.0,0.0,1
22.0,-239.0,32.0,-363.0,-41.0,0.0,1
18.0,-239.0,33.0,-369.0,-40.0,0.0,1
18.0,-242.0,31.0,-369.0,-40.0,2.0,1
17.0,-243.0,36.0,-368.0,-40.0,1.0,1
13.0,-240.0,34.0,-367.0,-38.0,0.0,1
13.0,-240.0,33.0,-366.0,-37.0,1.0,1
15.0,-238.0,31.0,-365.0,-37.0,3.0,1
14.0,-239.0,33.0,-365.0,-35.0,4.0,1
15.0,-238.0,29.0,-366.0,-34.0,5.0,1
14.0,-236.0,29.0,-371.0,-33.0,9.0,1
16.0,-236.0,32.0,-374.0,-31.0,11.0,1
19.0,-238.0,26.0,-381.0,-28.0,16.0,1
17.0,-237.0,29.0,-388.0,-26.0,18.0,1
20.0,-236.0,28.0,-394.0,-24.0,25.0,1
17.0,-238.0,27.0,-400.0,-22.0,32.0,1
21.0,-236.0,25.0,-409.0,-19.0,36.0,1
16.0,-237.0,28.0,-419.0,-17.0,39.0,1
19.0,-238.0,25.0,-425.0,-17.0,39.0,1
15.0,-237.0,27.0,-431.0,-17.0,41.0,1
19.0,-239.0,23.0,-436.0,-14.0,40.0,1
18.0,-236.0,21.0,-440.0,-12.0,41.0,1
15.0,-238.0,25.0,-446.0,-10.0,39.0,1
14.0,-239.0,23.0,-452.0,-10.0,29.0,1
18.0,-242.0,21.0,-458.0,-10.0,30.0,1
17.0,-243.0,21.0,-460.0,-11.0,34.0,1
18.0,-244.0,26.0,-460.0,-11.0,35.0,1
21.0,-243.0,22.0,-455.0,-10.0,33.0,1
22.0,-241.0,23.0,-454.0,-9.0,33.0,1
20.0,-240.0,21.0,-457.0,-5.0,32.0,1
19.0,-241.0,22.0,-460.0,-1.0,33.0,1
21.0,-245.0,22.0,-458.0,3.0,35.0,1
20.0,-240.0,17.0,-460.0,5.0,35.0,1
23.0,-241.0,18.0,-463.0,6.0,39.0,1
20.0,-238.0,21.0,-461.0,7.0,45.0,1
20.0,-239.0,20.0,-458.0,11.0,52.0,1
20.0,-237.0,13.0,-458.0,17.0,58.0,1
24.0,-239.0,14.0,-460.0,22.0,64.0,1
21.0,-238.0,19.0,-459.0,23.0,68.0,1
22.0,-236.0,14.0,-462.0,22.0,70.0,1
23.0,-235.0,14.0,-473.0,22.0,74.0,1
14.0,-237.0,13.0,-483.0,19.0,75.0,1
19.0,-239.0,13.0,-497.0,15.0,85.0,1
15.0,-240.0,10.0,-506.0,8.0,90.0,1
16.0,-238.0,10.0,-513.0,0.0,92.0,1
20.0,-240.0,12.0,-525.0,-10.0,94.0,1
15.0,-238.0,8.0,-540.0,-15.0,95.0,1
13.0,-236.0,9.0,-560.0,-21.0,96.0,1
12.0,-241.0,10.0,-577.0,-26.0,97.0,1
13.0,-240.0,11.0,-592.0,-31.0,98.0,1
12.0,-239.0,9.0,-607.0,-39.0,99.0,1
13.0,-241.0,4.0,-625.0,-45.0,101.0,1
15.0,-240.0,8.0,-644.0,-42.0,108.0,1
12.0,-242.0,8.0,-651.0,-37.0,110.0,1
12.0,-242.0,10.0,-665.0,-33.0,117.0,1
10.0,-239.0,7.0,-682.0,-31.0,129.0,1
10.0,-241.0,8.0,-698.0,-34.0,141.0,1
-13.0,-213.0,19.0,-707.0,-40.0,153.0,1
24.0,-244.0,6.0,-698.0,-48.0,188.0,1
14.0,-238.0,3.0,-703.0,-54.0,184.0,1
11.0,-235.0,1.0,-716.0,-54.0,186.0,1
13.0,-238.0,3.0,-736.0,-53.0,198.0,1
9.0,-240.0,1.0,-755.0,-54.0,208.0,1
13.0,-243.0,-2.0,-766.0,-59.0,218.0,1
6.0,-240.0,-6.0,-781.0,-61.0,226.0,1
7.0,-241.0,-6.0,-801.0,-64.0,234.0,1
5.0,-246.0,-2.0,-824.0,-66.0,240.0,1
3.0,-248.0,-4.0,-842.0,-66.0,247.0,1
8.0,-252.0,-5.0,-854.0,-74.0,252.0,1
9.0,-248.0,-4.0,-863.0,-80.0,245.0,1
3.0,-248.0,-9.0,-878.0,-78.0,237.0,1
2.0,-248.0,-5.0,-895.0,-76.0,238.0,1
2.0,-248.0,-1.0,-904.0,-74.0,240.0,1
2.0,-249.0,-8.0,-899.0,-76.0,243.0,1
0.0,-248.0,-5.0,-890.0,-85.0,244.0,1
5.0,-247.0,-4.0,-879.0,-93.0,246.0,1
1.0,-243.0,-1.0,-864.0,-103.0,250.0,1
8.0,-245.0,-11.0,-848.0,-113.0,257.0,1
1.0,-246.0,-8.0,-835.0,-125.0,261.0,1
3.0,-245.0,-15.0,-825.0,-133.0,265.0,1
0.0,-247.0,-15.0,-815.0,-140.0,269.0,1
0.0,-247.0,-10.0,-798.0,-144.0,274.0,1
1.0,-248.0,-11.0,-776.0,-145.0,275.0,1
0.0,-249.0,-13.0,-757.0,-142.0,274.0,1
-1.0,-248.0,-16.0,-735.0,-134.0,277.0,1
-2.0,-249.0,-17.0,-723.0,-125.0,278.0,1
-1.0,-250.0,-22.0,-718.0,-113.0,271.0,1
-5.0,-249.0,-16.0,-716.0,-102.0,262.0,1
4.0,-251.0,-23.0,-716.0,-89.0,256.0,1
6.0,-258.0,-17.0,-710.0,-76.0,254.0,1
1.0,-255.0,-18.0,-699.0,-65.0,240.0,1
3.0,-254.0,-19.0,-691.0,-57.0,217.0,1
7.0,-254.0,-19.0,-682.0,-49.0,200.0,1
7.0,-252.0,-19.0,-672.0,-46.0,180.0,1
6.0,-252.0,-21.0,-659.0,-48.0,164.0,1
7.0,-252.0,-21.0,-642.0,-56.0,151.0,1
5.0,-251.0,-26.0,-619.0,-67.0,138.0,1
13.0,-249.0,-25.0,-590.0,-79.0,130.0,1
8.0,-249.0,-25.0,-558.0,-93.0,122.0,1
-7.0,-251.0,-27.0,-522.0,-104.0,112.0,1
6.0,-252.0,-23.0,-483.0,-113.0,115.0,1
2.0,-251.0,-22.0,-441.0,-120.0,114.0,1
-2.0,-248.0,-20.0,-400.0,-121.0,112.0,1
-2.0,-251.0,-21.0,-358.0,-118.0,110.0,1
-3.0,-249.0,-21.0,-320.0,-110.0,105.0,1
-3.0,-248.0,-27.0,-285.0,-100.0,101.0,1
0.0,-248.0,-26.0,-261.0,-86.0,96.0,1
0.0,-245.0,-24.0,-245.0,-68.0,84.0,1
0.0,-244.0,-23.0,-235.0,-50.0,74.0,1
-2.0,-240.0,-24.0,-230.0,-33.0,65.0,1
2.0,-242.0,-22.0,-232.0,-15.0,62.0,1
2.0,-237.0,-26.0,-241.0,1.0,58.0,1
23.0,-227.0,-14.0,-249.0,17.0,49.0,1
-16.0,-235.0,-26.0,-240.0,32.0,-9.0,1
-14.0,-213.0,-16.0,-261.0,40.0,31.0,1
13.0,-239.0,-25.0,-279.0,54.0,48.0,1
7.0,-235.0,-24.0,-308.0,60.0,35.0,1
8.0,-234.0,-26.0,-343.0,67.0,27.0,1
10.0,-234.0,-24.0,-370.0,77.0,18.0,1
6.0,-236.0,-25.0,-392.0,87.0,12.0,1
8.0,-235.0,-26.0,-414.0,99.0,9.0,1
8.0,-241.0,-23.0,-435.0,112.0,5.0,1
7.0,-240.0,-24.0,-457.0,123.0,5.0,1
2.0,-243.0,-24.0,-473.0,134.0,4.0,1
-1.0,-247.0,-25.0,-493.0,142.0,3.0,1
0.0,-248.0,-23.0,-509.0,149.0,0.0,1
-5.0,-251.0,-28.0,-523.0,154.0,-2.0,1
-8.0,-254.0,-26.0,-532.0,158.0,-6.0,1
-12.0,-254.0,-29.0,-537.0,161.0,-8.0,1
-8.0,-259.0,-29.0,-541.0,164.0,-10.0,1
-10.0,-260.0,-37.0,-537.0,166.0,-12.0,1
-10.0,-259.0,-31.0,-529.0,170.0,-15.0,1
-9.0,-258.0,-33.0,-519.0,175.0,-18.0,1
-5.0,-259.0,-32.0,-503.0,181.0,-21.0,1
-5.0,-262.0,-33.0,-487.0,187.0,-24.0,1
-7.0,-259.0,-33.0,-471.0,194.0,-29.0,1
-8.0,-260.0,-29.0,-457.0,201.0,-35.0,1
-4.0,-259.0,-31.0,-445.0,207.0,-42.0,1
-3.0,-262.0,-32.0,-434.0,216.0,-48.0,1
-1.0,-260.0,-29.0,-424.0,226.0,-55.0,1
-5.0,-258.0,-31.0,-416.0,232.0,-64.0,1
-2.0,-255.0,-29.0,-406.0,242.0,-73.0,1
-6.0,-257.0,-32.0,-399.0,252.0,-81.0,1
-2.0,-257.0,-29.0,-391.0,261.0,-88.0,1
-4.0,-254.0,-30.0,-389.0,268.0,-95.0,1
-6.0,-254.0,-32.0,-388.0,276.0,-101.0,1
-5.0,-253.0,-34.0,-390.0,282.0,-104.0,1
-4.0,-251.0,-27.0,-397.0,288.0,-107.0,1
-7.0,-252.0,-33.0,-407.0,292.0,-109.0,1
-13.0,-248.0,-29.0,-419.0,295.0,-111.0,1
-9.0,-249.0,-25.0,-435.0,296.0,-108.0,1
-9.0,-250.0,-29.0,-451.0,296.0,-103.0,1
-12.0,-248.0,-21.0,-467.0,297.0,-101.0,1
-13.0,-248.0,-25.0,-481.0,300.0,-98.0,1
-10.0,-249.0,-24.0,-497.0,303.0,-94.0,1
-11.0,-248.0,-25.0,-509.0,307.0,-92.0,1
-11.0,-248.0,-22.0,-523.0,311.0,-89.0,1
-9.0,-248.0,-18.0,-534.0,314.0,-88.0,1
-12.0,-249.0,-20.0,-542.0,322.0,-89.0,1
-10.0,-247.0,-18.0,-548.0,328.0,-92.0,1
-12.0,-247.0,-18.0,-555.0,333.0,-93.0,1
-11.0,-243.0,-17.0,-561.0,336.0,-93.0,1
-9.0,-246.0,-20.0,-567.0,343.0,-96.0,1
-12.0,-243.0,-13.0,-575.0,351.0,-98.0,1
-13.0,-243.0,-19.0,-585.0,357.0,-100.0,1
-10.0,-240.0,-16.0,-600.0,361.0,-102.0,1
-7.0,-239.0,-13.0,-613.0,365.0,-102.0,1
-9.0,-237.0,-12.0,-624.0,370.0,-101.0,1
-11.0,-237.0,-11.0,-633.0,377.0,-102.0,1
-9.0,-235.0,-9.0,-642.0,382.0,-103.0,1
-10.0,-235.0,-10.0,-652.0,384.0,-104.0,1
-11.0,-235.0,-14.0,-669.0,388.0,-107.0,1
-11.0,-234.0,-11.0,-694.0,395.0,-108.0,1
-10.0,-231.0,-8.0,-722.0,403.0,-107.0,1
-13.0,-229.0,-10.0,-750.0,416.0,-105.0,1
-10.0,-231.0,-7.0,-777.0,425.0,-99.0,1
-13.0,-232.0,-10.0,-807.0,434.0,-96.0,1
-14.0,-233.0,-10.0,-836.0,448.0,-95.0,1
-10.0,-230.0,-6.0,-862.0,463.0,-95.0,1
-14.0,-233.0,-5.0,-884.0,482.0,-104.0,1
-13.0,-233.0,-8.0,-903.0,499.0,-111.0,1
-15.0,-228.0,-6.0,-918.0,514.0,-118.0,1
-15.0,-228.0,-9.0,-936.0,530.0,-122.0,1
-16.0,-225.0,-21.0,-953.0,542.0,-124.0,1
-16.0,-222.0,-23.0,-975.0,549.0,-124.0,1
-19.0,-220.0,-32.0,-998.0,549.0,-125.0,1
-17.0,-219.0,-40.0,-1023.0,547.0,-123.0,1
-23.0,-208.0,-53.0,-1045.0,541.0,-124.0,1
-24.0,-207.0,-65.0,-1069.0,531.0,-123.0,1
-25.0,-211.0,-79.0,-1100.0,524.0,-123.0,1
-26.0,-211.0,-100.0,-1134.0,514.0,-123.0,1
-30.0,-214.0,-121.0,-1181.0,502.0,-126.0,1
-34.0,-218.0,-147.0,-1253.0,485.0,-121.0,1
-42.0,-223.0,-184.0,-1351.0,465.0,-106.0,1
-43.0,-235.0,-224.0,-1476.0,444.0,-84.0,1
-50.0,-246.0,-266.0,-1633.0,421.0,-62.0,1
-49.0,-256.0,-303.0,-1819.0,396.0,-34.0,1
-55.0,-267.0,-339.0,-2028.0,373.0,-10.0,1
-54.0,-281.0,-381.0,-2261.0,347.0,9.0,1
-61.0,-288.0,-415.0,-2505.0,333.0,29.0,1
-61.0,-304.0,-429.0,-2762.0,327.0,64.0,1
-57.0,-317.0,-432.0,-2997.0,318.0,96.0,1
-49.0,-334.0,-420.0,-3193.0,326.0,120.0,1
-33.0,-357.0,-389.0,-3330.0,352.0,136.0,1
-26.0,-384.0,-341.0,-3371.0,406.0,140.0,1
-12.0,-411.0,-297.0,-3320.0,472.0,134.0,1
6.0,-424.0,-248.0,-3202.0,541.0,118.0,1
27.0,-426.0,-204.0,-3036.0,605.0,93.0,1
42.0,-415.0,-161.0,-2841.0,662.0,51.0,1
57.0,-398.0,-126.0,-2621.0,701.0,-26.0,1
74.0,-376.0,-103.0,-2383.0,723.0,-110.0,1
81.0,-349.0,-82.0,-2144.0,735.0,-206.0,1
82.0,-319.0,-70.0,-1925.0,737.0,-297.0,1
85.0,-289.0,-64.0,-1737.0,732.0,-376.0,1
84.0,-256.0,-69.0,-1593.0,717.0,-445.0,1
79.0,-225.0,-72.0,-1505.0,693.0,-510.0,1
80.0,-199.0,-70.0,-1473.0,668.0,-563.0,1
76.0,-167.0,-74.0,-1496.0,646.0,-606.0,1
74.0,-139.0,-65.0,-1571.0,624.0,-648.0,1
73.0,-111.0,-59.0,-1689.0,608.0,-683.0,1
78.0,-73.0,-49.0,-1828.0,598.0,-721.0,1
74.0,-45.0,-33.0,-1992.0,605.0,-762.0,1
75.0,-16.0,-22.0,-2164.0,631.0,-796.0,1
67.0,10.0,0.0,-2331.0,678.0,-821.0,1
79.0,16.0,8.0,-2465.0,730.0,-828.0,1
63.0,29.0,21.0,-2558.0,780.0,-836.0,1
56.0,36.0,18.0,-2595.0,811.0,-827.0,1
64.0,26.0,28.0,-2591.0,818.0,-822.0,1
50.0,14.0,27.0,-2528.0,817.0,-862.0,1
37.0,-3.0,11.0,-2428.0,808.0,-910.0,1
38.0,-31.0,0.0,-2333.0,820.0,-959.0,1
39.0,-55.0,1.0,-2262.0,877.0,-1011.0,1
30.0,-83.0,6.0,-2172.0,976.0,-1076.0,1
36.0,-97.0,12.0,-2059.0,1104.0,-1114.0,1
36.0,-124.0,14.0,-1961.0,1235.0,-1121.0,1
49.0,-128.0,27.0,-1851.0,1341.0,-1108.0,1
59.0,-133.0,36.0,-1699.0,1415.0,-1109.0,1
62.0,-130.0,31.0,-1492.0,1445.0,-1113.0,1
71.0,-120.0,22.0,-1285.0,1425.0,-1099.0,1
87.0,-119.0,11.0,-1097.0,1379.0,-1074.0,1
98.0,-99.0,-14.0,-953.0,1339.0,-1047.0,1
99.0,-94.0,-26.0,-906.0,1310.0,-1023.0,1
107.0,-106.0,-30.0,-952.0,1288.0,-990.0,1
107.0,-132.0,-27.0,-1027.0,1254.0,-974.0,1
104.0,-154.0,-44.0,-1080.0,1204.0,-974.0,1
107.0,-163.0,-55.0,-1120.0,1162.0,-961.0,1
107.0,-170.0,-62.0,-1126.0,1146.0,-970.0,1
111.0,-170.0,-66.0,-1088.0,1171.0,-1004.0,1
113.0,-170.0,-60.0,-1022.0,1221.0,-1050.0,1
115.0,-152.0,-76.0,-918.0,1277.0,-1102.0,1
116.0,-129.0,-87.0,-827.0,1341.0,-1135.0,1
114.0,-115.0,-94.0,-752.0,1378.0,-1173.0,1
104.0,-98.0,-108.0,-661.0,1388.0,-1198.0,1
103.0,-95.0,-102.0,-562.0,1389.0,-1201.0,1
98.0,-86.0,-126.0,-399.0,1377.0,-1223.0,1
104.0,-69.0,-150.0,-220.0,1375.0,-1256.0,1
110.0,-67.0,-167.0,-39.0,1394.0,-1271.0,1
104.0,-64.0,-191.0,160.0,1413.0,-1301.0,1
100.0,-70.0,-215.0,396.0,1421.0,-1333.0,1
105.0,-60.0,-254.0,631.0,1441.0,-1327.0,1
104.0,-21.0,-316.0,794.0,1484.0,-1319.0,1
114.0,-48.0,-318.0,798.0,1561.0,-1293.0,1
24.0,163.0,-1582.0,788.0,1639.0,-1269.0,1
131.0,34.0,-569.0,-2020.0,1020.0,-1115.0,1
118.0,100.0,-485.0,-3715.0,1214.0,-993.0,1
369.0,137.0,-666.0,-5011.0,46.0,-1417.0,1
205.0,297.0,-646.0,-7049.0,-1577.0,-1585.0,1
181.0,396.0,-642.0,-8004.0,-1650.0,-1669.0,1
102.0,512.0,-539.0,-8734.0,-1598.0,-2131.0,1
157.0,596.0,-530.0,-8469.0,-1789.0,-2518.0,1
191.0,690.0,-738.0,-7099.0,-1808.0,-2246.0,1
43.0,633.0,-579.0,-5941.0,-1453.0,-1968.0,1
108.0,578.0,-540.0,-4505.0,-798.0,-1728.0,1
353.0,714.0,-781.0,-3980.0,-325.0,-1640.0,1
236.0,450.0,-365.0,-4079.0,-238.0,-1661.0,1
335.0,448.0,-450.0,-3050.0,-466.0,-1542.0,1
286.0,271.0,-653.0,-2497.0,-1074.0,-1283.0,1
241.0,155.0,-803.0,-2141.0,-1250.0,-1024.0,1
311.0,56.0,-839.0,-1834.0,-1205.0,-829.0,1
338.0,31.0,-819.0,-1703.0,-1059.0,-739.0,1
305.0,51.0,-766.0,-1696.0,-850.0,-792.0,1
300.0,49.0,-651.0,-1594.0,-570.0,-937.0,1
278.0,36.0,-620.0,-1313.0,-348.0,-1088.0,1
253.0,11.0,-560.0,-1001.0,-140.0,-1221.0,1
230.0,-98.0,-516.0,-763.0,139.0,-1341.0,1
209.0,-210.0,-481.0,-571.0,578.0,-1460.0,1
172.0,-263.0,-467.0,-383.0,1195.0,-1441.0,1
52.0,-306.0,-446.0,-263.0,1783.0,-1318.0,1
78.0,-326.0,-421.0,-155.0,2216.0,-1169.0,1
67.0,-292.0,-451.0,44.0,2568.0,-1027.0,1
63.0,-250.0,-490.0,191.0,2816.0,-948.0,1
78.0,-186.0,-493.0,112.0,2982.0,-894.0,1
107.0,-219.0,-396.0,-92.0,3112.0,-848.0,1
115.0,-102.0,-335.0,-139.0,3152.0,-894.0,1
254.0,-132.0,-242.0,-87.0,3146.0,-850.0,1
119.0,-30.0,-248.0,231.0,3193.0,-939.0,1
123.0,58.0,-262.0,605.0,3023.0,-909.0,1
126.0,110.0,-257.0,674.0,2779.0,-599.0,1
160.0,127.0,-223.0,589.0,2465.0,-209.0,1
191.0,139.0,-197.0,429.0,2130.0,154.0,1
196.0,188.0,-186.0,296.0,1844.0,408.0,1
181.0,196.0,-163.0,137.0,1530.0,545.0,1
177.0,187.0,-137.0,17.0,1191.0,673.0,1
181.0,198.0,-132.0,-53.0,866.0,750.0,1
210.0,209.0,-132.0,-100.0,568.0,766.0,1
198.0,215.0,-132.0,-75.0,348.0,750.0,1
188.0,209.0,-137.0,-18.0,213.0,733.0,1
175.0,206.0,-141.0,36.0,159.0,716.0,1
160.0,201.0,-152.0,83.0,144.0,690.0,1
158.0,195.0,-152.0,66.0,176.0,656.0,1
161.0,201.0,-153.0,-3.0,207.0,610.0,1
159.0,191.0,-147.0,-65.0,224.0,531.0,1
138.0,172.0,-151.0,-55.0,228.0,452.0,1
143.0,156.0,-144.0,-31.0,280.0,385.0,1
130.0,143.0,-139.0,-23.0,352.0,314.0,1
110.0,136.0,-137.0,-52.0,420.0,243.0,1
109.0,119.0,-141.0,-113.0,476.0,186.0,1
96.0,110.0,-140.0,-184.0,527.0,132.0,1
89.0,97.0,-138.0,-263.0,574.0,75.0,1
82.0,82.0,-138.0,-349.0,620.0,24.0,1
76.0,52.0,-127.0,-405.0,657.0,-18.0,1
78.0,28.0,-118.0,-380.0,686.0,-21.0,1
79.0,19.0,-117.0,-310.0,716.0,-32.0,1
86.0,16.0,-122.0,-240.0,715.0,-60.0,1
86.0,23.0,-122.0,-177.0,691.0,-104.0,1
87.0,27.0,-129.0,-114.0,656.0,-156.0,1
89.0,30.0,-137.0,-70.0,634.0,-187.0,1
71.0,22.0,-124.0,-92.0,638.0,-210.0,1
116.0,36.0,-115.0,-148.0,645.0,-209.0,1
123.0,50.0,-110.0,-207.0,666.0,-231.0,1
140.0,63.0,-153.0,-255.0,650.0,-285.0,1
165.0,76.0,-140.0,-419.0,581.0,-355.0,1
169.0,94.0,-139.0,-422.0,512.0,-351.0,1
178.0,110.0,-165.0,-301.0,368.0,-362.0,1
159.0,97.0,-189.0,-224.0,192.0,-344.0,1
175.0,94.0,-183.0,-177.0,63.0,-285.0,1
175.0,99.0,-184.0,-176.0,-36.0,-270.0,1
178.0,92.0,-186.0,-193.0,-140.0,-261.0,1
171.0,88.0,-186.0,-197.0,-236.0,-223.0,1
164.0,67.0,-185.0,-170.0,-335.0,-161.0,1
203.0,36.0,-178.0,-70.0,-458.0,-73.0,1
208.0,35.0,-181.0,74.0,-473.0,-4.0,1
216.0,58.0,-199.0,138.0,-500.0,-8.0,1
223.0,71.0,-213.0,146.0,-577.0,-18.0,1
201.0,70.0,-218.0,160.0,-654.0,5.0,1
209.0,52.0,-218.0,214.0,-729.0,56.0,1
216.0,40.0,-221.0,296.0,-780.0,106.0,1
214.0,41.0,-221.0,363.0,-800.0,142.0,1
207.0,45.0,-229.0,404.0,-816.0,167.0,1
198.0,40.0,-236.0,431.0,-843.0,185.0,1
196.0,45.0,-246.0,451.0,-873.0,201.0,1
201.0,52.0,-256.0,464.0,-889.0,220.0,1
225.0,54.0,-265.0,481.0,-878.0,249.0,1
223.0,66.0,-269.0,486.0,-856.0,260.0,1
225.0,72.0,-276.0,473.0,-848.0,270.0,1
217.0,65.0,-270.0,452.0,-841.0,237.0,1
205.0,54.0,-279.0,480.0,-811.0,269.0,1
157.0,32.0,-262.0,507.0,-765.0,323.0,1
184.0,13.0,-263.0,538.0,-743.0,391.0,1
228.0,37.0,-276.0,537.0,-717.0,383.0,1
188.0,46.0,-266.0,503.0,-672.0,329.0,1
151.0,34.0,-256.0,489.0,-638.0,332.0,1
151.0,19.0,-253.0,506.0,-634.0,366.0,1
125.0,-8.0,-243.0,547.0,-643.0,426.0,1
124.0,-19.0,-247.0,606.0,-664.0,490.0,1
138.0,-20.0,-242.0,637.0,-669.0,529.0,1
165.0,-1.0,-247.0,621.0,-640.0,522.0,1
183.0,25.0,-249.0,569.0,-599.0,490.0,1
162.0,25.0,-242.0,511.0,-554.0,449.0,1
183.0,28.0,-235.0,464.0,-551.0,431.0,1
153.0,38.0,-234.0,435.0,-550.0,423.0,1
151.0,47.0,-224.0,423.0,-558.0,413.0,1
151.0,31.0,-223.0,408.0,-632.0,436.0,1
144.0,34.0,-225.0,395.0,-687.0,465.0,1
149.0,24.0,-223.0,378.0,-736.0,480.0,1
138.0,13.0,-224.0,380.0,-808.0,510.0,1
146.0,11.0,-229.0,367.0,-856.0,545.0,1
126.0,11.0,-234.0,339.0,-870.0,549.0,1
135.0,6.0,-241.0,323.0,-883.0,557.0,1
132.0,0.0,-236.0,297.0,-882.0,560.0,1
127.0,3.0,-244.0,284.0,-846.0,558.0,1
133.0,-3.0,-247.0,265.0,-821.0,555.0,1
136.0,-3.0,-249.0,257.0,-783.0,540.0,1
98.0,-8.0,-248.0,258.0,-710.0,497.0,1
146.0,3.0,-270.0,280.0,-674.0,479.0,1
160.0,-6.0,-265.0,222.0,-672.0,503.0,1
113.0,-13.0,-255.0,156.0,-592.0,492.0,1
141.0,-12.0,-261.0,137.0,-579.0,499.0,1
153.0,-16.0,-259.0,129.0,-568.0,487.0,1
103.0,-23.0,-254.0,136.0,-490.0,450.0,1
117.0,-23.0,-262.0,182.0,-446.0,435.0,1
174.0,-4.0,-294.0,195.0,-460.0,449.0,1
148.0,-12.0,-268.0,87.0,-455.0,460.0,1
149.0,-22.0,-252.0,43.0,-397.0,447.0,1
113.0,-27.0,-256.0,106.0,-353.0,417.0,1
125.0,-19.0,-261.0,186.0,-344.0,384.0,1
131.0,-15.0,-267.0,221.0,-336.0,375.0,1
112.0,-29.0,-266.0,216.0,-304.0,385.0,1
145.0,-22.0,-270.0,216.0,-272.0,361.0,1
130.0,-13.0,-280.0,211.0,-234.0,319.0,1
152.0,-5.0,-271.0,183.0,-206.0,318.0,1
128.0,-24.0,-271.0,157.0,-194.0,325.0,1
127.0,-24.0,-281.0,152.0,-152.0,283.0,1
129.0,-33.0,-278.0,167.0,-110.0,248.0,1
143.0,-23.0,-282.0,177.0,-78.0,195.0,1
142.0,-20.0,-287.0,151.0,-33.0,150.0,1
134.0,-28.0,-291.0,119.0,7.0,115.0,1
135.0,-30.0,-290.0,102.0,38.0,91.0,1
134.0,-34.0,-291.0,94.0,79.0,73.0,1
139.0,-22.0,-293.0,80.0,123.0,51.0,1
136.0,-27.0,-288.0,53.0,178.0,25.0,1
135.0,-32.0,-293.0,42.0,237.0,2.0,1
136.0,-39.0,-288.0,34.0,291.0,-15.0,1
143.0,-33.0,-287.0,28.0,348.0,-32.0,1
133.0,-28.0,-285.0,1.0,409.0,-57.0,1
189.0,-18.0,-294.0,-37.0,415.0,-46.0,1
175.0,-15.0,-281.0,-106.0,440.0,-26.0,1
160.0,-40.0,-258.0,-145.0,508.0,-74.0,1
114.0,-31.0,-260.0,-55.0,577.0,-143.0,1
113.0,-28.0,-269.0,18.0,605.0,-161.0,1
189.0,-19.0,-284.0,15.0,625.0,-179.0,1
246.0,7.0,-273.0,-60.0,721.0,-270.0,1
213.0,5.0,-242.0,-130.0,912.0,-387.0,1
173.0,-4.0,-237.0,-92.0,1038.0,-444.0,1
183.0,-16.0,-245.0,-21.0,1057.0,-447.0,1
170.0,-21.0,-247.0,46.0,1100.0,-448.0,1
158.0,-29.0,-243.0,99.0,1156.0,-439.0,1
151.0,-32.0,-247.0,144.0,1180.0,-415.0,1
164.0,-38.0,-247.0,170.0,1185.0,-393.0,1
142.0,-34.0,-248.0,213.0,1212.0,-389.0,1
126.0,-34.0,-249.0,261.0,1237.0,-373.0,1
130.0,-25.0,-254.0,261.0,1224.0,-354.0,1
102.0,-30.0,-251.0,243.0,1190.0,-348.0,1
65.0,-27.0,-252.0,224.0,1161.0,-324.0,1
93.0,-30.0,-263.0,192.0,1089.0,-284.0,1
130.0,-31.0,-253.0,134.0,1026.0,-259.0,1
151.0,-26.0,-237.0,85.0,1020.0,-256.0,1
158.0,-28.0,-225.0,77.0,1044.0,-269.0,1
159.0,-21.0,-213.0,80.0,1047.0,-279.0,1
159.0,-12.0,-209.0,81.0,1022.0,-293.0,1
155.0,-10.0,-209.0,76.0,978.0,-310.0,1
156.0,-5.0,-211.0,51.0,917.0,-322.0,1
156.0,-5.0,-205.0,29.0,850.0,-328.0,1
151.0,-6.0,-207.0,15.0,774.0,-333.0,1
154.0,-6.0,-217.0,-4.0,693.0,-337.0,1
174.0,-5.0,-212.0,-38.0,622.0,-334.0,1
172.0,-8.0,-211.0,-75.0,595.0,-341.0,1
169.0,-9.0,-206.0,-85.0,592.0,-344.0,1
154.0,-12.0,-207.0,-55.0,581.0,-337.0,1
171.0,-10.0,-216.0,-11.0,538.0,-332.0,1
210.0,-14.0,-208.0,14.0,522.0,-354.0,1
167.0,-6.0,-209.0,48.0,549.0,-370.0,1
186.0,-7.0,-203.0,80.0,547.0,-358.0,1
184.0,-1.0,-204.0,116.0,541.0,-343.0,1
177.0,3.0,-217.0,140.0,526.0,-331.0,1
146.0,10.0,-217.0,154.0,507.0,-317.0,1
162.0,12.0,-214.0,160.0,462.0,-296.0,1
232.0,-2.0,-222.0,134.0,430.0,-278.0,1
193.0,-31.0,-201.0,129.0,486.0,-288.0,1
179.0,0.0,-224.0,159.0,531.0,-269.0,1
180.0,-10.0,-218.0,178.0,498.0,-259.0,1
179.0,-14.0,-223.0,180.0,451.0,-253.0,1
176.0,-10.0,-205.0,174.0,424.0,-242.0,1
155.0,-15.0,-196.0,183.0,411.0,-232.0,1
147.0,-7.0,-217.0,201.0,377.0,-213.0,1
172.0,-1.0,-221.0,212.0,329.0,-209.0,1
221.0,-14.0,-219.0,206.0,317.0,-212.0,1
225.0,-32.0,-205.0,211.0,380.0,-230.0,1
173.0,-27.0,-198.0,244.0,445.0,-226.0,1
184.0,-16.0,-211.0,282.0,426.0,-213.0,1
180.0,-1.0,-210.0,322.0,372.0,-222.0,1
167.0,6.0,-245.0,351.0,329.0,-232.0,1
194.0,12.0,-232.0,323.0,291.0,-230.0,1
229.0,20.0,-216.0,226.0,285.0,-221.0,1
173.0,23.0,-235.0,123.0,319.0,-220.0,1
168.0,20.0,-202.0,29.0,276.0,-196.0,1
173.0,17.0,-209.0,2.0,216.0,-157.0,1
178.0,5.0,-219.0,18.0,186.0,-130.0,1
184.0,15.0,-212.0,30.0,159.0,-115.0,1
182.0,17.0,-206.0,20.0,138.0,-104.0,1
185.0,12.0,-200.0,-2.0,122.0,-93.0,1
184.0,8.0,-194.0,-16.0,106.0,-77.0,1
182.0,3.0,-188.0,-14.0,87.0,-58.0,1
178.0,-8.0,-182.0,-3.0,56.0,-42.0,1
176.0,-3.0,-170.0,4.0,16.0,-33.0,1
179.0,-1.0,-184.0,11.0,-25.0,-25.0,1
176.0,-3.0,-193.0,13.0,-67.0,-15.0,1
190.0,-4.0,-177.0,11.0,-107.0,-7.0,1
177.0,-4.0,-191.0,5.0,-154.0,3.0,1
176.0,-9.0,-182.0,1.0,-201.0,11.0,1
190.0,-2.0,-191.0,-5.0,-247.0,17.0,1
181.0,-4.0,-186.0,-12.0,-286.0,23.0,1
174.0,1.0,-198.0,-15.0,-314.0,33.0,1
183.0,1.0,-200.0,-17.0,-334.0,44.0,1
186.0,-3.0,-209.0,-16.0,-346.0,57.0,1
184.0,-3.0,-211.0,-11.0,-352.0,69.0,1
187.0,-8.0,-210.0,-8.0,-357.0,80.0,1
185.0,-3.0,-212.0,-2.0,-357.0,90.0,1
216.0,-9.0,-220.0,5.0,-353.0,100.0,1
198.0,-26.0,-208.0,-4.0,-382.0,106.0,1
173.0,1.0,-216.0,5.0,-396.0,95.0,1
158.0,0.0,-221.0,25.0,-377.0,103.0,1
172.0,-12.0,-221.0,44.0,-354.0,119.0,1
191.0,-10.0,-223.0,45.0,-335.0,126.0,1
196.0,-17.0,-236.0,24.0,-320.0,127.0,1
232.0,-27.0,-233.0,-44.0,-385.0,152.0,1
206.0,-19.0,-198.0,-101.0,-419.0,138.0,1
143.0,3.0,-227.0,-75.0,-381.0,91.0,1
166.0,-7.0,-233.0,-5.0,-343.0,68.0,1
157.0,-20.0,-242.0,16.0,-304.0,69.0,1
180.0,-18.0,-238.0,-22.0,-249.0,72.0,1
181.0,-15.0,-231.0,-49.0,-206.0,68.0,1
183.0,-12.0,-237.0,-49.0,-180.0,60.0,1
183.0,-9.0,-228.0,-52.0,-161.0,58.0,1
270.0,16.0,-241.0,-56.0,-170.0,78.0,1
191.0,-18.0,-231.0,-149.0,-222.0,162.0,1
197.0,-14.0,-199.0,-197.0,-192.0,175.0,1
143.0,-11.0,-207.0,-111.0,-163.0,132.0,1
164.0,-15.0,-244.0,7.0,-176.0,95.0,1
173.0,-14.0,-232.0,30.0,-151.0,85.0,1
170.0,-27.0,-235.0,-13.0,-106.0,83.0,1
188.0,-8.0,-240.0,-38.0,-71.0,78.0,1
173.0,-10.0,-238.0,-40.0,-51.0,75.0,1
179.0,-15.0,-228.0,-38.0,-42.0,75.0,1
168.0,-14.0,-226.0,-37.0,-42.0,77.0,1
180.0,-18.0,-222.0,-37.0,-50.0,75.0,1
180.0,-16.0,-220.0,-36.0,-64.0,71.0,1
176.0,-20.0,-218.0,-40.0,-78.0,67.0,1
172.0,-16.0,-222.0,-43.0,-93.0,64.0,1
174.0,-22.0,-226.0,-43.0,-105.0,62.0,1
175.0,-19.0,-228.0,-40.0,-112.0,58.0,1
180.0,-11.0,-226.0,-41.0,-115.0,55.0,1
169.0,-7.0,-232.0,-38.0,-117.0,54.0,1
186.0,-11.0,-230.0,-34.0,-120.0,50.0,1
167.0,-18.0,-219.0,-33.0,-122.0,46.0,1
169.0,-6.0,-229.0,-30.0,-122.0,43.0,1
172.0,-23.0,-230.0,-30.0,-123.0,40.0,1
168.0,-19.0,-216.0,-33.0,-124.0,39.0,1
164.0,-11.0,-221.0,-37.0,-124.0,39.0,1
172.0,-12.0,-222.0,-40.0,-123.0,36.0,1
173.0,-13.0,-221.0,-43.0,-124.0,35.0,1
172.0,-15.0,-222.0,-47.0,-126.0,33.0,1
172.0,-14.0,-222.0,-51.0,-127.0,35.0,1
173.0,-9.0,-221.0,-52.0,-129.0,32.0,1
173.0,-13.0,-223.0,-52.0,-130.0,32.0,1
172.0,-12.0,-222.0,-54.0,-131.0,33.0,1
181.0,-21.0,-226.0,-54.0,-132.0,34.0,1
171.0,-12.0,-226.0,-55.0,-132.0,34.0,1
175.0,-18.0,-229.0,-54.0,-132.0,34.0,1
175.0,-18.0,-230.0,-54.0,-129.0,35.0,1
174.0,-21.0,-222.0,-54.0,-125.0,35.0,1
175.0,-17.0,-227.0,-55.0,-120.0,34.0,1
172.0,-13.0,-231.0,-55.0,-112.0,35.0,1
173.0,-17.0,-225.0,-53.0,-105.0,35.0,1
174.0,-22.0,-230.0,-53.0,-97.0,32.0,1
173.0,-17.0,-227.0,-58.0,-86.0,29.0,1
175.0,-18.0,-233.0,-62.0,-77.0,25.0,1
175.0,-16.0,-232.0,-61.0,-69.0,23.0,1
174.0,-19.0,-234.0,-61.0,-61.0,19.0,1
175.0,-17.0,-230.0,-65.0,-50.0,17.0,1
174.0,-14.0,-233.0,-66.0,-41.0,12.0,1
176.0,-17.0,-235.0,-67.0,-31.0,7.0,1
177.0,-18.0,-235.0,-67.0,-23.0,5.0,1
175.0,-17.0,-231.0,-65.0,-16.0,2.0,1
186.0,-3.0,-231.0,-64.0,-11.0,-1.0,1
175.0,-16.0,-229.0,-62.0,-7.0,-1.0,1
174.0,-13.0,-231.0,-63.0,-4.0,-1.0,1
174.0,-17.0,-230.0,-62.0,-1.0,0.0,1
172.0,-12.0,-227.0,-61.0,3.0,-1.0,1
175.0,-15.0,-230.0,-58.0,6.0,1.0,1
175.0,-14.0,-232.0,-56.0,6.0,2.0,1
172.0,-11.0,-229.0,-54.0,3.0,2.0,1
175.0,-14.0,-225.0,-51.0,2.0,5.0,1
174.0,-13.0,-222.0,-49.0,0.0,6.0,1
174.0,-13.0,-227.0,-48.0,-2.0,7.0,1
174.0,-15.0,-230.0,-47.0,-2.0,9.0,1
173.0,-14.0,-224.0,-46.0,-4.0,11.0,1
171.0,-13.0,-226.0,-47.0,-6.0,13.0,1
172.0,-12.0,-226.0,-47.0,-7.0,14.0,1
168.0,-12.0,-224.0,-45.0,-8.0,16.0,1
174.0,-13.0,-224.0,-44.0,-9.0,17.0,1
169.0,-15.0,-229.0,-42.0,-10.0,19.0,1
172.0,-14.0,-225.0,-45.0,-12.0,20.0,1
174.0,-14.0,-225.0,-44.0,-14.0,22.0,1
171.0,-15.0,-225.0,-44.0,-19.0,24.0,1
173.0,-15.0,-223.0,-43.0,-23.0,25.0,1
171.0,-12.0,-226.0,-45.0,-26.0,25.0,1
174.0,-15.0,-226.0,-47.0,-31.0,23.0,1
171.0,-14.0,-226.0,-47.0,-34.0,23.0,1
172.0,-13.0,-225.0,-48.0,-38.0,23.0,1
171.0,-18.0,-227.0,-51.0,-44.0,23.0,1
171.0,-15.0,-227.0,-54.0,-48.0,24.0,1
173.0,-16.0,-229.0,-57.0,-52.0,23.0,1
171.0,-16.0,-227.0,-58.0,-56.0,23.0,1
172.0,-16.0,-225.0,-60.0,-59.0,24.0,1
169.0,-12.0,-228.0,-61.0,-63.0,24.0,1
171.0,-14.0,-224.0,-65.0,-67.0,25.0,1
167.0,-11.0,-228.0,-66.0,-68.0,26.0,1
170.0,-14.0,-227.0,-64.0,-70.0,27.0,1
171.0,-15.0,-230.0,-65.0,-72.0,28.0,1
174.0,-16.0,-232.0,-65.0,-73.0,30.0,1
168.0,-17.0,-231.0,-65.0,-74.0,32.0,1
171.0,-17.0,-231.0,-64.0,-75.0,34.0,1
171.0,-16.0,-229.0,-62.0,-76.0,34.0,1
170.0,-15.0,-228.0,-60.0,-76.0,34.0,1
172.0,-12.0,-230.0,-63.0,-76.0,35.0,1
169.0,-16.0,-232.0,-62.0,-76.0,35.0,1
171.0,-17.0,-236.0,-60.0,-77.0,36.0,1
172.0,-16.0,-232.0,-59.0,-76.0,37.0,1
173.0,-18.0,-232.0,-59.0,-75.0,36.0,1
169.0,-13.0,-233.0,-57.0,-74.0,33.0,1
169.0,-15.0,-235.0,-56.0,-70.0,33.0,1
172.0,-18.0,-233.0,-57.0,-64.0,29.0,1
171.0,-18.0,-235.0,-59.0,-61.0,28.0,1
168.0,-16.0,-232.0,-59.0,-57.0,26.0,1
171.0,-16.0,-232.0,-60.0,-55.0,24.0,1
169.0,-12.0,-231.0,-58.0,-51.0,21.0,1
170.0,-15.0,-231.0,-58.0,-46.0,20.0,1
169.0,-15.0,-233.0,-59.0,-44.0,17.0,1
169.0,-15.0,-235.0,-58.0,-41.0,16.0,1
169.0,-15.0,-230.0,-60.0,-40.0,16.0,1
171.0,-16.0,-225.0,-62.0,-40.0,16.0,1
170.0,-14.0,-230.0,-67.0,-44.0,16.0,1
165.0,-15.0,-227.0,-74.0,-48.0,17.0,1
168.0,-15.0,-230.0,-80.0,-53.0,17.0,1
166.0,-16.0,-226.0,-88.0,-56.0,20.0,1
168.0,-12.0,-227.0,-94.0,-64.0,22.0,1
164.0,-16.0,-229.0,-95.0,-72.0,25.0,1
170.0,-15.0,-227.0,-95.0,-81.0,28.0,1
167.0,-17.0,-229.0,-94.0,-89.0,31.0,1
167.0,-13.0,-233.0,-89.0,-95.0,34.0,1
164.0,-15.0,-230.0,-89.0,-99.0,36.0,1
166.0,-14.0,-232.0,-87.0,-103.0,37.0,1
165.0,-12.0,-235.0,-88.0,-103.0,35.0,1
163.0,-13.0,-232.0,-87.0,-104.0,35.0,1
166.0,-15.0,-232.0,-87.0,-106.0,35.0,1
164.0,-16.0,-230.0,-85.0,-104.0,33.0,1
167.0,-14.0,-234.0,-85.0,-103.0,29.0,1
167.0,-16.0,-235.0,-85.0,-102.0,31.0,1
169.0,-10.0,-230.0,-85.0,-100.0,28.0,1
167.0,-13.0,-236.0,-81.0,-101.0,28.0,1
165.0,-17.0,-233.0,-82.0,-100.0,27.0,1
167.0,-15.0,-236.0,-82.0,-98.0,28.0,1
166.0,-17.0,-237.0,-83.0,-97.0,29.0,1
166.0,-10.0,-234.0,-84.0,-96.0,31.0,1
166.0,-12.0,-234.0,-85.0,-96.0,33.0,1
168.0,-14.0,-235.0,-85.0,-98.0,38.0,1
167.0,-14.0,-232.0,-84.0,-102.0,41.0,1
165.0,-16.0,-234.0,-86.0,-105.0,45.0,1
164.0,-11.0,-234.0,-88.0,-108.0,48.0,1
164.0,-11.0,-234.0,-92.0,-110.0,49.0,1
162.0,-13.0,-233.0,-97.0,-111.0,51.0,1
165.0,-15.0,-230.0,-97.0,-114.0,54.0,1
164.0,-11.0,-232.0,-94.0,-114.0,55.0,1
163.0,-14.0,-238.0,-92.0,-115.0,55.0,1
164.0,-16.0,-233.0,-90.0,-113.0,53.0,1
163.0,-16.0,-236.0,-87.0,-110.0,51.0,1
160.0,-14.0,-239.0,-88.0,-106.0,47.0,1
161.0,-15.0,-236.0,-85.0,-100.0,43.0,1
162.0,-16.0,-237.0,-81.0,-94.0,41.0,1
170.0,-16.0,-235.0,-77.0,-87.0,39.0,1
163.0,-15.0,-240.0,-72.0,-81.0,37.0,1
161.0,-16.0,-243.0,-68.0,-74.0,34.0,1
163.0,-15.0,-242.0,-66.0,-67.0,31.0,1
162.0,-14.0,-236.0,-64.0,-60.0,30.0,1
166.0,-15.0,-239.0,-63.0,-54.0,28.0,1
161.0,-13.0,-240.0,-66.0,-47.0,27.0,1
161.0,-13.0,-238.0,-66.0,-43.0,25.0,1
160.0,-12.0,-234.0,-66.0,-39.0,25.0,1
162.0,-13.0,-236.0,-66.0,-35.0,24.0,1
162.0,-17.0,-239.0,-67.0,-32.0,25.0,1
160.0,-14.0,-236.0,-69.0,-30.0,26.0,1
160.0,-16.0,-238.0,-71.0,-28.0,26.0,1
162.0,-12.0,-235.0,-71.0,-27.0,26.0,1
162.0,-16.0,-238.0,-71.0,-28.0,26.0,1
159.0,-15.0,-236.0,-70.0,-29.0,26.0,1
160.0,-12.0,-233.0,-72.0,-28.0,26.0,1
158.0,-13.0,-231.0,-71.0,-31.0,25.0,1
159.0,-15.0,-234.0,-71.0,-32.0,26.0,1
161.0,-15.0,-235.0,-72.0,-35.0,26.0,1
161.0,-14.0,-235.0,-71.0,-35.0,26.0,1
159.0,-12.0,-235.0,-73.0,-36.0,26.0,1
164.0,-16.0,-230.0,-72.0,-37.0,27.0,1
159.0,-15.0,-234.0,-73.0,-38.0,26.0,1
162.0,-15.0,-237.0,-73.0,-37.0,25.0,1
163.0,-16.0,-239.0,-75.0,-38.0,22.0,1
161.0,-16.0,-242.0,-76.0,-37.0,21.0,1
162.0,-18.0,-239.0,-80.0,-35.0,18.0,1
162.0,-15.0,-240.0,-80.0,-33.0,16.0,1
161.0,-14.0,-236.0,-81.0,-31.0,14.0,1
163.0,-13.0,-243.0,-81.0,-30.0,11.0,1
159.0,-16.0,-239.0,-81.0,-29.0,9.0,1
162.0,-14.0,-238.0,-77.0,-26.0,10.0,1
158.0,-14.0,-242.0,-74.0,-25.0,9.0,1
158.0,-15.0,-239.0,-69.0,-22.0,9.0,1
160.0,-15.0,-241.0,-67.0,-19.0,8.0,1
160.0,-15.0,-234.0,-63.0,-19.0,9.0,1
159.0,-16.0,-237.0,-59.0,-17.0,8.0,1
158.0,-15.0,-239.0,-57.0,-16.0,8.0,1
159.0,-14.0,-235.0,-53.0,-15.0,7.0,1
161.0,-13.0,-239.0,-53.0,-12.0,6.0,1
161.0,-13.0,-238.0,-51.0,-10.0,3.0,1
160.0,-15.0,-239.0,-51.0,-6.0,2.0,1
159.0,-15.0,-240.0,-51.0,-2.0,1.0,1
156.0,-16.0,-241.0,-50.0,-1.0,0.0,1
160.0,-16.0,-238.0,-51.0,2.0,-2.0,1
162.0,-14.0,-237.0,-53.0,4.0,-3.0,1
159.0,-14.0,-236.0,-53.0,5.0,-5.0,1
164.0,-15.0,-238.0,-55.0,6.0,-5.0,1
161.0,-14.0,-237.0,-56.0,8.0,-5.0,1
163.0,-18.0,-238.0,-54.0,9.0,-7.0,1
158.0,-12.0,-238.0,-53.0,10.0,-8.0,1
158.0,-15.0,-237.0,-55.0,10.0,-9.0,1
159.0,-12.0,-237.0,-53.0,9.0,-9.0,1
161.0,-14.0,-238.0,-54.0,11.0,-8.0,1
162.0,-14.0,-237.0,-53.0,11.0,-9.0,1
160.0,-14.0,-241.0,-51.0,11.0,-6.0,1
161.0,-17.0,-240.0,-49.0,11.0,-6.0,1
161.0,-13.0,-237.0,-47.0,11.0,-5.0,1
158.0,-14.0,-238.0,-47.0,14.0,-6.0,1
161.0,-14.0,-240.0,-46.0,15.0,-7.0,1
159.0,-14.0,-240.0,-47.0,20.0,-6.0,1
160.0,-16.0,-239.0,-45.0,24.0,-7.0,1
157.0,-15.0,-240.0,-44.0,26.0,-7.0,1
159.0,-12.0,-238.0,-45.0,28.0,-7.0,1
162.0,-16.0,-235.0,-41.0,30.0,-6.0,1
160.0,-14.0,-245.0,-38.0,29.0,-7.0,1
160.0,-13.0,-239.0,-37.0,30.0,-6.0,1
162.0,-14.0,-235.0,-37.0,28.0,-8.0,1
157.0,-15.0,-240.0,-39.0,28.0,-8.0,1
161.0,-16.0,-234.0,-42.0,27.0,-9.0,1
160.0,-15.0,-236.0,-46.0,25.0,-10.0,1
160.0,-12.0,-239.0,-51.0,23.0,-12.0,1
160.0,-12.0,-234.0,-55.0,18.0,-13.0,1
159.0,-11.0,-234.0,-57.0,16.0,-13.0,1
161.0,-15.0,-231.0,-60.0,11.0,-13.0,1
160.0,-13.0,-236.0,-57.0,7.0,-11.0,1
157.0,-14.0,-238.0,-57.0,1.0,-11.0,1
156.0,-13.0,-236.0,-56.0,-2.0,-8.0,1
157.0,-12.0,-237.0,-56.0,-5.0,-8.0,1
160.0,-17.0,-237.0,-53.0,-7.0,-6.0,1
158.0,-13.0,-238.0,-49.0,-7.0,-4.0,1
158.0,-10.0,-238.0,-47.0,-8.0,-3.0,1
161.0,-19.0,-238.0,-48.0,-7.0,-3.0,1
156.0,-14.0,-239.0,-46.0,-5.0,-3.0,1
159.0,-13.0,-238.0,-47.0,-4.0,-3.0,1
159.0,-11.0,-236.0,-47.0,-2.0,-4.0,1
159.0,-14.0,-238.0,-48.0,0.0,-6.0,1
158.0,-18.0,-239.0,-48.0,0.0,-7.0,1
162.0,-15.0,-239.0,-48.0,1.0,-8.0,1
160.0,-15.0,-238.0,-51.0,2.0,-7.0,1
162.0,-14.0,-238.0,-50.0,3.0,-7.0,1
160.0,-12.0,-237.0,-49.0,1.0,-8.0,1
158.0,-14.0,-239.0,-48.0,0.0,-8.0,1
161.0,-14.0,-238.0,-49.0,-2.0,-7.0,1
158.0,-12.0,-238.0,-48.0,-3.0,-6.0,1
161.0,-14.0,-238.0,-46.0,-3.0,-6.0,1
160.0,-13.0,-237.0,-46.0,-3.0,-6.0,1
157.0,-10.0,-240.0,-45.0,-3.0,-4.0,1
157.0,-12.0,-236.0,-46.0,-3.0,-3.0,1
156.0,-12.0,-238.0,-45.0,-2.0,-2.0,1
155.0,-12.0,-236.0,-43.0,-1.0,-2.0,1
159.0,-16.0,-239.0,-43.0,-1.0,-2.0,1
156.0,-16.0,-238.0,-41.0,1.0,-2.0,1
160.0,-17.0,-240.0,-41.0,2.0,-2.0,1
158.0,-15.0,-239.0,-42.0,4.0,-4.0,1
157.0,-12.0,-236.0,-42.0,4.0,-5.0,1
161.0,-15.0,-239.0,-43.0,4.0,-5.0,1
156.0,-13.0,-242.0,-43.0,4.0,-5.0,1
162.0,-18.0,-242.0,-43.0,5.0,-3.0,1
161.0,-12.0,-239.0,-44.0,8.0,-6.0,1
161.0,-15.0,-241.0,-47.0,9.0,-7.0,1
157.0,-13.0,-236.0,-42.0,13.0,-6.0,1
160.0,-14.0,-240.0,-39.0,15.0,-4.0,1
158.0,-15.0,-241.0,-39.0,15.0,-2.0,1
159.0,-15.0,-238.0,-38.0,17.0,-2.0,1
159.0,-12.0,-240.0,-36.0,17.0,-3.0,1
160.0,-14.0,-241.0,-35.0,18.0,-1.0,1
160.0,-14.0,-238.0,-34.0,19.0,-1.0,1
158.0,-12.0,-234.0,-35.0,19.0,-1.0,1
157.0,-13.0,-236.0,-35.0,20.0,-1.0,1
160.0,-15.0,-237.0,-36.0,20.0,-1.0,1
159.0,-17.0,-236.0,-37.0,22.0,-2.0,1
159.0,-14.0,-237.0,-40.0,23.0,-2.0,1
160.0,-15.0,-239.0,-40.0,22.0,-3.0,1
160.0,-11.0,-241.0,-41.0,22.0,-5.0,1
153.0,-11.0,-238.0,-42.0,22.0,-5.0,1
160.0,-13.0,-237.0,-42.0,23.0,-3.0,1
157.0,-13.0,-237.0,-43.0,24.0,-6.0,1
158.0,-16.0,-237.0,-45.0,24.0,-5.0,1
160.0,-16.0,-239.0,-43.0,26.0,-6.0,1
161.0,-10.0,-241.0,-44.0,26.0,-6.0,1
160.0,-16.0,-239.0,-44.0,26.0,-7.0,1
158.0,-16.0,-241.0,-42.0,25.0,-6.0,1
160.0,-15.0,-236.0,-40.0,26.0,-4.0,1
160.0,-13.0,-237.0,-40.0,27.0,-5.0,1
157.0,-12.0,-237.0,-40.0,27.0,-3.0,1
161.0,-17.0,-240.0,-39.0,28.0,-3.0,1
158.0,-12.0,-240.0,-37.0,28.0,-4.0,1
158.0,-11.0,-237.0,-37.0,30.0,-4.0,1
161.0,-15.0,-238.0,-38.0,30.0,-5.0,1
160.0,-15.0,-237.0,-37.0,32.0,-4.0,1
159.0,-17.0,-240.0,-39.0,34.0,-6.0,1
157.0,-9.0,-241.0,-40.0,34.0,-7.0,1
158.0,-13.0,-238.0,-38.0,35.0,-9.0,1
158.0,-12.0,-241.0,-40.0,35.0,-10.0,1
162.0,-14.0,-236.0,-41.0,36.0,-11.0,1
159.0,-15.0,-236.0,-42.0,35.0,-10.0,1
163.0,-14.0,-237.0,-43.0,35.0,-10.0,1
158.0,-14.0,-238.0,-44.0,35.0,-11.0,1
159.0,-13.0,-238.0,-43.0,34.0,-11.0,1
160.0,-15.0,-238.0,-43.0,32.0,-10.0,1
158.0,-14.0,-238.0,-43.0,32.0,-9.0,1
160.0,-13.0,-234.0,-41.0,29.0,-8.0,1
161.0,-14.0,-235.0,-39.0,28.0,-7.0,1
160.0,-15.0,-236.0,-36.0,27.0,-6.0,1
158.0,-14.0,-238.0,-36.0,27.0,-4.0,1
160.0,-13.0,-235.0,-33.0,25.0,-3.0,1
158.0,-14.0,-237.0,-33.0,25.0,-3.0,1
159.0,-13.0,-236.0,-33.0,24.0,-2.0,1
161.0,-14.0,-236.0,-33.0,22.0,-2.0,1
161.0,-15.0,-237.0,-33.0,21.0,-3.0,1
161.0,-16.0,-236.0,-35.0,18.0,-4.0,1
159.0,-16.0,-237.0,-37.0,16.0,-4.0,1
160.0,-14.0,-236.0,-39.0,14.0,-5.0,1
160.0,-13.0,-238.0,-43.0,11.0,-5.0,1
159.0,-15.0,-238.0,-45.0,9.0,-6.0,1
160.0,-15.0,-241.0,-44.0,6.0,-6.0,1
161.0,-16.0,-235.0,-43.0,3.0,-5.0,1
160.0,-14.0,-240.0,-43.0,3.0,-4.0,1
161.0,-17.0,-240.0,-44.0,4.0,-3.0,1
159.0,-15.0,-236.0,-43.0,7.0,-3.0,1
157.0,-14.0,-239.0,-43.0,9.0,-2.0,1
160.0,-16.0,-237.0,-42.0,10.0,-2.0,1
161.0,-15.0,-239.0,-39.0,12.0,-2.0,1
161.0,-16.0,-240.0,-37.0,14.0,0.0,1
161.0,-14.0,-235.0,-33.0,17.0,1.0,1
158.0,-14.0,-236.0,-30.0,18.0,1.0,1
160.0,-17.0,-235.0,-29.0,20.0,1.0,1
158.0,-13.0,-239.0,-29.0,22.0,1.0,1
161.0,-17.0,-239.0,-30.0,24.0,-1.0,1
156.0,-12.0,-240.0,-33.0,26.0,-3.0,1
158.0,-15.0,-236.0,-38.0,26.0,-4.0,1
159.0,-15.0,-237.0,-41.0,22.0,-5.0,1
160.0,-17.0,-238.0,-42.0,21.0,-6.0,1
159.0,-13.0,-235.0,-46.0,19.0,-8.0,1
159.0,-12.0,-239.0,-49.0,15.0,-8.0,1
160.0,-16.0,-237.0,-51.0,13.0,-7.0,1
158.0,-12.0,-233.0,-50.0,11.0,-7.0,1
158.0,-13.0,-241.0,-49.0,8.0,-7.0,1
161.0,-14.0,-238.0,-49.0,8.0,-6.0,1
158.0,-16.0,-236.0,-50.0,6.0,-5.0,1
159.0,-12.0,-238.0,-48.0,7.0,-4.0,1
161.0,-19.0,-238.0,-48.0,7.0,-3.0,1
159.0,-14.0,-238.0,-45.0,6.0,-3.0,1
160.0,-13.0,-240.0,-44.0,9.0,-2.0,1
160.0,-16.0,-239.0,-43.0,12.0,-3.0,1
158.0,-16.0,-237.0,-42.0,14.0,-3.0,1
159.0,-13.0,-239.0,-43.0,18.0,-4.0,1
159.0,-14.0,-234.0,-43.0,18.0,-6.0,1
160.0,-15.0,-239.0,-44.0,20.0,-7.0,1
161.0,-14.0,-236.0,-43.0,20.0,-8.0,1
156.0,-16.0,-238.0,-43.0,22.0,-8.0,1
162.0,-15.0,-238.0,-42.0,23.0,-9.0,1
160.0,-16.0,-238.0,-44.0,23.0,-9.0,1
160.0,-17.0,-239.0,-43.0,22.0,-8.0,1
161.0,-15.0,-238.0,-44.0,23.0,-9.0,1
160.0,-15.0,-238.0,-43.0,24.0,-10.0,1
159.0,-11.0,-235.0,-44.0,23.0,-9.0,1
158.0,-15.0,-236.0,-44.0,22.0,-7.0,1
161.0,-15.0,-238.0,-44.0,21.0,-8.0,1
159.0,-13.0,-237.0,-41.0,21.0,-8.0,1
160.0,-14.0,-242.0,-40.0,21.0,-7.0,1
159.0,-15.0,-235.0,-40.0,23.0,-5.0,1
160.0,-17.0,-236.0,-41.0,23.0,-5.0,1
160.0,-15.0,-239.0,-42.0,22.0,-5.0,1
159.0,-16.0,-232.0,-40.0,22.0,-6.0,1
161.0,-14.0,-236.0,-40.0,22.0,-5.0,1
160.0,-15.0,-236.0,-40.0,23.0,-4.0,1
160.0,-15.0,-237.0,-40.0,24.0,-4.0,1
162.0,-14.0,-241.0,-43.0,24.0,-7.0,1
162.0,-16.0,-236.0,-42.0,22.0,-7.0,1
160.0,-16.0,-238.0,-43.0,24.0,-7.0,1
163.0,-18.0,-235.0,-42.0,23.0,-9.0,1
159.0,-13.0,-236.0,-42.0,25.0,-9.0,1
161.0,-15.0,-236.0,-43.0,27.0,-9.0,1
159.0,-16.0,-237.0,-43.0,27.0,-9.0,1
160.0,-14.0,-238.0,-40.0,28.0,-8.0,1
161.0,-13.0,-233.0,-39.0,30.0,-8.0,1
161.0,-16.0,-238.0,-39.0,31.0,-7.0,1
159.0,-13.0,-235.0,-38.0,30.0,-7.0,1
161.0,-13.0,-236.0,-37.0,29.0,-6.0,1
158.0,-12.0,-239.0,-37.0,27.0,-6.0,1
158.0,-13.0,-233.0,-38.0,26.0,-5.0,1
158.0,-13.0,-234.0,-37.0,24.0,-4.0,1
160.0,-15.0,-236.0,-38.0,22.0,-4.0,1
161.0,-17.0,-239.0,-38.0,21.0,-4.0,1
163.0,-14.0,-237.0,-39.0,20.0,-4.0,1
158.0,-13.0,-237.0,-40.0,18.0,-2.0,1
160.0,-18.0,-236.0,-38.0,15.0,-3.0,1
159.0,-14.0,-237.0,-41.0,13.0,-2.0,1
158.0,-16.0,-234.0,-42.0,12.0,-3.0,1
161.0,-14.0,-239.0,-42.0,10.0,-2.0,1
161.0,-14.0,-242.0,-42.0,8.0,-2.0,1
160.0,-15.0,-240.0,-42.0,7.0,-2.0,1
158.0,-14.0,-235.0,-44.0,6.0,-2.0,1
162.0,-16.0,-235.0,-43.0,6.0,-3.0,1
160.0,-15.0,-237.0,-43.0,4.0,-3.0,1
160.0,-12.0,-236.0,-43.0,2.0,-3.0,1
160.0,-14.0,-239.0,-43.0,2.0,-3.0,1
160.0,-9.0,-239.0,-41.0,3.0,-1.0,1
160.0,-12.0,-236.0,-43.0,2.0,-3.0,1
159.0,-13.0,-238.0,-43.0,5.0,-5.0,1
160.0,-14.0,-238.0,-45.0,5.0,-4.0,1
158.0,-15.0,-239.0,-44.0,7.0,-5.0,1
159.0,-14.0,-238.0,-44.0,9.0,-5.0,1
160.0,-16.0,-239.0,-41.0,11.0,-6.0,1
163.0,-16.0,-238.0,-41.0,13.0,-6.0,1
159.0,-15.0,-238.0,-43.0,14.0,-6.0,1
160.0,-14.0,-239.0,-43.0,16.0,-6.0,1
159.0,-14.0,-236.0,-42.0,18.0,-7.0,1
160.0,-14.0,-235.0,-42.0,17.0,-8.0,1
158.0,-15.0,-236.0,-43.0,19.0,-8.0,1
162.0,-16.0,-239.0,-45.0,18.0,-8.0,1
160.0,-17.0,-240.0,-45.0,18.0,-8.0,1
159.0,-16.0,-237.0,-45.0,19.0,-7.0,1
160.0,-15.0,-238.0,-44.0,18.0,-8.0,1
162.0,-18.0,-240.0,-44.0,19.0,-7.0,1
160.0,-14.0,-238.0,-43.0,19.0,-6.0,1
159.0,-13.0,-242.0,-42.0,21.0,-7.0,1
160.0,-15.0,-240.0,-41.0,21.0,-6.0,1
160.0,-13.0,-239.0,-40.0,22.0,-5.0,1
158.0,-18.0,-240.0,-41.0,23.0,-6.0,1
160.0,-14.0,-234.0,-40.0,23.0,-6.0,1
159.0,-15.0,-241.0,-41.0,23.0,-6.0,1
160.0,-16.0,-238.0,-41.0,24.0,-5.0,1
162.0,-14.0,-238.0,-42.0,24.0,-7.0,1
160.0,-13.0,-237.0,-42.0,25.0,-8.0,1
157.0,-15.0,-237.0,-43.0,25.0,-9.0,1
163.0,-13.0,-235.0,-40.0,26.0,-9.0,1
160.0,-15.0,-242.0,-42.0,25.0,-9.0,1
161.0,-14.0,-239.0,-43.0,26.0,-8.0,1
159.0,-14.0,-238.0,-43.0,27.0,-9.0,1
161.0,-18.0,-238.0,-43.0,27.0,-9.0,1
159.0,-14.0,-241.0,-41.0,26.0,-9.0,1
159.0,-15.0,-239.0,-40.0,27.0,-8.0,1
161.0,-14.0,-239.0,-40.0,26.0,-9.0,1
159.0,-15.0,-236.0,-40.0,29.0,-8.0,1
163.0,-15.0,-237.0,-39.0,30.0,-7.0,1
160.0,-19.0,-238.0,-41.0,30.0,-7.0,1
157.0,-15.0,-235.0,-39.0,31.0,-7.0,1
159.0,-19.0,-241.0,-38.0,32.0,-7.0,1
162.0,-16.0,-236.0,-36.0,31.0,-6.0,1
158.0,-16.0,-234.0,-36.0,32.0,-6.0,1
161.0,-20.0,-234.0,-38.0,31.0,-7.0,1
161.0,-12.0,-240.0,-39.0,31.0,-8.0,1
161.0,-16.0,-236.0,-39.0,31.0,-9.0,1
158.0,-11.0,-234.0,-40.0,31.0,-10.0,1
160.0,-16.0,-235.0,-42.0,30.0,-9.0,1
159.0,-18.0,-236.0,-42.0,32.0,-10.0,1
162.0,-16.0,-241.0,-44.0,31.0,-12.0,1
161.0,-14.0,-236.0,-44.0,32.0,-13.0,1
162.0,-16.0,-236.0,-45.0,34.0,-13.0,1
158.0,-15.0,-237.0,-45.0,34.0,-13.0,1
162.0,-16.0,-236.0,-44.0,35.0,-11.0,1
162.0,-18.0,-245.0,-44.0,36.0,-12.0,1
161.0,-16.0,-238.0,-43.0,37.0,-13.0,1
160.0,-14.0,-239.0,-42.0,37.0,-12.0,1
160.0,-14.0,-240.0,-40.0,38.0,-12.0,1
159.0,-15.0,-235.0,-39.0,39.0,-11.0,1
159.0,-13.0,-238.0,-37.0,39.0,-11.0,1
158.0,-15.0,-238.0,-35.0,39.0,-11.0,1
160.0,-12.0,-238.0,-34.0,39.0,-10.0,1
162.0,-14.0,-234.0,-35.0,40.0,-11.0,1
162.0,-15.0,-237.0,-33.0,41.0,-12.0,1
161.0,-14.0,-235.0,-34.0,41.0,-11.0,1
159.0,-13.0,-237.0,-35.0,41.0,-12.0,1
163.0,-17.0,-239.0,-36.0,42.0,-12.0,1
160.0,-12.0,-238.0,-36.0,41.0,-11.0,1
159.0,-16.0,-236.0,-36.0,40.0,-11.0,1
160.0,-13.0,-240.0,-36.0,42.0,-13.0,1
158.0,-12.0,-235.0,-38.0,42.0,-15.0,1
163.0,-14.0,-236.0,-40.0,41.0,-15.0,1
161.0,-14.0,-235.0,-41.0,42.0,-15.0,1
161.0,-13.0,-235.0,-41.0,41.0,-14.0,1
160.0,-12.0,-238.0,-39.0,39.0,-14.0,1
160.0,-14.0,-235.0,-40.0,39.0,-13.0,1
161.0,-9.0,-244.0,-39.0,39.0,-14.0,1
162.0,-13.0,-235.0,-39.0,40.0,-12.0,1
160.0,-13.0,-236.0,-37.0,39.0,-12.0,1
161.0,-12.0,-238.0,-37.0,40.0,-10.0,1
162.0,-16.0,-239.0,-38.0,41.0,-11.0,1
163.0,-17.0,-235.0,-38.0,39.0,-12.0,1
164.0,-18.0,-236.0,-40.0,40.0,-13.0,1
164.0,-16.0,-241.0,-39.0,40.0,-12.0,1
160.0,-15.0,-237.0,-39.0,40.0,-12.0,1
160.0,-13.0,-236.0,-41.0,39.0,-11.0,1
162.0,-16.0,-235.0,-41.0,37.0,-11.0,1
162.0,-11.0,-238.0,-43.0,36.0,-14.0,1
161.0,-15.0,-236.0,-44.0,37.0,-15.0,1
163.0,-13.0,-238.0,-45.0,37.0,-13.0,1
162.0,-14.0,-236.0,-46.0,35.0,-12.0,1
163.0,-16.0,-237.0,-46.0,35.0,-11.0,1
160.0,-17.0,-238.0,-46.0,34.0,-10.0,1
164.0,-16.0,-238.0,-43.0,34.0,-11.0,1
163.0,-16.0,-237.0,-42.0,33.0,-10.0,1
159.0,-13.0,-234.0,-40.0,34.0,-9.0,1
162.0,-17.0,-235.0,-40.0,34.0,-10.0,1
160.0,-15.0,-234.0,-38.0,34.0,-8.0,1
155.0,-14.0,-237.0,-39.0,35.0,-9.0,1
163.0,-15.0,-233.0,-39.0,36.0,-9.0,1
161.0,-12.0,-236.0,-40.0,35.0,-10.0,1
162.0,-14.0,-237.0,-41.0,34.0,-12.0,1
162.0,-12.0,-235.0,-41.0,33.0,-11.0,1
159.0,-16.0,-237.0,-43.0,32.0,-12.0,1
163.0,-15.0,-238.0,-45.0,30.0,-12.0,1
161.0,-16.0,-234.0,-45.0,30.0,-11.0,1
162.0,-14.0,-238.0,-45.0,27.0,-12.0,1
162.0,-15.0,-238.0,-45.0,27.0,-11.0,1
164.0,-13.0,-239.0,-45.0,27.0,-11.0,1
161.0,-14.0,-236.0,-44.0,27.0,-10.0,1
163.0,-15.0,-235.0,-43.0,26.0,-9.0,1
156.0,-12.0,-237.0,-42.0,25.0,-7.0,1
161.0,-14.0,-235.0,-41.0,26.0,-6.0,1
162.0,-13.0,-238.0,-40.0,28.0,-7.0,1
160.0,-15.0,-238.0,-38.0,29.0,-8.0,1
165.0,-15.0,-234.0,-39.0,31.0,-8.0,1
162.0,-15.0,-236.0,-40.0,34.0,-9.0,1
162.0,-14.0,-234.0,-41.0,33.0,-9.0,1
163.0,-18.0,-234.0,-42.0,33.0,-10.0,1
162.0,-14.0,-234.0,-44.0,33.0,-10.0,1
162.0,-20.0,-237.0,-42.0,31.0,-9.0,1
160.0,-17.0,-235.0,-42.0,33.0,-11.0,1
160.0,-15.0,-236.0,-43.0,32.0,-13.0,1
162.0,-13.0,-237.0,-45.0,32.0,-15.0,1
163.0,-18.0,-237.0,-45.0,32.0,-15.0,1
161.0,-15.0,-235.0,-46.0,33.0,-15.0,1
162.0,-12.0,-237.0,-45.0,33.0,-16.0,1
163.0,-16.0,-234.0,-44.0,34.0,-15.0,1
163.0,-16.0,-235.0,-44.0,33.0,-16.0,1
165.0,-15.0,-237.0,-42.0,33.0,-17.0,1
162.0,-15.0,-236.0,-39.0,35.0,-15.0,1
162.0,-14.0,-239.0,-39.0,37.0,-16.0,1
161.0,-13.0,-235.0,-39.0,40.0,-16.0,1
164.0,-13.0,-235.0,-40.0,42.0,-16.0,1
162.0,-17.0,-233.0,-40.0,43.0,-13.0,1
164.0,-18.0,-233.0,-40.0,41.0,-16.0,1
163.0,-14.0,-234.0,-41.0,41.0,-17.0,1
163.0,-15.0,-235.0,-40.0,40.0,-18.0,1
167.0,-17.0,-237.0,-42.0,39.0,-19.0,1
162.0,-15.0,-233.0,-42.0,37.0,-22.0,1
162.0,-15.0,-232.0,-44.0,35.0,-22.0,1
163.0,-14.0,-237.0,-47.0,34.0,-22.0,1
164.0,-15.0,-237.0,-49.0,35.0,-25.0,1
163.0,-15.0,-233.0,-52.0,36.0,-25.0,1
162.0,-14.0,-236.0,-50.0,37.0,-26.0,1
163.0,-15.0,-233.0,-50.0,35.0,-28.0,1
163.0,-16.0,-237.0,-51.0,35.0,-27.0,1
161.0,-13.0,-235.0,-52.0,34.0,-28.0,1
163.0,-15.0,-237.0,-51.0,33.0,-27.0,1
165.0,-15.0,-235.0,-50.0,33.0,-25.0,1
164.0,-18.0,-233.0,-49.0,32.0,-25.0,1
165.0,-13.0,-236.0,-47.0,31.0,-24.0,1
163.0,-15.0,-238.0,-46.0,31.0,-25.0,1
164.0,-13.0,-236.0,-47.0,33.0,-23.0,1
166.0,-15.0,-236.0,-45.0,34.0,-22.0,1
164.0,-15.0,-233.0,-45.0,34.0,-21.0,1
163.0,-15.0,-233.0,-43.0,35.0,-21.0,1
164.0,-14.0,-234.0,-41.0,35.0,-19.0,1
164.0,-13.0,-236.0,-40.0,37.0,-20.0,1
166.0,-15.0,-237.0,-40.0,39.0,-18.0,1
163.0,-15.0,-239.0,-38.0,39.0,-17.0,1
163.0,-16.0,-239.0,-40.0,41.0,-19.0,1
163.0,-16.0,-235.0,-41.0,44.0,-19.0,1
159.0,-10.0,-242.0,-41.0,45.0,-18.0,1
162.0,-14.0,-230.0,-43.0,46.0,-19.0,1
164.0,-15.0,-240.0,-44.0,44.0,-20.0,1
164.0,-16.0,-233.0,-45.0,44.0,-21.0,1
162.0,-11.0,-233.0,-46.0,44.0,-22.0,1
163.0,-13.0,-238.0,-45.0,43.0,-21.0,1
163.0,-13.0,-232.0,-44.0,43.0,-19.0,1
163.0,-15.0,-235.0,-42.0,42.0,-19.0,1
162.0,-15.0,-239.0,-41.0,42.0,-18.0,1
164.0,-16.0,-236.0,-37.0,41.0,-17.0,1
164.0,-14.0,-238.0,-36.0,42.0,-16.0,1
164.0,-14.0,-235.0,-36.0,43.0,-15.0,1
163.0,-12.0,-234.0,-35.0,44.0,-14.0,1
161.0,-12.0,-238.0,-35.0,43.0,-13.0,1
169.0,-14.0,-234.0,-33.0,43.0,-12.0,1
163.0,-13.0,-234.0,-35.0,45.0,-11.0,1
163.0,-16.0,-234.0,-34.0,48.0,-11.0,1
165.0,-12.0,-232.0,-35.0,48.0,-12.0,1
163.0,-14.0,-231.0,-34.0,47.0,-14.0,1
162.0,-11.0,-231.0,-36.0,45.0,-13.0,1
164.0,-19.0,-236.0,-37.0,43.0,-10.0,1
165.0,-15.0,-233.0,-38.0,43.0,-13.0,1
162.0,-14.0,-233.0,-39.0,43.0,-14.0,1
165.0,-12.0,-234.0,-41.0,41.0,-15.0,1
163.0,-13.0,-230.0,-43.0,39.0,-17.0,1
164.0,-15.0,-233.0,-44.0,37.0,-17.0,1
169.0,-17.0,-235.0,-46.0,38.0,-17.0,1
167.0,-15.0,-235.0,-44.0,36.0,-16.0,1
163.0,-11.0,-234.0,-42.0,36.0,-16.0,1
164.0,-14.0,-231.0,-41.0,35.0,-14.0,1
164.0,-15.0,-230.0,-40.0,36.0,-15.0,1
162.0,-13.0,-235.0,-40.0,37.0,-13.0,1
164.0,-18.0,-237.0,-40.0,37.0,-13.0,1
164.0,-14.0,-233.0,-39.0,38.0,-13.0,1
166.0,-15.0,-233.0,-38.0,37.0,-13.0,1
166.0,-14.0,-232.0,-37.0,38.0,-13.0,1
164.0,-16.0,-236.0,-37.0,39.0,-15.0,1
168.0,-16.0,-231.0,-39.0,40.0,-15.0,1
167.0,-17.0,-236.0,-40.0,40.0,-16.0,1
168.0,-17.0,-232.0,-44.0,39.0,-17.0,1
166.0,-17.0,-230.0,-46.0,40.0,-19.0,1
167.0,-15.0,-235.0,-45.0,40.0,-19.0,1
168.0,-16.0,-236.0,-46.0,39.0,-20.0,1
164.0,-14.0,-232.0,-46.0,36.0,-19.0,1
166.0,-19.0,-233.0,-47.0,35.0,-19.0,1
167.0,-16.0,-231.0,-46.0,36.0,-20.0,1
167.0,-14.0,-236.0,-46.0,34.0,-19.0,1
165.0,-14.0,-233.0,-44.0,34.0,-17.0,1
166.0,-16.0,-231.0,-42.0,35.0,-17.0,1
164.0,-13.0,-233.0,-41.0,35.0,-18.0,1
164.0,-13.0,-235.0,-40.0,36.0,-18.0,1
166.0,-14.0,-236.0,-39.0,38.0,-17.0,1
168.0,-17.0,-232.0,-37.0,38.0,-14.0,1
164.0,-16.0,-234.0,-39.0,39.0,-14.0,1
165.0,-15.0,-235.0,-39.0,40.0,-14.0,1
165.0,-17.0,-230.0,-39.0,42.0,-16.0,1
161.0,-14.0,-234.0,-39.0,42.0,-18.0,1
166.0,-15.0,-230.0,-39.0,45.0,-19.0,1
166.0,-12.0,-235.0,-39.0,47.0,-20.0,1
167.0,-15.0,-232.0,-38.0,49.0,-20.0,1
168.0,-16.0,-234.0,-40.0,52.0,-20.0,1
166.0,-14.0,-234.0,-38.0,52.0,-23.0,1
166.0,-15.0,-234.0,-38.0,54.0,-24.0,1
165.0,-14.0,-233.0,-35.0,54.0,-25.0,1
165.0,-15.0,-234.0,-35.0,55.0,-26.0,1
164.0,-14.0,-232.0,-34.0,56.0,-26.0,1
169.0,-19.0,-232.0,-35.0,56.0,-26.0,1
164.0,-11.0,-233.0,-38.0,58.0,-26.0,1
166.0,-11.0,-234.0,-38.0,56.0,-26.0,1
168.0,-14.0,-233.0,-36.0,53.0,-23.0,1
168.0,-18.0,-233.0,-34.0,52.0,-22.0,1
167.0,-11.0,-230.0,-33.0,53.0,-19.0,1
165.0,-15.0,-235.0,-34.0,54.0,-18.0,1
167.0,-13.0,-231.0,-36.0,52.0,-17.0,1
165.0,-12.0,-235.0,-36.0,49.0,-17.0,1
167.0,-14.0,-232.0,-34.0,47.0,-16.0,1
164.0,-12.0,-231.0,-36.0,44.0,-16.0,1
165.0,-14.0,-230.0,-36.0,43.0,-16.0,1
166.0,-13.0,-232.0,-37.0,40.0,-15.0,1
166.0,-13.0,-233.0,-38.0,39.0,-14.0,1
168.0,-14.0,-229.0,-38.0,38.0,-14.0,1
169.0,-15.0,-231.0,-40.0,38.0,-12.0,1
167.0,-12.0,-231.0,-42.0,36.0,-9.0,1
169.0,-14.0,-230.0,-43.0,34.0,-10.0,1
166.0,-13.0,-229.0,-44.0,31.0,-10.0,1
165.0,-16.0,-234.0,-45.0,30.0,-7.0,1
167.0,-13.0,-232.0,-45.0,26.0,-4.0,1
163.0,-14.0,-226.0,-45.0,24.0,-4.0,1
170.0,-15.0,-225.0,-46.0,18.0,-2.0,1
167.0,-14.0,-228.0,-45.0,16.0,-1.0,1
164.0,-13.0,-230.0,-44.0,12.0,1.0,1
165.0,-13.0,-231.0,-43.0,10.0,2.0,1
166.0,-15.0,-232.0,-41.0,7.0,4.0,1
167.0,-12.0,-228.0,-42.0,5.0,4.0,1
164.0,-14.0,-231.0,-43.0,5.0,4.0,1
166.0,-14.0,-227.0,-44.0,4.0,4.0,1
170.0,-13.0,-230.0,-41.0,3.0,3.0,1
169.0,-13.0,-231.0,-42.0,2.0,2.0,1
168.0,-14.0,-230.0,-42.0,1.0,4.0,1
169.0,-12.0,-230.0,-41.0,-1.0,2.0,1
167.0,-13.0,-234.0,-40.0,-1.0,2.0,1
166.0,-13.0,-231.0,-39.0,0.0,2.0,1
167.0,-15.0,-233.0,-39.0,2.0,2.0,1
167.0,-13.0,-232.0,-39.0,2.0,4.0,1
167.0,-16.0,-232.0,-40.0,5.0,5.0,1
168.0,-15.0,-236.0,-39.0,6.0,5.0,1
167.0,-16.0,-230.0,-38.0,8.0,6.0,1
168.0,-14.0,-233.0,-38.0,7.0,6.0,1
167.0,-14.0,-234.0,-37.0,9.0,6.0,1
167.0,-12.0,-235.0,-37.0,11.0,5.0,1
167.0,-15.0,-233.0,-37.0,13.0,5.0,1
168.0,-15.0,-230.0,-37.0,14.0,6.0,1
165.0,-14.0,-233.0,-37.0,14.0,6.0,1
169.0,-14.0,-235.0,-36.0,14.0,5.0,1
164.0,-12.0,-234.0,-36.0,14.0,6.0,1
164.0,-15.0,-231.0,-39.0,13.0,7.0,1
166.0,-13.0,-234.0,-39.0,12.0,7.0,1
164.0,-15.0,-231.0,-38.0,11.0,7.0,1
169.0,-15.0,-232.0,-38.0,10.0,6.0,1
167.0,-16.0,-232.0,-38.0,10.0,6.0,1
166.0,-15.0,-234.0,-36.0,11.0,7.0,1
169.0,-16.0,-234.0,-37.0,10.0,6.0,1
165.0,-15.0,-233.0,-38.0,10.0,7.0,1
169.0,-16.0,-234.0,-39.0,12.0,4.0,1
164.0,-15.0,-237.0,-39.0,12.0,5.0,1
166.0,-16.0,-232.0,-40.0,13.0,5.0,1
167.0,-15.0,-232.0,-40.0,15.0,4.0,1
167.0,-14.0,-230.0,-41.0,15.0,2.0,1
164.0,-13.0,-233.0,-39.0,15.0,1.0,1
166.0,-14.0,-232.0,-40.0,16.0,2.0,1
168.0,-12.0,-231.0,-42.0,15.0,2.0,1
165.0,-14.0,-232.0,-41.0,15.0,1.0,1
168.0,-14.0,-230.0,-42.0,15.0,1.0,1
166.0,-15.0,-230.0,-42.0,17.0,1.0,1
169.0,-16.0,-234.0,-43.0,18.0,1.0,1
165.0,-13.0,-232.0,-43.0,21.0,1.0,1
167.0,-15.0,-232.0,-42.0,22.0,1.0,1
167.0,-17.0,-237.0,-42.0,23.0,-1.0,1
167.0,-14.0,-232.0,-40.0,28.0,-1.0,1
168.0,-15.0,-229.0,-40.0,29.0,-1.0,1
166.0,-14.0,-232.0,-41.0,30.0,-2.0,1
169.0,-16.0,-233.0,-38.0,32.0,-1.0,1
168.0,-14.0,-234.0,-39.0,34.0,-2.0,1
166.0,-16.0,-233.0,-41.0,36.0,-2.0,1
168.0,-16.0,-232.0,-42.0,36.0,-4.0,1
167.0,-15.0,-234.0,-43.0,38.0,-4.0,1
168.0,-17.0,-236.0,-45.0,39.0,-4.0,1
167.0,-14.0,-233.0,-42.0,40.0,-4.0,1
165.0,-15.0,-233.0,-40.0,41.0,-3.0,1
168.0,-13.0,-231.0,-39.0,43.0,-2.0,1
168.0,-15.0,-233.0,-39.0,44.0,-1.0,1
166.0,-15.0,-232.0,-38.0,45.0,-2.0,1
168.0,-15.0,-236.0,-39.0,47.0,-3.0,1
166.0,-12.0,-232.0,-41.0,47.0,-5.0,1
167.0,-17.0,-234.0,-43.0,48.0,-6.0,1
166.0,-16.0,-229.0,-45.0,50.0,-8.0,1
167.0,-18.0,-231.0,-49.0,51.0,-10.0,1
167.0,-15.0,-229.0,-50.0,49.0,-11.0,1
167.0,-15.0,-228.0,-51.0,47.0,-12.0,1
166.0,-14.0,-227.0,-52.0,45.0,-11.0,1
167.0,-11.0,-231.0,-53.0,41.0,-13.0,1
166.0,-15.0,-229.0,-53.0,38.0,-13.0,1
169.0,-12.0,-233.0,-55.0,36.0,-13.0,1
164.0,-17.0,-231.0,-55.0,33.0,-12.0,1
165.0,-14.0,-228.0,-56.0,31.0,-12.0,1
167.0,-12.0,-229.0,-53.0,27.0,-12.0,1
168.0,-14.0,-228.0,-52.0,25.0,-10.0,1
168.0,-15.0,-230.0,-52.0,22.0,-9.0,1
166.0,-13.0,-231.0,-51.0,19.0,-8.0,1
166.0,-13.0,-229.0,-52.0,16.0,-6.0,1
168.0,-16.0,-232.0,-49.0,15.0,-7.0,1
170.0,-15.0,-232.0,-48.0,13.0,-6.0,1
169.0,-16.0,-231.0,-49.0,11.0,-4.0,1
167.0,-14.0,-230.0,-48.0,11.0,-5.0,1
166.0,-19.0,-231.0,-46.0,11.0,-3.0,1
170.0,-15.0,-237.0,-46.0,12.0,-4.0,1
170.0,-14.0,-234.0,-47.0,10.0,-4.0,1
167.0,-14.0,-232.0,-48.0,10.0,-4.0,1
169.0,-17.0,-235.0,-47.0,10.0,-4.0,1
167.0,-14.0,-235.0,-47.0,11.0,-3.0,1
169.0,-15.0,-234.0,-49.0,13.0,-3.0,1
169.0,-14.0,-229.0,-48.0,14.0,-4.0,1
168.0,-16.0,-231.0,-49.0,15.0,-3.0,1
168.0,-14.0,-231.0,-49.0,15.0,-2.0,1
167.0,-15.0,-233.0,-49.0,16.0,-2.0,1
166.0,-12.0,-237.0,-48.0,14.0,-1.0,1
165.0,-13.0,-230.0,-48.0,16.0,-1.0,1
168.0,-15.0,-230.0,-47.0,13.0,1.0,1
167.0,-15.0,-227.0,-46.0,13.0,2.0,1
165.0,-13.0,-230.0,-45.0,11.0,5.0,1
167.0,-14.0,-232.0,-43.0,7.0,5.0,1
168.0,-14.0,-233.0,-44.0,6.0,5.0,1
167.0,-14.0,-229.0,-42.0,6.0,6.0,1
168.0,-13.0,-233.0,-43.0,4.0,7.0,1
165.0,-16.0,-228.0,-44.0,2.0,6.0,1
166.0,-15.0,-235.0,-44.0,0.0,5.0,1
167.0,-16.0,-232.0,-47.0,-1.0,5.0,1
166.0,-14.0,-229.0,-46.0,-3.0,5.0,1
166.0,-14.0,-232.0,-46.0,-5.0,6.0,1
167.0,-17.0,-233.0,-48.0,-6.0,5.0,1
169.0,-16.0,-231.0,-48.0,-8.0,5.0,1
169.0,-19.0,-230.0,-49.0,-7.0,4.0,1
166.0,-15.0,-236.0,-47.0,-7.0,7.0,1
164.0,-14.0,-230.0,-48.0,-6.0,7.0,1
164.0,-15.0,-233.0,-48.0,-4.0,6.0,1
165.0,-15.0,-228.0,-47.0,-3.0,6.0,1
167.0,-14.0,-229.0,-48.0,-2.0,4.0,1
169.0,-15.0,-231.0,-48.0,-1.0,4.0,1
164.0,-16.0,-228.0,-49.0,2.0,4.0,1
169.0,-18.0,-232.0,-49.0,2.0,3.0,1
166.0,-15.0,-233.0,-52.0,2.0,2.0,1
166.0,-14.0,-232.0,-52.0,3.0,-1.0,1
166.0,-12.0,-232.0,-55.0,2.0,1.0,1
166.0,-15.0,-237.0,-55.0,0.0,1.0,1
167.0,-15.0,-236.0,-55.0,1.0,1.0,1
168.0,-13.0,-231.0,-54.0,-1.0,3.0,1
168.0,-14.0,-233.0,-53.0,-1.0,3.0,1
168.0,-15.0,-230.0,-53.0,-2.0,3.0,1
167.0,-14.0,-233.0,-50.0,-3.0,5.0,1
168.0,-13.0,-236.0,-49.0,-4.0,5.0,1
168.0,-18.0,-234.0,-51.0,-3.0,4.0,1
168.0,-17.0,-233.0,-53.0,-1.0,4.0,1
166.0,-13.0,-232.0,-52.0,-3.0,5.0,1
166.0,-16.0,-231.0,-56.0,-2.0,2.0,1
167.0,-15.0,-233.0,-52.0,-1.0,2.0,1
168.0,-16.0,-230.0,-52.0,-1.0,2.0,1
165.0,-14.0,-231.0,-51.0,-2.0,1.0,1
165.0,-15.0,-229.0,-53.0,-3.0,1.0,1
169.0,-16.0,-232.0,-54.0,-3.0,0.0,1
168.0,-15.0,-231.0,-56.0,-6.0,0.0,1
169.0,-16.0,-232.0,-58.0,-6.0,0.0,1
166.0,-15.0,-228.0,-59.0,-7.0,-1.0,1
165.0,-13.0,-232.0,-61.0,-10.0,1.0,1
165.0,-13.0,-230.0,-60.0,-13.0,1.0,1
168.0,-17.0,-233.0,-58.0,-15.0,2.0,1
168.0,-14.0,-232.0,-57.0,-17.0,3.0,1
163.0,-13.0,-231.0,-58.0,-19.0,7.0,1
164.0,-15.0,-230.0,-59.0,-21.0,8.0,1
166.0,-14.0,-232.0,-59.0,-23.0,10.0,1
167.0,-15.0,-235.0,-58.0,-23.0,11.0,1
162.0,-17.0,-229.0,-57.0,-26.0,12.0,1
168.0,-13.0,-234.0,-58.0,-27.0,13.0,1
167.0,-16.0,-233.0,-56.0,-29.0,15.0,1
168.0,-15.0,-232.0,-58.0,-28.0,14.0,1
167.0,-14.0,-236.0,-59.0,-29.0,13.0,1
164.0,-14.0,-236.0,-58.0,-29.0,15.0,1
167.0,-16.0,-236.0,-59.0,-29.0,14.0,1
169.0,-16.0,-236.0,-60.0,-28.0,15.0,1
165.0,-15.0,-233.0,-61.0,-29.0,13.0,1
165.0,-13.0,-233.0,-60.0,-28.0,12.0,1
165.0,-18.0,-235.0,-60.0,-28.0,10.0,1
165.0,-14.0,-235.0,-60.0,-28.0,10.0,1
167.0,-18.0,-236.0,-60.0,-28.0,10.0,1
166.0,-17.0,-236.0,-58.0,-27.0,10.0,1
163.0,-15.0,-236.0,-56.0,-26.0,11.0,1
166.0,-15.0,-239.0,-54.0,-25.0,8.0,1
166.0,-20.0,-236.0,-54.0,-24.0,8.0,1
166.0,-15.0,-236.0,-53.0,-22.0,8.0,1
162.0,-14.0,-236.0,-50.0,-18.0,5.0,1
165.0,-14.0,-235.0,-50.0,-14.0,3.0,1
166.0,-17.0,-233.0,-50.0,-10.0,2.0,1
165.0,-15.0,-236.0,-52.0,-7.0,0.0,1
163.0,-11.0,-235.0,-51.0,-4.0,1.0,1
166.0,-15.0,-235.0,-54.0,-2.0,1.0,1
167.0,-12.0,-235.0,-52.0,-1.0,0.0,1
165.0,-15.0,-233.0,-52.0,-1.0,2.0,1
164.0,-14.0,-231.0,-51.0,-2.0,2.0,1
167.0,-15.0,-235.0,-51.0,-3.0,4.0,1
164.0,-14.0,-230.0,-52.0,-4.0,4.0,1
165.0,-15.0,-235.0,-52.0,-7.0,7.0,1
164.0,-12.0,-234.0,-54.0,-7.0,8.0,1
163.0,-13.0,-233.0,-54.0,-8.0,10.0,1
166.0,-14.0,-232.0,-56.0,-12.0,10.0,1
166.0,-14.0,-234.0,-56.0,-13.0,11.0,1
163.0,-14.0,-234.0,-59.0,-16.0,11.0,1
164.0,-11.0,-233.0,-57.0,-18.0,12.0,1
165.0,-17.0,-232.0,-59.0,-22.0,12.0,1
162.0,-13.0,-237.0,-60.0,-24.0,11.0,1
167.0,-17.0,-235.0,-58.0,-24.0,12.0,1
163.0,-12.0,-235.0,-58.0,-24.0,12.0,1
165.0,-13.0,-237.0,-60.0,-22.0,11.0,1
164.0,-17.0,-235.0,-59.0,-21.0,13.0,1
166.0,-16.0,-231.0,-60.0,-20.0,14.0,1
165.0,-14.0,-237.0,-59.0,-20.0,14.0,1
165.0,-20.0,-233.0,-58.0,-20.0,14.0,1
165.0,-14.0,-235.0,-56.0,-20.0,16.0,1
165.0,-14.0,-233.0,-52.0,-20.0,16.0,1
163.0,-15.0,-236.0,-50.0,-21.0,18.0,1
165.0,-15.0,-232.0,-50.0,-21.0,18.0,1
162.0,-11.0,-231.0,-51.0,-21.0,18.0,1
161.0,-17.0,-233.0,-52.0,-22.0,18.0,1
163.0,-15.0,-233.0,-55.0,-25.0,17.0,1
161.0,-16.0,-236.0,-58.0,-27.0,18.0,1
165.0,-15.0,-230.0,-63.0,-31.0,16.0,1
161.0,-12.0,-233.0,-65.0,-34.0,16.0,1
164.0,-15.0,-232.0,-66.0,-39.0,16.0,1
163.0,-17.0,-234.0,-66.0,-41.0,14.0,1
165.0,-15.0,-236.0,-66.0,-45.0,14.0,1
163.0,-16.0,-233.0,-65.0,-47.0,13.0,1
166.0,-14.0,-235.0,-66.0,-48.0,13.0,1
165.0,-16.0,-240.0,-65.0,-48.0,12.0,1
163.0,-18.0,-234.0,-65.0,-46.0,13.0,1
164.0,-16.0,-236.0,-63.0,-42.0,12.0,1
162.0,-13.0,-239.0,-62.0,-40.0,12.0,1
162.0,-14.0,-239.0,-62.0,-36.0,11.0,1
166.0,-12.0,-236.0,-63.0,-33.0,11.0,1
163.0,-13.0,-236.0,-62.0,-30.0,9.0,1
161.0,-15.0,-237.0,-61.0,-27.0,9.0,1
160.0,-16.0,-239.0,-60.0,-25.0,9.0,1
162.0,-14.0,-233.0,-59.0,-22.0,9.0,1
165.0,-15.0,-238.0,-58.0,-22.0,7.0,1
162.0,-15.0,-238.0,-58.0,-20.0,7.0,1
161.0,-13.0,-237.0,-57.0,-20.0,7.0,1
162.0,-17.0,-236.0,-56.0,-20.0,7.0,1
163.0,-14.0,-236.0,-56.0,-20.0,8.0,1
159.0,-10.0,-236.0,-56.0,-20.0,7.0,1
163.0,-16.0,-240.0,-55.0,-20.0,8.0,1
162.0,-12.0,-238.0,-55.0,-19.0,6.0,1
161.0,-14.0,-238.0,-55.0,-19.0,5.0,1
163.0,-16.0,-235.0,-53.0,-19.0,7.0,1
161.0,-16.0,-236.0,-52.0,-19.0,6.0,1
160.0,-11.0,-235.0,-51.0,-20.0,8.0,1
162.0,-15.0,-236.0,-52.0,-21.0,8.0,1
162.0,-14.0,-235.0,-50.0,-20.0,8.0,1
160.0,-14.0,-232.0,-53.0,-20.0,7.0,1
160.0,-14.0,-235.0,-53.0,-19.0,7.0,1
160.0,-12.0,-237.0,-52.0,-19.0,7.0,1
159.0,-13.0,-234.0,-51.0,-19.0,6.0,1
161.0,-16.0,-234.0,-48.0,-19.0,4.0,1
161.0,-16.0,-236.0,-50.0,-17.0,1.0,1
159.0,-12.0,-238.0,-51.0,-14.0,1.0,1
160.0,-15.0,-238.0,-51.0,-9.0,-2.0,1
162.0,-13.0,-238.0,-51.0,-7.0,-3.0,1
160.0,-14.0,-238.0,-51.0,-4.0,-4.0,1
163.0,-16.0,-236.0,-50.0,-1.0,-5.0,1
162.0,-15.0,-239.0,-50.0,2.0,-6.0,1
162.0,-16.0,-239.0,-51.0,6.0,-6.0,1
159.0,-15.0,-238.0,-51.0,8.0,-6.0,1
159.0,-13.0,-235.0,-48.0,10.0,-7.0,1
162.0,-15.0,-238.0,-47.0,13.0,-6.0,1
161.0,-16.0,-237.0,-46.0,16.0,-6.0,1
161.0,-13.0,-239.0,-45.0,18.0,-8.0,1
159.0,-12.0,-240.0,-47.0,20.0,-6.0,1
163.0,-15.0,-238.0,-46.0,20.0,-6.0,1
161.0,-16.0,-237.0,-46.0,22.0,-6.0,1
164.0,-14.0,-238.0,-45.0,22.0,-6.0,1
160.0,-16.0,-234.0,-47.0,22.0,-6.0,1
161.0,-15.0,-233.0,-46.0,23.0,-6.0,1
161.0,-15.0,-238.0,-46.0,23.0,-8.0,1
163.0,-14.0,-232.0,-45.0,24.0,-8.0,1
161.0,-16.0,-236.0,-46.0,24.0,-8.0,1
161.0,-15.0,-232.0,-47.0,23.0,-8.0,1
158.0,-16.0,-235.0,-48.0,24.0,-9.0,1
164.0,-17.0,-235.0,-49.0,23.0,-8.0,1
161.0,-15.0,-239.0,-49.0,24.0,-10.0,1
161.0,-14.0,-236.0,-51.0,24.0,-9.0,1
162.0,-13.0,-236.0,-51.0,23.0,-9.0,1
163.0,-15.0,-235.0,-52.0,24.0,-9.0,1
161.0,-12.0,-236.0,-52.0,24.0,-8.0,1
161.0,-14.0,-235.0,-51.0,23.0,-9.0,1
160.0,-16.0,-236.0,-48.0,24.0,-8.0,1
159.0,-14.0,-238.0,-46.0,24.0,-9.0,1
162.0,-11.0,-235.0,-48.0,24.0,-8.0,1
162.0,-15.0,-236.0,-45.0,25.0,-9.0,1
164.0,-12.0,-235.0,-47.0,25.0,-10.0,1
161.0,-13.0,-236.0,-46.0,25.0,-9.0,1
160.0,-14.0,-242.0,-45.0,26.0,-10.0,1
162.0,-12.0,-234.0,-47.0,23.0,-9.0,1
161.0,-12.0,-237.0,-46.0,22.0,-9.0,1
162.0,-19.0,-236.0,-47.0,21.0,-9.0,1
163.0,-14.0,-232.0,-47.0,21.0,-9.0,1
163.0,-15.0,-235.0,-48.0,20.0,-8.0,1
157.0,-13.0,-233.0,-47.0,21.0,-8.0,1
162.0,-15.0,-236.0,-48.0,19.0,-9.0,1
160.0,-13.0,-238.0,-46.0,19.0,-9.0,1
162.0,-13.0,-235.0,-44.0,18.0,-8.0,1
162.0,-12.0,-236.0,-45.0,18.0,-7.0,1
163.0,-15.0,-236.0,-45.0,18.0,-7.0,1
161.0,-14.0,-234.0,-44.0,18.0,-7.0,1
162.0,-14.0,-238.0,-43.0,18.0,-7.0,1
161.0,-14.0,-236.0,-42.0,19.0,-6.0,1
162.0,-13.0,-236.0,-40.0,20.0,-6.0,1
163.0,-17.0,-237.0,-40.0,20.0,-7.0,1
161.0,-16.0,-238.0,-41.0,21.0,-8.0,1
165.0,-15.0,-236.0,-42.0,21.0,-7.0,1
160.0,-14.0,-237.0,-42.0,22.0,-9.0,1
163.0,-15.0,-239.0,-45.0,24.0,-10.0,1
164.0,-13.0,-238.0,-45.0,24.0,-8.0,1
163.0,-15.0,-234.0,-46.0,24.0,-9.0,1
161.0,-15.0,-237.0,-46.0,25.0,-10.0,1
165.0,-16.0,-241.0,-47.0,26.0,-10.0,1
159.0,-13.0,-235.0,-47.0,25.0,-9.0,1
161.0,-14.0,-236.0,-45.0,23.0,-9.0,1
161.0,-15.0,-237.0,-45.0,21.0,-10.0,1
160.0,-14.0,-235.0,-44.0,19.0,-9.0,1
161.0,-14.0,-236.0,-44.0,18.0,-9.0,1
160.0,-12.0,-235.0,-46.0,18.0,-9.0,1
161.0,-17.0,-234.0,-47.0,15.0,-7.0,1
165.0,-14.0,-233.0,-46.0,14.0,-8.0,1
162.0,-15.0,-234.0,-47.0,13.0,-8.0,1
163.0,-15.0,-240.0,-46.0,13.0,-8.0,1
160.0,-13.0,-237.0,-47.0,12.0,-9.0,1
161.0,-16.0,-237.0,-48.0,12.0,-9.0,1
159.0,-13.0,-233.0,-45.0,12.0,-8.0,1
162.0,-16.0,-240.0,-45.0,12.0,-8.0,1
161.0,-14.0,-236.0,-46.0,14.0,-11.0,1
161.0,-13.0,-241.0,-46.0,16.0,-12.0,1
162.0,-15.0,-237.0,-47.0,17.0,-12.0,1
163.0,-13.0,-238.0,-48.0,19.0,-12.0,1
162.0,-13.0,-237.0,-48.0,18.0,-12.0,1
163.0,-15.0,-238.0,-46.0,18.0,-9.0,1
163.0,-15.0,-239.0,-44.0,20.0,-9.0,1
163.0,-14.0,-236.0,-42.0,21.0,-9.0,1
163.0,-16.0,-237.0,-42.0,21.0,-9.0,1
163.0,-17.0,-238.0,-42.0,21.0,-8.0,1
163.0,-15.0,-232.0,-42.0,22.0,-10.0,1
160.0,-15.0,-234.0,-42.0,22.0,-10.0,1
159.0,-13.0,-235.0,-46.0,21.0,-10.0,1
160.0,-13.0,-237.0,-48.0,20.0,-11.0,1
161.0,-14.0,-237.0,-50.0,17.0,-12.0,1
165.0,-16.0,-232.0,-53.0,15.0,-13.0,1
160.0,-12.0,-235.0,-53.0,13.0,-13.0,1
160.0,-14.0,-234.0,-53.0,10.0,-12.0,1
162.0,-12.0,-236.0,-52.0,10.0,-12.0,1
160.0,-13.0,-236.0,-51.0,7.0,-12.0,1
164.0,-15.0,-238.0,-51.0,6.0,-11.0,1
160.0,-12.0,-232.0,-51.0,7.0,-10.0,1
164.0,-14.0,-236.0,-48.0,7.0,-10.0,1
164.0,-14.0,-235.0,-49.0,5.0,-10.0,1
162.0,-16.0,-233.0,-48.0,8.0,-10.0,1
160.0,-16.0,-235.0,-48.0,7.0,-10.0,1
161.0,-14.0,-237.0,-46.0,8.0,-12.0,1
159.0,-12.0,-237.0,-47.0,8.0,-11.0,1
162.0,-14.0,-237.0,-47.0,10.0,-10.0,1
164.0,-16.0,-237.0,-48.0,11.0,-10.0,1
161.0,-13.0,-240.0,-45.0,12.0,-10.0,1
159.0,-14.0,-236.0,-47.0,11.0,-9.0,1
163.0,-15.0,-238.0,-46.0,13.0,-10.0,1
164.0,-15.0,-239.0,-47.0,15.0,-10.0,1
158.0,-11.0,-241.0,-45.0,17.0,-9.0,1
160.0,-16.0,-235.0,-45.0,19.0,-8.0,1
161.0,-12.0,-240.0,-44.0,19.0,-9.0,1
161.0,-14.0,-238.0,-43.0,21.0,-9.0,1
162.0,-14.0,-237.0,-42.0,22.0,-9.0,1
163.0,-16.0,-235.0,-42.0,24.0,-7.0,1
165.0,-18.0,-236.0,-43.0,25.0,-8.0,1
163.0,-13.0,-237.0,-42.0,24.0,-9.0,1
161.0,-13.0,-237.0,-42.0,26.0,-8.0,1
163.0,-17.0,-237.0,-42.0,25.0,-8.0,1
161.0,-13.0,-238.0,-43.0,26.0,-9.0,1
164.0,-15.0,-239.0,-42.0,27.0,-8.0,1
160.0,-15.0,-240.0,-42.0,27.0,-10.0,1
160.0,-14.0,-236.0,-41.0,25.0,-11.0,1
162.0,-15.0,-236.0,-40.0,28.0,-10.0,1
161.0,-13.0,-238.0,-40.0,29.0,-11.0,1
162.0,-13.0,-235.0,-42.0,31.0,-11.0,1
160.0,-16.0,-235.0,-41.0,30.0,-10.0,1
161.0,-16.0,-235.0,-42.0,31.0,-10.0,1
165.0,-18.0,-237.0,-43.0,29.0,-10.0,1
161.0,-11.0,-238.0,-43.0,30.0,-10.0,1
161.0,-10.0,-237.0,-40.0,29.0,-8.0,1
161.0,-13.0,-237.0,-41.0,29.0,-7.0,1
161.0,-15.0,-234.0,-42.0,29.0,-8.0,1
161.0,-12.0,-235.0,-40.0,28.0,-7.0,1
163.0,-12.0,-233.0,-42.0,29.0,-7.0,1
161.0,-15.0,-234.0,-42.0,28.0,-7.0,1
165.0,-15.0,-236.0,-41.0,26.0,-8.0,1
164.0,-16.0,-235.0,-41.0,26.0,-8.0,1
165.0,-16.0,-235.0,-43.0,26.0,-9.0,1
161.0,-14.0,-234.0,-44.0,25.0,-9.0,1
166.0,-17.0,-236.0,-45.0,22.0,-10.0,1
160.0,-12.0,-238.0,-49.0,21.0,-9.0,1
165.0,-16.0,-236.0,-48.0,20.0,-9.0,1
164.0,-16.0,-236.0,-49.0,19.0,-10.0,1
164.0,-14.0,-236.0,-50.0,18.0,-10.0,1
163.0,-14.0,-237.0,-50.0,18.0,-10.0,1
161.0,-11.0,-235.0,-50.0,18.0,-11.0,1
163.0,-14.0,-236.0,-50.0,18.0,-11.0,1
163.0,-16.0,-238.0,-52.0,16.0,-10.0,1
163.0,-12.0,-232.0,-50.0,14.0,-10.0,1
161.0,-13.0,-234.0,-49.0,12.0,-10.0,1
161.0,-12.0,-237.0,-48.0,11.0,-10.0,1
159.0,-12.0,-234.0,-49.0,12.0,-8.0,1
163.0,-16.0,-235.0,-49.0,12.0,-7.0,1
162.0,-15.0,-236.0,-48.0,12.0,-7.0,1
161.0,-13.0,-232.0,-48.0,12.0,-9.0,1
166.0,-15.0,-232.0,-48.0,14.0,-10.0,1
163.0,-15.0,-236.0,-48.0,14.0,-10.0,1
162.0,-13.0,-235.0,-50.0,15.0,-12.0,1
165.0,-13.0,-236.0,-49.0,15.0,-12.0,1
161.0,-7.0,-238.0,-49.0,17.0,-12.0,1
164.0,-13.0,-233.0,-51.0,17.0,-13.0,1
164.0,-13.0,-237.0,-50.0,18.0,-12.0,1
162.0,-11.0,-238.0,-48.0,19.0,-12.0,1
163.0,-13.0,-238.0,-47.0,19.0,-10.0,1
166.0,-14.0,-236.0,-46.0,21.0,-11.0,1
161.0,-11.0,-238.0,-45.0,20.0,-13.0,1
162.0,-13.0,-236.0,-46.0,21.0,-12.0,1
164.0,-12.0,-236.0,-44.0,22.0,-10.0,1
162.0,-13.0,-238.0,-44.0,24.0,-9.0,1
159.0,-8.0,-235.0,-44.0,23.0,-8.0,1
162.0,-12.0,-235.0,-42.0,24.0,-7.0,1
162.0,-12.0,-238.0,-42.0,25.0,-8.0,1
162.0,-13.0,-236.0,-41.0,23.0,-7.0,1
163.0,-15.0,-234.0,-42.0,24.0,-6.0,1
161.0,-13.0,-233.0,-42.0,23.0,-6.0,1
161.0,-12.0,-233.0,-43.0,23.0,-7.0,1
164.0,-15.0,-239.0,-43.0,24.0,-8.0,1
163.0,-12.0,-237.0,-43.0,25.0,-9.0,1
162.0,-13.0,-237.0,-43.0,26.0,-8.0,1
165.0,-15.0,-233.0,-44.0,24.0,-8.0,1
167.0,-17.0,-236.0,-43.0,24.0,-9.0,1
162.0,-16.0,-237.0,-43.0,27.0,-9.0,1
164.0,-13.0,-233.0,-46.0,29.0,-9.0,1
162.0,-11.0,-237.0,-42.0,29.0,-9.0,1
162.0,-15.0,-234.0,-41.0,28.0,-8.0,1
165.0,-14.0,-241.0,-40.0,27.0,-9.0,1
162.0,-15.0,-237.0,-41.0,27.0,-9.0,1
162.0,-15.0,-235.0,-40.0,27.0,-9.0,1
164.0,-13.0,-236.0,-41.0,29.0,-8.0,1
164.0,-14.0,-237.0,-41.0,28.0,-9.0,1
162.0,-12.0,-232.0,-41.0,28.0,-9.0,1
163.0,-9.0,-239.0,-39.0,29.0,-9.0,1
164.0,-15.0,-238.0,-39.0,31.0,-9.0,1
164.0,-13.0,-237.0,-40.0,31.0,-10.0,1
163.0,-16.0,-231.0,-42.0,32.0,-10.0,1
160.0,-12.0,-237.0,-40.0,33.0,-10.0,1
162.0,-16.0,-233.0,-40.0,34.0,-13.0,1
163.0,-12.0,-237.0,-41.0,35.0,-13.0,1
164.0,-15.0,-236.0,-42.0,37.0,-14.0,1
161.0,-14.0,-239.0,-42.0,39.0,-16.0,1
160.0,-14.0,-232.0,-43.0,41.0,-18.0,1
165.0,-14.0,-237.0,-42.0,42.0,-20.0,1
159.0,-10.0,-239.0,-41.0,44.0,-23.0,1
170.0,-20.0,-237.0,-42.0,45.0,-23.0,1
164.0,-15.0,-235.0,-39.0,46.0,-25.0,1
164.0,-15.0,-237.0,-39.0,48.0,-26.0,1
161.0,-13.0,-236.0,-39.0,47.0,-27.0,1
163.0,-13.0,-237.0,-40.0,49.0,-28.0,1
163.0,-14.0,-234.0,-40.0,50.0,-29.0,1
163.0,-13.0,-239.0,-42.0,51.0,-28.0,1
160.0,-14.0,-236.0,-40.0,51.0,-29.0,1
164.0,-16.0,-234.0,-40.0,49.0,-28.0,1
163.0,-11.0,-235.0,-40.0,47.0,-26.0,1
162.0,-12.0,-233.0,-40.0,44.0,-25.0,1
168.0,-11.0,-227.0,-38.0,42.0,-25.0,1
163.0,-11.0,-235.0,-39.0,39.0,-22.0,1
162.0,-11.0,-236.0,-39.0,38.0,-21.0,1
164.0,-13.0,-235.0,-40.0,35.0,-22.0,1
163.0,-13.0,-232.0,-40.0,36.0,-20.0,1
164.0,-12.0,-237.0,-41.0,34.0,-19.0,1
167.0,-14.0,-237.0,-42.0,34.0,-19.0,1
161.0,-11.0,-235.0,-43.0,33.0,-18.0,1
164.0,-15.0,-233.0,-41.0,31.0,-16.0,1
165.0,-13.0,-237.0,-40.0,31.0,-15.0,1
163.0,-11.0,-236.0,-40.0,33.0,-16.0,1
165.0,-12.0,-234.0,-41.0,32.0,-13.0,1
163.0,-14.0,-232.0,-40.0,32.0,-13.0,1
162.0,-12.0,-234.0,-40.0,31.0,-13.0,1
165.0,-12.0,-232.0,-42.0,33.0,-12.0,1
166.0,-15.0,-229.0,-44.0,30.0,-12.0,1
163.0,-15.0,-234.0,-45.0,28.0,-12.0,1
164.0,-16.0,-233.0,-46.0,26.0,-13.0,1
161.0,-15.0,-233.0,-47.0,25.0,-13.0,1
162.0,-15.0,-236.0,-47.0,20.0,-13.0,1
164.0,-14.0,-233.0,-48.0,19.0,-13.0,1
163.0,-11.0,-233.0,-48.0,18.0,-13.0,1
165.0,-18.0,-234.0,-49.0,16.0,-15.0,1
165.0,-13.0,-237.0,-48.0,14.0,-16.0,1
162.0,-11.0,-232.0,-49.0,15.0,-14.0,1
163.0,-15.0,-235.0,-47.0,15.0,-14.0,1
161.0,-11.0,-233.0,-48.0,15.0,-13.0,1
163.0,-16.0,-235.0,-48.0,15.0,-14.0,1
164.0,-11.0,-238.0,-47.0,15.0,-15.0,1
166.0,-13.0,-233.0,-48.0,17.0,-15.0,1
164.0,-13.0,-231.0,-47.0,19.0,-13.0,1
164.0,-14.0,-237.0,-46.0,21.0,-13.0,1
164.0,-12.0,-236.0,-47.0,22.0,-13.0,1
164.0,-11.0,-235.0,-44.0,23.0,-13.0,1
167.0,-12.0,-236.0,-43.0,25.0,-14.0,1
163.0,-14.0,-241.0,-44.0,29.0,-13.0,1
164.0,-16.0,-234.0,-42.0,31.0,-14.0,1
164.0,-11.0,-234.0,-42.0,32.0,-14.0,1
165.0,-12.0,-240.0,-41.0,34.0,-13.0,1
163.0,-12.0,-238.0,-39.0,35.0,-13.0,1
167.0,-16.0,-236.0,-41.0,37.0,-14.0,1
166.0,-14.0,-235.0,-42.0,37.0,-15.0,1
164.0,-12.0,-232.0,-42.0,38.0,-16.0,1
166.0,-12.0,-232.0,-40.0,38.0,-15.0,1
164.0,-13.0,-230.0,-40.0,39.0,-16.0,1
163.0,-13.0,-233.0,-41.0,41.0,-16.0,1
164.0,-16.0,-233.0,-41.0,42.0,-17.0,1
162.0,-12.0,-232.0,-40.0,41.0,-18.0,1
166.0,-14.0,-232.0,-42.0,41.0,-17.0,1
163.0,-13.0,-234.0,-41.0,41.0,-16.0,1
162.0,-13.0,-239.0,-40.0,41.0,-17.0,1
162.0,-13.0,-234.0,-39.0,41.0,-18.0,1
163.0,-13.0,-232.0,-38.0,42.0,-18.0,1
165.0,-14.0,-234.0,-39.0,42.0,-17.0,1
166.0,-14.0,-233.0,-40.0,43.0,-17.0,1
166.0,-14.0,-238.0,-40.0,43.0,-17.0,1
166.0,-13.0,-235.0,-40.0,43.0,-18.0,1
163.0,-11.0,-236.0,-39.0,43.0,-17.0,1
164.0,-12.0,-233.0,-38.0,43.0,-18.0,1
164.0,-12.0,-236.0,-39.0,43.0,-18.0,1
165.0,-12.0,-240.0,-38.0,43.0,-17.0,1
167.0,-14.0,-233.0,-38.0,45.0,-17.0,1
162.0,-11.0,-232.0,-39.0,44.0,-17.0,1
162.0,-14.0,-236.0,-39.0,45.0,-19.0,1
163.0,-14.0,-228.0,-39.0,46.0,-19.0,1
166.0,-18.0,-230.0,-39.0,46.0,-19.0,1
162.0,-12.0,-232.0,-39.0,46.0,-18.0,1
163.0,-12.0,-235.0,-40.0,47.0,-19.0,1
163.0,-14.0,-234.0,-39.0,46.0,-19.0,1
164.0,-10.0,-235.0,-41.0,46.0,-21.0,1
167.0,-13.0,-231.0,-41.0,45.0,-22.0,1
168.0,-12.0,-236.0,-43.0,45.0,-22.0,1
166.0,-13.0,-234.0,-43.0,45.0,-23.0,1
164.0,-14.0,-232.0,-42.0,47.0,-25.0,1
167.0,-9.0,-237.0,-44.0,46.0,-25.0,1
167.0,-17.0,-234.0,-42.0,46.0,-22.0,1
166.0,-14.0,-229.0,-40.0,46.0,-22.0,1
165.0,-11.0,-239.0,-41.0,47.0,-24.0,1
168.0,-13.0,-235.0,-41.0,47.0,-23.0,1
166.0,-12.0,-232.0,-39.0,47.0,-24.0,1
166.0,-11.0,-235.0,-40.0,46.0,-22.0,1
165.0,-13.0,-236.0,-40.0,45.0,-23.0,1
167.0,-14.0,-233.0,-42.0,45.0,-23.0,1
168.0,-13.0,-236.0,-41.0,45.0,-21.0,1
166.0,-16.0,-233.0,-43.0,43.0,-21.0,1
166.0,-14.0,-235.0,-45.0,43.0,-21.0,1
165.0,-12.0,-234.0,-44.0,43.0,-21.0,1
161.0,-12.0,-234.0,-43.0,43.0,-21.0,1
163.0,-13.0,-232.0,-42.0,42.0,-21.0,1
167.0,-13.0,-233.0,-41.0,44.0,-22.0,1
165.0,-11.0,-236.0,-43.0,44.0,-21.0,1
166.0,-15.0,-232.0,-41.0,44.0,-21.0,1
167.0,-12.0,-235.0,-40.0,44.0,-20.0,1
166.0,-12.0,-231.0,-41.0,43.0,-20.0,1
166.0,-15.0,-231.0,-40.0,43.0,-21.0,1
167.0,-9.0,-234.0,-40.0,43.0,-18.0,1
163.0,-12.0,-229.0,-41.0,43.0,-18.0,1
167.0,-12.0,-233.0,-41.0,42.0,-18.0,1
166.0,-10.0,-230.0,-40.0,41.0,-19.0,1
167.0,-13.0,-236.0,-41.0,41.0,-18.0,1
168.0,-16.0,-234.0,-40.0,39.0,-17.0,1
167.0,-14.0,-232.0,-40.0,39.0,-18.0,1
168.0,-15.0,-237.0,-40.0,38.0,-17.0,1
164.0,-13.0,-232.0,-39.0,38.0,-17.0,1
167.0,-15.0,-234.0,-40.0,37.0,-18.0,1
167.0,-11.0,-233.0,-39.0,36.0,-17.0,1
168.0,-13.0,-232.0,-39.0,37.0,-17.0,1
168.0,-10.0,-233.0,-38.0,37.0,-16.0,1
167.0,-13.0,-231.0,-39.0,39.0,-15.0,1
168.0,-15.0,-233.0,-40.0,39.0,-14.0,1
169.0,-13.0,-234.0,-43.0,40.0,-16.0,1
168.0,-12.0,-232.0,-42.0,40.0,-16.0,1
167.0,-10.0,-235.0,-40.0,41.0,-16.0,1
167.0,-12.0,-230.0,-41.0,41.0,-16.0,1
167.0,-11.0,-234.0,-41.0,43.0,-16.0,1
166.0,-10.0,-235.0,-43.0,43.0,-14.0,1
168.0,-13.0,-234.0,-43.0,42.0,-13.0,1
164.0,-11.0,-235.0,-41.0,43.0,-13.0,1
168.0,-15.0,-232.0,-40.0,42.0,-13.0,1
165.0,-12.0,-231.0,-40.0,41.0,-13.0,1
167.0,-13.0,-232.0,-41.0,42.0,-14.0,1
167.0,-14.0,-233.0,-41.0,41.0,-14.0,1
167.0,-14.0,-233.0,-43.0,41.0,-15.0,1
168.0,-13.0,-235.0,-41.0,42.0,-15.0,1
168.0,-11.0,-234.0,-42.0,41.0,-15.0,1
162.0,-11.0,-237.0,-41.0,41.0,-15.0,1
168.0,-13.0,-232.0,-43.0,39.0,-14.0,1
170.0,-13.0,-226.0,-41.0,41.0,-17.0,1
169.0,-14.0,-231.0,-43.0,44.0,-17.0,1
165.0,-12.0,-231.0,-42.0,42.0,-16.0,1
169.0,-13.0,-232.0,-43.0,42.0,-16.0,1
169.0,-13.0,-238.0,-44.0,41.0,-17.0,1
165.0,-12.0,-231.0,-43.0,38.0,-17.0,1
170.0,-14.0,-234.0,-42.0,37.0,-17.0,1
168.0,-13.0,-231.0,-43.0,37.0,-17.0,1
167.0,-14.0,-232.0,-43.0,37.0,-18.0,1
168.0,-13.0,-233.0,-45.0,37.0,-17.0,1
167.0,-11.0,-233.0,-43.0,36.0,-15.0,1
168.0,-13.0,-230.0,-42.0,36.0,-15.0,1
168.0,-13.0,-231.0,-43.0,36.0,-15.0,1
169.0,-11.0,-229.0,-43.0,37.0,-15.0,1
167.0,-11.0,-228.0,-42.0,37.0,-14.0,1
167.0,-10.0,-233.0,-41.0,38.0,-15.0,1
167.0,-11.0,-232.0,-40.0,38.0,-16.0,1
167.0,-11.0,-231.0,-40.0,38.0,-16.0,1
169.0,-13.0,-230.0,-41.0,38.0,-15.0,1
169.0,-12.0,-231.0,-42.0,39.0,-15.0,1
168.0,-14.0,-230.0,-41.0,38.0,-15.0,1
166.0,-13.0,-233.0,-41.0,37.0,-16.0,1
170.0,-14.0,-231.0,-42.0,37.0,-16.0,1
165.0,-12.0,-233.0,-42.0,35.0,-17.0,1
169.0,-13.0,-231.0,-42.0,35.0,-16.0,1
169.0,-13.0,-232.0,-43.0,35.0,-16.0,1
164.0,-14.0,-230.0,-43.0,35.0,-17.0,1
167.0,-13.0,-231.0,-42.0,34.0,-15.0,1
171.0,-13.0,-235.0,-43.0,33.0,-15.0,1
167.0,-9.0,-230.0,-43.0,34.0,-15.0,1
167.0,-14.0,-235.0,-44.0,34.0,-15.0,1
170.0,-10.0,-231.0,-43.0,34.0,-15.0,1
166.0,-13.0,-233.0,-43.0,33.0,-11.0,1
167.0,-10.0,-227.0,-41.0,35.0,-12.0,1
170.0,-13.0,-232.0,-42.0,33.0,-12.0,1
169.0,-12.0,-226.0,-45.0,32.0,-14.0,1
170.0,-15.0,-230.0,-44.0,32.0,-13.0,1
168.0,-12.0,-233.0,-44.0,32.0,-13.0,1
171.0,-12.0,-231.0,-43.0,31.0,-13.0,1
167.0,-10.0,-229.0,-44.0,31.0,-13.0,1
168.0,-10.0,-229.0,-44.0,31.0,-13.0,1
168.0,-10.0,-228.0,-45.0,29.0,-13.0,1
167.0,-12.0,-230.0,-44.0,28.0,-13.0,1
170.0,-11.0,-234.0,-44.0,26.0,-11.0,1
169.0,-11.0,-227.0,-44.0,23.0,-8.0,1
170.0,-12.0,-230.0,-42.0,23.0,-8.0,1
171.0,-15.0,-232.0,-43.0,23.0,-5.0,1
166.0,-13.0,-232.0,-46.0,21.0,-5.0,1
170.0,-12.0,-232.0,-44.0,18.0,-2.0,1
169.0,-13.0,-230.0,-45.0,17.0,-2.0,1
169.0,-10.0,-230.0,-43.0,16.0,-1.0,1
168.0,-12.0,-228.0,-45.0,14.0,1.0,1
168.0,-9.0,-229.0,-46.0,10.0,2.0,1
167.0,-13.0,-232.0,-44.0,6.0,2.0,1
166.0,-11.0,-230.0,-45.0,3.0,3.0,1
168.0,-11.0,-228.0,-42.0,0.0,3.0,1
169.0,-11.0,-231.0,-43.0,-3.0,4.0,1
169.0,-12.0,-227.0,-43.0,-5.0,6.0,1
168.0,-13.0,-229.0,-42.0,-8.0,5.0,1
163.0,-11.0,-234.0,-44.0,-8.0,6.0,1
168.0,-12.0,-230.0,-44.0,-10.0,6.0,1
169.0,-11.0,-232.0,-44.0,-10.0,5.0,1
167.0,-14.0,-228.0,-42.0,-13.0,6.0,1
166.0,-11.0,-230.0,-45.0,-15.0,7.0,1
169.0,-14.0,-231.0,-46.0,-16.0,7.0,1
170.0,-13.0,-230.0,-44.0,-17.0,9.0,1
166.0,-10.0,-232.0,-43.0,-18.0,9.0,1
167.0,-12.0,-227.0,-41.0,-20.0,9.0,1
168.0,-14.0,-234.0,-42.0,-21.0,10.0,1
170.0,-13.0,-228.0,-43.0,-21.0,12.0,1
169.0,-15.0,-229.0,-42.0,-20.0,12.0,1
169.0,-15.0,-234.0,-45.0,-20.0,12.0,1
167.0,-11.0,-231.0,-46.0,-20.0,12.0,1
168.0,-13.0,-233.0,-48.0,-20.0,12.0,1
168.0,-14.0,-233.0,-49.0,-22.0,12.0,1
167.0,-12.0,-238.0,-48.0,-24.0,13.0,1
168.0,-13.0,-229.0,-48.0,-23.0,15.0,1
168.0,-13.0,-232.0,-47.0,-25.0,14.0,1
169.0,-13.0,-232.0,-44.0,-24.0,15.0,1
168.0,-13.0,-232.0,-43.0,-26.0,14.0,1
168.0,-14.0,-233.0,-44.0,-26.0,15.0,1
168.0,-11.0,-235.0,-44.0,-24.0,14.0,1
167.0,-12.0,-230.0,-45.0,-23.0,15.0,1
166.0,-13.0,-234.0,-45.0,-20.0,16.0,1
168.0,-13.0,-233.0,-43.0,-20.0,15.0,1
168.0,-12.0,-229.0,-40.0,-17.0,12.0,1
168.0,-16.0,-235.0,-38.0,-16.0,13.0,1
167.0,-14.0,-237.0,-39.0,-14.0,11.0,1
168.0,-15.0,-232.0,-40.0,-12.0,11.0,1
166.0,-12.0,-231.0,-43.0,-9.0,9.0,1
166.0,-12.0,-231.0,-44.0,-7.0,7.0,1
167.0,-13.0,-233.0,-46.0,-5.0,6.0,1
166.0,-11.0,-231.0,-50.0,-4.0,5.0,1
169.0,-14.0,-236.0,-50.0,-5.0,4.0,1
167.0,-16.0,-228.0,-52.0,-8.0,4.0,1
168.0,-13.0,-232.0,-53.0,-9.0,3.0,1
168.0,-11.0,-234.0,-52.0,-12.0,3.0,1
170.0,-13.0,-234.0,-52.0,-16.0,4.0,1
167.0,-12.0,-233.0,-53.0,-19.0,4.0,1
167.0,-12.0,-232.0,-53.0,-20.0,4.0,1
166.0,-15.0,-233.0,-54.0,-23.0,4.0,1
166.0,-13.0,-235.0,-53.0,-23.0,5.0,1
164.0,-14.0,-235.0,-53.0,-21.0,4.0,1
166.0,-17.0,-236.0,-52.0,-18.0,2.0,1
166.0,-13.0,-233.0,-53.0,-15.0,3.0,1
168.0,-14.0,-235.0,-52.0,-12.0,3.0,1
167.0,-14.0,-232.0,-53.0,-9.0,1.0,1
167.0,-14.0,-233.0,-53.0,-7.0,-1.0,1
167.0,-12.0,-237.0,-54.0,-5.0,-2.0,1
167.0,-13.0,-235.0,-55.0,-2.0,-3.0,1
165.0,-11.0,-235.0,-56.0,1.0,-4.0,1
167.0,-11.0,-235.0,-56.0,3.0,-3.0,1
168.0,-13.0,-235.0,-57.0,4.0,-3.0,1
169.0,-11.0,-233.0,-58.0,5.0,-4.0,1
166.0,-11.0,-239.0,-56.0,6.0,-3.0,1
170.0,-13.0,-236.0,-55.0,6.0,-2.0,1
167.0,-15.0,-232.0,-56.0,7.0,-2.0,1
167.0,-12.0,-231.0,-56.0,7.0,-2.0,1
165.0,-12.0,-235.0,-54.0,8.0,-1.0,1
165.0,-12.0,-234.0,-54.0,8.0,0.0,1
164.0,-11.0,-235.0,-54.0,9.0,2.0,1
165.0,-12.0,-227.0,-54.0,9.0,4.0,1
162.0,-12.0,-235.0,-53.0,10.0,4.0,1
164.0,-13.0,-236.0,-51.0,8.0,3.0,1
167.0,-11.0,-235.0,-49.0,7.0,4.0,1
168.0,-10.0,-236.0,-48.0,8.0,5.0,1
163.0,-12.0,-230.0,-49.0,8.0,6.0,1
165.0,-12.0,-235.0,-49.0,10.0,3.0,1
166.0,-12.0,-232.0,-48.0,10.0,4.0,1
167.0,-15.0,-231.0,-48.0,11.0,4.0,1
166.0,-12.0,-234.0,-49.0,13.0,2.0,1
166.0,-13.0,-232.0,-50.0,14.0,3.0,1
166.0,-12.0,-233.0,-49.0,15.0,3.0,1
167.0,-12.0,-229.0,-51.0,16.0,3.0,1
165.0,-9.0,-231.0,-51.0,16.0,2.0,1
168.0,-12.0,-230.0,-51.0,16.0,2.0,1
167.0,-12.0,-234.0,-49.0,15.0,3.0,1
165.0,-14.0,-231.0,-48.0,15.0,3.0,1
166.0,-12.0,-232.0,-48.0,15.0,4.0,1
166.0,-15.0,-230.0,-49.0,15.0,5.0,1
168.0,-15.0,-233.0,-50.0,15.0,4.0,1
166.0,-11.0,-233.0,-50.0,13.0,5.0,1
166.0,-13.0,-234.0,-49.0,12.0,4.0,1
166.0,-12.0,-233.0,-49.0,10.0,5.0,1
165.0,-12.0,-227.0,-51.0,8.0,4.0,1
166.0,-13.0,-231.0,-51.0,5.0,5.0,1
165.0,-8.0,-232.0,-52.0,2.0,5.0,1
166.0,-11.0,-231.0,-51.0,1.0,4.0,1
163.0,-10.0,-232.0,-51.0,-1.0,6.0,1
165.0,-14.0,-235.0,-53.0,-3.0,7.0,1
165.0,-11.0,-234.0,-54.0,-6.0,8.0,1
163.0,-11.0,-227.0,-54.0,-6.0,9.0,1
162.0,-11.0,-236.0,-54.0,-11.0,10.0,1
165.0,-15.0,-233.0,-54.0,-14.0,12.0,1
166.0,-14.0,-233.0,-54.0,-16.0,12.0,1
168.0,-15.0,-234.0,-54.0,-18.0,12.0,1
168.0,-14.0,-233.0,-53.0,-22.0,12.0,1
165.0,-13.0,-232.0,-53.0,-23.0,13.0,1
163.0,-11.0,-235.0,-54.0,-24.0,11.0,1
167.0,-13.0,-230.0,-56.0,-25.0,11.0,1
165.0,-13.0,-231.0,-59.0,-26.0,11.0,1
166.0,-15.0,-235.0,-60.0,-28.0,10.0,1
165.0,-12.0,-234.0,-60.0,-27.0,10.0,1
164.0,-13.0,-236.0,-62.0,-28.0,9.0,1
164.0,-14.0,-234.0,-61.0,-28.0,7.0,1
166.0,-12.0,-233.0,-63.0,-26.0,6.0,1
167.0,-16.0,-231.0,-60.0,-26.0,7.0,1
167.0,-14.0,-234.0,-62.0,-23.0,6.0,1
165.0,-12.0,-235.0,-64.0,-21.0,6.0,1
165.0,-12.0,-235.0,-63.0,-18.0,6.0,1
164.0,-12.0,-233.0,-63.0,-16.0,5.0,1
165.0,-11.0,-233.0,-62.0,-16.0,5.0,1
166.0,-14.0,-234.0,-60.0,-14.0,6.0,1
165.0,-16.0,-234.0,-60.0,-12.0,7.0,1
165.0,-15.0,-233.0,-59.0,-11.0,8.0,1
164.0,-11.0,-233.0,-58.0,-11.0,9.0,1
164.0,-12.0,-235.0,-59.0,-10.0,8.0,1
163.0,-14.0,-239.0,-60.0,-10.0,8.0,1
162.0,-10.0,-237.0,-59.0,-9.0,9.0,1
162.0,-10.0,-234.0,-59.0,-9.0,10.0,1
163.0,-13.0,-234.0,-58.0,-9.0,11.0,1
162.0,-13.0,-234.0,-58.0,-8.0,10.0,1
164.0,-11.0,-236.0,-58.0,-7.0,9.0,1
165.0,-14.0,-236.0,-58.0,-6.0,10.0,1
164.0,-15.0,-236.0,-58.0,-6.0,9.0,1
162.0,-13.0,-233.0,-57.0,-7.0,9.0,1
165.0,-13.0,-233.0,-57.0,-7.0,8.0,1
165.0,-12.0,-235.0,-56.0,-7.0,8.0,1
164.0,-14.0,-234.0,-54.0,-7.0,9.0,1
164.0,-13.0,-233.0,-53.0,-7.0,8.0,1
163.0,-10.0,-232.0,-52.0,-6.0,8.0,1
163.0,-14.0,-234.0,-52.0,-8.0,8.0,1
163.0,-12.0,-233.0,-53.0,-6.0,8.0,1
163.0,-14.0,-236.0,-53.0,-3.0,6.0,1
163.0,-11.0,-235.0,-54.0,-2.0,5.0,1
165.0,-14.0,-234.0,-54.0,-1.0,4.0,1
165.0,-13.0,-234.0,-55.0,2.0,5.0,1
160.0,-11.0,-234.0,-54.0,5.0,4.0,1
162.0,-14.0,-233.0,-53.0,4.0,3.0,1
162.0,-13.0,-237.0,-53.0,6.0,3.0,1
166.0,-15.0,-231.0,-55.0,6.0,2.0,1
165.0,-13.0,-233.0,-54.0,5.0,3.0,1
165.0,-12.0,-232.0,-56.0,6.0,2.0,1
165.0,-13.0,-234.0,-57.0,5.0,1.0,1
163.0,-11.0,-233.0,-55.0,4.0,2.0,1
163.0,-12.0,-234.0,-55.0,4.0,3.0,1
163.0,-12.0,-232.0,-54.0,2.0,3.0,1
166.0,-13.0,-233.0,-54.0,-1.0,4.0,1
165.0,-14.0,-229.0,-52.0,-2.0,4.0,1
161.0,-11.0,-235.0,-50.0,-2.0,5.0,1
166.0,-13.0,-235.0,-50.0,-4.0,5.0,1
163.0,-8.0,-235.0,-50.0,-6.0,7.0,1
166.0,-12.0,-234.0,-50.0,-6.0,7.0,1
164.0,-17.0,-237.0,-51.0,-6.0,5.0,1
164.0,-15.0,-239.0,-55.0,-4.0,4.0,1
164.0,-11.0,-237.0,-54.0,-2.0,3.0,1
164.0,-12.0,-233.0,-55.0,-2.0,3.0,1
164.0,-14.0,-235.0,-55.0,0.0,2.0,1
164.0,-15.0,-235.0,-56.0,0.0,2.0,1
165.0,-11.0,-234.0,-55.0,0.0,1.0,1
162.0,-13.0,-237.0,-56.0,1.0,0.0,1
163.0,-12.0,-232.0,-55.0,0.0,-2.0,1
167.0,-11.0,-237.0,-53.0,-1.0,-2.0,1
166.0,-12.0,-236.0,-54.0,1.0,-2.0,1
164.0,-9.0,-235.0,-56.0,2.0,-2.0,1
163.0,-10.0,-236.0,-57.0,3.0,-2.0,1
165.0,-12.0,-234.0,-56.0,5.0,0.0,1
165.0,-12.0,-236.0,-55.0,4.0,0.0,1
165.0,-13.0,-234.0,-51.0,3.0,1.0,1
163.0,-14.0,-237.0,-48.0,3.0,1.0,1
165.0,-12.0,-239.0,-48.0,6.0,3.0,1
162.0,-12.0,-234.0,-47.0,5.0,2.0,1
164.0,-11.0,-241.0,-45.0,8.0,3.0,1
163.0,-14.0,-236.0,-46.0,8.0,4.0,1
162.0,-13.0,-234.0,-48.0,8.0,4.0,1
164.0,-14.0,-230.0,-50.0,7.0,4.0,1
164.0,-13.0,-237.0,-55.0,5.0,3.0,1
161.0,-12.0,-234.0,-58.0,4.0,4.0,1
161.0,-12.0,-235.0,-58.0,-2.0,3.0,1
164.0,-12.0,-233.0,-59.0,-7.0,4.0,1
165.0,-13.0,-234.0,-59.0,-11.0,5.0,1
163.0,-11.0,-231.0,-60.0,-18.0,5.0,1
159.0,-11.0,-233.0,-60.0,-22.0,6.0,1
160.0,-13.0,-234.0,-59.0,-24.0,6.0,1
164.0,-12.0,-231.0,-59.0,-26.0,5.0,1
165.0,-11.0,-235.0,-57.0,-26.0,5.0,1
162.0,-10.0,-234.0,-57.0,-26.0,5.0,1
163.0,-16.0,-237.0,-55.0,-25.0,4.0,1
162.0,-14.0,-236.0,-57.0,-22.0,3.0,1
163.0,-12.0,-235.0,-58.0,-20.0,3.0,1
163.0,-10.0,-233.0,-58.0,-16.0,2.0,1
163.0,-13.0,-235.0,-57.0,-14.0,1.0,1
162.0,-12.0,-239.0,-55.0,-13.0,3.0,1
162.0,-13.0,-239.0,-55.0,-13.0,3.0,1
167.0,-12.0,-237.0,-53.0,-10.0,4.0,1
163.0,-10.0,-240.0,-52.0,-10.0,5.0,1
162.0,-12.0,-240.0,-54.0,-7.0,6.0,1
164.0,-15.0,-236.0,-48.0,-6.0,6.0,1
162.0,-12.0,-238.0,-48.0,-4.0,5.0,1
162.0,-10.0,-235.0,-48.0,-2.0,7.0,1
163.0,-11.0,-239.0,-47.0,-1.0,5.0,1
161.0,-14.0,-239.0,-47.0,1.0,5.0,1
164.0,-11.0,-237.0,-47.0,4.0,4.0,1
163.0,-14.0,-234.0,-45.0,6.0,4.0,1
164.0,-13.0,-235.0,-44.0,7.0,1.0,1
161.0,-9.0,-243.0,-44.0,9.0,2.0,1
161.0,-13.0,-236.0,-43.0,12.0,0.0,1
163.0,-13.0,-239.0,-42.0,14.0,-1.0,1
163.0,-14.0,-239.0,-44.0,16.0,-3.0,1
166.0,-14.0,-237.0,-43.0,19.0,-5.0,1
162.0,-14.0,-239.0,-43.0,21.0,-4.0,1
161.0,-14.0,-238.0,-44.0,22.0,-6.0,1
164.0,-13.0,-233.0,-45.0,23.0,-5.0,1
159.0,-12.0,-235.0,-45.0,25.0,-6.0,1
161.0,-14.0,-237.0,-45.0,25.0,-6.0,1
164.0,-12.0,-234.0,-45.0,25.0,-6.0,1
162.0,-12.0,-238.0,-45.0,24.0,-5.0,1
162.0,-11.0,-236.0,-45.0,25.0,-5.0,1
163.0,-12.0,-233.0,-45.0,22.0,-5.0,1
160.0,-12.0,-234.0,-43.0,21.0,-4.0,1
162.0,-14.0,-236.0,-44.0,20.0,-3.0,1
160.0,-13.0,-237.0,-45.0,20.0,-4.0,1
161.0,-14.0,-235.0,-44.0,20.0,-4.0,1
160.0,-11.0,-234.0,-45.0,19.0,-4.0,1
164.0,-12.0,-236.0,-45.0,19.0,-4.0,1
164.0,-13.0,-237.0,-45.0,20.0,-3.0,1
160.0,-15.0,-235.0,-45.0,19.0,-3.0,1
164.0,-10.0,-235.0,-48.0,17.0,-5.0,1
163.0,-12.0,-237.0,-47.0,17.0,-6.0,1
164.0,-14.0,-234.0,-49.0,17.0,-5.0,1
160.0,-11.0,-234.0,-49.0,15.0,-7.0,1
163.0,-11.0,-236.0,-51.0,16.0,-6.0,1
160.0,-12.0,-238.0,-48.0,15.0,-7.0,1
161.0,-15.0,-235.0,-48.0,16.0,-5.0,1
163.0,-12.0,-235.0,-50.0,14.0,-6.0,1
161.0,-16.0,-238.0,-52.0,14.0,-5.0,1
168.0,-14.0,-233.0,-48.0,13.0,-7.0,1
165.0,-12.0,-237.0,-47.0,13.0,-6.0,1
162.0,-12.0,-236.0,-47.0,13.0,-6.0,1
161.0,-13.0,-238.0,-47.0,13.0,-6.0,1
165.0,-13.0,-233.0,-48.0,14.0,-7.0,1
161.0,-13.0,-236.0,-48.0,14.0,-6.0,1
163.0,-10.0,-233.0,-49.0,16.0,-7.0,1
163.0,-14.0,-237.0,-49.0,17.0,-9.0,1
165.0,-16.0,-235.0,-49.0,18.0,-9.0,1
162.0,-11.0,-237.0,-49.0,18.0,-9.0,1
162.0,-14.0,-238.0,-49.0,20.0,-9.0,1
159.0,-12.0,-239.0,-49.0,21.0,-8.0,1
164.0,-10.0,-236.0,-49.0,21.0,-8.0,1
158.0,-10.0,-236.0,-46.0,22.0,-9.0,1
165.0,-12.0,-238.0,-47.0,23.0,-8.0,1
161.0,-13.0,-239.0,-46.0,23.0,-9.0,1
164.0,-12.0,-235.0,-45.0,24.0,-8.0,1
162.0,-11.0,-239.0,-44.0,25.0,-8.0,1
164.0,-14.0,-236.0,-44.0,25.0,-8.0,1
163.0,-14.0,-234.0,-43.0,24.0,-8.0,1
162.0,-12.0,-237.0,-43.0,23.0,-7.0,1
162.0,-11.0,-232.0,-41.0,23.0,-5.0,1
163.0,-11.0,-231.0,-41.0,21.0,-6.0,1
161.0,-13.0,-236.0,-43.0,21.0,-5.0,1
163.0,-12.0,-231.0,-42.0,21.0,-4.0,1
161.0,-12.0,-236.0,-43.0,19.0,-4.0,1
164.0,-12.0,-235.0,-42.0,19.0,-4.0,1
161.0,-11.0,-235.0,-41.0,21.0,-7.0,1
164.0,-11.0,-236.0,-43.0,20.0,-7.0,1
161.0,-11.0,-235.0,-45.0,20.0,-6.0,1
163.0,-14.0,-234.0,-44.0,20.0,-6.0,1
164.0,-14.0,-236.0,-45.0,21.0,-6.0,1
160.0,-9.0,-237.0,-41.0,22.0,-6.0,1
167.0,-11.0,-234.0,-43.0,23.0,-4.0,1
163.0,-12.0,-234.0,-41.0,23.0,-6.0,1
160.0,-13.0,-233.0,-42.0,23.0,-6.0,1
162.0,-13.0,-237.0,-42.0,24.0,-6.0,1
163.0,-17.0,-235.0,-43.0,24.0,-6.0,1
164.0,-13.0,-237.0,-45.0,26.0,-7.0,1
164.0,-13.0,-235.0,-44.0,26.0,-6.0,1
161.0,-12.0,-236.0,-43.0,28.0,-7.0,1
163.0,-14.0,-237.0,-42.0,27.0,-7.0,1
163.0,-11.0,-233.0,-41.0,27.0,-7.0,1
160.0,-13.0,-237.0,-43.0,26.0,-7.0,1
162.0,-13.0,-236.0,-42.0,27.0,-9.0,1
160.0,-12.0,-235.0,-43.0,29.0,-8.0,1
163.0,-11.0,-236.0,-43.0,29.0,-7.0,1
163.0,-14.0,-233.0,-44.0,30.0,-9.0,1
165.0,-12.0,-234.0,-45.0,30.0,-9.0,1
163.0,-12.0,-237.0,-44.0,31.0,-10.0,1
165.0,-12.0,-237.0,-46.0,31.0,-10.0,1
161.0,-10.0,-235.0,-45.0,29.0,-11.0,1
162.0,-12.0,-234.0,-43.0,29.0,-11.0,1
166.0,-12.0,-234.0,-43.0,27.0,-11.0,1
164.0,-12.0,-239.0,-45.0,28.0,-12.0,1
162.0,-11.0,-235.0,-46.0,28.0,-11.0,1
162.0,-11.0,-236.0,-45.0,29.0,-12.0,1
165.0,-11.0,-236.0,-48.0,30.0,-11.0,1
163.0,-11.0,-233.0,-47.0,29.0,-10.0,1
166.0,-14.0,-232.0,-45.0,27.0,-10.0,1
163.0,-13.0,-236.0,-43.0,28.0,-9.0,1
162.0,-13.0,-233.0,-42.0,29.0,-7.0,1
163.0,-14.0,-236.0,-41.0,30.0,-6.0,1
164.0,-12.0,-236.0,-38.0,30.0,-7.0,1
165.0,-15.0,-237.0,-39.0,31.0,-7.0,1
164.0,-12.0,-233.0,-40.0,30.0,-7.0,1
162.0,-13.0,-228.0,-43.0,30.0,-9.0,1
162.0,-11.0,-234.0,-44.0,28.0,-10.0,1
162.0,-12.0,-232.0,-44.0,27.0,-10.0,1
165.0,-13.0,-231.0,-47.0,26.0,-12.0,1
161.0,-12.0,-235.0,-48.0,23.0,-12.0,1
163.0,-15.0,-236.0,-48.0,18.0,-11.0,1
162.0,-11.0,-236.0,-46.0,16.0,-10.0,1
164.0,-13.0,-235.0,-47.0,15.0,-11.0,1
163.0,-12.0,-234.0,-47.0,13.0,-10.0,1
163.0,-10.0,-235.0,-45.0,12.0,-9.0,1
164.0,-11.0,-234.0,-44.0,12.0,-11.0,1
160.0,-13.0,-237.0,-43.0,12.0,-9.0,1
161.0,-13.0,-238.0,-42.0,12.0,-8.0,1
163.0,-11.0,-235.0,-43.0,14.0,-9.0,1
162.0,-11.0,-237.0,-42.0,15.0,-8.0,1
163.0,-13.0,-237.0,-44.0,17.0,-9.0,1
163.0,-10.0,-236.0,-44.0,18.0,-11.0,1
162.0,-13.0,-236.0,-45.0,21.0,-9.0,1
160.0,-9.0,-235.0,-44.0,22.0,-11.0,1
166.0,-12.0,-240.0,-43.0,23.0,-11.0,1
162.0,-11.0,-235.0,-44.0,25.0,-11.0,1
165.0,-12.0,-232.0,-45.0,25.0,-10.0,1
163.0,-10.0,-232.0,-46.0,26.0,-10.0,1
165.0,-15.0,-238.0,-46.0,27.0,-9.0,1
161.0,-11.0,-236.0,-46.0,26.0,-7.0,1
165.0,-11.0,-234.0,-45.0,27.0,-7.0,1
164.0,-12.0,-234.0,-45.0,27.0,-7.0,1
164.0,-12.0,-236.0,-43.0,26.0,-6.0,1
164.0,-12.0,-233.0,-43.0,28.0,-7.0,1
165.0,-12.0,-233.0,-43.0,28.0,-6.0,1
164.0,-13.0,-233.0,-43.0,27.0,-6.0,1
163.0,-9.0,-235.0,-41.0,26.0,-6.0,1
164.0,-11.0,-236.0,-42.0,25.0,-6.0,1
163.0,-10.0,-233.0,-41.0,27.0,-7.0,1
162.0,-13.0,-232.0,-41.0,27.0,-6.0,1
166.0,-14.0,-234.0,-42.0,25.0,-7.0,1
163.0,-13.0,-236.0,-40.0,26.0,-6.0,1
164.0,-10.0,-236.0,-41.0,26.0,-7.0,1
166.0,-13.0,-235.0,-41.0,27.0,-7.0,1
164.0,-11.0,-238.0,-40.0,27.0,-7.0,1
164.0,-11.0,-239.0,-39.0,28.0,-7.0,1
162.0,-12.0,-234.0,-39.0,29.0,-8.0,1
164.0,-10.0,-236.0,-41.0,31.0,-8.0,1
165.0,-13.0,-235.0,-41.0,31.0,-9.0,1
162.0,-13.0,-231.0,-41.0,32.0,-9.0,1
162.0,-10.0,-239.0,-39.0,33.0,-9.0,1
164.0,-13.0,-235.0,-38.0,33.0,-10.0,1
166.0,-13.0,-234.0,-38.0,34.0,-9.0,1
162.0,-14.0,-236.0,-38.0,33.0,-8.0,1
163.0,-13.0,-234.0,-38.0,34.0,-9.0,1
164.0,-11.0,-232.0,-39.0,36.0,-9.0,1
164.0,-10.0,-231.0,-38.0,37.0,-9.0,1
161.0,-11.0,-233.0,-41.0,36.0,-9.0,1
162.0,-13.0,-235.0,-40.0,36.0,-9.0,1
162.0,-13.0,-232.0,-40.0,35.0,-9.0,1
164.0,-16.0,-235.0,-40.0,33.0,-8.0,1
164.0,-15.0,-234.0,-40.0,33.0,-8.0,1
162.0,-12.0,-236.0,-40.0,32.0,-8.0,1
163.0,-13.0,-239.0,-40.0,32.0,-9.0,1
165.0,-10.0,-232.0,-41.0,32.0,-10.0,1
163.0,-13.0,-235.0,-42.0,30.0,-10.0,1
166.0,-12.0,-236.0,-42.0,31.0,-11.0,1
165.0,-16.0,-234.0,-43.0,31.0,-12.0,1
167.0,-13.0,-239.0,-42.0,31.0,-10.0,1
166.0,-12.0,-238.0,-42.0,29.0,-11.0,1
163.0,-14.0,-235.0,-43.0,27.0,-11.0,1
163.0,-11.0,-233.0,-46.0,26.0,-12.0,1
165.0,-13.0,-236.0,-47.0,25.0,-10.0,1
166.0,-12.0,-231.0,-44.0,24.0,-10.0,1
166.0,-12.0,-237.0,-43.0,26.0,-10.0,1
166.0,-13.0,-238.0,-45.0,26.0,-11.0,1
166.0,-13.0,-234.0,-48.0,26.0,-12.0,1
164.0,-13.0,-235.0,-51.0,27.0,-13.0,1
163.0,-11.0,-234.0,-50.0,28.0,-13.0,1
165.0,-12.0,-234.0,-47.0,27.0,-14.0,1
165.0,-13.0,-232.0,-47.0,26.0,-13.0,1
165.0,-11.0,-237.0,-47.0,27.0,-14.0,1
167.0,-19.0,-238.0,-45.0,27.0,-13.0,1
161.0,-8.0,-234.0,-43.0,27.0,-12.0,1
165.0,-13.0,-235.0,-43.0,27.0,-13.0,1
165.0,-10.0,-237.0,-44.0,28.0,-13.0,1
163.0,-12.0,-232.0,-44.0,31.0,-12.0,1
162.0,-11.0,-235.0,-43.0,33.0,-11.0,1
162.0,-11.0,-235.0,-41.0,34.0,-11.0,1
166.0,-14.0,-234.0,-40.0,35.0,-13.0,1
161.0,-13.0,-232.0,-41.0,35.0,-13.0,1
163.0,-14.0,-228.0,-41.0,37.0,-14.0,1
164.0,-10.0,-239.0,-43.0,37.0,-14.0,1
166.0,-13.0,-233.0,-42.0,37.0,-14.0,1
164.0,-11.0,-235.0,-40.0,36.0,-13.0,1
164.0,-13.0,-232.0,-42.0,36.0,-14.0,1
164.0,-13.0,-233.0,-40.0,37.0,-11.0,1
164.0,-11.0,-234.0,-39.0,36.0,-12.0,1
