ax,ay,az,gx,gy,gz,label
4.0,-234.0,-83.0,42.0,9.0,-12.0,1
7.0,-235.0,-86.0,43.0,10.0,-15.0,1
3.0,-232.0,-87.0,44.0,10.0,-16.0,1
4.0,-235.0,-88.0,45.0,11.0,-14.0,1
8.0,-230.0,-86.0,47.0,11.0,-14.0,1
3.0,-225.0,-83.0,50.0,10.0,-13.0,1
4.0,-237.0,-81.0,50.0,10.0,-13.0,1
6.0,-232.0,-84.0,51.0,9.0,-13.0,1
3.0,-231.0,-86.0,51.0,8.0,-12.0,1
5.0,-235.0,-84.0,50.0,9.0,-12.0,1
7.0,-233.0,-84.0,50.0,9.0,-12.0,1
5.0,-233.0,-82.0,49.0,10.0,-14.0,1
7.0,-238.0,-83.0,49.0,10.0,-14.0,1
3.0,-233.0,-86.0,49.0,11.0,-12.0,1
5.0,-233.0,-81.0,48.0,11.0,-13.0,1
2.0,-231.0,-82.0,47.0,12.0,-14.0,1
0.0,-235.0,-84.0,48.0,12.0,-14.0,1
4.0,-234.0,-84.0,46.0,12.0,-14.0,1
4.0,-232.0,-82.0,47.0,12.0,-15.0,1
6.0,-233.0,-85.0,45.0,11.0,-14.0,1
6.0,-233.0,-85.0,45.0,11.0,-14.0,1
5.0,-233.0,-83.0,43.0,12.0,-13.0,1
5.0,-234.0,-85.0,43.0,10.0,-14.0,1
5.0,-235.0,-86.0,44.0,10.0,-15.0,1
7.0,-231.0,-84.0,43.0,9.0,-14.0,1
3.0,-236.0,-86.0,44.0,9.0,-14.0,1
3.0,-231.0,-86.0,46.0,9.0,-15.0,1
4.0,-235.0,-82.0,46.0,9.0,-16.0,1
2.0,-234.0,-85.0,48.0,9.0,-15.0,1
3.0,-235.0,-83.0,46.0,11.0,-16.0,1
5.0,-233.0,-82.0,46.0,11.0,-15.0,1
5.0,-235.0,-87.0,47.0,12.0,-18.0,1
5.0,-232.0,-87.0,47.0,13.0,-17.0,1
6.0,-235.0,-79.0,46.0,15.0,-18.0,1
7.0,-234.0,-82.0,46.0,16.0,-17.0,1
3.0,-234.0,-84.0,47.0,15.0,-15.0,1
4.0,-233.0,-83.0,47.0,16.0,-14.0,1
4.0,-238.0,-84.0,47.0,15.0,-11.0,1
3.0,-235.0,-84.0,47.0,13.0,-11.0,1
5.0,-234.0,-80.0,46.0,10.0,-11.0,1
2.0,-232.0,-84.0,45.0,10.0,-13.0,1
5.0,-234.0,-87.0,44.0,10.0,-12.0,1
5.0,-233.0,-82.0,46.0,8.0,-12.0,1
5.0,-233.0,-81.0,45.0,9.0,-11.0,1
2.0,-232.0,-83.0,47.0,9.0,-12.0,1
4.0,-233.0,-85.0,47.0,8.0,-12.0,1
4.0,-236.0,-85.0,47.0,9.0,-12.0,1
6.0,-236.0,-82.0,49.0,7.0,-12.0,1
4.0,-230.0,-85.0,49.0,8.0,-13.0,1
6.0,-236.0,-84.0,50.0,8.0,-13.0,1
5.0,-235.0,-84.0,51.0,10.0,-13.0,1
6.0,-234.0,-84.0,53.0,10.0,-14.0,1
6.0,-235.0,-86.0,55.0,12.0,-13.0,1
7.0,-238.0,-83.0,55.0,13.0,-12.0,1
4.0,-231.0,-88.0,56.0,12.0,-16.0,1
6.0,-235.0,-82.0,56.0,13.0,-15.0,1
5.0,-232.0,-88.0,55.0,13.0,-15.0,1
5.0,-236.0,-84.0,52.0,14.0,-14.0,1
4.0,-232.0,-87.0,51.0,15.0,-13.0,1
5.0,-229.0,-76.0,50.0,15.0,-13.0,1
6.0,-236.0,-83.0,50.0,16.0,-12.0,1
2.0,-233.0,-82.0,50.0,17.0,-13.0,1
4.0,-230.0,-86.0,49.0,16.0,-13.0,1
2.0,-233.0,-85.0,49.0,16.0,-14.0,1
3.0,-230.0,-85.0,49.0,16.0,-12.0,1
4.0,-239.0,-84.0,48.0,15.0,-12.0,1
2.0,-231.0,-85.0,48.0,16.0,-14.0,1
2.0,-233.0,-86.0,50.0,15.0,-14.0,1
2.0,-233.0,-84.0,49.0,15.0,-13.0,1
5.0,-232.0,-82.0,49.0,14.0,-13.0,1
7.0,-230.0,-88.0,49.0,15.0,-14.0,1
4.0,-231.0,-83.0,49.0,13.0,-12.0,1
3.0,-232.0,-82.0,49.0,12.0,-12.0,1
6.0,-234.0,-85.0,47.0,11.0,-12.0,1
4.0,-233.0,-88.0,47.0,11.0,-12.0,1
2.0,-231.0,-85.0,46.0,11.0,-12.0,1
4.0,-228.0,-87.0,41.0,11.0,-12.0,1
8.0,-231.0,-85.0,38.0,9.0,-12.0,1
3.0,-226.0,-83.0,35.0,11.0,-13.0,1
3.0,-231.0,-90.0,30.0,11.0,-13.0,1
3.0,-232.0,-83.0,25.0,9.0,-16.0,1
5.0,-233.0,-90.0,19.0,8.0,-16.0,1
5.0,-233.0,-80.0,13.0,9.0,-16.0,1
2.0,-229.0,-87.0,9.0,9.0,-15.0,1
6.0,-232.0,-86.0,4.0,10.0,-16.0,1
4.0,-232.0,-82.0,0.0,10.0,-18.0,1
4.0,-233.0,-84.0,-3.0,10.0,-17.0,1
4.0,-232.0,-83.0,-6.0,11.0,-18.0,1
2.0,-234.0,-81.0,-9.0,10.0,-18.0,1
8.0,-230.0,-83.0,-10.0,9.0,-18.0,1
7.0,-234.0,-86.0,-13.0,9.0,-18.0,1
3.0,-229.0,-86.0,-15.0,9.0,-16.0,1
5.0,-232.0,-85.0,-16.0,9.0,-16.0,1
4.0,-232.0,-83.0,-17.0,8.0,-16.0,1
7.0,-240.0,-80.0,-16.0,10.0,-16.0,1
6.0,-236.0,-80.0,-15.0,10.0,-17.0,1
4.0,-235.0,-85.0,-11.0,9.0,-17.0,1
5.0,-237.0,-91.0,-5.0,8.0,-17.0,1
6.0,-241.0,-82.0,1.0,7.0,-16.0,1
5.0,-238.0,-86.0,6.0,6.0,-17.0,1
4.0,-236.0,-93.0,12.0,6.0,-16.0,1
1.0,-238.0,-86.0,15.0,7.0,-17.0,1
1.0,-235.0,-84.0,19.0,8.0,-17.0,1
7.0,-243.0,-82.0,23.0,9.0,-16.0,1
8.0,-238.0,-85.0,30.0,10.0,-14.0,1
3.0,-234.0,-85.0,35.0,11.0,-14.0,1
4.0,-235.0,-84.0,43.0,12.0,-11.0,1
2.0,-234.0,-87.0,49.0,10.0,-11.0,1
7.0,-234.0,-85.0,53.0,9.0,-10.0,1
4.0,-232.0,-88.0,56.0,7.0,-9.0,1
4.0,-232.0,-85.0,56.0,6.0,-10.0,1
3.0,-228.0,-88.0,55.0,3.0,-8.0,1
2.0,-228.0,-85.0,53.0,0.0,-10.0,1
1.0,-234.0,-86.0,51.0,0.0,-8.0,1
2.0,-231.0,-88.0,50.0,-1.0,-8.0,1
3.0,-234.0,-83.0,50.0,0.0,-7.0,1
5.0,-233.0,-87.0,52.0,0.0,-7.0,1
4.0,-233.0,-84.0,53.0,2.0,-5.0,1
6.0,-231.0,-86.0,54.0,4.0,-4.0,1
4.0,-232.0,-87.0,54.0,6.0,-2.0,1
4.0,-230.0,-84.0,53.0,7.0,-2.0,1
4.0,-230.0,-83.0,52.0,8.0,-1.0,1
5.0,-231.0,-84.0,52.0,8.0,0.0,1
5.0,-234.0,-91.0,51.0,6.0,0.0,1
6.0,-235.0,-86.0,50.0,4.0,0.0,1
6.0,-231.0,-89.0,50.0,2.0,0.0,1
5.0,-231.0,-85.0,49.0,1.0,-1.0,1
7.0,-228.0,-93.0,48.0,0.0,-1.0,1
6.0,-229.0,-90.0,48.0,2.0,-1.0,1
6.0,-230.0,-90.0,47.0,2.0,0.0,1
7.0,-232.0,-89.0,47.0,2.0,2.0,1
7.0,-229.0,-91.0,48.0,3.0,2.0,1
5.0,-229.0,-91.0,47.0,4.0,3.0,1
6.0,-234.0,-98.0,46.0,6.0,3.0,1
6.0,-231.0,-93.0,44.0,7.0,2.0,1
3.0,-228.0,-83.0,44.0,9.0,2.0,1
4.0,-232.0,-88.0,45.0,8.0,1.0,1
5.0,-232.0,-88.0,48.0,10.0,1.0,1
5.0,-233.0,-91.0,53.0,11.0,2.0,1
7.0,-232.0,-90.0,58.0,9.0,2.0,1
3.0,-232.0,-90.0,62.0,10.0,1.0,1
6.0,-232.0,-88.0,65.0,8.0,0.0,1
3.0,-232.0,-92.0,68.0,6.0,1.0,1
3.0,-232.0,-91.0,72.0,6.0,0.0,1
1.0,-228.0,-94.0,73.0,6.0,1.0,1
2.0,-232.0,-92.0,75.0,5.0,-1.0,1
2.0,-231.0,-89.0,75.0,4.0,-2.0,1
4.0,-232.0,-91.0,74.0,5.0,-4.0,1
4.0,-233.0,-92.0,74.0,7.0,-4.0,1
3.0,-231.0,-88.0,71.0,8.0,-5.0,1
4.0,-229.0,-90.0,70.0,11.0,-5.0,1
2.0,-232.0,-87.0,66.0,13.0,-4.0,1
4.0,-233.0,-89.0,64.0,15.0,-5.0,1
3.0,-232.0,-86.0,63.0,15.0,-5.0,1
1.0,-231.0,-88.0,60.0,16.0,-6.0,1
2.0,-231.0,-87.0,56.0,15.0,-7.0,1
4.0,-228.0,-82.0,50.0,14.0,-6.0,1
2.0,-232.0,-90.0,47.0,13.0,-9.0,1
1.0,-230.0,-84.0,46.0,14.0,-9.0,1
1.0,-234.0,-83.0,44.0,13.0,-9.0,1
0.0,-230.0,-82.0,43.0,14.0,-12.0,1
2.0,-235.0,-83.0,41.0,13.0,-14.0,1
0.0,-233.0,-84.0,38.0,13.0,-15.0,1
4.0,-233.0,-82.0,36.0,14.0,-14.0,1
2.0,-233.0,-80.0,34.0,13.0,-14.0,1
3.0,-236.0,-87.0,34.0,13.0,-14.0,1
3.0,-232.0,-84.0,33.0,11.0,-14.0,1
1.0,-233.0,-85.0,31.0,11.0,-12.0,1
2.0,-237.0,-78.0,30.0,12.0,-13.0,1
1.0,-235.0,-85.0,31.0,12.0,-12.0,1
2.0,-235.0,-83.0,32.0,13.0,-13.0,1
5.0,-236.0,-85.0,33.0,14.0,-14.0,1
4.0,-237.0,-81.0,34.0,14.0,-14.0,1
2.0,-232.0,-86.0,37.0,14.0,-13.0,1
4.0,-236.0,-83.0,39.0,16.0,-15.0,1
6.0,-240.0,-79.0,42.0,17.0,-13.0,1
6.0,-237.0,-88.0,46.0,17.0,-13.0,1
3.0,-233.0,-82.0,48.0,18.0,-10.0,1
6.0,-232.0,-83.0,53.0,18.0,-12.0,1
4.0,-240.0,-86.0,56.0,17.0,-12.0,1
8.0,-232.0,-84.0,57.0,17.0,-11.0,1
6.0,-234.0,-80.0,59.0,16.0,-9.0,1
5.0,-232.0,-86.0,61.0,15.0,-9.0,1
4.0,-233.0,-87.0,62.0,13.0,-10.0,1
7.0,-236.0,-84.0,63.0,14.0,-8.0,1
10.0,-233.0,-84.0,62.0,12.0,-7.0,1
7.0,-235.0,-82.0,64.0,12.0,-8.0,1
8.0,-230.0,-84.0,66.0,14.0,-8.0,1
10.0,-233.0,-83.0,65.0,14.0,-7.0,1
11.0,-232.0,-88.0,63.0,15.0,-7.0,1
7.0,-231.0,-85.0,63.0,16.0,-5.0,1
10.0,-231.0,-84.0,61.0,16.0,-4.0,1
9.0,-229.0,-85.0,59.0,16.0,-2.0,1
12.0,-229.0,-86.0,58.0,15.0,-3.0,1
10.0,-230.0,-84.0,56.0,16.0,-2.0,1
10.0,-228.0,-88.0,52.0,16.0,-1.0,1
10.0,-232.0,-85.0,49.0,15.0,-1.0,1
8.0,-228.0,-86.0,46.0,15.0,-1.0,1
5.0,-226.0,-85.0,43.0,16.0,1.0,1
10.0,-232.0,-87.0,39.0,14.0,2.0,1
9.0,-228.0,-87.0,37.0,14.0,2.0,1
11.0,-232.0,-91.0,35.0,13.0,3.0,1
8.0,-228.0,-90.0,31.0,14.0,3.0,1
4.0,-227.0,-86.0,27.0,14.0,5.0,1
9.0,-228.0,-86.0,25.0,15.0,4.0,1
8.0,-235.0,-88.0,24.0,15.0,4.0,1
3.0,-231.0,-86.0,21.0,15.0,2.0,1
5.0,-233.0,-85.0,22.0,16.0,3.0,1
1.0,-236.0,-90.0,23.0,15.0,2.0,1
0.0,-233.0,-88.0,28.0,14.0,2.0,1
0.0,-237.0,-90.0,31.0,12.0,0.0,1
0.0,-240.0,-95.0,36.0,11.0,-3.0,1
0.0,-241.0,-96.0,42.0,9.0,-7.0,1
-2.0,-238.0,-96.0,47.0,7.0,-11.0,1
-6.0,-236.0,-92.0,54.0,6.0,-15.0,1
-1.0,-234.0,-94.0,58.0,4.0,-18.0,1
-3.0,-235.0,-94.0,60.0,3.0,-20.0,1
-6.0,-233.0,-93.0,63.0,2.0,-23.0,1
-7.0,-234.0,-92.0,66.0,-1.0,-25.0,1
-1.0,-234.0,-89.0,68.0,-1.0,-27.0,1
0.0,-234.0,-93.0,69.0,-2.0,-28.0,1
-3.0,-227.0,-93.0,70.0,0.0,-30.0,1
0.0,-232.0,-86.0,71.0,2.0,-31.0,1
-1.0,-229.0,-87.0,68.0,3.0,-34.0,1
0.0,-231.0,-89.0,66.0,6.0,-33.0,1
1.0,-229.0,-87.0,64.0,6.0,-34.0,1
1.0,-230.0,-85.0,61.0,8.0,-36.0,1
1.0,-227.0,-89.0,57.0,9.0,-35.0,1
1.0,-230.0,-88.0,53.0,10.0,-34.0,1
0.0,-228.0,-82.0,47.0,11.0,-33.0,1
2.0,-227.0,-85.0,43.0,10.0,-31.0,1
4.0,-231.0,-84.0,37.0,12.0,-30.0,1
2.0,-228.0,-84.0,32.0,14.0,-27.0,1
1.0,-231.0,-82.0,27.0,14.0,-26.0,1
1.0,-229.0,-84.0,22.0,14.0,-25.0,1
2.0,-231.0,-82.0,17.0,11.0,-23.0,1
4.0,-232.0,-82.0,14.0,10.0,-22.0,1
1.0,-229.0,-84.0,9.0,10.0,-21.0,1
3.0,-235.0,-83.0,6.0,10.0,-21.0,1
3.0,-231.0,-85.0,3.0,7.0,-21.0,1
5.0,-234.0,-82.0,1.0,7.0,-21.0,1
3.0,-232.0,-83.0,1.0,7.0,-23.0,1
2.0,-234.0,-82.0,2.0,7.0,-25.0,1
0.0,-233.0,-82.0,3.0,7.0,-27.0,1
7.0,-237.0,-86.0,5.0,5.0,-30.0,1
4.0,-237.0,-81.0,6.0,6.0,-33.0,1
5.0,-236.0,-86.0,7.0,8.0,-33.0,1
3.0,-237.0,-86.0,9.0,7.0,-36.0,1
3.0,-237.0,-79.0,12.0,10.0,-40.0,1
3.0,-235.0,-90.0,17.0,11.0,-43.0,1
3.0,-236.0,-86.0,26.0,14.0,-44.0,1
5.0,-233.0,-86.0,36.0,14.0,-44.0,1
6.0,-237.0,-88.0,47.0,14.0,-45.0,1
8.0,-236.0,-88.0,57.0,15.0,-44.0,1
10.0,-237.0,-88.0,66.0,17.0,-44.0,1
6.0,-235.0,-93.0,72.0,16.0,-44.0,1
8.0,-236.0,-87.0,77.0,17.0,-43.0,1
10.0,-235.0,-89.0,82.0,16.0,-42.0,1
12.0,-235.0,-91.0,85.0,14.0,-42.0,1
8.0,-235.0,-87.0,87.0,15.0,-39.0,1
6.0,-234.0,-86.0,91.0,16.0,-39.0,1
9.0,-235.0,-87.0,95.0,15.0,-37.0,1
7.0,-232.0,-84.0,97.0,16.0,-36.0,1
8.0,-233.0,-86.0,99.0,17.0,-35.0,1
9.0,-234.0,-88.0,102.0,17.0,-34.0,1
7.0,-228.0,-84.0,103.0,18.0,-32.0,1
10.0,-229.0,-84.0,101.0,18.0,-31.0,1
8.0,-231.0,-89.0,101.0,18.0,-30.0,1
6.0,-229.0,-89.0,101.0,18.0,-28.0,1
10.0,-231.0,-89.0,100.0,17.0,-26.0,1
7.0,-230.0,-93.0,97.0,16.0,-27.0,1
9.0,-226.0,-89.0,94.0,16.0,-25.0,1
7.0,-227.0,-88.0,89.0,16.0,-25.0,1
9.0,-233.0,-93.0,86.0,17.0,-23.0,1
9.0,-224.0,-88.0,79.0,16.0,-24.0,1
10.0,-232.0,-90.0,73.0,17.0,-24.0,1
12.0,-226.0,-85.0,67.0,18.0,-24.0,1
8.0,-230.0,-87.0,62.0,19.0,-22.0,1
9.0,-228.0,-92.0,56.0,19.0,-21.0,1
10.0,-231.0,-89.0,53.0,21.0,-20.0,1
7.0,-228.0,-89.0,47.0,21.0,-20.0,1
7.0,-229.0,-87.0,42.0,24.0,-18.0,1
10.0,-231.0,-86.0,39.0,23.0,-19.0,1
4.0,-228.0,-84.0,35.0,22.0,-19.0,1
6.0,-231.0,-89.0,32.0,22.0,-17.0,1
6.0,-229.0,-89.0,31.0,20.0,-17.0,1
4.0,-229.0,-89.0,30.0,21.0,-19.0,1
5.0,-231.0,-89.0,31.0,21.0,-19.0,1
4.0,-234.0,-93.0,32.0,20.0,-18.0,1
4.0,-231.0,-86.0,33.0,21.0,-18.0,1
8.0,-234.0,-85.0,35.0,20.0,-18.0,1
6.0,-233.0,-84.0,38.0,20.0,-19.0,1
8.0,-236.0,-91.0,40.0,20.0,-17.0,1
6.0,-233.0,-85.0,42.0,20.0,-16.0,1
7.0,-235.0,-83.0,45.0,20.0,-16.0,1
11.0,-238.0,-88.0,46.0,21.0,-15.0,1
9.0,-237.0,-85.0,48.0,20.0,-14.0,1
6.0,-235.0,-85.0,53.0,19.0,-15.0,1
8.0,-232.0,-82.0,56.0,20.0,-14.0,1
3.0,-235.0,-84.0,58.0,19.0,-14.0,1
6.0,-236.0,-87.0,61.0,18.0,-14.0,1
7.0,-231.0,-86.0,65.0,18.0,-15.0,1
6.0,-231.0,-87.0,67.0,18.0,-16.0,1
7.0,-232.0,-82.0,69.0,16.0,-15.0,1
4.0,-234.0,-87.0,71.0,18.0,-15.0,1
5.0,-233.0,-86.0,70.0,17.0,-16.0,1
5.0,-232.0,-86.0,71.0,18.0,-15.0,1
3.0,-233.0,-86.0,71.0,17.0,-15.0,1
4.0,-229.0,-86.0,71.0,17.0,-15.0,1
6.0,-231.0,-83.0,70.0,16.0,-16.0,1
6.0,-236.0,-80.0,70.0,15.0,-15.0,1
4.0,-234.0,-86.0,71.0,15.0,-15.0,1
4.0,-229.0,-87.0,70.0,13.0,-16.0,1
7.0,-232.0,-86.0,71.0,12.0,-16.0,1
7.0,-233.0,-83.0,71.0,11.0,-14.0,1
6.0,-233.0,-87.0,71.0,11.0,-16.0,1
7.0,-233.0,-88.0,70.0,11.0,-15.0,1
5.0,-233.0,-89.0,68.0,10.0,-14.0,1
2.0,-232.0,-88.0,67.0,8.0,-14.0,1
6.0,-233.0,-86.0,68.0,8.0,-15.0,1
5.0,-236.0,-82.0,67.0,9.0,-14.0,1
6.0,-233.0,-86.0,67.0,9.0,-14.0,1
5.0,-230.0,-84.0,66.0,10.0,-15.0,1
7.0,-236.0,-86.0,65.0,10.0,-15.0,1
6.0,-235.0,-84.0,64.0,11.0,-14.0,1
4.0,-231.0,-84.0,65.0,12.0,-15.0,1
7.0,-233.0,-88.0,66.0,12.0,-14.0,1
9.0,-235.0,-87.0,66.0,12.0,-14.0,1
8.0,-235.0,-87.0,64.0,10.0,-14.0,1
5.0,-233.0,-86.0,64.0,9.0,-13.0,1
7.0,-232.0,-89.0,63.0,8.0,-13.0,1
4.0,-233.0,-80.0,63.0,7.0,-13.0,1
6.0,-234.0,-89.0,63.0,7.0,-12.0,1
5.0,-232.0,-84.0,62.0,6.0,-15.0,1
6.0,-236.0,-87.0,64.0,6.0,-13.0,1
4.0,-235.0,-88.0,64.0,5.0,-12.0,1
5.0,-235.0,-85.0,63.0,5.0,-12.0,1
6.0,-231.0,-86.0,63.0,5.0,-15.0,1
7.0,-234.0,-83.0,62.0,6.0,-16.0,1
4.0,-235.0,-87.0,61.0,6.0,-16.0,1
7.0,-235.0,-86.0,62.0,6.0,-17.0,1
9.0,-236.0,-85.0,63.0,8.0,-17.0,1
8.0,-233.0,-84.0,65.0,10.0,-17.0,1
4.0,-233.0,-85.0,66.0,9.0,-17.0,1
7.0,-233.0,-84.0,65.0,12.0,-17.0,1
5.0,-235.0,-84.0,66.0,13.0,-17.0,1
6.0,-230.0,-83.0,66.0,12.0,-17.0,1
5.0,-235.0,-85.0,65.0,11.0,-16.0,1
3.0,-230.0,-84.0,63.0,12.0,-17.0,1
6.0,-234.0,-87.0,63.0,12.0,-16.0,1
7.0,-232.0,-83.0,62.0,11.0,-15.0,1
5.0,-233.0,-89.0,63.0,10.0,-14.0,1
3.0,-234.0,-82.0,63.0,10.0,-14.0,1
4.0,-230.0,-81.0,62.0,10.0,-14.0,1
7.0,-234.0,-85.0,61.0,12.0,-13.0,1
7.0,-232.0,-84.0,62.0,13.0,-12.0,1
7.0,-232.0,-86.0,59.0,15.0,-13.0,1
5.0,-235.0,-86.0,58.0,15.0,-13.0,1
8.0,-234.0,-85.0,58.0,15.0,-12.0,1
6.0,-231.0,-87.0,57.0,16.0,-11.0,1
8.0,-235.0,-83.0,58.0,16.0,-12.0,1
7.0,-232.0,-87.0,56.0,18.0,-13.0,1
7.0,-233.0,-84.0,56.0,16.0,-12.0,1
9.0,-233.0,-86.0,55.0,16.0,-11.0,1
9.0,-231.0,-88.0,57.0,16.0,-10.0,1
5.0,-234.0,-90.0,58.0,14.0,-8.0,1
7.0,-236.0,-84.0,59.0,15.0,-9.0,1
9.0,-233.0,-85.0,60.0,15.0,-9.0,1
4.0,-231.0,-87.0,62.0,14.0,-7.0,1
6.0,-231.0,-84.0,63.0,14.0,-6.0,1
5.0,-236.0,-86.0,65.0,14.0,-6.0,1
6.0,-234.0,-86.0,65.0,14.0,-7.0,1
9.0,-234.0,-83.0,63.0,14.0,-7.0,1
7.0,-232.0,-84.0,61.0,14.0,-8.0,1
6.0,-234.0,-85.0,58.0,13.0,-9.0,1
2.0,-235.0,-82.0,55.0,12.0,-9.0,1
3.0,-232.0,-85.0,51.0,13.0,-11.0,1
4.0,-230.0,-84.0,48.0,13.0,-12.0,1
4.0,-233.0,-84.0,46.0,13.0,-12.0,1
6.0,-232.0,-85.0,45.0,13.0,-10.0,1
9.0,-233.0,-84.0,43.0,13.0,-12.0,1
5.0,-227.0,-80.0,40.0,11.0,-13.0,1
7.0,-229.0,-84.0,39.0,11.0,-12.0,1
7.0,-233.0,-85.0,36.0,12.0,-12.0,1
8.0,-233.0,-89.0,32.0,11.0,-13.0,1
3.0,-228.0,-87.0,30.0,11.0,-12.0,1
11.0,-230.0,-88.0,30.0,11.0,-13.0,1
6.0,-233.0,-86.0,30.0,11.0,-13.0,1
6.0,-232.0,-83.0,30.0,9.0,-14.0,1
6.0,-232.0,-87.0,29.0,11.0,-14.0,1
6.0,-234.0,-88.0,30.0,8.0,-15.0,1
7.0,-234.0,-85.0,31.0,8.0,-15.0,1
5.0,-232.0,-83.0,30.0,8.0,-16.0,1
5.0,-230.0,-89.0,30.0,8.0,-14.0,1
9.0,-232.0,-83.0,28.0,9.0,-15.0,1
5.0,-236.0,-79.0,25.0,10.0,-14.0,1
7.0,-236.0,-84.0,22.0,11.0,-14.0,1
2.0,-230.0,-88.0,22.0,12.0,-17.0,1
5.0,-235.0,-83.0,22.0,12.0,-17.0,1
3.0,-234.0,-88.0,25.0,11.0,-18.0,1
4.0,-236.0,-87.0,30.0,10.0,-17.0,1
8.0,-232.0,-89.0,32.0,10.0,-17.0,1
8.0,-233.0,-88.0,35.0,9.0,-15.0,1
7.0,-235.0,-90.0,36.0,10.0,-17.0,1
7.0,-231.0,-85.0,38.0,8.0,-15.0,1
12.0,-233.0,-85.0,38.0,7.0,-15.0,1
9.0,-234.0,-85.0,37.0,6.0,-15.0,1
7.0,-232.0,-83.0,35.0,7.0,-15.0,1
4.0,-237.0,-78.0,33.0,7.0,-14.0,1
6.0,-230.0,-84.0,31.0,7.0,-13.0,1
7.0,-232.0,-84.0,30.0,7.0,-14.0,1
7.0,-232.0,-83.0,32.0,8.0,-13.0,1
4.0,-231.0,-83.0,32.0,9.0,-13.0,1
6.0,-233.0,-87.0,33.0,9.0,-12.0,1
4.0,-233.0,-86.0,34.0,10.0,-13.0,1
5.0,-233.0,-89.0,34.0,10.0,-12.0,1
7.0,-233.0,-83.0,34.0,10.0,-12.0,1
5.0,-236.0,-88.0,36.0,9.0,-13.0,1
8.0,-239.0,-85.0,38.0,7.0,-12.0,1
8.0,-236.0,-87.0,38.0,7.0,-14.0,1
5.0,-231.0,-85.0,38.0,6.0,-16.0,1
7.0,-234.0,-90.0,40.0,6.0,-16.0,1
7.0,-234.0,-84.0,42.0,5.0,-16.0,1
7.0,-230.0,-87.0,41.0,5.0,-17.0,1
9.0,-232.0,-85.0,38.0,4.0,-16.0,1
8.0,-235.0,-86.0,37.0,6.0,-18.0,1
6.0,-231.0,-86.0,35.0,7.0,-17.0,1
3.0,-228.0,-85.0,31.0,6.0,-18.0,1
5.0,-230.0,-85.0,29.0,7.0,-19.0,1
4.0,-224.0,-92.0,27.0,8.0,-19.0,1
5.0,-229.0,-84.0,25.0,8.0,-18.0,1
6.0,-230.0,-87.0,23.0,9.0,-18.0,1
6.0,-230.0,-85.0,21.0,8.0,-18.0,1
6.0,-231.0,-86.0,19.0,8.0,-17.0,1
8.0,-233.0,-82.0,18.0,6.0,-18.0,1
6.0,-233.0,-86.0,17.0,6.0,-17.0,1
7.0,-238.0,-86.0,16.0,6.0,-15.0,1
9.0,-234.0,-89.0,17.0,6.0,-15.0,1
7.0,-234.0,-86.0,19.0,5.0,-16.0,1
8.0,-234.0,-85.0,21.0,4.0,-16.0,1
7.0,-237.0,-80.0,22.0,4.0,-16.0,1
7.0,-233.0,-85.0,23.0,3.0,-15.0,1
4.0,-234.0,-88.0,23.0,5.0,-14.0,1
6.0,-232.0,-85.0,23.0,7.0,-15.0,1
4.0,-234.0,-87.0,22.0,6.0,-13.0,1
5.0,-233.0,-85.0,21.0,6.0,-10.0,1
3.0,-231.0,-85.0,19.0,7.0,-14.0,1
6.0,-231.0,-91.0,16.0,8.0,-15.0,1
6.0,-232.0,-87.0,14.0,9.0,-15.0,1
7.0,-233.0,-87.0,13.0,9.0,-15.0,1
6.0,-230.0,-83.0,13.0,9.0,-15.0,1
1.0,-234.0,-93.0,15.0,8.0,-14.0,1
8.0,-234.0,-88.0,17.0,9.0,-14.0,1
8.0,-234.0,-91.0,18.0,7.0,-14.0,1
6.0,-232.0,-86.0,18.0,6.0,-14.0,1
8.0,-232.0,-87.0,17.0,5.0,-14.0,1
7.0,-230.0,-89.0,17.0,5.0,-14.0,1
7.0,-233.0,-91.0,16.0,4.0,-15.0,1
10.0,-232.0,-91.0,17.0,3.0,-17.0,1
7.0,-233.0,-88.0,18.0,3.0,-14.0,1
7.0,-229.0,-85.0,19.0,4.0,-15.0,1
6.0,-231.0,-90.0,17.0,3.0,-14.0,1
10.0,-230.0,-86.0,16.0,5.0,-17.0,1
7.0,-232.0,-86.0,15.0,5.0,-15.0,1
8.0,-233.0,-89.0,13.0,6.0,-14.0,1
8.0,-232.0,-88.0,11.0,7.0,-14.0,1
4.0,-230.0,-87.0,8.0,6.0,-14.0,1
6.0,-231.0,-90.0,6.0,6.0,-13.0,1
6.0,-232.0,-90.0,3.0,7.0,-13.0,1
4.0,-232.0,-85.0,0.0,6.0,-13.0,1
8.0,-233.0,-85.0,-1.0,5.0,-16.0,1
10.0,-232.0,-92.0,-3.0,5.0,-15.0,1
6.0,-232.0,-91.0,-5.0,5.0,-14.0,1
5.0,-231.0,-93.0,-6.0,4.0,-13.0,1
6.0,-235.0,-93.0,-7.0,3.0,-14.0,1
8.0,-233.0,-89.0,-7.0,2.0,-12.0,1
8.0,-233.0,-88.0,-8.0,3.0,-12.0,1
5.0,-232.0,-90.0,-6.0,2.0,-11.0,1
5.0,-230.0,-88.0,-6.0,2.0,-10.0,1
6.0,-230.0,-88.0,-8.0,3.0,-12.0,1
6.0,-230.0,-90.0,-9.0,2.0,-11.0,1
10.0,-233.0,-89.0,-11.0,2.0,-11.0,1
6.0,-231.0,-91.0,-10.0,2.0,-12.0,1
9.0,-233.0,-86.0,-8.0,2.0,-12.0,1
2.0,-230.0,-94.0,-8.0,3.0,-13.0,1
7.0,-232.0,-94.0,-8.0,2.0,-14.0,1
4.0,-233.0,-89.0,-7.0,1.0,-12.0,1
7.0,-230.0,-89.0,-7.0,2.0,-14.0,1
7.0,-231.0,-90.0,-8.0,2.0,-15.0,1
8.0,-232.0,-89.0,-8.0,3.0,-15.0,1
4.0,-228.0,-94.0,-5.0,3.0,-17.0,1
6.0,-231.0,-90.0,-4.0,3.0,-16.0,1
8.0,-232.0,-91.0,-2.0,4.0,-19.0,1
8.0,-232.0,-89.0,-2.0,6.0,-18.0,1
6.0,-231.0,-93.0,-1.0,6.0,-17.0,1
7.0,-237.0,-94.0,-3.0,7.0,-18.0,1
8.0,-232.0,-90.0,-6.0,7.0,-18.0,1
2.0,-230.0,-91.0,-7.0,7.0,-16.0,1
6.0,-228.0,-93.0,-8.0,8.0,-15.0,1
7.0,-231.0,-93.0,-10.0,8.0,-16.0,1
8.0,-231.0,-92.0,-11.0,7.0,-16.0,1
7.0,-235.0,-88.0,-11.0,7.0,-16.0,1
7.0,-231.0,-90.0,-11.0,7.0,-14.0,1
5.0,-232.0,-91.0,-9.0,6.0,-14.0,1
10.0,-231.0,-91.0,-9.0,5.0,-14.0,1
6.0,-229.0,-96.0,-9.0,4.0,-11.0,1
3.0,-230.0,-91.0,-7.0,3.0,-13.0,1
7.0,-231.0,-93.0,-7.0,3.0,-13.0,1
5.0,-228.0,-92.0,-6.0,2.0,-13.0,1
6.0,-231.0,-95.0,-5.0,2.0,-13.0,1
8.0,-230.0,-95.0,-4.0,2.0,-13.0,1
8.0,-232.0,-95.0,-6.0,3.0,-14.0,1
6.0,-230.0,-93.0,-9.0,3.0,-14.0,1
7.0,-230.0,-95.0,-10.0,4.0,-15.0,1
5.0,-228.0,-87.0,-11.0,5.0,-14.0,1
8.0,-230.0,-95.0,-11.0,7.0,-14.0,1
7.0,-231.0,-96.0,-12.0,9.0,-15.0,1
6.0,-219.0,-98.0,-14.0,9.0,-15.0,1
5.0,-229.0,-92.0,-17.0,10.0,-14.0,1
3.0,-229.0,-94.0,-18.0,10.0,-12.0,1
6.0,-232.0,-92.0,-21.0,10.0,-14.0,1
7.0,-228.0,-94.0,-22.0,9.0,-14.0,1
6.0,-231.0,-91.0,-23.0,10.0,-13.0,1
5.0,-228.0,-94.0,-23.0,9.0,-13.0,1
4.0,-227.0,-93.0,-23.0,8.0,-11.0,1
4.0,-231.0,-90.0,-23.0,7.0,-9.0,1
2.0,-231.0,-97.0,-22.0,5.0,-11.0,1
2.0,-228.0,-99.0,-23.0,3.0,-12.0,1
5.0,-231.0,-93.0,-25.0,3.0,-12.0,1
7.0,-231.0,-96.0,-28.0,5.0,-11.0,1
7.0,-234.0,-99.0,-31.0,6.0,-13.0,1
7.0,-227.0,-96.0,-34.0,7.0,-14.0,1
10.0,-229.0,-102.0,-37.0,9.0,-14.0,1
7.0,-226.0,-97.0,-40.0,10.0,-15.0,1
4.0,-224.0,-101.0,-42.0,10.0,-12.0,1
6.0,-222.0,-97.0,-45.0,12.0,-13.0,1
8.0,-222.0,-101.0,-49.0,12.0,-15.0,1
3.0,-221.0,-96.0,-56.0,10.0,-16.0,1
3.0,-220.0,-97.0,-65.0,13.0,-18.0,1
4.0,-220.0,-93.0,-72.0,12.0,-16.0,1
4.0,-227.0,-95.0,-79.0,13.0,-16.0,1
7.0,-227.0,-93.0,-85.0,12.0,-16.0,1
5.0,-230.0,-95.0,-87.0,13.0,-14.0,1
6.0,-231.0,-95.0,-85.0,10.0,-14.0,1
6.0,-232.0,-97.0,-84.0,10.0,-12.0,1
8.0,-239.0,-99.0,-78.0,8.0,-11.0,1
5.0,-232.0,-100.0,-75.0,7.0,-11.0,1
5.0,-228.0,-100.0,-73.0,5.0,-11.0,1
5.0,-230.0,-96.0,-71.0,4.0,-11.0,1
2.0,-230.0,-102.0,-68.0,1.0,-12.0,1
5.0,-231.0,-96.0,-67.0,0.0,-14.0,1
2.0,-226.0,-99.0,-68.0,-1.0,-15.0,1
2.0,-227.0,-92.0,-69.0,-3.0,-17.0,1
2.0,-226.0,-91.0,-69.0,-4.0,-16.0,1
5.0,-228.0,-91.0,-72.0,-5.0,-19.0,1
5.0,-226.0,-93.0,-76.0,-7.0,-20.0,1
4.0,-226.0,-93.0,-80.0,-8.0,-21.0,1
4.0,-228.0,-88.0,-83.0,-11.0,-23.0,1
3.0,-228.0,-89.0,-88.0,-11.0,-24.0,1
8.0,-230.0,-98.0,-91.0,-10.0,-24.0,1
2.0,-233.0,-93.0,-91.0,-11.0,-27.0,1
5.0,-233.0,-95.0,-91.0,-12.0,-26.0,1
3.0,-233.0,-94.0,-87.0,-12.0,-27.0,1
5.0,-236.0,-93.0,-84.0,-13.0,-27.0,1
7.0,-234.0,-98.0,-79.0,-12.0,-27.0,1
8.0,-234.0,-93.0,-72.0,-12.0,-30.0,1
8.0,-236.0,-99.0,-65.0,-12.0,-34.0,1
7.0,-234.0,-102.0,-59.0,-11.0,-35.0,1
4.0,-230.0,-99.0,-53.0,-10.0,-37.0,1
15.0,-233.0,-97.0,-47.0,-8.0,-37.0,1
9.0,-230.0,-102.0,-43.0,-7.0,-37.0,1
14.0,-231.0,-96.0,-40.0,-8.0,-34.0,1
11.0,-224.0,-103.0,-41.0,-7.0,-33.0,1
10.0,-223.0,-101.0,-45.0,-8.0,-29.0,1
11.0,-222.0,-101.0,-49.0,-10.0,-23.0,1
12.0,-222.0,-102.0,-55.0,-13.0,-17.0,1
11.0,-217.0,-103.0,-61.0,-16.0,-11.0,1
11.0,-218.0,-103.0,-70.0,-16.0,-7.0,1
10.0,-216.0,-105.0,-79.0,-17.0,-1.0,1
10.0,-218.0,-103.0,-86.0,-15.0,1.0,1
14.0,-218.0,-107.0,-93.0,-13.0,4.0,1
9.0,-219.0,-108.0,-100.0,-9.0,5.0,1
14.0,-224.0,-103.0,-107.0,-5.0,8.0,1
8.0,-217.0,-112.0,-112.0,0.0,6.0,1
9.0,-220.0,-107.0,-119.0,6.0,6.0,1
5.0,-221.0,-110.0,-122.0,12.0,7.0,1
6.0,-224.0,-108.0,-125.0,17.0,7.0,1
4.0,-221.0,-107.0,-126.0,20.0,8.0,1
3.0,-222.0,-108.0,-127.0,22.0,8.0,1
4.0,-226.0,-107.0,-126.0,24.0,9.0,1
1.0,-220.0,-107.0,-125.0,24.0,11.0,1
3.0,-223.0,-110.0,-123.0,23.0,12.0,1
2.0,-223.0,-104.0,-121.0,20.0,11.0,1
6.0,-227.0,-114.0,-120.0,16.0,12.0,1
4.0,-225.0,-110.0,-121.0,13.0,9.0,1
3.0,-223.0,-106.0,-121.0,10.0,8.0,1
4.0,-220.0,-110.0,-120.0,6.0,5.0,1
6.0,-223.0,-105.0,-120.0,4.0,4.0,1
7.0,-221.0,-113.0,-121.0,0.0,0.0,1
3.0,-220.0,-108.0,-122.0,-1.0,-3.0,1
5.0,-221.0,-107.0,-125.0,-2.0,-2.0,1
7.0,-223.0,-109.0,-128.0,-3.0,-5.0,1
5.0,-220.0,-108.0,-132.0,-1.0,-8.0,1
9.0,-221.0,-111.0,-135.0,-1.0,-8.0,1
6.0,-223.0,-106.0,-139.0,1.0,-8.0,1
6.0,-223.0,-109.0,-141.0,2.0,-8.0,1
7.0,-226.0,-107.0,-142.0,4.0,-10.0,1
8.0,-223.0,-110.0,-141.0,7.0,-9.0,1
7.0,-222.0,-107.0,-141.0,9.0,-9.0,1
6.0,-225.0,-108.0,-140.0,11.0,-8.0,1
8.0,-222.0,-109.0,-139.0,14.0,-6.0,1
9.0,-222.0,-111.0,-139.0,15.0,-4.0,1
10.0,-221.0,-104.0,-137.0,16.0,-3.0,1
9.0,-220.0,-108.0,-136.0,16.0,-1.0,1
11.0,-219.0,-108.0,-139.0,15.0,1.0,1
15.0,-224.0,-111.0,-139.0,16.0,1.0,1
11.0,-223.0,-111.0,-141.0,16.0,2.0,1
9.0,-220.0,-112.0,-142.0,17.0,3.0,1
8.0,-219.0,-112.0,-143.0,19.0,2.0,1
9.0,-219.0,-114.0,-144.0,18.0,5.0,1
9.0,-220.0,-114.0,-143.0,20.0,4.0,1
8.0,-220.0,-110.0,-143.0,20.0,2.0,1
7.0,-220.0,-115.0,-144.0,22.0,2.0,1
7.0,-221.0,-108.0,-144.0,24.0,2.0,1
7.0,-222.0,-114.0,-145.0,24.0,5.0,1
8.0,-224.0,-118.0,-148.0,25.0,7.0,1
7.0,-222.0,-112.0,-148.0,26.0,9.0,1
6.0,-222.0,-115.0,-150.0,25.0,8.0,1
5.0,-220.0,-110.0,-151.0,24.0,9.0,1
2.0,-223.0,-115.0,-151.0,25.0,10.0,1
4.0,-223.0,-113.0,-150.0,25.0,9.0,1
1.0,-221.0,-117.0,-149.0,24.0,8.0,1
4.0,-222.0,-116.0,-148.0,25.0,6.0,1
1.0,-223.0,-115.0,-149.0,23.0,5.0,1
4.0,-219.0,-111.0,-148.0,22.0,1.0,1
1.0,-218.0,-114.0,-148.0,19.0,-1.0,1
4.0,-218.0,-116.0,-150.0,18.0,-2.0,1
1.0,-217.0,-115.0,-152.0,17.0,-5.0,1
2.0,-220.0,-117.0,-156.0,16.0,-9.0,1
3.0,-217.0,-118.0,-157.0,15.0,-11.0,1
4.0,-217.0,-117.0,-161.0,15.0,-11.0,1
4.0,-218.0,-119.0,-164.0,15.0,-12.0,1
6.0,-217.0,-121.0,-166.0,16.0,-14.0,1
3.0,-218.0,-121.0,-164.0,15.0,-17.0,1
4.0,-218.0,-123.0,-163.0,16.0,-17.0,1
1.0,-217.0,-119.0,-160.0,18.0,-17.0,1
3.0,-216.0,-122.0,-158.0,19.0,-18.0,1
4.0,-215.0,-117.0,-155.0,18.0,-18.0,1
4.0,-219.0,-123.0,-151.0,18.0,-19.0,1
5.0,-216.0,-121.0,-148.0,17.0,-18.0,1
5.0,-217.0,-124.0,-146.0,16.0,-18.0,1
5.0,-216.0,-123.0,-143.0,13.0,-19.0,1
3.0,-220.0,-123.0,-141.0,12.0,-18.0,1
7.0,-222.0,-124.0,-140.0,11.0,-18.0,1
6.0,-216.0,-122.0,-139.0,9.0,-18.0,1
3.0,-217.0,-122.0,-140.0,7.0,-20.0,1
2.0,-213.0,-124.0,-139.0,6.0,-20.0,1
4.0,-214.0,-125.0,-138.0,6.0,-20.0,1
1.0,-219.0,-123.0,-139.0,7.0,-19.0,1
2.0,-215.0,-122.0,-139.0,8.0,-20.0,1
6.0,-217.0,-123.0,-142.0,10.0,-18.0,1
7.0,-216.0,-125.0,-144.0,11.0,-18.0,1
6.0,-215.0,-124.0,-144.0,10.0,-19.0,1
7.0,-214.0,-123.0,-146.0,10.0,-19.0,1
6.0,-216.0,-123.0,-149.0,10.0,-19.0,1
6.0,-212.0,-126.0,-152.0,11.0,-20.0,1
9.0,-218.0,-121.0,-155.0,12.0,-20.0,1
4.0,-213.0,-125.0,-156.0,13.0,-20.0,1
4.0,-213.0,-127.0,-157.0,12.0,-21.0,1
5.0,-213.0,-125.0,-156.0,12.0,-21.0,1
8.0,-213.0,-127.0,-154.0,13.0,-21.0,1
8.0,-211.0,-128.0,-154.0,12.0,-21.0,1
6.0,-212.0,-127.0,-153.0,10.0,-22.0,1
8.0,-211.0,-126.0,-152.0,11.0,-21.0,1
8.0,-214.0,-126.0,-154.0,11.0,-24.0,1
4.0,-211.0,-127.0,-153.0,9.0,-24.0,1
8.0,-216.0,-125.0,-152.0,10.0,-25.0,1
4.0,-212.0,-128.0,-151.0,9.0,-24.0,1
6.0,-210.0,-131.0,-149.0,9.0,-23.0,1
9.0,-212.0,-126.0,-147.0,9.0,-23.0,1
4.0,-211.0,-124.0,-146.0,11.0,-24.0,1
6.0,-211.0,-129.0,-147.0,12.0,-24.0,1
9.0,-213.0,-128.0,-149.0,15.0,-25.0,1
8.0,-211.0,-126.0,-149.0,14.0,-24.0,1
5.0,-214.0,-128.0,-146.0,16.0,-26.0,1
6.0,-213.0,-130.0,-142.0,17.0,-24.0,1
8.0,-212.0,-128.0,-134.0,15.0,-22.0,1
6.0,-211.0,-127.0,-128.0,16.0,-22.0,1
4.0,-210.0,-129.0,-124.0,16.0,-23.0,1
8.0,-215.0,-135.0,-118.0,13.0,-22.0,1
6.0,-210.0,-127.0,-113.0,12.0,-21.0,1
6.0,-211.0,-137.0,-111.0,9.0,-21.0,1
6.0,-212.0,-132.0,-109.0,8.0,-22.0,1
8.0,-209.0,-134.0,-108.0,6.0,-21.0,1
7.0,-210.0,-135.0,-108.0,4.0,-20.0,1
9.0,-209.0,-132.0,-108.0,4.0,-21.0,1
5.0,-209.0,-133.0,-108.0,4.0,-23.0,1
7.0,-209.0,-134.0,-107.0,4.0,-23.0,1
5.0,-208.0,-135.0,-104.0,6.0,-25.0,1
11.0,-211.0,-136.0,-103.0,7.0,-24.0,1
7.0,-208.0,-136.0,-99.0,10.0,-25.0,1
8.0,-208.0,-134.0,-98.0,12.0,-23.0,1
6.0,-208.0,-131.0,-95.0,15.0,-25.0,1
6.0,-209.0,-132.0,-91.0,16.0,-25.0,1
7.0,-208.0,-135.0,-89.0,18.0,-23.0,1
9.0,-207.0,-136.0,-87.0,19.0,-23.0,1
5.0,-207.0,-133.0,-84.0,21.0,-24.0,1
8.0,-206.0,-131.0,-82.0,20.0,-24.0,1
8.0,-207.0,-133.0,-77.0,23.0,-26.0,1
8.0,-208.0,-135.0,-75.0,24.0,-25.0,1
8.0,-205.0,-134.0,-70.0,24.0,-28.0,1
8.0,-205.0,-135.0,-67.0,24.0,-27.0,1
10.0,-209.0,-137.0,-65.0,23.0,-27.0,1
8.0,-206.0,-140.0,-63.0,22.0,-26.0,1
7.0,-208.0,-136.0,-60.0,23.0,-28.0,1
9.0,-205.0,-135.0,-58.0,21.0,-30.0,1
7.0,-206.0,-137.0,-57.0,22.0,-30.0,1
7.0,-203.0,-141.0,-57.0,22.0,-31.0,1
7.0,-206.0,-136.0,-58.0,22.0,-30.0,1
7.0,-207.0,-136.0,-57.0,21.0,-30.0,1
6.0,-207.0,-139.0,-56.0,19.0,-29.0,1
8.0,-207.0,-139.0,-57.0,18.0,-31.0,1
6.0,-203.0,-135.0,-56.0,16.0,-28.0,1
10.0,-209.0,-138.0,-57.0,13.0,-26.0,1
5.0,-203.0,-142.0,-59.0,11.0,-27.0,1
9.0,-203.0,-140.0,-60.0,9.0,-27.0,1
8.0,-206.0,-137.0,-60.0,7.0,-28.0,1
10.0,-204.0,-140.0,-61.0,8.0,-29.0,1
7.0,-202.0,-137.0,-61.0,7.0,-29.0,1
9.0,-203.0,-143.0,-60.0,8.0,-30.0,1
5.0,-204.0,-144.0,-57.0,8.0,-28.0,1
7.0,-201.0,-142.0,-57.0,10.0,-29.0,1
12.0,-205.0,-142.0,-60.0,10.0,-27.0,1
9.0,-206.0,-136.0,-63.0,8.0,-25.0,1
11.0,-203.0,-141.0,-67.0,9.0,-28.0,1
4.0,-205.0,-139.0,-69.0,9.0,-27.0,1
10.0,-203.0,-138.0,-71.0,9.0,-26.0,1
10.0,-206.0,-138.0,-72.0,8.0,-26.0,1
9.0,-206.0,-140.0,-71.0,9.0,-25.0,1
8.0,-204.0,-138.0,-69.0,9.0,-25.0,1
7.0,-204.0,-142.0,-69.0,11.0,-27.0,1
7.0,-206.0,-139.0,-67.0,12.0,-27.0,1
9.0,-203.0,-139.0,-66.0,13.0,-27.0,1
8.0,-209.0,-137.0,-65.0,14.0,-28.0,1
5.0,-203.0,-136.0,-64.0,15.0,-27.0,1
4.0,-197.0,-137.0,-63.0,16.0,-25.0,1
8.0,-200.0,-140.0,-63.0,15.0,-27.0,1
5.0,-201.0,-137.0,-64.0,14.0,-26.0,1
9.0,-201.0,-139.0,-64.0,13.0,-25.0,1
7.0,-202.0,-143.0,-67.0,11.0,-24.0,1
9.0,-199.0,-142.0,-68.0,11.0,-24.0,1
8.0,-203.0,-138.0,-70.0,9.0,-24.0,1
7.0,-201.0,-141.0,-71.0,10.0,-25.0,1
10.0,-206.0,-135.0,-71.0,9.0,-24.0,1
6.0,-201.0,-143.0,-73.0,10.0,-26.0,1
9.0,-204.0,-141.0,-74.0,10.0,-24.0,1
7.0,-209.0,-143.0,-74.0,11.0,-26.0,1
7.0,-201.0,-142.0,-74.0,10.0,-24.0,1
5.0,-203.0,-143.0,-74.0,11.0,-26.0,1
6.0,-204.0,-141.0,-75.0,10.0,-26.0,1
7.0,-206.0,-138.0,-75.0,10.0,-25.0,1
10.0,-203.0,-141.0,-76.0,10.0,-24.0,1
6.0,-202.0,-140.0,-77.0,9.0,-22.0,1
11.0,-203.0,-139.0,-77.0,8.0,-22.0,1
6.0,-196.0,-143.0,-76.0,8.0,-20.0,1
8.0,-203.0,-139.0,-75.0,8.0,-20.0,1
7.0,-206.0,-143.0,-74.0,7.0,-19.0,1
5.0,-204.0,-137.0,-73.0,7.0,-19.0,1
9.0,-203.0,-139.0,-73.0,6.0,-18.0,1
8.0,-204.0,-142.0,-73.0,6.0,-18.0,1
9.0,-202.0,-141.0,-73.0,5.0,-19.0,1
10.0,-202.0,-140.0,-73.0,7.0,-19.0,1
8.0,-202.0,-140.0,-70.0,8.0,-20.0,1
9.0,-206.0,-142.0,-67.0,10.0,-18.0,1
9.0,-200.0,-144.0,-64.0,12.0,-19.0,1
9.0,-202.0,-142.0,-59.0,12.0,-19.0,1
9.0,-203.0,-142.0,-57.0,12.0,-21.0,1
9.0,-204.0,-146.0,-56.0,11.0,-21.0,1
12.0,-205.0,-146.0,-51.0,11.0,-19.0,1
7.0,-201.0,-142.0,-51.0,12.0,-20.0,1
7.0,-199.0,-141.0,-49.0,11.0,-19.0,1
9.0,-202.0,-142.0,-47.0,11.0,-18.0,1
7.0,-199.0,-144.0,-50.0,12.0,-19.0,1
9.0,-198.0,-143.0,-51.0,13.0,-19.0,1
9.0,-203.0,-147.0,-53.0,14.0,-18.0,1
9.0,-200.0,-143.0,-54.0,14.0,-17.0,1
8.0,-198.0,-142.0,-56.0,15.0,-15.0,1
10.0,-200.0,-146.0,-57.0,15.0,-14.0,1
11.0,-201.0,-147.0,-56.0,14.0,-15.0,1
13.0,-202.0,-149.0,-57.0,13.0,-14.0,1
10.0,-202.0,-147.0,-57.0,12.0,-14.0,1
11.0,-199.0,-146.0,-57.0,12.0,-14.0,1
9.0,-198.0,-146.0,-57.0,12.0,-15.0,1
6.0,-199.0,-147.0,-58.0,11.0,-15.0,1
8.0,-197.0,-142.0,-61.0,14.0,-16.0,1
8.0,-198.0,-149.0,-62.0,13.0,-15.0,1
9.0,-198.0,-149.0,-64.0,13.0,-14.0,1
8.0,-196.0,-146.0,-67.0,12.0,-14.0,1
8.0,-200.0,-147.0,-68.0,12.0,-14.0,1
8.0,-196.0,-147.0,-70.0,12.0,-13.0,1
4.0,-200.0,-154.0,-69.0,11.0,-11.0,1
7.0,-198.0,-148.0,-68.0,12.0,-12.0,1
10.0,-197.0,-146.0,-64.0,12.0,-9.0,1
13.0,-201.0,-146.0,-61.0,11.0,-10.0,1
12.0,-196.0,-149.0,-59.0,11.0,-9.0,1
11.0,-200.0,-146.0,-57.0,12.0,-9.0,1
7.0,-197.0,-149.0,-58.0,12.0,-8.0,1
9.0,-195.0,-153.0,-60.0,13.0,-8.0,1
7.0,-197.0,-151.0,-63.0,14.0,-7.0,1
9.0,-197.0,-148.0,-67.0,15.0,-8.0,1
5.0,-198.0,-151.0,-68.0,13.0,-7.0,1
10.0,-201.0,-142.0,-71.0,14.0,-6.0,1
10.0,-200.0,-147.0,-75.0,13.0,-6.0,1
9.0,-198.0,-147.0,-80.0,13.0,-5.0,1
9.0,-196.0,-147.0,-86.0,12.0,-4.0,1
8.0,-196.0,-150.0,-91.0,14.0,-3.0,1
11.0,-195.0,-149.0,-95.0,13.0,-3.0,1
10.0,-196.0,-148.0,-95.0,12.0,-4.0,1
11.0,-198.0,-150.0,-98.0,10.0,-3.0,1
12.0,-195.0,-153.0,-98.0,10.0,-4.0,1
6.0,-197.0,-147.0,-100.0,9.0,-4.0,1
4.0,-197.0,-151.0,-101.0,9.0,-3.0,1
6.0,-194.0,-146.0,-102.0,7.0,-6.0,1
10.0,-194.0,-151.0,-102.0,7.0,-6.0,1
7.0,-195.0,-145.0,-104.0,6.0,-8.0,1
8.0,-194.0,-150.0,-104.0,9.0,-8.0,1
8.0,-194.0,-151.0,-106.0,10.0,-9.0,1
9.0,-199.0,-150.0,-110.0,12.0,-7.0,1
9.0,-196.0,-149.0,-110.0,15.0,-7.0,1
6.0,-194.0,-150.0,-112.0,16.0,-8.0,1
7.0,-194.0,-150.0,-110.0,17.0,-6.0,1
8.0,-195.0,-155.0,-108.0,16.0,-5.0,1
8.0,-201.0,-146.0,-106.0,16.0,-4.0,1
8.0,-195.0,-151.0,-104.0,15.0,-2.0,1
10.0,-196.0,-156.0,-100.0,13.0,-4.0,1
12.0,-194.0,-154.0,-99.0,10.0,-3.0,1
13.0,-193.0,-155.0,-98.0,11.0,-2.0,1
10.0,-192.0,-156.0,-100.0,8.0,-1.0,1
7.0,-193.0,-153.0,-101.0,6.0,-3.0,1
8.0,-195.0,-150.0,-105.0,6.0,-3.0,1
9.0,-193.0,-151.0,-109.0,6.0,-3.0,1
10.0,-192.0,-151.0,-115.0,6.0,-2.0,1
10.0,-192.0,-152.0,-121.0,8.0,-1.0,1
5.0,-193.0,-152.0,-124.0,7.0,0.0,1
10.0,-192.0,-151.0,-129.0,9.0,0.0,1
9.0,-193.0,-156.0,-134.0,7.0,2.0,1
7.0,-192.0,-158.0,-138.0,9.0,3.0,1
10.0,-192.0,-155.0,-140.0,11.0,3.0,1
9.0,-192.0,-155.0,-139.0,10.0,2.0,1
9.0,-190.0,-154.0,-139.0,11.0,2.0,1
9.0,-193.0,-153.0,-139.0,10.0,3.0,1
9.0,-193.0,-155.0,-140.0,8.0,2.0,1
6.0,-191.0,-152.0,-141.0,11.0,4.0,1
11.0,-194.0,-156.0,-143.0,11.0,3.0,1
21.0,-189.0,-156.0,-146.0,12.0,5.0,1
7.0,-192.0,-155.0,-146.0,12.0,2.0,1
11.0,-192.0,-159.0,-146.0,13.0,3.0,1
5.0,-191.0,-157.0,-145.0,14.0,5.0,1
8.0,-191.0,-160.0,-143.0,14.0,3.0,1
8.0,-191.0,-159.0,-141.0,15.0,3.0,1
8.0,-188.0,-159.0,-138.0,15.0,2.0,1
7.0,-191.0,-163.0,-135.0,17.0,3.0,1
6.0,-191.0,-157.0,-131.0,17.0,2.0,1
7.0,-188.0,-161.0,-131.0,15.0,4.0,1
6.0,-190.0,-163.0,-128.0,12.0,3.0,1
10.0,-191.0,-154.0,-128.0,10.0,3.0,1
6.0,-188.0,-163.0,-130.0,7.0,1.0,1
8.0,-186.0,-165.0,-132.0,4.0,0.0,1
9.0,-188.0,-162.0,-135.0,3.0,-1.0,1
6.0,-186.0,-160.0,-138.0,3.0,-1.0,1
9.0,-187.0,-164.0,-141.0,1.0,-2.0,1
9.0,-189.0,-164.0,-144.0,1.0,-5.0,1
12.0,-187.0,-162.0,-146.0,1.0,-4.0,1
8.0,-184.0,-163.0,-151.0,0.0,-4.0,1
12.0,-184.0,-165.0,-156.0,0.0,-4.0,1
9.0,-187.0,-162.0,-162.0,0.0,-3.0,1
9.0,-187.0,-165.0,-164.0,-1.0,-4.0,1
9.0,-188.0,-163.0,-170.0,1.0,-4.0,1
8.0,-185.0,-162.0,-173.0,-1.0,-4.0,1
7.0,-185.0,-162.0,-177.0,-1.0,-3.0,1
7.0,-183.0,-162.0,-180.0,-2.0,-5.0,1
7.0,-187.0,-162.0,-184.0,-2.0,-3.0,1
10.0,-186.0,-168.0,-188.0,-3.0,-3.0,1
4.0,-182.0,-164.0,-189.0,-3.0,-2.0,1
9.0,-183.0,-166.0,-189.0,-4.0,-2.0,1
8.0,-188.0,-167.0,-188.0,-4.0,-3.0,1
9.0,-188.0,-168.0,-190.0,-2.0,-7.0,1
1.0,-187.0,-166.0,-190.0,-2.0,-7.0,1
7.0,-184.0,-164.0,-194.0,-2.0,-7.0,1
9.0,-185.0,-165.0,-198.0,-2.0,-11.0,1
7.0,-184.0,-167.0,-200.0,-1.0,-11.0,1
8.0,-181.0,-168.0,-199.0,0.0,-11.0,1
6.0,-182.0,-166.0,-199.0,2.0,-9.0,1
4.0,-183.0,-166.0,-200.0,1.0,-9.0,1
4.0,-183.0,-165.0,-199.0,4.0,-8.0,1
9.0,-183.0,-170.0,-200.0,4.0,-7.0,1
6.0,-184.0,-167.0,-201.0,5.0,-8.0,1
6.0,-183.0,-173.0,-202.0,7.0,-8.0,1
8.0,-184.0,-163.0,-205.0,6.0,-7.0,1
6.0,-183.0,-168.0,-206.0,6.0,-7.0,1
6.0,-184.0,-169.0,-205.0,5.0,-7.0,1
5.0,-183.0,-169.0,-203.0,4.0,-7.0,1
5.0,-181.0,-171.0,-203.0,5.0,-5.0,1
8.0,-181.0,-171.0,-204.0,4.0,-3.0,1
8.0,-180.0,-170.0,-202.0,5.0,-3.0,1
9.0,-180.0,-172.0,-203.0,5.0,-4.0,1
9.0,-181.0,-166.0,-205.0,6.0,-3.0,1
6.0,-179.0,-170.0,-208.0,6.0,-3.0,1
8.0,-182.0,-167.0,-209.0,8.0,-1.0,1
5.0,-179.0,-168.0,-213.0,8.0,0.0,1
4.0,-178.0,-171.0,-214.0,6.0,0.0,1
7.0,-180.0,-173.0,-214.0,5.0,0.0,1
6.0,-178.0,-170.0,-217.0,2.0,0.0,1
5.0,-180.0,-174.0,-218.0,3.0,2.0,1
6.0,-180.0,-172.0,-218.0,1.0,1.0,1
7.0,-179.0,-173.0,-218.0,4.0,1.0,1
6.0,-179.0,-174.0,-218.0,4.0,0.0,1
6.0,-175.0,-177.0,-218.0,4.0,0.0,1
11.0,-176.0,-175.0,-217.0,5.0,-1.0,1
5.0,-173.0,-174.0,-219.0,7.0,-2.0,1
7.0,-178.0,-175.0,-220.0,8.0,-4.0,1
9.0,-178.0,-175.0,-223.0,10.0,-4.0,1
9.0,-180.0,-178.0,-226.0,13.0,-5.0,1
6.0,-176.0,-177.0,-226.0,14.0,-6.0,1
8.0,-175.0,-175.0,-224.0,16.0,-6.0,1
5.0,-175.0,-179.0,-223.0,18.0,-6.0,1
9.0,-179.0,-174.0,-220.0,18.0,-7.0,1
3.0,-173.0,-175.0,-217.0,19.0,-7.0,1
9.0,-177.0,-177.0,-215.0,21.0,-5.0,1
9.0,-171.0,-173.0,-212.0,22.0,-6.0,1
4.0,-176.0,-172.0,-209.0,20.0,-7.0,1
6.0,-172.0,-174.0,-206.0,19.0,-4.0,1
8.0,-172.0,-177.0,-202.0,15.0,-2.0,1
8.0,-172.0,-181.0,-198.0,14.0,-2.0,1
11.0,-176.0,-179.0,-197.0,13.0,-4.0,1
4.0,-169.0,-180.0,-196.0,12.0,-5.0,1
8.0,-171.0,-180.0,-196.0,12.0,-5.0,1
4.0,-171.0,-182.0,-194.0,12.0,-7.0,1
8.0,-169.0,-178.0,-196.0,13.0,-8.0,1
9.0,-169.0,-183.0,-197.0,13.0,-11.0,1
5.0,-166.0,-184.0,-198.0,11.0,-11.0,1
10.0,-166.0,-181.0,-203.0,12.0,-12.0,1
4.0,-166.0,-183.0,-210.0,11.0,-12.0,1
3.0,-165.0,-181.0,-217.0,9.0,-14.0,1
7.0,-169.0,-185.0,-223.0,8.0,-15.0,1
3.0,-164.0,-184.0,-229.0,4.0,-14.0,1
5.0,-168.0,-186.0,-231.0,4.0,-16.0,1
7.0,-167.0,-184.0,-232.0,1.0,-16.0,1
7.0,-167.0,-184.0,-232.0,-1.0,-18.0,1
4.0,-166.0,-185.0,-230.0,-2.0,-19.0,1
5.0,-165.0,-185.0,-229.0,-2.0,-19.0,1
6.0,-167.0,-187.0,-229.0,-3.0,-19.0,1
5.0,-166.0,-183.0,-228.0,-3.0,-19.0,1
7.0,-165.0,-187.0,-229.0,-3.0,-22.0,1
8.0,-162.0,-187.0,-231.0,-2.0,-23.0,1
8.0,-163.0,-185.0,-237.0,-2.0,-23.0,1
7.0,-162.0,-189.0,-243.0,0.0,-25.0,1
7.0,-164.0,-189.0,-249.0,0.0,-25.0,1
7.0,-164.0,-186.0,-255.0,3.0,-26.0,1
8.0,-166.0,-185.0,-258.0,4.0,-25.0,1
5.0,-160.0,-185.0,-260.0,4.0,-24.0,1
5.0,-161.0,-183.0,-261.0,5.0,-22.0,1
6.0,-161.0,-189.0,-261.0,4.0,-22.0,1
5.0,-166.0,-189.0,-259.0,2.0,-22.0,1
7.0,-162.0,-187.0,-259.0,0.0,-23.0,1
9.0,-163.0,-189.0,-261.0,-1.0,-22.0,1
7.0,-161.0,-188.0,-261.0,-2.0,-22.0,1
6.0,-163.0,-192.0,-263.0,-4.0,-23.0,1
6.0,-158.0,-190.0,-265.0,-4.0,-24.0,1
9.0,-161.0,-191.0,-263.0,-6.0,-23.0,1
6.0,-160.0,-189.0,-263.0,-5.0,-23.0,1
7.0,-161.0,-189.0,-262.0,-4.0,-24.0,1
6.0,-160.0,-191.0,-261.0,-3.0,-24.0,1
8.0,-161.0,-193.0,-259.0,-1.0,-23.0,1
9.0,-150.0,-195.0,-260.0,1.0,-25.0,1
5.0,-157.0,-190.0,-259.0,4.0,-27.0,1
8.0,-160.0,-190.0,-258.0,6.0,-26.0,1
7.0,-160.0,-192.0,-256.0,8.0,-24.0,1
5.0,-164.0,-189.0,-253.0,9.0,-26.0,1
8.0,-161.0,-192.0,-249.0,10.0,-23.0,1
6.0,-160.0,-192.0,-242.0,10.0,-22.0,1
8.0,-159.0,-192.0,-234.0,11.0,-20.0,1
7.0,-159.0,-192.0,-226.0,9.0,-19.0,1
2.0,-155.0,-197.0,-220.0,9.0,-19.0,1
7.0,-156.0,-194.0,-216.0,6.0,-19.0,1
14.0,-158.0,-193.0,-212.0,7.0,-17.0,1
6.0,-154.0,-194.0,-207.0,3.0,-17.0,1
7.0,-153.0,-194.0,-204.0,1.0,-17.0,1
5.0,-149.0,-196.0,-202.0,0.0,-17.0,1
12.0,-154.0,-193.0,-205.0,0.0,-17.0,1
7.0,-153.0,-192.0,-210.0,1.0,-16.0,1
7.0,-151.0,-195.0,-213.0,3.0,-17.0,1
10.0,-149.0,-194.0,-217.0,3.0,-18.0,1
6.0,-151.0,-194.0,-221.0,4.0,-18.0,1
11.0,-150.0,-198.0,-226.0,6.0,-18.0,1
6.0,-147.0,-193.0,-231.0,7.0,-19.0,1
7.0,-150.0,-196.0,-234.0,9.0,-20.0,1
7.0,-151.0,-196.0,-239.0,9.0,-21.0,1
8.0,-150.0,-194.0,-243.0,8.0,-23.0,1
6.0,-148.0,-192.0,-246.0,6.0,-21.0,1
5.0,-147.0,-195.0,-249.0,6.0,-23.0,1
6.0,-148.0,-193.0,-246.0,4.0,-22.0,1
8.0,-148.0,-196.0,-245.0,2.0,-24.0,1
6.0,-147.0,-194.0,-242.0,-1.0,-25.0,1
7.0,-146.0,-205.0,-239.0,-2.0,-27.0,1
6.0,-145.0,-195.0,-235.0,-1.0,-27.0,1
9.0,-143.0,-195.0,-233.0,-1.0,-28.0,1
8.0,-146.0,-198.0,-230.0,0.0,-27.0,1
9.0,-146.0,-196.0,-231.0,0.0,-30.0,1
7.0,-147.0,-198.0,-232.0,3.0,-30.0,1
7.0,-146.0,-201.0,-231.0,5.0,-29.0,1
5.0,-144.0,-200.0,-231.0,4.0,-30.0,1
8.0,-145.0,-202.0,-228.0,3.0,-29.0,1
9.0,-143.0,-204.0,-226.0,2.0,-29.0,1
7.0,-142.0,-201.0,-227.0,1.0,-31.0,1
5.0,-145.0,-201.0,-225.0,1.0,-33.0,1
7.0,-146.0,-200.0,-224.0,0.0,-33.0,1
6.0,-141.0,-205.0,-224.0,-1.0,-33.0,1
7.0,-143.0,-201.0,-222.0,-3.0,-34.0,1
4.0,-143.0,-202.0,-219.0,-6.0,-32.0,1
12.0,-142.0,-204.0,-217.0,-10.0,-35.0,1
7.0,-137.0,-202.0,-216.0,-7.0,-36.0,1
8.0,-141.0,-203.0,-219.0,-6.0,-36.0,1
6.0,-137.0,-208.0,-221.0,-4.0,-36.0,1
8.0,-140.0,-201.0,-222.0,-4.0,-35.0,1
8.0,-137.0,-202.0,-221.0,-3.0,-36.0,1
7.0,-139.0,-204.0,-222.0,-3.0,-35.0,1
9.0,-135.0,-204.0,-220.0,-3.0,-37.0,1
8.0,-135.0,-204.0,-220.0,-1.0,-38.0,1
9.0,-139.0,-203.0,-220.0,0.0,-38.0,1
6.0,-142.0,-201.0,-222.0,3.0,-37.0,1
8.0,-139.0,-204.0,-219.0,3.0,-37.0,1
7.0,-141.0,-203.0,-217.0,4.0,-38.0,1
7.0,-140.0,-204.0,-214.0,4.0,-39.0,1
5.0,-138.0,-205.0,-210.0,4.0,-38.0,1
7.0,-140.0,-211.0,-206.0,1.0,-38.0,1
9.0,-138.0,-208.0,-203.0,0.0,-37.0,1
6.0,-134.0,-208.0,-199.0,1.0,-38.0,1
6.0,-134.0,-209.0,-197.0,0.0,-38.0,1
9.0,-132.0,-207.0,-193.0,-1.0,-38.0,1
6.0,-136.0,-208.0,-189.0,-1.0,-38.0,1
7.0,-135.0,-207.0,-186.0,-1.0,-39.0,1
4.0,-134.0,-206.0,-184.0,-2.0,-38.0,1
9.0,-133.0,-211.0,-181.0,-2.0,-39.0,1
8.0,-132.0,-202.0,-180.0,-1.0,-39.0,1
5.0,-134.0,-203.0,-180.0,1.0,-42.0,1
7.0,-133.0,-208.0,-179.0,1.0,-43.0,1
5.0,-135.0,-205.0,-179.0,0.0,-45.0,1
2.0,-132.0,-210.0,-177.0,0.0,-46.0,1
7.0,-131.0,-209.0,-174.0,-5.0,-46.0,1
4.0,-130.0,-209.0,-176.0,-4.0,-47.0,1
7.0,-133.0,-208.0,-175.0,-5.0,-47.0,1
6.0,-130.0,-206.0,-173.0,-5.0,-48.0,1
9.0,-131.0,-210.0,-176.0,-7.0,-49.0,1
6.0,-130.0,-209.0,-178.0,-7.0,-51.0,1
8.0,-128.0,-212.0,-178.0,-9.0,-52.0,1
7.0,-131.0,-209.0,-178.0,-9.0,-53.0,1
6.0,-132.0,-209.0,-181.0,-8.0,-53.0,1
2.0,-130.0,-207.0,-183.0,-11.0,-53.0,1
10.0,-130.0,-210.0,-184.0,-15.0,-55.0,1
9.0,-131.0,-209.0,-186.0,-16.0,-54.0,1
12.0,-127.0,-213.0,-185.0,-15.0,-56.0,1
4.0,-130.0,-212.0,-183.0,-16.0,-56.0,1
6.0,-129.0,-211.0,-180.0,-19.0,-55.0,1
6.0,-128.0,-209.0,-178.0,-20.0,-56.0,1
7.0,-128.0,-210.0,-176.0,-22.0,-58.0,1
9.0,-127.0,-210.0,-174.0,-21.0,-59.0,1
7.0,-128.0,-209.0,-174.0,-21.0,-59.0,1
3.0,-130.0,-211.0,-171.0,-18.0,-60.0,1
8.0,-129.0,-210.0,-169.0,-23.0,-61.0,1
10.0,-128.0,-212.0,-167.0,-27.0,-62.0,1
9.0,-124.0,-214.0,-166.0,-28.0,-62.0,1
7.0,-130.0,-210.0,-165.0,-28.0,-63.0,1
4.0,-128.0,-213.0,-164.0,-27.0,-62.0,1
5.0,-126.0,-213.0,-162.0,-29.0,-61.0,1
7.0,-124.0,-211.0,-159.0,-31.0,-62.0,1
5.0,-126.0,-212.0,-160.0,-29.0,-64.0,1
6.0,-126.0,-212.0,-160.0,-29.0,-64.0,1
2.0,-123.0,-211.0,-163.0,-33.0,-66.0,1
7.0,-126.0,-213.0,-163.0,-36.0,-67.0,1
6.0,-123.0,-217.0,-162.0,-36.0,-66.0,1
5.0,-126.0,-213.0,-160.0,-37.0,-68.0,1
7.0,-128.0,-210.0,-156.0,-40.0,-67.0,1
7.0,-126.0,-220.0,-152.0,-42.0,-67.0,1
5.0,-125.0,-211.0,-151.0,-46.0,-66.0,1
8.0,-125.0,-215.0,-150.0,-47.0,-66.0,1
6.0,-127.0,-216.0,-151.0,-47.0,-67.0,1
6.0,-125.0,-214.0,-151.0,-47.0,-66.0,1
11.0,-123.0,-216.0,-150.0,-49.0,-66.0,1
13.0,-124.0,-214.0,-149.0,-48.0,-66.0,1
12.0,-125.0,-217.0,-150.0,-48.0,-66.0,1
5.0,-127.0,-212.0,-148.0,-46.0,-65.0,1
15.0,-125.0,-212.0,-146.0,-47.0,-66.0,1
14.0,-118.0,-214.0,-144.0,-43.0,-68.0,1
5.0,-127.0,-216.0,-144.0,-39.0,-65.0,1
8.0,-125.0,-214.0,-146.0,-35.0,-66.0,1
14.0,-121.0,-215.0,-145.0,-33.0,-66.0,1
7.0,-119.0,-215.0,-149.0,-26.0,-67.0,1
10.0,-121.0,-215.0,-152.0,-22.0,-64.0,1
9.0,-118.0,-215.0,-155.0,-18.0,-63.0,1
16.0,-122.0,-218.0,-158.0,-14.0,-62.0,1
10.0,-122.0,-223.0,-159.0,-8.0,-62.0,1
5.0,-121.0,-214.0,-157.0,-5.0,-61.0,1
12.0,-122.0,-216.0,-155.0,-5.0,-63.0,1
10.0,-120.0,-213.0,-154.0,-2.0,-62.0,1
13.0,-121.0,-217.0,-157.0,-1.0,-60.0,1
-3.0,-122.0,-216.0,-156.0,1.0,-64.0,1
10.0,-120.0,-221.0,-159.0,-4.0,-63.0,1
5.0,-119.0,-217.0,-165.0,-7.0,-65.0,1
7.0,-121.0,-214.0,-167.0,-11.0,-67.0,1
10.0,-118.0,-216.0,-167.0,-18.0,-69.0,1
8.0,-119.0,-216.0,-172.0,-21.0,-71.0,1
0.0,-116.0,-217.0,-175.0,-24.0,-73.0,1
13.0,-119.0,-217.0,-174.0,-29.0,-74.0,1
7.0,-115.0,-220.0,-179.0,-29.0,-76.0,1
3.0,-114.0,-218.0,-182.0,-29.0,-78.0,1
10.0,-116.0,-218.0,-183.0,-32.0,-79.0,1
7.0,-116.0,-216.0,-188.0,-29.0,-80.0,1
7.0,-115.0,-214.0,-192.0,-28.0,-81.0,1
10.0,-114.0,-221.0,-193.0,-27.0,-82.0,1
10.0,-116.0,-219.0,-193.0,-22.0,-79.0,1
10.0,-117.0,-218.0,-191.0,-21.0,-78.0,1
8.0,-114.0,-223.0,-189.0,-18.0,-77.0,1
5.0,-115.0,-218.0,-191.0,-14.0,-77.0,1
8.0,-114.0,-223.0,-189.0,-15.0,-75.0,1
8.0,-113.0,-223.0,-189.0,-12.0,-74.0,1
0.0,-114.0,-219.0,-191.0,-7.0,-73.0,1
7.0,-118.0,-222.0,-189.0,-7.0,-73.0,1
4.0,-111.0,-219.0,-192.0,-3.0,-73.0,1
1.0,-117.0,-220.0,-191.0,-2.0,-73.0,1
8.0,-116.0,-221.0,-187.0,-3.0,-71.0,1
3.0,-117.0,-220.0,-186.0,-2.0,-70.0,1
9.0,-113.0,-224.0,-180.0,-7.0,-70.0,1
7.0,-115.0,-225.0,-176.0,-9.0,-69.0,1
1.0,-113.0,-217.0,-173.0,-10.0,-68.0,1
10.0,-113.0,-226.0,-169.0,-15.0,-67.0,1
24.0,-113.0,-217.0,-168.0,-8.0,-66.0,1
-20.0,-118.0,-221.0,-161.0,0.0,-69.0,1
14.0,-107.0,-231.0,-177.0,-13.0,-66.0,1
2.0,-107.0,-224.0,-186.0,-19.0,-64.0,1
11.0,-111.0,-220.0,-187.0,-23.0,-62.0,1
4.0,-109.0,-220.0,-185.0,-19.0,-60.0,1
0.0,-106.0,-220.0,-186.0,-19.0,-58.0,1
12.0,-108.0,-225.0,-184.0,-26.0,-58.0,1
3.0,-109.0,-223.0,-185.0,-22.0,-55.0,1
13.0,-107.0,-219.0,-187.0,-25.0,-56.0,1
6.0,-109.0,-221.0,-191.0,-21.0,-56.0,1
3.0,-108.0,-221.0,-195.0,-27.0,-56.0,1
13.0,-110.0,-227.0,-195.0,-29.0,-56.0,1
4.0,-106.0,-219.0,-196.0,-29.0,-57.0,1
14.0,-105.0,-224.0,-198.0,-31.0,-59.0,1
35.0,-108.0,-203.0,-199.0,-24.0,-60.0,1
-2.0,-107.0,-222.0,-194.0,-2.0,-65.0,1
2.0,-100.0,-232.0,-207.0,5.0,-62.0,1
3.0,-105.0,-229.0,-224.0,-3.0,-60.0,1
15.0,-103.0,-226.0,-227.0,-18.0,-56.0,1
3.0,-103.0,-223.0,-223.0,-17.0,-56.0,1
16.0,-104.0,-230.0,-217.0,-14.0,-58.0,1
6.0,-107.0,-224.0,-212.0,-10.0,-55.0,1
12.0,-102.0,-229.0,-207.0,-14.0,-53.0,1
5.0,-102.0,-225.0,-204.0,-9.0,-53.0,1
38.0,-101.0,-222.0,-202.0,-7.0,-54.0,1
6.0,-105.0,-222.0,-201.0,25.0,-56.0,1
-2.0,-98.0,-230.0,-209.0,26.0,-57.0,1
5.0,-97.0,-228.0,-218.0,12.0,-48.0,1
12.0,-98.0,-228.0,-214.0,4.0,-47.0,1
0.0,-100.0,-223.0,-204.0,6.0,-48.0,1
19.0,-100.0,-233.0,-196.0,5.0,-49.0,1
12.0,-96.0,-221.0,-197.0,6.0,-50.0,1
10.0,-102.0,-229.0,-190.0,19.0,-49.0,1
0.0,-100.0,-229.0,-188.0,25.0,-55.0,1
14.0,-95.0,-237.0,-193.0,15.0,-53.0,1
12.0,-97.0,-234.0,-194.0,5.0,-50.0,1
5.0,-97.0,-224.0,-189.0,9.0,-50.0,1
36.0,-92.0,-228.0,-183.0,3.0,-54.0,1
6.0,-91.0,-227.0,-177.0,29.0,-55.0,1
-4.0,-89.0,-226.0,-178.0,32.0,-58.0,1
4.0,-95.0,-225.0,-186.0,31.0,-53.0,1
17.0,-98.0,-230.0,-193.0,14.0,-51.0,1
7.0,-92.0,-224.0,-191.0,15.0,-47.0,1
21.0,-94.0,-234.0,-182.0,20.0,-47.0,1
6.0,-94.0,-231.0,-175.0,40.0,-51.0,1
-2.0,-89.0,-231.0,-170.0,35.0,-55.0,1
7.0,-91.0,-236.0,-172.0,25.0,-51.0,1
14.0,-91.0,-237.0,-173.0,19.0,-49.0,1
23.0,-90.0,-234.0,-170.0,27.0,-44.0,1
-18.0,-85.0,-223.0,-167.0,37.0,-46.0,1
12.0,-95.0,-226.0,-163.0,28.0,-45.0,1
6.0,-91.0,-240.0,-157.0,20.0,-44.0,1
8.0,-84.0,-228.0,-157.0,18.0,-40.0,1
18.0,-87.0,-226.0,-151.0,16.0,-36.0,1
9.0,-89.0,-239.0,-145.0,15.0,-42.0,1
19.0,-87.0,-235.0,-150.0,22.0,-39.0,1
-15.0,-82.0,-227.0,-158.0,24.0,-38.0,1
18.0,-87.0,-224.0,-166.0,9.0,-36.0,1
9.0,-84.0,-229.0,-165.0,14.0,-34.0,1
20.0,-87.0,-235.0,-165.0,22.0,-38.0,1
4.0,-84.0,-239.0,-167.0,30.0,-38.0,1
1.0,-80.0,-229.0,-174.0,27.0,-34.0,1
14.0,-84.0,-228.0,-169.0,16.0,-28.0,1
13.0,-87.0,-232.0,-159.0,22.0,-29.0,1
13.0,-82.0,-241.0,-156.0,29.0,-31.0,1
6.0,-78.0,-234.0,-155.0,29.0,-27.0,1
27.0,-91.0,-244.0,-157.0,19.0,-26.0,1
16.0,-88.0,-233.0,-158.0,26.0,-20.0,1
-9.0,-83.0,-233.0,-154.0,35.0,-22.0,1
20.0,-85.0,-233.0,-156.0,25.0,-21.0,1
3.0,-83.0,-231.0,-154.0,31.0,-20.0,1
22.0,-82.0,-234.0,-154.0,30.0,-19.0,1
1.0,-82.0,-237.0,-149.0,35.0,-17.0,1
8.0,-82.0,-234.0,-148.0,28.0,-18.0,1
23.0,-88.0,-234.0,-144.0,36.0,-14.0,1
-2.0,-80.0,-230.0,-138.0,53.0,-18.0,1
18.0,-76.0,-228.0,-138.0,47.0,-17.0,1
8.0,-74.0,-233.0,-134.0,48.0,-13.0,1
19.0,-82.0,-231.0,-133.0,48.0,-10.0,1
17.0,-80.0,-244.0,-132.0,40.0,-6.0,1
7.0,-80.0,-241.0,-136.0,45.0,-2.0,1
6.0,-77.0,-229.0,-144.0,32.0,-2.0,1
24.0,-81.0,-231.0,-136.0,26.0,2.0,1
12.0,-77.0,-238.0,-126.0,29.0,4.0,1
14.0,-80.0,-240.0,-125.0,40.0,1.0,1
6.0,-73.0,-237.0,-131.0,40.0,2.0,1
19.0,-87.0,-243.0,-130.0,36.0,3.0,1
1.0,-68.0,-230.0,-132.0,49.0,3.0,1
12.0,-69.0,-233.0,-132.0,39.0,6.0,1
18.0,-73.0,-232.0,-120.0,32.0,8.0,1
12.0,-84.0,-235.0,-109.0,35.0,7.0,1
9.0,-74.0,-234.0,-99.0,40.0,3.0,1
12.0,-77.0,-236.0,-97.0,37.0,2.0,1
8.0,-76.0,-236.0,-97.0,37.0,0.0,1
10.0,-78.0,-236.0,-98.0,44.0,-1.0,1
9.0,-78.0,-239.0,-91.0,48.0,-1.0,1
13.0,-79.0,-242.0,-82.0,48.0,-2.0,1
7.0,-71.0,-237.0,-73.0,45.0,-3.0,1
10.0,-73.0,-233.0,-66.0,39.0,-1.0,1
10.0,-73.0,-239.0,-67.0,37.0,1.0,1
7.0,-73.0,-240.0,-70.0,37.0,0.0,1
8.0,-73.0,-237.0,-74.0,38.0,-1.0,1
8.0,-70.0,-235.0,-77.0,39.0,0.0,1
8.0,-74.0,-236.0,-80.0,41.0,0.0,1
7.0,-68.0,-234.0,-81.0,40.0,-1.0,1
9.0,-72.0,-236.0,-84.0,41.0,-2.0,1
6.0,-69.0,-243.0,-90.0,41.0,-6.0,1
8.0,-74.0,-237.0,-96.0,44.0,-9.0,1
9.0,-72.0,-240.0,-98.0,45.0,-12.0,1
7.0,-72.0,-242.0,-96.0,44.0,-14.0,1
7.0,-71.0,-239.0,-93.0,42.0,-17.0,1
9.0,-70.0,-237.0,-90.0,39.0,-17.0,1
5.0,-72.0,-240.0,-88.0,37.0,-16.0,1
10.0,-72.0,-238.0,-90.0,37.0,-18.0,1
6.0,-71.0,-239.0,-93.0,35.0,-17.0,1
9.0,-70.0,-236.0,-95.0,35.0,-17.0,1
7.0,-71.0,-235.0,-93.0,34.0,-17.0,1
9.0,-67.0,-241.0,-94.0,31.0,-18.0,1
10.0,-71.0,-234.0,-94.0,30.0,-18.0,1
11.0,-74.0,-237.0,-98.0,28.0,-16.0,1
11.0,-69.0,-235.0,-99.0,27.0,-17.0,1
11.0,-68.0,-236.0,-101.0,26.0,-18.0,1
11.0,-70.0,-237.0,-99.0,24.0,-17.0,1
13.0,-69.0,-236.0,-96.0,22.0,-12.0,1
9.0,-70.0,-239.0,-89.0,21.0,-11.0,1
12.0,-71.0,-237.0,-84.0,21.0,-9.0,1
12.0,-69.0,-241.0,-81.0,20.0,-7.0,1
13.0,-70.0,-241.0,-80.0,19.0,-8.0,1
16.0,-66.0,-241.0,-80.0,19.0,-7.0,1
14.0,-73.0,-242.0,-80.0,20.0,-7.0,1
8.0,-66.0,-239.0,-80.0,20.0,-8.0,1
9.0,-61.0,-240.0,-80.0,21.0,-10.0,1
11.0,-66.0,-242.0,-86.0,20.0,-12.0,1
11.0,-64.0,-238.0,-91.0,20.0,-13.0,1
12.0,-64.0,-236.0,-95.0,22.0,-15.0,1
10.0,-65.0,-240.0,-96.0,23.0,-15.0,1
12.0,-66.0,-237.0,-98.0,26.0,-17.0,1
11.0,-69.0,-237.0,-100.0,28.0,-18.0,1
9.0,-67.0,-237.0,-101.0,31.0,-19.0,1
8.0,-67.0,-236.0,-99.0,32.0,-21.0,1
9.0,-68.0,-241.0,-98.0,31.0,-21.0,1
10.0,-67.0,-239.0,-93.0,29.0,-23.0,1
3.0,-66.0,-238.0,-89.0,27.0,-23.0,1
8.0,-65.0,-239.0,-85.0,24.0,-20.0,1
8.0,-67.0,-239.0,-83.0,22.0,-21.0,1
10.0,-65.0,-241.0,-83.0,18.0,-22.0,1
11.0,-62.0,-242.0,-82.0,17.0,-24.0,1
12.0,-67.0,-240.0,-84.0,16.0,-24.0,1
13.0,-66.0,-240.0,-86.0,16.0,-27.0,1
14.0,-67.0,-241.0,-91.0,14.0,-27.0,1
10.0,-64.0,-240.0,-97.0,13.0,-28.0,1
10.0,-66.0,-231.0,-100.0,11.0,-29.0,1
8.0,-67.0,-240.0,-102.0,10.0,-31.0,1
13.0,-70.0,-236.0,-101.0,9.0,-31.0,1
11.0,-68.0,-234.0,-98.0,7.0,-34.0,1
9.0,-70.0,-238.0,-94.0,8.0,-35.0,1
14.0,-68.0,-239.0,-87.0,6.0,-35.0,1
10.0,-71.0,-237.0,-83.0,4.0,-38.0,1
10.0,-67.0,-235.0,-80.0,4.0,-41.0,1
8.0,-66.0,-239.0,-75.0,3.0,-42.0,1
11.0,-65.0,-238.0,-73.0,2.0,-43.0,1
11.0,-66.0,-232.0,-71.0,3.0,-43.0,1
13.0,-67.0,-241.0,-70.0,6.0,-45.0,1
12.0,-68.0,-241.0,-70.0,8.0,-46.0,1
17.0,-69.0,-241.0,-70.0,12.0,-46.0,1
11.0,-67.0,-238.0,-69.0,16.0,-47.0,1
14.0,-66.0,-241.0,-67.0,20.0,-46.0,1
14.0,-67.0,-238.0,-63.0,23.0,-46.0,1
13.0,-66.0,-243.0,-61.0,29.0,-45.0,1
10.0,-64.0,-240.0,-61.0,33.0,-42.0,1
12.0,-65.0,-240.0,-64.0,37.0,-41.0,1
11.0,-65.0,-239.0,-66.0,39.0,-37.0,1
11.0,-63.0,-240.0,-69.0,40.0,-39.0,1
13.0,-63.0,-242.0,-69.0,40.0,-35.0,1
12.0,-64.0,-242.0,-70.0,40.0,-37.0,1
14.0,-63.0,-243.0,-69.0,37.0,-37.0,1
10.0,-62.0,-238.0,-66.0,33.0,-36.0,1
7.0,-62.0,-243.0,-66.0,28.0,-34.0,1
6.0,-60.0,-241.0,-68.0,23.0,-31.0,1
9.0,-63.0,-243.0,-71.0,20.0,-32.0,1
10.0,-61.0,-245.0,-71.0,17.0,-30.0,1
10.0,-63.0,-244.0,-69.0,15.0,-31.0,1
8.0,-60.0,-241.0,-67.0,14.0,-29.0,1
14.0,-64.0,-245.0,-66.0,14.0,-28.0,1
13.0,-63.0,-246.0,-66.0,13.0,-27.0,1
11.0,-60.0,-243.0,-68.0,15.0,-27.0,1
8.0,-62.0,-242.0,-70.0,16.0,-27.0,1
10.0,-58.0,-241.0,-71.0,18.0,-25.0,1
9.0,-60.0,-245.0,-72.0,20.0,-23.0,1
11.0,-62.0,-241.0,-74.0,20.0,-20.0,1
10.0,-59.0,-242.0,-79.0,21.0,-19.0,1
10.0,-58.0,-241.0,-84.0,20.0,-17.0,1
14.0,-63.0,-242.0,-88.0,20.0,-20.0,1
14.0,-60.0,-242.0,-89.0,20.0,-19.0,1
14.0,-63.0,-243.0,-89.0,21.0,-21.0,1
12.0,-64.0,-245.0,-85.0,21.0,-22.0,1
16.0,-63.0,-240.0,-82.0,19.0,-21.0,1
14.0,-64.0,-240.0,-79.0,22.0,-20.0,1
14.0,-63.0,-238.0,-75.0,19.0,-19.0,1
13.0,-58.0,-242.0,-71.0,17.0,-17.0,1
13.0,-58.0,-240.0,-68.0,15.0,-17.0,1
13.0,-58.0,-241.0,-66.0,13.0,-15.0,1
12.0,-56.0,-240.0,-69.0,15.0,-12.0,1
15.0,-56.0,-239.0,-74.0,16.0,-10.0,1
13.0,-55.0,-239.0,-81.0,19.0,-7.0,1
14.0,-60.0,-242.0,-88.0,22.0,-7.0,1
13.0,-53.0,-241.0,-94.0,23.0,-5.0,1
10.0,-57.0,-241.0,-98.0,25.0,-5.0,1
13.0,-57.0,-244.0,-103.0,24.0,-2.0,1
9.0,-55.0,-242.0,-106.0,24.0,-2.0,1
13.0,-54.0,-241.0,-107.0,24.0,-3.0,1
10.0,-54.0,-239.0,-109.0,24.0,-2.0,1
13.0,-52.0,-241.0,-111.0,25.0,0.0,1
9.0,-49.0,-246.0,-114.0,26.0,1.0,1
12.0,-52.0,-241.0,-118.0,27.0,1.0,1
14.0,-49.0,-241.0,-124.0,29.0,1.0,1
14.0,-50.0,-241.0,-129.0,29.0,-1.0,1
15.0,-52.0,-242.0,-132.0,31.0,-3.0,1
16.0,-51.0,-243.0,-135.0,30.0,-3.0,1
11.0,-51.0,-240.0,-140.0,28.0,-3.0,1
14.0,-51.0,-242.0,-144.0,24.0,-4.0,1
15.0,-51.0,-241.0,-148.0,19.0,-4.0,1
15.0,-49.0,-238.0,-152.0,15.0,-3.0,1
16.0,-50.0,-240.0,-154.0,11.0,-2.0,1
11.0,-48.0,-241.0,-157.0,8.0,-2.0,1
17.0,-51.0,-242.0,-160.0,3.0,-2.0,1
13.0,-50.0,-241.0,-163.0,1.0,-1.0,1
15.0,-51.0,-241.0,-167.0,2.0,2.0,1
16.0,-54.0,-237.0,-170.0,3.0,0.0,1
16.0,-55.0,-241.0,-171.0,4.0,-2.0,1
12.0,-50.0,-242.0,-170.0,7.0,-5.0,1
15.0,-50.0,-237.0,-169.0,10.0,-6.0,1
14.0,-50.0,-238.0,-168.0,14.0,-9.0,1
16.0,-49.0,-238.0,-170.0,19.0,-11.0,1
15.0,-48.0,-242.0,-173.0,23.0,-13.0,1
13.0,-44.0,-240.0,-179.0,27.0,-12.0,1
14.0,-46.0,-238.0,-183.0,31.0,-12.0,1
13.0,-49.0,-240.0,-189.0,32.0,-13.0,1
13.0,-47.0,-238.0,-190.0,33.0,-14.0,1
9.0,-47.0,-238.0,-191.0,31.0,-15.0,1
11.0,-49.0,-236.0,-191.0,28.0,-17.0,1
11.0,-45.0,-237.0,-189.0,26.0,-19.0,1
11.0,-47.0,-237.0,-189.0,21.0,-23.0,1
10.0,-48.0,-238.0,-190.0,18.0,-27.0,1
10.0,-48.0,-234.0,-190.0,14.0,-30.0,1
12.0,-47.0,-235.0,-189.0,12.0,-35.0,1
15.0,-48.0,-239.0,-187.0,8.0,-38.0,1
9.0,-49.0,-236.0,-186.0,5.0,-41.0,1
13.0,-50.0,-237.0,-185.0,1.0,-45.0,1
13.0,-47.0,-239.0,-187.0,0.0,-50.0,1
10.0,-42.0,-235.0,-188.0,-2.0,-52.0,1
12.0,-39.0,-243.0,-188.0,-4.0,-55.0,1
12.0,-44.0,-239.0,-189.0,-3.0,-56.0,1
12.0,-48.0,-233.0,-190.0,-5.0,-56.0,1
15.0,-43.0,-237.0,-192.0,-4.0,-60.0,1
12.0,-46.0,-238.0,-198.0,-5.0,-62.0,1
14.0,-49.0,-238.0,-199.0,-7.0,-63.0,1
15.0,-44.0,-237.0,-201.0,-7.0,-65.0,1
8.0,-43.0,-239.0,-202.0,-8.0,-67.0,1
13.0,-44.0,-240.0,-199.0,-10.0,-68.0,1
13.0,-47.0,-238.0,-197.0,-11.0,-67.0,1
11.0,-42.0,-237.0,-194.0,-10.0,-66.0,1
11.0,-43.0,-242.0,-191.0,-8.0,-66.0,1
12.0,-44.0,-238.0,-193.0,-7.0,-65.0,1
12.0,-41.0,-239.0,-195.0,-6.0,-64.0,1
15.0,-41.0,-237.0,-198.0,-3.0,-62.0,1
14.0,-41.0,-240.0,-203.0,-1.0,-61.0,1
11.0,-38.0,-238.0,-207.0,0.0,-67.0,1
14.0,-44.0,-237.0,-210.0,0.0,-64.0,1
14.0,-40.0,-238.0,-209.0,-1.0,-67.0,1
12.0,-45.0,-237.0,-210.0,-4.0,-69.0,1
13.0,-42.0,-236.0,-211.0,-5.0,-72.0,1
15.0,-40.0,-241.0,-215.0,-7.0,-76.0,1
8.0,-43.0,-240.0,-217.0,-8.0,-80.0,1
16.0,-42.0,-232.0,-220.0,-7.0,-84.0,1
14.0,-38.0,-238.0,-223.0,-5.0,-85.0,1
11.0,-39.0,-243.0,-226.0,-3.0,-82.0,1
11.0,-36.0,-241.0,-226.0,-2.0,-84.0,1
12.0,-41.0,-246.0,-227.0,-3.0,-86.0,1
13.0,-40.0,-243.0,-229.0,-3.0,-86.0,1
12.0,-36.0,-242.0,-233.0,0.0,-87.0,1
11.0,-41.0,-239.0,-238.0,1.0,-86.0,1
15.0,-41.0,-246.0,-239.0,1.0,-88.0,1
15.0,-40.0,-246.0,-239.0,2.0,-90.0,1
14.0,-42.0,-246.0,-240.0,2.0,-90.0,1
10.0,-39.0,-246.0,-240.0,1.0,-91.0,1
12.0,-36.0,-241.0,-241.0,1.0,-94.0,1
9.0,-34.0,-245.0,-240.0,3.0,-98.0,1
13.0,-36.0,-248.0,-245.0,7.0,-101.0,1
11.0,-38.0,-245.0,-253.0,14.0,-105.0,1
11.0,-34.0,-244.0,-261.0,20.0,-111.0,1
13.0,-36.0,-248.0,-270.0,28.0,-114.0,1
12.0,-36.0,-248.0,-277.0,34.0,-118.0,1
13.0,-32.0,-249.0,-283.0,37.0,-120.0,1
10.0,-37.0,-248.0,-288.0,40.0,-120.0,1
13.0,-36.0,-245.0,-289.0,45.0,-118.0,1
14.0,-36.0,-246.0,-289.0,47.0,-117.0,1
16.0,-35.0,-248.0,-289.0,49.0,-116.0,1
12.0,-33.0,-245.0,-287.0,49.0,-114.0,1
12.0,-35.0,-244.0,-286.0,49.0,-115.0,1
14.0,-36.0,-248.0,-286.0,47.0,-111.0,1
12.0,-34.0,-244.0,-290.0,43.0,-111.0,1
15.0,-36.0,-243.0,-293.0,38.0,-112.0,1
15.0,-33.0,-242.0,-299.0,31.0,-114.0,1
15.0,-34.0,-246.0,-303.0,26.0,-117.0,1
9.0,-29.0,-240.0,-305.0,21.0,-118.0,1
12.0,-30.0,-245.0,-306.0,18.0,-118.0,1
12.0,-30.0,-242.0,-307.0,17.0,-119.0,1
11.0,-33.0,-244.0,-311.0,17.0,-120.0,1
10.0,-30.0,-247.0,-316.0,15.0,-120.0,1
10.0,-28.0,-244.0,-321.0,11.0,-122.0,1
13.0,-28.0,-244.0,-331.0,8.0,-126.0,1
13.0,-32.0,-237.0,-342.0,4.0,-133.0,1
9.0,-28.0,-243.0,-360.0,1.0,-144.0,1
13.0,-27.0,-240.0,-368.0,-3.0,-150.0,1
12.0,-30.0,-238.0,-371.0,-8.0,-155.0,1
7.0,-24.0,-247.0,-376.0,-13.0,-158.0,1
11.0,-24.0,-241.0,-381.0,-19.0,-163.0,1
9.0,-21.0,-245.0,-387.0,-25.0,-165.0,1
11.0,-23.0,-244.0,-392.0,-30.0,-164.0,1
10.0,-19.0,-244.0,-400.0,-33.0,-163.0,1
11.0,-22.0,-244.0,-410.0,-34.0,-163.0,1
12.0,-25.0,-243.0,-423.0,-33.0,-162.0,1
13.0,-26.0,-246.0,-432.0,-31.0,-163.0,1
14.0,-24.0,-245.0,-439.0,-29.0,-162.0,1
15.0,-23.0,-248.0,-443.0,-27.0,-165.0,1
18.0,-22.0,-248.0,-443.0,-23.0,-166.0,1
16.0,-26.0,-254.0,-438.0,-22.0,-166.0,1
16.0,-23.0,-251.0,-428.0,-21.0,-168.0,1
15.0,-23.0,-250.0,-416.0,-18.0,-168.0,1
17.0,-23.0,-250.0,-403.0,-16.0,-166.0,1
15.0,-25.0,-255.0,-388.0,-16.0,-162.0,1
16.0,-27.0,-252.0,-375.0,-20.0,-155.0,1
13.0,-26.0,-253.0,-362.0,-25.0,-151.0,1
10.0,-24.0,-245.0,-355.0,-28.0,-151.0,1
11.0,-24.0,-247.0,-348.0,-30.0,-152.0,1
12.0,-24.0,-244.0,-343.0,-29.0,-153.0,1
10.0,-28.0,-244.0,-338.0,-25.0,-153.0,1
12.0,-26.0,-239.0,-334.0,-22.0,-153.0,1
13.0,-30.0,-241.0,-325.0,-22.0,-153.0,1
15.0,-29.0,-245.0,-313.0,-26.0,-148.0,1
16.0,-31.0,-245.0,-301.0,-33.0,-146.0,1
18.0,-35.0,-244.0,-288.0,-41.0,-144.0,1
13.0,-35.0,-246.0,-273.0,-51.0,-144.0,1
12.0,-32.0,-248.0,-258.0,-64.0,-146.0,1
14.0,-37.0,-246.0,-240.0,-72.0,-151.0,1
11.0,-34.0,-250.0,-225.0,-80.0,-157.0,1
16.0,-31.0,-247.0,-213.0,-84.0,-163.0,1
10.0,-29.0,-251.0,-207.0,-86.0,-169.0,1
9.0,-27.0,-244.0,-207.0,-90.0,-177.0,1
9.0,-24.0,-246.0,-212.0,-93.0,-182.0,1
8.0,-23.0,-249.0,-219.0,-97.0,-188.0,1
6.0,-23.0,-249.0,-232.0,-103.0,-192.0,1
9.0,-20.0,-249.0,-248.0,-109.0,-197.0,1
10.0,-27.0,-249.0,-260.0,-118.0,-200.0,1
14.0,-25.0,-244.0,-268.0,-130.0,-200.0,1
9.0,-24.0,-246.0,-270.0,-145.0,-200.0,1
6.0,-22.0,-250.0,-273.0,-157.0,-200.0,1
4.0,-22.0,-247.0,-279.0,-167.0,-203.0,1
7.0,-25.0,-247.0,-285.0,-173.0,-205.0,1
6.0,-24.0,-256.0,-290.0,-180.0,-204.0,1
6.0,-21.0,-254.0,-292.0,-188.0,-204.0,1
10.0,-24.0,-254.0,-292.0,-196.0,-203.0,1
2.0,-23.0,-256.0,-289.0,-202.0,-199.0,1
8.0,-25.0,-254.0,-281.0,-207.0,-198.0,1
10.0,-20.0,-255.0,-272.0,-204.0,-194.0,1
7.0,-19.0,-258.0,-266.0,-202.0,-190.0,1
3.0,-20.0,-259.0,-259.0,-205.0,-186.0,1
2.0,-14.0,-262.0,-255.0,-207.0,-181.0,1
4.0,-16.0,-265.0,-252.0,-216.0,-180.0,1
6.0,-16.0,-265.0,-248.0,-223.0,-175.0,1
10.0,-16.0,-261.0,-250.0,-231.0,-170.0,1
7.0,-17.0,-269.0,-256.0,-236.0,-164.0,1
3.0,-13.0,-265.0,-260.0,-243.0,-160.0,1
7.0,-10.0,-266.0,-266.0,-243.0,-156.0,1
4.0,-13.0,-263.0,-275.0,-239.0,-152.0,1
3.0,-11.0,-263.0,-286.0,-243.0,-151.0,1
4.0,-13.0,-259.0,-298.0,-245.0,-152.0,1
2.0,-12.0,-262.0,-315.0,-246.0,-152.0,1
2.0,-17.0,-265.0,-331.0,-250.0,-151.0,1
-3.0,-20.0,-264.0,-344.0,-251.0,-153.0,1
-5.0,-19.0,-262.0,-350.0,-255.0,-155.0,1
-1.0,-20.0,-258.0,-353.0,-258.0,-161.0,1
-2.0,-19.0,-259.0,-355.0,-261.0,-166.0,1
-1.0,-21.0,-263.0,-358.0,-262.0,-173.0,1
0.0,-22.0,-260.0,-363.0,-266.0,-174.0,1
0.0,-19.0,-257.0,-362.0,-268.0,-178.0,1
4.0,-25.0,-257.0,-365.0,-267.0,-181.0,1
5.0,-23.0,-248.0,-369.0,-265.0,-181.0,1
3.0,-24.0,-247.0,-371.0,-264.0,-177.0,1
-2.0,-24.0,-246.0,-375.0,-260.0,-173.0,1
1.0,-25.0,-244.0,-379.0,-256.0,-170.0,1
2.0,-30.0,-245.0,-376.0,-243.0,-169.0,1
0.0,-34.0,-239.0,-363.0,-220.0,-163.0,1
2.0,-35.0,-239.0,-346.0,-201.0,-153.0,1
-4.0,-36.0,-235.0,-325.0,-182.0,-142.0,1
-1.0,-37.0,-236.0,-303.0,-164.0,-127.0,1
0.0,-41.0,-234.0,-282.0,-149.0,-110.0,1
-3.0,-42.0,-233.0,-265.0,-133.0,-89.0,1
-1.0,-41.0,-234.0,-250.0,-121.0,-70.0,1
0.0,-38.0,-228.0,-230.0,-111.0,-52.0,1
0.0,-37.0,-228.0,-211.0,-101.0,-33.0,1
-4.0,-41.0,-229.0,-191.0,-89.0,-15.0,1
-1.0,-37.0,-223.0,-171.0,-79.0,2.0,1
0.0,-34.0,-223.0,-151.0,-65.0,21.0,1
-2.0,-34.0,-223.0,-133.0,-54.0,39.0,1
-2.0,-35.0,-222.0,-110.0,-42.0,54.0,1
0.0,-31.0,-224.0,-89.0,-34.0,67.0,1
-1.0,-26.0,-221.0,-70.0,-24.0,83.0,1
1.0,-23.0,-224.0,-52.0,-16.0,98.0,1
-3.0,-17.0,-223.0,-37.0,-8.0,113.0,1
1.0,-14.0,-222.0,-26.0,0.0,130.0,1
0.0,-12.0,-226.0,-19.0,15.0,141.0,1
-2.0,-9.0,-225.0,-14.0,25.0,148.0,1
1.0,0.0,-230.0,-6.0,36.0,158.0,1
-1.0,-2.0,-225.0,2.0,49.0,164.0,1
-2.0,0.0,-228.0,7.0,60.0,165.0,1
-2.0,5.0,-228.0,8.0,64.0,162.0,1
-6.0,9.0,-228.0,5.0,60.0,156.0,1
-6.0,13.0,-226.0,3.0,51.0,144.0,1
-6.0,14.0,-233.0,2.0,38.0,131.0,1
-9.0,21.0,-234.0,-1.0,23.0,117.0,1
-10.0,20.0,-236.0,-5.0,11.0,115.0,1
-11.0,30.0,-237.0,-4.0,6.0,109.0,1
-9.0,26.0,-240.0,0.0,8.0,106.0,1
-7.0,29.0,-238.0,-2.0,17.0,115.0,1
-5.0,28.0,-237.0,-7.0,26.0,129.0,1
-8.0,26.0,-236.0,-20.0,38.0,143.0,1
-7.0,24.0,-234.0,-47.0,42.0,155.0,1
-10.0,27.0,-229.0,-92.0,42.0,161.0,1
-10.0,29.0,-231.0,-147.0,42.0,169.0,1
-9.0,29.0,-226.0,-204.0,41.0,172.0,1
-10.0,38.0,-230.0,-254.0,30.0,173.0,1
-8.0,35.0,-232.0,-292.0,21.0,177.0,1
-8.0,41.0,-233.0,-319.0,12.0,186.0,1
-3.0,39.0,-230.0,-346.0,6.0,192.0,1
-6.0,38.0,-238.0,-369.0,3.0,194.0,1
-12.0,35.0,-238.0,-391.0,3.0,194.0,1
-14.0,23.0,-235.0,-402.0,4.0,190.0,1
-19.0,9.0,-231.0,-402.0,10.0,181.0,1
-19.0,-5.0,-230.0,-367.0,21.0,173.0,1
-24.0,-22.0,-226.0,-296.0,33.0,158.0,1
-28.0,-32.0,-228.0,-209.0,38.0,136.0,1
-23.0,-43.0,-216.0,-120.0,33.0,121.0,1
-29.0,-47.0,-212.0,-49.0,17.0,129.0,1
-28.0,-55.0,-202.0,2.0,-7.0,144.0,1
-26.0,-50.0,-211.0,24.0,-30.0,160.0,1
-33.0,-46.0,-202.0,-25.0,-45.0,178.0,1
-41.0,-51.0,-210.0,-146.0,-56.0,215.0,1
-43.0,-42.0,-216.0,-292.0,-54.0,208.0,1
-51.0,-37.0,-215.0,-473.0,-44.0,215.0,1
-47.0,-46.0,-195.0,-684.0,-42.0,232.0,1
-48.0,-49.0,-189.0,-857.0,-45.0,227.0,1
-48.0,-47.0,-184.0,-978.0,-57.0,211.0,1
-43.0,-64.0,-174.0,-1092.0,-76.0,188.0,1
-49.0,-73.0,-184.0,-1146.0,-101.0,144.0,1
-38.0,-86.0,-173.0,-1152.0,-133.0,119.0,1
-23.0,-85.0,-164.0,-1151.0,-181.0,119.0,1
-22.0,-82.0,-152.0,-1173.0,-238.0,117.0,1
-14.0,-78.0,-144.0,-1216.0,-304.0,121.0,1
-14.0,-61.0,-146.0,-1269.0,-358.0,132.0,1
-9.0,-66.0,-139.0,-1338.0,-390.0,149.0,1
-15.0,-49.0,-152.0,-1372.0,-398.0,127.0,1
-13.0,-42.0,-148.0,-1398.0,-377.0,106.0,1
-12.0,-30.0,-148.0,-1410.0,-334.0,109.0,1
-12.0,-9.0,-145.0,-1423.0,-279.0,114.0,1
-14.0,9.0,-139.0,-1426.0,-221.0,127.0,1
-12.0,25.0,-136.0,-1435.0,-168.0,148.0,1
-2.0,43.0,-148.0,-1464.0,-126.0,173.0,1
2.0,67.0,-155.0,-1493.0,-90.0,199.0,1
11.0,74.0,-155.0,-1537.0,-47.0,203.0,1
12.0,76.0,-153.0,-1560.0,8.0,197.0,1
4.0,72.0,-155.0,-1554.0,73.0,189.0,1
11.0,86.0,-167.0,-1501.0,162.0,188.0,1
1.0,92.0,-170.0,-1440.0,272.0,188.0,1
4.0,99.0,-198.0,-1319.0,394.0,211.0,1
5.0,99.0,-233.0,-1147.0,503.0,233.0,1
17.0,107.0,-263.0,-950.0,573.0,242.0,1
26.0,113.0,-261.0,-720.0,603.0,237.0,1
41.0,122.0,-233.0,-458.0,616.0,220.0,1
42.0,142.0,-200.0,-166.0,625.0,199.0,1
39.0,161.0,-170.0,120.0,630.0,184.0,1
28.0,185.0,-164.0,393.0,637.0,173.0,1
14.0,207.0,-172.0,632.0,649.0,160.0,1
5.0,243.0,-193.0,819.0,660.0,146.0,1
1.0,271.0,-226.0,945.0,667.0,134.0,1
4.0,293.0,-268.0,1013.0,668.0,122.0,1
5.0,304.0,-281.0,1023.0,674.0,105.0,1
9.0,309.0,-297.0,1014.0,689.0,93.0,1
16.0,303.0,-298.0,1011.0,693.0,81.0,1
17.0,291.0,-288.0,1010.0,693.0,76.0,1
20.0,280.0,-282.0,1007.0,704.0,72.0,1
23.0,269.0,-275.0,1007.0,727.0,74.0,1
24.0,251.0,-261.0,1006.0,760.0,90.0,1
29.0,241.0,-254.0,996.0,799.0,125.0,1
40.0,235.0,-248.0,969.0,826.0,172.0,1
57.0,229.0,-242.0,921.0,834.0,226.0,1
63.0,226.0,-242.0,855.0,816.0,281.0,1
71.0,217.0,-236.0,789.0,788.0,332.0,1
71.0,210.0,-223.0,732.0,764.0,374.0,1
62.0,216.0,-228.0,688.0,753.0,406.0,1
51.0,221.0,-227.0,652.0,773.0,438.0,1
42.0,224.0,-235.0,627.0,815.0,469.0,1
36.0,229.0,-245.0,612.0,874.0,505.0,1
33.0,234.0,-257.0,605.0,945.0,543.0,1
30.0,235.0,-263.0,597.0,1018.0,582.0,1
32.0,237.0,-266.0,580.0,1084.0,618.0,1
36.0,241.0,-269.0,552.0,1144.0,647.0,1
39.0,250.0,-268.0,521.0,1200.0,668.0,1
44.0,238.0,-267.0,524.0,1227.0,674.0,1
52.0,229.0,-254.0,477.0,1303.0,699.0,1
63.0,251.0,-248.0,428.0,1354.0,707.0,1
71.0,239.0,-253.0,530.0,1399.0,706.0,1
86.0,221.0,-233.0,530.0,1415.0,701.0,1
102.0,216.0,-225.0,485.0,1404.0,686.0,1
126.0,261.0,-248.0,479.0,1405.0,679.0,1
149.0,298.0,-282.0,649.0,1230.0,556.0,1
138.0,289.0,-295.0,861.0,949.0,385.0,1
137.0,265.0,-275.0,888.0,870.0,323.0,1
134.0,254.0,-268.0,828.0,864.0,284.0,1
126.0,261.0,-266.0,775.0,876.0,234.0,1
116.0,239.0,-263.0,694.0,902.0,192.0,1
106.0,247.0,-276.0,581.0,960.0,155.0,1
96.0,267.0,-296.0,317.0,1041.0,142.0,1
100.0,259.0,-284.0,-57.0,1131.0,164.0,1
104.0,247.0,-269.0,-306.0,1326.0,248.0,1
74.0,229.0,-247.0,-460.0,1465.0,306.0,1
87.0,215.0,-254.0,-555.0,1536.0,357.0,1
76.0,224.0,-267.0,-564.0,1582.0,399.0,1
80.0,231.0,-273.0,-543.0,1584.0,381.0,1
67.0,226.0,-265.0,-581.0,1594.0,351.0,1
62.0,221.0,-262.0,-621.0,1603.0,330.0,1
62.0,207.0,-261.0,-664.0,1604.0,319.0,1
59.0,197.0,-254.0,-740.0,1585.0,304.0,1
65.0,187.0,-259.0,-800.0,1539.0,282.0,1
62.0,164.0,-254.0,-836.0,1502.0,249.0,1
68.0,156.0,-250.0,-842.0,1467.0,254.0,1
67.0,146.0,-256.0,-823.0,1429.0,250.0,1
75.0,129.0,-255.0,-797.0,1385.0,243.0,1
86.0,110.0,-250.0,-746.0,1332.0,242.0,1
95.0,101.0,-248.0,-678.0,1288.0,255.0,1
80.0,94.0,-248.0,-605.0,1241.0,259.0,1
89.0,107.0,-252.0,-539.0,1199.0,265.0,1
89.0,96.0,-241.0,-468.0,1157.0,270.0,1
93.0,96.0,-227.0,-422.0,1109.0,276.0,1
98.0,101.0,-224.0,-382.0,1056.0,274.0,1
92.0,113.0,-214.0,-340.0,997.0,265.0,1
107.0,122.0,-215.0,-319.0,931.0,259.0,1
100.0,130.0,-214.0,-297.0,862.0,257.0,1
108.0,141.0,-206.0,-279.0,795.0,239.0,1
105.0,145.0,-203.0,-256.0,739.0,226.0,1
121.0,147.0,-199.0,-238.0,680.0,219.0,1
121.0,156.0,-195.0,-214.0,625.0,209.0,1
127.0,164.0,-195.0,-178.0,576.0,189.0,1
126.0,165.0,-193.0,-132.0,524.0,172.0,1
146.0,161.0,-188.0,-79.0,475.0,156.0,1
152.0,163.0,-191.0,-22.0,427.0,143.0,1
147.0,158.0,-185.0,64.0,387.0,120.0,1
137.0,159.0,-194.0,146.0,352.0,105.0,1
134.0,152.0,-191.0,213.0,311.0,99.0,1
133.0,143.0,-181.0,243.0,289.0,111.0,1
146.0,131.0,-187.0,261.0,267.0,144.0,1
140.0,128.0,-172.0,269.0,248.0,163.0,1
134.0,127.0,-179.0,295.0,232.0,183.0,1
134.0,122.0,-182.0,303.0,199.0,204.0,1
135.0,125.0,-177.0,305.0,170.0,224.0,1
142.0,112.0,-178.0,319.0,151.0,243.0,1
141.0,107.0,-175.0,332.0,134.0,257.0,1
145.0,102.0,-178.0,347.0,123.0,267.0,1
133.0,97.0,-182.0,363.0,109.0,280.0,1
134.0,100.0,-177.0,376.0,96.0,298.0,1
139.0,93.0,-179.0,377.0,76.0,317.0,1
128.0,90.0,-179.0,394.0,43.0,345.0,1
136.0,85.0,-174.0,413.0,9.0,374.0,1
133.0,78.0,-173.0,433.0,-20.0,395.0,1
134.0,81.0,-178.0,460.0,-54.0,423.0,1
122.0,87.0,-180.0,442.0,-99.0,443.0,1
152.0,94.0,-190.0,418.0,-140.0,459.0,1
151.0,85.0,-179.0,392.0,-123.0,485.0,1
123.0,69.0,-177.0,367.0,-114.0,540.0,1
75.0,76.0,-196.0,376.0,-174.0,525.0,1
120.0,75.0,-183.0,361.0,-214.0,464.0,1
124.0,68.0,-183.0,351.0,-201.0,445.0,1
120.0,65.0,-185.0,338.0,-204.0,441.0,1
114.0,60.0,-186.0,343.0,-222.0,430.0,1
122.0,63.0,-191.0,349.0,-244.0,410.0,1
117.0,58.0,-191.0,355.0,-255.0,386.0,1
122.0,57.0,-194.0,376.0,-267.0,368.0,1
124.0,50.0,-194.0,404.0,-273.0,346.0,1
127.0,47.0,-193.0,435.0,-288.0,336.0,1
130.0,48.0,-199.0,476.0,-292.0,312.0,1
124.0,46.0,-199.0,503.0,-304.0,284.0,1
121.0,42.0,-196.0,520.0,-317.0,261.0,1
124.0,32.0,-196.0,529.0,-333.0,241.0,1
133.0,28.0,-196.0,535.0,-344.0,231.0,1
127.0,20.0,-194.0,548.0,-349.0,225.0,1
129.0,17.0,-206.0,560.0,-348.0,215.0,1
125.0,13.0,-204.0,561.0,-339.0,203.0,1
127.0,23.0,-217.0,567.0,-319.0,194.0,1
128.0,13.0,-216.0,562.0,-299.0,175.0,1
134.0,-3.0,-216.0,590.0,-269.0,170.0,1
127.0,16.0,-229.0,631.0,-233.0,169.0,1
129.0,28.0,-231.0,618.0,-208.0,152.0,1
123.0,37.0,-229.0,576.0,-188.0,130.0,1
127.0,37.0,-228.0,539.0,-174.0,104.0,1
126.0,33.0,-231.0,505.0,-162.0,84.0,1
128.0,35.0,-231.0,478.0,-153.0,65.0,1
127.0,35.0,-231.0,448.0,-145.0,49.0,1
125.0,36.0,-231.0,413.0,-140.0,41.0,1
127.0,38.0,-229.0,378.0,-138.0,31.0,1
125.0,37.0,-230.0,344.0,-140.0,23.0,1
120.0,36.0,-230.0,309.0,-146.0,14.0,1
124.0,41.0,-238.0,274.0,-154.0,7.0,1
124.0,40.0,-236.0,239.0,-161.0,1.0,1
126.0,40.0,-239.0,205.0,-163.0,-6.0,1
122.0,42.0,-239.0,172.0,-165.0,-13.0,1
123.0,41.0,-242.0,143.0,-165.0,-20.0,1
120.0,43.0,-243.0,115.0,-162.0,-23.0,1
118.0,39.0,-240.0,92.0,-156.0,-30.0,1
114.0,41.0,-240.0,64.0,-153.0,-35.0,1
122.0,42.0,-247.0,38.0,-148.0,-38.0,1
123.0,41.0,-244.0,18.0,-145.0,-42.0,1
118.0,44.0,-245.0,-3.0,-144.0,-48.0,1
117.0,44.0,-240.0,-21.0,-142.0,-50.0,1
122.0,42.0,-244.0,-38.0,-142.0,-55.0,1
122.0,42.0,-245.0,-52.0,-139.0,-59.0,1
120.0,45.0,-242.0,-67.0,-137.0,-62.0,1
114.0,43.0,-238.0,-79.0,-132.0,-67.0,1
118.0,45.0,-243.0,-90.0,-128.0,-72.0,1
116.0,50.0,-244.0,-102.0,-126.0,-77.0,1
114.0,46.0,-236.0,-112.0,-121.0,-84.0,1
113.0,50.0,-235.0,-120.0,-114.0,-88.0,1
117.0,48.0,-230.0,-124.0,-106.0,-94.0,1
114.0,50.0,-232.0,-129.0,-99.0,-98.0,1
111.0,55.0,-233.0,-132.0,-93.0,-100.0,1
111.0,53.0,-230.0,-134.0,-86.0,-104.0,1
114.0,51.0,-229.0,-135.0,-78.0,-108.0,1
111.0,55.0,-229.0,-131.0,-71.0,-111.0,1
112.0,55.0,-227.0,-131.0,-62.0,-115.0,1
108.0,55.0,-225.0,-126.0,-54.0,-118.0,1
114.0,56.0,-217.0,-121.0,-46.0,-117.0,1
113.0,54.0,-223.0,-115.0,-41.0,-130.0,1
111.0,53.0,-219.0,-110.0,-32.0,-136.0,1
107.0,53.0,-213.0,-109.0,-28.0,-126.0,1
112.0,55.0,-217.0,-106.0,-25.0,-116.0,1
111.0,57.0,-214.0,-102.0,-21.0,-113.0,1
110.0,55.0,-215.0,-97.0,-20.0,-112.0,1
111.0,59.0,-216.0,-91.0,-16.0,-110.0,1
113.0,55.0,-216.0,-83.0,-15.0,-106.0,1
111.0,55.0,-220.0,-72.0,-10.0,-108.0,1
111.0,62.0,-215.0,-63.0,-8.0,-102.0,1
108.0,57.0,-212.0,-55.0,-5.0,-97.0,1
108.0,63.0,-215.0,-44.0,1.0,-94.0,1
110.0,58.0,-218.0,-29.0,8.0,-89.0,1
107.0,58.0,-218.0,-21.0,12.0,-93.0,1
109.0,62.0,-216.0,-13.0,18.0,-88.0,1
107.0,60.0,-213.0,-4.0,21.0,-79.0,1
108.0,64.0,-216.0,2.0,21.0,-68.0,1
109.0,61.0,-210.0,11.0,22.0,-54.0,1
108.0,63.0,-211.0,21.0,21.0,-46.0,1
107.0,63.0,-214.0,28.0,21.0,-30.0,1
105.0,63.0,-214.0,37.0,21.0,-20.0,1
110.0,62.0,-213.0,48.0,21.0,-11.0,1
109.0,63.0,-217.0,58.0,21.0,-5.0,1
112.0,60.0,-217.0,69.0,20.0,0.0,1
112.0,60.0,-220.0,80.0,20.0,4.0,1
110.0,58.0,-218.0,89.0,20.0,6.0,1
112.0,60.0,-217.0,98.0,18.0,8.0,1
112.0,58.0,-217.0,101.0,18.0,10.0,1
111.0,56.0,-219.0,106.0,20.0,10.0,1
113.0,59.0,-215.0,110.0,23.0,8.0,1
111.0,58.0,-221.0,113.0,26.0,10.0,1
114.0,58.0,-217.0,118.0,27.0,9.0,1
111.0,59.0,-218.0,121.0,27.0,11.0,1
115.0,57.0,-222.0,123.0,29.0,12.0,1
116.0,54.0,-221.0,125.0,29.0,12.0,1
113.0,59.0,-224.0,124.0,31.0,12.0,1
114.0,57.0,-218.0,122.0,31.0,12.0,1
114.0,55.0,-226.0,121.0,31.0,12.0,1
113.0,52.0,-221.0,121.0,31.0,10.0,1
112.0,50.0,-222.0,118.0,30.0,9.0,1
116.0,52.0,-221.0,117.0,30.0,9.0,1
116.0,54.0,-222.0,116.0,33.0,8.0,1
108.0,57.0,-220.0,116.0,32.0,8.0,1
112.0,54.0,-223.0,116.0,30.0,7.0,1
115.0,52.0,-221.0,117.0,28.0,9.0,1
111.0,54.0,-220.0,115.0,27.0,8.0,1
114.0,52.0,-219.0,116.0,25.0,7.0,1
114.0,52.0,-222.0,114.0,24.0,6.0,1
115.0,52.0,-226.0,110.0,25.0,6.0,1
112.0,51.0,-226.0,108.0,26.0,5.0,1
109.0,51.0,-227.0,105.0,27.0,4.0,1
114.0,50.0,-222.0,102.0,28.0,4.0,1
109.0,54.0,-224.0,98.0,29.0,3.0,1
109.0,54.0,-225.0,93.0,30.0,2.0,1
112.0,51.0,-217.0,89.0,29.0,1.0,1
113.0,53.0,-223.0,82.0,30.0,1.0,1
114.0,50.0,-222.0,79.0,29.0,-2.0,1
113.0,51.0,-219.0,76.0,28.0,-2.0,1
115.0,52.0,-217.0,74.0,26.0,-2.0,1
116.0,49.0,-222.0,72.0,25.0,-4.0,1
112.0,54.0,-226.0,70.0,24.0,-3.0,1
113.0,52.0,-227.0,68.0,22.0,-4.0,1
114.0,47.0,-220.0,67.0,21.0,-4.0,1
112.0,47.0,-223.0,64.0,20.0,-3.0,1
112.0,51.0,-221.0,63.0,20.0,-5.0,1
116.0,49.0,-222.0,61.0,21.0,-4.0,1
111.0,51.0,-219.0,58.0,20.0,-6.0,1
114.0,51.0,-221.0,53.0,21.0,-6.0,1
112.0,53.0,-220.0,47.0,21.0,-7.0,1
113.0,56.0,-222.0,44.0,21.0,-8.0,1
116.0,54.0,-221.0,40.0,20.0,-9.0,1
115.0,50.0,-218.0,36.0,19.0,-11.0,1
112.0,54.0,-223.0,34.0,18.0,-13.0,1
113.0,53.0,-222.0,33.0,18.0,-13.0,1
113.0,53.0,-221.0,32.0,19.0,-12.0,1
112.0,49.0,-222.0,33.0,22.0,-13.0,1
112.0,50.0,-218.0,33.0,23.0,-14.0,1
114.0,53.0,-216.0,33.0,23.0,-12.0,1
112.0,53.0,-221.0,36.0,25.0,-10.0,1
114.0,50.0,-219.0,38.0,24.0,-13.0,1
113.0,54.0,-219.0,33.0,21.0,-13.0,1
116.0,54.0,-219.0,33.0,17.0,-13.0,1
111.0,50.0,-219.0,32.0,15.0,-17.0,1
113.0,51.0,-218.0,31.0,13.0,-21.0,1
114.0,54.0,-219.0,31.0,10.0,-24.0,1
114.0,51.0,-215.0,32.0,6.0,-25.0,1
107.0,49.0,-223.0,38.0,3.0,-31.0,1
115.0,56.0,-216.0,37.0,3.0,-43.0,1
115.0,57.0,-217.0,32.0,2.0,-41.0,1
113.0,51.0,-220.0,34.0,-3.0,-35.0,1
113.0,55.0,-221.0,35.0,-4.0,-32.0,1
114.0,54.0,-220.0,37.0,-3.0,-28.0,1
114.0,57.0,-218.0,36.0,-6.0,-25.0,1
113.0,60.0,-223.0,37.0,-9.0,-24.0,1
115.0,54.0,-220.0,39.0,-10.0,-22.0,1
111.0,58.0,-215.0,40.0,-12.0,-22.0,1
115.0,56.0,-220.0,44.0,-12.0,-19.0,1
118.0,46.0,-219.0,43.0,-15.0,-19.0,1
114.0,55.0,-222.0,43.0,-14.0,-17.0,1
111.0,55.0,-220.0,44.0,-16.0,-18.0,1
112.0,54.0,-222.0,46.0,-18.0,-16.0,1
114.0,55.0,-219.0,48.0,-20.0,-16.0,1
111.0,56.0,-218.0,50.0,-20.0,-16.0,1
111.0,57.0,-221.0,52.0,-21.0,-14.0,1
111.0,54.0,-221.0,54.0,-22.0,-14.0,1
114.0,53.0,-224.0,56.0,-22.0,-13.0,1
111.0,56.0,-222.0,57.0,-21.0,-13.0,1
112.0,55.0,-221.0,60.0,-20.0,-13.0,1
112.0,45.0,-218.0,60.0,-18.0,-13.0,1
113.0,53.0,-221.0,60.0,-19.0,-13.0,1
115.0,53.0,-222.0,59.0,-18.0,-13.0,1
110.0,56.0,-217.0,60.0,-18.0,-12.0,1
116.0,54.0,-221.0,61.0,-19.0,-12.0,1
112.0,57.0,-221.0,61.0,-19.0,-11.0,1
109.0,53.0,-224.0,63.0,-18.0,-12.0,1
110.0,54.0,-218.0,63.0,-18.0,-12.0,1
109.0,55.0,-217.0,64.0,-18.0,-13.0,1
108.0,54.0,-220.0,65.0,-18.0,-12.0,1
105.0,56.0,-222.0,64.0,-16.0,-13.0,1
111.0,47.0,-223.0,64.0,-15.0,-11.0,1
114.0,52.0,-219.0,64.0,-13.0,-11.0,1
111.0,51.0,-220.0,63.0,-12.0,-10.0,1
111.0,53.0,-222.0,62.0,-10.0,-9.0,1
112.0,56.0,-218.0,61.0,-7.0,-9.0,1
113.0,54.0,-219.0,62.0,-6.0,-12.0,1
111.0,52.0,-216.0,63.0,-5.0,-10.0,1
111.0,53.0,-221.0,64.0,-4.0,-9.0,1
111.0,48.0,-223.0,64.0,0.0,-8.0,1
112.0,55.0,-223.0,64.0,2.0,-8.0,1
110.0,54.0,-223.0,62.0,3.0,-8.0,1
107.0,51.0,-224.0,62.0,4.0,-9.0,1
111.0,53.0,-223.0,62.0,5.0,-9.0,1
113.0,51.0,-223.0,61.0,5.0,-10.0,1
111.0,53.0,-223.0,60.0,6.0,-8.0,1
112.0,51.0,-224.0,59.0,7.0,-9.0,1
113.0,51.0,-220.0,59.0,8.0,-10.0,1
111.0,53.0,-222.0,59.0,10.0,-9.0,1
110.0,54.0,-224.0,57.0,11.0,-7.0,1
113.0,53.0,-221.0,55.0,11.0,-8.0,1
113.0,50.0,-216.0,55.0,14.0,-8.0,1
110.0,56.0,-219.0,56.0,15.0,-9.0,1
108.0,56.0,-223.0,56.0,17.0,-8.0,1
112.0,53.0,-221.0,55.0,20.0,-9.0,1
110.0,53.0,-221.0,53.0,22.0,-9.0,1
111.0,52.0,-222.0,50.0,24.0,-8.0,1
113.0,56.0,-220.0,48.0,24.0,-8.0,1
110.0,54.0,-223.0,48.0,26.0,-9.0,1
114.0,56.0,-219.0,47.0,26.0,-8.0,1
111.0,55.0,-214.0,45.0,26.0,-10.0,1
112.0,51.0,-223.0,45.0,24.0,-9.0,1
111.0,52.0,-220.0,46.0,24.0,-9.0,1
111.0,48.0,-224.0,45.0,21.0,-10.0,1
112.0,55.0,-221.0,45.0,20.0,-10.0,1
112.0,54.0,-223.0,47.0,20.0,-8.0,1
115.0,52.0,-226.0,50.0,20.0,-8.0,1
111.0,52.0,-222.0,48.0,19.0,-9.0,1
110.0,51.0,-225.0,48.0,19.0,-9.0,1
114.0,52.0,-222.0,49.0,21.0,-11.0,1
111.0,53.0,-221.0,50.0,23.0,-10.0,1
116.0,54.0,-217.0,52.0,25.0,-10.0,1
113.0,54.0,-224.0,51.0,27.0,-8.0,1
112.0,48.0,-224.0,51.0,27.0,-8.0,1
112.0,55.0,-214.0,50.0,28.0,-8.0,1
110.0,52.0,-226.0,51.0,29.0,-9.0,1
112.0,55.0,-221.0,52.0,27.0,-9.0,1
111.0,55.0,-222.0,52.0,26.0,-8.0,1
112.0,52.0,-221.0,53.0,24.0,-10.0,1
113.0,54.0,-219.0,53.0,23.0,-11.0,1
113.0,53.0,-222.0,55.0,23.0,-9.0,1
114.0,52.0,-222.0,55.0,20.0,-10.0,1
113.0,54.0,-219.0,54.0,18.0,-9.0,1
111.0,51.0,-218.0,54.0,15.0,-9.0,1
114.0,54.0,-221.0,55.0,15.0,-10.0,1
111.0,52.0,-222.0,55.0,13.0,-11.0,1
112.0,54.0,-221.0,55.0,13.0,-11.0,1
113.0,54.0,-222.0,56.0,12.0,-10.0,1
110.0,53.0,-220.0,55.0,13.0,-10.0,1
113.0,54.0,-220.0,55.0,13.0,-10.0,1
109.0,56.0,-221.0,57.0,13.0,-10.0,1
113.0,55.0,-222.0,60.0,15.0,-9.0,1
115.0,51.0,-222.0,62.0,16.0,-10.0,1
113.0,50.0,-220.0,63.0,16.0,-10.0,1
112.0,54.0,-225.0,65.0,19.0,-12.0,1
114.0,53.0,-221.0,67.0,21.0,-13.0,1
110.0,51.0,-225.0,67.0,24.0,-13.0,1
114.0,54.0,-223.0,67.0,24.0,-13.0,1
114.0,55.0,-219.0,65.0,23.0,-13.0,1
114.0,53.0,-220.0,63.0,22.0,-12.0,1
113.0,55.0,-220.0,59.0,20.0,-12.0,1
114.0,54.0,-219.0,57.0,17.0,-13.0,1
113.0,53.0,-225.0,57.0,16.0,-11.0,1
114.0,53.0,-220.0,57.0,15.0,-11.0,1
112.0,53.0,-219.0,58.0,13.0,-11.0,1
110.0,54.0,-220.0,62.0,12.0,-10.0,1
114.0,52.0,-226.0,65.0,13.0,-8.0,1
105.0,56.0,-222.0,66.0,13.0,-9.0,1
113.0,51.0,-221.0,67.0,14.0,-8.0,1
112.0,51.0,-219.0,66.0,15.0,-9.0,1
112.0,54.0,-221.0,66.0,14.0,-9.0,1
111.0,53.0,-220.0,62.0,14.0,-8.0,1
111.0,53.0,-225.0,59.0,13.0,-10.0,1
117.0,51.0,-218.0,58.0,12.0,-11.0,1
111.0,51.0,-223.0,56.0,12.0,-11.0,1
114.0,55.0,-217.0,55.0,13.0,-9.0,1
112.0,54.0,-224.0,54.0,13.0,-10.0,1
114.0,49.0,-226.0,55.0,14.0,-11.0,1
109.0,57.0,-224.0,56.0,13.0,-11.0,1
111.0,54.0,-218.0,56.0,13.0,-11.0,1
112.0,55.0,-222.0,56.0,13.0,-10.0,1
111.0,53.0,-222.0,54.0,11.0,-11.0,1
110.0,53.0,-218.0,51.0,11.0,-12.0,1
114.0,51.0,-218.0,49.0,10.0,-11.0,1
112.0,55.0,-220.0,48.0,11.0,-12.0,1
109.0,52.0,-220.0,47.0,10.0,-12.0,1
115.0,49.0,-223.0,48.0,11.0,-13.0,1
111.0,53.0,-222.0,49.0,11.0,-12.0,1
110.0,53.0,-218.0,50.0,14.0,-13.0,1
110.0,50.0,-225.0,52.0,15.0,-10.0,1
111.0,52.0,-219.0,53.0,16.0,-11.0,1
112.0,52.0,-225.0,54.0,18.0,-10.0,1
112.0,51.0,-222.0,55.0,18.0,-11.0,1
112.0,51.0,-219.0,53.0,18.0,-12.0,1
111.0,52.0,-224.0,51.0,19.0,-12.0,1
114.0,53.0,-222.0,47.0,19.0,-12.0,1
110.0,56.0,-221.0,47.0,18.0,-13.0,1
110.0,50.0,-217.0,47.0,19.0,-11.0,1
113.0,49.0,-218.0,46.0,17.0,-11.0,1
111.0,53.0,-215.0,47.0,16.0,-11.0,1
113.0,48.0,-221.0,47.0,15.0,-12.0,1
114.0,50.0,-219.0,48.0,13.0,-11.0,1
112.0,53.0,-222.0,47.0,12.0,-9.0,1
113.0,51.0,-220.0,48.0,12.0,-10.0,1
114.0,54.0,-220.0,48.0,13.0,-10.0,1
110.0,53.0,-222.0,47.0,14.0,-11.0,1
110.0,55.0,-223.0,47.0,16.0,-11.0,1
113.0,55.0,-225.0,47.0,17.0,-11.0,1
116.0,53.0,-221.0,46.0,18.0,-10.0,1
116.0,52.0,-224.0,44.0,19.0,-11.0,1
110.0,55.0,-222.0,44.0,20.0,-9.0,1
111.0,49.0,-224.0,44.0,19.0,-10.0,1
112.0,52.0,-221.0,43.0,18.0,-11.0,1
115.0,51.0,-218.0,46.0,18.0,-11.0,1
112.0,52.0,-222.0,45.0,17.0,-12.0,1
116.0,53.0,-222.0,44.0,15.0,-13.0,1
111.0,54.0,-223.0,44.0,14.0,-13.0,1
110.0,54.0,-222.0,43.0,12.0,-12.0,1
112.0,53.0,-221.0,41.0,10.0,-12.0,1
115.0,52.0,-217.0,43.0,10.0,-12.0,1
114.0,54.0,-218.0,44.0,9.0,-12.0,1
112.0,49.0,-220.0,45.0,8.0,-12.0,1
113.0,53.0,-220.0,47.0,7.0,-13.0,1
112.0,54.0,-219.0,47.0,8.0,-12.0,1
111.0,54.0,-219.0,48.0,9.0,-12.0,1
113.0,53.0,-221.0,51.0,9.0,-11.0,1
113.0,52.0,-218.0,51.0,10.0,-11.0,1
112.0,55.0,-218.0,52.0,12.0,-11.0,1
115.0,53.0,-222.0,51.0,12.0,-11.0,1
113.0,56.0,-223.0,52.0,14.0,-10.0,1
112.0,55.0,-218.0,51.0,13.0,-12.0,1
115.0,51.0,-222.0,50.0,14.0,-11.0,1
110.0,56.0,-219.0,50.0,14.0,-11.0,1
113.0,52.0,-221.0,48.0,14.0,-10.0,1
113.0,52.0,-224.0,48.0,14.0,-11.0,1
109.0,56.0,-218.0,49.0,15.0,-11.0,1
113.0,52.0,-219.0,49.0,13.0,-12.0,1
113.0,52.0,-216.0,50.0,12.0,-11.0,1
112.0,54.0,-221.0,52.0,12.0,-10.0,1
112.0,52.0,-222.0,52.0,12.0,-11.0,1
113.0,51.0,-224.0,53.0,12.0,-10.0,1
113.0,52.0,-219.0,53.0,12.0,-10.0,1
111.0,53.0,-223.0,54.0,12.0,-10.0,1
115.0,55.0,-226.0,53.0,12.0,-12.0,1
114.0,51.0,-220.0,53.0,13.0,-11.0,1
111.0,54.0,-223.0,53.0,14.0,-11.0,1
112.0,54.0,-220.0,53.0,14.0,-11.0,1
113.0,55.0,-222.0,51.0,15.0,-12.0,1
109.0,52.0,-217.0,51.0,17.0,-11.0,1
111.0,52.0,-217.0,49.0,16.0,-13.0,1
111.0,55.0,-221.0,49.0,17.0,-12.0,1
114.0,51.0,-226.0,52.0,18.0,-11.0,1
112.0,52.0,-223.0,51.0,19.0,-10.0,1
114.0,53.0,-222.0,53.0,17.0,-8.0,1
107.0,46.0,-225.0,53.0,16.0,-10.0,1
112.0,53.0,-223.0,53.0,16.0,-12.0,1
114.0,54.0,-221.0,54.0,16.0,-9.0,1
110.0,56.0,-222.0,53.0,16.0,-11.0,1
114.0,51.0,-222.0,52.0,17.0,-10.0,1
113.0,50.0,-219.0,52.0,18.0,-11.0,1
114.0,53.0,-220.0,51.0,17.0,-13.0,1
111.0,54.0,-220.0,49.0,17.0,-12.0,1
110.0,57.0,-222.0,50.0,18.0,-12.0,1
115.0,52.0,-223.0,49.0,19.0,-11.0,1
112.0,48.0,-222.0,49.0,19.0,-12.0,1
113.0,49.0,-221.0,50.0,20.0,-13.0,1
115.0,54.0,-219.0,50.0,19.0,-13.0,1
114.0,54.0,-221.0,51.0,18.0,-14.0,1
113.0,54.0,-220.0,51.0,18.0,-12.0,1
114.0,53.0,-217.0,51.0,18.0,-11.0,1
116.0,54.0,-222.0,52.0,18.0,-11.0,1
111.0,53.0,-222.0,52.0,17.0,-10.0,1
108.0,54.0,-221.0,52.0,17.0,-9.0,1
113.0,51.0,-218.0,52.0,17.0,-11.0,1
111.0,54.0,-220.0,53.0,18.0,-10.0,1
112.0,55.0,-222.0,54.0,18.0,-10.0,1
108.0,59.0,-225.0,54.0,19.0,-12.0,1
111.0,53.0,-222.0,53.0,21.0,-10.0,1
111.0,53.0,-221.0,53.0,21.0,-11.0,1
114.0,54.0,-222.0,53.0,21.0,-10.0,1
112.0,56.0,-222.0,54.0,20.0,-11.0,1
112.0,53.0,-222.0,52.0,19.0,-11.0,1
112.0,52.0,-218.0,53.0,18.0,-11.0,1
114.0,53.0,-222.0,53.0,19.0,-11.0,1
112.0,51.0,-216.0,52.0,19.0,-11.0,1
114.0,54.0,-220.0,51.0,18.0,-12.0,1
109.0,49.0,-225.0,52.0,16.0,-11.0,1
113.0,54.0,-219.0,53.0,16.0,-10.0,1
112.0,54.0,-223.0,55.0,17.0,-11.0,1
113.0,53.0,-219.0,55.0,15.0,-11.0,1
116.0,55.0,-223.0,55.0,15.0,-10.0,1
110.0,55.0,-217.0,56.0,15.0,-10.0,1
113.0,54.0,-221.0,55.0,15.0,-9.0,1
112.0,54.0,-220.0,55.0,17.0,-8.0,1
113.0,53.0,-222.0,55.0,16.0,-8.0,1
111.0,54.0,-220.0,55.0,17.0,-10.0,1
113.0,51.0,-222.0,56.0,17.0,-10.0,1
114.0,54.0,-222.0,55.0,17.0,-10.0,1
111.0,49.0,-222.0,55.0,16.0,-10.0,1
113.0,52.0,-222.0,57.0,16.0,-8.0,1
112.0,53.0,-223.0,54.0,15.0,-10.0,1
112.0,54.0,-218.0,53.0,15.0,-8.0,1
110.0,54.0,-218.0,52.0,14.0,-10.0,1
112.0,51.0,-219.0,51.0,13.0,-10.0,1
113.0,53.0,-218.0,52.0,15.0,-11.0,1
112.0,54.0,-221.0,52.0,15.0,-11.0,1
115.0,52.0,-216.0,53.0,14.0,-10.0,1
112.0,51.0,-223.0,53.0,13.0,-9.0,1
115.0,52.0,-222.0,53.0,12.0,-9.0,1
112.0,54.0,-215.0,53.0,13.0,-9.0,1
111.0,52.0,-216.0,53.0,12.0,-9.0,1
112.0,52.0,-222.0,54.0,14.0,-10.0,1
113.0,52.0,-221.0,53.0,13.0,-9.0,1
113.0,55.0,-223.0,53.0,14.0,-9.0,1
115.0,55.0,-220.0,55.0,13.0,-9.0,1
110.0,56.0,-219.0,54.0,12.0,-9.0,1
115.0,52.0,-221.0,52.0,13.0,-9.0,1
112.0,55.0,-221.0,51.0,12.0,-9.0,1
116.0,49.0,-223.0,51.0,12.0,-10.0,1
120.0,48.0,-225.0,52.0,10.0,-10.0,1
111.0,53.0,-220.0,53.0,10.0,-10.0,1
114.0,54.0,-220.0,53.0,9.0,-9.0,1
109.0,58.0,-219.0,54.0,10.0,-10.0,1
113.0,52.0,-221.0,53.0,10.0,-10.0,1
112.0,55.0,-220.0,53.0,11.0,-10.0,1
113.0,52.0,-226.0,51.0,13.0,-10.0,1
113.0,54.0,-223.0,50.0,14.0,-12.0,1
111.0,54.0,-217.0,50.0,13.0,-11.0,1
111.0,55.0,-222.0,49.0,13.0,-10.0,1
113.0,50.0,-221.0,50.0,12.0,-11.0,1
110.0,54.0,-219.0,51.0,11.0,-10.0,1
114.0,55.0,-220.0,51.0,11.0,-11.0,1
114.0,50.0,-221.0,51.0,12.0,-11.0,1
114.0,50.0,-219.0,51.0,13.0,-9.0,1
112.0,54.0,-218.0,52.0,12.0,-10.0,1
111.0,53.0,-215.0,51.0,12.0,-10.0,1
113.0,53.0,-217.0,52.0,10.0,-11.0,1
110.0,58.0,-219.0,53.0,10.0,-10.0,1
114.0,52.0,-220.0,53.0,10.0,-8.0,1
113.0,52.0,-218.0,54.0,10.0,-10.0,1
112.0,55.0,-221.0,54.0,9.0,-11.0,1
103.0,53.0,-223.0,54.0,10.0,-10.0,1
112.0,53.0,-221.0,54.0,9.0,-11.0,1
112.0,54.0,-222.0,52.0,9.0,-9.0,1
111.0,53.0,-220.0,53.0,8.0,-10.0,1
112.0,55.0,-222.0,53.0,8.0,-9.0,1
110.0,55.0,-216.0,54.0,9.0,-9.0,1
112.0,51.0,-223.0,54.0,8.0,-10.0,1
113.0,56.0,-218.0,54.0,9.0,-11.0,1
114.0,55.0,-221.0,54.0,9.0,-11.0,1
112.0,54.0,-220.0,54.0,9.0,-10.0,1
116.0,50.0,-221.0,54.0,10.0,-10.0,1
107.0,53.0,-221.0,54.0,10.0,-9.0,1
113.0,56.0,-222.0,55.0,12.0,-8.0,1
115.0,52.0,-224.0,55.0,13.0,-10.0,1
114.0,54.0,-225.0,56.0,14.0,-9.0,1
115.0,53.0,-226.0,55.0,14.0,-9.0,1
115.0,56.0,-219.0,55.0,16.0,-9.0,1
113.0,55.0,-224.0,54.0,14.0,-9.0,1
114.0,50.0,-220.0,55.0,14.0,-11.0,1
112.0,53.0,-223.0,55.0,14.0,-10.0,1
111.0,53.0,-223.0,55.0,14.0,-12.0,1
112.0,56.0,-222.0,57.0,14.0,-10.0,1
114.0,54.0,-211.0,57.0,14.0,-10.0,1
110.0,51.0,-221.0,56.0,14.0,-10.0,1
114.0,55.0,-223.0,56.0,14.0,-8.0,1
112.0,55.0,-222.0,57.0,15.0,-10.0,1
112.0,54.0,-220.0,58.0,16.0,-10.0,1
113.0,52.0,-221.0,58.0,15.0,-9.0,1
112.0,53.0,-221.0,58.0,16.0,-8.0,1
109.0,54.0,-222.0,58.0,15.0,-9.0,1
112.0,55.0,-223.0,57.0,15.0,-10.0,1
115.0,50.0,-224.0,56.0,16.0,-8.0,1
114.0,53.0,-222.0,57.0,17.0,-11.0,1
112.0,50.0,-223.0,54.0,18.0,-11.0,1
113.0,55.0,-220.0,55.0,17.0,-11.0,1
113.0,52.0,-222.0,56.0,17.0,-10.0,1
115.0,53.0,-220.0,55.0,16.0,-9.0,1
112.0,55.0,-221.0,55.0,17.0,-9.0,1
113.0,52.0,-222.0,57.0,18.0,-7.0,1
113.0,51.0,-217.0,56.0,17.0,-8.0,1
113.0,53.0,-223.0,56.0,18.0,-7.0,1
113.0,53.0,-223.0,56.0,17.0,-8.0,1
113.0,51.0,-221.0,55.0,17.0,-6.0,1
110.0,54.0,-220.0,57.0,17.0,-8.0,1
111.0,50.0,-216.0,56.0,17.0,-10.0,1
114.0,52.0,-217.0,56.0,17.0,-9.0,1
111.0,54.0,-219.0,55.0,19.0,-9.0,1
113.0,52.0,-217.0,55.0,19.0,-8.0,1
116.0,51.0,-222.0,55.0,20.0,-8.0,1
114.0,51.0,-220.0,54.0,20.0,-9.0,1
113.0,56.0,-219.0,55.0,20.0,-9.0,1
115.0,54.0,-221.0,52.0,20.0,-8.0,1
113.0,52.0,-219.0,50.0,19.0,-10.0,1
113.0,54.0,-222.0,51.0,20.0,-10.0,1
113.0,55.0,-221.0,52.0,19.0,-10.0,1
113.0,57.0,-226.0,55.0,18.0,-8.0,1
115.0,54.0,-218.0,56.0,16.0,-9.0,1
115.0,50.0,-219.0,57.0,16.0,-8.0,1
113.0,52.0,-218.0,56.0,14.0,-8.0,1
111.0,55.0,-221.0,56.0,14.0,-10.0,1
112.0,51.0,-219.0,55.0,14.0,-9.0,1
112.0,54.0,-225.0,55.0,14.0,-9.0,1
115.0,52.0,-220.0,53.0,14.0,-10.0,1
111.0,53.0,-219.0,53.0,13.0,-8.0,1
113.0,51.0,-224.0,54.0,13.0,-11.0,1
112.0,49.0,-219.0,53.0,14.0,-10.0,1
109.0,54.0,-227.0,53.0,14.0,-11.0,1
112.0,51.0,-221.0,53.0,16.0,-10.0,1
113.0,52.0,-220.0,54.0,17.0,-9.0,1
112.0,54.0,-219.0,54.0,17.0,-10.0,1
112.0,55.0,-222.0,55.0,18.0,-8.0,1
115.0,52.0,-219.0,55.0,17.0,-10.0,1
111.0,54.0,-222.0,56.0,16.0,-11.0,1
113.0,54.0,-219.0,56.0,14.0,-10.0,1
115.0,51.0,-220.0,55.0,14.0,-11.0,1
115.0,51.0,-218.0,56.0,14.0,-10.0,1
111.0,53.0,-218.0,57.0,14.0,-8.0,1
116.0,60.0,-224.0,56.0,13.0,-10.0,1
113.0,53.0,-222.0,55.0,13.0,-10.0,1
114.0,51.0,-219.0,55.0,12.0,-11.0,1
115.0,52.0,-222.0,55.0,12.0,-8.0,1
113.0,50.0,-220.0,55.0,13.0,-10.0,1
113.0,57.0,-218.0,55.0,13.0,-11.0,1
114.0,50.0,-221.0,55.0,14.0,-11.0,1
111.0,54.0,-221.0,55.0,15.0,-9.0,1
114.0,54.0,-223.0,55.0,15.0,-11.0,1
112.0,54.0,-220.0,54.0,14.0,-10.0,1
109.0,58.0,-219.0,54.0,13.0,-10.0,1
112.0,51.0,-221.0,54.0,13.0,-10.0,1
115.0,51.0,-219.0,54.0,13.0,-9.0,1
112.0,55.0,-221.0,55.0,12.0,-10.0,1
115.0,51.0,-221.0,55.0,13.0,-10.0,1
114.0,53.0,-220.0,55.0,12.0,-10.0,1
113.0,51.0,-221.0,54.0,13.0,-11.0,1
114.0,54.0,-223.0,56.0,13.0,-9.0,1
115.0,51.0,-220.0,56.0,14.0,-11.0,1
115.0,50.0,-221.0,57.0,13.0,-10.0,1
112.0,53.0,-218.0,56.0,13.0,-8.0,1
110.0,49.0,-225.0,56.0,14.0,-9.0,1
114.0,49.0,-217.0,56.0,14.0,-6.0,1
115.0,49.0,-220.0,55.0,14.0,-8.0,1
112.0,53.0,-219.0,56.0,15.0,-9.0,1
112.0,50.0,-221.0,56.0,15.0,-8.0,1
113.0,52.0,-222.0,57.0,15.0,-9.0,1
113.0,51.0,-222.0,57.0,15.0,-10.0,1
114.0,54.0,-225.0,58.0,14.0,-10.0,1
113.0,49.0,-221.0,57.0,13.0,-9.0,1
112.0,51.0,-222.0,57.0,14.0,-7.0,1
112.0,53.0,-220.0,58.0,16.0,-9.0,1
109.0,53.0,-225.0,57.0,16.0,-10.0,1
114.0,57.0,-219.0,57.0,16.0,-10.0,1
113.0,51.0,-223.0,57.0,16.0,-10.0,1
111.0,52.0,-220.0,56.0,16.0,-11.0,1
114.0,52.0,-220.0,56.0,17.0,-9.0,1
111.0,53.0,-220.0,56.0,18.0,-9.0,1
111.0,54.0,-220.0,57.0,18.0,-9.0,1
114.0,51.0,-225.0,55.0,18.0,-10.0,1
116.0,50.0,-218.0,55.0,17.0,-9.0,1
112.0,51.0,-221.0,55.0,17.0,-8.0,1
114.0,52.0,-219.0,55.0,16.0,-10.0,1
122.0,58.0,-223.0,56.0,15.0,-9.0,1
116.0,49.0,-220.0,55.0,14.0,-9.0,1
111.0,55.0,-220.0,54.0,15.0,-10.0,1
112.0,52.0,-221.0,53.0,15.0,-10.0,1
114.0,53.0,-220.0,53.0,15.0,-11.0,1
111.0,54.0,-222.0,53.0,14.0,-9.0,1
112.0,51.0,-220.0,53.0,14.0,-8.0,1
111.0,52.0,-221.0,52.0,14.0,-10.0,1
112.0,52.0,-221.0,53.0,13.0,-10.0,1
114.0,54.0,-223.0,53.0,12.0,-11.0,1
117.0,53.0,-217.0,52.0,12.0,-11.0,1
111.0,53.0,-217.0,54.0,12.0,-10.0,1
116.0,52.0,-222.0,52.0,12.0,-10.0,1
115.0,52.0,-220.0,52.0,13.0,-10.0,1
114.0,51.0,-220.0,53.0,14.0,-10.0,1
113.0,54.0,-221.0,52.0,14.0,-11.0,1
111.0,51.0,-224.0,52.0,16.0,-11.0,1
113.0,56.0,-217.0,53.0,16.0,-9.0,1
116.0,54.0,-223.0,53.0,16.0,-9.0,1
114.0,51.0,-220.0,54.0,17.0,-10.0,1
114.0,54.0,-223.0,55.0,17.0,-9.0,1
112.0,55.0,-216.0,58.0,16.0,-9.0,1
110.0,51.0,-221.0,59.0,16.0,-9.0,1
112.0,53.0,-221.0,59.0,16.0,-8.0,1
113.0,51.0,-217.0,59.0,17.0,-9.0,1
112.0,54.0,-222.0,57.0,17.0,-9.0,1
114.0,51.0,-218.0,57.0,17.0,-10.0,1
114.0,54.0,-219.0,55.0,17.0,-9.0,1
113.0,52.0,-222.0,54.0,17.0,-9.0,1
115.0,52.0,-218.0,53.0,17.0,-9.0,1
116.0,50.0,-220.0,53.0,17.0,-8.0,1
113.0,55.0,-225.0,53.0,14.0,-8.0,1
111.0,53.0,-222.0,55.0,14.0,-9.0,1
113.0,48.0,-221.0,57.0,14.0,-9.0,1
113.0,51.0,-220.0,57.0,13.0,-10.0,1
115.0,52.0,-220.0,57.0,14.0,-9.0,1
113.0,54.0,-218.0,57.0,13.0,-10.0,1
114.0,51.0,-223.0,57.0,13.0,-10.0,1
113.0,53.0,-222.0,57.0,14.0,-8.0,1
113.0,55.0,-220.0,56.0,15.0,-9.0,1
115.0,53.0,-220.0,55.0,14.0,-10.0,1
111.0,54.0,-221.0,55.0,15.0,-7.0,1
112.0,56.0,-219.0,56.0,14.0,-10.0,1
117.0,52.0,-219.0,54.0,16.0,-10.0,1
109.0,49.0,-222.0,55.0,15.0,-11.0,1
112.0,53.0,-223.0,55.0,15.0,-9.0,1
112.0,54.0,-218.0,53.0,15.0,-8.0,1
113.0,55.0,-221.0,54.0,14.0,-8.0,1
112.0,54.0,-220.0,54.0,15.0,-10.0,1
113.0,53.0,-220.0,54.0,14.0,-10.0,1
114.0,51.0,-222.0,55.0,14.0,-9.0,1
116.0,50.0,-219.0,55.0,13.0,-10.0,1
110.0,52.0,-221.0,56.0,12.0,-11.0,1
116.0,49.0,-222.0,57.0,11.0,-10.0,1
113.0,53.0,-214.0,57.0,11.0,-11.0,1
112.0,52.0,-221.0,56.0,11.0,-12.0,1
111.0,55.0,-222.0,57.0,12.0,-11.0,1
116.0,48.0,-220.0,56.0,10.0,-11.0,1
112.0,54.0,-218.0,56.0,11.0,-10.0,1
113.0,50.0,-222.0,55.0,11.0,-10.0,1
113.0,52.0,-221.0,53.0,11.0,-9.0,1
110.0,56.0,-221.0,54.0,12.0,-11.0,1
112.0,50.0,-217.0,54.0,12.0,-9.0,1
110.0,52.0,-218.0,54.0,13.0,-8.0,1
112.0,53.0,-218.0,53.0,12.0,-9.0,1
114.0,44.0,-226.0,54.0,12.0,-9.0,1
112.0,53.0,-218.0,55.0,12.0,-11.0,1
114.0,55.0,-221.0,56.0,16.0,-11.0,1
114.0,50.0,-222.0,57.0,15.0,-9.0,1
116.0,52.0,-220.0,57.0,15.0,-8.0,1
112.0,54.0,-221.0,57.0,16.0,-9.0,1
113.0,51.0,-220.0,56.0,16.0,-10.0,1
111.0,54.0,-220.0,55.0,16.0,-8.0,1
115.0,51.0,-223.0,54.0,17.0,-9.0,1
114.0,50.0,-217.0,54.0,16.0,-11.0,1
115.0,55.0,-218.0,54.0,16.0,-9.0,1
115.0,50.0,-220.0,53.0,15.0,-10.0,1
114.0,48.0,-221.0,52.0,15.0,-11.0,1
114.0,51.0,-222.0,52.0,15.0,-10.0,1
113.0,53.0,-221.0,52.0,14.0,-11.0,1
114.0,52.0,-221.0,53.0,13.0,-10.0,1
114.0,53.0,-224.0,52.0,13.0,-10.0,1
114.0,52.0,-217.0,52.0,15.0,-9.0,1
111.0,56.0,-222.0,53.0,15.0,-10.0,1
115.0,49.0,-224.0,52.0,16.0,-10.0,1
111.0,52.0,-219.0,53.0,16.0,-9.0,1
116.0,54.0,-223.0,53.0,16.0,-9.0,1
110.0,48.0,-216.0,53.0,16.0,-10.0,1
114.0,52.0,-225.0,54.0,15.0,-11.0,1
113.0,51.0,-222.0,53.0,15.0,-9.0,1
114.0,52.0,-222.0,52.0,15.0,-10.0,1
111.0,51.0,-221.0,51.0,14.0,-10.0,1
115.0,52.0,-219.0,51.0,14.0,-10.0,1
116.0,53.0,-218.0,53.0,14.0,-11.0,1
113.0,53.0,-218.0,52.0,14.0,-9.0,1
114.0,52.0,-222.0,54.0,15.0,-11.0,1
117.0,51.0,-223.0,54.0,14.0,-10.0,1
113.0,48.0,-219.0,54.0,14.0,-10.0,1
110.0,49.0,-217.0,54.0,14.0,-10.0,1
114.0,51.0,-221.0,54.0,15.0,-10.0,1
113.0,51.0,-219.0,54.0,15.0,-10.0,1
111.0,55.0,-216.0,55.0,15.0,-10.0,1
115.0,55.0,-222.0,54.0,15.0,-10.0,1
114.0,51.0,-219.0,53.0,16.0,-9.0,1
112.0,52.0,-221.0,54.0,15.0,-10.0,1
114.0,50.0,-223.0,55.0,17.0,-9.0,1
113.0,55.0,-218.0,55.0,17.0,-9.0,1
115.0,52.0,-223.0,55.0,16.0,-7.0,1
111.0,52.0,-225.0,56.0,17.0,-9.0,1
117.0,59.0,-225.0,56.0,16.0,-9.0,1
114.0,54.0,-220.0,55.0,15.0,-9.0,1
114.0,54.0,-222.0,54.0,15.0,-11.0,1
114.0,50.0,-220.0,54.0,14.0,-9.0,1
116.0,52.0,-222.0,54.0,14.0,-8.0,1
116.0,51.0,-222.0,55.0,15.0,-11.0,1
112.0,55.0,-223.0,53.0,14.0,-10.0,1
115.0,54.0,-218.0,54.0,12.0,-10.0,1
116.0,49.0,-223.0,53.0,13.0,-10.0,1
116.0,53.0,-221.0,52.0,13.0,-11.0,1
113.0,51.0,-223.0,52.0,13.0,-10.0,1
105.0,48.0,-216.0,53.0,13.0,-9.0,1
113.0,50.0,-220.0,54.0,14.0,-9.0,1
112.0,51.0,-226.0,55.0,14.0,-9.0,1
116.0,50.0,-219.0,55.0,14.0,-11.0,1
114.0,53.0,-221.0,54.0,14.0,-10.0,1
114.0,52.0,-216.0,54.0,12.0,-10.0,1
115.0,51.0,-220.0,56.0,12.0,-11.0,1
114.0,51.0,-224.0,55.0,11.0,-10.0,1
112.0,51.0,-221.0,55.0,11.0,-10.0,1
116.0,51.0,-220.0,55.0,13.0,-9.0,1
115.0,52.0,-223.0,55.0,13.0,-10.0,1
108.0,47.0,-222.0,56.0,13.0,-10.0,1
115.0,50.0,-219.0,57.0,13.0,-9.0,1
111.0,58.0,-223.0,56.0,13.0,-10.0,1
114.0,51.0,-225.0,55.0,13.0,-11.0,1
112.0,51.0,-218.0,54.0,13.0,-11.0,1
114.0,53.0,-220.0,54.0,15.0,-10.0,1
113.0,54.0,-219.0,54.0,14.0,-11.0,1
113.0,54.0,-221.0,54.0,14.0,-10.0,1
112.0,56.0,-221.0,55.0,14.0,-9.0,1
113.0,50.0,-218.0,55.0,15.0,-11.0,1
115.0,54.0,-216.0,54.0,15.0,-10.0,1
106.0,52.0,-220.0,55.0,14.0,-9.0,1
112.0,52.0,-219.0,55.0,15.0,-9.0,1
111.0,53.0,-219.0,53.0,17.0,-12.0,1
113.0,56.0,-220.0,53.0,17.0,-10.0,1
113.0,53.0,-219.0,53.0,16.0,-11.0,1
112.0,51.0,-220.0,52.0,18.0,-10.0,1
114.0,52.0,-222.0,54.0,18.0,-11.0,1
114.0,52.0,-224.0,53.0,17.0,-10.0,1
113.0,50.0,-224.0,54.0,17.0,-11.0,1
118.0,49.0,-222.0,52.0,16.0,-9.0,1
113.0,54.0,-220.0,52.0,16.0,-10.0,1
125.0,56.0,-228.0,52.0,15.0,-11.0,1
113.0,52.0,-221.0,52.0,13.0,-11.0,1
112.0,52.0,-219.0,52.0,14.0,-10.0,1
115.0,55.0,-222.0,52.0,13.0,-11.0,1
113.0,48.0,-218.0,51.0,14.0,-12.0,1
114.0,53.0,-217.0,50.0,14.0,-11.0,1
114.0,51.0,-219.0,50.0,14.0,-11.0,1
112.0,53.0,-219.0,51.0,14.0,-11.0,1
112.0,52.0,-222.0,52.0,14.0,-9.0,1
115.0,53.0,-221.0,53.0,14.0,-11.0,1
106.0,53.0,-222.0,52.0,14.0,-10.0,1
114.0,55.0,-224.0,51.0,13.0,-12.0,1
113.0,52.0,-222.0,51.0,13.0,-11.0,1
113.0,51.0,-221.0,51.0,12.0,-11.0,1
112.0,53.0,-222.0,51.0,11.0,-12.0,1
117.0,51.0,-221.0,51.0,11.0,-11.0,1
114.0,54.0,-219.0,50.0,11.0,-12.0,1
114.0,52.0,-223.0,50.0,12.0,-10.0,1
114.0,51.0,-222.0,49.0,13.0,-10.0,1
115.0,48.0,-219.0,50.0,13.0,-12.0,1
112.0,56.0,-216.0,50.0,13.0,-10.0,1
112.0,53.0,-217.0,53.0,13.0,-10.0,1
114.0,54.0,-218.0,55.0,14.0,-9.0,1
114.0,51.0,-217.0,55.0,14.0,-12.0,1
112.0,53.0,-222.0,56.0,13.0,-10.0,1
114.0,51.0,-221.0,55.0,12.0,-10.0,1
111.0,48.0,-223.0,54.0,12.0,-11.0,1
109.0,54.0,-219.0,52.0,11.0,-11.0,1
113.0,51.0,-221.0,52.0,12.0,-9.0,1
113.0,50.0,-218.0,51.0,12.0,-10.0,1
112.0,48.0,-215.0,51.0,11.0,-10.0,1
113.0,54.0,-216.0,50.0,11.0,-9.0,1
112.0,53.0,-222.0,50.0,10.0,-13.0,1
109.0,48.0,-221.0,51.0,9.0,-11.0,1
115.0,51.0,-217.0,52.0,9.0,-11.0,1
112.0,53.0,-219.0,53.0,8.0,-11.0,1
113.0,53.0,-220.0,54.0,9.0,-11.0,1
113.0,50.0,-223.0,53.0,9.0,-10.0,1
115.0,54.0,-222.0,55.0,10.0,-9.0,1
118.0,52.0,-220.0,55.0,10.0,-9.0,1
113.0,54.0,-222.0,55.0,11.0,-9.0,1
113.0,50.0,-223.0,54.0,11.0,-8.0,1
116.0,51.0,-224.0,52.0,12.0,-9.0,1
123.0,56.0,-224.0,52.0,13.0,-9.0,1
116.0,52.0,-222.0,51.0,13.0,-9.0,1
117.0,49.0,-219.0,50.0,12.0,-12.0,1
113.0,50.0,-221.0,49.0,13.0,-10.0,1
117.0,51.0,-219.0,51.0,13.0,-10.0,1
116.0,53.0,-220.0,50.0,12.0,-10.0,1
114.0,52.0,-218.0,50.0,11.0,-10.0,1
116.0,50.0,-220.0,51.0,11.0,-11.0,1
114.0,53.0,-221.0,50.0,11.0,-10.0,1
117.0,52.0,-216.0,50.0,11.0,-11.0,1
113.0,51.0,-222.0,51.0,10.0,-12.0,1
112.0,51.0,-218.0,51.0,10.0,-11.0,1
111.0,54.0,-222.0,52.0,9.0,-10.0,1
112.0,54.0,-218.0,53.0,9.0,-11.0,1
114.0,52.0,-220.0,52.0,11.0,-13.0,1
112.0,54.0,-221.0,52.0,11.0,-13.0,1
114.0,53.0,-218.0,53.0,11.0,-11.0,1
113.0,52.0,-225.0,51.0,12.0,-12.0,1
112.0,51.0,-219.0,51.0,13.0,-14.0,1
113.0,50.0,-222.0,52.0,13.0,-12.0,1
113.0,53.0,-218.0,51.0,11.0,-12.0,1
113.0,49.0,-220.0,51.0,13.0,-12.0,1
112.0,51.0,-221.0,52.0,14.0,-11.0,1
115.0,51.0,-219.0,50.0,13.0,-12.0,1
113.0,50.0,-222.0,52.0,12.0,-11.0,1
116.0,50.0,-221.0,52.0,12.0,-11.0,1
112.0,52.0,-223.0,53.0,11.0,-9.0,1
113.0,52.0,-219.0,53.0,10.0,-10.0,1
116.0,49.0,-221.0,55.0,11.0,-9.0,1
113.0,53.0,-224.0,53.0,12.0,-9.0,1
116.0,48.0,-219.0,54.0,12.0,-9.0,1
112.0,50.0,-222.0,53.0,13.0,-11.0,1
116.0,48.0,-220.0,52.0,14.0,-10.0,1
118.0,48.0,-228.0,51.0,13.0,-10.0,1
114.0,52.0,-221.0,51.0,13.0,-10.0,1
113.0,53.0,-221.0,51.0,14.0,-9.0,1
113.0,52.0,-219.0,50.0,14.0,-8.0,1
115.0,50.0,-219.0,48.0,14.0,-10.0,1
114.0,54.0,-221.0,47.0,15.0,-10.0,1
113.0,51.0,-224.0,47.0,15.0,-10.0,1
113.0,52.0,-219.0,48.0,14.0,-10.0,1
112.0,50.0,-223.0,50.0,11.0,-10.0,1
115.0,49.0,-221.0,50.0,12.0,-9.0,1
113.0,56.0,-221.0,50.0,11.0,-10.0,1
125.0,47.0,-211.0,51.0,9.0,-10.0,1
111.0,51.0,-218.0,50.0,9.0,-10.0,1
115.0,51.0,-220.0,50.0,9.0,-12.0,1
111.0,54.0,-217.0,50.0,9.0,-10.0,1
113.0,54.0,-222.0,49.0,9.0,-13.0,1
114.0,52.0,-222.0,49.0,10.0,-12.0,1
112.0,49.0,-219.0,50.0,12.0,-11.0,1
111.0,50.0,-219.0,50.0,12.0,-10.0,1
112.0,52.0,-219.0,49.0,13.0,-10.0,1
113.0,55.0,-219.0,50.0,14.0,-12.0,1
112.0,49.0,-218.0,50.0,13.0,-10.0,1
117.0,49.0,-217.0,49.0,13.0,-9.0,1
113.0,51.0,-222.0,50.0,13.0,-9.0,1
112.0,51.0,-222.0,49.0,13.0,-12.0,1
110.0,53.0,-223.0,49.0,11.0,-11.0,1
115.0,50.0,-218.0,50.0,12.0,-10.0,1
115.0,50.0,-221.0,51.0,11.0,-12.0,1
112.0,52.0,-217.0,50.0,11.0,-11.0,1
116.0,52.0,-221.0,50.0,10.0,-10.0,1
110.0,54.0,-226.0,52.0,10.0,-11.0,1
114.0,55.0,-222.0,51.0,10.0,-11.0,1
110.0,49.0,-223.0,51.0,9.0,-10.0,1
113.0,49.0,-225.0,51.0,9.0,-10.0,1
113.0,51.0,-219.0,50.0,9.0,-11.0,1
116.0,50.0,-222.0,50.0,11.0,-11.0,1
115.0,50.0,-221.0,51.0,11.0,-10.0,1
112.0,53.0,-223.0,50.0,12.0,-12.0,1
114.0,54.0,-217.0,50.0,11.0,-11.0,1
116.0,54.0,-221.0,50.0,10.0,-11.0,1
113.0,49.0,-220.0,51.0,9.0,-11.0,1
113.0,54.0,-223.0,50.0,10.0,-10.0,1
114.0,52.0,-218.0,51.0,9.0,-10.0,1
117.0,47.0,-213.0,52.0,9.0,-12.0,1
115.0,51.0,-221.0,52.0,10.0,-13.0,1
116.0,48.0,-222.0,51.0,10.0,-11.0,1
115.0,50.0,-219.0,50.0,9.0,-11.0,1
114.0,52.0,-218.0,50.0,10.0,-12.0,1
114.0,52.0,-221.0,50.0,10.0,-11.0,1
113.0,51.0,-219.0,49.0,9.0,-12.0,1
115.0,50.0,-220.0,48.0,9.0,-11.0,1
114.0,51.0,-221.0,47.0,9.0,-13.0,1
114.0,53.0,-220.0,49.0,8.0,-13.0,1
111.0,51.0,-221.0,49.0,9.0,-11.0,1
111.0,51.0,-224.0,49.0,9.0,-12.0,1
111.0,54.0,-222.0,48.0,9.0,-11.0,1
112.0,51.0,-218.0,49.0,9.0,-11.0,1
112.0,54.0,-218.0,49.0,9.0,-11.0,1
111.0,53.0,-221.0,49.0,8.0,-11.0,1
116.0,51.0,-218.0,49.0,7.0,-11.0,1
113.0,51.0,-222.0,51.0,8.0,-11.0,1
115.0,52.0,-219.0,51.0,8.0,-10.0,1
114.0,53.0,-218.0,52.0,8.0,-12.0,1
112.0,49.0,-223.0,52.0,8.0,-12.0,1
110.0,50.0,-214.0,51.0,7.0,-11.0,1
117.0,47.0,-215.0,52.0,8.0,-10.0,1
116.0,50.0,-218.0,51.0,10.0,-11.0,1
117.0,52.0,-221.0,50.0,10.0,-11.0,1
113.0,51.0,-220.0,49.0,8.0,-11.0,1
114.0,51.0,-223.0,48.0,10.0,-11.0,1
113.0,49.0,-221.0,47.0,9.0,-11.0,1
117.0,49.0,-223.0,52.0,8.0,-10.0,1
113.0,56.0,-220.0,51.0,12.0,-13.0,1
112.0,52.0,-218.0,45.0,11.0,-13.0,1
117.0,53.0,-222.0,42.0,9.0,-12.0,1
114.0,53.0,-221.0,44.0,9.0,-12.0,1
114.0,50.0,-220.0,46.0,9.0,-11.0,1
110.0,53.0,-219.0,46.0,10.0,-11.0,1
113.0,53.0,-219.0,46.0,10.0,-11.0,1
116.0,53.0,-222.0,47.0,10.0,-11.0,1
112.0,54.0,-218.0,49.0,11.0,-13.0,1
112.0,55.0,-217.0,48.0,9.0,-12.0,1
115.0,53.0,-223.0,51.0,10.0,-11.0,1
113.0,53.0,-220.0,50.0,8.0,-11.0,1
111.0,56.0,-221.0,48.0,8.0,-12.0,1
116.0,52.0,-220.0,48.0,9.0,-12.0,1
113.0,56.0,-222.0,45.0,10.0,-12.0,1
114.0,50.0,-224.0,45.0,10.0,-11.0,1
116.0,51.0,-223.0,45.0,10.0,-12.0,1
113.0,52.0,-221.0,45.0,10.0,-14.0,1
114.0,52.0,-218.0,46.0,9.0,-13.0,1
115.0,51.0,-221.0,44.0,9.0,-13.0,1
111.0,52.0,-221.0,47.0,9.0,-10.0,1
115.0,52.0,-219.0,48.0,9.0,-11.0,1
116.0,52.0,-216.0,45.0,9.0,-12.0,1
114.0,51.0,-225.0,44.0,9.0,-12.0,1
115.0,53.0,-222.0,43.0,9.0,-13.0,1
113.0,53.0,-218.0,45.0,9.0,-13.0,1
114.0,49.0,-223.0,45.0,9.0,-12.0,1
113.0,50.0,-222.0,47.0,9.0,-12.0,1
114.0,52.0,-221.0,48.0,9.0,-12.0,1
113.0,52.0,-219.0,46.0,9.0,-12.0,1
115.0,48.0,-218.0,46.0,9.0,-12.0,1
114.0,54.0,-218.0,45.0,9.0,-11.0,1
111.0,52.0,-218.0,46.0,10.0,-13.0,1
112.0,50.0,-219.0,48.0,10.0,-13.0,1
112.0,51.0,-223.0,49.0,8.0,-12.0,1
111.0,54.0,-221.0,51.0,8.0,-11.0,1
112.0,55.0,-222.0,52.0,8.0,-12.0,1
116.0,50.0,-218.0,52.0,8.0,-11.0,1
115.0,53.0,-223.0,52.0,9.0,-10.0,1
114.0,53.0,-224.0,51.0,9.0,-13.0,1
114.0,50.0,-223.0,52.0,9.0,-11.0,1
115.0,49.0,-221.0,50.0,9.0,-11.0,1
113.0,51.0,-222.0,48.0,8.0,-10.0,1
113.0,51.0,-219.0,50.0,9.0,-11.0,1
114.0,49.0,-222.0,50.0,8.0,-10.0,1
113.0,51.0,-224.0,51.0,9.0,-12.0,1
111.0,59.0,-224.0,52.0,8.0,-11.0,1
112.0,53.0,-223.0,49.0,8.0,-9.0,1
116.0,48.0,-219.0,56.0,8.0,-10.0,1
114.0,53.0,-218.0,55.0,11.0,-11.0,1
114.0,54.0,-221.0,49.0,11.0,-10.0,1
112.0,55.0,-225.0,47.0,11.0,-12.0,1
113.0,54.0,-222.0,49.0,13.0,-11.0,1
112.0,54.0,-222.0,50.0,13.0,-11.0,1
115.0,51.0,-220.0,51.0,15.0,-11.0,1
111.0,50.0,-220.0,50.0,14.0,-10.0,1
114.0,55.0,-220.0,50.0,15.0,-10.0,1
115.0,48.0,-223.0,49.0,14.0,-13.0,1
112.0,53.0,-221.0,49.0,14.0,-12.0,1
120.0,53.0,-213.0,49.0,14.0,-12.0,1
111.0,51.0,-223.0,49.0,12.0,-12.0,1
115.0,52.0,-218.0,48.0,11.0,-11.0,1
111.0,52.0,-217.0,48.0,10.0,-12.0,1
112.0,52.0,-219.0,50.0,10.0,-11.0,1
112.0,53.0,-219.0,51.0,8.0,-12.0,1
113.0,49.0,-221.0,50.0,8.0,-13.0,1
109.0,53.0,-223.0,52.0,7.0,-12.0,1
116.0,53.0,-221.0,52.0,7.0,-11.0,1
115.0,54.0,-223.0,52.0,7.0,-11.0,1
115.0,53.0,-215.0,51.0,7.0,-11.0,1
114.0,51.0,-221.0,49.0,7.0,-13.0,1
116.0,52.0,-222.0,50.0,8.0,-11.0,1
112.0,53.0,-219.0,51.0,9.0,-12.0,1
111.0,52.0,-222.0,50.0,8.0,-11.0,1
115.0,54.0,-223.0,52.0,10.0,-11.0,1
114.0,50.0,-221.0,50.0,10.0,-11.0,1
116.0,52.0,-223.0,51.0,9.0,-10.0,1
113.0,53.0,-222.0,51.0,10.0,-12.0,1
112.0,57.0,-223.0,52.0,10.0,-12.0,1
116.0,52.0,-223.0,53.0,10.0,-10.0,1
116.0,49.0,-225.0,53.0,11.0,-11.0,1
114.0,53.0,-219.0,53.0,12.0,-10.0,1
113.0,53.0,-219.0,53.0,13.0,-9.0,1
111.0,50.0,-219.0,53.0,11.0,-11.0,1
114.0,50.0,-222.0,54.0,12.0,-10.0,1
111.0,53.0,-220.0,54.0,13.0,-9.0,1
115.0,53.0,-222.0,53.0,12.0,-12.0,1
113.0,55.0,-217.0,52.0,14.0,-9.0,1
114.0,53.0,-219.0,52.0,13.0,-11.0,1
115.0,48.0,-223.0,53.0,13.0,-10.0,1
112.0,52.0,-221.0,53.0,13.0,-10.0,1
116.0,48.0,-219.0,53.0,14.0,-10.0,1
113.0,51.0,-225.0,53.0,14.0,-11.0,1
113.0,52.0,-224.0,52.0,12.0,-12.0,1
115.0,50.0,-217.0,54.0,13.0,-10.0,1
115.0,50.0,-222.0,53.0,13.0,-9.0,1
112.0,53.0,-221.0,53.0,13.0,-10.0,1
114.0,54.0,-221.0,53.0,12.0,-10.0,1
111.0,53.0,-221.0,51.0,14.0,-11.0,1
109.0,53.0,-219.0,50.0,14.0,-11.0,1
111.0,52.0,-222.0,50.0,14.0,-10.0,1
114.0,52.0,-220.0,50.0,14.0,-9.0,1
109.0,52.0,-221.0,51.0,14.0,-11.0,1
111.0,51.0,-220.0,51.0,13.0,-10.0,1
115.0,53.0,-222.0,52.0,14.0,-10.0,1
113.0,53.0,-222.0,53.0,14.0,-11.0,1
111.0,53.0,-218.0,52.0,14.0,-10.0,1
114.0,53.0,-217.0,52.0,14.0,-10.0,1
114.0,53.0,-222.0,54.0,15.0,-9.0,1
112.0,49.0,-221.0,54.0,16.0,-9.0,1
109.0,53.0,-217.0,53.0,16.0,-10.0,1
113.0,51.0,-222.0,53.0,15.0,-10.0,1
112.0,54.0,-221.0,53.0,15.0,-9.0,1
120.0,47.0,-222.0,53.0,14.0,-10.0,1
113.0,50.0,-223.0,53.0,14.0,-9.0,1
111.0,53.0,-220.0,54.0,15.0,-10.0,1
115.0,51.0,-219.0,53.0,15.0,-9.0,1
114.0,53.0,-222.0,54.0,14.0,-11.0,1
116.0,50.0,-224.0,54.0,14.0,-9.0,1
112.0,54.0,-219.0,55.0,15.0,-9.0,1
110.0,54.0,-222.0,56.0,15.0,-9.0,1
114.0,51.0,-220.0,55.0,16.0,-9.0,1
110.0,51.0,-220.0,55.0,15.0,-8.0,1
111.0,52.0,-217.0,56.0,15.0,-9.0,1
114.0,52.0,-217.0,55.0,15.0,-9.0,1
114.0,53.0,-220.0,55.0,15.0,-8.0,1
111.0,54.0,-222.0,54.0,15.0,-8.0,1
115.0,48.0,-220.0,55.0,13.0,-9.0,1
114.0,54.0,-219.0,55.0,13.0,-9.0,1
115.0,54.0,-221.0,55.0,13.0,-9.0,1
111.0,53.0,-222.0,55.0,13.0,-9.0,1
109.0,54.0,-221.0,55.0,13.0,-9.0,1
118.0,53.0,-223.0,55.0,13.0,-9.0,1
111.0,51.0,-223.0,55.0,12.0,-9.0,1
110.0,54.0,-221.0,55.0,13.0,-9.0,1
110.0,54.0,-221.0,55.0,12.0,-9.0,1
112.0,51.0,-217.0,54.0,12.0,-9.0,1
112.0,53.0,-219.0,55.0,11.0,-10.0,1
114.0,50.0,-221.0,54.0,11.0,-9.0,1
113.0,53.0,-223.0,53.0,12.0,-10.0,1
113.0,50.0,-220.0,54.0,12.0,-8.0,1
112.0,52.0,-220.0,55.0,13.0,-8.0,1
112.0,51.0,-226.0,56.0,12.0,-9.0,1
116.0,51.0,-216.0,54.0,11.0,-9.0,1
113.0,53.0,-221.0,55.0,10.0,-10.0,1
115.0,49.0,-219.0,56.0,11.0,-11.0,1
112.0,54.0,-224.0,54.0,13.0,-9.0,1
114.0,51.0,-218.0,55.0,11.0,-11.0,1
111.0,51.0,-222.0,55.0,11.0,-11.0,1
115.0,51.0,-224.0,57.0,11.0,-9.0,1
115.0,52.0,-223.0,56.0,11.0,-9.0,1
114.0,54.0,-218.0,55.0,11.0,-11.0,1
114.0,51.0,-222.0,55.0,12.0,-9.0,1
113.0,52.0,-224.0,55.0,14.0,-10.0,1
113.0,57.0,-223.0,54.0,12.0,-9.0,1
111.0,51.0,-219.0,53.0,14.0,-10.0,1
115.0,49.0,-217.0,53.0,13.0,-9.0,1
114.0,51.0,-222.0,52.0,14.0,-9.0,1
114.0,54.0,-221.0,52.0,13.0,-9.0,1
114.0,50.0,-220.0,53.0,13.0,-10.0,1
111.0,51.0,-223.0,53.0,14.0,-9.0,1
111.0,54.0,-220.0,53.0,15.0,-9.0,1
114.0,50.0,-219.0,54.0,14.0,-9.0,1
113.0,51.0,-221.0,54.0,14.0,-9.0,1
113.0,53.0,-221.0,54.0,13.0,-10.0,1
118.0,49.0,-218.0,53.0,13.0,-11.0,1
110.0,58.0,-223.0,53.0,14.0,-7.0,1
114.0,55.0,-217.0,53.0,13.0,-8.0,1
115.0,51.0,-217.0,53.0,12.0,-8.0,1
115.0,52.0,-219.0,54.0,13.0,-9.0,1
115.0,55.0,-220.0,54.0,13.0,-9.0,1
115.0,53.0,-219.0,54.0,12.0,-10.0,1
114.0,53.0,-220.0,53.0,13.0,-11.0,1
113.0,51.0,-221.0,54.0,13.0,-11.0,1
111.0,56.0,-221.0,53.0,13.0,-10.0,1
108.0,53.0,-220.0,53.0,14.0,-9.0,1
112.0,52.0,-224.0,53.0,12.0,-9.0,1
114.0,51.0,-219.0,53.0,13.0,-9.0,1
115.0,54.0,-223.0,53.0,13.0,-10.0,1
114.0,50.0,-222.0,54.0,13.0,-11.0,1
114.0,54.0,-221.0,54.0,13.0,-9.0,1
114.0,53.0,-222.0,54.0,13.0,-9.0,1
113.0,54.0,-222.0,55.0,13.0,-10.0,1
112.0,51.0,-218.0,54.0,12.0,-10.0,1
110.0,52.0,-221.0,55.0,12.0,-11.0,1
114.0,53.0,-219.0,54.0,11.0,-10.0,1
113.0,51.0,-221.0,53.0,12.0,-11.0,1
114.0,50.0,-221.0,54.0,13.0,-12.0,1
112.0,54.0,-217.0,53.0,12.0,-12.0,1
117.0,55.0,-224.0,53.0,12.0,-11.0,1
112.0,54.0,-219.0,52.0,13.0,-10.0,1
115.0,52.0,-219.0,51.0,14.0,-9.0,1
112.0,56.0,-223.0,53.0,14.0,-9.0,1
113.0,48.0,-219.0,53.0,13.0,-8.0,1
114.0,49.0,-221.0,54.0,13.0,-8.0,1
113.0,49.0,-220.0,56.0,13.0,-10.0,1
111.0,51.0,-223.0,57.0,12.0,-10.0,1
112.0,52.0,-219.0,56.0,12.0,-10.0,1
116.0,52.0,-218.0,56.0,12.0,-10.0,1
114.0,52.0,-219.0,56.0,12.0,-9.0,1
113.0,57.0,-224.0,55.0,12.0,-11.0,1
113.0,55.0,-223.0,54.0,12.0,-12.0,1
114.0,50.0,-221.0,53.0,13.0,-11.0,1
114.0,53.0,-220.0,51.0,13.0,-11.0,1
114.0,54.0,-223.0,51.0,12.0,-11.0,1
111.0,53.0,-220.0,51.0,11.0,-10.0,1
112.0,50.0,-223.0,52.0,10.0,-10.0,1
112.0,55.0,-218.0,53.0,10.0,-9.0,1
112.0,55.0,-219.0,54.0,10.0,-11.0,1
114.0,53.0,-222.0,54.0,11.0,-11.0,1
111.0,50.0,-224.0,54.0,11.0,-11.0,1
109.0,53.0,-223.0,56.0,13.0,-9.0,1
114.0,53.0,-221.0,55.0,13.0,-9.0,1
113.0,53.0,-224.0,55.0,14.0,-10.0,1
113.0,53.0,-220.0,52.0,14.0,-9.0,1
113.0,54.0,-221.0,52.0,16.0,-9.0,1
113.0,55.0,-224.0,53.0,15.0,-11.0,1
112.0,53.0,-222.0,51.0,16.0,-10.0,1
112.0,50.0,-223.0,51.0,16.0,-11.0,1
113.0,53.0,-223.0,50.0,15.0,-9.0,1
115.0,48.0,-221.0,51.0,13.0,-11.0,1
111.0,57.0,-222.0,51.0,13.0,-11.0,1
112.0,53.0,-219.0,51.0,12.0,-11.0,1
114.0,53.0,-220.0,51.0,11.0,-11.0,1
111.0,51.0,-220.0,51.0,11.0,-9.0,1
114.0,48.0,-221.0,52.0,10.0,-9.0,1
113.0,52.0,-218.0,54.0,11.0,-10.0,1
115.0,49.0,-220.0,55.0,11.0,-12.0,1
112.0,56.0,-220.0,54.0,11.0,-12.0,1
112.0,51.0,-223.0,54.0,11.0,-10.0,1
112.0,55.0,-217.0,55.0,11.0,-11.0,1
111.0,54.0,-219.0,55.0,11.0,-10.0,1
113.0,51.0,-216.0,56.0,10.0,-10.0,1
111.0,52.0,-222.0,55.0,9.0,-10.0,1
111.0,54.0,-225.0,55.0,11.0,-11.0,1
115.0,52.0,-222.0,55.0,11.0,-9.0,1
115.0,50.0,-220.0,54.0,12.0,-10.0,1
113.0,52.0,-219.0,53.0,13.0,-10.0,1
116.0,51.0,-220.0,53.0,13.0,-8.0,1
115.0,51.0,-219.0,55.0,14.0,-7.0,1
113.0,50.0,-219.0,53.0,14.0,-10.0,1
113.0,51.0,-223.0,54.0,13.0,-10.0,1
112.0,48.0,-217.0,55.0,12.0,-9.0,1
111.0,48.0,-221.0,54.0,13.0,-9.0,1
110.0,57.0,-217.0,53.0,14.0,-9.0,1
114.0,50.0,-222.0,54.0,12.0,-9.0,1
112.0,50.0,-220.0,54.0,13.0,-10.0,1
113.0,52.0,-219.0,53.0,13.0,-10.0,1
111.0,52.0,-221.0,53.0,13.0,-8.0,1
114.0,52.0,-220.0,53.0,12.0,-9.0,1
114.0,52.0,-220.0,52.0,13.0,-10.0,1
112.0,50.0,-223.0,53.0,14.0,-11.0,1
112.0,53.0,-220.0,52.0,13.0,-11.0,1
115.0,50.0,-226.0,53.0,14.0,-11.0,1
113.0,49.0,-222.0,54.0,14.0,-9.0,1
108.0,51.0,-215.0,53.0,16.0,-9.0,1
117.0,50.0,-220.0,52.0,15.0,-8.0,1
116.0,53.0,-221.0,53.0,15.0,-10.0,1
115.0,51.0,-224.0,52.0,15.0,-11.0,1
114.0,51.0,-222.0,53.0,14.0,-12.0,1
113.0,50.0,-218.0,53.0,14.0,-11.0,1
114.0,53.0,-222.0,52.0,14.0,-9.0,1
115.0,53.0,-221.0,51.0,12.0,-11.0,1
111.0,50.0,-214.0,52.0,12.0,-10.0,1
111.0,51.0,-220.0,52.0,12.0,-10.0,1
113.0,52.0,-218.0,52.0,11.0,-11.0,1
112.0,53.0,-218.0,51.0,11.0,-10.0,1
114.0,50.0,-218.0,50.0,11.0,-10.0,1
114.0,50.0,-218.0,51.0,11.0,-9.0,1
115.0,50.0,-223.0,51.0,11.0,-7.0,1
112.0,55.0,-217.0,53.0,13.0,-8.0,1
111.0,51.0,-224.0,52.0,13.0,-10.0,1
110.0,53.0,-219.0,54.0,12.0,-10.0,1
118.0,52.0,-218.0,54.0,14.0,-10.0,1
112.0,50.0,-219.0,54.0,15.0,-10.0,1
114.0,51.0,-218.0,54.0,14.0,-10.0,1
111.0,51.0,-224.0,55.0,15.0,-8.0,1
112.0,54.0,-218.0,55.0,16.0,-8.0,1
111.0,54.0,-222.0,56.0,16.0,-8.0,1
113.0,52.0,-221.0,56.0,15.0,-8.0,1
113.0,50.0,-221.0,54.0,15.0,-9.0,1
113.0,53.0,-223.0,54.0,14.0,-9.0,1
114.0,54.0,-222.0,54.0,14.0,-11.0,1
113.0,53.0,-223.0,54.0,14.0,-9.0,1
114.0,53.0,-221.0,52.0,14.0,-10.0,1
112.0,52.0,-222.0,52.0,15.0,-12.0,1
115.0,51.0,-222.0,52.0,13.0,-11.0,1
112.0,49.0,-225.0,53.0,13.0,-9.0,1
116.0,51.0,-219.0,52.0,12.0,-11.0,1
114.0,51.0,-222.0,54.0,14.0,-10.0,1
114.0,54.0,-221.0,55.0,14.0,-11.0,1
113.0,51.0,-220.0,54.0,14.0,-10.0,1
112.0,53.0,-224.0,53.0,14.0,-8.0,1
115.0,53.0,-220.0,55.0,12.0,-10.0,1
113.0,53.0,-225.0,54.0,14.0,-8.0,1
112.0,52.0,-216.0,56.0,13.0,-9.0,1
111.0,54.0,-221.0,56.0,13.0,-8.0,1
115.0,50.0,-217.0,54.0,12.0,-9.0,1
110.0,52.0,-219.0,55.0,13.0,-11.0,1
113.0,51.0,-221.0,54.0,12.0,-10.0,1
111.0,53.0,-220.0,53.0,12.0,-10.0,1
114.0,54.0,-223.0,51.0,12.0,-11.0,1
113.0,51.0,-224.0,50.0,12.0,-10.0,1
114.0,49.0,-220.0,52.0,13.0,-11.0,1
112.0,52.0,-220.0,52.0,14.0,-9.0,1
112.0,48.0,-222.0,53.0,13.0,-9.0,1
116.0,51.0,-220.0,54.0,13.0,-11.0,1
113.0,52.0,-217.0,53.0,13.0,-10.0,1
113.0,52.0,-219.0,54.0,11.0,-9.0,1
126.0,53.0,-227.0,55.0,11.0,-9.0,1
112.0,51.0,-221.0,56.0,12.0,-9.0,1
113.0,52.0,-221.0,55.0,12.0,-9.0,1
114.0,50.0,-215.0,54.0,12.0,-10.0,1
116.0,50.0,-220.0,53.0,12.0,-10.0,1
112.0,53.0,-224.0,54.0,11.0,-11.0,1
114.0,52.0,-220.0,54.0,11.0,-9.0,1
115.0,49.0,-222.0,55.0,11.0,-10.0,1
116.0,52.0,-218.0,53.0,12.0,-8.0,1
116.0,52.0,-220.0,53.0,13.0,-9.0,1
110.0,53.0,-222.0,52.0,14.0,-8.0,1
109.0,50.0,-227.0,51.0,15.0,-11.0,1
114.0,51.0,-225.0,49.0,14.0,-10.0,1
114.0,49.0,-218.0,50.0,14.0,-10.0,1
117.0,52.0,-220.0,49.0,15.0,-13.0,1
113.0,53.0,-220.0,49.0,15.0,-10.0,1
113.0,51.0,-222.0,51.0,14.0,-12.0,1
111.0,53.0,-220.0,51.0,14.0,-11.0,1
112.0,53.0,-219.0,52.0,14.0,-10.0,1
116.0,50.0,-223.0,53.0,12.0,-11.0,1
116.0,53.0,-219.0,53.0,13.0,-9.0,1
114.0,50.0,-220.0,53.0,13.0,-10.0,1
110.0,49.0,-227.0,54.0,13.0,-9.0,1
113.0,52.0,-220.0,53.0,13.0,-10.0,1
116.0,51.0,-222.0,53.0,13.0,-11.0,1
115.0,53.0,-221.0,53.0,13.0,-11.0,1
114.0,51.0,-222.0,53.0,12.0,-10.0,1
115.0,54.0,-222.0,53.0,12.0,-10.0,1
114.0,53.0,-222.0,52.0,12.0,-11.0,1
111.0,52.0,-221.0,52.0,12.0,-10.0,1
113.0,49.0,-219.0,52.0,13.0,-10.0,1
111.0,55.0,-221.0,52.0,14.0,-10.0,1
111.0,53.0,-218.0,50.0,14.0,-10.0,1
117.0,49.0,-228.0,51.0,14.0,-12.0,1
115.0,53.0,-221.0,52.0,14.0,-12.0,1
112.0,54.0,-221.0,50.0,14.0,-10.0,1
115.0,53.0,-218.0,51.0,12.0,-10.0,1
114.0,56.0,-218.0,51.0,12.0,-11.0,1
113.0,53.0,-221.0,52.0,12.0,-11.0,1
115.0,52.0,-221.0,52.0,12.0,-12.0,1
111.0,47.0,-225.0,52.0,12.0,-12.0,1
110.0,50.0,-219.0,50.0,12.0,-12.0,1
116.0,55.0,-213.0,49.0,12.0,-12.0,1
117.0,50.0,-220.0,49.0,10.0,-12.0,1
114.0,43.0,-215.0,50.0,11.0,-11.0,1
113.0,55.0,-222.0,51.0,11.0,-11.0,1
114.0,52.0,-219.0,53.0,12.0,-12.0,1
111.0,52.0,-225.0,52.0,13.0,-12.0,1
114.0,51.0,-222.0,52.0,13.0,-8.0,1
110.0,50.0,-217.0,51.0,14.0,-10.0,1
114.0,51.0,-219.0,52.0,14.0,-9.0,1
112.0,46.0,-221.0,53.0,15.0,-10.0,1
112.0,51.0,-220.0,54.0,14.0,-10.0,1
111.0,55.0,-222.0,55.0,13.0,-11.0,1
112.0,48.0,-222.0,56.0,13.0,-10.0,1
118.0,50.0,-229.0,57.0,13.0,-9.0,1
112.0,51.0,-223.0,56.0,12.0,-11.0,1
112.0,53.0,-221.0,54.0,12.0,-11.0,1
112.0,51.0,-223.0,53.0,12.0,-10.0,1
113.0,49.0,-216.0,54.0,11.0,-8.0,1
112.0,53.0,-220.0,54.0,11.0,-9.0,1
111.0,55.0,-221.0,52.0,11.0,-11.0,1
114.0,52.0,-219.0,53.0,11.0,-11.0,1
112.0,52.0,-220.0,52.0,10.0,-10.0,1
113.0,50.0,-220.0,53.0,11.0,-10.0,1
117.0,48.0,-217.0,53.0,11.0,-11.0,1
112.0,54.0,-220.0,53.0,11.0,-9.0,1
113.0,52.0,-222.0,54.0,10.0,-10.0,1
115.0,50.0,-221.0,53.0,11.0,-12.0,1
114.0,51.0,-222.0,52.0,13.0,-11.0,1
112.0,51.0,-221.0,53.0,13.0,-11.0,1
114.0,53.0,-217.0,53.0,15.0,-11.0,1
116.0,52.0,-223.0,52.0,15.0,-11.0,1
115.0,51.0,-218.0,51.0,14.0,-12.0,1
112.0,53.0,-218.0,51.0,14.0,-10.0,1
112.0,49.0,-219.0,50.0,13.0,-10.0,1
113.0,51.0,-224.0,50.0,11.0,-11.0,1
113.0,53.0,-220.0,50.0,12.0,-10.0,1
114.0,53.0,-222.0,50.0,12.0,-11.0,1
114.0,51.0,-221.0,52.0,11.0,-11.0,1
113.0,50.0,-220.0,53.0,12.0,-12.0,1
110.0,54.0,-220.0,53.0,11.0,-11.0,1
112.0,51.0,-220.0,55.0,11.0,-11.0,1
109.0,53.0,-218.0,54.0,10.0,-11.0,1
113.0,50.0,-221.0,55.0,11.0,-12.0,1
109.0,51.0,-224.0,53.0,11.0,-10.0,1
114.0,49.0,-219.0,53.0,10.0,-11.0,1
109.0,51.0,-218.0,53.0,11.0,-11.0,1
112.0,53.0,-223.0,53.0,10.0,-12.0,1
113.0,48.0,-221.0,53.0,10.0,-11.0,1
113.0,53.0,-221.0,52.0,11.0,-11.0,1
115.0,50.0,-219.0,52.0,12.0,-13.0,1
110.0,55.0,-221.0,53.0,11.0,-11.0,1
117.0,51.0,-220.0,53.0,12.0,-8.0,1
115.0,51.0,-223.0,53.0,12.0,-9.0,1
113.0,50.0,-219.0,53.0,13.0,-9.0,1
117.0,52.0,-216.0,52.0,13.0,-9.0,1
112.0,52.0,-219.0,53.0,12.0,-11.0,1
116.0,43.0,-216.0,53.0,14.0,-10.0,1
114.0,52.0,-221.0,53.0,14.0,-11.0,1
116.0,50.0,-221.0,54.0,13.0,-9.0,1
113.0,52.0,-221.0,54.0,14.0,-11.0,1
112.0,52.0,-219.0,52.0,13.0,-10.0,1
113.0,53.0,-223.0,51.0,14.0,-11.0,1
114.0,49.0,-222.0,51.0,14.0,-10.0,1
113.0,51.0,-220.0,52.0,15.0,-11.0,1
115.0,48.0,-222.0,52.0,15.0,-10.0,1
114.0,48.0,-216.0,52.0,15.0,-11.0,1
118.0,52.0,-223.0,51.0,16.0,-10.0,1
113.0,52.0,-219.0,51.0,14.0,-11.0,1
114.0,52.0,-220.0,51.0,14.0,-11.0,1
112.0,51.0,-221.0,51.0,13.0,-9.0,1
113.0,48.0,-222.0,51.0,13.0,-9.0,1
114.0,52.0,-221.0,51.0,13.0,-9.0,1
112.0,54.0,-219.0,50.0,12.0,-10.0,1
116.0,52.0,-223.0,50.0,12.0,-10.0,1
111.0,54.0,-221.0,51.0,12.0,-11.0,1
112.0,50.0,-221.0,51.0,12.0,-11.0,1
112.0,52.0,-221.0,50.0,12.0,-10.0,1
115.0,56.0,-219.0,49.0,12.0,-12.0,1
113.0,59.0,-222.0,48.0,10.0,-13.0,1
113.0,50.0,-219.0,48.0,11.0,-11.0,1
110.0,55.0,-220.0,50.0,12.0,-12.0,1
