ax,ay,az,gx,gy,gz,label
23.0,-261.0,-24.0,-11.0,13.0,-24.0,1
26.0,-262.0,-24.0,-9.0,13.0,-25.0,1
28.0,-260.0,-26.0,-6.0,15.0,-23.0,1
25.0,-260.0,-24.0,-6.0,16.0,-23.0,1
30.0,-264.0,-25.0,-7.0,18.0,-23.0,1
26.0,-265.0,-24.0,-6.0,20.0,-21.0,1
28.0,-258.0,-20.0,-5.0,23.0,-21.0,1
28.0,-260.0,-19.0,-4.0,26.0,-21.0,1
29.0,-262.0,-20.0,-4.0,28.0,-19.0,1
30.0,-264.0,-17.0,-1.0,31.0,-18.0,1
32.0,-261.0,-21.0,1.0,32.0,-19.0,1
30.0,-263.0,-22.0,3.0,35.0,-18.0,1
35.0,-264.0,-17.0,4.0,36.0,-19.0,1
32.0,-258.0,-16.0,3.0,39.0,-20.0,1
30.0,-259.0,-14.0,3.0,39.0,-20.0,1
20.0,-259.0,-19.0,3.0,40.0,-21.0,1
31.0,-262.0,-15.0,2.0,43.0,-22.0,1
30.0,-260.0,-17.0,0.0,43.0,-22.0,1
32.0,-260.0,-18.0,0.0,43.0,-22.0,1
30.0,-258.0,-14.0,-2.0,42.0,-23.0,1
29.0,-260.0,-18.0,-5.0,43.0,-22.0,1
28.0,-257.0,-17.0,-11.0,42.0,-22.0,1
31.0,-260.0,-16.0,-16.0,38.0,-20.0,1
34.0,-260.0,-14.0,-21.0,35.0,-19.0,1
29.0,-258.0,-16.0,-25.0,33.0,-19.0,1
30.0,-258.0,-14.0,-28.0,31.0,-16.0,1
25.0,-261.0,-30.0,-30.0,28.0,-15.0,1
24.0,-258.0,-19.0,-31.0,26.0,-13.0,1
29.0,-258.0,-19.0,-33.0,27.0,-12.0,1
26.0,-257.0,-19.0,-34.0,26.0,-11.0,1
26.0,-258.0,-20.0,-37.0,29.0,-8.0,1
28.0,-258.0,-15.0,-40.0,29.0,-6.0,1
26.0,-260.0,-20.0,-44.0,31.0,-3.0,1
24.0,-257.0,-21.0,-46.0,31.0,-4.0,1
26.0,-261.0,-23.0,-51.0,33.0,-3.0,1
25.0,-263.0,-23.0,-54.0,33.0,-3.0,1
23.0,-261.0,-19.0,-56.0,31.0,-1.0,1
22.0,-261.0,-22.0,-60.0,31.0,-2.0,1
22.0,-260.0,-24.0,-60.0,30.0,-2.0,1
23.0,-263.0,-21.0,-60.0,28.0,-3.0,1
22.0,-262.0,-24.0,-61.0,25.0,-2.0,1
22.0,-262.0,-22.0,-59.0,24.0,-3.0,1
24.0,-263.0,-22.0,-57.0,23.0,-6.0,1
23.0,-262.0,-23.0,-58.0,19.0,-6.0,1
23.0,-261.0,-21.0,-57.0,19.0,-4.0,1
20.0,-261.0,-24.0,-53.0,19.0,-4.0,1
23.0,-264.0,-24.0,-51.0,19.0,-5.0,1
21.0,-262.0,-26.0,-53.0,18.0,-4.0,1
16.0,-262.0,-27.0,-50.0,17.0,-4.0,1
19.0,-257.0,-25.0,-49.0,17.0,-4.0,1
21.0,-260.0,-27.0,-47.0,17.0,-4.0,1
23.0,-261.0,-20.0,-46.0,17.0,-3.0,1
24.0,-261.0,-24.0,-44.0,16.0,-2.0,1
23.0,-264.0,-26.0,-39.0,16.0,-2.0,1
19.0,-258.0,-22.0,-36.0,16.0,-2.0,1
21.0,-258.0,-24.0,-34.0,15.0,-2.0,1
22.0,-261.0,-23.0,-31.0,14.0,-1.0,1
17.0,-259.0,-23.0,-29.0,13.0,-1.0,1
25.0,-262.0,-30.0,-25.0,13.0,2.0,1
22.0,-258.0,-25.0,-25.0,10.0,-2.0,1
23.0,-261.0,-23.0,-22.0,9.0,-1.0,1
20.0,-259.0,-20.0,-20.0,7.0,-2.0,1
23.0,-261.0,-22.0,-18.0,7.0,-3.0,1
21.0,-259.0,-24.0,-17.0,7.0,-3.0,1
21.0,-261.0,-19.0,-16.0,5.0,-4.0,1
23.0,-261.0,-21.0,-15.0,3.0,-6.0,1
26.0,-263.0,-20.0,-14.0,5.0,-7.0,1
21.0,-262.0,-26.0,-12.0,3.0,-7.0,1
26.0,-262.0,-20.0,-11.0,3.0,-8.0,1
19.0,-260.0,-14.0,-10.0,4.0,-10.0,1
25.0,-262.0,-21.0,-7.0,4.0,-12.0,1
20.0,-262.0,-22.0,-4.0,6.0,-13.0,1
24.0,-262.0,-22.0,-1.0,7.0,-14.0,1
22.0,-262.0,-22.0,0.0,8.0,-13.0,1
25.0,-261.0,-20.0,1.0,9.0,-14.0,1
25.0,-262.0,-20.0,2.0,11.0,-13.0,1
26.0,-262.0,-24.0,6.0,10.0,-14.0,1
28.0,-261.0,-22.0,7.0,10.0,-13.0,1
26.0,-259.0,-18.0,9.0,11.0,-13.0,1
28.0,-260.0,-22.0,10.0,13.0,-11.0,1
27.0,-266.0,-22.0,12.0,12.0,-12.0,1
24.0,-258.0,-22.0,15.0,11.0,-11.0,1
27.0,-257.0,-19.0,16.0,12.0,-11.0,1
27.0,-259.0,-19.0,17.0,11.0,-11.0,1
25.0,-260.0,-14.0,15.0,9.0,-9.0,1
26.0,-261.0,-18.0,15.0,9.0,-8.0,1
28.0,-256.0,-19.0,13.0,10.0,-7.0,1
24.0,-258.0,-15.0,13.0,9.0,-5.0,1
27.0,-258.0,-20.0,9.0,8.0,-5.0,1
26.0,-258.0,-14.0,6.0,9.0,-4.0,1
25.0,-257.0,-20.0,3.0,8.0,-3.0,1
27.0,-258.0,-23.0,0.0,9.0,-2.0,1
29.0,-259.0,-16.0,-2.0,9.0,-3.0,1
26.0,-259.0,-23.0,-3.0,9.0,-2.0,1
27.0,-260.0,-17.0,-6.0,10.0,-3.0,1
26.0,-260.0,-19.0,-9.0,11.0,-3.0,1
26.0,-259.0,-18.0,-12.0,13.0,-4.0,1
26.0,-258.0,-16.0,-15.0,12.0,-2.0,1
28.0,-259.0,-19.0,-20.0,13.0,-2.0,1
25.0,-260.0,-14.0,-21.0,13.0,-3.0,1
26.0,-264.0,-14.0,-22.0,14.0,-3.0,1
28.0,-262.0,-18.0,-25.0,15.0,-6.0,1
31.0,-265.0,-14.0,-26.0,16.0,-6.0,1
29.0,-261.0,-17.0,-27.0,17.0,-7.0,1
25.0,-261.0,-19.0,-28.0,17.0,-7.0,1
26.0,-262.0,-16.0,-29.0,16.0,-6.0,1
27.0,-262.0,-15.0,-29.0,17.0,-7.0,1
24.0,-261.0,-14.0,-30.0,19.0,-7.0,1
28.0,-261.0,-18.0,-30.0,20.0,-8.0,1
25.0,-264.0,-17.0,-32.0,20.0,-7.0,1
26.0,-259.0,-17.0,-30.0,20.0,-8.0,1
22.0,-261.0,-15.0,-29.0,21.0,-8.0,1
22.0,-264.0,-11.0,-31.0,21.0,-8.0,1
25.0,-260.0,-18.0,-28.0,21.0,-8.0,1
25.0,-262.0,-16.0,-29.0,20.0,-10.0,1
25.0,-259.0,-19.0,-28.0,20.0,-11.0,1
24.0,-258.0,-13.0,-27.0,19.0,-11.0,1
22.0,-259.0,-13.0,-26.0,20.0,-10.0,1
25.0,-261.0,-20.0,-25.0,19.0,-11.0,1
23.0,-258.0,-17.0,-26.0,19.0,-10.0,1
25.0,-261.0,-16.0,-25.0,18.0,-10.0,1
23.0,-257.0,-19.0,-24.0,18.0,-11.0,1
23.0,-261.0,-14.0,-24.0,18.0,-11.0,1
22.0,-261.0,-22.0,-24.0,17.0,-10.0,1
22.0,-261.0,-14.0,-24.0,15.0,-10.0,1
20.0,-259.0,-19.0,-23.0,17.0,-10.0,1
19.0,-258.0,-14.0,-23.0,15.0,-10.0,1
22.0,-258.0,-23.0,-22.0,14.0,-9.0,1
23.0,-259.0,-17.0,-24.0,14.0,-8.0,1
22.0,-259.0,-21.0,-24.0,13.0,-8.0,1
23.0,-259.0,-18.0,-26.0,14.0,-9.0,1
24.0,-257.0,-16.0,-26.0,13.0,-10.0,1
21.0,-259.0,-20.0,-26.0,12.0,-10.0,1
23.0,-259.0,-17.0,-27.0,13.0,-10.0,1
22.0,-263.0,-21.0,-27.0,13.0,-11.0,1
23.0,-260.0,-19.0,-27.0,13.0,-11.0,1
25.0,-260.0,-16.0,-28.0,13.0,-14.0,1
23.0,-262.0,-21.0,-28.0,12.0,-13.0,1
24.0,-261.0,-19.0,-30.0,12.0,-15.0,1
23.0,-263.0,-16.0,-29.0,11.0,-16.0,1
24.0,-260.0,-17.0,-28.0,13.0,-16.0,1
25.0,-261.0,-15.0,-28.0,15.0,-17.0,1
22.0,-264.0,-20.0,-27.0,14.0,-17.0,1
23.0,-262.0,-21.0,-27.0,14.0,-18.0,1
22.0,-260.0,-18.0,-25.0,14.0,-18.0,1
24.0,-252.0,-18.0,-25.0,15.0,-18.0,1
23.0,-261.0,-19.0,-23.0,15.0,-17.0,1
25.0,-262.0,-19.0,-22.0,15.0,-17.0,1
25.0,-258.0,-18.0,-22.0,15.0,-19.0,1
25.0,-260.0,-17.0,-21.0,15.0,-19.0,1
26.0,-259.0,-13.0,-22.0,15.0,-20.0,1
23.0,-258.0,-12.0,-20.0,16.0,-19.0,1
25.0,-261.0,-13.0,-22.0,15.0,-19.0,1
25.0,-259.0,-16.0,-21.0,15.0,-19.0,1
27.0,-260.0,-16.0,-21.0,15.0,-19.0,1
31.0,-263.0,-20.0,-21.0,13.0,-18.0,1
23.0,-266.0,-13.0,-22.0,12.0,-17.0,1
26.0,-260.0,-14.0,-22.0,13.0,-18.0,1
27.0,-261.0,-18.0,-22.0,9.0,-18.0,1
26.0,-260.0,-15.0,-22.0,10.0,-19.0,1
27.0,-260.0,-15.0,-19.0,9.0,-19.0,1
26.0,-260.0,-18.0,-20.0,8.0,-19.0,1
29.0,-262.0,-16.0,-17.0,8.0,-20.0,1
28.0,-264.0,-16.0,-17.0,7.0,-22.0,1
27.0,-260.0,-16.0,-15.0,10.0,-22.0,1
25.0,-263.0,-17.0,-14.0,10.0,-21.0,1
25.0,-259.0,-18.0,-13.0,10.0,-22.0,1
28.0,-258.0,-14.0,-12.0,11.0,-23.0,1
27.0,-260.0,-14.0,-11.0,11.0,-23.0,1
28.0,-260.0,-17.0,-12.0,13.0,-24.0,1
26.0,-258.0,-14.0,-13.0,14.0,-24.0,1
27.0,-262.0,-17.0,-15.0,13.0,-23.0,1
26.0,-261.0,-15.0,-16.0,15.0,-23.0,1
25.0,-259.0,-15.0,-18.0,15.0,-23.0,1
26.0,-261.0,-12.0,-21.0,14.0,-23.0,1
25.0,-261.0,-16.0,-21.0,13.0,-24.0,1
26.0,-263.0,-11.0,-19.0,13.0,-23.0,1
30.0,-263.0,-18.0,-19.0,14.0,-22.0,1
24.0,-262.0,-18.0,-18.0,13.0,-23.0,1
26.0,-261.0,-18.0,-20.0,11.0,-23.0,1
28.0,-258.0,-17.0,-19.0,12.0,-23.0,1
26.0,-262.0,-18.0,-21.0,12.0,-24.0,1
26.0,-259.0,-14.0,-21.0,11.0,-24.0,1
25.0,-259.0,-12.0,-22.0,12.0,-25.0,1
25.0,-258.0,-17.0,-20.0,11.0,-25.0,1
27.0,-257.0,-18.0,-20.0,12.0,-25.0,1
25.0,-260.0,-17.0,-18.0,14.0,-25.0,1
25.0,-261.0,-14.0,-20.0,15.0,-24.0,1
26.0,-257.0,-8.0,-20.0,17.0,-24.0,1
25.0,-259.0,-14.0,-18.0,18.0,-23.0,1
25.0,-257.0,-17.0,-19.0,19.0,-24.0,1
26.0,-260.0,-15.0,-19.0,18.0,-23.0,1
26.0,-260.0,-16.0,-19.0,19.0,-22.0,1
27.0,-259.0,-16.0,-20.0,19.0,-21.0,1
30.0,-261.0,-16.0,-20.0,20.0,-21.0,1
23.0,-259.0,-13.0,-20.0,18.0,-21.0,1
25.0,-261.0,-14.0,-20.0,18.0,-23.0,1
26.0,-262.0,-15.0,-22.0,19.0,-21.0,1
23.0,-260.0,-12.0,-23.0,18.0,-22.0,1
26.0,-264.0,-21.0,-23.0,16.0,-20.0,1
26.0,-259.0,-13.0,-22.0,16.0,-19.0,1
26.0,-258.0,-18.0,-23.0,15.0,-20.0,1
27.0,-260.0,-12.0,-23.0,15.0,-18.0,1
26.0,-258.0,-17.0,-21.0,13.0,-18.0,1
31.0,-263.0,-15.0,-22.0,13.0,-18.0,1
26.0,-261.0,-14.0,-21.0,13.0,-18.0,1
27.0,-257.0,-14.0,-22.0,13.0,-17.0,1
27.0,-258.0,-16.0,-21.0,13.0,-17.0,1
26.0,-259.0,-18.0,-22.0,14.0,-16.0,1
29.0,-259.0,-17.0,-22.0,15.0,-15.0,1
29.0,-259.0,-14.0,-22.0,15.0,-15.0,1
26.0,-258.0,-14.0,-21.0,17.0,-14.0,1
27.0,-260.0,-14.0,-23.0,16.0,-14.0,1
29.0,-260.0,-15.0,-22.0,17.0,-15.0,1
25.0,-257.0,-15.0,-20.0,16.0,-14.0,1
29.0,-258.0,-14.0,-21.0,16.0,-13.0,1
29.0,-260.0,-16.0,-20.0,16.0,-13.0,1
27.0,-260.0,-17.0,-21.0,18.0,-13.0,1
26.0,-261.0,-16.0,-21.0,18.0,-12.0,1
27.0,-258.0,-18.0,-21.0,18.0,-13.0,1
27.0,-260.0,-19.0,-20.0,17.0,-12.0,1
28.0,-260.0,-18.0,-22.0,17.0,-10.0,1
27.0,-257.0,-14.0,-20.0,19.0,-11.0,1
29.0,-263.0,-11.0,-21.0,19.0,-11.0,1
25.0,-258.0,-18.0,-23.0,19.0,-13.0,1
27.0,-259.0,-15.0,-24.0,18.0,-12.0,1
24.0,-259.0,-10.0,-25.0,18.0,-11.0,1
27.0,-258.0,-13.0,-25.0,17.0,-11.0,1
26.0,-259.0,-13.0,-26.0,17.0,-12.0,1
28.0,-259.0,-12.0,-26.0,17.0,-13.0,1
30.0,-259.0,-10.0,-27.0,15.0,-13.0,1
27.0,-259.0,-11.0,-27.0,18.0,-14.0,1
33.0,-257.0,-18.0,-28.0,18.0,-13.0,1
27.0,-261.0,-14.0,-27.0,18.0,-12.0,1
28.0,-260.0,-15.0,-27.0,18.0,-12.0,1
28.0,-259.0,-14.0,-27.0,18.0,-10.0,1
28.0,-259.0,-14.0,-25.0,17.0,-12.0,1
25.0,-260.0,-15.0,-26.0,19.0,-10.0,1
29.0,-264.0,-13.0,-26.0,16.0,-10.0,1
28.0,-259.0,-13.0,-26.0,18.0,-11.0,1
27.0,-259.0,-13.0,-24.0,18.0,-10.0,1
29.0,-259.0,-15.0,-25.0,19.0,-10.0,1
26.0,-256.0,-20.0,-25.0,20.0,-9.0,1
26.0,-267.0,-9.0,-24.0,22.0,-9.0,1
29.0,-260.0,-16.0,-25.0,22.0,-9.0,1
26.0,-259.0,-12.0,-27.0,22.0,-8.0,1
27.0,-259.0,-12.0,-29.0,24.0,-8.0,1
26.0,-261.0,-13.0,-28.0,23.0,-6.0,1
26.0,-258.0,-15.0,-27.0,24.0,-5.0,1
28.0,-260.0,-12.0,-31.0,23.0,-4.0,1
30.0,-259.0,-13.0,-31.0,24.0,-2.0,1
29.0,-261.0,-10.0,-31.0,24.0,-2.0,1
22.0,-262.0,-14.0,-32.0,24.0,-2.0,1
29.0,-257.0,-8.0,-31.0,24.0,-1.0,1
28.0,-263.0,-14.0,-30.0,24.0,-2.0,1
27.0,-260.0,-12.0,-30.0,23.0,-2.0,1
27.0,-259.0,-17.0,-31.0,22.0,-1.0,1
29.0,-261.0,-9.0,-31.0,21.0,0.0,1
27.0,-260.0,-15.0,-33.0,22.0,-1.0,1
27.0,-262.0,-15.0,-35.0,21.0,-3.0,1
27.0,-259.0,-8.0,-38.0,21.0,-2.0,1
24.0,-259.0,-9.0,-38.0,18.0,-3.0,1
31.0,-260.0,-8.0,-41.0,18.0,-3.0,1
27.0,-260.0,-16.0,-43.0,17.0,-3.0,1
25.0,-261.0,-18.0,-46.0,17.0,0.0,1
29.0,-259.0,-10.0,-50.0,17.0,0.0,1
29.0,-260.0,-13.0,-53.0,18.0,-1.0,1
29.0,-258.0,-10.0,-57.0,17.0,-1.0,1
29.0,-259.0,-8.0,-60.0,16.0,-1.0,1
30.0,-257.0,-10.0,-61.0,16.0,1.0,1
27.0,-259.0,-15.0,-60.0,15.0,2.0,1
27.0,-258.0,-11.0,-60.0,16.0,2.0,1
28.0,-256.0,-13.0,-60.0,16.0,4.0,1
32.0,-257.0,-11.0,-62.0,16.0,6.0,1
31.0,-258.0,-17.0,-61.0,16.0,6.0,1
31.0,-261.0,-12.0,-59.0,16.0,8.0,1
29.0,-260.0,-10.0,-57.0,18.0,9.0,1
31.0,-262.0,-9.0,-55.0,18.0,12.0,1
27.0,-262.0,-12.0,-54.0,19.0,14.0,1
29.0,-262.0,-10.0,-53.0,18.0,13.0,1
29.0,-262.0,-8.0,-55.0,19.0,13.0,1
25.0,-260.0,-10.0,-58.0,18.0,12.0,1
27.0,-260.0,-8.0,-61.0,15.0,11.0,1
25.0,-260.0,-9.0,-66.0,13.0,8.0,1
24.0,-259.0,-14.0,-72.0,12.0,7.0,1
23.0,-260.0,-8.0,-79.0,9.0,5.0,1
22.0,-259.0,-13.0,-85.0,8.0,3.0,1
26.0,-263.0,-10.0,-92.0,7.0,0.0,1
23.0,-262.0,-17.0,-97.0,8.0,-3.0,1
23.0,-261.0,-13.0,-100.0,6.0,-5.0,1
20.0,-258.0,-10.0,-100.0,8.0,-8.0,1
22.0,-262.0,-12.0,-101.0,9.0,-10.0,1
21.0,-261.0,-11.0,-99.0,11.0,-13.0,1
22.0,-262.0,-15.0,-99.0,15.0,-16.0,1
22.0,-262.0,-10.0,-93.0,16.0,-17.0,1
22.0,-259.0,-7.0,-88.0,20.0,-19.0,1
19.0,-258.0,-10.0,-82.0,21.0,-20.0,1
24.0,-260.0,-13.0,-77.0,22.0,-20.0,1
22.0,-259.0,-13.0,-75.0,23.0,-20.0,1
24.0,-258.0,-18.0,-74.0,25.0,-18.0,1
26.0,-258.0,-16.0,-75.0,24.0,-17.0,1
24.0,-257.0,-14.0,-75.0,25.0,-17.0,1
27.0,-258.0,-21.0,-78.0,26.0,-13.0,1
24.0,-256.0,-21.0,-77.0,24.0,-11.0,1
26.0,-257.0,-20.0,-78.0,21.0,-8.0,1
27.0,-258.0,-20.0,-78.0,20.0,-5.0,1
27.0,-259.0,-20.0,-79.0,19.0,-4.0,1
31.0,-258.0,-17.0,-80.0,16.0,-2.0,1
30.0,-258.0,-17.0,-79.0,15.0,-1.0,1
31.0,-261.0,-19.0,-76.0,14.0,1.0,1
32.0,-259.0,-17.0,-74.0,13.0,4.0,1
30.0,-258.0,-14.0,-70.0,10.0,3.0,1
33.0,-260.0,-19.0,-67.0,7.0,4.0,1
34.0,-261.0,-19.0,-65.0,6.0,5.0,1
31.0,-262.0,-17.0,-60.0,6.0,6.0,1
34.0,-262.0,-17.0,-60.0,6.0,6.0,1
32.0,-261.0,-16.0,-60.0,8.0,7.0,1
32.0,-261.0,-17.0,-59.0,8.0,8.0,1
34.0,-263.0,-24.0,-60.0,9.0,8.0,1
31.0,-266.0,-15.0,-59.0,9.0,8.0,1
31.0,-262.0,-18.0,-60.0,10.0,9.0,1
29.0,-262.0,-16.0,-62.0,10.0,10.0,1
31.0,-264.0,-16.0,-61.0,9.0,9.0,1
31.0,-264.0,-16.0,-59.0,11.0,12.0,1
27.0,-262.0,-16.0,-58.0,12.0,13.0,1
27.0,-264.0,-18.0,-56.0,11.0,14.0,1
31.0,-267.0,-12.0,-53.0,13.0,13.0,1
26.0,-263.0,-22.0,-51.0,14.0,12.0,1
29.0,-266.0,-13.0,-47.0,16.0,11.0,1
28.0,-264.0,-16.0,-42.0,15.0,10.0,1
28.0,-257.0,-15.0,-44.0,15.0,10.0,1
29.0,-263.0,-17.0,-41.0,16.0,8.0,1
27.0,-263.0,-16.0,-38.0,18.0,6.0,1
29.0,-261.0,-20.0,-36.0,19.0,5.0,1
29.0,-262.0,-11.0,-34.0,17.0,5.0,1
28.0,-263.0,-15.0,-31.0,16.0,5.0,1
28.0,-258.0,-11.0,-27.0,14.0,5.0,1
30.0,-261.0,-16.0,-23.0,14.0,4.0,1
26.0,-259.0,-17.0,-23.0,16.0,7.0,1
29.0,-257.0,-13.0,-23.0,17.0,9.0,1
24.0,-264.0,-12.0,-21.0,17.0,11.0,1
27.0,-259.0,-14.0,-18.0,14.0,12.0,1
27.0,-262.0,-15.0,-18.0,15.0,11.0,1
26.0,-259.0,-15.0,-16.0,15.0,11.0,1
25.0,-257.0,-9.0,-16.0,15.0,11.0,1
25.0,-258.0,-14.0,-17.0,16.0,11.0,1
25.0,-259.0,-12.0,-19.0,15.0,9.0,1
24.0,-258.0,-10.0,-20.0,16.0,10.0,1
22.0,-255.0,-13.0,-23.0,17.0,11.0,1
21.0,-260.0,-16.0,-29.0,21.0,10.0,1
21.0,-257.0,-19.0,-34.0,20.0,6.0,1
23.0,-259.0,-16.0,-40.0,18.0,4.0,1
28.0,-262.0,-11.0,-44.0,22.0,1.0,1
17.0,-259.0,-10.0,-45.0,23.0,-1.0,1
25.0,-257.0,-14.0,-45.0,22.0,-3.0,1
28.0,-259.0,-13.0,-43.0,17.0,-5.0,1
24.0,-261.0,-14.0,-43.0,21.0,-4.0,1
27.0,-258.0,-10.0,-46.0,21.0,-6.0,1
28.0,-260.0,-16.0,-48.0,19.0,-5.0,1
27.0,-261.0,-11.0,-52.0,21.0,-3.0,1
24.0,-263.0,-10.0,-52.0,21.0,-2.0,1
19.0,-260.0,-15.0,-44.0,15.0,-2.0,1
19.0,-258.0,-15.0,-32.0,13.0,-2.0,1
19.0,-257.0,-17.0,-22.0,16.0,-2.0,1
22.0,-258.0,-15.0,-20.0,20.0,4.0,1
20.0,-259.0,-18.0,-20.0,22.0,8.0,1
24.0,-259.0,-17.0,-20.0,21.0,8.0,1
28.0,-257.0,-22.0,-22.0,17.0,8.0,1
30.0,-256.0,-20.0,-35.0,20.0,8.0,1
29.0,-259.0,-18.0,-48.0,20.0,6.0,1
25.0,-259.0,-17.0,-60.0,17.0,2.0,1
25.0,-259.0,-9.0,-68.0,15.0,-3.0,1
26.0,-263.0,-6.0,-67.0,11.0,-8.0,1
27.0,-269.0,-6.0,-63.0,8.0,-9.0,1
25.0,-264.0,-7.0,-57.0,7.0,-8.0,1
26.0,-263.0,-13.0,-50.0,9.0,-9.0,1
24.0,-264.0,-13.0,-44.0,11.0,-5.0,1
23.0,-259.0,-8.0,-40.0,11.0,-1.0,1
25.0,-262.0,-14.0,-35.0,13.0,3.0,1
26.0,-261.0,-12.0,-29.0,15.0,4.0,1
25.0,-257.0,-16.0,-31.0,18.0,5.0,1
24.0,-258.0,-9.0,-34.0,20.0,6.0,1
23.0,-258.0,-14.0,-42.0,20.0,6.0,1
22.0,-257.0,-11.0,-50.0,20.0,7.0,1
23.0,-259.0,-17.0,-54.0,20.0,4.0,1
26.0,-263.0,-14.0,-55.0,20.0,4.0,1
22.0,-261.0,-14.0,-56.0,18.0,2.0,1
28.0,-261.0,-18.0,-55.0,18.0,1.0,1
25.0,-259.0,-18.0,-54.0,22.0,2.0,1
24.0,-262.0,-15.0,-56.0,21.0,2.0,1
27.0,-264.0,-11.0,-52.0,22.0,4.0,1
27.0,-258.0,-19.0,-43.0,24.0,4.0,1
28.0,-261.0,-15.0,-31.0,25.0,5.0,1
27.0,-257.0,-17.0,-21.0,26.0,5.0,1
31.0,-261.0,-25.0,-18.0,27.0,9.0,1
30.0,-257.0,-16.0,-24.0,28.0,11.0,1
28.0,-258.0,-13.0,-32.0,32.0,13.0,1
31.0,-257.0,-16.0,-43.0,28.0,13.0,1
30.0,-258.0,-15.0,-55.0,25.0,10.0,1
32.0,-260.0,-10.0,-59.0,23.0,6.0,1
30.0,-261.0,-7.0,-57.0,19.0,1.0,1
33.0,-263.0,-15.0,-50.0,16.0,2.0,1
34.0,-264.0,-16.0,-48.0,16.0,3.0,1
27.0,-260.0,-16.0,-44.0,18.0,4.0,1
20.0,-264.0,-14.0,-42.0,24.0,4.0,1
26.0,-258.0,-22.0,-39.0,19.0,5.0,1
35.0,-260.0,-12.0,-37.0,7.0,5.0,1
37.0,-261.0,-19.0,-38.0,3.0,9.0,1
30.0,-259.0,-17.0,-38.0,7.0,13.0,1
30.0,-261.0,-19.0,-38.0,11.0,17.0,1
29.0,-264.0,-20.0,-40.0,13.0,21.0,1
23.0,-259.0,-16.0,-43.0,21.0,21.0,1
25.0,-261.0,-14.0,-45.0,18.0,19.0,1
27.0,-260.0,-11.0,-46.0,12.0,18.0,1
32.0,-263.0,-17.0,-48.0,4.0,16.0,1
29.0,-263.0,-15.0,-47.0,-2.0,15.0,1
32.0,-269.0,-16.0,-41.0,1.0,17.0,1
18.0,-261.0,-15.0,-34.0,5.0,13.0,1
15.0,-260.0,-10.0,-28.0,23.0,11.0,1
20.0,-260.0,-16.0,-29.0,4.0,4.0,1
26.0,-260.0,-15.0,-29.0,-5.0,2.0,1
31.0,-259.0,-13.0,-25.0,-3.0,1.0,1
27.0,-258.0,-12.0,-20.0,3.0,1.0,1
23.0,-257.0,-17.0,-14.0,8.0,2.0,1
24.0,-257.0,-12.0,-1.0,16.0,8.0,1
25.0,-257.0,-12.0,9.0,20.0,12.0,1
30.0,-256.0,-20.0,7.0,24.0,12.0,1
10.0,-258.0,-12.0,-9.0,37.0,11.0,1
14.0,-258.0,-9.0,-31.0,43.0,12.0,1
18.0,-258.0,-14.0,-50.0,34.0,11.0,1
14.0,-258.0,-13.0,-67.0,23.0,9.0,1
20.0,-261.0,-7.0,-78.0,18.0,10.0,1
22.0,-260.0,-15.0,-78.0,13.0,13.0,1
17.0,-264.0,-17.0,-70.0,18.0,16.0,1
20.0,-264.0,-13.0,-64.0,22.0,18.0,1
20.0,-263.0,-12.0,-56.0,23.0,19.0,1
13.0,-263.0,-20.0,-54.0,26.0,20.0,1
13.0,-260.0,-19.0,-59.0,27.0,19.0,1
19.0,-259.0,-21.0,-68.0,24.0,13.0,1
17.0,-265.0,-12.0,-70.0,19.0,5.0,1
20.0,-265.0,-16.0,-62.0,15.0,-3.0,1
19.0,-262.0,-18.0,-50.0,13.0,-8.0,1
20.0,-262.0,-16.0,-41.0,17.0,-13.0,1
20.0,-259.0,-16.0,-32.0,19.0,-18.0,1
21.0,-261.0,-11.0,-28.0,20.0,-21.0,1
21.0,-266.0,-12.0,-21.0,20.0,-24.0,1
20.0,-262.0,-12.0,-16.0,18.0,-26.0,1
24.0,-261.0,-15.0,-12.0,16.0,-28.0,1
20.0,-252.0,-14.0,-9.0,14.0,-27.0,1
27.0,-262.0,-13.0,-7.0,14.0,-27.0,1
20.0,-259.0,-10.0,-4.0,14.0,-28.0,1
22.0,-259.0,-11.0,-1.0,16.0,-28.0,1
25.0,-259.0,-16.0,2.0,16.0,-27.0,1
27.0,-262.0,-12.0,1.0,17.0,-25.0,1
25.0,-262.0,-14.0,0.0,15.0,-26.0,1
24.0,-259.0,-13.0,-1.0,16.0,-26.0,1
26.0,-262.0,-17.0,-5.0,14.0,-27.0,1
30.0,-262.0,-12.0,-9.0,13.0,-28.0,1
26.0,-260.0,-14.0,-13.0,13.0,-30.0,1
29.0,-263.0,-12.0,-17.0,12.0,-32.0,1
26.0,-263.0,-10.0,-18.0,14.0,-34.0,1
24.0,-260.0,-11.0,-19.0,14.0,-35.0,1
25.0,-260.0,-11.0,-18.0,14.0,-37.0,1
25.0,-262.0,-11.0,-17.0,14.0,-39.0,1
26.0,-261.0,-12.0,-16.0,16.0,-40.0,1
20.0,-259.0,-12.0,-13.0,16.0,-41.0,1
23.0,-259.0,-15.0,-13.0,18.0,-42.0,1
28.0,-259.0,-13.0,-14.0,17.0,-43.0,1
30.0,-259.0,-15.0,-14.0,19.0,-44.0,1
24.0,-258.0,-11.0,-16.0,24.0,-44.0,1
28.0,-260.0,-13.0,-13.0,27.0,-43.0,1
30.0,-261.0,-13.0,-14.0,31.0,-41.0,1
28.0,-260.0,-11.0,-14.0,35.0,-42.0,1
32.0,-260.0,-11.0,-15.0,35.0,-40.0,1
30.0,-261.0,-17.0,-18.0,39.0,-39.0,1
31.0,-260.0,-14.0,-21.0,42.0,-37.0,1
30.0,-259.0,-15.0,-22.0,43.0,-37.0,1
31.0,-264.0,-13.0,-24.0,43.0,-35.0,1
34.0,-265.0,-12.0,-27.0,42.0,-35.0,1
31.0,-262.0,-9.0,-29.0,39.0,-35.0,1
32.0,-261.0,-16.0,-27.0,35.0,-35.0,1
31.0,-268.0,-24.0,-24.0,31.0,-35.0,1
33.0,-260.0,-16.0,-21.0,26.0,-34.0,1
32.0,-260.0,-15.0,-16.0,24.0,-33.0,1
31.0,-261.0,-15.0,-10.0,20.0,-33.0,1
30.0,-260.0,-14.0,-3.0,16.0,-32.0,1
29.0,-258.0,-12.0,2.0,12.0,-32.0,1
32.0,-260.0,-15.0,5.0,13.0,-30.0,1
32.0,-257.0,-11.0,6.0,12.0,-28.0,1
24.0,-257.0,-9.0,4.0,16.0,-27.0,1
26.0,-257.0,-9.0,5.0,13.0,-26.0,1
30.0,-257.0,-12.0,5.0,9.0,-25.0,1
31.0,-255.0,-7.0,5.0,13.0,-21.0,1
28.0,-258.0,-11.0,1.0,13.0,-19.0,1
27.0,-258.0,-13.0,-5.0,16.0,-14.0,1
25.0,-258.0,-9.0,-6.0,14.0,-12.0,1
26.0,-263.0,-9.0,-6.0,10.0,-10.0,1
28.0,-259.0,-12.0,-5.0,7.0,-9.0,1
23.0,-260.0,-9.0,-4.0,10.0,-7.0,1
25.0,-258.0,-11.0,-7.0,13.0,-9.0,1
28.0,-259.0,-14.0,-12.0,11.0,-8.0,1
31.0,-262.0,-9.0,-18.0,14.0,-7.0,1
22.0,-261.0,-12.0,-19.0,15.0,-7.0,1
28.0,-259.0,-8.0,-18.0,15.0,-5.0,1
24.0,-261.0,-11.0,-13.0,15.0,-5.0,1
28.0,-261.0,-10.0,-5.0,16.0,-3.0,1
30.0,-262.0,-10.0,-2.0,18.0,-2.0,1
27.0,-260.0,-8.0,-1.0,21.0,0.0,1
26.0,-260.0,-8.0,-1.0,21.0,1.0,1
25.0,-258.0,-9.0,-4.0,22.0,1.0,1
27.0,-259.0,-5.0,-7.0,20.0,1.0,1
24.0,-257.0,-9.0,-6.0,19.0,0.0,1
23.0,-259.0,-12.0,-5.0,16.0,1.0,1
26.0,-260.0,-4.0,-3.0,13.0,-1.0,1
27.0,-260.0,-10.0,1.0,12.0,-3.0,1
24.0,-257.0,-6.0,4.0,11.0,-4.0,1
23.0,-258.0,-12.0,7.0,12.0,-5.0,1
21.0,-258.0,-9.0,5.0,14.0,-6.0,1
29.0,-257.0,-9.0,4.0,7.0,-5.0,1
28.0,-259.0,-10.0,1.0,12.0,-7.0,1
23.0,-257.0,-8.0,-2.0,16.0,-6.0,1
29.0,-257.0,-9.0,-5.0,14.0,-6.0,1
22.0,-257.0,-10.0,-10.0,17.0,-6.0,1
25.0,-253.0,-11.0,-12.0,17.0,-6.0,1
30.0,-261.0,-15.0,-16.0,18.0,-6.0,1
27.0,-258.0,-8.0,-19.0,19.0,-7.0,1
24.0,-257.0,-9.0,-19.0,23.0,-8.0,1
27.0,-260.0,-5.0,-20.0,21.0,-10.0,1
23.0,-258.0,-11.0,-20.0,19.0,-9.0,1
28.0,-259.0,-7.0,-21.0,19.0,-10.0,1
24.0,-259.0,-8.0,-22.0,19.0,-11.0,1
23.0,-259.0,-9.0,-25.0,21.0,-13.0,1
26.0,-260.0,-10.0,-24.0,22.0,-15.0,1
23.0,-258.0,-9.0,-24.0,13.0,-15.0,1
29.0,-262.0,-11.0,-24.0,13.0,-16.0,1
21.0,-256.0,-4.0,-22.0,17.0,-17.0,1
26.0,-260.0,-5.0,-26.0,21.0,-15.0,1
24.0,-259.0,-6.0,-28.0,21.0,-15.0,1
26.0,-261.0,-4.0,-31.0,20.0,-14.0,1
28.0,-259.0,-5.0,-32.0,18.0,-16.0,1
25.0,-259.0,-9.0,-35.0,15.0,-15.0,1
30.0,-259.0,-9.0,-37.0,15.0,-13.0,1
29.0,-260.0,-7.0,-38.0,20.0,-14.0,1
27.0,-258.0,-8.0,-37.0,21.0,-14.0,1
27.0,-257.0,-11.0,-41.0,18.0,-14.0,1
22.0,-259.0,-8.0,-46.0,17.0,-15.0,1
24.0,-261.0,-6.0,-47.0,16.0,-14.0,1
28.0,-261.0,-8.0,-48.0,15.0,-14.0,1
30.0,-262.0,-12.0,-48.0,15.0,-14.0,1
28.0,-258.0,-10.0,-46.0,16.0,-14.0,1
28.0,-262.0,-10.0,-53.0,20.0,-13.0,1
27.0,-261.0,-7.0,-53.0,21.0,-13.0,1
28.0,-262.0,-11.0,-51.0,17.0,-13.0,1
28.0,-265.0,-6.0,-45.0,11.0,-11.0,1
25.0,-261.0,-11.0,-40.0,9.0,-11.0,1
27.0,-262.0,-4.0,-32.0,14.0,-12.0,1
30.0,-258.0,-9.0,-21.0,17.0,-15.0,1
27.0,-258.0,-11.0,-20.0,13.0,-17.0,1
28.0,-258.0,-10.0,-21.0,10.0,-18.0,1
28.0,-260.0,-9.0,-25.0,9.0,-20.0,1
26.0,-260.0,-8.0,-30.0,12.0,-18.0,1
26.0,-258.0,-8.0,-33.0,14.0,-17.0,1
26.0,-256.0,-9.0,-36.0,15.0,-17.0,1
29.0,-258.0,-11.0,-41.0,14.0,-14.0,1
30.0,-260.0,-10.0,-43.0,15.0,-14.0,1
26.0,-257.0,-7.0,-44.0,20.0,-13.0,1
29.0,-258.0,-8.0,-45.0,22.0,-14.0,1
26.0,-256.0,-10.0,-46.0,22.0,-14.0,1
29.0,-258.0,-12.0,-48.0,21.0,-14.0,1
27.0,-258.0,-9.0,-51.0,24.0,-14.0,1
26.0,-258.0,-11.0,-57.0,25.0,-13.0,1
27.0,-256.0,-10.0,-59.0,23.0,-10.0,1
29.0,-258.0,-9.0,-62.0,27.0,-7.0,1
27.0,-258.0,-12.0,-62.0,26.0,-7.0,1
29.0,-260.0,-13.0,-61.0,24.0,-6.0,1
29.0,-263.0,-10.0,-61.0,23.0,-4.0,1
29.0,-260.0,-12.0,-59.0,23.0,-1.0,1
25.0,-258.0,-4.0,-58.0,22.0,0.0,1
23.0,-256.0,-7.0,-55.0,21.0,-1.0,1
28.0,-263.0,-7.0,-51.0,15.0,-1.0,1
27.0,-260.0,-8.0,-49.0,12.0,-1.0,1
28.0,-261.0,-9.0,-48.0,15.0,-2.0,1
28.0,-260.0,-10.0,-46.0,15.0,-2.0,1
28.0,-259.0,-8.0,-44.0,11.0,-5.0,1
28.0,-258.0,-2.0,-42.0,9.0,-5.0,1
32.0,-260.0,-9.0,-41.0,9.0,-5.0,1
29.0,-259.0,-8.0,-43.0,12.0,-6.0,1
26.0,-258.0,-12.0,-44.0,13.0,-8.0,1
30.0,-258.0,-1.0,-44.0,7.0,-9.0,1
28.0,-259.0,-14.0,-42.0,10.0,-9.0,1
30.0,-258.0,-14.0,-43.0,13.0,-8.0,1
25.0,-261.0,-10.0,-45.0,17.0,-8.0,1
26.0,-259.0,-7.0,-49.0,15.0,-9.0,1
29.0,-261.0,-6.0,-46.0,12.0,-9.0,1
30.0,-258.0,-10.0,-45.0,12.0,-9.0,1
25.0,-257.0,-7.0,-43.0,14.0,-8.0,1
26.0,-257.0,-10.0,-44.0,14.0,-7.0,1
29.0,-261.0,-14.0,-46.0,12.0,-8.0,1
28.0,-261.0,-13.0,-44.0,10.0,-6.0,1
28.0,-260.0,-11.0,-40.0,11.0,-7.0,1
29.0,-262.0,-12.0,-38.0,13.0,-6.0,1
27.0,-261.0,-8.0,-34.0,15.0,-8.0,1
27.0,-259.0,-10.0,-34.0,17.0,-9.0,1
27.0,-257.0,-12.0,-35.0,16.0,-8.0,1
27.0,-258.0,-10.0,-37.0,18.0,-9.0,1
29.0,-260.0,-10.0,-38.0,20.0,-9.0,1
27.0,-258.0,-10.0,-35.0,22.0,-8.0,1
29.0,-260.0,-14.0,-36.0,24.0,-9.0,1
30.0,-262.0,-3.0,-32.0,25.0,-9.0,1
27.0,-259.0,-11.0,-34.0,26.0,-11.0,1
28.0,-257.0,-8.0,-37.0,29.0,-11.0,1
23.0,-256.0,-7.0,-39.0,31.0,-12.0,1
29.0,-261.0,-10.0,-39.0,31.0,-12.0,1
29.0,-262.0,-8.0,-38.0,32.0,-12.0,1
30.0,-258.0,-7.0,-36.0,34.0,-11.0,1
29.0,-258.0,-13.0,-35.0,33.0,-9.0,1
28.0,-257.0,-8.0,-34.0,34.0,-7.0,1
27.0,-260.0,-8.0,-36.0,34.0,-7.0,1
27.0,-258.0,-5.0,-36.0,33.0,-6.0,1
29.0,-262.0,-10.0,-38.0,32.0,-3.0,1
31.0,-260.0,-4.0,-38.0,33.0,-1.0,1
26.0,-255.0,-6.0,-41.0,31.0,0.0,1
22.0,-253.0,-10.0,-43.0,29.0,3.0,1
26.0,-258.0,-8.0,-42.0,26.0,5.0,1
28.0,-258.0,-12.0,-44.0,24.0,6.0,1
28.0,-259.0,-7.0,-43.0,23.0,8.0,1
26.0,-259.0,-7.0,-43.0,22.0,8.0,1
27.0,-258.0,-11.0,-43.0,19.0,10.0,1
28.0,-260.0,-8.0,-42.0,17.0,11.0,1
29.0,-261.0,-11.0,-42.0,15.0,11.0,1
30.0,-261.0,-7.0,-39.0,11.0,11.0,1
24.0,-258.0,-13.0,-37.0,6.0,12.0,1
26.0,-264.0,-11.0,-35.0,5.0,13.0,1
30.0,-262.0,0.0,-32.0,2.0,10.0,1
32.0,-262.0,-8.0,-31.0,-1.0,9.0,1
27.0,-259.0,-6.0,-33.0,-3.0,8.0,1
27.0,-259.0,-7.0,-36.0,-1.0,7.0,1
28.0,-261.0,-4.0,-39.0,-4.0,7.0,1
26.0,-262.0,-8.0,-42.0,-2.0,5.0,1
27.0,-259.0,-8.0,-43.0,-4.0,5.0,1
29.0,-259.0,-7.0,-40.0,-2.0,3.0,1
29.0,-260.0,-11.0,-36.0,-2.0,3.0,1
28.0,-260.0,-8.0,-33.0,-2.0,2.0,1
28.0,-259.0,-5.0,-33.0,1.0,2.0,1
25.0,-260.0,-7.0,-35.0,2.0,3.0,1
26.0,-259.0,-8.0,-36.0,1.0,2.0,1
27.0,-261.0,-8.0,-34.0,0.0,3.0,1
23.0,-257.0,-11.0,-32.0,-1.0,3.0,1
26.0,-261.0,-7.0,-28.0,0.0,4.0,1
25.0,-260.0,-7.0,-24.0,-1.0,4.0,1
25.0,-256.0,-12.0,-22.0,1.0,1.0,1
25.0,-258.0,-9.0,-21.0,2.0,-1.0,1
25.0,-260.0,-7.0,-20.0,4.0,0.0,1
27.0,-262.0,-11.0,-21.0,5.0,-2.0,1
23.0,-258.0,-8.0,-22.0,8.0,-1.0,1
24.0,-259.0,-3.0,-22.0,10.0,0.0,1
24.0,-260.0,-5.0,-22.0,12.0,2.0,1
25.0,-260.0,-9.0,-21.0,18.0,2.0,1
26.0,-260.0,-6.0,-19.0,23.0,2.0,1
26.0,-258.0,-4.0,-15.0,26.0,1.0,1
24.0,-260.0,-6.0,-17.0,25.0,-4.0,1
22.0,-259.0,-7.0,-20.0,22.0,-9.0,1
28.0,-260.0,-4.0,-25.0,22.0,-16.0,1
23.0,-258.0,-5.0,-24.0,29.0,-22.0,1
20.0,-258.0,-2.0,-25.0,37.0,-25.0,1
27.0,-257.0,-5.0,-31.0,36.0,-30.0,1
22.0,-258.0,-8.0,-41.0,38.0,-31.0,1
26.0,-263.0,-4.0,-48.0,45.0,-31.0,1
20.0,-262.0,-6.0,-53.0,39.0,-30.0,1
25.0,-264.0,-6.0,-48.0,35.0,-32.0,1
29.0,-260.0,-6.0,-33.0,38.0,-39.0,1
28.0,-262.0,-8.0,-20.0,41.0,-45.0,1
28.0,-256.0,-9.0,-10.0,40.0,-53.0,1
24.0,-258.0,-14.0,-7.0,34.0,-54.0,1
22.0,-257.0,-11.0,-12.0,35.0,-53.0,1
27.0,-257.0,-5.0,-20.0,36.0,-54.0,1
29.0,-256.0,-13.0,-32.0,36.0,-54.0,1
30.0,-258.0,-15.0,-49.0,35.0,-46.0,1
31.0,-262.0,-6.0,-63.0,38.0,-39.0,1
30.0,-259.0,-9.0,-62.0,43.0,-36.0,1
26.0,-260.0,-10.0,-54.0,42.0,-34.0,1
31.0,-261.0,-8.0,-46.0,40.0,-26.0,1
32.0,-260.0,-5.0,-36.0,37.0,-23.0,1
32.0,-261.0,-8.0,-20.0,38.0,-23.0,1
26.0,-259.0,-10.0,-7.0,40.0,-22.0,1
29.0,-259.0,-7.0,-1.0,38.0,-20.0,1
28.0,-256.0,-7.0,1.0,35.0,-17.0,1
30.0,-261.0,-5.0,2.0,36.0,-11.0,1
30.0,-261.0,-1.0,2.0,38.0,-7.0,1
35.0,-262.0,-3.0,0.0,41.0,-2.0,1
35.0,-260.0,-7.0,1.0,35.0,0.0,1
37.0,-259.0,-10.0,-1.0,35.0,5.0,1
31.0,-256.0,-6.0,-1.0,40.0,10.0,1
28.0,-260.0,-5.0,-7.0,41.0,12.0,1
30.0,-261.0,-4.0,-19.0,32.0,12.0,1
32.0,-264.0,-6.0,-26.0,24.0,8.0,1
32.0,-260.0,-4.0,-29.0,20.0,6.0,1
31.0,-259.0,2.0,-32.0,17.0,4.0,1
30.0,-259.0,-6.0,-33.0,12.0,1.0,1
28.0,-260.0,-2.0,-28.0,6.0,2.0,1
31.0,-256.0,0.0,-23.0,11.0,4.0,1
29.0,-260.0,-2.0,-12.0,13.0,6.0,1
32.0,-259.0,-3.0,-11.0,5.0,7.0,1
37.0,-255.0,-3.0,1.0,-8.0,6.0,1
36.0,-255.0,-11.0,27.0,-11.0,6.0,1
29.0,-256.0,-6.0,32.0,2.0,12.0,1
28.0,-258.0,-10.0,23.0,10.0,15.0,1
25.0,-257.0,-6.0,12.0,13.0,14.0,1
27.0,-259.0,-9.0,7.0,11.0,10.0,1
25.0,-258.0,-3.0,5.0,11.0,11.0,1
34.0,-259.0,-7.0,3.0,12.0,12.0,1
28.0,-259.0,-5.0,-2.0,15.0,14.0,1
27.0,-260.0,-6.0,-5.0,20.0,14.0,1
27.0,-259.0,-6.0,-6.0,24.0,14.0,1
29.0,-260.0,-2.0,-13.0,24.0,14.0,1
27.0,-262.0,-4.0,-17.0,23.0,12.0,1
28.0,-263.0,-1.0,-18.0,22.0,11.0,1
27.0,-260.0,-2.0,-20.0,23.0,9.0,1
28.0,-261.0,-7.0,-21.0,25.0,9.0,1
22.0,-259.0,-3.0,-21.0,27.0,9.0,1
24.0,-263.0,-7.0,-23.0,27.0,9.0,1
28.0,-262.0,-7.0,-24.0,31.0,8.0,1
26.0,-260.0,-4.0,-26.0,31.0,7.0,1
24.0,-258.0,-1.0,-27.0,31.0,6.0,1
24.0,-263.0,-4.0,-28.0,31.0,5.0,1
24.0,-259.0,-1.0,-33.0,33.0,5.0,1
24.0,-259.0,-2.0,-37.0,33.0,4.0,1
25.0,-260.0,-1.0,-43.0,33.0,2.0,1
24.0,-261.0,0.0,-47.0,34.0,0.0,1
23.0,-260.0,0.0,-50.0,34.0,0.0,1
25.0,-259.0,-4.0,-55.0,34.0,-2.0,1
20.0,-258.0,-1.0,-58.0,33.0,-4.0,1
25.0,-259.0,-2.0,-62.0,33.0,-7.0,1
25.0,-259.0,-1.0,-66.0,31.0,-9.0,1
22.0,-258.0,-1.0,-70.0,31.0,-10.0,1
23.0,-257.0,-1.0,-73.0,29.0,-12.0,1
23.0,-257.0,-5.0,-77.0,24.0,-14.0,1
25.0,-256.0,-6.0,-81.0,23.0,-14.0,1
24.0,-256.0,-1.0,-82.0,20.0,-15.0,1
19.0,-253.0,-6.0,-82.0,15.0,-15.0,1
29.0,-255.0,-8.0,-82.0,11.0,-15.0,1
27.0,-254.0,-6.0,-76.0,8.0,-13.0,1
33.0,-254.0,-4.0,-71.0,3.0,-14.0,1
27.0,-255.0,-4.0,-65.0,1.0,-14.0,1
28.0,-255.0,-8.0,-58.0,-3.0,-13.0,1
26.0,-255.0,-4.0,-52.0,-6.0,-13.0,1
25.0,-254.0,-8.0,-48.0,-7.0,-13.0,1
24.0,-255.0,-6.0,-43.0,-8.0,-11.0,1
26.0,-254.0,-9.0,-40.0,-11.0,-10.0,1
27.0,-257.0,-9.0,-36.0,-12.0,-9.0,1
27.0,-259.0,-11.0,-36.0,-13.0,-9.0,1
29.0,-260.0,-11.0,-34.0,-13.0,-8.0,1
29.0,-260.0,-7.0,-34.0,-14.0,-7.0,1
35.0,-265.0,-13.0,-33.0,-15.0,-6.0,1
31.0,-261.0,-11.0,-32.0,-16.0,-5.0,1
33.0,-264.0,-12.0,-28.0,-18.0,-6.0,1
30.0,-261.0,-12.0,-25.0,-21.0,-8.0,1
31.0,-262.0,-15.0,-23.0,-22.0,-8.0,1
31.0,-265.0,-10.0,-19.0,-23.0,-10.0,1
31.0,-265.0,-9.0,-16.0,-24.0,-9.0,1
31.0,-263.0,-9.0,-11.0,-26.0,-12.0,1
30.0,-264.0,-10.0,-8.0,-25.0,-13.0,1
32.0,-265.0,-9.0,-5.0,-25.0,-14.0,1
29.0,-261.0,-3.0,1.0,-24.0,-15.0,1
35.0,-264.0,2.0,3.0,-25.0,-16.0,1
29.0,-263.0,-3.0,3.0,-23.0,-17.0,1
28.0,-260.0,-7.0,2.0,-22.0,-19.0,1
27.0,-261.0,-6.0,2.0,-18.0,-17.0,1
26.0,-259.0,-5.0,1.0,-15.0,-19.0,1
26.0,-260.0,-6.0,-1.0,-10.0,-19.0,1
22.0,-260.0,-5.0,-4.0,-6.0,-20.0,1
27.0,-259.0,0.0,-8.0,-2.0,-21.0,1
23.0,-257.0,0.0,-12.0,4.0,-23.0,1
21.0,-257.0,-1.0,-13.0,6.0,-24.0,1
24.0,-258.0,3.0,-17.0,11.0,-27.0,1
20.0,-255.0,1.0,-21.0,17.0,-29.0,1
20.0,-259.0,-1.0,-23.0,21.0,-33.0,1
20.0,-256.0,0.0,-27.0,25.0,-36.0,1
21.0,-259.0,2.0,-29.0,28.0,-39.0,1
22.0,-257.0,1.0,-32.0,31.0,-42.0,1
18.0,-257.0,1.0,-35.0,33.0,-47.0,1
17.0,-256.0,1.0,-35.0,35.0,-48.0,1
23.0,-255.0,0.0,-36.0,37.0,-50.0,1
21.0,-257.0,0.0,-38.0,36.0,-52.0,1
21.0,-258.0,-1.0,-38.0,35.0,-52.0,1
24.0,-258.0,-3.0,-39.0,36.0,-53.0,1
24.0,-257.0,-1.0,-44.0,33.0,-53.0,1
26.0,-256.0,0.0,-46.0,32.0,-51.0,1
25.0,-259.0,1.0,-48.0,29.0,-51.0,1
25.0,-256.0,3.0,-49.0,26.0,-50.0,1
28.0,-259.0,-2.0,-52.0,21.0,-50.0,1
29.0,-256.0,-1.0,-55.0,17.0,-49.0,1
31.0,-257.0,-3.0,-55.0,11.0,-47.0,1
29.0,-258.0,-5.0,-57.0,8.0,-47.0,1
31.0,-259.0,-5.0,-58.0,3.0,-45.0,1
34.0,-259.0,-6.0,-59.0,1.0,-44.0,1
26.0,-253.0,-1.0,-61.0,-3.0,-43.0,1
30.0,-256.0,-1.0,-63.0,-7.0,-44.0,1
32.0,-257.0,-6.0,-63.0,-10.0,-44.0,1
32.0,-259.0,-7.0,-65.0,-12.0,-42.0,1
34.0,-259.0,-6.0,-67.0,-14.0,-41.0,1
32.0,-257.0,-6.0,-67.0,-16.0,-41.0,1
35.0,-259.0,-6.0,-67.0,-15.0,-39.0,1
33.0,-259.0,-5.0,-68.0,-15.0,-37.0,1
33.0,-258.0,-12.0,-66.0,-14.0,-37.0,1
32.0,-257.0,-9.0,-66.0,-13.0,-33.0,1
33.0,-257.0,-8.0,-63.0,-13.0,-32.0,1
27.0,-262.0,-9.0,-63.0,-11.0,-33.0,1
35.0,-258.0,-6.0,-61.0,-10.0,-32.0,1
33.0,-257.0,-10.0,-60.0,-9.0,-31.0,1
34.0,-258.0,-11.0,-55.0,-9.0,-31.0,1
31.0,-259.0,-13.0,-53.0,-9.0,-31.0,1
37.0,-261.0,-11.0,-49.0,-7.0,-30.0,1
33.0,-257.0,-7.0,-47.0,-7.0,-28.0,1
36.0,-257.0,-8.0,-41.0,-5.0,-27.0,1
36.0,-261.0,-7.0,-38.0,-6.0,-26.0,1
35.0,-260.0,-9.0,-36.0,-5.0,-26.0,1
36.0,-259.0,-10.0,-35.0,-3.0,-26.0,1
32.0,-259.0,-11.0,-31.0,-2.0,-25.0,1
36.0,-257.0,-6.0,-30.0,-2.0,-25.0,1
34.0,-258.0,-11.0,-30.0,0.0,-23.0,1
34.0,-256.0,-6.0,-29.0,4.0,-22.0,1
34.0,-256.0,-13.0,-29.0,7.0,-21.0,1
37.0,-258.0,-3.0,-31.0,11.0,-19.0,1
36.0,-257.0,-9.0,-31.0,15.0,-16.0,1
32.0,-252.0,-9.0,-31.0,18.0,-16.0,1
36.0,-257.0,-4.0,-32.0,20.0,-16.0,1
34.0,-257.0,-10.0,-34.0,23.0,-13.0,1
31.0,-253.0,-1.0,-37.0,26.0,-14.0,1
33.0,-263.0,-6.0,-40.0,28.0,-13.0,1
38.0,-260.0,-6.0,-39.0,30.0,-14.0,1
32.0,-258.0,-6.0,-39.0,31.0,-13.0,1
34.0,-261.0,-4.0,-38.0,31.0,-11.0,1
35.0,-258.0,-8.0,-37.0,33.0,-11.0,1
35.0,-262.0,-6.0,-37.0,33.0,-11.0,1
32.0,-261.0,-5.0,-35.0,33.0,-9.0,1
34.0,-259.0,0.0,-35.0,32.0,-9.0,1
34.0,-261.0,-6.0,-34.0,32.0,-8.0,1
35.0,-260.0,-2.0,-33.0,32.0,-9.0,1
36.0,-261.0,-4.0,-32.0,33.0,-9.0,1
31.0,-259.0,-2.0,-30.0,34.0,-9.0,1
32.0,-259.0,-2.0,-27.0,36.0,-8.0,1
32.0,-260.0,1.0,-25.0,38.0,-9.0,1
32.0,-262.0,-2.0,-22.0,39.0,-8.0,1
32.0,-257.0,0.0,-20.0,41.0,-7.0,1
31.0,-257.0,-1.0,-16.0,43.0,-5.0,1
30.0,-257.0,0.0,-13.0,44.0,-4.0,1
31.0,-257.0,-3.0,-11.0,46.0,-1.0,1
31.0,-258.0,-3.0,-9.0,47.0,1.0,1
33.0,-255.0,-1.0,-6.0,49.0,4.0,1
23.0,-258.0,2.0,-8.0,47.0,5.0,1
30.0,-258.0,-2.0,-8.0,46.0,7.0,1
33.0,-257.0,-3.0,-10.0,45.0,9.0,1
31.0,-256.0,0.0,-11.0,44.0,10.0,1
30.0,-257.0,-4.0,-14.0,44.0,10.0,1
31.0,-258.0,-4.0,-17.0,41.0,12.0,1
29.0,-260.0,-1.0,-21.0,40.0,14.0,1
27.0,-258.0,-2.0,-22.0,38.0,14.0,1
29.0,-258.0,-5.0,-24.0,37.0,15.0,1
27.0,-258.0,-2.0,-28.0,35.0,18.0,1
27.0,-257.0,-1.0,-31.0,32.0,19.0,1
21.0,-260.0,-5.0,-30.0,30.0,19.0,1
26.0,-259.0,-4.0,-32.0,29.0,20.0,1
29.0,-261.0,-4.0,-34.0,29.0,21.0,1
29.0,-258.0,-2.0,-36.0,28.0,22.0,1
30.0,-259.0,-3.0,-34.0,27.0,22.0,1
29.0,-260.0,-5.0,-34.0,25.0,21.0,1
29.0,-259.0,-3.0,-33.0,25.0,21.0,1
28.0,-259.0,-4.0,-32.0,24.0,22.0,1
29.0,-262.0,-4.0,-32.0,22.0,22.0,1
27.0,-258.0,-2.0,-30.0,22.0,20.0,1
27.0,-256.0,-4.0,-30.0,21.0,21.0,1
30.0,-260.0,-3.0,-30.0,22.0,22.0,1
26.0,-258.0,0.0,-28.0,20.0,20.0,1
28.0,-257.0,-2.0,-28.0,18.0,19.0,1
29.0,-260.0,-3.0,-29.0,19.0,19.0,1
25.0,-259.0,0.0,-27.0,18.0,19.0,1
29.0,-257.0,-4.0,-28.0,18.0,19.0,1
29.0,-257.0,-7.0,-28.0,17.0,20.0,1
28.0,-260.0,-7.0,-28.0,17.0,18.0,1
25.0,-257.0,-2.0,-28.0,16.0,17.0,1
28.0,-259.0,-3.0,-30.0,16.0,18.0,1
26.0,-258.0,-5.0,-31.0,15.0,20.0,1
28.0,-257.0,-2.0,-32.0,14.0,20.0,1
29.0,-257.0,-2.0,-33.0,13.0,20.0,1
28.0,-258.0,-3.0,-33.0,12.0,21.0,1
31.0,-258.0,0.0,-35.0,12.0,20.0,1
27.0,-256.0,-3.0,-34.0,11.0,19.0,1
29.0,-260.0,0.0,-35.0,12.0,18.0,1
30.0,-258.0,-2.0,-36.0,11.0,17.0,1
29.0,-260.0,-3.0,-36.0,11.0,17.0,1
28.0,-262.0,-4.0,-36.0,9.0,16.0,1
29.0,-259.0,-5.0,-34.0,8.0,15.0,1
27.0,-258.0,0.0,-34.0,7.0,13.0,1
29.0,-256.0,-1.0,-34.0,6.0,12.0,1
32.0,-260.0,-3.0,-33.0,6.0,11.0,1
28.0,-259.0,-4.0,-31.0,8.0,9.0,1
29.0,-259.0,-1.0,-31.0,7.0,7.0,1
28.0,-257.0,-3.0,-31.0,9.0,7.0,1
30.0,-260.0,0.0,-30.0,9.0,7.0,1
28.0,-259.0,-1.0,-30.0,10.0,4.0,1
28.0,-259.0,-1.0,-31.0,12.0,5.0,1
30.0,-259.0,-2.0,-29.0,14.0,4.0,1
26.0,-258.0,0.0,-27.0,13.0,3.0,1
29.0,-257.0,-5.0,-28.0,13.0,2.0,1
35.0,-257.0,-2.0,-29.0,14.0,0.0,1
28.0,-257.0,-2.0,-34.0,15.0,-1.0,1
29.0,-259.0,-2.0,-39.0,17.0,-2.0,1
29.0,-257.0,-1.0,-38.0,16.0,-5.0,1
29.0,-259.0,-2.0,-34.0,17.0,-4.0,1
28.0,-257.0,-2.0,-34.0,17.0,-5.0,1
29.0,-257.0,-1.0,-33.0,18.0,-8.0,1
30.0,-261.0,1.0,-38.0,20.0,-9.0,1
30.0,-259.0,-3.0,-38.0,23.0,-8.0,1
28.0,-257.0,0.0,-36.0,25.0,-8.0,1
29.0,-258.0,0.0,-38.0,28.0,-8.0,1
30.0,-259.0,2.0,-41.0,29.0,-8.0,1
30.0,-261.0,-4.0,-43.0,31.0,-9.0,1
29.0,-256.0,-4.0,-47.0,34.0,-9.0,1
30.0,-259.0,-1.0,-51.0,35.0,-9.0,1
30.0,-260.0,-3.0,-52.0,38.0,-8.0,1
29.0,-257.0,-4.0,-50.0,40.0,-9.0,1
29.0,-258.0,0.0,-50.0,41.0,-10.0,1
26.0,-257.0,0.0,-50.0,42.0,-9.0,1
30.0,-257.0,0.0,-50.0,42.0,-9.0,1
28.0,-257.0,-6.0,-51.0,42.0,-9.0,1
31.0,-258.0,0.0,-53.0,43.0,-9.0,1
35.0,-257.0,-5.0,-57.0,43.0,-9.0,1
33.0,-259.0,-2.0,-59.0,44.0,-9.0,1
29.0,-256.0,0.0,-60.0,42.0,-9.0,1
31.0,-258.0,0.0,-62.0,43.0,-9.0,1
31.0,-261.0,0.0,-64.0,42.0,-7.0,1
31.0,-258.0,0.0,-64.0,40.0,-7.0,1
29.0,-258.0,0.0,-65.0,38.0,-5.0,1
28.0,-260.0,1.0,-67.0,37.0,-5.0,1
28.0,-257.0,2.0,-70.0,36.0,-4.0,1
30.0,-258.0,1.0,-68.0,32.0,-2.0,1
33.0,-257.0,-3.0,-68.0,30.0,-1.0,1
30.0,-259.0,0.0,-66.0,28.0,-1.0,1
30.0,-258.0,1.0,-63.0,28.0,0.0,1
32.0,-262.0,-2.0,-61.0,25.0,0.0,1
29.0,-259.0,1.0,-58.0,23.0,0.0,1
29.0,-259.0,-4.0,-56.0,20.0,0.0,1
27.0,-258.0,-1.0,-57.0,19.0,0.0,1
26.0,-255.0,-2.0,-56.0,18.0,0.0,1
30.0,-257.0,-2.0,-56.0,17.0,-2.0,1
26.0,-256.0,-4.0,-58.0,16.0,-2.0,1
29.0,-261.0,-5.0,-58.0,15.0,-1.0,1
32.0,-257.0,-4.0,-60.0,15.0,-2.0,1
27.0,-257.0,-1.0,-60.0,15.0,-2.0,1
27.0,-258.0,-5.0,-59.0,15.0,-2.0,1
25.0,-257.0,-6.0,-60.0,14.0,-2.0,1
26.0,-259.0,-4.0,-59.0,15.0,-1.0,1
27.0,-257.0,-3.0,-58.0,14.0,0.0,1
28.0,-258.0,-6.0,-58.0,13.0,1.0,1
25.0,-258.0,-2.0,-57.0,13.0,0.0,1
26.0,-260.0,-9.0,-54.0,12.0,2.0,1
28.0,-258.0,-3.0,-53.0,13.0,2.0,1
28.0,-258.0,-2.0,-50.0,13.0,3.0,1
27.0,-260.0,-4.0,-49.0,12.0,5.0,1
27.0,-259.0,-3.0,-48.0,11.0,5.0,1
27.0,-260.0,-7.0,-48.0,11.0,6.0,1
29.0,-261.0,-9.0,-47.0,10.0,6.0,1
26.0,-258.0,-2.0,-46.0,9.0,5.0,1
28.0,-258.0,-2.0,-46.0,9.0,5.0,1
27.0,-257.0,-5.0,-45.0,10.0,6.0,1
29.0,-261.0,-3.0,-44.0,10.0,5.0,1
29.0,-262.0,-7.0,-43.0,11.0,7.0,1
33.0,-262.0,-3.0,-43.0,11.0,6.0,1
34.0,-258.0,-2.0,-42.0,11.0,6.0,1
29.0,-261.0,-7.0,-42.0,12.0,6.0,1
29.0,-261.0,-3.0,-41.0,12.0,3.0,1
30.0,-259.0,-5.0,-40.0,12.0,3.0,1
29.0,-259.0,-7.0,-37.0,12.0,4.0,1
29.0,-257.0,-2.0,-35.0,13.0,1.0,1
29.0,-258.0,-5.0,-32.0,13.0,0.0,1
31.0,-260.0,-3.0,-33.0,13.0,-2.0,1
30.0,-258.0,-5.0,-33.0,12.0,-3.0,1
28.0,-258.0,-1.0,-33.0,13.0,-4.0,1
28.0,-257.0,-4.0,-33.0,13.0,-5.0,1
28.0,-259.0,-5.0,-33.0,11.0,-7.0,1
29.0,-257.0,-5.0,-34.0,12.0,-8.0,1
28.0,-257.0,-1.0,-34.0,13.0,-10.0,1
30.0,-256.0,-4.0,-34.0,13.0,-10.0,1
29.0,-258.0,-6.0,-33.0,15.0,-10.0,1
29.0,-258.0,-2.0,-34.0,16.0,-11.0,1
29.0,-257.0,-2.0,-36.0,17.0,-12.0,1
27.0,-259.0,0.0,-37.0,18.0,-11.0,1
30.0,-258.0,-5.0,-40.0,19.0,-10.0,1
25.0,-259.0,-5.0,-41.0,19.0,-11.0,1
27.0,-257.0,-5.0,-44.0,19.0,-9.0,1
29.0,-257.0,0.0,-42.0,19.0,-9.0,1
33.0,-259.0,-6.0,-40.0,18.0,-11.0,1
26.0,-259.0,0.0,-38.0,18.0,-11.0,1
30.0,-259.0,-1.0,-35.0,17.0,-10.0,1
27.0,-261.0,-1.0,-32.0,17.0,-11.0,1
27.0,-257.0,-4.0,-27.0,19.0,-11.0,1
30.0,-258.0,-1.0,-20.0,18.0,-11.0,1
26.0,-258.0,-4.0,-18.0,19.0,-12.0,1
30.0,-259.0,-1.0,-16.0,18.0,-13.0,1
29.0,-260.0,-4.0,-15.0,18.0,-14.0,1
29.0,-261.0,-2.0,-17.0,18.0,-14.0,1
27.0,-260.0,-8.0,-15.0,19.0,-15.0,1
29.0,-257.0,-7.0,-15.0,19.0,-15.0,1
29.0,-258.0,-8.0,-19.0,20.0,-17.0,1
29.0,-258.0,-5.0,-23.0,21.0,-18.0,1
28.0,-256.0,-6.0,-28.0,20.0,-16.0,1
31.0,-257.0,-6.0,-33.0,20.0,-18.0,1
26.0,-257.0,0.0,-35.0,19.0,-18.0,1
28.0,-259.0,-3.0,-39.0,20.0,-18.0,1
29.0,-258.0,-1.0,-39.0,21.0,-16.0,1
26.0,-260.0,0.0,-41.0,20.0,-17.0,1
25.0,-257.0,0.0,-41.0,21.0,-16.0,1
30.0,-259.0,-8.0,-40.0,22.0,-15.0,1
28.0,-263.0,-3.0,-39.0,24.0,-15.0,1
28.0,-259.0,-4.0,-38.0,26.0,-14.0,1
27.0,-254.0,-1.0,-36.0,25.0,-15.0,1
26.0,-257.0,-1.0,-35.0,24.0,-12.0,1
30.0,-259.0,-1.0,-33.0,24.0,-12.0,1
34.0,-258.0,-3.0,-30.0,25.0,-11.0,1
30.0,-258.0,1.0,-29.0,25.0,-10.0,1
29.0,-258.0,0.0,-29.0,23.0,-10.0,1
31.0,-260.0,-1.0,-30.0,21.0,-10.0,1
27.0,-257.0,0.0,-31.0,19.0,-11.0,1
32.0,-258.0,2.0,-30.0,18.0,-10.0,1
22.0,-260.0,2.0,-30.0,16.0,-11.0,1
32.0,-259.0,0.0,-31.0,16.0,-10.0,1
31.0,-258.0,0.0,-32.0,15.0,-12.0,1
27.0,-258.0,-2.0,-33.0,13.0,-11.0,1
30.0,-258.0,-1.0,-36.0,14.0,-11.0,1
30.0,-258.0,-3.0,-35.0,13.0,-10.0,1
28.0,-256.0,-3.0,-37.0,14.0,-10.0,1
28.0,-258.0,-1.0,-37.0,14.0,-10.0,1
30.0,-260.0,-1.0,-40.0,14.0,-10.0,1
29.0,-259.0,-3.0,-41.0,15.0,-9.0,1
26.0,-253.0,-3.0,-42.0,15.0,-8.0,1
28.0,-257.0,-1.0,-40.0,15.0,-8.0,1
31.0,-257.0,-2.0,-43.0,15.0,-7.0,1
31.0,-258.0,-5.0,-41.0,15.0,-8.0,1
27.0,-256.0,-2.0,-41.0,15.0,-8.0,1
28.0,-258.0,0.0,-40.0,15.0,-7.0,1
29.0,-260.0,-4.0,-39.0,15.0,-5.0,1
28.0,-258.0,0.0,-38.0,15.0,-6.0,1
31.0,-257.0,-2.0,-39.0,15.0,-6.0,1
32.0,-259.0,-3.0,-39.0,15.0,-7.0,1
28.0,-257.0,0.0,-38.0,14.0,-6.0,1
28.0,-258.0,0.0,-38.0,13.0,-6.0,1
29.0,-260.0,-1.0,-37.0,14.0,-6.0,1
26.0,-258.0,-1.0,-36.0,13.0,-6.0,1
31.0,-259.0,-1.0,-36.0,14.0,-6.0,1
30.0,-258.0,-1.0,-36.0,15.0,-8.0,1
29.0,-259.0,0.0,-37.0,14.0,-8.0,1
28.0,-256.0,0.0,-36.0,15.0,-8.0,1
28.0,-257.0,-2.0,-35.0,14.0,-8.0,1
24.0,-257.0,0.0,-34.0,14.0,-8.0,1
29.0,-262.0,-3.0,-35.0,13.0,-8.0,1
29.0,-258.0,-5.0,-36.0,14.0,-8.0,1
27.0,-262.0,-4.0,-33.0,14.0,-9.0,1
29.0,-259.0,0.0,-32.0,14.0,-9.0,1
33.0,-262.0,1.0,-30.0,14.0,-9.0,1
31.0,-259.0,-3.0,-29.0,14.0,-8.0,1
29.0,-260.0,2.0,-29.0,16.0,-9.0,1
31.0,-258.0,-2.0,-27.0,16.0,-8.0,1
29.0,-259.0,0.0,-27.0,16.0,-6.0,1
32.0,-261.0,-4.0,-24.0,15.0,-5.0,1
29.0,-258.0,-3.0,-23.0,14.0,-6.0,1
26.0,-260.0,-2.0,-20.0,14.0,-6.0,1
32.0,-259.0,1.0,-21.0,16.0,-7.0,1
34.0,-263.0,4.0,-18.0,18.0,-7.0,1
29.0,-259.0,-4.0,-16.0,16.0,-7.0,1
28.0,-259.0,0.0,-15.0,18.0,-7.0,1
28.0,-260.0,-3.0,-13.0,20.0,-8.0,1
30.0,-258.0,0.0,-10.0,20.0,-7.0,1
29.0,-261.0,-1.0,-10.0,19.0,-7.0,1
31.0,-261.0,-3.0,-10.0,20.0,-8.0,1
25.0,-258.0,-1.0,-6.0,20.0,-9.0,1
30.0,-257.0,-4.0,-3.0,20.0,-8.0,1
30.0,-258.0,-6.0,1.0,21.0,-8.0,1
30.0,-259.0,1.0,3.0,20.0,-7.0,1
31.0,-257.0,-2.0,5.0,20.0,-7.0,1
29.0,-259.0,-3.0,9.0,20.0,-5.0,1
28.0,-261.0,-4.0,13.0,19.0,-5.0,1
29.0,-260.0,-3.0,16.0,21.0,-4.0,1
27.0,-258.0,-4.0,20.0,21.0,-4.0,1
29.0,-260.0,-1.0,23.0,22.0,-3.0,1
34.0,-264.0,-2.0,27.0,24.0,-3.0,1
26.0,-262.0,0.0,32.0,25.0,-3.0,1
30.0,-260.0,-9.0,35.0,27.0,-1.0,1
30.0,-264.0,-4.0,37.0,28.0,-3.0,1
28.0,-258.0,0.0,42.0,27.0,-1.0,1
27.0,-255.0,3.0,50.0,26.0,0.0,1
30.0,-258.0,0.0,53.0,26.0,-1.0,1
30.0,-258.0,1.0,57.0,28.0,-1.0,1
33.0,-259.0,-3.0,60.0,31.0,0.0,1
30.0,-259.0,2.0,63.0,32.0,0.0,1
30.0,-259.0,-6.0,63.0,36.0,3.0,1
31.0,-257.0,-2.0,65.0,40.0,5.0,1
26.0,-256.0,-2.0,68.0,43.0,8.0,1
30.0,-261.0,-2.0,66.0,47.0,9.0,1
29.0,-260.0,0.0,67.0,48.0,10.0,1
30.0,-258.0,0.0,67.0,48.0,12.0,1
32.0,-264.0,-4.0,68.0,49.0,15.0,1
30.0,-259.0,2.0,69.0,49.0,14.0,1
33.0,-260.0,0.0,69.0,49.0,15.0,1
33.0,-260.0,0.0,69.0,47.0,17.0,1
30.0,-257.0,0.0,72.0,45.0,16.0,1
31.0,-258.0,5.0,74.0,41.0,19.0,1
31.0,-259.0,3.0,76.0,39.0,19.0,1
32.0,-255.0,2.0,77.0,34.0,18.0,1
33.0,-255.0,6.0,79.0,29.0,17.0,1
30.0,-256.0,1.0,80.0,25.0,15.0,1
31.0,-256.0,3.0,82.0,21.0,13.0,1
37.0,-253.0,1.0,85.0,16.0,13.0,1
30.0,-255.0,4.0,87.0,12.0,9.0,1
29.0,-254.0,3.0,88.0,6.0,8.0,1
29.0,-255.0,5.0,87.0,3.0,8.0,1
29.0,-255.0,5.0,82.0,-1.0,6.0,1
28.0,-257.0,7.0,80.0,-2.0,4.0,1
28.0,-255.0,2.0,77.0,-3.0,3.0,1
29.0,-254.0,7.0,74.0,-3.0,3.0,1
26.0,-253.0,4.0,70.0,-3.0,2.0,1
27.0,-256.0,3.0,63.0,-3.0,2.0,1
28.0,-258.0,5.0,58.0,0.0,2.0,1
28.0,-246.0,5.0,56.0,2.0,3.0,1
26.0,-258.0,3.0,51.0,5.0,1.0,1
29.0,-258.0,7.0,48.0,6.0,1.0,1
25.0,-257.0,2.0,45.0,10.0,1.0,1
25.0,-258.0,8.0,47.0,12.0,1.0,1
27.0,-261.0,4.0,45.0,15.0,-1.0,1
23.0,-258.0,5.0,48.0,18.0,-2.0,1
25.0,-257.0,4.0,48.0,20.0,-3.0,1
25.0,-258.0,7.0,51.0,23.0,-5.0,1
27.0,-260.0,10.0,52.0,24.0,-3.0,1
22.0,-265.0,3.0,55.0,24.0,-5.0,1
29.0,-259.0,4.0,58.0,26.0,-5.0,1
27.0,-259.0,4.0,64.0,26.0,-6.0,1
27.0,-256.0,4.0,69.0,25.0,-7.0,1
28.0,-258.0,8.0,73.0,22.0,-8.0,1
29.0,-259.0,9.0,77.0,20.0,-7.0,1
26.0,-258.0,4.0,78.0,17.0,-7.0,1
23.0,-257.0,5.0,81.0,15.0,-8.0,1
25.0,-258.0,7.0,84.0,13.0,-10.0,1
27.0,-259.0,6.0,85.0,11.0,-9.0,1
24.0,-256.0,4.0,88.0,10.0,-9.0,1
34.0,-259.0,6.0,87.0,8.0,-9.0,1
26.0,-256.0,4.0,89.0,7.0,-11.0,1
26.0,-255.0,6.0,87.0,7.0,-12.0,1
28.0,-258.0,9.0,87.0,8.0,-12.0,1
28.0,-256.0,7.0,84.0,9.0,-14.0,1
26.0,-254.0,9.0,83.0,10.0,-16.0,1
31.0,-257.0,10.0,82.0,12.0,-16.0,1
30.0,-256.0,9.0,85.0,13.0,-16.0,1
27.0,-257.0,8.0,84.0,14.0,-17.0,1
30.0,-257.0,11.0,85.0,15.0,-17.0,1
26.0,-258.0,11.0,87.0,16.0,-16.0,1
24.0,-259.0,10.0,89.0,19.0,-18.0,1
28.0,-260.0,6.0,92.0,18.0,-17.0,1
29.0,-259.0,11.0,96.0,19.0,-17.0,1
30.0,-258.0,10.0,100.0,20.0,-17.0,1
29.0,-258.0,12.0,103.0,19.0,-16.0,1
26.0,-256.0,6.0,108.0,19.0,-15.0,1
31.0,-257.0,9.0,109.0,19.0,-15.0,1
30.0,-257.0,11.0,113.0,17.0,-16.0,1
32.0,-257.0,14.0,119.0,16.0,-15.0,1
30.0,-257.0,12.0,121.0,17.0,-15.0,1
30.0,-256.0,11.0,124.0,14.0,-19.0,1
44.0,-255.0,7.0,126.0,14.0,-19.0,1
30.0,-255.0,13.0,129.0,13.0,-21.0,1
32.0,-256.0,12.0,130.0,11.0,-20.0,1
30.0,-256.0,14.0,133.0,11.0,-22.0,1
27.0,-255.0,17.0,136.0,10.0,-23.0,1
29.0,-257.0,15.0,139.0,8.0,-23.0,1
28.0,-257.0,14.0,142.0,8.0,-24.0,1
25.0,-253.0,12.0,143.0,8.0,-23.0,1
27.0,-257.0,18.0,147.0,7.0,-24.0,1
29.0,-257.0,14.0,150.0,7.0,-24.0,1
31.0,-256.0,14.0,150.0,6.0,-25.0,1
28.0,-254.0,18.0,154.0,6.0,-24.0,1
28.0,-255.0,16.0,153.0,4.0,-26.0,1
31.0,-256.0,16.0,154.0,5.0,-25.0,1
29.0,-256.0,19.0,153.0,3.0,-24.0,1
27.0,-255.0,20.0,153.0,3.0,-24.0,1
30.0,-253.0,16.0,153.0,4.0,-25.0,1
28.0,-256.0,16.0,153.0,4.0,-27.0,1
27.0,-254.0,15.0,155.0,6.0,-29.0,1
26.0,-255.0,15.0,157.0,8.0,-29.0,1
26.0,-253.0,16.0,158.0,11.0,-30.0,1
30.0,-254.0,18.0,160.0,13.0,-31.0,1
22.0,-253.0,15.0,160.0,16.0,-33.0,1
28.0,-253.0,18.0,160.0,19.0,-31.0,1
31.0,-255.0,20.0,159.0,20.0,-31.0,1
30.0,-255.0,21.0,160.0,23.0,-32.0,1
28.0,-252.0,19.0,161.0,24.0,-31.0,1
28.0,-251.0,22.0,161.0,24.0,-31.0,1
29.0,-254.0,18.0,161.0,25.0,-30.0,1
31.0,-254.0,23.0,161.0,23.0,-30.0,1
30.0,-256.0,24.0,160.0,21.0,-27.0,1
32.0,-255.0,24.0,159.0,20.0,-26.0,1
31.0,-253.0,20.0,158.0,20.0,-25.0,1
34.0,-254.0,22.0,156.0,18.0,-24.0,1
31.0,-256.0,25.0,152.0,16.0,-23.0,1
30.0,-254.0,24.0,151.0,16.0,-22.0,1
30.0,-252.0,20.0,147.0,14.0,-22.0,1
30.0,-255.0,24.0,143.0,12.0,-23.0,1
31.0,-253.0,19.0,139.0,10.0,-21.0,1
28.0,-252.0,20.0,131.0,9.0,-21.0,1
31.0,-253.0,19.0,123.0,10.0,-20.0,1
31.0,-253.0,20.0,114.0,10.0,-22.0,1
29.0,-254.0,21.0,103.0,10.0,-21.0,1
32.0,-255.0,21.0,93.0,11.0,-23.0,1
29.0,-255.0,24.0,87.0,13.0,-22.0,1
30.0,-253.0,25.0,84.0,13.0,-22.0,1
31.0,-254.0,26.0,87.0,13.0,-24.0,1
30.0,-254.0,28.0,88.0,13.0,-27.0,1
31.0,-255.0,26.0,95.0,14.0,-26.0,1
28.0,-252.0,25.0,101.0,17.0,-29.0,1
28.0,-253.0,28.0,104.0,20.0,-28.0,1
28.0,-252.0,31.0,106.0,25.0,-28.0,1
30.0,-252.0,30.0,106.0,30.0,-27.0,1
29.0,-254.0,28.0,105.0,37.0,-25.0,1
29.0,-251.0,25.0,105.0,42.0,-24.0,1
28.0,-252.0,22.0,101.0,46.0,-23.0,1
30.0,-254.0,25.0,102.0,52.0,-22.0,1
31.0,-254.0,26.0,101.0,56.0,-20.0,1
28.0,-253.0,31.0,103.0,60.0,-17.0,1
31.0,-254.0,28.0,108.0,63.0,-13.0,1
34.0,-255.0,26.0,115.0,65.0,-9.0,1
32.0,-255.0,29.0,120.0,65.0,-4.0,1
29.0,-254.0,28.0,126.0,65.0,1.0,1
31.0,-254.0,31.0,133.0,65.0,6.0,1
33.0,-254.0,32.0,141.0,64.0,12.0,1
33.0,-253.0,35.0,146.0,61.0,18.0,1
34.0,-251.0,29.0,154.0,58.0,20.0,1
33.0,-253.0,28.0,158.0,54.0,25.0,1
34.0,-251.0,35.0,160.0,51.0,28.0,1
35.0,-251.0,29.0,164.0,48.0,30.0,1
36.0,-248.0,31.0,165.0,43.0,34.0,1
32.0,-247.0,32.0,168.0,40.0,36.0,1
33.0,-247.0,29.0,169.0,36.0,37.0,1
36.0,-244.0,34.0,170.0,33.0,39.0,1
32.0,-244.0,28.0,171.0,31.0,38.0,1
35.0,-248.0,28.0,171.0,28.0,38.0,1
28.0,-251.0,26.0,173.0,27.0,40.0,1
33.0,-251.0,33.0,174.0,26.0,39.0,1
33.0,-246.0,30.0,175.0,24.0,38.0,1
34.0,-246.0,32.0,174.0,22.0,39.0,1
31.0,-250.0,31.0,172.0,22.0,39.0,1
34.0,-250.0,33.0,171.0,21.0,39.0,1
31.0,-248.0,34.0,172.0,21.0,39.0,1
31.0,-249.0,33.0,174.0,23.0,39.0,1
36.0,-251.0,37.0,171.0,25.0,41.0,1
32.0,-249.0,36.0,172.0,26.0,41.0,1
32.0,-251.0,36.0,172.0,28.0,41.0,1
31.0,-252.0,34.0,170.0,29.0,41.0,1
32.0,-251.0,37.0,173.0,31.0,42.0,1
32.0,-249.0,39.0,174.0,32.0,41.0,1
33.0,-251.0,39.0,177.0,34.0,43.0,1
30.0,-251.0,40.0,179.0,36.0,44.0,1
32.0,-253.0,38.0,180.0,37.0,44.0,1
30.0,-246.0,37.0,184.0,39.0,44.0,1
31.0,-249.0,43.0,187.0,41.0,46.0,1
33.0,-252.0,39.0,187.0,42.0,47.0,1
33.0,-250.0,36.0,192.0,43.0,47.0,1
30.0,-247.0,38.0,194.0,47.0,47.0,1
30.0,-245.0,45.0,197.0,50.0,49.0,1
31.0,-249.0,43.0,198.0,49.0,50.0,1
27.0,-246.0,45.0,202.0,49.0,52.0,1
29.0,-248.0,44.0,202.0,48.0,52.0,1
27.0,-245.0,41.0,205.0,47.0,51.0,1
26.0,-245.0,42.0,202.0,49.0,54.0,1
27.0,-247.0,46.0,203.0,49.0,53.0,1
28.0,-248.0,47.0,205.0,53.0,54.0,1
22.0,-245.0,44.0,203.0,55.0,55.0,1
27.0,-249.0,46.0,206.0,57.0,56.0,1
28.0,-246.0,37.0,207.0,61.0,58.0,1
26.0,-244.0,44.0,208.0,64.0,59.0,1
26.0,-245.0,46.0,207.0,69.0,59.0,1
26.0,-244.0,47.0,209.0,71.0,61.0,1
27.0,-245.0,53.0,208.0,74.0,64.0,1
26.0,-245.0,53.0,209.0,72.0,64.0,1
24.0,-242.0,49.0,210.0,72.0,66.0,1
23.0,-243.0,50.0,210.0,70.0,68.0,1
23.0,-242.0,48.0,212.0,67.0,69.0,1
23.0,-244.0,49.0,209.0,66.0,70.0,1
27.0,-245.0,56.0,210.0,60.0,70.0,1
24.0,-242.0,54.0,208.0,57.0,71.0,1
23.0,-248.0,55.0,208.0,52.0,71.0,1
25.0,-244.0,55.0,206.0,48.0,70.0,1
24.0,-241.0,52.0,205.0,41.0,67.0,1
21.0,-241.0,56.0,203.0,34.0,65.0,1
23.0,-242.0,57.0,200.0,29.0,62.0,1
25.0,-242.0,51.0,197.0,23.0,59.0,1
23.0,-242.0,53.0,194.0,18.0,55.0,1
22.0,-241.0,59.0,190.0,14.0,53.0,1
22.0,-239.0,56.0,186.0,8.0,49.0,1
23.0,-237.0,57.0,182.0,4.0,46.0,1
21.0,-240.0,58.0,174.0,1.0,40.0,1
24.0,-248.0,59.0,172.0,-1.0,36.0,1
23.0,-242.0,58.0,168.0,-2.0,33.0,1
25.0,-242.0,61.0,165.0,-3.0,28.0,1
22.0,-242.0,56.0,164.0,-4.0,24.0,1
21.0,-242.0,61.0,162.0,-3.0,20.0,1
23.0,-243.0,60.0,164.0,-3.0,19.0,1
23.0,-241.0,60.0,162.0,-3.0,17.0,1
23.0,-240.0,61.0,162.0,-1.0,15.0,1
20.0,-242.0,58.0,162.0,-2.0,15.0,1
25.0,-242.0,61.0,160.0,-2.0,16.0,1
21.0,-243.0,61.0,158.0,-1.0,15.0,1
19.0,-248.0,66.0,154.0,-1.0,15.0,1
23.0,-239.0,63.0,149.0,-2.0,15.0,1
22.0,-238.0,62.0,143.0,0.0,16.0,1
25.0,-241.0,59.0,136.0,1.0,14.0,1
21.0,-240.0,62.0,131.0,1.0,15.0,1
22.0,-241.0,62.0,126.0,3.0,14.0,1
23.0,-237.0,64.0,122.0,2.0,12.0,1
22.0,-238.0,68.0,117.0,2.0,11.0,1
23.0,-238.0,64.0,113.0,2.0,10.0,1
22.0,-241.0,64.0,108.0,2.0,6.0,1
22.0,-237.0,62.0,106.0,2.0,6.0,1
16.0,-228.0,69.0,102.0,4.0,5.0,1
21.0,-236.0,64.0,98.0,6.0,4.0,1
20.0,-234.0,63.0,95.0,8.0,4.0,1
19.0,-240.0,63.0,96.0,10.0,3.0,1
21.0,-236.0,64.0,96.0,12.0,2.0,1
18.0,-236.0,61.0,99.0,15.0,0.0,1
20.0,-240.0,66.0,100.0,16.0,-1.0,1
18.0,-242.0,67.0,101.0,19.0,-3.0,1
17.0,-238.0,62.0,100.0,23.0,-5.0,1
22.0,-240.0,66.0,101.0,23.0,-9.0,1
21.0,-241.0,64.0,101.0,24.0,-11.0,1
21.0,-242.0,68.0,100.0,25.0,-13.0,1
23.0,-237.0,67.0,98.0,26.0,-15.0,1
22.0,-241.0,65.0,92.0,27.0,-18.0,1
23.0,-239.0,64.0,88.0,27.0,-20.0,1
25.0,-238.0,64.0,84.0,27.0,-20.0,1
25.0,-239.0,66.0,80.0,29.0,-21.0,1
24.0,-238.0,68.0,77.0,31.0,-21.0,1
26.0,-241.0,65.0,75.0,32.0,-20.0,1
22.0,-237.0,67.0,74.0,33.0,-20.0,1
24.0,-236.0,64.0,72.0,35.0,-19.0,1
24.0,-237.0,71.0,69.0,37.0,-18.0,1
27.0,-240.0,67.0,69.0,38.0,-16.0,1
25.0,-236.0,67.0,68.0,41.0,-15.0,1
27.0,-238.0,68.0,69.0,43.0,-16.0,1
27.0,-239.0,64.0,69.0,45.0,-15.0,1
27.0,-241.0,63.0,70.0,48.0,-14.0,1
28.0,-239.0,66.0,73.0,50.0,-15.0,1
25.0,-238.0,65.0,71.0,51.0,-15.0,1
25.0,-237.0,66.0,71.0,50.0,-14.0,1
25.0,-236.0,65.0,71.0,50.0,-14.0,1
25.0,-239.0,62.0,71.0,48.0,-13.0,1
23.0,-234.0,69.0,73.0,46.0,-13.0,1
24.0,-235.0,66.0,72.0,44.0,-12.0,1
26.0,-237.0,69.0,73.0,42.0,-12.0,1
25.0,-238.0,66.0,74.0,39.0,-11.0,1
24.0,-235.0,66.0,76.0,35.0,-9.0,1
24.0,-236.0,64.0,75.0,32.0,-10.0,1
23.0,-235.0,66.0,75.0,28.0,-9.0,1
20.0,-237.0,63.0,74.0,25.0,-9.0,1
24.0,-236.0,66.0,72.0,23.0,-8.0,1
23.0,-232.0,65.0,70.0,22.0,-7.0,1
24.0,-237.0,66.0,71.0,22.0,-7.0,1
25.0,-232.0,67.0,70.0,23.0,-5.0,1
24.0,-235.0,67.0,70.0,28.0,-6.0,1
23.0,-237.0,65.0,67.0,32.0,-4.0,1
24.0,-235.0,65.0,66.0,38.0,-6.0,1
25.0,-236.0,67.0,64.0,41.0,-6.0,1
26.0,-238.0,66.0,62.0,47.0,-5.0,1
25.0,-239.0,66.0,60.0,49.0,-6.0,1
22.0,-235.0,68.0,60.0,51.0,-8.0,1
23.0,-242.0,69.0,59.0,52.0,-11.0,1
23.0,-241.0,64.0,61.0,55.0,-14.0,1
23.0,-238.0,65.0,65.0,60.0,-17.0,1
25.0,-243.0,66.0,68.0,63.0,-20.0,1
24.0,-243.0,63.0,75.0,66.0,-23.0,1
24.0,-245.0,66.0,84.0,69.0,-27.0,1
24.0,-243.0,63.0,94.0,70.0,-30.0,1
22.0,-242.0,67.0,110.0,69.0,-33.0,1
23.0,-243.0,66.0,127.0,68.0,-35.0,1
25.0,-242.0,64.0,147.0,67.0,-35.0,1
22.0,-242.0,65.0,164.0,65.0,-35.0,1
20.0,-240.0,64.0,180.0,60.0,-35.0,1
26.0,-236.0,64.0,193.0,57.0,-34.0,1
22.0,-237.0,65.0,204.0,56.0,-33.0,1
26.0,-237.0,67.0,208.0,52.0,-31.0,1
23.0,-239.0,69.0,210.0,50.0,-28.0,1
23.0,-234.0,69.0,208.0,47.0,-24.0,1
24.0,-233.0,73.0,202.0,47.0,-21.0,1
22.0,-233.0,75.0,193.0,44.0,-20.0,1
24.0,-232.0,75.0,182.0,42.0,-17.0,1
25.0,-235.0,76.0,170.0,40.0,-15.0,1
26.0,-234.0,71.0,158.0,36.0,-15.0,1
25.0,-233.0,80.0,147.0,31.0,-14.0,1
21.0,-230.0,80.0,134.0,25.0,-15.0,1
26.0,-232.0,78.0,122.0,17.0,-15.0,1
29.0,-231.0,75.0,107.0,12.0,-17.0,1
25.0,-226.0,78.0,93.0,7.0,-16.0,1
26.0,-227.0,79.0,73.0,7.0,-15.0,1
25.0,-224.0,79.0,54.0,7.0,-17.0,1
24.0,-224.0,82.0,32.0,7.0,-16.0,1
22.0,-221.0,77.0,8.0,4.0,-16.0,1
26.0,-222.0,74.0,-17.0,1.0,-16.0,1
19.0,-219.0,78.0,-42.0,-1.0,-16.0,1
20.0,-224.0,75.0,-69.0,-8.0,-17.0,1
23.0,-222.0,69.0,-88.0,-12.0,-17.0,1
24.0,-222.0,72.0,-108.0,-12.0,-17.0,1
21.0,-221.0,71.0,-128.0,-7.0,-18.0,1
21.0,-225.0,68.0,-146.0,-7.0,-20.0,1
23.0,-229.0,70.0,-164.0,-6.0,-21.0,1
26.0,-228.0,69.0,-180.0,-6.0,-20.0,1
24.0,-228.0,72.0,-192.0,-5.0,-21.0,1
22.0,-232.0,75.0,-201.0,-6.0,-23.0,1
23.0,-233.0,68.0,-209.0,-6.0,-22.0,1
20.0,-238.0,74.0,-211.0,-5.0,-22.0,1
22.0,-238.0,71.0,-211.0,-6.0,-22.0,1
20.0,-241.0,71.0,-211.0,-9.0,-24.0,1
24.0,-240.0,71.0,-212.0,-13.0,-27.0,1
25.0,-238.0,66.0,-216.0,-17.0,-27.0,1
24.0,-240.0,74.0,-221.0,-22.0,-28.0,1
24.0,-242.0,70.0,-225.0,-26.0,-31.0,1
23.0,-243.0,72.0,-227.0,-32.0,-31.0,1
25.0,-243.0,68.0,-225.0,-34.0,-33.0,1
24.0,-243.0,68.0,-219.0,-34.0,-33.0,1
25.0,-246.0,70.0,-205.0,-32.0,-34.0,1
29.0,-247.0,71.0,-184.0,-31.0,-32.0,1
32.0,-250.0,72.0,-157.0,-28.0,-31.0,1
27.0,-244.0,72.0,-132.0,-26.0,-30.0,1
30.0,-247.0,72.0,-105.0,-21.0,-28.0,1
26.0,-242.0,75.0,-85.0,-26.0,-28.0,1
29.0,-243.0,75.0,-72.0,-30.0,-25.0,1
26.0,-239.0,72.0,-66.0,-35.0,-26.0,1
26.0,-236.0,70.0,-68.0,-36.0,-25.0,1
29.0,-235.0,69.0,-74.0,-38.0,-23.0,1
31.0,-234.0,71.0,-80.0,-40.0,-22.0,1
28.0,-231.0,69.0,-83.0,-37.0,-20.0,1
28.0,-233.0,71.0,-84.0,-34.0,-17.0,1
26.0,-230.0,71.0,-84.0,-30.0,-14.0,1
26.0,-230.0,74.0,-82.0,-30.0,-10.0,1
25.0,-229.0,67.0,-77.0,-29.0,-8.0,1
25.0,-229.0,74.0,-72.0,-30.0,-5.0,1
25.0,-231.0,64.0,-66.0,-30.0,-4.0,1
25.0,-230.0,67.0,-61.0,-31.0,-1.0,1
24.0,-229.0,64.0,-57.0,-29.0,-1.0,1
26.0,-229.0,64.0,-54.0,-27.0,-1.0,1
27.0,-232.0,66.0,-51.0,-26.0,-1.0,1
24.0,-230.0,66.0,-46.0,-23.0,-3.0,1
25.0,-233.0,65.0,-38.0,-21.0,-5.0,1
22.0,-234.0,64.0,-29.0,-20.0,-7.0,1
23.0,-239.0,68.0,-14.0,-20.0,-7.0,1
29.0,-241.0,73.0,0.0,-21.0,-9.0,1
25.0,-238.0,65.0,14.0,-21.0,-11.0,1
26.0,-237.0,74.0,28.0,-22.0,-13.0,1
22.0,-237.0,72.0,36.0,-22.0,-16.0,1
28.0,-240.0,70.0,44.0,-21.0,-18.0,1
24.0,-242.0,68.0,52.0,-19.0,-17.0,1
24.0,-237.0,70.0,59.0,-13.0,-17.0,1
24.0,-238.0,66.0,67.0,-7.0,-17.0,1
24.0,-237.0,74.0,75.0,-2.0,-18.0,1
24.0,-236.0,70.0,82.0,4.0,-16.0,1
27.0,-239.0,69.0,88.0,6.0,-16.0,1
29.0,-233.0,69.0,92.0,8.0,-16.0,1
30.0,-235.0,67.0,96.0,12.0,-15.0,1
27.0,-235.0,68.0,104.0,16.0,-14.0,1
28.0,-233.0,69.0,110.0,22.0,-16.0,1
31.0,-237.0,71.0,113.0,25.0,-18.0,1
29.0,-234.0,67.0,116.0,28.0,-16.0,1
26.0,-230.0,71.0,115.0,32.0,-17.0,1
32.0,-231.0,78.0,114.0,36.0,-18.0,1
35.0,-232.0,74.0,111.0,46.0,-19.0,1
37.0,-229.0,74.0,105.0,57.0,-22.0,1
37.0,-229.0,75.0,98.0,69.0,-23.0,1
40.0,-227.0,75.0,94.0,80.0,-24.0,1
34.0,-225.0,73.0,90.0,88.0,-25.0,1
36.0,-226.0,77.0,86.0,96.0,-27.0,1
37.0,-224.0,77.0,79.0,102.0,-27.0,1
37.0,-226.0,74.0,71.0,107.0,-29.0,1
33.0,-227.0,74.0,59.0,113.0,-31.0,1
34.0,-229.0,74.0,49.0,116.0,-32.0,1
28.0,-229.0,77.0,39.0,118.0,-36.0,1
26.0,-232.0,82.0,31.0,118.0,-36.0,1
26.0,-232.0,80.0,27.0,117.0,-36.0,1
27.0,-233.0,83.0,26.0,114.0,-38.0,1
23.0,-237.0,84.0,24.0,111.0,-40.0,1
24.0,-234.0,79.0,27.0,108.0,-39.0,1
19.0,-235.0,80.0,27.0,103.0,-38.0,1
16.0,-234.0,80.0,33.0,95.0,-34.0,1
21.0,-235.0,79.0,39.0,86.0,-31.0,1
16.0,-234.0,76.0,48.0,78.0,-27.0,1
13.0,-230.0,71.0,57.0,73.0,-22.0,1
14.0,-235.0,71.0,64.0,64.0,-17.0,1
14.0,-232.0,76.0,71.0,48.0,-13.0,1
19.0,-229.0,76.0,75.0,33.0,-9.0,1
16.0,-233.0,72.0,80.0,21.0,-7.0,1
18.0,-233.0,71.0,85.0,13.0,-3.0,1
15.0,-235.0,76.0,92.0,8.0,-2.0,1
18.0,-231.0,78.0,100.0,0.0,-1.0,1
18.0,-233.0,75.0,108.0,-6.0,-2.0,1
20.0,-230.0,80.0,113.0,-9.0,-2.0,1
21.0,-231.0,80.0,118.0,-13.0,-2.0,1
25.0,-231.0,78.0,124.0,-12.0,-2.0,1
27.0,-231.0,75.0,128.0,-10.0,-2.0,1
27.0,-232.0,75.0,133.0,-5.0,-2.0,1
26.0,-230.0,77.0,138.0,-1.0,-4.0,1
25.0,-229.0,77.0,141.0,1.0,-4.0,1
35.0,-226.0,75.0,143.0,3.0,-6.0,1
27.0,-229.0,82.0,142.0,3.0,-8.0,1
28.0,-230.0,79.0,139.0,6.0,-10.0,1
31.0,-225.0,76.0,136.0,14.0,-9.0,1
30.0,-227.0,78.0,133.0,22.0,-12.0,1
32.0,-225.0,74.0,133.0,29.0,-13.0,1
28.0,-225.0,77.0,130.0,39.0,-14.0,1
29.0,-227.0,78.0,125.0,42.0,-14.0,1
31.0,-224.0,82.0,122.0,43.0,-16.0,1
32.0,-227.0,74.0,117.0,43.0,-18.0,1
29.0,-226.0,79.0,112.0,45.0,-22.0,1
27.0,-223.0,76.0,107.0,45.0,-22.0,1
28.0,-225.0,81.0,101.0,44.0,-24.0,1
29.0,-225.0,76.0,98.0,44.0,-27.0,1
28.0,-228.0,79.0,95.0,47.0,-29.0,1
27.0,-225.0,80.0,93.0,49.0,-32.0,1
28.0,-229.0,76.0,94.0,54.0,-32.0,1
24.0,-226.0,79.0,95.0,57.0,-33.0,1
27.0,-230.0,77.0,96.0,60.0,-35.0,1
29.0,-225.0,80.0,97.0,62.0,-36.0,1
27.0,-230.0,77.0,96.0,65.0,-37.0,1
29.0,-227.0,78.0,94.0,66.0,-35.0,1
29.0,-231.0,82.0,95.0,66.0,-34.0,1
29.0,-229.0,77.0,97.0,66.0,-34.0,1
27.0,-229.0,81.0,101.0,65.0,-35.0,1
30.0,-231.0,83.0,104.0,65.0,-38.0,1
31.0,-234.0,82.0,109.0,68.0,-39.0,1
30.0,-230.0,87.0,113.0,71.0,-40.0,1
34.0,-231.0,88.0,119.0,75.0,-43.0,1
31.0,-229.0,88.0,125.0,78.0,-44.0,1
31.0,-231.0,88.0,130.0,82.0,-47.0,1
31.0,-230.0,87.0,133.0,86.0,-48.0,1
33.0,-225.0,87.0,135.0,92.0,-49.0,1
35.0,-229.0,84.0,135.0,96.0,-50.0,1
32.0,-226.0,91.0,136.0,100.0,-49.0,1
29.0,-226.0,92.0,138.0,104.0,-51.0,1
26.0,-226.0,92.0,137.0,105.0,-51.0,1
29.0,-227.0,90.0,139.0,105.0,-53.0,1
25.0,-225.0,88.0,139.0,105.0,-53.0,1
28.0,-227.0,94.0,142.0,104.0,-54.0,1
26.0,-223.0,93.0,142.0,101.0,-57.0,1
28.0,-228.0,94.0,144.0,99.0,-57.0,1
24.0,-225.0,89.0,146.0,97.0,-60.0,1
26.0,-223.0,94.0,148.0,96.0,-59.0,1
22.0,-224.0,92.0,150.0,95.0,-60.0,1
24.0,-223.0,90.0,151.0,96.0,-58.0,1
25.0,-225.0,90.0,148.0,96.0,-57.0,1
24.0,-223.0,94.0,147.0,94.0,-57.0,1
26.0,-225.0,90.0,148.0,92.0,-53.0,1
25.0,-225.0,91.0,148.0,90.0,-53.0,1
24.0,-227.0,93.0,148.0,86.0,-51.0,1
22.0,-227.0,92.0,153.0,82.0,-51.0,1
23.0,-224.0,94.0,155.0,79.0,-51.0,1
24.0,-222.0,94.0,160.0,74.0,-50.0,1
22.0,-214.0,95.0,163.0,68.0,-51.0,1
22.0,-223.0,91.0,167.0,65.0,-50.0,1
23.0,-219.0,95.0,169.0,63.0,-52.0,1
21.0,-217.0,95.0,171.0,61.0,-53.0,1
22.0,-222.0,94.0,171.0,59.0,-54.0,1
22.0,-218.0,95.0,172.0,58.0,-55.0,1
21.0,-218.0,95.0,173.0,58.0,-56.0,1
27.0,-219.0,94.0,170.0,56.0,-56.0,1
23.0,-218.0,97.0,169.0,54.0,-57.0,1
22.0,-222.0,98.0,169.0,52.0,-57.0,1
26.0,-222.0,96.0,165.0,50.0,-59.0,1
25.0,-216.0,96.0,164.0,51.0,-59.0,1
23.0,-222.0,94.0,165.0,50.0,-60.0,1
29.0,-224.0,94.0,163.0,49.0,-61.0,1
26.0,-223.0,96.0,164.0,48.0,-62.0,1
24.0,-222.0,97.0,167.0,48.0,-62.0,1
25.0,-221.0,96.0,169.0,47.0,-63.0,1
24.0,-224.0,97.0,172.0,46.0,-64.0,1
28.0,-220.0,100.0,175.0,49.0,-65.0,1
27.0,-222.0,97.0,178.0,50.0,-64.0,1
24.0,-223.0,93.0,182.0,50.0,-66.0,1
25.0,-219.0,96.0,187.0,50.0,-67.0,1
23.0,-218.0,104.0,192.0,52.0,-68.0,1
26.0,-222.0,95.0,195.0,51.0,-67.0,1
25.0,-221.0,99.0,198.0,49.0,-66.0,1
26.0,-220.0,99.0,202.0,46.0,-65.0,1
28.0,-219.0,99.0,205.0,46.0,-64.0,1
28.0,-222.0,96.0,204.0,49.0,-64.0,1
29.0,-220.0,97.0,208.0,50.0,-64.0,1
33.0,-223.0,93.0,212.0,53.0,-64.0,1
31.0,-223.0,99.0,212.0,53.0,-64.0,1
33.0,-225.0,104.0,216.0,57.0,-67.0,1
32.0,-223.0,105.0,221.0,59.0,-67.0,1
38.0,-227.0,103.0,228.0,64.0,-66.0,1
36.0,-227.0,103.0,233.0,72.0,-68.0,1
39.0,-225.0,99.0,239.0,78.0,-67.0,1
40.0,-229.0,100.0,241.0,87.0,-65.0,1
42.0,-225.0,104.0,247.0,96.0,-65.0,1
43.0,-228.0,102.0,255.0,109.0,-63.0,1
44.0,-230.0,101.0,264.0,122.0,-60.0,1
44.0,-227.0,104.0,275.0,137.0,-57.0,1
45.0,-225.0,102.0,285.0,151.0,-58.0,1
41.0,-226.0,100.0,296.0,163.0,-60.0,1
41.0,-223.0,106.0,308.0,173.0,-63.0,1
38.0,-216.0,103.0,317.0,181.0,-68.0,1
33.0,-215.0,107.0,327.0,187.0,-72.0,1
32.0,-213.0,104.0,336.0,188.0,-75.0,1
26.0,-211.0,105.0,346.0,190.0,-80.0,1
24.0,-205.0,103.0,354.0,191.0,-82.0,1
19.0,-200.0,104.0,359.0,190.0,-84.0,1
22.0,-199.0,107.0,362.0,192.0,-85.0,1
22.0,-196.0,94.0,359.0,196.0,-83.0,1
22.0,-198.0,99.0,354.0,205.0,-83.0,1
22.0,-199.0,99.0,349.0,206.0,-87.0,1
19.0,-197.0,93.0,340.0,203.0,-89.0,1
18.0,-201.0,97.0,334.0,194.0,-91.0,1
17.0,-204.0,91.0,332.0,181.0,-95.0,1
20.0,-205.0,96.0,331.0,166.0,-97.0,1
17.0,-208.0,100.0,336.0,151.0,-95.0,1
19.0,-212.0,101.0,341.0,142.0,-93.0,1
17.0,-212.0,100.0,348.0,134.0,-90.0,1
16.0,-213.0,99.0,359.0,126.0,-86.0,1
15.0,-214.0,104.0,370.0,118.0,-84.0,1
17.0,-213.0,105.0,383.0,111.0,-81.0,1
20.0,-207.0,110.0,392.0,103.0,-78.0,1
18.0,-208.0,108.0,399.0,98.0,-75.0,1
24.0,-210.0,106.0,404.0,95.0,-75.0,1
22.0,-208.0,108.0,410.0,94.0,-75.0,1
22.0,-204.0,108.0,413.0,91.0,-79.0,1
23.0,-203.0,112.0,417.0,93.0,-75.0,1
23.0,-203.0,112.0,418.0,96.0,-72.0,1
26.0,-204.0,114.0,422.0,98.0,-72.0,1
25.0,-201.0,116.0,424.0,101.0,-72.0,1
25.0,-200.0,113.0,429.0,102.0,-72.0,1
30.0,-204.0,117.0,433.0,100.0,-73.0,1
27.0,-196.0,110.0,443.0,100.0,-88.0,1
22.0,-200.0,113.0,451.0,116.0,-83.0,1
24.0,-200.0,123.0,460.0,124.0,-60.0,1
26.0,-202.0,125.0,471.0,116.0,-49.0,1
27.0,-202.0,124.0,477.0,105.0,-41.0,1
26.0,-202.0,124.0,485.0,102.0,-35.0,1
29.0,-202.0,122.0,495.0,102.0,-30.0,1
38.0,-203.0,128.0,505.0,106.0,-27.0,1
28.0,-198.0,126.0,517.0,101.0,-50.0,1
21.0,-192.0,131.0,527.0,117.0,-42.0,1
24.0,-195.0,129.0,535.0,120.0,-19.0,1
24.0,-196.0,129.0,539.0,104.0,-15.0,1
25.0,-189.0,130.0,541.0,91.0,-13.0,1
30.0,-188.0,134.0,543.0,87.0,-14.0,1
31.0,-186.0,135.0,542.0,78.0,-33.0,1
17.0,-181.0,130.0,543.0,84.0,-45.0,1
22.0,-184.0,136.0,544.0,91.0,-18.0,1
22.0,-181.0,137.0,544.0,80.0,-7.0,1
25.0,-183.0,138.0,541.0,64.0,-2.0,1
30.0,-180.0,137.0,536.0,48.0,-8.0,1
20.0,-180.0,131.0,531.0,43.0,-28.0,1
16.0,-180.0,135.0,528.0,49.0,-10.0,1
20.0,-181.0,139.0,524.0,42.0,8.0,1
20.0,-188.0,137.0,520.0,27.0,15.0,1
21.0,-185.0,141.0,524.0,14.0,18.0,1
22.0,-184.0,139.0,526.0,-4.0,3.0,1
20.0,-184.0,139.0,530.0,-8.0,3.0,1
21.0,-189.0,143.0,537.0,-15.0,23.0,1
20.0,-189.0,139.0,544.0,-39.0,37.0,1
23.0,-188.0,137.0,550.0,-57.0,45.0,1
41.0,-194.0,133.0,555.0,-68.0,49.0,1
17.0,-184.0,134.0,562.0,-80.0,27.0,1
19.0,-182.0,138.0,567.0,-75.0,35.0,1
17.0,-178.0,141.0,572.0,-76.0,54.0,1
23.0,-182.0,138.0,575.0,-89.0,64.0,1
24.0,-178.0,135.0,573.0,-100.0,60.0,1
19.0,-177.0,134.0,567.0,-101.0,44.0,1
22.0,-175.0,135.0,566.0,-94.0,62.0,1
21.0,-173.0,135.0,563.0,-98.0,74.0,1
27.0,-177.0,131.0,561.0,-106.0,78.0,1
21.0,-177.0,133.0,557.0,-106.0,70.0,1
19.0,-178.0,140.0,558.0,-98.0,80.0,1
19.0,-180.0,135.0,560.0,-98.0,94.0,1
23.0,-178.0,138.0,565.0,-109.0,101.0,1
27.0,-183.0,137.0,574.0,-119.0,105.0,1
29.0,-181.0,140.0,580.0,-126.0,96.0,1
19.0,-178.0,138.0,589.0,-124.0,84.0,1
24.0,-178.0,141.0,598.0,-120.0,99.0,1
27.0,-175.0,140.0,602.0,-128.0,103.0,1
27.0,-175.0,141.0,608.0,-130.0,105.0,1
29.0,-176.0,139.0,615.0,-124.0,103.0,1
30.0,-174.0,139.0,620.0,-119.0,100.0,1
29.0,-172.0,137.0,623.0,-118.0,87.0,1
24.0,-168.0,140.0,624.0,-109.0,67.0,1
28.0,-167.0,138.0,624.0,-92.0,83.0,1
30.0,-163.0,140.0,624.0,-94.0,91.0,1
31.0,-165.0,144.0,623.0,-97.0,90.0,1
34.0,-161.0,142.0,620.0,-95.0,89.0,1
30.0,-162.0,144.0,620.0,-91.0,87.0,1
51.0,-165.0,144.0,620.0,-92.0,81.0,1
28.0,-159.0,145.0,622.0,-94.0,50.0,1
30.0,-163.0,145.0,625.0,-79.0,59.0,1
31.0,-163.0,146.0,627.0,-71.0,71.0,1
33.0,-159.0,148.0,625.0,-71.0,74.0,1
31.0,-160.0,149.0,628.0,-71.0,75.0,1
37.0,-166.0,145.0,633.0,-66.0,74.0,1
33.0,-163.0,146.0,639.0,-62.0,73.0,1
39.0,-164.0,145.0,643.0,-58.0,64.0,1
25.0,-159.0,147.0,644.0,-50.0,39.0,1
26.0,-160.0,147.0,649.0,-37.0,55.0,1
29.0,-157.0,146.0,657.0,-36.0,64.0,1
32.0,-155.0,149.0,661.0,-38.0,65.0,1
29.0,-150.0,150.0,663.0,-34.0,64.0,1
31.0,-154.0,150.0,665.0,-28.0,61.0,1
34.0,-152.0,153.0,667.0,-27.0,58.0,1
35.0,-149.0,154.0,668.0,-27.0,42.0,1
30.0,-150.0,157.0,670.0,-15.0,22.0,1
33.0,-149.0,158.0,675.0,-2.0,36.0,1
33.0,-146.0,149.0,680.0,0.0,44.0,1
39.0,-145.0,158.0,689.0,-2.0,45.0,1
37.0,-143.0,158.0,696.0,5.0,40.0,1
32.0,-141.0,161.0,701.0,12.0,35.0,1
36.0,-147.0,158.0,708.0,14.0,36.0,1
37.0,-144.0,159.0,711.0,16.0,28.0,1
34.0,-145.0,156.0,712.0,29.0,21.0,1
39.0,-146.0,156.0,715.0,36.0,10.0,1
23.0,-138.0,153.0,718.0,38.0,-30.0,1
26.0,-141.0,158.0,723.0,58.0,-10.0,1
23.0,-140.0,156.0,731.0,59.0,4.0,1
28.0,-140.0,166.0,736.0,51.0,5.0,1
24.0,-136.0,159.0,744.0,45.0,-8.0,1
25.0,-134.0,163.0,745.0,50.0,-7.0,1
22.0,-133.0,163.0,745.0,54.0,0.0,1
23.0,-132.0,163.0,754.0,46.0,7.0,1
30.0,-132.0,162.0,769.0,36.0,17.0,1
36.0,-131.0,165.0,787.0,26.0,12.0,1
32.0,-128.0,174.0,804.0,37.0,13.0,1
31.0,-127.0,172.0,815.0,52.0,10.0,1
27.0,-124.0,169.0,824.0,59.0,7.0,1
24.0,-126.0,169.0,833.0,70.0,2.0,1
27.0,-125.0,175.0,837.0,73.0,-3.0,1
24.0,-124.0,173.0,840.0,68.0,-3.0,1
33.0,-127.0,174.0,844.0,60.0,-13.0,1
16.0,-123.0,168.0,853.0,57.0,-51.0,1
24.0,-126.0,173.0,873.0,74.0,-30.0,1
24.0,-125.0,175.0,892.0,74.0,-14.0,1
25.0,-124.0,174.0,905.0,70.0,-7.0,1
24.0,-124.0,175.0,917.0,68.0,-6.0,1
29.0,-124.0,171.0,930.0,68.0,-6.0,1
27.0,-122.0,173.0,948.0,67.0,-7.0,1
30.0,-118.0,175.0,964.0,68.0,-4.0,1
32.0,-119.0,174.0,983.0,67.0,-17.0,1
17.0,-114.0,169.0,1002.0,80.0,-29.0,1
23.0,-117.0,169.0,1018.0,94.0,-6.0,1
29.0,-116.0,172.0,1040.0,88.0,9.0,1
32.0,-112.0,170.0,1065.0,82.0,12.0,1
31.0,-106.0,165.0,1093.0,88.0,14.0,1
33.0,-104.0,167.0,1112.0,103.0,14.0,1
30.0,-103.0,169.0,1128.0,121.0,10.0,1
30.0,-104.0,167.0,1140.0,129.0,5.0,1
31.0,-103.0,171.0,1153.0,129.0,0.0,1
30.0,-109.0,167.0,1172.0,128.0,-24.0,1
27.0,-100.0,165.0,1194.0,145.0,-38.0,1
33.0,-101.0,168.0,1216.0,163.0,-16.0,1
32.0,-100.0,173.0,1237.0,165.0,-5.0,1
33.0,-102.0,166.0,1258.0,169.0,3.0,1
33.0,-100.0,171.0,1278.0,172.0,8.0,1
35.0,-95.0,169.0,1309.0,175.0,9.0,1
39.0,-93.0,170.0,1331.0,179.0,-1.0,1
26.0,-89.0,165.0,1347.0,189.0,-22.0,1
29.0,-86.0,164.0,1358.0,207.0,-4.0,1
37.0,-85.0,159.0,1371.0,211.0,-5.0,1
33.0,-80.0,166.0,1385.0,211.0,-16.0,1
28.0,-83.0,159.0,1399.0,221.0,-15.0,1
27.0,-78.0,155.0,1415.0,231.0,-3.0,1
27.0,-75.0,159.0,1432.0,230.0,4.0,1
26.0,-72.0,153.0,1444.0,228.0,13.0,1
26.0,-71.0,157.0,1461.0,229.0,19.0,1
29.0,-72.0,151.0,1483.0,228.0,20.0,1
23.0,-66.0,150.0,1508.0,229.0,22.0,1
24.0,-64.0,151.0,1537.0,232.0,22.0,1
31.0,-65.0,157.0,1559.0,237.0,17.0,1
14.0,-57.0,151.0,1585.0,240.0,-7.0,1
19.0,-58.0,143.0,1603.0,248.0,8.0,1
25.0,-57.0,151.0,1614.0,246.0,15.0,1
13.0,-52.0,148.0,1624.0,241.0,2.0,1
15.0,-48.0,144.0,1637.0,236.0,2.0,1
18.0,-43.0,140.0,1647.0,225.0,9.0,1
21.0,-37.0,135.0,1656.0,220.0,16.0,1
21.0,-37.0,133.0,1661.0,222.0,24.0,1
23.0,-30.0,126.0,1662.0,220.0,27.0,1
30.0,-30.0,122.0,1658.0,221.0,35.0,1
31.0,-30.0,120.0,1647.0,223.0,39.0,1
29.0,-30.0,114.0,1634.0,228.0,42.0,1
19.0,-34.0,110.0,1624.0,240.0,38.0,1
24.0,-33.0,113.0,1618.0,248.0,33.0,1
16.0,-34.0,108.0,1616.0,243.0,20.0,1
17.0,-35.0,95.0,1628.0,233.0,21.0,1
14.0,-31.0,80.0,1645.0,224.0,17.0,1
22.0,-30.0,69.0,1654.0,220.0,14.0,1
30.0,-24.0,57.0,1669.0,219.0,11.0,1
24.0,-18.0,48.0,1674.0,239.0,8.0,1
25.0,-15.0,41.0,1657.0,271.0,7.0,1
23.0,-15.0,47.0,1637.0,290.0,6.0,1
29.0,-20.0,37.0,1626.0,304.0,1.0,1
31.0,-15.0,37.0,1627.0,318.0,-4.0,1
28.0,-11.0,21.0,1631.0,347.0,-7.0,1
34.0,2.0,17.0,1631.0,378.0,-14.0,1
42.0,9.0,10.0,1607.0,409.0,-24.0,1
45.0,27.0,10.0,1547.0,447.0,-36.0,1
42.0,33.0,16.0,1460.0,494.0,-47.0,1
44.0,42.0,26.0,1354.0,552.0,-68.0,1
48.0,50.0,39.0,1223.0,574.0,-83.0,1
69.0,59.0,39.0,1085.0,580.0,-94.0,1
50.0,54.0,28.0,960.0,608.0,-93.0,1
1.0,59.0,34.0,846.0,731.0,-108.0,1
-34.0,74.0,60.0,721.0,854.0,-143.0,1
-33.0,76.0,95.0,537.0,798.0,-165.0,1
-23.0,88.0,103.0,358.0,623.0,-170.0,1
-16.0,87.0,76.0,271.0,491.0,-156.0,1
-33.0,105.0,65.0,221.0,466.0,-138.0,1
25.0,140.0,104.0,162.0,496.0,-90.0,1
69.0,145.0,115.0,72.0,458.0,64.0,1
64.0,176.0,62.0,71.0,556.0,58.0,1
23.0,158.0,97.0,0.0,753.0,95.0,1
-78.0,77.0,121.0,-172.0,994.0,129.0,1
-159.0,20.0,127.0,-225.0,999.0,48.0,1
-115.0,-38.0,161.0,-238.0,759.0,-72.0,1
-18.0,-49.0,190.0,-167.0,445.0,-168.0,1
42.0,-44.0,219.0,5.0,236.0,-276.0,1
59.0,-3.0,258.0,134.0,222.0,-473.0,1
88.0,68.0,313.0,156.0,285.0,-668.0,1
155.0,142.0,353.0,19.0,321.0,-754.0,1
91.0,225.0,461.0,-299.0,422.0,-653.0,1
-78.0,330.0,644.0,-642.0,718.0,-581.0,1
-215.0,416.0,828.0,-840.0,860.0,-507.0,1
-206.0,465.0,902.0,-840.0,591.0,-309.0,1
-116.0,463.0,881.0,-792.0,107.0,-98.0,1
-78.0,466.0,862.0,-885.0,-135.0,-50.0,1
-119.0,471.0,885.0,-1087.0,-18.0,-43.0,1
-260.0,510.0,914.0,-1342.0,236.0,-116.0,1
-421.0,523.0,958.0,-1660.0,453.0,-184.0,1
-495.0,446.0,939.0,-1995.0,468.0,-140.0,1
-525.0,309.0,844.0,-2198.0,249.0,-76.0,1
-460.0,183.0,705.0,-2246.0,44.0,-12.0,1
-310.0,67.0,550.0,-2175.0,-86.0,80.0,1
-159.0,-35.0,386.0,-1997.0,-160.0,153.0,1
-33.0,-120.0,242.0,-1743.0,-58.0,196.0,1
41.0,-191.0,144.0,-1458.0,188.0,210.0,1
68.0,-251.0,96.0,-1166.0,432.0,200.0,1
72.0,-302.0,108.0,-876.0,571.0,181.0,1
74.0,-339.0,146.0,-592.0,579.0,163.0,1
88.0,-362.0,194.0,-316.0,479.0,141.0,1
106.0,-366.0,219.0,-51.0,319.0,120.0,1
111.0,-356.0,222.0,206.0,163.0,109.0,1
113.0,-325.0,205.0,438.0,51.0,117.0,1
98.0,-276.0,193.0,643.0,-38.0,132.0,1
72.0,-220.0,168.0,812.0,-146.0,147.0,1
56.0,-153.0,154.0,964.0,-272.0,157.0,1
48.0,-89.0,127.0,1127.0,-397.0,150.0,1
51.0,-11.0,104.0,1280.0,-501.0,127.0,1
58.0,62.0,95.0,1365.0,-502.0,103.0,1
70.0,126.0,88.0,1352.0,-390.0,88.0,1
78.0,189.0,85.0,1252.0,-209.0,69.0,1
75.0,236.0,80.0,1099.0,-5.0,36.0,1
62.0,271.0,75.0,919.0,208.0,-4.0,1
47.0,289.0,74.0,736.0,383.0,-37.0,1
42.0,289.0,69.0,557.0,479.0,-64.0,1
35.0,287.0,61.0,374.0,506.0,-101.0,1
25.0,279.0,55.0,178.0,519.0,-156.0,1
17.0,263.0,59.0,-33.0,531.0,-213.0,1
5.0,246.0,64.0,-256.0,541.0,-269.0,1
-3.0,226.0,74.0,-480.0,547.0,-311.0,1
-14.0,201.0,90.0,-690.0,549.0,-340.0,1
-26.0,175.0,105.0,-877.0,550.0,-357.0,1
-40.0,148.0,125.0,-1052.0,534.0,-362.0,1
-55.0,126.0,138.0,-1212.0,490.0,-359.0,1
-69.0,101.0,141.0,-1349.0,410.0,-347.0,1
-76.0,73.0,153.0,-1462.0,311.0,-331.0,1
-83.0,53.0,164.0,-1544.0,208.0,-310.0,1
-82.0,23.0,179.0,-1580.0,110.0,-288.0,1
-87.0,2.0,183.0,-1570.0,30.0,-268.0,1
-100.0,-12.0,197.0,-1506.0,-33.0,-249.0,1
-117.0,-14.0,220.0,-1396.0,-64.0,-228.0,1
-116.0,-14.0,242.0,-1273.0,-91.0,-194.0,1
-122.0,-9.0,259.0,-1156.0,-125.0,-166.0,1
-125.0,-2.0,287.0,-1046.0,-155.0,-144.0,1
-124.0,4.0,302.0,-926.0,-178.0,-117.0,1
-118.0,9.0,314.0,-804.0,-195.0,-89.0,1
-109.0,14.0,329.0,-674.0,-213.0,-67.0,1
-98.0,27.0,335.0,-540.0,-229.0,-49.0,1
-96.0,31.0,322.0,-406.0,-232.0,-37.0,1
-89.0,50.0,324.0,-276.0,-225.0,-45.0,1
-76.0,62.0,317.0,-166.0,-219.0,-31.0,1
-62.0,71.0,307.0,-84.0,-213.0,-15.0,1
-54.0,85.0,295.0,-26.0,-211.0,-12.0,1
-37.0,96.0,269.0,9.0,-200.0,-6.0,1
-20.0,110.0,258.0,12.0,-180.0,7.0,1
-5.0,125.0,245.0,-6.0,-154.0,25.0,1
7.0,127.0,228.0,-42.0,-130.0,41.0,1
14.0,130.0,206.0,-99.0,-104.0,33.0,1
15.0,133.0,185.0,-164.0,-91.0,2.0,1
12.0,144.0,162.0,-249.0,-96.0,-37.0,1
7.0,128.0,139.0,-356.0,-103.0,-73.0,1
11.0,121.0,126.0,-487.0,-94.0,-88.0,1
25.0,101.0,130.0,-638.0,-57.0,-83.0,1
36.0,73.0,125.0,-784.0,8.0,-74.0,1
36.0,40.0,125.0,-894.0,100.0,-76.0,1
19.0,5.0,130.0,-964.0,211.0,-92.0,1
-5.0,-27.0,152.0,-995.0,321.0,-116.0,1
-26.0,-58.0,176.0,-980.0,376.0,-133.0,1
-41.0,-81.0,198.0,-916.0,344.0,-139.0,1
-53.0,-103.0,218.0,-803.0,247.0,-137.0,1
-59.0,-111.0,230.0,-631.0,129.0,-127.0,1
-66.0,-123.0,238.0,-412.0,23.0,-99.0,1
-69.0,-123.0,243.0,-166.0,-48.0,-59.0,1
-74.0,-118.0,247.0,101.0,-88.0,-14.0,1
-72.0,-103.0,250.0,363.0,-111.0,25.0,1
-75.0,-85.0,240.0,595.0,-130.0,53.0,1
-75.0,-64.0,225.0,777.0,-142.0,74.0,1
-75.0,-44.0,213.0,901.0,-153.0,89.0,1
-74.0,-26.0,204.0,970.0,-169.0,96.0,1
-65.0,-14.0,193.0,991.0,-192.0,96.0,1
-56.0,-5.0,191.0,969.0,-215.0,93.0,1
-48.0,9.0,191.0,917.0,-232.0,84.0,1
-34.0,9.0,187.0,856.0,-239.0,78.0,1
-25.0,17.0,184.0,789.0,-230.0,71.0,1
-20.0,22.0,187.0,722.0,-207.0,63.0,1
-18.0,27.0,193.0,659.0,-174.0,55.0,1
-16.0,34.0,197.0,601.0,-146.0,47.0,1
-16.0,44.0,200.0,543.0,-119.0,40.0,1
-16.0,50.0,199.0,485.0,-97.0,30.0,1
-14.0,57.0,198.0,420.0,-81.0,24.0,1
-17.0,64.0,198.0,346.0,-66.0,17.0,1
-20.0,72.0,198.0,254.0,-51.0,12.0,1
-17.0,72.0,197.0,149.0,-36.0,7.0,1
-21.0,80.0,195.0,37.0,-25.0,-1.0,1
-17.0,77.0,191.0,-84.0,-15.0,-6.0,1
-18.0,76.0,193.0,-209.0,-6.0,-10.0,1
-23.0,72.0,195.0,-332.0,3.0,-11.0,1
-21.0,67.0,192.0,-446.0,14.0,-12.0,1
-25.0,60.0,200.0,-546.0,20.0,-12.0,1
-25.0,54.0,200.0,-631.0,21.0,-17.0,1
-27.0,47.0,204.0,-690.0,17.0,-37.0,1
-25.0,36.0,207.0,-733.0,12.0,-40.0,1
-18.0,26.0,210.0,-761.0,10.0,-42.0,1
-18.0,14.0,212.0,-770.0,4.0,-51.0,1
-17.0,8.0,217.0,-765.0,-5.0,-61.0,1
-16.0,0.0,217.0,-744.0,-15.0,-69.0,1
-19.0,-9.0,219.0,-714.0,-16.0,-75.0,1
-20.0,-17.0,220.0,-671.0,-16.0,-81.0,1
-20.0,-26.0,226.0,-620.0,-12.0,-77.0,1
-21.0,-33.0,227.0,-555.0,-4.0,-68.0,1
-21.0,-38.0,235.0,-484.0,4.0,-57.0,1
-19.0,-45.0,232.0,-405.0,12.0,-41.0,1
-19.0,-54.0,239.0,-324.0,19.0,-24.0,1
-20.0,-56.0,231.0,-244.0,22.0,-7.0,1
-25.0,-54.0,233.0,-164.0,22.0,12.0,1
-28.0,-54.0,231.0,-84.0,16.0,28.0,1
-30.0,-52.0,225.0,-1.0,2.0,38.0,1
-28.0,-51.0,226.0,80.0,-19.0,42.0,1
-25.0,-42.0,219.0,152.0,-45.0,38.0,1
-25.0,-36.0,213.0,210.0,-70.0,30.0,1
-21.0,-28.0,210.0,249.0,-88.0,24.0,1
-12.0,-23.0,204.0,270.0,-101.0,18.0,1
-16.0,-16.0,204.0,272.0,-107.0,9.0,1
-16.0,-12.0,201.0,264.0,-90.0,0.0,1
-19.0,-9.0,206.0,248.0,-81.0,-6.0,1
-17.0,-7.0,203.0,233.0,-83.0,-11.0,1
-15.0,-3.0,204.0,211.0,-83.0,-13.0,1
-14.0,-1.0,200.0,189.0,-79.0,-16.0,1
-14.0,0.0,202.0,168.0,-77.0,-18.0,1
-14.0,0.0,200.0,150.0,-77.0,-18.0,1
-13.0,0.0,201.0,135.0,-78.0,-19.0,1
-14.0,4.0,198.0,118.0,-80.0,-19.0,1
-12.0,2.0,198.0,101.0,-80.0,-20.0,1
-12.0,2.0,198.0,84.0,-75.0,-18.0,1
-14.0,2.0,192.0,61.0,-68.0,-17.0,1
-11.0,3.0,193.0,38.0,-60.0,-15.0,1
-8.0,4.0,190.0,11.0,-47.0,-11.0,1
-16.0,7.0,193.0,-19.0,-32.0,-7.0,1
-11.0,3.0,192.0,-44.0,-17.0,-3.0,1
-14.0,1.0,200.0,-65.0,-3.0,1.0,1
-19.0,1.0,200.0,-79.0,7.0,7.0,1
-14.0,1.0,203.0,-86.0,15.0,10.0,1
-16.0,3.0,202.0,-89.0,22.0,13.0,1
-17.0,0.0,205.0,-89.0,26.0,16.0,1
-18.0,1.0,203.0,-88.0,30.0,20.0,1
-18.0,2.0,205.0,-81.0,30.0,21.0,1
-22.0,2.0,210.0,-76.0,29.0,22.0,1
-18.0,1.0,211.0,-71.0,29.0,22.0,1
-16.0,1.0,209.0,-64.0,30.0,22.0,1
-21.0,5.0,206.0,-59.0,32.0,20.0,1
-20.0,3.0,210.0,-55.0,31.0,18.0,1
-19.0,2.0,214.0,-50.0,28.0,15.0,1
-19.0,0.0,212.0,-48.0,24.0,12.0,1
-19.0,3.0,216.0,-47.0,22.0,8.0,1
-22.0,2.0,218.0,-47.0,16.0,3.0,1
-20.0,0.0,216.0,-46.0,12.0,-3.0,1
-16.0,0.0,220.0,-43.0,7.0,-9.0,1
-21.0,-2.0,217.0,-35.0,2.0,-12.0,1
-21.0,-1.0,215.0,-24.0,-2.0,-15.0,1
-19.0,0.0,217.0,-13.0,-3.0,-18.0,1
-18.0,1.0,213.0,-1.0,-4.0,-18.0,1
-18.0,3.0,219.0,11.0,-4.0,-18.0,1
-18.0,3.0,214.0,22.0,-1.0,-19.0,1
-19.0,4.0,213.0,31.0,0.0,-16.0,1
-15.0,4.0,211.0,38.0,1.0,-13.0,1
-19.0,8.0,213.0,43.0,5.0,-12.0,1
-21.0,10.0,209.0,46.0,7.0,-9.0,1
-18.0,8.0,205.0,45.0,10.0,-7.0,1
-20.0,11.0,203.0,42.0,14.0,-6.0,1
-19.0,12.0,205.0,37.0,18.0,-5.0,1
-17.0,10.0,206.0,30.0,22.0,-4.0,1
-18.0,9.0,205.0,21.0,23.0,-4.0,1
-19.0,13.0,206.0,12.0,25.0,-3.0,1
-21.0,11.0,209.0,7.0,25.0,-5.0,1
-23.0,12.0,205.0,0.0,27.0,-6.0,1
-24.0,7.0,199.0,-9.0,25.0,-7.0,1
-22.0,8.0,205.0,-14.0,22.0,-19.0,1
-21.0,8.0,205.0,-20.0,15.0,-14.0,1
-25.0,10.0,203.0,-28.0,13.0,-11.0,1
-23.0,7.0,209.0,-37.0,13.0,-9.0,1
-24.0,7.0,208.0,-49.0,11.0,-9.0,1
-23.0,5.0,204.0,-56.0,8.0,-9.0,1
-25.0,4.0,204.0,-62.0,4.0,-10.0,1
-25.0,4.0,210.0,-68.0,0.0,-9.0,1
-26.0,3.0,207.0,-73.0,-2.0,-10.0,1
-26.0,2.0,210.0,-75.0,-4.0,-9.0,1
-25.0,1.0,210.0,-78.0,-4.0,-7.0,1
-24.0,2.0,206.0,-80.0,-4.0,-4.0,1
-26.0,1.0,206.0,-80.0,-2.0,-1.0,1
-23.0,0.0,208.0,-77.0,-1.0,0.0,1
-25.0,2.0,203.0,-74.0,-1.0,2.0,1
-23.0,0.0,208.0,-72.0,-1.0,4.0,1
-22.0,1.0,209.0,-67.0,-1.0,8.0,1
-23.0,-1.0,212.0,-60.0,-1.0,8.0,1
-22.0,-1.0,210.0,-54.0,1.0,7.0,1
-22.0,0.0,210.0,-49.0,1.0,5.0,1
-20.0,0.0,210.0,-41.0,0.0,6.0,1
-18.0,0.0,207.0,-35.0,0.0,6.0,1
-20.0,1.0,207.0,-30.0,0.0,5.0,1
-18.0,0.0,211.0,-23.0,0.0,2.0,1
-19.0,2.0,211.0,-17.0,4.0,1.0,1
-13.0,1.0,207.0,-10.0,4.0,3.0,1
-16.0,0.0,209.0,-6.0,3.0,2.0,1
-15.0,1.0,213.0,-2.0,-2.0,0.0,1
-16.0,4.0,206.0,-2.0,-3.0,-1.0,1
-14.0,1.0,213.0,-3.0,-3.0,-1.0,1
-14.0,0.0,208.0,-4.0,-4.0,-2.0,1
-13.0,3.0,211.0,-9.0,-1.0,-3.0,1
-14.0,2.0,206.0,-10.0,0.0,-5.0,1
-20.0,1.0,211.0,-11.0,-1.0,-4.0,1
-14.0,3.0,210.0,-13.0,-2.0,-7.0,1
-16.0,2.0,207.0,-16.0,-3.0,-6.0,1
-15.0,5.0,214.0,-19.0,-1.0,-6.0,1
-18.0,6.0,210.0,-20.0,0.0,-7.0,1
-16.0,1.0,206.0,-21.0,-1.0,-7.0,1
-17.0,4.0,213.0,-22.0,0.0,-7.0,1
-19.0,2.0,208.0,-22.0,-2.0,-6.0,1
-20.0,4.0,206.0,-26.0,-1.0,-5.0,1
-21.0,4.0,209.0,-27.0,0.0,-7.0,1
-17.0,1.0,213.0,-28.0,-1.0,-5.0,1
-20.0,3.0,208.0,-28.0,-3.0,-4.0,1
-20.0,2.0,207.0,-27.0,-4.0,-5.0,1
-17.0,3.0,208.0,-24.0,-3.0,-3.0,1
-24.0,7.0,207.0,-26.0,-4.0,-4.0,1
-18.0,6.0,208.0,-24.0,-4.0,-4.0,1
-18.0,3.0,212.0,-24.0,-3.0,-4.0,1
-17.0,4.0,207.0,-24.0,-2.0,-4.0,1
-18.0,4.0,212.0,-21.0,-2.0,-4.0,1
-19.0,6.0,209.0,-22.0,-4.0,-4.0,1
-19.0,8.0,211.0,-20.0,-3.0,-3.0,1
-20.0,3.0,208.0,-19.0,-1.0,-2.0,1
-21.0,6.0,212.0,-20.0,0.0,-5.0,1
-20.0,4.0,208.0,-20.0,-2.0,-8.0,1
-17.0,5.0,208.0,-17.0,-2.0,-6.0,1
-16.0,5.0,201.0,-18.0,0.0,-7.0,1
-16.0,7.0,212.0,-20.0,4.0,-7.0,1
-15.0,6.0,213.0,-22.0,7.0,-7.0,1
-17.0,3.0,210.0,-25.0,8.0,-7.0,1
-17.0,5.0,208.0,-28.0,9.0,-6.0,1
-15.0,5.0,211.0,-28.0,9.0,-8.0,1
-19.0,4.0,208.0,-31.0,7.0,-9.0,1
-20.0,6.0,211.0,-32.0,9.0,-10.0,1
-16.0,6.0,212.0,-31.0,8.0,-10.0,1
-18.0,7.0,212.0,-32.0,8.0,-8.0,1
-15.0,2.0,204.0,-32.0,7.0,-10.0,1
-18.0,3.0,209.0,-34.0,7.0,-10.0,1
-18.0,2.0,211.0,-33.0,3.0,-9.0,1
-18.0,5.0,210.0,-34.0,1.0,-7.0,1
-15.0,1.0,210.0,-33.0,0.0,-5.0,1
-14.0,3.0,211.0,-35.0,1.0,-5.0,1
-18.0,5.0,207.0,-35.0,1.0,-5.0,1
-20.0,7.0,208.0,-37.0,3.0,-4.0,1
-21.0,3.0,208.0,-37.0,3.0,-5.0,1
-16.0,4.0,208.0,-37.0,3.0,-4.0,1
-18.0,2.0,208.0,-35.0,2.0,-3.0,1
-16.0,2.0,210.0,-38.0,1.0,-2.0,1
-15.0,4.0,209.0,-38.0,4.0,-2.0,1
-19.0,2.0,208.0,-36.0,6.0,-1.0,1
-22.0,5.0,208.0,-34.0,5.0,-2.0,1
-20.0,5.0,211.0,-34.0,4.0,-3.0,1
-19.0,7.0,210.0,-34.0,4.0,-3.0,1
-17.0,1.0,213.0,-34.0,2.0,-3.0,1
-19.0,5.0,209.0,-35.0,2.0,-2.0,1
-16.0,6.0,206.0,-35.0,2.0,-4.0,1
-19.0,2.0,209.0,-37.0,2.0,-5.0,1
-15.0,4.0,208.0,-36.0,3.0,-6.0,1
-14.0,3.0,214.0,-35.0,3.0,-6.0,1
-19.0,1.0,209.0,-36.0,3.0,-6.0,1
-20.0,5.0,209.0,-36.0,3.0,-6.0,1
-15.0,4.0,214.0,-36.0,3.0,-5.0,1
-15.0,5.0,206.0,-38.0,4.0,-5.0,1
-16.0,2.0,210.0,-36.0,3.0,-5.0,1
-15.0,5.0,210.0,-35.0,0.0,-6.0,1
-18.0,6.0,209.0,-36.0,0.0,-4.0,1
-18.0,6.0,210.0,-36.0,3.0,-5.0,1
-19.0,5.0,209.0,-36.0,3.0,-4.0,1
-18.0,2.0,198.0,-35.0,3.0,-4.0,1
-16.0,4.0,208.0,-34.0,2.0,-5.0,1
-15.0,5.0,210.0,-34.0,1.0,-4.0,1
-17.0,8.0,208.0,-36.0,1.0,-4.0,1
-18.0,4.0,210.0,-36.0,1.0,-4.0,1
-19.0,6.0,205.0,-37.0,3.0,-5.0,1
-18.0,3.0,207.0,-36.0,2.0,-4.0,1
-16.0,4.0,208.0,-37.0,1.0,-5.0,1
-16.0,3.0,207.0,-39.0,1.0,-5.0,1
-16.0,4.0,208.0,-39.0,0.0,-4.0,1
-16.0,2.0,210.0,-39.0,0.0,-5.0,1
-16.0,3.0,209.0,-39.0,-3.0,-5.0,1
-14.0,6.0,214.0,-39.0,-3.0,-7.0,1
-17.0,8.0,208.0,-41.0,-1.0,-6.0,1
-15.0,3.0,206.0,-38.0,-1.0,-6.0,1
-15.0,4.0,213.0,-40.0,1.0,-6.0,1
-16.0,7.0,209.0,-40.0,1.0,-6.0,1
-14.0,4.0,211.0,-41.0,3.0,-6.0,1
-15.0,7.0,211.0,-43.0,3.0,-8.0,1
-17.0,6.0,208.0,-43.0,5.0,-6.0,1
-15.0,3.0,212.0,-45.0,6.0,-6.0,1
-20.0,7.0,210.0,-47.0,5.0,-7.0,1
-16.0,5.0,207.0,-47.0,6.0,-6.0,1
-16.0,2.0,207.0,-47.0,6.0,-6.0,1
-14.0,3.0,209.0,-47.0,7.0,-7.0,1
-17.0,6.0,211.0,-47.0,6.0,-6.0,1
-16.0,5.0,212.0,-46.0,6.0,-6.0,1
-16.0,5.0,208.0,-47.0,7.0,-5.0,1
-15.0,4.0,213.0,-46.0,6.0,-5.0,1
-16.0,5.0,207.0,-46.0,7.0,-5.0,1
-13.0,6.0,209.0,-46.0,8.0,-6.0,1
-16.0,4.0,207.0,-46.0,7.0,-6.0,1
-14.0,4.0,210.0,-47.0,9.0,-5.0,1
-15.0,4.0,209.0,-47.0,8.0,-6.0,1
-15.0,14.0,212.0,-44.0,8.0,-6.0,1
-16.0,5.0,211.0,-43.0,10.0,-4.0,1
-18.0,4.0,208.0,-42.0,9.0,-5.0,1
-13.0,6.0,210.0,-41.0,9.0,-5.0,1
-14.0,3.0,211.0,-38.0,7.0,-3.0,1
-16.0,5.0,209.0,-37.0,7.0,-4.0,1
-17.0,4.0,206.0,-35.0,7.0,-4.0,1
-18.0,7.0,215.0,-34.0,8.0,-4.0,1
-16.0,3.0,208.0,-33.0,7.0,-5.0,1
-16.0,6.0,209.0,-32.0,6.0,-5.0,1
-15.0,3.0,210.0,-31.0,6.0,-7.0,1
-21.0,1.0,212.0,-31.0,6.0,-9.0,1
-14.0,5.0,209.0,-30.0,7.0,-7.0,1
-15.0,5.0,210.0,-32.0,9.0,-8.0,1
-15.0,4.0,211.0,-35.0,10.0,-9.0,1
-14.0,4.0,212.0,-38.0,10.0,-10.0,1
-17.0,3.0,213.0,-40.0,10.0,-11.0,1
-15.0,3.0,209.0,-41.0,10.0,-11.0,1
-16.0,2.0,205.0,-37.0,8.0,-10.0,1
-19.0,3.0,205.0,-34.0,6.0,-9.0,1
-16.0,4.0,207.0,-33.0,6.0,-10.0,1
-18.0,2.0,206.0,-31.0,8.0,-9.0,1
-15.0,5.0,214.0,-27.0,10.0,-9.0,1
-15.0,1.0,209.0,-24.0,8.0,-9.0,1
-14.0,4.0,209.0,-20.0,7.0,-8.0,1
-16.0,3.0,207.0,-19.0,6.0,-7.0,1
-14.0,2.0,208.0,-16.0,6.0,-7.0,1
-14.0,3.0,207.0,-16.0,7.0,-6.0,1
-16.0,6.0,211.0,-16.0,6.0,-7.0,1
-17.0,6.0,216.0,-15.0,2.0,-7.0,1
-16.0,5.0,208.0,-13.0,0.0,-7.0,1
-16.0,7.0,209.0,-13.0,2.0,-7.0,1
-15.0,6.0,207.0,-14.0,3.0,-7.0,1
-17.0,12.0,218.0,-16.0,4.0,-8.0,1
-18.0,9.0,210.0,-19.0,7.0,-6.0,1
-19.0,7.0,212.0,-23.0,6.0,-6.0,1
-15.0,10.0,207.0,-26.0,5.0,-5.0,1
-16.0,7.0,211.0,-30.0,3.0,-4.0,1
-16.0,9.0,209.0,-33.0,4.0,-3.0,1
-16.0,7.0,211.0,-36.0,4.0,-3.0,1
-15.0,5.0,211.0,-37.0,2.0,-4.0,1
-13.0,7.0,211.0,-37.0,0.0,-4.0,1
-19.0,9.0,211.0,-38.0,2.0,-4.0,1
-18.0,3.0,205.0,-39.0,4.0,-4.0,1
-13.0,7.0,209.0,-41.0,3.0,-3.0,1
-15.0,8.0,211.0,-42.0,4.0,-3.0,1
-17.0,10.0,211.0,-44.0,5.0,-1.0,1
-17.0,6.0,208.0,-44.0,6.0,-3.0,1
-15.0,6.0,206.0,-44.0,5.0,-3.0,1
-15.0,4.0,210.0,-44.0,6.0,-4.0,1
-16.0,7.0,210.0,-44.0,6.0,-4.0,1
-17.0,10.0,213.0,-46.0,7.0,-2.0,1
-15.0,1.0,211.0,-48.0,9.0,-4.0,1
-17.0,7.0,213.0,-45.0,10.0,-5.0,1
-15.0,3.0,218.0,-45.0,10.0,-4.0,1
-14.0,4.0,212.0,-46.0,9.0,-5.0,1
-14.0,5.0,206.0,-46.0,9.0,-4.0,1
-16.0,7.0,214.0,-47.0,10.0,-3.0,1
-15.0,2.0,210.0,-46.0,8.0,-4.0,1
-13.0,4.0,210.0,-45.0,9.0,-5.0,1
-15.0,6.0,209.0,-44.0,9.0,-6.0,1
-15.0,7.0,207.0,-45.0,9.0,-5.0,1
-15.0,4.0,209.0,-44.0,9.0,-5.0,1
-12.0,8.0,208.0,-44.0,8.0,-4.0,1
-15.0,7.0,212.0,-44.0,9.0,-4.0,1
-13.0,0.0,212.0,-45.0,8.0,-4.0,1
-15.0,5.0,208.0,-43.0,8.0,-6.0,1
-14.0,5.0,208.0,-44.0,6.0,-6.0,1
-16.0,5.0,205.0,-45.0,6.0,-6.0,1
-16.0,6.0,209.0,-46.0,6.0,-4.0,1
-16.0,7.0,208.0,-46.0,7.0,-4.0,1
-15.0,7.0,207.0,-47.0,7.0,-6.0,1
-14.0,5.0,212.0,-48.0,8.0,-5.0,1
-16.0,5.0,212.0,-50.0,9.0,-6.0,1
-14.0,4.0,209.0,-48.0,9.0,-6.0,1
-15.0,6.0,209.0,-47.0,8.0,-4.0,1
-17.0,5.0,211.0,-49.0,9.0,-4.0,1
-16.0,6.0,208.0,-48.0,9.0,-6.0,1
-16.0,6.0,212.0,-49.0,8.0,-5.0,1
-16.0,6.0,210.0,-48.0,7.0,-4.0,1
-18.0,6.0,208.0,-49.0,8.0,-5.0,1
-16.0,9.0,209.0,-47.0,10.0,-4.0,1
-16.0,5.0,208.0,-45.0,11.0,-5.0,1
-13.0,4.0,210.0,-43.0,12.0,-5.0,1
-17.0,5.0,205.0,-41.0,13.0,-6.0,1
-17.0,7.0,210.0,-39.0,14.0,-4.0,1
-14.0,4.0,212.0,-38.0,14.0,-4.0,1
-10.0,6.0,213.0,-36.0,14.0,-6.0,1
-15.0,5.0,212.0,-34.0,13.0,-5.0,1
-15.0,6.0,208.0,-32.0,15.0,-4.0,1
-15.0,4.0,208.0,-33.0,15.0,-5.0,1
-14.0,5.0,206.0,-32.0,15.0,-4.0,1
-16.0,5.0,211.0,-32.0,15.0,-4.0,1
-15.0,5.0,208.0,-33.0,15.0,-5.0,1
-18.0,7.0,205.0,-34.0,16.0,-5.0,1
-16.0,5.0,209.0,-34.0,17.0,-5.0,1
-19.0,7.0,208.0,-35.0,14.0,-3.0,1
-15.0,6.0,214.0,-34.0,14.0,-2.0,1
-15.0,2.0,216.0,-33.0,15.0,-2.0,1
-15.0,5.0,208.0,-34.0,12.0,-4.0,1
-12.0,9.0,209.0,-37.0,10.0,-4.0,1
-14.0,6.0,212.0,-38.0,7.0,-2.0,1
-13.0,6.0,208.0,-38.0,10.0,-3.0,1
-16.0,7.0,209.0,-37.0,13.0,-4.0,1
-16.0,11.0,209.0,-40.0,14.0,-4.0,1
-15.0,9.0,210.0,-39.0,12.0,-4.0,1
-12.0,5.0,207.0,-41.0,12.0,-4.0,1
-14.0,8.0,212.0,-44.0,13.0,-4.0,1
-14.0,6.0,210.0,-44.0,15.0,-4.0,1
-17.0,6.0,209.0,-44.0,14.0,-4.0,1
-16.0,7.0,210.0,-44.0,15.0,-4.0,1
-14.0,6.0,210.0,-43.0,14.0,-5.0,1
-15.0,7.0,211.0,-44.0,15.0,-4.0,1
-16.0,6.0,205.0,-43.0,14.0,-4.0,1
-14.0,7.0,207.0,-43.0,14.0,-4.0,1
-17.0,9.0,206.0,-43.0,14.0,-5.0,1
-13.0,5.0,213.0,-45.0,14.0,-5.0,1
-17.0,9.0,210.0,-44.0,14.0,-5.0,1
-15.0,4.0,209.0,-42.0,14.0,-4.0,1
-13.0,5.0,209.0,-44.0,13.0,-5.0,1
-20.0,6.0,209.0,-43.0,14.0,-4.0,1
-12.0,3.0,211.0,-44.0,13.0,-5.0,1
-14.0,5.0,205.0,-45.0,14.0,-5.0,1
-14.0,5.0,209.0,-46.0,15.0,-5.0,1
-15.0,7.0,211.0,-45.0,15.0,-2.0,1
-12.0,5.0,207.0,-45.0,15.0,-4.0,1
-15.0,8.0,211.0,-48.0,15.0,-4.0,1
-15.0,7.0,208.0,-46.0,16.0,-4.0,1
-14.0,7.0,209.0,-49.0,15.0,-5.0,1
-10.0,6.0,210.0,-48.0,15.0,-3.0,1
-14.0,5.0,206.0,-49.0,13.0,-4.0,1
-13.0,3.0,207.0,-48.0,12.0,-3.0,1
-12.0,4.0,206.0,-48.0,11.0,-4.0,1
-13.0,5.0,209.0,-47.0,11.0,-5.0,1
-13.0,6.0,206.0,-46.0,11.0,-3.0,1
-15.0,8.0,210.0,-45.0,12.0,-4.0,1
-15.0,5.0,214.0,-44.0,10.0,-5.0,1
-14.0,7.0,205.0,-45.0,10.0,-4.0,1
-15.0,6.0,213.0,-46.0,11.0,-3.0,1
-17.0,3.0,207.0,-46.0,11.0,-5.0,1
-11.0,7.0,208.0,-46.0,10.0,-3.0,1
-22.0,6.0,206.0,-46.0,10.0,-4.0,1
-17.0,6.0,208.0,-44.0,10.0,-4.0,1
-13.0,4.0,207.0,-46.0,9.0,-5.0,1
-14.0,5.0,212.0,-47.0,11.0,-4.0,1
-17.0,7.0,209.0,-47.0,12.0,-4.0,1
-15.0,10.0,210.0,-48.0,12.0,-6.0,1
-13.0,7.0,208.0,-51.0,10.0,-5.0,1
-12.0,5.0,210.0,-48.0,10.0,-5.0,1
-15.0,8.0,211.0,-49.0,10.0,-5.0,1
-15.0,6.0,209.0,-50.0,11.0,-5.0,1
-16.0,9.0,211.0,-50.0,12.0,-5.0,1
-12.0,4.0,205.0,-49.0,12.0,-5.0,1
-14.0,6.0,208.0,-51.0,12.0,-4.0,1
-14.0,6.0,209.0,-51.0,13.0,-4.0,1
-14.0,5.0,211.0,-51.0,13.0,-5.0,1
-12.0,5.0,207.0,-50.0,14.0,-6.0,1
-11.0,4.0,210.0,-51.0,14.0,-6.0,1
-15.0,5.0,211.0,-51.0,14.0,-4.0,1
-17.0,5.0,208.0,-49.0,15.0,-5.0,1
-17.0,8.0,210.0,-47.0,15.0,-5.0,1
-13.0,2.0,208.0,-46.0,16.0,-4.0,1
-16.0,5.0,209.0,-46.0,16.0,-5.0,1
-10.0,3.0,207.0,-46.0,15.0,-5.0,1
-12.0,4.0,213.0,-44.0,14.0,-5.0,1
-14.0,5.0,206.0,-45.0,15.0,-4.0,1
-16.0,3.0,211.0,-43.0,14.0,-3.0,1
-12.0,5.0,210.0,-42.0,15.0,-3.0,1
-15.0,7.0,207.0,-41.0,15.0,-4.0,1
-15.0,6.0,210.0,-40.0,15.0,-7.0,1
-15.0,8.0,209.0,-41.0,15.0,-5.0,1
-14.0,5.0,208.0,-39.0,13.0,-6.0,1
-15.0,6.0,211.0,-39.0,14.0,-4.0,1
-15.0,7.0,211.0,-40.0,14.0,-4.0,1
-13.0,3.0,209.0,-39.0,13.0,-4.0,1
-13.0,6.0,210.0,-40.0,14.0,-5.0,1
-14.0,6.0,209.0,-39.0,15.0,-5.0,1
-13.0,5.0,208.0,-39.0,16.0,-4.0,1
-14.0,5.0,211.0,-39.0,17.0,-4.0,1
-14.0,4.0,210.0,-41.0,16.0,-5.0,1
-13.0,4.0,210.0,-39.0,16.0,-6.0,1
-7.0,3.0,207.0,-37.0,15.0,-3.0,1
-15.0,5.0,209.0,-38.0,16.0,-3.0,1
-11.0,4.0,211.0,-43.0,15.0,-4.0,1
-16.0,4.0,210.0,-43.0,17.0,-3.0,1
-6.0,5.0,213.0,-40.0,17.0,-4.0,1
-13.0,4.0,211.0,-37.0,19.0,-5.0,1
-15.0,3.0,211.0,-33.0,20.0,-5.0,1
-16.0,6.0,207.0,-31.0,20.0,-7.0,1
-14.0,5.0,213.0,-29.0,20.0,-5.0,1
-16.0,5.0,210.0,-26.0,21.0,-5.0,1
-16.0,6.0,207.0,-25.0,21.0,-5.0,1
-16.0,7.0,207.0,-26.0,22.0,-5.0,1
-16.0,8.0,208.0,-26.0,20.0,-5.0,1
-15.0,10.0,207.0,-25.0,21.0,-3.0,1
-18.0,7.0,206.0,-21.0,19.0,-16.0,1
-19.0,5.0,215.0,-15.0,16.0,-13.0,1
-17.0,8.0,211.0,-13.0,14.0,-7.0,1
-13.0,4.0,210.0,-17.0,13.0,-1.0,1
-16.0,5.0,208.0,-21.0,12.0,-4.0,1
-13.0,8.0,215.0,-21.0,8.0,-9.0,1
-14.0,9.0,210.0,-12.0,6.0,-5.0,1
-14.0,7.0,211.0,-9.0,5.0,-4.0,1
-16.0,11.0,213.0,-12.0,3.0,-3.0,1
-14.0,11.0,209.0,-20.0,3.0,-5.0,1
-13.0,7.0,209.0,-24.0,5.0,-5.0,1
-14.0,9.0,215.0,-32.0,6.0,-5.0,1
-14.0,5.0,208.0,-36.0,8.0,-5.0,1
-14.0,9.0,211.0,-39.0,10.0,-3.0,1
-14.0,7.0,210.0,-42.0,11.0,-6.0,1
-16.0,10.0,209.0,-41.0,10.0,-6.0,1
-16.0,7.0,210.0,-42.0,11.0,-6.0,1
-14.0,8.0,206.0,-42.0,12.0,-6.0,1
-14.0,9.0,208.0,-39.0,14.0,-6.0,1
-13.0,6.0,210.0,-40.0,15.0,-5.0,1
-15.0,8.0,208.0,-41.0,15.0,-6.0,1
-11.0,6.0,209.0,-45.0,16.0,-5.0,1
-15.0,8.0,213.0,-45.0,17.0,-5.0,1
-17.0,10.0,205.0,-47.0,17.0,-5.0,1
-15.0,5.0,208.0,-49.0,18.0,-5.0,1
-14.0,7.0,208.0,-51.0,17.0,-5.0,1
-15.0,10.0,207.0,-49.0,16.0,-5.0,1
-16.0,7.0,210.0,-51.0,18.0,-6.0,1
-12.0,5.0,208.0,-50.0,18.0,-6.0,1
-12.0,7.0,205.0,-50.0,16.0,-6.0,1
-15.0,4.0,207.0,-51.0,17.0,-4.0,1
-15.0,7.0,204.0,-51.0,15.0,-5.0,1
-12.0,7.0,209.0,-51.0,15.0,-4.0,1
-16.0,8.0,214.0,-49.0,15.0,-4.0,1
-19.0,3.0,207.0,-48.0,14.0,-4.0,1
-15.0,6.0,209.0,-48.0,15.0,-4.0,1
-13.0,5.0,212.0,-46.0,15.0,-4.0,1
-16.0,7.0,212.0,-46.0,14.0,-5.0,1
-14.0,5.0,210.0,-46.0,14.0,-4.0,1
-14.0,7.0,209.0,-47.0,15.0,-4.0,1
-15.0,7.0,211.0,-48.0,15.0,-5.0,1
-14.0,7.0,209.0,-49.0,14.0,-5.0,1
-16.0,10.0,208.0,-48.0,16.0,-5.0,1
-12.0,6.0,209.0,-48.0,16.0,-6.0,1
-13.0,7.0,211.0,-52.0,16.0,-6.0,1
-18.0,11.0,207.0,-52.0,16.0,-5.0,1
-12.0,7.0,210.0,-52.0,16.0,-5.0,1
-14.0,4.0,207.0,-52.0,15.0,-7.0,1
-13.0,6.0,207.0,-51.0,16.0,-6.0,1
-15.0,8.0,208.0,-53.0,17.0,-5.0,1
-13.0,6.0,208.0,-51.0,16.0,-6.0,1
-17.0,7.0,208.0,-52.0,17.0,-6.0,1
-15.0,7.0,213.0,-53.0,18.0,-5.0,1
-15.0,8.0,218.0,-54.0,18.0,-5.0,1
-14.0,7.0,208.0,-54.0,18.0,-4.0,1
-5.0,5.0,213.0,-53.0,19.0,-5.0,1
-12.0,5.0,208.0,-53.0,19.0,-3.0,1
-16.0,6.0,207.0,-54.0,18.0,-5.0,1
-12.0,5.0,208.0,-51.0,18.0,-5.0,1
-15.0,8.0,211.0,-50.0,19.0,-4.0,1
-14.0,5.0,208.0,-49.0,19.0,-5.0,1
-15.0,6.0,209.0,-48.0,21.0,-3.0,1
-14.0,5.0,212.0,-48.0,21.0,-4.0,1
-11.0,7.0,211.0,-46.0,20.0,-4.0,1
-16.0,9.0,208.0,-45.0,20.0,-7.0,1
-12.0,7.0,213.0,-45.0,20.0,-5.0,1
-14.0,8.0,208.0,-45.0,19.0,-6.0,1
-15.0,7.0,211.0,-47.0,21.0,-6.0,1
-16.0,7.0,209.0,-47.0,19.0,-5.0,1
-16.0,6.0,211.0,-50.0,19.0,-5.0,1
-14.0,10.0,212.0,-50.0,19.0,-6.0,1
-13.0,6.0,212.0,-51.0,21.0,-5.0,1
-13.0,7.0,205.0,-53.0,19.0,-6.0,1
-15.0,6.0,210.0,-55.0,18.0,-5.0,1
-15.0,8.0,208.0,-56.0,17.0,-5.0,1
-15.0,7.0,210.0,-56.0,18.0,-6.0,1
-16.0,11.0,212.0,-57.0,16.0,-5.0,1
-15.0,5.0,210.0,-58.0,17.0,-5.0,1
-14.0,4.0,208.0,-58.0,18.0,-4.0,1
-15.0,6.0,212.0,-58.0,17.0,-5.0,1
-12.0,2.0,210.0,-58.0,16.0,-6.0,1
-12.0,6.0,212.0,-59.0,17.0,-6.0,1
-15.0,7.0,207.0,-58.0,18.0,-7.0,1
-14.0,6.0,211.0,-58.0,18.0,-5.0,1
-16.0,7.0,211.0,-60.0,17.0,-4.0,1
-11.0,6.0,211.0,-59.0,18.0,-6.0,1
-13.0,7.0,213.0,-60.0,19.0,-7.0,1
-14.0,6.0,212.0,-58.0,19.0,-7.0,1
-15.0,3.0,207.0,-57.0,19.0,-6.0,1
-17.0,8.0,207.0,-56.0,17.0,-5.0,1
-12.0,5.0,208.0,-56.0,18.0,-5.0,1
-16.0,6.0,209.0,-56.0,17.0,-5.0,1
-14.0,7.0,212.0,-55.0,16.0,-5.0,1
-12.0,4.0,210.0,-55.0,15.0,-5.0,1
-16.0,5.0,209.0,-54.0,16.0,-7.0,1
-15.0,4.0,208.0,-54.0,16.0,-7.0,1
-15.0,4.0,206.0,-55.0,15.0,-6.0,1
-15.0,4.0,206.0,-54.0,17.0,-6.0,1
-15.0,9.0,210.0,-55.0,16.0,-5.0,1
-13.0,5.0,209.0,-55.0,16.0,-5.0,1
-12.0,4.0,213.0,-56.0,17.0,-4.0,1
-13.0,7.0,211.0,-55.0,18.0,-4.0,1
-15.0,3.0,210.0,-55.0,18.0,-6.0,1
-13.0,5.0,210.0,-56.0,18.0,-5.0,1
-13.0,5.0,209.0,-54.0,18.0,-6.0,1
-14.0,8.0,210.0,-56.0,17.0,-6.0,1
-14.0,5.0,211.0,-55.0,17.0,-6.0,1
-12.0,4.0,208.0,-55.0,17.0,-4.0,1
-15.0,7.0,209.0,-54.0,17.0,-6.0,1
-16.0,6.0,209.0,-53.0,15.0,-6.0,1
-10.0,7.0,212.0,-53.0,15.0,-6.0,1
-13.0,7.0,208.0,-56.0,14.0,-6.0,1
-17.0,7.0,210.0,-57.0,14.0,-5.0,1
-14.0,6.0,210.0,-56.0,16.0,-5.0,1
-12.0,6.0,212.0,-56.0,14.0,-6.0,1
-14.0,5.0,207.0,-57.0,15.0,-5.0,1
-15.0,6.0,210.0,-58.0,14.0,-5.0,1
-17.0,5.0,212.0,-58.0,16.0,-6.0,1
-15.0,7.0,210.0,-59.0,17.0,-6.0,1
-17.0,5.0,210.0,-60.0,16.0,-5.0,1
-16.0,4.0,212.0,-61.0,15.0,-5.0,1
-12.0,5.0,211.0,-61.0,16.0,-5.0,1
-16.0,8.0,208.0,-61.0,15.0,-5.0,1
-13.0,7.0,208.0,-62.0,15.0,-5.0,1
-13.0,5.0,209.0,-65.0,15.0,-6.0,1
-16.0,6.0,211.0,-65.0,15.0,-6.0,1
-14.0,7.0,210.0,-65.0,16.0,-5.0,1
-14.0,4.0,209.0,-67.0,17.0,-6.0,1
-17.0,5.0,209.0,-68.0,18.0,-6.0,1
-16.0,3.0,207.0,-69.0,19.0,-7.0,1
-13.0,6.0,209.0,-67.0,19.0,-7.0,1
-15.0,1.0,207.0,-65.0,18.0,-6.0,1
-13.0,2.0,221.0,-64.0,16.0,-6.0,1
-13.0,4.0,208.0,-62.0,16.0,-6.0,1
-14.0,4.0,209.0,-60.0,15.0,-7.0,1
-16.0,7.0,212.0,-57.0,16.0,-5.0,1
-14.0,5.0,209.0,-58.0,16.0,-6.0,1
-15.0,6.0,207.0,-56.0,18.0,-6.0,1
-16.0,2.0,206.0,-55.0,18.0,-6.0,1
-13.0,2.0,209.0,-54.0,18.0,-7.0,1
-16.0,8.0,208.0,-52.0,18.0,-6.0,1
-14.0,6.0,207.0,-52.0,18.0,-6.0,1
-14.0,5.0,209.0,-51.0,17.0,-6.0,1
-18.0,5.0,205.0,-50.0,18.0,-6.0,1
-15.0,5.0,209.0,-51.0,18.0,-7.0,1
-12.0,7.0,211.0,-51.0,20.0,-7.0,1
-15.0,6.0,209.0,-53.0,18.0,-5.0,1
-13.0,8.0,213.0,-53.0,19.0,-4.0,1
-11.0,4.0,210.0,-54.0,21.0,-5.0,1
-13.0,6.0,207.0,-56.0,21.0,-6.0,1
-18.0,4.0,210.0,-58.0,22.0,-6.0,1
-14.0,4.0,210.0,-60.0,22.0,-6.0,1
-11.0,2.0,212.0,-61.0,22.0,-7.0,1
-10.0,2.0,206.0,-62.0,21.0,-7.0,1
-12.0,3.0,209.0,-63.0,22.0,-8.0,1
-16.0,2.0,209.0,-61.0,21.0,-8.0,1
-15.0,3.0,211.0,-57.0,19.0,-9.0,1
-14.0,1.0,210.0,-53.0,18.0,-7.0,1
-16.0,5.0,209.0,-49.0,18.0,-7.0,1
-14.0,5.0,204.0,-44.0,18.0,-7.0,1
-16.0,4.0,203.0,-40.0,19.0,-7.0,1
-12.0,2.0,207.0,-37.0,19.0,-7.0,1
-16.0,10.0,208.0,-35.0,20.0,-6.0,1
-15.0,4.0,205.0,-34.0,20.0,-5.0,1
-20.0,6.0,210.0,-33.0,19.0,-4.0,1
-17.0,5.0,210.0,-35.0,19.0,-5.0,1
-17.0,7.0,211.0,-36.0,18.0,-5.0,1
-15.0,6.0,208.0,-35.0,18.0,-6.0,1
-15.0,6.0,212.0,-37.0,19.0,-5.0,1
-14.0,6.0,209.0,-37.0,18.0,-6.0,1
-12.0,3.0,213.0,-39.0,19.0,-5.0,1
-16.0,6.0,211.0,-41.0,18.0,-5.0,1
-16.0,6.0,208.0,-43.0,18.0,-4.0,1
-13.0,7.0,212.0,-45.0,18.0,-6.0,1
-15.0,5.0,211.0,-47.0,18.0,-5.0,1
-6.0,6.0,210.0,-48.0,16.0,-6.0,1
-16.0,8.0,209.0,-47.0,16.0,-6.0,1
-14.0,5.0,206.0,-46.0,15.0,-5.0,1
-13.0,4.0,213.0,-47.0,13.0,-6.0,1
-14.0,4.0,206.0,-48.0,14.0,-6.0,1
-14.0,4.0,209.0,-47.0,14.0,-5.0,1
-13.0,5.0,210.0,-49.0,13.0,-6.0,1
-12.0,6.0,208.0,-48.0,13.0,-5.0,1
-15.0,3.0,208.0,-51.0,13.0,-5.0,1
-14.0,9.0,206.0,-51.0,15.0,-5.0,1
-14.0,7.0,209.0,-51.0,14.0,-5.0,1
-14.0,4.0,207.0,-52.0,15.0,-6.0,1
-14.0,6.0,210.0,-54.0,15.0,-5.0,1
-12.0,5.0,208.0,-55.0,16.0,-5.0,1
-16.0,3.0,210.0,-57.0,15.0,-6.0,1
-14.0,4.0,211.0,-57.0,18.0,-5.0,1
-14.0,4.0,208.0,-59.0,18.0,-5.0,1
-12.0,3.0,210.0,-61.0,17.0,-7.0,1
-14.0,5.0,210.0,-59.0,16.0,-6.0,1
-18.0,4.0,208.0,-59.0,16.0,-7.0,1
-13.0,4.0,211.0,-60.0,15.0,-6.0,1
-14.0,5.0,213.0,-59.0,15.0,-6.0,1
-6.0,3.0,211.0,-58.0,14.0,-6.0,1
-16.0,3.0,211.0,-57.0,14.0,-5.0,1
-13.0,3.0,209.0,-55.0,14.0,-5.0,1
-16.0,3.0,209.0,-52.0,13.0,-5.0,1
-15.0,7.0,211.0,-50.0,13.0,-3.0,1
-16.0,3.0,210.0,-48.0,13.0,-4.0,1
-13.0,6.0,207.0,-48.0,12.0,-4.0,1
-16.0,5.0,207.0,-47.0,14.0,-5.0,1
-11.0,5.0,205.0,-47.0,14.0,-5.0,1
-17.0,8.0,210.0,-47.0,14.0,-5.0,1
-16.0,6.0,210.0,-48.0,15.0,-5.0,1
-12.0,7.0,212.0,-49.0,15.0,-5.0,1
-14.0,4.0,211.0,-50.0,15.0,-6.0,1
-13.0,5.0,209.0,-53.0,16.0,-6.0,1
-16.0,5.0,210.0,-53.0,17.0,-7.0,1
-17.0,5.0,211.0,-53.0,17.0,-6.0,1
-15.0,7.0,210.0,-56.0,16.0,-5.0,1
-15.0,3.0,217.0,-55.0,15.0,-4.0,1
-16.0,5.0,209.0,-56.0,15.0,-6.0,1
-15.0,4.0,209.0,-55.0,16.0,-5.0,1
-14.0,1.0,208.0,-55.0,15.0,-6.0,1
-13.0,2.0,207.0,-55.0,15.0,-5.0,1
-13.0,5.0,206.0,-54.0,15.0,-5.0,1
-14.0,1.0,210.0,-55.0,15.0,-4.0,1
-12.0,3.0,208.0,-53.0,14.0,-4.0,1
-13.0,3.0,208.0,-51.0,15.0,-5.0,1
-14.0,3.0,209.0,-48.0,14.0,-5.0,1
-14.0,2.0,208.0,-47.0,13.0,-5.0,1
-15.0,3.0,209.0,-45.0,12.0,-6.0,1
-15.0,6.0,209.0,-41.0,13.0,-5.0,1
-12.0,4.0,210.0,-40.0,15.0,-4.0,1
-13.0,5.0,204.0,-37.0,14.0,-3.0,1
-16.0,3.0,212.0,-35.0,14.0,-3.0,1
-14.0,4.0,209.0,-35.0,17.0,-4.0,1
-13.0,5.0,205.0,-34.0,18.0,-5.0,1
-16.0,6.0,209.0,-35.0,18.0,-6.0,1
-15.0,3.0,208.0,-36.0,18.0,-6.0,1
-12.0,6.0,207.0,-35.0,18.0,-6.0,1
-16.0,6.0,213.0,-37.0,17.0,-4.0,1
-16.0,6.0,207.0,-37.0,17.0,-5.0,1
-15.0,7.0,211.0,-40.0,17.0,-5.0,1
-18.0,7.0,207.0,-40.0,16.0,-5.0,1
-17.0,8.0,210.0,-42.0,16.0,-6.0,1
-14.0,5.0,207.0,-43.0,16.0,-6.0,1
-15.0,5.0,204.0,-44.0,16.0,-6.0,1
-11.0,3.0,209.0,-44.0,17.0,-5.0,1
-16.0,7.0,211.0,-46.0,17.0,-5.0,1
-13.0,6.0,210.0,-45.0,16.0,-5.0,1
-14.0,4.0,206.0,-45.0,17.0,-6.0,1
-11.0,6.0,211.0,-46.0,18.0,-6.0,1
-13.0,3.0,207.0,-46.0,17.0,-6.0,1
-15.0,3.0,212.0,-47.0,18.0,-4.0,1
-13.0,2.0,208.0,-46.0,17.0,-5.0,1
-13.0,3.0,209.0,-45.0,18.0,-5.0,1
-13.0,1.0,214.0,-44.0,17.0,-5.0,1
-13.0,4.0,212.0,-42.0,15.0,-5.0,1
-12.0,4.0,209.0,-43.0,16.0,-4.0,1
-12.0,5.0,212.0,-42.0,14.0,-3.0,1
-16.0,6.0,204.0,-42.0,14.0,-3.0,1
-13.0,6.0,208.0,-42.0,14.0,-3.0,1
-17.0,4.0,210.0,-41.0,14.0,-5.0,1
-12.0,4.0,210.0,-39.0,15.0,-4.0,1
-14.0,4.0,205.0,-40.0,14.0,-4.0,1
-10.0,4.0,203.0,-39.0,14.0,-4.0,1
-13.0,4.0,209.0,-39.0,14.0,-4.0,1
-15.0,0.0,217.0,-42.0,14.0,-3.0,1
-13.0,6.0,207.0,-42.0,14.0,-4.0,1
-12.0,5.0,212.0,-44.0,14.0,-4.0,1
-14.0,4.0,208.0,-44.0,15.0,-4.0,1
-13.0,5.0,215.0,-44.0,15.0,-2.0,1
-14.0,4.0,208.0,-44.0,15.0,-4.0,1
-14.0,7.0,207.0,-45.0,16.0,-4.0,1
-13.0,5.0,210.0,-43.0,14.0,-5.0,1
-13.0,6.0,209.0,-45.0,15.0,-6.0,1
-14.0,2.0,210.0,-44.0,15.0,-5.0,1
-13.0,1.0,210.0,-43.0,15.0,-5.0,1
-14.0,4.0,202.0,-45.0,15.0,-3.0,1
-15.0,5.0,211.0,-43.0,14.0,-4.0,1
-16.0,6.0,207.0,-45.0,14.0,-3.0,1
-14.0,4.0,208.0,-45.0,14.0,-4.0,1
-14.0,3.0,207.0,-46.0,12.0,-3.0,1
-15.0,4.0,206.0,-46.0,13.0,-4.0,1
-17.0,4.0,211.0,-45.0,14.0,-3.0,1
-15.0,4.0,207.0,-47.0,14.0,-4.0,1
-13.0,6.0,208.0,-46.0,15.0,-5.0,1
-16.0,6.0,206.0,-46.0,14.0,-5.0,1
-15.0,5.0,208.0,-46.0,15.0,-5.0,1
-15.0,5.0,218.0,-48.0,15.0,-4.0,1
-14.0,3.0,205.0,-48.0,16.0,-5.0,1
-15.0,4.0,204.0,-47.0,17.0,-4.0,1
-11.0,4.0,210.0,-47.0,16.0,-4.0,1
-9.0,5.0,207.0,-46.0,16.0,-5.0,1
-13.0,4.0,209.0,-46.0,17.0,-5.0,1
-13.0,5.0,212.0,-45.0,16.0,-5.0,1
-15.0,1.0,209.0,-43.0,16.0,-5.0,1
-14.0,3.0,205.0,-43.0,16.0,-4.0,1
-17.0,5.0,211.0,-43.0,16.0,-4.0,1
-14.0,5.0,215.0,-42.0,16.0,-3.0,1
-15.0,4.0,207.0,-42.0,17.0,-4.0,1
-15.0,3.0,207.0,-42.0,16.0,-3.0,1
-13.0,5.0,206.0,-42.0,17.0,-4.0,1
-13.0,3.0,208.0,-40.0,17.0,-5.0,1
-12.0,2.0,210.0,-39.0,16.0,-4.0,1
-15.0,4.0,209.0,-39.0,17.0,-4.0,1
-14.0,4.0,209.0,-39.0,18.0,-3.0,1
-17.0,6.0,208.0,-39.0,18.0,-4.0,1
-14.0,3.0,208.0,-37.0,19.0,-4.0,1
-14.0,3.0,203.0,-35.0,19.0,-4.0,1
-13.0,5.0,210.0,-33.0,20.0,-4.0,1
-15.0,5.0,203.0,-34.0,19.0,-3.0,1
-13.0,3.0,207.0,-33.0,19.0,-3.0,1
-14.0,6.0,211.0,-33.0,19.0,-3.0,1
-14.0,6.0,207.0,-33.0,19.0,-2.0,1
-12.0,3.0,208.0,-33.0,18.0,-1.0,1
-14.0,6.0,211.0,-35.0,17.0,-3.0,1
-12.0,5.0,208.0,-34.0,19.0,-3.0,1
-14.0,5.0,208.0,-36.0,18.0,-2.0,1
-13.0,5.0,211.0,-38.0,18.0,-2.0,1
-17.0,4.0,212.0,-40.0,16.0,-3.0,1
-14.0,2.0,213.0,-42.0,17.0,-4.0,1
-13.0,9.0,207.0,-42.0,15.0,-5.0,1
-13.0,2.0,210.0,-39.0,16.0,-7.0,1
-12.0,5.0,209.0,-37.0,17.0,-6.0,1
-15.0,2.0,208.0,-33.0,18.0,-5.0,1
-13.0,2.0,207.0,-31.0,18.0,-6.0,1
-11.0,3.0,205.0,-28.0,19.0,-6.0,1
-13.0,7.0,208.0,-26.0,19.0,-5.0,1
-16.0,3.0,209.0,-28.0,20.0,-5.0,1
-15.0,8.0,207.0,-27.0,20.0,-6.0,1
-14.0,6.0,206.0,-25.0,19.0,-5.0,1
-16.0,6.0,207.0,-25.0,20.0,-4.0,1
-12.0,11.0,207.0,-23.0,19.0,-4.0,1
-15.0,4.0,210.0,-22.0,19.0,-2.0,1
-15.0,9.0,207.0,-23.0,18.0,-2.0,1
-15.0,7.0,213.0,-21.0,18.0,-2.0,1
-14.0,4.0,211.0,-21.0,20.0,-2.0,1
-16.0,6.0,209.0,-24.0,20.0,-2.0,1
-12.0,11.0,210.0,-26.0,19.0,-4.0,1
-17.0,10.0,209.0,-30.0,18.0,-4.0,1
-14.0,11.0,207.0,-33.0,16.0,-4.0,1
-10.0,6.0,208.0,-37.0,17.0,-3.0,1
-16.0,9.0,209.0,-39.0,18.0,-4.0,1
-10.0,8.0,216.0,-40.0,17.0,-4.0,1
-15.0,9.0,209.0,-42.0,16.0,-4.0,1
-14.0,6.0,208.0,-42.0,15.0,-4.0,1
-13.0,6.0,211.0,-42.0,14.0,-4.0,1
-13.0,6.0,208.0,-41.0,14.0,-4.0,1
-18.0,8.0,208.0,-43.0,14.0,-4.0,1
-14.0,5.0,210.0,-41.0,13.0,-5.0,1
-15.0,8.0,213.0,-42.0,15.0,-3.0,1
-14.0,8.0,206.0,-42.0,15.0,-5.0,1
-13.0,5.0,210.0,-43.0,16.0,-4.0,1
-13.0,7.0,207.0,-45.0,15.0,-4.0,1
-14.0,8.0,208.0,-45.0,15.0,-5.0,1
-13.0,4.0,207.0,-44.0,15.0,-4.0,1
-14.0,8.0,208.0,-46.0,17.0,-4.0,1
-15.0,6.0,210.0,-46.0,17.0,-6.0,1
-14.0,3.0,210.0,-47.0,16.0,-5.0,1
-15.0,5.0,210.0,-49.0,17.0,-5.0,1
-13.0,3.0,205.0,-48.0,17.0,-4.0,1
-12.0,8.0,204.0,-46.0,17.0,-4.0,1
-10.0,5.0,209.0,-46.0,17.0,-5.0,1
-13.0,6.0,211.0,-44.0,14.0,-4.0,1
-12.0,7.0,211.0,-44.0,15.0,-5.0,1
-11.0,3.0,208.0,-43.0,14.0,-5.0,1
-12.0,6.0,211.0,-41.0,15.0,-5.0,1
-12.0,6.0,207.0,-39.0,14.0,-4.0,1
-14.0,6.0,209.0,-36.0,15.0,-4.0,1
-13.0,3.0,208.0,-36.0,14.0,-3.0,1
-13.0,6.0,210.0,-35.0,13.0,-3.0,1
-12.0,3.0,210.0,-34.0,12.0,-2.0,1
-10.0,5.0,206.0,-35.0,14.0,-2.0,1
-14.0,3.0,209.0,-35.0,13.0,-2.0,1
-17.0,7.0,209.0,-34.0,13.0,-2.0,1
-17.0,6.0,210.0,-36.0,14.0,-3.0,1
-13.0,5.0,211.0,-38.0,15.0,-4.0,1
-16.0,5.0,207.0,-38.0,15.0,-3.0,1
-13.0,5.0,210.0,-41.0,14.0,-3.0,1
-15.0,8.0,212.0,-42.0,14.0,-4.0,1
-13.0,3.0,208.0,-42.0,15.0,-4.0,1
-14.0,4.0,206.0,-43.0,15.0,-5.0,1
-15.0,7.0,210.0,-45.0,15.0,-5.0,1
-12.0,4.0,211.0,-44.0,15.0,-3.0,1
-11.0,7.0,213.0,-45.0,17.0,-4.0,1
-13.0,5.0,212.0,-45.0,18.0,-3.0,1
-13.0,5.0,208.0,-42.0,16.0,-2.0,1
-14.0,5.0,213.0,-40.0,17.0,-2.0,1
-14.0,5.0,207.0,-40.0,18.0,-3.0,1
-15.0,9.0,207.0,-39.0,17.0,-3.0,1
-11.0,3.0,208.0,-39.0,17.0,-3.0,1
-11.0,6.0,209.0,-39.0,16.0,-4.0,1
-14.0,6.0,209.0,-38.0,16.0,-4.0,1
-14.0,3.0,208.0,-38.0,16.0,-5.0,1
-15.0,5.0,211.0,-35.0,16.0,-4.0,1
-14.0,10.0,209.0,-34.0,15.0,-3.0,1
-12.0,9.0,208.0,-33.0,15.0,-4.0,1
-15.0,9.0,213.0,-32.0,16.0,-5.0,1
-15.0,7.0,212.0,-30.0,17.0,-4.0,1
-9.0,3.0,212.0,-30.0,16.0,-3.0,1
-15.0,9.0,210.0,-31.0,17.0,-4.0,1
-16.0,6.0,209.0,-32.0,17.0,-5.0,1
-15.0,7.0,210.0,-31.0,15.0,-5.0,1
-11.0,4.0,209.0,-32.0,13.0,-4.0,1
-16.0,7.0,209.0,-34.0,15.0,-5.0,1
-13.0,4.0,208.0,-35.0,17.0,-4.0,1
-16.0,6.0,211.0,-35.0,17.0,-5.0,1
-17.0,11.0,209.0,-35.0,17.0,-6.0,1
-17.0,6.0,211.0,-35.0,17.0,-5.0,1
-15.0,6.0,209.0,-35.0,17.0,-6.0,1
-14.0,8.0,204.0,-36.0,20.0,-5.0,1
-15.0,6.0,208.0,-38.0,16.0,-3.0,1
-14.0,9.0,212.0,-39.0,17.0,-5.0,1
-13.0,5.0,210.0,-40.0,18.0,-4.0,1
-12.0,4.0,213.0,-38.0,17.0,-3.0,1
-14.0,6.0,208.0,-39.0,16.0,-4.0,1
-12.0,3.0,209.0,-39.0,18.0,-3.0,1
-15.0,6.0,212.0,-39.0,16.0,-3.0,1
-15.0,6.0,205.0,-40.0,15.0,-5.0,1
-18.0,7.0,210.0,-41.0,11.0,-3.0,1
-13.0,5.0,207.0,-41.0,11.0,-4.0,1
-13.0,6.0,206.0,-41.0,14.0,-4.0,1
-13.0,5.0,210.0,-39.0,14.0,-5.0,1
-13.0,6.0,214.0,-38.0,14.0,-5.0,1
-11.0,4.0,210.0,-37.0,13.0,-4.0,1
-13.0,5.0,210.0,-37.0,13.0,-2.0,1
-14.0,8.0,211.0,-37.0,13.0,-3.0,1
-15.0,8.0,209.0,-37.0,15.0,-3.0,1
-10.0,4.0,208.0,-37.0,15.0,-7.0,1
-15.0,8.0,211.0,-35.0,14.0,-13.0,1
-15.0,4.0,207.0,-35.0,10.0,-6.0,1
-13.0,8.0,211.0,-35.0,9.0,-5.0,1
-15.0,6.0,208.0,-36.0,10.0,-6.0,1
-14.0,9.0,211.0,-37.0,12.0,-5.0,1
-13.0,4.0,211.0,-39.0,13.0,-5.0,1
-14.0,6.0,210.0,-40.0,13.0,-4.0,1
-16.0,8.0,208.0,-40.0,13.0,-4.0,1
-15.0,7.0,220.0,-40.0,12.0,-4.0,1
-14.0,8.0,209.0,-40.0,13.0,-4.0,1
-13.0,4.0,212.0,-40.0,13.0,-3.0,1
-15.0,7.0,208.0,-39.0,14.0,-4.0,1
-12.0,4.0,202.0,-38.0,15.0,-7.0,1
-15.0,7.0,210.0,-35.0,13.0,-6.0,1
-13.0,6.0,208.0,-34.0,11.0,-5.0,1
-14.0,7.0,211.0,-37.0,13.0,-5.0,1
-16.0,8.0,208.0,-37.0,13.0,-3.0,1
-11.0,7.0,209.0,-39.0,12.0,-5.0,1
-13.0,9.0,209.0,-39.0,13.0,-4.0,1
-14.0,4.0,208.0,-40.0,13.0,-4.0,1
-12.0,4.0,208.0,-38.0,12.0,-6.0,1
-13.0,9.0,207.0,-39.0,13.0,-6.0,1
-10.0,10.0,212.0,-38.0,13.0,-5.0,1
-13.0,4.0,210.0,-38.0,14.0,-5.0,1
-14.0,7.0,209.0,-37.0,13.0,-5.0,1
-15.0,8.0,209.0,-39.0,12.0,-5.0,1
-13.0,6.0,208.0,-38.0,13.0,-4.0,1
-13.0,7.0,209.0,-37.0,13.0,-5.0,1
-14.0,6.0,206.0,-39.0,12.0,-4.0,1
-14.0,7.0,207.0,-40.0,14.0,-5.0,1
-13.0,8.0,207.0,-43.0,13.0,-5.0,1
-12.0,4.0,208.0,-42.0,13.0,-6.0,1
-16.0,6.0,210.0,-40.0,14.0,-5.0,1
-17.0,7.0,212.0,-41.0,14.0,-4.0,1
-16.0,9.0,215.0,-42.0,14.0,-5.0,1
-14.0,7.0,208.0,-40.0,14.0,-3.0,1
-14.0,6.0,209.0,-42.0,15.0,-5.0,1
-13.0,5.0,213.0,-41.0,17.0,-4.0,1
-13.0,7.0,210.0,-40.0,16.0,-4.0,1
-13.0,7.0,208.0,-40.0,18.0,-4.0,1
-17.0,7.0,212.0,-39.0,16.0,-5.0,1
-15.0,5.0,209.0,-39.0,16.0,-5.0,1
-11.0,5.0,204.0,-40.0,15.0,-5.0,1
-12.0,6.0,208.0,-37.0,15.0,-4.0,1
-14.0,6.0,208.0,-38.0,15.0,-5.0,1
-12.0,6.0,209.0,-38.0,13.0,-4.0,1
-14.0,7.0,211.0,-39.0,13.0,-4.0,1
-14.0,6.0,208.0,-38.0,13.0,-5.0,1
-13.0,8.0,208.0,-38.0,14.0,-4.0,1
-13.0,8.0,208.0,-38.0,15.0,-4.0,1
-12.0,7.0,209.0,-38.0,15.0,-4.0,1
-12.0,7.0,215.0,-40.0,14.0,-3.0,1
-14.0,7.0,208.0,-37.0,12.0,-4.0,1
-11.0,7.0,212.0,-37.0,13.0,-4.0,1
-16.0,4.0,210.0,-38.0,13.0,-3.0,1
-14.0,7.0,206.0,-37.0,13.0,-4.0,1
-10.0,7.0,209.0,-36.0,14.0,-5.0,1
-13.0,7.0,206.0,-35.0,15.0,-5.0,1
-12.0,6.0,207.0,-35.0,18.0,-3.0,1
-15.0,8.0,205.0,-32.0,27.0,-1.0,1
-15.0,6.0,209.0,-30.0,28.0,-3.0,1
-13.0,9.0,207.0,-33.0,27.0,-4.0,1
-15.0,7.0,207.0,-33.0,25.0,-5.0,1
-14.0,11.0,211.0,-35.0,22.0,-4.0,1
-13.0,9.0,212.0,-36.0,18.0,-4.0,1
-13.0,8.0,210.0,-36.0,16.0,-3.0,1
-6.0,5.0,202.0,-38.0,16.0,-3.0,1
-15.0,5.0,209.0,-40.0,15.0,-3.0,1
-15.0,7.0,207.0,-42.0,14.0,-4.0,1
-14.0,4.0,213.0,-44.0,15.0,-5.0,1
-11.0,4.0,211.0,-43.0,16.0,-6.0,1
-13.0,4.0,207.0,-40.0,16.0,-6.0,1
-15.0,5.0,206.0,-38.0,13.0,-6.0,1
-13.0,7.0,208.0,-36.0,14.0,-6.0,1
-11.0,6.0,209.0,-34.0,18.0,-5.0,1
-13.0,7.0,206.0,-33.0,20.0,-6.0,1
-13.0,7.0,208.0,-32.0,20.0,-6.0,1
-17.0,9.0,203.0,-29.0,22.0,-8.0,1
-14.0,8.0,208.0,-23.0,22.0,-10.0,1
-13.0,5.0,210.0,-22.0,20.0,-7.0,1
-14.0,7.0,209.0,-21.0,19.0,-6.0,1
-12.0,6.0,208.0,-20.0,20.0,-4.0,1
-14.0,10.0,209.0,-19.0,18.0,-5.0,1
-13.0,6.0,210.0,-17.0,14.0,-5.0,1
-15.0,7.0,208.0,-15.0,10.0,-5.0,1
-24.0,4.0,203.0,-18.0,10.0,-5.0,1
-14.0,9.0,209.0,-33.0,18.0,0.0,1
-10.0,8.0,209.0,-18.0,2.0,-2.0,1
-7.0,8.0,208.0,-6.0,-2.0,-4.0,1
-10.0,9.0,210.0,-5.0,6.0,-4.0,1
-15.0,11.0,212.0,-14.0,11.0,-5.0,1
-16.0,9.0,211.0,-24.0,8.0,-5.0,1
-15.0,9.0,207.0,-27.0,3.0,-4.0,1
-12.0,7.0,215.0,-30.0,2.0,-5.0,1
-12.0,6.0,210.0,-34.0,6.0,-5.0,1
-14.0,9.0,205.0,-35.0,10.0,-5.0,1
-13.0,10.0,208.0,-37.0,11.0,-5.0,1
-15.0,10.0,208.0,-38.0,12.0,-5.0,1
-17.0,11.0,209.0,-37.0,11.0,-5.0,1
-14.0,5.0,213.0,-36.0,14.0,-4.0,1
-13.0,5.0,208.0,-37.0,15.0,-5.0,1
-14.0,9.0,210.0,-38.0,15.0,-5.0,1
-14.0,8.0,212.0,-38.0,15.0,-4.0,1
-14.0,10.0,206.0,-41.0,15.0,-4.0,1
-16.0,8.0,209.0,-43.0,15.0,-3.0,1
-15.0,5.0,212.0,-45.0,14.0,-2.0,1
-14.0,7.0,213.0,-46.0,14.0,-3.0,1
-12.0,9.0,207.0,-48.0,16.0,-6.0,1
-13.0,7.0,209.0,-49.0,16.0,-4.0,1
-15.0,9.0,208.0,-50.0,15.0,-5.0,1
-17.0,10.0,206.0,-50.0,17.0,-5.0,1
-13.0,9.0,211.0,-50.0,16.0,-6.0,1
-14.0,8.0,209.0,-49.0,16.0,-4.0,1
-14.0,10.0,211.0,-49.0,15.0,-4.0,1
-12.0,9.0,209.0,-49.0,15.0,-4.0,1
-14.0,8.0,211.0,-47.0,15.0,-4.0,1
-13.0,8.0,208.0,-45.0,16.0,-5.0,1
-12.0,7.0,213.0,-44.0,16.0,-4.0,1
-13.0,8.0,211.0,-43.0,17.0,-4.0,1
-13.0,7.0,213.0,-45.0,17.0,-3.0,1
-11.0,9.0,216.0,-45.0,16.0,-4.0,1
-13.0,8.0,206.0,-45.0,16.0,-4.0,1
-13.0,9.0,208.0,-47.0,15.0,-4.0,1
-12.0,9.0,210.0,-48.0,16.0,-4.0,1
-12.0,8.0,212.0,-51.0,16.0,-5.0,1
-11.0,9.0,209.0,-53.0,16.0,-6.0,1
-14.0,8.0,207.0,-53.0,16.0,-6.0,1
-14.0,8.0,205.0,-54.0,17.0,-6.0,1
-10.0,5.0,208.0,-55.0,16.0,-7.0,1
-11.0,7.0,210.0,-54.0,16.0,-6.0,1
-11.0,7.0,211.0,-55.0,17.0,-4.0,1
-13.0,10.0,208.0,-55.0,19.0,-5.0,1
-17.0,8.0,217.0,-55.0,18.0,-4.0,1
-13.0,7.0,209.0,-55.0,18.0,-3.0,1
-13.0,7.0,209.0,-56.0,18.0,-3.0,1
-11.0,7.0,215.0,-55.0,18.0,-4.0,1
-16.0,9.0,210.0,-55.0,18.0,-6.0,1
-13.0,8.0,208.0,-55.0,17.0,-6.0,1
-12.0,6.0,211.0,-53.0,18.0,-5.0,1
-15.0,5.0,207.0,-51.0,19.0,-5.0,1
-16.0,8.0,210.0,-49.0,18.0,-4.0,1
-14.0,7.0,209.0,-48.0,19.0,-3.0,1
-15.0,7.0,204.0,-47.0,19.0,-6.0,1
-13.0,8.0,210.0,-44.0,18.0,-5.0,1
-15.0,7.0,209.0,-44.0,19.0,-7.0,1
-15.0,9.0,207.0,-44.0,19.0,-6.0,1
-13.0,7.0,212.0,-44.0,20.0,-5.0,1
-10.0,7.0,211.0,-45.0,19.0,-6.0,1
-13.0,9.0,206.0,-45.0,20.0,-5.0,1
-18.0,7.0,208.0,-46.0,19.0,-4.0,1
-11.0,8.0,205.0,-47.0,19.0,-5.0,1
-12.0,5.0,211.0,-48.0,19.0,-6.0,1
-14.0,7.0,207.0,-48.0,19.0,-6.0,1
-13.0,9.0,203.0,-49.0,19.0,-5.0,1
-14.0,7.0,211.0,-48.0,19.0,-5.0,1
-12.0,9.0,210.0,-49.0,19.0,-5.0,1
-12.0,7.0,205.0,-49.0,19.0,-5.0,1
-14.0,7.0,208.0,-48.0,18.0,-4.0,1
-13.0,6.0,209.0,-49.0,19.0,-5.0,1
-14.0,7.0,209.0,-49.0,17.0,-5.0,1
-14.0,8.0,208.0,-49.0,17.0,-5.0,1
-12.0,9.0,210.0,-51.0,17.0,-5.0,1
-14.0,8.0,209.0,-52.0,17.0,-5.0,1
-16.0,10.0,207.0,-53.0,18.0,-6.0,1
-14.0,5.0,204.0,-53.0,19.0,-6.0,1
-14.0,7.0,209.0,-53.0,20.0,-5.0,1
-12.0,5.0,214.0,-53.0,19.0,-4.0,1
-15.0,8.0,208.0,-53.0,19.0,-5.0,1
-11.0,7.0,210.0,-54.0,20.0,-4.0,1
-14.0,6.0,210.0,-54.0,18.0,-5.0,1
-15.0,8.0,212.0,-54.0,17.0,-3.0,1
-12.0,5.0,212.0,-52.0,18.0,-5.0,1
-12.0,8.0,209.0,-52.0,17.0,-3.0,1
-15.0,6.0,207.0,-52.0,16.0,-3.0,1
-12.0,6.0,207.0,-53.0,17.0,-3.0,1
-13.0,7.0,220.0,-51.0,16.0,-2.0,1
-13.0,6.0,210.0,-52.0,17.0,-4.0,1
-13.0,5.0,209.0,-51.0,15.0,-3.0,1
-12.0,6.0,211.0,-52.0,15.0,-5.0,1
-14.0,8.0,205.0,-51.0,16.0,-4.0,1
-13.0,9.0,209.0,-50.0,16.0,-3.0,1
-13.0,6.0,207.0,-49.0,16.0,-4.0,1
-16.0,7.0,207.0,-47.0,16.0,-3.0,1
-13.0,8.0,209.0,-48.0,17.0,-5.0,1
-13.0,5.0,208.0,-46.0,17.0,-6.0,1
-12.0,8.0,208.0,-46.0,16.0,-5.0,1
-8.0,5.0,199.0,-46.0,16.0,-5.0,1
-17.0,8.0,209.0,-46.0,15.0,-5.0,1
-14.0,6.0,211.0,-47.0,16.0,-5.0,1
-12.0,6.0,209.0,-48.0,17.0,-6.0,1
-12.0,7.0,210.0,-48.0,17.0,-6.0,1
-14.0,8.0,209.0,-51.0,17.0,-7.0,1
-15.0,6.0,208.0,-51.0,17.0,-7.0,1
-13.0,7.0,207.0,-51.0,17.0,-7.0,1
-12.0,9.0,213.0,-52.0,16.0,-4.0,1
-15.0,9.0,211.0,-53.0,19.0,-5.0,1
-14.0,8.0,211.0,-55.0,19.0,-5.0,1
-13.0,3.0,210.0,-56.0,19.0,-4.0,1
-11.0,5.0,209.0,-57.0,17.0,-5.0,1
-13.0,9.0,209.0,-57.0,19.0,-6.0,1
-11.0,6.0,207.0,-57.0,18.0,-7.0,1
-10.0,7.0,209.0,-57.0,18.0,-6.0,1
-12.0,6.0,212.0,-55.0,17.0,-5.0,1
-16.0,8.0,211.0,-55.0,15.0,-5.0,1
-15.0,7.0,214.0,-53.0,16.0,-7.0,1
-14.0,7.0,206.0,-54.0,15.0,-6.0,1
-15.0,8.0,209.0,-53.0,14.0,-5.0,1
-13.0,10.0,207.0,-52.0,14.0,-5.0,1
-8.0,11.0,210.0,-51.0,15.0,-3.0,1
-14.0,7.0,210.0,-51.0,15.0,-4.0,1
-13.0,6.0,210.0,-52.0,14.0,-6.0,1
-16.0,6.0,210.0,-52.0,14.0,-6.0,1
-12.0,9.0,210.0,-53.0,16.0,-6.0,1
-14.0,9.0,207.0,-53.0,16.0,-7.0,1
-13.0,8.0,208.0,-55.0,17.0,-6.0,1
-14.0,7.0,211.0,-56.0,18.0,-5.0,1
-15.0,9.0,206.0,-56.0,17.0,-6.0,1
-15.0,8.0,205.0,-57.0,17.0,-6.0,1
-14.0,7.0,209.0,-58.0,17.0,-5.0,1
-12.0,11.0,215.0,-58.0,18.0,-5.0,1
-12.0,6.0,211.0,-57.0,18.0,-6.0,1
-14.0,7.0,208.0,-58.0,17.0,-7.0,1
-14.0,6.0,210.0,-57.0,18.0,-7.0,1
-11.0,5.0,213.0,-58.0,17.0,-4.0,1
-11.0,6.0,210.0,-56.0,21.0,-4.0,1
-11.0,4.0,208.0,-54.0,23.0,-4.0,1
-14.0,7.0,209.0,-53.0,22.0,-5.0,1
-13.0,5.0,209.0,-51.0,24.0,-3.0,1
-11.0,6.0,209.0,-50.0,26.0,-3.0,1
-13.0,4.0,211.0,-50.0,25.0,-4.0,1
-15.0,6.0,207.0,-48.0,24.0,-3.0,1
-12.0,7.0,207.0,-46.0,22.0,-4.0,1
-10.0,5.0,208.0,-45.0,23.0,-2.0,1
-15.0,8.0,211.0,-45.0,21.0,-2.0,1
