ax,ay,az,gx,gy,gz,label
15.0,-250.0,5.0,55.0,27.0,-11.0,1
13.0,-251.0,11.0,52.0,28.0,-11.0,1
17.0,-250.0,9.0,52.0,27.0,-12.0,1
10.0,-246.0,7.0,53.0,23.0,-10.0,1
15.0,-250.0,8.0,54.0,17.0,-9.0,1
16.0,-247.0,7.0,56.0,10.0,-7.0,1
15.0,-253.0,13.0,56.0,3.0,-6.0,1
9.0,-248.0,13.0,54.0,-1.0,-5.0,1
15.0,-249.0,15.0,52.0,-2.0,-3.0,1
9.0,-246.0,8.0,52.0,2.0,-3.0,1
11.0,-251.0,8.0,54.0,4.0,-6.0,1
17.0,-251.0,12.0,57.0,7.0,-8.0,1
13.0,-248.0,12.0,63.0,9.0,-11.0,1
13.0,-245.0,9.0,65.0,10.0,-12.0,1
14.0,-247.0,5.0,67.0,7.0,-12.0,1
14.0,-249.0,5.0,70.0,6.0,-13.0,1
8.0,-248.0,4.0,71.0,2.0,-11.0,1
13.0,-249.0,11.0,71.0,1.0,-9.0,1
9.0,-244.0,11.0,70.0,-2.0,-9.0,1
12.0,-248.0,11.0,72.0,-2.0,-9.0,1
11.0,-248.0,13.0,72.0,-1.0,-9.0,1
11.0,-246.0,10.0,75.0,1.0,-9.0,1
11.0,-244.0,9.0,79.0,1.0,-9.0,1
8.0,-254.0,18.0,82.0,-1.0,-11.0,1
10.0,-249.0,13.0,84.0,-5.0,-8.0,1
7.0,-249.0,10.0,86.0,-7.0,-8.0,1
11.0,-243.0,19.0,86.0,-9.0,-9.0,1
8.0,-247.0,13.0,84.0,-9.0,-12.0,1
9.0,-246.0,15.0,80.0,-10.0,-14.0,1
9.0,-247.0,10.0,77.0,-8.0,-14.0,1
9.0,-246.0,13.0,73.0,-2.0,-17.0,1
14.0,-245.0,10.0,71.0,3.0,-20.0,1
11.0,-246.0,11.0,70.0,6.0,-21.0,1
12.0,-245.0,13.0,71.0,6.0,-20.0,1
14.0,-249.0,9.0,71.0,3.0,-20.0,1
14.0,-248.0,8.0,72.0,-1.0,-18.0,1
12.0,-248.0,11.0,76.0,-5.0,-16.0,1
15.0,-251.0,19.0,79.0,-9.0,-13.0,1
14.0,-244.0,12.0,84.0,-12.0,-12.0,1
13.0,-246.0,10.0,89.0,-15.0,-12.0,1
13.0,-246.0,13.0,92.0,-15.0,-13.0,1
13.0,-245.0,11.0,95.0,-14.0,-13.0,1
12.0,-246.0,13.0,96.0,-12.0,-15.0,1
14.0,-245.0,13.0,95.0,-10.0,-15.0,1
16.0,-249.0,12.0,93.0,-11.0,-15.0,1
15.0,-248.0,12.0,90.0,-13.0,-15.0,1
10.0,-247.0,5.0,85.0,-15.0,-16.0,1
12.0,-244.0,21.0,80.0,-15.0,-15.0,1
13.0,-246.0,13.0,76.0,-13.0,-12.0,1
11.0,-247.0,6.0,74.0,-7.0,-15.0,1
14.0,-247.0,11.0,74.0,-1.0,-18.0,1
17.0,-249.0,10.0,76.0,2.0,-21.0,1
14.0,-249.0,9.0,77.0,6.0,-20.0,1
16.0,-250.0,14.0,80.0,8.0,-22.0,1
7.0,-248.0,14.0,84.0,6.0,-21.0,1
15.0,-253.0,9.0,86.0,1.0,-20.0,1
16.0,-252.0,14.0,90.0,-6.0,-19.0,1
16.0,-252.0,15.0,92.0,-13.0,-16.0,1
12.0,-249.0,7.0,92.0,-20.0,-15.0,1
11.0,-247.0,12.0,91.0,-27.0,-13.0,1
14.0,-248.0,11.0,92.0,-31.0,-12.0,1
9.0,-245.0,10.0,88.0,-33.0,-11.0,1
14.0,-247.0,10.0,78.0,-29.0,-11.0,1
12.0,-248.0,16.0,73.0,-22.0,-13.0,1
12.0,-243.0,12.0,67.0,-13.0,-12.0,1
15.0,-247.0,13.0,63.0,-4.0,-16.0,1
12.0,-244.0,9.0,58.0,0.0,-16.0,1
17.0,-247.0,15.0,56.0,0.0,-20.0,1
14.0,-244.0,13.0,54.0,-1.0,-20.0,1
19.0,-249.0,20.0,53.0,-2.0,-20.0,1
14.0,-250.0,16.0,53.0,-5.0,-19.0,1
12.0,-249.0,15.0,54.0,-5.0,-16.0,1
15.0,-251.0,11.0,56.0,-3.0,-17.0,1
14.0,-250.0,8.0,58.0,-1.0,-15.0,1
15.0,-248.0,10.0,64.0,2.0,-16.0,1
18.0,-250.0,13.0,70.0,3.0,-17.0,1
20.0,-249.0,16.0,75.0,4.0,-16.0,1
15.0,-247.0,14.0,78.0,2.0,-17.0,1
15.0,-246.0,9.0,79.0,0.0,-16.0,1
16.0,-246.0,9.0,81.0,-3.0,-15.0,1
13.0,-246.0,14.0,79.0,-4.0,-13.0,1
14.0,-248.0,15.0,77.0,-2.0,-9.0,1
12.0,-247.0,14.0,76.0,0.0,-9.0,1
12.0,-247.0,15.0,74.0,3.0,-10.0,1
12.0,-245.0,11.0,72.0,4.0,-12.0,1
14.0,-247.0,9.0,69.0,5.0,-12.0,1
12.0,-247.0,11.0,64.0,6.0,-12.0,1
12.0,-242.0,17.0,61.0,7.0,-13.0,1
14.0,-246.0,17.0,57.0,9.0,-15.0,1
15.0,-242.0,16.0,56.0,12.0,-16.0,1
11.0,-237.0,15.0,57.0,13.0,-16.0,1
16.0,-249.0,14.0,58.0,16.0,-17.0,1
17.0,-248.0,14.0,61.0,16.0,-17.0,1
16.0,-252.0,16.0,63.0,16.0,-16.0,1
13.0,-250.0,10.0,66.0,11.0,-14.0,1
14.0,-249.0,16.0,66.0,9.0,-12.0,1
15.0,-250.0,14.0,64.0,4.0,-11.0,1
9.0,-250.0,13.0,66.0,1.0,-8.0,1
10.0,-245.0,9.0,65.0,1.0,-9.0,1
14.0,-250.0,13.0,66.0,0.0,-12.0,1
13.0,-247.0,16.0,65.0,-1.0,-11.0,1
11.0,-246.0,15.0,65.0,1.0,-12.0,1
15.0,-248.0,12.0,67.0,5.0,-14.0,1
13.0,-247.0,13.0,65.0,7.0,-15.0,1
13.0,-247.0,11.0,63.0,10.0,-16.0,1
13.0,-245.0,13.0,61.0,13.0,-15.0,1
19.0,-246.0,15.0,58.0,15.0,-14.0,1
15.0,-249.0,14.0,57.0,15.0,-13.0,1
14.0,-250.0,15.0,59.0,15.0,-14.0,1
7.0,-244.0,20.0,57.0,12.0,-12.0,1
13.0,-247.0,11.0,56.0,9.0,-11.0,1
16.0,-250.0,12.0,55.0,5.0,-10.0,1
13.0,-248.0,13.0,56.0,2.0,-11.0,1
15.0,-248.0,12.0,57.0,0.0,-10.0,1
15.0,-251.0,14.0,58.0,-3.0,-9.0,1
13.0,-248.0,15.0,60.0,-4.0,-8.0,1
10.0,-246.0,14.0,61.0,-5.0,-9.0,1
13.0,-251.0,15.0,64.0,-5.0,-9.0,1
15.0,-250.0,10.0,66.0,-5.0,-13.0,1
13.0,-247.0,9.0,67.0,-3.0,-14.0,1
11.0,-246.0,13.0,66.0,0.0,-14.0,1
11.0,-244.0,14.0,63.0,3.0,-14.0,1
8.0,-247.0,25.0,61.0,5.0,-15.0,1
12.0,-249.0,8.0,61.0,7.0,-15.0,1
13.0,-247.0,15.0,61.0,8.0,-14.0,1
10.0,-249.0,15.0,65.0,8.0,-14.0,1
13.0,-247.0,15.0,67.0,6.0,-15.0,1
14.0,-248.0,15.0,69.0,4.0,-14.0,1
14.0,-246.0,14.0,73.0,0.0,-13.0,1
12.0,-246.0,12.0,75.0,-3.0,-12.0,1
12.0,-247.0,16.0,76.0,-4.0,-11.0,1
13.0,-245.0,13.0,74.0,-4.0,-11.0,1
13.0,-249.0,12.0,72.0,-4.0,-10.0,1
13.0,-238.0,11.0,71.0,-2.0,-8.0,1
12.0,-247.0,8.0,74.0,1.0,-10.0,1
15.0,-248.0,14.0,79.0,4.0,-12.0,1
13.0,-245.0,16.0,83.0,5.0,-14.0,1
15.0,-247.0,19.0,87.0,6.0,-14.0,1
14.0,-249.0,13.0,90.0,6.0,-15.0,1
11.0,-249.0,16.0,89.0,8.0,-16.0,1
12.0,-243.0,17.0,89.0,8.0,-16.0,1
12.0,-247.0,14.0,88.0,7.0,-18.0,1
15.0,-243.0,20.0,89.0,6.0,-20.0,1
17.0,-241.0,13.0,88.0,6.0,-23.0,1
12.0,-242.0,18.0,86.0,6.0,-26.0,1
14.0,-241.0,17.0,80.0,6.0,-28.0,1
13.0,-242.0,15.0,70.0,6.0,-31.0,1
14.0,-240.0,17.0,62.0,3.0,-33.0,1
14.0,-240.0,16.0,54.0,1.0,-34.0,1
14.0,-242.0,18.0,47.0,-2.0,-38.0,1
11.0,-241.0,16.0,39.0,-5.0,-36.0,1
16.0,-245.0,19.0,32.0,-6.0,-35.0,1
16.0,-239.0,17.0,31.0,-7.0,-34.0,1
20.0,-246.0,19.0,31.0,-6.0,-33.0,1
12.0,-250.0,23.0,36.0,-3.0,-32.0,1
19.0,-248.0,17.0,44.0,-1.0,-30.0,1
16.0,-253.0,13.0,50.0,-1.0,-23.0,1
7.0,-255.0,10.0,46.0,-7.0,-11.0,1
6.0,-256.0,8.0,31.0,-24.0,9.0,1
8.0,-259.0,6.0,17.0,-46.0,18.0,1
15.0,-258.0,7.0,22.0,-61.0,14.0,1
12.0,-255.0,6.0,40.0,-72.0,10.0,1
11.0,-257.0,5.0,70.0,-81.0,10.0,1
18.0,-256.0,5.0,101.0,-87.0,7.0,1
16.0,-255.0,9.0,130.0,-89.0,4.0,1
9.0,-246.0,12.0,152.0,-83.0,-1.0,1
15.0,-248.0,11.0,169.0,-72.0,-5.0,1
15.0,-246.0,12.0,180.0,-57.0,-10.0,1
13.0,-243.0,12.0,180.0,-42.0,-10.0,1
15.0,-243.0,15.0,171.0,-27.0,-12.0,1
16.0,-239.0,15.0,160.0,-18.0,-14.0,1
11.0,-238.0,11.0,145.0,-12.0,-12.0,1
10.0,-241.0,21.0,127.0,-11.0,-10.0,1
11.0,-240.0,14.0,106.0,-12.0,-11.0,1
8.0,-243.0,17.0,90.0,-15.0,-10.0,1
4.0,-243.0,18.0,75.0,-16.0,-10.0,1
10.0,-249.0,20.0,68.0,-17.0,-11.0,1
9.0,-249.0,18.0,66.0,-18.0,-13.0,1
8.0,-251.0,16.0,71.0,-17.0,-14.0,1
8.0,-251.0,18.0,82.0,-17.0,-15.0,1
9.0,-251.0,17.0,94.0,-16.0,-18.0,1
11.0,-251.0,17.0,105.0,-14.0,-21.0,1
8.0,-248.0,17.0,116.0,-13.0,-23.0,1
11.0,-250.0,13.0,124.0,-8.0,-21.0,1
12.0,-247.0,15.0,130.0,-5.0,-21.0,1
12.0,-245.0,12.0,133.0,-2.0,-21.0,1
9.0,-248.0,13.0,132.0,-2.0,-20.0,1
15.0,-249.0,14.0,128.0,-2.0,-20.0,1
15.0,-244.0,19.0,121.0,-4.0,-16.0,1
13.0,-247.0,17.0,114.0,-7.0,-13.0,1
20.0,-247.0,18.0,111.0,-9.0,-14.0,1
19.0,-246.0,20.0,107.0,-11.0,-12.0,1
17.0,-243.0,18.0,104.0,-9.0,-13.0,1
17.0,-245.0,19.0,103.0,-5.0,-14.0,1
15.0,-241.0,18.0,103.0,0.0,-16.0,1
15.0,-245.0,23.0,102.0,4.0,-19.0,1
20.0,-243.0,21.0,100.0,12.0,-24.0,1
13.0,-244.0,19.0,94.0,16.0,-27.0,1
21.0,-241.0,18.0,87.0,22.0,-29.0,1
20.0,-245.0,18.0,82.0,27.0,-33.0,1
18.0,-244.0,18.0,76.0,31.0,-34.0,1
19.0,-246.0,17.0,71.0,33.0,-38.0,1
19.0,-247.0,17.0,68.0,32.0,-37.0,1
17.0,-246.0,21.0,67.0,31.0,-36.0,1
17.0,-251.0,18.0,67.0,28.0,-33.0,1
15.0,-252.0,16.0,68.0,23.0,-30.0,1
18.0,-254.0,21.0,69.0,18.0,-27.0,1
17.0,-248.0,15.0,71.0,15.0,-25.0,1
18.0,-252.0,18.0,74.0,12.0,-21.0,1
17.0,-253.0,22.0,77.0,12.0,-20.0,1
15.0,-249.0,20.0,80.0,14.0,-17.0,1
18.0,-251.0,18.0,82.0,18.0,-15.0,1
13.0,-248.0,18.0,86.0,24.0,-16.0,1
15.0,-247.0,20.0,90.0,32.0,-16.0,1
14.0,-245.0,15.0,93.0,39.0,-19.0,1
15.0,-244.0,22.0,96.0,46.0,-18.0,1
20.0,-249.0,16.0,96.0,50.0,-19.0,1
14.0,-241.0,20.0,97.0,54.0,-18.0,1
16.0,-233.0,22.0,97.0,59.0,-21.0,1
16.0,-245.0,21.0,93.0,61.0,-19.0,1
16.0,-245.0,23.0,87.0,63.0,-18.0,1
16.0,-243.0,18.0,79.0,62.0,-15.0,1
14.0,-245.0,17.0,72.0,60.0,-12.0,1
17.0,-244.0,21.0,64.0,58.0,-8.0,1
19.0,-246.0,16.0,58.0,59.0,-6.0,1
14.0,-247.0,19.0,53.0,58.0,-4.0,1
15.0,-244.0,22.0,48.0,57.0,2.0,1
20.0,-253.0,25.0,45.0,58.0,5.0,1
21.0,-251.0,21.0,44.0,59.0,6.0,1
27.0,-250.0,20.0,43.0,58.0,7.0,1
19.0,-250.0,21.0,42.0,61.0,8.0,1
21.0,-246.0,17.0,43.0,66.0,8.0,1
18.0,-249.0,16.0,44.0,69.0,6.0,1
17.0,-246.0,18.0,44.0,73.0,8.0,1
18.0,-242.0,16.0,44.0,76.0,8.0,1
18.0,-243.0,19.0,43.0,79.0,7.0,1
17.0,-241.0,18.0,43.0,80.0,8.0,1
20.0,-246.0,21.0,40.0,78.0,8.0,1
17.0,-241.0,24.0,36.0,73.0,9.0,1
19.0,-243.0,19.0,31.0,67.0,9.0,1
18.0,-246.0,17.0,26.0,62.0,9.0,1
17.0,-246.0,21.0,22.0,56.0,10.0,1
15.0,-248.0,21.0,20.0,51.0,11.0,1
20.0,-247.0,19.0,21.0,44.0,12.0,1
19.0,-248.0,17.0,24.0,40.0,12.0,1
18.0,-246.0,18.0,28.0,36.0,14.0,1
18.0,-248.0,19.0,35.0,32.0,15.0,1
18.0,-249.0,20.0,47.0,28.0,13.0,1
18.0,-250.0,21.0,59.0,25.0,12.0,1
15.0,-249.0,20.0,68.0,17.0,11.0,1
18.0,-249.0,29.0,76.0,6.0,10.0,1
13.0,-246.0,22.0,80.0,-6.0,7.0,1
10.0,-244.0,23.0,83.0,-13.0,6.0,1
6.0,-247.0,21.0,83.0,-14.0,3.0,1
6.0,-244.0,22.0,79.0,-11.0,-1.0,1
7.0,-247.0,19.0,76.0,-3.0,-7.0,1
5.0,-242.0,22.0,72.0,6.0,-13.0,1
5.0,-246.0,21.0,68.0,14.0,-20.0,1
8.0,-249.0,15.0,64.0,21.0,-28.0,1
9.0,-250.0,22.0,59.0,26.0,-31.0,1
9.0,-252.0,15.0,61.0,34.0,-34.0,1
7.0,-252.0,27.0,65.0,38.0,-35.0,1
13.0,-254.0,23.0,73.0,40.0,-35.0,1
10.0,-251.0,24.0,80.0,40.0,-30.0,1
11.0,-253.0,23.0,87.0,40.0,-27.0,1
7.0,-250.0,20.0,96.0,38.0,-24.0,1
6.0,-250.0,21.0,101.0,36.0,-20.0,1
6.0,-249.0,20.0,104.0,31.0,-17.0,1
8.0,-250.0,16.0,104.0,26.0,-15.0,1
6.0,-245.0,20.0,103.0,23.0,-15.0,1
6.0,-248.0,20.0,101.0,20.0,-14.0,1
3.0,-246.0,21.0,98.0,18.0,-12.0,1
3.0,-250.0,20.0,94.0,17.0,-11.0,1
6.0,-244.0,17.0,90.0,16.0,-10.0,1
8.0,-246.0,19.0,85.0,14.0,-11.0,1
9.0,-245.0,18.0,80.0,11.0,-14.0,1
11.0,-245.0,16.0,75.0,8.0,-16.0,1
12.0,-246.0,16.0,67.0,5.0,-19.0,1
11.0,-240.0,20.0,58.0,2.0,-20.0,1
14.0,-245.0,19.0,49.0,-1.0,-21.0,1
11.0,-242.0,17.0,40.0,-5.0,-22.0,1
14.0,-245.0,10.0,29.0,-7.0,-23.0,1
7.0,-244.0,15.0,20.0,-11.0,-22.0,1
15.0,-243.0,17.0,14.0,-15.0,-20.0,1
14.0,-247.0,18.0,8.0,-18.0,-23.0,1
11.0,-249.0,18.0,7.0,-19.0,-25.0,1
14.0,-247.0,20.0,7.0,-21.0,-24.0,1
12.0,-247.0,19.0,10.0,-23.0,-23.0,1
11.0,-246.0,15.0,14.0,-26.0,-24.0,1
11.0,-247.0,19.0,18.0,-30.0,-24.0,1
14.0,-248.0,20.0,23.0,-33.0,-23.0,1
6.0,-244.0,15.0,30.0,-39.0,-24.0,1
7.0,-249.0,16.0,34.0,-45.0,-24.0,1
11.0,-249.0,17.0,39.0,-53.0,-24.0,1
9.0,-248.0,14.0,43.0,-57.0,-24.0,1
12.0,-249.0,18.0,45.0,-62.0,-24.0,1
9.0,-249.0,16.0,48.0,-65.0,-22.0,1
10.0,-249.0,16.0,51.0,-69.0,-24.0,1
11.0,-250.0,13.0,52.0,-71.0,-22.0,1
13.0,-251.0,15.0,54.0,-73.0,-24.0,1
8.0,-249.0,16.0,58.0,-74.0,-24.0,1
11.0,-249.0,20.0,63.0,-72.0,-25.0,1
13.0,-250.0,17.0,70.0,-73.0,-24.0,1
12.0,-245.0,20.0,72.0,-73.0,-26.0,1
10.0,-246.0,10.0,74.0,-74.0,-23.0,1
15.0,-248.0,18.0,75.0,-74.0,-23.0,1
15.0,-246.0,17.0,77.0,-72.0,-21.0,1
16.0,-248.0,18.0,77.0,-73.0,-21.0,1
19.0,-247.0,21.0,77.0,-73.0,-20.0,1
18.0,-244.0,20.0,77.0,-74.0,-23.0,1
16.0,-244.0,20.0,80.0,-75.0,-22.0,1
16.0,-247.0,22.0,80.0,-75.0,-19.0,1
14.0,-240.0,19.0,82.0,-76.0,-16.0,1
17.0,-243.0,20.0,80.0,-77.0,-13.0,1
22.0,-245.0,26.0,78.0,-77.0,-14.0,1
14.0,-245.0,21.0,75.0,-76.0,-14.0,1
19.0,-248.0,21.0,72.0,-79.0,-13.0,1
15.0,-246.0,21.0,70.0,-79.0,-12.0,1
17.0,-249.0,26.0,68.0,-80.0,-12.0,1
19.0,-245.0,24.0,67.0,-79.0,-10.0,1
17.0,-246.0,20.0,65.0,-79.0,-12.0,1
16.0,-246.0,18.0,63.0,-75.0,-12.0,1
16.0,-248.0,22.0,61.0,-72.0,-13.0,1
15.0,-247.0,21.0,62.0,-69.0,-12.0,1
19.0,-246.0,22.0,64.0,-68.0,-13.0,1
15.0,-248.0,20.0,66.0,-67.0,-13.0,1
16.0,-247.0,26.0,68.0,-67.0,-13.0,1
16.0,-250.0,21.0,70.0,-68.0,-11.0,1
17.0,-249.0,22.0,70.0,-66.0,-8.0,1
17.0,-248.0,24.0,72.0,-65.0,-8.0,1
17.0,-247.0,21.0,74.0,-62.0,-8.0,1
19.0,-247.0,25.0,77.0,-61.0,-7.0,1
17.0,-246.0,28.0,79.0,-59.0,-8.0,1
18.0,-245.0,23.0,80.0,-58.0,-8.0,1
18.0,-249.0,22.0,79.0,-56.0,-7.0,1
18.0,-248.0,23.0,78.0,-54.0,-6.0,1
17.0,-251.0,25.0,75.0,-53.0,-8.0,1
17.0,-245.0,22.0,71.0,-50.0,-7.0,1
17.0,-246.0,23.0,66.0,-48.0,-8.0,1
16.0,-244.0,25.0,61.0,-44.0,-9.0,1
18.0,-243.0,21.0,56.0,-41.0,-8.0,1
18.0,-245.0,27.0,50.0,-39.0,-6.0,1
14.0,-241.0,25.0,44.0,-38.0,-2.0,1
21.0,-244.0,26.0,39.0,-35.0,1.0,1
13.0,-239.0,23.0,36.0,-32.0,4.0,1
12.0,-241.0,22.0,34.0,-28.0,3.0,1
18.0,-246.0,24.0,35.0,-24.0,4.0,1
16.0,-246.0,25.0,34.0,-23.0,3.0,1
19.0,-250.0,22.0,35.0,-22.0,1.0,1
18.0,-246.0,24.0,35.0,-22.0,1.0,1
17.0,-248.0,23.0,33.0,-21.0,0.0,1
18.0,-249.0,22.0,33.0,-20.0,-2.0,1
15.0,-248.0,21.0,32.0,-19.0,-3.0,1
15.0,-251.0,20.0,32.0,-20.0,-3.0,1
17.0,-252.0,18.0,34.0,-17.0,-2.0,1
13.0,-249.0,25.0,35.0,-14.0,-2.0,1
13.0,-247.0,23.0,34.0,-13.0,-4.0,1
18.0,-246.0,14.0,31.0,-9.0,-3.0,1
15.0,-245.0,24.0,28.0,-8.0,-4.0,1
10.0,-247.0,23.0,26.0,-6.0,-3.0,1
14.0,-249.0,25.0,24.0,-5.0,-1.0,1
13.0,-248.0,23.0,22.0,-7.0,-2.0,1
11.0,-247.0,22.0,19.0,-10.0,-3.0,1
10.0,-248.0,25.0,20.0,-12.0,-3.0,1
9.0,-247.0,23.0,19.0,-12.0,-2.0,1
14.0,-248.0,21.0,19.0,-13.0,0.0,1
14.0,-248.0,19.0,18.0,-11.0,3.0,1
14.0,-246.0,18.0,19.0,-12.0,7.0,1
9.0,-250.0,21.0,20.0,-14.0,11.0,1
13.0,-249.0,17.0,23.0,-16.0,14.0,1
16.0,-250.0,18.0,27.0,-20.0,16.0,1
13.0,-246.0,14.0,31.0,-24.0,19.0,1
12.0,-248.0,16.0,35.0,-26.0,18.0,1
12.0,-248.0,15.0,36.0,-26.0,20.0,1
15.0,-244.0,16.0,34.0,-27.0,21.0,1
8.0,-246.0,18.0,30.0,-26.0,21.0,1
16.0,-246.0,16.0,27.0,-23.0,20.0,1
12.0,-241.0,11.0,26.0,-21.0,17.0,1
19.0,-248.0,18.0,27.0,-21.0,15.0,1
12.0,-243.0,19.0,31.0,-20.0,12.0,1
15.0,-244.0,16.0,38.0,-22.0,7.0,1
15.0,-243.0,20.0,48.0,-24.0,2.0,1
16.0,-243.0,18.0,56.0,-28.0,-1.0,1
17.0,-243.0,19.0,60.0,-30.0,-5.0,1
16.0,-242.0,19.0,63.0,-32.0,-6.0,1
19.0,-241.0,14.0,59.0,-35.0,-4.0,1
19.0,-248.0,17.0,53.0,-36.0,-7.0,1
15.0,-243.0,16.0,41.0,-39.0,-4.0,1
19.0,-250.0,15.0,30.0,-37.0,-2.0,1
13.0,-246.0,20.0,18.0,-32.0,-2.0,1
19.0,-247.0,17.0,9.0,-25.0,0.0,1
17.0,-250.0,18.0,3.0,-18.0,1.0,1
17.0,-247.0,17.0,-2.0,-9.0,-3.0,1
16.0,-251.0,20.0,-2.0,1.0,-3.0,1
17.0,-249.0,16.0,1.0,8.0,-7.0,1
12.0,-249.0,20.0,6.0,14.0,-10.0,1
13.0,-248.0,20.0,9.0,18.0,-12.0,1
10.0,-248.0,13.0,10.0,24.0,-12.0,1
13.0,-246.0,19.0,13.0,31.0,-13.0,1
15.0,-249.0,19.0,15.0,35.0,-15.0,1
9.0,-252.0,21.0,18.0,35.0,-11.0,1
11.0,-246.0,16.0,18.0,32.0,-12.0,1
13.0,-248.0,14.0,20.0,29.0,-11.0,1
13.0,-247.0,15.0,20.0,26.0,-10.0,1
15.0,-247.0,15.0,25.0,21.0,-7.0,1
14.0,-249.0,16.0,28.0,19.0,-5.0,1
15.0,-245.0,16.0,35.0,16.0,-2.0,1
14.0,-245.0,18.0,42.0,14.0,-2.0,1
20.0,-247.0,18.0,52.0,15.0,-1.0,1
19.0,-250.0,21.0,61.0,15.0,0.0,1
23.0,-247.0,21.0,70.0,16.0,-1.0,1
20.0,-244.0,16.0,78.0,19.0,-1.0,1
19.0,-247.0,14.0,83.0,23.0,-2.0,1
20.0,-244.0,19.0,86.0,25.0,-4.0,1
20.0,-246.0,15.0,86.0,30.0,-3.0,1
19.0,-244.0,15.0,82.0,37.0,-3.0,1
19.0,-244.0,15.0,80.0,41.0,-4.0,1
15.0,-240.0,11.0,76.0,45.0,-4.0,1
17.0,-243.0,16.0,70.0,48.0,-3.0,1
13.0,-241.0,12.0,66.0,51.0,-5.0,1
13.0,-244.0,21.0,62.0,52.0,-4.0,1
24.0,-242.0,26.0,57.0,55.0,-6.0,1
14.0,-247.0,15.0,54.0,59.0,-7.0,1
16.0,-248.0,21.0,53.0,62.0,-7.0,1
15.0,-250.0,16.0,51.0,63.0,-9.0,1
17.0,-251.0,20.0,50.0,66.0,-8.0,1
14.0,-252.0,20.0,51.0,67.0,-9.0,1
12.0,-251.0,20.0,54.0,67.0,-11.0,1
9.0,-251.0,22.0,56.0,66.0,-12.0,1
12.0,-250.0,19.0,56.0,63.0,-13.0,1
14.0,-245.0,19.0,57.0,58.0,-14.0,1
10.0,-245.0,20.0,58.0,56.0,-18.0,1
5.0,-243.0,20.0,61.0,53.0,-23.0,1
9.0,-246.0,21.0,61.0,51.0,-29.0,1
7.0,-246.0,21.0,62.0,49.0,-34.0,1
5.0,-244.0,20.0,62.0,47.0,-39.0,1
5.0,-244.0,21.0,63.0,45.0,-43.0,1
4.0,-243.0,23.0,62.0,41.0,-49.0,1
4.0,-246.0,21.0,58.0,37.0,-53.0,1
4.0,-241.0,18.0,54.0,37.0,-54.0,1
6.0,-247.0,18.0,45.0,35.0,-55.0,1
4.0,-249.0,19.0,34.0,32.0,-55.0,1
6.0,-246.0,19.0,24.0,30.0,-52.0,1
9.0,-254.0,18.0,15.0,30.0,-47.0,1
11.0,-256.0,21.0,15.0,34.0,-40.0,1
13.0,-259.0,23.0,20.0,38.0,-29.0,1
12.0,-258.0,21.0,30.0,43.0,-16.0,1
14.0,-258.0,20.0,46.0,45.0,-6.0,1
14.0,-258.0,22.0,62.0,45.0,2.0,1
10.0,-254.0,18.0,75.0,42.0,6.0,1
10.0,-249.0,13.0,83.0,38.0,6.0,1
14.0,-247.0,15.0,86.0,36.0,1.0,1
13.0,-242.0,11.0,83.0,36.0,-5.0,1
15.0,-242.0,11.0,79.0,39.0,-14.0,1
12.0,-238.0,16.0,74.0,45.0,-24.0,1
14.0,-235.0,11.0,67.0,53.0,-35.0,1
15.0,-237.0,17.0,62.0,62.0,-44.0,1
17.0,-238.0,12.0,59.0,71.0,-51.0,1
18.0,-239.0,14.0,52.0,79.0,-54.0,1
19.0,-241.0,14.0,43.0,81.0,-55.0,1
20.0,-245.0,19.0,35.0,83.0,-52.0,1
23.0,-246.0,18.0,30.0,82.0,-48.0,1
22.0,-250.0,20.0,29.0,82.0,-44.0,1
22.0,-251.0,22.0,33.0,82.0,-38.0,1
17.0,-250.0,10.0,37.0,81.0,-33.0,1
20.0,-251.0,18.0,48.0,81.0,-29.0,1
16.0,-250.0,18.0,60.0,79.0,-28.0,1
14.0,-249.0,18.0,72.0,76.0,-30.0,1
14.0,-249.0,17.0,80.0,74.0,-30.0,1
13.0,-249.0,16.0,84.0,72.0,-32.0,1
12.0,-249.0,18.0,86.0,71.0,-35.0,1
12.0,-246.0,20.0,85.0,68.0,-39.0,1
14.0,-247.0,17.0,82.0,68.0,-41.0,1
15.0,-245.0,16.0,80.0,67.0,-44.0,1
16.0,-244.0,23.0,78.0,65.0,-44.0,1
15.0,-242.0,19.0,77.0,61.0,-44.0,1
18.0,-248.0,17.0,74.0,56.0,-44.0,1
19.0,-244.0,21.0,72.0,52.0,-40.0,1
18.0,-244.0,20.0,69.0,49.0,-35.0,1
21.0,-242.0,19.0,67.0,47.0,-30.0,1
18.0,-243.0,17.0,66.0,47.0,-27.0,1
17.0,-242.0,18.0,66.0,48.0,-22.0,1
17.0,-244.0,18.0,67.0,50.0,-19.0,1
17.0,-243.0,22.0,69.0,50.0,-14.0,1
18.0,-243.0,19.0,72.0,49.0,-11.0,1
24.0,-249.0,17.0,73.0,45.0,-8.0,1
14.0,-250.0,17.0,72.0,42.0,-5.0,1
17.0,-249.0,17.0,73.0,36.0,-1.0,1
14.0,-245.0,14.0,70.0,30.0,0.0,1
15.0,-245.0,14.0,70.0,23.0,3.0,1
17.0,-247.0,14.0,69.0,20.0,4.0,1
18.0,-246.0,16.0,69.0,16.0,3.0,1
14.0,-246.0,17.0,71.0,12.0,4.0,1
13.0,-244.0,11.0,73.0,10.0,3.0,1
12.0,-247.0,19.0,76.0,6.0,-1.0,1
10.0,-245.0,19.0,80.0,3.0,-1.0,1
7.0,-244.0,20.0,82.0,1.0,-4.0,1
13.0,-248.0,22.0,83.0,-2.0,-3.0,1
13.0,-247.0,27.0,83.0,-5.0,-7.0,1
12.0,-249.0,25.0,82.0,-6.0,-7.0,1
10.0,-248.0,24.0,80.0,-8.0,-6.0,1
12.0,-248.0,21.0,76.0,-8.0,-7.0,1
13.0,-247.0,22.0,72.0,-9.0,-9.0,1
11.0,-253.0,20.0,70.0,-11.0,-8.0,1
14.0,-249.0,22.0,71.0,-12.0,-7.0,1
11.0,-249.0,20.0,71.0,-12.0,-9.0,1
10.0,-249.0,21.0,71.0,-9.0,-9.0,1
9.0,-245.0,21.0,72.0,-9.0,-9.0,1
11.0,-251.0,21.0,75.0,-7.0,-8.0,1
12.0,-248.0,25.0,80.0,-4.0,-7.0,1
11.0,-249.0,24.0,85.0,0.0,-8.0,1
11.0,-249.0,26.0,91.0,0.0,-10.0,1
11.0,-247.0,24.0,95.0,0.0,-12.0,1
7.0,-247.0,25.0,95.0,-2.0,-12.0,1
10.0,-245.0,20.0,93.0,-3.0,-13.0,1
11.0,-243.0,19.0,90.0,-2.0,-10.0,1
14.0,-247.0,26.0,86.0,-4.0,-8.0,1
12.0,-251.0,31.0,84.0,-5.0,-8.0,1
8.0,-247.0,21.0,82.0,-6.0,-4.0,1
13.0,-250.0,23.0,82.0,-9.0,-5.0,1
11.0,-245.0,22.0,81.0,-9.0,-5.0,1
13.0,-248.0,23.0,81.0,-12.0,-7.0,1
12.0,-248.0,20.0,83.0,-16.0,-8.0,1
14.0,-246.0,17.0,84.0,-16.0,-8.0,1
16.0,-247.0,28.0,88.0,-13.0,-7.0,1
15.0,-244.0,20.0,91.0,-10.0,-9.0,1
17.0,-245.0,21.0,93.0,-6.0,-8.0,1
14.0,-242.0,21.0,91.0,-4.0,-11.0,1
26.0,-246.0,23.0,90.0,-1.0,-11.0,1
16.0,-241.0,25.0,88.0,3.0,-10.0,1
17.0,-243.0,19.0,86.0,2.0,-10.0,1
18.0,-246.0,24.0,82.0,-3.0,-12.0,1
18.0,-244.0,20.0,79.0,-8.0,-13.0,1
18.0,-245.0,22.0,74.0,-13.0,-10.0,1
16.0,-244.0,23.0,72.0,-16.0,-11.0,1
14.0,-245.0,16.0,70.0,-20.0,-9.0,1
17.0,-247.0,19.0,68.0,-21.0,-8.0,1
17.0,-251.0,21.0,69.0,-19.0,-5.0,1
17.0,-246.0,20.0,71.0,-17.0,-6.0,1
14.0,-248.0,21.0,73.0,-15.0,-8.0,1
14.0,-247.0,24.0,73.0,-13.0,-11.0,1
16.0,-247.0,15.0,75.0,-11.0,-11.0,1
16.0,-246.0,18.0,75.0,-9.0,-13.0,1
20.0,-248.0,20.0,74.0,-5.0,-15.0,1
15.0,-246.0,21.0,75.0,-4.0,-15.0,1
13.0,-245.0,21.0,78.0,-2.0,-14.0,1
12.0,-244.0,22.0,79.0,-1.0,-13.0,1
14.0,-245.0,20.0,79.0,0.0,-13.0,1
12.0,-245.0,23.0,81.0,0.0,-12.0,1
14.0,-250.0,32.0,83.0,0.0,-10.0,1
18.0,-246.0,24.0,82.0,0.0,-11.0,1
12.0,-244.0,23.0,82.0,1.0,-12.0,1
16.0,-246.0,19.0,81.0,0.0,-10.0,1
17.0,-246.0,23.0,81.0,-1.0,-9.0,1
14.0,-245.0,22.0,78.0,-5.0,-10.0,1
16.0,-246.0,21.0,75.0,-7.0,-10.0,1
15.0,-244.0,29.0,71.0,-8.0,-7.0,1
13.0,-248.0,21.0,67.0,-5.0,-9.0,1
15.0,-247.0,22.0,64.0,-4.0,-10.0,1
12.0,-245.0,21.0,61.0,-2.0,-10.0,1
11.0,-250.0,23.0,61.0,0.0,-9.0,1
15.0,-247.0,21.0,62.0,4.0,-10.0,1
11.0,-245.0,22.0,66.0,6.0,-11.0,1
15.0,-245.0,23.0,68.0,8.0,-12.0,1
16.0,-245.0,23.0,72.0,8.0,-12.0,1
13.0,-245.0,21.0,74.0,8.0,-11.0,1
19.0,-248.0,23.0,74.0,6.0,-12.0,1
16.0,-244.0,23.0,73.0,7.0,-10.0,1
14.0,-246.0,21.0,71.0,7.0,-8.0,1
18.0,-245.0,23.0,70.0,7.0,-7.0,1
16.0,-244.0,19.0,69.0,8.0,-7.0,1
16.0,-252.0,26.0,69.0,7.0,-7.0,1
17.0,-249.0,22.0,70.0,6.0,-4.0,1
16.0,-244.0,19.0,72.0,4.0,-4.0,1
17.0,-245.0,19.0,75.0,5.0,-2.0,1
18.0,-245.0,20.0,78.0,6.0,-3.0,1
16.0,-245.0,26.0,81.0,12.0,-2.0,1
15.0,-247.0,21.0,84.0,15.0,-1.0,1
18.0,-249.0,23.0,86.0,16.0,1.0,1
14.0,-247.0,27.0,86.0,18.0,2.0,1
14.0,-251.0,24.0,85.0,18.0,2.0,1
13.0,-248.0,22.0,85.0,15.0,2.0,1
14.0,-247.0,22.0,84.0,12.0,2.0,1
14.0,-249.0,24.0,83.0,10.0,3.0,1
11.0,-248.0,23.0,83.0,7.0,1.0,1
11.0,-247.0,27.0,84.0,5.0,1.0,1
10.0,-248.0,23.0,84.0,3.0,2.0,1
13.0,-250.0,26.0,84.0,3.0,0.0,1
11.0,-245.0,26.0,86.0,3.0,0.0,1
12.0,-249.0,24.0,86.0,5.0,-1.0,1
13.0,-246.0,23.0,87.0,7.0,-3.0,1
13.0,-247.0,28.0,87.0,12.0,-4.0,1
11.0,-246.0,24.0,87.0,15.0,-6.0,1
14.0,-246.0,25.0,84.0,16.0,-8.0,1
16.0,-245.0,24.0,80.0,16.0,-7.0,1
15.0,-244.0,23.0,75.0,16.0,-8.0,1
15.0,-249.0,24.0,72.0,16.0,-7.0,1
16.0,-245.0,25.0,68.0,16.0,-6.0,1
16.0,-244.0,25.0,64.0,16.0,-6.0,1
16.0,-245.0,24.0,61.0,16.0,-8.0,1
14.0,-245.0,24.0,57.0,17.0,-9.0,1
17.0,-245.0,24.0,54.0,17.0,-9.0,1
18.0,-241.0,26.0,50.0,19.0,-6.0,1
10.0,-244.0,18.0,48.0,19.0,-5.0,1
16.0,-245.0,25.0,46.0,20.0,-4.0,1
16.0,-246.0,25.0,44.0,22.0,-3.0,1
17.0,-244.0,26.0,42.0,21.0,-2.0,1
13.0,-246.0,24.0,41.0,20.0,1.0,1
18.0,-245.0,26.0,41.0,18.0,2.0,1
13.0,-246.0,25.0,41.0,14.0,2.0,1
13.0,-247.0,21.0,41.0,10.0,2.0,1
16.0,-248.0,25.0,40.0,8.0,3.0,1
16.0,-246.0,22.0,40.0,7.0,4.0,1
14.0,-248.0,32.0,41.0,9.0,4.0,1
15.0,-246.0,23.0,43.0,11.0,2.0,1
12.0,-249.0,24.0,45.0,14.0,3.0,1
13.0,-244.0,26.0,48.0,18.0,0.0,1
14.0,-247.0,28.0,50.0,22.0,-4.0,1
12.0,-246.0,30.0,54.0,26.0,-8.0,1
15.0,-248.0,29.0,55.0,27.0,-12.0,1
13.0,-246.0,23.0,53.0,28.0,-12.0,1
13.0,-244.0,26.0,49.0,28.0,-13.0,1
13.0,-245.0,25.0,42.0,27.0,-10.0,1
11.0,-245.0,25.0,38.0,27.0,-11.0,1
13.0,-245.0,31.0,34.0,26.0,-10.0,1
14.0,-245.0,25.0,32.0,26.0,-10.0,1
12.0,-245.0,22.0,29.0,24.0,-11.0,1
15.0,-242.0,28.0,28.0,21.0,-10.0,1
12.0,-247.0,25.0,25.0,18.0,-10.0,1
15.0,-248.0,26.0,22.0,17.0,-9.0,1
15.0,-249.0,25.0,18.0,14.0,-7.0,1
15.0,-244.0,24.0,15.0,13.0,-5.0,1
17.0,-249.0,25.0,11.0,12.0,-2.0,1
13.0,-246.0,26.0,11.0,11.0,-4.0,1
13.0,-248.0,21.0,13.0,10.0,-5.0,1
16.0,-248.0,32.0,14.0,10.0,-5.0,1
14.0,-248.0,21.0,15.0,9.0,-6.0,1
15.0,-247.0,25.0,16.0,9.0,-8.0,1
13.0,-247.0,22.0,16.0,9.0,-12.0,1
12.0,-246.0,18.0,16.0,9.0,-13.0,1
11.0,-245.0,22.0,13.0,8.0,-14.0,1
11.0,-245.0,20.0,9.0,7.0,-16.0,1
14.0,-243.0,23.0,8.0,6.0,-17.0,1
12.0,-244.0,21.0,6.0,7.0,-19.0,1
10.0,-244.0,25.0,4.0,6.0,-19.0,1
12.0,-243.0,24.0,0.0,5.0,-19.0,1
13.0,-244.0,22.0,-4.0,4.0,-20.0,1
15.0,-246.0,21.0,-7.0,5.0,-22.0,1
14.0,-245.0,25.0,-10.0,5.0,-21.0,1
13.0,-246.0,23.0,-16.0,3.0,-21.0,1
13.0,-249.0,24.0,-21.0,3.0,-20.0,1
14.0,-245.0,21.0,-25.0,4.0,-20.0,1
15.0,-245.0,24.0,-30.0,0.0,-21.0,1
16.0,-245.0,23.0,-36.0,-1.0,-20.0,1
14.0,-247.0,19.0,-44.0,-3.0,-20.0,1
13.0,-243.0,20.0,-49.0,-3.0,-18.0,1
16.0,-247.0,14.0,-54.0,-4.0,-18.0,1
15.0,-244.0,22.0,-58.0,-6.0,-18.0,1
13.0,-244.0,20.0,-62.0,-7.0,-16.0,1
15.0,-244.0,15.0,-65.0,-9.0,-17.0,1
13.0,-245.0,19.0,-68.0,-8.0,-16.0,1
16.0,-242.0,19.0,-73.0,-7.0,-14.0,1
20.0,-248.0,20.0,-79.0,-4.0,-13.0,1
12.0,-244.0,24.0,-84.0,-2.0,-12.0,1
15.0,-244.0,17.0,-87.0,-3.0,-11.0,1
13.0,-243.0,24.0,-88.0,-3.0,-7.0,1
18.0,-252.0,27.0,-86.0,-3.0,-6.0,1
21.0,-249.0,14.0,-80.0,-4.0,-6.0,1
13.0,-252.0,17.0,-69.0,-5.0,-7.0,1
18.0,-252.0,17.0,-55.0,-7.0,-7.0,1
12.0,-252.0,19.0,-37.0,-8.0,-9.0,1
14.0,-253.0,21.0,-18.0,-7.0,-9.0,1
14.0,-248.0,15.0,-2.0,-5.0,-12.0,1
12.0,-254.0,20.0,13.0,-3.0,-12.0,1
15.0,-250.0,14.0,25.0,1.0,-14.0,1
13.0,-249.0,19.0,32.0,2.0,-15.0,1
11.0,-244.0,17.0,34.0,4.0,-17.0,1
11.0,-241.0,13.0,32.0,4.0,-16.0,1
17.0,-247.0,15.0,26.0,3.0,-17.0,1
13.0,-245.0,18.0,19.0,2.0,-17.0,1
15.0,-247.0,15.0,11.0,1.0,-18.0,1
12.0,-243.0,16.0,3.0,0.0,-17.0,1
15.0,-246.0,18.0,-5.0,-2.0,-18.0,1
15.0,-245.0,18.0,-14.0,-2.0,-15.0,1
17.0,-247.0,17.0,-21.0,-1.0,-14.0,1
15.0,-244.0,17.0,-29.0,-2.0,-14.0,1
17.0,-244.0,21.0,-40.0,1.0,-11.0,1
19.0,-240.0,21.0,-52.0,0.0,-9.0,1
18.0,-243.0,17.0,-66.0,2.0,-8.0,1
16.0,-240.0,16.0,-84.0,4.0,-4.0,1
18.0,-239.0,14.0,-106.0,6.0,-3.0,1
15.0,-234.0,17.0,-132.0,7.0,3.0,1
20.0,-239.0,18.0,-162.0,8.0,7.0,1
17.0,-237.0,13.0,-193.0,9.0,8.0,1
16.0,-240.0,12.0,-224.0,11.0,10.0,1
17.0,-236.0,15.0,-249.0,14.0,11.0,1
15.0,-238.0,15.0,-271.0,18.0,10.0,1
15.0,-244.0,15.0,-286.0,20.0,8.0,1
12.0,-245.0,11.0,-293.0,23.0,6.0,1
11.0,-248.0,13.0,-293.0,27.0,5.0,1
14.0,-253.0,5.0,-286.0,30.0,4.0,1
18.0,-255.0,12.0,-275.0,34.0,3.0,1
17.0,-255.0,6.0,-260.0,41.0,3.0,1
19.0,-255.0,8.0,-241.0,49.0,3.0,1
18.0,-256.0,1.0,-218.0,59.0,2.0,1
17.0,-257.0,2.0,-190.0,70.0,0.0,1
16.0,-258.0,3.0,-160.0,77.0,0.0,1
19.0,-258.0,1.0,-127.0,85.0,-2.0,1
17.0,-255.0,-1.0,-96.0,90.0,-2.0,1
20.0,-255.0,1.0,-65.0,94.0,-2.0,1
23.0,-256.0,-1.0,-35.0,93.0,-2.0,1
18.0,-251.0,0.0,-9.0,91.0,-2.0,1
21.0,-250.0,-2.0,14.0,85.0,1.0,1
20.0,-247.0,0.0,32.0,81.0,2.0,1
21.0,-247.0,3.0,43.0,75.0,5.0,1
21.0,-244.0,4.0,47.0,70.0,12.0,1
18.0,-240.0,11.0,46.0,68.0,15.0,1
18.0,-241.0,11.0,44.0,66.0,21.0,1
15.0,-243.0,14.0,38.0,65.0,23.0,1
14.0,-245.0,11.0,31.0,65.0,24.0,1
24.0,-245.0,7.0,22.0,63.0,28.0,1
15.0,-243.0,13.0,10.0,62.0,31.0,1
14.0,-247.0,11.0,-4.0,62.0,34.0,1
14.0,-248.0,13.0,-18.0,62.0,39.0,1
14.0,-246.0,12.0,-32.0,61.0,44.0,1
18.0,-250.0,10.0,-48.0,64.0,49.0,1
19.0,-253.0,9.0,-62.0,65.0,54.0,1
20.0,-251.0,12.0,-73.0,65.0,57.0,1
24.0,-254.0,4.0,-81.0,68.0,60.0,1
20.0,-251.0,4.0,-86.0,71.0,64.0,1
25.0,-254.0,7.0,-85.0,73.0,67.0,1
25.0,-256.0,8.0,-81.0,70.0,67.0,1
25.0,-253.0,5.0,-78.0,65.0,68.0,1
21.0,-253.0,4.0,-75.0,52.0,66.0,1
16.0,-248.0,1.0,-79.0,36.0,68.0,1
16.0,-247.0,5.0,-88.0,21.0,72.0,1
14.0,-245.0,3.0,-99.0,16.0,77.0,1
13.0,-247.0,4.0,-108.0,24.0,81.0,1
11.0,-243.0,4.0,-114.0,40.0,79.0,1
9.0,-245.0,12.0,-117.0,57.0,79.0,1
11.0,-244.0,10.0,-117.0,75.0,77.0,1
8.0,-244.0,14.0,-113.0,92.0,73.0,1
9.0,-248.0,16.0,-106.0,104.0,71.0,1
14.0,-249.0,9.0,-96.0,110.0,71.0,1
10.0,-249.0,10.0,-84.0,113.0,73.0,1
9.0,-249.0,9.0,-75.0,112.0,75.0,1
12.0,-252.0,8.0,-68.0,106.0,76.0,1
14.0,-252.0,4.0,-63.0,100.0,80.0,1
11.0,-250.0,4.0,-57.0,95.0,86.0,1
15.0,-250.0,0.0,-49.0,91.0,90.0,1
13.0,-252.0,1.0,-35.0,89.0,95.0,1
14.0,-252.0,3.0,-18.0,88.0,97.0,1
22.0,-253.0,6.0,5.0,88.0,97.0,1
18.0,-254.0,0.0,31.0,88.0,96.0,1
18.0,-253.0,-1.0,61.0,85.0,96.0,1
15.0,-253.0,0.0,88.0,79.0,94.0,1
14.0,-252.0,-2.0,114.0,71.0,95.0,1
14.0,-251.0,-2.0,135.0,63.0,94.0,1
11.0,-248.0,-5.0,154.0,53.0,94.0,1
10.0,-254.0,-6.0,168.0,45.0,99.0,1
5.0,-251.0,-12.0,179.0,41.0,103.0,1
3.0,-247.0,-7.0,185.0,39.0,110.0,1
4.0,-247.0,-10.0,193.0,43.0,117.0,1
2.0,-247.0,-4.0,204.0,56.0,121.0,1
6.0,-252.0,-2.0,218.0,71.0,124.0,1
10.0,-250.0,-5.0,235.0,88.0,125.0,1
10.0,-251.0,-5.0,256.0,106.0,129.0,1
13.0,-249.0,-3.0,277.0,123.0,132.0,1
14.0,-249.0,-1.0,298.0,139.0,133.0,1
16.0,-249.0,-1.0,318.0,153.0,133.0,1
21.0,-250.0,-6.0,332.0,165.0,135.0,1
27.0,-252.0,0.0,343.0,175.0,138.0,1
23.0,-251.0,0.0,350.0,184.0,142.0,1
22.0,-249.0,-6.0,353.0,189.0,145.0,1
18.0,-251.0,-1.0,350.0,194.0,149.0,1
23.0,-251.0,0.0,343.0,199.0,155.0,1
26.0,-254.0,1.0,336.0,201.0,161.0,1
22.0,-250.0,0.0,330.0,200.0,166.0,1
24.0,-251.0,1.0,320.0,197.0,173.0,1
27.0,-251.0,1.0,311.0,195.0,177.0,1
25.0,-254.0,-2.0,302.0,193.0,185.0,1
26.0,-251.0,-7.0,295.0,194.0,200.0,1
25.0,-253.0,-5.0,296.0,198.0,219.0,1
20.0,-251.0,-4.0,303.0,201.0,241.0,1
22.0,-258.0,-3.0,323.0,202.0,254.0,1
17.0,-253.0,-9.0,355.0,206.0,273.0,1
15.0,-251.0,-7.0,402.0,211.0,294.0,1
12.0,-249.0,-7.0,463.0,218.0,317.0,1
9.0,-252.0,-4.0,528.0,220.0,335.0,1
10.0,-255.0,-2.0,592.0,219.0,347.0,1
8.0,-255.0,-4.0,654.0,217.0,357.0,1
6.0,-256.0,0.0,709.0,218.0,367.0,1
0.0,-255.0,-1.0,758.0,215.0,382.0,1
0.0,-256.0,4.0,801.0,209.0,398.0,1
-6.0,-257.0,7.0,839.0,200.0,401.0,1
-11.0,-256.0,4.0,869.0,195.0,400.0,1
-15.0,-258.0,5.0,892.0,186.0,403.0,1
-14.0,-262.0,11.0,914.0,177.0,400.0,1
-20.0,-259.0,14.0,937.0,166.0,385.0,1
-23.0,-258.0,17.0,961.0,156.0,378.0,1
-28.0,-259.0,19.0,987.0,144.0,375.0,1
-23.0,-258.0,24.0,1012.0,128.0,373.0,1
-26.0,-255.0,23.0,1039.0,114.0,366.0,1
-26.0,-253.0,27.0,1066.0,100.0,360.0,1
-31.0,-254.0,28.0,1090.0,82.0,352.0,1
-26.0,-253.0,35.0,1111.0,59.0,347.0,1
-31.0,-242.0,36.0,1133.0,38.0,341.0,1
-31.0,-248.0,30.0,1148.0,17.0,333.0,1
-32.0,-248.0,37.0,1154.0,-6.0,324.0,1
-31.0,-244.0,38.0,1154.0,-27.0,323.0,1
-29.0,-243.0,42.0,1152.0,-49.0,319.0,1
-27.0,-244.0,40.0,1151.0,-72.0,317.0,1
-28.0,-241.0,43.0,1141.0,-89.0,314.0,1
-32.0,-238.0,45.0,1127.0,-100.0,313.0,1
-28.0,-247.0,45.0,1114.0,-108.0,314.0,1
-22.0,-240.0,46.0,1102.0,-108.0,316.0,1
-28.0,-246.0,40.0,1089.0,-106.0,318.0,1
-21.0,-244.0,48.0,1074.0,-108.0,317.0,1
-21.0,-246.0,48.0,1060.0,-107.0,317.0,1
-19.0,-244.0,49.0,1051.0,-110.0,318.0,1
-14.0,-247.0,51.0,1044.0,-116.0,324.0,1
-14.0,-251.0,51.0,1044.0,-127.0,325.0,1
-14.0,-251.0,55.0,1045.0,-137.0,327.0,1
-17.0,-248.0,55.0,1057.0,-147.0,332.0,1
-17.0,-252.0,54.0,1071.0,-156.0,336.0,1
-20.0,-253.0,57.0,1084.0,-160.0,339.0,1
-23.0,-246.0,57.0,1102.0,-162.0,341.0,1
-24.0,-250.0,56.0,1117.0,-161.0,345.0,1
-22.0,-244.0,64.0,1130.0,-157.0,349.0,1
-23.0,-243.0,67.0,1144.0,-153.0,350.0,1
-24.0,-241.0,70.0,1152.0,-149.0,350.0,1
-22.0,-241.0,71.0,1157.0,-144.0,349.0,1
-23.0,-238.0,72.0,1159.0,-138.0,351.0,1
-19.0,-234.0,77.0,1163.0,-129.0,350.0,1
-18.0,-234.0,76.0,1164.0,-118.0,347.0,1
-24.0,-228.0,76.0,1164.0,-109.0,345.0,1
-25.0,-229.0,77.0,1165.0,-99.0,346.0,1
-22.0,-227.0,79.0,1164.0,-93.0,349.0,1
-19.0,-227.0,81.0,1159.0,-94.0,345.0,1
-24.0,-225.0,79.0,1155.0,-93.0,341.0,1
-27.0,-225.0,80.0,1144.0,-92.0,337.0,1
-26.0,-225.0,84.0,1133.0,-86.0,338.0,1
-26.0,-223.0,86.0,1125.0,-79.0,337.0,1
-27.0,-225.0,86.0,1121.0,-72.0,340.0,1
-28.0,-226.0,86.0,1116.0,-66.0,338.0,1
-26.0,-223.0,87.0,1113.0,-58.0,338.0,1
-25.0,-227.0,90.0,1112.0,-49.0,339.0,1
-26.0,-227.0,95.0,1113.0,-40.0,340.0,1
-19.0,-229.0,97.0,1116.0,-33.0,337.0,1
-23.0,-228.0,95.0,1122.0,-26.0,335.0,1
-25.0,-226.0,94.0,1129.0,-25.0,331.0,1
-25.0,-227.0,97.0,1141.0,-21.0,327.0,1
-25.0,-224.0,97.0,1153.0,-20.0,324.0,1
-25.0,-224.0,95.0,1161.0,-14.0,325.0,1
-24.0,-222.0,99.0,1172.0,-9.0,326.0,1
-26.0,-219.0,100.0,1185.0,-5.0,325.0,1
-27.0,-220.0,103.0,1205.0,0.0,326.0,1
-23.0,-223.0,101.0,1229.0,6.0,327.0,1
-26.0,-216.0,105.0,1259.0,9.0,329.0,1
-27.0,-224.0,113.0,1292.0,13.0,330.0,1
-23.0,-220.0,112.0,1329.0,19.0,332.0,1
-23.0,-218.0,113.0,1367.0,25.0,335.0,1
-24.0,-215.0,113.0,1406.0,31.0,340.0,1
-19.0,-215.0,114.0,1444.0,42.0,347.0,1
-19.0,-210.0,112.0,1478.0,54.0,356.0,1
-18.0,-206.0,108.0,1505.0,71.0,362.0,1
-15.0,-202.0,110.0,1516.0,94.0,367.0,1
-6.0,-200.0,102.0,1517.0,120.0,372.0,1
-7.0,-194.0,108.0,1507.0,156.0,369.0,1
-6.0,-196.0,112.0,1493.0,196.0,368.0,1
-4.0,-193.0,117.0,1480.0,239.0,375.0,1
-9.0,-193.0,113.0,1470.0,280.0,374.0,1
-10.0,-189.0,119.0,1467.0,320.0,372.0,1
-9.0,-192.0,124.0,1474.0,355.0,366.0,1
-7.0,-185.0,133.0,1491.0,388.0,357.0,1
-10.0,-181.0,137.0,1520.0,406.0,348.0,1
-10.0,-179.0,147.0,1553.0,416.0,340.0,1
-9.0,-171.0,142.0,1579.0,424.0,330.0,1
-15.0,-163.0,144.0,1588.0,423.0,321.0,1
-16.0,-149.0,139.0,1566.0,411.0,318.0,1
-25.0,-134.0,130.0,1506.0,398.0,324.0,1
-24.0,-131.0,129.0,1405.0,391.0,331.0,1
-28.0,-123.0,130.0,1279.0,386.0,340.0,1
-31.0,-127.0,128.0,1150.0,393.0,352.0,1
-31.0,-130.0,134.0,1037.0,413.0,363.0,1
-33.0,-138.0,139.0,951.0,443.0,369.0,1
-40.0,-150.0,137.0,896.0,484.0,373.0,1
-44.0,-159.0,143.0,865.0,527.0,374.0,1
-48.0,-178.0,145.0,850.0,568.0,378.0,1
-46.0,-193.0,154.0,851.0,610.0,379.0,1
-49.0,-202.0,152.0,865.0,649.0,385.0,1
-46.0,-210.0,152.0,888.0,684.0,399.0,1
-37.0,-218.0,161.0,909.0,720.0,413.0,1
-35.0,-221.0,148.0,922.0,762.0,421.0,1
-30.0,-221.0,144.0,931.0,811.0,422.0,1
-19.0,-222.0,149.0,960.0,863.0,412.0,1
-16.0,-220.0,145.0,1019.0,916.0,398.0,1
-10.0,-222.0,142.0,1104.0,962.0,391.0,1
-7.0,-217.0,133.0,1191.0,989.0,386.0,1
1.0,-208.0,118.0,1267.0,1011.0,387.0,1
9.0,-198.0,111.0,1328.0,1047.0,391.0,1
7.0,-191.0,112.0,1375.0,1116.0,395.0,1
8.0,-174.0,110.0,1397.0,1220.0,407.0,1
13.0,-168.0,109.0,1382.0,1344.0,423.0,1
1.0,-154.0,120.0,1338.0,1464.0,442.0,1
1.0,-152.0,137.0,1279.0,1564.0,473.0,1
1.0,-151.0,143.0,1221.0,1630.0,507.0,1
4.0,-155.0,151.0,1171.0,1656.0,547.0,1
5.0,-166.0,149.0,1138.0,1640.0,593.0,1
4.0,-172.0,140.0,1129.0,1588.0,638.0,1
2.0,-176.0,127.0,1144.0,1507.0,682.0,1
2.0,-172.0,110.0,1175.0,1400.0,714.0,1
0.0,-165.0,93.0,1215.0,1287.0,735.0,1
-1.0,-157.0,75.0,1261.0,1187.0,742.0,1
0.0,-149.0,59.0,1318.0,1110.0,725.0,1
-9.0,-135.0,52.0,1382.0,1084.0,698.0,1
-14.0,-128.0,47.0,1441.0,1119.0,671.0,1
-22.0,-120.0,48.0,1481.0,1205.0,641.0,1
-31.0,-110.0,54.0,1501.0,1314.0,608.0,1
-38.0,-104.0,67.0,1505.0,1438.0,575.0,1
-44.0,-101.0,88.0,1501.0,1560.0,538.0,1
-51.0,-90.0,105.0,1496.0,1668.0,501.0,1
-49.0,-90.0,103.0,1475.0,1758.0,472.0,1
-50.0,-88.0,104.0,1426.0,1832.0,457.0,1
-46.0,-81.0,102.0,1354.0,1896.0,448.0,1
-45.0,-83.0,97.0,1265.0,1952.0,447.0,1
-48.0,-74.0,95.0,1173.0,2006.0,459.0,1
-54.0,-71.0,91.0,1090.0,2051.0,485.0,1
-55.0,-66.0,89.0,1041.0,2091.0,522.0,1
-58.0,-65.0,86.0,1026.0,2122.0,560.0,1
-62.0,-67.0,81.0,1036.0,2135.0,605.0,1
-65.0,-67.0,78.0,1051.0,2139.0,646.0,1
-79.0,-63.0,75.0,1067.0,2150.0,692.0,1
-91.0,-63.0,66.0,1084.0,2185.0,746.0,1
-109.0,-65.0,73.0,1102.0,2239.0,808.0,1
-134.0,-61.0,67.0,1111.0,2294.0,866.0,1
-150.0,-58.0,70.0,1110.0,2341.0,916.0,1
-153.0,-58.0,78.0,1114.0,2382.0,956.0,1
-159.0,-55.0,76.0,1117.0,2420.0,974.0,1
-165.0,-51.0,70.0,1117.0,2449.0,980.0,1
-162.0,-52.0,70.0,1117.0,2466.0,966.0,1
-157.0,-47.0,72.0,1105.0,2464.0,934.0,1
-150.0,-38.0,73.0,1102.0,2467.0,891.0,1
-148.0,-33.0,70.0,1125.0,2482.0,860.0,1
-147.0,-25.0,75.0,1152.0,2499.0,852.0,1
-151.0,-10.0,75.0,1180.0,2515.0,868.0,1
-152.0,1.0,77.0,1193.0,2531.0,911.0,1
-150.0,7.0,79.0,1190.0,2542.0,946.0,1
-138.0,12.0,72.0,1172.0,2552.0,947.0,1
-126.0,11.0,72.0,1138.0,2577.0,919.0,1
-105.0,11.0,63.0,1095.0,2608.0,867.0,1
-101.0,12.0,53.0,1049.0,2645.0,807.0,1
-92.0,14.0,47.0,1005.0,2696.0,769.0,1
-78.0,9.0,43.0,976.0,2766.0,744.0,1
-64.0,14.0,30.0,960.0,2860.0,732.0,1
-48.0,18.0,7.0,941.0,2971.0,732.0,1
-35.0,19.0,-11.0,906.0,3075.0,739.0,1
-28.0,20.0,-30.0,852.0,3159.0,755.0,1
-19.0,30.0,-31.0,799.0,3220.0,793.0,1
-14.0,28.0,-40.0,771.0,3258.0,851.0,1
-28.0,28.0,-43.0,776.0,3269.0,904.0,1
-57.0,20.0,-53.0,802.0,3249.0,960.0,1
-95.0,22.0,-50.0,828.0,3188.0,1031.0,1
-112.0,22.0,-41.0,857.0,3062.0,1111.0,1
-131.0,17.0,-23.0,898.0,2862.0,1176.0,1
-171.0,14.0,-6.0,943.0,2603.0,1205.0,1
-223.0,13.0,12.0,975.0,2298.0,1221.0,1
-271.0,14.0,23.0,1008.0,1920.0,1284.0,1
-287.0,18.0,19.0,1061.0,1442.0,1387.0,1
-292.0,23.0,22.0,1127.0,906.0,1476.0,1
-286.0,18.0,40.0,1206.0,384.0,1512.0,1
-275.0,17.0,48.0,1281.0,-56.0,1487.0,1
-266.0,19.0,57.0,1297.0,-313.0,1436.0,1
-253.0,34.0,52.0,1190.0,-321.0,1395.0,1
-251.0,43.0,74.0,981.0,-127.0,1389.0,1
-261.0,49.0,107.0,710.0,157.0,1421.0,1
-270.0,32.0,135.0,444.0,402.0,1466.0,1
-280.0,6.0,156.0,245.0,505.0,1452.0,1
-315.0,2.0,171.0,93.0,426.0,1340.0,1
-360.0,17.0,201.0,-31.0,216.0,1181.0,1
-413.0,39.0,272.0,-157.0,-76.0,1011.0,1
-494.0,63.0,317.0,-341.0,-403.0,865.0,1
-630.0,121.0,355.0,-603.0,-667.0,804.0,1
-870.0,214.0,421.0,-863.0,-883.0,985.0,1
-1111.0,306.0,504.0,-1058.0,-1110.0,1513.0,1
-1471.0,409.0,593.0,-1310.0,-1197.0,2299.0,1
-1839.0,474.0,530.0,-1707.0,-803.0,2994.0,1
-2133.0,441.0,280.0,-2176.0,42.0,3206.0,1
-2103.0,270.0,-10.0,-2659.0,882.0,2794.0,1
-1544.0,76.0,-103.0,-3088.0,1439.0,1894.0,1
-1012.0,-75.0,-76.0,-3196.0,1735.0,437.0,1
-637.0,-159.0,30.0,-2710.0,1908.0,-920.0,1
-338.0,-186.0,141.0,-1552.0,1882.0,-1820.0,1
-133.0,-191.0,218.0,175.0,1543.0,-2253.0,1
-17.0,-174.0,234.0,2259.0,1173.0,-2277.0,1
73.0,-126.0,187.0,4149.0,1042.0,-2095.0,1
100.0,-41.0,137.0,5273.0,1218.0,-1865.0,1
80.0,49.0,90.0,5455.0,1598.0,-1603.0,1
1.0,99.0,56.0,4818.0,2054.0,-1271.0,1
-67.0,114.0,52.0,3557.0,2525.0,-844.0,1
-118.0,87.0,106.0,2021.0,2855.0,-389.0,1
-165.0,42.0,139.0,857.0,2842.0,-36.0,1
-192.0,7.0,163.0,-301.0,2527.0,215.0,1
-175.0,8.0,162.0,-1051.0,2085.0,361.0,1
-143.0,7.0,139.0,-1383.0,1585.0,565.0,1
-100.0,-1.0,91.0,-1461.0,1149.0,845.0,1
-68.0,-10.0,54.0,-1405.0,796.0,1090.0,1
-73.0,-20.0,12.0,-1244.0,547.0,1240.0,1
-106.0,-16.0,-2.0,-1051.0,448.0,1357.0,1
-119.0,-23.0,-4.0,-815.0,486.0,1485.0,1
-133.0,-18.0,3.0,-507.0,596.0,1537.0,1
-123.0,-19.0,22.0,-115.0,743.0,1503.0,1
-122.0,2.0,31.0,313.0,895.0,1403.0,1
-116.0,23.0,45.0,696.0,1025.0,1297.0,1
-110.0,39.0,49.0,965.0,1128.0,1184.0,1
-106.0,62.0,51.0,1122.0,1216.0,1062.0,1
-92.0,78.0,43.0,1177.0,1305.0,945.0,1
-81.0,92.0,30.0,1157.0,1396.0,814.0,1
-72.0,103.0,22.0,1084.0,1499.0,664.0,1
-65.0,107.0,11.0,974.0,1597.0,524.0,1
-63.0,112.0,-2.0,850.0,1671.0,403.0,1
-69.0,103.0,-17.0,719.0,1719.0,308.0,1
-88.0,98.0,-22.0,574.0,1736.0,233.0,1
-105.0,94.0,-34.0,428.0,1720.0,168.0,1
-115.0,84.0,-30.0,297.0,1678.0,126.0,1
-127.0,66.0,-14.0,189.0,1598.0,86.0,1
-153.0,46.0,-4.0,115.0,1438.0,19.0,1
-190.0,31.0,6.0,75.0,1220.0,-79.0,1
-210.0,22.0,1.0,75.0,980.0,-153.0,1
-222.0,11.0,-8.0,102.0,767.0,-185.0,1
-239.0,9.0,-19.0,145.0,620.0,-187.0,1
-248.0,6.0,-37.0,193.0,551.0,-167.0,1
-254.0,15.0,-53.0,235.0,544.0,-153.0,1
-268.0,24.0,-67.0,275.0,570.0,-133.0,1
-273.0,29.0,-70.0,306.0,606.0,-92.0,1
-277.0,35.0,-82.0,336.0,639.0,-26.0,1
-279.0,35.0,-77.0,382.0,687.0,28.0,1
-281.0,29.0,-75.0,437.0,713.0,38.0,1
-279.0,29.0,-71.0,497.0,697.0,-18.0,1
-279.0,32.0,-67.0,551.0,657.0,-130.0,1
-269.0,50.0,-67.0,609.0,624.0,-213.0,1
-247.0,57.0,-68.0,654.0,596.0,-252.0,1
-233.0,69.0,-68.0,686.0,586.0,-229.0,1
-243.0,69.0,-64.0,690.0,592.0,-215.0,1
-271.0,69.0,-37.0,675.0,557.0,-230.0,1
-316.0,79.0,-34.0,664.0,467.0,-211.0,1
-345.0,87.0,-32.0,662.0,355.0,-157.0,1
-364.0,99.0,-51.0,657.0,255.0,-90.0,1
-380.0,111.0,-66.0,628.0,191.0,-37.0,1
-385.0,111.0,-85.0,561.0,155.0,0.0,1
-394.0,110.0,-92.0,454.0,129.0,24.0,1
-408.0,98.0,-117.0,318.0,100.0,18.0,1
-396.0,81.0,-125.0,260.0,173.0,-45.0,1
-377.0,67.0,-123.0,261.0,243.0,-149.0,1
-358.0,61.0,-110.0,232.0,247.0,-248.0,1
-321.0,54.0,-98.0,197.0,252.0,-320.0,1
-292.0,39.0,-77.0,215.0,318.0,-362.0,1
-280.0,22.0,-55.0,309.0,413.0,-378.0,1
-277.0,15.0,-40.0,456.0,500.0,-377.0,1
-271.0,17.0,-40.0,609.0,537.0,-343.0,1
-253.0,3.0,-32.0,742.0,581.0,-271.0,1
-243.0,-15.0,-20.0,896.0,642.0,-210.0,1
-245.0,-26.0,-12.0,1062.0,673.0,-164.0,1
-252.0,-26.0,-6.0,1220.0,659.0,-125.0,1
-259.0,-18.0,-6.0,1354.0,608.0,-85.0,1
-266.0,-6.0,-11.0,1445.0,533.0,-45.0,1
-274.0,11.0,-18.0,1482.0,456.0,-9.0,1
-281.0,29.0,-35.0,1450.0,400.0,20.0,1
-280.0,44.0,-45.0,1363.0,366.0,31.0,1
-292.0,59.0,-55.0,1213.0,345.0,15.0,1
-287.0,58.0,-64.0,1017.0,345.0,-10.0,1
-276.0,53.0,-109.0,797.0,376.0,-81.0,1
-270.0,76.0,-160.0,606.0,466.0,-186.0,1
-270.0,92.0,-179.0,482.0,667.0,-242.0,1
-295.0,93.0,-151.0,418.0,977.0,-207.0,1
-272.0,70.0,-156.0,346.0,1292.0,-86.0,1
-211.0,-9.0,-118.0,248.0,1508.0,16.0,1
-163.0,-67.0,-89.0,97.0,1618.0,43.0,1
-132.0,-108.0,-13.0,-106.0,1623.0,68.0,1
-119.0,-138.0,80.0,-261.0,1481.0,142.0,1
-119.0,-157.0,138.0,-240.0,1176.0,253.0,1
-137.0,-162.0,175.0,-1.0,752.0,366.0,1
-172.0,-118.0,120.0,388.0,304.0,476.0,1
-206.0,-64.0,34.0,739.0,-7.0,591.0,1
-258.0,-9.0,-70.0,948.0,-60.0,709.0,1
-320.0,47.0,-127.0,986.0,151.0,820.0,1
-365.0,101.0,-171.0,813.0,465.0,940.0,1
-368.0,134.0,-176.0,403.0,686.0,998.0,1
-335.0,124.0,-161.0,-98.0,777.0,960.0,1
-292.0,63.0,-127.0,-530.0,779.0,765.0,1
-280.0,54.0,-108.0,-674.0,720.0,463.0,1
-272.0,31.0,-86.0,-661.0,600.0,242.0,1
-266.0,12.0,-78.0,-574.0,451.0,124.0,1
-257.0,-2.0,-70.0,-482.0,309.0,97.0,1
-252.0,-14.0,-69.0,-406.0,183.0,87.0,1
-256.0,1.0,-60.0,-312.0,54.0,29.0,1
-270.0,8.0,-67.0,-195.0,-91.0,-69.0,1
-282.0,39.0,-99.0,-76.0,-264.0,-176.0,1
-266.0,49.0,-104.0,42.0,-383.0,-192.0,1
-258.0,62.0,-118.0,163.0,-453.0,-148.0,1
-261.0,67.0,-121.0,249.0,-517.0,-87.0,1
-263.0,65.0,-124.0,267.0,-598.0,-36.0,1
-264.0,58.0,-119.0,225.0,-684.0,-10.0,1
-264.0,56.0,-117.0,149.0,-774.0,-20.0,1
-269.0,53.0,-117.0,52.0,-853.0,-58.0,1
-270.0,48.0,-108.0,-49.0,-922.0,-114.0,1
-275.0,40.0,-94.0,-161.0,-995.0,-176.0,1
-280.0,41.0,-88.0,-285.0,-1084.0,-241.0,1
-273.0,48.0,-80.0,-421.0,-1172.0,-290.0,1
-260.0,55.0,-80.0,-549.0,-1238.0,-323.0,1
-248.0,56.0,-76.0,-646.0,-1269.0,-343.0,1
-236.0,63.0,-80.0,-689.0,-1248.0,-350.0,1
-232.0,63.0,-77.0,-658.0,-1187.0,-350.0,1
-220.0,57.0,-68.0,-572.0,-1135.0,-340.0,1
-218.0,52.0,-64.0,-456.0,-1107.0,-321.0,1
-222.0,49.0,-61.0,-325.0,-1103.0,-298.0,1
-231.0,47.0,-53.0,-196.0,-1116.0,-275.0,1
-231.0,41.0,-42.0,-85.0,-1136.0,-265.0,1
-240.0,40.0,-37.0,-6.0,-1158.0,-262.0,1
-238.0,34.0,-34.0,44.0,-1177.0,-263.0,1
-237.0,30.0,-30.0,69.0,-1189.0,-266.0,1
-234.0,29.0,-29.0,77.0,-1196.0,-263.0,1
-237.0,28.0,-21.0,74.0,-1196.0,-259.0,1
-236.0,26.0,-16.0,67.0,-1186.0,-253.0,1
-233.0,21.0,-10.0,64.0,-1170.0,-245.0,1
-243.0,24.0,-9.0,69.0,-1150.0,-234.0,1
-247.0,27.0,-4.0,80.0,-1132.0,-225.0,1
-252.0,29.0,-1.0,88.0,-1117.0,-214.0,1
-257.0,28.0,-3.0,90.0,-1109.0,-207.0,1
-268.0,30.0,-6.0,79.0,-1105.0,-203.0,1
-263.0,29.0,-1.0,57.0,-1096.0,-204.0,1
-262.0,29.0,-3.0,28.0,-1084.0,-208.0,1
-260.0,20.0,-2.0,-4.0,-1064.0,-212.0,1
-265.0,21.0,1.0,-34.0,-1039.0,-218.0,1
-257.0,11.0,-2.0,-61.0,-1010.0,-230.0,1
-256.0,7.0,1.0,-79.0,-977.0,-244.0,1
-251.0,10.0,0.0,-88.0,-945.0,-261.0,1
-251.0,9.0,3.0,-89.0,-913.0,-280.0,1
-252.0,7.0,1.0,-84.0,-879.0,-298.0,1
-246.0,9.0,-3.0,-76.0,-850.0,-313.0,1
-251.0,12.0,-2.0,-70.0,-822.0,-327.0,1
-251.0,12.0,-7.0,-64.0,-798.0,-334.0,1
-248.0,16.0,-8.0,-64.0,-781.0,-342.0,1
-247.0,15.0,-3.0,-62.0,-771.0,-348.0,1
-251.0,17.0,-2.0,-61.0,-766.0,-354.0,1
-251.0,18.0,2.0,-59.0,-762.0,-357.0,1
-253.0,18.0,2.0,-58.0,-764.0,-360.0,1
-251.0,23.0,13.0,-57.0,-768.0,-361.0,1
-256.0,22.0,10.0,-51.0,-769.0,-356.0,1
-252.0,20.0,19.0,-46.0,-764.0,-352.0,1
-255.0,22.0,20.0,-36.0,-750.0,-345.0,1
-259.0,22.0,18.0,-25.0,-728.0,-339.0,1
-253.0,18.0,18.0,-10.0,-694.0,-320.0,1
-257.0,10.0,27.0,4.0,-644.0,-284.0,1
-254.0,15.0,26.0,16.0,-583.0,-249.0,1
-258.0,22.0,21.0,23.0,-514.0,-218.0,1
-268.0,18.0,18.0,26.0,-447.0,-185.0,1
-261.0,15.0,23.0,27.0,-382.0,-153.0,1
-261.0,11.0,21.0,29.0,-325.0,-122.0,1
-258.0,6.0,40.0,28.0,-283.0,-93.0,1
-253.0,9.0,45.0,27.0,-261.0,-75.0,1
-262.0,7.0,35.0,24.0,-266.0,-71.0,1
-250.0,0.0,42.0,24.0,-290.0,-70.0,1
-246.0,-2.0,51.0,23.0,-330.0,-75.0,1
-242.0,-12.0,51.0,25.0,-381.0,-83.0,1
-250.0,-2.0,50.0,27.0,-440.0,-97.0,1
-238.0,-6.0,46.0,25.0,-496.0,-110.0,1
-243.0,-4.0,49.0,19.0,-547.0,-122.0,1
-246.0,-4.0,54.0,12.0,-583.0,-129.0,1
-249.0,-3.0,43.0,1.0,-605.0,-133.0,1
-253.0,-1.0,39.0,-10.0,-616.0,-136.0,1
-251.0,-1.0,49.0,-27.0,-612.0,-138.0,1
-255.0,0.0,39.0,-46.0,-589.0,-134.0,1
-265.0,-2.0,46.0,-66.0,-552.0,-129.0,1
-258.0,-2.0,53.0,-92.0,-506.0,-129.0,1
-254.0,1.0,48.0,-111.0,-449.0,-123.0,1
-254.0,-4.0,48.0,-115.0,-382.0,-113.0,1
-244.0,-1.0,42.0,-113.0,-319.0,-111.0,1
-248.0,-4.0,43.0,-106.0,-264.0,-112.0,1
-245.0,0.0,50.0,-89.0,-216.0,-114.0,1
-237.0,-4.0,45.0,-59.0,-178.0,-114.0,1
-242.0,-7.0,50.0,-30.0,-151.0,-120.0,1
-239.0,-10.0,43.0,2.0,-137.0,-124.0,1
-232.0,-18.0,37.0,38.0,-127.0,-120.0,1
-232.0,-10.0,43.0,74.0,-123.0,-113.0,1
-236.0,-13.0,47.0,103.0,-124.0,-109.0,1
-231.0,-13.0,44.0,123.0,-125.0,-107.0,1
-232.0,-13.0,47.0,143.0,-118.0,-100.0,1
-226.0,-17.0,43.0,160.0,-103.0,-92.0,1
-234.0,-10.0,56.0,166.0,-88.0,-89.0,1
-236.0,-9.0,53.0,163.0,-73.0,-88.0,1
-232.0,-10.0,58.0,154.0,-58.0,-86.0,1
-233.0,-7.0,59.0,138.0,-43.0,-85.0,1
-234.0,-7.0,59.0,117.0,-31.0,-84.0,1
-230.0,-6.0,59.0,95.0,-22.0,-89.0,1
-239.0,-3.0,56.0,71.0,-9.0,-93.0,1
-241.0,-1.0,56.0,53.0,-7.0,-93.0,1
-238.0,-1.0,51.0,38.0,-7.0,-87.0,1
-247.0,-5.0,43.0,23.0,-6.0,-84.0,1
-244.0,-2.0,45.0,7.0,-2.0,-84.0,1
-246.0,0.0,45.0,-5.0,1.0,-83.0,1
-246.0,-5.0,48.0,-18.0,8.0,-84.0,1
-251.0,-3.0,44.0,-28.0,17.0,-87.0,1
-252.0,-2.0,40.0,-33.0,22.0,-89.0,1
-251.0,0.0,44.0,-37.0,28.0,-90.0,1
-250.0,-1.0,42.0,-42.0,33.0,-94.0,1
-251.0,-5.0,48.0,-44.0,39.0,-98.0,1
-253.0,-3.0,47.0,-48.0,43.0,-103.0,1
-250.0,0.0,47.0,-52.0,43.0,-106.0,1
-256.0,0.0,47.0,-58.0,43.0,-110.0,1
-255.0,0.0,43.0,-69.0,42.0,-111.0,1
-257.0,0.0,46.0,-82.0,39.0,-112.0,1
-257.0,-1.0,40.0,-94.0,39.0,-111.0,1
-258.0,0.0,30.0,-100.0,44.0,-112.0,1
-262.0,-2.0,34.0,-103.0,53.0,-111.0,1
-262.0,0.0,31.0,-106.0,67.0,-111.0,1
-263.0,0.0,32.0,-101.0,82.0,-110.0,1
-262.0,3.0,25.0,-90.0,99.0,-109.0,1
-262.0,2.0,29.0,-76.0,111.0,-111.0,1
-264.0,3.0,24.0,-56.0,121.0,-109.0,1
-259.0,0.0,27.0,-35.0,126.0,-107.0,1
-262.0,1.0,25.0,-15.0,134.0,-107.0,1
-256.0,-2.0,29.0,5.0,143.0,-106.0,1
-258.0,-2.0,30.0,22.0,154.0,-107.0,1
-256.0,-2.0,29.0,38.0,157.0,-109.0,1
-257.0,-5.0,35.0,58.0,155.0,-106.0,1
-254.0,-7.0,34.0,75.0,150.0,-98.0,1
-251.0,-6.0,37.0,85.0,141.0,-91.0,1
-253.0,-5.0,36.0,94.0,130.0,-86.0,1
-249.0,-8.0,38.0,99.0,117.0,-78.0,1
-249.0,-7.0,39.0,106.0,105.0,-68.0,1
-249.0,-5.0,36.0,105.0,93.0,-60.0,1
-253.0,-1.0,41.0,98.0,85.0,-51.0,1
-252.0,-2.0,31.0,86.0,80.0,-43.0,1
-253.0,0.0,28.0,72.0,76.0,-37.0,1
-257.0,-6.0,30.0,64.0,72.0,-31.0,1
-251.0,-2.0,27.0,55.0,68.0,-26.0,1
-252.0,-3.0,26.0,46.0,65.0,-22.0,1
-252.0,-6.0,25.0,44.0,59.0,-21.0,1
-254.0,-6.0,28.0,49.0,47.0,-19.0,1
-255.0,-6.0,26.0,60.0,28.0,-16.0,1
-254.0,-6.0,25.0,75.0,6.0,-10.0,1
-251.0,-8.0,23.0,90.0,-12.0,-8.0,1
-251.0,-2.0,23.0,102.0,-29.0,-8.0,1
-253.0,-11.0,24.0,115.0,-41.0,-7.0,1
-253.0,-7.0,22.0,130.0,-54.0,-4.0,1
-254.0,-7.0,26.0,151.0,-66.0,1.0,1
-255.0,-7.0,22.0,174.0,-74.0,5.0,1
-254.0,-7.0,23.0,195.0,-89.0,7.0,1
-253.0,-4.0,22.0,211.0,-102.0,4.0,1
-253.0,-2.0,25.0,225.0,-117.0,4.0,1
-257.0,-2.0,26.0,237.0,-131.0,1.0,1
-255.0,-3.0,25.0,248.0,-142.0,-2.0,1
-254.0,0.0,29.0,254.0,-151.0,-6.0,1
-254.0,-4.0,25.0,260.0,-159.0,-9.0,1
-255.0,0.0,26.0,264.0,-167.0,-11.0,1
-255.0,1.0,29.0,267.0,-174.0,-15.0,1
-252.0,0.0,30.0,269.0,-179.0,-14.0,1
-253.0,0.0,33.0,267.0,-183.0,-11.0,1
-252.0,-2.0,30.0,261.0,-182.0,-10.0,1
-255.0,-2.0,33.0,254.0,-181.0,-9.0,1
-255.0,0.0,33.0,245.0,-183.0,-6.0,1
-253.0,-2.0,35.0,234.0,-184.0,-5.0,1
-251.0,-7.0,38.0,224.0,-185.0,0.0,1
-258.0,0.0,42.0,215.0,-188.0,3.0,1
-256.0,0.0,42.0,206.0,-187.0,7.0,1
-253.0,-3.0,38.0,198.0,-183.0,13.0,1
-258.0,-1.0,37.0,191.0,-176.0,16.0,1
-254.0,0.0,41.0,180.0,-167.0,18.0,1
-254.0,-2.0,43.0,166.0,-157.0,20.0,1
-254.0,0.0,41.0,151.0,-147.0,21.0,1
-251.0,-1.0,47.0,134.0,-138.0,21.0,1
-253.0,-2.0,47.0,122.0,-131.0,22.0,1
-254.0,0.0,44.0,112.0,-124.0,24.0,1
-250.0,0.0,45.0,104.0,-116.0,24.0,1
-253.0,0.0,40.0,98.0,-106.0,28.0,1
-256.0,2.0,43.0,93.0,-94.0,26.0,1
-250.0,-4.0,42.0,90.0,-84.0,26.0,1
-244.0,-2.0,46.0,91.0,-74.0,25.0,1
-253.0,-2.0,41.0,97.0,-68.0,24.0,1
-250.0,0.0,41.0,103.0,-64.0,23.0,1
-252.0,0.0,44.0,114.0,-61.0,26.0,1
-250.0,-2.0,44.0,125.0,-60.0,26.0,1
-253.0,0.0,44.0,134.0,-56.0,23.0,1
-248.0,1.0,48.0,140.0,-53.0,18.0,1
-247.0,1.0,50.0,144.0,-54.0,14.0,1
-250.0,1.0,49.0,145.0,-52.0,11.0,1
-248.0,2.0,45.0,146.0,-51.0,8.0,1
-247.0,1.0,56.0,145.0,-48.0,1.0,1
-246.0,0.0,50.0,142.0,-45.0,-2.0,1
-251.0,2.0,50.0,135.0,-42.0,-5.0,1
-251.0,2.0,44.0,124.0,-36.0,-9.0,1
-250.0,3.0,47.0,113.0,-29.0,-13.0,1
-251.0,3.0,46.0,107.0,-23.0,-17.0,1
-252.0,0.0,44.0,101.0,-16.0,-22.0,1
-252.0,3.0,44.0,99.0,-12.0,-27.0,1
-255.0,6.0,40.0,100.0,-11.0,-30.0,1
-253.0,2.0,47.0,102.0,-12.0,-35.0,1
-254.0,6.0,38.0,104.0,-15.0,-39.0,1
-245.0,4.0,37.0,105.0,-18.0,-44.0,1
-254.0,8.0,39.0,103.0,-21.0,-46.0,1
-255.0,6.0,36.0,96.0,-24.0,-49.0,1
-254.0,7.0,40.0,86.0,-27.0,-51.0,1
-255.0,5.0,38.0,75.0,-33.0,-53.0,1
-254.0,2.0,38.0,65.0,-40.0,-55.0,1
-251.0,3.0,47.0,56.0,-48.0,-55.0,1
-251.0,1.0,45.0,49.0,-57.0,-57.0,1
-254.0,2.0,44.0,45.0,-66.0,-58.0,1
-253.0,0.0,43.0,43.0,-75.0,-58.0,1
-254.0,2.0,43.0,47.0,-85.0,-59.0,1
-247.0,-4.0,46.0,54.0,-91.0,-62.0,1
-250.0,-3.0,46.0,63.0,-96.0,-63.0,1
-249.0,-5.0,43.0,70.0,-101.0,-63.0,1
-252.0,-3.0,48.0,79.0,-101.0,-65.0,1
-251.0,-4.0,49.0,86.0,-101.0,-67.0,1
-250.0,-5.0,44.0,94.0,-100.0,-70.0,1
-252.0,-4.0,43.0,100.0,-96.0,-70.0,1
-250.0,-6.0,42.0,104.0,-89.0,-72.0,1
-254.0,-3.0,45.0,106.0,-80.0,-72.0,1
-252.0,0.0,41.0,103.0,-70.0,-73.0,1
-249.0,-2.0,45.0,97.0,-59.0,-74.0,1
-252.0,1.0,47.0,90.0,-46.0,-72.0,1
-254.0,0.0,40.0,82.0,-34.0,-71.0,1
-255.0,1.0,42.0,73.0,-23.0,-68.0,1
-255.0,3.0,44.0,65.0,-12.0,-61.0,1
-251.0,3.0,44.0,54.0,-3.0,-58.0,1
-252.0,-2.0,45.0,42.0,4.0,-57.0,1
-251.0,-1.0,47.0,33.0,3.0,-57.0,1
-250.0,0.0,46.0,27.0,-2.0,-57.0,1
-251.0,0.0,44.0,24.0,-10.0,-55.0,1
-248.0,-6.0,40.0,25.0,-20.0,-55.0,1
-254.0,-5.0,44.0,29.0,-33.0,-53.0,1
-248.0,-1.0,46.0,33.0,-51.0,-52.0,1
-249.0,-4.0,44.0,38.0,-72.0,-50.0,1
-252.0,-6.0,42.0,46.0,-93.0,-50.0,1
-250.0,-7.0,48.0,55.0,-118.0,-48.0,1
-250.0,-7.0,48.0,66.0,-145.0,-53.0,1
-253.0,-5.0,44.0,76.0,-167.0,-56.0,1
-255.0,-4.0,43.0,89.0,-185.0,-52.0,1
-252.0,-3.0,45.0,102.0,-200.0,-51.0,1
-251.0,-2.0,40.0,116.0,-206.0,-56.0,1
-254.0,1.0,42.0,128.0,-208.0,-58.0,1
-255.0,-2.0,46.0,136.0,-203.0,-63.0,1
-251.0,-2.0,46.0,145.0,-192.0,-64.0,1
-253.0,0.0,45.0,149.0,-178.0,-66.0,1
-250.0,-3.0,46.0,150.0,-163.0,-65.0,1
-249.0,0.0,52.0,147.0,-143.0,-67.0,1
-251.0,-2.0,54.0,141.0,-120.0,-68.0,1
-250.0,0.0,55.0,131.0,-98.0,-63.0,1
-248.0,-7.0,52.0,117.0,-77.0,-60.0,1
-249.0,-7.0,54.0,97.0,-59.0,-54.0,1
-249.0,-8.0,56.0,78.0,-46.0,-48.0,1
-249.0,-8.0,57.0,59.0,-35.0,-42.0,1
-246.0,-14.0,52.0,39.0,-25.0,-35.0,1
-244.0,-13.0,56.0,22.0,-12.0,-27.0,1
-248.0,-16.0,56.0,9.0,5.0,-20.0,1
-246.0,-16.0,55.0,6.0,21.0,-12.0,1
-243.0,-19.0,59.0,15.0,38.0,-4.0,1
-243.0,-19.0,56.0,38.0,53.0,2.0,1
-240.0,-18.0,60.0,76.0,62.0,5.0,1
-242.0,-14.0,58.0,125.0,70.0,6.0,1
-243.0,-15.0,57.0,179.0,69.0,5.0,1
-242.0,-11.0,55.0,232.0,60.0,2.0,1
-247.0,-7.0,51.0,283.0,42.0,-4.0,1
-247.0,3.0,53.0,325.0,19.0,-15.0,1
-249.0,4.0,48.0,352.0,-10.0,-27.0,1
-250.0,10.0,52.0,357.0,-41.0,-41.0,1
-251.0,11.0,47.0,347.0,-75.0,-52.0,1
-256.0,13.0,53.0,313.0,-103.0,-65.0,1
-255.0,13.0,49.0,265.0,-127.0,-71.0,1
-255.0,9.0,54.0,210.0,-143.0,-76.0,1
-256.0,10.0,54.0,154.0,-150.0,-78.0,1
-254.0,1.0,50.0,103.0,-147.0,-77.0,1
-258.0,0.0,53.0,59.0,-132.0,-78.0,1
-257.0,0.0,54.0,25.0,-111.0,-75.0,1
-259.0,-1.0,52.0,10.0,-89.0,-71.0,1
-256.0,0.0,50.0,14.0,-60.0,-67.0,1
-253.0,-5.0,54.0,31.0,-32.0,-67.0,1
-252.0,-5.0,52.0,53.0,-1.0,-67.0,1
-256.0,-6.0,54.0,76.0,22.0,-70.0,1
-252.0,-5.0,59.0,98.0,42.0,-71.0,1
-250.0,-7.0,51.0,118.0,57.0,-74.0,1
-247.0,-3.0,54.0,130.0,68.0,-79.0,1
-247.0,-5.0,52.0,133.0,79.0,-83.0,1
-249.0,-1.0,52.0,132.0,87.0,-86.0,1
-251.0,2.0,49.0,131.0,91.0,-88.0,1
-249.0,-4.0,57.0,134.0,91.0,-87.0,1
-248.0,-4.0,50.0,132.0,88.0,-89.0,1
-249.0,-4.0,50.0,126.0,81.0,-89.0,1
-249.0,-1.0,48.0,117.0,71.0,-87.0,1
-250.0,0.0,48.0,106.0,58.0,-83.0,1
-250.0,0.0,50.0,92.0,41.0,-77.0,1
-246.0,-1.0,46.0,76.0,23.0,-68.0,1
-251.0,-1.0,46.0,57.0,8.0,-65.0,1
-253.0,1.0,47.0,33.0,-5.0,-54.0,1
-247.0,-1.0,49.0,20.0,-20.0,-43.0,1
-248.0,-4.0,46.0,9.0,-33.0,-39.0,1
-251.0,-3.0,51.0,-1.0,-48.0,-32.0,1
-249.0,-7.0,48.0,-12.0,-66.0,-27.0,1
-249.0,-6.0,49.0,-21.0,-82.0,-20.0,1
-249.0,-7.0,50.0,-32.0,-96.0,-16.0,1
-253.0,-9.0,47.0,-37.0,-108.0,-8.0,1
-248.0,-12.0,47.0,-37.0,-118.0,-5.0,1
-253.0,-12.0,46.0,-31.0,-123.0,2.0,1
-254.0,-11.0,45.0,-23.0,-124.0,8.0,1
-249.0,-11.0,50.0,-9.0,-124.0,11.0,1
-245.0,-3.0,46.0,2.0,-124.0,15.0,1
-250.0,-4.0,51.0,13.0,-123.0,15.0,1
-247.0,-7.0,43.0,24.0,-126.0,12.0,1
-246.0,-7.0,54.0,32.0,-130.0,11.0,1
-248.0,-8.0,51.0,39.0,-134.0,12.0,1
-248.0,-6.0,51.0,47.0,-136.0,13.0,1
-247.0,-6.0,50.0,62.0,-142.0,22.0,1
-249.0,-3.0,49.0,78.0,-147.0,26.0,1
-245.0,-10.0,51.0,83.0,-161.0,30.0,1
-244.0,-10.0,50.0,83.0,-176.0,30.0,1
-247.0,-8.0,54.0,84.0,-183.0,32.0,1
-245.0,-13.0,56.0,89.0,-187.0,35.0,1
-247.0,-11.0,57.0,99.0,-183.0,44.0,1
-252.0,-9.0,56.0,105.0,-182.0,50.0,1
-246.0,-13.0,55.0,107.0,-187.0,52.0,1
-250.0,-12.0,56.0,108.0,-190.0,49.0,1
-251.0,-10.0,54.0,114.0,-189.0,49.0,1
-251.0,-11.0,53.0,124.0,-183.0,56.0,1
-255.0,-13.0,55.0,133.0,-181.0,59.0,1
-252.0,-9.0,55.0,141.0,-183.0,59.0,1
-247.0,-9.0,58.0,148.0,-179.0,61.0,1
-242.0,-15.0,72.0,155.0,-171.0,61.0,1
-246.0,-4.0,63.0,154.0,-158.0,59.0,1
-244.0,-2.0,65.0,145.0,-146.0,58.0,1
-241.0,-2.0,72.0,130.0,-139.0,54.0,1
-241.0,-3.0,70.0,115.0,-141.0,53.0,1
-243.0,2.0,76.0,102.0,-144.0,52.0,1
-242.0,3.0,76.0,85.0,-148.0,47.0,1
-243.0,5.0,78.0,70.0,-148.0,40.0,1
-246.0,7.0,80.0,56.0,-144.0,34.0,1
-241.0,7.0,75.0,39.0,-131.0,23.0,1
-247.0,10.0,77.0,18.0,-106.0,13.0,1
-246.0,7.0,70.0,-7.0,-68.0,0.0,1
-247.0,11.0,70.0,-36.0,-20.0,-16.0,1
-248.0,8.0,69.0,-66.0,31.0,-31.0,1
-247.0,7.0,68.0,-95.0,85.0,-47.0,1
-247.0,7.0,70.0,-121.0,134.0,-62.0,1
-245.0,3.0,64.0,-142.0,183.0,-74.0,1
-243.0,1.0,65.0,-157.0,225.0,-84.0,1
-248.0,1.0,65.0,-167.0,259.0,-94.0,1
-243.0,5.0,63.0,-169.0,285.0,-96.0,1
-242.0,-1.0,63.0,-168.0,300.0,-103.0,1
-238.0,-4.0,62.0,-161.0,307.0,-109.0,1
-240.0,-4.0,68.0,-150.0,303.0,-109.0,1
-238.0,-1.0,65.0,-139.0,296.0,-104.0,1
-238.0,-5.0,63.0,-132.0,281.0,-100.0,1
-238.0,-6.0,60.0,-126.0,262.0,-98.0,1
-243.0,-4.0,68.0,-116.0,239.0,-95.0,1
-242.0,-5.0,62.0,-111.0,216.0,-94.0,1
-243.0,-5.0,63.0,-104.0,195.0,-93.0,1
-241.0,-3.0,61.0,-100.0,182.0,-95.0,1
-247.0,-8.0,58.0,-100.0,173.0,-93.0,1
-252.0,-5.0,54.0,-106.0,168.0,-90.0,1
-247.0,-3.0,52.0,-116.0,166.0,-87.0,1
-254.0,-12.0,52.0,-128.0,168.0,-82.0,1
-253.0,-8.0,49.0,-139.0,174.0,-78.0,1
-254.0,-9.0,50.0,-149.0,177.0,-72.0,1
-253.0,-8.0,44.0,-155.0,177.0,-68.0,1
-254.0,-12.0,42.0,-155.0,174.0,-66.0,1
-253.0,-11.0,47.0,-152.0,168.0,-61.0,1
-256.0,-18.0,47.0,-143.0,164.0,-55.0,1
-254.0,-18.0,47.0,-128.0,153.0,-46.0,1
-251.0,-14.0,46.0,-107.0,136.0,-40.0,1
-257.0,-10.0,46.0,-80.0,120.0,-38.0,1
-253.0,-13.0,44.0,-52.0,105.0,-34.0,1
-253.0,-17.0,48.0,-29.0,93.0,-35.0,1
-253.0,-14.0,42.0,-7.0,83.0,-38.0,1
-252.0,-13.0,42.0,8.0,73.0,-41.0,1
-255.0,-15.0,42.0,23.0,66.0,-48.0,1
-260.0,-10.0,44.0,34.0,63.0,-40.0,1
-258.0,-12.0,43.0,45.0,62.0,-25.0,1
-253.0,-13.0,42.0,55.0,62.0,-18.0,1
-256.0,-11.0,45.0,64.0,60.0,-18.0,1
-254.0,-11.0,47.0,72.0,60.0,-21.0,1
-249.0,-10.0,48.0,79.0,59.0,-22.0,1
-247.0,-16.0,46.0,88.0,58.0,-18.0,1
-246.0,-10.0,49.0,94.0,55.0,-15.0,1
-247.0,-11.0,52.0,98.0,50.0,-10.0,1
-247.0,-6.0,51.0,97.0,41.0,-7.0,1
-246.0,-8.0,50.0,96.0,32.0,-2.0,1
-245.0,-8.0,53.0,89.0,23.0,-1.0,1
-243.0,-7.0,55.0,73.0,15.0,4.0,1
-254.0,-1.0,52.0,58.0,6.0,8.0,1
-245.0,-5.0,55.0,41.0,-4.0,9.0,1
-247.0,-6.0,55.0,23.0,-10.0,10.0,1
-248.0,-5.0,51.0,4.0,-15.0,10.0,1
-250.0,-8.0,48.0,-14.0,-19.0,8.0,1
-254.0,-2.0,45.0,-33.0,-20.0,6.0,1
-254.0,-8.0,46.0,-50.0,-21.0,5.0,1
-250.0,-9.0,46.0,-63.0,-20.0,5.0,1
-253.0,-7.0,48.0,-74.0,-18.0,7.0,1
-253.0,-5.0,51.0,-82.0,-16.0,11.0,1
-252.0,-12.0,52.0,-87.0,-13.0,13.0,1
-253.0,-3.0,48.0,-91.0,-8.0,17.0,1
-249.0,-14.0,54.0,-94.0,-3.0,20.0,1
-252.0,-9.0,49.0,-96.0,2.0,25.0,1
-249.0,-8.0,47.0,-96.0,6.0,27.0,1
-250.0,-8.0,52.0,-94.0,9.0,31.0,1
-250.0,-10.0,57.0,-93.0,11.0,35.0,1
-248.0,-10.0,56.0,-91.0,14.0,35.0,1
-253.0,-11.0,57.0,-87.0,12.0,39.0,1
-252.0,-9.0,53.0,-88.0,12.0,42.0,1
-251.0,-8.0,52.0,-90.0,15.0,45.0,1
-248.0,-12.0,51.0,-96.0,19.0,48.0,1
-249.0,-9.0,50.0,-104.0,25.0,47.0,1
-250.0,-13.0,53.0,-112.0,32.0,52.0,1
-250.0,-8.0,52.0,-120.0,43.0,52.0,1
-252.0,-4.0,46.0,-125.0,52.0,54.0,1
-247.0,-8.0,51.0,-127.0,60.0,54.0,1
-246.0,-9.0,50.0,-128.0,69.0,55.0,1
-249.0,-10.0,54.0,-128.0,76.0,54.0,1
-245.0,-9.0,52.0,-124.0,83.0,54.0,1
-248.0,-7.0,54.0,-117.0,86.0,53.0,1
-247.0,-10.0,54.0,-107.0,88.0,51.0,1
-245.0,-10.0,50.0,-96.0,88.0,49.0,1
-244.0,-8.0,55.0,-82.0,84.0,47.0,1
-247.0,-10.0,55.0,-67.0,78.0,44.0,1
-249.0,-10.0,54.0,-50.0,70.0,39.0,1
-252.0,-12.0,50.0,-33.0,62.0,35.0,1
-249.0,-6.0,53.0,-18.0,57.0,31.0,1
-252.0,-8.0,49.0,-4.0,52.0,26.0,1
-254.0,-6.0,48.0,6.0,52.0,21.0,1
-253.0,-1.0,47.0,13.0,50.0,17.0,1
-254.0,0.0,48.0,18.0,50.0,13.0,1
-250.0,-4.0,48.0,20.0,52.0,10.0,1
-251.0,-1.0,49.0,22.0,54.0,8.0,1
-253.0,-1.0,48.0,21.0,57.0,5.0,1
-249.0,-4.0,51.0,21.0,61.0,3.0,1
-248.0,-2.0,49.0,21.0,62.0,3.0,1
-250.0,-3.0,51.0,19.0,62.0,0.0,1
-250.0,-6.0,45.0,17.0,61.0,0.0,1
-248.0,-6.0,52.0,17.0,60.0,-1.0,1
-251.0,-3.0,50.0,15.0,58.0,-3.0,1
-248.0,-6.0,47.0,14.0,53.0,-5.0,1
-252.0,-5.0,47.0,14.0,45.0,-4.0,1
-251.0,-1.0,48.0,11.0,42.0,-4.0,1
-252.0,-2.0,45.0,10.0,38.0,-5.0,1
-253.0,-4.0,47.0,8.0,35.0,-8.0,1
-254.0,-3.0,45.0,5.0,35.0,-11.0,1
-257.0,-5.0,46.0,-3.0,36.0,-12.0,1
-254.0,-1.0,51.0,-8.0,41.0,-15.0,1
-251.0,-3.0,48.0,-14.0,46.0,-17.0,1
-252.0,0.0,50.0,-22.0,52.0,-20.0,1
-252.0,-2.0,52.0,-29.0,58.0,-24.0,1
-252.0,0.0,47.0,-36.0,64.0,-26.0,1
-251.0,0.0,49.0,-45.0,68.0,-26.0,1
-248.0,-5.0,51.0,-53.0,68.0,-25.0,1
-250.0,-7.0,47.0,-58.0,66.0,-19.0,1
-247.0,-8.0,47.0,-62.0,56.0,-17.0,1
-248.0,-8.0,49.0,-74.0,56.0,-20.0,1
-251.0,-8.0,40.0,-90.0,54.0,-19.0,1
-253.0,-12.0,47.0,-101.0,49.0,-18.0,1
-255.0,-12.0,49.0,-109.0,43.0,-15.0,1
-252.0,-14.0,45.0,-111.0,33.0,-9.0,1
-256.0,-11.0,45.0,-108.0,27.0,-11.0,1
-253.0,-12.0,42.0,-102.0,23.0,-5.0,1
-251.0,-17.0,47.0,-95.0,23.0,-9.0,1
-249.0,-19.0,43.0,-91.0,24.0,-12.0,1
-252.0,-11.0,41.0,-80.0,26.0,-16.0,1
-253.0,-9.0,39.0,-61.0,28.0,-16.0,1
-256.0,-15.0,40.0,-40.0,28.0,-17.0,1
-251.0,-10.0,41.0,-17.0,27.0,-19.0,1
-250.0,-9.0,41.0,7.0,24.0,-23.0,1
-249.0,-11.0,40.0,30.0,23.0,-27.0,1
-254.0,-7.0,40.0,50.0,18.0,-31.0,1
-250.0,-12.0,44.0,70.0,10.0,-31.0,1
-252.0,-11.0,45.0,87.0,1.0,-32.0,1
-247.0,-13.0,46.0,103.0,-11.0,-32.0,1
-248.0,-15.0,45.0,115.0,-25.0,-32.0,1
-247.0,-9.0,46.0,128.0,-40.0,-32.0,1
-248.0,-6.0,46.0,140.0,-56.0,-32.0,1
-245.0,-14.0,42.0,153.0,-70.0,-29.0,1
-249.0,-9.0,46.0,163.0,-84.0,-29.0,1
-249.0,-11.0,40.0,171.0,-94.0,-27.0,1
-249.0,-12.0,45.0,178.0,-101.0,-25.0,1
-253.0,-11.0,44.0,184.0,-108.0,-23.0,1
-250.0,-11.0,41.0,185.0,-112.0,-21.0,1
-249.0,-11.0,47.0,184.0,-112.0,-19.0,1
-250.0,-12.0,47.0,181.0,-113.0,-17.0,1
-249.0,-10.0,49.0,174.0,-113.0,-15.0,1
-252.0,-8.0,47.0,168.0,-114.0,-13.0,1
-250.0,-9.0,46.0,157.0,-114.0,-8.0,1
-246.0,-9.0,56.0,149.0,-112.0,-8.0,1
-253.0,-8.0,50.0,140.0,-110.0,-5.0,1
-251.0,-8.0,47.0,129.0,-105.0,-2.0,1
-254.0,-5.0,50.0,119.0,-97.0,-1.0,1
-252.0,-7.0,47.0,110.0,-89.0,0.0,1
-248.0,-5.0,47.0,101.0,-80.0,0.0,1
-251.0,-5.0,50.0,91.0,-72.0,-1.0,1
-251.0,-8.0,47.0,85.0,-65.0,-3.0,1
-251.0,-8.0,54.0,80.0,-63.0,-5.0,1
-252.0,-6.0,49.0,77.0,-64.0,-8.0,1
-253.0,-1.0,43.0,75.0,-68.0,-7.0,1
-248.0,-5.0,46.0,76.0,-70.0,-6.0,1
-250.0,-7.0,47.0,79.0,-74.0,-6.0,1
-249.0,-5.0,52.0,82.0,-77.0,-5.0,1
-248.0,-4.0,56.0,86.0,-82.0,-3.0,1
-249.0,-12.0,52.0,88.0,-86.0,-4.0,1
-250.0,-7.0,52.0,94.0,-92.0,-5.0,1
-249.0,-10.0,54.0,102.0,-98.0,-3.0,1
-249.0,-10.0,48.0,113.0,-105.0,-4.0,1
-249.0,-14.0,53.0,126.0,-111.0,-4.0,1
-249.0,-14.0,55.0,140.0,-112.0,-3.0,1
-251.0,-6.0,50.0,154.0,-111.0,-5.0,1
-253.0,-10.0,53.0,165.0,-105.0,-7.0,1
-250.0,-10.0,57.0,174.0,-97.0,-7.0,1
-251.0,-5.0,52.0,180.0,-89.0,-6.0,1
-251.0,-10.0,53.0,183.0,-80.0,-5.0,1
-249.0,-9.0,54.0,184.0,-70.0,-2.0,1
-250.0,-9.0,58.0,183.0,-64.0,-1.0,1
-250.0,-10.0,58.0,179.0,-62.0,1.0,1
-251.0,-4.0,56.0,174.0,-62.0,3.0,1
-249.0,-4.0,53.0,169.0,-63.0,4.0,1
-249.0,-4.0,61.0,162.0,-66.0,6.0,1
-251.0,-6.0,56.0,158.0,-68.0,6.0,1
-250.0,-2.0,55.0,152.0,-69.0,4.0,1
-250.0,-2.0,53.0,145.0,-69.0,0.0,1
-247.0,-2.0,53.0,140.0,-69.0,-3.0,1
-247.0,-1.0,54.0,135.0,-68.0,-6.0,1
-247.0,-4.0,53.0,129.0,-66.0,-9.0,1
-247.0,-4.0,54.0,123.0,-63.0,-14.0,1
-254.0,-6.0,57.0,117.0,-61.0,-16.0,1
-250.0,-3.0,56.0,113.0,-58.0,-15.0,1
-245.0,-2.0,53.0,114.0,-55.0,-17.0,1
-249.0,-5.0,60.0,114.0,-52.0,-19.0,1
-246.0,-1.0,53.0,113.0,-49.0,-20.0,1
-247.0,-5.0,54.0,114.0,-48.0,-22.0,1
-247.0,-3.0,56.0,113.0,-47.0,-24.0,1
-248.0,-3.0,55.0,113.0,-47.0,-23.0,1
-246.0,-6.0,54.0,114.0,-45.0,-22.0,1
-245.0,-2.0,58.0,114.0,-44.0,-22.0,1
-247.0,-5.0,57.0,115.0,-44.0,-21.0,1
-247.0,-5.0,54.0,115.0,-43.0,-23.0,1
-248.0,0.0,57.0,117.0,-41.0,-21.0,1
-246.0,0.0,61.0,120.0,-39.0,-21.0,1
-251.0,-5.0,55.0,124.0,-40.0,-23.0,1
-242.0,-2.0,55.0,127.0,-43.0,-22.0,1
-248.0,-2.0,57.0,131.0,-46.0,-24.0,1
-249.0,-6.0,63.0,133.0,-51.0,-26.0,1
-251.0,-2.0,60.0,130.0,-57.0,-29.0,1
-249.0,-3.0,62.0,125.0,-63.0,-33.0,1
-248.0,-7.0,57.0,119.0,-66.0,-35.0,1
-253.0,-2.0,59.0,111.0,-67.0,-37.0,1
-248.0,-6.0,58.0,102.0,-61.0,-37.0,1
-249.0,-6.0,58.0,93.0,-54.0,-40.0,1
-251.0,-6.0,56.0,82.0,-45.0,-39.0,1
-245.0,-4.0,51.0,69.0,-34.0,-40.0,1
-249.0,-3.0,55.0,56.0,-23.0,-39.0,1
-248.0,-1.0,59.0,43.0,-12.0,-37.0,1
-251.0,-7.0,54.0,33.0,-6.0,-35.0,1
-246.0,-9.0,56.0,24.0,2.0,-33.0,1
-244.0,-7.0,57.0,15.0,4.0,-33.0,1
-248.0,-10.0,62.0,11.0,8.0,-31.0,1
-249.0,-4.0,56.0,8.0,10.0,-26.0,1
-249.0,-8.0,59.0,13.0,24.0,-19.0,1
-250.0,-10.0,59.0,8.0,22.0,-20.0,1
-249.0,-15.0,59.0,0.0,10.0,-24.0,1
-250.0,-9.0,58.0,-6.0,-1.0,-27.0,1
-248.0,-12.0,58.0,-5.0,-9.0,-28.0,1
-250.0,-12.0,56.0,2.0,-13.0,-26.0,1
-251.0,-13.0,57.0,12.0,-17.0,-25.0,1
-247.0,-14.0,60.0,26.0,-19.0,-22.0,1
-251.0,-11.0,56.0,43.0,-20.0,-17.0,1
-251.0,-10.0,58.0,60.0,-19.0,-14.0,1
-252.0,-8.0,56.0,75.0,-19.0,-10.0,1
-251.0,-5.0,55.0,92.0,-18.0,-9.0,1
-248.0,-10.0,56.0,104.0,-17.0,-6.0,1
-246.0,-3.0,59.0,113.0,-16.0,-5.0,1
-248.0,-9.0,56.0,120.0,-15.0,-5.0,1
-250.0,-5.0,56.0,123.0,-13.0,-3.0,1
-247.0,-7.0,57.0,124.0,-12.0,-1.0,1
-249.0,-7.0,60.0,124.0,-11.0,-1.0,1
-249.0,-8.0,59.0,124.0,-12.0,1.0,1
-248.0,-7.0,57.0,123.0,-13.0,1.0,1
-244.0,-14.0,58.0,125.0,-15.0,3.0,1
-246.0,-10.0,63.0,127.0,-19.0,3.0,1
-246.0,-7.0,61.0,131.0,-24.0,5.0,1
-245.0,-6.0,56.0,136.0,-27.0,5.0,1
-250.0,-8.0,58.0,143.0,-28.0,6.0,1
-250.0,-7.0,59.0,150.0,-31.0,6.0,1
-249.0,-8.0,63.0,157.0,-34.0,5.0,1
-249.0,-6.0,59.0,162.0,-37.0,4.0,1
-250.0,-7.0,53.0,165.0,-35.0,3.0,1
-247.0,-6.0,60.0,164.0,-30.0,0.0,1
-252.0,-6.0,56.0,160.0,-22.0,-2.0,1
-249.0,-1.0,61.0,156.0,-19.0,-2.0,1
-252.0,-2.0,54.0,146.0,-15.0,-1.0,1
-249.0,-3.0,56.0,131.0,-12.0,-2.0,1
-245.0,-5.0,49.0,116.0,-7.0,-4.0,1
-248.0,-5.0,58.0,101.0,-2.0,-7.0,1
-248.0,-1.0,57.0,87.0,0.0,-7.0,1
-248.0,-2.0,56.0,78.0,1.0,-7.0,1
-250.0,-3.0,61.0,69.0,3.0,-7.0,1
-248.0,-2.0,57.0,66.0,4.0,-9.0,1
-244.0,-6.0,60.0,67.0,1.0,-9.0,1
-245.0,-5.0,59.0,69.0,0.0,-10.0,1
-246.0,-2.0,60.0,74.0,-3.0,-12.0,1
-245.0,-7.0,57.0,81.0,-12.0,-10.0,1
-242.0,-6.0,58.0,86.0,-18.0,-14.0,1
-248.0,-5.0,58.0,91.0,-28.0,-18.0,1
-247.0,-5.0,62.0,93.0,-34.0,-15.0,1
-247.0,-4.0,58.0,92.0,-39.0,-15.0,1
-249.0,-3.0,59.0,90.0,-44.0,-16.0,1
-249.0,-7.0,58.0,88.0,-47.0,-16.0,1
-247.0,-8.0,58.0,85.0,-50.0,-17.0,1
-247.0,-4.0,60.0,84.0,-49.0,-16.0,1
-247.0,-4.0,57.0,80.0,-46.0,-15.0,1
-247.0,-9.0,58.0,78.0,-42.0,-15.0,1
-248.0,-6.0,60.0,75.0,-38.0,-16.0,1
-245.0,-7.0,62.0,73.0,-33.0,-15.0,1
-246.0,-4.0,60.0,69.0,-25.0,-14.0,1
-247.0,-5.0,61.0,67.0,-16.0,-15.0,1
-247.0,-8.0,61.0,69.0,-9.0,-15.0,1
-248.0,-5.0,62.0,69.0,-8.0,-16.0,1
-247.0,-6.0,62.0,65.0,-7.0,-17.0,1
-249.0,-5.0,62.0,63.0,-10.0,-18.0,1
-247.0,-11.0,60.0,63.0,-13.0,-19.0,1
-248.0,-8.0,57.0,62.0,-13.0,-18.0,1
-250.0,-6.0,58.0,61.0,-11.0,-20.0,1
-249.0,-6.0,60.0,62.0,-7.0,-19.0,1
-250.0,-6.0,54.0,62.0,-3.0,-19.0,1
-249.0,-7.0,58.0,60.0,2.0,-20.0,1
-247.0,-2.0,57.0,59.0,8.0,-19.0,1
-251.0,-5.0,61.0,58.0,10.0,-21.0,1
-249.0,-8.0,62.0,57.0,15.0,-21.0,1
-246.0,-5.0,59.0,56.0,17.0,-20.0,1
-248.0,-4.0,57.0,55.0,18.0,-19.0,1
-248.0,-9.0,63.0,55.0,17.0,-19.0,1
-246.0,-4.0,57.0,53.0,18.0,-18.0,1
-247.0,-8.0,59.0,54.0,17.0,-16.0,1
-246.0,-5.0,58.0,54.0,17.0,-14.0,1
-241.0,-13.0,68.0,54.0,17.0,-17.0,1
-247.0,-9.0,62.0,53.0,17.0,-14.0,1
-246.0,-7.0,64.0,54.0,15.0,-14.0,1
-245.0,-6.0,62.0,54.0,15.0,-13.0,1
-247.0,-6.0,63.0,52.0,15.0,-14.0,1
-246.0,-9.0,62.0,50.0,13.0,-13.0,1
-248.0,-7.0,57.0,47.0,11.0,-12.0,1
-246.0,-8.0,61.0,46.0,9.0,-12.0,1
-248.0,-6.0,63.0,43.0,7.0,-10.0,1
-250.0,-4.0,58.0,41.0,5.0,-12.0,1
-248.0,-6.0,56.0,38.0,5.0,-12.0,1
-250.0,-11.0,63.0,35.0,7.0,-11.0,1
-250.0,-6.0,59.0,32.0,11.0,-12.0,1
-247.0,-5.0,55.0,29.0,16.0,-15.0,1
-248.0,-3.0,57.0,28.0,20.0,-14.0,1
-249.0,-7.0,62.0,27.0,23.0,-15.0,1
-245.0,-8.0,57.0,28.0,23.0,-15.0,1
-246.0,-6.0,55.0,30.0,20.0,-14.0,1
-243.0,-9.0,60.0,34.0,17.0,-13.0,1
-249.0,-6.0,58.0,41.0,12.0,-13.0,1
-246.0,-11.0,56.0,51.0,8.0,-13.0,1
-248.0,-10.0,64.0,64.0,2.0,-11.0,1
-247.0,-8.0,62.0,75.0,-1.0,-10.0,1
-249.0,-8.0,60.0,86.0,-3.0,-11.0,1
-248.0,-8.0,62.0,96.0,-4.0,-10.0,1
-244.0,-7.0,62.0,101.0,-4.0,-11.0,1
-249.0,-7.0,63.0,105.0,-5.0,-8.0,1
-250.0,-6.0,60.0,107.0,-5.0,-7.0,1
-246.0,-8.0,59.0,108.0,-7.0,-7.0,1
-247.0,-8.0,55.0,110.0,-8.0,-5.0,1
-245.0,-7.0,61.0,112.0,-11.0,-4.0,1
-248.0,-4.0,57.0,113.0,-13.0,-3.0,1
-242.0,-7.0,59.0,113.0,-15.0,-2.0,1
-248.0,-5.0,61.0,114.0,-16.0,-2.0,1
-246.0,-5.0,61.0,109.0,-19.0,-1.0,1
-247.0,-5.0,61.0,107.0,-18.0,-3.0,1
-242.0,-6.0,66.0,102.0,-18.0,-3.0,1
-245.0,-6.0,62.0,95.0,-18.0,-4.0,1
-243.0,-7.0,59.0,87.0,-16.0,-6.0,1
-245.0,-6.0,61.0,77.0,-16.0,-7.0,1
-249.0,-2.0,61.0,66.0,-13.0,-9.0,1
-249.0,-5.0,64.0,58.0,-11.0,-9.0,1
-248.0,-10.0,61.0,50.0,-7.0,-10.0,1
-253.0,-6.0,54.0,43.0,-1.0,-8.0,1
-250.0,-2.0,63.0,40.0,6.0,-9.0,1
-249.0,-2.0,61.0,38.0,14.0,-10.0,1
-250.0,-2.0,61.0,36.0,21.0,-11.0,1
-248.0,-5.0,61.0,34.0,27.0,-12.0,1
-245.0,-6.0,59.0,31.0,31.0,-14.0,1
-251.0,-4.0,58.0,30.0,33.0,-14.0,1
-249.0,-5.0,61.0,31.0,33.0,-15.0,1
-249.0,-4.0,58.0,29.0,31.0,-18.0,1
-245.0,-4.0,59.0,31.0,27.0,-19.0,1
-251.0,-6.0,51.0,32.0,24.0,-20.0,1
-247.0,-6.0,60.0,36.0,23.0,-18.0,1
-246.0,-1.0,60.0,39.0,23.0,-18.0,1
-244.0,-5.0,59.0,42.0,23.0,-20.0,1
-246.0,-6.0,57.0,44.0,26.0,-20.0,1
-248.0,-2.0,59.0,46.0,24.0,-20.0,1
-244.0,-6.0,63.0,49.0,25.0,-19.0,1
-243.0,-8.0,61.0,52.0,21.0,-16.0,1
-243.0,-9.0,65.0,54.0,14.0,-18.0,1
-247.0,-5.0,64.0,61.0,6.0,-18.0,1
-245.0,-9.0,64.0,66.0,-4.0,-17.0,1
-247.0,3.0,60.0,73.0,-14.0,-17.0,1
-244.0,-7.0,62.0,78.0,-22.0,-18.0,1
-247.0,-5.0,62.0,82.0,-30.0,-16.0,1
-247.0,-4.0,60.0,84.0,-34.0,-15.0,1
-247.0,-4.0,59.0,85.0,-33.0,-17.0,1
-252.0,-2.0,61.0,83.0,-31.0,-18.0,1
-248.0,-1.0,58.0,78.0,-32.0,-16.0,1
-252.0,-6.0,62.0,68.0,-30.0,-16.0,1
-249.0,-7.0,64.0,54.0,-25.0,-18.0,1
-247.0,-8.0,59.0,41.0,-20.0,-19.0,1
-253.0,-1.0,59.0,28.0,-12.0,-20.0,1
-249.0,-7.0,57.0,17.0,-5.0,-18.0,1
-249.0,-5.0,60.0,9.0,4.0,-19.0,1
-247.0,-8.0,60.0,5.0,10.0,-17.0,1
-246.0,-6.0,61.0,3.0,17.0,-17.0,1
-246.0,-8.0,59.0,4.0,20.0,-17.0,1
-246.0,-9.0,63.0,10.0,22.0,-13.0,1
-246.0,-8.0,65.0,21.0,23.0,-12.0,1
-245.0,-8.0,63.0,32.0,22.0,-12.0,1
-246.0,-6.0,61.0,49.0,18.0,-9.0,1
-237.0,-7.0,55.0,74.0,30.0,0.0,1
-254.0,-12.0,60.0,102.0,55.0,11.0,1
-250.0,-8.0,64.0,115.0,39.0,10.0,1
-245.0,-9.0,64.0,119.0,14.0,4.0,1
-242.0,-9.0,62.0,124.0,-7.0,2.0,1
-247.0,-6.0,65.0,129.0,-21.0,2.0,1
-248.0,-7.0,64.0,127.0,-22.0,4.0,1
-248.0,-4.0,61.0,124.0,-21.0,6.0,1
-249.0,-6.0,61.0,115.0,-17.0,7.0,1
-244.0,-7.0,63.0,103.0,-14.0,9.0,1
-244.0,-4.0,67.0,89.0,-9.0,12.0,1
-246.0,-2.0,63.0,73.0,0.0,12.0,1
-247.0,-2.0,63.0,60.0,9.0,13.0,1
-252.0,-2.0,64.0,47.0,20.0,14.0,1
-247.0,-5.0,59.0,34.0,32.0,15.0,1
-248.0,-1.0,62.0,21.0,44.0,15.0,1
-249.0,-4.0,63.0,10.0,56.0,16.0,1
-249.0,-1.0,63.0,1.0,68.0,14.0,1
-248.0,-6.0,61.0,-7.0,79.0,12.0,1
-246.0,-5.0,61.0,-13.0,88.0,8.0,1
-245.0,-6.0,60.0,-18.0,95.0,8.0,1
-253.0,0.0,61.0,-20.0,103.0,5.0,1
-248.0,-2.0,59.0,-23.0,108.0,5.0,1
-250.0,-7.0,63.0,-26.0,116.0,3.0,1
-247.0,-1.0,55.0,-29.0,119.0,1.0,1
-248.0,-5.0,54.0,-29.0,120.0,-1.0,1
-247.0,-3.0,60.0,-28.0,115.0,-3.0,1
-249.0,-4.0,57.0,-25.0,111.0,-2.0,1
-243.0,-7.0,59.0,-20.0,101.0,-8.0,1
-248.0,-6.0,58.0,-14.0,91.0,-8.0,1
-246.0,-8.0,56.0,-5.0,81.0,-7.0,1
-244.0,-8.0,60.0,4.0,69.0,-10.0,1
-247.0,-6.0,57.0,15.0,57.0,-13.0,1
-246.0,-14.0,58.0,25.0,45.0,-13.0,1
-250.0,-6.0,58.0,33.0,33.0,-14.0,1
-248.0,-7.0,62.0,41.0,19.0,-15.0,1
-249.0,-6.0,58.0,49.0,7.0,-16.0,1
-247.0,-3.0,54.0,55.0,-4.0,-20.0,1
-249.0,-5.0,56.0,59.0,-12.0,-19.0,1
-252.0,-6.0,56.0,62.0,-15.0,-18.0,1
-252.0,-3.0,60.0,62.0,-14.0,-18.0,1
-249.0,-4.0,57.0,59.0,-11.0,-18.0,1
-251.0,-7.0,57.0,57.0,-8.0,-20.0,1
-252.0,-2.0,53.0,52.0,-3.0,-19.0,1
-254.0,-18.0,55.0,47.0,0.0,-20.0,1
-251.0,-7.0,58.0,43.0,2.0,-22.0,1
-250.0,-10.0,59.0,41.0,6.0,-21.0,1
-248.0,-7.0,61.0,42.0,10.0,-23.0,1
-249.0,-7.0,60.0,44.0,11.0,-22.0,1
-247.0,-6.0,58.0,46.0,10.0,-21.0,1
-247.0,-7.0,59.0,48.0,12.0,-19.0,1
-245.0,-7.0,58.0,52.0,8.0,-18.0,1
-252.0,-6.0,57.0,57.0,2.0,-18.0,1
-247.0,-4.0,59.0,62.0,-2.0,-17.0,1
-247.0,-10.0,62.0,64.0,-9.0,-17.0,1
-244.0,-9.0,53.0,66.0,-15.0,-17.0,1
-246.0,-2.0,57.0,66.0,-20.0,-17.0,1
-248.0,-8.0,61.0,66.0,-22.0,-15.0,1
-246.0,-4.0,60.0,64.0,-21.0,-13.0,1
-246.0,-6.0,61.0,61.0,-20.0,-12.0,1
-248.0,-5.0,60.0,58.0,-16.0,-11.0,1
-246.0,-10.0,62.0,53.0,-10.0,-11.0,1
-249.0,-8.0,61.0,50.0,-5.0,-8.0,1
-243.0,-7.0,63.0,48.0,1.0,-6.0,1
-243.0,-4.0,58.0,46.0,7.0,-6.0,1
-246.0,-9.0,61.0,46.0,13.0,-5.0,1
-246.0,-7.0,61.0,48.0,19.0,-4.0,1
-250.0,-7.0,60.0,49.0,24.0,-5.0,1
-247.0,-8.0,64.0,51.0,30.0,-4.0,1
-247.0,-8.0,63.0,54.0,36.0,-3.0,1
-246.0,-8.0,59.0,53.0,40.0,-2.0,1
-249.0,-3.0,63.0,52.0,47.0,0.0,1
-248.0,-3.0,57.0,48.0,54.0,3.0,1
-249.0,-6.0,63.0,45.0,62.0,5.0,1
-249.0,-5.0,58.0,40.0,70.0,8.0,1
-244.0,-10.0,59.0,32.0,76.0,7.0,1
-243.0,-9.0,61.0,27.0,81.0,9.0,1
-250.0,-4.0,60.0,23.0,83.0,11.0,1
-250.0,-7.0,59.0,19.0,81.0,12.0,1
-249.0,-5.0,59.0,21.0,75.0,15.0,1
-244.0,-8.0,61.0,22.0,68.0,15.0,1
-251.0,-5.0,59.0,25.0,58.0,13.0,1
-247.0,-3.0,57.0,29.0,53.0,12.0,1
-249.0,-5.0,60.0,33.0,47.0,11.0,1
-249.0,-1.0,60.0,40.0,45.0,8.0,1
-248.0,-1.0,53.0,41.0,45.0,5.0,1
-248.0,-6.0,60.0,45.0,44.0,2.0,1
-242.0,-8.0,68.0,46.0,45.0,0.0,1
-248.0,-5.0,54.0,48.0,46.0,-1.0,1
-250.0,-4.0,56.0,49.0,45.0,-3.0,1
-248.0,-6.0,58.0,49.0,46.0,-4.0,1
-247.0,-4.0,56.0,51.0,44.0,-6.0,1
-249.0,-9.0,57.0,55.0,42.0,-6.0,1
-249.0,-7.0,57.0,61.0,39.0,-6.0,1
-249.0,-8.0,57.0,68.0,33.0,-7.0,1
-248.0,-11.0,61.0,75.0,28.0,-5.0,1
-245.0,-9.0,54.0,81.0,22.0,-3.0,1
-248.0,-11.0,57.0,89.0,16.0,-1.0,1
-248.0,-4.0,57.0,96.0,13.0,1.0,1
-248.0,-4.0,58.0,101.0,11.0,4.0,1
-246.0,-8.0,53.0,110.0,7.0,5.0,1
-249.0,-1.0,53.0,116.0,2.0,7.0,1
-248.0,-3.0,58.0,117.0,-1.0,8.0,1
-248.0,-9.0,53.0,119.0,-7.0,7.0,1
-249.0,-4.0,51.0,119.0,-13.0,8.0,1
-249.0,-6.0,60.0,116.0,-21.0,8.0,1
-250.0,-5.0,57.0,116.0,-28.0,7.0,1
-248.0,-4.0,58.0,114.0,-36.0,7.0,1
-248.0,0.0,61.0,111.0,-41.0,7.0,1
-252.0,-1.0,59.0,108.0,-44.0,5.0,1
-251.0,-1.0,58.0,103.0,-43.0,4.0,1
-251.0,-3.0,57.0,98.0,-36.0,3.0,1
-250.0,0.0,59.0,92.0,-28.0,1.0,1
-250.0,-2.0,60.0,85.0,-19.0,1.0,1
-251.0,-1.0,61.0,77.0,-9.0,-2.0,1
-251.0,-1.0,58.0,66.0,-1.0,-4.0,1
-247.0,-1.0,55.0,59.0,8.0,-1.0,1
-249.0,-2.0,59.0,51.0,15.0,-3.0,1
-248.0,-1.0,59.0,45.0,21.0,-5.0,1
-246.0,-7.0,63.0,42.0,24.0,-3.0,1
-247.0,-6.0,59.0,41.0,25.0,-1.0,1
-246.0,-6.0,56.0,43.0,25.0,-3.0,1
-245.0,-7.0,57.0,48.0,23.0,-4.0,1
-247.0,-6.0,60.0,54.0,20.0,-5.0,1
-246.0,-6.0,57.0,60.0,15.0,-6.0,1
-250.0,-4.0,57.0,69.0,9.0,-7.0,1
-249.0,-5.0,61.0,77.0,2.0,-9.0,1
-247.0,-5.0,60.0,83.0,-4.0,-12.0,1
-247.0,0.0,59.0,88.0,-9.0,-15.0,1
-252.0,-8.0,56.0,90.0,-11.0,-13.0,1
-247.0,-1.0,58.0,93.0,-12.0,-15.0,1
-249.0,-3.0,58.0,93.0,-15.0,-15.0,1
-251.0,-2.0,57.0,89.0,-14.0,-14.0,1
-250.0,-3.0,57.0,85.0,-13.0,-15.0,1
-248.0,-3.0,61.0,78.0,-11.0,-15.0,1
-248.0,-2.0,59.0,70.0,-9.0,-15.0,1
-248.0,-4.0,59.0,64.0,-7.0,-14.0,1
-250.0,-1.0,58.0,56.0,-2.0,-13.0,1
-250.0,-1.0,58.0,46.0,3.0,-10.0,1
-245.0,-3.0,56.0,37.0,8.0,-10.0,1
-247.0,-1.0,60.0,27.0,14.0,-11.0,1
-249.0,0.0,57.0,15.0,20.0,-12.0,1
-247.0,-1.0,59.0,6.0,23.0,-13.0,1
-250.0,-3.0,56.0,-3.0,27.0,-13.0,1
-251.0,0.0,61.0,-10.0,31.0,-14.0,1
-249.0,0.0,59.0,-17.0,35.0,-14.0,1
-250.0,-2.0,61.0,-24.0,40.0,-15.0,1
-250.0,-5.0,61.0,-29.0,44.0,-14.0,1
-249.0,-5.0,58.0,-34.0,52.0,-14.0,1
-248.0,-3.0,54.0,-40.0,59.0,-13.0,1
-242.0,-10.0,59.0,-41.0,64.0,-13.0,1
-248.0,-6.0,57.0,-42.0,69.0,-11.0,1
-249.0,-4.0,55.0,-42.0,72.0,-10.0,1
-247.0,-7.0,58.0,-39.0,73.0,-10.0,1
-249.0,-6.0,58.0,-36.0,71.0,-9.0,1
-249.0,-3.0,59.0,-34.0,70.0,-8.0,1
-250.0,-6.0,59.0,-29.0,67.0,-8.0,1
-246.0,-7.0,58.0,-26.0,62.0,-6.0,1
-249.0,-8.0,57.0,-24.0,57.0,-5.0,1
-249.0,-6.0,58.0,-20.0,52.0,-3.0,1
-250.0,-6.0,52.0,-19.0,48.0,-3.0,1
-246.0,-10.0,57.0,-18.0,48.0,-2.0,1
-251.0,-6.0,56.0,-18.0,48.0,-1.0,1
-248.0,-5.0,57.0,-18.0,50.0,-2.0,1
-246.0,-6.0,57.0,-17.0,52.0,-4.0,1
-248.0,-7.0,59.0,-16.0,53.0,-2.0,1
-247.0,-6.0,57.0,-14.0,54.0,-2.0,1
-246.0,-5.0,57.0,-12.0,53.0,-2.0,1
-248.0,-4.0,55.0,-12.0,53.0,0.0,1
-246.0,-7.0,55.0,-11.0,51.0,0.0,1
-247.0,-7.0,56.0,-9.0,50.0,0.0,1
-247.0,-7.0,55.0,-7.0,47.0,-3.0,1
-244.0,-7.0,61.0,-4.0,47.0,-3.0,1
-246.0,-3.0,55.0,-2.0,48.0,-4.0,1
-250.0,-4.0,59.0,0.0,47.0,-5.0,1
-246.0,-7.0,56.0,2.0,48.0,-6.0,1
-250.0,-6.0,56.0,3.0,48.0,-6.0,1
-247.0,-1.0,54.0,2.0,48.0,-8.0,1
-248.0,-4.0,53.0,0.0,48.0,-8.0,1
-248.0,-4.0,52.0,-3.0,51.0,-8.0,1
-247.0,-5.0,56.0,-7.0,54.0,-8.0,1
-250.0,-5.0,57.0,-9.0,57.0,-6.0,1
-249.0,-4.0,54.0,-9.0,61.0,-7.0,1
-246.0,-7.0,61.0,-8.0,64.0,-7.0,1
-248.0,-8.0,57.0,-8.0,67.0,-7.0,1
-248.0,-6.0,58.0,-6.0,69.0,-7.0,1
-245.0,-6.0,60.0,-7.0,69.0,-8.0,1
-248.0,-4.0,58.0,-9.0,69.0,-6.0,1
-246.0,-5.0,58.0,-10.0,68.0,-7.0,1
-250.0,-3.0,53.0,-12.0,68.0,-7.0,1
-248.0,-3.0,59.0,-16.0,68.0,-5.0,1
-248.0,-3.0,56.0,-24.0,69.0,-6.0,1
-250.0,-4.0,57.0,-31.0,74.0,-8.0,1
-253.0,-1.0,55.0,-40.0,81.0,-8.0,1
-251.0,-1.0,56.0,-50.0,89.0,-10.0,1
-251.0,-5.0,54.0,-62.0,97.0,-11.0,1
-250.0,-4.0,52.0,-72.0,105.0,-12.0,1
-250.0,-7.0,52.0,-79.0,113.0,-10.0,1
-251.0,-7.0,50.0,-84.0,120.0,-10.0,1
-247.0,-7.0,55.0,-88.0,124.0,-10.0,1
-247.0,-5.0,56.0,-88.0,126.0,-10.0,1
-251.0,-7.0,53.0,-88.0,125.0,-6.0,1
-246.0,-6.0,49.0,-83.0,122.0,-4.0,1
-249.0,-4.0,52.0,-77.0,117.0,-2.0,1
-245.0,-9.0,50.0,-71.0,112.0,0.0,1
-250.0,-7.0,52.0,-65.0,107.0,0.0,1
-250.0,-9.0,50.0,-60.0,103.0,1.0,1
-251.0,-4.0,51.0,-56.0,101.0,2.0,1
-250.0,-5.0,53.0,-50.0,98.0,3.0,1
-251.0,-3.0,51.0,-48.0,101.0,4.0,1
-253.0,-2.0,49.0,-45.0,102.0,2.0,1
-246.0,-4.0,49.0,-44.0,104.0,0.0,1
-251.0,-3.0,51.0,-42.0,105.0,0.0,1
-249.0,-8.0,50.0,-42.0,104.0,0.0,1
-253.0,-3.0,52.0,-42.0,102.0,-3.0,1
-249.0,-6.0,47.0,-42.0,98.0,-2.0,1
-254.0,-6.0,49.0,-40.0,94.0,-2.0,1
-249.0,-7.0,48.0,-34.0,90.0,-2.0,1
-253.0,-6.0,45.0,-27.0,85.0,-2.0,1
-251.0,-6.0,48.0,-18.0,81.0,-2.0,1
-252.0,-6.0,45.0,-8.0,76.0,-2.0,1
-252.0,-11.0,47.0,6.0,71.0,-4.0,1
-252.0,-6.0,48.0,21.0,65.0,-4.0,1
-251.0,-9.0,46.0,38.0,57.0,-6.0,1
-251.0,-4.0,43.0,56.0,47.0,-10.0,1
-257.0,-9.0,44.0,76.0,38.0,-12.0,1
-253.0,-8.0,44.0,96.0,25.0,-14.0,1
-250.0,-8.0,48.0,114.0,13.0,-16.0,1
-254.0,-10.0,42.0,133.0,0.0,-17.0,1
-249.0,-9.0,47.0,147.0,-10.0,-18.0,1
-252.0,-8.0,45.0,157.0,-21.0,-18.0,1
-250.0,-8.0,53.0,166.0,-29.0,-18.0,1
-246.0,-10.0,49.0,171.0,-35.0,-16.0,1
-251.0,-5.0,54.0,173.0,-39.0,-14.0,1
-252.0,-7.0,55.0,173.0,-38.0,-13.0,1
-251.0,-5.0,54.0,167.0,-33.0,-10.0,1
-250.0,-7.0,55.0,158.0,-25.0,-8.0,1
-250.0,-6.0,55.0,148.0,-10.0,-6.0,1
-249.0,-3.0,56.0,134.0,5.0,-6.0,1
-247.0,-5.0,55.0,120.0,23.0,-5.0,1
-250.0,-2.0,52.0,105.0,43.0,-7.0,1
-247.0,-1.0,51.0,89.0,64.0,-6.0,1
-245.0,-5.0,50.0,73.0,83.0,-6.0,1
-249.0,-2.0,55.0,58.0,98.0,-8.0,1
-246.0,0.0,50.0,43.0,111.0,-6.0,1
-249.0,-2.0,50.0,31.0,119.0,-8.0,1
-249.0,1.0,57.0,19.0,124.0,-7.0,1
-246.0,-2.0,49.0,4.0,122.0,-6.0,1
-249.0,-2.0,46.0,-5.0,121.0,-5.0,1
-248.0,-1.0,51.0,-15.0,114.0,-3.0,1
-250.0,-4.0,48.0,-22.0,106.0,-2.0,1
-248.0,-3.0,50.0,-25.0,95.0,-2.0,1
-246.0,-6.0,45.0,-25.0,81.0,-2.0,1
-251.0,-4.0,51.0,-21.0,66.0,-6.0,1
-249.0,-7.0,50.0,-14.0,51.0,-6.0,1
-251.0,-4.0,47.0,-7.0,37.0,-9.0,1
-253.0,-7.0,46.0,3.0,24.0,-13.0,1
-251.0,-6.0,54.0,12.0,11.0,-15.0,1
-252.0,-3.0,47.0,24.0,0.0,-18.0,1
-252.0,-6.0,47.0,35.0,-7.0,-16.0,1
-251.0,-7.0,45.0,44.0,-14.0,-19.0,1
-251.0,-4.0,46.0,54.0,-17.0,-22.0,1
-250.0,-4.0,44.0,61.0,-19.0,-23.0,1
-254.0,-4.0,47.0,66.0,-18.0,-26.0,1
-250.0,0.0,48.0,69.0,-17.0,-25.0,1
-253.0,-3.0,51.0,69.0,-15.0,-27.0,1
-250.0,-6.0,44.0,68.0,-12.0,-28.0,1
-252.0,-4.0,50.0,66.0,-7.0,-30.0,1
-251.0,-10.0,52.0,63.0,-4.0,-29.0,1
-251.0,-8.0,50.0,57.0,2.0,-29.0,1
-251.0,-4.0,52.0,50.0,6.0,-27.0,1
-251.0,-4.0,50.0,45.0,9.0,-28.0,1
-249.0,-3.0,50.0,38.0,12.0,-26.0,1
-249.0,-7.0,51.0,33.0,17.0,-28.0,1
-248.0,-6.0,50.0,27.0,20.0,-29.0,1
-252.0,-6.0,47.0,22.0,21.0,-26.0,1
-250.0,-7.0,50.0,18.0,23.0,-25.0,1
-252.0,-4.0,50.0,19.0,23.0,-23.0,1
-250.0,-8.0,47.0,21.0,24.0,-21.0,1
-254.0,-12.0,47.0,25.0,23.0,-19.0,1
-250.0,-4.0,47.0,30.0,22.0,-18.0,1
-253.0,-9.0,47.0,36.0,19.0,-16.0,1
-248.0,-11.0,47.0,41.0,13.0,-16.0,1
-249.0,-8.0,46.0,47.0,7.0,-12.0,1
-247.0,-9.0,47.0,55.0,-4.0,-14.0,1
-250.0,-4.0,44.0,62.0,-14.0,-14.0,1
-253.0,-6.0,47.0,70.0,-25.0,-14.0,1
-250.0,-9.0,45.0,77.0,-33.0,-15.0,1
-253.0,-2.0,44.0,86.0,-37.0,-16.0,1
-253.0,-5.0,49.0,92.0,-38.0,-16.0,1
-249.0,-3.0,46.0,97.0,-38.0,-17.0,1
-249.0,-6.0,46.0,100.0,-36.0,-17.0,1
-251.0,-6.0,46.0,99.0,-34.0,-19.0,1
-252.0,-3.0,46.0,97.0,-36.0,-20.0,1
-248.0,-6.0,49.0,96.0,-36.0,-18.0,1
-251.0,-5.0,51.0,92.0,-34.0,-16.0,1
-252.0,-6.0,47.0,88.0,-35.0,-13.0,1
-249.0,-8.0,49.0,84.0,-33.0,-11.0,1
-250.0,-7.0,52.0,80.0,-30.0,-9.0,1
-248.0,-5.0,54.0,77.0,-24.0,-7.0,1
-248.0,-2.0,53.0,73.0,-19.0,-6.0,1
-250.0,-8.0,51.0,70.0,-13.0,-6.0,1
-251.0,-5.0,49.0,68.0,-10.0,-3.0,1
-247.0,-5.0,50.0,65.0,-10.0,-4.0,1
-248.0,-6.0,48.0,64.0,-10.0,-3.0,1
-248.0,-5.0,51.0,63.0,-15.0,-4.0,1
-250.0,-5.0,54.0,62.0,-18.0,-2.0,1
-249.0,-6.0,49.0,65.0,-22.0,-2.0,1
-252.0,-2.0,49.0,67.0,-23.0,-2.0,1
-251.0,-3.0,50.0,70.0,-24.0,-2.0,1
-250.0,0.0,51.0,73.0,-24.0,-3.0,1
-255.0,-9.0,54.0,75.0,-23.0,-6.0,1
-253.0,-3.0,51.0,78.0,-21.0,-6.0,1
-251.0,-7.0,53.0,80.0,-20.0,-8.0,1
-253.0,-5.0,49.0,81.0,-16.0,-10.0,1
-252.0,-3.0,49.0,83.0,-15.0,-11.0,1
-253.0,-5.0,49.0,85.0,-12.0,-13.0,1
-252.0,-4.0,50.0,88.0,-8.0,-15.0,1
-251.0,-7.0,51.0,92.0,-3.0,-15.0,1
-252.0,-5.0,52.0,96.0,0.0,-15.0,1
-249.0,-6.0,52.0,105.0,3.0,-14.0,1
-238.0,-6.0,44.0,114.0,5.0,-17.0,1
-250.0,-8.0,48.0,123.0,7.0,-19.0,1
-247.0,-8.0,51.0,132.0,7.0,-21.0,1
-249.0,-6.0,51.0,140.0,5.0,-22.0,1
-251.0,-3.0,54.0,146.0,2.0,-24.0,1
-249.0,-7.0,51.0,150.0,-4.0,-22.0,1
-249.0,-6.0,49.0,150.0,-8.0,-25.0,1
-249.0,-3.0,50.0,149.0,-14.0,-21.0,1
-252.0,-2.0,50.0,147.0,-20.0,-22.0,1
-252.0,-3.0,49.0,143.0,-26.0,-22.0,1
-253.0,-3.0,58.0,139.0,-29.0,-22.0,1
-246.0,-5.0,50.0,134.0,-30.0,-20.0,1
-252.0,-2.0,52.0,128.0,-30.0,-21.0,1
-251.0,-7.0,50.0,122.0,-28.0,-20.0,1
-250.0,-5.0,51.0,115.0,-25.0,-19.0,1
-252.0,-4.0,52.0,109.0,-22.0,-16.0,1
-248.0,-7.0,52.0,103.0,-17.0,-15.0,1
-249.0,-2.0,50.0,97.0,-14.0,-15.0,1
-249.0,-4.0,52.0,91.0,-11.0,-12.0,1
-249.0,-3.0,49.0,87.0,-9.0,-12.0,1
-249.0,-2.0,53.0,84.0,-7.0,-10.0,1
-249.0,-5.0,53.0,79.0,-4.0,-9.0,1
-245.0,-4.0,50.0,77.0,-2.0,-11.0,1
-249.0,-5.0,53.0,73.0,2.0,-11.0,1
-247.0,-2.0,54.0,69.0,3.0,-12.0,1
-250.0,-7.0,49.0,65.0,2.0,-11.0,1
-248.0,-4.0,54.0,63.0,-2.0,-12.0,1
-249.0,-5.0,49.0,63.0,-9.0,-12.0,1
-251.0,-2.0,49.0,65.0,-17.0,-11.0,1
-250.0,-9.0,52.0,69.0,-23.0,-8.0,1
-250.0,-9.0,50.0,74.0,-28.0,-10.0,1
-251.0,-8.0,47.0,80.0,-25.0,-11.0,1
-255.0,-8.0,55.0,84.0,-22.0,-11.0,1
-253.0,-5.0,50.0,87.0,-17.0,-9.0,1
-252.0,-1.0,49.0,90.0,-14.0,-11.0,1
-250.0,-6.0,52.0,91.0,-10.0,-11.0,1
-250.0,-2.0,49.0,91.0,-10.0,-14.0,1
-248.0,-7.0,52.0,92.0,-14.0,-13.0,1
-247.0,-5.0,50.0,93.0,-18.0,-12.0,1
-247.0,-11.0,51.0,92.0,-24.0,-13.0,1
-247.0,-9.0,54.0,95.0,-28.0,-15.0,1
-249.0,-9.0,51.0,99.0,-32.0,-14.0,1
-249.0,-6.0,60.0,104.0,-34.0,-15.0,1
-251.0,-14.0,52.0,106.0,-33.0,-13.0,1
-247.0,-6.0,56.0,109.0,-29.0,-14.0,1
-251.0,-7.0,54.0,110.0,-25.0,-12.0,1
-251.0,-4.0,53.0,107.0,-20.0,-11.0,1
-249.0,-4.0,52.0,106.0,-16.0,-8.0,1
-249.0,-3.0,52.0,103.0,-12.0,-7.0,1
-250.0,-2.0,49.0,99.0,-9.0,-5.0,1
-249.0,-5.0,54.0,95.0,-7.0,-2.0,1
-248.0,-5.0,54.0,91.0,-8.0,-2.0,1
-251.0,-6.0,49.0,88.0,-8.0,0.0,1
-247.0,-8.0,49.0,84.0,-12.0,-2.0,1
-248.0,-6.0,47.0,82.0,-14.0,-2.0,1
-251.0,-4.0,54.0,79.0,-18.0,-5.0,1
-249.0,-3.0,53.0,77.0,-23.0,-5.0,1
-251.0,-5.0,55.0,78.0,-27.0,-6.0,1
-254.0,-3.0,51.0,78.0,-31.0,-8.0,1
-250.0,-1.0,54.0,78.0,-32.0,-9.0,1
-253.0,0.0,46.0,77.0,-32.0,-12.0,1
-251.0,-1.0,54.0,79.0,-31.0,-13.0,1
-246.0,-2.0,57.0,78.0,-27.0,-15.0,1
-249.0,-6.0,52.0,76.0,-23.0,-17.0,1
-249.0,-8.0,52.0,75.0,-20.0,-16.0,1
-250.0,-1.0,55.0,74.0,-17.0,-17.0,1
-249.0,-5.0,50.0,71.0,-13.0,-18.0,1
-248.0,-8.0,53.0,69.0,-10.0,-19.0,1
-250.0,-2.0,54.0,67.0,-8.0,-19.0,1
-249.0,-6.0,55.0,65.0,-8.0,-21.0,1
-251.0,-4.0,51.0,64.0,-9.0,-20.0,1
-247.0,-5.0,57.0,63.0,-10.0,-21.0,1
-252.0,-2.0,54.0,62.0,-12.0,-22.0,1
-250.0,-7.0,54.0,62.0,-14.0,-22.0,1
-248.0,-4.0,53.0,63.0,-17.0,-21.0,1
-252.0,-2.0,47.0,62.0,-20.0,-23.0,1
-250.0,-5.0,52.0,62.0,-20.0,-21.0,1
-250.0,-5.0,50.0,61.0,-21.0,-20.0,1
-251.0,-5.0,55.0,62.0,-23.0,-20.0,1
-249.0,-9.0,55.0,63.0,-23.0,-19.0,1
-249.0,-5.0,54.0,66.0,-25.0,-19.0,1
-251.0,-4.0,57.0,68.0,-27.0,-20.0,1
-252.0,-2.0,58.0,69.0,-29.0,-18.0,1
-247.0,-4.0,52.0,71.0,-31.0,-17.0,1
-249.0,-6.0,54.0,72.0,-32.0,-16.0,1
-250.0,-8.0,56.0,73.0,-33.0,-16.0,1
-252.0,-11.0,58.0,74.0,-34.0,-15.0,1
-249.0,-6.0,51.0,74.0,-31.0,-15.0,1
-253.0,-6.0,53.0,74.0,-30.0,-13.0,1
-249.0,-6.0,54.0,72.0,-27.0,-14.0,1
-251.0,-6.0,54.0,69.0,-22.0,-12.0,1
-247.0,-3.0,52.0,66.0,-21.0,-11.0,1
-252.0,-3.0,50.0,65.0,-20.0,-12.0,1
-249.0,-3.0,57.0,62.0,-21.0,-13.0,1
-249.0,-5.0,60.0,61.0,-23.0,-14.0,1
-251.0,-1.0,54.0,62.0,-27.0,-16.0,1
-252.0,-7.0,53.0,65.0,-30.0,-15.0,1
-251.0,-2.0,55.0,66.0,-31.0,-15.0,1
-247.0,-4.0,55.0,68.0,-32.0,-15.0,1
-250.0,-5.0,55.0,70.0,-33.0,-16.0,1
-247.0,-6.0,52.0,76.0,-32.0,-16.0,1
-247.0,-7.0,57.0,82.0,-35.0,-17.0,1
-246.0,-8.0,53.0,88.0,-39.0,-16.0,1
-247.0,-9.0,50.0,96.0,-44.0,-15.0,1
-248.0,-5.0,49.0,105.0,-51.0,-13.0,1
-249.0,-9.0,52.0,115.0,-59.0,-15.0,1
-251.0,-1.0,51.0,124.0,-68.0,-15.0,1
-252.0,-4.0,51.0,132.0,-75.0,-14.0,1
-246.0,-4.0,53.0,140.0,-80.0,-14.0,1
-249.0,-3.0,57.0,145.0,-83.0,-16.0,1
-253.0,-1.0,55.0,148.0,-83.0,-17.0,1
-252.0,-2.0,54.0,147.0,-81.0,-19.0,1
-247.0,-3.0,54.0,144.0,-77.0,-18.0,1
-247.0,-4.0,58.0,138.0,-73.0,-19.0,1
-247.0,-3.0,59.0,133.0,-70.0,-18.0,1
-247.0,-5.0,59.0,127.0,-66.0,-18.0,1
-248.0,-7.0,57.0,121.0,-66.0,-17.0,1
-252.0,-1.0,61.0,117.0,-66.0,-16.0,1
-247.0,-7.0,58.0,115.0,-65.0,-17.0,1
-247.0,-5.0,58.0,111.0,-66.0,-15.0,1
-250.0,0.0,61.0,109.0,-66.0,-15.0,1
-250.0,-1.0,57.0,107.0,-65.0,-16.0,1
-246.0,-7.0,62.0,104.0,-63.0,-18.0,1
-250.0,-5.0,58.0,103.0,-61.0,-18.0,1
-252.0,-1.0,61.0,102.0,-58.0,-18.0,1
-246.0,-3.0,57.0,99.0,-57.0,-16.0,1
-248.0,-6.0,57.0,96.0,-54.0,-17.0,1
-247.0,-6.0,60.0,97.0,-53.0,-18.0,1
-247.0,-2.0,55.0,98.0,-50.0,-20.0,1
-248.0,-4.0,58.0,99.0,-48.0,-17.0,1
-248.0,-3.0,57.0,102.0,-44.0,-17.0,1
-249.0,-5.0,59.0,103.0,-40.0,-17.0,1
-250.0,-6.0,57.0,107.0,-36.0,-16.0,1
-245.0,-5.0,58.0,109.0,-34.0,-16.0,1
-247.0,-1.0,58.0,112.0,-33.0,-16.0,1
-246.0,-9.0,56.0,117.0,-36.0,-16.0,1
-247.0,-4.0,58.0,121.0,-38.0,-14.0,1
-246.0,-6.0,61.0,126.0,-41.0,-13.0,1
-248.0,-7.0,61.0,131.0,-45.0,-13.0,1
-240.0,-11.0,54.0,137.0,-49.0,-14.0,1
-245.0,-5.0,57.0,145.0,-39.0,-16.0,1
-248.0,-10.0,61.0,158.0,-29.0,-14.0,1
-251.0,-4.0,62.0,171.0,-33.0,-10.0,1
-250.0,-6.0,63.0,182.0,-50.0,-9.0,1
-248.0,-2.0,60.0,186.0,-65.0,-10.0,1
-251.0,-4.0,62.0,185.0,-76.0,-14.0,1
-251.0,1.0,61.0,177.0,-79.0,-16.0,1
-249.0,-1.0,62.0,166.0,-77.0,-15.0,1
-249.0,-2.0,58.0,155.0,-73.0,-16.0,1
-247.0,-4.0,64.0,140.0,-69.0,-15.0,1
-247.0,-1.0,61.0,124.0,-63.0,-14.0,1
-246.0,0.0,59.0,107.0,-57.0,-12.0,1
-246.0,-3.0,62.0,91.0,-51.0,-12.0,1
-249.0,-4.0,60.0,76.0,-43.0,-12.0,1
-247.0,-3.0,63.0,63.0,-37.0,-11.0,1
-246.0,-1.0,64.0,52.0,-29.0,-11.0,1
-241.0,-1.0,62.0,47.0,-18.0,-10.0,1
-249.0,0.0,62.0,43.0,2.0,-6.0,1
-247.0,-3.0,60.0,41.0,7.0,-6.0,1
-243.0,-4.0,64.0,39.0,4.0,-7.0,1
-244.0,-8.0,73.0,37.0,0.0,-9.0,1
-245.0,-4.0,62.0,36.0,-2.0,-9.0,1
-245.0,-8.0,63.0,38.0,-3.0,-6.0,1
-248.0,-3.0,59.0,39.0,-1.0,-7.0,1
-245.0,-7.0,62.0,44.0,0.0,-6.0,1
-246.0,-3.0,60.0,49.0,-1.0,-5.0,1
-247.0,-4.0,60.0,54.0,-2.0,-4.0,1
-247.0,-1.0,65.0,56.0,-4.0,-4.0,1
-249.0,-1.0,61.0,62.0,-4.0,-4.0,1
-246.0,-8.0,61.0,64.0,-2.0,-5.0,1
-245.0,-4.0,58.0,64.0,1.0,-5.0,1
-248.0,-1.0,54.0,64.0,2.0,-6.0,1
-248.0,-4.0,63.0,64.0,3.0,-5.0,1
-248.0,-2.0,64.0,63.0,2.0,-5.0,1
-248.0,-3.0,57.0,63.0,0.0,-4.0,1
-247.0,-3.0,61.0,63.0,-5.0,-6.0,1
-249.0,-2.0,64.0,64.0,-8.0,-6.0,1
-249.0,-4.0,60.0,67.0,-11.0,-6.0,1
-249.0,-1.0,64.0,70.0,-15.0,-7.0,1
-251.0,-3.0,60.0,75.0,-20.0,-9.0,1
-247.0,-4.0,60.0,78.0,-22.0,-11.0,1
-250.0,-3.0,65.0,80.0,-22.0,-13.0,1
-250.0,-2.0,57.0,83.0,-24.0,-13.0,1
-247.0,-1.0,61.0,88.0,-25.0,-16.0,1
-250.0,-6.0,61.0,90.0,-26.0,-16.0,1
-249.0,-2.0,61.0,93.0,-28.0,-18.0,1
-246.0,-4.0,62.0,96.0,-26.0,-18.0,1
-242.0,-1.0,61.0,100.0,-26.0,-19.0,1
-247.0,-7.0,61.0,105.0,-14.0,-17.0,1
-245.0,-9.0,60.0,111.0,0.0,-16.0,1
-251.0,-3.0,65.0,115.0,4.0,-17.0,1
-251.0,-4.0,64.0,119.0,0.0,-17.0,1
-246.0,-8.0,70.0,120.0,-6.0,-17.0,1
-244.0,-5.0,63.0,121.0,-13.0,-15.0,1
-246.0,-3.0,62.0,119.0,-16.0,-16.0,1
-247.0,-5.0,63.0,117.0,-16.0,-15.0,1
-245.0,-4.0,62.0,118.0,-17.0,-14.0,1
-247.0,-3.0,63.0,124.0,-23.0,-10.0,1
-246.0,-4.0,61.0,127.0,-26.0,-9.0,1
-247.0,-7.0,64.0,129.0,-29.0,-8.0,1
-252.0,-3.0,62.0,133.0,-32.0,-9.0,1
-251.0,-4.0,59.0,135.0,-34.0,-10.0,1
-244.0,-7.0,64.0,132.0,-35.0,-12.0,1
-248.0,-3.0,61.0,129.0,-36.0,-12.0,1
-248.0,0.0,66.0,123.0,-36.0,-13.0,1
-246.0,0.0,65.0,115.0,-34.0,-14.0,1
-248.0,0.0,64.0,103.0,-31.0,-15.0,1
-247.0,0.0,64.0,91.0,-26.0,-17.0,1
-247.0,0.0,67.0,78.0,-23.0,-17.0,1
-247.0,-2.0,63.0,66.0,-17.0,-16.0,1
-242.0,-4.0,62.0,56.0,-13.0,-15.0,1
-245.0,-5.0,64.0,44.0,-9.0,-17.0,1
-247.0,-2.0,64.0,36.0,-5.0,-17.0,1
-247.0,-3.0,64.0,30.0,-3.0,-18.0,1
-251.0,-1.0,64.0,25.0,-1.0,-16.0,1
-249.0,-1.0,64.0,25.0,0.0,-16.0,1
-249.0,-1.0,63.0,27.0,2.0,-17.0,1
-246.0,-5.0,62.0,29.0,4.0,-16.0,1
-249.0,0.0,64.0,34.0,7.0,-17.0,1
-245.0,-2.0,61.0,38.0,8.0,-17.0,1
-247.0,-6.0,63.0,44.0,9.0,-18.0,1
-247.0,-2.0,61.0,51.0,9.0,-18.0,1
-247.0,-5.0,64.0,56.0,9.0,-18.0,1
-245.0,-3.0,62.0,62.0,10.0,-17.0,1
-249.0,-3.0,63.0,67.0,11.0,-19.0,1
-244.0,-5.0,64.0,70.0,11.0,-18.0,1
-245.0,-3.0,62.0,73.0,12.0,-16.0,1
-242.0,-1.0,63.0,73.0,13.0,-17.0,1
-249.0,0.0,64.0,76.0,21.0,-13.0,1
-250.0,-3.0,62.0,77.0,24.0,-11.0,1
-247.0,-5.0,64.0,74.0,21.0,-10.0,1
-246.0,-3.0,63.0,69.0,14.0,-13.0,1
-244.0,-1.0,64.0,63.0,8.0,-14.0,1
-247.0,-4.0,64.0,55.0,4.0,-14.0,1
-248.0,-1.0,63.0,49.0,4.0,-12.0,1
-247.0,-4.0,60.0,43.0,4.0,-14.0,1
-247.0,-5.0,63.0,39.0,6.0,-17.0,1
-249.0,-2.0,65.0,33.0,9.0,-14.0,1
-246.0,0.0,62.0,31.0,11.0,-15.0,1
-249.0,-1.0,60.0,25.0,14.0,-15.0,1
-245.0,-2.0,64.0,20.0,17.0,-16.0,1
-247.0,0.0,63.0,15.0,20.0,-17.0,1
-247.0,-6.0,62.0,10.0,23.0,-16.0,1
-249.0,-1.0,61.0,7.0,25.0,-17.0,1
-245.0,-5.0,65.0,5.0,24.0,-16.0,1
-245.0,-5.0,59.0,5.0,24.0,-16.0,1
-249.0,-2.0,61.0,6.0,20.0,-16.0,1
-246.0,-6.0,60.0,6.0,18.0,-14.0,1
-247.0,-3.0,65.0,12.0,14.0,-15.0,1
-247.0,-3.0,64.0,19.0,10.0,-14.0,1
-248.0,-5.0,62.0,26.0,5.0,-13.0,1
-247.0,-4.0,59.0,33.0,3.0,-11.0,1
-248.0,-4.0,61.0,39.0,-1.0,-11.0,1
-247.0,-7.0,62.0,45.0,-4.0,-9.0,1
-243.0,-8.0,61.0,51.0,-7.0,-8.0,1
-251.0,-3.0,69.0,56.0,-11.0,-6.0,1
-248.0,-4.0,63.0,60.0,-9.0,-5.0,1
-249.0,-3.0,64.0,63.0,-10.0,-4.0,1
-248.0,-1.0,63.0,63.0,-10.0,-7.0,1
-249.0,-1.0,64.0,64.0,-6.0,-7.0,1
-251.0,0.0,63.0,63.0,-3.0,-8.0,1
-245.0,-2.0,64.0,62.0,0.0,-8.0,1
-245.0,-1.0,64.0,62.0,1.0,-9.0,1
-246.0,-4.0,63.0,58.0,3.0,-9.0,1
-247.0,-5.0,64.0,59.0,3.0,-10.0,1
-249.0,0.0,60.0,57.0,2.0,-9.0,1
-246.0,-6.0,65.0,56.0,2.0,-12.0,1
-246.0,2.0,60.0,57.0,4.0,-10.0,1
-252.0,-10.0,59.0,58.0,2.0,-11.0,1
-247.0,-6.0,63.0,58.0,3.0,-13.0,1
-247.0,-3.0,62.0,60.0,3.0,-13.0,1
-245.0,-4.0,61.0,61.0,2.0,-12.0,1
-246.0,-4.0,62.0,64.0,1.0,-13.0,1
-250.0,-3.0,67.0,67.0,-1.0,-12.0,1
-249.0,-6.0,62.0,69.0,-3.0,-12.0,1
-246.0,-6.0,62.0,74.0,-5.0,-13.0,1
-247.0,-1.0,61.0,79.0,-6.0,-14.0,1
-245.0,-4.0,62.0,81.0,-7.0,-14.0,1
-246.0,2.0,60.0,83.0,-6.0,-12.0,1
-246.0,-3.0,65.0,84.0,-7.0,-13.0,1
-246.0,-4.0,62.0,84.0,-7.0,-14.0,1
-248.0,-2.0,62.0,80.0,-9.0,-12.0,1
-247.0,-2.0,62.0,78.0,-8.0,-10.0,1
-247.0,-2.0,64.0,78.0,-9.0,-9.0,1
-248.0,-1.0,64.0,81.0,-10.0,-11.0,1
-243.0,-6.0,65.0,81.0,-10.0,-11.0,1
-243.0,-1.0,59.0,80.0,-9.0,-14.0,1
-246.0,-5.0,62.0,81.0,-5.0,-12.0,1
-248.0,-5.0,68.0,88.0,3.0,-9.0,1
-251.0,-4.0,64.0,90.0,5.0,-8.0,1
-246.0,-3.0,63.0,89.0,-3.0,-10.0,1
-247.0,-1.0,64.0,85.0,-11.0,-12.0,1
-246.0,-1.0,62.0,81.0,-15.0,-13.0,1
-247.0,-1.0,62.0,78.0,-16.0,-14.0,1
-245.0,-2.0,64.0,73.0,-13.0,-15.0,1
-247.0,-2.0,66.0,67.0,-9.0,-14.0,1
-247.0,-7.0,62.0,63.0,-7.0,-15.0,1
-246.0,-4.0,62.0,60.0,-6.0,-19.0,1
-246.0,-2.0,68.0,55.0,-6.0,-16.0,1
-244.0,-4.0,64.0,51.0,-4.0,-17.0,1
-249.0,-3.0,63.0,51.0,-5.0,-15.0,1
-244.0,-3.0,65.0,46.0,-6.0,-15.0,1
-249.0,-2.0,65.0,42.0,-5.0,-14.0,1
-249.0,-2.0,62.0,38.0,-1.0,-13.0,1
-247.0,-5.0,66.0,35.0,4.0,-11.0,1
-251.0,-2.0,64.0,31.0,9.0,-11.0,1
-249.0,-3.0,65.0,27.0,11.0,-10.0,1
-247.0,-5.0,65.0,24.0,17.0,-12.0,1
-249.0,-3.0,63.0,21.0,22.0,-8.0,1
-245.0,-6.0,65.0,19.0,28.0,-9.0,1
-248.0,-3.0,60.0,18.0,31.0,-8.0,1
-244.0,-4.0,63.0,15.0,34.0,-8.0,1
-245.0,-1.0,66.0,16.0,37.0,-7.0,1
-248.0,0.0,67.0,16.0,39.0,-7.0,1
-248.0,-5.0,65.0,15.0,40.0,-9.0,1
-246.0,-4.0,67.0,14.0,42.0,-6.0,1
-248.0,-5.0,63.0,15.0,41.0,-7.0,1
-246.0,-2.0,63.0,17.0,42.0,-7.0,1
-248.0,-1.0,59.0,18.0,42.0,-6.0,1
-246.0,-4.0,62.0,16.0,44.0,-5.0,1
-244.0,-2.0,65.0,14.0,45.0,-7.0,1
-246.0,-3.0,63.0,13.0,49.0,-6.0,1
-244.0,-5.0,64.0,11.0,53.0,-5.0,1
-248.0,-2.0,60.0,9.0,57.0,-5.0,1
-247.0,-2.0,66.0,5.0,61.0,-4.0,1
-245.0,-2.0,67.0,2.0,66.0,-4.0,1
-244.0,-2.0,63.0,-2.0,68.0,-2.0,1
-244.0,-3.0,64.0,-6.0,69.0,-2.0,1
-246.0,-4.0,66.0,-10.0,70.0,-1.0,1
-243.0,-3.0,65.0,-12.0,73.0,1.0,1
-248.0,-6.0,61.0,-17.0,75.0,-1.0,1
-247.0,-6.0,59.0,-22.0,78.0,-1.0,1
-250.0,-4.0,60.0,-25.0,80.0,-1.0,1
-247.0,-3.0,62.0,-30.0,82.0,0.0,1
-248.0,-1.0,63.0,-32.0,85.0,1.0,1
-248.0,-5.0,59.0,-36.0,87.0,2.0,1
-247.0,-3.0,61.0,-39.0,90.0,1.0,1
-248.0,-5.0,62.0,-42.0,93.0,2.0,1
-247.0,-6.0,64.0,-46.0,95.0,3.0,1
-247.0,-2.0,64.0,-48.0,97.0,3.0,1
-242.0,-3.0,64.0,-51.0,100.0,3.0,1
-243.0,-4.0,61.0,-54.0,102.0,2.0,1
-238.0,-1.0,70.0,-60.0,106.0,4.0,1
-245.0,-4.0,61.0,-66.0,110.0,6.0,1
-246.0,-2.0,61.0,-74.0,117.0,7.0,1
-246.0,-3.0,63.0,-84.0,120.0,8.0,1
-244.0,-4.0,64.0,-95.0,123.0,10.0,1
-248.0,0.0,65.0,-106.0,126.0,9.0,1
-245.0,-3.0,59.0,-120.0,128.0,13.0,1
-249.0,0.0,61.0,-135.0,133.0,14.0,1
-245.0,-6.0,60.0,-149.0,139.0,17.0,1
-248.0,-2.0,66.0,-159.0,145.0,18.0,1
-241.0,-8.0,53.0,-165.0,152.0,18.0,1
-250.0,-5.0,56.0,-167.0,159.0,17.0,1
-251.0,-4.0,56.0,-162.0,167.0,15.0,1
-250.0,-5.0,60.0,-152.0,174.0,13.0,1
-251.0,-8.0,58.0,-136.0,176.0,12.0,1
-252.0,-9.0,57.0,-115.0,179.0,11.0,1
-248.0,-9.0,55.0,-92.0,180.0,7.0,1
-252.0,-7.0,57.0,-70.0,178.0,5.0,1
-250.0,-8.0,53.0,-50.0,170.0,5.0,1
-249.0,-4.0,53.0,-33.0,162.0,4.0,1
-249.0,-2.0,50.0,-21.0,151.0,5.0,1
-250.0,-3.0,49.0,-14.0,141.0,6.0,1
-252.0,-1.0,57.0,-12.0,130.0,5.0,1
-249.0,-3.0,55.0,-14.0,118.0,5.0,1
-249.0,-4.0,56.0,-17.0,106.0,2.0,1
-248.0,-1.0,56.0,-22.0,96.0,1.0,1
-247.0,-3.0,57.0,-29.0,86.0,-2.0,1
-249.0,-5.0,54.0,-36.0,78.0,-7.0,1
-250.0,-1.0,59.0,-43.0,73.0,-6.0,1
-252.0,-3.0,56.0,-48.0,70.0,-9.0,1
-248.0,-3.0,56.0,-51.0,69.0,-11.0,1
-249.0,-1.0,54.0,-53.0,72.0,-11.0,1
-248.0,-4.0,57.0,-52.0,78.0,-11.0,1
-250.0,-5.0,55.0,-54.0,87.0,-9.0,1
-247.0,-5.0,54.0,-54.0,96.0,-9.0,1
-247.0,-5.0,57.0,-55.0,106.0,-7.0,1
-249.0,-4.0,54.0,-56.0,115.0,-4.0,1
-250.0,-3.0,57.0,-58.0,120.0,-1.0,1
-249.0,-3.0,53.0,-60.0,124.0,1.0,1
-251.0,-2.0,58.0,-64.0,123.0,2.0,1
-251.0,-2.0,56.0,-66.0,116.0,4.0,1
-253.0,-1.0,49.0,-67.0,111.0,4.0,1
-253.0,0.0,49.0,-67.0,103.0,1.0,1
-251.0,0.0,48.0,-66.0,96.0,1.0,1
-249.0,-1.0,48.0,-64.0,93.0,-1.0,1
-248.0,0.0,48.0,-62.0,92.0,-3.0,1
-249.0,-3.0,49.0,-58.0,89.0,-2.0,1
-248.0,-9.0,50.0,-54.0,88.0,-4.0,1
-252.0,-4.0,50.0,-47.0,84.0,-3.0,1
-249.0,-8.0,51.0,-43.0,79.0,-4.0,1
-248.0,-7.0,54.0,-37.0,71.0,-5.0,1
-249.0,-5.0,53.0,-28.0,65.0,-3.0,1
-248.0,-7.0,55.0,-20.0,55.0,-2.0,1
-246.0,-9.0,52.0,-11.0,48.0,-1.0,1
-247.0,-9.0,49.0,-1.0,40.0,-2.0,1
-249.0,-8.0,58.0,8.0,34.0,2.0,1
-248.0,-8.0,52.0,16.0,30.0,6.0,1
-251.0,-3.0,52.0,24.0,29.0,6.0,1
-249.0,-7.0,52.0,29.0,30.0,8.0,1
-248.0,-4.0,57.0,33.0,34.0,9.0,1
-248.0,-6.0,54.0,33.0,37.0,12.0,1
-248.0,-7.0,53.0,33.0,42.0,13.0,1
-250.0,-6.0,48.0,32.0,45.0,15.0,1
-247.0,-3.0,51.0,31.0,46.0,17.0,1
-253.0,-5.0,46.0,28.0,46.0,17.0,1
-248.0,-6.0,52.0,24.0,45.0,17.0,1
-249.0,-3.0,52.0,19.0,44.0,18.0,1
-251.0,0.0,56.0,14.0,42.0,18.0,1
-250.0,-1.0,52.0,7.0,40.0,20.0,1
-251.0,0.0,52.0,0.0,38.0,18.0,1
-250.0,0.0,57.0,-9.0,35.0,17.0,1
-249.0,0.0,54.0,-17.0,33.0,14.0,1
-253.0,0.0,48.0,-25.0,32.0,13.0,1
-252.0,0.0,56.0,-31.0,31.0,12.0,1
-251.0,-8.0,57.0,-36.0,30.0,12.0,1
-250.0,-1.0,50.0,-41.0,32.0,12.0,1
-252.0,0.0,49.0,-43.0,34.0,11.0,1
-250.0,-4.0,47.0,-43.0,39.0,9.0,1
-252.0,-2.0,52.0,-44.0,40.0,8.0,1
-250.0,-3.0,51.0,-42.0,41.0,8.0,1
-252.0,-5.0,50.0,-37.0,44.0,5.0,1
-250.0,-8.0,50.0,-33.0,43.0,2.0,1
-249.0,-2.0,48.0,-27.0,42.0,-2.0,1
-248.0,-2.0,50.0,-22.0,40.0,-5.0,1
-251.0,-2.0,52.0,-15.0,39.0,-7.0,1
-250.0,-5.0,50.0,-8.0,37.0,-9.0,1
-252.0,-6.0,53.0,-1.0,35.0,-10.0,1
-251.0,-3.0,47.0,4.0,31.0,-12.0,1
-252.0,-1.0,52.0,7.0,29.0,-13.0,1
-252.0,-3.0,51.0,9.0,29.0,-12.0,1
-250.0,-5.0,52.0,12.0,28.0,-14.0,1
-250.0,-4.0,49.0,13.0,25.0,-14.0,1
-249.0,-5.0,52.0,11.0,26.0,-9.0,1
-250.0,-8.0,48.0,11.0,26.0,-11.0,1
-251.0,-6.0,51.0,9.0,27.0,-12.0,1
-246.0,0.0,51.0,6.0,29.0,-12.0,1
-247.0,-5.0,47.0,3.0,28.0,-12.0,1
-251.0,-2.0,49.0,-2.0,31.0,-12.0,1
-251.0,-4.0,48.0,-7.0,33.0,-10.0,1
-251.0,-2.0,51.0,-10.0,36.0,-11.0,1
-250.0,-3.0,49.0,-10.0,40.0,-11.0,1
-251.0,-7.0,48.0,-11.0,42.0,-11.0,1
-247.0,-7.0,49.0,-11.0,43.0,-13.0,1
-253.0,-1.0,47.0,-9.0,41.0,-15.0,1
-251.0,-4.0,50.0,-7.0,40.0,-15.0,1
-248.0,-6.0,59.0,-3.0,38.0,-15.0,1
-249.0,-9.0,44.0,1.0,33.0,-16.0,1
-253.0,-6.0,50.0,3.0,33.0,-19.0,1
-250.0,-3.0,48.0,6.0,29.0,-20.0,1
-251.0,-7.0,50.0,8.0,27.0,-19.0,1
-249.0,-8.0,49.0,12.0,26.0,-18.0,1
-247.0,-7.0,51.0,17.0,25.0,-18.0,1
-249.0,-8.0,46.0,21.0,24.0,-17.0,1
-247.0,-9.0,52.0,26.0,20.0,-14.0,1
-249.0,-7.0,54.0,31.0,19.0,-14.0,1
-247.0,-10.0,49.0,37.0,18.0,-12.0,1
-246.0,-8.0,52.0,42.0,16.0,-11.0,1
-246.0,-12.0,51.0,47.0,14.0,-9.0,1
-252.0,-3.0,50.0,50.0,11.0,-7.0,1
-249.0,-10.0,48.0,52.0,10.0,-5.0,1
-250.0,-7.0,51.0,55.0,9.0,-4.0,1
-254.0,-6.0,49.0,56.0,10.0,-2.0,1
-251.0,-6.0,49.0,57.0,9.0,-1.0,1
-248.0,-5.0,50.0,58.0,9.0,-1.0,1
-250.0,-4.0,50.0,57.0,9.0,0.0,1
-251.0,-8.0,54.0,57.0,8.0,1.0,1
-252.0,-7.0,52.0,57.0,8.0,0.0,1
-246.0,-6.0,50.0,58.0,9.0,-1.0,1
-251.0,-5.0,50.0,57.0,9.0,1.0,1
-250.0,-3.0,50.0,57.0,7.0,2.0,1
-252.0,-3.0,47.0,54.0,7.0,0.0,1
-250.0,-7.0,50.0,54.0,9.0,-1.0,1
-251.0,-6.0,50.0,52.0,11.0,0.0,1
-250.0,-3.0,52.0,50.0,13.0,-1.0,1
-254.0,-4.0,50.0,47.0,14.0,0.0,1
-252.0,-3.0,47.0,46.0,14.0,-1.0,1
-252.0,-1.0,46.0,43.0,13.0,-1.0,1
-252.0,-3.0,47.0,42.0,14.0,-2.0,1
-251.0,-7.0,47.0,41.0,12.0,-3.0,1
-249.0,-7.0,50.0,43.0,11.0,-4.0,1
-250.0,-3.0,48.0,46.0,10.0,-5.0,1
-250.0,-4.0,50.0,51.0,12.0,-6.0,1
-250.0,-1.0,49.0,57.0,12.0,-7.0,1
-251.0,-6.0,54.0,61.0,12.0,-7.0,1
-250.0,-2.0,46.0,64.0,12.0,-9.0,1
-248.0,-6.0,48.0,68.0,11.0,-9.0,1
-252.0,-3.0,52.0,72.0,11.0,-9.0,1
-249.0,-3.0,49.0,73.0,9.0,-11.0,1
-251.0,-3.0,47.0,72.0,6.0,-11.0,1
-247.0,-8.0,46.0,71.0,6.0,-10.0,1
-251.0,-5.0,50.0,69.0,5.0,-9.0,1
-253.0,-4.0,50.0,66.0,5.0,-10.0,1
-251.0,-4.0,49.0,64.0,2.0,-11.0,1
-250.0,-4.0,46.0,62.0,3.0,-13.0,1
-249.0,-2.0,48.0,61.0,2.0,-14.0,1
-250.0,-3.0,52.0,61.0,0.0,-17.0,1
-251.0,-5.0,49.0,60.0,1.0,-17.0,1
-252.0,-2.0,50.0,61.0,-2.0,-18.0,1
-250.0,-2.0,51.0,63.0,-3.0,-20.0,1
-251.0,-3.0,45.0,65.0,-8.0,-20.0,1
-252.0,-6.0,48.0,67.0,-12.0,-19.0,1
-249.0,-7.0,49.0,70.0,-13.0,-20.0,1
-249.0,-2.0,48.0,73.0,-15.0,-19.0,1
-249.0,-4.0,50.0,76.0,-18.0,-18.0,1
-249.0,-8.0,46.0,78.0,-19.0,-18.0,1
-249.0,-7.0,50.0,79.0,-21.0,-16.0,1
-248.0,-4.0,53.0,80.0,-24.0,-17.0,1
-251.0,-7.0,48.0,80.0,-25.0,-18.0,1
-251.0,-1.0,47.0,81.0,-28.0,-19.0,1
-246.0,-7.0,50.0,81.0,-30.0,-16.0,1
-254.0,-6.0,46.0,82.0,-31.0,-17.0,1
-252.0,-3.0,51.0,83.0,-30.0,-16.0,1
-251.0,-3.0,52.0,86.0,-32.0,-17.0,1
-253.0,-5.0,49.0,90.0,-33.0,-15.0,1
-250.0,-5.0,43.0,92.0,-34.0,-16.0,1
-249.0,-7.0,48.0,96.0,-35.0,-16.0,1
-251.0,-2.0,48.0,100.0,-39.0,-16.0,1
-251.0,-6.0,48.0,106.0,-42.0,-16.0,1
-248.0,-9.0,46.0,111.0,-45.0,-16.0,1
-249.0,-4.0,46.0,116.0,-48.0,-17.0,1
-249.0,-1.0,51.0,121.0,-51.0,-15.0,1
-249.0,-10.0,47.0,125.0,-53.0,-14.0,1
-249.0,-3.0,49.0,130.0,-55.0,-15.0,1
-251.0,-3.0,48.0,133.0,-58.0,-15.0,1
-252.0,-3.0,50.0,134.0,-59.0,-17.0,1
-250.0,-1.0,48.0,135.0,-60.0,-18.0,1
-246.0,-3.0,51.0,134.0,-61.0,-16.0,1
-250.0,-2.0,53.0,132.0,-61.0,-17.0,1
-250.0,-5.0,49.0,129.0,-62.0,-16.0,1
-247.0,-1.0,50.0,126.0,-63.0,-18.0,1
-246.0,-8.0,56.0,121.0,-62.0,-17.0,1
-250.0,-5.0,55.0,121.0,-64.0,-16.0,1
-250.0,-6.0,54.0,120.0,-67.0,-15.0,1
-248.0,-6.0,54.0,120.0,-69.0,-15.0,1
-250.0,-5.0,53.0,121.0,-70.0,-16.0,1
-249.0,-4.0,51.0,123.0,-69.0,-14.0,1
-247.0,-4.0,52.0,122.0,-70.0,-15.0,1
-251.0,-4.0,56.0,121.0,-69.0,-17.0,1
-252.0,-6.0,53.0,119.0,-67.0,-16.0,1
-249.0,-8.0,54.0,118.0,-64.0,-15.0,1
-252.0,-7.0,53.0,112.0,-61.0,-17.0,1
-252.0,-4.0,61.0,108.0,-57.0,-18.0,1
-247.0,-1.0,46.0,103.0,-52.0,-15.0,1
-252.0,-2.0,57.0,99.0,-46.0,-16.0,1
-249.0,-2.0,57.0,92.0,-41.0,-17.0,1
-248.0,-3.0,55.0,87.0,-38.0,-17.0,1
-249.0,-2.0,53.0,82.0,-35.0,-16.0,1
-252.0,-4.0,58.0,79.0,-33.0,-17.0,1
-249.0,-2.0,52.0,79.0,-29.0,-19.0,1
-253.0,-6.0,54.0,80.0,-28.0,-20.0,1
-250.0,-2.0,55.0,84.0,-25.0,-19.0,1
-250.0,-3.0,53.0,89.0,-23.0,-20.0,1
-249.0,-4.0,56.0,96.0,-20.0,-19.0,1
-250.0,-7.0,51.0,104.0,-18.0,-21.0,1
-251.0,-1.0,55.0,112.0,-19.0,-20.0,1
-251.0,-5.0,56.0,121.0,-25.0,-20.0,1
-248.0,-4.0,53.0,130.0,-33.0,-22.0,1
-249.0,-6.0,55.0,141.0,-42.0,-22.0,1
-248.0,-8.0,55.0,151.0,-49.0,-20.0,1
-249.0,-7.0,53.0,159.0,-55.0,-21.0,1
-254.0,-3.0,56.0,166.0,-60.0,-20.0,1
-246.0,-11.0,56.0,172.0,-62.0,-21.0,1
-250.0,-6.0,56.0,176.0,-63.0,-21.0,1
-250.0,-7.0,58.0,178.0,-62.0,-20.0,1
-250.0,-7.0,56.0,177.0,-61.0,-18.0,1
-247.0,-5.0,56.0,174.0,-60.0,-18.0,1
-249.0,-4.0,57.0,169.0,-57.0,-15.0,1
-247.0,-4.0,56.0,164.0,-53.0,-15.0,1
-247.0,-5.0,58.0,159.0,-49.0,-12.0,1
-250.0,-1.0,55.0,156.0,-46.0,-9.0,1
-245.0,-5.0,57.0,151.0,-40.0,-7.0,1
-249.0,-7.0,53.0,146.0,-36.0,-5.0,1
-251.0,-3.0,59.0,142.0,-32.0,-2.0,1
-247.0,-4.0,55.0,139.0,-28.0,-2.0,1
-252.0,3.0,52.0,136.0,-26.0,-2.0,1
-250.0,-3.0,56.0,131.0,-24.0,-1.0,1
-247.0,-4.0,55.0,128.0,-24.0,-3.0,1
-246.0,-6.0,59.0,123.0,-26.0,-3.0,1
-250.0,-3.0,55.0,119.0,-28.0,-3.0,1
-249.0,0.0,57.0,112.0,-31.0,-5.0,1
-249.0,0.0,59.0,106.0,-34.0,-5.0,1
-251.0,-2.0,59.0,99.0,-36.0,-6.0,1
-249.0,-4.0,57.0,93.0,-36.0,-8.0,1
-248.0,-2.0,64.0,87.0,-38.0,-10.0,1
-249.0,-8.0,53.0,81.0,-38.0,-9.0,1
-250.0,-2.0,55.0,77.0,-35.0,-9.0,1
-251.0,-3.0,54.0,75.0,-33.0,-8.0,1
-252.0,-2.0,57.0,74.0,-29.0,-9.0,1
-250.0,0.0,52.0,72.0,-25.0,-10.0,1
-249.0,-2.0,56.0,74.0,-20.0,-11.0,1
-248.0,-5.0,56.0,77.0,-16.0,-9.0,1
-247.0,-5.0,57.0,84.0,-14.0,-11.0,1
-251.0,-2.0,54.0,92.0,-14.0,-11.0,1
-247.0,-7.0,55.0,101.0,-15.0,-12.0,1
-248.0,-4.0,60.0,110.0,-17.0,-13.0,1
-245.0,-4.0,59.0,120.0,-22.0,-14.0,1
-249.0,-2.0,62.0,127.0,-29.0,-16.0,1
-249.0,-3.0,62.0,134.0,-35.0,-17.0,1
-249.0,0.0,59.0,139.0,-41.0,-18.0,1
-251.0,0.0,57.0,142.0,-44.0,-19.0,1
-248.0,0.0,57.0,142.0,-48.0,-19.0,1
-250.0,-2.0,58.0,139.0,-49.0,-22.0,1
-253.0,0.0,59.0,134.0,-52.0,-21.0,1
-251.0,1.0,55.0,127.0,-53.0,-23.0,1
-249.0,-3.0,58.0,121.0,-53.0,-23.0,1
-248.0,-3.0,56.0,112.0,-53.0,-24.0,1
-250.0,-2.0,58.0,106.0,-52.0,-25.0,1
-253.0,6.0,54.0,100.0,-53.0,-24.0,1
-249.0,-1.0,58.0,95.0,-52.0,-25.0,1
-252.0,0.0,60.0,91.0,-54.0,-24.0,1
-247.0,-5.0,59.0,90.0,-55.0,-25.0,1
-248.0,-2.0,54.0,88.0,-57.0,-28.0,1
-251.0,0.0,59.0,87.0,-57.0,-26.0,1
-247.0,-4.0,57.0,85.0,-59.0,-26.0,1
-247.0,-6.0,58.0,86.0,-59.0,-28.0,1
-249.0,0.0,56.0,86.0,-60.0,-30.0,1
-248.0,-5.0,58.0,87.0,-59.0,-27.0,1
-250.0,-7.0,57.0,87.0,-58.0,-30.0,1
-249.0,-2.0,62.0,88.0,-57.0,-29.0,1
-250.0,-2.0,63.0,88.0,-55.0,-27.0,1
-246.0,-6.0,60.0,89.0,-53.0,-25.0,1
-248.0,-5.0,61.0,90.0,-51.0,-25.0,1
-248.0,-3.0,61.0,92.0,-49.0,-23.0,1
-249.0,-4.0,63.0,95.0,-50.0,-22.0,1
-248.0,-5.0,63.0,99.0,-51.0,-21.0,1
-248.0,-3.0,63.0,107.0,-50.0,-21.0,1
-247.0,-6.0,61.0,111.0,-51.0,-18.0,1
-252.0,1.0,59.0,119.0,-52.0,-19.0,1
-252.0,-4.0,58.0,127.0,-52.0,-17.0,1
-246.0,-3.0,61.0,136.0,-54.0,-14.0,1
-247.0,-5.0,59.0,143.0,-55.0,-15.0,1
-248.0,-3.0,59.0,148.0,-57.0,-15.0,1
-246.0,-3.0,59.0,155.0,-58.0,-14.0,1
-247.0,-2.0,61.0,159.0,-59.0,-15.0,1
-247.0,-3.0,62.0,160.0,-59.0,-15.0,1
-242.0,-1.0,62.0,163.0,-60.0,-14.0,1
-246.0,-4.0,62.0,163.0,-59.0,-13.0,1
-250.0,0.0,65.0,162.0,-58.0,-14.0,1
-250.0,-1.0,58.0,159.0,-54.0,-14.0,1
-248.0,0.0,58.0,156.0,-49.0,-13.0,1
-248.0,0.0,64.0,152.0,-45.0,-14.0,1
-250.0,-1.0,62.0,147.0,-42.0,-14.0,1
-247.0,0.0,61.0,141.0,-39.0,-15.0,1
-248.0,-1.0,63.0,138.0,-37.0,-15.0,1
-248.0,0.0,59.0,136.0,-35.0,-16.0,1
-247.0,-4.0,64.0,134.0,-35.0,-16.0,1
-247.0,-1.0,63.0,134.0,-35.0,-17.0,1
-247.0,0.0,65.0,136.0,-34.0,-17.0,1
-246.0,-4.0,63.0,136.0,-35.0,-17.0,1
-241.0,-7.0,61.0,137.0,-37.0,-18.0,1
-247.0,0.0,64.0,137.0,-39.0,-16.0,1
-247.0,-4.0,58.0,137.0,-40.0,-17.0,1
-245.0,-2.0,60.0,138.0,-42.0,-17.0,1
-247.0,0.0,64.0,136.0,-42.0,-16.0,1
-240.0,-6.0,61.0,136.0,-38.0,-15.0,1
-241.0,-3.0,58.0,138.0,-12.0,-13.0,1
-254.0,-6.0,63.0,143.0,9.0,-9.0,1
-252.0,-2.0,63.0,144.0,-3.0,-9.0,1
-249.0,-3.0,64.0,141.0,-24.0,-10.0,1
-245.0,-6.0,65.0,137.0,-41.0,-10.0,1
-233.0,0.0,64.0,133.0,-52.0,-11.0,1
-245.0,-1.0,62.0,125.0,-55.0,-12.0,1
-245.0,0.0,65.0,118.0,-53.0,-14.0,1
-245.0,-2.0,60.0,113.0,-53.0,-12.0,1
-248.0,0.0,65.0,107.0,-53.0,-14.0,1
-245.0,-1.0,61.0,103.0,-49.0,-13.0,1
-250.0,-3.0,60.0,103.0,-38.0,-14.0,1
-247.0,-2.0,64.0,101.0,-35.0,-13.0,1
-247.0,-4.0,64.0,100.0,-39.0,-12.0,1
-244.0,-1.0,66.0,98.0,-44.0,-14.0,1
-247.0,-5.0,73.0,96.0,-46.0,-12.0,1
-250.0,-2.0,64.0,96.0,-43.0,-11.0,1
-246.0,-4.0,65.0,93.0,-39.0,-11.0,1
-248.0,-4.0,66.0,92.0,-36.0,-10.0,1
-247.0,-4.0,66.0,92.0,-30.0,-11.0,1
-248.0,-7.0,64.0,91.0,-25.0,-6.0,1
-244.0,-2.0,66.0,90.0,-17.0,-5.0,1
-242.0,-3.0,68.0,106.0,-10.0,-12.0,1
-241.0,-5.0,62.0,121.0,1.0,-17.0,1
-249.0,-3.0,64.0,123.0,6.0,-18.0,1
-251.0,-3.0,67.0,123.0,0.0,-15.0,1
-239.0,0.0,64.0,122.0,-13.0,-15.0,1
-246.0,0.0,65.0,120.0,-23.0,-13.0,1
-245.0,0.0,64.0,113.0,-25.0,-11.0,1
-246.0,0.0,64.0,107.0,-24.0,-12.0,1
-249.0,-2.0,63.0,101.0,-22.0,-13.0,1
-247.0,0.0,64.0,97.0,-20.0,-13.0,1
-247.0,0.0,68.0,93.0,-20.0,-12.0,1
-243.0,0.0,66.0,90.0,-20.0,-13.0,1
-245.0,-2.0,65.0,90.0,-21.0,-13.0,1
-247.0,0.0,68.0,89.0,-20.0,-15.0,1
-246.0,-3.0,65.0,89.0,-20.0,-14.0,1
-248.0,-8.0,63.0,88.0,-19.0,-13.0,1
-247.0,1.0,64.0,86.0,-17.0,-12.0,1
-247.0,-2.0,64.0,85.0,-15.0,-13.0,1
-247.0,-1.0,65.0,84.0,-13.0,-14.0,1
-244.0,0.0,67.0,82.0,-10.0,-16.0,1
-246.0,0.0,68.0,80.0,-6.0,-17.0,1
-246.0,-1.0,65.0,80.0,-4.0,-17.0,1
-244.0,-3.0,66.0,79.0,-1.0,-17.0,1
-245.0,-1.0,65.0,78.0,-1.0,-17.0,1
-241.0,0.0,62.0,78.0,4.0,-14.0,1
-247.0,-4.0,58.0,80.0,20.0,-12.0,1
-249.0,-1.0,66.0,81.0,18.0,-8.0,1
-248.0,-1.0,66.0,79.0,8.0,-6.0,1
-244.0,-1.0,65.0,74.0,2.0,-8.0,1
-248.0,1.0,65.0,73.0,-4.0,-8.0,1
-247.0,1.0,66.0,70.0,-5.0,-8.0,1
-248.0,0.0,64.0,66.0,-3.0,-8.0,1
-248.0,0.0,65.0,63.0,0.0,-7.0,1
-247.0,-4.0,66.0,58.0,1.0,-6.0,1
-245.0,0.0,62.0,54.0,1.0,-7.0,1
-247.0,-1.0,68.0,52.0,-1.0,-7.0,1
-250.0,-1.0,66.0,50.0,-2.0,-6.0,1
-248.0,0.0,63.0,51.0,-4.0,-8.0,1
-246.0,0.0,65.0,50.0,-5.0,-9.0,1
-248.0,-2.0,66.0,49.0,-6.0,-9.0,1
-247.0,-1.0,66.0,48.0,-4.0,-7.0,1
-247.0,1.0,65.0,46.0,-1.0,-8.0,1
-244.0,0.0,64.0,44.0,3.0,-8.0,1
-249.0,0.0,67.0,42.0,4.0,-7.0,1
-246.0,-4.0,62.0,40.0,6.0,-11.0,1
-248.0,0.0,65.0,38.0,7.0,-11.0,1
-240.0,-1.0,67.0,37.0,6.0,-11.0,1
-239.0,-4.0,64.0,37.0,6.0,-10.0,1
-246.0,-2.0,66.0,41.0,5.0,-10.0,1
-248.0,-1.0,64.0,45.0,4.0,-11.0,1
-250.0,0.0,68.0,50.0,2.0,-11.0,1
-246.0,0.0,66.0,57.0,1.0,-12.0,1
-247.0,-3.0,68.0,63.0,3.0,-13.0,1
-245.0,0.0,67.0,68.0,1.0,-14.0,1
-247.0,-4.0,63.0,72.0,2.0,-13.0,1
-246.0,-4.0,64.0,74.0,2.0,-10.0,1
-248.0,1.0,63.0,77.0,1.0,-10.0,1
-244.0,-4.0,68.0,79.0,0.0,-9.0,1
-248.0,0.0,66.0,83.0,-2.0,-9.0,1
-245.0,-3.0,65.0,86.0,-7.0,-7.0,1
-245.0,-2.0,64.0,89.0,-11.0,-8.0,1
-245.0,1.0,66.0,94.0,-13.0,-7.0,1
-245.0,-4.0,63.0,95.0,-16.0,-7.0,1
-245.0,0.0,65.0,94.0,-16.0,-6.0,1
-244.0,-1.0,62.0,92.0,-16.0,-7.0,1
-245.0,1.0,63.0,85.0,-12.0,-7.0,1
-245.0,0.0,67.0,75.0,-8.0,-6.0,1
-248.0,0.0,73.0,64.0,-4.0,-10.0,1
-244.0,0.0,69.0,49.0,1.0,-9.0,1
-245.0,1.0,69.0,34.0,6.0,-8.0,1
-245.0,0.0,68.0,22.0,11.0,-9.0,1
-247.0,0.0,73.0,10.0,20.0,-8.0,1
-247.0,1.0,66.0,-1.0,27.0,-11.0,1
-244.0,0.0,63.0,-11.0,37.0,-10.0,1
-245.0,1.0,67.0,-21.0,46.0,-13.0,1
-244.0,1.0,68.0,-30.0,52.0,-13.0,1
-247.0,-3.0,65.0,-37.0,61.0,-13.0,1
-248.0,0.0,66.0,-44.0,69.0,-12.0,1
-247.0,-1.0,67.0,-50.0,76.0,-13.0,1
-242.0,-3.0,69.0,-55.0,80.0,-12.0,1
-250.0,-3.0,67.0,-59.0,86.0,-13.0,1
-246.0,-1.0,65.0,-63.0,91.0,-11.0,1
-246.0,-3.0,65.0,-64.0,96.0,-11.0,1
-243.0,-2.0,66.0,-65.0,99.0,-10.0,1
-247.0,-1.0,64.0,-64.0,104.0,-9.0,1
-245.0,-6.0,64.0,-62.0,106.0,-7.0,1
-246.0,-3.0,67.0,-58.0,106.0,-6.0,1
-248.0,0.0,62.0,-54.0,105.0,-5.0,1
-245.0,-4.0,64.0,-50.0,107.0,-7.0,1
-243.0,-6.0,72.0,-49.0,108.0,-6.0,1
-248.0,-1.0,64.0,-46.0,106.0,-5.0,1
-250.0,0.0,64.0,-47.0,104.0,-6.0,1
-247.0,0.0,63.0,-48.0,101.0,-8.0,1
-248.0,0.0,64.0,-50.0,100.0,-8.0,1
-247.0,0.0,65.0,-55.0,96.0,-8.0,1
-248.0,0.0,62.0,-60.0,92.0,-10.0,1
-245.0,0.0,60.0,-64.0,89.0,-9.0,1
-248.0,-2.0,67.0,-68.0,87.0,-8.0,1
-249.0,0.0,64.0,-71.0,86.0,-8.0,1
-248.0,0.0,59.0,-74.0,86.0,-7.0,1
-245.0,-4.0,67.0,-76.0,83.0,-6.0,1
-246.0,-4.0,61.0,-79.0,82.0,-8.0,1
-247.0,0.0,59.0,-80.0,81.0,-8.0,1
-248.0,0.0,62.0,-81.0,81.0,-7.0,1
-246.0,-1.0,62.0,-81.0,83.0,-8.0,1
-248.0,-4.0,62.0,-82.0,86.0,-8.0,1
-251.0,-1.0,60.0,-83.0,88.0,-9.0,1
-249.0,-1.0,61.0,-83.0,88.0,-10.0,1
-245.0,-4.0,64.0,-82.0,91.0,-10.0,1
-249.0,-1.0,63.0,-81.0,90.0,-10.0,1
-246.0,-3.0,64.0,-79.0,92.0,-9.0,1
-248.0,-9.0,61.0,-79.0,90.0,-7.0,1
-246.0,-6.0,62.0,-77.0,91.0,-4.0,1
-247.0,-5.0,65.0,-73.0,90.0,-3.0,1
-249.0,-3.0,61.0,-69.0,89.0,-2.0,1
-247.0,-5.0,61.0,-66.0,89.0,-1.0,1
-247.0,-4.0,60.0,-62.0,87.0,-1.0,1
-250.0,0.0,60.0,-57.0,84.0,1.0,1
-248.0,-5.0,59.0,-54.0,85.0,4.0,1
-249.0,-5.0,58.0,-53.0,85.0,5.0,1
-247.0,-2.0,63.0,-51.0,87.0,4.0,1
-254.0,-6.0,62.0,-52.0,89.0,6.0,1
-247.0,-3.0,61.0,-53.0,94.0,6.0,1
-249.0,0.0,60.0,-55.0,97.0,6.0,1
-251.0,0.0,62.0,-58.0,99.0,7.0,1
-250.0,-3.0,58.0,-61.0,102.0,7.0,1
-247.0,-2.0,59.0,-66.0,104.0,8.0,1
-247.0,-1.0,56.0,-67.0,104.0,9.0,1
-251.0,-3.0,63.0,-70.0,103.0,6.0,1
-248.0,-4.0,63.0,-71.0,102.0,3.0,1
-249.0,-5.0,59.0,-70.0,100.0,4.0,1
-247.0,-6.0,61.0,-69.0,97.0,1.0,1
-248.0,-5.0,56.0,-67.0,95.0,2.0,1
-248.0,-4.0,61.0,-65.0,91.0,2.0,1
-248.0,-3.0,58.0,-63.0,88.0,0.0,1
-249.0,-3.0,57.0,-59.0,89.0,-1.0,1
-248.0,-3.0,57.0,-59.0,88.0,-1.0,1
-249.0,0.0,59.0,-56.0,86.0,0.0,1
-248.0,0.0,59.0,-56.0,86.0,-2.0,1
-248.0,-2.0,57.0,-56.0,87.0,1.0,1
-250.0,-1.0,59.0,-59.0,89.0,1.0,1
-250.0,-4.0,55.0,-61.0,93.0,0.0,1
-251.0,-1.0,56.0,-63.0,95.0,0.0,1
-244.0,-7.0,56.0,-64.0,98.0,1.0,1
-249.0,-3.0,59.0,-65.0,100.0,0.0,1
-246.0,-8.0,57.0,-64.0,102.0,0.0,1
-248.0,-5.0,55.0,-64.0,101.0,1.0,1
-245.0,-8.0,57.0,-62.0,101.0,1.0,1
-250.0,-3.0,58.0,-60.0,99.0,1.0,1
-252.0,-1.0,58.0,-58.0,96.0,-1.0,1
-249.0,-6.0,54.0,-55.0,95.0,-3.0,1
-252.0,-4.0,54.0,-52.0,91.0,-4.0,1
-246.0,-2.0,57.0,-50.0,88.0,-4.0,1
-255.0,-6.0,54.0,-48.0,87.0,-4.0,1
-250.0,-2.0,53.0,-47.0,85.0,-5.0,1
-249.0,-5.0,52.0,-46.0,87.0,-6.0,1
-249.0,-1.0,56.0,-47.0,90.0,-7.0,1
-248.0,-7.0,55.0,-49.0,92.0,-7.0,1
-250.0,-5.0,53.0,-52.0,92.0,-7.0,1
-250.0,-1.0,55.0,-54.0,94.0,-7.0,1
-248.0,-6.0,58.0,-57.0,94.0,-7.0,1
-247.0,-2.0,56.0,-58.0,93.0,-6.0,1
-248.0,-7.0,54.0,-60.0,93.0,-6.0,1
-255.0,-1.0,54.0,-62.0,93.0,-4.0,1
-249.0,-9.0,54.0,-63.0,93.0,-2.0,1
-248.0,-5.0,55.0,-62.0,92.0,-2.0,1
-250.0,-6.0,54.0,-64.0,92.0,-1.0,1
-250.0,-5.0,52.0,-63.0,92.0,-2.0,1
-248.0,-3.0,54.0,-62.0,92.0,-1.0,1
-248.0,-7.0,54.0,-62.0,93.0,-1.0,1
-249.0,-3.0,50.0,-63.0,95.0,0.0,1
-248.0,-5.0,52.0,-64.0,96.0,0.0,1
-250.0,-2.0,48.0,-64.0,96.0,1.0,1
-251.0,-8.0,51.0,-63.0,96.0,1.0,1
-249.0,-2.0,54.0,-62.0,96.0,3.0,1
-238.0,-3.0,48.0,-61.0,95.0,1.0,1
-250.0,-4.0,53.0,-58.0,92.0,0.0,1
-250.0,-2.0,52.0,-55.0,91.0,0.0,1
-250.0,-4.0,54.0,-55.0,88.0,0.0,1
