ax,ay,az,gx,gy,gz,label
10.0,-256.0,-34.0,61.0,68.0,11.0,1
9.0,-255.0,-34.0,61.0,67.0,12.0,1
7.0,-254.0,-33.0,61.0,67.0,10.0,1
9.0,-255.0,-31.0,63.0,66.0,10.0,1
10.0,-255.0,-32.0,65.0,64.0,11.0,1
9.0,-255.0,-25.0,69.0,64.0,11.0,1
10.0,-254.0,-31.0,70.0,64.0,11.0,1
10.0,-255.0,-29.0,70.0,61.0,11.0,1
8.0,-256.0,-36.0,69.0,59.0,11.0,1
12.0,-255.0,-31.0,68.0,59.0,10.0,1
10.0,-256.0,-33.0,67.0,58.0,10.0,1
9.0,-253.0,-35.0,65.0,58.0,10.0,1
9.0,-254.0,-33.0,62.0,59.0,10.0,1
11.0,-254.0,-33.0,60.0,61.0,9.0,1
9.0,-252.0,-32.0,58.0,63.0,8.0,1
12.0,-255.0,-36.0,57.0,65.0,7.0,1
7.0,-255.0,-32.0,56.0,67.0,7.0,1
10.0,-256.0,-35.0,58.0,69.0,7.0,1
7.0,-252.0,-33.0,58.0,70.0,5.0,1
8.0,-256.0,-30.0,57.0,72.0,5.0,1
7.0,-255.0,-33.0,56.0,70.0,4.0,1
7.0,-253.0,-33.0,54.0,72.0,4.0,1
12.0,-257.0,-31.0,54.0,72.0,3.0,1
6.0,-253.0,-30.0,52.0,72.0,4.0,1
7.0,-254.0,-34.0,51.0,72.0,5.0,1
7.0,-253.0,-30.0,50.0,73.0,5.0,1
7.0,-254.0,-37.0,48.0,73.0,6.0,1
7.0,-251.0,-30.0,48.0,73.0,8.0,1
12.0,-252.0,-32.0,48.0,74.0,7.0,1
7.0,-255.0,-32.0,47.0,72.0,7.0,1
9.0,-252.0,-27.0,47.0,74.0,6.0,1
9.0,-256.0,-31.0,46.0,76.0,7.0,1
8.0,-254.0,-34.0,44.0,75.0,4.0,1
8.0,-256.0,-28.0,44.0,74.0,5.0,1
12.0,-254.0,-34.0,42.0,76.0,4.0,1
6.0,-255.0,-32.0,42.0,75.0,5.0,1
7.0,-254.0,-32.0,42.0,75.0,6.0,1
9.0,-253.0,-31.0,41.0,75.0,6.0,1
7.0,-253.0,-32.0,40.0,74.0,6.0,1
9.0,-256.0,-28.0,38.0,73.0,7.0,1
9.0,-251.0,-31.0,35.0,72.0,7.0,1
9.0,-252.0,-30.0,31.0,73.0,5.0,1
8.0,-252.0,-29.0,29.0,71.0,5.0,1
8.0,-250.0,-28.0,28.0,69.0,5.0,1
8.0,-251.0,-30.0,26.0,67.0,3.0,1
4.0,-251.0,-31.0,24.0,67.0,2.0,1
9.0,-253.0,-33.0,23.0,65.0,1.0,1
6.0,-256.0,-30.0,19.0,64.0,3.0,1
6.0,-256.0,-30.0,16.0,64.0,2.0,1
8.0,-256.0,-29.0,14.0,63.0,1.0,1
10.0,-257.0,-31.0,12.0,62.0,0.0,1
7.0,-255.0,-30.0,12.0,61.0,3.0,1
8.0,-259.0,-25.0,13.0,59.0,4.0,1
6.0,-255.0,-29.0,16.0,55.0,4.0,1
7.0,-257.0,-28.0,19.0,53.0,4.0,1
6.0,-253.0,-31.0,21.0,51.0,6.0,1
8.0,-253.0,-32.0,22.0,48.0,7.0,1
5.0,-251.0,-34.0,19.0,49.0,9.0,1
7.0,-253.0,-33.0,15.0,48.0,9.0,1
9.0,-253.0,-32.0,9.0,46.0,7.0,1
7.0,-255.0,-30.0,2.0,46.0,5.0,1
8.0,-257.0,-28.0,-2.0,45.0,7.0,1
8.0,-252.0,-28.0,-5.0,46.0,6.0,1
8.0,-254.0,-30.0,-8.0,47.0,6.0,1
10.0,-254.0,-32.0,-8.0,48.0,5.0,1
10.0,-252.0,-27.0,-8.0,49.0,2.0,1
10.0,-258.0,-29.0,-8.0,51.0,3.0,1
8.0,-255.0,-27.0,-8.0,52.0,3.0,1
10.0,-257.0,-26.0,-8.0,55.0,3.0,1
8.0,-255.0,-26.0,-10.0,57.0,3.0,1
9.0,-258.0,-28.0,-12.0,59.0,3.0,1
8.0,-255.0,-26.0,-14.0,57.0,4.0,1
7.0,-255.0,-27.0,-17.0,58.0,4.0,1
9.0,-256.0,-28.0,-19.0,59.0,5.0,1
8.0,-255.0,-27.0,-19.0,58.0,6.0,1
7.0,-254.0,-25.0,-19.0,56.0,7.0,1
6.0,-256.0,-24.0,-18.0,57.0,6.0,1
7.0,-255.0,-25.0,-17.0,57.0,5.0,1
8.0,-253.0,-27.0,-17.0,56.0,5.0,1
6.0,-254.0,-28.0,-16.0,54.0,5.0,1
7.0,-255.0,-27.0,-15.0,55.0,4.0,1
7.0,-257.0,-27.0,-13.0,54.0,4.0,1
4.0,-254.0,-27.0,-11.0,52.0,2.0,1
6.0,-256.0,-25.0,-10.0,53.0,1.0,1
5.0,-256.0,-27.0,-9.0,52.0,0.0,1
7.0,-258.0,-29.0,-10.0,50.0,0.0,1
7.0,-254.0,-28.0,-10.0,51.0,1.0,1
9.0,-255.0,-28.0,-10.0,52.0,-1.0,1
8.0,-257.0,-30.0,-12.0,53.0,-2.0,1
9.0,-257.0,-27.0,-14.0,55.0,-2.0,1
7.0,-255.0,-27.0,-16.0,55.0,-2.0,1
11.0,-255.0,-30.0,-16.0,56.0,-3.0,1
12.0,-252.0,-28.0,-18.0,56.0,-4.0,1
11.0,-256.0,-31.0,-21.0,58.0,-4.0,1
11.0,-254.0,-24.0,-24.0,58.0,-3.0,1
7.0,-253.0,-27.0,-28.0,60.0,-3.0,1
7.0,-253.0,-27.0,-31.0,61.0,-3.0,1
8.0,-253.0,-30.0,-34.0,63.0,-2.0,1
10.0,-253.0,-26.0,-37.0,63.0,-2.0,1
9.0,-257.0,-28.0,-38.0,62.0,-2.0,1
6.0,-255.0,-28.0,-40.0,64.0,-2.0,1
9.0,-256.0,-27.0,-40.0,66.0,-3.0,1
6.0,-257.0,-29.0,-39.0,69.0,-2.0,1
6.0,-255.0,-28.0,-40.0,69.0,-2.0,1
6.0,-253.0,-34.0,-41.0,70.0,-1.0,1
9.0,-255.0,-29.0,-43.0,69.0,0.0,1
9.0,-254.0,-30.0,-44.0,68.0,-1.0,1
4.0,-255.0,-33.0,-48.0,67.0,0.0,1
10.0,-257.0,-27.0,-51.0,64.0,-1.0,1
6.0,-252.0,-32.0,-54.0,63.0,0.0,1
8.0,-255.0,-29.0,-57.0,61.0,0.0,1
6.0,-251.0,-28.0,-60.0,61.0,0.0,1
6.0,-257.0,-30.0,-63.0,60.0,0.0,1
7.0,-254.0,-30.0,-67.0,59.0,1.0,1
7.0,-251.0,-31.0,-71.0,56.0,2.0,1
9.0,-252.0,-31.0,-75.0,53.0,3.0,1
8.0,-253.0,-29.0,-79.0,50.0,5.0,1
8.0,-251.0,-33.0,-84.0,49.0,5.0,1
7.0,-253.0,-33.0,-86.0,48.0,5.0,1
6.0,-255.0,-31.0,-90.0,47.0,6.0,1
5.0,-254.0,-28.0,-90.0,48.0,9.0,1
5.0,-257.0,-28.0,-88.0,47.0,9.0,1
9.0,-258.0,-35.0,-88.0,43.0,9.0,1
10.0,-254.0,-33.0,-86.0,41.0,7.0,1
10.0,-257.0,-32.0,-86.0,39.0,6.0,1
8.0,-254.0,-32.0,-83.0,40.0,5.0,1
7.0,-257.0,-28.0,-81.0,40.0,5.0,1
8.0,-254.0,-34.0,-82.0,38.0,2.0,1
8.0,-255.0,-31.0,-83.0,37.0,1.0,1
8.0,-255.0,-31.0,-84.0,35.0,2.0,1
11.0,-254.0,-30.0,-86.0,36.0,0.0,1
9.0,-255.0,-32.0,-89.0,36.0,-1.0,1
8.0,-256.0,-31.0,-92.0,36.0,-1.0,1
8.0,-257.0,-28.0,-95.0,38.0,-1.0,1
8.0,-251.0,-33.0,-99.0,39.0,-3.0,1
12.0,-254.0,-31.0,-103.0,41.0,-5.0,1
11.0,-256.0,-26.0,-107.0,43.0,-6.0,1
7.0,-254.0,-30.0,-110.0,44.0,-7.0,1
9.0,-254.0,-30.0,-113.0,49.0,-6.0,1
5.0,-256.0,-31.0,-114.0,52.0,-5.0,1
7.0,-254.0,-31.0,-118.0,56.0,-6.0,1
5.0,-253.0,-32.0,-120.0,59.0,-6.0,1
4.0,-255.0,-32.0,-123.0,61.0,-7.0,1
6.0,-256.0,-31.0,-123.0,62.0,-7.0,1
4.0,-255.0,-34.0,-124.0,65.0,-6.0,1
8.0,-255.0,-33.0,-124.0,65.0,-6.0,1
4.0,-253.0,-33.0,-124.0,65.0,-6.0,1
7.0,-253.0,-32.0,-126.0,64.0,-8.0,1
7.0,-258.0,-38.0,-127.0,65.0,-6.0,1
9.0,-257.0,-36.0,-127.0,67.0,-5.0,1
8.0,-256.0,-33.0,-126.0,67.0,-5.0,1
8.0,-254.0,-38.0,-125.0,67.0,-5.0,1
9.0,-255.0,-37.0,-122.0,66.0,-5.0,1
7.0,-257.0,-36.0,-118.0,65.0,-6.0,1
9.0,-254.0,-35.0,-116.0,62.0,-7.0,1
11.0,-256.0,-36.0,-113.0,60.0,-7.0,1
9.0,-256.0,-39.0,-108.0,59.0,-8.0,1
11.0,-254.0,-35.0,-106.0,58.0,-9.0,1
10.0,-256.0,-36.0,-103.0,57.0,-7.0,1
10.0,-257.0,-39.0,-102.0,59.0,-8.0,1
7.0,-254.0,-36.0,-100.0,61.0,-7.0,1
9.0,-253.0,-38.0,-99.0,59.0,-4.0,1
7.0,-253.0,-38.0,-99.0,59.0,-2.0,1
7.0,-254.0,-37.0,-99.0,61.0,-1.0,1
7.0,-254.0,-39.0,-100.0,61.0,-1.0,1
9.0,-255.0,-38.0,-100.0,60.0,0.0,1
7.0,-254.0,-39.0,-101.0,62.0,1.0,1
4.0,-252.0,-38.0,-100.0,63.0,1.0,1
7.0,-253.0,-43.0,-100.0,61.0,1.0,1
6.0,-252.0,-39.0,-98.0,60.0,2.0,1
6.0,-250.0,-37.0,-98.0,59.0,-1.0,1
7.0,-254.0,-44.0,-100.0,58.0,-1.0,1
10.0,-256.0,-40.0,-99.0,58.0,-2.0,1
7.0,-252.0,-41.0,-100.0,56.0,0.0,1
9.0,-250.0,-40.0,-99.0,56.0,-1.0,1
9.0,-253.0,-37.0,-101.0,55.0,-2.0,1
8.0,-252.0,-37.0,-103.0,55.0,-1.0,1
9.0,-252.0,-40.0,-104.0,54.0,-2.0,1
8.0,-254.0,-40.0,-104.0,56.0,-2.0,1
11.0,-249.0,-44.0,-104.0,55.0,-4.0,1
4.0,-254.0,-40.0,-102.0,55.0,-3.0,1
6.0,-255.0,-39.0,-98.0,56.0,-3.0,1
11.0,-258.0,-41.0,-93.0,57.0,-4.0,1
7.0,-256.0,-40.0,-90.0,58.0,-4.0,1
5.0,-254.0,-46.0,-85.0,59.0,-3.0,1
6.0,-252.0,-39.0,-83.0,61.0,-3.0,1
9.0,-257.0,-43.0,-81.0,61.0,-3.0,1
10.0,-254.0,-39.0,-79.0,58.0,-3.0,1
9.0,-255.0,-40.0,-74.0,58.0,-3.0,1
6.0,-253.0,-40.0,-71.0,58.0,-6.0,1
11.0,-252.0,-40.0,-69.0,59.0,-5.0,1
3.0,-253.0,-41.0,-67.0,62.0,-5.0,1
10.0,-256.0,-39.0,-64.0,64.0,-7.0,1
6.0,-253.0,-39.0,-62.0,67.0,-8.0,1
5.0,-256.0,-41.0,-58.0,69.0,-9.0,1
9.0,-256.0,-39.0,-56.0,71.0,-8.0,1
5.0,-257.0,-46.0,-52.0,72.0,-6.0,1
9.0,-257.0,-40.0,-47.0,73.0,-6.0,1
4.0,-256.0,-39.0,-41.0,74.0,-4.0,1
5.0,-257.0,-41.0,-36.0,72.0,-3.0,1
7.0,-257.0,-39.0,-30.0,70.0,-1.0,1
7.0,-257.0,-47.0,-23.0,69.0,0.0,1
5.0,-253.0,-41.0,-18.0,67.0,3.0,1
7.0,-258.0,-43.0,-15.0,67.0,5.0,1
6.0,-251.0,-42.0,-14.0,68.0,6.0,1
6.0,-254.0,-43.0,-15.0,69.0,7.0,1
6.0,-253.0,-39.0,-15.0,66.0,6.0,1
6.0,-250.0,-41.0,-14.0,67.0,3.0,1
5.0,-251.0,-46.0,-14.0,67.0,2.0,1
9.0,-250.0,-43.0,-14.0,65.0,0.0,1
4.0,-251.0,-45.0,-13.0,66.0,0.0,1
7.0,-251.0,-41.0,-10.0,66.0,0.0,1
9.0,-253.0,-45.0,-11.0,68.0,-1.0,1
8.0,-254.0,-40.0,-10.0,70.0,-1.0,1
7.0,-253.0,-42.0,-10.0,70.0,-1.0,1
8.0,-252.0,-41.0,-8.0,72.0,-1.0,1
6.0,-255.0,-39.0,-8.0,74.0,-1.0,1
7.0,-253.0,-42.0,-7.0,74.0,-2.0,1
6.0,-256.0,-40.0,-7.0,73.0,-3.0,1
6.0,-252.0,-41.0,-8.0,72.0,-4.0,1
4.0,-251.0,-40.0,-8.0,71.0,-3.0,1
8.0,-254.0,-38.0,-9.0,69.0,-2.0,1
2.0,-257.0,-35.0,-10.0,70.0,-3.0,1
4.0,-252.0,-46.0,-12.0,69.0,-4.0,1
7.0,-254.0,-44.0,-12.0,68.0,-4.0,1
8.0,-253.0,-41.0,-11.0,66.0,-4.0,1
8.0,-253.0,-44.0,-12.0,65.0,-5.0,1
8.0,-255.0,-40.0,-9.0,65.0,-4.0,1
6.0,-255.0,-44.0,-8.0,64.0,-4.0,1
8.0,-254.0,-42.0,-7.0,64.0,-4.0,1
7.0,-251.0,-41.0,-6.0,63.0,-3.0,1
8.0,-253.0,-40.0,-6.0,64.0,-4.0,1
9.0,-254.0,-43.0,-5.0,65.0,-5.0,1
9.0,-251.0,-43.0,-6.0,66.0,-6.0,1
9.0,-252.0,-45.0,-4.0,66.0,-5.0,1
8.0,-252.0,-43.0,-3.0,67.0,-5.0,1
4.0,-252.0,-42.0,-1.0,67.0,-4.0,1
9.0,-253.0,-42.0,2.0,69.0,-6.0,1
7.0,-251.0,-42.0,4.0,69.0,-4.0,1
7.0,-251.0,-43.0,2.0,69.0,-4.0,1
7.0,-254.0,-44.0,2.0,69.0,-6.0,1
6.0,-252.0,-43.0,1.0,69.0,-6.0,1
9.0,-251.0,-40.0,1.0,69.0,-5.0,1
8.0,-254.0,-40.0,4.0,69.0,-6.0,1
11.0,-252.0,-39.0,5.0,67.0,-7.0,1
5.0,-256.0,-39.0,7.0,67.0,-8.0,1
7.0,-257.0,-38.0,9.0,68.0,-9.0,1
7.0,-258.0,-41.0,13.0,67.0,-10.0,1
7.0,-257.0,-38.0,16.0,68.0,-9.0,1
9.0,-259.0,-40.0,18.0,67.0,-10.0,1
8.0,-256.0,-44.0,20.0,66.0,-9.0,1
6.0,-255.0,-42.0,20.0,69.0,-8.0,1
7.0,-256.0,-38.0,19.0,68.0,-8.0,1
7.0,-256.0,-42.0,18.0,69.0,-7.0,1
9.0,-256.0,-41.0,18.0,70.0,-5.0,1
6.0,-255.0,-41.0,16.0,73.0,-7.0,1
7.0,-257.0,-42.0,16.0,72.0,-8.0,1
11.0,-255.0,-38.0,18.0,73.0,-5.0,1
8.0,-254.0,-37.0,20.0,75.0,-6.0,1
11.0,-257.0,-41.0,23.0,76.0,-6.0,1
9.0,-256.0,-37.0,26.0,77.0,-4.0,1
7.0,-256.0,-41.0,29.0,80.0,-3.0,1
8.0,-254.0,-42.0,31.0,83.0,-2.0,1
13.0,-257.0,-38.0,34.0,83.0,-3.0,1
6.0,-254.0,-38.0,38.0,84.0,1.0,1
10.0,-253.0,-40.0,41.0,86.0,1.0,1
8.0,-253.0,-36.0,43.0,85.0,2.0,1
9.0,-255.0,-38.0,45.0,87.0,3.0,1
7.0,-253.0,-36.0,48.0,83.0,2.0,1
9.0,-251.0,-40.0,48.0,81.0,1.0,1
8.0,-249.0,-42.0,49.0,80.0,0.0,1
9.0,-256.0,-36.0,49.0,78.0,-1.0,1
6.0,-252.0,-37.0,48.0,76.0,0.0,1
8.0,-253.0,-38.0,47.0,76.0,-1.0,1
7.0,-253.0,-39.0,47.0,74.0,-3.0,1
5.0,-255.0,-37.0,44.0,74.0,-4.0,1
7.0,-253.0,-39.0,44.0,72.0,-4.0,1
9.0,-257.0,-34.0,44.0,72.0,-4.0,1
6.0,-254.0,-38.0,43.0,72.0,-2.0,1
6.0,-253.0,-34.0,42.0,73.0,-1.0,1
8.0,-256.0,-43.0,44.0,72.0,-1.0,1
6.0,-251.0,-39.0,43.0,73.0,-1.0,1
7.0,-256.0,-40.0,41.0,73.0,0.0,1
9.0,-255.0,-37.0,41.0,73.0,1.0,1
6.0,-254.0,-40.0,40.0,73.0,1.0,1
5.0,-252.0,-43.0,39.0,72.0,-1.0,1
7.0,-254.0,-37.0,37.0,69.0,0.0,1
9.0,-252.0,-38.0,35.0,67.0,1.0,1
8.0,-252.0,-39.0,34.0,66.0,3.0,1
7.0,-254.0,-36.0,33.0,67.0,2.0,1
8.0,-252.0,-39.0,32.0,67.0,1.0,1
7.0,-255.0,-40.0,30.0,66.0,1.0,1
8.0,-255.0,-43.0,29.0,64.0,2.0,1
7.0,-253.0,-37.0,28.0,63.0,2.0,1
9.0,-251.0,-37.0,29.0,63.0,2.0,1
7.0,-256.0,-37.0,30.0,65.0,3.0,1
9.0,-256.0,-34.0,32.0,65.0,2.0,1
5.0,-255.0,-38.0,34.0,66.0,1.0,1
9.0,-256.0,-39.0,36.0,66.0,1.0,1
7.0,-256.0,-41.0,39.0,68.0,2.0,1
8.0,-256.0,-37.0,42.0,70.0,0.0,1
8.0,-255.0,-40.0,42.0,72.0,1.0,1
7.0,-251.0,-37.0,43.0,73.0,1.0,1
9.0,-254.0,-36.0,44.0,74.0,3.0,1
8.0,-256.0,-34.0,44.0,75.0,3.0,1
8.0,-257.0,-37.0,43.0,78.0,6.0,1
6.0,-256.0,-36.0,44.0,80.0,7.0,1
9.0,-255.0,-36.0,45.0,80.0,7.0,1
13.0,-256.0,-31.0,48.0,80.0,9.0,1
8.0,-254.0,-31.0,50.0,78.0,8.0,1
5.0,-253.0,-36.0,53.0,79.0,9.0,1
6.0,-252.0,-38.0,55.0,77.0,9.0,1
7.0,-253.0,-39.0,56.0,77.0,9.0,1
9.0,-256.0,-35.0,57.0,76.0,8.0,1
3.0,-253.0,-36.0,58.0,77.0,8.0,1
8.0,-251.0,-33.0,60.0,77.0,11.0,1
9.0,-254.0,-38.0,59.0,78.0,12.0,1
6.0,-256.0,-35.0,61.0,80.0,11.0,1
8.0,-256.0,-37.0,63.0,79.0,10.0,1
10.0,-256.0,-36.0,64.0,78.0,11.0,1
8.0,-257.0,-37.0,68.0,79.0,11.0,1
6.0,-258.0,-32.0,72.0,79.0,11.0,1
5.0,-258.0,-38.0,78.0,77.0,13.0,1
8.0,-255.0,-42.0,86.0,77.0,13.0,1
9.0,-256.0,-39.0,95.0,76.0,14.0,1
6.0,-255.0,-36.0,103.0,74.0,16.0,1
9.0,-253.0,-34.0,108.0,75.0,18.0,1
8.0,-250.0,-35.0,112.0,77.0,19.0,1
10.0,-254.0,-32.0,117.0,78.0,20.0,1
9.0,-249.0,-35.0,120.0,79.0,22.0,1
8.0,-254.0,-35.0,123.0,82.0,24.0,1
4.0,-257.0,-32.0,124.0,86.0,25.0,1
8.0,-254.0,-35.0,125.0,89.0,28.0,1
7.0,-256.0,-28.0,125.0,95.0,29.0,1
10.0,-256.0,-36.0,125.0,99.0,30.0,1
9.0,-254.0,-35.0,124.0,99.0,31.0,1
9.0,-257.0,-35.0,124.0,99.0,31.0,1
5.0,-254.0,-33.0,120.0,97.0,30.0,1
7.0,-260.0,-27.0,118.0,95.0,32.0,1
7.0,-257.0,-32.0,117.0,93.0,32.0,1
8.0,-256.0,-32.0,115.0,90.0,34.0,1
6.0,-257.0,-31.0,111.0,85.0,34.0,1
4.0,-255.0,-31.0,108.0,81.0,35.0,1
5.0,-255.0,-32.0,103.0,79.0,36.0,1
8.0,-253.0,-33.0,98.0,77.0,34.0,1
9.0,-252.0,-32.0,92.0,77.0,34.0,1
6.0,-254.0,-33.0,86.0,76.0,34.0,1
5.0,-251.0,-33.0,81.0,74.0,33.0,1
4.0,-254.0,-30.0,79.0,74.0,32.0,1
8.0,-254.0,-28.0,77.0,74.0,31.0,1
7.0,-253.0,-28.0,79.0,74.0,31.0,1
7.0,-257.0,-26.0,81.0,74.0,29.0,1
4.0,-256.0,-29.0,83.0,76.0,28.0,1
4.0,-255.0,-29.0,85.0,75.0,29.0,1
6.0,-256.0,-25.0,88.0,74.0,28.0,1
9.0,-257.0,-28.0,91.0,74.0,27.0,1
4.0,-255.0,-26.0,91.0,73.0,27.0,1
7.0,-256.0,-29.0,91.0,73.0,27.0,1
7.0,-255.0,-29.0,90.0,72.0,26.0,1
5.0,-254.0,-25.0,90.0,72.0,26.0,1
5.0,-255.0,-27.0,91.0,70.0,26.0,1
4.0,-252.0,-27.0,90.0,69.0,26.0,1
3.0,-251.0,-24.0,90.0,69.0,25.0,1
2.0,-253.0,-28.0,90.0,67.0,25.0,1
3.0,-256.0,-26.0,89.0,67.0,24.0,1
5.0,-254.0,-20.0,89.0,67.0,25.0,1
6.0,-255.0,-24.0,88.0,67.0,23.0,1
6.0,-260.0,-27.0,88.0,66.0,22.0,1
4.0,-255.0,-23.0,86.0,65.0,23.0,1
4.0,-253.0,-24.0,86.0,66.0,22.0,1
2.0,-259.0,-22.0,86.0,68.0,21.0,1
2.0,-257.0,-28.0,86.0,70.0,20.0,1
2.0,-257.0,-25.0,89.0,70.0,18.0,1
4.0,-256.0,-24.0,91.0,69.0,16.0,1
6.0,-260.0,-26.0,95.0,68.0,13.0,1
5.0,-259.0,-29.0,101.0,66.0,11.0,1
7.0,-256.0,-26.0,107.0,63.0,11.0,1
7.0,-256.0,-27.0,113.0,60.0,10.0,1
6.0,-257.0,-22.0,119.0,57.0,9.0,1
4.0,-259.0,-21.0,124.0,55.0,8.0,1
6.0,-256.0,-23.0,130.0,55.0,7.0,1
5.0,-257.0,-24.0,133.0,55.0,6.0,1
7.0,-257.0,-26.0,134.0,56.0,7.0,1
8.0,-255.0,-23.0,134.0,57.0,8.0,1
8.0,-253.0,-20.0,132.0,55.0,10.0,1
3.0,-254.0,-23.0,130.0,58.0,12.0,1
4.0,-254.0,-23.0,126.0,61.0,17.0,1
8.0,-255.0,-22.0,122.0,64.0,22.0,1
8.0,-257.0,-22.0,115.0,70.0,30.0,1
6.0,-252.0,-24.0,109.0,77.0,37.0,1
7.0,-253.0,-22.0,103.0,82.0,45.0,1
6.0,-249.0,-22.0,99.0,87.0,53.0,1
6.0,-252.0,-20.0,94.0,90.0,59.0,1
9.0,-252.0,-20.0,90.0,92.0,64.0,1
8.0,-250.0,-21.0,87.0,91.0,69.0,1
9.0,-254.0,-22.0,84.0,90.0,71.0,1
9.0,-252.0,-22.0,81.0,87.0,76.0,1
10.0,-252.0,-24.0,78.0,84.0,77.0,1
4.0,-255.0,-21.0,76.0,81.0,75.0,1
6.0,-254.0,-20.0,76.0,77.0,75.0,1
5.0,-256.0,-20.0,74.0,72.0,71.0,1
6.0,-256.0,-19.0,74.0,69.0,71.0,1
3.0,-258.0,-20.0,73.0,63.0,67.0,1
3.0,-258.0,-20.0,71.0,59.0,63.0,1
5.0,-257.0,-17.0,70.0,55.0,60.0,1
4.0,-257.0,-17.0,68.0,51.0,57.0,1
6.0,-256.0,-23.0,65.0,49.0,55.0,1
1.0,-254.0,-22.0,64.0,49.0,53.0,1
2.0,-258.0,-18.0,61.0,49.0,48.0,1
1.0,-255.0,-18.0,59.0,48.0,45.0,1
0.0,-255.0,-21.0,54.0,48.0,43.0,1
0.0,-253.0,-19.0,51.0,49.0,40.0,1
0.0,-254.0,-18.0,48.0,49.0,39.0,1
1.0,-255.0,-17.0,45.0,52.0,38.0,1
1.0,-253.0,-19.0,44.0,55.0,37.0,1
3.0,-256.0,-19.0,45.0,58.0,37.0,1
0.0,-255.0,-18.0,46.0,60.0,38.0,1
-2.0,-257.0,-15.0,48.0,63.0,38.0,1
1.0,-257.0,-18.0,52.0,63.0,38.0,1
1.0,-258.0,-17.0,55.0,65.0,37.0,1
-1.0,-258.0,-19.0,59.0,67.0,37.0,1
-2.0,-257.0,-16.0,64.0,68.0,38.0,1
0.0,-257.0,-18.0,69.0,70.0,38.0,1
0.0,-258.0,-17.0,75.0,70.0,39.0,1
0.0,-258.0,-19.0,78.0,70.0,39.0,1
1.0,-258.0,-18.0,79.0,69.0,39.0,1
1.0,-258.0,-19.0,81.0,68.0,38.0,1
0.0,-256.0,-20.0,83.0,68.0,38.0,1
1.0,-258.0,-20.0,85.0,67.0,38.0,1
1.0,-257.0,-19.0,88.0,69.0,37.0,1
1.0,-255.0,-19.0,87.0,70.0,36.0,1
1.0,-256.0,-15.0,88.0,74.0,37.0,1
0.0,-257.0,-19.0,89.0,75.0,36.0,1
1.0,-256.0,-19.0,90.0,74.0,35.0,1
1.0,-257.0,-17.0,89.0,76.0,34.0,1
4.0,-258.0,-13.0,87.0,76.0,33.0,1
-1.0,-255.0,-15.0,87.0,78.0,32.0,1
2.0,-254.0,-18.0,87.0,78.0,31.0,1
-2.0,-257.0,-15.0,84.0,80.0,31.0,1
3.0,-260.0,-16.0,85.0,80.0,32.0,1
1.0,-260.0,-16.0,88.0,82.0,31.0,1
1.0,-263.0,-17.0,90.0,83.0,32.0,1
0.0,-258.0,-15.0,93.0,84.0,33.0,1
0.0,-256.0,-17.0,95.0,85.0,31.0,1
-1.0,-252.0,-17.0,98.0,85.0,30.0,1
1.0,-257.0,-15.0,100.0,84.0,28.0,1
1.0,-256.0,-13.0,101.0,84.0,29.0,1
0.0,-255.0,-17.0,101.0,85.0,27.0,1
0.0,-254.0,-17.0,102.0,84.0,26.0,1
1.0,-254.0,-18.0,101.0,82.0,28.0,1
0.0,-257.0,-16.0,102.0,81.0,28.0,1
1.0,-257.0,-18.0,101.0,80.0,30.0,1
2.0,-255.0,-10.0,100.0,79.0,30.0,1
0.0,-256.0,-17.0,98.0,79.0,29.0,1
1.0,-259.0,-17.0,100.0,79.0,29.0,1
2.0,-257.0,-17.0,101.0,81.0,29.0,1
2.0,-258.0,-16.0,102.0,81.0,29.0,1
0.0,-256.0,-16.0,103.0,80.0,30.0,1
0.0,-259.0,-11.0,105.0,81.0,27.0,1
1.0,-257.0,-16.0,108.0,82.0,28.0,1
0.0,-260.0,-11.0,109.0,82.0,28.0,1
0.0,-253.0,-12.0,111.0,82.0,27.0,1
0.0,-256.0,-12.0,111.0,81.0,26.0,1
0.0,-256.0,-15.0,111.0,82.0,26.0,1
-1.0,-256.0,-13.0,112.0,80.0,24.0,1
0.0,-253.0,-15.0,112.0,81.0,24.0,1
0.0,-254.0,-14.0,114.0,81.0,24.0,1
-2.0,-256.0,-13.0,118.0,81.0,27.0,1
1.0,-257.0,-11.0,121.0,82.0,29.0,1
0.0,-258.0,-15.0,123.0,83.0,29.0,1
1.0,-255.0,-12.0,124.0,82.0,30.0,1
-1.0,-257.0,-13.0,128.0,84.0,31.0,1
1.0,-256.0,-11.0,132.0,85.0,30.0,1
1.0,-255.0,-13.0,136.0,85.0,29.0,1
0.0,-255.0,-12.0,140.0,87.0,29.0,1
2.0,-258.0,-13.0,142.0,86.0,29.0,1
1.0,-255.0,-15.0,148.0,86.0,28.0,1
0.0,-259.0,-12.0,155.0,90.0,28.0,1
0.0,-260.0,-10.0,165.0,91.0,28.0,1
1.0,-259.0,-11.0,175.0,93.0,30.0,1
2.0,-259.0,-17.0,187.0,95.0,30.0,1
0.0,-261.0,-12.0,200.0,101.0,30.0,1
0.0,-261.0,-11.0,215.0,104.0,30.0,1
0.0,-261.0,-14.0,231.0,108.0,31.0,1
0.0,-263.0,-14.0,248.0,110.0,30.0,1
0.0,-259.0,-13.0,266.0,111.0,31.0,1
0.0,-263.0,-12.0,280.0,109.0,30.0,1
-1.0,-260.0,-11.0,291.0,108.0,29.0,1
0.0,-258.0,-8.0,295.0,106.0,30.0,1
2.0,-260.0,-7.0,297.0,105.0,32.0,1
1.0,-256.0,-6.0,295.0,106.0,34.0,1
1.0,-258.0,-5.0,291.0,107.0,35.0,1
0.0,-256.0,-6.0,285.0,109.0,35.0,1
1.0,-255.0,-4.0,276.0,110.0,33.0,1
1.0,-254.0,-1.0,269.0,111.0,34.0,1
1.0,-255.0,-3.0,262.0,114.0,37.0,1
0.0,-257.0,-2.0,255.0,115.0,37.0,1
0.0,-254.0,0.0,249.0,116.0,38.0,1
0.0,-254.0,-1.0,245.0,117.0,36.0,1
-3.0,-255.0,0.0,242.0,114.0,37.0,1
-1.0,-253.0,-1.0,241.0,111.0,38.0,1
-2.0,-254.0,-1.0,238.0,110.0,38.0,1
1.0,-253.0,2.0,235.0,109.0,38.0,1
0.0,-255.0,3.0,232.0,108.0,39.0,1
0.0,-250.0,1.0,227.0,106.0,41.0,1
-4.0,-260.0,4.0,219.0,103.0,40.0,1
-6.0,-251.0,1.0,213.0,98.0,40.0,1
-5.0,-251.0,3.0,210.0,94.0,38.0,1
-1.0,-255.0,3.0,207.0,87.0,36.0,1
-6.0,-253.0,5.0,203.0,83.0,36.0,1
-6.0,-252.0,4.0,202.0,78.0,32.0,1
-1.0,-252.0,3.0,198.0,75.0,28.0,1
-4.0,-255.0,1.0,195.0,73.0,23.0,1
-3.0,-256.0,6.0,193.0,70.0,19.0,1
-3.0,-255.0,7.0,190.0,69.0,17.0,1
-2.0,-254.0,5.0,186.0,69.0,13.0,1
-2.0,-257.0,3.0,181.0,70.0,11.0,1
0.0,-256.0,3.0,178.0,72.0,10.0,1
-2.0,-260.0,6.0,176.0,71.0,10.0,1
-3.0,-260.0,4.0,176.0,72.0,8.0,1
-2.0,-258.0,6.0,177.0,72.0,7.0,1
-2.0,-257.0,8.0,181.0,75.0,5.0,1
0.0,-258.0,8.0,183.0,75.0,3.0,1
-1.0,-259.0,6.0,184.0,76.0,2.0,1
-3.0,-256.0,7.0,186.0,73.0,1.0,1
-4.0,-259.0,5.0,189.0,74.0,1.0,1
-4.0,-254.0,10.0,193.0,77.0,-2.0,1
-4.0,-255.0,18.0,196.0,77.0,-2.0,1
-1.0,-254.0,10.0,198.0,79.0,-3.0,1
-1.0,-256.0,11.0,197.0,81.0,-4.0,1
-6.0,-255.0,11.0,198.0,80.0,-4.0,1
-2.0,-260.0,9.0,201.0,79.0,-4.0,1
-5.0,-256.0,13.0,205.0,76.0,-5.0,1
-4.0,-257.0,10.0,206.0,76.0,-6.0,1
-5.0,-258.0,12.0,208.0,76.0,-5.0,1
-7.0,-255.0,11.0,211.0,77.0,-7.0,1
-4.0,-253.0,10.0,212.0,77.0,-7.0,1
-3.0,-256.0,13.0,211.0,76.0,-9.0,1
-3.0,-255.0,11.0,210.0,76.0,-11.0,1
-3.0,-256.0,10.0,210.0,75.0,-10.0,1
-5.0,-258.0,15.0,211.0,73.0,-12.0,1
-6.0,-255.0,12.0,211.0,72.0,-15.0,1
-6.0,-259.0,13.0,215.0,71.0,-15.0,1
-7.0,-258.0,11.0,217.0,70.0,-16.0,1
-3.0,-261.0,15.0,221.0,70.0,-17.0,1
-2.0,-261.0,15.0,224.0,70.0,-16.0,1
-6.0,-258.0,14.0,227.0,71.0,-16.0,1
-8.0,-261.0,16.0,230.0,73.0,-18.0,1
-4.0,-262.0,20.0,235.0,74.0,-17.0,1
-5.0,-257.0,13.0,241.0,76.0,-17.0,1
-5.0,-255.0,16.0,244.0,76.0,-18.0,1
-2.0,-257.0,13.0,247.0,76.0,-18.0,1
-3.0,-255.0,18.0,253.0,74.0,-17.0,1
-2.0,-254.0,15.0,258.0,75.0,-16.0,1
0.0,-255.0,17.0,264.0,74.0,-17.0,1
0.0,-257.0,18.0,267.0,74.0,-17.0,1
-2.0,-259.0,18.0,276.0,77.0,-19.0,1
0.0,-261.0,21.0,285.0,77.0,-18.0,1
0.0,-259.0,21.0,295.0,77.0,-18.0,1
1.0,-259.0,21.0,306.0,77.0,-18.0,1
-1.0,-259.0,23.0,318.0,75.0,-20.0,1
0.0,-257.0,22.0,332.0,72.0,-20.0,1
3.0,-255.0,21.0,343.0,69.0,-20.0,1
0.0,-255.0,24.0,353.0,65.0,-21.0,1
1.0,-259.0,24.0,364.0,62.0,-22.0,1
1.0,-260.0,22.0,376.0,58.0,-23.0,1
1.0,-259.0,24.0,388.0,57.0,-24.0,1
1.0,-260.0,26.0,400.0,52.0,-26.0,1
-1.0,-258.0,23.0,413.0,48.0,-25.0,1
-3.0,-257.0,20.0,425.0,43.0,-24.0,1
0.0,-260.0,16.0,438.0,38.0,-24.0,1
-1.0,-264.0,19.0,455.0,36.0,-25.0,1
-3.0,-259.0,20.0,476.0,34.0,-27.0,1
-1.0,-259.0,15.0,496.0,37.0,-24.0,1
-1.0,-255.0,17.0,514.0,41.0,-26.0,1
1.0,-250.0,25.0,530.0,47.0,-22.0,1
1.0,-248.0,25.0,538.0,53.0,-22.0,1
0.0,-247.0,28.0,541.0,62.0,-23.0,1
3.0,-246.0,28.0,542.0,70.0,-21.0,1
3.0,-241.0,27.0,537.0,79.0,-19.0,1
6.0,-246.0,29.0,525.0,89.0,-16.0,1
5.0,-243.0,33.0,512.0,94.0,-10.0,1
1.0,-242.0,35.0,495.0,100.0,-5.0,1
1.0,-246.0,32.0,479.0,105.0,1.0,1
-2.0,-246.0,34.0,459.0,103.0,3.0,1
0.0,-247.0,37.0,433.0,103.0,6.0,1
0.0,-248.0,32.0,410.0,103.0,8.0,1
-2.0,-251.0,34.0,391.0,102.0,9.0,1
0.0,-252.0,40.0,378.0,101.0,5.0,1
0.0,-259.0,40.0,376.0,98.0,3.0,1
-1.0,-262.0,42.0,378.0,95.0,5.0,1
2.0,-266.0,45.0,385.0,92.0,4.0,1
0.0,-260.0,45.0,391.0,88.0,3.0,1
-5.0,-264.0,45.0,393.0,82.0,3.0,1
0.0,-260.0,48.0,397.0,77.0,5.0,1
0.0,-261.0,45.0,401.0,74.0,6.0,1
0.0,-258.0,45.0,405.0,74.0,6.0,1
0.0,-257.0,43.0,413.0,71.0,6.0,1
0.0,-253.0,41.0,415.0,71.0,3.0,1
2.0,-250.0,44.0,411.0,72.0,1.0,1
3.0,-250.0,40.0,401.0,72.0,-4.0,1
1.0,-248.0,40.0,389.0,78.0,-9.0,1
2.0,-248.0,44.0,384.0,82.0,-11.0,1
4.0,-247.0,44.0,387.0,86.0,-9.0,1
0.0,-248.0,47.0,395.0,89.0,-6.0,1
0.0,-245.0,48.0,404.0,88.0,-4.0,1
1.0,-244.0,51.0,405.0,85.0,-3.0,1
2.0,-248.0,50.0,400.0,81.0,-3.0,1
0.0,-245.0,53.0,391.0,76.0,-5.0,1
0.0,-243.0,53.0,392.0,72.0,-7.0,1
-2.0,-241.0,50.0,400.0,69.0,-10.0,1
-1.0,-237.0,53.0,404.0,63.0,-11.0,1
-3.0,-237.0,57.0,406.0,56.0,-10.0,1
0.0,-244.0,55.0,407.0,51.0,-10.0,1
-1.0,-236.0,59.0,408.0,47.0,-13.0,1
0.0,-240.0,61.0,406.0,45.0,-14.0,1
-2.0,-240.0,61.0,400.0,45.0,-13.0,1
-4.0,-238.0,64.0,388.0,46.0,-13.0,1
-4.0,-243.0,65.0,379.0,47.0,-13.0,1
-3.0,-243.0,70.0,367.0,49.0,-15.0,1
0.0,-242.0,63.0,349.0,47.0,-18.0,1
0.0,-244.0,59.0,329.0,51.0,-21.0,1
1.0,-240.0,62.0,309.0,55.0,-22.0,1
0.0,-239.0,60.0,294.0,63.0,-22.0,1
4.0,-247.0,70.0,287.0,71.0,-24.0,1
7.0,-247.0,63.0,283.0,77.0,-23.0,1
5.0,-240.0,65.0,281.0,84.0,-25.0,1
4.0,-235.0,58.0,270.0,90.0,-21.0,1
1.0,-235.0,54.0,250.0,97.0,-12.0,1
1.0,-237.0,55.0,225.0,103.0,-5.0,1
0.0,-239.0,56.0,212.0,107.0,3.0,1
0.0,-245.0,61.0,208.0,109.0,10.0,1
2.0,-246.0,63.0,212.0,109.0,14.0,1
-2.0,-244.0,64.0,213.0,101.0,17.0,1
-6.0,-241.0,59.0,206.0,88.0,18.0,1
-3.0,-241.0,58.0,193.0,76.0,18.0,1
-4.0,-248.0,61.0,188.0,69.0,20.0,1
-2.0,-249.0,64.0,193.0,61.0,22.0,1
-4.0,-247.0,59.0,203.0,53.0,22.0,1
0.0,-249.0,61.0,212.0,48.0,26.0,1
0.0,-249.0,61.0,219.0,47.0,24.0,1
-1.0,-250.0,62.0,229.0,47.0,25.0,1
1.0,-249.0,62.0,249.0,50.0,27.0,1
0.0,-250.0,61.0,271.0,59.0,24.0,1
-1.0,-248.0,63.0,285.0,66.0,25.0,1
0.0,-249.0,64.0,291.0,76.0,25.0,1
-2.0,-248.0,62.0,292.0,87.0,27.0,1
1.0,-246.0,62.0,291.0,97.0,28.0,1
0.0,-242.0,65.0,293.0,105.0,30.0,1
1.0,-243.0,60.0,299.0,111.0,33.0,1
0.0,-243.0,67.0,305.0,118.0,34.0,1
0.0,-238.0,63.0,302.0,124.0,34.0,1
0.0,-237.0,58.0,289.0,123.0,31.0,1
1.0,-238.0,61.0,273.0,122.0,26.0,1
2.0,-236.0,66.0,260.0,120.0,20.0,1
0.0,-240.0,69.0,252.0,114.0,17.0,1
0.0,-239.0,79.0,252.0,112.0,13.0,1
3.0,-242.0,71.0,255.0,113.0,11.0,1
1.0,-241.0,71.0,249.0,117.0,9.0,1
0.0,-241.0,71.0,243.0,124.0,10.0,1
-1.0,-242.0,71.0,242.0,133.0,12.0,1
-1.0,-239.0,73.0,245.0,141.0,15.0,1
-3.0,-243.0,66.0,247.0,145.0,16.0,1
0.0,-244.0,72.0,250.0,149.0,19.0,1
-2.0,-244.0,75.0,255.0,149.0,21.0,1
-9.0,-244.0,72.0,262.0,146.0,23.0,1
-2.0,-243.0,73.0,266.0,142.0,23.0,1
-8.0,-244.0,74.0,268.0,141.0,21.0,1
-5.0,-243.0,75.0,266.0,138.0,21.0,1
-1.0,-245.0,71.0,265.0,134.0,24.0,1
-2.0,-240.0,74.0,270.0,132.0,24.0,1
-3.0,-243.0,79.0,278.0,131.0,23.0,1
-7.0,-237.0,78.0,291.0,130.0,21.0,1
-8.0,-243.0,80.0,301.0,132.0,23.0,1
-9.0,-241.0,77.0,309.0,134.0,26.0,1
-8.0,-240.0,75.0,310.0,134.0,27.0,1
-7.0,-239.0,78.0,311.0,134.0,31.0,1
-4.0,-244.0,82.0,319.0,135.0,33.0,1
-7.0,-247.0,78.0,328.0,138.0,34.0,1
-6.0,-242.0,89.0,338.0,136.0,34.0,1
-5.0,-245.0,83.0,347.0,132.0,32.0,1
-7.0,-243.0,81.0,358.0,125.0,31.0,1
-5.0,-244.0,83.0,367.0,118.0,31.0,1
-5.0,-243.0,85.0,373.0,112.0,26.0,1
-8.0,-242.0,83.0,380.0,105.0,22.0,1
-3.0,-238.0,80.0,381.0,95.0,19.0,1
-2.0,-238.0,79.0,374.0,87.0,13.0,1
-1.0,-235.0,86.0,364.0,86.0,9.0,1
-3.0,-239.0,87.0,357.0,90.0,8.0,1
-4.0,-232.0,93.0,352.0,93.0,12.0,1
-2.0,-232.0,89.0,342.0,94.0,11.0,1
-4.0,-232.0,86.0,334.0,93.0,7.0,1
-8.0,-235.0,94.0,333.0,95.0,8.0,1
-9.0,-235.0,94.0,338.0,95.0,11.0,1
-7.0,-240.0,96.0,343.0,93.0,13.0,1
-8.0,-238.0,92.0,349.0,88.0,12.0,1
-5.0,-240.0,92.0,354.0,80.0,13.0,1
-10.0,-234.0,94.0,357.0,75.0,8.0,1
-4.0,-238.0,94.0,358.0,68.0,4.0,1
-5.0,-237.0,92.0,362.0,65.0,3.0,1
-3.0,-238.0,91.0,367.0,61.0,4.0,1
-2.0,-236.0,85.0,370.0,60.0,6.0,1
-2.0,-236.0,87.0,369.0,60.0,7.0,1
-3.0,-234.0,87.0,367.0,64.0,6.0,1
-4.0,-236.0,88.0,368.0,67.0,7.0,1
-9.0,-231.0,86.0,362.0,71.0,7.0,1
-10.0,-234.0,89.0,351.0,75.0,11.0,1
-5.0,-235.0,93.0,337.0,77.0,15.0,1
-1.0,-237.0,99.0,333.0,79.0,15.0,1
-5.0,-234.0,100.0,336.0,80.0,16.0,1
-6.0,-231.0,100.0,346.0,82.0,16.0,1
0.0,-235.0,96.0,354.0,80.0,13.0,1
2.0,-234.0,95.0,360.0,80.0,14.0,1
1.0,-234.0,98.0,365.0,83.0,13.0,1
-1.0,-233.0,100.0,373.0,88.0,11.0,1
0.0,-233.0,97.0,377.0,96.0,12.0,1
0.0,-235.0,101.0,382.0,108.0,10.0,1
-1.0,-234.0,102.0,385.0,118.0,7.0,1
-4.0,-234.0,100.0,391.0,129.0,5.0,1
-5.0,-231.0,102.0,387.0,130.0,0.0,1
-7.0,-227.0,103.0,384.0,123.0,-9.0,1
-10.0,-224.0,107.0,385.0,118.0,-12.0,1
-6.0,-227.0,107.0,387.0,107.0,-15.0,1
-10.0,-226.0,110.0,387.0,100.0,-17.0,1
-9.0,-230.0,111.0,385.0,93.0,-17.0,1
-11.0,-230.0,110.0,384.0,83.0,-22.0,1
-9.0,-226.0,112.0,386.0,76.0,-24.0,1
-13.0,-229.0,109.0,389.0,70.0,-30.0,1
-7.0,-226.0,108.0,387.0,65.0,-33.0,1
-7.0,-226.0,110.0,387.0,63.0,-40.0,1
-6.0,-224.0,110.0,386.0,62.0,-44.0,1
-3.0,-228.0,114.0,389.0,63.0,-46.0,1
-5.0,-226.0,122.0,392.0,69.0,-47.0,1
-3.0,-228.0,117.0,396.0,75.0,-46.0,1
-4.0,-225.0,122.0,398.0,81.0,-47.0,1
-10.0,-224.0,120.0,397.0,90.0,-45.0,1
-7.0,-223.0,118.0,399.0,99.0,-43.0,1
-6.0,-223.0,119.0,400.0,101.0,-40.0,1
-9.0,-222.0,122.0,403.0,102.0,-37.0,1
-8.0,-221.0,125.0,408.0,97.0,-31.0,1
-7.0,-220.0,126.0,415.0,90.0,-29.0,1
-7.0,-220.0,127.0,412.0,82.0,-26.0,1
-1.0,-219.0,120.0,405.0,81.0,-20.0,1
0.0,-220.0,122.0,392.0,75.0,-14.0,1
5.0,-212.0,128.0,379.0,67.0,-15.0,1
-3.0,-216.0,119.0,373.0,56.0,-17.0,1
-6.0,-220.0,122.0,370.0,47.0,-15.0,1
-7.0,-219.0,123.0,369.0,42.0,-11.0,1
-8.0,-222.0,127.0,370.0,36.0,-10.0,1
-3.0,-220.0,123.0,377.0,32.0,-9.0,1
-4.0,-223.0,118.0,389.0,34.0,-9.0,1
-4.0,-221.0,120.0,402.0,36.0,-11.0,1
-5.0,-219.0,122.0,411.0,37.0,-11.0,1
-5.0,-217.0,123.0,420.0,39.0,-10.0,1
-7.0,-213.0,124.0,427.0,44.0,-8.0,1
-4.0,-213.0,122.0,426.0,47.0,-5.0,1
-1.0,-213.0,124.0,419.0,50.0,0.0,1
1.0,-221.0,125.0,422.0,56.0,6.0,1
3.0,-223.0,128.0,428.0,64.0,12.0,1
2.0,-213.0,126.0,429.0,63.0,10.0,1
2.0,-211.0,126.0,428.0,58.0,2.0,1
0.0,-206.0,125.0,425.0,55.0,-3.0,1
0.0,-208.0,122.0,422.0,56.0,-2.0,1
-3.0,-209.0,115.0,417.0,58.0,0.0,1
-2.0,-212.0,121.0,415.0,59.0,6.0,1
-4.0,-212.0,124.0,418.0,59.0,6.0,1
0.0,-216.0,130.0,428.0,60.0,7.0,1
-2.0,-212.0,124.0,443.0,63.0,6.0,1
-2.0,-211.0,129.0,457.0,64.0,8.0,1
0.0,-211.0,130.0,475.0,69.0,7.0,1
1.0,-211.0,131.0,486.0,71.0,13.0,1
3.0,-209.0,129.0,491.0,69.0,10.0,1
0.0,-203.0,129.0,494.0,66.0,5.0,1
-2.0,-205.0,128.0,495.0,60.0,9.0,1
0.0,-212.0,127.0,492.0,55.0,13.0,1
-3.0,-213.0,129.0,487.0,56.0,16.0,1
-2.0,-210.0,131.0,484.0,53.0,16.0,1
0.0,-211.0,134.0,483.0,56.0,17.0,1
0.0,-214.0,133.0,482.0,63.0,16.0,1
2.0,-211.0,132.0,481.0,66.0,14.0,1
1.0,-210.0,131.0,481.0,71.0,16.0,1
0.0,-211.0,137.0,486.0,77.0,16.0,1
0.0,-212.0,133.0,492.0,83.0,17.0,1
1.0,-210.0,131.0,500.0,87.0,18.0,1
-5.0,-211.0,135.0,510.0,90.0,19.0,1
0.0,-214.0,135.0,520.0,91.0,21.0,1
-1.0,-214.0,136.0,529.0,88.0,24.0,1
-2.0,-211.0,135.0,534.0,89.0,25.0,1
-7.0,-210.0,141.0,538.0,85.0,24.0,1
-9.0,-206.0,141.0,540.0,82.0,22.0,1
-8.0,-206.0,138.0,541.0,76.0,22.0,1
-7.0,-210.0,140.0,543.0,76.0,23.0,1
-10.0,-211.0,134.0,546.0,74.0,25.0,1
-11.0,-209.0,134.0,552.0,74.0,26.0,1
-11.0,-208.0,139.0,557.0,70.0,33.0,1
-11.0,-210.0,139.0,562.0,69.0,37.0,1
-10.0,-209.0,142.0,569.0,65.0,40.0,1
-7.0,-207.0,142.0,579.0,63.0,44.0,1
-9.0,-206.0,140.0,589.0,58.0,47.0,1
-12.0,-204.0,139.0,599.0,53.0,52.0,1
1.0,-204.0,143.0,605.0,49.0,57.0,1
-1.0,-199.0,148.0,615.0,43.0,54.0,1
5.0,-203.0,144.0,625.0,33.0,51.0,1
7.0,-208.0,151.0,631.0,30.0,50.0,1
11.0,-206.0,145.0,647.0,38.0,53.0,1
15.0,-205.0,152.0,661.0,51.0,57.0,1
15.0,-202.0,144.0,670.0,60.0,59.0,1
15.0,-200.0,142.0,675.0,72.0,60.0,1
16.0,-195.0,141.0,672.0,80.0,61.0,1
12.0,-205.0,132.0,673.0,92.0,64.0,1
15.0,-194.0,146.0,673.0,103.0,69.0,1
9.0,-192.0,144.0,679.0,118.0,71.0,1
11.0,-192.0,145.0,689.0,135.0,76.0,1
8.0,-194.0,144.0,699.0,156.0,80.0,1
6.0,-197.0,147.0,711.0,180.0,83.0,1
0.0,-195.0,143.0,728.0,195.0,78.0,1
-3.0,-193.0,136.0,744.0,198.0,80.0,1
-5.0,-187.0,141.0,754.0,202.0,85.0,1
-7.0,-184.0,139.0,767.0,199.0,89.0,1
-15.0,-181.0,143.0,777.0,193.0,89.0,1
-8.0,-182.0,139.0,783.0,184.0,101.0,1
-14.0,-179.0,142.0,786.0,182.0,110.0,1
-7.0,-181.0,142.0,791.0,173.0,118.0,1
-5.0,-178.0,143.0,795.0,168.0,122.0,1
-12.0,-182.0,147.0,801.0,158.0,121.0,1
-4.0,-182.0,147.0,812.0,140.0,121.0,1
-5.0,-182.0,144.0,816.0,119.0,118.0,1
-5.0,-178.0,149.0,821.0,99.0,108.0,1
-7.0,-178.0,150.0,827.0,83.0,101.0,1
-3.0,-177.0,150.0,829.0,72.0,97.0,1
-5.0,-174.0,150.0,832.0,69.0,96.0,1
-1.0,-175.0,152.0,838.0,74.0,96.0,1
-3.0,-173.0,152.0,853.0,85.0,93.0,1
-5.0,-175.0,158.0,874.0,99.0,91.0,1
-5.0,-173.0,155.0,900.0,112.0,94.0,1
0.0,-172.0,151.0,918.0,123.0,104.0,1
1.0,-168.0,153.0,926.0,132.0,109.0,1
0.0,-163.0,156.0,928.0,144.0,113.0,1
0.0,-159.0,159.0,934.0,159.0,117.0,1
0.0,-165.0,161.0,948.0,174.0,124.0,1
0.0,-166.0,160.0,961.0,186.0,130.0,1
-1.0,-167.0,159.0,982.0,189.0,131.0,1
-4.0,-163.0,161.0,1001.0,189.0,130.0,1
-9.0,-161.0,168.0,1018.0,186.0,130.0,1
-13.0,-162.0,168.0,1037.0,183.0,137.0,1
-11.0,-169.0,169.0,1056.0,178.0,144.0,1
-11.0,-169.0,173.0,1075.0,169.0,147.0,1
-13.0,-164.0,172.0,1098.0,168.0,147.0,1
-15.0,-162.0,169.0,1117.0,173.0,148.0,1
-15.0,-156.0,167.0,1124.0,181.0,150.0,1
-16.0,-157.0,170.0,1131.0,189.0,148.0,1
-13.0,-154.0,167.0,1141.0,196.0,144.0,1
-10.0,-151.0,166.0,1155.0,202.0,139.0,1
-10.0,-155.0,164.0,1173.0,210.0,137.0,1
-10.0,-153.0,167.0,1198.0,221.0,135.0,1
-14.0,-148.0,171.0,1226.0,233.0,133.0,1
-18.0,-147.0,176.0,1258.0,241.0,138.0,1
-16.0,-145.0,173.0,1288.0,250.0,143.0,1
-13.0,-139.0,175.0,1308.0,261.0,150.0,1
-13.0,-135.0,174.0,1317.0,265.0,157.0,1
-12.0,-129.0,181.0,1323.0,262.0,165.0,1
-10.0,-132.0,178.0,1321.0,250.0,178.0,1
-12.0,-126.0,179.0,1320.0,239.0,184.0,1
-14.0,-127.0,184.0,1336.0,239.0,188.0,1
-17.0,-123.0,184.0,1360.0,239.0,187.0,1
-18.0,-123.0,183.0,1382.0,243.0,187.0,1
-13.0,-121.0,178.0,1395.0,247.0,193.0,1
-18.0,-121.0,178.0,1403.0,244.0,201.0,1
-21.0,-124.0,175.0,1412.0,234.0,211.0,1
-20.0,-121.0,178.0,1424.0,227.0,223.0,1
-16.0,-124.0,172.0,1445.0,220.0,232.0,1
-16.0,-120.0,172.0,1471.0,220.0,237.0,1
-13.0,-120.0,174.0,1502.0,222.0,244.0,1
-13.0,-116.0,174.0,1535.0,232.0,247.0,1
-4.0,-112.0,171.0,1564.0,236.0,250.0,1
-13.0,-101.0,166.0,1593.0,240.0,252.0,1
-10.0,-95.0,170.0,1619.0,240.0,253.0,1
-15.0,-92.0,168.0,1643.0,239.0,259.0,1
-15.0,-91.0,169.0,1664.0,232.0,265.0,1
-8.0,-88.0,168.0,1687.0,226.0,269.0,1
-7.0,-85.0,169.0,1718.0,226.0,266.0,1
-6.0,-80.0,164.0,1759.0,236.0,256.0,1
-3.0,-82.0,167.0,1798.0,250.0,249.0,1
-4.0,-82.0,170.0,1831.0,265.0,241.0,1
-6.0,-78.0,175.0,1866.0,286.0,236.0,1
-8.0,-76.0,174.0,1897.0,308.0,238.0,1
-9.0,-82.0,179.0,1927.0,326.0,239.0,1
-8.0,-82.0,177.0,1958.0,343.0,244.0,1
-4.0,-81.0,177.0,1983.0,362.0,248.0,1
-9.0,-77.0,172.0,2004.0,390.0,255.0,1
-20.0,-69.0,150.0,2010.0,413.0,260.0,1
-27.0,-70.0,140.0,1983.0,411.0,272.0,1
-28.0,-75.0,140.0,1944.0,396.0,283.0,1
-30.0,-85.0,141.0,1942.0,386.0,291.0,1
-25.0,-90.0,139.0,1983.0,377.0,297.0,1
-26.0,-85.0,142.0,2051.0,374.0,302.0,1
-30.0,-68.0,146.0,2136.0,377.0,310.0,1
-32.0,-54.0,141.0,2223.0,379.0,318.0,1
-33.0,-35.0,132.0,2296.0,374.0,320.0,1
-36.0,-11.0,121.0,2338.0,360.0,311.0,1
-22.0,5.0,121.0,2353.0,339.0,296.0,1
-7.0,19.0,118.0,2365.0,328.0,276.0,1
0.0,36.0,105.0,2380.0,324.0,256.0,1
8.0,44.0,89.0,2381.0,309.0,240.0,1
11.0,49.0,76.0,2363.0,295.0,236.0,1
23.0,42.0,71.0,2334.0,292.0,244.0,1
49.0,29.0,52.0,2325.0,312.0,254.0,1
55.0,13.0,43.0,2349.0,365.0,267.0,1
54.0,8.0,40.0,2394.0,434.0,290.0,1
33.0,6.0,48.0,2449.0,505.0,326.0,1
29.0,8.0,32.0,2518.0,548.0,380.0,1
27.0,21.0,16.0,2544.0,561.0,425.0,1
22.0,40.0,9.0,2519.0,587.0,464.0,1
0.0,51.0,10.0,2451.0,623.0,502.0,1
-26.0,56.0,22.0,2353.0,641.0,533.0,1
-31.0,56.0,34.0,2237.0,618.0,568.0,1
-19.0,51.0,39.0,2135.0,566.0,594.0,1
-17.0,43.0,47.0,2056.0,509.0,590.0,1
-18.0,36.0,67.0,2010.0,455.0,580.0,1
-34.0,40.0,107.0,1983.0,391.0,557.0,1
-70.0,56.0,166.0,1973.0,327.0,536.0,1
-108.0,88.0,235.0,1966.0,301.0,508.0,1
-60.0,138.0,308.0,1907.0,276.0,466.0,1
-81.0,221.0,374.0,1733.0,273.0,402.0,1
-120.0,329.0,469.0,1387.0,333.0,369.0,1
-131.0,460.0,577.0,882.0,329.0,287.0,1
-166.0,628.0,776.0,204.0,192.0,185.0,1
-249.0,830.0,1070.0,-664.0,-19.0,87.0,1
-316.0,1051.0,1316.0,-1687.0,-343.0,16.0,1
-332.0,1233.0,1385.0,-2754.0,-707.0,-85.0,1
-311.0,1237.0,1191.0,-3684.0,-932.0,-285.0,1
-199.0,997.0,864.0,-4229.0,-910.0,-560.0,1
-80.0,660.0,607.0,-4235.0,-591.0,-722.0,1
-5.0,325.0,378.0,-3914.0,-91.0,-609.0,1
-3.0,34.0,169.0,-3613.0,416.0,-337.0,1
34.0,-292.0,-9.0,-3403.0,707.0,41.0,1
81.0,-614.0,-109.0,-3195.0,740.0,339.0,1
89.0,-884.0,-138.0,-2911.0,580.0,395.0,1
114.0,-1050.0,-119.0,-2479.0,417.0,300.0,1
76.0,-1063.0,9.0,-1975.0,319.0,100.0,1
29.0,-918.0,112.0,-1413.0,233.0,-29.0,1
-39.0,-668.0,201.0,-858.0,102.0,-82.0,1
-101.0,-402.0,290.0,-410.0,-5.0,-90.0,1
-121.0,-215.0,383.0,-147.0,-22.0,-88.0,1
-128.0,-69.0,473.0,-58.0,72.0,-114.0,1
-135.0,53.0,546.0,-70.0,200.0,-136.0,1
-128.0,176.0,607.0,-134.0,318.0,-169.0,1
-121.0,311.0,648.0,-285.0,463.0,-263.0,1
-111.0,405.0,638.0,-528.0,629.0,-388.0,1
-99.0,420.0,606.0,-797.0,784.0,-456.0,1
-62.0,335.0,511.0,-936.0,853.0,-379.0,1
-6.0,227.0,393.0,-800.0,822.0,-135.0,1
13.0,83.0,313.0,-447.0,715.0,166.0,1
21.0,8.0,236.0,48.0,525.0,356.0,1
14.0,-24.0,205.0,503.0,412.0,420.0,1
6.0,-27.0,188.0,840.0,372.0,397.0,1
-8.0,-16.0,205.0,1009.0,379.0,330.0,1
-27.0,12.0,202.0,1029.0,385.0,258.0,1
-46.0,37.0,201.0,963.0,363.0,181.0,1
-61.0,61.0,199.0,860.0,327.0,110.0,1
-68.0,79.0,190.0,757.0,279.0,69.0,1
-74.0,88.0,204.0,684.0,232.0,59.0,1
-83.0,91.0,199.0,667.0,192.0,88.0,1
-83.0,81.0,214.0,698.0,161.0,145.0,1
-78.0,66.0,219.0,764.0,147.0,218.0,1
-73.0,61.0,218.0,831.0,141.0,275.0,1
-68.0,53.0,210.0,865.0,124.0,303.0,1
-61.0,53.0,199.0,847.0,94.0,288.0,1
-57.0,64.0,183.0,772.0,40.0,229.0,1
-53.0,80.0,167.0,656.0,-19.0,150.0,1
-53.0,104.0,163.0,524.0,-69.0,67.0,1
-51.0,130.0,162.0,406.0,-96.0,-4.0,1
-52.0,136.0,161.0,317.0,-91.0,-49.0,1
-48.0,136.0,168.0,256.0,-59.0,-68.0,1
-42.0,132.0,171.0,209.0,-13.0,-73.0,1
-44.0,130.0,172.0,157.0,44.0,-67.0,1
-39.0,122.0,173.0,102.0,103.0,-58.0,1
-31.0,122.0,176.0,47.0,162.0,-42.0,1
-35.0,123.0,174.0,-16.0,215.0,-28.0,1
-32.0,121.0,185.0,-84.0,263.0,-16.0,1
-30.0,113.0,185.0,-165.0,307.0,-8.0,1
-29.0,104.0,192.0,-256.0,342.0,-3.0,1
-31.0,92.0,198.0,-342.0,373.0,-5.0,1
-33.0,86.0,194.0,-410.0,398.0,-15.0,1
-34.0,80.0,188.0,-465.0,418.0,-29.0,1
-36.0,81.0,184.0,-516.0,432.0,-51.0,1
-39.0,88.0,175.0,-570.0,444.0,-77.0,1
-36.0,88.0,168.0,-625.0,447.0,-103.0,1
-45.0,91.0,166.0,-678.0,447.0,-133.0,1
-50.0,94.0,165.0,-715.0,442.0,-163.0,1
-61.0,88.0,167.0,-745.0,425.0,-192.0,1
-62.0,87.0,168.0,-768.0,403.0,-217.0,1
-66.0,82.0,176.0,-783.0,387.0,-235.0,1
-76.0,82.0,184.0,-783.0,378.0,-242.0,1
-80.0,79.0,191.0,-777.0,371.0,-239.0,1
-87.0,76.0,195.0,-774.0,358.0,-236.0,1
-83.0,72.0,205.0,-780.0,337.0,-228.0,1
-79.0,65.0,215.0,-797.0,307.0,-216.0,1
-73.0,57.0,225.0,-824.0,268.0,-209.0,1
-71.0,47.0,228.0,-863.0,224.0,-206.0,1
-67.0,38.0,236.0,-902.0,178.0,-212.0,1
-66.0,28.0,236.0,-926.0,135.0,-223.0,1
-61.0,26.0,227.0,-944.0,90.0,-236.0,1
-62.0,20.0,223.0,-969.0,60.0,-254.0,1
-63.0,16.0,221.0,-997.0,37.0,-267.0,1
-64.0,11.0,218.0,-1035.0,17.0,-284.0,1
-63.0,1.0,222.0,-1073.0,2.0,-301.0,1
-67.0,-11.0,231.0,-1113.0,1.0,-315.0,1
-72.0,-21.0,245.0,-1142.0,11.0,-320.0,1
-76.0,-34.0,254.0,-1151.0,39.0,-325.0,1
-68.0,-48.0,265.0,-1129.0,75.0,-326.0,1
-76.0,-51.0,270.0,-1088.0,116.0,-327.0,1
-83.0,-44.0,271.0,-1038.0,146.0,-325.0,1
-76.0,-39.0,266.0,-991.0,164.0,-316.0,1
-70.0,-34.0,263.0,-955.0,174.0,-307.0,1
-65.0,-31.0,259.0,-930.0,186.0,-297.0,1
-74.0,-28.0,252.0,-915.0,201.0,-284.0,1
-72.0,-32.0,251.0,-907.0,219.0,-271.0,1
-80.0,-32.0,253.0,-896.0,245.0,-266.0,1
-81.0,-38.0,257.0,-884.0,272.0,-262.0,1
-74.0,-47.0,257.0,-875.0,296.0,-266.0,1
-73.0,-54.0,257.0,-864.0,318.0,-283.0,1
-67.0,-57.0,258.0,-858.0,338.0,-298.0,1
-65.0,-63.0,253.0,-852.0,352.0,-310.0,1
-62.0,-61.0,255.0,-844.0,359.0,-318.0,1
-62.0,-62.0,245.0,-836.0,366.0,-325.0,1
-58.0,-69.0,244.0,-818.0,376.0,-327.0,1
-62.0,-59.0,236.0,-791.0,393.0,-323.0,1
-69.0,-58.0,236.0,-763.0,414.0,-317.0,1
-72.0,-61.0,233.0,-729.0,421.0,-306.0,1
-72.0,-67.0,233.0,-686.0,427.0,-298.0,1
-75.0,-70.0,231.0,-647.0,437.0,-299.0,1
-78.0,-71.0,233.0,-609.0,448.0,-300.0,1
-76.0,-82.0,231.0,-563.0,456.0,-307.0,1
-76.0,-79.0,227.0,-525.0,462.0,-327.0,1
-72.0,-83.0,228.0,-500.0,460.0,-354.0,1
-73.0,-84.0,226.0,-491.0,454.0,-380.0,1
-73.0,-82.0,230.0,-486.0,437.0,-400.0,1
-69.0,-85.0,225.0,-477.0,409.0,-420.0,1
-71.0,-94.0,223.0,-474.0,376.0,-443.0,1
-73.0,-93.0,224.0,-466.0,343.0,-457.0,1
-72.0,-97.0,220.0,-453.0,319.0,-454.0,1
-72.0,-104.0,221.0,-424.0,309.0,-439.0,1
-69.0,-100.0,217.0,-381.0,313.0,-418.0,1
-73.0,-103.0,219.0,-344.0,329.0,-389.0,1
-72.0,-111.0,227.0,-309.0,343.0,-360.0,1
-71.0,-118.0,231.0,-273.0,345.0,-332.0,1
-69.0,-123.0,238.0,-235.0,341.0,-307.0,1
-69.0,-127.0,246.0,-196.0,329.0,-291.0,1
-76.0,-133.0,249.0,-159.0,320.0,-279.0,1
-87.0,-133.0,259.0,-119.0,310.0,-259.0,1
-92.0,-133.0,259.0,-74.0,292.0,-234.0,1
-98.0,-133.0,262.0,-19.0,270.0,-208.0,1
-103.0,-125.0,263.0,37.0,240.0,-181.0,1
-102.0,-123.0,264.0,87.0,214.0,-151.0,1
-98.0,-119.0,255.0,130.0,194.0,-122.0,1
-96.0,-110.0,249.0,157.0,176.0,-96.0,1
-94.0,-110.0,244.0,168.0,162.0,-63.0,1
-94.0,-105.0,238.0,166.0,154.0,-25.0,1
-92.0,-104.0,239.0,155.0,158.0,16.0,1
-85.0,-103.0,235.0,146.0,166.0,59.0,1
-84.0,-100.0,229.0,138.0,183.0,96.0,1
-74.0,-102.0,233.0,137.0,198.0,117.0,1
-69.0,-92.0,229.0,144.0,209.0,126.0,1
-64.0,-92.0,225.0,155.0,220.0,125.0,1
-64.0,-82.0,215.0,167.0,221.0,118.0,1
-63.0,-75.0,209.0,173.0,212.0,107.0,1
-61.0,-71.0,205.0,169.0,194.0,88.0,1
-67.0,-65.0,204.0,162.0,165.0,62.0,1
-74.0,-60.0,199.0,154.0,131.0,40.0,1
-78.0,-57.0,193.0,147.0,89.0,22.0,1
-83.0,-58.0,197.0,142.0,49.0,5.0,1
-91.0,-55.0,194.0,143.0,6.0,-4.0,1
-98.0,-57.0,195.0,146.0,-32.0,-12.0,1
-96.0,-59.0,198.0,141.0,-66.0,-13.0,1
-100.0,-62.0,200.0,132.0,-87.0,-10.0,1
-95.0,-67.0,203.0,116.0,-92.0,-4.0,1
-91.0,-67.0,207.0,104.0,-83.0,2.0,1
-91.0,-69.0,206.0,100.0,-61.0,8.0,1
-91.0,-68.0,209.0,106.0,-33.0,16.0,1
-87.0,-70.0,211.0,115.0,4.0,24.0,1
-78.0,-67.0,209.0,125.0,33.0,30.0,1
-76.0,-68.0,210.0,131.0,68.0,29.0,1
-75.0,-66.0,210.0,138.0,104.0,29.0,1
-76.0,-68.0,217.0,143.0,136.0,29.0,1
-75.0,-72.0,217.0,141.0,160.0,27.0,1
-78.0,-73.0,216.0,131.0,175.0,26.0,1
-77.0,-72.0,214.0,119.0,182.0,23.0,1
-78.0,-74.0,217.0,105.0,184.0,23.0,1
-77.0,-76.0,224.0,88.0,181.0,25.0,1
-76.0,-74.0,225.0,74.0,174.0,25.0,1
-78.0,-71.0,223.0,59.0,164.0,25.0,1
-89.0,-61.0,224.0,43.0,153.0,27.0,1
-81.0,-57.0,228.0,27.0,144.0,31.0,1
-77.0,-60.0,231.0,18.0,138.0,39.0,1
-78.0,-59.0,234.0,15.0,137.0,47.0,1
-81.0,-55.0,237.0,16.0,140.0,55.0,1
-79.0,-54.0,236.0,16.0,146.0,63.0,1
-80.0,-50.0,241.0,5.0,154.0,68.0,1
-75.0,-52.0,237.0,-14.0,157.0,72.0,1
-72.0,-56.0,237.0,-41.0,169.0,77.0,1
-69.0,-59.0,245.0,-65.0,190.0,87.0,1
-67.0,-57.0,248.0,-67.0,210.0,105.0,1
-64.0,-51.0,245.0,-47.0,228.0,129.0,1
-63.0,-37.0,246.0,-18.0,246.0,147.0,1
-65.0,-31.0,240.0,6.0,262.0,155.0,1
-68.0,-25.0,237.0,19.0,261.0,159.0,1
-73.0,-28.0,230.0,36.0,236.0,167.0,1
-72.0,-31.0,225.0,61.0,188.0,166.0,1
-74.0,-38.0,217.0,95.0,127.0,152.0,1
-74.0,-47.0,213.0,135.0,61.0,126.0,1
-85.0,-43.0,203.0,177.0,-14.0,92.0,1
-87.0,-52.0,202.0,219.0,-71.0,66.0,1
-93.0,-51.0,205.0,251.0,-104.0,48.0,1
-95.0,-55.0,206.0,268.0,-115.0,33.0,1
-104.0,-55.0,208.0,271.0,-96.0,17.0,1
-101.0,-51.0,213.0,256.0,-49.0,3.0,1
-104.0,-45.0,216.0,222.0,21.0,-12.0,1
-101.0,-40.0,220.0,170.0,107.0,-25.0,1
-105.0,-35.0,229.0,96.0,197.0,-30.0,1
-106.0,-34.0,237.0,15.0,280.0,-31.0,1
-105.0,-38.0,244.0,-63.0,344.0,-31.0,1
-99.0,-37.0,246.0,-132.0,383.0,-37.0,1
-100.0,-39.0,247.0,-193.0,403.0,-49.0,1
-97.0,-44.0,245.0,-242.0,397.0,-54.0,1
-95.0,-55.0,249.0,-261.0,371.0,-56.0,1
-92.0,-60.0,238.0,-251.0,325.0,-59.0,1
-88.0,-65.0,234.0,-215.0,265.0,-58.0,1
-77.0,-72.0,222.0,-158.0,201.0,-55.0,1
-73.0,-75.0,220.0,-84.0,144.0,-49.0,1
-76.0,-69.0,217.0,-7.0,94.0,-42.0,1
-75.0,-68.0,211.0,62.0,59.0,-31.0,1
-74.0,-60.0,207.0,119.0,43.0,-20.0,1
-77.0,-54.0,214.0,156.0,41.0,-14.0,1
-77.0,-48.0,215.0,179.0,52.0,-6.0,1
-78.0,-45.0,217.0,190.0,69.0,2.0,1
-76.0,-42.0,214.0,189.0,89.0,4.0,1
-80.0,-36.0,221.0,180.0,113.0,0.0,1
-83.0,-38.0,223.0,160.0,127.0,0.0,1
-83.0,-41.0,223.0,132.0,138.0,-1.0,1
-84.0,-43.0,227.0,103.0,144.0,-5.0,1
-83.0,-48.0,229.0,74.0,143.0,-3.0,1
-89.0,-46.0,228.0,44.0,138.0,-5.0,1
-89.0,-49.0,230.0,14.0,130.0,-8.0,1
-87.0,-48.0,231.0,-13.0,121.0,-9.0,1
-85.0,-49.0,230.0,-37.0,112.0,-9.0,1
-84.0,-50.0,230.0,-63.0,105.0,-8.0,1
-87.0,-50.0,231.0,-88.0,97.0,-3.0,1
-87.0,-50.0,228.0,-104.0,92.0,2.0,1
-84.0,-50.0,224.0,-113.0,90.0,8.0,1
-80.0,-54.0,224.0,-114.0,91.0,15.0,1
-83.0,-52.0,225.0,-108.0,94.0,20.0,1
-82.0,-53.0,226.0,-97.0,98.0,26.0,1
-80.0,-55.0,224.0,-84.0,99.0,31.0,1
-80.0,-53.0,224.0,-69.0,99.0,33.0,1
-76.0,-51.0,227.0,-52.0,101.0,37.0,1
-77.0,-53.0,219.0,-37.0,106.0,42.0,1
-77.0,-55.0,226.0,-32.0,110.0,46.0,1
-83.0,-50.0,230.0,-30.0,113.0,49.0,1
-79.0,-52.0,226.0,-30.0,113.0,49.0,1
-78.0,-54.0,230.0,-32.0,113.0,48.0,1
-83.0,-52.0,228.0,-35.0,108.0,46.0,1
-87.0,-49.0,228.0,-38.0,108.0,52.0,1
-84.0,-46.0,228.0,-41.0,111.0,52.0,1
-88.0,-46.0,227.0,-41.0,110.0,51.0,1
-88.0,-47.0,226.0,-45.0,109.0,49.0,1
-90.0,-48.0,229.0,-48.0,107.0,46.0,1
-89.0,-48.0,226.0,-53.0,108.0,42.0,1
-91.0,-48.0,225.0,-57.0,112.0,38.0,1
-88.0,-52.0,226.0,-59.0,117.0,36.0,1
-88.0,-49.0,227.0,-61.0,124.0,34.0,1
-91.0,-47.0,225.0,-60.0,135.0,31.0,1
-93.0,-44.0,221.0,-61.0,146.0,28.0,1
-89.0,-46.0,222.0,-60.0,156.0,27.0,1
-90.0,-48.0,224.0,-57.0,167.0,26.0,1
-92.0,-47.0,226.0,-52.0,177.0,26.0,1
-87.0,-45.0,224.0,-48.0,186.0,27.0,1
-91.0,-48.0,223.0,-45.0,191.0,27.0,1
-94.0,-51.0,226.0,-45.0,192.0,27.0,1
-92.0,-52.0,227.0,-45.0,194.0,26.0,1
-94.0,-51.0,226.0,-45.0,192.0,24.0,1
-93.0,-47.0,227.0,-50.0,192.0,21.0,1
-97.0,-51.0,226.0,-49.0,189.0,21.0,1
-95.0,-50.0,226.0,-47.0,189.0,19.0,1
-99.0,-48.0,226.0,-43.0,191.0,17.0,1
-100.0,-49.0,225.0,-38.0,191.0,16.0,1
-98.0,-48.0,219.0,-30.0,189.0,19.0,1
-97.0,-51.0,221.0,-23.0,187.0,21.0,1
-98.0,-49.0,224.0,-14.0,185.0,22.0,1
-94.0,-49.0,225.0,-12.0,180.0,22.0,1
-97.0,-53.0,222.0,-11.0,177.0,19.0,1
-97.0,-50.0,224.0,-11.0,170.0,14.0,1
-99.0,-52.0,219.0,-8.0,165.0,10.0,1
-98.0,-52.0,223.0,-8.0,159.0,7.0,1
-102.0,-52.0,226.0,-6.0,152.0,9.0,1
-97.0,-51.0,223.0,1.0,143.0,11.0,1
-99.0,-52.0,218.0,9.0,134.0,9.0,1
-95.0,-54.0,217.0,15.0,128.0,8.0,1
-99.0,-55.0,222.0,18.0,121.0,4.0,1
-99.0,-54.0,216.0,19.0,115.0,1.0,1
-95.0,-55.0,216.0,16.0,106.0,-2.0,1
-95.0,-51.0,218.0,15.0,100.0,-6.0,1
-93.0,-54.0,217.0,12.0,96.0,-7.0,1
-97.0,-54.0,217.0,10.0,93.0,-9.0,1
-96.0,-53.0,217.0,12.0,92.0,-12.0,1
-95.0,-55.0,215.0,11.0,90.0,-13.0,1
-97.0,-56.0,217.0,10.0,86.0,-14.0,1
-97.0,-54.0,219.0,9.0,84.0,-16.0,1
-97.0,-56.0,219.0,10.0,82.0,-14.0,1
-97.0,-57.0,218.0,11.0,79.0,-14.0,1
-99.0,-54.0,219.0,12.0,75.0,-15.0,1
-95.0,-56.0,219.0,17.0,72.0,-16.0,1
-95.0,-59.0,220.0,20.0,70.0,-15.0,1
-98.0,-62.0,218.0,21.0,68.0,-17.0,1
-101.0,-61.0,219.0,23.0,67.0,-14.0,1
-97.0,-61.0,216.0,25.0,63.0,-13.0,1
-95.0,-62.0,219.0,29.0,59.0,-12.0,1
-96.0,-60.0,221.0,35.0,57.0,-13.0,1
-93.0,-57.0,224.0,41.0,55.0,-16.0,1
-95.0,-57.0,221.0,42.0,51.0,-16.0,1
-94.0,-55.0,224.0,45.0,48.0,-13.0,1
-90.0,-57.0,227.0,51.0,50.0,-10.0,1
-94.0,-53.0,221.0,54.0,54.0,-4.0,1
-94.0,-53.0,225.0,58.0,58.0,4.0,1
-91.0,-49.0,221.0,61.0,65.0,13.0,1
-89.0,-47.0,219.0,59.0,72.0,20.0,1
-91.0,-46.0,222.0,58.0,82.0,28.0,1
-88.0,-47.0,224.0,59.0,93.0,36.0,1
-91.0,-45.0,225.0,63.0,104.0,41.0,1
-87.0,-44.0,220.0,68.0,115.0,43.0,1
-89.0,-42.0,221.0,75.0,124.0,43.0,1
-91.0,-40.0,222.0,81.0,134.0,43.0,1
-90.0,-41.0,224.0,85.0,141.0,45.0,1
-88.0,-41.0,223.0,87.0,147.0,46.0,1
-90.0,-39.0,218.0,85.0,155.0,47.0,1
-93.0,-37.0,219.0,78.0,159.0,45.0,1
-91.0,-35.0,223.0,64.0,164.0,46.0,1
-94.0,-35.0,222.0,49.0,165.0,42.0,1
-92.0,-37.0,225.0,32.0,163.0,39.0,1
-97.0,-36.0,220.0,13.0,157.0,33.0,1
-92.0,-43.0,228.0,-7.0,147.0,31.0,1
-92.0,-45.0,223.0,-23.0,137.0,29.0,1
-92.0,-46.0,223.0,-36.0,128.0,28.0,1
-91.0,-49.0,225.0,-47.0,121.0,24.0,1
-90.0,-50.0,236.0,-55.0,112.0,21.0,1
-93.0,-43.0,230.0,-61.0,103.0,16.0,1
-89.0,-50.0,226.0,-63.0,94.0,10.0,1
-95.0,-55.0,224.0,-63.0,85.0,5.0,1
-94.0,-52.0,227.0,-60.0,77.0,2.0,1
-91.0,-52.0,223.0,-56.0,72.0,-1.0,1
-89.0,-52.0,219.0,-48.0,69.0,-3.0,1
-96.0,-49.0,219.0,-39.0,68.0,-2.0,1
-90.0,-55.0,221.0,-28.0,70.0,3.0,1
-88.0,-46.0,222.0,-15.0,73.0,2.0,1
-89.0,-51.0,227.0,-7.0,77.0,0.0,1
-91.0,-48.0,219.0,-2.0,81.0,-3.0,1
-95.0,-48.0,226.0,4.0,87.0,-5.0,1
-96.0,-47.0,226.0,5.0,90.0,-4.0,1
-98.0,-51.0,218.0,5.0,92.0,-5.0,1
-95.0,-51.0,222.0,5.0,94.0,-6.0,1
-91.0,-48.0,212.0,4.0,93.0,-7.0,1
-99.0,-48.0,221.0,3.0,93.0,-7.0,1
-99.0,-50.0,220.0,4.0,94.0,-6.0,1
-91.0,-44.0,214.0,1.0,94.0,-4.0,1
-104.0,-44.0,222.0,-3.0,94.0,-3.0,1
-97.0,-56.0,226.0,-6.0,91.0,-3.0,1
-102.0,-50.0,228.0,-8.0,92.0,-3.0,1
-103.0,-46.0,206.0,-10.0,89.0,-2.0,1
-107.0,-48.0,217.0,-12.0,86.0,-3.0,1
-121.0,-52.0,197.0,-15.0,83.0,-4.0,1
-98.0,-52.0,219.0,-15.0,79.0,-7.0,1
-96.0,-52.0,219.0,-17.0,78.0,-7.0,1
-96.0,-48.0,219.0,-18.0,77.0,-7.0,1
-98.0,-52.0,217.0,-17.0,76.0,-9.0,1
-101.0,-47.0,219.0,-16.0,79.0,-9.0,1
-90.0,-53.0,217.0,-14.0,79.0,-7.0,1
-97.0,-44.0,228.0,-10.0,80.0,-7.0,1
-98.0,-54.0,217.0,-6.0,80.0,-6.0,1
-100.0,-45.0,216.0,-4.0,83.0,-6.0,1
-96.0,-48.0,224.0,-1.0,85.0,-1.0,1
-96.0,-48.0,220.0,0.0,89.0,0.0,1
-103.0,-38.0,221.0,5.0,93.0,1.0,1
-92.0,-41.0,216.0,7.0,95.0,3.0,1
-101.0,-48.0,217.0,10.0,100.0,3.0,1
-94.0,-42.0,217.0,9.0,99.0,2.0,1
-95.0,-49.0,218.0,8.0,98.0,1.0,1
-98.0,-50.0,224.0,8.0,97.0,0.0,1
-99.0,-47.0,223.0,7.0,96.0,-1.0,1
-98.0,-47.0,220.0,8.0,95.0,-1.0,1
-100.0,-52.0,215.0,10.0,94.0,-2.0,1
-100.0,-40.0,229.0,10.0,92.0,-1.0,1
-97.0,-48.0,216.0,7.0,91.0,1.0,1
-95.0,-43.0,210.0,4.0,93.0,1.0,1
-96.0,-47.0,224.0,0.0,92.0,1.0,1
-99.0,-46.0,210.0,-3.0,90.0,1.0,1
-83.0,-47.0,225.0,-4.0,91.0,0.0,1
-99.0,-41.0,221.0,-3.0,93.0,-1.0,1
-86.0,-46.0,230.0,-3.0,92.0,0.0,1
-92.0,-40.0,221.0,-3.0,93.0,1.0,1
-103.0,-39.0,229.0,-4.0,92.0,2.0,1
-92.0,-49.0,215.0,-5.0,90.0,3.0,1
-95.0,-43.0,224.0,-5.0,88.0,2.0,1
-95.0,-47.0,222.0,-4.0,88.0,3.0,1
-99.0,-47.0,224.0,-6.0,81.0,1.0,1
-99.0,-48.0,221.0,-5.0,81.0,1.0,1
-96.0,-44.0,226.0,-8.0,80.0,1.0,1
-94.0,-44.0,230.0,-10.0,78.0,1.0,1
-100.0,-46.0,229.0,-11.0,76.0,3.0,1
-95.0,-47.0,221.0,-11.0,74.0,4.0,1
-98.0,-49.0,221.0,-13.0,70.0,4.0,1
-97.0,-52.0,226.0,-15.0,68.0,5.0,1
-98.0,-49.0,224.0,-17.0,69.0,6.0,1
-99.0,-43.0,215.0,-18.0,70.0,3.0,1
-83.0,-44.0,229.0,-19.0,71.0,2.0,1
-93.0,-41.0,215.0,-17.0,73.0,2.0,1
-93.0,-33.0,206.0,-15.0,72.0,2.0,1
-99.0,-50.0,209.0,-16.0,73.0,2.0,1
-100.0,-48.0,219.0,-16.0,73.0,2.0,1
-102.0,-48.0,216.0,-18.0,73.0,2.0,1
-96.0,-49.0,223.0,-21.0,71.0,4.0,1
-99.0,-49.0,224.0,-22.0,69.0,2.0,1
-102.0,-44.0,228.0,-25.0,67.0,0.0,1
-102.0,-50.0,225.0,-27.0,64.0,-3.0,1
-103.0,-53.0,226.0,-29.0,64.0,-3.0,1
-97.0,-47.0,220.0,-29.0,64.0,-6.0,1
-101.0,-45.0,209.0,-26.0,67.0,-5.0,1
-94.0,-46.0,226.0,-23.0,72.0,-5.0,1
-96.0,-45.0,204.0,-19.0,74.0,-5.0,1
-89.0,-42.0,215.0,-15.0,76.0,-4.0,1
-97.0,-40.0,224.0,-13.0,80.0,-4.0,1
-103.0,-52.0,224.0,-11.0,81.0,-6.0,1
-94.0,-50.0,219.0,-8.0,81.0,-7.0,1
-98.0,-47.0,216.0,-6.0,79.0,-7.0,1
-99.0,-50.0,219.0,-3.0,79.0,-11.0,1
-96.0,-48.0,217.0,0.0,79.0,-12.0,1
-94.0,-44.0,224.0,3.0,77.0,-12.0,1
-94.0,-51.0,221.0,5.0,75.0,-12.0,1
-97.0,-47.0,213.0,5.0,74.0,-10.0,1
-102.0,-51.0,220.0,8.0,75.0,-9.0,1
-98.0,-41.0,225.0,9.0,76.0,-6.0,1
-102.0,-45.0,234.0,11.0,80.0,-4.0,1
-96.0,-45.0,224.0,14.0,82.0,-4.0,1
-101.0,-45.0,219.0,14.0,84.0,-6.0,1
-97.0,-48.0,224.0,12.0,86.0,-4.0,1
-94.0,-51.0,221.0,11.0,88.0,-3.0,1
-97.0,-49.0,227.0,10.0,88.0,0.0,1
-96.0,-49.0,226.0,9.0,87.0,0.0,1
-94.0,-51.0,221.0,6.0,87.0,0.0,1
-95.0,-48.0,220.0,4.0,87.0,2.0,1
-94.0,-51.0,221.0,5.0,88.0,4.0,1
-98.0,-50.0,227.0,6.0,90.0,3.0,1
-97.0,-46.0,222.0,8.0,91.0,6.0,1
-94.0,-47.0,221.0,12.0,92.0,9.0,1
-90.0,-47.0,223.0,18.0,93.0,10.0,1
-92.0,-44.0,218.0,25.0,91.0,13.0,1
-95.0,-47.0,221.0,34.0,89.0,9.0,1
-97.0,-46.0,219.0,35.0,85.0,11.0,1
-98.0,-46.0,218.0,31.0,86.0,10.0,1
-99.0,-45.0,220.0,26.0,88.0,8.0,1
-101.0,-46.0,223.0,23.0,87.0,9.0,1
-96.0,-42.0,220.0,22.0,86.0,9.0,1
-94.0,-47.0,225.0,19.0,88.0,8.0,1
-98.0,-46.0,220.0,13.0,91.0,5.0,1
-98.0,-45.0,225.0,8.0,94.0,3.0,1
-97.0,-48.0,227.0,3.0,94.0,0.0,1
-96.0,-46.0,222.0,-1.0,95.0,2.0,1
-98.0,-46.0,224.0,-2.0,96.0,4.0,1
-96.0,-46.0,225.0,-4.0,96.0,4.0,1
-96.0,-45.0,220.0,-3.0,97.0,4.0,1
-97.0,-44.0,223.0,-3.0,95.0,4.0,1
-100.0,-43.0,224.0,-3.0,94.0,4.0,1
-101.0,-43.0,223.0,-2.0,94.0,3.0,1
-96.0,-42.0,222.0,-4.0,91.0,1.0,1
-100.0,-47.0,220.0,-6.0,87.0,-2.0,1
-100.0,-45.0,222.0,-6.0,88.0,1.0,1
-102.0,-43.0,215.0,-9.0,92.0,2.0,1
-98.0,-45.0,222.0,-13.0,91.0,1.0,1
-99.0,-48.0,223.0,-12.0,90.0,0.0,1
-97.0,-45.0,216.0,-17.0,91.0,-1.0,1
-99.0,-45.0,220.0,-19.0,90.0,-3.0,1
-97.0,-47.0,222.0,-23.0,90.0,-2.0,1
-98.0,-47.0,223.0,-26.0,86.0,-2.0,1
-99.0,-50.0,219.0,-27.0,83.0,-3.0,1
-100.0,-47.0,220.0,-29.0,79.0,-2.0,1
-100.0,-48.0,223.0,-29.0,79.0,-1.0,1
-101.0,-46.0,219.0,-26.0,76.0,0.0,1
-97.0,-47.0,221.0,-24.0,75.0,-2.0,1
-99.0,-46.0,216.0,-21.0,74.0,-1.0,1
-100.0,-48.0,221.0,-18.0,76.0,-2.0,1
-100.0,-48.0,218.0,-17.0,80.0,-1.0,1
-100.0,-47.0,222.0,-16.0,80.0,0.0,1
-98.0,-48.0,223.0,-16.0,80.0,1.0,1
-97.0,-50.0,222.0,-17.0,81.0,0.0,1
-100.0,-44.0,224.0,-16.0,80.0,-1.0,1
-99.0,-49.0,221.0,-17.0,78.0,-2.0,1
-100.0,-44.0,218.0,-18.0,76.0,-2.0,1
-98.0,-48.0,223.0,-21.0,74.0,-4.0,1
-99.0,-48.0,221.0,-24.0,73.0,-6.0,1
-99.0,-49.0,219.0,-24.0,73.0,-6.0,1
-100.0,-47.0,223.0,-24.0,74.0,-6.0,1
-102.0,-45.0,222.0,-24.0,80.0,-3.0,1
-99.0,-46.0,220.0,-20.0,84.0,-2.0,1
-100.0,-48.0,222.0,-16.0,91.0,0.0,1
-98.0,-49.0,222.0,-14.0,96.0,1.0,1
-98.0,-45.0,224.0,-13.0,99.0,1.0,1
-97.0,-47.0,219.0,-10.0,101.0,3.0,1
-101.0,-46.0,216.0,-8.0,101.0,3.0,1
-94.0,-47.0,220.0,-6.0,101.0,4.0,1
-97.0,-49.0,220.0,-6.0,101.0,5.0,1
-98.0,-45.0,219.0,-4.0,99.0,6.0,1
-99.0,-46.0,222.0,0.0,97.0,5.0,1
-100.0,-49.0,221.0,3.0,97.0,3.0,1
-99.0,-48.0,224.0,4.0,96.0,2.0,1
-99.0,-48.0,220.0,5.0,93.0,0.0,1
-99.0,-49.0,220.0,5.0,90.0,-2.0,1
-102.0,-47.0,220.0,6.0,89.0,-4.0,1
-97.0,-47.0,218.0,5.0,88.0,-5.0,1
-98.0,-47.0,222.0,5.0,86.0,-5.0,1
-97.0,-47.0,220.0,5.0,83.0,-7.0,1
-100.0,-47.0,217.0,4.0,81.0,-7.0,1
-100.0,-45.0,221.0,3.0,80.0,-5.0,1
-101.0,-42.0,219.0,2.0,78.0,-5.0,1
-99.0,-45.0,218.0,1.0,76.0,-4.0,1
-100.0,-45.0,220.0,-1.0,75.0,-3.0,1
-101.0,-47.0,219.0,-3.0,75.0,-1.0,1
-98.0,-43.0,220.0,-4.0,79.0,0.0,1
-98.0,-46.0,218.0,-6.0,81.0,1.0,1
-97.0,-47.0,219.0,-8.0,82.0,1.0,1
-101.0,-44.0,218.0,-9.0,84.0,2.0,1
-101.0,-43.0,220.0,-9.0,84.0,2.0,1
-100.0,-47.0,219.0,-9.0,85.0,2.0,1
-100.0,-48.0,218.0,-11.0,82.0,4.0,1
-98.0,-46.0,220.0,-12.0,82.0,2.0,1
-104.0,-44.0,220.0,-12.0,80.0,0.0,1
-104.0,-47.0,222.0,-14.0,79.0,0.0,1
-100.0,-47.0,221.0,-17.0,78.0,-1.0,1
-99.0,-45.0,227.0,-19.0,75.0,0.0,1
-101.0,-45.0,220.0,-18.0,75.0,-1.0,1
-96.0,-48.0,222.0,-20.0,75.0,-3.0,1
-100.0,-48.0,223.0,-21.0,75.0,-3.0,1
-101.0,-50.0,216.0,-22.0,76.0,-3.0,1
-100.0,-47.0,219.0,-22.0,74.0,-1.0,1
-100.0,-47.0,223.0,-23.0,75.0,0.0,1
-97.0,-49.0,220.0,-22.0,75.0,-2.0,1
-98.0,-49.0,219.0,-23.0,71.0,-1.0,1
-98.0,-49.0,222.0,-22.0,72.0,-3.0,1
-102.0,-48.0,222.0,-19.0,69.0,-2.0,1
-101.0,-47.0,219.0,-16.0,70.0,-2.0,1
-100.0,-43.0,224.0,-13.0,72.0,-1.0,1
-101.0,-45.0,223.0,-11.0,74.0,0.0,1
-102.0,-44.0,223.0,-5.0,76.0,-1.0,1
-99.0,-46.0,221.0,-4.0,76.0,2.0,1
-99.0,-45.0,219.0,-2.0,78.0,4.0,1
-100.0,-47.0,222.0,-3.0,78.0,4.0,1
-102.0,-48.0,219.0,-2.0,79.0,4.0,1
-100.0,-45.0,225.0,-4.0,80.0,3.0,1
-100.0,-46.0,218.0,-4.0,81.0,3.0,1
-101.0,-47.0,221.0,-5.0,80.0,1.0,1
-102.0,-47.0,220.0,-7.0,77.0,0.0,1
-102.0,-45.0,220.0,-10.0,75.0,0.0,1
-102.0,-44.0,222.0,-13.0,75.0,0.0,1
-101.0,-48.0,221.0,-14.0,74.0,-2.0,1
-100.0,-48.0,218.0,-14.0,73.0,-2.0,1
-103.0,-46.0,218.0,-15.0,75.0,-3.0,1
-102.0,-44.0,221.0,-13.0,75.0,-4.0,1
-101.0,-47.0,220.0,-11.0,74.0,-4.0,1
-98.0,-46.0,217.0,-10.0,75.0,-3.0,1
-101.0,-45.0,223.0,-9.0,76.0,-3.0,1
-102.0,-44.0,218.0,-9.0,78.0,-2.0,1
-97.0,-49.0,216.0,-7.0,75.0,-2.0,1
-99.0,-45.0,220.0,-10.0,77.0,-2.0,1
-99.0,-46.0,223.0,-11.0,77.0,0.0,1
-100.0,-47.0,225.0,-14.0,77.0,1.0,1
-98.0,-48.0,221.0,-20.0,78.0,2.0,1
-101.0,-49.0,224.0,-23.0,80.0,6.0,1
-103.0,-49.0,225.0,-27.0,79.0,8.0,1
-103.0,-45.0,220.0,-30.0,79.0,10.0,1
-103.0,-47.0,220.0,-29.0,78.0,12.0,1
-107.0,-47.0,220.0,-30.0,81.0,14.0,1
-104.0,-49.0,222.0,-26.0,85.0,15.0,1
-106.0,-43.0,224.0,-22.0,91.0,16.0,1
-105.0,-45.0,223.0,-17.0,94.0,18.0,1
-106.0,-41.0,223.0,-13.0,94.0,21.0,1
-102.0,-45.0,220.0,-13.0,94.0,22.0,1
-99.0,-49.0,224.0,-14.0,92.0,23.0,1
-98.0,-51.0,218.0,-18.0,86.0,20.0,1
-99.0,-49.0,225.0,-22.0,79.0,19.0,1
-97.0,-52.0,216.0,-25.0,75.0,16.0,1
-99.0,-47.0,218.0,-24.0,74.0,14.0,1
-97.0,-49.0,217.0,-21.0,75.0,13.0,1
-99.0,-48.0,215.0,-12.0,79.0,11.0,1
-97.0,-51.0,221.0,1.0,82.0,10.0,1
-98.0,-43.0,215.0,10.0,85.0,11.0,1
-99.0,-42.0,217.0,20.0,86.0,13.0,1
-100.0,-40.0,220.0,27.0,88.0,13.0,1
-100.0,-42.0,221.0,32.0,91.0,13.0,1
-100.0,-39.0,218.0,32.0,96.0,13.0,1
-98.0,-42.0,221.0,27.0,97.0,12.0,1
-100.0,-43.0,221.0,20.0,97.0,10.0,1
-101.0,-39.0,217.0,14.0,96.0,8.0,1
-100.0,-42.0,222.0,5.0,96.0,4.0,1
-102.0,-43.0,219.0,-2.0,96.0,3.0,1
-101.0,-44.0,222.0,-6.0,98.0,1.0,1
-103.0,-49.0,218.0,-9.0,102.0,0.0,1
-103.0,-50.0,222.0,-8.0,108.0,0.0,1
-105.0,-50.0,221.0,-5.0,118.0,-1.0,1
-106.0,-54.0,217.0,1.0,132.0,-2.0,1
-113.0,-53.0,214.0,15.0,158.0,-1.0,1
-112.0,-57.0,216.0,36.0,190.0,-2.0,1
-112.0,-64.0,213.0,66.0,229.0,1.0,1
-114.0,-66.0,213.0,101.0,270.0,4.0,1
-110.0,-64.0,213.0,143.0,315.0,9.0,1
-106.0,-65.0,217.0,197.0,358.0,15.0,1
-109.0,-58.0,218.0,254.0,396.0,25.0,1
-109.0,-56.0,225.0,305.0,425.0,35.0,1
-105.0,-49.0,234.0,348.0,444.0,43.0,1
-100.0,-44.0,229.0,376.0,450.0,54.0,1
-98.0,-38.0,233.0,386.0,444.0,61.0,1
-99.0,-30.0,233.0,384.0,417.0,67.0,1
-97.0,-30.0,232.0,361.0,375.0,73.0,1
-97.0,-30.0,226.0,333.0,328.0,75.0,1
-96.0,-25.0,220.0,303.0,280.0,73.0,1
-94.0,-23.0,218.0,278.0,235.0,70.0,1
-101.0,-19.0,211.0,254.0,196.0,63.0,1
-98.0,-20.0,209.0,228.0,160.0,58.0,1
-99.0,-22.0,208.0,202.0,133.0,53.0,1
-107.0,-22.0,207.0,172.0,113.0,46.0,1
-104.0,-21.0,204.0,144.0,99.0,39.0,1
-112.0,-22.0,211.0,115.0,88.0,31.0,1
-110.0,-27.0,210.0,93.0,76.0,26.0,1
-112.0,-30.0,213.0,73.0,69.0,21.0,1
-111.0,-32.0,217.0,53.0,63.0,18.0,1
-114.0,-35.0,217.0,37.0,63.0,15.0,1
-112.0,-40.0,218.0,20.0,66.0,15.0,1
-111.0,-39.0,220.0,9.0,68.0,15.0,1
-111.0,-42.0,222.0,4.0,73.0,14.0,1
-113.0,-40.0,219.0,0.0,79.0,14.0,1
-109.0,-42.0,227.0,1.0,84.0,15.0,1
-107.0,-41.0,224.0,0.0,84.0,17.0,1
-109.0,-39.0,225.0,-1.0,84.0,17.0,1
-107.0,-37.0,222.0,-2.0,80.0,15.0,1
-109.0,-38.0,222.0,-4.0,78.0,14.0,1
-108.0,-37.0,219.0,-4.0,75.0,11.0,1
-108.0,-36.0,219.0,-3.0,72.0,6.0,1
-106.0,-36.0,217.0,-1.0,66.0,2.0,1
-105.0,-34.0,219.0,-3.0,63.0,-2.0,1
-111.0,-35.0,218.0,-4.0,60.0,-4.0,1
-110.0,-36.0,217.0,-8.0,60.0,-6.0,1
-111.0,-33.0,218.0,-13.0,58.0,-6.0,1
-111.0,-35.0,219.0,-18.0,57.0,-5.0,1
-113.0,-34.0,217.0,-20.0,55.0,-5.0,1
-112.0,-35.0,213.0,-22.0,52.0,-4.0,1
-111.0,-34.0,215.0,-25.0,49.0,-3.0,1
-111.0,-34.0,217.0,-25.0,48.0,0.0,1
-111.0,-37.0,217.0,-24.0,48.0,-3.0,1
-110.0,-36.0,216.0,-23.0,48.0,-4.0,1
-111.0,-34.0,216.0,-17.0,47.0,-6.0,1
-109.0,-33.0,214.0,-11.0,48.0,-10.0,1
-110.0,-32.0,217.0,-6.0,48.0,-10.0,1
-113.0,-32.0,220.0,-2.0,47.0,-12.0,1
-110.0,-34.0,219.0,1.0,47.0,-11.0,1
-109.0,-34.0,218.0,2.0,45.0,-13.0,1
-110.0,-33.0,219.0,5.0,45.0,-11.0,1
-107.0,-33.0,218.0,5.0,45.0,-10.0,1
-107.0,-35.0,220.0,5.0,45.0,-11.0,1
-108.0,-34.0,221.0,4.0,47.0,-10.0,1
-111.0,-36.0,215.0,3.0,47.0,-9.0,1
-107.0,-39.0,220.0,0.0,50.0,-9.0,1
-109.0,-37.0,219.0,-1.0,51.0,-9.0,1
-106.0,-38.0,217.0,-1.0,54.0,-6.0,1
-107.0,-37.0,221.0,-3.0,56.0,-7.0,1
-107.0,-36.0,221.0,-4.0,55.0,-6.0,1
-109.0,-39.0,215.0,-2.0,54.0,-7.0,1
-108.0,-37.0,218.0,-1.0,54.0,-6.0,1
-109.0,-36.0,217.0,0.0,53.0,-5.0,1
-107.0,-38.0,218.0,0.0,52.0,-4.0,1
-108.0,-37.0,218.0,1.0,51.0,-1.0,1
-107.0,-34.0,219.0,1.0,56.0,-3.0,1
-110.0,-32.0,215.0,3.0,58.0,1.0,1
-107.0,-32.0,219.0,2.0,61.0,2.0,1
-106.0,-32.0,220.0,1.0,64.0,4.0,1
-110.0,-35.0,216.0,-1.0,64.0,5.0,1
-105.0,-36.0,220.0,-2.0,63.0,5.0,1
-105.0,-37.0,221.0,-1.0,61.0,4.0,1
-107.0,-37.0,219.0,-1.0,60.0,2.0,1
-107.0,-35.0,220.0,2.0,59.0,3.0,1
-106.0,-35.0,218.0,9.0,59.0,4.0,1
-105.0,-34.0,220.0,16.0,59.0,3.0,1
-106.0,-35.0,217.0,21.0,59.0,4.0,1
-107.0,-33.0,219.0,22.0,56.0,4.0,1
-105.0,-33.0,215.0,20.0,56.0,3.0,1
-106.0,-32.0,217.0,19.0,56.0,3.0,1
-103.0,-36.0,221.0,18.0,53.0,4.0,1
-102.0,-32.0,221.0,15.0,50.0,3.0,1
-104.0,-35.0,217.0,18.0,51.0,3.0,1
-104.0,-32.0,219.0,17.0,51.0,4.0,1
-105.0,-34.0,222.0,17.0,50.0,3.0,1
-106.0,-35.0,220.0,17.0,51.0,4.0,1
-106.0,-36.0,218.0,15.0,51.0,7.0,1
-106.0,-33.0,218.0,16.0,52.0,7.0,1
-104.0,-37.0,218.0,16.0,54.0,8.0,1
-105.0,-39.0,214.0,16.0,52.0,8.0,1
-106.0,-35.0,217.0,15.0,52.0,8.0,1
-105.0,-38.0,220.0,14.0,53.0,9.0,1
-105.0,-37.0,219.0,9.0,51.0,11.0,1
-107.0,-34.0,221.0,5.0,48.0,11.0,1
-105.0,-32.0,223.0,2.0,44.0,10.0,1
-108.0,-36.0,218.0,-1.0,41.0,10.0,1
-104.0,-37.0,217.0,-4.0,44.0,8.0,1
-109.0,-35.0,224.0,-9.0,41.0,8.0,1
-106.0,-36.0,225.0,-14.0,37.0,3.0,1
-109.0,-36.0,222.0,-22.0,34.0,0.0,1
-110.0,-33.0,219.0,-29.0,36.0,-1.0,1
-110.0,-38.0,222.0,-35.0,39.0,-2.0,1
-108.0,-35.0,220.0,-39.0,45.0,-2.0,1
-108.0,-41.0,225.0,-37.0,51.0,-4.0,1
-109.0,-40.0,220.0,-32.0,59.0,-3.0,1
-108.0,-40.0,221.0,-27.0,64.0,-3.0,1
-106.0,-38.0,221.0,-18.0,69.0,-2.0,1
-106.0,-36.0,222.0,-7.0,79.0,-2.0,1
-109.0,-39.0,223.0,2.0,93.0,2.0,1
-109.0,-40.0,220.0,9.0,108.0,1.0,1
-105.0,-39.0,222.0,18.0,122.0,1.0,1
-110.0,-40.0,225.0,26.0,140.0,1.0,1
-113.0,-38.0,222.0,34.0,152.0,0.0,1
-111.0,-45.0,224.0,44.0,166.0,-1.0,1
-109.0,-43.0,228.0,51.0,173.0,-3.0,1
-110.0,-40.0,221.0,57.0,180.0,-2.0,1
-106.0,-39.0,224.0,60.0,189.0,-1.0,1
-109.0,-37.0,221.0,69.0,200.0,2.0,1
-108.0,-37.0,221.0,79.0,204.0,4.0,1
-106.0,-36.0,220.0,89.0,202.0,8.0,1
-106.0,-33.0,221.0,100.0,201.0,12.0,1
-107.0,-33.0,224.0,110.0,197.0,19.0,1
-104.0,-33.0,222.0,114.0,190.0,23.0,1
-106.0,-32.0,222.0,110.0,181.0,22.0,1
-101.0,-30.0,214.0,103.0,172.0,21.0,1
-105.0,-29.0,221.0,94.0,166.0,23.0,1
-107.0,-30.0,220.0,78.0,156.0,21.0,1
-107.0,-28.0,221.0,66.0,152.0,24.0,1
-107.0,-27.0,225.0,58.0,149.0,28.0,1
-108.0,-29.0,221.0,51.0,147.0,35.0,1
-107.0,-24.0,219.0,43.0,142.0,41.0,1
-108.0,-27.0,224.0,33.0,136.0,46.0,1
-111.0,-27.0,220.0,25.0,130.0,48.0,1
-109.0,-27.0,219.0,19.0,122.0,47.0,1
-114.0,-27.0,214.0,12.0,113.0,44.0,1
-115.0,-30.0,217.0,8.0,106.0,42.0,1
-116.0,-32.0,215.0,4.0,102.0,34.0,1
-114.0,-32.0,215.0,-1.0,99.0,29.0,1
-113.0,-31.0,215.0,-6.0,96.0,26.0,1
-114.0,-38.0,214.0,-6.0,96.0,22.0,1
-116.0,-36.0,217.0,-5.0,99.0,20.0,1
-116.0,-36.0,216.0,1.0,105.0,19.0,1
-116.0,-38.0,215.0,13.0,113.0,17.0,1
-115.0,-38.0,214.0,27.0,123.0,17.0,1
-113.0,-37.0,215.0,45.0,131.0,14.0,1
-109.0,-35.0,217.0,64.0,140.0,14.0,1
-105.0,-32.0,214.0,80.0,153.0,9.0,1
-108.0,-33.0,216.0,94.0,165.0,11.0,1
-110.0,-30.0,216.0,99.0,175.0,16.0,1
-112.0,-30.0,216.0,102.0,178.0,21.0,1
-111.0,-29.0,219.0,106.0,181.0,25.0,1
-109.0,-28.0,218.0,107.0,175.0,31.0,1
-111.0,-29.0,214.0,110.0,165.0,32.0,1
-108.0,-25.0,219.0,111.0,151.0,33.0,1
-111.0,-28.0,215.0,111.0,137.0,29.0,1
-111.0,-26.0,214.0,108.0,127.0,25.0,1
-107.0,-26.0,216.0,103.0,118.0,23.0,1
-110.0,-22.0,216.0,95.0,108.0,18.0,1
-109.0,-24.0,217.0,84.0,101.0,15.0,1
-111.0,-23.0,216.0,71.0,92.0,12.0,1
-112.0,-21.0,215.0,59.0,88.0,10.0,1
-111.0,-24.0,218.0,45.0,79.0,9.0,1
-111.0,-21.0,216.0,31.0,71.0,7.0,1
-110.0,-24.0,213.0,19.0,63.0,4.0,1
-112.0,-22.0,218.0,7.0,57.0,2.0,1
-109.0,-25.0,219.0,-6.0,54.0,0.0,1
-111.0,-26.0,215.0,-15.0,53.0,0.0,1
-111.0,-26.0,216.0,-27.0,49.0,-1.0,1
-113.0,-26.0,215.0,-36.0,47.0,-4.0,1
-114.0,-28.0,222.0,-45.0,42.0,-5.0,1
-112.0,-28.0,215.0,-55.0,37.0,-6.0,1
-115.0,-28.0,221.0,-61.0,34.0,-8.0,1
-113.0,-30.0,216.0,-66.0,28.0,-7.0,1
-112.0,-28.0,219.0,-70.0,25.0,-9.0,1
-114.0,-26.0,216.0,-71.0,20.0,-10.0,1
-115.0,-26.0,217.0,-72.0,19.0,-11.0,1
-113.0,-26.0,218.0,-74.0,15.0,-12.0,1
-115.0,-27.0,220.0,-73.0,15.0,-13.0,1
-114.0,-28.0,219.0,-73.0,14.0,-12.0,1
-113.0,-27.0,219.0,-74.0,13.0,-13.0,1
-116.0,-28.0,219.0,-75.0,13.0,-12.0,1
-115.0,-32.0,224.0,-74.0,13.0,-13.0,1
-115.0,-33.0,220.0,-73.0,13.0,-13.0,1
-113.0,-36.0,224.0,-71.0,18.0,-15.0,1
-114.0,-36.0,222.0,-67.0,22.0,-17.0,1
-113.0,-35.0,220.0,-62.0,28.0,-18.0,1
-113.0,-36.0,223.0,-56.0,35.0,-17.0,1
-114.0,-34.0,223.0,-51.0,43.0,-19.0,1
-112.0,-32.0,222.0,-43.0,50.0,-18.0,1
-115.0,-29.0,219.0,-36.0,57.0,-16.0,1
-109.0,-29.0,223.0,-34.0,65.0,-14.0,1
-108.0,-27.0,221.0,-34.0,69.0,-12.0,1
-109.0,-29.0,219.0,-35.0,72.0,-9.0,1
-112.0,-27.0,219.0,-37.0,69.0,-8.0,1
-109.0,-30.0,219.0,-35.0,66.0,-4.0,1
-109.0,-27.0,218.0,-33.0,58.0,-6.0,1
-111.0,-27.0,214.0,-30.0,51.0,-6.0,1
-111.0,-29.0,215.0,-25.0,45.0,-4.0,1
-112.0,-29.0,219.0,-21.0,38.0,-5.0,1
-109.0,-27.0,216.0,-19.0,34.0,-6.0,1
-111.0,-27.0,216.0,-19.0,33.0,-7.0,1
-112.0,-28.0,219.0,-21.0,32.0,-8.0,1
-111.0,-27.0,214.0,-25.0,30.0,-10.0,1
-112.0,-29.0,218.0,-29.0,27.0,-10.0,1
-106.0,-28.0,214.0,-34.0,26.0,-9.0,1
-108.0,-29.0,215.0,-36.0,24.0,-10.0,1
-110.0,-31.0,217.0,-39.0,24.0,-9.0,1
-110.0,-28.0,216.0,-42.0,22.0,-9.0,1
-110.0,-30.0,219.0,-45.0,24.0,-10.0,1
-110.0,-31.0,216.0,-50.0,21.0,-12.0,1
-111.0,-28.0,220.0,-53.0,21.0,-13.0,1
-109.0,-27.0,214.0,-60.0,15.0,-12.0,1
-110.0,-28.0,221.0,-64.0,10.0,-13.0,1
-111.0,-30.0,219.0,-73.0,3.0,-14.0,1
-111.0,-31.0,222.0,-80.0,-4.0,-13.0,1
-109.0,-29.0,220.0,-89.0,-10.0,-14.0,1
-107.0,-32.0,221.0,-99.0,-17.0,-14.0,1
-108.0,-30.0,221.0,-109.0,-22.0,-13.0,1
-108.0,-30.0,217.0,-119.0,-25.0,-13.0,1
-109.0,-32.0,219.0,-128.0,-33.0,-14.0,1
-107.0,-32.0,217.0,-139.0,-38.0,-16.0,1
-109.0,-32.0,216.0,-146.0,-41.0,-16.0,1
-108.0,-35.0,219.0,-153.0,-44.0,-17.0,1
-106.0,-35.0,216.0,-156.0,-47.0,-18.0,1
-107.0,-34.0,216.0,-155.0,-47.0,-18.0,1
-109.0,-35.0,217.0,-152.0,-47.0,-19.0,1
-107.0,-37.0,215.0,-146.0,-45.0,-19.0,1
-109.0,-38.0,220.0,-138.0,-43.0,-18.0,1
-105.0,-38.0,221.0,-133.0,-42.0,-18.0,1
-107.0,-37.0,220.0,-129.0,-38.0,-17.0,1
-106.0,-35.0,219.0,-125.0,-36.0,-19.0,1
-108.0,-35.0,217.0,-122.0,-33.0,-19.0,1
-106.0,-36.0,219.0,-120.0,-30.0,-18.0,1
-107.0,-35.0,221.0,-116.0,-29.0,-20.0,1
-103.0,-36.0,221.0,-113.0,-28.0,-23.0,1
-109.0,-31.0,219.0,-112.0,-27.0,-25.0,1
-106.0,-35.0,221.0,-111.0,-26.0,-26.0,1
-106.0,-31.0,219.0,-108.0,-23.0,-25.0,1
-108.0,-32.0,220.0,-107.0,-20.0,-25.0,1
-107.0,-34.0,218.0,-105.0,-15.0,-25.0,1
-109.0,-35.0,217.0,-103.0,-8.0,-24.0,1
-105.0,-36.0,220.0,-100.0,-3.0,-22.0,1
-104.0,-35.0,219.0,-98.0,5.0,-23.0,1
-106.0,-37.0,220.0,-96.0,11.0,-20.0,1
-104.0,-38.0,220.0,-94.0,15.0,-21.0,1
-109.0,-35.0,220.0,-94.0,18.0,-20.0,1
-105.0,-38.0,221.0,-90.0,21.0,-19.0,1
-104.0,-36.0,223.0,-87.0,24.0,-16.0,1
-104.0,-36.0,221.0,-83.0,28.0,-15.0,1
-106.0,-39.0,222.0,-82.0,27.0,-14.0,1
-105.0,-41.0,219.0,-81.0,30.0,-14.0,1
-104.0,-39.0,223.0,-82.0,32.0,-14.0,1
-104.0,-40.0,220.0,-80.0,34.0,-10.0,1
-102.0,-41.0,220.0,-75.0,38.0,-9.0,1
-103.0,-41.0,222.0,-71.0,41.0,-7.0,1
-105.0,-38.0,224.0,-67.0,42.0,-5.0,1
-106.0,-38.0,220.0,-65.0,43.0,-4.0,1
-104.0,-36.0,217.0,-64.0,43.0,-4.0,1
-103.0,-36.0,217.0,-64.0,43.0,-3.0,1
-106.0,-37.0,217.0,-65.0,44.0,-3.0,1
-106.0,-40.0,216.0,-65.0,45.0,-3.0,1
-108.0,-37.0,221.0,-65.0,47.0,-4.0,1
-104.0,-37.0,215.0,-65.0,48.0,-5.0,1
-108.0,-36.0,217.0,-65.0,50.0,-6.0,1
-104.0,-36.0,221.0,-66.0,51.0,-7.0,1
-104.0,-40.0,220.0,-66.0,54.0,-8.0,1
-103.0,-39.0,220.0,-64.0,57.0,-9.0,1
-105.0,-40.0,225.0,-64.0,57.0,-11.0,1
-104.0,-38.0,221.0,-62.0,58.0,-10.0,1
-107.0,-36.0,222.0,-59.0,57.0,-10.0,1
-107.0,-38.0,221.0,-59.0,55.0,-8.0,1
-107.0,-35.0,217.0,-59.0,55.0,-9.0,1
-106.0,-36.0,218.0,-59.0,55.0,-10.0,1
-107.0,-37.0,219.0,-60.0,55.0,-10.0,1
-105.0,-39.0,222.0,-62.0,55.0,-11.0,1
-106.0,-39.0,218.0,-63.0,57.0,-12.0,1
-105.0,-38.0,219.0,-64.0,59.0,-12.0,1
-110.0,-37.0,213.0,-65.0,61.0,-12.0,1
-105.0,-40.0,214.0,-64.0,64.0,-12.0,1
-107.0,-45.0,218.0,-64.0,64.0,-14.0,1
-107.0,-41.0,217.0,-62.0,66.0,-13.0,1
-108.0,-40.0,221.0,-61.0,66.0,-14.0,1
-105.0,-42.0,215.0,-60.0,66.0,-14.0,1
-107.0,-40.0,216.0,-59.0,66.0,-15.0,1
-106.0,-42.0,219.0,-60.0,65.0,-16.0,1
-105.0,-40.0,220.0,-57.0,60.0,-15.0,1
-107.0,-40.0,223.0,-57.0,58.0,-16.0,1
-107.0,-43.0,218.0,-56.0,56.0,-16.0,1
-103.0,-41.0,217.0,-55.0,55.0,-15.0,1
-106.0,-42.0,221.0,-55.0,53.0,-14.0,1
-106.0,-41.0,221.0,-53.0,52.0,-15.0,1
-105.0,-41.0,216.0,-52.0,52.0,-15.0,1
-104.0,-42.0,218.0,-50.0,53.0,-15.0,1
-106.0,-40.0,217.0,-51.0,55.0,-14.0,1
-105.0,-38.0,218.0,-49.0,57.0,-13.0,1
-107.0,-42.0,219.0,-48.0,59.0,-14.0,1
-104.0,-42.0,220.0,-46.0,60.0,-13.0,1
-105.0,-40.0,220.0,-45.0,63.0,-13.0,1
-105.0,-41.0,221.0,-44.0,64.0,-12.0,1
-99.0,-39.0,225.0,-43.0,65.0,-11.0,1
-104.0,-41.0,217.0,-43.0,67.0,-10.0,1
-107.0,-40.0,219.0,-41.0,66.0,-11.0,1
-106.0,-41.0,218.0,-40.0,66.0,-10.0,1
-104.0,-41.0,221.0,-40.0,64.0,-11.0,1
-104.0,-40.0,222.0,-39.0,66.0,-12.0,1
-104.0,-41.0,219.0,-39.0,64.0,-11.0,1
-105.0,-43.0,220.0,-40.0,64.0,-12.0,1
-103.0,-42.0,221.0,-40.0,64.0,-11.0,1
-102.0,-43.0,218.0,-39.0,60.0,-13.0,1
-104.0,-44.0,216.0,-36.0,57.0,-12.0,1
-104.0,-44.0,215.0,-33.0,56.0,-14.0,1
-106.0,-44.0,220.0,-28.0,54.0,-13.0,1
-104.0,-44.0,217.0,-25.0,55.0,-15.0,1
-104.0,-44.0,220.0,-20.0,55.0,-17.0,1
-107.0,-39.0,219.0,-16.0,56.0,-16.0,1
-107.0,-42.0,218.0,-11.0,57.0,-16.0,1
-104.0,-41.0,215.0,-9.0,59.0,-12.0,1
-104.0,-44.0,217.0,-8.0,60.0,-10.0,1
-108.0,-41.0,217.0,-7.0,63.0,-8.0,1
-102.0,-43.0,220.0,-7.0,68.0,-5.0,1
-105.0,-43.0,217.0,-4.0,70.0,-2.0,1
-104.0,-42.0,221.0,-3.0,73.0,-1.0,1
-105.0,-42.0,222.0,-2.0,74.0,3.0,1
-105.0,-40.0,223.0,-1.0,74.0,4.0,1
-102.0,-42.0,221.0,-1.0,75.0,4.0,1
-107.0,-40.0,221.0,0.0,73.0,3.0,1
-106.0,-41.0,219.0,1.0,71.0,1.0,1
-106.0,-41.0,222.0,1.0,69.0,0.0,1
-104.0,-41.0,222.0,-1.0,68.0,-1.0,1
-104.0,-42.0,219.0,-2.0,67.0,-2.0,1
-103.0,-40.0,218.0,-3.0,64.0,-3.0,1
-108.0,-38.0,206.0,-5.0,65.0,-5.0,1
-102.0,-42.0,224.0,-8.0,66.0,-6.0,1
-104.0,-40.0,222.0,-10.0,64.0,-7.0,1
-104.0,-39.0,222.0,-12.0,64.0,-7.0,1
-103.0,-38.0,223.0,-13.0,63.0,-7.0,1
-105.0,-43.0,223.0,-14.0,65.0,-8.0,1
-102.0,-44.0,221.0,-14.0,67.0,-6.0,1
-100.0,-41.0,214.0,-13.0,69.0,-6.0,1
-105.0,-42.0,218.0,-13.0,70.0,-6.0,1
-103.0,-38.0,220.0,-13.0,71.0,-4.0,1
-104.0,-43.0,219.0,-12.0,71.0,-3.0,1
-100.0,-36.0,227.0,-13.0,70.0,-4.0,1
-104.0,-41.0,219.0,-13.0,70.0,-4.0,1
-103.0,-42.0,218.0,-13.0,68.0,-5.0,1
-103.0,-41.0,219.0,-13.0,69.0,-4.0,1
-105.0,-44.0,221.0,-13.0,68.0,-3.0,1
-105.0,-38.0,221.0,-12.0,69.0,-4.0,1
-105.0,-38.0,214.0,-11.0,68.0,-6.0,1
-100.0,-41.0,219.0,-11.0,71.0,-5.0,1
-102.0,-40.0,218.0,-9.0,70.0,-6.0,1
-107.0,-43.0,216.0,-10.0,72.0,-7.0,1
-104.0,-41.0,221.0,-11.0,71.0,-9.0,1
-105.0,-39.0,222.0,-12.0,69.0,-10.0,1
-105.0,-38.0,219.0,-12.0,69.0,-9.0,1
-106.0,-43.0,219.0,-13.0,69.0,-8.0,1
-103.0,-41.0,220.0,-14.0,68.0,-6.0,1
-102.0,-43.0,218.0,-14.0,68.0,-4.0,1
-106.0,-40.0,220.0,-13.0,69.0,-4.0,1
-106.0,-43.0,219.0,-11.0,70.0,-3.0,1
-106.0,-38.0,219.0,-8.0,71.0,-4.0,1
-105.0,-44.0,220.0,-6.0,71.0,-5.0,1
-104.0,-42.0,220.0,-4.0,72.0,-6.0,1
-105.0,-42.0,220.0,-3.0,73.0,-5.0,1
-102.0,-45.0,218.0,-1.0,73.0,-5.0,1
-104.0,-40.0,222.0,-1.0,72.0,-5.0,1
-104.0,-40.0,222.0,1.0,71.0,-5.0,1
-104.0,-42.0,216.0,1.0,71.0,-4.0,1
-103.0,-42.0,220.0,-1.0,69.0,-5.0,1
-105.0,-45.0,222.0,-2.0,67.0,-5.0,1
-106.0,-42.0,219.0,-4.0,66.0,-3.0,1
-101.0,-43.0,221.0,-5.0,66.0,-3.0,1
-99.0,-40.0,218.0,-4.0,67.0,-2.0,1
-101.0,-42.0,217.0,-5.0,68.0,-3.0,1
-104.0,-40.0,222.0,-3.0,69.0,-3.0,1
-103.0,-38.0,223.0,-4.0,67.0,-2.0,1
-102.0,-43.0,222.0,-4.0,68.0,-2.0,1
-101.0,-44.0,219.0,-4.0,68.0,-2.0,1
-104.0,-42.0,226.0,-3.0,66.0,-1.0,1
-106.0,-40.0,222.0,-3.0,67.0,0.0,1
-104.0,-41.0,219.0,-1.0,65.0,1.0,1
-105.0,-38.0,219.0,-1.0,65.0,-1.0,1
-104.0,-42.0,219.0,0.0,64.0,-2.0,1
-105.0,-43.0,217.0,0.0,64.0,-4.0,1
-107.0,-41.0,219.0,-3.0,64.0,-4.0,1
-105.0,-40.0,220.0,-4.0,64.0,-5.0,1
-105.0,-38.0,219.0,-3.0,66.0,-3.0,1
-109.0,-40.0,219.0,-4.0,69.0,-2.0,1
-106.0,-41.0,223.0,-2.0,73.0,-1.0,1
-109.0,-38.0,220.0,0.0,75.0,-2.0,1
-107.0,-37.0,217.0,2.0,79.0,-1.0,1
-103.0,-40.0,221.0,2.0,81.0,0.0,1
-104.0,-41.0,218.0,4.0,81.0,-2.0,1
-105.0,-38.0,221.0,5.0,83.0,-1.0,1
-107.0,-41.0,218.0,4.0,86.0,-1.0,1
-104.0,-41.0,218.0,5.0,85.0,-2.0,1
-106.0,-43.0,221.0,5.0,82.0,-1.0,1
-105.0,-39.0,217.0,5.0,83.0,-2.0,1
-105.0,-40.0,221.0,5.0,81.0,-2.0,1
-107.0,-42.0,220.0,3.0,79.0,-3.0,1
-105.0,-37.0,220.0,3.0,77.0,-2.0,1
-105.0,-40.0,220.0,2.0,77.0,-2.0,1
-103.0,-42.0,219.0,0.0,76.0,-2.0,1
-103.0,-39.0,219.0,-2.0,75.0,-2.0,1
-103.0,-41.0,218.0,-5.0,76.0,-2.0,1
-105.0,-41.0,222.0,-9.0,75.0,-4.0,1
-104.0,-42.0,215.0,-11.0,77.0,-3.0,1
-103.0,-39.0,220.0,-12.0,76.0,-3.0,1
-104.0,-33.0,214.0,-12.0,76.0,-1.0,1
-105.0,-42.0,223.0,-13.0,76.0,-2.0,1
-103.0,-40.0,222.0,-10.0,77.0,-2.0,1
-101.0,-42.0,221.0,-9.0,76.0,-2.0,1
-104.0,-42.0,217.0,-9.0,75.0,-2.0,1
-103.0,-37.0,218.0,-8.0,75.0,-1.0,1
-105.0,-40.0,222.0,-9.0,75.0,-3.0,1
-107.0,-41.0,217.0,-8.0,75.0,-1.0,1
-106.0,-42.0,219.0,-10.0,77.0,-4.0,1
-104.0,-42.0,218.0,-7.0,78.0,-4.0,1
-107.0,-38.0,220.0,-9.0,79.0,-2.0,1
-104.0,-40.0,218.0,-8.0,80.0,-2.0,1
-105.0,-41.0,218.0,-7.0,80.0,-3.0,1
-105.0,-42.0,219.0,-6.0,77.0,-4.0,1
-107.0,-42.0,219.0,-5.0,75.0,-5.0,1
-110.0,-37.0,220.0,-1.0,74.0,-7.0,1
-105.0,-41.0,222.0,0.0,72.0,-10.0,1
-106.0,-40.0,218.0,1.0,71.0,-12.0,1
-104.0,-42.0,218.0,2.0,72.0,-12.0,1
-106.0,-36.0,220.0,5.0,70.0,-15.0,1
-105.0,-42.0,223.0,6.0,72.0,-12.0,1
-97.0,-38.0,220.0,6.0,74.0,-10.0,1
-107.0,-41.0,217.0,4.0,77.0,-9.0,1
-105.0,-39.0,222.0,2.0,78.0,-7.0,1
-105.0,-42.0,217.0,0.0,77.0,-6.0,1
-107.0,-40.0,218.0,-3.0,76.0,-8.0,1
-107.0,-39.0,220.0,-6.0,77.0,-6.0,1
-104.0,-41.0,218.0,-10.0,76.0,-6.0,1
-104.0,-42.0,217.0,-13.0,75.0,-5.0,1
-106.0,-39.0,219.0,-13.0,76.0,-1.0,1
-103.0,-43.0,221.0,-11.0,77.0,-2.0,1
-104.0,-42.0,219.0,-9.0,77.0,0.0,1
-104.0,-40.0,221.0,-5.0,77.0,3.0,1
-103.0,-40.0,216.0,-1.0,76.0,5.0,1
-105.0,-40.0,217.0,4.0,75.0,6.0,1
-102.0,-40.0,217.0,7.0,74.0,8.0,1
-104.0,-37.0,216.0,11.0,76.0,9.0,1
-105.0,-38.0,221.0,17.0,78.0,9.0,1
-101.0,-38.0,219.0,19.0,78.0,12.0,1
-105.0,-41.0,221.0,20.0,80.0,11.0,1
-104.0,-39.0,219.0,18.0,83.0,9.0,1
-103.0,-38.0,219.0,17.0,82.0,9.0,1
-105.0,-38.0,219.0,15.0,81.0,9.0,1
-104.0,-38.0,220.0,13.0,79.0,9.0,1
-106.0,-39.0,218.0,9.0,79.0,6.0,1
-104.0,-38.0,221.0,7.0,73.0,4.0,1
-108.0,-40.0,223.0,4.0,74.0,3.0,1
-106.0,-37.0,224.0,3.0,72.0,3.0,1
-106.0,-36.0,219.0,1.0,73.0,2.0,1
-104.0,-41.0,222.0,0.0,73.0,1.0,1
-105.0,-41.0,220.0,-2.0,73.0,1.0,1
-107.0,-40.0,222.0,-5.0,74.0,1.0,1
-103.0,-37.0,221.0,-7.0,75.0,-1.0,1
-106.0,-36.0,223.0,-10.0,76.0,-1.0,1
-103.0,-40.0,217.0,-9.0,78.0,-1.0,1
-105.0,-41.0,220.0,-11.0,78.0,-2.0,1
-104.0,-36.0,219.0,-10.0,79.0,-3.0,1
-105.0,-38.0,217.0,-13.0,80.0,-2.0,1
-105.0,-37.0,218.0,-14.0,80.0,-1.0,1
-105.0,-38.0,219.0,-15.0,80.0,-2.0,1
-106.0,-41.0,220.0,-15.0,80.0,-3.0,1
-103.0,-40.0,219.0,-17.0,81.0,-3.0,1
-106.0,-41.0,217.0,-17.0,80.0,-4.0,1
-107.0,-38.0,217.0,-18.0,78.0,-4.0,1
-106.0,-39.0,212.0,-18.0,77.0,-6.0,1
-109.0,-40.0,219.0,-19.0,74.0,-5.0,1
-104.0,-41.0,217.0,-18.0,72.0,-6.0,1
-109.0,-38.0,219.0,-18.0,70.0,-4.0,1
-106.0,-39.0,218.0,-18.0,69.0,-4.0,1
-105.0,-39.0,218.0,-17.0,70.0,-3.0,1
-106.0,-39.0,217.0,-16.0,68.0,-2.0,1
-107.0,-41.0,216.0,-17.0,70.0,-2.0,1
-106.0,-40.0,219.0,-19.0,68.0,0.0,1
-105.0,-39.0,220.0,-20.0,67.0,-1.0,1
-107.0,-41.0,221.0,-21.0,69.0,0.0,1
-104.0,-40.0,221.0,-20.0,68.0,1.0,1
-104.0,-37.0,220.0,-20.0,67.0,-1.0,1
-103.0,-40.0,223.0,-19.0,66.0,0.0,1
-104.0,-38.0,220.0,-18.0,63.0,-3.0,1
-104.0,-40.0,221.0,-20.0,65.0,-3.0,1
-105.0,-42.0,220.0,-21.0,65.0,-2.0,1
-106.0,-38.0,220.0,-23.0,64.0,-2.0,1
-105.0,-39.0,218.0,-24.0,65.0,-2.0,1
-105.0,-39.0,222.0,-25.0,64.0,-2.0,1
-108.0,-40.0,216.0,-24.0,65.0,-3.0,1
-106.0,-42.0,221.0,-24.0,65.0,-4.0,1
-106.0,-41.0,220.0,-22.0,64.0,-5.0,1
-108.0,-43.0,222.0,-21.0,65.0,-5.0,1
-103.0,-41.0,219.0,-20.0,62.0,-8.0,1
-102.0,-42.0,220.0,-18.0,62.0,-7.0,1
-107.0,-40.0,217.0,-18.0,60.0,-6.0,1
-106.0,-40.0,219.0,-14.0,58.0,-5.0,1
-105.0,-40.0,220.0,-12.0,58.0,-5.0,1
-106.0,-40.0,220.0,-11.0,58.0,-5.0,1
-102.0,-42.0,216.0,-9.0,59.0,-2.0,1
-107.0,-39.0,223.0,-7.0,61.0,-1.0,1
-109.0,-37.0,222.0,-5.0,65.0,-1.0,1
-107.0,-37.0,218.0,-5.0,67.0,0.0,1
-104.0,-39.0,219.0,-4.0,68.0,1.0,1
-103.0,-41.0,222.0,-5.0,70.0,1.0,1
-103.0,-42.0,221.0,-9.0,71.0,2.0,1
-106.0,-39.0,220.0,-12.0,71.0,4.0,1
-105.0,-37.0,225.0,-15.0,71.0,2.0,1
-104.0,-42.0,221.0,-19.0,68.0,2.0,1
-107.0,-38.0,218.0,-21.0,66.0,2.0,1
-108.0,-41.0,217.0,-23.0,65.0,2.0,1
-107.0,-37.0,221.0,-25.0,63.0,2.0,1
-106.0,-37.0,224.0,-23.0,60.0,0.0,1
-108.0,-38.0,219.0,-23.0,61.0,-1.0,1
-103.0,-38.0,219.0,-23.0,60.0,-1.0,1
-104.0,-40.0,222.0,-24.0,62.0,-2.0,1
-104.0,-39.0,219.0,-22.0,62.0,-3.0,1
-108.0,-40.0,220.0,-24.0,61.0,-4.0,1
-103.0,-40.0,224.0,-26.0,63.0,-3.0,1
-103.0,-38.0,218.0,-27.0,62.0,-4.0,1
-104.0,-39.0,222.0,-29.0,63.0,-3.0,1
-102.0,-40.0,219.0,-31.0,62.0,-1.0,1
-103.0,-42.0,220.0,-33.0,64.0,-2.0,1
-106.0,-39.0,219.0,-36.0,63.0,-4.0,1
-106.0,-39.0,214.0,-34.0,63.0,-4.0,1
-104.0,-39.0,220.0,-35.0,64.0,-3.0,1
-106.0,-38.0,220.0,-35.0,64.0,-4.0,1
-105.0,-39.0,215.0,-34.0,64.0,-3.0,1
-104.0,-39.0,219.0,-33.0,65.0,-4.0,1
-107.0,-41.0,218.0,-31.0,64.0,-4.0,1
-106.0,-40.0,218.0,-31.0,64.0,-3.0,1
-104.0,-40.0,219.0,-29.0,65.0,-3.0,1
-106.0,-39.0,220.0,-28.0,65.0,-4.0,1
-106.0,-38.0,222.0,-28.0,66.0,-4.0,1
-101.0,-33.0,218.0,-29.0,66.0,-5.0,1
-101.0,-42.0,222.0,-29.0,68.0,-5.0,1
-106.0,-41.0,223.0,-30.0,70.0,-4.0,1
-105.0,-38.0,221.0,-32.0,68.0,-3.0,1
-106.0,-39.0,218.0,-32.0,68.0,-2.0,1
-105.0,-42.0,218.0,-32.0,70.0,-3.0,1
-103.0,-40.0,218.0,-33.0,69.0,-3.0,1
-106.0,-42.0,219.0,-34.0,68.0,-3.0,1
-105.0,-41.0,219.0,-35.0,67.0,-4.0,1
-103.0,-42.0,218.0,-35.0,67.0,-5.0,1
-106.0,-39.0,221.0,-35.0,65.0,-5.0,1
-107.0,-39.0,219.0,-34.0,65.0,-7.0,1
-106.0,-41.0,223.0,-32.0,65.0,-6.0,1
-103.0,-40.0,218.0,-30.0,67.0,-5.0,1
-105.0,-42.0,222.0,-29.0,67.0,-4.0,1
-105.0,-41.0,220.0,-27.0,68.0,-5.0,1
-106.0,-40.0,220.0,-27.0,69.0,-4.0,1
-101.0,-43.0,218.0,-27.0,68.0,-2.0,1
-106.0,-44.0,217.0,-25.0,67.0,-3.0,1
-105.0,-39.0,220.0,-24.0,66.0,-4.0,1
-105.0,-40.0,218.0,-26.0,66.0,-4.0,1
-106.0,-39.0,220.0,-24.0,66.0,-2.0,1
-104.0,-36.0,218.0,-26.0,66.0,-2.0,1
-105.0,-44.0,220.0,-25.0,66.0,-3.0,1
-104.0,-38.0,219.0,-24.0,66.0,-3.0,1
-104.0,-40.0,219.0,-24.0,66.0,-2.0,1
-105.0,-42.0,220.0,-25.0,66.0,-2.0,1
-104.0,-43.0,219.0,-23.0,66.0,-2.0,1
-104.0,-39.0,219.0,-24.0,65.0,-4.0,1
-106.0,-40.0,221.0,-25.0,66.0,-5.0,1
-103.0,-41.0,216.0,-24.0,65.0,-7.0,1
-103.0,-40.0,219.0,-25.0,66.0,-8.0,1
-107.0,-39.0,221.0,-25.0,63.0,-5.0,1
-98.0,-47.0,221.0,-26.0,65.0,-6.0,1
-105.0,-41.0,221.0,-26.0,63.0,-6.0,1
-105.0,-42.0,219.0,-26.0,62.0,-6.0,1
-106.0,-37.0,219.0,-26.0,60.0,-7.0,1
-105.0,-40.0,223.0,-26.0,59.0,-7.0,1
-105.0,-43.0,221.0,-27.0,58.0,-8.0,1
-104.0,-42.0,219.0,-28.0,57.0,-8.0,1
-105.0,-42.0,219.0,-28.0,58.0,-5.0,1
-105.0,-40.0,220.0,-28.0,59.0,-6.0,1
-104.0,-40.0,223.0,-28.0,59.0,-7.0,1
-104.0,-43.0,218.0,-27.0,59.0,-6.0,1
-105.0,-39.0,218.0,-27.0,59.0,-6.0,1
-107.0,-43.0,218.0,-26.0,58.0,-4.0,1
-104.0,-43.0,218.0,-25.0,58.0,-3.0,1
-106.0,-40.0,221.0,-25.0,59.0,-3.0,1
-104.0,-39.0,222.0,-25.0,61.0,-3.0,1
-102.0,-44.0,220.0,-25.0,60.0,-2.0,1
-107.0,-39.0,217.0,-26.0,61.0,-2.0,1
-106.0,-42.0,218.0,-27.0,63.0,-2.0,1
-106.0,-39.0,220.0,-28.0,64.0,-2.0,1
-104.0,-42.0,218.0,-28.0,65.0,-3.0,1
-106.0,-43.0,219.0,-30.0,65.0,-4.0,1
-105.0,-41.0,220.0,-28.0,66.0,-5.0,1
-106.0,-42.0,220.0,-28.0,67.0,-3.0,1
-107.0,-39.0,218.0,-28.0,69.0,-2.0,1
-103.0,-40.0,219.0,-29.0,70.0,-3.0,1
-103.0,-43.0,218.0,-30.0,70.0,-2.0,1
-103.0,-42.0,221.0,-32.0,70.0,-3.0,1
-107.0,-42.0,220.0,-31.0,69.0,-5.0,1
-107.0,-40.0,221.0,-31.0,68.0,-7.0,1
-107.0,-40.0,215.0,-32.0,66.0,-10.0,1
-105.0,-40.0,218.0,-32.0,64.0,-10.0,1
-106.0,-40.0,216.0,-31.0,61.0,-12.0,1
-105.0,-41.0,216.0,-32.0,60.0,-13.0,1
-105.0,-41.0,222.0,-33.0,59.0,-12.0,1
-102.0,-43.0,218.0,-32.0,61.0,-12.0,1
-103.0,-44.0,221.0,-29.0,62.0,-12.0,1
-106.0,-41.0,218.0,-29.0,62.0,-11.0,1
-105.0,-40.0,220.0,-27.0,62.0,-10.0,1
-104.0,-43.0,217.0,-26.0,64.0,-9.0,1
-105.0,-42.0,216.0,-24.0,64.0,-10.0,1
-106.0,-42.0,218.0,-23.0,63.0,-10.0,1
-106.0,-44.0,220.0,-22.0,63.0,-9.0,1
-103.0,-43.0,219.0,-22.0,63.0,-10.0,1
-105.0,-45.0,218.0,-22.0,61.0,-10.0,1
-105.0,-41.0,220.0,-24.0,60.0,-9.0,1
-105.0,-44.0,218.0,-25.0,62.0,-10.0,1
-104.0,-41.0,218.0,-25.0,59.0,-8.0,1
-107.0,-44.0,220.0,-25.0,59.0,-9.0,1
-105.0,-42.0,219.0,-23.0,61.0,-7.0,1
-104.0,-43.0,218.0,-25.0,62.0,-7.0,1
-101.0,-43.0,222.0,-25.0,63.0,-8.0,1
-104.0,-46.0,218.0,-26.0,65.0,-7.0,1
-102.0,-46.0,220.0,-26.0,64.0,-8.0,1
-106.0,-42.0,222.0,-28.0,64.0,-9.0,1
-110.0,-46.0,216.0,-29.0,65.0,-9.0,1
-103.0,-42.0,218.0,-29.0,66.0,-9.0,1
-104.0,-40.0,219.0,-28.0,67.0,-11.0,1
-102.0,-43.0,220.0,-27.0,67.0,-11.0,1
-103.0,-42.0,217.0,-27.0,66.0,-12.0,1
-105.0,-38.0,217.0,-24.0,66.0,-12.0,1
-104.0,-41.0,220.0,-24.0,65.0,-10.0,1
-103.0,-42.0,217.0,-22.0,64.0,-12.0,1
-103.0,-39.0,217.0,-21.0,63.0,-12.0,1
-105.0,-38.0,219.0,-19.0,64.0,-13.0,1
-104.0,-42.0,221.0,-17.0,63.0,-10.0,1
-106.0,-42.0,220.0,-15.0,64.0,-9.0,1
-105.0,-42.0,218.0,-13.0,68.0,-8.0,1
-103.0,-45.0,217.0,-13.0,70.0,-7.0,1
-102.0,-47.0,221.0,-12.0,70.0,-5.0,1
-105.0,-44.0,221.0,-13.0,69.0,-5.0,1
-103.0,-47.0,220.0,-15.0,70.0,-5.0,1
-104.0,-46.0,219.0,-16.0,69.0,-5.0,1
-107.0,-44.0,223.0,-20.0,67.0,-6.0,1
-101.0,-45.0,219.0,-22.0,66.0,-7.0,1
-103.0,-49.0,221.0,-26.0,67.0,-7.0,1
-101.0,-43.0,222.0,-25.0,68.0,-4.0,1
-104.0,-44.0,222.0,-25.0,69.0,-4.0,1
-104.0,-47.0,221.0,-24.0,70.0,-3.0,1
-102.0,-44.0,218.0,-21.0,72.0,-2.0,1
-104.0,-40.0,217.0,-16.0,71.0,1.0,1
-104.0,-42.0,218.0,-13.0,70.0,-1.0,1
-104.0,-45.0,218.0,-11.0,69.0,0.0,1
-106.0,-43.0,216.0,-11.0,67.0,1.0,1
-105.0,-40.0,215.0,-9.0,67.0,2.0,1
-105.0,-40.0,219.0,-9.0,67.0,2.0,1
-103.0,-39.0,220.0,-9.0,66.0,2.0,1
-106.0,-39.0,219.0,-9.0,66.0,2.0,1
-104.0,-42.0,218.0,-9.0,66.0,1.0,1
-103.0,-40.0,220.0,-10.0,66.0,1.0,1
-104.0,-43.0,216.0,-14.0,66.0,0.0,1
-103.0,-44.0,222.0,-15.0,64.0,-1.0,1
-102.0,-44.0,221.0,-17.0,62.0,-4.0,1
-104.0,-41.0,218.0,-19.0,62.0,-5.0,1
-104.0,-44.0,220.0,-20.0,61.0,-7.0,1
-106.0,-41.0,218.0,-21.0,62.0,-7.0,1
-105.0,-40.0,217.0,-20.0,63.0,-8.0,1
-107.0,-41.0,221.0,-21.0,65.0,-8.0,1
-102.0,-42.0,220.0,-20.0,69.0,-8.0,1
-105.0,-39.0,221.0,-21.0,70.0,-7.0,1
-105.0,-41.0,220.0,-21.0,73.0,-7.0,1
-107.0,-40.0,220.0,-22.0,75.0,-7.0,1
-104.0,-43.0,217.0,-24.0,76.0,-7.0,1
-106.0,-42.0,219.0,-24.0,77.0,-6.0,1
-105.0,-42.0,221.0,-22.0,76.0,-6.0,1
-103.0,-44.0,218.0,-25.0,77.0,-5.0,1
-105.0,-41.0,221.0,-26.0,75.0,-6.0,1
-103.0,-44.0,221.0,-25.0,74.0,-7.0,1
-103.0,-43.0,219.0,-25.0,73.0,-6.0,1
-105.0,-45.0,221.0,-25.0,70.0,-6.0,1
-106.0,-43.0,220.0,-24.0,69.0,-6.0,1
-105.0,-46.0,220.0,-23.0,69.0,-7.0,1
-106.0,-39.0,215.0,-24.0,69.0,-7.0,1
-101.0,-42.0,219.0,-22.0,70.0,-7.0,1
-106.0,-45.0,220.0,-22.0,69.0,-7.0,1
-105.0,-42.0,221.0,-22.0,70.0,-7.0,1
-105.0,-41.0,220.0,-23.0,70.0,-7.0,1
-103.0,-43.0,220.0,-23.0,72.0,-6.0,1
-104.0,-42.0,217.0,-24.0,72.0,-6.0,1
-105.0,-45.0,220.0,-24.0,73.0,-6.0,1
-101.0,-40.0,222.0,-26.0,73.0,-5.0,1
-103.0,-38.0,220.0,-26.0,74.0,-6.0,1
-104.0,-41.0,216.0,-26.0,73.0,-6.0,1
-101.0,-44.0,220.0,-26.0,71.0,-8.0,1
-107.0,-41.0,220.0,-29.0,70.0,-11.0,1
-103.0,-42.0,215.0,-31.0,69.0,-11.0,1
-105.0,-43.0,217.0,-34.0,69.0,-10.0,1
-101.0,-42.0,219.0,-37.0,69.0,-10.0,1
-105.0,-42.0,219.0,-40.0,71.0,-10.0,1
-105.0,-47.0,224.0,-44.0,72.0,-7.0,1
-107.0,-46.0,221.0,-47.0,73.0,-6.0,1
-106.0,-42.0,225.0,-48.0,74.0,-6.0,1
-102.0,-45.0,219.0,-45.0,73.0,-6.0,1
-106.0,-46.0,222.0,-43.0,70.0,-7.0,1
-103.0,-47.0,224.0,-42.0,69.0,-6.0,1
-105.0,-47.0,221.0,-40.0,67.0,-7.0,1
-107.0,-43.0,222.0,-36.0,66.0,-7.0,1
-105.0,-44.0,221.0,-32.0,64.0,-7.0,1
-106.0,-45.0,222.0,-28.0,63.0,-6.0,1
-107.0,-43.0,214.0,-26.0,63.0,-5.0,1
-107.0,-45.0,217.0,-23.0,63.0,-5.0,1
-105.0,-42.0,219.0,-21.0,64.0,-3.0,1
-104.0,-43.0,217.0,-18.0,66.0,-3.0,1
-108.0,-42.0,213.0,-18.0,67.0,-3.0,1
-102.0,-46.0,220.0,-18.0,70.0,-1.0,1
-105.0,-43.0,217.0,-19.0,71.0,1.0,1
-105.0,-45.0,217.0,-20.0,72.0,1.0,1
-103.0,-42.0,222.0,-19.0,73.0,2.0,1
-105.0,-44.0,221.0,-19.0,72.0,2.0,1
-104.0,-44.0,217.0,-19.0,72.0,2.0,1
-102.0,-44.0,217.0,-19.0,70.0,2.0,1
-103.0,-47.0,216.0,-18.0,70.0,2.0,1
-104.0,-45.0,217.0,-19.0,66.0,1.0,1
-103.0,-44.0,220.0,-18.0,65.0,-1.0,1
-105.0,-45.0,216.0,-16.0,65.0,-1.0,1
-105.0,-44.0,221.0,-15.0,66.0,-2.0,1
-103.0,-42.0,212.0,-13.0,66.0,-2.0,1
-106.0,-44.0,219.0,-13.0,66.0,-4.0,1
-104.0,-42.0,219.0,-12.0,68.0,-5.0,1
-105.0,-43.0,218.0,-12.0,68.0,-5.0,1
-104.0,-42.0,217.0,-11.0,67.0,-5.0,1
-105.0,-42.0,219.0,-12.0,65.0,-5.0,1
-106.0,-40.0,215.0,-13.0,65.0,-4.0,1
-101.0,-43.0,220.0,-13.0,66.0,-3.0,1
-102.0,-42.0,218.0,-14.0,67.0,-3.0,1
-103.0,-46.0,218.0,-13.0,66.0,-5.0,1
-105.0,-43.0,220.0,-13.0,65.0,-2.0,1
-103.0,-43.0,221.0,-14.0,65.0,-3.0,1
-104.0,-44.0,215.0,-14.0,62.0,-3.0,1
-109.0,-43.0,218.0,-13.0,62.0,-2.0,1
-107.0,-45.0,218.0,-14.0,62.0,-2.0,1
-104.0,-43.0,217.0,-12.0,61.0,-3.0,1
-106.0,-43.0,217.0,-12.0,61.0,-1.0,1
-101.0,-45.0,218.0,-9.0,61.0,-2.0,1
-105.0,-46.0,220.0,-7.0,61.0,-5.0,1
-106.0,-43.0,220.0,-5.0,61.0,-4.0,1
-103.0,-46.0,219.0,-6.0,62.0,-3.0,1
-104.0,-44.0,220.0,-7.0,62.0,-4.0,1
-105.0,-46.0,218.0,-7.0,62.0,-4.0,1
-102.0,-42.0,215.0,-4.0,62.0,-4.0,1
-105.0,-44.0,222.0,-4.0,63.0,-3.0,1
-106.0,-40.0,216.0,-4.0,65.0,-2.0,1
-104.0,-44.0,216.0,-4.0,67.0,-3.0,1
-106.0,-43.0,221.0,-4.0,67.0,-3.0,1
-108.0,-45.0,218.0,-5.0,68.0,-3.0,1
-104.0,-46.0,217.0,-5.0,69.0,0.0,1
-108.0,-38.0,221.0,-3.0,70.0,-1.0,1
-103.0,-46.0,219.0,-3.0,70.0,-1.0,1
-102.0,-47.0,215.0,-4.0,71.0,-1.0,1
-102.0,-45.0,219.0,-3.0,71.0,-1.0,1
-102.0,-41.0,220.0,-4.0,72.0,1.0,1
-103.0,-45.0,216.0,-5.0,72.0,-1.0,1
-104.0,-46.0,222.0,-7.0,72.0,0.0,1
-103.0,-43.0,215.0,-7.0,73.0,-1.0,1
-103.0,-45.0,218.0,-7.0,74.0,-1.0,1
-104.0,-44.0,221.0,-8.0,73.0,-1.0,1
-101.0,-45.0,219.0,-9.0,72.0,-1.0,1
-103.0,-44.0,223.0,-9.0,74.0,0.0,1
-105.0,-42.0,220.0,-10.0,75.0,0.0,1
-104.0,-44.0,218.0,-8.0,74.0,-1.0,1
-103.0,-46.0,218.0,-8.0,74.0,1.0,1
-104.0,-45.0,214.0,-8.0,75.0,0.0,1
-104.0,-47.0,220.0,-6.0,73.0,-2.0,1
-101.0,-43.0,220.0,-6.0,70.0,0.0,1
-104.0,-45.0,221.0,-6.0,70.0,0.0,1
-104.0,-44.0,220.0,-8.0,69.0,0.0,1
-105.0,-47.0,219.0,-9.0,67.0,0.0,1
-104.0,-43.0,224.0,-7.0,65.0,1.0,1
-112.0,-43.0,226.0,-5.0,68.0,2.0,1
-105.0,-47.0,220.0,-4.0,68.0,1.0,1
-105.0,-45.0,220.0,-1.0,68.0,3.0,1
-106.0,-47.0,218.0,3.0,71.0,4.0,1
-105.0,-43.0,217.0,7.0,74.0,3.0,1
-104.0,-47.0,219.0,9.0,76.0,3.0,1
-102.0,-46.0,221.0,10.0,78.0,2.0,1
-102.0,-46.0,221.0,9.0,79.0,0.0,1
-105.0,-44.0,220.0,8.0,79.0,2.0,1
-105.0,-42.0,218.0,6.0,81.0,0.0,1
-107.0,-43.0,219.0,5.0,83.0,1.0,1
-105.0,-42.0,218.0,3.0,84.0,1.0,1
-104.0,-43.0,217.0,3.0,86.0,0.0,1
-103.0,-44.0,221.0,4.0,88.0,1.0,1
-103.0,-42.0,218.0,4.0,91.0,1.0,1
-104.0,-44.0,222.0,6.0,92.0,1.0,1
-104.0,-43.0,222.0,6.0,92.0,0.0,1
-105.0,-41.0,220.0,9.0,93.0,-1.0,1
-104.0,-43.0,219.0,10.0,91.0,-3.0,1
-105.0,-41.0,222.0,9.0,89.0,-4.0,1
-104.0,-45.0,217.0,11.0,86.0,-5.0,1
-104.0,-40.0,214.0,10.0,86.0,-3.0,1
-105.0,-44.0,216.0,12.0,85.0,-4.0,1
-103.0,-43.0,220.0,13.0,83.0,-5.0,1
-107.0,-41.0,221.0,17.0,81.0,-3.0,1
-102.0,-43.0,218.0,20.0,80.0,-3.0,1
-106.0,-42.0,219.0,21.0,80.0,-3.0,1
-105.0,-43.0,220.0,20.0,81.0,-2.0,1
-107.0,-42.0,219.0,19.0,80.0,-1.0,1
-104.0,-46.0,217.0,20.0,79.0,-1.0,1
-106.0,-43.0,220.0,20.0,81.0,0.0,1
-108.0,-40.0,222.0,20.0,80.0,-1.0,1
-106.0,-41.0,221.0,18.0,82.0,0.0,1
-104.0,-41.0,222.0,20.0,82.0,1.0,1
-104.0,-42.0,219.0,20.0,80.0,1.0,1
-106.0,-43.0,218.0,20.0,78.0,1.0,1
-103.0,-44.0,219.0,17.0,76.0,0.0,1
-103.0,-46.0,220.0,15.0,72.0,1.0,1
-104.0,-44.0,218.0,13.0,72.0,0.0,1
-107.0,-40.0,221.0,13.0,73.0,-2.0,1
-107.0,-43.0,217.0,16.0,74.0,-2.0,1
-107.0,-43.0,218.0,16.0,74.0,-2.0,1
-108.0,-41.0,219.0,17.0,74.0,-3.0,1
-107.0,-43.0,219.0,19.0,76.0,-4.0,1
-107.0,-41.0,218.0,20.0,75.0,-3.0,1
-106.0,-41.0,216.0,23.0,74.0,-3.0,1
-104.0,-40.0,217.0,26.0,77.0,-1.0,1
-106.0,-40.0,220.0,30.0,78.0,-1.0,1
-107.0,-40.0,220.0,34.0,81.0,1.0,1
-104.0,-41.0,217.0,39.0,85.0,2.0,1
-106.0,-39.0,218.0,46.0,88.0,1.0,1
-107.0,-39.0,216.0,49.0,92.0,2.0,1
-102.0,-38.0,217.0,52.0,94.0,1.0,1
-103.0,-37.0,218.0,53.0,95.0,-1.0,1
-104.0,-39.0,216.0,50.0,99.0,-3.0,1
-103.0,-39.0,221.0,46.0,100.0,-4.0,1
-104.0,-40.0,217.0,42.0,102.0,-3.0,1
-102.0,-41.0,220.0,34.0,102.0,-1.0,1
-108.0,-40.0,223.0,28.0,101.0,0.0,1
-105.0,-40.0,220.0,22.0,101.0,0.0,1
-106.0,-41.0,221.0,17.0,99.0,1.0,1
-103.0,-40.0,220.0,15.0,98.0,4.0,1
-103.0,-43.0,223.0,15.0,99.0,5.0,1
-102.0,-43.0,220.0,14.0,100.0,6.0,1
-106.0,-38.0,221.0,14.0,97.0,6.0,1
-97.0,-50.0,220.0,16.0,94.0,8.0,1
-105.0,-43.0,218.0,21.0,91.0,9.0,1
-106.0,-42.0,216.0,20.0,89.0,9.0,1
-107.0,-40.0,219.0,22.0,85.0,10.0,1
-111.0,-42.0,218.0,24.0,83.0,10.0,1
-106.0,-41.0,215.0,25.0,80.0,11.0,1
-108.0,-43.0,218.0,27.0,79.0,12.0,1
-107.0,-43.0,216.0,25.0,78.0,11.0,1
-106.0,-43.0,217.0,26.0,78.0,9.0,1
-105.0,-42.0,220.0,22.0,77.0,14.0,1
-108.0,-38.0,219.0,23.0,77.0,13.0,1
-106.0,-39.0,221.0,22.0,80.0,9.0,1
-106.0,-39.0,218.0,21.0,83.0,9.0,1
-110.0,-38.0,217.0,20.0,84.0,7.0,1
-104.0,-41.0,216.0,20.0,84.0,9.0,1
-108.0,-35.0,220.0,16.0,83.0,9.0,1
-106.0,-41.0,221.0,14.0,83.0,9.0,1
-108.0,-36.0,218.0,12.0,83.0,8.0,1
-110.0,-37.0,218.0,11.0,85.0,7.0,1
-109.0,-37.0,219.0,9.0,86.0,5.0,1
-105.0,-38.0,218.0,6.0,86.0,2.0,1
-108.0,-38.0,217.0,5.0,86.0,2.0,1
-109.0,-38.0,217.0,1.0,85.0,2.0,1
-106.0,-40.0,218.0,-1.0,85.0,1.0,1
-105.0,-39.0,217.0,-3.0,84.0,2.0,1
-106.0,-36.0,220.0,-5.0,85.0,2.0,1
-108.0,-40.0,218.0,-5.0,83.0,2.0,1
-106.0,-40.0,212.0,-8.0,81.0,-1.0,1
-107.0,-43.0,219.0,-8.0,80.0,-2.0,1
-108.0,-39.0,216.0,-9.0,78.0,-1.0,1
-108.0,-42.0,216.0,-8.0,79.0,-2.0,1
-109.0,-40.0,220.0,-7.0,77.0,-2.0,1
-108.0,-38.0,218.0,-6.0,76.0,-1.0,1
-109.0,-40.0,222.0,-6.0,75.0,-2.0,1
-109.0,-38.0,219.0,-6.0,75.0,-1.0,1
-106.0,-37.0,217.0,-5.0,76.0,-1.0,1
-106.0,-43.0,219.0,-3.0,77.0,-1.0,1
-108.0,-40.0,219.0,-3.0,76.0,0.0,1
-106.0,-37.0,218.0,-3.0,75.0,0.0,1
-106.0,-41.0,215.0,-4.0,76.0,-1.0,1
-108.0,-38.0,219.0,-4.0,73.0,-1.0,1
-110.0,-39.0,222.0,-4.0,72.0,-3.0,1
-104.0,-39.0,218.0,-5.0,71.0,-2.0,1
-107.0,-38.0,215.0,-5.0,70.0,-2.0,1
-110.0,-36.0,221.0,-7.0,68.0,-1.0,1
-105.0,-34.0,218.0,-9.0,68.0,-2.0,1
-105.0,-40.0,221.0,-10.0,68.0,-2.0,1
-107.0,-39.0,221.0,-12.0,69.0,-3.0,1
-105.0,-42.0,220.0,-13.0,69.0,-4.0,1
-107.0,-38.0,218.0,-14.0,70.0,-3.0,1
-109.0,-36.0,217.0,-15.0,70.0,-3.0,1
-108.0,-39.0,222.0,-18.0,69.0,-3.0,1
-109.0,-37.0,219.0,-19.0,68.0,-3.0,1
-107.0,-42.0,220.0,-18.0,67.0,-5.0,1
-107.0,-37.0,222.0,-17.0,65.0,-5.0,1
-105.0,-41.0,219.0,-15.0,65.0,-4.0,1
-106.0,-40.0,215.0,-15.0,64.0,-5.0,1
-108.0,-44.0,216.0,-13.0,64.0,-3.0,1
-106.0,-38.0,214.0,-11.0,63.0,-5.0,1
-106.0,-40.0,220.0,-7.0,62.0,-4.0,1
-108.0,-40.0,221.0,-4.0,60.0,-5.0,1
-107.0,-40.0,219.0,-3.0,60.0,-4.0,1
-107.0,-40.0,216.0,0.0,60.0,-3.0,1
-108.0,-40.0,217.0,3.0,61.0,-3.0,1
-103.0,-41.0,217.0,4.0,61.0,-3.0,1
-104.0,-38.0,218.0,5.0,61.0,-1.0,1
-104.0,-44.0,215.0,6.0,62.0,-2.0,1
-105.0,-38.0,219.0,8.0,63.0,0.0,1
-104.0,-37.0,218.0,9.0,63.0,0.0,1
-110.0,-36.0,219.0,8.0,64.0,-2.0,1
-106.0,-40.0,218.0,8.0,63.0,-2.0,1
-106.0,-38.0,219.0,9.0,64.0,-2.0,1
-107.0,-38.0,218.0,9.0,63.0,-3.0,1
-106.0,-39.0,222.0,10.0,63.0,-1.0,1
-106.0,-40.0,219.0,11.0,60.0,-2.0,1
-107.0,-38.0,219.0,11.0,62.0,0.0,1
-108.0,-39.0,229.0,10.0,62.0,0.0,1
-105.0,-40.0,219.0,10.0,62.0,0.0,1
-105.0,-36.0,221.0,12.0,64.0,0.0,1
-102.0,-40.0,220.0,11.0,64.0,1.0,1
-108.0,-37.0,221.0,9.0,63.0,-2.0,1
-105.0,-37.0,218.0,9.0,63.0,-3.0,1
-107.0,-38.0,219.0,9.0,65.0,-4.0,1
-107.0,-37.0,221.0,7.0,65.0,-4.0,1
-107.0,-39.0,219.0,5.0,63.0,-5.0,1
-105.0,-38.0,220.0,4.0,63.0,-5.0,1
-108.0,-34.0,214.0,2.0,61.0,-5.0,1
-107.0,-36.0,217.0,0.0,62.0,-6.0,1
-105.0,-41.0,219.0,-2.0,62.0,-6.0,1
-104.0,-39.0,221.0,-2.0,64.0,-5.0,1
-108.0,-37.0,220.0,-3.0,64.0,-6.0,1
-107.0,-39.0,221.0,-3.0,65.0,-5.0,1
-104.0,-39.0,220.0,-2.0,68.0,-3.0,1
-108.0,-37.0,220.0,0.0,69.0,-4.0,1
-104.0,-39.0,216.0,2.0,71.0,-4.0,1
-106.0,-40.0,217.0,3.0,72.0,-3.0,1
-105.0,-38.0,218.0,2.0,73.0,-3.0,1
-107.0,-35.0,217.0,3.0,75.0,-3.0,1
-109.0,-37.0,225.0,4.0,75.0,-2.0,1
-105.0,-39.0,221.0,6.0,73.0,-3.0,1
-105.0,-38.0,217.0,7.0,76.0,-3.0,1
-106.0,-40.0,218.0,7.0,76.0,-3.0,1
-108.0,-38.0,219.0,5.0,77.0,-2.0,1
-105.0,-41.0,221.0,5.0,77.0,1.0,1
-107.0,-37.0,220.0,6.0,79.0,3.0,1
-108.0,-41.0,222.0,9.0,80.0,3.0,1
-106.0,-35.0,220.0,9.0,80.0,2.0,1
-105.0,-40.0,221.0,10.0,78.0,2.0,1
-109.0,-36.0,223.0,9.0,78.0,3.0,1
-107.0,-41.0,222.0,11.0,78.0,4.0,1
-106.0,-38.0,217.0,12.0,75.0,4.0,1
-104.0,-41.0,218.0,11.0,78.0,7.0,1
-110.0,-36.0,221.0,11.0,78.0,6.0,1
-107.0,-37.0,220.0,11.0,76.0,11.0,1
-104.0,-39.0,218.0,12.0,75.0,14.0,1
-105.0,-39.0,221.0,13.0,75.0,15.0,1
-107.0,-36.0,223.0,13.0,76.0,15.0,1
-105.0,-36.0,220.0,12.0,79.0,15.0,1
-105.0,-38.0,219.0,12.0,81.0,13.0,1
-106.0,-40.0,222.0,11.0,81.0,11.0,1
-109.0,-37.0,222.0,12.0,81.0,13.0,1
-106.0,-38.0,219.0,13.0,83.0,12.0,1
-108.0,-37.0,218.0,15.0,86.0,12.0,1
-109.0,-38.0,220.0,18.0,85.0,13.0,1
-105.0,-36.0,218.0,17.0,86.0,11.0,1
-108.0,-35.0,219.0,15.0,86.0,10.0,1
-107.0,-35.0,218.0,14.0,85.0,10.0,1
-108.0,-36.0,217.0,10.0,84.0,9.0,1
-110.0,-36.0,218.0,10.0,83.0,9.0,1
-106.0,-31.0,216.0,8.0,84.0,9.0,1
-109.0,-33.0,214.0,7.0,86.0,10.0,1
-107.0,-31.0,223.0,5.0,82.0,6.0,1
-108.0,-37.0,218.0,4.0,80.0,3.0,1
-108.0,-35.0,222.0,5.0,77.0,2.0,1
-109.0,-37.0,215.0,5.0,75.0,0.0,1
-109.0,-36.0,218.0,7.0,72.0,-2.0,1
-111.0,-36.0,214.0,6.0,70.0,-3.0,1
-109.0,-36.0,219.0,9.0,66.0,-3.0,1
-110.0,-38.0,219.0,8.0,65.0,-4.0,1
-108.0,-37.0,218.0,10.0,66.0,-3.0,1
-110.0,-34.0,220.0,10.0,65.0,-2.0,1
-108.0,-37.0,216.0,12.0,65.0,-1.0,1
-109.0,-37.0,219.0,14.0,66.0,1.0,1
-110.0,-37.0,215.0,16.0,66.0,3.0,1
-107.0,-35.0,219.0,18.0,68.0,4.0,1
-109.0,-34.0,223.0,21.0,74.0,6.0,1
-105.0,-35.0,219.0,22.0,76.0,4.0,1
-107.0,-36.0,220.0,23.0,78.0,4.0,1
-107.0,-36.0,222.0,26.0,78.0,7.0,1
-108.0,-37.0,217.0,28.0,79.0,4.0,1
-111.0,-38.0,217.0,29.0,80.0,2.0,1
-109.0,-35.0,221.0,31.0,79.0,2.0,1
-109.0,-37.0,222.0,32.0,81.0,0.0,1
-106.0,-36.0,218.0,31.0,80.0,-3.0,1
-108.0,-33.0,220.0,28.0,78.0,-3.0,1
-108.0,-34.0,219.0,25.0,77.0,-3.0,1
-106.0,-36.0,221.0,24.0,77.0,-2.0,1
-107.0,-34.0,221.0,21.0,78.0,-1.0,1
-105.0,-38.0,220.0,19.0,79.0,-2.0,1
-106.0,-35.0,221.0,17.0,81.0,-2.0,1
-110.0,-34.0,220.0,16.0,84.0,-1.0,1
-106.0,-34.0,218.0,14.0,84.0,-3.0,1
-106.0,-34.0,223.0,13.0,86.0,-2.0,1
-103.0,-36.0,218.0,13.0,86.0,-1.0,1
-108.0,-34.0,221.0,12.0,88.0,0.0,1
-108.0,-32.0,217.0,11.0,87.0,-1.0,1
-106.0,-33.0,218.0,8.0,84.0,-2.0,1
-107.0,-35.0,223.0,6.0,84.0,-3.0,1
-108.0,-33.0,224.0,4.0,83.0,-3.0,1
-108.0,-32.0,222.0,1.0,84.0,-3.0,1
-108.0,-35.0,221.0,-1.0,83.0,-3.0,1
-107.0,-35.0,216.0,-1.0,81.0,-3.0,1
-109.0,-33.0,222.0,-4.0,79.0,-4.0,1
-108.0,-35.0,215.0,-6.0,78.0,-5.0,1
-110.0,-36.0,218.0,-6.0,78.0,-4.0,1
-105.0,-34.0,218.0,-4.0,77.0,-2.0,1
-106.0,-37.0,219.0,-5.0,77.0,-2.0,1
-109.0,-34.0,220.0,-3.0,76.0,-2.0,1
-106.0,-35.0,220.0,-1.0,76.0,-1.0,1
-109.0,-37.0,220.0,2.0,75.0,2.0,1
-108.0,-35.0,219.0,3.0,74.0,2.0,1
-111.0,-33.0,218.0,4.0,72.0,3.0,1
-106.0,-35.0,214.0,4.0,71.0,4.0,1
-111.0,-37.0,217.0,6.0,72.0,4.0,1
-107.0,-35.0,221.0,6.0,72.0,3.0,1
-111.0,-36.0,217.0,3.0,70.0,5.0,1
-105.0,-38.0,222.0,1.0,71.0,5.0,1
-109.0,-36.0,220.0,0.0,70.0,4.0,1
-108.0,-35.0,217.0,-3.0,69.0,5.0,1
-105.0,-36.0,217.0,-3.0,71.0,3.0,1
-110.0,-32.0,219.0,-4.0,72.0,4.0,1
-108.0,-36.0,221.0,-4.0,72.0,3.0,1
-106.0,-34.0,221.0,-5.0,72.0,2.0,1
-107.0,-36.0,222.0,-7.0,72.0,3.0,1
-107.0,-36.0,220.0,-9.0,73.0,2.0,1
-107.0,-34.0,215.0,-8.0,73.0,3.0,1
-107.0,-28.0,217.0,-8.0,74.0,0.0,1
-105.0,-31.0,220.0,-7.0,73.0,1.0,1
-109.0,-33.0,221.0,-9.0,72.0,1.0,1
-106.0,-33.0,222.0,-9.0,72.0,-2.0,1
-109.0,-32.0,219.0,-9.0,68.0,-3.0,1
-111.0,-36.0,221.0,-8.0,66.0,-5.0,1
-110.0,-31.0,217.0,-7.0,65.0,-5.0,1
-111.0,-36.0,221.0,-6.0,65.0,-6.0,1
-109.0,-34.0,218.0,-5.0,64.0,-7.0,1
-106.0,-38.0,219.0,-2.0,65.0,-9.0,1
-109.0,-36.0,219.0,-3.0,67.0,-7.0,1
-107.0,-35.0,219.0,-3.0,71.0,-6.0,1
-105.0,-36.0,215.0,-3.0,73.0,-5.0,1
-107.0,-33.0,220.0,-5.0,76.0,-5.0,1
-106.0,-36.0,222.0,-8.0,78.0,-5.0,1
-108.0,-35.0,221.0,-14.0,79.0,-5.0,1
-104.0,-36.0,218.0,-20.0,78.0,-5.0,1
-105.0,-35.0,222.0,-28.0,79.0,-4.0,1
-106.0,-37.0,222.0,-35.0,77.0,-4.0,1
-106.0,-34.0,219.0,-40.0,79.0,-3.0,1
-107.0,-36.0,223.0,-41.0,78.0,-1.0,1
-107.0,-33.0,221.0,-41.0,77.0,0.0,1
-105.0,-35.0,219.0,-38.0,72.0,1.0,1
-106.0,-34.0,217.0,-34.0,69.0,4.0,1
-106.0,-35.0,217.0,-27.0,69.0,7.0,1
-110.0,-33.0,215.0,-19.0,70.0,8.0,1
-109.0,-33.0,219.0,-15.0,71.0,11.0,1
-112.0,-34.0,218.0,-6.0,73.0,12.0,1
-109.0,-35.0,219.0,-1.0,75.0,13.0,1
-108.0,-36.0,219.0,4.0,76.0,14.0,1
-109.0,-32.0,220.0,7.0,76.0,14.0,1
-107.0,-36.0,218.0,9.0,81.0,13.0,1
-109.0,-33.0,220.0,12.0,85.0,12.0,1
-110.0,-34.0,222.0,14.0,86.0,11.0,1
-107.0,-34.0,220.0,13.0,84.0,7.0,1
-109.0,-33.0,224.0,15.0,81.0,4.0,1
-107.0,-33.0,220.0,15.0,82.0,4.0,1
-109.0,-30.0,221.0,12.0,79.0,2.0,1
-108.0,-31.0,221.0,8.0,76.0,0.0,1
-107.0,-33.0,218.0,2.0,71.0,0.0,1
-111.0,-31.0,216.0,-5.0,71.0,1.0,1
-109.0,-34.0,217.0,-10.0,69.0,-1.0,1
-111.0,-34.0,220.0,-15.0,68.0,-1.0,1
-109.0,-33.0,221.0,-20.0,69.0,-2.0,1
-107.0,-34.0,219.0,-22.0,66.0,-5.0,1
-110.0,-34.0,215.0,-20.0,66.0,-4.0,1
-112.0,-34.0,217.0,-21.0,67.0,-6.0,1
-109.0,-33.0,220.0,-20.0,66.0,-7.0,1
-110.0,-33.0,220.0,-18.0,65.0,-8.0,1
-111.0,-37.0,219.0,-17.0,62.0,-8.0,1
-110.0,-33.0,219.0,-17.0,63.0,-8.0,1
-112.0,-36.0,221.0,-16.0,63.0,-6.0,1
-110.0,-34.0,217.0,-15.0,63.0,-5.0,1
-106.0,-35.0,220.0,-14.0,61.0,-5.0,1
-109.0,-34.0,216.0,-12.0,62.0,-4.0,1
-109.0,-33.0,219.0,-12.0,62.0,-3.0,1
-108.0,-37.0,219.0,-14.0,63.0,-3.0,1
-108.0,-36.0,220.0,-16.0,62.0,-1.0,1
-107.0,-35.0,220.0,-18.0,63.0,0.0,1
-107.0,-33.0,218.0,-22.0,64.0,-2.0,1
-107.0,-32.0,219.0,-25.0,64.0,-2.0,1
-107.0,-36.0,223.0,-29.0,66.0,-2.0,1
-107.0,-36.0,218.0,-32.0,64.0,-3.0,1
-107.0,-31.0,217.0,-34.0,63.0,-6.0,1
-106.0,-35.0,220.0,-39.0,62.0,-5.0,1
-107.0,-34.0,219.0,-43.0,60.0,-7.0,1
-99.0,-37.0,221.0,-43.0,59.0,-7.0,1
-107.0,-35.0,223.0,-46.0,60.0,-6.0,1
-109.0,-32.0,221.0,-48.0,60.0,-7.0,1
-109.0,-32.0,223.0,-49.0,60.0,-9.0,1
-107.0,-36.0,224.0,-50.0,58.0,-9.0,1
-107.0,-36.0,222.0,-49.0,57.0,-11.0,1
-107.0,-39.0,219.0,-50.0,58.0,-13.0,1
-110.0,-32.0,218.0,-52.0,58.0,-13.0,1
-109.0,-33.0,220.0,-52.0,60.0,-13.0,1
-106.0,-36.0,219.0,-53.0,61.0,-14.0,1
-110.0,-38.0,216.0,-53.0,60.0,-11.0,1
-111.0,-35.0,223.0,-52.0,60.0,-12.0,1
-108.0,-34.0,219.0,-53.0,60.0,-11.0,1
-109.0,-38.0,218.0,-50.0,58.0,-10.0,1
-109.0,-38.0,219.0,-47.0,57.0,-10.0,1
-112.0,-32.0,217.0,-41.0,56.0,-10.0,1
-108.0,-38.0,215.0,-37.0,55.0,-9.0,1
-108.0,-37.0,217.0,-34.0,54.0,-8.0,1
-106.0,-35.0,213.0,-29.0,54.0,-9.0,1
-110.0,-37.0,217.0,-28.0,55.0,-8.0,1
-106.0,-38.0,219.0,-28.0,54.0,-7.0,1
-107.0,-37.0,220.0,-27.0,56.0,-7.0,1
-109.0,-32.0,214.0,-27.0,58.0,-6.0,1
-107.0,-35.0,218.0,-29.0,60.0,-5.0,1
-110.0,-35.0,219.0,-29.0,61.0,-5.0,1
-110.0,-35.0,218.0,-29.0,63.0,-4.0,1
-110.0,-37.0,216.0,-30.0,66.0,-4.0,1
-108.0,-38.0,217.0,-30.0,65.0,-4.0,1
-108.0,-36.0,216.0,-30.0,65.0,-5.0,1
-108.0,-39.0,219.0,-32.0,64.0,-4.0,1
-107.0,-38.0,219.0,-33.0,64.0,-2.0,1
-109.0,-39.0,218.0,-35.0,64.0,-1.0,1
-107.0,-34.0,220.0,-35.0,65.0,-3.0,1
-109.0,-35.0,218.0,-34.0,64.0,-4.0,1
-108.0,-36.0,219.0,-34.0,64.0,-5.0,1
-107.0,-38.0,223.0,-35.0,64.0,-6.0,1
-101.0,-40.0,220.0,-34.0,64.0,-7.0,1
-106.0,-37.0,219.0,-34.0,64.0,-7.0,1
-109.0,-34.0,220.0,-35.0,66.0,-7.0,1
-106.0,-36.0,223.0,-35.0,66.0,-9.0,1
-108.0,-36.0,217.0,-34.0,66.0,-9.0,1
-107.0,-38.0,215.0,-33.0,66.0,-10.0,1
-109.0,-35.0,220.0,-34.0,66.0,-10.0,1
-109.0,-38.0,220.0,-34.0,66.0,-11.0,1
-108.0,-37.0,218.0,-34.0,64.0,-9.0,1
-106.0,-34.0,218.0,-34.0,65.0,-10.0,1
-107.0,-35.0,221.0,-35.0,64.0,-10.0,1
-112.0,-36.0,223.0,-35.0,63.0,-8.0,1
-108.0,-36.0,218.0,-36.0,63.0,-7.0,1
-107.0,-38.0,219.0,-36.0,64.0,-6.0,1
-110.0,-34.0,222.0,-35.0,66.0,-9.0,1
-106.0,-37.0,218.0,-37.0,65.0,-7.0,1
-108.0,-39.0,218.0,-37.0,63.0,-9.0,1
-109.0,-37.0,220.0,-37.0,62.0,-8.0,1
-108.0,-38.0,220.0,-39.0,62.0,-8.0,1
-109.0,-39.0,219.0,-40.0,62.0,-8.0,1
-110.0,-38.0,215.0,-39.0,64.0,-8.0,1
-107.0,-36.0,217.0,-38.0,62.0,-7.0,1
-109.0,-38.0,213.0,-36.0,62.0,-7.0,1
-111.0,-36.0,219.0,-34.0,62.0,-8.0,1
-108.0,-36.0,220.0,-33.0,63.0,-10.0,1
-106.0,-35.0,218.0,-34.0,61.0,-8.0,1
-109.0,-37.0,215.0,-36.0,59.0,-10.0,1
-110.0,-37.0,221.0,-34.0,57.0,-10.0,1
-107.0,-37.0,219.0,-33.0,55.0,-11.0,1
-106.0,-41.0,214.0,-31.0,57.0,-11.0,1
-108.0,-36.0,218.0,-29.0,54.0,-11.0,1
-107.0,-37.0,219.0,-27.0,54.0,-12.0,1
-107.0,-38.0,219.0,-24.0,52.0,-14.0,1
-108.0,-33.0,218.0,-24.0,52.0,-13.0,1
-106.0,-41.0,218.0,-25.0,54.0,-12.0,1
-107.0,-38.0,218.0,-26.0,51.0,-13.0,1
-109.0,-36.0,221.0,-27.0,49.0,-15.0,1
-109.0,-38.0,216.0,-28.0,50.0,-14.0,1
-107.0,-39.0,220.0,-29.0,48.0,-13.0,1
-109.0,-36.0,215.0,-31.0,46.0,-15.0,1
-111.0,-36.0,218.0,-33.0,45.0,-13.0,1
-105.0,-38.0,218.0,-35.0,44.0,-13.0,1
-108.0,-35.0,219.0,-35.0,45.0,-15.0,1
-109.0,-36.0,220.0,-36.0,45.0,-15.0,1
-106.0,-40.0,218.0,-34.0,44.0,-15.0,1
-108.0,-35.0,218.0,-32.0,47.0,-15.0,1
-108.0,-37.0,220.0,-30.0,47.0,-15.0,1
-102.0,-36.0,219.0,-33.0,50.0,-15.0,1
-110.0,-37.0,220.0,-33.0,53.0,-12.0,1
-110.0,-36.0,222.0,-35.0,56.0,-11.0,1
-109.0,-38.0,225.0,-36.0,60.0,-10.0,1
-105.0,-43.0,218.0,-39.0,60.0,-9.0,1
-106.0,-39.0,223.0,-44.0,63.0,-8.0,1
-104.0,-39.0,220.0,-47.0,64.0,-8.0,1
-106.0,-41.0,223.0,-51.0,66.0,-7.0,1
-108.0,-41.0,222.0,-54.0,67.0,-7.0,1
-104.0,-39.0,222.0,-57.0,69.0,-9.0,1
-105.0,-42.0,221.0,-61.0,69.0,-9.0,1
-106.0,-42.0,218.0,-65.0,70.0,-8.0,1
-105.0,-38.0,222.0,-71.0,70.0,-8.0,1
-102.0,-43.0,221.0,-77.0,69.0,-9.0,1
-106.0,-40.0,221.0,-83.0,67.0,-9.0,1
-104.0,-41.0,222.0,-87.0,64.0,-9.0,1
-105.0,-42.0,220.0,-91.0,62.0,-9.0,1
-103.0,-38.0,219.0,-90.0,58.0,-9.0,1
-103.0,-39.0,220.0,-87.0,57.0,-10.0,1
-106.0,-43.0,220.0,-86.0,52.0,-10.0,1
-105.0,-41.0,217.0,-84.0,49.0,-7.0,1
-106.0,-41.0,218.0,-80.0,49.0,-7.0,1
-106.0,-43.0,218.0,-76.0,48.0,-8.0,1
-106.0,-42.0,216.0,-71.0,51.0,-9.0,1
-109.0,-38.0,223.0,-66.0,52.0,-10.0,1
-112.0,-39.0,219.0,-60.0,53.0,-14.0,1
-109.0,-43.0,217.0,-57.0,53.0,-16.0,1
-111.0,-39.0,221.0,-53.0,55.0,-20.0,1
-109.0,-39.0,217.0,-51.0,57.0,-26.0,1
-111.0,-39.0,220.0,-48.0,60.0,-28.0,1
-110.0,-40.0,219.0,-44.0,63.0,-29.0,1
-113.0,-39.0,220.0,-43.0,67.0,-31.0,1
-111.0,-36.0,216.0,-41.0,68.0,-33.0,1
-111.0,-37.0,220.0,-41.0,71.0,-34.0,1
-109.0,-38.0,218.0,-41.0,74.0,-33.0,1
-107.0,-37.0,218.0,-44.0,77.0,-32.0,1
-109.0,-38.0,220.0,-47.0,80.0,-32.0,1
-107.0,-39.0,219.0,-49.0,82.0,-31.0,1
-108.0,-36.0,220.0,-52.0,82.0,-31.0,1
-108.0,-37.0,215.0,-53.0,80.0,-30.0,1
-109.0,-39.0,217.0,-53.0,79.0,-28.0,1
-105.0,-43.0,217.0,-53.0,77.0,-28.0,1
-109.0,-39.0,216.0,-51.0,75.0,-27.0,1
-106.0,-40.0,219.0,-49.0,73.0,-26.0,1
-106.0,-41.0,217.0,-49.0,70.0,-28.0,1
-105.0,-38.0,220.0,-47.0,67.0,-26.0,1
-105.0,-40.0,215.0,-46.0,64.0,-25.0,1
-119.0,-38.0,222.0,-45.0,60.0,-22.0,1
-103.0,-42.0,220.0,-45.0,56.0,-19.0,1
-102.0,-42.0,220.0,-46.0,54.0,-16.0,1
-102.0,-44.0,222.0,-47.0,51.0,-15.0,1
-101.0,-43.0,220.0,-49.0,49.0,-13.0,1
-103.0,-40.0,223.0,-53.0,48.0,-11.0,1
-101.0,-42.0,224.0,-56.0,47.0,-10.0,1
-103.0,-40.0,223.0,-58.0,47.0,-9.0,1
-104.0,-43.0,220.0,-61.0,46.0,-7.0,1
-103.0,-38.0,223.0,-64.0,45.0,-6.0,1
-102.0,-47.0,222.0,-69.0,47.0,-4.0,1
-104.0,-42.0,223.0,-74.0,47.0,-2.0,1
-103.0,-46.0,219.0,-77.0,47.0,-3.0,1
-105.0,-42.0,220.0,-81.0,46.0,-3.0,1
-105.0,-42.0,222.0,-81.0,44.0,-2.0,1
-104.0,-46.0,220.0,-84.0,44.0,-3.0,1
-102.0,-47.0,219.0,-82.0,48.0,-1.0,1
-107.0,-44.0,216.0,-80.0,49.0,-2.0,1
-104.0,-42.0,217.0,-76.0,49.0,-3.0,1
-106.0,-46.0,214.0,-73.0,52.0,-5.0,1
-106.0,-47.0,219.0,-67.0,52.0,-5.0,1
-108.0,-45.0,211.0,-60.0,56.0,-4.0,1
-108.0,-38.0,213.0,-50.0,58.0,-3.0,1
-106.0,-44.0,216.0,-42.0,61.0,-2.0,1
-109.0,-43.0,217.0,-35.0,64.0,-3.0,1
-107.0,-42.0,215.0,-31.0,67.0,-3.0,1
-107.0,-43.0,219.0,-28.0,70.0,-2.0,1
-112.0,-41.0,219.0,-24.0,71.0,-2.0,1
-109.0,-43.0,216.0,-25.0,73.0,-2.0,1
-106.0,-43.0,215.0,-25.0,75.0,-3.0,1
-108.0,-43.0,216.0,-26.0,75.0,-4.0,1
-109.0,-40.0,216.0,-29.0,74.0,-5.0,1
-106.0,-44.0,218.0,-34.0,76.0,-7.0,1
-109.0,-43.0,223.0,-41.0,76.0,-9.0,1
-108.0,-43.0,216.0,-44.0,75.0,-11.0,1
-104.0,-47.0,222.0,-49.0,73.0,-13.0,1
-101.0,-45.0,217.0,-51.0,72.0,-13.0,1
-110.0,-47.0,221.0,-53.0,74.0,-12.0,1
-107.0,-44.0,221.0,-48.0,70.0,-13.0,1
-106.0,-46.0,217.0,-37.0,66.0,-13.0,1
-108.0,-43.0,212.0,-29.0,64.0,-14.0,1
-107.0,-42.0,216.0,-22.0,63.0,-14.0,1
-105.0,-42.0,215.0,-16.0,64.0,-15.0,1
-107.0,-40.0,220.0,-13.0,65.0,-15.0,1
-107.0,-42.0,216.0,-11.0,68.0,-15.0,1
-106.0,-41.0,217.0,-10.0,71.0,-15.0,1
-107.0,-40.0,216.0,-10.0,72.0,-16.0,1
-103.0,-41.0,220.0,-11.0,75.0,-15.0,1
-102.0,-42.0,223.0,-15.0,76.0,-15.0,1
-106.0,-38.0,220.0,-15.0,76.0,-15.0,1
-107.0,-41.0,222.0,-13.0,73.0,-15.0,1
-107.0,-41.0,216.0,-13.0,72.0,-16.0,1
-103.0,-41.0,220.0,-9.0,71.0,-16.0,1
-102.0,-44.0,218.0,-10.0,70.0,-17.0,1
-103.0,-45.0,220.0,-11.0,70.0,-17.0,1
-107.0,-42.0,222.0,-10.0,71.0,-18.0,1
-104.0,-44.0,218.0,-12.0,70.0,-18.0,1
-105.0,-42.0,217.0,-14.0,69.0,-18.0,1
-106.0,-40.0,220.0,-16.0,70.0,-16.0,1
-107.0,-42.0,220.0,-19.0,73.0,-14.0,1
-105.0,-43.0,217.0,-22.0,74.0,-10.0,1
-108.0,-44.0,220.0,-25.0,75.0,-10.0,1
-102.0,-43.0,220.0,-28.0,77.0,-7.0,1
-106.0,-38.0,217.0,-29.0,76.0,-5.0,1
-105.0,-42.0,216.0,-31.0,76.0,-3.0,1
-111.0,-42.0,215.0,-33.0,75.0,-2.0,1
-104.0,-44.0,217.0,-31.0,71.0,-2.0,1
-106.0,-48.0,213.0,-28.0,69.0,0.0,1
-103.0,-49.0,217.0,-25.0,65.0,1.0,1
-106.0,-46.0,215.0,-17.0,62.0,3.0,1
-106.0,-48.0,213.0,-12.0,62.0,3.0,1
-107.0,-43.0,219.0,-8.0,61.0,4.0,1
-107.0,-46.0,216.0,-3.0,59.0,6.0,1
-103.0,-47.0,220.0,-1.0,58.0,7.0,1
-106.0,-45.0,216.0,1.0,58.0,7.0,1
-107.0,-44.0,216.0,1.0,58.0,7.0,1
-106.0,-44.0,217.0,1.0,60.0,8.0,1
-104.0,-45.0,212.0,0.0,61.0,9.0,1
-106.0,-44.0,216.0,-1.0,62.0,8.0,1
-105.0,-49.0,216.0,-4.0,62.0,6.0,1
-105.0,-43.0,218.0,-4.0,62.0,6.0,1
-104.0,-44.0,217.0,-4.0,63.0,4.0,1
-103.0,-46.0,217.0,-4.0,62.0,2.0,1
-106.0,-46.0,219.0,-4.0,61.0,0.0,1
-104.0,-46.0,214.0,-2.0,60.0,-2.0,1
-107.0,-44.0,216.0,0.0,62.0,-2.0,1
-108.0,-44.0,219.0,2.0,63.0,-2.0,1
-108.0,-43.0,220.0,2.0,66.0,-2.0,1
-105.0,-40.0,213.0,5.0,71.0,-2.0,1
-106.0,-44.0,221.0,5.0,75.0,-3.0,1
-104.0,-44.0,222.0,9.0,78.0,-1.0,1
-106.0,-45.0,220.0,12.0,80.0,0.0,1
-107.0,-46.0,221.0,13.0,80.0,-2.0,1
-105.0,-44.0,218.0,15.0,79.0,-2.0,1
-109.0,-43.0,219.0,14.0,78.0,-2.0,1
-105.0,-45.0,217.0,17.0,75.0,-2.0,1
-103.0,-41.0,217.0,18.0,72.0,-2.0,1
-106.0,-44.0,225.0,18.0,70.0,-2.0,1
-106.0,-44.0,217.0,19.0,67.0,-1.0,1
-107.0,-45.0,217.0,18.0,65.0,-2.0,1
-107.0,-42.0,216.0,20.0,65.0,-1.0,1
-103.0,-45.0,218.0,20.0,65.0,-2.0,1
-109.0,-41.0,215.0,22.0,66.0,-3.0,1
-105.0,-42.0,219.0,25.0,67.0,0.0,1
-104.0,-44.0,219.0,25.0,68.0,1.0,1
-105.0,-44.0,218.0,26.0,72.0,3.0,1
-102.0,-43.0,220.0,24.0,75.0,3.0,1
-106.0,-42.0,217.0,24.0,75.0,4.0,1
-105.0,-44.0,217.0,21.0,75.0,6.0,1
-107.0,-42.0,219.0,22.0,76.0,7.0,1
-102.0,-43.0,218.0,22.0,76.0,7.0,1
-105.0,-44.0,216.0,23.0,75.0,7.0,1
-104.0,-44.0,221.0,24.0,75.0,6.0,1
-104.0,-44.0,219.0,24.0,77.0,5.0,1
-109.0,-43.0,218.0,24.0,76.0,4.0,1
-104.0,-44.0,218.0,26.0,77.0,4.0,1
-107.0,-42.0,219.0,27.0,76.0,3.0,1
-110.0,-40.0,219.0,29.0,76.0,2.0,1
-102.0,-39.0,218.0,31.0,76.0,2.0,1
-107.0,-42.0,218.0,32.0,77.0,1.0,1
-105.0,-42.0,218.0,34.0,80.0,3.0,1
-104.0,-41.0,217.0,34.0,82.0,2.0,1
-107.0,-37.0,220.0,33.0,84.0,4.0,1
-108.0,-43.0,220.0,30.0,87.0,3.0,1
-105.0,-40.0,220.0,25.0,87.0,3.0,1
-107.0,-40.0,220.0,20.0,87.0,6.0,1
-105.0,-40.0,218.0,14.0,85.0,4.0,1
-106.0,-41.0,222.0,7.0,84.0,7.0,1
-105.0,-40.0,219.0,2.0,81.0,9.0,1
-107.0,-41.0,222.0,-4.0,80.0,9.0,1
-109.0,-40.0,220.0,-7.0,77.0,9.0,1
-106.0,-41.0,218.0,-9.0,76.0,8.0,1
-106.0,-41.0,215.0,-11.0,72.0,8.0,1
-102.0,-43.0,220.0,-11.0,70.0,7.0,1
-106.0,-43.0,216.0,-10.0,69.0,8.0,1
-105.0,-43.0,215.0,-6.0,68.0,8.0,1
-107.0,-40.0,218.0,-6.0,67.0,8.0,1
-107.0,-40.0,220.0,-3.0,67.0,10.0,1
-107.0,-42.0,220.0,-2.0,67.0,9.0,1
-107.0,-41.0,214.0,1.0,69.0,11.0,1
-103.0,-42.0,217.0,3.0,71.0,9.0,1
-104.0,-44.0,219.0,5.0,73.0,11.0,1
-106.0,-41.0,215.0,7.0,74.0,11.0,1
-108.0,-42.0,220.0,7.0,74.0,11.0,1
-105.0,-42.0,218.0,6.0,75.0,11.0,1
-106.0,-43.0,213.0,6.0,76.0,10.0,1
-105.0,-43.0,218.0,5.0,75.0,10.0,1
-105.0,-41.0,217.0,4.0,75.0,9.0,1
-107.0,-42.0,220.0,2.0,74.0,9.0,1
-106.0,-39.0,219.0,2.0,73.0,8.0,1
-110.0,-37.0,218.0,-1.0,74.0,7.0,1
-108.0,-41.0,218.0,-3.0,75.0,8.0,1
-104.0,-40.0,215.0,-3.0,75.0,5.0,1
-112.0,-41.0,221.0,-2.0,74.0,7.0,1
-106.0,-40.0,218.0,-4.0,73.0,5.0,1
-108.0,-41.0,216.0,-2.0,74.0,3.0,1
-108.0,-42.0,217.0,0.0,75.0,3.0,1
-105.0,-39.0,217.0,1.0,75.0,1.0,1
-108.0,-45.0,216.0,3.0,74.0,-1.0,1
-106.0,-44.0,220.0,3.0,75.0,-2.0,1
-105.0,-44.0,217.0,5.0,74.0,-2.0,1
-106.0,-41.0,218.0,7.0,75.0,-1.0,1
-106.0,-42.0,219.0,8.0,77.0,-1.0,1
-104.0,-41.0,219.0,11.0,79.0,-1.0,1
-109.0,-43.0,216.0,12.0,79.0,0.0,1
-108.0,-42.0,218.0,15.0,80.0,-1.0,1
-109.0,-40.0,215.0,16.0,80.0,0.0,1
-107.0,-40.0,218.0,15.0,78.0,-2.0,1
-105.0,-41.0,213.0,14.0,77.0,-1.0,1
-105.0,-42.0,220.0,14.0,77.0,-1.0,1
-108.0,-41.0,219.0,14.0,77.0,-3.0,1
-107.0,-41.0,217.0,14.0,74.0,-3.0,1
-106.0,-42.0,219.0,13.0,73.0,-4.0,1
-108.0,-38.0,216.0,13.0,72.0,-3.0,1
-107.0,-40.0,219.0,14.0,72.0,-3.0,1
-108.0,-40.0,219.0,15.0,73.0,-3.0,1
-108.0,-37.0,218.0,15.0,74.0,-1.0,1
-107.0,-40.0,219.0,13.0,74.0,0.0,1
-108.0,-38.0,216.0,13.0,73.0,0.0,1
-111.0,-37.0,217.0,15.0,73.0,2.0,1
-105.0,-39.0,219.0,15.0,74.0,1.0,1
-107.0,-39.0,218.0,16.0,74.0,-2.0,1
-107.0,-39.0,216.0,17.0,73.0,-1.0,1
-108.0,-39.0,219.0,17.0,71.0,-1.0,1
-104.0,-40.0,218.0,18.0,67.0,0.0,1
-106.0,-41.0,218.0,18.0,68.0,0.0,1
-105.0,-42.0,215.0,19.0,67.0,1.0,1
-105.0,-40.0,218.0,21.0,67.0,2.0,1
-106.0,-43.0,218.0,23.0,67.0,3.0,1
-106.0,-40.0,218.0,26.0,65.0,3.0,1
-105.0,-41.0,217.0,29.0,63.0,3.0,1
-106.0,-39.0,219.0,30.0,61.0,2.0,1
-106.0,-43.0,216.0,31.0,60.0,3.0,1
-108.0,-41.0,216.0,31.0,60.0,3.0,1
-108.0,-38.0,220.0,31.0,60.0,3.0,1
-109.0,-36.0,218.0,32.0,60.0,5.0,1
-107.0,-41.0,219.0,32.0,62.0,5.0,1
-105.0,-39.0,217.0,34.0,61.0,7.0,1
-105.0,-42.0,219.0,35.0,62.0,7.0,1
-103.0,-41.0,221.0,37.0,62.0,6.0,1
-105.0,-37.0,218.0,36.0,64.0,9.0,1
-106.0,-36.0,219.0,35.0,67.0,9.0,1
-105.0,-40.0,223.0,35.0,67.0,9.0,1
-108.0,-39.0,222.0,32.0,68.0,8.0,1
-105.0,-42.0,221.0,29.0,67.0,8.0,1
-103.0,-39.0,221.0,28.0,69.0,8.0,1
-102.0,-40.0,221.0,23.0,69.0,7.0,1
-107.0,-39.0,218.0,22.0,68.0,5.0,1
-107.0,-42.0,219.0,20.0,69.0,5.0,1
-107.0,-35.0,215.0,20.0,71.0,4.0,1
-107.0,-38.0,221.0,21.0,72.0,4.0,1
-109.0,-37.0,216.0,24.0,74.0,3.0,1
-107.0,-38.0,220.0,25.0,74.0,3.0,1
-108.0,-39.0,219.0,28.0,76.0,2.0,1
-109.0,-36.0,217.0,30.0,77.0,0.0,1
-106.0,-39.0,218.0,31.0,78.0,1.0,1
-110.0,-38.0,221.0,33.0,78.0,0.0,1
-105.0,-38.0,222.0,36.0,79.0,-1.0,1
-104.0,-32.0,224.0,40.0,79.0,-1.0,1
-107.0,-37.0,221.0,42.0,77.0,1.0,1
-108.0,-39.0,220.0,44.0,77.0,2.0,1
-110.0,-36.0,221.0,45.0,77.0,0.0,1
-111.0,-35.0,219.0,45.0,77.0,-2.0,1
-107.0,-36.0,220.0,43.0,79.0,-6.0,1
-105.0,-40.0,217.0,40.0,81.0,-6.0,1
-107.0,-38.0,220.0,35.0,83.0,-6.0,1
-107.0,-40.0,221.0,31.0,85.0,-6.0,1
-108.0,-38.0,220.0,28.0,84.0,-5.0,1
-106.0,-38.0,220.0,27.0,84.0,-6.0,1
-105.0,-41.0,220.0,26.0,83.0,-4.0,1
-106.0,-39.0,218.0,29.0,84.0,-4.0,1
-107.0,-38.0,220.0,32.0,82.0,-3.0,1
-109.0,-35.0,217.0,39.0,81.0,-3.0,1
-105.0,-38.0,219.0,45.0,79.0,0.0,1
-106.0,-35.0,216.0,53.0,79.0,3.0,1
-108.0,-36.0,218.0,54.0,77.0,4.0,1
-109.0,-36.0,217.0,57.0,74.0,9.0,1
-108.0,-32.0,219.0,62.0,73.0,10.0,1
-107.0,-34.0,221.0,67.0,74.0,8.0,1
-107.0,-33.0,220.0,67.0,73.0,7.0,1
-104.0,-31.0,221.0,64.0,73.0,7.0,1
-106.0,-34.0,222.0,63.0,74.0,5.0,1
-105.0,-33.0,220.0,60.0,74.0,3.0,1
-106.0,-34.0,224.0,56.0,74.0,3.0,1
-107.0,-33.0,219.0,53.0,72.0,2.0,1
-108.0,-35.0,218.0,52.0,75.0,2.0,1
-105.0,-35.0,222.0,49.0,77.0,0.0,1
-109.0,-35.0,221.0,46.0,78.0,0.0,1
-105.0,-35.0,217.0,43.0,78.0,-1.0,1
-107.0,-36.0,221.0,41.0,79.0,0.0,1
-109.0,-34.0,221.0,41.0,83.0,3.0,1
-106.0,-37.0,218.0,39.0,82.0,0.0,1
-109.0,-35.0,218.0,38.0,83.0,2.0,1
