ax,ay,az,gx,gy,gz,label
8.0,-246.0,-95.0,-60.0,22.0,-9.0,1
-1.0,-223.0,-110.0,-62.0,22.0,-10.0,1
6.0,-250.0,-90.0,-61.0,23.0,-9.0,1
10.0,-246.0,-97.0,-59.0,22.0,-10.0,1
11.0,-248.0,-96.0,-58.0,20.0,-10.0,1
13.0,-247.0,-94.0,-58.0,20.0,-9.0,1
11.0,-249.0,-96.0,-56.0,19.0,-10.0,1
9.0,-246.0,-97.0,-57.0,19.0,-9.0,1
10.0,-247.0,-98.0,-57.0,18.0,-10.0,1
8.0,-245.0,-100.0,-58.0,17.0,-9.0,1
8.0,-247.0,-97.0,-58.0,16.0,-9.0,1
9.0,-249.0,-101.0,-55.0,17.0,-9.0,1
9.0,-244.0,-99.0,-56.0,16.0,-10.0,1
11.0,-249.0,-95.0,-56.0,17.0,-9.0,1
10.0,-245.0,-96.0,-55.0,17.0,-9.0,1
11.0,-243.0,-96.0,-53.0,18.0,-9.0,1
12.0,-247.0,-98.0,-53.0,19.0,-8.0,1
13.0,-247.0,-99.0,-55.0,19.0,-7.0,1
9.0,-246.0,-99.0,-55.0,21.0,-7.0,1
11.0,-247.0,-99.0,-56.0,22.0,-6.0,1
12.0,-246.0,-98.0,-58.0,24.0,-7.0,1
13.0,-246.0,-98.0,-57.0,25.0,-7.0,1
15.0,-249.0,-94.0,-59.0,27.0,-6.0,1
12.0,-247.0,-96.0,-57.0,26.0,-6.0,1
13.0,-248.0,-97.0,-58.0,26.0,-8.0,1
8.0,-247.0,-94.0,-57.0,27.0,-9.0,1
13.0,-246.0,-94.0,-57.0,26.0,-8.0,1
14.0,-246.0,-99.0,-58.0,23.0,-11.0,1
14.0,-247.0,-95.0,-59.0,21.0,-13.0,1
12.0,-245.0,-95.0,-57.0,19.0,-13.0,1
11.0,-248.0,-95.0,-58.0,17.0,-14.0,1
13.0,-248.0,-98.0,-58.0,16.0,-14.0,1
14.0,-247.0,-100.0,-55.0,15.0,-12.0,1
14.0,-247.0,-100.0,-52.0,14.0,-14.0,1
14.0,-248.0,-99.0,-50.0,14.0,-14.0,1
14.0,-246.0,-98.0,-48.0,15.0,-13.0,1
11.0,-248.0,-97.0,-45.0,15.0,-11.0,1
12.0,-247.0,-99.0,-44.0,17.0,-11.0,1
15.0,-249.0,-101.0,-42.0,18.0,-9.0,1
9.0,-247.0,-99.0,-42.0,19.0,-9.0,1
11.0,-245.0,-97.0,-41.0,19.0,-8.0,1
14.0,-245.0,-101.0,-41.0,18.0,-6.0,1
12.0,-245.0,-94.0,-41.0,17.0,-7.0,1
10.0,-243.0,-99.0,-40.0,15.0,-6.0,1
11.0,-246.0,-97.0,-40.0,15.0,-7.0,1
8.0,-246.0,-95.0,-39.0,15.0,-8.0,1
11.0,-248.0,-97.0,-40.0,16.0,-10.0,1
10.0,-244.0,-97.0,-42.0,15.0,-9.0,1
12.0,-247.0,-93.0,-41.0,15.0,-9.0,1
6.0,-247.0,-97.0,-43.0,15.0,-9.0,1
12.0,-244.0,-96.0,-44.0,15.0,-8.0,1
11.0,-248.0,-100.0,-44.0,15.0,-7.0,1
10.0,-248.0,-94.0,-45.0,16.0,-6.0,1
10.0,-247.0,-100.0,-48.0,16.0,-5.0,1
12.0,-248.0,-99.0,-51.0,16.0,-6.0,1
12.0,-247.0,-97.0,-52.0,17.0,-5.0,1
14.0,-247.0,-97.0,-57.0,17.0,-8.0,1
12.0,-245.0,-98.0,-63.0,19.0,-9.0,1
12.0,-244.0,-97.0,-68.0,21.0,-13.0,1
13.0,-246.0,-96.0,-70.0,21.0,-14.0,1
14.0,-246.0,-97.0,-72.0,23.0,-16.0,1
15.0,-247.0,-97.0,-73.0,23.0,-14.0,1
14.0,-244.0,-98.0,-72.0,24.0,-14.0,1
13.0,-246.0,-97.0,-64.0,25.0,-12.0,1
16.0,-249.0,-98.0,-56.0,26.0,-10.0,1
12.0,-247.0,-95.0,-45.0,27.0,-9.0,1
13.0,-248.0,-99.0,-35.0,25.0,-8.0,1
11.0,-249.0,-102.0,-23.0,24.0,-6.0,1
12.0,-246.0,-96.0,-15.0,24.0,-4.0,1
12.0,-248.0,-98.0,-10.0,21.0,-2.0,1
14.0,-249.0,-99.0,-6.0,16.0,-2.0,1
11.0,-250.0,-96.0,-6.0,13.0,-1.0,1
14.0,-248.0,-101.0,-12.0,8.0,0.0,1
12.0,-246.0,-100.0,-19.0,6.0,1.0,1
14.0,-246.0,-96.0,-28.0,4.0,0.0,1
14.0,-247.0,-101.0,-37.0,4.0,-1.0,1
10.0,-239.0,-95.0,-48.0,5.0,-3.0,1
12.0,-245.0,-95.0,-57.0,7.0,-4.0,1
11.0,-245.0,-96.0,-64.0,11.0,-5.0,1
11.0,-242.0,-96.0,-70.0,16.0,-5.0,1
7.0,-245.0,-97.0,-72.0,22.0,-5.0,1
6.0,-244.0,-92.0,-71.0,27.0,-6.0,1
10.0,-247.0,-93.0,-70.0,29.0,-4.0,1
11.0,-247.0,-95.0,-69.0,32.0,-5.0,1
13.0,-248.0,-93.0,-63.0,32.0,-4.0,1
11.0,-249.0,-96.0,-60.0,33.0,-2.0,1
12.0,-250.0,-96.0,-55.0,31.0,-1.0,1
11.0,-247.0,-92.0,-51.0,29.0,1.0,1
13.0,-249.0,-94.0,-45.0,25.0,3.0,1
13.0,-250.0,-102.0,-41.0,22.0,4.0,1
13.0,-247.0,-94.0,-37.0,19.0,5.0,1
11.0,-250.0,-94.0,-32.0,16.0,8.0,1
10.0,-248.0,-98.0,-28.0,15.0,11.0,1
13.0,-248.0,-98.0,-29.0,14.0,11.0,1
10.0,-247.0,-94.0,-29.0,12.0,11.0,1
13.0,-248.0,-92.0,-27.0,10.0,11.0,1
15.0,-248.0,-92.0,-30.0,8.0,11.0,1
13.0,-246.0,-95.0,-33.0,7.0,9.0,1
13.0,-247.0,-94.0,-36.0,7.0,9.0,1
12.0,-244.0,-94.0,-38.0,7.0,7.0,1
12.0,-245.0,-97.0,-38.0,9.0,7.0,1
10.0,-246.0,-93.0,-39.0,10.0,6.0,1
13.0,-244.0,-98.0,-40.0,12.0,5.0,1
11.0,-247.0,-96.0,-39.0,12.0,3.0,1
11.0,-246.0,-98.0,-38.0,13.0,3.0,1
14.0,-246.0,-95.0,-38.0,13.0,2.0,1
12.0,-244.0,-100.0,-40.0,12.0,3.0,1
13.0,-245.0,-100.0,-39.0,12.0,1.0,1
15.0,-245.0,-100.0,-44.0,12.0,-1.0,1
12.0,-246.0,-100.0,-47.0,11.0,-2.0,1
12.0,-248.0,-96.0,-50.0,12.0,-2.0,1
13.0,-247.0,-99.0,-56.0,11.0,-3.0,1
12.0,-246.0,-97.0,-62.0,11.0,-3.0,1
12.0,-243.0,-98.0,-67.0,11.0,-2.0,1
8.0,-244.0,-96.0,-71.0,14.0,-3.0,1
11.0,-246.0,-99.0,-73.0,15.0,-1.0,1
13.0,-246.0,-98.0,-73.0,17.0,-2.0,1
13.0,-250.0,-96.0,-74.0,18.0,-1.0,1
14.0,-247.0,-102.0,-71.0,18.0,0.0,1
12.0,-245.0,-98.0,-68.0,19.0,0.0,1
11.0,-246.0,-98.0,-65.0,19.0,1.0,1
11.0,-247.0,-97.0,-64.0,18.0,1.0,1
11.0,-247.0,-99.0,-64.0,17.0,2.0,1
15.0,-246.0,-105.0,-62.0,15.0,2.0,1
15.0,-248.0,-98.0,-62.0,14.0,2.0,1
10.0,-247.0,-99.0,-61.0,12.0,2.0,1
12.0,-248.0,-98.0,-60.0,12.0,0.0,1
11.0,-247.0,-96.0,-62.0,12.0,0.0,1
11.0,-247.0,-102.0,-64.0,13.0,-2.0,1
11.0,-244.0,-102.0,-65.0,15.0,-2.0,1
11.0,-247.0,-100.0,-65.0,16.0,-2.0,1
15.0,-247.0,-97.0,-67.0,16.0,-4.0,1
9.0,-247.0,-96.0,-67.0,17.0,-3.0,1
11.0,-245.0,-97.0,-70.0,20.0,-2.0,1
26.0,-246.0,-92.0,-71.0,20.0,-1.0,1
10.0,-243.0,-99.0,-72.0,23.0,-2.0,1
14.0,-249.0,-97.0,-73.0,23.0,-1.0,1
12.0,-247.0,-96.0,-75.0,21.0,-1.0,1
11.0,-246.0,-97.0,-72.0,20.0,2.0,1
11.0,-246.0,-97.0,-70.0,20.0,4.0,1
10.0,-244.0,-101.0,-67.0,19.0,5.0,1
12.0,-248.0,-99.0,-66.0,19.0,4.0,1
11.0,-248.0,-100.0,-62.0,17.0,5.0,1
9.0,-247.0,-97.0,-61.0,15.0,5.0,1
12.0,-249.0,-98.0,-60.0,13.0,6.0,1
14.0,-238.0,-117.0,-60.0,11.0,5.0,1
11.0,-248.0,-98.0,-58.0,10.0,6.0,1
8.0,-248.0,-97.0,-56.0,11.0,4.0,1
11.0,-246.0,-98.0,-53.0,13.0,3.0,1
10.0,-247.0,-100.0,-53.0,14.0,2.0,1
9.0,-248.0,-95.0,-52.0,16.0,2.0,1
10.0,-247.0,-98.0,-50.0,17.0,3.0,1
7.0,-248.0,-92.0,-50.0,18.0,3.0,1
9.0,-246.0,-99.0,-49.0,19.0,4.0,1
9.0,-249.0,-98.0,-49.0,20.0,5.0,1
8.0,-246.0,-97.0,-48.0,20.0,5.0,1
17.0,-245.0,-85.0,-48.0,22.0,7.0,1
10.0,-248.0,-98.0,-49.0,21.0,6.0,1
9.0,-248.0,-96.0,-49.0,20.0,7.0,1
10.0,-247.0,-99.0,-47.0,20.0,7.0,1
9.0,-245.0,-102.0,-47.0,19.0,7.0,1
13.0,-246.0,-98.0,-48.0,18.0,8.0,1
11.0,-247.0,-98.0,-48.0,16.0,7.0,1
9.0,-245.0,-98.0,-49.0,15.0,6.0,1
10.0,-248.0,-97.0,-52.0,15.0,5.0,1
12.0,-247.0,-100.0,-55.0,15.0,6.0,1
12.0,-242.0,-101.0,-57.0,15.0,4.0,1
10.0,-245.0,-95.0,-61.0,16.0,3.0,1
15.0,-248.0,-102.0,-61.0,16.0,3.0,1
9.0,-244.0,-99.0,-62.0,17.0,2.0,1
11.0,-246.0,-98.0,-61.0,19.0,2.0,1
10.0,-245.0,-101.0,-64.0,19.0,1.0,1
12.0,-247.0,-99.0,-63.0,19.0,2.0,1
11.0,-248.0,-97.0,-64.0,17.0,3.0,1
12.0,-246.0,-103.0,-64.0,17.0,1.0,1
11.0,-246.0,-98.0,-65.0,16.0,3.0,1
11.0,-248.0,-95.0,-64.0,16.0,2.0,1
12.0,-247.0,-101.0,-63.0,18.0,3.0,1
14.0,-247.0,-95.0,-63.0,18.0,3.0,1
11.0,-248.0,-96.0,-61.0,19.0,5.0,1
9.0,-248.0,-102.0,-60.0,20.0,4.0,1
8.0,-244.0,-93.0,-59.0,19.0,4.0,1
11.0,-245.0,-96.0,-57.0,19.0,4.0,1
10.0,-245.0,-100.0,-60.0,19.0,3.0,1
8.0,-245.0,-95.0,-59.0,18.0,4.0,1
11.0,-247.0,-93.0,-60.0,17.0,3.0,1
15.0,-247.0,-98.0,-60.0,15.0,2.0,1
11.0,-245.0,-96.0,-59.0,14.0,3.0,1
11.0,-248.0,-98.0,-58.0,13.0,1.0,1
10.0,-245.0,-97.0,-59.0,12.0,1.0,1
10.0,-247.0,-97.0,-57.0,11.0,1.0,1
11.0,-247.0,-96.0,-55.0,11.0,2.0,1
13.0,-247.0,-100.0,-54.0,10.0,3.0,1
10.0,-247.0,-98.0,-55.0,12.0,3.0,1
13.0,-248.0,-100.0,-51.0,13.0,2.0,1
13.0,-248.0,-101.0,-53.0,14.0,3.0,1
12.0,-247.0,-102.0,-53.0,15.0,3.0,1
12.0,-247.0,-102.0,-52.0,16.0,4.0,1
10.0,-247.0,-101.0,-54.0,16.0,3.0,1
12.0,-246.0,-97.0,-53.0,19.0,2.0,1
13.0,-248.0,-100.0,-52.0,19.0,3.0,1
9.0,-247.0,-101.0,-51.0,20.0,2.0,1
9.0,-247.0,-100.0,-49.0,21.0,3.0,1
13.0,-247.0,-98.0,-47.0,19.0,3.0,1
11.0,-246.0,-95.0,-47.0,20.0,2.0,1
12.0,-247.0,-101.0,-48.0,19.0,1.0,1
10.0,-247.0,-103.0,-47.0,17.0,2.0,1
9.0,-248.0,-97.0,-47.0,17.0,1.0,1
10.0,-246.0,-102.0,-47.0,17.0,1.0,1
8.0,-245.0,-97.0,-48.0,18.0,3.0,1
12.0,-247.0,-97.0,-49.0,20.0,5.0,1
11.0,-247.0,-99.0,-49.0,19.0,7.0,1
11.0,-249.0,-96.0,-49.0,20.0,7.0,1
12.0,-244.0,-100.0,-48.0,21.0,7.0,1
14.0,-247.0,-98.0,-48.0,21.0,6.0,1
14.0,-246.0,-102.0,-48.0,21.0,5.0,1
10.0,-242.0,-99.0,-46.0,19.0,5.0,1
12.0,-244.0,-99.0,-48.0,15.0,4.0,1
8.0,-243.0,-101.0,-49.0,12.0,3.0,1
12.0,-245.0,-101.0,-49.0,12.0,3.0,1
13.0,-246.0,-102.0,-49.0,12.0,2.0,1
11.0,-247.0,-101.0,-48.0,11.0,2.0,1
9.0,-245.0,-101.0,-44.0,12.0,2.0,1
12.0,-247.0,-101.0,-39.0,13.0,1.0,1
9.0,-248.0,-103.0,-34.0,14.0,2.0,1
7.0,-245.0,-101.0,-30.0,16.0,0.0,1
10.0,-248.0,-102.0,-28.0,17.0,0.0,1
13.0,-249.0,-101.0,-24.0,17.0,1.0,1
9.0,-247.0,-101.0,-26.0,17.0,3.0,1
10.0,-247.0,-100.0,-29.0,16.0,3.0,1
10.0,-248.0,-98.0,-32.0,16.0,6.0,1
10.0,-247.0,-105.0,-36.0,14.0,4.0,1
11.0,-245.0,-99.0,-39.0,12.0,3.0,1
10.0,-246.0,-95.0,-42.0,9.0,2.0,1
8.0,-244.0,-98.0,-45.0,7.0,2.0,1
8.0,-245.0,-102.0,-45.0,7.0,0.0,1
10.0,-243.0,-100.0,-47.0,7.0,-2.0,1
7.0,-244.0,-97.0,-49.0,8.0,-3.0,1
7.0,-242.0,-96.0,-51.0,12.0,-1.0,1
6.0,-246.0,-99.0,-52.0,15.0,-2.0,1
7.0,-243.0,-99.0,-51.0,19.0,-1.0,1
9.0,-247.0,-98.0,-49.0,23.0,-1.0,1
8.0,-246.0,-96.0,-49.0,24.0,0.0,1
7.0,-246.0,-96.0,-47.0,24.0,1.0,1
6.0,-246.0,-100.0,-46.0,23.0,2.0,1
11.0,-245.0,-99.0,-41.0,22.0,3.0,1
12.0,-248.0,-96.0,-37.0,20.0,4.0,1
10.0,-247.0,-98.0,-32.0,18.0,6.0,1
13.0,-248.0,-98.0,-28.0,14.0,6.0,1
16.0,-246.0,-97.0,-22.0,12.0,5.0,1
12.0,-248.0,-98.0,-21.0,11.0,6.0,1
11.0,-244.0,-97.0,-18.0,10.0,5.0,1
11.0,-248.0,-99.0,-15.0,9.0,5.0,1
10.0,-248.0,-96.0,-13.0,10.0,5.0,1
11.0,-244.0,-101.0,-13.0,11.0,5.0,1
13.0,-244.0,-99.0,-15.0,12.0,3.0,1
14.0,-248.0,-95.0,-15.0,11.0,3.0,1
11.0,-244.0,-92.0,-19.0,12.0,4.0,1
10.0,-245.0,-103.0,-23.0,12.0,4.0,1
11.0,-245.0,-99.0,-25.0,14.0,3.0,1
9.0,-245.0,-99.0,-26.0,15.0,4.0,1
11.0,-248.0,-101.0,-26.0,17.0,4.0,1
11.0,-248.0,-99.0,-28.0,17.0,4.0,1
9.0,-247.0,-99.0,-29.0,18.0,5.0,1
9.0,-246.0,-97.0,-32.0,19.0,4.0,1
13.0,-247.0,-101.0,-34.0,19.0,4.0,1
13.0,-246.0,-104.0,-36.0,19.0,4.0,1
9.0,-247.0,-100.0,-37.0,19.0,3.0,1
11.0,-246.0,-99.0,-40.0,17.0,3.0,1
11.0,-247.0,-97.0,-43.0,18.0,3.0,1
11.0,-245.0,-100.0,-47.0,19.0,3.0,1
11.0,-244.0,-98.0,-49.0,18.0,3.0,1
12.0,-248.0,-98.0,-51.0,16.0,2.0,1
10.0,-247.0,-101.0,-53.0,16.0,5.0,1
9.0,-246.0,-95.0,-53.0,14.0,5.0,1
12.0,-247.0,-97.0,-50.0,12.0,6.0,1
10.0,-247.0,-99.0,-46.0,11.0,5.0,1
9.0,-246.0,-99.0,-43.0,10.0,5.0,1
12.0,-248.0,-99.0,-42.0,10.0,3.0,1
12.0,-247.0,-95.0,-40.0,10.0,1.0,1
9.0,-247.0,-101.0,-40.0,11.0,2.0,1
9.0,-248.0,-97.0,-42.0,12.0,1.0,1
11.0,-247.0,-98.0,-42.0,12.0,-1.0,1
11.0,-248.0,-97.0,-44.0,13.0,-2.0,1
12.0,-247.0,-99.0,-46.0,11.0,-2.0,1
12.0,-246.0,-100.0,-46.0,13.0,-2.0,1
12.0,-249.0,-98.0,-47.0,13.0,-5.0,1
13.0,-248.0,-98.0,-47.0,13.0,-5.0,1
10.0,-247.0,-97.0,-50.0,15.0,-6.0,1
9.0,-244.0,-96.0,-51.0,16.0,-6.0,1
8.0,-243.0,-101.0,-53.0,17.0,-5.0,1
11.0,-248.0,-97.0,-54.0,19.0,-5.0,1
9.0,-246.0,-97.0,-55.0,19.0,-6.0,1
10.0,-249.0,-95.0,-54.0,21.0,-5.0,1
11.0,-247.0,-94.0,-56.0,20.0,-4.0,1
9.0,-245.0,-92.0,-57.0,20.0,-4.0,1
11.0,-248.0,-95.0,-55.0,17.0,-3.0,1
10.0,-246.0,-95.0,-53.0,15.0,-2.0,1
10.0,-247.0,-98.0,-52.0,13.0,-1.0,1
9.0,-247.0,-93.0,-50.0,10.0,-1.0,1
9.0,-245.0,-96.0,-48.0,8.0,-2.0,1
5.0,-248.0,-101.0,-46.0,6.0,-4.0,1
8.0,-245.0,-94.0,-47.0,4.0,-4.0,1
5.0,-249.0,-95.0,-47.0,3.0,-7.0,1
7.0,-246.0,-95.0,-47.0,4.0,-9.0,1
8.0,-248.0,-96.0,-48.0,5.0,-12.0,1
8.0,-247.0,-91.0,-48.0,6.0,-14.0,1
7.0,-248.0,-93.0,-47.0,8.0,-14.0,1
6.0,-249.0,-94.0,-48.0,11.0,-14.0,1
9.0,-249.0,-99.0,-49.0,14.0,-15.0,1
6.0,-246.0,-102.0,-49.0,17.0,-16.0,1
10.0,-249.0,-97.0,-51.0,21.0,-15.0,1
10.0,-247.0,-101.0,-51.0,25.0,-15.0,1
11.0,-247.0,-100.0,-50.0,28.0,-13.0,1
8.0,-251.0,-101.0,-51.0,30.0,-12.0,1
8.0,-247.0,-105.0,-52.0,32.0,-11.0,1
9.0,-244.0,-100.0,-52.0,33.0,-11.0,1
9.0,-248.0,-98.0,-51.0,32.0,-10.0,1
10.0,-247.0,-100.0,-51.0,32.0,-11.0,1
8.0,-247.0,-99.0,-54.0,31.0,-10.0,1
9.0,-246.0,-100.0,-56.0,27.0,-11.0,1
8.0,-244.0,-103.0,-57.0,25.0,-10.0,1
6.0,-242.0,-94.0,-58.0,24.0,-10.0,1
8.0,-244.0,-99.0,-59.0,22.0,-10.0,1
7.0,-245.0,-94.0,-58.0,21.0,-10.0,1
9.0,-246.0,-98.0,-57.0,20.0,-11.0,1
9.0,-245.0,-103.0,-58.0,20.0,-10.0,1
12.0,-247.0,-97.0,-58.0,18.0,-10.0,1
9.0,-246.0,-99.0,-59.0,19.0,-11.0,1
11.0,-244.0,-98.0,-60.0,19.0,-11.0,1
10.0,-245.0,-96.0,-63.0,18.0,-10.0,1
12.0,-246.0,-101.0,-69.0,18.0,-11.0,1
10.0,-244.0,-101.0,-75.0,17.0,-11.0,1
9.0,-245.0,-97.0,-77.0,17.0,-11.0,1
11.0,-247.0,-99.0,-82.0,17.0,-12.0,1
9.0,-244.0,-102.0,-81.0,16.0,-12.0,1
11.0,-247.0,-103.0,-79.0,16.0,-12.0,1
11.0,-247.0,-102.0,-78.0,18.0,-12.0,1
11.0,-247.0,-100.0,-73.0,16.0,-11.0,1
11.0,-247.0,-103.0,-69.0,17.0,-10.0,1
11.0,-247.0,-99.0,-69.0,18.0,-11.0,1
12.0,-247.0,-100.0,-65.0,16.0,-11.0,1
12.0,-246.0,-99.0,-63.0,16.0,-12.0,1
12.0,-245.0,-100.0,-64.0,16.0,-12.0,1
11.0,-245.0,-101.0,-62.0,17.0,-12.0,1
10.0,-246.0,-101.0,-62.0,17.0,-12.0,1
11.0,-245.0,-98.0,-63.0,18.0,-13.0,1
9.0,-247.0,-95.0,-62.0,19.0,-11.0,1
12.0,-246.0,-100.0,-62.0,21.0,-12.0,1
13.0,-248.0,-96.0,-63.0,22.0,-13.0,1
11.0,-248.0,-96.0,-62.0,21.0,-13.0,1
10.0,-245.0,-99.0,-64.0,21.0,-13.0,1
12.0,-246.0,-97.0,-66.0,22.0,-13.0,1
12.0,-247.0,-97.0,-67.0,20.0,-14.0,1
12.0,-249.0,-98.0,-69.0,19.0,-15.0,1
11.0,-246.0,-95.0,-67.0,17.0,-15.0,1
15.0,-247.0,-96.0,-66.0,16.0,-15.0,1
13.0,-248.0,-100.0,-65.0,16.0,-14.0,1
13.0,-248.0,-100.0,-63.0,15.0,-13.0,1
14.0,-247.0,-101.0,-61.0,15.0,-13.0,1
12.0,-245.0,-99.0,-59.0,13.0,-14.0,1
13.0,-246.0,-99.0,-55.0,13.0,-14.0,1
13.0,-244.0,-100.0,-50.0,13.0,-15.0,1
12.0,-243.0,-93.0,-48.0,12.0,-16.0,1
12.0,-247.0,-100.0,-49.0,11.0,-15.0,1
10.0,-244.0,-97.0,-49.0,12.0,-18.0,1
12.0,-246.0,-100.0,-51.0,14.0,-17.0,1
14.0,-245.0,-100.0,-52.0,16.0,-19.0,1
9.0,-242.0,-101.0,-53.0,20.0,-19.0,1
10.0,-246.0,-100.0,-51.0,21.0,-18.0,1
12.0,-248.0,-100.0,-49.0,23.0,-17.0,1
12.0,-248.0,-99.0,-43.0,23.0,-17.0,1
11.0,-247.0,-100.0,-37.0,24.0,-16.0,1
13.0,-247.0,-103.0,-29.0,25.0,-14.0,1
19.0,-249.0,-101.0,-26.0,24.0,-12.0,1
12.0,-248.0,-101.0,-26.0,23.0,-11.0,1
11.0,-249.0,-100.0,-26.0,20.0,-9.0,1
14.0,-248.0,-98.0,-28.0,17.0,-8.0,1
11.0,-246.0,-99.0,-30.0,14.0,-6.0,1
8.0,-245.0,-104.0,-33.0,10.0,-5.0,1
10.0,-245.0,-97.0,-38.0,7.0,-6.0,1
9.0,-244.0,-99.0,-42.0,4.0,-6.0,1
8.0,-244.0,-99.0,-44.0,2.0,-6.0,1
8.0,-244.0,-97.0,-47.0,1.0,-8.0,1
8.0,-246.0,-97.0,-48.0,-1.0,-10.0,1
1.0,-259.0,-92.0,-50.0,2.0,-12.0,1
8.0,-245.0,-98.0,-51.0,4.0,-10.0,1
9.0,-246.0,-98.0,-52.0,10.0,-9.0,1
13.0,-244.0,-96.0,-53.0,14.0,-10.0,1
12.0,-246.0,-97.0,-53.0,20.0,-9.0,1
12.0,-248.0,-99.0,-52.0,25.0,-7.0,1
7.0,-247.0,-100.0,-49.0,27.0,-7.0,1
10.0,-246.0,-103.0,-46.0,29.0,-5.0,1
13.0,-250.0,-102.0,-41.0,30.0,-3.0,1
11.0,-247.0,-99.0,-35.0,28.0,-3.0,1
13.0,-247.0,-97.0,-30.0,25.0,-1.0,1
13.0,-242.0,-105.0,-27.0,21.0,0.0,1
12.0,-246.0,-96.0,-23.0,17.0,0.0,1
12.0,-246.0,-102.0,-21.0,13.0,2.0,1
14.0,-248.0,-100.0,-16.0,9.0,2.0,1
14.0,-244.0,-99.0,-15.0,7.0,1.0,1
7.0,-242.0,-98.0,-14.0,5.0,-1.0,1
6.0,-243.0,-93.0,-16.0,3.0,-2.0,1
12.0,-244.0,-99.0,-17.0,2.0,-2.0,1
10.0,-247.0,-100.0,-23.0,3.0,-4.0,1
9.0,-245.0,-97.0,-25.0,3.0,-4.0,1
12.0,-246.0,-97.0,-29.0,4.0,-6.0,1
9.0,-244.0,-95.0,-31.0,3.0,-6.0,1
9.0,-246.0,-97.0,-34.0,5.0,-7.0,1
11.0,-246.0,-98.0,-36.0,6.0,-6.0,1
12.0,-247.0,-97.0,-37.0,9.0,-6.0,1
13.0,-247.0,-102.0,-36.0,10.0,-8.0,1
11.0,-243.0,-97.0,-38.0,14.0,-8.0,1
11.0,-247.0,-101.0,-39.0,15.0,-5.0,1
11.0,-248.0,-101.0,-40.0,17.0,-8.0,1
10.0,-247.0,-105.0,-42.0,18.0,-9.0,1
7.0,-248.0,-98.0,-44.0,18.0,-8.0,1
12.0,-246.0,-104.0,-48.0,20.0,-9.0,1
12.0,-247.0,-97.0,-52.0,20.0,-9.0,1
9.0,-245.0,-97.0,-57.0,21.0,-7.0,1
11.0,-245.0,-98.0,-59.0,21.0,-6.0,1
11.0,-245.0,-98.0,-60.0,21.0,-7.0,1
10.0,-245.0,-99.0,-56.0,19.0,-8.0,1
11.0,-248.0,-98.0,-51.0,17.0,-8.0,1
11.0,-249.0,-104.0,-46.0,15.0,-9.0,1
9.0,-247.0,-100.0,-41.0,13.0,-9.0,1
12.0,-247.0,-102.0,-36.0,12.0,-9.0,1
12.0,-248.0,-102.0,-34.0,11.0,-9.0,1
12.0,-244.0,-102.0,-35.0,11.0,-9.0,1
11.0,-246.0,-102.0,-37.0,10.0,-8.0,1
10.0,-246.0,-99.0,-38.0,11.0,-8.0,1
11.0,-246.0,-100.0,-39.0,11.0,-7.0,1
13.0,-248.0,-99.0,-42.0,11.0,-5.0,1
8.0,-247.0,-97.0,-44.0,12.0,-4.0,1
9.0,-248.0,-99.0,-42.0,13.0,-3.0,1
9.0,-246.0,-97.0,-43.0,15.0,-4.0,1
12.0,-244.0,-97.0,-41.0,16.0,-4.0,1
13.0,-247.0,-96.0,-41.0,17.0,-5.0,1
7.0,-243.0,-101.0,-41.0,18.0,-5.0,1
10.0,-243.0,-98.0,-41.0,21.0,-5.0,1
9.0,-245.0,-100.0,-41.0,23.0,-7.0,1
12.0,-247.0,-96.0,-43.0,23.0,-5.0,1
9.0,-247.0,-97.0,-43.0,22.0,-4.0,1
8.0,-246.0,-96.0,-44.0,21.0,-5.0,1
11.0,-247.0,-99.0,-44.0,22.0,-5.0,1
11.0,-248.0,-97.0,-42.0,20.0,-4.0,1
10.0,-247.0,-97.0,-42.0,19.0,-3.0,1
12.0,-247.0,-97.0,-40.0,19.0,-4.0,1
11.0,-248.0,-96.0,-39.0,17.0,-5.0,1
9.0,-243.0,-96.0,-36.0,17.0,-6.0,1
11.0,-247.0,-101.0,-34.0,16.0,-7.0,1
11.0,-247.0,-98.0,-34.0,16.0,-9.0,1
12.0,-246.0,-98.0,-34.0,15.0,-9.0,1
11.0,-245.0,-97.0,-33.0,16.0,-9.0,1
11.0,-246.0,-98.0,-33.0,18.0,-9.0,1
11.0,-247.0,-98.0,-33.0,18.0,-8.0,1
11.0,-246.0,-100.0,-33.0,18.0,-8.0,1
6.0,-244.0,-97.0,-35.0,19.0,-7.0,1
10.0,-244.0,-98.0,-34.0,18.0,-6.0,1
10.0,-246.0,-97.0,-36.0,18.0,-6.0,1
12.0,-247.0,-101.0,-37.0,19.0,-5.0,1
10.0,-243.0,-96.0,-36.0,18.0,-4.0,1
12.0,-245.0,-97.0,-39.0,16.0,-3.0,1
10.0,-244.0,-102.0,-38.0,15.0,-2.0,1
13.0,-245.0,-97.0,-38.0,15.0,-2.0,1
10.0,-246.0,-100.0,-39.0,15.0,-1.0,1
7.0,-245.0,-100.0,-40.0,14.0,0.0,1
12.0,-244.0,-97.0,-41.0,12.0,0.0,1
10.0,-248.0,-97.0,-44.0,12.0,-3.0,1
9.0,-246.0,-95.0,-46.0,12.0,-2.0,1
11.0,-245.0,-101.0,-47.0,11.0,-4.0,1
11.0,-245.0,-101.0,-46.0,10.0,-4.0,1
12.0,-247.0,-100.0,-48.0,11.0,-5.0,1
8.0,-248.0,-99.0,-49.0,10.0,-7.0,1
10.0,-247.0,-96.0,-48.0,10.0,-7.0,1
8.0,-248.0,-101.0,-48.0,12.0,-7.0,1
13.0,-247.0,-98.0,-47.0,13.0,-8.0,1
13.0,-248.0,-99.0,-46.0,14.0,-5.0,1
14.0,-249.0,-100.0,-45.0,16.0,-7.0,1
11.0,-247.0,-93.0,-43.0,18.0,-7.0,1
11.0,-243.0,-103.0,-42.0,18.0,-7.0,1
12.0,-249.0,-99.0,-41.0,17.0,-6.0,1
13.0,-245.0,-96.0,-44.0,18.0,-5.0,1
9.0,-246.0,-96.0,-45.0,17.0,-5.0,1
11.0,-248.0,-97.0,-44.0,15.0,-4.0,1
13.0,-248.0,-99.0,-44.0,14.0,-4.0,1
11.0,-250.0,-101.0,-41.0,12.0,-5.0,1
11.0,-245.0,-100.0,-42.0,13.0,-5.0,1
13.0,-247.0,-96.0,-40.0,13.0,-5.0,1
9.0,-247.0,-98.0,-37.0,12.0,-6.0,1
11.0,-247.0,-96.0,-35.0,12.0,-7.0,1
13.0,-247.0,-98.0,-30.0,12.0,-7.0,1
11.0,-248.0,-102.0,-29.0,12.0,-7.0,1
10.0,-248.0,-102.0,-26.0,12.0,-6.0,1
11.0,-246.0,-103.0,-27.0,12.0,-5.0,1
12.0,-247.0,-98.0,-24.0,11.0,-4.0,1
14.0,-242.0,-102.0,-25.0,10.0,-4.0,1
13.0,-245.0,-103.0,-26.0,9.0,-5.0,1
14.0,-248.0,-100.0,-26.0,9.0,-7.0,1
12.0,-247.0,-103.0,-26.0,9.0,-6.0,1
13.0,-248.0,-100.0,-27.0,8.0,-7.0,1
13.0,-247.0,-95.0,-27.0,10.0,-8.0,1
12.0,-245.0,-99.0,-29.0,10.0,-7.0,1
10.0,-245.0,-98.0,-29.0,11.0,-10.0,1
12.0,-247.0,-96.0,-29.0,12.0,-10.0,1
14.0,-247.0,-97.0,-29.0,12.0,-10.0,1
11.0,-246.0,-101.0,-31.0,13.0,-10.0,1
7.0,-247.0,-100.0,-33.0,13.0,-10.0,1
14.0,-247.0,-99.0,-33.0,11.0,-8.0,1
15.0,-247.0,-97.0,-33.0,12.0,-6.0,1
12.0,-246.0,-97.0,-30.0,12.0,-6.0,1
11.0,-244.0,-96.0,-31.0,12.0,-4.0,1
13.0,-247.0,-102.0,-28.0,13.0,-3.0,1
10.0,-243.0,-100.0,-26.0,12.0,-3.0,1
11.0,-243.0,-102.0,-23.0,11.0,-4.0,1
14.0,-246.0,-96.0,-26.0,12.0,-5.0,1
11.0,-246.0,-97.0,-30.0,12.0,-6.0,1
12.0,-245.0,-97.0,-32.0,10.0,-5.0,1
13.0,-247.0,-98.0,-36.0,11.0,-7.0,1
14.0,-245.0,-99.0,-37.0,11.0,-6.0,1
12.0,-246.0,-94.0,-36.0,13.0,-6.0,1
10.0,-247.0,-94.0,-28.0,14.0,-4.0,1
12.0,-248.0,-96.0,-20.0,14.0,-4.0,1
11.0,-250.0,-95.0,-11.0,17.0,-3.0,1
10.0,-250.0,-98.0,-2.0,17.0,-4.0,1
11.0,-247.0,-101.0,6.0,17.0,-3.0,1
11.0,-250.0,-99.0,11.0,15.0,-3.0,1
10.0,-249.0,-98.0,13.0,12.0,-4.0,1
14.0,-249.0,-98.0,15.0,8.0,-3.0,1
14.0,-250.0,-100.0,17.0,7.0,0.0,1
9.0,-248.0,-100.0,16.0,4.0,1.0,1
11.0,-247.0,-97.0,15.0,4.0,0.0,1
12.0,-247.0,-98.0,15.0,2.0,0.0,1
11.0,-245.0,-98.0,13.0,2.0,-1.0,1
7.0,-245.0,-99.0,9.0,2.0,-2.0,1
9.0,-246.0,-94.0,4.0,2.0,-2.0,1
10.0,-245.0,-97.0,-3.0,3.0,-5.0,1
9.0,-244.0,-96.0,-9.0,6.0,-7.0,1
9.0,-244.0,-97.0,-15.0,8.0,-10.0,1
7.0,-246.0,-93.0,-21.0,11.0,-10.0,1
6.0,-243.0,-93.0,-24.0,14.0,-9.0,1
6.0,-245.0,-95.0,-27.0,16.0,-9.0,1
8.0,-249.0,-97.0,-26.0,17.0,-9.0,1
11.0,-245.0,-90.0,-27.0,18.0,-8.0,1
11.0,-247.0,-96.0,-24.0,17.0,-9.0,1
9.0,-247.0,-91.0,-21.0,17.0,-7.0,1
13.0,-246.0,-94.0,-19.0,14.0,-7.0,1
13.0,-249.0,-91.0,-19.0,13.0,-5.0,1
13.0,-247.0,-94.0,-18.0,10.0,-5.0,1
13.0,-248.0,-94.0,-18.0,11.0,-5.0,1
12.0,-246.0,-97.0,-18.0,11.0,-3.0,1
10.0,-248.0,-97.0,-20.0,10.0,-5.0,1
11.0,-246.0,-96.0,-20.0,9.0,-4.0,1
12.0,-245.0,-96.0,-18.0,9.0,-4.0,1
12.0,-247.0,-93.0,-20.0,10.0,-4.0,1
11.0,-246.0,-92.0,-21.0,9.0,-5.0,1
13.0,-247.0,-92.0,-22.0,9.0,-5.0,1
14.0,-246.0,-95.0,-25.0,11.0,-5.0,1
9.0,-247.0,-98.0,-27.0,10.0,-5.0,1
10.0,-246.0,-92.0,-28.0,11.0,-4.0,1
13.0,-247.0,-93.0,-28.0,11.0,-4.0,1
11.0,-245.0,-99.0,-29.0,12.0,-3.0,1
10.0,-247.0,-91.0,-31.0,13.0,-5.0,1
9.0,-246.0,-96.0,-32.0,14.0,-6.0,1
13.0,-248.0,-96.0,-36.0,15.0,-6.0,1
12.0,-248.0,-97.0,-37.0,16.0,-6.0,1
8.0,-248.0,-95.0,-38.0,16.0,-6.0,1
11.0,-247.0,-97.0,-39.0,17.0,-6.0,1
11.0,-247.0,-97.0,-40.0,17.0,-6.0,1
10.0,-244.0,-94.0,-43.0,17.0,-6.0,1
13.0,-249.0,-95.0,-45.0,16.0,-5.0,1
8.0,-246.0,-96.0,-47.0,15.0,-3.0,1
11.0,-248.0,-95.0,-51.0,14.0,-2.0,1
10.0,-248.0,-96.0,-51.0,12.0,-4.0,1
11.0,-247.0,-94.0,-47.0,13.0,-3.0,1
11.0,-248.0,-94.0,-40.0,13.0,-2.0,1
10.0,-248.0,-97.0,-35.0,12.0,-3.0,1
15.0,-247.0,-98.0,-32.0,14.0,-3.0,1
12.0,-248.0,-95.0,-33.0,13.0,-5.0,1
10.0,-249.0,-94.0,-33.0,15.0,-4.0,1
12.0,-247.0,-97.0,-35.0,15.0,-4.0,1
12.0,-246.0,-91.0,-36.0,17.0,-2.0,1
12.0,-250.0,-92.0,-38.0,15.0,-2.0,1
10.0,-247.0,-97.0,-40.0,14.0,-1.0,1
12.0,-246.0,-94.0,-41.0,14.0,0.0,1
11.0,-246.0,-99.0,-42.0,15.0,0.0,1
13.0,-247.0,-94.0,-43.0,16.0,-1.0,1
8.0,-247.0,-98.0,-41.0,16.0,-3.0,1
10.0,-247.0,-93.0,-41.0,17.0,-4.0,1
11.0,-247.0,-93.0,-42.0,17.0,-5.0,1
10.0,-246.0,-94.0,-42.0,18.0,-5.0,1
12.0,-246.0,-95.0,-43.0,18.0,-5.0,1
8.0,-246.0,-95.0,-42.0,18.0,-5.0,1
10.0,-243.0,-92.0,-43.0,16.0,-5.0,1
12.0,-247.0,-94.0,-44.0,16.0,-5.0,1
14.0,-247.0,-92.0,-46.0,15.0,-3.0,1
9.0,-245.0,-98.0,-45.0,15.0,-2.0,1
13.0,-247.0,-95.0,-47.0,15.0,0.0,1
13.0,-248.0,-95.0,-49.0,16.0,0.0,1
14.0,-249.0,-95.0,-49.0,15.0,-1.0,1
13.0,-247.0,-94.0,-51.0,16.0,0.0,1
11.0,-244.0,-95.0,-51.0,16.0,-1.0,1
13.0,-245.0,-95.0,-53.0,16.0,-4.0,1
13.0,-239.0,-104.0,-53.0,15.0,-4.0,1
11.0,-249.0,-94.0,-54.0,14.0,-6.0,1
11.0,-247.0,-95.0,-54.0,14.0,-6.0,1
10.0,-248.0,-95.0,-52.0,12.0,-8.0,1
10.0,-247.0,-96.0,-51.0,12.0,-8.0,1
12.0,-250.0,-96.0,-52.0,13.0,-8.0,1
11.0,-246.0,-92.0,-52.0,15.0,-7.0,1
12.0,-247.0,-95.0,-50.0,16.0,-7.0,1
10.0,-248.0,-95.0,-50.0,17.0,-8.0,1
11.0,-247.0,-94.0,-49.0,16.0,-6.0,1
11.0,-247.0,-95.0,-50.0,15.0,-3.0,1
0.0,-235.0,-101.0,-49.0,15.0,-3.0,1
8.0,-248.0,-94.0,-48.0,14.0,-3.0,1
9.0,-244.0,-91.0,-48.0,14.0,-1.0,1
10.0,-248.0,-97.0,-50.0,12.0,0.0,1
12.0,-247.0,-96.0,-52.0,12.0,3.0,1
11.0,-245.0,-96.0,-53.0,12.0,3.0,1
13.0,-248.0,-97.0,-53.0,13.0,3.0,1
9.0,-249.0,-95.0,-55.0,14.0,3.0,1
11.0,-248.0,-94.0,-58.0,17.0,2.0,1
12.0,-248.0,-95.0,-61.0,17.0,2.0,1
16.0,-254.0,-86.0,-64.0,18.0,2.0,1
11.0,-244.0,-90.0,-67.0,18.0,1.0,1
13.0,-246.0,-100.0,-69.0,20.0,0.0,1
10.0,-244.0,-97.0,-69.0,21.0,1.0,1
10.0,-246.0,-94.0,-68.0,20.0,0.0,1
9.0,-246.0,-95.0,-67.0,20.0,-1.0,1
11.0,-245.0,-96.0,-66.0,20.0,-1.0,1
9.0,-246.0,-92.0,-65.0,20.0,0.0,1
9.0,-247.0,-96.0,-63.0,17.0,0.0,1
11.0,-248.0,-93.0,-64.0,15.0,1.0,1
9.0,-245.0,-93.0,-66.0,15.0,-1.0,1
16.0,-248.0,-85.0,-62.0,17.0,-3.0,1
12.0,-248.0,-92.0,-64.0,15.0,-2.0,1
14.0,-248.0,-92.0,-63.0,17.0,-2.0,1
12.0,-250.0,-94.0,-63.0,17.0,-2.0,1
9.0,-247.0,-96.0,-65.0,17.0,-2.0,1
9.0,-245.0,-95.0,-69.0,17.0,-3.0,1
13.0,-248.0,-96.0,-71.0,17.0,-3.0,1
10.0,-247.0,-96.0,-74.0,17.0,-2.0,1
9.0,-248.0,-97.0,-75.0,17.0,-2.0,1
14.0,-247.0,-99.0,-76.0,17.0,-2.0,1
10.0,-248.0,-97.0,-75.0,17.0,-1.0,1
11.0,-248.0,-95.0,-73.0,17.0,-1.0,1
11.0,-247.0,-93.0,-70.0,15.0,1.0,1
13.0,-248.0,-96.0,-66.0,15.0,2.0,1
9.0,-248.0,-95.0,-64.0,14.0,1.0,1
12.0,-249.0,-97.0,-57.0,12.0,1.0,1
13.0,-248.0,-100.0,-53.0,11.0,3.0,1
12.0,-246.0,-95.0,-50.0,12.0,4.0,1
13.0,-248.0,-97.0,-50.0,11.0,7.0,1
13.0,-248.0,-94.0,-49.0,11.0,8.0,1
11.0,-248.0,-91.0,-49.0,11.0,8.0,1
12.0,-249.0,-94.0,-50.0,12.0,8.0,1
12.0,-247.0,-94.0,-51.0,12.0,8.0,1
9.0,-247.0,-97.0,-51.0,12.0,6.0,1
12.0,-244.0,-98.0,-51.0,11.0,6.0,1
11.0,-248.0,-94.0,-52.0,10.0,5.0,1
9.0,-247.0,-95.0,-53.0,11.0,3.0,1
10.0,-246.0,-100.0,-53.0,11.0,2.0,1
9.0,-246.0,-96.0,-55.0,11.0,1.0,1
11.0,-248.0,-96.0,-55.0,13.0,0.0,1
11.0,-250.0,-102.0,-54.0,13.0,2.0,1
11.0,-250.0,-98.0,-52.0,15.0,4.0,1
12.0,-247.0,-92.0,-51.0,17.0,5.0,1
9.0,-246.0,-99.0,-50.0,18.0,6.0,1
13.0,-249.0,-95.0,-50.0,22.0,9.0,1
12.0,-249.0,-97.0,-48.0,22.0,9.0,1
11.0,-247.0,-95.0,-50.0,21.0,8.0,1
10.0,-245.0,-95.0,-54.0,20.0,7.0,1
11.0,-246.0,-95.0,-57.0,19.0,6.0,1
12.0,-244.0,-99.0,-59.0,17.0,5.0,1
9.0,-245.0,-92.0,-64.0,15.0,3.0,1
12.0,-244.0,-95.0,-65.0,16.0,1.0,1
10.0,-243.0,-94.0,-65.0,16.0,2.0,1
11.0,-246.0,-92.0,-62.0,15.0,4.0,1
11.0,-248.0,-91.0,-56.0,17.0,4.0,1
10.0,-249.0,-94.0,-47.0,18.0,5.0,1
13.0,-249.0,-96.0,-38.0,21.0,5.0,1
10.0,-249.0,-96.0,-27.0,23.0,6.0,1
9.0,-249.0,-100.0,-19.0,23.0,6.0,1
13.0,-247.0,-96.0,-15.0,23.0,7.0,1
12.0,-249.0,-97.0,-14.0,21.0,8.0,1
11.0,-250.0,-98.0,-15.0,17.0,10.0,1
12.0,-250.0,-101.0,-19.0,14.0,11.0,1
12.0,-246.0,-94.0,-22.0,9.0,11.0,1
13.0,-247.0,-97.0,-28.0,5.0,11.0,1
11.0,-244.0,-97.0,-29.0,4.0,12.0,1
10.0,-244.0,-94.0,-25.0,4.0,12.0,1
13.0,-243.0,-97.0,-21.0,6.0,12.0,1
9.0,-244.0,-98.0,-18.0,10.0,12.0,1
7.0,-246.0,-98.0,-15.0,14.0,10.0,1
5.0,-244.0,-102.0,-13.0,19.0,8.0,1
7.0,-245.0,-96.0,-13.0,22.0,6.0,1
7.0,-246.0,-95.0,-16.0,25.0,4.0,1
7.0,-246.0,-100.0,-18.0,26.0,3.0,1
7.0,-246.0,-101.0,-24.0,25.0,2.0,1
6.0,-246.0,-97.0,-29.0,22.0,3.0,1
9.0,-246.0,-94.0,-35.0,15.0,6.0,1
7.0,-247.0,-95.0,-44.0,7.0,9.0,1
9.0,-246.0,-97.0,-48.0,0.0,11.0,1
10.0,-248.0,-99.0,-48.0,-6.0,14.0,1
9.0,-250.0,-98.0,-45.0,-13.0,19.0,1
13.0,-250.0,-91.0,-39.0,-19.0,23.0,1
17.0,-251.0,-92.0,-33.0,-25.0,29.0,1
18.0,-249.0,-90.0,-27.0,-29.0,32.0,1
19.0,-249.0,-91.0,-21.0,-34.0,38.0,1
20.0,-252.0,-89.0,-19.0,-39.0,43.0,1
17.0,-249.0,-91.0,-20.0,-41.0,45.0,1
17.0,-247.0,-92.0,-22.0,-43.0,48.0,1
17.0,-245.0,-94.0,-28.0,-41.0,54.0,1
16.0,-245.0,-93.0,-30.0,-38.0,57.0,1
17.0,-248.0,-95.0,-35.0,-38.0,52.0,1
16.0,-248.0,-93.0,-46.0,-41.0,44.0,1
13.0,-247.0,-98.0,-57.0,-40.0,36.0,1
16.0,-245.0,-97.0,-67.0,-36.0,31.0,1
13.0,-244.0,-97.0,-71.0,-27.0,28.0,1
9.0,-245.0,-101.0,-71.0,-15.0,26.0,1
6.0,-245.0,-98.0,-70.0,0.0,23.0,1
9.0,-246.0,-100.0,-66.0,13.0,22.0,1
8.0,-247.0,-103.0,-61.0,26.0,16.0,1
4.0,-248.0,-101.0,-56.0,39.0,13.0,1
6.0,-246.0,-100.0,-52.0,50.0,8.0,1
0.0,-242.0,-107.0,-51.0,63.0,3.0,1
3.0,-247.0,-105.0,-47.0,73.0,-1.0,1
0.0,-246.0,-102.0,-44.0,84.0,-4.0,1
-1.0,-246.0,-98.0,-40.0,91.0,-8.0,1
-1.0,-247.0,-104.0,-35.0,97.0,-11.0,1
-2.0,-247.0,-106.0,-24.0,101.0,-14.0,1
-1.0,-249.0,-104.0,-12.0,103.0,-15.0,1
-3.0,-247.0,-102.0,3.0,103.0,-15.0,1
-2.0,-247.0,-100.0,16.0,99.0,-14.0,1
-4.0,-246.0,-101.0,26.0,95.0,-12.0,1
0.0,-248.0,-102.0,37.0,88.0,-10.0,1
1.0,-251.0,-97.0,46.0,78.0,-8.0,1
7.0,-255.0,-100.0,54.0,68.0,-10.0,1
5.0,-255.0,-99.0,58.0,58.0,-11.0,1
10.0,-257.0,-101.0,63.0,49.0,-12.0,1
12.0,-255.0,-96.0,64.0,40.0,-11.0,1
12.0,-255.0,-96.0,64.0,29.0,-12.0,1
10.0,-252.0,-97.0,63.0,19.0,-12.0,1
13.0,-250.0,-97.0,58.0,12.0,-10.0,1
12.0,-250.0,-94.0,54.0,4.0,-6.0,1
14.0,-248.0,-96.0,49.0,1.0,-4.0,1
13.0,-248.0,-93.0,44.0,0.0,1.0,1
14.0,-246.0,-91.0,39.0,-3.0,8.0,1
14.0,-245.0,-91.0,36.0,-3.0,14.0,1
11.0,-246.0,-89.0,35.0,-3.0,17.0,1
12.0,-247.0,-89.0,38.0,-3.0,20.0,1
12.0,-245.0,-91.0,40.0,-2.0,22.0,1
13.0,-246.0,-95.0,42.0,-2.0,26.0,1
13.0,-244.0,-93.0,44.0,0.0,29.0,1
8.0,-243.0,-91.0,51.0,0.0,36.0,1
11.0,-245.0,-92.0,61.0,0.0,40.0,1
11.0,-246.0,-94.0,68.0,1.0,40.0,1
12.0,-249.0,-96.0,74.0,2.0,37.0,1
12.0,-247.0,-93.0,75.0,2.0,29.0,1
9.0,-246.0,-97.0,75.0,1.0,19.0,1
9.0,-248.0,-97.0,76.0,0.0,9.0,1
7.0,-248.0,-97.0,77.0,-5.0,0.0,1
6.0,-247.0,-91.0,82.0,-9.0,-7.0,1
8.0,-248.0,-93.0,85.0,-15.0,-17.0,1
11.0,-249.0,-89.0,93.0,-19.0,-23.0,1
8.0,-248.0,-90.0,101.0,-24.0,-26.0,1
8.0,-249.0,-92.0,111.0,-27.0,-23.0,1
11.0,-250.0,-94.0,119.0,-27.0,-16.0,1
11.0,-251.0,-91.0,127.0,-25.0,-6.0,1
11.0,-251.0,-92.0,131.0,-23.0,5.0,1
11.0,-251.0,-93.0,134.0,-19.0,16.0,1
12.0,-251.0,-94.0,137.0,-17.0,27.0,1
13.0,-257.0,-94.0,139.0,-17.0,34.0,1
9.0,-254.0,-93.0,145.0,-14.0,37.0,1
8.0,-254.0,-99.0,143.0,-13.0,39.0,1
10.0,-250.0,-93.0,143.0,-11.0,39.0,1
8.0,-249.0,-93.0,147.0,-11.0,38.0,1
10.0,-251.0,-95.0,150.0,-8.0,37.0,1
11.0,-252.0,-93.0,155.0,-8.0,35.0,1
8.0,-250.0,-95.0,164.0,-6.0,34.0,1
11.0,-250.0,-95.0,168.0,-4.0,26.0,1
3.0,-248.0,-93.0,175.0,-1.0,20.0,1
4.0,-249.0,-88.0,180.0,-1.0,16.0,1
7.0,-248.0,-90.0,189.0,0.0,16.0,1
4.0,-248.0,-88.0,203.0,2.0,17.0,1
4.0,-250.0,-88.0,216.0,3.0,15.0,1
4.0,-248.0,-91.0,224.0,4.0,13.0,1
5.0,-250.0,-87.0,233.0,5.0,14.0,1
4.0,-246.0,-87.0,242.0,5.0,16.0,1
6.0,-253.0,-90.0,252.0,6.0,18.0,1
6.0,-255.0,-93.0,260.0,8.0,18.0,1
7.0,-252.0,-87.0,269.0,7.0,19.0,1
6.0,-256.0,-89.0,275.0,4.0,21.0,1
7.0,-253.0,-87.0,280.0,4.0,23.0,1
8.0,-257.0,-87.0,287.0,2.0,25.0,1
8.0,-254.0,-88.0,294.0,2.0,26.0,1
9.0,-254.0,-90.0,302.0,-2.0,28.0,1
12.0,-256.0,-88.0,310.0,-4.0,29.0,1
15.0,-256.0,-88.0,321.0,-4.0,29.0,1
14.0,-253.0,-84.0,332.0,-6.0,30.0,1
13.0,-253.0,-84.0,344.0,-6.0,30.0,1
14.0,-249.0,-86.0,357.0,-4.0,30.0,1
13.0,-249.0,-86.0,368.0,-2.0,29.0,1
14.0,-252.0,-83.0,380.0,0.0,29.0,1
14.0,-251.0,-84.0,388.0,4.0,28.0,1
12.0,-250.0,-83.0,399.0,5.0,27.0,1
13.0,-251.0,-86.0,409.0,8.0,27.0,1
11.0,-250.0,-86.0,419.0,13.0,23.0,1
11.0,-249.0,-82.0,430.0,17.0,24.0,1
10.0,-248.0,-82.0,437.0,20.0,27.0,1
8.0,-248.0,-82.0,446.0,25.0,29.0,1
7.0,-249.0,-78.0,451.0,27.0,30.0,1
12.0,-249.0,-82.0,456.0,31.0,38.0,1
13.0,-253.0,-77.0,464.0,34.0,42.0,1
11.0,-249.0,-79.0,466.0,37.0,45.0,1
10.0,-250.0,-77.0,470.0,36.0,50.0,1
9.0,-252.0,-72.0,476.0,37.0,53.0,1
8.0,-254.0,-70.0,484.0,38.0,61.0,1
6.0,-261.0,-75.0,492.0,40.0,67.0,1
7.0,-255.0,-74.0,494.0,43.0,68.0,1
8.0,-258.0,-73.0,501.0,48.0,74.0,1
3.0,-258.0,-68.0,511.0,49.0,76.0,1
6.0,-261.0,-70.0,524.0,51.0,73.0,1
2.0,-258.0,-65.0,541.0,56.0,69.0,1
3.0,-255.0,-65.0,557.0,57.0,69.0,1
2.0,-258.0,-67.0,571.0,59.0,70.0,1
4.0,-260.0,-69.0,587.0,59.0,71.0,1
-1.0,-258.0,-71.0,601.0,61.0,69.0,1
0.0,-257.0,-68.0,611.0,56.0,69.0,1
0.0,-257.0,-66.0,622.0,52.0,70.0,1
-1.0,-258.0,-67.0,636.0,50.0,70.0,1
0.0,-257.0,-66.0,651.0,48.0,67.0,1
1.0,-262.0,-65.0,666.0,47.0,69.0,1
0.0,-259.0,-63.0,689.0,46.0,71.0,1
2.0,-262.0,-65.0,708.0,46.0,69.0,1
4.0,-260.0,-60.0,726.0,47.0,70.0,1
-1.0,-262.0,-59.0,740.0,50.0,69.0,1
1.0,-263.0,-58.0,756.0,49.0,70.0,1
2.0,-261.0,-57.0,772.0,47.0,69.0,1
2.0,-260.0,-54.0,788.0,44.0,68.0,1
0.0,-261.0,-50.0,805.0,41.0,66.0,1
-1.0,-259.0,-49.0,818.0,40.0,63.0,1
6.0,-259.0,-47.0,829.0,37.0,57.0,1
3.0,-257.0,-45.0,839.0,35.0,51.0,1
4.0,-259.0,-46.0,848.0,33.0,44.0,1
6.0,-259.0,-43.0,859.0,29.0,38.0,1
4.0,-257.0,-37.0,870.0,29.0,32.0,1
2.0,-251.0,-39.0,882.0,33.0,27.0,1
5.0,-253.0,-37.0,893.0,38.0,19.0,1
4.0,-251.0,-38.0,905.0,46.0,8.0,1
6.0,-251.0,-36.0,912.0,55.0,3.0,1
5.0,-251.0,-36.0,918.0,60.0,-1.0,1
14.0,-256.0,-33.0,922.0,63.0,-6.0,1
4.0,-250.0,-30.0,925.0,66.0,-10.0,1
4.0,-249.0,-28.0,936.0,70.0,-13.0,1
11.0,-257.0,-23.0,954.0,72.0,-18.0,1
7.0,-257.0,-21.0,974.0,76.0,-21.0,1
8.0,-263.0,-26.0,1002.0,78.0,-23.0,1
8.0,-257.0,-27.0,1024.0,81.0,-29.0,1
8.0,-259.0,-23.0,1047.0,86.0,-22.0,1
12.0,-263.0,-17.0,1060.0,81.0,-18.0,1
4.0,-259.0,-18.0,1070.0,81.0,-17.0,1
5.0,-255.0,-23.0,1082.0,90.0,-16.0,1
11.0,-246.0,-26.0,1090.0,103.0,-11.0,1
4.0,-247.0,-29.0,1095.0,119.0,-5.0,1
0.0,-239.0,-27.0,1090.0,132.0,-5.0,1
3.0,-238.0,-23.0,1069.0,140.0,-2.0,1
1.0,-241.0,-18.0,1039.0,140.0,3.0,1
5.0,-243.0,-23.0,1011.0,136.0,10.0,1
3.0,-247.0,-18.0,998.0,132.0,15.0,1
8.0,-249.0,-17.0,996.0,126.0,18.0,1
9.0,-253.0,-10.0,1004.0,128.0,24.0,1
7.0,-253.0,-14.0,1016.0,138.0,34.0,1
8.0,-254.0,-19.0,1031.0,150.0,45.0,1
12.0,-250.0,-16.0,1046.0,158.0,55.0,1
16.0,-246.0,-14.0,1056.0,153.0,59.0,1
14.0,-242.0,-16.0,1054.0,141.0,57.0,1
9.0,-239.0,-2.0,1034.0,117.0,49.0,1
16.0,-240.0,0.0,1014.0,90.0,41.0,1
13.0,-237.0,11.0,1001.0,72.0,33.0,1
13.0,-239.0,9.0,999.0,69.0,29.0,1
11.0,-243.0,6.0,1013.0,78.0,29.0,1
1.0,-241.0,3.0,1021.0,99.0,26.0,1
7.0,-238.0,-5.0,1017.0,121.0,28.0,1
8.0,-240.0,4.0,986.0,146.0,27.0,1
10.0,-243.0,7.0,952.0,168.0,24.0,1
7.0,-242.0,8.0,933.0,188.0,21.0,1
7.0,-246.0,7.0,926.0,202.0,19.0,1
9.0,-242.0,8.0,914.0,208.0,18.0,1
7.0,-243.0,11.0,905.0,209.0,18.0,1
8.0,-244.0,13.0,900.0,204.0,18.0,1
12.0,-247.0,19.0,906.0,195.0,20.0,1
11.0,-241.0,21.0,923.0,188.0,22.0,1
10.0,-238.0,25.0,947.0,187.0,21.0,1
5.0,-234.0,23.0,969.0,188.0,17.0,1
5.0,-231.0,27.0,988.0,189.0,16.0,1
1.0,-235.0,24.0,1001.0,198.0,18.0,1
5.0,-235.0,27.0,1010.0,209.0,23.0,1
8.0,-235.0,23.0,1012.0,218.0,26.0,1
7.0,-239.0,20.0,1013.0,228.0,25.0,1
9.0,-240.0,22.0,1014.0,236.0,25.0,1
10.0,-241.0,27.0,1018.0,242.0,24.0,1
6.0,-239.0,29.0,1030.0,248.0,28.0,1
2.0,-244.0,33.0,1049.0,250.0,38.0,1
1.0,-247.0,34.0,1070.0,251.0,58.0,1
-4.0,-247.0,35.0,1095.0,248.0,80.0,1
-3.0,-247.0,37.0,1125.0,243.0,102.0,1
-1.0,-249.0,41.0,1156.0,242.0,121.0,1
-3.0,-250.0,42.0,1184.0,243.0,137.0,1
-2.0,-249.0,44.0,1209.0,243.0,144.0,1
-2.0,-252.0,51.0,1233.0,245.0,152.0,1
0.0,-252.0,51.0,1255.0,249.0,151.0,1
8.0,-252.0,55.0,1278.0,257.0,147.0,1
7.0,-248.0,58.0,1301.0,270.0,143.0,1
6.0,-243.0,56.0,1310.0,290.0,137.0,1
5.0,-240.0,60.0,1320.0,304.0,133.0,1
3.0,-230.0,54.0,1324.0,314.0,131.0,1
3.0,-219.0,47.0,1319.0,323.0,131.0,1
-1.0,-207.0,45.0,1300.0,321.0,130.0,1
-4.0,-203.0,50.0,1284.0,314.0,133.0,1
-15.0,-201.0,58.0,1273.0,301.0,135.0,1
-21.0,-198.0,57.0,1268.0,283.0,141.0,1
-31.0,-197.0,60.0,1265.0,270.0,142.0,1
-38.0,-193.0,60.0,1269.0,251.0,142.0,1
-46.0,-196.0,59.0,1275.0,231.0,142.0,1
-47.0,-199.0,61.0,1282.0,209.0,144.0,1
-48.0,-200.0,65.0,1287.0,188.0,144.0,1
-44.0,-206.0,63.0,1296.0,177.0,144.0,1
-33.0,-206.0,66.0,1311.0,166.0,147.0,1
-24.0,-209.0,68.0,1316.0,155.0,149.0,1
-15.0,-207.0,72.0,1324.0,138.0,149.0,1
-9.0,-201.0,76.0,1329.0,124.0,149.0,1
-6.0,-198.0,75.0,1340.0,111.0,147.0,1
-7.0,-195.0,76.0,1352.0,100.0,146.0,1
0.0,-190.0,79.0,1370.0,96.0,144.0,1
-3.0,-191.0,79.0,1387.0,89.0,141.0,1
-3.0,-184.0,87.0,1402.0,82.0,142.0,1
-7.0,-180.0,89.0,1416.0,80.0,143.0,1
-16.0,-174.0,94.0,1427.0,90.0,152.0,1
-25.0,-165.0,99.0,1434.0,108.0,164.0,1
-30.0,-161.0,106.0,1433.0,123.0,182.0,1
-42.0,-155.0,111.0,1434.0,136.0,199.0,1
-48.0,-156.0,116.0,1441.0,140.0,217.0,1
-58.0,-145.0,117.0,1453.0,131.0,234.0,1
-58.0,-150.0,116.0,1473.0,127.0,258.0,1
-62.0,-148.0,114.0,1488.0,116.0,277.0,1
-58.0,-151.0,120.0,1497.0,105.0,296.0,1
-49.0,-157.0,114.0,1509.0,93.0,310.0,1
-37.0,-165.0,113.0,1529.0,83.0,322.0,1
-22.0,-177.0,111.0,1549.0,82.0,332.0,1
-13.0,-182.0,109.0,1566.0,94.0,342.0,1
1.0,-185.0,103.0,1584.0,118.0,355.0,1
11.0,-184.0,92.0,1598.0,142.0,369.0,1
15.0,-179.0,90.0,1600.0,162.0,380.0,1
14.0,-169.0,82.0,1598.0,173.0,396.0,1
18.0,-165.0,94.0,1597.0,188.0,401.0,1
20.0,-161.0,107.0,1604.0,214.0,395.0,1
16.0,-156.0,120.0,1630.0,248.0,391.0,1
16.0,-149.0,120.0,1664.0,282.0,395.0,1
4.0,-141.0,110.0,1687.0,315.0,394.0,1
-6.0,-136.0,103.0,1692.0,336.0,398.0,1
-18.0,-127.0,95.0,1681.0,354.0,395.0,1
-23.0,-128.0,99.0,1669.0,369.0,394.0,1
-31.0,-130.0,102.0,1659.0,384.0,395.0,1
-33.0,-132.0,98.0,1664.0,389.0,400.0,1
-39.0,-135.0,100.0,1684.0,374.0,408.0,1
-42.0,-137.0,98.0,1703.0,343.0,416.0,1
-47.0,-142.0,106.0,1718.0,306.0,426.0,1
-42.0,-145.0,112.0,1727.0,272.0,434.0,1
-45.0,-145.0,121.0,1725.0,259.0,441.0,1
-38.0,-146.0,116.0,1724.0,256.0,456.0,1
-33.0,-141.0,113.0,1731.0,249.0,469.0,1
-27.0,-130.0,108.0,1738.0,219.0,484.0,1
-27.0,-120.0,105.0,1734.0,188.0,493.0,1
-28.0,-121.0,120.0,1738.0,166.0,506.0,1
-21.0,-126.0,120.0,1765.0,157.0,514.0,1
-23.0,-122.0,123.0,1798.0,161.0,526.0,1
-20.0,-114.0,116.0,1820.0,161.0,534.0,1
-15.0,-104.0,119.0,1823.0,149.0,526.0,1
-13.0,-101.0,129.0,1813.0,133.0,508.0,1
-15.0,-107.0,153.0,1809.0,123.0,496.0,1
-11.0,-113.0,163.0,1825.0,128.0,479.0,1
-11.0,-120.0,168.0,1866.0,169.0,475.0,1
-7.0,-115.0,162.0,1934.0,214.0,487.0,1
-8.0,-103.0,151.0,1981.0,251.0,491.0,1
-18.0,-89.0,138.0,1994.0,283.0,482.0,1
-25.0,-75.0,130.0,1971.0,311.0,481.0,1
-32.0,-69.0,135.0,1920.0,334.0,497.0,1
-28.0,-67.0,131.0,1869.0,353.0,516.0,1
-32.0,-62.0,127.0,1831.0,376.0,516.0,1
-39.0,-52.0,124.0,1808.0,376.0,521.0,1
-43.0,-36.0,116.0,1791.0,348.0,535.0,1
-51.0,-24.0,130.0,1777.0,312.0,555.0,1
-51.0,-16.0,137.0,1750.0,272.0,584.0,1
-47.0,-2.0,133.0,1732.0,248.0,619.0,1
-39.0,1.0,127.0,1716.0,236.0,645.0,1
-24.0,2.0,114.0,1699.0,230.0,659.0,1
-19.0,7.0,115.0,1681.0,237.0,666.0,1
-13.0,9.0,112.0,1684.0,254.0,668.0,1
-8.0,8.0,106.0,1707.0,273.0,665.0,1
-5.0,8.0,93.0,1731.0,291.0,660.0,1
-1.0,9.0,94.0,1744.0,317.0,659.0,1
1.0,10.0,104.0,1748.0,347.0,659.0,1
-3.0,11.0,120.0,1747.0,378.0,653.0,1
-3.0,16.0,127.0,1751.0,421.0,643.0,1
-9.0,23.0,128.0,1761.0,488.0,637.0,1
-14.0,31.0,126.0,1768.0,554.0,640.0,1
-12.0,40.0,113.0,1761.0,595.0,646.0,1
-12.0,45.0,104.0,1715.0,629.0,657.0,1
-16.0,57.0,99.0,1650.0,669.0,675.0,1
-10.0,62.0,89.0,1584.0,698.0,689.0,1
-16.0,67.0,86.0,1519.0,726.0,704.0,1
-16.0,71.0,72.0,1484.0,751.0,715.0,1
-16.0,79.0,41.0,1455.0,766.0,716.0,1
-8.0,88.0,10.0,1412.0,787.0,707.0,1
-3.0,101.0,-3.0,1353.0,825.0,678.0,1
-10.0,107.0,-5.0,1275.0,863.0,629.0,1
-21.0,111.0,-9.0,1209.0,889.0,606.0,1
-20.0,119.0,-18.0,1159.0,887.0,603.0,1
-22.0,135.0,-15.0,1093.0,859.0,587.0,1
-17.0,138.0,-14.0,986.0,775.0,552.0,1
-17.0,144.0,-13.0,875.0,657.0,506.0,1
-43.0,158.0,6.0,782.0,524.0,430.0,1
-72.0,165.0,34.0,685.0,355.0,356.0,1
-96.0,163.0,73.0,583.0,160.0,275.0,1
-118.0,151.0,121.0,489.0,-29.0,189.0,1
-146.0,144.0,135.0,433.0,-237.0,93.0,1
-161.0,135.0,133.0,421.0,-374.0,-2.0,1
-179.0,135.0,121.0,430.0,-473.0,-98.0,1
-191.0,137.0,120.0,388.0,-554.0,-184.0,1
-184.0,118.0,127.0,305.0,-633.0,-252.0,1
-170.0,94.0,146.0,238.0,-696.0,-312.0,1
-159.0,70.0,160.0,206.0,-744.0,-370.0,1
-136.0,42.0,155.0,179.0,-779.0,-421.0,1
-111.0,14.0,161.0,123.0,-811.0,-479.0,1
-95.0,-3.0,146.0,41.0,-823.0,-544.0,1
-84.0,-31.0,125.0,-27.0,-802.0,-603.0,1
-85.0,-54.0,91.0,-29.0,-754.0,-638.0,1
-62.0,-73.0,50.0,16.0,-708.0,-635.0,1
-40.0,-81.0,31.0,34.0,-639.0,-604.0,1
-14.0,-76.0,36.0,-19.0,-588.0,-523.0,1
9.0,-66.0,71.0,-140.0,-572.0,-432.0,1
53.0,-49.0,93.0,-273.0,-553.0,-353.0,1
71.0,-31.0,119.0,-361.0,-427.0,-277.0,1
103.0,6.0,145.0,-333.0,-252.0,-161.0,1
90.0,46.0,200.0,-257.0,-180.0,-11.0,1
47.0,73.0,294.0,-152.0,-212.0,156.0,1
-29.0,103.0,392.0,-37.0,-240.0,233.0,1
-149.0,139.0,486.0,95.0,-293.0,215.0,1
-124.0,160.0,545.0,277.0,-380.0,163.0,1
-354.0,188.0,739.0,298.0,-438.0,34.0,1
-508.0,193.0,888.0,232.0,-793.0,79.0,1
-321.0,221.0,928.0,151.0,-1147.0,196.0,1
-213.0,262.0,1047.0,-191.0,-1245.0,158.0,1
-171.0,303.0,1185.0,-786.0,-1323.0,45.0,1
-201.0,326.0,1352.0,-1580.0,-1378.0,-22.0,1
-228.0,297.0,1449.0,-2412.0,-1306.0,17.0,1
-178.0,252.0,1392.0,-3073.0,-939.0,107.0,1
-80.0,171.0,1166.0,-3524.0,-387.0,167.0,1
-2.0,68.0,859.0,-3819.0,148.0,72.0,1
41.0,-35.0,540.0,-3814.0,513.0,-157.0,1
-1.0,-159.0,292.0,-3586.0,643.0,-443.0,1
-142.0,-252.0,235.0,-3218.0,512.0,-672.0,1
-156.0,-380.0,160.0,-2497.0,87.0,-653.0,1
-144.0,-471.0,128.0,-1639.0,-363.0,-558.0,1
-122.0,-520.0,143.0,-939.0,-709.0,-427.0,1
-93.0,-509.0,185.0,-491.0,-949.0,-297.0,1
-92.0,-469.0,261.0,-316.0,-1070.0,-212.0,1
-74.0,-374.0,326.0,-314.0,-1138.0,-191.0,1
-16.0,-278.0,387.0,-363.0,-1069.0,-187.0,1
16.0,-189.0,454.0,-372.0,-839.0,-177.0,1
47.0,-129.0,481.0,-198.0,-554.0,-142.0,1
73.0,-88.0,476.0,217.0,-234.0,-107.0,1
73.0,-81.0,440.0,845.0,107.0,-100.0,1
75.0,-94.0,375.0,1535.0,434.0,-102.0,1
72.0,-119.0,289.0,2186.0,681.0,-123.0,1
55.0,-147.0,229.0,2702.0,848.0,-114.0,1
44.0,-172.0,180.0,3006.0,933.0,-57.0,1
46.0,-178.0,162.0,3043.0,963.0,18.0,1
41.0,-167.0,173.0,2792.0,973.0,94.0,1
43.0,-134.0,184.0,2437.0,983.0,125.0,1
39.0,-78.0,180.0,2109.0,1033.0,109.0,1
36.0,-25.0,187.0,1849.0,1066.0,81.0,1
31.0,41.0,175.0,1735.0,1042.0,69.0,1
51.0,96.0,153.0,1765.0,989.0,57.0,1
51.0,146.0,135.0,1876.0,955.0,60.0,1
45.0,182.0,104.0,2013.0,935.0,83.0,1
31.0,195.0,86.0,2050.0,926.0,131.0,1
7.0,186.0,78.0,1947.0,909.0,172.0,1
-13.0,154.0,87.0,1760.0,875.0,209.0,1
-41.0,118.0,105.0,1555.0,830.0,239.0,1
-56.0,89.0,115.0,1367.0,772.0,270.0,1
-79.0,67.0,126.0,1196.0,706.0,295.0,1
-96.0,48.0,127.0,1033.0,641.0,316.0,1
-105.0,42.0,129.0,875.0,586.0,328.0,1
-115.0,43.0,132.0,727.0,528.0,337.0,1
-104.0,35.0,125.0,603.0,452.0,345.0,1
-94.0,37.0,121.0,513.0,367.0,344.0,1
-68.0,36.0,115.0,446.0,282.0,343.0,1
-59.0,36.0,115.0,406.0,201.0,342.0,1
-33.0,39.0,118.0,398.0,121.0,339.0,1
-22.0,52.0,114.0,397.0,58.0,324.0,1
-10.0,62.0,112.0,381.0,7.0,303.0,1
-3.0,81.0,104.0,358.0,-31.0,264.0,1
11.0,95.0,109.0,329.0,-40.0,220.0,1
14.0,118.0,105.0,292.0,-20.0,160.0,1
13.0,134.0,111.0,252.0,25.0,82.0,1
9.0,142.0,124.0,199.0,88.0,14.0,1
12.0,136.0,140.0,151.0,157.0,-42.0,1
1.0,132.0,153.0,121.0,235.0,-90.0,1
-8.0,127.0,158.0,84.0,328.0,-122.0,1
-16.0,123.0,165.0,24.0,402.0,-144.0,1
-32.0,117.0,169.0,-51.0,469.0,-160.0,1
-43.0,113.0,177.0,-143.0,536.0,-172.0,1
-45.0,110.0,189.0,-258.0,598.0,-182.0,1
-57.0,106.0,188.0,-337.0,647.0,-202.0,1
-65.0,101.0,191.0,-408.0,684.0,-218.0,1
-74.0,104.0,192.0,-458.0,707.0,-239.0,1
-71.0,101.0,187.0,-502.0,708.0,-257.0,1
-79.0,99.0,197.0,-535.0,690.0,-277.0,1
-76.0,97.0,196.0,-543.0,657.0,-301.0,1
-76.0,91.0,200.0,-524.0,606.0,-333.0,1
-80.0,85.0,197.0,-485.0,544.0,-365.0,1
-80.0,89.0,186.0,-437.0,483.0,-399.0,1
-74.0,88.0,181.0,-393.0,435.0,-427.0,1
-59.0,87.0,172.0,-360.0,397.0,-456.0,1
-45.0,90.0,161.0,-355.0,370.0,-477.0,1
-41.0,104.0,158.0,-377.0,352.0,-517.0,1
-47.0,100.0,162.0,-397.0,325.0,-583.0,1
-47.0,103.0,162.0,-403.0,297.0,-647.0,1
-39.0,110.0,155.0,-402.0,282.0,-710.0,1
-43.0,106.0,159.0,-412.0,278.0,-764.0,1
-49.0,109.0,155.0,-428.0,267.0,-808.0,1
-48.0,114.0,164.0,-463.0,269.0,-843.0,1
-52.0,118.0,174.0,-518.0,276.0,-874.0,1
-59.0,109.0,181.0,-589.0,296.0,-895.0,1
-65.0,92.0,199.0,-650.0,326.0,-924.0,1
-69.0,76.0,196.0,-681.0,361.0,-965.0,1
-91.0,66.0,204.0,-694.0,409.0,-1014.0,1
-83.0,52.0,207.0,-692.0,463.0,-1033.0,1
-103.0,44.0,207.0,-679.0,525.0,-1073.0,1
-98.0,35.0,204.0,-667.0,570.0,-1087.0,1
-107.0,29.0,208.0,-643.0,596.0,-1134.0,1
-109.0,18.0,212.0,-621.0,609.0,-1147.0,1
-131.0,4.0,212.0,-586.0,618.0,-1170.0,1
-124.0,7.0,205.0,-537.0,609.0,-1187.0,1
-135.0,3.0,198.0,-468.0,587.0,-1208.0,1
-118.0,-22.0,181.0,-430.0,538.0,-1250.0,1
-127.0,26.0,179.0,-459.0,466.0,-1314.0,1
-116.0,31.0,175.0,-451.0,405.0,-1320.0,1
-110.0,35.0,168.0,-430.0,342.0,-1308.0,1
-93.0,34.0,170.0,-417.0,313.0,-1340.0,1
-94.0,33.0,167.0,-409.0,286.0,-1343.0,1
-101.0,31.0,167.0,-380.0,263.0,-1391.0,1
-87.0,34.0,161.0,-359.0,229.0,-1426.0,1
-107.0,36.0,161.0,-373.0,219.0,-1384.0,1
-112.0,30.0,165.0,-414.0,209.0,-1416.0,1
-74.0,25.0,152.0,-496.0,224.0,-1430.0,1
-92.0,39.0,160.0,-586.0,248.0,-1397.0,1
-84.0,29.0,159.0,-653.0,310.0,-1395.0,1
-102.0,22.0,167.0,-695.0,339.0,-1355.0,1
-108.0,-14.0,201.0,-674.0,285.0,-1261.0,1
-112.0,-35.0,213.0,-605.0,266.0,-1268.0,1
-95.0,-47.0,219.0,-522.0,302.0,-1319.0,1
-147.0,-59.0,210.0,-438.0,306.0,-1212.0,1
-145.0,-48.0,215.0,-434.0,321.0,-1179.0,1
-93.0,-36.0,212.0,-489.0,395.0,-1131.0,1
-92.0,-59.0,232.0,-552.0,453.0,-1054.0,1
-174.0,-41.0,222.0,-447.0,406.0,-996.0,1
-102.0,-21.0,205.0,-379.0,427.0,-1067.0,1
-154.0,-38.0,195.0,-398.0,451.0,-1197.0,1
-74.0,-39.0,184.0,-394.0,469.0,-1077.0,1
-59.0,-38.0,179.0,-469.0,490.0,-921.0,1
-187.0,-64.0,195.0,-551.0,500.0,-767.0,1
-167.0,-47.0,196.0,-592.0,510.0,-746.0,1
-167.0,-38.0,200.0,-628.0,543.0,-712.0,1
-165.0,-44.0,198.0,-703.0,544.0,-612.0,1
-149.0,-60.0,204.0,-779.0,522.0,-499.0,1
-148.0,-53.0,212.0,-831.0,438.0,-425.0,1
-171.0,-73.0,262.0,-893.0,377.0,-349.0,1
-177.0,-92.0,267.0,-843.0,251.0,-324.0,1
-173.0,-101.0,268.0,-723.0,163.0,-294.0,1
-205.0,-84.0,260.0,-597.0,114.0,-248.0,1
-147.0,-91.0,253.0,-502.0,89.0,-161.0,1
-182.0,-78.0,250.0,-468.0,64.0,-138.0,1
-150.0,-86.0,248.0,-467.0,7.0,-80.0,1
-169.0,-75.0,249.0,-470.0,-31.0,-38.0,1
-168.0,-78.0,239.0,-418.0,-50.0,6.0,1
-158.0,-78.0,236.0,-352.0,-26.0,25.0,1
-148.0,-90.0,221.0,-269.0,36.0,29.0,1
-149.0,-89.0,210.0,-218.0,104.0,30.0,1
-152.0,-98.0,210.0,-191.0,155.0,57.0,1
-141.0,-93.0,199.0,-174.0,196.0,72.0,1
-132.0,-89.0,199.0,-181.0,228.0,77.0,1
-128.0,-93.0,197.0,-182.0,258.0,79.0,1
-117.0,-91.0,194.0,-155.0,281.0,80.0,1
-117.0,-91.0,203.0,-127.0,292.0,92.0,1
-105.0,-86.0,204.0,-90.0,289.0,109.0,1
-98.0,-89.0,215.0,-48.0,290.0,124.0,1
-101.0,-96.0,218.0,38.0,301.0,130.0,1
-89.0,-95.0,214.0,153.0,336.0,137.0,1
-87.0,-91.0,211.0,253.0,389.0,157.0,1
-116.0,-74.0,203.0,311.0,456.0,206.0,1
-62.0,-85.0,229.0,333.0,521.0,293.0,1
-52.0,-88.0,226.0,410.0,556.0,284.0,1
-47.0,-88.0,215.0,519.0,585.0,251.0,1
-44.0,-87.0,220.0,603.0,634.0,248.0,1
-47.0,-77.0,205.0,665.0,670.0,227.0,1
-49.0,-67.0,198.0,680.0,707.0,212.0,1
-41.0,-54.0,195.0,654.0,741.0,195.0,1
-42.0,-39.0,182.0,624.0,764.0,181.0,1
-27.0,-21.0,189.0,581.0,793.0,171.0,1
-42.0,-8.0,188.0,541.0,806.0,145.0,1
-47.0,12.0,165.0,512.0,774.0,153.0,1
-50.0,25.0,162.0,446.0,743.0,171.0,1
-89.0,35.0,131.0,360.0,710.0,162.0,1
-151.0,51.0,95.0,223.0,649.0,194.0,1
-187.0,52.0,111.0,-3.0,558.0,274.0,1
-187.0,37.0,122.0,-169.0,472.0,343.0,1
-172.0,23.0,133.0,-245.0,419.0,390.0,1
-148.0,6.0,141.0,-296.0,364.0,398.0,1
-122.0,-23.0,165.0,-342.0,308.0,379.0,1
-101.0,-48.0,182.0,-326.0,290.0,359.0,1
-77.0,-77.0,191.0,-235.0,296.0,339.0,1
-58.0,-96.0,189.0,-124.0,295.0,310.0,1
-55.0,-118.0,206.0,-83.0,310.0,252.0,1
-44.0,-129.0,215.0,-37.0,320.0,177.0,1
-40.0,-127.0,228.0,6.0,342.0,98.0,1
-44.0,-127.0,236.0,44.0,382.0,16.0,1
-57.0,-116.0,234.0,102.0,414.0,-55.0,1
-60.0,-100.0,225.0,148.0,455.0,-117.0,1
-64.0,-83.0,214.0,166.0,540.0,-175.0,1
-68.0,-77.0,212.0,197.0,662.0,-224.0,1
-69.0,-69.0,197.0,264.0,806.0,-258.0,1
-70.0,-56.0,174.0,328.0,976.0,-289.0,1
-74.0,-41.0,164.0,384.0,1160.0,-314.0,1
-75.0,-24.0,142.0,423.0,1322.0,-328.0,1
-85.0,-14.0,131.0,426.0,1456.0,-345.0,1
-83.0,-5.0,122.0,408.0,1533.0,-347.0,1
-89.0,8.0,125.0,342.0,1577.0,-358.0,1
-90.0,7.0,130.0,257.0,1574.0,-381.0,1
-95.0,4.0,137.0,182.0,1555.0,-401.0,1
-97.0,-20.0,142.0,112.0,1531.0,-401.0,1
-101.0,0.0,151.0,61.0,1485.0,-420.0,1
-100.0,-5.0,155.0,-12.0,1465.0,-432.0,1
-116.0,-13.0,153.0,-77.0,1436.0,-456.0,1
-117.0,-15.0,157.0,-126.0,1422.0,-467.0,1
-88.0,-13.0,182.0,-164.0,1432.0,-477.0,1
-101.0,-21.0,176.0,-189.0,1420.0,-528.0,1
-180.0,46.0,147.0,-102.0,1363.0,-582.0,1
-207.0,83.0,74.0,25.0,1367.0,-587.0,1
-247.0,66.0,76.0,-105.0,1404.0,-533.0,1
-273.0,24.0,82.0,-373.0,1357.0,-450.0,1
-295.0,-21.0,125.0,-566.0,1245.0,-379.0,1
-294.0,-66.0,163.0,-593.0,1076.0,-332.0,1
-293.0,-105.0,159.0,-514.0,923.0,-307.0,1
-275.0,-131.0,156.0,-414.0,834.0,-267.0,1
-263.0,-138.0,150.0,-290.0,758.0,-216.0,1
-250.0,-138.0,132.0,-135.0,682.0,-175.0,1
-239.0,-130.0,120.0,-3.0,636.0,-141.0,1
-220.0,-118.0,117.0,98.0,635.0,-110.0,1
-212.0,-109.0,126.0,166.0,667.0,-76.0,1
-212.0,-98.0,138.0,210.0,708.0,-41.0,1
-207.0,-93.0,146.0,251.0,750.0,-9.0,1
-212.0,-84.0,159.0,298.0,804.0,24.0,1
-220.0,-81.0,166.0,362.0,858.0,61.0,1
-217.0,-80.0,163.0,432.0,902.0,103.0,1
-224.0,-70.0,151.0,488.0,934.0,144.0,1
-231.0,-55.0,147.0,535.0,945.0,179.0,1
-234.0,-46.0,138.0,563.0,944.0,207.0,1
-233.0,-37.0,133.0,567.0,936.0,235.0,1
-226.0,-27.0,131.0,560.0,920.0,254.0,1
-224.0,-13.0,120.0,549.0,905.0,263.0,1
-221.0,-5.0,112.0,527.0,890.0,266.0,1
-222.0,-2.0,112.0,485.0,876.0,265.0,1
-219.0,7.0,110.0,434.0,863.0,260.0,1
-223.0,17.0,107.0,382.0,859.0,253.0,1
-226.0,29.0,98.0,321.0,857.0,240.0,1
-229.0,33.0,93.0,250.0,850.0,229.0,1
-236.0,35.0,88.0,173.0,835.0,221.0,1
-238.0,36.0,78.0,94.0,801.0,208.0,1
-239.0,33.0,76.0,12.0,755.0,194.0,1
-242.0,29.0,77.0,-69.0,696.0,177.0,1
-240.0,17.0,73.0,-120.0,621.0,158.0,1
-242.0,20.0,60.0,-153.0,530.0,116.0,1
-248.0,19.0,50.0,-184.0,442.0,74.0,1
-247.0,21.0,48.0,-219.0,357.0,39.0,1
-248.0,27.0,28.0,-260.0,263.0,1.0,1
-240.0,22.0,24.0,-303.0,162.0,-37.0,1
-232.0,15.0,21.0,-357.0,53.0,-76.0,1
-221.0,6.0,35.0,-408.0,-62.0,-113.0,1
-218.0,-10.0,45.0,-449.0,-171.0,-147.0,1
-208.0,-22.0,55.0,-467.0,-272.0,-178.0,1
-204.0,-32.0,58.0,-468.0,-354.0,-206.0,1
-196.0,-36.0,66.0,-456.0,-419.0,-232.0,1
-195.0,-41.0,71.0,-434.0,-475.0,-260.0,1
-200.0,-41.0,72.0,-407.0,-519.0,-285.0,1
-214.0,-47.0,82.0,-375.0,-553.0,-308.0,1
-208.0,-51.0,86.0,-347.0,-585.0,-327.0,1
-206.0,-53.0,95.0,-323.0,-611.0,-348.0,1
-215.0,-50.0,104.0,-299.0,-631.0,-361.0,1
-215.0,-54.0,107.0,-276.0,-650.0,-367.0,1
-219.0,-52.0,119.0,-252.0,-667.0,-366.0,1
-219.0,-51.0,129.0,-224.0,-687.0,-358.0,1
-222.0,-50.0,131.0,-195.0,-703.0,-345.0,1
-224.0,-52.0,136.0,-167.0,-716.0,-334.0,1
-223.0,-47.0,138.0,-135.0,-730.0,-318.0,1
-221.0,-48.0,140.0,-115.0,-744.0,-301.0,1
-220.0,-47.0,138.0,-109.0,-754.0,-285.0,1
-226.0,-44.0,141.0,-103.0,-759.0,-269.0,1
-220.0,-44.0,141.0,-101.0,-763.0,-254.0,1
-221.0,-44.0,140.0,-105.0,-754.0,-240.0,1
-221.0,-42.0,137.0,-115.0,-748.0,-227.0,1
-218.0,-42.0,136.0,-129.0,-741.0,-216.0,1
-213.0,-41.0,136.0,-144.0,-724.0,-206.0,1
-215.0,-38.0,137.0,-153.0,-711.0,-199.0,1
-215.0,-41.0,133.0,-161.0,-706.0,-193.0,1
-212.0,-37.0,138.0,-170.0,-703.0,-183.0,1
-209.0,-41.0,135.0,-178.0,-705.0,-176.0,1
-207.0,-41.0,138.0,-178.0,-709.0,-169.0,1
-203.0,-41.0,141.0,-167.0,-706.0,-164.0,1
-201.0,-40.0,136.0,-150.0,-701.0,-155.0,1
-199.0,-42.0,137.0,-132.0,-693.0,-145.0,1
-196.0,-41.0,139.0,-119.0,-686.0,-135.0,1
-192.0,-40.0,137.0,-114.0,-683.0,-125.0,1
-187.0,-38.0,138.0,-109.0,-685.0,-118.0,1
-179.0,-37.0,138.0,-105.0,-688.0,-113.0,1
-175.0,-33.0,145.0,-99.0,-692.0,-106.0,1
-176.0,-29.0,139.0,-91.0,-696.0,-101.0,1
-173.0,-26.0,138.0,-85.0,-698.0,-98.0,1
-167.0,-26.0,145.0,-78.0,-706.0,-94.0,1
-164.0,-23.0,147.0,-78.0,-718.0,-91.0,1
-161.0,-26.0,150.0,-77.0,-734.0,-89.0,1
-158.0,-24.0,151.0,-77.0,-747.0,-88.0,1
-158.0,-29.0,155.0,-77.0,-758.0,-87.0,1
-154.0,-28.0,151.0,-78.0,-762.0,-87.0,1
-151.0,-32.0,160.0,-80.0,-759.0,-85.0,1
-152.0,-34.0,158.0,-84.0,-756.0,-81.0,1
-149.0,-33.0,160.0,-91.0,-751.0,-73.0,1
-146.0,-36.0,165.0,-102.0,-744.0,-70.0,1
-145.0,-33.0,166.0,-113.0,-736.0,-67.0,1
-144.0,-37.0,162.0,-125.0,-727.0,-62.0,1
-142.0,-35.0,163.0,-136.0,-715.0,-58.0,1
-141.0,-37.0,171.0,-144.0,-701.0,-56.0,1
-138.0,-36.0,172.0,-155.0,-688.0,-54.0,1
-138.0,-35.0,173.0,-162.0,-679.0,-54.0,1
-137.0,-41.0,174.0,-167.0,-669.0,-53.0,1
-132.0,-40.0,175.0,-167.0,-656.0,-53.0,1
-135.0,-43.0,176.0,-166.0,-644.0,-54.0,1
-131.0,-42.0,169.0,-163.0,-623.0,-55.0,1
-133.0,-44.0,172.0,-165.0,-598.0,-53.0,1
-132.0,-44.0,178.0,-169.0,-575.0,-49.0,1
-131.0,-44.0,172.0,-173.0,-551.0,-49.0,1
-131.0,-42.0,178.0,-178.0,-526.0,-46.0,1
-131.0,-47.0,178.0,-178.0,-504.0,-42.0,1
-123.0,-50.0,174.0,-176.0,-483.0,-38.0,1
-121.0,-50.0,179.0,-168.0,-459.0,-29.0,1
-118.0,-55.0,175.0,-166.0,-441.0,-32.0,1
-120.0,-53.0,179.0,-166.0,-423.0,-32.0,1
-121.0,-54.0,176.0,-163.0,-410.0,-30.0,1
-119.0,-53.0,178.0,-163.0,-402.0,-31.0,1
-118.0,-55.0,179.0,-161.0,-393.0,-28.0,1
-115.0,-55.0,179.0,-163.0,-382.0,-27.0,1
-116.0,-56.0,183.0,-169.0,-372.0,-27.0,1
-115.0,-56.0,181.0,-168.0,-361.0,-27.0,1
-111.0,-58.0,181.0,-161.0,-351.0,-29.0,1
-113.0,-56.0,180.0,-149.0,-336.0,-26.0,1
-115.0,-56.0,178.0,-131.0,-316.0,-22.0,1
-115.0,-59.0,181.0,-118.0,-297.0,-29.0,1
-111.0,-57.0,174.0,-103.0,-287.0,-36.0,1
-115.0,-55.0,174.0,-96.0,-280.0,-39.0,1
-116.0,-56.0,176.0,-91.0,-276.0,-42.0,1
-115.0,-56.0,175.0,-90.0,-275.0,-42.0,1
-119.0,-55.0,175.0,-90.0,-272.0,-42.0,1
-120.0,-55.0,177.0,-92.0,-269.0,-43.0,1
-116.0,-56.0,177.0,-92.0,-265.0,-45.0,1
-116.0,-56.0,176.0,-88.0,-255.0,-46.0,1
-120.0,-57.0,179.0,-79.0,-243.0,-48.0,1
-117.0,-57.0,172.0,-74.0,-229.0,-51.0,1
-116.0,-55.0,170.0,-74.0,-215.0,-56.0,1
-118.0,-59.0,176.0,-79.0,-203.0,-59.0,1
-107.0,-51.0,194.0,-86.0,-194.0,-63.0,1
-120.0,-88.0,192.0,-84.0,-182.0,-52.0,1
-122.0,-58.0,173.0,-92.0,-181.0,-63.0,1
-118.0,-58.0,177.0,-102.0,-176.0,-72.0,1
-119.0,-57.0,178.0,-109.0,-173.0,-79.0,1
-117.0,-58.0,174.0,-118.0,-177.0,-87.0,1
-124.0,-57.0,177.0,-126.0,-179.0,-96.0,1
-121.0,-59.0,175.0,-132.0,-180.0,-99.0,1
-123.0,-56.0,175.0,-134.0,-178.0,-102.0,1
-122.0,-56.0,180.0,-138.0,-174.0,-107.0,1
-121.0,-58.0,178.0,-144.0,-169.0,-113.0,1
-122.0,-58.0,183.0,-146.0,-157.0,-111.0,1
-121.0,-56.0,177.0,-142.0,-141.0,-109.0,1
-125.0,-56.0,177.0,-132.0,-119.0,-104.0,1
-126.0,-56.0,177.0,-112.0,-97.0,-96.0,1
-123.0,-56.0,180.0,-98.0,-77.0,-91.0,1
-129.0,-56.0,179.0,-84.0,-62.0,-83.0,1
-124.0,-60.0,179.0,-69.0,-49.0,-78.0,1
-125.0,-59.0,173.0,-59.0,-39.0,-72.0,1
-127.0,-56.0,175.0,-54.0,-31.0,-67.0,1
-130.0,-56.0,177.0,-48.0,-23.0,-65.0,1
-126.0,-56.0,175.0,-47.0,-16.0,-62.0,1
-125.0,-58.0,175.0,-48.0,-12.0,-62.0,1
-126.0,-59.0,179.0,-49.0,-8.0,-61.0,1
-128.0,-58.0,172.0,-48.0,-4.0,-58.0,1
-131.0,-57.0,175.0,-48.0,1.0,-55.0,1
-124.0,-57.0,175.0,-44.0,6.0,-54.0,1
-128.0,-57.0,177.0,-38.0,14.0,-52.0,1
-128.0,-55.0,171.0,-35.0,18.0,-49.0,1
-126.0,-58.0,175.0,-32.0,26.0,-49.0,1
-127.0,-55.0,175.0,-31.0,33.0,-48.0,1
-130.0,-55.0,181.0,-31.0,38.0,-48.0,1
-125.0,-55.0,175.0,-30.0,39.0,-49.0,1
-130.0,-55.0,176.0,-27.0,41.0,-46.0,1
-129.0,-56.0,179.0,-23.0,43.0,-44.0,1
-129.0,-55.0,177.0,-21.0,47.0,-42.0,1
-133.0,-53.0,178.0,-17.0,49.0,-41.0,1
-131.0,-52.0,176.0,-13.0,52.0,-38.0,1
-132.0,-51.0,176.0,-12.0,56.0,-35.0,1
-130.0,-51.0,172.0,-9.0,56.0,-29.0,1
-131.0,-52.0,175.0,-16.0,62.0,-30.0,1
-132.0,-48.0,175.0,-25.0,62.0,-31.0,1
-136.0,-48.0,174.0,-37.0,61.0,-27.0,1
-135.0,-45.0,176.0,-47.0,59.0,-25.0,1
-132.0,-46.0,172.0,-59.0,58.0,-23.0,1
-133.0,-47.0,177.0,-69.0,55.0,-21.0,1
-134.0,-47.0,173.0,-73.0,52.0,-19.0,1
-133.0,-49.0,173.0,-76.0,49.0,-17.0,1
-137.0,-49.0,176.0,-76.0,47.0,-18.0,1
-137.0,-49.0,172.0,-73.0,43.0,-15.0,1
-135.0,-48.0,172.0,-68.0,40.0,-13.0,1
-135.0,-50.0,168.0,-62.0,37.0,-13.0,1
-133.0,-50.0,172.0,-57.0,32.0,-11.0,1
-133.0,-53.0,171.0,-56.0,26.0,-11.0,1
-135.0,-50.0,173.0,-54.0,20.0,-12.0,1
-136.0,-51.0,171.0,-52.0,15.0,-13.0,1
-133.0,-50.0,171.0,-52.0,13.0,-13.0,1
-135.0,-51.0,174.0,-53.0,9.0,-12.0,1
-137.0,-51.0,172.0,-56.0,3.0,-14.0,1
-136.0,-53.0,175.0,-59.0,-2.0,-14.0,1
-137.0,-52.0,178.0,-58.0,-2.0,-15.0,1
-136.0,-50.0,175.0,-56.0,-1.0,-16.0,1
-140.0,-50.0,172.0,-55.0,-3.0,-17.0,1
-132.0,-54.0,172.0,-53.0,1.0,-16.0,1
-136.0,-57.0,173.0,-50.0,3.0,-15.0,1
-138.0,-55.0,176.0,-46.0,5.0,-16.0,1
-135.0,-53.0,172.0,-43.0,8.0,-16.0,1
-139.0,-52.0,174.0,-41.0,10.0,-16.0,1
-135.0,-53.0,175.0,-40.0,10.0,-17.0,1
-134.0,-52.0,175.0,-41.0,9.0,-16.0,1
-133.0,-54.0,174.0,-44.0,7.0,-17.0,1
-134.0,-52.0,174.0,-48.0,6.0,-18.0,1
-136.0,-54.0,170.0,-49.0,2.0,-20.0,1
-135.0,-55.0,174.0,-54.0,2.0,-21.0,1
-135.0,-55.0,176.0,-58.0,1.0,-24.0,1
-134.0,-52.0,175.0,-62.0,1.0,-23.0,1
-133.0,-53.0,173.0,-65.0,-1.0,-24.0,1
-133.0,-55.0,175.0,-68.0,0.0,-23.0,1
-132.0,-56.0,171.0,-70.0,-2.0,-21.0,1
-132.0,-54.0,172.0,-69.0,-3.0,-22.0,1
-133.0,-51.0,172.0,-67.0,-2.0,-22.0,1
-130.0,-56.0,175.0,-60.0,0.0,-14.0,1
-132.0,-54.0,172.0,-57.0,-4.0,-16.0,1
-137.0,-54.0,171.0,-60.0,-7.0,-17.0,1
-128.0,-54.0,170.0,-63.0,-10.0,-18.0,1
-136.0,-48.0,170.0,-63.0,-17.0,-22.0,1
-130.0,-56.0,169.0,-62.0,-21.0,-22.0,1
-133.0,-53.0,168.0,-66.0,-26.0,-23.0,1
-129.0,-53.0,170.0,-70.0,-31.0,-23.0,1
-134.0,-56.0,169.0,-75.0,-34.0,-21.0,1
-132.0,-56.0,173.0,-81.0,-37.0,-19.0,1
-130.0,-54.0,171.0,-83.0,-46.0,-22.0,1
-132.0,-56.0,172.0,-85.0,-53.0,-25.0,1
-128.0,-57.0,172.0,-92.0,-56.0,-23.0,1
-128.0,-55.0,174.0,-96.0,-62.0,-21.0,1
-134.0,-54.0,178.0,-101.0,-64.0,-17.0,1
-132.0,-52.0,179.0,-103.0,-69.0,-18.0,1
-130.0,-55.0,178.0,-111.0,-71.0,-20.0,1
-131.0,-56.0,183.0,-116.0,-75.0,-19.0,1
-128.0,-58.0,177.0,-120.0,-81.0,-16.0,1
-128.0,-55.0,179.0,-126.0,-84.0,-17.0,1
-133.0,-56.0,178.0,-130.0,-82.0,-17.0,1
-129.0,-53.0,176.0,-132.0,-80.0,-14.0,1
-132.0,-55.0,179.0,-137.0,-79.0,-10.0,1
-130.0,-54.0,177.0,-142.0,-71.0,-5.0,1
-132.0,-54.0,181.0,-142.0,-61.0,0.0,1
-128.0,-58.0,177.0,-134.0,-51.0,0.0,1
-129.0,-56.0,177.0,-125.0,-42.0,-2.0,1
-127.0,-58.0,174.0,-120.0,-34.0,-1.0,1
-131.0,-57.0,173.0,-115.0,-25.0,0.0,1
-129.0,-57.0,178.0,-110.0,-21.0,-2.0,1
-131.0,-55.0,173.0,-105.0,-20.0,-5.0,1
-130.0,-58.0,173.0,-103.0,-26.0,-15.0,1
-126.0,-57.0,170.0,-98.0,-27.0,-16.0,1
-128.0,-60.0,175.0,-94.0,-22.0,-10.0,1
-127.0,-57.0,175.0,-89.0,-20.0,-8.0,1
-129.0,-55.0,169.0,-84.0,-20.0,-8.0,1
-129.0,-57.0,172.0,-74.0,-19.0,-5.0,1
-128.0,-58.0,173.0,-70.0,-19.0,-5.0,1
-127.0,-57.0,173.0,-70.0,-20.0,-9.0,1
-128.0,-56.0,178.0,-71.0,-23.0,-12.0,1
-130.0,-56.0,173.0,-75.0,-25.0,-15.0,1
-125.0,-60.0,175.0,-77.0,-29.0,-22.0,1
-127.0,-50.0,163.0,-77.0,-26.0,-20.0,1
-131.0,-57.0,181.0,-75.0,-24.0,-17.0,1
-127.0,-58.0,173.0,-72.0,-21.0,-18.0,1
-128.0,-57.0,176.0,-68.0,-18.0,-19.0,1
-132.0,-55.0,175.0,-63.0,-16.0,-18.0,1
-130.0,-53.0,174.0,-59.0,-11.0,-19.0,1
-130.0,-57.0,170.0,-63.0,-12.0,-23.0,1
-127.0,-56.0,176.0,-67.0,-18.0,-24.0,1
-128.0,-55.0,172.0,-74.0,-24.0,-25.0,1
-127.0,-56.0,178.0,-76.0,-28.0,-24.0,1
-128.0,-60.0,175.0,-79.0,-30.0,-24.0,1
-135.0,-58.0,177.0,-78.0,-29.0,-23.0,1
-126.0,-60.0,177.0,-75.0,-28.0,-22.0,1
-132.0,-57.0,182.0,-71.0,-26.0,-22.0,1
-126.0,-59.0,173.0,-64.0,-20.0,-24.0,1
-126.0,-60.0,174.0,-58.0,-15.0,-25.0,1
-126.0,-54.0,175.0,-49.0,-10.0,-26.0,1
-124.0,-60.0,171.0,-42.0,-3.0,-25.0,1
-127.0,-59.0,179.0,-35.0,1.0,-25.0,1
-126.0,-60.0,175.0,-31.0,2.0,-28.0,1
-127.0,-57.0,176.0,-29.0,3.0,-28.0,1
-124.0,-57.0,177.0,-26.0,4.0,-26.0,1
-122.0,-66.0,173.0,-31.0,0.0,-27.0,1
-125.0,-59.0,173.0,-42.0,-4.0,-26.0,1
-123.0,-57.0,174.0,-59.0,-9.0,-26.0,1
-122.0,-61.0,175.0,-77.0,-11.0,-26.0,1
-127.0,-57.0,178.0,-94.0,-14.0,-26.0,1
-123.0,-61.0,179.0,-106.0,-15.0,-27.0,1
-126.0,-56.0,175.0,-118.0,-14.0,-25.0,1
-120.0,-57.0,182.0,-128.0,-12.0,-22.0,1
-125.0,-59.0,177.0,-131.0,-10.0,-26.0,1
-124.0,-55.0,178.0,-127.0,-12.0,-30.0,1
-125.0,-56.0,182.0,-124.0,-10.0,-30.0,1
-123.0,-67.0,175.0,-119.0,-12.0,-30.0,1
-123.0,-59.0,179.0,-113.0,-10.0,-30.0,1
-121.0,-57.0,179.0,-105.0,-9.0,-27.0,1
-122.0,-59.0,179.0,-98.0,-7.0,-26.0,1
-124.0,-57.0,175.0,-89.0,-4.0,-25.0,1
-122.0,-60.0,177.0,-83.0,-3.0,-27.0,1
-123.0,-59.0,177.0,-78.0,-2.0,-24.0,1
-124.0,-57.0,178.0,-77.0,-1.0,-26.0,1
-122.0,-59.0,180.0,-73.0,2.0,-27.0,1
-121.0,-60.0,175.0,-70.0,3.0,-26.0,1
-120.0,-57.0,175.0,-71.0,4.0,-27.0,1
-122.0,-56.0,179.0,-71.0,5.0,-27.0,1
-123.0,-58.0,172.0,-70.0,5.0,-28.0,1
-127.0,-56.0,178.0,-72.0,4.0,-28.0,1
-123.0,-57.0,178.0,-72.0,3.0,-29.0,1
-122.0,-58.0,178.0,-70.0,4.0,-29.0,1
-124.0,-57.0,174.0,-68.0,6.0,-28.0,1
-123.0,-61.0,174.0,-67.0,10.0,-28.0,1
-122.0,-59.0,178.0,-63.0,13.0,-26.0,1
-127.0,-59.0,177.0,-65.0,13.0,-27.0,1
-126.0,-59.0,172.0,-63.0,14.0,-25.0,1
-126.0,-57.0,176.0,-61.0,16.0,-22.0,1
-125.0,-57.0,174.0,-57.0,18.0,-21.0,1
-123.0,-59.0,178.0,-53.0,19.0,-18.0,1
-123.0,-59.0,175.0,-49.0,18.0,-17.0,1
-128.0,-60.0,178.0,-48.0,18.0,-16.0,1
-128.0,-59.0,172.0,-46.0,16.0,-16.0,1
-128.0,-59.0,174.0,-47.0,15.0,-16.0,1
-125.0,-61.0,176.0,-50.0,13.0,-15.0,1
-127.0,-59.0,172.0,-51.0,10.0,-14.0,1
-125.0,-59.0,175.0,-57.0,5.0,-12.0,1
-128.0,-62.0,178.0,-63.0,0.0,-12.0,1
-126.0,-59.0,175.0,-73.0,-6.0,-10.0,1
-126.0,-61.0,174.0,-77.0,-9.0,-6.0,1
-124.0,-62.0,176.0,-78.0,-11.0,-5.0,1
-126.0,-58.0,175.0,-73.0,-8.0,-4.0,1
-128.0,-61.0,175.0,-68.0,-3.0,-3.0,1
-125.0,-61.0,175.0,-64.0,2.0,-4.0,1
-127.0,-61.0,177.0,-60.0,7.0,-2.0,1
-126.0,-60.0,173.0,-54.0,13.0,-1.0,1
-129.0,-60.0,176.0,-46.0,17.0,1.0,1
-128.0,-60.0,173.0,-43.0,18.0,2.0,1
-128.0,-63.0,176.0,-39.0,18.0,3.0,1
-129.0,-61.0,176.0,-37.0,21.0,3.0,1
-124.0,-64.0,174.0,-37.0,20.0,4.0,1
-127.0,-61.0,177.0,-39.0,20.0,3.0,1
-126.0,-63.0,173.0,-40.0,18.0,4.0,1
-129.0,-62.0,182.0,-42.0,16.0,4.0,1
-127.0,-60.0,174.0,-46.0,14.0,4.0,1
-128.0,-61.0,176.0,-48.0,14.0,5.0,1
-127.0,-60.0,172.0,-48.0,12.0,4.0,1
-129.0,-59.0,174.0,-46.0,11.0,4.0,1
-127.0,-59.0,173.0,-45.0,13.0,4.0,1
-125.0,-58.0,173.0,-40.0,13.0,4.0,1
-128.0,-58.0,174.0,-35.0,15.0,2.0,1
-124.0,-61.0,173.0,-31.0,17.0,3.0,1
-129.0,-61.0,174.0,-29.0,17.0,3.0,1
-128.0,-58.0,176.0,-26.0,16.0,4.0,1
-126.0,-60.0,175.0,-27.0,13.0,5.0,1
-128.0,-57.0,176.0,-28.0,10.0,6.0,1
-125.0,-61.0,176.0,-30.0,7.0,6.0,1
-128.0,-57.0,178.0,-33.0,4.0,5.0,1
-122.0,-59.0,176.0,-35.0,4.0,5.0,1
-124.0,-59.0,177.0,-35.0,3.0,6.0,1
-128.0,-58.0,177.0,-37.0,0.0,6.0,1
-125.0,-56.0,180.0,-37.0,-2.0,7.0,1
-121.0,-59.0,175.0,-36.0,-3.0,6.0,1
-123.0,-57.0,175.0,-34.0,-6.0,7.0,1
-122.0,-57.0,175.0,-32.0,-6.0,6.0,1
-125.0,-57.0,176.0,-30.0,-4.0,5.0,1
-122.0,-59.0,175.0,-28.0,-3.0,6.0,1
-123.0,-56.0,175.0,-26.0,-2.0,7.0,1
-122.0,-57.0,183.0,-26.0,-1.0,6.0,1
-123.0,-59.0,177.0,-26.0,0.0,4.0,1
-125.0,-57.0,176.0,-26.0,2.0,5.0,1
-126.0,-59.0,175.0,-28.0,4.0,5.0,1
-124.0,-60.0,180.0,-28.0,5.0,4.0,1
-123.0,-60.0,178.0,-29.0,5.0,6.0,1
-125.0,-58.0,175.0,-30.0,7.0,7.0,1
-122.0,-59.0,179.0,-30.0,10.0,6.0,1
-120.0,-60.0,178.0,-31.0,12.0,7.0,1
-122.0,-59.0,181.0,-33.0,14.0,7.0,1
-123.0,-59.0,177.0,-34.0,16.0,8.0,1
-126.0,-60.0,178.0,-35.0,19.0,8.0,1
-120.0,-61.0,183.0,-35.0,21.0,9.0,1
-127.0,-57.0,179.0,-35.0,24.0,10.0,1
-123.0,-58.0,180.0,-37.0,28.0,10.0,1
-125.0,-58.0,179.0,-37.0,29.0,10.0,1
-124.0,-58.0,174.0,-34.0,32.0,12.0,1
-124.0,-58.0,178.0,-33.0,37.0,11.0,1
-123.0,-58.0,174.0,-32.0,39.0,11.0,1
-125.0,-59.0,178.0,-32.0,42.0,12.0,1
-125.0,-59.0,176.0,-31.0,44.0,10.0,1
-124.0,-60.0,174.0,-28.0,46.0,11.0,1
-126.0,-57.0,175.0,-30.0,48.0,12.0,1
-127.0,-58.0,176.0,-30.0,47.0,12.0,1
-123.0,-58.0,173.0,-30.0,48.0,12.0,1
-127.0,-59.0,174.0,-32.0,46.0,13.0,1
-122.0,-60.0,175.0,-33.0,46.0,12.0,1
-122.0,-62.0,178.0,-33.0,42.0,11.0,1
-125.0,-60.0,180.0,-34.0,42.0,11.0,1
-129.0,-58.0,177.0,-33.0,40.0,10.0,1
-126.0,-58.0,173.0,-32.0,39.0,11.0,1
-125.0,-60.0,177.0,-31.0,40.0,12.0,1
-126.0,-59.0,174.0,-30.0,38.0,11.0,1
-125.0,-60.0,177.0,-28.0,37.0,10.0,1
-124.0,-57.0,176.0,-28.0,38.0,11.0,1
-125.0,-60.0,177.0,-27.0,38.0,11.0,1
-128.0,-56.0,174.0,-28.0,39.0,9.0,1
-130.0,-57.0,176.0,-25.0,40.0,8.0,1
-126.0,-58.0,174.0,-26.0,40.0,7.0,1
-127.0,-58.0,172.0,-30.0,41.0,6.0,1
-128.0,-57.0,176.0,-34.0,41.0,7.0,1
-127.0,-60.0,177.0,-37.0,42.0,7.0,1
-127.0,-57.0,176.0,-37.0,42.0,9.0,1
-126.0,-57.0,179.0,-37.0,43.0,10.0,1
-127.0,-59.0,178.0,-36.0,46.0,11.0,1
-130.0,-56.0,177.0,-34.0,47.0,10.0,1
-127.0,-60.0,172.0,-32.0,49.0,11.0,1
-127.0,-57.0,176.0,-30.0,50.0,12.0,1
-129.0,-57.0,176.0,-30.0,49.0,13.0,1
-125.0,-58.0,173.0,-32.0,47.0,12.0,1
-124.0,-60.0,174.0,-28.0,46.0,14.0,1
-127.0,-57.0,177.0,-27.0,45.0,13.0,1
-128.0,-57.0,176.0,-23.0,43.0,13.0,1
-126.0,-56.0,174.0,-17.0,44.0,12.0,1
-130.0,-56.0,176.0,-13.0,45.0,10.0,1
-128.0,-54.0,175.0,-11.0,42.0,8.0,1
-129.0,-56.0,172.0,-12.0,37.0,6.0,1
-129.0,-55.0,174.0,-12.0,28.0,5.0,1
-130.0,-55.0,171.0,-16.0,19.0,4.0,1
-132.0,-55.0,173.0,-22.0,13.0,1.0,1
-130.0,-57.0,175.0,-27.0,9.0,1.0,1
-131.0,-56.0,176.0,-31.0,7.0,2.0,1
-127.0,-60.0,174.0,-34.0,7.0,1.0,1
-128.0,-56.0,175.0,-32.0,9.0,0.0,1
-127.0,-56.0,174.0,-31.0,12.0,0.0,1
-126.0,-59.0,172.0,-26.0,18.0,-1.0,1
-128.0,-58.0,176.0,-24.0,24.0,-2.0,1
-127.0,-58.0,175.0,-22.0,27.0,-1.0,1
-129.0,-55.0,178.0,-19.0,32.0,-3.0,1
-126.0,-58.0,175.0,-15.0,35.0,-1.0,1
-126.0,-56.0,179.0,-12.0,36.0,-1.0,1
-128.0,-58.0,172.0,-13.0,34.0,0.0,1
-130.0,-59.0,179.0,-16.0,30.0,1.0,1
-132.0,-57.0,174.0,-23.0,24.0,2.0,1
-130.0,-56.0,176.0,-31.0,22.0,2.0,1
-130.0,-55.0,174.0,-37.0,21.0,4.0,1
-126.0,-57.0,176.0,-43.0,23.0,4.0,1
-130.0,-59.0,176.0,-48.0,24.0,5.0,1
-129.0,-56.0,173.0,-53.0,24.0,7.0,1
-128.0,-59.0,173.0,-55.0,27.0,6.0,1
-130.0,-54.0,173.0,-56.0,25.0,8.0,1
-131.0,-57.0,173.0,-54.0,25.0,8.0,1
-127.0,-56.0,176.0,-52.0,24.0,10.0,1
-128.0,-56.0,176.0,-45.0,21.0,9.0,1
-127.0,-55.0,173.0,-42.0,17.0,9.0,1
-129.0,-55.0,173.0,-38.0,13.0,8.0,1
-124.0,-59.0,178.0,-34.0,14.0,8.0,1
-128.0,-55.0,177.0,-35.0,13.0,7.0,1
-123.0,-57.0,175.0,-34.0,13.0,6.0,1
-127.0,-56.0,172.0,-35.0,14.0,5.0,1
-125.0,-58.0,174.0,-35.0,16.0,3.0,1
-128.0,-56.0,178.0,-37.0,17.0,4.0,1
-128.0,-53.0,175.0,-39.0,18.0,1.0,1
-122.0,-57.0,176.0,-41.0,19.0,1.0,1
-127.0,-56.0,177.0,-42.0,20.0,0.0,1
-128.0,-56.0,177.0,-44.0,20.0,-2.0,1
-125.0,-56.0,176.0,-42.0,19.0,-2.0,1
-125.0,-60.0,177.0,-40.0,20.0,-1.0,1
-130.0,-55.0,179.0,-40.0,21.0,-1.0,1
-130.0,-55.0,173.0,-39.0,21.0,-1.0,1
-128.0,-56.0,178.0,-39.0,22.0,-3.0,1
-125.0,-59.0,178.0,-39.0,24.0,-2.0,1
-125.0,-57.0,178.0,-38.0,25.0,-2.0,1
-128.0,-56.0,182.0,-40.0,26.0,-2.0,1
-126.0,-56.0,174.0,-40.0,27.0,-1.0,1
-128.0,-54.0,177.0,-41.0,28.0,-1.0,1
-127.0,-57.0,171.0,-41.0,27.0,0.0,1
-126.0,-61.0,177.0,-42.0,29.0,1.0,1
-127.0,-58.0,172.0,-41.0,28.0,1.0,1
-129.0,-55.0,178.0,-40.0,28.0,2.0,1
-127.0,-56.0,177.0,-39.0,30.0,4.0,1
-126.0,-59.0,176.0,-38.0,29.0,3.0,1
-127.0,-56.0,172.0,-40.0,27.0,3.0,1
-128.0,-57.0,177.0,-44.0,26.0,2.0,1
-126.0,-57.0,175.0,-48.0,22.0,2.0,1
-128.0,-57.0,178.0,-51.0,23.0,3.0,1
-127.0,-57.0,174.0,-53.0,20.0,3.0,1
-129.0,-57.0,175.0,-54.0,19.0,4.0,1
-129.0,-55.0,175.0,-53.0,21.0,5.0,1
-127.0,-58.0,177.0,-49.0,22.0,5.0,1
-128.0,-57.0,174.0,-43.0,25.0,5.0,1
-126.0,-56.0,178.0,-37.0,27.0,5.0,1
-130.0,-58.0,169.0,-35.0,29.0,4.0,1
-128.0,-59.0,177.0,-31.0,27.0,5.0,1
-124.0,-59.0,176.0,-30.0,27.0,4.0,1
-127.0,-59.0,175.0,-29.0,24.0,2.0,1
-131.0,-57.0,174.0,-31.0,20.0,2.0,1
-127.0,-56.0,175.0,-34.0,18.0,1.0,1
-130.0,-58.0,172.0,-36.0,17.0,-2.0,1
-131.0,-55.0,175.0,-39.0,17.0,-4.0,1
-128.0,-57.0,176.0,-42.0,18.0,-3.0,1
-127.0,-58.0,175.0,-43.0,20.0,-2.0,1
-126.0,-59.0,173.0,-45.0,20.0,-3.0,1
-129.0,-56.0,178.0,-46.0,21.0,-2.0,1
-128.0,-55.0,178.0,-44.0,20.0,-3.0,1
-120.0,-50.0,169.0,-44.0,18.0,-3.0,1
-129.0,-55.0,176.0,-43.0,18.0,-2.0,1
-131.0,-55.0,172.0,-37.0,17.0,-3.0,1
-129.0,-56.0,173.0,-35.0,14.0,-3.0,1
-128.0,-53.0,174.0,-32.0,12.0,-3.0,1
-126.0,-56.0,176.0,-33.0,7.0,-4.0,1
-127.0,-56.0,173.0,-35.0,3.0,-5.0,1
-129.0,-56.0,173.0,-42.0,-3.0,-5.0,1
-128.0,-58.0,175.0,-45.0,-5.0,-5.0,1
-129.0,-57.0,170.0,-51.0,-6.0,-5.0,1
-131.0,-57.0,176.0,-55.0,-7.0,-6.0,1
-132.0,-59.0,179.0,-58.0,-7.0,-8.0,1
-129.0,-55.0,176.0,-60.0,-8.0,-7.0,1
-128.0,-53.0,177.0,-58.0,-9.0,-7.0,1
-132.0,-56.0,177.0,-55.0,-10.0,-9.0,1
-128.0,-56.0,179.0,-52.0,-10.0,-8.0,1
-130.0,-55.0,177.0,-49.0,-9.0,-8.0,1
-127.0,-56.0,179.0,-46.0,-10.0,-9.0,1
-128.0,-55.0,178.0,-45.0,-8.0,-8.0,1
-128.0,-55.0,173.0,-46.0,-7.0,-9.0,1
-129.0,-57.0,174.0,-46.0,-5.0,-9.0,1
-132.0,-54.0,178.0,-46.0,-3.0,-11.0,1
-128.0,-56.0,173.0,-47.0,0.0,-10.0,1
-128.0,-57.0,175.0,-49.0,2.0,-10.0,1
-127.0,-55.0,177.0,-48.0,2.0,-12.0,1
-126.0,-56.0,173.0,-50.0,3.0,-11.0,1
-122.0,-57.0,176.0,-52.0,4.0,-11.0,1
-129.0,-56.0,172.0,-53.0,4.0,-11.0,1
-126.0,-57.0,179.0,-52.0,4.0,-12.0,1
-127.0,-57.0,179.0,-49.0,6.0,-12.0,1
-127.0,-58.0,176.0,-48.0,8.0,-10.0,1
-125.0,-56.0,175.0,-46.0,8.0,-10.0,1
-126.0,-56.0,176.0,-47.0,9.0,-9.0,1
-125.0,-57.0,173.0,-47.0,8.0,-10.0,1
-128.0,-55.0,178.0,-46.0,8.0,-9.0,1
-126.0,-57.0,171.0,-46.0,8.0,-8.0,1
-128.0,-57.0,178.0,-45.0,8.0,-8.0,1
-126.0,-58.0,177.0,-44.0,8.0,-9.0,1
-127.0,-59.0,174.0,-46.0,7.0,-10.0,1
-129.0,-58.0,177.0,-47.0,7.0,-9.0,1
-128.0,-57.0,179.0,-48.0,6.0,-9.0,1
-124.0,-56.0,178.0,-47.0,6.0,-9.0,1
-125.0,-59.0,175.0,-49.0,4.0,-9.0,1
-127.0,-56.0,175.0,-49.0,2.0,-9.0,1
-125.0,-58.0,177.0,-49.0,2.0,-9.0,1
-126.0,-54.0,175.0,-51.0,1.0,-9.0,1
-130.0,-54.0,176.0,-53.0,1.0,-11.0,1
-127.0,-55.0,176.0,-51.0,1.0,-9.0,1
-126.0,-56.0,174.0,-51.0,1.0,-11.0,1
-125.0,-56.0,174.0,-53.0,1.0,-11.0,1
-127.0,-57.0,171.0,-50.0,1.0,-8.0,1
-129.0,-56.0,176.0,-47.0,0.0,-10.0,1
-126.0,-57.0,171.0,-46.0,0.0,-9.0,1
-129.0,-59.0,175.0,-45.0,-1.0,-10.0,1
-130.0,-56.0,175.0,-44.0,0.0,-10.0,1
-125.0,-57.0,178.0,-42.0,-3.0,-11.0,1
-130.0,-57.0,176.0,-41.0,-2.0,-12.0,1
-126.0,-58.0,175.0,-42.0,-3.0,-12.0,1
-129.0,-56.0,177.0,-43.0,-3.0,-13.0,1
-130.0,-56.0,175.0,-47.0,-4.0,-13.0,1
-125.0,-56.0,175.0,-49.0,-4.0,-13.0,1
-129.0,-56.0,177.0,-54.0,-4.0,-13.0,1
-123.0,-60.0,179.0,-54.0,-3.0,-13.0,1
-127.0,-56.0,176.0,-54.0,-1.0,-13.0,1
-128.0,-56.0,177.0,-52.0,1.0,-12.0,1
-125.0,-56.0,175.0,-54.0,1.0,-11.0,1
-125.0,-56.0,176.0,-53.0,4.0,-10.0,1
-125.0,-56.0,176.0,-53.0,4.0,-11.0,1
-121.0,-60.0,175.0,-57.0,4.0,-9.0,1
-128.0,-57.0,175.0,-58.0,4.0,-8.0,1
-126.0,-58.0,177.0,-59.0,4.0,-7.0,1
-127.0,-57.0,173.0,-60.0,5.0,-7.0,1
-126.0,-57.0,175.0,-54.0,5.0,-7.0,1
-126.0,-56.0,172.0,-47.0,9.0,-7.0,1
-126.0,-59.0,175.0,-41.0,9.0,-9.0,1
-128.0,-55.0,175.0,-35.0,9.0,-10.0,1
-128.0,-55.0,177.0,-32.0,4.0,-10.0,1
-128.0,-57.0,173.0,-33.0,0.0,-12.0,1
-129.0,-54.0,178.0,-35.0,-4.0,-13.0,1
-127.0,-56.0,177.0,-37.0,-10.0,-13.0,1
-129.0,-54.0,176.0,-42.0,-13.0,-15.0,1
-128.0,-57.0,175.0,-46.0,-16.0,-15.0,1
-129.0,-58.0,178.0,-46.0,-15.0,-15.0,1
-128.0,-57.0,175.0,-43.0,-14.0,-15.0,1
-126.0,-61.0,174.0,-39.0,-12.0,-16.0,1
-124.0,-59.0,173.0,-34.0,-7.0,-16.0,1
-126.0,-57.0,177.0,-31.0,-2.0,-16.0,1
-125.0,-57.0,177.0,-28.0,2.0,-16.0,1
-128.0,-56.0,179.0,-23.0,5.0,-17.0,1
-126.0,-57.0,174.0,-22.0,7.0,-15.0,1
-127.0,-59.0,176.0,-18.0,8.0,-15.0,1
-127.0,-56.0,181.0,-16.0,6.0,-14.0,1
-128.0,-56.0,177.0,-19.0,4.0,-13.0,1
-127.0,-59.0,175.0,-24.0,-2.0,-12.0,1
-127.0,-57.0,176.0,-31.0,-5.0,-13.0,1
-129.0,-58.0,176.0,-39.0,-8.0,-13.0,1
-128.0,-57.0,174.0,-47.0,-8.0,-13.0,1
-125.0,-58.0,176.0,-55.0,-10.0,-12.0,1
-124.0,-58.0,178.0,-60.0,-10.0,-13.0,1
-123.0,-57.0,178.0,-64.0,-9.0,-13.0,1
-127.0,-57.0,174.0,-65.0,-9.0,-12.0,1
-123.0,-56.0,177.0,-65.0,-9.0,-10.0,1
-125.0,-56.0,179.0,-62.0,-11.0,-8.0,1
-123.0,-57.0,181.0,-58.0,-13.0,-8.0,1
-123.0,-57.0,178.0,-52.0,-14.0,-8.0,1
-122.0,-57.0,174.0,-50.0,-16.0,-7.0,1
-125.0,-55.0,178.0,-45.0,-17.0,-8.0,1
-125.0,-56.0,178.0,-42.0,-19.0,-7.0,1
-127.0,-55.0,182.0,-43.0,-16.0,-7.0,1
-128.0,-56.0,180.0,-41.0,-14.0,-10.0,1
-127.0,-56.0,179.0,-41.0,-12.0,-10.0,1
-124.0,-57.0,177.0,-42.0,-11.0,-12.0,1
-122.0,-59.0,177.0,-44.0,-9.0,-13.0,1
-124.0,-59.0,178.0,-47.0,-9.0,-14.0,1
-124.0,-58.0,177.0,-48.0,-6.0,-15.0,1
-126.0,-56.0,178.0,-52.0,-6.0,-16.0,1
-123.0,-58.0,177.0,-50.0,-5.0,-17.0,1
-124.0,-57.0,181.0,-49.0,-2.0,-18.0,1
-125.0,-56.0,178.0,-50.0,-1.0,-17.0,1
-124.0,-55.0,177.0,-50.0,2.0,-17.0,1
-124.0,-56.0,175.0,-48.0,4.0,-17.0,1
-124.0,-56.0,178.0,-50.0,4.0,-16.0,1
-125.0,-57.0,179.0,-50.0,7.0,-15.0,1
-121.0,-58.0,179.0,-51.0,8.0,-14.0,1
-127.0,-58.0,179.0,-50.0,9.0,-14.0,1
-128.0,-54.0,175.0,-49.0,9.0,-12.0,1
-126.0,-55.0,180.0,-47.0,9.0,-12.0,1
-122.0,-57.0,177.0,-45.0,9.0,-10.0,1
-124.0,-56.0,177.0,-45.0,10.0,-10.0,1
-124.0,-57.0,177.0,-43.0,10.0,-10.0,1
-126.0,-56.0,176.0,-43.0,10.0,-9.0,1
-127.0,-56.0,175.0,-41.0,10.0,-10.0,1
-127.0,-56.0,176.0,-41.0,9.0,-9.0,1
-126.0,-58.0,174.0,-46.0,5.0,-9.0,1
-124.0,-59.0,174.0,-51.0,1.0,-9.0,1
-126.0,-58.0,177.0,-55.0,-4.0,-11.0,1
-127.0,-56.0,175.0,-62.0,-8.0,-10.0,1
-125.0,-56.0,175.0,-62.0,-10.0,-8.0,1
-125.0,-57.0,177.0,-62.0,-13.0,-9.0,1
-123.0,-57.0,175.0,-58.0,-10.0,-9.0,1
-125.0,-57.0,175.0,-51.0,-7.0,-11.0,1
-124.0,-56.0,174.0,-45.0,-3.0,-11.0,1
-123.0,-56.0,174.0,-39.0,-2.0,-12.0,1
-127.0,-56.0,179.0,-36.0,2.0,-14.0,1
-127.0,-56.0,176.0,-33.0,3.0,-16.0,1
-122.0,-57.0,174.0,-33.0,2.0,-16.0,1
-123.0,-56.0,177.0,-35.0,2.0,-16.0,1
-123.0,-58.0,178.0,-33.0,2.0,-13.0,1
-130.0,-57.0,177.0,-29.0,1.0,-10.0,1
-127.0,-59.0,178.0,-32.0,0.0,-13.0,1
-123.0,-60.0,178.0,-43.0,1.0,-15.0,1
-123.0,-57.0,177.0,-50.0,0.0,-15.0,1
-122.0,-59.0,175.0,-54.0,-1.0,-17.0,1
-125.0,-56.0,179.0,-58.0,-3.0,-15.0,1
-120.0,-57.0,180.0,-61.0,-4.0,-14.0,1
-125.0,-57.0,178.0,-61.0,-1.0,-13.0,1
-129.0,-57.0,182.0,-56.0,1.0,-12.0,1
-124.0,-57.0,181.0,-51.0,1.0,-12.0,1
-124.0,-56.0,179.0,-44.0,4.0,-11.0,1
-123.0,-60.0,181.0,-39.0,4.0,-12.0,1
-127.0,-55.0,181.0,-37.0,2.0,-13.0,1
-123.0,-54.0,179.0,-38.0,1.0,-13.0,1
-125.0,-57.0,171.0,-41.0,-2.0,-13.0,1
-125.0,-57.0,174.0,-44.0,-4.0,-12.0,1
-128.0,-57.0,176.0,-45.0,-5.0,-11.0,1
-125.0,-56.0,178.0,-49.0,-7.0,-11.0,1
-124.0,-56.0,180.0,-51.0,-9.0,-11.0,1
-126.0,-56.0,180.0,-52.0,-9.0,-8.0,1
-120.0,-59.0,179.0,-53.0,-11.0,-8.0,1
-122.0,-57.0,177.0,-53.0,-12.0,-6.0,1
-120.0,-58.0,180.0,-51.0,-14.0,-6.0,1
-121.0,-56.0,178.0,-49.0,-16.0,-7.0,1
-123.0,-57.0,178.0,-47.0,-18.0,-9.0,1
-124.0,-56.0,177.0,-45.0,-19.0,-10.0,1
-123.0,-57.0,176.0,-44.0,-20.0,-12.0,1
-122.0,-57.0,179.0,-41.0,-19.0,-13.0,1
-123.0,-56.0,176.0,-40.0,-19.0,-14.0,1
-121.0,-55.0,173.0,-39.0,-19.0,-13.0,1
-122.0,-57.0,176.0,-41.0,-20.0,-15.0,1
-123.0,-56.0,177.0,-44.0,-20.0,-16.0,1
-123.0,-58.0,175.0,-47.0,-21.0,-16.0,1
-125.0,-56.0,178.0,-50.0,-21.0,-16.0,1
-124.0,-56.0,176.0,-54.0,-23.0,-14.0,1
-123.0,-58.0,182.0,-58.0,-24.0,-14.0,1
-123.0,-55.0,175.0,-60.0,-24.0,-15.0,1
-125.0,-59.0,181.0,-61.0,-23.0,-15.0,1
-123.0,-60.0,178.0,-63.0,-22.0,-15.0,1
-124.0,-55.0,180.0,-61.0,-21.0,-16.0,1
-121.0,-60.0,178.0,-62.0,-17.0,-16.0,1
-124.0,-57.0,178.0,-63.0,-15.0,-16.0,1
-122.0,-56.0,180.0,-62.0,-13.0,-15.0,1
-121.0,-61.0,177.0,-61.0,-10.0,-14.0,1
-123.0,-57.0,179.0,-59.0,-5.0,-14.0,1
-120.0,-60.0,178.0,-58.0,-2.0,-13.0,1
-123.0,-60.0,175.0,-56.0,0.0,-13.0,1
-123.0,-58.0,177.0,-54.0,3.0,-11.0,1
-122.0,-56.0,177.0,-51.0,4.0,-7.0,1
-121.0,-57.0,179.0,-52.0,6.0,-8.0,1
-121.0,-57.0,182.0,-52.0,8.0,-8.0,1
-123.0,-56.0,178.0,-51.0,5.0,-7.0,1
-122.0,-55.0,179.0,-45.0,5.0,-3.0,1
-125.0,-58.0,181.0,-36.0,6.0,3.0,1
-123.0,-59.0,174.0,-34.0,3.0,-2.0,1
-123.0,-58.0,177.0,-41.0,4.0,-6.0,1
-120.0,-58.0,180.0,-48.0,2.0,-9.0,1
-122.0,-58.0,175.0,-51.0,-2.0,-10.0,1
-121.0,-59.0,178.0,-49.0,-1.0,-9.0,1
-129.0,-66.0,188.0,-52.0,-4.0,-9.0,1
-123.0,-58.0,174.0,-54.0,-5.0,-10.0,1
-125.0,-57.0,180.0,-57.0,-6.0,-11.0,1
-122.0,-57.0,175.0,-56.0,-8.0,-11.0,1
-122.0,-61.0,177.0,-56.0,-8.0,-11.0,1
-125.0,-56.0,174.0,-57.0,-10.0,-11.0,1
-122.0,-57.0,177.0,-58.0,-11.0,-12.0,1
-124.0,-57.0,177.0,-59.0,-10.0,-13.0,1
-123.0,-56.0,179.0,-56.0,-9.0,-12.0,1
-121.0,-60.0,175.0,-54.0,-9.0,-14.0,1
-122.0,-57.0,177.0,-52.0,-7.0,-15.0,1
-132.0,-50.0,168.0,-53.0,-6.0,-13.0,1
-122.0,-60.0,179.0,-53.0,-7.0,-14.0,1
-123.0,-59.0,178.0,-53.0,-7.0,-14.0,1
-124.0,-57.0,181.0,-51.0,-8.0,-14.0,1
-125.0,-56.0,178.0,-50.0,-11.0,-16.0,1
-125.0,-55.0,178.0,-49.0,-13.0,-17.0,1
-122.0,-55.0,177.0,-50.0,-11.0,-16.0,1
-122.0,-58.0,172.0,-51.0,-10.0,-15.0,1
-123.0,-58.0,182.0,-52.0,-10.0,-14.0,1
-122.0,-57.0,178.0,-49.0,-10.0,-12.0,1
-127.0,-58.0,163.0,-50.0,-8.0,-10.0,1
-122.0,-60.0,182.0,-46.0,-7.0,-11.0,1
-123.0,-58.0,179.0,-45.0,-6.0,-11.0,1
-121.0,-60.0,176.0,-47.0,-5.0,-11.0,1
-121.0,-57.0,178.0,-48.0,-4.0,-11.0,1
-119.0,-58.0,180.0,-49.0,-3.0,-9.0,1
-121.0,-61.0,180.0,-50.0,-2.0,-11.0,1
-120.0,-57.0,177.0,-52.0,-2.0,-8.0,1
-121.0,-56.0,180.0,-52.0,-1.0,-8.0,1
-120.0,-56.0,181.0,-53.0,1.0,-5.0,1
-120.0,-59.0,180.0,-53.0,4.0,-6.0,1
-122.0,-59.0,184.0,-54.0,6.0,-6.0,1
-120.0,-58.0,179.0,-55.0,8.0,-4.0,1
-121.0,-57.0,181.0,-59.0,9.0,-2.0,1
-118.0,-55.0,180.0,-61.0,10.0,-3.0,1
-118.0,-58.0,182.0,-57.0,11.0,-3.0,1
-122.0,-57.0,180.0,-53.0,13.0,-2.0,1
-122.0,-59.0,182.0,-48.0,15.0,-3.0,1
-120.0,-59.0,179.0,-43.0,17.0,-4.0,1
-120.0,-57.0,182.0,-40.0,19.0,-6.0,1
-122.0,-57.0,183.0,-36.0,19.0,-9.0,1
-122.0,-56.0,175.0,-34.0,18.0,-11.0,1
-123.0,-56.0,181.0,-33.0,14.0,-14.0,1
-123.0,-56.0,177.0,-36.0,9.0,-15.0,1
-124.0,-55.0,177.0,-38.0,4.0,-15.0,1
-122.0,-64.0,177.0,-40.0,-1.0,-16.0,1
-123.0,-58.0,175.0,-43.0,-5.0,-17.0,1
-122.0,-60.0,176.0,-43.0,-6.0,-17.0,1
-119.0,-60.0,177.0,-41.0,-5.0,-19.0,1
-123.0,-59.0,177.0,-39.0,-2.0,-19.0,1
-121.0,-58.0,179.0,-39.0,2.0,-19.0,1
-120.0,-60.0,178.0,-37.0,8.0,-20.0,1
-120.0,-59.0,179.0,-36.0,13.0,-20.0,1
-121.0,-60.0,182.0,-32.0,17.0,-20.0,1
-120.0,-62.0,183.0,-28.0,21.0,-21.0,1
-121.0,-58.0,183.0,-24.0,24.0,-18.0,1
-121.0,-60.0,177.0,-20.0,26.0,-18.0,1
-122.0,-60.0,183.0,-18.0,26.0,-17.0,1
-120.0,-60.0,180.0,-21.0,23.0,-13.0,1
-121.0,-62.0,179.0,-25.0,21.0,-11.0,1
-121.0,-58.0,177.0,-35.0,18.0,-9.0,1
-123.0,-60.0,177.0,-48.0,14.0,-7.0,1
-121.0,-59.0,179.0,-57.0,10.0,-6.0,1
-120.0,-59.0,176.0,-69.0,10.0,-4.0,1
-121.0,-60.0,177.0,-77.0,9.0,0.0,1
-118.0,-57.0,182.0,-81.0,9.0,1.0,1
-117.0,-57.0,181.0,-84.0,9.0,3.0,1
-119.0,-58.0,181.0,-81.0,9.0,7.0,1
-120.0,-59.0,185.0,-73.0,12.0,11.0,1
-119.0,-56.0,183.0,-67.0,14.0,11.0,1
-122.0,-56.0,179.0,-59.0,18.0,12.0,1
-124.0,-57.0,177.0,-51.0,23.0,14.0,1
-120.0,-57.0,180.0,-43.0,27.0,13.0,1
-122.0,-58.0,180.0,-39.0,31.0,14.0,1
-121.0,-57.0,177.0,-35.0,35.0,12.0,1
-118.0,-58.0,178.0,-34.0,37.0,13.0,1
-118.0,-57.0,179.0,-34.0,36.0,11.0,1
-120.0,-56.0,180.0,-35.0,34.0,10.0,1
-120.0,-59.0,177.0,-36.0,33.0,6.0,1
-118.0,-57.0,178.0,-38.0,30.0,5.0,1
-121.0,-59.0,183.0,-42.0,27.0,4.0,1
-119.0,-56.0,178.0,-45.0,26.0,1.0,1
-117.0,-57.0,179.0,-49.0,23.0,0.0,1
-120.0,-57.0,180.0,-51.0,22.0,0.0,1
-121.0,-56.0,177.0,-54.0,21.0,-1.0,1
-122.0,-58.0,181.0,-56.0,20.0,0.0,1
-120.0,-58.0,181.0,-57.0,22.0,-1.0,1
-121.0,-59.0,178.0,-54.0,24.0,-1.0,1
-124.0,-58.0,180.0,-54.0,26.0,-1.0,1
-119.0,-59.0,179.0,-53.0,29.0,-1.0,1
-123.0,-55.0,182.0,-52.0,30.0,0.0,1
-120.0,-59.0,180.0,-50.0,31.0,2.0,1
-121.0,-60.0,178.0,-49.0,32.0,2.0,1
-122.0,-58.0,180.0,-45.0,32.0,3.0,1
-122.0,-59.0,182.0,-43.0,31.0,4.0,1
-122.0,-59.0,175.0,-42.0,32.0,6.0,1
-120.0,-57.0,178.0,-43.0,31.0,6.0,1
-123.0,-56.0,177.0,-44.0,29.0,6.0,1
-123.0,-57.0,179.0,-46.0,26.0,7.0,1
-123.0,-56.0,176.0,-50.0,23.0,5.0,1
-120.0,-60.0,174.0,-55.0,20.0,6.0,1
-124.0,-57.0,178.0,-60.0,16.0,8.0,1
-123.0,-58.0,178.0,-63.0,13.0,8.0,1
-119.0,-58.0,177.0,-63.0,12.0,9.0,1
-123.0,-57.0,177.0,-59.0,13.0,9.0,1
-119.0,-59.0,178.0,-53.0,17.0,10.0,1
-121.0,-57.0,179.0,-50.0,22.0,10.0,1
-122.0,-57.0,180.0,-45.0,27.0,9.0,1
-124.0,-58.0,176.0,-40.0,29.0,6.0,1
-124.0,-58.0,176.0,-39.0,29.0,7.0,1
-123.0,-59.0,177.0,-38.0,31.0,8.0,1
-121.0,-59.0,177.0,-37.0,31.0,8.0,1
-124.0,-58.0,178.0,-40.0,31.0,6.0,1
-122.0,-60.0,178.0,-43.0,33.0,7.0,1
-120.0,-58.0,179.0,-45.0,34.0,7.0,1
-123.0,-58.0,179.0,-49.0,34.0,8.0,1
-121.0,-60.0,176.0,-49.0,34.0,7.0,1
-121.0,-58.0,181.0,-53.0,34.0,7.0,1
-123.0,-57.0,176.0,-54.0,34.0,8.0,1
-120.0,-56.0,177.0,-54.0,35.0,8.0,1
-121.0,-61.0,177.0,-55.0,35.0,9.0,1
-123.0,-57.0,173.0,-55.0,36.0,9.0,1
-121.0,-57.0,183.0,-53.0,37.0,9.0,1
-124.0,-56.0,180.0,-47.0,37.0,11.0,1
-122.0,-61.0,181.0,-41.0,37.0,11.0,1
-123.0,-57.0,177.0,-36.0,40.0,11.0,1
-121.0,-58.0,179.0,-34.0,40.0,10.0,1
-126.0,-57.0,177.0,-35.0,38.0,10.0,1
-123.0,-55.0,179.0,-36.0,35.0,11.0,1
-123.0,-56.0,178.0,-40.0,34.0,11.0,1
-122.0,-57.0,175.0,-43.0,32.0,12.0,1
-124.0,-56.0,178.0,-45.0,31.0,11.0,1
-122.0,-56.0,181.0,-48.0,30.0,11.0,1
-122.0,-56.0,180.0,-48.0,31.0,9.0,1
-122.0,-58.0,177.0,-50.0,31.0,10.0,1
-124.0,-56.0,182.0,-51.0,31.0,8.0,1
-124.0,-56.0,179.0,-50.0,31.0,9.0,1
-118.0,-57.0,176.0,-46.0,31.0,10.0,1
-122.0,-56.0,180.0,-44.0,31.0,10.0,1
-120.0,-59.0,175.0,-41.0,32.0,9.0,1
-123.0,-56.0,181.0,-41.0,33.0,9.0,1
-121.0,-57.0,184.0,-39.0,34.0,8.0,1
-122.0,-56.0,180.0,-38.0,35.0,9.0,1
-125.0,-56.0,178.0,-38.0,35.0,9.0,1
-124.0,-55.0,175.0,-41.0,34.0,9.0,1
-123.0,-59.0,177.0,-41.0,33.0,9.0,1
-121.0,-58.0,178.0,-42.0,31.0,9.0,1
-119.0,-57.0,177.0,-42.0,30.0,9.0,1
-121.0,-56.0,175.0,-41.0,29.0,8.0,1
-122.0,-58.0,178.0,-40.0,28.0,8.0,1
-124.0,-57.0,180.0,-40.0,27.0,8.0,1
-122.0,-58.0,175.0,-40.0,27.0,6.0,1
-121.0,-56.0,175.0,-39.0,29.0,6.0,1
-122.0,-58.0,175.0,-41.0,28.0,8.0,1
-126.0,-59.0,177.0,-39.0,29.0,6.0,1
-125.0,-58.0,178.0,-39.0,30.0,8.0,1
-123.0,-58.0,178.0,-41.0,31.0,8.0,1
-124.0,-56.0,173.0,-42.0,31.0,7.0,1
-121.0,-59.0,178.0,-42.0,31.0,7.0,1
-121.0,-57.0,175.0,-42.0,30.0,8.0,1
-123.0,-58.0,177.0,-39.0,30.0,7.0,1
-120.0,-57.0,176.0,-40.0,30.0,9.0,1
-122.0,-57.0,179.0,-44.0,30.0,8.0,1
-120.0,-57.0,177.0,-44.0,30.0,8.0,1
-123.0,-58.0,181.0,-46.0,29.0,8.0,1
-125.0,-58.0,180.0,-47.0,28.0,8.0,1
-126.0,-57.0,179.0,-49.0,30.0,8.0,1
-125.0,-59.0,179.0,-51.0,30.0,9.0,1
-124.0,-58.0,179.0,-52.0,31.0,9.0,1
-122.0,-57.0,176.0,-51.0,32.0,10.0,1
-123.0,-57.0,177.0,-52.0,33.0,10.0,1
-121.0,-58.0,177.0,-53.0,33.0,11.0,1
-126.0,-58.0,178.0,-51.0,35.0,10.0,1
-122.0,-58.0,177.0,-51.0,36.0,11.0,1
-123.0,-57.0,177.0,-48.0,38.0,11.0,1
-123.0,-57.0,177.0,-48.0,39.0,12.0,1
-125.0,-55.0,178.0,-45.0,39.0,12.0,1
-123.0,-58.0,177.0,-44.0,41.0,13.0,1
-124.0,-58.0,176.0,-43.0,40.0,13.0,1
-125.0,-57.0,172.0,-44.0,39.0,13.0,1
-123.0,-57.0,177.0,-41.0,39.0,13.0,1
-123.0,-58.0,179.0,-39.0,38.0,12.0,1
-122.0,-57.0,179.0,-40.0,37.0,12.0,1
-124.0,-56.0,174.0,-39.0,35.0,11.0,1
-124.0,-60.0,180.0,-38.0,34.0,12.0,1
-124.0,-56.0,178.0,-39.0,31.0,11.0,1
-124.0,-56.0,177.0,-41.0,30.0,11.0,1
-125.0,-57.0,178.0,-40.0,28.0,9.0,1
-124.0,-57.0,178.0,-40.0,26.0,9.0,1
-121.0,-57.0,179.0,-39.0,25.0,8.0,1
-125.0,-56.0,175.0,-39.0,25.0,7.0,1
-126.0,-57.0,182.0,-40.0,25.0,7.0,1
-126.0,-55.0,178.0,-39.0,25.0,5.0,1
-124.0,-55.0,176.0,-39.0,25.0,4.0,1
-124.0,-60.0,175.0,-39.0,25.0,4.0,1
-125.0,-57.0,178.0,-39.0,24.0,3.0,1
-124.0,-54.0,180.0,-38.0,23.0,4.0,1
-123.0,-57.0,175.0,-38.0,24.0,3.0,1
-125.0,-58.0,178.0,-38.0,24.0,3.0,1
-125.0,-55.0,176.0,-41.0,21.0,2.0,1
-130.0,-54.0,175.0,-41.0,21.0,3.0,1
-128.0,-55.0,175.0,-44.0,19.0,2.0,1
-121.0,-56.0,175.0,-44.0,17.0,0.0,1
-122.0,-58.0,178.0,-45.0,17.0,0.0,1
-123.0,-57.0,175.0,-43.0,17.0,-1.0,1
-122.0,-58.0,175.0,-43.0,18.0,0.0,1
-122.0,-57.0,177.0,-44.0,16.0,0.0,1
-124.0,-57.0,176.0,-47.0,16.0,1.0,1
-125.0,-57.0,177.0,-46.0,17.0,1.0,1
-125.0,-56.0,180.0,-44.0,18.0,1.0,1
-121.0,-62.0,176.0,-43.0,18.0,2.0,1
-123.0,-56.0,175.0,-41.0,21.0,2.0,1
-124.0,-59.0,176.0,-37.0,25.0,2.0,1
-126.0,-59.0,177.0,-37.0,26.0,2.0,1
-127.0,-57.0,177.0,-37.0,28.0,3.0,1
-125.0,-56.0,177.0,-41.0,29.0,4.0,1
-111.0,-43.0,168.0,-43.0,30.0,6.0,1
-126.0,-56.0,178.0,-44.0,32.0,6.0,1
-120.0,-59.0,177.0,-44.0,34.0,6.0,1
-123.0,-57.0,179.0,-42.0,35.0,7.0,1
-124.0,-57.0,180.0,-38.0,37.0,8.0,1
-123.0,-57.0,176.0,-38.0,37.0,9.0,1
-124.0,-55.0,174.0,-39.0,37.0,10.0,1
-123.0,-56.0,176.0,-39.0,36.0,9.0,1
-127.0,-58.0,177.0,-45.0,33.0,9.0,1
-125.0,-55.0,177.0,-48.0,33.0,10.0,1
-125.0,-56.0,177.0,-47.0,33.0,9.0,1
-123.0,-56.0,177.0,-44.0,35.0,8.0,1
-125.0,-53.0,178.0,-39.0,37.0,8.0,1
-123.0,-56.0,175.0,-35.0,40.0,7.0,1
-125.0,-55.0,175.0,-31.0,39.0,5.0,1
-125.0,-54.0,176.0,-27.0,36.0,5.0,1
-124.0,-55.0,177.0,-27.0,32.0,3.0,1
-124.0,-55.0,177.0,-29.0,25.0,1.0,1
-126.0,-55.0,177.0,-32.0,18.0,0.0,1
-124.0,-56.0,178.0,-38.0,15.0,-2.0,1
-127.0,-54.0,175.0,-39.0,14.0,0.0,1
-124.0,-59.0,175.0,-41.0,13.0,-1.0,1
-109.0,-59.0,159.0,-42.0,14.0,-1.0,1
-124.0,-59.0,175.0,-38.0,16.0,-2.0,1
-126.0,-56.0,176.0,-36.0,18.0,-3.0,1
-123.0,-59.0,177.0,-33.0,24.0,-2.0,1
-122.0,-59.0,178.0,-32.0,30.0,-5.0,1
-124.0,-58.0,178.0,-28.0,34.0,-3.0,1
-124.0,-60.0,177.0,-24.0,37.0,-3.0,1
-127.0,-59.0,180.0,-20.0,40.0,-1.0,1
-124.0,-55.0,181.0,-16.0,40.0,-1.0,1
-128.0,-58.0,177.0,-14.0,38.0,0.0,1
-125.0,-56.0,178.0,-19.0,34.0,0.0,1
-126.0,-58.0,178.0,-26.0,32.0,0.0,1
-126.0,-57.0,176.0,-32.0,30.0,1.0,1
-127.0,-56.0,179.0,-36.0,29.0,3.0,1
-126.0,-55.0,180.0,-37.0,30.0,4.0,1
-128.0,-56.0,173.0,-40.0,29.0,3.0,1
-125.0,-57.0,174.0,-42.0,31.0,3.0,1
-124.0,-57.0,172.0,-45.0,30.0,4.0,1
-121.0,-55.0,176.0,-44.0,30.0,4.0,1
-126.0,-55.0,176.0,-45.0,29.0,5.0,1
-125.0,-54.0,177.0,-44.0,28.0,6.0,1
-126.0,-53.0,178.0,-40.0,25.0,4.0,1
-123.0,-55.0,177.0,-39.0,21.0,3.0,1
-125.0,-55.0,176.0,-37.0,19.0,3.0,1
-126.0,-51.0,178.0,-38.0,20.0,3.0,1
-124.0,-59.0,173.0,-36.0,21.0,3.0,1
-127.0,-55.0,177.0,-39.0,22.0,0.0,1
-126.0,-55.0,181.0,-40.0,25.0,-1.0,1
-128.0,-53.0,180.0,-43.0,27.0,-1.0,1
-126.0,-55.0,182.0,-45.0,29.0,-2.0,1
-123.0,-56.0,177.0,-45.0,31.0,-3.0,1
-126.0,-54.0,176.0,-45.0,31.0,-4.0,1
-124.0,-55.0,178.0,-44.0,30.0,-4.0,1
-125.0,-56.0,177.0,-41.0,30.0,-4.0,1
-127.0,-53.0,178.0,-42.0,29.0,-3.0,1
-125.0,-55.0,175.0,-40.0,29.0,-4.0,1
-126.0,-55.0,174.0,-40.0,28.0,-3.0,1
-127.0,-56.0,175.0,-38.0,28.0,-4.0,1
-124.0,-57.0,178.0,-39.0,27.0,-4.0,1
-124.0,-56.0,179.0,-40.0,26.0,-3.0,1
-125.0,-55.0,179.0,-40.0,25.0,-5.0,1
-128.0,-56.0,171.0,-40.0,24.0,-4.0,1
-126.0,-55.0,175.0,-41.0,24.0,-4.0,1
-124.0,-57.0,180.0,-42.0,22.0,-4.0,1
-126.0,-58.0,178.0,-40.0,21.0,-6.0,1
-125.0,-57.0,174.0,-40.0,19.0,-8.0,1
-123.0,-57.0,174.0,-40.0,19.0,-8.0,1
-126.0,-56.0,179.0,-39.0,15.0,-8.0,1
-123.0,-58.0,172.0,-38.0,14.0,-8.0,1
-125.0,-56.0,174.0,-41.0,12.0,-8.0,1
-127.0,-57.0,177.0,-47.0,9.0,-10.0,1
-126.0,-57.0,177.0,-55.0,6.0,-9.0,1
-128.0,-54.0,176.0,-61.0,5.0,-10.0,1
-129.0,-54.0,176.0,-64.0,4.0,-9.0,1
-124.0,-57.0,173.0,-67.0,3.0,-10.0,1
-127.0,-57.0,174.0,-63.0,2.0,-9.0,1
-125.0,-57.0,170.0,-59.0,3.0,-9.0,1
-127.0,-56.0,175.0,-55.0,2.0,-9.0,1
-128.0,-58.0,174.0,-49.0,2.0,-10.0,1
-125.0,-56.0,173.0,-44.0,5.0,-10.0,1
-126.0,-56.0,172.0,-40.0,6.0,-10.0,1
-124.0,-56.0,174.0,-38.0,5.0,-10.0,1
-127.0,-57.0,172.0,-37.0,4.0,-11.0,1
-123.0,-59.0,176.0,-39.0,1.0,-11.0,1
-125.0,-57.0,176.0,-41.0,-2.0,-12.0,1
-125.0,-59.0,180.0,-43.0,-5.0,-13.0,1
-126.0,-57.0,176.0,-47.0,-6.0,-13.0,1
-126.0,-58.0,175.0,-47.0,-5.0,-13.0,1
-127.0,-56.0,176.0,-48.0,-5.0,-14.0,1
-126.0,-57.0,175.0,-50.0,-5.0,-14.0,1
-125.0,-56.0,177.0,-51.0,-3.0,-11.0,1
-128.0,-55.0,177.0,-51.0,-3.0,-11.0,1
-124.0,-55.0,180.0,-56.0,-3.0,-11.0,1
-122.0,-58.0,178.0,-55.0,-2.0,-9.0,1
-126.0,-56.0,178.0,-50.0,-1.0,-7.0,1
-126.0,-56.0,177.0,-45.0,2.0,-9.0,1
-125.0,-57.0,175.0,-39.0,4.0,-10.0,1
-124.0,-56.0,174.0,-35.0,6.0,-10.0,1
-129.0,-53.0,178.0,-32.0,6.0,-10.0,1
-125.0,-56.0,174.0,-33.0,5.0,-10.0,1
-125.0,-56.0,178.0,-35.0,4.0,-10.0,1
-124.0,-56.0,177.0,-40.0,3.0,-11.0,1
-125.0,-57.0,176.0,-48.0,4.0,-11.0,1
-123.0,-60.0,181.0,-53.0,4.0,-12.0,1
-127.0,-53.0,178.0,-55.0,3.0,-11.0,1
-125.0,-55.0,181.0,-57.0,3.0,-10.0,1
-126.0,-56.0,180.0,-57.0,2.0,-10.0,1
-124.0,-57.0,175.0,-56.0,2.0,-10.0,1
-126.0,-54.0,177.0,-54.0,2.0,-10.0,1
-123.0,-55.0,175.0,-50.0,1.0,-9.0,1
-125.0,-56.0,179.0,-48.0,2.0,-8.0,1
-127.0,-56.0,179.0,-46.0,4.0,-9.0,1
-124.0,-56.0,177.0,-45.0,4.0,-10.0,1
-125.0,-53.0,176.0,-43.0,3.0,-9.0,1
-124.0,-56.0,177.0,-41.0,6.0,-9.0,1
-126.0,-57.0,179.0,-42.0,4.0,-10.0,1
-125.0,-56.0,175.0,-43.0,4.0,-11.0,1
-124.0,-57.0,177.0,-42.0,4.0,-11.0,1
-124.0,-56.0,176.0,-43.0,4.0,-12.0,1
-126.0,-55.0,175.0,-43.0,3.0,-13.0,1
-125.0,-58.0,176.0,-44.0,1.0,-13.0,1
-127.0,-57.0,179.0,-44.0,0.0,-14.0,1
-123.0,-57.0,175.0,-44.0,-1.0,-14.0,1
-124.0,-57.0,179.0,-46.0,-2.0,-15.0,1
-123.0,-57.0,177.0,-46.0,-5.0,-14.0,1
-125.0,-59.0,173.0,-46.0,-4.0,-13.0,1
-123.0,-57.0,174.0,-47.0,-5.0,-14.0,1
-123.0,-55.0,177.0,-46.0,-6.0,-13.0,1
-126.0,-55.0,175.0,-49.0,-7.0,-13.0,1
-124.0,-58.0,172.0,-50.0,-7.0,-14.0,1
-128.0,-57.0,175.0,-49.0,-6.0,-15.0,1
-126.0,-57.0,175.0,-49.0,-3.0,-14.0,1
-124.0,-58.0,173.0,-48.0,-2.0,-13.0,1
-129.0,-56.0,177.0,-45.0,3.0,-12.0,1
-125.0,-57.0,179.0,-41.0,8.0,-11.0,1
-127.0,-61.0,174.0,-37.0,15.0,-9.0,1
-126.0,-58.0,175.0,-33.0,20.0,-7.0,1
-125.0,-56.0,174.0,-33.0,24.0,-6.0,1
-127.0,-56.0,179.0,-33.0,26.0,-4.0,1
-123.0,-57.0,177.0,-36.0,27.0,-4.0,1
-126.0,-57.0,179.0,-37.0,27.0,-4.0,1
-123.0,-56.0,179.0,-37.0,28.0,-2.0,1
-125.0,-54.0,182.0,-38.0,25.0,-2.0,1
-123.0,-57.0,178.0,-39.0,23.0,-1.0,1
-121.0,-57.0,177.0,-42.0,17.0,-2.0,1
-122.0,-56.0,177.0,-42.0,12.0,-2.0,1
-124.0,-57.0,177.0,-43.0,9.0,-2.0,1
-122.0,-56.0,177.0,-43.0,7.0,-3.0,1
-126.0,-55.0,176.0,-47.0,5.0,-3.0,1
-125.0,-54.0,182.0,-48.0,3.0,-5.0,1
-125.0,-54.0,179.0,-46.0,1.0,-6.0,1
-126.0,-56.0,173.0,-46.0,2.0,-6.0,1
-122.0,-56.0,179.0,-44.0,2.0,-8.0,1
-128.0,-53.0,177.0,-43.0,2.0,-9.0,1
-125.0,-55.0,180.0,-44.0,2.0,-11.0,1
-127.0,-57.0,177.0,-42.0,2.0,-11.0,1
-124.0,-56.0,176.0,-44.0,3.0,-12.0,1
-121.0,-51.0,175.0,-47.0,1.0,-14.0,1
-126.0,-56.0,177.0,-47.0,1.0,-14.0,1
-124.0,-55.0,179.0,-48.0,-1.0,-14.0,1
-126.0,-57.0,179.0,-50.0,-2.0,-15.0,1
-124.0,-57.0,176.0,-51.0,-4.0,-15.0,1
-125.0,-56.0,175.0,-49.0,-4.0,-16.0,1
-125.0,-55.0,179.0,-48.0,-6.0,-15.0,1
-123.0,-57.0,177.0,-49.0,-7.0,-15.0,1
-125.0,-56.0,182.0,-48.0,-9.0,-15.0,1
-125.0,-57.0,182.0,-48.0,-8.0,-17.0,1
-127.0,-56.0,178.0,-46.0,-8.0,-16.0,1
-124.0,-58.0,180.0,-45.0,-9.0,-17.0,1
-121.0,-58.0,180.0,-46.0,-9.0,-18.0,1
-123.0,-58.0,180.0,-46.0,-10.0,-18.0,1
-127.0,-56.0,176.0,-49.0,-10.0,-17.0,1
-125.0,-56.0,178.0,-51.0,-9.0,-18.0,1
-123.0,-55.0,181.0,-52.0,-8.0,-17.0,1
-124.0,-56.0,178.0,-53.0,-5.0,-17.0,1
-123.0,-59.0,177.0,-52.0,-2.0,-17.0,1
-126.0,-56.0,177.0,-50.0,1.0,-15.0,1
-124.0,-62.0,181.0,-49.0,3.0,-14.0,1
-123.0,-56.0,181.0,-48.0,6.0,-14.0,1
-123.0,-56.0,180.0,-51.0,5.0,-13.0,1
-122.0,-56.0,173.0,-52.0,5.0,-13.0,1
-121.0,-60.0,181.0,-56.0,4.0,-13.0,1
-123.0,-57.0,178.0,-55.0,3.0,-14.0,1
-123.0,-58.0,178.0,-53.0,4.0,-13.0,1
-122.0,-57.0,179.0,-49.0,6.0,-14.0,1
-119.0,-56.0,175.0,-45.0,8.0,-15.0,1
-124.0,-55.0,176.0,-41.0,8.0,-16.0,1
-121.0,-56.0,175.0,-41.0,6.0,-17.0,1
-125.0,-56.0,176.0,-41.0,2.0,-18.0,1
-126.0,-56.0,177.0,-42.0,-3.0,-18.0,1
-128.0,-55.0,176.0,-46.0,-7.0,-19.0,1
-127.0,-55.0,179.0,-49.0,-11.0,-20.0,1
-126.0,-55.0,177.0,-53.0,-14.0,-19.0,1
-121.0,-56.0,176.0,-53.0,-14.0,-20.0,1
-125.0,-57.0,176.0,-50.0,-11.0,-19.0,1
-123.0,-56.0,177.0,-47.0,-9.0,-19.0,1
-126.0,-57.0,175.0,-41.0,-4.0,-20.0,1
-124.0,-58.0,179.0,-34.0,1.0,-19.0,1
-121.0,-59.0,179.0,-31.0,8.0,-20.0,1
-123.0,-56.0,179.0,-29.0,12.0,-20.0,1
-123.0,-57.0,180.0,-25.0,16.0,-21.0,1
-121.0,-56.0,180.0,-19.0,20.0,-21.0,1
-123.0,-56.0,182.0,-16.0,21.0,-20.0,1
-124.0,-56.0,179.0,-13.0,19.0,-20.0,1
-122.0,-60.0,177.0,-10.0,14.0,-18.0,1
-124.0,-59.0,168.0,-13.0,8.0,-18.0,1
-124.0,-57.0,178.0,-20.0,2.0,-18.0,1
-124.0,-57.0,169.0,-27.0,-3.0,-19.0,1
-123.0,-59.0,173.0,-33.0,-6.0,-17.0,1
-123.0,-57.0,169.0,-41.0,-9.0,-17.0,1
-119.0,-58.0,174.0,-49.0,-9.0,-18.0,1
-124.0,-57.0,176.0,-57.0,-12.0,-16.0,1
-121.0,-58.0,174.0,-64.0,-11.0,-16.0,1
-122.0,-56.0,178.0,-68.0,-11.0,-14.0,1
-121.0,-57.0,178.0,-69.0,-11.0,-14.0,1
-121.0,-57.0,179.0,-69.0,-11.0,-12.0,1
-126.0,-61.0,184.0,-68.0,-11.0,-11.0,1
-119.0,-55.0,182.0,-66.0,-10.0,-10.0,1
-122.0,-57.0,176.0,-61.0,-9.0,-9.0,1
-122.0,-56.0,178.0,-57.0,-9.0,-10.0,1
-123.0,-56.0,181.0,-50.0,-7.0,-12.0,1
-125.0,-56.0,178.0,-48.0,-5.0,-10.0,1
-121.0,-57.0,181.0,-49.0,-3.0,-11.0,1
-122.0,-56.0,180.0,-46.0,-2.0,-11.0,1
-123.0,-56.0,178.0,-45.0,-2.0,-13.0,1
-123.0,-57.0,177.0,-45.0,-1.0,-14.0,1
-125.0,-57.0,179.0,-49.0,-1.0,-14.0,1
-119.0,-71.0,182.0,-51.0,-1.0,-15.0,1
-121.0,-56.0,178.0,-53.0,-3.0,-17.0,1
-123.0,-57.0,179.0,-56.0,-3.0,-17.0,1
-120.0,-55.0,171.0,-56.0,-4.0,-17.0,1
-121.0,-56.0,179.0,-55.0,-6.0,-17.0,1
-122.0,-56.0,181.0,-57.0,-5.0,-17.0,1
-123.0,-57.0,179.0,-58.0,-5.0,-17.0,1
-121.0,-58.0,177.0,-57.0,-5.0,-16.0,1
-122.0,-57.0,182.0,-56.0,-4.0,-16.0,1
-120.0,-58.0,180.0,-57.0,-3.0,-17.0,1
-122.0,-57.0,179.0,-56.0,0.0,-16.0,1
-120.0,-57.0,176.0,-55.0,2.0,-16.0,1
-121.0,-56.0,181.0,-52.0,3.0,-16.0,1
-123.0,-57.0,178.0,-48.0,5.0,-15.0,1
-121.0,-58.0,181.0,-45.0,6.0,-16.0,1
-124.0,-55.0,175.0,-42.0,6.0,-15.0,1
-119.0,-58.0,178.0,-39.0,7.0,-15.0,1
-121.0,-58.0,180.0,-39.0,6.0,-14.0,1
-124.0,-57.0,179.0,-44.0,5.0,-13.0,1
-118.0,-58.0,174.0,-51.0,1.0,-12.0,1
-122.0,-56.0,180.0,-56.0,-2.0,-12.0,1
-124.0,-56.0,179.0,-62.0,-7.0,-13.0,1
-123.0,-57.0,179.0,-69.0,-11.0,-11.0,1
-120.0,-57.0,177.0,-73.0,-14.0,-11.0,1
-119.0,-58.0,177.0,-74.0,-16.0,-10.0,1
-120.0,-58.0,178.0,-71.0,-14.0,-10.0,1
-119.0,-58.0,178.0,-64.0,-11.0,-10.0,1
-123.0,-56.0,176.0,-57.0,-7.0,-12.0,1
-121.0,-58.0,181.0,-54.0,-4.0,-13.0,1
-122.0,-56.0,180.0,-48.0,1.0,-13.0,1
-120.0,-57.0,174.0,-45.0,2.0,-14.0,1
-121.0,-60.0,181.0,-41.0,5.0,-14.0,1
-124.0,-58.0,180.0,-41.0,6.0,-14.0,1
-121.0,-56.0,182.0,-42.0,6.0,-13.0,1
-120.0,-58.0,178.0,-43.0,6.0,-13.0,1
-120.0,-60.0,175.0,-43.0,5.0,-14.0,1
-121.0,-58.0,179.0,-47.0,4.0,-14.0,1
-121.0,-56.0,180.0,-51.0,4.0,-15.0,1
-122.0,-59.0,177.0,-52.0,4.0,-11.0,1
-121.0,-57.0,181.0,-53.0,2.0,-11.0,1
-122.0,-58.0,180.0,-55.0,0.0,-11.0,1
-121.0,-57.0,177.0,-57.0,0.0,-13.0,1
-120.0,-56.0,179.0,-56.0,2.0,-13.0,1
-121.0,-59.0,179.0,-53.0,3.0,-16.0,1
-120.0,-60.0,177.0,-45.0,5.0,-15.0,1
-121.0,-58.0,178.0,-41.0,8.0,-17.0,1
-122.0,-58.0,184.0,-35.0,9.0,-17.0,1
-122.0,-57.0,181.0,-31.0,8.0,-18.0,1
-120.0,-57.0,178.0,-30.0,7.0,-19.0,1
-120.0,-58.0,178.0,-30.0,3.0,-19.0,1
-121.0,-56.0,180.0,-32.0,0.0,-19.0,1
-121.0,-56.0,177.0,-38.0,-4.0,-21.0,1
-122.0,-57.0,182.0,-42.0,-8.0,-20.0,1
-122.0,-55.0,183.0,-46.0,-10.0,-20.0,1
-120.0,-56.0,180.0,-50.0,-15.0,-21.0,1
-122.0,-57.0,180.0,-55.0,-17.0,-19.0,1
-122.0,-57.0,182.0,-60.0,-17.0,-18.0,1
-121.0,-57.0,180.0,-61.0,-17.0,-18.0,1
-120.0,-57.0,181.0,-64.0,-17.0,-15.0,1
-119.0,-59.0,185.0,-65.0,-14.0,-14.0,1
-121.0,-56.0,181.0,-64.0,-12.0,-13.0,1
-119.0,-58.0,180.0,-61.0,-10.0,-10.0,1
-121.0,-58.0,184.0,-59.0,-6.0,-7.0,1
-117.0,-60.0,182.0,-57.0,-4.0,-7.0,1
-116.0,-59.0,179.0,-56.0,0.0,-6.0,1
-121.0,-56.0,182.0,-57.0,0.0,-2.0,1
-118.0,-57.0,182.0,-57.0,1.0,-2.0,1
-120.0,-58.0,181.0,-57.0,1.0,0.0,1
-122.0,-57.0,180.0,-59.0,1.0,3.0,1
-119.0,-58.0,183.0,-60.0,2.0,4.0,1
-120.0,-59.0,180.0,-57.0,4.0,5.0,1
-117.0,-61.0,184.0,-58.0,5.0,5.0,1
-123.0,-59.0,183.0,-55.0,9.0,6.0,1
-118.0,-61.0,183.0,-54.0,13.0,6.0,1
-118.0,-60.0,180.0,-51.0,16.0,7.0,1
-120.0,-58.0,182.0,-51.0,20.0,8.0,1
-120.0,-60.0,180.0,-50.0,21.0,8.0,1
-121.0,-57.0,182.0,-50.0,26.0,7.0,1
-119.0,-57.0,181.0,-48.0,28.0,9.0,1
-119.0,-57.0,178.0,-49.0,31.0,9.0,1
-121.0,-56.0,178.0,-45.0,32.0,10.0,1
-121.0,-57.0,180.0,-46.0,33.0,10.0,1
-121.0,-57.0,177.0,-47.0,33.0,12.0,1
-117.0,-57.0,177.0,-47.0,33.0,11.0,1
-119.0,-59.0,178.0,-49.0,33.0,13.0,1
-122.0,-59.0,179.0,-49.0,32.0,14.0,1
-121.0,-58.0,177.0,-50.0,35.0,14.0,1
-118.0,-57.0,183.0,-52.0,35.0,15.0,1
-119.0,-58.0,180.0,-53.0,35.0,15.0,1
-121.0,-58.0,179.0,-54.0,35.0,15.0,1
-119.0,-61.0,179.0,-53.0,37.0,15.0,1
-122.0,-57.0,178.0,-52.0,37.0,16.0,1
-120.0,-59.0,183.0,-53.0,38.0,16.0,1
-122.0,-57.0,180.0,-52.0,39.0,16.0,1
-122.0,-58.0,182.0,-50.0,41.0,15.0,1
-121.0,-57.0,181.0,-47.0,41.0,16.0,1
-119.0,-57.0,176.0,-46.0,41.0,16.0,1
-121.0,-60.0,176.0,-47.0,41.0,16.0,1
-122.0,-57.0,177.0,-48.0,40.0,15.0,1
-122.0,-58.0,178.0,-48.0,40.0,15.0,1
-122.0,-59.0,177.0,-48.0,40.0,16.0,1
-119.0,-57.0,183.0,-48.0,40.0,15.0,1
-119.0,-56.0,178.0,-49.0,40.0,17.0,1
-116.0,-60.0,179.0,-49.0,40.0,15.0,1
-121.0,-58.0,176.0,-48.0,42.0,15.0,1
-123.0,-57.0,175.0,-48.0,42.0,15.0,1
-122.0,-58.0,181.0,-44.0,42.0,16.0,1
-123.0,-57.0,182.0,-43.0,44.0,15.0,1
-122.0,-57.0,183.0,-41.0,46.0,15.0,1
-124.0,-58.0,176.0,-43.0,46.0,14.0,1
-124.0,-56.0,177.0,-41.0,47.0,14.0,1
-120.0,-58.0,175.0,-40.0,48.0,13.0,1
-121.0,-61.0,175.0,-40.0,48.0,13.0,1
-121.0,-57.0,182.0,-42.0,48.0,13.0,1
-121.0,-58.0,179.0,-42.0,47.0,13.0,1
-122.0,-56.0,176.0,-41.0,46.0,11.0,1
-123.0,-55.0,180.0,-41.0,47.0,13.0,1
-123.0,-57.0,176.0,-40.0,47.0,13.0,1
-122.0,-55.0,177.0,-40.0,45.0,14.0,1
-123.0,-57.0,173.0,-42.0,43.0,13.0,1
-121.0,-56.0,181.0,-41.0,42.0,12.0,1
-123.0,-58.0,175.0,-39.0,41.0,12.0,1
-121.0,-57.0,173.0,-39.0,38.0,12.0,1
-124.0,-56.0,177.0,-40.0,39.0,12.0,1
-118.0,-59.0,179.0,-40.0,37.0,9.0,1
-126.0,-56.0,178.0,-41.0,36.0,10.0,1
-124.0,-59.0,177.0,-45.0,35.0,10.0,1
-124.0,-55.0,181.0,-47.0,33.0,11.0,1
-120.0,-59.0,178.0,-49.0,32.0,10.0,1
-119.0,-58.0,180.0,-50.0,35.0,10.0,1
-124.0,-58.0,180.0,-51.0,37.0,11.0,1
-125.0,-57.0,180.0,-52.0,39.0,12.0,1
-120.0,-58.0,177.0,-51.0,42.0,13.0,1
-121.0,-58.0,181.0,-51.0,44.0,15.0,1
-123.0,-56.0,179.0,-52.0,45.0,13.0,1
-121.0,-57.0,181.0,-54.0,44.0,16.0,1
-122.0,-56.0,178.0,-54.0,42.0,16.0,1
-123.0,-56.0,175.0,-55.0,41.0,16.0,1
-122.0,-56.0,177.0,-53.0,43.0,15.0,1
-121.0,-56.0,176.0,-48.0,44.0,15.0,1
-123.0,-56.0,177.0,-41.0,45.0,13.0,1
-123.0,-54.0,180.0,-36.0,46.0,11.0,1
-123.0,-53.0,176.0,-33.0,43.0,10.0,1
-125.0,-57.0,176.0,-36.0,39.0,9.0,1
-125.0,-55.0,175.0,-38.0,35.0,9.0,1
-125.0,-54.0,181.0,-41.0,29.0,6.0,1
-124.0,-56.0,180.0,-45.0,26.0,6.0,1
-123.0,-56.0,178.0,-49.0,23.0,6.0,1
-123.0,-61.0,175.0,-51.0,24.0,6.0,1
-121.0,-58.0,177.0,-50.0,26.0,4.0,1
-125.0,-56.0,176.0,-45.0,29.0,4.0,1
-123.0,-59.0,177.0,-41.0,33.0,3.0,1
-122.0,-59.0,178.0,-36.0,39.0,4.0,1
-125.0,-56.0,180.0,-31.0,44.0,4.0,1
-122.0,-57.0,179.0,-28.0,49.0,4.0,1
-121.0,-58.0,180.0,-25.0,54.0,3.0,1
-125.0,-56.0,177.0,-20.0,55.0,4.0,1
-125.0,-55.0,183.0,-18.0,56.0,6.0,1
-124.0,-59.0,181.0,-18.0,56.0,5.0,1
-124.0,-58.0,176.0,-19.0,52.0,6.0,1
-124.0,-58.0,179.0,-25.0,46.0,8.0,1
-124.0,-59.0,177.0,-32.0,42.0,10.0,1
-124.0,-57.0,174.0,-36.0,41.0,11.0,1
-124.0,-57.0,177.0,-41.0,40.0,13.0,1
-123.0,-56.0,179.0,-43.0,42.0,13.0,1
-123.0,-56.0,179.0,-47.0,41.0,16.0,1
-124.0,-55.0,176.0,-52.0,42.0,18.0,1
-122.0,-56.0,170.0,-56.0,44.0,19.0,1
-121.0,-56.0,178.0,-58.0,42.0,18.0,1
-124.0,-57.0,179.0,-58.0,38.0,18.0,1
-123.0,-56.0,178.0,-55.0,34.0,19.0,1
-124.0,-55.0,176.0,-51.0,30.0,17.0,1
-122.0,-59.0,178.0,-47.0,27.0,16.0,1
-126.0,-56.0,178.0,-39.0,26.0,15.0,1
-122.0,-57.0,176.0,-35.0,26.0,14.0,1
-124.0,-57.0,178.0,-32.0,26.0,13.0,1
-125.0,-54.0,177.0,-33.0,28.0,12.0,1
-123.0,-56.0,176.0,-33.0,31.0,10.0,1
-123.0,-55.0,176.0,-36.0,34.0,8.0,1
-127.0,-55.0,180.0,-40.0,37.0,6.0,1
-125.0,-56.0,180.0,-40.0,38.0,5.0,1
-124.0,-54.0,174.0,-41.0,41.0,3.0,1
-125.0,-56.0,178.0,-41.0,44.0,5.0,1
-122.0,-56.0,175.0,-40.0,45.0,5.0,1
-122.0,-56.0,177.0,-40.0,44.0,5.0,1
-122.0,-56.0,178.0,-41.0,43.0,7.0,1
-126.0,-55.0,176.0,-37.0,43.0,6.0,1
-125.0,-56.0,175.0,-37.0,43.0,6.0,1
-126.0,-56.0,179.0,-37.0,41.0,6.0,1
-123.0,-57.0,179.0,-36.0,39.0,5.0,1
-124.0,-58.0,175.0,-39.0,37.0,5.0,1
-125.0,-56.0,178.0,-39.0,35.0,6.0,1
-124.0,-56.0,177.0,-42.0,33.0,6.0,1
-124.0,-56.0,183.0,-43.0,33.0,6.0,1
-124.0,-57.0,178.0,-43.0,31.0,6.0,1
-124.0,-54.0,176.0,-43.0,29.0,8.0,1
-126.0,-62.0,188.0,-42.0,27.0,8.0,1
-128.0,-54.0,173.0,-41.0,26.0,9.0,1
-122.0,-56.0,179.0,-40.0,26.0,6.0,1
-123.0,-56.0,172.0,-40.0,25.0,5.0,1
-126.0,-54.0,174.0,-44.0,25.0,4.0,1
-125.0,-55.0,178.0,-47.0,23.0,4.0,1
-126.0,-56.0,175.0,-51.0,21.0,3.0,1
-127.0,-56.0,177.0,-55.0,20.0,3.0,1
-124.0,-56.0,176.0,-60.0,17.0,3.0,1
-127.0,-56.0,174.0,-61.0,15.0,3.0,1
-125.0,-56.0,171.0,-59.0,15.0,3.0,1
-120.0,-54.0,170.0,-57.0,15.0,3.0,1
-121.0,-58.0,179.0,-52.0,17.0,3.0,1
-127.0,-56.0,180.0,-47.0,20.0,3.0,1
-125.0,-58.0,173.0,-43.0,22.0,5.0,1
-123.0,-56.0,171.0,-42.0,23.0,4.0,1
-126.0,-57.0,178.0,-39.0,22.0,4.0,1
-126.0,-56.0,178.0,-38.0,22.0,2.0,1
-125.0,-57.0,175.0,-40.0,20.0,1.0,1
-127.0,-56.0,177.0,-43.0,18.0,1.0,1
-129.0,-56.0,175.0,-45.0,16.0,-1.0,1
-128.0,-56.0,177.0,-47.0,15.0,-2.0,1
-128.0,-70.0,190.0,-50.0,14.0,-2.0,1
-127.0,-56.0,177.0,-52.0,12.0,-2.0,1
-126.0,-55.0,176.0,-55.0,8.0,0.0,1
-126.0,-53.0,175.0,-58.0,4.0,1.0,1
-123.0,-56.0,177.0,-61.0,0.0,0.0,1
-121.0,-57.0,175.0,-66.0,-5.0,0.0,1
-124.0,-58.0,175.0,-68.0,-7.0,-1.0,1
-125.0,-55.0,171.0,-66.0,-14.0,-3.0,1
-127.0,-54.0,174.0,-66.0,-16.0,-3.0,1
-129.0,-54.0,172.0,-68.0,-18.0,-5.0,1
-123.0,-55.0,176.0,-72.0,-16.0,-6.0,1
-131.0,-50.0,188.0,-78.0,-15.0,-6.0,1
-126.0,-56.0,177.0,-85.0,-14.0,-8.0,1
-126.0,-56.0,175.0,-96.0,-9.0,-9.0,1
-128.0,-55.0,181.0,-103.0,-2.0,-11.0,1
-125.0,-56.0,183.0,-107.0,6.0,-11.0,1
-126.0,-56.0,179.0,-108.0,14.0,-10.0,1
-125.0,-52.0,182.0,-103.0,21.0,-7.0,1
-120.0,-57.0,177.0,-95.0,27.0,-4.0,1
-126.0,-54.0,178.0,-85.0,34.0,-5.0,1
-124.0,-55.0,179.0,-76.0,40.0,0.0,1
-122.0,-56.0,183.0,-69.0,43.0,4.0,1
-119.0,-56.0,183.0,-66.0,43.0,4.0,1
-122.0,-55.0,179.0,-59.0,43.0,8.0,1
-119.0,-58.0,174.0,-53.0,43.0,8.0,1
-121.0,-55.0,180.0,-50.0,41.0,7.0,1
-122.0,-56.0,182.0,-46.0,37.0,8.0,1
-121.0,-58.0,178.0,-44.0,32.0,5.0,1
-123.0,-59.0,178.0,-44.0,29.0,5.0,1
-125.0,-58.0,174.0,-43.0,25.0,5.0,1
-121.0,-60.0,176.0,-42.0,24.0,3.0,1
-126.0,-59.0,176.0,-42.0,23.0,3.0,1
-124.0,-59.0,179.0,-41.0,22.0,2.0,1
-128.0,-61.0,179.0,-40.0,19.0,4.0,1
-128.0,-59.0,176.0,-40.0,21.0,6.0,1
-128.0,-60.0,177.0,-39.0,22.0,5.0,1
-129.0,-58.0,176.0,-40.0,23.0,7.0,1
-127.0,-57.0,176.0,-40.0,22.0,7.0,1
-126.0,-58.0,179.0,-43.0,24.0,6.0,1
-127.0,-56.0,176.0,-44.0,25.0,6.0,1
-129.0,-59.0,176.0,-45.0,27.0,7.0,1
-129.0,-56.0,175.0,-48.0,27.0,5.0,1
-128.0,-57.0,175.0,-49.0,29.0,6.0,1
-128.0,-56.0,175.0,-51.0,29.0,6.0,1
-128.0,-57.0,177.0,-52.0,32.0,5.0,1
-129.0,-55.0,176.0,-52.0,34.0,7.0,1
-124.0,-60.0,176.0,-54.0,36.0,7.0,1
-127.0,-60.0,180.0,-53.0,40.0,6.0,1
-125.0,-60.0,174.0,-52.0,40.0,7.0,1
-128.0,-59.0,175.0,-52.0,44.0,8.0,1
-127.0,-59.0,174.0,-53.0,45.0,10.0,1
-127.0,-57.0,175.0,-50.0,47.0,10.0,1
-127.0,-56.0,180.0,-50.0,47.0,10.0,1
-127.0,-55.0,178.0,-49.0,50.0,9.0,1
-127.0,-55.0,176.0,-47.0,48.0,8.0,1
-127.0,-54.0,177.0,-45.0,48.0,8.0,1
-123.0,-59.0,179.0,-43.0,47.0,9.0,1
-125.0,-58.0,174.0,-40.0,43.0,8.0,1
-126.0,-62.0,176.0,-38.0,41.0,11.0,1
-125.0,-57.0,176.0,-37.0,36.0,10.0,1
-125.0,-59.0,174.0,-38.0,34.0,11.0,1
-123.0,-57.0,178.0,-37.0,33.0,10.0,1
-126.0,-57.0,177.0,-37.0,31.0,8.0,1
-129.0,-55.0,175.0,-40.0,32.0,7.0,1
-127.0,-56.0,174.0,-41.0,32.0,6.0,1
-125.0,-56.0,177.0,-41.0,34.0,4.0,1
-128.0,-55.0,178.0,-42.0,36.0,2.0,1
-127.0,-55.0,179.0,-42.0,38.0,0.0,1
-128.0,-55.0,178.0,-41.0,39.0,0.0,1
-128.0,-53.0,172.0,-39.0,38.0,-1.0,1
-126.0,-55.0,176.0,-35.0,40.0,-2.0,1
-127.0,-54.0,173.0,-30.0,39.0,-2.0,1
-125.0,-58.0,176.0,-29.0,36.0,-5.0,1
-123.0,-56.0,175.0,-27.0,35.0,-3.0,1
-126.0,-56.0,174.0,-26.0,32.0,-5.0,1
-126.0,-57.0,175.0,-27.0,28.0,-7.0,1
-125.0,-56.0,174.0,-27.0,26.0,-9.0,1
-127.0,-56.0,174.0,-28.0,24.0,-11.0,1
-127.0,-51.0,173.0,-32.0,22.0,-12.0,1
-126.0,-54.0,171.0,-36.0,21.0,-14.0,1
-124.0,-56.0,173.0,-42.0,19.0,-17.0,1
-125.0,-53.0,176.0,-48.0,18.0,-18.0,1
-124.0,-53.0,178.0,-54.0,18.0,-19.0,1
-128.0,-53.0,181.0,-59.0,17.0,-18.0,1
-124.0,-57.0,174.0,-59.0,15.0,-17.0,1
-126.0,-57.0,178.0,-58.0,15.0,-16.0,1
-125.0,-59.0,175.0,-55.0,14.0,-15.0,1
-126.0,-56.0,178.0,-50.0,13.0,-13.0,1
-124.0,-61.0,177.0,-48.0,13.0,-9.0,1
-126.0,-60.0,174.0,-48.0,11.0,-9.0,1
-127.0,-59.0,178.0,-49.0,12.0,-8.0,1
-124.0,-60.0,174.0,-53.0,13.0,-7.0,1
-127.0,-56.0,175.0,-54.0,14.0,-5.0,1
-129.0,-58.0,174.0,-51.0,18.0,-4.0,1
-128.0,-57.0,177.0,-43.0,17.0,-4.0,1
-128.0,-57.0,178.0,-33.0,19.0,-4.0,1
-128.0,-57.0,175.0,-24.0,18.0,-4.0,1
-129.0,-57.0,176.0,-17.0,15.0,-3.0,1
-131.0,-54.0,176.0,-17.0,8.0,-6.0,1
-129.0,-58.0,173.0,-16.0,1.0,-6.0,1
-130.0,-55.0,173.0,-20.0,-6.0,-6.0,1
-128.0,-56.0,177.0,-24.0,-12.0,-10.0,1
-130.0,-55.0,172.0,-29.0,-17.0,-11.0,1
-130.0,-55.0,176.0,-34.0,-19.0,-13.0,1
-127.0,-55.0,175.0,-37.0,-19.0,-13.0,1
-130.0,-58.0,174.0,-35.0,-17.0,-14.0,1
-130.0,-55.0,174.0,-34.0,-15.0,-17.0,1
-126.0,-56.0,176.0,-30.0,-9.0,-16.0,1
-126.0,-55.0,177.0,-28.0,-4.0,-17.0,1
-125.0,-56.0,174.0,-26.0,-2.0,-18.0,1
-126.0,-55.0,177.0,-27.0,4.0,-20.0,1
-125.0,-55.0,180.0,-26.0,5.0,-20.0,1
-127.0,-57.0,182.0,-26.0,10.0,-18.0,1
-125.0,-58.0,177.0,-28.0,11.0,-18.0,1
-126.0,-59.0,176.0,-34.0,10.0,-17.0,1
-126.0,-56.0,181.0,-41.0,9.0,-16.0,1
-125.0,-57.0,176.0,-49.0,7.0,-15.0,1
-126.0,-58.0,178.0,-56.0,6.0,-15.0,1
-128.0,-53.0,180.0,-60.0,8.0,-15.0,1
-125.0,-55.0,177.0,-60.0,9.0,-13.0,1
-126.0,-55.0,175.0,-59.0,10.0,-10.0,1
-127.0,-55.0,177.0,-57.0,10.0,-10.0,1
-127.0,-54.0,173.0,-56.0,10.0,-10.0,1
-124.0,-55.0,179.0,-54.0,9.0,-10.0,1
-126.0,-55.0,179.0,-52.0,7.0,-8.0,1
-126.0,-55.0,175.0,-51.0,4.0,-7.0,1
-127.0,-55.0,177.0,-47.0,0.0,-8.0,1
-122.0,-55.0,178.0,-42.0,-4.0,-9.0,1
-124.0,-58.0,179.0,-41.0,-5.0,-11.0,1
-122.0,-58.0,176.0,-40.0,-3.0,-11.0,1
-125.0,-58.0,179.0,-39.0,-3.0,-11.0,1
-129.0,-58.0,179.0,-39.0,-1.0,-11.0,1
-125.0,-60.0,176.0,-37.0,2.0,-12.0,1
-124.0,-61.0,171.0,-35.0,7.0,-13.0,1
-123.0,-59.0,175.0,-34.0,13.0,-14.0,1
-124.0,-58.0,176.0,-36.0,19.0,-16.0,1
-124.0,-60.0,175.0,-32.0,23.0,-16.0,1
-126.0,-58.0,176.0,-28.0,25.0,-15.0,1
-125.0,-59.0,177.0,-27.0,26.0,-13.0,1
-123.0,-57.0,176.0,-26.0,22.0,-12.0,1
-121.0,-56.0,176.0,-26.0,17.0,-11.0,1
-122.0,-56.0,176.0,-26.0,10.0,-9.0,1
-124.0,-56.0,177.0,-26.0,3.0,-9.0,1
-124.0,-54.0,175.0,-27.0,-3.0,-10.0,1
-125.0,-56.0,173.0,-26.0,-9.0,-12.0,1
-126.0,-54.0,176.0,-27.0,-16.0,-11.0,1
-127.0,-55.0,174.0,-28.0,-20.0,-13.0,1
-124.0,-55.0,174.0,-31.0,-23.0,-13.0,1
-128.0,-52.0,177.0,-35.0,-26.0,-11.0,1
-125.0,-55.0,177.0,-36.0,-28.0,-12.0,1
-128.0,-57.0,175.0,-39.0,-27.0,-11.0,1
-124.0,-56.0,179.0,-40.0,-28.0,-12.0,1
-127.0,-57.0,176.0,-38.0,-25.0,-11.0,1
-123.0,-57.0,179.0,-39.0,-21.0,-11.0,1
-128.0,-56.0,179.0,-38.0,-18.0,-9.0,1
-123.0,-56.0,180.0,-42.0,-17.0,-9.0,1
-128.0,-55.0,181.0,-46.0,-15.0,-9.0,1
-126.0,-60.0,176.0,-49.0,-13.0,-7.0,1
-126.0,-57.0,175.0,-53.0,-11.0,-7.0,1
-126.0,-56.0,176.0,-57.0,-9.0,-7.0,1
-125.0,-55.0,179.0,-60.0,-6.0,-7.0,1
-122.0,-48.0,178.0,-57.0,-4.0,-5.0,1
-151.0,-72.0,172.0,-57.0,-2.0,-8.0,1
-128.0,-56.0,174.0,-50.0,1.0,-8.0,1
-121.0,-58.0,175.0,-46.0,5.0,-8.0,1
-123.0,-56.0,174.0,-43.0,7.0,-9.0,1
-122.0,-58.0,177.0,-41.0,8.0,-11.0,1
-125.0,-56.0,175.0,-39.0,6.0,-11.0,1
-125.0,-56.0,175.0,-40.0,5.0,-12.0,1
-123.0,-55.0,178.0,-39.0,3.0,-12.0,1
-124.0,-58.0,181.0,-38.0,1.0,-13.0,1
-124.0,-58.0,175.0,-40.0,-2.0,-14.0,1
-126.0,-56.0,176.0,-40.0,-5.0,-16.0,1
-126.0,-56.0,181.0,-41.0,-8.0,-16.0,1
-124.0,-55.0,176.0,-43.0,-11.0,-18.0,1
-126.0,-55.0,177.0,-48.0,-12.0,-18.0,1
-127.0,-58.0,176.0,-53.0,-14.0,-19.0,1
-124.0,-56.0,179.0,-55.0,-14.0,-20.0,1
-126.0,-53.0,176.0,-55.0,-15.0,-20.0,1
-128.0,-56.0,177.0,-52.0,-15.0,-18.0,1
-123.0,-55.0,177.0,-48.0,-14.0,-19.0,1
-126.0,-56.0,177.0,-44.0,-13.0,-18.0,1
-126.0,-55.0,175.0,-39.0,-11.0,-20.0,1
-123.0,-55.0,176.0,-37.0,-12.0,-20.0,1
-122.0,-57.0,179.0,-37.0,-14.0,-20.0,1
-125.0,-57.0,177.0,-41.0,-15.0,-19.0,1
-125.0,-55.0,182.0,-46.0,-17.0,-18.0,1
-124.0,-59.0,178.0,-51.0,-18.0,-19.0,1
-123.0,-57.0,176.0,-54.0,-18.0,-16.0,1
-126.0,-56.0,179.0,-55.0,-17.0,-16.0,1
-119.0,-56.0,182.0,-57.0,-14.0,-15.0,1
-125.0,-57.0,180.0,-57.0,-13.0,-14.0,1
-124.0,-55.0,178.0,-56.0,-10.0,-13.0,1
-125.0,-57.0,180.0,-54.0,-9.0,-10.0,1
-125.0,-57.0,179.0,-51.0,-7.0,-10.0,1
-124.0,-56.0,181.0,-49.0,-5.0,-10.0,1
-123.0,-59.0,188.0,-46.0,-3.0,-9.0,1
-122.0,-56.0,179.0,-43.0,-1.0,-8.0,1
-120.0,-56.0,182.0,-39.0,3.0,-8.0,1
-121.0,-56.0,179.0,-36.0,4.0,-8.0,1
-123.0,-55.0,182.0,-34.0,5.0,-7.0,1
-125.0,-56.0,177.0,-33.0,6.0,-9.0,1
-125.0,-57.0,171.0,-30.0,6.0,-11.0,1
-126.0,-57.0,178.0,-30.0,5.0,-11.0,1
-127.0,-56.0,181.0,-28.0,6.0,-12.0,1
-126.0,-55.0,175.0,-28.0,5.0,-11.0,1
-120.0,-57.0,179.0,-28.0,6.0,-11.0,1
-117.0,-65.0,193.0,-28.0,6.0,-10.0,1
-124.0,-56.0,177.0,-30.0,5.0,-8.0,1
-124.0,-56.0,176.0,-33.0,4.0,-8.0,1
-124.0,-55.0,178.0,-35.0,2.0,-9.0,1
-121.0,-56.0,176.0,-36.0,0.0,-8.0,1
-126.0,-54.0,179.0,-41.0,-3.0,-9.0,1
-125.0,-56.0,180.0,-42.0,-6.0,-8.0,1
-123.0,-55.0,179.0,-42.0,-7.0,-8.0,1
-125.0,-57.0,178.0,-45.0,-7.0,-8.0,1
-123.0,-57.0,177.0,-46.0,-8.0,-9.0,1
-122.0,-56.0,178.0,-45.0,-6.0,-9.0,1
-119.0,-63.0,184.0,-47.0,-4.0,-10.0,1
-124.0,-56.0,181.0,-49.0,-2.0,-10.0,1
-121.0,-56.0,179.0,-49.0,1.0,-8.0,1
-123.0,-55.0,183.0,-50.0,3.0,-7.0,1
-123.0,-57.0,176.0,-50.0,5.0,-7.0,1
-122.0,-54.0,176.0,-49.0,7.0,-7.0,1
-121.0,-56.0,178.0,-48.0,7.0,-6.0,1
-124.0,-53.0,179.0,-47.0,7.0,-6.0,1
-123.0,-55.0,182.0,-47.0,6.0,-6.0,1
-121.0,-57.0,178.0,-48.0,6.0,-6.0,1
-122.0,-56.0,179.0,-49.0,4.0,-7.0,1
-123.0,-57.0,178.0,-48.0,3.0,-7.0,1
-124.0,-56.0,179.0,-48.0,3.0,-6.0,1
-127.0,-55.0,178.0,-48.0,2.0,-9.0,1
-124.0,-55.0,176.0,-47.0,2.0,-9.0,1
-126.0,-56.0,174.0,-47.0,2.0,-10.0,1
-122.0,-58.0,175.0,-47.0,3.0,-9.0,1
-123.0,-53.0,178.0,-48.0,3.0,-9.0,1
-124.0,-54.0,179.0,-50.0,3.0,-10.0,1
-125.0,-55.0,177.0,-50.0,4.0,-11.0,1
-124.0,-56.0,173.0,-50.0,4.0,-12.0,1
-122.0,-56.0,181.0,-48.0,5.0,-12.0,1
-125.0,-57.0,176.0,-48.0,5.0,-11.0,1
-120.0,-55.0,177.0,-50.0,4.0,-11.0,1
-124.0,-54.0,176.0,-49.0,4.0,-12.0,1
-122.0,-55.0,176.0,-49.0,5.0,-12.0,1
-122.0,-55.0,179.0,-47.0,4.0,-13.0,1
-121.0,-56.0,175.0,-45.0,5.0,-14.0,1
-120.0,-57.0,178.0,-42.0,6.0,-15.0,1
-124.0,-57.0,179.0,-42.0,6.0,-16.0,1
-120.0,-56.0,177.0,-40.0,5.0,-16.0,1
-121.0,-57.0,176.0,-44.0,2.0,-17.0,1
-121.0,-57.0,178.0,-46.0,-1.0,-18.0,1
-119.0,-57.0,183.0,-48.0,-4.0,-19.0,1
-124.0,-55.0,177.0,-51.0,-6.0,-20.0,1
-123.0,-55.0,177.0,-53.0,-7.0,-19.0,1
-123.0,-58.0,179.0,-54.0,-8.0,-19.0,1
-124.0,-55.0,180.0,-53.0,-7.0,-17.0,1
-123.0,-56.0,177.0,-55.0,-6.0,-16.0,1
-120.0,-58.0,181.0,-58.0,-4.0,-15.0,1
-122.0,-57.0,181.0,-59.0,-4.0,-15.0,1
-122.0,-57.0,180.0,-62.0,-4.0,-15.0,1
-123.0,-57.0,177.0,-61.0,-3.0,-16.0,1
-122.0,-58.0,176.0,-59.0,-2.0,-13.0,1
-124.0,-60.0,179.0,-54.0,0.0,-13.0,1
-122.0,-56.0,182.0,-49.0,4.0,-14.0,1
-121.0,-56.0,177.0,-42.0,6.0,-16.0,1
-123.0,-55.0,180.0,-37.0,7.0,-16.0,1
-121.0,-55.0,174.0,-34.0,7.0,-17.0,1
-124.0,-54.0,173.0,-34.0,5.0,-18.0,1
-123.0,-55.0,174.0,-36.0,2.0,-19.0,1
-122.0,-56.0,176.0,-41.0,-3.0,-19.0,1
-122.0,-55.0,176.0,-45.0,-7.0,-19.0,1
-125.0,-58.0,180.0,-47.0,-10.0,-18.0,1
-125.0,-57.0,177.0,-49.0,-9.0,-18.0,1
-125.0,-56.0,178.0,-47.0,-9.0,-17.0,1
-123.0,-58.0,179.0,-46.0,-7.0,-18.0,1
-123.0,-57.0,179.0,-42.0,-6.0,-19.0,1
-125.0,-60.0,180.0,-37.0,-3.0,-19.0,1
-122.0,-58.0,179.0,-33.0,0.0,-20.0,1
-122.0,-57.0,182.0,-29.0,4.0,-20.0,1
-120.0,-57.0,178.0,-26.0,9.0,-20.0,1
-121.0,-57.0,180.0,-22.0,11.0,-19.0,1
-121.0,-57.0,181.0,-17.0,12.0,-18.0,1
-119.0,-57.0,180.0,-11.0,9.0,-16.0,1
-123.0,-55.0,176.0,-9.0,9.0,-17.0,1
-120.0,-56.0,184.0,-12.0,2.0,-17.0,1
-122.0,-56.0,177.0,-13.0,-4.0,-16.0,1
-123.0,-57.0,176.0,-19.0,-9.0,-20.0,1
-119.0,-55.0,174.0,-26.0,-14.0,-20.0,1
-123.0,-56.0,178.0,-35.0,-18.0,-21.0,1
-120.0,-58.0,179.0,-42.0,-21.0,-21.0,1
-121.0,-53.0,178.0,-47.0,-24.0,-22.0,1
-122.0,-55.0,177.0,-54.0,-28.0,-23.0,1
-117.0,-53.0,175.0,-56.0,-29.0,-22.0,1
-119.0,-55.0,177.0,-58.0,-33.0,-21.0,1
-120.0,-53.0,176.0,-58.0,-36.0,-22.0,1
-118.0,-55.0,176.0,-57.0,-39.0,-23.0,1
-119.0,-54.0,178.0,-53.0,-40.0,-24.0,1
-118.0,-55.0,180.0,-49.0,-40.0,-24.0,1
-126.0,-56.0,181.0,-48.0,-40.0,-25.0,1
-121.0,-56.0,179.0,-49.0,-40.0,-25.0,1
-119.0,-58.0,180.0,-52.0,-38.0,-25.0,1
-119.0,-58.0,183.0,-55.0,-35.0,-27.0,1
-117.0,-59.0,181.0,-62.0,-33.0,-27.0,1
-118.0,-59.0,180.0,-68.0,-29.0,-26.0,1
-119.0,-60.0,182.0,-73.0,-26.0,-27.0,1
-122.0,-59.0,179.0,-79.0,-20.0,-27.0,1
-120.0,-58.0,181.0,-80.0,-14.0,-25.0,1
-124.0,-56.0,184.0,-78.0,-6.0,-24.0,1
-119.0,-57.0,182.0,-76.0,0.0,-20.0,1
-120.0,-59.0,183.0,-74.0,7.0,-17.0,1
-121.0,-58.0,184.0,-69.0,12.0,-15.0,1
-119.0,-56.0,182.0,-62.0,16.0,-14.0,1
-120.0,-56.0,183.0,-53.0,19.0,-12.0,1
-123.0,-59.0,184.0,-45.0,21.0,-10.0,1
-121.0,-58.0,182.0,-40.0,19.0,-9.0,1
-119.0,-56.0,179.0,-35.0,16.0,-8.0,1
-121.0,-57.0,179.0,-35.0,13.0,-8.0,1
-117.0,-60.0,179.0,-32.0,8.0,-9.0,1
-118.0,-59.0,176.0,-33.0,1.0,-11.0,1
-121.0,-57.0,179.0,-33.0,-4.0,-11.0,1
-128.0,-60.0,180.0,-36.0,-9.0,-13.0,1
-122.0,-56.0,179.0,-38.0,-16.0,-14.0,1
-119.0,-59.0,176.0,-41.0,-19.0,-15.0,1
-122.0,-57.0,174.0,-44.0,-22.0,-16.0,1
-119.0,-57.0,177.0,-47.0,-22.0,-16.0,1
-120.0,-56.0,180.0,-53.0,-23.0,-17.0,1
-117.0,-56.0,179.0,-60.0,-22.0,-17.0,1
-120.0,-57.0,177.0,-66.0,-21.0,-16.0,1
-122.0,-56.0,173.0,-73.0,-22.0,-15.0,1
-121.0,-56.0,182.0,-80.0,-20.0,-15.0,1
-117.0,-57.0,182.0,-81.0,-18.0,-14.0,1
-118.0,-58.0,179.0,-77.0,-14.0,-14.0,1
-119.0,-58.0,178.0,-72.0,-6.0,-14.0,1
-118.0,-60.0,177.0,-63.0,0.0,-14.0,1
-120.0,-58.0,179.0,-54.0,8.0,-14.0,1
-119.0,-56.0,179.0,-47.0,12.0,-15.0,1
-118.0,-58.0,180.0,-40.0,14.0,-16.0,1
-120.0,-58.0,180.0,-35.0,15.0,-16.0,1
-120.0,-58.0,178.0,-32.0,15.0,-16.0,1
-118.0,-60.0,182.0,-30.0,13.0,-15.0,1
-117.0,-58.0,178.0,-30.0,8.0,-16.0,1
-119.0,-60.0,180.0,-35.0,2.0,-15.0,1
-117.0,-60.0,180.0,-37.0,-4.0,-14.0,1
-117.0,-59.0,180.0,-45.0,-9.0,-12.0,1
-119.0,-58.0,179.0,-56.0,-14.0,-13.0,1
-117.0,-59.0,180.0,-67.0,-18.0,-11.0,1
-117.0,-58.0,178.0,-72.0,-19.0,-8.0,1
-116.0,-56.0,178.0,-78.0,-16.0,-6.0,1
-116.0,-58.0,184.0,-81.0,-13.0,-2.0,1
-119.0,-56.0,183.0,-80.0,-8.0,3.0,1
-117.0,-59.0,187.0,-76.0,0.0,4.0,1
-122.0,-56.0,185.0,-74.0,6.0,6.0,1
-118.0,-57.0,182.0,-66.0,15.0,7.0,1
-119.0,-60.0,183.0,-59.0,21.0,9.0,1
-121.0,-59.0,179.0,-55.0,28.0,11.0,1
-121.0,-58.0,182.0,-53.0,34.0,12.0,1
-122.0,-58.0,182.0,-48.0,38.0,12.0,1
-120.0,-60.0,177.0,-46.0,41.0,13.0,1
-119.0,-54.0,178.0,-47.0,43.0,15.0,1
-120.0,-56.0,183.0,-49.0,45.0,15.0,1
-119.0,-57.0,181.0,-50.0,45.0,15.0,1
-119.0,-58.0,181.0,-55.0,42.0,15.0,1
-115.0,-56.0,178.0,-58.0,42.0,15.0,1
-120.0,-57.0,180.0,-59.0,40.0,16.0,1
-115.0,-59.0,183.0,-60.0,36.0,15.0,1
-118.0,-57.0,179.0,-60.0,33.0,17.0,1
-117.0,-58.0,179.0,-59.0,33.0,17.0,1
-121.0,-55.0,180.0,-57.0,34.0,16.0,1
-119.0,-57.0,184.0,-54.0,36.0,15.0,1
-120.0,-56.0,183.0,-51.0,39.0,16.0,1
-120.0,-58.0,179.0,-48.0,42.0,15.0,1
-120.0,-57.0,181.0,-48.0,42.0,14.0,1
-120.0,-57.0,181.0,-48.0,43.0,14.0,1
-119.0,-56.0,181.0,-48.0,45.0,13.0,1
-122.0,-57.0,181.0,-50.0,46.0,13.0,1
-117.0,-59.0,181.0,-49.0,46.0,12.0,1
-119.0,-56.0,179.0,-51.0,45.0,12.0,1
-118.0,-59.0,181.0,-51.0,43.0,12.0,1
-117.0,-60.0,175.0,-50.0,42.0,12.0,1
-120.0,-55.0,178.0,-52.0,40.0,13.0,1
-120.0,-56.0,178.0,-50.0,39.0,13.0,1
-119.0,-59.0,177.0,-53.0,36.0,12.0,1
-120.0,-57.0,179.0,-52.0,34.0,14.0,1
-120.0,-59.0,181.0,-53.0,32.0,14.0,1
