ax,ay,az,gx,gy,gz,label
-103.0,-155.0,-163.0,350.0,-211.0,-95.0,1
-104.0,-157.0,-170.0,354.0,-262.0,-52.0,1
-97.0,-163.0,-174.0,339.0,-306.0,-2.0,1
-88.0,-170.0,-179.0,327.0,-337.0,44.0,1
-81.0,-174.0,-187.0,329.0,-353.0,89.0,1
-68.0,-174.0,-191.0,347.0,-355.0,131.0,1
-64.0,-184.0,-195.0,379.0,-348.0,166.0,1
-56.0,-190.0,-193.0,415.0,-338.0,200.0,1
-53.0,-192.0,-194.0,455.0,-325.0,234.0,1
-47.0,-192.0,-191.0,500.0,-316.0,270.0,1
-39.0,-193.0,-195.0,546.0,-312.0,304.0,1
-25.0,-191.0,-195.0,590.0,-301.0,338.0,1
-19.0,-193.0,-197.0,634.0,-290.0,371.0,1
-10.0,-188.0,-199.0,681.0,-280.0,401.0,1
2.0,-186.0,-207.0,728.0,-277.0,419.0,1
3.0,-179.0,-203.0,767.0,-279.0,433.0,1
10.0,-173.0,-208.0,793.0,-288.0,443.0,1
16.0,-174.0,-214.0,801.0,-304.0,447.0,1
23.0,-173.0,-217.0,796.0,-313.0,452.0,1
29.0,-170.0,-217.0,779.0,-321.0,451.0,1
28.0,-172.0,-218.0,757.0,-331.0,449.0,1
30.0,-174.0,-215.0,738.0,-336.0,443.0,1
28.0,-176.0,-217.0,722.0,-337.0,434.0,1
29.0,-174.0,-213.0,710.0,-332.0,423.0,1
31.0,-184.0,-218.0,703.0,-319.0,410.0,1
30.0,-186.0,-213.0,704.0,-303.0,398.0,1
29.0,-187.0,-208.0,715.0,-280.0,384.0,1
27.0,-184.0,-209.0,730.0,-256.0,374.0,1
24.0,-183.0,-209.0,750.0,-232.0,363.0,1
27.0,-180.0,-204.0,772.0,-209.0,355.0,1
22.0,-178.0,-202.0,790.0,-182.0,352.0,1
26.0,-180.0,-201.0,804.0,-151.0,350.0,1
25.0,-174.0,-202.0,814.0,-118.0,348.0,1
25.0,-170.0,-202.0,814.0,-86.0,342.0,1
25.0,-166.0,-194.0,801.0,-60.0,334.0,1
26.0,-163.0,-201.0,779.0,-36.0,323.0,1
19.0,-159.0,-198.0,749.0,-23.0,304.0,1
20.0,-156.0,-198.0,715.0,-13.0,279.0,1
19.0,-153.0,-199.0,680.0,-8.0,253.0,1
21.0,-153.0,-195.0,641.0,0.0,230.0,1
17.0,-154.0,-192.0,594.0,16.0,208.0,1
24.0,-153.0,-191.0,529.0,29.0,187.0,1
23.0,-153.0,-190.0,480.0,41.0,167.0,1
22.0,-152.0,-185.0,438.0,57.0,148.0,1
25.0,-152.0,-182.0,408.0,67.0,127.0,1
18.0,-146.0,-180.0,394.0,85.0,105.0,1
15.0,-152.0,-182.0,389.0,92.0,90.0,1
14.0,-148.0,-180.0,394.0,109.0,68.0,1
8.0,-150.0,-180.0,407.0,123.0,45.0,1
16.0,-151.0,-184.0,418.0,134.0,27.0,1
9.0,-155.0,-178.0,424.0,161.0,17.0,1
8.0,-156.0,-176.0,417.0,160.0,4.0,1
6.0,-152.0,-176.0,395.0,167.0,0.0,1
10.0,-155.0,-168.0,364.0,173.0,0.0,1
15.0,-158.0,-166.0,328.0,184.0,3.0,1
4.0,-158.0,-163.0,295.0,187.0,10.0,1
10.0,-161.0,-169.0,262.0,183.0,19.0,1
9.0,-166.0,-166.0,240.0,192.0,26.0,1
12.0,-164.0,-166.0,229.0,205.0,29.0,1
11.0,-168.0,-166.0,233.0,221.0,25.0,1
17.0,-168.0,-170.0,245.0,237.0,18.0,1
22.0,-171.0,-168.0,256.0,256.0,11.0,1
10.0,-170.0,-173.0,267.0,279.0,5.0,1
9.0,-173.0,-175.0,275.0,284.0,-1.0,1
4.0,-171.0,-176.0,279.0,298.0,-5.0,1
3.0,-179.0,-179.0,277.0,312.0,-10.0,1
1.0,-178.0,-179.0,275.0,324.0,-14.0,1
4.0,-179.0,-179.0,274.0,336.0,-18.0,1
2.0,-182.0,-175.0,270.0,353.0,-22.0,1
0.0,-186.0,-179.0,258.0,344.0,-24.0,1
-2.0,-188.0,-173.0,240.0,336.0,-25.0,1
-3.0,-187.0,-177.0,221.0,333.0,-22.0,1
-5.0,-188.0,-181.0,205.0,324.0,-12.0,1
-7.0,-192.0,-174.0,191.0,318.0,2.0,1
-12.0,-193.0,-177.0,169.0,280.0,22.0,1
-6.0,-197.0,-170.0,148.0,246.0,43.0,1
-18.0,-201.0,-168.0,134.0,225.0,69.0,1
-18.0,-202.0,-168.0,124.0,168.0,98.0,1
-12.0,-203.0,-163.0,118.0,132.0,125.0,1
-23.0,-199.0,-162.0,114.0,111.0,143.0,1
-9.0,-198.0,-160.0,108.0,71.0,162.0,1
-7.0,-198.0,-155.0,107.0,56.0,183.0,1
-9.0,-193.0,-161.0,117.0,37.0,203.0,1
3.0,-192.0,-163.0,126.0,-6.0,216.0,1
-1.0,-191.0,-150.0,141.0,-11.0,225.0,1
-2.0,-193.0,-146.0,170.0,-44.0,231.0,1
1.0,-189.0,-147.0,222.0,-58.0,235.0,1
-8.0,-190.0,-145.0,262.0,-65.0,229.0,1
0.0,-193.0,-139.0,298.0,-72.0,225.0,1
-8.0,-192.0,-138.0,331.0,-51.0,228.0,1
-6.0,-189.0,-137.0,352.0,-69.0,224.0,1
-2.0,-193.0,-144.0,358.0,-75.0,216.0,1
20.0,-193.0,-133.0,351.0,-65.0,212.0,1
2.0,-193.0,-141.0,337.0,-52.0,210.0,1
21.0,-195.0,-133.0,317.0,-64.0,197.0,1
-1.0,-191.0,-147.0,290.0,-53.0,188.0,1
15.0,-198.0,-145.0,267.0,-86.0,166.0,1
20.0,-205.0,-137.0,250.0,-71.0,163.0,1
30.0,-203.0,-136.0,243.0,-78.0,151.0,1
9.0,-200.0,-142.0,247.0,-85.0,139.0,1
16.0,-199.0,-145.0,258.0,-136.0,109.0,1
30.0,-201.0,-140.0,273.0,-160.0,90.0,1
34.0,-204.0,-139.0,292.0,-175.0,70.0,1
40.0,-201.0,-137.0,311.0,-187.0,45.0,1
37.0,-200.0,-138.0,335.0,-196.0,19.0,1
37.0,-200.0,-144.0,366.0,-204.0,-8.0,1
36.0,-196.0,-143.0,398.0,-211.0,-29.0,1
36.0,-193.0,-146.0,425.0,-215.0,-47.0,1
37.0,-198.0,-141.0,448.0,-217.0,-62.0,1
32.0,-197.0,-137.0,465.0,-214.0,-75.0,1
36.0,-203.0,-139.0,475.0,-210.0,-85.0,1
31.0,-203.0,-145.0,482.0,-206.0,-97.0,1
27.0,-199.0,-142.0,484.0,-198.0,-107.0,1
24.0,-198.0,-139.0,485.0,-189.0,-115.0,1
26.0,-200.0,-144.0,485.0,-178.0,-124.0,1
20.0,-202.0,-146.0,489.0,-166.0,-132.0,1
20.0,-203.0,-147.0,494.0,-155.0,-145.0,1
18.0,-205.0,-143.0,504.0,-150.0,-162.0,1
15.0,-205.0,-148.0,515.0,-145.0,-180.0,1
13.0,-204.0,-147.0,528.0,-144.0,-200.0,1
9.0,-201.0,-146.0,538.0,-147.0,-217.0,1
8.0,-201.0,-150.0,543.0,-150.0,-231.0,1
5.0,-196.0,-147.0,546.0,-157.0,-245.0,1
6.0,-200.0,-148.0,542.0,-158.0,-259.0,1
7.0,-207.0,-152.0,533.0,-157.0,-269.0,1
6.0,-202.0,-152.0,520.0,-153.0,-277.0,1
4.0,-200.0,-148.0,511.0,-146.0,-285.0,1
7.0,-202.0,-150.0,489.0,-133.0,-290.0,1
3.0,-204.0,-147.0,473.0,-116.0,-288.0,1
3.0,-204.0,-151.0,467.0,-95.0,-287.0,1
5.0,-208.0,-154.0,463.0,-74.0,-283.0,1
3.0,-209.0,-153.0,460.0,-51.0,-277.0,1
4.0,-201.0,-152.0,458.0,-27.0,-267.0,1
7.0,-203.0,-151.0,454.0,-7.0,-256.0,1
7.0,-202.0,-153.0,451.0,11.0,-248.0,1
3.0,-196.0,-149.0,445.0,24.0,-234.0,1
4.0,-197.0,-152.0,436.0,37.0,-223.0,1
5.0,-198.0,-151.0,421.0,44.0,-211.0,1
4.0,-198.0,-153.0,404.0,52.0,-199.0,1
1.0,-197.0,-149.0,385.0,59.0,-189.0,1
1.0,-197.0,-151.0,365.0,65.0,-175.0,1
0.0,-194.0,-149.0,351.0,65.0,-163.0,1
-1.0,-196.0,-150.0,340.0,63.0,-149.0,1
-6.0,-196.0,-152.0,332.0,62.0,-135.0,1
-6.0,-194.0,-144.0,329.0,56.0,-119.0,1
-5.0,-196.0,-143.0,333.0,52.0,-100.0,1
-9.0,-190.0,-152.0,339.0,43.0,-83.0,1
-9.0,-193.0,-143.0,343.0,32.0,-64.0,1
-8.0,-194.0,-148.0,349.0,20.0,-46.0,1
-8.0,-193.0,-146.0,348.0,8.0,-31.0,1
-7.0,-193.0,-147.0,341.0,-4.0,-18.0,1
-4.0,-194.0,-145.0,333.0,-14.0,-9.0,1
-2.0,-195.0,-146.0,324.0,-25.0,0.0,1
-1.0,-195.0,-149.0,310.0,-35.0,9.0,1
-2.0,-194.0,-148.0,294.0,-41.0,14.0,1
-2.0,-194.0,-147.0,277.0,-44.0,17.0,1
0.0,-198.0,-147.0,260.0,-48.0,23.0,1
-5.0,-200.0,-148.0,242.0,-50.0,25.0,1
-2.0,-195.0,-149.0,226.0,-47.0,26.0,1
3.0,-197.0,-145.0,209.0,-42.0,27.0,1
3.0,-201.0,-145.0,189.0,-37.0,23.0,1
1.0,-201.0,-147.0,168.0,-25.0,20.0,1
3.0,-199.0,-149.0,149.0,-14.0,17.0,1
3.0,-201.0,-147.0,132.0,-2.0,12.0,1
2.0,-202.0,-146.0,120.0,13.0,7.0,1
8.0,-203.0,-147.0,107.0,26.0,1.0,1
8.0,-201.0,-143.0,96.0,38.0,-3.0,1
10.0,-208.0,-145.0,90.0,51.0,-6.0,1
6.0,-208.0,-140.0,86.0,62.0,-8.0,1
10.0,-203.0,-143.0,85.0,68.0,-14.0,1
12.0,-208.0,-143.0,86.0,72.0,-17.0,1
11.0,-206.0,-135.0,88.0,76.0,-20.0,1
13.0,-208.0,-136.0,89.0,76.0,-24.0,1
11.0,-204.0,-138.0,88.0,73.0,-26.0,1
12.0,-209.0,-133.0,85.0,68.0,-30.0,1
11.0,-206.0,-135.0,81.0,63.0,-33.0,1
9.0,-204.0,-134.0,76.0,58.0,-37.0,1
15.0,-205.0,-136.0,74.0,54.0,-40.0,1
17.0,-208.0,-134.0,68.0,49.0,-41.0,1
13.0,-207.0,-139.0,65.0,45.0,-41.0,1
13.0,-204.0,-133.0,62.0,41.0,-44.0,1
12.0,-204.0,-130.0,60.0,36.0,-46.0,1
12.0,-206.0,-131.0,58.0,31.0,-46.0,1
10.0,-205.0,-131.0,57.0,26.0,-49.0,1
10.0,-210.0,-133.0,58.0,21.0,-51.0,1
8.0,-207.0,-131.0,57.0,14.0,-53.0,1
6.0,-209.0,-132.0,59.0,7.0,-55.0,1
6.0,-208.0,-131.0,60.0,0.0,-61.0,1
2.0,-207.0,-126.0,62.0,-8.0,-65.0,1
6.0,-210.0,-130.0,60.0,-16.0,-71.0,1
5.0,-212.0,-130.0,58.0,-24.0,-76.0,1
6.0,-209.0,-127.0,56.0,-32.0,-79.0,1
2.0,-208.0,-127.0,51.0,-40.0,-84.0,1
2.0,-209.0,-125.0,47.0,-51.0,-88.0,1
0.0,-210.0,-128.0,44.0,-61.0,-91.0,1
0.0,-210.0,-129.0,40.0,-69.0,-95.0,1
1.0,-209.0,-129.0,38.0,-77.0,-97.0,1
0.0,-213.0,-129.0,37.0,-82.0,-97.0,1
0.0,-210.0,-127.0,37.0,-85.0,-97.0,1
4.0,-211.0,-126.0,40.0,-87.0,-98.0,1
4.0,-211.0,-131.0,42.0,-90.0,-98.0,1
5.0,-207.0,-128.0,45.0,-86.0,-96.0,1
11.0,-213.0,-130.0,48.0,-84.0,-94.0,1
11.0,-210.0,-132.0,51.0,-79.0,-92.0,1
14.0,-211.0,-131.0,49.0,-73.0,-91.0,1
14.0,-212.0,-133.0,43.0,-62.0,-89.0,1
14.0,-212.0,-131.0,31.0,-51.0,-87.0,1
16.0,-209.0,-130.0,17.0,-40.0,-89.0,1
19.0,-209.0,-129.0,5.0,-28.0,-90.0,1
16.0,-209.0,-128.0,-3.0,-15.0,-89.0,1
16.0,-209.0,-131.0,-3.0,-5.0,-85.0,1
19.0,-212.0,-128.0,5.0,3.0,-84.0,1
19.0,-208.0,-131.0,18.0,11.0,-79.0,1
20.0,-208.0,-132.0,35.0,18.0,-73.0,1
18.0,-205.0,-127.0,51.0,24.0,-63.0,1
19.0,-207.0,-129.0,64.0,28.0,-52.0,1
18.0,-204.0,-131.0,68.0,27.0,-40.0,1
23.0,-202.0,-130.0,63.0,27.0,-33.0,1
16.0,-202.0,-130.0,50.0,25.0,-24.0,1
18.0,-206.0,-130.0,31.0,24.0,-19.0,1
16.0,-201.0,-130.0,12.0,23.0,-12.0,1
21.0,-203.0,-129.0,-5.0,17.0,-9.0,1
18.0,-208.0,-136.0,-16.0,16.0,-4.0,1
18.0,-207.0,-131.0,-21.0,15.0,-1.0,1
16.0,-208.0,-137.0,-21.0,14.0,2.0,1
18.0,-206.0,-137.0,-16.0,17.0,5.0,1
20.0,-207.0,-141.0,-8.0,18.0,9.0,1
19.0,-208.0,-139.0,2.0,21.0,12.0,1
20.0,-205.0,-138.0,7.0,24.0,16.0,1
19.0,-206.0,-136.0,11.0,30.0,19.0,1
20.0,-206.0,-140.0,13.0,34.0,20.0,1
17.0,-207.0,-141.0,12.0,38.0,19.0,1
19.0,-210.0,-142.0,8.0,42.0,15.0,1
17.0,-208.0,-136.0,6.0,43.0,13.0,1
18.0,-207.0,-139.0,4.0,43.0,10.0,1
15.0,-208.0,-141.0,2.0,43.0,6.0,1
14.0,-206.0,-136.0,-3.0,43.0,2.0,1
18.0,-207.0,-137.0,-7.0,43.0,-2.0,1
16.0,-208.0,-137.0,-11.0,43.0,-4.0,1
14.0,-207.0,-134.0,-16.0,42.0,-7.0,1
15.0,-206.0,-134.0,-19.0,40.0,-9.0,1
15.0,-205.0,-138.0,-22.0,39.0,-12.0,1
15.0,-206.0,-136.0,-22.0,37.0,-15.0,1
12.0,-202.0,-134.0,-22.0,35.0,-18.0,1
18.0,-204.0,-137.0,-19.0,32.0,-17.0,1
14.0,-204.0,-135.0,-16.0,27.0,-18.0,1
12.0,-200.0,-135.0,-13.0,24.0,-22.0,1
16.0,-202.0,-133.0,-12.0,18.0,-23.0,1
13.0,-204.0,-134.0,-12.0,16.0,-24.0,1
13.0,-203.0,-137.0,-12.0,10.0,-27.0,1
10.0,-203.0,-139.0,-15.0,5.0,-27.0,1
11.0,-201.0,-138.0,-17.0,1.0,-29.0,1
8.0,-199.0,-137.0,-20.0,-3.0,-29.0,1
8.0,-200.0,-138.0,-23.0,-7.0,-30.0,1
10.0,-202.0,-138.0,-27.0,-10.0,-30.0,1
10.0,-204.0,-137.0,-28.0,-12.0,-31.0,1
11.0,-205.0,-141.0,-28.0,-14.0,-32.0,1
8.0,-203.0,-142.0,-26.0,-16.0,-32.0,1
12.0,-205.0,-139.0,-24.0,-18.0,-34.0,1
10.0,-209.0,-137.0,-17.0,-20.0,-33.0,1
6.0,-206.0,-139.0,-11.0,-21.0,-35.0,1
12.0,-209.0,-141.0,-4.0,-24.0,-35.0,1
11.0,-207.0,-138.0,5.0,-24.0,-36.0,1
13.0,-208.0,-138.0,15.0,-25.0,-35.0,1
9.0,-204.0,-141.0,25.0,-27.0,-34.0,1
9.0,-205.0,-141.0,31.0,-28.0,-31.0,1
8.0,-204.0,-138.0,35.0,-29.0,-30.0,1
10.0,-204.0,-137.0,36.0,-28.0,-29.0,1
11.0,-205.0,-138.0,33.0,-28.0,-28.0,1
13.0,-208.0,-136.0,31.0,-29.0,-27.0,1
13.0,-206.0,-137.0,31.0,-28.0,-26.0,1
12.0,-209.0,-138.0,29.0,-26.0,-24.0,1
13.0,-206.0,-136.0,30.0,-26.0,-23.0,1
15.0,-210.0,-137.0,31.0,-24.0,-21.0,1
13.0,-211.0,-134.0,35.0,-23.0,-18.0,1
10.0,-206.0,-133.0,38.0,-21.0,-15.0,1
11.0,-206.0,-137.0,43.0,-20.0,-15.0,1
15.0,-213.0,-134.0,46.0,-20.0,-12.0,1
9.0,-206.0,-139.0,46.0,-16.0,-8.0,1
8.0,-209.0,-133.0,48.0,-14.0,-6.0,1
14.0,-212.0,-139.0,49.0,-12.0,-5.0,1
12.0,-213.0,-136.0,53.0,-11.0,-5.0,1
6.0,-212.0,-139.0,57.0,-12.0,-5.0,1
13.0,-215.0,-140.0,60.0,-13.0,-6.0,1
9.0,-206.0,-142.0,65.0,-13.0,-6.0,1
14.0,-201.0,-144.0,70.0,-13.0,-5.0,1
12.0,-214.0,-137.0,72.0,-13.0,-5.0,1
15.0,-204.0,-135.0,74.0,-13.0,-3.0,1
10.0,-206.0,-140.0,74.0,-12.0,-3.0,1
14.0,-206.0,-133.0,77.0,-11.0,-1.0,1
16.0,-208.0,-139.0,81.0,-10.0,-1.0,1
4.0,-207.0,-139.0,85.0,-8.0,-2.0,1
21.0,-204.0,-133.0,86.0,-6.0,-1.0,1
13.0,-203.0,-131.0,84.0,-3.0,2.0,1
2.0,-206.0,-136.0,82.0,-4.0,2.0,1
5.0,-206.0,-139.0,77.0,-6.0,3.0,1
8.0,-201.0,-136.0,72.0,-6.0,2.0,1
4.0,-200.0,-133.0,69.0,-7.0,1.0,1
12.0,-206.0,-132.0,64.0,-8.0,1.0,1
6.0,-195.0,-143.0,63.0,-10.0,3.0,1
11.0,-201.0,-146.0,61.0,-13.0,1.0,1
4.0,-206.0,-143.0,60.0,-17.0,-1.0,1
2.0,-203.0,-137.0,58.0,-20.0,-3.0,1
6.0,-201.0,-144.0,57.0,-24.0,-4.0,1
7.0,-207.0,-133.0,58.0,-28.0,-4.0,1
12.0,-207.0,-137.0,60.0,-31.0,-4.0,1
7.0,-199.0,-135.0,65.0,-34.0,-7.0,1
10.0,-204.0,-138.0,70.0,-36.0,-6.0,1
9.0,-201.0,-139.0,75.0,-37.0,-6.0,1
13.0,-207.0,-135.0,75.0,-38.0,-5.0,1
13.0,-206.0,-138.0,74.0,-39.0,-4.0,1
9.0,-205.0,-141.0,71.0,-39.0,-3.0,1
8.0,-202.0,-139.0,68.0,-36.0,-1.0,1
10.0,-200.0,-136.0,68.0,-36.0,0.0,1
14.0,-204.0,-137.0,67.0,-34.0,4.0,1
11.0,-205.0,-139.0,67.0,-33.0,6.0,1
15.0,-202.0,-140.0,66.0,-31.0,6.0,1
15.0,-208.0,-139.0,64.0,-28.0,12.0,1
16.0,-206.0,-139.0,64.0,-27.0,12.0,1
22.0,-208.0,-133.0,64.0,-25.0,13.0,1
14.0,-207.0,-137.0,66.0,-25.0,14.0,1
10.0,-202.0,-139.0,65.0,-23.0,16.0,1
12.0,-202.0,-143.0,64.0,-20.0,17.0,1
9.0,-203.0,-136.0,62.0,-20.0,17.0,1
10.0,-202.0,-141.0,61.0,-19.0,18.0,1
14.0,-206.0,-130.0,62.0,-17.0,17.0,1
11.0,-202.0,-135.0,62.0,-17.0,18.0,1
13.0,-204.0,-139.0,60.0,-17.0,18.0,1
12.0,-204.0,-137.0,57.0,-15.0,17.0,1
14.0,-204.0,-136.0,53.0,-16.0,18.0,1
14.0,-206.0,-138.0,47.0,-17.0,20.0,1
13.0,-206.0,-133.0,44.0,-16.0,19.0,1
13.0,-207.0,-137.0,43.0,-17.0,20.0,1
12.0,-207.0,-134.0,44.0,-16.0,22.0,1
13.0,-205.0,-138.0,46.0,-16.0,24.0,1
13.0,-204.0,-139.0,49.0,-15.0,24.0,1
12.0,-206.0,-136.0,50.0,-15.0,25.0,1
10.0,-205.0,-135.0,52.0,-14.0,23.0,1
10.0,-202.0,-132.0,52.0,-11.0,23.0,1
15.0,-208.0,-132.0,54.0,-7.0,22.0,1
11.0,-206.0,-135.0,54.0,-7.0,23.0,1
13.0,-203.0,-138.0,53.0,-5.0,21.0,1
8.0,-204.0,-137.0,51.0,-3.0,22.0,1
8.0,-204.0,-134.0,49.0,-3.0,20.0,1
10.0,-205.0,-139.0,49.0,-4.0,20.0,1
9.0,-205.0,-133.0,49.0,-5.0,19.0,1
9.0,-206.0,-139.0,50.0,-5.0,18.0,1
10.0,-204.0,-137.0,51.0,-4.0,18.0,1
9.0,-205.0,-136.0,51.0,-5.0,20.0,1
8.0,-206.0,-140.0,50.0,-6.0,19.0,1
8.0,-205.0,-137.0,48.0,-7.0,19.0,1
6.0,-208.0,-135.0,46.0,-6.0,17.0,1
7.0,-202.0,-136.0,45.0,-3.0,18.0,1
9.0,-209.0,-138.0,44.0,-1.0,15.0,1
7.0,-206.0,-137.0,43.0,-1.0,17.0,1
5.0,-207.0,-134.0,45.0,-1.0,19.0,1
5.0,-206.0,-140.0,46.0,1.0,20.0,1
3.0,-206.0,-134.0,48.0,1.0,21.0,1
7.0,-208.0,-136.0,49.0,3.0,21.0,1
5.0,-207.0,-134.0,53.0,3.0,20.0,1
5.0,-208.0,-137.0,53.0,2.0,22.0,1
5.0,-209.0,-136.0,53.0,3.0,20.0,1
3.0,-205.0,-139.0,55.0,3.0,20.0,1
6.0,-205.0,-142.0,55.0,5.0,20.0,1
3.0,-206.0,-138.0,55.0,6.0,17.0,1
5.0,-203.0,-141.0,54.0,5.0,16.0,1
3.0,-206.0,-135.0,54.0,4.0,14.0,1
5.0,-207.0,-139.0,53.0,6.0,11.0,1
5.0,-209.0,-135.0,53.0,6.0,10.0,1
4.0,-206.0,-138.0,52.0,5.0,9.0,1
4.0,-206.0,-138.0,51.0,5.0,8.0,1
5.0,-211.0,-136.0,51.0,4.0,7.0,1
1.0,-204.0,-138.0,53.0,5.0,9.0,1
3.0,-206.0,-133.0,55.0,6.0,12.0,1
3.0,-208.0,-141.0,54.0,7.0,12.0,1
-1.0,-209.0,-135.0,56.0,7.0,14.0,1
3.0,-208.0,-134.0,57.0,7.0,16.0,1
2.0,-204.0,-137.0,59.0,7.0,16.0,1
4.0,-207.0,-139.0,60.0,8.0,18.0,1
3.0,-208.0,-136.0,61.0,6.0,17.0,1
4.0,-207.0,-134.0,62.0,7.0,16.0,1
4.0,-204.0,-139.0,62.0,6.0,14.0,1
5.0,-206.0,-138.0,62.0,5.0,15.0,1
4.0,-207.0,-136.0,59.0,6.0,14.0,1
2.0,-203.0,-139.0,58.0,5.0,13.0,1
5.0,-206.0,-134.0,58.0,5.0,14.0,1
4.0,-210.0,-144.0,58.0,5.0,14.0,1
3.0,-209.0,-136.0,56.0,5.0,14.0,1
3.0,-203.0,-140.0,56.0,5.0,14.0,1
7.0,-209.0,-137.0,57.0,6.0,13.0,1
5.0,-205.0,-135.0,57.0,5.0,12.0,1
6.0,-205.0,-134.0,61.0,4.0,11.0,1
5.0,-207.0,-136.0,63.0,3.0,10.0,1
4.0,-205.0,-139.0,65.0,4.0,8.0,1
4.0,-206.0,-139.0,67.0,2.0,5.0,1
5.0,-210.0,-136.0,69.0,2.0,4.0,1
7.0,-210.0,-137.0,72.0,1.0,2.0,1
4.0,-197.0,-136.0,70.0,0.0,0.0,1
3.0,-207.0,-135.0,69.0,0.0,-1.0,1
1.0,-206.0,-133.0,67.0,0.0,-1.0,1
2.0,-207.0,-134.0,66.0,-1.0,-2.0,1
4.0,-204.0,-136.0,65.0,-1.0,-3.0,1
3.0,-204.0,-136.0,66.0,0.0,-2.0,1
6.0,-204.0,-136.0,64.0,0.0,-1.0,1
5.0,-206.0,-140.0,64.0,1.0,-2.0,1
5.0,-208.0,-137.0,65.0,2.0,-3.0,1
5.0,-207.0,-136.0,62.0,3.0,-4.0,1
5.0,-208.0,-137.0,63.0,4.0,-6.0,1
3.0,-205.0,-132.0,65.0,5.0,-6.0,1
7.0,-209.0,-136.0,66.0,7.0,-6.0,1
7.0,-208.0,-135.0,68.0,7.0,-8.0,1
3.0,-206.0,-137.0,70.0,7.0,-9.0,1
5.0,-208.0,-134.0,69.0,6.0,-8.0,1
4.0,-207.0,-136.0,70.0,7.0,-8.0,1
5.0,-210.0,-139.0,69.0,6.0,-9.0,1
2.0,-208.0,-137.0,69.0,5.0,-8.0,1
4.0,-208.0,-139.0,69.0,4.0,-10.0,1
2.0,-208.0,-136.0,67.0,3.0,-8.0,1
3.0,-206.0,-137.0,65.0,3.0,-7.0,1
2.0,-208.0,-136.0,64.0,0.0,-9.0,1
7.0,-208.0,-139.0,65.0,0.0,-7.0,1
4.0,-206.0,-136.0,64.0,1.0,-7.0,1
3.0,-205.0,-139.0,66.0,1.0,-10.0,1
4.0,-206.0,-138.0,68.0,2.0,-10.0,1
4.0,-206.0,-137.0,70.0,2.0,-9.0,1
2.0,-206.0,-136.0,71.0,2.0,-8.0,1
6.0,-204.0,-135.0,70.0,2.0,-9.0,1
3.0,-208.0,-137.0,70.0,2.0,-9.0,1
5.0,-204.0,-136.0,69.0,1.0,-9.0,1
2.0,-204.0,-143.0,66.0,-1.0,-8.0,1
6.0,-205.0,-136.0,63.0,-2.0,-10.0,1
4.0,-207.0,-134.0,63.0,-1.0,-11.0,1
4.0,-205.0,-136.0,64.0,-3.0,-10.0,1
4.0,-202.0,-134.0,65.0,-3.0,-11.0,1
6.0,-208.0,-134.0,67.0,-3.0,-13.0,1
6.0,-206.0,-136.0,68.0,-1.0,-13.0,1
3.0,-205.0,-137.0,69.0,0.0,-13.0,1
6.0,-206.0,-135.0,69.0,0.0,-13.0,1
5.0,-207.0,-137.0,69.0,0.0,-13.0,1
5.0,-205.0,-137.0,69.0,-2.0,-13.0,1
6.0,-208.0,-136.0,67.0,-2.0,-14.0,1
5.0,-205.0,-135.0,65.0,-3.0,-15.0,1
4.0,-208.0,-135.0,64.0,-2.0,-15.0,1
6.0,-207.0,-134.0,63.0,-3.0,-12.0,1
5.0,-204.0,-137.0,63.0,-4.0,-10.0,1
6.0,-208.0,-136.0,64.0,-6.0,-10.0,1
5.0,-205.0,-135.0,65.0,-6.0,-10.0,1
9.0,-207.0,-132.0,65.0,-7.0,-12.0,1
7.0,-209.0,-135.0,65.0,-6.0,-9.0,1
6.0,-209.0,-133.0,66.0,-7.0,-11.0,1
7.0,-208.0,-135.0,65.0,-7.0,-10.0,1
3.0,-203.0,-136.0,66.0,-6.0,-10.0,1
6.0,-210.0,-135.0,66.0,-6.0,-8.0,1
7.0,-209.0,-136.0,67.0,-5.0,-9.0,1
8.0,-212.0,-136.0,65.0,-4.0,-9.0,1
8.0,-206.0,-138.0,64.0,-3.0,-9.0,1
7.0,-207.0,-135.0,64.0,-1.0,-7.0,1
7.0,-209.0,-132.0,64.0,-2.0,-6.0,1
5.0,-203.0,-135.0,65.0,-2.0,-4.0,1
6.0,-209.0,-135.0,67.0,0.0,-3.0,1
6.0,-208.0,-134.0,67.0,1.0,-1.0,1
9.0,-207.0,-135.0,68.0,0.0,0.0,1
2.0,-205.0,-134.0,70.0,1.0,0.0,1
7.0,-207.0,-134.0,69.0,0.0,0.0,1
7.0,-205.0,-133.0,69.0,-1.0,-1.0,1
6.0,-208.0,-136.0,66.0,-4.0,-3.0,1
8.0,-208.0,-137.0,66.0,-6.0,-2.0,1
5.0,-206.0,-135.0,64.0,-5.0,-3.0,1
4.0,-208.0,-138.0,62.0,-6.0,-2.0,1
6.0,-205.0,-135.0,60.0,-6.0,-2.0,1
7.0,-208.0,-135.0,59.0,-5.0,0.0,1
6.0,-204.0,-138.0,59.0,-4.0,0.0,1
5.0,-208.0,-133.0,59.0,-5.0,3.0,1
6.0,-207.0,-138.0,62.0,-4.0,4.0,1
6.0,-207.0,-131.0,63.0,-3.0,3.0,1
6.0,-206.0,-135.0,64.0,-3.0,5.0,1
6.0,-209.0,-135.0,63.0,-5.0,5.0,1
5.0,-206.0,-133.0,62.0,-6.0,7.0,1
3.0,-207.0,-137.0,62.0,-5.0,8.0,1
6.0,-207.0,-136.0,62.0,-4.0,8.0,1
4.0,-205.0,-136.0,63.0,-4.0,7.0,1
5.0,-204.0,-135.0,62.0,-5.0,7.0,1
3.0,-209.0,-132.0,61.0,-6.0,8.0,1
6.0,-207.0,-138.0,59.0,-7.0,8.0,1
4.0,-205.0,-139.0,56.0,-7.0,7.0,1
7.0,-207.0,-133.0,54.0,-7.0,6.0,1
4.0,-205.0,-137.0,55.0,-6.0,7.0,1
4.0,-205.0,-135.0,56.0,-6.0,6.0,1
7.0,-209.0,-137.0,55.0,-5.0,7.0,1
3.0,-205.0,-135.0,56.0,-4.0,7.0,1
3.0,-204.0,-135.0,57.0,-2.0,8.0,1
4.0,-206.0,-134.0,59.0,-2.0,8.0,1
7.0,-203.0,-136.0,59.0,-3.0,11.0,1
7.0,-212.0,-136.0,59.0,-3.0,11.0,1
3.0,-208.0,-135.0,58.0,-2.0,11.0,1
1.0,-207.0,-127.0,55.0,-1.0,12.0,1
2.0,-209.0,-138.0,54.0,-1.0,14.0,1
4.0,-206.0,-137.0,52.0,-2.0,13.0,1
2.0,-207.0,-136.0,53.0,-3.0,13.0,1
1.0,-206.0,-139.0,53.0,-3.0,13.0,1
4.0,-207.0,-136.0,56.0,-2.0,11.0,1
4.0,-207.0,-134.0,57.0,-2.0,11.0,1
3.0,-204.0,-136.0,60.0,-1.0,11.0,1
5.0,-207.0,-136.0,62.0,0.0,9.0,1
2.0,-204.0,-136.0,63.0,2.0,9.0,1
6.0,-208.0,-133.0,65.0,1.0,8.0,1
5.0,-202.0,-140.0,66.0,1.0,5.0,1
3.0,-205.0,-137.0,66.0,1.0,4.0,1
4.0,-205.0,-135.0,68.0,-1.0,6.0,1
3.0,-206.0,-138.0,67.0,-3.0,6.0,1
4.0,-207.0,-134.0,67.0,-5.0,8.0,1
3.0,-207.0,-136.0,66.0,-6.0,10.0,1
4.0,-206.0,-135.0,63.0,-7.0,13.0,1
1.0,-204.0,-131.0,62.0,-8.0,16.0,1
2.0,-209.0,-134.0,61.0,-8.0,18.0,1
3.0,-207.0,-138.0,59.0,-7.0,21.0,1
1.0,-206.0,-136.0,58.0,-9.0,21.0,1
3.0,-206.0,-135.0,58.0,-9.0,22.0,1
2.0,-208.0,-134.0,59.0,-8.0,24.0,1
2.0,-206.0,-135.0,60.0,-8.0,24.0,1
2.0,-204.0,-136.0,60.0,-7.0,26.0,1
1.0,-207.0,-135.0,60.0,-8.0,27.0,1
1.0,-205.0,-137.0,58.0,-7.0,25.0,1
2.0,-206.0,-136.0,57.0,-6.0,25.0,1
4.0,-206.0,-131.0,56.0,-4.0,26.0,1
6.0,-210.0,-134.0,55.0,-5.0,25.0,1
4.0,-206.0,-136.0,55.0,-6.0,25.0,1
2.0,-199.0,-141.0,56.0,-6.0,25.0,1
3.0,-206.0,-138.0,55.0,-6.0,25.0,1
0.0,-203.0,-136.0,54.0,-7.0,23.0,1
1.0,-206.0,-135.0,53.0,-9.0,25.0,1
3.0,-205.0,-133.0,51.0,-9.0,24.0,1
2.0,-205.0,-132.0,50.0,-11.0,25.0,1
2.0,-206.0,-136.0,49.0,-12.0,23.0,1
2.0,-208.0,-136.0,48.0,-12.0,20.0,1
3.0,-208.0,-131.0,50.0,-13.0,18.0,1
4.0,-204.0,-137.0,51.0,-15.0,17.0,1
2.0,-203.0,-133.0,50.0,-14.0,17.0,1
5.0,-207.0,-136.0,50.0,-13.0,17.0,1
4.0,-208.0,-137.0,49.0,-11.0,18.0,1
3.0,-209.0,-136.0,49.0,-10.0,18.0,1
4.0,-209.0,-130.0,49.0,-9.0,19.0,1
0.0,-207.0,-133.0,51.0,-8.0,21.0,1
1.0,-209.0,-136.0,50.0,-6.0,21.0,1
0.0,-207.0,-134.0,50.0,-5.0,23.0,1
0.0,-205.0,-132.0,50.0,-3.0,24.0,1
1.0,-206.0,-135.0,49.0,-3.0,25.0,1
2.0,-211.0,-135.0,48.0,-1.0,25.0,1
1.0,-206.0,-134.0,48.0,0.0,26.0,1
0.0,-210.0,-133.0,48.0,1.0,27.0,1
0.0,-205.0,-135.0,47.0,-1.0,25.0,1
1.0,-210.0,-133.0,47.0,0.0,25.0,1
0.0,-207.0,-133.0,47.0,-1.0,27.0,1
1.0,-207.0,-135.0,46.0,-1.0,29.0,1
0.0,-206.0,-132.0,46.0,-1.0,30.0,1
0.0,-205.0,-136.0,46.0,-3.0,30.0,1
1.0,-207.0,-132.0,45.0,-6.0,31.0,1
1.0,-205.0,-132.0,45.0,-6.0,32.0,1
0.0,-204.0,-134.0,43.0,-8.0,32.0,1
2.0,-209.0,-136.0,41.0,-13.0,30.0,1
-1.0,-211.0,-136.0,41.0,-12.0,29.0,1
3.0,-208.0,-136.0,38.0,-13.0,30.0,1
1.0,-206.0,-139.0,38.0,-14.0,26.0,1
0.0,-206.0,-134.0,39.0,-15.0,25.0,1
0.0,-206.0,-135.0,42.0,-12.0,26.0,1
0.0,-208.0,-133.0,46.0,-10.0,27.0,1
1.0,-209.0,-135.0,46.0,-10.0,25.0,1
1.0,-208.0,-134.0,48.0,-7.0,24.0,1
0.0,-208.0,-133.0,49.0,-5.0,24.0,1
0.0,-209.0,-139.0,50.0,-5.0,22.0,1
1.0,-209.0,-135.0,51.0,-3.0,23.0,1
1.0,-210.0,-133.0,52.0,-3.0,25.0,1
0.0,-206.0,-134.0,53.0,-2.0,25.0,1
1.0,-210.0,-138.0,54.0,-2.0,24.0,1
-2.0,-207.0,-135.0,56.0,-2.0,25.0,1
0.0,-207.0,-134.0,60.0,-1.0,22.0,1
-1.0,-207.0,-136.0,60.0,-1.0,24.0,1
0.0,-204.0,-136.0,60.0,-2.0,24.0,1
-2.0,-204.0,-134.0,60.0,-2.0,24.0,1
0.0,-206.0,-131.0,58.0,-2.0,23.0,1
0.0,-209.0,-139.0,56.0,-1.0,24.0,1
0.0,-208.0,-133.0,55.0,-3.0,23.0,1
0.0,-208.0,-129.0,53.0,-3.0,22.0,1
-1.0,-207.0,-134.0,52.0,-2.0,23.0,1
0.0,-207.0,-136.0,52.0,-1.0,24.0,1
-1.0,-207.0,-133.0,52.0,-2.0,23.0,1
0.0,-208.0,-130.0,53.0,-2.0,23.0,1
0.0,-209.0,-134.0,54.0,-2.0,23.0,1
-1.0,-208.0,-133.0,56.0,-3.0,26.0,1
-2.0,-209.0,-136.0,58.0,-4.0,26.0,1
0.0,-204.0,-138.0,60.0,-6.0,24.0,1
1.0,-208.0,-135.0,63.0,-7.0,22.0,1
-1.0,-205.0,-137.0,64.0,-7.0,23.0,1
-2.0,-210.0,-132.0,63.0,-8.0,23.0,1
0.0,-208.0,-137.0,64.0,-6.0,21.0,1
0.0,-209.0,-138.0,64.0,-7.0,25.0,1
1.0,-208.0,-135.0,61.0,-7.0,25.0,1
0.0,-207.0,-135.0,60.0,-6.0,24.0,1
0.0,-206.0,-133.0,58.0,-5.0,23.0,1
0.0,-206.0,-136.0,60.0,-6.0,24.0,1
-1.0,-210.0,-135.0,59.0,-6.0,23.0,1
0.0,-206.0,-136.0,60.0,-6.0,25.0,1
-2.0,-207.0,-132.0,62.0,-6.0,22.0,1
-1.0,-209.0,-136.0,62.0,-5.0,22.0,1
5.0,-205.0,-140.0,62.0,-5.0,22.0,1
-1.0,-207.0,-135.0,60.0,-6.0,21.0,1
0.0,-206.0,-137.0,59.0,-5.0,20.0,1
-2.0,-207.0,-134.0,61.0,-6.0,17.0,1
-2.0,-208.0,-135.0,61.0,-5.0,18.0,1
-3.0,-207.0,-134.0,60.0,-7.0,16.0,1
0.0,-208.0,-134.0,61.0,-5.0,17.0,1
-2.0,-205.0,-135.0,62.0,-5.0,15.0,1
-4.0,-204.0,-136.0,62.0,-7.0,16.0,1
-4.0,-207.0,-133.0,60.0,-4.0,17.0,1
-1.0,-207.0,-138.0,58.0,-5.0,16.0,1
0.0,-212.0,-127.0,56.0,-4.0,17.0,1
0.0,-207.0,-134.0,55.0,-5.0,18.0,1
-2.0,-206.0,-138.0,54.0,-5.0,20.0,1
-1.0,-206.0,-132.0,52.0,-6.0,20.0,1
-2.0,-208.0,-134.0,51.0,-7.0,21.0,1
-3.0,-209.0,-133.0,50.0,-7.0,20.0,1
-3.0,-208.0,-132.0,51.0,-8.0,20.0,1
2.0,-205.0,-133.0,52.0,-8.0,20.0,1
-5.0,-207.0,-135.0,52.0,-9.0,19.0,1
-6.0,-209.0,-138.0,53.0,-9.0,20.0,1
-3.0,-197.0,-133.0,53.0,-9.0,20.0,1
-3.0,-206.0,-135.0,52.0,-7.0,19.0,1
0.0,-209.0,-135.0,54.0,-7.0,19.0,1
-2.0,-207.0,-137.0,55.0,-5.0,18.0,1
-3.0,-208.0,-135.0,55.0,-4.0,16.0,1
-1.0,-207.0,-133.0,54.0,-4.0,15.0,1
-2.0,-207.0,-134.0,53.0,-5.0,16.0,1
0.0,-207.0,-138.0,53.0,-7.0,16.0,1
0.0,-207.0,-132.0,52.0,-7.0,18.0,1
-2.0,-207.0,-134.0,53.0,-7.0,18.0,1
-3.0,-210.0,-133.0,52.0,-9.0,19.0,1
-7.0,-208.0,-139.0,50.0,-10.0,20.0,1
0.0,-205.0,-135.0,50.0,-10.0,20.0,1
-4.0,-208.0,-137.0,49.0,-11.0,20.0,1
-3.0,-210.0,-135.0,49.0,-12.0,20.0,1
-2.0,-206.0,-136.0,50.0,-11.0,20.0,1
-1.0,-212.0,-136.0,53.0,-14.0,20.0,1
-4.0,-207.0,-138.0,57.0,-11.0,21.0,1
-2.0,-205.0,-133.0,60.0,-11.0,18.0,1
-2.0,-209.0,-139.0,61.0,-10.0,17.0,1
0.0,-209.0,-136.0,66.0,-10.0,12.0,1
0.0,-207.0,-134.0,66.0,-10.0,11.0,1
-8.0,-198.0,-133.0,69.0,-8.0,10.0,1
-1.0,-206.0,-135.0,72.0,-8.0,11.0,1
0.0,-210.0,-137.0,74.0,-9.0,9.0,1
-5.0,-205.0,-137.0,74.0,-10.0,7.0,1
-1.0,-209.0,-133.0,74.0,-12.0,11.0,1
-4.0,-206.0,-134.0,72.0,-12.0,13.0,1
-6.0,-204.0,-137.0,73.0,-12.0,15.0,1
-1.0,-207.0,-133.0,69.0,-14.0,18.0,1
-4.0,-207.0,-133.0,67.0,-14.0,20.0,1
-3.0,-208.0,-131.0,64.0,-15.0,21.0,1
-4.0,-205.0,-136.0,61.0,-18.0,23.0,1
1.0,-208.0,-134.0,61.0,-18.0,23.0,1
-2.0,-208.0,-135.0,61.0,-18.0,21.0,1
-4.0,-211.0,-133.0,62.0,-18.0,23.0,1
-4.0,-210.0,-134.0,63.0,-17.0,22.0,1
-4.0,-208.0,-131.0,65.0,-16.0,21.0,1
-7.0,-205.0,-137.0,67.0,-16.0,21.0,1
-5.0,-205.0,-135.0,69.0,-17.0,17.0,1
-5.0,-206.0,-134.0,70.0,-15.0,12.0,1
-3.0,-207.0,-133.0,75.0,-11.0,7.0,1
-5.0,-205.0,-138.0,74.0,-11.0,7.0,1
-4.0,-209.0,-136.0,72.0,-14.0,10.0,1
-3.0,-204.0,-136.0,69.0,-14.0,14.0,1
-4.0,-206.0,-133.0,69.0,-14.0,16.0,1
-2.0,-207.0,-138.0,67.0,-14.0,19.0,1
-5.0,-205.0,-134.0,65.0,-14.0,22.0,1
-2.0,-208.0,-137.0,64.0,-13.0,24.0,1
-3.0,-209.0,-133.0,65.0,-15.0,27.0,1
-3.0,-209.0,-130.0,66.0,-14.0,29.0,1
-7.0,-207.0,-134.0,67.0,-15.0,29.0,1
-6.0,-207.0,-134.0,68.0,-17.0,29.0,1
-3.0,-208.0,-133.0,69.0,-16.0,27.0,1
-3.0,-207.0,-131.0,71.0,-16.0,28.0,1
-6.0,-209.0,-137.0,70.0,-16.0,27.0,1
-6.0,-207.0,-137.0,70.0,-17.0,25.0,1
-3.0,-206.0,-134.0,69.0,-18.0,27.0,1
-5.0,-206.0,-133.0,69.0,-19.0,27.0,1
-7.0,-206.0,-135.0,68.0,-19.0,27.0,1
-7.0,-208.0,-134.0,66.0,-19.0,27.0,1
-5.0,-208.0,-131.0,66.0,-20.0,29.0,1
-2.0,-207.0,-134.0,64.0,-21.0,29.0,1
-3.0,-205.0,-133.0,64.0,-21.0,29.0,1
-4.0,-208.0,-132.0,62.0,-22.0,28.0,1
-5.0,-205.0,-134.0,61.0,-22.0,29.0,1
-4.0,-204.0,-129.0,61.0,-22.0,31.0,1
-6.0,-205.0,-133.0,62.0,-23.0,32.0,1
-4.0,-208.0,-133.0,61.0,-22.0,31.0,1
-4.0,-204.0,-133.0,60.0,-22.0,34.0,1
-6.0,-207.0,-134.0,60.0,-20.0,36.0,1
-6.0,-208.0,-134.0,59.0,-19.0,39.0,1
-3.0,-205.0,-136.0,58.0,-17.0,40.0,1
-5.0,-210.0,-134.0,59.0,-17.0,40.0,1
-8.0,-211.0,-131.0,60.0,-16.0,40.0,1
-8.0,-210.0,-132.0,61.0,-15.0,40.0,1
-6.0,-208.0,-133.0,61.0,-16.0,39.0,1
-5.0,-210.0,-137.0,59.0,-19.0,39.0,1
-9.0,-204.0,-131.0,60.0,-18.0,40.0,1
-5.0,-210.0,-133.0,61.0,-17.0,41.0,1
-3.0,-210.0,-134.0,63.0,-18.0,38.0,1
-8.0,-209.0,-135.0,63.0,-16.0,40.0,1
-7.0,-210.0,-134.0,64.0,-18.0,39.0,1
-5.0,-209.0,-134.0,66.0,-18.0,39.0,1
-6.0,-205.0,-132.0,69.0,-18.0,40.0,1
-9.0,-206.0,-132.0,70.0,-19.0,42.0,1
-6.0,-209.0,-134.0,74.0,-19.0,41.0,1
-7.0,-207.0,-135.0,76.0,-19.0,38.0,1
-7.0,-210.0,-132.0,77.0,-19.0,41.0,1
-7.0,-211.0,-133.0,79.0,-19.0,43.0,1
-13.0,-205.0,-134.0,81.0,-17.0,43.0,1
-10.0,-208.0,-130.0,80.0,-17.0,42.0,1
-9.0,-210.0,-133.0,82.0,-18.0,43.0,1
-7.0,-210.0,-134.0,81.0,-19.0,45.0,1
-3.0,-205.0,-129.0,81.0,-20.0,44.0,1
-9.0,-209.0,-133.0,82.0,-21.0,42.0,1
-11.0,-207.0,-129.0,81.0,-21.0,41.0,1
-9.0,-209.0,-132.0,81.0,-22.0,41.0,1
-17.0,-203.0,-134.0,80.0,-23.0,41.0,1
-6.0,-208.0,-137.0,79.0,-23.0,41.0,1
-10.0,-208.0,-131.0,79.0,-23.0,42.0,1
-11.0,-206.0,-131.0,77.0,-23.0,41.0,1
-13.0,-207.0,-133.0,75.0,-23.0,41.0,1
-11.0,-209.0,-133.0,76.0,-22.0,42.0,1
-10.0,-208.0,-133.0,75.0,-21.0,43.0,1
-7.0,-209.0,-131.0,74.0,-21.0,43.0,1
-10.0,-211.0,-131.0,75.0,-21.0,46.0,1
-11.0,-212.0,-130.0,75.0,-21.0,46.0,1
-14.0,-211.0,-137.0,74.0,-22.0,49.0,1
-16.0,-211.0,-132.0,73.0,-24.0,51.0,1
-11.0,-210.0,-133.0,74.0,-25.0,52.0,1
-12.0,-210.0,-135.0,75.0,-28.0,53.0,1
-11.0,-208.0,-131.0,77.0,-28.0,54.0,1
-12.0,-210.0,-131.0,79.0,-27.0,51.0,1
-13.0,-210.0,-132.0,78.0,-28.0,50.0,1
-12.0,-207.0,-131.0,78.0,-30.0,49.0,1
-9.0,-211.0,-134.0,77.0,-32.0,47.0,1
-13.0,-207.0,-135.0,75.0,-32.0,48.0,1
-12.0,-208.0,-130.0,75.0,-33.0,48.0,1
-12.0,-209.0,-131.0,73.0,-32.0,47.0,1
-14.0,-206.0,-137.0,71.0,-32.0,48.0,1
-10.0,-208.0,-129.0,70.0,-33.0,49.0,1
-13.0,-210.0,-132.0,68.0,-32.0,48.0,1
-10.0,-207.0,-131.0,68.0,-30.0,52.0,1
-8.0,-209.0,-132.0,67.0,-30.0,54.0,1
-11.0,-209.0,-135.0,67.0,-30.0,55.0,1
-10.0,-209.0,-131.0,67.0,-28.0,58.0,1
-12.0,-209.0,-131.0,68.0,-30.0,60.0,1
-13.0,-209.0,-132.0,67.0,-29.0,62.0,1
-11.0,-208.0,-132.0,65.0,-29.0,61.0,1
-14.0,-208.0,-127.0,63.0,-33.0,60.0,1
-12.0,-212.0,-135.0,61.0,-35.0,58.0,1
-12.0,-209.0,-132.0,60.0,-39.0,57.0,1
-12.0,-208.0,-131.0,59.0,-41.0,58.0,1
-15.0,-205.0,-133.0,55.0,-43.0,55.0,1
-12.0,-210.0,-132.0,53.0,-44.0,55.0,1
-13.0,-208.0,-132.0,49.0,-44.0,52.0,1
-12.0,-208.0,-130.0,46.0,-46.0,52.0,1
-13.0,-210.0,-131.0,45.0,-44.0,52.0,1
-16.0,-209.0,-131.0,41.0,-40.0,48.0,1
-13.0,-210.0,-128.0,38.0,-40.0,49.0,1
-17.0,-210.0,-135.0,35.0,-38.0,49.0,1
-17.0,-210.0,-132.0,35.0,-37.0,50.0,1
-18.0,-208.0,-130.0,38.0,-34.0,52.0,1
-16.0,-212.0,-131.0,40.0,-31.0,54.0,1
-14.0,-208.0,-135.0,44.0,-30.0,55.0,1
-16.0,-209.0,-128.0,49.0,-27.0,56.0,1
-18.0,-210.0,-130.0,54.0,-27.0,59.0,1
-14.0,-211.0,-134.0,57.0,-27.0,63.0,1
-15.0,-210.0,-136.0,62.0,-29.0,65.0,1
-15.0,-208.0,-132.0,62.0,-28.0,67.0,1
-15.0,-208.0,-132.0,60.0,-30.0,70.0,1
-14.0,-206.0,-130.0,56.0,-34.0,69.0,1
-15.0,-208.0,-133.0,51.0,-38.0,68.0,1
-16.0,-207.0,-131.0,46.0,-40.0,68.0,1
-15.0,-210.0,-131.0,40.0,-44.0,65.0,1
-16.0,-207.0,-132.0,38.0,-47.0,64.0,1
-18.0,-208.0,-131.0,38.0,-47.0,62.0,1
-18.0,-208.0,-130.0,37.0,-49.0,64.0,1
-18.0,-209.0,-132.0,36.0,-50.0,61.0,1
-19.0,-210.0,-132.0,32.0,-50.0,62.0,1
-20.0,-210.0,-131.0,29.0,-49.0,62.0,1
-17.0,-211.0,-129.0,26.0,-49.0,63.0,1
-14.0,-214.0,-130.0,24.0,-49.0,65.0,1
-20.0,-210.0,-135.0,26.0,-49.0,67.0,1
-19.0,-212.0,-134.0,29.0,-48.0,71.0,1
-20.0,-211.0,-135.0,33.0,-46.0,73.0,1
-18.0,-210.0,-133.0,38.0,-47.0,75.0,1
-20.0,-211.0,-135.0,42.0,-49.0,76.0,1
-19.0,-211.0,-133.0,47.0,-51.0,81.0,1
-18.0,-214.0,-135.0,46.0,-52.0,85.0,1
-18.0,-210.0,-133.0,45.0,-56.0,91.0,1
-20.0,-210.0,-137.0,41.0,-62.0,98.0,1
-19.0,-210.0,-134.0,41.0,-68.0,102.0,1
-17.0,-209.0,-136.0,44.0,-75.0,108.0,1
-21.0,-210.0,-131.0,51.0,-77.0,110.0,1
-24.0,-206.0,-133.0,62.0,-82.0,116.0,1
-23.0,-209.0,-131.0,68.0,-88.0,116.0,1
-23.0,-209.0,-132.0,72.0,-93.0,118.0,1
-22.0,-206.0,-134.0,76.0,-99.0,117.0,1
-22.0,-206.0,-130.0,78.0,-101.0,115.0,1
-21.0,-207.0,-129.0,80.0,-103.0,114.0,1
-20.0,-201.0,-132.0,82.0,-105.0,115.0,1
-19.0,-204.0,-129.0,82.0,-104.0,115.0,1
-20.0,-202.0,-131.0,81.0,-107.0,110.0,1
-25.0,-198.0,-130.0,79.0,-110.0,107.0,1
-29.0,-195.0,-127.0,73.0,-109.0,103.0,1
-20.0,-206.0,-129.0,68.0,-108.0,103.0,1
-20.0,-203.0,-133.0,65.0,-106.0,101.0,1
-19.0,-203.0,-133.0,64.0,-105.0,102.0,1
-20.0,-205.0,-131.0,65.0,-101.0,101.0,1
-20.0,-206.0,-128.0,65.0,-101.0,102.0,1
-17.0,-207.0,-133.0,62.0,-99.0,100.0,1
-20.0,-207.0,-132.0,59.0,-94.0,102.0,1
-16.0,-207.0,-135.0,54.0,-91.0,103.0,1
-21.0,-208.0,-134.0,49.0,-89.0,107.0,1
-18.0,-206.0,-132.0,45.0,-86.0,109.0,1
-22.0,-208.0,-131.0,40.0,-84.0,111.0,1
-16.0,-208.0,-131.0,36.0,-83.0,111.0,1
-18.0,-206.0,-138.0,33.0,-83.0,113.0,1
-22.0,-207.0,-130.0,30.0,-84.0,113.0,1
-22.0,-206.0,-134.0,28.0,-86.0,114.0,1
-25.0,-207.0,-134.0,29.0,-89.0,113.0,1
-22.0,-210.0,-133.0,31.0,-93.0,111.0,1
-19.0,-209.0,-132.0,34.0,-93.0,112.0,1
-25.0,-209.0,-133.0,38.0,-90.0,117.0,1
-23.0,-203.0,-134.0,42.0,-89.0,122.0,1
-25.0,-206.0,-136.0,43.0,-90.0,126.0,1
-23.0,-207.0,-131.0,41.0,-88.0,133.0,1
-20.0,-206.0,-130.0,37.0,-88.0,137.0,1
-26.0,-205.0,-132.0,27.0,-86.0,141.0,1
-22.0,-206.0,-132.0,17.0,-90.0,145.0,1
-27.0,-209.0,-128.0,6.0,-95.0,145.0,1
-25.0,-209.0,-134.0,-4.0,-104.0,145.0,1
-26.0,-209.0,-130.0,-8.0,-111.0,142.0,1
-27.0,-208.0,-135.0,-8.0,-115.0,140.0,1
-29.0,-211.0,-137.0,-1.0,-121.0,143.0,1
-31.0,-207.0,-133.0,10.0,-129.0,146.0,1
-34.0,-203.0,-131.0,22.0,-137.0,152.0,1
-30.0,-206.0,-134.0,35.0,-139.0,157.0,1
-32.0,-202.0,-132.0,43.0,-141.0,165.0,1
-32.0,-204.0,-133.0,45.0,-142.0,170.0,1
-31.0,-206.0,-132.0,39.0,-142.0,175.0,1
-27.0,-206.0,-128.0,30.0,-145.0,178.0,1
-30.0,-210.0,-134.0,19.0,-148.0,180.0,1
-32.0,-204.0,-134.0,9.0,-154.0,181.0,1
-35.0,-209.0,-135.0,1.0,-160.0,179.0,1
-35.0,-209.0,-137.0,-7.0,-167.0,178.0,1
-32.0,-212.0,-135.0,-16.0,-172.0,181.0,1
-33.0,-208.0,-132.0,-20.0,-180.0,182.0,1
-37.0,-211.0,-132.0,-24.0,-190.0,184.0,1
-36.0,-210.0,-130.0,-25.0,-196.0,187.0,1
-36.0,-208.0,-131.0,-21.0,-198.0,191.0,1
-37.0,-208.0,-132.0,-13.0,-203.0,196.0,1
-33.0,-207.0,-131.0,-3.0,-208.0,200.0,1
-38.0,-207.0,-131.0,1.0,-208.0,205.0,1
-40.0,-206.0,-131.0,4.0,-209.0,206.0,1
-35.0,-207.0,-133.0,4.0,-211.0,206.0,1
-34.0,-205.0,-131.0,1.0,-211.0,204.0,1
-37.0,-201.0,-133.0,-5.0,-213.0,202.0,1
-31.0,-205.0,-124.0,-9.0,-214.0,202.0,1
-36.0,-202.0,-130.0,-12.0,-215.0,204.0,1
-37.0,-202.0,-132.0,-13.0,-214.0,208.0,1
-36.0,-202.0,-130.0,-16.0,-215.0,209.0,1
-34.0,-203.0,-131.0,-23.0,-213.0,209.0,1
-32.0,-204.0,-132.0,-30.0,-214.0,213.0,1
-28.0,-205.0,-132.0,-37.0,-215.0,215.0,1
-33.0,-206.0,-134.0,-48.0,-214.0,219.0,1
-38.0,-204.0,-129.0,-56.0,-211.0,223.0,1
-32.0,-204.0,-128.0,-60.0,-208.0,229.0,1
-32.0,-205.0,-129.0,-62.0,-203.0,233.0,1
-34.0,-205.0,-130.0,-63.0,-200.0,236.0,1
-36.0,-204.0,-132.0,-64.0,-195.0,239.0,1
-37.0,-205.0,-129.0,-64.0,-194.0,240.0,1
-37.0,-208.0,-130.0,-65.0,-195.0,242.0,1
-39.0,-207.0,-130.0,-64.0,-197.0,246.0,1
-41.0,-207.0,-132.0,-58.0,-201.0,249.0,1
-44.0,-207.0,-130.0,-48.0,-205.0,252.0,1
-45.0,-210.0,-131.0,-39.0,-211.0,254.0,1
-46.0,-204.0,-129.0,-25.0,-218.0,258.0,1
-48.0,-205.0,-131.0,-13.0,-223.0,261.0,1
-48.0,-206.0,-132.0,-3.0,-231.0,263.0,1
-41.0,-203.0,-136.0,8.0,-239.0,261.0,1
-50.0,-206.0,-129.0,16.0,-243.0,263.0,1
-51.0,-205.0,-135.0,24.0,-249.0,263.0,1
-50.0,-202.0,-136.0,31.0,-254.0,262.0,1
-51.0,-201.0,-133.0,35.0,-260.0,259.0,1
-53.0,-202.0,-131.0,38.0,-267.0,257.0,1
-54.0,-200.0,-130.0,38.0,-272.0,258.0,1
-57.0,-202.0,-134.0,38.0,-276.0,257.0,1
-55.0,-203.0,-136.0,38.0,-276.0,258.0,1
-56.0,-203.0,-132.0,38.0,-276.0,259.0,1
-56.0,-201.0,-132.0,40.0,-273.0,256.0,1
-59.0,-195.0,-138.0,41.0,-268.0,255.0,1
-57.0,-202.0,-136.0,48.0,-267.0,257.0,1
-57.0,-201.0,-132.0,51.0,-264.0,255.0,1
-56.0,-198.0,-131.0,52.0,-263.0,256.0,1
-56.0,-197.0,-130.0,52.0,-259.0,258.0,1
-57.0,-201.0,-130.0,52.0,-255.0,259.0,1
-55.0,-200.0,-130.0,48.0,-252.0,257.0,1
-54.0,-202.0,-132.0,40.0,-248.0,255.0,1
-55.0,-200.0,-132.0,32.0,-245.0,252.0,1
-56.0,-198.0,-135.0,23.0,-242.0,251.0,1
-61.0,-196.0,-130.0,17.0,-241.0,253.0,1
-61.0,-203.0,-133.0,15.0,-244.0,249.0,1
-59.0,-197.0,-131.0,14.0,-231.0,253.0,1
-60.0,-198.0,-138.0,16.0,-220.0,259.0,1
-61.0,-198.0,-131.0,18.0,-208.0,259.0,1
-59.0,-194.0,-131.0,16.0,-204.0,265.0,1
-62.0,-198.0,-127.0,6.0,-195.0,268.0,1
-57.0,-201.0,-127.0,-7.0,-195.0,274.0,1
-62.0,-197.0,-127.0,-23.0,-194.0,278.0,1
-62.0,-199.0,-130.0,-39.0,-194.0,285.0,1
-62.0,-201.0,-127.0,-54.0,-187.0,288.0,1
-60.0,-196.0,-129.0,-65.0,-184.0,292.0,1
-61.0,-203.0,-134.0,-76.0,-181.0,286.0,1
-64.0,-200.0,-132.0,-83.0,-186.0,283.0,1
-63.0,-198.0,-129.0,-90.0,-185.0,274.0,1
-64.0,-201.0,-131.0,-91.0,-192.0,268.0,1
-64.0,-197.0,-131.0,-87.0,-193.0,256.0,1
-65.0,-200.0,-134.0,-82.0,-200.0,251.0,1
-69.0,-193.0,-135.0,-77.0,-204.0,235.0,1
-71.0,-193.0,-136.0,-68.0,-212.0,227.0,1
-69.0,-196.0,-139.0,-60.0,-220.0,216.0,1
-75.0,-196.0,-135.0,-54.0,-228.0,214.0,1
-76.0,-193.0,-143.0,-46.0,-239.0,219.0,1
-75.0,-192.0,-136.0,-42.0,-243.0,226.0,1
-70.0,-187.0,-140.0,-39.0,-246.0,241.0,1
-69.0,-189.0,-136.0,-44.0,-241.0,252.0,1
-74.0,-192.0,-133.0,-52.0,-239.0,266.0,1
-67.0,-192.0,-138.0,-58.0,-236.0,273.0,1
-74.0,-192.0,-135.0,-66.0,-233.0,276.0,1
-70.0,-192.0,-136.0,-71.0,-237.0,280.0,1
-69.0,-196.0,-132.0,-76.0,-230.0,277.0,1
-78.0,-192.0,-130.0,-83.0,-228.0,278.0,1
-74.0,-192.0,-134.0,-87.0,-236.0,273.0,1
-72.0,-196.0,-140.0,-98.0,-232.0,267.0,1
-84.0,-196.0,-135.0,-110.0,-237.0,261.0,1
-75.0,-193.0,-137.0,-111.0,-238.0,254.0,1
-79.0,-196.0,-132.0,-107.0,-228.0,251.0,1
-83.0,-198.0,-129.0,-89.0,-229.0,252.0,1
-80.0,-194.0,-135.0,-70.0,-223.0,241.0,1
-84.0,-195.0,-134.0,-64.0,-216.0,232.0,1
-91.0,-194.0,-134.0,-58.0,-219.0,225.0,1
-81.0,-189.0,-140.0,-58.0,-206.0,214.0,1
-85.0,-192.0,-135.0,-66.0,-192.0,216.0,1
-74.0,-192.0,-137.0,-69.0,-193.0,225.0,1
-74.0,-191.0,-143.0,-74.0,-183.0,228.0,1
-76.0,-190.0,-137.0,-84.0,-173.0,236.0,1
-83.0,-193.0,-139.0,-91.0,-182.0,246.0,1
-75.0,-192.0,-139.0,-94.0,-185.0,249.0,1
-79.0,-192.0,-133.0,-105.0,-174.0,252.0,1
-89.0,-196.0,-131.0,-115.0,-174.0,261.0,1
-79.0,-194.0,-140.0,-116.0,-180.0,266.0,1
-85.0,-192.0,-138.0,-114.0,-169.0,265.0,1
-92.0,-194.0,-128.0,-109.0,-166.0,272.0,1
-86.0,-194.0,-130.0,-90.0,-182.0,282.0,1
-77.0,-191.0,-140.0,-77.0,-173.0,280.0,1
-79.0,-186.0,-135.0,-69.0,-160.0,286.0,1
-89.0,-189.0,-132.0,-60.0,-162.0,303.0,1
-78.0,-191.0,-134.0,-47.0,-163.0,311.0,1
-80.0,-188.0,-131.0,-45.0,-149.0,313.0,1
-84.0,-188.0,-129.0,-41.0,-148.0,321.0,1
-91.0,-200.0,-127.0,-34.0,-160.0,327.0,1
-91.0,-185.0,-141.0,-23.0,-164.0,322.0,1
-88.0,-185.0,-138.0,-30.0,-153.0,326.0,1
-91.0,-186.0,-131.0,-35.0,-148.0,350.0,1
-88.0,-188.0,-130.0,-24.0,-140.0,367.0,1
-84.0,-188.0,-129.0,-20.0,-123.0,370.0,1
-90.0,-189.0,-131.0,-32.0,-116.0,383.0,1
-95.0,-190.0,-130.0,-41.0,-124.0,397.0,1
-83.0,-187.0,-136.0,-41.0,-132.0,397.0,1
-90.0,-183.0,-134.0,-42.0,-119.0,393.0,1
-100.0,-182.0,-131.0,-36.0,-116.0,404.0,1
-92.0,-184.0,-131.0,-24.0,-123.0,416.0,1
-91.0,-182.0,-130.0,-18.0,-113.0,417.0,1
-90.0,-183.0,-128.0,-13.0,-99.0,422.0,1
-97.0,-186.0,-126.0,-5.0,-94.0,431.0,1
-83.0,-176.0,-133.0,-1.0,-95.0,431.0,1
-89.0,-178.0,-130.0,-17.0,-74.0,421.0,1
-96.0,-179.0,-134.0,-36.0,-61.0,430.0,1
-94.0,-181.0,-132.0,-57.0,-58.0,443.0,1
-91.0,-180.0,-136.0,-76.0,-54.0,446.0,1
-93.0,-179.0,-134.0,-90.0,-46.0,450.0,1
-109.0,-183.0,-131.0,-95.0,-51.0,458.0,1
-95.0,-183.0,-137.0,-84.0,-65.0,459.0,1
-93.0,-179.0,-139.0,-75.0,-60.0,453.0,1
-107.0,-177.0,-131.0,-63.0,-63.0,462.0,1
-98.0,-181.0,-141.0,-45.0,-74.0,470.0,1
-98.0,-177.0,-138.0,-31.0,-66.0,464.0,1
-103.0,-177.0,-137.0,-20.0,-62.0,465.0,1
-112.0,-181.0,-135.0,-13.0,-72.0,469.0,1
-92.0,-180.0,-143.0,-9.0,-79.0,469.0,1
-101.0,-174.0,-138.0,-18.0,-71.0,474.0,1
-109.0,-175.0,-132.0,-25.0,-71.0,497.0,1
-101.0,-174.0,-135.0,-27.0,-76.0,515.0,1
-105.0,-171.0,-135.0,-43.0,-68.0,526.0,1
-116.0,-172.0,-127.0,-65.0,-70.0,540.0,1
-98.0,-178.0,-135.0,-78.0,-92.0,559.0,1
-104.0,-175.0,-134.0,-86.0,-91.0,554.0,1
-113.0,-175.0,-129.0,-87.0,-99.0,563.0,1
-114.0,-173.0,-135.0,-77.0,-118.0,570.0,1
-105.0,-173.0,-136.0,-77.0,-124.0,568.0,1
-124.0,-173.0,-130.0,-78.0,-131.0,576.0,1
-111.0,-177.0,-140.0,-72.0,-158.0,592.0,1
-114.0,-171.0,-134.0,-68.0,-162.0,587.0,1
-119.0,-172.0,-134.0,-58.0,-171.0,596.0,1
-117.0,-170.0,-140.0,-59.0,-189.0,607.0,1
-116.0,-175.0,-135.0,-66.0,-196.0,612.0,1
-118.0,-172.0,-137.0,-70.0,-197.0,618.0,1
-127.0,-169.0,-129.0,-67.0,-208.0,631.0,1
-110.0,-171.0,-138.0,-55.0,-220.0,633.0,1
-120.0,-166.0,-132.0,-53.0,-216.0,628.0,1
-123.0,-164.0,-135.0,-45.0,-229.0,642.0,1
-107.0,-165.0,-139.0,-49.0,-235.0,653.0,1
-107.0,-159.0,-134.0,-65.0,-223.0,668.0,1
-116.0,-159.0,-129.0,-75.0,-218.0,696.0,1
-102.0,-162.0,-135.0,-88.0,-222.0,719.0,1
-106.0,-161.0,-132.0,-111.0,-208.0,733.0,1
-116.0,-163.0,-129.0,-140.0,-208.0,754.0,1
-116.0,-168.0,-135.0,-169.0,-224.0,766.0,1
-114.0,-162.0,-138.0,-204.0,-227.0,764.0,1
-125.0,-160.0,-130.0,-234.0,-232.0,775.0,1
-131.0,-163.0,-130.0,-241.0,-261.0,789.0,1
-116.0,-154.0,-136.0,-246.0,-293.0,795.0,1
-123.0,-158.0,-135.0,-253.0,-306.0,809.0,1
-117.0,-158.0,-144.0,-250.0,-324.0,822.0,1
-122.0,-159.0,-141.0,-250.0,-332.0,823.0,1
-134.0,-159.0,-138.0,-244.0,-344.0,828.0,1
-128.0,-163.0,-142.0,-234.0,-357.0,829.0,1
-151.0,-156.0,-126.0,-230.0,-360.0,829.0,1
-140.0,-158.0,-127.0,-224.0,-398.0,822.0,1
-145.0,-151.0,-126.0,-216.0,-411.0,824.0,1
-146.0,-148.0,-130.0,-209.0,-422.0,836.0,1
-138.0,-142.0,-132.0,-204.0,-428.0,851.0,1
-132.0,-140.0,-130.0,-211.0,-438.0,869.0,1
-130.0,-140.0,-132.0,-225.0,-440.0,884.0,1
-122.0,-142.0,-136.0,-251.0,-446.0,905.0,1
-125.0,-137.0,-138.0,-285.0,-443.0,926.0,1
-114.0,-135.0,-137.0,-320.0,-453.0,941.0,1
-122.0,-131.0,-132.0,-363.0,-450.0,959.0,1
-124.0,-129.0,-132.0,-403.0,-465.0,979.0,1
-109.0,-145.0,-140.0,-443.0,-477.0,988.0,1
-119.0,-124.0,-133.0,-491.0,-478.0,981.0,1
-131.0,-131.0,-132.0,-515.0,-484.0,1011.0,1
-126.0,-135.0,-136.0,-531.0,-501.0,1025.0,1
-128.0,-134.0,-141.0,-546.0,-509.0,1010.0,1
-133.0,-133.0,-139.0,-564.0,-509.0,1000.0,1
-134.0,-132.0,-146.0,-577.0,-506.0,1009.0,1
-143.0,-143.0,-146.0,-578.0,-508.0,1029.0,1
-131.0,-131.0,-142.0,-581.0,-522.0,1042.0,1
-138.0,-128.0,-142.0,-573.0,-535.0,1067.0,1
-141.0,-127.0,-131.0,-564.0,-555.0,1077.0,1
-133.0,-121.0,-137.0,-567.0,-580.0,1089.0,1
-136.0,-114.0,-137.0,-576.0,-600.0,1108.0,1
-133.0,-122.0,-135.0,-588.0,-622.0,1118.0,1
-147.0,-114.0,-132.0,-613.0,-642.0,1107.0,1
-141.0,-107.0,-136.0,-631.0,-651.0,1128.0,1
-144.0,-108.0,-131.0,-648.0,-650.0,1163.0,1
-145.0,-116.0,-129.0,-656.0,-669.0,1187.0,1
-142.0,-113.0,-137.0,-661.0,-696.0,1180.0,1
-134.0,-103.0,-144.0,-676.0,-717.0,1178.0,1
-148.0,-101.0,-134.0,-681.0,-735.0,1191.0,1
-155.0,-95.0,-124.0,-688.0,-765.0,1196.0,1
-156.0,-99.0,-124.0,-689.0,-808.0,1191.0,1
-158.0,-96.0,-120.0,-677.0,-853.0,1204.0,1
-137.0,-94.0,-131.0,-658.0,-894.0,1223.0,1
-145.0,-101.0,-122.0,-648.0,-924.0,1241.0,1
-152.0,-96.0,-112.0,-646.0,-955.0,1260.0,1
-160.0,-99.0,-113.0,-645.0,-976.0,1286.0,1
-154.0,-102.0,-112.0,-647.0,-988.0,1313.0,1
-161.0,-109.0,-106.0,-649.0,-998.0,1354.0,1
-177.0,-112.0,-88.0,-644.0,-1026.0,1383.0,1
-192.0,-116.0,-79.0,-611.0,-1102.0,1392.0,1
-190.0,-114.0,-81.0,-554.0,-1182.0,1364.0,1
-185.0,-117.0,-83.0,-484.0,-1245.0,1317.0,1
-171.0,-117.0,-83.0,-413.0,-1291.0,1275.0,1
-167.0,-116.0,-80.0,-349.0,-1325.0,1242.0,1
-145.0,-123.0,-86.0,-301.0,-1350.0,1205.0,1
-132.0,-120.0,-86.0,-266.0,-1364.0,1171.0,1
-120.0,-117.0,-95.0,-236.0,-1390.0,1146.0,1
-100.0,-114.0,-92.0,-202.0,-1425.0,1118.0,1
-84.0,-108.0,-95.0,-166.0,-1471.0,1090.0,1
-80.0,-100.0,-99.0,-124.0,-1530.0,1061.0,1
-83.0,-88.0,-99.0,-73.0,-1590.0,1031.0,1
-83.0,-78.0,-97.0,-22.0,-1653.0,998.0,1
-91.0,-66.0,-89.0,19.0,-1714.0,969.0,1
-95.0,-54.0,-91.0,41.0,-1770.0,941.0,1
-109.0,-45.0,-83.0,38.0,-1813.0,919.0,1
-112.0,-36.0,-77.0,23.0,-1848.0,889.0,1
-115.0,-32.0,-72.0,3.0,-1879.0,869.0,1
-119.0,-33.0,-61.0,-1.0,-1896.0,857.0,1
-123.0,-38.0,-53.0,29.0,-1932.0,838.0,1
-120.0,-31.0,-51.0,101.0,-1989.0,816.0,1
-127.0,-35.0,-39.0,207.0,-2060.0,799.0,1
-143.0,-43.0,-31.0,343.0,-2157.0,754.0,1
-153.0,-49.0,-22.0,485.0,-2285.0,687.0,1
-159.0,-66.0,-18.0,604.0,-2420.0,599.0,1
-121.0,-57.0,-49.0,678.0,-2525.0,488.0,1
-160.0,-64.0,-15.0,683.0,-2577.0,375.0,1
-120.0,-54.0,-62.0,689.0,-2718.0,247.0,1
-104.0,-41.0,-76.0,666.0,-2763.0,104.0,1
-57.0,-28.0,-116.0,608.0,-2799.0,-39.0,1
-48.0,-17.0,-112.0,509.0,-2741.0,-200.0,1
-53.0,-18.0,-101.0,455.0,-2673.0,-329.0,1
-57.0,-20.0,-92.0,482.0,-2640.0,-424.0,1
-61.0,-14.0,-76.0,568.0,-2624.0,-501.0,1
-67.0,-14.0,-79.0,669.0,-2601.0,-557.0,1
-69.0,-6.0,-90.0,737.0,-2569.0,-607.0,1
-60.0,13.0,-118.0,730.0,-2511.0,-645.0,1
-71.0,27.0,-105.0,658.0,-2393.0,-671.0,1
-76.0,32.0,-123.0,554.0,-2285.0,-690.0,1
-87.0,25.0,-118.0,446.0,-2160.0,-709.0,1
-77.0,31.0,-128.0,375.0,-2043.0,-750.0,1
-39.0,27.0,-155.0,318.0,-1897.0,-794.0,1
-16.0,5.0,-156.0,246.0,-1711.0,-876.0,1
-45.0,-19.0,-119.0,156.0,-1541.0,-1002.0,1
-94.0,-56.0,-100.0,134.0,-1442.0,-1110.0,1
-116.0,-72.0,-109.0,185.0,-1376.0,-1184.0,1
-130.0,-84.0,-122.0,250.0,-1264.0,-1261.0,1
-112.0,-83.0,-138.0,246.0,-1118.0,-1358.0,1
-144.0,-87.0,-124.0,81.0,-943.0,-1462.0,1
-217.0,-97.0,-75.0,-215.0,-844.0,-1555.0,1
-274.0,-102.0,-38.0,-525.0,-884.0,-1652.0,1
-351.0,-82.0,28.0,-687.0,-1041.0,-1700.0,1
-436.0,-52.0,64.0,-589.0,-1232.0,-1613.0,1
-440.0,-51.0,73.0,-274.0,-1409.0,-1435.0,1
-417.0,-50.0,65.0,58.0,-1527.0,-1297.0,1
-406.0,-36.0,84.0,219.0,-1650.0,-1220.0,1
-464.0,0.0,107.0,220.0,-1839.0,-1149.0,1
-512.0,27.0,78.0,139.0,-2083.0,-1018.0,1
-559.0,25.0,25.0,-7.0,-2252.0,-838.0,1
-541.0,6.0,-2.0,-219.0,-2277.0,-670.0,1
-646.0,-55.0,74.0,-418.0,-2245.0,-578.0,1
-687.0,-120.0,125.0,-383.0,-2377.0,-548.0,1
-694.0,-156.0,153.0,-178.0,-2513.0,-579.0,1
-721.0,-172.0,170.0,62.0,-2610.0,-569.0,1
-753.0,-174.0,188.0,259.0,-2681.0,-503.0,1
-740.0,-173.0,203.0,373.0,-2745.0,-417.0,1
-730.0,-164.0,216.0,398.0,-2825.0,-341.0,1
-734.0,-164.0,247.0,390.0,-2906.0,-260.0,1
-730.0,-176.0,274.0,429.0,-2997.0,-146.0,1
-739.0,-163.0,267.0,530.0,-3073.0,7.0,1
-751.0,-156.0,281.0,659.0,-3128.0,185.0,1
-750.0,-155.0,276.0,820.0,-3164.0,365.0,1
-694.0,-133.0,237.0,972.0,-3155.0,515.0,1
-656.0,-132.0,221.0,1058.0,-3034.0,685.0,1
-569.0,-126.0,201.0,1134.0,-2875.0,846.0,1
-492.0,-116.0,193.0,1208.0,-2675.0,1003.0,1
-432.0,-122.0,188.0,1327.0,-2480.0,1182.0,1
-396.0,-130.0,187.0,1487.0,-2274.0,1336.0,1
-342.0,-125.0,172.0,1672.0,-2038.0,1435.0,1
-286.0,-117.0,166.0,1869.0,-1772.0,1520.0,1
-247.0,-93.0,163.0,2020.0,-1547.0,1498.0,1
-197.0,-78.0,167.0,2067.0,-1345.0,1424.0,1
-162.0,-79.0,189.0,2035.0,-1176.0,1309.0,1
-138.0,-80.0,191.0,1959.0,-1072.0,1127.0,1
-97.0,-69.0,194.0,1831.0,-994.0,934.0,1
-67.0,-66.0,205.0,1639.0,-929.0,775.0,1
-35.0,-59.0,215.0,1429.0,-907.0,607.0,1
-20.0,-55.0,213.0,1224.0,-903.0,463.0,1
-19.0,-54.0,222.0,1030.0,-924.0,355.0,1
-20.0,-49.0,224.0,855.0,-967.0,249.0,1
1.0,-56.0,217.0,691.0,-1018.0,167.0,1
13.0,-51.0,208.0,519.0,-1056.0,101.0,1
10.0,-42.0,195.0,344.0,-1071.0,57.0,1
3.0,-33.0,181.0,186.0,-1057.0,42.0,1
-3.0,-30.0,180.0,49.0,-999.0,47.0,1
-5.0,-20.0,184.0,-34.0,-918.0,44.0,1
-30.0,-8.0,180.0,-52.0,-819.0,23.0,1
-44.0,-1.0,185.0,-1.0,-704.0,6.0,1
-59.0,-5.0,193.0,93.0,-600.0,-14.0,1
-74.0,0.0,195.0,184.0,-519.0,-29.0,1
-86.0,-11.0,208.0,238.0,-459.0,-38.0,1
-92.0,-14.0,199.0,266.0,-421.0,-59.0,1
-91.0,-14.0,200.0,272.0,-399.0,-102.0,1
-89.0,-13.0,196.0,253.0,-391.0,-143.0,1
-90.0,-9.0,192.0,218.0,-396.0,-181.0,1
-85.0,-14.0,188.0,167.0,-418.0,-217.0,1
-82.0,-18.0,189.0,115.0,-452.0,-259.0,1
-78.0,-16.0,188.0,71.0,-488.0,-316.0,1
-77.0,-14.0,185.0,28.0,-522.0,-395.0,1
-70.0,-14.0,186.0,-10.0,-551.0,-474.0,1
-73.0,-16.0,192.0,-34.0,-554.0,-544.0,1
-77.0,-12.0,194.0,-49.0,-535.0,-590.0,1
-72.0,-19.0,195.0,-68.0,-505.0,-624.0,1
-70.0,-18.0,196.0,-72.0,-467.0,-639.0,1
-75.0,-7.0,196.0,-49.0,-415.0,-641.0,1
-81.0,-13.0,199.0,2.0,-370.0,-635.0,1
-80.0,-9.0,195.0,66.0,-327.0,-633.0,1
-88.0,-9.0,191.0,124.0,-285.0,-631.0,1
-96.0,-14.0,189.0,164.0,-242.0,-617.0,1
-109.0,-18.0,196.0,179.0,-195.0,-608.0,1
-112.0,-23.0,195.0,178.0,-146.0,-600.0,1
-120.0,-23.0,191.0,163.0,-95.0,-593.0,1
-129.0,-14.0,192.0,136.0,-43.0,-590.0,1
-134.0,-32.0,193.0,103.0,8.0,-593.0,1
-147.0,-32.0,192.0,67.0,57.0,-585.0,1
-158.0,-40.0,198.0,38.0,108.0,-572.0,1
-163.0,-45.0,202.0,24.0,155.0,-553.0,1
-172.0,-44.0,196.0,20.0,201.0,-529.0,1
-180.0,-42.0,197.0,22.0,249.0,-508.0,1
-179.0,-43.0,192.0,28.0,294.0,-490.0,1
-189.0,-44.0,189.0,30.0,341.0,-478.0,1
-194.0,-47.0,192.0,32.0,383.0,-468.0,1
-195.0,-52.0,191.0,41.0,425.0,-464.0,1
-199.0,-54.0,200.0,50.0,466.0,-452.0,1
-209.0,-56.0,199.0,59.0,499.0,-437.0,1
-205.0,-57.0,194.0,62.0,525.0,-420.0,1
-205.0,-55.0,191.0,51.0,547.0,-408.0,1
-202.0,-56.0,187.0,26.0,565.0,-400.0,1
-202.0,-52.0,182.0,-2.0,581.0,-387.0,1
-191.0,-54.0,179.0,-27.0,592.0,-376.0,1
-193.0,-54.0,178.0,-49.0,600.0,-363.0,1
-192.0,-61.0,178.0,-71.0,596.0,-348.0,1
-200.0,-64.0,185.0,-91.0,587.0,-332.0,1
-182.0,-65.0,172.0,-113.0,578.0,-313.0,1
-186.0,-66.0,175.0,-143.0,578.0,-302.0,1
-181.0,-65.0,171.0,-162.0,578.0,-301.0,1
-182.0,-64.0,168.0,-160.0,579.0,-314.0,1
-197.0,-60.0,170.0,-150.0,578.0,-336.0,1
-184.0,-59.0,157.0,-141.0,569.0,-355.0,1
-192.0,-67.0,163.0,-173.0,576.0,-353.0,1
-195.0,-76.0,163.0,-228.0,580.0,-326.0,1
-190.0,-83.0,156.0,-288.0,575.0,-292.0,1
-183.0,-88.0,148.0,-343.0,563.0,-269.0,1
-192.0,-87.0,147.0,-383.0,544.0,-255.0,1
-170.0,-86.0,128.0,-399.0,515.0,-250.0,1
-181.0,-82.0,119.0,-407.0,503.0,-249.0,1
-182.0,-85.0,126.0,-382.0,485.0,-246.0,1
-191.0,-84.0,123.0,-334.0,469.0,-250.0,1
-188.0,-85.0,123.0,-272.0,462.0,-265.0,1
-192.0,-80.0,125.0,-216.0,463.0,-288.0,1
-192.0,-80.0,133.0,-173.0,471.0,-309.0,1
-212.0,-78.0,145.0,-141.0,479.0,-322.0,1
-184.0,-79.0,136.0,-111.0,471.0,-322.0,1
-191.0,-81.0,144.0,-109.0,484.0,-328.0,1
-191.0,-82.0,144.0,-110.0,494.0,-317.0,1
-195.0,-81.0,147.0,-123.0,508.0,-300.0,1
-197.0,-80.0,152.0,-133.0,518.0,-291.0,1
-199.0,-83.0,141.0,-143.0,529.0,-286.0,1
-197.0,-84.0,135.0,-158.0,549.0,-276.0,1
-207.0,-90.0,137.0,-182.0,574.0,-250.0,1
-199.0,-100.0,140.0,-197.0,577.0,-226.0,1
-200.0,-102.0,134.0,-194.0,580.0,-212.0,1
-198.0,-110.0,130.0,-181.0,567.0,-194.0,1
-189.0,-109.0,121.0,-158.0,540.0,-201.0,1
-190.0,-112.0,122.0,-131.0,507.0,-221.0,1
-185.0,-117.0,119.0,-86.0,470.0,-240.0,1
-192.0,-123.0,121.0,-15.0,451.0,-256.0,1
-193.0,-127.0,114.0,81.0,446.0,-251.0,1
-200.0,-126.0,104.0,153.0,445.0,-236.0,1
-204.0,-129.0,103.0,217.0,448.0,-222.0,1
-204.0,-125.0,96.0,266.0,445.0,-219.0,1
-209.0,-125.0,98.0,303.0,430.0,-218.0,1
-219.0,-125.0,104.0,336.0,406.0,-208.0,1
-213.0,-124.0,102.0,358.0,381.0,-175.0,1
-198.0,-126.0,98.0,352.0,369.0,-143.0,1
-197.0,-132.0,100.0,330.0,350.0,-100.0,1
-191.0,-131.0,109.0,307.0,333.0,-63.0,1
-193.0,-135.0,116.0,294.0,322.0,-24.0,1
-191.0,-132.0,119.0,298.0,304.0,12.0,1
-190.0,-128.0,115.0,314.0,294.0,40.0,1
-191.0,-119.0,119.0,338.0,291.0,58.0,1
-193.0,-108.0,113.0,363.0,302.0,62.0,1
-192.0,-105.0,109.0,380.0,324.0,64.0,1
-194.0,-95.0,106.0,384.0,352.0,60.0,1
-199.0,-91.0,108.0,385.0,377.0,55.0,1
-195.0,-85.0,102.0,385.0,396.0,43.0,1
-202.0,-81.0,100.0,383.0,416.0,20.0,1
-206.0,-82.0,104.0,379.0,430.0,-12.0,1
-209.0,-84.0,112.0,369.0,437.0,-39.0,1
-214.0,-83.0,101.0,353.0,441.0,-61.0,1
-230.0,-83.0,97.0,330.0,448.0,-70.0,1
-222.0,-89.0,87.0,307.0,452.0,-81.0,1
-221.0,-86.0,81.0,277.0,459.0,-97.0,1
-221.0,-90.0,74.0,250.0,463.0,-102.0,1
-227.0,-96.0,74.0,224.0,459.0,-93.0,1
-233.0,-99.0,73.0,212.0,436.0,-79.0,1
-239.0,-100.0,76.0,208.0,398.0,-56.0,1
-237.0,-106.0,78.0,196.0,354.0,-30.0,1
-233.0,-115.0,79.0,181.0,312.0,-1.0,1
-213.0,-106.0,77.0,169.0,283.0,14.0,1
-208.0,-103.0,74.0,149.0,270.0,27.0,1
-206.0,-101.0,76.0,124.0,262.0,42.0,1
-209.0,-100.0,82.0,117.0,256.0,47.0,1
-212.0,-97.0,81.0,136.0,247.0,47.0,1
-216.0,-93.0,78.0,167.0,230.0,43.0,1
-223.0,-86.0,80.0,190.0,210.0,36.0,1
-206.0,-85.0,83.0,202.0,190.0,19.0,1
-204.0,-77.0,71.0,197.0,182.0,-7.0,1
-204.0,-79.0,75.0,172.0,189.0,-24.0,1
-210.0,-84.0,77.0,143.0,197.0,-36.0,1
-224.0,-78.0,79.0,126.0,200.0,-47.0,1
-223.0,-83.0,83.0,119.0,196.0,-51.0,1
-228.0,-83.0,81.0,117.0,185.0,-55.0,1
-232.0,-84.0,78.0,108.0,177.0,-54.0,1
-230.0,-83.0,76.0,86.0,170.0,-51.0,1
-230.0,-81.0,75.0,61.0,163.0,-44.0,1
-230.0,-76.0,73.0,29.0,160.0,-32.0,1
-234.0,-80.0,79.0,-11.0,154.0,-15.0,1
-233.0,-86.0,88.0,-29.0,140.0,1.0,1
-228.0,-85.0,90.0,-20.0,127.0,11.0,1
-235.0,-84.0,88.0,-5.0,110.0,22.0,1
-226.0,-82.0,89.0,0.0,92.0,32.0,1
-227.0,-90.0,96.0,-12.0,76.0,41.0,1
-230.0,-92.0,92.0,-5.0,65.0,46.0,1
-229.0,-89.0,91.0,11.0,57.0,50.0,1
-229.0,-84.0,96.0,26.0,48.0,54.0,1
-230.0,-86.0,92.0,41.0,40.0,51.0,1
-228.0,-85.0,90.0,57.0,25.0,50.0,1
-228.0,-85.0,92.0,70.0,13.0,50.0,1
-221.0,-88.0,94.0,76.0,-1.0,55.0,1
-220.0,-82.0,94.0,76.0,-18.0,59.0,1
-221.0,-77.0,98.0,71.0,-36.0,61.0,1
-218.0,-87.0,102.0,62.0,-52.0,60.0,1
-216.0,-88.0,101.0,56.0,-70.0,60.0,1
-214.0,-85.0,111.0,54.0,-87.0,56.0,1
-212.0,-83.0,106.0,55.0,-101.0,49.0,1
-210.0,-80.0,103.0,46.0,-113.0,41.0,1
-212.0,-82.0,104.0,35.0,-125.0,34.0,1
-213.0,-80.0,105.0,40.0,-132.0,28.0,1
-213.0,-79.0,107.0,50.0,-136.0,25.0,1
-210.0,-80.0,104.0,63.0,-140.0,24.0,1
-208.0,-83.0,110.0,76.0,-147.0,22.0,1
-207.0,-82.0,109.0,87.0,-155.0,26.0,1
-211.0,-84.0,110.0,95.0,-161.0,33.0,1
-209.0,-75.0,115.0,100.0,-165.0,39.0,1
-208.0,-79.0,119.0,102.0,-168.0,46.0,1
-209.0,-80.0,116.0,99.0,-170.0,50.0,1
-210.0,-79.0,122.0,94.0,-171.0,52.0,1
-210.0,-82.0,121.0,88.0,-170.0,53.0,1
-208.0,-79.0,121.0,78.0,-169.0,49.0,1
-210.0,-77.0,117.0,73.0,-164.0,43.0,1
-211.0,-78.0,116.0,70.0,-160.0,38.0,1
-209.0,-79.0,118.0,72.0,-158.0,32.0,1
-205.0,-79.0,119.0,78.0,-156.0,24.0,1
-207.0,-83.0,122.0,85.0,-155.0,18.0,1
-209.0,-81.0,119.0,92.0,-156.0,12.0,1
-209.0,-79.0,121.0,96.0,-152.0,5.0,1
-205.0,-79.0,118.0,98.0,-148.0,-2.0,1
-205.0,-79.0,117.0,99.0,-142.0,-10.0,1
-206.0,-78.0,118.0,98.0,-133.0,-20.0,1
-206.0,-78.0,119.0,98.0,-123.0,-28.0,1
-205.0,-79.0,121.0,96.0,-112.0,-31.0,1
-204.0,-77.0,120.0,92.0,-99.0,-36.0,1
-203.0,-78.0,123.0,92.0,-88.0,-40.0,1
-203.0,-77.0,124.0,92.0,-76.0,-42.0,1
-209.0,-77.0,127.0,92.0,-61.0,-44.0,1
-201.0,-79.0,122.0,95.0,-46.0,-45.0,1
-203.0,-78.0,122.0,99.0,-31.0,-45.0,1
-202.0,-77.0,125.0,105.0,-18.0,-50.0,1
-202.0,-78.0,126.0,112.0,-8.0,-50.0,1
-201.0,-79.0,124.0,114.0,-3.0,-50.0,1
-201.0,-72.0,125.0,114.0,-1.0,-50.0,1
-204.0,-75.0,127.0,110.0,-3.0,-50.0,1
-203.0,-75.0,127.0,106.0,-4.0,-49.0,1
-208.0,-74.0,125.0,104.0,-8.0,-50.0,1
-209.0,-69.0,122.0,99.0,-15.0,-46.0,1
-206.0,-74.0,127.0,99.0,-23.0,-45.0,1
-207.0,-75.0,127.0,99.0,-33.0,-44.0,1
-208.0,-76.0,127.0,98.0,-38.0,-43.0,1
-207.0,-76.0,127.0,93.0,-40.0,-41.0,1
-208.0,-75.0,125.0,87.0,-45.0,-40.0,1
-207.0,-76.0,124.0,80.0,-44.0,-41.0,1
-207.0,-75.0,121.0,74.0,-41.0,-39.0,1
-206.0,-78.0,121.0,68.0,-36.0,-39.0,1
-208.0,-78.0,123.0,64.0,-34.0,-36.0,1
-206.0,-81.0,123.0,59.0,-33.0,-33.0,1
-206.0,-80.0,110.0,58.0,-34.0,-31.0,1
-204.0,-82.0,114.0,56.0,-32.0,-31.0,1
-208.0,-82.0,115.0,54.0,-29.0,-31.0,1
-209.0,-84.0,119.0,51.0,-31.0,-35.0,1
-205.0,-83.0,113.0,49.0,-31.0,-42.0,1
-211.0,-83.0,114.0,51.0,-31.0,-50.0,1
-206.0,-87.0,113.0,54.0,-27.0,-56.0,1
-205.0,-88.0,115.0,54.0,-21.0,-62.0,1
-206.0,-87.0,113.0,58.0,-17.0,-67.0,1
-204.0,-87.0,115.0,65.0,-17.0,-67.0,1
-207.0,-87.0,110.0,74.0,-15.0,-66.0,1
-204.0,-87.0,108.0,78.0,-15.0,-61.0,1
-206.0,-85.0,113.0,86.0,-17.0,-56.0,1
-204.0,-87.0,112.0,89.0,-21.0,-50.0,1
-202.0,-84.0,112.0,90.0,-29.0,-45.0,1
-203.0,-83.0,111.0,91.0,-33.0,-42.0,1
-204.0,-82.0,112.0,89.0,-41.0,-41.0,1
-199.0,-83.0,111.0,86.0,-48.0,-37.0,1
-204.0,-84.0,111.0,82.0,-55.0,-37.0,1
-202.0,-84.0,111.0,81.0,-64.0,-37.0,1
-202.0,-83.0,114.0,76.0,-68.0,-40.0,1
-205.0,-83.0,108.0,72.0,-69.0,-38.0,1
-206.0,-84.0,111.0,68.0,-66.0,-38.0,1
-205.0,-87.0,115.0,64.0,-60.0,-35.0,1
-204.0,-86.0,113.0,58.0,-53.0,-31.0,1
-205.0,-84.0,113.0,57.0,-49.0,-31.0,1
-203.0,-87.0,114.0,57.0,-43.0,-31.0,1
-203.0,-87.0,114.0,58.0,-37.0,-28.0,1
-203.0,-85.0,114.0,60.0,-32.0,-26.0,1
-204.0,-85.0,116.0,59.0,-26.0,-22.0,1
-204.0,-89.0,115.0,58.0,-23.0,-19.0,1
-205.0,-90.0,113.0,59.0,-23.0,-20.0,1
-206.0,-90.0,115.0,59.0,-24.0,-18.0,1
-207.0,-88.0,118.0,62.0,-26.0,-19.0,1
-209.0,-87.0,115.0,61.0,-28.0,-21.0,1
-204.0,-88.0,118.0,61.0,-29.0,-22.0,1
-201.0,-91.0,113.0,65.0,-27.0,-25.0,1
-206.0,-88.0,116.0,70.0,-27.0,-24.0,1
-205.0,-89.0,115.0,79.0,-29.0,-25.0,1
-207.0,-87.0,117.0,87.0,-30.0,-25.0,1
-204.0,-83.0,118.0,95.0,-29.0,-23.0,1
-201.0,-81.0,117.0,101.0,-27.0,-19.0,1
-205.0,-82.0,116.0,103.0,-27.0,-14.0,1
-206.0,-82.0,120.0,105.0,-24.0,-11.0,1
-203.0,-89.0,131.0,105.0,-18.0,-8.0,1
-204.0,-85.0,120.0,104.0,-14.0,-5.0,1
-204.0,-83.0,121.0,104.0,-10.0,-3.0,1
-203.0,-85.0,120.0,103.0,-6.0,-1.0,1
-201.0,-86.0,118.0,99.0,-2.0,-2.0,1
-201.0,-84.0,118.0,93.0,4.0,-2.0,1
-202.0,-81.0,118.0,91.0,9.0,-5.0,1
-200.0,-85.0,118.0,90.0,12.0,-9.0,1
-203.0,-85.0,122.0,90.0,14.0,-12.0,1
-205.0,-87.0,126.0,91.0,14.0,-13.0,1
-202.0,-84.0,121.0,89.0,11.0,-13.0,1
-205.0,-84.0,122.0,89.0,9.0,-14.0,1
-204.0,-81.0,119.0,89.0,7.0,-14.0,1
-204.0,-83.0,118.0,91.0,4.0,-13.0,1
-203.0,-82.0,119.0,95.0,3.0,-13.0,1
-206.0,-82.0,115.0,98.0,3.0,-11.0,1
-205.0,-80.0,119.0,99.0,3.0,-12.0,1
-203.0,-82.0,119.0,100.0,1.0,-12.0,1
-209.0,-80.0,118.0,99.0,-1.0,-10.0,1
-207.0,-80.0,117.0,95.0,-3.0,-7.0,1
-209.0,-80.0,116.0,92.0,-3.0,-5.0,1
-203.0,-79.0,123.0,87.0,-2.0,-4.0,1
-206.0,-87.0,122.0,84.0,-2.0,-2.0,1
-207.0,-79.0,122.0,83.0,2.0,-2.0,1
-205.0,-80.0,118.0,79.0,3.0,2.0,1
-204.0,-79.0,120.0,78.0,5.0,1.0,1
-205.0,-76.0,121.0,77.0,5.0,2.0,1
-205.0,-81.0,117.0,73.0,5.0,1.0,1
-204.0,-80.0,121.0,71.0,4.0,0.0,1
-207.0,-77.0,120.0,68.0,2.0,0.0,1
-205.0,-80.0,121.0,65.0,0.0,-2.0,1
-207.0,-82.0,118.0,64.0,-1.0,0.0,1
-206.0,-83.0,120.0,63.0,-3.0,-4.0,1
-209.0,-77.0,114.0,63.0,-3.0,-5.0,1
-204.0,-83.0,121.0,66.0,-5.0,-5.0,1
-205.0,-80.0,117.0,70.0,-8.0,-6.0,1
-203.0,-82.0,119.0,72.0,-9.0,-7.0,1
-204.0,-84.0,125.0,72.0,-10.0,-4.0,1
-204.0,-85.0,123.0,72.0,-10.0,-3.0,1
-203.0,-82.0,124.0,72.0,-11.0,-4.0,1
-204.0,-77.0,120.0,73.0,-10.0,-6.0,1
-206.0,-77.0,118.0,74.0,-7.0,-5.0,1
-205.0,-80.0,121.0,74.0,-3.0,-6.0,1
-210.0,-83.0,124.0,75.0,-2.0,-7.0,1
-202.0,-83.0,124.0,73.0,-1.0,-6.0,1
-206.0,-81.0,120.0,70.0,0.0,-7.0,1
-205.0,-80.0,120.0,68.0,0.0,-8.0,1
-205.0,-78.0,123.0,66.0,1.0,-9.0,1
-201.0,-84.0,122.0,65.0,1.0,-9.0,1
-204.0,-79.0,118.0,67.0,-1.0,-11.0,1
-204.0,-80.0,116.0,69.0,0.0,-12.0,1
-198.0,-84.0,119.0,69.0,0.0,-11.0,1
-204.0,-83.0,116.0,69.0,-1.0,-12.0,1
-200.0,-81.0,120.0,68.0,-3.0,-11.0,1
-203.0,-79.0,115.0,69.0,-3.0,-12.0,1
-202.0,-81.0,119.0,70.0,-7.0,-14.0,1
-208.0,-83.0,124.0,68.0,-8.0,-14.0,1
-203.0,-82.0,124.0,67.0,-10.0,-17.0,1
-205.0,-83.0,123.0,65.0,-9.0,-17.0,1
-204.0,-82.0,127.0,63.0,-9.0,-16.0,1
-204.0,-84.0,121.0,61.0,-7.0,-17.0,1
-207.0,-85.0,119.0,61.0,-4.0,-17.0,1
-202.0,-82.0,122.0,62.0,-1.0,-18.0,1
-205.0,-84.0,124.0,61.0,2.0,-16.0,1
-204.0,-79.0,118.0,62.0,4.0,-18.0,1
-206.0,-80.0,118.0,62.0,5.0,-15.0,1
-203.0,-85.0,123.0,62.0,7.0,-14.0,1
-205.0,-81.0,119.0,64.0,8.0,-16.0,1
-202.0,-83.0,118.0,64.0,8.0,-16.0,1
-202.0,-83.0,122.0,66.0,10.0,-17.0,1
-206.0,-82.0,114.0,70.0,10.0,-17.0,1
-202.0,-80.0,120.0,74.0,9.0,-17.0,1
-203.0,-79.0,117.0,77.0,8.0,-18.0,1
-203.0,-76.0,122.0,79.0,7.0,-19.0,1
-203.0,-83.0,118.0,80.0,4.0,-18.0,1
-203.0,-79.0,122.0,79.0,1.0,-17.0,1
-201.0,-80.0,125.0,77.0,-1.0,-18.0,1
-204.0,-81.0,119.0,77.0,-4.0,-19.0,1
-202.0,-82.0,121.0,73.0,-5.0,-16.0,1
-203.0,-82.0,119.0,72.0,-8.0,-15.0,1
-203.0,-83.0,121.0,73.0,-7.0,-11.0,1
-204.0,-82.0,123.0,70.0,-6.0,-11.0,1
-204.0,-85.0,121.0,69.0,-6.0,-11.0,1
-205.0,-85.0,120.0,67.0,-4.0,-10.0,1
-202.0,-82.0,116.0,67.0,-1.0,-10.0,1
-206.0,-83.0,120.0,67.0,3.0,-10.0,1
-203.0,-81.0,125.0,68.0,8.0,-10.0,1
-202.0,-73.0,115.0,72.0,12.0,-10.0,1
-204.0,-79.0,119.0,76.0,13.0,-13.0,1
-201.0,-83.0,121.0,80.0,13.0,-16.0,1
-201.0,-81.0,121.0,81.0,14.0,-16.0,1
-205.0,-80.0,121.0,79.0,14.0,-13.0,1
-202.0,-81.0,120.0,75.0,13.0,-12.0,1
-204.0,-81.0,122.0,69.0,11.0,-10.0,1
-201.0,-84.0,115.0,64.0,9.0,-9.0,1
-203.0,-81.0,124.0,61.0,9.0,-7.0,1
-205.0,-83.0,121.0,58.0,9.0,-8.0,1
-203.0,-81.0,120.0,56.0,8.0,-9.0,1
-206.0,-83.0,121.0,54.0,8.0,-9.0,1
-201.0,-84.0,122.0,53.0,7.0,-8.0,1
-204.0,-81.0,125.0,53.0,7.0,-8.0,1
-204.0,-80.0,123.0,53.0,6.0,-10.0,1
-206.0,-80.0,122.0,53.0,5.0,-9.0,1
-201.0,-82.0,123.0,53.0,6.0,-10.0,1
-201.0,-81.0,124.0,52.0,5.0,-8.0,1
-202.0,-82.0,122.0,53.0,5.0,-8.0,1
-204.0,-82.0,119.0,53.0,6.0,-8.0,1
-205.0,-79.0,116.0,53.0,7.0,-7.0,1
-204.0,-80.0,123.0,53.0,10.0,-7.0,1
-209.0,-81.0,114.0,54.0,9.0,-7.0,1
-203.0,-81.0,120.0,55.0,10.0,-9.0,1
-208.0,-79.0,123.0,56.0,11.0,-11.0,1
-203.0,-81.0,120.0,56.0,11.0,-9.0,1
-205.0,-78.0,124.0,56.0,11.0,-12.0,1
-204.0,-81.0,119.0,54.0,11.0,-13.0,1
-207.0,-82.0,115.0,55.0,10.0,-13.0,1
-202.0,-84.0,125.0,56.0,7.0,-13.0,1
-200.0,-82.0,120.0,58.0,3.0,-12.0,1
-203.0,-81.0,120.0,61.0,2.0,-11.0,1
-200.0,-79.0,122.0,63.0,0.0,-10.0,1
-205.0,-77.0,116.0,70.0,-4.0,-8.0,1
-206.0,-79.0,123.0,75.0,-5.0,-8.0,1
-207.0,-82.0,119.0,79.0,-7.0,-7.0,1
-202.0,-83.0,117.0,82.0,-8.0,-7.0,1
-202.0,-82.0,120.0,84.0,-12.0,-9.0,1
-207.0,-80.0,125.0,86.0,-13.0,-9.0,1
-203.0,-82.0,121.0,89.0,-12.0,-7.0,1
-205.0,-83.0,122.0,92.0,-10.0,-8.0,1
-203.0,-82.0,121.0,91.0,-8.0,-9.0,1
-205.0,-78.0,121.0,90.0,-3.0,-8.0,1
-203.0,-82.0,122.0,88.0,2.0,-8.0,1
-207.0,-88.0,127.0,88.0,6.0,-6.0,1
-204.0,-83.0,122.0,85.0,11.0,-5.0,1
-204.0,-77.0,123.0,82.0,14.0,-4.0,1
-203.0,-80.0,124.0,79.0,18.0,-1.0,1
-201.0,-78.0,125.0,76.0,16.0,-2.0,1
-204.0,-75.0,122.0,72.0,17.0,0.0,1
-200.0,-79.0,122.0,68.0,17.0,-2.0,1
-201.0,-82.0,126.0,63.0,15.0,1.0,1
-201.0,-79.0,125.0,60.0,10.0,-1.0,1
-200.0,-81.0,125.0,59.0,8.0,-1.0,1
-201.0,-83.0,123.0,56.0,5.0,-3.0,1
-204.0,-81.0,122.0,54.0,2.0,-5.0,1
-202.0,-77.0,120.0,54.0,1.0,-8.0,1
-199.0,-82.0,122.0,54.0,-2.0,-10.0,1
-203.0,-77.0,120.0,55.0,-3.0,-11.0,1
-203.0,-83.0,126.0,56.0,-3.0,-13.0,1
-201.0,-80.0,120.0,57.0,-5.0,-15.0,1
-208.0,-82.0,122.0,59.0,-5.0,-15.0,1
-207.0,-78.0,119.0,61.0,-2.0,-17.0,1
-205.0,-82.0,122.0,62.0,2.0,-16.0,1
-203.0,-83.0,124.0,63.0,4.0,-15.0,1
-205.0,-79.0,121.0,65.0,7.0,-14.0,1
-201.0,-82.0,124.0,66.0,9.0,-15.0,1
-204.0,-79.0,121.0,66.0,10.0,-11.0,1
-203.0,-79.0,121.0,64.0,13.0,-12.0,1
-202.0,-79.0,119.0,62.0,13.0,-10.0,1
-202.0,-80.0,121.0,61.0,14.0,-11.0,1
-202.0,-81.0,120.0,58.0,15.0,-11.0,1
-203.0,-80.0,124.0,54.0,15.0,-10.0,1
-201.0,-79.0,121.0,52.0,13.0,-11.0,1
-203.0,-80.0,120.0,52.0,10.0,-12.0,1
-204.0,-81.0,117.0,50.0,7.0,-12.0,1
-208.0,-83.0,119.0,49.0,4.0,-11.0,1
-201.0,-81.0,121.0,49.0,3.0,-12.0,1
-203.0,-82.0,124.0,49.0,0.0,-12.0,1
-204.0,-78.0,121.0,49.0,-2.0,-12.0,1
-203.0,-80.0,122.0,50.0,-3.0,-13.0,1
-204.0,-83.0,122.0,52.0,-6.0,-11.0,1
-201.0,-81.0,120.0,52.0,-6.0,-10.0,1
-206.0,-81.0,122.0,53.0,-3.0,-11.0,1
-200.0,-83.0,123.0,53.0,-1.0,-12.0,1
-201.0,-82.0,122.0,52.0,1.0,-11.0,1
-203.0,-78.0,121.0,50.0,6.0,-10.0,1
-211.0,-78.0,120.0,49.0,9.0,-11.0,1
-201.0,-82.0,121.0,47.0,13.0,-10.0,1
-203.0,-79.0,123.0,45.0,15.0,-8.0,1
-202.0,-81.0,118.0,45.0,16.0,-8.0,1
-201.0,-84.0,122.0,44.0,15.0,-10.0,1
-202.0,-79.0,121.0,45.0,14.0,-9.0,1
-203.0,-80.0,124.0,43.0,13.0,-10.0,1
-203.0,-81.0,122.0,45.0,12.0,-12.0,1
-202.0,-78.0,120.0,44.0,10.0,-13.0,1
-204.0,-83.0,121.0,45.0,9.0,-12.0,1
-201.0,-81.0,115.0,46.0,8.0,-13.0,1
-205.0,-77.0,128.0,47.0,8.0,-13.0,1
-206.0,-78.0,124.0,49.0,9.0,-14.0,1
-202.0,-83.0,120.0,50.0,8.0,-12.0,1
-203.0,-81.0,122.0,49.0,7.0,-13.0,1
-204.0,-82.0,126.0,50.0,7.0,-11.0,1
-205.0,-82.0,126.0,50.0,7.0,-10.0,1
-201.0,-82.0,121.0,50.0,7.0,-11.0,1
-201.0,-82.0,123.0,49.0,7.0,-10.0,1
-203.0,-81.0,121.0,48.0,8.0,-10.0,1
-205.0,-81.0,117.0,48.0,9.0,-10.0,1
-203.0,-83.0,126.0,47.0,11.0,-9.0,1
-202.0,-87.0,125.0,45.0,12.0,-11.0,1
-202.0,-83.0,124.0,44.0,13.0,-11.0,1
-203.0,-80.0,123.0,45.0,13.0,-8.0,1
-201.0,-79.0,121.0,43.0,13.0,-7.0,1
-207.0,-79.0,122.0,42.0,16.0,-7.0,1
-204.0,-81.0,124.0,41.0,15.0,-7.0,1
-206.0,-80.0,121.0,41.0,15.0,-6.0,1
-205.0,-78.0,123.0,41.0,15.0,-6.0,1
-205.0,-81.0,124.0,39.0,15.0,-7.0,1
-203.0,-81.0,123.0,40.0,15.0,-7.0,1
-206.0,-77.0,121.0,39.0,13.0,-8.0,1
-204.0,-84.0,113.0,37.0,13.0,-10.0,1
-205.0,-79.0,120.0,37.0,13.0,-9.0,1
-202.0,-78.0,121.0,37.0,11.0,-10.0,1
-205.0,-81.0,125.0,37.0,9.0,-10.0,1
-201.0,-79.0,120.0,36.0,9.0,-10.0,1
-205.0,-76.0,125.0,34.0,7.0,-9.0,1
-203.0,-77.0,123.0,34.0,8.0,-8.0,1
-202.0,-85.0,122.0,32.0,7.0,-7.0,1
-202.0,-81.0,120.0,33.0,8.0,-9.0,1
-206.0,-77.0,118.0,33.0,8.0,-10.0,1
-208.0,-80.0,119.0,32.0,8.0,-10.0,1
-201.0,-82.0,123.0,31.0,9.0,-10.0,1
-202.0,-82.0,117.0,31.0,10.0,-10.0,1
-202.0,-78.0,121.0,31.0,11.0,-9.0,1
-204.0,-81.0,121.0,33.0,12.0,-9.0,1
-201.0,-81.0,119.0,36.0,11.0,-9.0,1
-204.0,-79.0,119.0,37.0,11.0,-10.0,1
-202.0,-83.0,124.0,37.0,10.0,-11.0,1
-201.0,-79.0,122.0,38.0,10.0,-13.0,1
-202.0,-80.0,122.0,36.0,8.0,-11.0,1
-201.0,-85.0,122.0,35.0,7.0,-10.0,1
-204.0,-80.0,124.0,34.0,6.0,-11.0,1
-205.0,-84.0,119.0,32.0,6.0,-11.0,1
-203.0,-80.0,115.0,31.0,6.0,-9.0,1
-203.0,-80.0,119.0,30.0,4.0,-9.0,1
-203.0,-79.0,123.0,28.0,5.0,-11.0,1
-207.0,-79.0,120.0,29.0,5.0,-11.0,1
-201.0,-84.0,121.0,30.0,7.0,-9.0,1
-201.0,-82.0,122.0,28.0,5.0,-10.0,1
-202.0,-81.0,124.0,30.0,6.0,-8.0,1
-201.0,-82.0,121.0,32.0,6.0,-8.0,1
-201.0,-81.0,121.0,34.0,6.0,-9.0,1
-204.0,-82.0,126.0,35.0,8.0,-11.0,1
-204.0,-83.0,120.0,35.0,8.0,-10.0,1
-200.0,-82.0,127.0,34.0,9.0,-10.0,1
-206.0,-80.0,119.0,34.0,9.0,-8.0,1
-205.0,-80.0,123.0,34.0,8.0,-9.0,1
-203.0,-82.0,125.0,31.0,8.0,-7.0,1
-203.0,-82.0,124.0,29.0,9.0,-7.0,1
-205.0,-80.0,122.0,25.0,10.0,-7.0,1
-206.0,-80.0,123.0,23.0,12.0,-5.0,1
-202.0,-80.0,123.0,21.0,13.0,-6.0,1
-204.0,-83.0,120.0,21.0,14.0,-4.0,1
-197.0,-84.0,127.0,20.0,15.0,-4.0,1
-203.0,-80.0,122.0,20.0,17.0,-6.0,1
-203.0,-82.0,123.0,20.0,15.0,-7.0,1
-201.0,-80.0,122.0,20.0,13.0,-8.0,1
-200.0,-85.0,121.0,21.0,13.0,-10.0,1
-205.0,-81.0,122.0,20.0,12.0,-10.0,1
-201.0,-79.0,119.0,21.0,12.0,-10.0,1
-201.0,-81.0,120.0,22.0,11.0,-12.0,1
-204.0,-78.0,122.0,22.0,10.0,-12.0,1
-201.0,-82.0,120.0,23.0,8.0,-12.0,1
-204.0,-80.0,119.0,24.0,7.0,-12.0,1
-202.0,-85.0,118.0,25.0,5.0,-11.0,1
-203.0,-79.0,122.0,25.0,4.0,-10.0,1
-205.0,-82.0,120.0,26.0,3.0,-11.0,1
-202.0,-81.0,123.0,25.0,1.0,-11.0,1
-202.0,-83.0,124.0,24.0,3.0,-11.0,1
-204.0,-82.0,120.0,21.0,4.0,-12.0,1
-203.0,-82.0,121.0,21.0,5.0,-12.0,1
-203.0,-83.0,118.0,23.0,6.0,-12.0,1
-205.0,-85.0,121.0,26.0,7.0,-12.0,1
-199.0,-84.0,119.0,29.0,9.0,-12.0,1
-201.0,-84.0,121.0,32.0,10.0,-10.0,1
-212.0,-79.0,122.0,34.0,12.0,-10.0,1
-201.0,-81.0,121.0,33.0,12.0,-8.0,1
-203.0,-81.0,120.0,35.0,12.0,-8.0,1
-204.0,-82.0,120.0,36.0,12.0,-8.0,1
-207.0,-81.0,119.0,34.0,11.0,-8.0,1
-205.0,-81.0,122.0,34.0,10.0,-8.0,1
-203.0,-81.0,119.0,34.0,11.0,-9.0,1
-203.0,-79.0,120.0,34.0,10.0,-8.0,1
-207.0,-80.0,121.0,39.0,10.0,-10.0,1
-204.0,-80.0,122.0,38.0,11.0,-8.0,1
-202.0,-80.0,125.0,38.0,10.0,-10.0,1
-197.0,-84.0,120.0,38.0,10.0,-9.0,1
-202.0,-84.0,125.0,36.0,9.0,-10.0,1
-199.0,-84.0,123.0,34.0,9.0,-9.0,1
-202.0,-81.0,124.0,34.0,9.0,-8.0,1
-202.0,-81.0,122.0,32.0,10.0,-9.0,1
-201.0,-82.0,124.0,31.0,8.0,-10.0,1
-201.0,-81.0,124.0,31.0,8.0,-9.0,1
-203.0,-83.0,122.0,30.0,9.0,-9.0,1
-202.0,-82.0,122.0,30.0,10.0,-8.0,1
-203.0,-84.0,122.0,31.0,9.0,-7.0,1
-202.0,-82.0,122.0,31.0,9.0,-6.0,1
-202.0,-84.0,121.0,31.0,10.0,-5.0,1
-204.0,-81.0,121.0,30.0,9.0,-7.0,1
-200.0,-83.0,123.0,31.0,10.0,-7.0,1
-204.0,-84.0,120.0,32.0,10.0,-10.0,1
-203.0,-80.0,124.0,35.0,11.0,-10.0,1
-202.0,-80.0,122.0,38.0,9.0,-12.0,1
-203.0,-83.0,122.0,40.0,12.0,-12.0,1
-201.0,-81.0,123.0,39.0,11.0,-13.0,1
-199.0,-83.0,117.0,40.0,11.0,-14.0,1
-200.0,-81.0,120.0,40.0,10.0,-14.0,1
-204.0,-82.0,121.0,38.0,10.0,-17.0,1
-202.0,-84.0,127.0,36.0,9.0,-15.0,1
-204.0,-84.0,124.0,35.0,9.0,-15.0,1
-204.0,-81.0,123.0,34.0,8.0,-17.0,1
-203.0,-82.0,124.0,31.0,9.0,-17.0,1
-201.0,-85.0,122.0,30.0,10.0,-15.0,1
-203.0,-82.0,121.0,28.0,10.0,-13.0,1
-201.0,-83.0,119.0,27.0,10.0,-13.0,1
-204.0,-82.0,123.0,28.0,11.0,-12.0,1
-201.0,-85.0,121.0,30.0,12.0,-10.0,1
-202.0,-83.0,124.0,32.0,11.0,-11.0,1
-207.0,-81.0,120.0,33.0,12.0,-10.0,1
-206.0,-83.0,121.0,34.0,12.0,-12.0,1
-202.0,-80.0,122.0,34.0,10.0,-10.0,1
-201.0,-83.0,123.0,35.0,10.0,-10.0,1
-204.0,-80.0,121.0,35.0,8.0,-12.0,1
-202.0,-81.0,120.0,37.0,7.0,-11.0,1
-200.0,-83.0,123.0,39.0,8.0,-10.0,1
-203.0,-83.0,121.0,41.0,8.0,-10.0,1
-202.0,-79.0,120.0,42.0,8.0,-11.0,1
-205.0,-84.0,122.0,42.0,8.0,-12.0,1
-206.0,-82.0,118.0,43.0,8.0,-12.0,1
-204.0,-82.0,120.0,44.0,12.0,-12.0,1
-201.0,-81.0,120.0,46.0,14.0,-14.0,1
-201.0,-82.0,121.0,48.0,15.0,-13.0,1
-202.0,-83.0,116.0,50.0,15.0,-12.0,1
-199.0,-81.0,117.0,51.0,14.0,-13.0,1
-203.0,-82.0,121.0,53.0,13.0,-12.0,1
-204.0,-82.0,121.0,52.0,11.0,-13.0,1
-203.0,-81.0,118.0,52.0,9.0,-14.0,1
-200.0,-82.0,121.0,51.0,6.0,-13.0,1
-203.0,-82.0,122.0,50.0,3.0,-12.0,1
-202.0,-86.0,121.0,51.0,1.0,-14.0,1
-205.0,-80.0,118.0,53.0,0.0,-14.0,1
-199.0,-85.0,117.0,56.0,0.0,-16.0,1
-199.0,-78.0,128.0,59.0,-1.0,-14.0,1
-204.0,-81.0,122.0,63.0,-1.0,-16.0,1
-204.0,-81.0,121.0,63.0,-1.0,-16.0,1
-201.0,-86.0,119.0,64.0,-1.0,-16.0,1
-203.0,-81.0,121.0,64.0,0.0,-16.0,1
-203.0,-86.0,122.0,62.0,0.0,-15.0,1
-201.0,-86.0,126.0,62.0,2.0,-15.0,1
-200.0,-83.0,122.0,61.0,4.0,-14.0,1
-203.0,-86.0,127.0,61.0,6.0,-12.0,1
-206.0,-81.0,117.0,61.0,8.0,-11.0,1
-200.0,-86.0,124.0,61.0,9.0,-10.0,1
-201.0,-81.0,119.0,62.0,10.0,-10.0,1
-204.0,-82.0,123.0,63.0,10.0,-7.0,1
-203.0,-83.0,120.0,63.0,10.0,-7.0,1
-201.0,-82.0,120.0,63.0,8.0,-9.0,1
-200.0,-86.0,119.0,62.0,7.0,-9.0,1
-203.0,-82.0,123.0,61.0,6.0,-10.0,1
-202.0,-83.0,122.0,62.0,5.0,-11.0,1
-203.0,-84.0,121.0,61.0,3.0,-12.0,1
-198.0,-83.0,121.0,63.0,4.0,-11.0,1
-203.0,-82.0,123.0,64.0,3.0,-11.0,1
-205.0,-83.0,122.0,64.0,1.0,-12.0,1
-203.0,-78.0,122.0,65.0,1.0,-12.0,1
-200.0,-86.0,120.0,64.0,1.0,-14.0,1
-200.0,-83.0,123.0,64.0,2.0,-13.0,1
-199.0,-81.0,119.0,63.0,3.0,-12.0,1
-204.0,-82.0,120.0,65.0,2.0,-13.0,1
-203.0,-88.0,123.0,65.0,2.0,-12.0,1
-203.0,-82.0,117.0,63.0,6.0,-12.0,1
-201.0,-86.0,126.0,63.0,7.0,-11.0,1
-201.0,-86.0,122.0,63.0,9.0,-10.0,1
-201.0,-85.0,117.0,63.0,10.0,-11.0,1
-202.0,-82.0,124.0,66.0,11.0,-10.0,1
-201.0,-80.0,123.0,66.0,11.0,-11.0,1
-199.0,-81.0,121.0,68.0,10.0,-12.0,1
-202.0,-84.0,121.0,68.0,9.0,-13.0,1
-203.0,-81.0,122.0,66.0,7.0,-12.0,1
-201.0,-81.0,122.0,65.0,4.0,-14.0,1
-202.0,-80.0,121.0,64.0,2.0,-15.0,1
-202.0,-83.0,123.0,66.0,2.0,-15.0,1
-201.0,-86.0,121.0,66.0,0.0,-16.0,1
-202.0,-81.0,124.0,67.0,-1.0,-14.0,1
-208.0,-84.0,117.0,70.0,-1.0,-16.0,1
-206.0,-80.0,121.0,72.0,-1.0,-16.0,1
-200.0,-82.0,124.0,72.0,-2.0,-16.0,1
-203.0,-83.0,123.0,71.0,-1.0,-16.0,1
-202.0,-82.0,120.0,70.0,1.0,-16.0,1
-201.0,-79.0,123.0,67.0,1.0,-15.0,1
-202.0,-84.0,120.0,66.0,1.0,-15.0,1
-199.0,-83.0,125.0,68.0,4.0,-11.0,1
-207.0,-83.0,121.0,68.0,4.0,-10.0,1
-204.0,-83.0,121.0,69.0,6.0,-12.0,1
-203.0,-81.0,120.0,69.0,6.0,-14.0,1
-208.0,-79.0,114.0,68.0,8.0,-13.0,1
-203.0,-83.0,122.0,69.0,7.0,-12.0,1
-202.0,-81.0,122.0,70.0,7.0,-11.0,1
-200.0,-81.0,123.0,69.0,10.0,-10.0,1
-202.0,-79.0,119.0,68.0,9.0,-10.0,1
-203.0,-78.0,125.0,66.0,8.0,-9.0,1
-201.0,-82.0,123.0,67.0,8.0,-9.0,1
-203.0,-78.0,120.0,64.0,8.0,-9.0,1
-206.0,-81.0,126.0,61.0,6.0,-8.0,1
-202.0,-84.0,117.0,60.0,6.0,-8.0,1
-200.0,-82.0,121.0,57.0,5.0,-8.0,1
-201.0,-85.0,125.0,56.0,4.0,-10.0,1
-201.0,-83.0,118.0,56.0,2.0,-14.0,1
-200.0,-82.0,121.0,57.0,2.0,-14.0,1
-200.0,-82.0,124.0,59.0,1.0,-14.0,1
-202.0,-82.0,126.0,61.0,0.0,-15.0,1
-199.0,-83.0,120.0,61.0,1.0,-17.0,1
-205.0,-81.0,120.0,62.0,1.0,-15.0,1
-204.0,-82.0,120.0,62.0,3.0,-13.0,1
-205.0,-81.0,121.0,62.0,4.0,-13.0,1
-201.0,-79.0,119.0,63.0,5.0,-11.0,1
-203.0,-76.0,120.0,65.0,7.0,-11.0,1
-203.0,-88.0,119.0,65.0,5.0,-12.0,1
-203.0,-82.0,120.0,68.0,3.0,-13.0,1
-205.0,-82.0,121.0,69.0,3.0,-14.0,1
-204.0,-80.0,122.0,70.0,1.0,-13.0,1
-203.0,-81.0,123.0,70.0,0.0,-11.0,1
-199.0,-83.0,125.0,70.0,0.0,-9.0,1
-200.0,-84.0,123.0,70.0,-1.0,-11.0,1
-201.0,-81.0,118.0,70.0,-2.0,-12.0,1
-200.0,-82.0,119.0,71.0,-1.0,-13.0,1
-200.0,-84.0,116.0,73.0,-2.0,-13.0,1
-203.0,-82.0,119.0,76.0,-5.0,-13.0,1
-203.0,-82.0,119.0,78.0,-6.0,-13.0,1
-201.0,-84.0,123.0,80.0,-7.0,-12.0,1
-201.0,-84.0,122.0,80.0,-10.0,-10.0,1
-201.0,-83.0,122.0,81.0,-9.0,-10.0,1
-201.0,-84.0,125.0,79.0,-10.0,-9.0,1
-201.0,-86.0,124.0,80.0,-10.0,-6.0,1
-203.0,-82.0,121.0,80.0,-10.0,-5.0,1
-200.0,-81.0,121.0,83.0,-7.0,-2.0,1
-203.0,-83.0,119.0,86.0,-5.0,-1.0,1
-199.0,-81.0,121.0,87.0,-5.0,-3.0,1
-202.0,-81.0,125.0,88.0,-1.0,-1.0,1
-203.0,-83.0,121.0,89.0,1.0,-1.0,1
-201.0,-82.0,123.0,87.0,0.0,-1.0,1
-201.0,-81.0,122.0,84.0,0.0,-1.0,1
-200.0,-81.0,125.0,79.0,1.0,-1.0,1
-201.0,-80.0,123.0,72.0,4.0,-1.0,1
-202.0,-82.0,124.0,70.0,4.0,-4.0,1
-203.0,-84.0,124.0,66.0,4.0,-5.0,1
-202.0,-79.0,124.0,61.0,3.0,-5.0,1
-202.0,-81.0,126.0,59.0,5.0,-5.0,1
-201.0,-79.0,124.0,57.0,5.0,-6.0,1
-200.0,-77.0,126.0,57.0,5.0,-5.0,1
-198.0,-79.0,122.0,57.0,4.0,-4.0,1
-203.0,-80.0,125.0,60.0,3.0,-5.0,1
-202.0,-81.0,125.0,62.0,3.0,-6.0,1
-204.0,-79.0,123.0,62.0,2.0,-6.0,1
-205.0,-83.0,122.0,64.0,1.0,-7.0,1
-199.0,-83.0,123.0,66.0,2.0,-9.0,1
-204.0,-79.0,121.0,68.0,3.0,-13.0,1
-203.0,-82.0,123.0,69.0,4.0,-11.0,1
-201.0,-79.0,122.0,68.0,3.0,-12.0,1
-203.0,-77.0,123.0,67.0,3.0,-13.0,1
-204.0,-78.0,120.0,69.0,4.0,-14.0,1
-201.0,-78.0,119.0,70.0,3.0,-15.0,1
-203.0,-80.0,126.0,70.0,2.0,-14.0,1
-205.0,-80.0,126.0,70.0,1.0,-15.0,1
-202.0,-80.0,126.0,67.0,-2.0,-15.0,1
-202.0,-83.0,125.0,66.0,-2.0,-13.0,1
-201.0,-81.0,126.0,66.0,-2.0,-11.0,1
-200.0,-80.0,122.0,67.0,-2.0,-12.0,1
-203.0,-82.0,124.0,67.0,-2.0,-10.0,1
-202.0,-81.0,125.0,68.0,-1.0,-11.0,1
-203.0,-84.0,129.0,70.0,0.0,-11.0,1
-205.0,-82.0,128.0,71.0,1.0,-10.0,1
-201.0,-83.0,124.0,70.0,0.0,-9.0,1
-202.0,-79.0,123.0,69.0,1.0,-10.0,1
-203.0,-81.0,121.0,69.0,3.0,-9.0,1
-203.0,-78.0,122.0,68.0,3.0,-9.0,1
-198.0,-83.0,123.0,68.0,2.0,-9.0,1
-202.0,-82.0,126.0,67.0,1.0,-8.0,1
-201.0,-83.0,124.0,66.0,1.0,-9.0,1
-202.0,-79.0,126.0,66.0,-1.0,-11.0,1
-201.0,-83.0,121.0,66.0,-2.0,-11.0,1
-201.0,-81.0,124.0,64.0,-2.0,-13.0,1
-202.0,-83.0,129.0,63.0,-2.0,-13.0,1
-199.0,-82.0,124.0,63.0,1.0,-13.0,1
-201.0,-79.0,123.0,63.0,2.0,-12.0,1
-201.0,-81.0,125.0,64.0,2.0,-12.0,1
-200.0,-82.0,124.0,65.0,3.0,-12.0,1
-201.0,-83.0,124.0,66.0,2.0,-10.0,1
-203.0,-82.0,126.0,66.0,1.0,-12.0,1
-202.0,-80.0,122.0,65.0,1.0,-14.0,1
-201.0,-82.0,124.0,65.0,2.0,-14.0,1
-201.0,-80.0,127.0,63.0,4.0,-13.0,1
-199.0,-82.0,122.0,63.0,5.0,-12.0,1
-195.0,-82.0,132.0,65.0,4.0,-13.0,1
-203.0,-79.0,127.0,66.0,5.0,-13.0,1
-200.0,-81.0,122.0,67.0,4.0,-14.0,1
-201.0,-81.0,123.0,67.0,4.0,-13.0,1
-201.0,-81.0,127.0,68.0,2.0,-12.0,1
-202.0,-80.0,125.0,68.0,2.0,-9.0,1
-201.0,-81.0,127.0,68.0,1.0,-11.0,1
-203.0,-81.0,124.0,68.0,0.0,-11.0,1
-200.0,-78.0,124.0,67.0,-1.0,-11.0,1
-201.0,-80.0,124.0,67.0,-1.0,-11.0,1
-202.0,-82.0,125.0,67.0,-1.0,-10.0,1
-204.0,-80.0,121.0,66.0,-1.0,-10.0,1
-198.0,-82.0,125.0,65.0,2.0,-9.0,1
-204.0,-80.0,121.0,65.0,3.0,-8.0,1
-203.0,-79.0,127.0,65.0,5.0,-9.0,1
-201.0,-81.0,129.0,63.0,8.0,-9.0,1
-200.0,-81.0,127.0,62.0,10.0,-9.0,1
-200.0,-80.0,124.0,59.0,10.0,-8.0,1
-200.0,-78.0,123.0,59.0,11.0,-6.0,1
-199.0,-81.0,125.0,58.0,12.0,-7.0,1
-201.0,-80.0,124.0,57.0,15.0,-4.0,1
-204.0,-79.0,125.0,60.0,16.0,-3.0,1
-205.0,-84.0,126.0,59.0,12.0,-5.0,1
-200.0,-79.0,125.0,57.0,11.0,-8.0,1
-199.0,-80.0,127.0,55.0,9.0,-9.0,1
-201.0,-82.0,121.0,53.0,8.0,-10.0,1
-201.0,-80.0,124.0,52.0,8.0,-10.0,1
-198.0,-81.0,125.0,52.0,7.0,-9.0,1
-201.0,-78.0,126.0,51.0,7.0,-10.0,1
-199.0,-82.0,124.0,53.0,7.0,-11.0,1
-200.0,-81.0,126.0,55.0,5.0,-11.0,1
-202.0,-81.0,127.0,57.0,5.0,-10.0,1
-201.0,-79.0,123.0,58.0,4.0,-11.0,1
-195.0,-82.0,127.0,57.0,3.0,-11.0,1
-202.0,-78.0,128.0,56.0,4.0,-12.0,1
-200.0,-81.0,121.0,53.0,5.0,-10.0,1
-201.0,-79.0,125.0,53.0,5.0,-11.0,1
-201.0,-82.0,126.0,51.0,8.0,-11.0,1
-200.0,-86.0,124.0,50.0,9.0,-11.0,1
-201.0,-81.0,124.0,51.0,11.0,-11.0,1
-200.0,-81.0,127.0,52.0,11.0,-10.0,1
-203.0,-81.0,122.0,51.0,11.0,-9.0,1
-201.0,-81.0,127.0,51.0,11.0,-9.0,1
-198.0,-79.0,123.0,52.0,12.0,-8.0,1
-207.0,-77.0,126.0,52.0,12.0,-9.0,1
-203.0,-83.0,127.0,53.0,12.0,-10.0,1
-203.0,-80.0,128.0,53.0,10.0,-9.0,1
-199.0,-82.0,122.0,52.0,9.0,-9.0,1
-200.0,-81.0,123.0,53.0,8.0,-11.0,1
-201.0,-77.0,122.0,54.0,8.0,-13.0,1
-202.0,-80.0,121.0,55.0,7.0,-13.0,1
-200.0,-81.0,129.0,54.0,7.0,-13.0,1
-202.0,-81.0,123.0,54.0,7.0,-14.0,1
-204.0,-79.0,126.0,54.0,7.0,-13.0,1
-199.0,-82.0,124.0,55.0,8.0,-13.0,1
-201.0,-85.0,124.0,54.0,9.0,-13.0,1
-199.0,-83.0,125.0,54.0,8.0,-12.0,1
-199.0,-81.0,126.0,55.0,9.0,-12.0,1
-201.0,-81.0,126.0,54.0,9.0,-13.0,1
-200.0,-78.0,126.0,54.0,9.0,-12.0,1
-203.0,-79.0,121.0,54.0,9.0,-11.0,1
-204.0,-80.0,124.0,53.0,11.0,-10.0,1
-204.0,-82.0,127.0,54.0,11.0,-12.0,1
-201.0,-78.0,127.0,52.0,13.0,-12.0,1
-200.0,-76.0,125.0,53.0,13.0,-12.0,1
-204.0,-75.0,132.0,53.0,13.0,-12.0,1
-201.0,-79.0,127.0,53.0,14.0,-12.0,1
-201.0,-82.0,125.0,51.0,14.0,-13.0,1
-202.0,-78.0,128.0,48.0,13.0,-11.0,1
-198.0,-82.0,123.0,45.0,13.0,-10.0,1
-200.0,-82.0,128.0,43.0,11.0,-10.0,1
-200.0,-79.0,123.0,40.0,11.0,-11.0,1
-199.0,-84.0,123.0,40.0,9.0,-8.0,1
-200.0,-82.0,123.0,38.0,7.0,-8.0,1
-201.0,-83.0,125.0,38.0,5.0,-9.0,1
-199.0,-85.0,125.0,40.0,6.0,-12.0,1
-200.0,-84.0,128.0,43.0,6.0,-12.0,1
-200.0,-80.0,128.0,45.0,6.0,-12.0,1
-202.0,-82.0,124.0,46.0,7.0,-11.0,1
-204.0,-79.0,125.0,47.0,9.0,-12.0,1
-203.0,-79.0,125.0,48.0,10.0,-11.0,1
-203.0,-82.0,127.0,48.0,11.0,-12.0,1
-203.0,-79.0,125.0,49.0,11.0,-12.0,1
-198.0,-81.0,127.0,47.0,11.0,-11.0,1
-203.0,-83.0,122.0,46.0,12.0,-14.0,1
-206.0,-79.0,128.0,45.0,13.0,-13.0,1
-201.0,-80.0,127.0,44.0,11.0,-16.0,1
-205.0,-84.0,121.0,41.0,12.0,-12.0,1
-203.0,-84.0,125.0,42.0,13.0,-12.0,1
-200.0,-83.0,123.0,43.0,13.0,-10.0,1
-198.0,-81.0,127.0,47.0,13.0,-8.0,1
-201.0,-80.0,125.0,50.0,12.0,-8.0,1
-201.0,-80.0,125.0,52.0,10.0,-9.0,1
-204.0,-81.0,126.0,54.0,9.0,-8.0,1
-200.0,-85.0,123.0,54.0,8.0,-9.0,1
-199.0,-82.0,125.0,52.0,6.0,-9.0,1
-201.0,-81.0,125.0,52.0,6.0,-8.0,1
-200.0,-84.0,122.0,52.0,5.0,-7.0,1
-201.0,-83.0,124.0,54.0,6.0,-8.0,1
-201.0,-82.0,125.0,55.0,5.0,-8.0,1
-203.0,-79.0,125.0,57.0,7.0,-8.0,1
-201.0,-80.0,126.0,57.0,9.0,-7.0,1
-201.0,-83.0,126.0,59.0,9.0,-6.0,1
-200.0,-80.0,123.0,59.0,9.0,-5.0,1
-201.0,-80.0,126.0,60.0,12.0,-6.0,1
-202.0,-81.0,127.0,57.0,13.0,-4.0,1
-198.0,-81.0,127.0,54.0,14.0,-5.0,1
-200.0,-80.0,127.0,52.0,15.0,-5.0,1
-201.0,-80.0,125.0,49.0,17.0,-6.0,1
-202.0,-82.0,123.0,45.0,17.0,-5.0,1
-197.0,-81.0,127.0,42.0,19.0,-6.0,1
-201.0,-77.0,127.0,39.0,19.0,-4.0,1
-199.0,-79.0,127.0,39.0,19.0,-3.0,1
-201.0,-82.0,126.0,38.0,18.0,-3.0,1
-200.0,-79.0,123.0,35.0,17.0,-4.0,1
-199.0,-79.0,128.0,36.0,18.0,-6.0,1
-201.0,-81.0,124.0,37.0,17.0,-8.0,1
-202.0,-78.0,124.0,39.0,17.0,-7.0,1
-199.0,-79.0,121.0,41.0,17.0,-10.0,1
-201.0,-79.0,124.0,42.0,18.0,-10.0,1
-199.0,-85.0,115.0,43.0,18.0,-10.0,1
-201.0,-80.0,124.0,43.0,17.0,-10.0,1
-200.0,-81.0,125.0,43.0,17.0,-10.0,1
-203.0,-77.0,123.0,43.0,17.0,-11.0,1
-201.0,-77.0,126.0,41.0,16.0,-11.0,1
-200.0,-81.0,125.0,40.0,16.0,-10.0,1
-201.0,-78.0,125.0,38.0,15.0,-11.0,1
-205.0,-80.0,126.0,36.0,14.0,-11.0,1
-204.0,-80.0,124.0,33.0,13.0,-10.0,1
-198.0,-79.0,123.0,31.0,13.0,-11.0,1
-200.0,-83.0,127.0,30.0,12.0,-12.0,1
-199.0,-83.0,122.0,29.0,12.0,-9.0,1
-199.0,-81.0,125.0,30.0,12.0,-10.0,1
-203.0,-80.0,124.0,30.0,12.0,-10.0,1
-201.0,-79.0,123.0,32.0,11.0,-12.0,1
-201.0,-83.0,125.0,35.0,11.0,-11.0,1
-200.0,-81.0,119.0,35.0,10.0,-12.0,1
-198.0,-80.0,123.0,37.0,11.0,-12.0,1
-202.0,-83.0,123.0,38.0,13.0,-12.0,1
-203.0,-81.0,122.0,39.0,12.0,-12.0,1
-201.0,-85.0,126.0,40.0,14.0,-13.0,1
-204.0,-81.0,126.0,38.0,15.0,-12.0,1
-196.0,-79.0,130.0,36.0,14.0,-14.0,1
-200.0,-82.0,125.0,35.0,15.0,-11.0,1
-205.0,-80.0,125.0,32.0,15.0,-11.0,1
-201.0,-78.0,127.0,31.0,15.0,-12.0,1
-198.0,-82.0,117.0,31.0,15.0,-14.0,1
-198.0,-82.0,125.0,29.0,16.0,-11.0,1
-200.0,-82.0,122.0,30.0,17.0,-11.0,1
-200.0,-84.0,126.0,33.0,17.0,-12.0,1
-200.0,-80.0,124.0,36.0,17.0,-12.0,1
-199.0,-80.0,126.0,37.0,16.0,-9.0,1
-201.0,-83.0,121.0,40.0,15.0,-11.0,1
-204.0,-86.0,123.0,40.0,13.0,-11.0,1
-200.0,-81.0,121.0,41.0,12.0,-11.0,1
-199.0,-82.0,123.0,40.0,11.0,-14.0,1
-201.0,-81.0,124.0,39.0,8.0,-14.0,1
-201.0,-82.0,128.0,39.0,7.0,-14.0,1
-200.0,-81.0,124.0,38.0,6.0,-13.0,1
-200.0,-81.0,126.0,37.0,6.0,-13.0,1
-200.0,-86.0,126.0,39.0,5.0,-14.0,1
-202.0,-83.0,121.0,40.0,5.0,-13.0,1
-204.0,-81.0,123.0,42.0,7.0,-13.0,1
-203.0,-83.0,129.0,43.0,9.0,-12.0,1
-202.0,-82.0,125.0,41.0,10.0,-11.0,1
-201.0,-80.0,126.0,40.0,14.0,-10.0,1
-202.0,-82.0,125.0,39.0,15.0,-11.0,1
-202.0,-80.0,127.0,36.0,15.0,-9.0,1
-203.0,-82.0,125.0,35.0,18.0,-11.0,1
-200.0,-81.0,126.0,33.0,17.0,-10.0,1
-201.0,-82.0,123.0,33.0,17.0,-9.0,1
-201.0,-80.0,128.0,32.0,17.0,-8.0,1
-199.0,-82.0,123.0,31.0,18.0,-8.0,1
-200.0,-80.0,121.0,31.0,17.0,-9.0,1
-203.0,-83.0,123.0,32.0,16.0,-8.0,1
-199.0,-82.0,127.0,30.0,16.0,-8.0,1
-200.0,-81.0,126.0,31.0,15.0,-9.0,1
-203.0,-79.0,127.0,30.0,14.0,-10.0,1
-200.0,-80.0,124.0,31.0,11.0,-11.0,1
-200.0,-83.0,125.0,31.0,12.0,-10.0,1
-199.0,-81.0,124.0,33.0,13.0,-11.0,1
-199.0,-82.0,126.0,32.0,11.0,-10.0,1
-201.0,-80.0,128.0,33.0,10.0,-9.0,1
-204.0,-82.0,125.0,35.0,10.0,-11.0,1
-200.0,-81.0,125.0,36.0,9.0,-12.0,1
-201.0,-82.0,125.0,37.0,9.0,-11.0,1
-199.0,-81.0,121.0,36.0,9.0,-9.0,1
-202.0,-79.0,124.0,35.0,9.0,-12.0,1
-202.0,-82.0,126.0,35.0,10.0,-12.0,1
-207.0,-82.0,124.0,33.0,10.0,-10.0,1
-198.0,-83.0,121.0,33.0,12.0,-10.0,1
-202.0,-82.0,122.0,33.0,12.0,-8.0,1
-200.0,-82.0,125.0,33.0,14.0,-11.0,1
-201.0,-84.0,128.0,33.0,15.0,-9.0,1
-200.0,-84.0,125.0,35.0,15.0,-10.0,1
-200.0,-81.0,125.0,35.0,13.0,-10.0,1
-202.0,-80.0,124.0,35.0,14.0,-10.0,1
-202.0,-81.0,121.0,35.0,15.0,-9.0,1
-201.0,-79.0,125.0,36.0,15.0,-10.0,1
-196.0,-85.0,125.0,37.0,14.0,-12.0,1
-199.0,-83.0,123.0,38.0,15.0,-11.0,1
-202.0,-81.0,127.0,39.0,15.0,-10.0,1
-200.0,-82.0,122.0,38.0,13.0,-10.0,1
-204.0,-80.0,122.0,40.0,15.0,-12.0,1
-198.0,-83.0,123.0,40.0,15.0,-11.0,1
-200.0,-82.0,126.0,39.0,13.0,-12.0,1
-201.0,-84.0,126.0,38.0,13.0,-10.0,1
-201.0,-80.0,125.0,37.0,14.0,-12.0,1
-201.0,-84.0,123.0,36.0,15.0,-13.0,1
-202.0,-81.0,124.0,32.0,15.0,-10.0,1
-201.0,-80.0,120.0,30.0,14.0,-11.0,1
-203.0,-82.0,124.0,32.0,15.0,-10.0,1
-201.0,-81.0,122.0,33.0,16.0,-10.0,1
-203.0,-82.0,125.0,36.0,16.0,-10.0,1
-202.0,-82.0,124.0,38.0,16.0,-10.0,1
-199.0,-82.0,122.0,39.0,15.0,-10.0,1
-201.0,-79.0,123.0,39.0,14.0,-9.0,1
-201.0,-81.0,122.0,40.0,13.0,-9.0,1
-197.0,-84.0,117.0,40.0,12.0,-11.0,1
-199.0,-81.0,122.0,43.0,13.0,-11.0,1
-202.0,-83.0,123.0,44.0,11.0,-13.0,1
-203.0,-80.0,124.0,45.0,10.0,-13.0,1
-197.0,-83.0,121.0,46.0,9.0,-13.0,1
-202.0,-83.0,123.0,46.0,9.0,-12.0,1
-202.0,-83.0,126.0,45.0,8.0,-13.0,1
-200.0,-82.0,124.0,46.0,9.0,-12.0,1
-203.0,-81.0,122.0,46.0,10.0,-12.0,1
-201.0,-85.0,122.0,47.0,10.0,-14.0,1
-204.0,-79.0,122.0,51.0,9.0,-14.0,1
-201.0,-82.0,122.0,53.0,10.0,-15.0,1
-202.0,-82.0,123.0,54.0,10.0,-15.0,1
-202.0,-82.0,124.0,54.0,10.0,-15.0,1
-202.0,-81.0,127.0,55.0,10.0,-17.0,1
-199.0,-83.0,125.0,58.0,10.0,-16.0,1
-200.0,-83.0,124.0,58.0,9.0,-16.0,1
-198.0,-82.0,125.0,58.0,8.0,-16.0,1
-199.0,-80.0,123.0,57.0,7.0,-16.0,1
-201.0,-82.0,124.0,57.0,7.0,-18.0,1
-199.0,-84.0,125.0,56.0,7.0,-18.0,1
-200.0,-83.0,122.0,54.0,9.0,-17.0,1
-203.0,-83.0,119.0,52.0,10.0,-16.0,1
-200.0,-82.0,125.0,51.0,11.0,-16.0,1
-198.0,-80.0,121.0,52.0,10.0,-16.0,1
-198.0,-82.0,126.0,53.0,10.0,-16.0,1
-201.0,-84.0,121.0,52.0,11.0,-17.0,1
-199.0,-83.0,125.0,52.0,8.0,-18.0,1
-201.0,-82.0,126.0,53.0,10.0,-16.0,1
-201.0,-81.0,123.0,55.0,10.0,-17.0,1
-202.0,-82.0,120.0,56.0,11.0,-16.0,1
-202.0,-81.0,124.0,57.0,11.0,-17.0,1
-201.0,-80.0,122.0,58.0,11.0,-15.0,1
-205.0,-81.0,119.0,59.0,11.0,-15.0,1
-203.0,-80.0,124.0,59.0,10.0,-16.0,1
-199.0,-81.0,125.0,61.0,10.0,-17.0,1
-203.0,-83.0,123.0,64.0,7.0,-16.0,1
-203.0,-83.0,127.0,65.0,7.0,-16.0,1
-202.0,-84.0,122.0,64.0,6.0,-15.0,1
-200.0,-82.0,125.0,65.0,6.0,-15.0,1
-199.0,-84.0,122.0,65.0,4.0,-13.0,1
-199.0,-85.0,120.0,64.0,4.0,-12.0,1
-200.0,-81.0,123.0,64.0,3.0,-11.0,1
-199.0,-83.0,124.0,67.0,1.0,-10.0,1
-197.0,-84.0,123.0,71.0,2.0,-11.0,1
-200.0,-84.0,123.0,75.0,2.0,-10.0,1
-199.0,-83.0,120.0,75.0,1.0,-8.0,1
-200.0,-82.0,124.0,77.0,1.0,-8.0,1
-202.0,-85.0,123.0,78.0,2.0,-7.0,1
-202.0,-81.0,126.0,79.0,2.0,-8.0,1
-202.0,-85.0,125.0,81.0,3.0,-8.0,1
-205.0,-81.0,126.0,81.0,4.0,-7.0,1
-203.0,-84.0,127.0,82.0,5.0,-7.0,1
-200.0,-83.0,124.0,83.0,7.0,-5.0,1
-200.0,-75.0,125.0,85.0,8.0,-4.0,1
-200.0,-81.0,125.0,82.0,9.0,-6.0,1
-200.0,-77.0,124.0,77.0,10.0,-4.0,1
-203.0,-80.0,123.0,75.0,11.0,-6.0,1
-198.0,-82.0,126.0,73.0,11.0,-5.0,1
-200.0,-81.0,125.0,69.0,12.0,-4.0,1
-199.0,-80.0,128.0,67.0,10.0,-5.0,1
-201.0,-81.0,125.0,66.0,10.0,-4.0,1
-203.0,-78.0,127.0,66.0,9.0,-4.0,1
-199.0,-81.0,129.0,64.0,7.0,-5.0,1
-203.0,-78.0,126.0,62.0,7.0,-6.0,1
-205.0,-88.0,129.0,61.0,6.0,-6.0,1
-200.0,-81.0,126.0,60.0,7.0,-7.0,1
-203.0,-79.0,124.0,61.0,7.0,-8.0,1
-198.0,-82.0,124.0,63.0,8.0,-8.0,1
-200.0,-81.0,127.0,64.0,8.0,-8.0,1
-201.0,-81.0,126.0,66.0,8.0,-10.0,1
-200.0,-81.0,125.0,69.0,9.0,-10.0,1
-199.0,-83.0,122.0,69.0,10.0,-12.0,1
-201.0,-83.0,122.0,71.0,9.0,-14.0,1
-200.0,-82.0,128.0,73.0,8.0,-14.0,1
-201.0,-82.0,124.0,72.0,8.0,-14.0,1
-198.0,-85.0,121.0,73.0,8.0,-16.0,1
-201.0,-78.0,127.0,71.0,7.0,-16.0,1
-201.0,-78.0,126.0,68.0,7.0,-17.0,1
-203.0,-78.0,124.0,69.0,6.0,-16.0,1
-203.0,-78.0,127.0,67.0,4.0,-14.0,1
-202.0,-80.0,126.0,66.0,4.0,-13.0,1
-203.0,-81.0,123.0,62.0,2.0,-13.0,1
-205.0,-78.0,124.0,60.0,2.0,-12.0,1
-202.0,-77.0,125.0,58.0,2.0,-11.0,1
-199.0,-84.0,128.0,58.0,0.0,-11.0,1
-201.0,-81.0,122.0,59.0,0.0,-13.0,1
-194.0,-83.0,119.0,60.0,1.0,-13.0,1
-201.0,-80.0,126.0,59.0,1.0,-15.0,1
-202.0,-83.0,126.0,60.0,2.0,-15.0,1
-200.0,-81.0,123.0,63.0,2.0,-18.0,1
-200.0,-83.0,125.0,62.0,2.0,-18.0,1
-199.0,-83.0,122.0,63.0,2.0,-18.0,1
-199.0,-78.0,126.0,64.0,0.0,-19.0,1
-201.0,-81.0,127.0,63.0,2.0,-20.0,1
-200.0,-81.0,124.0,64.0,0.0,-21.0,1
-202.0,-84.0,122.0,62.0,-3.0,-21.0,1
-203.0,-81.0,124.0,58.0,-4.0,-18.0,1
-203.0,-85.0,127.0,57.0,-6.0,-18.0,1
-205.0,-80.0,126.0,55.0,-5.0,-18.0,1
-200.0,-83.0,122.0,53.0,-4.0,-18.0,1
-200.0,-84.0,122.0,53.0,-1.0,-18.0,1
-199.0,-82.0,127.0,53.0,0.0,-18.0,1
-199.0,-83.0,123.0,58.0,1.0,-18.0,1
-199.0,-82.0,123.0,61.0,2.0,-17.0,1
-198.0,-83.0,124.0,64.0,1.0,-15.0,1
-200.0,-83.0,122.0,66.0,2.0,-17.0,1
-199.0,-80.0,122.0,68.0,1.0,-17.0,1
-201.0,-83.0,124.0,69.0,0.0,-17.0,1
-200.0,-83.0,124.0,69.0,-3.0,-17.0,1
-200.0,-79.0,126.0,71.0,-3.0,-18.0,1
-201.0,-80.0,123.0,70.0,-4.0,-18.0,1
-197.0,-78.0,124.0,71.0,-5.0,-18.0,1
-198.0,-81.0,127.0,74.0,-6.0,-19.0,1
-201.0,-81.0,125.0,74.0,-8.0,-20.0,1
-201.0,-80.0,126.0,71.0,-9.0,-18.0,1
-199.0,-83.0,127.0,69.0,-11.0,-19.0,1
-201.0,-81.0,128.0,66.0,-9.0,-20.0,1
-203.0,-80.0,128.0,64.0,-9.0,-19.0,1
-197.0,-80.0,124.0,64.0,-8.0,-19.0,1
-205.0,-76.0,121.0,62.0,-5.0,-18.0,1
-200.0,-79.0,128.0,60.0,-4.0,-17.0,1
-200.0,-83.0,119.0,61.0,-3.0,-17.0,1
-198.0,-82.0,126.0,62.0,0.0,-14.0,1
-203.0,-79.0,125.0,62.0,1.0,-13.0,1
-198.0,-83.0,127.0,60.0,2.0,-13.0,1
-200.0,-83.0,128.0,59.0,2.0,-10.0,1
-200.0,-79.0,126.0,58.0,3.0,-10.0,1
-198.0,-82.0,128.0,57.0,4.0,-9.0,1
-198.0,-84.0,121.0,57.0,4.0,-9.0,1
-201.0,-82.0,125.0,56.0,3.0,-9.0,1
-207.0,-81.0,126.0,55.0,3.0,-11.0,1
-197.0,-81.0,126.0,55.0,2.0,-11.0,1
-201.0,-83.0,128.0,55.0,0.0,-12.0,1
-198.0,-84.0,126.0,54.0,-1.0,-12.0,1
-200.0,-84.0,127.0,54.0,-1.0,-14.0,1
-200.0,-81.0,126.0,54.0,-1.0,-14.0,1
-201.0,-79.0,127.0,55.0,-1.0,-13.0,1
-199.0,-82.0,127.0,55.0,1.0,-13.0,1
-201.0,-79.0,124.0,57.0,1.0,-13.0,1
-198.0,-80.0,124.0,59.0,2.0,-13.0,1
-201.0,-80.0,123.0,60.0,4.0,-11.0,1
-204.0,-84.0,127.0,60.0,4.0,-11.0,1
-199.0,-82.0,126.0,62.0,3.0,-12.0,1
-200.0,-84.0,127.0,63.0,3.0,-10.0,1
-196.0,-82.0,128.0,63.0,4.0,-10.0,1
-198.0,-81.0,127.0,65.0,4.0,-13.0,1
-199.0,-82.0,126.0,63.0,4.0,-11.0,1
-200.0,-81.0,125.0,64.0,4.0,-12.0,1
-198.0,-81.0,124.0,64.0,2.0,-13.0,1
-198.0,-82.0,127.0,63.0,1.0,-13.0,1
-201.0,-82.0,125.0,64.0,1.0,-14.0,1
-200.0,-81.0,127.0,63.0,1.0,-12.0,1
-202.0,-83.0,127.0,64.0,0.0,-12.0,1
-200.0,-84.0,128.0,63.0,2.0,-12.0,1
-199.0,-81.0,126.0,62.0,1.0,-14.0,1
-198.0,-84.0,127.0,63.0,1.0,-11.0,1
-197.0,-80.0,127.0,64.0,1.0,-9.0,1
-199.0,-83.0,128.0,62.0,1.0,-9.0,1
-201.0,-82.0,125.0,62.0,0.0,-7.0,1
-199.0,-81.0,123.0,61.0,-1.0,-6.0,1
-201.0,-78.0,124.0,61.0,-1.0,-5.0,1
-200.0,-82.0,126.0,63.0,-2.0,-5.0,1
-200.0,-84.0,128.0,66.0,-2.0,-5.0,1
-199.0,-81.0,129.0,68.0,-3.0,-4.0,1
-200.0,-81.0,126.0,72.0,-4.0,-5.0,1
-200.0,-83.0,129.0,73.0,-4.0,-3.0,1
-197.0,-81.0,127.0,75.0,-3.0,-3.0,1
-200.0,-80.0,128.0,75.0,-2.0,-4.0,1
-200.0,-79.0,126.0,74.0,-1.0,-5.0,1
-200.0,-80.0,128.0,72.0,-1.0,-7.0,1
-198.0,-81.0,127.0,71.0,-1.0,-5.0,1
-201.0,-79.0,126.0,69.0,-1.0,-5.0,1
-197.0,-81.0,126.0,67.0,0.0,-7.0,1
-201.0,-83.0,127.0,66.0,0.0,-8.0,1
-200.0,-79.0,128.0,66.0,-1.0,-9.0,1
-198.0,-79.0,127.0,64.0,0.0,-7.0,1
-200.0,-79.0,129.0,62.0,0.0,-10.0,1
-199.0,-78.0,128.0,58.0,1.0,-11.0,1
-198.0,-81.0,127.0,59.0,1.0,-12.0,1
-201.0,-81.0,129.0,58.0,0.0,-15.0,1
-198.0,-80.0,127.0,58.0,2.0,-15.0,1
-199.0,-85.0,125.0,57.0,3.0,-13.0,1
-199.0,-81.0,126.0,56.0,4.0,-14.0,1
-207.0,-73.0,123.0,55.0,3.0,-13.0,1
-200.0,-82.0,126.0,56.0,4.0,-14.0,1
-200.0,-79.0,127.0,56.0,5.0,-14.0,1
-201.0,-81.0,127.0,55.0,6.0,-14.0,1
-199.0,-78.0,127.0,53.0,6.0,-13.0,1
-202.0,-80.0,126.0,51.0,7.0,-13.0,1
-198.0,-79.0,127.0,51.0,6.0,-11.0,1
-199.0,-79.0,126.0,50.0,9.0,-14.0,1
-202.0,-79.0,126.0,51.0,8.0,-12.0,1
-200.0,-82.0,123.0,50.0,6.0,-13.0,1
-199.0,-82.0,128.0,52.0,5.0,-14.0,1
-203.0,-77.0,124.0,53.0,5.0,-12.0,1
-195.0,-86.0,125.0,56.0,5.0,-13.0,1
-198.0,-80.0,124.0,57.0,3.0,-13.0,1
-200.0,-82.0,126.0,57.0,1.0,-14.0,1
-198.0,-82.0,125.0,61.0,-1.0,-20.0,1
-199.0,-81.0,125.0,62.0,-1.0,-17.0,1
-200.0,-84.0,128.0,59.0,-1.0,-15.0,1
-203.0,-78.0,128.0,57.0,-1.0,-13.0,1
-198.0,-82.0,125.0,53.0,-2.0,-13.0,1
-200.0,-82.0,128.0,51.0,-1.0,-11.0,1
-200.0,-81.0,127.0,50.0,-1.0,-11.0,1
-202.0,-85.0,130.0,47.0,-1.0,-11.0,1
-204.0,-83.0,121.0,48.0,0.0,-12.0,1
-200.0,-81.0,129.0,48.0,-2.0,-13.0,1
-198.0,-82.0,127.0,47.0,-2.0,-16.0,1
-199.0,-81.0,127.0,45.0,-2.0,-15.0,1
-198.0,-82.0,125.0,45.0,-1.0,-14.0,1
-202.0,-78.0,128.0,45.0,0.0,-16.0,1
-199.0,-81.0,127.0,44.0,2.0,-15.0,1
-201.0,-81.0,127.0,44.0,3.0,-13.0,1
-199.0,-79.0,127.0,43.0,3.0,-14.0,1
-203.0,-80.0,126.0,43.0,4.0,-13.0,1
-200.0,-78.0,127.0,43.0,5.0,-13.0,1
-202.0,-74.0,133.0,45.0,8.0,-13.0,1
-200.0,-81.0,126.0,46.0,9.0,-13.0,1
-198.0,-81.0,128.0,50.0,10.0,-12.0,1
-198.0,-84.0,126.0,52.0,13.0,-11.0,1
-198.0,-80.0,129.0,54.0,12.0,-10.0,1
-197.0,-82.0,128.0,56.0,13.0,-7.0,1
-198.0,-82.0,128.0,59.0,12.0,-6.0,1
-201.0,-80.0,125.0,63.0,12.0,-8.0,1
-199.0,-81.0,123.0,66.0,9.0,-8.0,1
-199.0,-82.0,126.0,67.0,8.0,-7.0,1
-199.0,-82.0,129.0,70.0,5.0,-9.0,1
-204.0,-84.0,129.0,70.0,2.0,-7.0,1
-201.0,-80.0,128.0,68.0,0.0,-9.0,1
-198.0,-81.0,126.0,71.0,-4.0,-8.0,1
-200.0,-80.0,127.0,71.0,-5.0,-8.0,1
-200.0,-82.0,126.0,71.0,-4.0,-8.0,1
-202.0,-80.0,128.0,73.0,-5.0,-7.0,1
-202.0,-80.0,125.0,74.0,-3.0,-6.0,1
-198.0,-78.0,125.0,76.0,-2.0,-6.0,1
-197.0,-83.0,125.0,78.0,1.0,-4.0,1
-202.0,-81.0,127.0,81.0,4.0,-2.0,1
-201.0,-80.0,129.0,81.0,7.0,-1.0,1
-202.0,-81.0,125.0,81.0,10.0,0.0,1
-198.0,-81.0,128.0,78.0,15.0,1.0,1
-201.0,-78.0,132.0,73.0,18.0,1.0,1
-197.0,-83.0,128.0,68.0,20.0,3.0,1
-196.0,-80.0,126.0,61.0,22.0,4.0,1
-197.0,-80.0,128.0,54.0,22.0,5.0,1
-198.0,-78.0,129.0,50.0,22.0,4.0,1
-198.0,-83.0,128.0,44.0,22.0,3.0,1
-199.0,-82.0,126.0,41.0,20.0,1.0,1
-198.0,-78.0,129.0,41.0,17.0,0.0,1
-198.0,-79.0,128.0,43.0,18.0,0.0,1
-202.0,-88.0,124.0,46.0,17.0,-2.0,1
-199.0,-77.0,127.0,48.0,17.0,-4.0,1
-201.0,-78.0,126.0,50.0,16.0,-4.0,1
-199.0,-84.0,127.0,53.0,15.0,-5.0,1
-199.0,-80.0,130.0,54.0,16.0,-6.0,1
-198.0,-81.0,128.0,56.0,16.0,-10.0,1
-202.0,-80.0,129.0,56.0,16.0,-9.0,1
-197.0,-79.0,129.0,55.0,18.0,-8.0,1
-198.0,-78.0,125.0,52.0,18.0,-6.0,1
-200.0,-77.0,130.0,51.0,20.0,-7.0,1
-198.0,-85.0,121.0,48.0,22.0,-6.0,1
-198.0,-80.0,125.0,46.0,23.0,-5.0,1
-200.0,-79.0,127.0,45.0,24.0,-4.0,1
-199.0,-80.0,126.0,43.0,22.0,-5.0,1
-201.0,-78.0,126.0,39.0,21.0,-4.0,1
-198.0,-79.0,124.0,37.0,21.0,-5.0,1
-200.0,-79.0,127.0,36.0,22.0,-5.0,1
-202.0,-79.0,124.0,34.0,23.0,-4.0,1
-199.0,-80.0,126.0,34.0,22.0,-4.0,1
-197.0,-83.0,125.0,34.0,20.0,-5.0,1
-196.0,-82.0,127.0,35.0,20.0,-6.0,1
-200.0,-87.0,129.0,37.0,19.0,-7.0,1
-199.0,-80.0,123.0,39.0,19.0,-7.0,1
-200.0,-81.0,127.0,40.0,19.0,-9.0,1
-199.0,-80.0,127.0,41.0,19.0,-9.0,1
-202.0,-79.0,124.0,42.0,19.0,-8.0,1
-201.0,-75.0,127.0,41.0,18.0,-9.0,1
-199.0,-83.0,125.0,38.0,18.0,-9.0,1
-202.0,-83.0,131.0,33.0,17.0,-11.0,1
-197.0,-83.0,130.0,30.0,18.0,-11.0,1
-200.0,-81.0,130.0,26.0,18.0,-11.0,1
-195.0,-81.0,131.0,24.0,19.0,-12.0,1
-204.0,-84.0,128.0,23.0,21.0,-11.0,1
-198.0,-83.0,124.0,23.0,20.0,-8.0,1
-198.0,-82.0,125.0,24.0,20.0,-7.0,1
-201.0,-79.0,127.0,26.0,22.0,-7.0,1
-198.0,-79.0,126.0,27.0,20.0,-6.0,1
-199.0,-81.0,127.0,27.0,19.0,-7.0,1
-201.0,-79.0,126.0,26.0,17.0,-8.0,1
-200.0,-82.0,128.0,27.0,16.0,-7.0,1
-200.0,-80.0,127.0,27.0,16.0,-6.0,1
-200.0,-82.0,125.0,26.0,14.0,-5.0,1
-200.0,-81.0,121.0,28.0,14.0,-5.0,1
-203.0,-75.0,127.0,28.0,15.0,-7.0,1
-200.0,-81.0,126.0,30.0,14.0,-8.0,1
-200.0,-80.0,127.0,32.0,14.0,-8.0,1
-198.0,-84.0,125.0,34.0,14.0,-6.0,1
-199.0,-82.0,129.0,35.0,14.0,-6.0,1
-198.0,-82.0,128.0,35.0,14.0,-7.0,1
-201.0,-81.0,126.0,35.0,14.0,-8.0,1
-200.0,-81.0,127.0,33.0,14.0,-9.0,1
-200.0,-80.0,122.0,32.0,14.0,-6.0,1
-198.0,-86.0,128.0,31.0,15.0,-7.0,1
-197.0,-82.0,129.0,28.0,17.0,-7.0,1
-205.0,-82.0,126.0,26.0,16.0,-7.0,1
-197.0,-81.0,124.0,22.0,17.0,-6.0,1
-199.0,-81.0,128.0,22.0,18.0,-5.0,1
-199.0,-82.0,126.0,21.0,19.0,-6.0,1
-199.0,-80.0,126.0,21.0,20.0,-6.0,1
-198.0,-83.0,127.0,20.0,21.0,-6.0,1
-198.0,-82.0,125.0,18.0,20.0,-7.0,1
-198.0,-83.0,125.0,18.0,20.0,-6.0,1
-200.0,-79.0,126.0,16.0,20.0,-9.0,1
-199.0,-81.0,126.0,17.0,18.0,-9.0,1
-198.0,-81.0,126.0,17.0,15.0,-10.0,1
-200.0,-80.0,129.0,17.0,15.0,-11.0,1
-197.0,-82.0,127.0,16.0,14.0,-11.0,1
-199.0,-81.0,127.0,16.0,14.0,-12.0,1
-200.0,-83.0,127.0,16.0,14.0,-12.0,1
-197.0,-83.0,127.0,17.0,15.0,-12.0,1
-198.0,-83.0,126.0,17.0,15.0,-11.0,1
-199.0,-83.0,124.0,17.0,15.0,-11.0,1
-198.0,-81.0,127.0,18.0,14.0,-11.0,1
-205.0,-81.0,127.0,18.0,15.0,-9.0,1
-202.0,-82.0,125.0,20.0,16.0,-6.0,1
-201.0,-83.0,128.0,20.0,15.0,-6.0,1
-202.0,-81.0,125.0,17.0,17.0,-5.0,1
-201.0,-86.0,126.0,15.0,17.0,-7.0,1
-199.0,-83.0,120.0,13.0,18.0,-7.0,1
-202.0,-77.0,128.0,12.0,19.0,-4.0,1
-206.0,-82.0,122.0,12.0,22.0,-7.0,1
-201.0,-83.0,135.0,14.0,21.0,-7.0,1
-198.0,-79.0,113.0,15.0,22.0,-6.0,1
-202.0,-80.0,128.0,16.0,22.0,-7.0,1
-200.0,-87.0,143.0,19.0,22.0,-8.0,1
-195.0,-83.0,121.0,21.0,24.0,-9.0,1
-198.0,-74.0,122.0,21.0,24.0,-9.0,1
-197.0,-85.0,126.0,21.0,22.0,-10.0,1
-201.0,-78.0,124.0,19.0,22.0,-11.0,1
-202.0,-82.0,126.0,18.0,22.0,-9.0,1
-200.0,-83.0,125.0,14.0,19.0,-9.0,1
-203.0,-84.0,129.0,13.0,20.0,-10.0,1
-198.0,-81.0,118.0,13.0,19.0,-10.0,1
-196.0,-80.0,129.0,13.0,20.0,-11.0,1
-198.0,-84.0,121.0,13.0,19.0,-10.0,1
-203.0,-92.0,126.0,15.0,20.0,-10.0,1
-203.0,-79.0,117.0,15.0,21.0,-8.0,1
-195.0,-86.0,125.0,16.0,21.0,-9.0,1
-200.0,-86.0,128.0,16.0,21.0,-9.0,1
-204.0,-83.0,117.0,18.0,21.0,-9.0,1
-200.0,-79.0,126.0,17.0,23.0,-10.0,1
-211.0,-86.0,124.0,18.0,23.0,-8.0,1
-204.0,-87.0,121.0,18.0,23.0,-7.0,1
-198.0,-83.0,126.0,17.0,23.0,-7.0,1
-202.0,-79.0,128.0,15.0,22.0,-7.0,1
-207.0,-87.0,127.0,15.0,23.0,-8.0,1
-202.0,-82.0,124.0,12.0,23.0,-9.0,1
-198.0,-83.0,126.0,10.0,22.0,-9.0,1
-201.0,-78.0,127.0,8.0,22.0,-11.0,1
-199.0,-83.0,122.0,7.0,22.0,-10.0,1
-202.0,-92.0,119.0,4.0,21.0,-9.0,1
-200.0,-85.0,126.0,5.0,21.0,-10.0,1
-198.0,-82.0,122.0,3.0,21.0,-8.0,1
-199.0,-81.0,128.0,3.0,22.0,-9.0,1
-200.0,-83.0,125.0,5.0,22.0,-9.0,1
-197.0,-85.0,120.0,9.0,23.0,-10.0,1
-201.0,-81.0,125.0,14.0,24.0,-10.0,1
-199.0,-86.0,122.0,18.0,25.0,-8.0,1
-198.0,-86.0,124.0,22.0,28.0,-9.0,1
-197.0,-79.0,126.0,25.0,28.0,-9.0,1
-199.0,-82.0,122.0,27.0,29.0,-7.0,1
-200.0,-83.0,124.0,30.0,29.0,-7.0,1
-200.0,-80.0,123.0,29.0,27.0,-8.0,1
-203.0,-83.0,123.0,29.0,28.0,-7.0,1
-205.0,-81.0,119.0,26.0,27.0,-7.0,1
-201.0,-84.0,124.0,24.0,27.0,-7.0,1
-198.0,-86.0,126.0,20.0,25.0,-5.0,1
-201.0,-83.0,126.0,15.0,24.0,-7.0,1
-198.0,-82.0,127.0,13.0,23.0,-9.0,1
-198.0,-85.0,120.0,13.0,23.0,-10.0,1
-199.0,-85.0,125.0,10.0,24.0,-10.0,1
-200.0,-85.0,124.0,14.0,19.0,-14.0,1
-202.0,-83.0,125.0,16.0,19.0,-14.0,1
-197.0,-83.0,125.0,18.0,18.0,-15.0,1
-200.0,-81.0,124.0,21.0,20.0,-14.0,1
-200.0,-82.0,125.0,20.0,19.0,-12.0,1
-198.0,-84.0,123.0,21.0,21.0,-11.0,1
-199.0,-84.0,123.0,19.0,22.0,-10.0,1
-205.0,-79.0,122.0,20.0,25.0,-9.0,1
-203.0,-84.0,124.0,19.0,26.0,-10.0,1
-202.0,-83.0,123.0,19.0,26.0,-10.0,1
-200.0,-82.0,114.0,20.0,24.0,-10.0,1
-199.0,-87.0,125.0,25.0,25.0,-11.0,1
-201.0,-80.0,125.0,26.0,21.0,-11.0,1
-199.0,-83.0,121.0,30.0,20.0,-13.0,1
-200.0,-85.0,122.0,30.0,18.0,-11.0,1
-200.0,-85.0,121.0,31.0,16.0,-11.0,1
-204.0,-84.0,125.0,32.0,14.0,-12.0,1
-200.0,-86.0,123.0,36.0,12.0,-12.0,1
-200.0,-84.0,124.0,40.0,10.0,-13.0,1
-200.0,-83.0,123.0,43.0,9.0,-13.0,1
-199.0,-87.0,118.0,46.0,8.0,-11.0,1
-200.0,-85.0,125.0,49.0,8.0,-11.0,1
-200.0,-84.0,126.0,50.0,10.0,-11.0,1
-200.0,-85.0,123.0,52.0,12.0,-12.0,1
-199.0,-87.0,126.0,52.0,13.0,-10.0,1
-200.0,-85.0,125.0,53.0,14.0,-12.0,1
-203.0,-84.0,124.0,53.0,17.0,-12.0,1
-199.0,-84.0,121.0,54.0,22.0,-10.0,1
-198.0,-82.0,123.0,54.0,22.0,-10.0,1
-196.0,-90.0,121.0,53.0,23.0,-10.0,1
-201.0,-83.0,126.0,51.0,24.0,-8.0,1
-197.0,-85.0,124.0,52.0,25.0,-10.0,1
-195.0,-84.0,127.0,52.0,24.0,-10.0,1
-199.0,-82.0,125.0,52.0,21.0,-9.0,1
-198.0,-81.0,124.0,54.0,18.0,-8.0,1
-199.0,-82.0,126.0,55.0,15.0,-8.0,1
-198.0,-83.0,125.0,57.0,13.0,-8.0,1
-200.0,-85.0,127.0,58.0,11.0,-8.0,1
-200.0,-81.0,123.0,62.0,9.0,-9.0,1
-200.0,-84.0,125.0,64.0,7.0,-9.0,1
-199.0,-85.0,127.0,67.0,5.0,-11.0,1
-202.0,-84.0,123.0,67.0,3.0,-13.0,1
-201.0,-81.0,125.0,68.0,3.0,-12.0,1
-202.0,-82.0,127.0,68.0,3.0,-12.0,1
-199.0,-83.0,125.0,68.0,3.0,-13.0,1
-199.0,-85.0,125.0,67.0,2.0,-13.0,1
-201.0,-81.0,125.0,68.0,3.0,-14.0,1
-200.0,-84.0,124.0,68.0,3.0,-16.0,1
-202.0,-82.0,126.0,69.0,3.0,-18.0,1
-201.0,-82.0,122.0,68.0,4.0,-18.0,1
-198.0,-83.0,125.0,70.0,3.0,-18.0,1
-200.0,-78.0,124.0,70.0,4.0,-18.0,1
-202.0,-80.0,126.0,70.0,3.0,-18.0,1
-200.0,-82.0,123.0,70.0,4.0,-17.0,1
-201.0,-85.0,123.0,71.0,4.0,-18.0,1
-203.0,-82.0,125.0,72.0,4.0,-17.0,1
-199.0,-85.0,125.0,73.0,5.0,-19.0,1
-199.0,-82.0,127.0,74.0,4.0,-18.0,1
-200.0,-82.0,125.0,75.0,4.0,-18.0,1
-199.0,-84.0,124.0,77.0,4.0,-17.0,1
-201.0,-84.0,122.0,78.0,5.0,-16.0,1
-199.0,-82.0,123.0,79.0,4.0,-15.0,1
-201.0,-84.0,125.0,81.0,5.0,-17.0,1
-200.0,-85.0,122.0,82.0,3.0,-14.0,1
-200.0,-83.0,126.0,83.0,4.0,-14.0,1
-196.0,-81.0,123.0,83.0,3.0,-13.0,1
-198.0,-84.0,126.0,84.0,1.0,-13.0,1
-203.0,-80.0,123.0,86.0,-1.0,-13.0,1
-199.0,-84.0,126.0,88.0,-2.0,-15.0,1
-200.0,-84.0,123.0,88.0,0.0,-16.0,1
-200.0,-84.0,125.0,90.0,-1.0,-16.0,1
-200.0,-83.0,122.0,90.0,0.0,-17.0,1
-202.0,-79.0,123.0,88.0,-1.0,-16.0,1
-201.0,-83.0,126.0,89.0,1.0,-18.0,1
-201.0,-81.0,124.0,88.0,2.0,-16.0,1
-204.0,-84.0,124.0,88.0,2.0,-17.0,1
-200.0,-86.0,123.0,89.0,2.0,-16.0,1
-199.0,-82.0,123.0,89.0,3.0,-13.0,1
-198.0,-83.0,125.0,88.0,5.0,-15.0,1
-200.0,-84.0,124.0,87.0,5.0,-14.0,1
-203.0,-80.0,126.0,88.0,3.0,-16.0,1
-201.0,-83.0,126.0,88.0,2.0,-15.0,1
-200.0,-82.0,126.0,88.0,0.0,-16.0,1
-200.0,-83.0,126.0,87.0,-1.0,-17.0,1
-199.0,-81.0,127.0,84.0,-2.0,-16.0,1
-199.0,-84.0,128.0,83.0,-1.0,-16.0,1
-205.0,-85.0,126.0,84.0,-2.0,-16.0,1
-199.0,-82.0,125.0,84.0,-2.0,-18.0,1
-198.0,-84.0,125.0,84.0,0.0,-19.0,1
-203.0,-80.0,124.0,85.0,-1.0,-19.0,1
-200.0,-81.0,126.0,87.0,1.0,-18.0,1
-203.0,-81.0,124.0,86.0,3.0,-17.0,1
-197.0,-82.0,128.0,87.0,4.0,-16.0,1
-202.0,-82.0,123.0,87.0,3.0,-14.0,1
-202.0,-79.0,128.0,87.0,5.0,-16.0,1
-202.0,-82.0,126.0,86.0,6.0,-14.0,1
-203.0,-81.0,130.0,88.0,5.0,-15.0,1
-202.0,-80.0,126.0,88.0,6.0,-15.0,1
-201.0,-80.0,127.0,88.0,7.0,-15.0,1
-200.0,-82.0,128.0,88.0,6.0,-13.0,1
-200.0,-83.0,126.0,87.0,4.0,-12.0,1
-199.0,-82.0,126.0,84.0,5.0,-12.0,1
-200.0,-82.0,126.0,85.0,4.0,-13.0,1
-198.0,-81.0,126.0,85.0,1.0,-13.0,1
-201.0,-81.0,128.0,83.0,1.0,-13.0,1
-200.0,-80.0,123.0,83.0,1.0,-13.0,1
-196.0,-83.0,125.0,83.0,-1.0,-13.0,1
-198.0,-82.0,128.0,83.0,0.0,-14.0,1
-198.0,-84.0,125.0,81.0,0.0,-14.0,1
-200.0,-82.0,127.0,80.0,-1.0,-12.0,1
-204.0,-82.0,126.0,83.0,0.0,-13.0,1
-197.0,-80.0,128.0,85.0,0.0,-16.0,1
-200.0,-83.0,123.0,83.0,1.0,-16.0,1
-199.0,-80.0,125.0,84.0,1.0,-14.0,1
-198.0,-81.0,129.0,83.0,2.0,-15.0,1
-197.0,-81.0,125.0,84.0,3.0,-16.0,1
-200.0,-80.0,126.0,83.0,2.0,-17.0,1
-202.0,-83.0,127.0,80.0,3.0,-15.0,1
-197.0,-80.0,130.0,78.0,3.0,-17.0,1
-201.0,-83.0,123.0,75.0,2.0,-15.0,1
-199.0,-83.0,128.0,73.0,3.0,-15.0,1
-200.0,-83.0,128.0,72.0,3.0,-15.0,1
-199.0,-80.0,124.0,71.0,3.0,-13.0,1
-197.0,-84.0,126.0,71.0,4.0,-13.0,1
-199.0,-81.0,126.0,70.0,4.0,-13.0,1
-198.0,-82.0,127.0,70.0,4.0,-12.0,1
-198.0,-85.0,125.0,70.0,2.0,-11.0,1
-195.0,-84.0,124.0,70.0,2.0,-10.0,1
-201.0,-80.0,126.0,71.0,2.0,-12.0,1
-197.0,-83.0,126.0,71.0,1.0,-12.0,1
-194.0,-82.0,130.0,74.0,1.0,-13.0,1
-201.0,-84.0,127.0,74.0,0.0,-14.0,1
-202.0,-80.0,127.0,73.0,1.0,-15.0,1
-199.0,-85.0,129.0,74.0,2.0,-15.0,1
-199.0,-83.0,126.0,74.0,3.0,-15.0,1
-200.0,-82.0,127.0,74.0,5.0,-15.0,1
-196.0,-84.0,127.0,75.0,6.0,-13.0,1
-202.0,-82.0,130.0,74.0,6.0,-14.0,1
-200.0,-80.0,126.0,73.0,6.0,-12.0,1
-199.0,-80.0,127.0,73.0,6.0,-12.0,1
-198.0,-78.0,126.0,73.0,8.0,-10.0,1
-196.0,-80.0,132.0,72.0,8.0,-11.0,1
-199.0,-77.0,125.0,72.0,8.0,-11.0,1
-201.0,-79.0,127.0,71.0,7.0,-10.0,1
-198.0,-82.0,127.0,73.0,7.0,-10.0,1
-201.0,-78.0,128.0,73.0,7.0,-9.0,1
-198.0,-83.0,128.0,74.0,5.0,-9.0,1
-199.0,-80.0,127.0,75.0,3.0,-10.0,1
-197.0,-80.0,128.0,76.0,2.0,-10.0,1
-200.0,-79.0,123.0,75.0,-1.0,-8.0,1
-198.0,-79.0,128.0,74.0,-3.0,-10.0,1
-198.0,-84.0,125.0,73.0,-3.0,-11.0,1
-199.0,-85.0,128.0,72.0,-4.0,-13.0,1
-199.0,-81.0,126.0,71.0,-2.0,-12.0,1
-198.0,-83.0,127.0,71.0,-2.0,-14.0,1
-200.0,-80.0,127.0,73.0,-1.0,-15.0,1
-199.0,-82.0,126.0,73.0,0.0,-15.0,1
-196.0,-82.0,125.0,74.0,1.0,-14.0,1
-202.0,-80.0,128.0,73.0,4.0,-11.0,1
-199.0,-80.0,132.0,73.0,5.0,-12.0,1
-198.0,-82.0,126.0,73.0,4.0,-11.0,1
-200.0,-81.0,129.0,73.0,4.0,-14.0,1
-200.0,-82.0,129.0,73.0,3.0,-14.0,1
-198.0,-82.0,133.0,74.0,2.0,-14.0,1
-200.0,-79.0,125.0,75.0,2.0,-13.0,1
-197.0,-80.0,128.0,77.0,1.0,-12.0,1
-197.0,-83.0,126.0,76.0,3.0,-11.0,1
-200.0,-82.0,128.0,76.0,5.0,-10.0,1
-199.0,-83.0,128.0,75.0,6.0,-10.0,1
-200.0,-82.0,129.0,71.0,7.0,-8.0,1
-200.0,-81.0,129.0,68.0,8.0,-10.0,1
-198.0,-82.0,127.0,65.0,10.0,-10.0,1
-201.0,-81.0,125.0,63.0,9.0,-10.0,1
-198.0,-79.0,129.0,63.0,10.0,-12.0,1
-199.0,-80.0,130.0,61.0,11.0,-10.0,1
-198.0,-80.0,127.0,61.0,9.0,-13.0,1
-196.0,-82.0,129.0,61.0,9.0,-14.0,1
-197.0,-81.0,128.0,61.0,9.0,-15.0,1
-196.0,-84.0,126.0,60.0,7.0,-13.0,1
-201.0,-82.0,127.0,57.0,7.0,-13.0,1
-197.0,-82.0,126.0,55.0,8.0,-13.0,1
-198.0,-79.0,124.0,54.0,8.0,-12.0,1
-200.0,-79.0,131.0,54.0,7.0,-15.0,1
-200.0,-81.0,127.0,55.0,8.0,-15.0,1
-197.0,-82.0,124.0,56.0,9.0,-14.0,1
-198.0,-82.0,128.0,56.0,9.0,-15.0,1
-200.0,-81.0,126.0,55.0,10.0,-14.0,1
-201.0,-81.0,126.0,56.0,12.0,-11.0,1
-200.0,-81.0,126.0,58.0,12.0,-10.0,1
-198.0,-83.0,126.0,58.0,11.0,-9.0,1
-197.0,-84.0,127.0,62.0,9.0,-7.0,1
-197.0,-82.0,124.0,65.0,7.0,-7.0,1
-199.0,-85.0,127.0,68.0,7.0,-7.0,1
-197.0,-81.0,127.0,72.0,5.0,-8.0,1
-200.0,-84.0,130.0,73.0,2.0,-7.0,1
-199.0,-74.0,132.0,76.0,1.0,-5.0,1
-200.0,-83.0,124.0,79.0,-2.0,-8.0,1
-201.0,-80.0,130.0,82.0,-3.0,-8.0,1
-200.0,-80.0,127.0,83.0,-4.0,-8.0,1
-199.0,-80.0,127.0,85.0,-4.0,-10.0,1
-199.0,-81.0,125.0,87.0,-5.0,-7.0,1
-200.0,-82.0,126.0,90.0,-4.0,-5.0,1
-203.0,-77.0,126.0,91.0,-3.0,-5.0,1
-198.0,-81.0,129.0,95.0,-2.0,-4.0,1
-199.0,-81.0,129.0,97.0,-1.0,-4.0,1
-200.0,-79.0,127.0,97.0,1.0,-4.0,1
-196.0,-76.0,131.0,95.0,2.0,-1.0,1
-199.0,-78.0,128.0,92.0,4.0,-1.0,1
-200.0,-79.0,129.0,89.0,7.0,-2.0,1
-198.0,-79.0,128.0,83.0,9.0,-3.0,1
-199.0,-79.0,129.0,77.0,11.0,-3.0,1
-199.0,-81.0,131.0,71.0,12.0,-3.0,1
-197.0,-82.0,128.0,67.0,14.0,-3.0,1
-198.0,-78.0,131.0,64.0,14.0,-4.0,1
-199.0,-80.0,129.0,60.0,16.0,-6.0,1
-196.0,-79.0,130.0,58.0,16.0,-8.0,1
-196.0,-80.0,128.0,57.0,16.0,-10.0,1
-203.0,-81.0,125.0,58.0,15.0,-9.0,1
-195.0,-84.0,128.0,59.0,14.0,-11.0,1
-198.0,-81.0,127.0,60.0,12.0,-13.0,1
-203.0,-77.0,128.0,62.0,11.0,-12.0,1
-200.0,-78.0,127.0,63.0,10.0,-13.0,1
-199.0,-80.0,129.0,65.0,8.0,-14.0,1
-196.0,-85.0,130.0,66.0,7.0,-14.0,1
-200.0,-81.0,127.0,69.0,6.0,-15.0,1
-198.0,-81.0,128.0,69.0,5.0,-15.0,1
-197.0,-83.0,128.0,70.0,4.0,-15.0,1
-195.0,-81.0,128.0,68.0,3.0,-15.0,1
-197.0,-86.0,129.0,68.0,3.0,-13.0,1
-199.0,-79.0,129.0,67.0,4.0,-12.0,1
-200.0,-82.0,127.0,65.0,4.0,-11.0,1
-200.0,-79.0,128.0,65.0,4.0,-12.0,1
-200.0,-81.0,128.0,66.0,3.0,-9.0,1
-198.0,-79.0,124.0,65.0,4.0,-10.0,1
-200.0,-80.0,128.0,65.0,3.0,-10.0,1
-196.0,-79.0,128.0,64.0,4.0,-12.0,1
-198.0,-80.0,126.0,65.0,4.0,-10.0,1
-200.0,-78.0,129.0,65.0,3.0,-11.0,1
-196.0,-80.0,127.0,64.0,4.0,-11.0,1
-202.0,-75.0,126.0,63.0,4.0,-10.0,1
-197.0,-80.0,128.0,63.0,4.0,-11.0,1
-198.0,-79.0,128.0,63.0,3.0,-13.0,1
-201.0,-79.0,130.0,63.0,3.0,-13.0,1
-198.0,-79.0,131.0,61.0,3.0,-13.0,1
-198.0,-80.0,129.0,60.0,3.0,-14.0,1
-200.0,-80.0,126.0,57.0,4.0,-13.0,1
-200.0,-82.0,123.0,57.0,4.0,-14.0,1
-195.0,-79.0,127.0,57.0,4.0,-13.0,1
-194.0,-82.0,131.0,57.0,5.0,-14.0,1
-198.0,-81.0,128.0,57.0,7.0,-15.0,1
-199.0,-87.0,124.0,58.0,9.0,-12.0,1
-198.0,-81.0,129.0,60.0,9.0,-13.0,1
-195.0,-79.0,129.0,61.0,9.0,-14.0,1
-200.0,-81.0,129.0,61.0,10.0,-14.0,1
-197.0,-80.0,129.0,61.0,8.0,-13.0,1
-201.0,-78.0,128.0,60.0,9.0,-14.0,1
-198.0,-77.0,129.0,60.0,10.0,-15.0,1
-197.0,-79.0,126.0,60.0,10.0,-14.0,1
-200.0,-82.0,126.0,59.0,8.0,-14.0,1
-199.0,-81.0,129.0,59.0,7.0,-14.0,1
-198.0,-79.0,129.0,58.0,5.0,-13.0,1
-202.0,-81.0,127.0,57.0,6.0,-12.0,1
-197.0,-82.0,127.0,56.0,3.0,-11.0,1
-199.0,-80.0,129.0,58.0,4.0,-12.0,1
-199.0,-82.0,128.0,58.0,5.0,-12.0,1
-198.0,-81.0,129.0,59.0,7.0,-9.0,1
-203.0,-81.0,129.0,59.0,8.0,-9.0,1
-198.0,-81.0,130.0,58.0,7.0,-8.0,1
-198.0,-82.0,130.0,58.0,8.0,-8.0,1
-194.0,-82.0,128.0,59.0,9.0,-8.0,1
-198.0,-82.0,127.0,59.0,9.0,-8.0,1
-194.0,-81.0,125.0,60.0,9.0,-9.0,1
-201.0,-83.0,127.0,60.0,11.0,-7.0,1
-197.0,-81.0,128.0,58.0,12.0,-7.0,1
-202.0,-77.0,128.0,58.0,12.0,-7.0,1
-197.0,-81.0,129.0,56.0,11.0,-5.0,1
-197.0,-78.0,128.0,56.0,12.0,-5.0,1
-199.0,-81.0,129.0,55.0,13.0,-5.0,1
-199.0,-81.0,127.0,54.0,12.0,-7.0,1
-199.0,-80.0,128.0,55.0,12.0,-9.0,1
-198.0,-77.0,131.0,55.0,13.0,-9.0,1
-199.0,-80.0,125.0,53.0,13.0,-8.0,1
-200.0,-80.0,129.0,54.0,13.0,-9.0,1
-199.0,-79.0,128.0,53.0,14.0,-11.0,1
-200.0,-80.0,130.0,54.0,14.0,-10.0,1
-199.0,-81.0,127.0,54.0,13.0,-10.0,1
-201.0,-79.0,131.0,53.0,13.0,-10.0,1
-200.0,-78.0,125.0,53.0,12.0,-9.0,1
-197.0,-80.0,128.0,52.0,13.0,-8.0,1
-199.0,-80.0,130.0,51.0,13.0,-7.0,1
-202.0,-79.0,128.0,50.0,13.0,-9.0,1
-198.0,-77.0,125.0,51.0,13.0,-8.0,1
-198.0,-80.0,126.0,50.0,14.0,-9.0,1
-196.0,-84.0,128.0,47.0,15.0,-10.0,1
-201.0,-73.0,125.0,49.0,13.0,-7.0,1
-197.0,-78.0,132.0,48.0,15.0,-9.0,1
-201.0,-76.0,129.0,49.0,17.0,-9.0,1
-198.0,-80.0,129.0,51.0,17.0,-10.0,1
-197.0,-80.0,128.0,50.0,18.0,-8.0,1
-200.0,-81.0,126.0,51.0,16.0,-9.0,1
-198.0,-82.0,126.0,50.0,16.0,-9.0,1
-197.0,-78.0,130.0,49.0,14.0,-10.0,1
-199.0,-82.0,128.0,48.0,13.0,-11.0,1
-201.0,-80.0,129.0,47.0,13.0,-13.0,1
-207.0,-79.0,125.0,48.0,11.0,-13.0,1
-202.0,-79.0,129.0,47.0,10.0,-13.0,1
-199.0,-79.0,130.0,45.0,9.0,-14.0,1
-199.0,-81.0,125.0,47.0,8.0,-14.0,1
-199.0,-80.0,128.0,49.0,8.0,-14.0,1
-196.0,-82.0,127.0,49.0,10.0,-15.0,1
-197.0,-80.0,130.0,50.0,10.0,-16.0,1
-198.0,-80.0,131.0,52.0,13.0,-15.0,1
-195.0,-82.0,127.0,55.0,12.0,-16.0,1
-199.0,-80.0,130.0,55.0,11.0,-16.0,1
-195.0,-79.0,130.0,56.0,11.0,-16.0,1
-193.0,-77.0,128.0,55.0,12.0,-15.0,1
-199.0,-81.0,128.0,54.0,12.0,-14.0,1
-198.0,-81.0,130.0,52.0,11.0,-13.0,1
-199.0,-78.0,129.0,52.0,10.0,-13.0,1
-200.0,-80.0,127.0,51.0,8.0,-13.0,1
-199.0,-78.0,126.0,52.0,9.0,-14.0,1
-197.0,-83.0,127.0,51.0,9.0,-13.0,1
-197.0,-80.0,125.0,51.0,8.0,-12.0,1
-197.0,-82.0,125.0,53.0,9.0,-14.0,1
-200.0,-79.0,127.0,51.0,8.0,-15.0,1
-200.0,-80.0,128.0,52.0,8.0,-13.0,1
-195.0,-77.0,124.0,51.0,7.0,-12.0,1
-196.0,-80.0,128.0,51.0,9.0,-12.0,1
-199.0,-82.0,128.0,52.0,9.0,-13.0,1
-196.0,-80.0,127.0,52.0,8.0,-12.0,1
-197.0,-84.0,129.0,52.0,9.0,-13.0,1
-197.0,-81.0,132.0,53.0,9.0,-14.0,1
-201.0,-79.0,130.0,52.0,10.0,-14.0,1
-196.0,-80.0,130.0,52.0,9.0,-15.0,1
-197.0,-81.0,129.0,53.0,9.0,-13.0,1
-199.0,-83.0,127.0,55.0,9.0,-14.0,1
-199.0,-79.0,128.0,56.0,8.0,-12.0,1
-194.0,-79.0,126.0,58.0,7.0,-14.0,1
-197.0,-81.0,128.0,59.0,6.0,-13.0,1
-199.0,-80.0,129.0,60.0,6.0,-15.0,1
-199.0,-79.0,128.0,60.0,4.0,-15.0,1
-199.0,-78.0,132.0,60.0,3.0,-14.0,1
-198.0,-79.0,127.0,57.0,2.0,-13.0,1
-199.0,-80.0,128.0,57.0,2.0,-13.0,1
-196.0,-79.0,131.0,56.0,2.0,-12.0,1
-196.0,-83.0,131.0,55.0,3.0,-14.0,1
-201.0,-79.0,125.0,55.0,4.0,-13.0,1
-193.0,-82.0,127.0,55.0,5.0,-12.0,1
-198.0,-82.0,130.0,51.0,5.0,-12.0,1
-198.0,-81.0,128.0,52.0,8.0,-12.0,1
-198.0,-80.0,128.0,50.0,10.0,-10.0,1
-198.0,-78.0,128.0,52.0,11.0,-11.0,1
-198.0,-80.0,128.0,53.0,11.0,-10.0,1
-197.0,-83.0,129.0,52.0,12.0,-10.0,1
-195.0,-82.0,130.0,53.0,15.0,-9.0,1
-198.0,-81.0,129.0,54.0,14.0,-10.0,1
-202.0,-78.0,129.0,52.0,14.0,-6.0,1
-200.0,-82.0,128.0,52.0,15.0,-7.0,1
-196.0,-81.0,129.0,49.0,14.0,-8.0,1
-199.0,-76.0,127.0,48.0,15.0,-8.0,1
-199.0,-79.0,130.0,47.0,16.0,-9.0,1
-199.0,-78.0,130.0,47.0,15.0,-9.0,1
-201.0,-79.0,127.0,46.0,15.0,-9.0,1
-198.0,-80.0,129.0,47.0,14.0,-11.0,1
-201.0,-80.0,130.0,46.0,14.0,-10.0,1
-200.0,-79.0,131.0,47.0,14.0,-8.0,1
-198.0,-81.0,124.0,47.0,11.0,-6.0,1
-196.0,-82.0,129.0,50.0,9.0,-6.0,1
-196.0,-82.0,132.0,50.0,7.0,-5.0,1
-197.0,-78.0,128.0,55.0,5.0,-5.0,1
-204.0,-72.0,131.0,58.0,2.0,-5.0,1
-200.0,-79.0,129.0,62.0,3.0,-5.0,1
-196.0,-82.0,130.0,64.0,1.0,-6.0,1
-199.0,-78.0,128.0,68.0,-1.0,-3.0,1
-196.0,-77.0,130.0,70.0,-2.0,-7.0,1
-196.0,-84.0,124.0,72.0,-2.0,-6.0,1
-198.0,-81.0,129.0,72.0,-2.0,-4.0,1
-199.0,-81.0,127.0,75.0,-1.0,-3.0,1
-197.0,-76.0,128.0,79.0,1.0,-2.0,1
-196.0,-77.0,130.0,82.0,3.0,-2.0,1
-198.0,-80.0,130.0,82.0,3.0,0.0,1
-199.0,-80.0,133.0,82.0,6.0,0.0,1
-198.0,-76.0,131.0,79.0,8.0,1.0,1
-198.0,-81.0,131.0,76.0,11.0,4.0,1
-198.0,-79.0,128.0,73.0,13.0,4.0,1
-198.0,-77.0,131.0,69.0,16.0,3.0,1
-195.0,-75.0,130.0,63.0,17.0,4.0,1
-195.0,-76.0,129.0,60.0,18.0,2.0,1
-196.0,-78.0,130.0,56.0,18.0,0.0,1
-196.0,-81.0,131.0,53.0,16.0,-2.0,1
-197.0,-78.0,133.0,50.0,14.0,-5.0,1
-199.0,-82.0,127.0,49.0,14.0,-4.0,1
-197.0,-79.0,128.0,50.0,12.0,-9.0,1
-199.0,-79.0,129.0,50.0,11.0,-9.0,1
-197.0,-81.0,132.0,52.0,11.0,-11.0,1
-199.0,-77.0,128.0,54.0,11.0,-11.0,1
-200.0,-78.0,131.0,55.0,13.0,-14.0,1
-199.0,-81.0,130.0,56.0,13.0,-13.0,1
-202.0,-79.0,129.0,57.0,14.0,-13.0,1
-196.0,-79.0,126.0,56.0,14.0,-15.0,1
-199.0,-78.0,128.0,51.0,13.0,-12.0,1
-198.0,-82.0,132.0,28.0,10.0,-11.0,1
-195.0,-81.0,133.0,31.0,9.0,-14.0,1
-197.0,-79.0,131.0,42.0,9.0,-12.0,1
-199.0,-80.0,131.0,51.0,10.0,-10.0,1
-198.0,-80.0,127.0,53.0,10.0,-11.0,1
-200.0,-78.0,131.0,53.0,8.0,-11.0,1
-195.0,-80.0,126.0,49.0,8.0,-11.0,1
-200.0,-78.0,129.0,46.0,8.0,-12.0,1
-194.0,-80.0,131.0,43.0,7.0,-14.0,1
-197.0,-76.0,130.0,40.0,7.0,-10.0,1
-200.0,-80.0,129.0,39.0,8.0,-11.0,1
-200.0,-81.0,130.0,38.0,8.0,-10.0,1
-198.0,-82.0,128.0,40.0,11.0,-10.0,1
-195.0,-80.0,129.0,41.0,14.0,-9.0,1
-196.0,-80.0,128.0,43.0,15.0,-10.0,1
-199.0,-80.0,131.0,44.0,16.0,-11.0,1
-199.0,-78.0,129.0,43.0,16.0,-9.0,1
-198.0,-79.0,128.0,42.0,17.0,-8.0,1
-198.0,-80.0,133.0,41.0,18.0,-10.0,1
-198.0,-81.0,127.0,40.0,18.0,-10.0,1
-197.0,-82.0,129.0,38.0,20.0,-10.0,1
-198.0,-82.0,127.0,36.0,20.0,-9.0,1
-197.0,-79.0,126.0,33.0,19.0,-10.0,1
-199.0,-79.0,129.0,31.0,17.0,-11.0,1
-198.0,-80.0,129.0,29.0,18.0,-11.0,1
-198.0,-79.0,127.0,28.0,17.0,-12.0,1
-197.0,-79.0,131.0,31.0,19.0,-11.0,1
-198.0,-82.0,131.0,35.0,19.0,-11.0,1
-198.0,-79.0,127.0,36.0,18.0,-12.0,1
-198.0,-79.0,129.0,38.0,17.0,-10.0,1
-196.0,-82.0,128.0,40.0,16.0,-12.0,1
-199.0,-78.0,130.0,41.0,16.0,-10.0,1
-197.0,-80.0,132.0,41.0,13.0,-13.0,1
-201.0,-79.0,128.0,39.0,13.0,-10.0,1
-197.0,-82.0,134.0,37.0,11.0,-11.0,1
-199.0,-80.0,128.0,34.0,10.0,-11.0,1
-200.0,-81.0,129.0,34.0,10.0,-11.0,1
-198.0,-80.0,130.0,33.0,8.0,-13.0,1
-199.0,-78.0,130.0,33.0,10.0,-11.0,1
-200.0,-82.0,128.0,35.0,9.0,-12.0,1
-200.0,-82.0,129.0,36.0,11.0,-10.0,1
-200.0,-83.0,126.0,35.0,11.0,-9.0,1
-197.0,-80.0,129.0,37.0,11.0,-11.0,1
-199.0,-81.0,129.0,36.0,13.0,-10.0,1
-198.0,-79.0,128.0,36.0,14.0,-10.0,1
-195.0,-87.0,136.0,35.0,15.0,-10.0,1
-198.0,-83.0,131.0,35.0,17.0,-10.0,1
-201.0,-77.0,130.0,35.0,16.0,-10.0,1
-198.0,-80.0,128.0,33.0,17.0,-9.0,1
-199.0,-78.0,128.0,32.0,15.0,-10.0,1
-197.0,-80.0,128.0,30.0,15.0,-11.0,1
-199.0,-80.0,127.0,29.0,15.0,-12.0,1
-200.0,-80.0,130.0,26.0,16.0,-13.0,1
-200.0,-81.0,127.0,26.0,15.0,-12.0,1
-196.0,-83.0,126.0,25.0,14.0,-12.0,1
-199.0,-79.0,125.0,22.0,13.0,-12.0,1
-192.0,-81.0,130.0,20.0,12.0,-12.0,1
-199.0,-81.0,127.0,19.0,12.0,-13.0,1
-198.0,-78.0,126.0,20.0,12.0,-12.0,1
-202.0,-80.0,127.0,20.0,12.0,-12.0,1
-198.0,-77.0,127.0,21.0,13.0,-14.0,1
-197.0,-81.0,128.0,23.0,12.0,-14.0,1
-198.0,-78.0,133.0,23.0,12.0,-14.0,1
-199.0,-80.0,127.0,24.0,13.0,-14.0,1
-200.0,-80.0,129.0,24.0,12.0,-12.0,1
-200.0,-79.0,124.0,25.0,11.0,-13.0,1
-199.0,-81.0,128.0,25.0,12.0,-12.0,1
-196.0,-81.0,131.0,25.0,12.0,-11.0,1
-198.0,-82.0,131.0,24.0,12.0,-13.0,1
-200.0,-82.0,128.0,26.0,12.0,-12.0,1
-197.0,-81.0,127.0,25.0,13.0,-11.0,1
-200.0,-80.0,130.0,25.0,13.0,-10.0,1
-201.0,-78.0,129.0,26.0,13.0,-11.0,1
-201.0,-81.0,125.0,26.0,15.0,-9.0,1
-197.0,-82.0,127.0,27.0,16.0,-9.0,1
-201.0,-81.0,131.0,26.0,16.0,-8.0,1
-197.0,-78.0,129.0,29.0,17.0,-11.0,1
-197.0,-81.0,128.0,32.0,17.0,-10.0,1
-197.0,-80.0,136.0,34.0,16.0,-10.0,1
-197.0,-82.0,128.0,36.0,15.0,-9.0,1
-199.0,-78.0,129.0,36.0,14.0,-11.0,1
-199.0,-80.0,129.0,36.0,12.0,-10.0,1
-200.0,-79.0,129.0,33.0,10.0,-9.0,1
-199.0,-81.0,128.0,31.0,9.0,-10.0,1
-198.0,-83.0,128.0,28.0,7.0,-9.0,1
-196.0,-81.0,129.0,25.0,5.0,-10.0,1
-198.0,-81.0,125.0,19.0,3.0,-10.0,1
-197.0,-81.0,133.0,14.0,4.0,-8.0,1
-200.0,-83.0,126.0,9.0,5.0,-9.0,1
-199.0,-81.0,129.0,6.0,5.0,-9.0,1
-199.0,-80.0,128.0,6.0,7.0,-9.0,1
