ax,ay,az,gx,gy,gz,label
-12.0,-256.0,-10.0,-3.0,65.0,-8.0,1
-14.0,-256.0,-11.0,-2.0,65.0,-12.0,1
-12.0,-256.0,-13.0,-2.0,64.0,-10.0,1
-14.0,-254.0,-11.0,-4.0,64.0,-11.0,1
-12.0,-258.0,-10.0,-7.0,64.0,-9.0,1
-15.0,-256.0,-8.0,-9.0,63.0,-12.0,1
-12.0,-258.0,-13.0,-14.0,63.0,-11.0,1
-12.0,-254.0,-13.0,-20.0,61.0,-14.0,1
-12.0,-254.0,-8.0,-23.0,61.0,-11.0,1
-13.0,-256.0,-7.0,-18.0,62.0,-14.0,1
-14.0,-256.0,-11.0,-11.0,62.0,-10.0,1
-12.0,-255.0,-10.0,-9.0,61.0,-12.0,1
-12.0,-253.0,-14.0,-8.0,62.0,-9.0,1
-12.0,-253.0,-12.0,-10.0,61.0,-11.0,1
-11.0,-256.0,-10.0,-11.0,59.0,-10.0,1
-12.0,-257.0,-12.0,-9.0,57.0,-12.0,1
-14.0,-257.0,-11.0,-8.0,58.0,-11.0,1
-12.0,-256.0,-11.0,-5.0,55.0,-11.0,1
-11.0,-256.0,-12.0,-4.0,57.0,-7.0,1
-11.0,-253.0,-11.0,-2.0,55.0,-8.0,1
-12.0,-258.0,-12.0,-1.0,54.0,-7.0,1
-15.0,-255.0,-9.0,-3.0,55.0,-10.0,1
-12.0,-254.0,-9.0,-6.0,55.0,-9.0,1
-12.0,-255.0,-10.0,-10.0,56.0,-12.0,1
-13.0,-254.0,-10.0,-13.0,57.0,-10.0,1
-12.0,-256.0,-10.0,-14.0,57.0,-12.0,1
-14.0,-256.0,-10.0,-13.0,58.0,-11.0,1
-12.0,-256.0,-9.0,-13.0,60.0,-11.0,1
-12.0,-256.0,-12.0,-11.0,58.0,-10.0,1
-12.0,-257.0,-11.0,-4.0,56.0,-9.0,1
-12.0,-255.0,-11.0,-2.0,56.0,-7.0,1
-14.0,-255.0,-10.0,-2.0,54.0,-9.0,1
-13.0,-254.0,-11.0,-3.0,54.0,-7.0,1
-12.0,-253.0,-11.0,-4.0,52.0,-9.0,1
-12.0,-257.0,-10.0,-4.0,52.0,-8.0,1
-12.0,-257.0,-10.0,-3.0,51.0,-8.0,1
-12.0,-253.0,-12.0,0.0,51.0,-8.0,1
-12.0,-254.0,-11.0,1.0,50.0,-9.0,1
-12.0,-256.0,-11.0,0.0,51.0,-9.0,1
-12.0,-254.0,-8.0,0.0,50.0,-11.0,1
-13.0,-257.0,-8.0,-2.0,51.0,-11.0,1
-12.0,-255.0,-10.0,-4.0,52.0,-14.0,1
-14.0,-256.0,-4.0,-3.0,54.0,-14.0,1
-14.0,-255.0,-12.0,0.0,54.0,-16.0,1
-12.0,-256.0,-12.0,2.0,55.0,-15.0,1
-14.0,-258.0,-12.0,2.0,56.0,-16.0,1
-13.0,-253.0,-9.0,4.0,56.0,-15.0,1
-12.0,-258.0,-12.0,6.0,57.0,-14.0,1
-14.0,-257.0,-8.0,6.0,57.0,-14.0,1
-12.0,-253.0,-10.0,7.0,56.0,-15.0,1
-11.0,-254.0,-11.0,7.0,58.0,-15.0,1
-12.0,-257.0,-12.0,5.0,58.0,-16.0,1
-12.0,-256.0,-8.0,2.0,58.0,-16.0,1
-12.0,-256.0,-13.0,2.0,59.0,-16.0,1
-9.0,-258.0,-10.0,2.0,58.0,-15.0,1
-12.0,-255.0,-11.0,-1.0,57.0,-12.0,1
-11.0,-254.0,-13.0,-3.0,56.0,-10.0,1
-12.0,-253.0,-7.0,-6.0,56.0,-9.0,1
-11.0,-254.0,-7.0,-6.0,56.0,-9.0,1
-14.0,-254.0,-6.0,-8.0,54.0,-9.0,1
-11.0,-254.0,-8.0,-10.0,54.0,-9.0,1
-14.0,-256.0,-10.0,-10.0,54.0,-10.0,1
-12.0,-254.0,-11.0,-11.0,54.0,-10.0,1
-12.0,-255.0,-9.0,-11.0,55.0,-9.0,1
-10.0,-256.0,-11.0,-11.0,53.0,-10.0,1
-12.0,-259.0,-9.0,-10.0,55.0,-10.0,1
-11.0,-256.0,-10.0,-10.0,57.0,-11.0,1
-12.0,-255.0,-10.0,-7.0,58.0,-11.0,1
-12.0,-256.0,-11.0,-5.0,57.0,-9.0,1
-13.0,-253.0,-8.0,-4.0,58.0,-9.0,1
-14.0,-254.0,-14.0,-3.0,56.0,-10.0,1
-12.0,-256.0,-7.0,-1.0,56.0,-8.0,1
-12.0,-255.0,-7.0,0.0,55.0,-10.0,1
-10.0,-255.0,-9.0,-2.0,55.0,-8.0,1
-11.0,-254.0,-7.0,0.0,54.0,-11.0,1
-12.0,-253.0,-7.0,1.0,54.0,-7.0,1
-11.0,-257.0,-8.0,3.0,55.0,-7.0,1
-10.0,-255.0,-10.0,0.0,54.0,-9.0,1
-12.0,-255.0,-8.0,-1.0,54.0,-10.0,1
-12.0,-253.0,-13.0,-2.0,53.0,-7.0,1
-12.0,-255.0,-9.0,-3.0,54.0,-11.0,1
-11.0,-253.0,-10.0,-6.0,54.0,-9.0,1
-14.0,-256.0,-10.0,-6.0,55.0,-10.0,1
-12.0,-255.0,-10.0,-8.0,57.0,-8.0,1
-12.0,-254.0,-10.0,-9.0,58.0,-11.0,1
-11.0,-256.0,-5.0,-10.0,57.0,-7.0,1
-12.0,-256.0,-3.0,-9.0,56.0,-8.0,1
-12.0,-256.0,-11.0,-11.0,56.0,-6.0,1
-12.0,-255.0,-9.0,-10.0,54.0,-7.0,1
-14.0,-255.0,-5.0,-8.0,55.0,-5.0,1
-14.0,-255.0,-9.0,-7.0,56.0,-7.0,1
-12.0,-256.0,-8.0,-7.0,56.0,-4.0,1
-12.0,-259.0,-13.0,-6.0,55.0,-5.0,1
-12.0,-257.0,-9.0,-6.0,54.0,-3.0,1
-12.0,-255.0,-11.0,-7.0,53.0,-6.0,1
-12.0,-254.0,-9.0,-9.0,54.0,-4.0,1
-14.0,-256.0,-12.0,-9.0,55.0,-6.0,1
-12.0,-255.0,-7.0,-10.0,55.0,-5.0,1
-15.0,-256.0,-6.0,-10.0,56.0,-7.0,1
-12.0,-255.0,-9.0,-11.0,56.0,-7.0,1
-12.0,-256.0,-6.0,-8.0,57.0,-7.0,1
-12.0,-252.0,-7.0,-10.0,56.0,-5.0,1
-13.0,-255.0,-7.0,-12.0,58.0,-7.0,1
-10.0,-258.0,-9.0,-14.0,57.0,-3.0,1
-12.0,-258.0,-8.0,-16.0,57.0,-7.0,1
-12.0,-253.0,-12.0,-18.0,54.0,-5.0,1
-12.0,-254.0,-10.0,-17.0,54.0,-8.0,1
-13.0,-255.0,-11.0,-17.0,53.0,-5.0,1
-12.0,-254.0,-8.0,-14.0,54.0,-8.0,1
-12.0,-255.0,-9.0,-13.0,55.0,-6.0,1
-11.0,-256.0,-7.0,-16.0,55.0,-10.0,1
-12.0,-255.0,-10.0,-16.0,57.0,-7.0,1
-13.0,-255.0,-7.0,-16.0,57.0,-9.0,1
-11.0,-256.0,-10.0,-16.0,54.0,-9.0,1
-11.0,-258.0,-12.0,-14.0,56.0,-11.0,1
-12.0,-257.0,-11.0,-16.0,55.0,-8.0,1
-11.0,-257.0,-6.0,-16.0,54.0,-11.0,1
-12.0,-255.0,-6.0,-17.0,52.0,-9.0,1
-12.0,-254.0,-9.0,-17.0,50.0,-10.0,1
-12.0,-254.0,-10.0,-20.0,50.0,-8.0,1
-13.0,-255.0,-7.0,-20.0,48.0,-11.0,1
-12.0,-256.0,-9.0,-21.0,47.0,-9.0,1
-11.0,-256.0,-7.0,-21.0,45.0,-11.0,1
-11.0,-255.0,-11.0,-21.0,44.0,-10.0,1
-11.0,-257.0,-9.0,-21.0,45.0,-11.0,1
-10.0,-255.0,-7.0,-20.0,46.0,-10.0,1
-12.0,-255.0,-9.0,-20.0,47.0,-12.0,1
-12.0,-256.0,-9.0,-19.0,47.0,-8.0,1
-9.0,-256.0,-10.0,-18.0,49.0,-12.0,1
-11.0,-258.0,-7.0,-20.0,49.0,-9.0,1
-12.0,-256.0,-13.0,-21.0,48.0,-11.0,1
-12.0,-254.0,-11.0,-21.0,50.0,-8.0,1
-12.0,-256.0,-12.0,-20.0,49.0,-10.0,1
-12.0,-254.0,-6.0,-19.0,50.0,-7.0,1
-11.0,-255.0,-10.0,-19.0,50.0,-9.0,1
-11.0,-254.0,-7.0,-18.0,50.0,-6.0,1
-9.0,-257.0,-12.0,-19.0,49.0,-9.0,1
-12.0,-258.0,-5.0,-20.0,49.0,-7.0,1
-12.0,-255.0,-7.0,-19.0,47.0,-9.0,1
-13.0,-253.0,-8.0,-20.0,49.0,-9.0,1
-12.0,-254.0,-9.0,-19.0,49.0,-10.0,1
-12.0,-253.0,-10.0,-17.0,49.0,-9.0,1
-12.0,-253.0,-7.0,-18.0,51.0,-12.0,1
-12.0,-253.0,-8.0,-18.0,52.0,-12.0,1
-11.0,-255.0,-6.0,-21.0,53.0,-14.0,1
-13.0,-252.0,-11.0,-20.0,52.0,-12.0,1
-12.0,-257.0,-9.0,-21.0,53.0,-12.0,1
-11.0,-254.0,-10.0,-20.0,51.0,-10.0,1
-11.0,-256.0,-7.0,-21.0,51.0,-13.0,1
-12.0,-257.0,-7.0,-23.0,51.0,-12.0,1
-13.0,-254.0,-11.0,-24.0,51.0,-13.0,1
-12.0,-257.0,-10.0,-24.0,51.0,-12.0,1
-12.0,-253.0,-12.0,-25.0,52.0,-11.0,1
-11.0,-257.0,-14.0,-23.0,53.0,-10.0,1
-10.0,-254.0,-7.0,-21.0,54.0,-13.0,1
-10.0,-253.0,-7.0,-20.0,54.0,-12.0,1
-11.0,-258.0,-5.0,-18.0,56.0,-11.0,1
-10.0,-257.0,-9.0,-18.0,55.0,-11.0,1
-12.0,-255.0,-5.0,-17.0,55.0,-13.0,1
-12.0,-258.0,-8.0,-17.0,55.0,-11.0,1
-9.0,-258.0,-11.0,-14.0,55.0,-11.0,1
-13.0,-257.0,-11.0,-12.0,54.0,-10.0,1
-11.0,-256.0,-10.0,-10.0,54.0,-12.0,1
-11.0,-255.0,-11.0,-9.0,53.0,-10.0,1
-11.0,-257.0,-11.0,-10.0,53.0,-12.0,1
-12.0,-254.0,-9.0,-11.0,53.0,-11.0,1
-10.0,-255.0,-9.0,-9.0,53.0,-11.0,1
-11.0,-257.0,-8.0,-8.0,52.0,-10.0,1
-12.0,-255.0,-9.0,-8.0,52.0,-10.0,1
-11.0,-257.0,-11.0,-6.0,51.0,-9.0,1
-12.0,-253.0,-10.0,-7.0,52.0,-8.0,1
-11.0,-255.0,-8.0,-8.0,53.0,-8.0,1
-11.0,-254.0,-12.0,-13.0,54.0,-9.0,1
-11.0,-256.0,-11.0,-16.0,57.0,-9.0,1
-13.0,-255.0,-5.0,-19.0,59.0,-9.0,1
-10.0,-255.0,-8.0,-21.0,60.0,-9.0,1
-8.0,-255.0,-10.0,-22.0,61.0,-9.0,1
-12.0,-257.0,-14.0,-21.0,61.0,-8.0,1
-12.0,-259.0,-12.0,-20.0,61.0,-6.0,1
-12.0,-254.0,-12.0,-17.0,58.0,-7.0,1
-11.0,-254.0,-9.0,-17.0,55.0,-7.0,1
-12.0,-257.0,-8.0,-18.0,53.0,-5.0,1
-12.0,-256.0,-12.0,-18.0,50.0,-6.0,1
-11.0,-255.0,-9.0,-18.0,48.0,-6.0,1
-12.0,-253.0,-8.0,-21.0,47.0,-8.0,1
-12.0,-257.0,-8.0,-20.0,47.0,-9.0,1
-11.0,-258.0,-9.0,-21.0,46.0,-9.0,1
-11.0,-258.0,-13.0,-17.0,46.0,-9.0,1
-12.0,-259.0,-10.0,-9.0,45.0,-9.0,1
-12.0,-255.0,-11.0,-5.0,47.0,-10.0,1
-7.0,-257.0,-11.0,-4.0,47.0,-11.0,1
-10.0,-254.0,-11.0,-4.0,48.0,-15.0,1
-12.0,-254.0,-13.0,-2.0,51.0,-19.0,1
-12.0,-253.0,-12.0,-1.0,55.0,-22.0,1
-11.0,-257.0,-11.0,-1.0,58.0,-23.0,1
-10.0,-251.0,-11.0,-1.0,60.0,-25.0,1
-11.0,-254.0,-11.0,-3.0,63.0,-23.0,1
-12.0,-254.0,-13.0,-3.0,62.0,-22.0,1
-10.0,-254.0,-9.0,-3.0,62.0,-20.0,1
-10.0,-255.0,-9.0,-2.0,61.0,-20.0,1
-11.0,-255.0,-8.0,-2.0,58.0,-16.0,1
-11.0,-253.0,-12.0,-5.0,57.0,-16.0,1
-11.0,-254.0,-10.0,-9.0,58.0,-15.0,1
-11.0,-256.0,-6.0,-11.0,58.0,-15.0,1
-12.0,-258.0,-10.0,-15.0,57.0,-13.0,1
-10.0,-255.0,-11.0,-16.0,57.0,-14.0,1
-11.0,-252.0,-11.0,-17.0,57.0,-13.0,1
-12.0,-257.0,-7.0,-19.0,58.0,-14.0,1
-11.0,-255.0,-5.0,-19.0,56.0,-14.0,1
-10.0,-257.0,-7.0,-18.0,58.0,-18.0,1
-11.0,-256.0,-6.0,-19.0,61.0,-16.0,1
-11.0,-259.0,-8.0,-19.0,62.0,-20.0,1
-12.0,-255.0,-11.0,-19.0,62.0,-18.0,1
-8.0,-259.0,-7.0,-15.0,64.0,-20.0,1
-11.0,-257.0,-12.0,-14.0,65.0,-20.0,1
-10.0,-257.0,-14.0,-13.0,68.0,-20.0,1
-11.0,-258.0,-10.0,-13.0,67.0,-18.0,1
-12.0,-256.0,-6.0,-12.0,67.0,-20.0,1
-12.0,-254.0,-13.0,-13.0,64.0,-19.0,1
-10.0,-255.0,-8.0,-14.0,66.0,-21.0,1
-11.0,-255.0,-6.0,-13.0,66.0,-19.0,1
-12.0,-253.0,-9.0,-13.0,64.0,-21.0,1
-10.0,-254.0,-10.0,-14.0,64.0,-18.0,1
-11.0,-253.0,-10.0,-11.0,64.0,-21.0,1
-9.0,-254.0,-7.0,-13.0,63.0,-21.0,1
-9.0,-255.0,-9.0,-14.0,61.0,-25.0,1
-12.0,-257.0,-10.0,-14.0,62.0,-22.0,1
-11.0,-257.0,-12.0,-14.0,60.0,-24.0,1
-12.0,-256.0,-12.0,-14.0,62.0,-23.0,1
-10.0,-256.0,-10.0,-15.0,61.0,-25.0,1
-10.0,-257.0,-9.0,-13.0,61.0,-23.0,1
-11.0,-255.0,-16.0,-12.0,61.0,-25.0,1
-12.0,-256.0,-12.0,-11.0,62.0,-23.0,1
-11.0,-255.0,-13.0,-12.0,59.0,-25.0,1
-11.0,-255.0,-9.0,-11.0,60.0,-21.0,1
-11.0,-255.0,-11.0,-11.0,60.0,-25.0,1
-11.0,-256.0,-9.0,-11.0,60.0,-21.0,1
-10.0,-252.0,-8.0,-10.0,57.0,-24.0,1
-11.0,-255.0,-6.0,-12.0,57.0,-20.0,1
-10.0,-255.0,-13.0,-11.0,56.0,-23.0,1
-10.0,-255.0,-8.0,-11.0,56.0,-19.0,1
-10.0,-255.0,-10.0,-12.0,56.0,-21.0,1
-9.0,-255.0,-8.0,-11.0,57.0,-17.0,1
-12.0,-256.0,-13.0,-14.0,55.0,-20.0,1
-12.0,-254.0,-8.0,-15.0,55.0,-20.0,1
-8.0,-255.0,-9.0,-14.0,56.0,-22.0,1
-10.0,-257.0,-8.0,-17.0,58.0,-22.0,1
-10.0,-254.0,-12.0,-17.0,60.0,-25.0,1
-12.0,-254.0,-10.0,-18.0,61.0,-23.0,1
-11.0,-252.0,-13.0,-20.0,62.0,-24.0,1
-12.0,-257.0,-11.0,-20.0,61.0,-21.0,1
-9.0,-254.0,-10.0,-19.0,61.0,-23.0,1
-11.0,-254.0,-12.0,-17.0,60.0,-20.0,1
-10.0,-258.0,-11.0,-14.0,59.0,-22.0,1
-10.0,-258.0,-10.0,-13.0,57.0,-21.0,1
-5.0,-259.0,-7.0,-10.0,58.0,-24.0,1
-10.0,-256.0,-12.0,-7.0,59.0,-23.0,1
-3.0,-260.0,-28.0,-6.0,58.0,-28.0,1
-5.0,-256.0,-2.0,-7.0,58.0,-26.0,1
-8.0,-259.0,-11.0,-8.0,58.0,-27.0,1
-9.0,-264.0,-13.0,-9.0,58.0,-24.0,1
-16.0,-252.0,-19.0,-13.0,56.0,-25.0,1
-9.0,-254.0,-9.0,-13.0,58.0,-23.0,1
-10.0,-256.0,-8.0,-14.0,59.0,-25.0,1
-8.0,-255.0,-11.0,-14.0,59.0,-24.0,1
-9.0,-257.0,-9.0,-15.0,61.0,-26.0,1
-12.0,-249.0,-25.0,-15.0,62.0,-23.0,1
-11.0,-256.0,-12.0,-17.0,63.0,-26.0,1
-10.0,-255.0,-6.0,-16.0,65.0,-23.0,1
-6.0,-253.0,-10.0,-18.0,64.0,-26.0,1
-8.0,-258.0,-9.0,-17.0,65.0,-21.0,1
-9.0,-257.0,-9.0,-17.0,64.0,-23.0,1
-10.0,-255.0,-9.0,-17.0,66.0,-21.0,1
-10.0,-256.0,-9.0,-17.0,66.0,-24.0,1
-12.0,-254.0,-3.0,-17.0,66.0,-22.0,1
-11.0,-256.0,-9.0,-14.0,64.0,-24.0,1
-9.0,-255.0,-8.0,-14.0,62.0,-22.0,1
-9.0,-258.0,-9.0,-13.0,62.0,-26.0,1
-8.0,-258.0,-9.0,-12.0,63.0,-24.0,1
-9.0,-257.0,-13.0,-9.0,62.0,-26.0,1
-8.0,-251.0,-10.0,-9.0,62.0,-24.0,1
-9.0,-252.0,-5.0,-9.0,61.0,-26.0,1
-9.0,-255.0,-6.0,-8.0,62.0,-26.0,1
-9.0,-255.0,-11.0,-9.0,64.0,-29.0,1
-6.0,-253.0,-10.0,-9.0,65.0,-28.0,1
-8.0,-255.0,-9.0,-10.0,65.0,-30.0,1
-8.0,-253.0,-13.0,-10.0,65.0,-28.0,1
-8.0,-253.0,-11.0,-10.0,66.0,-29.0,1
-8.0,-254.0,-12.0,-11.0,67.0,-30.0,1
-6.0,-255.0,-8.0,-11.0,67.0,-30.0,1
-10.0,-253.0,-9.0,-12.0,68.0,-29.0,1
-8.0,-256.0,-8.0,-11.0,68.0,-29.0,1
-10.0,-252.0,-11.0,-10.0,66.0,-28.0,1
-8.0,-256.0,-7.0,-8.0,65.0,-30.0,1
-9.0,-257.0,-9.0,-9.0,64.0,-29.0,1
-7.0,-258.0,-7.0,-9.0,64.0,-30.0,1
-6.0,-257.0,-11.0,-9.0,65.0,-29.0,1
-8.0,-255.0,-10.0,-8.0,63.0,-29.0,1
-9.0,-256.0,-11.0,-8.0,63.0,-29.0,1
-10.0,-257.0,-9.0,-9.0,62.0,-30.0,1
-10.0,-254.0,-10.0,-7.0,61.0,-28.0,1
-8.0,-254.0,-9.0,-5.0,58.0,-29.0,1
-11.0,-256.0,-7.0,-4.0,59.0,-28.0,1
-8.0,-256.0,-8.0,-5.0,60.0,-30.0,1
-7.0,-258.0,-8.0,-3.0,61.0,-29.0,1
-10.0,-251.0,-14.0,-3.0,61.0,-30.0,1
-11.0,-254.0,-8.0,-1.0,60.0,-30.0,1
-10.0,-253.0,-10.0,-1.0,62.0,-31.0,1
-10.0,-254.0,-10.0,-1.0,62.0,-29.0,1
-7.0,-258.0,-10.0,-1.0,63.0,-27.0,1
-9.0,-255.0,-12.0,1.0,64.0,-27.0,1
-10.0,-253.0,-9.0,0.0,64.0,-25.0,1
-10.0,-254.0,-9.0,0.0,64.0,-25.0,1
-6.0,-256.0,-11.0,-3.0,65.0,-28.0,1
-8.0,-257.0,-9.0,-5.0,66.0,-29.0,1
-7.0,-256.0,-9.0,-8.0,68.0,-30.0,1
-7.0,-257.0,-7.0,-11.0,68.0,-29.0,1
-7.0,-254.0,-7.0,-10.0,69.0,-29.0,1
-9.0,-256.0,-7.0,-8.0,69.0,-30.0,1
-7.0,-254.0,-11.0,-6.0,68.0,-28.0,1
-7.0,-258.0,-9.0,-3.0,66.0,-29.0,1
-8.0,-256.0,-11.0,-2.0,63.0,-28.0,1
-8.0,-255.0,-12.0,-1.0,63.0,-28.0,1
-8.0,-255.0,-13.0,-2.0,62.0,-28.0,1
-8.0,-254.0,-8.0,-4.0,62.0,-27.0,1
-5.0,-256.0,-8.0,-6.0,61.0,-26.0,1
-5.0,-257.0,-9.0,-9.0,62.0,-27.0,1
-7.0,-256.0,-10.0,-9.0,62.0,-27.0,1
-6.0,-257.0,-7.0,-9.0,63.0,-28.0,1
-8.0,-259.0,-11.0,-1.0,62.0,-26.0,1
-6.0,-256.0,-14.0,2.0,61.0,-27.0,1
-5.0,-258.0,-12.0,2.0,65.0,-27.0,1
-9.0,-251.0,-11.0,-2.0,67.0,-28.0,1
-9.0,-258.0,-12.0,-2.0,71.0,-28.0,1
-7.0,-254.0,-11.0,0.0,73.0,-30.0,1
-7.0,-254.0,-13.0,5.0,72.0,-32.0,1
-6.0,-254.0,-10.0,6.0,74.0,-34.0,1
-9.0,-253.0,-8.0,7.0,75.0,-34.0,1
-6.0,-256.0,-7.0,6.0,75.0,-36.0,1
-6.0,-253.0,-4.0,6.0,74.0,-35.0,1
-5.0,-254.0,-11.0,6.0,72.0,-34.0,1
-7.0,-255.0,-9.0,7.0,71.0,-32.0,1
-7.0,-256.0,-9.0,7.0,69.0,-31.0,1
-7.0,-254.0,-4.0,7.0,67.0,-29.0,1
-6.0,-257.0,-12.0,5.0,64.0,-30.0,1
-7.0,-256.0,-7.0,4.0,63.0,-25.0,1
-8.0,-256.0,-8.0,4.0,65.0,-26.0,1
-6.0,-259.0,-5.0,2.0,64.0,-23.0,1
-7.0,-256.0,-6.0,3.0,65.0,-24.0,1
-5.0,-259.0,-10.0,2.0,65.0,-22.0,1
-6.0,-257.0,-9.0,0.0,66.0,-24.0,1
-6.0,-255.0,-7.0,-1.0,68.0,-23.0,1
-7.0,-256.0,-8.0,-2.0,68.0,-26.0,1
-6.0,-257.0,-9.0,0.0,69.0,-26.0,1
-5.0,-258.0,-8.0,1.0,71.0,-29.0,1
-6.0,-257.0,-8.0,3.0,73.0,-28.0,1
-8.0,-256.0,-5.0,6.0,74.0,-31.0,1
-7.0,-254.0,-9.0,8.0,75.0,-30.0,1
-6.0,-257.0,-11.0,10.0,76.0,-33.0,1
-5.0,-257.0,-13.0,12.0,76.0,-30.0,1
-3.0,-259.0,-7.0,11.0,76.0,-34.0,1
-4.0,-256.0,-10.0,10.0,75.0,-32.0,1
-4.0,-254.0,-6.0,10.0,76.0,-34.0,1
-4.0,-255.0,-7.0,8.0,73.0,-32.0,1
-6.0,-254.0,-7.0,7.0,73.0,-35.0,1
-4.0,-254.0,-4.0,7.0,72.0,-33.0,1
-5.0,-255.0,-8.0,8.0,71.0,-34.0,1
-6.0,-259.0,-7.0,7.0,69.0,-32.0,1
-5.0,-255.0,-6.0,7.0,66.0,-34.0,1
-7.0,-254.0,-4.0,7.0,66.0,-33.0,1
-3.0,-255.0,-8.0,8.0,66.0,-36.0,1
-2.0,-255.0,-4.0,10.0,67.0,-34.0,1
-6.0,-255.0,-9.0,9.0,67.0,-35.0,1
-2.0,-255.0,-10.0,9.0,68.0,-32.0,1
1.0,-257.0,-10.0,10.0,68.0,-35.0,1
-6.0,-252.0,-10.0,11.0,68.0,-33.0,1
-4.0,-256.0,-6.0,11.0,69.0,-34.0,1
-4.0,-257.0,-9.0,9.0,71.0,-31.0,1
-2.0,-257.0,-8.0,8.0,71.0,-34.0,1
-5.0,-255.0,-2.0,7.0,72.0,-30.0,1
-4.0,-257.0,-10.0,7.0,71.0,-32.0,1
-7.0,-254.0,-6.0,6.0,72.0,-30.0,1
-4.0,-255.0,-3.0,5.0,72.0,-33.0,1
-5.0,-255.0,-10.0,5.0,72.0,-31.0,1
-3.0,-256.0,-8.0,4.0,70.0,-33.0,1
-3.0,-257.0,-6.0,4.0,68.0,-29.0,1
-6.0,-258.0,-9.0,4.0,67.0,-32.0,1
-6.0,-255.0,-4.0,4.0,65.0,-31.0,1
-5.0,-256.0,-12.0,3.0,65.0,-35.0,1
-6.0,-257.0,-5.0,2.0,66.0,-34.0,1
-4.0,-253.0,-5.0,1.0,67.0,-37.0,1
-4.0,-256.0,-4.0,-1.0,68.0,-33.0,1
-7.0,-254.0,-9.0,-5.0,68.0,-34.0,1
-7.0,-254.0,-8.0,-8.0,67.0,-32.0,1
-8.0,-253.0,-6.0,-8.0,67.0,-33.0,1
0.0,-255.0,-8.0,-4.0,63.0,-31.0,1
-3.0,-257.0,-9.0,-5.0,63.0,-35.0,1
-5.0,-256.0,-6.0,-3.0,63.0,-32.0,1
-4.0,-256.0,-10.0,-2.0,64.0,-34.0,1
-5.0,-257.0,-8.0,0.0,67.0,-33.0,1
-2.0,-258.0,-7.0,0.0,68.0,-35.0,1
-2.0,-256.0,-11.0,-1.0,68.0,-35.0,1
-4.0,-257.0,-5.0,-3.0,68.0,-36.0,1
-1.0,-257.0,-8.0,-5.0,69.0,-35.0,1
-6.0,-255.0,-6.0,-5.0,71.0,-36.0,1
-6.0,-254.0,-9.0,-4.0,69.0,-32.0,1
-7.0,-257.0,-9.0,-2.0,68.0,-35.0,1
-4.0,-253.0,-8.0,0.0,66.0,-33.0,1
-3.0,-255.0,-3.0,3.0,65.0,-35.0,1
-3.0,-254.0,-5.0,3.0,64.0,-33.0,1
-4.0,-256.0,-2.0,4.0,64.0,-36.0,1
-3.0,-258.0,-3.0,1.0,63.0,-33.0,1
-4.0,-255.0,-7.0,-2.0,61.0,-36.0,1
-5.0,-255.0,-6.0,-5.0,63.0,-35.0,1
-2.0,-257.0,-7.0,-5.0,62.0,-36.0,1
-4.0,-256.0,-4.0,-7.0,62.0,-36.0,1
-1.0,-256.0,-4.0,-6.0,63.0,-37.0,1
-5.0,-255.0,-5.0,-6.0,63.0,-36.0,1
-7.0,-255.0,-5.0,-6.0,63.0,-38.0,1
-1.0,-256.0,-4.0,-6.0,64.0,-38.0,1
-5.0,-256.0,-9.0,-3.0,64.0,-40.0,1
-3.0,-255.0,-7.0,-1.0,64.0,-39.0,1
-1.0,-254.0,-6.0,0.0,64.0,-39.0,1
-3.0,-257.0,-8.0,1.0,63.0,-37.0,1
-1.0,-255.0,-8.0,0.0,62.0,-38.0,1
-2.0,-256.0,-6.0,0.0,61.0,-36.0,1
-6.0,-251.0,-11.0,-2.0,60.0,-39.0,1
-4.0,-255.0,-3.0,-3.0,58.0,-38.0,1
-3.0,-256.0,-7.0,-3.0,59.0,-40.0,1
-1.0,-257.0,-9.0,-3.0,59.0,-39.0,1
-2.0,-256.0,-8.0,-5.0,60.0,-40.0,1
-3.0,-254.0,-4.0,-4.0,62.0,-38.0,1
-3.0,-257.0,-6.0,-4.0,65.0,-39.0,1
-4.0,-257.0,-7.0,-2.0,66.0,-38.0,1
-1.0,-256.0,-7.0,-1.0,67.0,-39.0,1
-1.0,-256.0,-4.0,0.0,70.0,-38.0,1
-1.0,-258.0,-8.0,0.0,70.0,-39.0,1
-4.0,-256.0,-7.0,-1.0,70.0,-38.0,1
-2.0,-256.0,-4.0,-2.0,71.0,-39.0,1
-1.0,-254.0,-9.0,-1.0,70.0,-39.0,1
-1.0,-259.0,-7.0,-4.0,68.0,-40.0,1
-2.0,-257.0,-7.0,-6.0,67.0,-40.0,1
-1.0,-257.0,-7.0,-6.0,63.0,-41.0,1
-3.0,-254.0,-5.0,-9.0,64.0,-41.0,1
0.0,-254.0,-5.0,-8.0,64.0,-42.0,1
-2.0,-254.0,-4.0,-8.0,65.0,-41.0,1
-1.0,-255.0,-4.0,-8.0,65.0,-41.0,1
0.0,-254.0,-9.0,-10.0,64.0,-43.0,1
-1.0,-254.0,-3.0,-13.0,63.0,-43.0,1
3.0,-256.0,-1.0,-15.0,64.0,-44.0,1
0.0,-257.0,-5.0,-15.0,65.0,-43.0,1
-1.0,-256.0,-8.0,-14.0,66.0,-45.0,1
3.0,-259.0,-8.0,-15.0,67.0,-45.0,1
-2.0,-255.0,-8.0,-14.0,69.0,-44.0,1
-1.0,-253.0,-9.0,-14.0,69.0,-45.0,1
1.0,-257.0,-6.0,-13.0,69.0,-45.0,1
1.0,-256.0,-8.0,-12.0,70.0,-46.0,1
0.0,-257.0,-4.0,-11.0,69.0,-47.0,1
1.0,-255.0,-9.0,-9.0,70.0,-48.0,1
2.0,-255.0,-4.0,-8.0,69.0,-50.0,1
1.0,-258.0,-3.0,-5.0,70.0,-50.0,1
2.0,-257.0,-5.0,-4.0,70.0,-51.0,1
2.0,-255.0,-10.0,-3.0,69.0,-50.0,1
3.0,-257.0,-4.0,-4.0,69.0,-53.0,1
-2.0,-254.0,-4.0,-8.0,69.0,-53.0,1
1.0,-254.0,-4.0,-12.0,71.0,-54.0,1
-1.0,-252.0,-7.0,-16.0,73.0,-54.0,1
3.0,-256.0,-4.0,-19.0,76.0,-57.0,1
4.0,-257.0,-5.0,-22.0,77.0,-56.0,1
0.0,-254.0,-8.0,-21.0,79.0,-58.0,1
2.0,-256.0,-5.0,-20.0,77.0,-58.0,1
1.0,-258.0,-8.0,-16.0,77.0,-59.0,1
3.0,-258.0,-4.0,-15.0,76.0,-58.0,1
2.0,-256.0,-4.0,-12.0,77.0,-58.0,1
2.0,-257.0,-5.0,-14.0,78.0,-57.0,1
2.0,-257.0,-8.0,-16.0,78.0,-59.0,1
1.0,-257.0,-8.0,-17.0,78.0,-60.0,1
1.0,-253.0,-7.0,-19.0,79.0,-63.0,1
-1.0,-254.0,-5.0,-19.0,78.0,-63.0,1
2.0,-257.0,-3.0,-18.0,79.0,-63.0,1
3.0,-255.0,-8.0,-15.0,77.0,-61.0,1
3.0,-255.0,-5.0,-13.0,76.0,-62.0,1
2.0,-255.0,-7.0,-15.0,77.0,-62.0,1
3.0,-255.0,-5.0,-16.0,76.0,-66.0,1
1.0,-257.0,-7.0,-16.0,77.0,-67.0,1
1.0,-255.0,-3.0,-16.0,77.0,-71.0,1
1.0,-257.0,-8.0,-16.0,76.0,-70.0,1
1.0,-257.0,-11.0,-13.0,76.0,-72.0,1
3.0,-258.0,-6.0,-11.0,73.0,-70.0,1
3.0,-257.0,-10.0,-10.0,72.0,-72.0,1
3.0,-254.0,-8.0,-9.0,72.0,-70.0,1
3.0,-259.0,-4.0,-8.0,69.0,-71.0,1
3.0,-253.0,-8.0,-8.0,70.0,-70.0,1
3.0,-257.0,-7.0,-8.0,72.0,-74.0,1
1.0,-251.0,-7.0,-10.0,73.0,-72.0,1
4.0,-257.0,-3.0,-12.0,76.0,-73.0,1
1.0,-256.0,-5.0,-15.0,78.0,-72.0,1
4.0,-255.0,-3.0,-17.0,78.0,-74.0,1
2.0,-256.0,-4.0,-19.0,78.0,-73.0,1
4.0,-256.0,-7.0,-20.0,78.0,-75.0,1
3.0,-253.0,-7.0,-20.0,78.0,-72.0,1
1.0,-253.0,-5.0,-22.0,76.0,-74.0,1
4.0,-256.0,-6.0,-23.0,74.0,-74.0,1
3.0,-255.0,-7.0,-25.0,72.0,-76.0,1
1.0,-253.0,-6.0,-26.0,70.0,-73.0,1
5.0,-257.0,-3.0,-29.0,71.0,-77.0,1
1.0,-254.0,-8.0,-31.0,72.0,-77.0,1
2.0,-256.0,-7.0,-29.0,71.0,-81.0,1
3.0,-253.0,-10.0,-28.0,71.0,-81.0,1
5.0,-257.0,-7.0,-26.0,73.0,-84.0,1
4.0,-255.0,-7.0,-26.0,74.0,-83.0,1
5.0,-259.0,-7.0,-25.0,76.0,-86.0,1
4.0,-253.0,-10.0,-25.0,76.0,-86.0,1
5.0,-255.0,-6.0,-24.0,75.0,-89.0,1
4.0,-255.0,-6.0,-25.0,76.0,-87.0,1
4.0,-256.0,-3.0,-24.0,76.0,-90.0,1
4.0,-256.0,-3.0,-22.0,72.0,-88.0,1
3.0,-254.0,-6.0,-22.0,71.0,-92.0,1
4.0,-256.0,-5.0,-21.0,68.0,-90.0,1
4.0,-253.0,-4.0,-21.0,65.0,-94.0,1
5.0,-255.0,-6.0,-20.0,66.0,-92.0,1
5.0,-254.0,-5.0,-22.0,65.0,-97.0,1
6.0,-256.0,-8.0,-22.0,63.0,-95.0,1
8.0,-253.0,-7.0,-24.0,63.0,-98.0,1
8.0,-255.0,-9.0,-27.0,62.0,-96.0,1
3.0,-254.0,-5.0,-27.0,61.0,-100.0,1
7.0,-256.0,-8.0,-31.0,61.0,-99.0,1
6.0,-254.0,-6.0,-33.0,61.0,-101.0,1
7.0,-253.0,-6.0,-34.0,60.0,-98.0,1
7.0,-250.0,-10.0,-36.0,62.0,-102.0,1
7.0,-251.0,-7.0,-51.0,65.0,-105.0,1
7.0,-253.0,-6.0,-68.0,69.0,-107.0,1
8.0,-257.0,-3.0,-73.0,69.0,-102.0,1
8.0,-254.0,-7.0,-65.0,69.0,-102.0,1
5.0,-258.0,-6.0,-56.0,63.0,-102.0,1
6.0,-255.0,-4.0,-50.0,59.0,-106.0,1
9.0,-257.0,-3.0,-48.0,59.0,-105.0,1
7.0,-257.0,-9.0,-45.0,59.0,-107.0,1
8.0,-254.0,-6.0,-44.0,59.0,-104.0,1
9.0,-256.0,-6.0,-39.0,60.0,-107.0,1
7.0,-256.0,-8.0,-37.0,60.0,-106.0,1
9.0,-253.0,-9.0,-37.0,58.0,-109.0,1
9.0,-257.0,-8.0,-36.0,59.0,-110.0,1
7.0,-255.0,-6.0,-37.0,58.0,-113.0,1
10.0,-254.0,-9.0,-42.0,58.0,-113.0,1
7.0,-252.0,-7.0,-48.0,56.0,-114.0,1
9.0,-254.0,-8.0,-53.0,56.0,-112.0,1
8.0,-253.0,-4.0,-57.0,54.0,-113.0,1
7.0,-253.0,-7.0,-56.0,50.0,-111.0,1
10.0,-254.0,-5.0,-54.0,49.0,-115.0,1
9.0,-256.0,-6.0,-54.0,49.0,-114.0,1
12.0,-258.0,-3.0,-54.0,52.0,-117.0,1
10.0,-258.0,-5.0,-54.0,54.0,-114.0,1
10.0,-256.0,-7.0,-55.0,58.0,-119.0,1
11.0,-257.0,-7.0,-56.0,59.0,-117.0,1
11.0,-255.0,-9.0,-56.0,63.0,-118.0,1
13.0,-254.0,-7.0,-57.0,64.0,-118.0,1
11.0,-256.0,-8.0,-56.0,65.0,-122.0,1
14.0,-256.0,-9.0,-55.0,66.0,-121.0,1
12.0,-256.0,-9.0,-54.0,67.0,-123.0,1
14.0,-255.0,-9.0,-51.0,65.0,-122.0,1
15.0,-255.0,-9.0,-53.0,62.0,-123.0,1
14.0,-254.0,-7.0,-56.0,60.0,-123.0,1
13.0,-255.0,-7.0,-59.0,58.0,-126.0,1
14.0,-257.0,-8.0,-61.0,58.0,-124.0,1
11.0,-256.0,-5.0,-63.0,57.0,-127.0,1
15.0,-256.0,-10.0,-64.0,56.0,-126.0,1
14.0,-255.0,-7.0,-64.0,55.0,-127.0,1
16.0,-258.0,-5.0,-62.0,52.0,-127.0,1
15.0,-255.0,-7.0,-61.0,53.0,-130.0,1
14.0,-253.0,-8.0,-62.0,54.0,-129.0,1
14.0,-255.0,-6.0,-63.0,55.0,-132.0,1
15.0,-254.0,-7.0,-61.0,58.0,-132.0,1
16.0,-257.0,-9.0,-60.0,59.0,-134.0,1
16.0,-257.0,-7.0,-61.0,60.0,-134.0,1
17.0,-256.0,-5.0,-60.0,61.0,-136.0,1
15.0,-257.0,-8.0,-61.0,62.0,-136.0,1
17.0,-253.0,-11.0,-59.0,64.0,-137.0,1
16.0,-256.0,-11.0,-59.0,65.0,-137.0,1
17.0,-254.0,-9.0,-58.0,64.0,-138.0,1
18.0,-256.0,-8.0,-56.0,61.0,-139.0,1
18.0,-252.0,-8.0,-58.0,61.0,-140.0,1
17.0,-255.0,-10.0,-60.0,61.0,-139.0,1
17.0,-255.0,-10.0,-58.0,59.0,-141.0,1
17.0,-255.0,-10.0,-59.0,58.0,-140.0,1
17.0,-257.0,-9.0,-59.0,59.0,-143.0,1
18.0,-254.0,-12.0,-57.0,60.0,-144.0,1
18.0,-255.0,-8.0,-58.0,60.0,-146.0,1
21.0,-255.0,-8.0,-60.0,59.0,-146.0,1
20.0,-254.0,-7.0,-61.0,59.0,-147.0,1
19.0,-255.0,-12.0,-62.0,58.0,-146.0,1
18.0,-256.0,-13.0,-60.0,57.0,-149.0,1
18.0,-254.0,-15.0,-60.0,57.0,-148.0,1
20.0,-255.0,-14.0,-62.0,56.0,-148.0,1
22.0,-254.0,-11.0,-64.0,57.0,-150.0,1
21.0,-255.0,-11.0,-62.0,57.0,-152.0,1
22.0,-253.0,-10.0,-64.0,57.0,-154.0,1
20.0,-253.0,-11.0,-65.0,58.0,-156.0,1
18.0,-255.0,-9.0,-65.0,58.0,-159.0,1
23.0,-255.0,-10.0,-67.0,59.0,-157.0,1
21.0,-254.0,-12.0,-68.0,58.0,-160.0,1
24.0,-253.0,-12.0,-68.0,58.0,-162.0,1
23.0,-255.0,-11.0,-70.0,57.0,-163.0,1
22.0,-252.0,-13.0,-70.0,56.0,-164.0,1
23.0,-255.0,-12.0,-70.0,54.0,-163.0,1
24.0,-255.0,-10.0,-71.0,54.0,-164.0,1
20.0,-252.0,-11.0,-70.0,52.0,-166.0,1
26.0,-257.0,-9.0,-71.0,51.0,-168.0,1
23.0,-253.0,-8.0,-71.0,49.0,-170.0,1
24.0,-254.0,-11.0,-71.0,48.0,-171.0,1
23.0,-254.0,-13.0,-75.0,49.0,-171.0,1
23.0,-252.0,-12.0,-78.0,47.0,-174.0,1
24.0,-253.0,-12.0,-81.0,47.0,-175.0,1
23.0,-253.0,-11.0,-84.0,46.0,-176.0,1
25.0,-255.0,-9.0,-85.0,46.0,-179.0,1
20.0,-255.0,-9.0,-86.0,46.0,-178.0,1
25.0,-257.0,-11.0,-85.0,48.0,-181.0,1
23.0,-255.0,-15.0,-85.0,48.0,-181.0,1
26.0,-255.0,-14.0,-84.0,48.0,-182.0,1
28.0,-253.0,-14.0,-84.0,50.0,-184.0,1
30.0,-256.0,-16.0,-85.0,51.0,-186.0,1
26.0,-255.0,-12.0,-85.0,50.0,-185.0,1
26.0,-254.0,-13.0,-84.0,50.0,-187.0,1
28.0,-253.0,-18.0,-86.0,51.0,-186.0,1
27.0,-250.0,-16.0,-89.0,52.0,-189.0,1
27.0,-253.0,-12.0,-93.0,51.0,-190.0,1
27.0,-250.0,-13.0,-97.0,52.0,-193.0,1
30.0,-254.0,-10.0,-101.0,54.0,-194.0,1
30.0,-251.0,-13.0,-104.0,55.0,-197.0,1
28.0,-255.0,-13.0,-104.0,53.0,-198.0,1
28.0,-254.0,-13.0,-101.0,52.0,-201.0,1
29.0,-254.0,-12.0,-99.0,49.0,-201.0,1
33.0,-257.0,-16.0,-97.0,45.0,-205.0,1
29.0,-253.0,-13.0,-96.0,44.0,-203.0,1
33.0,-253.0,-10.0,-98.0,41.0,-207.0,1
30.0,-253.0,-14.0,-100.0,40.0,-206.0,1
29.0,-253.0,-18.0,-105.0,38.0,-211.0,1
30.0,-253.0,-12.0,-109.0,36.0,-211.0,1
30.0,-253.0,-14.0,-108.0,34.0,-213.0,1
31.0,-253.0,-9.0,-109.0,32.0,-213.0,1
30.0,-255.0,-14.0,-108.0,30.0,-217.0,1
32.0,-254.0,-15.0,-109.0,29.0,-216.0,1
33.0,-254.0,-11.0,-109.0,28.0,-220.0,1
35.0,-255.0,-15.0,-111.0,27.0,-221.0,1
28.0,-252.0,-15.0,-113.0,25.0,-227.0,1
29.0,-252.0,-17.0,-113.0,23.0,-225.0,1
34.0,-251.0,-16.0,-113.0,20.0,-229.0,1
33.0,-252.0,-18.0,-112.0,15.0,-228.0,1
32.0,-253.0,-15.0,-112.0,14.0,-232.0,1
34.0,-253.0,-17.0,-114.0,10.0,-230.0,1
34.0,-255.0,-17.0,-117.0,6.0,-233.0,1
34.0,-254.0,-14.0,-118.0,3.0,-232.0,1
35.0,-254.0,-17.0,-122.0,0.0,-236.0,1
33.0,-252.0,-17.0,-124.0,-1.0,-236.0,1
35.0,-255.0,-15.0,-126.0,-2.0,-241.0,1
34.0,-253.0,-15.0,-130.0,0.0,-242.0,1
37.0,-254.0,-18.0,-133.0,2.0,-246.0,1
38.0,-253.0,-18.0,-137.0,5.0,-245.0,1
36.0,-250.0,-18.0,-139.0,7.0,-248.0,1
38.0,-251.0,-15.0,-140.0,8.0,-246.0,1
40.0,-250.0,-15.0,-141.0,8.0,-249.0,1
38.0,-251.0,-16.0,-145.0,12.0,-249.0,1
42.0,-251.0,-17.0,-148.0,14.0,-255.0,1
43.0,-252.0,-19.0,-151.0,17.0,-257.0,1
42.0,-251.0,-16.0,-154.0,17.0,-265.0,1
42.0,-253.0,-21.0,-155.0,20.0,-267.0,1
43.0,-253.0,-19.0,-157.0,21.0,-274.0,1
41.0,-253.0,-17.0,-156.0,24.0,-275.0,1
43.0,-250.0,-18.0,-153.0,25.0,-281.0,1
43.0,-252.0,-19.0,-152.0,27.0,-280.0,1
41.0,-253.0,-23.0,-153.0,28.0,-285.0,1
41.0,-251.0,-24.0,-152.0,29.0,-284.0,1
46.0,-252.0,-25.0,-150.0,29.0,-289.0,1
46.0,-251.0,-23.0,-149.0,28.0,-288.0,1
46.0,-252.0,-25.0,-150.0,28.0,-293.0,1
45.0,-251.0,-19.0,-151.0,28.0,-293.0,1
45.0,-252.0,-24.0,-151.0,25.0,-297.0,1
43.0,-251.0,-20.0,-150.0,22.0,-296.0,1
46.0,-251.0,-18.0,-152.0,19.0,-299.0,1
45.0,-249.0,-21.0,-156.0,16.0,-297.0,1
45.0,-249.0,-21.0,-159.0,16.0,-302.0,1
44.0,-251.0,-20.0,-160.0,15.0,-302.0,1
43.0,-249.0,-27.0,-162.0,15.0,-308.0,1
45.0,-250.0,-27.0,-162.0,17.0,-310.0,1
47.0,-251.0,-22.0,-162.0,19.0,-312.0,1
45.0,-249.0,-28.0,-160.0,23.0,-312.0,1
44.0,-248.0,-25.0,-158.0,25.0,-315.0,1
48.0,-252.0,-26.0,-157.0,27.0,-313.0,1
48.0,-251.0,-23.0,-157.0,27.0,-316.0,1
45.0,-248.0,-24.0,-155.0,25.0,-316.0,1
49.0,-250.0,-28.0,-154.0,23.0,-320.0,1
47.0,-245.0,-25.0,-155.0,19.0,-319.0,1
48.0,-252.0,-26.0,-157.0,12.0,-326.0,1
47.0,-249.0,-26.0,-160.0,5.0,-324.0,1
48.0,-249.0,-28.0,-162.0,0.0,-328.0,1
47.0,-250.0,-28.0,-164.0,-7.0,-331.0,1
48.0,-249.0,-27.0,-167.0,-14.0,-335.0,1
49.0,-248.0,-32.0,-168.0,-17.0,-335.0,1
47.0,-252.0,-29.0,-168.0,-19.0,-337.0,1
49.0,-252.0,-28.0,-167.0,-19.0,-335.0,1
52.0,-249.0,-28.0,-163.0,-20.0,-336.0,1
50.0,-250.0,-30.0,-161.0,-19.0,-333.0,1
52.0,-250.0,-29.0,-159.0,-20.0,-336.0,1
52.0,-251.0,-28.0,-159.0,-19.0,-335.0,1
55.0,-250.0,-33.0,-159.0,-18.0,-333.0,1
53.0,-251.0,-34.0,-161.0,-18.0,-330.0,1
57.0,-250.0,-31.0,-159.0,-18.0,-331.0,1
55.0,-247.0,-30.0,-158.0,-22.0,-332.0,1
57.0,-248.0,-31.0,-156.0,-25.0,-334.0,1
56.0,-248.0,-31.0,-154.0,-27.0,-334.0,1
57.0,-247.0,-31.0,-153.0,-29.0,-336.0,1
58.0,-245.0,-26.0,-154.0,-31.0,-337.0,1
57.0,-245.0,-26.0,-158.0,-34.0,-345.0,1
57.0,-244.0,-26.0,-160.0,-38.0,-347.0,1
58.0,-245.0,-29.0,-161.0,-41.0,-351.0,1
58.0,-244.0,-30.0,-160.0,-42.0,-353.0,1
60.0,-244.0,-29.0,-163.0,-47.0,-357.0,1
59.0,-244.0,-31.0,-163.0,-49.0,-359.0,1
61.0,-244.0,-33.0,-163.0,-53.0,-364.0,1
60.0,-241.0,-34.0,-163.0,-53.0,-367.0,1
60.0,-243.0,-28.0,-163.0,-55.0,-370.0,1
62.0,-245.0,-31.0,-163.0,-59.0,-373.0,1
61.0,-244.0,-36.0,-165.0,-61.0,-378.0,1
62.0,-244.0,-32.0,-167.0,-63.0,-381.0,1
63.0,-244.0,-32.0,-169.0,-63.0,-385.0,1
65.0,-242.0,-35.0,-170.0,-62.0,-389.0,1
65.0,-243.0,-32.0,-174.0,-62.0,-395.0,1
68.0,-245.0,-29.0,-176.0,-62.0,-401.0,1
69.0,-242.0,-34.0,-179.0,-61.0,-408.0,1
69.0,-242.0,-30.0,-180.0,-58.0,-415.0,1
71.0,-245.0,-34.0,-181.0,-55.0,-420.0,1
69.0,-242.0,-36.0,-178.0,-53.0,-422.0,1
70.0,-242.0,-33.0,-175.0,-52.0,-427.0,1
69.0,-241.0,-33.0,-171.0,-52.0,-433.0,1
68.0,-241.0,-32.0,-169.0,-53.0,-437.0,1
71.0,-241.0,-34.0,-166.0,-55.0,-443.0,1
70.0,-241.0,-30.0,-162.0,-61.0,-448.0,1
71.0,-238.0,-33.0,-159.0,-71.0,-453.0,1
70.0,-240.0,-30.0,-160.0,-85.0,-460.0,1
71.0,-240.0,-33.0,-166.0,-96.0,-467.0,1
69.0,-238.0,-36.0,-173.0,-105.0,-474.0,1
72.0,-238.0,-35.0,-180.0,-112.0,-480.0,1
75.0,-240.0,-36.0,-185.0,-119.0,-488.0,1
75.0,-241.0,-38.0,-190.0,-122.0,-495.0,1
73.0,-237.0,-36.0,-194.0,-125.0,-502.0,1
77.0,-236.0,-44.0,-195.0,-126.0,-511.0,1
74.0,-238.0,-40.0,-200.0,-128.0,-521.0,1
72.0,-236.0,-38.0,-202.0,-134.0,-533.0,1
75.0,-239.0,-41.0,-207.0,-137.0,-542.0,1
75.0,-239.0,-37.0,-209.0,-142.0,-548.0,1
75.0,-237.0,-42.0,-211.0,-149.0,-554.0,1
76.0,-239.0,-41.0,-214.0,-156.0,-560.0,1
77.0,-241.0,-39.0,-215.0,-165.0,-562.0,1
75.0,-241.0,-40.0,-214.0,-174.0,-568.0,1
80.0,-239.0,-43.0,-216.0,-184.0,-575.0,1
81.0,-243.0,-39.0,-216.0,-194.0,-584.0,1
80.0,-240.0,-40.0,-216.0,-209.0,-593.0,1
80.0,-241.0,-40.0,-216.0,-221.0,-602.0,1
82.0,-242.0,-41.0,-217.0,-232.0,-609.0,1
80.0,-239.0,-40.0,-215.0,-244.0,-619.0,1
81.0,-237.0,-40.0,-215.0,-255.0,-627.0,1
81.0,-237.0,-42.0,-215.0,-266.0,-636.0,1
82.0,-235.0,-46.0,-214.0,-274.0,-642.0,1
83.0,-237.0,-43.0,-215.0,-281.0,-653.0,1
83.0,-234.0,-41.0,-217.0,-289.0,-662.0,1
83.0,-234.0,-44.0,-220.0,-297.0,-678.0,1
83.0,-232.0,-41.0,-223.0,-308.0,-690.0,1
82.0,-230.0,-42.0,-228.0,-313.0,-703.0,1
83.0,-229.0,-43.0,-228.0,-319.0,-711.0,1
86.0,-228.0,-43.0,-229.0,-324.0,-721.0,1
84.0,-225.0,-41.0,-235.0,-331.0,-731.0,1
83.0,-221.0,-42.0,-243.0,-337.0,-742.0,1
82.0,-224.0,-42.0,-252.0,-344.0,-748.0,1
84.0,-221.0,-43.0,-256.0,-354.0,-757.0,1
86.0,-222.0,-42.0,-262.0,-369.0,-764.0,1
88.0,-223.0,-45.0,-277.0,-390.0,-774.0,1
88.0,-220.0,-41.0,-287.0,-407.0,-782.0,1
88.0,-219.0,-46.0,-296.0,-424.0,-796.0,1
88.0,-223.0,-49.0,-309.0,-439.0,-808.0,1
89.0,-220.0,-46.0,-314.0,-451.0,-825.0,1
87.0,-222.0,-45.0,-317.0,-461.0,-838.0,1
90.0,-221.0,-49.0,-316.0,-469.0,-856.0,1
91.0,-221.0,-48.0,-309.0,-474.0,-867.0,1
91.0,-219.0,-47.0,-297.0,-478.0,-883.0,1
93.0,-220.0,-45.0,-284.0,-484.0,-899.0,1
92.0,-216.0,-47.0,-285.0,-498.0,-915.0,1
89.0,-215.0,-45.0,-287.0,-519.0,-925.0,1
88.0,-216.0,-44.0,-281.0,-540.0,-936.0,1
85.0,-215.0,-48.0,-271.0,-564.0,-944.0,1
85.0,-214.0,-53.0,-256.0,-590.0,-956.0,1
87.0,-210.0,-51.0,-248.0,-618.0,-969.0,1
87.0,-204.0,-53.0,-253.0,-642.0,-985.0,1
88.0,-204.0,-53.0,-264.0,-663.0,-1000.0,1
90.0,-203.0,-56.0,-274.0,-683.0,-1024.0,1
89.0,-201.0,-52.0,-287.0,-698.0,-1039.0,1
93.0,-204.0,-58.0,-297.0,-713.0,-1060.0,1
92.0,-202.0,-58.0,-311.0,-731.0,-1081.0,1
96.0,-206.0,-60.0,-322.0,-746.0,-1102.0,1
94.0,-208.0,-60.0,-325.0,-756.0,-1118.0,1
95.0,-207.0,-65.0,-320.0,-767.0,-1139.0,1
92.0,-206.0,-64.0,-309.0,-781.0,-1159.0,1
96.0,-201.0,-70.0,-299.0,-800.0,-1187.0,1
97.0,-199.0,-65.0,-282.0,-818.0,-1215.0,1
95.0,-192.0,-74.0,-250.0,-833.0,-1244.0,1
99.0,-188.0,-75.0,-236.0,-854.0,-1269.0,1
99.0,-185.0,-75.0,-232.0,-872.0,-1297.0,1
104.0,-185.0,-73.0,-240.0,-891.0,-1323.0,1
99.0,-185.0,-72.0,-258.0,-910.0,-1356.0,1
103.0,-189.0,-73.0,-269.0,-924.0,-1386.0,1
103.0,-191.0,-75.0,-270.0,-932.0,-1421.0,1
102.0,-186.0,-75.0,-277.0,-934.0,-1455.0,1
106.0,-183.0,-72.0,-286.0,-938.0,-1507.0,1
101.0,-174.0,-67.0,-303.0,-945.0,-1549.0,1
102.0,-169.0,-65.0,-323.0,-957.0,-1591.0,1
107.0,-158.0,-61.0,-353.0,-972.0,-1628.0,1
109.0,-158.0,-61.0,-386.0,-982.0,-1672.0,1
108.0,-144.0,-57.0,-427.0,-985.0,-1714.0,1
109.0,-136.0,-59.0,-480.0,-979.0,-1761.0,1
108.0,-132.0,-60.0,-546.0,-960.0,-1805.0,1
110.0,-129.0,-62.0,-633.0,-934.0,-1845.0,1
111.0,-131.0,-59.0,-736.0,-901.0,-1880.0,1
111.0,-131.0,-53.0,-868.0,-865.0,-1914.0,1
114.0,-133.0,-59.0,-970.0,-838.0,-1937.0,1
114.0,-135.0,-55.0,-1058.0,-812.0,-1961.0,1
114.0,-134.0,-56.0,-1147.0,-798.0,-1978.0,1
114.0,-139.0,-61.0,-1245.0,-805.0,-2004.0,1
111.0,-147.0,-60.0,-1342.0,-832.0,-2026.0,1
104.0,-153.0,-65.0,-1428.0,-868.0,-2047.0,1
117.0,-159.0,-64.0,-1508.0,-911.0,-2062.0,1
117.0,-165.0,-67.0,-1572.0,-942.0,-2087.0,1
113.0,-164.0,-64.0,-1622.0,-972.0,-2099.0,1
107.0,-159.0,-76.0,-1654.0,-998.0,-2107.0,1
102.0,-163.0,-68.0,-1685.0,-1032.0,-2107.0,1
110.0,-136.0,-73.0,-1714.0,-1059.0,-2107.0,1
111.0,-144.0,-92.0,-1755.0,-1081.0,-2102.0,1
115.0,-139.0,-74.0,-1797.0,-1086.0,-2102.0,1
111.0,-129.0,-49.0,-1830.0,-1075.0,-2101.0,1
110.0,-130.0,-69.0,-1878.0,-1062.0,-2090.0,1
108.0,-115.0,-86.0,-1924.0,-1049.0,-2074.0,1
108.0,-114.0,-84.0,-1989.0,-1034.0,-2057.0,1
123.0,-116.0,-81.0,-2048.0,-1024.0,-2029.0,1
122.0,-121.0,-78.0,-2088.0,-997.0,-2002.0,1
125.0,-128.0,-73.0,-2103.0,-968.0,-1962.0,1
126.0,-134.0,-69.0,-2095.0,-937.0,-1929.0,1
122.0,-135.0,-72.0,-2072.0,-922.0,-1893.0,1
127.0,-144.0,-63.0,-2047.0,-917.0,-1856.0,1
117.0,-132.0,-62.0,-2016.0,-931.0,-1828.0,1
114.0,-128.0,-59.0,-1971.0,-960.0,-1810.0,1
102.0,-126.0,-61.0,-1925.0,-1015.0,-1789.0,1
96.0,-125.0,-62.0,-1890.0,-1059.0,-1779.0,1
85.0,-127.0,-62.0,-1842.0,-1082.0,-1764.0,1
75.0,-125.0,-66.0,-1776.0,-1083.0,-1753.0,1
68.0,-121.0,-76.0,-1700.0,-1056.0,-1729.0,1
62.0,-117.0,-87.0,-1629.0,-996.0,-1699.0,1
60.0,-105.0,-107.0,-1560.0,-884.0,-1668.0,1
63.0,-95.0,-124.0,-1495.0,-730.0,-1642.0,1
75.0,-81.0,-143.0,-1449.0,-534.0,-1606.0,1
96.0,-71.0,-163.0,-1445.0,-265.0,-1562.0,1
117.0,-64.0,-175.0,-1487.0,-3.0,-1543.0,1
128.0,-65.0,-183.0,-1546.0,300.0,-1551.0,1
140.0,-70.0,-182.0,-1615.0,611.0,-1565.0,1
144.0,-85.0,-179.0,-1702.0,903.0,-1582.0,1
139.0,-97.0,-163.0,-1799.0,1154.0,-1576.0,1
128.0,-114.0,-147.0,-1886.0,1344.0,-1534.0,1
138.0,-131.0,-141.0,-1992.0,1453.0,-1419.0,1
139.0,-151.0,-123.0,-2138.0,1517.0,-1250.0,1
140.0,-172.0,-109.0,-2237.0,1507.0,-1062.0,1
123.0,-184.0,-106.0,-2213.0,1445.0,-982.0,1
110.0,-181.0,-108.0,-2104.0,1320.0,-942.0,1
97.0,-170.0,-114.0,-1911.0,1215.0,-884.0,1
87.0,-154.0,-119.0,-1650.0,1164.0,-785.0,1
74.0,-144.0,-136.0,-1331.0,1174.0,-626.0,1
57.0,-134.0,-172.0,-978.0,1242.0,-421.0,1
54.0,-128.0,-191.0,-635.0,1363.0,-197.0,1
46.0,-116.0,-237.0,-328.0,1533.0,-30.0,1
34.0,-107.0,-288.0,-98.0,1771.0,42.0,1
10.0,-99.0,-312.0,29.0,1913.0,2.0,1
-22.0,-113.0,-319.0,41.0,1931.0,-99.0,1
-46.0,-124.0,-301.0,57.0,1762.0,-218.0,1
-40.0,-135.0,-278.0,133.0,1475.0,-309.0,1
-27.0,-131.0,-254.0,281.0,1211.0,-289.0,1
14.0,-133.0,-252.0,507.0,1063.0,-162.0,1
63.0,-142.0,-228.0,693.0,1101.0,-17.0,1
133.0,-163.0,-158.0,899.0,1267.0,185.0,1
202.0,-197.0,-125.0,1146.0,1647.0,536.0,1
182.0,-174.0,-108.0,1614.0,2040.0,544.0,1
160.0,-147.0,-204.0,2265.0,1982.0,200.0,1
241.0,-137.0,-229.0,2433.0,1842.0,353.0,1
368.0,-193.0,-60.0,2344.0,1967.0,783.0,1
451.0,-163.0,-19.0,2874.0,1917.0,797.0,1
621.0,-76.0,-18.0,3902.0,1677.0,267.0,1
765.0,84.0,-93.0,5046.0,1768.0,-758.0,1
824.0,310.0,-227.0,5914.0,1816.0,-2242.0,1
987.0,637.0,-483.0,6430.0,1502.0,-4219.0,1
835.0,926.0,-695.0,6202.0,531.0,-5037.0,1
702.0,1055.0,-723.0,4624.0,246.0,-4407.0,1
694.0,1032.0,-580.0,2502.0,600.0,-2906.0,1
656.0,797.0,-446.0,1033.0,1329.0,-1319.0,1
655.0,519.0,-389.0,519.0,1855.0,-86.0,1
556.0,304.0,-442.0,610.0,2215.0,502.0,1
527.0,137.0,-498.0,687.0,2469.0,491.0,1
541.0,87.0,-507.0,600.0,2666.0,-9.0,1
612.0,89.0,-461.0,360.0,2752.0,-816.0,1
676.0,108.0,-438.0,92.0,2783.0,-1449.0,1
689.0,123.0,-427.0,-62.0,2787.0,-1992.0,1
662.0,83.0,-404.0,-179.0,2872.0,-2294.0,1
633.0,45.0,-376.0,-258.0,3069.0,-2309.0,1
550.0,41.0,-358.0,-324.0,3317.0,-2261.0,1
437.0,27.0,-291.0,-408.0,3503.0,-2209.0,1
403.0,54.0,-211.0,-480.0,3577.0,-2211.0,1
350.0,92.0,-120.0,-423.0,3546.0,-2240.0,1
281.0,121.0,-48.0,-268.0,3309.0,-2172.0,1
255.0,127.0,-7.0,63.0,2680.0,-1982.0,1
214.0,126.0,4.0,386.0,2189.0,-1793.0,1
178.0,142.0,8.0,577.0,1844.0,-1609.0,1
142.0,153.0,0.0,659.0,1480.0,-1392.0,1
144.0,145.0,3.0,675.0,1130.0,-1171.0,1
136.0,124.0,16.0,620.0,830.0,-966.0,1
145.0,104.0,30.0,516.0,512.0,-786.0,1
149.0,83.0,45.0,393.0,186.0,-603.0,1
169.0,67.0,40.0,299.0,-143.0,-389.0,1
209.0,64.0,35.0,230.0,-507.0,-205.0,1
238.0,70.0,26.0,168.0,-743.0,-47.0,1
252.0,60.0,24.0,56.0,-896.0,108.0,1
255.0,51.0,20.0,-102.0,-972.0,266.0,1
258.0,49.0,36.0,-225.0,-981.0,409.0,1
252.0,72.0,36.0,-252.0,-910.0,440.0,1
225.0,99.0,33.0,-238.0,-799.0,394.0,1
210.0,125.0,12.0,-220.0,-721.0,365.0,1
182.0,115.0,28.0,-237.0,-630.0,368.0,1
190.0,136.0,24.0,-220.0,-571.0,384.0,1
196.0,132.0,25.0,-152.0,-510.0,394.0,1
184.0,144.0,7.0,-78.0,-429.0,359.0,1
177.0,136.0,2.0,-49.0,-372.0,336.0,1
199.0,152.0,-22.0,-76.0,-368.0,334.0,1
213.0,129.0,-26.0,-148.0,-300.0,429.0,1
210.0,107.0,-20.0,-166.0,-206.0,537.0,1
200.0,97.0,-25.0,-150.0,-175.0,587.0,1
183.0,94.0,-23.0,-163.0,-193.0,561.0,1
145.0,65.0,-7.0,-218.0,-247.0,518.0,1
133.0,77.0,6.0,-277.0,-363.0,401.0,1
126.0,76.0,12.0,-332.0,-418.0,367.0,1
130.0,61.0,33.0,-319.0,-386.0,429.0,1
126.0,55.0,46.0,-249.0,-351.0,454.0,1
135.0,51.0,61.0,-178.0,-340.0,414.0,1
144.0,48.0,62.0,-113.0,-329.0,365.0,1
158.0,41.0,64.0,-57.0,-350.0,268.0,1
191.0,48.0,47.0,-49.0,-389.0,160.0,1
211.0,54.0,39.0,-1.0,-322.0,166.0,1
233.0,51.0,37.0,75.0,-259.0,192.0,1
235.0,55.0,34.0,161.0,-208.0,183.0,1
233.0,67.0,26.0,222.0,-185.0,146.0,1
235.0,70.0,25.0,257.0,-174.0,104.0,1
237.0,72.0,23.0,283.0,-160.0,95.0,1
232.0,69.0,18.0,306.0,-152.0,100.0,1
235.0,56.0,11.0,338.0,-188.0,95.0,1
236.0,64.0,-1.0,348.0,-259.0,29.0,1
244.0,73.0,-11.0,361.0,-312.0,66.0,1
258.0,70.0,-24.0,416.0,-354.0,125.0,1
269.0,74.0,-41.0,471.0,-412.0,152.0,1
275.0,77.0,-43.0,491.0,-485.0,147.0,1
281.0,79.0,-56.0,479.0,-565.0,143.0,1
287.0,84.0,-73.0,447.0,-645.0,141.0,1
300.0,84.0,-81.0,411.0,-698.0,156.0,1
306.0,77.0,-91.0,375.0,-725.0,179.0,1
310.0,65.0,-100.0,331.0,-736.0,209.0,1
309.0,58.0,-109.0,289.0,-729.0,242.0,1
315.0,49.0,-115.0,271.0,-700.0,268.0,1
323.0,43.0,-123.0,255.0,-650.0,283.0,1
314.0,36.0,-142.0,224.0,-589.0,293.0,1
297.0,32.0,-147.0,187.0,-536.0,278.0,1
275.0,30.0,-150.0,170.0,-493.0,235.0,1
268.0,25.0,-162.0,172.0,-442.0,195.0,1
268.0,16.0,-164.0,188.0,-377.0,185.0,1
268.0,17.0,-163.0,196.0,-292.0,178.0,1
270.0,16.0,-157.0,201.0,-194.0,173.0,1
278.0,14.0,-145.0,217.0,-127.0,167.0,1
290.0,15.0,-138.0,246.0,-59.0,163.0,1
292.0,24.0,-132.0,281.0,15.0,160.0,1
304.0,21.0,-119.0,302.0,86.0,183.0,1
306.0,29.0,-115.0,341.0,151.0,204.0,1
304.0,26.0,-110.0,373.0,228.0,231.0,1
295.0,24.0,-105.0,395.0,302.0,247.0,1
293.0,23.0,-98.0,410.0,367.0,268.0,1
293.0,29.0,-95.0,414.0,441.0,290.0,1
292.0,32.0,-86.0,379.0,477.0,316.0,1
280.0,26.0,-87.0,332.0,500.0,309.0,1
290.0,31.0,-81.0,270.0,486.0,300.0,1
275.0,35.0,-77.0,210.0,476.0,278.0,1
273.0,19.0,-72.0,166.0,453.0,279.0,1
252.0,32.0,-66.0,144.0,409.0,272.0,1
268.0,33.0,-76.0,134.0,355.0,311.0,1
275.0,15.0,-71.0,133.0,354.0,336.0,1
254.0,25.0,-75.0,168.0,378.0,322.0,1
243.0,17.0,-80.0,169.0,372.0,329.0,1
243.0,6.0,-83.0,159.0,362.0,348.0,1
239.0,5.0,-84.0,161.0,379.0,342.0,1
237.0,-2.0,-83.0,160.0,431.0,330.0,1
235.0,-4.0,-82.0,165.0,500.0,320.0,1
231.0,-4.0,-93.0,169.0,562.0,311.0,1
228.0,-13.0,-90.0,160.0,605.0,287.0,1
228.0,-11.0,-88.0,162.0,636.0,280.0,1
234.0,-9.0,-93.0,180.0,662.0,291.0,1
241.0,-6.0,-93.0,211.0,680.0,300.0,1
244.0,-4.0,-99.0,231.0,688.0,302.0,1
245.0,-4.0,-95.0,237.0,692.0,299.0,1
245.0,-1.0,-92.0,229.0,682.0,298.0,1
242.0,-3.0,-89.0,221.0,663.0,306.0,1
236.0,1.0,-86.0,217.0,636.0,312.0,1
232.0,1.0,-83.0,216.0,604.0,311.0,1
226.0,2.0,-85.0,210.0,567.0,316.0,1
230.0,-1.0,-84.0,195.0,532.0,339.0,1
233.0,-4.0,-86.0,177.0,488.0,348.0,1
239.0,-3.0,-84.0,154.0,448.0,346.0,1
247.0,-5.0,-84.0,142.0,421.0,333.0,1
262.0,-6.0,-83.0,133.0,415.0,325.0,1
278.0,-7.0,-80.0,121.0,429.0,316.0,1
281.0,-3.0,-75.0,101.0,453.0,304.0,1
279.0,-4.0,-74.0,67.0,484.0,282.0,1
291.0,-4.0,-70.0,26.0,508.0,264.0,1
269.0,-1.0,-70.0,-27.0,566.0,253.0,1
251.0,-8.0,-60.0,-97.0,620.0,256.0,1
248.0,-17.0,-55.0,-107.0,622.0,226.0,1
242.0,-21.0,-53.0,-97.0,616.0,197.0,1
239.0,-30.0,-52.0,-99.0,610.0,179.0,1
241.0,-37.0,-52.0,-94.0,599.0,166.0,1
243.0,-38.0,-45.0,-80.0,583.0,152.0,1
248.0,-39.0,-51.0,-56.0,567.0,141.0,1
258.0,-36.0,-45.0,-29.0,555.0,139.0,1
262.0,-33.0,-46.0,-1.0,549.0,128.0,1
264.0,-30.0,-45.0,23.0,543.0,109.0,1
261.0,-24.0,-42.0,32.0,536.0,86.0,1
260.0,-24.0,-43.0,31.0,530.0,71.0,1
258.0,-16.0,-42.0,40.0,527.0,70.0,1
255.0,-16.0,-37.0,50.0,521.0,71.0,1
253.0,-18.0,-41.0,60.0,511.0,75.0,1
251.0,-19.0,-40.0,68.0,500.0,81.0,1
247.0,-21.0,-40.0,78.0,490.0,89.0,1
244.0,-24.0,-40.0,94.0,481.0,95.0,1
244.0,-28.0,-41.0,117.0,478.0,102.0,1
246.0,-34.0,-39.0,143.0,477.0,106.0,1
249.0,-37.0,-38.0,170.0,479.0,111.0,1
248.0,-42.0,-41.0,204.0,482.0,111.0,1
250.0,-43.0,-35.0,243.0,486.0,109.0,1
252.0,-42.0,-36.0,284.0,482.0,114.0,1
253.0,-42.0,-33.0,326.0,468.0,120.0,1
261.0,-40.0,-40.0,373.0,449.0,123.0,1
259.0,-39.0,-39.0,423.0,435.0,115.0,1
261.0,-37.0,-39.0,479.0,423.0,108.0,1
260.0,-33.0,-34.0,513.0,416.0,92.0,1
271.0,-33.0,-39.0,530.0,418.0,68.0,1
266.0,-28.0,-33.0,536.0,432.0,18.0,1
264.0,-15.0,-33.0,518.0,435.0,-28.0,1
263.0,-13.0,-34.0,469.0,439.0,-57.0,1
260.0,-4.0,-30.0,406.0,443.0,-70.0,1
262.0,-5.0,-30.0,324.0,435.0,-78.0,1
261.0,-19.0,-24.0,291.0,442.0,-98.0,1
258.0,-17.0,-24.0,340.0,465.0,-117.0,1
256.0,-14.0,-23.0,367.0,466.0,-133.0,1
260.0,-10.0,-20.0,367.0,457.0,-148.0,1
261.0,-4.0,-17.0,367.0,455.0,-161.0,1
264.0,-4.0,-17.0,363.0,445.0,-176.0,1
267.0,0.0,-19.0,345.0,428.0,-178.0,1
265.0,3.0,-16.0,323.0,407.0,-174.0,1
269.0,5.0,-20.0,294.0,383.0,-162.0,1
270.0,7.0,-13.0,265.0,367.0,-164.0,1
265.0,8.0,-14.0,235.0,353.0,-150.0,1
265.0,8.0,-20.0,217.0,342.0,-138.0,1
266.0,10.0,-18.0,202.0,336.0,-127.0,1
267.0,7.0,-23.0,190.0,337.0,-120.0,1
269.0,8.0,-25.0,177.0,339.0,-112.0,1
276.0,7.0,-26.0,161.0,345.0,-109.0,1
267.0,9.0,-36.0,142.0,359.0,-105.0,1
271.0,10.0,-34.0,114.0,375.0,-100.0,1
270.0,9.0,-37.0,80.0,394.0,-90.0,1
271.0,9.0,-32.0,41.0,422.0,-81.0,1
265.0,10.0,-30.0,11.0,441.0,-71.0,1
260.0,8.0,-30.0,-16.0,457.0,-64.0,1
257.0,9.0,-29.0,-38.0,465.0,-56.0,1
254.0,11.0,-25.0,-56.0,467.0,-51.0,1
252.0,6.0,-22.0,-70.0,471.0,-39.0,1
247.0,5.0,-16.0,-82.0,475.0,-31.0,1
248.0,3.0,-13.0,-95.0,482.0,-18.0,1
247.0,3.0,-8.0,-107.0,486.0,-11.0,1
247.0,-2.0,1.0,-123.0,490.0,-3.0,1
245.0,-2.0,-4.0,-132.0,487.0,2.0,1
246.0,-2.0,0.0,-136.0,480.0,11.0,1
248.0,-4.0,-3.0,-137.0,467.0,16.0,1
246.0,-4.0,1.0,-132.0,452.0,25.0,1
248.0,-4.0,-2.0,-124.0,436.0,30.0,1
252.0,-4.0,3.0,-115.0,416.0,41.0,1
253.0,-6.0,-1.0,-106.0,400.0,44.0,1
256.0,-4.0,-3.0,-94.0,384.0,53.0,1
256.0,-6.0,-5.0,-86.0,365.0,57.0,1
257.0,-5.0,-8.0,-83.0,351.0,62.0,1
256.0,-9.0,-8.0,-82.0,341.0,61.0,1
260.0,-12.0,-8.0,-82.0,333.0,64.0,1
259.0,-12.0,-6.0,-86.0,326.0,62.0,1
254.0,-12.0,-11.0,-87.0,321.0,66.0,1
257.0,-11.0,-4.0,-86.0,316.0,61.0,1
257.0,-13.0,-6.0,-85.0,313.0,62.0,1
256.0,-11.0,-7.0,-84.0,310.0,58.0,1
254.0,-17.0,-1.0,-82.0,306.0,57.0,1
255.0,-18.0,5.0,-76.0,304.0,51.0,1
256.0,-15.0,4.0,-66.0,300.0,50.0,1
256.0,-15.0,5.0,-60.0,293.0,43.0,1
255.0,-18.0,5.0,-51.0,286.0,40.0,1
259.0,-16.0,3.0,-44.0,274.0,35.0,1
258.0,-17.0,4.0,-40.0,261.0,34.0,1
258.0,-17.0,10.0,-37.0,248.0,28.0,1
257.0,-16.0,10.0,-31.0,228.0,27.0,1
258.0,-19.0,12.0,-21.0,205.0,22.0,1
257.0,-17.0,6.0,-12.0,186.0,21.0,1
258.0,-16.0,9.0,-3.0,166.0,16.0,1
256.0,-16.0,8.0,7.0,146.0,17.0,1
255.0,-14.0,8.0,18.0,127.0,15.0,1
259.0,-17.0,8.0,27.0,108.0,17.0,1
260.0,-15.0,5.0,36.0,91.0,12.0,1
258.0,-16.0,7.0,45.0,78.0,13.0,1
255.0,-14.0,7.0,51.0,66.0,9.0,1
257.0,-16.0,6.0,54.0,55.0,11.0,1
257.0,-16.0,4.0,55.0,47.0,9.0,1
258.0,-14.0,0.0,56.0,41.0,12.0,1
257.0,-12.0,0.0,55.0,35.0,7.0,1
259.0,-12.0,1.0,55.0,30.0,8.0,1
258.0,-10.0,4.0,52.0,26.0,5.0,1
256.0,-12.0,2.0,48.0,24.0,6.0,1
256.0,-10.0,2.0,43.0,24.0,2.0,1
257.0,-11.0,0.0,37.0,23.0,2.0,1
256.0,-11.0,2.0,33.0,21.0,1.0,1
258.0,-11.0,-1.0,33.0,19.0,2.0,1
262.0,-11.0,-1.0,34.0,16.0,1.0,1
261.0,-12.0,-4.0,33.0,14.0,4.0,1
261.0,-11.0,-1.0,33.0,11.0,2.0,1
260.0,-12.0,-4.0,30.0,6.0,3.0,1
262.0,-7.0,-7.0,24.0,4.0,0.0,1
260.0,-10.0,-4.0,20.0,3.0,-1.0,1
259.0,-13.0,-6.0,13.0,2.0,-6.0,1
261.0,-11.0,-3.0,7.0,2.0,-8.0,1
263.0,-10.0,-2.0,1.0,2.0,-12.0,1
259.0,-7.0,-3.0,-1.0,-1.0,-10.0,1
260.0,-10.0,-3.0,-4.0,-1.0,-14.0,1
261.0,-6.0,-1.0,-9.0,1.0,-14.0,1
260.0,-12.0,-4.0,-13.0,3.0,-17.0,1
260.0,-10.0,-2.0,-17.0,5.0,-16.0,1
261.0,-9.0,-2.0,-20.0,3.0,-18.0,1
260.0,-9.0,-6.0,-24.0,3.0,-20.0,1
262.0,-10.0,-1.0,-30.0,2.0,-22.0,1
262.0,-11.0,-1.0,-34.0,-1.0,-22.0,1
262.0,-9.0,-6.0,-34.0,-3.0,-25.0,1
261.0,-12.0,-8.0,-36.0,-6.0,-24.0,1
261.0,-11.0,-7.0,-36.0,-9.0,-26.0,1
264.0,-13.0,-5.0,-38.0,-11.0,-24.0,1
261.0,-10.0,-5.0,-39.0,-12.0,-27.0,1
262.0,-10.0,-9.0,-40.0,-12.0,-27.0,1
263.0,-7.0,-11.0,-44.0,-12.0,-30.0,1
264.0,-9.0,-8.0,-48.0,-10.0,-29.0,1
264.0,-8.0,-12.0,-51.0,-5.0,-32.0,1
261.0,-7.0,-8.0,-54.0,-1.0,-31.0,1
263.0,-12.0,-9.0,-55.0,2.0,-31.0,1
261.0,-9.0,-6.0,-56.0,7.0,-29.0,1
261.0,-4.0,-9.0,-57.0,13.0,-28.0,1
262.0,-9.0,-8.0,-57.0,17.0,-26.0,1
257.0,-4.0,-10.0,-56.0,21.0,-25.0,1
261.0,-6.0,-8.0,-54.0,25.0,-22.0,1
256.0,-7.0,-6.0,-54.0,27.0,-20.0,1
259.0,-9.0,-3.0,-51.0,31.0,-18.0,1
258.0,-10.0,-9.0,-49.0,32.0,-18.0,1
257.0,-10.0,-5.0,-46.0,34.0,-14.0,1
261.0,-9.0,-10.0,-42.0,33.0,-13.0,1
260.0,-7.0,-4.0,-38.0,34.0,-11.0,1
259.0,-9.0,-6.0,-35.0,33.0,-11.0,1
261.0,-8.0,-7.0,-32.0,32.0,-9.0,1
258.0,-7.0,-2.0,-30.0,33.0,-8.0,1
260.0,-9.0,-6.0,-29.0,32.0,-9.0,1
260.0,-10.0,-5.0,-27.0,35.0,-7.0,1
259.0,-8.0,-9.0,-24.0,36.0,-4.0,1
259.0,-10.0,-5.0,-22.0,38.0,-4.0,1
262.0,-9.0,-8.0,-19.0,39.0,-3.0,1
260.0,-5.0,-7.0,-17.0,41.0,-1.0,1
263.0,-9.0,-8.0,-15.0,45.0,1.0,1
260.0,-7.0,-4.0,-15.0,48.0,3.0,1
258.0,-10.0,-5.0,-16.0,51.0,4.0,1
260.0,-7.0,-4.0,-17.0,52.0,6.0,1
260.0,-8.0,-5.0,-16.0,56.0,6.0,1
259.0,-9.0,-5.0,-13.0,57.0,7.0,1
258.0,-10.0,-5.0,-9.0,56.0,7.0,1
258.0,-10.0,-5.0,-3.0,54.0,7.0,1
257.0,-8.0,-7.0,1.0,53.0,8.0,1
260.0,-12.0,-5.0,6.0,50.0,10.0,1
260.0,-13.0,-7.0,10.0,47.0,10.0,1
258.0,-11.0,-7.0,13.0,45.0,11.0,1
257.0,-6.0,-4.0,13.0,45.0,11.0,1
259.0,-8.0,-6.0,13.0,47.0,10.0,1
259.0,-11.0,-4.0,11.0,48.0,11.0,1
257.0,-10.0,-7.0,9.0,47.0,10.0,1
258.0,-12.0,-8.0,8.0,47.0,9.0,1
259.0,-11.0,-7.0,10.0,47.0,8.0,1
259.0,-11.0,-7.0,13.0,44.0,8.0,1
263.0,-11.0,-7.0,16.0,43.0,9.0,1
260.0,-8.0,-11.0,14.0,43.0,5.0,1
261.0,-11.0,-7.0,9.0,44.0,5.0,1
259.0,-13.0,-11.0,8.0,51.0,3.0,1
261.0,-10.0,-9.0,5.0,54.0,2.0,1
259.0,-10.0,-7.0,1.0,57.0,-1.0,1
262.0,-7.0,-9.0,-1.0,59.0,-1.0,1
261.0,-11.0,-7.0,-1.0,60.0,-3.0,1
261.0,-12.0,-4.0,-2.0,63.0,-2.0,1
260.0,-10.0,-10.0,-1.0,62.0,-2.0,1
261.0,-10.0,-6.0,-1.0,62.0,0.0,1
261.0,-13.0,-9.0,1.0,61.0,-2.0,1
265.0,-11.0,-9.0,-1.0,62.0,-1.0,1
261.0,-10.0,-9.0,-6.0,64.0,-3.0,1
261.0,-8.0,-8.0,-14.0,68.0,-1.0,1
260.0,-8.0,-7.0,-18.0,71.0,-3.0,1
260.0,-13.0,-9.0,-21.0,75.0,-2.0,1
260.0,-12.0,-8.0,-22.0,75.0,-3.0,1
262.0,-12.0,-8.0,-22.0,75.0,0.0,1
261.0,-10.0,-6.0,-22.0,76.0,-2.0,1
263.0,-13.0,-7.0,-22.0,74.0,0.0,1
263.0,-11.0,-6.0,-23.0,76.0,-2.0,1
262.0,-13.0,-8.0,-25.0,76.0,-2.0,1
260.0,-10.0,-8.0,-27.0,81.0,-4.0,1
260.0,-9.0,-5.0,-29.0,83.0,-2.0,1
262.0,-11.0,-9.0,-31.0,88.0,-4.0,1
259.0,-11.0,-7.0,-31.0,92.0,-3.0,1
261.0,-10.0,-8.0,-30.0,93.0,-6.0,1
260.0,-9.0,-8.0,-30.0,95.0,-5.0,1
259.0,-8.0,-7.0,-30.0,97.0,-8.0,1
260.0,-8.0,-5.0,-29.0,97.0,-5.0,1
257.0,-8.0,-7.0,-26.0,99.0,-7.0,1
261.0,-8.0,-3.0,-26.0,100.0,-5.0,1
258.0,-8.0,-4.0,-25.0,100.0,-7.0,1
257.0,-9.0,-2.0,-25.0,103.0,-4.0,1
258.0,-8.0,-6.0,-24.0,104.0,-6.0,1
258.0,-7.0,-2.0,-23.0,106.0,-3.0,1
259.0,-11.0,-6.0,-23.0,106.0,-6.0,1
259.0,-11.0,-7.0,-22.0,107.0,-3.0,1
262.0,-11.0,-5.0,-22.0,107.0,-4.0,1
261.0,-12.0,-7.0,-23.0,106.0,-2.0,1
259.0,-7.0,0.0,-21.0,107.0,-3.0,1
258.0,-9.0,0.0,-19.0,107.0,-1.0,1
263.0,-11.0,-4.0,-20.0,109.0,-4.0,1
262.0,-10.0,-4.0,-19.0,107.0,-1.0,1
261.0,-12.0,-6.0,-18.0,107.0,-3.0,1
258.0,-10.0,-5.0,-16.0,105.0,1.0,1
259.0,-8.0,-3.0,-15.0,103.0,0.0,1
259.0,-9.0,-2.0,-14.0,101.0,2.0,1
260.0,-10.0,-1.0,-15.0,100.0,1.0,1
258.0,-10.0,-2.0,-13.0,99.0,2.0,1
259.0,-7.0,-5.0,-13.0,97.0,0.0,1
258.0,-5.0,-3.0,-12.0,96.0,4.0,1
261.0,-6.0,-3.0,-13.0,95.0,2.0,1
260.0,-8.0,0.0,-13.0,95.0,4.0,1
259.0,-11.0,1.0,-13.0,92.0,1.0,1
260.0,-6.0,-4.0,-11.0,91.0,5.0,1
260.0,-9.0,0.0,-9.0,87.0,3.0,1
260.0,-10.0,-4.0,-7.0,85.0,7.0,1
256.0,-9.0,-3.0,-5.0,83.0,4.0,1
261.0,-11.0,-5.0,-5.0,83.0,5.0,1
257.0,-8.0,-4.0,-8.0,80.0,1.0,1
261.0,-7.0,-2.0,-12.0,80.0,3.0,1
262.0,-10.0,-2.0,-15.0,82.0,0.0,1
261.0,-8.0,-2.0,-16.0,81.0,5.0,1
260.0,-10.0,-2.0,-16.0,79.0,3.0,1
262.0,-9.0,-4.0,-15.0,74.0,5.0,1
261.0,-8.0,1.0,-13.0,70.0,4.0,1
259.0,-10.0,-3.0,-9.0,66.0,6.0,1
259.0,-9.0,0.0,-8.0,62.0,4.0,1
260.0,-14.0,-5.0,-6.0,59.0,5.0,1
262.0,-9.0,-4.0,-8.0,57.0,3.0,1
260.0,-11.0,-4.0,-10.0,59.0,4.0,1
260.0,-14.0,-1.0,-12.0,59.0,1.0,1
261.0,-12.0,-2.0,-14.0,59.0,4.0,1
259.0,-12.0,-2.0,-15.0,59.0,0.0,1
260.0,-12.0,-3.0,-14.0,54.0,1.0,1
262.0,-12.0,-3.0,-13.0,53.0,-2.0,1
261.0,-9.0,-5.0,-10.0,52.0,1.0,1
262.0,-12.0,-1.0,-12.0,53.0,0.0,1
262.0,-11.0,-6.0,-11.0,53.0,2.0,1
260.0,-12.0,-3.0,-10.0,53.0,-1.0,1
260.0,-12.0,-3.0,-10.0,53.0,2.0,1
260.0,-13.0,-1.0,-12.0,50.0,-1.0,1
260.0,-9.0,1.0,-13.0,52.0,1.0,1
258.0,-6.0,-5.0,-16.0,50.0,-5.0,1
261.0,-10.0,-4.0,-18.0,49.0,-2.0,1
259.0,-9.0,-2.0,-19.0,53.0,-5.0,1
261.0,-11.0,-3.0,-20.0,56.0,-1.0,1
260.0,-12.0,-3.0,-20.0,57.0,-3.0,1
258.0,-12.0,-5.0,-19.0,55.0,-2.0,1
258.0,-12.0,-10.0,-19.0,52.0,-3.0,1
260.0,-13.0,-3.0,-18.0,52.0,0.0,1
260.0,-10.0,-1.0,-17.0,50.0,-2.0,1
260.0,-8.0,-4.0,-15.0,48.0,0.0,1
260.0,-9.0,-2.0,-14.0,46.0,-2.0,1
261.0,-9.0,-5.0,-15.0,45.0,0.0,1
258.0,-11.0,-4.0,-17.0,44.0,-4.0,1
261.0,-14.0,-4.0,-19.0,41.0,-2.0,1
258.0,-11.0,-3.0,-21.0,39.0,-5.0,1
260.0,-10.0,-3.0,-21.0,32.0,-5.0,1
262.0,-11.0,-4.0,-21.0,26.0,-7.0,1
260.0,-9.0,-2.0,-22.0,20.0,-5.0,1
261.0,-11.0,-1.0,-20.0,14.0,-9.0,1
261.0,-7.0,-5.0,-21.0,9.0,-9.0,1
260.0,-6.0,-4.0,-21.0,4.0,-11.0,1
261.0,-10.0,-5.0,-20.0,1.0,-12.0,1
261.0,-12.0,-5.0,-16.0,0.0,-12.0,1
260.0,-12.0,-4.0,-13.0,1.0,-9.0,1
258.0,-11.0,-6.0,-9.0,-2.0,-11.0,1
258.0,-10.0,-3.0,-6.0,-5.0,-11.0,1
260.0,-7.0,-6.0,-4.0,-9.0,-12.0,1
261.0,-4.0,-6.0,-2.0,-11.0,-11.0,1
259.0,-8.0,-7.0,-4.0,-8.0,-13.0,1
257.0,-5.0,-6.0,-7.0,0.0,-12.0,1
261.0,-8.0,-10.0,-14.0,4.0,-15.0,1
259.0,-9.0,-7.0,-19.0,9.0,-14.0,1
260.0,-8.0,-6.0,-22.0,10.0,-15.0,1
258.0,-7.0,-4.0,-25.0,10.0,-15.0,1
262.0,-10.0,-3.0,-25.0,9.0,-15.0,1
260.0,-6.0,0.0,-22.0,9.0,-13.0,1
259.0,-7.0,-9.0,-23.0,3.0,-12.0,1
259.0,-9.0,-8.0,-21.0,0.0,-11.0,1
261.0,-9.0,-3.0,-18.0,-2.0,-10.0,1
263.0,-5.0,-6.0,-15.0,-4.0,-8.0,1
260.0,-6.0,-7.0,-17.0,-7.0,-10.0,1
259.0,-12.0,-3.0,-17.0,-9.0,-10.0,1
259.0,-11.0,-5.0,-17.0,-11.0,-11.0,1
260.0,-11.0,-7.0,-19.0,-13.0,-11.0,1
262.0,-11.0,-5.0,-19.0,-13.0,-9.0,1
263.0,-9.0,-11.0,-14.0,-14.0,-9.0,1
258.0,-5.0,-9.0,-9.0,-15.0,-10.0,1
261.0,-10.0,-9.0,-5.0,-15.0,-9.0,1
263.0,-9.0,-6.0,-4.0,-14.0,-10.0,1
259.0,-7.0,-9.0,-7.0,-13.0,-10.0,1
258.0,-7.0,-7.0,-7.0,-12.0,-11.0,1
261.0,-10.0,-7.0,-10.0,-10.0,-11.0,1
261.0,-9.0,-7.0,-12.0,-5.0,-13.0,1
263.0,-8.0,-9.0,-15.0,-2.0,-14.0,1
262.0,-10.0,-8.0,-14.0,2.0,-12.0,1
259.0,-6.0,-8.0,-11.0,4.0,-11.0,1
259.0,-9.0,-8.0,-7.0,7.0,-10.0,1
262.0,-10.0,-7.0,-3.0,8.0,-8.0,1
261.0,-9.0,-12.0,-2.0,10.0,-8.0,1
259.0,-7.0,-9.0,-2.0,12.0,-7.0,1
257.0,-6.0,-4.0,-6.0,15.0,-8.0,1
259.0,-9.0,-6.0,-8.0,17.0,-8.0,1
257.0,-7.0,-6.0,-11.0,17.0,-6.0,1
258.0,-12.0,-7.0,-12.0,15.0,-5.0,1
260.0,-13.0,-7.0,-12.0,11.0,-7.0,1
259.0,-12.0,-5.0,-13.0,7.0,-7.0,1
261.0,-13.0,-8.0,-14.0,2.0,-9.0,1
261.0,-8.0,-8.0,-14.0,-3.0,-10.0,1
262.0,-10.0,-8.0,-17.0,-6.0,-11.0,1
261.0,-12.0,-10.0,-17.0,-8.0,-14.0,1
263.0,-8.0,-11.0,-16.0,-9.0,-13.0,1
265.0,-9.0,-13.0,-14.0,-8.0,-14.0,1
262.0,-8.0,-13.0,-13.0,-8.0,-16.0,1
260.0,-8.0,-10.0,-11.0,-6.0,-16.0,1
261.0,-9.0,-13.0,-12.0,-5.0,-17.0,1
260.0,-7.0,-11.0,-12.0,-4.0,-18.0,1
259.0,-8.0,-12.0,-12.0,0.0,-18.0,1
261.0,-7.0,-12.0,-14.0,3.0,-18.0,1
260.0,-9.0,-11.0,-15.0,4.0,-16.0,1
260.0,-6.0,-11.0,-18.0,7.0,-18.0,1
258.0,-7.0,-10.0,-20.0,9.0,-16.0,1
261.0,-8.0,-8.0,-19.0,10.0,-16.0,1
259.0,-6.0,-11.0,-18.0,9.0,-16.0,1
262.0,-9.0,-7.0,-16.0,8.0,-15.0,1
261.0,-9.0,-10.0,-14.0,7.0,-14.0,1
261.0,-13.0,-14.0,-11.0,4.0,-13.0,1
261.0,-6.0,-9.0,-12.0,1.0,-13.0,1
261.0,-7.0,-13.0,-12.0,2.0,-15.0,1
261.0,-8.0,-11.0,-13.0,1.0,-15.0,1
258.0,-6.0,-12.0,-16.0,1.0,-17.0,1
261.0,-12.0,-11.0,-16.0,2.0,-14.0,1
261.0,-6.0,-14.0,-16.0,2.0,-16.0,1
258.0,-5.0,-9.0,-18.0,4.0,-15.0,1
263.0,-8.0,-11.0,-16.0,5.0,-16.0,1
258.0,-7.0,-9.0,-15.0,5.0,-12.0,1
261.0,-6.0,-13.0,-13.0,3.0,-14.0,1
262.0,-7.0,-12.0,-10.0,2.0,-12.0,1
257.0,-9.0,-9.0,-10.0,2.0,-14.0,1
261.0,-11.0,-11.0,-11.0,-1.0,-12.0,1
258.0,-7.0,-11.0,-12.0,-2.0,-14.0,1
267.0,-6.0,-9.0,-11.0,-3.0,-13.0,1
254.0,-7.0,-31.0,-11.0,-5.0,-15.0,1
264.0,-1.0,-7.0,-12.0,-8.0,-14.0,1
262.0,-8.0,-7.0,-13.0,-9.0,-16.0,1
263.0,-6.0,-26.0,-14.0,-9.0,-12.0,1
269.0,-7.0,-17.0,-14.0,-11.0,-14.0,1
259.0,-5.0,-18.0,-12.0,-12.0,-12.0,1
260.0,-6.0,-13.0,-13.0,-13.0,-15.0,1
259.0,-8.0,-15.0,-13.0,-14.0,-14.0,1
259.0,-10.0,-14.0,-15.0,-15.0,-16.0,1
262.0,-6.0,-16.0,-13.0,-17.0,-12.0,1
260.0,-7.0,-8.0,-12.0,-19.0,-13.0,1
260.0,-8.0,-12.0,-9.0,-21.0,-11.0,1
258.0,-6.0,-17.0,-3.0,-23.0,-11.0,1
260.0,-10.0,-17.0,3.0,-26.0,-10.0,1
261.0,-5.0,-14.0,5.0,-26.0,-13.0,1
261.0,-8.0,-14.0,4.0,-28.0,-12.0,1
261.0,-4.0,-14.0,4.0,-27.0,-15.0,1
260.0,-6.0,-16.0,-1.0,-27.0,-14.0,1
262.0,-5.0,-18.0,-5.0,-26.0,-17.0,1
258.0,-8.0,-17.0,-11.0,-26.0,-13.0,1
260.0,-10.0,-14.0,-13.0,-25.0,-16.0,1
260.0,-8.0,-13.0,-16.0,-24.0,-13.0,1
260.0,-5.0,-14.0,-17.0,-26.0,-16.0,1
257.0,-10.0,-18.0,-18.0,-28.0,-14.0,1
259.0,-11.0,-15.0,-19.0,-27.0,-15.0,1
258.0,-5.0,-15.0,-17.0,-29.0,-12.0,1
261.0,-4.0,-16.0,-15.0,-30.0,-14.0,1
258.0,-7.0,-16.0,-14.0,-29.0,-11.0,1
261.0,-8.0,-14.0,-12.0,-31.0,-13.0,1
260.0,-10.0,-16.0,-12.0,-32.0,-12.0,1
261.0,-5.0,-15.0,-12.0,-31.0,-14.0,1
258.0,-6.0,-15.0,-13.0,-31.0,-12.0,1
259.0,-5.0,-18.0,-15.0,-29.0,-14.0,1
260.0,-10.0,-12.0,-15.0,-29.0,-12.0,1
260.0,-7.0,-11.0,-13.0,-28.0,-11.0,1
260.0,-6.0,-16.0,-11.0,-29.0,-9.0,1
261.0,-8.0,-17.0,-9.0,-30.0,-10.0,1
260.0,-4.0,-20.0,-6.0,-30.0,-8.0,1
261.0,-10.0,-16.0,-5.0,-28.0,-11.0,1
260.0,-6.0,-16.0,-6.0,-24.0,-8.0,1
264.0,-8.0,-21.0,-7.0,-23.0,-11.0,1
257.0,-5.0,-22.0,-9.0,-18.0,-9.0,1
258.0,-6.0,-17.0,-11.0,-15.0,-12.0,1
260.0,-4.0,-17.0,-14.0,-12.0,-10.0,1
259.0,-6.0,-19.0,-16.0,-7.0,-12.0,1
258.0,-6.0,-14.0,-16.0,-4.0,-8.0,1
260.0,-9.0,-19.0,-17.0,-3.0,-11.0,1
259.0,-6.0,-16.0,-16.0,-3.0,-7.0,1
258.0,-6.0,-21.0,-15.0,-1.0,-8.0,1
261.0,-6.0,-19.0,-14.0,-2.0,-5.0,1
264.0,-6.0,-21.0,-11.0,0.0,-5.0,1
261.0,-7.0,-24.0,-10.0,1.0,-4.0,1
262.0,-5.0,-19.0,-9.0,3.0,-7.0,1
261.0,-5.0,-21.0,-10.0,5.0,-5.0,1
260.0,-5.0,-21.0,-8.0,5.0,-7.0,1
260.0,-9.0,-18.0,-6.0,6.0,-6.0,1
261.0,-8.0,-20.0,-4.0,6.0,-8.0,1
261.0,-5.0,-17.0,-3.0,9.0,-6.0,1
262.0,-5.0,-18.0,-5.0,10.0,-10.0,1
261.0,-8.0,-23.0,-8.0,11.0,-9.0,1
262.0,-6.0,-17.0,-10.0,14.0,-10.0,1
259.0,-6.0,-21.0,-12.0,16.0,-9.0,1
259.0,-5.0,-18.0,-13.0,18.0,-12.0,1
260.0,-5.0,-19.0,-12.0,19.0,-9.0,1
260.0,-7.0,-22.0,-10.0,19.0,-9.0,1
258.0,-6.0,-21.0,-10.0,20.0,-6.0,1
262.0,-9.0,-21.0,-7.0,21.0,-8.0,1
260.0,-5.0,-21.0,-5.0,24.0,-6.0,1
261.0,-11.0,-21.0,-6.0,26.0,-7.0,1
262.0,-6.0,-18.0,-6.0,28.0,-7.0,1
259.0,-9.0,-21.0,-5.0,32.0,-7.0,1
264.0,-5.0,-21.0,-7.0,35.0,-3.0,1
262.0,-9.0,-24.0,-6.0,37.0,-6.0,1
260.0,-4.0,-20.0,-6.0,40.0,-5.0,1
263.0,-4.0,-19.0,-4.0,42.0,-7.0,1
260.0,-6.0,-23.0,-5.0,42.0,-4.0,1
263.0,-12.0,-20.0,-2.0,45.0,-3.0,1
262.0,-10.0,-22.0,6.0,48.0,-1.0,1
261.0,-6.0,-21.0,16.0,48.0,-3.0,1
262.0,-4.0,-24.0,19.0,52.0,-2.0,1
259.0,-4.0,-25.0,18.0,60.0,-5.0,1
261.0,-3.0,-24.0,13.0,71.0,-4.0,1
259.0,-4.0,-22.0,6.0,81.0,-6.0,1
259.0,-3.0,-21.0,1.0,92.0,-4.0,1
261.0,-6.0,-22.0,-3.0,101.0,-2.0,1
259.0,-4.0,-20.0,-4.0,109.0,3.0,1
261.0,-5.0,-17.0,-1.0,115.0,6.0,1
258.0,-7.0,-19.0,3.0,116.0,10.0,1
261.0,-4.0,-19.0,9.0,115.0,13.0,1
262.0,-8.0,-18.0,11.0,114.0,15.0,1
261.0,-5.0,-21.0,8.0,115.0,13.0,1
259.0,-7.0,-19.0,3.0,114.0,14.0,1
261.0,-9.0,-17.0,-6.0,113.0,13.0,1
261.0,-6.0,-14.0,-11.0,110.0,12.0,1
260.0,-6.0,-15.0,-15.0,107.0,10.0,1
258.0,-6.0,-20.0,-16.0,104.0,10.0,1
260.0,-11.0,-12.0,-14.0,97.0,8.0,1
260.0,-10.0,-15.0,-11.0,91.0,6.0,1
260.0,-7.0,-17.0,-8.0,83.0,4.0,1
263.0,-10.0,-13.0,-3.0,78.0,3.0,1
263.0,-5.0,-23.0,-1.0,76.0,1.0,1
261.0,-11.0,-19.0,1.0,73.0,1.0,1
262.0,-8.0,-18.0,1.0,75.0,0.0,1
261.0,-8.0,-20.0,1.0,76.0,-2.0,1
262.0,-8.0,-16.0,0.0,78.0,-4.0,1
261.0,-4.0,-16.0,-4.0,78.0,-5.0,1
261.0,-4.0,-17.0,-5.0,79.0,-4.0,1
257.0,-4.0,-21.0,-7.0,83.0,-6.0,1
263.0,-6.0,-18.0,-9.0,83.0,-6.0,1
260.0,-4.0,-17.0,-11.0,85.0,-4.0,1
258.0,-4.0,-20.0,-8.0,85.0,-4.0,1
263.0,-6.0,-15.0,-7.0,85.0,-4.0,1
262.0,-6.0,-20.0,-7.0,88.0,-3.0,1
259.0,-6.0,-16.0,-7.0,88.0,-3.0,1
258.0,-4.0,-18.0,-6.0,86.0,-2.0,1
261.0,-6.0,-17.0,-5.0,87.0,-2.0,1
259.0,-5.0,-17.0,-6.0,87.0,-1.0,1
263.0,-12.0,-20.0,-4.0,85.0,0.0,1
262.0,-4.0,-17.0,-3.0,83.0,1.0,1
260.0,-5.0,-17.0,-4.0,83.0,1.0,1
259.0,-6.0,-16.0,-3.0,83.0,2.0,1
261.0,-7.0,-17.0,-5.0,82.0,2.0,1
262.0,-4.0,-17.0,-7.0,82.0,2.0,1
258.0,-4.0,-18.0,-9.0,81.0,2.0,1
261.0,-6.0,-17.0,-11.0,81.0,3.0,1
259.0,-3.0,-19.0,-13.0,83.0,4.0,1
261.0,-6.0,-17.0,-16.0,84.0,4.0,1
262.0,-8.0,-20.0,-15.0,84.0,5.0,1
263.0,-11.0,-19.0,-16.0,84.0,6.0,1
261.0,-7.0,-16.0,-16.0,83.0,6.0,1
260.0,-6.0,-17.0,-16.0,83.0,9.0,1
262.0,-5.0,-17.0,-16.0,84.0,6.0,1
259.0,-4.0,-17.0,-17.0,85.0,8.0,1
262.0,-6.0,-16.0,-18.0,86.0,6.0,1
259.0,-7.0,-12.0,-20.0,86.0,7.0,1
262.0,-8.0,-18.0,-23.0,86.0,5.0,1
261.0,-6.0,-17.0,-25.0,87.0,4.0,1
261.0,-7.0,-18.0,-24.0,86.0,5.0,1
263.0,-7.0,-16.0,-25.0,86.0,7.0,1
266.0,-6.0,-18.0,-24.0,82.0,7.0,1
262.0,-7.0,-19.0,-23.0,80.0,10.0,1
264.0,-9.0,-20.0,-22.0,77.0,10.0,1
262.0,-5.0,-20.0,-23.0,80.0,12.0,1
267.0,-10.0,-21.0,-23.0,81.0,12.0,1
264.0,-8.0,-21.0,-25.0,83.0,11.0,1
261.0,-5.0,-21.0,-27.0,86.0,11.0,1
265.0,-6.0,-20.0,-28.0,88.0,13.0,1
263.0,-6.0,-15.0,-29.0,91.0,13.0,1
263.0,-5.0,-16.0,-28.0,91.0,17.0,1
262.0,-7.0,-20.0,-26.0,92.0,16.0,1
261.0,-6.0,-16.0,-26.0,91.0,19.0,1
262.0,-4.0,-18.0,-30.0,91.0,19.0,1
259.0,-4.0,-16.0,-32.0,91.0,20.0,1
261.0,-7.0,-15.0,-39.0,95.0,19.0,1
261.0,-5.0,-16.0,-42.0,94.0,19.0,1
261.0,-4.0,-12.0,-45.0,94.0,17.0,1
257.0,-5.0,-15.0,-43.0,95.0,19.0,1
259.0,-8.0,-13.0,-43.0,96.0,16.0,1
258.0,-6.0,-11.0,-42.0,98.0,22.0,1
259.0,-7.0,-11.0,-37.0,99.0,23.0,1
261.0,-6.0,-12.0,-34.0,99.0,31.0,1
257.0,-4.0,-11.0,-29.0,95.0,34.0,1
259.0,-4.0,-9.0,-26.0,89.0,40.0,1
255.0,-4.0,-9.0,-26.0,82.0,42.0,1
258.0,-9.0,-12.0,-25.0,73.0,45.0,1
256.0,-8.0,-10.0,-27.0,63.0,44.0,1
253.0,-8.0,-9.0,-30.0,54.0,45.0,1
254.0,-8.0,-10.0,-32.0,46.0,42.0,1
259.0,-11.0,-13.0,-30.0,40.0,43.0,1
257.0,-11.0,-10.0,-30.0,33.0,39.0,1
256.0,-12.0,-16.0,-29.0,28.0,39.0,1
256.0,-14.0,-13.0,-26.0,25.0,32.0,1
254.0,-6.0,-17.0,-25.0,24.0,31.0,1
254.0,-8.0,-14.0,-23.0,24.0,24.0,1
257.0,-8.0,-12.0,-23.0,26.0,23.0,1
257.0,-11.0,-18.0,-21.0,30.0,19.0,1
259.0,-9.0,-18.0,-19.0,34.0,19.0,1
257.0,-11.0,-18.0,-20.0,37.0,15.0,1
258.0,-10.0,-17.0,-20.0,40.0,16.0,1
258.0,-9.0,-17.0,-18.0,41.0,15.0,1
259.0,-12.0,-20.0,-13.0,44.0,20.0,1
260.0,-8.0,-18.0,-9.0,43.0,19.0,1
259.0,-9.0,-16.0,-5.0,44.0,23.0,1
258.0,-7.0,-16.0,-2.0,45.0,22.0,1
259.0,-10.0,-18.0,0.0,42.0,26.0,1
262.0,-11.0,-16.0,4.0,39.0,25.0,1
258.0,-9.0,-16.0,8.0,37.0,28.0,1
261.0,-15.0,-17.0,10.0,33.0,26.0,1
261.0,-13.0,-17.0,14.0,31.0,25.0,1
259.0,-5.0,-17.0,17.0,31.0,22.0,1
262.0,-13.0,-15.0,19.0,30.0,21.0,1
262.0,-10.0,-21.0,18.0,32.0,18.0,1
265.0,-12.0,-21.0,16.0,36.0,17.0,1
264.0,-9.0,-18.0,16.0,42.0,13.0,1
266.0,-13.0,-19.0,14.0,46.0,13.0,1
266.0,-13.0,-19.0,13.0,50.0,10.0,1
264.0,-14.0,-18.0,14.0,51.0,13.0,1
263.0,-12.0,-21.0,16.0,52.0,9.0,1
266.0,-14.0,-22.0,19.0,51.0,12.0,1
266.0,-15.0,-20.0,21.0,52.0,9.0,1
264.0,-11.0,-18.0,23.0,51.0,11.0,1
263.0,-12.0,-19.0,21.0,52.0,9.0,1
263.0,-14.0,-17.0,21.0,53.0,10.0,1
261.0,-12.0,-16.0,18.0,57.0,6.0,1
260.0,-11.0,-15.0,17.0,59.0,6.0,1
261.0,-10.0,-18.0,15.0,62.0,2.0,1
261.0,-11.0,-23.0,15.0,67.0,2.0,1
260.0,-12.0,-17.0,13.0,74.0,-1.0,1
257.0,-11.0,-17.0,14.0,79.0,1.0,1
259.0,-12.0,-15.0,21.0,83.0,-1.0,1
261.0,-13.0,-20.0,26.0,87.0,3.0,1
264.0,-10.0,-21.0,31.0,91.0,3.0,1
261.0,-8.0,-20.0,30.0,96.0,4.0,1
262.0,-8.0,-21.0,27.0,103.0,1.0,1
259.0,-7.0,-19.0,21.0,111.0,2.0,1
262.0,-8.0,-20.0,18.0,118.0,-1.0,1
259.0,-4.0,-20.0,11.0,125.0,-1.0,1
259.0,-7.0,-19.0,6.0,132.0,-4.0,1
260.0,-12.0,-19.0,5.0,139.0,-2.0,1
260.0,-11.0,-20.0,9.0,144.0,-5.0,1
262.0,-9.0,-20.0,13.0,148.0,-3.0,1
260.0,-8.0,-18.0,16.0,153.0,-3.0,1
261.0,-7.0,-19.0,20.0,155.0,-1.0,1
263.0,-7.0,-19.0,22.0,160.0,0.0,1
260.0,-4.0,-18.0,18.0,167.0,2.0,1
261.0,-6.0,-16.0,14.0,174.0,2.0,1
261.0,-5.0,-17.0,10.0,181.0,6.0,1
260.0,-7.0,-14.0,6.0,186.0,6.0,1
262.0,-8.0,-20.0,5.0,190.0,12.0,1
260.0,-8.0,-15.0,0.0,193.0,13.0,1
264.0,-7.0,-15.0,-1.0,193.0,14.0,1
264.0,-6.0,-15.0,-5.0,194.0,12.0,1
265.0,-8.0,-18.0,-8.0,197.0,14.0,1
260.0,-11.0,-12.0,-11.0,197.0,13.0,1
260.0,-8.0,-17.0,-14.0,200.0,14.0,1
260.0,-9.0,-10.0,-15.0,204.0,13.0,1
259.0,-11.0,-16.0,-17.0,206.0,17.0,1
259.0,-9.0,-10.0,-18.0,208.0,15.0,1
262.0,-9.0,-10.0,-18.0,208.0,17.0,1
260.0,-11.0,-12.0,-18.0,211.0,17.0,1
260.0,-8.0,-13.0,-17.0,211.0,18.0,1
260.0,-11.0,-12.0,-16.0,210.0,19.0,1
262.0,-9.0,-9.0,-14.0,211.0,21.0,1
262.0,-7.0,-12.0,-15.0,210.0,22.0,1
259.0,-11.0,-10.0,-13.0,210.0,26.0,1
261.0,-11.0,-8.0,-14.0,210.0,26.0,1
260.0,-10.0,-10.0,-14.0,210.0,27.0,1
259.0,-8.0,-9.0,-17.0,210.0,26.0,1
259.0,-11.0,-8.0,-20.0,208.0,27.0,1
258.0,-9.0,-6.0,-23.0,207.0,24.0,1
260.0,-13.0,-6.0,-24.0,205.0,23.0,1
258.0,-8.0,-4.0,-25.0,201.0,24.0,1
255.0,-11.0,-6.0,-25.0,196.0,22.0,1
255.0,-11.0,-6.0,-26.0,192.0,20.0,1
258.0,-10.0,-7.0,-24.0,188.0,19.0,1
256.0,-11.0,-3.0,-21.0,181.0,19.0,1
255.0,-8.0,-5.0,-19.0,177.0,19.0,1
256.0,-9.0,-3.0,-17.0,173.0,21.0,1
258.0,-11.0,0.0,-15.0,169.0,21.0,1
257.0,-11.0,-5.0,-12.0,165.0,19.0,1
256.0,-12.0,-1.0,-11.0,162.0,18.0,1
258.0,-11.0,-2.0,-12.0,158.0,19.0,1
259.0,-12.0,0.0,-13.0,156.0,21.0,1
263.0,-15.0,-2.0,-10.0,153.0,21.0,1
263.0,-16.0,2.0,-9.0,148.0,21.0,1
261.0,-12.0,1.0,-9.0,143.0,20.0,1
259.0,-12.0,-5.0,-10.0,139.0,18.0,1
260.0,-15.0,-1.0,-12.0,131.0,17.0,1
256.0,-15.0,-2.0,-14.0,126.0,14.0,1
255.0,-12.0,-5.0,-15.0,119.0,13.0,1
257.0,-12.0,-1.0,-18.0,112.0,10.0,1
259.0,-12.0,-4.0,-17.0,108.0,8.0,1
257.0,-13.0,-2.0,-18.0,103.0,5.0,1
256.0,-13.0,-3.0,-20.0,103.0,4.0,1
259.0,-10.0,-3.0,-21.0,101.0,4.0,1
259.0,-10.0,-3.0,-19.0,98.0,5.0,1
262.0,-12.0,-4.0,-18.0,94.0,4.0,1
259.0,-11.0,0.0,-16.0,90.0,5.0,1
260.0,-13.0,-4.0,-14.0,88.0,2.0,1
259.0,-14.0,-2.0,-10.0,84.0,4.0,1
263.0,-16.0,-4.0,-8.0,80.0,4.0,1
262.0,-12.0,-5.0,-6.0,78.0,4.0,1
262.0,-10.0,-7.0,-6.0,76.0,4.0,1
263.0,-9.0,-7.0,-7.0,78.0,4.0,1
259.0,-8.0,-8.0,-8.0,80.0,2.0,1
258.0,-11.0,-9.0,-12.0,82.0,2.0,1
258.0,-10.0,-5.0,-14.0,84.0,1.0,1
259.0,-12.0,-2.0,-14.0,84.0,2.0,1
261.0,-13.0,-6.0,-14.0,83.0,1.0,1
259.0,-12.0,-4.0,-11.0,84.0,3.0,1
260.0,-13.0,-5.0,-9.0,83.0,3.0,1
261.0,-13.0,-9.0,-7.0,84.0,4.0,1
261.0,-15.0,-6.0,-7.0,83.0,3.0,1
259.0,-12.0,-4.0,-8.0,84.0,6.0,1
262.0,-12.0,-3.0,-6.0,84.0,6.0,1
259.0,-9.0,-6.0,-7.0,84.0,7.0,1
259.0,-12.0,-5.0,-9.0,83.0,6.0,1
262.0,-10.0,-3.0,-11.0,82.0,7.0,1
262.0,-13.0,-2.0,-13.0,81.0,4.0,1
260.0,-12.0,-4.0,-16.0,79.0,5.0,1
259.0,-14.0,-3.0,-16.0,78.0,5.0,1
259.0,-12.0,-2.0,-14.0,76.0,5.0,1
260.0,-14.0,-4.0,-10.0,75.0,2.0,1
260.0,-13.0,-5.0,-7.0,75.0,3.0,1
262.0,-15.0,-4.0,-6.0,74.0,1.0,1
275.0,-18.0,-4.0,-5.0,73.0,4.0,1
260.0,-15.0,-5.0,-3.0,76.0,3.0,1
261.0,-14.0,-6.0,-2.0,79.0,4.0,1
262.0,-14.0,-8.0,-4.0,80.0,3.0,1
263.0,-12.0,-6.0,-1.0,82.0,6.0,1
261.0,-13.0,-10.0,0.0,84.0,5.0,1
261.0,-15.0,-6.0,-1.0,85.0,7.0,1
260.0,-10.0,-6.0,1.0,85.0,6.0,1
262.0,-8.0,-6.0,0.0,86.0,8.0,1
262.0,-11.0,-3.0,-1.0,87.0,5.0,1
262.0,-14.0,-1.0,0.0,88.0,7.0,1
260.0,-15.0,-7.0,-1.0,89.0,6.0,1
262.0,-12.0,-2.0,-3.0,91.0,7.0,1
260.0,-13.0,-8.0,-5.0,94.0,6.0,1
261.0,-12.0,-7.0,-6.0,96.0,9.0,1
259.0,-10.0,-7.0,-7.0,98.0,7.0,1
261.0,-12.0,-5.0,-7.0,95.0,11.0,1
262.0,-13.0,-4.0,-7.0,94.0,9.0,1
260.0,-10.0,-2.0,-7.0,93.0,11.0,1
259.0,-18.0,1.0,-6.0,90.0,9.0,1
258.0,-13.0,-4.0,-4.0,88.0,12.0,1
261.0,-13.0,-5.0,-4.0,88.0,8.0,1
259.0,-10.0,-5.0,-5.0,88.0,11.0,1
259.0,-12.0,-4.0,-4.0,87.0,7.0,1
258.0,-12.0,-3.0,-6.0,86.0,6.0,1
258.0,-12.0,1.0,-9.0,85.0,0.0,1
258.0,-11.0,-3.0,-13.0,85.0,-2.0,1
259.0,-12.0,1.0,-19.0,85.0,-7.0,1
256.0,-12.0,3.0,-24.0,85.0,-6.0,1
255.0,-10.0,4.0,-25.0,86.0,-9.0,1
256.0,-12.0,-3.0,-24.0,82.0,-6.0,1
255.0,-15.0,-2.0,-20.0,78.0,-7.0,1
257.0,-16.0,2.0,-16.0,74.0,-2.0,1
260.0,-12.0,1.0,-13.0,69.0,-5.0,1
258.0,-16.0,-2.0,-9.0,65.0,-1.0,1
258.0,-13.0,-2.0,-8.0,62.0,-2.0,1
258.0,-12.0,-3.0,-8.0,61.0,0.0,1
261.0,-15.0,0.0,-7.0,60.0,-3.0,1
261.0,-10.0,-4.0,-6.0,61.0,0.0,1
260.0,-12.0,-3.0,-8.0,63.0,-4.0,1
259.0,-14.0,-4.0,-9.0,65.0,-1.0,1
260.0,-13.0,-6.0,-8.0,68.0,-3.0,1
260.0,-11.0,-6.0,-5.0,69.0,1.0,1
260.0,-13.0,-1.0,-1.0,69.0,1.0,1
261.0,-12.0,-6.0,3.0,69.0,6.0,1
265.0,-8.0,-7.0,7.0,69.0,6.0,1
260.0,-9.0,-4.0,5.0,69.0,11.0,1
263.0,-10.0,-7.0,-1.0,74.0,9.0,1
262.0,-13.0,-6.0,-9.0,75.0,11.0,1
263.0,-11.0,-2.0,-14.0,78.0,7.0,1
258.0,-12.0,0.0,-20.0,78.0,9.0,1
258.0,-11.0,-1.0,-20.0,76.0,6.0,1
262.0,-14.0,0.0,-18.0,76.0,7.0,1
260.0,-9.0,1.0,-15.0,76.0,5.0,1
264.0,-14.0,2.0,-13.0,77.0,6.0,1
261.0,-12.0,-6.0,-7.0,76.0,5.0,1
262.0,-11.0,-3.0,-4.0,78.0,10.0,1
262.0,-15.0,-3.0,0.0,80.0,10.0,1
260.0,-12.0,-2.0,2.0,80.0,14.0,1
263.0,-11.0,0.0,-1.0,79.0,13.0,1
262.0,-15.0,-3.0,-4.0,80.0,16.0,1
262.0,-13.0,-1.0,-8.0,82.0,15.0,1
262.0,-11.0,-3.0,-10.0,82.0,17.0,1
257.0,-11.0,3.0,-12.0,82.0,15.0,1
258.0,-13.0,-6.0,-13.0,83.0,17.0,1
261.0,-15.0,-1.0,-14.0,86.0,13.0,1
260.0,-13.0,-3.0,-16.0,89.0,13.0,1
256.0,-15.0,-1.0,-19.0,92.0,8.0,1
262.0,-15.0,0.0,-22.0,94.0,9.0,1
257.0,-14.0,-1.0,-24.0,99.0,5.0,1
258.0,-14.0,-5.0,-24.0,103.0,5.0,1
261.0,-16.0,-4.0,-23.0,106.0,2.0,1
260.0,-13.0,-3.0,-20.0,106.0,4.0,1
259.0,-12.0,-3.0,-18.0,104.0,1.0,1
258.0,-14.0,-2.0,-15.0,104.0,4.0,1
257.0,-11.0,-2.0,-13.0,101.0,3.0,1
261.0,-15.0,0.0,-12.0,100.0,5.0,1
259.0,-15.0,-1.0,-13.0,98.0,5.0,1
261.0,-11.0,0.0,-17.0,94.0,6.0,1
259.0,-11.0,1.0,-19.0,93.0,4.0,1
258.0,-11.0,2.0,-22.0,91.0,3.0,1
258.0,-10.0,3.0,-24.0,86.0,2.0,1
260.0,-13.0,4.0,-25.0,83.0,3.0,1
256.0,-10.0,6.0,-26.0,80.0,2.0,1
259.0,-13.0,4.0,-26.0,75.0,4.0,1
259.0,-14.0,3.0,-25.0,68.0,2.0,1
259.0,-15.0,1.0,-23.0,64.0,2.0,1
257.0,-15.0,2.0,-22.0,61.0,1.0,1
260.0,-11.0,2.0,-22.0,59.0,2.0,1
261.0,-13.0,0.0,-22.0,54.0,0.0,1
258.0,-13.0,2.0,-23.0,51.0,0.0,1
258.0,-13.0,5.0,-22.0,44.0,-1.0,1
257.0,-11.0,4.0,-22.0,38.0,0.0,1
256.0,-11.0,7.0,-26.0,32.0,-2.0,1
260.0,-13.0,2.0,-28.0,25.0,0.0,1
258.0,-11.0,1.0,-34.0,22.0,-4.0,1
261.0,-12.0,3.0,-38.0,16.0,-2.0,1
257.0,-9.0,8.0,-40.0,11.0,-5.0,1
260.0,-14.0,5.0,-40.0,4.0,-5.0,1
261.0,-16.0,5.0,-39.0,-4.0,-6.0,1
262.0,-17.0,4.0,-36.0,-11.0,-7.0,1
261.0,-15.0,2.0,-34.0,-18.0,-8.0,1
260.0,-12.0,-3.0,-27.0,-21.0,-7.0,1
258.0,-13.0,-2.0,-25.0,-25.0,-8.0,1
259.0,-15.0,-3.0,-23.0,-26.0,-7.0,1
259.0,-13.0,-3.0,-19.0,-26.0,-7.0,1
261.0,-13.0,-4.0,-15.0,-23.0,-7.0,1
260.0,-15.0,-6.0,-16.0,-20.0,-6.0,1
261.0,-14.0,-5.0,-14.0,-18.0,-5.0,1
259.0,-10.0,-4.0,-14.0,-14.0,-4.0,1
260.0,-11.0,-6.0,-14.0,-11.0,-3.0,1
258.0,-13.0,-8.0,-10.0,-7.0,-2.0,1
257.0,-14.0,-5.0,-8.0,-3.0,-1.0,1
261.0,-15.0,-6.0,-7.0,-1.0,0.0,1
263.0,-13.0,-4.0,-6.0,1.0,0.0,1
261.0,-13.0,0.0,-8.0,3.0,0.0,1
259.0,-13.0,-2.0,-9.0,5.0,-1.0,1
261.0,-11.0,-2.0,-13.0,6.0,0.0,1
261.0,-15.0,0.0,-14.0,6.0,0.0,1
259.0,-12.0,-3.0,-17.0,4.0,-3.0,1
259.0,-15.0,-3.0,-17.0,2.0,-2.0,1
260.0,-14.0,-2.0,-17.0,-3.0,-2.0,1
263.0,-16.0,-4.0,-14.0,-7.0,-3.0,1
259.0,-15.0,-1.0,-11.0,-11.0,-3.0,1
258.0,-14.0,-4.0,-9.0,-14.0,-4.0,1
260.0,-15.0,-8.0,-6.0,-17.0,-5.0,1
260.0,-16.0,-8.0,-5.0,-17.0,-6.0,1
261.0,-16.0,-4.0,-6.0,-14.0,-5.0,1
261.0,-14.0,-6.0,-7.0,-12.0,-7.0,1
259.0,-16.0,-7.0,-12.0,-9.0,-8.0,1
261.0,-13.0,-1.0,-14.0,-6.0,-10.0,1
260.0,-13.0,-6.0,-17.0,-2.0,-10.0,1
260.0,-14.0,-5.0,-21.0,1.0,-12.0,1
259.0,-12.0,-7.0,-22.0,2.0,-12.0,1
258.0,-15.0,-7.0,-23.0,1.0,-16.0,1
261.0,-17.0,-5.0,-25.0,0.0,-15.0,1
258.0,-10.0,-7.0,-26.0,-1.0,-17.0,1
258.0,-15.0,-5.0,-26.0,-1.0,-17.0,1
260.0,-14.0,-9.0,-25.0,-2.0,-18.0,1
258.0,-13.0,-5.0,-24.0,-4.0,-16.0,1
260.0,-14.0,-5.0,-22.0,-5.0,-18.0,1
260.0,-16.0,-9.0,-22.0,-5.0,-17.0,1
260.0,-15.0,-7.0,-22.0,-5.0,-20.0,1
261.0,-13.0,-6.0,-22.0,-7.0,-22.0,1
261.0,-17.0,-7.0,-23.0,-8.0,-23.0,1
258.0,-16.0,-6.0,-20.0,-8.0,-21.0,1
259.0,-13.0,-6.0,-19.0,-7.0,-26.0,1
258.0,-13.0,-5.0,-19.0,-6.0,-24.0,1
260.0,-13.0,-9.0,-20.0,-3.0,-25.0,1
262.0,-11.0,-8.0,-21.0,-3.0,-24.0,1
259.0,-11.0,-6.0,-22.0,-1.0,-24.0,1
262.0,-12.0,-8.0,-21.0,0.0,-22.0,1
261.0,-8.0,-6.0,-21.0,1.0,-24.0,1
260.0,-11.0,-10.0,-22.0,-1.0,-21.0,1
263.0,-10.0,-5.0,-23.0,-2.0,-23.0,1
260.0,-11.0,-6.0,-24.0,-2.0,-22.0,1
258.0,-11.0,-6.0,-26.0,-3.0,-23.0,1
261.0,-13.0,-8.0,-25.0,-5.0,-21.0,1
262.0,-12.0,-6.0,-24.0,-4.0,-22.0,1
261.0,-12.0,-8.0,-22.0,-6.0,-21.0,1
261.0,-10.0,-7.0,-19.0,-7.0,-23.0,1
260.0,-12.0,-6.0,-15.0,-6.0,-20.0,1
260.0,-11.0,-6.0,-10.0,-5.0,-19.0,1
261.0,-13.0,-7.0,-6.0,-5.0,-16.0,1
262.0,-12.0,-11.0,-2.0,-6.0,-18.0,1
261.0,-12.0,-10.0,1.0,-8.0,-15.0,1
259.0,-11.0,-9.0,1.0,-5.0,-17.0,1
262.0,-11.0,-11.0,0.0,-3.0,-13.0,1
259.0,-5.0,-10.0,-3.0,0.0,-16.0,1
259.0,-11.0,-8.0,-8.0,3.0,-16.0,1
260.0,-9.0,-11.0,-12.0,6.0,-18.0,1
262.0,-11.0,-6.0,-15.0,10.0,-16.0,1
257.0,-10.0,-11.0,-17.0,14.0,-19.0,1
259.0,-10.0,-9.0,-16.0,18.0,-14.0,1
259.0,-11.0,-9.0,-14.0,18.0,-16.0,1
258.0,-12.0,-7.0,-12.0,17.0,-13.0,1
260.0,-11.0,-8.0,-9.0,17.0,-13.0,1
259.0,-12.0,-8.0,-4.0,20.0,-10.0,1
259.0,-10.0,-8.0,-3.0,21.0,-11.0,1
262.0,-12.0,-8.0,-3.0,24.0,-7.0,1
260.0,-9.0,-10.0,-5.0,25.0,-8.0,1
261.0,-11.0,-10.0,-7.0,26.0,-3.0,1
261.0,-10.0,-9.0,-9.0,29.0,-5.0,1
260.0,-10.0,-11.0,-13.0,29.0,-1.0,1
264.0,-8.0,-7.0,-14.0,30.0,-3.0,1
260.0,-10.0,-13.0,-16.0,28.0,2.0,1
262.0,-15.0,-11.0,-11.0,26.0,1.0,1
261.0,-10.0,-13.0,-6.0,23.0,4.0,1
259.0,-11.0,-11.0,-4.0,21.0,0.0,1
260.0,-12.0,-13.0,-3.0,23.0,2.0,1
260.0,-12.0,-11.0,-4.0,27.0,-3.0,1
259.0,-12.0,-15.0,-6.0,30.0,-2.0,1
261.0,-14.0,-10.0,-8.0,35.0,-6.0,1
258.0,-13.0,-9.0,-10.0,41.0,-4.0,1
261.0,-11.0,-13.0,-12.0,45.0,-6.0,1
263.0,-13.0,-12.0,-9.0,49.0,-2.0,1
260.0,-12.0,-11.0,-4.0,51.0,-4.0,1
260.0,-9.0,-12.0,0.0,51.0,0.0,1
260.0,-10.0,-11.0,4.0,52.0,0.0,1
259.0,-13.0,-12.0,2.0,54.0,3.0,1
259.0,-8.0,-12.0,0.0,60.0,1.0,1
258.0,-11.0,-7.0,-5.0,63.0,1.0,1
260.0,-16.0,-12.0,-8.0,66.0,-2.0,1
262.0,-15.0,-10.0,-9.0,67.0,1.0,1
261.0,-17.0,-12.0,-10.0,64.0,-4.0,1
260.0,-14.0,-9.0,-11.0,64.0,-3.0,1
258.0,-13.0,-11.0,-9.0,63.0,-6.0,1
260.0,-11.0,-7.0,-9.0,64.0,-5.0,1
257.0,-12.0,-13.0,-8.0,64.0,-8.0,1
261.0,-11.0,-12.0,-8.0,65.0,-5.0,1
257.0,-11.0,-11.0,-6.0,68.0,-8.0,1
260.0,-14.0,-10.0,-5.0,70.0,-5.0,1
261.0,-12.0,-13.0,-7.0,71.0,-7.0,1
259.0,-13.0,-12.0,-4.0,70.0,-5.0,1
261.0,-12.0,-8.0,-5.0,70.0,-8.0,1
260.0,-13.0,-12.0,-3.0,70.0,-6.0,1
259.0,-13.0,-9.0,-5.0,74.0,-9.0,1
260.0,-14.0,-10.0,-7.0,73.0,-6.0,1
259.0,-12.0,-12.0,-8.0,75.0,-8.0,1
261.0,-9.0,-4.0,-9.0,77.0,-7.0,1
261.0,-12.0,-12.0,-10.0,79.0,-10.0,1
260.0,-9.0,-10.0,-11.0,82.0,-7.0,1
257.0,-12.0,-9.0,-11.0,82.0,-8.0,1
259.0,-6.0,-9.0,-12.0,81.0,-7.0,1
260.0,-8.0,-9.0,-12.0,80.0,-7.0,1
262.0,-10.0,-7.0,-14.0,78.0,-6.0,1
259.0,-12.0,-10.0,-13.0,76.0,-7.0,1
257.0,-11.0,-6.0,-14.0,74.0,-5.0,1
259.0,-10.0,-6.0,-14.0,74.0,-6.0,1
260.0,-8.0,-12.0,-15.0,69.0,-4.0,1
259.0,-11.0,-8.0,-15.0,68.0,-5.0,1
259.0,-8.0,-8.0,-14.0,67.0,-4.0,1
260.0,-10.0,-6.0,-14.0,67.0,-6.0,1
260.0,-10.0,-6.0,-14.0,69.0,-4.0,1
261.0,-12.0,-9.0,-14.0,68.0,-6.0,1
263.0,-11.0,-8.0,-13.0,69.0,-3.0,1
259.0,-10.0,-13.0,-11.0,71.0,-3.0,1
261.0,-8.0,-11.0,-10.0,72.0,0.0,1
261.0,-11.0,-13.0,-11.0,72.0,0.0,1
262.0,-9.0,-11.0,-11.0,72.0,2.0,1
260.0,-9.0,-21.0,-12.0,74.0,0.0,1
263.0,-9.0,-25.0,-13.0,76.0,1.0,1
273.0,-1.0,-13.0,-15.0,75.0,-1.0,1
259.0,-8.0,-16.0,-16.0,80.0,0.0,1
265.0,-9.0,-13.0,-15.0,84.0,-1.0,1
260.0,-10.0,-23.0,-15.0,85.0,1.0,1
252.0,-7.0,-8.0,-14.0,90.0,0.0,1
261.0,-11.0,-13.0,-13.0,94.0,3.0,1
263.0,-11.0,-14.0,-13.0,97.0,2.0,1
262.0,-9.0,-12.0,-13.0,99.0,5.0,1
262.0,-9.0,-9.0,-11.0,102.0,5.0,1
254.0,-12.0,-2.0,-9.0,102.0,9.0,1
260.0,-11.0,-6.0,-9.0,100.0,9.0,1
262.0,-12.0,-11.0,-7.0,101.0,11.0,1
262.0,-11.0,-9.0,-5.0,100.0,10.0,1
259.0,-11.0,-8.0,-5.0,100.0,13.0,1
258.0,-11.0,-6.0,-5.0,99.0,11.0,1
257.0,-7.0,-6.0,-6.0,101.0,11.0,1
259.0,-12.0,-8.0,-5.0,103.0,9.0,1
259.0,-9.0,-8.0,-3.0,104.0,12.0,1
261.0,-12.0,-9.0,0.0,105.0,11.0,1
258.0,-10.0,-13.0,-2.0,105.0,13.0,1
260.0,-11.0,-7.0,0.0,108.0,14.0,1
258.0,-16.0,-6.0,1.0,108.0,16.0,1
258.0,-15.0,-12.0,4.0,108.0,15.0,1
259.0,-12.0,-7.0,5.0,109.0,16.0,1
258.0,-12.0,-7.0,6.0,110.0,16.0,1
261.0,-10.0,-3.0,6.0,111.0,16.0,1
262.0,-15.0,-12.0,3.0,111.0,16.0,1
260.0,-13.0,-9.0,0.0,112.0,15.0,1
259.0,-12.0,-13.0,-3.0,113.0,14.0,1
261.0,-13.0,-10.0,-4.0,113.0,13.0,1
261.0,-12.0,-4.0,-8.0,114.0,12.0,1
260.0,-11.0,-4.0,-10.0,114.0,11.0,1
261.0,-13.0,-9.0,-12.0,112.0,9.0,1
261.0,-14.0,-5.0,-13.0,110.0,10.0,1
263.0,-17.0,-7.0,-13.0,107.0,10.0,1
263.0,-14.0,-3.0,-14.0,106.0,9.0,1
261.0,-17.0,-4.0,-14.0,102.0,8.0,1
259.0,-16.0,-4.0,-14.0,100.0,6.0,1
259.0,-15.0,-3.0,-13.0,97.0,5.0,1
259.0,-12.0,-9.0,-11.0,93.0,4.0,1
260.0,-13.0,-6.0,-13.0,88.0,3.0,1
256.0,-15.0,-5.0,-12.0,85.0,2.0,1
262.0,-15.0,-7.0,-12.0,81.0,1.0,1
257.0,-14.0,-1.0,-15.0,79.0,-2.0,1
257.0,-11.0,-8.0,-16.0,76.0,-2.0,1
257.0,-14.0,-4.0,-18.0,73.0,-5.0,1
260.0,-14.0,-4.0,-20.0,70.0,-7.0,1
256.0,-13.0,-6.0,-21.0,68.0,-10.0,1
256.0,-12.0,-4.0,-22.0,69.0,-11.0,1
259.0,-14.0,-4.0,-24.0,67.0,-12.0,1
256.0,-9.0,-7.0,-25.0,69.0,-14.0,1
259.0,-12.0,-8.0,-25.0,68.0,-15.0,1
256.0,-13.0,-4.0,-24.0,67.0,-16.0,1
257.0,-12.0,-2.0,-23.0,67.0,-16.0,1
259.0,-12.0,-3.0,-20.0,67.0,-15.0,1
256.0,-12.0,-7.0,-18.0,65.0,-14.0,1
257.0,-10.0,-4.0,-18.0,62.0,-12.0,1
259.0,-10.0,-2.0,-16.0,62.0,-13.0,1
258.0,-8.0,-7.0,-15.0,59.0,-10.0,1
256.0,-12.0,-3.0,-13.0,57.0,-9.0,1
257.0,-8.0,-6.0,-13.0,55.0,-8.0,1
261.0,-11.0,-5.0,-12.0,52.0,-6.0,1
259.0,-8.0,-8.0,-10.0,50.0,-5.0,1
260.0,-10.0,-4.0,-8.0,48.0,-5.0,1
261.0,-12.0,-6.0,-5.0,47.0,-3.0,1
263.0,-11.0,-7.0,-1.0,47.0,-3.0,1
262.0,-11.0,-6.0,-1.0,49.0,-2.0,1
261.0,-10.0,-8.0,0.0,51.0,-2.0,1
263.0,-12.0,-6.0,-2.0,55.0,0.0,1
262.0,-10.0,-5.0,-4.0,60.0,-1.0,1
265.0,-10.0,-3.0,-8.0,66.0,1.0,1
264.0,-11.0,-8.0,-9.0,71.0,0.0,1
263.0,-10.0,-10.0,-10.0,75.0,2.0,1
262.0,-13.0,-7.0,-10.0,77.0,3.0,1
264.0,-10.0,-8.0,-7.0,78.0,7.0,1
262.0,-11.0,-5.0,-5.0,80.0,8.0,1
261.0,-13.0,-8.0,-3.0,80.0,10.0,1
260.0,-10.0,-11.0,-2.0,80.0,9.0,1
262.0,-12.0,-13.0,-1.0,80.0,10.0,1
263.0,-11.0,-7.0,-3.0,81.0,9.0,1
260.0,-11.0,-4.0,-3.0,81.0,11.0,1
262.0,-12.0,-3.0,-4.0,82.0,9.0,1
262.0,-12.0,-4.0,-7.0,83.0,12.0,1
262.0,-12.0,-6.0,-7.0,85.0,11.0,1
260.0,-12.0,-4.0,-8.0,85.0,12.0,1
261.0,-13.0,-6.0,-2.0,85.0,10.0,1
263.0,-12.0,-5.0,1.0,84.0,12.0,1
259.0,-10.0,-8.0,4.0,85.0,10.0,1
260.0,-11.0,-6.0,1.0,89.0,11.0,1
259.0,-12.0,-4.0,-2.0,94.0,9.0,1
259.0,-14.0,-9.0,-7.0,101.0,9.0,1
263.0,-17.0,-7.0,-11.0,104.0,6.0,1
257.0,-12.0,-9.0,-13.0,108.0,8.0,1
258.0,-10.0,-5.0,-15.0,109.0,6.0,1
259.0,-12.0,-6.0,-15.0,109.0,10.0,1
257.0,-13.0,-2.0,-15.0,109.0,7.0,1
258.0,-13.0,-6.0,-12.0,110.0,9.0,1
259.0,-12.0,-5.0,-9.0,110.0,8.0,1
259.0,-15.0,-4.0,-6.0,108.0,12.0,1
261.0,-14.0,-4.0,-4.0,109.0,8.0,1
260.0,-14.0,-4.0,-4.0,109.0,10.0,1
258.0,-11.0,-5.0,-7.0,111.0,6.0,1
261.0,-14.0,-4.0,-10.0,113.0,8.0,1
258.0,-12.0,0.0,-12.0,116.0,5.0,1
257.0,-14.0,0.0,-12.0,116.0,8.0,1
257.0,-13.0,-8.0,-10.0,116.0,5.0,1
260.0,-14.0,-8.0,-9.0,114.0,8.0,1
260.0,-13.0,0.0,-8.0,114.0,6.0,1
264.0,-15.0,-5.0,-7.0,114.0,9.0,1
260.0,-14.0,-2.0,-9.0,114.0,6.0,1
261.0,-14.0,-6.0,-10.0,113.0,7.0,1
258.0,-13.0,-4.0,-10.0,115.0,5.0,1
262.0,-14.0,-5.0,-11.0,117.0,6.0,1
260.0,-13.0,-7.0,-11.0,116.0,5.0,1
258.0,-11.0,0.0,-12.0,117.0,6.0,1
260.0,-12.0,0.0,-10.0,116.0,3.0,1
261.0,-15.0,-6.0,-9.0,115.0,6.0,1
258.0,-11.0,-6.0,-10.0,116.0,4.0,1
256.0,-10.0,-2.0,-9.0,113.0,7.0,1
260.0,-7.0,-5.0,-10.0,113.0,4.0,1
259.0,-12.0,3.0,-11.0,114.0,7.0,1
259.0,-9.0,-6.0,-13.0,113.0,3.0,1
260.0,-12.0,-1.0,-16.0,114.0,6.0,1
258.0,-9.0,0.0,-18.0,114.0,4.0,1
256.0,-12.0,1.0,-18.0,114.0,6.0,1
256.0,-9.0,1.0,-20.0,113.0,4.0,1
258.0,-12.0,0.0,-19.0,113.0,8.0,1
259.0,-12.0,-3.0,-18.0,109.0,6.0,1
258.0,-12.0,-2.0,-17.0,107.0,9.0,1
261.0,-12.0,1.0,-15.0,103.0,8.0,1
258.0,-11.0,-2.0,-16.0,100.0,11.0,1
261.0,-11.0,-2.0,-14.0,97.0,9.0,1
259.0,-12.0,-3.0,-14.0,93.0,13.0,1
259.0,-12.0,0.0,-14.0,91.0,12.0,1
262.0,-12.0,-1.0,-12.0,90.0,14.0,1
261.0,-12.0,0.0,-12.0,89.0,11.0,1
258.0,-16.0,-2.0,-9.0,88.0,15.0,1
261.0,-14.0,0.0,-8.0,87.0,14.0,1
263.0,-14.0,4.0,-8.0,87.0,17.0,1
261.0,-16.0,-2.0,-9.0,89.0,15.0,1
260.0,-13.0,-1.0,-8.0,88.0,17.0,1
260.0,-13.0,0.0,-7.0,88.0,16.0,1
260.0,-10.0,-4.0,-8.0,88.0,18.0,1
260.0,-13.0,-3.0,-9.0,89.0,18.0,1
263.0,-15.0,-1.0,-8.0,88.0,20.0,1
261.0,-14.0,-5.0,-9.0,89.0,17.0,1
261.0,-17.0,-5.0,-10.0,87.0,20.0,1
260.0,-18.0,-2.0,-9.0,90.0,19.0,1
262.0,-15.0,-2.0,-10.0,89.0,19.0,1
259.0,-14.0,0.0,-13.0,88.0,16.0,1
257.0,-13.0,-3.0,-17.0,88.0,16.0,1
259.0,-13.0,-1.0,-21.0,89.0,15.0,1
261.0,-14.0,-2.0,-22.0,91.0,16.0,1
258.0,-12.0,2.0,-24.0,90.0,12.0,1
259.0,-14.0,3.0,-24.0,88.0,12.0,1
259.0,-14.0,-3.0,-20.0,89.0,11.0,1
259.0,-17.0,-3.0,-13.0,87.0,11.0,1
257.0,-16.0,1.0,-9.0,87.0,9.0,1
261.0,-14.0,-3.0,-4.0,88.0,10.0,1
259.0,-13.0,-1.0,-1.0,88.0,6.0,1
258.0,-12.0,-4.0,-1.0,91.0,8.0,1
257.0,-13.0,-1.0,-2.0,95.0,6.0,1
260.0,-13.0,0.0,-5.0,99.0,6.0,1
261.0,-18.0,-4.0,-6.0,101.0,5.0,1
261.0,-14.0,0.0,-8.0,105.0,6.0,1
262.0,-14.0,-3.0,-9.0,106.0,4.0,1
259.0,-13.0,-3.0,-10.0,107.0,6.0,1
257.0,-14.0,-1.0,-12.0,109.0,4.0,1
259.0,-15.0,2.0,-15.0,111.0,4.0,1
261.0,-15.0,-2.0,-15.0,114.0,1.0,1
259.0,-13.0,4.0,-17.0,115.0,2.0,1
257.0,-13.0,0.0,-19.0,115.0,1.0,1
260.0,-12.0,5.0,-21.0,116.0,1.0,1
259.0,-15.0,2.0,-21.0,115.0,-1.0,1
260.0,-15.0,-3.0,-22.0,114.0,-1.0,1
259.0,-12.0,1.0,-19.0,111.0,0.0,1
261.0,-13.0,0.0,-19.0,112.0,1.0,1
262.0,-15.0,1.0,-19.0,111.0,0.0,1
261.0,-15.0,2.0,-18.0,107.0,1.0,1
260.0,-13.0,2.0,-19.0,104.0,0.0,1
262.0,-13.0,0.0,-20.0,101.0,3.0,1
260.0,-11.0,1.0,-19.0,97.0,1.0,1
259.0,-11.0,7.0,-21.0,92.0,0.0,1
260.0,-11.0,5.0,-24.0,90.0,0.0,1
255.0,-9.0,5.0,-25.0,83.0,0.0,1
259.0,-9.0,4.0,-25.0,81.0,0.0,1
258.0,-15.0,5.0,-24.0,77.0,1.0,1
258.0,-13.0,6.0,-23.0,74.0,0.0,1
257.0,-12.0,8.0,-22.0,70.0,2.0,1
258.0,-11.0,4.0,-20.0,69.0,4.0,1
259.0,-8.0,3.0,-19.0,68.0,4.0,1
258.0,-10.0,4.0,-17.0,66.0,6.0,1
260.0,-11.0,3.0,-15.0,64.0,6.0,1
259.0,-13.0,1.0,-16.0,64.0,7.0,1
260.0,-14.0,1.0,-15.0,61.0,7.0,1
258.0,-14.0,8.0,-17.0,59.0,7.0,1
259.0,-11.0,0.0,-19.0,57.0,7.0,1
257.0,-13.0,7.0,-19.0,57.0,6.0,1
259.0,-14.0,7.0,-22.0,55.0,5.0,1
260.0,-13.0,4.0,-25.0,54.0,4.0,1
261.0,-15.0,4.0,-25.0,52.0,3.0,1
258.0,-14.0,7.0,-25.0,51.0,2.0,1
258.0,-17.0,5.0,-23.0,46.0,1.0,1
259.0,-15.0,2.0,-22.0,44.0,0.0,1
258.0,-15.0,4.0,-21.0,42.0,3.0,1
259.0,-13.0,5.0,-18.0,38.0,3.0,1
261.0,-16.0,5.0,-15.0,36.0,3.0,1
259.0,-16.0,3.0,-12.0,33.0,4.0,1
260.0,-18.0,3.0,-10.0,32.0,3.0,1
262.0,-17.0,1.0,-8.0,30.0,5.0,1
260.0,-16.0,1.0,-10.0,28.0,2.0,1
256.0,-16.0,3.0,-12.0,28.0,2.0,1
259.0,-15.0,3.0,-15.0,29.0,-1.0,1
260.0,-15.0,-4.0,-16.0,29.0,-3.0,1
262.0,-13.0,3.0,-17.0,31.0,-3.0,1
259.0,-16.0,3.0,-18.0,33.0,-6.0,1
258.0,-14.0,0.0,-21.0,35.0,-7.0,1
262.0,-12.0,0.0,-22.0,40.0,-10.0,1
257.0,-12.0,3.0,-24.0,43.0,-12.0,1
258.0,-13.0,3.0,-24.0,46.0,-10.0,1
259.0,-14.0,-1.0,-22.0,48.0,-11.0,1
259.0,-16.0,2.0,-18.0,49.0,-11.0,1
259.0,-15.0,-3.0,-13.0,49.0,-10.0,1
263.0,-17.0,2.0,-9.0,49.0,-8.0,1
262.0,-15.0,-4.0,-5.0,51.0,-7.0,1
259.0,-14.0,-3.0,-5.0,51.0,-6.0,1
259.0,-15.0,-3.0,-6.0,51.0,-6.0,1
262.0,-11.0,-3.0,-8.0,52.0,-4.0,1
260.0,-11.0,-4.0,-10.0,53.0,-5.0,1
261.0,-13.0,2.0,-17.0,55.0,-7.0,1
260.0,-12.0,-1.0,-21.0,55.0,-9.0,1
258.0,-12.0,3.0,-22.0,57.0,-9.0,1
260.0,-12.0,3.0,-23.0,61.0,-10.0,1
260.0,-12.0,4.0,-24.0,63.0,-11.0,1
258.0,-13.0,0.0,-20.0,66.0,-12.0,1
261.0,-14.0,0.0,-16.0,66.0,-10.0,1
261.0,-12.0,-1.0,-15.0,68.0,-9.0,1
264.0,-16.0,3.0,-15.0,69.0,-8.0,1
261.0,-10.0,0.0,-19.0,75.0,-10.0,1
257.0,-13.0,0.0,-20.0,78.0,-10.0,1
259.0,-10.0,-4.0,-21.0,83.0,-11.0,1
262.0,-15.0,-3.0,-21.0,84.0,-8.0,1
259.0,-14.0,-3.0,-22.0,85.0,-10.0,1
257.0,-14.0,-4.0,-18.0,85.0,-9.0,1
259.0,-13.0,0.0,-15.0,85.0,-11.0,1
261.0,-12.0,-1.0,-14.0,87.0,-10.0,1
262.0,-11.0,4.0,-11.0,85.0,-12.0,1
260.0,-16.0,2.0,-9.0,86.0,-10.0,1
260.0,-16.0,2.0,-7.0,85.0,-14.0,1
257.0,-13.0,2.0,-9.0,86.0,-12.0,1
259.0,-15.0,4.0,-12.0,86.0,-12.0,1
259.0,-14.0,4.0,-15.0,87.0,-11.0,1
261.0,-13.0,2.0,-16.0,87.0,-12.0,1
258.0,-14.0,6.0,-16.0,87.0,-8.0,1
260.0,-14.0,2.0,-16.0,85.0,-8.0,1
259.0,-15.0,-1.0,-16.0,83.0,-5.0,1
258.0,-13.0,6.0,-18.0,80.0,-7.0,1
260.0,-11.0,-2.0,-19.0,80.0,-3.0,1
261.0,-12.0,-1.0,-21.0,82.0,-5.0,1
259.0,-11.0,0.0,-23.0,84.0,-3.0,1
259.0,-12.0,2.0,-25.0,86.0,-4.0,1
259.0,-12.0,3.0,-25.0,89.0,-2.0,1
258.0,-15.0,2.0,-26.0,93.0,-5.0,1
260.0,-12.0,1.0,-27.0,95.0,-3.0,1
260.0,-14.0,1.0,-24.0,97.0,-5.0,1
259.0,-12.0,1.0,-21.0,99.0,-2.0,1
258.0,-13.0,5.0,-19.0,102.0,-4.0,1
257.0,-10.0,0.0,-15.0,104.0,-1.0,1
263.0,-16.0,-5.0,-13.0,104.0,-2.0,1
259.0,-11.0,4.0,-10.0,105.0,2.0,1
259.0,-13.0,-1.0,-8.0,107.0,2.0,1
259.0,-13.0,1.0,-7.0,109.0,8.0,1
259.0,-13.0,4.0,-8.0,108.0,5.0,1
260.0,-11.0,5.0,-9.0,107.0,8.0,1
260.0,-13.0,-1.0,-12.0,104.0,7.0,1
257.0,-14.0,7.0,-12.0,103.0,11.0,1
260.0,-12.0,5.0,-12.0,100.0,9.0,1
258.0,-14.0,6.0,-12.0,98.0,11.0,1
257.0,-13.0,5.0,-12.0,96.0,8.0,1
258.0,-11.0,6.0,-11.0,91.0,11.0,1
259.0,-13.0,7.0,-9.0,89.0,7.0,1
261.0,-15.0,3.0,-7.0,88.0,8.0,1
260.0,-15.0,7.0,-8.0,85.0,4.0,1
258.0,-15.0,5.0,-6.0,86.0,7.0,1
260.0,-16.0,3.0,-6.0,83.0,4.0,1
257.0,-13.0,3.0,-6.0,82.0,4.0,1
260.0,-13.0,4.0,-6.0,82.0,2.0,1
259.0,-17.0,3.0,-8.0,82.0,4.0,1
260.0,-12.0,1.0,-9.0,81.0,0.0,1
259.0,-14.0,6.0,-12.0,82.0,2.0,1
260.0,-13.0,7.0,-14.0,81.0,0.0,1
261.0,-14.0,1.0,-15.0,80.0,2.0,1
255.0,-15.0,5.0,-18.0,78.0,-2.0,1
258.0,-13.0,8.0,-20.0,76.0,0.0,1
259.0,-13.0,7.0,-20.0,75.0,0.0,1
256.0,-11.0,1.0,-21.0,73.0,3.0,1
257.0,-12.0,8.0,-21.0,71.0,1.0,1
258.0,-12.0,8.0,-20.0,69.0,3.0,1
258.0,-13.0,7.0,-20.0,66.0,2.0,1
258.0,-16.0,8.0,-19.0,64.0,4.0,1
260.0,-16.0,1.0,-18.0,63.0,3.0,1
263.0,-14.0,6.0,-16.0,58.0,9.0,1
259.0,-15.0,2.0,-12.0,56.0,8.0,1
261.0,-18.0,5.0,-7.0,55.0,10.0,1
259.0,-17.0,2.0,-4.0,53.0,7.0,1
265.0,-18.0,3.0,-1.0,54.0,8.0,1
259.0,-13.0,2.0,-3.0,54.0,5.0,1
259.0,-12.0,4.0,-8.0,59.0,3.0,1
260.0,-13.0,4.0,-13.0,62.0,0.0,1
258.0,-12.0,2.0,-17.0,66.0,1.0,1
262.0,-14.0,4.0,-20.0,66.0,-2.0,1
259.0,-15.0,8.0,-22.0,66.0,1.0,1
259.0,-13.0,7.0,-23.0,64.0,-2.0,1
258.0,-13.0,8.0,-23.0,58.0,-1.0,1
258.0,-16.0,7.0,-24.0,50.0,-4.0,1
258.0,-15.0,4.0,-25.0,46.0,-3.0,1
257.0,-15.0,7.0,-26.0,40.0,-7.0,1
255.0,-13.0,8.0,-28.0,33.0,-7.0,1
259.0,-14.0,8.0,-27.0,28.0,-9.0,1
258.0,-16.0,6.0,-25.0,23.0,-5.0,1
257.0,-13.0,7.0,-22.0,18.0,-7.0,1
258.0,-16.0,5.0,-20.0,16.0,-4.0,1
255.0,-13.0,3.0,-18.0,13.0,-7.0,1
259.0,-15.0,7.0,-14.0,12.0,-6.0,1
260.0,-15.0,3.0,-15.0,12.0,-5.0,1
259.0,-13.0,1.0,-14.0,14.0,-5.0,1
259.0,-16.0,4.0,-13.0,17.0,-6.0,1
261.0,-12.0,0.0,-11.0,21.0,-3.0,1
260.0,-16.0,1.0,-11.0,25.0,-4.0,1
260.0,-13.0,0.0,-11.0,28.0,-1.0,1
263.0,-12.0,1.0,-12.0,32.0,-3.0,1
263.0,-16.0,-2.0,-12.0,35.0,-1.0,1
263.0,-14.0,1.0,-15.0,37.0,-4.0,1
260.0,-11.0,4.0,-15.0,39.0,-2.0,1
262.0,-9.0,-1.0,-12.0,40.0,-1.0,1
261.0,-12.0,3.0,-13.0,44.0,1.0,1
261.0,-15.0,4.0,-11.0,44.0,2.0,1
260.0,-11.0,1.0,-11.0,49.0,3.0,1
263.0,-17.0,4.0,-10.0,53.0,0.0,1
259.0,-11.0,0.0,-11.0,56.0,0.0,1
262.0,-13.0,3.0,-8.0,61.0,-2.0,1
258.0,-9.0,-1.0,-8.0,65.0,0.0,1
260.0,-14.0,0.0,-3.0,68.0,0.0,1
259.0,-12.0,-1.0,-2.0,72.0,2.0,1
260.0,-13.0,-1.0,0.0,77.0,3.0,1
260.0,-16.0,-1.0,3.0,80.0,5.0,1
261.0,-17.0,1.0,4.0,85.0,4.0,1
261.0,-15.0,2.0,2.0,88.0,5.0,1
260.0,-14.0,2.0,1.0,91.0,4.0,1
257.0,-12.0,3.0,0.0,94.0,5.0,1
261.0,-13.0,7.0,-3.0,93.0,5.0,1
259.0,-13.0,2.0,-5.0,93.0,6.0,1
261.0,-15.0,6.0,-5.0,89.0,5.0,1
260.0,-16.0,0.0,-6.0,89.0,5.0,1
258.0,-15.0,6.0,-6.0,88.0,4.0,1
259.0,-15.0,2.0,-4.0,86.0,5.0,1
261.0,-15.0,3.0,-5.0,85.0,3.0,1
258.0,-17.0,4.0,-4.0,83.0,4.0,1
260.0,-14.0,3.0,-4.0,82.0,3.0,1
256.0,-14.0,4.0,-2.0,81.0,3.0,1
258.0,-14.0,6.0,-1.0,78.0,4.0,1
262.0,-14.0,3.0,-1.0,76.0,3.0,1
261.0,-15.0,7.0,-2.0,75.0,3.0,1
259.0,-16.0,6.0,-3.0,74.0,2.0,1
260.0,-15.0,4.0,-4.0,73.0,2.0,1
258.0,-14.0,2.0,-5.0,72.0,2.0,1
260.0,-17.0,0.0,-5.0,71.0,0.0,1
260.0,-12.0,1.0,-6.0,69.0,2.0,1
260.0,-14.0,7.0,-7.0,69.0,0.0,1
261.0,-15.0,4.0,-10.0,67.0,0.0,1
256.0,-14.0,10.0,-12.0,66.0,-2.0,1
260.0,-15.0,7.0,-15.0,64.0,-3.0,1
258.0,-13.0,8.0,-17.0,64.0,-5.0,1
259.0,-13.0,6.0,-17.0,61.0,-6.0,1
261.0,-17.0,8.0,-17.0,59.0,-7.0,1
256.0,-12.0,8.0,-13.0,57.0,-8.0,1
258.0,-14.0,6.0,-12.0,53.0,-6.0,1
259.0,-13.0,5.0,-11.0,50.0,-5.0,1
260.0,-13.0,4.0,-11.0,48.0,-4.0,1
261.0,-14.0,4.0,-12.0,46.0,-4.0,1
257.0,-13.0,8.0,-15.0,43.0,-4.0,1
260.0,-14.0,6.0,-18.0,39.0,-7.0,1
259.0,-15.0,7.0,-21.0,35.0,-7.0,1
258.0,-13.0,8.0,-22.0,32.0,-10.0,1
257.0,-15.0,8.0,-24.0,29.0,-10.0,1
256.0,-14.0,5.0,-24.0,24.0,-12.0,1
256.0,-14.0,8.0,-19.0,21.0,-12.0,1
256.0,-13.0,4.0,-12.0,14.0,-12.0,1
261.0,-10.0,5.0,-7.0,10.0,-9.0,1
261.0,-13.0,7.0,-4.0,7.0,-11.0,1
259.0,-14.0,5.0,-4.0,8.0,-9.0,1
260.0,-14.0,5.0,-3.0,9.0,-8.0,1
260.0,-14.0,4.0,-3.0,7.0,-9.0,1
260.0,-16.0,3.0,-4.0,8.0,-11.0,1
261.0,-13.0,-1.0,-4.0,8.0,-11.0,1
259.0,-14.0,4.0,-5.0,7.0,-12.0,1
258.0,-12.0,1.0,-4.0,8.0,-10.0,1
258.0,-15.0,4.0,0.0,9.0,-10.0,1
262.0,-15.0,2.0,6.0,11.0,-7.0,1
259.0,-14.0,-1.0,9.0,11.0,-8.0,1
260.0,-13.0,-1.0,10.0,15.0,-6.0,1
258.0,-13.0,2.0,10.0,20.0,-7.0,1
258.0,-10.0,0.0,6.0,24.0,-6.0,1
258.0,-13.0,3.0,3.0,31.0,-8.0,1
260.0,-14.0,0.0,1.0,34.0,-8.0,1
259.0,-13.0,0.0,-1.0,38.0,-9.0,1
263.0,-14.0,-3.0,2.0,43.0,-7.0,1
264.0,-14.0,-2.0,3.0,47.0,-8.0,1
264.0,-13.0,-3.0,5.0,52.0,-4.0,1
259.0,-14.0,3.0,8.0,56.0,-2.0,1
263.0,-15.0,-3.0,9.0,59.0,2.0,1
260.0,-14.0,-4.0,10.0,62.0,-1.0,1
262.0,-13.0,-3.0,9.0,67.0,1.0,1
262.0,-13.0,1.0,7.0,71.0,-2.0,1
260.0,-14.0,4.0,5.0,74.0,0.0,1
260.0,-13.0,1.0,1.0,75.0,-3.0,1
262.0,-19.0,1.0,-1.0,76.0,-1.0,1
261.0,-18.0,4.0,-4.0,76.0,-4.0,1
261.0,-16.0,4.0,-7.0,76.0,-4.0,1
258.0,-16.0,3.0,-10.0,73.0,-8.0,1
260.0,-14.0,7.0,-12.0,72.0,-6.0,1
259.0,-16.0,5.0,-16.0,71.0,-9.0,1
259.0,-13.0,6.0,-16.0,66.0,-9.0,1
258.0,-14.0,2.0,-18.0,61.0,-12.0,1
258.0,-12.0,6.0,-20.0,56.0,-11.0,1
259.0,-15.0,6.0,-24.0,51.0,-13.0,1
258.0,-14.0,4.0,-23.0,46.0,-12.0,1
257.0,-15.0,8.0,-26.0,41.0,-15.0,1
254.0,-10.0,5.0,-29.0,35.0,-15.0,1
257.0,-11.0,5.0,-31.0,30.0,-16.0,1
258.0,-12.0,3.0,-32.0,26.0,-13.0,1
260.0,-15.0,7.0,-34.0,23.0,-17.0,1
256.0,-14.0,8.0,-34.0,18.0,-16.0,1
259.0,-11.0,4.0,-34.0,15.0,-19.0,1
259.0,-13.0,5.0,-31.0,13.0,-17.0,1
256.0,-15.0,4.0,-32.0,10.0,-20.0,1
260.0,-11.0,5.0,-29.0,9.0,-18.0,1
258.0,-16.0,2.0,-27.0,8.0,-20.0,1
256.0,-12.0,-1.0,-28.0,8.0,-18.0,1
261.0,-14.0,6.0,-26.0,8.0,-21.0,1
259.0,-13.0,-1.0,-24.0,9.0,-18.0,1
260.0,-9.0,5.0,-24.0,10.0,-20.0,1
260.0,-14.0,3.0,-23.0,11.0,-18.0,1
259.0,-13.0,3.0,-24.0,12.0,-18.0,1
258.0,-13.0,0.0,-20.0,13.0,-14.0,1
261.0,-13.0,4.0,-20.0,15.0,-15.0,1
259.0,-13.0,-2.0,-19.0,13.0,-13.0,1
259.0,-12.0,4.0,-19.0,13.0,-14.0,1
260.0,-12.0,2.0,-18.0,13.0,-11.0,1
259.0,-12.0,0.0,-18.0,12.0,-13.0,1
257.0,-11.0,7.0,-19.0,12.0,-9.0,1
257.0,-8.0,1.0,-18.0,10.0,-11.0,1
262.0,-11.0,-1.0,-18.0,8.0,-7.0,1
260.0,-8.0,2.0,-15.0,5.0,-9.0,1
259.0,-8.0,1.0,-12.0,4.0,-6.0,1
259.0,-13.0,2.0,-10.0,3.0,-10.0,1
262.0,-14.0,1.0,-3.0,3.0,-5.0,1
261.0,-14.0,-4.0,2.0,3.0,-8.0,1
259.0,-11.0,-1.0,4.0,4.0,-4.0,1
259.0,-8.0,-6.0,5.0,7.0,-7.0,1
260.0,-11.0,-4.0,3.0,12.0,-4.0,1
261.0,-11.0,-4.0,0.0,18.0,-5.0,1
260.0,-11.0,-4.0,-3.0,23.0,0.0,1
260.0,-13.0,1.0,-6.0,25.0,-1.0,1
259.0,-12.0,-7.0,-9.0,27.0,3.0,1
262.0,-6.0,1.0,-9.0,25.0,2.0,1
260.0,-12.0,-1.0,-10.0,25.0,5.0,1
259.0,-9.0,-3.0,-10.0,25.0,3.0,1
260.0,-15.0,3.0,-11.0,25.0,6.0,1
260.0,-12.0,0.0,-11.0,25.0,3.0,1
258.0,-14.0,-4.0,-12.0,26.0,6.0,1
263.0,-13.0,-3.0,-11.0,27.0,2.0,1
261.0,-15.0,-3.0,-12.0,26.0,4.0,1
259.0,-14.0,-2.0,-13.0,26.0,1.0,1
262.0,-13.0,-5.0,-15.0,24.0,3.0,1
260.0,-12.0,-4.0,-17.0,26.0,0.0,1
260.0,-12.0,-1.0,-20.0,28.0,1.0,1
264.0,-13.0,-1.0,-23.0,28.0,-1.0,1
261.0,-13.0,-2.0,-26.0,28.0,0.0,1
259.0,-10.0,0.0,-27.0,28.0,-3.0,1
260.0,-15.0,-1.0,-30.0,28.0,-2.0,1
263.0,-11.0,-1.0,-31.0,29.0,-6.0,1
257.0,-14.0,0.0,-31.0,27.0,-4.0,1
258.0,-16.0,1.0,-32.0,24.0,-6.0,1
261.0,-14.0,0.0,-31.0,23.0,-4.0,1
260.0,-15.0,-3.0,-27.0,22.0,-7.0,1
259.0,-14.0,3.0,-26.0,20.0,-6.0,1
258.0,-12.0,-3.0,-24.0,21.0,-7.0,1
258.0,-14.0,-2.0,-20.0,20.0,-5.0,1
259.0,-13.0,-5.0,-18.0,20.0,-6.0,1
258.0,-15.0,-2.0,-15.0,21.0,-3.0,1
258.0,-12.0,-8.0,-15.0,21.0,-6.0,1
258.0,-14.0,-5.0,-14.0,23.0,-3.0,1
261.0,-14.0,0.0,-11.0,24.0,-5.0,1
261.0,-14.0,-3.0,-10.0,25.0,-3.0,1
263.0,-14.0,-2.0,-9.0,23.0,-7.0,1
261.0,-16.0,1.0,-9.0,25.0,-4.0,1
260.0,-13.0,-8.0,-9.0,26.0,-6.0,1
258.0,-15.0,-4.0,-9.0,27.0,-6.0,1
260.0,-12.0,-3.0,-9.0,27.0,-8.0,1
262.0,-13.0,-5.0,-9.0,28.0,-7.0,1
264.0,-13.0,-6.0,-7.0,30.0,-10.0,1
260.0,-13.0,-5.0,-7.0,28.0,-8.0,1
259.0,-12.0,-7.0,-5.0,28.0,-10.0,1
261.0,-15.0,-4.0,-3.0,30.0,-9.0,1
258.0,-13.0,-2.0,-3.0,31.0,-10.0,1
258.0,-14.0,-6.0,-3.0,31.0,-10.0,1
261.0,-11.0,-1.0,-3.0,32.0,-11.0,1
260.0,-11.0,-5.0,-2.0,31.0,-8.0,1
263.0,-14.0,-3.0,-2.0,32.0,-9.0,1
261.0,-8.0,-4.0,-3.0,33.0,-7.0,1
260.0,-15.0,1.0,-4.0,32.0,-9.0,1
261.0,-11.0,-1.0,-5.0,33.0,-8.0,1
258.0,-11.0,-5.0,-9.0,33.0,-8.0,1
261.0,-12.0,-4.0,-11.0,35.0,-7.0,1
260.0,-13.0,-4.0,-16.0,38.0,-6.0,1
259.0,-11.0,-4.0,-20.0,41.0,-7.0,1
256.0,-11.0,-3.0,-23.0,43.0,-9.0,1
260.0,-10.0,-5.0,-25.0,46.0,-6.0,1
260.0,-9.0,-6.0,-25.0,48.0,-6.0,1
256.0,-15.0,-8.0,-23.0,50.0,-5.0,1
260.0,-14.0,2.0,-21.0,51.0,-4.0,1
259.0,-34.0,-1.0,-17.0,51.0,-3.0,1
261.0,-14.0,0.0,-16.0,53.0,-2.0,1
265.0,-9.0,-4.0,-14.0,52.0,0.0,1
253.0,-21.0,-3.0,-13.0,55.0,0.0,1
263.0,-10.0,-4.0,-11.0,59.0,-1.0,1
257.0,-8.0,-6.0,-12.0,64.0,-2.0,1
260.0,-10.0,-3.0,-12.0,66.0,1.0,1
260.0,-10.0,-6.0,-14.0,69.0,0.0,1
262.0,-15.0,-5.0,-13.0,72.0,2.0,1
263.0,-12.0,-2.0,-14.0,74.0,2.0,1
267.0,-20.0,10.0,-13.0,74.0,3.0,1
259.0,-17.0,-3.0,-11.0,73.0,4.0,1
264.0,-15.0,-2.0,-4.0,72.0,6.0,1
261.0,-13.0,0.0,2.0,70.0,6.0,1
262.0,-11.0,-5.0,4.0,73.0,4.0,1
259.0,-13.0,-5.0,1.0,77.0,1.0,1
255.0,-14.0,-2.0,0.0,81.0,0.0,1
257.0,-15.0,-5.0,-2.0,88.0,-1.0,1
259.0,-12.0,-2.0,-5.0,93.0,-3.0,1
256.0,-13.0,-3.0,-7.0,98.0,-2.0,1
258.0,-8.0,-3.0,-8.0,102.0,-2.0,1
260.0,-13.0,-4.0,-6.0,106.0,0.0,1
260.0,-9.0,-2.0,-2.0,108.0,2.0,1
260.0,-14.0,-2.0,4.0,107.0,5.0,1
261.0,-11.0,-3.0,6.0,104.0,7.0,1
259.0,-8.0,-1.0,9.0,101.0,9.0,1
261.0,-15.0,-2.0,6.0,101.0,10.0,1
258.0,-10.0,-1.0,2.0,103.0,9.0,1
259.0,-11.0,1.0,-2.0,104.0,9.0,1
260.0,-12.0,3.0,-5.0,104.0,9.0,1
259.0,-15.0,1.0,-7.0,104.0,10.0,1
262.0,-13.0,-2.0,-7.0,103.0,10.0,1
258.0,-15.0,-1.0,-9.0,102.0,9.0,1
261.0,-16.0,-1.0,-7.0,102.0,10.0,1
259.0,-11.0,1.0,-8.0,102.0,7.0,1
260.0,-12.0,-4.0,-8.0,104.0,9.0,1
262.0,-12.0,-3.0,-8.0,107.0,9.0,1
263.0,-13.0,0.0,-8.0,108.0,10.0,1
260.0,-13.0,2.0,-8.0,111.0,9.0,1
262.0,-14.0,-1.0,-8.0,113.0,10.0,1
260.0,-12.0,-3.0,-9.0,115.0,7.0,1
262.0,-16.0,-2.0,-10.0,115.0,7.0,1
262.0,-12.0,-2.0,-12.0,116.0,4.0,1
257.0,-12.0,-2.0,-11.0,115.0,6.0,1
260.0,-15.0,-1.0,-11.0,118.0,5.0,1
262.0,-11.0,-1.0,-10.0,118.0,6.0,1
260.0,-14.0,-3.0,-11.0,121.0,4.0,1
257.0,-12.0,-1.0,-15.0,121.0,6.0,1
258.0,-16.0,-4.0,-14.0,123.0,5.0,1
260.0,-13.0,-3.0,-13.0,123.0,8.0,1
259.0,-11.0,0.0,-13.0,121.0,8.0,1
258.0,-15.0,-2.0,-13.0,120.0,9.0,1
258.0,-13.0,1.0,-12.0,118.0,8.0,1
260.0,-14.0,0.0,-11.0,115.0,9.0,1
256.0,-13.0,5.0,-11.0,114.0,7.0,1
258.0,-17.0,-2.0,-10.0,115.0,9.0,1
258.0,-10.0,0.0,-9.0,113.0,5.0,1
260.0,-14.0,3.0,-10.0,112.0,7.0,1
259.0,-15.0,1.0,-10.0,111.0,5.0,1
258.0,-10.0,7.0,-10.0,110.0,6.0,1
261.0,-11.0,0.0,-10.0,109.0,4.0,1
262.0,-14.0,-1.0,-9.0,110.0,4.0,1
260.0,-11.0,-1.0,-9.0,110.0,1.0,1
261.0,-12.0,6.0,-7.0,111.0,5.0,1
259.0,-14.0,4.0,-6.0,111.0,2.0,1
261.0,-13.0,3.0,-5.0,113.0,5.0,1
258.0,-12.0,-1.0,-3.0,115.0,4.0,1
262.0,-16.0,1.0,-3.0,118.0,7.0,1
261.0,-13.0,-2.0,-3.0,117.0,7.0,1
260.0,-12.0,1.0,-1.0,117.0,9.0,1
264.0,-14.0,-1.0,-2.0,118.0,8.0,1
261.0,-14.0,0.0,-1.0,118.0,13.0,1
261.0,-13.0,3.0,-2.0,120.0,11.0,1
258.0,-13.0,1.0,-5.0,123.0,11.0,1
261.0,-12.0,4.0,-7.0,126.0,9.0,1
266.0,-12.0,23.0,-10.0,129.0,12.0,1
259.0,-13.0,2.0,-10.0,131.0,10.0,1
261.0,-12.0,0.0,-11.0,132.0,14.0,1
261.0,-13.0,0.0,-8.0,131.0,11.0,1
259.0,-14.0,3.0,-5.0,133.0,14.0,1
261.0,-13.0,3.0,-2.0,134.0,13.0,1
261.0,-15.0,-1.0,1.0,135.0,16.0,1
261.0,-15.0,1.0,2.0,136.0,14.0,1
260.0,-14.0,5.0,1.0,137.0,15.0,1
261.0,-15.0,5.0,3.0,140.0,13.0,1
259.0,-14.0,-1.0,0.0,141.0,14.0,1
259.0,-14.0,5.0,0.0,142.0,12.0,1
259.0,-12.0,7.0,-4.0,141.0,13.0,1
258.0,-15.0,5.0,-6.0,141.0,12.0,1
259.0,-13.0,3.0,-8.0,138.0,13.0,1
258.0,-13.0,5.0,-9.0,135.0,12.0,1
260.0,-13.0,8.0,-9.0,131.0,14.0,1
256.0,-13.0,5.0,-10.0,127.0,11.0,1
260.0,-12.0,9.0,-10.0,123.0,12.0,1
256.0,-13.0,8.0,-12.0,116.0,9.0,1
259.0,-15.0,9.0,-13.0,110.0,11.0,1
258.0,-14.0,8.0,-15.0,104.0,6.0,1
259.0,-16.0,8.0,-18.0,96.0,8.0,1
257.0,-15.0,9.0,-20.0,90.0,3.0,1
257.0,-15.0,8.0,-21.0,82.0,5.0,1
256.0,-14.0,6.0,-26.0,77.0,0.0,1
257.0,-18.0,8.0,-28.0,73.0,0.0,1
256.0,-14.0,6.0,-27.0,67.0,-5.0,1
255.0,-13.0,6.0,-25.0,61.0,-5.0,1
258.0,-15.0,8.0,-24.0,57.0,-8.0,1
260.0,-15.0,6.0,-22.0,54.0,-7.0,1
255.0,-15.0,4.0,-19.0,52.0,-9.0,1
257.0,-13.0,8.0,-18.0,50.0,-6.0,1
258.0,-12.0,7.0,-16.0,49.0,-9.0,1
259.0,-14.0,7.0,-16.0,49.0,-6.0,1
259.0,-13.0,3.0,-15.0,49.0,-8.0,1
262.0,-14.0,8.0,-16.0,51.0,-5.0,1
261.0,-16.0,6.0,-16.0,53.0,-7.0,1
262.0,-15.0,8.0,-18.0,53.0,-4.0,1
258.0,-12.0,6.0,-17.0,52.0,-5.0,1
262.0,-15.0,5.0,-18.0,51.0,-2.0,1
261.0,-14.0,5.0,-17.0,53.0,-4.0,1
260.0,-12.0,2.0,-14.0,51.0,-1.0,1
257.0,-15.0,7.0,-12.0,51.0,-3.0,1
261.0,-16.0,5.0,-9.0,50.0,-1.0,1
259.0,-12.0,4.0,-7.0,52.0,-2.0,1
262.0,-13.0,7.0,-6.0,54.0,0.0,1
261.0,-15.0,6.0,-5.0,54.0,-2.0,1
259.0,-13.0,6.0,-4.0,55.0,1.0,1
259.0,-17.0,3.0,-2.0,57.0,-1.0,1
259.0,-14.0,4.0,-2.0,58.0,4.0,1
260.0,-16.0,4.0,-1.0,61.0,1.0,1
258.0,-15.0,2.0,0.0,60.0,4.0,1
261.0,-13.0,7.0,-1.0,64.0,2.0,1
263.0,-16.0,3.0,-2.0,64.0,4.0,1
259.0,-12.0,1.0,-3.0,65.0,1.0,1
258.0,-13.0,7.0,-7.0,66.0,2.0,1
259.0,-15.0,4.0,-9.0,67.0,-2.0,1
259.0,-13.0,8.0,-10.0,68.0,1.0,1
258.0,-14.0,7.0,-12.0,69.0,-1.0,1
260.0,-12.0,7.0,-12.0,69.0,0.0,1
259.0,-16.0,5.0,-11.0,70.0,-3.0,1
259.0,-17.0,5.0,-11.0,71.0,-2.0,1
261.0,-14.0,1.0,-9.0,73.0,-3.0,1
258.0,-11.0,2.0,-9.0,73.0,-3.0,1
258.0,-12.0,5.0,-9.0,76.0,-3.0,1
262.0,-13.0,3.0,-10.0,77.0,1.0,1
260.0,-13.0,5.0,-10.0,80.0,-1.0,1
262.0,-11.0,5.0,-13.0,82.0,3.0,1
256.0,-8.0,6.0,-17.0,83.0,1.0,1
260.0,-12.0,9.0,-22.0,86.0,4.0,1
259.0,-11.0,8.0,-26.0,87.0,2.0,1
261.0,-17.0,7.0,-27.0,86.0,3.0,1
258.0,-15.0,6.0,-27.0,84.0,1.0,1
260.0,-15.0,2.0,-24.0,79.0,4.0,1
259.0,-12.0,9.0,-21.0,76.0,4.0,1
261.0,-14.0,8.0,-18.0,73.0,7.0,1
259.0,-13.0,7.0,-15.0,70.0,5.0,1
258.0,-11.0,6.0,-14.0,67.0,7.0,1
255.0,-14.0,4.0,-13.0,66.0,5.0,1
260.0,-14.0,8.0,-14.0,64.0,5.0,1
262.0,-14.0,5.0,-17.0,64.0,1.0,1
259.0,-15.0,9.0,-17.0,66.0,2.0,1
257.0,-14.0,6.0,-19.0,65.0,-2.0,1
257.0,-14.0,8.0,-19.0,66.0,-1.0,1
258.0,-15.0,7.0,-17.0,65.0,-2.0,1
260.0,-15.0,6.0,-13.0,64.0,-1.0,1
257.0,-13.0,6.0,-11.0,62.0,0.0,1
262.0,-16.0,7.0,-12.0,60.0,0.0,1
258.0,-12.0,8.0,-15.0,62.0,-2.0,1
260.0,-18.0,7.0,-18.0,63.0,-3.0,1
258.0,-13.0,8.0,-20.0,62.0,-5.0,1
254.0,-14.0,8.0,-22.0,57.0,-4.0,1
257.0,-13.0,8.0,-19.0,56.0,-7.0,1
259.0,-11.0,6.0,-18.0,53.0,-5.0,1
257.0,-14.0,7.0,-14.0,51.0,-5.0,1
258.0,-14.0,7.0,-9.0,49.0,-4.0,1
256.0,-15.0,6.0,-5.0,46.0,-6.0,1
262.0,-16.0,4.0,-2.0,46.0,-4.0,1
259.0,-14.0,8.0,1.0,45.0,-4.0,1
260.0,-14.0,3.0,0.0,46.0,-4.0,1
260.0,-14.0,6.0,-3.0,51.0,-4.0,1
261.0,-14.0,4.0,-7.0,54.0,-3.0,1
260.0,-13.0,5.0,-9.0,54.0,-6.0,1
257.0,-13.0,5.0,-10.0,58.0,-3.0,1
261.0,-15.0,2.0,-11.0,58.0,-4.0,1
260.0,-12.0,1.0,-10.0,58.0,-4.0,1
259.0,-15.0,2.0,-12.0,59.0,-3.0,1
258.0,-13.0,7.0,-12.0,61.0,-3.0,1
260.0,-11.0,5.0,-14.0,62.0,-3.0,1
261.0,-12.0,5.0,-15.0,67.0,-4.0,1
260.0,-14.0,5.0,-15.0,70.0,-6.0,1
261.0,-12.0,6.0,-16.0,72.0,-5.0,1
261.0,-12.0,7.0,-15.0,73.0,-5.0,1
262.0,-13.0,5.0,-15.0,73.0,-4.0,1
262.0,-14.0,4.0,-14.0,75.0,-2.0,1
258.0,-11.0,7.0,-13.0,74.0,-2.0,1
258.0,-14.0,4.0,-14.0,75.0,-2.0,1
259.0,-14.0,8.0,-15.0,73.0,-2.0,1
260.0,-12.0,6.0,-16.0,74.0,-1.0,1
261.0,-15.0,7.0,-14.0,73.0,0.0,1
260.0,-14.0,8.0,-15.0,74.0,1.0,1
259.0,-11.0,7.0,-18.0,75.0,1.0,1
258.0,-14.0,8.0,-18.0,74.0,3.0,1
258.0,-14.0,3.0,-19.0,74.0,1.0,1
260.0,-15.0,8.0,-20.0,75.0,1.0,1
259.0,-16.0,5.0,-20.0,75.0,0.0,1
259.0,-14.0,5.0,-22.0,77.0,1.0,1
258.0,-13.0,5.0,-22.0,76.0,2.0,1
259.0,-16.0,6.0,-23.0,77.0,1.0,1
257.0,-15.0,4.0,-21.0,76.0,0.0,1
259.0,-13.0,4.0,-21.0,77.0,1.0,1
261.0,-14.0,7.0,-20.0,76.0,1.0,1
258.0,-15.0,5.0,-19.0,75.0,2.0,1
260.0,-12.0,5.0,-18.0,74.0,1.0,1
258.0,-13.0,7.0,-18.0,74.0,1.0,1
260.0,-13.0,9.0,-17.0,71.0,1.0,1
258.0,-16.0,7.0,-16.0,71.0,1.0,1
256.0,-11.0,11.0,-16.0,68.0,0.0,1
259.0,-12.0,9.0,-15.0,65.0,1.0,1
259.0,-12.0,7.0,-15.0,65.0,-1.0,1
259.0,-11.0,8.0,-15.0,61.0,2.0,1
260.0,-13.0,6.0,-15.0,61.0,0.0,1
264.0,-14.0,7.0,-15.0,62.0,2.0,1
260.0,-13.0,8.0,-14.0,62.0,1.0,1
263.0,-15.0,5.0,-14.0,60.0,3.0,1
260.0,-17.0,7.0,-15.0,60.0,1.0,1
258.0,-15.0,4.0,-16.0,58.0,2.0,1
259.0,-15.0,9.0,-18.0,58.0,2.0,1
257.0,-13.0,8.0,-19.0,60.0,1.0,1
258.0,-13.0,7.0,-20.0,59.0,-2.0,1
259.0,-13.0,7.0,-22.0,58.0,1.0,1
258.0,-13.0,8.0,-22.0,56.0,-1.0,1
258.0,-12.0,8.0,-19.0,53.0,2.0,1
260.0,-15.0,7.0,-17.0,53.0,0.0,1
259.0,-14.0,8.0,-14.0,52.0,4.0,1
258.0,-15.0,6.0,-9.0,50.0,2.0,1
259.0,-16.0,8.0,-4.0,47.0,5.0,1
259.0,-14.0,2.0,-2.0,46.0,3.0,1
257.0,-14.0,4.0,-3.0,47.0,5.0,1
262.0,-15.0,7.0,-6.0,50.0,2.0,1
259.0,-15.0,5.0,-9.0,53.0,4.0,1
262.0,-18.0,6.0,-10.0,54.0,0.0,1
259.0,-13.0,3.0,-10.0,53.0,3.0,1
258.0,-13.0,5.0,-9.0,52.0,1.0,1
260.0,-16.0,8.0,-9.0,52.0,4.0,1
259.0,-13.0,4.0,-8.0,51.0,1.0,1
261.0,-14.0,5.0,-10.0,53.0,4.0,1
260.0,-13.0,6.0,-12.0,53.0,0.0,1
259.0,-14.0,4.0,-12.0,55.0,3.0,1
260.0,-15.0,8.0,-13.0,56.0,1.0,1
263.0,-18.0,8.0,-14.0,56.0,3.0,1
257.0,-15.0,6.0,-12.0,57.0,0.0,1
260.0,-13.0,2.0,-12.0,56.0,1.0,1
260.0,-15.0,6.0,-11.0,59.0,-2.0,1
258.0,-10.0,8.0,-11.0,58.0,1.0,1
258.0,-17.0,6.0,-8.0,60.0,0.0,1
258.0,-15.0,7.0,-8.0,62.0,3.0,1
258.0,-13.0,2.0,-8.0,62.0,1.0,1
259.0,-14.0,5.0,-7.0,61.0,2.0,1
261.0,-14.0,6.0,-6.0,62.0,0.0,1
258.0,-13.0,3.0,-7.0,64.0,3.0,1
261.0,-14.0,7.0,-7.0,67.0,1.0,1
263.0,-15.0,4.0,-11.0,67.0,4.0,1
257.0,-12.0,6.0,-12.0,69.0,1.0,1
260.0,-11.0,8.0,-13.0,68.0,3.0,1
259.0,-15.0,8.0,-14.0,67.0,0.0,1
260.0,-15.0,4.0,-14.0,68.0,3.0,1
259.0,-14.0,6.0,-14.0,68.0,0.0,1
257.0,-12.0,4.0,-15.0,68.0,2.0,1
256.0,-15.0,7.0,-13.0,66.0,0.0,1
258.0,-13.0,5.0,-10.0,67.0,3.0,1
258.0,-15.0,8.0,-8.0,66.0,3.0,1
261.0,-13.0,6.0,-6.0,66.0,5.0,1
263.0,-16.0,6.0,-4.0,67.0,1.0,1
257.0,-13.0,1.0,-4.0,69.0,4.0,1
258.0,-14.0,5.0,-6.0,71.0,1.0,1
261.0,-12.0,5.0,-7.0,71.0,3.0,1
261.0,-13.0,6.0,-8.0,72.0,1.0,1
256.0,-15.0,5.0,-10.0,74.0,2.0,1
259.0,-13.0,8.0,-9.0,74.0,1.0,1
260.0,-12.0,5.0,-10.0,74.0,3.0,1
259.0,-12.0,8.0,-9.0,75.0,1.0,1
258.0,-16.0,5.0,-9.0,73.0,5.0,1
259.0,-13.0,7.0,-10.0,72.0,2.0,1
261.0,-13.0,8.0,-10.0,70.0,6.0,1
261.0,-12.0,8.0,-9.0,68.0,3.0,1
261.0,-13.0,9.0,-9.0,66.0,5.0,1
263.0,-16.0,7.0,-8.0,64.0,3.0,1
260.0,-13.0,8.0,-6.0,62.0,4.0,1
258.0,-16.0,7.0,-3.0,60.0,3.0,1
259.0,-15.0,9.0,-2.0,61.0,5.0,1
260.0,-14.0,2.0,0.0,61.0,3.0,1
259.0,-17.0,8.0,0.0,61.0,5.0,1
259.0,-13.0,4.0,0.0,61.0,4.0,1
261.0,-17.0,6.0,-1.0,65.0,6.0,1
258.0,-17.0,8.0,-5.0,66.0,3.0,1
258.0,-10.0,8.0,-10.0,69.0,4.0,1
257.0,-15.0,8.0,-15.0,73.0,1.0,1
255.0,-13.0,7.0,-19.0,74.0,3.0,1
257.0,-15.0,8.0,-22.0,76.0,1.0,1
259.0,-14.0,9.0,-22.0,74.0,3.0,1
255.0,-14.0,8.0,-19.0,72.0,0.0,1
258.0,-14.0,9.0,-15.0,71.0,3.0,1
260.0,-17.0,6.0,-9.0,66.0,2.0,1
259.0,-15.0,8.0,-6.0,64.0,4.0,1
257.0,-14.0,4.0,-2.0,62.0,2.0,1
260.0,-15.0,7.0,-2.0,61.0,5.0,1
258.0,-13.0,9.0,-3.0,63.0,2.0,1
259.0,-16.0,2.0,-6.0,62.0,3.0,1
259.0,-14.0,6.0,-6.0,64.0,2.0,1
260.0,-13.0,5.0,-9.0,64.0,5.0,1
258.0,-15.0,8.0,-11.0,66.0,1.0,1
257.0,-16.0,4.0,-11.0,66.0,3.0,1
257.0,-14.0,4.0,-7.0,65.0,2.0,1
260.0,-12.0,5.0,-3.0,63.0,3.0,1
260.0,-14.0,8.0,-2.0,63.0,2.0,1
257.0,-15.0,7.0,-6.0,64.0,1.0,1
258.0,-13.0,7.0,-11.0,67.0,-2.0,1
257.0,-17.0,9.0,-13.0,67.0,-1.0,1
259.0,-13.0,6.0,-13.0,67.0,-4.0,1
258.0,-14.0,8.0,-12.0,67.0,-3.0,1
259.0,-13.0,8.0,-11.0,65.0,-4.0,1
257.0,-13.0,9.0,-10.0,64.0,-2.0,1
258.0,-15.0,6.0,-7.0,66.0,-1.0,1
261.0,-18.0,8.0,-6.0,63.0,-1.0,1
258.0,-12.0,8.0,-5.0,62.0,-3.0,1
262.0,-18.0,8.0,-1.0,60.0,-2.0,1
259.0,-14.0,6.0,-2.0,57.0,-2.0,1
259.0,-12.0,7.0,-5.0,59.0,-1.0,1
257.0,-14.0,7.0,-10.0,60.0,-1.0,1
259.0,-12.0,8.0,-14.0,62.0,-1.0,1
259.0,-15.0,7.0,-17.0,60.0,-2.0,1
259.0,-15.0,9.0,-18.0,60.0,-1.0,1
259.0,-14.0,6.0,-21.0,57.0,-2.0,1
257.0,-14.0,8.0,-21.0,56.0,-2.0,1
259.0,-12.0,6.0,-23.0,51.0,-3.0,1
259.0,-16.0,8.0,-25.0,52.0,-3.0,1
257.0,-14.0,10.0,-26.0,49.0,-4.0,1
258.0,-14.0,8.0,-25.0,49.0,-3.0,1
258.0,-17.0,9.0,-25.0,49.0,-4.0,1
256.0,-14.0,6.0,-25.0,46.0,-4.0,1
258.0,-17.0,7.0,-20.0,45.0,-6.0,1
259.0,-17.0,9.0,-18.0,43.0,-6.0,1
262.0,-14.0,6.0,-14.0,41.0,-6.0,1
261.0,-14.0,7.0,-10.0,40.0,-4.0,1
260.0,-16.0,5.0,-8.0,39.0,-4.0,1
259.0,-13.0,6.0,-7.0,41.0,-2.0,1
260.0,-15.0,1.0,-5.0,42.0,-4.0,1
259.0,-13.0,5.0,-6.0,46.0,-4.0,1
261.0,-14.0,7.0,-6.0,49.0,-4.0,1
258.0,-12.0,5.0,-6.0,51.0,-4.0,1
257.0,-12.0,5.0,-7.0,53.0,-2.0,1
261.0,-13.0,6.0,-5.0,55.0,-1.0,1
259.0,-12.0,6.0,-6.0,57.0,0.0,1
259.0,-15.0,6.0,-5.0,64.0,1.0,1
259.0,-15.0,8.0,-9.0,60.0,1.0,1
258.0,-14.0,8.0,-8.0,58.0,0.0,1
259.0,-15.0,8.0,-7.0,56.0,0.0,1
259.0,-16.0,7.0,-4.0,56.0,0.0,1
259.0,-16.0,7.0,-4.0,55.0,0.0,1
260.0,-12.0,5.0,-6.0,56.0,0.0,1
262.0,-16.0,4.0,-5.0,55.0,2.0,1
260.0,-14.0,5.0,-6.0,55.0,2.0,1
257.0,-14.0,7.0,-8.0,56.0,0.0,1
262.0,-16.0,6.0,-11.0,57.0,0.0,1
259.0,-14.0,3.0,-13.0,58.0,0.0,1
260.0,-16.0,7.0,-15.0,56.0,-2.0,1
260.0,-16.0,4.0,-17.0,57.0,-3.0,1
256.0,-12.0,1.0,-19.0,58.0,-3.0,1
258.0,-14.0,6.0,-19.0,58.0,-3.0,1
258.0,-12.0,7.0,-19.0,60.0,-4.0,1
259.0,-14.0,9.0,-19.0,58.0,-5.0,1
256.0,-11.0,7.0,-18.0,56.0,-5.0,1
258.0,-15.0,8.0,-17.0,54.0,-4.0,1
260.0,-14.0,4.0,-17.0,54.0,-4.0,1
260.0,-10.0,8.0,-18.0,54.0,-4.0,1
261.0,-15.0,9.0,-18.0,53.0,-5.0,1
258.0,-15.0,5.0,-19.0,54.0,-3.0,1
260.0,-14.0,12.0,-21.0,55.0,-6.0,1
259.0,-17.0,8.0,-22.0,54.0,-5.0,1
261.0,-14.0,8.0,-22.0,51.0,-5.0,1
261.0,-16.0,10.0,-23.0,49.0,-4.0,1
261.0,-12.0,6.0,-22.0,48.0,-7.0,1
259.0,-18.0,8.0,-21.0,47.0,-6.0,1
259.0,-15.0,8.0,-16.0,45.0,-8.0,1
259.0,-15.0,9.0,-13.0,41.0,-6.0,1
256.0,-15.0,8.0,-12.0,38.0,-9.0,1
261.0,-14.0,6.0,-15.0,40.0,-8.0,1
258.0,-16.0,8.0,-18.0,41.0,-10.0,1
261.0,-13.0,8.0,-21.0,41.0,-9.0,1
257.0,-11.0,9.0,-22.0,38.0,-10.0,1
257.0,-12.0,6.0,-21.0,34.0,-8.0,1
259.0,-15.0,8.0,-18.0,30.0,-10.0,1
257.0,-16.0,8.0,-16.0,24.0,-8.0,1
260.0,-16.0,5.0,-17.0,22.0,-9.0,1
259.0,-16.0,8.0,-14.0,20.0,-8.0,1
259.0,-13.0,9.0,-12.0,17.0,-10.0,1
258.0,-12.0,8.0,-12.0,16.0,-9.0,1
259.0,-12.0,4.0,-11.0,16.0,-11.0,1
258.0,-18.0,4.0,-12.0,17.0,-10.0,1
257.0,-10.0,5.0,-12.0,17.0,-13.0,1
262.0,-14.0,8.0,-15.0,18.0,-11.0,1
260.0,-13.0,7.0,-16.0,19.0,-13.0,1
258.0,-13.0,1.0,-16.0,19.0,-11.0,1
258.0,-13.0,12.0,-16.0,18.0,-13.0,1
261.0,-14.0,6.0,-15.0,18.0,-12.0,1
258.0,-11.0,1.0,-14.0,17.0,-13.0,1
257.0,-12.0,3.0,-11.0,17.0,-11.0,1
258.0,-10.0,3.0,-9.0,17.0,-11.0,1
259.0,-13.0,3.0,-9.0,17.0,-11.0,1
261.0,-15.0,5.0,-9.0,20.0,-12.0,1
259.0,-11.0,5.0,-9.0,20.0,-10.0,1
259.0,-13.0,5.0,-9.0,22.0,-11.0,1
262.0,-14.0,1.0,-11.0,22.0,-10.0,1
262.0,-12.0,6.0,-11.0,25.0,-13.0,1
262.0,-14.0,4.0,-11.0,27.0,-10.0,1
259.0,-15.0,5.0,-12.0,27.0,-13.0,1
261.0,-14.0,4.0,-14.0,27.0,-11.0,1
258.0,-14.0,7.0,-13.0,29.0,-15.0,1
262.0,-15.0,7.0,-13.0,28.0,-12.0,1
261.0,-12.0,7.0,-14.0,28.0,-14.0,1
260.0,-15.0,4.0,-11.0,27.0,-11.0,1
259.0,-13.0,7.0,-11.0,27.0,-15.0,1
261.0,-14.0,1.0,-11.0,26.0,-10.0,1
258.0,-13.0,4.0,-10.0,25.0,-11.0,1
257.0,-13.0,6.0,-9.0,24.0,-8.0,1
259.0,-16.0,7.0,-12.0,22.0,-11.0,1
259.0,-13.0,7.0,-13.0,21.0,-10.0,1
259.0,-11.0,4.0,-15.0,19.0,-10.0,1
260.0,-15.0,7.0,-17.0,17.0,-9.0,1
259.0,-16.0,8.0,-20.0,15.0,-12.0,1
259.0,-13.0,3.0,-21.0,12.0,-10.0,1
258.0,-14.0,4.0,-22.0,9.0,-12.0,1
258.0,-16.0,9.0,-21.0,5.0,-10.0,1
259.0,-15.0,5.0,-21.0,0.0,-15.0,1
259.0,-13.0,4.0,-17.0,-3.0,-13.0,1
262.0,-13.0,6.0,-17.0,-7.0,-16.0,1
260.0,-12.0,3.0,-18.0,-11.0,-15.0,1
258.0,-15.0,5.0,-17.0,-11.0,-19.0,1
259.0,-14.0,7.0,-16.0,-12.0,-15.0,1
262.0,-15.0,5.0,-13.0,-12.0,-18.0,1
259.0,-15.0,5.0,-14.0,-12.0,-16.0,1
259.0,-14.0,2.0,-15.0,-12.0,-20.0,1
259.0,-14.0,6.0,-19.0,-8.0,-18.0,1
260.0,-15.0,-3.0,-24.0,-5.0,-22.0,1
257.0,-14.0,0.0,-27.0,-3.0,-20.0,1
258.0,-15.0,5.0,-29.0,-1.0,-24.0,1
260.0,-13.0,1.0,-29.0,0.0,-21.0,1
256.0,-12.0,3.0,-28.0,0.0,-22.0,1
259.0,-12.0,3.0,-22.0,0.0,-19.0,1
259.0,-13.0,5.0,-19.0,-3.0,-20.0,1
260.0,-16.0,-3.0,-14.0,-4.0,-18.0,1
257.0,-12.0,2.0,-10.0,-5.0,-18.0,1
260.0,-15.0,-2.0,-6.0,-7.0,-15.0,1
257.0,-11.0,0.0,-4.0,-8.0,-17.0,1
260.0,-13.0,-4.0,-4.0,-8.0,-15.0,1
258.0,-12.0,4.0,-6.0,-5.0,-18.0,1
259.0,-11.0,0.0,-8.0,-5.0,-16.0,1
257.0,-11.0,0.0,-11.0,-3.0,-19.0,1
258.0,-15.0,4.0,-12.0,0.0,-15.0,1
259.0,-13.0,1.0,-12.0,2.0,-18.0,1
260.0,-15.0,-4.0,-9.0,3.0,-15.0,1
259.0,-15.0,1.0,-3.0,4.0,-17.0,1
259.0,-9.0,-1.0,0.0,3.0,-15.0,1
260.0,-15.0,-1.0,0.0,5.0,-19.0,1
260.0,-12.0,-2.0,-1.0,9.0,-16.0,1
263.0,-11.0,-1.0,-3.0,13.0,-18.0,1
261.0,-13.0,2.0,-5.0,15.0,-18.0,1
260.0,-12.0,-4.0,-9.0,21.0,-20.0,1
260.0,-13.0,3.0,-10.0,24.0,-16.0,1
260.0,-12.0,-3.0,-11.0,29.0,-17.0,1
261.0,-12.0,-4.0,-12.0,29.0,-14.0,1
261.0,-11.0,-1.0,-8.0,32.0,-14.0,1
259.0,-12.0,-3.0,-4.0,33.0,-10.0,1
260.0,-12.0,-2.0,-3.0,35.0,-10.0,1
261.0,-13.0,-4.0,-5.0,38.0,-8.0,1
261.0,-15.0,-1.0,-8.0,42.0,-9.0,1
262.0,-12.0,0.0,-14.0,47.0,-7.0,1
260.0,-12.0,2.0,-17.0,51.0,-8.0,1
259.0,-13.0,-2.0,-17.0,51.0,-5.0,1
259.0,-11.0,-3.0,-16.0,52.0,-8.0,1
259.0,-13.0,5.0,-15.0,49.0,-5.0,1
260.0,-12.0,1.0,-13.0,47.0,-6.0,1
260.0,-13.0,-1.0,-13.0,45.0,-5.0,1
261.0,-14.0,2.0,-13.0,44.0,-6.0,1
261.0,-12.0,0.0,-13.0,44.0,-6.0,1
263.0,-11.0,-1.0,-13.0,45.0,-6.0,1
260.0,-12.0,-3.0,-14.0,45.0,-6.0,1
260.0,-13.0,-2.0,-12.0,45.0,-7.0,1
257.0,-12.0,-1.0,-11.0,46.0,-5.0,1
260.0,-16.0,-6.0,-11.0,49.0,-7.0,1
258.0,-13.0,2.0,-11.0,50.0,-6.0,1
258.0,-15.0,1.0,-9.0,53.0,-10.0,1
261.0,-12.0,-1.0,-11.0,56.0,-7.0,1
258.0,-11.0,0.0,-11.0,57.0,-8.0,1
259.0,-12.0,0.0,-11.0,59.0,-7.0,1
260.0,-13.0,-2.0,-11.0,58.0,-8.0,1
258.0,-9.0,2.0,-12.0,59.0,-7.0,1
261.0,-14.0,1.0,-10.0,61.0,-8.0,1
259.0,-15.0,2.0,-9.0,60.0,-6.0,1
260.0,-9.0,0.0,-8.0,61.0,-8.0,1
261.0,-11.0,0.0,-9.0,57.0,-5.0,1
257.0,-12.0,2.0,-9.0,56.0,-5.0,1
259.0,-13.0,-3.0,-6.0,56.0,-4.0,1
255.0,-10.0,2.0,-7.0,53.0,-6.0,1
259.0,-11.0,1.0,-9.0,50.0,-3.0,1
261.0,-16.0,-1.0,-10.0,48.0,-6.0,1
261.0,-10.0,-1.0,-12.0,45.0,-5.0,1
259.0,-12.0,1.0,-11.0,44.0,-8.0,1
259.0,-12.0,0.0,-14.0,41.0,-9.0,1
258.0,-9.0,5.0,-15.0,39.0,-11.0,1
259.0,-14.0,6.0,-17.0,36.0,-12.0,1
260.0,-13.0,2.0,-20.0,33.0,-13.0,1
259.0,-13.0,4.0,-20.0,32.0,-13.0,1
262.0,-14.0,1.0,-22.0,29.0,-14.0,1
254.0,-11.0,3.0,-23.0,26.0,-15.0,1
259.0,-12.0,5.0,-25.0,23.0,-15.0,1
254.0,-12.0,-1.0,-23.0,24.0,-14.0,1
263.0,-21.0,-13.0,-24.0,23.0,-16.0,1
267.0,-9.0,10.0,-24.0,24.0,-16.0,1
253.0,-5.0,-1.0,-24.0,25.0,-16.0,1
271.0,-1.0,3.0,-23.0,27.0,-14.0,1
260.0,-10.0,-14.0,-22.0,29.0,-13.0,1
259.0,-9.0,-4.0,-24.0,32.0,-13.0,1
259.0,-12.0,-4.0,-25.0,36.0,-14.0,1
259.0,-9.0,-4.0,-28.0,38.0,-10.0,1
256.0,-9.0,-7.0,-25.0,38.0,-10.0,1
262.0,-11.0,0.0,-24.0,39.0,-8.0,1
261.0,-12.0,-1.0,-22.0,41.0,-6.0,1
262.0,-12.0,-7.0,-20.0,44.0,-5.0,1
260.0,-12.0,-4.0,-17.0,46.0,-3.0,1
259.0,-12.0,-2.0,-15.0,48.0,-3.0,1
260.0,-13.0,-6.0,-14.0,50.0,-3.0,1
258.0,-12.0,-4.0,-11.0,57.0,-3.0,1
260.0,-11.0,-1.0,-10.0,60.0,-3.0,1
260.0,-12.0,-3.0,-9.0,63.0,-3.0,1
260.0,-12.0,-4.0,-9.0,65.0,-1.0,1
260.0,-9.0,-5.0,-9.0,65.0,-1.0,1
259.0,-10.0,-2.0,-11.0,65.0,1.0,1
261.0,-11.0,0.0,-11.0,64.0,0.0,1
260.0,-10.0,0.0,-11.0,62.0,1.0,1
260.0,-14.0,-2.0,-13.0,60.0,0.0,1
259.0,-14.0,0.0,-16.0,59.0,-1.0,1
259.0,-10.0,-5.0,-18.0,58.0,-2.0,1
262.0,-11.0,-1.0,-20.0,56.0,-4.0,1
258.0,-10.0,0.0,-23.0,54.0,-6.0,1
258.0,-11.0,3.0,-26.0,52.0,-7.0,1
259.0,-8.0,-4.0,-29.0,50.0,-9.0,1
260.0,-14.0,2.0,-30.0,46.0,-9.0,1
259.0,-11.0,3.0,-31.0,44.0,-10.0,1
